init_exp.started,init_exp.stopped,participant,session,date,expName,psychopyVersion,OS,frameRate,study_id,disp_instruction.started,disp_instruction.stopped,instruction.thisRepN,instruction.thisTrialN,instruction.thisN,instruction.thisIndex,instruction.ran,instimg_path,consent.started,consent.stopped,key_resp_3.keys,key_resp_3.rt,key_resp_3.duration,n_steps,sequence_path,init_block.started,init_block.stopped,key_resp.keys,key_resp.rt,key_resp.duration,init_trials.started,init_trials.stopped,step0.started,step0.stopped,act0,s1,res0.keys,res0.rt,res0.duration,step1.started,step1.stopped,act1,s2,res1.keys,step2.started,step2.stopped,act2,s3,res2.keys,rew,reward_comp.started,reward_comp.stopped,reward_disp.started,reward_disp.stopped,trials.thisRepN,trials.thisTrialN,trials.thisN,trials.thisIndex,trials.ran,s00a0s10,s00a0s11,s00a1s10,s00a1s11,rew10,rew11,break_block.started,break_block.stopped,block.thisRepN,block.thisTrialN,block.thisN,block.thisIndex,block.ran,s00path,s10path,s11path,s20path,s21path,res1.rt,res1.duration,s10a0s20,s10a0s21,s10a1s20,s10a1s21,s11a0s20,s11a0s21,s11a1s20,s11a1s21,rew20,rew21,res2.rt,res2.duration,s20a0s30,s20a0s31,s20a1s30,s20a1s31,s21a0s30,s21a0s31,s21a1s30,s21a1s31,rew30,rew31
0.0004,0.002,5bb511c6689fc5000149c703,66fcb667f2ddb9451f46603e,2024-10-01_20h59.13.924,mdp,2024.2.1,Win32,5.002501251,66fa4ebf79326e780c390304,,,,,,,,,,,,,,,,,,,,,,,,,,,,,,,,,,,,,,,,,,,,,,,,,,,,,,,,,,,,,,,,,,,,,,,,,,,,,,,,,,,,,,,,,,,
,,5bb511c6689fc5000149c703,66fcb667f2ddb9451f46603e,2024-10-01_20h59.13.924,mdp,2024.2.1,Win32,5.002501251,66fa4ebf79326e780c390304,0.0072,75.8635,0,0,0,0,1,rlnn_exp/rlnn_exp.001.png,,,,,,,,,,,,,,,,,,,,,,,,,,,,,,,,,,,,,,,,,,,,,,,,,,,,,,,,,,,,,,,,,,,,,,,,,,,,,,,,,,,
,,5bb511c6689fc5000149c703,66fcb667f2ddb9451f46603e,2024-10-01_20h59.13.924,mdp,2024.2.1,Win32,5.002501251,66fa4ebf79326e780c390304,75.8641,87.9181,0,1,1,1,1,rlnn_exp/rlnn_exp.002.png,,,,,,,,,,,,,,,,,,,,,,,,,,,,,,,,,,,,,,,,,,,,,,,,,,,,,,,,,,,,,,,,,,,,,,,,,,,,,,,,,,,
,,5bb511c6689fc5000149c703,66fcb667f2ddb9451f46603e,2024-10-01_20h59.13.924,mdp,2024.2.1,Win32,5.002501251,66fa4ebf79326e780c390304,87.92,134.2887,0,2,2,2,1,rlnn_exp/rlnn_exp.003.png,,,,,,,,,,,,,,,,,,,,,,,,,,,,,,,,,,,,,,,,,,,,,,,,,,,,,,,,,,,,,,,,,,,,,,,,,,,,,,,,,,,
,,5bb511c6689fc5000149c703,66fcb667f2ddb9451f46603e,2024-10-01_20h59.13.924,mdp,2024.2.1,Win32,5.002501251,66fa4ebf79326e780c390304,134.29,154.9626,0,3,3,3,1,rlnn_exp/rlnn_exp.004.png,,,,,,,,,,,,,,,,,,,,,,,,,,,,,,,,,,,,,,,,,,,,,,,,,,,,,,,,,,,,,,,,,,,,,,,,,,,,,,,,,,,
,,5bb511c6689fc5000149c703,66fcb667f2ddb9451f46603e,2024-10-01_20h59.13.924,mdp,2024.2.1,Win32,5.002501251,66fa4ebf79326e780c390304,,,,,,,,,154.9633,183.5164,y,18.1133,,,,,,,,,,,,,,,,,,,,,,,,,,,,,,,,,,,,,,,,,,,,,,,,,,,,,,,,,,,,,,,,,,,,,,,,,,,,,,,
,,5bb511c6689fc5000149c703,66fcb667f2ddb9451f46603e,2024-10-01_20h59.13.924,mdp,2024.2.1,Win32,5.002501251,66fa4ebf79326e780c390304,,,,,,,,,,,,,,1,seqs/st1seq27.csv,183.5244,185.4723,space,1.1976,0.0004,185.478,185.4782,185.4787,188.4035,1,1,right,2.1572,,188.4041,188.4069,,1,,188.4075,188.4093,,1,,0,188.4094,188.4095,188.4099,189.8441,0,0,0,0,1,0.6,0.4,0.4,0.6,1,0,,,,,,,,,,,,,,,,,,,,,,,,,,,,,,,,,,,,
,,5bb511c6689fc5000149c703,66fcb667f2ddb9451f46603e,2024-10-01_20h59.13.924,mdp,2024.2.1,Win32,5.002501251,66fa4ebf79326e780c390304,,,,,,,,,,,,,,,,,,,,,189.8447,189.8447,189.8456,191.2158,0,0,left,0.5808,,191.2173,191.2187,,0,,191.2197,191.2204,,1,,1,191.2204,191.2204,191.2211,192.686,0,1,1,1,1,0.6,0.4,0.4,0.6,1,0,,,,,,,,,,,,,,,,,,,,,,,,,,,,,,,,,,,,
,,5bb511c6689fc5000149c703,66fcb667f2ddb9451f46603e,2024-10-01_20h59.13.924,mdp,2024.2.1,Win32,5.002501251,66fa4ebf79326e780c390304,,,,,,,,,,,,,,,,,,,,,192.6864,192.6864,192.6876,193.9568,0,0,left,0.5709,,193.9584,193.9596,,1,,193.9608,193.9614,,0,,1,193.9615,193.9615,193.9622,195.5187,0,2,2,2,1,0.6,0.4,0.4,0.6,1,0,,,,,,,,,,,,,,,,,,,,,,,,,,,,,,,,,,,,
,,5bb511c6689fc5000149c703,66fcb667f2ddb9451f46603e,2024-10-01_20h59.13.924,mdp,2024.2.1,Win32,5.002501251,66fa4ebf79326e780c390304,,,,,,,,,,,,,,,,,,,,,195.5191,195.5191,195.5205,196.5281,0,1,left,0.2047,0.0002,196.5296,196.5308,,1,,196.5319,196.5327,,0,,0,196.5327,196.5327,196.5333,197.9951,0,3,3,3,1,0.6,0.4,0.4,0.6,1,0,,,,,,,,,,,,,,,,,,,,,,,,,,,,,,,,,,,,
,,5bb511c6689fc5000149c703,66fcb667f2ddb9451f46603e,2024-10-01_20h59.13.924,mdp,2024.2.1,Win32,5.002501251,66fa4ebf79326e780c390304,,,,,,,,,,,,,,,,,,,,,197.9956,197.9956,197.9965,199.0976,0,1,left,0.3825,,199.0992,199.1003,,0,,199.1014,199.1019,,0,,0,199.102,199.1021,199.1026,200.4654,0,4,4,4,1,0.6,0.4,0.4,0.6,1,0,,,,,,,,,,,,,,,,,,,,,,,,,,,,,,,,,,,,
,,5bb511c6689fc5000149c703,66fcb667f2ddb9451f46603e,2024-10-01_20h59.13.924,mdp,2024.2.1,Win32,5.002501251,66fa4ebf79326e780c390304,,,,,,,,,,,,,,,,,,,,,200.466,200.4661,200.4675,201.7006,0,0,left,0.421,0.0002,201.702,201.7033,,0,,201.7043,201.7049,,0,,1,201.7049,201.7049,201.7055,203.2047,0,5,5,5,1,0.2,0.8,0.6,0.4,1,0,,,,,,,,,,,,,,,,,,,,,,,,,,,,,,,,,,,,
,,5bb511c6689fc5000149c703,66fcb667f2ddb9451f46603e,2024-10-01_20h59.13.924,mdp,2024.2.1,Win32,5.002501251,66fa4ebf79326e780c390304,,,,,,,,,,,,,,,,,,,,,203.2051,203.2051,203.2064,204.4918,0,0,left,0.5658,,204.4932,204.4938,,0,,204.4953,204.4961,,0,,1,204.4963,204.4963,204.4969,205.8682,0,6,6,6,1,0.8,0.2,0.2,0.8,1,0,,,,,,,,,,,,,,,,,,,,,,,,,,,,,,,,,,,,
,,5bb511c6689fc5000149c703,66fcb667f2ddb9451f46603e,2024-10-01_20h59.13.924,mdp,2024.2.1,Win32,5.002501251,66fa4ebf79326e780c390304,,,,,,,,,,,,,,,,,,,,,205.8686,205.8686,205.8699,206.6516,0,0,left,0.0098,0.0002,206.653,206.6535,,0,,206.6543,206.6548,,0,,1,206.6549,206.6549,206.6561,208.1021,0,7,7,7,1,0.8,0.2,0.2,0.8,1,0,,,,,,,,,,,,,,,,,,,,,,,,,,,,,,,,,,,,
,,5bb511c6689fc5000149c703,66fcb667f2ddb9451f46603e,2024-10-01_20h59.13.924,mdp,2024.2.1,Win32,5.002501251,66fa4ebf79326e780c390304,,,,,,,,,,,,,,,,,,,,,208.1025,208.1026,208.1035,208.8225,0,0,left,0.0097,0.0002,208.8239,208.8249,,0,,208.826,208.8268,,0,,1,208.8269,208.827,208.8276,210.3249,0,8,8,8,1,0.8,0.2,0.2,0.8,1,0,,,,,,,,,,,,,,,,,,,,,,,,,,,,,,,,,,,,
,,5bb511c6689fc5000149c703,66fcb667f2ddb9451f46603e,2024-10-01_20h59.13.924,mdp,2024.2.1,Win32,5.002501251,66fa4ebf79326e780c390304,,,,,,,,,,,,,,,,,,,,,210.3253,210.3253,210.3261,211.3328,0,1,left,0.1966,0.0002,211.3348,211.3362,,0,,211.337,211.3378,,0,,0,211.3378,211.3379,211.3384,212.8069,0,9,9,9,1,0.8,0.2,0.2,0.8,1,0,,,,,,,,,,,,,,,,,,,,,,,,,,,,,,,,,,,,
,,5bb511c6689fc5000149c703,66fcb667f2ddb9451f46603e,2024-10-01_20h59.13.924,mdp,2024.2.1,Win32,5.002501251,66fa4ebf79326e780c390304,,,,,,,,,,,,,,,,,,,,,212.8073,212.8073,212.808,214.0244,0,0,left,0.368,,214.0257,214.0267,,1,,214.0278,214.0284,,0,,1,214.0284,214.0284,214.0289,215.4816,0,10,10,10,1,0.8,0.2,0.2,0.8,1,0,,,,,,,,,,,,,,,,,,,,,,,,,,,,,,,,,,,,
,,5bb511c6689fc5000149c703,66fcb667f2ddb9451f46603e,2024-10-01_20h59.13.924,mdp,2024.2.1,Win32,5.002501251,66fa4ebf79326e780c390304,,,,,,,,,,,,,,,,,,,,,215.482,215.482,215.4829,216.3022,0,0,left,0.0087,,216.3035,216.3047,,0,,216.3054,216.3062,,0,,1,216.3062,216.3062,216.3072,217.7463,0,11,11,11,1,0.6,0.4,0.6,0.4,1,0,,,,,,,,,,,,,,,,,,,,,,,,,,,,,,,,,,,,
,,5bb511c6689fc5000149c703,66fcb667f2ddb9451f46603e,2024-10-01_20h59.13.924,mdp,2024.2.1,Win32,5.002501251,66fa4ebf79326e780c390304,,,,,,,,,,,,,,,,,,,,,217.7467,217.7467,217.7475,218.4192,0,0,left,0.0086,,218.4214,218.4222,,0,,218.4229,218.4234,,1,,1,218.4234,218.4234,218.4239,219.7923,0,12,12,12,1,0.6,0.4,0.6,0.4,1,0,,,,,,,,,,,,,,,,,,,,,,,,,,,,,,,,,,,,
,,5bb511c6689fc5000149c703,66fcb667f2ddb9451f46603e,2024-10-01_20h59.13.924,mdp,2024.2.1,Win32,5.002501251,66fa4ebf79326e780c390304,,,,,,,,,,,,,,,,,,,,,219.7931,219.7931,219.7947,220.6385,0,0,left,0.0092,,220.6412,220.6421,,0,,220.6428,220.6433,,0,,1,220.6434,220.6434,220.6438,222.1303,0,13,13,13,1,0.6,0.4,0.6,0.4,1,0,,,,,,,,,,,,,,,,,,,,,,,,,,,,,,,,,,,,
,,5bb511c6689fc5000149c703,66fcb667f2ddb9451f46603e,2024-10-01_20h59.13.924,mdp,2024.2.1,Win32,5.002501251,66fa4ebf79326e780c390304,,,,,,,,,,,,,,,,,,,,,222.1306,222.1306,222.1315,222.9817,0,0,left,0.173,0.0002,222.9842,222.9848,,1,,222.9853,222.9856,,1,,1,222.9856,222.9856,222.9861,224.5277,0,14,14,14,1,0.8,0.2,0.8,0.2,1,0,,,,,,,,,,,,,,,,,,,,,,,,,,,,,,,,,,,,
,,5bb511c6689fc5000149c703,66fcb667f2ddb9451f46603e,2024-10-01_20h59.13.924,mdp,2024.2.1,Win32,5.002501251,66fa4ebf79326e780c390304,,,,,,,,,,,,,,,,,,,,,224.528,224.5281,224.5288,225.2421,0,0,left,0.0076,,225.2439,225.245,,0,,225.2455,225.2459,,0,,1,225.2459,225.2459,225.2463,226.7724,0,15,15,15,1,0.8,0.2,0.8,0.2,1,0,,,,,,,,,,,,,,,,,,,,,,,,,,,,,,,,,,,,
,,5bb511c6689fc5000149c703,66fcb667f2ddb9451f46603e,2024-10-01_20h59.13.924,mdp,2024.2.1,Win32,5.002501251,66fa4ebf79326e780c390304,,,,,,,,,,,,,,,,,,,,,226.7727,226.7727,226.7735,227.8392,0,1,left,0.3633,,227.8412,227.8422,,0,,227.8428,227.8433,,0,,0,227.8433,227.8433,227.8439,229.2616,0,16,16,16,1,0.8,0.2,0.8,0.2,1,0,,,,,,,,,,,,,,,,,,,,,,,,,,,,,,,,,,,,
,,5bb511c6689fc5000149c703,66fcb667f2ddb9451f46603e,2024-10-01_20h59.13.924,mdp,2024.2.1,Win32,5.002501251,66fa4ebf79326e780c390304,,,,,,,,,,,,,,,,,,,,,229.2621,229.2621,229.2631,230.566,0,0,left,0.5592,,230.5673,230.5683,,1,,230.5692,230.5698,,0,,1,230.5699,230.5699,230.5706,231.9687,0,17,17,17,1,0.8,0.2,0.8,0.2,1,0,,,,,,,,,,,,,,,,,,,,,,,,,,,,,,,,,,,,
,,5bb511c6689fc5000149c703,66fcb667f2ddb9451f46603e,2024-10-01_20h59.13.924,mdp,2024.2.1,Win32,5.002501251,66fa4ebf79326e780c390304,,,,,,,,,,,,,,,,,,,,,231.9695,231.9695,231.9709,233.2011,0,0,left,0.5097,,233.2024,233.2031,,0,,233.2042,233.2049,,1,,1,233.2049,233.2049,233.2059,234.6381,0,18,18,18,1,0.8,0.2,0.8,0.2,1,0,,,,,,,,,,,,,,,,,,,,,,,,,,,,,,,,,,,,
,,5bb511c6689fc5000149c703,66fcb667f2ddb9451f46603e,2024-10-01_20h59.13.924,mdp,2024.2.1,Win32,5.002501251,66fa4ebf79326e780c390304,,,,,,,,,,,,,,,,,,,,,234.6386,234.6387,234.6397,235.3593,0,1,left,0.0081,,235.3604,235.3615,,1,,235.363,235.3637,,0,,0,235.3638,235.3638,235.3647,236.8953,0,19,19,19,1,0.8,0.2,0.8,0.2,1,0,,,,,,,,,,,,,,,,,,,,,,,,,,,,,,,,,,,,
,,5bb511c6689fc5000149c703,66fcb667f2ddb9451f46603e,2024-10-01_20h59.13.924,mdp,2024.2.1,Win32,5.002501251,66fa4ebf79326e780c390304,,,,,,,,,,,,,,,,,,,,,236.8958,236.8958,236.8966,237.7989,0,1,left,0.1859,,237.8,237.801,,1,,237.8022,237.8029,,1,,0,237.8029,237.8029,237.8038,239.1874,0,20,20,20,1,0.2,0.8,0.6,0.4,1,0,,,,,,,,,,,,,,,,,,,,,,,,,,,,,,,,,,,,
,,5bb511c6689fc5000149c703,66fcb667f2ddb9451f46603e,2024-10-01_20h59.13.924,mdp,2024.2.1,Win32,5.002501251,66fa4ebf79326e780c390304,,,,,,,,,,,,,,,,,,,,,239.1876,239.1876,239.1884,239.9004,0,0,left,0.0078,0.0002,239.9017,239.9028,,1,,239.9037,239.9043,,1,,1,239.9043,239.9044,239.9049,241.42,0,21,21,21,1,0.2,0.8,0.6,0.4,1,0,,,,,,,,,,,,,,,,,,,,,,,,,,,,,,,,,,,,
,,5bb511c6689fc5000149c703,66fcb667f2ddb9451f46603e,2024-10-01_20h59.13.924,mdp,2024.2.1,Win32,5.002501251,66fa4ebf79326e780c390304,,,,,,,,,,,,,,,,,,,,,241.4204,241.4204,241.4212,242.5041,0,1,left,0.3685,,242.5054,242.5061,,0,,242.5073,242.508,,1,,0,242.5081,242.5081,242.5086,243.8729,0,22,22,22,1,0.2,0.8,0.6,0.4,1,0,,,,,,,,,,,,,,,,,,,,,,,,,,,,,,,,,,,,
,,5bb511c6689fc5000149c703,66fcb667f2ddb9451f46603e,2024-10-01_20h59.13.924,mdp,2024.2.1,Win32,5.002501251,66fa4ebf79326e780c390304,,,,,,,,,,,,,,,,,,,,,243.8732,243.8732,243.874,245.125,0,1,left,0.5502,,245.1264,245.1273,,1,,245.1283,245.1288,,1,,0,245.1289,245.1289,245.1293,246.6725,0,23,23,23,1,0.2,0.8,0.6,0.4,1,0,,,,,,,,,,,,,,,,,,,,,,,,,,,,,,,,,,,,
,,5bb511c6689fc5000149c703,66fcb667f2ddb9451f46603e,2024-10-01_20h59.13.924,mdp,2024.2.1,Win32,5.002501251,66fa4ebf79326e780c390304,,,,,,,,,,,,,,,,,,,,,246.6728,246.6728,246.6736,247.5904,0,1,left,0.1975,,247.5916,247.5923,,1,,247.5933,247.5941,,1,,0,247.5941,247.5941,247.5948,249.1117,0,24,24,24,1,0.2,0.8,0.6,0.4,1,0,,,,,,,,,,,,,,,,,,,,,,,,,,,,,,,,,,,,
,,5bb511c6689fc5000149c703,66fcb667f2ddb9451f46603e,2024-10-01_20h59.13.924,mdp,2024.2.1,Win32,5.002501251,66fa4ebf79326e780c390304,,,,,,,,,,,,,,,,,,,,,249.112,249.112,249.1127,250.3746,1,0,right,0.5522,,250.3758,250.3765,,1,,250.3776,250.3784,,0,,1,250.3784,250.3784,250.379,251.7729,0,25,25,25,1,0.2,0.8,0.6,0.4,1,0,,,,,,,,,,,,,,,,,,,,,,,,,,,,,,,,,,,,
,,5bb511c6689fc5000149c703,66fcb667f2ddb9451f46603e,2024-10-01_20h59.13.924,mdp,2024.2.1,Win32,5.002501251,66fa4ebf79326e780c390304,,,,,,,,,,,,,,,,,,,,,251.7733,251.7733,251.7742,252.8842,1,1,right,0.365,,252.8857,252.8869,,0,,252.8878,252.8882,,1,,0,252.8884,252.8884,252.8887,254.2575,0,26,26,26,1,0.6,0.4,0.4,0.6,1,0,,,,,,,,,,,,,,,,,,,,,,,,,,,,,,,,,,,,
,,5bb511c6689fc5000149c703,66fcb667f2ddb9451f46603e,2024-10-01_20h59.13.924,mdp,2024.2.1,Win32,5.002501251,66fa4ebf79326e780c390304,,,,,,,,,,,,,,,,,,,,,254.2579,254.2579,254.2587,255.3485,0,0,left,0.3664,,255.3503,255.3517,,0,,255.3525,255.353,,1,,1,255.353,255.3531,255.3536,256.7221,0,27,27,27,1,0.6,0.4,0.4,0.6,1,0,,,,,,,,,,,,,,,,,,,,,,,,,,,,,,,,,,,,
,,5bb511c6689fc5000149c703,66fcb667f2ddb9451f46603e,2024-10-01_20h59.13.924,mdp,2024.2.1,Win32,5.002501251,66fa4ebf79326e780c390304,,,,,,,,,,,,,,,,,,,,,256.7224,256.7225,256.7233,257.8042,0,1,left,0.3699,0.0002,257.8058,257.8068,,0,,257.808,257.8086,,1,,0,257.8087,257.8087,257.8094,259.201,0,28,28,28,1,0.6,0.4,0.4,0.6,1,0,,,,,,,,,,,,,,,,,,,,,,,,,,,,,,,,,,,,
,,5bb511c6689fc5000149c703,66fcb667f2ddb9451f46603e,2024-10-01_20h59.13.924,mdp,2024.2.1,Win32,5.002501251,66fa4ebf79326e780c390304,,,,,,,,,,,,,,,,,,,,,259.2014,259.2014,259.2021,260.2916,1,0,right,0.3768,,260.2932,260.2942,,1,,260.2952,260.2957,,0,,1,260.2957,260.2957,260.2962,261.6575,0,29,29,29,1,0.4,0.6,0.6,0.4,1,0,,,,,,,,,,,,,,,,,,,,,,,,,,,,,,,,,,,,
,,5bb511c6689fc5000149c703,66fcb667f2ddb9451f46603e,2024-10-01_20h59.13.924,mdp,2024.2.1,Win32,5.002501251,66fa4ebf79326e780c390304,,,,,,,,,,,,,,,,,,,,,261.6578,261.6578,261.6588,262.5785,0,1,left,0.1907,,262.58,262.5813,,0,,262.5822,262.5827,,0,,0,262.5827,262.5827,262.5832,264.1304,0,30,30,30,1,0.4,0.6,0.6,0.4,1,0,,,,,,,,,,,,,,,,,,,,,,,,,,,,,,,,,,,,
,,5bb511c6689fc5000149c703,66fcb667f2ddb9451f46603e,2024-10-01_20h59.13.924,mdp,2024.2.1,Win32,5.002501251,66fa4ebf79326e780c390304,,,,,,,,,,,,,,,,,,,,,264.1308,264.1308,264.1315,264.8632,0,1,left,0.0084,,264.8645,264.8656,,1,,264.8667,264.8673,,1,,0,264.8673,264.8673,264.8679,266.3867,0,31,31,31,1,0.4,0.6,0.6,0.4,1,0,,,,,,,,,,,,,,,,,,,,,,,,,,,,,,,,,,,,
,,5bb511c6689fc5000149c703,66fcb667f2ddb9451f46603e,2024-10-01_20h59.13.924,mdp,2024.2.1,Win32,5.002501251,66fa4ebf79326e780c390304,,,,,,,,,,,,,,,,,,,,,266.3878,266.3879,266.3899,267.1575,1,0,right,0.0094,0.0003,267.16,267.1605,,0,,267.1612,267.1617,,1,,1,267.1617,267.1617,267.1623,268.6037,0,32,32,32,1,0.8,0.2,0.8,0.2,1,0,,,,,,,,,,,,,,,,,,,,,,,,,,,,,,,,,,,,
,,5bb511c6689fc5000149c703,66fcb667f2ddb9451f46603e,2024-10-01_20h59.13.924,mdp,2024.2.1,Win32,5.002501251,66fa4ebf79326e780c390304,,,,,,,,,,,,,,,,,,,,,268.6041,268.6041,268.605,269.665,1,0,right,0.3778,0.0002,269.6675,269.6681,,1,,269.6688,269.6692,,0,,1,269.6692,269.6693,269.6697,271.1683,0,33,33,33,1,0.8,0.2,0.8,0.2,1,0,,,,,,,,,,,,,,,,,,,,,,,,,,,,,,,,,,,,
,,5bb511c6689fc5000149c703,66fcb667f2ddb9451f46603e,2024-10-01_20h59.13.924,mdp,2024.2.1,Win32,5.002501251,66fa4ebf79326e780c390304,,,,,,,,,,,,,,,,,,,,,271.1688,271.1688,271.1698,272.0135,1,1,right,0.0095,0.0003,272.0158,272.0164,,1,,272.0171,272.0177,,1,,0,272.0178,272.0178,272.0183,273.5244,0,34,34,34,1,0.6,0.4,0.2,0.8,1,0,,,,,,,,,,,,,,,,,,,,,,,,,,,,,,,,,,,,
,,5bb511c6689fc5000149c703,66fcb667f2ddb9451f46603e,2024-10-01_20h59.13.924,mdp,2024.2.1,Win32,5.002501251,66fa4ebf79326e780c390304,,,,,,,,,,,,,,,,,,,,,273.5249,273.5249,273.5259,274.6019,0,0,left,0.3852,,274.6043,274.6053,,1,,274.606,274.6066,,0,,1,274.6067,274.6067,274.6072,276.1378,0,35,35,35,1,0.6,0.4,0.2,0.8,1,0,,,,,,,,,,,,,,,,,,,,,,,,,,,,,,,,,,,,
,,5bb511c6689fc5000149c703,66fcb667f2ddb9451f46603e,2024-10-01_20h59.13.924,mdp,2024.2.1,Win32,5.002501251,66fa4ebf79326e780c390304,,,,,,,,,,,,,,,,,,,,,276.1383,276.1383,276.1394,277.9034,1,1,right,0.9514,0.0003,277.9062,277.9068,,1,,277.9076,277.9084,,1,,0,277.9084,277.9084,277.9091,279.3661,0,36,36,36,1,0.6,0.4,0.2,0.8,1,0,,,,,,,,,,,,,,,,,,,,,,,,,,,,,,,,,,,,
,,5bb511c6689fc5000149c703,66fcb667f2ddb9451f46603e,2024-10-01_20h59.13.924,mdp,2024.2.1,Win32,5.002501251,66fa4ebf79326e780c390304,,,,,,,,,,,,,,,,,,,,,279.3665,279.3665,279.3675,280.2982,0,1,left,0.1914,,280.3006,280.3014,,1,,280.3021,280.3026,,1,,0,280.3026,280.3026,280.3032,281.7035,0,37,37,37,1,0.6,0.4,0.2,0.8,1,0,,,,,,,,,,,,,,,,,,,,,,,,,,,,,,,,,,,,
,,5bb511c6689fc5000149c703,66fcb667f2ddb9451f46603e,2024-10-01_20h59.13.924,mdp,2024.2.1,Win32,5.002501251,66fa4ebf79326e780c390304,,,,,,,,,,,,,,,,,,,,,281.7038,281.7039,281.7047,282.7502,1,0,right,0.2222,0.0003,282.7532,282.7537,,0,,282.7544,282.7549,,1,,1,282.7549,282.7549,282.7556,284.1702,0,38,38,38,1,0.8,0.2,0.6,0.4,1,0,,,,,,,,,,,,,,,,,,,,,,,,,,,,,,,,,,,,
,,5bb511c6689fc5000149c703,66fcb667f2ddb9451f46603e,2024-10-01_20h59.13.924,mdp,2024.2.1,Win32,5.002501251,66fa4ebf79326e780c390304,,,,,,,,,,,,,,,,,,,,,284.1706,284.1706,284.1715,285.6669,1,1,right,0.7438,,285.6697,285.6704,,1,,285.6712,285.6717,,0,,0,285.6717,285.6717,285.6722,287.0615,0,39,39,39,1,0.6,0.4,0.4,0.6,1,0,,,,,,,,,,,,,,,,,,,,,,,,,,,,,,,,,,,,
,,5bb511c6689fc5000149c703,66fcb667f2ddb9451f46603e,2024-10-01_20h59.13.924,mdp,2024.2.1,Win32,5.002501251,66fa4ebf79326e780c390304,,,,,,,,,,,,,,,,,,,,,287.0619,287.062,287.0641,287.7958,1,0,right,0.0088,,287.7984,287.7989,,0,,287.7995,287.8,,0,,1,287.8,287.8,287.8004,289.1873,0,40,40,40,1,0.4,0.6,0.6,0.4,1,0,,,,,,,,,,,,,,,,,,,,,,,,,,,,,,,,,,,,
,,5bb511c6689fc5000149c703,66fcb667f2ddb9451f46603e,2024-10-01_20h59.13.924,mdp,2024.2.1,Win32,5.002501251,66fa4ebf79326e780c390304,,,,,,,,,,,,,,,,,,,,,289.1877,289.1877,289.1885,290.4468,1,0,right,0.558,0.0002,290.4493,290.4498,,0,,290.4505,290.4509,,0,,1,290.451,290.451,290.4515,291.8245,0,41,41,41,1,0.4,0.6,0.6,0.4,1,0,,,,,,,,,,,,,,,,,,,,,,,,,,,,,,,,,,,,
,,5bb511c6689fc5000149c703,66fcb667f2ddb9451f46603e,2024-10-01_20h59.13.924,mdp,2024.2.1,Win32,5.002501251,66fa4ebf79326e780c390304,,,,,,,,,,,,,,,,,,,,,291.825,291.825,291.8258,293.2872,1,1,right,0.7308,0.0003,293.2886,293.2895,,0,,293.2906,293.2911,,0,,0,293.2912,293.2912,293.2918,294.6768,0,42,42,42,1,0.4,0.6,0.6,0.4,1,0,,,,,,,,,,,,,,,,,,,,,,,,,,,,,,,,,,,,
,,5bb511c6689fc5000149c703,66fcb667f2ddb9451f46603e,2024-10-01_20h59.13.924,mdp,2024.2.1,Win32,5.002501251,66fa4ebf79326e780c390304,,,,,,,,,,,,,,,,,,,,,294.6773,294.6773,294.6781,295.5788,0,1,left,0.188,,295.5801,295.5809,,1,,295.5819,295.5827,,0,,0,295.5827,295.5827,295.5833,296.9346,0,43,43,43,1,0.4,0.6,0.6,0.4,1,0,,,,,,,,,,,,,,,,,,,,,,,,,,,,,,,,,,,,
,,5bb511c6689fc5000149c703,66fcb667f2ddb9451f46603e,2024-10-01_20h59.13.924,mdp,2024.2.1,Win32,5.002501251,66fa4ebf79326e780c390304,,,,,,,,,,,,,,,,,,,,,296.9349,296.9349,296.9358,298.0407,0,1,left,0.3771,0.0003,298.0419,298.0428,,0,,298.0437,298.0445,,0,,0,298.0446,298.0446,298.0453,299.4408,0,44,44,44,1,0.4,0.6,0.6,0.4,1,0,,,,,,,,,,,,,,,,,,,,,,,,,,,,,,,,,,,,
,,5bb511c6689fc5000149c703,66fcb667f2ddb9451f46603e,2024-10-01_20h59.13.924,mdp,2024.2.1,Win32,5.002501251,66fa4ebf79326e780c390304,,,,,,,,,,,,,,,,,,,,,299.4412,299.4412,299.4421,300.1723,0,1,left,0.0089,,300.1743,300.1756,,1,,300.1763,300.1768,,1,,0,300.1769,300.1769,300.1774,301.5499,0,45,45,45,1,0.4,0.6,0.6,0.4,1,0,,,,,,,,,,,,,,,,,,,,,,,,,,,,,,,,,,,,
,,5bb511c6689fc5000149c703,66fcb667f2ddb9451f46603e,2024-10-01_20h59.13.924,mdp,2024.2.1,Win32,5.002501251,66fa4ebf79326e780c390304,,,,,,,,,,,,,,,,,,,,,301.5503,301.5503,301.5512,302.3151,1,0,right,0.0096,0.0002,302.3172,302.3181,,0,,302.3188,302.3193,,1,,1,302.3193,302.3193,302.3198,303.7654,0,46,46,46,1,0.4,0.6,0.6,0.4,1,0,,,,,,,,,,,,,,,,,,,,,,,,,,,,,,,,,,,,
,,5bb511c6689fc5000149c703,66fcb667f2ddb9451f46603e,2024-10-01_20h59.13.924,mdp,2024.2.1,Win32,5.002501251,66fa4ebf79326e780c390304,,,,,,,,,,,,,,,,,,,,,303.7658,303.7659,303.7667,304.4662,1,0,right,0.0079,0.0002,304.4686,304.4691,,0,,304.4697,304.4702,,1,,1,304.4702,304.4702,304.4706,305.9266,0,47,47,47,1,0.4,0.6,0.6,0.4,1,0,,,,,,,,,,,,,,,,,,,,,,,,,,,,,,,,,,,,
,,5bb511c6689fc5000149c703,66fcb667f2ddb9451f46603e,2024-10-01_20h59.13.924,mdp,2024.2.1,Win32,5.002501251,66fa4ebf79326e780c390304,,,,,,,,,,,,,,,,,,,,,305.927,305.927,305.9278,306.7342,1,1,right,0.0094,0.0003,306.7364,306.7377,,0,,306.7386,306.7392,,0,,0,306.7392,306.7392,306.7397,308.2363,0,48,48,48,1,0.4,0.6,0.6,0.4,1,0,,,,,,,,,,,,,,,,,,,,,,,,,,,,,,,,,,,,
,,5bb511c6689fc5000149c703,66fcb667f2ddb9451f46603e,2024-10-01_20h59.13.924,mdp,2024.2.1,Win32,5.002501251,66fa4ebf79326e780c390304,,,,,,,,,,,,,,,,,,,,,308.2367,308.2367,308.2375,309.4537,0,0,left,0.5255,,309.4558,309.4566,,0,,309.4573,309.4577,,0,,1,309.4577,309.4577,309.4584,310.9152,0,49,49,49,1,0.4,0.6,0.6,0.4,1,0,,,,,,,,,,,,,,,,,,,,,,,,,,,,,,,,,,,,
,,5bb511c6689fc5000149c703,66fcb667f2ddb9451f46603e,2024-10-01_20h59.13.924,mdp,2024.2.1,Win32,5.002501251,66fa4ebf79326e780c390304,,,,,,,,,,,,,,,,,,,,,,,,,,,,,,,,,,,,,,,,,,,,,,,,,,,,,,,,310.9158,369.6282,0,0,0,3,1,imgs/elephant.png,imgs/dog.png,imgs/squirrel.png,imgs/goat.png,imgs/lion.png,,,,,,,,,,,,,,,,,,,,,,,,
,,5bb511c6689fc5000149c703,66fcb667f2ddb9451f46603e,2024-10-01_20h59.13.924,mdp,2024.2.1,Win32,5.002501251,66fa4ebf79326e780c390304,,,,,,,,,,,,,,2,seqs/st2seq13.csv,369.6292,371.427,space,1.0831,0.0002,371.4331,371.4331,371.434,373.5815,1,0,right,1.4429,0.0003,373.5827,375.3747,1,1,right,375.3759,375.3766,,1,,0,375.3767,375.3769,375.3778,376.8956,0,0,0,0,1,0.2,0.8,0.8,0.2,,,,,,,,,,,,,,,1.0802,,0.8,0.2,0.2,0.8,0.2,0.8,0.2,0.8,1,0,,,,,,,,,,,,
,,5bb511c6689fc5000149c703,66fcb667f2ddb9451f46603e,2024-10-01_20h59.13.924,mdp,2024.2.1,Win32,5.002501251,66fa4ebf79326e780c390304,,,,,,,,,,,,,,,,,,,,,376.896,376.8961,376.8969,378.1337,1,1,right,0.3971,,378.135,379.2042,0,1,left,379.2054,379.206,,0,,0,379.2062,379.2062,379.2073,380.7106,0,1,1,1,1,0.2,0.8,0.8,0.2,,,,,,,,,,,,,,,0.3706,0.0003,0.8,0.2,0.2,0.8,0.2,0.8,0.2,0.8,1,0,,,,,,,,,,,,
,,5bb511c6689fc5000149c703,66fcb667f2ddb9451f46603e,2024-10-01_20h59.13.924,mdp,2024.2.1,Win32,5.002501251,66fa4ebf79326e780c390304,,,,,,,,,,,,,,,,,,,,,380.711,380.711,380.712,381.8044,1,1,right,0.3754,,381.8055,383.4301,0,0,left,383.4316,383.4325,,1,,1,383.4326,383.4326,383.4335,384.8724,0,2,2,2,1,0.2,0.8,0.8,0.2,,,,,,,,,,,,,,,0.9072,0.0002,0.8,0.2,0.2,0.8,0.2,0.8,0.2,0.8,1,0,,,,,,,,,,,,
,,5bb511c6689fc5000149c703,66fcb667f2ddb9451f46603e,2024-10-01_20h59.13.924,mdp,2024.2.1,Win32,5.002501251,66fa4ebf79326e780c390304,,,,,,,,,,,,,,,,,,,,,384.8727,384.8727,384.8735,385.9517,1,0,right,0.3649,,385.9531,386.8477,1,1,right,386.849,386.8496,,1,,0,386.8497,386.8497,386.8508,388.276,0,3,3,3,1,0.2,0.8,0.8,0.2,,,,,,,,,,,,,,,0.1911,,0.8,0.2,0.2,0.8,0.2,0.8,0.2,0.8,1,0,,,,,,,,,,,,
,,5bb511c6689fc5000149c703,66fcb667f2ddb9451f46603e,2024-10-01_20h59.13.924,mdp,2024.2.1,Win32,5.002501251,66fa4ebf79326e780c390304,,,,,,,,,,,,,,,,,,,,,388.2765,388.2765,388.2773,389.0002,1,0,right,0.0087,,389.0014,390.4468,0,0,left,390.4482,390.4493,,0,,1,390.4494,390.4494,390.4503,391.8812,0,4,4,4,1,0.2,0.8,0.8,0.2,,,,,,,,,,,,,,,0.7329,0.0002,0.8,0.2,0.2,0.8,0.2,0.8,0.2,0.8,1,0,,,,,,,,,,,,
,,5bb511c6689fc5000149c703,66fcb667f2ddb9451f46603e,2024-10-01_20h59.13.924,mdp,2024.2.1,Win32,5.002501251,66fa4ebf79326e780c390304,,,,,,,,,,,,,,,,,,,,,391.8817,391.8817,391.8828,393.3185,1,0,right,0.7198,0.0002,393.3198,394.936,0,0,left,394.9373,394.9382,,0,,1,394.9383,394.9383,394.9392,396.3687,0,5,5,5,1,0.2,0.8,0.8,0.2,,,,,,,,,,,,,,,0.905,0.0003,0.8,0.2,0.2,0.8,0.2,0.8,0.2,0.8,1,0,,,,,,,,,,,,
,,5bb511c6689fc5000149c703,66fcb667f2ddb9451f46603e,2024-10-01_20h59.13.924,mdp,2024.2.1,Win32,5.002501251,66fa4ebf79326e780c390304,,,,,,,,,,,,,,,,,,,,,396.369,396.3691,396.3699,397.6216,1,0,right,0.5578,0.0003,397.6229,398.7016,0,1,left,398.7029,398.7038,,0,,0,398.7039,398.7039,398.7048,400.1487,0,6,6,6,1,0.2,0.8,0.8,0.2,,,,,,,,,,,,,,,0.3662,,0.8,0.2,0.2,0.8,0.2,0.8,0.2,0.8,1,0,,,,,,,,,,,,
,,5bb511c6689fc5000149c703,66fcb667f2ddb9451f46603e,2024-10-01_20h59.13.924,mdp,2024.2.1,Win32,5.002501251,66fa4ebf79326e780c390304,,,,,,,,,,,,,,,,,,,,,400.1491,400.1491,400.1498,401.4136,1,1,right,0.5452,,401.4148,402.7051,0,1,left,402.706,402.7065,,1,,0,402.7066,402.7066,402.7077,404.1374,0,7,7,7,1,0.2,0.8,0.8,0.2,,,,,,,,,,,,,,,0.5683,0.0002,0.8,0.2,0.2,0.8,0.2,0.8,0.2,0.8,1,0,,,,,,,,,,,,
,,5bb511c6689fc5000149c703,66fcb667f2ddb9451f46603e,2024-10-01_20h59.13.924,mdp,2024.2.1,Win32,5.002501251,66fa4ebf79326e780c390304,,,,,,,,,,,,,,,,,,,,,404.1379,404.1379,404.1387,405.212,1,0,right,0.3685,,405.2132,406.8308,0,1,left,406.832,406.8326,,0,,0,406.8329,406.8329,406.834,408.3549,0,8,8,8,1,0.2,0.8,0.8,0.2,,,,,,,,,,,,,,,0.9187,0.0002,0.8,0.2,0.2,0.8,0.2,0.8,0.2,0.8,1,0,,,,,,,,,,,,
,,5bb511c6689fc5000149c703,66fcb667f2ddb9451f46603e,2024-10-01_20h59.13.924,mdp,2024.2.1,Win32,5.002501251,66fa4ebf79326e780c390304,,,,,,,,,,,,,,,,,,,,,408.3556,408.3556,408.3565,409.6037,1,0,right,0.4057,0.0003,409.6049,410.6673,1,1,right,410.6685,410.6691,,1,,0,410.6693,410.6693,410.6703,412.138,0,9,9,9,1,0.2,0.8,0.8,0.2,,,,,,,,,,,,,,,0.3646,,0.8,0.2,0.2,0.8,0.6,0.4,0.6,0.4,1,0,,,,,,,,,,,,
,,5bb511c6689fc5000149c703,66fcb667f2ddb9451f46603e,2024-10-01_20h59.13.924,mdp,2024.2.1,Win32,5.002501251,66fa4ebf79326e780c390304,,,,,,,,,,,,,,,,,,,,,412.1383,412.1383,412.139,412.8585,1,1,right,0.0096,,412.8598,414.1413,0,1,left,414.1427,414.1435,,0,,0,414.1436,414.1437,414.1446,415.5734,0,10,10,10,1,0.8,0.2,0.4,0.6,,,,,,,,,,,,,,,0.5588,0.0001,0.8,0.2,0.2,0.8,0.6,0.4,0.6,0.4,1,0,,,,,,,,,,,,
,,5bb511c6689fc5000149c703,66fcb667f2ddb9451f46603e,2024-10-01_20h59.13.924,mdp,2024.2.1,Win32,5.002501251,66fa4ebf79326e780c390304,,,,,,,,,,,,,,,,,,,,,415.5739,415.5739,415.5747,416.2994,1,1,right,0.0078,,416.3013,417.565,1,0,right,417.5671,417.568,,0,,1,417.568,417.5681,417.5687,419.0013,0,11,11,11,1,0.8,0.2,0.4,0.6,,,,,,,,,,,,,,,0.5494,0.0003,0.8,0.2,0.2,0.8,0.6,0.4,0.6,0.4,1,0,,,,,,,,,,,,
,,5bb511c6689fc5000149c703,66fcb667f2ddb9451f46603e,2024-10-01_20h59.13.924,mdp,2024.2.1,Win32,5.002501251,66fa4ebf79326e780c390304,,,,,,,,,,,,,,,,,,,,,419.0016,419.0016,419.0023,419.7327,1,0,right,0.0079,,419.7346,421.5319,0,0,left,421.5331,421.5342,,0,,1,421.5343,421.5344,421.5353,422.9839,0,12,12,12,1,0.8,0.2,0.4,0.6,,,,,,,,,,,,,,,1.0885,0.0002,0.8,0.2,0.2,0.8,0.6,0.4,0.6,0.4,1,0,,,,,,,,,,,,
,,5bb511c6689fc5000149c703,66fcb667f2ddb9451f46603e,2024-10-01_20h59.13.924,mdp,2024.2.1,Win32,5.002501251,66fa4ebf79326e780c390304,,,,,,,,,,,,,,,,,,,,,422.9843,422.9843,422.9851,423.8835,1,1,right,0.1883,0.0003,423.885,425.497,1,0,right,425.4984,425.4992,,0,,1,425.4994,425.4994,425.5005,426.9517,0,13,13,13,1,0.8,0.2,0.4,0.6,,,,,,,,,,,,,,,0.9077,,0.8,0.2,0.2,0.8,0.6,0.4,0.6,0.4,1,0,,,,,,,,,,,,
,,5bb511c6689fc5000149c703,66fcb667f2ddb9451f46603e,2024-10-01_20h59.13.924,mdp,2024.2.1,Win32,5.002501251,66fa4ebf79326e780c390304,,,,,,,,,,,,,,,,,,,,,426.9521,426.9521,426.9528,427.843,1,0,right,0.1866,,427.8443,429.4727,0,0,left,429.474,429.4747,,0,,1,429.4747,429.4747,429.476,430.9256,0,14,14,14,1,0.8,0.2,0.4,0.6,,,,,,,,,,,,,,,0.9015,,0.8,0.2,0.2,0.8,0.6,0.4,0.6,0.4,1,0,,,,,,,,,,,,
,,5bb511c6689fc5000149c703,66fcb667f2ddb9451f46603e,2024-10-01_20h59.13.924,mdp,2024.2.1,Win32,5.002501251,66fa4ebf79326e780c390304,,,,,,,,,,,,,,,,,,,,,430.9262,430.9262,430.9274,431.6537,1,1,right,0.008,0.0003,431.6552,433.2922,1,1,right,433.2936,433.2948,,0,,0,433.2948,433.2948,433.2958,434.7053,0,15,15,15,1,0.8,0.2,0.4,0.6,,,,,,,,,,,,,,,0.9291,,0.8,0.2,0.2,0.8,0.6,0.4,0.6,0.4,1,0,,,,,,,,,,,,
,,5bb511c6689fc5000149c703,66fcb667f2ddb9451f46603e,2024-10-01_20h59.13.924,mdp,2024.2.1,Win32,5.002501251,66fa4ebf79326e780c390304,,,,,,,,,,,,,,,,,,,,,434.7057,434.7057,434.7065,435.7514,1,0,right,0.3564,,435.7526,438.1961,1,1,right,438.1974,438.1979,,1,,0,438.198,438.198,438.1988,439.6263,0,16,16,16,1,0.8,0.2,0.4,0.6,,,,,,,,,,,,,,,1.756,,0.8,0.2,0.2,0.8,0.6,0.4,0.6,0.4,1,0,,,,,,,,,,,,
,,5bb511c6689fc5000149c703,66fcb667f2ddb9451f46603e,2024-10-01_20h59.13.924,mdp,2024.2.1,Win32,5.002501251,66fa4ebf79326e780c390304,,,,,,,,,,,,,,,,,,,,,439.6267,439.6267,439.6275,440.4787,1,1,right,0.008,9.99999E-05,440.4804,441.9594,1,0,right,441.9613,441.9623,,0,,1,441.9624,441.9624,441.9629,443.3685,0,17,17,17,1,0.6,0.4,0.2,0.8,,,,,,,,,,,,,,,0.7136,,0.8,0.2,0.2,0.8,0.6,0.4,0.6,0.4,1,0,,,,,,,,,,,,
,,5bb511c6689fc5000149c703,66fcb667f2ddb9451f46603e,2024-10-01_20h59.13.924,mdp,2024.2.1,Win32,5.002501251,66fa4ebf79326e780c390304,,,,,,,,,,,,,,,,,,,,,443.3692,443.3692,443.3714,444.0723,1,0,right,0.0073,0.0002,444.0743,445.3093,0,0,left,445.3114,445.3123,,0,,1,445.3123,445.3123,445.3128,446.714,0,18,18,18,1,0.6,0.4,0.2,0.8,,,,,,,,,,,,,,,0.5348,,0.8,0.2,0.2,0.8,0.6,0.4,0.6,0.4,1,0,,,,,,,,,,,,
,,5bb511c6689fc5000149c703,66fcb667f2ddb9451f46603e,2024-10-01_20h59.13.924,mdp,2024.2.1,Win32,5.002501251,66fa4ebf79326e780c390304,,,,,,,,,,,,,,,,,,,,,446.7145,446.7145,446.7163,447.4146,1,1,right,0.007,0.0002,447.4169,448.8221,1,0,right,448.8238,448.8246,,0,,1,448.8246,448.8246,448.8254,450.2227,0,19,19,19,1,0.6,0.4,0.2,0.8,,,,,,,,,,,,,,,0.7095,,0.8,0.2,0.2,0.8,0.6,0.4,0.6,0.4,1,0,,,,,,,,,,,,
,,5bb511c6689fc5000149c703,66fcb667f2ddb9451f46603e,2024-10-01_20h59.13.924,mdp,2024.2.1,Win32,5.002501251,66fa4ebf79326e780c390304,,,,,,,,,,,,,,,,,,,,,450.2232,450.2232,450.2242,451.1052,1,1,right,0.1814,0.0002,451.1065,452.6965,1,1,right,452.6977,452.6983,,1,,0,452.6983,452.6983,452.6996,454.0985,0,20,20,20,1,0.6,0.4,0.2,0.8,,,,,,,,,,,,,,,0.8891,,0.8,0.2,0.2,0.8,0.6,0.4,0.6,0.4,1,0,,,,,,,,,,,,
,,5bb511c6689fc5000149c703,66fcb667f2ddb9451f46603e,2024-10-01_20h59.13.924,mdp,2024.2.1,Win32,5.002501251,66fa4ebf79326e780c390304,,,,,,,,,,,,,,,,,,,,,454.099,454.0991,454.1001,454.8063,1,1,right,0.0077,,454.8074,457.2535,1,0,right,457.2548,457.2554,,0,,1,457.2554,457.2554,457.2565,458.6612,0,21,21,21,1,0.6,0.4,0.2,0.8,,,,,,,,,,,,,,,1.7537,,0.8,0.2,0.2,0.8,0.6,0.4,0.6,0.4,1,0,,,,,,,,,,,,
,,5bb511c6689fc5000149c703,66fcb667f2ddb9451f46603e,2024-10-01_20h59.13.924,mdp,2024.2.1,Win32,5.002501251,66fa4ebf79326e780c390304,,,,,,,,,,,,,,,,,,,,,458.6615,458.6615,458.6622,459.3712,1,1,right,0.0074,,459.3724,460.9419,1,1,right,460.9432,460.9438,,1,,0,460.9438,460.9438,460.945,462.3477,0,22,22,22,1,0.6,0.4,0.2,0.8,,,,,,,,,,,,,,,0.8817,,0.8,0.2,0.2,0.8,0.6,0.4,0.6,0.4,1,0,,,,,,,,,,,,
,,5bb511c6689fc5000149c703,66fcb667f2ddb9451f46603e,2024-10-01_20h59.13.924,mdp,2024.2.1,Win32,5.002501251,66fa4ebf79326e780c390304,,,,,,,,,,,,,,,,,,,,,462.348,462.348,462.3487,463.0444,1,1,right,0.0071,,463.0456,463.7472,1,0,right,463.7484,463.7492,,1,,1,463.7494,463.7494,463.7503,465.1498,0,23,23,23,1,0.6,0.4,0.2,0.8,,,,,,,,,,,,,,,0.0074,0.0001,0.8,0.2,0.2,0.8,0.6,0.4,0.6,0.4,1,0,,,,,,,,,,,,
,,5bb511c6689fc5000149c703,66fcb667f2ddb9451f46603e,2024-10-01_20h59.13.924,mdp,2024.2.1,Win32,5.002501251,66fa4ebf79326e780c390304,,,,,,,,,,,,,,,,,,,,,465.1503,465.1503,465.1514,465.8496,1,1,right,0.0073,0.0002,465.8507,467.269,1,0,right,467.2702,467.2708,,0,,1,467.2708,467.2708,467.2719,468.6679,0,24,24,24,1,0.6,0.4,0.2,0.8,,,,,,,,,,,,,,,0.7104,,0.8,0.2,0.2,0.8,0.6,0.4,0.6,0.4,1,0,,,,,,,,,,,,
,,5bb511c6689fc5000149c703,66fcb667f2ddb9451f46603e,2024-10-01_20h59.13.924,mdp,2024.2.1,Win32,5.002501251,66fa4ebf79326e780c390304,,,,,,,,,,,,,,,,,,,,,468.6685,468.6685,468.6695,469.724,1,0,right,0.3592,0.0001,469.7252,471.4151,1,1,right,471.4164,471.417,,1,,0,471.417,471.417,471.4178,472.7943,0,25,25,25,1,0.6,0.4,0.2,0.8,,,,,,,,,,,,,,,0.9983,0.0003,0.8,0.2,0.2,0.8,0.6,0.4,0.6,0.4,1,0,,,,,,,,,,,,
,,5bb511c6689fc5000149c703,66fcb667f2ddb9451f46603e,2024-10-01_20h59.13.924,mdp,2024.2.1,Win32,5.002501251,66fa4ebf79326e780c390304,,,,,,,,,,,,,,,,,,,,,472.7945,472.7945,472.7952,473.4973,1,1,right,0.0078,,473.4985,475.0772,1,0,right,475.0786,475.0794,,1,,1,475.0795,475.0795,475.0804,476.4804,0,26,26,26,1,0.6,0.4,0.2,0.8,,,,,,,,,,,,,,,0.8881,0.0003,0.8,0.2,0.2,0.8,0.6,0.4,0.6,0.4,1,0,,,,,,,,,,,,
,,5bb511c6689fc5000149c703,66fcb667f2ddb9451f46603e,2024-10-01_20h59.13.924,mdp,2024.2.1,Win32,5.002501251,66fa4ebf79326e780c390304,,,,,,,,,,,,,,,,,,,,,476.4808,476.4808,476.4815,477.1786,1,1,right,0.0072,,477.1799,477.8887,1,0,right,477.8899,477.8905,,1,,1,477.8906,477.8906,477.8917,479.2918,0,27,27,27,1,0.6,0.4,0.2,0.8,,,,,,,,,,,,,,,0.0075,,0.8,0.2,0.2,0.8,0.6,0.4,0.6,0.4,1,0,,,,,,,,,,,,
,,5bb511c6689fc5000149c703,66fcb667f2ddb9451f46603e,2024-10-01_20h59.13.924,mdp,2024.2.1,Win32,5.002501251,66fa4ebf79326e780c390304,,,,,,,,,,,,,,,,,,,,,479.2921,479.2921,479.2929,479.996,1,1,right,0.0075,,479.9972,481.2175,1,0,right,481.2189,481.2198,,0,,1,481.2199,481.2199,481.2209,482.6646,0,28,28,28,1,0.6,0.4,0.2,0.8,,,,,,,,,,,,,,,0.5268,0.0002,0.8,0.2,0.2,0.8,0.6,0.4,0.6,0.4,1,0,,,,,,,,,,,,
,,5bb511c6689fc5000149c703,66fcb667f2ddb9451f46603e,2024-10-01_20h59.13.924,mdp,2024.2.1,Win32,5.002501251,66fa4ebf79326e780c390304,,,,,,,,,,,,,,,,,,,,,482.6649,482.665,482.6659,483.3949,1,0,right,0.0094,,483.396,484.1242,1,1,right,484.1254,484.1262,,1,,0,484.1263,484.1264,484.1273,485.5268,0,29,29,29,1,0.6,0.4,0.2,0.8,,,,,,,,,,,,,,,0.0076,0.0002,0.8,0.2,0.2,0.8,0.6,0.4,0.6,0.4,1,0,,,,,,,,,,,,
,,5bb511c6689fc5000149c703,66fcb667f2ddb9451f46603e,2024-10-01_20h59.13.924,mdp,2024.2.1,Win32,5.002501251,66fa4ebf79326e780c390304,,,,,,,,,,,,,,,,,,,,,485.5271,485.5272,485.5279,486.2321,1,1,right,0.0077,,486.2334,487.6486,1,0,right,487.6499,487.6505,,0,,1,487.6505,487.6505,487.6516,489.1728,0,30,30,30,1,0.6,0.4,0.2,0.8,,,,,,,,,,,,,,,0.7149,,0.8,0.2,0.2,0.8,0.6,0.4,0.6,0.4,1,0,,,,,,,,,,,,
,,5bb511c6689fc5000149c703,66fcb667f2ddb9451f46603e,2024-10-01_20h59.13.924,mdp,2024.2.1,Win32,5.002501251,66fa4ebf79326e780c390304,,,,,,,,,,,,,,,,,,,,,489.1735,489.1735,489.1746,489.8837,1,1,right,0.0072,0.0003,489.8851,491.239,1,0,right,491.2401,491.2408,,0,,1,491.2408,491.2408,491.2419,492.6332,0,31,31,31,1,0.6,0.4,0.2,0.8,,,,,,,,,,,,,,,0.6675,,0.8,0.2,0.2,0.8,0.6,0.4,0.6,0.4,1,0,,,,,,,,,,,,
,,5bb511c6689fc5000149c703,66fcb667f2ddb9451f46603e,2024-10-01_20h59.13.924,mdp,2024.2.1,Win32,5.002501251,66fa4ebf79326e780c390304,,,,,,,,,,,,,,,,,,,,,492.6338,492.6339,492.6348,493.4092,1,1,right,0.0079,0.0003,493.4106,494.1608,1,1,right,494.1621,494.163,,0,,0,494.1631,494.1631,494.1641,495.5542,0,32,32,32,1,0.6,0.4,0.2,0.8,,,,,,,,,,,,,,,0.0075,0.0002,0.8,0.2,0.2,0.8,0.6,0.4,0.6,0.4,1,0,,,,,,,,,,,,
,,5bb511c6689fc5000149c703,66fcb667f2ddb9451f46603e,2024-10-01_20h59.13.924,mdp,2024.2.1,Win32,5.002501251,66fa4ebf79326e780c390304,,,,,,,,,,,,,,,,,,,,,495.5545,495.5545,495.5553,496.9161,1,1,right,0.5327,0.0002,496.9174,497.9754,1,0,right,497.9769,497.9778,,0,,1,497.9778,497.9778,497.9788,499.4845,0,33,33,33,1,0.6,0.4,0.2,0.8,,,,,,,,,,,,,,,0.3624,0.0003,0.8,0.2,0.2,0.8,0.6,0.4,0.6,0.4,1,0,,,,,,,,,,,,
,,5bb511c6689fc5000149c703,66fcb667f2ddb9451f46603e,2024-10-01_20h59.13.924,mdp,2024.2.1,Win32,5.002501251,66fa4ebf79326e780c390304,,,,,,,,,,,,,,,,,,,,,499.4849,499.4849,499.4855,500.3554,1,1,right,0.1761,0.0002,500.3565,501.7061,1,0,right,501.7073,501.7079,,1,,1,501.708,501.708,501.709,503.1068,0,34,34,34,1,0.6,0.4,0.2,0.8,,,,,,,,,,,,,,,0.532,,0.8,0.2,0.2,0.8,0.6,0.4,0.6,0.4,1,0,,,,,,,,,,,,
,,5bb511c6689fc5000149c703,66fcb667f2ddb9451f46603e,2024-10-01_20h59.13.924,mdp,2024.2.1,Win32,5.002501251,66fa4ebf79326e780c390304,,,,,,,,,,,,,,,,,,,,,503.1071,503.1071,503.108,503.9762,1,1,right,0.0077,9.99999E-05,503.9775,505.4045,1,0,right,505.4058,505.4068,,1,,1,505.4069,505.4069,505.4077,506.7725,0,35,35,35,1,0.6,0.4,0.2,0.8,,,,,,,,,,,,,,,0.7179,0.0002,0.8,0.2,0.2,0.8,0.6,0.4,0.6,0.4,1,0,,,,,,,,,,,,
,,5bb511c6689fc5000149c703,66fcb667f2ddb9451f46603e,2024-10-01_20h59.13.924,mdp,2024.2.1,Win32,5.002501251,66fa4ebf79326e780c390304,,,,,,,,,,,,,,,,,,,,,506.7731,506.7731,506.7741,507.4862,1,1,right,0.0075,0.0002,507.4875,508.8173,1,0,right,508.8186,508.8191,,1,,1,508.8192,508.8192,508.8204,510.2469,0,36,36,36,1,0.6,0.4,0.2,0.8,,,,,,,,,,,,,,,0.6196,,0.8,0.2,0.2,0.8,0.6,0.4,0.6,0.4,1,0,,,,,,,,,,,,
,,5bb511c6689fc5000149c703,66fcb667f2ddb9451f46603e,2024-10-01_20h59.13.924,mdp,2024.2.1,Win32,5.002501251,66fa4ebf79326e780c390304,,,,,,,,,,,,,,,,,,,,,510.2474,510.2474,510.2483,511.0765,1,1,right,0.0076,,511.0776,512.3012,1,0,right,512.3027,512.3033,,1,,1,512.3033,512.3033,512.3046,513.7988,0,37,37,37,1,0.6,0.4,0.2,0.8,,,,,,,,,,,,,,,0.5402,,0.8,0.2,0.2,0.8,0.6,0.4,0.6,0.4,1,0,,,,,,,,,,,,
,,5bb511c6689fc5000149c703,66fcb667f2ddb9451f46603e,2024-10-01_20h59.13.924,mdp,2024.2.1,Win32,5.002501251,66fa4ebf79326e780c390304,,,,,,,,,,,,,,,,,,,,,513.7994,513.7994,513.8006,514.533,1,1,right,0.0077,,514.5343,515.9161,1,0,right,515.9173,515.9182,,0,,1,515.9183,515.9183,515.9193,517.2951,0,38,38,38,1,0.6,0.4,0.2,0.8,,,,,,,,,,,,,,,0.6807,0.0002,0.8,0.2,0.2,0.8,0.6,0.4,0.6,0.4,1,0,,,,,,,,,,,,
,,5bb511c6689fc5000149c703,66fcb667f2ddb9451f46603e,2024-10-01_20h59.13.924,mdp,2024.2.1,Win32,5.002501251,66fa4ebf79326e780c390304,,,,,,,,,,,,,,,,,,,,,517.2957,517.2957,517.2968,518.1902,1,1,right,0.1882,,518.192,519.5261,1,0,right,519.5273,519.528,,0,,1,519.5282,519.5282,519.5291,520.9114,0,39,39,39,1,0.6,0.4,0.2,0.8,,,,,,,,,,,,,,,0.5496,0.0002,0.8,0.2,0.2,0.8,0.6,0.4,0.6,0.4,1,0,,,,,,,,,,,,
,,5bb511c6689fc5000149c703,66fcb667f2ddb9451f46603e,2024-10-01_20h59.13.924,mdp,2024.2.1,Win32,5.002501251,66fa4ebf79326e780c390304,,,,,,,,,,,,,,,,,,,,,520.9121,520.9121,520.913,522.1147,1,0,right,0.3629,,522.1161,522.8268,1,1,right,522.8282,522.8291,,1,,0,522.8291,522.8291,522.8301,524.3354,0,40,40,40,1,0.6,0.4,0.2,0.8,,,,,,,,,,,,,,,0.0076,0.0003,0.8,0.2,0.2,0.8,0.6,0.4,0.6,0.4,1,0,,,,,,,,,,,,
,,5bb511c6689fc5000149c703,66fcb667f2ddb9451f46603e,2024-10-01_20h59.13.924,mdp,2024.2.1,Win32,5.002501251,66fa4ebf79326e780c390304,,,,,,,,,,,,,,,,,,,,,524.3358,524.3359,524.3366,525.2332,1,0,right,0.1849,0.0003,525.2353,526.5881,0,0,left,526.5904,526.5912,,0,,1,526.5912,526.5912,526.5917,528.0089,0,41,41,41,1,0.4,0.6,0.6,0.4,,,,,,,,,,,,,,,0.6879,0.0002,0.8,0.2,0.2,0.8,0.6,0.4,0.6,0.4,1,0,,,,,,,,,,,,
,,5bb511c6689fc5000149c703,66fcb667f2ddb9451f46603e,2024-10-01_20h59.13.924,mdp,2024.2.1,Win32,5.002501251,66fa4ebf79326e780c390304,,,,,,,,,,,,,,,,,,,,,528.0096,528.0097,528.0115,528.8244,1,0,right,0.0086,0.0002,528.8266,530.098,0,0,left,530.1005,530.101,,0,,1,530.101,530.101,530.1016,531.6229,0,42,42,42,1,0.4,0.6,0.6,0.4,,,,,,,,,,,,,,,0.5384,0.0002,0.2,0.8,0.6,0.4,0.6,0.4,0.6,0.4,1,0,,,,,,,,,,,,
,,5bb511c6689fc5000149c703,66fcb667f2ddb9451f46603e,2024-10-01_20h59.13.924,mdp,2024.2.1,Win32,5.002501251,66fa4ebf79326e780c390304,,,,,,,,,,,,,,,,,,,,,531.6235,531.6235,531.6252,532.3409,1,1,right,0.0076,0.0002,532.343,533.6546,1,0,right,533.656,533.6566,,0,,1,533.6567,533.6567,533.6576,535.1597,0,43,43,43,1,0.6,0.4,0.2,0.8,,,,,,,,,,,,,,,0.6095,,0.2,0.8,0.6,0.4,0.6,0.4,0.6,0.4,1,0,,,,,,,,,,,,
,,5bb511c6689fc5000149c703,66fcb667f2ddb9451f46603e,2024-10-01_20h59.13.924,mdp,2024.2.1,Win32,5.002501251,66fa4ebf79326e780c390304,,,,,,,,,,,,,,,,,,,,,535.1601,535.1601,535.1607,535.844,1,1,right,0.0072,,535.8452,537.3932,1,0,right,537.3945,537.3953,,0,,1,537.3953,537.3953,537.3963,538.8768,0,44,44,44,1,0.6,0.4,0.2,0.8,,,,,,,,,,,,,,,0.7186,0.0003,0.2,0.8,0.6,0.4,0.6,0.4,0.6,0.4,1,0,,,,,,,,,,,,
,,5bb511c6689fc5000149c703,66fcb667f2ddb9451f46603e,2024-10-01_20h59.13.924,mdp,2024.2.1,Win32,5.002501251,66fa4ebf79326e780c390304,,,,,,,,,,,,,,,,,,,,,538.8774,538.8774,538.8784,539.6158,1,1,right,0.0077,,539.6177,540.9885,1,0,right,540.9906,540.9913,,0,,1,540.9913,540.9913,540.9918,542.3682,0,45,45,45,1,0.6,0.4,0.2,0.8,,,,,,,,,,,,,,,0.6769,0.0003,0.2,0.8,0.6,0.4,0.6,0.4,0.6,0.4,1,0,,,,,,,,,,,,
,,5bb511c6689fc5000149c703,66fcb667f2ddb9451f46603e,2024-10-01_20h59.13.924,mdp,2024.2.1,Win32,5.002501251,66fa4ebf79326e780c390304,,,,,,,,,,,,,,,,,,,,,542.3686,542.3686,542.3693,543.4265,1,1,right,0.3625,,543.4286,544.7604,1,0,right,544.7624,544.7634,,1,,1,544.7634,544.7634,544.7639,546.2949,0,46,46,46,1,0.6,0.4,0.2,0.8,,,,,,,,,,,,,,,0.5509,,0.6,0.4,0.4,0.6,0.6,0.4,0.6,0.4,1,0,,,,,,,,,,,,
,,5bb511c6689fc5000149c703,66fcb667f2ddb9451f46603e,2024-10-01_20h59.13.924,mdp,2024.2.1,Win32,5.002501251,66fa4ebf79326e780c390304,,,,,,,,,,,,,,,,,,,,,546.2953,546.2953,546.296,547.6835,1,1,right,0.7207,0.0003,547.6855,549.9167,1,0,right,549.9186,549.9197,,0,,1,549.9197,549.9197,549.9203,551.4503,0,47,47,47,1,0.6,0.4,0.2,0.8,,,,,,,,,,,,,,,1.5258,,0.6,0.4,0.4,0.6,0.6,0.4,0.6,0.4,1,0,,,,,,,,,,,,
,,5bb511c6689fc5000149c703,66fcb667f2ddb9451f46603e,2024-10-01_20h59.13.924,mdp,2024.2.1,Win32,5.002501251,66fa4ebf79326e780c390304,,,,,,,,,,,,,,,,,,,,,551.4516,551.4516,551.453,552.3216,1,1,right,0.1878,,552.3239,553.5618,1,0,right,553.5636,553.5643,,1,,1,553.5644,553.5644,553.5654,555.0711,0,48,48,48,1,0.6,0.4,0.2,0.8,,,,,,,,,,,,,,,0.5391,,0.6,0.4,0.4,0.6,0.6,0.4,0.6,0.4,1,0,,,,,,,,,,,,
,,5bb511c6689fc5000149c703,66fcb667f2ddb9451f46603e,2024-10-01_20h59.13.924,mdp,2024.2.1,Win32,5.002501251,66fa4ebf79326e780c390304,,,,,,,,,,,,,,,,,,,,,555.0715,555.0715,555.0721,555.7699,1,1,right,0.0074,,555.7719,557.1209,1,0,right,557.1222,557.1227,,0,,1,557.1228,557.1228,557.124,558.5354,0,49,49,49,1,0.6,0.4,0.2,0.8,,,,,,,,,,,,,,,0.5311,,0.6,0.4,0.4,0.6,0.6,0.4,0.6,0.4,1,0,,,,,,,,,,,,
,,5bb511c6689fc5000149c703,66fcb667f2ddb9451f46603e,2024-10-01_20h59.13.924,mdp,2024.2.1,Win32,5.002501251,66fa4ebf79326e780c390304,,,,,,,,,,,,,,,,,,,,,,,,,,,,,,,,,,,,,,,,,,,,,,,,,,,,,,,,558.5355,617.1607,0,1,1,8,1,imgs/giraffe.png,imgs/horse.png,imgs/squirrel.png,imgs/bear.png,imgs/rabbit.png,,,,,,,,,,,,,,,,,,,,,,,,
,,5bb511c6689fc5000149c703,66fcb667f2ddb9451f46603e,2024-10-01_20h59.13.924,mdp,2024.2.1,Win32,5.002501251,66fa4ebf79326e780c390304,,,,,,,,,,,,,,3,seqs/st3seq4.csv,617.1616,618.7632,space,0.8981,,618.7703,618.7703,618.771,620.9776,0,0,left,1.4317,0.0002,620.979,623.5566,0,0,left,623.5577,626.2893,1,0,right,1,626.2894,626.2894,626.2905,627.6773,0,0,0,0,1,0.8,0.2,0.2,0.8,,,,,,,,,,,,,,,1.7605,,0.8,0.2,0.8,0.2,0.4,0.6,0.6,0.4,,,1.9791,,0.8,0.2,0.4,0.6,0.2,0.8,0.6,0.4,1,0
,,5bb511c6689fc5000149c703,66fcb667f2ddb9451f46603e,2024-10-01_20h59.13.924,mdp,2024.2.1,Win32,5.002501251,66fa4ebf79326e780c390304,,,,,,,,,,,,,,,,,,,,,627.678,627.678,627.6787,628.745,0,0,left,0.2173,,628.7466,629.9406,1,1,right,629.942,631.1853,1,0,right,1,631.1854,631.1854,631.1866,632.7033,0,1,1,1,1,0.8,0.2,0.2,0.8,,,,,,,,,,,,,,,0.3771,,0.8,0.2,0.8,0.2,0.4,0.6,0.6,0.4,,,0.5356,0.0003,0.8,0.2,0.4,0.6,0.2,0.8,0.6,0.4,1,0
,,5bb511c6689fc5000149c703,66fcb667f2ddb9451f46603e,2024-10-01_20h59.13.924,mdp,2024.2.1,Win32,5.002501251,66fa4ebf79326e780c390304,,,,,,,,,,,,,,,,,,,,,632.7038,632.7038,632.7045,633.4103,0,1,left,0.0075,0.0002,633.4116,634.3504,1,0,right,634.3525,635.1038,1,0,right,1,635.1038,635.1038,635.1052,636.4918,0,2,2,2,1,0.8,0.2,0.2,0.8,,,,,,,,,,,,,,,0.2365,,0.8,0.2,0.8,0.2,0.4,0.6,0.6,0.4,,,0.0076,0.0002,0.8,0.2,0.4,0.6,0.2,0.8,0.6,0.4,1,0
,,5bb511c6689fc5000149c703,66fcb667f2ddb9451f46603e,2024-10-01_20h59.13.924,mdp,2024.2.1,Win32,5.002501251,66fa4ebf79326e780c390304,,,,,,,,,,,,,,,,,,,,,636.4922,636.4922,636.4928,637.3366,0,0,left,0.0074,9.99999E-05,637.3378,638.0502,1,0,right,638.0514,638.9474,1,1,right,0,638.9476,638.9476,638.9489,640.4647,0,3,3,3,1,0.8,0.2,0.2,0.8,,,,,,,,,,,,,,,0.0076,0.0002,0.8,0.2,0.8,0.2,0.4,0.6,0.6,0.4,,,0.1865,0.0003,0.8,0.2,0.4,0.6,0.2,0.8,0.6,0.4,1,0
,,5bb511c6689fc5000149c703,66fcb667f2ddb9451f46603e,2024-10-01_20h59.13.924,mdp,2024.2.1,Win32,5.002501251,66fa4ebf79326e780c390304,,,,,,,,,,,,,,,,,,,,,640.465,640.465,640.4655,641.1686,0,0,left,0.0075,,641.1707,642.0006,1,0,right,642.0026,642.6963,1,1,right,0,642.6964,642.6964,642.6987,644.1247,0,4,4,4,1,0.8,0.2,0.2,0.8,,,,,,,,,,,,,,,0.0075,,0.8,0.2,0.8,0.2,0.4,0.6,0.6,0.4,,,0.0074,0.0003,0.8,0.2,0.4,0.6,0.2,0.8,0.6,0.4,1,0
,,5bb511c6689fc5000149c703,66fcb667f2ddb9451f46603e,2024-10-01_20h59.13.924,mdp,2024.2.1,Win32,5.002501251,66fa4ebf79326e780c390304,,,,,,,,,,,,,,,,,,,,,644.1259,644.1259,644.1284,644.9119,0,0,left,0.0075,0.0001,644.914,645.9808,1,0,right,645.9828,647.1649,0,0,left,1,647.165,647.165,647.1668,648.5753,0,5,5,5,1,0.8,0.2,0.2,0.8,,,,,,,,,,,,,,,0.3621,9.99999E-05,0.8,0.2,0.8,0.2,0.4,0.6,0.6,0.4,,,0.5078,0.0002,0.8,0.2,0.4,0.6,0.2,0.8,0.6,0.4,1,0
,,5bb511c6689fc5000149c703,66fcb667f2ddb9451f46603e,2024-10-01_20h59.13.924,mdp,2024.2.1,Win32,5.002501251,66fa4ebf79326e780c390304,,,,,,,,,,,,,,,,,,,,,648.576,648.576,648.5778,649.3125,0,1,left,0.0085,0.0003,649.3139,650.9852,1,0,right,650.9866,652.4989,0,0,left,1,652.499,652.499,652.5001,653.9121,0,6,6,6,1,0.8,0.2,0.2,0.8,,,,,,,,,,,,,,,0.8962,,0.8,0.2,0.8,0.2,0.4,0.6,0.6,0.4,,,0.8391,0.0002,0.8,0.2,0.4,0.6,0.2,0.8,0.6,0.4,1,0
,,5bb511c6689fc5000149c703,66fcb667f2ddb9451f46603e,2024-10-01_20h59.13.924,mdp,2024.2.1,Win32,5.002501251,66fa4ebf79326e780c390304,,,,,,,,,,,,,,,,,,,,,653.9126,653.9126,653.9133,654.8766,0,0,left,0.1941,0.0003,654.8778,655.773,1,0,right,655.7742,656.7956,0,0,left,1,656.7956,656.7956,656.7968,658.3433,0,7,7,7,1,0.8,0.2,0.2,0.8,,,,,,,,,,,,,,,0.183,,0.8,0.2,0.8,0.2,0.4,0.6,0.6,0.4,,,0.3364,,0.8,0.2,0.4,0.6,0.2,0.8,0.6,0.4,1,0
,,5bb511c6689fc5000149c703,66fcb667f2ddb9451f46603e,2024-10-01_20h59.13.924,mdp,2024.2.1,Win32,5.002501251,66fa4ebf79326e780c390304,,,,,,,,,,,,,,,,,,,,,658.3438,658.3438,658.3444,659.0717,0,0,left,0.0078,,659.0731,660.6227,1,0,right,660.6248,661.8311,0,1,left,0,661.8312,661.8313,661.8334,663.3795,0,8,8,8,1,0.8,0.2,0.2,0.8,,,,,,,,,,,,,,,0.5998,0.0002,0.8,0.2,0.8,0.2,0.4,0.6,0.6,0.4,,,0.5101,0.0002,0.8,0.2,0.4,0.6,0.2,0.8,0.6,0.4,1,0
,,5bb511c6689fc5000149c703,66fcb667f2ddb9451f46603e,2024-10-01_20h59.13.924,mdp,2024.2.1,Win32,5.002501251,66fa4ebf79326e780c390304,,,,,,,,,,,,,,,,,,,,,663.3799,663.3799,663.381,664.0941,0,0,left,0.0075,,664.0962,665.6073,1,1,right,665.6092,667.1389,1,0,right,1,667.1389,667.1389,667.1412,668.5416,0,9,9,9,1,0.8,0.2,0.2,0.8,,,,,,,,,,,,,,,0.7279,,0.8,0.2,0.8,0.2,0.4,0.6,0.6,0.4,,,0.8336,,0.8,0.2,0.4,0.6,0.2,0.8,0.6,0.4,1,0
,,5bb511c6689fc5000149c703,66fcb667f2ddb9451f46603e,2024-10-01_20h59.13.924,mdp,2024.2.1,Win32,5.002501251,66fa4ebf79326e780c390304,,,,,,,,,,,,,,,,,,,,,668.5419,668.542,668.5426,669.2511,0,1,left,0.0078,,669.2529,670.4111,1,1,right,670.4129,671.6399,1,1,right,0,671.64,671.64,671.6419,673.1762,0,10,10,10,1,0.8,0.2,0.2,0.8,,,,,,,,,,,,,,,0.3669,,0.8,0.2,0.8,0.2,0.4,0.6,0.6,0.4,,,0.5289,,0.8,0.2,0.4,0.6,0.2,0.8,0.6,0.4,1,0
,,5bb511c6689fc5000149c703,66fcb667f2ddb9451f46603e,2024-10-01_20h59.13.924,mdp,2024.2.1,Win32,5.002501251,66fa4ebf79326e780c390304,,,,,,,,,,,,,,,,,,,,,673.1766,673.1766,673.1774,673.8853,0,0,left,0.0076,,673.8872,674.6463,0,1,left,674.6477,675.4007,1,0,right,1,675.4007,675.4007,675.4021,676.7973,0,11,11,11,1,0.8,0.2,0.2,0.8,,,,,,,,,,,,,,,0.0082,0.0003,0.8,0.2,0.8,0.2,0.4,0.6,0.6,0.4,,,0.0075,0.0001,0.8,0.2,0.4,0.6,0.2,0.8,0.6,0.4,1,0
,,5bb511c6689fc5000149c703,66fcb667f2ddb9451f46603e,2024-10-01_20h59.13.924,mdp,2024.2.1,Win32,5.002501251,66fa4ebf79326e780c390304,,,,,,,,,,,,,,,,,,,,,676.7978,676.7978,676.7987,677.9878,0,0,left,0.3563,0.0003,677.9892,678.8721,0,0,left,678.8733,679.8291,1,1,right,0,679.8291,679.8291,679.8303,681.2709,0,12,12,12,1,0.8,0.2,0.2,0.8,,,,,,,,,,,,,,,0.1835,,0.8,0.2,0.8,0.2,0.4,0.6,0.6,0.4,,,0.2118,,0.8,0.2,0.4,0.6,0.2,0.8,0.6,0.4,1,0
,,5bb511c6689fc5000149c703,66fcb667f2ddb9451f46603e,2024-10-01_20h59.13.924,mdp,2024.2.1,Win32,5.002501251,66fa4ebf79326e780c390304,,,,,,,,,,,,,,,,,,,,,681.2715,681.2716,681.2725,681.9429,0,1,left,0.0072,0.0002,681.9441,682.8007,1,0,right,682.8019,683.689,0,0,left,1,683.6891,683.6891,683.6903,685.1904,0,13,13,13,1,0.8,0.2,0.2,0.8,,,,,,,,,,,,,,,0.1842,0.0003,0.8,0.2,0.8,0.2,0.4,0.6,0.6,0.4,,,0.1839,,0.2,0.8,0.6,0.4,0.2,0.8,0.6,0.4,1,0
,,5bb511c6689fc5000149c703,66fcb667f2ddb9451f46603e,2024-10-01_20h59.13.924,mdp,2024.2.1,Win32,5.002501251,66fa4ebf79326e780c390304,,,,,,,,,,,,,,,,,,,,,685.1909,685.1909,685.1916,685.9119,0,0,left,0.0075,0.0002,685.9131,686.9502,1,1,right,686.9514,688.4893,1,0,right,1,688.4894,688.4895,688.4907,689.984,0,14,14,14,1,0.8,0.2,0.2,0.8,,,,,,,,,,,,,,,0.3392,0.0003,0.8,0.2,0.8,0.2,0.4,0.6,0.6,0.4,,,0.7138,0.0003,0.2,0.8,0.6,0.4,0.2,0.8,0.6,0.4,1,0
,,5bb511c6689fc5000149c703,66fcb667f2ddb9451f46603e,2024-10-01_20h59.13.924,mdp,2024.2.1,Win32,5.002501251,66fa4ebf79326e780c390304,,,,,,,,,,,,,,,,,,,,,689.9845,689.9845,689.9856,690.7927,0,0,left,0.0079,9.99999E-05,690.7944,691.8283,1,0,right,691.8295,693.3582,0,1,left,0,693.3583,693.3583,693.3596,694.827,0,15,15,15,1,0.8,0.2,0.2,0.8,,,,,,,,,,,,,,,0.1882,,0.8,0.2,0.8,0.2,0.4,0.6,0.6,0.4,,,0.71,,0.2,0.8,0.6,0.4,0.2,0.8,0.6,0.4,1,0
,,5bb511c6689fc5000149c703,66fcb667f2ddb9451f46603e,2024-10-01_20h59.13.924,mdp,2024.2.1,Win32,5.002501251,66fa4ebf79326e780c390304,,,,,,,,,,,,,,,,,,,,,694.8278,694.8279,694.8289,695.5892,0,0,left,0.0084,,695.5907,696.485,1,0,right,696.4864,697.8364,0,0,left,1,697.8365,697.8365,697.8376,699.2524,0,16,16,16,1,0.8,0.2,0.2,0.8,,,,,,,,,,,,,,,0.1877,,0.8,0.2,0.8,0.2,0.4,0.6,0.6,0.4,,,0.6836,0.0002,0.2,0.8,0.6,0.4,0.6,0.4,0.8,0.2,1,0
,,5bb511c6689fc5000149c703,66fcb667f2ddb9451f46603e,2024-10-01_20h59.13.924,mdp,2024.2.1,Win32,5.002501251,66fa4ebf79326e780c390304,,,,,,,,,,,,,,,,,,,,,699.2532,699.2532,699.2542,700.0376,0,0,left,0.0077,,700.0388,700.7701,1,0,right,700.7715,702.157,0,1,left,0,702.1571,702.1571,702.1583,703.527,0,17,17,17,1,0.8,0.2,0.2,0.8,,,,,,,,,,,,,,,0.0075,,0.8,0.2,0.8,0.2,0.4,0.6,0.6,0.4,,,0.6837,0.0003,0.2,0.8,0.6,0.4,0.6,0.4,0.8,0.2,1,0
,,5bb511c6689fc5000149c703,66fcb667f2ddb9451f46603e,2024-10-01_20h59.13.924,mdp,2024.2.1,Win32,5.002501251,66fa4ebf79326e780c390304,,,,,,,,,,,,,,,,,,,,,703.5275,703.5275,703.5282,704.2369,0,0,left,0.0076,0.0002,704.2383,705.2052,1,1,right,705.2073,706.486,0,0,left,1,706.486,706.486,706.4881,708.0035,0,18,18,18,1,0.8,0.2,0.2,0.8,,,,,,,,,,,,,,,0.2037,,0.8,0.2,0.8,0.2,0.4,0.6,0.6,0.4,,,0.5601,0.0002,0.2,0.8,0.6,0.4,0.6,0.4,0.8,0.2,1,0
,,5bb511c6689fc5000149c703,66fcb667f2ddb9451f46603e,2024-10-01_20h59.13.924,mdp,2024.2.1,Win32,5.002501251,66fa4ebf79326e780c390304,,,,,,,,,,,,,,,,,,,,,708.0042,708.0042,708.0062,708.7108,0,0,left,0.0075,0.0003,708.7127,709.4214,0,1,left,709.4233,710.5754,1,1,right,0,710.5756,710.5756,710.5779,711.9803,0,19,19,19,1,0.4,0.6,0.6,0.4,,,,,,,,,,,,,,,0.0074,0.0002,0.8,0.2,0.8,0.2,0.4,0.6,0.6,0.4,,,0.3803,0.0003,0.2,0.8,0.6,0.4,0.6,0.4,0.8,0.2,1,0
,,5bb511c6689fc5000149c703,66fcb667f2ddb9451f46603e,2024-10-01_20h59.13.924,mdp,2024.2.1,Win32,5.002501251,66fa4ebf79326e780c390304,,,,,,,,,,,,,,,,,,,,,711.9807,711.9808,711.9813,712.8061,0,0,left,0.0074,,712.8085,713.5103,1,0,right,713.5127,714.2205,1,0,right,1,714.2206,714.2206,714.2221,715.7324,0,20,20,20,1,0.4,0.6,0.6,0.4,,,,,,,,,,,,,,,0.0074,0.0003,0.8,0.2,0.8,0.2,0.4,0.6,0.6,0.4,,,0.0085,,0.2,0.8,0.6,0.4,0.6,0.4,0.8,0.2,1,0
,,5bb511c6689fc5000149c703,66fcb667f2ddb9451f46603e,2024-10-01_20h59.13.924,mdp,2024.2.1,Win32,5.002501251,66fa4ebf79326e780c390304,,,,,,,,,,,,,,,,,,,,,715.7328,715.7328,715.7341,716.4433,0,1,left,0.0077,,716.4449,717.2973,0,1,left,717.2986,718.1456,0,1,left,0,718.1456,718.1457,718.1471,719.5714,0,21,21,21,1,0.4,0.6,0.6,0.4,,,,,,,,,,,,,,,0.1765,9.99999E-05,0.8,0.2,0.8,0.2,0.4,0.6,0.6,0.4,,,0.0072,,0.2,0.8,0.6,0.4,0.6,0.4,0.8,0.2,1,0
,,5bb511c6689fc5000149c703,66fcb667f2ddb9451f46603e,2024-10-01_20h59.13.924,mdp,2024.2.1,Win32,5.002501251,66fa4ebf79326e780c390304,,,,,,,,,,,,,,,,,,,,,719.5718,719.5718,719.5726,720.3668,0,1,left,0.0076,0.0002,720.373,721.0912,1,0,right,721.0926,722.0073,1,0,right,1,722.0074,722.0074,722.0089,723.3842,0,22,22,22,1,0.4,0.6,0.6,0.4,,,,,,,,,,,,,,,0.0072,,0.8,0.2,0.8,0.2,0.4,0.6,0.6,0.4,,,0.2011,,0.2,0.8,0.6,0.4,0.6,0.4,0.8,0.2,1,0
,,5bb511c6689fc5000149c703,66fcb667f2ddb9451f46603e,2024-10-01_20h59.13.924,mdp,2024.2.1,Win32,5.002501251,66fa4ebf79326e780c390304,,,,,,,,,,,,,,,,,,,,,723.3846,723.3846,723.3853,724.4429,0,0,left,0.3634,0.0002,724.4444,725.2169,1,0,right,725.2185,726.654,0,1,left,0,726.6541,726.6541,726.6555,728.1705,0,23,23,23,1,0.4,0.6,0.6,0.4,,,,,,,,,,,,,,,0.0076,0.0002,0.8,0.2,0.8,0.2,0.4,0.6,0.6,0.4,,,0.7175,,0.2,0.8,0.6,0.4,0.6,0.4,0.8,0.2,1,0
,,5bb511c6689fc5000149c703,66fcb667f2ddb9451f46603e,2024-10-01_20h59.13.924,mdp,2024.2.1,Win32,5.002501251,66fa4ebf79326e780c390304,,,,,,,,,,,,,,,,,,,,,728.171,728.171,728.1717,728.8794,0,0,left,0.0072,,728.8808,729.5853,1,1,right,729.5867,730.5554,1,0,right,1,730.5555,730.5555,730.5569,731.9817,0,24,24,24,1,0.4,0.6,0.6,0.4,,,,,,,,,,,,,,,0.0072,,0.8,0.2,0.8,0.2,0.4,0.6,0.6,0.4,,,0.1909,0.0002,0.2,0.8,0.6,0.4,0.6,0.4,0.8,0.2,1,0
,,5bb511c6689fc5000149c703,66fcb667f2ddb9451f46603e,2024-10-01_20h59.13.924,mdp,2024.2.1,Win32,5.002501251,66fa4ebf79326e780c390304,,,,,,,,,,,,,,,,,,,,,731.9823,731.9823,731.9831,732.8085,0,1,left,0.0072,,732.81,733.6742,1,1,right,733.6755,734.9332,1,0,right,1,734.9332,734.9333,734.9348,736.4141,0,25,25,25,1,0.4,0.6,0.6,0.4,,,,,,,,,,,,,,,0.1863,0.0002,0.8,0.2,0.8,0.2,0.4,0.6,0.6,0.4,,,0.5581,0.0002,0.2,0.8,0.6,0.4,0.6,0.4,0.8,0.2,1,0
,,5bb511c6689fc5000149c703,66fcb667f2ddb9451f46603e,2024-10-01_20h59.13.924,mdp,2024.2.1,Win32,5.002501251,66fa4ebf79326e780c390304,,,,,,,,,,,,,,,,,,,,,736.4144,736.4144,736.415,737.96,0,0,left,0.8609,0.0002,737.9614,738.6611,1,1,right,738.6622,739.7234,1,1,right,0,739.7235,739.7235,739.7247,741.2395,0,26,26,26,1,0.4,0.6,0.6,0.4,,,,,,,,,,,,,,,0.0075,,0.8,0.2,0.8,0.2,0.4,0.6,0.6,0.4,,,0.363,0.0002,0.2,0.8,0.6,0.4,0.6,0.4,0.8,0.2,1,0
,,5bb511c6689fc5000149c703,66fcb667f2ddb9451f46603e,2024-10-01_20h59.13.924,mdp,2024.2.1,Win32,5.002501251,66fa4ebf79326e780c390304,,,,,,,,,,,,,,,,,,,,,741.2399,741.2399,741.2406,742.2707,0,0,left,0.3382,,742.2718,743.6425,0,1,left,743.6438,744.8865,0,0,left,1,744.8867,744.8867,744.8879,746.4014,0,27,27,27,1,0.4,0.6,0.6,0.4,,,,,,,,,,,,,,,0.541,,0.8,0.2,0.8,0.2,0.4,0.6,0.6,0.4,,,0.5442,0.0004,0.2,0.8,0.6,0.4,0.6,0.4,0.8,0.2,1,0
,,5bb511c6689fc5000149c703,66fcb667f2ddb9451f46603e,2024-10-01_20h59.13.924,mdp,2024.2.1,Win32,5.002501251,66fa4ebf79326e780c390304,,,,,,,,,,,,,,,,,,,,,746.4019,746.4019,746.4027,747.2655,0,1,left,0.172,,747.2667,748.274,1,0,right,748.2751,749.7003,0,1,left,0,749.7004,749.7004,749.7017,751.2018,0,28,28,28,1,0.4,0.6,0.6,0.4,,,,,,,,,,,,,,,0.1802,,0.8,0.2,0.8,0.2,0.4,0.6,0.6,0.4,,,0.7202,,0.2,0.8,0.6,0.4,0.6,0.4,0.8,0.2,1,0
,,5bb511c6689fc5000149c703,66fcb667f2ddb9451f46603e,2024-10-01_20h59.13.924,mdp,2024.2.1,Win32,5.002501251,66fa4ebf79326e780c390304,,,,,,,,,,,,,,,,,,,,,751.2023,751.2023,751.203,751.9097,0,1,left,0.0074,,751.9109,752.5816,1,1,right,752.5828,753.7406,0,0,left,1,753.7408,753.7409,753.7422,755.1421,0,29,29,29,1,0.4,0.6,0.6,0.4,,,,,,,,,,,,,,,0.007,,0.8,0.2,0.8,0.2,0.4,0.6,0.6,0.4,,,0.4421,0.0002,0.2,0.8,0.6,0.4,0.6,0.4,0.8,0.2,1,0
,,5bb511c6689fc5000149c703,66fcb667f2ddb9451f46603e,2024-10-01_20h59.13.924,mdp,2024.2.1,Win32,5.002501251,66fa4ebf79326e780c390304,,,,,,,,,,,,,,,,,,,,,755.1425,755.1425,755.1433,756.4295,0,0,left,0.5409,0.0003,756.4309,757.4548,1,1,right,757.4561,759.0017,1,0,right,1,759.0019,759.0019,759.0031,760.491,0,30,30,30,1,0.4,0.6,0.6,0.4,,,,,,,,,,,,,,,0.3401,0.0002,0.6,0.4,0.2,0.8,0.4,0.6,0.6,0.4,,,0.7093,0.0002,0.2,0.8,0.6,0.4,0.6,0.4,0.8,0.2,1,0
,,5bb511c6689fc5000149c703,66fcb667f2ddb9451f46603e,2024-10-01_20h59.13.924,mdp,2024.2.1,Win32,5.002501251,66fa4ebf79326e780c390304,,,,,,,,,,,,,,,,,,,,,760.4915,760.4915,760.4921,763.2764,1,0,right,2.0692,,763.2776,764.5119,1,1,right,764.5131,765.655,0,1,left,0,765.6551,765.6551,765.6564,767.0987,0,31,31,31,1,0.4,0.6,0.6,0.4,,,,,,,,,,,,,,,0.5404,,0.6,0.4,0.2,0.8,0.4,0.6,0.6,0.4,,,0.3992,0.0002,0.8,0.2,0.8,0.2,0.6,0.4,0.8,0.2,1,0
,,5bb511c6689fc5000149c703,66fcb667f2ddb9451f46603e,2024-10-01_20h59.13.924,mdp,2024.2.1,Win32,5.002501251,66fa4ebf79326e780c390304,,,,,,,,,,,,,,,,,,,,,767.0992,767.0992,767.0999,768.6254,0,1,left,0.7072,0.0003,768.6265,769.5128,1,0,right,769.5141,772.0848,0,1,left,0,772.0849,772.0849,772.0862,773.6019,0,32,32,32,1,0.4,0.6,0.6,0.4,,,,,,,,,,,,,,,0.1877,,0.6,0.4,0.2,0.8,0.4,0.6,0.6,0.4,,,1.8271,,0.8,0.2,0.8,0.2,0.6,0.4,0.8,0.2,1,0
,,5bb511c6689fc5000149c703,66fcb667f2ddb9451f46603e,2024-10-01_20h59.13.924,mdp,2024.2.1,Win32,5.002501251,66fa4ebf79326e780c390304,,,,,,,,,,,,,,,,,,,,,773.6024,773.6024,773.6032,775.2198,0,0,left,0.9197,0.0003,775.2215,776.531,1,1,right,776.5322,777.7267,1,0,right,1,777.7267,777.7267,777.7279,779.1034,0,33,33,33,1,0.4,0.6,0.6,0.4,,,,,,,,,,,,,,,0.5467,,0.6,0.4,0.2,0.8,0.4,0.6,0.6,0.4,,,0.5052,,0.8,0.2,0.8,0.2,0.6,0.4,0.8,0.2,1,0
,,5bb511c6689fc5000149c703,66fcb667f2ddb9451f46603e,2024-10-01_20h59.13.924,mdp,2024.2.1,Win32,5.002501251,66fa4ebf79326e780c390304,,,,,,,,,,,,,,,,,,,,,779.1038,779.1038,779.1046,780.7777,0,1,left,0.9758,,780.7791,781.4921,1,1,right,781.4934,782.1992,0,0,left,1,782.1994,782.1994,782.2005,783.7212,0,34,34,34,1,0.4,0.6,0.6,0.4,,,,,,,,,,,,,,,0.0073,0.0003,0.6,0.4,0.2,0.8,0.4,0.6,0.6,0.4,,,0.0076,,0.8,0.2,0.8,0.2,0.6,0.4,0.8,0.2,1,0
,,5bb511c6689fc5000149c703,66fcb667f2ddb9451f46603e,2024-10-01_20h59.13.924,mdp,2024.2.1,Win32,5.002501251,66fa4ebf79326e780c390304,,,,,,,,,,,,,,,,,,,,,783.7216,783.7216,783.7224,785.387,0,1,left,0.9368,0.0002,785.3886,786.3563,0,1,left,786.3576,788.9434,0,0,left,1,788.9434,788.9434,788.9449,790.4243,0,35,35,35,1,0.4,0.6,0.6,0.4,,,,,,,,,,,,,,,0.1857,,0.6,0.4,0.2,0.8,0.4,0.6,0.6,0.4,,,1.8873,,0.8,0.2,0.8,0.2,0.6,0.4,0.8,0.2,1,0
,,5bb511c6689fc5000149c703,66fcb667f2ddb9451f46603e,2024-10-01_20h59.13.924,mdp,2024.2.1,Win32,5.002501251,66fa4ebf79326e780c390304,,,,,,,,,,,,,,,,,,,,,790.4249,790.4249,790.4259,791.3768,1,1,right,0.1986,0.0003,791.378,792.6277,1,1,right,792.6288,793.8426,1,0,right,1,793.8427,793.8427,793.8439,795.2653,0,36,36,36,1,0.4,0.6,0.6,0.4,,,,,,,,,,,,,,,0.537,0.0004,0.6,0.4,0.2,0.8,0.4,0.6,0.6,0.4,,,0.5486,,0.8,0.2,0.8,0.2,0.6,0.4,0.8,0.2,1,0
,,5bb511c6689fc5000149c703,66fcb667f2ddb9451f46603e,2024-10-01_20h59.13.924,mdp,2024.2.1,Win32,5.002501251,66fa4ebf79326e780c390304,,,,,,,,,,,,,,,,,,,,,795.2659,795.2659,795.2668,796.5995,1,0,right,0.5496,,796.6008,797.97,1,1,right,797.9712,799.8861,1,0,right,1,799.8862,799.8863,799.8876,801.3956,0,37,37,37,1,0.4,0.6,0.6,0.4,,,,,,,,,,,,,,,0.6741,,0.6,0.4,0.2,0.8,0.4,0.6,0.6,0.4,,,1.2449,0.0002,0.8,0.2,0.8,0.2,0.6,0.4,0.8,0.2,1,0
,,5bb511c6689fc5000149c703,66fcb667f2ddb9451f46603e,2024-10-01_20h59.13.924,mdp,2024.2.1,Win32,5.002501251,66fa4ebf79326e780c390304,,,,,,,,,,,,,,,,,,,,,801.396,801.396,801.3966,802.6226,0,1,left,0.5261,0.0003,802.6238,803.972,1,1,right,803.9732,804.6824,1,0,right,1,804.6825,804.6825,804.6836,806.1942,0,38,38,38,1,0.4,0.6,0.6,0.4,,,,,,,,,,,,,,,0.5327,0.0002,0.6,0.4,0.2,0.8,0.4,0.6,0.6,0.4,,,0.0074,,0.8,0.2,0.8,0.2,0.6,0.4,0.8,0.2,1,0
,,5bb511c6689fc5000149c703,66fcb667f2ddb9451f46603e,2024-10-01_20h59.13.924,mdp,2024.2.1,Win32,5.002501251,66fa4ebf79326e780c390304,,,,,,,,,,,,,,,,,,,,,806.1947,806.1948,806.1955,807.5995,0,1,left,0.7004,,807.6007,808.9542,1,1,right,808.9555,810.8112,1,1,right,0,810.8113,810.8113,810.8125,812.2469,0,39,39,39,1,0.4,0.6,0.6,0.4,,,,,,,,,,,,,,,0.5338,,0.6,0.4,0.2,0.8,0.4,0.6,0.6,0.4,,,1.1507,,0.8,0.2,0.8,0.2,0.6,0.4,0.8,0.2,1,0
,,5bb511c6689fc5000149c703,66fcb667f2ddb9451f46603e,2024-10-01_20h59.13.924,mdp,2024.2.1,Win32,5.002501251,66fa4ebf79326e780c390304,,,,,,,,,,,,,,,,,,,,,812.2473,812.2473,812.248,813.0749,0,0,left,0.0069,0.0003,813.0759,813.7551,1,1,right,813.7563,815.1757,1,0,right,1,815.1757,815.1757,815.177,816.6836,0,40,40,40,1,0.4,0.6,0.6,0.4,,,,,,,,,,,,,,,0.0071,0.0002,0.6,0.4,0.2,0.8,0.4,0.6,0.6,0.4,,,0.7187,,0.2,0.8,0.4,0.6,0.6,0.4,0.8,0.2,1,0
,,5bb511c6689fc5000149c703,66fcb667f2ddb9451f46603e,2024-10-01_20h59.13.924,mdp,2024.2.1,Win32,5.002501251,66fa4ebf79326e780c390304,,,,,,,,,,,,,,,,,,,,,816.684,816.6841,816.6849,817.6188,1,1,right,0.1751,,817.62,818.4494,1,1,right,818.4506,819.8562,1,0,right,1,819.8564,819.8564,819.8576,821.358,0,41,41,41,1,0.4,0.6,0.6,0.4,,,,,,,,,,,,,,,0.0071,,0.6,0.4,0.2,0.8,0.4,0.6,0.6,0.4,,,0.7165,0.0002,0.2,0.8,0.4,0.6,0.6,0.4,0.8,0.2,1,0
,,5bb511c6689fc5000149c703,66fcb667f2ddb9451f46603e,2024-10-01_20h59.13.924,mdp,2024.2.1,Win32,5.002501251,66fa4ebf79326e780c390304,,,,,,,,,,,,,,,,,,,,,821.3585,821.3585,821.3591,823.0898,0,1,left,1.0301,,823.0911,823.9376,1,0,right,823.9388,825.0058,1,1,right,0,825.0058,825.0058,825.007,826.5305,0,42,42,42,1,0.4,0.6,0.6,0.4,,,,,,,,,,,,,,,0.1809,,0.6,0.4,0.2,0.8,0.4,0.6,0.6,0.4,,,0.3638,,0.2,0.8,0.4,0.6,0.6,0.4,0.8,0.2,1,0
,,5bb511c6689fc5000149c703,66fcb667f2ddb9451f46603e,2024-10-01_20h59.13.924,mdp,2024.2.1,Win32,5.002501251,66fa4ebf79326e780c390304,,,,,,,,,,,,,,,,,,,,,826.5308,826.5308,826.5316,827.7603,0,1,left,0.5285,,827.7615,829.2944,0,1,left,829.2957,830.5286,0,1,left,0,830.5286,830.5286,830.5298,832.0366,0,43,43,43,1,0.6,0.4,0.2,0.8,,,,,,,,,,,,,,,0.7112,0.0003,0.6,0.4,0.2,0.8,0.4,0.6,0.6,0.4,,,0.5378,,0.2,0.8,0.4,0.6,0.6,0.4,0.8,0.2,1,0
,,5bb511c6689fc5000149c703,66fcb667f2ddb9451f46603e,2024-10-01_20h59.13.924,mdp,2024.2.1,Win32,5.002501251,66fa4ebf79326e780c390304,,,,,,,,,,,,,,,,,,,,,832.037,832.037,832.0378,833.0669,0,0,left,0.3396,,833.068,834.2572,0,0,left,834.2584,835.1457,0,1,left,0,835.1458,835.1458,835.1469,836.6523,0,44,44,44,1,0.6,0.4,0.2,0.8,,,,,,,,,,,,,,,0.362,,0.6,0.4,0.2,0.8,0.4,0.6,0.6,0.4,,,0.1859,,0.2,0.8,0.4,0.6,0.6,0.4,0.8,0.2,1,0
,,5bb511c6689fc5000149c703,66fcb667f2ddb9451f46603e,2024-10-01_20h59.13.924,mdp,2024.2.1,Win32,5.002501251,66fa4ebf79326e780c390304,,,,,,,,,,,,,,,,,,,,,836.6527,836.6528,836.6535,837.7126,0,1,left,0.3612,,837.7138,838.5405,1,0,right,838.5418,839.5869,0,1,left,0,839.5869,839.587,839.5881,841.0814,0,45,45,45,1,0.6,0.4,0.2,0.8,,,,,,,,,,,,,,,0.0073,,0.6,0.4,0.2,0.8,0.4,0.6,0.6,0.4,,,0.3614,0.0003,0.2,0.8,0.4,0.6,0.6,0.4,0.8,0.2,1,0
,,5bb511c6689fc5000149c703,66fcb667f2ddb9451f46603e,2024-10-01_20h59.13.924,mdp,2024.2.1,Win32,5.002501251,66fa4ebf79326e780c390304,,,,,,,,,,,,,,,,,,,,,841.0817,841.0818,841.0824,841.8122,0,1,left,0.0077,0.0002,841.8135,842.5228,1,1,right,842.524,843.2023,1,0,right,1,843.2024,843.2024,843.2037,844.5867,0,46,46,46,1,0.6,0.4,0.2,0.8,,,,,,,,,,,,,,,0.0077,9.99999E-05,0.6,0.4,0.2,0.8,0.4,0.6,0.6,0.4,,,0.0073,,0.2,0.8,0.4,0.6,0.6,0.4,0.8,0.2,1,0
,,5bb511c6689fc5000149c703,66fcb667f2ddb9451f46603e,2024-10-01_20h59.13.924,mdp,2024.2.1,Win32,5.002501251,66fa4ebf79326e780c390304,,,,,,,,,,,,,,,,,,,,,844.5871,844.5871,844.5878,845.6542,0,0,left,0.3662,0.0003,845.6556,846.4436,1,0,right,846.4449,847.1909,1,1,right,0,847.1911,847.1911,847.192,848.6396,0,47,47,47,1,0.6,0.4,0.2,0.8,,,,,,,,,,,,,,,0.0077,0.0002,0.8,0.2,0.4,0.6,0.4,0.6,0.6,0.4,,,0.0079,,0.2,0.8,0.4,0.6,0.6,0.4,0.8,0.2,1,0
,,5bb511c6689fc5000149c703,66fcb667f2ddb9451f46603e,2024-10-01_20h59.13.924,mdp,2024.2.1,Win32,5.002501251,66fa4ebf79326e780c390304,,,,,,,,,,,,,,,,,,,,,848.64,848.64,848.6407,852.1036,0,0,left,2.7717,0.0002,852.1049,852.8102,1,0,right,852.8113,853.6386,1,1,right,0,853.6387,853.6387,853.64,855.0442,0,48,48,48,1,0.6,0.4,0.2,0.8,,,,,,,,,,,,,,,0.0071,,0.8,0.2,0.4,0.6,0.4,0.6,0.6,0.4,,,0.0069,,0.2,0.8,0.4,0.6,0.6,0.4,0.8,0.2,1,0
,,5bb511c6689fc5000149c703,66fcb667f2ddb9451f46603e,2024-10-01_20h59.13.924,mdp,2024.2.1,Win32,5.002501251,66fa4ebf79326e780c390304,,,,,,,,,,,,,,,,,,,,,855.0446,855.0446,855.0453,855.7496,0,0,left,0.0087,,855.751,856.721,1,1,right,856.7223,857.7864,1,1,right,0,857.7865,857.7865,857.7876,859.3108,0,49,49,49,1,0.6,0.4,0.2,0.8,,,,,,,,,,,,,,,0.1876,0.0003,0.8,0.2,0.4,0.6,0.4,0.6,0.6,0.4,,,0.3651,0.0002,0.2,0.8,0.4,0.6,0.6,0.4,0.8,0.2,1,0
,,5bb511c6689fc5000149c703,66fcb667f2ddb9451f46603e,2024-10-01_20h59.13.924,mdp,2024.2.1,Win32,5.002501251,66fa4ebf79326e780c390304,,,,,,,,,,,,,,,,,,,,,,,,,,,,,,,,,,,,,,,,,,,,,,,,,,,,,,,,859.3109,917.855,0,2,2,7,1,imgs/kangaroo.png,imgs/lion.png,imgs/giraffe.png,imgs/pig.png,imgs/rabbit.png,,,,,,,,,,,,,,,,,,,,,,,,
,,5bb511c6689fc5000149c703,66fcb667f2ddb9451f46603e,2024-10-01_20h59.13.924,mdp,2024.2.1,Win32,5.002501251,66fa4ebf79326e780c390304,,,,,,,,,,,,,,3,seqs/st3seq33.csv,917.8555,934.9495,space,16.3953,0.0004,934.9584,934.9584,934.9594,939.1093,1,1,right,3.4545,,939.1109,939.979,1,1,right,939.9805,940.8706,1,0,right,1,940.8707,940.8707,940.872,942.2051,0,0,0,0,1,0.8,0.2,0.2,0.8,,,,,,,,,,,,,,,0.1845,0.0002,0.6,0.4,0.4,0.6,0.8,0.2,0.2,0.8,,,0.1865,,0.6,0.4,0.8,0.2,0.4,0.6,0.8,0.2,1,0
,,5bb511c6689fc5000149c703,66fcb667f2ddb9451f46603e,2024-10-01_20h59.13.924,mdp,2024.2.1,Win32,5.002501251,66fa4ebf79326e780c390304,,,,,,,,,,,,,,,,,,,,,942.2056,942.2056,942.2066,943.3483,1,0,right,0.3631,,943.3498,945.3984,1,1,right,945.3997,954.6776,1,1,right,0,954.6778,954.6778,954.6791,956.0936,0,1,1,1,1,0.8,0.2,0.2,0.8,,,,,,,,,,,,,,,1.388,0.0002,0.6,0.4,0.4,0.6,0.8,0.2,0.2,0.8,,,8.5811,0.0002,0.6,0.4,0.8,0.2,0.4,0.6,0.8,0.2,1,0
,,5bb511c6689fc5000149c703,66fcb667f2ddb9451f46603e,2024-10-01_20h59.13.924,mdp,2024.2.1,Win32,5.002501251,66fa4ebf79326e780c390304,,,,,,,,,,,,,,,,,,,,,956.0941,956.0941,956.0949,957.0488,1,1,right,0.2031,,957.0504,958.1258,0,0,left,958.1271,959.1504,1,0,right,1,959.1505,959.1505,959.1516,960.539,0,2,2,2,1,0.8,0.2,0.2,0.8,,,,,,,,,,,,,,,0.3598,0.0001,0.6,0.4,0.4,0.6,0.8,0.2,0.2,0.8,,,0.3378,0.0003,0.6,0.4,0.8,0.2,0.4,0.6,0.8,0.2,1,0
,,5bb511c6689fc5000149c703,66fcb667f2ddb9451f46603e,2024-10-01_20h59.13.924,mdp,2024.2.1,Win32,5.002501251,66fa4ebf79326e780c390304,,,,,,,,,,,,,,,,,,,,,960.5396,960.5396,960.5404,962.0118,1,1,right,0.7753,0.0003,962.0129,962.7583,0,0,left,962.7598,963.6402,1,0,right,1,963.6403,963.6403,963.6415,965.1555,0,3,3,3,1,0.8,0.2,0.2,0.8,,,,,,,,,,,,,,,0.0074,,0.6,0.4,0.4,0.6,0.8,0.2,0.2,0.8,,,0.1823,0.0002,0.6,0.4,0.8,0.2,0.4,0.6,0.8,0.2,1,0
,,5bb511c6689fc5000149c703,66fcb667f2ddb9451f46603e,2024-10-01_20h59.13.924,mdp,2024.2.1,Win32,5.002501251,66fa4ebf79326e780c390304,,,,,,,,,,,,,,,,,,,,,965.1559,965.1559,965.1567,966.0393,1,1,right,0.1807,0.0003,966.0405,966.7711,0,0,left,966.7727,967.5488,1,1,right,0,967.5489,967.5489,967.5504,968.9563,0,4,4,4,1,0.8,0.2,0.2,0.8,,,,,,,,,,,,,,,0.0083,,0.6,0.4,0.4,0.6,0.8,0.2,0.2,0.8,,,0.0072,,0.6,0.4,0.8,0.2,0.4,0.6,0.8,0.2,1,0
,,5bb511c6689fc5000149c703,66fcb667f2ddb9451f46603e,2024-10-01_20h59.13.924,mdp,2024.2.1,Win32,5.002501251,66fa4ebf79326e780c390304,,,,,,,,,,,,,,,,,,,,,968.9567,968.9567,968.9574,970.1272,1,0,right,0.3562,,970.1286,971.0156,0,0,left,971.0169,971.7232,1,0,right,1,971.7233,971.7233,971.7245,973.1433,0,5,5,5,1,0.8,0.2,0.2,0.8,,,,,,,,,,,,,,,0.185,,0.6,0.4,0.4,0.6,0.8,0.2,0.2,0.8,,,0.0076,,0.6,0.4,0.8,0.2,0.6,0.4,0.2,0.8,1,0
,,5bb511c6689fc5000149c703,66fcb667f2ddb9451f46603e,2024-10-01_20h59.13.924,mdp,2024.2.1,Win32,5.002501251,66fa4ebf79326e780c390304,,,,,,,,,,,,,,,,,,,,,973.1438,973.1438,973.1447,974.0072,1,1,right,0.0077,,974.0089,975.0074,0,0,left,975.0088,975.8841,1,1,right,0,975.8843,975.8843,975.8854,977.39,0,6,6,6,1,0.8,0.2,0.2,0.8,,,,,,,,,,,,,,,0.1789,0.0002,0.6,0.4,0.4,0.6,0.8,0.2,0.2,0.8,,,0.1854,0.0002,0.6,0.4,0.8,0.2,0.6,0.4,0.2,0.8,1,0
,,5bb511c6689fc5000149c703,66fcb667f2ddb9451f46603e,2024-10-01_20h59.13.924,mdp,2024.2.1,Win32,5.002501251,66fa4ebf79326e780c390304,,,,,,,,,,,,,,,,,,,,,977.3905,977.3905,977.3912,978.6366,1,1,right,0.5363,,978.6379,979.8057,1,1,right,979.807,980.686,1,1,right,0,980.686,980.686,980.6874,982.1584,0,7,7,7,1,0.8,0.2,0.2,0.8,,,,,,,,,,,,,,,0.5099,,0.6,0.4,0.4,0.6,0.8,0.2,0.2,0.8,,,0.1879,,0.6,0.4,0.8,0.2,0.6,0.4,0.2,0.8,1,0
,,5bb511c6689fc5000149c703,66fcb667f2ddb9451f46603e,2024-10-01_20h59.13.924,mdp,2024.2.1,Win32,5.002501251,66fa4ebf79326e780c390304,,,,,,,,,,,,,,,,,,,,,982.1588,982.1588,982.1595,982.8993,1,1,right,0.0072,,982.9007,983.7824,0,0,left,983.7838,984.6208,1,0,right,1,984.6209,984.6209,984.6222,986.0183,0,8,8,8,1,0.8,0.2,0.2,0.8,,,,,,,,,,,,,,,0.1875,0.0002,0.6,0.4,0.4,0.6,0.8,0.2,0.2,0.8,,,0.1782,,0.6,0.4,0.8,0.2,0.6,0.4,0.2,0.8,1,0
,,5bb511c6689fc5000149c703,66fcb667f2ddb9451f46603e,2024-10-01_20h59.13.924,mdp,2024.2.1,Win32,5.002501251,66fa4ebf79326e780c390304,,,,,,,,,,,,,,,,,,,,,986.0187,986.0187,986.0194,987.1229,1,1,right,0.4079,,987.1246,987.8801,0,0,left,987.8815,988.5868,1,0,right,1,988.5869,988.5869,988.5882,990.1101,0,9,9,9,1,0.8,0.2,0.2,0.8,,,,,,,,,,,,,,,0.0073,,0.6,0.4,0.4,0.6,0.8,0.2,0.2,0.8,,,0.0071,,0.6,0.4,0.8,0.2,0.6,0.4,0.2,0.8,1,0
,,5bb511c6689fc5000149c703,66fcb667f2ddb9451f46603e,2024-10-01_20h59.13.924,mdp,2024.2.1,Win32,5.002501251,66fa4ebf79326e780c390304,,,,,,,,,,,,,,,,,,,,,990.1105,990.1105,990.1111,991.3482,1,1,right,0.5388,0.0003,991.3497,992.0737,0,0,left,992.0752,992.8472,1,0,right,1,992.8472,992.8472,992.8485,994.2593,0,10,10,10,1,0.8,0.2,0.2,0.8,,,,,,,,,,,,,,,0.0084,,0.6,0.4,0.4,0.6,0.8,0.2,0.2,0.8,,,0.0075,,0.6,0.4,0.8,0.2,0.6,0.4,0.2,0.8,1,0
,,5bb511c6689fc5000149c703,66fcb667f2ddb9451f46603e,2024-10-01_20h59.13.924,mdp,2024.2.1,Win32,5.002501251,66fa4ebf79326e780c390304,,,,,,,,,,,,,,,,,,,,,994.2598,994.2598,994.2605,995.4323,1,0,right,0.3532,,995.4336,996.1416,0,0,left,996.1428,996.8458,1,0,right,1,996.8459,996.8459,996.8471,998.3513,0,11,11,11,1,0.8,0.2,0.2,0.8,,,,,,,,,,,,,,,0.0078,0.0002,0.6,0.4,0.4,0.6,0.8,0.2,0.2,0.8,,,0.0072,,0.6,0.4,0.8,0.2,0.6,0.4,0.2,0.8,1,0
,,5bb511c6689fc5000149c703,66fcb667f2ddb9451f46603e,2024-10-01_20h59.13.924,mdp,2024.2.1,Win32,5.002501251,66fa4ebf79326e780c390304,,,,,,,,,,,,,,,,,,,,,998.3518,998.3518,998.3525,999.2155,1,1,right,0.1745,0.0003,999.2167,1000.0424,0,0,left,1000.0435,1000.9246,1,0,right,1,1000.9246,1000.9247,1000.9258,1002.4156,0,12,12,12,1,0.8,0.2,0.2,0.8,,,,,,,,,,,,,,,0.0073,,0.6,0.4,0.4,0.6,0.8,0.2,0.2,0.8,,,0.1857,,0.6,0.4,0.8,0.2,0.2,0.8,0.4,0.6,1,0
,,5bb511c6689fc5000149c703,66fcb667f2ddb9451f46603e,2024-10-01_20h59.13.924,mdp,2024.2.1,Win32,5.002501251,66fa4ebf79326e780c390304,,,,,,,,,,,,,,,,,,,,,1002.416,1002.416,1002.4167,1003.8551,1,0,right,0.7188,,1003.8576,1004.8313,0,0,left,1004.8332,1005.9821,1,0,right,1,1005.9822,1005.9822,1005.9842,1007.4828,0,13,13,13,1,0.8,0.2,0.2,0.8,,,,,,,,,,,,,,,0.213,,0.6,0.4,0.4,0.6,0.8,0.2,0.2,0.8,,,0.3655,,0.6,0.4,0.8,0.2,0.2,0.8,0.4,0.6,1,0
,,5bb511c6689fc5000149c703,66fcb667f2ddb9451f46603e,2024-10-01_20h59.13.924,mdp,2024.2.1,Win32,5.002501251,66fa4ebf79326e780c390304,,,,,,,,,,,,,,,,,,,,,1007.4832,1007.4832,1007.4839,1008.2069,1,1,right,0.0073,,1008.2094,1009.0932,0,0,left,1009.0951,1009.9173,1,0,right,1,1009.9173,1009.9173,1009.9194,1011.3191,0,14,14,14,1,0.8,0.2,0.2,0.8,,,,,,,,,,,,,,,0.1864,,0.6,0.4,0.4,0.6,0.8,0.2,0.2,0.8,,,0.0072,,0.6,0.4,0.8,0.2,0.2,0.8,0.4,0.6,1,0
,,5bb511c6689fc5000149c703,66fcb667f2ddb9451f46603e,2024-10-01_20h59.13.924,mdp,2024.2.1,Win32,5.002501251,66fa4ebf79326e780c390304,,,,,,,,,,,,,,,,,,,,,1011.3195,1011.3195,1011.3202,1012.2512,1,0,right,0.2319,,1012.2536,1013.0076,0,1,left,1013.01,1013.8913,1,1,right,0,1013.8914,1013.8914,1013.8932,1015.4161,0,15,15,15,1,0.8,0.2,0.2,0.8,,,,,,,,,,,,,,,0.0074,,0.2,0.8,0.6,0.4,0.8,0.2,0.2,0.8,,,0.1786,0.0002,0.6,0.4,0.8,0.2,0.2,0.8,0.4,0.6,1,0
,,5bb511c6689fc5000149c703,66fcb667f2ddb9451f46603e,2024-10-01_20h59.13.924,mdp,2024.2.1,Win32,5.002501251,66fa4ebf79326e780c390304,,,,,,,,,,,,,,,,,,,,,1015.4165,1015.4165,1015.4171,1016.6617,1,0,right,0.5459,9.99999E-05,1016.6636,1017.4292,0,1,left,1017.4317,1018.1676,1,0,right,1,1018.1677,1018.1678,1018.1698,1019.565,0,16,16,16,1,0.8,0.2,0.2,0.8,,,,,,,,,,,,,,,0.0078,,0.2,0.8,0.6,0.4,0.8,0.2,0.2,0.8,,,0.0072,,0.6,0.4,0.8,0.2,0.6,0.4,0.8,0.2,1,0
,,5bb511c6689fc5000149c703,66fcb667f2ddb9451f46603e,2024-10-01_20h59.13.924,mdp,2024.2.1,Win32,5.002501251,66fa4ebf79326e780c390304,,,,,,,,,,,,,,,,,,,,,1019.5655,1019.5655,1019.5662,1020.7533,1,1,right,0.3578,,1020.7553,1021.6375,0,0,left,1021.6395,1022.3958,1,0,right,1,1022.3959,1022.3959,1022.3984,1023.8517,0,17,17,17,1,0.8,0.2,0.2,0.8,,,,,,,,,,,,,,,0.1837,0.0003,0.2,0.8,0.6,0.4,0.8,0.2,0.2,0.8,,,0.008,0.0002,0.6,0.4,0.8,0.2,0.6,0.4,0.8,0.2,1,0
,,5bb511c6689fc5000149c703,66fcb667f2ddb9451f46603e,2024-10-01_20h59.13.924,mdp,2024.2.1,Win32,5.002501251,66fa4ebf79326e780c390304,,,,,,,,,,,,,,,,,,,,,1023.8521,1023.8521,1023.8527,1025.7233,1,1,right,1.1962,0.0002,1025.7256,1026.6126,0,0,left,1026.6142,1027.5567,1,1,right,0,1027.5568,1027.5568,1027.5582,1029.0065,0,18,18,18,1,0.2,0.8,0.4,0.6,,,,,,,,,,,,,,,0.1839,,0.2,0.8,0.6,0.4,0.8,0.2,0.2,0.8,,,0.2212,0.0002,0.6,0.4,0.8,0.2,0.6,0.4,0.8,0.2,1,0
,,5bb511c6689fc5000149c703,66fcb667f2ddb9451f46603e,2024-10-01_20h59.13.924,mdp,2024.2.1,Win32,5.002501251,66fa4ebf79326e780c390304,,,,,,,,,,,,,,,,,,,,,1029.0069,1029.0069,1029.0077,1030.1799,1,1,right,0.5014,0.0002,1030.1811,1031.2285,1,0,right,1031.23,1032.3099,1,0,right,1,1032.31,1032.31,1032.3117,1033.8434,0,19,19,19,1,0.2,0.8,0.4,0.6,,,,,,,,,,,,,,,0.3645,,0.2,0.8,0.6,0.4,0.8,0.2,0.2,0.8,,,0.3834,,0.6,0.4,0.8,0.2,0.6,0.4,0.8,0.2,1,0
,,5bb511c6689fc5000149c703,66fcb667f2ddb9451f46603e,2024-10-01_20h59.13.924,mdp,2024.2.1,Win32,5.002501251,66fa4ebf79326e780c390304,,,,,,,,,,,,,,,,,,,,,1033.8439,1033.8439,1033.8448,1035.0754,1,1,right,0.5282,0.0002,1035.0767,1035.8541,0,0,left,1035.8558,1036.9294,1,0,right,1,1036.9296,1036.9296,1036.9309,1038.3301,0,20,20,20,1,0.2,0.8,0.4,0.6,,,,,,,,,,,,,,,0.009,0.0002,0.2,0.8,0.6,0.4,0.8,0.2,0.2,0.8,,,0.2254,,0.6,0.4,0.8,0.2,0.6,0.4,0.8,0.2,1,0
,,5bb511c6689fc5000149c703,66fcb667f2ddb9451f46603e,2024-10-01_20h59.13.924,mdp,2024.2.1,Win32,5.002501251,66fa4ebf79326e780c390304,,,,,,,,,,,,,,,,,,,,,1038.3304,1038.3305,1038.3311,1039.0402,1,1,right,0.0074,,1039.0415,1040.3909,0,0,left,1040.3923,1041.0922,1,1,right,0,1041.0923,1041.0923,1041.0935,1042.5707,0,21,21,21,1,0.2,0.8,0.4,0.6,,,,,,,,,,,,,,,0.6742,,0.2,0.8,0.6,0.4,0.8,0.2,0.2,0.8,,,0.0074,,0.6,0.4,0.8,0.2,0.6,0.4,0.8,0.2,1,0
,,5bb511c6689fc5000149c703,66fcb667f2ddb9451f46603e,2024-10-01_20h59.13.924,mdp,2024.2.1,Win32,5.002501251,66fa4ebf79326e780c390304,,,,,,,,,,,,,,,,,,,,,1042.5712,1042.5712,1042.572,1043.4989,1,0,right,0.1905,,1043.5,1044.5581,0,1,left,1044.5593,1046.2625,1,1,right,0,1046.2625,1046.2626,1046.2638,1047.7594,0,22,22,22,1,0.2,0.8,0.4,0.6,,,,,,,,,,,,,,,0.3625,,0.2,0.8,0.6,0.4,0.8,0.2,0.2,0.8,,,0.8871,0.0003,0.6,0.4,0.8,0.2,0.6,0.4,0.8,0.2,1,0
,,5bb511c6689fc5000149c703,66fcb667f2ddb9451f46603e,2024-10-01_20h59.13.924,mdp,2024.2.1,Win32,5.002501251,66fa4ebf79326e780c390304,,,,,,,,,,,,,,,,,,,,,1047.7598,1047.7598,1047.7604,1048.6649,1,1,right,0.1869,,1048.6661,1049.8782,0,0,left,1049.8794,1050.7211,1,0,right,1,1050.7212,1050.7212,1050.7223,1052.1429,0,23,23,23,1,0.2,0.8,0.4,0.6,,,,,,,,,,,,,,,0.5063,,0.2,0.8,0.6,0.4,0.8,0.2,0.2,0.8,,,0.0077,,0.6,0.4,0.8,0.2,0.6,0.4,0.8,0.2,1,0
,,5bb511c6689fc5000149c703,66fcb667f2ddb9451f46603e,2024-10-01_20h59.13.924,mdp,2024.2.1,Win32,5.002501251,66fa4ebf79326e780c390304,,,,,,,,,,,,,,,,,,,,,1052.1433,1052.1433,1052.1439,1053.2901,1,0,right,0.376,,1053.2914,1054.1936,0,1,left,1054.1946,1055.0492,1,1,right,0,1055.0492,1055.0493,1055.0505,1056.4231,0,24,24,24,1,0.2,0.8,0.4,0.6,,,,,,,,,,,,,,,0.1872,,0.2,0.8,0.6,0.4,0.8,0.2,0.2,0.8,,,0.1772,0.0003,0.6,0.4,0.8,0.2,0.6,0.4,0.8,0.2,1,0
,,5bb511c6689fc5000149c703,66fcb667f2ddb9451f46603e,2024-10-01_20h59.13.924,mdp,2024.2.1,Win32,5.002501251,66fa4ebf79326e780c390304,,,,,,,,,,,,,,,,,,,,,1056.4234,1056.4234,1056.4241,1057.1308,1,1,right,0.0075,0.0001,1057.1321,1057.9201,0,0,left,1057.9214,1058.662,1,1,right,0,1058.6621,1058.6621,1058.6633,1060.0428,0,25,25,25,1,0.2,0.8,0.4,0.6,,,,,,,,,,,,,,,0.008,,0.2,0.8,0.6,0.4,0.8,0.2,0.2,0.8,,,0.0075,,0.6,0.4,0.8,0.2,0.6,0.4,0.8,0.2,1,0
,,5bb511c6689fc5000149c703,66fcb667f2ddb9451f46603e,2024-10-01_20h59.13.924,mdp,2024.2.1,Win32,5.002501251,66fa4ebf79326e780c390304,,,,,,,,,,,,,,,,,,,,,1060.0431,1060.0431,1060.0438,1060.7163,0,0,left,0.0071,,1060.7174,1061.7727,1,0,right,1061.7741,1062.723,0,1,left,0,1062.7231,1062.7231,1062.7244,1064.1643,0,26,26,26,1,0.2,0.8,0.4,0.6,,,,,,,,,,,,,,,0.3599,0.0003,0.2,0.8,0.6,0.4,0.8,0.2,0.2,0.8,,,0.2248,0.0003,0.6,0.4,0.8,0.2,0.6,0.4,0.8,0.2,1,0
,,5bb511c6689fc5000149c703,66fcb667f2ddb9451f46603e,2024-10-01_20h59.13.924,mdp,2024.2.1,Win32,5.002501251,66fa4ebf79326e780c390304,,,,,,,,,,,,,,,,,,,,,1064.1646,1064.1646,1064.1653,1065.1774,0,1,left,0.3397,,1065.1786,1066.0364,1,1,right,1066.038,1066.9334,1,1,right,0,1066.9335,1066.9335,1066.9346,1068.4701,0,27,27,27,1,0.2,0.8,0.4,0.6,,,,,,,,,,,,,,,0.1886,0.0002,0.2,0.8,0.6,0.4,0.8,0.2,0.2,0.8,,,0.1866,,0.6,0.4,0.8,0.2,0.6,0.4,0.8,0.2,1,0
,,5bb511c6689fc5000149c703,66fcb667f2ddb9451f46603e,2024-10-01_20h59.13.924,mdp,2024.2.1,Win32,5.002501251,66fa4ebf79326e780c390304,,,,,,,,,,,,,,,,,,,,,1068.4705,1068.4705,1068.4712,1069.2306,0,1,left,0.0072,0.0003,1069.232,1070.0685,0,0,left,1070.0697,1070.9224,1,0,right,1,1070.9225,1070.9225,1070.9238,1072.336,0,28,28,28,1,0.2,0.8,0.4,0.6,,,,,,,,,,,,,,,0.1739,,0.2,0.8,0.6,0.4,0.8,0.2,0.2,0.8,,,0.1854,,0.6,0.4,0.8,0.2,0.6,0.4,0.8,0.2,1,0
,,5bb511c6689fc5000149c703,66fcb667f2ddb9451f46603e,2024-10-01_20h59.13.924,mdp,2024.2.1,Win32,5.002501251,66fa4ebf79326e780c390304,,,,,,,,,,,,,,,,,,,,,1072.3365,1072.3365,1072.3372,1073.307,0,0,left,0.193,,1073.3081,1074.2004,0,1,left,1074.2016,1074.8882,1,0,right,1,1074.8883,1074.8883,1074.8895,1076.2515,0,29,29,29,1,0.4,0.6,0.2,0.8,,,,,,,,,,,,,,,0.1846,,0.2,0.8,0.6,0.4,0.8,0.2,0.2,0.8,,,0.0073,,0.6,0.4,0.8,0.2,0.6,0.4,0.8,0.2,1,0
,,5bb511c6689fc5000149c703,66fcb667f2ddb9451f46603e,2024-10-01_20h59.13.924,mdp,2024.2.1,Win32,5.002501251,66fa4ebf79326e780c390304,,,,,,,,,,,,,,,,,,,,,1076.2519,1076.252,1076.2528,1077.1372,0,1,left,0.1851,,1077.1384,1077.9082,0,0,left,1077.9095,1078.6541,1,0,right,1,1078.6541,1078.6541,1078.6553,1080.0428,0,30,30,30,1,0.4,0.6,0.2,0.8,,,,,,,,,,,,,,,0.0081,,0.2,0.8,0.6,0.4,0.8,0.2,0.2,0.8,,,0.0077,,0.6,0.4,0.8,0.2,0.6,0.4,0.8,0.2,1,0
,,5bb511c6689fc5000149c703,66fcb667f2ddb9451f46603e,2024-10-01_20h59.13.924,mdp,2024.2.1,Win32,5.002501251,66fa4ebf79326e780c390304,,,,,,,,,,,,,,,,,,,,,1080.0432,1080.0432,1080.044,1081.4158,0,1,left,0.5439,,1081.4171,1082.3027,1,1,right,1082.304,1083.8133,1,0,right,1,1083.8133,1083.8134,1083.8145,1085.3497,0,31,31,31,1,0.4,0.6,0.2,0.8,,,,,,,,,,,,,,,0.1909,,0.2,0.8,0.6,0.4,0.8,0.2,0.2,0.8,,,0.7387,,0.8,0.2,0.4,0.6,0.6,0.4,0.8,0.2,1,0
,,5bb511c6689fc5000149c703,66fcb667f2ddb9451f46603e,2024-10-01_20h59.13.924,mdp,2024.2.1,Win32,5.002501251,66fa4ebf79326e780c390304,,,,,,,,,,,,,,,,,,,,,1085.3502,1085.3502,1085.3511,1086.3857,0,0,left,0.3648,,1086.387,1087.4506,1,0,right,1087.452,1088.2396,1,1,right,0,1088.2396,1088.2396,1088.2409,1089.6688,0,32,32,32,1,0.4,0.6,0.2,0.8,,,,,,,,,,,,,,,0.3653,9.99999E-05,0.2,0.8,0.6,0.4,0.8,0.2,0.2,0.8,,,0.0079,,0.8,0.2,0.4,0.6,0.6,0.4,0.8,0.2,1,0
,,5bb511c6689fc5000149c703,66fcb667f2ddb9451f46603e,2024-10-01_20h59.13.924,mdp,2024.2.1,Win32,5.002501251,66fa4ebf79326e780c390304,,,,,,,,,,,,,,,,,,,,,1089.6692,1089.6692,1089.6699,1091.0017,0,1,left,0.5202,0.0003,1091.0029,1091.7111,0,0,left,1091.7123,1092.5981,1,1,right,0,1092.5982,1092.5982,1092.5993,1094.1085,0,33,33,33,1,0.4,0.6,0.2,0.8,,,,,,,,,,,,,,,0.0077,,0.2,0.8,0.6,0.4,0.8,0.2,0.2,0.8,,,0.1867,,0.8,0.2,0.4,0.6,0.6,0.4,0.8,0.2,1,0
,,5bb511c6689fc5000149c703,66fcb667f2ddb9451f46603e,2024-10-01_20h59.13.924,mdp,2024.2.1,Win32,5.002501251,66fa4ebf79326e780c390304,,,,,,,,,,,,,,,,,,,,,1094.109,1094.109,1094.1096,1095.31,0,1,left,0.5021,,1095.3111,1096.154,0,0,left,1096.1552,1096.8593,1,0,right,1,1096.8594,1096.8594,1096.8606,1098.3635,0,34,34,34,1,0.4,0.6,0.2,0.8,,,,,,,,,,,,,,,0.0076,,0.2,0.8,0.6,0.4,0.8,0.2,0.2,0.8,,,0.0072,,0.8,0.2,0.4,0.6,0.6,0.4,0.8,0.2,1,0
,,5bb511c6689fc5000149c703,66fcb667f2ddb9451f46603e,2024-10-01_20h59.13.924,mdp,2024.2.1,Win32,5.002501251,66fa4ebf79326e780c390304,,,,,,,,,,,,,,,,,,,,,1098.3641,1098.3641,1098.3647,1099.358,0,0,left,0.214,,1099.3595,1100.8553,0,0,left,1100.8575,1101.9134,1,0,right,1,1101.9135,1101.9135,1101.9155,1103.4165,0,35,35,35,1,0.4,0.6,0.2,0.8,,,,,,,,,,,,,,,0.6763,,0.2,0.8,0.6,0.4,0.8,0.2,0.2,0.8,,,0.3625,0.0002,0.8,0.2,0.4,0.6,0.6,0.4,0.8,0.2,1,0
,,5bb511c6689fc5000149c703,66fcb667f2ddb9451f46603e,2024-10-01_20h59.13.924,mdp,2024.2.1,Win32,5.002501251,66fa4ebf79326e780c390304,,,,,,,,,,,,,,,,,,,,,1103.4167,1103.4167,1103.4174,1104.3076,0,1,left,0.1863,,1104.3097,1105.3343,0,0,left,1105.3362,1106.1797,1,0,right,1,1106.1798,1106.1798,1106.1816,1107.6012,0,36,36,36,1,0.4,0.6,0.2,0.8,,,,,,,,,,,,,,,0.3349,0.0002,0.2,0.8,0.6,0.4,0.8,0.2,0.2,0.8,,,0.0075,,0.8,0.2,0.4,0.6,0.6,0.4,0.8,0.2,1,0
,,5bb511c6689fc5000149c703,66fcb667f2ddb9451f46603e,2024-10-01_20h59.13.924,mdp,2024.2.1,Win32,5.002501251,66fa4ebf79326e780c390304,,,,,,,,,,,,,,,,,,,,,1107.6016,1107.6017,1107.6022,1108.7485,0,0,left,0.3694,,1108.7506,1109.8087,0,1,left,1109.8107,1110.831,1,0,right,1,1110.8312,1110.8312,1110.8331,1112.3259,0,37,37,37,1,0.4,0.6,0.2,0.8,,,,,,,,,,,,,,,0.3626,,0.2,0.8,0.6,0.4,0.8,0.2,0.2,0.8,,,0.1964,0.0004,0.8,0.2,0.4,0.6,0.6,0.4,0.8,0.2,1,0
,,5bb511c6689fc5000149c703,66fcb667f2ddb9451f46603e,2024-10-01_20h59.13.924,mdp,2024.2.1,Win32,5.002501251,66fa4ebf79326e780c390304,,,,,,,,,,,,,,,,,,,,,1112.3264,1112.3265,1112.3273,1113.1277,0,0,left,0.0079,,1113.1299,1114.0722,0,0,left,1114.0746,1114.9806,1,0,right,1,1114.9806,1114.9806,1114.9824,1116.3854,0,38,38,38,1,0.4,0.6,0.2,0.8,,,,,,,,,,,,,,,0.2003,,0.2,0.8,0.6,0.4,0.8,0.2,0.2,0.8,,,0.1798,,0.8,0.2,0.4,0.6,0.6,0.4,0.8,0.2,1,0
,,5bb511c6689fc5000149c703,66fcb667f2ddb9451f46603e,2024-10-01_20h59.13.924,mdp,2024.2.1,Win32,5.002501251,66fa4ebf79326e780c390304,,,,,,,,,,,,,,,,,,,,,1116.3859,1116.3859,1116.3867,1117.1794,0,0,left,0.0098,,1117.183,1118.2126,0,1,left,1118.2149,1119.3295,1,0,right,1,1119.3296,1119.3297,1119.3316,1120.7358,0,39,39,39,1,0.4,0.6,0.2,0.8,,,,,,,,,,,,,,,0.2344,0.0002,0.2,0.8,0.6,0.4,0.8,0.2,0.2,0.8,,,0.4238,0.0002,0.8,0.2,0.4,0.6,0.6,0.4,0.8,0.2,1,0
,,5bb511c6689fc5000149c703,66fcb667f2ddb9451f46603e,2024-10-01_20h59.13.924,mdp,2024.2.1,Win32,5.002501251,66fa4ebf79326e780c390304,,,,,,,,,,,,,,,,,,,,,1120.7364,1120.7364,1120.7373,1121.8814,0,1,left,0.4129,,1121.8832,1122.6501,0,0,left,1122.6518,1124.1465,1,1,right,0,1124.1466,1124.1467,1124.1487,1125.6425,0,40,40,40,1,0.4,0.6,0.2,0.8,,,,,,,,,,,,,,,0.01,,0.2,0.8,0.6,0.4,0.8,0.2,0.2,0.8,,,0.6234,0.0003,0.8,0.2,0.4,0.6,0.6,0.4,0.8,0.2,1,0
,,5bb511c6689fc5000149c703,66fcb667f2ddb9451f46603e,2024-10-01_20h59.13.924,mdp,2024.2.1,Win32,5.002501251,66fa4ebf79326e780c390304,,,,,,,,,,,,,,,,,,,,,1125.6429,1125.6429,1125.6437,1126.8117,0,1,left,0.383,0.0002,1126.8133,1127.7772,0,0,left,1127.7797,1128.5949,1,1,right,0,1128.5949,1128.5949,1128.5969,1130.0482,0,41,41,41,1,0.4,0.6,0.2,0.8,,,,,,,,,,,,,,,0.1898,,0.2,0.8,0.6,0.4,0.8,0.2,0.2,0.8,,,0.0079,,0.8,0.2,0.4,0.6,0.6,0.4,0.8,0.2,1,0
,,5bb511c6689fc5000149c703,66fcb667f2ddb9451f46603e,2024-10-01_20h59.13.924,mdp,2024.2.1,Win32,5.002501251,66fa4ebf79326e780c390304,,,,,,,,,,,,,,,,,,,,,1130.0486,1130.0486,1130.0494,1131.0278,0,0,left,0.2129,,1131.0295,1131.9947,0,1,left,1131.9959,1133.4998,1,1,right,0,1133.4998,1133.4998,1133.5012,1134.9313,0,42,42,42,1,0.4,0.6,0.2,0.8,,,,,,,,,,,,,,,0.1878,,0.2,0.8,0.6,0.4,0.8,0.2,0.2,0.8,,,0.7991,,0.8,0.2,0.4,0.6,0.6,0.4,0.8,0.2,1,0
,,5bb511c6689fc5000149c703,66fcb667f2ddb9451f46603e,2024-10-01_20h59.13.924,mdp,2024.2.1,Win32,5.002501251,66fa4ebf79326e780c390304,,,,,,,,,,,,,,,,,,,,,1134.9318,1134.9318,1134.9325,1136.1089,0,1,left,0.5071,0.0002,1136.1101,1136.9997,1,0,right,1137.001,1137.7036,0,1,left,0,1137.7037,1137.7037,1137.7049,1139.2158,0,43,43,43,1,0.2,0.8,0.6,0.4,,,,,,,,,,,,,,,0.1916,,0.2,0.8,0.6,0.4,0.8,0.2,0.2,0.8,,,0.0077,,0.8,0.2,0.4,0.6,0.6,0.4,0.8,0.2,1,0
,,5bb511c6689fc5000149c703,66fcb667f2ddb9451f46603e,2024-10-01_20h59.13.924,mdp,2024.2.1,Win32,5.002501251,66fa4ebf79326e780c390304,,,,,,,,,,,,,,,,,,,,,1139.2162,1139.2162,1139.217,1140.1104,0,1,left,0.1789,,1140.1116,1141.296,1,0,right,1141.2973,1142.0126,1,1,right,0,1142.0127,1142.0127,1142.0139,1143.5118,0,44,44,44,1,0.2,0.8,0.6,0.4,,,,,,,,,,,,,,,0.5207,,0.2,0.8,0.6,0.4,0.8,0.2,0.2,0.8,,,0.0074,,0.8,0.2,0.4,0.6,0.6,0.4,0.8,0.2,1,0
,,5bb511c6689fc5000149c703,66fcb667f2ddb9451f46603e,2024-10-01_20h59.13.924,mdp,2024.2.1,Win32,5.002501251,66fa4ebf79326e780c390304,,,,,,,,,,,,,,,,,,,,,1143.5123,1143.5123,1143.5131,1144.2354,1,0,right,0.0073,,1144.2366,1145.2947,1,1,right,1145.2958,1146.1265,1,0,right,1,1146.1266,1146.1266,1146.1279,1147.5768,0,45,45,45,1,0.2,0.8,0.6,0.4,,,,,,,,,,,,,,,0.3512,0.0003,0.4,0.6,0.2,0.8,0.8,0.2,0.2,0.8,,,0.0073,,0.8,0.2,0.4,0.6,0.6,0.4,0.8,0.2,1,0
,,5bb511c6689fc5000149c703,66fcb667f2ddb9451f46603e,2024-10-01_20h59.13.924,mdp,2024.2.1,Win32,5.002501251,66fa4ebf79326e780c390304,,,,,,,,,,,,,,,,,,,,,1147.5772,1147.5772,1147.578,1148.3344,1,1,right,0.008,,1148.3358,1149.0946,1,1,right,1149.0959,1149.8114,1,0,right,1,1149.8114,1149.8114,1149.8127,1151.3419,0,46,46,46,1,0.2,0.8,0.6,0.4,,,,,,,,,,,,,,,0.0075,,0.4,0.6,0.2,0.8,0.8,0.2,0.2,0.8,,,0.0075,0.0002,0.8,0.2,0.4,0.6,0.6,0.4,0.8,0.2,1,0
,,5bb511c6689fc5000149c703,66fcb667f2ddb9451f46603e,2024-10-01_20h59.13.924,mdp,2024.2.1,Win32,5.002501251,66fa4ebf79326e780c390304,,,,,,,,,,,,,,,,,,,,,1151.3425,1151.3425,1151.3434,1152.2281,1,0,right,0.1851,,1152.2294,1153.1197,1,1,right,1153.1212,1154.0976,1,0,right,1,1154.0977,1154.0977,1154.0988,1155.4939,0,47,47,47,1,0.2,0.8,0.6,0.4,,,,,,,,,,,,,,,0.191,,0.4,0.6,0.2,0.8,0.8,0.2,0.2,0.8,,,0.1883,0.0004,0.8,0.2,0.4,0.6,0.6,0.4,0.8,0.2,1,0
,,5bb511c6689fc5000149c703,66fcb667f2ddb9451f46603e,2024-10-01_20h59.13.924,mdp,2024.2.1,Win32,5.002501251,66fa4ebf79326e780c390304,,,,,,,,,,,,,,,,,,,,,1155.4942,1155.4942,1155.4949,1156.3295,1,1,right,0.0072,,1156.3307,1157.2174,1,1,right,1157.2187,1158.3218,1,0,right,1,1158.3219,1158.3219,1158.3234,1159.6953,0,48,48,48,1,0.2,0.8,0.6,0.4,,,,,,,,,,,,,,,0.1841,0.0002,0.4,0.6,0.2,0.8,0.8,0.2,0.2,0.8,,,0.3976,0.0001,0.8,0.2,0.4,0.6,0.6,0.4,0.8,0.2,1,0
,,5bb511c6689fc5000149c703,66fcb667f2ddb9451f46603e,2024-10-01_20h59.13.924,mdp,2024.2.1,Win32,5.002501251,66fa4ebf79326e780c390304,,,,,,,,,,,,,,,,,,,,,1159.6958,1159.6958,1159.6967,1160.9282,1,0,right,0.5233,0.0002,1160.9295,1161.8949,1,1,right,1161.8963,1162.9847,1,0,right,1,1162.9848,1162.9848,1162.9861,1164.3735,0,49,49,49,1,0.2,0.8,0.6,0.4,,,,,,,,,,,,,,,0.2265,,0.8,0.2,0.4,0.6,0.8,0.2,0.2,0.8,,,0.2316,,0.8,0.2,0.4,0.6,0.6,0.4,0.8,0.2,1,0
,,5bb511c6689fc5000149c703,66fcb667f2ddb9451f46603e,2024-10-01_20h59.13.924,mdp,2024.2.1,Win32,5.002501251,66fa4ebf79326e780c390304,,,,,,,,,,,,,,,,,,,,,,,,,,,,,,,,,,,,,,,,,,,,,,,,,,,,,,,,1164.3737,1223.1116,0,3,3,4,1,imgs/rabbit.png,imgs/dog.png,imgs/goat.png,imgs/pig.png,imgs/kangaroo.png,,,,,,,,,,,,,,,,,,,,,,,,
,,5bb511c6689fc5000149c703,66fcb667f2ddb9451f46603e,2024-10-01_20h59.13.924,mdp,2024.2.1,Win32,5.002501251,66fa4ebf79326e780c390304,,,,,,,,,,,,,,1,seqs/st1seq1.csv,1223.1127,1224.859,space,0.9851,,1224.864,1224.864,1224.8648,1226.9316,0,0,left,1.2294,,1226.9339,1226.9344,1,0,,1226.935,1226.9354,1,1,,1,1226.9354,1226.9354,1226.9358,1228.3658,0,0,0,0,1,0.4,0.6,0.8,0.2,1,0,,,,,,,,,,,,,,,,,,,,,,,,,,,,,,,,,,,,
,,5bb511c6689fc5000149c703,66fcb667f2ddb9451f46603e,2024-10-01_20h59.13.924,mdp,2024.2.1,Win32,5.002501251,66fa4ebf79326e780c390304,,,,,,,,,,,,,,,,,,,,,1228.3667,1228.3667,1228.3684,1229.5173,0,1,left,0.3756,0.0003,1229.5195,1229.5201,1,1,,1229.5206,1229.521,1,0,,0,1229.5211,1229.5211,1229.5215,1230.9281,0,1,1,1,1,0.4,0.6,0.8,0.2,1,0,,,,,,,,,,,,,,,,,,,,,,,,,,,,,,,,,,,,
,,5bb511c6689fc5000149c703,66fcb667f2ddb9451f46603e,2024-10-01_20h59.13.924,mdp,2024.2.1,Win32,5.002501251,66fa4ebf79326e780c390304,,,,,,,,,,,,,,,,,,,,,1230.9284,1230.9284,1230.9291,1231.9269,1,0,right,0.177,0.0002,1231.929,1231.9298,1,0,,1231.9303,1231.9307,1,0,,1,1231.9307,1231.9307,1231.9311,1233.3398,0,2,2,2,1,0.4,0.6,0.8,0.2,1,0,,,,,,,,,,,,,,,,,,,,,,,,,,,,,,,,,,,,
,,5bb511c6689fc5000149c703,66fcb667f2ddb9451f46603e,2024-10-01_20h59.13.924,mdp,2024.2.1,Win32,5.002501251,66fa4ebf79326e780c390304,,,,,,,,,,,,,,,,,,,,,1233.3402,1233.3402,1233.3409,1234.8431,1,1,right,0.7421,0.0002,1234.8451,1234.846,1,1,,1234.8465,1234.8467,1,1,,0,1234.8468,1234.8468,1234.8472,1236.2289,0,3,3,3,1,0.8,0.2,0.2,0.8,1,0,,,,,,,,,,,,,,,,,,,,,,,,,,,,,,,,,,,,
,,5bb511c6689fc5000149c703,66fcb667f2ddb9451f46603e,2024-10-01_20h59.13.924,mdp,2024.2.1,Win32,5.002501251,66fa4ebf79326e780c390304,,,,,,,,,,,,,,,,,,,,,1236.2293,1236.2293,1236.23,1237.7854,0,0,left,0.7202,0.0003,1237.7874,1237.7883,1,1,,1237.7888,1237.7893,1,0,,1,1237.7893,1237.7893,1237.7896,1239.2843,0,4,4,4,1,0.8,0.2,0.2,0.8,1,0,,,,,,,,,,,,,,,,,,,,,,,,,,,,,,,,,,,,
,,5bb511c6689fc5000149c703,66fcb667f2ddb9451f46603e,2024-10-01_20h59.13.924,mdp,2024.2.1,Win32,5.002501251,66fa4ebf79326e780c390304,,,,,,,,,,,,,,,,,,,,,1239.2848,1239.2848,1239.2856,1240.5418,0,1,left,0.5386,0.0003,1240.5435,1240.5447,1,0,,1240.5451,1240.5455,1,0,,0,1240.5455,1240.5455,1240.5459,1242.0664,0,5,5,5,1,0.8,0.2,0.2,0.8,1,0,,,,,,,,,,,,,,,,,,,,,,,,,,,,,,,,,,,,
,,5bb511c6689fc5000149c703,66fcb667f2ddb9451f46603e,2024-10-01_20h59.13.924,mdp,2024.2.1,Win32,5.002501251,66fa4ebf79326e780c390304,,,,,,,,,,,,,,,,,,,,,1242.0667,1242.0667,1242.0675,1242.9462,1,1,right,0.1865,,1242.9479,1242.9491,1,0,,1242.9496,1242.9499,1,1,,0,1242.9499,1242.9499,1242.9503,1244.4506,0,6,6,6,1,0.8,0.2,0.2,0.8,1,0,,,,,,,,,,,,,,,,,,,,,,,,,,,,,,,,,,,,
,,5bb511c6689fc5000149c703,66fcb667f2ddb9451f46603e,2024-10-01_20h59.13.924,mdp,2024.2.1,Win32,5.002501251,66fa4ebf79326e780c390304,,,,,,,,,,,,,,,,,,,,,1244.4509,1244.4509,1244.4517,1245.3446,1,1,right,0.1868,,1245.3465,1245.3475,1,1,,1245.348,1245.3484,1,1,,0,1245.3484,1245.3485,1245.3488,1246.7133,0,7,7,7,1,0.8,0.2,0.2,0.8,1,0,,,,,,,,,,,,,,,,,,,,,,,,,,,,,,,,,,,,
,,5bb511c6689fc5000149c703,66fcb667f2ddb9451f46603e,2024-10-01_20h59.13.924,mdp,2024.2.1,Win32,5.002501251,66fa4ebf79326e780c390304,,,,,,,,,,,,,,,,,,,,,1246.7137,1246.7137,1246.7144,1247.7646,1,0,right,0.3633,0.0002,1247.7665,1247.7674,1,0,,1247.768,1247.7684,1,1,,1,1247.7684,1247.7684,1247.7688,1249.2544,0,8,8,8,1,0.2,0.8,0.6,0.4,1,0,,,,,,,,,,,,,,,,,,,,,,,,,,,,,,,,,,,,
,,5bb511c6689fc5000149c703,66fcb667f2ddb9451f46603e,2024-10-01_20h59.13.924,mdp,2024.2.1,Win32,5.002501251,66fa4ebf79326e780c390304,,,,,,,,,,,,,,,,,,,,,1249.2547,1249.2548,1249.2555,1250.1605,1,0,right,0.1868,,1250.1626,1250.1634,1,0,,1250.164,1250.1643,1,1,,1,1250.1644,1250.1645,1250.1648,1251.6956,0,9,9,9,1,0.2,0.8,0.6,0.4,1,0,,,,,,,,,,,,,,,,,,,,,,,,,,,,,,,,,,,,
,,5bb511c6689fc5000149c703,66fcb667f2ddb9451f46603e,2024-10-01_20h59.13.924,mdp,2024.2.1,Win32,5.002501251,66fa4ebf79326e780c390304,,,,,,,,,,,,,,,,,,,,,1251.6958,1251.6958,1251.6965,1252.5665,1,1,right,0.1835,0.0002,1252.5677,1252.5685,1,0,,1252.5696,1252.5701,1,1,,0,1252.5701,1252.5701,1252.5705,1254.0295,0,10,10,10,1,0.2,0.8,0.6,0.4,1,0,,,,,,,,,,,,,,,,,,,,,,,,,,,,,,,,,,,,
,,5bb511c6689fc5000149c703,66fcb667f2ddb9451f46603e,2024-10-01_20h59.13.924,mdp,2024.2.1,Win32,5.002501251,66fa4ebf79326e780c390304,,,,,,,,,,,,,,,,,,,,,1254.0299,1254.03,1254.0307,1254.7802,1,0,right,0.0073,,1254.7814,1254.7819,1,0,,1254.7831,1254.7838,1,1,,1,1254.7838,1254.7838,1254.7843,1256.2096,0,11,11,11,1,0.2,0.8,0.6,0.4,1,0,,,,,,,,,,,,,,,,,,,,,,,,,,,,,,,,,,,,
,,5bb511c6689fc5000149c703,66fcb667f2ddb9451f46603e,2024-10-01_20h59.13.924,mdp,2024.2.1,Win32,5.002501251,66fa4ebf79326e780c390304,,,,,,,,,,,,,,,,,,,,,1256.21,1256.21,1256.2107,1259.3003,1,0,right,2.2762,,1259.3017,1259.3023,1,0,,1259.3035,1259.3043,1,1,,1,1259.3043,1259.3043,1259.3047,1260.7422,0,12,12,12,1,0.2,0.8,0.6,0.4,1,0,,,,,,,,,,,,,,,,,,,,,,,,,,,,,,,,,,,,
,,5bb511c6689fc5000149c703,66fcb667f2ddb9451f46603e,2024-10-01_20h59.13.924,mdp,2024.2.1,Win32,5.002501251,66fa4ebf79326e780c390304,,,,,,,,,,,,,,,,,,,,,1260.7426,1260.7426,1260.7433,1261.7455,1,1,right,0.3386,,1261.7466,1261.7471,1,1,,1261.748,1261.7486,1,0,,0,1261.7486,1261.7486,1261.7492,1263.1458,0,13,13,13,1,0.2,0.8,0.6,0.4,1,0,,,,,,,,,,,,,,,,,,,,,,,,,,,,,,,,,,,,
,,5bb511c6689fc5000149c703,66fcb667f2ddb9451f46603e,2024-10-01_20h59.13.924,mdp,2024.2.1,Win32,5.002501251,66fa4ebf79326e780c390304,,,,,,,,,,,,,,,,,,,,,1263.1461,1263.1461,1263.1468,1264.2675,0,0,left,0.4222,,1264.2687,1264.2693,1,1,,1264.2705,1264.2712,1,1,,1,1264.2713,1264.2713,1264.2719,1265.7225,0,14,14,14,1,0.2,0.8,0.6,0.4,1,0,,,,,,,,,,,,,,,,,,,,,,,,,,,,,,,,,,,,
,,5bb511c6689fc5000149c703,66fcb667f2ddb9451f46603e,2024-10-01_20h59.13.924,mdp,2024.2.1,Win32,5.002501251,66fa4ebf79326e780c390304,,,,,,,,,,,,,,,,,,,,,1265.7229,1265.7229,1265.7236,1266.404,0,1,left,0.0072,,1266.4052,1266.4058,1,1,,1266.4067,1266.4074,1,0,,0,1266.4075,1266.4075,1266.4081,1267.9483,0,15,15,15,1,0.4,0.6,0.8,0.2,1,0,,,,,,,,,,,,,,,,,,,,,,,,,,,,,,,,,,,,
,,5bb511c6689fc5000149c703,66fcb667f2ddb9451f46603e,2024-10-01_20h59.13.924,mdp,2024.2.1,Win32,5.002501251,66fa4ebf79326e780c390304,,,,,,,,,,,,,,,,,,,,,1267.9485,1267.9485,1267.9492,1269.0105,1,1,right,0.3636,,1269.012,1269.0126,1,0,,1269.0139,1269.0146,1,1,,0,1269.0147,1269.0147,1269.0153,1270.5193,0,16,16,16,1,0.4,0.6,0.8,0.2,1,0,,,,,,,,,,,,,,,,,,,,,,,,,,,,,,,,,,,,
,,5bb511c6689fc5000149c703,66fcb667f2ddb9451f46603e,2024-10-01_20h59.13.924,mdp,2024.2.1,Win32,5.002501251,66fa4ebf79326e780c390304,,,,,,,,,,,,,,,,,,,,,1270.5199,1270.52,1270.5209,1271.8798,1,0,right,0.6752,0.0002,1271.881,1271.882,1,0,,1271.8828,1271.8833,1,0,,1,1271.8833,1271.8833,1271.8837,1273.285,0,17,17,17,1,0.4,0.6,0.8,0.2,1,0,,,,,,,,,,,,,,,,,,,,,,,,,,,,,,,,,,,,
,,5bb511c6689fc5000149c703,66fcb667f2ddb9451f46603e,2024-10-01_20h59.13.924,mdp,2024.2.1,Win32,5.002501251,66fa4ebf79326e780c390304,,,,,,,,,,,,,,,,,,,,,1273.2853,1273.2854,1273.286,1275.325,1,0,right,1.3471,0.0003,1275.3263,1275.3272,1,1,,1275.3281,1275.3287,1,1,,1,1275.3288,1275.3288,1275.3292,1276.7075,0,18,18,18,1,0.4,0.6,0.8,0.2,1,0,,,,,,,,,,,,,,,,,,,,,,,,,,,,,,,,,,,,
,,5bb511c6689fc5000149c703,66fcb667f2ddb9451f46603e,2024-10-01_20h59.13.924,mdp,2024.2.1,Win32,5.002501251,66fa4ebf79326e780c390304,,,,,,,,,,,,,,,,,,,,,1276.7078,1276.7078,1276.7085,1278.4402,1,0,right,0.895,0.0004,1278.4415,1278.4423,1,1,,1278.4433,1278.4439,1,0,,1,1278.4439,1278.4439,1278.4443,1279.9476,0,19,19,19,1,0.4,0.6,0.8,0.2,1,0,,,,,,,,,,,,,,,,,,,,,,,,,,,,,,,,,,,,
,,5bb511c6689fc5000149c703,66fcb667f2ddb9451f46603e,2024-10-01_20h59.13.924,mdp,2024.2.1,Win32,5.002501251,66fa4ebf79326e780c390304,,,,,,,,,,,,,,,,,,,,,1279.9479,1279.9479,1279.9486,1280.6595,1,0,right,0.0073,,1280.6607,1280.6615,1,0,,1280.6624,1280.6631,1,0,,1,1280.6631,1280.6631,1280.6636,1282.1826,0,20,20,20,1,0.4,0.6,0.8,0.2,1,0,,,,,,,,,,,,,,,,,,,,,,,,,,,,,,,,,,,,
,,5bb511c6689fc5000149c703,66fcb667f2ddb9451f46603e,2024-10-01_20h59.13.924,mdp,2024.2.1,Win32,5.002501251,66fa4ebf79326e780c390304,,,,,,,,,,,,,,,,,,,,,1282.1829,1282.1829,1282.1836,1283.6032,1,1,right,0.7169,0.0003,1283.6043,1283.6049,1,0,,1283.606,1283.6066,1,0,,0,1283.6066,1283.6066,1283.6073,1285.118,0,21,21,21,1,0.4,0.6,0.8,0.2,1,0,,,,,,,,,,,,,,,,,,,,,,,,,,,,,,,,,,,,
,,5bb511c6689fc5000149c703,66fcb667f2ddb9451f46603e,2024-10-01_20h59.13.924,mdp,2024.2.1,Win32,5.002501251,66fa4ebf79326e780c390304,,,,,,,,,,,,,,,,,,,,,1285.1186,1285.1186,1285.1195,1286.3379,1,0,right,0.5219,,1286.3391,1286.3396,1,0,,1286.3407,1286.3414,1,0,,1,1286.3414,1286.3414,1286.3419,1287.7648,0,22,22,22,1,0.4,0.6,0.8,0.2,1,0,,,,,,,,,,,,,,,,,,,,,,,,,,,,,,,,,,,,
,,5bb511c6689fc5000149c703,66fcb667f2ddb9451f46603e,2024-10-01_20h59.13.924,mdp,2024.2.1,Win32,5.002501251,66fa4ebf79326e780c390304,,,,,,,,,,,,,,,,,,,,,1287.7657,1287.7657,1287.7668,1288.9578,1,1,right,0.3676,,1288.9604,1288.9609,1,0,,1288.9613,1288.9617,1,0,,0,1288.9617,1288.9617,1288.9621,1290.4705,0,23,23,23,1,0.2,0.8,0.6,0.4,1,0,,,,,,,,,,,,,,,,,,,,,,,,,,,,,,,,,,,,
,,5bb511c6689fc5000149c703,66fcb667f2ddb9451f46603e,2024-10-01_20h59.13.924,mdp,2024.2.1,Win32,5.002501251,66fa4ebf79326e780c390304,,,,,,,,,,,,,,,,,,,,,1290.4708,1290.4708,1290.4714,1291.504,0,1,left,0.3423,,1291.5063,1291.5069,1,1,,1291.5075,1291.5079,1,1,,0,1291.508,1291.508,1291.5084,1292.8792,0,24,24,24,1,0.2,0.8,0.6,0.4,1,0,,,,,,,,,,,,,,,,,,,,,,,,,,,,,,,,,,,,
,,5bb511c6689fc5000149c703,66fcb667f2ddb9451f46603e,2024-10-01_20h59.13.924,mdp,2024.2.1,Win32,5.002501251,66fa4ebf79326e780c390304,,,,,,,,,,,,,,,,,,,,,1292.8794,1292.8795,1292.8802,1293.7609,1,0,right,0.1839,0.0002,1293.7628,1293.7638,1,0,,1293.7644,1293.7648,1,1,,1,1293.7648,1293.7648,1293.7651,1295.2795,0,25,25,25,1,0.2,0.8,0.6,0.4,1,0,,,,,,,,,,,,,,,,,,,,,,,,,,,,,,,,,,,,
,,5bb511c6689fc5000149c703,66fcb667f2ddb9451f46603e,2024-10-01_20h59.13.924,mdp,2024.2.1,Win32,5.002501251,66fa4ebf79326e780c390304,,,,,,,,,,,,,,,,,,,,,1295.2799,1295.2799,1295.2806,1296.5063,1,0,right,0.5249,0.0003,1296.5081,1296.5088,1,0,,1296.5093,1296.5096,1,1,,1,1296.5096,1296.5096,1296.51,1298.0362,0,26,26,26,1,0.2,0.8,0.6,0.4,1,0,,,,,,,,,,,,,,,,,,,,,,,,,,,,,,,,,,,,
,,5bb511c6689fc5000149c703,66fcb667f2ddb9451f46603e,2024-10-01_20h59.13.924,mdp,2024.2.1,Win32,5.002501251,66fa4ebf79326e780c390304,,,,,,,,,,,,,,,,,,,,,1298.0366,1298.0366,1298.0374,1299.1033,1,1,right,0.3663,,1299.1054,1299.1062,1,1,,1299.1068,1299.1071,1,0,,0,1299.1073,1299.1073,1299.1077,1300.6159,0,27,27,27,1,0.6,0.4,0.4,0.6,1,0,,,,,,,,,,,,,,,,,,,,,,,,,,,,,,,,,,,,
,,5bb511c6689fc5000149c703,66fcb667f2ddb9451f46603e,2024-10-01_20h59.13.924,mdp,2024.2.1,Win32,5.002501251,66fa4ebf79326e780c390304,,,,,,,,,,,,,,,,,,,,,1300.6163,1300.6163,1300.6169,1301.4959,1,1,right,0.1819,0.0002,1301.4979,1301.4987,1,1,,1301.4992,1301.4997,1,1,,0,1301.4997,1301.4997,1301.5,1303.0282,0,28,28,28,1,0.6,0.4,0.4,0.6,1,0,,,,,,,,,,,,,,,,,,,,,,,,,,,,,,,,,,,,
,,5bb511c6689fc5000149c703,66fcb667f2ddb9451f46603e,2024-10-01_20h59.13.924,mdp,2024.2.1,Win32,5.002501251,66fa4ebf79326e780c390304,,,,,,,,,,,,,,,,,,,,,1303.0286,1303.0286,1303.0294,1303.7372,1,0,right,0.0072,0.0002,1303.7391,1303.74,1,1,,1303.7406,1303.741,1,1,,1,1303.741,1303.741,1303.7414,1305.2559,0,29,29,29,1,0.6,0.4,0.4,0.6,1,0,,,,,,,,,,,,,,,,,,,,,,,,,,,,,,,,,,,,
,,5bb511c6689fc5000149c703,66fcb667f2ddb9451f46603e,2024-10-01_20h59.13.924,mdp,2024.2.1,Win32,5.002501251,66fa4ebf79326e780c390304,,,,,,,,,,,,,,,,,,,,,1305.2563,1305.2563,1305.257,1306.3277,1,0,right,0.3696,,1306.3302,1306.3308,1,1,,1306.3314,1306.3317,1,1,,1,1306.3318,1306.3318,1306.3322,1307.85,0,30,30,30,1,0.6,0.4,0.4,0.6,1,0,,,,,,,,,,,,,,,,,,,,,,,,,,,,,,,,,,,,
,,5bb511c6689fc5000149c703,66fcb667f2ddb9451f46603e,2024-10-01_20h59.13.924,mdp,2024.2.1,Win32,5.002501251,66fa4ebf79326e780c390304,,,,,,,,,,,,,,,,,,,,,1307.8508,1307.8509,1307.8525,1309.2701,1,1,right,0.718,0.0002,1309.2724,1309.2728,1,0,,1309.2733,1309.2737,1,0,,0,1309.2737,1309.2737,1309.2741,1310.785,0,31,31,31,1,0.6,0.4,0.4,0.6,1,0,,,,,,,,,,,,,,,,,,,,,,,,,,,,,,,,,,,,
,,5bb511c6689fc5000149c703,66fcb667f2ddb9451f46603e,2024-10-01_20h59.13.924,mdp,2024.2.1,Win32,5.002501251,66fa4ebf79326e780c390304,,,,,,,,,,,,,,,,,,,,,1310.7852,1310.7852,1310.7859,1311.9892,1,1,right,0.5087,,1311.9912,1311.992,1,1,,1311.9925,1311.9928,1,1,,0,1311.9928,1311.9928,1311.9932,1313.3709,0,32,32,32,1,0.6,0.4,0.4,0.6,1,0,,,,,,,,,,,,,,,,,,,,,,,,,,,,,,,,,,,,
,,5bb511c6689fc5000149c703,66fcb667f2ddb9451f46603e,2024-10-01_20h59.13.924,mdp,2024.2.1,Win32,5.002501251,66fa4ebf79326e780c390304,,,,,,,,,,,,,,,,,,,,,1313.3712,1313.3712,1313.3719,1314.2506,0,1,left,0.1845,,1314.2529,1314.2537,1,0,,1314.2544,1314.2549,1,1,,0,1314.2549,1314.2549,1314.2555,1315.7691,0,33,33,33,1,0.6,0.4,0.4,0.6,1,0,,,,,,,,,,,,,,,,,,,,,,,,,,,,,,,,,,,,
,,5bb511c6689fc5000149c703,66fcb667f2ddb9451f46603e,2024-10-01_20h59.13.924,mdp,2024.2.1,Win32,5.002501251,66fa4ebf79326e780c390304,,,,,,,,,,,,,,,,,,,,,1315.7694,1315.7694,1315.7702,1317.1214,1,1,right,0.6727,,1317.1226,1317.1231,1,1,,1317.1241,1317.1247,1,1,,0,1317.1247,1317.1247,1317.1254,1318.5248,0,34,34,34,1,0.6,0.4,0.4,0.6,1,0,,,,,,,,,,,,,,,,,,,,,,,,,,,,,,,,,,,,
,,5bb511c6689fc5000149c703,66fcb667f2ddb9451f46603e,2024-10-01_20h59.13.924,mdp,2024.2.1,Win32,5.002501251,66fa4ebf79326e780c390304,,,,,,,,,,,,,,,,,,,,,1318.5251,1318.5251,1318.5258,1319.6608,1,1,right,0.2496,0.0003,1319.6621,1319.6627,1,1,,1319.6638,1319.6646,1,0,,0,1319.6647,1319.6647,1319.6652,1321.1076,0,35,35,35,1,0.2,0.8,0.6,0.4,1,0,,,,,,,,,,,,,,,,,,,,,,,,,,,,,,,,,,,,
,,5bb511c6689fc5000149c703,66fcb667f2ddb9451f46603e,2024-10-01_20h59.13.924,mdp,2024.2.1,Win32,5.002501251,66fa4ebf79326e780c390304,,,,,,,,,,,,,,,,,,,,,1321.1079,1321.1079,1321.1086,1322.2863,0,1,left,0.5081,0.0002,1322.2875,1322.2885,1,0,,1322.2894,1322.2898,1,1,,0,1322.2898,1322.2898,1322.2902,1323.7055,0,36,36,36,1,0.2,0.8,0.6,0.4,1,0,,,,,,,,,,,,,,,,,,,,,,,,,,,,,,,,,,,,
