init_exp.started,init_exp.stopped,participant,session,date,expName,psychopyVersion,OS,frameRate,study_id,disp_instruction.started,disp_instruction.stopped,instruction.thisRepN,instruction.thisTrialN,instruction.thisN,instruction.thisIndex,instruction.ran,instimg_path,consent.started,consent.stopped,key_resp_3.keys,key_resp_3.rt,key_resp_3.duration,n_steps,sequence_path,init_block.started,init_block.stopped,key_resp.keys,key_resp.rt,key_resp.duration,init_trials.started,init_trials.stopped,step0.started,step0.stopped,act0,s1,res0.keys,res0.rt,res0.duration,step1.started,step1.stopped,act1,s2,res1.keys,step2.started,step2.stopped,act2,s3,res2.keys,rew,reward_comp.started,reward_comp.stopped,reward_disp.started,reward_disp.stopped,trials.thisRepN,trials.thisTrialN,trials.thisN,trials.thisIndex,trials.ran,s00a0s10,s00a0s11,s00a1s10,s00a1s11,rew10,rew11,break_block.started,break_block.stopped,block.thisRepN,block.thisTrialN,block.thisN,block.thisIndex,block.ran,s00path,s10path,s11path,s20path,s21path,res1.rt,res1.duration,s10a0s20,s10a0s21,s10a1s20,s10a1s21,s11a0s20,s11a0s21,s11a1s20,s11a1s21,rew20,rew21,res2.rt,res2.duration,s20a0s30,s20a0s31,s20a1s30,s20a1s31,s21a0s30,s21a0s31,s21a1s30,s21a1s31,rew30,rew31
0.0017,0.0053,5c5fbade4cc94200016a5c15,66fc97b6736ae44b178e548f,2024-10-01_18h46.26.037,mdp,2024.2.1,Win32,59.88023952,66fa4ebf79326e780c390304,,,,,,,,,,,,,,,,,,,,,,,,,,,,,,,,,,,,,,,,,,,,,,,,,,,,,,,,,,,,,,,,,,,,,,,,,,,,,,,,,,,,,,,,,,,
,,5c5fbade4cc94200016a5c15,66fc97b6736ae44b178e548f,2024-10-01_18h46.26.037,mdp,2024.2.1,Win32,59.88023952,66fa4ebf79326e780c390304,0.0143,32.677,0,0,0,0,1,rlnn_exp/rlnn_exp.001.png,,,,,,,,,,,,,,,,,,,,,,,,,,,,,,,,,,,,,,,,,,,,,,,,,,,,,,,,,,,,,,,,,,,,,,,,,,,,,,,,,,,
,,5c5fbade4cc94200016a5c15,66fc97b6736ae44b178e548f,2024-10-01_18h46.26.037,mdp,2024.2.1,Win32,59.88023952,66fa4ebf79326e780c390304,32.6783,68.0985,0,1,1,1,1,rlnn_exp/rlnn_exp.002.png,,,,,,,,,,,,,,,,,,,,,,,,,,,,,,,,,,,,,,,,,,,,,,,,,,,,,,,,,,,,,,,,,,,,,,,,,,,,,,,,,,,
,,5c5fbade4cc94200016a5c15,66fc97b6736ae44b178e548f,2024-10-01_18h46.26.037,mdp,2024.2.1,Win32,59.88023952,66fa4ebf79326e780c390304,68.0994,91.8077,0,2,2,2,1,rlnn_exp/rlnn_exp.003.png,,,,,,,,,,,,,,,,,,,,,,,,,,,,,,,,,,,,,,,,,,,,,,,,,,,,,,,,,,,,,,,,,,,,,,,,,,,,,,,,,,,
,,5c5fbade4cc94200016a5c15,66fc97b6736ae44b178e548f,2024-10-01_18h46.26.037,mdp,2024.2.1,Win32,59.88023952,66fa4ebf79326e780c390304,91.8091,110.3278,0,3,3,3,1,rlnn_exp/rlnn_exp.004.png,,,,,,,,,,,,,,,,,,,,,,,,,,,,,,,,,,,,,,,,,,,,,,,,,,,,,,,,,,,,,,,,,,,,,,,,,,,,,,,,,,,
,,5c5fbade4cc94200016a5c15,66fc97b6736ae44b178e548f,2024-10-01_18h46.26.037,mdp,2024.2.1,Win32,59.88023952,66fa4ebf79326e780c390304,,,,,,,,,110.3284,133.5874,y,13.2303,,,,,,,,,,,,,,,,,,,,,,,,,,,,,,,,,,,,,,,,,,,,,,,,,,,,,,,,,,,,,,,,,,,,,,,,,,,,,,,
,,5c5fbade4cc94200016a5c15,66fc97b6736ae44b178e548f,2024-10-01_18h46.26.037,mdp,2024.2.1,Win32,59.88023952,66fa4ebf79326e780c390304,,,,,,,,,,,,,,1,seqs/st1seq24.csv,133.5937,135.7559,space,1.6396,,135.7612,135.7614,135.762,146.3509,1,1,right,10.0538,,146.3517,146.3543,,1,,146.3549,146.3567,,1,,0,146.3569,146.3571,146.3576,147.8525,0,0,0,0,1,0.6,0.4,0.2,0.8,1,0,,,,,,,,,,,,,,,,,,,,,,,,,,,,,,,,,,,,
,,5c5fbade4cc94200016a5c15,66fc97b6736ae44b178e548f,2024-10-01_18h46.26.037,mdp,2024.2.1,Win32,59.88023952,66fa4ebf79326e780c390304,,,,,,,,,,,,,,,,,,,,,147.8531,147.8531,147.8546,149.0036,0,0,left,0.6224,,149.0053,149.0063,,1,,149.0073,149.0081,,0,,1,149.0082,149.0082,149.009,150.505,0,1,1,1,1,0.2,0.8,0.8,0.2,1,0,,,,,,,,,,,,,,,,,,,,,,,,,,,,,,,,,,,,
,,5c5fbade4cc94200016a5c15,66fc97b6736ae44b178e548f,2024-10-01_18h46.26.037,mdp,2024.2.1,Win32,59.88023952,66fa4ebf79326e780c390304,,,,,,,,,,,,,,,,,,,,,150.5057,150.5058,150.5079,152.0401,0,1,left,1.007,,152.0417,152.0426,,0,,152.0436,152.0444,,1,,0,152.0444,152.0444,152.0452,153.5416,0,2,2,2,1,0.2,0.8,0.8,0.2,1,0,,,,,,,,,,,,,,,,,,,,,,,,,,,,,,,,,,,,
,,5c5fbade4cc94200016a5c15,66fc97b6736ae44b178e548f,2024-10-01_18h46.26.037,mdp,2024.2.1,Win32,59.88023952,66fa4ebf79326e780c390304,,,,,,,,,,,,,,,,,,,,,153.5421,153.5421,153.5439,156.2449,0,1,left,2.1864,,156.2462,156.2471,,0,,156.248,156.2488,,1,,0,156.2488,156.2488,156.2495,157.7463,0,3,3,3,1,0.2,0.8,0.8,0.2,1,0,,,,,,,,,,,,,,,,,,,,,,,,,,,,,,,,,,,,
,,5c5fbade4cc94200016a5c15,66fc97b6736ae44b178e548f,2024-10-01_18h46.26.037,mdp,2024.2.1,Win32,59.88023952,66fa4ebf79326e780c390304,,,,,,,,,,,,,,,,,,,,,157.7469,157.7469,157.7488,158.8809,1,0,right,0.6017,,158.8824,158.8833,,1,,158.8843,158.8852,,0,,1,158.8853,158.8853,158.8862,160.3826,0,4,4,4,1,0.2,0.8,0.8,0.2,1,0,,,,,,,,,,,,,,,,,,,,,,,,,,,,,,,,,,,,
,,5c5fbade4cc94200016a5c15,66fc97b6736ae44b178e548f,2024-10-01_18h46.26.037,mdp,2024.2.1,Win32,59.88023952,66fa4ebf79326e780c390304,,,,,,,,,,,,,,,,,,,,,160.3831,160.3831,160.3852,161.5508,1,0,right,0.6349,,161.5531,161.5542,,0,,161.5553,161.5562,,0,,1,161.5563,161.5563,161.557,163.0521,0,5,5,5,1,0.2,0.8,0.8,0.2,1,0,,,,,,,,,,,,,,,,,,,,,,,,,,,,,,,,,,,,
,,5c5fbade4cc94200016a5c15,66fc97b6736ae44b178e548f,2024-10-01_18h46.26.037,mdp,2024.2.1,Win32,59.88023952,66fa4ebf79326e780c390304,,,,,,,,,,,,,,,,,,,,,163.0526,163.0527,163.0545,164.1367,1,0,right,0.5608,,164.138,164.139,,0,,164.1399,164.1408,,0,,1,164.1408,164.1408,164.1415,165.6382,0,6,6,6,1,0.2,0.8,0.8,0.2,1,0,,,,,,,,,,,,,,,,,,,,,,,,,,,,,,,,,,,,
,,5c5fbade4cc94200016a5c15,66fc97b6736ae44b178e548f,2024-10-01_18h46.26.037,mdp,2024.2.1,Win32,59.88023952,66fa4ebf79326e780c390304,,,,,,,,,,,,,,,,,,,,,165.6386,165.6386,165.6405,166.8731,1,0,right,0.7096,,166.8751,166.876,,0,,166.8769,166.8776,,1,,1,166.8776,166.8777,166.8783,168.3746,0,7,7,7,1,0.6,0.4,0.4,0.6,1,0,,,,,,,,,,,,,,,,,,,,,,,,,,,,,,,,,,,,
,,5c5fbade4cc94200016a5c15,66fc97b6736ae44b178e548f,2024-10-01_18h46.26.037,mdp,2024.2.1,Win32,59.88023952,66fa4ebf79326e780c390304,,,,,,,,,,,,,,,,,,,,,168.375,168.3751,168.3768,169.3424,1,1,right,0.4413,,169.3438,169.3447,,1,,169.3456,169.3464,,1,,0,169.3465,169.3466,169.3473,170.8439,0,8,8,8,1,0.6,0.4,0.4,0.6,1,0,,,,,,,,,,,,,,,,,,,,,,,,,,,,,,,,,,,,
,,5c5fbade4cc94200016a5c15,66fc97b6736ae44b178e548f,2024-10-01_18h46.26.037,mdp,2024.2.1,Win32,59.88023952,66fa4ebf79326e780c390304,,,,,,,,,,,,,,,,,,,,,170.8443,170.8444,170.8461,171.9952,0,1,left,0.6221,,171.9967,171.9978,,0,,171.9989,171.9996,,0,,0,171.9997,171.9997,172.0004,173.4969,0,9,9,9,1,0.6,0.4,0.4,0.6,1,0,,,,,,,,,,,,,,,,,,,,,,,,,,,,,,,,,,,,
,,5c5fbade4cc94200016a5c15,66fc97b6736ae44b178e548f,2024-10-01_18h46.26.037,mdp,2024.2.1,Win32,59.88023952,66fa4ebf79326e780c390304,,,,,,,,,,,,,,,,,,,,,173.4975,173.4975,173.4993,174.4981,1,0,right,0.4678,,174.4996,174.5005,,1,,174.5016,174.5022,,0,,1,174.5023,174.5023,174.503,175.9996,0,10,10,10,1,0.6,0.4,0.4,0.6,1,0,,,,,,,,,,,,,,,,,,,,,,,,,,,,,,,,,,,,
,,5c5fbade4cc94200016a5c15,66fc97b6736ae44b178e548f,2024-10-01_18h46.26.037,mdp,2024.2.1,Win32,59.88023952,66fa4ebf79326e780c390304,,,,,,,,,,,,,,,,,,,,,176.0003,176.0003,176.002,177.0175,0,0,left,0.4841,,177.0191,177.02,,0,,177.0209,177.0218,,0,,1,177.0218,177.0218,177.0229,178.5189,0,11,11,11,1,0.6,0.4,0.4,0.6,1,0,,,,,,,,,,,,,,,,,,,,,,,,,,,,,,,,,,,,
,,5c5fbade4cc94200016a5c15,66fc97b6736ae44b178e548f,2024-10-01_18h46.26.037,mdp,2024.2.1,Win32,59.88023952,66fa4ebf79326e780c390304,,,,,,,,,,,,,,,,,,,,,178.5194,178.5194,178.521,179.7037,1,1,right,0.6694,,179.7052,179.7061,,1,,179.7071,179.7085,,0,,0,179.7085,179.7085,179.7094,181.2052,0,12,12,12,1,0.6,0.4,0.4,0.6,1,0,,,,,,,,,,,,,,,,,,,,,,,,,,,,,,,,,,,,
,,5c5fbade4cc94200016a5c15,66fc97b6736ae44b178e548f,2024-10-01_18h46.26.037,mdp,2024.2.1,Win32,59.88023952,66fa4ebf79326e780c390304,,,,,,,,,,,,,,,,,,,,,181.2057,181.2057,181.207,182.2731,0,0,left,0.5407,,182.2749,182.276,,1,,182.2771,182.2778,,0,,1,182.2779,182.2779,182.2787,183.775,0,13,13,13,1,0.6,0.4,0.4,0.6,1,0,,,,,,,,,,,,,,,,,,,,,,,,,,,,,,,,,,,,
,,5c5fbade4cc94200016a5c15,66fc97b6736ae44b178e548f,2024-10-01_18h46.26.037,mdp,2024.2.1,Win32,59.88023952,66fa4ebf79326e780c390304,,,,,,,,,,,,,,,,,,,,,183.7756,183.7756,183.777,185.8438,0,0,left,1.5355,,185.8456,185.8469,,0,,185.8483,185.8494,,0,,1,185.8495,185.8495,185.8506,187.3452,0,14,14,14,1,0.6,0.4,0.4,0.6,1,0,,,,,,,,,,,,,,,,,,,,,,,,,,,,,,,,,,,,
,,5c5fbade4cc94200016a5c15,66fc97b6736ae44b178e548f,2024-10-01_18h46.26.037,mdp,2024.2.1,Win32,59.88023952,66fa4ebf79326e780c390304,,,,,,,,,,,,,,,,,,,,,187.3457,187.3458,187.3471,188.8971,1,0,right,1.0392,,188.8985,188.8995,,1,,188.9006,188.9015,,1,,1,188.9016,188.9016,188.9025,190.3988,0,15,15,15,1,0.6,0.4,0.4,0.6,1,0,,,,,,,,,,,,,,,,,,,,,,,,,,,,,,,,,,,,
,,5c5fbade4cc94200016a5c15,66fc97b6736ae44b178e548f,2024-10-01_18h46.26.037,mdp,2024.2.1,Win32,59.88023952,66fa4ebf79326e780c390304,,,,,,,,,,,,,,,,,,,,,190.3993,190.3993,190.4007,191.9671,0,0,left,1.0365,,191.9691,191.97,,0,,191.9709,191.9717,,0,,1,191.9717,191.9717,191.9724,193.4686,0,16,16,16,1,0.6,0.4,0.4,0.6,1,0,,,,,,,,,,,,,,,,,,,,,,,,,,,,,,,,,,,,
,,5c5fbade4cc94200016a5c15,66fc97b6736ae44b178e548f,2024-10-01_18h46.26.037,mdp,2024.2.1,Win32,59.88023952,66fa4ebf79326e780c390304,,,,,,,,,,,,,,,,,,,,,193.4692,193.4692,193.4706,194.2365,0,1,left,0.2507,,194.2382,194.2394,,0,,194.2406,194.2417,,1,,0,194.2417,194.2417,194.2428,195.7378,0,17,17,17,1,0.6,0.4,0.4,0.6,1,0,,,,,,,,,,,,,,,,,,,,,,,,,,,,,,,,,,,,
,,5c5fbade4cc94200016a5c15,66fc97b6736ae44b178e548f,2024-10-01_18h46.26.037,mdp,2024.2.1,Win32,59.88023952,66fa4ebf79326e780c390304,,,,,,,,,,,,,,,,,,,,,195.7383,195.7383,195.7396,197.1728,1,1,right,0.9037,,197.1746,197.1754,,1,,197.1763,197.177,,1,,0,197.1771,197.1771,197.1783,198.6744,0,18,18,18,1,0.6,0.4,0.4,0.6,1,0,,,,,,,,,,,,,,,,,,,,,,,,,,,,,,,,,,,,
,,5c5fbade4cc94200016a5c15,66fc97b6736ae44b178e548f,2024-10-01_18h46.26.037,mdp,2024.2.1,Win32,59.88023952,66fa4ebf79326e780c390304,,,,,,,,,,,,,,,,,,,,,198.6749,198.6749,198.6764,199.8424,0,1,left,0.6407,,199.8438,199.8446,,1,,199.8456,199.8463,,1,,0,199.8463,199.8463,199.847,201.3439,0,19,19,19,1,0.2,0.8,0.6,0.4,1,0,,,,,,,,,,,,,,,,,,,,,,,,,,,,,,,,,,,,
,,5c5fbade4cc94200016a5c15,66fc97b6736ae44b178e548f,2024-10-01_18h46.26.037,mdp,2024.2.1,Win32,59.88023952,66fa4ebf79326e780c390304,,,,,,,,,,,,,,,,,,,,,201.3443,201.3444,201.3457,202.1615,0,1,left,0.2929,,202.163,202.164,,1,,202.1648,202.1656,,0,,0,202.1657,202.1658,202.1669,203.6633,0,20,20,20,1,0.2,0.8,0.6,0.4,1,0,,,,,,,,,,,,,,,,,,,,,,,,,,,,,,,,,,,,
,,5c5fbade4cc94200016a5c15,66fc97b6736ae44b178e548f,2024-10-01_18h46.26.037,mdp,2024.2.1,Win32,59.88023952,66fa4ebf79326e780c390304,,,,,,,,,,,,,,,,,,,,,203.6638,203.6638,203.6655,204.8814,0,1,left,0.6847,,204.883,204.8839,,1,,204.8848,204.8855,,0,,0,204.8856,204.8856,204.8864,206.3828,0,21,21,21,1,0.2,0.8,0.6,0.4,1,0,,,,,,,,,,,,,,,,,,,,,,,,,,,,,,,,,,,,
,,5c5fbade4cc94200016a5c15,66fc97b6736ae44b178e548f,2024-10-01_18h46.26.037,mdp,2024.2.1,Win32,59.88023952,66fa4ebf79326e780c390304,,,,,,,,,,,,,,,,,,,,,206.3832,206.3833,206.3847,207.3672,1,0,right,0.4761,,207.3689,207.3699,,0,,207.3707,207.3715,,0,,1,207.3716,207.3716,207.3724,208.8689,0,22,22,22,1,0.2,0.8,0.6,0.4,1,0,,,,,,,,,,,,,,,,,,,,,,,,,,,,,,,,,,,,
,,5c5fbade4cc94200016a5c15,66fc97b6736ae44b178e548f,2024-10-01_18h46.26.037,mdp,2024.2.1,Win32,59.88023952,66fa4ebf79326e780c390304,,,,,,,,,,,,,,,,,,,,,208.8693,208.8693,208.8706,209.9367,1,0,right,0.5544,,209.9382,209.939,,0,,209.9398,209.9405,,1,,1,209.9405,209.9405,209.9412,211.4383,0,23,23,23,1,0.2,0.8,0.6,0.4,1,0,,,,,,,,,,,,,,,,,,,,,,,,,,,,,,,,,,,,
,,5c5fbade4cc94200016a5c15,66fc97b6736ae44b178e548f,2024-10-01_18h46.26.037,mdp,2024.2.1,Win32,59.88023952,66fa4ebf79326e780c390304,,,,,,,,,,,,,,,,,,,,,211.4387,211.4387,211.4402,212.6898,0,0,left,0.7344,,212.6914,212.6923,,0,,212.6935,212.6945,,0,,1,212.6945,212.6945,212.6953,214.1914,0,24,24,24,1,0.8,0.2,0.2,0.8,1,0,,,,,,,,,,,,,,,,,,,,,,,,,,,,,,,,,,,,
,,5c5fbade4cc94200016a5c15,66fc97b6736ae44b178e548f,2024-10-01_18h46.26.037,mdp,2024.2.1,Win32,59.88023952,66fa4ebf79326e780c390304,,,,,,,,,,,,,,,,,,,,,214.192,214.1921,214.1934,215.3093,1,1,right,0.5941,,215.3107,215.3115,,1,,215.3125,215.3131,,1,,0,215.3131,215.3131,215.3138,216.8109,0,25,25,25,1,0.8,0.2,0.2,0.8,1,0,,,,,,,,,,,,,,,,,,,,,,,,,,,,,,,,,,,,
,,5c5fbade4cc94200016a5c15,66fc97b6736ae44b178e548f,2024-10-01_18h46.26.037,mdp,2024.2.1,Win32,59.88023952,66fa4ebf79326e780c390304,,,,,,,,,,,,,,,,,,,,,216.8115,216.8115,216.8129,217.8455,0,0,left,0.5009,,217.847,217.8479,,1,,217.8487,217.8494,,0,,1,217.8494,217.8494,217.8503,219.3471,0,26,26,26,1,0.8,0.2,0.2,0.8,1,0,,,,,,,,,,,,,,,,,,,,,,,,,,,,,,,,,,,,
,,5c5fbade4cc94200016a5c15,66fc97b6736ae44b178e548f,2024-10-01_18h46.26.037,mdp,2024.2.1,Win32,59.88023952,66fa4ebf79326e780c390304,,,,,,,,,,,,,,,,,,,,,219.3476,219.3476,219.3491,220.8321,0,1,left,0.9516,,220.8339,220.835,,0,,220.836,220.8369,,1,,0,220.837,220.837,220.8378,222.3335,0,27,27,27,1,0.8,0.2,0.2,0.8,1,0,,,,,,,,,,,,,,,,,,,,,,,,,,,,,,,,,,,,
,,5c5fbade4cc94200016a5c15,66fc97b6736ae44b178e548f,2024-10-01_18h46.26.037,mdp,2024.2.1,Win32,59.88023952,66fa4ebf79326e780c390304,,,,,,,,,,,,,,,,,,,,,222.334,222.334,222.3353,223.435,1,1,right,0.5892,,223.4363,223.4371,,0,,223.438,223.4387,,1,,0,223.4388,223.4388,223.4395,224.9365,0,28,28,28,1,0.8,0.2,0.2,0.8,1,0,,,,,,,,,,,,,,,,,,,,,,,,,,,,,,,,,,,,
,,5c5fbade4cc94200016a5c15,66fc97b6736ae44b178e548f,2024-10-01_18h46.26.037,mdp,2024.2.1,Win32,59.88023952,66fa4ebf79326e780c390304,,,,,,,,,,,,,,,,,,,,,224.937,224.937,224.9382,226.0711,1,0,right,0.6043,,226.0726,226.0734,,1,,226.0747,226.0757,,0,,1,226.0758,226.0758,226.0766,227.5727,0,29,29,29,1,0.8,0.2,0.2,0.8,1,0,,,,,,,,,,,,,,,,,,,,,,,,,,,,,,,,,,,,
,,5c5fbade4cc94200016a5c15,66fc97b6736ae44b178e548f,2024-10-01_18h46.26.037,mdp,2024.2.1,Win32,59.88023952,66fa4ebf79326e780c390304,,,,,,,,,,,,,,,,,,,,,227.5732,227.5732,227.5747,229.1244,1,1,right,1.018,,229.1258,229.1269,,1,,229.1278,229.1286,,1,,0,229.1287,229.1287,229.1294,230.6259,0,30,30,30,1,0.8,0.2,0.2,0.8,1,0,,,,,,,,,,,,,,,,,,,,,,,,,,,,,,,,,,,,
,,5c5fbade4cc94200016a5c15,66fc97b6736ae44b178e548f,2024-10-01_18h46.26.037,mdp,2024.2.1,Win32,59.88023952,66fa4ebf79326e780c390304,,,,,,,,,,,,,,,,,,,,,230.6264,230.6264,230.6278,231.8441,0,1,left,0.7011,,231.8455,231.8463,,0,,231.8472,231.8478,,1,,0,231.8479,231.8479,231.8487,233.3456,0,31,31,31,1,0.8,0.2,0.2,0.8,1,0,,,,,,,,,,,,,,,,,,,,,,,,,,,,,,,,,,,,
,,5c5fbade4cc94200016a5c15,66fc97b6736ae44b178e548f,2024-10-01_18h46.26.037,mdp,2024.2.1,Win32,59.88023952,66fa4ebf79326e780c390304,,,,,,,,,,,,,,,,,,,,,233.346,233.346,233.3475,234.3469,0,0,left,0.468,,234.3487,234.3496,,0,,234.3504,234.3512,,0,,1,234.3512,234.3512,234.3521,235.8484,0,32,32,32,1,0.8,0.2,0.2,0.8,1,0,,,,,,,,,,,,,,,,,,,,,,,,,,,,,,,,,,,,
,,5c5fbade4cc94200016a5c15,66fc97b6736ae44b178e548f,2024-10-01_18h46.26.037,mdp,2024.2.1,Win32,59.88023952,66fa4ebf79326e780c390304,,,,,,,,,,,,,,,,,,,,,235.849,235.8491,235.8503,236.9831,0,1,left,0.6012,,236.9845,236.9852,,1,,236.9862,236.9868,,0,,0,236.9868,236.9868,236.9875,238.4846,0,33,33,33,1,0.4,0.6,0.6,0.4,1,0,,,,,,,,,,,,,,,,,,,,,,,,,,,,,,,,,,,,
,,5c5fbade4cc94200016a5c15,66fc97b6736ae44b178e548f,2024-10-01_18h46.26.037,mdp,2024.2.1,Win32,59.88023952,66fa4ebf79326e780c390304,,,,,,,,,,,,,,,,,,,,,238.4851,238.4851,238.4864,239.736,1,0,right,0.718,,239.7374,239.7383,,0,,239.7391,239.7398,,1,,1,239.7399,239.7399,239.7405,241.2376,0,34,34,34,1,0.4,0.6,0.6,0.4,1,0,,,,,,,,,,,,,,,,,,,,,,,,,,,,,,,,,,,,
,,5c5fbade4cc94200016a5c15,66fc97b6736ae44b178e548f,2024-10-01_18h46.26.037,mdp,2024.2.1,Win32,59.88023952,66fa4ebf79326e780c390304,,,,,,,,,,,,,,,,,,,,,241.238,241.238,241.2394,242.5058,1,1,right,0.7546,,242.5072,242.508,,1,,242.5089,242.5098,,0,,0,242.5098,242.5098,242.5106,244.0073,0,35,35,35,1,0.4,0.6,0.6,0.4,1,0,,,,,,,,,,,,,,,,,,,,,,,,,,,,,,,,,,,,
,,5c5fbade4cc94200016a5c15,66fc97b6736ae44b178e548f,2024-10-01_18h46.26.037,mdp,2024.2.1,Win32,59.88023952,66fa4ebf79326e780c390304,,,,,,,,,,,,,,,,,,,,,244.0077,244.0077,244.0091,246.8772,1,1,right,2.3533,,246.8787,246.8795,,0,,246.8807,246.8816,,0,,0,246.8817,246.8817,246.8825,248.3787,0,36,36,36,1,0.4,0.6,0.6,0.4,1,0,,,,,,,,,,,,,,,,,,,,,,,,,,,,,,,,,,,,
,,5c5fbade4cc94200016a5c15,66fc97b6736ae44b178e548f,2024-10-01_18h46.26.037,mdp,2024.2.1,Win32,59.88023952,66fa4ebf79326e780c390304,,,,,,,,,,,,,,,,,,,,,248.3791,248.3791,248.3804,249.5134,1,0,right,0.625,,249.5148,249.5157,,0,,249.5165,249.5172,,0,,1,249.5172,249.5172,249.518,251.015,0,37,37,37,1,0.2,0.8,0.8,0.2,1,0,,,,,,,,,,,,,,,,,,,,,,,,,,,,,,,,,,,,
,,5c5fbade4cc94200016a5c15,66fc97b6736ae44b178e548f,2024-10-01_18h46.26.037,mdp,2024.2.1,Win32,59.88023952,66fa4ebf79326e780c390304,,,,,,,,,,,,,,,,,,,,,251.0154,251.0154,251.0167,252.4167,1,0,right,0.8844,,252.4181,252.4193,,0,,252.4203,252.421,,0,,1,252.421,252.421,252.4217,253.9182,0,38,38,38,1,0.2,0.8,0.8,0.2,1,0,,,,,,,,,,,,,,,,,,,,,,,,,,,,,,,,,,,,
,,5c5fbade4cc94200016a5c15,66fc97b6736ae44b178e548f,2024-10-01_18h46.26.037,mdp,2024.2.1,Win32,59.88023952,66fa4ebf79326e780c390304,,,,,,,,,,,,,,,,,,,,,253.9188,253.9188,253.9202,254.9861,0,0,left,0.5346,,254.9874,254.9883,,0,,254.9894,254.9901,,1,,1,254.9901,254.9902,254.9908,256.4876,0,39,39,39,1,0.8,0.2,0.4,0.6,1,0,,,,,,,,,,,,,,,,,,,,,,,,,,,,,,,,,,,,
,,5c5fbade4cc94200016a5c15,66fc97b6736ae44b178e548f,2024-10-01_18h46.26.037,mdp,2024.2.1,Win32,59.88023952,66fa4ebf79326e780c390304,,,,,,,,,,,,,,,,,,,,,256.4881,256.4881,256.4911,258.0227,0,1,left,1.0233,,258.0241,258.025,,1,,258.0259,258.0266,,1,,0,258.0266,258.0266,258.0273,259.5242,0,40,40,40,1,0.4,0.6,0.8,0.2,1,0,,,,,,,,,,,,,,,,,,,,,,,,,,,,,,,,,,,,
,,5c5fbade4cc94200016a5c15,66fc97b6736ae44b178e548f,2024-10-01_18h46.26.037,mdp,2024.2.1,Win32,59.88023952,66fa4ebf79326e780c390304,,,,,,,,,,,,,,,,,,,,,259.5247,259.5247,259.5263,260.7424,1,1,right,0.701,,260.7438,260.7446,,1,,260.7457,260.7465,,0,,0,260.7465,260.7465,260.7472,262.244,0,41,41,41,1,0.8,0.2,0.2,0.8,1,0,,,,,,,,,,,,,,,,,,,,,,,,,,,,,,,,,,,,
,,5c5fbade4cc94200016a5c15,66fc97b6736ae44b178e548f,2024-10-01_18h46.26.037,mdp,2024.2.1,Win32,59.88023952,66fa4ebf79326e780c390304,,,,,,,,,,,,,,,,,,,,,262.2445,262.2445,262.2459,262.9115,0,0,left,0.152,,262.9129,262.9138,,0,,262.9147,262.9153,,0,,1,262.9154,262.9154,262.9162,264.4129,0,42,42,42,1,0.8,0.2,0.2,0.8,1,0,,,,,,,,,,,,,,,,,,,,,,,,,,,,,,,,,,,,
,,5c5fbade4cc94200016a5c15,66fc97b6736ae44b178e548f,2024-10-01_18h46.26.037,mdp,2024.2.1,Win32,59.88023952,66fa4ebf79326e780c390304,,,,,,,,,,,,,,,,,,,,,264.4134,264.4134,264.4147,265.3144,0,0,left,0.3738,,265.316,265.3168,,0,,265.3176,265.3183,,0,,1,265.3183,265.3183,265.319,266.8157,0,43,43,43,1,0.8,0.2,0.2,0.8,1,0,,,,,,,,,,,,,,,,,,,,,,,,,,,,,,,,,,,,
,,5c5fbade4cc94200016a5c15,66fc97b6736ae44b178e548f,2024-10-01_18h46.26.037,mdp,2024.2.1,Win32,59.88023952,66fa4ebf79326e780c390304,,,,,,,,,,,,,,,,,,,,,266.8162,266.8162,266.8174,267.8168,1,1,right,0.4696,,267.8183,267.8191,,0,,267.8199,267.8205,,1,,0,267.8206,267.8206,267.8213,269.3184,0,44,44,44,1,0.8,0.2,0.2,0.8,1,0,,,,,,,,,,,,,,,,,,,,,,,,,,,,,,,,,,,,
,,5c5fbade4cc94200016a5c15,66fc97b6736ae44b178e548f,2024-10-01_18h46.26.037,mdp,2024.2.1,Win32,59.88023952,66fa4ebf79326e780c390304,,,,,,,,,,,,,,,,,,,,,269.3188,269.3188,269.3202,270.2695,0,1,left,0.4344,,270.271,270.2717,,0,,270.2725,270.2731,,0,,0,270.2732,270.2732,270.2738,271.771,0,45,45,45,1,0.8,0.2,0.2,0.8,1,0,,,,,,,,,,,,,,,,,,,,,,,,,,,,,,,,,,,,
,,5c5fbade4cc94200016a5c15,66fc97b6736ae44b178e548f,2024-10-01_18h46.26.037,mdp,2024.2.1,Win32,59.88023952,66fa4ebf79326e780c390304,,,,,,,,,,,,,,,,,,,,,271.7716,271.7716,271.7731,272.7056,1,1,right,0.401,,272.7069,272.7076,,0,,272.7085,272.7092,,0,,0,272.7092,272.7093,272.71,274.207,0,46,46,46,1,0.8,0.2,0.2,0.8,1,0,,,,,,,,,,,,,,,,,,,,,,,,,,,,,,,,,,,,
,,5c5fbade4cc94200016a5c15,66fc97b6736ae44b178e548f,2024-10-01_18h46.26.037,mdp,2024.2.1,Win32,59.88023952,66fa4ebf79326e780c390304,,,,,,,,,,,,,,,,,,,,,274.2077,274.2077,274.2091,275.1915,1,1,right,0.4509,,275.1928,275.1936,,1,,275.1945,275.1951,,1,,0,275.1952,275.1952,275.1958,276.6931,0,47,47,47,1,0.8,0.2,0.2,0.8,1,0,,,,,,,,,,,,,,,,,,,,,,,,,,,,,,,,,,,,
,,5c5fbade4cc94200016a5c15,66fc97b6736ae44b178e548f,2024-10-01_18h46.26.037,mdp,2024.2.1,Win32,59.88023952,66fa4ebf79326e780c390304,,,,,,,,,,,,,,,,,,,,,276.6935,276.6935,276.6948,277.494,1,0,right,0.2732,,277.4954,277.4962,,1,,277.4971,277.4979,,1,,1,277.4979,277.4979,277.4987,278.9955,0,48,48,48,1,0.8,0.2,0.2,0.8,1,0,,,,,,,,,,,,,,,,,,,,,,,,,,,,,,,,,,,,
,,5c5fbade4cc94200016a5c15,66fc97b6736ae44b178e548f,2024-10-01_18h46.26.037,mdp,2024.2.1,Win32,59.88023952,66fa4ebf79326e780c390304,,,,,,,,,,,,,,,,,,,,,278.996,278.996,278.9972,280.3639,1,0,right,0.8435,,280.3654,280.3665,,1,,280.3676,280.3685,,1,,1,280.3686,280.3686,280.3694,281.8655,0,49,49,49,1,0.8,0.2,0.2,0.8,1,0,,,,,,,,,,,,,,,,,,,,,,,,,,,,,,,,,,,,
,,5c5fbade4cc94200016a5c15,66fc97b6736ae44b178e548f,2024-10-01_18h46.26.037,mdp,2024.2.1,Win32,59.88023952,66fa4ebf79326e780c390304,,,,,,,,,,,,,,,,,,,,,,,,,,,,,,,,,,,,,,,,,,,,,,,,,,,,,,,,281.866,322.9121,0,0,0,6,1,imgs/kangaroo.png,imgs/dog.png,imgs/giraffe.png,imgs/rabbit.png,imgs/squirrel.png,,,,,,,,,,,,,,,,,,,,,,,,
,,5c5fbade4cc94200016a5c15,66fc97b6736ae44b178e548f,2024-10-01_18h46.26.037,mdp,2024.2.1,Win32,59.88023952,66fa4ebf79326e780c390304,,,,,,,,,,,,,,2,seqs/st2seq13.csv,322.9347,324.6624,space,1.2023,,324.6712,324.6713,324.6724,326.5311,0,1,left,1.3239,,326.5329,328.2832,0,1,left,328.285,328.286,,1,,0,328.2861,328.2861,328.2871,329.7844,0,0,0,0,1,0.2,0.8,0.8,0.2,,,,,,,,,,,,,,,1.2217,,0.8,0.2,0.2,0.8,0.2,0.8,0.2,0.8,1,0,,,,,,,,,,,,
,,5c5fbade4cc94200016a5c15,66fc97b6736ae44b178e548f,2024-10-01_18h46.26.037,mdp,2024.2.1,Win32,59.88023952,66fa4ebf79326e780c390304,,,,,,,,,,,,,,,,,,,,,329.785,329.785,329.7868,331.1196,1,0,right,0.8016,,331.1211,332.4377,1,1,right,332.4394,332.4403,,1,,0,332.4404,332.4404,332.4415,333.939,0,1,1,1,1,0.2,0.8,0.8,0.2,,,,,,,,,,,,,,,0.7879,,0.8,0.2,0.2,0.8,0.2,0.8,0.2,0.8,1,0,,,,,,,,,,,,
,,5c5fbade4cc94200016a5c15,66fc97b6736ae44b178e548f,2024-10-01_18h46.26.037,mdp,2024.2.1,Win32,59.88023952,66fa4ebf79326e780c390304,,,,,,,,,,,,,,,,,,,,,333.9395,333.9395,333.9407,334.9071,0,0,left,0.4536,,334.9091,336.2418,1,1,right,336.2431,336.2438,,1,,0,336.2439,336.2439,336.2449,337.7432,0,2,2,2,1,0.2,0.8,0.8,0.2,,,,,,,,,,,,,,,0.8255,,0.8,0.2,0.2,0.8,0.2,0.8,0.2,0.8,1,0,,,,,,,,,,,,
,,5c5fbade4cc94200016a5c15,66fc97b6736ae44b178e548f,2024-10-01_18h46.26.037,mdp,2024.2.1,Win32,59.88023952,66fa4ebf79326e780c390304,,,,,,,,,,,,,,,,,,,,,337.7438,337.7438,337.745,338.661,0,1,left,0.3837,,338.6623,339.8959,0,0,left,339.8974,339.8982,,1,,1,339.8983,339.8983,339.8992,341.3972,0,3,3,3,1,0.2,0.8,0.8,0.2,,,,,,,,,,,,,,,0.7125,,0.8,0.2,0.2,0.8,0.2,0.8,0.2,0.8,1,0,,,,,,,,,,,,
,,5c5fbade4cc94200016a5c15,66fc97b6736ae44b178e548f,2024-10-01_18h46.26.037,mdp,2024.2.1,Win32,59.88023952,66fa4ebf79326e780c390304,,,,,,,,,,,,,,,,,,,,,341.3979,341.3979,341.3995,342.4486,0,1,left,0.5178,,342.4501,343.7832,0,1,left,343.7847,343.7855,,0,,0,343.7855,343.7855,343.7863,345.2848,0,4,4,4,1,0.2,0.8,0.8,0.2,,,,,,,,,,,,,,,0.8181,,0.8,0.2,0.2,0.8,0.2,0.8,0.2,0.8,1,0,,,,,,,,,,,,
,,5c5fbade4cc94200016a5c15,66fc97b6736ae44b178e548f,2024-10-01_18h46.26.037,mdp,2024.2.1,Win32,59.88023952,66fa4ebf79326e780c390304,,,,,,,,,,,,,,,,,,,,,345.2853,345.2853,345.2866,346.3695,0,1,left,0.5676,,346.371,347.4038,0,1,left,347.4052,347.4065,,1,,0,347.4065,347.4065,347.4074,348.9054,0,5,5,5,1,0.2,0.8,0.8,0.2,,,,,,,,,,,,,,,0.5237,,0.8,0.2,0.2,0.8,0.2,0.8,0.2,0.8,1,0,,,,,,,,,,,,
,,5c5fbade4cc94200016a5c15,66fc97b6736ae44b178e548f,2024-10-01_18h46.26.037,mdp,2024.2.1,Win32,59.88023952,66fa4ebf79326e780c390304,,,,,,,,,,,,,,,,,,,,,348.9059,348.9059,348.9075,349.8899,0,0,left,0.4666,,349.8914,350.9245,0,0,left,350.9259,350.9267,,0,,1,350.9267,350.9267,350.9275,352.4261,0,6,6,6,1,0.2,0.8,0.8,0.2,,,,,,,,,,,,,,,0.5108,,0.8,0.2,0.2,0.8,0.2,0.8,0.2,0.8,1,0,,,,,,,,,,,,
,,5c5fbade4cc94200016a5c15,66fc97b6736ae44b178e548f,2024-10-01_18h46.26.037,mdp,2024.2.1,Win32,59.88023952,66fa4ebf79326e780c390304,,,,,,,,,,,,,,,,,,,,,352.4266,352.4266,352.4279,353.3438,0,1,left,0.3875,,353.3453,354.3114,1,1,right,354.3129,354.3136,,1,,0,354.3137,354.3137,354.3145,355.813,0,7,7,7,1,0.2,0.8,0.8,0.2,,,,,,,,,,,,,,,0.4535,,0.8,0.2,0.2,0.8,0.2,0.8,0.2,0.8,1,0,,,,,,,,,,,,
,,5c5fbade4cc94200016a5c15,66fc97b6736ae44b178e548f,2024-10-01_18h46.26.037,mdp,2024.2.1,Win32,59.88023952,66fa4ebf79326e780c390304,,,,,,,,,,,,,,,,,,,,,355.8135,355.8135,355.8148,357.2146,0,1,left,0.8738,,357.216,358.4827,0,1,left,358.4841,358.4849,,1,,0,358.4849,358.4849,358.4856,359.9843,0,8,8,8,1,0.2,0.8,0.8,0.2,,,,,,,,,,,,,,,0.7562,,0.8,0.2,0.2,0.8,0.2,0.8,0.2,0.8,1,0,,,,,,,,,,,,
,,5c5fbade4cc94200016a5c15,66fc97b6736ae44b178e548f,2024-10-01_18h46.26.037,mdp,2024.2.1,Win32,59.88023952,66fa4ebf79326e780c390304,,,,,,,,,,,,,,,,,,,,,359.9849,359.9849,359.9864,360.8353,0,1,left,0.3246,,360.8366,361.7029,1,0,right,361.7042,361.7051,,0,,1,361.7051,361.7051,361.7061,363.2045,0,9,9,9,1,0.2,0.8,0.8,0.2,,,,,,,,,,,,,,,0.3484,,0.8,0.2,0.2,0.8,0.6,0.4,0.6,0.4,1,0,,,,,,,,,,,,
,,5c5fbade4cc94200016a5c15,66fc97b6736ae44b178e548f,2024-10-01_18h46.26.037,mdp,2024.2.1,Win32,59.88023952,66fa4ebf79326e780c390304,,,,,,,,,,,,,,,,,,,,,363.2051,363.2051,363.2069,364.1222,1,0,right,0.3878,,364.1237,365.4237,1,1,right,365.425,365.4258,,1,,0,365.4258,365.4258,365.4267,366.9251,0,10,10,10,1,0.8,0.2,0.4,0.6,,,,,,,,,,,,,,,0.7802,,0.8,0.2,0.2,0.8,0.6,0.4,0.6,0.4,1,0,,,,,,,,,,,,
,,5c5fbade4cc94200016a5c15,66fc97b6736ae44b178e548f,2024-10-01_18h46.26.037,mdp,2024.2.1,Win32,59.88023952,66fa4ebf79326e780c390304,,,,,,,,,,,,,,,,,,,,,366.9256,366.9256,366.9273,369.2944,1,1,right,1.8605,,369.2958,371.1137,0,0,left,371.1155,371.1173,,0,,1,371.1174,371.1174,371.1187,372.6148,0,11,11,11,1,0.8,0.2,0.4,0.6,,,,,,,,,,,,,,,1.2972,,0.8,0.2,0.2,0.8,0.6,0.4,0.6,0.4,1,0,,,,,,,,,,,,
,,5c5fbade4cc94200016a5c15,66fc97b6736ae44b178e548f,2024-10-01_18h46.26.037,mdp,2024.2.1,Win32,59.88023952,66fa4ebf79326e780c390304,,,,,,,,,,,,,,,,,,,,,372.6153,372.6153,372.6167,373.9497,0,0,left,0.8089,,373.9514,375.0175,1,1,right,375.0189,375.0199,,1,,0,375.02,375.02,375.0212,376.519,0,12,12,12,1,0.8,0.2,0.4,0.6,,,,,,,,,,,,,,,0.5451,,0.8,0.2,0.2,0.8,0.6,0.4,0.6,0.4,1,0,,,,,,,,,,,,
,,5c5fbade4cc94200016a5c15,66fc97b6736ae44b178e548f,2024-10-01_18h46.26.037,mdp,2024.2.1,Win32,59.88023952,66fa4ebf79326e780c390304,,,,,,,,,,,,,,,,,,,,,376.5195,376.5195,376.5209,377.3702,0,1,left,0.319,,377.3716,378.9384,0,1,left,378.9401,378.9408,,0,,0,378.9409,378.9409,378.9417,380.4399,0,13,13,13,1,0.8,0.2,0.4,0.6,,,,,,,,,,,,,,,1.0481,,0.8,0.2,0.2,0.8,0.6,0.4,0.6,0.4,1,0,,,,,,,,,,,,
,,5c5fbade4cc94200016a5c15,66fc97b6736ae44b178e548f,2024-10-01_18h46.26.037,mdp,2024.2.1,Win32,59.88023952,66fa4ebf79326e780c390304,,,,,,,,,,,,,,,,,,,,,380.4404,380.4404,380.4418,381.3242,0,0,left,0.3545,,381.3261,382.2756,1,1,right,382.2772,382.2781,,1,,0,382.2782,382.2782,382.2792,383.7769,0,14,14,14,1,0.8,0.2,0.4,0.6,,,,,,,,,,,,,,,0.426,,0.8,0.2,0.2,0.8,0.6,0.4,0.6,0.4,1,0,,,,,,,,,,,,
,,5c5fbade4cc94200016a5c15,66fc97b6736ae44b178e548f,2024-10-01_18h46.26.037,mdp,2024.2.1,Win32,59.88023952,66fa4ebf79326e780c390304,,,,,,,,,,,,,,,,,,,,,383.7773,383.7774,383.7786,384.4444,0,1,left,0.1548,,384.4458,385.8793,0,1,left,385.8808,385.8815,,1,,0,385.8816,385.8816,385.8825,387.3808,0,15,15,15,1,0.8,0.2,0.4,0.6,,,,,,,,,,,,,,,0.9134,,0.8,0.2,0.2,0.8,0.6,0.4,0.6,0.4,1,0,,,,,,,,,,,,
,,5c5fbade4cc94200016a5c15,66fc97b6736ae44b178e548f,2024-10-01_18h46.26.037,mdp,2024.2.1,Win32,59.88023952,66fa4ebf79326e780c390304,,,,,,,,,,,,,,,,,,,,,387.3814,387.3814,387.3828,388.2319,0,1,left,0.3199,,388.2334,389.2164,1,0,right,389.2179,389.2186,,0,,1,389.2187,389.2187,389.2195,390.7179,0,16,16,16,1,0.8,0.2,0.4,0.6,,,,,,,,,,,,,,,0.4676,,0.8,0.2,0.2,0.8,0.6,0.4,0.6,0.4,1,0,,,,,,,,,,,,
,,5c5fbade4cc94200016a5c15,66fc97b6736ae44b178e548f,2024-10-01_18h46.26.037,mdp,2024.2.1,Win32,59.88023952,66fa4ebf79326e780c390304,,,,,,,,,,,,,,,,,,,,,390.7185,390.7185,390.72,391.7358,0,1,left,0.4886,,391.7371,393.2207,1,0,right,393.222,393.2228,,0,,1,393.2228,393.2228,393.2236,394.7222,0,17,17,17,1,0.6,0.4,0.2,0.8,,,,,,,,,,,,,,,0.9677,,0.8,0.2,0.2,0.8,0.6,0.4,0.6,0.4,1,0,,,,,,,,,,,,
,,5c5fbade4cc94200016a5c15,66fc97b6736ae44b178e548f,2024-10-01_18h46.26.037,mdp,2024.2.1,Win32,59.88023952,66fa4ebf79326e780c390304,,,,,,,,,,,,,,,,,,,,,394.7226,394.7226,394.7241,395.6737,0,1,left,0.4278,,395.6751,396.591,1,1,right,396.5924,396.5932,,0,,0,396.5933,396.5933,396.5941,398.0926,0,18,18,18,1,0.6,0.4,0.2,0.8,,,,,,,,,,,,,,,0.3907,,0.8,0.2,0.2,0.8,0.6,0.4,0.6,0.4,1,0,,,,,,,,,,,,
,,5c5fbade4cc94200016a5c15,66fc97b6736ae44b178e548f,2024-10-01_18h46.26.037,mdp,2024.2.1,Win32,59.88023952,66fa4ebf79326e780c390304,,,,,,,,,,,,,,,,,,,,,398.0931,398.0931,398.0943,398.6601,0,1,left,0.0417,,398.6618,399.8781,1,0,right,399.8797,399.8805,,0,,1,399.8805,399.8805,399.8814,401.3795,0,19,19,19,1,0.6,0.4,0.2,0.8,,,,,,,,,,,,,,,0.7072,,0.8,0.2,0.2,0.8,0.6,0.4,0.6,0.4,1,0,,,,,,,,,,,,
,,5c5fbade4cc94200016a5c15,66fc97b6736ae44b178e548f,2024-10-01_18h46.26.037,mdp,2024.2.1,Win32,59.88023952,66fa4ebf79326e780c390304,,,,,,,,,,,,,,,,,,,,,401.38,401.38,401.3813,402.314,0,0,left,0.4202,,402.3155,403.382,1,1,right,403.3834,403.3848,,1,,0,403.385,403.3851,403.3864,404.8835,0,20,20,20,1,0.6,0.4,0.2,0.8,,,,,,,,,,,,,,,0.5445,,0.8,0.2,0.2,0.8,0.6,0.4,0.6,0.4,1,0,,,,,,,,,,,,
,,5c5fbade4cc94200016a5c15,66fc97b6736ae44b178e548f,2024-10-01_18h46.26.037,mdp,2024.2.1,Win32,59.88023952,66fa4ebf79326e780c390304,,,,,,,,,,,,,,,,,,,,,404.8839,404.884,404.8854,405.6843,0,1,left,0.2769,,405.686,406.7522,0,1,left,406.7538,406.755,,1,,0,406.7551,406.7551,406.756,408.2538,0,21,21,21,1,0.6,0.4,0.2,0.8,,,,,,,,,,,,,,,0.5456,,0.8,0.2,0.2,0.8,0.6,0.4,0.6,0.4,1,0,,,,,,,,,,,,
,,5c5fbade4cc94200016a5c15,66fc97b6736ae44b178e548f,2024-10-01_18h46.26.037,mdp,2024.2.1,Win32,59.88023952,66fa4ebf79326e780c390304,,,,,,,,,,,,,,,,,,,,,408.2546,408.2546,408.2561,409.1048,0,0,left,0.3196,,409.1061,409.989,1,1,right,409.9905,409.9913,,1,,0,409.9913,409.9913,409.9921,411.4906,0,22,22,22,1,0.6,0.4,0.2,0.8,,,,,,,,,,,,,,,0.3656,,0.8,0.2,0.2,0.8,0.6,0.4,0.6,0.4,1,0,,,,,,,,,,,,
,,5c5fbade4cc94200016a5c15,66fc97b6736ae44b178e548f,2024-10-01_18h46.26.037,mdp,2024.2.1,Win32,59.88023952,66fa4ebf79326e780c390304,,,,,,,,,,,,,,,,,,,,,411.4911,411.4911,411.4923,412.4585,0,0,left,0.46,,412.4598,413.593,0,0,left,413.5944,413.5952,,1,,1,413.5953,413.5953,413.5961,415.0945,0,23,23,23,1,0.6,0.4,0.2,0.8,,,,,,,,,,,,,,,0.6179,,0.8,0.2,0.2,0.8,0.6,0.4,0.6,0.4,1,0,,,,,,,,,,,,
,,5c5fbade4cc94200016a5c15,66fc97b6736ae44b178e548f,2024-10-01_18h46.26.037,mdp,2024.2.1,Win32,59.88023952,66fa4ebf79326e780c390304,,,,,,,,,,,,,,,,,,,,,415.095,415.0951,415.0964,416.1291,0,1,left,0.5008,,416.1306,417.3471,1,0,right,417.3485,417.3494,,1,,1,417.3494,417.3494,417.3502,418.8486,0,24,24,24,1,0.6,0.4,0.2,0.8,,,,,,,,,,,,,,,0.696,,0.8,0.2,0.2,0.8,0.6,0.4,0.6,0.4,1,0,,,,,,,,,,,,
,,5c5fbade4cc94200016a5c15,66fc97b6736ae44b178e548f,2024-10-01_18h46.26.037,mdp,2024.2.1,Win32,59.88023952,66fa4ebf79326e780c390304,,,,,,,,,,,,,,,,,,,,,418.8491,418.8491,418.8504,419.8332,0,0,left,0.451,,419.8345,421.2849,1,1,right,421.2869,421.2877,,1,,0,421.2877,421.2877,421.2886,422.7863,0,25,25,25,1,0.6,0.4,0.2,0.8,,,,,,,,,,,,,,,0.9376,,0.8,0.2,0.2,0.8,0.6,0.4,0.6,0.4,1,0,,,,,,,,,,,,
,,5c5fbade4cc94200016a5c15,66fc97b6736ae44b178e548f,2024-10-01_18h46.26.037,mdp,2024.2.1,Win32,59.88023952,66fa4ebf79326e780c390304,,,,,,,,,,,,,,,,,,,,,422.7869,422.7869,422.7884,423.3036,0,1,left,0.0004,,423.3052,424.6218,1,1,right,424.6234,424.6244,,1,,0,424.6244,424.6244,424.6253,426.1232,0,26,26,26,1,0.6,0.4,0.2,0.8,,,,,,,,,,,,,,,0.7963,,0.8,0.2,0.2,0.8,0.6,0.4,0.6,0.4,1,0,,,,,,,,,,,,
,,5c5fbade4cc94200016a5c15,66fc97b6736ae44b178e548f,2024-10-01_18h46.26.037,mdp,2024.2.1,Win32,59.88023952,66fa4ebf79326e780c390304,,,,,,,,,,,,,,,,,,,,,426.1236,426.1236,426.1254,426.6572,0,1,left,0.0254,,426.6586,428.0422,0,0,left,428.0436,428.0444,,0,,1,428.0445,428.0445,428.0453,429.5438,0,27,27,27,1,0.6,0.4,0.2,0.8,,,,,,,,,,,,,,,0.8703,,0.8,0.2,0.2,0.8,0.6,0.4,0.6,0.4,1,0,,,,,,,,,,,,
,,5c5fbade4cc94200016a5c15,66fc97b6736ae44b178e548f,2024-10-01_18h46.26.037,mdp,2024.2.1,Win32,59.88023952,66fa4ebf79326e780c390304,,,,,,,,,,,,,,,,,,,,,429.5442,429.5442,429.5456,431.1289,1,1,right,1.0773,,431.1303,432.2134,1,0,right,432.2151,432.2157,,1,,1,432.2159,432.2159,432.2166,433.7151,0,28,28,28,1,0.6,0.4,0.2,0.8,,,,,,,,,,,,,,,0.5683,,0.8,0.2,0.2,0.8,0.6,0.4,0.6,0.4,1,0,,,,,,,,,,,,
,,5c5fbade4cc94200016a5c15,66fc97b6736ae44b178e548f,2024-10-01_18h46.26.037,mdp,2024.2.1,Win32,59.88023952,66fa4ebf79326e780c390304,,,,,,,,,,,,,,,,,,,,,433.7157,433.7157,433.717,434.6661,0,0,left,0.4175,,434.6676,435.6838,0,1,left,435.6855,435.6862,,0,,0,435.6862,435.6862,435.6871,437.1855,0,29,29,29,1,0.6,0.4,0.2,0.8,,,,,,,,,,,,,,,0.4959,,0.8,0.2,0.2,0.8,0.6,0.4,0.6,0.4,1,0,,,,,,,,,,,,
,,5c5fbade4cc94200016a5c15,66fc97b6736ae44b178e548f,2024-10-01_18h46.26.037,mdp,2024.2.1,Win32,59.88023952,66fa4ebf79326e780c390304,,,,,,,,,,,,,,,,,,,,,437.1859,437.1859,437.1875,439.3712,1,1,right,1.6523,,439.3726,440.6559,0,1,left,440.6573,440.6581,,1,,0,440.6581,440.6581,440.6591,442.1575,0,30,30,30,1,0.6,0.4,0.2,0.8,,,,,,,,,,,,,,,0.7632,,0.8,0.2,0.2,0.8,0.6,0.4,0.6,0.4,1,0,,,,,,,,,,,,
,,5c5fbade4cc94200016a5c15,66fc97b6736ae44b178e548f,2024-10-01_18h46.26.037,mdp,2024.2.1,Win32,59.88023952,66fa4ebf79326e780c390304,,,,,,,,,,,,,,,,,,,,,442.1582,442.1582,442.1597,444.2099,1,1,right,1.519,,444.2113,445.2776,1,0,right,445.2791,445.2799,,1,,1,445.2799,445.2799,445.2807,446.7793,0,31,31,31,1,0.6,0.4,0.2,0.8,,,,,,,,,,,,,,,0.557,,0.8,0.2,0.2,0.8,0.6,0.4,0.6,0.4,1,0,,,,,,,,,,,,
,,5c5fbade4cc94200016a5c15,66fc97b6736ae44b178e548f,2024-10-01_18h46.26.037,mdp,2024.2.1,Win32,59.88023952,66fa4ebf79326e780c390304,,,,,,,,,,,,,,,,,,,,,446.7799,446.7799,446.7814,447.8138,1,0,right,0.5008,,447.8153,449.2154,0,0,left,449.2166,449.2177,,0,,1,449.2177,449.2177,449.2187,450.717,0,32,32,32,1,0.6,0.4,0.2,0.8,,,,,,,,,,,,,,,0.8793,,0.8,0.2,0.2,0.8,0.6,0.4,0.6,0.4,1,0,,,,,,,,,,,,
,,5c5fbade4cc94200016a5c15,66fc97b6736ae44b178e548f,2024-10-01_18h46.26.037,mdp,2024.2.1,Win32,59.88023952,66fa4ebf79326e780c390304,,,,,,,,,,,,,,,,,,,,,450.7176,450.7176,450.7196,451.9017,1,1,right,0.6562,,451.9033,452.9028,1,0,right,452.9042,452.905,,0,,1,452.905,452.9051,452.9058,454.4043,0,33,33,33,1,0.6,0.4,0.2,0.8,,,,,,,,,,,,,,,0.4801,,0.8,0.2,0.2,0.8,0.6,0.4,0.6,0.4,1,0,,,,,,,,,,,,
,,5c5fbade4cc94200016a5c15,66fc97b6736ae44b178e548f,2024-10-01_18h46.26.037,mdp,2024.2.1,Win32,59.88023952,66fa4ebf79326e780c390304,,,,,,,,,,,,,,,,,,,,,454.4049,454.4049,454.4064,455.7226,1,1,right,0.8024,,455.7241,456.9071,1,0,right,456.9085,456.9095,,1,,1,456.9095,456.9095,456.9105,458.4088,0,34,34,34,1,0.6,0.4,0.2,0.8,,,,,,,,,,,,,,,0.6743,,0.8,0.2,0.2,0.8,0.6,0.4,0.6,0.4,1,0,,,,,,,,,,,,
,,5c5fbade4cc94200016a5c15,66fc97b6736ae44b178e548f,2024-10-01_18h46.26.037,mdp,2024.2.1,Win32,59.88023952,66fa4ebf79326e780c390304,,,,,,,,,,,,,,,,,,,,,458.4093,458.4095,458.4112,460.5444,0,1,left,1.6097,,460.546,461.4621,1,0,right,461.4635,461.4642,,0,,1,461.4643,461.4643,461.4651,462.9637,0,35,35,35,1,0.6,0.4,0.2,0.8,,,,,,,,,,,,,,,0.4008,,0.8,0.2,0.2,0.8,0.6,0.4,0.6,0.4,1,0,,,,,,,,,,,,
,,5c5fbade4cc94200016a5c15,66fc97b6736ae44b178e548f,2024-10-01_18h46.26.037,mdp,2024.2.1,Win32,59.88023952,66fa4ebf79326e780c390304,,,,,,,,,,,,,,,,,,,,,462.9644,462.9644,462.9658,464.2985,1,0,right,0.8086,,464.2998,465.5999,0,0,left,465.6012,465.6022,,0,,1,465.6023,465.6024,465.6032,467.1014,0,36,36,36,1,0.6,0.4,0.2,0.8,,,,,,,,,,,,,,,0.7808,,0.8,0.2,0.2,0.8,0.6,0.4,0.6,0.4,1,0,,,,,,,,,,,,
,,5c5fbade4cc94200016a5c15,66fc97b6736ae44b178e548f,2024-10-01_18h46.26.037,mdp,2024.2.1,Win32,59.88023952,66fa4ebf79326e780c390304,,,,,,,,,,,,,,,,,,,,,467.1019,467.1019,467.1033,468.353,1,1,right,0.7178,,468.3544,469.3216,1,1,right,469.3229,469.3236,,0,,0,469.3237,469.3237,469.3244,470.8221,0,37,37,37,1,0.6,0.4,0.2,0.8,,,,,,,,,,,,,,,0.455,,0.8,0.2,0.2,0.8,0.6,0.4,0.6,0.4,1,0,,,,,,,,,,,,
,,5c5fbade4cc94200016a5c15,66fc97b6736ae44b178e548f,2024-10-01_18h46.26.037,mdp,2024.2.1,Win32,59.88023952,66fa4ebf79326e780c390304,,,,,,,,,,,,,,,,,,,,,470.8226,470.8226,470.824,471.8235,1,1,right,0.4862,,471.8249,473.0748,1,1,right,473.0761,473.0769,,0,,0,473.077,473.077,473.0778,474.5764,0,38,38,38,1,0.6,0.4,0.2,0.8,,,,,,,,,,,,,,,0.7349,,0.8,0.2,0.2,0.8,0.6,0.4,0.6,0.4,1,0,,,,,,,,,,,,
,,5c5fbade4cc94200016a5c15,66fc97b6736ae44b178e548f,2024-10-01_18h46.26.037,mdp,2024.2.1,Win32,59.88023952,66fa4ebf79326e780c390304,,,,,,,,,,,,,,,,,,,,,474.5769,474.5769,474.5786,475.494,1,1,right,0.3844,,475.4955,476.4952,1,0,right,476.4965,476.4972,,1,,1,476.4974,476.4974,476.4981,477.9967,0,39,39,39,1,0.6,0.4,0.2,0.8,,,,,,,,,,,,,,,0.4872,,0.8,0.2,0.2,0.8,0.6,0.4,0.6,0.4,1,0,,,,,,,,,,,,
,,5c5fbade4cc94200016a5c15,66fc97b6736ae44b178e548f,2024-10-01_18h46.26.037,mdp,2024.2.1,Win32,59.88023952,66fa4ebf79326e780c390304,,,,,,,,,,,,,,,,,,,,,477.9971,477.9972,477.9987,479.148,1,1,right,0.6334,,479.1494,480.1159,0,0,left,480.1172,480.1179,,0,,1,480.118,480.1181,480.1189,481.6173,0,40,40,40,1,0.6,0.4,0.2,0.8,,,,,,,,,,,,,,,0.4576,,0.8,0.2,0.2,0.8,0.6,0.4,0.6,0.4,1,0,,,,,,,,,,,,
,,5c5fbade4cc94200016a5c15,66fc97b6736ae44b178e548f,2024-10-01_18h46.26.037,mdp,2024.2.1,Win32,59.88023952,66fa4ebf79326e780c390304,,,,,,,,,,,,,,,,,,,,,481.6178,481.6178,481.6191,482.7353,1,0,right,0.5843,,482.737,483.7865,0,0,left,483.7879,483.7886,,1,,1,483.7887,483.7887,483.7895,485.288,0,41,41,41,1,0.4,0.6,0.6,0.4,,,,,,,,,,,,,,,0.5303,,0.8,0.2,0.2,0.8,0.6,0.4,0.6,0.4,1,0,,,,,,,,,,,,
,,5c5fbade4cc94200016a5c15,66fc97b6736ae44b178e548f,2024-10-01_18h46.26.037,mdp,2024.2.1,Win32,59.88023952,66fa4ebf79326e780c390304,,,,,,,,,,,,,,,,,,,,,485.2885,485.2886,485.2901,486.7565,0,1,left,0.9567,,486.7579,487.7074,1,1,right,487.709,487.7098,,1,,0,487.7099,487.7099,487.7107,489.2089,0,42,42,42,1,0.4,0.6,0.6,0.4,,,,,,,,,,,,,,,0.4332,,0.2,0.8,0.6,0.4,0.6,0.4,0.6,0.4,1,0,,,,,,,,,,,,
,,5c5fbade4cc94200016a5c15,66fc97b6736ae44b178e548f,2024-10-01_18h46.26.037,mdp,2024.2.1,Win32,59.88023952,66fa4ebf79326e780c390304,,,,,,,,,,,,,,,,,,,,,489.2094,489.2094,489.211,490.4105,1,1,right,0.6848,,490.4119,491.5451,0,1,left,491.5465,491.5474,,1,,0,491.5474,491.5474,491.5482,493.0466,0,43,43,43,1,0.6,0.4,0.2,0.8,,,,,,,,,,,,,,,0.6229,,0.2,0.8,0.6,0.4,0.6,0.4,0.6,0.4,1,0,,,,,,,,,,,,
,,5c5fbade4cc94200016a5c15,66fc97b6736ae44b178e548f,2024-10-01_18h46.26.037,mdp,2024.2.1,Win32,59.88023952,66fa4ebf79326e780c390304,,,,,,,,,,,,,,,,,,,,,493.0473,493.0473,493.0489,494.1147,1,1,right,0.5358,,494.1166,494.9987,1,0,right,495.0001,495.0008,,0,,1,495.0008,495.0009,495.0019,496.5004,0,44,44,44,1,0.6,0.4,0.2,0.8,,,,,,,,,,,,,,,0.3505,,0.2,0.8,0.6,0.4,0.6,0.4,0.6,0.4,1,0,,,,,,,,,,,,
,,5c5fbade4cc94200016a5c15,66fc97b6736ae44b178e548f,2024-10-01_18h46.26.037,mdp,2024.2.1,Win32,59.88023952,66fa4ebf79326e780c390304,,,,,,,,,,,,,,,,,,,,,496.5009,496.5009,496.5021,497.3847,1,1,right,0.3533,,497.3861,498.3358,0,1,left,498.3371,498.3378,,0,,0,498.3379,498.3379,498.3387,499.8373,0,45,45,45,1,0.6,0.4,0.2,0.8,,,,,,,,,,,,,,,0.4356,,0.2,0.8,0.6,0.4,0.6,0.4,0.6,0.4,1,0,,,,,,,,,,,,
,,5c5fbade4cc94200016a5c15,66fc97b6736ae44b178e548f,2024-10-01_18h46.26.037,mdp,2024.2.1,Win32,59.88023952,66fa4ebf79326e780c390304,,,,,,,,,,,,,,,,,,,,,499.8376,499.8377,499.8389,500.7718,1,1,right,0.4216,,500.7732,501.9898,1,0,right,501.9913,501.9921,,1,,1,501.9921,501.9921,501.9929,503.4914,0,46,46,46,1,0.6,0.4,0.2,0.8,,,,,,,,,,,,,,,0.7013,,0.6,0.4,0.4,0.6,0.6,0.4,0.6,0.4,1,0,,,,,,,,,,,,
,,5c5fbade4cc94200016a5c15,66fc97b6736ae44b178e548f,2024-10-01_18h46.26.037,mdp,2024.2.1,Win32,59.88023952,66fa4ebf79326e780c390304,,,,,,,,,,,,,,,,,,,,,503.4919,503.4919,503.4934,504.676,1,1,right,0.6522,,504.6778,506.0274,1,0,right,506.0288,506.0296,,0,,1,506.0296,506.0296,506.0304,507.5291,0,47,47,47,1,0.6,0.4,0.2,0.8,,,,,,,,,,,,,,,0.843,,0.6,0.4,0.4,0.6,0.6,0.4,0.6,0.4,1,0,,,,,,,,,,,,
,,5c5fbade4cc94200016a5c15,66fc97b6736ae44b178e548f,2024-10-01_18h46.26.037,mdp,2024.2.1,Win32,59.88023952,66fa4ebf79326e780c390304,,,,,,,,,,,,,,,,,,,,,507.5297,507.5297,507.5312,508.6139,1,1,right,0.5517,,508.6157,509.8652,1,1,right,509.8665,509.8676,,1,,0,509.8677,509.8677,509.8688,511.3667,0,48,48,48,1,0.6,0.4,0.2,0.8,,,,,,,,,,,,,,,0.736,,0.6,0.4,0.4,0.6,0.6,0.4,0.6,0.4,1,0,,,,,,,,,,,,
,,5c5fbade4cc94200016a5c15,66fc97b6736ae44b178e548f,2024-10-01_18h46.26.037,mdp,2024.2.1,Win32,59.88023952,66fa4ebf79326e780c390304,,,,,,,,,,,,,,,,,,,,,511.3673,511.3673,511.3691,512.5847,1,1,right,0.688,,512.5861,513.4858,0,1,left,513.4875,513.4889,,0,,0,513.489,513.489,513.4908,514.9872,0,49,49,49,1,0.6,0.4,0.2,0.8,,,,,,,,,,,,,,,0.3853,,0.6,0.4,0.4,0.6,0.6,0.4,0.6,0.4,1,0,,,,,,,,,,,,
,,5c5fbade4cc94200016a5c15,66fc97b6736ae44b178e548f,2024-10-01_18h46.26.037,mdp,2024.2.1,Win32,59.88023952,66fa4ebf79326e780c390304,,,,,,,,,,,,,,,,,,,,,,,,,,,,,,,,,,,,,,,,,,,,,,,,,,,,,,,,514.9874,573.5013,0,1,1,4,1,imgs/squirrel.png,imgs/lion.png,imgs/pig.png,imgs/bear.png,imgs/dog.png,,,,,,,,,,,,,,,,,,,,,,,,
,,5c5fbade4cc94200016a5c15,66fc97b6736ae44b178e548f,2024-10-01_18h46.26.037,mdp,2024.2.1,Win32,59.88023952,66fa4ebf79326e780c390304,,,,,,,,,,,,,,3,seqs/st3seq0.csv,573.5028,609.8247,space,35.7955,,609.8346,609.8346,609.8356,612.4773,0,1,left,2.1097,,612.4788,614.9968,1,1,right,614.9982,616.2982,1,1,right,0,616.2983,616.2984,616.2996,617.7998,0,0,0,0,1,0.2,0.8,0.8,0.2,,,,,,,,,,,,,,,2.0011,,0.6,0.4,0.4,0.6,0.2,0.8,0.6,0.4,,,0.774,,0.8,0.2,0.2,0.8,0.4,0.6,0.2,0.8,1,0
,,5c5fbade4cc94200016a5c15,66fc97b6736ae44b178e548f,2024-10-01_18h46.26.037,mdp,2024.2.1,Win32,59.88023952,66fa4ebf79326e780c390304,,,,,,,,,,,,,,,,,,,,,617.8009,617.8009,617.8022,619.0511,0,1,left,0.7159,,619.0524,620.019,0,1,left,620.0207,621.1036,0,1,left,0,621.1037,621.1037,621.1049,622.605,0,1,1,1,1,0.2,0.8,0.8,0.2,,,,,,,,,,,,,,,0.4507,,0.6,0.4,0.4,0.6,0.2,0.8,0.6,0.4,,,0.5677,,0.8,0.2,0.2,0.8,0.4,0.6,0.2,0.8,1,0
,,5c5fbade4cc94200016a5c15,66fc97b6736ae44b178e548f,2024-10-01_18h46.26.037,mdp,2024.2.1,Win32,59.88023952,66fa4ebf79326e780c390304,,,,,,,,,,,,,,,,,,,,,622.6055,622.6055,622.6068,623.7229,1,1,right,0.5844,,623.7243,624.6573,0,1,left,624.6587,625.6752,1,1,right,0,625.6752,625.6752,625.6765,627.1767,0,2,2,2,1,0.2,0.8,0.8,0.2,,,,,,,,,,,,,,,0.4176,,0.6,0.4,0.4,0.6,0.2,0.8,0.6,0.4,,,0.5034,,0.8,0.2,0.2,0.8,0.4,0.6,0.2,0.8,1,0
,,5c5fbade4cc94200016a5c15,66fc97b6736ae44b178e548f,2024-10-01_18h46.26.037,mdp,2024.2.1,Win32,59.88023952,66fa4ebf79326e780c390304,,,,,,,,,,,,,,,,,,,,,627.1773,627.1773,627.1785,628.0109,0,1,left,0.3074,,628.0124,628.9789,0,1,left,628.9804,629.8631,0,0,left,1,629.8631,629.8631,629.8644,631.3646,0,3,3,3,1,0.2,0.8,0.8,0.2,,,,,,,,,,,,,,,0.4547,,0.2,0.8,0.8,0.2,0.2,0.8,0.6,0.4,,,0.3674,,0.8,0.2,0.2,0.8,0.4,0.6,0.2,0.8,1,0
,,5c5fbade4cc94200016a5c15,66fc97b6736ae44b178e548f,2024-10-01_18h46.26.037,mdp,2024.2.1,Win32,59.88023952,66fa4ebf79326e780c390304,,,,,,,,,,,,,,,,,,,,,631.3654,631.3654,631.3669,632.1989,0,1,left,0.3027,,632.2003,633.417,0,1,left,633.4184,634.3847,0,1,left,0,634.3848,634.3848,634.3861,635.8863,0,4,4,4,1,0.2,0.8,0.8,0.2,,,,,,,,,,,,,,,0.7008,,0.2,0.8,0.8,0.2,0.2,0.8,0.6,0.4,,,0.4508,,0.8,0.2,0.2,0.8,0.4,0.6,0.2,0.8,1,0
,,5c5fbade4cc94200016a5c15,66fc97b6736ae44b178e548f,2024-10-01_18h46.26.037,mdp,2024.2.1,Win32,59.88023952,66fa4ebf79326e780c390304,,,,,,,,,,,,,,,,,,,,,635.89,635.89,635.8911,637.338,0,1,left,0.9206,,637.3397,638.2222,0,1,left,638.2235,639.1231,0,1,left,0,639.1232,639.1232,639.1247,640.6247,0,5,5,5,1,0.2,0.8,0.8,0.2,,,,,,,,,,,,,,,0.3757,,0.2,0.8,0.8,0.2,0.2,0.8,0.6,0.4,,,0.3839,,0.8,0.2,0.2,0.8,0.4,0.6,0.2,0.8,1,0
,,5c5fbade4cc94200016a5c15,66fc97b6736ae44b178e548f,2024-10-01_18h46.26.037,mdp,2024.2.1,Win32,59.88023952,66fa4ebf79326e780c390304,,,,,,,,,,,,,,,,,,,,,640.6253,640.6253,640.6264,641.8263,0,1,left,0.6685,,641.8282,642.6771,0,1,left,642.6789,643.5614,0,1,left,0,643.5615,643.5615,643.5629,645.0628,0,6,6,6,1,0.2,0.8,0.8,0.2,,,,,,,,,,,,,,,0.3348,,0.2,0.8,0.8,0.2,0.2,0.8,0.6,0.4,,,0.3705,,0.8,0.2,0.2,0.8,0.4,0.6,0.2,0.8,1,0
,,5c5fbade4cc94200016a5c15,66fc97b6736ae44b178e548f,2024-10-01_18h46.26.037,mdp,2024.2.1,Win32,59.88023952,66fa4ebf79326e780c390304,,,,,,,,,,,,,,,,,,,,,645.0633,645.0634,645.0645,645.5968,0,1,left,0.0082,,645.5983,646.4145,0,0,left,646.416,647.182,0,0,left,1,647.1822,647.1822,647.1834,648.6836,0,7,7,7,1,0.2,0.8,0.8,0.2,,,,,,,,,,,,,,,0.3083,,0.2,0.8,0.8,0.2,0.2,0.8,0.6,0.4,,,0.2415,,0.8,0.2,0.2,0.8,0.4,0.6,0.2,0.8,1,0
,,5c5fbade4cc94200016a5c15,66fc97b6736ae44b178e548f,2024-10-01_18h46.26.037,mdp,2024.2.1,Win32,59.88023952,66fa4ebf79326e780c390304,,,,,,,,,,,,,,,,,,,,,648.6844,648.6844,648.6861,649.7014,0,0,left,0.4905,,649.703,650.7027,0,0,left,650.7043,651.6038,1,1,right,0,651.6039,651.604,651.6058,653.1051,0,8,8,8,1,0.2,0.8,0.8,0.2,,,,,,,,,,,,,,,0.4792,,0.6,0.4,0.2,0.8,0.2,0.8,0.6,0.4,,,0.3843,,0.8,0.2,0.2,0.8,0.4,0.6,0.2,0.8,1,0
,,5c5fbade4cc94200016a5c15,66fc97b6736ae44b178e548f,2024-10-01_18h46.26.037,mdp,2024.2.1,Win32,59.88023952,66fa4ebf79326e780c390304,,,,,,,,,,,,,,,,,,,,,653.1057,653.1057,653.1072,654.4402,1,1,right,0.811,,654.4424,655.341,1,1,right,655.3426,656.2085,0,1,left,0,656.2086,656.2087,656.2099,657.71,0,9,9,9,1,0.2,0.8,0.8,0.2,,,,,,,,,,,,,,,0.3864,,0.6,0.4,0.2,0.8,0.2,0.8,0.6,0.4,,,0.3455,,0.8,0.2,0.2,0.8,0.4,0.6,0.2,0.8,1,0
,,5c5fbade4cc94200016a5c15,66fc97b6736ae44b178e548f,2024-10-01_18h46.26.037,mdp,2024.2.1,Win32,59.88023952,66fa4ebf79326e780c390304,,,,,,,,,,,,,,,,,,,,,657.7106,657.7106,657.7118,658.5611,1,1,right,0.3344,,658.5626,659.412,1,1,right,659.4134,660.2799,0,1,left,0,660.28,660.28,660.2815,661.7813,0,10,10,10,1,0.2,0.8,0.8,0.2,,,,,,,,,,,,,,,0.3435,,0.6,0.4,0.2,0.8,0.2,0.8,0.6,0.4,,,0.3511,,0.8,0.2,0.2,0.8,0.4,0.6,0.2,0.8,1,0
,,5c5fbade4cc94200016a5c15,66fc97b6736ae44b178e548f,2024-10-01_18h46.26.037,mdp,2024.2.1,Win32,59.88023952,66fa4ebf79326e780c390304,,,,,,,,,,,,,,,,,,,,,661.7819,661.7819,661.7831,662.6158,1,0,right,0.3017,,662.6175,663.5834,1,1,right,663.5848,664.4842,1,0,right,1,664.4844,664.4844,664.486,665.9858,0,11,11,11,1,0.4,0.6,0.6,0.4,,,,,,,,,,,,,,,0.4448,,0.6,0.4,0.2,0.8,0.2,0.8,0.6,0.4,,,0.385,,0.8,0.2,0.2,0.8,0.4,0.6,0.2,0.8,1,0
,,5c5fbade4cc94200016a5c15,66fc97b6736ae44b178e548f,2024-10-01_18h46.26.037,mdp,2024.2.1,Win32,59.88023952,66fa4ebf79326e780c390304,,,,,,,,,,,,,,,,,,,,,665.9863,665.9863,665.9875,666.987,1,0,right,0.4703,,666.9886,669.2229,1,1,right,669.2241,670.2906,1,1,right,0,670.2907,670.2907,670.292,671.7921,0,12,12,12,1,0.4,0.6,0.6,0.4,,,,,,,,,,,,,,,1.7247,,0.6,0.4,0.2,0.8,0.2,0.8,0.6,0.4,,,0.5513,,0.8,0.2,0.2,0.8,0.4,0.6,0.2,0.8,1,0
,,5c5fbade4cc94200016a5c15,66fc97b6736ae44b178e548f,2024-10-01_18h46.26.037,mdp,2024.2.1,Win32,59.88023952,66fa4ebf79326e780c390304,,,,,,,,,,,,,,,,,,,,,671.7926,671.7927,671.7938,672.8102,1,0,right,0.4879,,672.8119,673.6946,1,0,right,673.6965,674.5953,1,1,right,0,674.5954,674.5954,674.5972,676.0969,0,13,13,13,1,0.2,0.8,0.8,0.2,,,,,,,,,,,,,,,0.3702,,0.6,0.4,0.2,0.8,0.2,0.8,0.6,0.4,,,0.3675,,0.8,0.2,0.2,0.8,0.4,0.6,0.2,0.8,1,0
,,5c5fbade4cc94200016a5c15,66fc97b6736ae44b178e548f,2024-10-01_18h46.26.037,mdp,2024.2.1,Win32,59.88023952,66fa4ebf79326e780c390304,,,,,,,,,,,,,,,,,,,,,676.0976,676.0976,676.0993,676.8646,0,1,left,0.2394,,676.8662,677.7321,0,1,left,677.7334,678.75,0,1,left,0,678.7501,678.7501,678.7517,680.2516,0,14,14,14,1,0.2,0.8,0.8,0.2,,,,,,,,,,,,,,,0.3473,,0.6,0.4,0.2,0.8,0.2,0.8,0.6,0.4,,,0.4968,,0.8,0.2,0.2,0.8,0.4,0.6,0.2,0.8,1,0
,,5c5fbade4cc94200016a5c15,66fc97b6736ae44b178e548f,2024-10-01_18h46.26.037,mdp,2024.2.1,Win32,59.88023952,66fa4ebf79326e780c390304,,,,,,,,,,,,,,,,,,,,,680.2522,680.2522,680.2539,681.2859,1,0,right,0.501,,681.2873,682.8043,0,0,left,682.8059,683.6719,1,0,right,1,683.672,683.6721,683.6734,685.1734,0,15,15,15,1,0.2,0.8,0.8,0.2,,,,,,,,,,,,,,,0.996,,0.6,0.4,0.2,0.8,0.2,0.8,0.6,0.4,,,0.3421,,0.8,0.2,0.2,0.8,0.4,0.6,0.2,0.8,1,0
,,5c5fbade4cc94200016a5c15,66fc97b6736ae44b178e548f,2024-10-01_18h46.26.037,mdp,2024.2.1,Win32,59.88023952,66fa4ebf79326e780c390304,,,,,,,,,,,,,,,,,,,,,685.1739,685.1739,685.1751,686.4919,1,0,right,0.7947,,686.4932,687.5595,0,0,left,687.561,688.5439,1,0,right,1,688.5439,688.5439,688.5453,690.0455,0,16,16,16,1,0.2,0.8,0.8,0.2,,,,,,,,,,,,,,,0.5418,,0.6,0.4,0.2,0.8,0.2,0.8,0.6,0.4,,,0.47,,0.8,0.2,0.2,0.8,0.4,0.6,0.2,0.8,1,0
,,5c5fbade4cc94200016a5c15,66fc97b6736ae44b178e548f,2024-10-01_18h46.26.037,mdp,2024.2.1,Win32,59.88023952,66fa4ebf79326e780c390304,,,,,,,,,,,,,,,,,,,,,690.046,690.046,690.0472,691.0299,0,1,left,0.4551,,691.0313,691.8475,1,1,right,691.8489,692.8486,1,1,right,0,692.8488,692.8488,692.8502,694.3501,0,17,17,17,1,0.2,0.8,0.8,0.2,,,,,,,,,,,,,,,0.2946,,0.6,0.4,0.2,0.8,0.4,0.6,0.2,0.8,,,0.4855,,0.8,0.2,0.2,0.8,0.4,0.6,0.2,0.8,1,0
,,5c5fbade4cc94200016a5c15,66fc97b6736ae44b178e548f,2024-10-01_18h46.26.037,mdp,2024.2.1,Win32,59.88023952,66fa4ebf79326e780c390304,,,,,,,,,,,,,,,,,,,,,694.3506,694.3507,694.352,695.3347,0,0,left,0.4604,,695.336,696.2025,1,1,right,696.2041,697.3202,0,0,left,1,697.3204,697.3204,697.3216,698.8217,0,18,18,18,1,0.2,0.8,0.8,0.2,,,,,,,,,,,,,,,0.3553,,0.6,0.4,0.2,0.8,0.4,0.6,0.2,0.8,,,0.6044,,0.8,0.2,0.2,0.8,0.4,0.6,0.2,0.8,1,0
,,5c5fbade4cc94200016a5c15,66fc97b6736ae44b178e548f,2024-10-01_18h46.26.037,mdp,2024.2.1,Win32,59.88023952,66fa4ebf79326e780c390304,,,,,,,,,,,,,,,,,,,,,698.8224,698.8224,698.8238,699.7061,1,0,right,0.36,,699.7074,700.624,1,1,right,700.6255,701.6083,0,1,left,0,701.6083,701.6083,701.6096,703.1098,0,19,19,19,1,0.2,0.8,0.8,0.2,,,,,,,,,,,,,,,0.4074,,0.6,0.4,0.2,0.8,0.4,0.6,0.2,0.8,,,0.4703,,0.8,0.2,0.2,0.8,0.6,0.4,0.6,0.4,1,0
,,5c5fbade4cc94200016a5c15,66fc97b6736ae44b178e548f,2024-10-01_18h46.26.037,mdp,2024.2.1,Win32,59.88023952,66fa4ebf79326e780c390304,,,,,,,,,,,,,,,,,,,,,703.1106,703.1107,703.1124,703.944,1,1,right,0.31,,703.9455,705.0119,1,1,right,705.0133,705.9297,1,0,right,1,705.9298,705.9298,705.9311,707.4312,0,20,20,20,1,0.2,0.8,0.8,0.2,,,,,,,,,,,,,,,0.547,,0.6,0.4,0.2,0.8,0.4,0.6,0.2,0.8,,,0.4009,,0.8,0.2,0.2,0.8,0.6,0.4,0.6,0.4,1,0
,,5c5fbade4cc94200016a5c15,66fc97b6736ae44b178e548f,2024-10-01_18h46.26.037,mdp,2024.2.1,Win32,59.88023952,66fa4ebf79326e780c390304,,,,,,,,,,,,,,,,,,,,,707.4317,707.4318,707.433,707.9653,0,1,left,0.0005,,707.9665,708.8662,1,1,right,708.8677,710.4013,0,0,left,1,710.4015,710.4015,710.4032,711.9027,0,21,21,21,1,0.2,0.8,0.8,0.2,,,,,,,,,,,,,,,0.3906,,0.6,0.4,0.2,0.8,0.4,0.6,0.2,0.8,,,1.0258,,0.8,0.2,0.2,0.8,0.6,0.4,0.6,0.4,1,0
,,5c5fbade4cc94200016a5c15,66fc97b6736ae44b178e548f,2024-10-01_18h46.26.037,mdp,2024.2.1,Win32,59.88023952,66fa4ebf79326e780c390304,,,,,,,,,,,,,,,,,,,,,711.9032,711.9032,711.9045,712.8538,1,0,right,0.4402,,712.8554,713.9386,1,0,right,713.94,715.1898,0,0,left,1,715.1901,715.1901,715.1914,716.6913,0,22,22,22,1,0.2,0.8,0.8,0.2,,,,,,,,,,,,,,,0.5648,,0.6,0.4,0.2,0.8,0.4,0.6,0.2,0.8,,,0.7396,,0.8,0.2,0.2,0.8,0.6,0.4,0.6,0.4,1,0
,,5c5fbade4cc94200016a5c15,66fc97b6736ae44b178e548f,2024-10-01_18h46.26.037,mdp,2024.2.1,Win32,59.88023952,66fa4ebf79326e780c390304,,,,,,,,,,,,,,,,,,,,,716.6917,716.6918,716.6931,717.5758,1,0,right,0.3596,,717.5777,718.46,1,1,right,718.4613,719.4111,0,0,left,1,719.4112,719.4112,719.4125,720.9126,0,23,23,23,1,0.2,0.8,0.8,0.2,,,,,,,,,,,,,,,0.376,,0.6,0.4,0.2,0.8,0.4,0.6,0.2,0.8,,,0.4311,,0.8,0.2,0.2,0.8,0.6,0.4,0.6,0.4,1,0
,,5c5fbade4cc94200016a5c15,66fc97b6736ae44b178e548f,2024-10-01_18h46.26.037,mdp,2024.2.1,Win32,59.88023952,66fa4ebf79326e780c390304,,,,,,,,,,,,,,,,,,,,,720.9133,720.9133,720.9146,722.0806,1,1,right,0.6347,,722.0822,723.0151,1,1,right,723.0166,723.9996,0,0,left,1,723.9997,723.9997,724.001,725.5009,0,24,24,24,1,0.2,0.8,0.8,0.2,,,,,,,,,,,,,,,0.4148,,0.6,0.4,0.2,0.8,0.4,0.6,0.2,0.8,,,0.4674,,0.8,0.2,0.2,0.8,0.6,0.4,0.6,0.4,1,0
,,5c5fbade4cc94200016a5c15,66fc97b6736ae44b178e548f,2024-10-01_18h46.26.037,mdp,2024.2.1,Win32,59.88023952,66fa4ebf79326e780c390304,,,,,,,,,,,,,,,,,,,,,725.5019,725.5019,725.5031,726.3854,1,1,right,0.3573,,726.3873,727.3197,1,1,right,727.321,728.3711,0,0,left,1,728.3711,728.3711,728.3726,729.8726,0,25,25,25,1,0.2,0.8,0.8,0.2,,,,,,,,,,,,,,,0.4177,,0.6,0.4,0.2,0.8,0.4,0.6,0.2,0.8,,,0.536,,0.8,0.2,0.2,0.8,0.6,0.4,0.6,0.4,1,0
,,5c5fbade4cc94200016a5c15,66fc97b6736ae44b178e548f,2024-10-01_18h46.26.037,mdp,2024.2.1,Win32,59.88023952,66fa4ebf79326e780c390304,,,,,,,,,,,,,,,,,,,,,729.8732,729.8732,729.8743,730.8072,1,0,right,0.4014,,730.8089,731.7413,0,1,left,731.7428,732.7757,1,1,right,0,732.7759,732.7759,732.7773,734.2773,0,26,26,26,1,0.2,0.8,0.8,0.2,,,,,,,,,,,,,,,0.4147,,0.6,0.4,0.2,0.8,0.4,0.6,0.2,0.8,,,0.5177,,0.8,0.2,0.2,0.8,0.6,0.4,0.6,0.4,1,0
,,5c5fbade4cc94200016a5c15,66fc97b6736ae44b178e548f,2024-10-01_18h46.26.037,mdp,2024.2.1,Win32,59.88023952,66fa4ebf79326e780c390304,,,,,,,,,,,,,,,,,,,,,734.2778,734.2778,734.2789,735.2285,0,1,left,0.4191,,735.2299,736.1629,1,0,right,736.1642,737.0808,1,0,right,1,737.081,737.081,737.0823,738.582,0,27,27,27,1,0.2,0.8,0.8,0.2,,,,,,,,,,,,,,,0.4159,,0.6,0.4,0.2,0.8,0.4,0.6,0.2,0.8,,,0.4043,,0.8,0.2,0.2,0.8,0.6,0.4,0.6,0.4,1,0
,,5c5fbade4cc94200016a5c15,66fc97b6736ae44b178e548f,2024-10-01_18h46.26.037,mdp,2024.2.1,Win32,59.88023952,66fa4ebf79326e780c390304,,,,,,,,,,,,,,,,,,,,,738.5825,738.5825,738.5837,739.5831,0,1,left,0.4731,,739.5845,740.4844,1,1,right,740.4862,741.6187,0,1,left,0,741.6188,741.6188,741.6207,743.1202,0,28,28,28,1,0.2,0.8,0.8,0.2,,,,,,,,,,,,,,,0.3882,,0.6,0.4,0.2,0.8,0.4,0.6,0.2,0.8,,,0.5964,,0.8,0.2,0.2,0.8,0.6,0.4,0.6,0.4,1,0
,,5c5fbade4cc94200016a5c15,66fc97b6736ae44b178e548f,2024-10-01_18h46.26.037,mdp,2024.2.1,Win32,59.88023952,66fa4ebf79326e780c390304,,,,,,,,,,,,,,,,,,,,,743.1208,743.1208,743.1225,744.9891,1,0,right,1.3327,,744.9905,746.0235,0,1,left,746.0249,747.5253,1,1,right,0,747.5254,747.5254,747.5269,749.0267,0,29,29,29,1,0.2,0.8,0.8,0.2,,,,,,,,,,,,,,,0.5125,,0.6,0.4,0.2,0.8,0.4,0.6,0.2,0.8,,,0.9854,,0.8,0.2,0.2,0.8,0.6,0.4,0.6,0.4,1,0
,,5c5fbade4cc94200016a5c15,66fc97b6736ae44b178e548f,2024-10-01_18h46.26.037,mdp,2024.2.1,Win32,59.88023952,66fa4ebf79326e780c390304,,,,,,,,,,,,,,,,,,,,,749.0272,749.0272,749.0285,749.7442,0,1,left,0.1842,,749.7455,750.5284,1,0,right,750.53,751.5128,0,1,left,0,751.5128,751.5129,751.5142,753.0144,0,30,30,30,1,0.2,0.8,0.8,0.2,,,,,,,,,,,,,,,0.2621,,0.4,0.6,0.8,0.2,0.4,0.6,0.2,0.8,,,0.4624,,0.8,0.2,0.2,0.8,0.6,0.4,0.6,0.4,1,0
,,5c5fbade4cc94200016a5c15,66fc97b6736ae44b178e548f,2024-10-01_18h46.26.037,mdp,2024.2.1,Win32,59.88023952,66fa4ebf79326e780c390304,,,,,,,,,,,,,,,,,,,,,753.0149,753.0149,753.0161,753.7986,1,0,right,0.2672,,753.8,754.6997,1,0,right,754.7012,755.5839,1,1,right,0,755.584,755.584,755.5853,757.0855,0,31,31,31,1,0.2,0.8,0.8,0.2,,,,,,,,,,,,,,,0.3865,,0.4,0.6,0.8,0.2,0.4,0.6,0.2,0.8,,,0.3733,,0.8,0.2,0.2,0.8,0.6,0.4,0.6,0.4,1,0
,,5c5fbade4cc94200016a5c15,66fc97b6736ae44b178e548f,2024-10-01_18h46.26.037,mdp,2024.2.1,Win32,59.88023952,66fa4ebf79326e780c390304,,,,,,,,,,,,,,,,,,,,,757.0861,757.0861,757.0878,757.9699,0,0,left,0.3509,,757.9712,758.9043,0,0,left,758.9059,760.3059,0,0,left,1,760.3061,760.3061,760.3074,761.8073,0,32,32,32,1,0.2,0.8,0.8,0.2,,,,,,,,,,,,,,,0.423,,0.8,0.2,0.6,0.4,0.4,0.6,0.2,0.8,,,0.885,,0.8,0.2,0.2,0.8,0.6,0.4,0.6,0.4,1,0
,,5c5fbade4cc94200016a5c15,66fc97b6736ae44b178e548f,2024-10-01_18h46.26.037,mdp,2024.2.1,Win32,59.88023952,66fa4ebf79326e780c390304,,,,,,,,,,,,,,,,,,,,,761.8079,761.8079,761.8091,762.6916,0,1,left,0.351,,762.6931,763.7262,0,0,left,763.7275,764.7607,1,0,right,1,764.7608,764.7608,764.7622,766.2623,0,33,33,33,1,0.2,0.8,0.8,0.2,,,,,,,,,,,,,,,0.5092,,0.8,0.2,0.6,0.4,0.4,0.6,0.2,0.8,,,0.5175,,0.8,0.2,0.2,0.8,0.6,0.4,0.6,0.4,1,0
,,5c5fbade4cc94200016a5c15,66fc97b6736ae44b178e548f,2024-10-01_18h46.26.037,mdp,2024.2.1,Win32,59.88023952,66fa4ebf79326e780c390304,,,,,,,,,,,,,,,,,,,,,766.263,766.263,766.2647,767.1469,0,1,left,0.3491,,767.1492,768.4647,1,0,right,768.466,769.3827,0,0,left,1,769.3827,769.3827,769.384,770.8839,0,34,34,34,1,0.2,0.8,0.8,0.2,,,,,,,,,,,,,,,0.7928,,0.8,0.2,0.6,0.4,0.4,0.6,0.2,0.8,,,0.4107,,0.8,0.2,0.2,0.8,0.6,0.4,0.6,0.4,1,0
,,5c5fbade4cc94200016a5c15,66fc97b6736ae44b178e548f,2024-10-01_18h46.26.037,mdp,2024.2.1,Win32,59.88023952,66fa4ebf79326e780c390304,,,,,,,,,,,,,,,,,,,,,770.8847,770.8848,770.8862,771.7518,1,1,right,0.3398,,771.7535,772.9197,0,0,left,772.9211,773.7872,1,1,right,0,773.7874,773.7874,773.7888,775.2886,0,35,35,35,1,0.2,0.8,0.8,0.2,,,,,,,,,,,,,,,0.6526,,0.8,0.2,0.6,0.4,0.6,0.4,0.4,0.6,,,0.3508,,0.8,0.2,0.2,0.8,0.6,0.4,0.6,0.4,1,0
,,5c5fbade4cc94200016a5c15,66fc97b6736ae44b178e548f,2024-10-01_18h46.26.037,mdp,2024.2.1,Win32,59.88023952,66fa4ebf79326e780c390304,,,,,,,,,,,,,,,,,,,,,775.2891,775.2892,775.2905,776.2399,1,0,right,0.4176,,776.2414,777.0908,0,0,left,777.0922,777.9754,1,0,right,1,777.9754,777.9754,777.977,779.4767,0,36,36,36,1,0.2,0.8,0.8,0.2,,,,,,,,,,,,,,,0.3284,,0.8,0.2,0.6,0.4,0.6,0.4,0.4,0.6,,,0.3682,,0.8,0.2,0.2,0.8,0.6,0.4,0.6,0.4,1,0
,,5c5fbade4cc94200016a5c15,66fc97b6736ae44b178e548f,2024-10-01_18h46.26.037,mdp,2024.2.1,Win32,59.88023952,66fa4ebf79326e780c390304,,,,,,,,,,,,,,,,,,,,,779.4772,779.4773,779.4792,780.4112,0,1,left,0.4007,,780.4125,781.262,1,0,right,781.2635,782.5802,1,1,right,0,782.5802,782.5802,782.5816,784.0817,0,37,37,37,1,0.2,0.8,0.8,0.2,,,,,,,,,,,,,,,0.3376,,0.8,0.2,0.6,0.4,0.4,0.6,0.6,0.4,,,0.805,,0.8,0.2,0.2,0.8,0.6,0.4,0.6,0.4,1,0
,,5c5fbade4cc94200016a5c15,66fc97b6736ae44b178e548f,2024-10-01_18h46.26.037,mdp,2024.2.1,Win32,59.88023952,66fa4ebf79326e780c390304,,,,,,,,,,,,,,,,,,,,,784.0823,784.0824,784.0838,784.9493,0,1,left,0.3341,,784.9507,785.7002,1,1,right,785.7018,786.5012,1,0,right,1,786.5013,786.5013,786.5025,788.0028,0,38,38,38,1,0.2,0.8,0.8,0.2,,,,,,,,,,,,,,,0.2354,,0.8,0.2,0.6,0.4,0.4,0.6,0.6,0.4,,,0.285,,0.8,0.2,0.2,0.8,0.6,0.4,0.6,0.4,1,0
,,5c5fbade4cc94200016a5c15,66fc97b6736ae44b178e548f,2024-10-01_18h46.26.037,mdp,2024.2.1,Win32,59.88023952,66fa4ebf79326e780c390304,,,,,,,,,,,,,,,,,,,,,788.0033,788.0033,788.0045,788.9372,0,1,left,0.4053,,788.9422,789.8047,1,1,right,789.806,790.7729,0,1,left,0,790.773,790.773,790.7743,792.2739,0,39,39,39,1,0.2,0.8,0.8,0.2,,,,,,,,,,,,,,,0.3514,,0.8,0.2,0.6,0.4,0.4,0.6,0.6,0.4,,,0.4508,,0.8,0.2,0.2,0.8,0.6,0.4,0.6,0.4,1,0
,,5c5fbade4cc94200016a5c15,66fc97b6736ae44b178e548f,2024-10-01_18h46.26.037,mdp,2024.2.1,Win32,59.88023952,66fa4ebf79326e780c390304,,,,,,,,,,,,,,,,,,,,,792.2744,792.2744,792.2759,793.175,1,1,right,0.3869,,793.1763,794.026,1,0,right,794.0274,794.8938,1,1,right,0,794.8939,794.8939,794.8956,796.3953,0,40,40,40,1,0.2,0.8,0.8,0.2,,,,,,,,,,,,,,,0.3339,,0.8,0.2,0.6,0.4,0.4,0.6,0.6,0.4,,,0.3499,,0.8,0.2,0.2,0.8,0.6,0.4,0.6,0.4,1,0
,,5c5fbade4cc94200016a5c15,66fc97b6736ae44b178e548f,2024-10-01_18h46.26.037,mdp,2024.2.1,Win32,59.88023952,66fa4ebf79326e780c390304,,,,,,,,,,,,,,,,,,,,,796.3957,796.3957,796.397,796.9625,0,1,left,0.0341,,796.9638,797.7967,1,0,right,797.798,798.5645,0,0,left,1,798.5647,798.5647,798.5663,800.0658,0,41,41,41,1,0.2,0.8,0.8,0.2,,,,,,,,,,,,,,,0.3202,,0.8,0.2,0.6,0.4,0.4,0.6,0.6,0.4,,,0.2532,,0.8,0.2,0.2,0.8,0.6,0.4,0.6,0.4,1,0
,,5c5fbade4cc94200016a5c15,66fc97b6736ae44b178e548f,2024-10-01_18h46.26.037,mdp,2024.2.1,Win32,59.88023952,66fa4ebf79326e780c390304,,,,,,,,,,,,,,,,,,,,,800.0667,800.0667,800.0679,801.0004,0,1,left,0.4013,,801.0018,801.9013,1,1,right,801.9028,802.819,0,1,left,0,802.819,802.819,802.8204,804.3204,0,42,42,42,1,0.2,0.8,0.8,0.2,,,,,,,,,,,,,,,0.3842,,0.8,0.2,0.6,0.4,0.4,0.6,0.6,0.4,,,0.3947,,0.8,0.2,0.2,0.8,0.6,0.4,0.6,0.4,1,0
,,5c5fbade4cc94200016a5c15,66fc97b6736ae44b178e548f,2024-10-01_18h46.26.037,mdp,2024.2.1,Win32,59.88023952,66fa4ebf79326e780c390304,,,,,,,,,,,,,,,,,,,,,804.3209,804.3209,804.3222,805.3885,1,0,right,0.5346,,805.3898,806.2061,1,0,right,806.2074,807.5408,1,0,right,1,807.5409,807.5409,807.5422,809.0424,0,43,43,43,1,0.2,0.8,0.8,0.2,,,,,,,,,,,,,,,0.3012,,0.8,0.2,0.6,0.4,0.4,0.6,0.6,0.4,,,0.8138,,0.8,0.2,0.2,0.8,0.6,0.4,0.6,0.4,1,0
,,5c5fbade4cc94200016a5c15,66fc97b6736ae44b178e548f,2024-10-01_18h46.26.037,mdp,2024.2.1,Win32,59.88023952,66fa4ebf79326e780c390304,,,,,,,,,,,,,,,,,,,,,809.043,809.043,809.0441,809.9101,0,0,left,0.3341,,809.9116,810.761,1,0,right,810.7625,811.7955,0,0,left,1,811.7957,811.7957,811.7972,813.2971,0,44,44,44,1,0.2,0.8,0.8,0.2,,,,,,,,,,,,,,,0.3341,,0.8,0.2,0.6,0.4,0.4,0.6,0.6,0.4,,,0.5179,,0.8,0.2,0.2,0.8,0.6,0.4,0.6,0.4,1,0
,,5c5fbade4cc94200016a5c15,66fc97b6736ae44b178e548f,2024-10-01_18h46.26.037,mdp,2024.2.1,Win32,59.88023952,66fa4ebf79326e780c390304,,,,,,,,,,,,,,,,,,,,,813.2977,813.2977,813.2992,814.0481,1,1,right,0.221,,814.0496,814.9156,0,0,left,814.9176,815.6666,1,1,right,0,815.6667,815.6667,815.6681,817.168,0,45,45,45,1,0.2,0.8,0.8,0.2,,,,,,,,,,,,,,,0.345,,0.8,0.2,0.6,0.4,0.4,0.6,0.6,0.4,,,0.2434,,0.8,0.2,0.2,0.8,0.6,0.4,0.6,0.4,1,0
,,5c5fbade4cc94200016a5c15,66fc97b6736ae44b178e548f,2024-10-01_18h46.26.037,mdp,2024.2.1,Win32,59.88023952,66fa4ebf79326e780c390304,,,,,,,,,,,,,,,,,,,,,817.1687,817.1687,817.1703,817.9689,0,1,left,0.286,,817.9703,818.7699,0,1,left,818.7712,820.5217,0,0,left,1,820.5217,820.5217,820.5231,822.0232,0,46,46,46,1,0.2,0.8,0.8,0.2,,,,,,,,,,,,,,,0.2852,,0.8,0.2,0.6,0.4,0.4,0.6,0.6,0.4,,,1.2371,,0.8,0.2,0.2,0.8,0.6,0.4,0.6,0.4,1,0
,,5c5fbade4cc94200016a5c15,66fc97b6736ae44b178e548f,2024-10-01_18h46.26.037,mdp,2024.2.1,Win32,59.88023952,66fa4ebf79326e780c390304,,,,,,,,,,,,,,,,,,,,,822.0237,822.0237,822.0249,823.0411,1,0,right,0.4843,,823.0428,824.4259,1,0,right,824.4272,825.5439,1,1,right,0,825.544,825.544,825.5454,827.0453,0,47,47,47,1,0.2,0.8,0.8,0.2,,,,,,,,,,,,,,,0.8733,,0.8,0.2,0.6,0.4,0.4,0.6,0.6,0.4,,,0.5966,,0.8,0.2,0.2,0.8,0.6,0.4,0.6,0.4,1,0
,,5c5fbade4cc94200016a5c15,66fc97b6736ae44b178e548f,2024-10-01_18h46.26.037,mdp,2024.2.1,Win32,59.88023952,66fa4ebf79326e780c390304,,,,,,,,,,,,,,,,,,,,,827.0459,827.0459,827.0471,828.2634,0,1,left,0.7015,,828.2649,829.2312,0,1,left,829.2325,830.9332,1,0,right,1,830.9333,830.9333,830.9348,832.4346,0,48,48,48,1,0.2,0.8,0.8,0.2,,,,,,,,,,,,,,,0.4454,,0.2,0.8,0.8,0.2,0.4,0.6,0.6,0.4,,,1.1861,,0.8,0.2,0.2,0.8,0.6,0.4,0.6,0.4,1,0
,,5c5fbade4cc94200016a5c15,66fc97b6736ae44b178e548f,2024-10-01_18h46.26.037,mdp,2024.2.1,Win32,59.88023952,66fa4ebf79326e780c390304,,,,,,,,,,,,,,,,,,,,,832.4351,832.4351,832.4365,833.5527,0,1,left,0.6014,,833.5543,834.487,0,1,left,834.4886,835.8218,1,1,right,0,835.8219,835.8219,835.8233,837.3233,0,49,49,49,1,0.2,0.8,0.8,0.2,,,,,,,,,,,,,,,0.4187,,0.2,0.8,0.8,0.2,0.6,0.4,0.2,0.8,,,0.827,,0.8,0.2,0.2,0.8,0.6,0.4,0.6,0.4,1,0
,,5c5fbade4cc94200016a5c15,66fc97b6736ae44b178e548f,2024-10-01_18h46.26.037,mdp,2024.2.1,Win32,59.88023952,66fa4ebf79326e780c390304,,,,,,,,,,,,,,,,,,,,,,,,,,,,,,,,,,,,,,,,,,,,,,,,,,,,,,,,837.3235,911.8647,0,2,2,5,1,imgs/kangaroo.png,imgs/lion.png,imgs/horse.png,imgs/rabbit.png,imgs/bear.png,,,,,,,,,,,,,,,,,,,,,,,,
,,5c5fbade4cc94200016a5c15,66fc97b6736ae44b178e548f,2024-10-01_18h46.26.037,mdp,2024.2.1,Win32,59.88023952,66fa4ebf79326e780c390304,,,,,,,,,,,,,,3,seqs/st3seq34.csv,911.8902,913.073,space,0.6579,,913.082,913.082,913.0831,914.8584,1,0,right,1.2411,,914.8598,915.9929,0,0,left,915.9944,917.0608,1,1,right,0,917.0609,917.061,917.0625,918.5624,0,0,0,0,1,0.2,0.8,0.6,0.4,,,,,,,,,,,,,,,0.6116,,0.8,0.2,0.4,0.6,0.8,0.2,0.2,0.8,,,0.5467,,0.8,0.2,0.4,0.6,0.6,0.4,0.8,0.2,1,0
,,5c5fbade4cc94200016a5c15,66fc97b6736ae44b178e548f,2024-10-01_18h46.26.037,mdp,2024.2.1,Win32,59.88023952,66fa4ebf79326e780c390304,,,,,,,,,,,,,,,,,,,,,918.5632,918.5632,918.5646,919.7303,0,1,left,0.6414,,919.7317,920.748,1,1,right,920.7494,921.7658,0,1,left,0,921.766,921.766,921.7677,923.2678,0,1,1,1,1,0.2,0.8,0.6,0.4,,,,,,,,,,,,,,,0.4908,,0.8,0.2,0.4,0.6,0.8,0.2,0.2,0.8,,,0.4936,,0.8,0.2,0.4,0.6,0.6,0.4,0.8,0.2,1,0
,,5c5fbade4cc94200016a5c15,66fc97b6736ae44b178e548f,2024-10-01_18h46.26.037,mdp,2024.2.1,Win32,59.88023952,66fa4ebf79326e780c390304,,,,,,,,,,,,,,,,,,,,,923.2685,923.2685,923.2707,924.3353,1,0,right,0.5412,,924.3368,925.3865,1,1,right,925.3882,926.421,1,1,right,0,926.421,926.421,926.4224,927.9224,0,2,2,2,1,0.2,0.8,0.6,0.4,,,,,,,,,,,,,,,0.5318,,0.8,0.2,0.4,0.6,0.8,0.2,0.2,0.8,,,0.5157,,0.8,0.2,0.4,0.6,0.6,0.4,0.8,0.2,1,0
,,5c5fbade4cc94200016a5c15,66fc97b6736ae44b178e548f,2024-10-01_18h46.26.037,mdp,2024.2.1,Win32,59.88023952,66fa4ebf79326e780c390304,,,,,,,,,,,,,,,,,,,,,927.923,927.923,927.9244,928.8904,1,0,right,0.4345,,928.8919,929.8747,1,1,right,929.8761,930.9425,1,1,right,0,930.9426,930.9426,930.9439,932.4441,0,3,3,3,1,0.2,0.8,0.6,0.4,,,,,,,,,,,,,,,0.4678,,0.8,0.2,0.4,0.6,0.8,0.2,0.2,0.8,,,0.5578,,0.8,0.2,0.4,0.6,0.6,0.4,0.8,0.2,1,0
,,5c5fbade4cc94200016a5c15,66fc97b6736ae44b178e548f,2024-10-01_18h46.26.037,mdp,2024.2.1,Win32,59.88023952,66fa4ebf79326e780c390304,,,,,,,,,,,,,,,,,,,,,932.4448,932.4448,932.446,933.0781,0,1,left,0.1007,,933.0795,934.163,0,0,left,934.1647,935.1639,1,0,right,1,935.164,935.164,935.1654,936.6653,0,4,4,4,1,0.2,0.8,0.6,0.4,,,,,,,,,,,,,,,0.5678,,0.8,0.2,0.4,0.6,0.8,0.2,0.2,0.8,,,0.4801,,0.8,0.2,0.4,0.6,0.6,0.4,0.8,0.2,1,0
,,5c5fbade4cc94200016a5c15,66fc97b6736ae44b178e548f,2024-10-01_18h46.26.037,mdp,2024.2.1,Win32,59.88023952,66fa4ebf79326e780c390304,,,,,,,,,,,,,,,,,,,,,936.6659,936.6659,936.667,937.6999,0,1,left,0.5184,,937.7013,938.6179,1,0,right,938.6197,939.5021,0,0,left,1,939.5023,939.5023,939.5039,941.0036,0,5,5,5,1,0.2,0.8,0.6,0.4,,,,,,,,,,,,,,,0.401,,0.8,0.2,0.4,0.6,0.8,0.2,0.2,0.8,,,0.3689,,0.8,0.2,0.4,0.6,0.6,0.4,0.8,0.2,1,0
,,5c5fbade4cc94200016a5c15,66fc97b6736ae44b178e548f,2024-10-01_18h46.26.037,mdp,2024.2.1,Win32,59.88023952,66fa4ebf79326e780c390304,,,,,,,,,,,,,,,,,,,,,941.0043,941.0043,941.0056,942.0547,0,0,left,0.5259,,942.0561,942.989,1,1,right,942.9904,944.0403,0,0,left,1,944.0404,944.0404,944.0419,945.5417,0,6,6,6,1,0.8,0.2,0.4,0.6,,,,,,,,,,,,,,,0.4119,,0.8,0.2,0.4,0.6,0.8,0.2,0.2,0.8,,,0.5365,,0.8,0.2,0.4,0.6,0.6,0.4,0.8,0.2,1,0
,,5c5fbade4cc94200016a5c15,66fc97b6736ae44b178e548f,2024-10-01_18h46.26.037,mdp,2024.2.1,Win32,59.88023952,66fa4ebf79326e780c390304,,,,,,,,,,,,,,,,,,,,,945.5423,945.5423,945.544,947.0604,0,0,left,0.9906,,947.0619,947.9778,1,1,right,947.9792,949.0792,0,0,left,1,949.0792,949.0792,949.081,950.5806,0,7,7,7,1,0.8,0.2,0.4,0.6,,,,,,,,,,,,,,,0.4021,,0.8,0.2,0.4,0.6,0.8,0.2,0.2,0.8,,,0.5852,,0.8,0.2,0.4,0.6,0.6,0.4,0.8,0.2,1,0
,,5c5fbade4cc94200016a5c15,66fc97b6736ae44b178e548f,2024-10-01_18h46.26.037,mdp,2024.2.1,Win32,59.88023952,66fa4ebf79326e780c390304,,,,,,,,,,,,,,,,,,,,,950.5812,950.5812,950.5825,951.7321,0,1,left,0.6181,,951.7335,952.5496,1,1,right,952.5509,953.6006,0,0,left,1,953.6007,953.6007,953.6022,955.1021,0,8,8,8,1,0.8,0.2,0.4,0.6,,,,,,,,,,,,,,,0.2955,,0.8,0.2,0.4,0.6,0.8,0.2,0.2,0.8,,,0.5393,,0.8,0.2,0.4,0.6,0.6,0.4,0.8,0.2,1,0
,,5c5fbade4cc94200016a5c15,66fc97b6736ae44b178e548f,2024-10-01_18h46.26.037,mdp,2024.2.1,Win32,59.88023952,66fa4ebf79326e780c390304,,,,,,,,,,,,,,,,,,,,,955.1027,955.1027,955.1039,957.2046,1,1,right,1.5688,,957.2061,958.0223,0,0,left,958.0237,958.8397,1,0,right,1,958.8398,958.8398,958.841,960.3413,0,9,9,9,1,0.8,0.2,0.4,0.6,,,,,,,,,,,,,,,0.3041,,0.8,0.2,0.4,0.6,0.8,0.2,0.2,0.8,,,0.3045,,0.8,0.2,0.4,0.6,0.6,0.4,0.8,0.2,1,0
,,5c5fbade4cc94200016a5c15,66fc97b6736ae44b178e548f,2024-10-01_18h46.26.037,mdp,2024.2.1,Win32,59.88023952,66fa4ebf79326e780c390304,,,,,,,,,,,,,,,,,,,,,960.3418,960.3419,960.343,960.9253,0,0,left,0.0551,,960.9268,961.793,1,1,right,961.7942,962.6106,0,1,left,0,962.6107,962.6107,962.6121,964.112,0,10,10,10,1,0.8,0.2,0.4,0.6,,,,,,,,,,,,,,,0.3452,,0.8,0.2,0.4,0.6,0.8,0.2,0.2,0.8,,,0.2967,,0.8,0.2,0.4,0.6,0.6,0.4,0.8,0.2,1,0
,,5c5fbade4cc94200016a5c15,66fc97b6736ae44b178e548f,2024-10-01_18h46.26.037,mdp,2024.2.1,Win32,59.88023952,66fa4ebf79326e780c390304,,,,,,,,,,,,,,,,,,,,,964.1126,964.1126,964.1139,964.6962,0,0,left,0.0694,,964.6977,965.764,1,1,right,965.7653,966.6316,0,1,left,0,966.6316,966.6317,966.633,968.1331,0,11,11,11,1,0.8,0.2,0.4,0.6,,,,,,,,,,,,,,,0.5594,,0.8,0.2,0.4,0.6,0.8,0.2,0.2,0.8,,,0.3503,,0.8,0.2,0.4,0.6,0.6,0.4,0.8,0.2,1,0
,,5c5fbade4cc94200016a5c15,66fc97b6736ae44b178e548f,2024-10-01_18h46.26.037,mdp,2024.2.1,Win32,59.88023952,66fa4ebf79326e780c390304,,,,,,,,,,,,,,,,,,,,,968.1337,968.1337,968.1349,968.8005,0,1,left,0.1338,,968.8019,969.7017,0,0,left,969.7033,970.6861,0,0,left,1,970.6861,970.6861,970.6876,972.1876,0,12,12,12,1,0.8,0.2,0.4,0.6,,,,,,,,,,,,,,,0.3792,,0.8,0.2,0.4,0.6,0.8,0.2,0.2,0.8,,,0.4281,,0.8,0.2,0.4,0.6,0.6,0.4,0.8,0.2,1,0
,,5c5fbade4cc94200016a5c15,66fc97b6736ae44b178e548f,2024-10-01_18h46.26.037,mdp,2024.2.1,Win32,59.88023952,66fa4ebf79326e780c390304,,,,,,,,,,,,,,,,,,,,,972.1882,972.1882,972.1895,973.3224,0,1,left,0.6016,,973.3245,974.2067,0,0,left,974.2083,975.1743,0,0,left,1,975.1744,975.1744,975.1768,976.6759,0,13,13,13,1,0.8,0.2,0.4,0.6,,,,,,,,,,,,,,,0.3683,,0.8,0.2,0.4,0.6,0.8,0.2,0.2,0.8,,,0.4586,,0.8,0.2,0.4,0.6,0.2,0.8,0.4,0.6,1,0
,,5c5fbade4cc94200016a5c15,66fc97b6736ae44b178e548f,2024-10-01_18h46.26.037,mdp,2024.2.1,Win32,59.88023952,66fa4ebf79326e780c390304,,,,,,,,,,,,,,,,,,,,,976.6768,976.6768,976.6784,977.6436,1,1,right,0.4396,,977.6452,978.5113,1,1,right,978.513,979.3957,1,1,right,0,979.3959,979.3959,979.3979,980.8973,0,14,14,14,1,0.8,0.2,0.4,0.6,,,,,,,,,,,,,,,0.3594,,0.8,0.2,0.4,0.6,0.8,0.2,0.2,0.8,,,0.363,,0.8,0.2,0.4,0.6,0.2,0.8,0.4,0.6,1,0
,,5c5fbade4cc94200016a5c15,66fc97b6736ae44b178e548f,2024-10-01_18h46.26.037,mdp,2024.2.1,Win32,59.88023952,66fa4ebf79326e780c390304,,,,,,,,,,,,,,,,,,,,,980.8981,980.8981,980.8999,981.4812,0,1,left,0.0555,,981.483,982.3154,0,1,left,982.3169,983.1835,0,1,left,0,983.1836,983.1836,983.1857,984.6845,0,15,15,15,1,0.8,0.2,0.4,0.6,,,,,,,,,,,,,,,0.3173,,0.8,0.2,0.4,0.6,0.8,0.2,0.2,0.8,,,0.3523,,0.8,0.2,0.4,0.6,0.2,0.8,0.4,0.6,1,0
,,5c5fbade4cc94200016a5c15,66fc97b6736ae44b178e548f,2024-10-01_18h46.26.037,mdp,2024.2.1,Win32,59.88023952,66fa4ebf79326e780c390304,,,,,,,,,,,,,,,,,,,,,984.6851,984.6851,984.6864,985.3022,1,1,right,0.0923,,985.3037,986.153,0,0,left,986.1548,987.0038,1,1,right,0,987.0039,987.0039,987.0054,988.5055,0,16,16,16,1,0.8,0.2,0.4,0.6,,,,,,,,,,,,,,,0.3341,,0.8,0.2,0.4,0.6,0.8,0.2,0.2,0.8,,,0.3299,,0.8,0.2,0.4,0.6,0.2,0.8,0.4,0.6,1,0
,,5c5fbade4cc94200016a5c15,66fc97b6736ae44b178e548f,2024-10-01_18h46.26.037,mdp,2024.2.1,Win32,59.88023952,66fa4ebf79326e780c390304,,,,,,,,,,,,,,,,,,,,,988.5061,988.5061,988.5076,989.7736,0,0,left,0.739,,989.7751,990.925,0,0,left,990.9266,991.8594,0,1,left,0,991.8595,991.8595,991.861,993.3608,0,17,17,17,1,0.8,0.2,0.4,0.6,,,,,,,,,,,,,,,0.6267,,0.8,0.2,0.4,0.6,0.8,0.2,0.2,0.8,,,0.4174,,0.8,0.2,0.4,0.6,0.2,0.8,0.4,0.6,1,0
,,5c5fbade4cc94200016a5c15,66fc97b6736ae44b178e548f,2024-10-01_18h46.26.037,mdp,2024.2.1,Win32,59.88023952,66fa4ebf79326e780c390304,,,,,,,,,,,,,,,,,,,,,993.3614,993.3614,993.3626,994.7791,1,1,right,0.8916,,994.7805,995.6133,0,1,left,995.6148,996.531,1,1,right,0,996.5312,996.5312,996.5325,998.0325,0,18,18,18,1,0.8,0.2,0.4,0.6,,,,,,,,,,,,,,,0.3124,,0.8,0.2,0.4,0.6,0.4,0.6,0.4,0.6,,,0.3977,,0.8,0.2,0.4,0.6,0.2,0.8,0.4,0.6,1,0
,,5c5fbade4cc94200016a5c15,66fc97b6736ae44b178e548f,2024-10-01_18h46.26.037,mdp,2024.2.1,Win32,59.88023952,66fa4ebf79326e780c390304,,,,,,,,,,,,,,,,,,,,,998.033,998.033,998.0342,999.0336,0,1,left,0.4759,,999.0351,999.8348,0,0,left,999.8363,1000.6021,1,1,right,0,1000.6023,1000.6023,1000.6036,1002.1037,0,19,19,19,1,0.8,0.2,0.4,0.6,,,,,,,,,,,,,,,0.2841,,0.8,0.2,0.4,0.6,0.4,0.6,0.4,0.6,,,0.2442,,0.8,0.2,0.4,0.6,0.2,0.8,0.4,0.6,1,0
,,5c5fbade4cc94200016a5c15,66fc97b6736ae44b178e548f,2024-10-01_18h46.26.037,mdp,2024.2.1,Win32,59.88023952,66fa4ebf79326e780c390304,,,,,,,,,,,,,,,,,,,,,1002.1043,1002.1043,1002.1057,1002.671,0,0,left,0.0375,,1002.6724,1003.6721,0,0,left,1003.6735,1004.4731,0,0,left,1,1004.4732,1004.4732,1004.475,1005.9755,0,20,20,20,1,0.8,0.2,0.4,0.6,,,,,,,,,,,,,,,0.4817,,0.8,0.2,0.4,0.6,0.4,0.6,0.4,0.6,,,0.2855,,0.8,0.2,0.4,0.6,0.2,0.8,0.4,0.6,1,0
,,5c5fbade4cc94200016a5c15,66fc97b6736ae44b178e548f,2024-10-01_18h46.26.037,mdp,2024.2.1,Win32,59.88023952,66fa4ebf79326e780c390304,,,,,,,,,,,,,,,,,,,,,1005.9761,1005.9761,1005.9775,1006.9758,1,1,right,0.4693,,1006.9775,1007.8267,0,1,left,1007.8282,1008.6443,0,0,left,1,1008.6444,1008.6444,1008.6456,1010.1459,0,21,21,21,1,0.8,0.2,0.4,0.6,,,,,,,,,,,,,,,0.3327,,0.8,0.2,0.4,0.6,0.4,0.6,0.4,0.6,,,0.2935,,0.8,0.2,0.4,0.6,0.2,0.8,0.4,0.6,1,0
,,5c5fbade4cc94200016a5c15,66fc97b6736ae44b178e548f,2024-10-01_18h46.26.037,mdp,2024.2.1,Win32,59.88023952,66fa4ebf79326e780c390304,,,,,,,,,,,,,,,,,,,,,1010.1465,1010.1465,1010.1478,1011.1803,0,0,left,0.5008,,1011.1817,1011.9646,1,0,right,1011.9662,1012.7825,1,1,right,0,1012.7825,1012.7825,1012.7845,1014.2837,0,22,22,22,1,0.8,0.2,0.4,0.6,,,,,,,,,,,,,,,0.2641,,0.8,0.2,0.4,0.6,0.4,0.6,0.4,0.6,,,0.3028,,0.8,0.2,0.4,0.6,0.2,0.8,0.4,0.6,1,0
,,5c5fbade4cc94200016a5c15,66fc97b6736ae44b178e548f,2024-10-01_18h46.26.037,mdp,2024.2.1,Win32,59.88023952,66fa4ebf79326e780c390304,,,,,,,,,,,,,,,,,,,,,1014.2843,1014.2843,1014.2856,1014.8344,0,0,left,0.0199,,1014.836,1015.6854,1,1,right,1015.6869,1016.5695,0,1,left,0,1016.5696,1016.5696,1016.571,1018.0711,0,23,23,23,1,0.8,0.2,0.4,0.6,,,,,,,,,,,,,,,0.3342,,0.8,0.2,0.4,0.6,0.4,0.6,0.4,0.6,,,0.3633,,0.4,0.6,0.8,0.2,0.2,0.8,0.4,0.6,1,0
,,5c5fbade4cc94200016a5c15,66fc97b6736ae44b178e548f,2024-10-01_18h46.26.037,mdp,2024.2.1,Win32,59.88023952,66fa4ebf79326e780c390304,,,,,,,,,,,,,,,,,,,,,1018.0717,1018.0717,1018.073,1018.9055,1,0,right,0.3092,,1018.907,1020.0569,0,0,left,1020.0584,1020.9077,0,1,left,0,1020.9078,1020.9078,1020.909,1022.4092,0,24,24,24,1,0.8,0.2,0.4,0.6,,,,,,,,,,,,,,,0.6349,,0.8,0.2,0.4,0.6,0.4,0.6,0.4,0.6,,,0.3339,,0.4,0.6,0.8,0.2,0.2,0.8,0.4,0.6,1,0
,,5c5fbade4cc94200016a5c15,66fc97b6736ae44b178e548f,2024-10-01_18h46.26.037,mdp,2024.2.1,Win32,59.88023952,66fa4ebf79326e780c390304,,,,,,,,,,,,,,,,,,,,,1022.4097,1022.4097,1022.4108,1023.3769,1,1,right,0.4341,,1023.3784,1024.328,1,1,right,1024.3294,1025.1793,1,1,right,0,1025.1794,1025.1794,1025.1807,1026.6806,0,25,25,25,1,0.8,0.2,0.4,0.6,,,,,,,,,,,,,,,0.429,,0.8,0.2,0.4,0.6,0.4,0.6,0.4,0.6,,,0.3297,,0.4,0.6,0.8,0.2,0.2,0.8,0.4,0.6,1,0
,,5c5fbade4cc94200016a5c15,66fc97b6736ae44b178e548f,2024-10-01_18h46.26.037,mdp,2024.2.1,Win32,59.88023952,66fa4ebf79326e780c390304,,,,,,,,,,,,,,,,,,,,,1026.6811,1026.6811,1026.6824,1028.0654,1,1,right,0.8756,,1028.0669,1028.9165,0,1,left,1028.918,1029.8508,1,0,right,1,1029.8509,1029.8509,1029.8521,1031.3524,0,26,26,26,1,0.8,0.2,0.4,0.6,,,,,,,,,,,,,,,0.3371,,0.8,0.2,0.4,0.6,0.4,0.6,0.4,0.6,,,0.4249,,0.4,0.6,0.8,0.2,0.2,0.8,0.4,0.6,1,0
,,5c5fbade4cc94200016a5c15,66fc97b6736ae44b178e548f,2024-10-01_18h46.26.037,mdp,2024.2.1,Win32,59.88023952,66fa4ebf79326e780c390304,,,,,,,,,,,,,,,,,,,,,1031.3529,1031.3529,1031.3542,1032.6872,1,0,right,0.8176,,1032.6884,1033.7385,0,0,left,1033.7399,1034.7062,1,0,right,1,1034.7063,1034.7063,1034.7078,1036.2077,0,27,27,27,1,0.8,0.2,0.4,0.6,,,,,,,,,,,,,,,0.5292,,0.8,0.2,0.4,0.6,0.4,0.6,0.4,0.6,,,0.4465,,0.4,0.6,0.8,0.2,0.6,0.4,0.2,0.8,1,0
,,5c5fbade4cc94200016a5c15,66fc97b6736ae44b178e548f,2024-10-01_18h46.26.037,mdp,2024.2.1,Win32,59.88023952,66fa4ebf79326e780c390304,,,,,,,,,,,,,,,,,,,,,1036.2083,1036.2083,1036.2096,1037.2255,0,0,left,0.4918,,1037.227,1038.1932,0,0,left,1038.1945,1039.1108,1,0,right,1,1039.1109,1039.1109,1039.1126,1040.6124,0,28,28,28,1,0.8,0.2,0.4,0.6,,,,,,,,,,,,,,,0.4558,,0.8,0.2,0.4,0.6,0.4,0.6,0.4,0.6,,,0.4017,,0.4,0.6,0.8,0.2,0.6,0.4,0.2,0.8,1,0
,,5c5fbade4cc94200016a5c15,66fc97b6736ae44b178e548f,2024-10-01_18h46.26.037,mdp,2024.2.1,Win32,59.88023952,66fa4ebf79326e780c390304,,,,,,,,,,,,,,,,,,,,,1040.6129,1040.6129,1040.6143,1042.2478,0,1,left,1.1058,,1042.2492,1043.2491,0,0,left,1043.2511,1044.1334,1,0,right,1,1044.1335,1044.1335,1044.1349,1045.6347,0,29,29,29,1,0.8,0.2,0.4,0.6,,,,,,,,,,,,,,,0.4804,,0.8,0.2,0.4,0.6,0.4,0.6,0.4,0.6,,,0.3609,,0.4,0.6,0.8,0.2,0.6,0.4,0.2,0.8,1,0
,,5c5fbade4cc94200016a5c15,66fc97b6736ae44b178e548f,2024-10-01_18h46.26.037,mdp,2024.2.1,Win32,59.88023952,66fa4ebf79326e780c390304,,,,,,,,,,,,,,,,,,,,,1045.6352,1045.6352,1045.6366,1046.4524,0,0,left,0.2891,,1046.454,1047.1701,1,0,right,1047.1718,1047.9873,0,1,left,0,1047.9874,1047.9874,1047.9888,1049.4888,0,30,30,30,1,0.8,0.2,0.4,0.6,,,,,,,,,,,,,,,0.1969,,0.8,0.2,0.4,0.6,0.4,0.6,0.4,0.6,,,0.3059,,0.4,0.6,0.8,0.2,0.6,0.4,0.2,0.8,1,0
,,5c5fbade4cc94200016a5c15,66fc97b6736ae44b178e548f,2024-10-01_18h46.26.037,mdp,2024.2.1,Win32,59.88023952,66fa4ebf79326e780c390304,,,,,,,,,,,,,,,,,,,,,1049.4895,1049.4895,1049.4911,1050.0395,0,0,left,0.0197,,1050.0409,1050.9406,1,1,right,1050.9417,1052.2255,1,0,right,1,1052.2256,1052.2256,1052.2266,1053.7269,0,31,31,31,1,0.8,0.2,0.4,0.6,,,,,,,,,,,,,,,0.3858,,0.8,0.2,0.4,0.6,0.4,0.6,0.4,0.6,,,0.7614,,0.4,0.6,0.8,0.2,0.6,0.4,0.2,0.8,1,0
,,5c5fbade4cc94200016a5c15,66fc97b6736ae44b178e548f,2024-10-01_18h46.26.037,mdp,2024.2.1,Win32,59.88023952,66fa4ebf79326e780c390304,,,,,,,,,,,,,,,,,,,,,1053.7274,1053.7274,1053.7286,1054.8782,1,1,right,0.6224,,1054.8796,1055.6623,0,1,left,1055.6638,1056.5635,0,0,left,1,1056.5636,1056.5637,1056.565,1058.0649,0,32,32,32,1,0.8,0.2,0.4,0.6,,,,,,,,,,,,,,,0.2611,,0.8,0.2,0.4,0.6,0.4,0.6,0.4,0.6,,,0.3914,,0.4,0.6,0.8,0.2,0.6,0.4,0.2,0.8,1,0
,,5c5fbade4cc94200016a5c15,66fc97b6736ae44b178e548f,2024-10-01_18h46.26.037,mdp,2024.2.1,Win32,59.88023952,66fa4ebf79326e780c390304,,,,,,,,,,,,,,,,,,,,,1058.0654,1058.0654,1058.0668,1058.9327,1,1,right,0.3342,,1058.9354,1059.7335,0,0,left,1059.7349,1060.5511,1,0,right,1,1060.5513,1060.5513,1060.5528,1062.0529,0,33,33,33,1,0.8,0.2,0.4,0.6,,,,,,,,,,,,,,,0.2915,,0.8,0.2,0.4,0.6,0.4,0.6,0.4,0.6,,,0.2927,,0.4,0.6,0.8,0.2,0.6,0.4,0.2,0.8,1,0
,,5c5fbade4cc94200016a5c15,66fc97b6736ae44b178e548f,2024-10-01_18h46.26.037,mdp,2024.2.1,Win32,59.88023952,66fa4ebf79326e780c390304,,,,,,,,,,,,,,,,,,,,,1062.0535,1062.0535,1062.0548,1062.887,0,1,left,0.3049,,1062.8885,1063.955,1,1,right,1063.9567,1064.7056,0,1,left,0,1064.7057,1064.7058,1064.7071,1066.2072,0,34,34,34,1,0.8,0.2,0.4,0.6,,,,,,,,,,,,,,,0.5537,,0.8,0.2,0.4,0.6,0.4,0.6,0.4,0.6,,,0.2293,,0.4,0.6,0.8,0.2,0.6,0.4,0.2,0.8,1,0
,,5c5fbade4cc94200016a5c15,66fc97b6736ae44b178e548f,2024-10-01_18h46.26.037,mdp,2024.2.1,Win32,59.88023952,66fa4ebf79326e780c390304,,,,,,,,,,,,,,,,,,,,,1066.2079,1066.2079,1066.2095,1067.0582,0,0,left,0.3173,,1067.0596,1067.859,1,0,right,1067.8604,1068.6268,0,0,left,1,1068.6269,1068.627,1068.6283,1070.1281,0,35,35,35,1,0.8,0.2,0.4,0.6,,,,,,,,,,,,,,,0.278,,0.8,0.2,0.4,0.6,0.4,0.6,0.4,0.6,,,0.2489,,0.4,0.6,0.8,0.2,0.4,0.6,0.4,0.6,1,0
,,5c5fbade4cc94200016a5c15,66fc97b6736ae44b178e548f,2024-10-01_18h46.26.037,mdp,2024.2.1,Win32,59.88023952,66fa4ebf79326e780c390304,,,,,,,,,,,,,,,,,,,,,1070.1286,1070.1286,1070.1299,1071.5298,0,0,left,0.8778,,1071.5311,1072.4308,1,1,right,1072.4324,1073.3484,0,0,left,1,1073.3485,1073.3485,1073.3503,1074.85,0,36,36,36,1,0.8,0.2,0.4,0.6,,,,,,,,,,,,,,,0.3848,,0.8,0.2,0.4,0.6,0.4,0.6,0.4,0.6,,,0.3966,,0.4,0.6,0.8,0.2,0.4,0.6,0.4,0.6,1,0
,,5c5fbade4cc94200016a5c15,66fc97b6736ae44b178e548f,2024-10-01_18h46.26.037,mdp,2024.2.1,Win32,59.88023952,66fa4ebf79326e780c390304,,,,,,,,,,,,,,,,,,,,,1074.8504,1074.8504,1074.8517,1075.4006,1,1,right,0.0266,,1075.402,1076.3016,1,1,right,1076.303,1077.3027,0,0,left,1,1077.3027,1077.3028,1077.304,1078.8042,0,37,37,37,1,0.8,0.2,0.4,0.6,,,,,,,,,,,,,,,0.3871,,0.8,0.2,0.4,0.6,0.4,0.6,0.4,0.6,,,0.4911,,0.4,0.6,0.8,0.2,0.4,0.6,0.4,0.6,1,0
,,5c5fbade4cc94200016a5c15,66fc97b6736ae44b178e548f,2024-10-01_18h46.26.037,mdp,2024.2.1,Win32,59.88023952,66fa4ebf79326e780c390304,,,,,,,,,,,,,,,,,,,,,1078.8047,1078.8047,1078.8061,1079.8387,0,0,left,0.5212,,1079.8402,1080.7734,0,0,left,1080.7751,1081.7742,1,1,right,0,1081.7743,1081.7743,1081.7757,1083.2758,0,38,38,38,1,0.8,0.2,0.4,0.6,,,,,,,,,,,,,,,0.4175,,0.8,0.2,0.4,0.6,0.4,0.6,0.4,0.6,,,0.4786,,0.4,0.6,0.8,0.2,0.4,0.6,0.4,0.6,1,0
,,5c5fbade4cc94200016a5c15,66fc97b6736ae44b178e548f,2024-10-01_18h46.26.037,mdp,2024.2.1,Win32,59.88023952,66fa4ebf79326e780c390304,,,,,,,,,,,,,,,,,,,,,1083.2763,1083.2763,1083.2776,1084.1935,1,1,right,0.3927,,1084.1948,1085.0445,0,0,left,1085.0459,1085.9289,0,0,left,1,1085.9289,1085.929,1085.9302,1087.4305,0,39,39,39,1,0.8,0.2,0.4,0.6,,,,,,,,,,,,,,,0.3293,,0.8,0.2,0.4,0.6,0.6,0.4,0.6,0.4,,,0.367,,0.4,0.6,0.8,0.2,0.4,0.6,0.4,0.6,1,0
,,5c5fbade4cc94200016a5c15,66fc97b6736ae44b178e548f,2024-10-01_18h46.26.037,mdp,2024.2.1,Win32,59.88023952,66fa4ebf79326e780c390304,,,,,,,,,,,,,,,,,,,,,1087.4311,1087.4311,1087.4326,1088.3314,1,0,right,0.3768,,1088.3327,1089.2659,0,0,left,1089.2673,1090.0499,1,1,right,0,1090.05,1090.05,1090.0513,1091.5516,0,40,40,40,1,0.2,0.8,0.6,0.4,,,,,,,,,,,,,,,0.4135,,0.8,0.2,0.4,0.6,0.6,0.4,0.6,0.4,,,0.2706,,0.4,0.6,0.8,0.2,0.4,0.6,0.4,0.6,1,0
,,5c5fbade4cc94200016a5c15,66fc97b6736ae44b178e548f,2024-10-01_18h46.26.037,mdp,2024.2.1,Win32,59.88023952,66fa4ebf79326e780c390304,,,,,,,,,,,,,,,,,,,,,1091.5522,1091.5522,1091.5536,1092.3525,0,1,left,0.2663,,1092.3538,1093.2369,0,0,left,1093.2382,1094.0717,1,0,right,1,1094.0718,1094.0718,1094.0733,1095.5726,0,41,41,41,1,0.2,0.8,0.6,0.4,,,,,,,,,,,,,,,0.3628,,0.8,0.2,0.4,0.6,0.6,0.4,0.6,0.4,,,0.3177,,0.4,0.6,0.8,0.2,0.4,0.6,0.4,0.6,1,0
,,5c5fbade4cc94200016a5c15,66fc97b6736ae44b178e548f,2024-10-01_18h46.26.037,mdp,2024.2.1,Win32,59.88023952,66fa4ebf79326e780c390304,,,,,,,,,,,,,,,,,,,,,1095.5732,1095.5733,1095.5747,1096.4072,1,0,right,0.3163,,1096.4086,1097.2579,1,0,right,1097.2591,1098.1922,0,1,left,0,1098.1923,1098.1924,1098.1937,1099.694,0,42,42,42,1,0.2,0.8,0.6,0.4,,,,,,,,,,,,,,,0.3335,,0.8,0.2,0.4,0.6,0.6,0.4,0.6,0.4,,,0.4219,,0.4,0.6,0.8,0.2,0.4,0.6,0.4,0.6,1,0
,,5c5fbade4cc94200016a5c15,66fc97b6736ae44b178e548f,2024-10-01_18h46.26.037,mdp,2024.2.1,Win32,59.88023952,66fa4ebf79326e780c390304,,,,,,,,,,,,,,,,,,,,,1099.6947,1099.6947,1099.6961,1100.9285,1,0,right,0.7096,,1100.9299,1101.6626,0,0,left,1101.664,1102.547,1,0,right,1,1102.5471,1102.5471,1102.5484,1104.0485,0,43,43,43,1,0.2,0.8,0.6,0.4,,,,,,,,,,,,,,,0.2234,,0.8,0.2,0.4,0.6,0.6,0.4,0.6,0.4,,,0.3672,,0.4,0.6,0.8,0.2,0.4,0.6,0.4,0.6,1,0
,,5c5fbade4cc94200016a5c15,66fc97b6736ae44b178e548f,2024-10-01_18h46.26.037,mdp,2024.2.1,Win32,59.88023952,66fa4ebf79326e780c390304,,,,,,,,,,,,,,,,,,,,,1104.0491,1104.0491,1104.0503,1105.4668,1,0,right,0.8845,,1105.4681,1106.2178,1,1,right,1106.2193,1107.1524,0,1,left,0,1107.1526,1107.1526,1107.1544,1108.6535,0,44,44,44,1,0.2,0.8,0.6,0.4,,,,,,,,,,,,,,,0.234,,0.8,0.2,0.4,0.6,0.8,0.2,0.8,0.2,,,0.4137,,0.4,0.6,0.8,0.2,0.4,0.6,0.4,0.6,1,0
,,5c5fbade4cc94200016a5c15,66fc97b6736ae44b178e548f,2024-10-01_18h46.26.037,mdp,2024.2.1,Win32,59.88023952,66fa4ebf79326e780c390304,,,,,,,,,,,,,,,,,,,,,1108.654,1108.654,1108.6552,1109.2377,0,1,left,0.0521,,1109.2393,1110.2221,1,0,right,1110.2235,1111.1899,0,1,left,0,1111.19,1111.19,1111.1912,1112.6915,0,45,45,45,1,0.2,0.8,0.6,0.4,,,,,,,,,,,,,,,0.4687,,0.8,0.2,0.4,0.6,0.8,0.2,0.8,0.2,,,0.4531,,0.4,0.6,0.8,0.2,0.4,0.6,0.4,0.6,1,0
,,5c5fbade4cc94200016a5c15,66fc97b6736ae44b178e548f,2024-10-01_18h46.26.037,mdp,2024.2.1,Win32,59.88023952,66fa4ebf79326e780c390304,,,,,,,,,,,,,,,,,,,,,1112.692,1112.6921,1112.6936,1113.5091,0,1,left,0.2834,,1113.5105,1114.3099,0,0,left,1114.3114,1115.144,1,0,right,1,1115.1441,1115.1441,1115.1454,1116.6456,0,46,46,46,1,0.2,0.8,0.6,0.4,,,,,,,,,,,,,,,0.2913,,0.8,0.2,0.4,0.6,0.8,0.2,0.8,0.2,,,0.3178,,0.4,0.6,0.8,0.2,0.4,0.6,0.4,0.6,1,0
,,5c5fbade4cc94200016a5c15,66fc97b6736ae44b178e548f,2024-10-01_18h46.26.037,mdp,2024.2.1,Win32,59.88023952,66fa4ebf79326e780c390304,,,,,,,,,,,,,,,,,,,,,1116.6462,1116.6462,1116.6474,1118.0141,0,1,left,0.84,,1118.0156,1118.8982,1,0,right,1118.8994,1120.4,1,0,right,1,1120.4001,1120.4001,1120.4016,1121.9014,0,47,47,47,1,0.2,0.8,0.6,0.4,,,,,,,,,,,,,,,0.3749,,0.8,0.2,0.4,0.6,0.8,0.2,0.8,0.2,,,0.9851,,0.4,0.6,0.8,0.2,0.4,0.6,0.4,0.6,1,0
,,5c5fbade4cc94200016a5c15,66fc97b6736ae44b178e548f,2024-10-01_18h46.26.037,mdp,2024.2.1,Win32,59.88023952,66fa4ebf79326e780c390304,,,,,,,,,,,,,,,,,,,,,1121.902,1121.902,1121.9032,1122.936,0,1,left,0.5037,,1122.9375,1123.9039,0,1,left,1123.9055,1124.8549,1,1,right,0,1124.855,1124.855,1124.8563,1126.3564,0,48,48,48,1,0.2,0.8,0.6,0.4,,,,,,,,,,,,,,,0.4511,,0.8,0.2,0.4,0.6,0.8,0.2,0.8,0.2,,,0.431,,0.4,0.6,0.8,0.2,0.4,0.6,0.4,0.6,1,0
,,5c5fbade4cc94200016a5c15,66fc97b6736ae44b178e548f,2024-10-01_18h46.26.037,mdp,2024.2.1,Win32,59.88023952,66fa4ebf79326e780c390304,,,,,,,,,,,,,,,,,,,,,1126.3571,1126.3571,1126.3587,1127.2243,0,1,left,0.3344,,1127.2257,1128.1251,0,0,left,1128.1265,1128.8426,1,0,right,1,1128.8428,1128.8428,1128.8442,1130.3441,0,49,49,49,1,0.2,0.8,0.6,0.4,,,,,,,,,,,,,,,0.3841,,0.8,0.2,0.4,0.6,0.8,0.2,0.8,0.2,,,0.2043,,0.4,0.6,0.8,0.2,0.4,0.6,0.4,0.6,1,0
,,5c5fbade4cc94200016a5c15,66fc97b6736ae44b178e548f,2024-10-01_18h46.26.037,mdp,2024.2.1,Win32,59.88023952,66fa4ebf79326e780c390304,,,,,,,,,,,,,,,,,,,,,,,,,,,,,,,,,,,,,,,,,,,,,,,,,,,,,,,,1130.3442,1224.6407,0,3,3,8,1,imgs/elephant.png,imgs/dog.png,imgs/goat.png,imgs/lion.png,imgs/pig.png,,,,,,,,,,,,,,,,,,,,,,,,
,,5c5fbade4cc94200016a5c15,66fc97b6736ae44b178e548f,2024-10-01_18h46.26.037,mdp,2024.2.1,Win32,59.88023952,66fa4ebf79326e780c390304,,,,,,,,,,,,,,1,seqs/st1seq20.csv,1224.6653,1226.2992,space,1.1175,,1226.3026,1226.3026,1226.3035,1227.5004,1,0,right,0.6521,,1227.5018,1227.5025,0,1,,1227.5034,1227.504,1,1,,1,1227.504,1227.504,1227.5048,1229.002,0,0,0,0,1,0.6,0.4,0.4,0.6,1,0,,,,,,,,,,,,,,,,,,,,,,,,,,,,,,,,,,,,
,,5c5fbade4cc94200016a5c15,66fc97b6736ae44b178e548f,2024-10-01_18h46.26.037,mdp,2024.2.1,Win32,59.88023952,66fa4ebf79326e780c390304,,,,,,,,,,,,,,,,,,,,,1229.0025,1229.0025,1229.0036,1229.8863,0,1,left,0.3745,,1229.8877,1229.8885,0,0,,1229.8892,1229.8898,1,0,,0,1229.8899,1229.8899,1229.8905,1231.3879,0,1,1,1,1,0.6,0.4,0.4,0.6,1,0,,,,,,,,,,,,,,,,,,,,,,,,,,,,,,,,,,,,
,,5c5fbade4cc94200016a5c15,66fc97b6736ae44b178e548f,2024-10-01_18h46.26.037,mdp,2024.2.1,Win32,59.88023952,66fa4ebf79326e780c390304,,,,,,,,,,,,,,,,,,,,,1231.3884,1231.3884,1231.3896,1234.1749,0,0,left,2.2727,,1234.177,1234.178,0,0,,1234.1791,1234.1799,1,0,,1,1234.18,1234.18,1234.1814,1235.6761,0,2,2,2,1,0.6,0.4,0.4,0.6,1,0,,,,,,,,,,,,,,,,,,,,,,,,,,,,,,,,,,,,
,,5c5fbade4cc94200016a5c15,66fc97b6736ae44b178e548f,2024-10-01_18h46.26.037,mdp,2024.2.1,Win32,59.88023952,66fa4ebf79326e780c390304,,,,,,,,,,,,,,,,,,,,,1235.6765,1235.6766,1235.6778,1236.3601,0,0,left,0.1551,,1236.3615,1236.3622,0,1,,1236.3631,1236.3636,1,1,,1,1236.3637,1236.3637,1236.3643,1237.8616,0,3,3,3,1,0.6,0.4,0.4,0.6,1,0,,,,,,,,,,,,,,,,,,,,,,,,,,,,,,,,,,,,
,,5c5fbade4cc94200016a5c15,66fc97b6736ae44b178e548f,2024-10-01_18h46.26.037,mdp,2024.2.1,Win32,59.88023952,66fa4ebf79326e780c390304,,,,,,,,,,,,,,,,,,,,,1237.8621,1237.8621,1237.8633,1239.2468,0,1,left,0.8749,,1239.2485,1239.2492,0,0,,1239.2502,1239.2508,1,1,,0,1239.2509,1239.251,1239.2517,1240.7481,0,4,4,4,1,0.6,0.4,0.4,0.6,1,0,,,,,,,,,,,,,,,,,,,,,,,,,,,,,,,,,,,,
,,5c5fbade4cc94200016a5c15,66fc97b6736ae44b178e548f,2024-10-01_18h46.26.037,mdp,2024.2.1,Win32,59.88023952,66fa4ebf79326e780c390304,,,,,,,,,,,,,,,,,,,,,1240.7485,1240.7486,1240.75,1242.2165,1,1,right,0.9575,,1242.2179,1242.2186,0,1,,1242.2194,1242.2199,1,1,,0,1242.22,1242.22,1242.2206,1243.7181,0,5,5,5,1,0.6,0.4,0.4,0.6,1,0,,,,,,,,,,,,,,,,,,,,,,,,,,,,,,,,,,,,
,,5c5fbade4cc94200016a5c15,66fc97b6736ae44b178e548f,2024-10-01_18h46.26.037,mdp,2024.2.1,Win32,59.88023952,66fa4ebf79326e780c390304,,,,,,,,,,,,,,,,,,,,,1243.7185,1243.7185,1243.7198,1244.2355,0,1,left,0.0024,,1244.2371,1244.2379,0,1,,1244.2387,1244.2392,1,0,,0,1244.2393,1244.2393,1244.2399,1245.737,0,6,6,6,1,0.6,0.4,0.4,0.6,1,0,,,,,,,,,,,,,,,,,,,,,,,,,,,,,,,,,,,,
,,5c5fbade4cc94200016a5c15,66fc97b6736ae44b178e548f,2024-10-01_18h46.26.037,mdp,2024.2.1,Win32,59.88023952,66fa4ebf79326e780c390304,,,,,,,,,,,,,,,,,,,,,1245.7374,1245.7374,1245.7389,1246.9216,1,0,right,0.6532,,1246.9233,1246.924,0,1,,1246.9248,1246.9253,1,1,,1,1246.9254,1246.9254,1246.926,1248.4232,0,7,7,7,1,0.6,0.4,0.4,0.6,1,0,,,,,,,,,,,,,,,,,,,,,,,,,,,,,,,,,,,,
,,5c5fbade4cc94200016a5c15,66fc97b6736ae44b178e548f,2024-10-01_18h46.26.037,mdp,2024.2.1,Win32,59.88023952,66fa4ebf79326e780c390304,,,,,,,,,,,,,,,,,,,,,1248.4237,1248.4237,1248.4249,1249.2578,0,1,left,0.326,,1249.2592,1249.26,0,0,,1249.261,1249.2619,1,1,,0,1249.262,1249.262,1249.2631,1250.759,0,8,8,8,1,0.6,0.4,0.4,0.6,1,0,,,,,,,,,,,,,,,,,,,,,,,,,,,,,,,,,,,,
,,5c5fbade4cc94200016a5c15,66fc97b6736ae44b178e548f,2024-10-01_18h46.26.037,mdp,2024.2.1,Win32,59.88023952,66fa4ebf79326e780c390304,,,,,,,,,,,,,,,,,,,,,1250.7595,1250.7595,1250.761,1251.8104,1,1,right,0.5333,,1251.8118,1251.8125,0,1,,1251.8133,1251.814,1,0,,0,1251.814,1251.814,1251.8146,1253.3119,0,9,9,9,1,0.6,0.4,0.4,0.6,1,0,,,,,,,,,,,,,,,,,,,,,,,,,,,,,,,,,,,,
,,5c5fbade4cc94200016a5c15,66fc97b6736ae44b178e548f,2024-10-01_18h46.26.037,mdp,2024.2.1,Win32,59.88023952,66fa4ebf79326e780c390304,,,,,,,,,,,,,,,,,,,,,1253.3124,1253.3124,1253.3137,1254.4633,0,0,left,0.644,,1254.4649,1254.4655,0,0,,1254.4663,1254.4669,1,0,,1,1254.4669,1254.4669,1254.4676,1255.9649,0,10,10,10,1,0.6,0.4,0.4,0.6,1,0,,,,,,,,,,,,,,,,,,,,,,,,,,,,,,,,,,,,
,,5c5fbade4cc94200016a5c15,66fc97b6736ae44b178e548f,2024-10-01_18h46.26.037,mdp,2024.2.1,Win32,59.88023952,66fa4ebf79326e780c390304,,,,,,,,,,,,,,,,,,,,,1255.9654,1255.9654,1255.9666,1256.9661,1,1,right,0.4905,,1256.9678,1256.9686,0,1,,1256.9695,1256.9701,1,1,,0,1256.9701,1256.9701,1256.9707,1258.4676,0,11,11,11,1,0.6,0.4,0.4,0.6,1,0,,,,,,,,,,,,,,,,,,,,,,,,,,,,,,,,,,,,
,,5c5fbade4cc94200016a5c15,66fc97b6736ae44b178e548f,2024-10-01_18h46.26.037,mdp,2024.2.1,Win32,59.88023952,66fa4ebf79326e780c390304,,,,,,,,,,,,,,,,,,,,,1258.4681,1258.4682,1258.4697,1259.669,0,0,left,0.6774,,1259.6706,1259.6716,0,0,,1259.6728,1259.6739,1,1,,1,1259.6739,1259.6739,1259.6751,1261.1705,0,12,12,12,1,0.6,0.4,0.4,0.6,1,0,,,,,,,,,,,,,,,,,,,,,,,,,,,,,,,,,,,,
,,5c5fbade4cc94200016a5c15,66fc97b6736ae44b178e548f,2024-10-01_18h46.26.037,mdp,2024.2.1,Win32,59.88023952,66fa4ebf79326e780c390304,,,,,,,,,,,,,,,,,,,,,1261.171,1261.171,1261.1727,1262.3052,0,1,left,0.6008,,1262.3066,1262.3072,0,1,,1262.3081,1262.3087,1,1,,0,1262.3088,1262.3088,1262.3095,1263.8067,0,13,13,13,1,0.2,0.8,0.8,0.2,1,0,,,,,,,,,,,,,,,,,,,,,,,,,,,,,,,,,,,,
,,5c5fbade4cc94200016a5c15,66fc97b6736ae44b178e548f,2024-10-01_18h46.26.037,mdp,2024.2.1,Win32,59.88023952,66fa4ebf79326e780c390304,,,,,,,,,,,,,,,,,,,,,1263.8071,1263.8071,1263.8085,1264.6745,1,0,right,0.3577,,1264.6758,1264.6767,0,1,,1264.6774,1264.6781,1,0,,1,1264.6782,1264.6782,1264.6787,1266.1759,0,14,14,14,1,0.2,0.8,0.8,0.2,1,0,,,,,,,,,,,,,,,,,,,,,,,,,,,,,,,,,,,,
,,5c5fbade4cc94200016a5c15,66fc97b6736ae44b178e548f,2024-10-01_18h46.26.037,mdp,2024.2.1,Win32,59.88023952,66fa4ebf79326e780c390304,,,,,,,,,,,,,,,,,,,,,1266.1764,1266.1764,1266.1778,1267.4943,0,1,left,0.8046,,1267.4956,1267.4964,0,1,,1267.4971,1267.4977,1,1,,0,1267.4977,1267.4977,1267.4984,1268.9957,0,15,15,15,1,0.2,0.8,0.8,0.2,1,0,,,,,,,,,,,,,,,,,,,,,,,,,,,,,,,,,,,,
,,5c5fbade4cc94200016a5c15,66fc97b6736ae44b178e548f,2024-10-01_18h46.26.037,mdp,2024.2.1,Win32,59.88023952,66fa4ebf79326e780c390304,,,,,,,,,,,,,,,,,,,,,1268.9961,1268.9962,1268.9976,1269.8969,1,0,right,0.3838,,1269.8984,1269.8991,0,0,,1269.9,1269.9005,1,0,,1,1269.9006,1269.9006,1269.9012,1271.3983,0,16,16,16,1,0.2,0.8,0.8,0.2,1,0,,,,,,,,,,,,,,,,,,,,,,,,,,,,,,,,,,,,
,,5c5fbade4cc94200016a5c15,66fc97b6736ae44b178e548f,2024-10-01_18h46.26.037,mdp,2024.2.1,Win32,59.88023952,66fa4ebf79326e780c390304,,,,,,,,,,,,,,,,,,,,,1271.3987,1271.3987,1271.4,1272.9337,1,0,right,1.0191,,1272.9353,1272.9363,0,0,,1272.9374,1272.9383,1,0,,1,1272.9383,1272.9384,1272.9393,1274.4351,0,17,17,17,1,0.2,0.8,0.8,0.2,1,0,,,,,,,,,,,,,,,,,,,,,,,,,,,,,,,,,,,,
,,5c5fbade4cc94200016a5c15,66fc97b6736ae44b178e548f,2024-10-01_18h46.26.037,mdp,2024.2.1,Win32,59.88023952,66fa4ebf79326e780c390304,,,,,,,,,,,,,,,,,,,,,1274.4356,1274.4356,1274.437,1276.2872,0,0,left,1.3242,,1276.2886,1276.2894,0,1,,1276.2903,1276.2909,1,0,,1,1276.2909,1276.2909,1276.2916,1277.7889,0,18,18,18,1,0.4,0.6,0.6,0.4,1,0,,,,,,,,,,,,,,,,,,,,,,,,,,,,,,,,,,,,
,,5c5fbade4cc94200016a5c15,66fc97b6736ae44b178e548f,2024-10-01_18h46.26.037,mdp,2024.2.1,Win32,59.88023952,66fa4ebf79326e780c390304,,,,,,,,,,,,,,,,,,,,,1277.7893,1277.7894,1277.791,1279.1903,0,0,left,0.8772,,1279.1917,1279.1924,0,0,,1279.1933,1279.1939,1,1,,1,1279.194,1279.194,1279.1948,1280.7012,0,19,19,19,1,0.4,0.6,0.6,0.4,1,0,,,,,,,,,,,,,,,,,,,,,,,,,,,,,,,,,,,,
,,5c5fbade4cc94200016a5c15,66fc97b6736ae44b178e548f,2024-10-01_18h46.26.037,mdp,2024.2.1,Win32,59.88023952,66fa4ebf79326e780c390304,,,,,,,,,,,,,,,,,,,,,1280.7016,1280.7016,1280.7031,1281.7266,1,0,right,0.5012,,1281.728,1281.7287,0,0,,1281.7299,1281.7308,1,0,,1,1281.7308,1281.7308,1281.7315,1283.2307,0,20,20,20,1,0.2,0.8,0.8,0.2,1,0,,,,,,,,,,,,,,,,,,,,,,,,,,,,,,,,,,,,
,,5c5fbade4cc94200016a5c15,66fc97b6736ae44b178e548f,2024-10-01_18h46.26.037,mdp,2024.2.1,Win32,59.88023952,66fa4ebf79326e780c390304,,,,,,,,,,,,,,,,,,,,,1283.2336,1283.2337,1283.2354,1284.346,1,0,right,0.5843,,1284.3473,1284.348,0,0,,1284.3488,1284.3493,1,0,,1,1284.3494,1284.3494,1284.35,1285.8475,0,21,21,21,1,0.2,0.8,0.8,0.2,1,0,,,,,,,,,,,,,,,,,,,,,,,,,,,,,,,,,,,,
,,5c5fbade4cc94200016a5c15,66fc97b6736ae44b178e548f,2024-10-01_18h46.26.037,mdp,2024.2.1,Win32,59.88023952,66fa4ebf79326e780c390304,,,,,,,,,,,,,,,,,,,,,1285.8479,1285.8479,1285.8493,1286.7986,0,0,left,0.4343,,1286.8,1286.8007,0,1,,1286.8016,1286.8021,1,0,,1,1286.8021,1286.8021,1286.8027,1288.3001,0,22,22,22,1,0.8,0.2,0.2,0.8,1,0,,,,,,,,,,,,,,,,,,,,,,,,,,,,,,,,,,,,
,,5c5fbade4cc94200016a5c15,66fc97b6736ae44b178e548f,2024-10-01_18h46.26.037,mdp,2024.2.1,Win32,59.88023952,66fa4ebf79326e780c390304,,,,,,,,,,,,,,,,,,,,,1288.3009,1288.3009,1288.3021,1289.3849,0,0,left,0.5511,,1289.3864,1289.3875,0,0,,1289.3885,1289.3893,1,0,,1,1289.3894,1289.3894,1289.3903,1290.8864,0,23,23,23,1,0.8,0.2,0.2,0.8,1,0,,,,,,,,,,,,,,,,,,,,,,,,,,,,,,,,,,,,
,,5c5fbade4cc94200016a5c15,66fc97b6736ae44b178e548f,2024-10-01_18h46.26.037,mdp,2024.2.1,Win32,59.88023952,66fa4ebf79326e780c390304,,,,,,,,,,,,,,,,,,,,,1290.8868,1290.8868,1290.8882,1291.7375,1,1,right,0.3341,,1291.739,1291.7398,0,1,,1291.7407,1291.7412,1,1,,0,1291.7413,1291.7413,1291.742,1293.2398,0,24,24,24,1,0.8,0.2,0.2,0.8,1,0,,,,,,,,,,,,,,,,,,,,,,,,,,,,,,,,,,,,
,,5c5fbade4cc94200016a5c15,66fc97b6736ae44b178e548f,2024-10-01_18h46.26.037,mdp,2024.2.1,Win32,59.88023952,66fa4ebf79326e780c390304,,,,,,,,,,,,,,,,,,,,,1293.2404,1293.2404,1293.2416,1294.0734,1,0,right,0.305,,1294.0748,1294.0756,0,0,,1294.0768,1294.0774,1,1,,1,1294.0775,1294.0775,1294.0782,1295.5749,0,25,25,25,1,0.6,0.4,0.4,0.6,1,0,,,,,,,,,,,,,,,,,,,,,,,,,,,,,,,,,,,,
,,5c5fbade4cc94200016a5c15,66fc97b6736ae44b178e548f,2024-10-01_18h46.26.037,mdp,2024.2.1,Win32,59.88023952,66fa4ebf79326e780c390304,,,,,,,,,,,,,,,,,,,,,1295.5753,1295.5754,1295.5765,1297.013,1,1,right,0.924,,1297.014,1297.0149,0,0,,1297.0161,1297.0168,1,0,,0,1297.0168,1297.0168,1297.0174,1298.5115,0,26,26,26,1,0.6,0.4,0.4,0.6,1,0,,,,,,,,,,,,,,,,,,,,,,,,,,,,,,,,,,,,
,,5c5fbade4cc94200016a5c15,66fc97b6736ae44b178e548f,2024-10-01_18h46.26.037,mdp,2024.2.1,Win32,59.88023952,66fa4ebf79326e780c390304,,,,,,,,,,,,,,,,,,,,,1298.512,1298.512,1298.5134,1301.7153,0,1,left,2.6702,,1301.7169,1301.7178,0,1,,1301.7189,1301.7198,1,1,,0,1301.7198,1301.7198,1301.7207,1303.2168,0,27,27,27,1,0.6,0.4,0.4,0.6,1,0,,,,,,,,,,,,,,,,,,,,,,,,,,,,,,,,,,,,
,,5c5fbade4cc94200016a5c15,66fc97b6736ae44b178e548f,2024-10-01_18h46.26.037,mdp,2024.2.1,Win32,59.88023952,66fa4ebf79326e780c390304,,,,,,,,,,,,,,,,,,,,,1303.2174,1303.2174,1303.2192,1304.2012,1,1,right,0.4556,,1304.2027,1304.2036,0,1,,1304.2046,1304.2055,1,1,,0,1304.2056,1304.2056,1304.2063,1305.7027,0,28,28,28,1,0.6,0.4,0.4,0.6,1,0,,,,,,,,,,,,,,,,,,,,,,,,,,,,,,,,,,,,
,,5c5fbade4cc94200016a5c15,66fc97b6736ae44b178e548f,2024-10-01_18h46.26.037,mdp,2024.2.1,Win32,59.88023952,66fa4ebf79326e780c390304,,,,,,,,,,,,,,,,,,,,,1305.7031,1305.7031,1305.7046,1306.971,0,1,left,0.7424,,1306.9727,1306.974,0,0,,1306.9754,1306.9764,1,0,,0,1306.9765,1306.9765,1306.9774,1308.4723,0,29,29,29,1,0.6,0.4,0.4,0.6,1,0,,,,,,,,,,,,,,,,,,,,,,,,,,,,,,,,,,,,
,,5c5fbade4cc94200016a5c15,66fc97b6736ae44b178e548f,2024-10-01_18h46.26.037,mdp,2024.2.1,Win32,59.88023952,66fa4ebf79326e780c390304,,,,,,,,,,,,,,,,,,,,,1308.4728,1308.4728,1308.474,1309.6404,0,0,left,0.6351,,1309.6417,1309.6425,0,1,,1309.6434,1309.644,1,0,,1,1309.644,1309.644,1309.6447,1311.1418,0,30,30,30,1,0.6,0.4,0.4,0.6,1,0,,,,,,,,,,,,,,,,,,,,,,,,,,,,,,,,,,,,
,,5c5fbade4cc94200016a5c15,66fc97b6736ae44b178e548f,2024-10-01_18h46.26.037,mdp,2024.2.1,Win32,59.88023952,66fa4ebf79326e780c390304,,,,,,,,,,,,,,,,,,,,,1311.1423,1311.1423,1311.1442,1312.6436,0,1,left,0.9849,,1312.645,1312.6457,0,1,,1312.6465,1312.647,1,0,,0,1312.6471,1312.6471,1312.6476,1314.1452,0,31,31,31,1,0.6,0.4,0.4,0.6,1,0,,,,,,,,,,,,,,,,,,,,,,,,,,,,,,,,,,,,
,,5c5fbade4cc94200016a5c15,66fc97b6736ae44b178e548f,2024-10-01_18h46.26.037,mdp,2024.2.1,Win32,59.88023952,66fa4ebf79326e780c390304,,,,,,,,,,,,,,,,,,,,,1314.1457,1314.1457,1314.1474,1315.3801,1,1,right,0.7018,,1315.3817,1315.3824,0,1,,1315.3832,1315.3842,1,1,,0,1315.3842,1315.3842,1315.3852,1316.8815,0,32,32,32,1,0.6,0.4,0.4,0.6,1,0,,,,,,,,,,,,,,,,,,,,,,,,,,,,,,,,,,,,
,,5c5fbade4cc94200016a5c15,66fc97b6736ae44b178e548f,2024-10-01_18h46.26.037,mdp,2024.2.1,Win32,59.88023952,66fa4ebf79326e780c390304,,,,,,,,,,,,,,,,,,,,,1316.8819,1316.882,1316.8831,1317.4989,1,1,right,0.1004,,1317.5001,1317.5008,0,1,,1317.5016,1317.5022,1,0,,0,1317.5022,1317.5022,1317.5028,1319.0007,0,33,33,33,1,0.4,0.6,0.8,0.2,1,0,,,,,,,,,,,,,,,,,,,,,,,,,,,,,,,,,,,,
,,5c5fbade4cc94200016a5c15,66fc97b6736ae44b178e548f,2024-10-01_18h46.26.037,mdp,2024.2.1,Win32,59.88023952,66fa4ebf79326e780c390304,,,,,,,,,,,,,,,,,,,,,1319.0013,1319.0014,1319.003,1320.2187,1,1,right,0.692,,1320.2203,1320.2213,0,1,,1320.2228,1320.2237,1,1,,0,1320.2238,1320.2238,1320.225,1321.7201,0,34,34,34,1,0.8,0.2,0.4,0.6,1,0,,,,,,,,,,,,,,,,,,,,,,,,,,,,,,,,,,,,
,,5c5fbade4cc94200016a5c15,66fc97b6736ae44b178e548f,2024-10-01_18h46.26.037,mdp,2024.2.1,Win32,59.88023952,66fa4ebf79326e780c390304,,,,,,,,,,,,,,,,,,,,,1321.7205,1321.7205,1321.722,1322.321,1,1,right,0.0836,,1322.3226,1322.3238,0,0,,1322.325,1322.3257,1,1,,0,1322.3258,1322.3258,1322.3267,1323.8225,0,35,35,35,1,0.8,0.2,0.4,0.6,1,0,,,,,,,,,,,,,,,,,,,,,,,,,,,,,,,,,,,,
,,5c5fbade4cc94200016a5c15,66fc97b6736ae44b178e548f,2024-10-01_18h46.26.037,mdp,2024.2.1,Win32,59.88023952,66fa4ebf79326e780c390304,,,,,,,,,,,,,,,,,,,,,1323.8229,1323.823,1323.8248,1324.5066,1,1,right,0.1509,,1324.5079,1324.5086,0,1,,1324.5093,1324.5099,1,1,,0,1324.5099,1324.5099,1324.5106,1326.0082,0,36,36,36,1,0.8,0.2,0.4,0.6,1,0,,,,,,,,,,,,,,,,,,,,,,,,,,,,,,,,,,,,
,,5c5fbade4cc94200016a5c15,66fc97b6736ae44b178e548f,2024-10-01_18h46.26.037,mdp,2024.2.1,Win32,59.88023952,66fa4ebf79326e780c390304,,,,,,,,,,,,,,,,,,,,,1326.0085,1326.0085,1326.0099,1326.8759,0,1,left,0.3505,,1326.8775,1326.8783,0,0,,1326.8793,1326.8802,1,0,,0,1326.8802,1326.8802,1326.8812,1328.3774,0,37,37,37,1,0.6,0.4,0.6,0.4,1,0,,,,,,,,,,,,,,,,,,,,,,,,,,,,,,,,,,,,
,,5c5fbade4cc94200016a5c15,66fc97b6736ae44b178e548f,2024-10-01_18h46.26.037,mdp,2024.2.1,Win32,59.88023952,66fa4ebf79326e780c390304,,,,,,,,,,,,,,,,,,,,,1328.3782,1328.3782,1328.3795,1328.9615,1,0,right,0.0586,,1328.9629,1328.9636,0,0,,1328.9645,1328.9651,1,0,,1,1328.9651,1328.9651,1328.9659,1330.4631,0,38,38,38,1,0.6,0.4,0.6,0.4,1,0,,,,,,,,,,,,,,,,,,,,,,,,,,,,,,,,,,,,
,,5c5fbade4cc94200016a5c15,66fc97b6736ae44b178e548f,2024-10-01_18h46.26.037,mdp,2024.2.1,Win32,59.88023952,66fa4ebf79326e780c390304,,,,,,,,,,,,,,,,,,,,,1330.4635,1330.4635,1330.4648,1331.3142,0,0,left,0.3176,,1331.3156,1331.3164,0,0,,1331.3172,1331.3177,1,1,,1,1331.3178,1331.3178,1331.3184,1332.8156,0,39,39,39,1,0.8,0.2,0.8,0.2,1,0,,,,,,,,,,,,,,,,,,,,,,,,,,,,,,,,,,,,
,,5c5fbade4cc94200016a5c15,66fc97b6736ae44b178e548f,2024-10-01_18h46.26.037,mdp,2024.2.1,Win32,59.88023952,66fa4ebf79326e780c390304,,,,,,,,,,,,,,,,,,,,,1332.8161,1332.8161,1332.8173,1333.7675,1,0,right,0.4353,,1333.7689,1333.7696,0,1,,1333.7704,1333.7711,1,0,,1,1333.7711,1333.7711,1333.7719,1335.2683,0,40,40,40,1,0.8,0.2,0.8,0.2,1,0,,,,,,,,,,,,,,,,,,,,,,,,,,,,,,,,,,,,
