init_exp.started,init_exp.stopped,participant,session,date,expName,psychopyVersion,OS,frameRate,study_id,disp_instruction.started,disp_instruction.stopped,instruction.thisRepN,instruction.thisTrialN,instruction.thisN,instruction.thisIndex,instruction.ran,instimg_path,consent.started,consent.stopped,key_resp_3.keys,key_resp_3.rt,key_resp_3.duration,n_steps,sequence_path,init_block.started,init_block.stopped,key_resp.keys,key_resp.rt,key_resp.duration,init_trials.started,init_trials.stopped,step0.started,step0.stopped,act0,s1,res0.keys,res0.rt,res0.duration,step1.started,step1.stopped,act1,s2,res1.keys,step2.started,step2.stopped,act2,s3,res2.keys,rew,reward_comp.started,reward_comp.stopped,reward_disp.started,reward_disp.stopped,trials.thisRepN,trials.thisTrialN,trials.thisN,trials.thisIndex,trials.ran,s00a0s10,s00a0s11,s00a1s10,s00a1s11,rew10,rew11,break_block.started,break_block.stopped,block.thisRepN,block.thisTrialN,block.thisN,block.thisIndex,block.ran,s00path,s10path,s11path,s20path,s21path,res1.rt,res1.duration,s10a0s20,s10a0s21,s10a1s20,s10a1s21,s11a0s20,s11a0s21,s11a1s20,s11a1s21,rew20,rew21,res2.rt,res2.duration,s20a0s30,s20a0s31,s20a1s30,s20a1s31,s21a0s30,s21a0s31,s21a1s30,s21a1s31,rew30,rew31
0.0003,0.0016,5ce031fc7f65ee001a985a6b,66fcb88ab5299936d1513484,2024-10-02_04h26.56.340,mdp,2024.2.1,Win32,57.14285714,66fa4ebf79326e780c390304,,,,,,,,,,,,,,,,,,,,,,,,,,,,,,,,,,,,,,,,,,,,,,,,,,,,,,,,,,,,,,,,,,,,,,,,,,,,,,,,,,,,,,,,,,,
,,5ce031fc7f65ee001a985a6b,66fcb88ab5299936d1513484,2024-10-02_04h26.56.340,mdp,2024.2.1,Win32,57.14285714,66fa4ebf79326e780c390304,0.0058,23.1985,0,0,0,0,1,rlnn_exp/rlnn_exp.001.png,,,,,,,,,,,,,,,,,,,,,,,,,,,,,,,,,,,,,,,,,,,,,,,,,,,,,,,,,,,,,,,,,,,,,,,,,,,,,,,,,,,
,,5ce031fc7f65ee001a985a6b,66fcb88ab5299936d1513484,2024-10-02_04h26.56.340,mdp,2024.2.1,Win32,57.14285714,66fa4ebf79326e780c390304,23.2008,52.1287,0,1,1,1,1,rlnn_exp/rlnn_exp.002.png,,,,,,,,,,,,,,,,,,,,,,,,,,,,,,,,,,,,,,,,,,,,,,,,,,,,,,,,,,,,,,,,,,,,,,,,,,,,,,,,,,,
,,5ce031fc7f65ee001a985a6b,66fcb88ab5299936d1513484,2024-10-02_04h26.56.340,mdp,2024.2.1,Win32,57.14285714,66fa4ebf79326e780c390304,52.1326,64.2549,0,2,2,2,1,rlnn_exp/rlnn_exp.003.png,,,,,,,,,,,,,,,,,,,,,,,,,,,,,,,,,,,,,,,,,,,,,,,,,,,,,,,,,,,,,,,,,,,,,,,,,,,,,,,,,,,
,,5ce031fc7f65ee001a985a6b,66fcb88ab5299936d1513484,2024-10-02_04h26.56.340,mdp,2024.2.1,Win32,57.14285714,66fa4ebf79326e780c390304,64.2591,75.8754,0,3,3,3,1,rlnn_exp/rlnn_exp.004.png,,,,,,,,,,,,,,,,,,,,,,,,,,,,,,,,,,,,,,,,,,,,,,,,,,,,,,,,,,,,,,,,,,,,,,,,,,,,,,,,,,,
,,5ce031fc7f65ee001a985a6b,66fcb88ab5299936d1513484,2024-10-02_04h26.56.340,mdp,2024.2.1,Win32,57.14285714,66fa4ebf79326e780c390304,,,,,,,,,75.8778,86.8698,y,0.9466,,,,,,,,,,,,,,,,,,,,,,,,,,,,,,,,,,,,,,,,,,,,,,,,,,,,,,,,,,,,,,,,,,,,,,,,,,,,,,,
,,5ce031fc7f65ee001a985a6b,66fcb88ab5299936d1513484,2024-10-02_04h26.56.340,mdp,2024.2.1,Win32,57.14285714,66fa4ebf79326e780c390304,,,,,,,,,,,,,,1,seqs/st1seq47.csv,86.8899,88.7715,space,1.367,,88.7849,88.7854,88.7878,91.1098,1,1,right,1.7748,,91.1125,91.1196,,0,,91.1211,91.1284,,0,,0,91.129,91.1294,91.1307,92.6277,0,0,0,0,1,0.8,0.2,0.4,0.6,1,0,,,,,,,,,,,,,,,,,,,,,,,,,,,,,,,,,,,,
,,5ce031fc7f65ee001a985a6b,66fcb88ab5299936d1513484,2024-10-02_04h26.56.340,mdp,2024.2.1,Win32,57.14285714,66fa4ebf79326e780c390304,,,,,,,,,,,,,,,,,,,,,92.6296,92.6297,92.6339,93.8997,0,1,left,0.7539,,93.9054,93.9084,,0,,93.9108,93.9131,,1,,0,93.9132,93.9133,93.9164,95.4178,0,1,1,1,1,0.8,0.2,0.4,0.6,1,0,,,,,,,,,,,,,,,,,,,,,,,,,,,,,,,,,,,,
,,5ce031fc7f65ee001a985a6b,66fcb88ab5299936d1513484,2024-10-02_04h26.56.340,mdp,2024.2.1,Win32,57.14285714,66fa4ebf79326e780c390304,,,,,,,,,,,,,,,,,,,,,95.4206,95.4206,95.4261,96.5171,1,1,right,0.5769,,96.5221,96.5259,,1,,96.5286,96.531,,0,,0,96.5314,96.5315,96.5347,98.0349,0,2,2,2,1,0.8,0.2,0.4,0.6,1,0,,,,,,,,,,,,,,,,,,,,,,,,,,,,,,,,,,,,
,,5ce031fc7f65ee001a985a6b,66fcb88ab5299936d1513484,2024-10-02_04h26.56.340,mdp,2024.2.1,Win32,57.14285714,66fa4ebf79326e780c390304,,,,,,,,,,,,,,,,,,,,,98.0376,98.0378,98.043,103.236,0,0,left,4.6815,,103.2407,103.2429,,0,,103.2451,103.2475,,0,,1,103.248,103.2482,103.2508,104.753,0,3,3,3,1,0.8,0.2,0.4,0.6,1,0,,,,,,,,,,,,,,,,,,,,,,,,,,,,,,,,,,,,
,,5ce031fc7f65ee001a985a6b,66fcb88ab5299936d1513484,2024-10-02_04h26.56.340,mdp,2024.2.1,Win32,57.14285714,66fa4ebf79326e780c390304,,,,,,,,,,,,,,,,,,,,,104.7557,104.7557,104.7601,106.0433,0,0,left,0.7619,,106.048,106.0501,,1,,106.0522,106.0535,,0,,1,106.0537,106.0537,106.055,107.5441,0,4,4,4,1,0.8,0.2,0.4,0.6,1,0,,,,,,,,,,,,,,,,,,,,,,,,,,,,,,,,,,,,
,,5ce031fc7f65ee001a985a6b,66fcb88ab5299936d1513484,2024-10-02_04h26.56.340,mdp,2024.2.1,Win32,57.14285714,66fa4ebf79326e780c390304,,,,,,,,,,,,,,,,,,,,,107.5468,107.5469,107.5515,108.7133,0,0,left,0.6468,,108.7183,108.7211,,0,,108.723,108.7246,,1,,1,108.7247,108.7248,108.7263,110.2137,0,5,5,5,1,0.8,0.2,0.4,0.6,1,0,,,,,,,,,,,,,,,,,,,,,,,,,,,,,,,,,,,,
,,5ce031fc7f65ee001a985a6b,66fcb88ab5299936d1513484,2024-10-02_04h26.56.340,mdp,2024.2.1,Win32,57.14285714,66fa4ebf79326e780c390304,,,,,,,,,,,,,,,,,,,,,110.2158,110.216,110.2216,111.2789,0,0,left,0.5408,,111.2844,111.287,,0,,111.289,111.2912,,0,,1,111.2914,111.2915,111.2937,112.7963,0,6,6,6,1,0.8,0.2,0.4,0.6,1,0,,,,,,,,,,,,,,,,,,,,,,,,,,,,,,,,,,,,
,,5ce031fc7f65ee001a985a6b,66fcb88ab5299936d1513484,2024-10-02_04h26.56.340,mdp,2024.2.1,Win32,57.14285714,66fa4ebf79326e780c390304,,,,,,,,,,,,,,,,,,,,,112.7987,112.7988,112.8038,113.8458,0,1,left,0.5228,,113.8509,113.8533,,0,,113.8554,113.8575,,0,,0,113.8577,113.8577,113.8604,115.3609,0,7,7,7,1,0.8,0.2,0.4,0.6,1,0,,,,,,,,,,,,,,,,,,,,,,,,,,,,,,,,,,,,
,,5ce031fc7f65ee001a985a6b,66fcb88ab5299936d1513484,2024-10-02_04h26.56.340,mdp,2024.2.1,Win32,57.14285714,66fa4ebf79326e780c390304,,,,,,,,,,,,,,,,,,,,,115.3637,115.3639,115.368,116.4443,0,0,left,0.5639,,116.4489,116.4511,,1,,116.4532,116.4551,,0,,1,116.4552,116.4554,116.4571,117.9452,0,8,8,8,1,0.6,0.4,0.8,0.2,1,0,,,,,,,,,,,,,,,,,,,,,,,,,,,,,,,,,,,,
,,5ce031fc7f65ee001a985a6b,66fcb88ab5299936d1513484,2024-10-02_04h26.56.340,mdp,2024.2.1,Win32,57.14285714,66fa4ebf79326e780c390304,,,,,,,,,,,,,,,,,,,,,117.9469,117.947,117.9497,118.9926,0,0,left,0.5231,,118.9944,118.9951,,0,,118.9959,118.9966,,1,,1,118.9967,118.9967,118.9973,120.4916,0,9,9,9,1,0.6,0.4,0.8,0.2,1,0,,,,,,,,,,,,,,,,,,,,,,,,,,,,,,,,,,,,
,,5ce031fc7f65ee001a985a6b,66fcb88ab5299936d1513484,2024-10-02_04h26.56.340,mdp,2024.2.1,Win32,57.14285714,66fa4ebf79326e780c390304,,,,,,,,,,,,,,,,,,,,,120.4933,120.4933,120.4949,121.3983,0,0,left,0.3867,,121.4015,121.4022,,0,,121.4028,121.4034,,0,,1,121.4035,121.4035,121.4042,122.9204,0,10,10,10,1,0.8,0.2,0.4,0.6,1,0,,,,,,,,,,,,,,,,,,,,,,,,,,,,,,,,,,,,
,,5ce031fc7f65ee001a985a6b,66fcb88ab5299936d1513484,2024-10-02_04h26.56.340,mdp,2024.2.1,Win32,57.14285714,66fa4ebf79326e780c390304,,,,,,,,,,,,,,,,,,,,,122.9208,122.9208,122.9217,124.1895,0,1,left,0.7511,,124.1935,124.1942,,0,,124.1951,124.1958,,0,,0,124.1959,124.1959,124.1967,125.692,0,11,11,11,1,0.8,0.2,0.4,0.6,1,0,,,,,,,,,,,,,,,,,,,,,,,,,,,,,,,,,,,,
,,5ce031fc7f65ee001a985a6b,66fcb88ab5299936d1513484,2024-10-02_04h26.56.340,mdp,2024.2.1,Win32,57.14285714,66fa4ebf79326e780c390304,,,,,,,,,,,,,,,,,,,,,125.6926,125.6927,125.6962,126.5279,0,0,left,0.3154,,126.5313,126.532,,0,,126.5326,126.5331,,0,,1,126.5331,126.5331,126.5335,128.0298,0,12,12,12,1,0.8,0.2,0.4,0.6,1,0,,,,,,,,,,,,,,,,,,,,,,,,,,,,,,,,,,,,
,,5ce031fc7f65ee001a985a6b,66fcb88ab5299936d1513484,2024-10-02_04h26.56.340,mdp,2024.2.1,Win32,57.14285714,66fa4ebf79326e780c390304,,,,,,,,,,,,,,,,,,,,,128.0317,128.0318,128.0335,128.6559,0,0,left,0.1082,,128.66,128.6607,,0,,128.6613,128.6619,,0,,1,128.662,128.662,128.6625,130.1573,0,13,13,13,1,0.8,0.2,0.4,0.6,1,0,,,,,,,,,,,,,,,,,,,,,,,,,,,,,,,,,,,,
,,5ce031fc7f65ee001a985a6b,66fcb88ab5299936d1513484,2024-10-02_04h26.56.340,mdp,2024.2.1,Win32,57.14285714,66fa4ebf79326e780c390304,,,,,,,,,,,,,,,,,,,,,130.1588,130.1589,130.1611,130.9262,0,0,left,0.2481,,130.9303,130.9319,,0,,130.9334,130.9347,,0,,1,130.9348,130.9348,130.9364,132.4257,0,14,14,14,1,0.8,0.2,0.4,0.6,1,0,,,,,,,,,,,,,,,,,,,,,,,,,,,,,,,,,,,,
,,5ce031fc7f65ee001a985a6b,66fcb88ab5299936d1513484,2024-10-02_04h26.56.340,mdp,2024.2.1,Win32,57.14285714,66fa4ebf79326e780c390304,,,,,,,,,,,,,,,,,,,,,132.4273,132.4273,132.4295,133.2098,1,0,right,0.2674,,133.2139,133.2145,,1,,133.2152,133.2158,,1,,1,133.2159,133.2159,133.2165,134.7131,0,15,15,15,1,0.8,0.2,0.4,0.6,1,0,,,,,,,,,,,,,,,,,,,,,,,,,,,,,,,,,,,,
,,5ce031fc7f65ee001a985a6b,66fcb88ab5299936d1513484,2024-10-02_04h26.56.340,mdp,2024.2.1,Win32,57.14285714,66fa4ebf79326e780c390304,,,,,,,,,,,,,,,,,,,,,134.7143,134.7144,134.7177,135.5859,0,0,left,0.353,,135.5905,135.5925,,0,,135.5946,135.5964,,0,,1,135.5965,135.5966,135.5985,137.086,0,16,16,16,1,0.8,0.2,0.4,0.6,1,0,,,,,,,,,,,,,,,,,,,,,,,,,,,,,,,,,,,,
,,5ce031fc7f65ee001a985a6b,66fcb88ab5299936d1513484,2024-10-02_04h26.56.340,mdp,2024.2.1,Win32,57.14285714,66fa4ebf79326e780c390304,,,,,,,,,,,,,,,,,,,,,137.0873,137.0874,137.0913,138.4482,0,0,left,0.8389,,138.4523,138.4543,,0,,138.4568,138.4587,,0,,1,138.4589,138.4589,138.4623,139.9633,0,17,17,17,1,0.8,0.2,0.4,0.6,1,0,,,,,,,,,,,,,,,,,,,,,,,,,,,,,,,,,,,,
,,5ce031fc7f65ee001a985a6b,66fcb88ab5299936d1513484,2024-10-02_04h26.56.340,mdp,2024.2.1,Win32,57.14285714,66fa4ebf79326e780c390304,,,,,,,,,,,,,,,,,,,,,139.9654,139.9656,139.9709,140.6438,0,0,left,0.1582,,140.6494,140.6524,,0,,140.6546,140.6565,,1,,1,140.6566,140.6566,140.6606,142.1447,0,18,18,18,1,0.8,0.2,0.4,0.6,1,0,,,,,,,,,,,,,,,,,,,,,,,,,,,,,,,,,,,,
,,5ce031fc7f65ee001a985a6b,66fcb88ab5299936d1513484,2024-10-02_04h26.56.340,mdp,2024.2.1,Win32,57.14285714,66fa4ebf79326e780c390304,,,,,,,,,,,,,,,,,,,,,142.147,142.1471,142.1517,142.9822,0,0,left,0.3141,,142.9877,142.9903,,0,,142.9928,142.9949,,0,,1,142.995,142.995,142.9975,144.4824,0,19,19,19,1,0.6,0.4,0.6,0.4,1,0,,,,,,,,,,,,,,,,,,,,,,,,,,,,,,,,,,,,
,,5ce031fc7f65ee001a985a6b,66fcb88ab5299936d1513484,2024-10-02_04h26.56.340,mdp,2024.2.1,Win32,57.14285714,66fa4ebf79326e780c390304,,,,,,,,,,,,,,,,,,,,,144.4851,144.4851,144.4898,145.0763,1,1,right,0.0736,,145.081,145.0848,,0,,145.087,145.0903,,0,,0,145.0905,145.0905,145.0935,146.5936,0,20,20,20,1,0.6,0.4,0.6,0.4,1,0,,,,,,,,,,,,,,,,,,,,,,,,,,,,,,,,,,,,
,,5ce031fc7f65ee001a985a6b,66fcb88ab5299936d1513484,2024-10-02_04h26.56.340,mdp,2024.2.1,Win32,57.14285714,66fa4ebf79326e780c390304,,,,,,,,,,,,,,,,,,,,,146.5958,146.5959,146.6007,147.4317,0,0,left,0.3187,,147.4378,147.4403,,0,,147.4432,147.4453,,0,,1,147.4454,147.4454,147.4485,148.9491,0,21,21,21,1,0.6,0.4,0.6,0.4,1,0,,,,,,,,,,,,,,,,,,,,,,,,,,,,,,,,,,,,
,,5ce031fc7f65ee001a985a6b,66fcb88ab5299936d1513484,2024-10-02_04h26.56.340,mdp,2024.2.1,Win32,57.14285714,66fa4ebf79326e780c390304,,,,,,,,,,,,,,,,,,,,,148.9512,148.9513,148.9548,149.6125,0,0,left,0.1408,,149.6171,149.6199,,1,,149.6219,149.6237,,1,,1,149.6238,149.6238,149.6254,151.1125,0,22,22,22,1,0.8,0.2,0.8,0.2,1,0,,,,,,,,,,,,,,,,,,,,,,,,,,,,,,,,,,,,
,,5ce031fc7f65ee001a985a6b,66fcb88ab5299936d1513484,2024-10-02_04h26.56.340,mdp,2024.2.1,Win32,57.14285714,66fa4ebf79326e780c390304,,,,,,,,,,,,,,,,,,,,,151.1149,151.1149,151.1195,152.0389,0,1,left,0.4025,,152.0433,152.0457,,0,,152.0477,152.0494,,1,,0,152.0494,152.0494,152.0512,153.537,0,23,23,23,1,0.8,0.2,0.8,0.2,1,0,,,,,,,,,,,,,,,,,,,,,,,,,,,,,,,,,,,,
,,5ce031fc7f65ee001a985a6b,66fcb88ab5299936d1513484,2024-10-02_04h26.56.340,mdp,2024.2.1,Win32,57.14285714,66fa4ebf79326e780c390304,,,,,,,,,,,,,,,,,,,,,153.5381,153.5382,153.5408,154.357,0,1,left,0.2996,,154.3594,154.3619,,0,,154.3625,154.3628,,1,,0,154.3629,154.3629,154.3634,155.8582,0,24,24,24,1,0.8,0.2,0.8,0.2,1,0,,,,,,,,,,,,,,,,,,,,,,,,,,,,,,,,,,,,
,,5ce031fc7f65ee001a985a6b,66fcb88ab5299936d1513484,2024-10-02_04h26.56.340,mdp,2024.2.1,Win32,57.14285714,66fa4ebf79326e780c390304,,,,,,,,,,,,,,,,,,,,,155.8602,155.8602,155.8643,156.5733,1,1,right,0.1947,,156.5764,156.5786,,0,,156.5796,156.5805,,0,,0,156.5805,156.5806,156.5817,158.0746,0,25,25,25,1,0.8,0.2,0.8,0.2,1,0,,,,,,,,,,,,,,,,,,,,,,,,,,,,,,,,,,,,
,,5ce031fc7f65ee001a985a6b,66fcb88ab5299936d1513484,2024-10-02_04h26.56.340,mdp,2024.2.1,Win32,57.14285714,66fa4ebf79326e780c390304,,,,,,,,,,,,,,,,,,,,,158.0767,158.0767,158.0802,158.6508,0,1,left,0.0522,,158.6557,158.6588,,0,,158.6607,158.6623,,0,,0,158.6623,158.6623,158.6639,160.1509,0,26,26,26,1,0.8,0.2,0.8,0.2,1,0,,,,,,,,,,,,,,,,,,,,,,,,,,,,,,,,,,,,
,,5ce031fc7f65ee001a985a6b,66fcb88ab5299936d1513484,2024-10-02_04h26.56.340,mdp,2024.2.1,Win32,57.14285714,66fa4ebf79326e780c390304,,,,,,,,,,,,,,,,,,,,,160.1533,160.1534,160.1577,160.797,1,1,right,0.1251,,160.8021,160.8052,,1,,160.8074,160.8097,,1,,0,160.8098,160.8099,160.8118,162.2986,0,27,27,27,1,0.6,0.4,0.2,0.8,1,0,,,,,,,,,,,,,,,,,,,,,,,,,,,,,,,,,,,,
,,5ce031fc7f65ee001a985a6b,66fcb88ab5299936d1513484,2024-10-02_04h26.56.340,mdp,2024.2.1,Win32,57.14285714,66fa4ebf79326e780c390304,,,,,,,,,,,,,,,,,,,,,162.3005,162.3008,162.305,164.3039,1,1,right,1.4823,,164.3094,164.3126,,1,,164.3154,164.3177,,1,,0,164.3179,164.3179,164.3215,165.8222,0,28,28,28,1,0.6,0.4,0.2,0.8,1,0,,,,,,,,,,,,,,,,,,,,,,,,,,,,,,,,,,,,
,,5ce031fc7f65ee001a985a6b,66fcb88ab5299936d1513484,2024-10-02_04h26.56.340,mdp,2024.2.1,Win32,57.14285714,66fa4ebf79326e780c390304,,,,,,,,,,,,,,,,,,,,,165.8245,165.8246,165.829,166.7844,0,1,left,0.4446,,166.7884,166.7905,,0,,166.7928,166.795,,0,,0,166.7951,166.7951,166.7972,168.2994,0,29,29,29,1,0.6,0.4,0.2,0.8,1,0,,,,,,,,,,,,,,,,,,,,,,,,,,,,,,,,,,,,
,,5ce031fc7f65ee001a985a6b,66fcb88ab5299936d1513484,2024-10-02_04h26.56.340,mdp,2024.2.1,Win32,57.14285714,66fa4ebf79326e780c390304,,,,,,,,,,,,,,,,,,,,,168.3021,168.3021,168.3062,169.521,0,1,left,0.7018,,169.5269,169.5294,,1,,169.5315,169.5331,,1,,0,169.5333,169.5333,169.5351,171.0217,0,30,30,30,1,0.2,0.8,0.6,0.4,1,0,,,,,,,,,,,,,,,,,,,,,,,,,,,,,,,,,,,,
,,5ce031fc7f65ee001a985a6b,66fcb88ab5299936d1513484,2024-10-02_04h26.56.340,mdp,2024.2.1,Win32,57.14285714,66fa4ebf79326e780c390304,,,,,,,,,,,,,,,,,,,,,171.0242,171.0243,171.0283,172.4543,1,0,right,0.909,,172.4607,172.4632,,1,,172.466,172.468,,1,,1,172.4681,172.4681,172.4728,173.9706,0,31,31,31,1,0.4,0.6,0.8,0.2,1,0,,,,,,,,,,,,,,,,,,,,,,,,,,,,,,,,,,,,
,,5ce031fc7f65ee001a985a6b,66fcb88ab5299936d1513484,2024-10-02_04h26.56.340,mdp,2024.2.1,Win32,57.14285714,66fa4ebf79326e780c390304,,,,,,,,,,,,,,,,,,,,,173.9726,173.9726,173.9762,175.3828,1,0,right,0.888,,175.3856,175.3882,,0,,175.3891,175.3898,,1,,1,175.3899,175.3899,175.3907,176.8844,0,32,32,32,1,0.6,0.4,0.4,0.6,1,0,,,,,,,,,,,,,,,,,,,,,,,,,,,,,,,,,,,,
,,5ce031fc7f65ee001a985a6b,66fcb88ab5299936d1513484,2024-10-02_04h26.56.340,mdp,2024.2.1,Win32,57.14285714,66fa4ebf79326e780c390304,,,,,,,,,,,,,,,,,,,,,176.8871,176.8871,176.891,177.845,1,1,right,0.4354,,177.8516,177.8544,,1,,177.8575,177.8607,,1,,0,177.8608,177.8608,177.8662,179.3617,0,33,33,33,1,0.6,0.4,0.4,0.6,1,0,,,,,,,,,,,,,,,,,,,,,,,,,,,,,,,,,,,,
,,5ce031fc7f65ee001a985a6b,66fcb88ab5299936d1513484,2024-10-02_04h26.56.340,mdp,2024.2.1,Win32,57.14285714,66fa4ebf79326e780c390304,,,,,,,,,,,,,,,,,,,,,179.3636,179.3637,179.3669,180.2693,0,0,left,0.3849,,180.2748,180.2774,,0,,180.2796,180.2816,,1,,1,180.2817,180.2817,180.2841,181.7725,0,34,34,34,1,0.6,0.4,0.4,0.6,1,0,,,,,,,,,,,,,,,,,,,,,,,,,,,,,,,,,,,,
,,5ce031fc7f65ee001a985a6b,66fcb88ab5299936d1513484,2024-10-02_04h26.56.340,mdp,2024.2.1,Win32,57.14285714,66fa4ebf79326e780c390304,,,,,,,,,,,,,,,,,,,,,181.774,181.7741,181.7782,182.8357,0,0,left,0.5418,,182.8405,182.8422,,1,,182.845,182.847,,1,,1,182.8472,182.8472,182.8491,184.352,0,35,35,35,1,0.6,0.4,0.4,0.6,1,0,,,,,,,,,,,,,,,,,,,,,,,,,,,,,,,,,,,,
,,5ce031fc7f65ee001a985a6b,66fcb88ab5299936d1513484,2024-10-02_04h26.56.340,mdp,2024.2.1,Win32,57.14285714,66fa4ebf79326e780c390304,,,,,,,,,,,,,,,,,,,,,184.3541,184.3544,184.3577,185.3293,0,1,left,0.4592,,185.3347,185.3374,,0,,185.3396,185.3415,,0,,0,185.3415,185.3416,185.3437,186.8295,0,36,36,36,1,0.6,0.4,0.4,0.6,1,0,,,,,,,,,,,,,,,,,,,,,,,,,,,,,,,,,,,,
,,5ce031fc7f65ee001a985a6b,66fcb88ab5299936d1513484,2024-10-02_04h26.56.340,mdp,2024.2.1,Win32,57.14285714,66fa4ebf79326e780c390304,,,,,,,,,,,,,,,,,,,,,186.8317,186.8318,186.836,187.4409,1,0,right,0.0909,,187.447,187.4497,,1,,187.4528,187.455,,0,,1,187.4552,187.4553,187.459,188.9584,0,37,37,37,1,0.6,0.4,0.4,0.6,1,0,,,,,,,,,,,,,,,,,,,,,,,,,,,,,,,,,,,,
,,5ce031fc7f65ee001a985a6b,66fcb88ab5299936d1513484,2024-10-02_04h26.56.340,mdp,2024.2.1,Win32,57.14285714,66fa4ebf79326e780c390304,,,,,,,,,,,,,,,,,,,,,188.9607,188.9608,188.9647,189.6566,1,0,right,0.1754,,189.6619,189.665,,0,,189.6674,189.6693,,1,,1,189.6694,189.6695,189.6715,191.1569,0,38,38,38,1,0.6,0.4,0.4,0.6,1,0,,,,,,,,,,,,,,,,,,,,,,,,,,,,,,,,,,,,
,,5ce031fc7f65ee001a985a6b,66fcb88ab5299936d1513484,2024-10-02_04h26.56.340,mdp,2024.2.1,Win32,57.14285714,66fa4ebf79326e780c390304,,,,,,,,,,,,,,,,,,,,,191.1588,191.1588,191.1625,191.9245,1,1,right,0.2512,,191.9293,191.9323,,1,,191.9352,191.9376,,0,,0,191.9377,191.9378,191.9396,193.4252,0,39,39,39,1,0.6,0.4,0.4,0.6,1,0,,,,,,,,,,,,,,,,,,,,,,,,,,,,,,,,,,,,
,,5ce031fc7f65ee001a985a6b,66fcb88ab5299936d1513484,2024-10-02_04h26.56.340,mdp,2024.2.1,Win32,57.14285714,66fa4ebf79326e780c390304,,,,,,,,,,,,,,,,,,,,,193.4276,193.4276,193.4374,194.2628,1,1,right,0.3158,,194.2674,194.2707,,1,,194.2726,194.2742,,1,,0,194.2743,194.2744,194.2759,195.7652,0,40,40,40,1,0.6,0.4,0.4,0.6,1,0,,,,,,,,,,,,,,,,,,,,,,,,,,,,,,,,,,,,
,,5ce031fc7f65ee001a985a6b,66fcb88ab5299936d1513484,2024-10-02_04h26.56.340,mdp,2024.2.1,Win32,57.14285714,66fa4ebf79326e780c390304,,,,,,,,,,,,,,,,,,,,,195.7672,195.7672,195.7705,196.7102,0,0,left,0.4303,,196.7132,196.715,,1,,196.7168,196.7184,,1,,1,196.7185,196.7186,196.7207,198.2065,0,41,41,41,1,0.2,0.8,0.8,0.2,1,0,,,,,,,,,,,,,,,,,,,,,,,,,,,,,,,,,,,,
,,5ce031fc7f65ee001a985a6b,66fcb88ab5299936d1513484,2024-10-02_04h26.56.340,mdp,2024.2.1,Win32,57.14285714,66fa4ebf79326e780c390304,,,,,,,,,,,,,,,,,,,,,198.2087,198.2088,198.213,198.7818,0,1,left,0.0571,,198.7859,198.7889,,1,,198.7909,198.7925,,0,,0,198.7925,198.7926,198.7944,200.2824,0,42,42,42,1,0.2,0.8,0.8,0.2,1,0,,,,,,,,,,,,,,,,,,,,,,,,,,,,,,,,,,,,
,,5ce031fc7f65ee001a985a6b,66fcb88ab5299936d1513484,2024-10-02_04h26.56.340,mdp,2024.2.1,Win32,57.14285714,66fa4ebf79326e780c390304,,,,,,,,,,,,,,,,,,,,,200.2846,200.2847,200.2882,201.0148,0,1,left,0.2111,,201.0187,201.0211,,1,,201.0226,201.0238,,1,,0,201.0239,201.0239,201.0251,202.5161,0,43,43,43,1,0.2,0.8,0.8,0.2,1,0,,,,,,,,,,,,,,,,,,,,,,,,,,,,,,,,,,,,
,,5ce031fc7f65ee001a985a6b,66fcb88ab5299936d1513484,2024-10-02_04h26.56.340,mdp,2024.2.1,Win32,57.14285714,66fa4ebf79326e780c390304,,,,,,,,,,,,,,,,,,,,,202.519,202.5191,202.5231,203.179,1,1,right,0.1416,,203.1837,203.1872,,0,,203.1895,203.1915,,0,,0,203.1916,203.1916,203.1935,204.6792,0,44,44,44,1,0.2,0.8,0.8,0.2,1,0,,,,,,,,,,,,,,,,,,,,,,,,,,,,,,,,,,,,
,,5ce031fc7f65ee001a985a6b,66fcb88ab5299936d1513484,2024-10-02_04h26.56.340,mdp,2024.2.1,Win32,57.14285714,66fa4ebf79326e780c390304,,,,,,,,,,,,,,,,,,,,,204.6811,204.6812,204.6844,205.5171,0,1,left,0.3218,,205.5222,205.5248,,1,,205.5267,205.5291,,0,,0,205.5291,205.5292,205.5312,207.0192,0,45,45,45,1,0.2,0.8,0.8,0.2,1,0,,,,,,,,,,,,,,,,,,,,,,,,,,,,,,,,,,,,
,,5ce031fc7f65ee001a985a6b,66fcb88ab5299936d1513484,2024-10-02_04h26.56.340,mdp,2024.2.1,Win32,57.14285714,66fa4ebf79326e780c390304,,,,,,,,,,,,,,,,,,,,,207.0216,207.0216,207.0247,208.0142,1,1,right,0.473,,208.0186,208.0207,,0,,208.0228,208.0246,,0,,0,208.0247,208.0247,208.0268,209.5126,0,46,46,46,1,0.2,0.8,0.8,0.2,1,0,,,,,,,,,,,,,,,,,,,,,,,,,,,,,,,,,,,,
,,5ce031fc7f65ee001a985a6b,66fcb88ab5299936d1513484,2024-10-02_04h26.56.340,mdp,2024.2.1,Win32,57.14285714,66fa4ebf79326e780c390304,,,,,,,,,,,,,,,,,,,,,209.5144,209.5145,209.5178,210.4025,0,1,left,0.3756,,210.4069,210.41,,1,,210.4121,210.4139,,1,,0,210.414,210.414,210.4164,211.9043,0,47,47,47,1,0.2,0.8,0.8,0.2,1,0,,,,,,,,,,,,,,,,,,,,,,,,,,,,,,,,,,,,
,,5ce031fc7f65ee001a985a6b,66fcb88ab5299936d1513484,2024-10-02_04h26.56.340,mdp,2024.2.1,Win32,57.14285714,66fa4ebf79326e780c390304,,,,,,,,,,,,,,,,,,,,,211.9063,211.9064,211.9102,213.3867,0,1,left,0.9656,,213.3911,213.3952,,1,,213.3976,213.3997,,1,,0,213.3998,213.3998,213.4016,214.9039,0,48,48,48,1,0.4,0.6,0.6,0.4,1,0,,,,,,,,,,,,,,,,,,,,,,,,,,,,,,,,,,,,
,,5ce031fc7f65ee001a985a6b,66fcb88ab5299936d1513484,2024-10-02_04h26.56.340,mdp,2024.2.1,Win32,57.14285714,66fa4ebf79326e780c390304,,,,,,,,,,,,,,,,,,,,,214.9058,214.9058,214.9101,215.707,1,1,right,0.2837,,215.7113,215.7145,,0,,215.7167,215.7186,,0,,0,215.7186,215.7187,215.7205,217.2095,0,49,49,49,1,0.2,0.8,0.8,0.2,1,0,,,,,,,,,,,,,,,,,,,,,,,,,,,,,,,,,,,,
,,5ce031fc7f65ee001a985a6b,66fcb88ab5299936d1513484,2024-10-02_04h26.56.340,mdp,2024.2.1,Win32,57.14285714,66fa4ebf79326e780c390304,,,,,,,,,,,,,,,,,,,,,,,,,,,,,,,,,,,,,,,,,,,,,,,,,,,,,,,,217.2123,275.7285,0,0,0,4,1,imgs/kangaroo.png,imgs/lion.png,imgs/horse.png,imgs/rabbit.png,imgs/bear.png,,,,,,,,,,,,,,,,,,,,,,,,
,,5ce031fc7f65ee001a985a6b,66fcb88ab5299936d1513484,2024-10-02_04h26.56.340,mdp,2024.2.1,Win32,57.14285714,66fa4ebf79326e780c390304,,,,,,,,,,,,,,2,seqs/st2seq30.csv,275.732,277.1592,space,0.8806,,277.1669,277.1669,277.1679,279.3583,0,1,left,1.6448,,279.3612,280.9281,1,1,right,280.9297,280.9321,,0,,0,280.9322,280.9322,280.9329,282.4284,0,0,0,0,1,0.2,0.8,0.6,0.4,,,,,,,,,,,,,,,1.016,,0.2,0.8,0.6,0.4,0.2,0.8,0.4,0.6,1,0,,,,,,,,,,,,
,,5ce031fc7f65ee001a985a6b,66fcb88ab5299936d1513484,2024-10-02_04h26.56.340,mdp,2024.2.1,Win32,57.14285714,66fa4ebf79326e780c390304,,,,,,,,,,,,,,,,,,,,,282.4288,282.4289,282.4311,283.6505,0,0,left,0.6711,,283.6524,285.1854,0,1,left,285.1867,285.1892,,0,,0,285.1893,285.1893,285.19,286.6859,0,1,1,1,1,0.2,0.8,0.6,0.4,,,,,,,,,,,,,,,0.9662,,0.2,0.8,0.6,0.4,0.8,0.2,0.8,0.2,1,0,,,,,,,,,,,,
,,5ce031fc7f65ee001a985a6b,66fcb88ab5299936d1513484,2024-10-02_04h26.56.340,mdp,2024.2.1,Win32,57.14285714,66fa4ebf79326e780c390304,,,,,,,,,,,,,,,,,,,,,286.6862,286.6862,286.688,287.6636,1,0,right,0.4299,,287.6657,289.2335,1,1,right,289.2345,289.2372,,0,,0,289.2372,289.2372,289.2379,290.7341,0,2,2,2,1,0.2,0.8,0.6,0.4,,,,,,,,,,,,,,,1.0408,,0.2,0.8,0.6,0.4,0.8,0.2,0.8,0.2,1,0,,,,,,,,,,,,
,,5ce031fc7f65ee001a985a6b,66fcb88ab5299936d1513484,2024-10-02_04h26.56.340,mdp,2024.2.1,Win32,57.14285714,66fa4ebf79326e780c390304,,,,,,,,,,,,,,,,,,,,,290.7346,290.7346,290.7369,291.8507,0,1,left,0.5696,,291.8523,293.3863,1,0,right,293.388,293.3902,,0,,1,293.3902,293.3902,293.3909,294.8878,0,3,3,3,1,0.2,0.8,0.6,0.4,,,,,,,,,,,,,,,0.9706,,0.2,0.8,0.6,0.4,0.8,0.2,0.8,0.2,1,0,,,,,,,,,,,,
,,5ce031fc7f65ee001a985a6b,66fcb88ab5299936d1513484,2024-10-02_04h26.56.340,mdp,2024.2.1,Win32,57.14285714,66fa4ebf79326e780c390304,,,,,,,,,,,,,,,,,,,,,294.8889,294.8889,294.8929,295.8646,0,0,left,0.4323,,295.8676,297.7149,1,1,right,297.7189,297.722,,1,,0,297.7222,297.7222,297.7241,299.215,0,4,4,4,1,0.2,0.8,0.6,0.4,,,,,,,,,,,,,,,1.2793,,0.2,0.8,0.6,0.4,0.8,0.2,0.8,0.2,1,0,,,,,,,,,,,,
,,5ce031fc7f65ee001a985a6b,66fcb88ab5299936d1513484,2024-10-02_04h26.56.340,mdp,2024.2.1,Win32,57.14285714,66fa4ebf79326e780c390304,,,,,,,,,,,,,,,,,,,,,299.2165,299.2165,299.2209,300.158,0,1,left,0.3923,,300.1621,301.5884,1,0,right,301.5926,301.5951,,1,,1,301.5953,301.5953,301.5972,303.0886,0,5,5,5,1,0.2,0.8,0.6,0.4,,,,,,,,,,,,,,,0.8866,,0.2,0.8,0.6,0.4,0.8,0.2,0.8,0.2,1,0,,,,,,,,,,,,
,,5ce031fc7f65ee001a985a6b,66fcb88ab5299936d1513484,2024-10-02_04h26.56.340,mdp,2024.2.1,Win32,57.14285714,66fa4ebf79326e780c390304,,,,,,,,,,,,,,,,,,,,,303.09,303.0901,303.0937,303.9611,0,1,left,0.316,,303.9658,305.6017,1,1,right,305.6057,305.6092,,1,,0,305.6094,305.6094,305.6115,307.1014,0,6,6,6,1,0.2,0.8,0.6,0.4,,,,,,,,,,,,,,,1.0912,,0.2,0.8,0.6,0.4,0.2,0.8,0.6,0.4,1,0,,,,,,,,,,,,
,,5ce031fc7f65ee001a985a6b,66fcb88ab5299936d1513484,2024-10-02_04h26.56.340,mdp,2024.2.1,Win32,57.14285714,66fa4ebf79326e780c390304,,,,,,,,,,,,,,,,,,,,,307.1028,307.1028,307.1076,307.9398,0,1,left,0.2923,,307.9441,309.1959,0,0,left,309.2002,309.2032,,1,,1,309.2034,309.2034,309.2055,310.696,0,7,7,7,1,0.2,0.8,0.6,0.4,,,,,,,,,,,,,,,0.7189,,0.2,0.8,0.6,0.4,0.2,0.8,0.6,0.4,1,0,,,,,,,,,,,,
,,5ce031fc7f65ee001a985a6b,66fcb88ab5299936d1513484,2024-10-02_04h26.56.340,mdp,2024.2.1,Win32,57.14285714,66fa4ebf79326e780c390304,,,,,,,,,,,,,,,,,,,,,310.6974,310.6975,310.7014,311.7083,0,0,left,0.4707,,311.7128,312.9295,1,1,right,312.9335,312.9369,,0,,0,312.9371,312.9371,312.939,314.4299,0,8,8,8,1,0.6,0.4,0.2,0.8,,,,,,,,,,,,,,,0.6542,,0.2,0.8,0.6,0.4,0.2,0.8,0.6,0.4,1,0,,,,,,,,,,,,
,,5ce031fc7f65ee001a985a6b,66fcb88ab5299936d1513484,2024-10-02_04h26.56.340,mdp,2024.2.1,Win32,57.14285714,66fa4ebf79326e780c390304,,,,,,,,,,,,,,,,,,,,,314.431,314.4311,314.4351,315.4076,0,1,left,0.4384,,315.4115,317.0126,0,0,left,317.0174,317.0201,,0,,1,317.0203,317.0203,317.0225,318.5129,0,9,9,9,1,0.6,0.4,0.2,0.8,,,,,,,,,,,,,,,1.0338,,0.2,0.8,0.6,0.4,0.6,0.4,0.8,0.2,1,0,,,,,,,,,,,,
,,5ce031fc7f65ee001a985a6b,66fcb88ab5299936d1513484,2024-10-02_04h26.56.340,mdp,2024.2.1,Win32,57.14285714,66fa4ebf79326e780c390304,,,,,,,,,,,,,,,,,,,,,318.5146,318.5146,318.5187,319.1066,0,0,left,0.0442,,319.1104,320.1186,0,0,left,320.1228,320.1255,,1,,1,320.1258,320.1258,320.1279,321.6194,0,10,10,10,1,0.6,0.4,0.2,0.8,,,,,,,,,,,,,,,0.4465,,0.2,0.8,0.6,0.4,0.6,0.4,0.8,0.2,1,0,,,,,,,,,,,,
,,5ce031fc7f65ee001a985a6b,66fcb88ab5299936d1513484,2024-10-02_04h26.56.340,mdp,2024.2.1,Win32,57.14285714,66fa4ebf79326e780c390304,,,,,,,,,,,,,,,,,,,,,321.6206,321.6206,321.6253,322.5969,0,1,left,0.4385,,322.602,323.6084,0,0,left,323.6124,323.6156,,0,,1,323.6157,323.6158,323.6177,325.1086,0,11,11,11,1,0.6,0.4,0.2,0.8,,,,,,,,,,,,,,,0.4622,,0.2,0.8,0.6,0.4,0.6,0.4,0.8,0.2,1,0,,,,,,,,,,,,
,,5ce031fc7f65ee001a985a6b,66fcb88ab5299936d1513484,2024-10-02_04h26.56.340,mdp,2024.2.1,Win32,57.14285714,66fa4ebf79326e780c390304,,,,,,,,,,,,,,,,,,,,,325.1099,325.1099,325.1141,325.8767,0,1,left,0.2269,,325.8807,326.8538,0,0,left,326.8577,326.8608,,0,,1,326.861,326.861,326.8631,328.3539,0,12,12,12,1,0.6,0.4,0.2,0.8,,,,,,,,,,,,,,,0.4234,,0.2,0.8,0.6,0.4,0.6,0.4,0.8,0.2,1,0,,,,,,,,,,,,
,,5ce031fc7f65ee001a985a6b,66fcb88ab5299936d1513484,2024-10-02_04h26.56.340,mdp,2024.2.1,Win32,57.14285714,66fa4ebf79326e780c390304,,,,,,,,,,,,,,,,,,,,,328.355,328.355,328.3591,328.9821,0,0,left,0.0714,,328.986,329.6806,0,1,left,329.6846,329.6876,,1,,0,329.6876,329.6876,329.6896,331.1804,0,13,13,13,1,0.6,0.4,0.2,0.8,,,,,,,,,,,,,,,0.1291,,0.2,0.8,0.6,0.4,0.6,0.4,0.8,0.2,1,0,,,,,,,,,,,,
,,5ce031fc7f65ee001a985a6b,66fcb88ab5299936d1513484,2024-10-02_04h26.56.340,mdp,2024.2.1,Win32,57.14285714,66fa4ebf79326e780c390304,,,,,,,,,,,,,,,,,,,,,331.1816,331.1817,331.1855,332.0531,0,1,left,0.3151,,332.0573,333.2047,0,0,left,333.209,333.2119,,0,,1,333.2122,333.2122,333.2145,334.7051,0,14,14,14,1,0.6,0.4,0.2,0.8,,,,,,,,,,,,,,,0.5832,,0.2,0.8,0.6,0.4,0.6,0.4,0.8,0.2,1,0,,,,,,,,,,,,
,,5ce031fc7f65ee001a985a6b,66fcb88ab5299936d1513484,2024-10-02_04h26.56.340,mdp,2024.2.1,Win32,57.14285714,66fa4ebf79326e780c390304,,,,,,,,,,,,,,,,,,,,,334.7064,334.7065,334.7103,335.6126,0,1,left,0.3555,,335.6166,336.7994,0,0,left,336.8034,336.8062,,0,,1,336.8063,336.8064,336.8086,338.2995,0,15,15,15,1,0.6,0.4,0.2,0.8,,,,,,,,,,,,,,,0.6315,,0.2,0.8,0.6,0.4,0.6,0.4,0.8,0.2,1,0,,,,,,,,,,,,
,,5ce031fc7f65ee001a985a6b,66fcb88ab5299936d1513484,2024-10-02_04h26.56.340,mdp,2024.2.1,Win32,57.14285714,66fa4ebf79326e780c390304,,,,,,,,,,,,,,,,,,,,,338.3012,338.3012,338.3057,339.2073,0,1,left,0.3732,,339.2109,340.3587,0,0,left,340.3629,340.3659,,0,,1,340.366,340.366,340.3682,341.8595,0,16,16,16,1,0.6,0.4,0.2,0.8,,,,,,,,,,,,,,,0.5975,,0.2,0.8,0.6,0.4,0.6,0.4,0.8,0.2,1,0,,,,,,,,,,,,
,,5ce031fc7f65ee001a985a6b,66fcb88ab5299936d1513484,2024-10-02_04h26.56.340,mdp,2024.2.1,Win32,57.14285714,66fa4ebf79326e780c390304,,,,,,,,,,,,,,,,,,,,,341.8609,341.8609,341.8649,342.4178,0,0,left,0.0012,,342.4219,343.7087,0,1,left,343.7133,343.7162,,1,,0,343.7163,343.7163,343.7185,345.209,0,17,17,17,1,0.6,0.4,0.2,0.8,,,,,,,,,,,,,,,0.7201,,0.2,0.8,0.6,0.4,0.8,0.2,0.6,0.4,1,0,,,,,,,,,,,,
,,5ce031fc7f65ee001a985a6b,66fcb88ab5299936d1513484,2024-10-02_04h26.56.340,mdp,2024.2.1,Win32,57.14285714,66fa4ebf79326e780c390304,,,,,,,,,,,,,,,,,,,,,345.2107,345.2108,345.2158,345.977,0,0,left,0.2146,,345.9814,346.9198,0,1,left,346.9239,346.9269,,1,,0,346.927,346.927,346.929,348.4196,0,18,18,18,1,0.6,0.4,0.2,0.8,,,,,,,,,,,,,,,0.3853,,0.2,0.8,0.6,0.4,0.8,0.2,0.6,0.4,1,0,,,,,,,,,,,,
,,5ce031fc7f65ee001a985a6b,66fcb88ab5299936d1513484,2024-10-02_04h26.56.340,mdp,2024.2.1,Win32,57.14285714,66fa4ebf79326e780c390304,,,,,,,,,,,,,,,,,,,,,348.4209,348.421,348.4251,349.6414,0,1,left,0.6831,,349.6456,350.7926,0,0,left,350.7973,350.8,,0,,1,350.8002,350.8003,350.8025,352.2931,0,19,19,19,1,0.6,0.4,0.2,0.8,,,,,,,,,,,,,,,0.5904,,0.2,0.8,0.6,0.4,0.8,0.2,0.6,0.4,1,0,,,,,,,,,,,,
,,5ce031fc7f65ee001a985a6b,66fcb88ab5299936d1513484,2024-10-02_04h26.56.340,mdp,2024.2.1,Win32,57.14285714,66fa4ebf79326e780c390304,,,,,,,,,,,,,,,,,,,,,352.2943,352.2944,352.2985,352.887,0,1,left,0.0521,,352.8909,354.0034,0,0,left,354.0072,354.0106,,0,,1,354.0108,354.0108,354.0128,355.5037,0,20,20,20,1,0.6,0.4,0.2,0.8,,,,,,,,,,,,,,,0.5609,,0.2,0.8,0.6,0.4,0.8,0.2,0.6,0.4,1,0,,,,,,,,,,,,
,,5ce031fc7f65ee001a985a6b,66fcb88ab5299936d1513484,2024-10-02_04h26.56.340,mdp,2024.2.1,Win32,57.14285714,66fa4ebf79326e780c390304,,,,,,,,,,,,,,,,,,,,,355.5058,355.5058,355.5106,356.342,0,0,left,0.291,,356.3462,357.4581,1,1,right,357.4621,357.4657,,0,,0,357.4658,357.4658,357.4678,358.9585,0,21,21,21,1,0.2,0.8,0.6,0.4,,,,,,,,,,,,,,,0.5522,,0.2,0.8,0.6,0.4,0.8,0.2,0.6,0.4,1,0,,,,,,,,,,,,
,,5ce031fc7f65ee001a985a6b,66fcb88ab5299936d1513484,2024-10-02_04h26.56.340,mdp,2024.2.1,Win32,57.14285714,66fa4ebf79326e780c390304,,,,,,,,,,,,,,,,,,,,,358.9601,358.9601,358.9643,359.7611,0,0,left,0.2452,,359.7651,360.9839,0,1,left,360.989,360.9912,,1,,0,360.9913,360.9913,360.9937,362.483,0,22,22,22,1,0.2,0.8,0.6,0.4,,,,,,,,,,,,,,,0.6915,,0.2,0.8,0.6,0.4,0.8,0.2,0.6,0.4,1,0,,,,,,,,,,,,
,,5ce031fc7f65ee001a985a6b,66fcb88ab5299936d1513484,2024-10-02_04h26.56.340,mdp,2024.2.1,Win32,57.14285714,66fa4ebf79326e780c390304,,,,,,,,,,,,,,,,,,,,,362.4843,362.4844,362.4881,363.4959,0,1,left,0.4773,,363.4998,364.6816,0,0,left,364.6862,364.6891,,0,,1,364.6894,364.6894,364.6914,366.1821,0,23,23,23,1,0.2,0.8,0.6,0.4,,,,,,,,,,,,,,,0.624,,0.2,0.8,0.6,0.4,0.8,0.2,0.6,0.4,1,0,,,,,,,,,,,,
,,5ce031fc7f65ee001a985a6b,66fcb88ab5299936d1513484,2024-10-02_04h26.56.340,mdp,2024.2.1,Win32,57.14285714,66fa4ebf79326e780c390304,,,,,,,,,,,,,,,,,,,,,366.1835,366.1836,366.1878,366.9151,0,1,left,0.1764,,366.9196,367.5433,0,0,left,367.5467,367.5506,,0,,1,367.5507,367.5507,367.5526,369.0436,0,24,24,24,1,0.2,0.8,0.6,0.4,,,,,,,,,,,,,,,0.076,,0.2,0.8,0.6,0.4,0.8,0.2,0.6,0.4,1,0,,,,,,,,,,,,
,,5ce031fc7f65ee001a985a6b,66fcb88ab5299936d1513484,2024-10-02_04h26.56.340,mdp,2024.2.1,Win32,57.14285714,66fa4ebf79326e780c390304,,,,,,,,,,,,,,,,,,,,,369.045,369.0451,369.0494,369.6371,0,1,left,0.0507,,369.6413,370.6143,0,1,left,370.6183,370.6211,,1,,0,370.6213,370.6214,370.6233,372.1145,0,25,25,25,1,0.2,0.8,0.6,0.4,,,,,,,,,,,,,,,0.4309,,0.2,0.8,0.6,0.4,0.8,0.2,0.6,0.4,1,0,,,,,,,,,,,,
,,5ce031fc7f65ee001a985a6b,66fcb88ab5299936d1513484,2024-10-02_04h26.56.340,mdp,2024.2.1,Win32,57.14285714,66fa4ebf79326e780c390304,,,,,,,,,,,,,,,,,,,,,372.1156,372.116,372.1198,373.3013,0,1,left,0.6269,,373.3052,374.4534,1,0,right,374.4574,374.4605,,1,,1,374.4606,374.4607,374.4626,375.9532,0,26,26,26,1,0.2,0.8,0.6,0.4,,,,,,,,,,,,,,,0.6165,,0.2,0.8,0.6,0.4,0.8,0.2,0.6,0.4,1,0,,,,,,,,,,,,
,,5ce031fc7f65ee001a985a6b,66fcb88ab5299936d1513484,2024-10-02_04h26.56.340,mdp,2024.2.1,Win32,57.14285714,66fa4ebf79326e780c390304,,,,,,,,,,,,,,,,,,,,,375.9545,375.9545,375.9588,376.6163,0,1,left,0.1313,,376.6211,377.5237,1,0,right,377.528,377.5309,,0,,1,377.5311,377.5311,377.5331,379.0242,0,27,27,27,1,0.2,0.8,0.6,0.4,,,,,,,,,,,,,,,0.3511,,0.2,0.8,0.6,0.4,0.8,0.2,0.6,0.4,1,0,,,,,,,,,,,,
,,5ce031fc7f65ee001a985a6b,66fcb88ab5299936d1513484,2024-10-02_04h26.56.340,mdp,2024.2.1,Win32,57.14285714,66fa4ebf79326e780c390304,,,,,,,,,,,,,,,,,,,,,379.0254,379.0255,379.0297,379.792,1,1,right,0.2295,,379.7959,380.4204,1,0,right,380.4257,380.4284,,1,,1,380.4287,380.4287,380.4314,381.9207,0,28,28,28,1,0.2,0.8,0.6,0.4,,,,,,,,,,,,,,,0.0965,,0.2,0.8,0.6,0.4,0.8,0.2,0.6,0.4,1,0,,,,,,,,,,,,
,,5ce031fc7f65ee001a985a6b,66fcb88ab5299936d1513484,2024-10-02_04h26.56.340,mdp,2024.2.1,Win32,57.14285714,66fa4ebf79326e780c390304,,,,,,,,,,,,,,,,,,,,,381.922,381.922,381.9258,382.6537,1,0,right,0.1968,,382.6577,383.2121,1,0,right,383.2168,383.2198,,0,,1,383.2201,383.2201,383.2227,384.7122,0,29,29,29,1,0.2,0.8,0.6,0.4,,,,,,,,,,,,,,,0.0015,,0.2,0.8,0.6,0.4,0.8,0.2,0.6,0.4,1,0,,,,,,,,,,,,
,,5ce031fc7f65ee001a985a6b,66fcb88ab5299936d1513484,2024-10-02_04h26.56.340,mdp,2024.2.1,Win32,57.14285714,66fa4ebf79326e780c390304,,,,,,,,,,,,,,,,,,,,,384.7134,384.7134,384.7177,385.4455,1,0,right,0.1966,,385.4501,386.0733,1,0,right,386.0776,386.0808,,1,,1,386.081,386.0811,386.0838,387.5744,0,30,30,30,1,0.6,0.4,0.4,0.6,,,,,,,,,,,,,,,0.071,,0.2,0.8,0.6,0.4,0.8,0.2,0.6,0.4,1,0,,,,,,,,,,,,
,,5ce031fc7f65ee001a985a6b,66fcb88ab5299936d1513484,2024-10-02_04h26.56.340,mdp,2024.2.1,Win32,57.14285714,66fa4ebf79326e780c390304,,,,,,,,,,,,,,,,,,,,,387.5765,387.5765,387.5814,388.237,1,0,right,0.1156,,388.2415,388.8655,1,1,right,388.8699,388.8731,,1,,0,388.8732,388.8732,388.8754,390.3656,0,31,31,31,1,0.6,0.4,0.4,0.6,,,,,,,,,,,,,,,0.0743,,0.2,0.8,0.6,0.4,0.8,0.2,0.6,0.4,1,0,,,,,,,,,,,,
,,5ce031fc7f65ee001a985a6b,66fcb88ab5299936d1513484,2024-10-02_04h26.56.340,mdp,2024.2.1,Win32,57.14285714,66fa4ebf79326e780c390304,,,,,,,,,,,,,,,,,,,,,390.3669,390.3669,390.3709,391.2032,0,1,left,0.2901,,391.2075,391.8666,0,0,left,391.871,391.8744,,0,,1,391.8746,391.8746,391.8766,393.3671,0,32,32,32,1,0.6,0.4,0.4,0.6,,,,,,,,,,,,,,,0.0972,,0.2,0.8,0.6,0.4,0.8,0.2,0.6,0.4,1,0,,,,,,,,,,,,
,,5ce031fc7f65ee001a985a6b,66fcb88ab5299936d1513484,2024-10-02_04h26.56.340,mdp,2024.2.1,Win32,57.14285714,66fa4ebf79326e780c390304,,,,,,,,,,,,,,,,,,,,,393.3695,393.3695,393.3747,394.0651,0,0,left,0.1461,,394.0695,394.6587,0,1,left,394.6625,394.6653,,1,,0,394.6655,394.6655,394.6675,396.1584,0,33,33,33,1,0.6,0.4,0.4,0.6,,,,,,,,,,,,,,,0.0245,,0.2,0.8,0.6,0.4,0.8,0.2,0.6,0.4,1,0,,,,,,,,,,,,
,,5ce031fc7f65ee001a985a6b,66fcb88ab5299936d1513484,2024-10-02_04h26.56.340,mdp,2024.2.1,Win32,57.14285714,66fa4ebf79326e780c390304,,,,,,,,,,,,,,,,,,,,,396.1595,396.1596,396.1635,396.7175,1,0,right,0.0224,,396.7211,397.5547,0,1,left,397.5593,397.562,,1,,0,397.5623,397.5623,397.5646,399.0548,0,34,34,34,1,0.6,0.4,0.4,0.6,,,,,,,,,,,,,,,0.289,,0.2,0.8,0.6,0.4,0.8,0.2,0.6,0.4,1,0,,,,,,,,,,,,
,,5ce031fc7f65ee001a985a6b,66fcb88ab5299936d1513484,2024-10-02_04h26.56.340,mdp,2024.2.1,Win32,57.14285714,66fa4ebf79326e780c390304,,,,,,,,,,,,,,,,,,,,,399.0564,399.0565,399.0608,399.7884,1,0,right,0.1804,,399.7923,400.4163,1,1,right,400.4204,400.4236,,1,,0,400.4237,400.4238,400.4256,401.9169,0,35,35,35,1,0.4,0.6,0.8,0.2,,,,,,,,,,,,,,,0.0923,,0.2,0.8,0.6,0.4,0.8,0.2,0.6,0.4,1,0,,,,,,,,,,,,
,,5ce031fc7f65ee001a985a6b,66fcb88ab5299936d1513484,2024-10-02_04h26.56.340,mdp,2024.2.1,Win32,57.14285714,66fa4ebf79326e780c390304,,,,,,,,,,,,,,,,,,,,,401.9182,401.9182,401.9232,402.615,0,1,left,0.1637,,402.6197,404.0455,0,0,left,404.05,404.0529,,0,,1,404.053,404.053,404.0551,405.5461,0,36,36,36,1,0.4,0.6,0.8,0.2,,,,,,,,,,,,,,,0.8736,,0.2,0.8,0.6,0.4,0.4,0.6,0.2,0.8,1,0,,,,,,,,,,,,
,,5ce031fc7f65ee001a985a6b,66fcb88ab5299936d1513484,2024-10-02_04h26.56.340,mdp,2024.2.1,Win32,57.14285714,66fa4ebf79326e780c390304,,,,,,,,,,,,,,,,,,,,,405.5469,405.5469,405.5506,406.244,0,0,left,0.1533,,406.2478,407.919,1,0,right,407.9236,407.9264,,0,,1,407.9265,407.9266,407.9285,409.4193,0,37,37,37,1,0.4,0.6,0.8,0.2,,,,,,,,,,,,,,,1.1258,,0.2,0.8,0.6,0.4,0.8,0.2,0.4,0.6,1,0,,,,,,,,,,,,
,,5ce031fc7f65ee001a985a6b,66fcb88ab5299936d1513484,2024-10-02_04h26.56.340,mdp,2024.2.1,Win32,57.14285714,66fa4ebf79326e780c390304,,,,,,,,,,,,,,,,,,,,,409.4204,409.4205,409.4245,409.9779,0,0,left,0.0012,,409.9817,410.8851,0,0,left,410.8896,410.8927,,1,,1,410.8929,410.8929,410.8955,412.3855,0,38,38,38,1,0.4,0.6,0.8,0.2,,,,,,,,,,,,,,,0.3539,,0.2,0.8,0.6,0.4,0.8,0.2,0.4,0.6,1,0,,,,,,,,,,,,
,,5ce031fc7f65ee001a985a6b,66fcb88ab5299936d1513484,2024-10-02_04h26.56.340,mdp,2024.2.1,Win32,57.14285714,66fa4ebf79326e780c390304,,,,,,,,,,,,,,,,,,,,,412.3865,412.3865,412.3907,412.9791,0,0,left,0.055,,412.9834,413.9563,0,0,left,413.9599,413.9632,,1,,1,413.9633,413.9634,413.9653,415.4564,0,39,39,39,1,0.4,0.6,0.8,0.2,,,,,,,,,,,,,,,0.4337,,0.2,0.8,0.6,0.4,0.8,0.2,0.4,0.6,1,0,,,,,,,,,,,,
,,5ce031fc7f65ee001a985a6b,66fcb88ab5299936d1513484,2024-10-02_04h26.56.340,mdp,2024.2.1,Win32,57.14285714,66fa4ebf79326e780c390304,,,,,,,,,,,,,,,,,,,,,415.4574,415.4575,415.4616,416.085,0,1,left,0.0893,,416.0896,417.132,0,0,left,417.1362,417.139,,1,,1,417.1391,417.1391,417.1413,418.6323,0,40,40,40,1,0.4,0.6,0.8,0.2,,,,,,,,,,,,,,,0.475,,0.2,0.8,0.6,0.4,0.8,0.2,0.4,0.6,1,0,,,,,,,,,,,,
,,5ce031fc7f65ee001a985a6b,66fcb88ab5299936d1513484,2024-10-02_04h26.56.340,mdp,2024.2.1,Win32,57.14285714,66fa4ebf79326e780c390304,,,,,,,,,,,,,,,,,,,,,418.6338,418.6339,418.6377,419.5394,0,1,left,0.3598,,419.5439,420.5522,0,1,left,420.5557,420.559,,1,,0,420.5591,420.5592,420.5612,422.0521,0,41,41,41,1,0.4,0.6,0.8,0.2,,,,,,,,,,,,,,,0.4633,,0.2,0.8,0.6,0.4,0.8,0.2,0.4,0.6,1,0,,,,,,,,,,,,
,,5ce031fc7f65ee001a985a6b,66fcb88ab5299936d1513484,2024-10-02_04h26.56.340,mdp,2024.2.1,Win32,57.14285714,66fa4ebf79326e780c390304,,,,,,,,,,,,,,,,,,,,,422.0537,422.0537,422.0588,422.6805,1,1,right,0.089,,422.6846,423.518,1,1,right,423.5222,423.5253,,1,,0,423.5254,423.5254,423.5277,425.018,0,42,42,42,1,0.4,0.6,0.8,0.2,,,,,,,,,,,,,,,0.2805,,0.2,0.8,0.6,0.4,0.8,0.2,0.4,0.6,1,0,,,,,,,,,,,,
,,5ce031fc7f65ee001a985a6b,66fcb88ab5299936d1513484,2024-10-02_04h26.56.340,mdp,2024.2.1,Win32,57.14285714,66fa4ebf79326e780c390304,,,,,,,,,,,,,,,,,,,,,425.0195,425.0195,425.0235,425.5773,0,0,left,0.0254,,425.5821,426.519,0,1,left,426.5234,426.5269,,1,,0,426.5269,426.527,426.5294,428.0192,0,43,43,43,1,0.4,0.6,0.8,0.2,,,,,,,,,,,,,,,0.3912,,0.2,0.8,0.6,0.4,0.8,0.2,0.4,0.6,1,0,,,,,,,,,,,,
,,5ce031fc7f65ee001a985a6b,66fcb88ab5299936d1513484,2024-10-02_04h26.56.340,mdp,2024.2.1,Win32,57.14285714,66fa4ebf79326e780c390304,,,,,,,,,,,,,,,,,,,,,428.0204,428.0207,428.0243,430.3928,1,0,right,1.8387,,430.3969,431.3697,0,1,left,431.374,431.3769,,0,,0,431.3771,431.3771,431.3796,432.8696,0,44,44,44,1,0.4,0.6,0.8,0.2,,,,,,,,,,,,,,,0.4242,,0.2,0.8,0.6,0.4,0.8,0.2,0.4,0.6,1,0,,,,,,,,,,,,
,,5ce031fc7f65ee001a985a6b,66fcb88ab5299936d1513484,2024-10-02_04h26.56.340,mdp,2024.2.1,Win32,57.14285714,66fa4ebf79326e780c390304,,,,,,,,,,,,,,,,,,,,,432.871,432.8712,432.8759,433.6378,1,0,right,0.2108,,433.6425,434.3709,1,0,right,434.3748,434.378,,0,,1,434.3781,434.3782,434.3806,435.871,0,45,45,45,1,0.4,0.6,0.8,0.2,,,,,,,,,,,,,,,0.1826,,0.2,0.8,0.6,0.4,0.8,0.2,0.4,0.6,1,0,,,,,,,,,,,,
,,5ce031fc7f65ee001a985a6b,66fcb88ab5299936d1513484,2024-10-02_04h26.56.340,mdp,2024.2.1,Win32,57.14285714,66fa4ebf79326e780c390304,,,,,,,,,,,,,,,,,,,,,435.8722,435.8722,435.8767,436.43,1,0,right,0.0109,,436.4348,437.0576,1,1,right,437.0625,437.0653,,0,,0,437.0654,437.0655,437.0675,438.558,0,46,46,46,1,0.4,0.6,0.8,0.2,,,,,,,,,,,,,,,0.0755,,0.2,0.8,0.6,0.4,0.8,0.2,0.4,0.6,1,0,,,,,,,,,,,,
,,5ce031fc7f65ee001a985a6b,66fcb88ab5299936d1513484,2024-10-02_04h26.56.340,mdp,2024.2.1,Win32,57.14285714,66fa4ebf79326e780c390304,,,,,,,,,,,,,,,,,,,,,438.5591,438.5593,438.5631,439.6751,0,1,left,0.5599,,439.68,440.9313,0,0,left,440.9351,440.9384,,0,,1,440.9385,440.9385,440.9405,442.4318,0,47,47,47,1,0.4,0.6,0.8,0.2,,,,,,,,,,,,,,,0.6898,,0.8,0.2,0.4,0.6,0.8,0.2,0.4,0.6,1,0,,,,,,,,,,,,
,,5ce031fc7f65ee001a985a6b,66fcb88ab5299936d1513484,2024-10-02_04h26.56.340,mdp,2024.2.1,Win32,57.14285714,66fa4ebf79326e780c390304,,,,,,,,,,,,,,,,,,,,,442.4331,442.4331,442.4375,443.0261,0,1,left,0.0374,0.0145,443.0298,444.0723,0,0,left,444.0761,444.0789,,0,,1,444.079,444.079,444.0815,445.5727,0,48,48,48,1,0.4,0.6,0.8,0.2,,,,,,,,,,,,,,,0.5131,,0.8,0.2,0.4,0.6,0.8,0.2,0.4,0.6,1,0,,,,,,,,,,,,
,,5ce031fc7f65ee001a985a6b,66fcb88ab5299936d1513484,2024-10-02_04h26.56.340,mdp,2024.2.1,Win32,57.14285714,66fa4ebf79326e780c390304,,,,,,,,,,,,,,,,,,,,,445.5739,445.574,445.5799,446.236,0,0,left,0.1069,,446.2402,447.0033,0,1,left,447.0076,447.0107,,0,,0,447.0108,447.0109,447.0129,448.5045,0,49,49,49,1,0.4,0.6,0.8,0.2,,,,,,,,,,,,,,,0.1974,,0.8,0.2,0.4,0.6,0.8,0.2,0.4,0.6,1,0,,,,,,,,,,,,
,,5ce031fc7f65ee001a985a6b,66fcb88ab5299936d1513484,2024-10-02_04h26.56.340,mdp,2024.2.1,Win32,57.14285714,66fa4ebf79326e780c390304,,,,,,,,,,,,,,,,,,,,,,,,,,,,,,,,,,,,,,,,,,,,,,,,,,,,,,,,448.5048,507.0262,0,1,1,8,1,imgs/kangaroo.png,imgs/lion.png,imgs/giraffe.png,imgs/pig.png,imgs/rabbit.png,,,,,,,,,,,,,,,,,,,,,,,,
,,5ce031fc7f65ee001a985a6b,66fcb88ab5299936d1513484,2024-10-02_04h26.56.340,mdp,2024.2.1,Win32,57.14285714,66fa4ebf79326e780c390304,,,,,,,,,,,,,,3,seqs/st3seq7.csv,507.0325,508.2823,space,0.7153,,508.3133,508.3133,508.3163,509.6435,0,1,left,0.762,,509.6479,510.7256,0,0,left,510.7302,511.8767,0,1,left,0,511.8774,511.8775,511.8813,513.377,0,0,0,0,1,0.6,0.4,0.4,0.6,,,,,,,,,,,,,,,0.498,,0.2,0.8,0.2,0.8,0.8,0.2,0.4,0.6,,,0.5699,,0.2,0.8,0.6,0.4,0.6,0.4,0.2,0.8,1,0
,,5ce031fc7f65ee001a985a6b,66fcb88ab5299936d1513484,2024-10-02_04h26.56.340,mdp,2024.2.1,Win32,57.14285714,66fa4ebf79326e780c390304,,,,,,,,,,,,,,,,,,,,,513.3792,513.3792,513.3834,514.2156,0,0,left,0.3046,,514.2197,515.1221,1,0,right,515.126,515.9251,1,1,right,0,515.9256,515.9256,515.9307,517.4251,0,1,1,1,1,0.6,0.4,0.4,0.6,,,,,,,,,,,,,,,0.3487,,0.2,0.8,0.2,0.8,0.8,0.2,0.4,0.6,,,0.2659,,0.2,0.8,0.6,0.4,0.6,0.4,0.2,0.8,1,0
,,5ce031fc7f65ee001a985a6b,66fcb88ab5299936d1513484,2024-10-02_04h26.56.340,mdp,2024.2.1,Win32,57.14285714,66fa4ebf79326e780c390304,,,,,,,,,,,,,,,,,,,,,517.427,517.427,517.4316,518.0535,1,0,right,0.0724,,518.0577,518.7863,1,1,right,518.791,519.5896,1,1,right,0,519.5898,519.5899,519.5936,521.0892,0,2,2,2,1,0.6,0.4,0.4,0.6,,,,,,,,,,,,,,,0.1982,,0.2,0.8,0.2,0.8,0.8,0.2,0.4,0.6,,,0.2208,,0.2,0.8,0.6,0.4,0.6,0.4,0.2,0.8,1,0
,,5ce031fc7f65ee001a985a6b,66fcb88ab5299936d1513484,2024-10-02_04h26.56.340,mdp,2024.2.1,Win32,57.14285714,66fa4ebf79326e780c390304,,,,,,,,,,,,,,,,,,,,,521.0908,521.0908,521.0952,521.7527,0,0,left,0.1192,,521.7565,522.5901,0,1,left,522.5939,523.2534,0,1,left,0,523.2538,523.2538,523.2574,524.7533,0,3,3,3,1,0.6,0.4,0.4,0.6,,,,,,,,,,,,,,,0.2841,,0.2,0.8,0.2,0.8,0.8,0.2,0.4,0.6,,,0.1295,,0.2,0.8,0.6,0.4,0.6,0.4,0.2,0.8,1,0
,,5ce031fc7f65ee001a985a6b,66fcb88ab5299936d1513484,2024-10-02_04h26.56.340,mdp,2024.2.1,Win32,57.14285714,66fa4ebf79326e780c390304,,,,,,,,,,,,,,,,,,,,,524.7555,524.7557,524.7613,525.7305,0,0,left,0.4451,,525.735,526.4638,1,1,right,526.4677,527.197,0,0,left,1,527.1973,527.1974,527.2027,528.6963,0,4,4,4,1,0.6,0.4,0.4,0.6,,,,,,,,,,,,,,,0.1983,,0.2,0.8,0.2,0.8,0.8,0.2,0.4,0.6,,,0.1984,,0.2,0.8,0.6,0.4,0.6,0.4,0.2,0.8,1,0
,,5ce031fc7f65ee001a985a6b,66fcb88ab5299936d1513484,2024-10-02_04h26.56.340,mdp,2024.2.1,Win32,57.14285714,66fa4ebf79326e780c390304,,,,,,,,,,,,,,,,,,,,,528.6976,528.6976,528.7014,529.3956,0,0,left,0.1486,,529.3996,530.0231,1,1,right,530.0279,531.1052,0,0,left,1,531.1057,531.1057,531.1095,532.6052,0,5,5,5,1,0.6,0.4,0.4,0.6,,,,,,,,,,,,,,,0.0714,,0.2,0.8,0.2,0.8,0.8,0.2,0.4,0.6,,,0.5318,,0.2,0.8,0.6,0.4,0.6,0.4,0.2,0.8,1,0
,,5ce031fc7f65ee001a985a6b,66fcb88ab5299936d1513484,2024-10-02_04h26.56.340,mdp,2024.2.1,Win32,57.14285714,66fa4ebf79326e780c390304,,,,,,,,,,,,,,,,,,,,,532.6068,532.6068,532.6108,533.1986,0,1,left,0.0373,,533.2026,533.7578,1,0,right,533.7635,534.8412,0,1,left,0,534.8414,534.8414,534.8469,536.3394,0,6,6,6,1,0.6,0.4,0.4,0.6,,,,,,,,,,,,,,,0.0018,,0.2,0.8,0.2,0.8,0.8,0.2,0.4,0.6,,,0.5381,,0.2,0.8,0.6,0.4,0.6,0.4,0.2,0.8,1,0
,,5ce031fc7f65ee001a985a6b,66fcb88ab5299936d1513484,2024-10-02_04h26.56.340,mdp,2024.2.1,Win32,57.14285714,66fa4ebf79326e780c390304,,,,,,,,,,,,,,,,,,,,,536.3409,536.341,536.3458,537.2122,0,1,left,0.3255,,537.2159,538.6425,0,0,left,538.6472,539.3061,1,0,right,1,539.3063,539.3063,539.3109,540.806,0,7,7,7,1,0.6,0.4,0.4,0.6,,,,,,,,,,,,,,,0.8801,,0.2,0.8,0.2,0.8,0.8,0.2,0.4,0.6,,,0.1064,,0.8,0.2,0.4,0.6,0.6,0.4,0.2,0.8,1,0
,,5ce031fc7f65ee001a985a6b,66fcb88ab5299936d1513484,2024-10-02_04h26.56.340,mdp,2024.2.1,Win32,57.14285714,66fa4ebf79326e780c390304,,,,,,,,,,,,,,,,,,,,,540.8076,540.8077,540.8131,541.5391,0,1,left,0.1774,,541.5436,542.447,0,0,left,542.4512,543.354,1,0,right,1,543.3544,543.3545,543.3586,544.8542,0,8,8,8,1,0.6,0.4,0.4,0.6,,,,,,,,,,,,,,,0.3724,,0.2,0.8,0.2,0.8,0.8,0.2,0.4,0.6,,,0.3702,,0.8,0.2,0.4,0.6,0.6,0.4,0.2,0.8,1,0
,,5ce031fc7f65ee001a985a6b,66fcb88ab5299936d1513484,2024-10-02_04h26.56.340,mdp,2024.2.1,Win32,57.14285714,66fa4ebf79326e780c390304,,,,,,,,,,,,,,,,,,,,,544.8566,544.8566,544.8612,545.5171,0,0,left,0.1072,,545.5211,547.3321,1,1,right,547.3365,548.1696,0,1,left,0,548.17,548.1701,548.1735,549.6697,0,9,9,9,1,0.6,0.4,0.4,0.6,,,,,,,,,,,,,,,1.2514,,0.2,0.8,0.2,0.8,0.8,0.2,0.4,0.6,,,0.2787,,0.8,0.2,0.4,0.6,0.6,0.4,0.2,0.8,1,0
,,5ce031fc7f65ee001a985a6b,66fcb88ab5299936d1513484,2024-10-02_04h26.56.340,mdp,2024.2.1,Win32,57.14285714,66fa4ebf79326e780c390304,,,,,,,,,,,,,,,,,,,,,549.6715,549.6716,549.6764,550.5774,0,1,left,0.3524,,550.5818,551.4149,0,1,left,551.4191,552.427,1,1,right,0,552.4275,552.4276,552.4315,553.926,0,10,10,10,1,0.6,0.4,0.4,0.6,,,,,,,,,,,,,,,0.289,,0.2,0.8,0.2,0.8,0.8,0.2,0.4,0.6,,,0.4583,,0.8,0.2,0.4,0.6,0.6,0.4,0.2,0.8,1,0
,,5ce031fc7f65ee001a985a6b,66fcb88ab5299936d1513484,2024-10-02_04h26.56.340,mdp,2024.2.1,Win32,57.14285714,66fa4ebf79326e780c390304,,,,,,,,,,,,,,,,,,,,,553.9265,553.9265,553.9292,555.3936,0,0,left,0.9225,,555.3985,556.2993,0,0,left,556.3009,556.9287,1,1,right,0,556.929,556.9291,556.9336,558.4287,0,11,11,11,1,0.6,0.4,0.4,0.6,,,,,,,,,,,,,,,0.3527,,0.2,0.8,0.2,0.8,0.8,0.2,0.4,0.6,,,0.0666,,0.8,0.2,0.4,0.6,0.8,0.2,0.8,0.2,1,0
,,5ce031fc7f65ee001a985a6b,66fcb88ab5299936d1513484,2024-10-02_04h26.56.340,mdp,2024.2.1,Win32,57.14285714,66fa4ebf79326e780c390304,,,,,,,,,,,,,,,,,,,,,558.4307,558.4307,558.4355,559.3015,0,0,left,0.3244,,559.3057,559.971,1,1,right,559.9753,560.5578,0,0,left,1,560.5581,560.5581,560.5626,562.0582,0,12,12,12,1,0.6,0.4,0.4,0.6,,,,,,,,,,,,,,,0.1092,,0.2,0.8,0.2,0.8,0.8,0.2,0.4,0.6,,,0.0385,,0.8,0.2,0.4,0.6,0.8,0.2,0.8,0.2,1,0
,,5ce031fc7f65ee001a985a6b,66fcb88ab5299936d1513484,2024-10-02_04h26.56.340,mdp,2024.2.1,Win32,57.14285714,66fa4ebf79326e780c390304,,,,,,,,,,,,,,,,,,,,,562.0604,562.0605,562.0653,562.8953,0,1,left,0.2944,,562.8977,563.9426,1,0,right,563.9469,564.6051,0,0,left,1,564.6053,564.6053,564.6067,566.1055,0,13,13,13,1,0.6,0.4,0.4,0.6,,,,,,,,,,,,,,,0.4764,,0.2,0.8,0.2,0.8,0.8,0.2,0.4,0.6,,,0.0979,,0.8,0.2,0.4,0.6,0.8,0.2,0.8,0.2,1,0
,,5ce031fc7f65ee001a985a6b,66fcb88ab5299936d1513484,2024-10-02_04h26.56.340,mdp,2024.2.1,Win32,57.14285714,66fa4ebf79326e780c390304,,,,,,,,,,,,,,,,,,,,,566.1067,566.1067,566.1112,566.9426,0,1,left,0.2878,,566.9439,567.8157,1,0,right,567.8188,568.828,0,1,left,0,568.8282,568.8282,568.8322,570.3277,0,14,14,14,1,0.6,0.4,0.4,0.6,,,,,,,,,,,,,,,0.3326,,0.2,0.8,0.2,0.8,0.8,0.2,0.4,0.6,,,0.4793,,0.8,0.2,0.4,0.6,0.8,0.2,0.8,0.2,1,0
,,5ce031fc7f65ee001a985a6b,66fcb88ab5299936d1513484,2024-10-02_04h26.56.340,mdp,2024.2.1,Win32,57.14285714,66fa4ebf79326e780c390304,,,,,,,,,,,,,,,,,,,,,570.3282,570.3283,570.331,570.9209,0,0,left,0.0342,,570.9223,571.6553,0,0,left,571.6587,572.5288,1,0,right,1,572.5291,572.5292,572.5338,574.0279,0,15,15,15,1,0.6,0.4,0.4,0.6,,,,,,,,,,,,,,,0.1986,,0.2,0.8,0.2,0.8,0.8,0.2,0.4,0.6,,,0.3426,,0.8,0.2,0.4,0.6,0.8,0.2,0.8,0.2,1,0
,,5ce031fc7f65ee001a985a6b,66fcb88ab5299936d1513484,2024-10-02_04h26.56.340,mdp,2024.2.1,Win32,57.14285714,66fa4ebf79326e780c390304,,,,,,,,,,,,,,,,,,,,,574.0295,574.0295,574.0337,574.9702,0,1,left,0.3856,,574.9741,575.6682,0,0,left,575.6731,576.6806,1,1,right,0,576.6808,576.6808,576.687,578.1809,0,16,16,16,1,0.6,0.4,0.4,0.6,,,,,,,,,,,,,,,0.1281,,0.2,0.8,0.2,0.8,0.8,0.2,0.4,0.6,,,0.4552,,0.8,0.2,0.4,0.6,0.8,0.2,0.8,0.2,1,0
,,5ce031fc7f65ee001a985a6b,66fcb88ab5299936d1513484,2024-10-02_04h26.56.340,mdp,2024.2.1,Win32,57.14285714,66fa4ebf79326e780c390304,,,,,,,,,,,,,,,,,,,,,578.1832,578.1832,578.1894,578.9138,0,0,left,0.1998,,578.9181,579.5415,1,1,right,579.5461,580.1002,0,0,left,1,580.1005,580.1005,580.1045,581.6006,0,17,17,17,1,0.6,0.4,0.4,0.6,,,,,,,,,,,,,,,0.058,,0.2,0.8,0.2,0.8,0.8,0.2,0.4,0.6,,,0.0052,,0.8,0.2,0.4,0.6,0.8,0.2,0.8,0.2,1,0
,,5ce031fc7f65ee001a985a6b,66fcb88ab5299936d1513484,2024-10-02_04h26.56.340,mdp,2024.2.1,Win32,57.14285714,66fa4ebf79326e780c390304,,,,,,,,,,,,,,,,,,,,,581.6025,581.6025,581.6067,582.3335,0,1,left,0.1908,,582.3375,583.1012,1,0,right,583.106,583.9037,0,1,left,0,583.9041,583.9041,583.9085,585.4041,0,18,18,18,1,0.6,0.4,0.4,0.6,,,,,,,,,,,,,,,0.1975,,0.2,0.8,0.2,0.8,0.8,0.2,0.4,0.6,,,0.2328,,0.8,0.2,0.4,0.6,0.8,0.2,0.8,0.2,1,0
,,5ce031fc7f65ee001a985a6b,66fcb88ab5299936d1513484,2024-10-02_04h26.56.340,mdp,2024.2.1,Win32,57.14285714,66fa4ebf79326e780c390304,,,,,,,,,,,,,,,,,,,,,585.4056,585.4057,585.4099,586.1721,0,1,left,0.2189,,586.176,587.1144,0,0,left,587.119,587.6725,1,1,right,0,587.6728,587.6729,587.6771,589.1729,0,19,19,19,1,0.6,0.4,0.4,0.6,,,,,,,,,,,,,,,0.3847,,0.2,0.8,0.2,0.8,0.6,0.4,0.8,0.2,,,0.0025,,0.8,0.2,0.4,0.6,0.8,0.2,0.8,0.2,1,0
,,5ce031fc7f65ee001a985a6b,66fcb88ab5299936d1513484,2024-10-02_04h26.56.340,mdp,2024.2.1,Win32,57.14285714,66fa4ebf79326e780c390304,,,,,,,,,,,,,,,,,,,,,589.1746,589.1746,589.1793,590.2543,0,0,left,0.5241,,590.2565,590.9534,1,1,right,590.9576,591.9304,0,0,left,1,591.9309,591.931,591.935,593.4304,0,20,20,20,1,0.6,0.4,0.4,0.6,,,,,,,,,,,,,,,0.1436,,0.2,0.8,0.2,0.8,0.6,0.4,0.8,0.2,,,0.4304,,0.8,0.2,0.4,0.6,0.8,0.2,0.8,0.2,1,0
,,5ce031fc7f65ee001a985a6b,66fcb88ab5299936d1513484,2024-10-02_04h26.56.340,mdp,2024.2.1,Win32,57.14285714,66fa4ebf79326e780c390304,,,,,,,,,,,,,,,,,,,,,593.4319,593.4319,593.4363,594.1636,0,0,left,0.1991,,594.1683,594.7916,1,1,right,594.7962,595.35,0,1,left,0,595.3504,595.3505,595.3542,596.8502,0,21,21,21,1,0.6,0.4,0.4,0.6,,,,,,,,,,,,,,,0.0727,,0.2,0.8,0.2,0.8,0.6,0.4,0.8,0.2,,,0.0118,,0.8,0.2,0.4,0.6,0.8,0.2,0.8,0.2,1,0
,,5ce031fc7f65ee001a985a6b,66fcb88ab5299936d1513484,2024-10-02_04h26.56.340,mdp,2024.2.1,Win32,57.14285714,66fa4ebf79326e780c390304,,,,,,,,,,,,,,,,,,,,,596.8521,596.8522,596.8564,597.7226,0,1,left,0.3358,,597.727,598.4559,1,0,right,598.4604,599.0142,0,1,left,0,599.0149,599.0149,599.0195,600.5144,0,22,22,22,1,0.2,0.8,0.6,0.4,,,,,,,,,,,,,,,0.1629,,0.2,0.8,0.2,0.8,0.6,0.4,0.8,0.2,,,0.0075,,0.8,0.2,0.4,0.6,0.8,0.2,0.8,0.2,1,0
,,5ce031fc7f65ee001a985a6b,66fcb88ab5299936d1513484,2024-10-02_04h26.56.340,mdp,2024.2.1,Win32,57.14285714,66fa4ebf79326e780c390304,,,,,,,,,,,,,,,,,,,,,600.5161,600.5162,600.521,601.2824,0,1,left,0.2157,,601.2867,602.1548,1,0,right,602.1595,602.7134,0,0,left,1,602.7138,602.7138,602.718,604.2137,0,23,23,23,1,0.2,0.8,0.6,0.4,,,,,,,,,,,,,,,0.3145,,0.2,0.8,0.2,0.8,0.6,0.4,0.8,0.2,,,0.0015,,0.8,0.2,0.4,0.6,0.8,0.2,0.8,0.2,1,0
,,5ce031fc7f65ee001a985a6b,66fcb88ab5299936d1513484,2024-10-02_04h26.56.340,mdp,2024.2.1,Win32,57.14285714,66fa4ebf79326e780c390304,,,,,,,,,,,,,,,,,,,,,604.2153,604.2154,604.2199,604.9818,0,0,left,0.2291,,604.9865,605.7492,0,1,left,605.7543,606.3424,1,0,right,1,606.3425,606.3426,606.346,607.843,0,24,24,24,1,0.2,0.8,0.6,0.4,,,,,,,,,,,,,,,0.1999,,0.2,0.8,0.2,0.8,0.6,0.4,0.8,0.2,,,0.0236,,0.8,0.2,0.4,0.6,0.8,0.2,0.8,0.2,1,0
,,5ce031fc7f65ee001a985a6b,66fcb88ab5299936d1513484,2024-10-02_04h26.56.340,mdp,2024.2.1,Win32,57.14285714,66fa4ebf79326e780c390304,,,,,,,,,,,,,,,,,,,,,607.8445,607.8445,607.8497,608.6458,0,1,left,0.2518,,608.6503,609.2389,1,0,right,609.2433,610.2863,0,1,left,0,610.2866,610.2866,610.2904,611.7864,0,25,25,25,1,0.2,0.8,0.6,0.4,,,,,,,,,,,,,,,0.0226,,0.2,0.8,0.2,0.8,0.6,0.4,0.8,0.2,,,0.494,,0.8,0.2,0.4,0.6,0.8,0.2,0.8,0.2,1,0
,,5ce031fc7f65ee001a985a6b,66fcb88ab5299936d1513484,2024-10-02_04h26.56.340,mdp,2024.2.1,Win32,57.14285714,66fa4ebf79326e780c390304,,,,,,,,,,,,,,,,,,,,,611.7888,611.7888,611.7934,612.4493,0,0,left,0.1119,,612.4529,613.3221,0,1,left,613.3262,614.1941,1,0,right,1,614.1945,614.1945,614.199,615.6946,0,26,26,26,1,0.2,0.8,0.6,0.4,,,,,,,,,,,,,,,0.3059,,0.2,0.8,0.2,0.8,0.6,0.4,0.8,0.2,,,0.3279,,0.8,0.2,0.4,0.6,0.8,0.2,0.8,0.2,1,0
,,5ce031fc7f65ee001a985a6b,66fcb88ab5299936d1513484,2024-10-02_04h26.56.340,mdp,2024.2.1,Win32,57.14285714,66fa4ebf79326e780c390304,,,,,,,,,,,,,,,,,,,,,615.696,615.6962,615.7012,616.4978,0,1,left,0.2723,,616.5018,617.3004,0,0,left,617.3047,618.1377,1,1,right,0,618.138,618.1382,618.1418,619.6379,0,27,27,27,1,0.2,0.8,0.6,0.4,,,,,,,,,,,,,,,0.2449,,0.2,0.8,0.2,0.8,0.6,0.4,0.8,0.2,,,0.2828,,0.8,0.2,0.4,0.6,0.8,0.2,0.8,0.2,1,0
,,5ce031fc7f65ee001a985a6b,66fcb88ab5299936d1513484,2024-10-02_04h26.56.340,mdp,2024.2.1,Win32,57.14285714,66fa4ebf79326e780c390304,,,,,,,,,,,,,,,,,,,,,619.6396,619.6396,619.6437,620.371,0,0,left,0.1813,,620.3759,620.9652,1,0,right,620.9704,622.0813,0,0,left,1,622.0817,622.0817,622.0855,623.5814,0,28,28,28,1,0.2,0.8,0.6,0.4,,,,,,,,,,,,,,,0.028,,0.2,0.8,0.2,0.8,0.6,0.4,0.8,0.2,,,0.5597,,0.8,0.2,0.4,0.6,0.8,0.2,0.8,0.2,1,0
,,5ce031fc7f65ee001a985a6b,66fcb88ab5299936d1513484,2024-10-02_04h26.56.340,mdp,2024.2.1,Win32,57.14285714,66fa4ebf79326e780c390304,,,,,,,,,,,,,,,,,,,,,623.5828,623.5829,623.5867,624.5588,0,0,left,0.4339,,624.5625,625.2569,1,1,right,625.2609,625.8149,0,0,left,1,625.8151,625.8152,625.8192,627.3151,0,29,29,29,1,0.2,0.8,0.6,0.4,,,,,,,,,,,,,,,0.1441,,0.2,0.8,0.2,0.8,0.6,0.4,0.8,0.2,,,0.0015,,0.8,0.2,0.4,0.6,0.8,0.2,0.8,0.2,1,0
,,5ce031fc7f65ee001a985a6b,66fcb88ab5299936d1513484,2024-10-02_04h26.56.340,mdp,2024.2.1,Win32,57.14285714,66fa4ebf79326e780c390304,,,,,,,,,,,,,,,,,,,,,627.3166,627.3167,627.3209,628.2228,0,1,left,0.3504,,628.2274,628.8172,1,1,right,628.8215,630.0024,0,1,left,0,630.0027,630.0027,630.0067,631.5028,0,30,30,30,1,0.2,0.8,0.6,0.4,,,,,,,,,,,,,,,0.0492,,0.2,0.8,0.2,0.8,0.6,0.4,0.8,0.2,,,0.6296,,0.8,0.2,0.4,0.6,0.8,0.2,0.8,0.2,1,0
,,5ce031fc7f65ee001a985a6b,66fcb88ab5299936d1513484,2024-10-02_04h26.56.340,mdp,2024.2.1,Win32,57.14285714,66fa4ebf79326e780c390304,,,,,,,,,,,,,,,,,,,,,631.5046,631.5047,631.5084,632.1662,0,1,left,0.1303,,632.1708,632.8992,0,1,left,632.9041,633.4572,1,0,right,1,633.4574,633.4574,633.4619,634.9576,0,31,31,31,1,0.2,0.8,0.6,0.4,,,,,,,,,,,,,,,0.1832,,0.2,0.8,0.2,0.8,0.6,0.4,0.8,0.2,,,0.0012,,0.8,0.2,0.4,0.6,0.8,0.2,0.8,0.2,1,0
,,5ce031fc7f65ee001a985a6b,66fcb88ab5299936d1513484,2024-10-02_04h26.56.340,mdp,2024.2.1,Win32,57.14285714,66fa4ebf79326e780c390304,,,,,,,,,,,,,,,,,,,,,634.9593,634.9593,634.9638,635.8997,0,1,left,0.3867,,635.9043,637.2261,0,0,left,637.2305,638.3431,1,1,right,0,638.3437,638.3438,638.3479,639.8431,0,32,32,32,1,0.2,0.8,0.6,0.4,,,,,,,,,,,,,,,0.7684,,0.2,0.8,0.2,0.8,0.6,0.4,0.8,0.2,,,0.5597,,0.8,0.2,0.4,0.6,0.8,0.2,0.8,0.2,1,0
,,5ce031fc7f65ee001a985a6b,66fcb88ab5299936d1513484,2024-10-02_04h26.56.340,mdp,2024.2.1,Win32,57.14285714,66fa4ebf79326e780c390304,,,,,,,,,,,,,,,,,,,,,639.8446,639.8446,639.8487,640.5762,0,1,left,0.1767,,640.5803,641.2395,0,0,left,641.2435,642.3222,1,1,right,0,642.3224,642.3224,642.3265,643.8215,0,33,33,33,1,0.2,0.8,0.6,0.4,,,,,,,,,,,,,,,0.1203,,0.2,0.8,0.2,0.8,0.6,0.4,0.8,0.2,,,0.5488,,0.8,0.2,0.4,0.6,0.8,0.2,0.8,0.2,1,0
,,5ce031fc7f65ee001a985a6b,66fcb88ab5299936d1513484,2024-10-02_04h26.56.340,mdp,2024.2.1,Win32,57.14285714,66fa4ebf79326e780c390304,,,,,,,,,,,,,,,,,,,,,643.823,643.8231,643.8274,644.6598,0,1,left,0.3064,,644.6639,645.3572,1,0,right,645.361,645.9501,0,1,left,0,645.9504,645.9504,645.9543,647.4507,0,34,34,34,1,0.2,0.8,0.6,0.4,,,,,,,,,,,,,,,0.1411,,0.2,0.8,0.2,0.8,0.6,0.4,0.8,0.2,,,0.0383,,0.8,0.2,0.4,0.6,0.8,0.2,0.8,0.2,1,0
,,5ce031fc7f65ee001a985a6b,66fcb88ab5299936d1513484,2024-10-02_04h26.56.340,mdp,2024.2.1,Win32,57.14285714,66fa4ebf79326e780c390304,,,,,,,,,,,,,,,,,,,,,647.4522,647.4523,647.4566,648.184,0,1,left,0.1853,,648.1883,648.9863,0,0,left,648.9906,649.6495,1,1,right,0,649.6502,649.6502,649.6542,651.15,0,35,35,35,1,0.2,0.8,0.6,0.4,,,,,,,,,,,,,,,0.2702,,0.2,0.8,0.2,0.8,0.6,0.4,0.8,0.2,,,0.1064,,0.8,0.2,0.4,0.6,0.8,0.2,0.8,0.2,1,0
,,5ce031fc7f65ee001a985a6b,66fcb88ab5299936d1513484,2024-10-02_04h26.56.340,mdp,2024.2.1,Win32,57.14285714,66fa4ebf79326e780c390304,,,,,,,,,,,,,,,,,,,,,651.1516,651.1516,651.1562,651.8834,0,1,left,0.1761,,651.888,652.4766,0,1,left,652.4804,653.5231,1,0,right,1,653.5237,653.5237,653.5276,655.0232,0,36,36,36,1,0.2,0.8,0.6,0.4,,,,,,,,,,,,,,,0.0432,,0.2,0.8,0.2,0.8,0.6,0.4,0.8,0.2,,,0.4878,,0.8,0.2,0.4,0.6,0.8,0.2,0.8,0.2,1,0
,,5ce031fc7f65ee001a985a6b,66fcb88ab5299936d1513484,2024-10-02_04h26.56.340,mdp,2024.2.1,Win32,57.14285714,66fa4ebf79326e780c390304,,,,,,,,,,,,,,,,,,,,,655.0248,655.0248,655.03,655.8613,0,1,left,0.3046,,655.866,656.5241,1,0,right,656.5287,657.1176,0,0,left,1,657.1181,657.1181,657.122,658.6178,0,37,37,37,1,0.2,0.8,0.6,0.4,,,,,,,,,,,,,,,0.1092,,0.8,0.2,0.4,0.6,0.6,0.4,0.8,0.2,,,0.0346,,0.8,0.2,0.4,0.6,0.8,0.2,0.8,0.2,1,0
,,5ce031fc7f65ee001a985a6b,66fcb88ab5299936d1513484,2024-10-02_04h26.56.340,mdp,2024.2.1,Win32,57.14285714,66fa4ebf79326e780c390304,,,,,,,,,,,,,,,,,,,,,658.6197,658.6197,658.6239,659.2812,0,1,left,0.1152,,659.286,659.909,0,1,left,659.9133,660.4674,1,0,right,1,660.4676,660.4676,660.4722,661.9679,0,38,38,38,1,0.2,0.8,0.6,0.4,,,,,,,,,,,,,,,0.0813,,0.8,0.2,0.4,0.6,0.6,0.4,0.8,0.2,,,0.0014,,0.8,0.2,0.4,0.6,0.8,0.2,0.8,0.2,1,0
,,5ce031fc7f65ee001a985a6b,66fcb88ab5299936d1513484,2024-10-02_04h26.56.340,mdp,2024.2.1,Win32,57.14285714,66fa4ebf79326e780c390304,,,,,,,,,,,,,,,,,,,,,661.9694,661.9695,661.9731,662.8057,0,1,left,0.2955,,662.8098,663.4339,0,1,left,663.4379,664.5504,1,0,right,1,664.5507,664.5508,664.5544,666.0507,0,39,39,39,1,0.2,0.8,0.6,0.4,,,,,,,,,,,,,,,0.0716,,0.8,0.2,0.4,0.6,0.6,0.4,0.8,0.2,,,0.5602,,0.8,0.2,0.4,0.6,0.8,0.2,0.8,0.2,1,0
,,5ce031fc7f65ee001a985a6b,66fcb88ab5299936d1513484,2024-10-02_04h26.56.340,mdp,2024.2.1,Win32,57.14285714,66fa4ebf79326e780c390304,,,,,,,,,,,,,,,,,,,,,666.0523,666.0523,666.0567,666.714,0,0,left,0.1218,,666.7192,667.2724,1,1,right,667.2762,667.8309,0,0,left,1,667.8313,667.8314,667.835,669.331,0,40,40,40,1,0.2,0.8,0.6,0.4,,,,,,,,,,,,,,,0.0016,,0.8,0.2,0.4,0.6,0.6,0.4,0.8,0.2,,,0.0185,,0.8,0.2,0.4,0.6,0.8,0.2,0.8,0.2,1,0
,,5ce031fc7f65ee001a985a6b,66fcb88ab5299936d1513484,2024-10-02_04h26.56.340,mdp,2024.2.1,Win32,57.14285714,66fa4ebf79326e780c390304,,,,,,,,,,,,,,,,,,,,,669.3325,669.3326,669.3362,670.4133,0,1,left,0.5303,,670.4173,671.3206,0,1,left,671.3246,672.1581,1,0,right,1,672.1584,672.1584,672.162,673.6584,0,41,41,41,1,0.2,0.8,0.6,0.4,,,,,,,,,,,,,,,0.3441,,0.8,0.2,0.4,0.6,0.6,0.4,0.8,0.2,,,0.2859,,0.8,0.2,0.4,0.6,0.8,0.2,0.8,0.2,1,0
,,5ce031fc7f65ee001a985a6b,66fcb88ab5299936d1513484,2024-10-02_04h26.56.340,mdp,2024.2.1,Win32,57.14285714,66fa4ebf79326e780c390304,,,,,,,,,,,,,,,,,,,,,673.6603,673.6604,673.6643,674.3217,0,1,left,0.1274,,674.3262,675.3684,1,0,right,675.3725,676.1367,0,0,left,1,676.1369,676.137,676.141,677.6364,0,42,42,42,1,0.2,0.8,0.6,0.4,,,,,,,,,,,,,,,0.5142,,0.8,0.2,0.4,0.6,0.6,0.4,0.8,0.2,,,0.2076,,0.8,0.2,0.4,0.6,0.8,0.2,0.8,0.2,1,0
,,5ce031fc7f65ee001a985a6b,66fcb88ab5299936d1513484,2024-10-02_04h26.56.340,mdp,2024.2.1,Win32,57.14285714,66fa4ebf79326e780c390304,,,,,,,,,,,,,,,,,,,,,677.638,677.638,677.6423,678.3345,0,1,left,0.1412,,678.3384,678.9978,0,0,left,679.0022,680.0448,1,1,right,0,680.045,680.0451,680.0489,681.5449,0,43,43,43,1,0.2,0.8,0.6,0.4,,,,,,,,,,,,,,,0.1271,,0.8,0.2,0.4,0.6,0.6,0.4,0.8,0.2,,,0.4905,,0.6,0.4,0.8,0.2,0.8,0.2,0.8,0.2,1,0
,,5ce031fc7f65ee001a985a6b,66fcb88ab5299936d1513484,2024-10-02_04h26.56.340,mdp,2024.2.1,Win32,57.14285714,66fa4ebf79326e780c390304,,,,,,,,,,,,,,,,,,,,,681.5466,681.5466,681.5507,682.348,0,1,left,0.2537,,682.3517,682.9412,1,0,right,682.9451,683.5344,0,1,left,0,683.5349,683.5349,683.5388,685.0347,0,44,44,44,1,0.2,0.8,0.6,0.4,,,,,,,,,,,,,,,0.0477,,0.8,0.2,0.4,0.6,0.6,0.4,0.8,0.2,,,0.0621,,0.6,0.4,0.8,0.2,0.8,0.2,0.8,0.2,1,0
,,5ce031fc7f65ee001a985a6b,66fcb88ab5299936d1513484,2024-10-02_04h26.56.340,mdp,2024.2.1,Win32,57.14285714,66fa4ebf79326e780c390304,,,,,,,,,,,,,,,,,,,,,685.0362,685.0362,685.0411,686.0475,0,1,left,0.4653,,686.0514,686.9199,0,1,left,686.9239,687.513,1,0,right,1,687.5133,687.5133,687.5169,689.0129,0,45,45,45,1,0.2,0.8,0.6,0.4,,,,,,,,,,,,,,,0.3204,,0.8,0.2,0.4,0.6,0.6,0.4,0.8,0.2,,,0.0278,,0.6,0.4,0.8,0.2,0.8,0.2,0.8,0.2,1,0
,,5ce031fc7f65ee001a985a6b,66fcb88ab5299936d1513484,2024-10-02_04h26.56.340,mdp,2024.2.1,Win32,57.14285714,66fa4ebf79326e780c390304,,,,,,,,,,,,,,,,,,,,,689.0146,689.0146,689.0193,689.9206,0,1,left,0.3532,,689.9243,690.9676,1,0,right,690.9719,691.6306,0,1,left,0,691.6309,691.6311,691.6355,693.1307,0,46,46,46,1,0.2,0.8,0.6,0.4,,,,,,,,,,,,,,,0.5119,,0.8,0.2,0.4,0.6,0.6,0.4,0.8,0.2,,,0.1091,,0.6,0.4,0.8,0.2,0.8,0.2,0.8,0.2,1,0
,,5ce031fc7f65ee001a985a6b,66fcb88ab5299936d1513484,2024-10-02_04h26.56.340,mdp,2024.2.1,Win32,57.14285714,66fa4ebf79326e780c390304,,,,,,,,,,,,,,,,,,,,,693.1325,693.1327,693.1382,694.0385,0,1,left,0.3627,,694.0429,695.3645,0,1,left,695.369,696.2367,1,1,right,0,696.2371,696.2372,696.241,697.7375,0,47,47,47,1,0.2,0.8,0.6,0.4,,,,,,,,,,,,,,,0.7709,,0.8,0.2,0.4,0.6,0.6,0.4,0.8,0.2,,,0.306,,0.6,0.4,0.8,0.2,0.8,0.2,0.8,0.2,1,0
,,5ce031fc7f65ee001a985a6b,66fcb88ab5299936d1513484,2024-10-02_04h26.56.340,mdp,2024.2.1,Win32,57.14285714,66fa4ebf79326e780c390304,,,,,,,,,,,,,,,,,,,,,697.7392,697.7393,697.7438,698.5399,0,1,left,0.2465,,698.5442,699.2378,1,0,right,699.2425,699.8313,0,0,left,1,699.8317,699.8317,699.8362,701.3314,0,48,48,48,1,0.2,0.8,0.6,0.4,,,,,,,,,,,,,,,0.1407,,0.6,0.4,0.2,0.8,0.6,0.4,0.8,0.2,,,0.0264,,0.6,0.4,0.8,0.2,0.8,0.2,0.8,0.2,1,0
,,5ce031fc7f65ee001a985a6b,66fcb88ab5299936d1513484,2024-10-02_04h26.56.340,mdp,2024.2.1,Win32,57.14285714,66fa4ebf79326e780c390304,,,,,,,,,,,,,,,,,,,,,701.3331,701.3332,701.3384,702.1696,0,0,left,0.2851,,702.1735,703.1466,1,1,right,703.151,703.7398,0,0,left,1,703.74,703.7401,703.744,705.2404,0,49,49,49,1,0.2,0.8,0.6,0.4,,,,,,,,,,,,,,,0.4176,,0.6,0.4,0.2,0.8,0.6,0.4,0.8,0.2,,,0.0349,,0.6,0.4,0.8,0.2,0.8,0.2,0.8,0.2,1,0
,,5ce031fc7f65ee001a985a6b,66fcb88ab5299936d1513484,2024-10-02_04h26.56.340,mdp,2024.2.1,Win32,57.14285714,66fa4ebf79326e780c390304,,,,,,,,,,,,,,,,,,,,,,,,,,,,,,,,,,,,,,,,,,,,,,,,,,,,,,,,705.2411,763.7447,0,2,2,3,1,imgs/goat.png,imgs/cat.png,imgs/elephant.png,imgs/dog.png,imgs/kangaroo.png,,,,,,,,,,,,,,,,,,,,,,,,
,,5ce031fc7f65ee001a985a6b,66fcb88ab5299936d1513484,2024-10-02_04h26.56.340,mdp,2024.2.1,Win32,57.14285714,66fa4ebf79326e780c390304,,,,,,,,,,,,,,3,seqs/st3seq47.csv,763.7457,765.1061,space,0.8443,,765.1155,765.1155,765.1163,767.8458,1,0,right,2.199,,767.8488,768.8814,1,1,right,768.8835,769.7827,1,1,right,0,769.7827,769.7827,769.786,771.2852,0,0,0,0,1,0.6,0.4,0.4,0.6,,,,,,,,,,,,,,,0.5154,,0.8,0.2,0.4,0.6,0.8,0.2,0.2,0.8,,,0.3623,,0.6,0.4,0.4,0.6,0.6,0.4,0.8,0.2,1,0
,,5ce031fc7f65ee001a985a6b,66fcb88ab5299936d1513484,2024-10-02_04h26.56.340,mdp,2024.2.1,Win32,57.14285714,66fa4ebf79326e780c390304,,,,,,,,,,,,,,,,,,,,,771.2866,771.2866,771.2876,772.7646,1,1,right,0.9601,,772.7683,773.6027,0,1,left,773.6087,774.3699,1,0,right,1,774.3699,774.3702,774.3743,775.8702,0,1,1,1,1,0.6,0.4,0.4,0.6,,,,,,,,,,,,,,,0.3122,,0.8,0.2,0.4,0.6,0.8,0.2,0.2,0.8,,,0.2452,,0.6,0.4,0.4,0.6,0.6,0.4,0.8,0.2,1,0
,,5ce031fc7f65ee001a985a6b,66fcb88ab5299936d1513484,2024-10-02_04h26.56.340,mdp,2024.2.1,Win32,57.14285714,66fa4ebf79326e780c390304,,,,,,,,,,,,,,,,,,,,,775.8718,775.8719,775.8752,776.6033,1,1,right,0.2192,,776.6068,777.4076,0,0,left,777.4108,778.1749,1,0,right,1,778.1751,778.1751,778.1787,779.6739,0,2,2,2,1,0.6,0.4,0.4,0.6,,,,,,,,,,,,,,,0.281,,0.8,0.2,0.4,0.6,0.8,0.2,0.2,0.8,,,0.2437,,0.6,0.4,0.4,0.6,0.6,0.4,0.8,0.2,1,0
,,5ce031fc7f65ee001a985a6b,66fcb88ab5299936d1513484,2024-10-02_04h26.56.340,mdp,2024.2.1,Win32,57.14285714,66fa4ebf79326e780c390304,,,,,,,,,,,,,,,,,,,,,779.6754,779.6754,779.6783,780.6521,1,0,right,0.4543,,780.6559,781.5935,0,0,left,781.598,782.3436,1,1,right,0,782.3437,782.3438,782.3477,783.844,0,3,3,3,1,0.6,0.4,0.4,0.6,,,,,,,,,,,,,,,0.4184,,0.8,0.2,0.4,0.6,0.8,0.2,0.2,0.8,,,0.2343,,0.6,0.4,0.4,0.6,0.6,0.4,0.8,0.2,1,0
,,5ce031fc7f65ee001a985a6b,66fcb88ab5299936d1513484,2024-10-02_04h26.56.340,mdp,2024.2.1,Win32,57.14285714,66fa4ebf79326e780c390304,,,,,,,,,,,,,,,,,,,,,783.846,783.846,783.8492,784.6817,1,1,right,0.3145,,784.6846,785.3971,1,1,right,785.4011,786.0252,0,0,left,1,786.0254,786.0254,786.0282,787.5256,0,4,4,4,1,0.6,0.4,0.4,0.6,,,,,,,,,,,,,,,0.1908,,0.8,0.2,0.4,0.6,0.8,0.2,0.2,0.8,,,0.1096,,0.4,0.6,0.6,0.4,0.6,0.4,0.8,0.2,1,0
,,5ce031fc7f65ee001a985a6b,66fcb88ab5299936d1513484,2024-10-02_04h26.56.340,mdp,2024.2.1,Win32,57.14285714,66fa4ebf79326e780c390304,,,,,,,,,,,,,,,,,,,,,787.5271,787.5272,787.5289,788.2935,1,1,right,0.2536,,788.2958,789.1136,0,0,left,789.1163,789.8289,1,0,right,1,789.829,789.829,789.833,791.3294,0,5,5,5,1,0.6,0.4,0.4,0.6,,,,,,,,,,,,,,,0.296,,0.8,0.2,0.4,0.6,0.8,0.2,0.2,0.8,,,0.1949,,0.4,0.6,0.6,0.4,0.6,0.4,0.8,0.2,1,0
,,5ce031fc7f65ee001a985a6b,66fcb88ab5299936d1513484,2024-10-02_04h26.56.340,mdp,2024.2.1,Win32,57.14285714,66fa4ebf79326e780c390304,,,,,,,,,,,,,,,,,,,,,791.3306,791.3307,791.3333,792.7953,1,0,right,0.9465,,792.798,793.6153,1,0,right,793.6184,794.1753,0,1,left,0,794.1755,794.1755,794.1785,795.6741,0,6,6,6,1,0.6,0.4,0.4,0.6,,,,,,,,,,,,,,,0.2942,,0.8,0.2,0.4,0.6,0.8,0.2,0.2,0.8,,,0.0453,,0.4,0.6,0.6,0.4,0.6,0.4,0.8,0.2,1,0
,,5ce031fc7f65ee001a985a6b,66fcb88ab5299936d1513484,2024-10-02_04h26.56.340,mdp,2024.2.1,Win32,57.14285714,66fa4ebf79326e780c390304,,,,,,,,,,,,,,,,,,,,,795.6759,795.676,795.679,796.4943,1,1,right,0.2974,,796.4979,797.2795,0,1,left,797.2832,797.8378,1,0,right,1,797.8379,797.838,797.8413,799.3383,0,7,7,7,1,0.6,0.4,0.4,0.6,,,,,,,,,,,,,,,0.2672,,0.8,0.2,0.4,0.6,0.8,0.2,0.2,0.8,,,0.0366,,0.4,0.6,0.6,0.4,0.6,0.4,0.8,0.2,1,0
,,5ce031fc7f65ee001a985a6b,66fcb88ab5299936d1513484,2024-10-02_04h26.56.340,mdp,2024.2.1,Win32,57.14285714,66fa4ebf79326e780c390304,,,,,,,,,,,,,,,,,,,,,799.3395,799.3396,799.3425,800.176,1,0,right,0.3165,,800.1788,800.9785,1,1,right,800.983,801.5546,0,1,left,0,801.5548,801.5548,801.5582,803.0554,0,8,8,8,1,0.6,0.4,0.4,0.6,,,,,,,,,,,,,,,0.2832,,0.8,0.2,0.4,0.6,0.8,0.2,0.2,0.8,,,0.0524,,0.4,0.6,0.6,0.4,0.6,0.4,0.8,0.2,1,0
,,5ce031fc7f65ee001a985a6b,66fcb88ab5299936d1513484,2024-10-02_04h26.56.340,mdp,2024.2.1,Win32,57.14285714,66fa4ebf79326e780c390304,,,,,,,,,,,,,,,,,,,,,803.0568,803.0568,803.0598,803.7005,1,0,right,0.1204,,803.7037,804.381,0,0,left,804.3842,804.9567,1,1,right,0,804.9569,804.9569,804.9604,806.4573,0,9,9,9,1,0.6,0.4,0.4,0.6,,,,,,,,,,,,,,,0.1588,,0.8,0.2,0.4,0.6,0.8,0.2,0.2,0.8,,,0.0461,,0.4,0.6,0.6,0.4,0.6,0.4,0.8,0.2,1,0
,,5ce031fc7f65ee001a985a6b,66fcb88ab5299936d1513484,2024-10-02_04h26.56.340,mdp,2024.2.1,Win32,57.14285714,66fa4ebf79326e780c390304,,,,,,,,,,,,,,,,,,,,,806.459,806.459,806.4621,807.33,1,1,right,0.3589,,807.3326,808.0102,0,1,left,808.0128,808.5687,1,1,right,0,808.5689,808.569,808.5732,810.0691,0,10,10,10,1,0.6,0.4,0.4,0.6,,,,,,,,,,,,,,,0.1605,,0.8,0.2,0.4,0.6,0.2,0.8,0.8,0.2,,,0.0302,,0.4,0.6,0.6,0.4,0.6,0.4,0.8,0.2,1,0
,,5ce031fc7f65ee001a985a6b,66fcb88ab5299936d1513484,2024-10-02_04h26.56.340,mdp,2024.2.1,Win32,57.14285714,66fa4ebf79326e780c390304,,,,,,,,,,,,,,,,,,,,,810.0707,810.0708,810.0738,813.1924,1,0,right,2.6099,,813.1955,813.8732,1,1,right,813.8768,814.4838,0,1,left,0,814.4838,814.4838,814.4875,815.984,0,11,11,11,1,0.6,0.4,0.4,0.6,,,,,,,,,,,,,,,0.1628,,0.8,0.2,0.4,0.6,0.2,0.8,0.8,0.2,,,0.0877,,0.4,0.6,0.6,0.4,0.6,0.4,0.8,0.2,1,0
,,5ce031fc7f65ee001a985a6b,66fcb88ab5299936d1513484,2024-10-02_04h26.56.340,mdp,2024.2.1,Win32,57.14285714,66fa4ebf79326e780c390304,,,,,,,,,,,,,,,,,,,,,815.9853,815.9854,815.9884,816.9265,1,0,right,0.4201,,816.9297,817.5895,0,0,left,817.5925,818.6189,1,0,right,1,818.6191,818.6191,818.6224,820.1193,0,12,12,12,1,0.6,0.4,0.4,0.6,,,,,,,,,,,,,,,0.1442,,0.8,0.2,0.4,0.6,0.2,0.8,0.8,0.2,,,0.5085,,0.4,0.6,0.6,0.4,0.6,0.4,0.8,0.2,1,0
,,5ce031fc7f65ee001a985a6b,66fcb88ab5299936d1513484,2024-10-02_04h26.56.340,mdp,2024.2.1,Win32,57.14285714,66fa4ebf79326e780c390304,,,,,,,,,,,,,,,,,,,,,820.1205,820.1206,820.1235,821.149,1,1,right,0.5064,,821.1532,821.9516,1,1,right,821.9538,822.6496,0,0,left,1,822.6498,822.6499,822.6528,824.15,0,13,13,13,1,0.6,0.4,0.4,0.6,,,,,,,,,,,,,,,0.2775,,0.8,0.2,0.4,0.6,0.2,0.8,0.8,0.2,,,0.1707,,0.4,0.6,0.6,0.4,0.2,0.8,0.6,0.4,1,0
,,5ce031fc7f65ee001a985a6b,66fcb88ab5299936d1513484,2024-10-02_04h26.56.340,mdp,2024.2.1,Win32,57.14285714,66fa4ebf79326e780c390304,,,,,,,,,,,,,,,,,,,,,824.1518,824.1519,824.1547,824.8131,1,1,right,0.1414,,824.8156,825.5808,0,0,left,825.5846,826.1566,1,0,right,1,826.1568,826.1568,826.16,827.657,0,14,14,14,1,0.6,0.4,0.4,0.6,,,,,,,,,,,,,,,0.2572,,0.8,0.2,0.4,0.6,0.2,0.8,0.8,0.2,,,0.0504,,0.4,0.6,0.6,0.4,0.2,0.8,0.6,0.4,1,0
,,5ce031fc7f65ee001a985a6b,66fcb88ab5299936d1513484,2024-10-02_04h26.56.340,mdp,2024.2.1,Win32,57.14285714,66fa4ebf79326e780c390304,,,,,,,,,,,,,,,,,,,,,827.6586,827.6586,827.6616,828.3203,1,0,right,0.1377,,828.3233,829.053,1,1,right,829.0564,829.6116,0,1,left,0,829.6118,829.6119,829.6149,831.112,0,15,15,15,1,0.6,0.4,0.4,0.6,,,,,,,,,,,,,,,0.2053,,0.8,0.2,0.4,0.6,0.2,0.8,0.8,0.2,,,0.0347,,0.4,0.6,0.6,0.4,0.2,0.8,0.6,0.4,1,0
,,5ce031fc7f65ee001a985a6b,66fcb88ab5299936d1513484,2024-10-02_04h26.56.340,mdp,2024.2.1,Win32,57.14285714,66fa4ebf79326e780c390304,,,,,,,,,,,,,,,,,,,,,831.1139,831.1141,831.1166,831.775,1,0,right,0.1461,,831.7783,832.6823,0,0,left,832.6855,833.7292,1,0,right,1,833.7294,833.7294,833.7324,835.2299,0,16,16,16,1,0.6,0.4,0.4,0.6,,,,,,,,,,,,,,,0.385,,0.8,0.2,0.4,0.6,0.6,0.4,0.4,0.6,,,0.5272,,0.4,0.6,0.6,0.4,0.2,0.8,0.6,0.4,1,0
,,5ce031fc7f65ee001a985a6b,66fcb88ab5299936d1513484,2024-10-02_04h26.56.340,mdp,2024.2.1,Win32,57.14285714,66fa4ebf79326e780c390304,,,,,,,,,,,,,,,,,,,,,835.2319,835.232,835.2352,835.9626,1,1,right,0.213,,835.965,836.6619,1,0,right,836.665,837.3061,0,1,left,0,837.3062,837.3062,837.309,838.8066,0,17,17,17,1,0.6,0.4,0.4,0.6,,,,,,,,,,,,,,,0.1825,,0.8,0.2,0.4,0.6,0.6,0.4,0.4,0.6,,,0.1282,,0.4,0.6,0.6,0.4,0.2,0.8,0.6,0.4,1,0
,,5ce031fc7f65ee001a985a6b,66fcb88ab5299936d1513484,2024-10-02_04h26.56.340,mdp,2024.2.1,Win32,57.14285714,66fa4ebf79326e780c390304,,,,,,,,,,,,,,,,,,,,,838.8078,838.8078,838.8101,839.749,1,1,right,0.4242,,839.7528,840.5342,0,0,left,840.5368,841.2496,1,0,right,1,841.2497,841.2497,841.2539,842.7501,0,18,18,18,1,0.6,0.4,0.4,0.6,,,,,,,,,,,,,,,0.2713,,0.8,0.2,0.4,0.6,0.6,0.4,0.4,0.6,,,0.1928,,0.4,0.6,0.6,0.4,0.2,0.8,0.6,0.4,1,0
,,5ce031fc7f65ee001a985a6b,66fcb88ab5299936d1513484,2024-10-02_04h26.56.340,mdp,2024.2.1,Win32,57.14285714,66fa4ebf79326e780c390304,,,,,,,,,,,,,,,,,,,,,842.7513,842.7514,842.7547,843.4654,1,1,right,0.192,,843.4683,844.2331,0,0,left,844.2368,844.8091,1,1,right,0,844.8092,844.8092,844.8117,846.3096,0,19,19,19,1,0.6,0.4,0.4,0.6,,,,,,,,,,,,,,,0.2448,,0.8,0.2,0.4,0.6,0.6,0.4,0.4,0.6,,,0.0606,,0.4,0.6,0.6,0.4,0.2,0.8,0.6,0.4,1,0
,,5ce031fc7f65ee001a985a6b,66fcb88ab5299936d1513484,2024-10-02_04h26.56.340,mdp,2024.2.1,Win32,57.14285714,66fa4ebf79326e780c390304,,,,,,,,,,,,,,,,,,,,,846.3113,846.3114,846.3143,847.4437,1,1,right,0.6115,,847.4461,848.2116,0,0,left,848.2151,848.7699,1,0,right,1,848.77,848.77,848.7733,850.2702,0,20,20,20,1,0.6,0.4,0.4,0.6,,,,,,,,,,,,,,,0.2513,,0.8,0.2,0.4,0.6,0.6,0.4,0.4,0.6,,,0.0387,,0.4,0.6,0.6,0.4,0.2,0.8,0.6,0.4,1,0
,,5ce031fc7f65ee001a985a6b,66fcb88ab5299936d1513484,2024-10-02_04h26.56.340,mdp,2024.2.1,Win32,57.14285714,66fa4ebf79326e780c390304,,,,,,,,,,,,,,,,,,,,,850.2712,850.2714,850.2739,851.0555,1,1,right,0.2655,,851.0577,852.7479,0,0,left,852.7507,853.5505,0,1,left,0,853.5508,853.5508,853.5533,855.0511,0,21,21,21,1,0.6,0.4,0.4,0.6,,,,,,,,,,,,,,,1.1776,,0.8,0.2,0.4,0.6,0.6,0.4,0.4,0.6,,,0.284,,0.4,0.6,0.6,0.4,0.2,0.8,0.6,0.4,1,0
,,5ce031fc7f65ee001a985a6b,66fcb88ab5299936d1513484,2024-10-02_04h26.56.340,mdp,2024.2.1,Win32,57.14285714,66fa4ebf79326e780c390304,,,,,,,,,,,,,,,,,,,,,855.0523,855.0524,855.0557,856.1342,1,1,right,0.5609,,856.1378,857.1986,0,1,left,857.202,857.7394,1,0,right,1,857.7398,857.7398,857.7429,859.2391,0,22,22,22,1,0.6,0.4,0.4,0.6,,,,,,,,,,,,,,,0.5423,,0.8,0.2,0.4,0.6,0.6,0.4,0.4,0.6,,,0.0144,,0.4,0.6,0.6,0.4,0.2,0.8,0.6,0.4,1,0
,,5ce031fc7f65ee001a985a6b,66fcb88ab5299936d1513484,2024-10-02_04h26.56.340,mdp,2024.2.1,Win32,57.14285714,66fa4ebf79326e780c390304,,,,,,,,,,,,,,,,,,,,,859.2406,859.2406,859.2436,860.2338,1,1,right,0.4717,,860.2366,861.0731,1,1,right,861.0758,861.6467,0,1,left,0,861.6468,861.6468,861.6499,863.1471,0,23,23,23,1,0.6,0.4,0.4,0.6,,,,,,,,,,,,,,,0.3242,,0.8,0.2,0.4,0.6,0.6,0.4,0.4,0.6,,,0.055,,0.4,0.6,0.6,0.4,0.2,0.8,0.6,0.4,1,0
,,5ce031fc7f65ee001a985a6b,66fcb88ab5299936d1513484,2024-10-02_04h26.56.340,mdp,2024.2.1,Win32,57.14285714,66fa4ebf79326e780c390304,,,,,,,,,,,,,,,,,,,,,863.1483,863.1484,863.1515,864.0024,1,1,right,0.3323,,864.0051,864.7526,0,0,left,864.7557,865.7122,1,0,right,1,865.7124,865.7124,865.7164,867.2128,0,24,24,24,1,0.8,0.2,0.8,0.2,,,,,,,,,,,,,,,0.2366,,0.8,0.2,0.4,0.6,0.6,0.4,0.4,0.6,,,0.4333,,0.4,0.6,0.6,0.4,0.2,0.8,0.6,0.4,1,0
,,5ce031fc7f65ee001a985a6b,66fcb88ab5299936d1513484,2024-10-02_04h26.56.340,mdp,2024.2.1,Win32,57.14285714,66fa4ebf79326e780c390304,,,,,,,,,,,,,,,,,,,,,867.2144,867.2144,867.2165,868.3474,1,0,right,0.6108,,868.3502,869.604,1,1,right,869.6082,870.5631,1,1,right,0,870.5633,870.5633,870.5677,872.0636,0,25,25,25,1,0.8,0.2,0.8,0.2,,,,,,,,,,,,,,,0.7279,,0.8,0.2,0.4,0.6,0.6,0.4,0.4,0.6,,,0.4329,,0.8,0.2,0.8,0.2,0.2,0.8,0.6,0.4,1,0
,,5ce031fc7f65ee001a985a6b,66fcb88ab5299936d1513484,2024-10-02_04h26.56.340,mdp,2024.2.1,Win32,57.14285714,66fa4ebf79326e780c390304,,,,,,,,,,,,,,,,,,,,,872.0655,872.0655,872.0685,873.0585,1,0,right,0.4721,,873.0621,873.6866,0,0,left,873.6895,874.2448,1,0,right,1,874.2451,874.2451,874.248,875.7456,0,26,26,26,1,0.8,0.2,0.8,0.2,,,,,,,,,,,,,,,0.1123,,0.8,0.2,0.4,0.6,0.6,0.4,0.4,0.6,,,0.0316,,0.8,0.2,0.8,0.2,0.2,0.8,0.6,0.4,1,0
,,5ce031fc7f65ee001a985a6b,66fcb88ab5299936d1513484,2024-10-02_04h26.56.340,mdp,2024.2.1,Win32,57.14285714,66fa4ebf79326e780c390304,,,,,,,,,,,,,,,,,,,,,875.7481,875.7481,875.7517,876.5831,1,0,right,0.3155,,876.5859,877.8405,1,0,right,877.8428,878.5547,0,0,left,1,878.555,878.5551,878.558,880.0559,0,27,27,27,1,0.8,0.2,0.8,0.2,,,,,,,,,,,,,,,0.7393,,0.8,0.2,0.4,0.6,0.6,0.4,0.4,0.6,,,0.1955,,0.8,0.2,0.8,0.2,0.2,0.8,0.6,0.4,1,0
,,5ce031fc7f65ee001a985a6b,66fcb88ab5299936d1513484,2024-10-02_04h26.56.340,mdp,2024.2.1,Win32,57.14285714,66fa4ebf79326e780c390304,,,,,,,,,,,,,,,,,,,,,880.0586,880.0587,880.0624,880.8755,1,0,right,0.2928,,880.8808,881.7662,0,0,left,881.7717,882.6578,1,0,right,1,882.658,882.658,882.6616,884.1554,0,28,28,28,1,0.8,0.2,0.8,0.2,,,,,,,,,,,,,,,0.3711,,0.8,0.2,0.4,0.6,0.6,0.4,0.4,0.6,,,0.3772,,0.8,0.2,0.8,0.2,0.2,0.8,0.6,0.4,1,0
,,5ce031fc7f65ee001a985a6b,66fcb88ab5299936d1513484,2024-10-02_04h26.56.340,mdp,2024.2.1,Win32,57.14285714,66fa4ebf79326e780c390304,,,,,,,,,,,,,,,,,,,,,884.1571,884.1572,884.1599,884.8536,1,0,right,0.1761,,884.8572,885.6907,1,0,right,885.6929,886.3194,0,0,left,1,886.3198,886.32,886.3237,887.8193,0,29,29,29,1,0.8,0.2,0.8,0.2,,,,,,,,,,,,,,,0.313,,0.8,0.2,0.4,0.6,0.6,0.4,0.4,0.6,,,0.1068,,0.2,0.8,0.4,0.6,0.2,0.8,0.6,0.4,1,0
,,5ce031fc7f65ee001a985a6b,66fcb88ab5299936d1513484,2024-10-02_04h26.56.340,mdp,2024.2.1,Win32,57.14285714,66fa4ebf79326e780c390304,,,,,,,,,,,,,,,,,,,,,887.8208,887.8209,887.8238,888.4317,1,0,right,0.0904,,888.435,889.1827,0,0,left,889.1858,889.8435,1,0,right,1,889.8436,889.8436,889.8476,891.3458,0,30,30,30,1,0.8,0.2,0.8,0.2,,,,,,,,,,,,,,,0.2421,,0.8,0.2,0.4,0.6,0.6,0.4,0.4,0.6,,,0.1402,,0.2,0.8,0.4,0.6,0.2,0.8,0.6,0.4,1,0
,,5ce031fc7f65ee001a985a6b,66fcb88ab5299936d1513484,2024-10-02_04h26.56.340,mdp,2024.2.1,Win32,57.14285714,66fa4ebf79326e780c390304,,,,,,,,,,,,,,,,,,,,,891.3477,891.3478,891.3518,892.1663,1,1,right,0.3075,,892.1693,892.8449,1,0,right,892.8495,893.4561,0,1,left,0,893.4564,893.4565,893.4589,894.9559,0,31,31,31,1,0.8,0.2,0.8,0.2,,,,,,,,,,,,,,,0.1546,,0.8,0.2,0.4,0.6,0.6,0.4,0.4,0.6,,,0.091,,0.2,0.8,0.4,0.6,0.2,0.8,0.6,0.4,1,0
,,5ce031fc7f65ee001a985a6b,66fcb88ab5299936d1513484,2024-10-02_04h26.56.340,mdp,2024.2.1,Win32,57.14285714,66fa4ebf79326e780c390304,,,,,,,,,,,,,,,,,,,,,894.9578,894.9578,894.9608,895.6896,1,1,right,0.2081,,895.6934,896.8407,0,1,left,896.8442,897.3997,1,0,right,1,897.4004,897.4005,897.4041,898.8997,0,32,32,32,1,0.8,0.2,0.8,0.2,,,,,,,,,,,,,,,0.6298,,0.8,0.2,0.4,0.6,0.6,0.4,0.4,0.6,,,0.0298,,0.2,0.8,0.4,0.6,0.2,0.8,0.6,0.4,1,0
,,5ce031fc7f65ee001a985a6b,66fcb88ab5299936d1513484,2024-10-02_04h26.56.340,mdp,2024.2.1,Win32,57.14285714,66fa4ebf79326e780c390304,,,,,,,,,,,,,,,,,,,,,898.9018,898.9019,898.9053,899.9288,1,0,right,0.5087,,899.932,900.7512,1,0,right,900.7564,901.4657,0,1,left,0,901.466,901.4663,901.4689,902.9655,0,33,33,33,1,0.8,0.2,0.8,0.2,,,,,,,,,,,,,,,0.2893,,0.2,0.8,0.6,0.4,0.6,0.4,0.4,0.6,,,0.1873,,0.2,0.8,0.4,0.6,0.2,0.8,0.6,0.4,1,0
,,5ce031fc7f65ee001a985a6b,66fcb88ab5299936d1513484,2024-10-02_04h26.56.340,mdp,2024.2.1,Win32,57.14285714,66fa4ebf79326e780c390304,,,,,,,,,,,,,,,,,,,,,902.9677,902.9677,902.9712,903.942,1,0,right,0.4522,,903.9444,904.6958,0,1,left,904.6995,905.3384,1,1,right,0,905.339,905.3391,905.3436,906.8383,0,34,34,34,1,0.8,0.2,0.8,0.2,,,,,,,,,,,,,,,0.2372,,0.2,0.8,0.6,0.4,0.6,0.4,0.4,0.6,,,0.1163,,0.4,0.6,0.6,0.4,0.2,0.8,0.6,0.4,1,0
,,5ce031fc7f65ee001a985a6b,66fcb88ab5299936d1513484,2024-10-02_04h26.56.340,mdp,2024.2.1,Win32,57.14285714,66fa4ebf79326e780c390304,,,,,,,,,,,,,,,,,,,,,906.8399,906.84,906.8419,907.3967,0,0,left,0.0379,,907.3997,907.9911,1,0,right,907.9942,908.6183,0,0,left,1,908.6185,908.6186,908.6212,910.1193,0,35,35,35,1,0.8,0.2,0.8,0.2,,,,,,,,,,,,,,,0.0795,,0.2,0.8,0.6,0.4,0.6,0.4,0.4,0.6,,,0.1015,,0.4,0.6,0.6,0.4,0.2,0.8,0.6,0.4,1,0
,,5ce031fc7f65ee001a985a6b,66fcb88ab5299936d1513484,2024-10-02_04h26.56.340,mdp,2024.2.1,Win32,57.14285714,66fa4ebf79326e780c390304,,,,,,,,,,,,,,,,,,,,,910.1221,910.1221,910.1256,911.082,0,0,left,0.4452,,911.0857,911.8988,1,0,right,911.9026,912.6321,0,1,left,0,912.6324,912.6325,912.6354,914.1319,0,36,36,36,1,0.8,0.2,0.8,0.2,,,,,,,,,,,,,,,0.2957,,0.4,0.6,0.8,0.2,0.6,0.4,0.4,0.6,,,0.2135,,0.4,0.6,0.6,0.4,0.2,0.8,0.6,0.4,1,0
,,5ce031fc7f65ee001a985a6b,66fcb88ab5299936d1513484,2024-10-02_04h26.56.340,mdp,2024.2.1,Win32,57.14285714,66fa4ebf79326e780c390304,,,,,,,,,,,,,,,,,,,,,914.1339,914.1339,914.1374,915.1786,1,0,right,0.5253,,915.1808,916.2787,0,0,left,916.2837,916.9593,1,1,right,0,916.9599,916.9599,916.9635,918.4591,0,37,37,37,1,0.8,0.2,0.8,0.2,,,,,,,,,,,,,,,0.5762,,0.4,0.6,0.8,0.2,0.6,0.4,0.4,0.6,,,0.1652,,0.4,0.6,0.6,0.4,0.2,0.8,0.6,0.4,1,0
,,5ce031fc7f65ee001a985a6b,66fcb88ab5299936d1513484,2024-10-02_04h26.56.340,mdp,2024.2.1,Win32,57.14285714,66fa4ebf79326e780c390304,,,,,,,,,,,,,,,,,,,,,918.461,918.461,918.4638,919.1063,0,0,left,0.1295,,919.1098,920.2042,1,0,right,920.2077,921.0068,0,1,left,0,921.0074,921.0074,921.0104,922.5073,0,38,38,38,1,0.8,0.2,0.8,0.2,,,,,,,,,,,,,,,0.5827,,0.4,0.6,0.8,0.2,0.6,0.4,0.4,0.6,,,0.2799,,0.4,0.6,0.6,0.4,0.2,0.8,0.6,0.4,1,0
,,5ce031fc7f65ee001a985a6b,66fcb88ab5299936d1513484,2024-10-02_04h26.56.340,mdp,2024.2.1,Win32,57.14285714,66fa4ebf79326e780c390304,,,,,,,,,,,,,,,,,,,,,922.5092,922.5093,922.5122,923.363,1,0,right,0.3312,,923.3668,924.3743,1,1,right,924.3776,925.1072,0,0,left,1,925.1074,925.1074,925.1101,926.6074,0,39,39,39,1,0.8,0.2,0.8,0.2,,,,,,,,,,,,,,,0.4915,,0.8,0.2,0.2,0.8,0.6,0.4,0.4,0.6,,,0.2058,,0.4,0.6,0.6,0.4,0.2,0.8,0.6,0.4,1,0
,,5ce031fc7f65ee001a985a6b,66fcb88ab5299936d1513484,2024-10-02_04h26.56.340,mdp,2024.2.1,Win32,57.14285714,66fa4ebf79326e780c390304,,,,,,,,,,,,,,,,,,,,,926.609,926.609,926.6114,927.4986,1,0,right,0.373,,927.5026,928.2349,1,1,right,928.2386,928.877,0,1,left,0,928.8776,928.8777,928.8817,930.3769,0,40,40,40,1,0.8,0.2,0.8,0.2,,,,,,,,,,,,,,,0.2199,,0.8,0.2,0.2,0.8,0.6,0.4,0.4,0.6,,,0.1286,,0.4,0.6,0.6,0.4,0.2,0.8,0.6,0.4,1,0
,,5ce031fc7f65ee001a985a6b,66fcb88ab5299936d1513484,2024-10-02_04h26.56.340,mdp,2024.2.1,Win32,57.14285714,66fa4ebf79326e780c390304,,,,,,,,,,,,,,,,,,,,,930.3795,930.3798,930.3833,931.7037,0,0,left,0.8064,,931.7083,932.4371,1,1,right,932.4417,933.0985,0,0,left,1,933.0986,933.0986,933.1007,934.5992,0,41,41,41,1,0.8,0.2,0.8,0.2,,,,,,,,,,,,,,,0.2113,,0.8,0.2,0.2,0.8,0.6,0.4,0.4,0.6,,,0.1395,,0.4,0.6,0.6,0.4,0.6,0.4,0.2,0.8,1,0
,,5ce031fc7f65ee001a985a6b,66fcb88ab5299936d1513484,2024-10-02_04h26.56.340,mdp,2024.2.1,Win32,57.14285714,66fa4ebf79326e780c390304,,,,,,,,,,,,,,,,,,,,,934.6015,934.6016,934.6047,935.6821,0,0,left,0.5599,,935.6863,936.3098,1,0,right,936.3136,936.9023,0,0,left,1,936.9025,936.9026,936.9051,938.4033,0,42,42,42,1,0.8,0.2,0.8,0.2,,,,,,,,,,,,,,,0.1075,,0.8,0.2,0.2,0.8,0.6,0.4,0.4,0.6,,,0.0709,,0.4,0.6,0.6,0.4,0.6,0.4,0.2,0.8,1,0
,,5ce031fc7f65ee001a985a6b,66fcb88ab5299936d1513484,2024-10-02_04h26.56.340,mdp,2024.2.1,Win32,57.14285714,66fa4ebf79326e780c390304,,,,,,,,,,,,,,,,,,,,,938.4062,938.4062,938.4097,939.4158,0,0,left,0.4937,,939.4192,939.9742,1,1,right,939.9781,940.9506,0,0,left,1,940.9508,940.9509,940.9535,942.4506,0,43,43,43,1,0.8,0.2,0.8,0.2,,,,,,,,,,,,,,,0.0367,,0.8,0.2,0.2,0.8,0.6,0.4,0.4,0.6,,,0.4531,,0.4,0.6,0.6,0.4,0.6,0.4,0.2,0.8,1,0
,,5ce031fc7f65ee001a985a6b,66fcb88ab5299936d1513484,2024-10-02_04h26.56.340,mdp,2024.2.1,Win32,57.14285714,66fa4ebf79326e780c390304,,,,,,,,,,,,,,,,,,,,,942.4524,942.4524,942.4548,943.3065,0,1,left,0.333,,943.3101,944.3698,1,1,right,944.3719,945.0514,0,1,left,0,945.0518,945.0518,945.0552,946.5518,0,44,44,44,1,0.8,0.2,0.8,0.2,,,,,,,,,,,,,,,0.5442,,0.8,0.2,0.2,0.8,0.6,0.4,0.4,0.6,,,0.1641,,0.4,0.6,0.6,0.4,0.2,0.8,0.6,0.4,1,0
,,5ce031fc7f65ee001a985a6b,66fcb88ab5299936d1513484,2024-10-02_04h26.56.340,mdp,2024.2.1,Win32,57.14285714,66fa4ebf79326e780c390304,,,,,,,,,,,,,,,,,,,,,946.5543,946.5544,946.5586,947.5285,0,0,left,0.452,,947.5332,948.1741,1,1,right,948.1774,948.8383,0,1,left,0,948.8386,948.8386,948.8403,950.3373,0,45,45,45,1,0.8,0.2,0.8,0.2,,,,,,,,,,,,,,,0.1156,,0.8,0.2,0.2,0.8,0.6,0.4,0.4,0.6,,,0.1383,,0.4,0.6,0.6,0.4,0.2,0.8,0.6,0.4,1,0
,,5ce031fc7f65ee001a985a6b,66fcb88ab5299936d1513484,2024-10-02_04h26.56.340,mdp,2024.2.1,Win32,57.14285714,66fa4ebf79326e780c390304,,,,,,,,,,,,,,,,,,,,,950.3391,950.3392,950.3419,951.2983,1,0,right,0.4444,,951.3036,952.1523,0,1,left,952.1554,952.6932,1,1,right,0,952.6933,952.6933,952.6971,954.1934,0,46,46,46,1,0.8,0.2,0.8,0.2,,,,,,,,,,,,,,,0.3347,,0.8,0.2,0.2,0.8,0.6,0.4,0.4,0.6,,,0.024,,0.4,0.6,0.6,0.4,0.2,0.8,0.6,0.4,1,0
,,5ce031fc7f65ee001a985a6b,66fcb88ab5299936d1513484,2024-10-02_04h26.56.340,mdp,2024.2.1,Win32,57.14285714,66fa4ebf79326e780c390304,,,,,,,,,,,,,,,,,,,,,954.195,954.195,954.1979,955.3291,1,0,right,0.6103,,955.3342,956.2705,1,1,right,956.2745,956.9861,0,1,left,0,956.9866,956.9866,956.9902,958.4856,0,47,47,47,1,0.8,0.2,0.8,0.2,,,,,,,,,,,,,,,0.421,,0.8,0.2,0.2,0.8,0.6,0.4,0.4,0.6,,,0.1931,,0.4,0.6,0.6,0.4,0.2,0.8,0.6,0.4,1,0
,,5ce031fc7f65ee001a985a6b,66fcb88ab5299936d1513484,2024-10-02_04h26.56.340,mdp,2024.2.1,Win32,57.14285714,66fa4ebf79326e780c390304,,,,,,,,,,,,,,,,,,,,,958.4878,958.4878,958.4899,959.3237,0,0,left,0.3214,,959.3269,960.0915,1,1,right,960.0952,960.7038,0,0,left,1,960.7039,960.704,960.7072,962.2028,0,48,48,48,1,0.8,0.2,0.8,0.2,,,,,,,,,,,,,,,0.2525,,0.8,0.2,0.2,0.8,0.6,0.4,0.4,0.6,,,0.0902,,0.4,0.6,0.6,0.4,0.2,0.8,0.6,0.4,1,0
,,5ce031fc7f65ee001a985a6b,66fcb88ab5299936d1513484,2024-10-02_04h26.56.340,mdp,2024.2.1,Win32,57.14285714,66fa4ebf79326e780c390304,,,,,,,,,,,,,,,,,,,,,962.2057,962.2057,962.2091,962.8656,1,0,right,0.1404,,962.869,963.5646,0,1,left,963.5685,964.3326,1,0,right,1,964.3333,964.3337,964.3388,965.8318,0,49,49,49,1,0.8,0.2,0.8,0.2,,,,,,,,,,,,,,,0.1758,,0.8,0.2,0.2,0.8,0.6,0.4,0.4,0.6,,,0.2457,,0.4,0.6,0.6,0.4,0.2,0.8,0.6,0.4,1,0
,,5ce031fc7f65ee001a985a6b,66fcb88ab5299936d1513484,2024-10-02_04h26.56.340,mdp,2024.2.1,Win32,57.14285714,66fa4ebf79326e780c390304,,,,,,,,,,,,,,,,,,,,,,,,,,,,,,,,,,,,,,,,,,,,,,,,,,,,,,,,965.8322,1021.2631,0,3,3,1,1,imgs/squirrel.png,imgs/cat.png,imgs/rabbit.png,imgs/horse.png,imgs/giraffe.png,,,,,,,,,,,,,,,,,,,,,,,,
,,5ce031fc7f65ee001a985a6b,66fcb88ab5299936d1513484,2024-10-02_04h26.56.340,mdp,2024.2.1,Win32,57.14285714,66fa4ebf79326e780c390304,,,,,,,,,,,,,,1,seqs/st1seq27.csv,1021.2806,1023.2732,space,1.4676,,1023.2823,1023.2823,1023.2833,1024.8782,1,1,right,1.0577,,1024.8807,1024.8817,0,1,,1024.8826,1024.8834,1,1,,0,1024.8834,1024.8834,1024.8842,1026.3785,0,0,0,0,1,0.6,0.4,0.4,0.6,1,0,,,,,,,,,,,,,,,,,,,,,,,,,,,,,,,,,,,,
,,5ce031fc7f65ee001a985a6b,66fcb88ab5299936d1513484,2024-10-02_04h26.56.340,mdp,2024.2.1,Win32,57.14285714,66fa4ebf79326e780c390304,,,,,,,,,,,,,,,,,,,,,1026.3808,1026.3808,1026.383,1027.1121,0,0,left,0.2161,,1027.1165,1027.1182,0,0,,1027.1201,1027.1215,1,0,,1,1027.1217,1027.1217,1027.1229,1028.6121,0,1,1,1,1,0.6,0.4,0.4,0.6,1,0,,,,,,,,,,,,,,,,,,,,,,,,,,,,,,,,,,,,
,,5ce031fc7f65ee001a985a6b,66fcb88ab5299936d1513484,2024-10-02_04h26.56.340,mdp,2024.2.1,Win32,57.14285714,66fa4ebf79326e780c390304,,,,,,,,,,,,,,,,,,,,,1028.6139,1028.614,1028.6166,1029.6657,0,0,left,0.5402,,1029.6683,1029.6697,0,0,,1029.6713,1029.6721,1,1,,1,1029.6721,1029.6722,1029.673,1031.1762,0,2,2,2,1,0.6,0.4,0.4,0.6,1,0,,,,,,,,,,,,,,,,,,,,,,,,,,,,,,,,,,,,
,,5ce031fc7f65ee001a985a6b,66fcb88ab5299936d1513484,2024-10-02_04h26.56.340,mdp,2024.2.1,Win32,57.14285714,66fa4ebf79326e780c390304,,,,,,,,,,,,,,,,,,,,,1031.178,1031.178,1031.1793,1032.0668,0,0,left,0.3535,,1032.0694,1032.0706,0,0,,1032.0719,1032.0728,1,0,,1,1032.0728,1032.0728,1032.0739,1033.5674,0,3,3,3,1,0.6,0.4,0.4,0.6,1,0,,,,,,,,,,,,,,,,,,,,,,,,,,,,,,,,,,,,
,,5ce031fc7f65ee001a985a6b,66fcb88ab5299936d1513484,2024-10-02_04h26.56.340,mdp,2024.2.1,Win32,57.14285714,66fa4ebf79326e780c390304,,,,,,,,,,,,,,,,,,,,,1033.5694,1033.5694,1033.5724,1034.457,0,0,left,0.3677,,1034.4594,1034.4604,0,1,,1034.4612,1034.4618,1,0,,1,1034.4619,1034.4619,1034.4626,1035.9576,0,4,4,4,1,0.6,0.4,0.4,0.6,1,0,,,,,,,,,,,,,,,,,,,,,,,,,,,,,,,,,,,,
,,5ce031fc7f65ee001a985a6b,66fcb88ab5299936d1513484,2024-10-02_04h26.56.340,mdp,2024.2.1,Win32,57.14285714,66fa4ebf79326e780c390304,,,,,,,,,,,,,,,,,,,,,1035.9591,1035.9592,1035.9613,1036.8719,0,1,left,0.3973,,1036.8742,1036.8757,0,1,,1036.8771,1036.8783,1,1,,0,1036.8784,1036.8784,1036.8796,1038.366,0,5,5,5,1,0.2,0.8,0.6,0.4,1,0,,,,,,,,,,,,,,,,,,,,,,,,,,,,,,,,,,,,
,,5ce031fc7f65ee001a985a6b,66fcb88ab5299936d1513484,2024-10-02_04h26.56.340,mdp,2024.2.1,Win32,57.14285714,66fa4ebf79326e780c390304,,,,,,,,,,,,,,,,,,,,,1038.3678,1038.3678,1038.371,1039.1865,1,1,right,0.3004,,1039.1892,1039.1905,0,1,,1039.1916,1039.1926,1,0,,0,1039.1926,1039.1926,1039.1937,1040.6861,0,6,6,6,1,0.8,0.2,0.2,0.8,1,0,,,,,,,,,,,,,,,,,,,,,,,,,,,,,,,,,,,,
,,5ce031fc7f65ee001a985a6b,66fcb88ab5299936d1513484,2024-10-02_04h26.56.340,mdp,2024.2.1,Win32,57.14285714,66fa4ebf79326e780c390304,,,,,,,,,,,,,,,,,,,,,1040.688,1040.688,1040.6908,1041.514,0,0,left,0.3124,,1041.5172,1041.5191,0,0,,1041.5212,1041.5239,1,0,,1,1041.5242,1041.5242,1041.5269,1043.0237,0,7,7,7,1,0.8,0.2,0.2,0.8,1,0,,,,,,,,,,,,,,,,,,,,,,,,,,,,,,,,,,,,
,,5ce031fc7f65ee001a985a6b,66fcb88ab5299936d1513484,2024-10-02_04h26.56.340,mdp,2024.2.1,Win32,57.14285714,66fa4ebf79326e780c390304,,,,,,,,,,,,,,,,,,,,,1043.0248,1043.0249,1043.0278,1043.8443,0,1,left,0.3014,,1043.8473,1043.85,0,0,,1043.8516,1043.853,1,0,,0,1043.853,1043.853,1043.8545,1045.3443,0,8,8,8,1,0.8,0.2,0.2,0.8,1,0,,,,,,,,,,,,,,,,,,,,,,,,,,,,,,,,,,,,
,,5ce031fc7f65ee001a985a6b,66fcb88ab5299936d1513484,2024-10-02_04h26.56.340,mdp,2024.2.1,Win32,57.14285714,66fa4ebf79326e780c390304,,,,,,,,,,,,,,,,,,,,,1045.3453,1045.3453,1045.3481,1046.1292,1,0,right,0.2631,,1046.1306,1046.1329,0,1,,1046.1339,1046.1346,1,1,,1,1046.1346,1046.1346,1046.1353,1047.63,0,9,9,9,1,0.8,0.2,0.2,0.8,1,0,,,,,,,,,,,,,,,,,,,,,,,,,,,,,,,,,,,,
,,5ce031fc7f65ee001a985a6b,66fcb88ab5299936d1513484,2024-10-02_04h26.56.340,mdp,2024.2.1,Win32,57.14285714,66fa4ebf79326e780c390304,,,,,,,,,,,,,,,,,,,,,1047.6309,1047.6309,1047.6339,1048.2754,0,0,left,0.1226,,1048.2772,1048.2798,0,1,,1048.281,1048.282,1,1,,1,1048.2821,1048.2821,1048.2829,1049.7763,0,10,10,10,1,0.8,0.2,0.2,0.8,1,0,,,,,,,,,,,,,,,,,,,,,,,,,,,,,,,,,,,,
,,5ce031fc7f65ee001a985a6b,66fcb88ab5299936d1513484,2024-10-02_04h26.56.340,mdp,2024.2.1,Win32,57.14285714,66fa4ebf79326e780c390304,,,,,,,,,,,,,,,,,,,,,1049.7772,1049.7772,1049.7814,1050.4915,1,1,right,0.2035,,1050.4951,1050.4976,0,0,,1050.4992,1050.5005,1,1,,0,1050.5005,1050.5005,1050.5019,1051.9917,0,11,11,11,1,0.6,0.4,0.6,0.4,1,0,,,,,,,,,,,,,,,,,,,,,,,,,,,,,,,,,,,,
,,5ce031fc7f65ee001a985a6b,66fcb88ab5299936d1513484,2024-10-02_04h26.56.340,mdp,2024.2.1,Win32,57.14285714,66fa4ebf79326e780c390304,,,,,,,,,,,,,,,,,,,,,1051.9923,1051.9923,1051.9945,1052.7945,0,1,left,0.2796,,1052.796,1052.7985,0,1,,1052.7995,1052.8003,1,0,,0,1052.8003,1052.8004,1052.8014,1054.2953,0,12,12,12,1,0.6,0.4,0.6,0.4,1,0,,,,,,,,,,,,,,,,,,,,,,,,,,,,,,,,,,,,
,,5ce031fc7f65ee001a985a6b,66fcb88ab5299936d1513484,2024-10-02_04h26.56.340,mdp,2024.2.1,Win32,57.14285714,66fa4ebf79326e780c390304,,,,,,,,,,,,,,,,,,,,,1054.2961,1054.2961,1054.2993,1054.993,0,0,left,0.1773,,1054.9944,1054.9968,0,1,,1054.9977,1054.9983,1,1,,1,1054.9984,1054.9984,1054.9991,1056.4938,0,13,13,13,1,0.6,0.4,0.6,0.4,1,0,,,,,,,,,,,,,,,,,,,,,,,,,,,,,,,,,,,,
,,5ce031fc7f65ee001a985a6b,66fcb88ab5299936d1513484,2024-10-02_04h26.56.340,mdp,2024.2.1,Win32,57.14285714,66fa4ebf79326e780c390304,,,,,,,,,,,,,,,,,,,,,1056.4947,1056.4947,1056.4978,1057.2616,1,0,right,0.2554,,1057.264,1057.2667,0,0,,1057.2684,1057.2697,1,0,,1,1057.2698,1057.2698,1057.2713,1058.7618,0,14,14,14,1,0.8,0.2,0.8,0.2,1,0,,,,,,,,,,,,,,,,,,,,,,,,,,,,,,,,,,,,
,,5ce031fc7f65ee001a985a6b,66fcb88ab5299936d1513484,2024-10-02_04h26.56.340,mdp,2024.2.1,Win32,57.14285714,66fa4ebf79326e780c390304,,,,,,,,,,,,,,,,,,,,,1058.7624,1058.7624,1058.765,1059.5124,0,1,left,0.2313,,1059.5144,1059.5173,0,0,,1059.5188,1059.5198,1,0,,0,1059.5199,1059.5199,1059.5209,1061.0129,0,15,15,15,1,0.8,0.2,0.8,0.2,1,0,,,,,,,,,,,,,,,,,,,,,,,,,,,,,,,,,,,,
,,5ce031fc7f65ee001a985a6b,66fcb88ab5299936d1513484,2024-10-02_04h26.56.340,mdp,2024.2.1,Win32,57.14285714,66fa4ebf79326e780c390304,,,,,,,,,,,,,,,,,,,,,1061.0137,1061.0137,1061.0167,1061.9378,0,0,left,0.4045,,1061.9405,1061.9431,0,0,,1061.9445,1061.9456,1,0,,1,1061.9456,1061.9457,1061.9466,1063.438,0,16,16,16,1,0.8,0.2,0.8,0.2,1,0,,,,,,,,,,,,,,,,,,,,,,,,,,,,,,,,,,,,
,,5ce031fc7f65ee001a985a6b,66fcb88ab5299936d1513484,2024-10-02_04h26.56.340,mdp,2024.2.1,Win32,57.14285714,66fa4ebf79326e780c390304,,,,,,,,,,,,,,,,,,,,,1063.4386,1063.4386,1063.4409,1064.2578,1,1,right,0.3001,,1064.2587,1064.2616,0,0,,1064.2624,1064.2629,1,1,,0,1064.2629,1064.2629,1064.2635,1065.7585,0,17,17,17,1,0.8,0.2,0.8,0.2,1,0,,,,,,,,,,,,,,,,,,,,,,,,,,,,,,,,,,,,
,,5ce031fc7f65ee001a985a6b,66fcb88ab5299936d1513484,2024-10-02_04h26.56.340,mdp,2024.2.1,Win32,57.14285714,66fa4ebf79326e780c390304,,,,,,,,,,,,,,,,,,,,,1065.7593,1065.7593,1065.7632,1066.5274,0,0,left,0.2565,,1066.5305,1066.5332,0,0,,1066.5352,1066.5367,1,0,,1,1066.5368,1066.5368,1066.5384,1068.0276,0,18,18,18,1,0.8,0.2,0.8,0.2,1,0,,,,,,,,,,,,,,,,,,,,,,,,,,,,,,,,,,,,
,,5ce031fc7f65ee001a985a6b,66fcb88ab5299936d1513484,2024-10-02_04h26.56.340,mdp,2024.2.1,Win32,57.14285714,66fa4ebf79326e780c390304,,,,,,,,,,,,,,,,,,,,,1068.0294,1068.0294,1068.0316,1068.8478,0,0,left,0.2969,,1068.8501,1068.8508,0,0,,1068.8516,1068.8522,1,0,,1,1068.8522,1068.8522,1068.8528,1070.3497,0,19,19,19,1,0.8,0.2,0.8,0.2,1,0,,,,,,,,,,,,,,,,,,,,,,,,,,,,,,,,,,,,
,,5ce031fc7f65ee001a985a6b,66fcb88ab5299936d1513484,2024-10-02_04h26.56.340,mdp,2024.2.1,Win32,57.14285714,66fa4ebf79326e780c390304,,,,,,,,,,,,,,,,,,,,,1070.3502,1070.3502,1070.3512,1071.191,1,0,right,0.328,,1071.1918,1071.1923,0,1,,1071.1928,1071.1934,1,1,,1,1071.1935,1071.1935,1071.194,1072.6857,0,20,20,20,1,0.2,0.8,0.6,0.4,1,0,,,,,,,,,,,,,,,,,,,,,,,,,,,,,,,,,,,,
,,5ce031fc7f65ee001a985a6b,66fcb88ab5299936d1513484,2024-10-02_04h26.56.340,mdp,2024.2.1,Win32,57.14285714,66fa4ebf79326e780c390304,,,,,,,,,,,,,,,,,,,,,1072.6873,1072.6874,1072.6886,1073.5588,0,1,left,0.3492,,1073.5609,1073.5614,0,1,,1073.5619,1073.5623,1,1,,0,1073.5623,1073.5623,1073.5628,1075.0597,0,21,21,21,1,0.2,0.8,0.6,0.4,1,0,,,,,,,,,,,,,,,,,,,,,,,,,,,,,,,,,,,,
,,5ce031fc7f65ee001a985a6b,66fcb88ab5299936d1513484,2024-10-02_04h26.56.340,mdp,2024.2.1,Win32,57.14285714,66fa4ebf79326e780c390304,,,,,,,,,,,,,,,,,,,,,1075.0618,1075.0618,1075.0648,1075.9844,0,1,left,0.4064,,1075.9872,1075.9882,0,1,,1075.9893,1075.9902,1,1,,0,1075.9903,1075.9903,1075.9913,1077.4854,0,22,22,22,1,0.2,0.8,0.6,0.4,1,0,,,,,,,,,,,,,,,,,,,,,,,,,,,,,,,,,,,,
,,5ce031fc7f65ee001a985a6b,66fcb88ab5299936d1513484,2024-10-02_04h26.56.340,mdp,2024.2.1,Win32,57.14285714,66fa4ebf79326e780c390304,,,,,,,,,,,,,,,,,,,,,1077.4873,1077.4873,1077.4907,1078.5852,1,0,right,0.5803,,1078.589,1078.5906,0,0,,1078.5923,1078.5937,1,1,,1,1078.5938,1078.5938,1078.5953,1080.0846,0,23,23,23,1,0.2,0.8,0.6,0.4,1,0,,,,,,,,,,,,,,,,,,,,,,,,,,,,,,,,,,,,
,,5ce031fc7f65ee001a985a6b,66fcb88ab5299936d1513484,2024-10-02_04h26.56.340,mdp,2024.2.1,Win32,57.14285714,66fa4ebf79326e780c390304,,,,,,,,,,,,,,,,,,,,,1080.0868,1080.0868,1080.0888,1080.8881,1,0,right,0.2786,,1080.8899,1080.8907,0,0,,1080.8915,1080.8922,1,0,,1,1080.8923,1080.8923,1080.8929,1082.3878,0,24,24,24,1,0.2,0.8,0.6,0.4,1,0,,,,,,,,,,,,,,,,,,,,,,,,,,,,,,,,,,,,
,,5ce031fc7f65ee001a985a6b,66fcb88ab5299936d1513484,2024-10-02_04h26.56.340,mdp,2024.2.1,Win32,57.14285714,66fa4ebf79326e780c390304,,,,,,,,,,,,,,,,,,,,,1082.3894,1082.3895,1082.3916,1083.3491,0,1,left,0.4372,,1083.3526,1083.3541,0,1,,1083.3561,1083.3572,1,1,,0,1083.3573,1083.3573,1083.3585,1084.8477,0,25,25,25,1,0.2,0.8,0.6,0.4,1,0,,,,,,,,,,,,,,,,,,,,,,,,,,,,,,,,,,,,
,,5ce031fc7f65ee001a985a6b,66fcb88ab5299936d1513484,2024-10-02_04h26.56.340,mdp,2024.2.1,Win32,57.14285714,66fa4ebf79326e780c390304,,,,,,,,,,,,,,,,,,,,,1084.8493,1084.8493,1084.851,1085.7423,1,0,right,0.3819,,1085.7444,1085.7456,0,0,,1085.747,1085.7484,1,1,,1,1085.7486,1085.7486,1085.7501,1087.2388,0,26,26,26,1,0.6,0.4,0.4,0.6,1,0,,,,,,,,,,,,,,,,,,,,,,,,,,,,,,,,,,,,
,,5ce031fc7f65ee001a985a6b,66fcb88ab5299936d1513484,2024-10-02_04h26.56.340,mdp,2024.2.1,Win32,57.14285714,66fa4ebf79326e780c390304,,,,,,,,,,,,,,,,,,,,,1087.2408,1087.2408,1087.2438,1087.9889,1,1,right,0.2217,,1087.9922,1087.9936,0,1,,1087.9949,1087.996,1,1,,0,1087.9961,1087.9961,1087.9973,1089.4893,0,27,27,27,1,0.6,0.4,0.4,0.6,1,0,,,,,,,,,,,,,,,,,,,,,,,,,,,,,,,,,,,,
,,5ce031fc7f65ee001a985a6b,66fcb88ab5299936d1513484,2024-10-02_04h26.56.340,mdp,2024.2.1,Win32,57.14285714,66fa4ebf79326e780c390304,,,,,,,,,,,,,,,,,,,,,1089.4908,1089.4908,1089.493,1090.5194,1,1,right,0.5083,,1090.5225,1090.5237,0,0,,1090.5251,1090.5263,1,0,,0,1090.5264,1090.5264,1090.5276,1092.0242,0,28,28,28,1,0.6,0.4,0.4,0.6,1,0,,,,,,,,,,,,,,,,,,,,,,,,,,,,,,,,,,,,
,,5ce031fc7f65ee001a985a6b,66fcb88ab5299936d1513484,2024-10-02_04h26.56.340,mdp,2024.2.1,Win32,57.14285714,66fa4ebf79326e780c390304,,,,,,,,,,,,,,,,,,,,,1092.0252,1092.0252,1092.0271,1092.6304,0,0,left,0.0716,,1092.6335,1092.6349,0,0,,1092.6363,1092.6377,1,1,,1,1092.6378,1092.6379,1092.6391,1094.1304,0,29,29,29,1,0.4,0.6,0.6,0.4,1,0,,,,,,,,,,,,,,,,,,,,,,,,,,,,,,,,,,,,
,,5ce031fc7f65ee001a985a6b,66fcb88ab5299936d1513484,2024-10-02_04h26.56.340,mdp,2024.2.1,Win32,57.14285714,66fa4ebf79326e780c390304,,,,,,,,,,,,,,,,,,,,,1094.1321,1094.1321,1094.1343,1094.9341,0,1,left,0.2711,,1094.937,1094.9381,0,1,,1094.9397,1094.9408,1,0,,0,1094.9409,1094.9409,1094.9424,1096.4335,0,30,30,30,1,0.4,0.6,0.6,0.4,1,0,,,,,,,,,,,,,,,,,,,,,,,,,,,,,,,,,,,,
,,5ce031fc7f65ee001a985a6b,66fcb88ab5299936d1513484,2024-10-02_04h26.56.340,mdp,2024.2.1,Win32,57.14285714,66fa4ebf79326e780c390304,,,,,,,,,,,,,,,,,,,,,1096.4354,1096.4354,1096.4365,1097.2064,0,1,left,0.2434,,1097.2085,1097.2097,0,0,,1097.2111,1097.2121,1,0,,0,1097.2122,1097.2122,1097.2134,1098.7016,0,31,31,31,1,0.4,0.6,0.6,0.4,1,0,,,,,,,,,,,,,,,,,,,,,,,,,,,,,,,,,,,,
,,5ce031fc7f65ee001a985a6b,66fcb88ab5299936d1513484,2024-10-02_04h26.56.340,mdp,2024.2.1,Win32,57.14285714,66fa4ebf79326e780c390304,,,,,,,,,,,,,,,,,,,,,1098.7038,1098.704,1098.7062,1099.4876,1,0,right,0.2625,,1099.4901,1099.4912,0,0,,1099.4923,1099.4932,1,1,,1,1099.4933,1099.4933,1099.4942,1100.9923,0,32,32,32,1,0.8,0.2,0.8,0.2,1,0,,,,,,,,,,,,,,,,,,,,,,,,,,,,,,,,,,,,
,,5ce031fc7f65ee001a985a6b,66fcb88ab5299936d1513484,2024-10-02_04h26.56.340,mdp,2024.2.1,Win32,57.14285714,66fa4ebf79326e780c390304,,,,,,,,,,,,,,,,,,,,,1100.9928,1100.9928,1100.9941,1101.6385,0,1,left,0.1249,,1101.6402,1101.6412,0,1,,1101.6423,1101.6432,1,0,,0,1101.6432,1101.6432,1101.6441,1103.1361,0,33,33,33,1,0.8,0.2,0.8,0.2,1,0,,,,,,,,,,,,,,,,,,,,,,,,,,,,,,,,,,,,
,,5ce031fc7f65ee001a985a6b,66fcb88ab5299936d1513484,2024-10-02_04h26.56.340,mdp,2024.2.1,Win32,57.14285714,66fa4ebf79326e780c390304,,,,,,,,,,,,,,,,,,,,,1103.137,1103.137,1103.1393,1104.008,1,1,right,0.3575,,1104.0116,1104.0127,0,1,,1104.0139,1104.015,1,1,,0,1104.015,1104.015,1104.0165,1105.5072,0,34,34,34,1,0.6,0.4,0.2,0.8,1,0,,,,,,,,,,,,,,,,,,,,,,,,,,,,,,,,,,,,
,,5ce031fc7f65ee001a985a6b,66fcb88ab5299936d1513484,2024-10-02_04h26.56.340,mdp,2024.2.1,Win32,57.14285714,66fa4ebf79326e780c390304,,,,,,,,,,,,,,,,,,,,,1105.5091,1105.5092,1105.5114,1106.5363,0,0,left,0.5014,,1106.5385,1106.539,0,0,,1106.5396,1106.54,1,0,,1,1106.5401,1106.5401,1106.5406,1108.0371,0,35,35,35,1,0.6,0.4,0.2,0.8,1,0,,,,,,,,,,,,,,,,,,,,,,,,,,,,,,,,,,,,
,,5ce031fc7f65ee001a985a6b,66fcb88ab5299936d1513484,2024-10-02_04h26.56.340,mdp,2024.2.1,Win32,57.14285714,66fa4ebf79326e780c390304,,,,,,,,,,,,,,,,,,,,,1108.0391,1108.0392,1108.0429,1108.8929,0,1,left,0.3329,,1108.8952,1108.8962,0,0,,1108.8972,1108.8981,1,0,,0,1108.8981,1108.8981,1108.899,1110.3974,0,36,36,36,1,0.6,0.4,0.2,0.8,1,0,,,,,,,,,,,,,,,,,,,,,,,,,,,,,,,,,,,,
,,5ce031fc7f65ee001a985a6b,66fcb88ab5299936d1513484,2024-10-02_04h26.56.340,mdp,2024.2.1,Win32,57.14285714,66fa4ebf79326e780c390304,,,,,,,,,,,,,,,,,,,,,1110.3982,1110.3982,1110.4003,1111.1955,0,1,left,0.2494,,1111.1987,1111.2,0,1,,1111.2015,1111.2025,1,1,,0,1111.2025,1111.2025,1111.2037,1112.6961,0,37,37,37,1,0.6,0.4,0.2,0.8,1,0,,,,,,,,,,,,,,,,,,,,,,,,,,,,,,,,,,,,
,,5ce031fc7f65ee001a985a6b,66fcb88ab5299936d1513484,2024-10-02_04h26.56.340,mdp,2024.2.1,Win32,57.14285714,66fa4ebf79326e780c390304,,,,,,,,,,,,,,,,,,,,,1112.6978,1112.6978,1112.7008,1113.6393,0,0,left,0.4217,,1113.6434,1113.6452,0,0,,1113.6474,1113.649,1,0,,1,1113.6491,1113.6491,1113.6508,1115.1382,0,38,38,38,1,0.8,0.2,0.6,0.4,1,0,,,,,,,,,,,,,,,,,,,,,,,,,,,,,,,,,,,,
,,5ce031fc7f65ee001a985a6b,66fcb88ab5299936d1513484,2024-10-02_04h26.56.340,mdp,2024.2.1,Win32,57.14285714,66fa4ebf79326e780c390304,,,,,,,,,,,,,,,,,,,,,1115.1393,1115.1393,1115.1427,1115.924,1,0,right,0.2701,,1115.9276,1115.9289,0,1,,1115.9302,1115.9313,1,0,,1,1115.9313,1115.9313,1115.9324,1117.4238,0,39,39,39,1,0.6,0.4,0.4,0.6,1,0,,,,,,,,,,,,,,,,,,,,,,,,,,,,,,,,,,,,
,,5ce031fc7f65ee001a985a6b,66fcb88ab5299936d1513484,2024-10-02_04h26.56.340,mdp,2024.2.1,Win32,57.14285714,66fa4ebf79326e780c390304,,,,,,,,,,,,,,,,,,,,,1117.4248,1117.425,1117.4284,1118.2446,0,1,left,0.2973,,1118.248,1118.2493,0,1,,1118.2505,1118.2514,1,0,,0,1118.2515,1118.2515,1118.2525,1119.7446,0,40,40,40,1,0.4,0.6,0.6,0.4,1,0,,,,,,,,,,,,,,,,,,,,,,,,,,,,,,,,,,,,
,,5ce031fc7f65ee001a985a6b,66fcb88ab5299936d1513484,2024-10-02_04h26.56.340,mdp,2024.2.1,Win32,57.14285714,66fa4ebf79326e780c390304,,,,,,,,,,,,,,,,,,,,,1119.7454,1119.7455,1119.7488,1120.5825,0,1,left,0.315,,1120.5861,1120.5873,0,0,,1120.5886,1120.5897,1,1,,0,1120.5898,1120.5898,1120.5909,1122.0826,0,41,41,41,1,0.4,0.6,0.6,0.4,1,0,,,,,,,,,,,,,,,,,,,,,,,,,,,,,,,,,,,,
