init_exp.started,init_exp.stopped,participant,session,date,expName,psychopyVersion,OS,frameRate,study_id,disp_instruction.started,disp_instruction.stopped,instruction.thisRepN,instruction.thisTrialN,instruction.thisN,instruction.thisIndex,instruction.ran,instimg_path,consent.started,consent.stopped,key_resp_3.keys,key_resp_3.rt,key_resp_3.duration,n_steps,sequence_path,init_block.started,init_block.stopped,key_resp.keys,key_resp.rt,key_resp.duration,init_trials.started,init_trials.stopped,step0.started,step0.stopped,act0,s1,res0.keys,res0.rt,res0.duration,step1.started,step1.stopped,act1,s2,res1.keys,step2.started,step2.stopped,act2,s3,res2.keys,rew,reward_comp.started,reward_comp.stopped,reward_disp.started,reward_disp.stopped,trials.thisRepN,trials.thisTrialN,trials.thisN,trials.thisIndex,trials.ran,s00a0s10,s00a0s11,s00a1s10,s00a1s11,rew10,rew11,break_block.started,break_block.stopped,block.thisRepN,block.thisTrialN,block.thisN,block.thisIndex,block.ran,s00path,s10path,s11path,s20path,s21path,res1.rt,res1.duration,s10a0s20,s10a0s21,s10a1s20,s10a1s21,s11a0s20,s11a0s21,s11a1s20,s11a1s21,rew20,rew21,res2.rt,res2.duration,s20a0s30,s20a0s31,s20a1s30,s20a1s31,s21a0s30,s21a0s31,s21a1s30,s21a1s31,rew30,rew31
0.0007,0.0049,5d251b0c86fe240017764b36,66fc97b13270de5129c40376,2024-10-02_01h46.03.545,mdp,2024.2.1,Win32,59.88023952,66fa4ebf79326e780c390304,,,,,,,,,,,,,,,,,,,,,,,,,,,,,,,,,,,,,,,,,,,,,,,,,,,,,,,,,,,,,,,,,,,,,,,,,,,,,,,,,,,,,,,,,,,
,,5d251b0c86fe240017764b36,66fc97b13270de5129c40376,2024-10-02_01h46.03.545,mdp,2024.2.1,Win32,59.88023952,66fa4ebf79326e780c390304,0.0157,61.6148,0,0,0,0,1,rlnn_exp/rlnn_exp.001.png,,,,,,,,,,,,,,,,,,,,,,,,,,,,,,,,,,,,,,,,,,,,,,,,,,,,,,,,,,,,,,,,,,,,,,,,,,,,,,,,,,,
,,5d251b0c86fe240017764b36,66fc97b13270de5129c40376,2024-10-02_01h46.03.545,mdp,2024.2.1,Win32,59.88023952,66fa4ebf79326e780c390304,61.6162,79.0878,0,1,1,1,1,rlnn_exp/rlnn_exp.002.png,,,,,,,,,,,,,,,,,,,,,,,,,,,,,,,,,,,,,,,,,,,,,,,,,,,,,,,,,,,,,,,,,,,,,,,,,,,,,,,,,,,
,,5d251b0c86fe240017764b36,66fc97b13270de5129c40376,2024-10-02_01h46.03.545,mdp,2024.2.1,Win32,59.88023952,66fa4ebf79326e780c390304,79.1119,90.7873,0,2,2,2,1,rlnn_exp/rlnn_exp.003.png,,,,,,,,,,,,,,,,,,,,,,,,,,,,,,,,,,,,,,,,,,,,,,,,,,,,,,,,,,,,,,,,,,,,,,,,,,,,,,,,,,,
,,5d251b0c86fe240017764b36,66fc97b13270de5129c40376,2024-10-02_01h46.03.545,mdp,2024.2.1,Win32,59.88023952,66fa4ebf79326e780c390304,90.8107,102.5986,0,3,3,3,1,rlnn_exp/rlnn_exp.004.png,,,,,,,,,,,,,,,,,,,,,,,,,,,,,,,,,,,,,,,,,,,,,,,,,,,,,,,,,,,,,,,,,,,,,,,,,,,,,,,,,,,
,,5d251b0c86fe240017764b36,66fc97b13270de5129c40376,2024-10-02_01h46.03.545,mdp,2024.2.1,Win32,59.88023952,66fa4ebf79326e780c390304,,,,,,,,,102.6249,129.7229,y,17.0541,,,,,,,,,,,,,,,,,,,,,,,,,,,,,,,,,,,,,,,,,,,,,,,,,,,,,,,,,,,,,,,,,,,,,,,,,,,,,,,
,,5d251b0c86fe240017764b36,66fc97b13270de5129c40376,2024-10-02_01h46.03.545,mdp,2024.2.1,Win32,59.88023952,66fa4ebf79326e780c390304,,,,,,,,,,,,,,1,seqs/st1seq14.csv,129.7618,132.3052,space,2.013,,132.3141,132.3144,132.3155,213.4361,0,0,left,80.5418,,213.464,213.47,,0,,213.4722,213.4771,,0,,1,213.4773,213.4776,213.4786,214.9789,0,0,0,0,1,0.8,0.2,0.2,0.8,1,0,,,,,,,,,,,,,,,,,,,,,,,,,,,,,,,,,,,,
,,5d251b0c86fe240017764b36,66fc97b13270de5129c40376,2024-10-02_01h46.03.545,mdp,2024.2.1,Win32,59.88023952,66fa4ebf79326e780c390304,,,,,,,,,,,,,,,,,,,,,214.9805,214.9805,214.9943,218.0864,0,0,left,2.5606,,218.1121,218.1142,,0,,218.1166,218.1183,,0,,1,218.1184,218.1184,218.1199,219.6012,0,1,1,1,1,0.8,0.2,0.2,0.8,1,0,,,,,,,,,,,,,,,,,,,,,,,,,,,,,,,,,,,,
,,5d251b0c86fe240017764b36,66fc97b13270de5129c40376,2024-10-02_01h46.03.545,mdp,2024.2.1,Win32,59.88023952,66fa4ebf79326e780c390304,,,,,,,,,,,,,,,,,,,,,219.6018,219.6018,219.6056,221.2875,0,0,left,1.1474,,221.2899,221.2921,,0,,221.2942,221.296,,0,,1,221.2962,221.2962,221.298,222.7998,0,2,2,2,1,0.8,0.2,0.2,0.8,1,0,,,,,,,,,,,,,,,,,,,,,,,,,,,,,,,,,,,,
,,5d251b0c86fe240017764b36,66fc97b13270de5129c40376,2024-10-02_01h46.03.545,mdp,2024.2.1,Win32,59.88023952,66fa4ebf79326e780c390304,,,,,,,,,,,,,,,,,,,,,222.8005,222.8007,222.804,223.7998,0,0,left,0.4608,,223.802,223.8039,,0,,223.8059,223.8073,,0,,1,223.8074,223.8074,223.8085,225.3039,0,3,3,3,1,0.8,0.2,0.2,0.8,1,0,,,,,,,,,,,,,,,,,,,,,,,,,,,,,,,,,,,,
,,5d251b0c86fe240017764b36,66fc97b13270de5129c40376,2024-10-02_01h46.03.545,mdp,2024.2.1,Win32,59.88023952,66fa4ebf79326e780c390304,,,,,,,,,,,,,,,,,,,,,225.3046,225.3047,225.3072,226.2469,0,0,left,0.4207,,226.2491,226.2508,,1,,226.2522,226.2534,,0,,1,226.2535,226.2535,226.2549,227.7353,0,4,4,4,1,0.4,0.6,0.8,0.2,1,0,,,,,,,,,,,,,,,,,,,,,,,,,,,,,,,,,,,,
,,5d251b0c86fe240017764b36,66fc97b13270de5129c40376,2024-10-02_01h46.03.545,mdp,2024.2.1,Win32,59.88023952,66fa4ebf79326e780c390304,,,,,,,,,,,,,,,,,,,,,227.7361,227.7361,227.7389,228.7467,0,0,left,0.4559,,228.7494,228.7508,,0,,228.7523,228.7536,,1,,1,228.7536,228.7537,228.755,230.2439,0,5,5,5,1,0.4,0.6,0.8,0.2,1,0,,,,,,,,,,,,,,,,,,,,,,,,,,,,,,,,,,,,
,,5d251b0c86fe240017764b36,66fc97b13270de5129c40376,2024-10-02_01h46.03.545,mdp,2024.2.1,Win32,59.88023952,66fa4ebf79326e780c390304,,,,,,,,,,,,,,,,,,,,,230.2459,230.2459,230.2486,231.2297,0,1,left,0.4535,,231.2317,231.2334,,1,,231.2351,231.2378,,1,,0,231.2379,231.2379,231.24,232.7275,0,6,6,6,1,0.4,0.6,0.8,0.2,1,0,,,,,,,,,,,,,,,,,,,,,,,,,,,,,,,,,,,,
,,5d251b0c86fe240017764b36,66fc97b13270de5129c40376,2024-10-02_01h46.03.545,mdp,2024.2.1,Win32,59.88023952,66fa4ebf79326e780c390304,,,,,,,,,,,,,,,,,,,,,232.7286,232.7288,232.7313,233.7411,0,1,left,0.4677,,233.7441,233.7461,,0,,233.7482,233.75,,1,,0,233.7501,233.7501,233.752,235.2508,0,7,7,7,1,0.4,0.6,0.8,0.2,1,0,,,,,,,,,,,,,,,,,,,,,,,,,,,,,,,,,,,,
,,5d251b0c86fe240017764b36,66fc97b13270de5129c40376,2024-10-02_01h46.03.545,mdp,2024.2.1,Win32,59.88023952,66fa4ebf79326e780c390304,,,,,,,,,,,,,,,,,,,,,235.2513,235.2515,235.2533,236.5516,1,0,right,0.7793,,236.5536,236.5551,,1,,236.557,236.5585,,0,,1,236.5586,236.5587,236.5604,238.0452,0,8,8,8,1,0.4,0.6,0.8,0.2,1,0,,,,,,,,,,,,,,,,,,,,,,,,,,,,,,,,,,,,
,,5d251b0c86fe240017764b36,66fc97b13270de5129c40376,2024-10-02_01h46.03.545,mdp,2024.2.1,Win32,59.88023952,66fa4ebf79326e780c390304,,,,,,,,,,,,,,,,,,,,,238.046,238.0462,238.0481,239.1152,1,0,right,0.5429,,239.1172,239.1185,,0,,239.1199,239.122,,1,,1,239.1221,239.1222,239.124,240.6055,0,9,9,9,1,0.4,0.6,0.8,0.2,1,0,,,,,,,,,,,,,,,,,,,,,,,,,,,,,,,,,,,,
,,5d251b0c86fe240017764b36,66fc97b13270de5129c40376,2024-10-02_01h46.03.545,mdp,2024.2.1,Win32,59.88023952,66fa4ebf79326e780c390304,,,,,,,,,,,,,,,,,,,,,240.6063,240.6063,240.6087,241.6518,1,0,right,0.5174,,241.6543,241.6557,,0,,241.657,241.6581,,0,,1,241.6582,241.6582,241.6596,243.1522,0,10,10,10,1,0.4,0.6,0.8,0.2,1,0,,,,,,,,,,,,,,,,,,,,,,,,,,,,,,,,,,,,
,,5d251b0c86fe240017764b36,66fc97b13270de5129c40376,2024-10-02_01h46.03.545,mdp,2024.2.1,Win32,59.88023952,66fa4ebf79326e780c390304,,,,,,,,,,,,,,,,,,,,,243.153,243.1531,243.1553,244.3633,1,0,right,0.6717,,244.366,244.3682,,1,,244.37,244.3716,,0,,1,244.3717,244.3717,244.3732,245.86,0,11,11,11,1,0.4,0.6,0.8,0.2,1,0,,,,,,,,,,,,,,,,,,,,,,,,,,,,,,,,,,,,
,,5d251b0c86fe240017764b36,66fc97b13270de5129c40376,2024-10-02_01h46.03.545,mdp,2024.2.1,Win32,59.88023952,66fa4ebf79326e780c390304,,,,,,,,,,,,,,,,,,,,,245.8609,245.8609,245.8635,246.8502,1,0,right,0.4659,,246.8527,246.8549,,0,,246.8564,246.8575,,0,,1,246.8577,246.8577,246.8588,248.3552,0,12,12,12,1,0.4,0.6,0.8,0.2,1,0,,,,,,,,,,,,,,,,,,,,,,,,,,,,,,,,,,,,
,,5d251b0c86fe240017764b36,66fc97b13270de5129c40376,2024-10-02_01h46.03.545,mdp,2024.2.1,Win32,59.88023952,66fa4ebf79326e780c390304,,,,,,,,,,,,,,,,,,,,,248.356,248.356,248.358,249.3607,1,0,right,0.4677,,249.3633,249.3649,,0,,249.3662,249.3675,,0,,1,249.3676,249.3676,249.3689,250.8371,0,13,13,13,1,0.8,0.2,0.6,0.4,1,0,,,,,,,,,,,,,,,,,,,,,,,,,,,,,,,,,,,,
,,5d251b0c86fe240017764b36,66fc97b13270de5129c40376,2024-10-02_01h46.03.545,mdp,2024.2.1,Win32,59.88023952,66fa4ebf79326e780c390304,,,,,,,,,,,,,,,,,,,,,250.8379,250.8379,250.8402,251.8718,1,0,right,0.5048,,251.8738,251.8761,,0,,251.8781,251.8795,,0,,1,251.8796,251.8796,251.8808,253.3749,0,14,14,14,1,0.8,0.2,0.6,0.4,1,0,,,,,,,,,,,,,,,,,,,,,,,,,,,,,,,,,,,,
,,5d251b0c86fe240017764b36,66fc97b13270de5129c40376,2024-10-02_01h46.03.545,mdp,2024.2.1,Win32,59.88023952,66fa4ebf79326e780c390304,,,,,,,,,,,,,,,,,,,,,253.3759,253.3759,253.378,254.2758,1,0,right,0.374,,254.2782,254.28,,0,,254.2816,254.2832,,1,,1,254.2833,254.2833,254.2847,255.7726,0,15,15,15,1,0.8,0.2,0.6,0.4,1,0,,,,,,,,,,,,,,,,,,,,,,,,,,,,,,,,,,,,
,,5d251b0c86fe240017764b36,66fc97b13270de5129c40376,2024-10-02_01h46.03.545,mdp,2024.2.1,Win32,59.88023952,66fa4ebf79326e780c390304,,,,,,,,,,,,,,,,,,,,,255.7732,255.7733,255.7761,256.8023,1,1,right,0.4985,,256.806,256.8078,,1,,256.8094,256.811,,0,,0,256.811,256.8111,256.8127,258.3033,0,16,16,16,1,0.8,0.2,0.6,0.4,1,0,,,,,,,,,,,,,,,,,,,,,,,,,,,,,,,,,,,,
,,5d251b0c86fe240017764b36,66fc97b13270de5129c40376,2024-10-02_01h46.03.545,mdp,2024.2.1,Win32,59.88023952,66fa4ebf79326e780c390304,,,,,,,,,,,,,,,,,,,,,258.3047,258.3048,258.3073,259.1777,0,0,left,0.3307,,259.1795,259.1809,,1,,259.1821,259.1831,,0,,1,259.1832,259.1833,259.1855,260.6724,0,17,17,17,1,0.8,0.2,0.6,0.4,1,0,,,,,,,,,,,,,,,,,,,,,,,,,,,,,,,,,,,,
,,5d251b0c86fe240017764b36,66fc97b13270de5129c40376,2024-10-02_01h46.03.545,mdp,2024.2.1,Win32,59.88023952,66fa4ebf79326e780c390304,,,,,,,,,,,,,,,,,,,,,260.6732,260.6732,260.6758,261.508,0,0,left,0.3167,,261.5109,261.5133,,1,,261.5155,261.5175,,0,,1,261.5176,261.5176,261.5209,263.0184,0,18,18,18,1,0.8,0.2,0.6,0.4,1,0,,,,,,,,,,,,,,,,,,,,,,,,,,,,,,,,,,,,
,,5d251b0c86fe240017764b36,66fc97b13270de5129c40376,2024-10-02_01h46.03.545,mdp,2024.2.1,Win32,59.88023952,66fa4ebf79326e780c390304,,,,,,,,,,,,,,,,,,,,,263.0192,263.0192,263.0217,263.9362,0,0,left,0.3607,,263.9383,263.9398,,0,,263.9415,263.9429,,0,,1,263.943,263.943,263.9443,265.447,0,19,19,19,1,0.8,0.2,0.6,0.4,1,0,,,,,,,,,,,,,,,,,,,,,,,,,,,,,,,,,,,,
,,5d251b0c86fe240017764b36,66fc97b13270de5129c40376,2024-10-02_01h46.03.545,mdp,2024.2.1,Win32,59.88023952,66fa4ebf79326e780c390304,,,,,,,,,,,,,,,,,,,,,265.4475,265.4476,265.4499,266.4294,0,1,left,0.452,,266.432,266.4343,,0,,266.4361,266.4379,,0,,0,266.4379,266.4379,266.4398,267.9457,0,20,20,20,1,0.8,0.2,0.6,0.4,1,0,,,,,,,,,,,,,,,,,,,,,,,,,,,,,,,,,,,,
,,5d251b0c86fe240017764b36,66fc97b13270de5129c40376,2024-10-02_01h46.03.545,mdp,2024.2.1,Win32,59.88023952,66fa4ebf79326e780c390304,,,,,,,,,,,,,,,,,,,,,267.9465,267.9465,267.9489,268.5285,1,1,right,0.055,,268.5311,268.5329,,0,,268.5349,268.5366,,0,,0,268.5368,268.5368,268.5388,270.0345,0,21,21,21,1,0.8,0.2,0.6,0.4,1,0,,,,,,,,,,,,,,,,,,,,,,,,,,,,,,,,,,,,
,,5d251b0c86fe240017764b36,66fc97b13270de5129c40376,2024-10-02_01h46.03.545,mdp,2024.2.1,Win32,59.88023952,66fa4ebf79326e780c390304,,,,,,,,,,,,,,,,,,,,,270.0352,270.0352,270.0367,270.9275,0,0,left,0.3568,,270.9298,270.9312,,0,,270.9324,270.9334,,0,,1,270.9334,270.9334,270.9348,272.4259,0,22,22,22,1,0.8,0.2,0.6,0.4,1,0,,,,,,,,,,,,,,,,,,,,,,,,,,,,,,,,,,,,
,,5d251b0c86fe240017764b36,66fc97b13270de5129c40376,2024-10-02_01h46.03.545,mdp,2024.2.1,Win32,59.88023952,66fa4ebf79326e780c390304,,,,,,,,,,,,,,,,,,,,,272.4269,272.4269,272.4296,273.582,1,0,right,0.6237,,273.5846,273.5864,,1,,273.5886,273.5904,,0,,1,273.5905,273.5905,273.5924,275.0801,0,23,23,23,1,0.8,0.2,0.6,0.4,1,0,,,,,,,,,,,,,,,,,,,,,,,,,,,,,,,,,,,,
,,5d251b0c86fe240017764b36,66fc97b13270de5129c40376,2024-10-02_01h46.03.545,mdp,2024.2.1,Win32,59.88023952,66fa4ebf79326e780c390304,,,,,,,,,,,,,,,,,,,,,275.0809,275.0809,275.0837,275.9335,0,0,left,0.3322,,275.9359,275.9378,,0,,275.9398,275.9417,,1,,1,275.9418,275.9418,275.9435,277.4356,0,24,24,24,1,0.8,0.2,0.6,0.4,1,0,,,,,,,,,,,,,,,,,,,,,,,,,,,,,,,,,,,,
,,5d251b0c86fe240017764b36,66fc97b13270de5129c40376,2024-10-02_01h46.03.545,mdp,2024.2.1,Win32,59.88023952,66fa4ebf79326e780c390304,,,,,,,,,,,,,,,,,,,,,277.4364,277.4366,277.439,278.3851,0,0,left,0.4151,,278.3877,278.3892,,1,,278.391,278.3921,,0,,1,278.3923,278.3923,278.3932,279.8833,0,25,25,25,1,0.8,0.2,0.6,0.4,1,0,,,,,,,,,,,,,,,,,,,,,,,,,,,,,,,,,,,,
,,5d251b0c86fe240017764b36,66fc97b13270de5129c40376,2024-10-02_01h46.03.545,mdp,2024.2.1,Win32,59.88023952,66fa4ebf79326e780c390304,,,,,,,,,,,,,,,,,,,,,279.8851,279.8851,279.8881,280.7996,0,0,left,0.3789,,280.802,280.8034,,0,,280.8047,280.8062,,0,,1,280.8062,280.8063,280.8074,282.2977,0,26,26,26,1,0.8,0.2,0.6,0.4,1,0,,,,,,,,,,,,,,,,,,,,,,,,,,,,,,,,,,,,
,,5d251b0c86fe240017764b36,66fc97b13270de5129c40376,2024-10-02_01h46.03.545,mdp,2024.2.1,Win32,59.88023952,66fa4ebf79326e780c390304,,,,,,,,,,,,,,,,,,,,,282.2984,282.2984,282.3012,282.8899,1,0,right,0.0605,,282.8918,282.8934,,1,,282.8954,282.8975,,1,,1,282.8975,282.8975,282.8993,284.3959,0,27,27,27,1,0.8,0.2,0.6,0.4,1,0,,,,,,,,,,,,,,,,,,,,,,,,,,,,,,,,,,,,
,,5d251b0c86fe240017764b36,66fc97b13270de5129c40376,2024-10-02_01h46.03.545,mdp,2024.2.1,Win32,59.88023952,66fa4ebf79326e780c390304,,,,,,,,,,,,,,,,,,,,,284.3967,284.3967,284.399,285.2116,1,0,right,0.2889,,285.2146,285.2164,,0,,285.218,285.2193,,1,,1,285.2194,285.2194,285.221,286.711,0,28,28,28,1,0.8,0.2,0.6,0.4,1,0,,,,,,,,,,,,,,,,,,,,,,,,,,,,,,,,,,,,
,,5d251b0c86fe240017764b36,66fc97b13270de5129c40376,2024-10-02_01h46.03.545,mdp,2024.2.1,Win32,59.88023952,66fa4ebf79326e780c390304,,,,,,,,,,,,,,,,,,,,,286.7121,286.7121,286.7144,287.3553,0,0,left,0.0996,,287.3571,287.3587,,0,,287.3607,287.3621,,1,,1,287.3623,287.3623,287.3636,288.859,0,29,29,29,1,0.8,0.2,0.6,0.4,1,0,,,,,,,,,,,,,,,,,,,,,,,,,,,,,,,,,,,,
,,5d251b0c86fe240017764b36,66fc97b13270de5129c40376,2024-10-02_01h46.03.545,mdp,2024.2.1,Win32,59.88023952,66fa4ebf79326e780c390304,,,,,,,,,,,,,,,,,,,,,288.8609,288.861,288.8633,289.6428,0,1,left,0.2535,,289.6458,289.6472,,0,,289.6488,289.6503,,0,,0,289.6504,289.6504,289.6516,291.1402,0,30,30,30,1,0.8,0.2,0.6,0.4,1,0,,,,,,,,,,,,,,,,,,,,,,,,,,,,,,,,,,,,
,,5d251b0c86fe240017764b36,66fc97b13270de5129c40376,2024-10-02_01h46.03.545,mdp,2024.2.1,Win32,59.88023952,66fa4ebf79326e780c390304,,,,,,,,,,,,,,,,,,,,,291.1409,291.141,291.1432,292.3387,0,0,left,0.6711,,292.3413,292.343,,0,,292.3448,292.3467,,0,,1,292.3467,292.3467,292.3482,293.837,0,31,31,31,1,0.8,0.2,0.6,0.4,1,0,,,,,,,,,,,,,,,,,,,,,,,,,,,,,,,,,,,,
,,5d251b0c86fe240017764b36,66fc97b13270de5129c40376,2024-10-02_01h46.03.545,mdp,2024.2.1,Win32,59.88023952,66fa4ebf79326e780c390304,,,,,,,,,,,,,,,,,,,,,293.8379,293.838,293.8403,294.871,1,1,right,0.4873,,294.8745,294.8768,,0,,294.8791,294.8804,,0,,0,294.8806,294.8806,294.8817,296.3689,0,32,32,32,1,0.8,0.2,0.6,0.4,1,0,,,,,,,,,,,,,,,,,,,,,,,,,,,,,,,,,,,,
,,5d251b0c86fe240017764b36,66fc97b13270de5129c40376,2024-10-02_01h46.03.545,mdp,2024.2.1,Win32,59.88023952,66fa4ebf79326e780c390304,,,,,,,,,,,,,,,,,,,,,296.3698,296.3698,296.3725,297.1629,0,0,left,0.251,,297.1655,297.1677,,0,,297.17,297.172,,1,,1,297.1721,297.1721,297.1736,298.6631,0,33,33,33,1,0.8,0.2,0.6,0.4,1,0,,,,,,,,,,,,,,,,,,,,,,,,,,,,,,,,,,,,
,,5d251b0c86fe240017764b36,66fc97b13270de5129c40376,2024-10-02_01h46.03.545,mdp,2024.2.1,Win32,59.88023952,66fa4ebf79326e780c390304,,,,,,,,,,,,,,,,,,,,,298.6645,298.6646,298.6683,299.5922,0,0,left,0.4013,,299.5949,299.5969,,0,,299.5992,299.601,,1,,1,299.6011,299.6011,299.6027,301.0806,0,34,34,34,1,0.8,0.2,0.6,0.4,1,0,,,,,,,,,,,,,,,,,,,,,,,,,,,,,,,,,,,,
,,5d251b0c86fe240017764b36,66fc97b13270de5129c40376,2024-10-02_01h46.03.545,mdp,2024.2.1,Win32,59.88023952,66fa4ebf79326e780c390304,,,,,,,,,,,,,,,,,,,,,301.0815,301.0815,301.0847,302.03,0,1,left,0.4162,,302.0332,302.0356,,0,,302.0379,302.0394,,1,,0,302.0396,302.0396,302.041,303.5285,0,35,35,35,1,0.2,0.8,0.8,0.2,1,0,,,,,,,,,,,,,,,,,,,,,,,,,,,,,,,,,,,,
,,5d251b0c86fe240017764b36,66fc97b13270de5129c40376,2024-10-02_01h46.03.545,mdp,2024.2.1,Win32,59.88023952,66fa4ebf79326e780c390304,,,,,,,,,,,,,,,,,,,,,303.5302,303.5303,303.5324,304.4238,1,1,right,0.3724,,304.4281,304.4312,,0,,304.4333,304.4349,,1,,0,304.435,304.435,304.4367,305.9396,0,36,36,36,1,0.2,0.8,0.8,0.2,1,0,,,,,,,,,,,,,,,,,,,,,,,,,,,,,,,,,,,,
,,5d251b0c86fe240017764b36,66fc97b13270de5129c40376,2024-10-02_01h46.03.545,mdp,2024.2.1,Win32,59.88023952,66fa4ebf79326e780c390304,,,,,,,,,,,,,,,,,,,,,305.9403,305.9403,305.9431,306.7858,0,1,left,0.3166,,306.7881,306.7897,,1,,306.7922,306.7946,,0,,0,306.7947,306.7947,306.7962,308.2898,0,37,37,37,1,0.2,0.8,0.8,0.2,1,0,,,,,,,,,,,,,,,,,,,,,,,,,,,,,,,,,,,,
,,5d251b0c86fe240017764b36,66fc97b13270de5129c40376,2024-10-02_01h46.03.545,mdp,2024.2.1,Win32,59.88023952,66fa4ebf79326e780c390304,,,,,,,,,,,,,,,,,,,,,308.2907,308.2908,308.2931,309.2654,1,0,right,0.446,,309.2675,309.269,,0,,309.2705,309.2723,,0,,1,309.2725,309.2725,309.2747,310.7713,0,38,38,38,1,0.2,0.8,0.8,0.2,1,0,,,,,,,,,,,,,,,,,,,,,,,,,,,,,,,,,,,,
,,5d251b0c86fe240017764b36,66fc97b13270de5129c40376,2024-10-02_01h46.03.545,mdp,2024.2.1,Win32,59.88023952,66fa4ebf79326e780c390304,,,,,,,,,,,,,,,,,,,,,310.7723,310.7723,310.7747,311.787,1,1,right,0.4766,,311.7902,311.7922,,1,,311.7946,311.7962,,0,,0,311.7962,311.7962,311.7975,313.2852,0,39,39,39,1,0.6,0.4,0.4,0.6,1,0,,,,,,,,,,,,,,,,,,,,,,,,,,,,,,,,,,,,
,,5d251b0c86fe240017764b36,66fc97b13270de5129c40376,2024-10-02_01h46.03.545,mdp,2024.2.1,Win32,59.88023952,66fa4ebf79326e780c390304,,,,,,,,,,,,,,,,,,,,,313.286,313.286,313.2925,314.1688,0,1,left,0.3497,,314.1718,314.1734,,0,,314.1749,314.176,,0,,0,314.176,314.1761,314.1769,315.6668,0,40,40,40,1,0.4,0.6,0.6,0.4,1,0,,,,,,,,,,,,,,,,,,,,,,,,,,,,,,,,,,,,
,,5d251b0c86fe240017764b36,66fc97b13270de5129c40376,2024-10-02_01h46.03.545,mdp,2024.2.1,Win32,59.88023952,66fa4ebf79326e780c390304,,,,,,,,,,,,,,,,,,,,,315.6674,315.6675,315.6699,316.5997,1,0,right,0.3937,,316.6021,316.6041,,0,,316.6056,316.6068,,1,,1,316.6069,316.607,316.6078,318.0977,0,41,41,41,1,0.4,0.6,0.6,0.4,1,0,,,,,,,,,,,,,,,,,,,,,,,,,,,,,,,,,,,,
,,5d251b0c86fe240017764b36,66fc97b13270de5129c40376,2024-10-02_01h46.03.545,mdp,2024.2.1,Win32,59.88023952,66fa4ebf79326e780c390304,,,,,,,,,,,,,,,,,,,,,318.0986,318.0986,318.1008,318.8808,1,0,right,0.2569,,318.8861,318.888,,0,,318.8897,318.8909,,1,,1,318.891,318.891,318.8922,320.3791,0,42,42,42,1,0.4,0.6,0.6,0.4,1,0,,,,,,,,,,,,,,,,,,,,,,,,,,,,,,,,,,,,
,,5d251b0c86fe240017764b36,66fc97b13270de5129c40376,2024-10-02_01h46.03.545,mdp,2024.2.1,Win32,59.88023952,66fa4ebf79326e780c390304,,,,,,,,,,,,,,,,,,,,,320.38,320.3801,320.3823,321.3451,1,0,right,0.4356,,321.3477,321.349,,0,,321.3504,321.3519,,1,,1,321.3519,321.352,321.353,322.8432,0,43,43,43,1,0.2,0.8,0.8,0.2,1,0,,,,,,,,,,,,,,,,,,,,,,,,,,,,,,,,,,,,
,,5d251b0c86fe240017764b36,66fc97b13270de5129c40376,2024-10-02_01h46.03.545,mdp,2024.2.1,Win32,59.88023952,66fa4ebf79326e780c390304,,,,,,,,,,,,,,,,,,,,,322.8444,322.8444,322.8471,323.9757,1,1,right,0.6,,323.9784,323.9799,,0,,323.9816,323.983,,0,,0,323.9831,323.9831,323.9847,325.4739,0,44,44,44,1,0.2,0.8,0.8,0.2,1,0,,,,,,,,,,,,,,,,,,,,,,,,,,,,,,,,,,,,
,,5d251b0c86fe240017764b36,66fc97b13270de5129c40376,2024-10-02_01h46.03.545,mdp,2024.2.1,Win32,59.88023952,66fa4ebf79326e780c390304,,,,,,,,,,,,,,,,,,,,,325.4745,325.4746,325.477,326.2898,0,1,left,0.2853,,326.2928,326.2951,,1,,326.297,326.2986,,0,,0,326.2987,326.2987,326.3001,327.7885,0,45,45,45,1,0.2,0.8,0.8,0.2,1,0,,,,,,,,,,,,,,,,,,,,,,,,,,,,,,,,,,,,
,,5d251b0c86fe240017764b36,66fc97b13270de5129c40376,2024-10-02_01h46.03.545,mdp,2024.2.1,Win32,59.88023952,66fa4ebf79326e780c390304,,,,,,,,,,,,,,,,,,,,,327.7893,327.7894,327.7922,329.0086,1,1,right,0.6907,,329.0108,329.0123,,0,,329.0137,329.0152,,0,,0,329.0153,329.0153,329.0166,330.5194,0,46,46,46,1,0.2,0.8,0.8,0.2,1,0,,,,,,,,,,,,,,,,,,,,,,,,,,,,,,,,,,,,
,,5d251b0c86fe240017764b36,66fc97b13270de5129c40376,2024-10-02_01h46.03.545,mdp,2024.2.1,Win32,59.88023952,66fa4ebf79326e780c390304,,,,,,,,,,,,,,,,,,,,,330.5202,330.5202,330.5228,331.5683,1,0,right,0.5174,,331.5714,331.5731,,0,,331.5746,331.5757,,0,,1,331.5758,331.5758,331.5769,333.067,0,47,47,47,1,0.2,0.8,0.8,0.2,1,0,,,,,,,,,,,,,,,,,,,,,,,,,,,,,,,,,,,,
,,5d251b0c86fe240017764b36,66fc97b13270de5129c40376,2024-10-02_01h46.03.545,mdp,2024.2.1,Win32,59.88023952,66fa4ebf79326e780c390304,,,,,,,,,,,,,,,,,,,,,333.068,333.068,333.0706,334.8654,1,1,right,1.2638,,334.8682,334.8704,,0,,334.8724,334.8741,,1,,0,334.8742,334.8742,334.8755,336.3645,0,48,48,48,1,0.2,0.8,0.8,0.2,1,0,,,,,,,,,,,,,,,,,,,,,,,,,,,,,,,,,,,,
,,5d251b0c86fe240017764b36,66fc97b13270de5129c40376,2024-10-02_01h46.03.545,mdp,2024.2.1,Win32,59.88023952,66fa4ebf79326e780c390304,,,,,,,,,,,,,,,,,,,,,336.3652,336.3655,336.3676,337.796,1,0,right,0.8995,,337.7988,337.8005,,0,,337.8021,337.8036,,0,,1,337.8037,337.8037,337.805,339.2946,0,49,49,49,1,0.2,0.8,0.8,0.2,1,0,,,,,,,,,,,,,,,,,,,,,,,,,,,,,,,,,,,,
,,5d251b0c86fe240017764b36,66fc97b13270de5129c40376,2024-10-02_01h46.03.545,mdp,2024.2.1,Win32,59.88023952,66fa4ebf79326e780c390304,,,,,,,,,,,,,,,,,,,,,,,,,,,,,,,,,,,,,,,,,,,,,,,,,,,,,,,,339.2975,397.808,0,0,0,3,1,imgs/kangaroo.png,imgs/goat.png,imgs/rabbit.png,imgs/horse.png,imgs/pig.png,,,,,,,,,,,,,,,,,,,,,,,,
,,5d251b0c86fe240017764b36,66fc97b13270de5129c40376,2024-10-02_01h46.03.545,mdp,2024.2.1,Win32,59.88023952,66fa4ebf79326e780c390304,,,,,,,,,,,,,,2,seqs/st2seq6.csv,397.8333,400.2825,space,1.93,,400.2966,400.2966,400.2983,401.7046,0,1,left,0.8701,,401.7073,403.9811,0,0,left,404.0048,404.0064,,1,,1,404.0065,404.0066,404.0081,405.4997,0,0,0,0,1,0.8,0.2,0.6,0.4,,,,,,,,,,,,,,,1.7318,,0.6,0.4,0.6,0.4,0.4,0.6,0.4,0.6,1,0,,,,,,,,,,,,
,,5d251b0c86fe240017764b36,66fc97b13270de5129c40376,2024-10-02_01h46.03.545,mdp,2024.2.1,Win32,59.88023952,66fa4ebf79326e780c390304,,,,,,,,,,,,,,,,,,,,,405.5006,405.5007,405.5024,406.6491,0,0,left,0.6172,,406.6515,408.2972,1,0,right,408.3001,408.3018,,1,,1,408.3018,408.3019,408.3031,409.8033,0,1,1,1,1,0.8,0.2,0.6,0.4,,,,,,,,,,,,,,,1.107,,0.6,0.4,0.6,0.4,0.4,0.6,0.4,0.6,1,0,,,,,,,,,,,,
,,5d251b0c86fe240017764b36,66fc97b13270de5129c40376,2024-10-02_01h46.03.545,mdp,2024.2.1,Win32,59.88023952,66fa4ebf79326e780c390304,,,,,,,,,,,,,,,,,,,,,409.8042,409.8042,409.8059,411.2546,0,0,left,0.9172,,411.2568,412.9265,1,0,right,412.9288,412.9308,,0,,1,412.931,412.931,412.9322,414.4276,0,2,2,2,1,0.8,0.2,0.6,0.4,,,,,,,,,,,,,,,1.146,,0.6,0.4,0.6,0.4,0.4,0.6,0.4,0.6,1,0,,,,,,,,,,,,
,,5d251b0c86fe240017764b36,66fc97b13270de5129c40376,2024-10-02_01h46.03.545,mdp,2024.2.1,Win32,59.88023952,66fa4ebf79326e780c390304,,,,,,,,,,,,,,,,,,,,,414.4288,414.4289,414.4312,415.4211,0,0,left,0.4678,,415.4236,416.7396,1,0,right,416.7427,416.7453,,0,,1,416.7454,416.7455,416.7486,418.2251,0,3,3,3,1,0.8,0.2,0.6,0.4,,,,,,,,,,,,,,,0.7628,,0.6,0.4,0.6,0.4,0.4,0.6,0.4,0.6,1,0,,,,,,,,,,,,
,,5d251b0c86fe240017764b36,66fc97b13270de5129c40376,2024-10-02_01h46.03.545,mdp,2024.2.1,Win32,59.88023952,66fa4ebf79326e780c390304,,,,,,,,,,,,,,,,,,,,,418.2258,418.2259,418.228,419.2362,0,1,left,0.4611,,419.2386,420.8143,0,1,left,420.8168,420.8189,,1,,0,420.8191,420.8191,420.821,422.1613,0,4,4,4,1,0.8,0.2,0.6,0.4,,,,,,,,,,,,,,,1.0182,,0.6,0.4,0.6,0.4,0.4,0.6,0.4,0.6,1,0,,,,,,,,,,,,
,,5d251b0c86fe240017764b36,66fc97b13270de5129c40376,2024-10-02_01h46.03.545,mdp,2024.2.1,Win32,59.88023952,66fa4ebf79326e780c390304,,,,,,,,,,,,,,,,,,,,,422.1623,422.1623,422.1645,423.2304,0,0,left,0.5146,,423.2366,424.7839,1,1,right,424.7866,424.7882,,0,,0,424.7883,424.7883,424.7901,426.2869,0,5,5,5,1,0.4,0.6,0.8,0.2,,,,,,,,,,,,,,,1.0147,,0.6,0.4,0.6,0.4,0.4,0.6,0.4,0.6,1,0,,,,,,,,,,,,
,,5d251b0c86fe240017764b36,66fc97b13270de5129c40376,2024-10-02_01h46.03.545,mdp,2024.2.1,Win32,59.88023952,66fa4ebf79326e780c390304,,,,,,,,,,,,,,,,,,,,,426.2877,426.2878,426.2909,427.2518,0,1,left,0.4171,,427.2543,428.8631,0,0,left,428.8663,428.8682,,0,,1,428.8684,428.8684,428.8705,430.3675,0,6,6,6,1,0.4,0.6,0.8,0.2,,,,,,,,,,,,,,,1.0632,,0.6,0.4,0.6,0.4,0.6,0.4,0.6,0.4,1,0,,,,,,,,,,,,
,,5d251b0c86fe240017764b36,66fc97b13270de5129c40376,2024-10-02_01h46.03.545,mdp,2024.2.1,Win32,59.88023952,66fa4ebf79326e780c390304,,,,,,,,,,,,,,,,,,,,,430.3684,430.3684,430.3715,431.88,0,1,left,0.9849,,431.883,433.3481,0,1,left,433.3508,433.3525,,0,,0,433.3526,433.3527,433.3545,434.844,0,7,7,7,1,0.4,0.6,0.8,0.2,,,,,,,,,,,,,,,0.9306,,0.2,0.8,0.4,0.6,0.6,0.4,0.6,0.4,1,0,,,,,,,,,,,,
,,5d251b0c86fe240017764b36,66fc97b13270de5129c40376,2024-10-02_01h46.03.545,mdp,2024.2.1,Win32,59.88023952,66fa4ebf79326e780c390304,,,,,,,,,,,,,,,,,,,,,434.845,434.8451,434.8476,435.9257,0,0,left,0.5337,,435.9283,437.5582,1,0,right,437.5604,437.5622,,1,,1,437.5623,437.5624,437.5646,439.0651,0,8,8,8,1,0.4,0.6,0.8,0.2,,,,,,,,,,,,,,,1.075,,0.2,0.8,0.4,0.6,0.6,0.4,0.6,0.4,1,0,,,,,,,,,,,,
,,5d251b0c86fe240017764b36,66fc97b13270de5129c40376,2024-10-02_01h46.03.545,mdp,2024.2.1,Win32,59.88023952,66fa4ebf79326e780c390304,,,,,,,,,,,,,,,,,,,,,439.0658,439.0658,439.0678,443.5522,0,0,left,3.9519,,443.5792,444.8543,1,1,right,444.8561,444.8574,,0,,0,444.8574,444.8574,444.8586,446.3366,0,9,9,9,1,0.4,0.6,0.8,0.2,,,,,,,,,,,,,,,0.7795,,0.2,0.8,0.4,0.6,0.6,0.4,0.6,0.4,1,0,,,,,,,,,,,,
,,5d251b0c86fe240017764b36,66fc97b13270de5129c40376,2024-10-02_01h46.03.545,mdp,2024.2.1,Win32,59.88023952,66fa4ebf79326e780c390304,,,,,,,,,,,,,,,,,,,,,446.3376,446.3377,446.3402,447.2862,0,1,left,0.429,,447.2879,448.4438,0,0,left,448.4472,448.4485,,0,,1,448.4485,448.4486,448.45,449.9477,0,10,10,10,1,0.4,0.6,0.8,0.2,,,,,,,,,,,,,,,0.6055,,0.2,0.8,0.4,0.6,0.6,0.4,0.6,0.4,1,0,,,,,,,,,,,,
,,5d251b0c86fe240017764b36,66fc97b13270de5129c40376,2024-10-02_01h46.03.545,mdp,2024.2.1,Win32,59.88023952,66fa4ebf79326e780c390304,,,,,,,,,,,,,,,,,,,,,449.9487,449.9487,449.9506,451.1483,0,0,left,0.6659,,451.15,452.3649,0,1,left,452.3663,452.3673,,1,,0,452.3673,452.3673,452.3685,453.8556,0,11,11,11,1,0.4,0.6,0.8,0.2,,,,,,,,,,,,,,,0.6827,,0.2,0.8,0.4,0.6,0.6,0.4,0.6,0.4,1,0,,,,,,,,,,,,
,,5d251b0c86fe240017764b36,66fc97b13270de5129c40376,2024-10-02_01h46.03.545,mdp,2024.2.1,Win32,59.88023952,66fa4ebf79326e780c390304,,,,,,,,,,,,,,,,,,,,,453.8567,453.8568,453.8595,455.0706,0,1,left,0.6841,,455.0735,456.3359,1,0,right,456.3383,456.3398,,1,,1,456.3399,456.3399,456.341,457.834,0,12,12,12,1,0.4,0.6,0.8,0.2,,,,,,,,,,,,,,,0.7173,,0.2,0.8,0.4,0.6,0.6,0.4,0.6,0.4,1,0,,,,,,,,,,,,
,,5d251b0c86fe240017764b36,66fc97b13270de5129c40376,2024-10-02_01h46.03.545,mdp,2024.2.1,Win32,59.88023952,66fa4ebf79326e780c390304,,,,,,,,,,,,,,,,,,,,,457.8358,457.8358,457.8382,458.9331,0,0,left,0.5518,,458.9359,460.223,0,1,left,460.2254,460.2272,,1,,0,460.2273,460.2273,460.229,461.7309,0,13,13,13,1,0.4,0.6,0.8,0.2,,,,,,,,,,,,,,,0.7489,,0.2,0.8,0.4,0.6,0.6,0.4,0.6,0.4,1,0,,,,,,,,,,,,
,,5d251b0c86fe240017764b36,66fc97b13270de5129c40376,2024-10-02_01h46.03.545,mdp,2024.2.1,Win32,59.88023952,66fa4ebf79326e780c390304,,,,,,,,,,,,,,,,,,,,,461.7317,461.7319,461.7353,462.7878,1,1,right,0.5274,,462.7895,463.9063,0,0,left,463.9084,463.9111,,1,,1,463.9112,463.9113,463.9136,465.4217,0,14,14,14,1,0.4,0.6,0.8,0.2,,,,,,,,,,,,,,,0.5798,,0.2,0.8,0.4,0.6,0.6,0.4,0.6,0.4,1,0,,,,,,,,,,,,
,,5d251b0c86fe240017764b36,66fc97b13270de5129c40376,2024-10-02_01h46.03.545,mdp,2024.2.1,Win32,59.88023952,66fa4ebf79326e780c390304,,,,,,,,,,,,,,,,,,,,,465.4222,465.4222,465.4242,466.3442,1,0,right,0.4027,,466.3469,467.2596,0,1,left,467.2619,467.2635,,1,,0,467.2636,467.2636,467.2648,468.761,0,15,15,15,1,0.4,0.6,0.8,0.2,,,,,,,,,,,,,,,0.3723,,0.2,0.8,0.4,0.6,0.6,0.4,0.6,0.4,1,0,,,,,,,,,,,,
,,5d251b0c86fe240017764b36,66fc97b13270de5129c40376,2024-10-02_01h46.03.545,mdp,2024.2.1,Win32,59.88023952,66fa4ebf79326e780c390304,,,,,,,,,,,,,,,,,,,,,468.7617,468.7618,468.7635,469.7909,0,1,left,0.4902,,469.7935,470.8726,0,0,left,470.8759,470.8771,,1,,1,470.8773,470.8773,470.8783,472.3706,0,16,16,16,1,0.4,0.6,0.8,0.2,,,,,,,,,,,,,,,0.5389,,0.2,0.8,0.4,0.6,0.6,0.4,0.6,0.4,1,0,,,,,,,,,,,,
,,5d251b0c86fe240017764b36,66fc97b13270de5129c40376,2024-10-02_01h46.03.545,mdp,2024.2.1,Win32,59.88023952,66fa4ebf79326e780c390304,,,,,,,,,,,,,,,,,,,,,472.3716,472.3716,472.3749,473.553,0,1,left,0.6595,,473.5561,475.0364,0,0,left,475.0386,475.0396,,0,,1,475.0396,475.0396,475.0406,476.5331,0,17,17,17,1,0.4,0.6,0.8,0.2,,,,,,,,,,,,,,,0.9468,,0.2,0.8,0.4,0.6,0.6,0.4,0.6,0.4,1,0,,,,,,,,,,,,
,,5d251b0c86fe240017764b36,66fc97b13270de5129c40376,2024-10-02_01h46.03.545,mdp,2024.2.1,Win32,59.88023952,66fa4ebf79326e780c390304,,,,,,,,,,,,,,,,,,,,,476.5345,476.5345,476.5374,477.5829,0,1,left,0.5166,,477.5859,479.8308,1,1,right,479.8331,479.8345,,1,,0,479.8346,479.8346,479.8357,481.3298,0,18,18,18,1,0.4,0.6,0.8,0.2,,,,,,,,,,,,,,,1.6978,,0.2,0.8,0.4,0.6,0.6,0.4,0.6,0.4,1,0,,,,,,,,,,,,
,,5d251b0c86fe240017764b36,66fc97b13270de5129c40376,2024-10-02_01h46.03.545,mdp,2024.2.1,Win32,59.88023952,66fa4ebf79326e780c390304,,,,,,,,,,,,,,,,,,,,,481.3308,481.3309,481.3332,482.5456,0,1,left,0.6721,,482.5483,483.9672,0,0,left,483.9687,483.9698,,1,,1,483.9698,483.9698,483.9708,485.4594,0,19,19,19,1,0.4,0.6,0.8,0.2,,,,,,,,,,,,,,,0.8978,,0.2,0.8,0.4,0.6,0.6,0.4,0.6,0.4,1,0,,,,,,,,,,,,
,,5d251b0c86fe240017764b36,66fc97b13270de5129c40376,2024-10-02_01h46.03.545,mdp,2024.2.1,Win32,59.88023952,66fa4ebf79326e780c390304,,,,,,,,,,,,,,,,,,,,,485.4606,485.4606,485.4632,486.541,0,1,left,0.5433,,486.5433,487.907,0,0,left,487.9092,487.9105,,1,,1,487.9106,487.9106,487.9117,489.4053,0,20,20,20,1,0.4,0.6,0.8,0.2,,,,,,,,,,,,,,,0.8318,,0.2,0.8,0.4,0.6,0.6,0.4,0.6,0.4,1,0,,,,,,,,,,,,
,,5d251b0c86fe240017764b36,66fc97b13270de5129c40376,2024-10-02_01h46.03.545,mdp,2024.2.1,Win32,59.88023952,66fa4ebf79326e780c390304,,,,,,,,,,,,,,,,,,,,,489.4065,489.4065,489.4097,490.521,0,0,left,0.5837,,490.5239,491.7315,1,1,right,491.7336,491.7359,,0,,0,491.7361,491.7361,491.7385,493.2342,0,21,21,21,1,0.4,0.6,0.8,0.2,,,,,,,,,,,,,,,0.6703,,0.2,0.8,0.4,0.6,0.6,0.4,0.6,0.4,1,0,,,,,,,,,,,,
,,5d251b0c86fe240017764b36,66fc97b13270de5129c40376,2024-10-02_01h46.03.545,mdp,2024.2.1,Win32,59.88023952,66fa4ebf79326e780c390304,,,,,,,,,,,,,,,,,,,,,493.2354,493.2355,493.2382,494.1585,0,1,left,0.3976,,494.1602,495.4162,0,0,left,495.4192,495.4209,,0,,1,495.4211,495.4211,495.4228,496.9152,0,22,22,22,1,0.4,0.6,0.8,0.2,,,,,,,,,,,,,,,0.7207,,0.2,0.8,0.4,0.6,0.6,0.4,0.6,0.4,1,0,,,,,,,,,,,,
,,5d251b0c86fe240017764b36,66fc97b13270de5129c40376,2024-10-02_01h46.03.545,mdp,2024.2.1,Win32,59.88023952,66fa4ebf79326e780c390304,,,,,,,,,,,,,,,,,,,,,496.9159,496.9159,496.9184,498.0213,0,0,left,0.5772,,498.0229,498.9885,1,1,right,498.9902,498.9914,,1,,0,498.9915,498.9916,498.9928,500.5024,0,23,23,23,1,0.4,0.6,0.8,0.2,,,,,,,,,,,,,,,0.4201,,0.2,0.8,0.4,0.6,0.6,0.4,0.6,0.4,1,0,,,,,,,,,,,,
,,5d251b0c86fe240017764b36,66fc97b13270de5129c40376,2024-10-02_01h46.03.545,mdp,2024.2.1,Win32,59.88023952,66fa4ebf79326e780c390304,,,,,,,,,,,,,,,,,,,,,500.5029,500.5029,500.5047,501.5026,0,0,left,0.4674,,501.5045,502.6516,0,1,left,502.653,502.654,,1,,0,502.6541,502.6541,502.6552,504.1583,0,24,24,24,1,0.4,0.6,0.8,0.2,,,,,,,,,,,,,,,0.631,,0.2,0.8,0.4,0.6,0.6,0.4,0.6,0.4,1,0,,,,,,,,,,,,
,,5d251b0c86fe240017764b36,66fc97b13270de5129c40376,2024-10-02_01h46.03.545,mdp,2024.2.1,Win32,59.88023952,66fa4ebf79326e780c390304,,,,,,,,,,,,,,,,,,,,,504.1594,504.1594,504.1617,505.2247,1,0,right,0.5312,,505.2279,507.8418,1,0,right,507.8445,507.8462,,0,,1,507.8463,507.8463,507.8481,509.3395,0,25,25,25,1,0.4,0.6,0.8,0.2,,,,,,,,,,,,,,,2.093,,0.6,0.4,0.2,0.8,0.6,0.4,0.6,0.4,1,0,,,,,,,,,,,,
,,5d251b0c86fe240017764b36,66fc97b13270de5129c40376,2024-10-02_01h46.03.545,mdp,2024.2.1,Win32,59.88023952,66fa4ebf79326e780c390304,,,,,,,,,,,,,,,,,,,,,509.3404,509.3404,509.3426,510.4711,1,0,right,0.59,,510.473,512.9166,0,1,left,512.9189,512.9202,,0,,0,512.9203,512.9203,512.9214,514.4149,0,26,26,26,1,0.4,0.6,0.8,0.2,,,,,,,,,,,,,,,1.9206,,0.6,0.4,0.2,0.8,0.6,0.4,0.6,0.4,1,0,,,,,,,,,,,,
,,5d251b0c86fe240017764b36,66fc97b13270de5129c40376,2024-10-02_01h46.03.545,mdp,2024.2.1,Win32,59.88023952,66fa4ebf79326e780c390304,,,,,,,,,,,,,,,,,,,,,514.416,514.416,514.4192,515.4699,1,0,right,0.5146,,515.4737,516.7225,1,1,right,516.7244,516.7258,,1,,0,516.7258,516.7258,516.7272,518.2328,0,27,27,27,1,0.4,0.6,0.8,0.2,,,,,,,,,,,,,,,0.7315,,0.6,0.4,0.2,0.8,0.2,0.8,0.2,0.8,1,0,,,,,,,,,,,,
,,5d251b0c86fe240017764b36,66fc97b13270de5129c40376,2024-10-02_01h46.03.545,mdp,2024.2.1,Win32,59.88023952,66fa4ebf79326e780c390304,,,,,,,,,,,,,,,,,,,,,518.2333,518.2334,518.2357,519.3603,0,0,left,0.5818,,519.3628,520.7256,1,1,right,520.7284,520.7298,,1,,0,520.7298,520.7299,520.7311,522.2321,0,28,28,28,1,0.4,0.6,0.8,0.2,,,,,,,,,,,,,,,0.8493,,0.6,0.4,0.2,0.8,0.2,0.8,0.2,0.8,1,0,,,,,,,,,,,,
,,5d251b0c86fe240017764b36,66fc97b13270de5129c40376,2024-10-02_01h46.03.545,mdp,2024.2.1,Win32,59.88023952,66fa4ebf79326e780c390304,,,,,,,,,,,,,,,,,,,,,522.2327,522.2327,522.2342,523.1899,0,1,left,0.4414,,523.1927,525.3894,1,1,right,525.3913,525.3926,,1,,0,525.3926,525.3926,525.394,526.8858,0,29,29,29,1,0.4,0.6,0.8,0.2,,,,,,,,,,,,,,,1.653,,0.6,0.4,0.2,0.8,0.2,0.8,0.2,0.8,1,0,,,,,,,,,,,,
,,5d251b0c86fe240017764b36,66fc97b13270de5129c40376,2024-10-02_01h46.03.545,mdp,2024.2.1,Win32,59.88023952,66fa4ebf79326e780c390304,,,,,,,,,,,,,,,,,,,,,526.8867,526.8867,526.8893,528.0772,0,1,left,0.6624,,528.0794,530.3335,1,1,right,530.3368,530.339,,1,,0,530.3391,530.3391,530.341,531.8463,0,30,30,30,1,0.4,0.6,0.8,0.2,,,,,,,,,,,,,,,1.7194,,0.6,0.4,0.2,0.8,0.2,0.8,0.2,0.8,1,0,,,,,,,,,,,,
,,5d251b0c86fe240017764b36,66fc97b13270de5129c40376,2024-10-02_01h46.03.545,mdp,2024.2.1,Win32,59.88023952,66fa4ebf79326e780c390304,,,,,,,,,,,,,,,,,,,,,531.847,531.847,531.851,532.9818,0,1,left,0.6051,,532.9853,534.28,0,1,left,534.2832,534.2843,,1,,0,534.2845,534.2845,534.2856,535.7786,0,31,31,31,1,0.4,0.6,0.8,0.2,,,,,,,,,,,,,,,0.7546,,0.6,0.4,0.2,0.8,0.2,0.8,0.2,0.8,1,0,,,,,,,,,,,,
,,5d251b0c86fe240017764b36,66fc97b13270de5129c40376,2024-10-02_01h46.03.545,mdp,2024.2.1,Win32,59.88023952,66fa4ebf79326e780c390304,,,,,,,,,,,,,,,,,,,,,535.7813,535.7813,535.783,541.7508,0,1,left,5.4449,,541.7749,542.9219,0,1,left,542.9251,542.9267,,0,,0,542.9268,542.9268,542.9281,544.4201,0,32,32,32,1,0.4,0.6,0.8,0.2,,,,,,,,,,,,,,,0.655,,0.4,0.6,0.6,0.4,0.2,0.8,0.2,0.8,1,0,,,,,,,,,,,,
,,5d251b0c86fe240017764b36,66fc97b13270de5129c40376,2024-10-02_01h46.03.545,mdp,2024.2.1,Win32,59.88023952,66fa4ebf79326e780c390304,,,,,,,,,,,,,,,,,,,,,544.421,544.421,544.423,547.2561,1,0,right,2.2938,,547.2763,548.1916,0,1,left,548.194,548.1962,,0,,0,548.1963,548.1963,548.1979,549.6865,0,33,33,33,1,0.4,0.6,0.8,0.2,,,,,,,,,,,,,,,0.3977,,0.4,0.6,0.6,0.4,0.2,0.8,0.2,0.8,1,0,,,,,,,,,,,,
,,5d251b0c86fe240017764b36,66fc97b13270de5129c40376,2024-10-02_01h46.03.545,mdp,2024.2.1,Win32,59.88023952,66fa4ebf79326e780c390304,,,,,,,,,,,,,,,,,,,,,549.6881,549.6881,549.6899,550.7651,1,0,right,0.5355,,550.7678,551.9747,1,1,right,551.9762,551.9772,,1,,0,551.9773,551.9773,551.9788,553.4855,0,34,34,34,1,0.4,0.6,0.8,0.2,,,,,,,,,,,,,,,0.6862,,0.4,0.6,0.6,0.4,0.2,0.8,0.2,0.8,1,0,,,,,,,,,,,,
,,5d251b0c86fe240017764b36,66fc97b13270de5129c40376,2024-10-02_01h46.03.545,mdp,2024.2.1,Win32,59.88023952,66fa4ebf79326e780c390304,,,,,,,,,,,,,,,,,,,,,553.4861,553.4861,553.4877,555.1484,1,0,right,1.128,,555.1502,556.326,0,1,left,556.3288,556.3302,,1,,0,556.3302,556.3302,556.3313,557.8238,0,35,35,35,1,0.4,0.6,0.8,0.2,,,,,,,,,,,,,,,0.6373,,0.4,0.6,0.6,0.4,0.2,0.8,0.2,0.8,1,0,,,,,,,,,,,,
,,5d251b0c86fe240017764b36,66fc97b13270de5129c40376,2024-10-02_01h46.03.545,mdp,2024.2.1,Win32,59.88023952,66fa4ebf79326e780c390304,,,,,,,,,,,,,,,,,,,,,557.8249,557.8249,557.8271,558.9576,0,1,left,0.5916,,558.961,561.4885,0,1,left,561.4908,561.4919,,0,,0,561.492,561.492,561.493,562.9943,0,36,36,36,1,0.6,0.4,0.6,0.4,,,,,,,,,,,,,,,1.9823,,0.4,0.6,0.6,0.4,0.2,0.8,0.2,0.8,1,0,,,,,,,,,,,,
,,5d251b0c86fe240017764b36,66fc97b13270de5129c40376,2024-10-02_01h46.03.545,mdp,2024.2.1,Win32,59.88023952,66fa4ebf79326e780c390304,,,,,,,,,,,,,,,,,,,,,562.995,562.995,562.9966,563.9786,0,0,left,0.453,,563.9802,565.7251,0,1,left,565.7263,565.7273,,1,,0,565.7274,565.7274,565.7283,567.2229,0,37,37,37,1,0.6,0.4,0.6,0.4,,,,,,,,,,,,,,,1.2156,,0.4,0.6,0.6,0.4,0.2,0.8,0.2,0.8,1,0,,,,,,,,,,,,
,,5d251b0c86fe240017764b36,66fc97b13270de5129c40376,2024-10-02_01h46.03.545,mdp,2024.2.1,Win32,59.88023952,66fa4ebf79326e780c390304,,,,,,,,,,,,,,,,,,,,,567.2237,567.2237,567.2253,568.1895,0,0,left,0.4292,,568.1907,569.7383,1,0,right,569.7426,569.7437,,0,,1,569.7438,569.7438,569.7451,571.2454,0,38,38,38,1,0.6,0.4,0.6,0.4,,,,,,,,,,,,,,,1.017,,0.4,0.6,0.6,0.4,0.2,0.8,0.2,0.8,1,0,,,,,,,,,,,,
,,5d251b0c86fe240017764b36,66fc97b13270de5129c40376,2024-10-02_01h46.03.545,mdp,2024.2.1,Win32,59.88023952,66fa4ebf79326e780c390304,,,,,,,,,,,,,,,,,,,,,571.2463,571.2463,571.2488,572.2783,0,1,left,0.5003,,572.281,574.4872,1,0,right,574.4898,574.4921,,1,,1,574.4923,574.4923,574.4952,575.9911,0,39,39,39,1,0.6,0.4,0.6,0.4,,,,,,,,,,,,,,,1.6794,,0.4,0.6,0.6,0.4,0.2,0.8,0.2,0.8,1,0,,,,,,,,,,,,
,,5d251b0c86fe240017764b36,66fc97b13270de5129c40376,2024-10-02_01h46.03.545,mdp,2024.2.1,Win32,59.88023952,66fa4ebf79326e780c390304,,,,,,,,,,,,,,,,,,,,,575.9919,575.9919,575.9947,576.9139,0,1,left,0.3985,,576.9156,578.1894,1,1,right,578.1921,578.1932,,0,,0,578.1933,578.1933,578.1943,579.6877,0,40,40,40,1,0.8,0.2,0.2,0.8,,,,,,,,,,,,,,,0.7507,,0.4,0.6,0.6,0.4,0.2,0.8,0.2,0.8,1,0,,,,,,,,,,,,
,,5d251b0c86fe240017764b36,66fc97b13270de5129c40376,2024-10-02_01h46.03.545,mdp,2024.2.1,Win32,59.88023952,66fa4ebf79326e780c390304,,,,,,,,,,,,,,,,,,,,,579.6887,579.6887,579.692,580.6242,0,1,left,0.4126,,580.6258,581.8745,1,1,right,581.8763,581.8776,,1,,0,581.8777,581.8777,581.8791,583.3673,0,41,41,41,1,0.8,0.2,0.2,0.8,,,,,,,,,,,,,,,0.7292,,0.4,0.6,0.6,0.4,0.2,0.8,0.2,0.8,1,0,,,,,,,,,,,,
,,5d251b0c86fe240017764b36,66fc97b13270de5129c40376,2024-10-02_01h46.03.545,mdp,2024.2.1,Win32,59.88023952,66fa4ebf79326e780c390304,,,,,,,,,,,,,,,,,,,,,583.3682,583.3683,583.3703,584.3168,0,1,left,0.4092,,584.3201,585.5988,0,0,left,585.6014,585.6027,,1,,1,585.6028,585.6028,585.6041,587.0966,0,42,42,42,1,0.8,0.2,0.2,0.8,,,,,,,,,,,,,,,0.753,,0.4,0.6,0.6,0.4,0.2,0.8,0.2,0.8,1,0,,,,,,,,,,,,
,,5d251b0c86fe240017764b36,66fc97b13270de5129c40376,2024-10-02_01h46.03.545,mdp,2024.2.1,Win32,59.88023952,66fa4ebf79326e780c390304,,,,,,,,,,,,,,,,,,,,,587.0972,587.0972,587.0995,588.4122,0,1,left,0.7883,,588.4148,590.0276,1,0,right,590.0299,590.0311,,1,,1,590.0312,590.0312,590.0323,591.5258,0,43,43,43,1,0.8,0.2,0.2,0.8,,,,,,,,,,,,,,,1.09,,0.4,0.6,0.6,0.4,0.6,0.4,0.6,0.4,1,0,,,,,,,,,,,,
,,5d251b0c86fe240017764b36,66fc97b13270de5129c40376,2024-10-02_01h46.03.545,mdp,2024.2.1,Win32,59.88023952,66fa4ebf79326e780c390304,,,,,,,,,,,,,,,,,,,,,591.5264,591.5264,591.5283,592.5923,0,0,left,0.5331,,592.5946,594.2735,1,0,right,594.2763,594.2779,,1,,1,594.278,594.278,594.2795,595.7725,0,44,44,44,1,0.8,0.2,0.2,0.8,,,,,,,,,,,,,,,1.1371,,0.4,0.6,0.6,0.4,0.6,0.4,0.6,0.4,1,0,,,,,,,,,,,,
,,5d251b0c86fe240017764b36,66fc97b13270de5129c40376,2024-10-02_01h46.03.545,mdp,2024.2.1,Win32,59.88023952,66fa4ebf79326e780c390304,,,,,,,,,,,,,,,,,,,,,595.773,595.773,595.7755,596.7717,0,0,left,0.4673,,596.7736,597.8534,1,0,right,597.8561,597.8577,,0,,1,597.8578,597.8578,597.8591,599.3518,0,45,45,45,1,0.8,0.2,0.2,0.8,,,,,,,,,,,,,,,0.5484,,0.4,0.6,0.6,0.4,0.8,0.2,0.4,0.6,1,0,,,,,,,,,,,,
,,5d251b0c86fe240017764b36,66fc97b13270de5129c40376,2024-10-02_01h46.03.545,mdp,2024.2.1,Win32,59.88023952,66fa4ebf79326e780c390304,,,,,,,,,,,,,,,,,,,,,599.3524,599.3524,599.3553,600.2199,0,0,left,0.3413,,600.2223,601.267,1,1,right,601.2692,601.2707,,0,,0,601.2708,601.2708,601.2723,602.759,0,46,46,46,1,0.8,0.2,0.2,0.8,,,,,,,,,,,,,,,0.5182,,0.4,0.6,0.6,0.4,0.8,0.2,0.4,0.6,1,0,,,,,,,,,,,,
,,5d251b0c86fe240017764b36,66fc97b13270de5129c40376,2024-10-02_01h46.03.545,mdp,2024.2.1,Win32,59.88023952,66fa4ebf79326e780c390304,,,,,,,,,,,,,,,,,,,,,602.7598,602.7598,602.7616,603.6316,0,0,left,0.3374,,603.6355,604.5895,1,0,right,604.5912,604.5922,,1,,1,604.5922,604.5923,604.5933,606.0849,0,47,47,47,1,0.8,0.2,0.2,0.8,,,,,,,,,,,,,,,0.4416,,0.4,0.6,0.6,0.4,0.8,0.2,0.4,0.6,1,0,,,,,,,,,,,,
,,5d251b0c86fe240017764b36,66fc97b13270de5129c40376,2024-10-02_01h46.03.545,mdp,2024.2.1,Win32,59.88023952,66fa4ebf79326e780c390304,,,,,,,,,,,,,,,,,,,,,606.0855,606.0856,606.0873,606.963,0,0,left,0.3484,,606.9659,607.8778,1,0,right,607.8805,607.882,,0,,1,607.8821,607.8821,607.8832,609.3827,0,48,48,48,1,0.8,0.2,0.2,0.8,,,,,,,,,,,,,,,0.3858,,0.4,0.6,0.6,0.4,0.8,0.2,0.4,0.6,1,0,,,,,,,,,,,,
,,5d251b0c86fe240017764b36,66fc97b13270de5129c40376,2024-10-02_01h46.03.545,mdp,2024.2.1,Win32,59.88023952,66fa4ebf79326e780c390304,,,,,,,,,,,,,,,,,,,,,609.3831,609.3832,609.3848,610.2258,0,0,left,0.3107,,610.2285,611.3916,1,0,right,611.3938,611.3957,,1,,1,611.3957,611.3957,611.3974,612.8964,0,49,49,49,1,0.8,0.2,0.2,0.8,,,,,,,,,,,,,,,0.6351,,0.2,0.8,0.8,0.2,0.8,0.2,0.4,0.6,1,0,,,,,,,,,,,,
,,5d251b0c86fe240017764b36,66fc97b13270de5129c40376,2024-10-02_01h46.03.545,mdp,2024.2.1,Win32,59.88023952,66fa4ebf79326e780c390304,,,,,,,,,,,,,,,,,,,,,,,,,,,,,,,,,,,,,,,,,,,,,,,,,,,,,,,,612.8966,671.4107,0,1,1,1,1,imgs/kangaroo.png,imgs/lion.png,imgs/horse.png,imgs/rabbit.png,imgs/bear.png,,,,,,,,,,,,,,,,,,,,,,,,
,,5d251b0c86fe240017764b36,66fc97b13270de5129c40376,2024-10-02_01h46.03.545,mdp,2024.2.1,Win32,59.88023952,66fa4ebf79326e780c390304,,,,,,,,,,,,,,3,seqs/st3seq38.csv,671.4459,673.6274,space,1.6469,,673.662,673.6621,673.6867,676.6591,0,1,left,2.4821,,676.6616,677.8261,1,0,right,677.829,679.4138,1,0,right,1,679.4141,679.4141,679.4164,680.9098,0,0,0,0,1,0.2,0.8,0.6,0.4,,,,,,,,,,,,,,,0.6367,,0.2,0.8,0.4,0.6,0.6,0.4,0.4,0.6,,,1.0495,,0.2,0.8,0.6,0.4,0.6,0.4,0.2,0.8,1,0
,,5d251b0c86fe240017764b36,66fc97b13270de5129c40376,2024-10-02_01h46.03.545,mdp,2024.2.1,Win32,59.88023952,66fa4ebf79326e780c390304,,,,,,,,,,,,,,,,,,,,,680.9122,680.9122,680.9152,681.9253,0,1,left,0.4839,,681.9279,682.9989,1,1,right,683.0008,684.4735,0,0,left,1,684.4736,684.4736,684.4762,685.9679,0,1,1,1,1,0.2,0.8,0.6,0.4,,,,,,,,,,,,,,,0.548,,0.2,0.8,0.4,0.6,0.6,0.4,0.4,0.6,,,0.9222,,0.2,0.8,0.6,0.4,0.6,0.4,0.2,0.8,1,0
,,5d251b0c86fe240017764b36,66fc97b13270de5129c40376,2024-10-02_01h46.03.545,mdp,2024.2.1,Win32,59.88023952,66fa4ebf79326e780c390304,,,,,,,,,,,,,,,,,,,,,685.9687,685.9687,685.971,687.1704,0,1,left,0.6665,,687.1726,688.6817,1,1,right,688.6837,689.8847,0,1,left,0,689.8851,689.8852,689.8874,691.3881,0,2,2,2,1,0.2,0.8,0.6,0.4,,,,,,,,,,,,,,,0.9822,,0.2,0.8,0.4,0.6,0.6,0.4,0.4,0.6,,,0.6434,,0.2,0.8,0.6,0.4,0.6,0.4,0.2,0.8,1,0
,,5d251b0c86fe240017764b36,66fc97b13270de5129c40376,2024-10-02_01h46.03.545,mdp,2024.2.1,Win32,59.88023952,66fa4ebf79326e780c390304,,,,,,,,,,,,,,,,,,,,,691.389,691.3891,691.3911,692.3004,0,1,left,0.386,,692.3033,694.013,1,1,right,694.0156,695.2704,0,0,left,1,695.2705,695.2705,695.2725,696.7653,0,3,3,3,1,0.2,0.8,0.6,0.4,,,,,,,,,,,,,,,1.1721,,0.2,0.8,0.4,0.6,0.6,0.4,0.4,0.6,,,0.7254,,0.2,0.8,0.6,0.4,0.6,0.4,0.2,0.8,1,0
,,5d251b0c86fe240017764b36,66fc97b13270de5129c40376,2024-10-02_01h46.03.545,mdp,2024.2.1,Win32,59.88023952,66fa4ebf79326e780c390304,,,,,,,,,,,,,,,,,,,,,696.7664,696.7665,696.7686,697.8946,0,1,left,0.5919,,697.8968,699.1589,1,1,right,699.161,700.3596,1,1,right,0,700.3599,700.3599,700.3622,701.8619,0,4,4,4,1,0.2,0.8,0.6,0.4,,,,,,,,,,,,,,,0.7334,,0.2,0.8,0.4,0.6,0.6,0.4,0.4,0.6,,,0.6453,,0.2,0.8,0.6,0.4,0.6,0.4,0.2,0.8,1,0
,,5d251b0c86fe240017764b36,66fc97b13270de5129c40376,2024-10-02_01h46.03.545,mdp,2024.2.1,Win32,59.88023952,66fa4ebf79326e780c390304,,,,,,,,,,,,,,,,,,,,,701.8628,701.8628,701.8651,702.753,0,1,left,0.3669,,702.7551,704.411,1,1,right,704.4144,705.5264,1,1,right,0,705.5266,705.5267,705.5288,707.0184,0,5,5,5,1,0.2,0.8,0.6,0.4,,,,,,,,,,,,,,,1.1435,,0.2,0.8,0.4,0.6,0.6,0.4,0.4,0.6,,,0.5735,,0.2,0.8,0.6,0.4,0.6,0.4,0.2,0.8,1,0
,,5d251b0c86fe240017764b36,66fc97b13270de5129c40376,2024-10-02_01h46.03.545,mdp,2024.2.1,Win32,59.88023952,66fa4ebf79326e780c390304,,,,,,,,,,,,,,,,,,,,,707.02,707.0201,707.0238,707.9584,0,1,left,0.3942,,707.9608,708.9165,0,1,left,708.9186,710.0714,1,1,right,0,710.0716,710.0717,710.075,711.5639,0,6,6,6,1,0.2,0.8,0.6,0.4,,,,,,,,,,,,,,,0.4177,,0.2,0.8,0.4,0.6,0.6,0.4,0.4,0.6,,,0.6237,,0.2,0.8,0.6,0.4,0.6,0.4,0.2,0.8,1,0
,,5d251b0c86fe240017764b36,66fc97b13270de5129c40376,2024-10-02_01h46.03.545,mdp,2024.2.1,Win32,59.88023952,66fa4ebf79326e780c390304,,,,,,,,,,,,,,,,,,,,,711.5656,711.5656,711.5684,714.312,0,0,left,2.2278,,714.3359,716.7263,1,0,right,716.7289,718.1411,0,1,left,0,718.1413,718.1413,718.1435,719.6472,0,7,7,7,1,0.2,0.8,0.6,0.4,,,,,,,,,,,,,,,1.8646,,0.2,0.8,0.4,0.6,0.6,0.4,0.4,0.6,,,0.8707,,0.2,0.8,0.6,0.4,0.6,0.4,0.2,0.8,1,0
,,5d251b0c86fe240017764b36,66fc97b13270de5129c40376,2024-10-02_01h46.03.545,mdp,2024.2.1,Win32,59.88023952,66fa4ebf79326e780c390304,,,,,,,,,,,,,,,,,,,,,719.6479,719.6479,719.6496,720.623,0,1,left,0.4337,,720.6259,722.3054,1,1,right,722.308,723.6288,1,1,right,0,723.629,723.629,723.6309,725.1332,0,8,8,8,1,0.2,0.8,0.6,0.4,,,,,,,,,,,,,,,1.1339,,0.2,0.8,0.4,0.6,0.6,0.4,0.4,0.6,,,0.7809,,0.2,0.8,0.6,0.4,0.6,0.4,0.2,0.8,1,0
,,5d251b0c86fe240017764b36,66fc97b13270de5129c40376,2024-10-02_01h46.03.545,mdp,2024.2.1,Win32,59.88023952,66fa4ebf79326e780c390304,,,,,,,,,,,,,,,,,,,,,725.1347,725.1347,725.1396,726.5505,0,1,left,0.8906,,726.5528,727.5086,0,0,left,727.5106,728.3697,1,0,right,1,728.3699,728.3699,728.373,729.8637,0,9,9,9,1,0.2,0.8,0.6,0.4,,,,,,,,,,,,,,,0.4443,,0.2,0.8,0.4,0.6,0.6,0.4,0.4,0.6,,,0.3282,,0.2,0.8,0.6,0.4,0.6,0.4,0.2,0.8,1,0
,,5d251b0c86fe240017764b36,66fc97b13270de5129c40376,2024-10-02_01h46.03.545,mdp,2024.2.1,Win32,59.88023952,66fa4ebf79326e780c390304,,,,,,,,,,,,,,,,,,,,,729.8657,729.8658,729.8684,731.2795,0,1,left,0.8869,,731.2814,732.5781,0,0,left,732.5815,733.5611,1,1,right,0,733.5614,733.5614,733.564,735.059,0,10,10,10,1,0.2,0.8,0.6,0.4,,,,,,,,,,,,,,,0.7613,,0.2,0.8,0.4,0.6,0.6,0.4,0.4,0.6,,,0.4536,,0.2,0.8,0.6,0.4,0.6,0.4,0.2,0.8,1,0
,,5d251b0c86fe240017764b36,66fc97b13270de5129c40376,2024-10-02_01h46.03.545,mdp,2024.2.1,Win32,59.88023952,66fa4ebf79326e780c390304,,,,,,,,,,,,,,,,,,,,,735.0602,735.0602,735.0622,736.0087,0,1,left,0.4165,,736.0115,736.9579,1,1,right,736.9604,737.8565,1,1,right,0,737.8567,737.8568,737.86,739.3556,0,11,11,11,1,0.2,0.8,0.6,0.4,,,,,,,,,,,,,,,0.4069,,0.2,0.8,0.4,0.6,0.6,0.4,0.4,0.6,,,0.3486,,0.2,0.8,0.6,0.4,0.6,0.4,0.2,0.8,1,0
,,5d251b0c86fe240017764b36,66fc97b13270de5129c40376,2024-10-02_01h46.03.545,mdp,2024.2.1,Win32,59.88023952,66fa4ebf79326e780c390304,,,,,,,,,,,,,,,,,,,,,739.357,739.357,739.3593,740.5659,0,1,left,0.7017,,740.568,741.4368,1,1,right,741.44,742.2365,0,1,left,0,742.2369,742.237,742.2392,743.7348,0,12,12,12,1,0.2,0.8,0.6,0.4,,,,,,,,,,,,,,,0.3546,,0.2,0.8,0.4,0.6,0.6,0.4,0.4,0.6,,,0.272,,0.2,0.8,0.6,0.4,0.6,0.4,0.2,0.8,1,0
,,5d251b0c86fe240017764b36,66fc97b13270de5129c40376,2024-10-02_01h46.03.545,mdp,2024.2.1,Win32,59.88023952,66fa4ebf79326e780c390304,,,,,,,,,,,,,,,,,,,,,743.7358,743.7358,743.7382,744.6676,0,1,left,0.395,,744.6703,745.633,1,0,right,745.6358,746.4657,1,1,right,0,746.466,746.4662,746.4696,747.9637,0,13,13,13,1,0.2,0.8,0.6,0.4,,,,,,,,,,,,,,,0.4377,,0.2,0.8,0.4,0.6,0.6,0.4,0.4,0.6,,,0.2856,,0.2,0.8,0.6,0.4,0.6,0.4,0.2,0.8,1,0
,,5d251b0c86fe240017764b36,66fc97b13270de5129c40376,2024-10-02_01h46.03.545,mdp,2024.2.1,Win32,59.88023952,66fa4ebf79326e780c390304,,,,,,,,,,,,,,,,,,,,,747.9654,747.9654,747.968,752.6436,0,1,left,4.1519,,752.6654,753.5254,0,1,left,753.5286,754.3742,0,0,left,1,754.3746,754.3746,754.377,755.8735,0,14,14,14,1,0.2,0.8,0.6,0.4,,,,,,,,,,,,,,,0.3546,,0.2,0.8,0.4,0.6,0.6,0.4,0.4,0.6,,,0.2946,,0.2,0.8,0.6,0.4,0.6,0.4,0.2,0.8,1,0
,,5d251b0c86fe240017764b36,66fc97b13270de5129c40376,2024-10-02_01h46.03.545,mdp,2024.2.1,Win32,59.88023952,66fa4ebf79326e780c390304,,,,,,,,,,,,,,,,,,,,,755.875,755.875,755.8771,756.9129,0,1,left,0.5159,,756.9146,757.8292,0,1,left,757.831,758.7948,0,0,left,1,758.7949,758.7949,758.7965,760.2853,0,15,15,15,1,0.2,0.8,0.6,0.4,,,,,,,,,,,,,,,0.3993,,0.2,0.8,0.4,0.6,0.6,0.4,0.4,0.6,,,0.4336,,0.2,0.8,0.6,0.4,0.6,0.4,0.2,0.8,1,0
,,5d251b0c86fe240017764b36,66fc97b13270de5129c40376,2024-10-02_01h46.03.545,mdp,2024.2.1,Win32,59.88023952,66fa4ebf79326e780c390304,,,,,,,,,,,,,,,,,,,,,760.2865,760.2865,760.2889,761.3017,0,1,left,0.4884,,761.3055,762.2551,0,1,left,762.2568,763.1209,0,1,left,0,763.1209,763.1209,763.1225,764.6142,0,16,16,16,1,0.2,0.8,0.6,0.4,,,,,,,,,,,,,,,0.4302,,0.2,0.8,0.4,0.6,0.6,0.4,0.4,0.6,,,0.3308,,0.2,0.8,0.6,0.4,0.6,0.4,0.2,0.8,1,0
,,5d251b0c86fe240017764b36,66fc97b13270de5129c40376,2024-10-02_01h46.03.545,mdp,2024.2.1,Win32,59.88023952,66fa4ebf79326e780c390304,,,,,,,,,,,,,,,,,,,,,764.6151,764.6151,764.6174,765.5807,0,1,left,0.437,,765.5826,766.5297,0,1,left,766.5316,767.5622,1,0,right,1,767.5623,767.5624,767.5643,769.0643,0,17,17,17,1,0.2,0.8,0.6,0.4,,,,,,,,,,,,,,,0.4175,,0.2,0.8,0.4,0.6,0.6,0.4,0.4,0.6,,,0.5068,,0.2,0.8,0.6,0.4,0.6,0.4,0.2,0.8,1,0
,,5d251b0c86fe240017764b36,66fc97b13270de5129c40376,2024-10-02_01h46.03.545,mdp,2024.2.1,Win32,59.88023952,66fa4ebf79326e780c390304,,,,,,,,,,,,,,,,,,,,,769.0652,769.0652,769.0669,770.1607,0,1,left,0.5674,,770.1632,771.0325,0,0,left,771.034,771.8911,1,0,right,1,771.8913,771.8913,771.8931,773.3896,0,18,18,18,1,0.2,0.8,0.6,0.4,,,,,,,,,,,,,,,0.3608,,0.2,0.8,0.4,0.6,0.6,0.4,0.4,0.6,,,0.3095,,0.8,0.2,0.8,0.2,0.6,0.4,0.2,0.8,1,0
,,5d251b0c86fe240017764b36,66fc97b13270de5129c40376,2024-10-02_01h46.03.545,mdp,2024.2.1,Win32,59.88023952,66fa4ebf79326e780c390304,,,,,,,,,,,,,,,,,,,,,773.3905,773.3905,773.3924,774.4389,0,1,left,0.5154,,774.4407,775.3209,0,0,left,775.3248,776.1867,1,1,right,0,776.1868,776.1868,776.1886,777.6853,0,19,19,19,1,0.2,0.8,0.6,0.4,,,,,,,,,,,,,,,0.3521,,0.2,0.8,0.4,0.6,0.6,0.4,0.4,0.6,,,0.3367,,0.8,0.2,0.8,0.2,0.6,0.4,0.2,0.8,1,0
,,5d251b0c86fe240017764b36,66fc97b13270de5129c40376,2024-10-02_01h46.03.545,mdp,2024.2.1,Win32,59.88023952,66fa4ebf79326e780c390304,,,,,,,,,,,,,,,,,,,,,777.6876,777.6876,777.6898,778.5513,0,1,left,0.334,,778.5532,779.4843,0,0,left,779.4868,780.3668,1,0,right,1,780.367,780.367,780.3685,781.8648,0,20,20,20,1,0.2,0.8,0.6,0.4,,,,,,,,,,,,,,,0.4033,,0.2,0.8,0.4,0.6,0.6,0.4,0.4,0.6,,,0.3469,,0.8,0.2,0.8,0.2,0.6,0.4,0.2,0.8,1,0
,,5d251b0c86fe240017764b36,66fc97b13270de5129c40376,2024-10-02_01h46.03.545,mdp,2024.2.1,Win32,59.88023952,66fa4ebf79326e780c390304,,,,,,,,,,,,,,,,,,,,,781.8656,781.8656,781.8677,783.1477,0,1,left,0.749,,783.1495,784.5623,1,1,right,784.5642,785.6956,1,1,right,0,785.6959,785.6959,785.6979,787.1935,0,21,21,21,1,0.2,0.8,0.6,0.4,,,,,,,,,,,,,,,0.8833,,0.2,0.8,0.4,0.6,0.2,0.8,0.6,0.4,,,0.582,,0.8,0.2,0.8,0.2,0.6,0.4,0.2,0.8,1,0
,,5d251b0c86fe240017764b36,66fc97b13270de5129c40376,2024-10-02_01h46.03.545,mdp,2024.2.1,Win32,59.88023952,66fa4ebf79326e780c390304,,,,,,,,,,,,,,,,,,,,,787.1952,787.1952,787.1975,788.1431,0,0,left,0.4213,,788.1464,789.6255,1,1,right,789.6289,790.6407,1,1,right,0,790.6414,790.6414,790.6459,792.1396,0,22,22,22,1,0.2,0.8,0.6,0.4,,,,,,,,,,,,,,,0.9331,,0.2,0.8,0.4,0.6,0.2,0.8,0.6,0.4,,,0.4884,,0.8,0.2,0.8,0.2,0.6,0.4,0.2,0.8,1,0
,,5d251b0c86fe240017764b36,66fc97b13270de5129c40376,2024-10-02_01h46.03.545,mdp,2024.2.1,Win32,59.88023952,66fa4ebf79326e780c390304,,,,,,,,,,,,,,,,,,,,,792.1408,792.1408,792.143,793.0473,0,1,left,0.3847,,793.0493,794.055,1,0,right,794.0577,795.0037,0,0,left,1,795.0039,795.0039,795.0069,796.5014,0,23,23,23,1,0.2,0.8,0.6,0.4,,,,,,,,,,,,,,,0.4685,,0.2,0.8,0.4,0.6,0.2,0.8,0.6,0.4,,,0.4008,,0.8,0.2,0.8,0.2,0.8,0.2,0.8,0.2,1,0
,,5d251b0c86fe240017764b36,66fc97b13270de5129c40376,2024-10-02_01h46.03.545,mdp,2024.2.1,Win32,59.88023952,66fa4ebf79326e780c390304,,,,,,,,,,,,,,,,,,,,,796.5024,796.5024,796.5045,797.3354,0,1,left,0.3128,,797.3384,798.3241,1,0,right,798.326,799.1498,0,1,left,0,799.15,799.15,799.1521,800.6485,0,24,24,24,1,0.2,0.8,0.6,0.4,,,,,,,,,,,,,,,0.4504,,0.2,0.8,0.4,0.6,0.2,0.8,0.6,0.4,,,0.2917,,0.8,0.2,0.8,0.2,0.8,0.2,0.8,0.2,1,0
,,5d251b0c86fe240017764b36,66fc97b13270de5129c40376,2024-10-02_01h46.03.545,mdp,2024.2.1,Win32,59.88023952,66fa4ebf79326e780c390304,,,,,,,,,,,,,,,,,,,,,800.6498,800.6498,800.652,801.4804,0,1,left,0.286,,801.4831,802.4631,0,1,left,802.4665,803.3786,1,0,right,1,803.3787,803.3787,803.3811,804.8779,0,25,25,25,1,0.2,0.8,0.6,0.4,,,,,,,,,,,,,,,0.4633,,0.2,0.8,0.4,0.6,0.2,0.8,0.6,0.4,,,0.3756,,0.8,0.2,0.8,0.2,0.8,0.2,0.8,0.2,1,0
,,5d251b0c86fe240017764b36,66fc97b13270de5129c40376,2024-10-02_01h46.03.545,mdp,2024.2.1,Win32,59.88023952,66fa4ebf79326e780c390304,,,,,,,,,,,,,,,,,,,,,804.8789,804.8789,804.8809,805.7499,0,1,left,0.3484,,805.7516,806.6517,1,1,right,806.6567,807.4929,0,0,left,1,807.493,807.493,807.4956,808.9899,0,26,26,26,1,0.2,0.8,0.6,0.4,,,,,,,,,,,,,,,0.3797,,0.2,0.8,0.4,0.6,0.2,0.8,0.6,0.4,,,0.3238,,0.8,0.2,0.8,0.2,0.8,0.2,0.8,0.2,1,0
,,5d251b0c86fe240017764b36,66fc97b13270de5129c40376,2024-10-02_01h46.03.545,mdp,2024.2.1,Win32,59.88023952,66fa4ebf79326e780c390304,,,,,,,,,,,,,,,,,,,,,808.9917,808.9917,808.9956,809.8237,0,1,left,0.2843,,809.8263,810.7895,1,1,right,810.7919,811.738,0,0,left,1,811.7382,811.7383,811.7406,813.2363,0,27,27,27,1,0.2,0.8,0.6,0.4,,,,,,,,,,,,,,,0.4348,,0.2,0.8,0.4,0.6,0.2,0.8,0.6,0.4,,,0.417,,0.8,0.2,0.8,0.2,0.8,0.2,0.8,0.2,1,0
,,5d251b0c86fe240017764b36,66fc97b13270de5129c40376,2024-10-02_01h46.03.545,mdp,2024.2.1,Win32,59.88023952,66fa4ebf79326e780c390304,,,,,,,,,,,,,,,,,,,,,813.2371,813.2371,813.2393,814.0864,0,1,left,0.3172,,814.0891,815.0183,1,0,right,815.0214,815.8174,0,0,left,1,815.8176,815.8176,815.8202,817.3153,0,28,28,28,1,0.2,0.8,0.6,0.4,,,,,,,,,,,,,,,0.3833,,0.2,0.8,0.4,0.6,0.2,0.8,0.6,0.4,,,0.2663,,0.8,0.2,0.8,0.2,0.8,0.2,0.8,0.2,1,0
,,5d251b0c86fe240017764b36,66fc97b13270de5129c40376,2024-10-02_01h46.03.545,mdp,2024.2.1,Win32,59.88023952,66fa4ebf79326e780c390304,,,,,,,,,,,,,,,,,,,,,817.316,817.316,817.3175,818.1809,0,1,left,0.3361,,818.1827,819.2965,1,0,right,819.2983,820.1625,0,1,left,0,820.1626,820.1626,820.1642,821.661,0,29,29,29,1,0.2,0.8,0.6,0.4,,,,,,,,,,,,,,,0.5826,,0.2,0.8,0.4,0.6,0.2,0.8,0.6,0.4,,,0.3333,,0.8,0.2,0.8,0.2,0.8,0.2,0.8,0.2,1,0
,,5d251b0c86fe240017764b36,66fc97b13270de5129c40376,2024-10-02_01h46.03.545,mdp,2024.2.1,Win32,59.88023952,66fa4ebf79326e780c390304,,,,,,,,,,,,,,,,,,,,,821.6616,821.6616,821.6636,822.4604,0,1,left,0.2681,,822.4621,823.3602,1,0,right,823.3632,824.1438,0,0,left,1,824.1439,824.1443,824.147,825.6414,0,30,30,30,1,0.2,0.8,0.6,0.4,,,,,,,,,,,,,,,0.3664,,0.2,0.8,0.4,0.6,0.2,0.8,0.6,0.4,,,0.2464,,0.8,0.2,0.8,0.2,0.8,0.2,0.8,0.2,1,0
,,5d251b0c86fe240017764b36,66fc97b13270de5129c40376,2024-10-02_01h46.03.545,mdp,2024.2.1,Win32,59.88023952,66fa4ebf79326e780c390304,,,,,,,,,,,,,,,,,,,,,825.6427,825.6427,825.6453,826.4579,0,1,left,0.3021,,826.4602,827.4105,0,1,left,827.412,828.2791,1,0,right,1,828.2793,828.2793,828.2808,829.7712,0,31,31,31,1,0.2,0.8,0.6,0.4,,,,,,,,,,,,,,,0.4124,,0.2,0.8,0.4,0.6,0.2,0.8,0.6,0.4,,,0.3329,,0.8,0.2,0.8,0.2,0.8,0.2,0.8,0.2,1,0
,,5d251b0c86fe240017764b36,66fc97b13270de5129c40376,2024-10-02_01h46.03.545,mdp,2024.2.1,Win32,59.88023952,66fa4ebf79326e780c390304,,,,,,,,,,,,,,,,,,,,,829.7726,829.7727,829.7753,830.6532,0,1,left,0.3414,,830.6569,831.5208,1,1,right,831.5228,832.4083,0,0,left,1,832.4085,832.4085,832.4099,833.8999,0,32,32,32,1,0.2,0.8,0.6,0.4,,,,,,,,,,,,,,,0.3337,,0.2,0.8,0.4,0.6,0.2,0.8,0.6,0.4,,,0.3639,,0.2,0.8,0.4,0.6,0.8,0.2,0.8,0.2,1,0
,,5d251b0c86fe240017764b36,66fc97b13270de5129c40376,2024-10-02_01h46.03.545,mdp,2024.2.1,Win32,59.88023952,66fa4ebf79326e780c390304,,,,,,,,,,,,,,,,,,,,,833.9011,833.9011,833.9041,834.7998,0,1,left,0.3692,,834.802,835.6658,1,0,right,835.6681,836.6146,0,1,left,0,836.6151,836.6151,836.6177,838.1138,0,33,33,33,1,0.2,0.8,0.6,0.4,,,,,,,,,,,,,,,0.3372,,0.2,0.8,0.4,0.6,0.2,0.8,0.6,0.4,,,0.3935,,0.2,0.8,0.4,0.6,0.8,0.2,0.8,0.2,1,0
,,5d251b0c86fe240017764b36,66fc97b13270de5129c40376,2024-10-02_01h46.03.545,mdp,2024.2.1,Win32,59.88023952,66fa4ebf79326e780c390304,,,,,,,,,,,,,,,,,,,,,838.1147,838.115,838.1174,839.0026,0,1,left,0.3666,,839.0042,839.9289,1,0,right,839.9311,840.8273,0,1,left,0,840.8274,840.8274,840.8299,842.3322,0,34,34,34,1,0.2,0.8,0.6,0.4,,,,,,,,,,,,,,,0.3995,,0.2,0.8,0.4,0.6,0.2,0.8,0.6,0.4,,,0.3753,,0.2,0.8,0.4,0.6,0.8,0.2,0.8,0.2,1,0
,,5d251b0c86fe240017764b36,66fc97b13270de5129c40376,2024-10-02_01h46.03.545,mdp,2024.2.1,Win32,59.88023952,66fa4ebf79326e780c390304,,,,,,,,,,,,,,,,,,,,,842.3329,842.3329,842.3346,843.2087,1,1,right,0.3452,,843.2112,844.1143,1,0,right,844.1172,844.9569,0,1,left,0,844.9573,844.9573,844.9594,846.4558,0,35,35,35,1,0.2,0.8,0.6,0.4,,,,,,,,,,,,,,,0.3818,,0.2,0.8,0.4,0.6,0.2,0.8,0.6,0.4,,,0.302,,0.2,0.8,0.4,0.6,0.8,0.2,0.8,0.2,1,0
,,5d251b0c86fe240017764b36,66fc97b13270de5129c40376,2024-10-02_01h46.03.545,mdp,2024.2.1,Win32,59.88023952,66fa4ebf79326e780c390304,,,,,,,,,,,,,,,,,,,,,846.4568,846.4568,846.4594,847.4215,0,0,left,0.4398,,847.4253,848.3443,1,1,right,848.3463,849.1687,1,0,right,1,849.1688,849.1688,849.1712,850.6575,0,36,36,36,1,0.2,0.8,0.6,0.4,,,,,,,,,,,,,,,0.3809,,0.2,0.8,0.4,0.6,0.2,0.8,0.6,0.4,,,0.2799,,0.2,0.8,0.4,0.6,0.8,0.2,0.8,0.2,1,0
,,5d251b0c86fe240017764b36,66fc97b13270de5129c40376,2024-10-02_01h46.03.545,mdp,2024.2.1,Win32,59.88023952,66fa4ebf79326e780c390304,,,,,,,,,,,,,,,,,,,,,850.6581,850.6582,850.6601,851.5346,0,1,left,0.3652,,851.5375,852.3826,1,0,right,852.3857,853.2513,1,1,right,0,853.2515,853.2515,853.2536,854.7301,0,37,37,37,1,0.2,0.8,0.6,0.4,,,,,,,,,,,,,,,0.3153,,0.2,0.8,0.4,0.6,0.2,0.8,0.6,0.4,,,0.3174,,0.2,0.8,0.4,0.6,0.8,0.2,0.8,0.2,1,0
,,5d251b0c86fe240017764b36,66fc97b13270de5129c40376,2024-10-02_01h46.03.545,mdp,2024.2.1,Win32,59.88023952,66fa4ebf79326e780c390304,,,,,,,,,,,,,,,,,,,,,854.7315,854.7316,854.7337,855.5782,0,1,left,0.3242,,855.5838,856.631,0,1,left,856.6331,857.4573,1,1,right,0,857.4574,857.4575,857.46,858.9455,0,38,38,38,1,0.2,0.8,0.6,0.4,,,,,,,,,,,,,,,0.5234,,0.2,0.8,0.4,0.6,0.2,0.8,0.6,0.4,,,0.2894,,0.2,0.8,0.4,0.6,0.8,0.2,0.8,0.2,1,0
,,5d251b0c86fe240017764b36,66fc97b13270de5129c40376,2024-10-02_01h46.03.545,mdp,2024.2.1,Win32,59.88023952,66fa4ebf79326e780c390304,,,,,,,,,,,,,,,,,,,,,858.9467,858.9467,858.9506,859.7768,0,1,left,0.2848,,859.7792,860.776,1,0,right,860.7786,861.6253,0,1,left,0,861.6256,861.6257,861.628,863.1225,0,39,39,39,1,0.2,0.8,0.6,0.4,,,,,,,,,,,,,,,0.4609,,0.2,0.8,0.4,0.6,0.2,0.8,0.6,0.4,,,0.2994,,0.2,0.8,0.4,0.6,0.8,0.2,0.8,0.2,1,0
,,5d251b0c86fe240017764b36,66fc97b13270de5129c40376,2024-10-02_01h46.03.545,mdp,2024.2.1,Win32,59.88023952,66fa4ebf79326e780c390304,,,,,,,,,,,,,,,,,,,,,863.1237,863.1237,863.1262,864.0054,0,0,left,0.3398,,864.0089,864.8562,1,0,right,864.8588,865.7582,0,1,left,0,865.7583,865.7583,865.76,867.2528,0,40,40,40,1,0.2,0.8,0.6,0.4,,,,,,,,,,,,,,,0.3075,,0.2,0.8,0.4,0.6,0.2,0.8,0.6,0.4,,,0.3674,,0.2,0.8,0.4,0.6,0.8,0.2,0.8,0.2,1,0
,,5d251b0c86fe240017764b36,66fc97b13270de5129c40376,2024-10-02_01h46.03.545,mdp,2024.2.1,Win32,59.88023952,66fa4ebf79326e780c390304,,,,,,,,,,,,,,,,,,,,,867.2536,867.2536,867.2565,868.1852,0,0,left,0.4032,,868.1883,869.058,1,1,right,869.0596,869.9167,1,0,right,1,869.917,869.917,869.9191,871.4053,0,41,41,41,1,0.2,0.8,0.6,0.4,,,,,,,,,,,,,,,0.3475,,0.2,0.8,0.4,0.6,0.2,0.8,0.6,0.4,,,0.32,,0.2,0.8,0.4,0.6,0.8,0.2,0.8,0.2,1,0
,,5d251b0c86fe240017764b36,66fc97b13270de5129c40376,2024-10-02_01h46.03.545,mdp,2024.2.1,Win32,59.88023952,66fa4ebf79326e780c390304,,,,,,,,,,,,,,,,,,,,,871.4059,871.4059,871.4076,872.2478,0,1,left,0.3231,,872.2508,873.2642,0,1,left,873.2672,874.1133,1,0,right,1,874.1135,874.1135,874.1164,875.6116,0,42,42,42,1,0.2,0.8,0.6,0.4,,,,,,,,,,,,,,,0.464,,0.2,0.8,0.4,0.6,0.2,0.8,0.6,0.4,,,0.3164,,0.2,0.8,0.4,0.6,0.8,0.2,0.8,0.2,1,0
,,5d251b0c86fe240017764b36,66fc97b13270de5129c40376,2024-10-02_01h46.03.545,mdp,2024.2.1,Win32,59.88023952,66fa4ebf79326e780c390304,,,,,,,,,,,,,,,,,,,,,875.6128,875.6129,875.6154,876.5281,0,0,left,0.4019,,876.5306,877.8933,1,1,right,877.8964,878.7756,1,0,right,1,878.7758,878.7758,878.7781,880.2772,0,43,43,43,1,0.2,0.8,0.6,0.4,,,,,,,,,,,,,,,0.8232,,0.2,0.8,0.4,0.6,0.2,0.8,0.6,0.4,,,0.3502,,0.2,0.8,0.4,0.6,0.8,0.2,0.8,0.2,1,0
,,5d251b0c86fe240017764b36,66fc97b13270de5129c40376,2024-10-02_01h46.03.545,mdp,2024.2.1,Win32,59.88023952,66fa4ebf79326e780c390304,,,,,,,,,,,,,,,,,,,,,880.2779,880.2779,880.2797,881.1896,0,1,left,0.3723,,881.192,882.0721,1,0,right,882.0757,883.052,1,1,right,0,883.052,883.052,883.0551,884.5525,0,44,44,44,1,0.2,0.8,0.6,0.4,,,,,,,,,,,,,,,0.3403,,0.2,0.8,0.4,0.6,0.2,0.8,0.6,0.4,,,0.4394,,0.2,0.8,0.4,0.6,0.8,0.2,0.8,0.2,1,0
,,5d251b0c86fe240017764b36,66fc97b13270de5129c40376,2024-10-02_01h46.03.545,mdp,2024.2.1,Win32,59.88023952,66fa4ebf79326e780c390304,,,,,,,,,,,,,,,,,,,,,884.5538,884.5538,884.5568,885.5017,0,1,left,0.4178,,885.5043,886.684,0,1,left,886.6872,887.6519,1,0,right,1,887.652,887.652,887.6547,889.1482,0,45,45,45,1,0.2,0.8,0.6,0.4,,,,,,,,,,,,,,,0.6547,,0.2,0.8,0.4,0.6,0.2,0.8,0.6,0.4,,,0.4387,,0.2,0.8,0.4,0.6,0.8,0.2,0.8,0.2,1,0
,,5d251b0c86fe240017764b36,66fc97b13270de5129c40376,2024-10-02_01h46.03.545,mdp,2024.2.1,Win32,59.88023952,66fa4ebf79326e780c390304,,,,,,,,,,,,,,,,,,,,,889.1497,889.1497,889.1519,890.0148,0,1,left,0.334,,890.0185,890.8637,1,0,right,890.867,891.6966,0,1,left,0,891.6967,891.6968,891.7004,893.1954,0,46,46,46,1,0.2,0.8,0.6,0.4,,,,,,,,,,,,,,,0.3194,,0.2,0.8,0.4,0.6,0.2,0.8,0.6,0.4,,,0.2831,,0.2,0.8,0.4,0.6,0.8,0.2,0.8,0.2,1,0
,,5d251b0c86fe240017764b36,66fc97b13270de5129c40376,2024-10-02_01h46.03.545,mdp,2024.2.1,Win32,59.88023952,66fa4ebf79326e780c390304,,,,,,,,,,,,,,,,,,,,,893.1967,893.1967,893.199,894.0859,0,1,left,0.3659,,894.0877,894.96,1,1,right,894.9628,895.8377,1,0,right,1,895.8378,895.8378,895.8395,897.3454,0,47,47,47,1,0.2,0.8,0.6,0.4,,,,,,,,,,,,,,,0.3529,,0.2,0.8,0.4,0.6,0.2,0.8,0.6,0.4,,,0.3337,,0.2,0.8,0.4,0.6,0.8,0.2,0.8,0.2,1,0
,,5d251b0c86fe240017764b36,66fc97b13270de5129c40376,2024-10-02_01h46.03.545,mdp,2024.2.1,Win32,59.88023952,66fa4ebf79326e780c390304,,,,,,,,,,,,,,,,,,,,,897.346,897.3461,897.3479,898.3571,0,1,left,0.4709,,898.3596,899.2787,1,0,right,899.2812,900.181,0,1,left,0,900.1813,900.1813,900.1843,901.6776,0,48,48,48,1,0.2,0.8,0.6,0.4,,,,,,,,,,,,,,,0.3903,,0.2,0.8,0.4,0.6,0.2,0.8,0.6,0.4,,,0.3483,,0.2,0.8,0.4,0.6,0.8,0.2,0.8,0.2,1,0
,,5d251b0c86fe240017764b36,66fc97b13270de5129c40376,2024-10-02_01h46.03.545,mdp,2024.2.1,Win32,59.88023952,66fa4ebf79326e780c390304,,,,,,,,,,,,,,,,,,,,,901.6791,901.6791,901.6817,902.6451,1,1,right,0.3924,,902.6482,903.4607,0,0,left,903.4631,904.3188,1,1,right,0,904.319,904.319,904.3221,905.8234,0,49,49,49,1,0.2,0.8,0.6,0.4,,,,,,,,,,,,,,,0.2769,,0.2,0.8,0.4,0.6,0.2,0.8,0.6,0.4,,,0.3129,,0.2,0.8,0.4,0.6,0.8,0.2,0.8,0.2,1,0
,,5d251b0c86fe240017764b36,66fc97b13270de5129c40376,2024-10-02_01h46.03.545,mdp,2024.2.1,Win32,59.88023952,66fa4ebf79326e780c390304,,,,,,,,,,,,,,,,,,,,,,,,,,,,,,,,,,,,,,,,,,,,,,,,,,,,,,,,905.8242,964.3364,0,2,2,2,1,imgs/kangaroo.png,imgs/bear.png,imgs/giraffe.png,imgs/cat.png,imgs/elephant.png,,,,,,,,,,,,,,,,,,,,,,,,
,,5d251b0c86fe240017764b36,66fc97b13270de5129c40376,2024-10-02_01h46.03.545,mdp,2024.2.1,Win32,59.88023952,66fa4ebf79326e780c390304,,,,,,,,,,,,,,3,seqs/st3seq49.csv,964.371,973.4985,space,8.6074,,973.5935,973.5935,973.5966,976.8665,0,1,left,2.723,,976.8887,977.8992,1,0,right,977.902,978.8818,1,1,right,0,978.8819,978.8819,978.8845,980.3802,0,0,0,0,1,0.2,0.8,0.6,0.4,,,,,,,,,,,,,,,0.4889,,0.6,0.4,0.6,0.4,0.2,0.8,0.6,0.4,,,0.4331,,0.2,0.8,0.2,0.8,0.6,0.4,0.2,0.8,1,0
,,5d251b0c86fe240017764b36,66fc97b13270de5129c40376,2024-10-02_01h46.03.545,mdp,2024.2.1,Win32,59.88023952,66fa4ebf79326e780c390304,,,,,,,,,,,,,,,,,,,,,980.3811,980.3812,980.3837,981.8455,0,1,left,0.9516,,981.8491,982.662,0,1,left,982.6648,983.4611,1,1,right,0,983.4613,983.4613,983.4643,984.96,0,1,1,1,1,0.2,0.8,0.6,0.4,,,,,,,,,,,,,,,0.2794,,0.6,0.4,0.6,0.4,0.2,0.8,0.6,0.4,,,0.2496,,0.2,0.8,0.2,0.8,0.6,0.4,0.2,0.8,1,0
,,5d251b0c86fe240017764b36,66fc97b13270de5129c40376,2024-10-02_01h46.03.545,mdp,2024.2.1,Win32,59.88023952,66fa4ebf79326e780c390304,,,,,,,,,,,,,,,,,,,,,984.9619,984.9619,984.9637,985.7919,0,1,left,0.3011,,985.7952,986.6014,1,0,right,986.6034,987.3742,0,1,left,0,987.3746,987.3746,987.3772,988.8718,0,2,2,2,1,0.2,0.8,0.6,0.4,,,,,,,,,,,,,,,0.2853,,0.6,0.4,0.6,0.4,0.4,0.6,0.2,0.8,,,0.2338,,0.2,0.8,0.2,0.8,0.6,0.4,0.2,0.8,1,0
,,5d251b0c86fe240017764b36,66fc97b13270de5129c40376,2024-10-02_01h46.03.545,mdp,2024.2.1,Win32,59.88023952,66fa4ebf79326e780c390304,,,,,,,,,,,,,,,,,,,,,988.8727,988.8727,988.8751,989.7714,0,1,left,0.3669,,989.7747,991.2437,1,1,right,991.2453,992.0031,1,1,right,0,992.0033,992.0033,992.0063,993.5096,0,3,3,3,1,0.2,0.8,0.6,0.4,,,,,,,,,,,,,,,0.9481,,0.6,0.4,0.6,0.4,0.4,0.6,0.2,0.8,,,0.2185,,0.2,0.8,0.2,0.8,0.6,0.4,0.2,0.8,1,0
,,5d251b0c86fe240017764b36,66fc97b13270de5129c40376,2024-10-02_01h46.03.545,mdp,2024.2.1,Win32,59.88023952,66fa4ebf79326e780c390304,,,,,,,,,,,,,,,,,,,,,993.5103,993.5103,993.5123,994.3252,0,1,left,0.2992,,994.3271,995.1175,1,1,right,995.1195,995.9164,0,0,left,1,995.9165,995.9165,995.9189,997.4147,0,4,4,4,1,0.2,0.8,0.6,0.4,,,,,,,,,,,,,,,0.2749,,0.6,0.4,0.6,0.4,0.4,0.6,0.2,0.8,,,0.264,,0.2,0.8,0.2,0.8,0.6,0.4,0.2,0.8,1,0
,,5d251b0c86fe240017764b36,66fc97b13270de5129c40376,2024-10-02_01h46.03.545,mdp,2024.2.1,Win32,59.88023952,66fa4ebf79326e780c390304,,,,,,,,,,,,,,,,,,,,,997.4163,997.4163,997.4186,998.2152,0,1,left,0.2783,,998.2177,999.0183,1,1,right,999.0205,999.8294,0,0,left,1,999.8297,999.8297,999.8323,1001.3268,0,5,5,5,1,0.2,0.8,0.6,0.4,,,,,,,,,,,,,,,0.2677,,0.6,0.4,0.6,0.4,0.4,0.6,0.2,0.8,,,0.2808,,0.2,0.8,0.2,0.8,0.6,0.4,0.2,0.8,1,0
,,5d251b0c86fe240017764b36,66fc97b13270de5129c40376,2024-10-02_01h46.03.545,mdp,2024.2.1,Win32,59.88023952,66fa4ebf79326e780c390304,,,,,,,,,,,,,,,,,,,,,1001.3278,1001.3278,1001.33,1002.1267,0,1,left,0.2617,,1002.1291,1002.917,1,1,right,1002.9186,1003.6533,0,1,left,0,1003.6534,1003.6534,1003.6556,1005.1569,0,6,6,6,1,0.2,0.8,0.6,0.4,,,,,,,,,,,,,,,0.2505,,0.6,0.4,0.6,0.4,0.4,0.6,0.2,0.8,,,0.2031,,0.2,0.8,0.2,0.8,0.6,0.4,0.2,0.8,1,0
,,5d251b0c86fe240017764b36,66fc97b13270de5129c40376,2024-10-02_01h46.03.545,mdp,2024.2.1,Win32,59.88023952,66fa4ebf79326e780c390304,,,,,,,,,,,,,,,,,,,,,1005.1583,1005.1583,1005.1606,1005.9898,0,1,left,0.3021,,1005.9933,1006.8221,1,1,right,1006.8251,1007.6639,0,1,left,0,1007.6641,1007.6641,1007.6658,1009.1535,0,7,7,7,1,0.2,0.8,0.6,0.4,,,,,,,,,,,,,,,0.3161,,0.6,0.4,0.6,0.4,0.4,0.6,0.2,0.8,,,0.3177,,0.2,0.8,0.2,0.8,0.6,0.4,0.2,0.8,1,0
,,5d251b0c86fe240017764b36,66fc97b13270de5129c40376,2024-10-02_01h46.03.545,mdp,2024.2.1,Win32,59.88023952,66fa4ebf79326e780c390304,,,,,,,,,,,,,,,,,,,,,1009.1553,1009.1554,1009.1582,1010.02,0,0,left,0.3385,,1010.0224,1010.8355,1,0,right,1010.838,1011.6232,1,1,right,0,1011.6233,1011.6233,1011.6254,1013.116,0,8,8,8,1,0.2,0.8,0.6,0.4,,,,,,,,,,,,,,,0.2676,,0.6,0.4,0.6,0.4,0.4,0.6,0.2,0.8,,,0.2594,,0.2,0.8,0.2,0.8,0.6,0.4,0.2,0.8,1,0
,,5d251b0c86fe240017764b36,66fc97b13270de5129c40376,2024-10-02_01h46.03.545,mdp,2024.2.1,Win32,59.88023952,66fa4ebf79326e780c390304,,,,,,,,,,,,,,,,,,,,,1013.117,1013.1171,1013.1196,1014.1323,1,0,right,0.4898,,1014.135,1014.9809,0,0,left,1014.9833,1015.7355,0,1,left,0,1015.7355,1015.7355,1015.7374,1017.2287,0,9,9,9,1,0.2,0.8,0.6,0.4,,,,,,,,,,,,,,,0.3326,,0.6,0.4,0.6,0.4,0.4,0.6,0.2,0.8,,,0.241,,0.2,0.8,0.2,0.8,0.6,0.4,0.2,0.8,1,0
,,5d251b0c86fe240017764b36,66fc97b13270de5129c40376,2024-10-02_01h46.03.545,mdp,2024.2.1,Win32,59.88023952,66fa4ebf79326e780c390304,,,,,,,,,,,,,,,,,,,,,1017.2299,1017.2299,1017.2326,1018.1362,1,0,right,0.3657,,1018.138,1018.9112,0,0,left,1018.914,1019.6942,0,1,left,0,1019.6943,1019.6945,1019.6975,1021.1926,0,10,10,10,1,0.2,0.8,0.6,0.4,,,,,,,,,,,,,,,0.2415,,0.6,0.4,0.6,0.4,0.4,0.6,0.2,0.8,,,0.244,,0.2,0.8,0.2,0.8,0.6,0.4,0.2,0.8,1,0
,,5d251b0c86fe240017764b36,66fc97b13270de5129c40376,2024-10-02_01h46.03.545,mdp,2024.2.1,Win32,59.88023952,66fa4ebf79326e780c390304,,,,,,,,,,,,,,,,,,,,,1021.1937,1021.1938,1021.1967,1022.1413,0,1,left,0.4156,,1022.1436,1022.9407,1,0,right,1022.9443,1023.7232,0,1,left,0,1023.7236,1023.7236,1023.7261,1025.2211,0,11,11,11,1,0.2,0.8,0.6,0.4,,,,,,,,,,,,,,,0.2654,,0.6,0.4,0.6,0.4,0.4,0.6,0.2,0.8,,,0.2458,,0.2,0.8,0.2,0.8,0.6,0.4,0.2,0.8,1,0
,,5d251b0c86fe240017764b36,66fc97b13270de5129c40376,2024-10-02_01h46.03.545,mdp,2024.2.1,Win32,59.88023952,66fa4ebf79326e780c390304,,,,,,,,,,,,,,,,,,,,,1025.2219,1025.222,1025.2244,1026.1047,0,0,left,0.364,,1026.1076,1027.154,0,0,left,1027.1574,1028.1766,0,0,left,1,1028.1767,1028.1767,1028.1783,1029.6669,0,12,12,12,1,0.2,0.8,0.6,0.4,,,,,,,,,,,,,,,0.5019,,0.6,0.4,0.6,0.4,0.8,0.2,0.4,0.6,,,0.4963,,0.2,0.8,0.2,0.8,0.6,0.4,0.2,0.8,1,0
,,5d251b0c86fe240017764b36,66fc97b13270de5129c40376,2024-10-02_01h46.03.545,mdp,2024.2.1,Win32,59.88023952,66fa4ebf79326e780c390304,,,,,,,,,,,,,,,,,,,,,1029.668,1029.668,1029.6705,1031.5665,0,1,left,1.3694,,1031.5692,1032.3321,1,1,right,1032.3349,1033.6811,0,1,left,0,1033.6813,1033.6813,1033.6841,1035.1793,0,13,13,13,1,0.2,0.8,0.6,0.4,,,,,,,,,,,,,,,0.2159,,0.6,0.4,0.6,0.4,0.8,0.2,0.4,0.6,,,0.8035,,0.2,0.8,0.2,0.8,0.6,0.4,0.2,0.8,1,0
,,5d251b0c86fe240017764b36,66fc97b13270de5129c40376,2024-10-02_01h46.03.545,mdp,2024.2.1,Win32,59.88023952,66fa4ebf79326e780c390304,,,,,,,,,,,,,,,,,,,,,1035.1807,1035.1808,1035.1827,1036.096,0,0,left,0.3782,,1036.0987,1037.0684,1,0,right,1037.0701,1037.8769,1,1,right,0,1037.877,1037.877,1037.8802,1039.3793,0,14,14,14,1,0.2,0.8,0.6,0.4,,,,,,,,,,,,,,,0.4306,,0.6,0.4,0.6,0.4,0.8,0.2,0.4,0.6,,,0.2647,,0.2,0.8,0.2,0.8,0.4,0.6,0.6,0.4,1,0
,,5d251b0c86fe240017764b36,66fc97b13270de5129c40376,2024-10-02_01h46.03.545,mdp,2024.2.1,Win32,59.88023952,66fa4ebf79326e780c390304,,,,,,,,,,,,,,,,,,,,,1039.3799,1039.38,1039.3815,1040.4253,0,1,left,0.5208,,1040.4277,1041.3635,1,1,right,1041.3657,1042.2392,0,1,left,0,1042.2394,1042.2394,1042.2422,1043.7274,0,15,15,15,1,0.2,0.8,0.6,0.4,,,,,,,,,,,,,,,0.3938,,0.6,0.4,0.6,0.4,0.8,0.2,0.4,0.6,,,0.3377,,0.2,0.8,0.2,0.8,0.4,0.6,0.6,0.4,1,0
,,5d251b0c86fe240017764b36,66fc97b13270de5129c40376,2024-10-02_01h46.03.545,mdp,2024.2.1,Win32,59.88023952,66fa4ebf79326e780c390304,,,,,,,,,,,,,,,,,,,,,1043.7289,1043.7289,1043.7304,1044.6543,0,0,left,0.4017,,1044.657,1045.453,1,0,right,1045.4567,1046.2198,1,1,right,0,1046.22,1046.22,1046.2227,1047.708,0,16,16,16,1,0.2,0.8,0.6,0.4,,,,,,,,,,,,,,,0.2516,,0.6,0.4,0.6,0.4,0.8,0.2,0.4,0.6,,,0.2226,,0.2,0.8,0.2,0.8,0.4,0.6,0.6,0.4,1,0
,,5d251b0c86fe240017764b36,66fc97b13270de5129c40376,2024-10-02_01h46.03.545,mdp,2024.2.1,Win32,59.88023952,66fa4ebf79326e780c390304,,,,,,,,,,,,,,,,,,,,,1047.7087,1047.7087,1047.7107,1048.5171,0,1,left,0.2738,,1048.5202,1049.3332,0,1,left,1049.3365,1050.0665,0,1,left,0,1050.0667,1050.0668,1050.07,1051.5639,0,17,17,17,1,0.2,0.8,0.6,0.4,,,,,,,,,,,,,,,0.267,,0.6,0.4,0.6,0.4,0.8,0.2,0.4,0.6,,,0.2042,,0.2,0.8,0.2,0.8,0.4,0.6,0.6,0.4,1,0
,,5d251b0c86fe240017764b36,66fc97b13270de5129c40376,2024-10-02_01h46.03.545,mdp,2024.2.1,Win32,59.88023952,66fa4ebf79326e780c390304,,,,,,,,,,,,,,,,,,,,,1051.5655,1051.5655,1051.5675,1052.3845,0,0,left,0.2816,,1052.3865,1053.1628,0,0,left,1053.1662,1053.9629,0,1,left,0,1053.9633,1053.9633,1053.9657,1055.4691,0,18,18,18,1,0.2,0.8,0.6,0.4,,,,,,,,,,,,,,,0.2328,,0.6,0.4,0.6,0.4,0.8,0.2,0.4,0.6,,,0.2549,,0.2,0.8,0.2,0.8,0.4,0.6,0.6,0.4,1,0
,,5d251b0c86fe240017764b36,66fc97b13270de5129c40376,2024-10-02_01h46.03.545,mdp,2024.2.1,Win32,59.88023952,66fa4ebf79326e780c390304,,,,,,,,,,,,,,,,,,,,,1055.4697,1055.4697,1055.4721,1056.3431,0,0,left,0.355,,1056.3464,1057.1424,1,1,right,1057.1457,1057.8982,0,1,left,0,1057.8983,1057.8983,1057.9001,1059.39,0,19,19,19,1,0.2,0.8,0.6,0.4,,,,,,,,,,,,,,,0.2664,,0.6,0.4,0.6,0.4,0.8,0.2,0.4,0.6,,,0.2111,,0.2,0.8,0.2,0.8,0.4,0.6,0.6,0.4,1,0
,,5d251b0c86fe240017764b36,66fc97b13270de5129c40376,2024-10-02_01h46.03.545,mdp,2024.2.1,Win32,59.88023952,66fa4ebf79326e780c390304,,,,,,,,,,,,,,,,,,,,,1059.3913,1059.3913,1059.3936,1060.2895,0,1,left,0.3584,,1060.2922,1061.1786,1,1,right,1061.1805,1061.955,0,1,left,0,1061.9554,1061.9555,1061.9576,1063.4533,0,20,20,20,1,0.2,0.8,0.6,0.4,,,,,,,,,,,,,,,0.3494,,0.6,0.4,0.6,0.4,0.8,0.2,0.4,0.6,,,0.2348,,0.2,0.8,0.2,0.8,0.4,0.6,0.6,0.4,1,0
,,5d251b0c86fe240017764b36,66fc97b13270de5129c40376,2024-10-02_01h46.03.545,mdp,2024.2.1,Win32,59.88023952,66fa4ebf79326e780c390304,,,,,,,,,,,,,,,,,,,,,1063.454,1063.4541,1063.4566,1064.3594,0,1,left,0.3947,,1064.361,1065.1512,1,0,right,1065.1535,1066.0011,1,0,right,1,1066.0013,1066.0013,1066.0034,1067.4992,0,21,21,21,1,0.2,0.8,0.6,0.4,,,,,,,,,,,,,,,0.2623,,0.6,0.4,0.6,0.4,0.6,0.4,0.2,0.8,,,0.3005,,0.2,0.8,0.2,0.8,0.4,0.6,0.6,0.4,1,0
,,5d251b0c86fe240017764b36,66fc97b13270de5129c40376,2024-10-02_01h46.03.545,mdp,2024.2.1,Win32,59.88023952,66fa4ebf79326e780c390304,,,,,,,,,,,,,,,,,,,,,1067.5004,1067.5005,1067.5025,1070.2883,0,1,left,2.2642,,1070.2904,1071.746,0,0,left,1071.7498,1072.6367,1,1,right,0,1072.6368,1072.6368,1072.6393,1074.1253,0,22,22,22,1,0.2,0.8,0.6,0.4,,,,,,,,,,,,,,,0.9395,0.0005,0.6,0.4,0.6,0.4,0.6,0.4,0.2,0.8,,,0.3746,,0.2,0.8,0.2,0.8,0.8,0.2,0.2,0.8,1,0
,,5d251b0c86fe240017764b36,66fc97b13270de5129c40376,2024-10-02_01h46.03.545,mdp,2024.2.1,Win32,59.88023952,66fa4ebf79326e780c390304,,,,,,,,,,,,,,,,,,,,,1074.1261,1074.1262,1074.1281,1075.3077,0,1,left,0.652,,1075.3096,1076.2737,1,1,right,1076.276,1077.3573,0,0,left,1,1077.3575,1077.3575,1077.3605,1078.8554,0,23,23,23,1,0.2,0.8,0.6,0.4,,,,,,,,,,,,,,,0.4355,,0.6,0.4,0.6,0.4,0.6,0.4,0.2,0.8,,,0.5376,,0.2,0.8,0.2,0.8,0.8,0.2,0.2,0.8,1,0
,,5d251b0c86fe240017764b36,66fc97b13270de5129c40376,2024-10-02_01h46.03.545,mdp,2024.2.1,Win32,59.88023952,66fa4ebf79326e780c390304,,,,,,,,,,,,,,,,,,,,,1078.8564,1078.8564,1078.8588,1079.9115,0,1,left,0.5179,,1079.9131,1080.7882,1,1,right,1080.7904,1081.7026,0,0,left,1,1081.7028,1081.7029,1081.706,1083.2009,0,24,24,24,1,0.2,0.8,0.6,0.4,,,,,,,,,,,,,,,0.3477,,0.6,0.4,0.6,0.4,0.6,0.4,0.2,0.8,,,0.383,,0.2,0.8,0.2,0.8,0.8,0.2,0.2,0.8,1,0
,,5d251b0c86fe240017764b36,66fc97b13270de5129c40376,2024-10-02_01h46.03.545,mdp,2024.2.1,Win32,59.88023952,66fa4ebf79326e780c390304,,,,,,,,,,,,,,,,,,,,,1083.2017,1083.2018,1083.2038,1084.0675,0,1,left,0.346,,1084.0698,1084.916,1,1,right,1084.9187,1085.7855,1,1,right,0,1085.7856,1085.7856,1085.7872,1087.2802,0,25,25,25,1,0.2,0.8,0.6,0.4,,,,,,,,,,,,,,,0.323,,0.6,0.4,0.6,0.4,0.6,0.4,0.2,0.8,,,0.3454,,0.2,0.8,0.2,0.8,0.8,0.2,0.2,0.8,1,0
,,5d251b0c86fe240017764b36,66fc97b13270de5129c40376,2024-10-02_01h46.03.545,mdp,2024.2.1,Win32,59.88023952,66fa4ebf79326e780c390304,,,,,,,,,,,,,,,,,,,,,1087.2817,1087.2817,1087.284,1088.2797,0,1,left,0.4784,,1088.282,1089.0992,1,1,right,1089.1007,1089.9118,0,0,left,1,1089.912,1089.912,1089.9148,1091.4164,0,26,26,26,1,0.2,0.8,0.6,0.4,,,,,,,,,,,,,,,0.2965,,0.6,0.4,0.6,0.4,0.6,0.4,0.2,0.8,,,0.2685,,0.2,0.8,0.2,0.8,0.8,0.2,0.2,0.8,1,0
,,5d251b0c86fe240017764b36,66fc97b13270de5129c40376,2024-10-02_01h46.03.545,mdp,2024.2.1,Win32,59.88023952,66fa4ebf79326e780c390304,,,,,,,,,,,,,,,,,,,,,1091.4169,1091.4169,1091.4184,1092.4596,0,0,left,0.517,,1092.4629,1093.2592,1,1,right,1093.2616,1094.1478,0,0,left,1,1094.1479,1094.1479,1094.1493,1095.6457,0,27,27,27,1,0.2,0.8,0.6,0.4,,,,,,,,,,,,,,,0.2544,,0.6,0.4,0.6,0.4,0.6,0.4,0.2,0.8,,,0.3655,,0.2,0.8,0.2,0.8,0.8,0.2,0.2,0.8,1,0
,,5d251b0c86fe240017764b36,66fc97b13270de5129c40376,2024-10-02_01h46.03.545,mdp,2024.2.1,Win32,59.88023952,66fa4ebf79326e780c390304,,,,,,,,,,,,,,,,,,,,,1095.6463,1095.6463,1095.6481,1096.6388,0,1,left,0.457,,1096.6411,1097.4885,1,0,right,1097.4908,1098.3707,0,0,left,1,1098.3709,1098.3709,1098.3733,1099.8692,0,28,28,28,1,0.2,0.8,0.6,0.4,,,,,,,,,,,,,,,0.3003,,0.6,0.4,0.6,0.4,0.6,0.4,0.2,0.8,,,0.3388,,0.2,0.8,0.2,0.8,0.8,0.2,0.2,0.8,1,0
,,5d251b0c86fe240017764b36,66fc97b13270de5129c40376,2024-10-02_01h46.03.545,mdp,2024.2.1,Win32,59.88023952,66fa4ebf79326e780c390304,,,,,,,,,,,,,,,,,,,,,1099.87,1099.8701,1099.8721,1101.1083,0,1,left,0.7007,,1101.1102,1101.9665,1,0,right,1101.9688,1102.8501,0,1,left,0,1102.8504,1102.8504,1102.8528,1104.3484,0,29,29,29,1,0.2,0.8,0.6,0.4,,,,,,,,,,,,,,,0.3218,,0.6,0.4,0.6,0.4,0.2,0.8,0.4,0.6,,,0.3564,,0.2,0.8,0.2,0.8,0.8,0.2,0.2,0.8,1,0
,,5d251b0c86fe240017764b36,66fc97b13270de5129c40376,2024-10-02_01h46.03.545,mdp,2024.2.1,Win32,59.88023952,66fa4ebf79326e780c390304,,,,,,,,,,,,,,,,,,,,,1104.3496,1104.3496,1104.3516,1105.4509,0,0,left,0.5637,,1105.4524,1106.2533,1,0,right,1106.2567,1107.0793,1,1,right,0,1107.0795,1107.0795,1107.0828,1108.5778,0,30,30,30,1,0.8,0.2,0.2,0.8,,,,,,,,,,,,,,,0.2758,,0.6,0.4,0.6,0.4,0.2,0.8,0.4,0.6,,,0.3026,,0.2,0.8,0.2,0.8,0.8,0.2,0.2,0.8,1,0
,,5d251b0c86fe240017764b36,66fc97b13270de5129c40376,2024-10-02_01h46.03.545,mdp,2024.2.1,Win32,59.88023952,66fa4ebf79326e780c390304,,,,,,,,,,,,,,,,,,,,,1108.5791,1108.5791,1108.5813,1109.5768,0,0,left,0.4516,,1109.5791,1110.4258,1,0,right,1110.4288,1111.2587,1,0,right,1,1111.2588,1111.2588,1111.2616,1112.7566,0,31,31,31,1,0.8,0.2,0.2,0.8,,,,,,,,,,,,,,,0.3055,,0.6,0.4,0.6,0.4,0.2,0.8,0.4,0.6,,,0.2847,,0.2,0.8,0.2,0.8,0.8,0.2,0.2,0.8,1,0
,,5d251b0c86fe240017764b36,66fc97b13270de5129c40376,2024-10-02_01h46.03.545,mdp,2024.2.1,Win32,59.88023952,66fa4ebf79326e780c390304,,,,,,,,,,,,,,,,,,,,,1112.7576,1112.7576,1112.76,1113.6563,0,0,left,0.3721,,1113.6585,1114.4722,1,0,right,1114.4756,1115.2712,1,1,right,0,1115.2714,1115.2715,1115.2741,1116.7697,0,32,32,32,1,0.8,0.2,0.2,0.8,,,,,,,,,,,,,,,0.2849,,0.6,0.4,0.6,0.4,0.2,0.8,0.4,0.6,,,0.2696,,0.2,0.8,0.2,0.8,0.8,0.2,0.2,0.8,1,0
,,5d251b0c86fe240017764b36,66fc97b13270de5129c40376,2024-10-02_01h46.03.545,mdp,2024.2.1,Win32,59.88023952,66fa4ebf79326e780c390304,,,,,,,,,,,,,,,,,,,,,1116.7708,1116.7708,1116.7736,1117.7942,0,0,left,0.485,,1117.7963,1118.5918,1,0,right,1118.5934,1119.4007,1,1,right,0,1119.4009,1119.4009,1119.4038,1120.8904,0,33,33,33,1,0.8,0.2,0.2,0.8,,,,,,,,,,,,,,,0.2833,,0.6,0.4,0.6,0.4,0.2,0.8,0.4,0.6,,,0.2822,,0.2,0.8,0.2,0.8,0.8,0.2,0.2,0.8,1,0
,,5d251b0c86fe240017764b36,66fc97b13270de5129c40376,2024-10-02_01h46.03.545,mdp,2024.2.1,Win32,59.88023952,66fa4ebf79326e780c390304,,,,,,,,,,,,,,,,,,,,,1120.8911,1120.8912,1120.8933,1121.8318,0,1,left,0.423,,1121.8344,1122.6808,1,1,right,1122.6849,1123.547,1,0,right,1,1123.5471,1123.5471,1123.5498,1125.0447,0,34,34,34,1,0.4,0.6,0.6,0.4,,,,,,,,,,,,,,,0.2996,,0.6,0.4,0.6,0.4,0.2,0.8,0.4,0.6,,,0.3193,,0.2,0.8,0.2,0.8,0.8,0.2,0.2,0.8,1,0
,,5d251b0c86fe240017764b36,66fc97b13270de5129c40376,2024-10-02_01h46.03.545,mdp,2024.2.1,Win32,59.88023952,66fa4ebf79326e780c390304,,,,,,,,,,,,,,,,,,,,,1125.046,1125.0461,1125.0484,1126.1607,0,0,left,0.5969,,1126.1632,1126.9337,1,1,right,1126.9357,1127.793,1,1,right,0,1127.7932,1127.7932,1127.7966,1129.2911,0,35,35,35,1,0.4,0.6,0.6,0.4,,,,,,,,,,,,,,,0.2496,,0.6,0.4,0.6,0.4,0.2,0.8,0.4,0.6,,,0.3395,,0.2,0.8,0.2,0.8,0.8,0.2,0.2,0.8,1,0
,,5d251b0c86fe240017764b36,66fc97b13270de5129c40376,2024-10-02_01h46.03.545,mdp,2024.2.1,Win32,59.88023952,66fa4ebf79326e780c390304,,,,,,,,,,,,,,,,,,,,,1129.292,1129.292,1129.2945,1130.2565,0,0,left,0.4399,,1130.2589,1131.0078,1,0,right,1131.0106,1131.7505,1,1,right,0,1131.7507,1131.7508,1131.7533,1133.2388,0,36,36,36,1,0.6,0.4,0.2,0.8,,,,,,,,,,,,,,,0.2372,,0.6,0.4,0.6,0.4,0.2,0.8,0.4,0.6,,,0.1976,,0.2,0.8,0.2,0.8,0.8,0.2,0.2,0.8,1,0
,,5d251b0c86fe240017764b36,66fc97b13270de5129c40376,2024-10-02_01h46.03.545,mdp,2024.2.1,Win32,59.88023952,66fa4ebf79326e780c390304,,,,,,,,,,,,,,,,,,,,,1133.2401,1133.2401,1133.243,1134.1908,0,0,left,0.4348,,1134.1937,1134.9825,1,1,right,1134.9866,1135.7808,0,0,left,1,1135.7809,1135.7809,1135.7834,1137.299,0,37,37,37,1,0.6,0.4,0.2,0.8,,,,,,,,,,,,,,,0.2631,,0.6,0.4,0.6,0.4,0.2,0.8,0.4,0.6,,,0.2501,,0.2,0.8,0.2,0.8,0.8,0.2,0.2,0.8,1,0
,,5d251b0c86fe240017764b36,66fc97b13270de5129c40376,2024-10-02_01h46.03.545,mdp,2024.2.1,Win32,59.88023952,66fa4ebf79326e780c390304,,,,,,,,,,,,,,,,,,,,,1137.301,1137.301,1137.3036,1138.18,0,1,left,0.3526,,1138.1833,1138.8699,1,1,right,1138.8733,1139.7377,1,1,right,0,1139.7379,1139.738,1139.7418,1141.2414,0,38,38,38,1,0.6,0.4,0.2,0.8,,,,,,,,,,,,,,,0.1482,,0.6,0.4,0.6,0.4,0.2,0.8,0.4,0.6,,,0.3211,,0.2,0.8,0.2,0.8,0.8,0.2,0.2,0.8,1,0
,,5d251b0c86fe240017764b36,66fc97b13270de5129c40376,2024-10-02_01h46.03.545,mdp,2024.2.1,Win32,59.88023952,66fa4ebf79326e780c390304,,,,,,,,,,,,,,,,,,,,,1141.2431,1141.2431,1141.2464,1142.5281,0,0,left,0.7644,,1142.5313,1143.2891,1,0,right,1143.2912,1144.0848,0,0,left,1,1144.0849,1144.0849,1144.0879,1145.5774,0,39,39,39,1,0.6,0.4,0.2,0.8,,,,,,,,,,,,,,,0.2115,,0.6,0.4,0.6,0.4,0.2,0.8,0.4,0.6,,,0.2566,,0.2,0.8,0.2,0.8,0.8,0.2,0.2,0.8,1,0
,,5d251b0c86fe240017764b36,66fc97b13270de5129c40376,2024-10-02_01h46.03.545,mdp,2024.2.1,Win32,59.88023952,66fa4ebf79326e780c390304,,,,,,,,,,,,,,,,,,,,,1145.5784,1145.5785,1145.581,1149.1774,0,0,left,3.0542,,1149.2093,1150.088,0,0,left,1150.0906,1150.9186,1,1,right,0,1150.9188,1150.9189,1150.9217,1152.4263,0,40,40,40,1,0.6,0.4,0.2,0.8,,,,,,,,,,,,,,,0.3839,,0.6,0.4,0.6,0.4,0.2,0.8,0.4,0.6,,,0.2996,,0.2,0.8,0.2,0.8,0.8,0.2,0.2,0.8,1,0
,,5d251b0c86fe240017764b36,66fc97b13270de5129c40376,2024-10-02_01h46.03.545,mdp,2024.2.1,Win32,59.88023952,66fa4ebf79326e780c390304,,,,,,,,,,,,,,,,,,,,,1152.4272,1152.4273,1152.4297,1153.437,0,0,left,0.4697,,1153.4395,1154.2112,1,1,right,1154.2134,1155.2072,0,0,left,1,1155.2073,1155.2074,1155.2097,1156.6997,0,41,41,41,1,0.6,0.4,0.2,0.8,,,,,,,,,,,,,,,0.2583,,0.6,0.4,0.6,0.4,0.2,0.8,0.4,0.6,,,0.1957,0.1373,0.2,0.8,0.2,0.8,0.8,0.2,0.2,0.8,1,0
,,5d251b0c86fe240017764b36,66fc97b13270de5129c40376,2024-10-02_01h46.03.545,mdp,2024.2.1,Win32,59.88023952,66fa4ebf79326e780c390304,,,,,,,,,,,,,,,,,,,,,1156.701,1156.701,1156.7033,1157.6484,0,0,left,0.4033,,1157.6516,1158.5552,1,1,right,1158.5568,1159.3637,1,1,right,0,1159.3639,1159.364,1159.3676,1160.8526,0,42,42,42,1,0.6,0.4,0.2,0.8,,,,,,,,,,,,,,,0.3669,,0.6,0.4,0.6,0.4,0.2,0.8,0.4,0.6,,,0.2712,,0.2,0.8,0.2,0.8,0.8,0.2,0.2,0.8,1,0
,,5d251b0c86fe240017764b36,66fc97b13270de5129c40376,2024-10-02_01h46.03.545,mdp,2024.2.1,Win32,59.88023952,66fa4ebf79326e780c390304,,,,,,,,,,,,,,,,,,,,,1160.8533,1160.8533,1160.8554,1161.7063,0,1,left,0.3364,,1161.7084,1162.484,0,1,left,1162.4859,1163.2767,1,1,right,0,1163.277,1163.277,1163.2799,1164.7657,0,43,43,43,1,0.6,0.4,0.2,0.8,,,,,,,,,,,,,,,0.2447,,0.6,0.4,0.6,0.4,0.2,0.8,0.4,0.6,,,0.2527,,0.2,0.8,0.2,0.8,0.8,0.2,0.2,0.8,1,0
,,5d251b0c86fe240017764b36,66fc97b13270de5129c40376,2024-10-02_01h46.03.545,mdp,2024.2.1,Win32,59.88023952,66fa4ebf79326e780c390304,,,,,,,,,,,,,,,,,,,,,1164.7663,1164.7663,1164.7678,1165.6576,0,0,left,0.3545,,1165.6601,1166.4908,1,0,right,1166.4933,1167.264,1,0,right,1,1167.2641,1167.2641,1167.266,1168.7556,0,44,44,44,1,0.6,0.4,0.2,0.8,,,,,,,,,,,,,,,0.2795,,0.6,0.4,0.6,0.4,0.2,0.8,0.4,0.6,,,0.2332,,0.4,0.6,0.8,0.2,0.8,0.2,0.2,0.8,1,0
,,5d251b0c86fe240017764b36,66fc97b13270de5129c40376,2024-10-02_01h46.03.545,mdp,2024.2.1,Win32,59.88023952,66fa4ebf79326e780c390304,,,,,,,,,,,,,,,,,,,,,1168.759,1168.7591,1168.7605,1169.6707,0,1,left,0.3895,,1169.6736,1170.4701,1,1,right,1170.4733,1171.3122,1,1,right,0,1171.3123,1171.3123,1171.314,1172.8005,0,45,45,45,1,0.6,0.4,0.2,0.8,,,,,,,,,,,,,,,0.2521,,0.6,0.4,0.6,0.4,0.2,0.8,0.4,0.6,,,0.2993,,0.4,0.6,0.8,0.2,0.8,0.2,0.2,0.8,1,0
,,5d251b0c86fe240017764b36,66fc97b13270de5129c40376,2024-10-02_01h46.03.545,mdp,2024.2.1,Win32,59.88023952,66fa4ebf79326e780c390304,,,,,,,,,,,,,,,,,,,,,1172.802,1172.8021,1172.8047,1173.6834,0,1,left,0.3647,,1173.6866,1174.4492,1,0,right,1174.4529,1175.2986,1,0,right,1,1175.2989,1175.2989,1175.3018,1176.7929,0,46,46,46,1,0.6,0.4,0.2,0.8,,,,,,,,,,,,,,,0.2459,,0.6,0.4,0.6,0.4,0.2,0.8,0.4,0.6,,,0.3007,,0.4,0.6,0.8,0.2,0.4,0.6,0.6,0.4,1,0
,,5d251b0c86fe240017764b36,66fc97b13270de5129c40376,2024-10-02_01h46.03.545,mdp,2024.2.1,Win32,59.88023952,66fa4ebf79326e780c390304,,,,,,,,,,,,,,,,,,,,,1176.7938,1176.7938,1176.7974,1177.6291,0,0,left,0.3087,,1177.6315,1178.4369,1,0,right,1178.4386,1179.2198,0,0,left,1,1179.2199,1179.2199,1179.2217,1180.7098,0,47,47,47,1,0.6,0.4,0.2,0.8,,,,,,,,,,,,,,,0.2662,,0.6,0.4,0.6,0.4,0.2,0.8,0.4,0.6,,,0.2664,,0.4,0.6,0.8,0.2,0.4,0.6,0.6,0.4,1,0
,,5d251b0c86fe240017764b36,66fc97b13270de5129c40376,2024-10-02_01h46.03.545,mdp,2024.2.1,Win32,59.88023952,66fa4ebf79326e780c390304,,,,,,,,,,,,,,,,,,,,,1180.7111,1180.7111,1180.7157,1181.6136,0,1,left,0.3789,,1181.6157,1182.4226,1,0,right,1182.4256,1183.2083,0,1,left,0,1183.2085,1183.2085,1183.2108,1184.7057,0,48,48,48,1,0.6,0.4,0.2,0.8,,,,,,,,,,,,,,,0.2697,,0.6,0.4,0.6,0.4,0.4,0.6,0.8,0.2,,,0.2676,,0.4,0.6,0.8,0.2,0.4,0.6,0.6,0.4,1,0
,,5d251b0c86fe240017764b36,66fc97b13270de5129c40376,2024-10-02_01h46.03.545,mdp,2024.2.1,Win32,59.88023952,66fa4ebf79326e780c390304,,,,,,,,,,,,,,,,,,,,,1184.7072,1184.7072,1184.7111,1185.6388,0,0,left,0.4056,,1185.6418,1186.388,1,1,right,1186.3913,1187.1624,0,1,left,0,1187.1625,1187.1625,1187.1644,1188.6522,0,49,49,49,1,0.6,0.4,0.2,0.8,,,,,,,,,,,,,,,0.2031,,0.6,0.4,0.6,0.4,0.4,0.6,0.8,0.2,,,0.2316,,0.4,0.6,0.8,0.2,0.4,0.6,0.6,0.4,1,0
,,5d251b0c86fe240017764b36,66fc97b13270de5129c40376,2024-10-02_01h46.03.545,mdp,2024.2.1,Win32,59.88023952,66fa4ebf79326e780c390304,,,,,,,,,,,,,,,,,,,,,,,,,,,,,,,,,,,,,,,,,,,,,,,,,,,,,,,,1188.6539,1247.1647,0,3,3,0,1,imgs/goat.png,imgs/kangaroo.png,imgs/rabbit.png,imgs/lion.png,imgs/horse.png,,,,,,,,,,,,,,,,,,,,,,,,
,,5d251b0c86fe240017764b36,66fc97b13270de5129c40376,2024-10-02_01h46.03.545,mdp,2024.2.1,Win32,59.88023952,66fa4ebf79326e780c390304,,,,,,,,,,,,,,1,seqs/st1seq34.csv,1247.189,1254.8417,space,7.1301,,1254.8695,1254.8696,1254.8709,1257.3767,0,1,left,1.9721,,1257.402,1257.4032,1,0,,1257.4061,1257.4073,0,0,,0,1257.4073,1257.4073,1257.4086,1258.9029,0,0,0,0,1,0.6,0.4,0.2,0.8,1,0,,,,,,,,,,,,,,,,,,,,,,,,,,,,,,,,,,,,
,,5d251b0c86fe240017764b36,66fc97b13270de5129c40376,2024-10-02_01h46.03.545,mdp,2024.2.1,Win32,59.88023952,66fa4ebf79326e780c390304,,,,,,,,,,,,,,,,,,,,,1258.9036,1258.9037,1258.9062,1260.6014,0,0,left,1.1718,,1260.6038,1260.6057,1,1,,1260.6073,1260.6083,0,1,,1,1260.6084,1260.6084,1260.6094,1262.1004,0,1,1,1,1,0.6,0.4,0.2,0.8,1,0,,,,,,,,,,,,,,,,,,,,,,,,,,,,,,,,,,,,
,,5d251b0c86fe240017764b36,66fc97b13270de5129c40376,2024-10-02_01h46.03.545,mdp,2024.2.1,Win32,59.88023952,66fa4ebf79326e780c390304,,,,,,,,,,,,,,,,,,,,,1262.1017,1262.1018,1262.1052,1263.1883,0,0,left,0.5639,,1263.1904,1263.1917,1,1,,1263.193,1263.1942,0,0,,1,1263.1942,1263.1942,1263.1954,1264.6987,0,2,2,2,1,0.6,0.4,0.2,0.8,1,0,,,,,,,,,,,,,,,,,,,,,,,,,,,,,,,,,,,,
,,5d251b0c86fe240017764b36,66fc97b13270de5129c40376,2024-10-02_01h46.03.545,mdp,2024.2.1,Win32,59.88023952,66fa4ebf79326e780c390304,,,,,,,,,,,,,,,,,,,,,1264.6999,1264.6999,1264.7027,1265.5713,0,1,left,0.3332,,1265.573,1265.5743,1,0,,1265.5755,1265.5766,0,0,,0,1265.5766,1265.5766,1265.5777,1267.0662,0,3,3,3,1,0.6,0.4,0.2,0.8,1,0,,,,,,,,,,,,,,,,,,,,,,,,,,,,,,,,,,,,
,,5d251b0c86fe240017764b36,66fc97b13270de5129c40376,2024-10-02_01h46.03.545,mdp,2024.2.1,Win32,59.88023952,66fa4ebf79326e780c390304,,,,,,,,,,,,,,,,,,,,,1267.0667,1267.0667,1267.0687,1267.903,0,0,left,0.3287,,1267.9047,1267.9058,1,1,,1267.907,1267.9079,0,1,,1,1267.9079,1267.9079,1267.9089,1269.4103,0,4,4,4,1,0.6,0.4,0.2,0.8,1,0,,,,,,,,,,,,,,,,,,,,,,,,,,,,,,,,,,,,
,,5d251b0c86fe240017764b36,66fc97b13270de5129c40376,2024-10-02_01h46.03.545,mdp,2024.2.1,Win32,59.88023952,66fa4ebf79326e780c390304,,,,,,,,,,,,,,,,,,,,,1269.4116,1269.4116,1269.4143,1270.534,1,1,right,0.6104,,1270.5363,1270.5374,1,1,,1270.5386,1270.5396,0,0,,0,1270.5397,1270.5397,1270.5407,1272.0479,0,5,5,5,1,0.6,0.4,0.2,0.8,1,0,,,,,,,,,,,,,,,,,,,,,,,,,,,,,,,,,,,,
,,5d251b0c86fe240017764b36,66fc97b13270de5129c40376,2024-10-02_01h46.03.545,mdp,2024.2.1,Win32,59.88023952,66fa4ebf79326e780c390304,,,,,,,,,,,,,,,,,,,,,1272.0485,1272.0485,1272.0504,1273.4568,0,0,left,0.8833,,1273.4591,1273.4605,1,0,,1273.4617,1273.4627,0,0,,1,1273.4627,1273.4627,1273.4636,1274.9553,0,6,6,6,1,0.6,0.4,0.2,0.8,1,0,,,,,,,,,,,,,,,,,,,,,,,,,,,,,,,,,,,,
,,5d251b0c86fe240017764b36,66fc97b13270de5129c40376,2024-10-02_01h46.03.545,mdp,2024.2.1,Win32,59.88023952,66fa4ebf79326e780c390304,,,,,,,,,,,,,,,,,,,,,1274.9564,1274.9565,1274.9591,1275.9387,0,1,left,0.4421,,1275.9414,1275.9425,1,1,,1275.9436,1275.9446,0,0,,0,1275.9447,1275.9447,1275.946,1277.4361,0,7,7,7,1,0.6,0.4,0.2,0.8,1,0,,,,,,,,,,,,,,,,,,,,,,,,,,,,,,,,,,,,
,,5d251b0c86fe240017764b36,66fc97b13270de5129c40376,2024-10-02_01h46.03.545,mdp,2024.2.1,Win32,59.88023952,66fa4ebf79326e780c390304,,,,,,,,,,,,,,,,,,,,,1277.4373,1277.4373,1277.4401,1278.4151,0,1,left,0.4503,,1278.4176,1278.4196,1,1,,1278.422,1278.4237,0,1,,0,1278.4237,1278.4237,1278.4251,1279.9239,0,8,8,8,1,0.2,0.8,0.8,0.2,1,0,,,,,,,,,,,,,,,,,,,,,,,,,,,,,,,,,,,,
,,5d251b0c86fe240017764b36,66fc97b13270de5129c40376,2024-10-02_01h46.03.545,mdp,2024.2.1,Win32,59.88023952,66fa4ebf79326e780c390304,,,,,,,,,,,,,,,,,,,,,1279.9244,1279.9244,1279.9265,1280.9846,1,0,right,0.5341,,1280.9873,1280.9884,1,0,,1280.9898,1280.9907,0,1,,1,1280.9908,1280.9908,1280.9917,1282.4814,0,9,9,9,1,0.2,0.8,0.8,0.2,1,0,,,,,,,,,,,,,,,,,,,,,,,,,,,,,,,,,,,,
,,5d251b0c86fe240017764b36,66fc97b13270de5129c40376,2024-10-02_01h46.03.545,mdp,2024.2.1,Win32,59.88023952,66fa4ebf79326e780c390304,,,,,,,,,,,,,,,,,,,,,1282.4828,1282.4829,1282.4855,1283.4481,1,0,right,0.4331,,1283.4511,1283.4523,1,1,,1283.4537,1283.4551,0,1,,1,1283.4552,1283.4552,1283.4565,1284.9499,0,10,10,10,1,0.2,0.8,0.8,0.2,1,0,,,,,,,,,,,,,,,,,,,,,,,,,,,,,,,,,,,,
,,5d251b0c86fe240017764b36,66fc97b13270de5129c40376,2024-10-02_01h46.03.545,mdp,2024.2.1,Win32,59.88023952,66fa4ebf79326e780c390304,,,,,,,,,,,,,,,,,,,,,1284.9505,1284.9505,1284.9522,1286.0125,1,0,right,0.5382,,1286.0155,1286.0167,1,0,,1286.0178,1286.0188,0,0,,1,1286.0189,1286.0189,1286.0201,1287.5096,0,11,11,11,1,0.2,0.8,0.8,0.2,1,0,,,,,,,,,,,,,,,,,,,,,,,,,,,,,,,,,,,,
,,5d251b0c86fe240017764b36,66fc97b13270de5129c40376,2024-10-02_01h46.03.545,mdp,2024.2.1,Win32,59.88023952,66fa4ebf79326e780c390304,,,,,,,,,,,,,,,,,,,,,1287.5105,1287.5105,1287.5128,1288.4606,1,1,right,0.4127,,1288.463,1288.4641,1,0,,1288.4652,1288.4662,0,0,,0,1288.4663,1288.4663,1288.4672,1289.9579,0,12,12,12,1,0.2,0.8,0.8,0.2,1,0,,,,,,,,,,,,,,,,,,,,,,,,,,,,,,,,,,,,
,,5d251b0c86fe240017764b36,66fc97b13270de5129c40376,2024-10-02_01h46.03.545,mdp,2024.2.1,Win32,59.88023952,66fa4ebf79326e780c390304,,,,,,,,,,,,,,,,,,,,,1289.9593,1289.9593,1289.9614,1290.8482,0,1,left,0.3642,,1290.8504,1290.8516,1,0,,1290.8533,1290.8544,0,0,,0,1290.8545,1290.8546,1290.8561,1292.3562,0,13,13,13,1,0.2,0.8,0.8,0.2,1,0,,,,,,,,,,,,,,,,,,,,,,,,,,,,,,,,,,,,
,,5d251b0c86fe240017764b36,66fc97b13270de5129c40376,2024-10-02_01h46.03.545,mdp,2024.2.1,Win32,59.88023952,66fa4ebf79326e780c390304,,,,,,,,,,,,,,,,,,,,,1292.3575,1292.3575,1292.3599,1293.2393,0,1,left,0.3572,,1293.2416,1293.2427,1,1,,1293.2438,1293.2447,0,1,,0,1293.2448,1293.2448,1293.2458,1294.7438,0,14,14,14,1,0.2,0.8,0.8,0.2,1,0,,,,,,,,,,,,,,,,,,,,,,,,,,,,,,,,,,,,
,,5d251b0c86fe240017764b36,66fc97b13270de5129c40376,2024-10-02_01h46.03.545,mdp,2024.2.1,Win32,59.88023952,66fa4ebf79326e780c390304,,,,,,,,,,,,,,,,,,,,,1294.7445,1294.7445,1294.7465,1295.5711,0,0,left,0.3017,,1295.5743,1295.5758,1,0,,1295.5775,1295.5786,0,0,,1,1295.5788,1295.5788,1295.58,1297.0685,0,15,15,15,1,0.6,0.4,0.4,0.6,1,0,,,,,,,,,,,,,,,,,,,,,,,,,,,,,,,,,,,,
,,5d251b0c86fe240017764b36,66fc97b13270de5129c40376,2024-10-02_01h46.03.545,mdp,2024.2.1,Win32,59.88023952,66fa4ebf79326e780c390304,,,,,,,,,,,,,,,,,,,,,1297.0693,1297.0694,1297.0721,1298.0578,1,0,right,0.4652,,1298.0594,1298.0603,1,1,,1298.0614,1298.0622,0,0,,1,1298.0623,1298.0623,1298.0632,1299.566,0,16,16,16,1,0.6,0.4,0.4,0.6,1,0,,,,,,,,,,,,,,,,,,,,,,,,,,,,,,,,,,,,
,,5d251b0c86fe240017764b36,66fc97b13270de5129c40376,2024-10-02_01h46.03.545,mdp,2024.2.1,Win32,59.88023952,66fa4ebf79326e780c390304,,,,,,,,,,,,,,,,,,,,,1299.5671,1299.5672,1299.5699,1300.5356,1,0,right,0.4293,,1300.5385,1300.54,1,0,,1300.5416,1300.543,0,0,,1,1300.5431,1300.5431,1300.5445,1302.0464,0,17,17,17,1,0.2,0.8,0.8,0.2,1,0,,,,,,,,,,,,,,,,,,,,,,,,,,,,,,,,,,,,
,,5d251b0c86fe240017764b36,66fc97b13270de5129c40376,2024-10-02_01h46.03.545,mdp,2024.2.1,Win32,59.88023952,66fa4ebf79326e780c390304,,,,,,,,,,,,,,,,,,,,,1302.047,1302.047,1302.0495,1302.9128,0,1,left,0.3384,,1302.9152,1302.9168,1,1,,1302.918,1302.9189,0,1,,0,1302.919,1302.919,1302.9201,1304.4106,0,18,18,18,1,0.2,0.8,0.8,0.2,1,0,,,,,,,,,,,,,,,,,,,,,,,,,,,,,,,,,,,,
,,5d251b0c86fe240017764b36,66fc97b13270de5129c40376,2024-10-02_01h46.03.545,mdp,2024.2.1,Win32,59.88023952,66fa4ebf79326e780c390304,,,,,,,,,,,,,,,,,,,,,1304.4112,1304.4113,1304.4138,1305.3941,1,1,right,0.4506,,1305.3968,1305.3985,1,0,,1305.3996,1305.4004,0,0,,0,1305.4005,1305.4005,1305.4014,1306.8924,0,19,19,19,1,0.2,0.8,0.8,0.2,1,0,,,,,,,,,,,,,,,,,,,,,,,,,,,,,,,,,,,,
,,5d251b0c86fe240017764b36,66fc97b13270de5129c40376,2024-10-02_01h46.03.545,mdp,2024.2.1,Win32,59.88023952,66fa4ebf79326e780c390304,,,,,,,,,,,,,,,,,,,,,1306.893,1306.8932,1306.8956,1307.7411,0,1,left,0.3182,,1307.7438,1307.7464,1,0,,1307.7479,1307.7494,0,0,,0,1307.7495,1307.7495,1307.7508,1309.24,0,20,20,20,1,0.8,0.2,0.4,0.6,1,0,,,,,,,,,,,,,,,,,,,,,,,,,,,,,,,,,,,,
,,5d251b0c86fe240017764b36,66fc97b13270de5129c40376,2024-10-02_01h46.03.545,mdp,2024.2.1,Win32,59.88023952,66fa4ebf79326e780c390304,,,,,,,,,,,,,,,,,,,,,1309.2412,1309.2413,1309.2439,1310.0722,0,0,left,0.3053,,1310.0749,1310.0764,1,1,,1310.0776,1310.0785,0,0,,1,1310.0786,1310.0786,1310.0794,1311.5709,0,21,21,21,1,0.8,0.2,0.4,0.6,1,0,,,,,,,,,,,,,,,,,,,,,,,,,,,,,,,,,,,,
,,5d251b0c86fe240017764b36,66fc97b13270de5129c40376,2024-10-02_01h46.03.545,mdp,2024.2.1,Win32,59.88023952,66fa4ebf79326e780c390304,,,,,,,,,,,,,,,,,,,,,1311.5714,1311.5714,1311.5735,1313.0532,1,0,right,0.9497,,1313.0557,1313.0572,1,1,,1313.0584,1313.0593,0,1,,1,1313.0594,1313.0594,1313.0607,1314.5512,0,22,22,22,1,0.8,0.2,0.4,0.6,1,0,,,,,,,,,,,,,,,,,,,,,,,,,,,,,,,,,,,,
,,5d251b0c86fe240017764b36,66fc97b13270de5129c40376,2024-10-02_01h46.03.545,mdp,2024.2.1,Win32,59.88023952,66fa4ebf79326e780c390304,,,,,,,,,,,,,,,,,,,,,1314.5519,1314.5519,1314.555,1315.5004,0,0,left,0.4202,,1315.5029,1315.5052,1,1,,1315.5068,1315.5079,0,0,,1,1315.508,1315.508,1315.5091,1316.9997,0,23,23,23,1,0.8,0.2,0.4,0.6,1,0,,,,,,,,,,,,,,,,,,,,,,,,,,,,,,,,,,,,
,,5d251b0c86fe240017764b36,66fc97b13270de5129c40376,2024-10-02_01h46.03.545,mdp,2024.2.1,Win32,59.88023952,66fa4ebf79326e780c390304,,,,,,,,,,,,,,,,,,,,,1317.0001,1317.0001,1317.0023,1317.9654,1,0,right,0.4357,,1317.968,1317.9695,1,0,,1317.9709,1317.972,0,0,,1,1317.972,1317.972,1317.9733,1319.4642,0,24,24,24,1,0.6,0.4,0.8,0.2,1,0,,,,,,,,,,,,,,,,,,,,,,,,,,,,,,,,,,,,
,,5d251b0c86fe240017764b36,66fc97b13270de5129c40376,2024-10-02_01h46.03.545,mdp,2024.2.1,Win32,59.88023952,66fa4ebf79326e780c390304,,,,,,,,,,,,,,,,,,,,,1319.4648,1319.4648,1319.467,1321.8281,0,0,left,1.8339,,1321.8313,1321.8332,1,1,,1321.8352,1321.8366,0,1,,1,1321.8366,1321.8367,1321.8379,1323.3264,0,25,25,25,1,0.6,0.4,0.8,0.2,1,0,,,,,,,,,,,,,,,,,,,,,,,,,,,,,,,,,,,,
,,5d251b0c86fe240017764b36,66fc97b13270de5129c40376,2024-10-02_01h46.03.545,mdp,2024.2.1,Win32,59.88023952,66fa4ebf79326e780c390304,,,,,,,,,,,,,,,,,,,,,1323.327,1323.327,1323.3291,1324.3763,1,1,right,0.5199,,1324.3786,1324.3806,1,0,,1324.3819,1324.3828,0,0,,0,1324.3829,1324.3829,1324.3837,1325.874,0,26,26,26,1,0.6,0.4,0.8,0.2,1,0,,,,,,,,,,,,,,,,,,,,,,,,,,,,,,,,,,,,
,,5d251b0c86fe240017764b36,66fc97b13270de5129c40376,2024-10-02_01h46.03.545,mdp,2024.2.1,Win32,59.88023952,66fa4ebf79326e780c390304,,,,,,,,,,,,,,,,,,,,,1325.8748,1325.8748,1325.8769,1326.7566,0,1,left,0.3503,,1326.7587,1326.76,1,0,,1326.7617,1326.7625,0,0,,0,1326.7627,1326.7627,1326.7635,1328.2554,0,27,27,27,1,0.6,0.4,0.8,0.2,1,0,,,,,,,,,,,,,,,,,,,,,,,,,,,,,,,,,,,,
,,5d251b0c86fe240017764b36,66fc97b13270de5129c40376,2024-10-02_01h46.03.545,mdp,2024.2.1,Win32,59.88023952,66fa4ebf79326e780c390304,,,,,,,,,,,,,,,,,,,,,1328.2561,1328.2561,1328.2591,1329.2214,0,0,left,0.4364,,1329.2239,1329.2254,1,1,,1329.2267,1329.2278,0,1,,1,1329.2278,1329.2278,1329.229,1330.7206,0,28,28,28,1,0.6,0.4,0.8,0.2,1,0,,,,,,,,,,,,,,,,,,,,,,,,,,,,,,,,,,,,
,,5d251b0c86fe240017764b36,66fc97b13270de5129c40376,2024-10-02_01h46.03.545,mdp,2024.2.1,Win32,59.88023952,66fa4ebf79326e780c390304,,,,,,,,,,,,,,,,,,,,,1330.7219,1330.7219,1330.7242,1331.6694,1,1,right,0.417,,1331.6723,1331.674,1,0,,1331.6754,1331.6765,0,1,,0,1331.6766,1331.6766,1331.6776,1333.1674,0,29,29,29,1,0.6,0.4,0.8,0.2,1,0,,,,,,,,,,,,,,,,,,,,,,,,,,,,,,,,,,,,
,,5d251b0c86fe240017764b36,66fc97b13270de5129c40376,2024-10-02_01h46.03.545,mdp,2024.2.1,Win32,59.88023952,66fa4ebf79326e780c390304,,,,,,,,,,,,,,,,,,,,,1333.1681,1333.1681,1333.1702,1334.1831,1,0,right,0.484,,1334.1856,1334.1874,1,0,,1334.1891,1334.1903,0,0,,1,1334.1904,1334.1904,1334.1915,1335.6818,0,30,30,30,1,0.6,0.4,0.8,0.2,1,0,,,,,,,,,,,,,,,,,,,,,,,,,,,,,,,,,,,,
,,5d251b0c86fe240017764b36,66fc97b13270de5129c40376,2024-10-02_01h46.03.545,mdp,2024.2.1,Win32,59.88023952,66fa4ebf79326e780c390304,,,,,,,,,,,,,,,,,,,,,1335.6824,1335.6824,1335.6847,1336.5308,0,0,left,0.3187,,1336.5333,1336.5348,1,1,,1336.5362,1336.5372,0,0,,1,1336.5373,1336.5373,1336.5382,1338.0297,0,31,31,31,1,0.6,0.4,0.8,0.2,1,0,,,,,,,,,,,,,,,,,,,,,,,,,,,,,,,,,,,,
,,5d251b0c86fe240017764b36,66fc97b13270de5129c40376,2024-10-02_01h46.03.545,mdp,2024.2.1,Win32,59.88023952,66fa4ebf79326e780c390304,,,,,,,,,,,,,,,,,,,,,1338.0309,1338.0309,1338.0328,1338.9452,0,0,left,0.3826,,1338.9476,1338.9493,1,0,,1338.9505,1338.9513,0,1,,1,1338.9514,1338.9514,1338.9522,1340.444,0,32,32,32,1,0.6,0.4,0.8,0.2,1,0,,,,,,,,,,,,,,,,,,,,,,,,,,,,,,,,,,,,
,,5d251b0c86fe240017764b36,66fc97b13270de5129c40376,2024-10-02_01h46.03.545,mdp,2024.2.1,Win32,59.88023952,66fa4ebf79326e780c390304,,,,,,,,,,,,,,,,,,,,,1340.4446,1340.4446,1340.447,1341.3766,1,0,right,0.4017,,1341.3785,1341.38,1,0,,1341.3819,1341.3828,0,0,,1,1341.383,1341.383,1341.3841,1342.8755,0,33,33,33,1,0.6,0.4,0.8,0.2,1,0,,,,,,,,,,,,,,,,,,,,,,,,,,,,,,,,,,,,
,,5d251b0c86fe240017764b36,66fc97b13270de5129c40376,2024-10-02_01h46.03.545,mdp,2024.2.1,Win32,59.88023952,66fa4ebf79326e780c390304,,,,,,,,,,,,,,,,,,,,,1342.8761,1342.8761,1342.8789,1343.791,0,1,left,0.3829,,1343.794,1343.7962,1,1,,1343.7975,1343.7987,0,0,,0,1343.7987,1343.7987,1343.7997,1345.2892,0,34,34,34,1,0.6,0.4,0.8,0.2,1,0,,,,,,,,,,,,,,,,,,,,,,,,,,,,,,,,,,,,
,,5d251b0c86fe240017764b36,66fc97b13270de5129c40376,2024-10-02_01h46.03.545,mdp,2024.2.1,Win32,59.88023952,66fa4ebf79326e780c390304,,,,,,,,,,,,,,,,,,,,,1345.2898,1345.2898,1345.2922,1346.7723,0,1,left,0.9679,,1346.7743,1346.776,1,1,,1346.7776,1346.7785,0,0,,0,1346.7785,1346.7786,1346.7794,1348.2698,0,35,35,35,1,0.6,0.4,0.8,0.2,1,0,,,,,,,,,,,,,,,,,,,,,,,,,,,,,,,,,,,,
,,5d251b0c86fe240017764b36,66fc97b13270de5129c40376,2024-10-02_01h46.03.545,mdp,2024.2.1,Win32,59.88023952,66fa4ebf79326e780c390304,,,,,,,,,,,,,,,,,,,,,1348.2705,1348.2705,1348.2725,1349.4859,0,0,left,0.6796,,1349.4883,1349.4895,1,0,,1349.4909,1349.492,0,0,,1,1349.4921,1349.4921,1349.4931,1350.9847,0,36,36,36,1,0.8,0.2,0.6,0.4,1,0,,,,,,,,,,,,,,,,,,,,,,,,,,,,,,,,,,,,
,,5d251b0c86fe240017764b36,66fc97b13270de5129c40376,2024-10-02_01h46.03.545,mdp,2024.2.1,Win32,59.88023952,66fa4ebf79326e780c390304,,,,,,,,,,,,,,,,,,,,,1350.9853,1350.9853,1350.9882,1352.0335,1,1,right,0.5201,,1352.037,1352.0388,1,1,,1352.0402,1352.0414,0,0,,0,1352.0415,1352.0415,1352.0427,1353.5323,0,37,37,37,1,0.8,0.2,0.6,0.4,1,0,,,,,,,,,,,,,,,,,,,,,,,,,,,,,,,,,,,,
,,5d251b0c86fe240017764b36,66fc97b13270de5129c40376,2024-10-02_01h46.03.545,mdp,2024.2.1,Win32,59.88023952,66fa4ebf79326e780c390304,,,,,,,,,,,,,,,,,,,,,1353.5331,1353.5331,1353.5357,1354.0654,0,0,left,0.0086,,1354.068,1354.0692,1,0,,1354.0704,1354.0713,0,0,,1,1354.0714,1354.0714,1354.0723,1355.5698,0,38,38,38,1,0.8,0.2,0.6,0.4,1,0,,,,,,,,,,,,,,,,,,,,,,,,,,,,,,,,,,,,
,,5d251b0c86fe240017764b36,66fc97b13270de5129c40376,2024-10-02_01h46.03.545,mdp,2024.2.1,Win32,59.88023952,66fa4ebf79326e780c390304,,,,,,,,,,,,,,,,,,,,,1355.5706,1355.5707,1355.5721,1356.9035,0,1,left,0.7999,,1356.9047,1356.9056,1,0,,1356.9065,1356.9074,0,0,,0,1356.9074,1356.9074,1356.9084,1358.4012,0,39,39,39,1,0.8,0.2,0.6,0.4,1,0,,,,,,,,,,,,,,,,,,,,,,,,,,,,,,,,,,,,
,,5d251b0c86fe240017764b36,66fc97b13270de5129c40376,2024-10-02_01h46.03.545,mdp,2024.2.1,Win32,59.88023952,66fa4ebf79326e780c390304,,,,,,,,,,,,,,,,,,,,,1358.4016,1358.4017,1358.403,1359.4169,1,0,right,0.4839,,1359.4182,1359.4191,1,0,,1359.4203,1359.4213,0,1,,1,1359.4214,1359.4214,1359.4224,1360.9126,0,40,40,40,1,0.8,0.2,0.6,0.4,1,0,,,,,,,,,,,,,,,,,,,,,,,,,,,,,,,,,,,,
