init_exp.started,init_exp.stopped,participant,session,date,expName,psychopyVersion,OS,frameRate,study_id,disp_instruction.started,disp_instruction.stopped,instruction.thisRepN,instruction.thisTrialN,instruction.thisN,instruction.thisIndex,instruction.ran,instimg_path,consent.started,consent.stopped,key_resp_3.keys,key_resp_3.rt,key_resp_3.duration,n_steps,sequence_path,init_block.started,init_block.stopped,key_resp.keys,key_resp.rt,key_resp.duration,init_trials.started,init_trials.stopped,step0.started,step0.stopped,act0,s1,res0.keys,res0.rt,res0.duration,step1.started,step1.stopped,act1,s2,res1.keys,step2.started,step2.stopped,act2,s3,res2.keys,rew,reward_comp.started,reward_comp.stopped,reward_disp.started,reward_disp.stopped,trials.thisRepN,trials.thisTrialN,trials.thisN,trials.thisIndex,trials.ran,s00a0s10,s00a0s11,s00a1s10,s00a1s11,rew10,rew11,break_block.started,break_block.stopped,block.thisRepN,block.thisTrialN,block.thisN,block.thisIndex,block.ran,s00path,s10path,s11path,s20path,s21path,res1.rt,res1.duration,s10a0s20,s10a0s21,s10a1s20,s10a1s21,s11a0s20,s11a0s21,s11a1s20,s11a1s21,rew20,rew21,res2.rt,res2.duration,s20a0s30,s20a0s31,s20a1s30,s20a1s31,s21a0s30,s21a0s31,s21a1s30,s21a1s31,rew30,rew31
0.0001,0.0009,5d3a286034acef001ceb73ac,66daf5d4532a9daaf63723f6,2024-09-06_13h30.27.534,mdp,2024.2.1,Win32,59.88023952,66d7945b1baad48e845df3ce,,,,,,,,,,,,,,,,,,,,,,,,,,,,,,,,,,,,,,,,,,,,,,,,,,,,,,,,,,,,,,,,,,,,,,,,,,,,,,,,,,,,,,,,,,,
,,5d3a286034acef001ceb73ac,66daf5d4532a9daaf63723f6,2024-09-06_13h30.27.534,mdp,2024.2.1,Win32,59.88023952,66d7945b1baad48e845df3ce,0.0031,20.6424,0,0,0,0,1,rlnn_exp/rlnn_exp.001.png,,,,,,,,,,,,,,,,,,,,,,,,,,,,,,,,,,,,,,,,,,,,,,,,,,,,,,,,,,,,,,,,,,,,,,,,,,,,,,,,,,,
,,5d3a286034acef001ceb73ac,66daf5d4532a9daaf63723f6,2024-09-06_13h30.27.534,mdp,2024.2.1,Win32,59.88023952,66d7945b1baad48e845df3ce,20.6428,36.5097,0,1,1,1,1,rlnn_exp/rlnn_exp.002.png,,,,,,,,,,,,,,,,,,,,,,,,,,,,,,,,,,,,,,,,,,,,,,,,,,,,,,,,,,,,,,,,,,,,,,,,,,,,,,,,,,,
,,5d3a286034acef001ceb73ac,66daf5d4532a9daaf63723f6,2024-09-06_13h30.27.534,mdp,2024.2.1,Win32,59.88023952,66d7945b1baad48e845df3ce,36.5107,50.2763,0,2,2,2,1,rlnn_exp/rlnn_exp.003.png,,,,,,,,,,,,,,,,,,,,,,,,,,,,,,,,,,,,,,,,,,,,,,,,,,,,,,,,,,,,,,,,,,,,,,,,,,,,,,,,,,,
,,5d3a286034acef001ceb73ac,66daf5d4532a9daaf63723f6,2024-09-06_13h30.27.534,mdp,2024.2.1,Win32,59.88023952,66d7945b1baad48e845df3ce,50.2771,82.9254,0,3,3,3,1,rlnn_exp/rlnn_exp.004.png,,,,,,,,,,,,,,,,,,,,,,,,,,,,,,,,,,,,,,,,,,,,,,,,,,,,,,,,,,,,,,,,,,,,,,,,,,,,,,,,,,,
,,5d3a286034acef001ceb73ac,66daf5d4532a9daaf63723f6,2024-09-06_13h30.27.534,mdp,2024.2.1,Win32,59.88023952,66d7945b1baad48e845df3ce,,,,,,,,,82.9311,114.8427,y,21.8785,,,,,,,,,,,,,,,,,,,,,,,,,,,,,,,,,,,,,,,,,,,,,,,,,,,,,,,,,,,,,,,,,,,,,,,,,,,,,,,
,,5d3a286034acef001ceb73ac,66daf5d4532a9daaf63723f6,2024-09-06_13h30.27.534,mdp,2024.2.1,Win32,59.88023952,66d7945b1baad48e845df3ce,,,,,,,,,,,,,,1,seqs/st1seq6.csv,114.8501,117.7922,space,2.4162,,117.7937,117.7938,117.794,118.9768,0,0,left,0.648,,118.9776,118.9802,,1,,118.9809,118.982,,0,,1,118.982,118.982,118.9821,120.4764,0,0,0,0,1,0.8,0.2,0.4,0.6,1,0,,,,,,,,,,,,,,,,,,,,,,,,,,,,,,,,,,,,
,,5d3a286034acef001ceb73ac,66daf5d4532a9daaf63723f6,2024-09-06_13h30.27.534,mdp,2024.2.1,Win32,59.88023952,66d7945b1baad48e845df3ce,,,,,,,,,,,,,,,,,,,,,120.477,120.4771,120.4784,121.8257,0,0,left,0.8237,,121.8265,121.827,,0,,121.8275,121.8279,,1,,1,121.828,121.828,121.8283,123.3261,0,1,1,1,1,0.8,0.2,0.4,0.6,1,0,,,,,,,,,,,,,,,,,,,,,,,,,,,,,,,,,,,,
,,5d3a286034acef001ceb73ac,66daf5d4532a9daaf63723f6,2024-09-06_13h30.27.534,mdp,2024.2.1,Win32,59.88023952,66d7945b1baad48e845df3ce,,,,,,,,,,,,,,,,,,,,,123.3266,123.3267,123.3285,124.3588,0,0,left,0.5093,,124.3592,124.3595,,0,,124.3598,124.3601,,0,,1,124.3602,124.3602,124.3604,125.8595,0,2,2,2,1,0.8,0.2,0.4,0.6,1,0,,,,,,,,,,,,,,,,,,,,,,,,,,,,,,,,,,,,
,,5d3a286034acef001ceb73ac,66daf5d4532a9daaf63723f6,2024-09-06_13h30.27.534,mdp,2024.2.1,Win32,59.88023952,66d7945b1baad48e845df3ce,,,,,,,,,,,,,,,,,,,,,125.86,125.86,125.8618,126.8086,0,1,left,0.4238,,126.8091,126.8094,,0,,126.8098,126.81,,0,,0,126.8101,126.8101,126.8102,128.3091,0,3,3,3,1,0.8,0.2,0.4,0.6,1,0,,,,,,,,,,,,,,,,,,,,,,,,,,,,,,,,,,,,
,,5d3a286034acef001ceb73ac,66daf5d4532a9daaf63723f6,2024-09-06_13h30.27.534,mdp,2024.2.1,Win32,59.88023952,66d7945b1baad48e845df3ce,,,,,,,,,,,,,,,,,,,,,128.3092,128.3092,128.3098,129.4929,1,0,right,0.6699,,129.4942,129.4952,,1,,129.4961,129.4971,,1,,1,129.4972,129.4972,129.4979,130.9927,0,4,4,4,1,0.8,0.2,0.4,0.6,1,0,,,,,,,,,,,,,,,,,,,,,,,,,,,,,,,,,,,,
,,5d3a286034acef001ceb73ac,66daf5d4532a9daaf63723f6,2024-09-06_13h30.27.534,mdp,2024.2.1,Win32,59.88023952,66d7945b1baad48e845df3ce,,,,,,,,,,,,,,,,,,,,,130.9932,130.9933,130.9951,132.0595,1,1,right,0.5389,,132.0609,132.0617,,1,,132.0627,132.0635,,1,,0,132.0636,132.0636,132.0644,133.5593,0,5,5,5,1,0.8,0.2,0.4,0.6,1,0,,,,,,,,,,,,,,,,,,,,,,,,,,,,,,,,,,,,
,,5d3a286034acef001ceb73ac,66daf5d4532a9daaf63723f6,2024-09-06_13h30.27.534,mdp,2024.2.1,Win32,59.88023952,66d7945b1baad48e845df3ce,,,,,,,,,,,,,,,,,,,,,133.56,133.56,133.5617,134.443,0,1,left,0.3506,,134.4443,134.4453,,0,,134.4463,134.4473,,0,,0,134.4474,134.4474,134.4477,135.9428,0,6,6,6,1,0.8,0.2,0.4,0.6,1,0,,,,,,,,,,,,,,,,,,,,,,,,,,,,,,,,,,,,
,,5d3a286034acef001ceb73ac,66daf5d4532a9daaf63723f6,2024-09-06_13h30.27.534,mdp,2024.2.1,Win32,59.88023952,66d7945b1baad48e845df3ce,,,,,,,,,,,,,,,,,,,,,135.9433,135.9433,135.9449,136.8595,0,0,left,0.3859,,136.8609,136.8618,,1,,136.8627,136.8636,,1,,1,136.8636,136.8636,136.8641,138.3594,0,7,7,7,1,0.8,0.2,0.4,0.6,1,0,,,,,,,,,,,,,,,,,,,,,,,,,,,,,,,,,,,,
,,5d3a286034acef001ceb73ac,66daf5d4532a9daaf63723f6,2024-09-06_13h30.27.534,mdp,2024.2.1,Win32,59.88023952,66d7945b1baad48e845df3ce,,,,,,,,,,,,,,,,,,,,,138.3599,138.3599,138.3612,139.2095,1,0,right,0.3156,,139.2108,139.2118,,0,,139.2128,139.2137,,1,,1,139.2137,139.2138,139.2141,140.7093,0,8,8,8,1,0.8,0.2,0.4,0.6,1,0,,,,,,,,,,,,,,,,,,,,,,,,,,,,,,,,,,,,
,,5d3a286034acef001ceb73ac,66daf5d4532a9daaf63723f6,2024-09-06_13h30.27.534,mdp,2024.2.1,Win32,59.88023952,66d7945b1baad48e845df3ce,,,,,,,,,,,,,,,,,,,,,140.7098,140.7099,140.7112,141.692,0,0,left,0.4529,,141.6925,141.6929,,0,,141.693,141.6932,,0,,1,141.6933,141.6933,141.6935,143.1924,0,9,9,9,1,0.8,0.2,0.4,0.6,1,0,,,,,,,,,,,,,,,,,,,,,,,,,,,,,,,,,,,,
,,5d3a286034acef001ceb73ac,66daf5d4532a9daaf63723f6,2024-09-06_13h30.27.534,mdp,2024.2.1,Win32,59.88023952,66d7945b1baad48e845df3ce,,,,,,,,,,,,,,,,,,,,,143.1926,143.1926,143.1933,144.092,0,0,left,0.3665,,144.0925,144.0928,,0,,144.0931,144.0934,,0,,1,144.0934,144.0934,144.0935,145.5927,0,10,10,10,1,0.8,0.2,0.4,0.6,1,0,,,,,,,,,,,,,,,,,,,,,,,,,,,,,,,,,,,,
,,5d3a286034acef001ceb73ac,66daf5d4532a9daaf63723f6,2024-09-06_13h30.27.534,mdp,2024.2.1,Win32,59.88023952,66d7945b1baad48e845df3ce,,,,,,,,,,,,,,,,,,,,,145.5932,145.5933,145.5945,146.6259,0,1,left,0.5054,,146.6272,146.6281,,1,,146.6289,146.6297,,1,,0,146.6298,146.6298,146.6307,148.1261,0,11,11,11,1,0.2,0.8,0.6,0.4,1,0,,,,,,,,,,,,,,,,,,,,,,,,,,,,,,,,,,,,
,,5d3a286034acef001ceb73ac,66daf5d4532a9daaf63723f6,2024-09-06_13h30.27.534,mdp,2024.2.1,Win32,59.88023952,66d7945b1baad48e845df3ce,,,,,,,,,,,,,,,,,,,,,148.1266,148.1266,148.1277,148.8924,0,1,left,0.2354,,148.8929,148.8933,,1,,148.8936,148.8938,,1,,0,148.8939,148.8939,148.894,150.3923,0,12,12,12,1,0.2,0.8,0.6,0.4,1,0,,,,,,,,,,,,,,,,,,,,,,,,,,,,,,,,,,,,
,,5d3a286034acef001ceb73ac,66daf5d4532a9daaf63723f6,2024-09-06_13h30.27.534,mdp,2024.2.1,Win32,59.88023952,66d7945b1baad48e845df3ce,,,,,,,,,,,,,,,,,,,,,150.3925,150.3925,150.3932,151.0421,1,1,right,0.1365,,151.0426,151.0429,,1,,151.0431,151.0433,,1,,0,151.0433,151.0433,151.0435,152.5425,0,13,13,13,1,0.8,0.2,0.2,0.8,1,0,,,,,,,,,,,,,,,,,,,,,,,,,,,,,,,,,,,,
,,5d3a286034acef001ceb73ac,66daf5d4532a9daaf63723f6,2024-09-06_13h30.27.534,mdp,2024.2.1,Win32,59.88023952,66d7945b1baad48e845df3ce,,,,,,,,,,,,,,,,,,,,,152.543,152.5431,152.5443,153.5587,0,1,left,0.4927,,153.5592,153.5595,,1,,153.5598,153.5599,,1,,0,153.5599,153.5599,153.5601,155.059,0,14,14,14,1,0.6,0.4,0.4,0.6,1,0,,,,,,,,,,,,,,,,,,,,,,,,,,,,,,,,,,,,
,,5d3a286034acef001ceb73ac,66daf5d4532a9daaf63723f6,2024-09-06_13h30.27.534,mdp,2024.2.1,Win32,59.88023952,66d7945b1baad48e845df3ce,,,,,,,,,,,,,,,,,,,,,155.0592,155.0592,155.0597,155.7921,0,0,left,0.2225,,155.7926,155.7929,,1,,155.7932,155.7934,,1,,1,155.7934,155.7934,155.7936,157.2928,0,15,15,15,1,0.6,0.4,0.4,0.6,1,0,,,,,,,,,,,,,,,,,,,,,,,,,,,,,,,,,,,,
,,5d3a286034acef001ceb73ac,66daf5d4532a9daaf63723f6,2024-09-06_13h30.27.534,mdp,2024.2.1,Win32,59.88023952,66d7945b1baad48e845df3ce,,,,,,,,,,,,,,,,,,,,,157.2933,157.2933,157.2946,158.0762,1,1,right,0.2526,,158.0778,158.079,,1,,158.0799,158.0802,,1,,0,158.0802,158.0802,158.0805,159.5752,0,16,16,16,1,0.6,0.4,0.4,0.6,1,0,,,,,,,,,,,,,,,,,,,,,,,,,,,,,,,,,,,,
,,5d3a286034acef001ceb73ac,66daf5d4532a9daaf63723f6,2024-09-06_13h30.27.534,mdp,2024.2.1,Win32,59.88023952,66d7945b1baad48e845df3ce,,,,,,,,,,,,,,,,,,,,,159.5754,159.5754,159.5759,160.4254,0,1,left,0.3347,,160.426,160.4263,,1,,160.4265,160.4268,,1,,0,160.4268,160.4268,160.4271,161.9257,0,17,17,17,1,0.4,0.6,0.6,0.4,1,0,,,,,,,,,,,,,,,,,,,,,,,,,,,,,,,,,,,,
,,5d3a286034acef001ceb73ac,66daf5d4532a9daaf63723f6,2024-09-06_13h30.27.534,mdp,2024.2.1,Win32,59.88023952,66d7945b1baad48e845df3ce,,,,,,,,,,,,,,,,,,,,,161.9259,161.9259,161.9267,162.6921,0,0,left,0.2334,,162.6926,162.6929,,0,,162.6931,162.6933,,0,,1,162.6933,162.6933,162.6936,164.1923,0,18,18,18,1,0.8,0.2,0.4,0.6,1,0,,,,,,,,,,,,,,,,,,,,,,,,,,,,,,,,,,,,
,,5d3a286034acef001ceb73ac,66daf5d4532a9daaf63723f6,2024-09-06_13h30.27.534,mdp,2024.2.1,Win32,59.88023952,66d7945b1baad48e845df3ce,,,,,,,,,,,,,,,,,,,,,164.1925,164.1925,164.1933,165.1922,0,1,left,0.4752,,165.1926,165.1929,,0,,165.1932,165.1933,,1,,0,165.1933,165.1933,165.1935,166.6923,0,19,19,19,1,0.2,0.8,0.8,0.2,1,0,,,,,,,,,,,,,,,,,,,,,,,,,,,,,,,,,,,,
,,5d3a286034acef001ceb73ac,66daf5d4532a9daaf63723f6,2024-09-06_13h30.27.534,mdp,2024.2.1,Win32,59.88023952,66d7945b1baad48e845df3ce,,,,,,,,,,,,,,,,,,,,,166.6925,166.6925,166.6931,167.7088,0,1,left,0.5093,,167.7091,167.7095,,0,,167.7097,167.71,,0,,0,167.71,167.71,167.7101,169.2094,0,20,20,20,1,0.2,0.8,0.8,0.2,1,0,,,,,,,,,,,,,,,,,,,,,,,,,,,,,,,,,,,,
,,5d3a286034acef001ceb73ac,66daf5d4532a9daaf63723f6,2024-09-06_13h30.27.534,mdp,2024.2.1,Win32,59.88023952,66d7945b1baad48e845df3ce,,,,,,,,,,,,,,,,,,,,,169.2099,169.21,169.2111,169.8256,1,0,right,0.0832,,169.8262,169.8266,,0,,169.8269,169.8271,,0,,1,169.8271,169.8271,169.8274,171.3256,0,21,21,21,1,0.2,0.8,0.8,0.2,1,0,,,,,,,,,,,,,,,,,,,,,,,,,,,,,,,,,,,,
,,5d3a286034acef001ceb73ac,66daf5d4532a9daaf63723f6,2024-09-06_13h30.27.534,mdp,2024.2.1,Win32,59.88023952,66d7945b1baad48e845df3ce,,,,,,,,,,,,,,,,,,,,,171.3257,171.3257,171.3262,172.092,0,0,left,0.2418,,172.0925,172.0927,,0,,172.093,172.0932,,1,,1,172.0932,172.0932,172.0933,173.5926,0,22,22,22,1,0.2,0.8,0.8,0.2,1,0,,,,,,,,,,,,,,,,,,,,,,,,,,,,,,,,,,,,
,,5d3a286034acef001ceb73ac,66daf5d4532a9daaf63723f6,2024-09-06_13h30.27.534,mdp,2024.2.1,Win32,59.88023952,66d7945b1baad48e845df3ce,,,,,,,,,,,,,,,,,,,,,173.5931,173.5932,173.5944,174.3587,1,0,right,0.2384,,174.3592,174.3594,,1,,174.3597,174.3599,,0,,1,174.3599,174.3599,174.3601,175.8593,0,23,23,23,1,0.8,0.2,0.6,0.4,1,0,,,,,,,,,,,,,,,,,,,,,,,,,,,,,,,,,,,,
,,5d3a286034acef001ceb73ac,66daf5d4532a9daaf63723f6,2024-09-06_13h30.27.534,mdp,2024.2.1,Win32,59.88023952,66d7945b1baad48e845df3ce,,,,,,,,,,,,,,,,,,,,,175.8598,175.8598,175.861,176.5927,0,0,left,0.1986,,176.594,176.595,,0,,176.5959,176.5967,,0,,1,176.5968,176.5968,176.5976,178.0924,0,24,24,24,1,0.8,0.2,0.6,0.4,1,0,,,,,,,,,,,,,,,,,,,,,,,,,,,,,,,,,,,,
,,5d3a286034acef001ceb73ac,66daf5d4532a9daaf63723f6,2024-09-06_13h30.27.534,mdp,2024.2.1,Win32,59.88023952,66d7945b1baad48e845df3ce,,,,,,,,,,,,,,,,,,,,,178.0926,178.0926,178.0931,179.092,0,0,left,0.492,,179.0925,179.0927,,1,,179.093,179.0932,,0,,1,179.0932,179.0932,179.0934,180.5922,0,25,25,25,1,0.8,0.2,0.6,0.4,1,0,,,,,,,,,,,,,,,,,,,,,,,,,,,,,,,,,,,,
,,5d3a286034acef001ceb73ac,66daf5d4532a9daaf63723f6,2024-09-06_13h30.27.534,mdp,2024.2.1,Win32,59.88023952,66d7945b1baad48e845df3ce,,,,,,,,,,,,,,,,,,,,,180.5925,180.5925,180.5932,181.3922,1,0,right,0.2735,,181.3925,181.3928,,0,,181.393,181.3933,,0,,1,181.3933,181.3933,181.3935,182.8923,0,26,26,26,1,0.8,0.2,0.6,0.4,1,0,,,,,,,,,,,,,,,,,,,,,,,,,,,,,,,,,,,,
,,5d3a286034acef001ceb73ac,66daf5d4532a9daaf63723f6,2024-09-06_13h30.27.534,mdp,2024.2.1,Win32,59.88023952,66d7945b1baad48e845df3ce,,,,,,,,,,,,,,,,,,,,,182.8925,182.8925,182.893,183.659,0,0,left,0.25,,183.6594,183.6598,,0,,183.6601,183.6603,,0,,1,183.6603,183.6603,183.6605,185.1595,0,27,27,27,1,0.8,0.2,0.6,0.4,1,0,,,,,,,,,,,,,,,,,,,,,,,,,,,,,,,,,,,,
,,5d3a286034acef001ceb73ac,66daf5d4532a9daaf63723f6,2024-09-06_13h30.27.534,mdp,2024.2.1,Win32,59.88023952,66d7945b1baad48e845df3ce,,,,,,,,,,,,,,,,,,,,,185.16,185.16,185.1611,185.9092,0,1,left,0.2264,,185.9097,185.9099,,1,,185.9101,185.9103,,0,,0,185.9104,185.9104,185.9105,187.4095,0,28,28,28,1,0.4,0.6,0.8,0.2,1,0,,,,,,,,,,,,,,,,,,,,,,,,,,,,,,,,,,,,
,,5d3a286034acef001ceb73ac,66daf5d4532a9daaf63723f6,2024-09-06_13h30.27.534,mdp,2024.2.1,Win32,59.88023952,66d7945b1baad48e845df3ce,,,,,,,,,,,,,,,,,,,,,187.41,187.41,187.4112,188.0258,0,0,left,0.0895,,188.0271,188.0281,,1,,188.0295,188.0303,,0,,1,188.0304,188.0304,188.0311,189.5257,0,29,29,29,1,0.4,0.6,0.8,0.2,1,0,,,,,,,,,,,,,,,,,,,,,,,,,,,,,,,,,,,,
,,5d3a286034acef001ceb73ac,66daf5d4532a9daaf63723f6,2024-09-06_13h30.27.534,mdp,2024.2.1,Win32,59.88023952,66d7945b1baad48e845df3ce,,,,,,,,,,,,,,,,,,,,,189.526,189.526,189.5267,190.2759,1,0,right,0.2193,,190.2772,190.2781,,0,,190.279,190.2792,,0,,1,190.2793,190.2793,190.2795,191.7763,0,30,30,30,1,0.4,0.6,0.8,0.2,1,0,,,,,,,,,,,,,,,,,,,,,,,,,,,,,,,,,,,,
,,5d3a286034acef001ceb73ac,66daf5d4532a9daaf63723f6,2024-09-06_13h30.27.534,mdp,2024.2.1,Win32,59.88023952,66d7945b1baad48e845df3ce,,,,,,,,,,,,,,,,,,,,,191.7768,191.7768,191.7781,192.5762,0,1,left,0.2663,,192.5778,192.5788,,0,,192.5798,192.5807,,1,,0,192.5808,192.5808,192.5817,194.0759,0,31,31,31,1,0.4,0.6,0.8,0.2,1,0,,,,,,,,,,,,,,,,,,,,,,,,,,,,,,,,,,,,
,,5d3a286034acef001ceb73ac,66daf5d4532a9daaf63723f6,2024-09-06_13h30.27.534,mdp,2024.2.1,Win32,59.88023952,66d7945b1baad48e845df3ce,,,,,,,,,,,,,,,,,,,,,194.0764,194.0764,194.0774,194.7421,0,0,left,0.1411,,194.7425,194.7428,,0,,194.743,194.7432,,1,,1,194.7432,194.7432,194.7434,196.2427,0,32,32,32,1,0.4,0.6,0.8,0.2,1,0,,,,,,,,,,,,,,,,,,,,,,,,,,,,,,,,,,,,
,,5d3a286034acef001ceb73ac,66daf5d4532a9daaf63723f6,2024-09-06_13h30.27.534,mdp,2024.2.1,Win32,59.88023952,66d7945b1baad48e845df3ce,,,,,,,,,,,,,,,,,,,,,196.2432,196.2432,196.2444,196.9421,1,0,right,0.1756,,196.9425,196.9428,,0,,196.9429,196.9431,,1,,1,196.9431,196.9431,196.9434,198.4425,0,33,33,33,1,0.4,0.6,0.8,0.2,1,0,,,,,,,,,,,,,,,,,,,,,,,,,,,,,,,,,,,,
,,5d3a286034acef001ceb73ac,66daf5d4532a9daaf63723f6,2024-09-06_13h30.27.534,mdp,2024.2.1,Win32,59.88023952,66d7945b1baad48e845df3ce,,,,,,,,,,,,,,,,,,,,,198.4425,198.4425,198.4431,199.1429,1,0,right,0.1836,,199.1442,199.1452,,0,,199.146,199.1468,,0,,1,199.1469,199.1469,199.1476,200.6428,0,34,34,34,1,0.4,0.6,0.8,0.2,1,0,,,,,,,,,,,,,,,,,,,,,,,,,,,,,,,,,,,,
,,5d3a286034acef001ceb73ac,66daf5d4532a9daaf63723f6,2024-09-06_13h30.27.534,mdp,2024.2.1,Win32,59.88023952,66d7945b1baad48e845df3ce,,,,,,,,,,,,,,,,,,,,,200.6434,200.6434,200.6448,201.3928,0,0,left,0.2163,,201.3942,201.3951,,1,,201.3959,201.3967,,0,,1,201.3967,201.3967,201.3975,202.8928,0,35,35,35,1,0.8,0.2,0.2,0.8,1,0,,,,,,,,,,,,,,,,,,,,,,,,,,,,,,,,,,,,
,,5d3a286034acef001ceb73ac,66daf5d4532a9daaf63723f6,2024-09-06_13h30.27.534,mdp,2024.2.1,Win32,59.88023952,66d7945b1baad48e845df3ce,,,,,,,,,,,,,,,,,,,,,202.8932,202.8932,202.8944,203.5595,1,1,right,0.1332,,203.5608,203.5616,,0,,203.5626,203.5636,,0,,0,203.5636,203.5636,203.5638,205.059,0,36,36,36,1,0.8,0.2,0.2,0.8,1,0,,,,,,,,,,,,,,,,,,,,,,,,,,,,,,,,,,,,
,,5d3a286034acef001ceb73ac,66daf5d4532a9daaf63723f6,2024-09-06_13h30.27.534,mdp,2024.2.1,Win32,59.88023952,66d7945b1baad48e845df3ce,,,,,,,,,,,,,,,,,,,,,205.0593,205.0593,205.0599,205.7087,1,1,right,0.1246,,205.7091,205.7094,,0,,205.7096,205.7098,,0,,0,205.7098,205.7098,205.71,207.2094,0,37,37,37,1,0.6,0.4,0.8,0.2,1,0,,,,,,,,,,,,,,,,,,,,,,,,,,,,,,,,,,,,
,,5d3a286034acef001ceb73ac,66daf5d4532a9daaf63723f6,2024-09-06_13h30.27.534,mdp,2024.2.1,Win32,59.88023952,66d7945b1baad48e845df3ce,,,,,,,,,,,,,,,,,,,,,207.2098,207.2098,207.211,207.9426,1,1,right,0.2002,,207.9439,207.9448,,0,,207.9456,207.9465,,0,,0,207.9466,207.9466,207.9473,209.4422,0,38,38,38,1,0.8,0.2,0.6,0.4,1,0,,,,,,,,,,,,,,,,,,,,,,,,,,,,,,,,,,,,
,,5d3a286034acef001ceb73ac,66daf5d4532a9daaf63723f6,2024-09-06_13h30.27.534,mdp,2024.2.1,Win32,59.88023952,66d7945b1baad48e845df3ce,,,,,,,,,,,,,,,,,,,,,209.4423,209.4423,209.4429,210.0261,0,0,left,0.0673,,210.0275,210.0283,,0,,210.0296,210.03,,0,,1,210.0301,210.0301,210.0302,211.5257,0,39,39,39,1,0.8,0.2,0.6,0.4,1,0,,,,,,,,,,,,,,,,,,,,,,,,,,,,,,,,,,,,
,,5d3a286034acef001ceb73ac,66daf5d4532a9daaf63723f6,2024-09-06_13h30.27.534,mdp,2024.2.1,Win32,59.88023952,66d7945b1baad48e845df3ce,,,,,,,,,,,,,,,,,,,,,211.5259,211.526,211.5271,212.276,1,0,right,0.2182,,212.2773,212.2782,,0,,212.2791,212.2799,,0,,1,212.28,212.28,212.2808,213.776,0,40,40,40,1,0.2,0.8,0.8,0.2,1,0,,,,,,,,,,,,,,,,,,,,,,,,,,,,,,,,,,,,
,,5d3a286034acef001ceb73ac,66daf5d4532a9daaf63723f6,2024-09-06_13h30.27.534,mdp,2024.2.1,Win32,59.88023952,66d7945b1baad48e845df3ce,,,,,,,,,,,,,,,,,,,,,213.7765,213.7765,213.7776,214.5928,0,1,left,0.2838,,214.5942,214.5952,,1,,214.5962,214.5968,,0,,0,214.5968,214.5968,214.597,216.0928,0,41,41,41,1,0.2,0.8,0.8,0.2,1,0,,,,,,,,,,,,,,,,,,,,,,,,,,,,,,,,,,,,
,,5d3a286034acef001ceb73ac,66daf5d4532a9daaf63723f6,2024-09-06_13h30.27.534,mdp,2024.2.1,Win32,59.88023952,66d7945b1baad48e845df3ce,,,,,,,,,,,,,,,,,,,,,216.0932,216.0932,216.0944,216.8921,0,1,left,0.2751,,216.8925,216.8928,,1,,216.8929,216.8931,,1,,0,216.8931,216.8931,216.8933,218.3928,0,42,42,42,1,0.2,0.8,0.8,0.2,1,0,,,,,,,,,,,,,,,,,,,,,,,,,,,,,,,,,,,,
,,5d3a286034acef001ceb73ac,66daf5d4532a9daaf63723f6,2024-09-06_13h30.27.534,mdp,2024.2.1,Win32,59.88023952,66d7945b1baad48e845df3ce,,,,,,,,,,,,,,,,,,,,,218.3933,218.3933,218.3944,219.076,1,0,right,0.1498,,219.0773,219.0785,,0,,219.0797,219.0808,,0,,1,219.081,219.081,219.0814,220.5755,0,43,43,43,1,0.2,0.8,0.8,0.2,1,0,,,,,,,,,,,,,,,,,,,,,,,,,,,,,,,,,,,,
,,5d3a286034acef001ceb73ac,66daf5d4532a9daaf63723f6,2024-09-06_13h30.27.534,mdp,2024.2.1,Win32,59.88023952,66d7945b1baad48e845df3ce,,,,,,,,,,,,,,,,,,,,,220.5757,220.5757,220.5761,221.3087,1,0,right,0.2114,,221.3091,221.3093,,0,,221.3095,221.3097,,0,,1,221.3097,221.3097,221.3099,222.8093,0,44,44,44,1,0.2,0.8,0.8,0.2,1,0,,,,,,,,,,,,,,,,,,,,,,,,,,,,,,,,,,,,
,,5d3a286034acef001ceb73ac,66daf5d4532a9daaf63723f6,2024-09-06_13h30.27.534,mdp,2024.2.1,Win32,59.88023952,66d7945b1baad48e845df3ce,,,,,,,,,,,,,,,,,,,,,222.8098,222.8098,222.811,223.5922,1,1,right,0.2493,,223.5927,223.593,,0,,223.5932,223.5933,,0,,0,223.5934,223.5934,223.5936,225.0927,0,45,45,45,1,0.2,0.8,0.8,0.2,1,0,,,,,,,,,,,,,,,,,,,,,,,,,,,,,,,,,,,,
,,5d3a286034acef001ceb73ac,66daf5d4532a9daaf63723f6,2024-09-06_13h30.27.534,mdp,2024.2.1,Win32,59.88023952,66d7945b1baad48e845df3ce,,,,,,,,,,,,,,,,,,,,,225.0934,225.0934,225.0945,226.0759,0,1,left,0.4501,,226.077,226.0779,,1,,226.0781,226.0784,,1,,0,226.0784,226.0784,226.0786,227.5762,0,46,46,46,1,0.2,0.8,0.8,0.2,1,0,,,,,,,,,,,,,,,,,,,,,,,,,,,,,,,,,,,,
,,5d3a286034acef001ceb73ac,66daf5d4532a9daaf63723f6,2024-09-06_13h30.27.534,mdp,2024.2.1,Win32,59.88023952,66d7945b1baad48e845df3ce,,,,,,,,,,,,,,,,,,,,,227.5766,227.5766,227.5778,228.2257,1,0,right,0.1173,,228.2263,228.2266,,1,,228.2269,228.2272,,0,,1,228.2272,228.2272,228.2275,229.7261,0,47,47,47,1,0.2,0.8,0.8,0.2,1,0,,,,,,,,,,,,,,,,,,,,,,,,,,,,,,,,,,,,
,,5d3a286034acef001ceb73ac,66daf5d4532a9daaf63723f6,2024-09-06_13h30.27.534,mdp,2024.2.1,Win32,59.88023952,66d7945b1baad48e845df3ce,,,,,,,,,,,,,,,,,,,,,229.7265,229.7266,229.7276,230.509,1,0,right,0.2515,,230.5096,230.5099,,0,,230.5102,230.5105,,0,,1,230.5105,230.5105,230.5107,232.0094,0,48,48,48,1,0.2,0.8,0.8,0.2,1,0,,,,,,,,,,,,,,,,,,,,,,,,,,,,,,,,,,,,
,,5d3a286034acef001ceb73ac,66daf5d4532a9daaf63723f6,2024-09-06_13h30.27.534,mdp,2024.2.1,Win32,59.88023952,66d7945b1baad48e845df3ce,,,,,,,,,,,,,,,,,,,,,232.0098,232.0098,232.011,232.9255,1,0,right,0.3919,,232.9259,232.9261,,0,,232.9263,232.9265,,0,,1,232.9265,232.9265,232.9268,234.4261,0,49,49,49,1,0.2,0.8,0.8,0.2,1,0,,,,,,,,,,,,,,,,,,,,,,,,,,,,,,,,,,,,
,,5d3a286034acef001ceb73ac,66daf5d4532a9daaf63723f6,2024-09-06_13h30.27.534,mdp,2024.2.1,Win32,59.88023952,66d7945b1baad48e845df3ce,,,,,,,,,,,,,,,,,,,,,,,,,,,,,,,,,,,,,,,,,,,,,,,,,,,,,,,,234.4272,272.9852,0,0,0,2,1,imgs/goat.png,imgs/elephant.png,imgs/kangaroo.png,imgs/bear.png,imgs/lion.png,,,,,,,,,,,,,,,,,,,,,,,,
,,5d3a286034acef001ceb73ac,66daf5d4532a9daaf63723f6,2024-09-06_13h30.27.534,mdp,2024.2.1,Win32,59.88023952,66d7945b1baad48e845df3ce,,,,,,,,,,,,,,2,seqs/st2seq41.csv,272.9908,299.1088,space,25.6118,,299.1163,299.1163,299.1166,300.1761,0,0,left,0.5407,,300.1774,301.4429,1,1,right,301.4443,301.4451,,1,,0,301.4452,301.4452,301.4461,302.9429,0,0,0,0,1,0.8,0.2,0.2,0.8,,,,,,,,,,,,,,,0.7325,,0.6,0.4,0.2,0.8,0.8,0.2,0.4,0.6,1,0,,,,,,,,,,,,
,,5d3a286034acef001ceb73ac,66daf5d4532a9daaf63723f6,2024-09-06_13h30.27.534,mdp,2024.2.1,Win32,59.88023952,66d7945b1baad48e845df3ce,,,,,,,,,,,,,,,,,,,,,302.9436,302.9436,302.9451,303.7422,0,1,left,0.2723,,303.7426,305.0259,1,0,right,305.0265,305.0267,,1,,1,305.0268,305.0268,305.027,306.5262,0,1,1,1,1,0.8,0.2,0.2,0.8,,,,,,,,,,,,,,,0.7514,,0.6,0.4,0.2,0.8,0.8,0.2,0.4,0.6,1,0,,,,,,,,,,,,
,,5d3a286034acef001ceb73ac,66daf5d4532a9daaf63723f6,2024-09-06_13h30.27.534,mdp,2024.2.1,Win32,59.88023952,66d7945b1baad48e845df3ce,,,,,,,,,,,,,,,,,,,,,306.5268,306.5268,306.5279,307.4928,0,1,left,0.4346,,307.4933,308.5759,0,0,left,308.5763,308.5766,,1,,1,308.5766,308.5766,308.5768,310.0754,0,2,2,2,1,0.8,0.2,0.2,0.8,,,,,,,,,,,,,,,0.5536,,0.6,0.4,0.2,0.8,0.8,0.2,0.4,0.6,1,0,,,,,,,,,,,,
,,5d3a286034acef001ceb73ac,66daf5d4532a9daaf63723f6,2024-09-06_13h30.27.534,mdp,2024.2.1,Win32,59.88023952,66d7945b1baad48e845df3ce,,,,,,,,,,,,,,,,,,,,,310.0756,310.0756,310.076,310.959,0,0,left,0.3653,,310.9593,312.3429,0,0,left,312.3441,312.3448,,1,,1,312.3448,312.3448,312.3456,313.8427,0,3,3,3,1,0.8,0.2,0.2,0.8,,,,,,,,,,,,,,,0.8652,,0.6,0.4,0.2,0.8,0.8,0.2,0.4,0.6,1,0,,,,,,,,,,,,
,,5d3a286034acef001ceb73ac,66daf5d4532a9daaf63723f6,2024-09-06_13h30.27.534,mdp,2024.2.1,Win32,59.88023952,66d7945b1baad48e845df3ce,,,,,,,,,,,,,,,,,,,,,313.8432,313.8432,313.8442,314.8256,0,0,left,0.4555,,314.826,316.093,0,0,left,316.0941,316.0951,,1,,1,316.0951,316.0951,316.096,317.5927,0,4,4,4,1,0.8,0.2,0.2,0.8,,,,,,,,,,,,,,,0.7498,,0.6,0.4,0.2,0.8,0.8,0.2,0.4,0.6,1,0,,,,,,,,,,,,
,,5d3a286034acef001ceb73ac,66daf5d4532a9daaf63723f6,2024-09-06_13h30.27.534,mdp,2024.2.1,Win32,59.88023952,66d7945b1baad48e845df3ce,,,,,,,,,,,,,,,,,,,,,317.5932,317.5932,317.5942,318.5089,0,0,left,0.3938,,318.5092,319.6924,0,0,left,319.693,319.6933,,0,,1,319.6933,319.6933,319.6935,321.1928,0,5,5,5,1,0.8,0.2,0.2,0.8,,,,,,,,,,,,,,,0.667,,0.6,0.4,0.2,0.8,0.8,0.2,0.4,0.6,1,0,,,,,,,,,,,,
,,5d3a286034acef001ceb73ac,66daf5d4532a9daaf63723f6,2024-09-06_13h30.27.534,mdp,2024.2.1,Win32,59.88023952,66d7945b1baad48e845df3ce,,,,,,,,,,,,,,,,,,,,,321.1933,321.1933,321.1944,322.0422,0,0,left,0.324,,322.0427,323.026,0,1,left,323.0272,323.0281,,1,,0,323.0281,323.0282,323.0291,324.5262,0,6,6,6,1,0.8,0.2,0.2,0.8,,,,,,,,,,,,,,,0.473,,0.6,0.4,0.2,0.8,0.8,0.2,0.4,0.6,1,0,,,,,,,,,,,,
,,5d3a286034acef001ceb73ac,66daf5d4532a9daaf63723f6,2024-09-06_13h30.27.534,mdp,2024.2.1,Win32,59.88023952,66d7945b1baad48e845df3ce,,,,,,,,,,,,,,,,,,,,,324.5267,324.5267,324.5278,325.4431,0,0,left,0.3834,,325.4442,326.5263,1,1,right,326.5275,326.5282,,1,,0,326.5283,326.5283,326.529,328.0258,0,7,7,7,1,0.8,0.2,0.2,0.8,,,,,,,,,,,,,,,0.5513,,0.6,0.4,0.2,0.8,0.8,0.2,0.4,0.6,1,0,,,,,,,,,,,,
,,5d3a286034acef001ceb73ac,66daf5d4532a9daaf63723f6,2024-09-06_13h30.27.534,mdp,2024.2.1,Win32,59.88023952,66d7945b1baad48e845df3ce,,,,,,,,,,,,,,,,,,,,,328.0259,328.0259,328.0265,328.9258,0,0,left,0.3849,,328.9264,329.6756,0,1,left,329.6761,329.6763,,1,,0,329.6764,329.6764,329.6766,331.176,0,8,8,8,1,0.8,0.2,0.2,0.8,,,,,,,,,,,,,,,0.237,,0.6,0.4,0.2,0.8,0.8,0.2,0.4,0.6,1,0,,,,,,,,,,,,
,,5d3a286034acef001ceb73ac,66daf5d4532a9daaf63723f6,2024-09-06_13h30.27.534,mdp,2024.2.1,Win32,59.88023952,66d7945b1baad48e845df3ce,,,,,,,,,,,,,,,,,,,,,331.1765,331.1765,331.1776,332.0759,0,0,left,0.3701,,332.0765,333.2922,0,0,left,333.2926,333.2929,,0,,1,333.2929,333.2929,333.2932,334.793,0,9,9,9,1,0.8,0.2,0.2,0.8,,,,,,,,,,,,,,,0.7103,,0.6,0.4,0.2,0.8,0.8,0.2,0.4,0.6,1,0,,,,,,,,,,,,
,,5d3a286034acef001ceb73ac,66daf5d4532a9daaf63723f6,2024-09-06_13h30.27.534,mdp,2024.2.1,Win32,59.88023952,66d7945b1baad48e845df3ce,,,,,,,,,,,,,,,,,,,,,334.7934,334.7935,334.7946,335.6094,0,0,left,0.2844,,335.6105,336.4095,1,0,right,336.4107,336.4114,,1,,1,336.4115,336.4115,336.4122,337.9093,0,10,10,10,1,0.8,0.2,0.2,0.8,,,,,,,,,,,,,,,0.282,,0.6,0.4,0.2,0.8,0.8,0.2,0.4,0.6,1,0,,,,,,,,,,,,
,,5d3a286034acef001ceb73ac,66daf5d4532a9daaf63723f6,2024-09-06_13h30.27.534,mdp,2024.2.1,Win32,59.88023952,66d7945b1baad48e845df3ce,,,,,,,,,,,,,,,,,,,,,337.9095,337.9095,337.91,338.7256,0,0,left,0.2857,,338.7261,339.8589,1,1,right,339.8593,339.8595,,1,,0,339.8595,339.8595,339.8597,341.3595,0,11,11,11,1,0.8,0.2,0.2,0.8,,,,,,,,,,,,,,,0.6207,,0.6,0.4,0.2,0.8,0.8,0.2,0.4,0.6,1,0,,,,,,,,,,,,
,,5d3a286034acef001ceb73ac,66daf5d4532a9daaf63723f6,2024-09-06_13h30.27.534,mdp,2024.2.1,Win32,59.88023952,66d7945b1baad48e845df3ce,,,,,,,,,,,,,,,,,,,,,341.36,341.36,341.3611,342.1923,0,0,left,0.299,,342.1927,342.9923,1,1,right,342.9927,342.9931,,1,,0,342.9931,342.9931,342.9933,344.4929,0,12,12,12,1,0.8,0.2,0.2,0.8,,,,,,,,,,,,,,,0.2887,,0.6,0.4,0.2,0.8,0.8,0.2,0.4,0.6,1,0,,,,,,,,,,,,
,,5d3a286034acef001ceb73ac,66daf5d4532a9daaf63723f6,2024-09-06_13h30.27.534,mdp,2024.2.1,Win32,59.88023952,66d7945b1baad48e845df3ce,,,,,,,,,,,,,,,,,,,,,344.4933,344.4933,344.4944,345.2755,0,0,left,0.2503,,345.276,346.0593,0,1,left,346.0606,346.061,,0,,0,346.061,346.061,346.0612,347.5597,0,13,13,13,1,0.8,0.2,0.2,0.8,,,,,,,,,,,,,,,0.2673,,0.6,0.4,0.2,0.8,0.8,0.2,0.4,0.6,1,0,,,,,,,,,,,,
,,5d3a286034acef001ceb73ac,66daf5d4532a9daaf63723f6,2024-09-06_13h30.27.534,mdp,2024.2.1,Win32,59.88023952,66d7945b1baad48e845df3ce,,,,,,,,,,,,,,,,,,,,,347.5601,347.5601,347.5613,348.3757,0,1,left,0.2835,,348.3763,349.0924,0,0,left,349.093,349.0932,,1,,1,349.0932,349.0932,349.0935,350.5927,0,14,14,14,1,0.8,0.2,0.2,0.8,,,,,,,,,,,,,,,0.1993,,0.6,0.4,0.2,0.8,0.8,0.2,0.4,0.6,1,0,,,,,,,,,,,,
,,5d3a286034acef001ceb73ac,66daf5d4532a9daaf63723f6,2024-09-06_13h30.27.534,mdp,2024.2.1,Win32,59.88023952,66d7945b1baad48e845df3ce,,,,,,,,,,,,,,,,,,,,,350.5932,350.5932,350.5942,351.3422,0,0,left,0.2252,,351.3427,352.659,0,0,left,352.6596,352.66,,0,,1,352.66,352.66,352.6602,354.1597,0,15,15,15,1,0.8,0.2,0.2,0.8,,,,,,,,,,,,,,,0.8009,,0.6,0.4,0.2,0.8,0.8,0.2,0.4,0.6,1,0,,,,,,,,,,,,
,,5d3a286034acef001ceb73ac,66daf5d4532a9daaf63723f6,2024-09-06_13h30.27.534,mdp,2024.2.1,Win32,59.88023952,66d7945b1baad48e845df3ce,,,,,,,,,,,,,,,,,,,,,354.1603,354.1603,354.1614,354.9927,0,0,left,0.3053,,354.994,355.7761,1,1,right,355.7773,355.778,,0,,0,355.7782,355.7782,355.7786,357.2759,0,16,16,16,1,0.8,0.2,0.2,0.8,,,,,,,,,,,,,,,0.2565,,0.6,0.4,0.2,0.8,0.8,0.2,0.4,0.6,1,0,,,,,,,,,,,,
,,5d3a286034acef001ceb73ac,66daf5d4532a9daaf63723f6,2024-09-06_13h30.27.534,mdp,2024.2.1,Win32,59.88023952,66d7945b1baad48e845df3ce,,,,,,,,,,,,,,,,,,,,,357.276,357.276,357.2765,358.093,0,1,left,0.2859,,358.0943,359.0259,0,0,left,359.0264,359.0268,,0,,1,359.0268,359.0268,359.0271,360.526,0,17,17,17,1,0.8,0.2,0.2,0.8,,,,,,,,,,,,,,,0.3994,,0.6,0.4,0.2,0.8,0.8,0.2,0.4,0.6,1,0,,,,,,,,,,,,
,,5d3a286034acef001ceb73ac,66daf5d4532a9daaf63723f6,2024-09-06_13h30.27.534,mdp,2024.2.1,Win32,59.88023952,66d7945b1baad48e845df3ce,,,,,,,,,,,,,,,,,,,,,360.5264,360.5264,360.5275,361.3255,0,0,left,0.2774,,361.3259,362.1258,0,0,left,362.1264,362.1268,,1,,1,362.1268,362.1268,362.127,363.6263,0,18,18,18,1,0.8,0.2,0.2,0.8,,,,,,,,,,,,,,,0.2789,,0.6,0.4,0.2,0.8,0.8,0.2,0.4,0.6,1,0,,,,,,,,,,,,
,,5d3a286034acef001ceb73ac,66daf5d4532a9daaf63723f6,2024-09-06_13h30.27.534,mdp,2024.2.1,Win32,59.88023952,66d7945b1baad48e845df3ce,,,,,,,,,,,,,,,,,,,,,363.6267,363.6268,363.6278,364.343,0,1,left,0.1841,,364.3442,365.576,0,0,left,365.5771,365.578,,1,,1,365.5781,365.5781,365.5788,367.076,0,19,19,19,1,0.8,0.2,0.2,0.8,,,,,,,,,,,,,,,0.6977,,0.6,0.4,0.2,0.8,0.8,0.2,0.4,0.6,1,0,,,,,,,,,,,,
,,5d3a286034acef001ceb73ac,66daf5d4532a9daaf63723f6,2024-09-06_13h30.27.534,mdp,2024.2.1,Win32,59.88023952,66d7945b1baad48e845df3ce,,,,,,,,,,,,,,,,,,,,,367.0765,367.0765,367.0776,367.8593,0,0,left,0.2501,,367.8606,368.476,1,1,right,368.4772,368.4781,,0,,0,368.4781,368.4781,368.479,369.9763,0,20,20,20,1,0.8,0.2,0.2,0.8,,,,,,,,,,,,,,,0.0995,,0.6,0.4,0.2,0.8,0.8,0.2,0.4,0.6,1,0,,,,,,,,,,,,
,,5d3a286034acef001ceb73ac,66daf5d4532a9daaf63723f6,2024-09-06_13h30.27.534,mdp,2024.2.1,Win32,59.88023952,66d7945b1baad48e845df3ce,,,,,,,,,,,,,,,,,,,,,369.9767,369.9767,369.9779,370.7758,0,0,left,0.2677,,370.7764,371.7423,0,1,left,371.7427,371.7431,,1,,0,371.7431,371.7431,371.7433,373.2428,0,21,21,21,1,0.8,0.2,0.2,0.8,,,,,,,,,,,,,,,0.4593,,0.6,0.4,0.2,0.8,0.8,0.2,0.4,0.6,1,0,,,,,,,,,,,,
,,5d3a286034acef001ceb73ac,66daf5d4532a9daaf63723f6,2024-09-06_13h30.27.534,mdp,2024.2.1,Win32,59.88023952,66d7945b1baad48e845df3ce,,,,,,,,,,,,,,,,,,,,,373.2433,373.2433,373.2443,374.1923,0,0,left,0.4241,,374.1926,375.1261,0,0,left,375.1275,375.1282,,1,,1,375.1283,375.1283,375.1291,376.6263,0,22,22,22,1,0.8,0.2,0.2,0.8,,,,,,,,,,,,,,,0.4119,,0.6,0.4,0.2,0.8,0.8,0.2,0.4,0.6,1,0,,,,,,,,,,,,
,,5d3a286034acef001ceb73ac,66daf5d4532a9daaf63723f6,2024-09-06_13h30.27.534,mdp,2024.2.1,Win32,59.88023952,66d7945b1baad48e845df3ce,,,,,,,,,,,,,,,,,,,,,376.6267,376.6268,376.6279,377.4931,0,0,left,0.3344,,377.4943,378.3922,1,1,right,378.3927,378.393,,1,,0,378.393,378.393,378.3933,379.8929,0,23,23,23,1,0.8,0.2,0.2,0.8,,,,,,,,,,,,,,,0.3753,,0.6,0.4,0.2,0.8,0.6,0.4,0.2,0.8,1,0,,,,,,,,,,,,
,,5d3a286034acef001ceb73ac,66daf5d4532a9daaf63723f6,2024-09-06_13h30.27.534,mdp,2024.2.1,Win32,59.88023952,66d7945b1baad48e845df3ce,,,,,,,,,,,,,,,,,,,,,379.8935,379.8935,379.8947,380.7423,0,0,left,0.318,,380.7427,381.5923,0,0,left,381.5927,381.593,,0,,1,381.593,381.593,381.5932,383.0925,0,24,24,24,1,0.8,0.2,0.2,0.8,,,,,,,,,,,,,,,0.3255,,0.6,0.4,0.2,0.8,0.6,0.4,0.2,0.8,1,0,,,,,,,,,,,,
,,5d3a286034acef001ceb73ac,66daf5d4532a9daaf63723f6,2024-09-06_13h30.27.534,mdp,2024.2.1,Win32,59.88023952,66d7945b1baad48e845df3ce,,,,,,,,,,,,,,,,,,,,,383.0926,383.0927,383.0932,384.0422,0,1,left,0.4195,,384.0427,385.0597,0,0,left,385.061,385.0617,,0,,1,385.0617,385.0618,385.0625,386.5594,0,25,25,25,1,0.8,0.2,0.2,0.8,,,,,,,,,,,,,,,0.5015,,0.6,0.4,0.2,0.8,0.8,0.2,0.4,0.6,1,0,,,,,,,,,,,,
,,5d3a286034acef001ceb73ac,66daf5d4532a9daaf63723f6,2024-09-06_13h30.27.534,mdp,2024.2.1,Win32,59.88023952,66d7945b1baad48e845df3ce,,,,,,,,,,,,,,,,,,,,,386.5599,386.5599,386.561,387.259,0,1,left,0.1711,,387.2594,388.2092,0,1,left,388.2097,388.2101,,1,,0,388.2101,388.2101,388.2104,389.7097,0,26,26,26,1,0.8,0.2,0.2,0.8,,,,,,,,,,,,,,,0.434,,0.6,0.4,0.2,0.8,0.8,0.2,0.4,0.6,1,0,,,,,,,,,,,,
,,5d3a286034acef001ceb73ac,66daf5d4532a9daaf63723f6,2024-09-06_13h30.27.534,mdp,2024.2.1,Win32,59.88023952,66d7945b1baad48e845df3ce,,,,,,,,,,,,,,,,,,,,,389.7102,389.7103,389.7113,390.5259,0,0,left,0.2844,,390.5265,391.8425,0,1,left,391.8431,391.8434,,1,,0,391.8434,391.8434,391.8436,393.3429,0,27,27,27,1,0.8,0.2,0.2,0.8,,,,,,,,,,,,,,,0.801,,0.6,0.4,0.2,0.8,0.2,0.8,0.2,0.8,1,0,,,,,,,,,,,,
,,5d3a286034acef001ceb73ac,66daf5d4532a9daaf63723f6,2024-09-06_13h30.27.534,mdp,2024.2.1,Win32,59.88023952,66d7945b1baad48e845df3ce,,,,,,,,,,,,,,,,,,,,,393.3433,393.3433,393.3443,394.159,0,1,left,0.2826,,394.1596,395.3256,0,1,left,395.3261,395.3263,,1,,0,395.3264,395.3264,395.3266,396.8258,0,28,28,28,1,0.2,0.8,0.6,0.4,,,,,,,,,,,,,,,0.6588,,0.6,0.4,0.2,0.8,0.2,0.8,0.2,0.8,1,0,,,,,,,,,,,,
,,5d3a286034acef001ceb73ac,66daf5d4532a9daaf63723f6,2024-09-06_13h30.27.534,mdp,2024.2.1,Win32,59.88023952,66d7945b1baad48e845df3ce,,,,,,,,,,,,,,,,,,,,,396.826,396.826,396.8265,397.6265,0,1,left,0.2887,,397.6277,398.4922,1,1,right,398.4927,398.493,,1,,0,398.493,398.493,398.4932,399.993,0,29,29,29,1,0.2,0.8,0.6,0.4,,,,,,,,,,,,,,,0.3358,,0.6,0.4,0.2,0.8,0.2,0.8,0.2,0.8,1,0,,,,,,,,,,,,
,,5d3a286034acef001ceb73ac,66daf5d4532a9daaf63723f6,2024-09-06_13h30.27.534,mdp,2024.2.1,Win32,59.88023952,66d7945b1baad48e845df3ce,,,,,,,,,,,,,,,,,,,,,399.9935,399.9935,399.9945,401.193,0,1,left,0.6732,,401.1941,402.0759,0,1,left,402.0763,402.0767,,0,,0,402.0768,402.0768,402.077,403.5759,0,30,30,30,1,0.2,0.8,0.6,0.4,,,,,,,,,,,,,,,0.3612,,0.6,0.4,0.2,0.8,0.2,0.8,0.2,0.8,1,0,,,,,,,,,,,,
,,5d3a286034acef001ceb73ac,66daf5d4532a9daaf63723f6,2024-09-06_13h30.27.534,mdp,2024.2.1,Win32,59.88023952,66d7945b1baad48e845df3ce,,,,,,,,,,,,,,,,,,,,,403.5761,403.5761,403.5766,404.4761,0,1,left,0.3861,,404.4773,405.3592,0,1,left,405.3598,405.3602,,1,,0,405.3602,405.3602,405.3605,406.8592,0,31,31,31,1,0.2,0.8,0.6,0.4,,,,,,,,,,,,,,,0.3511,,0.6,0.4,0.2,0.8,0.2,0.8,0.2,0.8,1,0,,,,,,,,,,,,
,,5d3a286034acef001ceb73ac,66daf5d4532a9daaf63723f6,2024-09-06_13h30.27.534,mdp,2024.2.1,Win32,59.88023952,66d7945b1baad48e845df3ce,,,,,,,,,,,,,,,,,,,,,406.8594,406.8594,406.8599,407.6757,0,1,left,0.2833,,407.6763,408.5098,0,1,left,408.5109,408.5117,,1,,0,408.5117,408.5117,408.5124,410.0096,0,32,32,32,1,0.2,0.8,0.6,0.4,,,,,,,,,,,,,,,0.32,,0.6,0.4,0.2,0.8,0.2,0.8,0.2,0.8,1,0,,,,,,,,,,,,
,,5d3a286034acef001ceb73ac,66daf5d4532a9daaf63723f6,2024-09-06_13h30.27.534,mdp,2024.2.1,Win32,59.88023952,66d7945b1baad48e845df3ce,,,,,,,,,,,,,,,,,,,,,410.0103,410.0103,410.0113,410.7263,0,1,left,0.1854,,410.7275,411.8423,1,0,right,411.8426,411.843,,1,,1,411.843,411.8431,411.8433,413.343,0,33,33,33,1,0.2,0.8,0.6,0.4,,,,,,,,,,,,,,,0.5866,,0.6,0.4,0.2,0.8,0.2,0.8,0.2,0.8,1,0,,,,,,,,,,,,
,,5d3a286034acef001ceb73ac,66daf5d4532a9daaf63723f6,2024-09-06_13h30.27.534,mdp,2024.2.1,Win32,59.88023952,66d7945b1baad48e845df3ce,,,,,,,,,,,,,,,,,,,,,413.3435,413.3435,413.3446,414.2595,0,0,left,0.3871,,414.2606,415.6432,1,1,right,415.6444,415.6451,,1,,0,415.6451,415.6452,415.646,417.1429,0,34,34,34,1,0.2,0.8,0.6,0.4,,,,,,,,,,,,,,,0.8688,,0.6,0.4,0.2,0.8,0.2,0.8,0.2,0.8,1,0,,,,,,,,,,,,
,,5d3a286034acef001ceb73ac,66daf5d4532a9daaf63723f6,2024-09-06_13h30.27.534,mdp,2024.2.1,Win32,59.88023952,66d7945b1baad48e845df3ce,,,,,,,,,,,,,,,,,,,,,417.1434,417.1434,417.1446,417.9422,0,1,left,0.2774,,417.9427,418.759,0,0,left,418.7593,418.7596,,0,,1,418.7596,418.7596,418.7599,420.2595,0,35,35,35,1,0.2,0.8,0.6,0.4,,,,,,,,,,,,,,,0.3067,,0.6,0.4,0.2,0.8,0.6,0.4,0.8,0.2,1,0,,,,,,,,,,,,
,,5d3a286034acef001ceb73ac,66daf5d4532a9daaf63723f6,2024-09-06_13h30.27.534,mdp,2024.2.1,Win32,59.88023952,66d7945b1baad48e845df3ce,,,,,,,,,,,,,,,,,,,,,420.2599,420.2599,420.261,421.0931,0,1,left,0.3007,,421.0943,422.0255,1,0,right,422.0259,422.0263,,0,,1,422.0263,422.0263,422.0265,423.5259,0,36,36,36,1,0.2,0.8,0.6,0.4,,,,,,,,,,,,,,,0.402,,0.6,0.4,0.2,0.8,0.6,0.4,0.8,0.2,1,0,,,,,,,,,,,,
,,5d3a286034acef001ceb73ac,66daf5d4532a9daaf63723f6,2024-09-06_13h30.27.534,mdp,2024.2.1,Win32,59.88023952,66d7945b1baad48e845df3ce,,,,,,,,,,,,,,,,,,,,,423.5262,423.5262,423.5267,424.3263,0,1,left,0.2681,,424.3274,425.5256,0,0,left,425.526,425.5264,,0,,1,425.5264,425.5264,425.5267,427.0262,0,37,37,37,1,0.2,0.8,0.6,0.4,,,,,,,,,,,,,,,0.6779,,0.6,0.4,0.2,0.8,0.6,0.4,0.8,0.2,1,0,,,,,,,,,,,,
,,5d3a286034acef001ceb73ac,66daf5d4532a9daaf63723f6,2024-09-06_13h30.27.534,mdp,2024.2.1,Win32,59.88023952,66d7945b1baad48e845df3ce,,,,,,,,,,,,,,,,,,,,,427.0267,427.0267,427.0278,427.9257,0,1,left,0.3755,,427.9261,428.7923,1,1,right,428.7927,428.7931,,0,,0,428.7931,428.7931,428.7933,430.2927,0,38,38,38,1,0.2,0.8,0.6,0.4,,,,,,,,,,,,,,,0.3569,,0.6,0.4,0.2,0.8,0.4,0.6,0.6,0.4,1,0,,,,,,,,,,,,
,,5d3a286034acef001ceb73ac,66daf5d4532a9daaf63723f6,2024-09-06_13h30.27.534,mdp,2024.2.1,Win32,59.88023952,66d7945b1baad48e845df3ce,,,,,,,,,,,,,,,,,,,,,430.2932,430.2933,430.2943,431.0925,0,1,left,0.2679,,431.093,432.1422,0,1,left,432.1426,432.1428,,0,,0,432.1428,432.1428,432.1431,433.643,0,39,39,39,1,0.2,0.8,0.6,0.4,,,,,,,,,,,,,,,0.5424,,0.6,0.4,0.2,0.8,0.4,0.6,0.6,0.4,1,0,,,,,,,,,,,,
,,5d3a286034acef001ceb73ac,66daf5d4532a9daaf63723f6,2024-09-06_13h30.27.534,mdp,2024.2.1,Win32,59.88023952,66d7945b1baad48e845df3ce,,,,,,,,,,,,,,,,,,,,,433.6433,433.6434,433.6445,434.526,0,1,left,0.3504,,434.5272,435.3756,1,0,right,435.376,435.3764,,1,,1,435.3764,435.3764,435.3767,436.8763,0,40,40,40,1,0.2,0.8,0.6,0.4,,,,,,,,,,,,,,,0.3411,,0.6,0.4,0.2,0.8,0.4,0.6,0.6,0.4,1,0,,,,,,,,,,,,
,,5d3a286034acef001ceb73ac,66daf5d4532a9daaf63723f6,2024-09-06_13h30.27.534,mdp,2024.2.1,Win32,59.88023952,66d7945b1baad48e845df3ce,,,,,,,,,,,,,,,,,,,,,436.8769,436.8769,436.8779,437.6755,0,1,left,0.2773,,437.6759,438.5756,1,0,right,438.5759,438.5762,,0,,1,438.5762,438.5762,438.5765,440.0764,0,41,41,41,1,0.2,0.8,0.6,0.4,,,,,,,,,,,,,,,0.3906,,0.6,0.4,0.2,0.8,0.4,0.6,0.6,0.4,1,0,,,,,,,,,,,,
,,5d3a286034acef001ceb73ac,66daf5d4532a9daaf63723f6,2024-09-06_13h30.27.534,mdp,2024.2.1,Win32,59.88023952,66d7945b1baad48e845df3ce,,,,,,,,,,,,,,,,,,,,,440.0768,440.0768,440.0779,440.9265,0,1,left,0.3192,,440.9277,441.8259,0,1,left,441.8264,441.8268,,1,,0,441.8269,441.8269,441.8271,443.3256,0,42,42,42,1,0.2,0.8,0.6,0.4,,,,,,,,,,,,,,,0.3663,,0.6,0.4,0.2,0.8,0.4,0.6,0.6,0.4,1,0,,,,,,,,,,,,
,,5d3a286034acef001ceb73ac,66daf5d4532a9daaf63723f6,2024-09-06_13h30.27.534,mdp,2024.2.1,Win32,59.88023952,66d7945b1baad48e845df3ce,,,,,,,,,,,,,,,,,,,,,443.3257,443.3257,443.3261,443.9923,0,1,left,0.1572,,443.9927,444.7089,1,1,right,444.7092,444.7095,,1,,0,444.7095,444.7095,444.7097,446.2093,0,43,43,43,1,0.2,0.8,0.6,0.4,,,,,,,,,,,,,,,0.2079,,0.6,0.4,0.2,0.8,0.4,0.6,0.6,0.4,1,0,,,,,,,,,,,,
,,5d3a286034acef001ceb73ac,66daf5d4532a9daaf63723f6,2024-09-06_13h30.27.534,mdp,2024.2.1,Win32,59.88023952,66d7945b1baad48e845df3ce,,,,,,,,,,,,,,,,,,,,,446.2097,446.2097,446.2109,447.0092,0,0,left,0.2656,,447.0099,447.6761,0,1,left,447.6772,447.678,,1,,0,447.6781,447.6781,447.6788,449.1763,0,44,44,44,1,0.2,0.8,0.6,0.4,,,,,,,,,,,,,,,0.1505,,0.2,0.8,0.8,0.2,0.4,0.6,0.6,0.4,1,0,,,,,,,,,,,,
,,5d3a286034acef001ceb73ac,66daf5d4532a9daaf63723f6,2024-09-06_13h30.27.534,mdp,2024.2.1,Win32,59.88023952,66d7945b1baad48e845df3ce,,,,,,,,,,,,,,,,,,,,,449.1768,449.1768,449.1779,449.9256,0,1,left,0.2264,,449.926,450.5922,1,0,right,450.5928,450.593,,0,,1,450.5931,450.5931,450.5933,452.0928,0,45,45,45,1,0.2,0.8,0.6,0.4,,,,,,,,,,,,,,,0.1465,,0.2,0.8,0.8,0.2,0.4,0.6,0.6,0.4,1,0,,,,,,,,,,,,
,,5d3a286034acef001ceb73ac,66daf5d4532a9daaf63723f6,2024-09-06_13h30.27.534,mdp,2024.2.1,Win32,59.88023952,66d7945b1baad48e845df3ce,,,,,,,,,,,,,,,,,,,,,452.0931,452.0931,452.094,452.9592,0,1,left,0.3335,,452.9598,453.7765,1,0,right,453.7776,453.7784,,0,,1,453.7785,453.7785,453.7792,455.2764,0,46,46,46,1,0.2,0.8,0.6,0.4,,,,,,,,,,,,,,,0.2837,,0.2,0.8,0.8,0.2,0.4,0.6,0.6,0.4,1,0,,,,,,,,,,,,
,,5d3a286034acef001ceb73ac,66daf5d4532a9daaf63723f6,2024-09-06_13h30.27.534,mdp,2024.2.1,Win32,59.88023952,66d7945b1baad48e845df3ce,,,,,,,,,,,,,,,,,,,,,455.2769,455.2769,455.2779,456.1764,0,1,left,0.3653,,456.1776,456.9431,1,1,right,456.9442,456.9449,,1,,0,456.945,456.945,456.9458,458.443,0,47,47,47,1,0.2,0.8,0.6,0.4,,,,,,,,,,,,,,,0.2346,,0.2,0.8,0.8,0.2,0.4,0.6,0.6,0.4,1,0,,,,,,,,,,,,
,,5d3a286034acef001ceb73ac,66daf5d4532a9daaf63723f6,2024-09-06_13h30.27.534,mdp,2024.2.1,Win32,59.88023952,66d7945b1baad48e845df3ce,,,,,,,,,,,,,,,,,,,,,458.4435,458.4435,458.4445,458.9932,0,1,left,0.0154,,458.9945,459.7594,0,0,left,459.7607,459.7612,,1,,1,459.7613,459.7613,459.7616,461.2594,0,48,48,48,1,0.2,0.8,0.6,0.4,,,,,,,,,,,,,,,0.2343,,0.2,0.8,0.8,0.2,0.4,0.6,0.6,0.4,1,0,,,,,,,,,,,,
,,5d3a286034acef001ceb73ac,66daf5d4532a9daaf63723f6,2024-09-06_13h30.27.534,mdp,2024.2.1,Win32,59.88023952,66d7945b1baad48e845df3ce,,,,,,,,,,,,,,,,,,,,,461.2598,461.2599,461.2607,462.1097,0,1,left,0.3179,,462.111,462.9089,0,1,left,462.9094,462.9097,,1,,0,462.9098,462.9098,462.91,464.4092,0,49,49,49,1,0.2,0.8,0.6,0.4,,,,,,,,,,,,,,,0.2761,,0.2,0.8,0.8,0.2,0.6,0.4,0.2,0.8,1,0,,,,,,,,,,,,
,,5d3a286034acef001ceb73ac,66daf5d4532a9daaf63723f6,2024-09-06_13h30.27.534,mdp,2024.2.1,Win32,59.88023952,66d7945b1baad48e845df3ce,,,,,,,,,,,,,,,,,,,,,,,,,,,,,,,,,,,,,,,,,,,,,,,,,,,,,,,,464.4093,524.8482,0,1,1,0,1,imgs/goat.png,imgs/lion.png,imgs/giraffe.png,imgs/dog.png,imgs/bear.png,,,,,,,,,,,,,,,,,,,,,,,,
,,5d3a286034acef001ceb73ac,66daf5d4532a9daaf63723f6,2024-09-06_13h30.27.534,mdp,2024.2.1,Win32,59.88023952,66d7945b1baad48e845df3ce,,,,,,,,,,,,,,3,seqs/st3seq21.csv,524.8562,526.5928,space,1.2229,,526.597,526.5971,526.5974,527.7599,0,0,left,0.6327,,527.7611,528.7423,0,1,left,528.7427,529.5757,0,1,left,0,529.5757,529.5757,529.5761,531.0761,0,0,0,0,1,0.4,0.6,0.4,0.6,,,,,,,,,,,,,,,0.4528,,0.2,0.8,0.4,0.6,0.2,0.8,0.8,0.2,,,0.3135,,0.4,0.6,0.8,0.2,0.8,0.2,0.2,0.8,1,0
,,5d3a286034acef001ceb73ac,66daf5d4532a9daaf63723f6,2024-09-06_13h30.27.534,mdp,2024.2.1,Win32,59.88023952,66d7945b1baad48e845df3ce,,,,,,,,,,,,,,,,,,,,,531.0764,531.0764,531.0772,531.9595,0,1,left,0.3497,,531.9608,532.7426,0,1,left,532.7431,533.559,1,1,right,0,533.559,533.559,533.5594,535.0597,0,1,1,1,1,0.4,0.6,0.4,0.6,,,,,,,,,,,,,,,0.2569,,0.2,0.8,0.4,0.6,0.2,0.8,0.8,0.2,,,0.2911,,0.4,0.6,0.8,0.2,0.8,0.2,0.2,0.8,1,0
,,5d3a286034acef001ceb73ac,66daf5d4532a9daaf63723f6,2024-09-06_13h30.27.534,mdp,2024.2.1,Win32,59.88023952,66d7945b1baad48e845df3ce,,,,,,,,,,,,,,,,,,,,,535.0603,535.0603,535.0614,535.9593,0,1,left,0.367,,535.9598,537.4096,0,1,left,537.4107,538.7426,0,0,left,1,538.7426,538.7426,538.7432,540.2431,0,2,2,2,1,0.4,0.6,0.4,0.6,,,,,,,,,,,,,,,0.9327,,0.2,0.8,0.4,0.6,0.2,0.8,0.8,0.2,,,0.8014,,0.4,0.6,0.8,0.2,0.8,0.2,0.2,0.8,1,0
,,5d3a286034acef001ceb73ac,66daf5d4532a9daaf63723f6,2024-09-06_13h30.27.534,mdp,2024.2.1,Win32,59.88023952,66d7945b1baad48e845df3ce,,,,,,,,,,,,,,,,,,,,,540.2437,540.2438,540.2448,541.159,0,1,left,0.3913,,541.1593,542.0598,0,1,left,542.061,543.109,0,1,left,0,543.109,543.109,543.1094,544.6097,0,3,3,3,1,0.4,0.6,0.4,0.6,,,,,,,,,,,,,,,0.3838,,0.2,0.8,0.4,0.6,0.2,0.8,0.8,0.2,,,0.5245,,0.4,0.6,0.8,0.2,0.8,0.2,0.2,0.8,1,0
,,5d3a286034acef001ceb73ac,66daf5d4532a9daaf63723f6,2024-09-06_13h30.27.534,mdp,2024.2.1,Win32,59.88023952,66d7945b1baad48e845df3ce,,,,,,,,,,,,,,,,,,,,,544.6104,544.6104,544.6115,545.5598,0,0,left,0.4168,,545.5611,546.526,0,1,left,546.5267,547.3258,0,0,left,1,547.3258,547.3258,547.3262,548.8265,0,4,4,4,1,0.4,0.6,0.4,0.6,,,,,,,,,,,,,,,0.4304,,0.2,0.8,0.4,0.6,0.2,0.8,0.8,0.2,,,0.291,,0.4,0.6,0.8,0.2,0.8,0.2,0.2,0.8,1,0
,,5d3a286034acef001ceb73ac,66daf5d4532a9daaf63723f6,2024-09-06_13h30.27.534,mdp,2024.2.1,Win32,59.88023952,66d7945b1baad48e845df3ce,,,,,,,,,,,,,,,,,,,,,548.827,548.8271,548.8282,549.6265,0,1,left,0.2674,,549.6277,550.4432,0,1,left,550.4445,551.2425,0,0,left,1,551.2426,551.2426,551.2431,552.7426,0,5,5,5,1,0.4,0.6,0.4,0.6,,,,,,,,,,,,,,,0.2826,,0.2,0.8,0.4,0.6,0.2,0.8,0.8,0.2,,,0.2711,,0.4,0.6,0.8,0.2,0.8,0.2,0.2,0.8,1,0
,,5d3a286034acef001ceb73ac,66daf5d4532a9daaf63723f6,2024-09-06_13h30.27.534,mdp,2024.2.1,Win32,59.88023952,66d7945b1baad48e845df3ce,,,,,,,,,,,,,,,,,,,,,552.7429,552.7429,552.7435,553.5262,0,0,left,0.2501,,553.5275,554.759,1,0,right,554.7594,555.6099,0,0,left,1,555.61,555.61,555.6111,557.1094,0,6,6,6,1,0.4,0.6,0.4,0.6,,,,,,,,,,,,,,,0.7225,,0.2,0.8,0.4,0.6,0.2,0.8,0.8,0.2,,,0.3372,,0.4,0.6,0.8,0.2,0.8,0.2,0.2,0.8,1,0
,,5d3a286034acef001ceb73ac,66daf5d4532a9daaf63723f6,2024-09-06_13h30.27.534,mdp,2024.2.1,Win32,59.88023952,66d7945b1baad48e845df3ce,,,,,,,,,,,,,,,,,,,,,557.1096,557.1096,557.1102,557.9596,0,0,left,0.3154,,557.961,558.8099,1,1,right,558.8111,560.5423,1,1,right,0,560.5423,560.5423,560.5427,562.0429,0,7,7,7,1,0.4,0.6,0.4,0.6,,,,,,,,,,,,,,,0.3173,,0.6,0.4,0.6,0.4,0.2,0.8,0.8,0.2,,,1.2058,,0.4,0.6,0.8,0.2,0.8,0.2,0.2,0.8,1,0
,,5d3a286034acef001ceb73ac,66daf5d4532a9daaf63723f6,2024-09-06_13h30.27.534,mdp,2024.2.1,Win32,59.88023952,66d7945b1baad48e845df3ce,,,,,,,,,,,,,,,,,,,,,562.0436,562.0436,562.0447,562.8757,0,0,left,0.3003,,562.8761,563.8595,0,0,left,563.8607,564.6422,0,1,left,0,564.6422,564.6422,564.6427,566.1427,0,8,8,8,1,0.4,0.6,0.4,0.6,,,,,,,,,,,,,,,0.4669,,0.6,0.4,0.6,0.4,0.2,0.8,0.8,0.2,,,0.2646,,0.4,0.6,0.8,0.2,0.8,0.2,0.2,0.8,1,0
,,5d3a286034acef001ceb73ac,66daf5d4532a9daaf63723f6,2024-09-06_13h30.27.534,mdp,2024.2.1,Win32,59.88023952,66d7945b1baad48e845df3ce,,,,,,,,,,,,,,,,,,,,,566.1429,566.1429,566.1435,567.0097,0,1,left,0.3409,,567.0109,568.4432,0,1,left,568.4444,569.4266,0,0,left,1,569.4267,569.4267,569.4278,570.9264,0,9,9,9,1,0.4,0.6,0.4,0.6,,,,,,,,,,,,,,,0.9014,,0.6,0.4,0.6,0.4,0.2,0.8,0.8,0.2,,,0.449,,0.4,0.6,0.8,0.2,0.8,0.2,0.2,0.8,1,0
,,5d3a286034acef001ceb73ac,66daf5d4532a9daaf63723f6,2024-09-06_13h30.27.534,mdp,2024.2.1,Win32,59.88023952,66d7945b1baad48e845df3ce,,,,,,,,,,,,,,,,,,,,,570.927,570.927,570.9281,571.7423,0,0,left,0.29,,571.7428,572.6923,0,0,left,572.6928,573.8929,1,0,right,1,573.893,573.893,573.8943,575.393,0,10,10,10,1,0.4,0.6,0.4,0.6,,,,,,,,,,,,,,,0.4331,,0.6,0.4,0.6,0.4,0.2,0.8,0.8,0.2,,,0.6846,,0.4,0.6,0.8,0.2,0.8,0.2,0.2,0.8,1,0
,,5d3a286034acef001ceb73ac,66daf5d4532a9daaf63723f6,2024-09-06_13h30.27.534,mdp,2024.2.1,Win32,59.88023952,66d7945b1baad48e845df3ce,,,,,,,,,,,,,,,,,,,,,575.3936,575.3936,575.3949,576.143,0,1,left,0.217,,576.1444,577.0763,0,0,left,577.0776,578.2922,1,0,right,1,578.2923,578.2923,578.2927,579.793,0,11,11,11,1,0.4,0.6,0.4,0.6,,,,,,,,,,,,,,,0.4,,0.6,0.4,0.6,0.4,0.2,0.8,0.8,0.2,,,0.689,,0.4,0.6,0.8,0.2,0.8,0.2,0.2,0.8,1,0
,,5d3a286034acef001ceb73ac,66daf5d4532a9daaf63723f6,2024-09-06_13h30.27.534,mdp,2024.2.1,Win32,59.88023952,66d7945b1baad48e845df3ce,,,,,,,,,,,,,,,,,,,,,579.7936,579.7936,579.7948,580.6592,0,1,left,0.3414,,580.6597,581.5927,0,1,left,581.5932,582.5094,0,0,left,1,582.5095,582.5096,582.5107,584.0098,0,12,12,12,1,0.4,0.6,0.4,0.6,,,,,,,,,,,,,,,0.4163,,0.6,0.4,0.6,0.4,0.2,0.8,0.8,0.2,,,0.3831,,0.4,0.6,0.8,0.2,0.8,0.2,0.2,0.8,1,0
,,5d3a286034acef001ceb73ac,66daf5d4532a9daaf63723f6,2024-09-06_13h30.27.534,mdp,2024.2.1,Win32,59.88023952,66d7945b1baad48e845df3ce,,,,,,,,,,,,,,,,,,,,,584.0103,584.0103,584.0114,585.0599,0,1,left,0.5171,,585.0613,585.9423,0,1,left,585.9427,586.9258,0,0,left,1,586.9258,586.9258,586.9262,588.4264,0,13,13,13,1,0.2,0.8,0.2,0.8,,,,,,,,,,,,,,,0.3596,,0.6,0.4,0.6,0.4,0.2,0.8,0.8,0.2,,,0.4764,,0.4,0.6,0.8,0.2,0.8,0.2,0.2,0.8,1,0
,,5d3a286034acef001ceb73ac,66daf5d4532a9daaf63723f6,2024-09-06_13h30.27.534,mdp,2024.2.1,Win32,59.88023952,66d7945b1baad48e845df3ce,,,,,,,,,,,,,,,,,,,,,588.4269,588.427,588.4281,589.2931,0,1,left,0.3349,,589.2944,590.2423,0,1,left,590.2427,591.2767,0,0,left,1,591.2768,591.2768,591.2779,592.7759,0,14,14,14,1,0.2,0.8,0.2,0.8,,,,,,,,,,,,,,,0.42,,0.6,0.4,0.6,0.4,0.2,0.8,0.8,0.2,,,0.5029,,0.4,0.6,0.8,0.2,0.8,0.2,0.2,0.8,1,0
,,5d3a286034acef001ceb73ac,66daf5d4532a9daaf63723f6,2024-09-06_13h30.27.534,mdp,2024.2.1,Win32,59.88023952,66d7945b1baad48e845df3ce,,,,,,,,,,,,,,,,,,,,,592.7762,592.7762,592.7766,593.5758,0,1,left,0.2865,,593.5762,594.5258,0,1,left,594.5261,595.6761,0,0,left,1,595.6762,595.6762,595.6775,597.1762,0,15,15,15,1,0.2,0.8,0.2,0.8,,,,,,,,,,,,,,,0.4225,,0.6,0.4,0.6,0.4,0.2,0.8,0.8,0.2,,,0.6335,,0.4,0.6,0.8,0.2,0.8,0.2,0.2,0.8,1,0
,,5d3a286034acef001ceb73ac,66daf5d4532a9daaf63723f6,2024-09-06_13h30.27.534,mdp,2024.2.1,Win32,59.88023952,66d7945b1baad48e845df3ce,,,,,,,,,,,,,,,,,,,,,597.1768,597.1769,597.1781,597.9758,0,1,left,0.2664,,597.9764,598.8929,0,1,left,598.8941,599.8763,0,0,left,1,599.8765,599.8765,599.8777,601.3765,0,16,16,16,1,0.2,0.8,0.2,0.8,,,,,,,,,,,,,,,0.4017,,0.6,0.4,0.6,0.4,0.2,0.8,0.8,0.2,,,0.4494,,0.4,0.6,0.8,0.2,0.8,0.2,0.2,0.8,1,0
,,5d3a286034acef001ceb73ac,66daf5d4532a9daaf63723f6,2024-09-06_13h30.27.534,mdp,2024.2.1,Win32,59.88023952,66d7945b1baad48e845df3ce,,,,,,,,,,,,,,,,,,,,,601.377,601.377,601.3782,602.1927,0,1,left,0.2819,,602.1933,603.0765,0,0,left,603.0778,604.1757,1,0,right,1,604.1757,604.1757,604.1761,605.676,0,17,17,17,1,0.2,0.8,0.2,0.8,,,,,,,,,,,,,,,0.3673,,0.6,0.4,0.6,0.4,0.2,0.8,0.8,0.2,,,0.5703,,0.4,0.6,0.8,0.2,0.8,0.2,0.2,0.8,1,0
,,5d3a286034acef001ceb73ac,66daf5d4532a9daaf63723f6,2024-09-06_13h30.27.534,mdp,2024.2.1,Win32,59.88023952,66d7945b1baad48e845df3ce,,,,,,,,,,,,,,,,,,,,,605.6762,605.6762,605.6766,606.4591,0,0,left,0.251,,606.4594,607.3424,0,1,left,607.3428,608.3595,0,0,left,1,608.3596,608.3596,608.3604,609.8597,0,18,18,18,1,0.2,0.8,0.2,0.8,,,,,,,,,,,,,,,0.3722,,0.6,0.4,0.6,0.4,0.2,0.8,0.8,0.2,,,0.5033,,0.6,0.4,0.6,0.4,0.8,0.2,0.2,0.8,1,0
,,5d3a286034acef001ceb73ac,66daf5d4532a9daaf63723f6,2024-09-06_13h30.27.534,mdp,2024.2.1,Win32,59.88023952,66d7945b1baad48e845df3ce,,,,,,,,,,,,,,,,,,,,,609.8602,609.8602,609.8613,610.6594,0,0,left,0.2658,,610.6607,611.6432,0,1,left,611.6445,612.5922,0,0,left,1,612.5923,612.5923,612.5927,614.0931,0,19,19,19,1,0.2,0.8,0.2,0.8,,,,,,,,,,,,,,,0.4657,,0.6,0.4,0.6,0.4,0.2,0.8,0.8,0.2,,,0.4162,,0.6,0.4,0.6,0.4,0.8,0.2,0.2,0.8,1,0
,,5d3a286034acef001ceb73ac,66daf5d4532a9daaf63723f6,2024-09-06_13h30.27.534,mdp,2024.2.1,Win32,59.88023952,66d7945b1baad48e845df3ce,,,,,,,,,,,,,,,,,,,,,614.0937,614.0937,614.0948,614.959,0,1,left,0.3342,,614.9595,615.7429,0,1,left,615.7441,616.643,0,0,left,1,616.6432,616.6432,616.6444,618.1428,0,20,20,20,1,0.2,0.8,0.2,0.8,,,,,,,,,,,,,,,0.2668,,0.6,0.4,0.6,0.4,0.2,0.8,0.8,0.2,,,0.3679,,0.6,0.4,0.6,0.4,0.8,0.2,0.2,0.8,1,0
,,5d3a286034acef001ceb73ac,66daf5d4532a9daaf63723f6,2024-09-06_13h30.27.534,mdp,2024.2.1,Win32,59.88023952,66d7945b1baad48e845df3ce,,,,,,,,,,,,,,,,,,,,,618.1432,618.1432,618.1439,618.9424,0,1,left,0.2707,,618.9428,619.6924,0,0,left,619.6929,620.7428,1,0,right,1,620.7429,620.7429,620.7441,622.2429,0,21,21,21,1,0.2,0.8,0.2,0.8,,,,,,,,,,,,,,,0.2398,,0.6,0.4,0.6,0.4,0.2,0.8,0.8,0.2,,,0.5321,,0.2,0.8,0.8,0.2,0.8,0.2,0.2,0.8,1,0
,,5d3a286034acef001ceb73ac,66daf5d4532a9daaf63723f6,2024-09-06_13h30.27.534,mdp,2024.2.1,Win32,59.88023952,66d7945b1baad48e845df3ce,,,,,,,,,,,,,,,,,,,,,622.2434,622.2435,622.2445,623.0423,0,1,left,0.2669,,623.0428,623.8757,0,1,left,623.8761,624.7925,0,0,left,1,624.7925,624.7925,624.793,626.2932,0,22,22,22,1,0.2,0.8,0.2,0.8,,,,,,,,,,,,,,,0.3177,,0.6,0.4,0.6,0.4,0.2,0.8,0.8,0.2,,,0.3912,,0.2,0.8,0.8,0.2,0.8,0.2,0.2,0.8,1,0
,,5d3a286034acef001ceb73ac,66daf5d4532a9daaf63723f6,2024-09-06_13h30.27.534,mdp,2024.2.1,Win32,59.88023952,66d7945b1baad48e845df3ce,,,,,,,,,,,,,,,,,,,,,626.2937,626.2937,626.2948,627.2424,0,1,left,0.4216,,627.2428,628.1097,0,1,left,628.1109,629.26,0,0,left,1,629.2601,629.2601,629.2612,630.7596,0,23,23,23,1,0.2,0.8,0.2,0.8,,,,,,,,,,,,,,,0.3515,,0.6,0.4,0.6,0.4,0.2,0.8,0.8,0.2,,,0.6278,,0.2,0.8,0.8,0.2,0.4,0.6,0.4,0.6,1,0
,,5d3a286034acef001ceb73ac,66daf5d4532a9daaf63723f6,2024-09-06_13h30.27.534,mdp,2024.2.1,Win32,59.88023952,66d7945b1baad48e845df3ce,,,,,,,,,,,,,,,,,,,,,630.7602,630.7602,630.7613,631.5924,0,0,left,0.3054,,631.5929,632.4096,0,0,left,632.4109,633.3256,1,1,right,0,633.3257,633.3257,633.326,634.8263,0,24,24,24,1,0.2,0.8,0.2,0.8,,,,,,,,,,,,,,,0.299,,0.6,0.4,0.6,0.4,0.2,0.8,0.8,0.2,,,0.4046,,0.2,0.8,0.8,0.2,0.4,0.6,0.4,0.6,1,0
,,5d3a286034acef001ceb73ac,66daf5d4532a9daaf63723f6,2024-09-06_13h30.27.534,mdp,2024.2.1,Win32,59.88023952,66d7945b1baad48e845df3ce,,,,,,,,,,,,,,,,,,,,,634.827,634.827,634.8283,635.8093,0,1,left,0.4505,,635.8098,636.7095,0,1,left,636.7108,637.7761,0,0,left,1,637.7762,637.7762,637.7767,639.2763,0,25,25,25,1,0.2,0.8,0.2,0.8,,,,,,,,,,,,,,,0.3724,,0.6,0.4,0.6,0.4,0.2,0.8,0.8,0.2,,,0.5339,,0.2,0.8,0.8,0.2,0.8,0.2,0.2,0.8,1,0
,,5d3a286034acef001ceb73ac,66daf5d4532a9daaf63723f6,2024-09-06_13h30.27.534,mdp,2024.2.1,Win32,59.88023952,66d7945b1baad48e845df3ce,,,,,,,,,,,,,,,,,,,,,639.2769,639.2769,639.2783,640.0923,0,1,left,0.2906,,640.0927,640.8764,0,1,left,640.8776,641.7424,0,0,left,1,641.7424,641.7424,641.7428,643.2424,0,26,26,26,1,0.2,0.8,0.2,0.8,,,,,,,,,,,,,,,0.2691,,0.6,0.4,0.6,0.4,0.2,0.8,0.8,0.2,,,0.3429,,0.2,0.8,0.8,0.2,0.8,0.2,0.2,0.8,1,0
,,5d3a286034acef001ceb73ac,66daf5d4532a9daaf63723f6,2024-09-06_13h30.27.534,mdp,2024.2.1,Win32,59.88023952,66d7945b1baad48e845df3ce,,,,,,,,,,,,,,,,,,,,,643.2426,643.2426,643.243,644.0591,0,1,left,0.2879,,644.0595,644.9424,0,1,left,644.9428,645.909,0,1,left,0,645.909,645.909,645.9095,647.4098,0,27,27,27,1,0.2,0.8,0.2,0.8,,,,,,,,,,,,,,,0.3751,,0.6,0.4,0.6,0.4,0.2,0.8,0.8,0.2,,,0.4606,,0.2,0.8,0.8,0.2,0.8,0.2,0.2,0.8,1,0
,,5d3a286034acef001ceb73ac,66daf5d4532a9daaf63723f6,2024-09-06_13h30.27.534,mdp,2024.2.1,Win32,59.88023952,66d7945b1baad48e845df3ce,,,,,,,,,,,,,,,,,,,,,647.4104,647.4104,647.4114,648.2092,0,1,left,0.2671,,648.2098,649.0927,0,1,left,649.0932,649.9424,0,0,left,1,649.9425,649.9425,649.9429,651.4423,0,28,28,28,1,0.2,0.8,0.2,0.8,,,,,,,,,,,,,,,0.3664,,0.6,0.4,0.6,0.4,0.2,0.8,0.8,0.2,,,0.3178,,0.2,0.8,0.8,0.2,0.8,0.2,0.2,0.8,1,0
,,5d3a286034acef001ceb73ac,66daf5d4532a9daaf63723f6,2024-09-06_13h30.27.534,mdp,2024.2.1,Win32,59.88023952,66d7945b1baad48e845df3ce,,,,,,,,,,,,,,,,,,,,,651.4425,651.4425,651.4429,652.2428,0,1,left,0.2835,,652.244,652.8762,0,1,left,652.8766,653.5265,0,0,left,1,653.5266,653.5266,653.5274,655.0264,0,29,29,29,1,0.2,0.8,0.2,0.8,,,,,,,,,,,,,,,0.108,,0.6,0.4,0.6,0.4,0.2,0.8,0.8,0.2,,,0.1226,,0.2,0.8,0.8,0.2,0.8,0.2,0.2,0.8,1,0
,,5d3a286034acef001ceb73ac,66daf5d4532a9daaf63723f6,2024-09-06_13h30.27.534,mdp,2024.2.1,Win32,59.88023952,66d7945b1baad48e845df3ce,,,,,,,,,,,,,,,,,,,,,655.027,655.027,655.0281,655.8597,0,0,left,0.3004,,655.8609,656.7264,0,1,left,656.7277,657.6429,0,0,left,1,657.643,657.643,657.6443,659.1425,0,30,30,30,1,0.6,0.4,0.4,0.6,,,,,,,,,,,,,,,0.332,,0.6,0.4,0.6,0.4,0.2,0.8,0.8,0.2,,,0.3842,,0.2,0.8,0.8,0.2,0.8,0.2,0.2,0.8,1,0
,,5d3a286034acef001ceb73ac,66daf5d4532a9daaf63723f6,2024-09-06_13h30.27.534,mdp,2024.2.1,Win32,59.88023952,66d7945b1baad48e845df3ce,,,,,,,,,,,,,,,,,,,,,659.1428,659.1428,659.1435,659.859,0,0,left,0.2067,,659.8596,660.5424,0,1,left,660.5427,661.3261,0,0,left,1,661.3262,661.3262,661.3275,662.8264,0,31,31,31,1,0.6,0.4,0.4,0.6,,,,,,,,,,,,,,,0.1704,,0.6,0.4,0.6,0.4,0.2,0.8,0.8,0.2,,,0.2654,,0.2,0.8,0.8,0.2,0.8,0.2,0.2,0.8,1,0
,,5d3a286034acef001ceb73ac,66daf5d4532a9daaf63723f6,2024-09-06_13h30.27.534,mdp,2024.2.1,Win32,59.88023952,66d7945b1baad48e845df3ce,,,,,,,,,,,,,,,,,,,,,662.827,662.827,662.8281,663.6592,0,1,left,0.2996,,663.6598,664.5264,0,1,left,664.5277,665.2761,0,0,left,1,665.2761,665.2761,665.2766,666.7757,0,32,32,32,1,0.6,0.4,0.4,0.6,,,,,,,,,,,,,,,0.3496,,0.6,0.4,0.6,0.4,0.2,0.8,0.8,0.2,,,0.2171,,0.2,0.8,0.8,0.2,0.8,0.2,0.2,0.8,1,0
,,5d3a286034acef001ceb73ac,66daf5d4532a9daaf63723f6,2024-09-06_13h30.27.534,mdp,2024.2.1,Win32,59.88023952,66d7945b1baad48e845df3ce,,,,,,,,,,,,,,,,,,,,,666.776,666.776,666.7764,667.6933,0,1,left,0.4003,,667.6946,668.2927,0,1,left,668.2932,668.9424,0,0,left,1,668.9424,668.9424,668.9428,670.4431,0,33,33,33,1,0.6,0.4,0.4,0.6,,,,,,,,,,,,,,,0.0665,,0.6,0.4,0.6,0.4,0.2,0.8,0.8,0.2,,,0.1391,,0.2,0.8,0.8,0.2,0.8,0.2,0.2,0.8,1,0
,,5d3a286034acef001ceb73ac,66daf5d4532a9daaf63723f6,2024-09-06_13h30.27.534,mdp,2024.2.1,Win32,59.88023952,66d7945b1baad48e845df3ce,,,,,,,,,,,,,,,,,,,,,670.4436,670.4436,670.4448,671.2597,0,0,left,0.2842,,671.2609,672.0257,0,0,left,672.0262,672.6923,0,1,left,0,672.6923,672.6923,672.6927,674.1931,0,34,34,34,1,0.6,0.4,0.4,0.6,,,,,,,,,,,,,,,0.2325,,0.6,0.4,0.6,0.4,0.2,0.8,0.8,0.2,,,0.1547,,0.2,0.8,0.8,0.2,0.8,0.2,0.2,0.8,1,0
,,5d3a286034acef001ceb73ac,66daf5d4532a9daaf63723f6,2024-09-06_13h30.27.534,mdp,2024.2.1,Win32,59.88023952,66d7945b1baad48e845df3ce,,,,,,,,,,,,,,,,,,,,,674.1936,674.1936,674.1948,674.8424,0,0,left,0.1178,,674.8429,675.6433,0,0,left,675.6445,676.5929,1,0,right,1,676.593,676.593,676.5943,678.093,0,35,35,35,1,0.6,0.4,0.4,0.6,,,,,,,,,,,,,,,0.2832,,0.6,0.4,0.6,0.4,0.2,0.8,0.8,0.2,,,0.4192,,0.2,0.8,0.8,0.2,0.8,0.2,0.2,0.8,1,0
,,5d3a286034acef001ceb73ac,66daf5d4532a9daaf63723f6,2024-09-06_13h30.27.534,mdp,2024.2.1,Win32,59.88023952,66d7945b1baad48e845df3ce,,,,,,,,,,,,,,,,,,,,,678.0937,678.0937,678.0948,678.8428,0,0,left,0.2176,,678.8442,679.6432,0,1,left,679.6444,680.5927,1,1,right,0,680.5927,680.5927,680.5932,682.093,0,36,36,36,1,0.6,0.4,0.4,0.6,,,,,,,,,,,,,,,0.2675,,0.6,0.4,0.6,0.4,0.2,0.8,0.8,0.2,,,0.419,,0.2,0.8,0.8,0.2,0.8,0.2,0.2,0.8,1,0
,,5d3a286034acef001ceb73ac,66daf5d4532a9daaf63723f6,2024-09-06_13h30.27.534,mdp,2024.2.1,Win32,59.88023952,66d7945b1baad48e845df3ce,,,,,,,,,,,,,,,,,,,,,682.0936,682.0936,682.0948,682.7095,0,0,left,0.0846,,682.7108,683.8591,0,1,left,683.8597,684.9263,0,0,left,1,684.9265,684.9265,684.9276,686.4264,0,37,37,37,1,0.6,0.4,0.4,0.6,,,,,,,,,,,,,,,0.6322,,0.6,0.4,0.6,0.4,0.2,0.8,0.8,0.2,,,0.5471,,0.2,0.8,0.8,0.2,0.8,0.2,0.2,0.8,1,0
,,5d3a286034acef001ceb73ac,66daf5d4532a9daaf63723f6,2024-09-06_13h30.27.534,mdp,2024.2.1,Win32,59.88023952,66d7945b1baad48e845df3ce,,,,,,,,,,,,,,,,,,,,,686.427,686.427,686.4281,687.2932,0,0,left,0.3341,,687.2947,687.8761,0,1,left,687.8773,688.8431,0,0,left,1,688.8432,688.8433,688.8444,690.3428,0,38,38,38,1,0.6,0.4,0.4,0.6,,,,,,,,,,,,,,,0.0515,,0.6,0.4,0.6,0.4,0.2,0.8,0.8,0.2,,,0.449,,0.2,0.8,0.8,0.2,0.8,0.2,0.2,0.8,1,0
,,5d3a286034acef001ceb73ac,66daf5d4532a9daaf63723f6,2024-09-06_13h30.27.534,mdp,2024.2.1,Win32,59.88023952,66d7945b1baad48e845df3ce,,,,,,,,,,,,,,,,,,,,,690.343,690.3431,690.3438,691.226,0,0,left,0.3503,,691.2265,692.0763,0,0,left,692.0775,693.109,1,0,right,1,693.109,693.109,693.1094,694.6096,0,39,39,39,1,0.6,0.4,0.4,0.6,,,,,,,,,,,,,,,0.3335,,0.6,0.4,0.6,0.4,0.2,0.8,0.8,0.2,,,0.5082,,0.2,0.8,0.8,0.2,0.8,0.2,0.2,0.8,1,0
,,5d3a286034acef001ceb73ac,66daf5d4532a9daaf63723f6,2024-09-06_13h30.27.534,mdp,2024.2.1,Win32,59.88023952,66d7945b1baad48e845df3ce,,,,,,,,,,,,,,,,,,,,,694.6102,694.6102,694.6114,695.3761,0,0,left,0.2323,,695.3766,696.4267,0,0,left,696.4279,697.5261,1,0,right,1,697.5261,697.5261,697.5266,699.0262,0,40,40,40,1,0.6,0.4,0.4,0.6,,,,,,,,,,,,,,,0.533,,0.6,0.4,0.6,0.4,0.2,0.8,0.8,0.2,,,0.5689,,0.2,0.8,0.8,0.2,0.8,0.2,0.2,0.8,1,0
,,5d3a286034acef001ceb73ac,66daf5d4532a9daaf63723f6,2024-09-06_13h30.27.534,mdp,2024.2.1,Win32,59.88023952,66d7945b1baad48e845df3ce,,,,,,,,,,,,,,,,,,,,,699.0268,699.0268,699.028,699.8763,0,0,left,0.3154,,699.8776,700.6423,0,0,left,700.6427,701.7427,1,0,right,1,701.7427,701.7427,701.7432,703.2428,0,41,41,41,1,0.6,0.4,0.4,0.6,,,,,,,,,,,,,,,0.2335,,0.4,0.6,0.4,0.6,0.2,0.8,0.8,0.2,,,0.5833,,0.2,0.8,0.8,0.2,0.8,0.2,0.2,0.8,1,0
,,5d3a286034acef001ceb73ac,66daf5d4532a9daaf63723f6,2024-09-06_13h30.27.534,mdp,2024.2.1,Win32,59.88023952,66d7945b1baad48e845df3ce,,,,,,,,,,,,,,,,,,,,,703.2434,703.2434,703.2447,703.8933,0,1,left,0.1164,,703.8945,704.4757,0,1,left,704.4763,705.509,0,0,left,1,705.5091,705.5091,705.5095,707.0099,0,42,42,42,1,0.6,0.4,0.4,0.6,,,,,,,,,,,,,,,0.0485,,0.4,0.6,0.4,0.6,0.2,0.8,0.8,0.2,,,0.5233,,0.2,0.8,0.8,0.2,0.8,0.2,0.2,0.8,1,0
,,5d3a286034acef001ceb73ac,66daf5d4532a9daaf63723f6,2024-09-06_13h30.27.534,mdp,2024.2.1,Win32,59.88023952,66d7945b1baad48e845df3ce,,,,,,,,,,,,,,,,,,,,,707.0105,707.0105,707.0116,707.8591,0,0,left,0.3184,,707.8595,708.7923,0,1,left,708.7927,709.7767,0,1,left,0,709.7767,709.7767,709.778,711.2765,0,43,43,43,1,0.6,0.4,0.4,0.6,,,,,,,,,,,,,,,0.4211,,0.4,0.6,0.4,0.6,0.2,0.8,0.8,0.2,,,0.4673,,0.2,0.8,0.8,0.2,0.8,0.2,0.2,0.8,1,0
,,5d3a286034acef001ceb73ac,66daf5d4532a9daaf63723f6,2024-09-06_13h30.27.534,mdp,2024.2.1,Win32,59.88023952,66d7945b1baad48e845df3ce,,,,,,,,,,,,,,,,,,,,,711.277,711.277,711.278,712.126,0,0,left,0.3155,,712.1265,712.9267,0,0,left,712.9279,714.0261,1,0,right,1,714.0262,714.0262,714.0267,715.5264,0,44,44,44,1,0.6,0.4,0.4,0.6,,,,,,,,,,,,,,,0.2843,,0.4,0.6,0.4,0.6,0.2,0.8,0.8,0.2,,,0.5652,,0.2,0.8,0.8,0.2,0.8,0.2,0.2,0.8,1,0
,,5d3a286034acef001ceb73ac,66daf5d4532a9daaf63723f6,2024-09-06_13h30.27.534,mdp,2024.2.1,Win32,59.88023952,66d7945b1baad48e845df3ce,,,,,,,,,,,,,,,,,,,,,715.5271,715.5271,715.5282,716.4431,0,0,left,0.3843,,716.4444,717.2928,0,0,left,717.294,718.3096,1,0,right,1,718.3097,718.3097,718.3109,719.8098,0,45,45,45,1,0.6,0.4,0.4,0.6,,,,,,,,,,,,,,,0.318,,0.4,0.6,0.4,0.6,0.2,0.8,0.8,0.2,,,0.4837,,0.2,0.8,0.8,0.2,0.8,0.2,0.2,0.8,1,0
,,5d3a286034acef001ceb73ac,66daf5d4532a9daaf63723f6,2024-09-06_13h30.27.534,mdp,2024.2.1,Win32,59.88023952,66d7945b1baad48e845df3ce,,,,,,,,,,,,,,,,,,,,,719.8104,719.8104,719.8115,720.6766,0,1,left,0.3332,,720.678,721.4928,0,1,left,721.4941,722.4095,1,1,right,0,722.4095,722.4095,722.4101,723.9098,0,46,46,46,1,0.6,0.4,0.4,0.6,,,,,,,,,,,,,,,0.2789,,0.4,0.6,0.4,0.6,0.2,0.8,0.8,0.2,,,0.3846,,0.2,0.8,0.8,0.2,0.8,0.2,0.2,0.8,1,0
,,5d3a286034acef001ceb73ac,66daf5d4532a9daaf63723f6,2024-09-06_13h30.27.534,mdp,2024.2.1,Win32,59.88023952,66d7945b1baad48e845df3ce,,,,,,,,,,,,,,,,,,,,,723.9103,723.9103,723.9115,724.7098,0,1,left,0.268,,724.7111,725.4095,0,1,left,725.4107,726.376,0,0,left,1,726.376,726.376,726.3766,727.8765,0,47,47,47,1,0.6,0.4,0.4,0.6,,,,,,,,,,,,,,,0.1683,,0.4,0.6,0.4,0.6,0.2,0.8,0.8,0.2,,,0.4339,,0.4,0.6,0.2,0.8,0.8,0.2,0.2,0.8,1,0
,,5d3a286034acef001ceb73ac,66daf5d4532a9daaf63723f6,2024-09-06_13h30.27.534,mdp,2024.2.1,Win32,59.88023952,66d7945b1baad48e845df3ce,,,,,,,,,,,,,,,,,,,,,727.877,727.877,727.8782,728.659,0,0,left,0.2498,,728.6595,729.5598,0,0,left,729.561,730.4933,0,1,left,0,730.4934,730.4934,730.4947,731.9931,0,48,48,48,1,0.6,0.4,0.4,0.6,,,,,,,,,,,,,,,0.3822,,0.8,0.2,0.6,0.4,0.2,0.8,0.8,0.2,,,0.4021,,0.4,0.6,0.2,0.8,0.8,0.2,0.2,0.8,1,0
,,5d3a286034acef001ceb73ac,66daf5d4532a9daaf63723f6,2024-09-06_13h30.27.534,mdp,2024.2.1,Win32,59.88023952,66d7945b1baad48e845df3ce,,,,,,,,,,,,,,,,,,,,,731.9937,731.9937,731.9948,732.8757,0,1,left,0.35,,732.8762,733.6598,0,1,left,733.661,734.6431,0,0,left,1,734.6433,734.6433,734.6444,736.1427,0,49,49,49,1,0.6,0.4,0.4,0.6,,,,,,,,,,,,,,,0.2671,,0.8,0.2,0.6,0.4,0.2,0.8,0.8,0.2,,,0.4561,,0.4,0.6,0.2,0.8,0.8,0.2,0.2,0.8,1,0
,,5d3a286034acef001ceb73ac,66daf5d4532a9daaf63723f6,2024-09-06_13h30.27.534,mdp,2024.2.1,Win32,59.88023952,66d7945b1baad48e845df3ce,,,,,,,,,,,,,,,,,,,,,,,,,,,,,,,,,,,,,,,,,,,,,,,,,,,,,,,,736.1428,794.6598,0,2,2,4,1,imgs/cat.png,imgs/bear.png,imgs/elephant.png,imgs/kangaroo.png,imgs/squirrel.png,,,,,,,,,,,,,,,,,,,,,,,,
,,5d3a286034acef001ceb73ac,66daf5d4532a9daaf63723f6,2024-09-06_13h30.27.534,mdp,2024.2.1,Win32,59.88023952,66d7945b1baad48e845df3ce,,,,,,,,,,,,,,3,seqs/st3seq19.csv,794.6677,804.3591,space,9.1675,,804.3668,804.3668,804.3672,805.476,0,0,left,0.5801,,805.4766,806.5257,0,1,left,806.5261,807.4268,0,0,left,1,807.4269,807.4269,807.4282,808.9263,0,0,0,0,1,0.8,0.2,0.4,0.6,,,,,,,,,,,,,,,0.5244,,0.4,0.6,0.6,0.4,0.8,0.2,0.4,0.6,,,0.3819,,0.6,0.4,0.2,0.8,0.8,0.2,0.8,0.2,1,0
,,5d3a286034acef001ceb73ac,66daf5d4532a9daaf63723f6,2024-09-06_13h30.27.534,mdp,2024.2.1,Win32,59.88023952,66d7945b1baad48e845df3ce,,,,,,,,,,,,,,,,,,,,,808.9264,808.9264,808.9267,809.7258,0,1,left,0.2905,,809.7261,810.509,0,0,left,810.5094,811.393,0,0,left,1,811.3932,811.3932,811.3944,812.8923,0,1,1,1,1,0.8,0.2,0.4,0.6,,,,,,,,,,,,,,,0.268,,0.4,0.6,0.6,0.4,0.8,0.2,0.4,0.6,,,0.3686,,0.6,0.4,0.2,0.8,0.8,0.2,0.8,0.2,1,0
,,5d3a286034acef001ceb73ac,66daf5d4532a9daaf63723f6,2024-09-06_13h30.27.534,mdp,2024.2.1,Win32,59.88023952,66d7945b1baad48e845df3ce,,,,,,,,,,,,,,,,,,,,,812.8926,812.8926,812.8929,813.5261,0,1,left,0.1171,,813.5266,814.3092,0,0,left,814.3095,815.1261,0,0,left,1,815.1261,815.1261,815.1266,816.6262,0,2,2,2,1,0.8,0.2,0.4,0.6,,,,,,,,,,,,,,,0.276,,0.4,0.6,0.6,0.4,0.8,0.2,0.4,0.6,,,0.3001,,0.6,0.4,0.2,0.8,0.8,0.2,0.8,0.2,1,0
,,5d3a286034acef001ceb73ac,66daf5d4532a9daaf63723f6,2024-09-06_13h30.27.534,mdp,2024.2.1,Win32,59.88023952,66d7945b1baad48e845df3ce,,,,,,,,,,,,,,,,,,,,,816.6268,816.6268,816.6278,817.4424,0,0,left,0.285,,817.4429,818.0266,0,1,left,818.0279,818.6601,0,1,left,0,818.6603,818.6603,818.6614,820.1599,0,3,3,3,1,0.8,0.2,0.4,0.6,,,,,,,,,,,,,,,0.0685,,0.4,0.6,0.6,0.4,0.8,0.2,0.4,0.6,,,0.0977,,0.6,0.4,0.2,0.8,0.8,0.2,0.8,0.2,1,0
,,5d3a286034acef001ceb73ac,66daf5d4532a9daaf63723f6,2024-09-06_13h30.27.534,mdp,2024.2.1,Win32,59.88023952,66d7945b1baad48e845df3ce,,,,,,,,,,,,,,,,,,,,,820.1604,820.1604,820.1615,820.7097,0,0,left,0.0258,,820.711,821.5598,0,1,left,821.5611,822.3762,0,0,left,1,822.3763,822.3763,822.3775,823.8766,0,4,4,4,1,0.8,0.2,0.4,0.6,,,,,,,,,,,,,,,0.3171,,0.4,0.6,0.6,0.4,0.8,0.2,0.4,0.6,,,0.2853,,0.6,0.4,0.2,0.8,0.8,0.2,0.8,0.2,1,0
,,5d3a286034acef001ceb73ac,66daf5d4532a9daaf63723f6,2024-09-06_13h30.27.534,mdp,2024.2.1,Win32,59.88023952,66d7945b1baad48e845df3ce,,,,,,,,,,,,,,,,,,,,,823.8771,823.8772,823.8782,824.6758,0,0,left,0.2756,,824.6761,825.3261,0,1,left,825.3267,825.959,0,0,left,1,825.9591,825.9591,825.9596,827.4589,0,5,5,5,1,0.8,0.2,0.4,0.6,,,,,,,,,,,,,,,0.1387,,0.4,0.6,0.6,0.4,0.8,0.2,0.4,0.6,,,0.1161,,0.2,0.8,0.6,0.4,0.8,0.2,0.8,0.2,1,0
,,5d3a286034acef001ceb73ac,66daf5d4532a9daaf63723f6,2024-09-06_13h30.27.534,mdp,2024.2.1,Win32,59.88023952,66d7945b1baad48e845df3ce,,,,,,,,,,,,,,,,,,,,,827.4592,827.4592,827.4595,828.093,0,0,left,0.1177,,828.0942,828.6265,0,1,left,828.6278,831.4097,0,0,left,1,831.4098,831.4098,831.4189,832.9096,0,6,6,6,1,0.8,0.2,0.4,0.6,,,,,,,,,,,,,,,0.0178,,0.4,0.6,0.6,0.4,0.8,0.2,0.4,0.6,,,2.2564,,0.2,0.8,0.6,0.4,0.8,0.2,0.8,0.2,1,0
,,5d3a286034acef001ceb73ac,66daf5d4532a9daaf63723f6,2024-09-06_13h30.27.534,mdp,2024.2.1,Win32,59.88023952,66d7945b1baad48e845df3ce,,,,,,,,,,,,,,,,,,,,,832.9102,832.9102,832.9111,833.7767,0,0,left,0.3406,,833.7778,834.4425,0,1,left,834.4431,835.2424,0,1,left,0,835.2425,835.2425,835.2429,836.7432,0,7,7,7,1,0.8,0.2,0.4,0.6,,,,,,,,,,,,,,,0.1376,,0.4,0.6,0.6,0.4,0.8,0.2,0.4,0.6,,,0.2883,,0.2,0.8,0.6,0.4,0.8,0.2,0.8,0.2,1,0
,,5d3a286034acef001ceb73ac,66daf5d4532a9daaf63723f6,2024-09-06_13h30.27.534,mdp,2024.2.1,Win32,59.88023952,66d7945b1baad48e845df3ce,,,,,,,,,,,,,,,,,,,,,836.7438,836.7438,836.7449,837.3425,0,0,left,0.0736,,837.3429,838.1424,0,0,left,838.1428,838.7434,0,1,left,0,838.7435,838.7435,838.7446,840.243,0,8,8,8,1,0.8,0.2,0.4,0.6,,,,,,,,,,,,,,,0.2751,,0.4,0.6,0.6,0.4,0.8,0.2,0.4,0.6,,,0.0809,,0.2,0.8,0.6,0.4,0.8,0.2,0.8,0.2,1,0
,,5d3a286034acef001ceb73ac,66daf5d4532a9daaf63723f6,2024-09-06_13h30.27.534,mdp,2024.2.1,Win32,59.88023952,66d7945b1baad48e845df3ce,,,,,,,,,,,,,,,,,,,,,840.2435,840.2435,840.2445,841.0095,0,0,left,0.2378,,841.0107,841.5432,0,1,left,841.5445,842.1091,0,1,left,0,842.1091,842.1091,842.1095,843.6098,0,9,9,9,1,0.8,0.2,0.4,0.6,,,,,,,,,,,,,,,0.0165,,0.4,0.6,0.6,0.4,0.8,0.2,0.4,0.6,,,0.0449,,0.2,0.8,0.6,0.4,0.8,0.2,0.8,0.2,1,0
,,5d3a286034acef001ceb73ac,66daf5d4532a9daaf63723f6,2024-09-06_13h30.27.534,mdp,2024.2.1,Win32,59.88023952,66d7945b1baad48e845df3ce,,,,,,,,,,,,,,,,,,,,,843.6104,843.6104,843.6114,844.2262,0,1,left,0.0898,,844.2273,844.8925,0,1,left,844.893,845.5261,0,1,left,0,845.5261,845.5261,845.5267,847.0263,0,10,10,10,1,0.8,0.2,0.4,0.6,,,,,,,,,,,,,,,0.1436,,0.4,0.6,0.6,0.4,0.4,0.6,0.6,0.4,,,0.1162,,0.2,0.8,0.6,0.4,0.8,0.2,0.8,0.2,1,0
,,5d3a286034acef001ceb73ac,66daf5d4532a9daaf63723f6,2024-09-06_13h30.27.534,mdp,2024.2.1,Win32,59.88023952,66d7945b1baad48e845df3ce,,,,,,,,,,,,,,,,,,,,,847.0268,847.0268,847.0279,847.8599,0,0,left,0.302,,847.8611,848.7258,0,0,left,848.7262,849.6096,0,1,left,0,849.6097,849.6097,849.6109,851.1097,0,11,11,11,1,0.8,0.2,0.4,0.6,,,,,,,,,,,,,,,0.3386,,0.4,0.6,0.6,0.4,0.4,0.6,0.6,0.4,,,0.3699,,0.2,0.8,0.6,0.4,0.8,0.2,0.8,0.2,1,0
,,5d3a286034acef001ceb73ac,66daf5d4532a9daaf63723f6,2024-09-06_13h30.27.534,mdp,2024.2.1,Win32,59.88023952,66d7945b1baad48e845df3ce,,,,,,,,,,,,,,,,,,,,,851.1102,851.1102,851.1113,851.8758,0,0,left,0.2404,,851.8761,852.5265,0,0,left,852.5276,853.2758,1,0,right,1,853.2759,853.2759,853.2763,854.7765,0,12,12,12,1,0.8,0.2,0.4,0.6,,,,,,,,,,,,,,,0.1332,,0.4,0.6,0.6,0.4,0.4,0.6,0.6,0.4,,,0.2226,,0.2,0.8,0.6,0.4,0.2,0.8,0.4,0.6,1,0
,,5d3a286034acef001ceb73ac,66daf5d4532a9daaf63723f6,2024-09-06_13h30.27.534,mdp,2024.2.1,Win32,59.88023952,66d7945b1baad48e845df3ce,,,,,,,,,,,,,,,,,,,,,854.7772,854.7772,854.7782,855.5258,0,0,left,0.2239,,855.5262,856.2927,0,0,left,856.2933,857.1429,1,0,right,1,857.143,857.143,857.1443,858.6428,0,13,13,13,1,0.8,0.2,0.4,0.6,,,,,,,,,,,,,,,0.251,,0.4,0.6,0.6,0.4,0.4,0.6,0.6,0.4,,,0.3344,,0.2,0.8,0.6,0.4,0.2,0.8,0.4,0.6,1,0
,,5d3a286034acef001ceb73ac,66daf5d4532a9daaf63723f6,2024-09-06_13h30.27.534,mdp,2024.2.1,Win32,59.88023952,66d7945b1baad48e845df3ce,,,,,,,,,,,,,,,,,,,,,858.643,858.643,858.6435,859.4592,0,1,left,0.2987,,859.4599,860.4433,0,0,left,860.4445,861.6762,1,0,right,1,861.6763,861.6763,861.6775,863.1761,0,14,14,14,1,0.8,0.2,0.4,0.6,,,,,,,,,,,,,,,0.4511,,0.4,0.6,0.6,0.4,0.4,0.6,0.6,0.4,,,0.6962,,0.2,0.8,0.6,0.4,0.2,0.8,0.4,0.6,1,0
,,5d3a286034acef001ceb73ac,66daf5d4532a9daaf63723f6,2024-09-06_13h30.27.534,mdp,2024.2.1,Win32,59.88023952,66d7945b1baad48e845df3ce,,,,,,,,,,,,,,,,,,,,,863.1764,863.1764,863.1769,864.4258,0,0,left,0.7387,,864.4263,865.1432,0,0,left,865.1444,866.2262,0,1,left,0,866.2262,866.2262,866.2268,867.7266,0,15,15,15,1,0.8,0.2,0.4,0.6,,,,,,,,,,,,,,,0.1972,,0.4,0.6,0.6,0.4,0.4,0.6,0.6,0.4,,,0.55,,0.2,0.8,0.6,0.4,0.2,0.8,0.4,0.6,1,0
,,5d3a286034acef001ceb73ac,66daf5d4532a9daaf63723f6,2024-09-06_13h30.27.534,mdp,2024.2.1,Win32,59.88023952,66d7945b1baad48e845df3ce,,,,,,,,,,,,,,,,,,,,,867.7271,867.7272,867.7283,868.4433,0,0,left,0.1819,,868.4445,869.1927,0,0,left,869.1933,870.1428,1,0,right,1,870.1428,870.1428,870.1434,871.6432,0,16,16,16,1,0.8,0.2,0.4,0.6,,,,,,,,,,,,,,,0.2181,,0.4,0.6,0.6,0.4,0.2,0.8,0.8,0.2,,,0.4338,,0.2,0.8,0.6,0.4,0.2,0.8,0.4,0.6,1,0
,,5d3a286034acef001ceb73ac,66daf5d4532a9daaf63723f6,2024-09-06_13h30.27.534,mdp,2024.2.1,Win32,59.88023952,66d7945b1baad48e845df3ce,,,,,,,,,,,,,,,,,,,,,871.6437,871.6437,871.6448,872.3093,0,0,left,0.1349,,872.3099,872.9425,0,0,left,872.9429,873.6767,1,0,right,1,873.6768,873.6768,873.6779,875.1762,0,17,17,17,1,0.8,0.2,0.4,0.6,,,,,,,,,,,,,,,0.1064,,0.4,0.6,0.6,0.4,0.2,0.8,0.8,0.2,,,0.216,,0.2,0.8,0.6,0.4,0.2,0.8,0.4,0.6,1,0
,,5d3a286034acef001ceb73ac,66daf5d4532a9daaf63723f6,2024-09-06_13h30.27.534,mdp,2024.2.1,Win32,59.88023952,66d7945b1baad48e845df3ce,,,,,,,,,,,,,,,,,,,,,875.1764,875.1764,875.1769,876.7425,0,1,left,1.037,,876.743,877.6429,0,1,left,877.6442,878.7762,0,1,left,0,878.7762,878.7762,878.7769,880.2763,0,18,18,18,1,0.4,0.6,0.8,0.2,,,,,,,,,,,,,,,0.3812,,0.4,0.6,0.6,0.4,0.2,0.8,0.8,0.2,,,0.6015,,0.2,0.8,0.6,0.4,0.2,0.8,0.4,0.6,1,0
,,5d3a286034acef001ceb73ac,66daf5d4532a9daaf63723f6,2024-09-06_13h30.27.534,mdp,2024.2.1,Win32,59.88023952,66d7945b1baad48e845df3ce,,,,,,,,,,,,,,,,,,,,,880.2768,880.2768,880.2776,880.9924,0,1,left,0.1857,,880.9929,881.8593,0,0,left,881.8599,882.46,1,1,right,0,882.4601,882.4601,882.4612,883.9599,0,19,19,19,1,0.4,0.6,0.8,0.2,,,,,,,,,,,,,,,0.3453,,0.4,0.6,0.6,0.4,0.4,0.6,0.4,0.6,,,0.094,,0.2,0.8,0.6,0.4,0.2,0.8,0.4,0.6,1,0
,,5d3a286034acef001ceb73ac,66daf5d4532a9daaf63723f6,2024-09-06_13h30.27.534,mdp,2024.2.1,Win32,59.88023952,66d7945b1baad48e845df3ce,,,,,,,,,,,,,,,,,,,,,883.9605,883.9605,883.9616,884.7592,0,1,left,0.2738,,884.7595,885.5432,0,1,left,885.5446,886.4598,0,0,left,1,886.4599,886.4599,886.461,887.9598,0,20,20,20,1,0.4,0.6,0.8,0.2,,,,,,,,,,,,,,,0.2744,,0.4,0.6,0.6,0.4,0.6,0.4,0.8,0.2,,,0.3835,,0.2,0.8,0.6,0.4,0.2,0.8,0.4,0.6,1,0
,,5d3a286034acef001ceb73ac,66daf5d4532a9daaf63723f6,2024-09-06_13h30.27.534,mdp,2024.2.1,Win32,59.88023952,66d7945b1baad48e845df3ce,,,,,,,,,,,,,,,,,,,,,887.9604,887.9604,887.9614,888.693,0,0,left,0.2091,,888.694,889.4931,0,1,left,889.4943,890.6265,0,1,left,0,890.6265,890.6265,890.6278,892.1261,0,21,21,21,1,0.4,0.6,0.8,0.2,,,,,,,,,,,,,,,0.2669,,0.4,0.6,0.6,0.4,0.6,0.4,0.8,0.2,,,0.603,,0.2,0.8,0.6,0.4,0.2,0.8,0.4,0.6,1,0
,,5d3a286034acef001ceb73ac,66daf5d4532a9daaf63723f6,2024-09-06_13h30.27.534,mdp,2024.2.1,Win32,59.88023952,66d7945b1baad48e845df3ce,,,,,,,,,,,,,,,,,,,,,892.1262,892.1263,892.1267,892.8925,0,1,left,0.2555,,892.893,893.6097,0,1,left,893.611,894.6428,0,0,left,1,894.6428,894.6428,894.6433,896.1424,0,22,22,22,1,0.4,0.6,0.8,0.2,,,,,,,,,,,,,,,0.1964,,0.4,0.6,0.6,0.4,0.6,0.4,0.8,0.2,,,0.5012,,0.2,0.8,0.6,0.4,0.2,0.8,0.4,0.6,1,0
,,5d3a286034acef001ceb73ac,66daf5d4532a9daaf63723f6,2024-09-06_13h30.27.534,mdp,2024.2.1,Win32,59.88023952,66d7945b1baad48e845df3ce,,,,,,,,,,,,,,,,,,,,,896.1425,896.1425,896.1429,896.9933,0,1,left,0.3323,,896.9945,897.7425,0,0,left,897.743,898.4925,0,1,left,0,898.4925,898.4925,898.4929,899.9932,0,23,23,23,1,0.4,0.6,0.8,0.2,,,,,,,,,,,,,,,0.2228,,0.4,0.6,0.6,0.4,0.6,0.4,0.8,0.2,,,0.2394,,0.2,0.8,0.6,0.4,0.2,0.8,0.4,0.6,1,0
,,5d3a286034acef001ceb73ac,66daf5d4532a9daaf63723f6,2024-09-06_13h30.27.534,mdp,2024.2.1,Win32,59.88023952,66d7945b1baad48e845df3ce,,,,,,,,,,,,,,,,,,,,,899.9937,899.9937,899.9948,900.8097,0,1,left,0.2887,,900.8109,901.8098,0,0,left,901.811,902.8261,1,0,right,1,902.8262,902.8262,902.8267,904.326,0,24,24,24,1,0.4,0.6,0.8,0.2,,,,,,,,,,,,,,,0.4717,,0.4,0.6,0.6,0.4,0.6,0.4,0.8,0.2,,,0.4889,,0.2,0.8,0.6,0.4,0.2,0.8,0.4,0.6,1,0
,,5d3a286034acef001ceb73ac,66daf5d4532a9daaf63723f6,2024-09-06_13h30.27.534,mdp,2024.2.1,Win32,59.88023952,66d7945b1baad48e845df3ce,,,,,,,,,,,,,,,,,,,,,904.3263,904.3263,904.3268,905.0098,0,1,left,0.1673,,905.011,906.01,0,0,left,906.0112,907.0594,1,0,right,1,907.0594,907.0594,907.0599,908.56,0,25,25,25,1,0.2,0.8,0.4,0.6,,,,,,,,,,,,,,,0.4667,,0.4,0.6,0.6,0.4,0.6,0.4,0.8,0.2,,,0.5197,,0.2,0.8,0.6,0.4,0.2,0.8,0.4,0.6,1,0
,,5d3a286034acef001ceb73ac,66daf5d4532a9daaf63723f6,2024-09-06_13h30.27.534,mdp,2024.2.1,Win32,59.88023952,66d7945b1baad48e845df3ce,,,,,,,,,,,,,,,,,,,,,908.5605,908.5605,908.5616,909.3258,0,1,left,0.2435,,909.3263,910.1091,0,0,left,910.1096,910.9259,1,0,right,1,910.9259,910.9259,910.9263,912.4262,0,26,26,26,1,0.2,0.8,0.4,0.6,,,,,,,,,,,,,,,0.2782,,0.4,0.6,0.6,0.4,0.6,0.4,0.8,0.2,,,0.2991,,0.2,0.8,0.6,0.4,0.2,0.8,0.4,0.6,1,0
,,5d3a286034acef001ceb73ac,66daf5d4532a9daaf63723f6,2024-09-06_13h30.27.534,mdp,2024.2.1,Win32,59.88023952,66d7945b1baad48e845df3ce,,,,,,,,,,,,,,,,,,,,,912.4265,912.4265,912.4274,913.3092,0,1,left,0.3765,,913.3096,914.0429,0,1,left,914.0442,914.9267,0,1,left,0,914.9268,914.9268,914.9279,916.4265,0,27,27,27,1,0.2,0.8,0.4,0.6,,,,,,,,,,,,,,,0.2211,,0.4,0.6,0.6,0.4,0.6,0.4,0.8,0.2,,,0.3626,,0.2,0.8,0.6,0.4,0.2,0.8,0.4,0.6,1,0
,,5d3a286034acef001ceb73ac,66daf5d4532a9daaf63723f6,2024-09-06_13h30.27.534,mdp,2024.2.1,Win32,59.88023952,66d7945b1baad48e845df3ce,,,,,,,,,,,,,,,,,,,,,916.4272,916.4272,916.4282,917.1267,0,1,left,0.1667,,917.1279,917.9424,0,0,left,917.9428,919.0925,1,0,right,1,919.0925,919.0925,919.0929,920.5926,0,28,28,28,1,0.2,0.8,0.4,0.6,,,,,,,,,,,,,,,0.2925,,0.4,0.6,0.6,0.4,0.6,0.4,0.8,0.2,,,0.643,,0.2,0.8,0.6,0.4,0.2,0.8,0.4,0.6,1,0
,,5d3a286034acef001ceb73ac,66daf5d4532a9daaf63723f6,2024-09-06_13h30.27.534,mdp,2024.2.1,Win32,59.88023952,66d7945b1baad48e845df3ce,,,,,,,,,,,,,,,,,,,,,920.5928,920.5928,920.5933,921.2762,0,1,left,0.1661,,921.2767,922.1098,0,0,left,922.111,923.2763,1,1,right,0,923.2763,923.2763,923.2767,924.7766,0,29,29,29,1,0.2,0.8,0.4,0.6,,,,,,,,,,,,,,,0.318,,0.4,0.6,0.6,0.4,0.6,0.4,0.8,0.2,,,0.6447,,0.2,0.8,0.6,0.4,0.2,0.8,0.4,0.6,1,0
,,5d3a286034acef001ceb73ac,66daf5d4532a9daaf63723f6,2024-09-06_13h30.27.534,mdp,2024.2.1,Win32,59.88023952,66d7945b1baad48e845df3ce,,,,,,,,,,,,,,,,,,,,,924.7771,924.7771,924.7782,925.4764,0,1,left,0.1705,,925.4776,926.1099,0,0,left,926.1112,927.0931,1,1,right,0,927.0933,927.0933,927.0944,928.5932,0,30,30,30,1,0.2,0.8,0.4,0.6,,,,,,,,,,,,,,,0.1031,,0.4,0.6,0.6,0.4,0.6,0.4,0.8,0.2,,,0.4508,,0.2,0.8,0.6,0.4,0.2,0.8,0.4,0.6,1,0
,,5d3a286034acef001ceb73ac,66daf5d4532a9daaf63723f6,2024-09-06_13h30.27.534,mdp,2024.2.1,Win32,59.88023952,66d7945b1baad48e845df3ce,,,,,,,,,,,,,,,,,,,,,928.5939,928.5939,928.5949,929.4762,0,1,left,0.3527,,929.4767,930.0925,0,0,left,930.0929,931.0932,1,1,right,0,931.0933,931.0933,931.0945,932.593,0,31,31,31,1,0.2,0.8,0.4,0.6,,,,,,,,,,,,,,,0.1082,,0.4,0.6,0.6,0.4,0.6,0.4,0.8,0.2,,,0.4835,,0.2,0.8,0.6,0.4,0.2,0.8,0.4,0.6,1,0
,,5d3a286034acef001ceb73ac,66daf5d4532a9daaf63723f6,2024-09-06_13h30.27.534,mdp,2024.2.1,Win32,59.88023952,66d7945b1baad48e845df3ce,,,,,,,,,,,,,,,,,,,,,932.5936,932.5936,932.5946,933.4431,0,1,left,0.3219,,933.4442,934.0924,1,1,right,934.093,934.8599,0,1,left,0,934.86,934.86,934.8613,936.3594,0,32,32,32,1,0.2,0.8,0.4,0.6,,,,,,,,,,,,,,,0.118,,0.4,0.6,0.6,0.4,0.8,0.2,0.6,0.4,,,0.2479,,0.2,0.8,0.6,0.4,0.2,0.8,0.4,0.6,1,0
,,5d3a286034acef001ceb73ac,66daf5d4532a9daaf63723f6,2024-09-06_13h30.27.534,mdp,2024.2.1,Win32,59.88023952,66d7945b1baad48e845df3ce,,,,,,,,,,,,,,,,,,,,,936.3597,936.3597,936.3601,937.0767,0,0,left,0.2021,,937.0779,938.3766,0,1,left,938.3778,939.3592,0,1,left,0,939.3592,939.3592,939.3597,940.8599,0,33,33,33,1,0.2,0.8,0.4,0.6,,,,,,,,,,,,,,,0.7633,,0.4,0.6,0.6,0.4,0.8,0.2,0.6,0.4,,,0.4583,,0.2,0.8,0.6,0.4,0.2,0.8,0.4,0.6,1,0
,,5d3a286034acef001ceb73ac,66daf5d4532a9daaf63723f6,2024-09-06_13h30.27.534,mdp,2024.2.1,Win32,59.88023952,66d7945b1baad48e845df3ce,,,,,,,,,,,,,,,,,,,,,940.8605,940.8605,940.8615,941.7258,0,1,left,0.3428,,941.7262,942.5425,0,0,left,942.543,943.6932,1,0,right,1,943.6933,943.6933,943.6945,945.193,0,34,34,34,1,0.2,0.8,0.4,0.6,,,,,,,,,,,,,,,0.2969,,0.4,0.6,0.6,0.4,0.8,0.2,0.6,0.4,,,0.632,,0.2,0.8,0.6,0.4,0.2,0.8,0.4,0.6,1,0
,,5d3a286034acef001ceb73ac,66daf5d4532a9daaf63723f6,2024-09-06_13h30.27.534,mdp,2024.2.1,Win32,59.88023952,66d7945b1baad48e845df3ce,,,,,,,,,,,,,,,,,,,,,945.1936,945.1936,945.1947,946.01,0,1,left,0.2835,,946.0112,947.3098,0,0,left,947.3111,948.3095,1,0,right,1,948.3095,948.3095,948.31,949.8097,0,35,35,35,1,0.2,0.8,0.4,0.6,,,,,,,,,,,,,,,0.7677,,0.4,0.6,0.6,0.4,0.8,0.2,0.6,0.4,,,0.4662,,0.2,0.8,0.6,0.4,0.2,0.8,0.4,0.6,1,0
,,5d3a286034acef001ceb73ac,66daf5d4532a9daaf63723f6,2024-09-06_13h30.27.534,mdp,2024.2.1,Win32,59.88023952,66d7945b1baad48e845df3ce,,,,,,,,,,,,,,,,,,,,,949.8102,949.8102,949.8109,950.5767,0,1,left,0.2391,,950.578,951.4428,0,0,left,951.4434,952.3599,1,0,right,1,952.36,952.36,952.3611,953.8597,0,36,36,36,1,0.2,0.8,0.4,0.6,,,,,,,,,,,,,,,0.335,,0.4,0.6,0.6,0.4,0.8,0.2,0.6,0.4,,,0.3998,,0.2,0.8,0.6,0.4,0.2,0.8,0.4,0.6,1,0
,,5d3a286034acef001ceb73ac,66daf5d4532a9daaf63723f6,2024-09-06_13h30.27.534,mdp,2024.2.1,Win32,59.88023952,66d7945b1baad48e845df3ce,,,,,,,,,,,,,,,,,,,,,953.8603,953.8603,953.8615,954.66,0,1,left,0.2689,,954.6612,955.4764,0,0,left,955.4769,956.2594,1,1,right,0,956.2594,956.2594,956.2599,957.7598,0,37,37,37,1,0.2,0.8,0.4,0.6,,,,,,,,,,,,,,,0.295,,0.4,0.6,0.6,0.4,0.8,0.2,0.6,0.4,,,0.2535,,0.2,0.8,0.6,0.4,0.2,0.8,0.4,0.6,1,0
,,5d3a286034acef001ceb73ac,66daf5d4532a9daaf63723f6,2024-09-06_13h30.27.534,mdp,2024.2.1,Win32,59.88023952,66d7945b1baad48e845df3ce,,,,,,,,,,,,,,,,,,,,,957.7605,957.7605,957.7617,958.8433,0,1,left,0.5501,,958.8445,959.5925,0,0,left,959.5929,960.1769,1,1,right,0,960.177,960.177,960.1783,961.6765,0,38,38,38,1,0.2,0.8,0.4,0.6,,,,,,,,,,,,,,,0.2168,,0.4,0.6,0.6,0.4,0.8,0.2,0.6,0.4,,,0.0677,,0.2,0.8,0.6,0.4,0.2,0.8,0.4,0.6,1,0
,,5d3a286034acef001ceb73ac,66daf5d4532a9daaf63723f6,2024-09-06_13h30.27.534,mdp,2024.2.1,Win32,59.88023952,66d7945b1baad48e845df3ce,,,,,,,,,,,,,,,,,,,,,961.6771,961.6771,961.6781,962.3264,0,1,left,0.116,,962.3277,963.0433,0,0,left,963.0445,963.6759,1,0,right,1,963.676,963.676,963.6763,965.1766,0,39,39,39,1,0.2,0.8,0.4,0.6,,,,,,,,,,,,,,,0.1994,,0.4,0.6,0.6,0.4,0.8,0.2,0.6,0.4,,,0.1094,,0.2,0.8,0.6,0.4,0.2,0.8,0.4,0.6,1,0
,,5d3a286034acef001ceb73ac,66daf5d4532a9daaf63723f6,2024-09-06_13h30.27.534,mdp,2024.2.1,Win32,59.88023952,66d7945b1baad48e845df3ce,,,,,,,,,,,,,,,,,,,,,965.1773,965.1773,965.1784,966.0264,0,0,left,0.3178,,966.0276,966.6925,0,1,left,966.6929,967.3258,1,1,right,0,967.3258,967.3258,967.3263,968.826,0,40,40,40,1,0.2,0.8,0.4,0.6,,,,,,,,,,,,,,,0.1381,,0.4,0.6,0.6,0.4,0.8,0.2,0.6,0.4,,,0.1207,,0.2,0.8,0.6,0.4,0.2,0.8,0.4,0.6,1,0
,,5d3a286034acef001ceb73ac,66daf5d4532a9daaf63723f6,2024-09-06_13h30.27.534,mdp,2024.2.1,Win32,59.88023952,66d7945b1baad48e845df3ce,,,,,,,,,,,,,,,,,,,,,968.8263,968.8263,968.8268,969.4431,0,1,left,0.1006,,969.4443,970.3433,0,0,left,970.3445,971.4259,1,0,right,1,971.426,971.426,971.4265,972.9265,0,41,41,41,1,0.2,0.8,0.4,0.6,,,,,,,,,,,,,,,0.3676,,0.4,0.6,0.6,0.4,0.8,0.2,0.6,0.4,,,0.5491,,0.2,0.8,0.6,0.4,0.2,0.8,0.4,0.6,1,0
,,5d3a286034acef001ceb73ac,66daf5d4532a9daaf63723f6,2024-09-06_13h30.27.534,mdp,2024.2.1,Win32,59.88023952,66d7945b1baad48e845df3ce,,,,,,,,,,,,,,,,,,,,,972.9272,972.9272,972.9282,973.5596,0,1,left,0.1001,,973.5602,974.5426,0,1,left,974.543,975.4933,0,1,left,0,975.4934,975.4934,975.4946,976.9932,0,42,42,42,1,0.2,0.8,0.4,0.6,,,,,,,,,,,,,,,0.4727,,0.4,0.6,0.6,0.4,0.8,0.2,0.6,0.4,,,0.4305,,0.4,0.6,0.8,0.2,0.2,0.8,0.4,0.6,1,0
,,5d3a286034acef001ceb73ac,66daf5d4532a9daaf63723f6,2024-09-06_13h30.27.534,mdp,2024.2.1,Win32,59.88023952,66d7945b1baad48e845df3ce,,,,,,,,,,,,,,,,,,,,,976.994,976.994,976.995,977.826,0,1,left,0.3006,,977.8264,978.8931,0,1,left,978.8944,979.9758,0,1,left,0,979.9758,979.9758,979.9763,981.4757,0,43,43,43,1,0.2,0.8,0.4,0.6,,,,,,,,,,,,,,,0.5502,,0.4,0.6,0.6,0.4,0.8,0.2,0.6,0.4,,,0.55,,0.4,0.6,0.8,0.2,0.2,0.8,0.4,0.6,1,0
,,5d3a286034acef001ceb73ac,66daf5d4532a9daaf63723f6,2024-09-06_13h30.27.534,mdp,2024.2.1,Win32,59.88023952,66d7945b1baad48e845df3ce,,,,,,,,,,,,,,,,,,,,,981.4759,981.4759,981.4762,982.2431,0,0,left,0.2559,,982.2442,983.0268,1,0,right,983.0279,983.7597,1,0,right,1,983.7598,983.7598,983.761,985.2597,0,44,44,44,1,0.2,0.8,0.4,0.6,,,,,,,,,,,,,,,0.2612,,0.4,0.6,0.6,0.4,0.8,0.2,0.6,0.4,,,0.198,,0.4,0.6,0.8,0.2,0.2,0.8,0.4,0.6,1,0
,,5d3a286034acef001ceb73ac,66daf5d4532a9daaf63723f6,2024-09-06_13h30.27.534,mdp,2024.2.1,Win32,59.88023952,66d7945b1baad48e845df3ce,,,,,,,,,,,,,,,,,,,,,985.2603,985.2603,985.2613,986.0759,0,1,left,0.2817,,986.0764,987.4266,1,1,right,987.4278,988.3599,0,1,left,0,988.36,988.3601,988.3612,989.8593,0,45,45,45,1,0.2,0.8,0.4,0.6,,,,,,,,,,,,,,,0.8308,,0.4,0.6,0.6,0.4,0.8,0.2,0.6,0.4,,,0.3995,,0.4,0.6,0.8,0.2,0.2,0.8,0.4,0.6,1,0
,,5d3a286034acef001ceb73ac,66daf5d4532a9daaf63723f6,2024-09-06_13h30.27.534,mdp,2024.2.1,Win32,59.88023952,66d7945b1baad48e845df3ce,,,,,,,,,,,,,,,,,,,,,989.8594,989.8594,989.8599,990.6592,0,1,left,0.2858,,990.6596,991.9929,1,1,right,991.9933,992.8267,1,0,right,1,992.8267,992.8267,992.828,994.3266,0,46,46,46,1,0.2,0.8,0.4,0.6,,,,,,,,,,,,,,,0.8167,,0.4,0.6,0.6,0.4,0.8,0.2,0.6,0.4,,,0.3028,,0.4,0.6,0.8,0.2,0.2,0.8,0.4,0.6,1,0
,,5d3a286034acef001ceb73ac,66daf5d4532a9daaf63723f6,2024-09-06_13h30.27.534,mdp,2024.2.1,Win32,59.88023952,66d7945b1baad48e845df3ce,,,,,,,,,,,,,,,,,,,,,994.3271,994.3271,994.3282,995.2428,0,1,left,0.3831,,995.2433,996.1259,1,0,right,996.1263,997.2596,0,0,left,1,997.2597,997.2598,997.261,998.7591,0,47,47,47,1,0.2,0.8,0.4,0.6,,,,,,,,,,,,,,,0.3719,,0.4,0.6,0.6,0.4,0.8,0.2,0.6,0.4,,,0.6153,,0.4,0.6,0.8,0.2,0.2,0.8,0.4,0.6,1,0
,,5d3a286034acef001ceb73ac,66daf5d4532a9daaf63723f6,2024-09-06_13h30.27.534,mdp,2024.2.1,Win32,59.88023952,66d7945b1baad48e845df3ce,,,,,,,,,,,,,,,,,,,,,998.7594,998.7594,998.7597,999.5429,0,1,left,0.2502,,999.5434,1000.3764,1,0,right,1000.3777,1001.3932,1,0,right,1,1001.3933,1001.3934,1001.3946,1002.8932,0,48,48,48,1,0.2,0.8,0.4,0.6,,,,,,,,,,,,,,,0.3069,,0.4,0.6,0.6,0.4,0.8,0.2,0.6,0.4,,,0.4891,,0.4,0.6,0.8,0.2,0.2,0.8,0.4,0.6,1,0
,,5d3a286034acef001ceb73ac,66daf5d4532a9daaf63723f6,2024-09-06_13h30.27.534,mdp,2024.2.1,Win32,59.88023952,66d7945b1baad48e845df3ce,,,,,,,,,,,,,,,,,,,,,1002.8937,1002.8938,1002.8948,1004.3928,0,1,left,0.9732,,1004.3933,1005.4096,1,1,right,1005.41,1006.0759,0,1,left,0,1006.0759,1006.0759,1006.0764,1007.5765,0,49,49,49,1,0.2,0.8,0.4,0.6,,,,,,,,,,,,,,,0.5004,,0.4,0.6,0.6,0.4,0.8,0.2,0.6,0.4,,,0.1435,,0.4,0.6,0.8,0.2,0.2,0.8,0.4,0.6,1,0
,,5d3a286034acef001ceb73ac,66daf5d4532a9daaf63723f6,2024-09-06_13h30.27.534,mdp,2024.2.1,Win32,59.88023952,66d7945b1baad48e845df3ce,,,,,,,,,,,,,,,,,,,,,,,,,,,,,,,,,,,,,,,,,,,,,,,,,,,,,,,,1007.5767,1066.0762,0,3,3,6,1,imgs/elephant.png,imgs/goat.png,imgs/horse.png,imgs/bear.png,imgs/cat.png,,,,,,,,,,,,,,,,,,,,,,,,
,,5d3a286034acef001ceb73ac,66daf5d4532a9daaf63723f6,2024-09-06_13h30.27.534,mdp,2024.2.1,Win32,59.88023952,66d7945b1baad48e845df3ce,,,,,,,,,,,,,,1,seqs/st1seq47.csv,1066.0843,1118.6593,space,52.0549,,1118.6666,1118.6666,1118.6669,1119.5095,0,0,left,0.3147,,1119.5101,1119.5105,1,0,,1119.5108,1119.511,0,0,,1,1119.511,1119.511,1119.5113,1121.0099,0,0,0,0,1,0.8,0.2,0.4,0.6,1,0,,,,,,,,,,,,,,,,,,,,,,,,,,,,,,,,,,,,
,,5d3a286034acef001ceb73ac,66daf5d4532a9daaf63723f6,2024-09-06_13h30.27.534,mdp,2024.2.1,Win32,59.88023952,66d7945b1baad48e845df3ce,,,,,,,,,,,,,,,,,,,,,1121.0104,1121.0104,1121.0114,1121.9592,0,0,left,0.4154,,1121.9597,1121.9599,1,1,,1121.9602,1121.9603,0,0,,1,1121.9603,1121.9603,1121.9606,1123.4593,0,1,1,1,1,0.8,0.2,0.4,0.6,1,0,,,,,,,,,,,,,,,,,,,,,,,,,,,,,,,,,,,,
,,5d3a286034acef001ceb73ac,66daf5d4532a9daaf63723f6,2024-09-06_13h30.27.534,mdp,2024.2.1,Win32,59.88023952,66d7945b1baad48e845df3ce,,,,,,,,,,,,,,,,,,,,,1123.4594,1123.4594,1123.4598,1124.426,0,0,left,0.4378,,1124.4264,1124.4266,1,1,,1124.4268,1124.427,0,0,,1,1124.427,1124.427,1124.4271,1125.9261,0,2,2,2,1,0.8,0.2,0.4,0.6,1,0,,,,,,,,,,,,,,,,,,,,,,,,,,,,,,,,,,,,
,,5d3a286034acef001ceb73ac,66daf5d4532a9daaf63723f6,2024-09-06_13h30.27.534,mdp,2024.2.1,Win32,59.88023952,66d7945b1baad48e845df3ce,,,,,,,,,,,,,,,,,,,,,1125.9263,1125.9263,1125.9268,1126.7762,0,0,left,0.3174,,1126.7767,1126.7771,1,1,,1126.7774,1126.7776,0,0,,1,1126.7776,1126.7776,1126.7778,1128.2767,0,3,3,3,1,0.8,0.2,0.4,0.6,1,0,,,,,,,,,,,,,,,,,,,,,,,,,,,,,,,,,,,,
,,5d3a286034acef001ceb73ac,66daf5d4532a9daaf63723f6,2024-09-06_13h30.27.534,mdp,2024.2.1,Win32,59.88023952,66d7945b1baad48e845df3ce,,,,,,,,,,,,,,,,,,,,,1128.2772,1128.2772,1128.2782,1129.1599,0,0,left,0.351,,1129.1611,1129.1616,1,0,,1129.1625,1129.1628,0,1,,1,1129.1628,1129.1628,1129.1631,1130.6599,0,4,4,4,1,0.8,0.2,0.4,0.6,1,0,,,,,,,,,,,,,,,,,,,,,,,,,,,,,,,,,,,,
,,5d3a286034acef001ceb73ac,66daf5d4532a9daaf63723f6,2024-09-06_13h30.27.534,mdp,2024.2.1,Win32,59.88023952,66d7945b1baad48e845df3ce,,,,,,,,,,,,,,,,,,,,,1130.6604,1130.6604,1130.6614,1131.5096,0,0,left,0.3187,,1131.5102,1131.5106,1,1,,1131.5108,1131.511,0,0,,1,1131.511,1131.511,1131.5113,1133.0093,0,5,5,5,1,0.8,0.2,0.4,0.6,1,0,,,,,,,,,,,,,,,,,,,,,,,,,,,,,,,,,,,,
,,5d3a286034acef001ceb73ac,66daf5d4532a9daaf63723f6,2024-09-06_13h30.27.534,mdp,2024.2.1,Win32,59.88023952,66d7945b1baad48e845df3ce,,,,,,,,,,,,,,,,,,,,,1133.0094,1133.0094,1133.0099,1133.8092,0,1,left,0.2832,,1133.8098,1133.81,1,0,,1133.8103,1133.8105,0,0,,0,1133.8105,1133.8105,1133.8107,1135.3097,0,6,6,6,1,0.8,0.2,0.4,0.6,1,0,,,,,,,,,,,,,,,,,,,,,,,,,,,,,,,,,,,,
,,5d3a286034acef001ceb73ac,66daf5d4532a9daaf63723f6,2024-09-06_13h30.27.534,mdp,2024.2.1,Win32,59.88023952,66d7945b1baad48e845df3ce,,,,,,,,,,,,,,,,,,,,,1135.3098,1135.3098,1135.3103,1135.976,0,0,left,0.1403,,1135.9764,1135.9766,1,0,,1135.9768,1135.977,0,1,,1,1135.977,1135.977,1135.9772,1137.4767,0,7,7,7,1,0.8,0.2,0.4,0.6,1,0,,,,,,,,,,,,,,,,,,,,,,,,,,,,,,,,,,,,
,,5d3a286034acef001ceb73ac,66daf5d4532a9daaf63723f6,2024-09-06_13h30.27.534,mdp,2024.2.1,Win32,59.88023952,66d7945b1baad48e845df3ce,,,,,,,,,,,,,,,,,,,,,1137.4773,1137.4773,1137.4786,1138.3431,0,0,left,0.3333,,1138.3445,1138.3451,1,0,,1138.346,1138.3468,0,0,,1,1138.3469,1138.3469,1138.3477,1139.8426,0,8,8,8,1,0.6,0.4,0.8,0.2,1,0,,,,,,,,,,,,,,,,,,,,,,,,,,,,,,,,,,,,
,,5d3a286034acef001ceb73ac,66daf5d4532a9daaf63723f6,2024-09-06_13h30.27.534,mdp,2024.2.1,Win32,59.88023952,66d7945b1baad48e845df3ce,,,,,,,,,,,,,,,,,,,,,1139.8428,1139.8428,1139.8432,1140.6431,0,1,left,0.2869,,1140.6443,1140.6449,1,0,,1140.6457,1140.6464,0,1,,0,1140.6466,1140.6466,1140.6468,1142.1434,0,9,9,9,1,0.6,0.4,0.8,0.2,1,0,,,,,,,,,,,,,,,,,,,,,,,,,,,,,,,,,,,,
,,5d3a286034acef001ceb73ac,66daf5d4532a9daaf63723f6,2024-09-06_13h30.27.534,mdp,2024.2.1,Win32,59.88023952,66d7945b1baad48e845df3ce,,,,,,,,,,,,,,,,,,,,,1142.1438,1142.1439,1142.1449,1142.7931,0,0,left,0.1222,,1142.7943,1142.7949,1,0,,1142.7957,1142.7964,0,1,,1,1142.7965,1142.7965,1142.7972,1144.2933,0,10,10,10,1,0.8,0.2,0.4,0.6,1,0,,,,,,,,,,,,,,,,,,,,,,,,,,,,,,,,,,,,
,,5d3a286034acef001ceb73ac,66daf5d4532a9daaf63723f6,2024-09-06_13h30.27.534,mdp,2024.2.1,Win32,59.88023952,66d7945b1baad48e845df3ce,,,,,,,,,,,,,,,,,,,,,1144.2938,1144.2938,1144.2948,1145.0098,0,0,left,0.1892,,1145.011,1145.0117,1,0,,1145.0123,1145.0131,0,0,,1,1145.0132,1145.0132,1145.014,1146.5097,0,11,11,11,1,0.8,0.2,0.4,0.6,1,0,,,,,,,,,,,,,,,,,,,,,,,,,,,,,,,,,,,,
,,5d3a286034acef001ceb73ac,66daf5d4532a9daaf63723f6,2024-09-06_13h30.27.534,mdp,2024.2.1,Win32,59.88023952,66d7945b1baad48e845df3ce,,,,,,,,,,,,,,,,,,,,,1146.5102,1146.5102,1146.5112,1147.3093,0,0,left,0.2676,,1147.3099,1147.3102,1,0,,1147.3105,1147.3106,0,0,,1,1147.3107,1147.3107,1147.3109,1148.8097,0,12,12,12,1,0.8,0.2,0.4,0.6,1,0,,,,,,,,,,,,,,,,,,,,,,,,,,,,,,,,,,,,
,,5d3a286034acef001ceb73ac,66daf5d4532a9daaf63723f6,2024-09-06_13h30.27.534,mdp,2024.2.1,Win32,59.88023952,66d7945b1baad48e845df3ce,,,,,,,,,,,,,,,,,,,,,1148.8102,1148.8102,1148.8112,1149.5093,0,1,left,0.1757,,1149.5097,1149.5099,1,0,,1149.5101,1149.5104,0,1,,0,1149.5104,1149.5104,1149.5106,1151.0097,0,13,13,13,1,0.8,0.2,0.4,0.6,1,0,,,,,,,,,,,,,,,,,,,,,,,,,,,,,,,,,,,,
,,5d3a286034acef001ceb73ac,66daf5d4532a9daaf63723f6,2024-09-06_13h30.27.534,mdp,2024.2.1,Win32,59.88023952,66d7945b1baad48e845df3ce,,,,,,,,,,,,,,,,,,,,,1151.0102,1151.0102,1151.0112,1151.5429,0,0,left,0.0063,,1151.5435,1151.5438,1,0,,1151.5441,1151.5444,0,0,,1,1151.5444,1151.5444,1151.5445,1153.0434,0,14,14,14,1,0.8,0.2,0.4,0.6,1,0,,,,,,,,,,,,,,,,,,,,,,,,,,,,,,,,,,,,
,,5d3a286034acef001ceb73ac,66daf5d4532a9daaf63723f6,2024-09-06_13h30.27.534,mdp,2024.2.1,Win32,59.88023952,66d7945b1baad48e845df3ce,,,,,,,,,,,,,,,,,,,,,1153.0438,1153.0438,1153.0449,1153.8768,0,1,left,0.3014,,1153.8781,1153.8787,1,0,,1153.8795,1153.88,0,0,,0,1153.8801,1153.8801,1153.8808,1155.3763,0,15,15,15,1,0.8,0.2,0.4,0.6,1,0,,,,,,,,,,,,,,,,,,,,,,,,,,,,,,,,,,,,
,,5d3a286034acef001ceb73ac,66daf5d4532a9daaf63723f6,2024-09-06_13h30.27.534,mdp,2024.2.1,Win32,59.88023952,66d7945b1baad48e845df3ce,,,,,,,,,,,,,,,,,,,,,1155.3765,1155.3765,1155.3772,1155.9933,0,1,left,0.0986,,1155.9945,1155.9948,1,1,,1155.9949,1155.9951,0,1,,0,1155.9951,1155.9951,1155.9953,1157.4925,0,16,16,16,1,0.8,0.2,0.4,0.6,1,0,,,,,,,,,,,,,,,,,,,,,,,,,,,,,,,,,,,,
,,5d3a286034acef001ceb73ac,66daf5d4532a9daaf63723f6,2024-09-06_13h30.27.534,mdp,2024.2.1,Win32,59.88023952,66d7945b1baad48e845df3ce,,,,,,,,,,,,,,,,,,,,,1157.4927,1157.4927,1157.493,1158.2268,0,0,left,0.218,,1158.228,1158.2288,1,0,,1158.2296,1158.2302,0,0,,1,1158.2302,1158.2303,1158.231,1159.7266,0,17,17,17,1,0.8,0.2,0.4,0.6,1,0,,,,,,,,,,,,,,,,,,,,,,,,,,,,,,,,,,,,
,,5d3a286034acef001ceb73ac,66daf5d4532a9daaf63723f6,2024-09-06_13h30.27.534,mdp,2024.2.1,Win32,59.88023952,66d7945b1baad48e845df3ce,,,,,,,,,,,,,,,,,,,,,1159.7271,1159.7271,1159.7282,1160.5259,1,1,right,0.2717,,1160.5264,1160.5266,1,1,,1160.5267,1160.5269,0,1,,0,1160.5269,1160.5269,1160.5271,1162.0264,0,18,18,18,1,0.8,0.2,0.4,0.6,1,0,,,,,,,,,,,,,,,,,,,,,,,,,,,,,,,,,,,,
,,5d3a286034acef001ceb73ac,66daf5d4532a9daaf63723f6,2024-09-06_13h30.27.534,mdp,2024.2.1,Win32,59.88023952,66d7945b1baad48e845df3ce,,,,,,,,,,,,,,,,,,,,,1162.0267,1162.0267,1162.0273,1162.7426,0,1,left,0.1881,,1162.743,1162.7433,1,0,,1162.7434,1162.7436,0,0,,0,1162.7436,1162.7436,1162.7439,1164.2432,0,19,19,19,1,0.6,0.4,0.6,0.4,1,0,,,,,,,,,,,,,,,,,,,,,,,,,,,,,,,,,,,,
,,5d3a286034acef001ceb73ac,66daf5d4532a9daaf63723f6,2024-09-06_13h30.27.534,mdp,2024.2.1,Win32,59.88023952,66d7945b1baad48e845df3ce,,,,,,,,,,,,,,,,,,,,,1164.2438,1164.2438,1164.2448,1165.1599,0,0,left,0.3898,,1165.161,1165.1617,1,0,,1165.1621,1165.1623,0,0,,1,1165.1623,1165.1623,1165.1624,1166.6598,0,20,20,20,1,0.6,0.4,0.6,0.4,1,0,,,,,,,,,,,,,,,,,,,,,,,,,,,,,,,,,,,,
,,5d3a286034acef001ceb73ac,66daf5d4532a9daaf63723f6,2024-09-06_13h30.27.534,mdp,2024.2.1,Win32,59.88023952,66d7945b1baad48e845df3ce,,,,,,,,,,,,,,,,,,,,,1166.6601,1166.6602,1166.6609,1167.4932,0,1,left,0.2988,,1167.4944,1167.4949,1,0,,1167.4953,1167.4954,0,1,,0,1167.4954,1167.4954,1167.4957,1168.9933,0,21,21,21,1,0.6,0.4,0.6,0.4,1,0,,,,,,,,,,,,,,,,,,,,,,,,,,,,,,,,,,,,
,,5d3a286034acef001ceb73ac,66daf5d4532a9daaf63723f6,2024-09-06_13h30.27.534,mdp,2024.2.1,Win32,59.88023952,66d7945b1baad48e845df3ce,,,,,,,,,,,,,,,,,,,,,1168.9938,1168.9938,1168.9948,1169.826,0,0,left,0.3064,,1169.8264,1169.8267,1,0,,1169.827,1169.8272,0,0,,1,1169.8272,1169.8272,1169.8274,1171.3263,0,22,22,22,1,0.8,0.2,0.8,0.2,1,0,,,,,,,,,,,,,,,,,,,,,,,,,,,,,,,,,,,,
,,5d3a286034acef001ceb73ac,66daf5d4532a9daaf63723f6,2024-09-06_13h30.27.534,mdp,2024.2.1,Win32,59.88023952,66d7945b1baad48e845df3ce,,,,,,,,,,,,,,,,,,,,,1171.3265,1171.3265,1171.3269,1172.1601,0,0,left,0.3018,,1172.1613,1172.1619,1,0,,1172.1627,1172.1633,0,0,,1,1172.1634,1172.1634,1172.1637,1173.6599,0,23,23,23,1,0.8,0.2,0.8,0.2,1,0,,,,,,,,,,,,,,,,,,,,,,,,,,,,,,,,,,,,
,,5d3a286034acef001ceb73ac,66daf5d4532a9daaf63723f6,2024-09-06_13h30.27.534,mdp,2024.2.1,Win32,59.88023952,66d7945b1baad48e845df3ce,,,,,,,,,,,,,,,,,,,,,1173.6604,1173.6604,1173.6614,1174.476,0,0,left,0.2915,,1174.4764,1174.4767,1,0,,1174.4768,1174.477,0,0,,1,1174.477,1174.477,1174.4772,1175.9767,0,24,24,24,1,0.8,0.2,0.8,0.2,1,0,,,,,,,,,,,,,,,,,,,,,,,,,,,,,,,,,,,,
,,5d3a286034acef001ceb73ac,66daf5d4532a9daaf63723f6,2024-09-06_13h30.27.534,mdp,2024.2.1,Win32,59.88023952,66d7945b1baad48e845df3ce,,,,,,,,,,,,,,,,,,,,,1175.9772,1175.9772,1175.9783,1176.6926,0,1,left,0.19,,1176.693,1176.6933,1,0,,1176.6935,1176.6936,0,0,,0,1176.6937,1176.6937,1176.6939,1178.1931,0,25,25,25,1,0.8,0.2,0.8,0.2,1,0,,,,,,,,,,,,,,,,,,,,,,,,,,,,,,,,,,,,
,,5d3a286034acef001ceb73ac,66daf5d4532a9daaf63723f6,2024-09-06_13h30.27.534,mdp,2024.2.1,Win32,59.88023952,66d7945b1baad48e845df3ce,,,,,,,,,,,,,,,,,,,,,1178.1937,1178.1937,1178.1947,1178.926,0,0,left,0.2008,,1178.9266,1178.9269,1,0,,1178.9271,1178.9273,0,0,,1,1178.9274,1178.9274,1178.9276,1180.4267,0,26,26,26,1,0.8,0.2,0.8,0.2,1,0,,,,,,,,,,,,,,,,,,,,,,,,,,,,,,,,,,,,
,,5d3a286034acef001ceb73ac,66daf5d4532a9daaf63723f6,2024-09-06_13h30.27.534,mdp,2024.2.1,Win32,59.88023952,66d7945b1baad48e845df3ce,,,,,,,,,,,,,,,,,,,,,1180.4272,1180.4272,1180.4282,1181.1767,0,0,left,0.218,,1181.1779,1181.1787,1,0,,1181.1794,1181.1801,0,1,,1,1181.1802,1181.1802,1181.1808,1182.6763,0,27,27,27,1,0.6,0.4,0.2,0.8,1,0,,,,,,,,,,,,,,,,,,,,,,,,,,,,,,,,,,,,
,,5d3a286034acef001ceb73ac,66daf5d4532a9daaf63723f6,2024-09-06_13h30.27.534,mdp,2024.2.1,Win32,59.88023952,66d7945b1baad48e845df3ce,,,,,,,,,,,,,,,,,,,,,1182.6765,1182.6765,1182.6772,1183.4762,0,1,left,0.2671,,1183.4769,1183.4773,1,1,,1183.4776,1183.4778,0,0,,0,1183.4778,1183.4778,1183.4781,1184.9767,0,28,28,28,1,0.6,0.4,0.2,0.8,1,0,,,,,,,,,,,,,,,,,,,,,,,,,,,,,,,,,,,,
,,5d3a286034acef001ceb73ac,66daf5d4532a9daaf63723f6,2024-09-06_13h30.27.534,mdp,2024.2.1,Win32,59.88023952,66d7945b1baad48e845df3ce,,,,,,,,,,,,,,,,,,,,,1184.9771,1184.9771,1184.9782,1185.6767,0,0,left,0.1654,,1185.678,1185.6786,1,0,,1185.6794,1185.6801,0,1,,1,1185.6801,1185.6801,1185.6806,1187.1766,0,29,29,29,1,0.6,0.4,0.2,0.8,1,0,,,,,,,,,,,,,,,,,,,,,,,,,,,,,,,,,,,,
,,5d3a286034acef001ceb73ac,66daf5d4532a9daaf63723f6,2024-09-06_13h30.27.534,mdp,2024.2.1,Win32,59.88023952,66d7945b1baad48e845df3ce,,,,,,,,,,,,,,,,,,,,,1187.177,1187.1771,1187.178,1188.1593,0,1,left,0.4501,,1188.1598,1188.16,1,1,,1188.1603,1188.1605,0,1,,0,1188.1605,1188.1605,1188.1608,1189.6598,0,30,30,30,1,0.2,0.8,0.6,0.4,1,0,,,,,,,,,,,,,,,,,,,,,,,,,,,,,,,,,,,,
,,5d3a286034acef001ceb73ac,66daf5d4532a9daaf63723f6,2024-09-06_13h30.27.534,mdp,2024.2.1,Win32,59.88023952,66d7945b1baad48e845df3ce,,,,,,,,,,,,,,,,,,,,,1189.6602,1189.6602,1189.6614,1190.3093,0,0,left,0.1255,,1190.3097,1190.31,1,0,,1190.3102,1190.3103,0,1,,1,1190.3104,1190.3104,1190.3105,1191.8094,0,31,31,31,1,0.4,0.6,0.8,0.2,1,0,,,,,,,,,,,,,,,,,,,,,,,,,,,,,,,,,,,,
,,5d3a286034acef001ceb73ac,66daf5d4532a9daaf63723f6,2024-09-06_13h30.27.534,mdp,2024.2.1,Win32,59.88023952,66d7945b1baad48e845df3ce,,,,,,,,,,,,,,,,,,,,,1191.8096,1191.8096,1191.8101,1192.5926,0,0,left,0.2745,,1192.593,1192.5933,1,0,,1192.5936,1192.5938,0,0,,1,1192.5938,1192.5938,1192.5941,1194.0934,0,32,32,32,1,0.6,0.4,0.4,0.6,1,0,,,,,,,,,,,,,,,,,,,,,,,,,,,,,,,,,,,,
,,5d3a286034acef001ceb73ac,66daf5d4532a9daaf63723f6,2024-09-06_13h30.27.534,mdp,2024.2.1,Win32,59.88023952,66d7945b1baad48e845df3ce,,,,,,,,,,,,,,,,,,,,,1194.0938,1194.0939,1194.0949,1194.7767,0,1,left,0.1497,,1194.778,1194.7787,1,0,,1194.7794,1194.78,0,0,,0,1194.78,1194.78,1194.7808,1196.2768,0,33,33,33,1,0.6,0.4,0.4,0.6,1,0,,,,,,,,,,,,,,,,,,,,,,,,,,,,,,,,,,,,
,,5d3a286034acef001ceb73ac,66daf5d4532a9daaf63723f6,2024-09-06_13h30.27.534,mdp,2024.2.1,Win32,59.88023952,66d7945b1baad48e845df3ce,,,,,,,,,,,,,,,,,,,,,1196.2772,1196.2772,1196.2782,1197.0434,0,1,left,0.2341,,1197.0447,1197.0453,1,0,,1197.0461,1197.0468,0,0,,0,1197.0468,1197.0469,1197.0475,1198.5434,0,34,34,34,1,0.6,0.4,0.4,0.6,1,0,,,,,,,,,,,,,,,,,,,,,,,,,,,,,,,,,,,,
,,5d3a286034acef001ceb73ac,66daf5d4532a9daaf63723f6,2024-09-06_13h30.27.534,mdp,2024.2.1,Win32,59.88023952,66d7945b1baad48e845df3ce,,,,,,,,,,,,,,,,,,,,,1198.5438,1198.5438,1198.5449,1199.3599,0,1,left,0.2914,,1199.361,1199.3614,1,0,,1199.3616,1199.3618,0,0,,0,1199.3618,1199.3618,1199.3621,1200.8598,0,35,35,35,1,0.6,0.4,0.4,0.6,1,0,,,,,,,,,,,,,,,,,,,,,,,,,,,,,,,,,,,,
,,5d3a286034acef001ceb73ac,66daf5d4532a9daaf63723f6,2024-09-06_13h30.27.534,mdp,2024.2.1,Win32,59.88023952,66d7945b1baad48e845df3ce,,,,,,,,,,,,,,,,,,,,,1200.8603,1200.8603,1200.8613,1201.5101,0,0,left,0.1177,,1201.5114,1201.512,1,0,,1201.5127,1201.5133,0,0,,1,1201.5133,1201.5133,1201.5141,1203.0098,0,36,36,36,1,0.6,0.4,0.4,0.6,1,0,,,,,,,,,,,,,,,,,,,,,,,,,,,,,,,,,,,,
,,5d3a286034acef001ceb73ac,66daf5d4532a9daaf63723f6,2024-09-06_13h30.27.534,mdp,2024.2.1,Win32,59.88023952,66d7945b1baad48e845df3ce,,,,,,,,,,,,,,,,,,,,,1203.0103,1203.0103,1203.0114,1203.7594,0,0,left,0.224,,1203.7597,1203.7601,1,0,,1203.7603,1203.7605,0,1,,1,1203.7605,1203.7605,1203.7608,1205.2601,0,37,37,37,1,0.6,0.4,0.4,0.6,1,0,,,,,,,,,,,,,,,,,,,,,,,,,,,,,,,,,,,,
,,5d3a286034acef001ceb73ac,66daf5d4532a9daaf63723f6,2024-09-06_13h30.27.534,mdp,2024.2.1,Win32,59.88023952,66d7945b1baad48e845df3ce,,,,,,,,,,,,,,,,,,,,,1205.2606,1205.2606,1205.2616,1206.1766,0,1,left,0.3824,,1206.1779,1206.1785,1,0,,1206.1792,1206.1794,0,0,,0,1206.1794,1206.1794,1206.1797,1207.6761,0,38,38,38,1,0.6,0.4,0.4,0.6,1,0,,,,,,,,,,,,,,,,,,,,,,,,,,,,,,,,,,,,
,,5d3a286034acef001ceb73ac,66daf5d4532a9daaf63723f6,2024-09-06_13h30.27.534,mdp,2024.2.1,Win32,59.88023952,66d7945b1baad48e845df3ce,,,,,,,,,,,,,,,,,,,,,1207.6764,1207.6764,1207.6768,1208.8765,0,0,left,0.6947,,1208.8769,1208.8772,1,0,,1208.8774,1208.8776,0,1,,1,1208.8776,1208.8776,1208.8778,1210.3764,0,39,39,39,1,0.6,0.4,0.4,0.6,1,0,,,,,,,,,,,,,,,,,,,,,,,,,,,,,,,,,,,,
,,5d3a286034acef001ceb73ac,66daf5d4532a9daaf63723f6,2024-09-06_13h30.27.534,mdp,2024.2.1,Win32,59.88023952,66d7945b1baad48e845df3ce,,,,,,,,,,,,,,,,,,,,,1210.3768,1210.3768,1210.3776,1211.1767,0,0,left,0.2671,,1211.1779,1211.1787,1,0,,1211.1794,1211.1802,0,1,,1,1211.1802,1211.1802,1211.181,1212.6767,0,40,40,40,1,0.6,0.4,0.4,0.6,1,0,,,,,,,,,,,,,,,,,,,,,,,,,,,,,,,,,,,,
,,5d3a286034acef001ceb73ac,66daf5d4532a9daaf63723f6,2024-09-06_13h30.27.534,mdp,2024.2.1,Win32,59.88023952,66d7945b1baad48e845df3ce,,,,,,,,,,,,,,,,,,,,,1212.6772,1212.6772,1212.6782,1213.5266,0,0,left,0.3243,,1213.5279,1213.5285,1,1,,1213.5293,1213.53,0,0,,1,1213.53,1213.53,1213.5306,1215.0266,0,41,41,41,1,0.2,0.8,0.8,0.2,1,0,,,,,,,,,,,,,,,,,,,,,,,,,,,,,,,,,,,,
,,5d3a286034acef001ceb73ac,66daf5d4532a9daaf63723f6,2024-09-06_13h30.27.534,mdp,2024.2.1,Win32,59.88023952,66d7945b1baad48e845df3ce,,,,,,,,,,,,,,,,,,,,,1215.0271,1215.0271,1215.0282,1215.8931,0,1,left,0.3351,,1215.8944,1215.8951,1,1,,1215.8959,1215.8967,0,1,,0,1215.8967,1215.8967,1215.897,1217.3927,0,42,42,42,1,0.2,0.8,0.8,0.2,1,0,,,,,,,,,,,,,,,,,,,,,,,,,,,,,,,,,,,,
