init_exp.started,init_exp.stopped,participant,session,date,expName,psychopyVersion,OS,frameRate,study_id,disp_instruction.started,disp_instruction.stopped,instruction.thisRepN,instruction.thisTrialN,instruction.thisN,instruction.thisIndex,instruction.ran,instimg_path,consent.started,consent.stopped,key_resp_3.keys,key_resp_3.rt,key_resp_3.duration,n_steps,sequence_path,init_block.started,init_block.stopped,key_resp.keys,key_resp.rt,key_resp.duration,init_trials.started,init_trials.stopped,step0.started,step0.stopped,act0,s1,res0.keys,res0.rt,res0.duration,step1.started,step1.stopped,act1,s2,res1.keys,step2.started,step2.stopped,act2,s3,res2.keys,rew,reward_comp.started,reward_comp.stopped,reward_disp.started,reward_disp.stopped,trials.thisRepN,trials.thisTrialN,trials.thisN,trials.thisIndex,trials.ran,s00a0s10,s00a0s11,s00a1s10,s00a1s11,rew10,rew11,break_block.started,break_block.stopped,block.thisRepN,block.thisTrialN,block.thisN,block.thisIndex,block.ran,s00path,s10path,s11path,s20path,s21path,res1.rt,res1.duration,s10a0s20,s10a0s21,s10a1s20,s10a1s21,s11a0s20,s11a0s21,s11a1s20,s11a1s21,rew20,rew21,res2.rt,res2.duration,s20a0s30,s20a0s31,s20a1s30,s20a1s31,s21a0s30,s21a0s31,s21a1s30,s21a1s31,rew30,rew31
0.0006,0.0022,5d585e287d795e001788bf4c,66fc988d7f83fb21ca39aa33,2024-10-02_02h50.22.160,mdp,2024.2.1,Win32,60.60606061,66fa4ebf79326e780c390304,,,,,,,,,,,,,,,,,,,,,,,,,,,,,,,,,,,,,,,,,,,,,,,,,,,,,,,,,,,,,,,,,,,,,,,,,,,,,,,,,,,,,,,,,,,
,,5d585e287d795e001788bf4c,66fc988d7f83fb21ca39aa33,2024-10-02_02h50.22.160,mdp,2024.2.1,Win32,60.60606061,66fa4ebf79326e780c390304,0.0069,103.7585,0,0,0,0,1,rlnn_exp/rlnn_exp.001.png,,,,,,,,,,,,,,,,,,,,,,,,,,,,,,,,,,,,,,,,,,,,,,,,,,,,,,,,,,,,,,,,,,,,,,,,,,,,,,,,,,,
,,5d585e287d795e001788bf4c,66fc988d7f83fb21ca39aa33,2024-10-02_02h50.22.160,mdp,2024.2.1,Win32,60.60606061,66fa4ebf79326e780c390304,103.7591,160.2117,0,1,1,1,1,rlnn_exp/rlnn_exp.002.png,,,,,,,,,,,,,,,,,,,,,,,,,,,,,,,,,,,,,,,,,,,,,,,,,,,,,,,,,,,,,,,,,,,,,,,,,,,,,,,,,,,
,,5d585e287d795e001788bf4c,66fc988d7f83fb21ca39aa33,2024-10-02_02h50.22.160,mdp,2024.2.1,Win32,60.60606061,66fa4ebf79326e780c390304,160.2266,194.8947,0,2,2,2,1,rlnn_exp/rlnn_exp.003.png,,,,,,,,,,,,,,,,,,,,,,,,,,,,,,,,,,,,,,,,,,,,,,,,,,,,,,,,,,,,,,,,,,,,,,,,,,,,,,,,,,,
,,5d585e287d795e001788bf4c,66fc988d7f83fb21ca39aa33,2024-10-02_02h50.22.160,mdp,2024.2.1,Win32,60.60606061,66fa4ebf79326e780c390304,194.9061,255.6614,0,3,3,3,1,rlnn_exp/rlnn_exp.004.png,,,,,,,,,,,,,,,,,,,,,,,,,,,,,,,,,,,,,,,,,,,,,,,,,,,,,,,,,,,,,,,,,,,,,,,,,,,,,,,,,,,
,,5d585e287d795e001788bf4c,66fc988d7f83fb21ca39aa33,2024-10-02_02h50.22.160,mdp,2024.2.1,Win32,60.60606061,66fa4ebf79326e780c390304,,,,,,,,,255.6741,330.1951,y,64.5003,,,,,,,,,,,,,,,,,,,,,,,,,,,,,,,,,,,,,,,,,,,,,,,,,,,,,,,,,,,,,,,,,,,,,,,,,,,,,,,
,,5d585e287d795e001788bf4c,66fc988d7f83fb21ca39aa33,2024-10-02_02h50.22.160,mdp,2024.2.1,Win32,60.60606061,66fa4ebf79326e780c390304,,,,,,,,,,,,,,1,seqs/st1seq1.csv,330.2115,335.6617,space,4.9242,,335.6749,335.675,335.6753,357.1619,0,1,left,20.9574,,357.1734,357.1747,,0,,357.175,357.1759,,1,,0,357.176,357.1761,357.1763,358.678,0,0,0,0,1,0.4,0.6,0.8,0.2,1,0,,,,,,,,,,,,,,,,,,,,,,,,,,,,,,,,,,,,
,,5d585e287d795e001788bf4c,66fc988d7f83fb21ca39aa33,2024-10-02_02h50.22.160,mdp,2024.2.1,Win32,60.60606061,66fa4ebf79326e780c390304,,,,,,,,,,,,,,,,,,,,,358.6786,358.6787,358.6808,360.0778,1,0,right,0.8735,,360.0796,360.0816,,0,,360.0828,360.0837,,0,,1,360.0837,360.0837,360.0844,361.5778,0,1,1,1,1,0.4,0.6,0.8,0.2,1,0,,,,,,,,,,,,,,,,,,,,,,,,,,,,,,,,,,,,
,,5d585e287d795e001788bf4c,66fc988d7f83fb21ca39aa33,2024-10-02_02h50.22.160,mdp,2024.2.1,Win32,60.60606061,66fa4ebf79326e780c390304,,,,,,,,,,,,,,,,,,,,,361.5783,361.5783,361.5811,362.9113,1,0,right,0.8057,,362.913,362.9151,,0,,362.9161,362.9168,,0,,1,362.9169,362.9169,362.9176,364.4113,0,2,2,2,1,0.4,0.6,0.8,0.2,1,0,,,,,,,,,,,,,,,,,,,,,,,,,,,,,,,,,,,,
,,5d585e287d795e001788bf4c,66fc988d7f83fb21ca39aa33,2024-10-02_02h50.22.160,mdp,2024.2.1,Win32,60.60606061,66fa4ebf79326e780c390304,,,,,,,,,,,,,,,,,,,,,364.4116,364.4116,364.4142,365.6281,1,1,right,0.6841,,365.6298,365.6317,,1,,365.6326,365.6333,,1,,0,365.6334,365.6334,365.6342,367.1278,0,3,3,3,1,0.8,0.2,0.2,0.8,1,0,,,,,,,,,,,,,,,,,,,,,,,,,,,,,,,,,,,,
,,5d585e287d795e001788bf4c,66fc988d7f83fb21ca39aa33,2024-10-02_02h50.22.160,mdp,2024.2.1,Win32,60.60606061,66fa4ebf79326e780c390304,,,,,,,,,,,,,,,,,,,,,367.1283,367.1283,367.1306,368.8279,1,1,right,1.1753,,368.8294,368.8314,,0,,368.8323,368.833,,1,,0,368.833,368.833,368.8338,370.3278,0,4,4,4,1,0.8,0.2,0.2,0.8,1,0,,,,,,,,,,,,,,,,,,,,,,,,,,,,,,,,,,,,
,,5d585e287d795e001788bf4c,66fc988d7f83fb21ca39aa33,2024-10-02_02h50.22.160,mdp,2024.2.1,Win32,60.60606061,66fa4ebf79326e780c390304,,,,,,,,,,,,,,,,,,,,,370.3281,370.3282,370.3293,372.0445,1,1,right,1.1915,,372.0459,372.0479,,1,,372.0489,372.0496,,1,,0,372.0496,372.0496,372.0503,373.5445,0,5,5,5,1,0.8,0.2,0.2,0.8,1,0,,,,,,,,,,,,,,,,,,,,,,,,,,,,,,,,,,,,
,,5d585e287d795e001788bf4c,66fc988d7f83fb21ca39aa33,2024-10-02_02h50.22.160,mdp,2024.2.1,Win32,60.60606061,66fa4ebf79326e780c390304,,,,,,,,,,,,,,,,,,,,,373.5449,373.5449,373.5469,376.3447,1,1,right,2.2675,,376.3463,376.3483,,0,,376.3494,376.3503,,1,,0,376.3504,376.3504,376.3512,377.8445,0,6,6,6,1,0.8,0.2,0.2,0.8,1,0,,,,,,,,,,,,,,,,,,,,,,,,,,,,,,,,,,,,
,,5d585e287d795e001788bf4c,66fc988d7f83fb21ca39aa33,2024-10-02_02h50.22.160,mdp,2024.2.1,Win32,60.60606061,66fa4ebf79326e780c390304,,,,,,,,,,,,,,,,,,,,,377.8449,377.8449,377.8472,381.9279,1,1,right,3.5505,,381.9389,381.9396,,1,,381.9403,381.9408,,1,,0,381.9408,381.9408,381.9412,383.4444,0,7,7,7,1,0.8,0.2,0.2,0.8,1,0,,,,,,,,,,,,,,,,,,,,,,,,,,,,,,,,,,,,
,,5d585e287d795e001788bf4c,66fc988d7f83fb21ca39aa33,2024-10-02_02h50.22.160,mdp,2024.2.1,Win32,60.60606061,66fa4ebf79326e780c390304,,,,,,,,,,,,,,,,,,,,,383.4449,383.445,383.4468,384.6779,0,0,left,0.7005,,384.6794,384.6812,,0,,384.6825,384.6832,,1,,1,384.6833,384.6833,384.6841,386.1778,0,8,8,8,1,0.2,0.8,0.6,0.4,1,0,,,,,,,,,,,,,,,,,,,,,,,,,,,,,,,,,,,,
,,5d585e287d795e001788bf4c,66fc988d7f83fb21ca39aa33,2024-10-02_02h50.22.160,mdp,2024.2.1,Win32,60.60606061,66fa4ebf79326e780c390304,,,,,,,,,,,,,,,,,,,,,386.1783,386.1783,386.1806,390.6279,0,0,left,3.9174,,390.6395,390.6401,,1,,390.6406,390.6411,,1,,1,390.6411,390.6413,390.6416,392.1445,0,9,9,9,1,0.2,0.8,0.6,0.4,1,0,,,,,,,,,,,,,,,,,,,,,,,,,,,,,,,,,,,,
,,5d585e287d795e001788bf4c,66fc988d7f83fb21ca39aa33,2024-10-02_02h50.22.160,mdp,2024.2.1,Win32,60.60606061,66fa4ebf79326e780c390304,,,,,,,,,,,,,,,,,,,,,392.1448,392.1449,392.1466,393.4612,0,1,left,0.7839,,393.4627,393.4645,,0,,393.4657,393.4665,,1,,0,393.4665,393.4665,393.4674,394.9612,0,10,10,10,1,0.2,0.8,0.6,0.4,1,0,,,,,,,,,,,,,,,,,,,,,,,,,,,,,,,,,,,,
,,5d585e287d795e001788bf4c,66fc988d7f83fb21ca39aa33,2024-10-02_02h50.22.160,mdp,2024.2.1,Win32,60.60606061,66fa4ebf79326e780c390304,,,,,,,,,,,,,,,,,,,,,394.9616,394.9616,394.9632,396.2112,1,0,right,0.7182,,396.2127,396.2144,,1,,396.2159,396.2164,,0,,1,396.2164,396.2164,396.217,397.7112,0,11,11,11,1,0.2,0.8,0.6,0.4,1,0,,,,,,,,,,,,,,,,,,,,,,,,,,,,,,,,,,,,
,,5d585e287d795e001788bf4c,66fc988d7f83fb21ca39aa33,2024-10-02_02h50.22.160,mdp,2024.2.1,Win32,60.60606061,66fa4ebf79326e780c390304,,,,,,,,,,,,,,,,,,,,,397.7115,397.7116,397.7137,398.7279,0,1,left,0.4841,,398.7293,398.731,,0,,398.7325,398.7332,,1,,0,398.7333,398.7333,398.7342,400.2278,0,12,12,12,1,0.2,0.8,0.6,0.4,1,0,,,,,,,,,,,,,,,,,,,,,,,,,,,,,,,,,,,,
,,5d585e287d795e001788bf4c,66fc988d7f83fb21ca39aa33,2024-10-02_02h50.22.160,mdp,2024.2.1,Win32,60.60606061,66fa4ebf79326e780c390304,,,,,,,,,,,,,,,,,,,,,400.2282,400.2282,400.2299,401.2779,1,0,right,0.5235,,401.2794,401.281,,0,,401.2825,401.283,,0,,1,401.283,401.283,401.2836,402.7778,0,13,13,13,1,0.2,0.8,0.6,0.4,1,0,,,,,,,,,,,,,,,,,,,,,,,,,,,,,,,,,,,,
,,5d585e287d795e001788bf4c,66fc988d7f83fb21ca39aa33,2024-10-02_02h50.22.160,mdp,2024.2.1,Win32,60.60606061,66fa4ebf79326e780c390304,,,,,,,,,,,,,,,,,,,,,402.7782,402.7783,402.7797,403.9778,1,0,right,0.6647,,403.9801,403.9821,,0,,403.9831,403.9835,,1,,1,403.9835,403.9835,403.9839,405.478,0,14,14,14,1,0.2,0.8,0.6,0.4,1,0,,,,,,,,,,,,,,,,,,,,,,,,,,,,,,,,,,,,
,,5d585e287d795e001788bf4c,66fc988d7f83fb21ca39aa33,2024-10-02_02h50.22.160,mdp,2024.2.1,Win32,60.60606061,66fa4ebf79326e780c390304,,,,,,,,,,,,,,,,,,,,,405.4783,405.4783,405.48,406.7112,1,1,right,0.7008,,406.7127,406.7151,,0,,406.716,406.7166,,0,,0,406.7166,406.7166,406.7173,408.2112,0,15,15,15,1,0.4,0.6,0.8,0.2,1,0,,,,,,,,,,,,,,,,,,,,,,,,,,,,,,,,,,,,
,,5d585e287d795e001788bf4c,66fc988d7f83fb21ca39aa33,2024-10-02_02h50.22.160,mdp,2024.2.1,Win32,60.60606061,66fa4ebf79326e780c390304,,,,,,,,,,,,,,,,,,,,,408.2114,408.2115,408.2132,408.9947,0,1,left,0.2527,,408.9963,408.9982,,0,,408.9992,408.9998,,1,,0,408.9998,408.9998,409.0007,410.4944,0,16,16,16,1,0.4,0.6,0.8,0.2,1,0,,,,,,,,,,,,,,,,,,,,,,,,,,,,,,,,,,,,
,,5d585e287d795e001788bf4c,66fc988d7f83fb21ca39aa33,2024-10-02_02h50.22.160,mdp,2024.2.1,Win32,60.60606061,66fa4ebf79326e780c390304,,,,,,,,,,,,,,,,,,,,,410.4948,410.4948,410.4967,411.1279,0,1,left,0.1007,,411.1293,411.1312,,0,,411.1323,411.1331,,1,,0,411.1331,411.1331,411.134,412.6278,0,17,17,17,1,0.4,0.6,0.8,0.2,1,0,,,,,,,,,,,,,,,,,,,,,,,,,,,,,,,,,,,,
,,5d585e287d795e001788bf4c,66fc988d7f83fb21ca39aa33,2024-10-02_02h50.22.160,mdp,2024.2.1,Win32,60.60606061,66fa4ebf79326e780c390304,,,,,,,,,,,,,,,,,,,,,412.6281,412.6282,412.6298,413.5279,1,0,right,0.3671,,413.5294,413.5311,,0,,413.5323,413.5328,,0,,1,413.5329,413.5329,413.5342,415.0279,0,18,18,18,1,0.4,0.6,0.8,0.2,1,0,,,,,,,,,,,,,,,,,,,,,,,,,,,,,,,,,,,,
,,5d585e287d795e001788bf4c,66fc988d7f83fb21ca39aa33,2024-10-02_02h50.22.160,mdp,2024.2.1,Win32,60.60606061,66fa4ebf79326e780c390304,,,,,,,,,,,,,,,,,,,,,415.0283,415.0284,415.0304,416.1112,0,1,left,0.5558,,416.1128,416.1144,,1,,416.1158,416.1163,,0,,0,416.1164,416.1164,416.1169,417.6112,0,19,19,19,1,0.4,0.6,0.8,0.2,1,0,,,,,,,,,,,,,,,,,,,,,,,,,,,,,,,,,,,,
,,5d585e287d795e001788bf4c,66fc988d7f83fb21ca39aa33,2024-10-02_02h50.22.160,mdp,2024.2.1,Win32,60.60606061,66fa4ebf79326e780c390304,,,,,,,,,,,,,,,,,,,,,417.6117,417.6117,417.6133,418.4279,0,0,left,0.292,,418.4291,418.4309,,0,,418.4323,418.4328,,0,,1,418.4329,418.4329,418.4336,419.9277,0,20,20,20,1,0.4,0.6,0.8,0.2,1,0,,,,,,,,,,,,,,,,,,,,,,,,,,,,,,,,,,,,
,,5d585e287d795e001788bf4c,66fc988d7f83fb21ca39aa33,2024-10-02_02h50.22.160,mdp,2024.2.1,Win32,60.60606061,66fa4ebf79326e780c390304,,,,,,,,,,,,,,,,,,,,,419.9281,419.9282,419.9299,421.0279,0,1,left,0.5675,,421.0293,421.0308,,1,,421.0323,421.0329,,0,,0,421.0329,421.0329,421.0337,422.5278,0,21,21,21,1,0.4,0.6,0.8,0.2,1,0,,,,,,,,,,,,,,,,,,,,,,,,,,,,,,,,,,,,
,,5d585e287d795e001788bf4c,66fc988d7f83fb21ca39aa33,2024-10-02_02h50.22.160,mdp,2024.2.1,Win32,60.60606061,66fa4ebf79326e780c390304,,,,,,,,,,,,,,,,,,,,,422.5281,422.5282,422.5297,423.1778,1,0,right,0.1174,,423.1793,423.1809,,1,,423.1821,423.1827,,0,,1,423.1827,423.1827,423.1832,424.6778,0,22,22,22,1,0.4,0.6,0.8,0.2,1,0,,,,,,,,,,,,,,,,,,,,,,,,,,,,,,,,,,,,
,,5d585e287d795e001788bf4c,66fc988d7f83fb21ca39aa33,2024-10-02_02h50.22.160,mdp,2024.2.1,Win32,60.60606061,66fa4ebf79326e780c390304,,,,,,,,,,,,,,,,,,,,,424.6782,424.6783,424.6798,425.9446,1,0,right,0.734,,425.9457,425.9473,,0,,425.9488,425.9494,,0,,1,425.9494,425.9494,425.9499,427.4445,0,23,23,23,1,0.2,0.8,0.6,0.4,1,0,,,,,,,,,,,,,,,,,,,,,,,,,,,,,,,,,,,,
,,5d585e287d795e001788bf4c,66fc988d7f83fb21ca39aa33,2024-10-02_02h50.22.160,mdp,2024.2.1,Win32,60.60606061,66fa4ebf79326e780c390304,,,,,,,,,,,,,,,,,,,,,427.4448,427.4449,427.4466,428.3113,0,1,left,0.3339,,428.3127,428.3142,,1,,428.3157,428.3161,,1,,0,428.3162,428.3162,428.3169,429.8111,0,24,24,24,1,0.2,0.8,0.6,0.4,1,0,,,,,,,,,,,,,,,,,,,,,,,,,,,,,,,,,,,,
,,5d585e287d795e001788bf4c,66fc988d7f83fb21ca39aa33,2024-10-02_02h50.22.160,mdp,2024.2.1,Win32,60.60606061,66fa4ebf79326e780c390304,,,,,,,,,,,,,,,,,,,,,429.8116,429.8116,429.8133,430.9946,0,1,left,0.6533,,430.9958,430.9977,,1,,430.9989,430.9994,,1,,0,430.9994,430.9994,431,432.4945,0,25,25,25,1,0.2,0.8,0.6,0.4,1,0,,,,,,,,,,,,,,,,,,,,,,,,,,,,,,,,,,,,
,,5d585e287d795e001788bf4c,66fc988d7f83fb21ca39aa33,2024-10-02_02h50.22.160,mdp,2024.2.1,Win32,60.60606061,66fa4ebf79326e780c390304,,,,,,,,,,,,,,,,,,,,,432.4948,432.4949,432.4963,433.9779,1,1,right,0.9508,,433.9791,433.9808,,0,,433.9824,433.983,,1,,0,433.9831,433.9831,433.9838,435.4777,0,26,26,26,1,0.2,0.8,0.6,0.4,1,0,,,,,,,,,,,,,,,,,,,,,,,,,,,,,,,,,,,,
,,5d585e287d795e001788bf4c,66fc988d7f83fb21ca39aa33,2024-10-02_02h50.22.160,mdp,2024.2.1,Win32,60.60606061,66fa4ebf79326e780c390304,,,,,,,,,,,,,,,,,,,,,435.4782,435.4782,435.4797,436.1278,0,1,left,0.1219,,436.1295,436.1307,,1,,436.1321,436.1328,,0,,0,436.1328,436.1328,436.1337,437.6279,0,27,27,27,1,0.6,0.4,0.4,0.6,1,0,,,,,,,,,,,,,,,,,,,,,,,,,,,,,,,,,,,,
,,5d585e287d795e001788bf4c,66fc988d7f83fb21ca39aa33,2024-10-02_02h50.22.160,mdp,2024.2.1,Win32,60.60606061,66fa4ebf79326e780c390304,,,,,,,,,,,,,,,,,,,,,437.6282,437.6282,437.63,439.0612,1,1,right,0.9004,,439.0626,439.0645,,1,,439.0658,439.0663,,0,,0,439.0663,439.0663,439.0668,440.5612,0,28,28,28,1,0.6,0.4,0.4,0.6,1,0,,,,,,,,,,,,,,,,,,,,,,,,,,,,,,,,,,,,
,,5d585e287d795e001788bf4c,66fc988d7f83fb21ca39aa33,2024-10-02_02h50.22.160,mdp,2024.2.1,Win32,60.60606061,66fa4ebf79326e780c390304,,,,,,,,,,,,,,,,,,,,,440.5615,440.5616,440.5633,441.228,0,1,left,0.1341,,441.2295,441.2312,,0,,441.2327,441.2335,,0,,0,441.2335,441.2335,441.2342,442.7278,0,29,29,29,1,0.6,0.4,0.4,0.6,1,0,,,,,,,,,,,,,,,,,,,,,,,,,,,,,,,,,,,,
,,5d585e287d795e001788bf4c,66fc988d7f83fb21ca39aa33,2024-10-02_02h50.22.160,mdp,2024.2.1,Win32,60.60606061,66fa4ebf79326e780c390304,,,,,,,,,,,,,,,,,,,,,442.7281,442.7281,442.7299,443.9445,0,0,left,0.6843,,443.946,443.9479,,0,,443.9493,443.9499,,0,,1,443.95,443.95,443.9506,445.4444,0,30,30,30,1,0.6,0.4,0.4,0.6,1,0,,,,,,,,,,,,,,,,,,,,,,,,,,,,,,,,,,,,
,,5d585e287d795e001788bf4c,66fc988d7f83fb21ca39aa33,2024-10-02_02h50.22.160,mdp,2024.2.1,Win32,60.60606061,66fa4ebf79326e780c390304,,,,,,,,,,,,,,,,,,,,,445.4449,445.4449,445.4466,447.2112,0,0,left,1.2342,,447.2126,447.2142,,1,,447.2156,447.2161,,1,,1,447.2161,447.2161,447.2169,448.7112,0,31,31,31,1,0.6,0.4,0.4,0.6,1,0,,,,,,,,,,,,,,,,,,,,,,,,,,,,,,,,,,,,
,,5d585e287d795e001788bf4c,66fc988d7f83fb21ca39aa33,2024-10-02_02h50.22.160,mdp,2024.2.1,Win32,60.60606061,66fa4ebf79326e780c390304,,,,,,,,,,,,,,,,,,,,,448.7116,448.7116,448.7132,449.8779,0,1,left,0.634,,449.8792,449.8815,,0,,449.8825,449.8833,,0,,0,449.8833,449.8833,449.884,451.3779,0,32,32,32,1,0.6,0.4,0.4,0.6,1,0,,,,,,,,,,,,,,,,,,,,,,,,,,,,,,,,,,,,
,,5d585e287d795e001788bf4c,66fc988d7f83fb21ca39aa33,2024-10-02_02h50.22.160,mdp,2024.2.1,Win32,60.60606061,66fa4ebf79326e780c390304,,,,,,,,,,,,,,,,,,,,,451.3786,451.3787,451.3816,452.4279,1,0,right,0.5252,,452.4292,452.4309,,1,,452.4323,452.4329,,1,,1,452.4329,452.4329,452.4336,453.9277,0,33,33,33,1,0.6,0.4,0.4,0.6,1,0,,,,,,,,,,,,,,,,,,,,,,,,,,,,,,,,,,,,
,,5d585e287d795e001788bf4c,66fc988d7f83fb21ca39aa33,2024-10-02_02h50.22.160,mdp,2024.2.1,Win32,60.60606061,66fa4ebf79326e780c390304,,,,,,,,,,,,,,,,,,,,,453.9282,453.9282,453.9299,455.1279,1,1,right,0.6671,,455.1292,455.131,,1,,455.1321,455.1326,,0,,0,455.1326,455.1326,455.1333,456.6278,0,34,34,34,1,0.6,0.4,0.4,0.6,1,0,,,,,,,,,,,,,,,,,,,,,,,,,,,,,,,,,,,,
,,5d585e287d795e001788bf4c,66fc988d7f83fb21ca39aa33,2024-10-02_02h50.22.160,mdp,2024.2.1,Win32,60.60606061,66fa4ebf79326e780c390304,,,,,,,,,,,,,,,,,,,,,456.6282,456.6282,456.6301,457.1612,0,1,left,0.0006,,457.1626,457.1645,,1,,457.1657,457.1664,,1,,0,457.1664,457.1664,457.167,458.6612,0,35,35,35,1,0.2,0.8,0.6,0.4,1,0,,,,,,,,,,,,,,,,,,,,,,,,,,,,,,,,,,,,
,,5d585e287d795e001788bf4c,66fc988d7f83fb21ca39aa33,2024-10-02_02h50.22.160,mdp,2024.2.1,Win32,60.60606061,66fa4ebf79326e780c390304,,,,,,,,,,,,,,,,,,,,,458.6615,458.6615,458.6632,459.2278,0,0,left,0.042,,459.2293,459.2309,,1,,459.2322,459.2327,,0,,1,459.2328,459.2328,459.2338,460.7278,0,36,36,36,1,0.2,0.8,0.6,0.4,1,0,,,,,,,,,,,,,,,,,,,,,,,,,,,,,,,,,,,,
,,5d585e287d795e001788bf4c,66fc988d7f83fb21ca39aa33,2024-10-02_02h50.22.160,mdp,2024.2.1,Win32,60.60606061,66fa4ebf79326e780c390304,,,,,,,,,,,,,,,,,,,,,460.7282,460.7282,460.73,461.4112,0,1,left,0.1515,,461.4126,461.4143,,0,,461.4155,461.416,,1,,0,461.416,461.4161,461.4166,462.911,0,37,37,37,1,0.2,0.8,0.6,0.4,1,0,,,,,,,,,,,,,,,,,,,,,,,,,,,,,,,,,,,,
,,5d585e287d795e001788bf4c,66fc988d7f83fb21ca39aa33,2024-10-02_02h50.22.160,mdp,2024.2.1,Win32,60.60606061,66fa4ebf79326e780c390304,,,,,,,,,,,,,,,,,,,,,462.9115,462.9115,462.9131,464.0612,1,0,right,0.6242,,464.0625,464.064,,1,,464.0656,464.0663,,0,,1,464.0663,464.0663,464.0669,465.5612,0,38,38,38,1,0.2,0.8,0.6,0.4,1,0,,,,,,,,,,,,,,,,,,,,,,,,,,,,,,,,,,,,
,,5d585e287d795e001788bf4c,66fc988d7f83fb21ca39aa33,2024-10-02_02h50.22.160,mdp,2024.2.1,Win32,60.60606061,66fa4ebf79326e780c390304,,,,,,,,,,,,,,,,,,,,,465.5615,465.5615,465.5637,466.5945,1,0,right,0.5024,,466.5958,466.5974,,1,,466.5992,466.5998,,0,,1,466.5998,466.5998,466.6003,468.0945,0,39,39,39,1,0.2,0.8,0.6,0.4,1,0,,,,,,,,,,,,,,,,,,,,,,,,,,,,,,,,,,,,
,,5d585e287d795e001788bf4c,66fc988d7f83fb21ca39aa33,2024-10-02_02h50.22.160,mdp,2024.2.1,Win32,60.60606061,66fa4ebf79326e780c390304,,,,,,,,,,,,,,,,,,,,,468.0949,468.0949,468.0993,468.9445,1,1,right,0.3217,,468.946,468.9479,,1,,468.9491,468.9496,,1,,0,468.9496,468.9496,468.9502,470.4444,0,40,40,40,1,0.2,0.8,0.6,0.4,1,0,,,,,,,,,,,,,,,,,,,,,,,,,,,,,,,,,,,,
,,5d585e287d795e001788bf4c,66fc988d7f83fb21ca39aa33,2024-10-02_02h50.22.160,mdp,2024.2.1,Win32,60.60606061,66fa4ebf79326e780c390304,,,,,,,,,,,,,,,,,,,,,470.4448,470.4449,470.4465,471.0778,0,1,left,0.1006,,471.0791,471.0809,,1,,471.082,471.0825,,0,,0,471.0826,471.0826,471.0832,472.5778,0,41,41,41,1,0.2,0.8,0.6,0.4,1,0,,,,,,,,,,,,,,,,,,,,,,,,,,,,,,,,,,,,
,,5d585e287d795e001788bf4c,66fc988d7f83fb21ca39aa33,2024-10-02_02h50.22.160,mdp,2024.2.1,Win32,60.60606061,66fa4ebf79326e780c390304,,,,,,,,,,,,,,,,,,,,,472.5781,472.5781,472.5798,473.5778,0,1,left,0.4673,,473.5793,473.581,,1,,473.5823,473.5829,,1,,0,473.5829,473.5829,473.5836,475.0778,0,42,42,42,1,0.2,0.8,0.6,0.4,1,0,,,,,,,,,,,,,,,,,,,,,,,,,,,,,,,,,,,,
,,5d585e287d795e001788bf4c,66fc988d7f83fb21ca39aa33,2024-10-02_02h50.22.160,mdp,2024.2.1,Win32,60.60606061,66fa4ebf79326e780c390304,,,,,,,,,,,,,,,,,,,,,475.0782,475.0782,475.0799,475.8946,0,0,left,0.2838,,475.896,475.8976,,1,,475.8989,475.8994,,1,,1,475.8994,475.8995,475.9001,477.3944,0,43,43,43,1,0.4,0.6,0.8,0.2,1,0,,,,,,,,,,,,,,,,,,,,,,,,,,,,,,,,,,,,
,,5d585e287d795e001788bf4c,66fc988d7f83fb21ca39aa33,2024-10-02_02h50.22.160,mdp,2024.2.1,Win32,60.60606061,66fa4ebf79326e780c390304,,,,,,,,,,,,,,,,,,,,,477.3948,477.3948,477.3962,478.4279,0,0,left,0.5085,,478.4292,478.4308,,1,,478.4323,478.4328,,1,,1,478.4328,478.4328,478.4336,479.9278,0,44,44,44,1,0.4,0.6,0.8,0.2,1,0,,,,,,,,,,,,,,,,,,,,,,,,,,,,,,,,,,,,
,,5d585e287d795e001788bf4c,66fc988d7f83fb21ca39aa33,2024-10-02_02h50.22.160,mdp,2024.2.1,Win32,60.60606061,66fa4ebf79326e780c390304,,,,,,,,,,,,,,,,,,,,,479.9282,479.9282,479.9298,481.0611,0,1,left,0.6003,,481.0626,481.064,,1,,481.0655,481.066,,1,,0,481.0661,481.0661,481.067,482.5611,0,45,45,45,1,0.4,0.6,0.8,0.2,1,0,,,,,,,,,,,,,,,,,,,,,,,,,,,,,,,,,,,,
,,5d585e287d795e001788bf4c,66fc988d7f83fb21ca39aa33,2024-10-02_02h50.22.160,mdp,2024.2.1,Win32,60.60606061,66fa4ebf79326e780c390304,,,,,,,,,,,,,,,,,,,,,482.5617,482.5617,482.5633,483.6612,1,0,right,0.5743,,483.6629,483.665,,0,,483.6662,483.6672,,0,,1,483.6672,483.6672,483.668,485.1611,0,46,46,46,1,0.8,0.2,0.4,0.6,1,0,,,,,,,,,,,,,,,,,,,,,,,,,,,,,,,,,,,,
,,5d585e287d795e001788bf4c,66fc988d7f83fb21ca39aa33,2024-10-02_02h50.22.160,mdp,2024.2.1,Win32,60.60606061,66fa4ebf79326e780c390304,,,,,,,,,,,,,,,,,,,,,485.1615,485.1615,485.1632,486.1946,1,1,right,0.504,,486.1962,486.1986,,1,,486.1995,486.2004,,1,,0,486.2005,486.2005,486.2012,487.6944,0,47,47,47,1,0.8,0.2,0.4,0.6,1,0,,,,,,,,,,,,,,,,,,,,,,,,,,,,,,,,,,,,
,,5d585e287d795e001788bf4c,66fc988d7f83fb21ca39aa33,2024-10-02_02h50.22.160,mdp,2024.2.1,Win32,60.60606061,66fa4ebf79326e780c390304,,,,,,,,,,,,,,,,,,,,,487.6949,487.695,487.6966,488.812,1,0,right,0.593,,488.8136,488.8151,,0,,488.8161,488.8167,,1,,1,488.8168,488.8168,488.8175,490.3111,0,48,48,48,1,0.8,0.2,0.4,0.6,1,0,,,,,,,,,,,,,,,,,,,,,,,,,,,,,,,,,,,,
,,5d585e287d795e001788bf4c,66fc988d7f83fb21ca39aa33,2024-10-02_02h50.22.160,mdp,2024.2.1,Win32,60.60606061,66fa4ebf79326e780c390304,,,,,,,,,,,,,,,,,,,,,490.3115,490.3116,490.313,491.9611,1,0,right,1.1175,,491.9626,491.9641,,1,,491.9655,491.966,,1,,1,491.966,491.9661,491.9666,493.4612,0,49,49,49,1,0.8,0.2,0.4,0.6,1,0,,,,,,,,,,,,,,,,,,,,,,,,,,,,,,,,,,,,
,,5d585e287d795e001788bf4c,66fc988d7f83fb21ca39aa33,2024-10-02_02h50.22.160,mdp,2024.2.1,Win32,60.60606061,66fa4ebf79326e780c390304,,,,,,,,,,,,,,,,,,,,,,,,,,,,,,,,,,,,,,,,,,,,,,,,,,,,,,,,493.462,551.9783,0,0,0,6,1,imgs/dog.png,imgs/lion.png,imgs/cat.png,imgs/giraffe.png,imgs/rabbit.png,,,,,,,,,,,,,,,,,,,,,,,,
,,5d585e287d795e001788bf4c,66fc988d7f83fb21ca39aa33,2024-10-02_02h50.22.160,mdp,2024.2.1,Win32,60.60606061,66fa4ebf79326e780c390304,,,,,,,,,,,,,,2,seqs/st2seq28.csv,551.991,554.7946,space,2.2841,,554.8007,554.8008,554.8018,557.2445,0,0,left,1.9115,,557.2458,559.7279,0,1,left,559.7295,559.7312,,0,,0,559.7314,559.7315,559.7325,561.2278,0,0,0,0,1,0.8,0.2,0.4,0.6,,,,,,,,,,,,,,,1.9408,,0.4,0.6,0.4,0.6,0.4,0.6,0.8,0.2,1,0,,,,,,,,,,,,
,,5d585e287d795e001788bf4c,66fc988d7f83fb21ca39aa33,2024-10-02_02h50.22.160,mdp,2024.2.1,Win32,60.60606061,66fa4ebf79326e780c390304,,,,,,,,,,,,,,,,,,,,,561.2283,561.2283,561.2298,563.0612,0,0,left,1.3006,,563.0626,564.2279,1,0,right,564.2292,564.2315,,1,,1,564.2317,564.2317,564.2326,565.7277,0,1,1,1,1,0.8,0.2,0.4,0.6,,,,,,,,,,,,,,,0.6341,,0.4,0.6,0.4,0.6,0.4,0.6,0.8,0.2,1,0,,,,,,,,,,,,
,,5d585e287d795e001788bf4c,66fc988d7f83fb21ca39aa33,2024-10-02_02h50.22.160,mdp,2024.2.1,Win32,60.60606061,66fa4ebf79326e780c390304,,,,,,,,,,,,,,,,,,,,,565.7281,565.7282,565.7295,567.9612,0,0,left,1.7008,,567.9627,569.2614,1,1,right,569.2625,569.2632,,0,,0,569.2632,569.2632,569.2641,570.7611,0,2,2,2,1,0.8,0.2,0.4,0.6,,,,,,,,,,,,,,,0.7753,,0.4,0.6,0.4,0.6,0.4,0.6,0.8,0.2,1,0,,,,,,,,,,,,
,,5d585e287d795e001788bf4c,66fc988d7f83fb21ca39aa33,2024-10-02_02h50.22.160,mdp,2024.2.1,Win32,60.60606061,66fa4ebf79326e780c390304,,,,,,,,,,,,,,,,,,,,,570.7617,570.7617,570.7633,571.8779,1,0,right,0.5842,,571.8794,572.9112,0,1,left,572.9125,572.9143,,1,,0,572.9143,572.9143,572.9155,574.4111,0,3,3,3,1,0.8,0.2,0.4,0.6,,,,,,,,,,,,,,,0.5054,,0.4,0.6,0.4,0.6,0.4,0.6,0.8,0.2,1,0,,,,,,,,,,,,
,,5d585e287d795e001788bf4c,66fc988d7f83fb21ca39aa33,2024-10-02_02h50.22.160,mdp,2024.2.1,Win32,60.60606061,66fa4ebf79326e780c390304,,,,,,,,,,,,,,,,,,,,,574.4115,574.4115,574.4132,575.5612,0,0,left,0.6173,,575.5626,576.5779,1,1,right,576.5793,576.5808,,0,,0,576.5809,576.5809,576.5822,578.0778,0,4,4,4,1,0.8,0.2,0.4,0.6,,,,,,,,,,,,,,,0.4874,,0.6,0.4,0.6,0.4,0.4,0.6,0.8,0.2,1,0,,,,,,,,,,,,
,,5d585e287d795e001788bf4c,66fc988d7f83fb21ca39aa33,2024-10-02_02h50.22.160,mdp,2024.2.1,Win32,60.60606061,66fa4ebf79326e780c390304,,,,,,,,,,,,,,,,,,,,,578.0781,578.0781,578.0798,578.9945,1,0,right,0.385,,578.9956,579.6778,0,1,left,579.6793,579.6811,,0,,0,579.6811,579.6811,579.6824,581.1778,0,5,5,5,1,0.8,0.2,0.4,0.6,,,,,,,,,,,,,,,0.1567,,0.6,0.4,0.6,0.4,0.4,0.6,0.8,0.2,1,0,,,,,,,,,,,,
,,5d585e287d795e001788bf4c,66fc988d7f83fb21ca39aa33,2024-10-02_02h50.22.160,mdp,2024.2.1,Win32,60.60606061,66fa4ebf79326e780c390304,,,,,,,,,,,,,,,,,,,,,581.1782,581.1782,581.1798,582.2279,0,0,left,0.5173,,582.2293,582.7946,1,0,right,582.7961,582.7979,,1,,1,582.7981,582.7981,582.7991,584.2944,0,6,6,6,1,0.8,0.2,0.4,0.6,,,,,,,,,,,,,,,0.034,,0.6,0.4,0.6,0.4,0.4,0.6,0.8,0.2,1,0,,,,,,,,,,,,
,,5d585e287d795e001788bf4c,66fc988d7f83fb21ca39aa33,2024-10-02_02h50.22.160,mdp,2024.2.1,Win32,60.60606061,66fa4ebf79326e780c390304,,,,,,,,,,,,,,,,,,,,,584.2949,584.2949,584.2967,585.3613,0,0,left,0.5381,,585.3633,585.9946,1,0,right,585.996,585.9985,,0,,1,585.9985,585.9985,585.9993,587.4945,0,7,7,7,1,0.8,0.2,0.4,0.6,,,,,,,,,,,,,,,0.1006,,0.6,0.4,0.6,0.4,0.4,0.6,0.8,0.2,1,0,,,,,,,,,,,,
,,5d585e287d795e001788bf4c,66fc988d7f83fb21ca39aa33,2024-10-02_02h50.22.160,mdp,2024.2.1,Win32,60.60606061,66fa4ebf79326e780c390304,,,,,,,,,,,,,,,,,,,,,587.4948,587.4948,587.4962,588.6612,0,0,left,0.6338,,588.6623,589.2112,1,0,right,589.2125,589.2142,,0,,1,589.2144,589.2144,589.2155,590.711,0,8,8,8,1,0.8,0.2,0.4,0.6,,,,,,,,,,,,,,,0.0174,,0.6,0.4,0.6,0.4,0.4,0.6,0.8,0.2,1,0,,,,,,,,,,,,
,,5d585e287d795e001788bf4c,66fc988d7f83fb21ca39aa33,2024-10-02_02h50.22.160,mdp,2024.2.1,Win32,60.60606061,66fa4ebf79326e780c390304,,,,,,,,,,,,,,,,,,,,,590.7115,590.7115,590.7132,592.1779,1,0,right,0.9374,,592.1793,594.0113,0,0,left,594.0128,594.0149,,0,,1,594.015,594.015,594.0159,595.5111,0,9,9,9,1,0.8,0.2,0.4,0.6,,,,,,,,,,,,,,,1.3091,,0.6,0.4,0.6,0.4,0.4,0.6,0.8,0.2,1,0,,,,,,,,,,,,
,,5d585e287d795e001788bf4c,66fc988d7f83fb21ca39aa33,2024-10-02_02h50.22.160,mdp,2024.2.1,Win32,60.60606061,66fa4ebf79326e780c390304,,,,,,,,,,,,,,,,,,,,,595.5115,595.5115,595.5131,596.7945,0,0,left,0.7506,,596.7959,597.7112,1,0,right,597.7126,597.7145,,0,,1,597.7145,597.7145,597.7157,599.2111,0,10,10,10,1,0.8,0.2,0.4,0.6,,,,,,,,,,,,,,,0.3889,,0.6,0.4,0.6,0.4,0.4,0.6,0.8,0.2,1,0,,,,,,,,,,,,
,,5d585e287d795e001788bf4c,66fc988d7f83fb21ca39aa33,2024-10-02_02h50.22.160,mdp,2024.2.1,Win32,60.60606061,66fa4ebf79326e780c390304,,,,,,,,,,,,,,,,,,,,,599.2115,599.2115,599.2133,600.3112,1,0,right,0.5673,,600.3126,601.3279,0,1,left,601.3293,601.331,,0,,0,601.3311,601.3311,601.3323,602.8278,0,11,11,11,1,0.8,0.2,0.4,0.6,,,,,,,,,,,,,,,0.4885,,0.6,0.4,0.6,0.4,0.4,0.6,0.8,0.2,1,0,,,,,,,,,,,,
,,5d585e287d795e001788bf4c,66fc988d7f83fb21ca39aa33,2024-10-02_02h50.22.160,mdp,2024.2.1,Win32,60.60606061,66fa4ebf79326e780c390304,,,,,,,,,,,,,,,,,,,,,602.8282,602.8282,602.8301,603.9445,0,0,left,0.5842,,603.9458,604.7612,1,1,right,604.7626,604.7641,,0,,0,604.7643,604.7643,604.7655,606.2611,0,12,12,12,1,0.8,0.2,0.4,0.6,,,,,,,,,,,,,,,0.2841,,0.6,0.4,0.6,0.4,0.4,0.6,0.8,0.2,1,0,,,,,,,,,,,,
,,5d585e287d795e001788bf4c,66fc988d7f83fb21ca39aa33,2024-10-02_02h50.22.160,mdp,2024.2.1,Win32,60.60606061,66fa4ebf79326e780c390304,,,,,,,,,,,,,,,,,,,,,606.2615,606.2616,606.2629,607.2612,0,0,left,0.4739,,607.2623,607.8113,1,0,right,607.8131,607.815,,0,,1,607.8152,607.8152,607.816,609.3111,0,13,13,13,1,0.8,0.2,0.4,0.6,,,,,,,,,,,,,,,0.0179,,0.6,0.4,0.6,0.4,0.8,0.2,0.6,0.4,1,0,,,,,,,,,,,,
,,5d585e287d795e001788bf4c,66fc988d7f83fb21ca39aa33,2024-10-02_02h50.22.160,mdp,2024.2.1,Win32,60.60606061,66fa4ebf79326e780c390304,,,,,,,,,,,,,,,,,,,,,609.3116,609.3116,609.3132,610.3946,0,0,left,0.5499,,610.3959,610.978,1,1,right,610.9795,610.9819,,0,,0,610.982,610.982,610.9827,612.4778,0,14,14,14,1,0.8,0.2,0.4,0.6,,,,,,,,,,,,,,,0.0541,,0.6,0.4,0.6,0.4,0.8,0.2,0.6,0.4,1,0,,,,,,,,,,,,
,,5d585e287d795e001788bf4c,66fc988d7f83fb21ca39aa33,2024-10-02_02h50.22.160,mdp,2024.2.1,Win32,60.60606061,66fa4ebf79326e780c390304,,,,,,,,,,,,,,,,,,,,,612.4781,612.4782,612.4798,613.4778,0,1,left,0.4673,,613.4795,614.1278,1,1,right,614.1294,614.1317,,1,,0,614.1317,614.1317,614.1328,615.6277,0,15,15,15,1,0.2,0.8,0.2,0.8,,,,,,,,,,,,,,,0.1194,,0.6,0.4,0.6,0.4,0.8,0.2,0.6,0.4,1,0,,,,,,,,,,,,
,,5d585e287d795e001788bf4c,66fc988d7f83fb21ca39aa33,2024-10-02_02h50.22.160,mdp,2024.2.1,Win32,60.60606061,66fa4ebf79326e780c390304,,,,,,,,,,,,,,,,,,,,,615.6285,615.6285,615.6309,616.7445,1,0,right,0.5845,,616.7467,617.3945,0,0,left,617.3983,617.3993,,0,,1,617.3994,617.3994,617.4003,618.8944,0,16,16,16,1,0.2,0.8,0.2,0.8,,,,,,,,,,,,,,,0.1161,,0.6,0.4,0.6,0.4,0.8,0.2,0.6,0.4,1,0,,,,,,,,,,,,
,,5d585e287d795e001788bf4c,66fc988d7f83fb21ca39aa33,2024-10-02_02h50.22.160,mdp,2024.2.1,Win32,60.60606061,66fa4ebf79326e780c390304,,,,,,,,,,,,,,,,,,,,,618.8948,618.8948,618.8965,620.2779,0,0,left,0.8505,,620.2792,620.9945,1,1,right,620.9961,620.9977,,0,,0,620.9978,620.9978,620.9989,622.4943,0,17,17,17,1,0.2,0.8,0.2,0.8,,,,,,,,,,,,,,,0.1859,,0.6,0.4,0.6,0.4,0.8,0.2,0.6,0.4,1,0,,,,,,,,,,,,
,,5d585e287d795e001788bf4c,66fc988d7f83fb21ca39aa33,2024-10-02_02h50.22.160,mdp,2024.2.1,Win32,60.60606061,66fa4ebf79326e780c390304,,,,,,,,,,,,,,,,,,,,,622.4949,622.4949,622.4967,623.5959,1,1,right,0.5768,,623.5975,624.4779,0,0,left,624.4793,624.4811,,1,,1,624.4813,624.4813,624.4822,625.9778,0,18,18,18,1,0.2,0.8,0.2,0.8,,,,,,,,,,,,,,,0.3533,,0.6,0.4,0.6,0.4,0.8,0.2,0.6,0.4,1,0,,,,,,,,,,,,
,,5d585e287d795e001788bf4c,66fc988d7f83fb21ca39aa33,2024-10-02_02h50.22.160,mdp,2024.2.1,Win32,60.60606061,66fa4ebf79326e780c390304,,,,,,,,,,,,,,,,,,,,,625.9782,625.9782,625.9797,627.1611,0,1,left,0.6508,,627.1625,627.7278,1,1,right,627.7291,627.7307,,1,,0,627.7308,627.7308,627.732,629.2277,0,19,19,19,1,0.4,0.6,0.4,0.6,,,,,,,,,,,,,,,0.0384,,0.6,0.4,0.6,0.4,0.8,0.2,0.6,0.4,1,0,,,,,,,,,,,,
,,5d585e287d795e001788bf4c,66fc988d7f83fb21ca39aa33,2024-10-02_02h50.22.160,mdp,2024.2.1,Win32,60.60606061,66fa4ebf79326e780c390304,,,,,,,,,,,,,,,,,,,,,629.2282,629.2282,629.2297,629.8945,1,1,right,0.1338,,629.8958,630.5445,0,1,left,630.5457,630.5469,,1,,0,630.547,630.547,630.549,632.0443,0,20,20,20,1,0.4,0.6,0.4,0.6,,,,,,,,,,,,,,,0.122,,0.6,0.4,0.6,0.4,0.8,0.2,0.6,0.4,1,0,,,,,,,,,,,,
,,5d585e287d795e001788bf4c,66fc988d7f83fb21ca39aa33,2024-10-02_02h50.22.160,mdp,2024.2.1,Win32,60.60606061,66fa4ebf79326e780c390304,,,,,,,,,,,,,,,,,,,,,632.0447,632.0447,632.0462,633.0946,0,0,left,0.5242,,633.0958,633.6944,1,1,right,633.6956,633.6974,,1,,0,633.6976,633.6976,633.699,635.1944,0,21,21,21,1,0.4,0.6,0.4,0.6,,,,,,,,,,,,,,,0.0694,,0.6,0.4,0.6,0.4,0.8,0.2,0.6,0.4,1,0,,,,,,,,,,,,
,,5d585e287d795e001788bf4c,66fc988d7f83fb21ca39aa33,2024-10-02_02h50.22.160,mdp,2024.2.1,Win32,60.60606061,66fa4ebf79326e780c390304,,,,,,,,,,,,,,,,,,,,,635.1948,635.1948,635.1966,636.2777,0,1,left,0.5509,,636.2788,636.9112,1,0,right,636.913,636.9159,,1,,1,636.9159,636.9159,636.9167,638.411,0,22,22,22,1,0.4,0.6,0.4,0.6,,,,,,,,,,,,,,,0.1021,,0.6,0.4,0.6,0.4,0.8,0.2,0.6,0.4,1,0,,,,,,,,,,,,
,,5d585e287d795e001788bf4c,66fc988d7f83fb21ca39aa33,2024-10-02_02h50.22.160,mdp,2024.2.1,Win32,60.60606061,66fa4ebf79326e780c390304,,,,,,,,,,,,,,,,,,,,,638.4114,638.4114,638.4129,639.6779,0,0,left,0.7395,,639.6793,640.5447,1,1,right,640.5458,640.5469,,1,,0,640.5469,640.5469,640.5477,642.0444,0,23,23,23,1,0.4,0.6,0.4,0.6,,,,,,,,,,,,,,,0.3364,,0.6,0.4,0.6,0.4,0.8,0.2,0.6,0.4,1,0,,,,,,,,,,,,
,,5d585e287d795e001788bf4c,66fc988d7f83fb21ca39aa33,2024-10-02_02h50.22.160,mdp,2024.2.1,Win32,60.60606061,66fa4ebf79326e780c390304,,,,,,,,,,,,,,,,,,,,,642.0448,642.0449,642.0464,643.2778,0,1,left,0.7095,,643.279,645.1445,1,1,right,645.1458,645.148,,0,,0,645.1482,645.1482,645.1493,646.6444,0,24,24,24,1,0.4,0.6,0.4,0.6,,,,,,,,,,,,,,,1.3307,,0.6,0.4,0.6,0.4,0.8,0.2,0.6,0.4,1,0,,,,,,,,,,,,
,,5d585e287d795e001788bf4c,66fc988d7f83fb21ca39aa33,2024-10-02_02h50.22.160,mdp,2024.2.1,Win32,60.60606061,66fa4ebf79326e780c390304,,,,,,,,,,,,,,,,,,,,,646.6448,646.6448,646.6464,647.8279,0,0,left,0.6506,,647.8293,648.8279,0,1,left,648.8291,648.8309,,0,,0,648.831,648.831,648.8323,650.3276,0,25,25,25,1,0.4,0.6,0.4,0.6,,,,,,,,,,,,,,,0.4719,,0.6,0.4,0.6,0.4,0.8,0.2,0.6,0.4,1,0,,,,,,,,,,,,
,,5d585e287d795e001788bf4c,66fc988d7f83fb21ca39aa33,2024-10-02_02h50.22.160,mdp,2024.2.1,Win32,60.60606061,66fa4ebf79326e780c390304,,,,,,,,,,,,,,,,,,,,,650.3281,650.3281,650.3292,651.4112,0,0,left,0.5512,,651.4123,652.1778,1,1,right,652.179,652.181,,1,,0,652.1813,652.1814,652.1827,653.678,0,26,26,26,1,0.4,0.6,0.4,0.6,,,,,,,,,,,,,,,0.2375,,0.4,0.6,0.2,0.8,0.8,0.2,0.6,0.4,1,0,,,,,,,,,,,,
,,5d585e287d795e001788bf4c,66fc988d7f83fb21ca39aa33,2024-10-02_02h50.22.160,mdp,2024.2.1,Win32,60.60606061,66fa4ebf79326e780c390304,,,,,,,,,,,,,,,,,,,,,653.6785,653.6785,653.6809,654.6961,1,1,right,0.4879,,654.6991,655.3492,0,0,left,655.3526,655.3559,,1,,1,655.356,655.356,655.3577,656.8678,0,27,27,27,1,0.4,0.6,0.4,0.6,,,,,,,,,,,,,,,0.118,,0.4,0.6,0.2,0.8,0.8,0.2,0.6,0.4,1,0,,,,,,,,,,,,
,,5d585e287d795e001788bf4c,66fc988d7f83fb21ca39aa33,2024-10-02_02h50.22.160,mdp,2024.2.1,Win32,60.60606061,66fa4ebf79326e780c390304,,,,,,,,,,,,,,,,,,,,,656.8691,656.8691,656.8725,658.1286,1,0,right,0.7276,,658.1314,659.2219,0,1,left,659.2236,659.2269,,0,,0,659.2277,659.2277,659.23,660.7366,0,28,28,28,1,0.4,0.6,0.4,0.6,,,,,,,,,,,,,,,0.5533,,0.4,0.6,0.2,0.8,0.8,0.2,0.6,0.4,1,0,,,,,,,,,,,,
,,5d585e287d795e001788bf4c,66fc988d7f83fb21ca39aa33,2024-10-02_02h50.22.160,mdp,2024.2.1,Win32,60.60606061,66fa4ebf79326e780c390304,,,,,,,,,,,,,,,,,,,,,660.7374,660.7374,660.7391,661.8534,0,0,left,0.5841,,661.8596,662.8969,1,1,right,662.8991,662.9002,,1,,0,662.9003,662.9003,662.9045,664.3944,0,29,29,29,1,0.4,0.6,0.4,0.6,,,,,,,,,,,,,,,0.5052,,0.4,0.6,0.2,0.8,0.8,0.2,0.6,0.4,1,0,,,,,,,,,,,,
,,5d585e287d795e001788bf4c,66fc988d7f83fb21ca39aa33,2024-10-02_02h50.22.160,mdp,2024.2.1,Win32,60.60606061,66fa4ebf79326e780c390304,,,,,,,,,,,,,,,,,,,,,664.3948,664.3949,664.3964,665.9946,1,0,right,1.0675,,665.9959,666.9779,0,0,left,666.9794,666.9811,,1,,1,666.9812,666.9812,666.9825,668.4777,0,30,30,30,1,0.4,0.6,0.4,0.6,,,,,,,,,,,,,,,0.4541,,0.4,0.6,0.2,0.8,0.8,0.2,0.6,0.4,1,0,,,,,,,,,,,,
,,5d585e287d795e001788bf4c,66fc988d7f83fb21ca39aa33,2024-10-02_02h50.22.160,mdp,2024.2.1,Win32,60.60606061,66fa4ebf79326e780c390304,,,,,,,,,,,,,,,,,,,,,668.4782,668.4782,668.4802,670.5278,0,1,left,1.5218,,670.5292,672.1112,0,1,left,672.1132,672.1151,,0,,0,672.1152,672.1152,672.1161,673.6111,0,31,31,31,1,0.4,0.6,0.4,0.6,,,,,,,,,,,,,,,1.0525,,0.4,0.6,0.2,0.8,0.8,0.2,0.6,0.4,1,0,,,,,,,,,,,,
,,5d585e287d795e001788bf4c,66fc988d7f83fb21ca39aa33,2024-10-02_02h50.22.160,mdp,2024.2.1,Win32,60.60606061,66fa4ebf79326e780c390304,,,,,,,,,,,,,,,,,,,,,673.6115,673.6115,673.6133,674.7278,0,1,left,0.5839,,674.7291,675.7279,1,1,right,675.7294,675.7311,,0,,0,675.7311,675.7311,675.7322,677.2277,0,32,32,32,1,0.4,0.6,0.4,0.6,,,,,,,,,,,,,,,0.4717,,0.4,0.6,0.2,0.8,0.8,0.2,0.6,0.4,1,0,,,,,,,,,,,,
,,5d585e287d795e001788bf4c,66fc988d7f83fb21ca39aa33,2024-10-02_02h50.22.160,mdp,2024.2.1,Win32,60.60606061,66fa4ebf79326e780c390304,,,,,,,,,,,,,,,,,,,,,677.2284,677.2284,677.2305,678.3611,1,1,right,0.6009,,678.3627,679.2945,0,0,left,679.2958,679.2977,,0,,1,679.2977,679.2977,679.2988,680.7944,0,33,33,33,1,0.6,0.4,0.2,0.8,,,,,,,,,,,,,,,0.4061,,0.4,0.6,0.2,0.8,0.8,0.2,0.6,0.4,1,0,,,,,,,,,,,,
,,5d585e287d795e001788bf4c,66fc988d7f83fb21ca39aa33,2024-10-02_02h50.22.160,mdp,2024.2.1,Win32,60.60606061,66fa4ebf79326e780c390304,,,,,,,,,,,,,,,,,,,,,680.7948,680.7948,680.7962,681.8779,0,0,left,0.5505,,681.8792,683.4445,0,0,left,683.4458,683.4475,,1,,1,683.4475,683.4475,683.4487,684.9444,0,34,34,34,1,0.6,0.4,0.2,0.8,,,,,,,,,,,,,,,1.0308,,0.4,0.6,0.2,0.8,0.8,0.2,0.6,0.4,1,0,,,,,,,,,,,,
,,5d585e287d795e001788bf4c,66fc988d7f83fb21ca39aa33,2024-10-02_02h50.22.160,mdp,2024.2.1,Win32,60.60606061,66fa4ebf79326e780c390304,,,,,,,,,,,,,,,,,,,,,684.9448,684.9449,684.9464,686.0112,0,1,left,0.5424,,686.0126,687.0278,1,0,right,687.0293,687.0311,,1,,1,687.0312,687.0312,687.0322,688.5278,0,35,35,35,1,0.6,0.4,0.2,0.8,,,,,,,,,,,,,,,0.4813,,0.4,0.6,0.2,0.8,0.8,0.2,0.6,0.4,1,0,,,,,,,,,,,,
,,5d585e287d795e001788bf4c,66fc988d7f83fb21ca39aa33,2024-10-02_02h50.22.160,mdp,2024.2.1,Win32,60.60606061,66fa4ebf79326e780c390304,,,,,,,,,,,,,,,,,,,,,688.5282,688.5282,688.5298,689.5278,0,0,left,0.4673,,689.5292,690.4778,1,0,right,690.4796,690.4821,,1,,1,690.4822,690.4822,690.4829,691.9778,0,36,36,36,1,0.6,0.4,0.2,0.8,,,,,,,,,,,,,,,0.4199,,0.4,0.6,0.2,0.8,0.8,0.2,0.6,0.4,1,0,,,,,,,,,,,,
,,5d585e287d795e001788bf4c,66fc988d7f83fb21ca39aa33,2024-10-02_02h50.22.160,mdp,2024.2.1,Win32,60.60606061,66fa4ebf79326e780c390304,,,,,,,,,,,,,,,,,,,,,691.9782,691.9782,691.9802,693.0611,0,0,left,0.5506,,693.0627,694.1112,0,0,left,694.1125,694.1142,,1,,1,694.1144,694.1144,694.1155,695.611,0,37,37,37,1,0.6,0.4,0.2,0.8,,,,,,,,,,,,,,,0.5223,,0.4,0.6,0.2,0.8,0.8,0.2,0.6,0.4,1,0,,,,,,,,,,,,
,,5d585e287d795e001788bf4c,66fc988d7f83fb21ca39aa33,2024-10-02_02h50.22.160,mdp,2024.2.1,Win32,60.60606061,66fa4ebf79326e780c390304,,,,,,,,,,,,,,,,,,,,,695.6115,695.6115,695.6129,696.6444,0,1,left,0.5003,,696.6458,697.6779,1,1,right,697.68,697.6822,,0,,0,697.6823,697.6823,697.683,699.1777,0,38,38,38,1,0.6,0.4,0.2,0.8,,,,,,,,,,,,,,,0.5041,,0.4,0.6,0.2,0.8,0.8,0.2,0.6,0.4,1,0,,,,,,,,,,,,
,,5d585e287d795e001788bf4c,66fc988d7f83fb21ca39aa33,2024-10-02_02h50.22.160,mdp,2024.2.1,Win32,60.60606061,66fa4ebf79326e780c390304,,,,,,,,,,,,,,,,,,,,,699.1781,699.1782,699.1797,699.9778,0,0,left,0.2674,,699.9795,700.8444,1,1,right,700.846,700.8477,,1,,0,700.8479,700.8479,700.8489,702.3444,0,39,39,39,1,0.6,0.4,0.2,0.8,,,,,,,,,,,,,,,0.3381,,0.6,0.4,0.6,0.4,0.8,0.2,0.6,0.4,1,0,,,,,,,,,,,,
,,5d585e287d795e001788bf4c,66fc988d7f83fb21ca39aa33,2024-10-02_02h50.22.160,mdp,2024.2.1,Win32,60.60606061,66fa4ebf79326e780c390304,,,,,,,,,,,,,,,,,,,,,702.3449,702.3449,702.3464,703.3612,1,0,right,0.4882,,703.3627,704.3446,0,1,left,704.346,704.3476,,0,,0,704.3478,704.3478,704.3489,705.8444,0,40,40,40,1,0.2,0.8,0.8,0.2,,,,,,,,,,,,,,,0.4508,,0.6,0.4,0.6,0.4,0.8,0.2,0.6,0.4,1,0,,,,,,,,,,,,
,,5d585e287d795e001788bf4c,66fc988d7f83fb21ca39aa33,2024-10-02_02h50.22.160,mdp,2024.2.1,Win32,60.60606061,66fa4ebf79326e780c390304,,,,,,,,,,,,,,,,,,,,,705.8449,705.8449,705.8465,707.1778,0,1,left,0.8007,,707.1794,708.1278,1,0,right,708.1294,708.1311,,0,,1,708.1312,708.1312,708.1323,709.6277,0,41,41,41,1,0.2,0.8,0.8,0.2,,,,,,,,,,,,,,,0.418,,0.6,0.4,0.6,0.4,0.8,0.2,0.6,0.4,1,0,,,,,,,,,,,,
,,5d585e287d795e001788bf4c,66fc988d7f83fb21ca39aa33,2024-10-02_02h50.22.160,mdp,2024.2.1,Win32,60.60606061,66fa4ebf79326e780c390304,,,,,,,,,,,,,,,,,,,,,709.6282,709.6282,709.6299,710.7611,0,0,left,0.601,,710.7627,712.0944,0,1,left,712.096,712.0979,,1,,0,712.0981,712.0981,712.099,713.5944,0,42,42,42,1,0.2,0.8,0.8,0.2,,,,,,,,,,,,,,,0.803,,0.6,0.4,0.6,0.4,0.8,0.2,0.6,0.4,1,0,,,,,,,,,,,,
,,5d585e287d795e001788bf4c,66fc988d7f83fb21ca39aa33,2024-10-02_02h50.22.160,mdp,2024.2.1,Win32,60.60606061,66fa4ebf79326e780c390304,,,,,,,,,,,,,,,,,,,,,713.5949,713.5949,713.5965,714.6778,0,1,left,0.5508,,714.6794,715.6778,1,0,right,715.6794,715.6811,,1,,1,715.6812,715.6812,715.6822,717.1777,0,43,43,43,1,0.2,0.8,0.8,0.2,,,,,,,,,,,,,,,0.4707,,0.6,0.4,0.6,0.4,0.8,0.2,0.6,0.4,1,0,,,,,,,,,,,,
,,5d585e287d795e001788bf4c,66fc988d7f83fb21ca39aa33,2024-10-02_02h50.22.160,mdp,2024.2.1,Win32,60.60606061,66fa4ebf79326e780c390304,,,,,,,,,,,,,,,,,,,,,717.1782,717.1782,717.1798,718.778,0,1,left,1.0672,,718.7794,720.3779,1,0,right,720.3793,720.381,,1,,1,720.3811,720.3811,720.3822,721.8778,0,44,44,44,1,0.2,0.8,0.8,0.2,,,,,,,,,,,,,,,1.0664,,0.6,0.4,0.6,0.4,0.8,0.2,0.6,0.4,1,0,,,,,,,,,,,,
,,5d585e287d795e001788bf4c,66fc988d7f83fb21ca39aa33,2024-10-02_02h50.22.160,mdp,2024.2.1,Win32,60.60606061,66fa4ebf79326e780c390304,,,,,,,,,,,,,,,,,,,,,721.8781,721.8781,721.8798,722.9611,0,1,left,0.5547,,722.9628,724.5779,1,1,right,724.5793,724.5811,,1,,0,724.5812,724.5812,724.5821,726.0777,0,45,45,45,1,0.2,0.8,0.8,0.2,,,,,,,,,,,,,,,1.0875,,0.6,0.4,0.6,0.4,0.8,0.2,0.6,0.4,1,0,,,,,,,,,,,,
,,5d585e287d795e001788bf4c,66fc988d7f83fb21ca39aa33,2024-10-02_02h50.22.160,mdp,2024.2.1,Win32,60.60606061,66fa4ebf79326e780c390304,,,,,,,,,,,,,,,,,,,,,726.0782,726.0782,726.08,727.3778,0,1,left,0.7732,,727.3792,728.3779,1,0,right,728.3791,728.3806,,0,,1,728.3807,728.3807,728.382,729.8777,0,46,46,46,1,0.2,0.8,0.8,0.2,,,,,,,,,,,,,,,0.4674,,0.6,0.4,0.6,0.4,0.8,0.2,0.6,0.4,1,0,,,,,,,,,,,,
,,5d585e287d795e001788bf4c,66fc988d7f83fb21ca39aa33,2024-10-02_02h50.22.160,mdp,2024.2.1,Win32,60.60606061,66fa4ebf79326e780c390304,,,,,,,,,,,,,,,,,,,,,729.8782,729.8782,729.8797,731.2278,0,0,left,0.8248,,731.2294,732.6778,0,1,left,732.6793,732.6811,,0,,0,732.6812,732.6812,732.6823,734.1779,0,47,47,47,1,0.6,0.4,0.4,0.6,,,,,,,,,,,,,,,0.9149,,0.6,0.4,0.6,0.4,0.8,0.2,0.6,0.4,1,0,,,,,,,,,,,,
,,5d585e287d795e001788bf4c,66fc988d7f83fb21ca39aa33,2024-10-02_02h50.22.160,mdp,2024.2.1,Win32,60.60606061,66fa4ebf79326e780c390304,,,,,,,,,,,,,,,,,,,,,734.1784,734.1784,734.1818,735.4112,0,1,left,0.7017,,735.4127,736.6278,1,1,right,736.6293,736.6309,,1,,0,736.631,736.631,736.6321,738.1277,0,48,48,48,1,0.6,0.4,0.4,0.6,,,,,,,,,,,,,,,0.6813,,0.6,0.4,0.6,0.4,0.8,0.2,0.6,0.4,1,0,,,,,,,,,,,,
,,5d585e287d795e001788bf4c,66fc988d7f83fb21ca39aa33,2024-10-02_02h50.22.160,mdp,2024.2.1,Win32,60.60606061,66fa4ebf79326e780c390304,,,,,,,,,,,,,,,,,,,,,738.1282,738.1282,738.1299,739.3945,0,0,left,0.7356,,739.3961,740.7444,0,1,left,740.7457,740.7477,,1,,0,740.7478,740.7479,740.7488,742.2443,0,49,49,49,1,0.6,0.4,0.4,0.6,,,,,,,,,,,,,,,0.8143,,0.6,0.4,0.6,0.4,0.8,0.2,0.6,0.4,1,0,,,,,,,,,,,,
,,5d585e287d795e001788bf4c,66fc988d7f83fb21ca39aa33,2024-10-02_02h50.22.160,mdp,2024.2.1,Win32,60.60606061,66fa4ebf79326e780c390304,,,,,,,,,,,,,,,,,,,,,,,,,,,,,,,,,,,,,,,,,,,,,,,,,,,,,,,,742.2445,800.7612,0,1,1,1,1,imgs/giraffe.png,imgs/rabbit.png,imgs/dog.png,imgs/squirrel.png,imgs/pig.png,,,,,,,,,,,,,,,,,,,,,,,,
,,5d585e287d795e001788bf4c,66fc988d7f83fb21ca39aa33,2024-10-02_02h50.22.160,mdp,2024.2.1,Win32,60.60606061,66fa4ebf79326e780c390304,,,,,,,,,,,,,,3,seqs/st3seq30.csv,800.7734,803.9445,space,2.6508,,803.955,803.955,803.9561,808.6445,1,0,right,4.153,,808.6559,809.8112,0,0,left,809.813,810.8279,1,0,right,1,810.8279,810.828,810.8294,812.3279,0,0,0,0,1,0.8,0.2,0.2,0.8,,,,,,,,,,,,,,,0.6314,,0.6,0.4,0.8,0.2,0.8,0.2,0.4,0.6,,,0.4882,,0.2,0.8,0.8,0.2,0.4,0.6,0.8,0.2,1,0
,,5d585e287d795e001788bf4c,66fc988d7f83fb21ca39aa33,2024-10-02_02h50.22.160,mdp,2024.2.1,Win32,60.60606061,66fa4ebf79326e780c390304,,,,,,,,,,,,,,,,,,,,,812.3284,812.3284,812.3293,814.0779,0,0,left,1.2231,,814.0795,815.0445,1,0,right,815.0459,816.0778,0,0,left,1,816.0779,816.0779,816.0794,817.5777,0,1,1,1,1,0.8,0.2,0.2,0.8,,,,,,,,,,,,,,,0.4334,,0.6,0.4,0.8,0.2,0.8,0.2,0.4,0.6,,,0.5064,,0.2,0.8,0.8,0.2,0.4,0.6,0.8,0.2,1,0
,,5d585e287d795e001788bf4c,66fc988d7f83fb21ca39aa33,2024-10-02_02h50.22.160,mdp,2024.2.1,Win32,60.60606061,66fa4ebf79326e780c390304,,,,,,,,,,,,,,,,,,,,,817.5782,817.5782,817.5798,819.1612,0,0,left,1.0506,,819.1625,820.2945,0,0,left,820.2959,821.3444,0,0,left,1,821.3445,821.3445,821.3461,822.8444,0,2,2,2,1,0.8,0.2,0.2,0.8,,,,,,,,,,,,,,,0.6007,,0.6,0.4,0.8,0.2,0.8,0.2,0.4,0.6,,,0.5217,,0.2,0.8,0.8,0.2,0.4,0.6,0.8,0.2,1,0
,,5d585e287d795e001788bf4c,66fc988d7f83fb21ca39aa33,2024-10-02_02h50.22.160,mdp,2024.2.1,Win32,60.60606061,66fa4ebf79326e780c390304,,,,,,,,,,,,,,,,,,,,,822.8448,822.8448,822.8466,824.3111,0,1,left,0.9343,,824.3127,827.4445,0,0,left,827.456,828.4944,1,0,right,1,828.4946,828.4946,828.4959,829.9944,0,3,3,3,1,0.8,0.2,0.2,0.8,,,,,,,,,,,,,,,2.5903,,0.6,0.4,0.8,0.2,0.8,0.2,0.4,0.6,,,0.5227,,0.2,0.8,0.8,0.2,0.4,0.6,0.8,0.2,1,0
,,5d585e287d795e001788bf4c,66fc988d7f83fb21ca39aa33,2024-10-02_02h50.22.160,mdp,2024.2.1,Win32,60.60606061,66fa4ebf79326e780c390304,,,,,,,,,,,,,,,,,,,,,829.9949,829.9949,829.9972,832.1779,0,1,left,1.6541,,832.1795,833.7279,1,1,right,833.7294,835.0445,0,1,left,0,835.0445,835.0445,835.0461,836.5443,0,4,4,4,1,0.8,0.2,0.2,0.8,,,,,,,,,,,,,,,1.0214,,0.6,0.4,0.8,0.2,0.8,0.2,0.4,0.6,,,0.7735,,0.2,0.8,0.8,0.2,0.4,0.6,0.8,0.2,1,0
,,5d585e287d795e001788bf4c,66fc988d7f83fb21ca39aa33,2024-10-02_02h50.22.160,mdp,2024.2.1,Win32,60.60606061,66fa4ebf79326e780c390304,,,,,,,,,,,,,,,,,,,,,836.5448,836.5448,836.5465,838.3778,0,0,left,1.3008,,838.3794,840.9444,1,0,right,840.9564,842.0612,1,0,right,1,842.0613,842.0613,842.0633,843.561,0,5,5,5,1,0.8,0.2,0.2,0.8,,,,,,,,,,,,,,,2.0358,,0.6,0.4,0.8,0.2,0.8,0.2,0.4,0.6,,,0.5874,,0.2,0.8,0.8,0.2,0.6,0.4,0.4,0.6,1,0
,,5d585e287d795e001788bf4c,66fc988d7f83fb21ca39aa33,2024-10-02_02h50.22.160,mdp,2024.2.1,Win32,60.60606061,66fa4ebf79326e780c390304,,,,,,,,,,,,,,,,,,,,,843.5616,843.5616,843.5632,845.6612,0,0,left,1.574,,845.6626,846.6611,1,0,right,846.6625,847.6112,0,0,left,1,847.6112,847.6112,847.6126,849.1111,0,6,6,6,1,0.8,0.2,0.2,0.8,,,,,,,,,,,,,,,0.4673,,0.6,0.4,0.8,0.2,0.8,0.2,0.4,0.6,,,0.4256,,0.2,0.8,0.8,0.2,0.6,0.4,0.4,0.6,1,0
,,5d585e287d795e001788bf4c,66fc988d7f83fb21ca39aa33,2024-10-02_02h50.22.160,mdp,2024.2.1,Win32,60.60606061,66fa4ebf79326e780c390304,,,,,,,,,,,,,,,,,,,,,849.1115,849.1115,849.114,850.4778,0,0,left,0.84,,850.4794,851.8112,1,0,right,851.8128,853.0278,1,0,right,1,853.0279,853.0279,853.0295,854.5277,0,7,7,7,1,0.8,0.2,0.2,0.8,,,,,,,,,,,,,,,0.8012,,0.6,0.4,0.8,0.2,0.8,0.2,0.4,0.6,,,0.6842,,0.2,0.8,0.8,0.2,0.6,0.4,0.4,0.6,1,0
,,5d585e287d795e001788bf4c,66fc988d7f83fb21ca39aa33,2024-10-02_02h50.22.160,mdp,2024.2.1,Win32,60.60606061,66fa4ebf79326e780c390304,,,,,,,,,,,,,,,,,,,,,854.5282,854.5282,854.53,855.8278,0,0,left,0.767,,855.8293,858.0111,0,0,left,858.0124,859.0611,1,0,right,1,859.0612,859.0612,859.0627,860.561,0,8,8,8,1,0.8,0.2,0.2,0.8,,,,,,,,,,,,,,,1.6579,,0.6,0.4,0.8,0.2,0.8,0.2,0.4,0.6,,,0.5175,,0.2,0.8,0.8,0.2,0.6,0.4,0.4,0.6,1,0
,,5d585e287d795e001788bf4c,66fc988d7f83fb21ca39aa33,2024-10-02_02h50.22.160,mdp,2024.2.1,Win32,60.60606061,66fa4ebf79326e780c390304,,,,,,,,,,,,,,,,,,,,,860.5616,860.5616,860.5634,862.8779,0,0,left,1.7898,,862.8887,864.0112,1,0,right,864.0129,865.0111,0,0,left,1,865.0113,865.0113,865.0128,866.511,0,9,9,9,1,0.8,0.2,0.2,0.8,,,,,,,,,,,,,,,0.6087,,0.6,0.4,0.8,0.2,0.8,0.2,0.4,0.6,,,0.4679,,0.2,0.8,0.8,0.2,0.6,0.4,0.4,0.6,1,0
,,5d585e287d795e001788bf4c,66fc988d7f83fb21ca39aa33,2024-10-02_02h50.22.160,mdp,2024.2.1,Win32,60.60606061,66fa4ebf79326e780c390304,,,,,,,,,,,,,,,,,,,,,866.5115,866.5115,866.5133,867.4445,1,1,right,0.4006,,867.446,868.6611,1,0,right,868.6626,869.7778,1,0,right,1,869.7778,869.7778,869.7793,871.2779,0,10,10,10,1,0.8,0.2,0.2,0.8,,,,,,,,,,,,,,,0.6803,,0.6,0.4,0.8,0.2,0.8,0.2,0.4,0.6,,,0.5872,,0.2,0.8,0.8,0.2,0.6,0.4,0.4,0.6,1,0
,,5d585e287d795e001788bf4c,66fc988d7f83fb21ca39aa33,2024-10-02_02h50.22.160,mdp,2024.2.1,Win32,60.60606061,66fa4ebf79326e780c390304,,,,,,,,,,,,,,,,,,,,,871.2785,871.2785,871.2803,872.5779,0,0,left,0.7706,,872.5793,873.6445,1,1,right,873.6461,874.6611,0,1,left,0,874.6612,874.6612,874.6627,876.161,0,11,11,11,1,0.8,0.2,0.2,0.8,,,,,,,,,,,,,,,0.5381,,0.8,0.2,0.2,0.8,0.8,0.2,0.4,0.6,,,0.4813,,0.2,0.8,0.8,0.2,0.6,0.4,0.4,0.6,1,0
,,5d585e287d795e001788bf4c,66fc988d7f83fb21ca39aa33,2024-10-02_02h50.22.160,mdp,2024.2.1,Win32,60.60606061,66fa4ebf79326e780c390304,,,,,,,,,,,,,,,,,,,,,876.1616,876.1616,876.1634,877.3611,0,0,left,0.6714,,877.3626,878.3945,0,0,left,878.3958,879.4778,0,0,left,1,879.4779,879.4779,879.4794,880.9777,0,12,12,12,1,0.8,0.2,0.2,0.8,,,,,,,,,,,,,,,0.5006,,0.8,0.2,0.2,0.8,0.8,0.2,0.4,0.6,,,0.5474,,0.8,0.2,0.6,0.4,0.6,0.4,0.4,0.6,1,0
,,5d585e287d795e001788bf4c,66fc988d7f83fb21ca39aa33,2024-10-02_02h50.22.160,mdp,2024.2.1,Win32,60.60606061,66fa4ebf79326e780c390304,,,,,,,,,,,,,,,,,,,,,880.9782,880.9782,880.9799,881.8444,1,0,right,0.3337,,881.8459,882.8445,1,1,right,882.8462,884.0112,1,1,right,0,884.0112,884.0112,884.0127,885.511,0,13,13,13,1,0.8,0.2,0.2,0.8,,,,,,,,,,,,,,,0.4747,,0.8,0.2,0.2,0.8,0.8,0.2,0.4,0.6,,,0.639,,0.8,0.2,0.6,0.4,0.6,0.4,0.4,0.6,1,0
,,5d585e287d795e001788bf4c,66fc988d7f83fb21ca39aa33,2024-10-02_02h50.22.160,mdp,2024.2.1,Win32,60.60606061,66fa4ebf79326e780c390304,,,,,,,,,,,,,,,,,,,,,885.5116,885.5116,885.5133,886.4111,1,1,right,0.3756,,886.4131,887.3445,0,0,left,887.3459,888.3114,0,1,left,0,888.3115,888.3115,888.3123,889.8111,0,14,14,14,1,0.8,0.2,0.2,0.8,,,,,,,,,,,,,,,0.4023,,0.8,0.2,0.2,0.8,0.8,0.2,0.4,0.6,,,0.4318,,0.8,0.2,0.6,0.4,0.6,0.4,0.4,0.6,1,0
,,5d585e287d795e001788bf4c,66fc988d7f83fb21ca39aa33,2024-10-02_02h50.22.160,mdp,2024.2.1,Win32,60.60606061,66fa4ebf79326e780c390304,,,,,,,,,,,,,,,,,,,,,889.8115,889.8116,889.8136,890.4278,0,0,left,0.0918,,890.4291,891.3278,1,1,right,891.3293,892.3444,0,1,left,0,892.3445,892.3445,892.3459,893.8444,0,15,15,15,1,0.8,0.2,0.2,0.8,,,,,,,,,,,,,,,0.3686,,0.8,0.2,0.2,0.8,0.8,0.2,0.4,0.6,,,0.4815,,0.8,0.2,0.6,0.4,0.6,0.4,0.4,0.6,1,0
,,5d585e287d795e001788bf4c,66fc988d7f83fb21ca39aa33,2024-10-02_02h50.22.160,mdp,2024.2.1,Win32,60.60606061,66fa4ebf79326e780c390304,,,,,,,,,,,,,,,,,,,,,893.8448,893.8448,893.8465,894.6112,0,0,left,0.2347,,894.6126,895.6445,0,0,left,895.646,896.6111,0,1,left,0,896.6112,896.6112,896.6125,898.111,0,16,16,16,1,0.8,0.2,0.2,0.8,,,,,,,,,,,,,,,0.5077,,0.8,0.2,0.2,0.8,0.8,0.2,0.4,0.6,,,0.4317,,0.8,0.2,0.6,0.4,0.6,0.4,0.4,0.6,1,0
,,5d585e287d795e001788bf4c,66fc988d7f83fb21ca39aa33,2024-10-02_02h50.22.160,mdp,2024.2.1,Win32,60.60606061,66fa4ebf79326e780c390304,,,,,,,,,,,,,,,,,,,,,898.1116,898.1116,898.1131,898.6777,0,0,left,0.0341,,898.6792,899.5445,1,0,right,899.5457,900.5111,0,0,left,1,900.5112,900.5112,900.5128,902.011,0,17,17,17,1,0.8,0.2,0.2,0.8,,,,,,,,,,,,,,,0.334,,0.8,0.2,0.2,0.8,0.8,0.2,0.4,0.6,,,0.4388,,0.8,0.2,0.6,0.4,0.6,0.4,0.4,0.6,1,0
,,5d585e287d795e001788bf4c,66fc988d7f83fb21ca39aa33,2024-10-02_02h50.22.160,mdp,2024.2.1,Win32,60.60606061,66fa4ebf79326e780c390304,,,,,,,,,,,,,,,,,,,,,902.0116,902.0116,902.0134,903.0778,0,0,left,0.5342,,903.0794,904.1778,0,0,left,904.1792,905.1778,1,1,right,0,905.1779,905.1779,905.1795,906.6777,0,18,18,18,1,0.8,0.2,0.2,0.8,,,,,,,,,,,,,,,0.5705,,0.8,0.2,0.2,0.8,0.8,0.2,0.4,0.6,,,0.4673,,0.8,0.2,0.6,0.4,0.6,0.4,0.4,0.6,1,0
,,5d585e287d795e001788bf4c,66fc988d7f83fb21ca39aa33,2024-10-02_02h50.22.160,mdp,2024.2.1,Win32,60.60606061,66fa4ebf79326e780c390304,,,,,,,,,,,,,,,,,,,,,906.6782,906.6782,906.68,907.4278,1,1,right,0.2176,,907.4294,908.3778,0,0,left,908.3793,909.3278,0,0,left,1,909.3278,909.3278,909.3294,910.8277,0,19,19,19,1,0.8,0.2,0.2,0.8,,,,,,,,,,,,,,,0.4138,,0.8,0.2,0.2,0.8,0.8,0.2,0.4,0.6,,,0.4216,,0.8,0.2,0.6,0.4,0.6,0.4,0.4,0.6,1,0
,,5d585e287d795e001788bf4c,66fc988d7f83fb21ca39aa33,2024-10-02_02h50.22.160,mdp,2024.2.1,Win32,60.60606061,66fa4ebf79326e780c390304,,,,,,,,,,,,,,,,,,,,,910.8282,910.8282,910.83,911.4445,0,0,left,0.0837,,911.4458,912.4778,1,1,right,912.4798,913.4611,0,0,left,1,913.4612,913.4612,913.4626,914.9611,0,20,20,20,1,0.8,0.2,0.2,0.8,,,,,,,,,,,,,,,0.5032,,0.8,0.2,0.2,0.8,0.8,0.2,0.4,0.6,,,0.4473,,0.8,0.2,0.6,0.4,0.6,0.4,0.4,0.6,1,0
,,5d585e287d795e001788bf4c,66fc988d7f83fb21ca39aa33,2024-10-02_02h50.22.160,mdp,2024.2.1,Win32,60.60606061,66fa4ebf79326e780c390304,,,,,,,,,,,,,,,,,,,,,914.9617,914.9617,914.9635,916.0112,1,1,right,0.5243,,916.0126,917.0444,1,1,right,917.0457,918.0112,0,0,left,1,918.0113,918.0113,918.0128,919.5111,0,21,21,21,1,0.8,0.2,0.2,0.8,,,,,,,,,,,,,,,0.4963,,0.8,0.2,0.2,0.8,0.8,0.2,0.4,0.6,,,0.4339,,0.8,0.2,0.6,0.4,0.6,0.4,0.4,0.6,1,0
,,5d585e287d795e001788bf4c,66fc988d7f83fb21ca39aa33,2024-10-02_02h50.22.160,mdp,2024.2.1,Win32,60.60606061,66fa4ebf79326e780c390304,,,,,,,,,,,,,,,,,,,,,919.5115,919.5115,919.515,920.5778,0,0,left,0.5375,,920.5792,921.7444,1,0,right,921.746,922.8611,0,1,left,0,922.8612,922.8613,922.8635,924.361,0,22,22,22,1,0.8,0.2,0.2,0.8,,,,,,,,,,,,,,,0.6358,,0.8,0.2,0.2,0.8,0.8,0.2,0.4,0.6,,,0.5873,,0.8,0.2,0.6,0.4,0.6,0.4,0.4,0.6,1,0
,,5d585e287d795e001788bf4c,66fc988d7f83fb21ca39aa33,2024-10-02_02h50.22.160,mdp,2024.2.1,Win32,60.60606061,66fa4ebf79326e780c390304,,,,,,,,,,,,,,,,,,,,,924.3615,924.3616,924.3636,925.1611,0,1,left,0.2673,,925.1629,926.9112,1,0,right,926.9126,927.9112,0,0,left,1,927.9112,927.9112,927.9126,929.411,0,23,23,23,1,0.8,0.2,0.2,0.8,,,,,,,,,,,,,,,1.2192,,0.8,0.2,0.2,0.8,0.8,0.2,0.4,0.6,,,0.4675,,0.8,0.2,0.6,0.4,0.6,0.4,0.4,0.6,1,0
,,5d585e287d795e001788bf4c,66fc988d7f83fb21ca39aa33,2024-10-02_02h50.22.160,mdp,2024.2.1,Win32,60.60606061,66fa4ebf79326e780c390304,,,,,,,,,,,,,,,,,,,,,929.4115,929.4115,929.4131,930.3445,0,0,left,0.4008,,930.3466,931.3445,0,0,left,931.3461,932.3111,0,0,left,1,932.3112,932.3112,932.3125,933.8111,0,24,24,24,1,0.8,0.2,0.2,0.8,,,,,,,,,,,,,,,0.4684,,0.8,0.2,0.2,0.8,0.8,0.2,0.4,0.6,,,0.4337,,0.8,0.2,0.6,0.4,0.6,0.4,0.4,0.6,1,0
,,5d585e287d795e001788bf4c,66fc988d7f83fb21ca39aa33,2024-10-02_02h50.22.160,mdp,2024.2.1,Win32,60.60606061,66fa4ebf79326e780c390304,,,,,,,,,,,,,,,,,,,,,933.8116,933.8117,933.814,934.9778,0,0,left,0.6373,,934.9794,936.4445,1,0,right,936.4459,937.4446,1,1,right,0,937.4446,937.4446,937.4461,938.9443,0,25,25,25,1,0.8,0.2,0.2,0.8,,,,,,,,,,,,,,,0.941,,0.8,0.2,0.2,0.8,0.8,0.2,0.4,0.6,,,0.4674,,0.8,0.2,0.6,0.4,0.6,0.4,0.4,0.6,1,0
,,5d585e287d795e001788bf4c,66fc988d7f83fb21ca39aa33,2024-10-02_02h50.22.160,mdp,2024.2.1,Win32,60.60606061,66fa4ebf79326e780c390304,,,,,,,,,,,,,,,,,,,,,938.9449,938.9449,938.947,939.9945,0,0,left,0.5172,,939.9963,941.3111,0,0,left,941.3125,942.4278,1,1,right,0,942.4279,942.4279,942.4295,943.9277,0,26,26,26,1,0.8,0.2,0.2,0.8,,,,,,,,,,,,,,,0.7886,,0.8,0.2,0.2,0.8,0.8,0.2,0.4,0.6,,,0.5915,,0.8,0.2,0.6,0.4,0.6,0.4,0.4,0.6,1,0
,,5d585e287d795e001788bf4c,66fc988d7f83fb21ca39aa33,2024-10-02_02h50.22.160,mdp,2024.2.1,Win32,60.60606061,66fa4ebf79326e780c390304,,,,,,,,,,,,,,,,,,,,,943.9282,943.9282,943.9298,945.0611,1,0,right,0.6006,,945.0626,946.0111,0,0,left,946.0125,946.9778,0,0,left,1,946.9779,946.9779,946.9793,948.4777,0,27,27,27,1,0.8,0.2,0.2,0.8,,,,,,,,,,,,,,,0.4255,,0.8,0.2,0.2,0.8,0.8,0.2,0.4,0.6,,,0.4373,,0.8,0.2,0.6,0.4,0.6,0.4,0.4,0.6,1,0
,,5d585e287d795e001788bf4c,66fc988d7f83fb21ca39aa33,2024-10-02_02h50.22.160,mdp,2024.2.1,Win32,60.60606061,66fa4ebf79326e780c390304,,,,,,,,,,,,,,,,,,,,,948.4781,948.4781,948.4799,949.5611,0,1,left,0.5509,,949.5627,950.9944,1,1,right,950.996,952.6944,0,0,left,1,952.6945,952.6946,952.6959,954.1943,0,28,28,28,1,0.8,0.2,0.2,0.8,,,,,,,,,,,,,,,0.8969,,0.8,0.2,0.2,0.8,0.8,0.2,0.4,0.6,,,1.1637,,0.8,0.2,0.6,0.4,0.6,0.4,0.4,0.6,1,0
,,5d585e287d795e001788bf4c,66fc988d7f83fb21ca39aa33,2024-10-02_02h50.22.160,mdp,2024.2.1,Win32,60.60606061,66fa4ebf79326e780c390304,,,,,,,,,,,,,,,,,,,,,954.1948,954.1948,954.1965,955.4111,0,0,left,0.6845,,955.4127,956.8444,1,1,right,956.846,958.1945,1,0,right,1,958.1946,958.1946,958.1959,959.6944,0,29,29,29,1,0.8,0.2,0.2,0.8,,,,,,,,,,,,,,,0.9045,,0.8,0.2,0.2,0.8,0.8,0.2,0.4,0.6,,,0.8183,,0.8,0.2,0.6,0.4,0.6,0.4,0.4,0.6,1,0
,,5d585e287d795e001788bf4c,66fc988d7f83fb21ca39aa33,2024-10-02_02h50.22.160,mdp,2024.2.1,Win32,60.60606061,66fa4ebf79326e780c390304,,,,,,,,,,,,,,,,,,,,,959.6949,959.695,959.6972,960.8945,0,0,left,0.6724,,960.8961,962.4445,1,1,right,962.4463,963.5278,0,0,left,1,963.5279,963.5279,963.5292,965.0277,0,30,30,30,1,0.8,0.2,0.2,0.8,,,,,,,,,,,,,,,1.0242,,0.8,0.2,0.2,0.8,0.8,0.2,0.4,0.6,,,0.5507,,0.8,0.2,0.6,0.4,0.6,0.4,0.4,0.6,1,0
,,5d585e287d795e001788bf4c,66fc988d7f83fb21ca39aa33,2024-10-02_02h50.22.160,mdp,2024.2.1,Win32,60.60606061,66fa4ebf79326e780c390304,,,,,,,,,,,,,,,,,,,,,965.0281,965.0282,965.0296,966.2778,0,0,left,0.7174,,966.2792,967.4277,1,0,right,967.4292,968.4778,0,0,left,1,968.4779,968.478,968.4797,969.9776,0,31,31,31,1,0.8,0.2,0.2,0.8,,,,,,,,,,,,,,,0.6175,,0.8,0.2,0.2,0.8,0.8,0.2,0.4,0.6,,,0.5201,,0.8,0.2,0.6,0.4,0.6,0.4,0.4,0.6,1,0
,,5d585e287d795e001788bf4c,66fc988d7f83fb21ca39aa33,2024-10-02_02h50.22.160,mdp,2024.2.1,Win32,60.60606061,66fa4ebf79326e780c390304,,,,,,,,,,,,,,,,,,,,,969.9781,969.9782,969.98,971.0611,0,1,left,0.551,,971.0633,972.6278,1,1,right,972.6294,973.7612,1,0,right,1,973.7612,973.7613,973.7627,975.261,0,32,32,32,1,0.8,0.2,0.2,0.8,,,,,,,,,,,,,,,1.0304,,0.8,0.2,0.2,0.8,0.8,0.2,0.4,0.6,,,0.602,,0.8,0.2,0.6,0.4,0.6,0.4,0.4,0.6,1,0
,,5d585e287d795e001788bf4c,66fc988d7f83fb21ca39aa33,2024-10-02_02h50.22.160,mdp,2024.2.1,Win32,60.60606061,66fa4ebf79326e780c390304,,,,,,,,,,,,,,,,,,,,,975.2615,975.2615,975.2631,976.4444,0,0,left,0.6575,,976.446,978.0945,0,0,left,978.0961,979.3444,0,0,left,1,979.3445,979.3445,979.346,980.8444,0,33,33,33,1,0.8,0.2,0.2,0.8,,,,,,,,,,,,,,,1.119,,0.8,0.2,0.2,0.8,0.8,0.2,0.4,0.6,,,0.7188,,0.8,0.2,0.6,0.4,0.6,0.4,0.4,0.6,1,0
,,5d585e287d795e001788bf4c,66fc988d7f83fb21ca39aa33,2024-10-02_02h50.22.160,mdp,2024.2.1,Win32,60.60606061,66fa4ebf79326e780c390304,,,,,,,,,,,,,,,,,,,,,980.8449,980.8449,980.8466,982.1278,0,1,left,0.7551,,982.1295,983.0611,1,0,right,983.0626,984.0279,1,0,right,1,984.0279,984.0279,984.0292,985.5277,0,34,34,34,1,0.8,0.2,0.2,0.8,,,,,,,,,,,,,,,0.3975,,0.8,0.2,0.2,0.8,0.8,0.2,0.4,0.6,,,0.4416,,0.8,0.2,0.6,0.4,0.6,0.4,0.4,0.6,1,0
,,5d585e287d795e001788bf4c,66fc988d7f83fb21ca39aa33,2024-10-02_02h50.22.160,mdp,2024.2.1,Win32,60.60606061,66fa4ebf79326e780c390304,,,,,,,,,,,,,,,,,,,,,985.5281,985.5281,985.5299,986.5111,0,0,left,0.4554,,986.5127,987.5111,0,1,left,987.5124,988.5278,1,1,right,0,988.528,988.528,988.5298,990.0277,0,35,35,35,1,0.8,0.2,0.2,0.8,,,,,,,,,,,,,,,0.4638,,0.8,0.2,0.2,0.8,0.8,0.2,0.4,0.6,,,0.4853,,0.8,0.2,0.6,0.4,0.6,0.4,0.4,0.6,1,0
,,5d585e287d795e001788bf4c,66fc988d7f83fb21ca39aa33,2024-10-02_02h50.22.160,mdp,2024.2.1,Win32,60.60606061,66fa4ebf79326e780c390304,,,,,,,,,,,,,,,,,,,,,990.0281,990.0281,990.0298,991.0946,1,1,right,0.534,,991.0961,991.9778,0,0,left,991.9792,992.9278,0,0,left,1,992.9279,992.9279,992.9294,994.4278,0,36,36,36,1,0.8,0.2,0.2,0.8,,,,,,,,,,,,,,,0.3455,,0.8,0.2,0.2,0.8,0.4,0.6,0.2,0.8,,,0.4183,,0.8,0.2,0.6,0.4,0.6,0.4,0.4,0.6,1,0
,,5d585e287d795e001788bf4c,66fc988d7f83fb21ca39aa33,2024-10-02_02h50.22.160,mdp,2024.2.1,Win32,60.60606061,66fa4ebf79326e780c390304,,,,,,,,,,,,,,,,,,,,,994.4283,994.4283,994.4301,995.5611,0,1,left,0.6009,,995.5625,996.6111,1,0,right,996.6124,997.6277,1,0,right,1,997.6278,997.6278,997.6291,999.1277,0,37,37,37,1,0.8,0.2,0.2,0.8,,,,,,,,,,,,,,,0.5178,,0.8,0.2,0.2,0.8,0.4,0.6,0.2,0.8,,,0.4914,,0.8,0.2,0.6,0.4,0.6,0.4,0.4,0.6,1,0
,,5d585e287d795e001788bf4c,66fc988d7f83fb21ca39aa33,2024-10-02_02h50.22.160,mdp,2024.2.1,Win32,60.60606061,66fa4ebf79326e780c390304,,,,,,,,,,,,,,,,,,,,,999.1281,999.1281,999.1297,999.9111,0,0,left,0.2507,,999.9127,1000.811,1,1,right,1000.8124,1001.7278,0,0,left,1,1001.7279,1001.7279,1001.7295,1003.2278,0,38,38,38,1,0.8,0.2,0.2,0.8,,,,,,,,,,,,,,,0.3726,,0.8,0.2,0.2,0.8,0.4,0.6,0.2,0.8,,,0.385,,0.8,0.2,0.6,0.4,0.6,0.4,0.4,0.6,1,0
,,5d585e287d795e001788bf4c,66fc988d7f83fb21ca39aa33,2024-10-02_02h50.22.160,mdp,2024.2.1,Win32,60.60606061,66fa4ebf79326e780c390304,,,,,,,,,,,,,,,,,,,,,1003.2283,1003.2283,1003.23,1004.3111,1,0,right,0.5507,,1004.3127,1005.2944,1,1,right,1005.2958,1006.2611,0,0,left,1,1006.2611,1006.2612,1006.2625,1007.761,0,39,39,39,1,0.6,0.4,0.8,0.2,,,,,,,,,,,,,,,0.4579,,0.8,0.2,0.2,0.8,0.4,0.6,0.2,0.8,,,0.4341,,0.8,0.2,0.6,0.4,0.6,0.4,0.4,0.6,1,0
,,5d585e287d795e001788bf4c,66fc988d7f83fb21ca39aa33,2024-10-02_02h50.22.160,mdp,2024.2.1,Win32,60.60606061,66fa4ebf79326e780c390304,,,,,,,,,,,,,,,,,,,,,1007.7615,1007.7615,1007.7635,1008.7944,0,1,left,0.5011,,1008.7959,1009.9778,1,0,right,1009.9793,1010.9611,0,0,left,1,1010.9612,1010.9612,1010.9627,1012.461,0,40,40,40,1,0.6,0.4,0.8,0.2,,,,,,,,,,,,,,,0.6476,,0.8,0.2,0.2,0.8,0.4,0.6,0.2,0.8,,,0.4512,,0.8,0.2,0.6,0.4,0.6,0.4,0.4,0.6,1,0
,,5d585e287d795e001788bf4c,66fc988d7f83fb21ca39aa33,2024-10-02_02h50.22.160,mdp,2024.2.1,Win32,60.60606061,66fa4ebf79326e780c390304,,,,,,,,,,,,,,,,,,,,,1012.4615,1012.4615,1012.4631,1013.4944,1,0,right,0.5006,,1013.4959,1014.411,0,0,left,1014.4125,1015.3278,0,0,left,1,1015.3278,1015.3278,1015.3292,1016.8276,0,41,41,41,1,0.6,0.4,0.8,0.2,,,,,,,,,,,,,,,0.3892,,0.8,0.2,0.2,0.8,0.8,0.2,0.8,0.2,,,0.3884,,0.8,0.2,0.6,0.4,0.6,0.4,0.4,0.6,1,0
,,5d585e287d795e001788bf4c,66fc988d7f83fb21ca39aa33,2024-10-02_02h50.22.160,mdp,2024.2.1,Win32,60.60606061,66fa4ebf79326e780c390304,,,,,,,,,,,,,,,,,,,,,1016.8281,1016.8281,1016.8296,1017.7446,0,1,left,0.3884,,1017.7464,1018.2944,1,0,right,1018.2958,1019.1278,0,0,left,1,1019.1279,1019.1279,1019.1294,1020.6277,0,42,42,42,1,0.6,0.4,0.8,0.2,,,,,,,,,,,,,,,0.012,,0.8,0.2,0.2,0.8,0.8,0.2,0.8,0.2,,,0.3007,,0.8,0.2,0.6,0.4,0.6,0.4,0.4,0.6,1,0
,,5d585e287d795e001788bf4c,66fc988d7f83fb21ca39aa33,2024-10-02_02h50.22.160,mdp,2024.2.1,Win32,60.60606061,66fa4ebf79326e780c390304,,,,,,,,,,,,,,,,,,,,,1020.6282,1020.6282,1020.6299,1021.5611,0,0,left,0.4008,,1021.5626,1022.1944,1,1,right,1022.196,1023.0945,0,1,left,0,1023.0945,1023.0945,1023.0961,1024.5944,0,43,43,43,1,0.6,0.4,0.8,0.2,,,,,,,,,,,,,,,0.0981,,0.8,0.2,0.2,0.8,0.8,0.2,0.8,0.2,,,0.3645,,0.8,0.2,0.6,0.4,0.6,0.4,0.4,0.6,1,0
,,5d585e287d795e001788bf4c,66fc988d7f83fb21ca39aa33,2024-10-02_02h50.22.160,mdp,2024.2.1,Win32,60.60606061,66fa4ebf79326e780c390304,,,,,,,,,,,,,,,,,,,,,1024.5949,1024.5949,1024.5966,1025.3278,0,0,left,0.2052,,1025.3292,1025.9778,1,0,right,1025.9793,1026.8444,1,0,right,1,1026.8445,1026.8445,1026.8457,1028.3444,0,44,44,44,1,0.6,0.4,0.8,0.2,,,,,,,,,,,,,,,0.1175,,0.8,0.2,0.2,0.8,0.8,0.2,0.8,0.2,,,0.3374,,0.8,0.2,0.6,0.4,0.6,0.4,0.4,0.6,1,0
,,5d585e287d795e001788bf4c,66fc988d7f83fb21ca39aa33,2024-10-02_02h50.22.160,mdp,2024.2.1,Win32,60.60606061,66fa4ebf79326e780c390304,,,,,,,,,,,,,,,,,,,,,1028.3449,1028.3449,1028.3463,1029.4111,0,0,left,0.5348,,1029.4127,1030.4111,1,1,right,1030.4125,1031.4777,0,1,left,0,1031.4778,1031.4778,1031.4791,1032.9776,0,45,45,45,1,0.6,0.4,0.8,0.2,,,,,,,,,,,,,,,0.4674,,0.8,0.2,0.2,0.8,0.8,0.2,0.8,0.2,,,0.5309,,0.8,0.2,0.6,0.4,0.6,0.4,0.4,0.6,1,0
,,5d585e287d795e001788bf4c,66fc988d7f83fb21ca39aa33,2024-10-02_02h50.22.160,mdp,2024.2.1,Win32,60.60606061,66fa4ebf79326e780c390304,,,,,,,,,,,,,,,,,,,,,1032.9782,1032.9782,1032.9798,1034.0611,0,1,left,0.5569,,1034.0626,1035.0778,1,0,right,1035.0792,1036.1278,1,0,right,1,1036.1278,1036.1278,1036.1294,1037.6276,0,46,46,46,1,0.6,0.4,0.8,0.2,,,,,,,,,,,,,,,0.4814,,0.8,0.2,0.2,0.8,0.8,0.2,0.8,0.2,,,0.5171,,0.8,0.2,0.6,0.4,0.6,0.4,0.4,0.6,1,0
,,5d585e287d795e001788bf4c,66fc988d7f83fb21ca39aa33,2024-10-02_02h50.22.160,mdp,2024.2.1,Win32,60.60606061,66fa4ebf79326e780c390304,,,,,,,,,,,,,,,,,,,,,1037.6282,1037.6282,1037.6298,1038.7777,0,1,left,0.6173,,1038.7791,1040.0278,1,0,right,1040.0294,1041.3278,1,0,right,1,1041.3279,1041.3279,1041.3297,1042.8277,0,47,47,47,1,0.6,0.4,0.8,0.2,,,,,,,,,,,,,,,0.7276,,0.8,0.2,0.2,0.8,0.8,0.2,0.8,0.2,,,0.7716,,0.8,0.2,0.6,0.4,0.6,0.4,0.4,0.6,1,0
,,5d585e287d795e001788bf4c,66fc988d7f83fb21ca39aa33,2024-10-02_02h50.22.160,mdp,2024.2.1,Win32,60.60606061,66fa4ebf79326e780c390304,,,,,,,,,,,,,,,,,,,,,1042.8282,1042.8282,1042.8301,1044.011,0,1,left,0.6588,,1044.0125,1045.6111,1,0,right,1045.6126,1046.7611,1,1,right,0,1046.7612,1046.7612,1046.7625,1048.261,0,48,48,48,1,0.6,0.4,0.8,0.2,,,,,,,,,,,,,,,1.0745,,0.8,0.2,0.2,0.8,0.8,0.2,0.8,0.2,,,0.6175,,0.8,0.2,0.6,0.4,0.6,0.4,0.4,0.6,1,0
,,5d585e287d795e001788bf4c,66fc988d7f83fb21ca39aa33,2024-10-02_02h50.22.160,mdp,2024.2.1,Win32,60.60606061,66fa4ebf79326e780c390304,,,,,,,,,,,,,,,,,,,,,1048.2616,1048.2616,1048.2632,1049.3611,0,0,left,0.5711,,1049.3624,1050.7611,0,0,left,1050.7624,1051.8778,0,0,left,1,1051.878,1051.878,1051.8794,1053.3777,0,49,49,49,1,0.6,0.4,0.8,0.2,,,,,,,,,,,,,,,0.8639,,0.8,0.2,0.2,0.8,0.8,0.2,0.8,0.2,,,0.584,,0.8,0.2,0.6,0.4,0.6,0.4,0.4,0.6,1,0
,,5d585e287d795e001788bf4c,66fc988d7f83fb21ca39aa33,2024-10-02_02h50.22.160,mdp,2024.2.1,Win32,60.60606061,66fa4ebf79326e780c390304,,,,,,,,,,,,,,,,,,,,,,,,,,,,,,,,,,,,,,,,,,,,,,,,,,,,,,,,1053.3778,1111.8944,0,2,2,7,1,imgs/cat.png,imgs/giraffe.png,imgs/lion.png,imgs/rabbit.png,imgs/kangaroo.png,,,,,,,,,,,,,,,,,,,,,,,,
,,5d585e287d795e001788bf4c,66fc988d7f83fb21ca39aa33,2024-10-02_02h50.22.160,mdp,2024.2.1,Win32,60.60606061,66fa4ebf79326e780c390304,,,,,,,,,,,,,,3,seqs/st3seq30.csv,1111.907,1114.9779,space,2.5542,,1114.985,1114.985,1114.9874,1116.5445,0,0,left,1.0348,,1116.5459,1118.0777,0,1,left,1118.079,1119.1611,1,0,right,1,1119.1612,1119.1612,1119.1626,1120.661,0,0,0,0,1,0.8,0.2,0.2,0.8,,,,,,,,,,,,,,,0.9959,,0.6,0.4,0.8,0.2,0.8,0.2,0.4,0.6,,,0.5478,,0.2,0.8,0.8,0.2,0.4,0.6,0.8,0.2,1,0
,,5d585e287d795e001788bf4c,66fc988d7f83fb21ca39aa33,2024-10-02_02h50.22.160,mdp,2024.2.1,Win32,60.60606061,66fa4ebf79326e780c390304,,,,,,,,,,,,,,,,,,,,,1120.6614,1120.6614,1120.6633,1122.5778,0,0,left,1.386,,1122.5791,1123.8778,1,1,right,1123.8794,1124.9111,1,0,right,1,1124.9112,1124.9112,1124.9129,1126.4111,0,1,1,1,1,0.8,0.2,0.2,0.8,,,,,,,,,,,,,,,0.7674,,0.6,0.4,0.8,0.2,0.8,0.2,0.4,0.6,,,0.5054,,0.2,0.8,0.8,0.2,0.4,0.6,0.8,0.2,1,0
,,5d585e287d795e001788bf4c,66fc988d7f83fb21ca39aa33,2024-10-02_02h50.22.160,mdp,2024.2.1,Win32,60.60606061,66fa4ebf79326e780c390304,,,,,,,,,,,,,,,,,,,,,1126.4116,1126.4116,1126.4134,1127.611,0,0,left,0.6663,,1127.6125,1128.561,0,0,left,1128.5624,1129.4944,0,1,left,0,1129.4945,1129.4945,1129.4959,1130.9943,0,2,2,2,1,0.8,0.2,0.2,0.8,,,,,,,,,,,,,,,0.4209,,0.6,0.4,0.8,0.2,0.8,0.2,0.4,0.6,,,0.3905,,0.2,0.8,0.8,0.2,0.4,0.6,0.8,0.2,1,0
,,5d585e287d795e001788bf4c,66fc988d7f83fb21ca39aa33,2024-10-02_02h50.22.160,mdp,2024.2.1,Win32,60.60606061,66fa4ebf79326e780c390304,,,,,,,,,,,,,,,,,,,,,1130.9948,1130.9948,1130.9965,1131.9611,1,1,right,0.4341,,1131.9626,1132.9944,0,1,left,1132.9959,1134.1444,0,1,left,0,1134.1445,1134.1445,1134.1457,1135.6444,0,3,3,3,1,0.8,0.2,0.2,0.8,,,,,,,,,,,,,,,0.4872,,0.6,0.4,0.8,0.2,0.8,0.2,0.4,0.6,,,0.6187,,0.2,0.8,0.8,0.2,0.4,0.6,0.8,0.2,1,0
,,5d585e287d795e001788bf4c,66fc988d7f83fb21ca39aa33,2024-10-02_02h50.22.160,mdp,2024.2.1,Win32,60.60606061,66fa4ebf79326e780c390304,,,,,,,,,,,,,,,,,,,,,1135.6448,1135.6448,1135.6466,1136.6778,1,1,right,0.5007,,1136.6794,1137.6111,1,1,right,1137.6124,1138.5945,0,1,left,0,1138.5945,1138.5945,1138.596,1140.0943,0,4,4,4,1,0.8,0.2,0.2,0.8,,,,,,,,,,,,,,,0.4087,,0.6,0.4,0.8,0.2,0.8,0.2,0.4,0.6,,,0.4514,,0.2,0.8,0.8,0.2,0.4,0.6,0.8,0.2,1,0
,,5d585e287d795e001788bf4c,66fc988d7f83fb21ca39aa33,2024-10-02_02h50.22.160,mdp,2024.2.1,Win32,60.60606061,66fa4ebf79326e780c390304,,,,,,,,,,,,,,,,,,,,,1140.0948,1140.0948,1140.0965,1141.0278,0,0,left,0.4004,,1141.0292,1142.0277,0,0,left,1142.0291,1142.9611,1,0,right,1,1142.9612,1142.9612,1142.9625,1144.461,0,5,5,5,1,0.8,0.2,0.2,0.8,,,,,,,,,,,,,,,0.4714,,0.6,0.4,0.8,0.2,0.8,0.2,0.4,0.6,,,0.4018,,0.2,0.8,0.8,0.2,0.6,0.4,0.4,0.6,1,0
,,5d585e287d795e001788bf4c,66fc988d7f83fb21ca39aa33,2024-10-02_02h50.22.160,mdp,2024.2.1,Win32,60.60606061,66fa4ebf79326e780c390304,,,,,,,,,,,,,,,,,,,,,1144.4616,1144.4616,1144.4633,1145.3778,0,0,left,0.3869,,1145.3792,1146.378,1,0,right,1146.3802,1147.3944,0,1,left,0,1147.3945,1147.3945,1147.3959,1148.8944,0,6,6,6,1,0.8,0.2,0.2,0.8,,,,,,,,,,,,,,,0.4679,,0.6,0.4,0.8,0.2,0.8,0.2,0.4,0.6,,,0.4849,,0.2,0.8,0.8,0.2,0.6,0.4,0.4,0.6,1,0
,,5d585e287d795e001788bf4c,66fc988d7f83fb21ca39aa33,2024-10-02_02h50.22.160,mdp,2024.2.1,Win32,60.60606061,66fa4ebf79326e780c390304,,,,,,,,,,,,,,,,,,,,,1148.8948,1148.8948,1148.8965,1149.8611,0,0,left,0.4337,,1149.8626,1150.8778,1,0,right,1150.8802,1151.8778,1,1,right,0,1151.8779,1151.8779,1151.8794,1153.3776,0,7,7,7,1,0.8,0.2,0.2,0.8,,,,,,,,,,,,,,,0.4896,,0.6,0.4,0.8,0.2,0.8,0.2,0.4,0.6,,,0.4672,,0.2,0.8,0.8,0.2,0.6,0.4,0.4,0.6,1,0
,,5d585e287d795e001788bf4c,66fc988d7f83fb21ca39aa33,2024-10-02_02h50.22.160,mdp,2024.2.1,Win32,60.60606061,66fa4ebf79326e780c390304,,,,,,,,,,,,,,,,,,,,,1153.3782,1153.3782,1153.3799,1154.5611,0,1,left,0.6545,,1154.5626,1155.4779,0,0,left,1155.4791,1156.5444,1,1,right,0,1156.5444,1156.5444,1156.5459,1158.0444,0,8,8,8,1,0.8,0.2,0.2,0.8,,,,,,,,,,,,,,,0.3807,,0.6,0.4,0.8,0.2,0.8,0.2,0.4,0.6,,,0.5383,,0.2,0.8,0.8,0.2,0.6,0.4,0.4,0.6,1,0
,,5d585e287d795e001788bf4c,66fc988d7f83fb21ca39aa33,2024-10-02_02h50.22.160,mdp,2024.2.1,Win32,60.60606061,66fa4ebf79326e780c390304,,,,,,,,,,,,,,,,,,,,,1158.0448,1158.0449,1158.0465,1159.3444,0,0,left,0.7716,,1159.3459,1160.2611,0,0,left,1160.2626,1161.1611,0,1,left,0,1161.1612,1161.1612,1161.1624,1162.6611,0,9,9,9,1,0.8,0.2,0.2,0.8,,,,,,,,,,,,,,,0.381,,0.6,0.4,0.8,0.2,0.8,0.2,0.4,0.6,,,0.3669,,0.2,0.8,0.8,0.2,0.6,0.4,0.4,0.6,1,0
,,5d585e287d795e001788bf4c,66fc988d7f83fb21ca39aa33,2024-10-02_02h50.22.160,mdp,2024.2.1,Win32,60.60606061,66fa4ebf79326e780c390304,,,,,,,,,,,,,,,,,,,,,1162.6616,1162.6616,1162.6631,1163.5944,1,1,right,0.4008,,1163.5962,1164.4777,0,0,left,1164.4791,1165.4278,1,0,right,1,1165.4278,1165.4278,1165.4294,1166.9277,0,10,10,10,1,0.8,0.2,0.2,0.8,,,,,,,,,,,,,,,0.353,,0.6,0.4,0.8,0.2,0.8,0.2,0.4,0.6,,,0.4169,,0.2,0.8,0.8,0.2,0.6,0.4,0.4,0.6,1,0
,,5d585e287d795e001788bf4c,66fc988d7f83fb21ca39aa33,2024-10-02_02h50.22.160,mdp,2024.2.1,Win32,60.60606061,66fa4ebf79326e780c390304,,,,,,,,,,,,,,,,,,,,,1166.9281,1166.9281,1166.9299,1168.0444,0,0,left,0.5908,,1168.0459,1168.7945,1,1,right,1168.7963,1169.6778,0,1,left,0,1169.6778,1169.6778,1169.6793,1171.1777,0,11,11,11,1,0.8,0.2,0.2,0.8,,,,,,,,,,,,,,,0.2228,,0.8,0.2,0.2,0.8,0.8,0.2,0.4,0.6,,,0.353,,0.2,0.8,0.8,0.2,0.6,0.4,0.4,0.6,1,0
,,5d585e287d795e001788bf4c,66fc988d7f83fb21ca39aa33,2024-10-02_02h50.22.160,mdp,2024.2.1,Win32,60.60606061,66fa4ebf79326e780c390304,,,,,,,,,,,,,,,,,,,,,1171.1783,1171.1783,1171.1803,1172.2778,0,0,left,0.5673,,1172.2792,1173.2443,1,1,right,1173.2458,1174.2444,1,1,right,0,1174.2445,1174.2445,1174.246,1175.7444,0,12,12,12,1,0.8,0.2,0.2,0.8,,,,,,,,,,,,,,,0.4405,,0.8,0.2,0.2,0.8,0.8,0.2,0.4,0.6,,,0.4673,,0.8,0.2,0.6,0.4,0.6,0.4,0.4,0.6,1,0
,,5d585e287d795e001788bf4c,66fc988d7f83fb21ca39aa33,2024-10-02_02h50.22.160,mdp,2024.2.1,Win32,60.60606061,66fa4ebf79326e780c390304,,,,,,,,,,,,,,,,,,,,,1175.7448,1175.7448,1175.7465,1176.9112,0,0,left,0.6383,,1176.9125,1177.8614,0,1,left,1177.8622,1178.7945,1,1,right,0,1178.7945,1178.7945,1178.7962,1180.2943,0,13,13,13,1,0.8,0.2,0.2,0.8,,,,,,,,,,,,,,,0.4178,,0.8,0.2,0.2,0.8,0.8,0.2,0.4,0.6,,,0.4093,,0.8,0.2,0.6,0.4,0.6,0.4,0.4,0.6,1,0
,,5d585e287d795e001788bf4c,66fc988d7f83fb21ca39aa33,2024-10-02_02h50.22.160,mdp,2024.2.1,Win32,60.60606061,66fa4ebf79326e780c390304,,,,,,,,,,,,,,,,,,,,,1180.2948,1180.2948,1180.2966,1181.3945,0,0,left,0.5672,,1181.3957,1182.3444,0,0,left,1182.3459,1183.3444,0,0,left,1,1183.3445,1183.3445,1183.3459,1184.8443,0,14,14,14,1,0.8,0.2,0.2,0.8,,,,,,,,,,,,,,,0.4173,,0.8,0.2,0.2,0.8,0.8,0.2,0.4,0.6,,,0.4683,,0.8,0.2,0.6,0.4,0.6,0.4,0.4,0.6,1,0
,,5d585e287d795e001788bf4c,66fc988d7f83fb21ca39aa33,2024-10-02_02h50.22.160,mdp,2024.2.1,Win32,60.60606061,66fa4ebf79326e780c390304,,,,,,,,,,,,,,,,,,,,,1184.8448,1184.8448,1184.8466,1185.9777,1,1,right,0.6009,,1185.9793,1187.2278,1,1,right,1187.2292,1188.2281,0,0,left,1,1188.2281,1188.2281,1188.229,1189.7277,0,15,15,15,1,0.8,0.2,0.2,0.8,,,,,,,,,,,,,,,0.7216,,0.8,0.2,0.2,0.8,0.8,0.2,0.4,0.6,,,0.4651,,0.8,0.2,0.6,0.4,0.6,0.4,0.4,0.6,1,0
,,5d585e287d795e001788bf4c,66fc988d7f83fb21ca39aa33,2024-10-02_02h50.22.160,mdp,2024.2.1,Win32,60.60606061,66fa4ebf79326e780c390304,,,,,,,,,,,,,,,,,,,,,1189.7283,1189.7283,1189.7301,1191.3444,0,0,left,1.0882,,1191.3458,1192.3111,1,1,right,1192.3127,1193.2946,1,1,right,0,1193.2946,1193.2947,1193.2962,1194.7944,0,16,16,16,1,0.8,0.2,0.2,0.8,,,,,,,,,,,,,,,0.4312,,0.8,0.2,0.2,0.8,0.8,0.2,0.4,0.6,,,0.4558,,0.8,0.2,0.6,0.4,0.6,0.4,0.4,0.6,1,0
,,5d585e287d795e001788bf4c,66fc988d7f83fb21ca39aa33,2024-10-02_02h50.22.160,mdp,2024.2.1,Win32,60.60606061,66fa4ebf79326e780c390304,,,,,,,,,,,,,,,,,,,,,1194.7948,1194.7948,1194.7964,1195.6778,0,0,left,0.356,,1195.6795,1196.361,0,0,left,1196.3627,1196.9111,0,0,left,1,1196.9111,1196.9111,1196.9126,1198.411,0,17,17,17,1,0.8,0.2,0.2,0.8,,,,,,,,,,,,,,,0.1505,,0.8,0.2,0.2,0.8,0.8,0.2,0.4,0.6,,,0.0182,,0.8,0.2,0.6,0.4,0.6,0.4,0.4,0.6,1,0
,,5d585e287d795e001788bf4c,66fc988d7f83fb21ca39aa33,2024-10-02_02h50.22.160,mdp,2024.2.1,Win32,60.60606061,66fa4ebf79326e780c390304,,,,,,,,,,,,,,,,,,,,,1198.4115,1198.4115,1198.4133,1199.4945,0,0,left,0.5505,,1199.4961,1200.5444,1,1,right,1200.5458,1201.661,0,0,left,1,1201.6612,1201.6612,1201.663,1203.161,0,18,18,18,1,0.8,0.2,0.2,0.8,,,,,,,,,,,,,,,0.5217,,0.8,0.2,0.2,0.8,0.8,0.2,0.4,0.6,,,0.5849,,0.8,0.2,0.6,0.4,0.6,0.4,0.4,0.6,1,0
,,5d585e287d795e001788bf4c,66fc988d7f83fb21ca39aa33,2024-10-02_02h50.22.160,mdp,2024.2.1,Win32,60.60606061,66fa4ebf79326e780c390304,,,,,,,,,,,,,,,,,,,,,1203.1614,1203.1615,1203.1632,1204.3944,0,0,left,0.7007,,1204.3959,1205.4111,1,1,right,1205.4127,1206.3944,0,0,left,1,1206.3945,1206.3945,1206.3961,1207.8943,0,19,19,19,1,0.8,0.2,0.2,0.8,,,,,,,,,,,,,,,0.4841,,0.8,0.2,0.2,0.8,0.8,0.2,0.4,0.6,,,0.4509,,0.8,0.2,0.6,0.4,0.6,0.4,0.4,0.6,1,0
,,5d585e287d795e001788bf4c,66fc988d7f83fb21ca39aa33,2024-10-02_02h50.22.160,mdp,2024.2.1,Win32,60.60606061,66fa4ebf79326e780c390304,,,,,,,,,,,,,,,,,,,,,1207.8948,1207.8948,1207.8965,1209.0278,1,1,right,0.6001,,1209.0293,1209.9445,0,0,left,1209.9459,1210.8611,0,0,left,1,1210.8611,1210.8611,1210.8625,1212.3609,0,20,20,20,1,0.8,0.2,0.2,0.8,,,,,,,,,,,,,,,0.3806,,0.8,0.2,0.2,0.8,0.8,0.2,0.4,0.6,,,0.3872,,0.8,0.2,0.6,0.4,0.6,0.4,0.4,0.6,1,0
,,5d585e287d795e001788bf4c,66fc988d7f83fb21ca39aa33,2024-10-02_02h50.22.160,mdp,2024.2.1,Win32,60.60606061,66fa4ebf79326e780c390304,,,,,,,,,,,,,,,,,,,,,1212.3614,1212.3614,1212.3631,1213.4278,0,1,left,0.5337,,1213.4291,1214.3611,0,0,left,1214.3627,1215.0611,0,0,left,1,1215.0611,1215.0612,1215.0625,1216.561,0,21,21,21,1,0.8,0.2,0.2,0.8,,,,,,,,,,,,,,,0.4008,,0.8,0.2,0.2,0.8,0.8,0.2,0.4,0.6,,,0.1673,,0.8,0.2,0.6,0.4,0.6,0.4,0.4,0.6,1,0
,,5d585e287d795e001788bf4c,66fc988d7f83fb21ca39aa33,2024-10-02_02h50.22.160,mdp,2024.2.1,Win32,60.60606061,66fa4ebf79326e780c390304,,,,,,,,,,,,,,,,,,,,,1216.5615,1216.5616,1216.5632,1217.5946,0,0,left,0.5017,,1217.5954,1218.6945,1,1,right,1218.696,1219.611,1,1,right,0,1219.6111,1219.6111,1219.6125,1221.111,0,22,22,22,1,0.8,0.2,0.2,0.8,,,,,,,,,,,,,,,0.5643,,0.8,0.2,0.2,0.8,0.8,0.2,0.4,0.6,,,0.3893,,0.8,0.2,0.6,0.4,0.6,0.4,0.4,0.6,1,0
,,5d585e287d795e001788bf4c,66fc988d7f83fb21ca39aa33,2024-10-02_02h50.22.160,mdp,2024.2.1,Win32,60.60606061,66fa4ebf79326e780c390304,,,,,,,,,,,,,,,,,,,,,1221.1115,1221.1116,1221.1132,1221.9611,0,0,left,0.3174,,1221.9626,1222.8944,0,0,left,1222.8958,1224.2111,0,0,left,1,1224.2112,1224.2112,1224.2127,1225.711,0,23,23,23,1,0.8,0.2,0.2,0.8,,,,,,,,,,,,,,,0.4058,,0.8,0.2,0.2,0.8,0.8,0.2,0.4,0.6,,,0.7814,,0.8,0.2,0.6,0.4,0.6,0.4,0.4,0.6,1,0
,,5d585e287d795e001788bf4c,66fc988d7f83fb21ca39aa33,2024-10-02_02h50.22.160,mdp,2024.2.1,Win32,60.60606061,66fa4ebf79326e780c390304,,,,,,,,,,,,,,,,,,,,,1225.7115,1225.7115,1225.7134,1226.7947,0,0,left,0.5594,,1226.7965,1227.7611,0,0,left,1227.7638,1228.6944,0,0,left,1,1228.6945,1228.6945,1228.6959,1230.1943,0,24,24,24,1,0.8,0.2,0.2,0.8,,,,,,,,,,,,,,,0.4383,,0.8,0.2,0.2,0.8,0.8,0.2,0.4,0.6,,,0.4009,,0.8,0.2,0.6,0.4,0.6,0.4,0.4,0.6,1,0
,,5d585e287d795e001788bf4c,66fc988d7f83fb21ca39aa33,2024-10-02_02h50.22.160,mdp,2024.2.1,Win32,60.60606061,66fa4ebf79326e780c390304,,,,,,,,,,,,,,,,,,,,,1230.1947,1230.1948,1230.1967,1231.1944,1,1,right,0.4671,,1231.196,1232.0777,1,1,right,1232.0794,1233.0111,1,1,right,0,1233.0112,1233.0112,1233.0126,1234.511,0,25,25,25,1,0.8,0.2,0.2,0.8,,,,,,,,,,,,,,,0.3528,,0.8,0.2,0.2,0.8,0.8,0.2,0.4,0.6,,,0.3979,,0.8,0.2,0.6,0.4,0.6,0.4,0.4,0.6,1,0
,,5d585e287d795e001788bf4c,66fc988d7f83fb21ca39aa33,2024-10-02_02h50.22.160,mdp,2024.2.1,Win32,60.60606061,66fa4ebf79326e780c390304,,,,,,,,,,,,,,,,,,,,,1234.5115,1234.5116,1234.5133,1235.4778,0,0,left,0.4339,,1235.4792,1236.3777,0,1,left,1236.3793,1237.261,0,1,left,0,1237.2612,1237.2612,1237.263,1238.761,0,26,26,26,1,0.8,0.2,0.2,0.8,,,,,,,,,,,,,,,0.3645,,0.8,0.2,0.2,0.8,0.8,0.2,0.4,0.6,,,0.3569,,0.8,0.2,0.6,0.4,0.6,0.4,0.4,0.6,1,0
,,5d585e287d795e001788bf4c,66fc988d7f83fb21ca39aa33,2024-10-02_02h50.22.160,mdp,2024.2.1,Win32,60.60606061,66fa4ebf79326e780c390304,,,,,,,,,,,,,,,,,,,,,1238.7615,1238.7616,1238.7631,1239.761,0,0,left,0.4709,,1239.7623,1240.861,0,0,left,1240.8624,1242.011,0,0,left,1,1242.0112,1242.0112,1242.0125,1243.511,0,27,27,27,1,0.8,0.2,0.2,0.8,,,,,,,,,,,,,,,0.5732,,0.8,0.2,0.2,0.8,0.8,0.2,0.4,0.6,,,0.6223,,0.8,0.2,0.6,0.4,0.6,0.4,0.4,0.6,1,0
,,5d585e287d795e001788bf4c,66fc988d7f83fb21ca39aa33,2024-10-02_02h50.22.160,mdp,2024.2.1,Win32,60.60606061,66fa4ebf79326e780c390304,,,,,,,,,,,,,,,,,,,,,1243.5115,1243.5115,1243.5132,1244.4277,0,0,left,0.3913,,1244.4292,1245.3444,1,1,right,1245.3459,1246.1444,0,1,left,0,1246.1444,1246.1444,1246.1459,1247.6443,0,28,28,28,1,0.8,0.2,0.2,0.8,,,,,,,,,,,,,,,0.388,,0.8,0.2,0.2,0.8,0.8,0.2,0.4,0.6,,,0.2684,,0.8,0.2,0.6,0.4,0.6,0.4,0.4,0.6,1,0
,,5d585e287d795e001788bf4c,66fc988d7f83fb21ca39aa33,2024-10-02_02h50.22.160,mdp,2024.2.1,Win32,60.60606061,66fa4ebf79326e780c390304,,,,,,,,,,,,,,,,,,,,,1247.6448,1247.6448,1247.6465,1248.711,0,0,left,0.534,,1248.7125,1249.7112,0,0,left,1249.7126,1250.7277,0,0,left,1,1250.7278,1250.7278,1250.7294,1252.2278,0,29,29,29,1,0.8,0.2,0.2,0.8,,,,,,,,,,,,,,,0.4715,,0.8,0.2,0.2,0.8,0.8,0.2,0.4,0.6,,,0.481,,0.8,0.2,0.6,0.4,0.6,0.4,0.4,0.6,1,0
,,5d585e287d795e001788bf4c,66fc988d7f83fb21ca39aa33,2024-10-02_02h50.22.160,mdp,2024.2.1,Win32,60.60606061,66fa4ebf79326e780c390304,,,,,,,,,,,,,,,,,,,,,1252.2283,1252.2283,1252.2302,1253.2277,0,0,left,0.4746,,1253.2292,1254.2111,1,1,right,1254.2126,1255.1778,0,0,left,1,1255.1779,1255.1779,1255.1793,1256.6776,0,30,30,30,1,0.8,0.2,0.2,0.8,,,,,,,,,,,,,,,0.4508,,0.8,0.2,0.2,0.8,0.8,0.2,0.4,0.6,,,0.4312,,0.8,0.2,0.6,0.4,0.6,0.4,0.4,0.6,1,0
,,5d585e287d795e001788bf4c,66fc988d7f83fb21ca39aa33,2024-10-02_02h50.22.160,mdp,2024.2.1,Win32,60.60606061,66fa4ebf79326e780c390304,,,,,,,,,,,,,,,,,,,,,1256.6782,1256.6782,1256.6799,1257.9111,0,1,left,0.7007,,1257.9125,1259.1444,1,1,right,1259.1455,1260.1111,0,0,left,1,1260.1112,1260.1112,1260.1124,1261.611,0,31,31,31,1,0.8,0.2,0.2,0.8,,,,,,,,,,,,,,,0.6981,,0.8,0.2,0.2,0.8,0.8,0.2,0.4,0.6,,,0.4383,,0.8,0.2,0.6,0.4,0.6,0.4,0.4,0.6,1,0
,,5d585e287d795e001788bf4c,66fc988d7f83fb21ca39aa33,2024-10-02_02h50.22.160,mdp,2024.2.1,Win32,60.60606061,66fa4ebf79326e780c390304,,,,,,,,,,,,,,,,,,,,,1261.6115,1261.6115,1261.6131,1262.4778,0,0,left,0.3392,,1262.4794,1263.3944,1,0,right,1263.3961,1264.3444,0,0,left,1,1264.3445,1264.3445,1264.3458,1265.8443,0,32,32,32,1,0.8,0.2,0.2,0.8,,,,,,,,,,,,,,,0.3819,,0.8,0.2,0.2,0.8,0.8,0.2,0.4,0.6,,,0.4142,,0.8,0.2,0.6,0.4,0.6,0.4,0.4,0.6,1,0
,,5d585e287d795e001788bf4c,66fc988d7f83fb21ca39aa33,2024-10-02_02h50.22.160,mdp,2024.2.1,Win32,60.60606061,66fa4ebf79326e780c390304,,,,,,,,,,,,,,,,,,,,,1265.8447,1265.8447,1265.846,1266.9445,0,0,left,0.5715,,1266.946,1267.8946,1,1,right,1267.897,1269.0278,0,0,left,1,1269.0278,1269.0279,1269.0292,1270.5276,0,33,33,33,1,0.8,0.2,0.2,0.8,,,,,,,,,,,,,,,0.4176,,0.8,0.2,0.2,0.8,0.8,0.2,0.4,0.6,,,0.5971,,0.8,0.2,0.6,0.4,0.6,0.4,0.4,0.6,1,0
,,5d585e287d795e001788bf4c,66fc988d7f83fb21ca39aa33,2024-10-02_02h50.22.160,mdp,2024.2.1,Win32,60.60606061,66fa4ebf79326e780c390304,,,,,,,,,,,,,,,,,,,,,1270.5281,1270.5281,1270.53,1271.5611,0,0,left,0.5173,,1271.5626,1272.5444,1,1,right,1272.5459,1273.5778,0,0,left,1,1273.578,1273.578,1273.5796,1275.0777,0,34,34,34,1,0.8,0.2,0.2,0.8,,,,,,,,,,,,,,,0.4549,,0.8,0.2,0.2,0.8,0.8,0.2,0.4,0.6,,,0.5,,0.8,0.2,0.6,0.4,0.6,0.4,0.4,0.6,1,0
,,5d585e287d795e001788bf4c,66fc988d7f83fb21ca39aa33,2024-10-02_02h50.22.160,mdp,2024.2.1,Win32,60.60606061,66fa4ebf79326e780c390304,,,,,,,,,,,,,,,,,,,,,1275.0782,1275.0782,1275.08,1276.1611,0,0,left,0.5541,,1276.1623,1277.1943,1,1,right,1277.1958,1278.2111,0,0,left,1,1278.2112,1278.2112,1278.2129,1279.711,0,35,35,35,1,0.8,0.2,0.2,0.8,,,,,,,,,,,,,,,0.509,,0.8,0.2,0.2,0.8,0.8,0.2,0.4,0.6,,,0.4841,,0.8,0.2,0.6,0.4,0.6,0.4,0.4,0.6,1,0
,,5d585e287d795e001788bf4c,66fc988d7f83fb21ca39aa33,2024-10-02_02h50.22.160,mdp,2024.2.1,Win32,60.60606061,66fa4ebf79326e780c390304,,,,,,,,,,,,,,,,,,,,,1279.7116,1279.7116,1279.7134,1280.7278,0,0,left,0.4863,,1280.7293,1281.6444,1,1,right,1281.6459,1282.6611,0,0,left,1,1282.6612,1282.6612,1282.6627,1284.161,0,36,36,36,1,0.8,0.2,0.2,0.8,,,,,,,,,,,,,,,0.3905,,0.8,0.2,0.2,0.8,0.4,0.6,0.2,0.8,,,0.4843,,0.8,0.2,0.6,0.4,0.6,0.4,0.4,0.6,1,0
,,5d585e287d795e001788bf4c,66fc988d7f83fb21ca39aa33,2024-10-02_02h50.22.160,mdp,2024.2.1,Win32,60.60606061,66fa4ebf79326e780c390304,,,,,,,,,,,,,,,,,,,,,1284.1615,1284.1615,1284.1633,1285.1778,0,0,left,0.4842,,1285.1793,1285.8777,1,1,right,1285.8792,1286.4778,0,1,left,0,1286.4778,1286.4778,1286.4793,1287.9777,0,37,37,37,1,0.8,0.2,0.2,0.8,,,,,,,,,,,,,,,0.1673,,0.8,0.2,0.2,0.8,0.4,0.6,0.2,0.8,,,0.0726,,0.8,0.2,0.6,0.4,0.6,0.4,0.4,0.6,1,0
,,5d585e287d795e001788bf4c,66fc988d7f83fb21ca39aa33,2024-10-02_02h50.22.160,mdp,2024.2.1,Win32,60.60606061,66fa4ebf79326e780c390304,,,,,,,,,,,,,,,,,,,,,1287.9781,1287.9781,1287.9799,1289.0277,0,0,left,0.5168,,1289.0291,1290.0777,1,0,right,1290.0793,1291.1444,1,0,right,1,1291.1444,1291.1444,1291.1459,1292.6443,0,38,38,38,1,0.8,0.2,0.2,0.8,,,,,,,,,,,,,,,0.5227,,0.8,0.2,0.2,0.8,0.4,0.6,0.2,0.8,,,0.5314,,0.8,0.2,0.6,0.4,0.6,0.4,0.4,0.6,1,0
,,5d585e287d795e001788bf4c,66fc988d7f83fb21ca39aa33,2024-10-02_02h50.22.160,mdp,2024.2.1,Win32,60.60606061,66fa4ebf79326e780c390304,,,,,,,,,,,,,,,,,,,,,1292.6448,1292.6448,1292.6468,1293.7111,0,0,left,0.5385,,1293.7124,1294.7944,1,1,right,1294.7959,1295.8277,1,1,right,0,1295.8277,1295.8277,1295.8293,1297.3277,0,39,39,39,1,0.6,0.4,0.8,0.2,,,,,,,,,,,,,,,0.5508,,0.8,0.2,0.2,0.8,0.4,0.6,0.2,0.8,,,0.4978,,0.8,0.2,0.6,0.4,0.6,0.4,0.4,0.6,1,0
,,5d585e287d795e001788bf4c,66fc988d7f83fb21ca39aa33,2024-10-02_02h50.22.160,mdp,2024.2.1,Win32,60.60606061,66fa4ebf79326e780c390304,,,,,,,,,,,,,,,,,,,,,1297.3282,1297.3282,1297.33,1297.9779,0,0,left,0.1164,,1297.9797,1298.9444,1,1,right,1298.9458,1299.9278,0,0,left,1,1299.9278,1299.9278,1299.9292,1301.4276,0,40,40,40,1,0.6,0.4,0.8,0.2,,,,,,,,,,,,,,,0.4381,,0.8,0.2,0.2,0.8,0.4,0.6,0.2,0.8,,,0.4508,,0.8,0.2,0.6,0.4,0.6,0.4,0.4,0.6,1,0
,,5d585e287d795e001788bf4c,66fc988d7f83fb21ca39aa33,2024-10-02_02h50.22.160,mdp,2024.2.1,Win32,60.60606061,66fa4ebf79326e780c390304,,,,,,,,,,,,,,,,,,,,,1301.4282,1301.4282,1301.4298,1302.411,0,1,left,0.4583,,1302.4128,1303.4944,1,0,right,1303.496,1304.411,1,1,right,0,1304.4111,1304.4111,1304.4125,1305.9109,0,41,41,41,1,0.6,0.4,0.8,0.2,,,,,,,,,,,,,,,0.5475,,0.8,0.2,0.2,0.8,0.8,0.2,0.8,0.2,,,0.389,,0.8,0.2,0.6,0.4,0.6,0.4,0.4,0.6,1,0
,,5d585e287d795e001788bf4c,66fc988d7f83fb21ca39aa33,2024-10-02_02h50.22.160,mdp,2024.2.1,Win32,60.60606061,66fa4ebf79326e780c390304,,,,,,,,,,,,,,,,,,,,,1305.9114,1305.9114,1305.913,1306.7612,0,0,left,0.3173,,1306.7627,1307.7277,0,1,left,1307.7291,1308.6611,0,0,left,1,1308.6612,1308.6612,1308.6626,1310.1609,0,42,42,42,1,0.6,0.4,0.8,0.2,,,,,,,,,,,,,,,0.4352,,0.8,0.2,0.2,0.8,0.8,0.2,0.8,0.2,,,0.398,,0.8,0.2,0.6,0.4,0.6,0.4,0.4,0.6,1,0
,,5d585e287d795e001788bf4c,66fc988d7f83fb21ca39aa33,2024-10-02_02h50.22.160,mdp,2024.2.1,Win32,60.60606061,66fa4ebf79326e780c390304,,,,,,,,,,,,,,,,,,,,,1310.1614,1310.1614,1310.1632,1311.1612,0,0,left,0.4673,,1311.1625,1311.8444,1,1,right,1311.8458,1312.6945,0,1,left,0,1312.6946,1312.6946,1312.6959,1314.1943,0,43,43,43,1,0.6,0.4,0.8,0.2,,,,,,,,,,,,,,,0.1507,,0.8,0.2,0.2,0.8,0.8,0.2,0.8,0.2,,,0.3172,,0.8,0.2,0.6,0.4,0.6,0.4,0.4,0.6,1,0
,,5d585e287d795e001788bf4c,66fc988d7f83fb21ca39aa33,2024-10-02_02h50.22.160,mdp,2024.2.1,Win32,60.60606061,66fa4ebf79326e780c390304,,,,,,,,,,,,,,,,,,,,,1314.1948,1314.1949,1314.1965,1314.8777,0,0,left,0.156,,1314.8793,1315.7611,1,0,right,1315.7626,1316.6944,1,0,right,1,1316.6945,1316.6945,1316.6961,1318.1943,0,44,44,44,1,0.6,0.4,0.8,0.2,,,,,,,,,,,,,,,0.3542,,0.8,0.2,0.2,0.8,0.8,0.2,0.8,0.2,,,0.3974,,0.8,0.2,0.6,0.4,0.6,0.4,0.4,0.6,1,0
,,5d585e287d795e001788bf4c,66fc988d7f83fb21ca39aa33,2024-10-02_02h50.22.160,mdp,2024.2.1,Win32,60.60606061,66fa4ebf79326e780c390304,,,,,,,,,,,,,,,,,,,,,1318.195,1318.195,1318.1972,1319.1278,0,0,left,0.4007,,1319.1294,1320.1444,1,1,right,1320.146,1321.1778,0,0,left,1,1321.1779,1321.1779,1321.1795,1322.6777,0,45,45,45,1,0.6,0.4,0.8,0.2,,,,,,,,,,,,,,,0.488,,0.8,0.2,0.2,0.8,0.8,0.2,0.8,0.2,,,0.4979,,0.8,0.2,0.6,0.4,0.6,0.4,0.4,0.6,1,0
,,5d585e287d795e001788bf4c,66fc988d7f83fb21ca39aa33,2024-10-02_02h50.22.160,mdp,2024.2.1,Win32,60.60606061,66fa4ebf79326e780c390304,,,,,,,,,,,,,,,,,,,,,1322.6781,1322.6781,1322.6799,1323.811,1,0,right,0.6007,,1323.8125,1324.7777,0,0,left,1324.7792,1325.7945,1,1,right,0,1325.7946,1325.7946,1325.7961,1327.2943,0,46,46,46,1,0.6,0.4,0.8,0.2,,,,,,,,,,,,,,,0.4338,,0.8,0.2,0.2,0.8,0.8,0.2,0.8,0.2,,,0.4817,,0.8,0.2,0.6,0.4,0.6,0.4,0.4,0.6,1,0
,,5d585e287d795e001788bf4c,66fc988d7f83fb21ca39aa33,2024-10-02_02h50.22.160,mdp,2024.2.1,Win32,60.60606061,66fa4ebf79326e780c390304,,,,,,,,,,,,,,,,,,,,,1327.2948,1327.2948,1327.2961,1328.2277,0,0,left,0.4005,,1328.2292,1329.1444,0,0,left,1329.1458,1330.0611,0,0,left,1,1330.0612,1330.0612,1330.0624,1331.5609,0,47,47,47,1,0.6,0.4,0.8,0.2,,,,,,,,,,,,,,,0.3842,,0.8,0.2,0.2,0.8,0.8,0.2,0.8,0.2,,,0.3896,,0.8,0.2,0.6,0.4,0.6,0.4,0.4,0.6,1,0
,,5d585e287d795e001788bf4c,66fc988d7f83fb21ca39aa33,2024-10-02_02h50.22.160,mdp,2024.2.1,Win32,60.60606061,66fa4ebf79326e780c390304,,,,,,,,,,,,,,,,,,,,,1331.5615,1331.5615,1331.5631,1332.4444,0,0,left,0.3573,,1332.4458,1333.4945,0,0,left,1333.4958,1334.461,0,0,left,1,1334.4611,1334.4611,1334.4626,1335.961,0,48,48,48,1,0.6,0.4,0.8,0.2,,,,,,,,,,,,,,,0.5172,,0.8,0.2,0.2,0.8,0.8,0.2,0.8,0.2,,,0.4396,,0.8,0.2,0.6,0.4,0.6,0.4,0.4,0.6,1,0
,,5d585e287d795e001788bf4c,66fc988d7f83fb21ca39aa33,2024-10-02_02h50.22.160,mdp,2024.2.1,Win32,60.60606061,66fa4ebf79326e780c390304,,,,,,,,,,,,,,,,,,,,,1335.9615,1335.9615,1335.9635,1336.8944,0,0,left,0.4053,,1336.8959,1337.911,0,0,left,1337.9124,1339.1277,1,1,right,0,1339.1278,1339.1278,1339.1293,1340.6277,0,49,49,49,1,0.6,0.4,0.8,0.2,,,,,,,,,,,,,,,0.484,,0.8,0.2,0.2,0.8,0.8,0.2,0.8,0.2,,,0.684,,0.8,0.2,0.6,0.4,0.6,0.4,0.4,0.6,1,0
,,5d585e287d795e001788bf4c,66fc988d7f83fb21ca39aa33,2024-10-02_02h50.22.160,mdp,2024.2.1,Win32,60.60606061,66fa4ebf79326e780c390304,,,,,,,,,,,,,,,,,,,,,,,,,,,,,,,,,,,,,,,,,,,,,,,,,,,,,,,,1340.6278,1399.1444,0,3,3,0,1,imgs/giraffe.png,imgs/horse.png,imgs/squirrel.png,imgs/bear.png,imgs/rabbit.png,,,,,,,,,,,,,,,,,,,,,,,,
,,5d585e287d795e001788bf4c,66fc988d7f83fb21ca39aa33,2024-10-02_02h50.22.160,mdp,2024.2.1,Win32,60.60606061,66fa4ebf79326e780c390304,,,,,,,,,,,,,,1,seqs/st1seq48.csv,1399.1568,1402.0944,space,2.4225,,1402.0986,1402.0986,1402.0995,1403.811,0,1,left,1.17,,1403.8125,1403.8143,0,1,,1403.8155,1403.816,1,0,,0,1403.816,1403.816,1403.8165,1405.3109,0,0,0,0,1,0.2,0.8,0.8,0.2,1,0,,,,,,,,,,,,,,,,,,,,,,,,,,,,,,,,,,,,
,,5d585e287d795e001788bf4c,66fc988d7f83fb21ca39aa33,2024-10-02_02h50.22.160,mdp,2024.2.1,Win32,60.60606061,66fa4ebf79326e780c390304,,,,,,,,,,,,,,,,,,,,,1405.3115,1405.3115,1405.3132,1406.7777,0,0,left,0.9344,,1406.7791,1406.7809,0,1,,1406.7821,1406.7825,1,1,,1,1406.7826,1406.7826,1406.7831,1408.2776,0,1,1,1,1,0.2,0.8,0.8,0.2,1,0,,,,,,,,,,,,,,,,,,,,,,,,,,,,,,,,,,,,
,,5d585e287d795e001788bf4c,66fc988d7f83fb21ca39aa33,2024-10-02_02h50.22.160,mdp,2024.2.1,Win32,60.60606061,66fa4ebf79326e780c390304,,,,,,,,,,,,,,,,,,,,,1408.278,1408.278,1408.2795,1409.4777,0,0,left,0.6674,,1409.4793,1409.4809,0,0,,1409.4821,1409.4826,1,0,,1,1409.4826,1409.4826,1409.4831,1410.9777,0,2,2,2,1,0.8,0.2,0.6,0.4,1,0,,,,,,,,,,,,,,,,,,,,,,,,,,,,,,,,,,,,
,,5d585e287d795e001788bf4c,66fc988d7f83fb21ca39aa33,2024-10-02_02h50.22.160,mdp,2024.2.1,Win32,60.60606061,66fa4ebf79326e780c390304,,,,,,,,,,,,,,,,,,,,,1410.9782,1410.9782,1410.9798,1411.9943,1,0,right,0.4912,,1411.9958,1411.9973,0,1,,1411.9988,1411.9992,1,1,,1,1411.9992,1411.9992,1411.9997,1413.4944,0,3,3,3,1,0.8,0.2,0.6,0.4,1,0,,,,,,,,,,,,,,,,,,,,,,,,,,,,,,,,,,,,
,,5d585e287d795e001788bf4c,66fc988d7f83fb21ca39aa33,2024-10-02_02h50.22.160,mdp,2024.2.1,Win32,60.60606061,66fa4ebf79326e780c390304,,,,,,,,,,,,,,,,,,,,,1413.4948,1413.4949,1413.4965,1414.5778,0,0,left,0.5522,,1414.5792,1414.5811,0,0,,1414.5821,1414.5827,1,0,,1,1414.5828,1414.5828,1414.5834,1416.0776,0,4,4,4,1,0.8,0.2,0.6,0.4,1,0,,,,,,,,,,,,,,,,,,,,,,,,,,,,,,,,,,,,
,,5d585e287d795e001788bf4c,66fc988d7f83fb21ca39aa33,2024-10-02_02h50.22.160,mdp,2024.2.1,Win32,60.60606061,66fa4ebf79326e780c390304,,,,,,,,,,,,,,,,,,,,,1416.078,1416.078,1416.0797,1417.1444,1,1,right,0.5341,,1417.1459,1417.1477,0,0,,1417.1488,1417.1494,1,0,,0,1417.1495,1417.1495,1417.1502,1418.6443,0,5,5,5,1,0.8,0.2,0.6,0.4,1,0,,,,,,,,,,,,,,,,,,,,,,,,,,,,,,,,,,,,
,,5d585e287d795e001788bf4c,66fc988d7f83fb21ca39aa33,2024-10-02_02h50.22.160,mdp,2024.2.1,Win32,60.60606061,66fa4ebf79326e780c390304,,,,,,,,,,,,,,,,,,,,,1418.6447,1418.6447,1418.6461,1419.6776,1,0,right,0.5058,,1419.679,1419.6806,0,0,,1419.6819,1419.6824,1,0,,1,1419.6824,1419.6824,1419.6828,1421.1776,0,6,6,6,1,0.8,0.2,0.6,0.4,1,0,,,,,,,,,,,,,,,,,,,,,,,,,,,,,,,,,,,,
,,5d585e287d795e001788bf4c,66fc988d7f83fb21ca39aa33,2024-10-02_02h50.22.160,mdp,2024.2.1,Win32,60.60606061,66fa4ebf79326e780c390304,,,,,,,,,,,,,,,,,,,,,1421.178,1421.1781,1421.1798,1422.261,0,0,left,0.551,,1422.2633,1422.2651,0,0,,1422.2658,1422.2665,1,1,,1,1422.2665,1422.2666,1422.2673,1423.7609,0,7,7,7,1,0.8,0.2,0.6,0.4,1,0,,,,,,,,,,,,,,,,,,,,,,,,,,,,,,,,,,,,
,,5d585e287d795e001788bf4c,66fc988d7f83fb21ca39aa33,2024-10-02_02h50.22.160,mdp,2024.2.1,Win32,60.60606061,66fa4ebf79326e780c390304,,,,,,,,,,,,,,,,,,,,,1423.7614,1423.7615,1423.7639,1424.8444,0,0,left,0.5581,,1424.8457,1424.8474,0,1,,1424.8488,1424.8493,1,1,,1,1424.8493,1424.8493,1424.8499,1426.3443,0,8,8,8,1,0.2,0.8,0.8,0.2,1,0,,,,,,,,,,,,,,,,,,,,,,,,,,,,,,,,,,,,
,,5d585e287d795e001788bf4c,66fc988d7f83fb21ca39aa33,2024-10-02_02h50.22.160,mdp,2024.2.1,Win32,60.60606061,66fa4ebf79326e780c390304,,,,,,,,,,,,,,,,,,,,,1426.3447,1426.3447,1426.3463,1427.4944,1,1,right,0.6172,,1427.4957,1427.4974,0,0,,1427.4987,1427.4991,1,0,,0,1427.4992,1427.4992,1427.4998,1428.9943,0,9,9,9,1,0.2,0.8,0.8,0.2,1,0,,,,,,,,,,,,,,,,,,,,,,,,,,,,,,,,,,,,
,,5d585e287d795e001788bf4c,66fc988d7f83fb21ca39aa33,2024-10-02_02h50.22.160,mdp,2024.2.1,Win32,60.60606061,66fa4ebf79326e780c390304,,,,,,,,,,,,,,,,,,,,,1428.9948,1428.9948,1428.9962,1429.9611,1,0,right,0.434,,1429.9627,1429.9643,0,0,,1429.9656,1429.966,1,0,,1,1429.9661,1429.9661,1429.9666,1431.461,0,10,10,10,1,0.2,0.8,0.8,0.2,1,0,,,,,,,,,,,,,,,,,,,,,,,,,,,,,,,,,,,,
,,5d585e287d795e001788bf4c,66fc988d7f83fb21ca39aa33,2024-10-02_02h50.22.160,mdp,2024.2.1,Win32,60.60606061,66fa4ebf79326e780c390304,,,,,,,,,,,,,,,,,,,,,1431.4614,1431.4615,1431.4634,1432.4777,0,1,left,0.4892,,1432.4794,1432.481,0,0,,1432.4822,1432.4827,1,0,,0,1432.4827,1432.4827,1432.4834,1433.9776,0,11,11,11,1,0.8,0.2,0.6,0.4,1,0,,,,,,,,,,,,,,,,,,,,,,,,,,,,,,,,,,,,
,,5d585e287d795e001788bf4c,66fc988d7f83fb21ca39aa33,2024-10-02_02h50.22.160,mdp,2024.2.1,Win32,60.60606061,66fa4ebf79326e780c390304,,,,,,,,,,,,,,,,,,,,,1433.978,1433.9781,1433.9801,1435.0444,0,1,left,0.5337,,1435.0456,1435.0471,0,0,,1435.0485,1435.0491,1,1,,0,1435.0491,1435.0491,1435.0496,1436.5443,0,12,12,12,1,0.8,0.2,0.6,0.4,1,0,,,,,,,,,,,,,,,,,,,,,,,,,,,,,,,,,,,,
,,5d585e287d795e001788bf4c,66fc988d7f83fb21ca39aa33,2024-10-02_02h50.22.160,mdp,2024.2.1,Win32,60.60606061,66fa4ebf79326e780c390304,,,,,,,,,,,,,,,,,,,,,1436.5446,1436.5447,1436.5463,1437.4277,0,0,left,0.3504,,1437.4293,1437.4309,0,1,,1437.4321,1437.4327,1,0,,1,1437.4327,1437.4327,1437.4334,1438.9276,0,13,13,13,1,0.6,0.4,0.8,0.2,1,0,,,,,,,,,,,,,,,,,,,,,,,,,,,,,,,,,,,,
,,5d585e287d795e001788bf4c,66fc988d7f83fb21ca39aa33,2024-10-02_02h50.22.160,mdp,2024.2.1,Win32,60.60606061,66fa4ebf79326e780c390304,,,,,,,,,,,,,,,,,,,,,1438.928,1438.928,1438.9297,1440.1278,0,0,left,0.6718,,1440.1291,1440.1308,0,1,,1440.1321,1440.1326,1,0,,1,1440.1327,1440.1327,1440.1331,1441.6276,0,14,14,14,1,0.6,0.4,0.8,0.2,1,0,,,,,,,,,,,,,,,,,,,,,,,,,,,,,,,,,,,,
,,5d585e287d795e001788bf4c,66fc988d7f83fb21ca39aa33,2024-10-02_02h50.22.160,mdp,2024.2.1,Win32,60.60606061,66fa4ebf79326e780c390304,,,,,,,,,,,,,,,,,,,,,1441.628,1441.628,1441.6298,1442.7111,1,1,right,0.5504,,1442.7128,1442.7145,0,0,,1442.7154,1442.7159,1,0,,0,1442.7159,1442.716,1442.7165,1444.211,0,15,15,15,1,0.8,0.2,0.4,0.6,1,0,,,,,,,,,,,,,,,,,,,,,,,,,,,,,,,,,,,,
,,5d585e287d795e001788bf4c,66fc988d7f83fb21ca39aa33,2024-10-02_02h50.22.160,mdp,2024.2.1,Win32,60.60606061,66fa4ebf79326e780c390304,,,,,,,,,,,,,,,,,,,,,1444.2114,1444.2114,1444.2132,1445.5444,1,1,right,0.8007,,1445.5459,1445.5472,0,0,,1445.5486,1445.5493,1,1,,0,1445.5493,1445.5493,1445.5499,1447.0443,0,16,16,16,1,0.8,0.2,0.4,0.6,1,0,,,,,,,,,,,,,,,,,,,,,,,,,,,,,,,,,,,,
,,5d585e287d795e001788bf4c,66fc988d7f83fb21ca39aa33,2024-10-02_02h50.22.160,mdp,2024.2.1,Win32,60.60606061,66fa4ebf79326e780c390304,,,,,,,,,,,,,,,,,,,,,1447.0447,1447.0447,1447.0466,1448.1443,1,1,right,0.5713,,1448.1458,1448.1476,0,0,,1448.1487,1448.1491,1,0,,0,1448.1491,1448.1491,1448.1498,1449.6442,0,17,17,17,1,0.4,0.6,0.8,0.2,1,0,,,,,,,,,,,,,,,,,,,,,,,,,,,,,,,,,,,,
,,5d585e287d795e001788bf4c,66fc988d7f83fb21ca39aa33,2024-10-02_02h50.22.160,mdp,2024.2.1,Win32,60.60606061,66fa4ebf79326e780c390304,,,,,,,,,,,,,,,,,,,,,1449.6447,1449.6448,1449.6462,1450.711,0,0,left,0.5339,,1450.7127,1450.7143,0,0,,1450.7155,1450.716,1,0,,1,1450.716,1450.716,1450.7164,1452.211,0,18,18,18,1,0.6,0.4,0.4,0.6,1,0,,,,,,,,,,,,,,,,,,,,,,,,,,,,,,,,,,,,
,,5d585e287d795e001788bf4c,66fc988d7f83fb21ca39aa33,2024-10-02_02h50.22.160,mdp,2024.2.1,Win32,60.60606061,66fa4ebf79326e780c390304,,,,,,,,,,,,,,,,,,,,,1452.2115,1452.2115,1452.2132,1453.461,0,0,left,0.7175,,1453.4625,1453.4643,0,0,,1453.4656,1453.4661,1,0,,1,1453.4661,1453.4661,1453.4666,1454.961,0,19,19,19,1,0.6,0.4,0.4,0.6,1,0,,,,,,,,,,,,,,,,,,,,,,,,,,,,,,,,,,,,
,,5d585e287d795e001788bf4c,66fc988d7f83fb21ca39aa33,2024-10-02_02h50.22.160,mdp,2024.2.1,Win32,60.60606061,66fa4ebf79326e780c390304,,,,,,,,,,,,,,,,,,,,,1454.9614,1454.9614,1454.9632,1456.1611,1,1,right,0.6714,,1456.1626,1456.1642,0,1,,1456.1655,1456.1661,1,1,,0,1456.1661,1456.1661,1456.1667,1457.661,0,20,20,20,1,0.6,0.4,0.4,0.6,1,0,,,,,,,,,,,,,,,,,,,,,,,,,,,,,,,,,,,,
,,5d585e287d795e001788bf4c,66fc988d7f83fb21ca39aa33,2024-10-02_02h50.22.160,mdp,2024.2.1,Win32,60.60606061,66fa4ebf79326e780c390304,,,,,,,,,,,,,,,,,,,,,1457.6614,1457.6614,1457.6631,1458.6943,0,0,left,0.5009,,1458.696,1458.6974,0,1,,1458.6991,1458.6997,1,0,,1,1458.6997,1458.6998,1458.7006,1460.1942,0,21,21,21,1,0.6,0.4,0.4,0.6,1,0,,,,,,,,,,,,,,,,,,,,,,,,,,,,,,,,,,,,
,,5d585e287d795e001788bf4c,66fc988d7f83fb21ca39aa33,2024-10-02_02h50.22.160,mdp,2024.2.1,Win32,60.60606061,66fa4ebf79326e780c390304,,,,,,,,,,,,,,,,,,,,,1460.1946,1460.1947,1460.1966,1461.2444,0,0,left,0.5235,,1461.2456,1461.2471,0,0,,1461.2485,1461.2491,1,0,,1,1461.2492,1461.2492,1461.2495,1462.7443,0,22,22,22,1,0.6,0.4,0.4,0.6,1,0,,,,,,,,,,,,,,,,,,,,,,,,,,,,,,,,,,,,
,,5d585e287d795e001788bf4c,66fc988d7f83fb21ca39aa33,2024-10-02_02h50.22.160,mdp,2024.2.1,Win32,60.60606061,66fa4ebf79326e780c390304,,,,,,,,,,,,,,,,,,,,,1462.7446,1462.7447,1462.7463,1464.0443,0,0,left,0.7737,,1464.0464,1464.0487,0,1,,1464.0493,1464.0498,1,0,,1,1464.0498,1464.0498,1464.0503,1465.5442,0,23,23,23,1,0.6,0.4,0.4,0.6,1,0,,,,,,,,,,,,,,,,,,,,,,,,,,,,,,,,,,,,
,,5d585e287d795e001788bf4c,66fc988d7f83fb21ca39aa33,2024-10-02_02h50.22.160,mdp,2024.2.1,Win32,60.60606061,66fa4ebf79326e780c390304,,,,,,,,,,,,,,,,,,,,,1465.5447,1465.5447,1465.5465,1466.6443,0,1,left,0.5672,,1466.6459,1466.6475,0,1,,1466.6488,1466.6493,1,0,,0,1466.6493,1466.6493,1466.6498,1468.1443,0,24,24,24,1,0.6,0.4,0.4,0.6,1,0,,,,,,,,,,,,,,,,,,,,,,,,,,,,,,,,,,,,
,,5d585e287d795e001788bf4c,66fc988d7f83fb21ca39aa33,2024-10-02_02h50.22.160,mdp,2024.2.1,Win32,60.60606061,66fa4ebf79326e780c390304,,,,,,,,,,,,,,,,,,,,,1468.1447,1468.1447,1468.1465,1469.361,0,0,left,0.6874,,1469.3631,1469.3654,0,1,,1469.3661,1469.3667,1,1,,1,1469.3667,1469.3667,1469.3673,1470.8609,0,25,25,25,1,0.6,0.4,0.4,0.6,1,0,,,,,,,,,,,,,,,,,,,,,,,,,,,,,,,,,,,,
,,5d585e287d795e001788bf4c,66fc988d7f83fb21ca39aa33,2024-10-02_02h50.22.160,mdp,2024.2.1,Win32,60.60606061,66fa4ebf79326e780c390304,,,,,,,,,,,,,,,,,,,,,1470.8614,1470.8614,1470.863,1471.9944,0,1,left,0.6006,,1471.9959,1471.9974,0,0,,1471.9985,1471.999,1,0,,0,1471.9991,1471.9991,1471.9997,1473.4943,0,26,26,26,1,0.6,0.4,0.4,0.6,1,0,,,,,,,,,,,,,,,,,,,,,,,,,,,,,,,,,,,,
,,5d585e287d795e001788bf4c,66fc988d7f83fb21ca39aa33,2024-10-02_02h50.22.160,mdp,2024.2.1,Win32,60.60606061,66fa4ebf79326e780c390304,,,,,,,,,,,,,,,,,,,,,1473.4947,1473.4947,1473.4961,1474.511,1,1,right,0.4883,,1474.5125,1474.5143,0,1,,1474.5154,1474.5159,1,1,,0,1474.5159,1474.5159,1474.5164,1476.0109,0,27,27,27,1,0.6,0.4,0.4,0.6,1,0,,,,,,,,,,,,,,,,,,,,,,,,,,,,,,,,,,,,
,,5d585e287d795e001788bf4c,66fc988d7f83fb21ca39aa33,2024-10-02_02h50.22.160,mdp,2024.2.1,Win32,60.60606061,66fa4ebf79326e780c390304,,,,,,,,,,,,,,,,,,,,,1476.0114,1476.0114,1476.0132,1476.9778,0,0,left,0.4358,,1476.9792,1476.981,0,0,,1476.9823,1476.9829,1,1,,1,1476.983,1476.9831,1476.984,1478.4777,0,28,28,28,1,0.6,0.4,0.4,0.6,1,0,,,,,,,,,,,,,,,,,,,,,,,,,,,,,,,,,,,,
,,5d585e287d795e001788bf4c,66fc988d7f83fb21ca39aa33,2024-10-02_02h50.22.160,mdp,2024.2.1,Win32,60.60606061,66fa4ebf79326e780c390304,,,,,,,,,,,,,,,,,,,,,1478.478,1478.4781,1478.4797,1479.5111,0,0,left,0.5005,,1479.5125,1479.5143,0,0,,1479.5155,1479.516,1,0,,1,1479.5161,1479.5161,1479.5168,1481.0109,0,29,29,29,1,0.6,0.4,0.4,0.6,1,0,,,,,,,,,,,,,,,,,,,,,,,,,,,,,,,,,,,,
,,5d585e287d795e001788bf4c,66fc988d7f83fb21ca39aa33,2024-10-02_02h50.22.160,mdp,2024.2.1,Win32,60.60606061,66fa4ebf79326e780c390304,,,,,,,,,,,,,,,,,,,,,1481.0114,1481.0114,1481.0128,1482.061,0,1,left,0.523,,1482.0625,1482.0644,0,0,,1482.0657,1482.0665,1,1,,0,1482.0666,1482.0666,1482.0674,1483.561,0,30,30,30,1,0.6,0.4,0.4,0.6,1,0,,,,,,,,,,,,,,,,,,,,,,,,,,,,,,,,,,,,
,,5d585e287d795e001788bf4c,66fc988d7f83fb21ca39aa33,2024-10-02_02h50.22.160,mdp,2024.2.1,Win32,60.60606061,66fa4ebf79326e780c390304,,,,,,,,,,,,,,,,,,,,,1483.5613,1483.5613,1483.5628,1484.6777,1,1,right,0.5839,,1484.6792,1484.681,0,0,,1484.6819,1484.6824,1,0,,0,1484.6824,1484.6825,1484.683,1486.1776,0,31,31,31,1,0.6,0.4,0.4,0.6,1,0,,,,,,,,,,,,,,,,,,,,,,,,,,,,,,,,,,,,
,,5d585e287d795e001788bf4c,66fc988d7f83fb21ca39aa33,2024-10-02_02h50.22.160,mdp,2024.2.1,Win32,60.60606061,66fa4ebf79326e780c390304,,,,,,,,,,,,,,,,,,,,,1486.178,1486.1781,1486.1794,1487.1943,0,0,left,0.484,,1487.1959,1487.1975,0,0,,1487.1986,1487.1991,1,1,,1,1487.1991,1487.1991,1487.1996,1488.6943,0,32,32,32,1,0.6,0.4,0.4,0.6,1,0,,,,,,,,,,,,,,,,,,,,,,,,,,,,,,,,,,,,
,,5d585e287d795e001788bf4c,66fc988d7f83fb21ca39aa33,2024-10-02_02h50.22.160,mdp,2024.2.1,Win32,60.60606061,66fa4ebf79326e780c390304,,,,,,,,,,,,,,,,,,,,,1488.6947,1488.6947,1488.6963,1489.7777,0,1,left,0.5518,,1489.7792,1489.7806,0,1,,1489.7818,1489.7823,1,1,,0,1489.7824,1489.7824,1489.7828,1491.2777,0,33,33,33,1,0.6,0.4,0.4,0.6,1,0,,,,,,,,,,,,,,,,,,,,,,,,,,,,,,,,,,,,
,,5d585e287d795e001788bf4c,66fc988d7f83fb21ca39aa33,2024-10-02_02h50.22.160,mdp,2024.2.1,Win32,60.60606061,66fa4ebf79326e780c390304,,,,,,,,,,,,,,,,,,,,,1491.2781,1491.2781,1491.2798,1492.3111,0,1,left,0.5006,,1492.3125,1492.3146,0,0,,1492.3155,1492.316,1,0,,0,1492.316,1492.316,1492.3166,1493.811,0,34,34,34,1,0.8,0.2,0.2,0.8,1,0,,,,,,,,,,,,,,,,,,,,,,,,,,,,,,,,,,,,
,,5d585e287d795e001788bf4c,66fc988d7f83fb21ca39aa33,2024-10-02_02h50.22.160,mdp,2024.2.1,Win32,60.60606061,66fa4ebf79326e780c390304,,,,,,,,,,,,,,,,,,,,,1493.8113,1493.8113,1493.8128,1494.811,0,0,left,0.4749,,1494.8125,1494.8141,0,1,,1494.8155,1494.816,1,0,,1,1494.816,1494.816,1494.8166,1496.3109,0,35,35,35,1,0.4,0.6,0.6,0.4,1,0,,,,,,,,,,,,,,,,,,,,,,,,,,,,,,,,,,,,
,,5d585e287d795e001788bf4c,66fc988d7f83fb21ca39aa33,2024-10-02_02h50.22.160,mdp,2024.2.1,Win32,60.60606061,66fa4ebf79326e780c390304,,,,,,,,,,,,,,,,,,,,,1496.3114,1496.3114,1496.3129,1497.3277,0,0,left,0.4886,,1497.3291,1497.3308,0,1,,1497.332,1497.3326,1,1,,1,1497.3327,1497.3327,1497.3334,1498.8276,0,36,36,36,1,0.4,0.6,0.6,0.4,1,0,,,,,,,,,,,,,,,,,,,,,,,,,,,,,,,,,,,,
,,5d585e287d795e001788bf4c,66fc988d7f83fb21ca39aa33,2024-10-02_02h50.22.160,mdp,2024.2.1,Win32,60.60606061,66fa4ebf79326e780c390304,,,,,,,,,,,,,,,,,,,,,1498.8282,1498.8282,1498.8299,1499.9777,0,0,left,0.6173,,1499.979,1499.9806,0,0,,1499.9819,1499.9823,1,0,,1,1499.9823,1499.9823,1499.9828,1501.4776,0,37,37,37,1,0.4,0.6,0.6,0.4,1,0,,,,,,,,,,,,,,,,,,,,,,,,,,,,,,,,,,,,
,,5d585e287d795e001788bf4c,66fc988d7f83fb21ca39aa33,2024-10-02_02h50.22.160,mdp,2024.2.1,Win32,60.60606061,66fa4ebf79326e780c390304,,,,,,,,,,,,,,,,,,,,,1501.4781,1501.4781,1501.4797,1502.6278,1,1,right,0.6171,,1502.6292,1502.6315,0,1,,1502.6324,1502.6328,1,0,,0,1502.6328,1502.6328,1502.6334,1504.1276,0,38,38,38,1,0.4,0.6,0.6,0.4,1,0,,,,,,,,,,,,,,,,,,,,,,,,,,,,,,,,,,,,
,,5d585e287d795e001788bf4c,66fc988d7f83fb21ca39aa33,2024-10-02_02h50.22.160,mdp,2024.2.1,Win32,60.60606061,66fa4ebf79326e780c390304,,,,,,,,,,,,,,,,,,,,,1504.1281,1504.1281,1504.1298,1505.111,0,1,left,0.4503,,1505.1123,1505.1138,0,1,,1505.1152,1505.1156,1,0,,0,1505.1157,1505.1157,1505.1162,1506.6109,0,39,39,39,1,0.4,0.6,0.6,0.4,1,0,,,,,,,,,,,,,,,,,,,,,,,,,,,,,,,,,,,,
