init_exp.started,init_exp.stopped,participant,session,date,expName,psychopyVersion,OS,frameRate,study_id,disp_instruction.started,disp_instruction.stopped,instruction.thisRepN,instruction.thisTrialN,instruction.thisN,instruction.thisIndex,instruction.ran,instimg_path,consent.started,consent.stopped,key_resp_3.keys,key_resp_3.rt,key_resp_3.duration,n_steps,sequence_path,init_block.started,init_block.stopped,key_resp.keys,key_resp.rt,key_resp.duration,init_trials.started,init_trials.stopped,step0.started,step0.stopped,act0,s1,res0.keys,res0.rt,res0.duration,step1.started,step1.stopped,act1,s2,res1.keys,step2.started,step2.stopped,act2,s3,res2.keys,rew,reward_comp.started,reward_comp.stopped,reward_disp.started,reward_disp.stopped,trials.thisRepN,trials.thisTrialN,trials.thisN,trials.thisIndex,trials.ran,s00a0s10,s00a0s11,s00a1s10,s00a1s11,rew10,rew11,break_block.started,break_block.stopped,block.thisRepN,block.thisTrialN,block.thisN,block.thisIndex,block.ran,s00path,s10path,s11path,s20path,s21path,res1.rt,res1.duration,s10a0s20,s10a0s21,s10a1s20,s10a1s21,s11a0s20,s11a0s21,s11a1s20,s11a1s21,rew20,rew21,res2.rt,res2.duration,s20a0s30,s20a0s31,s20a1s30,s20a1s31,s21a0s30,s21a0s31,s21a1s30,s21a1s31,rew30,rew31
0.0002,0.0018,5d612ae16512d700159face7,66fcb7b68087b127146101ac,2024-10-01_23h08.25.835,mdp,2024.2.1,Win32,59.88023952,66fa4ebf79326e780c390304,,,,,,,,,,,,,,,,,,,,,,,,,,,,,,,,,,,,,,,,,,,,,,,,,,,,,,,,,,,,,,,,,,,,,,,,,,,,,,,,,,,,,,,,,,,
,,5d612ae16512d700159face7,66fcb7b68087b127146101ac,2024-10-01_23h08.25.835,mdp,2024.2.1,Win32,59.88023952,66fa4ebf79326e780c390304,0.0067,185.0658,0,0,0,0,1,rlnn_exp/rlnn_exp.001.png,,,,,,,,,,,,,,,,,,,,,,,,,,,,,,,,,,,,,,,,,,,,,,,,,,,,,,,,,,,,,,,,,,,,,,,,,,,,,,,,,,,
,,5d612ae16512d700159face7,66fcb7b68087b127146101ac,2024-10-01_23h08.25.835,mdp,2024.2.1,Win32,59.88023952,66fa4ebf79326e780c390304,185.0671,225.0043,0,1,1,1,1,rlnn_exp/rlnn_exp.002.png,,,,,,,,,,,,,,,,,,,,,,,,,,,,,,,,,,,,,,,,,,,,,,,,,,,,,,,,,,,,,,,,,,,,,,,,,,,,,,,,,,,
,,5d612ae16512d700159face7,66fcb7b68087b127146101ac,2024-10-01_23h08.25.835,mdp,2024.2.1,Win32,59.88023952,66fa4ebf79326e780c390304,225.0058,236.4558,0,2,2,2,1,rlnn_exp/rlnn_exp.003.png,,,,,,,,,,,,,,,,,,,,,,,,,,,,,,,,,,,,,,,,,,,,,,,,,,,,,,,,,,,,,,,,,,,,,,,,,,,,,,,,,,,
,,5d612ae16512d700159face7,66fcb7b68087b127146101ac,2024-10-01_23h08.25.835,mdp,2024.2.1,Win32,59.88023952,66fa4ebf79326e780c390304,236.4572,267.9766,0,3,3,3,1,rlnn_exp/rlnn_exp.004.png,,,,,,,,,,,,,,,,,,,,,,,,,,,,,,,,,,,,,,,,,,,,,,,,,,,,,,,,,,,,,,,,,,,,,,,,,,,,,,,,,,,
,,5d612ae16512d700159face7,66fcb7b68087b127146101ac,2024-10-01_23h08.25.835,mdp,2024.2.1,Win32,59.88023952,66fa4ebf79326e780c390304,,,,,,,,,267.9773,289.2632,y,11.2475,,,,,,,,,,,,,,,,,,,,,,,,,,,,,,,,,,,,,,,,,,,,,,,,,,,,,,,,,,,,,,,,,,,,,,,,,,,,,,,
,,5d612ae16512d700159face7,66fcb7b68087b127146101ac,2024-10-01_23h08.25.835,mdp,2024.2.1,Win32,59.88023952,66fa4ebf79326e780c390304,,,,,,,,,,,,,,1,seqs/st1seq3.csv,289.2703,292.1972,space,2.4051,,292.2036,292.2038,292.2043,295.3304,1,0,right,2.5898,,295.3312,295.3342,,0,,295.3348,295.3369,,1,,1,295.3371,295.3372,295.3376,296.8304,0,0,0,0,1,0.6,0.4,0.6,0.4,1,0,,,,,,,,,,,,,,,,,,,,,,,,,,,,,,,,,,,,
,,5d612ae16512d700159face7,66fcb7b68087b127146101ac,2024-10-01_23h08.25.835,mdp,2024.2.1,Win32,59.88023952,66fa4ebf79326e780c390304,,,,,,,,,,,,,,,,,,,,,296.8312,296.8312,296.8329,298.664,1,0,right,1.297,,298.6656,298.667,,1,,298.6684,298.6693,,1,,1,298.6694,298.6694,298.6701,300.164,0,1,1,1,1,0.6,0.4,0.6,0.4,1,0,,,,,,,,,,,,,,,,,,,,,,,,,,,,,,,,,,,,
,,5d612ae16512d700159face7,66fcb7b68087b127146101ac,2024-10-01_23h08.25.835,mdp,2024.2.1,Win32,59.88023952,66fa4ebf79326e780c390304,,,,,,,,,,,,,,,,,,,,,300.1645,300.1645,300.1665,302.0146,1,0,right,1.3157,,302.0164,302.0178,,0,,302.0189,302.0196,,1,,1,302.0196,302.0196,302.0201,303.5142,0,2,2,2,1,0.6,0.4,0.6,0.4,1,0,,,,,,,,,,,,,,,,,,,,,,,,,,,,,,,,,,,,
,,5d612ae16512d700159face7,66fcb7b68087b127146101ac,2024-10-01_23h08.25.835,mdp,2024.2.1,Win32,59.88023952,66fa4ebf79326e780c390304,,,,,,,,,,,,,,,,,,,,,303.5149,303.5149,303.5167,305.0814,1,0,right,1.0319,,305.083,305.0839,,0,,305.0848,305.0854,,0,,1,305.0855,305.0855,305.0861,306.5814,0,3,3,3,1,0.6,0.4,0.6,0.4,1,0,,,,,,,,,,,,,,,,,,,,,,,,,,,,,,,,,,,,
,,5d612ae16512d700159face7,66fcb7b68087b127146101ac,2024-10-01_23h08.25.835,mdp,2024.2.1,Win32,59.88023952,66fa4ebf79326e780c390304,,,,,,,,,,,,,,,,,,,,,306.5821,306.5821,306.5837,307.9152,1,1,right,0.8004,,307.9166,307.9176,,0,,307.9187,307.9196,,1,,0,307.9197,307.9197,307.9204,309.4153,0,4,4,4,1,0.6,0.4,0.6,0.4,1,0,,,,,,,,,,,,,,,,,,,,,,,,,,,,,,,,,,,,
,,5d612ae16512d700159face7,66fcb7b68087b127146101ac,2024-10-01_23h08.25.835,mdp,2024.2.1,Win32,59.88023952,66fa4ebf79326e780c390304,,,,,,,,,,,,,,,,,,,,,309.4159,309.4159,309.4185,313.0828,0,0,left,3.139,,313.085,313.0861,,0,,313.0873,313.0884,,0,,1,313.0884,313.0885,313.0896,314.583,0,5,5,5,1,0.8,0.2,0.2,0.8,1,0,,,,,,,,,,,,,,,,,,,,,,,,,,,,,,,,,,,,
,,5d612ae16512d700159face7,66fcb7b68087b127146101ac,2024-10-01_23h08.25.835,mdp,2024.2.1,Win32,59.88023952,66fa4ebf79326e780c390304,,,,,,,,,,,,,,,,,,,,,314.5838,314.5839,314.5861,315.8662,0,0,left,0.7458,,315.8677,315.8687,,1,,315.87,315.8708,,0,,1,315.871,315.871,315.8717,317.3663,0,6,6,6,1,0.8,0.2,0.2,0.8,1,0,,,,,,,,,,,,,,,,,,,,,,,,,,,,,,,,,,,,
,,5d612ae16512d700159face7,66fcb7b68087b127146101ac,2024-10-01_23h08.25.835,mdp,2024.2.1,Win32,59.88023952,66fa4ebf79326e780c390304,,,,,,,,,,,,,,,,,,,,,317.3668,317.3669,317.3687,318.4665,0,0,left,0.5659,,318.4683,318.4692,,0,,318.4703,318.4711,,0,,1,318.4712,318.4712,318.472,319.9666,0,7,7,7,1,0.8,0.2,0.2,0.8,1,0,,,,,,,,,,,,,,,,,,,,,,,,,,,,,,,,,,,,
,,5d612ae16512d700159face7,66fcb7b68087b127146101ac,2024-10-01_23h08.25.835,mdp,2024.2.1,Win32,59.88023952,66fa4ebf79326e780c390304,,,,,,,,,,,,,,,,,,,,,319.9671,319.9672,319.969,321.1336,0,0,left,0.6404,,321.1354,321.1364,,0,,321.1373,321.1379,,0,,1,321.138,321.138,321.1387,322.6336,0,8,8,8,1,0.8,0.2,0.2,0.8,1,0,,,,,,,,,,,,,,,,,,,,,,,,,,,,,,,,,,,,
,,5d612ae16512d700159face7,66fcb7b68087b127146101ac,2024-10-01_23h08.25.835,mdp,2024.2.1,Win32,59.88023952,66fa4ebf79326e780c390304,,,,,,,,,,,,,,,,,,,,,322.6341,322.6342,322.6357,323.8172,0,0,left,0.6495,,323.8187,323.8197,,1,,323.8206,323.8218,,1,,1,323.8219,323.8219,323.8228,325.3174,0,9,9,9,1,0.8,0.2,0.2,0.8,1,0,,,,,,,,,,,,,,,,,,,,,,,,,,,,,,,,,,,,
,,5d612ae16512d700159face7,66fcb7b68087b127146101ac,2024-10-01_23h08.25.835,mdp,2024.2.1,Win32,59.88023952,66fa4ebf79326e780c390304,,,,,,,,,,,,,,,,,,,,,325.3182,325.3182,325.3202,326.1845,0,0,left,0.338,,326.1864,326.1873,,1,,326.1885,326.1895,,0,,1,326.1896,326.1896,326.1908,327.6843,0,10,10,10,1,0.8,0.2,0.2,0.8,1,0,,,,,,,,,,,,,,,,,,,,,,,,,,,,,,,,,,,,
,,5d612ae16512d700159face7,66fcb7b68087b127146101ac,2024-10-01_23h08.25.835,mdp,2024.2.1,Win32,59.88023952,66fa4ebf79326e780c390304,,,,,,,,,,,,,,,,,,,,,327.6848,327.6849,327.6863,328.768,0,0,left,0.5522,,328.7695,328.7703,,0,,328.771,328.7715,,1,,1,328.7715,328.7715,328.772,330.2684,0,11,11,11,1,0.8,0.2,0.2,0.8,1,0,,,,,,,,,,,,,,,,,,,,,,,,,,,,,,,,,,,,
,,5d612ae16512d700159face7,66fcb7b68087b127146101ac,2024-10-01_23h08.25.835,mdp,2024.2.1,Win32,59.88023952,66fa4ebf79326e780c390304,,,,,,,,,,,,,,,,,,,,,330.269,330.2691,330.2706,331.5517,0,0,left,0.754,,331.5532,331.5541,,1,,331.5549,331.5556,,0,,1,331.5557,331.5557,331.5562,333.0517,0,12,12,12,1,0.4,0.6,0.8,0.2,1,0,,,,,,,,,,,,,,,,,,,,,,,,,,,,,,,,,,,,
,,5d612ae16512d700159face7,66fcb7b68087b127146101ac,2024-10-01_23h08.25.835,mdp,2024.2.1,Win32,59.88023952,66fa4ebf79326e780c390304,,,,,,,,,,,,,,,,,,,,,333.0523,333.0523,333.0538,334.502,0,1,left,0.9262,,334.5036,334.5046,,0,,334.5058,334.5066,,1,,0,334.5066,334.5066,334.5073,336.002,0,13,13,13,1,0.4,0.6,0.8,0.2,1,0,,,,,,,,,,,,,,,,,,,,,,,,,,,,,,,,,,,,
,,5d612ae16512d700159face7,66fcb7b68087b127146101ac,2024-10-01_23h08.25.835,mdp,2024.2.1,Win32,59.88023952,66fa4ebf79326e780c390304,,,,,,,,,,,,,,,,,,,,,336.0026,336.0026,336.0039,336.8861,1,0,right,0.3503,,336.8877,336.8886,,0,,336.8892,336.8897,,0,,1,336.8897,336.8897,336.8902,338.3857,0,14,14,14,1,0.4,0.6,0.8,0.2,1,0,,,,,,,,,,,,,,,,,,,,,,,,,,,,,,,,,,,,
,,5d612ae16512d700159face7,66fcb7b68087b127146101ac,2024-10-01_23h08.25.835,mdp,2024.2.1,Win32,59.88023952,66fa4ebf79326e780c390304,,,,,,,,,,,,,,,,,,,,,338.3863,338.3863,338.3878,339.6033,1,1,right,0.6882,,339.6051,339.6062,,1,,339.6072,339.6081,,1,,0,339.6083,339.6083,339.6089,341.1033,0,15,15,15,1,0.6,0.4,0.2,0.8,1,0,,,,,,,,,,,,,,,,,,,,,,,,,,,,,,,,,,,,
,,5d612ae16512d700159face7,66fcb7b68087b127146101ac,2024-10-01_23h08.25.835,mdp,2024.2.1,Win32,59.88023952,66fa4ebf79326e780c390304,,,,,,,,,,,,,,,,,,,,,341.1039,341.1039,341.1058,342.3698,0,1,left,0.7435,,342.3715,342.3726,,0,,342.3739,342.375,,0,,0,342.375,342.375,342.3761,343.8698,0,16,16,16,1,0.6,0.4,0.2,0.8,1,0,,,,,,,,,,,,,,,,,,,,,,,,,,,,,,,,,,,,
,,5d612ae16512d700159face7,66fcb7b68087b127146101ac,2024-10-01_23h08.25.835,mdp,2024.2.1,Win32,59.88023952,66fa4ebf79326e780c390304,,,,,,,,,,,,,,,,,,,,,343.8703,343.8704,343.8718,344.7201,0,1,left,0.323,,344.7216,344.7225,,0,,344.7233,344.7239,,1,,0,344.724,344.724,344.7247,346.2205,0,17,17,17,1,0.6,0.4,0.2,0.8,1,0,,,,,,,,,,,,,,,,,,,,,,,,,,,,,,,,,,,,
,,5d612ae16512d700159face7,66fcb7b68087b127146101ac,2024-10-01_23h08.25.835,mdp,2024.2.1,Win32,59.88023952,66fa4ebf79326e780c390304,,,,,,,,,,,,,,,,,,,,,346.221,346.221,346.2229,346.7538,1,1,right,0.0014,,346.7554,346.7564,,1,,346.7575,346.7582,,1,,0,346.7582,346.7582,346.7596,348.2538,0,18,18,18,1,0.6,0.4,0.2,0.8,1,0,,,,,,,,,,,,,,,,,,,,,,,,,,,,,,,,,,,,
,,5d612ae16512d700159face7,66fcb7b68087b127146101ac,2024-10-01_23h08.25.835,mdp,2024.2.1,Win32,59.88023952,66fa4ebf79326e780c390304,,,,,,,,,,,,,,,,,,,,,348.2544,348.2544,348.2561,350.004,1,0,right,1.2213,,350.0058,350.0067,,1,,350.008,350.0086,,0,,1,350.0087,350.0087,350.0093,351.5042,0,19,19,19,1,0.6,0.4,0.2,0.8,1,0,,,,,,,,,,,,,,,,,,,,,,,,,,,,,,,,,,,,
,,5d612ae16512d700159face7,66fcb7b68087b127146101ac,2024-10-01_23h08.25.835,mdp,2024.2.1,Win32,59.88023952,66fa4ebf79326e780c390304,,,,,,,,,,,,,,,,,,,,,351.5048,351.5048,351.5063,352.7213,1,1,right,0.6853,,352.7227,352.7237,,1,,352.7247,352.7253,,0,,0,352.7254,352.7254,352.7259,354.2213,0,20,20,20,1,0.6,0.4,0.2,0.8,1,0,,,,,,,,,,,,,,,,,,,,,,,,,,,,,,,,,,,,
,,5d612ae16512d700159face7,66fcb7b68087b127146101ac,2024-10-01_23h08.25.835,mdp,2024.2.1,Win32,59.88023952,66fa4ebf79326e780c390304,,,,,,,,,,,,,,,,,,,,,354.2217,354.2217,354.2232,355.3216,1,1,right,0.5648,,355.3233,355.324,,1,,355.3248,355.3254,,1,,0,355.3255,355.3255,355.326,356.822,0,21,21,21,1,0.6,0.4,0.2,0.8,1,0,,,,,,,,,,,,,,,,,,,,,,,,,,,,,,,,,,,,
,,5d612ae16512d700159face7,66fcb7b68087b127146101ac,2024-10-01_23h08.25.835,mdp,2024.2.1,Win32,59.88023952,66fa4ebf79326e780c390304,,,,,,,,,,,,,,,,,,,,,356.8226,356.8226,356.8244,357.7225,1,1,right,0.3707,,357.7248,357.7257,,1,,357.7267,357.7276,,0,,0,357.7276,357.7276,357.7283,359.222,0,22,22,22,1,0.6,0.4,0.2,0.8,1,0,,,,,,,,,,,,,,,,,,,,,,,,,,,,,,,,,,,,
,,5d612ae16512d700159face7,66fcb7b68087b127146101ac,2024-10-01_23h08.25.835,mdp,2024.2.1,Win32,59.88023952,66fa4ebf79326e780c390304,,,,,,,,,,,,,,,,,,,,,359.2225,359.2225,359.224,359.9558,0,0,left,0.2012,,359.9583,359.9593,,1,,359.9602,359.9611,,1,,1,359.9611,359.9611,359.9619,361.4555,0,23,23,23,1,0.6,0.4,0.2,0.8,1,0,,,,,,,,,,,,,,,,,,,,,,,,,,,,,,,,,,,,
,,5d612ae16512d700159face7,66fcb7b68087b127146101ac,2024-10-01_23h08.25.835,mdp,2024.2.1,Win32,59.88023952,66fa4ebf79326e780c390304,,,,,,,,,,,,,,,,,,,,,361.4561,361.4561,361.4575,362.6392,0,1,left,0.647,,362.6407,362.6417,,0,,362.6429,362.6438,,0,,0,362.6439,362.6439,362.6448,364.1392,0,24,24,24,1,0.6,0.4,0.2,0.8,1,0,,,,,,,,,,,,,,,,,,,,,,,,,,,,,,,,,,,,
,,5d612ae16512d700159face7,66fcb7b68087b127146101ac,2024-10-01_23h08.25.835,mdp,2024.2.1,Win32,59.88023952,66fa4ebf79326e780c390304,,,,,,,,,,,,,,,,,,,,,364.1397,364.1398,364.1411,364.8396,1,1,right,0.1678,,364.8411,364.8422,,1,,364.8435,364.8445,,0,,0,364.8446,364.8446,364.8454,366.3396,0,25,25,25,1,0.8,0.2,0.4,0.6,1,0,,,,,,,,,,,,,,,,,,,,,,,,,,,,,,,,,,,,
,,5d612ae16512d700159face7,66fcb7b68087b127146101ac,2024-10-01_23h08.25.835,mdp,2024.2.1,Win32,59.88023952,66fa4ebf79326e780c390304,,,,,,,,,,,,,,,,,,,,,366.34,366.34,366.3416,367.1399,0,0,left,0.2674,,367.1414,367.1424,,0,,367.1438,367.1448,,0,,1,367.1448,367.1448,367.1457,368.6402,0,26,26,26,1,0.8,0.2,0.4,0.6,1,0,,,,,,,,,,,,,,,,,,,,,,,,,,,,,,,,,,,,
,,5d612ae16512d700159face7,66fcb7b68087b127146101ac,2024-10-01_23h08.25.835,mdp,2024.2.1,Win32,59.88023952,66fa4ebf79326e780c390304,,,,,,,,,,,,,,,,,,,,,368.6411,368.6411,368.6429,370.0403,1,0,right,0.867,,370.0419,370.0429,,0,,370.044,370.0448,,0,,1,370.0449,370.0449,370.0456,371.5407,0,27,27,27,1,0.8,0.2,0.4,0.6,1,0,,,,,,,,,,,,,,,,,,,,,,,,,,,,,,,,,,,,
,,5d612ae16512d700159face7,66fcb7b68087b127146101ac,2024-10-01_23h08.25.835,mdp,2024.2.1,Win32,59.88023952,66fa4ebf79326e780c390304,,,,,,,,,,,,,,,,,,,,,371.5413,371.5413,371.5432,372.7238,0,0,left,0.6491,,372.7254,372.7264,,1,,372.7271,372.7278,,0,,1,372.7278,372.7278,372.7284,374.2239,0,28,28,28,1,0.8,0.2,0.4,0.6,1,0,,,,,,,,,,,,,,,,,,,,,,,,,,,,,,,,,,,,
,,5d612ae16512d700159face7,66fcb7b68087b127146101ac,2024-10-01_23h08.25.835,mdp,2024.2.1,Win32,59.88023952,66fa4ebf79326e780c390304,,,,,,,,,,,,,,,,,,,,,374.2245,374.2245,374.2259,375.4248,1,0,right,0.6709,,375.427,375.4284,,0,,375.4294,375.4303,,1,,1,375.4305,375.4305,375.4312,376.9244,0,29,29,29,1,0.8,0.2,0.4,0.6,1,0,,,,,,,,,,,,,,,,,,,,,,,,,,,,,,,,,,,,
,,5d612ae16512d700159face7,66fcb7b68087b127146101ac,2024-10-01_23h08.25.835,mdp,2024.2.1,Win32,59.88023952,66fa4ebf79326e780c390304,,,,,,,,,,,,,,,,,,,,,376.925,376.925,376.9264,378.1082,0,1,left,0.6479,,378.1097,378.1106,,0,,378.1113,378.1118,,1,,0,378.1119,378.1119,378.1127,379.6081,0,30,30,30,1,0.4,0.6,0.8,0.2,1,0,,,,,,,,,,,,,,,,,,,,,,,,,,,,,,,,,,,,
,,5d612ae16512d700159face7,66fcb7b68087b127146101ac,2024-10-01_23h08.25.835,mdp,2024.2.1,Win32,59.88023952,66fa4ebf79326e780c390304,,,,,,,,,,,,,,,,,,,,,379.6086,379.6086,379.6101,380.3255,1,0,right,0.1852,,380.3277,380.3286,,0,,380.3298,380.3307,,0,,1,380.3308,380.3308,380.3315,381.825,0,31,31,31,1,0.4,0.6,0.8,0.2,1,0,,,,,,,,,,,,,,,,,,,,,,,,,,,,,,,,,,,,
,,5d612ae16512d700159face7,66fcb7b68087b127146101ac,2024-10-01_23h08.25.835,mdp,2024.2.1,Win32,59.88023952,66fa4ebf79326e780c390304,,,,,,,,,,,,,,,,,,,,,381.8255,381.8256,381.8272,383.1257,1,1,right,0.7723,,383.1275,383.1284,,0,,383.1295,383.1305,,0,,0,383.1306,383.1306,383.1314,384.626,0,32,32,32,1,0.4,0.6,0.8,0.2,1,0,,,,,,,,,,,,,,,,,,,,,,,,,,,,,,,,,,,,
,,5d612ae16512d700159face7,66fcb7b68087b127146101ac,2024-10-01_23h08.25.835,mdp,2024.2.1,Win32,59.88023952,66fa4ebf79326e780c390304,,,,,,,,,,,,,,,,,,,,,384.6266,384.6267,384.6284,385.3757,0,1,left,0.2172,,385.3772,385.3782,,0,,385.3795,385.3804,,1,,0,385.3804,385.3804,385.3813,386.8757,0,33,33,33,1,0.4,0.6,0.8,0.2,1,0,,,,,,,,,,,,,,,,,,,,,,,,,,,,,,,,,,,,
,,5d612ae16512d700159face7,66fcb7b68087b127146101ac,2024-10-01_23h08.25.835,mdp,2024.2.1,Win32,59.88023952,66fa4ebf79326e780c390304,,,,,,,,,,,,,,,,,,,,,386.8762,386.8763,386.8776,388.0426,0,0,left,0.6296,,388.0443,388.0453,,0,,388.0461,388.0466,,1,,1,388.0466,388.0466,388.0472,389.5428,0,34,34,34,1,0.4,0.6,0.8,0.2,1,0,,,,,,,,,,,,,,,,,,,,,,,,,,,,,,,,,,,,
,,5d612ae16512d700159face7,66fcb7b68087b127146101ac,2024-10-01_23h08.25.835,mdp,2024.2.1,Win32,59.88023952,66fa4ebf79326e780c390304,,,,,,,,,,,,,,,,,,,,,389.5433,389.5433,389.5448,390.7098,1,1,right,0.638,,390.7113,390.7122,,1,,390.7128,390.7136,,1,,0,390.7137,390.7137,390.7144,392.2097,0,35,35,35,1,0.4,0.6,0.8,0.2,1,0,,,,,,,,,,,,,,,,,,,,,,,,,,,,,,,,,,,,
,,5d612ae16512d700159face7,66fcb7b68087b127146101ac,2024-10-01_23h08.25.835,mdp,2024.2.1,Win32,59.88023952,66fa4ebf79326e780c390304,,,,,,,,,,,,,,,,,,,,,392.2103,392.2103,392.2122,392.9934,0,0,left,0.2486,,392.995,392.9962,,0,,392.9975,392.9983,,0,,1,392.9984,392.9984,392.9989,394.4937,0,36,36,36,1,0.4,0.6,0.8,0.2,1,0,,,,,,,,,,,,,,,,,,,,,,,,,,,,,,,,,,,,
,,5d612ae16512d700159face7,66fcb7b68087b127146101ac,2024-10-01_23h08.25.835,mdp,2024.2.1,Win32,59.88023952,66fa4ebf79326e780c390304,,,,,,,,,,,,,,,,,,,,,394.4943,394.4943,394.496,395.7607,0,1,left,0.7378,,395.7623,395.7635,,0,,395.7647,395.7654,,1,,0,395.7655,395.7655,395.7661,397.2607,0,37,37,37,1,0.4,0.6,0.8,0.2,1,0,,,,,,,,,,,,,,,,,,,,,,,,,,,,,,,,,,,,
,,5d612ae16512d700159face7,66fcb7b68087b127146101ac,2024-10-01_23h08.25.835,mdp,2024.2.1,Win32,59.88023952,66fa4ebf79326e780c390304,,,,,,,,,,,,,,,,,,,,,397.2613,397.2613,397.2629,398.6275,1,0,right,0.8379,,398.6292,398.6301,,0,,398.6318,398.6326,,1,,1,398.6326,398.6326,398.6334,400.1279,0,38,38,38,1,0.4,0.6,0.8,0.2,1,0,,,,,,,,,,,,,,,,,,,,,,,,,,,,,,,,,,,,
,,5d612ae16512d700159face7,66fcb7b68087b127146101ac,2024-10-01_23h08.25.835,mdp,2024.2.1,Win32,59.88023952,66fa4ebf79326e780c390304,,,,,,,,,,,,,,,,,,,,,400.1286,400.1286,400.1303,401.4282,1,1,right,0.7692,,401.43,401.4314,,0,,401.4328,401.4334,,1,,0,401.4335,401.4335,401.4341,402.9281,0,39,39,39,1,0.8,0.2,0.6,0.4,1,0,,,,,,,,,,,,,,,,,,,,,,,,,,,,,,,,,,,,
,,5d612ae16512d700159face7,66fcb7b68087b127146101ac,2024-10-01_23h08.25.835,mdp,2024.2.1,Win32,59.88023952,66fa4ebf79326e780c390304,,,,,,,,,,,,,,,,,,,,,402.9287,402.9288,402.9321,404.195,0,0,left,0.7323,,404.1964,404.1973,,0,,404.198,404.1988,,0,,1,404.1988,404.1989,404.1995,405.695,0,40,40,40,1,0.8,0.2,0.6,0.4,1,0,,,,,,,,,,,,,,,,,,,,,,,,,,,,,,,,,,,,
,,5d612ae16512d700159face7,66fcb7b68087b127146101ac,2024-10-01_23h08.25.835,mdp,2024.2.1,Win32,59.88023952,66fa4ebf79326e780c390304,,,,,,,,,,,,,,,,,,,,,405.6955,405.6955,405.6969,407.712,0,1,left,1.4916,,407.7135,407.7146,,1,,407.7155,407.7166,,0,,0,407.7167,407.7167,407.7174,409.212,0,41,41,41,1,0.8,0.2,0.6,0.4,1,0,,,,,,,,,,,,,,,,,,,,,,,,,,,,,,,,,,,,
,,5d612ae16512d700159face7,66fcb7b68087b127146101ac,2024-10-01_23h08.25.835,mdp,2024.2.1,Win32,59.88023952,66fa4ebf79326e780c390304,,,,,,,,,,,,,,,,,,,,,409.2125,409.2126,409.214,409.9291,1,1,right,0.1825,,409.9309,409.9323,,1,,409.9335,409.9342,,0,,0,409.9342,409.9342,409.935,411.4291,0,42,42,42,1,0.6,0.4,0.4,0.6,1,0,,,,,,,,,,,,,,,,,,,,,,,,,,,,,,,,,,,,
,,5d612ae16512d700159face7,66fcb7b68087b127146101ac,2024-10-01_23h08.25.835,mdp,2024.2.1,Win32,59.88023952,66fa4ebf79326e780c390304,,,,,,,,,,,,,,,,,,,,,411.4297,411.4297,411.4313,412.5128,0,0,left,0.5519,,412.5142,412.5153,,1,,412.5165,412.5174,,1,,1,412.5174,412.5174,412.5182,414.0128,0,43,43,43,1,0.6,0.4,0.4,0.6,1,0,,,,,,,,,,,,,,,,,,,,,,,,,,,,,,,,,,,,
,,5d612ae16512d700159face7,66fcb7b68087b127146101ac,2024-10-01_23h08.25.835,mdp,2024.2.1,Win32,59.88023952,66fa4ebf79326e780c390304,,,,,,,,,,,,,,,,,,,,,414.0134,414.0134,414.0153,415.3134,1,0,right,0.7671,,415.3152,415.3163,,1,,415.3173,415.3182,,0,,1,415.3183,415.3183,415.3191,416.8135,0,44,44,44,1,0.6,0.4,0.4,0.6,1,0,,,,,,,,,,,,,,,,,,,,,,,,,,,,,,,,,,,,
,,5d612ae16512d700159face7,66fcb7b68087b127146101ac,2024-10-01_23h08.25.835,mdp,2024.2.1,Win32,59.88023952,66fa4ebf79326e780c390304,,,,,,,,,,,,,,,,,,,,,416.8141,416.8141,416.8157,418.7635,0,1,left,1.4177,,418.7651,418.766,,1,,418.7667,418.7673,,0,,0,418.7675,418.7675,418.768,420.2636,0,45,45,45,1,0.6,0.4,0.4,0.6,1,0,,,,,,,,,,,,,,,,,,,,,,,,,,,,,,,,,,,,
,,5d612ae16512d700159face7,66fcb7b68087b127146101ac,2024-10-01_23h08.25.835,mdp,2024.2.1,Win32,59.88023952,66fa4ebf79326e780c390304,,,,,,,,,,,,,,,,,,,,,420.2643,420.2643,420.2658,420.8638,1,0,right,0.0639,,420.8656,420.8665,,1,,420.8671,420.8676,,1,,1,420.8676,420.8676,420.8681,422.3642,0,46,46,46,1,0.6,0.4,0.4,0.6,1,0,,,,,,,,,,,,,,,,,,,,,,,,,,,,,,,,,,,,
,,5d612ae16512d700159face7,66fcb7b68087b127146101ac,2024-10-01_23h08.25.835,mdp,2024.2.1,Win32,59.88023952,66fa4ebf79326e780c390304,,,,,,,,,,,,,,,,,,,,,422.365,422.365,422.3669,423.5478,1,0,right,0.6546,,423.5501,423.5511,,1,,423.5521,423.553,,1,,1,423.553,423.553,423.5538,425.0476,0,47,47,47,1,0.6,0.4,0.4,0.6,1,0,,,,,,,,,,,,,,,,,,,,,,,,,,,,,,,,,,,,
,,5d612ae16512d700159face7,66fcb7b68087b127146101ac,2024-10-01_23h08.25.835,mdp,2024.2.1,Win32,59.88023952,66fa4ebf79326e780c390304,,,,,,,,,,,,,,,,,,,,,425.0481,425.0481,425.0498,426.8817,1,1,right,1.3012,,426.8834,426.8845,,1,,426.8858,426.8867,,0,,0,426.8867,426.8867,426.8873,428.3817,0,48,48,48,1,0.6,0.4,0.4,0.6,1,0,,,,,,,,,,,,,,,,,,,,,,,,,,,,,,,,,,,,
,,5d612ae16512d700159face7,66fcb7b68087b127146101ac,2024-10-01_23h08.25.835,mdp,2024.2.1,Win32,59.88023952,66fa4ebf79326e780c390304,,,,,,,,,,,,,,,,,,,,,428.3822,428.3822,428.3839,429.932,1,1,right,1.0174,,429.9338,429.9348,,1,,429.9368,429.9377,,1,,0,429.9378,429.9378,429.9388,431.432,0,49,49,49,1,0.6,0.4,0.4,0.6,1,0,,,,,,,,,,,,,,,,,,,,,,,,,,,,,,,,,,,,
,,5d612ae16512d700159face7,66fcb7b68087b127146101ac,2024-10-01_23h08.25.835,mdp,2024.2.1,Win32,59.88023952,66fa4ebf79326e780c390304,,,,,,,,,,,,,,,,,,,,,,,,,,,,,,,,,,,,,,,,,,,,,,,,,,,,,,,,431.4326,489.9401,0,0,0,5,1,imgs/kangaroo.png,imgs/giraffe.png,imgs/pig.png,imgs/lion.png,imgs/cat.png,,,,,,,,,,,,,,,,,,,,,,,,
,,5d612ae16512d700159face7,66fcb7b68087b127146101ac,2024-10-01_23h08.25.835,mdp,2024.2.1,Win32,59.88023952,66fa4ebf79326e780c390304,,,,,,,,,,,,,,2,seqs/st2seq0.csv,489.9418,498.0745,space,7.6066,,498.0831,498.0831,498.085,500.3747,0,0,left,1.7597,,500.3763,501.9083,0,1,left,501.9098,501.9108,,1,,0,501.9109,501.9109,501.9118,503.4087,0,0,0,0,1,0.2,0.8,0.6,0.4,,,,,,,,,,,,,,,0.9931,,0.2,0.8,0.6,0.4,0.2,0.8,0.2,0.8,1,0,,,,,,,,,,,,
,,5d612ae16512d700159face7,66fcb7b68087b127146101ac,2024-10-01_23h08.25.835,mdp,2024.2.1,Win32,59.88023952,66fa4ebf79326e780c390304,,,,,,,,,,,,,,,,,,,,,503.4095,503.4097,503.4117,505.1754,1,1,right,1.2331,,505.177,506.459,1,1,right,506.4605,506.4615,,0,,0,506.4615,506.4615,506.4626,507.9589,0,1,1,1,1,0.2,0.8,0.6,0.4,,,,,,,,,,,,,,,0.7424,,0.2,0.8,0.6,0.4,0.2,0.8,0.2,0.8,1,0,,,,,,,,,,,,
,,5d612ae16512d700159face7,66fcb7b68087b127146101ac,2024-10-01_23h08.25.835,mdp,2024.2.1,Win32,59.88023952,66fa4ebf79326e780c390304,,,,,,,,,,,,,,,,,,,,,507.9599,507.9599,507.962,509.1925,1,0,right,0.6966,,509.1942,510.3598,0,1,left,510.3618,510.3628,,1,,0,510.3629,510.3629,510.3641,511.8595,0,2,2,2,1,0.2,0.8,0.6,0.4,,,,,,,,,,,,,,,0.6261,,0.2,0.8,0.6,0.4,0.2,0.8,0.2,0.8,1,0,,,,,,,,,,,,
,,5d612ae16512d700159face7,66fcb7b68087b127146101ac,2024-10-01_23h08.25.835,mdp,2024.2.1,Win32,59.88023952,66fa4ebf79326e780c390304,,,,,,,,,,,,,,,,,,,,,511.8601,511.8601,511.8614,512.4934,1,0,right,0.1018,,512.4953,513.6932,1,1,right,513.6948,513.6957,,1,,0,513.6957,513.6957,513.6964,515.1935,0,3,3,3,1,0.2,0.8,0.6,0.4,,,,,,,,,,,,,,,0.6668,,0.2,0.8,0.6,0.4,0.2,0.8,0.2,0.8,1,0,,,,,,,,,,,,
,,5d612ae16512d700159face7,66fcb7b68087b127146101ac,2024-10-01_23h08.25.835,mdp,2024.2.1,Win32,59.88023952,66fa4ebf79326e780c390304,,,,,,,,,,,,,,,,,,,,,515.1942,515.1943,515.1958,516.344,0,1,left,0.6174,,516.3457,517.7105,0,1,left,517.712,517.7131,,0,,0,517.7131,517.7131,517.7143,519.2104,0,4,4,4,1,0.2,0.8,0.6,0.4,,,,,,,,,,,,,,,0.8242,,0.2,0.8,0.6,0.4,0.2,0.8,0.2,0.8,1,0,,,,,,,,,,,,
,,5d612ae16512d700159face7,66fcb7b68087b127146101ac,2024-10-01_23h08.25.835,mdp,2024.2.1,Win32,59.88023952,66fa4ebf79326e780c390304,,,,,,,,,,,,,,,,,,,,,519.2111,519.2111,519.2131,519.9608,0,0,left,0.2178,,519.9635,521.1942,1,0,right,521.1957,521.1966,,0,,1,521.1967,521.1967,521.198,522.6948,0,5,5,5,1,0.2,0.8,0.6,0.4,,,,,,,,,,,,,,,0.7001,,0.2,0.8,0.6,0.4,0.2,0.8,0.2,0.8,1,0,,,,,,,,,,,,
,,5d612ae16512d700159face7,66fcb7b68087b127146101ac,2024-10-01_23h08.25.835,mdp,2024.2.1,Win32,59.88023952,66fa4ebf79326e780c390304,,,,,,,,,,,,,,,,,,,,,522.6953,522.6954,522.6971,523.8112,0,1,left,0.5828,,523.8127,525.0447,1,1,right,525.0462,525.0472,,1,,0,525.0473,525.0473,525.0481,526.5448,0,6,6,6,1,0.2,0.8,0.6,0.4,,,,,,,,,,,,,,,0.6957,,0.2,0.8,0.6,0.4,0.2,0.8,0.2,0.8,1,0,,,,,,,,,,,,
,,5d612ae16512d700159face7,66fcb7b68087b127146101ac,2024-10-01_23h08.25.835,mdp,2024.2.1,Win32,59.88023952,66fa4ebf79326e780c390304,,,,,,,,,,,,,,,,,,,,,526.5453,526.5454,526.5467,527.145,1,0,right,0.0727,,527.1467,528.4285,1,0,right,528.4302,528.4309,,0,,1,528.4311,528.4311,528.4317,529.9287,0,7,7,7,1,0.2,0.8,0.6,0.4,,,,,,,,,,,,,,,0.7441,,0.2,0.8,0.6,0.4,0.2,0.8,0.2,0.8,1,0,,,,,,,,,,,,
,,5d612ae16512d700159face7,66fcb7b68087b127146101ac,2024-10-01_23h08.25.835,mdp,2024.2.1,Win32,59.88023952,66fa4ebf79326e780c390304,,,,,,,,,,,,,,,,,,,,,529.9292,529.9292,529.9306,531.079,1,0,right,0.6163,,531.0804,532.4291,1,0,right,532.4306,532.4315,,0,,1,532.4316,532.4316,532.4323,533.9296,0,8,8,8,1,0.2,0.8,0.6,0.4,,,,,,,,,,,,,,,0.8145,,0.2,0.8,0.6,0.4,0.2,0.8,0.2,0.8,1,0,,,,,,,,,,,,
,,5d612ae16512d700159face7,66fcb7b68087b127146101ac,2024-10-01_23h08.25.835,mdp,2024.2.1,Win32,59.88023952,66fa4ebf79326e780c390304,,,,,,,,,,,,,,,,,,,,,533.9301,533.9301,533.9322,535.2296,1,1,right,0.772,,535.2311,536.3638,1,1,right,536.3651,536.3657,,1,,0,536.3657,536.3658,536.3663,537.8633,0,9,9,9,1,0.2,0.8,0.6,0.4,,,,,,,,,,,,,,,0.5997,,0.2,0.8,0.6,0.4,0.2,0.8,0.2,0.8,1,0,,,,,,,,,,,,
,,5d612ae16512d700159face7,66fcb7b68087b127146101ac,2024-10-01_23h08.25.835,mdp,2024.2.1,Win32,59.88023952,66fa4ebf79326e780c390304,,,,,,,,,,,,,,,,,,,,,537.8644,537.8644,537.8658,539.0134,1,0,right,0.6158,,539.015,540.1806,0,1,left,540.1824,540.1834,,1,,0,540.1834,540.1835,540.1845,541.6801,0,10,10,10,1,0.2,0.8,0.6,0.4,,,,,,,,,,,,,,,0.6263,,0.2,0.8,0.6,0.4,0.2,0.8,0.2,0.8,1,0,,,,,,,,,,,,
,,5d612ae16512d700159face7,66fcb7b68087b127146101ac,2024-10-01_23h08.25.835,mdp,2024.2.1,Win32,59.88023952,66fa4ebf79326e780c390304,,,,,,,,,,,,,,,,,,,,,541.6808,541.6808,541.6821,543.231,1,0,right,1.0206,,543.2328,544.4809,1,0,right,544.4825,544.4834,,0,,1,544.4835,544.4835,544.4846,545.981,0,11,11,11,1,0.2,0.8,0.6,0.4,,,,,,,,,,,,,,,0.7171,,0.2,0.8,0.6,0.4,0.2,0.8,0.2,0.8,1,0,,,,,,,,,,,,
,,5d612ae16512d700159face7,66fcb7b68087b127146101ac,2024-10-01_23h08.25.835,mdp,2024.2.1,Win32,59.88023952,66fa4ebf79326e780c390304,,,,,,,,,,,,,,,,,,,,,545.9816,545.9816,545.9833,547.3979,1,0,right,0.8891,,547.3993,548.798,1,0,right,548.7994,548.8004,,1,,1,548.8005,548.8005,548.8016,550.2981,0,12,12,12,1,0.2,0.8,0.6,0.4,,,,,,,,,,,,,,,0.8678,,0.2,0.8,0.6,0.4,0.2,0.8,0.2,0.8,1,0,,,,,,,,,,,,
,,5d612ae16512d700159face7,66fcb7b68087b127146101ac,2024-10-01_23h08.25.835,mdp,2024.2.1,Win32,59.88023952,66fa4ebf79326e780c390304,,,,,,,,,,,,,,,,,,,,,550.2987,550.2987,550.3,551.7319,1,0,right,0.9067,,551.7334,553.0485,1,0,right,553.05,553.0509,,1,,1,553.051,553.051,553.0519,554.5487,0,13,13,13,1,0.2,0.8,0.6,0.4,,,,,,,,,,,,,,,0.783,,0.2,0.8,0.6,0.4,0.2,0.8,0.2,0.8,1,0,,,,,,,,,,,,
,,5d612ae16512d700159face7,66fcb7b68087b127146101ac,2024-10-01_23h08.25.835,mdp,2024.2.1,Win32,59.88023952,66fa4ebf79326e780c390304,,,,,,,,,,,,,,,,,,,,,554.5492,554.5492,554.5508,555.799,1,1,right,0.7195,,555.8007,557.1658,0,1,left,557.1675,557.1685,,1,,0,557.1686,557.1687,557.1698,558.6661,0,14,14,14,1,0.2,0.8,0.6,0.4,,,,,,,,,,,,,,,0.8232,,0.2,0.8,0.6,0.4,0.2,0.8,0.2,0.8,1,0,,,,,,,,,,,,
,,5d612ae16512d700159face7,66fcb7b68087b127146101ac,2024-10-01_23h08.25.835,mdp,2024.2.1,Win32,59.88023952,66fa4ebf79326e780c390304,,,,,,,,,,,,,,,,,,,,,558.6666,558.6666,558.6681,560.033,1,0,right,0.8328,,560.0343,561.4002,1,0,right,561.402,561.4029,,0,,1,561.403,561.403,561.404,562.9001,0,15,15,15,1,0.2,0.8,0.6,0.4,,,,,,,,,,,,,,,0.8283,,0.2,0.8,0.6,0.4,0.2,0.8,0.2,0.8,1,0,,,,,,,,,,,,
,,5d612ae16512d700159face7,66fcb7b68087b127146101ac,2024-10-01_23h08.25.835,mdp,2024.2.1,Win32,59.88023952,66fa4ebf79326e780c390304,,,,,,,,,,,,,,,,,,,,,562.901,562.901,562.9026,564.2507,1,0,right,0.8208,,564.2533,565.467,1,0,right,565.4686,565.4695,,0,,1,565.4696,565.4696,565.4701,566.9671,0,16,16,16,1,0.2,0.8,0.6,0.4,,,,,,,,,,,,,,,0.684,,0.2,0.8,0.6,0.4,0.2,0.8,0.2,0.8,1,0,,,,,,,,,,,,
,,5d612ae16512d700159face7,66fcb7b68087b127146101ac,2024-10-01_23h08.25.835,mdp,2024.2.1,Win32,59.88023952,66fa4ebf79326e780c390304,,,,,,,,,,,,,,,,,,,,,566.9677,566.9677,566.9691,568.5175,1,0,right,1.0166,,568.5189,569.8842,1,0,right,569.8858,569.8864,,0,,1,569.8865,569.8865,569.8871,571.3845,0,17,17,17,1,0.2,0.8,0.6,0.4,,,,,,,,,,,,,,,0.8342,,0.2,0.8,0.6,0.4,0.2,0.8,0.2,0.8,1,0,,,,,,,,,,,,
,,5d612ae16512d700159face7,66fcb7b68087b127146101ac,2024-10-01_23h08.25.835,mdp,2024.2.1,Win32,59.88023952,66fa4ebf79326e780c390304,,,,,,,,,,,,,,,,,,,,,571.3852,571.3852,571.3869,572.7014,1,1,right,0.7859,,572.703,574.2848,0,1,left,574.2864,574.2874,,0,,0,574.2875,574.2875,574.2887,575.7849,0,18,18,18,1,0.2,0.8,0.6,0.4,,,,,,,,,,,,,,,1.0398,,0.2,0.8,0.6,0.4,0.2,0.8,0.2,0.8,1,0,,,,,,,,,,,,
,,5d612ae16512d700159face7,66fcb7b68087b127146101ac,2024-10-01_23h08.25.835,mdp,2024.2.1,Win32,59.88023952,66fa4ebf79326e780c390304,,,,,,,,,,,,,,,,,,,,,575.7855,575.7855,575.7869,577.0362,0,1,left,0.7259,,577.0376,578.4021,0,0,left,578.4036,578.4046,,1,,1,578.4046,578.4047,578.4056,579.9021,0,19,19,19,1,0.2,0.8,0.6,0.4,,,,,,,,,,,,,,,0.8353,,0.2,0.8,0.6,0.4,0.2,0.8,0.2,0.8,1,0,,,,,,,,,,,,
,,5d612ae16512d700159face7,66fcb7b68087b127146101ac,2024-10-01_23h08.25.835,mdp,2024.2.1,Win32,59.88023952,66fa4ebf79326e780c390304,,,,,,,,,,,,,,,,,,,,,579.9026,579.9027,579.9042,581.2691,0,1,left,0.8328,,581.2705,582.6694,0,1,left,582.6709,582.6718,,1,,0,582.6718,582.6718,582.6725,584.1698,0,20,20,20,1,0.2,0.8,0.6,0.4,,,,,,,,,,,,,,,0.8675,,0.2,0.8,0.6,0.4,0.2,0.8,0.2,0.8,1,0,,,,,,,,,,,,
,,5d612ae16512d700159face7,66fcb7b68087b127146101ac,2024-10-01_23h08.25.835,mdp,2024.2.1,Win32,59.88023952,66fa4ebf79326e780c390304,,,,,,,,,,,,,,,,,,,,,584.1705,584.1705,584.1722,585.5364,0,1,left,0.8334,,585.5379,586.9866,0,1,left,586.9882,586.9892,,1,,0,586.9892,586.9892,586.9903,588.4866,0,21,21,21,1,0.2,0.8,0.6,0.4,,,,,,,,,,,,,,,0.915,,0.2,0.8,0.6,0.4,0.2,0.8,0.2,0.8,1,0,,,,,,,,,,,,
,,5d612ae16512d700159face7,66fcb7b68087b127146101ac,2024-10-01_23h08.25.835,mdp,2024.2.1,Win32,59.88023952,66fa4ebf79326e780c390304,,,,,,,,,,,,,,,,,,,,,588.4873,588.4873,588.4887,589.7536,0,0,left,0.7311,,589.7551,591.2206,1,0,right,591.2232,591.2243,,0,,1,591.2244,591.2244,591.2255,592.7205,0,22,22,22,1,0.6,0.4,0.8,0.2,,,,,,,,,,,,,,,0.9302,,0.2,0.8,0.6,0.4,0.2,0.8,0.2,0.8,1,0,,,,,,,,,,,,
,,5d612ae16512d700159face7,66fcb7b68087b127146101ac,2024-10-01_23h08.25.835,mdp,2024.2.1,Win32,59.88023952,66fa4ebf79326e780c390304,,,,,,,,,,,,,,,,,,,,,592.7211,592.7211,592.7226,594.1047,0,0,left,0.8528,,594.1065,595.4543,1,1,right,595.456,595.4567,,1,,0,595.4567,595.4568,595.4575,596.9547,0,23,23,23,1,0.6,0.4,0.8,0.2,,,,,,,,,,,,,,,0.8146,,0.2,0.8,0.6,0.4,0.2,0.8,0.2,0.8,1,0,,,,,,,,,,,,
,,5d612ae16512d700159face7,66fcb7b68087b127146101ac,2024-10-01_23h08.25.835,mdp,2024.2.1,Win32,59.88023952,66fa4ebf79326e780c390304,,,,,,,,,,,,,,,,,,,,,596.9553,596.9553,596.9568,598.3882,1,0,right,0.9022,,598.3897,599.6721,1,0,right,599.6737,599.6747,,0,,1,599.6747,599.6747,599.6759,601.172,0,24,24,24,1,0.6,0.4,0.8,0.2,,,,,,,,,,,,,,,0.7541,,0.2,0.8,0.6,0.4,0.4,0.6,0.6,0.4,1,0,,,,,,,,,,,,
,,5d612ae16512d700159face7,66fcb7b68087b127146101ac,2024-10-01_23h08.25.835,mdp,2024.2.1,Win32,59.88023952,66fa4ebf79326e780c390304,,,,,,,,,,,,,,,,,,,,,601.1727,601.1729,601.1746,602.389,1,0,right,0.6857,,602.3915,603.6392,1,0,right,603.6418,603.6427,,0,,1,603.6428,603.6428,603.6437,605.139,0,25,25,25,1,0.6,0.4,0.8,0.2,,,,,,,,,,,,,,,0.7211,,0.2,0.8,0.6,0.4,0.4,0.6,0.6,0.4,1,0,,,,,,,,,,,,
,,5d612ae16512d700159face7,66fcb7b68087b127146101ac,2024-10-01_23h08.25.835,mdp,2024.2.1,Win32,59.88023952,66fa4ebf79326e780c390304,,,,,,,,,,,,,,,,,,,,,605.1395,605.1396,605.1409,606.2727,1,0,right,0.6018,,606.2742,607.5061,1,1,right,607.5075,607.5084,,0,,0,607.5084,607.5084,607.5093,609.0065,0,26,26,26,1,0.6,0.4,0.8,0.2,,,,,,,,,,,,,,,0.6976,,0.2,0.8,0.6,0.4,0.2,0.8,0.4,0.6,1,0,,,,,,,,,,,,
,,5d612ae16512d700159face7,66fcb7b68087b127146101ac,2024-10-01_23h08.25.835,mdp,2024.2.1,Win32,59.88023952,66fa4ebf79326e780c390304,,,,,,,,,,,,,,,,,,,,,609.007,609.007,609.0089,610.1732,0,0,left,0.6361,,610.1747,611.7398,0,1,left,611.7414,611.7424,,0,,0,611.7425,611.7425,611.7434,613.24,0,27,27,27,1,0.6,0.4,0.8,0.2,,,,,,,,,,,,,,,1.0306,,0.2,0.8,0.6,0.4,0.2,0.8,0.4,0.6,1,0,,,,,,,,,,,,
,,5d612ae16512d700159face7,66fcb7b68087b127146101ac,2024-10-01_23h08.25.835,mdp,2024.2.1,Win32,59.88023952,66fa4ebf79326e780c390304,,,,,,,,,,,,,,,,,,,,,613.2405,613.2406,613.242,614.3908,1,1,right,0.6207,,614.3926,615.7584,1,0,right,615.7601,615.7608,,1,,1,615.7609,615.7609,615.7617,617.2577,0,28,28,28,1,0.8,0.2,0.2,0.8,,,,,,,,,,,,,,,0.8228,,0.2,0.8,0.6,0.4,0.2,0.8,0.4,0.6,1,0,,,,,,,,,,,,
,,5d612ae16512d700159face7,66fcb7b68087b127146101ac,2024-10-01_23h08.25.835,mdp,2024.2.1,Win32,59.88023952,66fa4ebf79326e780c390304,,,,,,,,,,,,,,,,,,,,,617.2585,617.2585,617.2602,618.541,1,1,right,0.7496,,618.5424,619.8246,1,1,right,619.8263,619.8274,,0,,0,619.8276,619.8276,619.8285,621.3244,0,29,29,29,1,0.8,0.2,0.2,0.8,,,,,,,,,,,,,,,0.7499,,0.2,0.8,0.6,0.4,0.2,0.8,0.4,0.6,1,0,,,,,,,,,,,,
,,5d612ae16512d700159face7,66fcb7b68087b127146101ac,2024-10-01_23h08.25.835,mdp,2024.2.1,Win32,59.88023952,66fa4ebf79326e780c390304,,,,,,,,,,,,,,,,,,,,,621.325,621.325,621.3264,622.5248,0,0,left,0.6645,,622.5266,623.7083,1,0,right,623.7098,623.7109,,0,,1,623.711,623.711,623.7123,625.2083,0,30,30,30,1,0.8,0.2,0.2,0.8,,,,,,,,,,,,,,,0.6429,,0.2,0.8,0.6,0.4,0.2,0.8,0.4,0.6,1,0,,,,,,,,,,,,
,,5d612ae16512d700159face7,66fcb7b68087b127146101ac,2024-10-01_23h08.25.835,mdp,2024.2.1,Win32,59.88023952,66fa4ebf79326e780c390304,,,,,,,,,,,,,,,,,,,,,625.2089,625.2089,625.2104,626.4421,0,0,left,0.6965,,626.4437,627.6257,1,0,right,627.6273,627.6283,,0,,1,627.6283,627.6283,627.6296,629.1257,0,31,31,31,1,0.8,0.2,0.2,0.8,,,,,,,,,,,,,,,0.6494,,0.4,0.6,0.8,0.2,0.2,0.8,0.4,0.6,1,0,,,,,,,,,,,,
,,5d612ae16512d700159face7,66fcb7b68087b127146101ac,2024-10-01_23h08.25.835,mdp,2024.2.1,Win32,59.88023952,66fa4ebf79326e780c390304,,,,,,,,,,,,,,,,,,,,,629.1263,629.1263,629.128,630.8594,0,0,left,1.2061,,630.8608,632.3931,1,0,right,632.3944,632.3954,,0,,1,632.3955,632.3955,632.3966,633.8929,0,32,32,32,1,0.6,0.4,0.4,0.6,,,,,,,,,,,,,,,1.0046,0.0002,0.4,0.6,0.8,0.2,0.2,0.8,0.4,0.6,1,0,,,,,,,,,,,,
,,5d612ae16512d700159face7,66fcb7b68087b127146101ac,2024-10-01_23h08.25.835,mdp,2024.2.1,Win32,59.88023952,66fa4ebf79326e780c390304,,,,,,,,,,,,,,,,,,,,,633.8934,633.8934,633.8951,635.1439,0,0,left,0.7184,,635.1455,636.5434,1,0,right,636.5451,636.546,,0,,1,636.5461,636.5461,636.5467,638.0434,0,33,33,33,1,0.6,0.4,0.4,0.6,,,,,,,,,,,,,,,0.8727,,0.4,0.6,0.8,0.2,0.6,0.4,0.2,0.8,1,0,,,,,,,,,,,,
,,5d612ae16512d700159face7,66fcb7b68087b127146101ac,2024-10-01_23h08.25.835,mdp,2024.2.1,Win32,59.88023952,66fa4ebf79326e780c390304,,,,,,,,,,,,,,,,,,,,,638.0439,638.0439,638.0453,639.2108,0,0,left,0.637,,639.2129,640.594,1,0,right,640.5956,640.5964,,0,,1,640.5965,640.5965,640.5973,642.0942,0,34,34,34,1,0.6,0.4,0.4,0.6,,,,,,,,,,,,,,,0.8518,,0.4,0.6,0.8,0.2,0.6,0.4,0.2,0.8,1,0,,,,,,,,,,,,
,,5d612ae16512d700159face7,66fcb7b68087b127146101ac,2024-10-01_23h08.25.835,mdp,2024.2.1,Win32,59.88023952,66fa4ebf79326e780c390304,,,,,,,,,,,,,,,,,,,,,642.0948,642.0948,642.0965,643.3115,0,0,left,0.6876,,643.3134,644.4283,1,0,right,644.4299,644.4311,,1,,1,644.4311,644.4311,644.4325,645.9278,0,35,35,35,1,0.6,0.4,0.4,0.6,,,,,,,,,,,,,,,0.5866,,0.4,0.6,0.8,0.2,0.6,0.4,0.2,0.8,1,0,,,,,,,,,,,,
,,5d612ae16512d700159face7,66fcb7b68087b127146101ac,2024-10-01_23h08.25.835,mdp,2024.2.1,Win32,59.88023952,66fa4ebf79326e780c390304,,,,,,,,,,,,,,,,,,,,,645.9283,645.9284,645.93,647.0781,0,1,left,0.617,,647.0796,648.3118,1,1,right,648.3133,648.3143,,1,,0,648.3144,648.3144,648.3155,649.8117,0,36,36,36,1,0.6,0.4,0.4,0.6,,,,,,,,,,,,,,,0.6919,,0.6,0.4,0.2,0.8,0.6,0.4,0.2,0.8,1,0,,,,,,,,,,,,
,,5d612ae16512d700159face7,66fcb7b68087b127146101ac,2024-10-01_23h08.25.835,mdp,2024.2.1,Win32,59.88023952,66fa4ebf79326e780c390304,,,,,,,,,,,,,,,,,,,,,649.8122,649.8122,649.8136,651.0624,1,0,right,0.7223,,651.0646,652.2457,1,1,right,652.2472,652.2479,,1,,0,652.248,652.248,652.2486,653.7455,0,37,37,37,1,0.6,0.4,0.4,0.6,,,,,,,,,,,,,,,0.6507,,0.6,0.4,0.2,0.8,0.6,0.4,0.2,0.8,1,0,,,,,,,,,,,,
,,5d612ae16512d700159face7,66fcb7b68087b127146101ac,2024-10-01_23h08.25.835,mdp,2024.2.1,Win32,59.88023952,66fa4ebf79326e780c390304,,,,,,,,,,,,,,,,,,,,,653.7461,653.7461,653.7477,654.4794,0,0,left,0.1999,,654.4808,655.5295,1,1,right,655.531,655.5319,,0,,0,655.5319,655.532,655.5329,657.0293,0,38,38,38,1,0.6,0.4,0.4,0.6,,,,,,,,,,,,,,,0.5176,,0.6,0.4,0.2,0.8,0.6,0.4,0.2,0.8,1,0,,,,,,,,,,,,
,,5d612ae16512d700159face7,66fcb7b68087b127146101ac,2024-10-01_23h08.25.835,mdp,2024.2.1,Win32,59.88023952,66fa4ebf79326e780c390304,,,,,,,,,,,,,,,,,,,,,657.0299,657.0299,657.0313,658.0464,0,1,left,0.4887,,658.0478,659.2464,1,1,right,659.2478,659.2489,,1,,0,659.2489,659.2489,659.25,660.747,0,39,39,39,1,0.6,0.4,0.4,0.6,,,,,,,,,,,,,,,0.6603,,0.6,0.4,0.2,0.8,0.6,0.4,0.2,0.8,1,0,,,,,,,,,,,,
,,5d612ae16512d700159face7,66fcb7b68087b127146101ac,2024-10-01_23h08.25.835,mdp,2024.2.1,Win32,59.88023952,66fa4ebf79326e780c390304,,,,,,,,,,,,,,,,,,,,,660.7477,660.7477,660.7493,662.0634,1,0,right,0.785,,662.065,663.3471,0,0,left,663.3487,663.3496,,0,,1,663.3497,663.3497,663.351,664.8471,0,40,40,40,1,0.6,0.4,0.4,0.6,,,,,,,,,,,,,,,0.747,,0.6,0.4,0.2,0.8,0.6,0.4,0.2,0.8,1,0,,,,,,,,,,,,
,,5d612ae16512d700159face7,66fcb7b68087b127146101ac,2024-10-01_23h08.25.835,mdp,2024.2.1,Win32,59.88023952,66fa4ebf79326e780c390304,,,,,,,,,,,,,,,,,,,,,664.8476,664.8476,664.8492,666.1312,0,0,left,0.7538,,666.1329,667.3481,0,1,left,667.3497,667.3507,,0,,0,667.3508,667.3508,667.3516,668.8477,0,41,41,41,1,0.6,0.4,0.4,0.6,,,,,,,,,,,,,,,0.6869,,0.6,0.4,0.2,0.8,0.6,0.4,0.2,0.8,1,0,,,,,,,,,,,,
,,5d612ae16512d700159face7,66fcb7b68087b127146101ac,2024-10-01_23h08.25.835,mdp,2024.2.1,Win32,59.88023952,66fa4ebf79326e780c390304,,,,,,,,,,,,,,,,,,,,,668.8482,668.8482,668.85,669.9317,1,1,right,0.5558,,669.9335,671.4481,0,1,left,671.4495,671.4505,,0,,0,671.4506,671.4506,671.4514,672.9482,0,42,42,42,1,0.6,0.4,0.4,0.6,,,,,,,,,,,,,,,0.9762,,0.6,0.4,0.2,0.8,0.6,0.4,0.2,0.8,1,0,,,,,,,,,,,,
,,5d612ae16512d700159face7,66fcb7b68087b127146101ac,2024-10-01_23h08.25.835,mdp,2024.2.1,Win32,59.88023952,66fa4ebf79326e780c390304,,,,,,,,,,,,,,,,,,,,,672.9488,672.9489,672.9502,674.3324,0,1,left,0.8524,,674.3345,676.0322,1,1,right,676.0337,676.0345,,1,,0,676.0345,676.0345,676.0354,677.5321,0,43,43,43,1,0.6,0.4,0.4,0.6,,,,,,,,,,,,,,,1.1737,,0.6,0.4,0.2,0.8,0.6,0.4,0.2,0.8,1,0,,,,,,,,,,,,
,,5d612ae16512d700159face7,66fcb7b68087b127146101ac,2024-10-01_23h08.25.835,mdp,2024.2.1,Win32,59.88023952,66fa4ebf79326e780c390304,,,,,,,,,,,,,,,,,,,,,677.5327,677.5327,677.5341,679.1157,0,0,left,1.048,,679.1172,680.5994,1,0,right,680.6008,680.6016,,1,,1,680.6016,680.6017,680.6023,682.0993,0,44,44,44,1,0.6,0.4,0.4,0.6,,,,,,,,,,,,,,,0.9411,,0.6,0.4,0.2,0.8,0.6,0.4,0.2,0.8,1,0,,,,,,,,,,,,
,,5d612ae16512d700159face7,66fcb7b68087b127146101ac,2024-10-01_23h08.25.835,mdp,2024.2.1,Win32,59.88023952,66fa4ebf79326e780c390304,,,,,,,,,,,,,,,,,,,,,682.1,682.1,682.1016,683.3337,0,0,left,0.7062,,683.3357,684.5333,1,1,right,684.5348,684.5356,,1,,0,684.5356,684.5356,684.5364,686.0332,0,45,45,45,1,0.6,0.4,0.4,0.6,,,,,,,,,,,,,,,0.6759,,0.6,0.4,0.2,0.8,0.6,0.4,0.2,0.8,1,0,,,,,,,,,,,,
,,5d612ae16512d700159face7,66fcb7b68087b127146101ac,2024-10-01_23h08.25.835,mdp,2024.2.1,Win32,59.88023952,66fa4ebf79326e780c390304,,,,,,,,,,,,,,,,,,,,,686.0338,686.0338,686.0352,686.8506,0,0,left,0.2862,,686.8525,688.2003,0,1,left,688.202,688.2029,,0,,0,688.203,688.203,688.2037,689.7005,0,46,46,46,1,0.6,0.4,0.4,0.6,,,,,,,,,,,,,,,0.8186,,0.6,0.4,0.2,0.8,0.6,0.4,0.2,0.8,1,0,,,,,,,,,,,,
,,5d612ae16512d700159face7,66fcb7b68087b127146101ac,2024-10-01_23h08.25.835,mdp,2024.2.1,Win32,59.88023952,66fa4ebf79326e780c390304,,,,,,,,,,,,,,,,,,,,,689.7011,689.7011,689.7026,690.3008,1,1,right,0.0691,,690.3023,691.5179,1,1,right,691.5195,691.5205,,1,,0,691.5206,691.5206,691.5215,693.0176,0,47,47,47,1,0.6,0.4,0.4,0.6,,,,,,,,,,,,,,,0.6852,,0.6,0.4,0.2,0.8,0.6,0.4,0.2,0.8,1,0,,,,,,,,,,,,
,,5d612ae16512d700159face7,66fcb7b68087b127146101ac,2024-10-01_23h08.25.835,mdp,2024.2.1,Win32,59.88023952,66fa4ebf79326e780c390304,,,,,,,,,,,,,,,,,,,,,693.0182,693.0183,693.0198,694.318,0,1,left,0.7658,,694.3194,696.0682,0,1,left,696.0696,696.0705,,0,,0,696.0707,696.0707,696.0717,697.5685,0,48,48,48,1,0.6,0.4,0.4,0.6,,,,,,,,,,,,,,,1.2216,,0.6,0.4,0.2,0.8,0.6,0.4,0.2,0.8,1,0,,,,,,,,,,,,
,,5d612ae16512d700159face7,66fcb7b68087b127146101ac,2024-10-01_23h08.25.835,mdp,2024.2.1,Win32,59.88023952,66fa4ebf79326e780c390304,,,,,,,,,,,,,,,,,,,,,697.5692,697.5692,697.5713,698.1353,1,1,right,0.0304,,698.1371,699.3686,1,0,right,699.3701,699.371,,0,,1,699.3711,699.3711,699.3721,700.8688,0,49,49,49,1,0.6,0.4,0.4,0.6,,,,,,,,,,,,,,,0.7082,,0.6,0.4,0.2,0.8,0.8,0.2,0.8,0.2,1,0,,,,,,,,,,,,
,,5d612ae16512d700159face7,66fcb7b68087b127146101ac,2024-10-01_23h08.25.835,mdp,2024.2.1,Win32,59.88023952,66fa4ebf79326e780c390304,,,,,,,,,,,,,,,,,,,,,,,,,,,,,,,,,,,,,,,,,,,,,,,,,,,,,,,,700.8689,759.377,0,1,1,1,1,imgs/elephant.png,imgs/giraffe.png,imgs/bear.png,imgs/kangaroo.png,imgs/goat.png,,,,,,,,,,,,,,,,,,,,,,,,
,,5d612ae16512d700159face7,66fcb7b68087b127146101ac,2024-10-01_23h08.25.835,mdp,2024.2.1,Win32,59.88023952,66fa4ebf79326e780c390304,,,,,,,,,,,,,,3,seqs/st3seq37.csv,759.3797,789.1975,space,29.2883,,789.2069,789.207,789.2079,791.3311,0,0,left,1.5944,,791.3327,792.4481,1,0,right,792.4497,793.6154,1,0,right,1,793.6156,793.6156,793.6176,795.1148,0,0,0,0,1,0.8,0.2,0.2,0.8,,,,,,,,,,,,,,,0.5941,,0.6,0.4,0.8,0.2,0.4,0.6,0.8,0.2,,,0.63,,0.6,0.4,0.8,0.2,0.2,0.8,0.2,0.8,1,0
,,5d612ae16512d700159face7,66fcb7b68087b127146101ac,2024-10-01_23h08.25.835,mdp,2024.2.1,Win32,59.88023952,66fa4ebf79326e780c390304,,,,,,,,,,,,,,,,,,,,,795.1157,795.1157,795.117,795.965,0,0,left,0.3242,,795.9667,796.9322,1,0,right,796.9341,797.8991,1,0,right,1,797.8992,797.8992,797.9014,799.3992,0,1,1,1,1,0.8,0.2,0.2,0.8,,,,,,,,,,,,,,,0.4414,,0.6,0.4,0.8,0.2,0.4,0.6,0.8,0.2,,,0.4342,,0.6,0.4,0.8,0.2,0.2,0.8,0.2,0.8,1,0
,,5d612ae16512d700159face7,66fcb7b68087b127146101ac,2024-10-01_23h08.25.835,mdp,2024.2.1,Win32,59.88023952,66fa4ebf79326e780c390304,,,,,,,,,,,,,,,,,,,,,799.3998,799.4,799.4015,800.2994,0,0,left,0.3705,,800.3011,801.4995,1,0,right,801.5012,802.4327,1,0,right,1,802.4329,802.4329,802.4342,803.9327,0,2,2,2,1,0.8,0.2,0.2,0.8,,,,,,,,,,,,,,,0.6681,,0.6,0.4,0.8,0.2,0.4,0.6,0.8,0.2,,,0.4052,,0.6,0.4,0.8,0.2,0.2,0.8,0.2,0.8,1,0
,,5d612ae16512d700159face7,66fcb7b68087b127146101ac,2024-10-01_23h08.25.835,mdp,2024.2.1,Win32,59.88023952,66fa4ebf79326e780c390304,,,,,,,,,,,,,,,,,,,,,803.9334,803.9335,803.9353,804.683,0,1,left,0.2142,,804.6847,805.7999,1,0,right,805.8014,806.7336,0,1,left,0,806.7337,806.7337,806.7356,808.2333,0,3,3,3,1,0.8,0.2,0.2,0.8,,,,,,,,,,,,,,,0.5876,,0.6,0.4,0.8,0.2,0.4,0.6,0.8,0.2,,,0.4037,,0.6,0.4,0.8,0.2,0.2,0.8,0.2,0.8,1,0
,,5d612ae16512d700159face7,66fcb7b68087b127146101ac,2024-10-01_23h08.25.835,mdp,2024.2.1,Win32,59.88023952,66fa4ebf79326e780c390304,,,,,,,,,,,,,,,,,,,,,808.234,808.234,808.2354,809.5505,1,0,right,0.7832,,809.5519,810.6837,1,0,right,810.6854,811.7172,0,1,left,0,811.7174,811.7174,811.7187,813.2173,0,4,4,4,1,0.8,0.2,0.2,0.8,,,,,,,,,,,,,,,0.5927,,0.6,0.4,0.8,0.2,0.4,0.6,0.8,0.2,,,0.4997,,0.6,0.4,0.8,0.2,0.2,0.8,0.2,0.8,1,0
,,5d612ae16512d700159face7,66fcb7b68087b127146101ac,2024-10-01_23h08.25.835,mdp,2024.2.1,Win32,59.88023952,66fa4ebf79326e780c390304,,,,,,,,,,,,,,,,,,,,,813.2179,813.218,813.2194,814.3844,0,1,left,0.6361,,814.3858,815.2844,1,0,right,815.2859,816.3679,0,0,left,1,816.368,816.3681,816.3696,817.8682,0,5,5,5,1,0.8,0.2,0.2,0.8,,,,,,,,,,,,,,,0.363,,0.6,0.4,0.8,0.2,0.4,0.6,0.8,0.2,,,0.5508,,0.6,0.4,0.8,0.2,0.2,0.8,0.2,0.8,1,0
,,5d612ae16512d700159face7,66fcb7b68087b127146101ac,2024-10-01_23h08.25.835,mdp,2024.2.1,Win32,59.88023952,66fa4ebf79326e780c390304,,,,,,,,,,,,,,,,,,,,,817.8692,817.8692,817.8707,819.0016,0,1,left,0.6011,,819.0032,820.1183,1,1,right,820.1199,821.2352,0,1,left,0,821.2353,821.2353,821.2368,822.7352,0,6,6,6,1,0.4,0.6,0.8,0.2,,,,,,,,,,,,,,,0.5832,,0.6,0.4,0.8,0.2,0.4,0.6,0.8,0.2,,,0.5737,,0.6,0.4,0.8,0.2,0.2,0.8,0.2,0.8,1,0
,,5d612ae16512d700159face7,66fcb7b68087b127146101ac,2024-10-01_23h08.25.835,mdp,2024.2.1,Win32,59.88023952,66fa4ebf79326e780c390304,,,,,,,,,,,,,,,,,,,,,822.7358,822.7359,822.7374,823.6021,0,1,left,0.332,,823.6037,824.9525,0,0,left,824.9542,826.3193,0,0,left,1,826.3194,826.3194,826.3208,827.8193,0,7,7,7,1,0.4,0.6,0.8,0.2,,,,,,,,,,,,,,,0.8175,,0.8,0.2,0.2,0.8,0.4,0.6,0.8,0.2,,,0.8235,,0.6,0.4,0.8,0.2,0.2,0.8,0.2,0.8,1,0
,,5d612ae16512d700159face7,66fcb7b68087b127146101ac,2024-10-01_23h08.25.835,mdp,2024.2.1,Win32,59.88023952,66fa4ebf79326e780c390304,,,,,,,,,,,,,,,,,,,,,827.8202,827.8202,827.8216,829.3698,1,0,right,1.0134,,829.3713,830.9869,0,0,left,830.989,831.687,0,1,left,0,831.6871,831.6871,831.6888,833.1867,0,8,8,8,1,0.4,0.6,0.8,0.2,,,,,,,,,,,,,,,1.0787,,0.8,0.2,0.2,0.8,0.4,0.6,0.8,0.2,,,0.1707,,0.6,0.4,0.8,0.2,0.2,0.8,0.2,0.8,1,0
,,5d612ae16512d700159face7,66fcb7b68087b127146101ac,2024-10-01_23h08.25.835,mdp,2024.2.1,Win32,59.88023952,66fa4ebf79326e780c390304,,,,,,,,,,,,,,,,,,,,,833.1873,833.1873,833.1892,833.7874,0,1,left,0.073,,833.7893,835.1707,1,0,right,835.1723,836.572,0,0,left,1,836.572,836.5721,836.5735,838.0706,0,9,9,9,1,0.4,0.6,0.8,0.2,,,,,,,,,,,,,,,0.8451,,0.8,0.2,0.2,0.8,0.4,0.6,0.8,0.2,,,0.8764,,0.6,0.4,0.8,0.2,0.2,0.8,0.2,0.8,1,0
,,5d612ae16512d700159face7,66fcb7b68087b127146101ac,2024-10-01_23h08.25.835,mdp,2024.2.1,Win32,59.88023952,66fa4ebf79326e780c390304,,,,,,,,,,,,,,,,,,,,,838.0713,838.0713,838.0727,839.2377,0,0,left,0.635,,839.2392,840.3549,1,0,right,840.3572,841.4549,1,0,right,1,841.4551,841.4551,841.4569,842.9547,0,10,10,10,1,0.4,0.6,0.8,0.2,,,,,,,,,,,,,,,0.5813,,0.2,0.8,0.4,0.6,0.4,0.6,0.8,0.2,,,0.5676,,0.6,0.4,0.8,0.2,0.2,0.8,0.2,0.8,1,0
,,5d612ae16512d700159face7,66fcb7b68087b127146101ac,2024-10-01_23h08.25.835,mdp,2024.2.1,Win32,59.88023952,66fa4ebf79326e780c390304,,,,,,,,,,,,,,,,,,,,,842.9553,842.9553,842.9569,843.5555,0,1,left,0.0698,,843.5574,844.7551,1,0,right,844.7566,845.839,0,0,left,1,845.8392,845.8392,845.841,847.3386,0,11,11,11,1,0.4,0.6,0.8,0.2,,,,,,,,,,,,,,,0.661,,0.2,0.8,0.4,0.6,0.4,0.6,0.8,0.2,,,0.5537,,0.6,0.4,0.8,0.2,0.2,0.8,0.2,0.8,1,0
,,5d612ae16512d700159face7,66fcb7b68087b127146101ac,2024-10-01_23h08.25.835,mdp,2024.2.1,Win32,59.88023952,66fa4ebf79326e780c390304,,,,,,,,,,,,,,,,,,,,,847.3392,847.3393,847.3407,848.189,1,0,right,0.3163,,848.1904,849.3224,0,1,left,849.3241,850.6726,0,1,left,0,850.6728,850.6728,850.6742,852.1729,0,12,12,12,1,0.4,0.6,0.8,0.2,,,,,,,,,,,,,,,0.5925,,0.2,0.8,0.4,0.6,0.4,0.6,0.8,0.2,,,0.806,,0.6,0.4,0.8,0.2,0.2,0.8,0.2,0.8,1,0
,,5d612ae16512d700159face7,66fcb7b68087b127146101ac,2024-10-01_23h08.25.835,mdp,2024.2.1,Win32,59.88023952,66fa4ebf79326e780c390304,,,,,,,,,,,,,,,,,,,,,852.1735,852.1737,852.1749,853.3233,1,1,right,0.6176,,853.3256,854.4399,0,0,left,854.4414,856.0571,0,0,left,1,856.0572,856.0572,856.0588,857.5573,0,13,13,13,1,0.4,0.6,0.8,0.2,,,,,,,,,,,,,,,0.5777,,0.2,0.8,0.4,0.6,0.4,0.6,0.8,0.2,,,1.0809,,0.6,0.4,0.8,0.2,0.6,0.4,0.6,0.4,1,0
,,5d612ae16512d700159face7,66fcb7b68087b127146101ac,2024-10-01_23h08.25.835,mdp,2024.2.1,Win32,59.88023952,66fa4ebf79326e780c390304,,,,,,,,,,,,,,,,,,,,,857.5582,857.5582,857.56,859.0404,0,0,left,0.9473,,859.0419,860.1743,0,1,left,860.1759,861.5241,0,0,left,1,861.5241,861.5242,861.5255,863.0241,0,14,14,14,1,0.4,0.6,0.8,0.2,,,,,,,,,,,,,,,0.6123,,0.2,0.8,0.4,0.6,0.4,0.6,0.8,0.2,,,0.8059,,0.6,0.4,0.8,0.2,0.6,0.4,0.6,0.4,1,0
,,5d612ae16512d700159face7,66fcb7b68087b127146101ac,2024-10-01_23h08.25.835,mdp,2024.2.1,Win32,59.88023952,66fa4ebf79326e780c390304,,,,,,,,,,,,,,,,,,,,,863.0247,863.0247,863.0261,864.2415,0,1,left,0.6843,,864.2434,865.7246,0,1,left,865.7262,867.0249,0,0,left,1,867.025,867.025,867.0266,868.5248,0,15,15,15,1,0.4,0.6,0.8,0.2,,,,,,,,,,,,,,,0.9432,,0.2,0.8,0.4,0.6,0.4,0.6,0.8,0.2,,,0.7701,,0.6,0.4,0.8,0.2,0.6,0.4,0.6,0.4,1,0
,,5d612ae16512d700159face7,66fcb7b68087b127146101ac,2024-10-01_23h08.25.835,mdp,2024.2.1,Win32,59.88023952,66fa4ebf79326e780c390304,,,,,,,,,,,,,,,,,,,,,868.5256,868.5256,868.5272,869.6419,0,1,left,0.5857,,869.6436,870.9091,0,1,left,870.9115,872.3926,0,0,left,1,872.3928,872.3928,872.3944,873.8927,0,16,16,16,1,0.4,0.6,0.8,0.2,,,,,,,,,,,,,,,0.7358,,0.2,0.8,0.4,0.6,0.4,0.6,0.8,0.2,,,0.9496,,0.6,0.4,0.8,0.2,0.6,0.4,0.6,0.4,1,0
,,5d612ae16512d700159face7,66fcb7b68087b127146101ac,2024-10-01_23h08.25.835,mdp,2024.2.1,Win32,59.88023952,66fa4ebf79326e780c390304,,,,,,,,,,,,,,,,,,,,,873.8935,873.8935,873.8957,875.2263,0,0,left,0.8006,,875.2287,876.6595,1,1,right,876.6611,878.0763,0,0,left,1,878.0765,878.0765,878.0779,879.5763,0,17,17,17,1,0.4,0.6,0.8,0.2,,,,,,,,,,,,,,,0.8914,,0.2,0.8,0.4,0.6,0.4,0.6,0.8,0.2,,,0.884,,0.6,0.4,0.8,0.2,0.6,0.4,0.6,0.4,1,0
,,5d612ae16512d700159face7,66fcb7b68087b127146101ac,2024-10-01_23h08.25.835,mdp,2024.2.1,Win32,59.88023952,66fa4ebf79326e780c390304,,,,,,,,,,,,,,,,,,,,,879.577,879.577,879.5783,880.6604,0,1,left,0.5514,,880.6626,882.0936,0,1,left,882.0952,883.2608,1,0,right,1,883.261,883.261,883.2625,884.7608,0,18,18,18,1,0.4,0.6,0.8,0.2,,,,,,,,,,,,,,,0.8914,,0.2,0.8,0.4,0.6,0.4,0.6,0.8,0.2,,,0.6344,,0.2,0.8,0.6,0.4,0.6,0.4,0.6,0.4,1,0
,,5d612ae16512d700159face7,66fcb7b68087b127146101ac,2024-10-01_23h08.25.835,mdp,2024.2.1,Win32,59.88023952,66fa4ebf79326e780c390304,,,,,,,,,,,,,,,,,,,,,884.7615,884.7615,884.7631,885.4439,0,1,left,0.1506,,885.4455,886.6943,0,0,left,886.6961,888.0114,0,0,left,1,888.0115,888.0116,888.0132,889.5113,0,19,19,19,1,0.4,0.6,0.8,0.2,,,,,,,,,,,,,,,0.722,,0.2,0.8,0.4,0.6,0.4,0.6,0.8,0.2,,,0.7802,,0.2,0.8,0.6,0.4,0.6,0.4,0.6,0.4,1,0
,,5d612ae16512d700159face7,66fcb7b68087b127146101ac,2024-10-01_23h08.25.835,mdp,2024.2.1,Win32,59.88023952,66fa4ebf79326e780c390304,,,,,,,,,,,,,,,,,,,,,889.512,889.512,889.5136,890.678,0,0,left,0.6367,,890.6796,892.0453,0,1,left,892.0471,893.2618,0,1,left,0,893.2619,893.2619,893.2633,894.7618,0,20,20,20,1,0.4,0.6,0.8,0.2,,,,,,,,,,,,,,,0.8452,,0.2,0.8,0.4,0.6,0.4,0.6,0.8,0.2,,,0.6786,,0.2,0.8,0.6,0.4,0.6,0.4,0.6,0.4,1,0
,,5d612ae16512d700159face7,66fcb7b68087b127146101ac,2024-10-01_23h08.25.835,mdp,2024.2.1,Win32,59.88023952,66fa4ebf79326e780c390304,,,,,,,,,,,,,,,,,,,,,894.7624,894.7624,894.7638,895.6121,0,1,left,0.3142,,895.6137,897.0957,0,0,left,897.0974,898.6127,0,1,left,0,898.6127,898.6127,898.6141,900.1127,0,21,21,21,1,0.4,0.6,0.8,0.2,,,,,,,,,,,,,,,0.9464,,0.2,0.8,0.4,0.6,0.4,0.6,0.8,0.2,,,0.9753,0.0003,0.2,0.8,0.6,0.4,0.6,0.4,0.6,0.4,1,0
,,5d612ae16512d700159face7,66fcb7b68087b127146101ac,2024-10-01_23h08.25.835,mdp,2024.2.1,Win32,59.88023952,66fa4ebf79326e780c390304,,,,,,,,,,,,,,,,,,,,,900.1141,900.1141,900.1161,901.0298,0,1,left,0.3836,0.0003,901.0315,902.0134,1,0,right,902.0152,902.9799,0,0,left,1,902.9801,902.9801,902.9815,904.4798,0,22,22,22,1,0.4,0.6,0.8,0.2,,,,,,,,,,,,,,,0.4561,,0.2,0.8,0.4,0.6,0.4,0.6,0.8,0.2,,,0.4378,,0.2,0.8,0.6,0.4,0.6,0.4,0.6,0.4,1,0
,,5d612ae16512d700159face7,66fcb7b68087b127146101ac,2024-10-01_23h08.25.835,mdp,2024.2.1,Win32,59.88023952,66fa4ebf79326e780c390304,,,,,,,,,,,,,,,,,,,,,904.4804,904.4804,904.4822,905.4134,0,0,left,0.4084,,905.4151,906.7469,1,1,right,906.7485,908.3138,0,1,left,0,908.3139,908.3139,908.3154,909.8141,0,23,23,23,1,0.4,0.6,0.8,0.2,,,,,,,,,,,,,,,0.7984,,0.2,0.8,0.4,0.6,0.4,0.6,0.8,0.2,,,1.026,0.0003,0.2,0.8,0.6,0.4,0.2,0.8,0.4,0.6,1,0
,,5d612ae16512d700159face7,66fcb7b68087b127146101ac,2024-10-01_23h08.25.835,mdp,2024.2.1,Win32,59.88023952,66fa4ebf79326e780c390304,,,,,,,,,,,,,,,,,,,,,909.8148,909.8148,909.8165,910.531,0,1,left,0.1872,,910.5325,911.5643,1,0,right,911.5659,912.8312,0,0,left,1,912.8312,912.8313,912.8337,914.3312,0,24,24,24,1,0.4,0.6,0.8,0.2,,,,,,,,,,,,,,,0.4969,,0.2,0.8,0.4,0.6,0.4,0.6,0.8,0.2,,,0.7319,,0.2,0.8,0.6,0.4,0.2,0.8,0.4,0.6,1,0
,,5d612ae16512d700159face7,66fcb7b68087b127146101ac,2024-10-01_23h08.25.835,mdp,2024.2.1,Win32,59.88023952,66fa4ebf79326e780c390304,,,,,,,,,,,,,,,,,,,,,914.3318,914.3318,914.3334,915.4984,0,1,left,0.6385,,915.5006,916.6817,0,1,left,916.6831,917.9153,0,1,left,0,917.9153,917.9153,917.9168,919.4153,0,25,25,25,1,0.4,0.6,0.8,0.2,,,,,,,,,,,,,,,0.6507,,0.2,0.8,0.4,0.6,0.6,0.4,0.4,0.6,,,0.7099,,0.2,0.8,0.6,0.4,0.2,0.8,0.4,0.6,1,0
,,5d612ae16512d700159face7,66fcb7b68087b127146101ac,2024-10-01_23h08.25.835,mdp,2024.2.1,Win32,59.88023952,66fa4ebf79326e780c390304,,,,,,,,,,,,,,,,,,,,,919.416,919.416,919.418,920.7158,1,0,right,0.7705,,920.718,921.8657,0,0,left,921.8673,923.0996,0,1,left,0,923.0998,923.0998,923.1018,924.5992,0,26,26,26,1,0.4,0.6,0.8,0.2,,,,,,,,,,,,,,,0.6095,,0.2,0.8,0.4,0.6,0.6,0.4,0.4,0.6,,,0.6983,,0.2,0.8,0.6,0.4,0.2,0.8,0.4,0.6,1,0
,,5d612ae16512d700159face7,66fcb7b68087b127146101ac,2024-10-01_23h08.25.835,mdp,2024.2.1,Win32,59.88023952,66fa4ebf79326e780c390304,,,,,,,,,,,,,,,,,,,,,924.5998,924.5998,924.6015,926.1996,0,0,left,1.0654,,926.2011,927.5668,0,1,left,927.5694,929.3334,0,1,left,0,929.3335,929.3335,929.3349,930.8333,0,27,27,27,1,0.4,0.6,0.8,0.2,,,,,,,,,,,,,,,0.8347,,0.2,0.8,0.4,0.6,0.6,0.4,0.4,0.6,,,1.2251,,0.2,0.8,0.6,0.4,0.2,0.8,0.4,0.6,1,0
,,5d612ae16512d700159face7,66fcb7b68087b127146101ac,2024-10-01_23h08.25.835,mdp,2024.2.1,Win32,59.88023952,66fa4ebf79326e780c390304,,,,,,,,,,,,,,,,,,,,,930.8339,930.8339,930.8353,931.6839,0,0,left,0.3212,,931.6854,932.9011,0,1,left,932.903,933.9512,1,0,right,1,933.9514,933.9514,933.9531,935.4511,0,28,28,28,1,0.4,0.6,0.8,0.2,,,,,,,,,,,,,,,0.687,,0.2,0.8,0.4,0.6,0.6,0.4,0.4,0.6,,,0.5232,,0.2,0.8,0.6,0.4,0.2,0.8,0.4,0.6,1,0
,,5d612ae16512d700159face7,66fcb7b68087b127146101ac,2024-10-01_23h08.25.835,mdp,2024.2.1,Win32,59.88023952,66fa4ebf79326e780c390304,,,,,,,,,,,,,,,,,,,,,935.4517,935.4517,935.4531,936.5347,0,1,left,0.5538,,936.5366,937.6677,0,1,left,937.6692,939.1346,1,0,right,1,939.1348,939.1348,939.1361,940.6348,0,29,29,29,1,0.4,0.6,0.8,0.2,,,,,,,,,,,,,,,0.5925,,0.2,0.8,0.4,0.6,0.6,0.4,0.4,0.6,,,0.9333,,0.2,0.8,0.6,0.4,0.2,0.8,0.4,0.6,1,0
,,5d612ae16512d700159face7,66fcb7b68087b127146101ac,2024-10-01_23h08.25.835,mdp,2024.2.1,Win32,59.88023952,66fa4ebf79326e780c390304,,,,,,,,,,,,,,,,,,,,,940.6354,940.6355,940.6368,941.3188,0,0,left,0.1531,,941.3205,942.3519,0,1,left,942.3532,943.502,1,1,right,0,943.5021,943.5022,943.5038,945.0023,0,30,30,30,1,0.2,0.8,0.6,0.4,,,,,,,,,,,,,,,0.4921,,0.2,0.8,0.4,0.6,0.6,0.4,0.4,0.6,,,0.6173,,0.2,0.8,0.6,0.4,0.2,0.8,0.4,0.6,1,0
,,5d612ae16512d700159face7,66fcb7b68087b127146101ac,2024-10-01_23h08.25.835,mdp,2024.2.1,Win32,59.88023952,66fa4ebf79326e780c390304,,,,,,,,,,,,,,,,,,,,,945.003,945.003,945.0046,946.4194,1,0,right,0.8864,,946.4216,947.4692,0,1,left,947.4707,948.7027,0,1,left,0,948.7028,948.7028,948.7043,950.203,0,31,31,31,1,0.2,0.8,0.6,0.4,,,,,,,,,,,,,,,0.517,,0.2,0.8,0.4,0.6,0.6,0.4,0.4,0.6,,,0.6997,,0.2,0.8,0.6,0.4,0.2,0.8,0.4,0.6,1,0
,,5d612ae16512d700159face7,66fcb7b68087b127146101ac,2024-10-01_23h08.25.835,mdp,2024.2.1,Win32,59.88023952,66fa4ebf79326e780c390304,,,,,,,,,,,,,,,,,,,,,950.2038,950.2039,950.2059,951.5534,0,1,left,0.8191,,951.5556,952.4531,1,1,right,952.4548,953.7039,0,1,left,0,953.7041,953.7041,953.7063,955.2034,0,32,32,32,1,0.2,0.8,0.6,0.4,,,,,,,,,,,,,,,0.3567,,0.2,0.8,0.4,0.6,0.6,0.4,0.4,0.6,,,0.737,,0.2,0.8,0.6,0.4,0.2,0.8,0.4,0.6,1,0
,,5d612ae16512d700159face7,66fcb7b68087b127146101ac,2024-10-01_23h08.25.835,mdp,2024.2.1,Win32,59.88023952,66fa4ebf79326e780c390304,,,,,,,,,,,,,,,,,,,,,955.204,955.2041,955.2055,956.5538,1,0,right,0.8246,,956.5555,957.6206,0,1,left,957.6222,958.3706,1,1,right,0,958.3707,958.3707,958.3722,959.8707,0,33,33,33,1,0.2,0.8,0.6,0.4,,,,,,,,,,,,,,,0.5279,,0.2,0.8,0.4,0.6,0.6,0.4,0.4,0.6,,,0.2162,,0.2,0.8,0.6,0.4,0.6,0.4,0.2,0.8,1,0
,,5d612ae16512d700159face7,66fcb7b68087b127146101ac,2024-10-01_23h08.25.835,mdp,2024.2.1,Win32,59.88023952,66fa4ebf79326e780c390304,,,,,,,,,,,,,,,,,,,,,959.8713,959.8713,959.8726,961.2045,1,1,right,0.8001,,961.2059,962.3046,0,0,left,962.3061,963.3216,1,0,right,1,963.3217,963.3217,963.3234,964.8214,0,34,34,34,1,0.2,0.8,0.6,0.4,,,,,,,,,,,,,,,0.5588,,0.2,0.8,0.4,0.6,0.6,0.4,0.4,0.6,,,0.4769,,0.2,0.8,0.6,0.4,0.6,0.4,0.2,0.8,1,0
,,5d612ae16512d700159face7,66fcb7b68087b127146101ac,2024-10-01_23h08.25.835,mdp,2024.2.1,Win32,59.88023952,66fa4ebf79326e780c390304,,,,,,,,,,,,,,,,,,,,,964.8219,964.8219,964.8234,965.4381,0,1,left,0.0838,,965.4396,966.4384,0,0,left,966.4398,967.1219,1,1,right,0,967.1222,967.1222,967.1236,968.6218,0,35,35,35,1,0.2,0.8,0.6,0.4,,,,,,,,,,,,,,,0.475,,0.2,0.8,0.4,0.6,0.6,0.4,0.4,0.6,,,0.1512,,0.2,0.8,0.6,0.4,0.6,0.4,0.2,0.8,1,0
,,5d612ae16512d700159face7,66fcb7b68087b127146101ac,2024-10-01_23h08.25.835,mdp,2024.2.1,Win32,59.88023952,66fa4ebf79326e780c390304,,,,,,,,,,,,,,,,,,,,,968.6224,968.6224,968.6241,969.8555,0,1,left,0.7086,0.0002,969.8572,970.8224,1,1,right,970.824,971.4392,0,0,left,1,971.4393,971.4394,971.441,972.9392,0,36,36,36,1,0.2,0.8,0.6,0.4,,,,,,,,,,,,,,,0.4331,0.0002,0.2,0.8,0.4,0.6,0.6,0.4,0.4,0.6,,,0.0838,,0.2,0.8,0.6,0.4,0.6,0.4,0.2,0.8,1,0
,,5d612ae16512d700159face7,66fcb7b68087b127146101ac,2024-10-01_23h08.25.835,mdp,2024.2.1,Win32,59.88023952,66fa4ebf79326e780c390304,,,,,,,,,,,,,,,,,,,,,972.9397,972.9397,972.9413,974.5733,1,0,right,1.1051,,974.5758,975.3066,0,1,left,975.3083,976.0567,0,1,left,0,976.0568,976.0568,976.0584,977.5564,0,37,37,37,1,0.2,0.8,0.6,0.4,,,,,,,,,,,,,,,0.1938,,0.2,0.8,0.4,0.6,0.6,0.4,0.4,0.6,,,0.214,,0.2,0.8,0.6,0.4,0.6,0.4,0.2,0.8,1,0
,,5d612ae16512d700159face7,66fcb7b68087b127146101ac,2024-10-01_23h08.25.835,mdp,2024.2.1,Win32,59.88023952,66fa4ebf79326e780c390304,,,,,,,,,,,,,,,,,,,,,977.5569,977.557,977.5583,978.6238,0,1,left,0.5386,,978.6255,979.5739,0,1,left,979.5756,980.6072,0,0,left,1,980.6072,980.6073,980.6088,982.1071,0,38,38,38,1,0.2,0.8,0.6,0.4,,,,,,,,,,,,,,,0.411,,0.2,0.8,0.4,0.6,0.6,0.4,0.4,0.6,,,0.5003,,0.2,0.8,0.6,0.4,0.6,0.4,0.2,0.8,1,0
,,5d612ae16512d700159face7,66fcb7b68087b127146101ac,2024-10-01_23h08.25.835,mdp,2024.2.1,Win32,59.88023952,66fa4ebf79326e780c390304,,,,,,,,,,,,,,,,,,,,,982.1078,982.1078,982.1093,982.6571,0,0,left,0.0142,,982.6587,983.5743,0,1,left,983.5757,984.2746,1,1,right,0,984.2747,984.2747,984.2764,985.7742,0,39,39,39,1,0.2,0.8,0.6,0.4,,,,,,,,,,,,,,,0.3955,,0.2,0.8,0.4,0.6,0.6,0.4,0.4,0.6,,,0.1702,,0.2,0.8,0.6,0.4,0.6,0.4,0.2,0.8,1,0
,,5d612ae16512d700159face7,66fcb7b68087b127146101ac,2024-10-01_23h08.25.835,mdp,2024.2.1,Win32,59.88023952,66fa4ebf79326e780c390304,,,,,,,,,,,,,,,,,,,,,985.7747,985.7748,985.7761,986.4578,0,0,left,0.1543,,986.4594,987.5412,0,1,left,987.5429,988.6914,0,0,left,1,988.6915,988.6916,988.6935,990.1918,0,40,40,40,1,0.2,0.8,0.6,0.4,,,,,,,,,,,,,,,0.5546,,0.2,0.8,0.4,0.6,0.6,0.4,0.4,0.6,,,0.6187,,0.2,0.8,0.6,0.4,0.6,0.4,0.2,0.8,1,0
,,5d612ae16512d700159face7,66fcb7b68087b127146101ac,2024-10-01_23h08.25.835,mdp,2024.2.1,Win32,59.88023952,66fa4ebf79326e780c390304,,,,,,,,,,,,,,,,,,,,,990.1925,990.1925,990.1937,990.7416,0,1,left,0.0229,,990.7433,991.7088,0,1,left,991.7102,992.459,1,1,right,0,992.4591,992.4591,992.4607,993.9587,0,41,41,41,1,0.2,0.8,0.6,0.4,,,,,,,,,,,,,,,0.4239,,0.2,0.8,0.4,0.6,0.6,0.4,0.4,0.6,,,0.221,,0.2,0.8,0.6,0.4,0.6,0.4,0.2,0.8,1,0
,,5d612ae16512d700159face7,66fcb7b68087b127146101ac,2024-10-01_23h08.25.835,mdp,2024.2.1,Win32,59.88023952,66fa4ebf79326e780c390304,,,,,,,,,,,,,,,,,,,,,993.9592,993.9592,993.9606,994.7258,0,1,left,0.2329,,994.7272,995.5759,0,0,left,995.5784,996.7591,1,0,right,1,996.7593,996.7593,996.761,998.2593,0,42,42,42,1,0.2,0.8,0.6,0.4,,,,,,,,,,,,,,,0.3182,,0.2,0.8,0.4,0.6,0.6,0.4,0.4,0.6,,,0.6437,,0.8,0.2,0.4,0.6,0.6,0.4,0.2,0.8,1,0
,,5d612ae16512d700159face7,66fcb7b68087b127146101ac,2024-10-01_23h08.25.835,mdp,2024.2.1,Win32,59.88023952,66fa4ebf79326e780c390304,,,,,,,,,,,,,,,,,,,,,998.26,998.26,998.2615,999.7262,0,1,left,0.9391,,999.7278,1000.5934,1,0,right,1000.5951,1001.2432,0,1,left,0,1001.2433,1001.2433,1001.2448,1002.7432,0,43,43,43,1,0.2,0.8,0.6,0.4,,,,,,,,,,,,,,,0.3369,,0.2,0.8,0.4,0.6,0.6,0.4,0.4,0.6,,,0.1212,,0.8,0.2,0.4,0.6,0.6,0.4,0.2,0.8,1,0
,,5d612ae16512d700159face7,66fcb7b68087b127146101ac,2024-10-01_23h08.25.835,mdp,2024.2.1,Win32,59.88023952,66fa4ebf79326e780c390304,,,,,,,,,,,,,,,,,,,,,1002.7438,1002.7438,1002.7452,1003.4601,1,0,right,0.1893,,1003.4617,1004.2604,0,1,left,1004.2631,1005.0438,1,1,right,0,1005.0438,1005.0438,1005.0453,1006.5442,0,44,44,44,1,0.2,0.8,0.6,0.4,,,,,,,,,,,,,,,0.2668,,0.2,0.8,0.4,0.6,0.6,0.4,0.4,0.6,,,0.2409,,0.8,0.2,0.4,0.6,0.6,0.4,0.2,0.8,1,0
,,5d612ae16512d700159face7,66fcb7b68087b127146101ac,2024-10-01_23h08.25.835,mdp,2024.2.1,Win32,59.88023952,66fa4ebf79326e780c390304,,,,,,,,,,,,,,,,,,,,,1006.545,1006.5451,1006.5469,1007.3107,0,1,left,0.2338,,1007.3122,1008.2275,0,0,left,1008.229,1009.1945,1,0,right,1,1009.1946,1009.1946,1009.1961,1010.6945,0,45,45,45,1,0.2,0.8,0.6,0.4,,,,,,,,,,,,,,,0.3794,,0.2,0.8,0.4,0.6,0.6,0.4,0.4,0.6,,,0.4261,,0.8,0.2,0.4,0.6,0.6,0.4,0.2,0.8,1,0
,,5d612ae16512d700159face7,66fcb7b68087b127146101ac,2024-10-01_23h08.25.835,mdp,2024.2.1,Win32,59.88023952,66fa4ebf79326e780c390304,,,,,,,,,,,,,,,,,,,,,1010.6952,1010.6952,1010.6974,1011.3112,0,1,left,0.0876,,1011.3127,1011.9948,0,0,left,1011.9963,1012.7448,1,1,right,0,1012.7449,1012.7449,1012.7465,1014.2448,0,46,46,46,1,0.2,0.8,0.6,0.4,,,,,,,,,,,,,,,0.1523,,0.2,0.8,0.4,0.6,0.6,0.4,0.4,0.6,,,0.2166,,0.8,0.2,0.4,0.6,0.6,0.4,0.2,0.8,1,0
,,5d612ae16512d700159face7,66fcb7b68087b127146101ac,2024-10-01_23h08.25.835,mdp,2024.2.1,Win32,59.88023952,66fa4ebf79326e780c390304,,,,,,,,,,,,,,,,,,,,,1014.2455,1014.2455,1014.2471,1015.0284,0,1,left,0.2549,,1015.0299,1015.9621,0,0,left,1015.9637,1016.5957,1,1,right,0,1016.5958,1016.5958,1016.598,1018.0954,0,47,47,47,1,0.2,0.8,0.6,0.4,,,,,,,,,,,,,,,0.4038,,0.2,0.8,0.4,0.6,0.6,0.4,0.4,0.6,,,0.1038,,0.2,0.8,0.6,0.4,0.6,0.4,0.2,0.8,1,0
,,5d612ae16512d700159face7,66fcb7b68087b127146101ac,2024-10-01_23h08.25.835,mdp,2024.2.1,Win32,59.88023952,66fa4ebf79326e780c390304,,,,,,,,,,,,,,,,,,,,,1018.0961,1018.0961,1018.0977,1018.6623,0,1,left,0.0361,,1018.6639,1019.6294,0,1,left,1019.6311,1020.5127,0,0,left,1,1020.5128,1020.5129,1020.5146,1022.0124,0,48,48,48,1,0.2,0.8,0.6,0.4,,,,,,,,,,,,,,,0.4387,,0.2,0.8,0.4,0.6,0.6,0.4,0.4,0.6,,,0.3441,,0.2,0.8,0.6,0.4,0.6,0.4,0.2,0.8,1,0
,,5d612ae16512d700159face7,66fcb7b68087b127146101ac,2024-10-01_23h08.25.835,mdp,2024.2.1,Win32,59.88023952,66fa4ebf79326e780c390304,,,,,,,,,,,,,,,,,,,,,1022.013,1022.013,1022.0144,1023.1965,0,1,left,0.6494,,1023.198,1023.8627,0,0,left,1023.8643,1024.4633,0,1,left,0,1024.4635,1024.4635,1024.4655,1025.9629,0,49,49,49,1,0.2,0.8,0.6,0.4,,,,,,,,,,,,,,,0.1353,,0.2,0.8,0.4,0.6,0.6,0.4,0.4,0.6,,,0.0658,,0.2,0.8,0.6,0.4,0.6,0.4,0.2,0.8,1,0
,,5d612ae16512d700159face7,66fcb7b68087b127146101ac,2024-10-01_23h08.25.835,mdp,2024.2.1,Win32,59.88023952,66fa4ebf79326e780c390304,,,,,,,,,,,,,,,,,,,,,,,,,,,,,,,,,,,,,,,,,,,,,,,,,,,,,,,,1025.9632,1084.4713,0,2,2,8,1,imgs/cat.png,imgs/elephant.png,imgs/squirrel.png,imgs/pig.png,imgs/horse.png,,,,,,,,,,,,,,,,,,,,,,,,
,,5d612ae16512d700159face7,66fcb7b68087b127146101ac,2024-10-01_23h08.25.835,mdp,2024.2.1,Win32,59.88023952,66fa4ebf79326e780c390304,,,,,,,,,,,,,,3,seqs/st3seq35.csv,1084.4724,1105.991,space,20.9903,,1105.9995,1105.9996,1106.0014,1108.1915,1,1,right,1.6598,,1108.1931,1109.3746,0,0,left,1109.3761,1110.4748,0,0,left,1,1110.4749,1110.4749,1110.4764,1111.9751,0,0,0,0,1,0.2,0.8,0.6,0.4,,,,,,,,,,,,,,,0.643,,0.8,0.2,0.4,0.6,0.8,0.2,0.8,0.2,,,0.5592,,0.4,0.6,0.8,0.2,0.4,0.6,0.4,0.6,1,0
,,5d612ae16512d700159face7,66fcb7b68087b127146101ac,2024-10-01_23h08.25.835,mdp,2024.2.1,Win32,59.88023952,66fa4ebf79326e780c390304,,,,,,,,,,,,,,,,,,,,,1111.9765,1111.9765,1111.978,1112.8755,1,1,right,0.3707,,1112.8771,1113.7585,0,1,left,1113.7601,1114.509,0,1,left,0,1114.5091,1114.5091,1114.5108,1116.0086,0,1,1,1,1,0.2,0.8,0.6,0.4,,,,,,,,,,,,,,,0.3548,,0.8,0.2,0.4,0.6,0.8,0.2,0.8,0.2,,,0.2167,,0.4,0.6,0.8,0.2,0.4,0.6,0.4,0.6,1,0
,,5d612ae16512d700159face7,66fcb7b68087b127146101ac,2024-10-01_23h08.25.835,mdp,2024.2.1,Win32,59.88023952,66fa4ebf79326e780c390304,,,,,,,,,,,,,,,,,,,,,1116.0092,1116.0092,1116.0107,1117.1092,1,0,right,0.5667,,1117.1106,1118.0757,0,0,left,1118.0774,1118.7926,1,0,right,1,1118.7927,1118.7927,1118.7941,1120.293,0,2,2,2,1,0.2,0.8,0.6,0.4,,,,,,,,,,,,,,,0.4246,,0.8,0.2,0.4,0.6,0.8,0.2,0.8,0.2,,,0.1767,,0.4,0.6,0.8,0.2,0.4,0.6,0.4,0.6,1,0
,,5d612ae16512d700159face7,66fcb7b68087b127146101ac,2024-10-01_23h08.25.835,mdp,2024.2.1,Win32,59.88023952,66fa4ebf79326e780c390304,,,,,,,,,,,,,,,,,,,,,1120.2938,1120.2938,1120.2953,1121.0928,0,1,left,0.2666,,1121.0943,1121.8767,1,0,right,1121.8789,1123.0766,0,0,left,1,1123.0767,1123.0767,1123.0782,1124.5766,0,3,3,3,1,0.2,0.8,0.6,0.4,,,,,,,,,,,,,,,0.2626,,0.8,0.2,0.4,0.6,0.8,0.2,0.8,0.2,,,0.6656,,0.4,0.6,0.8,0.2,0.4,0.6,0.4,0.6,1,0
,,5d612ae16512d700159face7,66fcb7b68087b127146101ac,2024-10-01_23h08.25.835,mdp,2024.2.1,Win32,59.88023952,66fa4ebf79326e780c390304,,,,,,,,,,,,,,,,,,,,,1124.5771,1124.5771,1124.5785,1125.1933,0,1,left,0.0907,,1125.1948,1126.0601,1,0,right,1126.0619,1126.7773,0,1,left,0,1126.7775,1126.7775,1126.7796,1128.2772,0,4,4,4,1,0.2,0.8,0.6,0.4,,,,,,,,,,,,,,,0.343,,0.8,0.2,0.4,0.6,0.8,0.2,0.8,0.2,,,0.191,,0.4,0.6,0.8,0.2,0.4,0.6,0.4,0.6,1,0
,,5d612ae16512d700159face7,66fcb7b68087b127146101ac,2024-10-01_23h08.25.835,mdp,2024.2.1,Win32,59.88023952,66fa4ebf79326e780c390304,,,,,,,,,,,,,,,,,,,,,1128.278,1128.278,1128.2798,1128.8773,0,1,left,0.0662,,1128.8787,1129.7949,1,0,right,1129.7973,1130.4942,0,1,left,0,1130.4943,1130.4943,1130.4961,1131.9943,0,5,5,5,1,0.2,0.8,0.6,0.4,,,,,,,,,,,,,,,0.3882,,0.8,0.2,0.4,0.6,0.8,0.2,0.8,0.2,,,0.167,,0.4,0.6,0.8,0.2,0.4,0.6,0.4,0.6,1,0
,,5d612ae16512d700159face7,66fcb7b68087b127146101ac,2024-10-01_23h08.25.835,mdp,2024.2.1,Win32,59.88023952,66fa4ebf79326e780c390304,,,,,,,,,,,,,,,,,,,,,1131.995,1131.995,1131.9966,1133.1282,1,0,right,0.6045,,1133.13,1133.9118,0,1,left,1133.9135,1134.7114,1,1,right,0,1134.7115,1134.7116,1134.713,1136.2116,0,6,6,6,1,0.2,0.8,0.6,0.4,,,,,,,,,,,,,,,0.2481,,0.8,0.2,0.4,0.6,0.8,0.2,0.8,0.2,,,0.2613,,0.6,0.4,0.4,0.6,0.4,0.6,0.4,0.6,1,0
,,5d612ae16512d700159face7,66fcb7b68087b127146101ac,2024-10-01_23h08.25.835,mdp,2024.2.1,Win32,59.88023952,66fa4ebf79326e780c390304,,,,,,,,,,,,,,,,,,,,,1136.2122,1136.2123,1136.214,1138.2123,0,1,left,1.4747,,1138.2145,1139.1454,0,0,left,1139.147,1140.0122,1,0,right,1,1140.0123,1140.0123,1140.0139,1141.5121,0,7,7,7,1,0.2,0.8,0.6,0.4,,,,,,,,,,,,,,,0.3913,,0.6,0.4,0.2,0.8,0.8,0.2,0.8,0.2,,,0.3267,,0.6,0.4,0.4,0.6,0.4,0.6,0.4,0.6,1,0
,,5d612ae16512d700159face7,66fcb7b68087b127146101ac,2024-10-01_23h08.25.835,mdp,2024.2.1,Win32,59.88023952,66fa4ebf79326e780c390304,,,,,,,,,,,,,,,,,,,,,1141.5126,1141.5127,1141.5142,1142.1958,0,1,left,0.1525,,1142.1972,1142.8292,1,0,right,1142.8306,1143.6129,1,1,right,0,1143.6131,1143.6131,1143.6146,1145.1125,0,8,8,8,1,0.2,0.8,0.6,0.4,,,,,,,,,,,,,,,0.1013,,0.6,0.4,0.2,0.8,0.8,0.2,0.8,0.2,,,0.2706,,0.6,0.4,0.4,0.6,0.4,0.6,0.4,0.6,1,0
,,5d612ae16512d700159face7,66fcb7b68087b127146101ac,2024-10-01_23h08.25.835,mdp,2024.2.1,Win32,59.88023952,66fa4ebf79326e780c390304,,,,,,,,,,,,,,,,,,,,,1145.1132,1145.1132,1145.1146,1146.4964,0,1,left,0.8467,,1146.4982,1148.83,0,0,left,1148.8314,1149.7471,0,1,left,0,1149.7472,1149.7472,1149.7488,1151.2468,0,9,9,9,1,0.2,0.8,0.6,0.4,,,,,,,,,,,,,,,1.8087,,0.6,0.4,0.2,0.8,0.8,0.2,0.8,0.2,,,0.3797,,0.6,0.4,0.4,0.6,0.4,0.6,0.4,0.6,1,0
,,5d612ae16512d700159face7,66fcb7b68087b127146101ac,2024-10-01_23h08.25.835,mdp,2024.2.1,Win32,59.88023952,66fa4ebf79326e780c390304,,,,,,,,,,,,,,,,,,,,,1151.2473,1151.2473,1151.2489,1152.9305,1,0,right,1.1494,,1152.932,1154.2146,1,1,right,1154.2172,1155.0145,0,1,left,0,1155.0146,1155.0146,1155.0162,1156.5141,0,10,10,10,1,0.2,0.8,0.6,0.4,,,,,,,,,,,,,,,0.746,,0.6,0.4,0.2,0.8,0.8,0.2,0.8,0.2,,,0.2667,,0.6,0.4,0.4,0.6,0.4,0.6,0.4,0.6,1,0
,,5d612ae16512d700159face7,66fcb7b68087b127146101ac,2024-10-01_23h08.25.835,mdp,2024.2.1,Win32,59.88023952,66fa4ebf79326e780c390304,,,,,,,,,,,,,,,,,,,,,1156.5147,1156.5148,1156.5165,1157.8146,0,1,left,0.7743,,1157.816,1158.8315,1,0,right,1158.833,1159.4985,1,1,right,0,1159.4986,1159.4986,1159.5007,1160.9982,0,11,11,11,1,0.2,0.8,0.6,0.4,,,,,,,,,,,,,,,0.4808,,0.6,0.4,0.2,0.8,0.8,0.2,0.8,0.2,,,0.1317,,0.6,0.4,0.4,0.6,0.4,0.6,0.4,0.6,1,0
,,5d612ae16512d700159face7,66fcb7b68087b127146101ac,2024-10-01_23h08.25.835,mdp,2024.2.1,Win32,59.88023952,66fa4ebf79326e780c390304,,,,,,,,,,,,,,,,,,,,,1160.9988,1160.9988,1161.0002,1162.0988,0,1,left,0.5685,,1162.1005,1163.1152,0,1,left,1163.117,1164.4988,1,0,right,1,1164.4989,1164.4989,1164.5003,1165.9987,0,12,12,12,1,0.2,0.8,0.6,0.4,,,,,,,,,,,,,,,0.4818,,0.6,0.4,0.2,0.8,0.8,0.2,0.8,0.2,,,0.8391,,0.6,0.4,0.4,0.6,0.4,0.6,0.4,0.6,1,0
,,5d612ae16512d700159face7,66fcb7b68087b127146101ac,2024-10-01_23h08.25.835,mdp,2024.2.1,Win32,59.88023952,66fa4ebf79326e780c390304,,,,,,,,,,,,,,,,,,,,,1165.9993,1165.9994,1166.0009,1167.3162,0,1,left,0.787,,1167.3177,1168.4327,0,1,left,1168.4343,1169.0994,1,0,right,1,1169.0996,1169.0996,1169.101,1170.5995,0,13,13,13,1,0.2,0.8,0.6,0.4,,,,,,,,,,,,,,,0.5838,,0.6,0.4,0.2,0.8,0.8,0.2,0.8,0.2,,,0.1514,,0.6,0.4,0.4,0.6,0.4,0.6,0.4,0.6,1,0
,,5d612ae16512d700159face7,66fcb7b68087b127146101ac,2024-10-01_23h08.25.835,mdp,2024.2.1,Win32,59.88023952,66fa4ebf79326e780c390304,,,,,,,,,,,,,,,,,,,,,1170.6001,1170.6001,1170.6016,1171.8166,1,1,right,0.6856,,1171.8182,1172.633,0,0,left,1172.6348,1173.5507,1,1,right,0,1173.5508,1173.5508,1173.5528,1175.0501,0,14,14,14,1,0.2,0.8,0.6,0.4,,,,,,,,,,,,,,,0.2835,,0.6,0.4,0.2,0.8,0.8,0.2,0.8,0.2,,,0.3804,,0.6,0.4,0.4,0.6,0.4,0.6,0.4,0.6,1,0
,,5d612ae16512d700159face7,66fcb7b68087b127146101ac,2024-10-01_23h08.25.835,mdp,2024.2.1,Win32,59.88023952,66fa4ebf79326e780c390304,,,,,,,,,,,,,,,,,,,,,1175.0508,1175.0509,1175.0522,1176.0003,0,0,left,0.4166,,1176.0022,1177.1504,1,1,right,1177.152,1177.9173,0,1,left,0,1177.9174,1177.9174,1177.9188,1179.4174,0,15,15,15,1,0.2,0.8,0.6,0.4,,,,,,,,,,,,,,,0.6111,,0.6,0.4,0.2,0.8,0.8,0.2,0.8,0.2,,,0.2262,,0.6,0.4,0.4,0.6,0.4,0.6,0.4,0.6,1,0
,,5d612ae16512d700159face7,66fcb7b68087b127146101ac,2024-10-01_23h08.25.835,mdp,2024.2.1,Win32,59.88023952,66fa4ebf79326e780c390304,,,,,,,,,,,,,,,,,,,,,1179.418,1179.418,1179.4195,1180.5848,1,0,right,0.638,,1180.5869,1181.5179,1,1,right,1181.5199,1182.3016,0,0,left,1,1182.3018,1182.3018,1182.3041,1183.8016,0,16,16,16,1,0.2,0.8,0.6,0.4,,,,,,,,,,,,,,,0.4083,,0.6,0.4,0.2,0.8,0.8,0.2,0.8,0.2,,,0.2524,,0.6,0.4,0.4,0.6,0.8,0.2,0.8,0.2,1,0
,,5d612ae16512d700159face7,66fcb7b68087b127146101ac,2024-10-01_23h08.25.835,mdp,2024.2.1,Win32,59.88023952,66fa4ebf79326e780c390304,,,,,,,,,,,,,,,,,,,,,1183.8024,1183.8025,1183.804,1184.4848,0,1,left,0.1466,,1184.4864,1185.2517,1,0,right,1185.2531,1186.1517,0,1,left,0,1186.1519,1186.1519,1186.1532,1187.6517,0,17,17,17,1,0.2,0.8,0.6,0.4,,,,,,,,,,,,,,,0.2275,,0.6,0.4,0.2,0.8,0.8,0.2,0.8,0.2,,,0.3585,,0.4,0.6,0.8,0.2,0.8,0.2,0.8,0.2,1,0
,,5d612ae16512d700159face7,66fcb7b68087b127146101ac,2024-10-01_23h08.25.835,mdp,2024.2.1,Win32,59.88023952,66fa4ebf79326e780c390304,,,,,,,,,,,,,,,,,,,,,1187.6526,1187.6526,1187.6538,1188.7858,0,0,left,0.6023,,1188.7879,1189.8523,0,0,left,1189.8538,1190.4859,1,0,right,1,1190.4861,1190.4861,1190.4877,1191.9858,0,18,18,18,1,0.2,0.8,0.6,0.4,,,,,,,,,,,,,,,0.5246,,0.6,0.4,0.2,0.8,0.8,0.2,0.8,0.2,,,0.1044,,0.4,0.6,0.8,0.2,0.8,0.2,0.8,0.2,1,0
,,5d612ae16512d700159face7,66fcb7b68087b127146101ac,2024-10-01_23h08.25.835,mdp,2024.2.1,Win32,59.88023952,66fa4ebf79326e780c390304,,,,,,,,,,,,,,,,,,,,,1191.9863,1191.9863,1191.9879,1192.8192,0,1,left,0.2996,,1192.8207,1193.6698,0,0,left,1193.6714,1194.32,1,0,right,1,1194.3202,1194.3202,1194.3217,1195.8194,0,19,19,19,1,0.2,0.8,0.6,0.4,,,,,,,,,,,,,,,0.3107,,0.6,0.4,0.2,0.8,0.8,0.2,0.8,0.2,,,0.1207,,0.4,0.6,0.8,0.2,0.8,0.2,0.8,0.2,1,0
,,5d612ae16512d700159face7,66fcb7b68087b127146101ac,2024-10-01_23h08.25.835,mdp,2024.2.1,Win32,59.88023952,66fa4ebf79326e780c390304,,,,,,,,,,,,,,,,,,,,,1195.82,1195.82,1195.8214,1196.8867,0,0,left,0.54,,1196.8891,1197.6366,0,0,left,1197.6381,1198.3038,1,0,right,1,1198.3038,1198.3038,1198.3055,1199.8036,0,20,20,20,1,0.2,0.8,0.6,0.4,,,,,,,,,,,,,,,0.2065,,0.6,0.4,0.2,0.8,0.8,0.2,0.8,0.2,,,0.1331,,0.4,0.6,0.8,0.2,0.8,0.2,0.8,0.2,1,0
,,5d612ae16512d700159face7,66fcb7b68087b127146101ac,2024-10-01_23h08.25.835,mdp,2024.2.1,Win32,59.88023952,66fa4ebf79326e780c390304,,,,,,,,,,,,,,,,,,,,,1199.8042,1199.8043,1199.8059,1200.6041,0,1,left,0.2665,,1200.606,1201.8374,0,1,left,1201.8395,1202.4708,1,0,right,1,1202.4708,1202.4708,1202.4723,1203.9706,0,21,21,21,1,0.2,0.8,0.6,0.4,,,,,,,,,,,,,,,0.6946,,0.6,0.4,0.2,0.8,0.8,0.2,0.8,0.2,,,0.0985,,0.4,0.6,0.8,0.2,0.8,0.2,0.8,0.2,1,0
,,5d612ae16512d700159face7,66fcb7b68087b127146101ac,2024-10-01_23h08.25.835,mdp,2024.2.1,Win32,59.88023952,66fa4ebf79326e780c390304,,,,,,,,,,,,,,,,,,,,,1203.9713,1203.9713,1203.9729,1205.2543,0,1,left,0.7473,,1205.2558,1205.9877,0,0,left,1205.9893,1206.7711,1,1,right,0,1206.7713,1206.7713,1206.7728,1208.2719,0,22,22,22,1,0.2,0.8,0.6,0.4,,,,,,,,,,,,,,,0.2056,,0.6,0.4,0.2,0.8,0.8,0.2,0.8,0.2,,,0.2455,,0.6,0.4,0.4,0.6,0.8,0.2,0.8,0.2,1,0
,,5d612ae16512d700159face7,66fcb7b68087b127146101ac,2024-10-01_23h08.25.835,mdp,2024.2.1,Win32,59.88023952,66fa4ebf79326e780c390304,,,,,,,,,,,,,,,,,,,,,1208.2733,1208.2733,1208.2748,1208.8713,1,0,right,0.0686,,1208.8728,1209.7554,0,0,left,1209.7572,1210.4384,1,0,right,1,1210.4386,1210.4386,1210.44,1211.9384,0,23,23,23,1,0.2,0.8,0.6,0.4,,,,,,,,,,,,,,,0.3474,,0.6,0.4,0.2,0.8,0.8,0.2,0.8,0.2,,,0.1499,,0.6,0.4,0.4,0.6,0.8,0.2,0.8,0.2,1,0
,,5d612ae16512d700159face7,66fcb7b68087b127146101ac,2024-10-01_23h08.25.835,mdp,2024.2.1,Win32,59.88023952,66fa4ebf79326e780c390304,,,,,,,,,,,,,,,,,,,,,1211.939,1211.9391,1211.9403,1213.0888,0,1,left,0.616,,1213.0902,1213.7221,1,0,right,1213.7235,1214.456,0,0,left,1,1214.4561,1214.4561,1214.4576,1215.9557,0,24,24,24,1,0.2,0.8,0.6,0.4,,,,,,,,,,,,,,,0.1013,,0.6,0.4,0.2,0.8,0.8,0.2,0.8,0.2,,,0.204,,0.6,0.4,0.4,0.6,0.8,0.2,0.8,0.2,1,0
,,5d612ae16512d700159face7,66fcb7b68087b127146101ac,2024-10-01_23h08.25.835,mdp,2024.2.1,Win32,59.88023952,66fa4ebf79326e780c390304,,,,,,,,,,,,,,,,,,,,,1215.9563,1215.9563,1215.9578,1217.1059,0,1,left,0.6146,,1217.1075,1217.8231,1,0,right,1217.8257,1218.6062,0,0,left,1,1218.6063,1218.6063,1218.6076,1220.1062,0,25,25,25,1,0.2,0.8,0.6,0.4,,,,,,,,,,,,,,,0.1841,,0.6,0.4,0.2,0.8,0.8,0.2,0.8,0.2,,,0.2473,,0.6,0.4,0.4,0.6,0.8,0.2,0.8,0.2,1,0
,,5d612ae16512d700159face7,66fcb7b68087b127146101ac,2024-10-01_23h08.25.835,mdp,2024.2.1,Win32,59.88023952,66fa4ebf79326e780c390304,,,,,,,,,,,,,,,,,,,,,1220.1068,1220.1069,1220.1085,1220.8735,0,1,left,0.2396,,1220.8755,1221.6399,1,0,right,1221.6413,1222.34,0,1,left,0,1222.3401,1222.3401,1222.3416,1223.84,0,26,26,26,1,0.2,0.8,0.6,0.4,,,,,,,,,,,,,,,0.2341,,0.6,0.4,0.2,0.8,0.8,0.2,0.8,0.2,,,0.1669,,0.6,0.4,0.4,0.6,0.8,0.2,0.8,0.2,1,0
,,5d612ae16512d700159face7,66fcb7b68087b127146101ac,2024-10-01_23h08.25.835,mdp,2024.2.1,Win32,59.88023952,66fa4ebf79326e780c390304,,,,,,,,,,,,,,,,,,,,,1223.8406,1223.8407,1223.8421,1224.774,0,0,left,0.404,,1224.7762,1225.4404,1,1,right,1225.4422,1226.1238,0,0,left,1,1226.124,1226.124,1226.1254,1227.624,0,27,27,27,1,0.2,0.8,0.6,0.4,,,,,,,,,,,,,,,0.1358,,0.6,0.4,0.2,0.8,0.8,0.2,0.8,0.2,,,0.152,,0.6,0.4,0.4,0.6,0.8,0.2,0.8,0.2,1,0
,,5d612ae16512d700159face7,66fcb7b68087b127146101ac,2024-10-01_23h08.25.835,mdp,2024.2.1,Win32,59.88023952,66fa4ebf79326e780c390304,,,,,,,,,,,,,,,,,,,,,1227.6245,1227.6246,1227.6263,1228.2909,0,0,left,0.1405,,1228.2924,1228.9408,1,1,right,1228.9423,1229.6244,0,0,left,1,1229.6245,1229.6245,1229.6258,1231.1243,0,28,28,28,1,0.2,0.8,0.6,0.4,,,,,,,,,,,,,,,0.1155,,0.6,0.4,0.2,0.8,0.8,0.2,0.8,0.2,,,0.1504,,0.6,0.4,0.4,0.6,0.8,0.2,0.8,0.2,1,0
,,5d612ae16512d700159face7,66fcb7b68087b127146101ac,2024-10-01_23h08.25.835,mdp,2024.2.1,Win32,59.88023952,66fa4ebf79326e780c390304,,,,,,,,,,,,,,,,,,,,,1231.1251,1231.1251,1231.1267,1231.725,0,1,left,0.0718,,1231.7269,1232.2749,1,0,right,1232.2769,1233.6916,0,0,left,1,1233.6917,1233.6917,1233.6931,1235.1919,0,29,29,29,1,0.2,0.8,0.6,0.4,,,,,,,,,,,,,,,0.0136,,0.6,0.4,0.2,0.8,0.8,0.2,0.8,0.2,,,0.8742,,0.6,0.4,0.4,0.6,0.8,0.2,0.8,0.2,1,0
,,5d612ae16512d700159face7,66fcb7b68087b127146101ac,2024-10-01_23h08.25.835,mdp,2024.2.1,Win32,59.88023952,66fa4ebf79326e780c390304,,,,,,,,,,,,,,,,,,,,,1235.1926,1235.1926,1235.1943,1236.7753,0,1,left,1.0515,,1236.7769,1237.4754,1,0,right,1237.4768,1238.0254,0,1,left,0,1238.0256,1238.0256,1238.027,1239.5256,0,30,30,30,1,0.2,0.8,0.6,0.4,,,,,,,,,,,,,,,0.1741,,0.2,0.8,0.8,0.2,0.8,0.2,0.8,0.2,,,0.0178,,0.6,0.4,0.4,0.6,0.8,0.2,0.8,0.2,1,0
,,5d612ae16512d700159face7,66fcb7b68087b127146101ac,2024-10-01_23h08.25.835,mdp,2024.2.1,Win32,59.88023952,66fa4ebf79326e780c390304,,,,,,,,,,,,,,,,,,,,,1239.5262,1239.5262,1239.5277,1240.1259,0,0,left,0.0705,,1240.1283,1241.143,1,0,right,1241.1448,1241.6761,0,0,left,1,1241.6761,1241.6762,1241.6775,1243.176,0,31,31,31,1,0.2,0.8,0.6,0.4,,,,,,,,,,,,,,,0.4772,0.0003,0.2,0.8,0.8,0.2,0.8,0.2,0.8,0.2,,,0.0071,,0.6,0.4,0.4,0.6,0.8,0.2,0.8,0.2,1,0
,,5d612ae16512d700159face7,66fcb7b68087b127146101ac,2024-10-01_23h08.25.835,mdp,2024.2.1,Win32,59.88023952,66fa4ebf79326e780c390304,,,,,,,,,,,,,,,,,,,,,1243.1766,1243.1766,1243.178,1243.8764,0,1,left,0.1717,,1243.8778,1244.5434,1,0,right,1244.5451,1245.1434,0,0,left,1,1245.1436,1245.1436,1245.1455,1246.6435,0,32,32,32,1,0.2,0.8,0.6,0.4,,,,,,,,,,,,,,,0.1308,,0.2,0.8,0.8,0.2,0.8,0.2,0.8,0.2,,,0.0742,,0.6,0.4,0.4,0.6,0.6,0.4,0.6,0.4,1,0
,,5d612ae16512d700159face7,66fcb7b68087b127146101ac,2024-10-01_23h08.25.835,mdp,2024.2.1,Win32,59.88023952,66fa4ebf79326e780c390304,,,,,,,,,,,,,,,,,,,,,1246.6446,1246.6446,1246.6465,1247.2607,0,1,left,0.0864,,1247.2623,1247.8268,1,0,right,1247.8282,1248.4104,0,0,left,1,1248.4104,1248.4105,1248.4118,1249.9104,0,33,33,33,1,0.2,0.8,0.6,0.4,,,,,,,,,,,,,,,0.0381,,0.2,0.8,0.8,0.2,0.8,0.2,0.8,0.2,,,0.0535,,0.6,0.4,0.4,0.6,0.6,0.4,0.6,0.4,1,0
,,5d612ae16512d700159face7,66fcb7b68087b127146101ac,2024-10-01_23h08.25.835,mdp,2024.2.1,Win32,59.88023952,66fa4ebf79326e780c390304,,,,,,,,,,,,,,,,,,,,,1249.9109,1249.911,1249.9124,1250.5441,0,0,left,0.1015,,1250.5459,1251.0787,1,0,right,1251.0806,1251.6608,0,0,left,1,1251.6609,1251.6609,1251.6624,1253.1607,0,34,34,34,1,0.2,0.8,0.6,0.4,,,,,,,,,,,,,,,0.0008,,0.2,0.8,0.8,0.2,0.8,0.2,0.8,0.2,,,0.0522,,0.6,0.4,0.4,0.6,0.6,0.4,0.6,0.4,1,0
,,5d612ae16512d700159face7,66fcb7b68087b127146101ac,2024-10-01_23h08.25.835,mdp,2024.2.1,Win32,59.88023952,66fa4ebf79326e780c390304,,,,,,,,,,,,,,,,,,,,,1253.1613,1253.1613,1253.1626,1253.9444,1,1,right,0.251,,1253.946,1254.5444,0,0,left,1254.5459,1255.0949,1,0,right,1,1255.095,1255.0951,1255.097,1256.5944,0,35,35,35,1,0.2,0.8,0.6,0.4,,,,,,,,,,,,,,,0.0574,,0.2,0.8,0.8,0.2,0.8,0.2,0.8,0.2,,,0.0213,,0.6,0.4,0.4,0.6,0.6,0.4,0.6,0.4,1,0
,,5d612ae16512d700159face7,66fcb7b68087b127146101ac,2024-10-01_23h08.25.835,mdp,2024.2.1,Win32,59.88023952,66fa4ebf79326e780c390304,,,,,,,,,,,,,,,,,,,,,1256.595,1256.595,1256.5965,1257.1287,0,1,left,0.0019,,1257.1304,1257.712,1,0,right,1257.7137,1258.2449,0,0,left,1,1258.245,1258.245,1258.2466,1259.7451,0,36,36,36,1,0.2,0.8,0.6,0.4,,,,,,,,,,,,,,,0.0503,,0.2,0.8,0.8,0.2,0.8,0.2,0.8,0.2,,,0.0006,,0.6,0.4,0.4,0.6,0.6,0.4,0.6,0.4,1,0
,,5d612ae16512d700159face7,66fcb7b68087b127146101ac,2024-10-01_23h08.25.835,mdp,2024.2.1,Win32,59.88023952,66fa4ebf79326e780c390304,,,,,,,,,,,,,,,,,,,,,1259.7457,1259.7457,1259.7474,1260.7454,1,0,right,0.4684,,1260.747,1261.2807,0,1,left,1261.2824,1261.9955,1,1,right,0,1261.9956,1261.9956,1261.9974,1263.4956,0,37,37,37,1,0.2,0.8,0.6,0.4,,,,,,,,,,,,,,,0.0008,,0.2,0.8,0.8,0.2,0.8,0.2,0.8,0.2,,,0.1851,,0.6,0.4,0.4,0.6,0.6,0.4,0.6,0.4,1,0
,,5d612ae16512d700159face7,66fcb7b68087b127146101ac,2024-10-01_23h08.25.835,mdp,2024.2.1,Win32,59.88023952,66fa4ebf79326e780c390304,,,,,,,,,,,,,,,,,,,,,1263.4962,1263.4963,1263.4979,1264.4958,1,1,right,0.4645,,1264.4973,1265.1962,0,1,left,1265.1978,1265.913,0,1,left,0,1265.9131,1265.9132,1265.9148,1267.4126,0,38,38,38,1,0.2,0.8,0.6,0.4,,,,,,,,,,,,,,,0.1642,,0.2,0.8,0.8,0.2,0.8,0.2,0.8,0.2,,,0.1933,,0.6,0.4,0.4,0.6,0.6,0.4,0.6,0.4,1,0
,,5d612ae16512d700159face7,66fcb7b68087b127146101ac,2024-10-01_23h08.25.835,mdp,2024.2.1,Win32,59.88023952,66fa4ebf79326e780c390304,,,,,,,,,,,,,,,,,,,,,1267.4133,1267.4134,1267.4146,1268.1795,0,1,left,0.2336,,1268.181,1268.93,0,0,left,1268.9317,1269.5801,1,1,right,0,1269.5803,1269.5803,1269.5819,1271.0801,0,39,39,39,1,0.2,0.8,0.6,0.4,,,,,,,,,,,,,,,0.2212,,0.2,0.8,0.8,0.2,0.8,0.2,0.8,0.2,,,0.1144,,0.6,0.4,0.4,0.6,0.6,0.4,0.6,0.4,1,0
,,5d612ae16512d700159face7,66fcb7b68087b127146101ac,2024-10-01_23h08.25.835,mdp,2024.2.1,Win32,59.88023952,66fa4ebf79326e780c390304,,,,,,,,,,,,,,,,,,,,,1271.0812,1271.0812,1271.083,1271.9306,1,0,right,0.3254,,1271.9319,1272.5303,0,0,left,1272.5318,1273.8636,1,0,right,1,1273.8637,1273.8637,1273.8652,1275.3642,0,40,40,40,1,0.2,0.8,0.6,0.4,,,,,,,,,,,,,,,0.0606,,0.2,0.8,0.8,0.2,0.8,0.2,0.8,0.2,,,0.7966,,0.6,0.4,0.4,0.6,0.6,0.4,0.6,0.4,1,0
,,5d612ae16512d700159face7,66fcb7b68087b127146101ac,2024-10-01_23h08.25.835,mdp,2024.2.1,Win32,59.88023952,66fa4ebf79326e780c390304,,,,,,,,,,,,,,,,,,,,,1275.3648,1275.3648,1275.3663,1275.9808,0,0,left,0.0812,,1275.9822,1276.5307,1,1,right,1276.5322,1277.2478,0,0,left,1,1277.2479,1277.2479,1277.2495,1278.7474,0,41,41,41,1,0.2,0.8,0.6,0.4,,,,,,,,,,,,,,,0.0131,,0.4,0.6,0.6,0.4,0.8,0.2,0.8,0.2,,,0.1844,,0.6,0.4,0.4,0.6,0.6,0.4,0.6,0.4,1,0
,,5d612ae16512d700159face7,66fcb7b68087b127146101ac,2024-10-01_23h08.25.835,mdp,2024.2.1,Win32,59.88023952,66fa4ebf79326e780c390304,,,,,,,,,,,,,,,,,,,,,1278.748,1278.748,1278.7494,1279.748,1,0,right,0.4697,,1279.7497,1280.315,0,1,left,1280.317,1280.8814,1,1,right,0,1280.8815,1280.8815,1280.8828,1282.3812,0,42,42,42,1,0.2,0.8,0.6,0.4,,,,,,,,,,,,,,,0.0374,,0.4,0.6,0.6,0.4,0.8,0.2,0.8,0.2,,,0.0374,,0.6,0.4,0.4,0.6,0.6,0.4,0.6,0.4,1,0
,,5d612ae16512d700159face7,66fcb7b68087b127146101ac,2024-10-01_23h08.25.835,mdp,2024.2.1,Win32,59.88023952,66fa4ebf79326e780c390304,,,,,,,,,,,,,,,,,,,,,1282.3818,1282.3818,1282.3834,1282.9819,1,1,right,0.0706,,1282.9841,1283.5983,1,0,right,1283.5999,1284.1489,0,0,left,1,1284.149,1284.149,1284.1506,1285.6485,0,43,43,43,1,0.2,0.8,0.6,0.4,,,,,,,,,,,,,,,0.073,,0.4,0.6,0.6,0.4,0.8,0.2,0.8,0.2,,,0.0147,,0.6,0.4,0.4,0.6,0.6,0.4,0.6,0.4,1,0
,,5d612ae16512d700159face7,66fcb7b68087b127146101ac,2024-10-01_23h08.25.835,mdp,2024.2.1,Win32,59.88023952,66fa4ebf79326e780c390304,,,,,,,,,,,,,,,,,,,,,1285.6492,1285.6492,1285.6506,1286.5992,1,0,right,0.4172,,1286.6009,1287.2491,0,1,left,1287.2509,1287.8156,1,1,right,0,1287.8157,1287.8157,1287.8171,1289.3158,0,44,44,44,1,0.2,0.8,0.6,0.4,,,,,,,,,,,,,,,0.116,,0.4,0.6,0.6,0.4,0.8,0.2,0.8,0.2,,,0.0286,,0.6,0.4,0.4,0.6,0.6,0.4,0.6,0.4,1,0
,,5d612ae16512d700159face7,66fcb7b68087b127146101ac,2024-10-01_23h08.25.835,mdp,2024.2.1,Win32,59.88023952,66fa4ebf79326e780c390304,,,,,,,,,,,,,,,,,,,,,1289.317,1289.317,1289.3186,1290.0829,0,1,left,0.2374,,1290.0846,1290.7493,1,0,right,1290.7507,1292.0831,0,0,left,1,1292.0833,1292.0833,1292.085,1293.583,0,45,45,45,1,0.2,0.8,0.6,0.4,,,,,,,,,,,,,,,0.1268,,0.4,0.6,0.6,0.4,0.8,0.2,0.8,0.2,,,0.8,,0.6,0.4,0.4,0.6,0.6,0.4,0.6,0.4,1,0
,,5d612ae16512d700159face7,66fcb7b68087b127146101ac,2024-10-01_23h08.25.835,mdp,2024.2.1,Win32,59.88023952,66fa4ebf79326e780c390304,,,,,,,,,,,,,,,,,,,,,1293.5839,1293.5839,1293.5852,1294.2165,0,1,left,0.1089,,1294.218,1294.7833,1,0,right,1294.7849,1295.9501,1,0,right,1,1295.9502,1295.9502,1295.9517,1297.4504,0,46,46,46,1,0.2,0.8,0.6,0.4,,,,,,,,,,,,,,,0.0363,,0.4,0.6,0.6,0.4,0.8,0.2,0.8,0.2,,,0.6311,,0.6,0.4,0.4,0.6,0.6,0.4,0.6,0.4,1,0
,,5d612ae16512d700159face7,66fcb7b68087b127146101ac,2024-10-01_23h08.25.835,mdp,2024.2.1,Win32,59.88023952,66fa4ebf79326e780c390304,,,,,,,,,,,,,,,,,,,,,1297.4511,1297.4511,1297.4529,1298.4341,1,0,right,0.4507,,1298.4365,1299.3839,1,1,right,1299.3853,1300.7512,0,1,left,0,1300.7514,1300.7514,1300.7536,1302.2509,0,47,47,47,1,0.2,0.8,0.6,0.4,,,,,,,,,,,,,,,0.4064,,0.4,0.6,0.6,0.4,0.8,0.2,0.8,0.2,,,0.8315,,0.8,0.2,0.2,0.8,0.6,0.4,0.6,0.4,1,0
,,5d612ae16512d700159face7,66fcb7b68087b127146101ac,2024-10-01_23h08.25.835,mdp,2024.2.1,Win32,59.88023952,66fa4ebf79326e780c390304,,,,,,,,,,,,,,,,,,,,,1302.2518,1302.2518,1302.2536,1303.7011,0,1,left,0.9181,,1303.7026,1304.4011,0,1,left,1304.4026,1305.268,0,1,left,0,1305.2681,1305.2681,1305.2695,1306.7682,0,48,48,48,1,0.2,0.8,0.6,0.4,,,,,,,,,,,,,,,0.1563,,0.4,0.6,0.6,0.4,0.8,0.2,0.8,0.2,,,0.338,,0.8,0.2,0.2,0.8,0.6,0.4,0.6,0.4,1,0
,,5d612ae16512d700159face7,66fcb7b68087b127146101ac,2024-10-01_23h08.25.835,mdp,2024.2.1,Win32,59.88023952,66fa4ebf79326e780c390304,,,,,,,,,,,,,,,,,,,,,1306.7694,1306.7694,1306.7708,1307.485,0,0,left,0.1867,,1307.4865,1308.0354,1,1,right,1308.0367,1309.6351,1,0,right,1,1309.6353,1309.6354,1309.6366,1311.1355,0,49,49,49,1,0.2,0.8,0.6,0.4,,,,,,,,,,,,,,,0.0167,,0.4,0.6,0.6,0.4,0.8,0.2,0.8,0.2,,,1.0763,0.0002,0.8,0.2,0.2,0.8,0.6,0.4,0.6,0.4,1,0
,,5d612ae16512d700159face7,66fcb7b68087b127146101ac,2024-10-01_23h08.25.835,mdp,2024.2.1,Win32,59.88023952,66fa4ebf79326e780c390304,,,,,,,,,,,,,,,,,,,,,,,,,,,,,,,,,,,,,,,,,,,,,,,,,,,,,,,,1311.1357,1369.6435,0,3,3,2,1,imgs/lion.png,imgs/elephant.png,imgs/goat.png,imgs/giraffe.png,imgs/squirrel.png,,,,,,,,,,,,,,,,,,,,,,,,
,,5d612ae16512d700159face7,66fcb7b68087b127146101ac,2024-10-01_23h08.25.835,mdp,2024.2.1,Win32,59.88023952,66fa4ebf79326e780c390304,,,,,,,,,,,,,,1,seqs/st1seq36.csv,1369.6455,1429.1517,space,58.9751,,1429.1563,1429.1564,1429.1578,1431.5353,1,0,right,1.8432,,1431.537,1431.5378,1,0,,1431.5388,1431.5395,1,1,,1,1431.5396,1431.5396,1431.5402,1433.0353,0,0,0,0,1,0.6,0.4,0.4,0.6,1,0,,,,,,,,,,,,,,,,,,,,,,,,,,,,,,,,,,,,
,,5d612ae16512d700159face7,66fcb7b68087b127146101ac,2024-10-01_23h08.25.835,mdp,2024.2.1,Win32,59.88023952,66fa4ebf79326e780c390304,,,,,,,,,,,,,,,,,,,,,1433.0358,1433.0358,1433.0374,1434.0027,0,1,left,0.4372,,1434.0051,1434.006,1,0,,1434.0069,1434.0077,1,0,,0,1434.0079,1434.0079,1434.0085,1435.5026,0,1,1,1,1,0.6,0.4,0.4,0.6,1,0,,,,,,,,,,,,,,,,,,,,,,,,,,,,,,,,,,,,
,,5d612ae16512d700159face7,66fcb7b68087b127146101ac,2024-10-01_23h08.25.835,mdp,2024.2.1,Win32,59.88023952,66fa4ebf79326e780c390304,,,,,,,,,,,,,,,,,,,,,1435.5032,1435.5032,1435.5051,1436.6193,0,1,left,0.5849,,1436.6207,1436.6217,1,0,,1436.6224,1436.6232,1,0,,0,1436.6232,1436.6232,1436.6237,1438.1195,0,2,2,2,1,0.4,0.6,0.8,0.2,1,0,,,,,,,,,,,,,,,,,,,,,,,,,,,,,,,,,,,,
,,5d612ae16512d700159face7,66fcb7b68087b127146101ac,2024-10-01_23h08.25.835,mdp,2024.2.1,Win32,59.88023952,66fa4ebf79326e780c390304,,,,,,,,,,,,,,,,,,,,,1438.1201,1438.1201,1438.122,1438.8028,1,0,right,0.1513,,1438.8046,1438.8054,1,0,,1438.806,1438.8066,1,0,,1,1438.8066,1438.8066,1438.8072,1440.3029,0,3,3,3,1,0.4,0.6,0.8,0.2,1,0,,,,,,,,,,,,,,,,,,,,,,,,,,,,,,,,,,,,
,,5d612ae16512d700159face7,66fcb7b68087b127146101ac,2024-10-01_23h08.25.835,mdp,2024.2.1,Win32,59.88023952,66fa4ebf79326e780c390304,,,,,,,,,,,,,,,,,,,,,1440.3034,1440.3034,1440.3047,1441.4366,1,0,right,0.604,,1441.438,1441.4387,1,0,,1441.4394,1441.4397,1,0,,1,1441.4397,1441.4397,1441.4401,1442.9367,0,4,4,4,1,0.4,0.6,0.8,0.2,1,0,,,,,,,,,,,,,,,,,,,,,,,,,,,,,,,,,,,,
,,5d612ae16512d700159face7,66fcb7b68087b127146101ac,2024-10-01_23h08.25.835,mdp,2024.2.1,Win32,59.88023952,66fa4ebf79326e780c390304,,,,,,,,,,,,,,,,,,,,,1442.9371,1442.9372,1442.9387,1444.0873,1,0,right,0.6208,,1444.089,1444.0901,1,0,,1444.0914,1444.092,1,0,,1,1444.0921,1444.0921,1444.0925,1445.5874,0,5,5,5,1,0.4,0.6,0.8,0.2,1,0,,,,,,,,,,,,,,,,,,,,,,,,,,,,,,,,,,,,
,,5d612ae16512d700159face7,66fcb7b68087b127146101ac,2024-10-01_23h08.25.835,mdp,2024.2.1,Win32,59.88023952,66fa4ebf79326e780c390304,,,,,,,,,,,,,,,,,,,,,1445.5881,1445.5881,1445.5896,1446.8539,1,0,right,0.7337,,1446.8556,1446.8565,1,0,,1446.8573,1446.8576,1,0,,1,1446.8576,1446.8576,1446.8582,1448.3541,0,6,6,6,1,0.4,0.6,0.8,0.2,1,0,,,,,,,,,,,,,,,,,,,,,,,,,,,,,,,,,,,,
,,5d612ae16512d700159face7,66fcb7b68087b127146101ac,2024-10-01_23h08.25.835,mdp,2024.2.1,Win32,59.88023952,66fa4ebf79326e780c390304,,,,,,,,,,,,,,,,,,,,,1448.3546,1448.3546,1448.3559,1449.923,1,0,right,1.0449,0.0003,1449.9243,1449.9252,1,1,,1449.9259,1449.9266,1,1,,1,1449.9267,1449.9267,1449.9273,1451.4214,0,7,7,7,1,0.4,0.6,0.8,0.2,1,0,,,,,,,,,,,,,,,,,,,,,,,,,,,,,,,,,,,,
,,5d612ae16512d700159face7,66fcb7b68087b127146101ac,2024-10-01_23h08.25.835,mdp,2024.2.1,Win32,59.88023952,66fa4ebf79326e780c390304,,,,,,,,,,,,,,,,,,,,,1451.4221,1451.4221,1451.4236,1452.5548,1,0,right,0.6023,,1452.5563,1452.5569,1,1,,1452.5577,1452.5582,1,0,,1,1452.5583,1452.5583,1452.5589,1454.0549,0,8,8,8,1,0.4,0.6,0.8,0.2,1,0,,,,,,,,,,,,,,,,,,,,,,,,,,,,,,,,,,,,
,,5d612ae16512d700159face7,66fcb7b68087b127146101ac,2024-10-01_23h08.25.835,mdp,2024.2.1,Win32,59.88023952,66fa4ebf79326e780c390304,,,,,,,,,,,,,,,,,,,,,1454.0556,1454.0556,1454.0572,1455.172,1,1,right,0.5854,,1455.1733,1455.1741,1,0,,1455.175,1455.1759,1,0,,0,1455.176,1455.176,1455.1766,1456.6719,0,9,9,9,1,0.4,0.6,0.8,0.2,1,0,,,,,,,,,,,,,,,,,,,,,,,,,,,,,,,,,,,,
,,5d612ae16512d700159face7,66fcb7b68087b127146101ac,2024-10-01_23h08.25.835,mdp,2024.2.1,Win32,59.88023952,66fa4ebf79326e780c390304,,,,,,,,,,,,,,,,,,,,,1456.6723,1456.6723,1456.6739,1457.3552,0,0,left,0.151,,1457.3568,1457.3575,1,0,,1457.3585,1457.3597,1,1,,1,1457.3597,1457.3598,1457.3607,1458.8554,0,10,10,10,1,0.2,0.8,0.6,0.4,1,0,,,,,,,,,,,,,,,,,,,,,,,,,,,,,,,,,,,,
,,5d612ae16512d700159face7,66fcb7b68087b127146101ac,2024-10-01_23h08.25.835,mdp,2024.2.1,Win32,59.88023952,66fa4ebf79326e780c390304,,,,,,,,,,,,,,,,,,,,,1458.856,1458.856,1458.8574,1459.9059,0,1,left,0.5163,,1459.9072,1459.9081,1,1,,1459.909,1459.9097,1,0,,0,1459.9098,1459.9098,1459.9106,1461.4057,0,11,11,11,1,0.2,0.8,0.6,0.4,1,0,,,,,,,,,,,,,,,,,,,,,,,,,,,,,,,,,,,,
,,5d612ae16512d700159face7,66fcb7b68087b127146101ac,2024-10-01_23h08.25.835,mdp,2024.2.1,Win32,59.88023952,66fa4ebf79326e780c390304,,,,,,,,,,,,,,,,,,,,,1461.4063,1461.4063,1461.408,1462.2726,1,0,right,0.3333,,1462.2742,1462.2752,1,1,,1462.2763,1462.2772,1,1,,1,1462.2772,1462.2773,1462.2782,1463.7734,0,12,12,12,1,0.2,0.8,0.6,0.4,1,0,,,,,,,,,,,,,,,,,,,,,,,,,,,,,,,,,,,,
,,5d612ae16512d700159face7,66fcb7b68087b127146101ac,2024-10-01_23h08.25.835,mdp,2024.2.1,Win32,59.88023952,66fa4ebf79326e780c390304,,,,,,,,,,,,,,,,,,,,,1463.7741,1463.7742,1463.7763,1464.8902,1,0,right,0.5894,,1464.8919,1464.8931,1,1,,1464.8944,1464.8953,1,0,,1,1464.8953,1464.8954,1464.8962,1466.3902,0,13,13,13,1,0.2,0.8,0.6,0.4,1,0,,,,,,,,,,,,,,,,,,,,,,,,,,,,,,,,,,,,
,,5d612ae16512d700159face7,66fcb7b68087b127146101ac,2024-10-01_23h08.25.835,mdp,2024.2.1,Win32,59.88023952,66fa4ebf79326e780c390304,,,,,,,,,,,,,,,,,,,,,1466.3908,1466.3909,1466.3924,1467.5239,0,1,left,0.6057,,1467.5256,1467.5264,1,1,,1467.5274,1467.5283,1,1,,0,1467.5283,1467.5283,1467.529,1469.0235,0,14,14,14,1,0.2,0.8,0.6,0.4,1,0,,,,,,,,,,,,,,,,,,,,,,,,,,,,,,,,,,,,
,,5d612ae16512d700159face7,66fcb7b68087b127146101ac,2024-10-01_23h08.25.835,mdp,2024.2.1,Win32,59.88023952,66fa4ebf79326e780c390304,,,,,,,,,,,,,,,,,,,,,1469.0241,1469.0241,1469.0255,1470.9409,1,1,right,1.3877,,1470.9426,1470.9435,1,1,,1470.9444,1470.9452,1,0,,0,1470.9452,1470.9452,1470.946,1472.4406,0,15,15,15,1,0.2,0.8,0.6,0.4,1,0,,,,,,,,,,,,,,,,,,,,,,,,,,,,,,,,,,,,
,,5d612ae16512d700159face7,66fcb7b68087b127146101ac,2024-10-01_23h08.25.835,mdp,2024.2.1,Win32,59.88023952,66fa4ebf79326e780c390304,,,,,,,,,,,,,,,,,,,,,1472.4411,1472.4411,1472.4425,1473.0576,0,0,left,0.0834,,1473.059,1473.0599,1,0,,1473.0608,1473.0619,1,0,,1,1473.0619,1473.0619,1473.0629,1474.5579,0,16,16,16,1,0.8,0.2,0.2,0.8,1,0,,,,,,,,,,,,,,,,,,,,,,,,,,,,,,,,,,,,
,,5d612ae16512d700159face7,66fcb7b68087b127146101ac,2024-10-01_23h08.25.835,mdp,2024.2.1,Win32,59.88023952,66fa4ebf79326e780c390304,,,,,,,,,,,,,,,,,,,,,1474.5584,1474.5585,1474.5604,1475.8914,0,0,left,0.799,,1475.8929,1475.8937,1,1,,1475.8944,1475.8947,1,0,,1,1475.8947,1475.8948,1475.8954,1477.3913,0,17,17,17,1,0.8,0.2,0.2,0.8,1,0,,,,,,,,,,,,,,,,,,,,,,,,,,,,,,,,,,,,
,,5d612ae16512d700159face7,66fcb7b68087b127146101ac,2024-10-01_23h08.25.835,mdp,2024.2.1,Win32,59.88023952,66fa4ebf79326e780c390304,,,,,,,,,,,,,,,,,,,,,1477.3919,1477.3919,1477.3934,1479.1425,0,0,left,1.2231,,1479.1442,1479.1451,1,0,,1479.146,1479.1468,1,0,,1,1479.1469,1479.1469,1479.1476,1480.6419,0,18,18,18,1,0.8,0.2,0.2,0.8,1,0,,,,,,,,,,,,,,,,,,,,,,,,,,,,,,,,,,,,
,,5d612ae16512d700159face7,66fcb7b68087b127146101ac,2024-10-01_23h08.25.835,mdp,2024.2.1,Win32,59.88023952,66fa4ebf79326e780c390304,,,,,,,,,,,,,,,,,,,,,1480.6426,1480.6426,1480.6441,1481.8421,0,0,left,0.6711,,1481.8439,1481.8446,1,0,,1481.8453,1481.8458,1,0,,1,1481.8458,1481.8458,1481.8463,1483.3422,0,19,19,19,1,0.8,0.2,0.2,0.8,1,0,,,,,,,,,,,,,,,,,,,,,,,,,,,,,,,,,,,,
,,5d612ae16512d700159face7,66fcb7b68087b127146101ac,2024-10-01_23h08.25.835,mdp,2024.2.1,Win32,59.88023952,66fa4ebf79326e780c390304,,,,,,,,,,,,,,,,,,,,,1483.3429,1483.3429,1483.3443,1484.709,0,0,left,0.8337,,1484.7105,1484.7114,1,0,,1484.7122,1484.7128,1,0,,1,1484.7128,1484.7128,1484.7134,1486.2091,0,20,20,20,1,0.8,0.2,0.2,0.8,1,0,,,,,,,,,,,,,,,,,,,,,,,,,,,,,,,,,,,,
,,5d612ae16512d700159face7,66fcb7b68087b127146101ac,2024-10-01_23h08.25.835,mdp,2024.2.1,Win32,59.88023952,66fa4ebf79326e780c390304,,,,,,,,,,,,,,,,,,,,,1486.2097,1486.2098,1486.2111,1487.61,0,0,left,0.8707,,1487.6121,1487.6129,1,0,,1487.614,1487.6148,1,0,,1,1487.6148,1487.6148,1487.6156,1489.11,0,21,21,21,1,0.8,0.2,0.2,0.8,1,0,,,,,,,,,,,,,,,,,,,,,,,,,,,,,,,,,,,,
,,5d612ae16512d700159face7,66fcb7b68087b127146101ac,2024-10-01_23h08.25.835,mdp,2024.2.1,Win32,59.88023952,66fa4ebf79326e780c390304,,,,,,,,,,,,,,,,,,,,,1489.1105,1489.1105,1489.1124,1490.2765,0,1,left,0.6345,,1490.278,1490.2787,1,0,,1490.2794,1490.2798,1,1,,0,1490.2799,1490.2799,1490.2803,1491.7767,0,22,22,22,1,0.8,0.2,0.2,0.8,1,0,,,,,,,,,,,,,,,,,,,,,,,,,,,,,,,,,,,,
,,5d612ae16512d700159face7,66fcb7b68087b127146101ac,2024-10-01_23h08.25.835,mdp,2024.2.1,Win32,59.88023952,66fa4ebf79326e780c390304,,,,,,,,,,,,,,,,,,,,,1491.7772,1491.7772,1491.7786,1493.9775,1,1,right,1.6679,,1493.9792,1493.9802,1,1,,1493.9812,1493.9821,1,0,,0,1493.9822,1493.9822,1493.9831,1495.4774,0,23,23,23,1,0.8,0.2,0.2,0.8,1,0,,,,,,,,,,,,,,,,,,,,,,,,,,,,,,,,,,,,
,,5d612ae16512d700159face7,66fcb7b68087b127146101ac,2024-10-01_23h08.25.835,mdp,2024.2.1,Win32,59.88023952,66fa4ebf79326e780c390304,,,,,,,,,,,,,,,,,,,,,1495.478,1495.478,1495.4802,1497.0942,0,1,left,1.0805,,1497.0958,1497.0967,1,0,,1497.0978,1497.0986,1,0,,0,1497.0988,1497.0988,1497.0996,1498.5944,0,24,24,24,1,0.8,0.2,0.2,0.8,1,0,,,,,,,,,,,,,,,,,,,,,,,,,,,,,,,,,,,,
,,5d612ae16512d700159face7,66fcb7b68087b127146101ac,2024-10-01_23h08.25.835,mdp,2024.2.1,Win32,59.88023952,66fa4ebf79326e780c390304,,,,,,,,,,,,,,,,,,,,,1498.5949,1498.5949,1498.5967,1500.7614,1,1,right,1.6401,,1500.7628,1500.7635,1,1,,1500.7641,1500.7645,1,1,,0,1500.7645,1500.7645,1500.765,1502.2617,0,25,25,25,1,0.8,0.2,0.2,0.8,1,0,,,,,,,,,,,,,,,,,,,,,,,,,,,,,,,,,,,,
,,5d612ae16512d700159face7,66fcb7b68087b127146101ac,2024-10-01_23h08.25.835,mdp,2024.2.1,Win32,59.88023952,66fa4ebf79326e780c390304,,,,,,,,,,,,,,,,,,,,,1502.2621,1502.2621,1502.2636,1502.7948,0,0,left,0.0082,,1502.7964,1502.797,1,0,,1502.7977,1502.798,1,0,,1,1502.798,1502.798,1502.7984,1504.2953,0,26,26,26,1,0.8,0.2,0.2,0.8,1,0,,,,,,,,,,,,,,,,,,,,,,,,,,,,,,,,,,,,
,,5d612ae16512d700159face7,66fcb7b68087b127146101ac,2024-10-01_23h08.25.835,mdp,2024.2.1,Win32,59.88023952,66fa4ebf79326e780c390304,,,,,,,,,,,,,,,,,,,,,1504.2961,1504.2961,1504.298,1505.3288,0,1,left,0.5037,,1505.3302,1505.3312,1,0,,1505.332,1505.3332,1,1,,0,1505.3334,1505.3334,1505.3343,1506.8286,0,27,27,27,1,0.8,0.2,0.2,0.8,1,0,,,,,,,,,,,,,,,,,,,,,,,,,,,,,,,,,,,,
,,5d612ae16512d700159face7,66fcb7b68087b127146101ac,2024-10-01_23h08.25.835,mdp,2024.2.1,Win32,59.88023952,66fa4ebf79326e780c390304,,,,,,,,,,,,,,,,,,,,,1506.8292,1506.8292,1506.8306,1507.3958,1,0,right,0.0339,,1507.3972,1507.3981,1,1,,1507.3992,1507.4001,1,0,,1,1507.4002,1507.4002,1507.4008,1508.8959,0,28,28,28,1,0.8,0.2,0.2,0.8,1,0,,,,,,,,,,,,,,,,,,,,,,,,,,,,,,,,,,,,
,,5d612ae16512d700159face7,66fcb7b68087b127146101ac,2024-10-01_23h08.25.835,mdp,2024.2.1,Win32,59.88023952,66fa4ebf79326e780c390304,,,,,,,,,,,,,,,,,,,,,1508.8965,1508.8966,1508.8981,1510.3796,0,0,left,0.9477,,1510.381,1510.3819,1,1,,1510.3825,1510.3831,1,1,,1,1510.3831,1510.3831,1510.3839,1511.8797,0,29,29,29,1,0.4,0.6,0.8,0.2,1,0,,,,,,,,,,,,,,,,,,,,,,,,,,,,,,,,,,,,
,,5d612ae16512d700159face7,66fcb7b68087b127146101ac,2024-10-01_23h08.25.835,mdp,2024.2.1,Win32,59.88023952,66fa4ebf79326e780c390304,,,,,,,,,,,,,,,,,,,,,1511.8803,1511.8803,1511.882,1513.0466,0,0,left,0.6426,,1513.0482,1513.0493,1,1,,1513.0506,1513.0515,1,1,,1,1513.0515,1513.0515,1513.0524,1514.5464,0,30,30,30,1,0.4,0.6,0.8,0.2,1,0,,,,,,,,,,,,,,,,,,,,,,,,,,,,,,,,,,,,
,,5d612ae16512d700159face7,66fcb7b68087b127146101ac,2024-10-01_23h08.25.835,mdp,2024.2.1,Win32,59.88023952,66fa4ebf79326e780c390304,,,,,,,,,,,,,,,,,,,,,1514.5469,1514.5469,1514.5484,1516.2802,0,1,left,1.2082,,1516.2817,1516.2826,1,1,,1516.2833,1516.2842,1,0,,0,1516.2842,1516.2842,1516.2848,1517.7803,0,31,31,31,1,0.4,0.6,0.8,0.2,1,0,,,,,,,,,,,,,,,,,,,,,,,,,,,,,,,,,,,,
,,5d612ae16512d700159face7,66fcb7b68087b127146101ac,2024-10-01_23h08.25.835,mdp,2024.2.1,Win32,59.88023952,66fa4ebf79326e780c390304,,,,,,,,,,,,,,,,,,,,,1517.7809,1517.7809,1517.7824,1519.414,0,0,left,1.0986,,1519.4155,1519.4164,1,1,,1519.4176,1519.4183,1,0,,1,1519.4184,1519.4184,1519.4191,1520.9139,0,32,32,32,1,0.4,0.6,0.8,0.2,1,0,,,,,,,,,,,,,,,,,,,,,,,,,,,,,,,,,,,,
,,5d612ae16512d700159face7,66fcb7b68087b127146101ac,2024-10-01_23h08.25.835,mdp,2024.2.1,Win32,59.88023952,66fa4ebf79326e780c390304,,,,,,,,,,,,,,,,,,,,,1520.9145,1520.9145,1520.9158,1522.5478,0,1,left,1.1021,,1522.5494,1522.5503,1,0,,1522.5512,1522.5521,1,1,,0,1522.5522,1522.5522,1522.5528,1524.0479,0,33,33,33,1,0.6,0.4,0.4,0.6,1,0,,,,,,,,,,,,,,,,,,,,,,,,,,,,,,,,,,,,
,,5d612ae16512d700159face7,66fcb7b68087b127146101ac,2024-10-01_23h08.25.835,mdp,2024.2.1,Win32,59.88023952,66fa4ebf79326e780c390304,,,,,,,,,,,,,,,,,,,,,1524.0486,1524.0486,1524.05,1525.5981,0,0,left,1.0195,,1525.5995,1525.6005,1,0,,1525.6016,1525.6025,1,0,,1,1525.6025,1525.6025,1525.6034,1527.0981,0,34,34,34,1,0.8,0.2,0.2,0.8,1,0,,,,,,,,,,,,,,,,,,,,,,,,,,,,,,,,,,,,
,,5d612ae16512d700159face7,66fcb7b68087b127146101ac,2024-10-01_23h08.25.835,mdp,2024.2.1,Win32,59.88023952,66fa4ebf79326e780c390304,,,,,,,,,,,,,,,,,,,,,1527.0987,1527.0987,1527.1004,1528.3318,0,0,left,0.707,,1528.3335,1528.3343,1,0,,1528.3349,1528.3352,1,0,,1,1528.3353,1528.3353,1528.3359,1529.8319,0,35,35,35,1,0.8,0.2,0.2,0.8,1,0,,,,,,,,,,,,,,,,,,,,,,,,,,,,,,,,,,,,
,,5d612ae16512d700159face7,66fcb7b68087b127146101ac,2024-10-01_23h08.25.835,mdp,2024.2.1,Win32,59.88023952,66fa4ebf79326e780c390304,,,,,,,,,,,,,,,,,,,,,1529.8325,1529.8325,1529.8338,1530.9823,0,0,left,0.6193,,1530.9838,1530.9849,1,0,,1530.9862,1530.9871,1,0,,1,1530.9871,1530.9871,1530.9878,1532.4824,0,36,36,36,1,0.8,0.2,0.2,0.8,1,0,,,,,,,,,,,,,,,,,,,,,,,,,,,,,,,,,,,,
,,5d612ae16512d700159face7,66fcb7b68087b127146101ac,2024-10-01_23h08.25.835,mdp,2024.2.1,Win32,59.88023952,66fa4ebf79326e780c390304,,,,,,,,,,,,,,,,,,,,,1532.4829,1532.4829,1532.485,1533.6331,0,0,left,0.6188,,1533.6354,1533.6363,1,0,,1533.6372,1533.638,1,0,,1,1533.6381,1533.6381,1533.6388,1535.1325,0,37,37,37,1,0.8,0.2,0.2,0.8,1,0,,,,,,,,,,,,,,,,,,,,,,,,,,,,,,,,,,,,
,,5d612ae16512d700159face7,66fcb7b68087b127146101ac,2024-10-01_23h08.25.835,mdp,2024.2.1,Win32,59.88023952,66fa4ebf79326e780c390304,,,,,,,,,,,,,,,,,,,,,1535.1331,1535.1331,1535.1349,1535.9332,0,0,left,0.2696,,1535.9349,1535.9359,1,0,,1535.9368,1535.9378,1,1,,1,1535.9379,1535.9379,1535.9388,1537.4328,0,38,38,38,1,0.8,0.2,0.2,0.8,1,0,,,,,,,,,,,,,,,,,,,,,,,,,,,,,,,,,,,,
,,5d612ae16512d700159face7,66fcb7b68087b127146101ac,2024-10-01_23h08.25.835,mdp,2024.2.1,Win32,59.88023952,66fa4ebf79326e780c390304,,,,,,,,,,,,,,,,,,,,,1537.4334,1537.4334,1537.4348,1538.65,0,0,left,0.6838,,1538.6519,1538.6526,1,0,,1538.6532,1538.6537,1,0,,1,1538.6537,1538.6537,1538.6543,1540.1499,0,39,39,39,1,0.8,0.2,0.2,0.8,1,0,,,,,,,,,,,,,,,,,,,,,,,,,,,,,,,,,,,,
