init_exp.started,init_exp.stopped,participant,session,date,expName,psychopyVersion,OS,frameRate,study_id,disp_instruction.started,disp_instruction.stopped,instruction.thisRepN,instruction.thisTrialN,instruction.thisN,instruction.thisIndex,instruction.ran,instimg_path,consent.started,consent.stopped,key_resp_3.keys,key_resp_3.rt,key_resp_3.duration,n_steps,sequence_path,init_block.started,init_block.stopped,key_resp.keys,key_resp.rt,key_resp.duration,init_trials.started,init_trials.stopped,step0.started,step0.stopped,act0,s1,res0.keys,res0.rt,res0.duration,step1.started,step1.stopped,act1,s2,res1.keys,step2.started,step2.stopped,act2,s3,res2.keys,rew,reward_comp.started,reward_comp.stopped,reward_disp.started,reward_disp.stopped,trials.thisRepN,trials.thisTrialN,trials.thisN,trials.thisIndex,trials.ran,s00a0s10,s00a0s11,s00a1s10,s00a1s11,rew10,rew11,break_block.started,break_block.stopped,block.thisRepN,block.thisTrialN,block.thisN,block.thisIndex,block.ran,s00path,s10path,s11path,s20path,s21path,res1.rt,res1.duration,s10a0s20,s10a0s21,s10a1s20,s10a1s21,s11a0s20,s11a0s21,s11a1s20,s11a1s21,rew20,rew21,res2.rt,res2.duration,s20a0s30,s20a0s31,s20a1s30,s20a1s31,s21a0s30,s21a0s31,s21a1s30,s21a1s31,rew30,rew31
0.0009,0.0018,5d65e31c367c8600019f2b13,66fc97f7c1597bde9a128c4f,2024-10-01_20h47.40.061,mdp,2024.2.1,Win32,144.9275362,66fa4ebf79326e780c390304,,,,,,,,,,,,,,,,,,,,,,,,,,,,,,,,,,,,,,,,,,,,,,,,,,,,,,,,,,,,,,,,,,,,,,,,,,,,,,,,,,,,,,,,,,,
,,5d65e31c367c8600019f2b13,66fc97f7c1597bde9a128c4f,2024-10-01_20h47.40.061,mdp,2024.2.1,Win32,144.9275362,66fa4ebf79326e780c390304,0.0043,22.9462,0,0,0,0,1,rlnn_exp/rlnn_exp.001.png,,,,,,,,,,,,,,,,,,,,,,,,,,,,,,,,,,,,,,,,,,,,,,,,,,,,,,,,,,,,,,,,,,,,,,,,,,,,,,,,,,,
,,5d65e31c367c8600019f2b13,66fc97f7c1597bde9a128c4f,2024-10-01_20h47.40.061,mdp,2024.2.1,Win32,144.9275362,66fa4ebf79326e780c390304,22.9466,34.0434,0,1,1,1,1,rlnn_exp/rlnn_exp.002.png,,,,,,,,,,,,,,,,,,,,,,,,,,,,,,,,,,,,,,,,,,,,,,,,,,,,,,,,,,,,,,,,,,,,,,,,,,,,,,,,,,,
,,5d65e31c367c8600019f2b13,66fc97f7c1597bde9a128c4f,2024-10-01_20h47.40.061,mdp,2024.2.1,Win32,144.9275362,66fa4ebf79326e780c390304,34.0438,46.0847,0,2,2,2,1,rlnn_exp/rlnn_exp.003.png,,,,,,,,,,,,,,,,,,,,,,,,,,,,,,,,,,,,,,,,,,,,,,,,,,,,,,,,,,,,,,,,,,,,,,,,,,,,,,,,,,,
,,5d65e31c367c8600019f2b13,66fc97f7c1597bde9a128c4f,2024-10-01_20h47.40.061,mdp,2024.2.1,Win32,144.9275362,66fa4ebf79326e780c390304,46.0855,56.9324,0,3,3,3,1,rlnn_exp/rlnn_exp.004.png,,,,,,,,,,,,,,,,,,,,,,,,,,,,,,,,,,,,,,,,,,,,,,,,,,,,,,,,,,,,,,,,,,,,,,,,,,,,,,,,,,,
,,5d65e31c367c8600019f2b13,66fc97f7c1597bde9a128c4f,2024-10-01_20h47.40.061,mdp,2024.2.1,Win32,144.9275362,66fa4ebf79326e780c390304,,,,,,,,,56.9326,74.4264,y,7.4843,,,,,,,,,,,,,,,,,,,,,,,,,,,,,,,,,,,,,,,,,,,,,,,,,,,,,,,,,,,,,,,,,,,,,,,,,,,,,,,
,,5d65e31c367c8600019f2b13,66fc97f7c1597bde9a128c4f,2024-10-01_20h47.40.061,mdp,2024.2.1,Win32,144.9275362,66fa4ebf79326e780c390304,,,,,,,,,,,,,,1,seqs/st1seq23.csv,74.4286,76.5368,space,1.5983,,76.539,76.5391,76.5393,78.2797,1,0,right,1.2286,,78.2802,78.2809,,0,,78.2811,78.2817,,0,,1,78.2817,78.2818,78.2819,79.7796,0,0,0,0,1,0.2,0.8,0.8,0.2,1,0,,,,,,,,,,,,,,,,,,,,,,,,,,,,,,,,,,,,
,,5d65e31c367c8600019f2b13,66fc97f7c1597bde9a128c4f,2024-10-01_20h47.40.061,mdp,2024.2.1,Win32,144.9275362,66fa4ebf79326e780c390304,,,,,,,,,,,,,,,,,,,,,79.7798,79.7799,79.7802,81.453,1,0,right,1.1667,,81.4534,81.4538,,0,,81.454,81.4542,,1,,1,81.4543,81.4543,81.4545,82.953,0,1,1,1,1,0.2,0.8,0.8,0.2,1,0,,,,,,,,,,,,,,,,,,,,,,,,,,,,,,,,,,,,
,,5d65e31c367c8600019f2b13,66fc97f7c1597bde9a128c4f,2024-10-01_20h47.40.061,mdp,2024.2.1,Win32,144.9275362,66fa4ebf79326e780c390304,,,,,,,,,,,,,,,,,,,,,82.9531,82.9531,82.9538,84.1685,1,0,right,0.7077,,84.1689,84.1693,,0,,84.1696,84.1698,,0,,1,84.1698,84.1698,84.17,85.6684,0,2,2,2,1,0.2,0.8,0.8,0.2,1,0,,,,,,,,,,,,,,,,,,,,,,,,,,,,,,,,,,,,
,,5d65e31c367c8600019f2b13,66fc97f7c1597bde9a128c4f,2024-10-01_20h47.40.061,mdp,2024.2.1,Win32,144.9275362,66fa4ebf79326e780c390304,,,,,,,,,,,,,,,,,,,,,85.6687,85.6687,85.6694,86.6418,1,0,right,0.46,,86.6424,86.6426,,0,,86.643,86.6431,,0,,1,86.6431,86.6431,86.6433,88.1415,0,3,3,3,1,0.2,0.8,0.8,0.2,1,0,,,,,,,,,,,,,,,,,,,,,,,,,,,,,,,,,,,,
,,5d65e31c367c8600019f2b13,66fc97f7c1597bde9a128c4f,2024-10-01_20h47.40.061,mdp,2024.2.1,Win32,144.9275362,66fa4ebf79326e780c390304,,,,,,,,,,,,,,,,,,,,,88.1418,88.1418,88.1422,89.1267,1,1,right,0.4766,,89.1272,89.1275,,0,,89.1278,89.1279,,0,,0,89.1279,89.1279,89.1282,90.627,0,4,4,4,1,0.2,0.8,0.8,0.2,1,0,,,,,,,,,,,,,,,,,,,,,,,,,,,,,,,,,,,,
,,5d65e31c367c8600019f2b13,66fc97f7c1597bde9a128c4f,2024-10-01_20h47.40.061,mdp,2024.2.1,Win32,144.9275362,66fa4ebf79326e780c390304,,,,,,,,,,,,,,,,,,,,,90.6273,90.6273,90.6278,92.5374,0,0,left,1.4022,,92.5382,92.5385,,0,,92.5387,92.539,,0,,1,92.539,92.539,92.5392,94.0375,0,5,5,5,1,0.6,0.4,0.6,0.4,1,0,,,,,,,,,,,,,,,,,,,,,,,,,,,,,,,,,,,,
,,5d65e31c367c8600019f2b13,66fc97f7c1597bde9a128c4f,2024-10-01_20h47.40.061,mdp,2024.2.1,Win32,144.9275362,66fa4ebf79326e780c390304,,,,,,,,,,,,,,,,,,,,,94.0377,94.0377,94.0382,95.2803,0,0,left,0.7287,,95.2809,95.2813,,1,,95.2815,95.2818,,0,,1,95.2818,95.2818,95.282,96.78,0,6,6,6,1,0.8,0.2,0.8,0.2,1,0,,,,,,,,,,,,,,,,,,,,,,,,,,,,,,,,,,,,
,,5d65e31c367c8600019f2b13,66fc97f7c1597bde9a128c4f,2024-10-01_20h47.40.061,mdp,2024.2.1,Win32,144.9275362,66fa4ebf79326e780c390304,,,,,,,,,,,,,,,,,,,,,96.7803,96.7803,96.781,98.0163,0,0,left,0.7305,,98.017,98.0174,,0,,98.0177,98.0178,,0,,1,98.0178,98.0178,98.0181,99.5167,0,7,7,7,1,0.8,0.2,0.8,0.2,1,0,,,,,,,,,,,,,,,,,,,,,,,,,,,,,,,,,,,,
,,5d65e31c367c8600019f2b13,66fc97f7c1597bde9a128c4f,2024-10-01_20h47.40.061,mdp,2024.2.1,Win32,144.9275362,66fa4ebf79326e780c390304,,,,,,,,,,,,,,,,,,,,,99.517,99.517,99.5176,100.7312,0,0,left,0.7019,,100.7319,100.7321,,0,,100.7325,100.7326,,0,,1,100.7326,100.7326,100.7329,102.2316,0,8,8,8,1,0.8,0.2,0.8,0.2,1,0,,,,,,,,,,,,,,,,,,,,,,,,,,,,,,,,,,,,
,,5d65e31c367c8600019f2b13,66fc97f7c1597bde9a128c4f,2024-10-01_20h47.40.061,mdp,2024.2.1,Win32,144.9275362,66fa4ebf79326e780c390304,,,,,,,,,,,,,,,,,,,,,102.2318,102.2319,102.2323,103.2031,0,0,left,0.4608,,103.2036,103.2039,,0,,103.2042,103.2044,,0,,1,103.2044,103.2044,103.2046,104.7041,0,9,9,9,1,0.8,0.2,0.8,0.2,1,0,,,,,,,,,,,,,,,,,,,,,,,,,,,,,,,,,,,,
,,5d65e31c367c8600019f2b13,66fc97f7c1597bde9a128c4f,2024-10-01_20h47.40.061,mdp,2024.2.1,Win32,144.9275362,66fa4ebf79326e780c390304,,,,,,,,,,,,,,,,,,,,,104.7044,104.7044,104.7048,105.6626,0,1,left,0.4437,,105.6631,105.6634,,0,,105.6636,105.6638,,0,,0,105.6638,105.6638,105.664,107.1616,0,10,10,10,1,0.8,0.2,0.8,0.2,1,0,,,,,,,,,,,,,,,,,,,,,,,,,,,,,,,,,,,,
,,5d65e31c367c8600019f2b13,66fc97f7c1597bde9a128c4f,2024-10-01_20h47.40.061,mdp,2024.2.1,Win32,144.9275362,66fa4ebf79326e780c390304,,,,,,,,,,,,,,,,,,,,,107.1618,107.1619,107.1624,107.9265,1,0,right,0.2567,,107.9271,107.9274,,1,,107.9277,107.9279,,1,,1,107.9279,107.9279,107.9282,109.4266,0,11,11,11,1,0.6,0.4,0.4,0.6,1,0,,,,,,,,,,,,,,,,,,,,,,,,,,,,,,,,,,,,
,,5d65e31c367c8600019f2b13,66fc97f7c1597bde9a128c4f,2024-10-01_20h47.40.061,mdp,2024.2.1,Win32,144.9275362,66fa4ebf79326e780c390304,,,,,,,,,,,,,,,,,,,,,109.4268,109.4268,109.4272,110.5651,1,1,right,0.6263,,110.5657,110.566,,0,,110.5663,110.5665,,1,,0,110.5665,110.5665,110.5667,112.0653,0,12,12,12,1,0.6,0.4,0.4,0.6,1,0,,,,,,,,,,,,,,,,,,,,,,,,,,,,,,,,,,,,
,,5d65e31c367c8600019f2b13,66fc97f7c1597bde9a128c4f,2024-10-01_20h47.40.061,mdp,2024.2.1,Win32,144.9275362,66fa4ebf79326e780c390304,,,,,,,,,,,,,,,,,,,,,112.0656,112.0656,112.0662,113.0237,0,0,left,0.4434,,113.0245,113.0249,,0,,113.0252,113.0253,,0,,1,113.0254,113.0254,113.0255,114.5236,0,13,13,13,1,0.8,0.2,0.6,0.4,1,0,,,,,,,,,,,,,,,,,,,,,,,,,,,,,,,,,,,,
,,5d65e31c367c8600019f2b13,66fc97f7c1597bde9a128c4f,2024-10-01_20h47.40.061,mdp,2024.2.1,Win32,144.9275362,66fa4ebf79326e780c390304,,,,,,,,,,,,,,,,,,,,,114.5239,114.524,114.5245,115.5652,0,0,left,0.5293,,115.566,115.5662,,0,,115.5665,115.5667,,0,,1,115.5667,115.5667,115.5669,117.065,0,14,14,14,1,0.8,0.2,0.6,0.4,1,0,,,,,,,,,,,,,,,,,,,,,,,,,,,,,,,,,,,,
,,5d65e31c367c8600019f2b13,66fc97f7c1597bde9a128c4f,2024-10-01_20h47.40.061,mdp,2024.2.1,Win32,144.9275362,66fa4ebf79326e780c390304,,,,,,,,,,,,,,,,,,,,,117.0653,117.0653,117.0657,118.0299,0,0,left,0.4511,,118.0305,118.0308,,0,,118.0311,118.0315,,0,,1,118.0315,118.0315,118.0318,119.5304,0,15,15,15,1,0.8,0.2,0.6,0.4,1,0,,,,,,,,,,,,,,,,,,,,,,,,,,,,,,,,,,,,
,,5d65e31c367c8600019f2b13,66fc97f7c1597bde9a128c4f,2024-10-01_20h47.40.061,mdp,2024.2.1,Win32,144.9275362,66fa4ebf79326e780c390304,,,,,,,,,,,,,,,,,,,,,119.5307,119.5307,119.5311,120.6895,0,0,left,0.646,,120.6903,120.6906,,0,,120.6908,120.6911,,0,,1,120.6911,120.6911,120.6913,122.19,0,16,16,16,1,0.8,0.2,0.6,0.4,1,0,,,,,,,,,,,,,,,,,,,,,,,,,,,,,,,,,,,,
,,5d65e31c367c8600019f2b13,66fc97f7c1597bde9a128c4f,2024-10-01_20h47.40.061,mdp,2024.2.1,Win32,144.9275362,66fa4ebf79326e780c390304,,,,,,,,,,,,,,,,,,,,,122.1902,122.1902,122.1908,123.2804,0,0,left,0.5785,,123.2811,123.2814,,1,,123.2816,123.2818,,1,,1,123.2818,123.2818,123.282,124.7799,0,17,17,17,1,0.6,0.4,0.4,0.6,1,0,,,,,,,,,,,,,,,,,,,,,,,,,,,,,,,,,,,,
,,5d65e31c367c8600019f2b13,66fc97f7c1597bde9a128c4f,2024-10-01_20h47.40.061,mdp,2024.2.1,Win32,144.9275362,66fa4ebf79326e780c390304,,,,,,,,,,,,,,,,,,,,,124.78,124.78,124.7804,125.9186,0,1,left,0.6265,,125.9191,125.9194,,0,,125.9196,125.9199,,0,,0,125.9199,125.9199,125.9202,127.4191,0,18,18,18,1,0.6,0.4,0.4,0.6,1,0,,,,,,,,,,,,,,,,,,,,,,,,,,,,,,,,,,,,
,,5d65e31c367c8600019f2b13,66fc97f7c1597bde9a128c4f,2024-10-01_20h47.40.061,mdp,2024.2.1,Win32,144.9275362,66fa4ebf79326e780c390304,,,,,,,,,,,,,,,,,,,,,127.4194,127.4194,127.42,128.1963,1,0,right,0.2645,,128.1968,128.1971,,1,,128.1974,128.1976,,0,,1,128.1976,128.1976,128.1979,129.697,0,19,19,19,1,0.8,0.2,0.8,0.2,1,0,,,,,,,,,,,,,,,,,,,,,,,,,,,,,,,,,,,,
,,5d65e31c367c8600019f2b13,66fc97f7c1597bde9a128c4f,2024-10-01_20h47.40.061,mdp,2024.2.1,Win32,144.9275362,66fa4ebf79326e780c390304,,,,,,,,,,,,,,,,,,,,,129.6973,129.6973,129.6977,130.7175,1,0,right,0.5136,,130.718,130.7182,,0,,130.7185,130.7188,,0,,1,130.7188,130.7188,130.719,132.2184,0,20,20,20,1,0.8,0.2,0.8,0.2,1,0,,,,,,,,,,,,,,,,,,,,,,,,,,,,,,,,,,,,
,,5d65e31c367c8600019f2b13,66fc97f7c1597bde9a128c4f,2024-10-01_20h47.40.061,mdp,2024.2.1,Win32,144.9275362,66fa4ebf79326e780c390304,,,,,,,,,,,,,,,,,,,,,132.2187,132.2187,132.2192,133.0863,1,0,right,0.3545,,133.0869,133.0871,,0,,133.0874,133.0876,,0,,1,133.0876,133.0876,133.0878,134.5855,0,21,21,21,1,0.8,0.2,0.8,0.2,1,0,,,,,,,,,,,,,,,,,,,,,,,,,,,,,,,,,,,,
,,5d65e31c367c8600019f2b13,66fc97f7c1597bde9a128c4f,2024-10-01_20h47.40.061,mdp,2024.2.1,Win32,144.9275362,66fa4ebf79326e780c390304,,,,,,,,,,,,,,,,,,,,,134.5858,134.5859,134.5862,135.4123,1,0,right,0.3196,,135.413,135.4132,,0,,135.4134,135.4137,,0,,1,135.4137,135.4137,135.4138,136.912,0,22,22,22,1,0.8,0.2,0.8,0.2,1,0,,,,,,,,,,,,,,,,,,,,,,,,,,,,,,,,,,,,
,,5d65e31c367c8600019f2b13,66fc97f7c1597bde9a128c4f,2024-10-01_20h47.40.061,mdp,2024.2.1,Win32,144.9275362,66fa4ebf79326e780c390304,,,,,,,,,,,,,,,,,,,,,136.9121,136.9121,136.9124,137.7462,1,0,right,0.3205,,137.7466,137.7469,,1,,137.7472,137.7473,,0,,1,137.7474,137.7474,137.7476,139.246,0,23,23,23,1,0.8,0.2,0.8,0.2,1,0,,,,,,,,,,,,,,,,,,,,,,,,,,,,,,,,,,,,
,,5d65e31c367c8600019f2b13,66fc97f7c1597bde9a128c4f,2024-10-01_20h47.40.061,mdp,2024.2.1,Win32,144.9275362,66fa4ebf79326e780c390304,,,,,,,,,,,,,,,,,,,,,139.2462,139.2462,139.2467,140.6062,1,0,right,0.847,,140.6068,140.6071,,0,,140.6074,140.6075,,1,,1,140.6075,140.6075,140.6077,142.1073,0,24,24,24,1,0.8,0.2,0.8,0.2,1,0,,,,,,,,,,,,,,,,,,,,,,,,,,,,,,,,,,,,
,,5d65e31c367c8600019f2b13,66fc97f7c1597bde9a128c4f,2024-10-01_20h47.40.061,mdp,2024.2.1,Win32,144.9275362,66fa4ebf79326e780c390304,,,,,,,,,,,,,,,,,,,,,142.1075,142.1075,142.1079,143.2249,1,0,right,0.6064,,143.2255,143.2258,,0,,143.226,143.2262,,0,,1,143.2262,143.2262,143.2264,144.725,0,25,25,25,1,0.8,0.2,0.8,0.2,1,0,,,,,,,,,,,,,,,,,,,,,,,,,,,,,,,,,,,,
,,5d65e31c367c8600019f2b13,66fc97f7c1597bde9a128c4f,2024-10-01_20h47.40.061,mdp,2024.2.1,Win32,144.9275362,66fa4ebf79326e780c390304,,,,,,,,,,,,,,,,,,,,,144.7252,144.7252,144.7258,145.5368,1,0,right,0.2999,,145.5374,145.5378,,1,,145.5381,145.5383,,0,,1,145.5383,145.5383,145.5386,147.0367,0,26,26,26,1,0.8,0.2,0.8,0.2,1,0,,,,,,,,,,,,,,,,,,,,,,,,,,,,,,,,,,,,
,,5d65e31c367c8600019f2b13,66fc97f7c1597bde9a128c4f,2024-10-01_20h47.40.061,mdp,2024.2.1,Win32,144.9275362,66fa4ebf79326e780c390304,,,,,,,,,,,,,,,,,,,,,147.0368,147.0368,147.0373,147.8631,1,0,right,0.3225,,147.8636,147.8639,,1,,147.8642,147.8644,,1,,1,147.8644,147.8644,147.8646,149.3641,0,27,27,27,1,0.8,0.2,0.8,0.2,1,0,,,,,,,,,,,,,,,,,,,,,,,,,,,,,,,,,,,,
,,5d65e31c367c8600019f2b13,66fc97f7c1597bde9a128c4f,2024-10-01_20h47.40.061,mdp,2024.2.1,Win32,144.9275362,66fa4ebf79326e780c390304,,,,,,,,,,,,,,,,,,,,,149.3644,149.3644,149.3649,150.4888,1,0,right,0.6137,,150.4896,150.49,,0,,150.4902,150.4903,,0,,1,150.4903,150.4903,150.4906,151.9886,0,28,28,28,1,0.8,0.2,0.8,0.2,1,0,,,,,,,,,,,,,,,,,,,,,,,,,,,,,,,,,,,,
,,5d65e31c367c8600019f2b13,66fc97f7c1597bde9a128c4f,2024-10-01_20h47.40.061,mdp,2024.2.1,Win32,144.9275362,66fa4ebf79326e780c390304,,,,,,,,,,,,,,,,,,,,,151.9888,151.9888,151.9893,152.7801,1,0,right,0.281,,152.7806,152.7809,,1,,152.7811,152.7814,,1,,1,152.7814,152.7814,152.7816,154.2805,0,29,29,29,1,0.8,0.2,0.8,0.2,1,0,,,,,,,,,,,,,,,,,,,,,,,,,,,,,,,,,,,,
,,5d65e31c367c8600019f2b13,66fc97f7c1597bde9a128c4f,2024-10-01_20h47.40.061,mdp,2024.2.1,Win32,144.9275362,66fa4ebf79326e780c390304,,,,,,,,,,,,,,,,,,,,,154.2807,154.2807,154.2813,155.0236,1,0,right,0.2315,,155.0243,155.0246,,1,,155.0248,155.025,,0,,1,155.025,155.025,155.0253,156.5238,0,30,30,30,1,0.8,0.2,0.8,0.2,1,0,,,,,,,,,,,,,,,,,,,,,,,,,,,,,,,,,,,,
,,5d65e31c367c8600019f2b13,66fc97f7c1597bde9a128c4f,2024-10-01_20h47.40.061,mdp,2024.2.1,Win32,144.9275362,66fa4ebf79326e780c390304,,,,,,,,,,,,,,,,,,,,,156.5241,156.5241,156.5245,157.4189,1,0,right,0.386,,157.4194,157.4198,,1,,157.4201,157.4203,,0,,1,157.4204,157.4204,157.4205,158.9194,0,31,31,31,1,0.6,0.4,0.6,0.4,1,0,,,,,,,,,,,,,,,,,,,,,,,,,,,,,,,,,,,,
,,5d65e31c367c8600019f2b13,66fc97f7c1597bde9a128c4f,2024-10-01_20h47.40.061,mdp,2024.2.1,Win32,144.9275362,66fa4ebf79326e780c390304,,,,,,,,,,,,,,,,,,,,,158.9195,158.9195,158.92,159.7319,1,0,right,0.3005,,159.7325,159.7328,,0,,159.7331,159.7334,,1,,1,159.7334,159.7334,159.7336,161.2315,0,32,32,32,1,0.6,0.4,0.6,0.4,1,0,,,,,,,,,,,,,,,,,,,,,,,,,,,,,,,,,,,,
,,5d65e31c367c8600019f2b13,66fc97f7c1597bde9a128c4f,2024-10-01_20h47.40.061,mdp,2024.2.1,Win32,144.9275362,66fa4ebf79326e780c390304,,,,,,,,,,,,,,,,,,,,,161.2317,161.2317,161.2321,162.1135,1,0,right,0.3683,,162.114,162.1142,,0,,162.1145,162.1148,,0,,1,162.1148,162.1148,162.115,163.6138,0,33,33,33,1,0.6,0.4,0.6,0.4,1,0,,,,,,,,,,,,,,,,,,,,,,,,,,,,,,,,,,,,
,,5d65e31c367c8600019f2b13,66fc97f7c1597bde9a128c4f,2024-10-01_20h47.40.061,mdp,2024.2.1,Win32,144.9275362,66fa4ebf79326e780c390304,,,,,,,,,,,,,,,,,,,,,163.614,163.614,163.6146,164.732,1,0,right,0.6097,,164.7325,164.7328,,1,,164.7331,164.7333,,0,,1,164.7333,164.7333,164.7335,166.232,0,34,34,34,1,0.6,0.4,0.6,0.4,1,0,,,,,,,,,,,,,,,,,,,,,,,,,,,,,,,,,,,,
,,5d65e31c367c8600019f2b13,66fc97f7c1597bde9a128c4f,2024-10-01_20h47.40.061,mdp,2024.2.1,Win32,144.9275362,66fa4ebf79326e780c390304,,,,,,,,,,,,,,,,,,,,,166.2322,166.2322,166.2329,167.3774,1,0,right,0.6332,,167.3779,167.3781,,0,,167.3784,167.3786,,0,,1,167.3786,167.3786,167.3788,168.8781,0,35,35,35,1,0.6,0.4,0.6,0.4,1,0,,,,,,,,,,,,,,,,,,,,,,,,,,,,,,,,,,,,
,,5d65e31c367c8600019f2b13,66fc97f7c1597bde9a128c4f,2024-10-01_20h47.40.061,mdp,2024.2.1,Win32,144.9275362,66fa4ebf79326e780c390304,,,,,,,,,,,,,,,,,,,,,168.8783,168.8783,168.8789,169.9469,1,0,right,0.5662,,169.9473,169.9476,,0,,169.9479,169.948,,1,,1,169.948,169.948,169.9483,171.4467,0,36,36,36,1,0.6,0.4,0.6,0.4,1,0,,,,,,,,,,,,,,,,,,,,,,,,,,,,,,,,,,,,
,,5d65e31c367c8600019f2b13,66fc97f7c1597bde9a128c4f,2024-10-01_20h47.40.061,mdp,2024.2.1,Win32,144.9275362,66fa4ebf79326e780c390304,,,,,,,,,,,,,,,,,,,,,171.4469,171.4469,171.4474,172.2176,1,0,right,0.2573,,172.2181,172.2184,,0,,172.2186,172.2189,,0,,1,172.2189,172.2189,172.219,173.7185,0,37,37,37,1,0.8,0.2,0.8,0.2,1,0,,,,,,,,,,,,,,,,,,,,,,,,,,,,,,,,,,,,
,,5d65e31c367c8600019f2b13,66fc97f7c1597bde9a128c4f,2024-10-01_20h47.40.061,mdp,2024.2.1,Win32,144.9275362,66fa4ebf79326e780c390304,,,,,,,,,,,,,,,,,,,,,173.7187,173.7187,173.719,174.4959,1,0,right,0.2642,,174.4968,174.4973,,0,,174.4976,174.4979,,0,,1,174.4979,174.4979,174.4981,175.9954,0,38,38,38,1,0.8,0.2,0.8,0.2,1,0,,,,,,,,,,,,,,,,,,,,,,,,,,,,,,,,,,,,
,,5d65e31c367c8600019f2b13,66fc97f7c1597bde9a128c4f,2024-10-01_20h47.40.061,mdp,2024.2.1,Win32,144.9275362,66fa4ebf79326e780c390304,,,,,,,,,,,,,,,,,,,,,175.9956,175.9956,175.996,176.7529,1,0,right,0.2516,,176.7536,176.7539,,0,,176.7543,176.7545,,0,,1,176.7545,176.7545,176.7547,178.2524,0,39,39,39,1,0.8,0.2,0.8,0.2,1,0,,,,,,,,,,,,,,,,,,,,,,,,,,,,,,,,,,,,
,,5d65e31c367c8600019f2b13,66fc97f7c1597bde9a128c4f,2024-10-01_20h47.40.061,mdp,2024.2.1,Win32,144.9275362,66fa4ebf79326e780c390304,,,,,,,,,,,,,,,,,,,,,178.2526,178.2527,178.2541,178.9822,1,0,right,0.2236,,178.983,178.9834,,0,,178.9835,178.9838,,1,,1,178.9838,178.9838,178.984,180.4813,0,40,40,40,1,0.8,0.2,0.8,0.2,1,0,,,,,,,,,,,,,,,,,,,,,,,,,,,,,,,,,,,,
,,5d65e31c367c8600019f2b13,66fc97f7c1597bde9a128c4f,2024-10-01_20h47.40.061,mdp,2024.2.1,Win32,144.9275362,66fa4ebf79326e780c390304,,,,,,,,,,,,,,,,,,,,,180.4815,180.4815,180.4818,181.5023,1,0,right,0.5176,,181.5029,181.503,,0,,181.5035,181.5038,,0,,1,181.5038,181.5038,181.504,183.0024,0,41,41,41,1,0.8,0.2,0.8,0.2,1,0,,,,,,,,,,,,,,,,,,,,,,,,,,,,,,,,,,,,
,,5d65e31c367c8600019f2b13,66fc97f7c1597bde9a128c4f,2024-10-01_20h47.40.061,mdp,2024.2.1,Win32,144.9275362,66fa4ebf79326e780c390304,,,,,,,,,,,,,,,,,,,,,183.0026,183.0026,183.003,183.8843,1,0,right,0.3741,,183.8849,183.8852,,1,,183.8854,183.8856,,0,,1,183.8856,183.8856,183.8858,185.3844,0,42,42,42,1,0.8,0.2,0.8,0.2,1,0,,,,,,,,,,,,,,,,,,,,,,,,,,,,,,,,,,,,
,,5d65e31c367c8600019f2b13,66fc97f7c1597bde9a128c4f,2024-10-01_20h47.40.061,mdp,2024.2.1,Win32,144.9275362,66fa4ebf79326e780c390304,,,,,,,,,,,,,,,,,,,,,185.3845,185.3845,185.3849,186.2941,1,0,right,0.402,,186.2947,186.295,,0,,186.2954,186.2957,,0,,1,186.2957,186.2957,186.2959,187.7946,0,43,43,43,1,0.8,0.2,0.8,0.2,1,0,,,,,,,,,,,,,,,,,,,,,,,,,,,,,,,,,,,,
,,5d65e31c367c8600019f2b13,66fc97f7c1597bde9a128c4f,2024-10-01_20h47.40.061,mdp,2024.2.1,Win32,144.9275362,66fa4ebf79326e780c390304,,,,,,,,,,,,,,,,,,,,,187.7948,187.7948,187.7955,188.8917,1,0,right,0.5932,,188.8923,188.8927,,1,,188.893,188.8932,,1,,1,188.8932,188.8932,188.8933,190.3922,0,44,44,44,1,0.6,0.4,0.2,0.8,1,0,,,,,,,,,,,,,,,,,,,,,,,,,,,,,,,,,,,,
,,5d65e31c367c8600019f2b13,66fc97f7c1597bde9a128c4f,2024-10-01_20h47.40.061,mdp,2024.2.1,Win32,144.9275362,66fa4ebf79326e780c390304,,,,,,,,,,,,,,,,,,,,,190.3924,190.3924,190.3929,191.364,1,1,right,0.458,,191.3647,191.3651,,1,,191.3653,191.3655,,1,,0,191.3655,191.3655,191.3657,192.8641,0,45,45,45,1,0.6,0.4,0.2,0.8,1,0,,,,,,,,,,,,,,,,,,,,,,,,,,,,,,,,,,,,
,,5d65e31c367c8600019f2b13,66fc97f7c1597bde9a128c4f,2024-10-01_20h47.40.061,mdp,2024.2.1,Win32,144.9275362,66fa4ebf79326e780c390304,,,,,,,,,,,,,,,,,,,,,192.8646,192.8646,192.8652,193.6275,0,1,left,0.2498,,193.628,193.6282,,0,,193.6285,193.6288,,1,,0,193.6289,193.6289,193.6291,195.1284,0,46,46,46,1,0.6,0.4,0.2,0.8,1,0,,,,,,,,,,,,,,,,,,,,,,,,,,,,,,,,,,,,
,,5d65e31c367c8600019f2b13,66fc97f7c1597bde9a128c4f,2024-10-01_20h47.40.061,mdp,2024.2.1,Win32,144.9275362,66fa4ebf79326e780c390304,,,,,,,,,,,,,,,,,,,,,195.1286,195.1286,195.1289,196.051,1,1,right,0.4143,,196.0515,196.0518,,1,,196.0522,196.0523,,1,,0,196.0523,196.0523,196.0526,197.5511,0,47,47,47,1,0.6,0.4,0.2,0.8,1,0,,,,,,,,,,,,,,,,,,,,,,,,,,,,,,,,,,,,
,,5d65e31c367c8600019f2b13,66fc97f7c1597bde9a128c4f,2024-10-01_20h47.40.061,mdp,2024.2.1,Win32,144.9275362,66fa4ebf79326e780c390304,,,,,,,,,,,,,,,,,,,,,197.5513,197.5513,197.5517,198.5234,1,1,right,0.4688,,198.5238,198.5242,,0,,198.5245,198.5247,,1,,0,198.5247,198.5247,198.5249,200.0234,0,48,48,48,1,0.6,0.4,0.2,0.8,1,0,,,,,,,,,,,,,,,,,,,,,,,,,,,,,,,,,,,,
,,5d65e31c367c8600019f2b13,66fc97f7c1597bde9a128c4f,2024-10-01_20h47.40.061,mdp,2024.2.1,Win32,144.9275362,66fa4ebf79326e780c390304,,,,,,,,,,,,,,,,,,,,,200.0235,200.0235,200.0239,200.7943,0,0,left,0.2584,,200.7947,200.7952,,0,,200.7954,200.7956,,1,,1,200.7956,200.7956,200.7958,202.2949,0,49,49,49,1,0.6,0.4,0.2,0.8,1,0,,,,,,,,,,,,,,,,,,,,,,,,,,,,,,,,,,,,
,,5d65e31c367c8600019f2b13,66fc97f7c1597bde9a128c4f,2024-10-01_20h47.40.061,mdp,2024.2.1,Win32,144.9275362,66fa4ebf79326e780c390304,,,,,,,,,,,,,,,,,,,,,,,,,,,,,,,,,,,,,,,,,,,,,,,,,,,,,,,,202.2954,260.8024,0,0,0,3,1,imgs/kangaroo.png,imgs/rabbit.png,imgs/pig.png,imgs/squirrel.png,imgs/bear.png,,,,,,,,,,,,,,,,,,,,,,,,
,,5d65e31c367c8600019f2b13,66fc97f7c1597bde9a128c4f,2024-10-01_20h47.40.061,mdp,2024.2.1,Win32,144.9275362,66fa4ebf79326e780c390304,,,,,,,,,,,,,,2,seqs/st2seq18.csv,260.8031,264.0585,space,2.7467,,264.0607,264.0607,264.0611,265.4757,1,1,right,0.9005,,265.4762,266.8986,1,0,right,266.899,266.8993,,1,,1,266.8993,266.8993,266.8995,268.3985,0,0,0,0,1,0.6,0.4,0.6,0.4,,,,,,,,,,,,,,,0.9095,,0.4,0.6,0.8,0.2,0.4,0.6,0.4,0.6,1,0,,,,,,,,,,,,
,,5d65e31c367c8600019f2b13,66fc97f7c1597bde9a128c4f,2024-10-01_20h47.40.061,mdp,2024.2.1,Win32,144.9275362,66fa4ebf79326e780c390304,,,,,,,,,,,,,,,,,,,,,268.3988,268.3988,268.3993,269.3858,1,0,right,0.4732,,269.3864,272.1836,1,0,right,272.1842,272.1846,,0,,1,272.1846,272.1846,272.1849,273.6845,0,1,1,1,1,0.6,0.4,0.6,0.4,,,,,,,,,,,,,,,2.2842,,0.4,0.6,0.8,0.2,0.4,0.6,0.4,0.6,1,0,,,,,,,,,,,,
,,5d65e31c367c8600019f2b13,66fc97f7c1597bde9a128c4f,2024-10-01_20h47.40.061,mdp,2024.2.1,Win32,144.9275362,66fa4ebf79326e780c390304,,,,,,,,,,,,,,,,,,,,,273.6846,273.6846,273.685,274.7817,1,0,right,0.582,,274.7823,276.142,1,0,right,276.1424,276.1427,,0,,1,276.1427,276.1427,276.1429,277.6419,0,2,2,2,1,0.6,0.4,0.6,0.4,,,,,,,,,,,,,,,0.8478,,0.4,0.6,0.8,0.2,0.4,0.6,0.4,0.6,1,0,,,,,,,,,,,,
,,5d65e31c367c8600019f2b13,66fc97f7c1597bde9a128c4f,2024-10-01_20h47.40.061,mdp,2024.2.1,Win32,144.9275362,66fa4ebf79326e780c390304,,,,,,,,,,,,,,,,,,,,,277.642,277.642,277.6424,278.6493,1,0,right,0.4943,,278.65,279.6071,1,0,right,279.6078,279.6079,,1,,1,279.608,279.608,279.6083,281.108,0,3,3,3,1,0.6,0.4,0.6,0.4,,,,,,,,,,,,,,,0.4475,,0.4,0.6,0.8,0.2,0.4,0.6,0.4,0.6,1,0,,,,,,,,,,,,
,,5d65e31c367c8600019f2b13,66fc97f7c1597bde9a128c4f,2024-10-01_20h47.40.061,mdp,2024.2.1,Win32,144.9275362,66fa4ebf79326e780c390304,,,,,,,,,,,,,,,,,,,,,281.1082,281.1083,281.1086,282.0657,1,0,right,0.4457,,282.0662,283.254,1,0,right,283.2546,283.2549,,0,,1,283.2549,283.2549,283.2551,284.7541,0,4,4,4,1,0.6,0.4,0.6,0.4,,,,,,,,,,,,,,,0.6803,,0.4,0.6,0.8,0.2,0.4,0.6,0.4,0.6,1,0,,,,,,,,,,,,
,,5d65e31c367c8600019f2b13,66fc97f7c1597bde9a128c4f,2024-10-01_20h47.40.061,mdp,2024.2.1,Win32,144.9275362,66fa4ebf79326e780c390304,,,,,,,,,,,,,,,,,,,,,284.7543,284.7543,284.7548,285.5657,1,1,right,0.2994,,285.5662,286.7606,1,0,right,286.7612,286.7615,,0,,1,286.7615,286.7615,286.7617,288.2605,0,5,5,5,1,0.6,0.4,0.6,0.4,,,,,,,,,,,,,,,0.686,,0.4,0.6,0.8,0.2,0.4,0.6,0.4,0.6,1,0,,,,,,,,,,,,
,,5d65e31c367c8600019f2b13,66fc97f7c1597bde9a128c4f,2024-10-01_20h47.40.061,mdp,2024.2.1,Win32,144.9275362,66fa4ebf79326e780c390304,,,,,,,,,,,,,,,,,,,,,288.2607,288.2607,288.2613,289.2262,1,0,right,0.4578,,289.2268,290.281,1,0,right,290.2815,290.2818,,0,,1,290.2818,290.2819,290.2821,291.7806,0,6,6,6,1,0.6,0.4,0.6,0.4,,,,,,,,,,,,,,,0.5407,,0.4,0.6,0.8,0.2,0.8,0.2,0.8,0.2,1,0,,,,,,,,,,,,
,,5d65e31c367c8600019f2b13,66fc97f7c1597bde9a128c4f,2024-10-01_20h47.40.061,mdp,2024.2.1,Win32,144.9275362,66fa4ebf79326e780c390304,,,,,,,,,,,,,,,,,,,,,291.7809,291.7809,291.7812,292.58,1,0,right,0.2911,,292.5805,293.427,1,0,right,293.4275,293.4278,,0,,1,293.4278,293.4278,293.4281,294.9272,0,7,7,7,1,0.6,0.4,0.6,0.4,,,,,,,,,,,,,,,0.3376,,0.4,0.6,0.8,0.2,0.8,0.2,0.8,0.2,1,0,,,,,,,,,,,,
,,5d65e31c367c8600019f2b13,66fc97f7c1597bde9a128c4f,2024-10-01_20h47.40.061,mdp,2024.2.1,Win32,144.9275362,66fa4ebf79326e780c390304,,,,,,,,,,,,,,,,,,,,,294.9274,294.9274,294.928,295.9134,1,1,right,0.4741,,295.914,296.8087,1,1,right,296.8093,296.8097,,0,,0,296.8097,296.8097,296.8099,298.3088,0,8,8,8,1,0.6,0.4,0.6,0.4,,,,,,,,,,,,,,,0.3821,,0.4,0.6,0.8,0.2,0.8,0.2,0.8,0.2,1,0,,,,,,,,,,,,
,,5d65e31c367c8600019f2b13,66fc97f7c1597bde9a128c4f,2024-10-01_20h47.40.061,mdp,2024.2.1,Win32,144.9275362,66fa4ebf79326e780c390304,,,,,,,,,,,,,,,,,,,,,298.3089,298.3089,298.3094,299.2949,1,0,right,0.4763,,299.2955,300.3711,0,0,left,300.3716,300.3721,,0,,1,300.3721,300.3721,300.3723,301.8717,0,9,9,9,1,0.6,0.4,0.6,0.4,,,,,,,,,,,,,,,0.563,,0.4,0.6,0.8,0.2,0.8,0.2,0.8,0.2,1,0,,,,,,,,,,,,
,,5d65e31c367c8600019f2b13,66fc97f7c1597bde9a128c4f,2024-10-01_20h47.40.061,mdp,2024.2.1,Win32,144.9275362,66fa4ebf79326e780c390304,,,,,,,,,,,,,,,,,,,,,301.8718,301.8718,301.8724,303.0522,1,1,right,0.6687,,303.0528,304.8644,0,0,left,304.8651,304.8653,,1,,1,304.8653,304.8653,304.8655,306.3651,0,10,10,10,1,0.6,0.4,0.6,0.4,,,,,,,,,,,,,,,1.2994,,0.4,0.6,0.8,0.2,0.8,0.2,0.8,0.2,1,0,,,,,,,,,,,,
,,5d65e31c367c8600019f2b13,66fc97f7c1597bde9a128c4f,2024-10-01_20h47.40.061,mdp,2024.2.1,Win32,144.9275362,66fa4ebf79326e780c390304,,,,,,,,,,,,,,,,,,,,,306.3654,306.3654,306.3658,307.4475,1,0,right,0.5695,,307.448,310.4685,0,1,left,310.4691,310.4694,,1,,0,310.4694,310.4694,310.4697,311.9685,0,11,11,11,1,0.4,0.6,0.8,0.2,,,,,,,,,,,,,,,2.5069,,0.4,0.6,0.8,0.2,0.8,0.2,0.8,0.2,1,0,,,,,,,,,,,,
,,5d65e31c367c8600019f2b13,66fc97f7c1597bde9a128c4f,2024-10-01_20h47.40.061,mdp,2024.2.1,Win32,144.9275362,66fa4ebf79326e780c390304,,,,,,,,,,,,,,,,,,,,,311.9687,311.9687,311.9693,313.0801,1,0,right,0.6058,,313.0806,314.1629,1,0,right,314.1634,314.1638,,0,,1,314.1638,314.1638,314.164,315.663,0,12,12,12,1,0.4,0.6,0.8,0.2,,,,,,,,,,,,,,,0.5735,,0.4,0.6,0.8,0.2,0.8,0.2,0.8,0.2,1,0,,,,,,,,,,,,
,,5d65e31c367c8600019f2b13,66fc97f7c1597bde9a128c4f,2024-10-01_20h47.40.061,mdp,2024.2.1,Win32,144.9275362,66fa4ebf79326e780c390304,,,,,,,,,,,,,,,,,,,,,315.6632,315.6632,315.6636,316.4409,1,1,right,0.2661,,316.4414,318.0528,1,0,right,318.0533,318.0536,,0,,1,318.0537,318.0537,318.0539,319.5525,0,13,13,13,1,0.4,0.6,0.8,0.2,,,,,,,,,,,,,,,1.1033,,0.4,0.6,0.8,0.2,0.8,0.2,0.8,0.2,1,0,,,,,,,,,,,,
,,5d65e31c367c8600019f2b13,66fc97f7c1597bde9a128c4f,2024-10-01_20h47.40.061,mdp,2024.2.1,Win32,144.9275362,66fa4ebf79326e780c390304,,,,,,,,,,,,,,,,,,,,,319.5527,319.5527,319.5534,320.7537,1,0,right,0.6892,,320.7543,322.1219,1,0,right,322.1228,322.1233,,0,,1,322.1233,322.1233,322.1236,323.6216,0,14,14,14,1,0.4,0.6,0.8,0.2,,,,,,,,,,,,,,,0.8609,,0.4,0.6,0.8,0.2,0.8,0.2,0.8,0.2,1,0,,,,,,,,,,,,
,,5d65e31c367c8600019f2b13,66fc97f7c1597bde9a128c4f,2024-10-01_20h47.40.061,mdp,2024.2.1,Win32,144.9275362,66fa4ebf79326e780c390304,,,,,,,,,,,,,,,,,,,,,323.6218,323.6218,323.6222,324.4546,1,1,right,0.3225,,324.4552,326.6848,1,0,right,326.6854,326.6858,,0,,1,326.6858,326.6858,326.686,328.1844,0,15,15,15,1,0.4,0.6,0.8,0.2,,,,,,,,,,,,,,,1.7213,,0.4,0.6,0.8,0.2,0.8,0.2,0.8,0.2,1,0,,,,,,,,,,,,
,,5d65e31c367c8600019f2b13,66fc97f7c1597bde9a128c4f,2024-10-01_20h47.40.061,mdp,2024.2.1,Win32,144.9275362,66fa4ebf79326e780c390304,,,,,,,,,,,,,,,,,,,,,328.1846,328.1846,328.1852,329.3992,1,0,right,0.7053,,329.3997,330.5313,1,0,right,330.5318,330.5321,,0,,1,330.5321,330.5321,330.5324,332.032,0,16,16,16,1,0.4,0.6,0.8,0.2,,,,,,,,,,,,,,,0.6266,,0.4,0.6,0.8,0.2,0.8,0.2,0.8,0.2,1,0,,,,,,,,,,,,
,,5d65e31c367c8600019f2b13,66fc97f7c1597bde9a128c4f,2024-10-01_20h47.40.061,mdp,2024.2.1,Win32,144.9275362,66fa4ebf79326e780c390304,,,,,,,,,,,,,,,,,,,,,332.0322,332.0322,332.0327,333.0732,1,0,right,0.5288,,333.0739,334.1844,1,0,right,334.185,334.1854,,0,,1,334.1854,334.1854,334.1856,335.684,0,17,17,17,1,0.4,0.6,0.8,0.2,,,,,,,,,,,,,,,0.6011,,0.4,0.6,0.8,0.2,0.8,0.2,0.8,0.2,1,0,,,,,,,,,,,,
,,5d65e31c367c8600019f2b13,66fc97f7c1597bde9a128c4f,2024-10-01_20h47.40.061,mdp,2024.2.1,Win32,144.9275362,66fa4ebf79326e780c390304,,,,,,,,,,,,,,,,,,,,,335.6841,335.6841,335.6847,336.4687,1,0,right,0.2796,,336.4693,337.4411,1,0,right,337.4416,337.4419,,1,,1,337.4419,337.4419,337.4422,338.9417,0,18,18,18,1,0.4,0.6,0.8,0.2,,,,,,,,,,,,,,,0.4601,,0.6,0.4,0.6,0.4,0.8,0.2,0.8,0.2,1,0,,,,,,,,,,,,
,,5d65e31c367c8600019f2b13,66fc97f7c1597bde9a128c4f,2024-10-01_20h47.40.061,mdp,2024.2.1,Win32,144.9275362,66fa4ebf79326e780c390304,,,,,,,,,,,,,,,,,,,,,338.942,338.942,338.9426,339.9618,1,0,right,0.5053,,339.9624,340.9761,1,0,right,340.9767,340.977,,0,,1,340.9771,340.9771,340.9773,342.4764,0,19,19,19,1,0.6,0.4,0.4,0.6,,,,,,,,,,,,,,,0.5038,,0.6,0.4,0.6,0.4,0.8,0.2,0.8,0.2,1,0,,,,,,,,,,,,
,,5d65e31c367c8600019f2b13,66fc97f7c1597bde9a128c4f,2024-10-01_20h47.40.061,mdp,2024.2.1,Win32,144.9275362,66fa4ebf79326e780c390304,,,,,,,,,,,,,,,,,,,,,342.4767,342.4767,342.4771,343.3997,1,1,right,0.4138,,343.4003,344.7475,1,0,right,344.748,344.7484,,1,,1,344.7484,344.7485,344.7487,346.2469,0,20,20,20,1,0.6,0.4,0.4,0.6,,,,,,,,,,,,,,,0.8375,,0.6,0.4,0.6,0.4,0.8,0.2,0.8,0.2,1,0,,,,,,,,,,,,
,,5d65e31c367c8600019f2b13,66fc97f7c1597bde9a128c4f,2024-10-01_20h47.40.061,mdp,2024.2.1,Win32,144.9275362,66fa4ebf79326e780c390304,,,,,,,,,,,,,,,,,,,,,346.2472,346.2472,346.2478,347.2327,1,1,right,0.4795,,347.2331,348.2886,1,0,right,348.2893,348.2896,,0,,1,348.2896,348.2896,348.2898,349.7886,0,21,21,21,1,0.6,0.4,0.4,0.6,,,,,,,,,,,,,,,0.5504,,0.6,0.4,0.6,0.4,0.8,0.2,0.8,0.2,1,0,,,,,,,,,,,,
,,5d65e31c367c8600019f2b13,66fc97f7c1597bde9a128c4f,2024-10-01_20h47.40.061,mdp,2024.2.1,Win32,144.9275362,66fa4ebf79326e780c390304,,,,,,,,,,,,,,,,,,,,,349.7889,349.7889,349.7893,350.6013,1,0,right,0.3001,,350.602,351.4688,1,0,right,351.4696,351.4699,,0,,1,351.4699,351.4699,351.4701,352.9691,0,22,22,22,1,0.6,0.4,0.4,0.6,,,,,,,,,,,,,,,0.3547,,0.6,0.4,0.6,0.4,0.8,0.2,0.8,0.2,1,0,,,,,,,,,,,,
,,5d65e31c367c8600019f2b13,66fc97f7c1597bde9a128c4f,2024-10-01_20h47.40.061,mdp,2024.2.1,Win32,144.9275362,66fa4ebf79326e780c390304,,,,,,,,,,,,,,,,,,,,,352.9693,352.9693,352.9698,353.7467,1,0,right,0.2647,,353.7472,354.5381,1,1,right,354.5386,354.5388,,0,,0,354.5388,354.5388,354.5392,356.0384,0,23,23,23,1,0.6,0.4,0.4,0.6,,,,,,,,,,,,,,,0.2845,,0.6,0.4,0.6,0.4,0.8,0.2,0.8,0.2,1,0,,,,,,,,,,,,
,,5d65e31c367c8600019f2b13,66fc97f7c1597bde9a128c4f,2024-10-01_20h47.40.061,mdp,2024.2.1,Win32,144.9275362,66fa4ebf79326e780c390304,,,,,,,,,,,,,,,,,,,,,356.0386,356.0386,356.0389,356.8653,1,1,right,0.3139,,356.8658,357.7118,0,1,left,357.7124,357.7127,,0,,0,357.7127,357.7127,357.7129,359.2118,0,24,24,24,1,0.6,0.4,0.4,0.6,,,,,,,,,,,,,,,0.3319,,0.6,0.4,0.6,0.4,0.8,0.2,0.8,0.2,1,0,,,,,,,,,,,,
,,5d65e31c367c8600019f2b13,66fc97f7c1597bde9a128c4f,2024-10-01_20h47.40.061,mdp,2024.2.1,Win32,144.9275362,66fa4ebf79326e780c390304,,,,,,,,,,,,,,,,,,,,,359.212,359.212,359.2126,360.4556,0,1,left,0.7362,,360.4562,361.4625,1,1,right,361.4633,361.4636,,1,,0,361.4636,361.4636,361.4639,362.9617,0,25,25,25,1,0.6,0.4,0.4,0.6,,,,,,,,,,,,,,,0.4936,,0.6,0.4,0.6,0.4,0.8,0.2,0.8,0.2,1,0,,,,,,,,,,,,
,,5d65e31c367c8600019f2b13,66fc97f7c1597bde9a128c4f,2024-10-01_20h47.40.061,mdp,2024.2.1,Win32,144.9275362,66fa4ebf79326e780c390304,,,,,,,,,,,,,,,,,,,,,362.9619,362.9619,362.9622,364.0523,0,0,left,0.5818,,364.0527,366.101,0,0,left,366.1015,366.1018,,0,,1,366.1018,366.1019,366.1021,367.6014,0,26,26,26,1,0.6,0.4,0.4,0.6,,,,,,,,,,,,,,,1.535,,0.8,0.2,0.4,0.6,0.8,0.2,0.8,0.2,1,0,,,,,,,,,,,,
,,5d65e31c367c8600019f2b13,66fc97f7c1597bde9a128c4f,2024-10-01_20h47.40.061,mdp,2024.2.1,Win32,144.9275362,66fa4ebf79326e780c390304,,,,,,,,,,,,,,,,,,,,,367.6017,367.6017,367.6022,368.5313,0,0,left,0.4205,,368.5319,369.455,0,0,left,369.4555,369.4558,,0,,1,369.4558,369.4558,369.456,370.9557,0,27,27,27,1,0.6,0.4,0.4,0.6,,,,,,,,,,,,,,,0.4201,,0.8,0.2,0.4,0.6,0.8,0.2,0.8,0.2,1,0,,,,,,,,,,,,
,,5d65e31c367c8600019f2b13,66fc97f7c1597bde9a128c4f,2024-10-01_20h47.40.061,mdp,2024.2.1,Win32,144.9275362,66fa4ebf79326e780c390304,,,,,,,,,,,,,,,,,,,,,370.956,370.956,370.9565,371.8717,0,0,left,0.4018,,371.8722,372.969,0,0,left,372.9696,372.9699,,0,,1,372.9699,372.9699,372.9702,374.4688,0,28,28,28,1,0.6,0.4,0.4,0.6,,,,,,,,,,,,,,,0.5914,,0.8,0.2,0.4,0.6,0.8,0.2,0.8,0.2,1,0,,,,,,,,,,,,
,,5d65e31c367c8600019f2b13,66fc97f7c1597bde9a128c4f,2024-10-01_20h47.40.061,mdp,2024.2.1,Win32,144.9275362,66fa4ebf79326e780c390304,,,,,,,,,,,,,,,,,,,,,374.469,374.469,374.4695,375.3727,0,0,left,0.3892,,375.3733,376.2751,0,0,left,376.2757,376.276,,0,,1,376.2761,376.2761,376.2763,377.7754,0,29,29,29,1,0.6,0.4,0.4,0.6,,,,,,,,,,,,,,,0.3902,,0.8,0.2,0.4,0.6,0.8,0.2,0.8,0.2,1,0,,,,,,,,,,,,
,,5d65e31c367c8600019f2b13,66fc97f7c1597bde9a128c4f,2024-10-01_20h47.40.061,mdp,2024.2.1,Win32,144.9275362,66fa4ebf79326e780c390304,,,,,,,,,,,,,,,,,,,,,377.7755,377.7756,377.776,378.532,0,0,left,0.2457,,378.5326,379.3508,0,1,left,379.3514,379.3516,,1,,0,379.3516,379.3516,379.352,380.8519,0,30,30,30,1,0.6,0.4,0.4,0.6,,,,,,,,,,,,,,,0.3099,,0.8,0.2,0.4,0.6,0.8,0.2,0.8,0.2,1,0,,,,,,,,,,,,
,,5d65e31c367c8600019f2b13,66fc97f7c1597bde9a128c4f,2024-10-01_20h47.40.061,mdp,2024.2.1,Win32,144.9275362,66fa4ebf79326e780c390304,,,,,,,,,,,,,,,,,,,,,380.8521,380.8522,380.8526,383.851,0,0,left,2.4904,,383.8514,384.8161,1,0,right,384.8166,384.8169,,0,,1,384.817,384.817,384.8173,386.3171,0,31,31,31,1,0.6,0.4,0.4,0.6,,,,,,,,,,,,,,,0.46,,0.4,0.6,0.8,0.2,0.8,0.2,0.8,0.2,1,0,,,,,,,,,,,,
,,5d65e31c367c8600019f2b13,66fc97f7c1597bde9a128c4f,2024-10-01_20h47.40.061,mdp,2024.2.1,Win32,144.9275362,66fa4ebf79326e780c390304,,,,,,,,,,,,,,,,,,,,,386.3174,386.3174,386.3178,387.2188,0,0,left,0.3913,,387.2193,388.483,1,0,right,388.4834,388.4838,,0,,1,388.4838,388.4839,388.4841,389.9838,0,32,32,32,1,0.6,0.4,0.4,0.6,,,,,,,,,,,,,,,0.7577,,0.4,0.6,0.8,0.2,0.8,0.2,0.8,0.2,1,0,,,,,,,,,,,,
,,5d65e31c367c8600019f2b13,66fc97f7c1597bde9a128c4f,2024-10-01_20h47.40.061,mdp,2024.2.1,Win32,144.9275362,66fa4ebf79326e780c390304,,,,,,,,,,,,,,,,,,,,,389.984,389.984,389.9847,391.0106,0,0,left,0.5177,,391.0119,392.1575,1,0,right,392.1581,392.1584,,1,,1,392.1584,392.1584,392.1586,393.6566,0,33,33,33,1,0.6,0.4,0.4,0.6,,,,,,,,,,,,,,,0.6391,,0.4,0.6,0.8,0.2,0.8,0.2,0.8,0.2,1,0,,,,,,,,,,,,
,,5d65e31c367c8600019f2b13,66fc97f7c1597bde9a128c4f,2024-10-01_20h47.40.061,mdp,2024.2.1,Win32,144.9275362,66fa4ebf79326e780c390304,,,,,,,,,,,,,,,,,,,,,393.6569,393.6569,393.6572,394.5806,0,0,left,0.4134,,394.5812,395.6983,1,1,right,395.6988,395.6991,,1,,0,395.6991,395.6991,395.6993,397.1987,0,34,34,34,1,0.4,0.6,0.8,0.2,,,,,,,,,,,,,,,0.6052,,0.4,0.6,0.8,0.2,0.8,0.2,0.8,0.2,1,0,,,,,,,,,,,,
,,5d65e31c367c8600019f2b13,66fc97f7c1597bde9a128c4f,2024-10-01_20h47.40.061,mdp,2024.2.1,Win32,144.9275362,66fa4ebf79326e780c390304,,,,,,,,,,,,,,,,,,,,,397.199,397.199,397.1995,398.4415,1,0,right,0.7291,,398.4421,399.5455,1,1,right,399.546,399.5462,,0,,0,399.5462,399.5462,399.5466,401.046,0,35,35,35,1,0.4,0.6,0.8,0.2,,,,,,,,,,,,,,,0.5908,,0.4,0.6,0.8,0.2,0.8,0.2,0.8,0.2,1,0,,,,,,,,,,,,
,,5d65e31c367c8600019f2b13,66fc97f7c1597bde9a128c4f,2024-10-01_20h47.40.061,mdp,2024.2.1,Win32,144.9275362,66fa4ebf79326e780c390304,,,,,,,,,,,,,,,,,,,,,401.0462,401.0462,401.0467,402.0317,1,0,right,0.4728,,402.0322,403.1428,0,1,left,403.1433,403.1437,,0,,0,403.1437,403.1437,403.1439,404.6432,0,36,36,36,1,0.4,0.6,0.8,0.2,,,,,,,,,,,,,,,0.6046,,0.4,0.6,0.8,0.2,0.8,0.2,0.8,0.2,1,0,,,,,,,,,,,,
,,5d65e31c367c8600019f2b13,66fc97f7c1597bde9a128c4f,2024-10-01_20h47.40.061,mdp,2024.2.1,Win32,144.9275362,66fa4ebf79326e780c390304,,,,,,,,,,,,,,,,,,,,,404.6433,404.6433,404.6439,405.7956,0,0,left,0.6384,,405.7961,406.9697,0,0,left,406.9702,406.9706,,1,,1,406.9707,406.9707,406.9709,408.4696,0,37,37,37,1,0.8,0.2,0.2,0.8,,,,,,,,,,,,,,,0.6655,,0.4,0.6,0.8,0.2,0.8,0.2,0.8,0.2,1,0,,,,,,,,,,,,
,,5d65e31c367c8600019f2b13,66fc97f7c1597bde9a128c4f,2024-10-01_20h47.40.061,mdp,2024.2.1,Win32,144.9275362,66fa4ebf79326e780c390304,,,,,,,,,,,,,,,,,,,,,408.4699,408.4699,408.4704,409.4691,0,1,left,0.4886,,409.4698,411.0385,0,0,left,411.0389,411.0394,,0,,1,411.0394,411.0394,411.0396,412.5387,0,38,38,38,1,0.8,0.2,0.2,0.8,,,,,,,,,,,,,,,1.0622,,0.4,0.6,0.8,0.2,0.8,0.2,0.8,0.2,1,0,,,,,,,,,,,,
,,5d65e31c367c8600019f2b13,66fc97f7c1597bde9a128c4f,2024-10-01_20h47.40.061,mdp,2024.2.1,Win32,144.9275362,66fa4ebf79326e780c390304,,,,,,,,,,,,,,,,,,,,,412.5389,412.5389,412.5393,413.5809,0,0,left,0.5288,,413.5815,414.6851,0,0,left,414.6857,414.686,,1,,1,414.686,414.686,414.6863,416.1845,0,39,39,39,1,0.8,0.2,0.2,0.8,,,,,,,,,,,,,,,0.5974,,0.4,0.6,0.8,0.2,0.8,0.2,0.8,0.2,1,0,,,,,,,,,,,,
,,5d65e31c367c8600019f2b13,66fc97f7c1597bde9a128c4f,2024-10-01_20h47.40.061,mdp,2024.2.1,Win32,144.9275362,66fa4ebf79326e780c390304,,,,,,,,,,,,,,,,,,,,,416.1847,416.1847,416.1851,416.9976,0,0,left,0.3048,,416.9981,417.9631,0,1,left,417.9638,417.964,,1,,0,417.9641,417.9641,417.9643,419.4621,0,40,40,40,1,0.8,0.2,0.2,0.8,,,,,,,,,,,,,,,0.4585,,0.4,0.6,0.8,0.2,0.8,0.2,0.8,0.2,1,0,,,,,,,,,,,,
,,5d65e31c367c8600019f2b13,66fc97f7c1597bde9a128c4f,2024-10-01_20h47.40.061,mdp,2024.2.1,Win32,144.9275362,66fa4ebf79326e780c390304,,,,,,,,,,,,,,,,,,,,,419.4624,419.4624,419.4628,420.2193,0,0,left,0.2493,,420.2199,421.2339,1,0,right,421.2345,421.2348,,0,,1,421.2348,421.2348,421.2351,422.734,0,41,41,41,1,0.8,0.2,0.2,0.8,,,,,,,,,,,,,,,0.5063,,0.4,0.6,0.8,0.2,0.8,0.2,0.8,0.2,1,0,,,,,,,,,,,,
,,5d65e31c367c8600019f2b13,66fc97f7c1597bde9a128c4f,2024-10-01_20h47.40.061,mdp,2024.2.1,Win32,144.9275362,66fa4ebf79326e780c390304,,,,,,,,,,,,,,,,,,,,,422.7342,422.7343,422.7347,423.726,0,0,left,0.4802,,423.7266,424.8375,1,0,right,424.8378,424.8382,,0,,1,424.8382,424.8382,424.8385,426.3381,0,42,42,42,1,0.8,0.2,0.2,0.8,,,,,,,,,,,,,,,0.6057,,0.4,0.6,0.8,0.2,0.8,0.2,0.8,0.2,1,0,,,,,,,,,,,,
,,5d65e31c367c8600019f2b13,66fc97f7c1597bde9a128c4f,2024-10-01_20h47.40.061,mdp,2024.2.1,Win32,144.9275362,66fa4ebf79326e780c390304,,,,,,,,,,,,,,,,,,,,,426.3384,426.3384,426.3388,427.2132,0,0,left,0.3603,,427.2138,428.3727,1,0,right,428.3733,428.3737,,0,,1,428.3737,428.3737,428.3739,429.8725,0,43,43,43,1,0.8,0.2,0.2,0.8,,,,,,,,,,,,,,,0.6442,,0.4,0.6,0.8,0.2,0.8,0.2,0.8,0.2,1,0,,,,,,,,,,,,
,,5d65e31c367c8600019f2b13,66fc97f7c1597bde9a128c4f,2024-10-01_20h47.40.061,mdp,2024.2.1,Win32,144.9275362,66fa4ebf79326e780c390304,,,,,,,,,,,,,,,,,,,,,429.8728,429.8728,429.8733,430.9833,0,0,left,0.6033,,430.9837,431.9207,1,0,right,431.9212,431.9214,,0,,1,431.9214,431.9214,431.9217,433.4212,0,44,44,44,1,0.8,0.2,0.2,0.8,,,,,,,,,,,,,,,0.4301,,0.4,0.6,0.8,0.2,0.4,0.6,0.6,0.4,1,0,,,,,,,,,,,,
,,5d65e31c367c8600019f2b13,66fc97f7c1597bde9a128c4f,2024-10-01_20h47.40.061,mdp,2024.2.1,Win32,144.9275362,66fa4ebf79326e780c390304,,,,,,,,,,,,,,,,,,,,,433.4217,433.4217,433.4222,434.2679,0,0,left,0.3342,,434.2685,435.2827,1,0,right,435.2833,435.2837,,0,,1,435.2838,435.2838,435.2839,436.7827,0,45,45,45,1,0.8,0.2,0.2,0.8,,,,,,,,,,,,,,,0.5063,,0.4,0.6,0.8,0.2,0.4,0.6,0.6,0.4,1,0,,,,,,,,,,,,
,,5d65e31c367c8600019f2b13,66fc97f7c1597bde9a128c4f,2024-10-01_20h47.40.061,mdp,2024.2.1,Win32,144.9275362,66fa4ebf79326e780c390304,,,,,,,,,,,,,,,,,,,,,436.7829,436.7829,436.7834,437.8444,0,1,left,0.5488,,437.8449,439.7124,1,0,right,439.713,439.7134,,1,,1,439.7134,439.7134,439.7136,441.2133,0,46,46,46,1,0.8,0.2,0.2,0.8,,,,,,,,,,,,,,,1.3616,,0.4,0.6,0.8,0.2,0.4,0.6,0.6,0.4,1,0,,,,,,,,,,,,
,,5d65e31c367c8600019f2b13,66fc97f7c1597bde9a128c4f,2024-10-01_20h47.40.061,mdp,2024.2.1,Win32,144.9275362,66fa4ebf79326e780c390304,,,,,,,,,,,,,,,,,,,,,441.2135,441.2135,441.2139,442.0251,0,0,left,0.3004,,442.0256,443.081,1,0,right,443.0815,443.0819,,0,,1,443.0819,443.0819,443.0821,444.5813,0,47,47,47,1,0.8,0.2,0.2,0.8,,,,,,,,,,,,,,,0.542,,0.4,0.6,0.8,0.2,0.2,0.8,0.2,0.8,1,0,,,,,,,,,,,,
,,5d65e31c367c8600019f2b13,66fc97f7c1597bde9a128c4f,2024-10-01_20h47.40.061,mdp,2024.2.1,Win32,144.9275362,66fa4ebf79326e780c390304,,,,,,,,,,,,,,,,,,,,,444.5815,444.5815,444.5821,445.4276,0,0,left,0.3359,,445.4281,446.4484,1,0,right,446.4491,446.4496,,0,,1,446.4496,446.4496,446.4499,447.9486,0,48,48,48,1,0.8,0.2,0.2,0.8,,,,,,,,,,,,,,,0.5165,,0.4,0.6,0.8,0.2,0.4,0.6,0.8,0.2,1,0,,,,,,,,,,,,
,,5d65e31c367c8600019f2b13,66fc97f7c1597bde9a128c4f,2024-10-01_20h47.40.061,mdp,2024.2.1,Win32,144.9275362,66fa4ebf79326e780c390304,,,,,,,,,,,,,,,,,,,,,447.9489,447.9489,447.9492,448.8235,0,0,left,0.365,,448.8239,449.8171,1,0,right,449.8178,449.8182,,0,,1,449.8182,449.8182,449.8185,451.3171,0,49,49,49,1,0.8,0.2,0.2,0.8,,,,,,,,,,,,,,,0.4873,,0.2,0.8,0.4,0.6,0.4,0.6,0.8,0.2,1,0,,,,,,,,,,,,
,,5d65e31c367c8600019f2b13,66fc97f7c1597bde9a128c4f,2024-10-01_20h47.40.061,mdp,2024.2.1,Win32,144.9275362,66fa4ebf79326e780c390304,,,,,,,,,,,,,,,,,,,,,,,,,,,,,,,,,,,,,,,,,,,,,,,,,,,,,,,,451.3172,509.8241,0,1,1,7,1,imgs/lion.png,imgs/elephant.png,imgs/goat.png,imgs/giraffe.png,imgs/squirrel.png,,,,,,,,,,,,,,,,,,,,,,,,
,,5d65e31c367c8600019f2b13,66fc97f7c1597bde9a128c4f,2024-10-01_20h47.40.061,mdp,2024.2.1,Win32,144.9275362,66fa4ebf79326e780c390304,,,,,,,,,,,,,,3,seqs/st3seq24.csv,509.8247,512.3447,space,2.0093,,512.3482,512.3482,512.3486,513.4282,1,0,right,0.5666,,513.429,514.3242,1,0,right,514.3246,515.3519,1,1,right,0,515.3519,515.3519,515.3526,516.8517,0,0,0,0,1,0.8,0.2,0.4,0.6,,,,,,,,,,,,,,,0.3889,,0.4,0.6,0.6,0.4,0.2,0.8,0.2,0.8,,,0.5134,,0.6,0.4,0.2,0.8,0.6,0.4,0.2,0.8,1,0
,,5d65e31c367c8600019f2b13,66fc97f7c1597bde9a128c4f,2024-10-01_20h47.40.061,mdp,2024.2.1,Win32,144.9275362,66fa4ebf79326e780c390304,,,,,,,,,,,,,,,,,,,,,516.8521,516.8521,516.8525,517.7617,1,0,right,0.4036,,517.7622,518.7339,1,0,right,518.7343,519.5394,0,0,left,1,519.5395,519.5395,519.5401,521.0394,0,1,1,1,1,0.8,0.2,0.4,0.6,,,,,,,,,,,,,,,0.465,,0.4,0.6,0.6,0.4,0.2,0.8,0.2,0.8,,,0.2991,,0.6,0.4,0.2,0.8,0.6,0.4,0.2,0.8,1,0
,,5d65e31c367c8600019f2b13,66fc97f7c1597bde9a128c4f,2024-10-01_20h47.40.061,mdp,2024.2.1,Win32,144.9275362,66fa4ebf79326e780c390304,,,,,,,,,,,,,,,,,,,,,521.0396,521.0396,521.0401,521.8736,1,0,right,0.3269,,521.8742,522.8867,1,0,right,522.8872,523.7409,0,1,left,0,523.7409,523.7409,523.7415,525.2413,0,2,2,2,1,0.8,0.2,0.4,0.6,,,,,,,,,,,,,,,0.4993,,0.4,0.6,0.6,0.4,0.2,0.8,0.2,0.8,,,0.349,,0.6,0.4,0.2,0.8,0.6,0.4,0.2,0.8,1,0
,,5d65e31c367c8600019f2b13,66fc97f7c1597bde9a128c4f,2024-10-01_20h47.40.061,mdp,2024.2.1,Win32,144.9275362,66fa4ebf79326e780c390304,,,,,,,,,,,,,,,,,,,,,525.2415,525.2415,525.2421,526.5812,1,0,right,0.8258,,526.5816,527.5819,0,1,left,527.5824,528.4979,0,0,left,1,528.498,528.498,528.4987,529.9987,0,3,3,3,1,0.8,0.2,0.4,0.6,,,,,,,,,,,,,,,0.4862,,0.4,0.6,0.6,0.4,0.2,0.8,0.2,0.8,,,0.4011,,0.6,0.4,0.2,0.8,0.6,0.4,0.2,0.8,1,0
,,5d65e31c367c8600019f2b13,66fc97f7c1597bde9a128c4f,2024-10-01_20h47.40.061,mdp,2024.2.1,Win32,144.9275362,66fa4ebf79326e780c390304,,,,,,,,,,,,,,,,,,,,,529.9989,529.9989,529.9993,530.7765,1,1,right,0.2647,,530.777,531.8732,0,1,left,531.8739,532.859,0,0,left,1,532.8591,532.8591,532.8595,534.3588,0,4,4,4,1,0.8,0.2,0.4,0.6,,,,,,,,,,,,,,,0.5825,,0.4,0.6,0.6,0.4,0.2,0.8,0.2,0.8,,,0.4726,,0.6,0.4,0.2,0.8,0.6,0.4,0.2,0.8,1,0
,,5d65e31c367c8600019f2b13,66fc97f7c1597bde9a128c4f,2024-10-01_20h47.40.061,mdp,2024.2.1,Win32,144.9275362,66fa4ebf79326e780c390304,,,,,,,,,,,,,,,,,,,,,534.359,534.359,534.3595,535.1094,1,1,right,0.2455,,535.11,535.9982,0,1,left,535.9988,536.8589,0,0,left,1,536.8589,536.8589,536.8594,538.3589,0,5,5,5,1,0.8,0.2,0.4,0.6,,,,,,,,,,,,,,,0.3733,,0.4,0.6,0.6,0.4,0.2,0.8,0.2,0.8,,,0.3549,,0.6,0.4,0.2,0.8,0.6,0.4,0.2,0.8,1,0
,,5d65e31c367c8600019f2b13,66fc97f7c1597bde9a128c4f,2024-10-01_20h47.40.061,mdp,2024.2.1,Win32,144.9275362,66fa4ebf79326e780c390304,,,,,,,,,,,,,,,,,,,,,538.359,538.359,538.3594,539.1998,1,0,right,0.3344,,539.2003,540.0465,0,1,left,540.047,540.8311,0,0,left,1,540.8312,540.8312,540.8316,542.332,0,6,6,6,1,0.8,0.2,0.4,0.6,,,,,,,,,,,,,,,0.3309,,0.4,0.6,0.6,0.4,0.2,0.8,0.2,0.8,,,0.2785,,0.6,0.4,0.2,0.8,0.6,0.4,0.2,0.8,1,0
,,5d65e31c367c8600019f2b13,66fc97f7c1597bde9a128c4f,2024-10-01_20h47.40.061,mdp,2024.2.1,Win32,144.9275362,66fa4ebf79326e780c390304,,,,,,,,,,,,,,,,,,,,,542.3322,542.3322,542.3327,543.3667,1,0,right,0.5222,,543.3674,544.2549,0,1,left,544.2553,545.1095,0,1,left,0,545.1096,545.1096,545.1102,546.6088,0,7,7,7,1,0.8,0.2,0.4,0.6,,,,,,,,,,,,,,,0.3758,,0.4,0.6,0.6,0.4,0.2,0.8,0.2,0.8,,,0.3477,,0.6,0.4,0.2,0.8,0.6,0.4,0.2,0.8,1,0
,,5d65e31c367c8600019f2b13,66fc97f7c1597bde9a128c4f,2024-10-01_20h47.40.061,mdp,2024.2.1,Win32,144.9275362,66fa4ebf79326e780c390304,,,,,,,,,,,,,,,,,,,,,546.609,546.609,546.6094,547.7271,1,0,right,0.6112,,547.7276,549.4632,1,0,right,549.4638,550.9631,1,1,right,0,550.9631,550.9631,550.9636,552.4639,0,8,8,8,1,0.8,0.2,0.4,0.6,,,,,,,,,,,,,,,1.2289,,0.4,0.6,0.6,0.4,0.2,0.8,0.2,0.8,,,0.9948,,0.6,0.4,0.2,0.8,0.6,0.4,0.2,0.8,1,0
,,5d65e31c367c8600019f2b13,66fc97f7c1597bde9a128c4f,2024-10-01_20h47.40.061,mdp,2024.2.1,Win32,144.9275362,66fa4ebf79326e780c390304,,,,,,,,,,,,,,,,,,,,,552.4641,552.4641,552.4648,553.2625,1,0,right,0.2847,,553.2631,554.1786,1,1,right,554.1791,555.1652,0,0,left,1,555.1653,555.1653,555.1658,556.665,0,9,9,9,1,0.8,0.2,0.4,0.6,,,,,,,,,,,,,,,0.4035,,0.4,0.6,0.6,0.4,0.2,0.8,0.2,0.8,,,0.4791,,0.6,0.4,0.2,0.8,0.6,0.4,0.2,0.8,1,0
,,5d65e31c367c8600019f2b13,66fc97f7c1597bde9a128c4f,2024-10-01_20h47.40.061,mdp,2024.2.1,Win32,144.9275362,66fa4ebf79326e780c390304,,,,,,,,,,,,,,,,,,,,,556.6653,556.6653,556.6659,557.4498,1,1,right,0.2707,,557.4505,558.4703,1,1,right,558.4709,560.4425,0,1,left,0,560.4425,560.4425,560.443,561.9424,0,10,10,10,1,0.8,0.2,0.4,0.6,,,,,,,,,,,,,,,0.5059,,0.4,0.6,0.6,0.4,0.2,0.8,0.2,0.8,,,1.4587,,0.6,0.4,0.2,0.8,0.6,0.4,0.2,0.8,1,0
,,5d65e31c367c8600019f2b13,66fc97f7c1597bde9a128c4f,2024-10-01_20h47.40.061,mdp,2024.2.1,Win32,144.9275362,66fa4ebf79326e780c390304,,,,,,,,,,,,,,,,,,,,,561.9427,561.9427,561.9433,562.7971,1,0,right,0.3426,,562.7976,563.6104,1,0,right,563.6112,564.5189,1,1,right,0,564.519,564.519,564.5195,566.0191,0,11,11,11,1,0.8,0.2,0.4,0.6,,,,,,,,,,,,,,,0.2974,,0.4,0.6,0.6,0.4,0.2,0.8,0.2,0.8,,,0.3955,,0.6,0.4,0.2,0.8,0.6,0.4,0.2,0.8,1,0
,,5d65e31c367c8600019f2b13,66fc97f7c1597bde9a128c4f,2024-10-01_20h47.40.061,mdp,2024.2.1,Win32,144.9275362,66fa4ebf79326e780c390304,,,,,,,,,,,,,,,,,,,,,566.0193,566.0193,566.0199,567.7619,0,0,left,1.2314,,567.7624,568.5329,0,0,left,568.5334,569.4921,0,0,left,1,569.4921,569.4921,569.4927,570.9917,0,12,12,12,1,0.8,0.2,0.4,0.6,,,,,,,,,,,,,,,0.2659,,0.4,0.6,0.6,0.4,0.2,0.8,0.2,0.8,,,0.4456,,0.6,0.4,0.2,0.8,0.6,0.4,0.2,0.8,1,0
,,5d65e31c367c8600019f2b13,66fc97f7c1597bde9a128c4f,2024-10-01_20h47.40.061,mdp,2024.2.1,Win32,144.9275362,66fa4ebf79326e780c390304,,,,,,,,,,,,,,,,,,,,,570.9921,570.9921,570.9926,571.8313,0,0,left,0.3311,,571.8317,572.7479,0,0,left,572.7486,573.6171,0,1,left,0,573.6171,573.6171,573.6179,575.1163,0,13,13,13,1,0.8,0.2,0.4,0.6,,,,,,,,,,,,,,,0.4086,,0.8,0.2,0.8,0.2,0.2,0.8,0.2,0.8,,,0.3621,,0.6,0.4,0.2,0.8,0.6,0.4,0.2,0.8,1,0
,,5d65e31c367c8600019f2b13,66fc97f7c1597bde9a128c4f,2024-10-01_20h47.40.061,mdp,2024.2.1,Win32,144.9275362,66fa4ebf79326e780c390304,,,,,,,,,,,,,,,,,,,,,575.1164,575.1164,575.1169,576.0679,0,0,left,0.4401,,576.0685,577.1448,0,0,left,577.1455,578.1788,1,1,right,0,578.1788,578.1788,578.1793,579.6791,0,14,14,14,1,0.8,0.2,0.4,0.6,,,,,,,,,,,,,,,0.5619,,0.8,0.2,0.8,0.2,0.2,0.8,0.2,0.8,,,0.521,,0.6,0.4,0.2,0.8,0.6,0.4,0.2,0.8,1,0
,,5d65e31c367c8600019f2b13,66fc97f7c1597bde9a128c4f,2024-10-01_20h47.40.061,mdp,2024.2.1,Win32,144.9275362,66fa4ebf79326e780c390304,,,,,,,,,,,,,,,,,,,,,579.6793,579.6793,579.6799,580.7001,1,0,right,0.5079,,580.7006,581.8107,0,0,left,581.8111,582.6721,1,1,right,0,582.6721,582.6721,582.6727,584.1719,0,15,15,15,1,0.8,0.2,0.4,0.6,,,,,,,,,,,,,,,0.5984,,0.8,0.2,0.8,0.2,0.2,0.8,0.2,0.8,,,0.3572,,0.6,0.4,0.2,0.8,0.6,0.4,0.2,0.8,1,0
,,5d65e31c367c8600019f2b13,66fc97f7c1597bde9a128c4f,2024-10-01_20h47.40.061,mdp,2024.2.1,Win32,144.9275362,66fa4ebf79326e780c390304,,,,,,,,,,,,,,,,,,,,,584.172,584.172,584.1724,585.0611,1,1,right,0.3838,,585.0618,585.8868,0,1,left,585.8874,586.7272,0,0,left,1,586.7272,586.7272,586.7276,588.2275,0,16,16,16,1,0.8,0.2,0.4,0.6,,,,,,,,,,,,,,,0.3144,,0.8,0.2,0.8,0.2,0.2,0.8,0.2,0.8,,,0.3321,,0.6,0.4,0.2,0.8,0.6,0.4,0.2,0.8,1,0
,,5d65e31c367c8600019f2b13,66fc97f7c1597bde9a128c4f,2024-10-01_20h47.40.061,mdp,2024.2.1,Win32,144.9275362,66fa4ebf79326e780c390304,,,,,,,,,,,,,,,,,,,,,588.2277,588.2277,588.2281,589.0194,1,0,right,0.279,,589.02,589.8046,0,1,left,589.8053,590.7419,0,1,left,0,590.7419,590.7419,590.7425,592.2412,0,17,17,17,1,0.8,0.2,0.4,0.6,,,,,,,,,,,,,,,0.2751,,0.6,0.4,0.2,0.8,0.2,0.8,0.2,0.8,,,0.4296,,0.6,0.4,0.2,0.8,0.6,0.4,0.2,0.8,1,0
,,5d65e31c367c8600019f2b13,66fc97f7c1597bde9a128c4f,2024-10-01_20h47.40.061,mdp,2024.2.1,Win32,144.9275362,66fa4ebf79326e780c390304,,,,,,,,,,,,,,,,,,,,,592.2414,592.2414,592.2419,593.2552,1,1,right,0.5059,,593.2558,594.013,1,1,right,594.0135,594.8046,1,1,right,0,594.8046,594.8046,594.8051,596.3047,0,18,18,18,1,0.8,0.2,0.4,0.6,,,,,,,,,,,,,,,0.2479,,0.6,0.4,0.2,0.8,0.2,0.8,0.2,0.8,,,0.279,,0.6,0.4,0.2,0.8,0.6,0.4,0.2,0.8,1,0
,,5d65e31c367c8600019f2b13,66fc97f7c1597bde9a128c4f,2024-10-01_20h47.40.061,mdp,2024.2.1,Win32,144.9275362,66fa4ebf79326e780c390304,,,,,,,,,,,,,,,,,,,,,596.3049,596.3049,596.3053,597.0824,0,0,left,0.2653,,597.0831,597.8808,0,0,left,597.8815,598.6932,0,0,left,1,598.6933,598.6933,598.6938,600.1931,0,19,19,19,1,0.8,0.2,0.4,0.6,,,,,,,,,,,,,,,0.2903,,0.6,0.4,0.2,0.8,0.2,0.8,0.2,0.8,,,0.2989,,0.6,0.4,0.2,0.8,0.6,0.4,0.2,0.8,1,0
,,5d65e31c367c8600019f2b13,66fc97f7c1597bde9a128c4f,2024-10-01_20h47.40.061,mdp,2024.2.1,Win32,144.9275362,66fa4ebf79326e780c390304,,,,,,,,,,,,,,,,,,,,,600.1934,600.1934,600.1939,601.0612,0,0,left,0.3632,,601.0618,601.9566,0,0,left,601.9571,602.7481,0,1,left,0,602.7482,602.7482,602.7487,604.2482,0,20,20,20,1,0.8,0.2,0.4,0.6,,,,,,,,,,,,,,,0.3825,,0.6,0.4,0.2,0.8,0.2,0.8,0.2,0.8,,,0.2866,,0.6,0.4,0.2,0.8,0.6,0.4,0.2,0.8,1,0
,,5d65e31c367c8600019f2b13,66fc97f7c1597bde9a128c4f,2024-10-01_20h47.40.061,mdp,2024.2.1,Win32,144.9275362,66fa4ebf79326e780c390304,,,,,,,,,,,,,,,,,,,,,604.2484,604.2484,604.2489,605.0054,0,0,left,0.2431,,605.0059,605.9294,0,0,left,605.93,606.7345,1,1,right,0,606.7345,606.7345,606.7349,608.235,0,21,21,21,1,0.8,0.2,0.4,0.6,,,,,,,,,,,,,,,0.41,,0.4,0.6,0.8,0.2,0.2,0.8,0.2,0.8,,,0.2927,,0.6,0.4,0.2,0.8,0.6,0.4,0.2,0.8,1,0
,,5d65e31c367c8600019f2b13,66fc97f7c1597bde9a128c4f,2024-10-01_20h47.40.061,mdp,2024.2.1,Win32,144.9275362,66fa4ebf79326e780c390304,,,,,,,,,,,,,,,,,,,,,608.2351,608.2351,608.2357,609.4362,1,0,right,0.689,,609.4369,610.3386,0,1,left,610.3392,611.3598,1,1,right,0,611.3599,611.3599,611.3606,612.8598,0,22,22,22,1,0.8,0.2,0.4,0.6,,,,,,,,,,,,,,,0.3892,,0.4,0.6,0.8,0.2,0.2,0.8,0.2,0.8,,,0.5109,,0.6,0.4,0.2,0.8,0.6,0.4,0.2,0.8,1,0
,,5d65e31c367c8600019f2b13,66fc97f7c1597bde9a128c4f,2024-10-01_20h47.40.061,mdp,2024.2.1,Win32,144.9275362,66fa4ebf79326e780c390304,,,,,,,,,,,,,,,,,,,,,612.86,612.86,612.8606,613.7767,1,0,right,0.4044,,613.7775,615.3247,1,0,right,615.3252,616.2279,0,0,left,1,616.2279,616.2279,616.2285,617.7277,0,23,23,23,1,0.8,0.2,0.4,0.6,,,,,,,,,,,,,,,1.037,,0.4,0.6,0.8,0.2,0.2,0.8,0.2,0.8,,,0.3939,,0.6,0.4,0.2,0.8,0.6,0.4,0.2,0.8,1,0
,,5d65e31c367c8600019f2b13,66fc97f7c1597bde9a128c4f,2024-10-01_20h47.40.061,mdp,2024.2.1,Win32,144.9275362,66fa4ebf79326e780c390304,,,,,,,,,,,,,,,,,,,,,617.7278,617.7278,617.7282,618.5405,1,1,right,0.3059,,618.5412,619.4573,1,1,right,619.4583,620.3254,0,1,left,0,620.3254,620.3254,620.3259,621.8256,0,24,24,24,1,0.8,0.2,0.4,0.6,,,,,,,,,,,,,,,0.4104,,0.4,0.6,0.8,0.2,0.2,0.8,0.2,0.8,,,0.354,,0.6,0.4,0.2,0.8,0.6,0.4,0.2,0.8,1,0
,,5d65e31c367c8600019f2b13,66fc97f7c1597bde9a128c4f,2024-10-01_20h47.40.061,mdp,2024.2.1,Win32,144.9275362,66fa4ebf79326e780c390304,,,,,,,,,,,,,,,,,,,,,621.8258,621.8258,621.8264,622.5825,1,1,right,0.2437,,622.5831,623.6652,1,1,right,623.6657,624.8386,1,1,right,0,624.8387,624.8387,624.8392,626.3391,0,25,25,25,1,0.8,0.2,0.4,0.6,,,,,,,,,,,,,,,0.5716,,0.4,0.6,0.8,0.2,0.2,0.8,0.2,0.8,,,0.6699,,0.6,0.4,0.2,0.8,0.6,0.4,0.2,0.8,1,0
,,5d65e31c367c8600019f2b13,66fc97f7c1597bde9a128c4f,2024-10-01_20h47.40.061,mdp,2024.2.1,Win32,144.9275362,66fa4ebf79326e780c390304,,,,,,,,,,,,,,,,,,,,,626.3392,626.3392,626.3397,627.6789,0,0,left,0.8314,,627.6793,628.783,0,1,left,628.7834,630.5754,0,0,left,1,630.5755,630.5755,630.5763,632.0756,0,26,26,26,1,0.8,0.2,0.4,0.6,,,,,,,,,,,,,,,0.5997,,0.4,0.6,0.8,0.2,0.2,0.8,0.2,0.8,,,1.2864,,0.6,0.4,0.2,0.8,0.6,0.4,0.2,0.8,1,0
,,5d65e31c367c8600019f2b13,66fc97f7c1597bde9a128c4f,2024-10-01_20h47.40.061,mdp,2024.2.1,Win32,144.9275362,66fa4ebf79326e780c390304,,,,,,,,,,,,,,,,,,,,,632.0759,632.0759,632.0764,633.0541,0,1,left,0.465,,633.0546,633.8254,0,0,left,633.8261,635.2554,1,1,right,0,635.2555,635.2555,635.2559,636.7563,0,27,27,27,1,0.4,0.6,0.8,0.2,,,,,,,,,,,,,,,0.265,,0.4,0.6,0.8,0.2,0.2,0.8,0.2,0.8,,,0.9152,,0.6,0.4,0.2,0.8,0.6,0.4,0.2,0.8,1,0
,,5d65e31c367c8600019f2b13,66fc97f7c1597bde9a128c4f,2024-10-01_20h47.40.061,mdp,2024.2.1,Win32,144.9275362,66fa4ebf79326e780c390304,,,,,,,,,,,,,,,,,,,,,636.7565,636.7565,636.757,638.3393,0,0,left,1.0695,,638.3399,639.6028,0,1,left,639.6032,641.1453,0,1,left,0,641.1453,641.1453,641.146,642.6452,0,28,28,28,1,0.4,0.6,0.8,0.2,,,,,,,,,,,,,,,0.7554,,0.4,0.6,0.8,0.2,0.2,0.8,0.2,0.8,,,1.0337,,0.6,0.4,0.2,0.8,0.6,0.4,0.2,0.8,1,0
,,5d65e31c367c8600019f2b13,66fc97f7c1597bde9a128c4f,2024-10-01_20h47.40.061,mdp,2024.2.1,Win32,144.9275362,66fa4ebf79326e780c390304,,,,,,,,,,,,,,,,,,,,,642.6456,642.6456,642.6462,643.4917,0,1,left,0.3356,,643.4922,644.4296,0,1,left,644.4303,645.5685,1,1,right,0,645.5685,645.5685,645.569,647.0679,0,29,29,29,1,0.4,0.6,0.8,0.2,,,,,,,,,,,,,,,0.428,,0.4,0.6,0.8,0.2,0.2,0.8,0.2,0.8,,,0.6285,,0.6,0.4,0.2,0.8,0.6,0.4,0.2,0.8,1,0
,,5d65e31c367c8600019f2b13,66fc97f7c1597bde9a128c4f,2024-10-01_20h47.40.061,mdp,2024.2.1,Win32,144.9275362,66fa4ebf79326e780c390304,,,,,,,,,,,,,,,,,,,,,647.0682,647.0682,647.0687,648.0685,1,0,right,0.4856,,648.0691,648.9707,0,1,left,648.971,650.3736,1,1,right,0,650.3737,650.3737,650.3743,651.8741,0,30,30,30,1,0.4,0.6,0.8,0.2,,,,,,,,,,,,,,,0.3914,,0.4,0.6,0.8,0.2,0.2,0.8,0.2,0.8,,,0.8977,,0.6,0.4,0.2,0.8,0.6,0.4,0.2,0.8,1,0
,,5d65e31c367c8600019f2b13,66fc97f7c1597bde9a128c4f,2024-10-01_20h47.40.061,mdp,2024.2.1,Win32,144.9275362,66fa4ebf79326e780c390304,,,,,,,,,,,,,,,,,,,,,651.8744,651.8744,651.8748,652.9369,1,0,right,0.5552,,652.9375,653.8596,1,0,right,653.8601,655.5616,1,1,right,0,655.5617,655.5617,655.5622,657.062,0,31,31,31,1,0.4,0.6,0.8,0.2,,,,,,,,,,,,,,,0.4141,,0.4,0.6,0.8,0.2,0.2,0.8,0.2,0.8,,,1.1946,,0.6,0.4,0.2,0.8,0.6,0.4,0.2,0.8,1,0
,,5d65e31c367c8600019f2b13,66fc97f7c1597bde9a128c4f,2024-10-01_20h47.40.061,mdp,2024.2.1,Win32,144.9275362,66fa4ebf79326e780c390304,,,,,,,,,,,,,,,,,,,,,657.0621,657.0622,657.0626,658.1454,1,1,right,0.5697,,658.1461,658.9372,1,1,right,658.9377,660.4916,0,0,left,1,660.4916,660.4916,660.492,661.9916,0,32,32,32,1,0.4,0.6,0.8,0.2,,,,,,,,,,,,,,,0.2753,,0.4,0.6,0.8,0.2,0.2,0.8,0.2,0.8,,,1.0436,,0.6,0.4,0.2,0.8,0.6,0.4,0.2,0.8,1,0
,,5d65e31c367c8600019f2b13,66fc97f7c1597bde9a128c4f,2024-10-01_20h47.40.061,mdp,2024.2.1,Win32,144.9275362,66fa4ebf79326e780c390304,,,,,,,,,,,,,,,,,,,,,661.9919,661.9919,661.9924,662.8249,1,0,right,0.3278,,662.8253,663.7005,1,0,right,663.701,665.3121,0,0,left,1,665.3121,665.3121,665.3127,666.8121,0,33,33,33,1,0.4,0.6,0.8,0.2,,,,,,,,,,,,,,,0.3692,,0.4,0.6,0.8,0.2,0.2,0.8,0.2,0.8,,,1.096,,0.6,0.4,0.2,0.8,0.6,0.4,0.2,0.8,1,0
,,5d65e31c367c8600019f2b13,66fc97f7c1597bde9a128c4f,2024-10-01_20h47.40.061,mdp,2024.2.1,Win32,144.9275362,66fa4ebf79326e780c390304,,,,,,,,,,,,,,,,,,,,,666.8122,666.8122,666.8128,667.5749,1,1,right,0.2547,,667.5754,668.3746,1,0,right,668.3753,669.7488,0,1,left,0,669.7488,669.7488,669.7493,671.2488,0,34,34,34,1,0.4,0.6,0.8,0.2,,,,,,,,,,,,,,,0.2916,,0.4,0.6,0.8,0.2,0.2,0.8,0.2,0.8,,,0.8616,,0.6,0.4,0.2,0.8,0.6,0.4,0.2,0.8,1,0
,,5d65e31c367c8600019f2b13,66fc97f7c1597bde9a128c4f,2024-10-01_20h47.40.061,mdp,2024.2.1,Win32,144.9275362,66fa4ebf79326e780c390304,,,,,,,,,,,,,,,,,,,,,671.2489,671.249,671.2494,671.9988,1,1,right,0.2475,,671.9992,672.8043,0,1,left,672.8048,674.4854,1,1,right,0,674.4856,674.4856,674.4861,675.9857,0,35,35,35,1,0.4,0.6,0.8,0.2,,,,,,,,,,,,,,,0.2939,,0.4,0.6,0.8,0.2,0.2,0.8,0.2,0.8,,,1.1655,,0.6,0.4,0.2,0.8,0.6,0.4,0.2,0.8,1,0
,,5d65e31c367c8600019f2b13,66fc97f7c1597bde9a128c4f,2024-10-01_20h47.40.061,mdp,2024.2.1,Win32,144.9275362,66fa4ebf79326e780c390304,,,,,,,,,,,,,,,,,,,,,675.986,675.986,675.9865,676.7494,1,0,right,0.2527,,676.7503,677.6794,1,0,right,677.6799,678.5895,0,0,left,1,678.5895,678.5895,678.5902,680.0894,0,36,36,36,1,0.4,0.6,0.8,0.2,,,,,,,,,,,,,,,0.4186,,0.4,0.6,0.8,0.2,0.2,0.8,0.2,0.8,,,0.4021,,0.6,0.4,0.2,0.8,0.6,0.4,0.2,0.8,1,0
,,5d65e31c367c8600019f2b13,66fc97f7c1597bde9a128c4f,2024-10-01_20h47.40.061,mdp,2024.2.1,Win32,144.9275362,66fa4ebf79326e780c390304,,,,,,,,,,,,,,,,,,,,,680.0899,680.0899,680.0904,681.0892,1,0,right,0.4883,,681.0897,682.02,0,0,left,682.0206,683.5131,0,0,left,1,683.5132,683.5132,683.5138,685.0128,0,37,37,37,1,0.4,0.6,0.8,0.2,,,,,,,,,,,,,,,0.418,,0.4,0.6,0.8,0.2,0.2,0.8,0.2,0.8,,,0.9856,,0.8,0.2,0.8,0.2,0.6,0.4,0.2,0.8,1,0
,,5d65e31c367c8600019f2b13,66fc97f7c1597bde9a128c4f,2024-10-01_20h47.40.061,mdp,2024.2.1,Win32,144.9275362,66fa4ebf79326e780c390304,,,,,,,,,,,,,,,,,,,,,685.013,685.013,685.0134,685.9362,1,0,right,0.4162,,685.9365,686.8949,0,0,left,686.8952,688.228,0,1,left,0,688.2281,688.2281,688.2288,689.7278,0,38,38,38,1,0.4,0.6,0.8,0.2,,,,,,,,,,,,,,,0.4507,,0.4,0.6,0.8,0.2,0.2,0.8,0.2,0.8,,,0.8298,,0.8,0.2,0.8,0.2,0.6,0.4,0.2,0.8,1,0
,,5d65e31c367c8600019f2b13,66fc97f7c1597bde9a128c4f,2024-10-01_20h47.40.061,mdp,2024.2.1,Win32,144.9275362,66fa4ebf79326e780c390304,,,,,,,,,,,,,,,,,,,,,689.7279,689.7279,689.7284,690.4927,1,0,right,0.2502,,690.4939,691.2834,0,1,left,691.2838,692.3185,1,0,right,1,692.3185,692.3185,692.319,693.8188,0,39,39,39,1,0.4,0.6,0.8,0.2,,,,,,,,,,,,,,,0.2768,,0.4,0.6,0.8,0.2,0.8,0.2,0.6,0.4,,,0.5268,,0.8,0.2,0.8,0.2,0.6,0.4,0.2,0.8,1,0
,,5d65e31c367c8600019f2b13,66fc97f7c1597bde9a128c4f,2024-10-01_20h47.40.061,mdp,2024.2.1,Win32,144.9275362,66fa4ebf79326e780c390304,,,,,,,,,,,,,,,,,,,,,693.8191,693.8191,693.8196,694.8598,1,0,right,0.5312,,694.8603,695.6734,0,1,left,695.674,696.6862,1,1,right,0,696.6862,696.6862,696.6867,698.1872,0,40,40,40,1,0.4,0.6,0.8,0.2,,,,,,,,,,,,,,,0.3056,,0.4,0.6,0.8,0.2,0.8,0.2,0.6,0.4,,,0.5005,,0.8,0.2,0.8,0.2,0.6,0.4,0.2,0.8,1,0
,,5d65e31c367c8600019f2b13,66fc97f7c1597bde9a128c4f,2024-10-01_20h47.40.061,mdp,2024.2.1,Win32,144.9275362,66fa4ebf79326e780c390304,,,,,,,,,,,,,,,,,,,,,698.1876,698.1876,698.1881,699.0346,1,0,right,0.3338,,699.035,700.7212,0,1,left,700.7217,701.7564,0,0,left,1,701.7564,701.7565,701.757,703.2559,0,41,41,41,1,0.4,0.6,0.8,0.2,,,,,,,,,,,,,,,1.172,,0.4,0.6,0.8,0.2,0.8,0.2,0.6,0.4,,,0.5298,,0.8,0.2,0.8,0.2,0.6,0.4,0.2,0.8,1,0
,,5d65e31c367c8600019f2b13,66fc97f7c1597bde9a128c4f,2024-10-01_20h47.40.061,mdp,2024.2.1,Win32,144.9275362,66fa4ebf79326e780c390304,,,,,,,,,,,,,,,,,,,,,703.2561,703.2561,703.2566,704.207,1,0,right,0.447,,704.2076,705.2495,1,1,right,705.2501,706.2282,0,0,left,1,706.2283,706.2283,706.2288,707.729,0,42,42,42,1,0.4,0.6,0.8,0.2,,,,,,,,,,,,,,,0.5373,,0.4,0.6,0.8,0.2,0.8,0.2,0.6,0.4,,,0.4676,,0.8,0.2,0.8,0.2,0.6,0.4,0.2,0.8,1,0
,,5d65e31c367c8600019f2b13,66fc97f7c1597bde9a128c4f,2024-10-01_20h47.40.061,mdp,2024.2.1,Win32,144.9275362,66fa4ebf79326e780c390304,,,,,,,,,,,,,,,,,,,,,707.7291,707.7291,707.7296,708.499,1,0,right,0.2595,,708.4995,709.4509,1,0,right,709.4515,710.3391,0,0,left,1,710.3392,710.3393,710.3397,711.8398,0,43,43,43,1,0.4,0.6,0.8,0.2,,,,,,,,,,,,,,,0.445,,0.4,0.6,0.8,0.2,0.8,0.2,0.6,0.4,,,0.3837,,0.8,0.2,0.8,0.2,0.6,0.4,0.2,0.8,1,0
,,5d65e31c367c8600019f2b13,66fc97f7c1597bde9a128c4f,2024-10-01_20h47.40.061,mdp,2024.2.1,Win32,144.9275362,66fa4ebf79326e780c390304,,,,,,,,,,,,,,,,,,,,,711.84,711.84,711.8413,712.6105,1,0,right,0.2582,,712.6112,713.4374,1,1,right,713.4381,714.2565,0,0,left,1,714.2565,714.2565,714.2571,715.7568,0,44,44,44,1,0.4,0.6,0.8,0.2,,,,,,,,,,,,,,,0.3199,,0.6,0.4,0.6,0.4,0.8,0.2,0.6,0.4,,,0.3077,,0.8,0.2,0.8,0.2,0.6,0.4,0.2,0.8,1,0
,,5d65e31c367c8600019f2b13,66fc97f7c1597bde9a128c4f,2024-10-01_20h47.40.061,mdp,2024.2.1,Win32,144.9275362,66fa4ebf79326e780c390304,,,,,,,,,,,,,,,,,,,,,715.757,715.7571,715.7574,716.5686,1,0,right,0.2991,,716.569,717.3464,1,0,right,717.3469,718.1658,0,0,left,1,718.1658,718.1658,718.1662,719.6666,0,45,45,45,1,0.4,0.6,0.8,0.2,,,,,,,,,,,,,,,0.2754,,0.6,0.4,0.6,0.4,0.8,0.2,0.6,0.4,,,0.3116,,0.8,0.2,0.8,0.2,0.6,0.4,0.2,0.8,1,0
,,5d65e31c367c8600019f2b13,66fc97f7c1597bde9a128c4f,2024-10-01_20h47.40.061,mdp,2024.2.1,Win32,144.9275362,66fa4ebf79326e780c390304,,,,,,,,,,,,,,,,,,,,,719.6669,719.6669,719.6674,721.3468,1,0,right,1.168,,721.3475,722.4922,1,0,right,722.4927,723.3468,0,0,left,1,723.3469,723.3469,723.3474,724.8468,0,46,46,46,1,0.4,0.6,0.8,0.2,,,,,,,,,,,,,,,0.6382,,0.6,0.4,0.6,0.4,0.8,0.2,0.6,0.4,,,0.3426,,0.8,0.2,0.8,0.2,0.6,0.4,0.2,0.8,1,0
,,5d65e31c367c8600019f2b13,66fc97f7c1597bde9a128c4f,2024-10-01_20h47.40.061,mdp,2024.2.1,Win32,144.9275362,66fa4ebf79326e780c390304,,,,,,,,,,,,,,,,,,,,,724.8473,724.8474,724.8479,725.6381,1,0,right,0.2778,,725.6388,726.458,1,0,right,726.4587,727.2771,0,1,left,0,727.2771,727.2771,727.2776,728.7769,0,47,47,47,1,0.4,0.6,0.8,0.2,,,,,,,,,,,,,,,0.3064,,0.6,0.4,0.6,0.4,0.8,0.2,0.6,0.4,,,0.305,,0.8,0.2,0.8,0.2,0.6,0.4,0.2,0.8,1,0
,,5d65e31c367c8600019f2b13,66fc97f7c1597bde9a128c4f,2024-10-01_20h47.40.061,mdp,2024.2.1,Win32,144.9275362,66fa4ebf79326e780c390304,,,,,,,,,,,,,,,,,,,,,728.7771,728.7771,728.7777,729.756,0,0,left,0.4735,,729.7565,730.9304,0,0,left,730.931,732.4375,0,0,left,1,732.4376,732.4376,732.438,733.9371,0,48,48,48,1,0.4,0.6,0.8,0.2,,,,,,,,,,,,,,,0.6682,,0.6,0.4,0.6,0.4,0.8,0.2,0.6,0.4,,,0.9942,,0.8,0.2,0.8,0.2,0.6,0.4,0.2,0.8,1,0
,,5d65e31c367c8600019f2b13,66fc97f7c1597bde9a128c4f,2024-10-01_20h47.40.061,mdp,2024.2.1,Win32,144.9275362,66fa4ebf79326e780c390304,,,,,,,,,,,,,,,,,,,,,733.9374,733.9374,733.938,734.9851,0,1,left,0.5369,,734.9858,735.7778,0,1,left,735.7784,737.138,1,1,right,0,737.138,737.138,737.1384,738.6382,0,49,49,49,1,0.4,0.6,0.8,0.2,,,,,,,,,,,,,,,0.2832,,0.6,0.4,0.6,0.4,0.8,0.2,0.6,0.4,,,0.8453,,0.8,0.2,0.8,0.2,0.6,0.4,0.2,0.8,1,0
,,5d65e31c367c8600019f2b13,66fc97f7c1597bde9a128c4f,2024-10-01_20h47.40.061,mdp,2024.2.1,Win32,144.9275362,66fa4ebf79326e780c390304,,,,,,,,,,,,,,,,,,,,,,,,,,,,,,,,,,,,,,,,,,,,,,,,,,,,,,,,738.6382,797.1388,0,2,2,8,1,imgs/elephant.png,imgs/giraffe.png,imgs/bear.png,imgs/kangaroo.png,imgs/goat.png,,,,,,,,,,,,,,,,,,,,,,,,
,,5d65e31c367c8600019f2b13,66fc97f7c1597bde9a128c4f,2024-10-01_20h47.40.061,mdp,2024.2.1,Win32,144.9275362,66fa4ebf79326e780c390304,,,,,,,,,,,,,,3,seqs/st3seq38.csv,797.1392,808.4581,space,10.8071,,808.4617,808.4617,808.4621,809.7078,1,0,right,0.7362,,809.7083,810.6456,1,0,right,810.6461,811.4863,1,1,right,0,811.4863,811.4863,811.4871,812.9866,0,0,0,0,1,0.2,0.8,0.6,0.4,,,,,,,,,,,,,,,0.4295,,0.2,0.8,0.4,0.6,0.6,0.4,0.4,0.6,,,0.3296,,0.2,0.8,0.6,0.4,0.6,0.4,0.2,0.8,1,0
,,5d65e31c367c8600019f2b13,66fc97f7c1597bde9a128c4f,2024-10-01_20h47.40.061,mdp,2024.2.1,Win32,144.9275362,66fa4ebf79326e780c390304,,,,,,,,,,,,,,,,,,,,,812.9869,812.9869,812.9874,813.8196,1,1,right,0.3202,,813.8204,814.7012,1,1,right,814.7018,815.9439,0,1,left,0,815.9439,815.9439,815.9445,817.4442,0,1,1,1,1,0.2,0.8,0.6,0.4,,,,,,,,,,,,,,,0.376,,0.2,0.8,0.4,0.6,0.6,0.4,0.4,0.6,,,0.7344,,0.2,0.8,0.6,0.4,0.6,0.4,0.2,0.8,1,0
,,5d65e31c367c8600019f2b13,66fc97f7c1597bde9a128c4f,2024-10-01_20h47.40.061,mdp,2024.2.1,Win32,144.9275362,66fa4ebf79326e780c390304,,,,,,,,,,,,,,,,,,,,,817.4445,817.4445,817.445,818.4513,1,0,right,0.4943,,818.452,819.4446,1,0,right,819.4452,821.2011,0,1,left,0,821.2012,821.2012,821.2016,822.702,0,2,2,2,1,0.2,0.8,0.6,0.4,,,,,,,,,,,,,,,0.4876,,0.2,0.8,0.4,0.6,0.6,0.4,0.4,0.6,,,1.2408,,0.2,0.8,0.6,0.4,0.6,0.4,0.2,0.8,1,0
,,5d65e31c367c8600019f2b13,66fc97f7c1597bde9a128c4f,2024-10-01_20h47.40.061,mdp,2024.2.1,Win32,144.9275362,66fa4ebf79326e780c390304,,,,,,,,,,,,,,,,,,,,,822.7022,822.7022,822.7026,823.4447,0,1,left,0.2321,,823.4453,824.3468,0,0,left,824.3473,825.3193,0,1,left,0,825.3193,825.3193,825.3199,826.8197,0,3,3,3,1,0.2,0.8,0.6,0.4,,,,,,,,,,,,,,,0.3912,,0.2,0.8,0.4,0.6,0.6,0.4,0.4,0.6,,,0.4645,,0.2,0.8,0.6,0.4,0.6,0.4,0.2,0.8,1,0
,,5d65e31c367c8600019f2b13,66fc97f7c1597bde9a128c4f,2024-10-01_20h47.40.061,mdp,2024.2.1,Win32,144.9275362,66fa4ebf79326e780c390304,,,,,,,,,,,,,,,,,,,,,826.8199,826.8199,826.8205,828.1046,0,1,left,0.77,,828.1053,828.9584,1,0,right,828.959,830.5212,1,0,right,1,830.5212,830.5212,830.5218,832.0212,0,4,4,4,1,0.2,0.8,0.6,0.4,,,,,,,,,,,,,,,0.3407,,0.2,0.8,0.4,0.6,0.6,0.4,0.4,0.6,,,1.0507,,0.2,0.8,0.6,0.4,0.6,0.4,0.2,0.8,1,0
,,5d65e31c367c8600019f2b13,66fc97f7c1597bde9a128c4f,2024-10-01_20h47.40.061,mdp,2024.2.1,Win32,144.9275362,66fa4ebf79326e780c390304,,,,,,,,,,,,,,,,,,,,,832.0214,832.0214,832.022,832.8336,0,1,left,0.3003,,832.8341,833.6872,1,0,right,833.6876,834.625,1,0,right,1,834.625,834.625,834.6255,836.1257,0,5,5,5,1,0.2,0.8,0.6,0.4,,,,,,,,,,,,,,,0.3447,,0.2,0.8,0.4,0.6,0.6,0.4,0.4,0.6,,,0.4321,,0.2,0.8,0.6,0.4,0.6,0.4,0.2,0.8,1,0
,,5d65e31c367c8600019f2b13,66fc97f7c1597bde9a128c4f,2024-10-01_20h47.40.061,mdp,2024.2.1,Win32,144.9275362,66fa4ebf79326e780c390304,,,,,,,,,,,,,,,,,,,,,836.126,836.126,836.1265,836.9166,0,1,left,0.2771,,836.9171,837.8618,1,0,right,837.8624,838.7359,1,0,right,1,838.7359,838.7359,838.7363,840.2368,0,6,6,6,1,0.2,0.8,0.6,0.4,,,,,,,,,,,,,,,0.4378,,0.2,0.8,0.4,0.6,0.6,0.4,0.4,0.6,,,0.3651,,0.2,0.8,0.6,0.4,0.6,0.4,0.2,0.8,1,0
,,5d65e31c367c8600019f2b13,66fc97f7c1597bde9a128c4f,2024-10-01_20h47.40.061,mdp,2024.2.1,Win32,144.9275362,66fa4ebf79326e780c390304,,,,,,,,,,,,,,,,,,,,,840.237,840.237,840.2375,841.0484,0,1,left,0.2977,,841.0488,841.924,1,0,right,841.9247,842.7914,1,0,right,1,842.7914,842.7914,842.7918,844.292,0,7,7,7,1,0.2,0.8,0.6,0.4,,,,,,,,,,,,,,,0.3666,,0.2,0.8,0.4,0.6,0.6,0.4,0.4,0.6,,,0.3647,,0.2,0.8,0.6,0.4,0.6,0.4,0.2,0.8,1,0
,,5d65e31c367c8600019f2b13,66fc97f7c1597bde9a128c4f,2024-10-01_20h47.40.061,mdp,2024.2.1,Win32,144.9275362,66fa4ebf79326e780c390304,,,,,,,,,,,,,,,,,,,,,844.2922,844.2922,844.2928,845.0971,0,1,left,0.2928,,845.0977,845.9514,1,0,right,845.9518,846.8193,1,1,right,0,846.8193,846.8193,846.8201,848.3199,0,8,8,8,1,0.2,0.8,0.6,0.4,,,,,,,,,,,,,,,0.3455,,0.2,0.8,0.4,0.6,0.6,0.4,0.4,0.6,,,0.358,,0.2,0.8,0.6,0.4,0.6,0.4,0.2,0.8,1,0
,,5d65e31c367c8600019f2b13,66fc97f7c1597bde9a128c4f,2024-10-01_20h47.40.061,mdp,2024.2.1,Win32,144.9275362,66fa4ebf79326e780c390304,,,,,,,,,,,,,,,,,,,,,848.3202,848.3202,848.3207,849.5416,0,1,left,0.7104,,849.542,850.4939,1,1,right,850.4945,851.5841,0,1,left,0,851.5841,851.5841,851.5847,853.084,0,9,9,9,1,0.2,0.8,0.6,0.4,,,,,,,,,,,,,,,0.4431,,0.2,0.8,0.4,0.6,0.6,0.4,0.4,0.6,,,0.5754,,0.2,0.8,0.6,0.4,0.6,0.4,0.2,0.8,1,0
,,5d65e31c367c8600019f2b13,66fc97f7c1597bde9a128c4f,2024-10-01_20h47.40.061,mdp,2024.2.1,Win32,144.9275362,66fa4ebf79326e780c390304,,,,,,,,,,,,,,,,,,,,,853.0841,853.0841,853.0847,853.9026,1,1,right,0.3119,,853.903,854.9789,0,1,left,854.9794,856.5556,1,1,right,0,856.5556,856.5556,856.5561,858.056,0,10,10,10,1,0.2,0.8,0.6,0.4,,,,,,,,,,,,,,,0.5671,,0.2,0.8,0.4,0.6,0.6,0.4,0.4,0.6,,,1.0705,,0.2,0.8,0.6,0.4,0.6,0.4,0.2,0.8,1,0
,,5d65e31c367c8600019f2b13,66fc97f7c1597bde9a128c4f,2024-10-01_20h47.40.061,mdp,2024.2.1,Win32,144.9275362,66fa4ebf79326e780c390304,,,,,,,,,,,,,,,,,,,,,858.0562,858.0562,858.0568,858.8199,1,1,right,0.2522,,858.8206,859.7154,1,1,right,859.7159,860.7853,1,0,right,1,860.7854,860.7854,860.7861,862.2856,0,11,11,11,1,0.2,0.8,0.6,0.4,,,,,,,,,,,,,,,0.3823,,0.2,0.8,0.4,0.6,0.6,0.4,0.4,0.6,,,0.5645,,0.2,0.8,0.6,0.4,0.6,0.4,0.2,0.8,1,0
,,5d65e31c367c8600019f2b13,66fc97f7c1597bde9a128c4f,2024-10-01_20h47.40.061,mdp,2024.2.1,Win32,144.9275362,66fa4ebf79326e780c390304,,,,,,,,,,,,,,,,,,,,,862.2859,862.2859,862.2864,863.0634,1,0,right,0.2632,,863.0641,863.8753,1,0,right,863.8761,864.771,1,0,right,1,864.771,864.771,864.7716,866.271,0,12,12,12,1,0.2,0.8,0.6,0.4,,,,,,,,,,,,,,,0.2974,,0.2,0.8,0.4,0.6,0.6,0.4,0.4,0.6,,,0.3811,,0.2,0.8,0.6,0.4,0.6,0.4,0.2,0.8,1,0
,,5d65e31c367c8600019f2b13,66fc97f7c1597bde9a128c4f,2024-10-01_20h47.40.061,mdp,2024.2.1,Win32,144.9275362,66fa4ebf79326e780c390304,,,,,,,,,,,,,,,,,,,,,866.2711,866.2711,866.2717,867.0002,1,0,right,0.2221,,867.0006,867.7639,1,0,right,867.7644,868.6249,1,1,right,0,868.6249,868.6249,868.6253,870.1259,0,13,13,13,1,0.2,0.8,0.6,0.4,,,,,,,,,,,,,,,0.25,,0.2,0.8,0.4,0.6,0.6,0.4,0.4,0.6,,,0.3563,,0.2,0.8,0.6,0.4,0.6,0.4,0.2,0.8,1,0
,,5d65e31c367c8600019f2b13,66fc97f7c1597bde9a128c4f,2024-10-01_20h47.40.061,mdp,2024.2.1,Win32,144.9275362,66fa4ebf79326e780c390304,,,,,,,,,,,,,,,,,,,,,870.126,870.126,870.1266,870.8895,1,1,right,0.2525,,870.8901,872.077,1,0,right,872.0777,873.056,0,1,left,0,873.056,873.056,873.0567,874.5565,0,14,14,14,1,0.2,0.8,0.6,0.4,,,,,,,,,,,,,,,0.6725,,0.2,0.8,0.4,0.6,0.6,0.4,0.4,0.6,,,0.4649,,0.2,0.8,0.6,0.4,0.6,0.4,0.2,0.8,1,0
,,5d65e31c367c8600019f2b13,66fc97f7c1597bde9a128c4f,2024-10-01_20h47.40.061,mdp,2024.2.1,Win32,144.9275362,66fa4ebf79326e780c390304,,,,,,,,,,,,,,,,,,,,,874.5567,874.5567,874.5571,875.3062,1,1,right,0.2383,,875.3069,876.4246,0,1,left,876.4252,877.1738,1,0,right,1,877.1738,877.1738,877.1742,878.6745,0,15,15,15,1,0.2,0.8,0.6,0.4,,,,,,,,,,,,,,,0.6031,,0.2,0.8,0.4,0.6,0.6,0.4,0.4,0.6,,,0.2353,,0.2,0.8,0.6,0.4,0.6,0.4,0.2,0.8,1,0
,,5d65e31c367c8600019f2b13,66fc97f7c1597bde9a128c4f,2024-10-01_20h47.40.061,mdp,2024.2.1,Win32,144.9275362,66fa4ebf79326e780c390304,,,,,,,,,,,,,,,,,,,,,878.6748,878.6748,878.6753,880.0975,1,0,right,0.9122,,880.098,880.8064,0,1,left,880.807,881.7572,1,0,right,1,881.7572,881.7572,881.7576,883.258,0,16,16,16,1,0.2,0.8,0.6,0.4,,,,,,,,,,,,,,,0.2002,,0.2,0.8,0.4,0.6,0.6,0.4,0.4,0.6,,,0.4394,,0.2,0.8,0.6,0.4,0.6,0.4,0.2,0.8,1,0
,,5d65e31c367c8600019f2b13,66fc97f7c1597bde9a128c4f,2024-10-01_20h47.40.061,mdp,2024.2.1,Win32,144.9275362,66fa4ebf79326e780c390304,,,,,,,,,,,,,,,,,,,,,883.2582,883.2582,883.2586,884.1605,1,0,right,0.3897,,884.1612,884.9239,0,1,left,884.9242,885.7032,1,1,right,0,885.7033,885.7033,885.7039,887.2017,0,17,17,17,1,0.2,0.8,0.6,0.4,,,,,,,,,,,,,,,0.2494,,0.2,0.8,0.4,0.6,0.6,0.4,0.4,0.6,,,0.2713,,0.2,0.8,0.6,0.4,0.6,0.4,0.2,0.8,1,0
,,5d65e31c367c8600019f2b13,66fc97f7c1597bde9a128c4f,2024-10-01_20h47.40.061,mdp,2024.2.1,Win32,144.9275362,66fa4ebf79326e780c390304,,,,,,,,,,,,,,,,,,,,,887.2018,887.2018,887.2022,887.9447,0,1,left,0.2383,,887.9452,888.7923,0,0,left,888.7928,889.6531,0,0,left,1,889.6531,889.6531,889.6536,891.1534,0,18,18,18,1,0.2,0.8,0.6,0.4,,,,,,,,,,,,,,,0.3388,,0.2,0.8,0.4,0.6,0.6,0.4,0.4,0.6,,,0.3487,,0.8,0.2,0.8,0.2,0.6,0.4,0.2,0.8,1,0
,,5d65e31c367c8600019f2b13,66fc97f7c1597bde9a128c4f,2024-10-01_20h47.40.061,mdp,2024.2.1,Win32,144.9275362,66fa4ebf79326e780c390304,,,,,,,,,,,,,,,,,,,,,891.1536,891.1536,891.1543,891.9237,0,1,left,0.2674,,891.9241,892.6739,0,0,left,892.6745,893.424,0,0,left,1,893.424,893.424,893.4244,894.9239,0,19,19,19,1,0.2,0.8,0.6,0.4,,,,,,,,,,,,,,,0.2444,,0.2,0.8,0.4,0.6,0.6,0.4,0.4,0.6,,,0.2451,,0.8,0.2,0.8,0.2,0.6,0.4,0.2,0.8,1,0
,,5d65e31c367c8600019f2b13,66fc97f7c1597bde9a128c4f,2024-10-01_20h47.40.061,mdp,2024.2.1,Win32,144.9275362,66fa4ebf79326e780c390304,,,,,,,,,,,,,,,,,,,,,894.9241,894.9241,894.9245,895.6536,0,1,left,0.223,,895.6544,896.4106,0,1,left,896.4112,898.9516,0,1,left,0,898.9516,898.9516,898.9521,900.4524,0,20,20,20,1,0.2,0.8,0.6,0.4,,,,,,,,,,,,,,,0.2426,,0.2,0.8,0.4,0.6,0.6,0.4,0.4,0.6,,,2.0308,,0.8,0.2,0.8,0.2,0.6,0.4,0.2,0.8,1,0
,,5d65e31c367c8600019f2b13,66fc97f7c1597bde9a128c4f,2024-10-01_20h47.40.061,mdp,2024.2.1,Win32,144.9275362,66fa4ebf79326e780c390304,,,,,,,,,,,,,,,,,,,,,900.4526,900.4526,900.4531,901.2156,0,0,left,0.2498,,901.2162,902.2091,0,0,left,902.2098,904.3411,0,0,left,1,904.3411,904.3411,904.3417,905.8404,0,21,21,21,1,0.2,0.8,0.6,0.4,,,,,,,,,,,,,,,0.4853,,0.2,0.8,0.4,0.6,0.2,0.8,0.6,0.4,,,1.6197,,0.8,0.2,0.8,0.2,0.6,0.4,0.2,0.8,1,0
,,5d65e31c367c8600019f2b13,66fc97f7c1597bde9a128c4f,2024-10-01_20h47.40.061,mdp,2024.2.1,Win32,144.9275362,66fa4ebf79326e780c390304,,,,,,,,,,,,,,,,,,,,,905.8407,905.8407,905.8412,906.6323,0,1,left,0.2829,,906.6327,907.5697,0,1,left,907.5703,908.7574,1,0,right,1,908.7574,908.7574,908.7581,910.258,0,22,22,22,1,0.2,0.8,0.6,0.4,,,,,,,,,,,,,,,0.4302,,0.2,0.8,0.4,0.6,0.2,0.8,0.6,0.4,,,0.6795,,0.8,0.2,0.8,0.2,0.6,0.4,0.2,0.8,1,0
,,5d65e31c367c8600019f2b13,66fc97f7c1597bde9a128c4f,2024-10-01_20h47.40.061,mdp,2024.2.1,Win32,144.9275362,66fa4ebf79326e780c390304,,,,,,,,,,,,,,,,,,,,,910.2583,910.2583,910.2588,911.0285,0,0,left,0.2563,,911.029,912.1053,0,1,left,912.1059,914.1532,1,0,right,1,914.1532,914.1532,914.1537,915.6532,0,23,23,23,1,0.2,0.8,0.6,0.4,,,,,,,,,,,,,,,0.5612,,0.2,0.8,0.4,0.6,0.2,0.8,0.6,0.4,,,1.5334,,0.8,0.2,0.8,0.2,0.8,0.2,0.8,0.2,1,0
,,5d65e31c367c8600019f2b13,66fc97f7c1597bde9a128c4f,2024-10-01_20h47.40.061,mdp,2024.2.1,Win32,144.9275362,66fa4ebf79326e780c390304,,,,,,,,,,,,,,,,,,,,,915.6534,915.6534,915.6538,916.5907,0,0,left,0.4303,,916.5912,917.3967,0,1,left,917.3973,918.292,1,0,right,1,918.292,918.292,918.2926,919.7929,0,24,24,24,1,0.2,0.8,0.6,0.4,,,,,,,,,,,,,,,0.3005,,0.2,0.8,0.4,0.6,0.2,0.8,0.6,0.4,,,0.3862,,0.8,0.2,0.8,0.2,0.8,0.2,0.8,0.2,1,0
,,5d65e31c367c8600019f2b13,66fc97f7c1597bde9a128c4f,2024-10-01_20h47.40.061,mdp,2024.2.1,Win32,144.9275362,66fa4ebf79326e780c390304,,,,,,,,,,,,,,,,,,,,,919.7931,919.7931,919.7936,920.5846,0,0,left,0.2792,,920.5853,921.5211,0,1,left,921.5217,922.4589,1,0,right,1,922.4589,922.4589,922.4594,923.9588,0,25,25,25,1,0.2,0.8,0.6,0.4,,,,,,,,,,,,,,,0.4239,,0.2,0.8,0.4,0.6,0.2,0.8,0.6,0.4,,,0.431,,0.8,0.2,0.8,0.2,0.8,0.2,0.8,0.2,1,0
,,5d65e31c367c8600019f2b13,66fc97f7c1597bde9a128c4f,2024-10-01_20h47.40.061,mdp,2024.2.1,Win32,144.9275362,66fa4ebf79326e780c390304,,,,,,,,,,,,,,,,,,,,,923.9591,923.9591,923.9596,924.6878,0,1,left,0.226,,924.6883,925.4666,0,0,left,925.4673,926.7649,0,0,left,1,926.7649,926.7649,926.7655,928.2645,0,26,26,26,1,0.2,0.8,0.6,0.4,,,,,,,,,,,,,,,0.2637,,0.2,0.8,0.4,0.6,0.2,0.8,0.6,0.4,,,0.7863,,0.8,0.2,0.8,0.2,0.8,0.2,0.8,0.2,1,0
,,5d65e31c367c8600019f2b13,66fc97f7c1597bde9a128c4f,2024-10-01_20h47.40.061,mdp,2024.2.1,Win32,144.9275362,66fa4ebf79326e780c390304,,,,,,,,,,,,,,,,,,,,,928.2646,928.2646,928.265,929.0281,0,1,left,0.2597,,929.0286,929.9659,0,1,left,929.9664,930.9936,1,0,right,1,930.9937,930.9937,930.994,932.4936,0,27,27,27,1,0.2,0.8,0.6,0.4,,,,,,,,,,,,,,,0.4322,,0.2,0.8,0.4,0.6,0.2,0.8,0.6,0.4,,,0.5188,,0.8,0.2,0.8,0.2,0.8,0.2,0.8,0.2,1,0
,,5d65e31c367c8600019f2b13,66fc97f7c1597bde9a128c4f,2024-10-01_20h47.40.061,mdp,2024.2.1,Win32,144.9275362,66fa4ebf79326e780c390304,,,,,,,,,,,,,,,,,,,,,932.4938,932.4938,932.4942,933.2162,0,0,left,0.2183,,933.2168,934.1607,0,1,left,934.1613,935.3832,1,0,right,1,935.3832,935.3832,935.3837,936.8833,0,28,28,28,1,0.2,0.8,0.6,0.4,,,,,,,,,,,,,,,0.4291,,0.2,0.8,0.4,0.6,0.2,0.8,0.6,0.4,,,0.7098,,0.8,0.2,0.8,0.2,0.8,0.2,0.8,0.2,1,0
,,5d65e31c367c8600019f2b13,66fc97f7c1597bde9a128c4f,2024-10-01_20h47.40.061,mdp,2024.2.1,Win32,144.9275362,66fa4ebf79326e780c390304,,,,,,,,,,,,,,,,,,,,,936.8835,936.8835,936.884,937.7645,0,1,left,0.3676,,937.7649,938.7164,0,0,left,938.7169,939.7862,1,0,right,1,939.7862,939.7862,939.7866,941.2861,0,29,29,29,1,0.2,0.8,0.6,0.4,,,,,,,,,,,,,,,0.4432,,0.2,0.8,0.4,0.6,0.2,0.8,0.6,0.4,,,0.5527,,0.8,0.2,0.8,0.2,0.8,0.2,0.8,0.2,1,0
,,5d65e31c367c8600019f2b13,66fc97f7c1597bde9a128c4f,2024-10-01_20h47.40.061,mdp,2024.2.1,Win32,144.9275362,66fa4ebf79326e780c390304,,,,,,,,,,,,,,,,,,,,,941.2864,941.2864,941.2869,942.1533,0,1,left,0.3536,,942.154,943.1751,0,0,left,943.1757,944.327,1,1,right,0,944.327,944.327,944.3275,945.8274,0,30,30,30,1,0.2,0.8,0.6,0.4,,,,,,,,,,,,,,,0.512,,0.2,0.8,0.4,0.6,0.2,0.8,0.6,0.4,,,0.6387,,0.8,0.2,0.8,0.2,0.8,0.2,0.8,0.2,1,0
,,5d65e31c367c8600019f2b13,66fc97f7c1597bde9a128c4f,2024-10-01_20h47.40.061,mdp,2024.2.1,Win32,144.9275362,66fa4ebf79326e780c390304,,,,,,,,,,,,,,,,,,,,,945.8277,945.8278,945.8283,946.557,0,1,left,0.222,,946.5576,947.453,0,1,left,947.4535,948.6471,1,1,right,0,948.6472,948.6472,948.6476,950.147,0,31,31,31,1,0.2,0.8,0.6,0.4,,,,,,,,,,,,,,,0.3815,,0.2,0.8,0.4,0.6,0.2,0.8,0.6,0.4,,,0.6799,,0.8,0.2,0.8,0.2,0.8,0.2,0.8,0.2,1,0
,,5d65e31c367c8600019f2b13,66fc97f7c1597bde9a128c4f,2024-10-01_20h47.40.061,mdp,2024.2.1,Win32,144.9275362,66fa4ebf79326e780c390304,,,,,,,,,,,,,,,,,,,,,950.1472,950.1472,950.1478,950.9317,0,1,left,0.2716,,950.9323,951.8755,0,1,left,951.8759,952.6673,0,0,left,1,952.6673,952.6673,952.6677,954.1682,0,32,32,32,1,0.2,0.8,0.6,0.4,,,,,,,,,,,,,,,0.4321,,0.2,0.8,0.4,0.6,0.2,0.8,0.6,0.4,,,0.2851,,0.2,0.8,0.4,0.6,0.8,0.2,0.8,0.2,1,0
,,5d65e31c367c8600019f2b13,66fc97f7c1597bde9a128c4f,2024-10-01_20h47.40.061,mdp,2024.2.1,Win32,144.9275362,66fa4ebf79326e780c390304,,,,,,,,,,,,,,,,,,,,,954.1685,954.1685,954.1689,954.9591,0,0,left,0.2779,,954.9595,955.7095,0,1,left,955.7102,956.6535,0,0,left,1,956.6535,956.6535,956.6541,958.1542,0,33,33,33,1,0.2,0.8,0.6,0.4,,,,,,,,,,,,,,,0.2435,,0.2,0.8,0.4,0.6,0.2,0.8,0.6,0.4,,,0.4298,,0.2,0.8,0.4,0.6,0.8,0.2,0.8,0.2,1,0
,,5d65e31c367c8600019f2b13,66fc97f7c1597bde9a128c4f,2024-10-01_20h47.40.061,mdp,2024.2.1,Win32,144.9275362,66fa4ebf79326e780c390304,,,,,,,,,,,,,,,,,,,,,958.1544,958.1544,958.1551,959.0494,0,1,left,0.3829,,959.0498,959.786,0,1,left,959.7866,960.7304,0,0,left,1,960.7304,960.7304,960.731,962.2304,0,34,34,34,1,0.2,0.8,0.6,0.4,,,,,,,,,,,,,,,0.2297,,0.2,0.8,0.4,0.6,0.2,0.8,0.6,0.4,,,0.4298,,0.2,0.8,0.4,0.6,0.8,0.2,0.8,0.2,1,0
,,5d65e31c367c8600019f2b13,66fc97f7c1597bde9a128c4f,2024-10-01_20h47.40.061,mdp,2024.2.1,Win32,144.9275362,66fa4ebf79326e780c390304,,,,,,,,,,,,,,,,,,,,,962.2306,962.2306,962.2311,963.1118,0,1,left,0.3731,,963.1122,963.9035,0,1,left,963.9039,964.8415,0,0,left,1,964.8415,964.8415,964.8421,966.3417,0,35,35,35,1,0.2,0.8,0.6,0.4,,,,,,,,,,,,,,,0.2819,,0.2,0.8,0.4,0.6,0.2,0.8,0.6,0.4,,,0.4318,,0.2,0.8,0.4,0.6,0.8,0.2,0.8,0.2,1,0
,,5d65e31c367c8600019f2b13,66fc97f7c1597bde9a128c4f,2024-10-01_20h47.40.061,mdp,2024.2.1,Win32,144.9275362,66fa4ebf79326e780c390304,,,,,,,,,,,,,,,,,,,,,966.3419,966.342,966.3423,967.5292,0,1,left,0.6769,,967.5296,968.3483,0,1,left,968.3489,969.2378,0,0,left,1,969.2378,969.2378,969.2383,970.737,0,36,36,36,1,0.2,0.8,0.6,0.4,,,,,,,,,,,,,,,0.3147,,0.2,0.8,0.4,0.6,0.2,0.8,0.6,0.4,,,0.3761,,0.2,0.8,0.4,0.6,0.8,0.2,0.8,0.2,1,0
,,5d65e31c367c8600019f2b13,66fc97f7c1597bde9a128c4f,2024-10-01_20h47.40.061,mdp,2024.2.1,Win32,144.9275362,66fa4ebf79326e780c390304,,,,,,,,,,,,,,,,,,,,,970.7372,970.7372,970.7376,971.7304,0,0,left,0.4869,,971.7311,972.5842,0,0,left,972.5846,974.0148,0,1,left,0,974.0148,974.0148,974.0153,975.5156,0,37,37,37,1,0.2,0.8,0.6,0.4,,,,,,,,,,,,,,,0.3388,,0.2,0.8,0.4,0.6,0.2,0.8,0.6,0.4,,,0.9217,,0.2,0.8,0.4,0.6,0.8,0.2,0.8,0.2,1,0
,,5d65e31c367c8600019f2b13,66fc97f7c1597bde9a128c4f,2024-10-01_20h47.40.061,mdp,2024.2.1,Win32,144.9275362,66fa4ebf79326e780c390304,,,,,,,,,,,,,,,,,,,,,975.5158,975.5158,975.5163,976.3971,0,1,left,0.3707,,976.3976,977.2721,0,1,left,977.2727,978.862,0,1,left,0,978.862,978.862,978.8625,980.362,0,38,38,38,1,0.2,0.8,0.6,0.4,,,,,,,,,,,,,,,0.3682,,0.2,0.8,0.4,0.6,0.2,0.8,0.6,0.4,,,1.0765,,0.2,0.8,0.4,0.6,0.8,0.2,0.8,0.2,1,0
,,5d65e31c367c8600019f2b13,66fc97f7c1597bde9a128c4f,2024-10-01_20h47.40.061,mdp,2024.2.1,Win32,144.9275362,66fa4ebf79326e780c390304,,,,,,,,,,,,,,,,,,,,,980.3623,980.3623,980.3626,981.1402,0,1,left,0.2643,,981.1408,982.1823,0,1,left,982.1828,983.1464,1,0,right,1,983.1465,983.1465,983.147,984.6475,0,39,39,39,1,0.2,0.8,0.6,0.4,,,,,,,,,,,,,,,0.5339,,0.2,0.8,0.4,0.6,0.2,0.8,0.6,0.4,,,0.4524,,0.2,0.8,0.4,0.6,0.8,0.2,0.8,0.2,1,0
,,5d65e31c367c8600019f2b13,66fc97f7c1597bde9a128c4f,2024-10-01_20h47.40.061,mdp,2024.2.1,Win32,144.9275362,66fa4ebf79326e780c390304,,,,,,,,,,,,,,,,,,,,,984.6477,984.6477,984.6482,985.5076,0,1,left,0.3484,,985.5082,986.4035,0,1,left,986.404,987.2576,1,1,right,0,987.2576,987.2576,987.258,988.758,0,40,40,40,1,0.2,0.8,0.6,0.4,,,,,,,,,,,,,,,0.3928,,0.2,0.8,0.4,0.6,0.2,0.8,0.6,0.4,,,0.3478,,0.2,0.8,0.4,0.6,0.8,0.2,0.8,0.2,1,0
,,5d65e31c367c8600019f2b13,66fc97f7c1597bde9a128c4f,2024-10-01_20h47.40.061,mdp,2024.2.1,Win32,144.9275362,66fa4ebf79326e780c390304,,,,,,,,,,,,,,,,,,,,,988.7582,988.7583,988.7588,989.6121,1,0,right,0.3405,,989.6126,990.501,1,0,right,990.5016,991.4521,1,1,right,0,991.4521,991.4521,991.4526,992.9526,0,41,41,41,1,0.2,0.8,0.6,0.4,,,,,,,,,,,,,,,0.3787,,0.2,0.8,0.4,0.6,0.2,0.8,0.6,0.4,,,0.4416,,0.2,0.8,0.4,0.6,0.8,0.2,0.8,0.2,1,0
,,5d65e31c367c8600019f2b13,66fc97f7c1597bde9a128c4f,2024-10-01_20h47.40.061,mdp,2024.2.1,Win32,144.9275362,66fa4ebf79326e780c390304,,,,,,,,,,,,,,,,,,,,,992.9529,992.9529,992.9534,993.7439,1,1,right,0.2849,,993.7443,994.5014,1,0,right,994.5021,995.5499,0,1,left,0,995.5499,995.5499,995.5505,997.0499,0,42,42,42,1,0.2,0.8,0.6,0.4,,,,,,,,,,,,,,,0.2498,,0.2,0.8,0.4,0.6,0.2,0.8,0.6,0.4,,,0.5344,,0.2,0.8,0.4,0.6,0.8,0.2,0.8,0.2,1,0
,,5d65e31c367c8600019f2b13,66fc97f7c1597bde9a128c4f,2024-10-01_20h47.40.061,mdp,2024.2.1,Win32,144.9275362,66fa4ebf79326e780c390304,,,,,,,,,,,,,,,,,,,,,997.0502,997.0502,997.0508,997.8762,1,1,right,0.3119,,997.8768,998.6952,0,1,left,998.6957,999.5841,0,0,left,1,999.5841,999.5841,999.5846,1001.0847,0,43,43,43,1,0.2,0.8,0.6,0.4,,,,,,,,,,,,,,,0.3163,,0.2,0.8,0.4,0.6,0.2,0.8,0.6,0.4,,,0.3849,,0.2,0.8,0.4,0.6,0.8,0.2,0.8,0.2,1,0
,,5d65e31c367c8600019f2b13,66fc97f7c1597bde9a128c4f,2024-10-01_20h47.40.061,mdp,2024.2.1,Win32,144.9275362,66fa4ebf79326e780c390304,,,,,,,,,,,,,,,,,,,,,1001.085,1001.085,1001.0855,1001.9316,1,0,right,0.3336,,1001.932,1002.6952,0,1,left,1002.6956,1003.6822,0,1,left,0,1003.6822,1003.6822,1003.6828,1005.182,0,44,44,44,1,0.2,0.8,0.6,0.4,,,,,,,,,,,,,,,0.2529,,0.2,0.8,0.4,0.6,0.2,0.8,0.6,0.4,,,0.4782,,0.2,0.8,0.4,0.6,0.8,0.2,0.8,0.2,1,0
,,5d65e31c367c8600019f2b13,66fc97f7c1597bde9a128c4f,2024-10-01_20h47.40.061,mdp,2024.2.1,Win32,144.9275362,66fa4ebf79326e780c390304,,,,,,,,,,,,,,,,,,,,,1005.1823,1005.1823,1005.1828,1006.0157,0,0,left,0.3201,,1006.0165,1006.8205,1,1,right,1006.8211,1008.0502,1,1,right,0,1008.0503,1008.0503,1008.0508,1009.5501,0,45,45,45,1,0.2,0.8,0.6,0.4,,,,,,,,,,,,,,,0.2949,,0.2,0.8,0.4,0.6,0.2,0.8,0.6,0.4,,,0.7212,,0.2,0.8,0.4,0.6,0.8,0.2,0.8,0.2,1,0
,,5d65e31c367c8600019f2b13,66fc97f7c1597bde9a128c4f,2024-10-01_20h47.40.061,mdp,2024.2.1,Win32,144.9275362,66fa4ebf79326e780c390304,,,,,,,,,,,,,,,,,,,,,1009.5503,1009.5503,1009.5509,1010.612,0,1,left,0.5528,,1010.6125,1011.5848,0,0,left,1011.5855,1012.5784,0,1,left,0,1012.5784,1012.5784,1012.579,1014.078,0,46,46,46,1,0.2,0.8,0.6,0.4,,,,,,,,,,,,,,,0.4573,,0.2,0.8,0.4,0.6,0.2,0.8,0.6,0.4,,,0.485,,0.2,0.8,0.4,0.6,0.8,0.2,0.8,0.2,1,0
,,5d65e31c367c8600019f2b13,66fc97f7c1597bde9a128c4f,2024-10-01_20h47.40.061,mdp,2024.2.1,Win32,144.9275362,66fa4ebf79326e780c390304,,,,,,,,,,,,,,,,,,,,,1014.0782,1014.0782,1014.0788,1014.848,0,1,left,0.2595,,1014.8486,1015.7095,0,1,left,1015.7101,1016.876,0,0,left,1,1016.876,1016.876,1016.8765,1018.3765,0,47,47,47,1,0.2,0.8,0.6,0.4,,,,,,,,,,,,,,,0.3546,,0.2,0.8,0.4,0.6,0.2,0.8,0.6,0.4,,,0.6546,,0.2,0.8,0.4,0.6,0.8,0.2,0.8,0.2,1,0
,,5d65e31c367c8600019f2b13,66fc97f7c1597bde9a128c4f,2024-10-01_20h47.40.061,mdp,2024.2.1,Win32,144.9275362,66fa4ebf79326e780c390304,,,,,,,,,,,,,,,,,,,,,1018.3767,1018.3767,1018.3773,1019.1676,0,1,left,0.2882,,1019.1681,1020.1191,0,0,left,1020.1197,1021.4529,1,1,right,0,1021.4529,1021.4529,1021.4535,1022.9534,0,48,48,48,1,0.2,0.8,0.6,0.4,,,,,,,,,,,,,,,0.4478,,0.2,0.8,0.4,0.6,0.2,0.8,0.6,0.4,,,0.8278,,0.2,0.8,0.4,0.6,0.8,0.2,0.8,0.2,1,0
,,5d65e31c367c8600019f2b13,66fc97f7c1597bde9a128c4f,2024-10-01_20h47.40.061,mdp,2024.2.1,Win32,144.9275362,66fa4ebf79326e780c390304,,,,,,,,,,,,,,,,,,,,,1022.9537,1022.9537,1022.9542,1023.9109,0,1,left,0.4446,,1023.9112,1024.8836,0,1,left,1024.8842,1026.766,0,0,left,1,1026.766,1026.766,1026.7665,1028.2651,0,49,49,49,1,0.2,0.8,0.6,0.4,,,,,,,,,,,,,,,0.4665,,0.2,0.8,0.4,0.6,0.2,0.8,0.6,0.4,,,1.367,,0.2,0.8,0.4,0.6,0.8,0.2,0.8,0.2,1,0
,,5d65e31c367c8600019f2b13,66fc97f7c1597bde9a128c4f,2024-10-01_20h47.40.061,mdp,2024.2.1,Win32,144.9275362,66fa4ebf79326e780c390304,,,,,,,,,,,,,,,,,,,,,,,,,,,,,,,,,,,,,,,,,,,,,,,,,,,,,,,,1028.2653,1086.7728,0,3,3,2,1,imgs/rabbit.png,imgs/elephant.png,imgs/kangaroo.png,imgs/horse.png,imgs/goat.png,,,,,,,,,,,,,,,,,,,,,,,,
,,5d65e31c367c8600019f2b13,66fc97f7c1597bde9a128c4f,2024-10-01_20h47.40.061,mdp,2024.2.1,Win32,144.9275362,66fa4ebf79326e780c390304,,,,,,,,,,,,,,1,seqs/st1seq47.csv,1086.7737,1119.5157,space,32.2401,,1119.5179,1119.5179,1119.5182,1120.7449,1,0,right,0.715,,1120.7455,1120.7458,0,1,,1120.7461,1120.7463,0,1,,1,1120.7463,1120.7463,1120.7464,1122.2453,0,0,0,0,1,0.8,0.2,0.4,0.6,1,0,,,,,,,,,,,,,,,,,,,,,,,,,,,,,,,,,,,,
,,5d65e31c367c8600019f2b13,66fc97f7c1597bde9a128c4f,2024-10-01_20h47.40.061,mdp,2024.2.1,Win32,144.9275362,66fa4ebf79326e780c390304,,,,,,,,,,,,,,,,,,,,,1122.2455,1122.2455,1122.246,1123.1338,1,1,right,0.3759,,1123.1343,1123.1346,0,0,,1123.1349,1123.135,0,1,,0,1123.135,1123.135,1123.1353,1124.6342,0,1,1,1,1,0.8,0.2,0.4,0.6,1,0,,,,,,,,,,,,,,,,,,,,,,,,,,,,,,,,,,,,
,,5d65e31c367c8600019f2b13,66fc97f7c1597bde9a128c4f,2024-10-01_20h47.40.061,mdp,2024.2.1,Win32,144.9275362,66fa4ebf79326e780c390304,,,,,,,,,,,,,,,,,,,,,1124.6344,1124.6344,1124.635,1125.5919,0,0,left,0.4477,,1125.5923,1125.5926,0,0,,1125.5929,1125.593,0,0,,1,1125.5931,1125.5931,1125.5933,1127.093,0,2,2,2,1,0.8,0.2,0.4,0.6,1,0,,,,,,,,,,,,,,,,,,,,,,,,,,,,,,,,,,,,
,,5d65e31c367c8600019f2b13,66fc97f7c1597bde9a128c4f,2024-10-01_20h47.40.061,mdp,2024.2.1,Win32,144.9275362,66fa4ebf79326e780c390304,,,,,,,,,,,,,,,,,,,,,1127.0932,1127.0932,1127.0937,1127.9392,0,0,left,0.3381,,1127.9397,1127.94,0,0,,1127.9403,1127.9404,0,0,,1,1127.9404,1127.9404,1127.9407,1129.4397,0,3,3,3,1,0.8,0.2,0.4,0.6,1,0,,,,,,,,,,,,,,,,,,,,,,,,,,,,,,,,,,,,
,,5d65e31c367c8600019f2b13,66fc97f7c1597bde9a128c4f,2024-10-01_20h47.40.061,mdp,2024.2.1,Win32,144.9275362,66fa4ebf79326e780c390304,,,,,,,,,,,,,,,,,,,,,1129.44,1129.44,1129.4404,1130.2448,0,0,left,0.293,,1130.2454,1130.2456,0,0,,1130.2459,1130.246,0,0,,1,1130.246,1130.246,1130.2462,1131.7452,0,4,4,4,1,0.8,0.2,0.4,0.6,1,0,,,,,,,,,,,,,,,,,,,,,,,,,,,,,,,,,,,,
,,5d65e31c367c8600019f2b13,66fc97f7c1597bde9a128c4f,2024-10-01_20h47.40.061,mdp,2024.2.1,Win32,144.9275362,66fa4ebf79326e780c390304,,,,,,,,,,,,,,,,,,,,,1131.7454,1131.7454,1131.746,1132.5093,0,1,left,0.2514,,1132.5097,1132.5102,0,0,,1132.5105,1132.5106,0,0,,0,1132.5106,1132.5106,1132.5108,1134.0089,0,5,5,5,1,0.8,0.2,0.4,0.6,1,0,,,,,,,,,,,,,,,,,,,,,,,,,,,,,,,,,,,,
,,5d65e31c367c8600019f2b13,66fc97f7c1597bde9a128c4f,2024-10-01_20h47.40.061,mdp,2024.2.1,Win32,144.9275362,66fa4ebf79326e780c390304,,,,,,,,,,,,,,,,,,,,,1134.009,1134.009,1134.0095,1134.7455,1,1,right,0.2304,,1134.746,1134.7463,0,1,,1134.7466,1134.7467,0,1,,0,1134.7467,1134.7468,1134.747,1136.2455,0,6,6,6,1,0.8,0.2,0.4,0.6,1,0,,,,,,,,,,,,,,,,,,,,,,,,,,,,,,,,,,,,
,,5d65e31c367c8600019f2b13,66fc97f7c1597bde9a128c4f,2024-10-01_20h47.40.061,mdp,2024.2.1,Win32,144.9275362,66fa4ebf79326e780c390304,,,,,,,,,,,,,,,,,,,,,1136.2456,1136.2456,1136.2462,1136.9816,0,0,left,0.2231,,1136.9821,1136.9825,0,0,,1136.9827,1136.9829,0,1,,1,1136.983,1136.983,1136.9831,1138.4819,0,7,7,7,1,0.8,0.2,0.4,0.6,1,0,,,,,,,,,,,,,,,,,,,,,,,,,,,,,,,,,,,,
,,5d65e31c367c8600019f2b13,66fc97f7c1597bde9a128c4f,2024-10-01_20h47.40.061,mdp,2024.2.1,Win32,144.9275362,66fa4ebf79326e780c390304,,,,,,,,,,,,,,,,,,,,,1138.4822,1138.4822,1138.4826,1139.3564,0,0,left,0.3637,,1139.3569,1139.3572,0,0,,1139.3575,1139.3576,0,0,,1,1139.3577,1139.3577,1139.3578,1140.8561,0,8,8,8,1,0.6,0.4,0.8,0.2,1,0,,,,,,,,,,,,,,,,,,,,,,,,,,,,,,,,,,,,
,,5d65e31c367c8600019f2b13,66fc97f7c1597bde9a128c4f,2024-10-01_20h47.40.061,mdp,2024.2.1,Win32,144.9275362,66fa4ebf79326e780c390304,,,,,,,,,,,,,,,,,,,,,1140.8563,1140.8563,1140.8567,1141.6624,0,1,left,0.2985,,1141.6631,1141.6634,0,0,,1141.6637,1141.6639,0,0,,0,1141.6639,1141.6639,1141.6641,1143.1621,0,9,9,9,1,0.6,0.4,0.8,0.2,1,0,,,,,,,,,,,,,,,,,,,,,,,,,,,,,,,,,,,,
,,5d65e31c367c8600019f2b13,66fc97f7c1597bde9a128c4f,2024-10-01_20h47.40.061,mdp,2024.2.1,Win32,144.9275362,66fa4ebf79326e780c390304,,,,,,,,,,,,,,,,,,,,,1143.1623,1143.1623,1143.1629,1143.9536,1,1,right,0.2812,,1143.9543,1143.9545,0,0,,1143.9548,1143.955,0,1,,0,1143.955,1143.955,1143.9552,1145.4533,0,10,10,10,1,0.8,0.2,0.4,0.6,1,0,,,,,,,,,,,,,,,,,,,,,,,,,,,,,,,,,,,,
,,5d65e31c367c8600019f2b13,66fc97f7c1597bde9a128c4f,2024-10-01_20h47.40.061,mdp,2024.2.1,Win32,144.9275362,66fa4ebf79326e780c390304,,,,,,,,,,,,,,,,,,,,,1145.4534,1145.4534,1145.4539,1146.0503,0,0,left,0.0847,,1146.0508,1146.051,0,0,,1146.0513,1146.0514,0,1,,1,1146.0514,1146.0514,1146.0516,1147.5511,0,11,11,11,1,0.8,0.2,0.4,0.6,1,0,,,,,,,,,,,,,,,,,,,,,,,,,,,,,,,,,,,,
,,5d65e31c367c8600019f2b13,66fc97f7c1597bde9a128c4f,2024-10-01_20h47.40.061,mdp,2024.2.1,Win32,144.9275362,66fa4ebf79326e780c390304,,,,,,,,,,,,,,,,,,,,,1147.5513,1147.5514,1147.5518,1148.4813,0,0,left,0.4228,,1148.4819,1148.4821,0,0,,1148.4825,1148.4826,0,0,,1,1148.4826,1148.4826,1148.4828,1149.982,0,12,12,12,1,0.8,0.2,0.4,0.6,1,0,,,,,,,,,,,,,,,,,,,,,,,,,,,,,,,,,,,,
,,5d65e31c367c8600019f2b13,66fc97f7c1597bde9a128c4f,2024-10-01_20h47.40.061,mdp,2024.2.1,Win32,144.9275362,66fa4ebf79326e780c390304,,,,,,,,,,,,,,,,,,,,,1149.9821,1149.9821,1149.9827,1151.1414,0,1,left,0.6494,,1151.1419,1151.1422,0,0,,1151.1424,1151.1427,0,0,,0,1151.1427,1151.1427,1151.1429,1152.6415,0,13,13,13,1,0.8,0.2,0.4,0.6,1,0,,,,,,,,,,,,,,,,,,,,,,,,,,,,,,,,,,,,
,,5d65e31c367c8600019f2b13,66fc97f7c1597bde9a128c4f,2024-10-01_20h47.40.061,mdp,2024.2.1,Win32,144.9275362,66fa4ebf79326e780c390304,,,,,,,,,,,,,,,,,,,,,1152.6416,1152.6416,1152.6422,1153.4115,1,1,right,0.261,,1153.4119,1153.4122,0,0,,1153.4126,1153.4127,0,1,,0,1153.4127,1153.4127,1153.4129,1154.9117,0,14,14,14,1,0.8,0.2,0.4,0.6,1,0,,,,,,,,,,,,,,,,,,,,,,,,,,,,,,,,,,,,
,,5d65e31c367c8600019f2b13,66fc97f7c1597bde9a128c4f,2024-10-01_20h47.40.061,mdp,2024.2.1,Win32,144.9275362,66fa4ebf79326e780c390304,,,,,,,,,,,,,,,,,,,,,1154.9119,1154.9119,1154.9123,1155.6477,0,0,left,0.2328,,1155.6483,1155.6486,0,0,,1155.649,1155.6492,0,1,,1,1155.6492,1155.6492,1155.6494,1157.1482,0,15,15,15,1,0.8,0.2,0.4,0.6,1,0,,,,,,,,,,,,,,,,,,,,,,,,,,,,,,,,,,,,
,,5d65e31c367c8600019f2b13,66fc97f7c1597bde9a128c4f,2024-10-01_20h47.40.061,mdp,2024.2.1,Win32,144.9275362,66fa4ebf79326e780c390304,,,,,,,,,,,,,,,,,,,,,1157.1483,1157.1483,1157.1489,1157.9606,0,0,left,0.3023,,1157.9613,1157.9616,0,0,,1157.9618,1157.9621,0,0,,1,1157.9621,1157.9621,1157.9623,1159.4603,0,16,16,16,1,0.8,0.2,0.4,0.6,1,0,,,,,,,,,,,,,,,,,,,,,,,,,,,,,,,,,,,,
,,5d65e31c367c8600019f2b13,66fc97f7c1597bde9a128c4f,2024-10-01_20h47.40.061,mdp,2024.2.1,Win32,144.9275362,66fa4ebf79326e780c390304,,,,,,,,,,,,,,,,,,,,,1159.4606,1159.4606,1159.461,1160.2316,0,0,left,0.2596,,1160.2323,1160.2325,0,1,,1160.2328,1160.233,0,1,,1,1160.233,1160.233,1160.2332,1161.7312,0,17,17,17,1,0.8,0.2,0.4,0.6,1,0,,,,,,,,,,,,,,,,,,,,,,,,,,,,,,,,,,,,
,,5d65e31c367c8600019f2b13,66fc97f7c1597bde9a128c4f,2024-10-01_20h47.40.061,mdp,2024.2.1,Win32,144.9275362,66fa4ebf79326e780c390304,,,,,,,,,,,,,,,,,,,,,1161.7314,1161.7314,1161.7318,1162.6272,0,0,left,0.3901,,1162.6278,1162.6283,0,0,,1162.6285,1162.6287,0,0,,1,1162.6287,1162.6287,1162.6288,1164.128,0,18,18,18,1,0.8,0.2,0.4,0.6,1,0,,,,,,,,,,,,,,,,,,,,,,,,,,,,,,,,,,,,
,,5d65e31c367c8600019f2b13,66fc97f7c1597bde9a128c4f,2024-10-01_20h47.40.061,mdp,2024.2.1,Win32,144.9275362,66fa4ebf79326e780c390304,,,,,,,,,,,,,,,,,,,,,1164.1282,1164.1282,1164.1285,1165.3916,0,0,left,0.7481,,1165.3921,1165.3924,0,0,,1165.3927,1165.3929,0,0,,1,1165.3929,1165.3929,1165.393,1166.8915,0,19,19,19,1,0.6,0.4,0.6,0.4,1,0,,,,,,,,,,,,,,,,,,,,,,,,,,,,,,,,,,,,
,,5d65e31c367c8600019f2b13,66fc97f7c1597bde9a128c4f,2024-10-01_20h47.40.061,mdp,2024.2.1,Win32,144.9275362,66fa4ebf79326e780c390304,,,,,,,,,,,,,,,,,,,,,1166.8916,1166.8916,1166.8922,1168.1202,0,0,left,0.7254,,1168.1207,1168.121,0,0,,1168.1213,1168.1215,0,0,,1,1168.1215,1168.1215,1168.1216,1169.6201,0,20,20,20,1,0.6,0.4,0.6,0.4,1,0,,,,,,,,,,,,,,,,,,,,,,,,,,,,,,,,,,,,
,,5d65e31c367c8600019f2b13,66fc97f7c1597bde9a128c4f,2024-10-01_20h47.40.061,mdp,2024.2.1,Win32,144.9275362,66fa4ebf79326e780c390304,,,,,,,,,,,,,,,,,,,,,1169.6203,1169.6203,1169.6207,1170.5862,0,1,left,0.4579,,1170.5868,1170.587,0,1,,1170.5872,1170.5874,0,1,,0,1170.5874,1170.5874,1170.5877,1172.0862,0,21,21,21,1,0.6,0.4,0.6,0.4,1,0,,,,,,,,,,,,,,,,,,,,,,,,,,,,,,,,,,,,
,,5d65e31c367c8600019f2b13,66fc97f7c1597bde9a128c4f,2024-10-01_20h47.40.061,mdp,2024.2.1,Win32,144.9275362,66fa4ebf79326e780c390304,,,,,,,,,,,,,,,,,,,,,1172.0864,1172.0864,1172.0869,1172.9263,1,0,right,0.3285,,1172.9269,1172.9271,0,1,,1172.9274,1172.9276,0,0,,1,1172.9276,1172.9276,1172.9278,1174.4266,0,22,22,22,1,0.8,0.2,0.8,0.2,1,0,,,,,,,,,,,,,,,,,,,,,,,,,,,,,,,,,,,,
,,5d65e31c367c8600019f2b13,66fc97f7c1597bde9a128c4f,2024-10-01_20h47.40.061,mdp,2024.2.1,Win32,144.9275362,66fa4ebf79326e780c390304,,,,,,,,,,,,,,,,,,,,,1174.4268,1174.4268,1174.4272,1175.5436,1,0,right,0.6053,,1175.5441,1175.5443,0,0,,1175.5446,1175.5448,0,0,,1,1175.5448,1175.5448,1175.5449,1177.0438,0,23,23,23,1,0.8,0.2,0.8,0.2,1,0,,,,,,,,,,,,,,,,,,,,,,,,,,,,,,,,,,,,
,,5d65e31c367c8600019f2b13,66fc97f7c1597bde9a128c4f,2024-10-01_20h47.40.061,mdp,2024.2.1,Win32,144.9275362,66fa4ebf79326e780c390304,,,,,,,,,,,,,,,,,,,,,1177.0439,1177.0439,1177.0444,1178.2522,1,0,right,0.6998,,1178.2526,1178.2529,0,0,,1178.2531,1178.2533,0,0,,1,1178.2533,1178.2533,1178.2535,1179.7526,0,24,24,24,1,0.8,0.2,0.8,0.2,1,0,,,,,,,,,,,,,,,,,,,,,,,,,,,,,,,,,,,,
,,5d65e31c367c8600019f2b13,66fc97f7c1597bde9a128c4f,2024-10-01_20h47.40.061,mdp,2024.2.1,Win32,144.9275362,66fa4ebf79326e780c390304,,,,,,,,,,,,,,,,,,,,,1179.7528,1179.7528,1179.7534,1180.6965,1,0,right,0.4339,,1180.697,1180.6974,0,0,,1180.6978,1180.698,0,1,,1,1180.698,1180.698,1180.6982,1182.1966,0,25,25,25,1,0.8,0.2,0.8,0.2,1,0,,,,,,,,,,,,,,,,,,,,,,,,,,,,,,,,,,,,
,,5d65e31c367c8600019f2b13,66fc97f7c1597bde9a128c4f,2024-10-01_20h47.40.061,mdp,2024.2.1,Win32,144.9275362,66fa4ebf79326e780c390304,,,,,,,,,,,,,,,,,,,,,1182.1969,1182.1969,1182.1972,1183.0305,1,0,right,0.3204,,1183.0311,1183.0314,0,1,,1183.0316,1183.0318,0,0,,1,1183.0318,1183.0318,1183.032,1184.5306,0,26,26,26,1,0.8,0.2,0.8,0.2,1,0,,,,,,,,,,,,,,,,,,,,,,,,,,,,,,,,,,,,
,,5d65e31c367c8600019f2b13,66fc97f7c1597bde9a128c4f,2024-10-01_20h47.40.061,mdp,2024.2.1,Win32,144.9275362,66fa4ebf79326e780c390304,,,,,,,,,,,,,,,,,,,,,1184.5308,1184.5308,1184.5313,1185.7591,1,1,right,0.715,,1185.7595,1185.7599,0,1,,1185.76,1185.7602,0,1,,0,1185.7603,1185.7603,1185.7604,1187.2596,0,27,27,27,1,0.6,0.4,0.2,0.8,1,0,,,,,,,,,,,,,,,,,,,,,,,,,,,,,,,,,,,,
,,5d65e31c367c8600019f2b13,66fc97f7c1597bde9a128c4f,2024-10-01_20h47.40.061,mdp,2024.2.1,Win32,144.9275362,66fa4ebf79326e780c390304,,,,,,,,,,,,,,,,,,,,,1187.2597,1187.2597,1187.2604,1188.3569,0,0,left,0.5844,,1188.3574,1188.3576,0,0,,1188.3579,1188.3581,0,0,,1,1188.3581,1188.3581,1188.3583,1189.8572,0,28,28,28,1,0.6,0.4,0.2,0.8,1,0,,,,,,,,,,,,,,,,,,,,,,,,,,,,,,,,,,,,
,,5d65e31c367c8600019f2b13,66fc97f7c1597bde9a128c4f,2024-10-01_20h47.40.061,mdp,2024.2.1,Win32,144.9275362,66fa4ebf79326e780c390304,,,,,,,,,,,,,,,,,,,,,1189.8574,1189.8574,1189.8579,1191.1902,0,1,left,0.8215,,1191.1907,1191.1911,0,1,,1191.1914,1191.1915,0,0,,0,1191.1915,1191.1915,1191.1917,1192.69,0,29,29,29,1,0.6,0.4,0.2,0.8,1,0,,,,,,,,,,,,,,,,,,,,,,,,,,,,,,,,,,,,
,,5d65e31c367c8600019f2b13,66fc97f7c1597bde9a128c4f,2024-10-01_20h47.40.061,mdp,2024.2.1,Win32,144.9275362,66fa4ebf79326e780c390304,,,,,,,,,,,,,,,,,,,,,1192.6902,1192.6902,1192.6907,1193.419,1,0,right,0.2151,,1193.4196,1193.4198,0,1,,1193.4201,1193.4204,0,0,,1,1193.4204,1193.4204,1193.4205,1194.9194,0,30,30,30,1,0.2,0.8,0.6,0.4,1,0,,,,,,,,,,,,,,,,,,,,,,,,,,,,,,,,,,,,
,,5d65e31c367c8600019f2b13,66fc97f7c1597bde9a128c4f,2024-10-01_20h47.40.061,mdp,2024.2.1,Win32,144.9275362,66fa4ebf79326e780c390304,,,,,,,,,,,,,,,,,,,,,1194.9196,1194.9196,1194.92,1196.0301,1,1,right,0.5978,,1196.0305,1196.0308,0,0,,1196.0311,1196.0313,0,0,,0,1196.0313,1196.0313,1196.0315,1197.5301,0,31,31,31,1,0.4,0.6,0.8,0.2,1,0,,,,,,,,,,,,,,,,,,,,,,,,,,,,,,,,,,,,
,,5d65e31c367c8600019f2b13,66fc97f7c1597bde9a128c4f,2024-10-01_20h47.40.061,mdp,2024.2.1,Win32,144.9275362,66fa4ebf79326e780c390304,,,,,,,,,,,,,,,,,,,,,1197.5303,1197.5303,1197.5307,1198.308,0,1,left,0.2631,,1198.3085,1198.3089,0,1,,1198.3091,1198.3093,0,1,,0,1198.3093,1198.3093,1198.3095,1199.8079,0,32,32,32,1,0.6,0.4,0.4,0.6,1,0,,,,,,,,,,,,,,,,,,,,,,,,,,,,,,,,,,,,
,,5d65e31c367c8600019f2b13,66fc97f7c1597bde9a128c4f,2024-10-01_20h47.40.061,mdp,2024.2.1,Win32,144.9275362,66fa4ebf79326e780c390304,,,,,,,,,,,,,,,,,,,,,1199.808,1199.808,1199.8084,1200.551,1,0,right,0.2294,,1200.5514,1200.5516,0,1,,1200.5519,1200.5521,0,0,,1,1200.5522,1200.5522,1200.5523,1202.0517,0,33,33,33,1,0.6,0.4,0.4,0.6,1,0,,,,,,,,,,,,,,,,,,,,,,,,,,,,,,,,,,,,
,,5d65e31c367c8600019f2b13,66fc97f7c1597bde9a128c4f,2024-10-01_20h47.40.061,mdp,2024.2.1,Win32,144.9275362,66fa4ebf79326e780c390304,,,,,,,,,,,,,,,,,,,,,1202.0519,1202.0519,1202.0523,1203.3157,1,0,right,0.7515,,1203.3163,1203.3166,0,0,,1203.3169,1203.317,0,1,,1,1203.317,1203.3171,1203.3172,1204.8157,0,34,34,34,1,0.6,0.4,0.4,0.6,1,0,,,,,,,,,,,,,,,,,,,,,,,,,,,,,,,,,,,,
,,5d65e31c367c8600019f2b13,66fc97f7c1597bde9a128c4f,2024-10-01_20h47.40.061,mdp,2024.2.1,Win32,144.9275362,66fa4ebf79326e780c390304,,,,,,,,,,,,,,,,,,,,,1204.8158,1204.8158,1204.8164,1205.7313,1,1,right,0.4074,,1205.7317,1205.732,0,1,,1205.7322,1205.7324,0,0,,0,1205.7324,1205.7324,1205.7326,1207.232,0,35,35,35,1,0.6,0.4,0.4,0.6,1,0,,,,,,,,,,,,,,,,,,,,,,,,,,,,,,,,,,,,
,,5d65e31c367c8600019f2b13,66fc97f7c1597bde9a128c4f,2024-10-01_20h47.40.061,mdp,2024.2.1,Win32,144.9275362,66fa4ebf79326e780c390304,,,,,,,,,,,,,,,,,,,,,1207.2322,1207.2322,1207.2329,1208.1272,0,0,left,0.384,,1208.1279,1208.1283,0,0,,1208.1287,1208.1288,0,1,,1,1208.1289,1208.1289,1208.129,1209.6274,0,36,36,36,1,0.6,0.4,0.4,0.6,1,0,,,,,,,,,,,,,,,,,,,,,,,,,,,,,,,,,,,,
,,5d65e31c367c8600019f2b13,66fc97f7c1597bde9a128c4f,2024-10-01_20h47.40.061,mdp,2024.2.1,Win32,144.9275362,66fa4ebf79326e780c390304,,,,,,,,,,,,,,,,,,,,,1209.6275,1209.6276,1209.6281,1210.9189,0,0,left,0.7865,,1210.9193,1210.9196,0,0,,1210.9199,1210.9201,0,0,,1,1210.9201,1210.9201,1210.9202,1212.4188,0,37,37,37,1,0.6,0.4,0.4,0.6,1,0,,,,,,,,,,,,,,,,,,,,,,,,,,,,,,,,,,,,
,,5d65e31c367c8600019f2b13,66fc97f7c1597bde9a128c4f,2024-10-01_20h47.40.061,mdp,2024.2.1,Win32,144.9275362,66fa4ebf79326e780c390304,,,,,,,,,,,,,,,,,,,,,1212.419,1212.419,1212.4193,1213.433,0,0,left,0.5084,,1213.4334,1213.4337,0,1,,1213.434,1213.4341,0,0,,1,1213.4341,1213.4341,1213.4343,1214.9337,0,38,38,38,1,0.6,0.4,0.4,0.6,1,0,,,,,,,,,,,,,,,,,,,,,,,,,,,,,,,,,,,,
,,5d65e31c367c8600019f2b13,66fc97f7c1597bde9a128c4f,2024-10-01_20h47.40.061,mdp,2024.2.1,Win32,144.9275362,66fa4ebf79326e780c390304,,,,,,,,,,,,,,,,,,,,,1214.9339,1214.9339,1214.9345,1215.7941,0,0,left,0.3491,,1215.7945,1215.7948,0,0,,1215.795,1215.7952,0,0,,1,1215.7952,1215.7952,1215.7954,1217.2949,0,39,39,39,1,0.6,0.4,0.4,0.6,1,0,,,,,,,,,,,,,,,,,,,,,,,,,,,,,,,,,,,,
,,5d65e31c367c8600019f2b13,66fc97f7c1597bde9a128c4f,2024-10-01_20h47.40.061,mdp,2024.2.1,Win32,144.9275362,66fa4ebf79326e780c390304,,,,,,,,,,,,,,,,,,,,,1217.2953,1217.2953,1217.2958,1218.0789,0,0,left,0.271,,1218.0795,1218.0798,0,0,,1218.0801,1218.0803,0,0,,1,1218.0803,1218.0803,1218.0804,1219.5792,0,40,40,40,1,0.6,0.4,0.4,0.6,1,0,,,,,,,,,,,,,,,,,,,,,,,,,,,,,,,,,,,,
,,5d65e31c367c8600019f2b13,66fc97f7c1597bde9a128c4f,2024-10-01_20h47.40.061,mdp,2024.2.1,Win32,144.9275362,66fa4ebf79326e780c390304,,,,,,,,,,,,,,,,,,,,,1219.5794,1219.5794,1219.5799,1220.6906,0,1,left,0.6001,,1220.6913,1220.6915,0,1,,1220.6919,1220.6921,0,1,,0,1220.6921,1220.6921,1220.6922,1222.1905,0,41,41,41,1,0.2,0.8,0.8,0.2,1,0,,,,,,,,,,,,,,,,,,,,,,,,,,,,,,,,,,,,
