init_exp.started,init_exp.stopped,participant,session,date,expName,psychopyVersion,OS,frameRate,study_id,disp_instruction.started,disp_instruction.stopped,instruction.thisRepN,instruction.thisTrialN,instruction.thisN,instruction.thisIndex,instruction.ran,instimg_path,consent.started,consent.stopped,key_resp_3.keys,key_resp_3.rt,key_resp_3.duration,n_steps,sequence_path,init_block.started,init_block.stopped,key_resp.keys,key_resp.rt,key_resp.duration,init_trials.started,init_trials.stopped,step0.started,step0.stopped,act0,s1,res0.keys,res0.rt,res0.duration,step1.started,step1.stopped,act1,s2,res1.keys,step2.started,step2.stopped,act2,s3,res2.keys,rew,reward_comp.started,reward_comp.stopped,reward_disp.started,reward_disp.stopped,trials.thisRepN,trials.thisTrialN,trials.thisN,trials.thisIndex,trials.ran,s00a0s10,s00a0s11,s00a1s10,s00a1s11,rew10,rew11,break_block.started,break_block.stopped,block.thisRepN,block.thisTrialN,block.thisN,block.thisIndex,block.ran,s00path,s10path,s11path,s20path,s21path,res1.rt,res1.duration,s10a0s20,s10a0s21,s10a1s20,s10a1s21,s11a0s20,s11a0s21,s11a1s20,s11a1s21,rew20,rew21,res2.rt,res2.duration,s20a0s30,s20a0s31,s20a1s30,s20a1s31,s21a0s30,s21a0s31,s21a1s30,s21a1s31,rew30,rew31
0,0,5d7957036797da0019537ad1,66fc9907b4165711b6f3b187,2024-10-01_18h56.57.851,mdp,2024.2.1,Win32,60.0240096,66fa4ebf79326e780c390304,,,,,,,,,,,,,,,,,,,,,,,,,,,,,,,,,,,,,,,,,,,,,,,,,,,,,,,,,,,,,,,,,,,,,,,,,,,,,,,,,,,,,,,,,,,
,,5d7957036797da0019537ad1,66fc9907b4165711b6f3b187,2024-10-01_18h56.57.851,mdp,2024.2.1,Win32,60.0240096,66fa4ebf79326e780c390304,0.002,132.028,0,0,0,0,1,rlnn_exp/rlnn_exp.001.png,,,,,,,,,,,,,,,,,,,,,,,,,,,,,,,,,,,,,,,,,,,,,,,,,,,,,,,,,,,,,,,,,,,,,,,,,,,,,,,,,,,
,,5d7957036797da0019537ad1,66fc9907b4165711b6f3b187,2024-10-01_18h56.57.851,mdp,2024.2.1,Win32,60.0240096,66fa4ebf79326e780c390304,132.031,176.141,0,1,1,1,1,rlnn_exp/rlnn_exp.002.png,,,,,,,,,,,,,,,,,,,,,,,,,,,,,,,,,,,,,,,,,,,,,,,,,,,,,,,,,,,,,,,,,,,,,,,,,,,,,,,,,,,
,,5d7957036797da0019537ad1,66fc9907b4165711b6f3b187,2024-10-01_18h56.57.851,mdp,2024.2.1,Win32,60.0240096,66fa4ebf79326e780c390304,176.148,243.684,0,2,2,2,1,rlnn_exp/rlnn_exp.003.png,,,,,,,,,,,,,,,,,,,,,,,,,,,,,,,,,,,,,,,,,,,,,,,,,,,,,,,,,,,,,,,,,,,,,,,,,,,,,,,,,,,
,,5d7957036797da0019537ad1,66fc9907b4165711b6f3b187,2024-10-01_18h56.57.851,mdp,2024.2.1,Win32,60.0240096,66fa4ebf79326e780c390304,243.689,296.882,0,3,3,3,1,rlnn_exp/rlnn_exp.004.png,,,,,,,,,,,,,,,,,,,,,,,,,,,,,,,,,,,,,,,,,,,,,,,,,,,,,,,,,,,,,,,,,,,,,,,,,,,,,,,,,,,
,,5d7957036797da0019537ad1,66fc9907b4165711b6f3b187,2024-10-01_18h56.57.851,mdp,2024.2.1,Win32,60.0240096,66fa4ebf79326e780c390304,,,,,,,,,296.883,310.014,y,3.098,,,,,,,,,,,,,,,,,,,,,,,,,,,,,,,,,,,,,,,,,,,,,,,,,,,,,,,,,,,,,,,,,,,,,,,,,,,,,,,
,,5d7957036797da0019537ad1,66fc9907b4165711b6f3b187,2024-10-01_18h56.57.851,mdp,2024.2.1,Win32,60.0240096,66fa4ebf79326e780c390304,,,,,,,,,,,,,,1,seqs/st1seq39.csv,310.021,314.081,space,3.532,,314.099,314.099,314.1,316.213,1,1,right,1.569,,316.214,316.218,,1,,316.219,316.221,,0,,0,316.221,316.221,316.221,317.712,0,0,0,0,1,0.2,0.8,0.8,0.2,1,0,,,,,,,,,,,,,,,,,,,,,,,,,,,,,,,,,,,,
,,5d7957036797da0019537ad1,66fc9907b4165711b6f3b187,2024-10-01_18h56.57.851,mdp,2024.2.1,Win32,60.0240096,66fa4ebf79326e780c390304,,,,,,,,,,,,,,,,,,,,,317.714,317.714,317.719,319.363,0,1,left,1.122,,319.367,319.372,,1,,319.373,319.374,,1,,0,319.375,319.375,319.376,320.879,0,1,1,1,1,0.2,0.8,0.8,0.2,1,0,,,,,,,,,,,,,,,,,,,,,,,,,,,,,,,,,,,,
,,5d7957036797da0019537ad1,66fc9907b4165711b6f3b187,2024-10-01_18h56.57.851,mdp,2024.2.1,Win32,60.0240096,66fa4ebf79326e780c390304,,,,,,,,,,,,,,,,,,,,,320.88,320.88,320.884,322.696,0,0,left,1.281,,322.702,322.704,,1,,322.706,322.709,,1,,1,322.709,322.709,322.71,324.212,0,2,2,2,1,0.2,0.8,0.8,0.2,1,0,,,,,,,,,,,,,,,,,,,,,,,,,,,,,,,,,,,,
,,5d7957036797da0019537ad1,66fc9907b4165711b6f3b187,2024-10-01_18h56.57.851,mdp,2024.2.1,Win32,60.0240096,66fa4ebf79326e780c390304,,,,,,,,,,,,,,,,,,,,,324.213,324.213,324.218,326.111,0,0,left,1.368,,326.113,326.116,,1,,326.117,326.118,,1,,1,326.118,326.118,326.119,327.611,0,3,3,3,1,0.2,0.8,0.8,0.2,1,0,,,,,,,,,,,,,,,,,,,,,,,,,,,,,,,,,,,,
,,5d7957036797da0019537ad1,66fc9907b4165711b6f3b187,2024-10-01_18h56.57.851,mdp,2024.2.1,Win32,60.0240096,66fa4ebf79326e780c390304,,,,,,,,,,,,,,,,,,,,,327.614,327.614,327.618,329.245,1,0,right,1.102,,329.249,329.251,,1,,329.252,329.253,,1,,1,329.253,329.253,329.254,330.744,0,4,4,4,1,0.4,0.6,0.6,0.4,1,0,,,,,,,,,,,,,,,,,,,,,,,,,,,,,,,,,,,,
,,5d7957036797da0019537ad1,66fc9907b4165711b6f3b187,2024-10-01_18h56.57.851,mdp,2024.2.1,Win32,60.0240096,66fa4ebf79326e780c390304,,,,,,,,,,,,,,,,,,,,,330.746,330.746,330.748,331.878,1,0,right,0.606,,331.879,331.882,,1,,331.883,331.885,,1,,1,331.885,331.885,331.886,333.378,0,5,5,5,1,0.4,0.6,0.6,0.4,1,0,,,,,,,,,,,,,,,,,,,,,,,,,,,,,,,,,,,,
,,5d7957036797da0019537ad1,66fc9907b4165711b6f3b187,2024-10-01_18h56.57.851,mdp,2024.2.1,Win32,60.0240096,66fa4ebf79326e780c390304,,,,,,,,,,,,,,,,,,,,,333.379,333.379,333.381,335.711,0,0,left,1.803,,335.714,335.718,,0,,335.719,335.72,,0,,1,335.72,335.72,335.722,337.211,0,6,6,6,1,0.6,0.4,0.8,0.2,1,0,,,,,,,,,,,,,,,,,,,,,,,,,,,,,,,,,,,,
,,5d7957036797da0019537ad1,66fc9907b4165711b6f3b187,2024-10-01_18h56.57.851,mdp,2024.2.1,Win32,60.0240096,66fa4ebf79326e780c390304,,,,,,,,,,,,,,,,,,,,,337.212,337.212,337.215,340.081,0,0,left,2.341,,340.089,340.092,,0,,340.094,340.096,,0,,1,340.096,340.097,340.098,341.595,0,7,7,7,1,0.6,0.4,0.8,0.2,1,0,,,,,,,,,,,,,,,,,,,,,,,,,,,,,,,,,,,,
,,5d7957036797da0019537ad1,66fc9907b4165711b6f3b187,2024-10-01_18h56.57.851,mdp,2024.2.1,Win32,60.0240096,66fa4ebf79326e780c390304,,,,,,,,,,,,,,,,,,,,,341.599,341.599,341.602,343.729,1,1,right,1.602,,343.733,343.735,,1,,343.737,343.739,,0,,0,343.74,343.74,343.74,345.244,0,8,8,8,1,0.4,0.6,0.6,0.4,1,0,,,,,,,,,,,,,,,,,,,,,,,,,,,,,,,,,,,,
,,5d7957036797da0019537ad1,66fc9907b4165711b6f3b187,2024-10-01_18h56.57.851,mdp,2024.2.1,Win32,60.0240096,66fa4ebf79326e780c390304,,,,,,,,,,,,,,,,,,,,,345.248,345.249,345.252,347.28,1,0,right,1.508,,347.283,347.286,,0,,347.287,347.289,,0,,1,347.289,347.289,347.291,348.778,0,9,9,9,1,0.4,0.6,0.6,0.4,1,0,,,,,,,,,,,,,,,,,,,,,,,,,,,,,,,,,,,,
,,5d7957036797da0019537ad1,66fc9907b4165711b6f3b187,2024-10-01_18h56.57.851,mdp,2024.2.1,Win32,60.0240096,66fa4ebf79326e780c390304,,,,,,,,,,,,,,,,,,,,,348.78,348.78,348.784,351.477,1,0,right,2.172,,351.479,351.481,,0,,351.482,351.483,,1,,1,351.483,351.483,351.484,352.977,0,10,10,10,1,0.4,0.6,0.6,0.4,1,0,,,,,,,,,,,,,,,,,,,,,,,,,,,,,,,,,,,,
,,5d7957036797da0019537ad1,66fc9907b4165711b6f3b187,2024-10-01_18h56.57.851,mdp,2024.2.1,Win32,60.0240096,66fa4ebf79326e780c390304,,,,,,,,,,,,,,,,,,,,,352.981,352.981,352.984,354.41,0,0,left,0.9,,354.413,354.415,,1,,354.416,354.418,,0,,1,354.418,354.418,354.418,355.91,0,11,11,11,1,0.4,0.6,0.6,0.4,1,0,,,,,,,,,,,,,,,,,,,,,,,,,,,,,,,,,,,,
,,5d7957036797da0019537ad1,66fc9907b4165711b6f3b187,2024-10-01_18h56.57.851,mdp,2024.2.1,Win32,60.0240096,66fa4ebf79326e780c390304,,,,,,,,,,,,,,,,,,,,,355.911,355.911,355.915,358.693,0,1,left,2.248,,358.695,358.697,,1,,358.698,358.699,,0,,0,358.699,358.699,358.7,360.193,0,12,12,12,1,0.4,0.6,0.6,0.4,1,0,,,,,,,,,,,,,,,,,,,,,,,,,,,,,,,,,,,,
,,5d7957036797da0019537ad1,66fc9907b4165711b6f3b187,2024-10-01_18h56.57.851,mdp,2024.2.1,Win32,60.0240096,66fa4ebf79326e780c390304,,,,,,,,,,,,,,,,,,,,,360.194,360.194,360.195,361.427,0,1,left,0.704,,361.43,361.432,,1,,361.433,361.435,,1,,0,361.435,361.435,361.436,362.926,0,13,13,13,1,0.4,0.6,0.6,0.4,1,0,,,,,,,,,,,,,,,,,,,,,,,,,,,,,,,,,,,,
,,5d7957036797da0019537ad1,66fc9907b4165711b6f3b187,2024-10-01_18h56.57.851,mdp,2024.2.1,Win32,60.0240096,66fa4ebf79326e780c390304,,,,,,,,,,,,,,,,,,,,,362.928,362.928,362.931,363.944,0,0,left,0.487,,363.947,363.952,,1,,363.954,363.956,,1,,1,363.956,363.956,363.958,365.459,0,14,14,14,1,0.4,0.6,0.6,0.4,1,0,,,,,,,,,,,,,,,,,,,,,,,,,,,,,,,,,,,,
,,5d7957036797da0019537ad1,66fc9907b4165711b6f3b187,2024-10-01_18h56.57.851,mdp,2024.2.1,Win32,60.0240096,66fa4ebf79326e780c390304,,,,,,,,,,,,,,,,,,,,,365.46,365.46,365.461,366.71,0,0,left,0.721,,366.712,366.714,,1,,366.716,366.718,,1,,1,366.718,366.718,366.719,368.209,0,15,15,15,1,0.4,0.6,0.6,0.4,1,0,,,,,,,,,,,,,,,,,,,,,,,,,,,,,,,,,,,,
,,5d7957036797da0019537ad1,66fc9907b4165711b6f3b187,2024-10-01_18h56.57.851,mdp,2024.2.1,Win32,60.0240096,66fa4ebf79326e780c390304,,,,,,,,,,,,,,,,,,,,,368.209,368.209,368.211,369.627,1,0,right,0.882,,369.631,369.634,,1,,369.636,369.64,,0,,1,369.64,369.64,369.641,371.146,0,16,16,16,1,0.4,0.6,0.6,0.4,1,0,,,,,,,,,,,,,,,,,,,,,,,,,,,,,,,,,,,,
,,5d7957036797da0019537ad1,66fc9907b4165711b6f3b187,2024-10-01_18h56.57.851,mdp,2024.2.1,Win32,60.0240096,66fa4ebf79326e780c390304,,,,,,,,,,,,,,,,,,,,,371.155,371.155,371.164,372.86,1,0,right,1.189,,372.865,372.869,,0,,372.87,372.872,,0,,1,372.872,372.872,372.874,374.376,0,17,17,17,1,0.4,0.6,0.6,0.4,1,0,,,,,,,,,,,,,,,,,,,,,,,,,,,,,,,,,,,,
,,5d7957036797da0019537ad1,66fc9907b4165711b6f3b187,2024-10-01_18h56.57.851,mdp,2024.2.1,Win32,60.0240096,66fa4ebf79326e780c390304,,,,,,,,,,,,,,,,,,,,,374.38,374.38,374.384,375.592,0,1,left,0.69,,375.598,375.602,,0,,375.603,375.605,,1,,0,375.605,375.605,375.607,377.11,0,18,18,18,1,0.4,0.6,0.6,0.4,1,0,,,,,,,,,,,,,,,,,,,,,,,,,,,,,,,,,,,,
,,5d7957036797da0019537ad1,66fc9907b4165711b6f3b187,2024-10-01_18h56.57.851,mdp,2024.2.1,Win32,60.0240096,66fa4ebf79326e780c390304,,,,,,,,,,,,,,,,,,,,,377.112,377.112,377.115,379.342,0,1,left,1.703,,379.346,379.351,,0,,379.352,379.354,,0,,0,379.354,379.354,379.355,380.843,0,19,19,19,1,0.4,0.6,0.6,0.4,1,0,,,,,,,,,,,,,,,,,,,,,,,,,,,,,,,,,,,,
,,5d7957036797da0019537ad1,66fc9907b4165711b6f3b187,2024-10-01_18h56.57.851,mdp,2024.2.1,Win32,60.0240096,66fa4ebf79326e780c390304,,,,,,,,,,,,,,,,,,,,,380.845,380.845,380.849,382.776,0,1,left,1.4,,382.781,382.784,,0,,382.786,382.788,,0,,0,382.788,382.788,382.789,384.291,0,20,20,20,1,0.6,0.4,0.4,0.6,1,0,,,,,,,,,,,,,,,,,,,,,,,,,,,,,,,,,,,,
,,5d7957036797da0019537ad1,66fc9907b4165711b6f3b187,2024-10-01_18h56.57.851,mdp,2024.2.1,Win32,60.0240096,66fa4ebf79326e780c390304,,,,,,,,,,,,,,,,,,,,,384.292,384.292,384.296,386.125,0,1,left,1.321,,386.134,386.136,,1,,386.138,386.138,,1,,0,386.138,386.138,386.14,387.641,0,21,21,21,1,0.4,0.6,0.6,0.4,1,0,,,,,,,,,,,,,,,,,,,,,,,,,,,,,,,,,,,,
,,5d7957036797da0019537ad1,66fc9907b4165711b6f3b187,2024-10-01_18h56.57.851,mdp,2024.2.1,Win32,60.0240096,66fa4ebf79326e780c390304,,,,,,,,,,,,,,,,,,,,,387.642,387.643,387.646,389.891,1,0,right,1.717,,389.893,389.895,,0,,389.895,389.896,,0,,1,389.897,389.897,389.898,391.391,0,22,22,22,1,0.4,0.6,0.6,0.4,1,0,,,,,,,,,,,,,,,,,,,,,,,,,,,,,,,,,,,,
,,5d7957036797da0019537ad1,66fc9907b4165711b6f3b187,2024-10-01_18h56.57.851,mdp,2024.2.1,Win32,60.0240096,66fa4ebf79326e780c390304,,,,,,,,,,,,,,,,,,,,,391.392,391.393,391.396,393.691,1,1,right,1.768,,393.695,393.697,,1,,393.699,393.7,,1,,0,393.7,393.7,393.701,395.192,0,23,23,23,1,0.4,0.6,0.6,0.4,1,0,,,,,,,,,,,,,,,,,,,,,,,,,,,,,,,,,,,,
,,5d7957036797da0019537ad1,66fc9907b4165711b6f3b187,2024-10-01_18h56.57.851,mdp,2024.2.1,Win32,60.0240096,66fa4ebf79326e780c390304,,,,,,,,,,,,,,,,,,,,,395.193,395.193,395.198,397.358,1,1,right,1.632,,397.361,397.364,,0,,397.366,397.369,,0,,0,397.369,397.369,397.371,398.859,0,24,24,24,1,0.4,0.6,0.6,0.4,1,0,,,,,,,,,,,,,,,,,,,,,,,,,,,,,,,,,,,,
,,5d7957036797da0019537ad1,66fc9907b4165711b6f3b187,2024-10-01_18h56.57.851,mdp,2024.2.1,Win32,60.0240096,66fa4ebf79326e780c390304,,,,,,,,,,,,,,,,,,,,,398.862,398.862,398.865,400.874,0,0,left,1.482,,400.88,400.882,,0,,400.883,400.884,,0,,1,400.884,400.884,400.885,402.378,0,25,25,25,1,0.6,0.4,0.8,0.2,1,0,,,,,,,,,,,,,,,,,,,,,,,,,,,,,,,,,,,,
,,5d7957036797da0019537ad1,66fc9907b4165711b6f3b187,2024-10-01_18h56.57.851,mdp,2024.2.1,Win32,60.0240096,66fa4ebf79326e780c390304,,,,,,,,,,,,,,,,,,,,,402.379,402.379,402.38,404.274,0,0,left,1.362,,404.28,404.282,,1,,404.283,404.284,,0,,1,404.284,404.284,404.285,405.774,0,26,26,26,1,0.6,0.4,0.8,0.2,1,0,,,,,,,,,,,,,,,,,,,,,,,,,,,,,,,,,,,,
,,5d7957036797da0019537ad1,66fc9907b4165711b6f3b187,2024-10-01_18h56.57.851,mdp,2024.2.1,Win32,60.0240096,66fa4ebf79326e780c390304,,,,,,,,,,,,,,,,,,,,,405.777,405.778,405.782,407.259,0,1,left,0.951,,407.262,407.265,,0,,407.266,407.268,,1,,0,407.268,407.268,407.269,408.757,0,27,27,27,1,0.6,0.4,0.8,0.2,1,0,,,,,,,,,,,,,,,,,,,,,,,,,,,,,,,,,,,,
,,5d7957036797da0019537ad1,66fc9907b4165711b6f3b187,2024-10-01_18h56.57.851,mdp,2024.2.1,Win32,60.0240096,66fa4ebf79326e780c390304,,,,,,,,,,,,,,,,,,,,,408.759,408.759,408.761,410.307,1,0,right,1.017,,410.311,410.313,,1,,410.315,410.317,,0,,1,410.317,410.317,410.319,411.807,0,28,28,28,1,0.6,0.4,0.8,0.2,1,0,,,,,,,,,,,,,,,,,,,,,,,,,,,,,,,,,,,,
,,5d7957036797da0019537ad1,66fc9907b4165711b6f3b187,2024-10-01_18h56.57.851,mdp,2024.2.1,Win32,60.0240096,66fa4ebf79326e780c390304,,,,,,,,,,,,,,,,,,,,,411.809,411.809,411.812,413.223,1,1,right,0.884,,413.226,413.229,,1,,413.23,413.231,,0,,0,413.231,413.231,413.232,414.723,0,29,29,29,1,0.6,0.4,0.8,0.2,1,0,,,,,,,,,,,,,,,,,,,,,,,,,,,,,,,,,,,,
,,5d7957036797da0019537ad1,66fc9907b4165711b6f3b187,2024-10-01_18h56.57.851,mdp,2024.2.1,Win32,60.0240096,66fa4ebf79326e780c390304,,,,,,,,,,,,,,,,,,,,,414.724,414.724,414.727,417.311,1,0,right,2.065,,417.314,417.319,,0,,417.32,417.321,,1,,1,417.321,417.321,417.322,418.823,0,30,30,30,1,0.6,0.4,0.8,0.2,1,0,,,,,,,,,,,,,,,,,,,,,,,,,,,,,,,,,,,,
,,5d7957036797da0019537ad1,66fc9907b4165711b6f3b187,2024-10-01_18h56.57.851,mdp,2024.2.1,Win32,60.0240096,66fa4ebf79326e780c390304,,,,,,,,,,,,,,,,,,,,,418.824,418.825,418.828,423.89,1,1,right,4.537,,423.893,423.896,,1,,423.898,423.898,,0,,0,423.899,423.899,423.9,425.389,0,31,31,31,1,0.8,0.2,0.4,0.6,1,0,,,,,,,,,,,,,,,,,,,,,,,,,,,,,,,,,,,,
,,5d7957036797da0019537ad1,66fc9907b4165711b6f3b187,2024-10-01_18h56.57.851,mdp,2024.2.1,Win32,60.0240096,66fa4ebf79326e780c390304,,,,,,,,,,,,,,,,,,,,,425.39,425.39,425.392,427.159,1,0,right,1.242,,427.161,427.162,,1,,427.163,427.163,,0,,1,427.164,427.164,427.164,428.655,0,32,32,32,1,0.8,0.2,0.4,0.6,1,0,,,,,,,,,,,,,,,,,,,,,,,,,,,,,,,,,,,,
,,5d7957036797da0019537ad1,66fc9907b4165711b6f3b187,2024-10-01_18h56.57.851,mdp,2024.2.1,Win32,60.0240096,66fa4ebf79326e780c390304,,,,,,,,,,,,,,,,,,,,,428.657,428.657,428.659,429.759,0,0,left,0.576,,429.761,429.762,,0,,429.764,429.766,,0,,1,429.766,429.766,429.767,431.255,0,33,33,33,1,0.8,0.2,0.4,0.6,1,0,,,,,,,,,,,,,,,,,,,,,,,,,,,,,,,,,,,,
,,5d7957036797da0019537ad1,66fc9907b4165711b6f3b187,2024-10-01_18h56.57.851,mdp,2024.2.1,Win32,60.0240096,66fa4ebf79326e780c390304,,,,,,,,,,,,,,,,,,,,,431.261,431.261,431.263,433.939,0,1,left,2.15,,433.943,433.944,,0,,433.946,433.948,,0,,0,433.948,433.948,433.949,435.439,0,34,34,34,1,0.6,0.4,0.8,0.2,1,0,,,,,,,,,,,,,,,,,,,,,,,,,,,,,,,,,,,,
,,5d7957036797da0019537ad1,66fc9907b4165711b6f3b187,2024-10-01_18h56.57.851,mdp,2024.2.1,Win32,60.0240096,66fa4ebf79326e780c390304,,,,,,,,,,,,,,,,,,,,,435.443,435.444,435.447,436.357,1,1,right,0.383,,436.362,436.365,,0,,436.368,436.37,,0,,0,436.37,436.37,436.372,437.871,0,35,35,35,1,0.6,0.4,0.8,0.2,1,0,,,,,,,,,,,,,,,,,,,,,,,,,,,,,,,,,,,,
,,5d7957036797da0019537ad1,66fc9907b4165711b6f3b187,2024-10-01_18h56.57.851,mdp,2024.2.1,Win32,60.0240096,66fa4ebf79326e780c390304,,,,,,,,,,,,,,,,,,,,,437.872,437.872,437.874,439.809,1,0,right,1.425,,439.814,439.817,,0,,439.818,439.82,,1,,1,439.82,439.82,439.821,441.322,0,36,36,36,1,0.6,0.4,0.8,0.2,1,0,,,,,,,,,,,,,,,,,,,,,,,,,,,,,,,,,,,,
,,5d7957036797da0019537ad1,66fc9907b4165711b6f3b187,2024-10-01_18h56.57.851,mdp,2024.2.1,Win32,60.0240096,66fa4ebf79326e780c390304,,,,,,,,,,,,,,,,,,,,,441.324,441.324,441.328,442.605,1,0,right,0.749,,442.607,442.609,,1,,442.61,442.612,,0,,1,442.612,442.612,442.612,444.105,0,37,37,37,1,0.6,0.4,0.8,0.2,1,0,,,,,,,,,,,,,,,,,,,,,,,,,,,,,,,,,,,,
,,5d7957036797da0019537ad1,66fc9907b4165711b6f3b187,2024-10-01_18h56.57.851,mdp,2024.2.1,Win32,60.0240096,66fa4ebf79326e780c390304,,,,,,,,,,,,,,,,,,,,,444.108,444.108,444.111,445.672,1,0,right,1.041,,445.674,445.679,,0,,445.68,445.681,,0,,1,445.681,445.681,445.682,447.172,0,38,38,38,1,0.6,0.4,0.8,0.2,1,0,,,,,,,,,,,,,,,,,,,,,,,,,,,,,,,,,,,,
,,5d7957036797da0019537ad1,66fc9907b4165711b6f3b187,2024-10-01_18h56.57.851,mdp,2024.2.1,Win32,60.0240096,66fa4ebf79326e780c390304,,,,,,,,,,,,,,,,,,,,,447.173,447.173,447.177,449.222,0,0,left,1.523,,449.226,449.229,,0,,449.23,449.231,,0,,1,449.231,449.231,449.233,450.722,0,39,39,39,1,0.6,0.4,0.8,0.2,1,0,,,,,,,,,,,,,,,,,,,,,,,,,,,,,,,,,,,,
,,5d7957036797da0019537ad1,66fc9907b4165711b6f3b187,2024-10-01_18h56.57.851,mdp,2024.2.1,Win32,60.0240096,66fa4ebf79326e780c390304,,,,,,,,,,,,,,,,,,,,,450.722,450.723,450.726,452.023,0,0,left,0.773,,452.027,452.029,,0,,452.031,452.031,,0,,1,452.032,452.032,452.033,453.521,0,40,40,40,1,0.6,0.4,0.8,0.2,1,0,,,,,,,,,,,,,,,,,,,,,,,,,,,,,,,,,,,,
,,5d7957036797da0019537ad1,66fc9907b4165711b6f3b187,2024-10-01_18h56.57.851,mdp,2024.2.1,Win32,60.0240096,66fa4ebf79326e780c390304,,,,,,,,,,,,,,,,,,,,,453.522,453.522,453.524,455.754,0,0,left,1.702,,455.756,455.759,,1,,455.759,455.76,,0,,1,455.76,455.76,455.761,457.255,0,41,41,41,1,0.6,0.4,0.8,0.2,1,0,,,,,,,,,,,,,,,,,,,,,,,,,,,,,,,,,,,,
,,5d7957036797da0019537ad1,66fc9907b4165711b6f3b187,2024-10-01_18h56.57.851,mdp,2024.2.1,Win32,60.0240096,66fa4ebf79326e780c390304,,,,,,,,,,,,,,,,,,,,,457.259,457.259,457.261,458.504,1,0,right,0.721,,458.51,458.511,,1,,458.512,458.514,,0,,1,458.514,458.514,458.515,460.005,0,42,42,42,1,0.6,0.4,0.8,0.2,1,0,,,,,,,,,,,,,,,,,,,,,,,,,,,,,,,,,,,,
,,5d7957036797da0019537ad1,66fc9907b4165711b6f3b187,2024-10-01_18h56.57.851,mdp,2024.2.1,Win32,60.0240096,66fa4ebf79326e780c390304,,,,,,,,,,,,,,,,,,,,,460.005,460.005,460.009,461.42,1,0,right,0.885,,461.423,461.424,,0,,461.425,461.426,,0,,1,461.426,461.426,461.427,462.921,0,43,43,43,1,0.6,0.4,0.8,0.2,1,0,,,,,,,,,,,,,,,,,,,,,,,,,,,,,,,,,,,,
,,5d7957036797da0019537ad1,66fc9907b4165711b6f3b187,2024-10-01_18h56.57.851,mdp,2024.2.1,Win32,60.0240096,66fa4ebf79326e780c390304,,,,,,,,,,,,,,,,,,,,,462.922,462.922,462.925,464.639,1,0,right,1.19,,464.641,464.642,,0,,464.644,464.644,,1,,1,464.644,464.644,464.645,466.139,0,44,44,44,1,0.6,0.4,0.8,0.2,1,0,,,,,,,,,,,,,,,,,,,,,,,,,,,,,,,,,,,,
,,5d7957036797da0019537ad1,66fc9907b4165711b6f3b187,2024-10-01_18h56.57.851,mdp,2024.2.1,Win32,60.0240096,66fa4ebf79326e780c390304,,,,,,,,,,,,,,,,,,,,,466.142,466.142,466.145,467.224,0,0,left,0.556,,467.227,467.231,,0,,467.233,467.234,,1,,1,467.234,467.235,467.236,468.737,0,45,45,45,1,0.6,0.4,0.8,0.2,1,0,,,,,,,,,,,,,,,,,,,,,,,,,,,,,,,,,,,,
,,5d7957036797da0019537ad1,66fc9907b4165711b6f3b187,2024-10-01_18h56.57.851,mdp,2024.2.1,Win32,60.0240096,66fa4ebf79326e780c390304,,,,,,,,,,,,,,,,,,,,,468.738,468.738,468.741,470.103,0,0,left,0.839,,470.108,470.112,,0,,470.114,470.116,,1,,1,470.116,470.116,470.117,471.62,0,46,46,46,1,0.6,0.4,0.8,0.2,1,0,,,,,,,,,,,,,,,,,,,,,,,,,,,,,,,,,,,,
,,5d7957036797da0019537ad1,66fc9907b4165711b6f3b187,2024-10-01_18h56.57.851,mdp,2024.2.1,Win32,60.0240096,66fa4ebf79326e780c390304,,,,,,,,,,,,,,,,,,,,,471.621,471.621,471.624,473.17,1,1,right,1.017,,473.174,473.179,,1,,473.181,473.183,,1,,0,473.183,473.183,473.184,474.688,0,47,47,47,1,0.8,0.2,0.4,0.6,1,0,,,,,,,,,,,,,,,,,,,,,,,,,,,,,,,,,,,,
,,5d7957036797da0019537ad1,66fc9907b4165711b6f3b187,2024-10-01_18h56.57.851,mdp,2024.2.1,Win32,60.0240096,66fa4ebf79326e780c390304,,,,,,,,,,,,,,,,,,,,,474.69,474.69,474.693,475.536,1,0,right,0.318,,475.538,475.541,,1,,475.542,475.542,,1,,1,475.542,475.542,475.543,477.036,0,48,48,48,1,0.6,0.4,0.2,0.8,1,0,,,,,,,,,,,,,,,,,,,,,,,,,,,,,,,,,,,,
,,5d7957036797da0019537ad1,66fc9907b4165711b6f3b187,2024-10-01_18h56.57.851,mdp,2024.2.1,Win32,60.0240096,66fa4ebf79326e780c390304,,,,,,,,,,,,,,,,,,,,,477.038,477.039,477.042,477.57,1,0,right,0.002,,477.573,477.576,,1,,477.578,477.579,,0,,1,477.579,477.579,477.58,479.07,0,49,49,49,1,0.2,0.8,0.6,0.4,1,0,,,,,,,,,,,,,,,,,,,,,,,,,,,,,,,,,,,,
,,5d7957036797da0019537ad1,66fc9907b4165711b6f3b187,2024-10-01_18h56.57.851,mdp,2024.2.1,Win32,60.0240096,66fa4ebf79326e780c390304,,,,,,,,,,,,,,,,,,,,,,,,,,,,,,,,,,,,,,,,,,,,,,,,,,,,,,,,479.07,537.585,0,0,0,7,1,imgs/kangaroo.png,imgs/dog.png,imgs/giraffe.png,imgs/rabbit.png,imgs/squirrel.png,,,,,,,,,,,,,,,,,,,,,,,,
,,5d7957036797da0019537ad1,66fc9907b4165711b6f3b187,2024-10-01_18h56.57.851,mdp,2024.2.1,Win32,60.0240096,66fa4ebf79326e780c390304,,,,,,,,,,,,,,2,seqs/st2seq31.csv,537.601,541.6,space,3.488,,541.619,541.619,541.621,543.199,0,0,left,1.041,,543.204,545.683,0,0,left,545.688,545.692,,1,,1,545.692,545.692,545.693,547.183,0,0,0,0,1,0.4,0.6,0.8,0.2,,,,,,,,,,,,,,,1.962,,0.8,0.2,0.4,0.6,0.8,0.2,0.4,0.6,1,0,,,,,,,,,,,,
,,5d7957036797da0019537ad1,66fc9907b4165711b6f3b187,2024-10-01_18h56.57.851,mdp,2024.2.1,Win32,60.0240096,66fa4ebf79326e780c390304,,,,,,,,,,,,,,,,,,,,,547.184,547.184,547.191,553.949,1,0,right,6.235,,553.957,555.781,1,0,right,555.784,555.787,,1,,1,555.787,555.787,555.788,557.282,0,1,1,1,1,0.4,0.6,0.8,0.2,,,,,,,,,,,,,,,1.304,,0.8,0.2,0.4,0.6,0.8,0.2,0.4,0.6,1,0,,,,,,,,,,,,
,,5d7957036797da0019537ad1,66fc9907b4165711b6f3b187,2024-10-01_18h56.57.851,mdp,2024.2.1,Win32,60.0240096,66fa4ebf79326e780c390304,,,,,,,,,,,,,,,,,,,,,557.282,557.282,557.284,558.598,0,0,left,0.786,,558.602,559.982,0,0,left,559.984,559.987,,0,,1,559.987,559.987,559.988,561.481,0,2,2,2,1,0.4,0.6,0.8,0.2,,,,,,,,,,,,,,,0.867,,0.8,0.2,0.4,0.6,0.8,0.2,0.4,0.6,1,0,,,,,,,,,,,,
,,5d7957036797da0019537ad1,66fc9907b4165711b6f3b187,2024-10-01_18h56.57.851,mdp,2024.2.1,Win32,60.0240096,66fa4ebf79326e780c390304,,,,,,,,,,,,,,,,,,,,,561.482,561.482,561.484,563.147,0,1,left,1.135,,563.15,565.332,0,0,left,565.334,565.338,,0,,1,565.338,565.338,565.339,566.831,0,3,3,3,1,0.4,0.6,0.8,0.2,,,,,,,,,,,,,,,1.653,,0.8,0.2,0.4,0.6,0.8,0.2,0.4,0.6,1,0,,,,,,,,,,,,
,,5d7957036797da0019537ad1,66fc9907b4165711b6f3b187,2024-10-01_18h56.57.851,mdp,2024.2.1,Win32,60.0240096,66fa4ebf79326e780c390304,,,,,,,,,,,,,,,,,,,,,566.832,566.832,566.835,570.014,1,0,right,2.655,,570.018,571.514,1,1,right,571.519,571.521,,0,,0,571.521,571.521,571.522,573.014,0,4,4,4,1,0.4,0.6,0.8,0.2,,,,,,,,,,,,,,,0.958,,0.8,0.2,0.4,0.6,0.8,0.2,0.4,0.6,1,0,,,,,,,,,,,,
,,5d7957036797da0019537ad1,66fc9907b4165711b6f3b187,2024-10-01_18h56.57.851,mdp,2024.2.1,Win32,60.0240096,66fa4ebf79326e780c390304,,,,,,,,,,,,,,,,,,,,,573.019,573.019,573.02,574.597,1,0,right,1.05,,574.6,575.647,1,0,right,575.653,575.655,,0,,1,575.655,575.655,575.657,577.148,0,5,5,5,1,0.4,0.6,0.8,0.2,,,,,,,,,,,,,,,0.536,,0.6,0.4,0.8,0.2,0.8,0.2,0.4,0.6,1,0,,,,,,,,,,,,
,,5d7957036797da0019537ad1,66fc9907b4165711b6f3b187,2024-10-01_18h56.57.851,mdp,2024.2.1,Win32,60.0240096,66fa4ebf79326e780c390304,,,,,,,,,,,,,,,,,,,,,577.149,577.149,577.153,578.698,1,0,right,1.018,,578.701,581.584,1,0,right,581.592,581.594,,0,,1,581.594,581.594,581.595,583.097,0,6,6,6,1,0.4,0.6,0.8,0.2,,,,,,,,,,,,,,,2.356,,0.6,0.4,0.8,0.2,0.8,0.2,0.4,0.6,1,0,,,,,,,,,,,,
,,5d7957036797da0019537ad1,66fc9907b4165711b6f3b187,2024-10-01_18h56.57.851,mdp,2024.2.1,Win32,60.0240096,66fa4ebf79326e780c390304,,,,,,,,,,,,,,,,,,,,,583.099,583.1,583.101,584.213,0,0,left,0.593,,584.216,587.897,0,0,left,587.903,587.909,,0,,1,587.909,587.909,587.912,589.413,0,7,7,7,1,0.4,0.6,0.8,0.2,,,,,,,,,,,,,,,3.153,,0.6,0.4,0.8,0.2,0.8,0.2,0.4,0.6,1,0,,,,,,,,,,,,
,,5d7957036797da0019537ad1,66fc9907b4165711b6f3b187,2024-10-01_18h56.57.851,mdp,2024.2.1,Win32,60.0240096,66fa4ebf79326e780c390304,,,,,,,,,,,,,,,,,,,,,589.414,589.414,589.418,591.664,0,1,left,1.724,,591.669,597.58,0,0,left,597.584,597.586,,0,,1,597.586,597.586,597.588,599.08,0,8,8,8,1,0.4,0.6,0.8,0.2,,,,,,,,,,,,,,,5.385,,0.6,0.4,0.8,0.2,0.8,0.2,0.4,0.6,1,0,,,,,,,,,,,,
,,5d7957036797da0019537ad1,66fc9907b4165711b6f3b187,2024-10-01_18h56.57.851,mdp,2024.2.1,Win32,60.0240096,66fa4ebf79326e780c390304,,,,,,,,,,,,,,,,,,,,,599.083,599.083,599.087,601.563,1,1,right,1.953,,601.569,602.829,1,1,right,602.832,602.837,,1,,0,602.838,602.838,602.84,604.329,0,9,9,9,1,0.4,0.6,0.8,0.2,,,,,,,,,,,,,,,0.751,,0.6,0.4,0.8,0.2,0.8,0.2,0.4,0.6,1,0,,,,,,,,,,,,
,,5d7957036797da0019537ad1,66fc9907b4165711b6f3b187,2024-10-01_18h56.57.851,mdp,2024.2.1,Win32,60.0240096,66fa4ebf79326e780c390304,,,,,,,,,,,,,,,,,,,,,604.33,604.33,604.334,605.445,1,0,right,0.587,,605.449,606.545,1,1,right,606.549,606.552,,0,,0,606.552,606.552,606.552,608.046,0,10,10,10,1,0.4,0.6,0.8,0.2,,,,,,,,,,,,,,,0.579,,0.6,0.4,0.8,0.2,0.8,0.2,0.4,0.6,1,0,,,,,,,,,,,,
,,5d7957036797da0019537ad1,66fc9907b4165711b6f3b187,2024-10-01_18h56.57.851,mdp,2024.2.1,Win32,60.0240096,66fa4ebf79326e780c390304,,,,,,,,,,,,,,,,,,,,,608.047,608.047,608.05,609.079,0,0,left,0.503,,609.082,610.079,0,1,left,610.082,610.085,,0,,0,610.085,610.085,610.086,611.578,0,11,11,11,1,0.4,0.6,0.8,0.2,,,,,,,,,,,,,,,0.489,,0.6,0.4,0.8,0.2,0.8,0.2,0.4,0.6,1,0,,,,,,,,,,,,
,,5d7957036797da0019537ad1,66fc9907b4165711b6f3b187,2024-10-01_18h56.57.851,mdp,2024.2.1,Win32,60.0240096,66fa4ebf79326e780c390304,,,,,,,,,,,,,,,,,,,,,611.582,611.583,611.585,612.628,0,1,left,0.524,,612.63,613.796,0,0,left,613.803,613.808,,0,,1,613.808,613.808,613.81,615.312,0,12,12,12,1,0.4,0.6,0.8,0.2,,,,,,,,,,,,,,,0.635,,0.6,0.4,0.8,0.2,0.8,0.2,0.4,0.6,1,0,,,,,,,,,,,,
,,5d7957036797da0019537ad1,66fc9907b4165711b6f3b187,2024-10-01_18h56.57.851,mdp,2024.2.1,Win32,60.0240096,66fa4ebf79326e780c390304,,,,,,,,,,,,,,,,,,,,,615.314,615.314,615.318,616.646,0,0,left,0.806,,616.653,617.848,0,0,left,617.85,617.852,,0,,1,617.853,617.853,617.854,619.344,0,13,13,13,1,0.4,0.6,0.8,0.2,,,,,,,,,,,,,,,0.658,,0.6,0.4,0.8,0.2,0.4,0.6,0.2,0.8,1,0,,,,,,,,,,,,
,,5d7957036797da0019537ad1,66fc9907b4165711b6f3b187,2024-10-01_18h56.57.851,mdp,2024.2.1,Win32,60.0240096,66fa4ebf79326e780c390304,,,,,,,,,,,,,,,,,,,,,619.344,619.345,619.346,621.511,0,1,left,1.652,,621.513,623.245,0,0,left,623.252,623.256,,1,,1,623.256,623.256,623.259,624.745,0,14,14,14,1,0.4,0.6,0.8,0.2,,,,,,,,,,,,,,,1.198,,0.6,0.4,0.8,0.2,0.4,0.6,0.2,0.8,1,0,,,,,,,,,,,,
,,5d7957036797da0019537ad1,66fc9907b4165711b6f3b187,2024-10-01_18h56.57.851,mdp,2024.2.1,Win32,60.0240096,66fa4ebf79326e780c390304,,,,,,,,,,,,,,,,,,,,,624.745,624.745,624.749,627.828,1,0,right,2.55,,627.833,628.862,1,0,right,628.865,628.87,,0,,1,628.87,628.87,628.872,630.361,0,15,15,15,1,0.4,0.6,0.8,0.2,,,,,,,,,,,,,,,0.495,,0.6,0.4,0.8,0.2,0.4,0.6,0.2,0.8,1,0,,,,,,,,,,,,
,,5d7957036797da0019537ad1,66fc9907b4165711b6f3b187,2024-10-01_18h56.57.851,mdp,2024.2.1,Win32,60.0240096,66fa4ebf79326e780c390304,,,,,,,,,,,,,,,,,,,,,630.362,630.362,630.365,631.578,1,0,right,0.681,,631.583,632.911,1,0,right,632.913,632.918,,1,,1,632.918,632.918,632.92,634.41,0,16,16,16,1,0.4,0.6,0.8,0.2,,,,,,,,,,,,,,,0.803,,0.6,0.4,0.8,0.2,0.4,0.6,0.2,0.8,1,0,,,,,,,,,,,,
,,5d7957036797da0019537ad1,66fc9907b4165711b6f3b187,2024-10-01_18h56.57.851,mdp,2024.2.1,Win32,60.0240096,66fa4ebf79326e780c390304,,,,,,,,,,,,,,,,,,,,,634.411,634.412,634.415,635.977,0,1,left,1.034,,635.979,637.244,0,1,left,637.248,637.25,,1,,0,637.25,637.25,637.251,638.743,0,17,17,17,1,0.4,0.6,0.8,0.2,,,,,,,,,,,,,,,0.737,,0.8,0.2,0.2,0.8,0.4,0.6,0.2,0.8,1,0,,,,,,,,,,,,
,,5d7957036797da0019537ad1,66fc9907b4165711b6f3b187,2024-10-01_18h56.57.851,mdp,2024.2.1,Win32,60.0240096,66fa4ebf79326e780c390304,,,,,,,,,,,,,,,,,,,,,638.744,638.744,638.748,640.244,1,0,right,0.985,,640.248,643.315,1,1,right,643.323,643.329,,1,,0,643.329,643.329,643.33,644.827,0,18,18,18,1,0.4,0.6,0.8,0.2,,,,,,,,,,,,,,,2.534,,0.8,0.2,0.2,0.8,0.4,0.6,0.2,0.8,1,0,,,,,,,,,,,,
,,5d7957036797da0019537ad1,66fc9907b4165711b6f3b187,2024-10-01_18h56.57.851,mdp,2024.2.1,Win32,60.0240096,66fa4ebf79326e780c390304,,,,,,,,,,,,,,,,,,,,,644.83,644.83,644.832,646.476,0,1,left,1.116,,646.48,647.909,0,1,left,647.913,647.917,,1,,0,647.917,647.917,647.919,649.409,0,19,19,19,1,0.4,0.6,0.8,0.2,,,,,,,,,,,,,,,0.907,,0.8,0.2,0.2,0.8,0.4,0.6,0.2,0.8,1,0,,,,,,,,,,,,
,,5d7957036797da0019537ad1,66fc9907b4165711b6f3b187,2024-10-01_18h56.57.851,mdp,2024.2.1,Win32,60.0240096,66fa4ebf79326e780c390304,,,,,,,,,,,,,,,,,,,,,649.409,649.409,649.411,650.261,0,1,left,0.341,,650.265,651.46,0,0,left,651.462,651.466,,0,,1,651.467,651.467,651.468,652.959,0,20,20,20,1,0.4,0.6,0.8,0.2,,,,,,,,,,,,,,,0.669,,0.8,0.2,0.2,0.8,0.4,0.6,0.2,0.8,1,0,,,,,,,,,,,,
,,5d7957036797da0019537ad1,66fc9907b4165711b6f3b187,2024-10-01_18h56.57.851,mdp,2024.2.1,Win32,60.0240096,66fa4ebf79326e780c390304,,,,,,,,,,,,,,,,,,,,,652.96,652.96,652.965,654.909,0,0,left,1.421,,654.912,655.876,0,0,left,655.878,655.88,,0,,1,655.88,655.88,655.881,657.376,0,21,21,21,1,0.4,0.6,0.8,0.2,,,,,,,,,,,,,,,0.422,,0.8,0.2,0.2,0.8,0.4,0.6,0.2,0.8,1,0,,,,,,,,,,,,
,,5d7957036797da0019537ad1,66fc9907b4165711b6f3b187,2024-10-01_18h56.57.851,mdp,2024.2.1,Win32,60.0240096,66fa4ebf79326e780c390304,,,,,,,,,,,,,,,,,,,,,657.379,657.379,657.382,658.509,1,0,right,0.605,,658.512,660.328,1,1,right,660.33,660.332,,0,,0,660.332,660.332,660.333,661.826,0,22,22,22,1,0.4,0.6,0.8,0.2,,,,,,,,,,,,,,,1.293,,0.8,0.2,0.2,0.8,0.4,0.6,0.2,0.8,1,0,,,,,,,,,,,,
,,5d7957036797da0019537ad1,66fc9907b4165711b6f3b187,2024-10-01_18h56.57.851,mdp,2024.2.1,Win32,60.0240096,66fa4ebf79326e780c390304,,,,,,,,,,,,,,,,,,,,,661.828,661.829,661.832,662.759,1,0,right,0.396,,662.76,664.026,1,1,right,664.029,664.03,,1,,0,664.03,664.03,664.032,665.526,0,23,23,23,1,0.4,0.6,0.8,0.2,,,,,,,,,,,,,,,0.75,,0.8,0.2,0.2,0.8,0.4,0.6,0.2,0.8,1,0,,,,,,,,,,,,
,,5d7957036797da0019537ad1,66fc9907b4165711b6f3b187,2024-10-01_18h56.57.851,mdp,2024.2.1,Win32,60.0240096,66fa4ebf79326e780c390304,,,,,,,,,,,,,,,,,,,,,665.529,665.53,665.533,666.609,0,0,left,0.553,,666.611,668.409,0,0,left,668.411,668.413,,0,,1,668.413,668.413,668.414,669.908,0,24,24,24,1,0.4,0.6,0.8,0.2,,,,,,,,,,,,,,,1.281,,0.8,0.2,0.2,0.8,0.4,0.6,0.2,0.8,1,0,,,,,,,,,,,,
,,5d7957036797da0019537ad1,66fc9907b4165711b6f3b187,2024-10-01_18h56.57.851,mdp,2024.2.1,Win32,60.0240096,66fa4ebf79326e780c390304,,,,,,,,,,,,,,,,,,,,,669.909,669.909,669.91,671.258,1,0,right,0.814,,671.259,672.328,1,1,right,672.332,672.334,,1,,0,672.334,672.334,672.335,673.827,0,25,25,25,1,0.4,0.6,0.8,0.2,,,,,,,,,,,,,,,0.556,,0.8,0.2,0.2,0.8,0.4,0.6,0.2,0.8,1,0,,,,,,,,,,,,
,,5d7957036797da0019537ad1,66fc9907b4165711b6f3b187,2024-10-01_18h56.57.851,mdp,2024.2.1,Win32,60.0240096,66fa4ebf79326e780c390304,,,,,,,,,,,,,,,,,,,,,673.836,673.836,673.846,674.892,0,1,left,0.539,,674.898,675.775,0,1,left,675.781,675.784,,1,,0,675.784,675.784,675.785,677.274,0,26,26,26,1,0.4,0.6,0.8,0.2,,,,,,,,,,,,,,,0.344,,0.8,0.2,0.2,0.8,0.4,0.6,0.2,0.8,1,0,,,,,,,,,,,,
,,5d7957036797da0019537ad1,66fc9907b4165711b6f3b187,2024-10-01_18h56.57.851,mdp,2024.2.1,Win32,60.0240096,66fa4ebf79326e780c390304,,,,,,,,,,,,,,,,,,,,,677.275,677.275,677.277,679.091,1,0,right,1.294,,679.092,682.541,1,1,right,682.544,682.547,,1,,0,682.548,682.548,682.55,684.041,0,27,27,27,1,0.4,0.6,0.8,0.2,,,,,,,,,,,,,,,2.936,,0.8,0.2,0.2,0.8,0.8,0.2,0.6,0.4,1,0,,,,,,,,,,,,
,,5d7957036797da0019537ad1,66fc9907b4165711b6f3b187,2024-10-01_18h56.57.851,mdp,2024.2.1,Win32,60.0240096,66fa4ebf79326e780c390304,,,,,,,,,,,,,,,,,,,,,684.043,684.043,684.044,684.709,1,0,right,0.144,,684.71,685.641,1,1,right,685.644,685.646,,1,,0,685.646,685.646,685.647,687.141,0,28,28,28,1,0.4,0.6,0.8,0.2,,,,,,,,,,,,,,,0.404,,0.8,0.2,0.2,0.8,0.8,0.2,0.6,0.4,1,0,,,,,,,,,,,,
,,5d7957036797da0019537ad1,66fc9907b4165711b6f3b187,2024-10-01_18h56.57.851,mdp,2024.2.1,Win32,60.0240096,66fa4ebf79326e780c390304,,,,,,,,,,,,,,,,,,,,,687.141,687.141,687.144,687.74,1,1,right,0.085,,687.742,688.724,1,0,right,688.728,688.73,,0,,1,688.73,688.73,688.732,690.225,0,29,29,29,1,0.4,0.6,0.8,0.2,,,,,,,,,,,,,,,0.457,,0.8,0.2,0.2,0.8,0.8,0.2,0.6,0.4,1,0,,,,,,,,,,,,
,,5d7957036797da0019537ad1,66fc9907b4165711b6f3b187,2024-10-01_18h56.57.851,mdp,2024.2.1,Win32,60.0240096,66fa4ebf79326e780c390304,,,,,,,,,,,,,,,,,,,,,690.229,690.229,690.231,691.308,1,0,right,0.551,,691.314,692.64,1,1,right,692.642,692.644,,0,,0,692.644,692.644,692.645,694.14,0,30,30,30,1,0.4,0.6,0.8,0.2,,,,,,,,,,,,,,,0.79,,0.2,0.8,0.8,0.2,0.8,0.2,0.6,0.4,1,0,,,,,,,,,,,,
,,5d7957036797da0019537ad1,66fc9907b4165711b6f3b187,2024-10-01_18h56.57.851,mdp,2024.2.1,Win32,60.0240096,66fa4ebf79326e780c390304,,,,,,,,,,,,,,,,,,,,,694.142,694.142,694.148,695.143,0,1,left,0.465,,695.144,696.306,0,0,left,696.309,696.311,,0,,1,696.311,696.311,696.312,697.808,0,31,31,31,1,0.4,0.6,0.8,0.2,,,,,,,,,,,,,,,0.623,,0.2,0.8,0.8,0.2,0.8,0.2,0.6,0.4,1,0,,,,,,,,,,,,
,,5d7957036797da0019537ad1,66fc9907b4165711b6f3b187,2024-10-01_18h56.57.851,mdp,2024.2.1,Win32,60.0240096,66fa4ebf79326e780c390304,,,,,,,,,,,,,,,,,,,,,697.81,697.81,697.813,698.473,0,1,left,0.137,,698.478,699.712,0,0,left,699.713,699.714,,0,,1,699.714,699.714,699.715,701.206,0,32,32,32,1,0.4,0.6,0.8,0.2,,,,,,,,,,,,,,,0.729,,0.2,0.8,0.8,0.2,0.8,0.2,0.6,0.4,1,0,,,,,,,,,,,,
,,5d7957036797da0019537ad1,66fc9907b4165711b6f3b187,2024-10-01_18h56.57.851,mdp,2024.2.1,Win32,60.0240096,66fa4ebf79326e780c390304,,,,,,,,,,,,,,,,,,,,,701.207,701.207,701.209,702.44,0,1,left,0.712,,702.442,703.89,0,0,left,703.892,703.896,,0,,1,703.896,703.896,703.898,705.392,0,33,33,33,1,0.4,0.6,0.8,0.2,,,,,,,,,,,,,,,0.923,,0.2,0.8,0.8,0.2,0.8,0.2,0.6,0.4,1,0,,,,,,,,,,,,
,,5d7957036797da0019537ad1,66fc9907b4165711b6f3b187,2024-10-01_18h56.57.851,mdp,2024.2.1,Win32,60.0240096,66fa4ebf79326e780c390304,,,,,,,,,,,,,,,,,,,,,705.402,705.402,705.409,706.558,0,1,left,0.635,,706.563,707.707,0,0,left,707.711,707.714,,1,,1,707.714,707.714,707.715,709.208,0,34,34,34,1,0.4,0.6,0.8,0.2,,,,,,,,,,,,,,,0.617,,0.2,0.8,0.8,0.2,0.8,0.2,0.6,0.4,1,0,,,,,,,,,,,,
,,5d7957036797da0019537ad1,66fc9907b4165711b6f3b187,2024-10-01_18h56.57.851,mdp,2024.2.1,Win32,60.0240096,66fa4ebf79326e780c390304,,,,,,,,,,,,,,,,,,,,,709.211,709.212,709.215,710.142,1,1,right,0.408,,710.145,711.356,1,1,right,711.36,711.362,,1,,0,711.363,711.363,711.364,712.859,0,35,35,35,1,0.4,0.6,0.8,0.2,,,,,,,,,,,,,,,0.689,,0.2,0.8,0.8,0.2,0.8,0.2,0.6,0.4,1,0,,,,,,,,,,,,
,,5d7957036797da0019537ad1,66fc9907b4165711b6f3b187,2024-10-01_18h56.57.851,mdp,2024.2.1,Win32,60.0240096,66fa4ebf79326e780c390304,,,,,,,,,,,,,,,,,,,,,712.859,712.859,712.862,713.99,1,0,right,0.606,,713.997,714.959,1,0,right,714.961,714.963,,0,,1,714.963,714.963,714.963,716.456,0,36,36,36,1,0.4,0.6,0.8,0.2,,,,,,,,,,,,,,,0.407,,0.2,0.8,0.8,0.2,0.8,0.2,0.6,0.4,1,0,,,,,,,,,,,,
,,5d7957036797da0019537ad1,66fc9907b4165711b6f3b187,2024-10-01_18h56.57.851,mdp,2024.2.1,Win32,60.0240096,66fa4ebf79326e780c390304,,,,,,,,,,,,,,,,,,,,,716.458,716.458,716.462,718.023,1,0,right,1.037,,718.027,719.239,1,1,right,719.246,719.25,,1,,0,719.25,719.25,719.251,720.738,0,37,37,37,1,0.4,0.6,0.8,0.2,,,,,,,,,,,,,,,0.689,,0.2,0.8,0.8,0.2,0.8,0.2,0.6,0.4,1,0,,,,,,,,,,,,
,,5d7957036797da0019537ad1,66fc9907b4165711b6f3b187,2024-10-01_18h56.57.851,mdp,2024.2.1,Win32,60.0240096,66fa4ebf79326e780c390304,,,,,,,,,,,,,,,,,,,,,720.739,720.739,720.743,723.522,0,0,left,2.27,,723.525,724.988,1,0,right,724.99,724.992,,1,,1,724.992,724.992,724.993,726.488,0,38,38,38,1,0.4,0.6,0.8,0.2,,,,,,,,,,,,,,,0.956,,0.2,0.8,0.8,0.2,0.8,0.2,0.6,0.4,1,0,,,,,,,,,,,,
,,5d7957036797da0019537ad1,66fc9907b4165711b6f3b187,2024-10-01_18h56.57.851,mdp,2024.2.1,Win32,60.0240096,66fa4ebf79326e780c390304,,,,,,,,,,,,,,,,,,,,,726.49,726.49,726.494,729.712,1,0,right,2.696,,729.713,730.908,0,0,left,730.909,730.91,,1,,1,730.91,730.91,730.912,732.405,0,39,39,39,1,0.4,0.6,0.8,0.2,,,,,,,,,,,,,,,0.68,,0.2,0.8,0.8,0.2,0.8,0.2,0.6,0.4,1,0,,,,,,,,,,,,
,,5d7957036797da0019537ad1,66fc9907b4165711b6f3b187,2024-10-01_18h56.57.851,mdp,2024.2.1,Win32,60.0240096,66fa4ebf79326e780c390304,,,,,,,,,,,,,,,,,,,,,732.407,732.407,732.409,736.387,1,0,right,3.453,,736.389,737.459,1,0,right,737.477,737.482,,0,,1,737.482,737.482,737.483,738.972,0,40,40,40,1,0.4,0.6,0.8,0.2,,,,,,,,,,,,,,,0.548,,0.2,0.8,0.8,0.2,0.8,0.2,0.6,0.4,1,0,,,,,,,,,,,,
,,5d7957036797da0019537ad1,66fc9907b4165711b6f3b187,2024-10-01_18h56.57.851,mdp,2024.2.1,Win32,60.0240096,66fa4ebf79326e780c390304,,,,,,,,,,,,,,,,,,,,,738.975,738.976,738.98,740.888,0,0,left,1.386,,740.891,742.855,1,0,right,742.86,742.864,,0,,1,742.864,742.864,742.867,744.354,0,41,41,41,1,0.4,0.6,0.8,0.2,,,,,,,,,,,,,,,1.432,,0.2,0.8,0.8,0.2,0.8,0.2,0.6,0.4,1,0,,,,,,,,,,,,
,,5d7957036797da0019537ad1,66fc9907b4165711b6f3b187,2024-10-01_18h56.57.851,mdp,2024.2.1,Win32,60.0240096,66fa4ebf79326e780c390304,,,,,,,,,,,,,,,,,,,,,744.358,744.358,744.359,746.438,0,0,left,1.549,,746.442,747.371,0,1,left,747.375,747.378,,0,,0,747.378,747.378,747.379,748.87,0,42,42,42,1,0.4,0.6,0.8,0.2,,,,,,,,,,,,,,,0.408,,0.6,0.4,0.6,0.4,0.8,0.2,0.6,0.4,1,0,,,,,,,,,,,,
,,5d7957036797da0019537ad1,66fc9907b4165711b6f3b187,2024-10-01_18h56.57.851,mdp,2024.2.1,Win32,60.0240096,66fa4ebf79326e780c390304,,,,,,,,,,,,,,,,,,,,,748.871,748.871,748.874,751.67,0,0,left,2.274,,751.675,752.687,0,0,left,752.689,752.691,,0,,1,752.691,752.691,752.692,754.187,0,43,43,43,1,0.4,0.6,0.8,0.2,,,,,,,,,,,,,,,0.485,,0.6,0.4,0.6,0.4,0.8,0.2,0.6,0.4,1,0,,,,,,,,,,,,
,,5d7957036797da0019537ad1,66fc9907b4165711b6f3b187,2024-10-01_18h56.57.851,mdp,2024.2.1,Win32,60.0240096,66fa4ebf79326e780c390304,,,,,,,,,,,,,,,,,,,,,754.187,754.187,754.19,756.32,1,0,right,1.602,,756.321,758.787,0,1,left,758.791,758.794,,0,,0,758.794,758.794,758.796,760.286,0,44,44,44,1,0.4,0.6,0.8,0.2,,,,,,,,,,,,,,,1.935,,0.6,0.4,0.6,0.4,0.8,0.2,0.6,0.4,1,0,,,,,,,,,,,,
,,5d7957036797da0019537ad1,66fc9907b4165711b6f3b187,2024-10-01_18h56.57.851,mdp,2024.2.1,Win32,60.0240096,66fa4ebf79326e780c390304,,,,,,,,,,,,,,,,,,,,,760.287,760.287,760.288,761.369,1,1,right,0.567,,761.371,763.437,0,0,left,763.439,763.442,,0,,1,763.442,763.442,763.443,764.936,0,45,45,45,1,0.4,0.6,0.8,0.2,,,,,,,,,,,,,,,1.547,,0.6,0.4,0.6,0.4,0.8,0.2,0.6,0.4,1,0,,,,,,,,,,,,
,,5d7957036797da0019537ad1,66fc9907b4165711b6f3b187,2024-10-01_18h56.57.851,mdp,2024.2.1,Win32,60.0240096,66fa4ebf79326e780c390304,,,,,,,,,,,,,,,,,,,,,764.937,764.937,764.939,766.037,1,0,right,0.573,,766.039,767.188,1,1,right,767.191,767.193,,1,,0,767.193,767.193,767.194,768.69,0,46,46,46,1,0.4,0.6,0.8,0.2,,,,,,,,,,,,,,,0.615,,0.6,0.4,0.6,0.4,0.8,0.2,0.6,0.4,1,0,,,,,,,,,,,,
,,5d7957036797da0019537ad1,66fc9907b4165711b6f3b187,2024-10-01_18h56.57.851,mdp,2024.2.1,Win32,60.0240096,66fa4ebf79326e780c390304,,,,,,,,,,,,,,,,,,,,,768.696,768.696,768.704,769.319,0,1,left,0.1,,769.321,770.32,1,0,right,770.324,770.325,,0,,1,770.325,770.325,770.326,771.819,0,47,47,47,1,0.4,0.6,0.8,0.2,,,,,,,,,,,,,,,0.477,,0.6,0.4,0.6,0.4,0.8,0.2,0.6,0.4,1,0,,,,,,,,,,,,
,,5d7957036797da0019537ad1,66fc9907b4165711b6f3b187,2024-10-01_18h56.57.851,mdp,2024.2.1,Win32,60.0240096,66fa4ebf79326e780c390304,,,,,,,,,,,,,,,,,,,,,771.821,771.821,771.825,773.386,0,0,left,1.034,,773.393,774.553,0,0,left,774.558,774.559,,0,,1,774.56,774.56,774.561,776.052,0,48,48,48,1,0.4,0.6,0.8,0.2,,,,,,,,,,,,,,,0.618,,0.6,0.4,0.6,0.4,0.8,0.2,0.6,0.4,1,0,,,,,,,,,,,,
,,5d7957036797da0019537ad1,66fc9907b4165711b6f3b187,2024-10-01_18h56.57.851,mdp,2024.2.1,Win32,60.0240096,66fa4ebf79326e780c390304,,,,,,,,,,,,,,,,,,,,,776.054,776.054,776.059,777.389,1,0,right,0.803,,777.392,778.439,1,0,right,778.441,778.443,,0,,1,778.444,778.444,778.445,779.935,0,49,49,49,1,0.4,0.6,0.8,0.2,,,,,,,,,,,,,,,0.527,,0.2,0.8,0.8,0.2,0.8,0.2,0.6,0.4,1,0,,,,,,,,,,,,
,,5d7957036797da0019537ad1,66fc9907b4165711b6f3b187,2024-10-01_18h56.57.851,mdp,2024.2.1,Win32,60.0240096,66fa4ebf79326e780c390304,,,,,,,,,,,,,,,,,,,,,,,,,,,,,,,,,,,,,,,,,,,,,,,,,,,,,,,,779.937,844.408,0,1,1,0,1,imgs/cat.png,imgs/dog.png,imgs/kangaroo.png,imgs/goat.png,imgs/giraffe.png,,,,,,,,,,,,,,,,,,,,,,,,
,,5d7957036797da0019537ad1,66fc9907b4165711b6f3b187,2024-10-01_18h56.57.851,mdp,2024.2.1,Win32,60.0240096,66fa4ebf79326e780c390304,,,,,,,,,,,,,,3,seqs/st3seq44.csv,844.416,874.997,space,18.185,,875.006,875.006,875.008,876.629,0,1,left,1.093,,876.634,877.963,0,0,left,877.969,879.062,0,0,left,1,879.063,879.063,879.067,880.562,0,0,0,0,1,0.4,0.6,0.8,0.2,,,,,,,,,,,,,,,0.817,,0.8,0.2,0.8,0.2,0.6,0.4,0.4,0.6,,,0.556,,0.2,0.8,0.4,0.6,0.6,0.4,0.8,0.2,1,0
,,5d7957036797da0019537ad1,66fc9907b4165711b6f3b187,2024-10-01_18h56.57.851,mdp,2024.2.1,Win32,60.0240096,66fa4ebf79326e780c390304,,,,,,,,,,,,,,,,,,,,,880.568,880.568,880.572,882.213,1,0,right,1.122,,882.218,884.296,1,1,right,884.299,885.563,0,1,left,0,885.563,885.563,885.566,887.062,0,1,1,1,1,0.4,0.6,0.8,0.2,,,,,,,,,,,,,,,1.541,,0.8,0.2,0.8,0.2,0.6,0.4,0.4,0.6,,,0.749,,0.2,0.8,0.4,0.6,0.6,0.4,0.8,0.2,1,0
,,5d7957036797da0019537ad1,66fc9907b4165711b6f3b187,2024-10-01_18h56.57.851,mdp,2024.2.1,Win32,60.0240096,66fa4ebf79326e780c390304,,,,,,,,,,,,,,,,,,,,,887.066,887.066,887.068,888.346,1,0,right,0.753,,888.349,889.713,1,0,right,889.718,890.746,1,1,right,0,890.747,890.747,890.75,892.246,0,2,2,2,1,0.4,0.6,0.8,0.2,,,,,,,,,,,,,,,0.854,,0.8,0.2,0.8,0.2,0.6,0.4,0.4,0.6,,,0.49,,0.2,0.8,0.4,0.6,0.6,0.4,0.8,0.2,1,0
,,5d7957036797da0019537ad1,66fc9907b4165711b6f3b187,2024-10-01_18h56.57.851,mdp,2024.2.1,Win32,60.0240096,66fa4ebf79326e780c390304,,,,,,,,,,,,,,,,,,,,,892.248,892.248,892.25,893.578,1,0,right,0.801,,893.582,894.799,1,0,right,894.801,895.711,1,0,right,1,895.711,895.711,895.714,897.211,0,3,3,3,1,0.4,0.6,0.8,0.2,,,,,,,,,,,,,,,0.699,,0.8,0.2,0.8,0.2,0.6,0.4,0.4,0.6,,,0.384,,0.2,0.8,0.4,0.6,0.6,0.4,0.8,0.2,1,0
,,5d7957036797da0019537ad1,66fc9907b4165711b6f3b187,2024-10-01_18h56.57.851,mdp,2024.2.1,Win32,60.0240096,66fa4ebf79326e780c390304,,,,,,,,,,,,,,,,,,,,,897.213,897.213,897.218,898.878,0,1,left,1.129,,898.881,899.895,1,1,right,899.899,901.547,0,1,left,0,901.549,901.549,901.552,903.045,0,4,4,4,1,0.4,0.6,0.8,0.2,,,,,,,,,,,,,,,0.483,,0.8,0.2,0.8,0.2,0.6,0.4,0.4,0.6,,,1.104,,0.2,0.8,0.4,0.6,0.6,0.4,0.8,0.2,1,0
,,5d7957036797da0019537ad1,66fc9907b4165711b6f3b187,2024-10-01_18h56.57.851,mdp,2024.2.1,Win32,60.0240096,66fa4ebf79326e780c390304,,,,,,,,,,,,,,,,,,,,,903.049,903.049,903.052,906.545,1,0,right,2.969,,906.551,907.545,1,0,right,907.549,908.628,1,0,right,1,908.629,908.629,908.632,910.128,0,5,5,5,1,0.4,0.6,0.8,0.2,,,,,,,,,,,,,,,0.457,,0.8,0.2,0.8,0.2,0.6,0.4,0.4,0.6,,,0.544,,0.2,0.8,0.4,0.6,0.6,0.4,0.8,0.2,1,0
,,5d7957036797da0019537ad1,66fc9907b4165711b6f3b187,2024-10-01_18h56.57.851,mdp,2024.2.1,Win32,60.0240096,66fa4ebf79326e780c390304,,,,,,,,,,,,,,,,,,,,,910.131,910.131,910.134,912.544,0,1,left,1.882,,912.549,914.011,0,0,left,914.015,915.494,0,1,left,0,915.494,915.494,915.497,916.994,0,6,6,6,1,0.4,0.6,0.8,0.2,,,,,,,,,,,,,,,0.941,,0.6,0.4,0.2,0.8,0.6,0.4,0.4,0.6,,,0.967,,0.2,0.8,0.4,0.6,0.6,0.4,0.8,0.2,1,0
,,5d7957036797da0019537ad1,66fc9907b4165711b6f3b187,2024-10-01_18h56.57.851,mdp,2024.2.1,Win32,60.0240096,66fa4ebf79326e780c390304,,,,,,,,,,,,,,,,,,,,,916.997,916.997,917,920.529,0,1,left,2.999,,920.537,921.594,0,0,left,921.599,923.344,0,1,left,0,923.345,923.345,923.351,924.843,0,7,7,7,1,0.4,0.6,0.8,0.2,,,,,,,,,,,,,,,0.535,,0.6,0.4,0.2,0.8,0.6,0.4,0.4,0.6,,,1.221,,0.2,0.8,0.4,0.6,0.6,0.4,0.8,0.2,1,0
,,5d7957036797da0019537ad1,66fc9907b4165711b6f3b187,2024-10-01_18h56.57.851,mdp,2024.2.1,Win32,60.0240096,66fa4ebf79326e780c390304,,,,,,,,,,,,,,,,,,,,,924.849,924.849,924.853,925.81,0,1,left,0.438,,925.812,926.91,0,1,left,926.914,927.927,0,1,left,0,927.928,927.928,927.931,929.427,0,8,8,8,1,0.4,0.6,0.8,0.2,,,,,,,,,,,,,,,0.565,,0.6,0.4,0.2,0.8,0.2,0.8,0.6,0.4,,,0.503,,0.2,0.8,0.4,0.6,0.6,0.4,0.8,0.2,1,0
,,5d7957036797da0019537ad1,66fc9907b4165711b6f3b187,2024-10-01_18h56.57.851,mdp,2024.2.1,Win32,60.0240096,66fa4ebf79326e780c390304,,,,,,,,,,,,,,,,,,,,,929.429,929.429,929.433,930.676,1,0,right,0.716,,930.678,931.843,1,1,right,931.845,932.926,1,0,right,1,932.926,932.926,932.929,934.427,0,9,9,9,1,0.4,0.6,0.8,0.2,,,,,,,,,,,,,,,0.645,,0.6,0.4,0.2,0.8,0.2,0.8,0.6,0.4,,,0.555,,0.2,0.8,0.4,0.6,0.6,0.4,0.8,0.2,1,0
,,5d7957036797da0019537ad1,66fc9907b4165711b6f3b187,2024-10-01_18h56.57.851,mdp,2024.2.1,Win32,60.0240096,66fa4ebf79326e780c390304,,,,,,,,,,,,,,,,,,,,,934.429,934.429,934.432,935.426,1,0,right,0.465,,935.429,936.41,1,1,right,936.413,937.243,1,0,right,1,937.244,937.244,937.249,938.742,0,10,10,10,1,0.4,0.6,0.8,0.2,,,,,,,,,,,,,,,0.47,,0.6,0.4,0.2,0.8,0.2,0.8,0.6,0.4,,,0.32,,0.2,0.8,0.4,0.6,0.6,0.4,0.8,0.2,1,0
,,5d7957036797da0019537ad1,66fc9907b4165711b6f3b187,2024-10-01_18h56.57.851,mdp,2024.2.1,Win32,60.0240096,66fa4ebf79326e780c390304,,,,,,,,,,,,,,,,,,,,,938.744,938.745,938.747,939.809,1,0,right,0.537,,939.811,940.843,1,1,right,940.844,942.009,1,0,right,1,942.01,942.01,942.013,943.51,0,11,11,11,1,0.4,0.6,0.8,0.2,,,,,,,,,,,,,,,0.518,,0.6,0.4,0.2,0.8,0.2,0.8,0.6,0.4,,,0.636,,0.2,0.8,0.4,0.6,0.6,0.4,0.8,0.2,1,0
,,5d7957036797da0019537ad1,66fc9907b4165711b6f3b187,2024-10-01_18h56.57.851,mdp,2024.2.1,Win32,60.0240096,66fa4ebf79326e780c390304,,,,,,,,,,,,,,,,,,,,,943.511,943.511,943.513,948.092,0,1,left,4.052,,948.096,949.225,1,0,right,949.233,950.199,0,1,left,0,950.199,950.2,950.213,951.692,0,12,12,12,1,0.4,0.6,0.8,0.2,,,,,,,,,,,,,,,0.608,,0.6,0.4,0.2,0.8,0.2,0.8,0.6,0.4,,,0.446,,0.2,0.8,0.4,0.6,0.6,0.4,0.8,0.2,1,0
,,5d7957036797da0019537ad1,66fc9907b4165711b6f3b187,2024-10-01_18h56.57.851,mdp,2024.2.1,Win32,60.0240096,66fa4ebf79326e780c390304,,,,,,,,,,,,,,,,,,,,,951.695,951.695,951.698,952.792,0,0,left,0.572,,952.798,953.992,1,1,right,953.994,955.225,0,0,left,1,955.227,955.227,955.231,956.725,0,13,13,13,1,0.4,0.6,0.8,0.2,,,,,,,,,,,,,,,0.667,,0.6,0.4,0.2,0.8,0.2,0.8,0.6,0.4,,,0.695,,0.2,0.8,0.4,0.6,0.6,0.4,0.8,0.2,1,0
,,5d7957036797da0019537ad1,66fc9907b4165711b6f3b187,2024-10-01_18h56.57.851,mdp,2024.2.1,Win32,60.0240096,66fa4ebf79326e780c390304,,,,,,,,,,,,,,,,,,,,,956.728,956.728,956.732,958.276,0,1,left,1.016,,958.279,959.742,1,1,right,959.748,961.058,0,1,left,0,961.058,961.058,961.06,962.558,0,14,14,14,1,0.4,0.6,0.8,0.2,,,,,,,,,,,,,,,0.92,,0.6,0.4,0.2,0.8,0.2,0.8,0.6,0.4,,,0.791,,0.2,0.8,0.4,0.6,0.6,0.4,0.8,0.2,1,0
,,5d7957036797da0019537ad1,66fc9907b4165711b6f3b187,2024-10-01_18h56.57.851,mdp,2024.2.1,Win32,60.0240096,66fa4ebf79326e780c390304,,,,,,,,,,,,,,,,,,,,,962.558,962.559,962.56,964.125,0,1,left,1.032,,964.131,965.242,1,1,right,965.246,967.758,0,0,left,1,967.758,967.758,967.761,969.258,0,15,15,15,1,0.4,0.6,0.8,0.2,,,,,,,,,,,,,,,0.59,,0.6,0.4,0.2,0.8,0.2,0.8,0.6,0.4,,,1.986,,0.2,0.8,0.4,0.6,0.8,0.2,0.2,0.8,1,0
,,5d7957036797da0019537ad1,66fc9907b4165711b6f3b187,2024-10-01_18h56.57.851,mdp,2024.2.1,Win32,60.0240096,66fa4ebf79326e780c390304,,,,,,,,,,,,,,,,,,,,,969.258,969.258,969.26,973.308,1,0,right,3.521,,973.311,977.64,0,0,left,977.643,979.774,1,1,right,0,979.774,979.774,979.779,981.274,0,16,16,16,1,0.4,0.6,0.8,0.2,,,,,,,,,,,,,,,3.799,,0.6,0.4,0.2,0.8,0.2,0.8,0.6,0.4,,,1.603,,0.2,0.8,0.4,0.6,0.8,0.2,0.2,0.8,1,0
,,5d7957036797da0019537ad1,66fc9907b4165711b6f3b187,2024-10-01_18h56.57.851,mdp,2024.2.1,Win32,60.0240096,66fa4ebf79326e780c390304,,,,,,,,,,,,,,,,,,,,,981.281,981.281,981.286,982.058,1,0,right,0.253,,982.066,985.607,1,1,right,985.609,990.391,1,0,right,1,990.391,990.391,990.397,991.89,0,17,17,17,1,0.4,0.6,0.8,0.2,,,,,,,,,,,,,,,3.017,,0.6,0.4,0.2,0.8,0.2,0.8,0.6,0.4,,,4.246,,0.2,0.8,0.4,0.6,0.8,0.2,0.2,0.8,1,0
,,5d7957036797da0019537ad1,66fc9907b4165711b6f3b187,2024-10-01_18h56.57.851,mdp,2024.2.1,Win32,60.0240096,66fa4ebf79326e780c390304,,,,,,,,,,,,,,,,,,,,,991.894,991.894,991.896,992.89,1,0,right,0.472,,992.894,994.073,1,1,right,994.077,995.857,1,1,right,0,995.857,995.857,995.86,997.357,0,18,18,18,1,0.4,0.6,0.8,0.2,,,,,,,,,,,,,,,0.658,,0.6,0.4,0.2,0.8,0.2,0.8,0.6,0.4,,,1.269,,0.2,0.8,0.4,0.6,0.8,0.2,0.2,0.8,1,0
,,5d7957036797da0019537ad1,66fc9907b4165711b6f3b187,2024-10-01_18h56.57.851,mdp,2024.2.1,Win32,60.0240096,66fa4ebf79326e780c390304,,,,,,,,,,,,,,,,,,,,,997.36,997.36,997.364,998.306,0,1,left,0.42,,998.308,999.689,0,1,left,999.695,1000.839,0,0,left,1,1000.84,1000.84,1000.844,1002.34,0,19,19,19,1,0.4,0.6,0.8,0.2,,,,,,,,,,,,,,,0.851,,0.6,0.4,0.2,0.8,0.2,0.8,0.6,0.4,,,0.638,,0.2,0.8,0.4,0.6,0.8,0.2,0.2,0.8,1,0
,,5d7957036797da0019537ad1,66fc9907b4165711b6f3b187,2024-10-01_18h56.57.851,mdp,2024.2.1,Win32,60.0240096,66fa4ebf79326e780c390304,,,,,,,,,,,,,,,,,,,,,1002.341,1002.341,1002.346,1003.206,0,0,left,0.331,,1003.209,1004.272,0,0,left,1004.276,1005.339,0,1,left,0,1005.339,1005.339,1005.342,1006.838,0,20,20,20,1,0.4,0.6,0.8,0.2,,,,,,,,,,,,,,,0.54,,0.6,0.4,0.2,0.8,0.2,0.8,0.6,0.4,,,0.543,,0.2,0.8,0.4,0.6,0.8,0.2,0.2,0.8,1,0
,,5d7957036797da0019537ad1,66fc9907b4165711b6f3b187,2024-10-01_18h56.57.851,mdp,2024.2.1,Win32,60.0240096,66fa4ebf79326e780c390304,,,,,,,,,,,,,,,,,,,,,1006.838,1006.838,1006.84,1007.821,1,0,right,0.452,,1007.823,1008.959,0,0,left,1008.962,1010.205,1,0,right,1,1010.205,1010.205,1010.207,1011.705,0,21,21,21,1,0.4,0.6,0.8,0.2,,,,,,,,,,,,,,,0.624,,0.6,0.4,0.2,0.8,0.2,0.8,0.6,0.4,,,0.719,,0.2,0.8,0.4,0.6,0.8,0.2,0.2,0.8,1,0
,,5d7957036797da0019537ad1,66fc9907b4165711b6f3b187,2024-10-01_18h56.57.851,mdp,2024.2.1,Win32,60.0240096,66fa4ebf79326e780c390304,,,,,,,,,,,,,,,,,,,,,1011.708,1011.708,1011.712,1013.341,0,0,left,1.102,,1013.351,1014.256,1,1,right,1014.26,1015.189,0,0,left,1,1015.189,1015.189,1015.193,1016.688,0,22,22,22,1,0.4,0.6,0.8,0.2,,,,,,,,,,,,,,,0.383,,0.6,0.4,0.2,0.8,0.2,0.8,0.6,0.4,,,0.386,,0.2,0.8,0.4,0.6,0.8,0.2,0.2,0.8,1,0
,,5d7957036797da0019537ad1,66fc9907b4165711b6f3b187,2024-10-01_18h56.57.851,mdp,2024.2.1,Win32,60.0240096,66fa4ebf79326e780c390304,,,,,,,,,,,,,,,,,,,,,1016.69,1016.69,1016.691,1018.055,1,0,right,0.832,,1018.059,1019.021,0,1,left,1019.024,1019.905,1,1,right,0,1019.907,1019.907,1019.911,1021.405,0,23,23,23,1,0.4,0.6,0.8,0.2,,,,,,,,,,,,,,,0.438,,0.6,0.4,0.2,0.8,0.2,0.8,0.6,0.4,,,0.366,,0.2,0.8,0.4,0.6,0.8,0.2,0.2,0.8,1,0
,,5d7957036797da0019537ad1,66fc9907b4165711b6f3b187,2024-10-01_18h56.57.851,mdp,2024.2.1,Win32,60.0240096,66fa4ebf79326e780c390304,,,,,,,,,,,,,,,,,,,,,1021.407,1021.407,1021.411,1032.255,1,0,right,10.319,,1032.26,1033.271,0,0,left,1033.275,1034.171,0,1,left,0,1034.171,1034.171,1034.175,1035.67,0,24,24,24,1,0.4,0.6,0.8,0.2,,,,,,,,,,,,,,,0.483,,0.6,0.4,0.2,0.8,0.2,0.8,0.6,0.4,,,0.36,,0.2,0.8,0.4,0.6,0.8,0.2,0.2,0.8,1,0
,,5d7957036797da0019537ad1,66fc9907b4165711b6f3b187,2024-10-01_18h56.57.851,mdp,2024.2.1,Win32,60.0240096,66fa4ebf79326e780c390304,,,,,,,,,,,,,,,,,,,,,1035.671,1035.671,1035.675,1036.287,1,1,right,0.086,,1036.291,1037.221,0,1,left,1037.223,1038.171,0,0,left,1,1038.171,1038.171,1038.174,1039.671,0,25,25,25,1,0.4,0.6,0.8,0.2,,,,,,,,,,,,,,,0.393,,0.6,0.4,0.2,0.8,0.2,0.8,0.6,0.4,,,0.421,,0.2,0.8,0.4,0.6,0.8,0.2,0.2,0.8,1,0
,,5d7957036797da0019537ad1,66fc9907b4165711b6f3b187,2024-10-01_18h56.57.851,mdp,2024.2.1,Win32,60.0240096,66fa4ebf79326e780c390304,,,,,,,,,,,,,,,,,,,,,1039.672,1039.672,1039.675,1040.587,1,0,right,0.385,,1040.59,1041.554,0,0,left,1041.559,1042.654,0,1,left,0,1042.654,1042.654,1042.658,1044.153,0,26,26,26,1,0.4,0.6,0.8,0.2,,,,,,,,,,,,,,,0.444,,0.4,0.6,0.4,0.6,0.2,0.8,0.6,0.4,,,0.564,,0.2,0.8,0.4,0.6,0.8,0.2,0.2,0.8,1,0
,,5d7957036797da0019537ad1,66fc9907b4165711b6f3b187,2024-10-01_18h56.57.851,mdp,2024.2.1,Win32,60.0240096,66fa4ebf79326e780c390304,,,,,,,,,,,,,,,,,,,,,1044.155,1044.155,1044.157,1044.806,1,0,right,0.126,,1044.812,1045.871,0,1,left,1045.874,1047.086,0,0,left,1,1047.087,1047.087,1047.089,1048.587,0,27,27,27,1,0.4,0.6,0.8,0.2,,,,,,,,,,,,,,,0.536,,0.6,0.4,0.8,0.2,0.2,0.8,0.6,0.4,,,0.676,,0.2,0.8,0.4,0.6,0.8,0.2,0.2,0.8,1,0
,,5d7957036797da0019537ad1,66fc9907b4165711b6f3b187,2024-10-01_18h56.57.851,mdp,2024.2.1,Win32,60.0240096,66fa4ebf79326e780c390304,,,,,,,,,,,,,,,,,,,,,1048.591,1048.591,1048.593,1049.92,1,0,right,0.803,,1049.923,1051.769,0,0,left,1051.771,1052.886,0,0,left,1,1052.887,1052.887,1052.89,1054.387,0,28,28,28,1,0.4,0.6,0.8,0.2,,,,,,,,,,,,,,,1.334,,0.6,0.4,0.8,0.2,0.2,0.8,0.6,0.4,,,0.587,,0.2,0.8,0.4,0.6,0.8,0.2,0.2,0.8,1,0
,,5d7957036797da0019537ad1,66fc9907b4165711b6f3b187,2024-10-01_18h56.57.851,mdp,2024.2.1,Win32,60.0240096,66fa4ebf79326e780c390304,,,,,,,,,,,,,,,,,,,,,1054.389,1054.389,1054.392,1055.902,1,1,right,0.986,,1055.905,1056.952,0,0,left,1056.955,1058.919,0,1,left,0,1058.919,1058.919,1058.922,1060.419,0,29,29,29,1,0.2,0.8,0.2,0.8,,,,,,,,,,,,,,,0.525,,0.6,0.4,0.8,0.2,0.2,0.8,0.6,0.4,,,1.45,,0.2,0.8,0.4,0.6,0.8,0.2,0.2,0.8,1,0
,,5d7957036797da0019537ad1,66fc9907b4165711b6f3b187,2024-10-01_18h56.57.851,mdp,2024.2.1,Win32,60.0240096,66fa4ebf79326e780c390304,,,,,,,,,,,,,,,,,,,,,1060.42,1060.42,1060.422,1060.952,1,1,right,0.001,,1060.953,1062.503,0,1,left,1062.509,1063.436,0,0,left,1,1063.437,1063.437,1063.441,1064.936,0,30,30,30,1,0.2,0.8,0.2,0.8,,,,,,,,,,,,,,,1.038,,0.6,0.4,0.8,0.2,0.2,0.8,0.6,0.4,,,0.389,,0.2,0.8,0.4,0.6,0.8,0.2,0.2,0.8,1,0
,,5d7957036797da0019537ad1,66fc9907b4165711b6f3b187,2024-10-01_18h56.57.851,mdp,2024.2.1,Win32,60.0240096,66fa4ebf79326e780c390304,,,,,,,,,,,,,,,,,,,,,1064.938,1064.938,1064.941,1067.401,0,0,left,1.938,,1067.403,1068.452,1,0,right,1068.457,1069.752,1,0,right,1,1069.752,1069.752,1069.754,1071.252,0,31,31,31,1,0.2,0.8,0.2,0.8,,,,,,,,,,,,,,,0.521,,0.6,0.4,0.8,0.2,0.2,0.8,0.6,0.4,,,0.758,,0.2,0.8,0.4,0.6,0.2,0.8,0.8,0.2,1,0
,,5d7957036797da0019537ad1,66fc9907b4165711b6f3b187,2024-10-01_18h56.57.851,mdp,2024.2.1,Win32,60.0240096,66fa4ebf79326e780c390304,,,,,,,,,,,,,,,,,,,,,1071.253,1071.253,1071.258,1072.518,0,1,left,0.737,,1072.52,1073.884,1,0,right,1073.886,1074.851,1,0,right,1,1074.851,1074.852,1074.853,1076.355,0,32,32,32,1,0.2,0.8,0.2,0.8,,,,,,,,,,,,,,,0.848,,0.6,0.4,0.8,0.2,0.2,0.8,0.6,0.4,,,0.457,,0.2,0.8,0.4,0.6,0.2,0.8,0.8,0.2,1,0
,,5d7957036797da0019537ad1,66fc9907b4165711b6f3b187,2024-10-01_18h56.57.851,mdp,2024.2.1,Win32,60.0240096,66fa4ebf79326e780c390304,,,,,,,,,,,,,,,,,,,,,1076.363,1076.363,1076.37,1077.239,0,1,left,0.362,,1077.242,1079.167,1,1,right,1079.17,1080.818,1,0,right,1,1080.818,1080.818,1080.823,1082.318,0,33,33,33,1,0.2,0.8,0.2,0.8,,,,,,,,,,,,,,,1.403,,0.6,0.4,0.8,0.2,0.2,0.8,0.6,0.4,,,1.115,,0.2,0.8,0.4,0.6,0.2,0.8,0.8,0.2,1,0
,,5d7957036797da0019537ad1,66fc9907b4165711b6f3b187,2024-10-01_18h56.57.851,mdp,2024.2.1,Win32,60.0240096,66fa4ebf79326e780c390304,,,,,,,,,,,,,,,,,,,,,1082.319,1082.319,1082.323,1083.285,0,1,left,0.436,,1083.291,1084.584,1,0,right,1084.586,1085.767,1,0,right,1,1085.767,1085.767,1085.768,1087.267,0,34,34,34,1,0.2,0.8,0.2,0.8,,,,,,,,,,,,,,,0.765,,0.6,0.4,0.8,0.2,0.2,0.8,0.6,0.4,,,0.657,,0.2,0.8,0.4,0.6,0.2,0.8,0.8,0.2,1,0
,,5d7957036797da0019537ad1,66fc9907b4165711b6f3b187,2024-10-01_18h56.57.851,mdp,2024.2.1,Win32,60.0240096,66fa4ebf79326e780c390304,,,,,,,,,,,,,,,,,,,,,1087.268,1087.268,1087.27,1088.101,0,0,left,0.304,,1088.106,1089.45,1,0,right,1089.452,1090.617,1,1,right,0,1090.617,1090.617,1090.619,1092.117,0,35,35,35,1,0.2,0.8,0.2,0.8,,,,,,,,,,,,,,,0.806,,0.6,0.4,0.8,0.2,0.2,0.8,0.6,0.4,,,0.651,,0.2,0.8,0.4,0.6,0.8,0.2,0.6,0.4,1,0
,,5d7957036797da0019537ad1,66fc9907b4165711b6f3b187,2024-10-01_18h56.57.851,mdp,2024.2.1,Win32,60.0240096,66fa4ebf79326e780c390304,,,,,,,,,,,,,,,,,,,,,1092.118,1092.118,1092.121,1092.717,0,1,left,0.066,,1092.72,1093.667,1,1,right,1093.669,1094.718,1,1,right,0,1094.718,1094.718,1094.722,1096.217,0,36,36,36,1,0.2,0.8,0.2,0.8,,,,,,,,,,,,,,,0.432,,0.6,0.4,0.8,0.2,0.2,0.8,0.6,0.4,,,0.498,,0.2,0.8,0.4,0.6,0.8,0.2,0.6,0.4,1,0
,,5d7957036797da0019537ad1,66fc9907b4165711b6f3b187,2024-10-01_18h56.57.851,mdp,2024.2.1,Win32,60.0240096,66fa4ebf79326e780c390304,,,,,,,,,,,,,,,,,,,,,1096.219,1096.219,1096.222,1097.367,1,1,right,0.62,,1097.369,1098.967,1,1,right,1098.968,1100.117,0,0,left,1,1100.118,1100.118,1100.12,1101.616,0,37,37,37,1,0.2,0.8,0.2,0.8,,,,,,,,,,,,,,,1.073,,0.6,0.4,0.8,0.2,0.2,0.8,0.6,0.4,,,0.635,,0.2,0.8,0.4,0.6,0.8,0.2,0.6,0.4,1,0
,,5d7957036797da0019537ad1,66fc9907b4165711b6f3b187,2024-10-01_18h56.57.851,mdp,2024.2.1,Win32,60.0240096,66fa4ebf79326e780c390304,,,,,,,,,,,,,,,,,,,,,1101.619,1101.619,1101.622,1102.983,1,0,right,0.838,,1102.986,1104.417,0,0,left,1104.421,1105.4,1,1,right,0,1105.4,1105.4,1105.403,1106.899,0,38,38,38,1,0.2,0.8,0.2,0.8,,,,,,,,,,,,,,,0.907,,0.6,0.4,0.8,0.2,0.2,0.8,0.6,0.4,,,0.451,,0.2,0.8,0.4,0.6,0.2,0.8,0.8,0.2,1,0
,,5d7957036797da0019537ad1,66fc9907b4165711b6f3b187,2024-10-01_18h56.57.851,mdp,2024.2.1,Win32,60.0240096,66fa4ebf79326e780c390304,,,,,,,,,,,,,,,,,,,,,1106.9,1106.9,1106.903,1108.572,0,1,left,1.137,,1108.586,1109.833,1,1,right,1109.841,1111.082,1,0,right,1,1111.082,1111.082,1111.085,1112.583,0,39,39,39,1,0.2,0.8,0.2,0.8,,,,,,,,,,,,,,,0.726,,0.8,0.2,0.6,0.4,0.2,0.8,0.6,0.4,,,0.72,,0.2,0.8,0.4,0.6,0.2,0.8,0.8,0.2,1,0
,,5d7957036797da0019537ad1,66fc9907b4165711b6f3b187,2024-10-01_18h56.57.851,mdp,2024.2.1,Win32,60.0240096,66fa4ebf79326e780c390304,,,,,,,,,,,,,,,,,,,,,1112.59,1112.59,1112.592,1113.15,0,0,left,0.034,,1113.153,1114.233,1,0,right,1114.238,1115.665,1,0,right,1,1115.666,1115.667,1115.668,1117.165,0,40,40,40,1,0.2,0.8,0.2,0.8,,,,,,,,,,,,,,,0.542,,0.8,0.2,0.6,0.4,0.2,0.8,0.6,0.4,,,0.89,,0.2,0.8,0.4,0.6,0.2,0.8,0.8,0.2,1,0
,,5d7957036797da0019537ad1,66fc9907b4165711b6f3b187,2024-10-01_18h56.57.851,mdp,2024.2.1,Win32,60.0240096,66fa4ebf79326e780c390304,,,,,,,,,,,,,,,,,,,,,1117.167,1117.167,1117.171,1118.899,0,1,left,1.198,,1118.9,1120.081,1,0,right,1120.084,1121.249,1,0,right,1,1121.249,1121.249,1121.252,1122.749,0,41,41,41,1,0.2,0.8,0.2,0.8,,,,,,,,,,,,,,,0.643,,0.8,0.2,0.6,0.4,0.2,0.8,0.6,0.4,,,0.649,,0.2,0.8,0.4,0.6,0.2,0.8,0.8,0.2,1,0
,,5d7957036797da0019537ad1,66fc9907b4165711b6f3b187,2024-10-01_18h56.57.851,mdp,2024.2.1,Win32,60.0240096,66fa4ebf79326e780c390304,,,,,,,,,,,,,,,,,,,,,1122.75,1122.75,1122.752,1123.598,0,1,left,0.334,,1123.6,1124.614,1,0,right,1124.616,1125.47,1,1,right,0,1125.47,1125.47,1125.474,1126.966,0,42,42,42,1,0.2,0.8,0.2,0.8,,,,,,,,,,,,,,,0.487,,0.8,0.2,0.6,0.4,0.2,0.8,0.6,0.4,,,0.343,,0.2,0.8,0.4,0.6,0.2,0.8,0.8,0.2,1,0
,,5d7957036797da0019537ad1,66fc9907b4165711b6f3b187,2024-10-01_18h56.57.851,mdp,2024.2.1,Win32,60.0240096,66fa4ebf79326e780c390304,,,,,,,,,,,,,,,,,,,,,1126.968,1126.968,1126.971,1127.949,1,1,right,0.459,,1127.952,1128.882,1,1,right,1128.885,1129.765,1,0,right,1,1129.765,1129.765,1129.77,1131.265,0,43,43,43,1,0.2,0.8,0.2,0.8,,,,,,,,,,,,,,,0.407,,0.8,0.2,0.6,0.4,0.6,0.4,0.2,0.8,,,0.35,,0.2,0.8,0.4,0.6,0.2,0.8,0.8,0.2,1,0
,,5d7957036797da0019537ad1,66fc9907b4165711b6f3b187,2024-10-01_18h56.57.851,mdp,2024.2.1,Win32,60.0240096,66fa4ebf79326e780c390304,,,,,,,,,,,,,,,,,,,,,1131.267,1131.267,1131.271,1132.215,0,1,left,0.417,,1132.216,1133.298,0,0,left,1133.3,1134.432,0,1,left,0,1134.432,1134.433,1134.439,1135.931,0,44,44,44,1,0.2,0.8,0.2,0.8,,,,,,,,,,,,,,,0.568,,0.8,0.2,0.6,0.4,0.6,0.4,0.2,0.8,,,0.609,,0.2,0.8,0.4,0.6,0.2,0.8,0.8,0.2,1,0
,,5d7957036797da0019537ad1,66fc9907b4165711b6f3b187,2024-10-01_18h56.57.851,mdp,2024.2.1,Win32,60.0240096,66fa4ebf79326e780c390304,,,,,,,,,,,,,,,,,,,,,1135.932,1135.932,1135.935,1136.698,0,1,left,0.236,,1136.699,1137.697,0,0,left,1137.701,1138.732,0,1,left,0,1138.733,1138.733,1138.74,1140.231,0,45,45,45,1,0.2,0.8,0.2,0.8,,,,,,,,,,,,,,,0.483,,0.8,0.2,0.6,0.4,0.6,0.4,0.2,0.8,,,0.504,,0.2,0.8,0.4,0.6,0.2,0.8,0.8,0.2,1,0
,,5d7957036797da0019537ad1,66fc9907b4165711b6f3b187,2024-10-01_18h56.57.851,mdp,2024.2.1,Win32,60.0240096,66fa4ebf79326e780c390304,,,,,,,,,,,,,,,,,,,,,1140.236,1140.236,1140.24,1142.265,0,0,left,1.501,,1142.269,1143.197,0,0,left,1143.199,1144.031,0,1,left,0,1144.032,1144.032,1144.035,1145.538,0,46,46,46,1,0.2,0.8,0.2,0.8,,,,,,,,,,,,,,,0.39,,0.8,0.2,0.6,0.4,0.6,0.4,0.2,0.8,,,0.322,,0.2,0.8,0.4,0.6,0.2,0.8,0.8,0.2,1,0
,,5d7957036797da0019537ad1,66fc9907b4165711b6f3b187,2024-10-01_18h56.57.851,mdp,2024.2.1,Win32,60.0240096,66fa4ebf79326e780c390304,,,,,,,,,,,,,,,,,,,,,1145.539,1145.539,1145.542,1146.065,0,1,left,0.002,,1146.069,1146.947,0,0,left,1146.951,1147.816,0,1,left,0,1147.816,1147.816,1147.819,1149.316,0,47,47,47,1,0.2,0.8,0.2,0.8,,,,,,,,,,,,,,,0.342,,0.8,0.2,0.6,0.4,0.6,0.4,0.2,0.8,,,0.338,,0.2,0.8,0.4,0.6,0.2,0.8,0.8,0.2,1,0
,,5d7957036797da0019537ad1,66fc9907b4165711b6f3b187,2024-10-01_18h56.57.851,mdp,2024.2.1,Win32,60.0240096,66fa4ebf79326e780c390304,,,,,,,,,,,,,,,,,,,,,1149.318,1149.318,1149.322,1150.968,0,1,left,1.125,,1150.971,1152.064,0,0,left,1152.068,1153.313,0,1,left,0,1153.314,1153.314,1153.318,1154.814,0,48,48,48,1,0.2,0.8,0.2,0.8,,,,,,,,,,,,,,,0.568,,0.8,0.2,0.6,0.4,0.6,0.4,0.2,0.8,,,0.72,,0.2,0.8,0.4,0.6,0.2,0.8,0.8,0.2,1,0
,,5d7957036797da0019537ad1,66fc9907b4165711b6f3b187,2024-10-01_18h56.57.851,mdp,2024.2.1,Win32,60.0240096,66fa4ebf79326e780c390304,,,,,,,,,,,,,,,,,,,,,1154.816,1154.816,1154.82,1155.997,1,1,right,0.653,,1156.001,1157.079,1,1,right,1157.082,1158.046,1,0,right,1,1158.046,1158.046,1158.047,1159.547,0,49,49,49,1,0.2,0.8,0.2,0.8,,,,,,,,,,,,,,,0.568,,0.8,0.2,0.6,0.4,0.6,0.4,0.2,0.8,,,0.438,,0.2,0.8,0.4,0.6,0.2,0.8,0.8,0.2,1,0
,,5d7957036797da0019537ad1,66fc9907b4165711b6f3b187,2024-10-01_18h56.57.851,mdp,2024.2.1,Win32,60.0240096,66fa4ebf79326e780c390304,,,,,,,,,,,,,,,,,,,,,,,,,,,,,,,,,,,,,,,,,,,,,,,,,,,,,,,,1159.547,1218.882,0,2,2,8,1,imgs/pig.png,imgs/bear.png,imgs/dog.png,imgs/kangaroo.png,imgs/elephant.png,,,,,,,,,,,,,,,,,,,,,,,,
,,5d7957036797da0019537ad1,66fc9907b4165711b6f3b187,2024-10-01_18h56.57.851,mdp,2024.2.1,Win32,60.0240096,66fa4ebf79326e780c390304,,,,,,,,,,,,,,3,seqs/st3seq10.csv,1218.886,1221.735,space,1.95,,1221.748,1221.748,1221.752,1222.961,1,0,right,0.672,,1222.964,1224.552,1,1,right,1224.554,1225.428,1,1,right,0,1225.428,1225.428,1225.431,1226.93,0,0,0,0,1,0.8,0.2,0.4,0.6,,,,,,,,,,,,,,,1.047,,0.8,0.2,0.2,0.8,0.4,0.6,0.4,0.6,,,0.342,,0.6,0.4,0.2,0.8,0.4,0.6,0.8,0.2,1,0
,,5d7957036797da0019537ad1,66fc9907b4165711b6f3b187,2024-10-01_18h56.57.851,mdp,2024.2.1,Win32,60.0240096,66fa4ebf79326e780c390304,,,,,,,,,,,,,,,,,,,,,1226.933,1226.934,1226.937,1228.181,1,0,right,0.725,,1228.182,1229.246,1,1,right,1229.248,1230.327,1,0,right,1,1230.327,1230.327,1230.329,1231.829,0,1,1,1,1,0.8,0.2,0.4,0.6,,,,,,,,,,,,,,,0.539,,0.8,0.2,0.2,0.8,0.4,0.6,0.4,0.6,,,0.548,,0.6,0.4,0.2,0.8,0.4,0.6,0.8,0.2,1,0
,,5d7957036797da0019537ad1,66fc9907b4165711b6f3b187,2024-10-01_18h56.57.851,mdp,2024.2.1,Win32,60.0240096,66fa4ebf79326e780c390304,,,,,,,,,,,,,,,,,,,,,1231.831,1231.831,1231.832,1232.813,1,1,right,0.457,,1232.816,1234.193,1,1,right,1234.201,1235.279,1,1,right,0,1235.279,1235.279,1235.281,1236.779,0,2,2,2,1,0.8,0.2,0.4,0.6,,,,,,,,,,,,,,,0.84,,0.8,0.2,0.2,0.8,0.4,0.6,0.4,0.6,,,0.554,,0.6,0.4,0.2,0.8,0.4,0.6,0.8,0.2,1,0
,,5d7957036797da0019537ad1,66fc9907b4165711b6f3b187,2024-10-01_18h56.57.851,mdp,2024.2.1,Win32,60.0240096,66fa4ebf79326e780c390304,,,,,,,,,,,,,,,,,,,,,1236.781,1236.781,1236.782,1238.328,1,1,right,1.017,,1238.328,1239.176,1,1,right,1239.179,1239.943,1,0,right,1,1239.946,1239.946,1239.948,1241.448,0,3,3,3,1,0.8,0.2,0.4,0.6,,,,,,,,,,,,,,,0.317,,0.8,0.2,0.2,0.8,0.4,0.6,0.4,0.6,,,0.254,,0.6,0.4,0.2,0.8,0.4,0.6,0.8,0.2,1,0
,,5d7957036797da0019537ad1,66fc9907b4165711b6f3b187,2024-10-01_18h56.57.851,mdp,2024.2.1,Win32,60.0240096,66fa4ebf79326e780c390304,,,,,,,,,,,,,,,,,,,,,1241.454,1241.454,1241.46,1242.277,1,1,right,0.305,,1242.28,1243.196,1,0,right,1243.198,1244.192,1,1,right,0,1244.197,1244.197,1244.201,1245.692,0,4,4,4,1,0.8,0.2,0.4,0.6,,,,,,,,,,,,,,,0.401,,0.4,0.6,0.6,0.4,0.4,0.6,0.4,0.6,,,0.464,,0.6,0.4,0.2,0.8,0.4,0.6,0.8,0.2,1,0
,,5d7957036797da0019537ad1,66fc9907b4165711b6f3b187,2024-10-01_18h56.57.851,mdp,2024.2.1,Win32,60.0240096,66fa4ebf79326e780c390304,,,,,,,,,,,,,,,,,,,,,1245.699,1245.699,1245.701,1247.594,1,0,right,1.369,,1247.598,1248.559,1,0,right,1248.564,1249.892,1,1,right,0,1249.896,1249.896,1249.898,1251.393,0,5,5,5,1,0.8,0.2,0.4,0.6,,,,,,,,,,,,,,,0.433,,0.4,0.6,0.6,0.4,0.2,0.8,0.2,0.8,,,0.805,,0.6,0.4,0.2,0.8,0.4,0.6,0.8,0.2,1,0
,,5d7957036797da0019537ad1,66fc9907b4165711b6f3b187,2024-10-01_18h56.57.851,mdp,2024.2.1,Win32,60.0240096,66fa4ebf79326e780c390304,,,,,,,,,,,,,,,,,,,,,1251.398,1251.398,1251.4,1252.758,1,1,right,0.838,,1252.764,1253.558,0,0,left,1253.564,1254.399,0,0,left,1,1254.399,1254.399,1254.401,1255.89,0,6,6,6,1,0.8,0.2,0.4,0.6,,,,,,,,,,,,,,,0.265,,0.4,0.6,0.6,0.4,0.2,0.8,0.2,0.8,,,0.33,,0.6,0.4,0.2,0.8,0.4,0.6,0.8,0.2,1,0
,,5d7957036797da0019537ad1,66fc9907b4165711b6f3b187,2024-10-01_18h56.57.851,mdp,2024.2.1,Win32,60.0240096,66fa4ebf79326e780c390304,,,,,,,,,,,,,,,,,,,,,1255.894,1255.894,1255.895,1257.782,1,1,right,1.364,,1257.784,1258.676,0,1,left,1258.678,1259.598,0,1,left,0,1259.598,1259.598,1259.6,1261.091,0,7,7,7,1,0.8,0.2,0.4,0.6,,,,,,,,,,,,,,,0.37,,0.4,0.6,0.6,0.4,0.2,0.8,0.2,0.8,,,0.399,,0.6,0.4,0.2,0.8,0.2,0.8,0.4,0.6,1,0
,,5d7957036797da0019537ad1,66fc9907b4165711b6f3b187,2024-10-01_18h56.57.851,mdp,2024.2.1,Win32,60.0240096,66fa4ebf79326e780c390304,,,,,,,,,,,,,,,,,,,,,1261.095,1261.095,1261.097,1262.146,1,1,right,0.521,,1262.149,1263.057,0,0,left,1263.063,1264.04,0,0,left,1,1264.042,1264.042,1264.046,1265.542,0,8,8,8,1,0.8,0.2,0.4,0.6,,,,,,,,,,,,,,,0.385,,0.4,0.6,0.6,0.4,0.2,0.8,0.2,0.8,,,0.44,,0.6,0.4,0.2,0.8,0.2,0.8,0.4,0.6,1,0
,,5d7957036797da0019537ad1,66fc9907b4165711b6f3b187,2024-10-01_18h56.57.851,mdp,2024.2.1,Win32,60.0240096,66fa4ebf79326e780c390304,,,,,,,,,,,,,,,,,,,,,1265.548,1265.548,1265.548,1266.579,0,1,left,0.501,,1266.581,1267.607,1,1,right,1267.611,1268.896,1,0,right,1,1268.897,1268.897,1268.898,1270.39,0,9,9,9,1,0.8,0.2,0.4,0.6,,,,,,,,,,,,,,,0.505,,0.4,0.6,0.6,0.4,0.2,0.8,0.2,0.8,,,0.745,,0.6,0.4,0.2,0.8,0.2,0.8,0.4,0.6,1,0
,,5d7957036797da0019537ad1,66fc9907b4165711b6f3b187,2024-10-01_18h56.57.851,mdp,2024.2.1,Win32,60.0240096,66fa4ebf79326e780c390304,,,,,,,,,,,,,,,,,,,,,1270.396,1270.396,1270.399,1271.409,0,0,left,0.489,,1271.413,1272.51,1,1,right,1272.513,1273.664,1,1,right,0,1273.664,1273.664,1273.666,1275.158,0,10,10,10,1,0.8,0.2,0.4,0.6,,,,,,,,,,,,,,,0.567,,0.4,0.6,0.6,0.4,0.2,0.8,0.2,0.8,,,0.629,,0.6,0.4,0.2,0.8,0.2,0.8,0.4,0.6,1,0
,,5d7957036797da0019537ad1,66fc9907b4165711b6f3b187,2024-10-01_18h56.57.851,mdp,2024.2.1,Win32,60.0240096,66fa4ebf79326e780c390304,,,,,,,,,,,,,,,,,,,,,1275.159,1275.16,1275.161,1276.063,0,0,left,0.38,,1276.064,1277.079,1,1,right,1277.081,1278.243,1,1,right,0,1278.243,1278.243,1278.246,1279.74,0,11,11,11,1,0.8,0.2,0.4,0.6,,,,,,,,,,,,,,,0.487,,0.4,0.6,0.6,0.4,0.2,0.8,0.2,0.8,,,0.636,,0.6,0.4,0.2,0.8,0.2,0.8,0.4,0.6,1,0
,,5d7957036797da0019537ad1,66fc9907b4165711b6f3b187,2024-10-01_18h56.57.851,mdp,2024.2.1,Win32,60.0240096,66fa4ebf79326e780c390304,,,,,,,,,,,,,,,,,,,,,1279.746,1279.746,1279.749,1282.628,0,1,left,2.351,,1282.631,1283.474,1,1,right,1283.475,1284.278,1,1,right,0,1284.278,1284.278,1284.28,1285.776,0,12,12,12,1,0.8,0.2,0.4,0.6,,,,,,,,,,,,,,,0.323,,0.4,0.6,0.6,0.4,0.2,0.8,0.2,0.8,,,0.277,,0.2,0.8,0.6,0.4,0.2,0.8,0.4,0.6,1,0
,,5d7957036797da0019537ad1,66fc9907b4165711b6f3b187,2024-10-01_18h56.57.851,mdp,2024.2.1,Win32,60.0240096,66fa4ebf79326e780c390304,,,,,,,,,,,,,,,,,,,,,1285.777,1285.777,1285.778,1287.507,1,0,right,1.207,,1287.51,1288.64,0,1,left,1288.647,1289.476,1,1,right,0,1289.477,1289.477,1289.478,1290.972,0,13,13,13,1,0.8,0.2,0.4,0.6,,,,,,,,,,,,,,,0.596,,0.4,0.6,0.6,0.4,0.2,0.8,0.2,0.8,,,0.306,,0.2,0.8,0.6,0.4,0.2,0.8,0.4,0.6,1,0
,,5d7957036797da0019537ad1,66fc9907b4165711b6f3b187,2024-10-01_18h56.57.851,mdp,2024.2.1,Win32,60.0240096,66fa4ebf79326e780c390304,,,,,,,,,,,,,,,,,,,,,1290.974,1290.974,1290.975,1291.989,1,0,right,0.488,,1291.993,1293.04,0,1,left,1293.045,1293.889,1,1,right,0,1293.891,1293.891,1293.893,1295.388,0,14,14,14,1,0.8,0.2,0.4,0.6,,,,,,,,,,,,,,,0.528,,0.8,0.2,0.8,0.2,0.2,0.8,0.2,0.8,,,0.314,,0.2,0.8,0.6,0.4,0.2,0.8,0.4,0.6,1,0
,,5d7957036797da0019537ad1,66fc9907b4165711b6f3b187,2024-10-01_18h56.57.851,mdp,2024.2.1,Win32,60.0240096,66fa4ebf79326e780c390304,,,,,,,,,,,,,,,,,,,,,1295.391,1295.391,1295.393,1296.172,0,0,left,0.249,,1296.177,1297.039,1,0,right,1297.042,1297.772,0,1,left,0,1297.772,1297.772,1297.776,1299.272,0,15,15,15,1,0.8,0.2,0.4,0.6,,,,,,,,,,,,,,,0.336,,0.8,0.2,0.8,0.2,0.2,0.8,0.2,0.8,,,0.22,,0.2,0.8,0.6,0.4,0.2,0.8,0.4,0.6,1,0
,,5d7957036797da0019537ad1,66fc9907b4165711b6f3b187,2024-10-01_18h56.57.851,mdp,2024.2.1,Win32,60.0240096,66fa4ebf79326e780c390304,,,,,,,,,,,,,,,,,,,,,1299.279,1299.279,1299.281,1300.04,0,1,left,0.235,,1300.043,1300.895,1,1,right,1300.897,1301.895,0,1,left,0,1301.895,1301.895,1301.898,1303.393,0,16,16,16,1,0.8,0.2,0.4,0.6,,,,,,,,,,,,,,,0.34,,0.8,0.2,0.8,0.2,0.2,0.8,0.2,0.8,,,0.462,,0.2,0.8,0.6,0.4,0.2,0.8,0.4,0.6,1,0
,,5d7957036797da0019537ad1,66fc9907b4165711b6f3b187,2024-10-01_18h56.57.851,mdp,2024.2.1,Win32,60.0240096,66fa4ebf79326e780c390304,,,,,,,,,,,,,,,,,,,,,1303.4,1303.4,1303.41,1304.377,0,0,left,0.453,,1304.379,1305.359,1,0,right,1305.362,1306.458,0,1,left,0,1306.459,1306.459,1306.466,1307.956,0,17,17,17,1,0.8,0.2,0.4,0.6,,,,,,,,,,,,,,,0.44,,0.8,0.2,0.8,0.2,0.2,0.8,0.2,0.8,,,0.557,,0.2,0.8,0.6,0.4,0.2,0.8,0.4,0.6,1,0
,,5d7957036797da0019537ad1,66fc9907b4165711b6f3b187,2024-10-01_18h56.57.851,mdp,2024.2.1,Win32,60.0240096,66fa4ebf79326e780c390304,,,,,,,,,,,,,,,,,,,,,1307.961,1307.961,1307.963,1309.207,0,0,left,0.718,,1309.212,1310.106,0,0,left,1310.11,1310.944,1,1,right,0,1310.945,1310.945,1310.946,1312.437,0,18,18,18,1,0.8,0.2,0.4,0.6,,,,,,,,,,,,,,,0.369,,0.8,0.2,0.8,0.2,0.2,0.8,0.2,0.8,,,0.308,,0.2,0.8,0.6,0.4,0.2,0.8,0.4,0.6,1,0
,,5d7957036797da0019537ad1,66fc9907b4165711b6f3b187,2024-10-01_18h56.57.851,mdp,2024.2.1,Win32,60.0240096,66fa4ebf79326e780c390304,,,,,,,,,,,,,,,,,,,,,1312.439,1312.439,1312.44,1313.171,0,0,left,0.201,,1313.179,1314.092,0,0,left,1314.096,1314.971,1,1,right,0,1314.975,1314.975,1314.977,1316.471,0,19,19,19,1,0.8,0.2,0.4,0.6,,,,,,,,,,,,,,,0.394,,0.8,0.2,0.8,0.2,0.2,0.8,0.2,0.8,,,0.353,,0.2,0.8,0.6,0.4,0.2,0.8,0.4,0.6,1,0
,,5d7957036797da0019537ad1,66fc9907b4165711b6f3b187,2024-10-01_18h56.57.851,mdp,2024.2.1,Win32,60.0240096,66fa4ebf79326e780c390304,,,,,,,,,,,,,,,,,,,,,1316.477,1316.477,1316.478,1318.159,0,0,left,1.161,,1318.161,1321.238,0,1,left,1321.241,1322.455,1,1,right,0,1322.455,1322.455,1322.456,1323.958,0,20,20,20,1,0.8,0.2,0.4,0.6,,,,,,,,,,,,,,,2.549,,0.8,0.2,0.8,0.2,0.2,0.8,0.2,0.8,,,0.669,,0.4,0.6,0.8,0.2,0.2,0.8,0.4,0.6,1,0
,,5d7957036797da0019537ad1,66fc9907b4165711b6f3b187,2024-10-01_18h56.57.851,mdp,2024.2.1,Win32,60.0240096,66fa4ebf79326e780c390304,,,,,,,,,,,,,,,,,,,,,1323.959,1323.959,1323.961,1325.341,0,0,left,0.856,,1325.343,1326.669,0,0,left,1326.673,1327.486,1,0,right,1,1327.49,1327.49,1327.491,1328.989,0,21,21,21,1,0.8,0.2,0.4,0.6,,,,,,,,,,,,,,,0.801,,0.8,0.2,0.8,0.2,0.2,0.8,0.2,0.8,,,0.289,,0.4,0.6,0.8,0.2,0.2,0.8,0.4,0.6,1,0
,,5d7957036797da0019537ad1,66fc9907b4165711b6f3b187,2024-10-01_18h56.57.851,mdp,2024.2.1,Win32,60.0240096,66fa4ebf79326e780c390304,,,,,,,,,,,,,,,,,,,,,1328.992,1328.992,1328.994,1330.088,0,0,left,0.571,,1330.093,1331.224,0,1,left,1331.226,1332.373,1,0,right,1,1332.373,1332.373,1332.375,1333.876,0,22,22,22,1,0.8,0.2,0.4,0.6,,,,,,,,,,,,,,,0.603,,0.2,0.8,0.6,0.4,0.2,0.8,0.2,0.8,,,0.614,,0.4,0.6,0.8,0.2,0.2,0.8,0.4,0.6,1,0
,,5d7957036797da0019537ad1,66fc9907b4165711b6f3b187,2024-10-01_18h56.57.851,mdp,2024.2.1,Win32,60.0240096,66fa4ebf79326e780c390304,,,,,,,,,,,,,,,,,,,,,1333.88,1333.88,1333.885,1334.957,0,0,left,0.555,,1334.958,1336.056,0,1,left,1336.061,1337.07,1,1,right,0,1337.072,1337.072,1337.077,1338.57,0,23,23,23,1,0.8,0.2,0.4,0.6,,,,,,,,,,,,,,,0.578,,0.2,0.8,0.6,0.4,0.2,0.8,0.2,0.8,,,0.484,,0.4,0.6,0.8,0.2,0.2,0.8,0.4,0.6,1,0
,,5d7957036797da0019537ad1,66fc9907b4165711b6f3b187,2024-10-01_18h56.57.851,mdp,2024.2.1,Win32,60.0240096,66fa4ebf79326e780c390304,,,,,,,,,,,,,,,,,,,,,1338.576,1338.576,1338.577,1339.892,1,1,right,0.797,,1339.895,1341.137,0,1,left,1341.14,1342.019,0,1,left,0,1342.021,1342.021,1342.023,1343.52,0,24,24,24,1,0.8,0.2,0.4,0.6,,,,,,,,,,,,,,,0.709,,0.2,0.8,0.6,0.4,0.2,0.8,0.2,0.8,,,0.352,,0.4,0.6,0.8,0.2,0.2,0.8,0.4,0.6,1,0
,,5d7957036797da0019537ad1,66fc9907b4165711b6f3b187,2024-10-01_18h56.57.851,mdp,2024.2.1,Win32,60.0240096,66fa4ebf79326e780c390304,,,,,,,,,,,,,,,,,,,,,1343.525,1343.525,1343.529,1344.086,1,1,right,0.04,,1344.093,1345.002,0,0,left,1345.007,1345.925,0,1,left,0,1345.925,1345.925,1345.926,1347.419,0,25,25,25,1,0.8,0.2,0.4,0.6,,,,,,,,,,,,,,,0.39,,0.2,0.8,0.6,0.4,0.2,0.8,0.2,0.8,,,0.378,,0.4,0.6,0.8,0.2,0.2,0.8,0.4,0.6,1,0
,,5d7957036797da0019537ad1,66fc9907b4165711b6f3b187,2024-10-01_18h56.57.851,mdp,2024.2.1,Win32,60.0240096,66fa4ebf79326e780c390304,,,,,,,,,,,,,,,,,,,,,1347.424,1347.424,1347.426,1348.953,0,0,left,1.001,,1348.958,1349.886,0,1,left,1349.889,1350.805,0,0,left,1,1350.806,1350.807,1350.809,1352.302,0,26,26,26,1,0.8,0.2,0.4,0.6,,,,,,,,,,,,,,,0.389,,0.2,0.8,0.6,0.4,0.2,0.8,0.2,0.8,,,0.371,,0.4,0.6,0.8,0.2,0.2,0.8,0.4,0.6,1,0
,,5d7957036797da0019537ad1,66fc9907b4165711b6f3b187,2024-10-01_18h56.57.851,mdp,2024.2.1,Win32,60.0240096,66fa4ebf79326e780c390304,,,,,,,,,,,,,,,,,,,,,1352.308,1352.308,1352.309,1352.835,0,0,left,0.007,,1352.837,1353.686,0,1,left,1353.692,1354.572,0,1,left,0,1354.572,1354.572,1354.574,1356.069,0,27,27,27,1,0.8,0.2,0.4,0.6,,,,,,,,,,,,,,,0.334,,0.2,0.8,0.6,0.4,0.2,0.8,0.2,0.8,,,0.357,,0.4,0.6,0.8,0.2,0.2,0.8,0.4,0.6,1,0
,,5d7957036797da0019537ad1,66fc9907b4165711b6f3b187,2024-10-01_18h56.57.851,mdp,2024.2.1,Win32,60.0240096,66fa4ebf79326e780c390304,,,,,,,,,,,,,,,,,,,,,1356.074,1356.074,1356.077,1356.651,0,0,left,0.054,,1356.656,1357.684,0,1,left,1357.687,1359.235,0,0,left,1,1359.237,1359.237,1359.239,1360.739,0,28,28,28,1,0.8,0.2,0.4,0.6,,,,,,,,,,,,,,,0.513,,0.2,0.8,0.6,0.4,0.2,0.8,0.2,0.8,,,1.03,,0.4,0.6,0.8,0.2,0.2,0.8,0.4,0.6,1,0
,,5d7957036797da0019537ad1,66fc9907b4165711b6f3b187,2024-10-01_18h56.57.851,mdp,2024.2.1,Win32,60.0240096,66fa4ebf79326e780c390304,,,,,,,,,,,,,,,,,,,,,1360.74,1360.74,1360.742,1361.64,0,1,left,0.366,,1361.642,1363.601,0,0,left,1363.603,1364.686,0,1,left,0,1364.687,1364.687,1364.69,1366.19,0,29,29,29,1,0.8,0.2,0.4,0.6,,,,,,,,,,,,,,,1.422,,0.2,0.8,0.6,0.4,0.2,0.8,0.2,0.8,,,0.536,,0.4,0.6,0.8,0.2,0.2,0.8,0.4,0.6,1,0
,,5d7957036797da0019537ad1,66fc9907b4165711b6f3b187,2024-10-01_18h56.57.851,mdp,2024.2.1,Win32,60.0240096,66fa4ebf79326e780c390304,,,,,,,,,,,,,,,,,,,,,1366.193,1366.193,1366.196,1369.352,1,1,right,2.634,,1369.356,1370.468,1,0,right,1370.472,1371.937,1,0,right,1,1371.94,1371.94,1371.942,1373.439,0,30,30,30,1,0.8,0.2,0.4,0.6,,,,,,,,,,,,,,,0.586,,0.2,0.8,0.6,0.4,0.2,0.8,0.2,0.8,,,0.933,,0.4,0.6,0.8,0.2,0.2,0.8,0.4,0.6,1,0
,,5d7957036797da0019537ad1,66fc9907b4165711b6f3b187,2024-10-01_18h56.57.851,mdp,2024.2.1,Win32,60.0240096,66fa4ebf79326e780c390304,,,,,,,,,,,,,,,,,,,,,1373.441,1373.441,1373.444,1374.992,1,0,right,1.027,,1374.994,1376.102,1,1,right,1376.105,1377.117,1,1,right,0,1377.119,1377.12,1377.123,1378.618,0,31,31,31,1,0.8,0.2,0.4,0.6,,,,,,,,,,,,,,,0.58,,0.2,0.8,0.6,0.4,0.2,0.8,0.2,0.8,,,0.48,,0.6,0.4,0.2,0.8,0.2,0.8,0.4,0.6,1,0
,,5d7957036797da0019537ad1,66fc9907b4165711b6f3b187,2024-10-01_18h56.57.851,mdp,2024.2.1,Win32,60.0240096,66fa4ebf79326e780c390304,,,,,,,,,,,,,,,,,,,,,1378.619,1378.619,1378.621,1379.601,1,0,right,0.456,,1379.603,1381.05,1,0,right,1381.053,1383.137,1,1,right,0,1383.137,1383.138,1383.139,1384.639,0,32,32,32,1,0.8,0.2,0.4,0.6,,,,,,,,,,,,,,,0.916,,0.2,0.8,0.6,0.4,0.2,0.8,0.2,0.8,,,1.553,,0.6,0.4,0.2,0.8,0.2,0.8,0.4,0.6,1,0
,,5d7957036797da0019537ad1,66fc9907b4165711b6f3b187,2024-10-01_18h56.57.851,mdp,2024.2.1,Win32,60.0240096,66fa4ebf79326e780c390304,,,,,,,,,,,,,,,,,,,,,1384.64,1384.64,1384.642,1385.468,1,1,right,0.304,,1385.47,1386.59,1,1,right,1386.595,1388.2,1,0,right,1,1388.202,1388.202,1388.205,1389.7,0,33,33,33,1,0.8,0.2,0.4,0.6,,,,,,,,,,,,,,,0.586,,0.2,0.8,0.6,0.4,0.2,0.8,0.2,0.8,,,1.076,,0.6,0.4,0.2,0.8,0.2,0.8,0.4,0.6,1,0
,,5d7957036797da0019537ad1,66fc9907b4165711b6f3b187,2024-10-01_18h56.57.851,mdp,2024.2.1,Win32,60.0240096,66fa4ebf79326e780c390304,,,,,,,,,,,,,,,,,,,,,1389.706,1389.706,1389.708,1390.639,0,0,left,0.411,,1390.642,1391.773,0,1,left,1391.776,1392.988,0,1,left,0,1392.989,1392.99,1392.993,1394.488,0,34,34,34,1,0.8,0.2,0.4,0.6,,,,,,,,,,,,,,,0.601,,0.2,0.8,0.6,0.4,0.2,0.8,0.2,0.8,,,0.697,,0.6,0.4,0.2,0.8,0.2,0.8,0.4,0.6,1,0
,,5d7957036797da0019537ad1,66fc9907b4165711b6f3b187,2024-10-01_18h56.57.851,mdp,2024.2.1,Win32,60.0240096,66fa4ebf79326e780c390304,,,,,,,,,,,,,,,,,,,,,1394.49,1394.49,1394.491,1395.769,0,0,left,0.756,,1395.775,1396.774,0,1,left,1396.778,1397.817,0,1,left,0,1397.818,1397.818,1397.82,1399.318,0,35,35,35,1,0.8,0.2,0.4,0.6,,,,,,,,,,,,,,,0.476,,0.2,0.8,0.6,0.4,0.2,0.8,0.2,0.8,,,0.519,,0.6,0.4,0.2,0.8,0.2,0.8,0.4,0.6,1,0
,,5d7957036797da0019537ad1,66fc9907b4165711b6f3b187,2024-10-01_18h56.57.851,mdp,2024.2.1,Win32,60.0240096,66fa4ebf79326e780c390304,,,,,,,,,,,,,,,,,,,,,1399.323,1399.323,1399.326,1400.441,0,0,left,0.6,,1400.443,1401.639,0,1,left,1401.641,1402.588,0,1,left,0,1402.59,1402.59,1402.591,1404.089,0,36,36,36,1,0.8,0.2,0.4,0.6,,,,,,,,,,,,,,,0.668,,0.2,0.8,0.6,0.4,0.2,0.8,0.2,0.8,,,0.433,,0.6,0.4,0.2,0.8,0.2,0.8,0.4,0.6,1,0
,,5d7957036797da0019537ad1,66fc9907b4165711b6f3b187,2024-10-01_18h56.57.851,mdp,2024.2.1,Win32,60.0240096,66fa4ebf79326e780c390304,,,,,,,,,,,,,,,,,,,,,1404.091,1404.091,1404.093,1405.189,1,0,right,0.571,,1405.192,1406.071,1,0,right,1406.074,1406.968,0,1,left,0,1406.971,1406.971,1406.975,1408.467,0,37,37,37,1,0.2,0.8,0.8,0.2,,,,,,,,,,,,,,,0.358,,0.2,0.8,0.6,0.4,0.2,0.8,0.2,0.8,,,0.35,,0.6,0.4,0.2,0.8,0.2,0.8,0.4,0.6,1,0
,,5d7957036797da0019537ad1,66fc9907b4165711b6f3b187,2024-10-01_18h56.57.851,mdp,2024.2.1,Win32,60.0240096,66fa4ebf79326e780c390304,,,,,,,,,,,,,,,,,,,,,1408.468,1408.468,1408.468,1409.333,1,0,right,0.334,,1409.335,1410.182,1,1,right,1410.187,1411.699,0,1,left,0,1411.701,1411.701,1411.707,1413.2,0,38,38,38,1,0.2,0.8,0.8,0.2,,,,,,,,,,,,,,,0.323,,0.2,0.8,0.6,0.4,0.2,0.8,0.2,0.8,,,0.978,,0.6,0.4,0.2,0.8,0.2,0.8,0.4,0.6,1,0
,,5d7957036797da0019537ad1,66fc9907b4165711b6f3b187,2024-10-01_18h56.57.851,mdp,2024.2.1,Win32,60.0240096,66fa4ebf79326e780c390304,,,,,,,,,,,,,,,,,,,,,1413.202,1413.202,1413.203,1414.72,1,0,right,0.993,,1414.722,1416.239,1,0,right,1416.241,1417.131,0,0,left,1,1417.132,1417.132,1417.135,1418.632,0,39,39,39,1,0.2,0.8,0.8,0.2,,,,,,,,,,,,,,,0.996,,0.2,0.8,0.6,0.4,0.2,0.8,0.2,0.8,,,0.359,,0.6,0.4,0.2,0.8,0.2,0.8,0.4,0.6,1,0
,,5d7957036797da0019537ad1,66fc9907b4165711b6f3b187,2024-10-01_18h56.57.851,mdp,2024.2.1,Win32,60.0240096,66fa4ebf79326e780c390304,,,,,,,,,,,,,,,,,,,,,1418.638,1418.638,1418.639,1419.648,1,0,right,0.484,,1419.655,1420.531,1,0,right,1420.537,1421.454,0,0,left,1,1421.455,1421.455,1421.456,1422.948,0,40,40,40,1,0.2,0.8,0.8,0.2,,,,,,,,,,,,,,,0.354,,0.2,0.8,0.6,0.4,0.2,0.8,0.2,0.8,,,0.393,,0.6,0.4,0.2,0.8,0.2,0.8,0.4,0.6,1,0
,,5d7957036797da0019537ad1,66fc9907b4165711b6f3b187,2024-10-01_18h56.57.851,mdp,2024.2.1,Win32,60.0240096,66fa4ebf79326e780c390304,,,,,,,,,,,,,,,,,,,,,1422.953,1422.954,1422.956,1423.799,1,0,right,0.317,,1423.801,1424.798,0,0,left,1424.805,1425.671,1,1,right,0,1425.671,1425.671,1425.674,1427.168,0,41,41,41,1,0.2,0.8,0.8,0.2,,,,,,,,,,,,,,,0.471,,0.8,0.2,0.2,0.8,0.2,0.8,0.2,0.8,,,0.362,,0.6,0.4,0.2,0.8,0.2,0.8,0.4,0.6,1,0
,,5d7957036797da0019537ad1,66fc9907b4165711b6f3b187,2024-10-01_18h56.57.851,mdp,2024.2.1,Win32,60.0240096,66fa4ebf79326e780c390304,,,,,,,,,,,,,,,,,,,,,1427.171,1427.171,1427.175,1428.367,1,0,right,0.669,,1428.369,1429.452,0,0,left,1429.457,1430.303,1,1,right,0,1430.303,1430.303,1430.306,1431.802,0,42,42,42,1,0.2,0.8,0.8,0.2,,,,,,,,,,,,,,,0.557,,0.8,0.2,0.2,0.8,0.2,0.8,0.2,0.8,,,0.324,,0.6,0.4,0.2,0.8,0.2,0.8,0.4,0.6,1,0
,,5d7957036797da0019537ad1,66fc9907b4165711b6f3b187,2024-10-01_18h56.57.851,mdp,2024.2.1,Win32,60.0240096,66fa4ebf79326e780c390304,,,,,,,,,,,,,,,,,,,,,1431.804,1431.804,1431.806,1432.336,1,0,right,0.002,,1432.338,1433.247,0,0,left,1433.251,1434.216,1,0,right,1,1434.216,1434.217,1434.219,1435.715,0,43,43,43,1,0.2,0.8,0.8,0.2,,,,,,,,,,,,,,,0.382,,0.8,0.2,0.2,0.8,0.2,0.8,0.2,0.8,,,0.434,,0.6,0.4,0.2,0.8,0.2,0.8,0.4,0.6,1,0
,,5d7957036797da0019537ad1,66fc9907b4165711b6f3b187,2024-10-01_18h56.57.851,mdp,2024.2.1,Win32,60.0240096,66fa4ebf79326e780c390304,,,,,,,,,,,,,,,,,,,,,1435.717,1435.717,1435.718,1438.284,0,0,left,2.056,,1438.286,1439.131,0,1,left,1439.133,1440.068,1,0,right,1,1440.069,1440.069,1440.07,1441.567,0,44,44,44,1,0.8,0.2,0.2,0.8,,,,,,,,,,,,,,,0.334,,0.8,0.2,0.2,0.8,0.2,0.8,0.2,0.8,,,0.409,,0.6,0.4,0.2,0.8,0.2,0.8,0.4,0.6,1,0
,,5d7957036797da0019537ad1,66fc9907b4165711b6f3b187,2024-10-01_18h56.57.851,mdp,2024.2.1,Win32,60.0240096,66fa4ebf79326e780c390304,,,,,,,,,,,,,,,,,,,,,1441.571,1441.571,1441.572,1443.148,0,1,left,1.057,,1443.151,1443.998,0,1,left,1444,1444.817,1,0,right,1,1444.817,1444.817,1444.82,1446.316,0,45,45,45,1,0.8,0.2,0.2,0.8,,,,,,,,,,,,,,,0.304,,0.8,0.2,0.2,0.8,0.2,0.8,0.2,0.8,,,0.289,,0.6,0.4,0.2,0.8,0.2,0.8,0.4,0.6,1,0
,,5d7957036797da0019537ad1,66fc9907b4165711b6f3b187,2024-10-01_18h56.57.851,mdp,2024.2.1,Win32,60.0240096,66fa4ebf79326e780c390304,,,,,,,,,,,,,,,,,,,,,1446.317,1446.317,1446.318,1447.33,0,0,left,0.486,,1447.335,1448.218,0,1,left,1448.221,1449.346,1,1,right,0,1449.348,1449.348,1449.352,1450.846,0,46,46,46,1,0.8,0.2,0.2,0.8,,,,,,,,,,,,,,,0.338,,0.8,0.2,0.2,0.8,0.2,0.8,0.2,0.8,,,0.608,,0.6,0.4,0.2,0.8,0.2,0.8,0.4,0.6,1,0
,,5d7957036797da0019537ad1,66fc9907b4165711b6f3b187,2024-10-01_18h56.57.851,mdp,2024.2.1,Win32,60.0240096,66fa4ebf79326e780c390304,,,,,,,,,,,,,,,,,,,,,1450.85,1450.85,1450.851,1452.446,0,0,left,1.067,,1452.452,1454.129,0,1,left,1454.133,1456.315,1,1,right,0,1456.316,1456.317,1456.319,1457.818,0,47,47,47,1,0.8,0.2,0.2,0.8,,,,,,,,,,,,,,,1.171,,0.8,0.2,0.2,0.8,0.2,0.8,0.2,0.8,,,1.655,,0.6,0.4,0.2,0.8,0.2,0.8,0.4,0.6,1,0
,,5d7957036797da0019537ad1,66fc9907b4165711b6f3b187,2024-10-01_18h56.57.851,mdp,2024.2.1,Win32,60.0240096,66fa4ebf79326e780c390304,,,,,,,,,,,,,,,,,,,,,1457.819,1457.819,1457.821,1459.671,0,0,left,1.329,,1459.682,1461.948,0,0,left,1461.951,1464.518,0,0,left,1,1464.518,1464.518,1464.52,1466.013,0,48,48,48,1,0.8,0.2,0.2,0.8,,,,,,,,,,,,,,,1.755,,0.8,0.2,0.2,0.8,0.2,0.8,0.2,0.8,,,2.034,,0.6,0.4,0.2,0.8,0.2,0.8,0.4,0.6,1,0
,,5d7957036797da0019537ad1,66fc9907b4165711b6f3b187,2024-10-01_18h56.57.851,mdp,2024.2.1,Win32,60.0240096,66fa4ebf79326e780c390304,,,,,,,,,,,,,,,,,,,,,1466.019,1466.019,1466.02,1467.081,0,0,left,0.541,,1467.086,1468.097,0,0,left,1468.098,1469.428,1,1,right,0,1469.431,1469.431,1469.432,1470.928,0,49,49,49,1,0.8,0.2,0.2,0.8,,,,,,,,,,,,,,,0.481,,0.8,0.2,0.2,0.8,0.2,0.8,0.2,0.8,,,0.805,,0.6,0.4,0.2,0.8,0.2,0.8,0.4,0.6,1,0
,,5d7957036797da0019537ad1,66fc9907b4165711b6f3b187,2024-10-01_18h56.57.851,mdp,2024.2.1,Win32,60.0240096,66fa4ebf79326e780c390304,,,,,,,,,,,,,,,,,,,,,,,,,,,,,,,,,,,,,,,,,,,,,,,,,,,,,,,,1470.931,1530.053,0,3,3,3,1,imgs/bear.png,imgs/pig.png,imgs/cat.png,imgs/elephant.png,imgs/goat.png,,,,,,,,,,,,,,,,,,,,,,,,
,,5d7957036797da0019537ad1,66fc9907b4165711b6f3b187,2024-10-01_18h56.57.851,mdp,2024.2.1,Win32,60.0240096,66fa4ebf79326e780c390304,,,,,,,,,,,,,,1,seqs/st1seq18.csv,1530.062,1551.658,space,17.546,,1551.665,1551.665,1551.667,1552.857,1,0,right,0.647,,1552.861,1552.863,0,0,,1552.863,1552.865,1,0,,1,1552.865,1552.865,1552.866,1554.359,0,0,0,0,1,0.2,0.8,0.8,0.2,1,0,,,,,,,,,,,,,,,,,,,,,,,,,,,,,,,,,,,,
,,5d7957036797da0019537ad1,66fc9907b4165711b6f3b187,2024-10-01_18h56.57.851,mdp,2024.2.1,Win32,60.0240096,66fa4ebf79326e780c390304,,,,,,,,,,,,,,,,,,,,,1554.362,1554.362,1554.365,1555.407,1,1,right,0.519,,1555.41,1555.411,0,0,,1555.412,1555.413,1,0,,0,1555.413,1555.413,1555.414,1556.908,0,1,1,1,1,0.2,0.8,0.8,0.2,1,0,,,,,,,,,,,,,,,,,,,,,,,,,,,,,,,,,,,,
,,5d7957036797da0019537ad1,66fc9907b4165711b6f3b187,2024-10-01_18h56.57.851,mdp,2024.2.1,Win32,60.0240096,66fa4ebf79326e780c390304,,,,,,,,,,,,,,,,,,,,,1556.91,1556.91,1556.911,1558.006,1,0,right,0.566,,1558.01,1558.011,0,0,,1558.012,1558.013,1,0,,1,1558.013,1558.013,1558.014,1559.512,0,2,2,2,1,0.2,0.8,0.8,0.2,1,0,,,,,,,,,,,,,,,,,,,,,,,,,,,,,,,,,,,,
,,5d7957036797da0019537ad1,66fc9907b4165711b6f3b187,2024-10-01_18h56.57.851,mdp,2024.2.1,Win32,60.0240096,66fa4ebf79326e780c390304,,,,,,,,,,,,,,,,,,,,,1559.514,1559.514,1559.519,1561.478,1,0,right,1.446,,1561.479,1561.48,0,0,,1561.481,1561.481,1,0,,1,1561.481,1561.481,1561.482,1562.974,0,3,3,3,1,0.2,0.8,0.8,0.2,1,0,,,,,,,,,,,,,,,,,,,,,,,,,,,,,,,,,,,,
,,5d7957036797da0019537ad1,66fc9907b4165711b6f3b187,2024-10-01_18h56.57.851,mdp,2024.2.1,Win32,60.0240096,66fa4ebf79326e780c390304,,,,,,,,,,,,,,,,,,,,,1562.976,1562.976,1562.977,1563.993,1,1,right,0.49,,1563.998,1564,0,0,,1564.001,1564.002,1,0,,0,1564.002,1564.003,1564.004,1565.508,0,4,4,4,1,0.2,0.8,0.8,0.2,1,0,,,,,,,,,,,,,,,,,,,,,,,,,,,,,,,,,,,,
,,5d7957036797da0019537ad1,66fc9907b4165711b6f3b187,2024-10-01_18h56.57.851,mdp,2024.2.1,Win32,60.0240096,66fa4ebf79326e780c390304,,,,,,,,,,,,,,,,,,,,,1565.51,1565.51,1565.512,1566.608,0,1,left,0.569,,1566.611,1566.613,0,1,,1566.615,1566.617,1,1,,0,1566.617,1566.617,1566.618,1568.108,0,5,5,5,1,0.2,0.8,0.8,0.2,1,0,,,,,,,,,,,,,,,,,,,,,,,,,,,,,,,,,,,,
,,5d7957036797da0019537ad1,66fc9907b4165711b6f3b187,2024-10-01_18h56.57.851,mdp,2024.2.1,Win32,60.0240096,66fa4ebf79326e780c390304,,,,,,,,,,,,,,,,,,,,,1568.11,1568.11,1568.112,1568.913,0,1,left,0.279,,1568.915,1568.916,0,1,,1568.918,1568.92,1,1,,0,1568.92,1568.92,1568.921,1570.429,0,6,6,6,1,0.2,0.8,0.8,0.2,1,0,,,,,,,,,,,,,,,,,,,,,,,,,,,,,,,,,,,,
,,5d7957036797da0019537ad1,66fc9907b4165711b6f3b187,2024-10-01_18h56.57.851,mdp,2024.2.1,Win32,60.0240096,66fa4ebf79326e780c390304,,,,,,,,,,,,,,,,,,,,,1570.43,1570.43,1570.432,1571.324,0,0,left,0.37,,1571.327,1571.327,0,1,,1571.328,1571.329,1,0,,1,1571.329,1571.329,1571.33,1572.825,0,7,7,7,1,0.2,0.8,0.8,0.2,1,0,,,,,,,,,,,,,,,,,,,,,,,,,,,,,,,,,,,,
,,5d7957036797da0019537ad1,66fc9907b4165711b6f3b187,2024-10-01_18h56.57.851,mdp,2024.2.1,Win32,60.0240096,66fa4ebf79326e780c390304,,,,,,,,,,,,,,,,,,,,,1572.827,1572.827,1572.828,1573.858,0,1,left,0.501,,1573.86,1573.861,0,0,,1573.862,1573.863,1,1,,0,1573.863,1573.863,1573.864,1575.36,0,8,8,8,1,0.2,0.8,0.8,0.2,1,0,,,,,,,,,,,,,,,,,,,,,,,,,,,,,,,,,,,,
,,5d7957036797da0019537ad1,66fc9907b4165711b6f3b187,2024-10-01_18h56.57.851,mdp,2024.2.1,Win32,60.0240096,66fa4ebf79326e780c390304,,,,,,,,,,,,,,,,,,,,,1575.361,1575.361,1575.362,1576.324,0,1,left,0.432,,1576.326,1576.327,0,1,,1576.328,1576.329,1,1,,0,1576.329,1576.329,1576.33,1577.826,0,9,9,9,1,0.2,0.8,0.8,0.2,1,0,,,,,,,,,,,,,,,,,,,,,,,,,,,,,,,,,,,,
,,5d7957036797da0019537ad1,66fc9907b4165711b6f3b187,2024-10-01_18h56.57.851,mdp,2024.2.1,Win32,60.0240096,66fa4ebf79326e780c390304,,,,,,,,,,,,,,,,,,,,,1577.829,1577.829,1577.83,1578.91,0,1,left,0.56,,1578.912,1578.914,0,1,,1578.916,1578.917,1,1,,0,1578.917,1578.917,1578.918,1580.406,0,10,10,10,1,0.2,0.8,0.8,0.2,1,0,,,,,,,,,,,,,,,,,,,,,,,,,,,,,,,,,,,,
,,5d7957036797da0019537ad1,66fc9907b4165711b6f3b187,2024-10-01_18h56.57.851,mdp,2024.2.1,Win32,60.0240096,66fa4ebf79326e780c390304,,,,,,,,,,,,,,,,,,,,,1580.41,1580.41,1580.412,1582.393,0,0,left,1.454,,1582.398,1582.401,0,0,,1582.404,1582.409,1,0,,1,1582.409,1582.409,1582.41,1583.905,0,11,11,11,1,0.8,0.2,0.2,0.8,1,0,,,,,,,,,,,,,,,,,,,,,,,,,,,,,,,,,,,,
,,5d7957036797da0019537ad1,66fc9907b4165711b6f3b187,2024-10-01_18h56.57.851,mdp,2024.2.1,Win32,60.0240096,66fa4ebf79326e780c390304,,,,,,,,,,,,,,,,,,,,,1583.91,1583.91,1583.912,1585.589,0,0,left,1.154,,1585.595,1585.597,0,0,,1585.599,1585.601,1,0,,1,1585.601,1585.601,1585.602,1587.106,0,12,12,12,1,0.6,0.4,0.4,0.6,1,0,,,,,,,,,,,,,,,,,,,,,,,,,,,,,,,,,,,,
,,5d7957036797da0019537ad1,66fc9907b4165711b6f3b187,2024-10-01_18h56.57.851,mdp,2024.2.1,Win32,60.0240096,66fa4ebf79326e780c390304,,,,,,,,,,,,,,,,,,,,,1587.111,1587.111,1587.113,1588.621,0,0,left,0.983,,1588.624,1588.625,0,1,,1588.626,1588.626,1,0,,1,1588.626,1588.626,1588.627,1590.122,0,13,13,13,1,0.6,0.4,0.4,0.6,1,0,,,,,,,,,,,,,,,,,,,,,,,,,,,,,,,,,,,,
,,5d7957036797da0019537ad1,66fc9907b4165711b6f3b187,2024-10-01_18h56.57.851,mdp,2024.2.1,Win32,60.0240096,66fa4ebf79326e780c390304,,,,,,,,,,,,,,,,,,,,,1590.128,1590.128,1590.13,1591.079,1,1,right,0.429,,1591.082,1591.084,0,0,,1591.086,1591.087,1,0,,0,1591.087,1591.087,1591.088,1592.589,0,14,14,14,1,0.6,0.4,0.4,0.6,1,0,,,,,,,,,,,,,,,,,,,,,,,,,,,,,,,,,,,,
,,5d7957036797da0019537ad1,66fc9907b4165711b6f3b187,2024-10-01_18h56.57.851,mdp,2024.2.1,Win32,60.0240096,66fa4ebf79326e780c390304,,,,,,,,,,,,,,,,,,,,,1592.592,1592.592,1592.594,1593.461,1,1,right,0.343,,1593.463,1593.465,0,1,,1593.466,1593.467,1,1,,0,1593.467,1593.467,1593.468,1594.955,0,15,15,15,1,0.6,0.4,0.4,0.6,1,0,,,,,,,,,,,,,,,,,,,,,,,,,,,,,,,,,,,,
,,5d7957036797da0019537ad1,66fc9907b4165711b6f3b187,2024-10-01_18h56.57.851,mdp,2024.2.1,Win32,60.0240096,66fa4ebf79326e780c390304,,,,,,,,,,,,,,,,,,,,,1594.958,1594.958,1594.96,1596.006,1,0,right,0.518,,1596.01,1596.013,0,0,,1596.014,1596.014,1,0,,1,1596.014,1596.014,1596.015,1597.508,0,16,16,16,1,0.8,0.2,0.6,0.4,1,0,,,,,,,,,,,,,,,,,,,,,,,,,,,,,,,,,,,,
,,5d7957036797da0019537ad1,66fc9907b4165711b6f3b187,2024-10-01_18h56.57.851,mdp,2024.2.1,Win32,60.0240096,66fa4ebf79326e780c390304,,,,,,,,,,,,,,,,,,,,,1597.51,1597.51,1597.512,1600.074,1,0,right,2.035,,1600.076,1600.077,0,0,,1600.079,1600.08,1,0,,1,1600.081,1600.081,1600.082,1601.572,0,17,17,17,1,0.8,0.2,0.6,0.4,1,0,,,,,,,,,,,,,,,,,,,,,,,,,,,,,,,,,,,,
,,5d7957036797da0019537ad1,66fc9907b4165711b6f3b187,2024-10-01_18h56.57.851,mdp,2024.2.1,Win32,60.0240096,66fa4ebf79326e780c390304,,,,,,,,,,,,,,,,,,,,,1601.577,1601.578,1601.579,1602.51,1,1,right,0.414,,1602.511,1602.514,0,0,,1602.515,1602.517,1,1,,0,1602.517,1602.517,1602.519,1604.021,0,18,18,18,1,0.6,0.4,0.8,0.2,1,0,,,,,,,,,,,,,,,,,,,,,,,,,,,,,,,,,,,,
,,5d7957036797da0019537ad1,66fc9907b4165711b6f3b187,2024-10-01_18h56.57.851,mdp,2024.2.1,Win32,60.0240096,66fa4ebf79326e780c390304,,,,,,,,,,,,,,,,,,,,,1604.022,1604.022,1604.023,1605.893,1,0,right,1.346,,1605.895,1605.897,0,0,,1605.897,1605.899,1,0,,1,1605.899,1605.899,1605.9,1607.387,0,19,19,19,1,0.6,0.4,0.8,0.2,1,0,,,,,,,,,,,,,,,,,,,,,,,,,,,,,,,,,,,,
,,5d7957036797da0019537ad1,66fc9907b4165711b6f3b187,2024-10-01_18h56.57.851,mdp,2024.2.1,Win32,60.0240096,66fa4ebf79326e780c390304,,,,,,,,,,,,,,,,,,,,,1607.393,1607.393,1607.396,1608.458,1,0,right,0.535,,1608.461,1608.462,0,1,,1608.464,1608.466,1,1,,1,1608.466,1608.466,1608.466,1609.956,0,20,20,20,1,0.6,0.4,0.8,0.2,1,0,,,,,,,,,,,,,,,,,,,,,,,,,,,,,,,,,,,,
,,5d7957036797da0019537ad1,66fc9907b4165711b6f3b187,2024-10-01_18h56.57.851,mdp,2024.2.1,Win32,60.0240096,66fa4ebf79326e780c390304,,,,,,,,,,,,,,,,,,,,,1609.96,1609.96,1609.962,1613.237,0,0,left,2.752,,1613.242,1613.244,0,0,,1613.245,1613.246,1,0,,1,1613.246,1613.246,1613.247,1614.737,0,21,21,21,1,0.6,0.4,0.8,0.2,1,0,,,,,,,,,,,,,,,,,,,,,,,,,,,,,,,,,,,,
,,5d7957036797da0019537ad1,66fc9907b4165711b6f3b187,2024-10-01_18h56.57.851,mdp,2024.2.1,Win32,60.0240096,66fa4ebf79326e780c390304,,,,,,,,,,,,,,,,,,,,,1614.739,1614.74,1614.74,1615.887,0,0,left,0.634,,1615.891,1615.895,0,1,,1615.896,1615.897,1,1,,1,1615.897,1615.897,1615.898,1617.387,0,22,22,22,1,0.6,0.4,0.8,0.2,1,0,,,,,,,,,,,,,,,,,,,,,,,,,,,,,,,,,,,,
,,5d7957036797da0019537ad1,66fc9907b4165711b6f3b187,2024-10-01_18h56.57.851,mdp,2024.2.1,Win32,60.0240096,66fa4ebf79326e780c390304,,,,,,,,,,,,,,,,,,,,,1617.391,1617.391,1617.393,1618.619,0,0,left,0.706,,1618.624,1618.626,0,0,,1618.627,1618.628,1,1,,1,1618.628,1618.628,1618.629,1620.12,0,23,23,23,1,0.6,0.4,0.8,0.2,1,0,,,,,,,,,,,,,,,,,,,,,,,,,,,,,,,,,,,,
,,5d7957036797da0019537ad1,66fc9907b4165711b6f3b187,2024-10-01_18h56.57.851,mdp,2024.2.1,Win32,60.0240096,66fa4ebf79326e780c390304,,,,,,,,,,,,,,,,,,,,,1620.126,1620.126,1620.127,1621.238,0,1,left,0.587,,1621.24,1621.242,0,1,,1621.242,1621.244,1,1,,0,1621.244,1621.244,1621.244,1622.739,0,24,24,24,1,0.4,0.6,0.6,0.4,1,0,,,,,,,,,,,,,,,,,,,,,,,,,,,,,,,,,,,,
,,5d7957036797da0019537ad1,66fc9907b4165711b6f3b187,2024-10-01_18h56.57.851,mdp,2024.2.1,Win32,60.0240096,66fa4ebf79326e780c390304,,,,,,,,,,,,,,,,,,,,,1622.742,1622.742,1622.743,1624.558,0,0,left,1.287,,1624.56,1624.562,0,0,,1624.564,1624.565,1,0,,1,1624.565,1624.565,1624.567,1626.057,0,25,25,25,1,0.8,0.2,0.4,0.6,1,0,,,,,,,,,,,,,,,,,,,,,,,,,,,,,,,,,,,,
,,5d7957036797da0019537ad1,66fc9907b4165711b6f3b187,2024-10-01_18h56.57.851,mdp,2024.2.1,Win32,60.0240096,66fa4ebf79326e780c390304,,,,,,,,,,,,,,,,,,,,,1626.059,1626.059,1626.059,1626.873,0,0,left,0.292,,1626.88,1626.883,0,0,,1626.884,1626.887,1,0,,1,1626.887,1626.887,1626.888,1628.386,0,26,26,26,1,0.8,0.2,0.4,0.6,1,0,,,,,,,,,,,,,,,,,,,,,,,,,,,,,,,,,,,,
,,5d7957036797da0019537ad1,66fc9907b4165711b6f3b187,2024-10-01_18h56.57.851,mdp,2024.2.1,Win32,60.0240096,66fa4ebf79326e780c390304,,,,,,,,,,,,,,,,,,,,,1628.392,1628.392,1628.394,1629.143,0,1,left,0.227,,1629.145,1629.147,0,0,,1629.148,1629.15,1,1,,0,1629.15,1629.15,1629.152,1630.659,0,27,27,27,1,0.2,0.8,0.8,0.2,1,0,,,,,,,,,,,,,,,,,,,,,,,,,,,,,,,,,,,,
,,5d7957036797da0019537ad1,66fc9907b4165711b6f3b187,2024-10-01_18h56.57.851,mdp,2024.2.1,Win32,60.0240096,66fa4ebf79326e780c390304,,,,,,,,,,,,,,,,,,,,,1630.659,1630.659,1630.661,1633.287,0,1,left,2.102,,1633.289,1633.291,0,1,,1633.292,1633.294,1,1,,0,1633.294,1633.294,1633.295,1634.786,0,28,28,28,1,0.2,0.8,0.8,0.2,1,0,,,,,,,,,,,,,,,,,,,,,,,,,,,,,,,,,,,,
,,5d7957036797da0019537ad1,66fc9907b4165711b6f3b187,2024-10-01_18h56.57.851,mdp,2024.2.1,Win32,60.0240096,66fa4ebf79326e780c390304,,,,,,,,,,,,,,,,,,,,,1634.788,1634.789,1634.79,1639.389,0,0,left,4.073,,1639.39,1639.392,0,1,,1639.394,1639.395,1,1,,1,1639.395,1639.395,1639.396,1640.885,0,29,29,29,1,0.2,0.8,0.8,0.2,1,0,,,,,,,,,,,,,,,,,,,,,,,,,,,,,,,,,,,,
,,5d7957036797da0019537ad1,66fc9907b4165711b6f3b187,2024-10-01_18h56.57.851,mdp,2024.2.1,Win32,60.0240096,66fa4ebf79326e780c390304,,,,,,,,,,,,,,,,,,,,,1640.889,1640.889,1640.89,1643.355,0,0,left,1.936,,1643.358,1643.361,0,0,,1643.362,1643.363,1,0,,1,1643.364,1643.364,1643.364,1644.852,0,30,30,30,1,0.6,0.4,0.2,0.8,1,0,,,,,,,,,,,,,,,,,,,,,,,,,,,,,,,,,,,,
,,5d7957036797da0019537ad1,66fc9907b4165711b6f3b187,2024-10-01_18h56.57.851,mdp,2024.2.1,Win32,60.0240096,66fa4ebf79326e780c390304,,,,,,,,,,,,,,,,,,,,,1644.859,1644.859,1644.861,1646.522,1,0,right,1.143,,1646.523,1646.524,0,1,,1646.525,1646.526,1,1,,1,1646.526,1646.526,1646.527,1648.019,0,31,31,31,1,0.6,0.4,0.2,0.8,1,0,,,,,,,,,,,,,,,,,,,,,,,,,,,,,,,,,,,,
,,5d7957036797da0019537ad1,66fc9907b4165711b6f3b187,2024-10-01_18h56.57.851,mdp,2024.2.1,Win32,60.0240096,66fa4ebf79326e780c390304,,,,,,,,,,,,,,,,,,,,,1648.022,1648.023,1648.024,1649.352,1,1,right,0.804,,1649.359,1649.362,0,1,,1649.363,1649.364,1,0,,0,1649.364,1649.364,1649.365,1650.867,0,32,32,32,1,0.6,0.4,0.2,0.8,1,0,,,,,,,,,,,,,,,,,,,,,,,,,,,,,,,,,,,,
,,5d7957036797da0019537ad1,66fc9907b4165711b6f3b187,2024-10-01_18h56.57.851,mdp,2024.2.1,Win32,60.0240096,66fa4ebf79326e780c390304,,,,,,,,,,,,,,,,,,,,,1650.87,1650.87,1650.871,1651.821,1,0,right,0.422,,1651.822,1651.824,0,1,,1651.825,1651.826,1,1,,1,1651.826,1651.826,1651.826,1653.317,0,33,33,33,1,0.6,0.4,0.2,0.8,1,0,,,,,,,,,,,,,,,,,,,,,,,,,,,,,,,,,,,,
,,5d7957036797da0019537ad1,66fc9907b4165711b6f3b187,2024-10-01_18h56.57.851,mdp,2024.2.1,Win32,60.0240096,66fa4ebf79326e780c390304,,,,,,,,,,,,,,,,,,,,,1653.319,1653.319,1653.32,1654.251,1,0,right,0.405,,1654.256,1654.257,0,0,,1654.258,1654.258,1,0,,1,1654.258,1654.258,1654.259,1655.751,0,34,34,34,1,0.8,0.2,0.8,0.2,1,0,,,,,,,,,,,,,,,,,,,,,,,,,,,,,,,,,,,,
,,5d7957036797da0019537ad1,66fc9907b4165711b6f3b187,2024-10-01_18h56.57.851,mdp,2024.2.1,Win32,60.0240096,66fa4ebf79326e780c390304,,,,,,,,,,,,,,,,,,,,,1655.756,1655.756,1655.757,1657.085,1,1,right,0.803,,1657.091,1657.093,0,0,,1657.095,1657.096,1,0,,0,1657.097,1657.097,1657.098,1658.59,0,35,35,35,1,0.8,0.2,0.8,0.2,1,0,,,,,,,,,,,,,,,,,,,,,,,,,,,,,,,,,,,,
,,5d7957036797da0019537ad1,66fc9907b4165711b6f3b187,2024-10-01_18h56.57.851,mdp,2024.2.1,Win32,60.0240096,66fa4ebf79326e780c390304,,,,,,,,,,,,,,,,,,,,,1658.597,1658.598,1658.606,1659.725,1,0,right,0.616,,1659.727,1659.729,0,1,,1659.731,1659.733,1,0,,1,1659.733,1659.733,1659.736,1661.235,0,36,36,36,1,0.8,0.2,0.8,0.2,1,0,,,,,,,,,,,,,,,,,,,,,,,,,,,,,,,,,,,,
,,5d7957036797da0019537ad1,66fc9907b4165711b6f3b187,2024-10-01_18h56.57.851,mdp,2024.2.1,Win32,60.0240096,66fa4ebf79326e780c390304,,,,,,,,,,,,,,,,,,,,,1661.235,1661.235,1661.237,1661.873,1,1,right,0.121,,1661.875,1661.877,0,1,,1661.878,1661.88,1,1,,0,1661.88,1661.88,1661.881,1663.371,0,37,37,37,1,0.6,0.4,0.4,0.6,1,0,,,,,,,,,,,,,,,,,,,,,,,,,,,,,,,,,,,,
,,5d7957036797da0019537ad1,66fc9907b4165711b6f3b187,2024-10-01_18h56.57.851,mdp,2024.2.1,Win32,60.0240096,66fa4ebf79326e780c390304,,,,,,,,,,,,,,,,,,,,,1663.373,1663.373,1663.375,1664.518,1,1,right,0.619,,1664.523,1664.526,0,1,,1664.528,1664.53,1,1,,0,1664.53,1664.53,1664.531,1666.034,0,38,38,38,1,0.6,0.4,0.4,0.6,1,0,,,,,,,,,,,,,,,,,,,,,,,,,,,,,,,,,,,,
,,5d7957036797da0019537ad1,66fc9907b4165711b6f3b187,2024-10-01_18h56.57.851,mdp,2024.2.1,Win32,60.0240096,66fa4ebf79326e780c390304,,,,,,,,,,,,,,,,,,,,,1666.038,1666.038,1666.04,1667.117,1,0,right,0.555,,1667.123,1667.125,0,0,,1667.126,1667.127,1,1,,1,1667.127,1667.127,1667.128,1668.617,0,39,39,39,1,0.6,0.4,0.4,0.6,1,0,,,,,,,,,,,,,,,,,,,,,,,,,,,,,,,,,,,,
,,5d7957036797da0019537ad1,66fc9907b4165711b6f3b187,2024-10-01_18h56.57.851,mdp,2024.2.1,Win32,60.0240096,66fa4ebf79326e780c390304,,,,,,,,,,,,,,,,,,,,,1668.622,1668.622,1668.623,1669.837,0,1,left,0.68,,1669.84,1669.841,0,0,,1669.843,1669.845,1,1,,0,1669.846,1669.846,1669.847,1671.335,0,40,40,40,1,0.6,0.4,0.4,0.6,1,0,,,,,,,,,,,,,,,,,,,,,,,,,,,,,,,,,,,,
,,5d7957036797da0019537ad1,66fc9907b4165711b6f3b187,2024-10-01_18h56.57.851,mdp,2024.2.1,Win32,60.0240096,66fa4ebf79326e780c390304,,,,,,,,,,,,,,,,,,,,,1671.337,1671.337,1671.337,1672.117,0,1,left,0.253,,1672.123,1672.125,0,0,,1672.126,1672.127,1,0,,0,1672.127,1672.127,1672.128,1673.617,0,41,41,41,1,0.6,0.4,0.4,0.6,1,0,,,,,,,,,,,,,,,,,,,,,,,,,,,,,,,,,,,,
,,5d7957036797da0019537ad1,66fc9907b4165711b6f3b187,2024-10-01_18h56.57.851,mdp,2024.2.1,Win32,60.0240096,66fa4ebf79326e780c390304,,,,,,,,,,,,,,,,,,,,,1673.62,1673.62,1673.622,1674.45,0,1,left,0.301,,1674.457,1674.461,0,0,,1674.463,1674.465,1,1,,0,1674.466,1674.466,1674.47,1675.967,0,42,42,42,1,0.6,0.4,0.4,0.6,1,0,,,,,,,,,,,,,,,,,,,,,,,,,,,,,,,,,,,,
,,5d7957036797da0019537ad1,66fc9907b4165711b6f3b187,2024-10-01_18h56.57.851,mdp,2024.2.1,Win32,60.0240096,66fa4ebf79326e780c390304,,,,,,,,,,,,,,,,,,,,,1675.971,1675.971,1675.973,1677.166,0,1,left,0.665,,1677.169,1677.171,0,1,,1677.172,1677.174,1,0,,0,1677.174,1677.174,1677.175,1678.667,0,43,43,43,1,0.6,0.4,0.4,0.6,1,0,,,,,,,,,,,,,,,,,,,,,,,,,,,,,,,,,,,,
,,5d7957036797da0019537ad1,66fc9907b4165711b6f3b187,2024-10-01_18h56.57.851,mdp,2024.2.1,Win32,60.0240096,66fa4ebf79326e780c390304,,,,,,,,,,,,,,,,,,,,,1678.672,1678.672,1678.674,1680.666,0,0,left,1.464,,1680.67,1680.672,0,1,,1680.673,1680.674,1,1,,1,1680.674,1680.674,1680.675,1682.167,0,44,44,44,1,0.8,0.2,0.8,0.2,1,0,,,,,,,,,,,,,,,,,,,,,,,,,,,,,,,,,,,,
,,5d7957036797da0019537ad1,66fc9907b4165711b6f3b187,2024-10-01_18h56.57.851,mdp,2024.2.1,Win32,60.0240096,66fa4ebf79326e780c390304,,,,,,,,,,,,,,,,,,,,,1682.168,1682.168,1682.169,1683.204,0,0,left,0.515,,1683.207,1683.208,0,0,,1683.21,1683.211,1,0,,1,1683.211,1683.211,1683.217,1684.7,0,45,45,45,1,0.8,0.2,0.8,0.2,1,0,,,,,,,,,,,,,,,,,,,,,,,,,,,,,,,,,,,,
,,5d7957036797da0019537ad1,66fc9907b4165711b6f3b187,2024-10-01_18h56.57.851,mdp,2024.2.1,Win32,60.0240096,66fa4ebf79326e780c390304,,,,,,,,,,,,,,,,,,,,,1684.707,1684.707,1684.708,1685.6,0,0,left,0.363,,1685.602,1685.604,0,0,,1685.604,1685.605,1,0,,1,1685.605,1685.605,1685.606,1687.099,0,46,46,46,1,0.8,0.2,0.8,0.2,1,0,,,,,,,,,,,,,,,,,,,,,,,,,,,,,,,,,,,,
,,5d7957036797da0019537ad1,66fc9907b4165711b6f3b187,2024-10-01_18h56.57.851,mdp,2024.2.1,Win32,60.0240096,66fa4ebf79326e780c390304,,,,,,,,,,,,,,,,,,,,,1687.1,1687.1,1687.101,1687.785,0,0,left,0.155,,1687.788,1687.79,0,0,,1687.791,1687.792,1,0,,1,1687.792,1687.792,1687.793,1689.288,0,47,47,47,1,0.8,0.2,0.8,0.2,1,0,,,,,,,,,,,,,,,,,,,,,,,,,,,,,,,,,,,,
,,5d7957036797da0019537ad1,66fc9907b4165711b6f3b187,2024-10-01_18h56.57.851,mdp,2024.2.1,Win32,60.0240096,66fa4ebf79326e780c390304,,,,,,,,,,,,,,,,,,,,,1689.295,1689.295,1689.305,1690.185,0,1,left,0.371,,1690.187,1690.188,0,0,,1690.189,1690.19,1,0,,0,1690.19,1690.19,1690.191,1691.684,0,48,48,48,1,0.8,0.2,0.8,0.2,1,0,,,,,,,,,,,,,,,,,,,,,,,,,,,,,,,,,,,,
,,5d7957036797da0019537ad1,66fc9907b4165711b6f3b187,2024-10-01_18h56.57.851,mdp,2024.2.1,Win32,60.0240096,66fa4ebf79326e780c390304,,,,,,,,,,,,,,,,,,,,,1691.685,1691.685,1691.687,1694.185,1,1,right,1.982,,1694.188,1694.19,0,0,,1694.192,1694.193,1,1,,0,1694.193,1694.193,1694.196,1695.684,0,49,49,49,1,0.8,0.2,0.8,0.2,1,0,,,,,,,,,,,,,,,,,,,,,,,,,,,,,,,,,,,,
