init_exp.started,init_exp.stopped,participant,session,date,expName,psychopyVersion,OS,frameRate,study_id,disp_instruction.started,disp_instruction.stopped,instruction.thisRepN,instruction.thisTrialN,instruction.thisN,instruction.thisIndex,instruction.ran,instimg_path,consent.started,consent.stopped,key_resp_3.keys,key_resp_3.rt,key_resp_3.duration,n_steps,sequence_path,init_block.started,init_block.stopped,key_resp.keys,key_resp.rt,key_resp.duration,init_trials.started,init_trials.stopped,step0.started,step0.stopped,act0,s1,res0.keys,res0.rt,res0.duration,step1.started,step1.stopped,act1,s2,res1.keys,step2.started,step2.stopped,act2,s3,res2.keys,rew,reward_comp.started,reward_comp.stopped,reward_disp.started,reward_disp.stopped,trials.thisRepN,trials.thisTrialN,trials.thisN,trials.thisIndex,trials.ran,s00a0s10,s00a0s11,s00a1s10,s00a1s11,rew10,rew11,break_block.started,break_block.stopped,block.thisRepN,block.thisTrialN,block.thisN,block.thisIndex,block.ran,s00path,s10path,s11path,s20path,s21path,res1.rt,res1.duration,s10a0s20,s10a0s21,s10a1s20,s10a1s21,s11a0s20,s11a0s21,s11a1s20,s11a1s21,rew20,rew21,res2.rt,res2.duration,s20a0s30,s20a0s31,s20a1s30,s20a1s31,s21a0s30,s21a0s31,s21a1s30,s21a1s31,rew30,rew31
0,0.0007,5d7df958cb6cf00001399929,66fce6cb3397cd8e465b92d6,2024-10-02_08h23.20.265,mdp,2024.2.1,Win32,60.24096386,66fa4ebf79326e780c390304,,,,,,,,,,,,,,,,,,,,,,,,,,,,,,,,,,,,,,,,,,,,,,,,,,,,,,,,,,,,,,,,,,,,,,,,,,,,,,,,,,,,,,,,,,,
,,5d7df958cb6cf00001399929,66fce6cb3397cd8e465b92d6,2024-10-02_08h23.20.265,mdp,2024.2.1,Win32,60.24096386,66fa4ebf79326e780c390304,0.003,29.0793,0,0,0,0,1,rlnn_exp/rlnn_exp.001.png,,,,,,,,,,,,,,,,,,,,,,,,,,,,,,,,,,,,,,,,,,,,,,,,,,,,,,,,,,,,,,,,,,,,,,,,,,,,,,,,,,,
,,5d7df958cb6cf00001399929,66fce6cb3397cd8e465b92d6,2024-10-02_08h23.20.265,mdp,2024.2.1,Win32,60.24096386,66fa4ebf79326e780c390304,29.0797,58.0796,0,1,1,1,1,rlnn_exp/rlnn_exp.002.png,,,,,,,,,,,,,,,,,,,,,,,,,,,,,,,,,,,,,,,,,,,,,,,,,,,,,,,,,,,,,,,,,,,,,,,,,,,,,,,,,,,
,,5d7df958cb6cf00001399929,66fce6cb3397cd8e465b92d6,2024-10-02_08h23.20.265,mdp,2024.2.1,Win32,60.24096386,66fa4ebf79326e780c390304,58.0798,76.4965,0,2,2,2,1,rlnn_exp/rlnn_exp.003.png,,,,,,,,,,,,,,,,,,,,,,,,,,,,,,,,,,,,,,,,,,,,,,,,,,,,,,,,,,,,,,,,,,,,,,,,,,,,,,,,,,,
,,5d7df958cb6cf00001399929,66fce6cb3397cd8e465b92d6,2024-10-02_08h23.20.265,mdp,2024.2.1,Win32,60.24096386,66fa4ebf79326e780c390304,76.4968,106.5805,0,3,3,3,1,rlnn_exp/rlnn_exp.004.png,,,,,,,,,,,,,,,,,,,,,,,,,,,,,,,,,,,,,,,,,,,,,,,,,,,,,,,,,,,,,,,,,,,,,,,,,,,,,,,,,,,
,,5d7df958cb6cf00001399929,66fce6cb3397cd8e465b92d6,2024-10-02_08h23.20.265,mdp,2024.2.1,Win32,60.24096386,66fa4ebf79326e780c390304,,,,,,,,,106.5806,120.2641,y,3.6485,,,,,,,,,,,,,,,,,,,,,,,,,,,,,,,,,,,,,,,,,,,,,,,,,,,,,,,,,,,,,,,,,,,,,,,,,,,,,,,
,,5d7df958cb6cf00001399929,66fce6cb3397cd8e465b92d6,2024-10-02_08h23.20.265,mdp,2024.2.1,Win32,60.24096386,66fa4ebf79326e780c390304,,,,,,,,,,,,,,1,seqs/st1seq43.csv,120.2659,122.4974,space,1.7061,,122.4988,122.4989,122.4991,124.1642,0,0,left,1.1431,,124.1645,124.1653,,0,,124.1654,124.1658,,0,,1,124.1659,124.1659,124.1661,125.6643,0,0,0,0,1,0.8,0.2,0.4,0.6,1,0,,,,,,,,,,,,,,,,,,,,,,,,,,,,,,,,,,,,
,,5d7df958cb6cf00001399929,66fce6cb3397cd8e465b92d6,2024-10-02_08h23.20.265,mdp,2024.2.1,Win32,60.24096386,66fa4ebf79326e780c390304,,,,,,,,,,,,,,,,,,,,,125.6645,125.6645,125.6649,127.0642,0,0,left,0.8744,,127.0646,127.0649,,0,,127.0651,127.0653,,0,,1,127.0653,127.0653,127.0655,128.5643,0,1,1,1,1,0.8,0.2,0.4,0.6,1,0,,,,,,,,,,,,,,,,,,,,,,,,,,,,,,,,,,,,
,,5d7df958cb6cf00001399929,66fce6cb3397cd8e465b92d6,2024-10-02_08h23.20.265,mdp,2024.2.1,Win32,60.24096386,66fa4ebf79326e780c390304,,,,,,,,,,,,,,,,,,,,,128.5645,128.5645,128.565,129.6309,0,0,left,0.5345,,129.6313,129.6316,,0,,129.6318,129.632,,1,,1,129.632,129.632,129.6323,131.1309,0,2,2,2,1,0.8,0.2,0.4,0.6,1,0,,,,,,,,,,,,,,,,,,,,,,,,,,,,,,,,,,,,
,,5d7df958cb6cf00001399929,66fce6cb3397cd8e465b92d6,2024-10-02_08h23.20.265,mdp,2024.2.1,Win32,60.24096386,66fa4ebf79326e780c390304,,,,,,,,,,,,,,,,,,,,,131.1311,131.1311,131.1315,132.1477,0,0,left,0.4961,,132.1481,132.1484,,0,,132.1486,132.1488,,0,,1,132.1489,132.1489,132.149,133.6475,0,3,3,3,1,0.8,0.2,0.4,0.6,1,0,,,,,,,,,,,,,,,,,,,,,,,,,,,,,,,,,,,,
,,5d7df958cb6cf00001399929,66fce6cb3397cd8e465b92d6,2024-10-02_08h23.20.265,mdp,2024.2.1,Win32,60.24096386,66fa4ebf79326e780c390304,,,,,,,,,,,,,,,,,,,,,133.6477,133.6477,133.6481,134.6476,0,0,left,0.4747,,134.648,134.6482,,0,,134.6485,134.6487,,0,,1,134.6487,134.6487,134.6489,136.1477,0,4,4,4,1,0.8,0.2,0.4,0.6,1,0,,,,,,,,,,,,,,,,,,,,,,,,,,,,,,,,,,,,
,,5d7df958cb6cf00001399929,66fce6cb3397cd8e465b92d6,2024-10-02_08h23.20.265,mdp,2024.2.1,Win32,60.24096386,66fa4ebf79326e780c390304,,,,,,,,,,,,,,,,,,,,,136.1479,136.1479,136.1483,137.0643,0,0,left,0.3876,,137.0647,137.065,,0,,137.0652,137.0654,,1,,1,137.0654,137.0654,137.0656,138.5644,0,5,5,5,1,0.8,0.2,0.4,0.6,1,0,,,,,,,,,,,,,,,,,,,,,,,,,,,,,,,,,,,,
,,5d7df958cb6cf00001399929,66fce6cb3397cd8e465b92d6,2024-10-02_08h23.20.265,mdp,2024.2.1,Win32,60.24096386,66fa4ebf79326e780c390304,,,,,,,,,,,,,,,,,,,,,138.5647,138.5647,138.5651,139.5478,0,0,left,0.4517,,139.5482,139.5485,,0,,139.5487,139.5489,,0,,1,139.5489,139.5489,139.5491,141.0478,0,6,6,6,1,0.8,0.2,0.4,0.6,1,0,,,,,,,,,,,,,,,,,,,,,,,,,,,,,,,,,,,,
,,5d7df958cb6cf00001399929,66fce6cb3397cd8e465b92d6,2024-10-02_08h23.20.265,mdp,2024.2.1,Win32,60.24096386,66fa4ebf79326e780c390304,,,,,,,,,,,,,,,,,,,,,141.0479,141.0479,141.0484,141.9144,0,0,left,0.3372,,141.9148,141.9151,,0,,141.9153,141.9154,,0,,1,141.9154,141.9154,141.9156,143.4144,0,7,7,7,1,0.8,0.2,0.4,0.6,1,0,,,,,,,,,,,,,,,,,,,,,,,,,,,,,,,,,,,,
,,5d7df958cb6cf00001399929,66fce6cb3397cd8e465b92d6,2024-10-02_08h23.20.265,mdp,2024.2.1,Win32,60.24096386,66fa4ebf79326e780c390304,,,,,,,,,,,,,,,,,,,,,143.4146,143.4146,143.4149,144.3145,0,0,left,0.3722,,144.3149,144.3152,,0,,144.3154,144.3156,,0,,1,144.3156,144.3157,144.3158,145.8145,0,8,8,8,1,0.8,0.2,0.4,0.6,1,0,,,,,,,,,,,,,,,,,,,,,,,,,,,,,,,,,,,,
,,5d7df958cb6cf00001399929,66fce6cb3397cd8e465b92d6,2024-10-02_08h23.20.265,mdp,2024.2.1,Win32,60.24096386,66fa4ebf79326e780c390304,,,,,,,,,,,,,,,,,,,,,145.8146,145.8147,145.815,146.7645,0,0,left,0.42,,146.765,146.7651,,0,,146.7654,146.7656,,0,,1,146.7656,146.7656,146.7658,148.2645,0,9,9,9,1,0.8,0.2,0.4,0.6,1,0,,,,,,,,,,,,,,,,,,,,,,,,,,,,,,,,,,,,
,,5d7df958cb6cf00001399929,66fce6cb3397cd8e465b92d6,2024-10-02_08h23.20.265,mdp,2024.2.1,Win32,60.24096386,66fa4ebf79326e780c390304,,,,,,,,,,,,,,,,,,,,,148.2647,148.2647,148.265,149.1313,1,1,right,0.3376,,149.1317,149.132,,0,,149.1323,149.1324,,0,,0,149.1325,149.1325,149.1327,150.6312,0,10,10,10,1,0.8,0.2,0.4,0.6,1,0,,,,,,,,,,,,,,,,,,,,,,,,,,,,,,,,,,,,
,,5d7df958cb6cf00001399929,66fce6cb3397cd8e465b92d6,2024-10-02_08h23.20.265,mdp,2024.2.1,Win32,60.24096386,66fa4ebf79326e780c390304,,,,,,,,,,,,,,,,,,,,,150.6314,150.6314,150.6318,151.5812,0,0,left,0.4201,,151.5816,151.5819,,1,,151.5822,151.5823,,0,,1,151.5823,151.5823,151.5825,153.0812,0,11,11,11,1,0.8,0.2,0.4,0.6,1,0,,,,,,,,,,,,,,,,,,,,,,,,,,,,,,,,,,,,
,,5d7df958cb6cf00001399929,66fce6cb3397cd8e465b92d6,2024-10-02_08h23.20.265,mdp,2024.2.1,Win32,60.24096386,66fa4ebf79326e780c390304,,,,,,,,,,,,,,,,,,,,,153.0814,153.0814,153.0817,153.998,0,1,left,0.3842,,153.9984,153.9987,,0,,153.9989,153.9991,,0,,0,153.9991,153.9991,153.9994,155.4981,0,12,12,12,1,0.8,0.2,0.4,0.6,1,0,,,,,,,,,,,,,,,,,,,,,,,,,,,,,,,,,,,,
,,5d7df958cb6cf00001399929,66fce6cb3397cd8e465b92d6,2024-10-02_08h23.20.265,mdp,2024.2.1,Win32,60.24096386,66fa4ebf79326e780c390304,,,,,,,,,,,,,,,,,,,,,155.4981,155.4981,155.4986,156.598,1,0,right,0.5763,,156.5984,156.5987,,0,,156.5989,156.5991,,1,,1,156.5991,156.5992,156.5992,158.0982,0,13,13,13,1,0.8,0.2,0.4,0.6,1,0,,,,,,,,,,,,,,,,,,,,,,,,,,,,,,,,,,,,
,,5d7df958cb6cf00001399929,66fce6cb3397cd8e465b92d6,2024-10-02_08h23.20.265,mdp,2024.2.1,Win32,60.24096386,66fa4ebf79326e780c390304,,,,,,,,,,,,,,,,,,,,,158.0983,158.0983,158.0987,159.1314,1,0,right,0.5003,,159.1317,159.132,,1,,159.1322,159.1324,,0,,1,159.1325,159.1325,159.1326,160.6314,0,14,14,14,1,0.8,0.2,0.4,0.6,1,0,,,,,,,,,,,,,,,,,,,,,,,,,,,,,,,,,,,,
,,5d7df958cb6cf00001399929,66fce6cb3397cd8e465b92d6,2024-10-02_08h23.20.265,mdp,2024.2.1,Win32,60.24096386,66fa4ebf79326e780c390304,,,,,,,,,,,,,,,,,,,,,160.6315,160.6315,160.6319,163.1314,1,1,right,1.9791,,163.1318,163.1321,,0,,163.1324,163.1325,,1,,0,163.1325,163.1325,163.1327,164.6314,0,15,15,15,1,0.8,0.2,0.4,0.6,1,0,,,,,,,,,,,,,,,,,,,,,,,,,,,,,,,,,,,,
,,5d7df958cb6cf00001399929,66fce6cb3397cd8e465b92d6,2024-10-02_08h23.20.265,mdp,2024.2.1,Win32,60.24096386,66fa4ebf79326e780c390304,,,,,,,,,,,,,,,,,,,,,164.6316,164.6316,164.6319,165.9315,0,1,left,0.7698,,165.9319,165.9322,,1,,165.9324,165.9325,,0,,0,165.9325,165.9325,165.9327,167.4316,0,16,16,16,1,0.8,0.2,0.4,0.6,1,0,,,,,,,,,,,,,,,,,,,,,,,,,,,,,,,,,,,,
,,5d7df958cb6cf00001399929,66fce6cb3397cd8e465b92d6,2024-10-02_08h23.20.265,mdp,2024.2.1,Win32,60.24096386,66fa4ebf79326e780c390304,,,,,,,,,,,,,,,,,,,,,167.4318,167.4318,167.4321,168.4148,0,1,left,0.4578,,168.4153,168.4155,,0,,168.4157,168.4159,,0,,0,168.4159,168.4159,168.4161,169.9148,0,17,17,17,1,0.8,0.2,0.4,0.6,1,0,,,,,,,,,,,,,,,,,,,,,,,,,,,,,,,,,,,,
,,5d7df958cb6cf00001399929,66fce6cb3397cd8e465b92d6,2024-10-02_08h23.20.265,mdp,2024.2.1,Win32,60.24096386,66fa4ebf79326e780c390304,,,,,,,,,,,,,,,,,,,,,169.915,169.915,169.9154,170.9316,1,1,right,0.4877,,170.9321,170.9324,,1,,170.9327,170.9328,,1,,0,170.9329,170.9329,170.9331,172.4317,0,18,18,18,1,0.8,0.2,0.4,0.6,1,0,,,,,,,,,,,,,,,,,,,,,,,,,,,,,,,,,,,,
,,5d7df958cb6cf00001399929,66fce6cb3397cd8e465b92d6,2024-10-02_08h23.20.265,mdp,2024.2.1,Win32,60.24096386,66fa4ebf79326e780c390304,,,,,,,,,,,,,,,,,,,,,172.4318,172.4318,172.4322,173.365,1,1,right,0.4026,,173.3653,173.3656,,0,,173.3659,173.366,,0,,0,173.366,173.366,173.3662,174.8651,0,19,19,19,1,0.4,0.6,0.6,0.4,1,0,,,,,,,,,,,,,,,,,,,,,,,,,,,,,,,,,,,,
,,5d7df958cb6cf00001399929,66fce6cb3397cd8e465b92d6,2024-10-02_08h23.20.265,mdp,2024.2.1,Win32,60.24096386,66fa4ebf79326e780c390304,,,,,,,,,,,,,,,,,,,,,174.8652,174.8652,174.8656,175.7984,0,1,left,0.4091,,175.7988,175.799,,1,,175.7993,175.7995,,0,,0,175.7995,175.7995,175.7996,177.2984,0,20,20,20,1,0.4,0.6,0.6,0.4,1,0,,,,,,,,,,,,,,,,,,,,,,,,,,,,,,,,,,,,
,,5d7df958cb6cf00001399929,66fce6cb3397cd8e465b92d6,2024-10-02_08h23.20.265,mdp,2024.2.1,Win32,60.24096386,66fa4ebf79326e780c390304,,,,,,,,,,,,,,,,,,,,,177.2986,177.2986,177.2988,178.2818,1,0,right,0.4561,,178.2822,178.2824,,1,,178.2826,178.2828,,0,,1,178.2828,178.2828,178.283,179.7818,0,21,21,21,1,0.4,0.6,0.6,0.4,1,0,,,,,,,,,,,,,,,,,,,,,,,,,,,,,,,,,,,,
,,5d7df958cb6cf00001399929,66fce6cb3397cd8e465b92d6,2024-10-02_08h23.20.265,mdp,2024.2.1,Win32,60.24096386,66fa4ebf79326e780c390304,,,,,,,,,,,,,,,,,,,,,179.7819,179.7819,179.7822,180.665,0,1,left,0.3499,,180.6655,180.6657,,0,,180.6659,180.6662,,0,,0,180.6662,180.6662,180.6663,182.1651,0,22,22,22,1,0.8,0.2,0.2,0.8,1,0,,,,,,,,,,,,,,,,,,,,,,,,,,,,,,,,,,,,
,,5d7df958cb6cf00001399929,66fce6cb3397cd8e465b92d6,2024-10-02_08h23.20.265,mdp,2024.2.1,Win32,60.24096386,66fa4ebf79326e780c390304,,,,,,,,,,,,,,,,,,,,,182.1652,182.1652,182.1656,183.1152,1,0,right,0.4212,,183.1158,183.116,,1,,183.1163,183.1164,,1,,1,183.1164,183.1164,183.1166,184.6151,0,23,23,23,1,0.8,0.2,0.2,0.8,1,0,,,,,,,,,,,,,,,,,,,,,,,,,,,,,,,,,,,,
,,5d7df958cb6cf00001399929,66fce6cb3397cd8e465b92d6,2024-10-02_08h23.20.265,mdp,2024.2.1,Win32,60.24096386,66fa4ebf79326e780c390304,,,,,,,,,,,,,,,,,,,,,184.6152,184.6152,184.6156,185.5652,1,0,right,0.4267,,185.5656,185.5658,,1,,185.566,185.5662,,1,,1,185.5662,185.5662,185.5664,187.0651,0,24,24,24,1,0.8,0.2,0.2,0.8,1,0,,,,,,,,,,,,,,,,,,,,,,,,,,,,,,,,,,,,
,,5d7df958cb6cf00001399929,66fce6cb3397cd8e465b92d6,2024-10-02_08h23.20.265,mdp,2024.2.1,Win32,60.24096386,66fa4ebf79326e780c390304,,,,,,,,,,,,,,,,,,,,,187.0653,187.0653,187.0657,188.0819,1,1,right,0.4836,,188.0823,188.0826,,1,,188.0828,188.0829,,0,,0,188.0829,188.083,188.0831,189.5819,0,25,25,25,1,0.8,0.2,0.2,0.8,1,0,,,,,,,,,,,,,,,,,,,,,,,,,,,,,,,,,,,,
,,5d7df958cb6cf00001399929,66fce6cb3397cd8e465b92d6,2024-10-02_08h23.20.265,mdp,2024.2.1,Win32,60.24096386,66fa4ebf79326e780c390304,,,,,,,,,,,,,,,,,,,,,189.5821,189.5821,189.5824,190.4153,0,0,left,0.3071,,190.4157,190.4159,,0,,190.4161,190.4163,,0,,1,190.4163,190.4163,190.4165,191.9153,0,26,26,26,1,0.8,0.2,0.2,0.8,1,0,,,,,,,,,,,,,,,,,,,,,,,,,,,,,,,,,,,,
,,5d7df958cb6cf00001399929,66fce6cb3397cd8e465b92d6,2024-10-02_08h23.20.265,mdp,2024.2.1,Win32,60.24096386,66fa4ebf79326e780c390304,,,,,,,,,,,,,,,,,,,,,191.9154,191.9154,191.9158,192.8987,0,1,left,0.45,,192.8991,192.8993,,0,,192.8996,192.8997,,0,,0,192.8997,192.8997,192.8998,194.3985,0,27,27,27,1,0.8,0.2,0.2,0.8,1,0,,,,,,,,,,,,,,,,,,,,,,,,,,,,,,,,,,,,
,,5d7df958cb6cf00001399929,66fce6cb3397cd8e465b92d6,2024-10-02_08h23.20.265,mdp,2024.2.1,Win32,60.24096386,66fa4ebf79326e780c390304,,,,,,,,,,,,,,,,,,,,,194.3987,194.3987,194.399,195.2154,1,1,right,0.2833,,195.2157,195.216,,0,,195.2161,195.2163,,1,,0,195.2163,195.2163,195.2165,196.7155,0,28,28,28,1,0.8,0.2,0.2,0.8,1,0,,,,,,,,,,,,,,,,,,,,,,,,,,,,,,,,,,,,
,,5d7df958cb6cf00001399929,66fce6cb3397cd8e465b92d6,2024-10-02_08h23.20.265,mdp,2024.2.1,Win32,60.24096386,66fa4ebf79326e780c390304,,,,,,,,,,,,,,,,,,,,,196.7156,196.7156,196.7159,197.5487,0,0,left,0.3027,,197.5492,197.5494,,0,,197.5497,197.5498,,0,,1,197.5498,197.5498,197.5501,199.0488,0,29,29,29,1,0.8,0.2,0.2,0.8,1,0,,,,,,,,,,,,,,,,,,,,,,,,,,,,,,,,,,,,
,,5d7df958cb6cf00001399929,66fce6cb3397cd8e465b92d6,2024-10-02_08h23.20.265,mdp,2024.2.1,Win32,60.24096386,66fa4ebf79326e780c390304,,,,,,,,,,,,,,,,,,,,,199.0489,199.049,199.0493,199.9156,0,0,left,0.3342,,199.9159,199.9161,,0,,199.9164,199.9165,,0,,1,199.9165,199.9165,199.9166,201.4155,0,30,30,30,1,0.8,0.2,0.2,0.8,1,0,,,,,,,,,,,,,,,,,,,,,,,,,,,,,,,,,,,,
,,5d7df958cb6cf00001399929,66fce6cb3397cd8e465b92d6,2024-10-02_08h23.20.265,mdp,2024.2.1,Win32,60.24096386,66fa4ebf79326e780c390304,,,,,,,,,,,,,,,,,,,,,201.4157,201.4157,201.4161,202.3823,0,0,left,0.4429,,202.3826,202.3828,,0,,202.383,202.3832,,0,,1,202.3832,202.3832,202.3834,203.8822,0,31,31,31,1,0.8,0.2,0.2,0.8,1,0,,,,,,,,,,,,,,,,,,,,,,,,,,,,,,,,,,,,
,,5d7df958cb6cf00001399929,66fce6cb3397cd8e465b92d6,2024-10-02_08h23.20.265,mdp,2024.2.1,Win32,60.24096386,66fa4ebf79326e780c390304,,,,,,,,,,,,,,,,,,,,,203.8824,203.8824,203.8827,204.8321,0,0,left,0.4167,,204.8326,204.8328,,1,,204.833,204.8331,,0,,1,204.8331,204.8331,204.8333,206.3323,0,32,32,32,1,0.8,0.2,0.2,0.8,1,0,,,,,,,,,,,,,,,,,,,,,,,,,,,,,,,,,,,,
,,5d7df958cb6cf00001399929,66fce6cb3397cd8e465b92d6,2024-10-02_08h23.20.265,mdp,2024.2.1,Win32,60.24096386,66fa4ebf79326e780c390304,,,,,,,,,,,,,,,,,,,,,206.3325,206.3325,206.3329,207.3655,0,0,left,0.5101,,207.3658,207.366,,1,,207.3663,207.3664,,1,,1,207.3664,207.3664,207.3667,208.8656,0,33,33,33,1,0.2,0.8,0.8,0.2,1,0,,,,,,,,,,,,,,,,,,,,,,,,,,,,,,,,,,,,
,,5d7df958cb6cf00001399929,66fce6cb3397cd8e465b92d6,2024-10-02_08h23.20.265,mdp,2024.2.1,Win32,60.24096386,66fa4ebf79326e780c390304,,,,,,,,,,,,,,,,,,,,,208.8657,208.8657,208.866,210.049,0,1,left,0.6566,,210.0493,210.0496,,1,,210.0498,210.05,,1,,0,210.05,210.05,210.0501,211.5489,0,34,34,34,1,0.2,0.8,0.8,0.2,1,0,,,,,,,,,,,,,,,,,,,,,,,,,,,,,,,,,,,,
,,5d7df958cb6cf00001399929,66fce6cb3397cd8e465b92d6,2024-10-02_08h23.20.265,mdp,2024.2.1,Win32,60.24096386,66fa4ebf79326e780c390304,,,,,,,,,,,,,,,,,,,,,211.549,211.549,211.5494,212.4824,1,1,right,0.4004,,212.4827,212.483,,0,,212.4832,212.4833,,1,,0,212.4833,212.4834,212.4835,213.9823,0,35,35,35,1,0.2,0.8,0.8,0.2,1,0,,,,,,,,,,,,,,,,,,,,,,,,,,,,,,,,,,,,
,,5d7df958cb6cf00001399929,66fce6cb3397cd8e465b92d6,2024-10-02_08h23.20.265,mdp,2024.2.1,Win32,60.24096386,66fa4ebf79326e780c390304,,,,,,,,,,,,,,,,,,,,,213.9824,213.9824,213.9828,214.8491,1,1,right,0.339,,214.8495,214.8496,,0,,214.8499,214.8501,,0,,0,214.8501,214.8501,214.8502,216.349,0,36,36,36,1,0.2,0.8,0.8,0.2,1,0,,,,,,,,,,,,,,,,,,,,,,,,,,,,,,,,,,,,
,,5d7df958cb6cf00001399929,66fce6cb3397cd8e465b92d6,2024-10-02_08h23.20.265,mdp,2024.2.1,Win32,60.24096386,66fa4ebf79326e780c390304,,,,,,,,,,,,,,,,,,,,,216.3491,216.3491,216.3495,217.1991,0,1,left,0.3254,,217.1995,217.1996,,1,,217.1998,217.2001,,0,,0,217.2001,217.2001,217.2002,218.699,0,37,37,37,1,0.2,0.8,0.8,0.2,1,0,,,,,,,,,,,,,,,,,,,,,,,,,,,,,,,,,,,,
,,5d7df958cb6cf00001399929,66fce6cb3397cd8e465b92d6,2024-10-02_08h23.20.265,mdp,2024.2.1,Win32,60.24096386,66fa4ebf79326e780c390304,,,,,,,,,,,,,,,,,,,,,218.6992,218.6992,218.6996,219.4825,1,0,right,0.2551,,219.4828,219.483,,0,,219.4833,219.4834,,0,,1,219.4835,219.4835,219.4836,220.9824,0,38,38,38,1,0.2,0.8,0.8,0.2,1,0,,,,,,,,,,,,,,,,,,,,,,,,,,,,,,,,,,,,
,,5d7df958cb6cf00001399929,66fce6cb3397cd8e465b92d6,2024-10-02_08h23.20.265,mdp,2024.2.1,Win32,60.24096386,66fa4ebf79326e780c390304,,,,,,,,,,,,,,,,,,,,,220.9825,220.9825,220.9829,221.9658,1,0,right,0.4518,,221.9662,221.9665,,0,,221.9667,221.9669,,0,,1,221.9669,221.9669,221.9671,223.4659,0,39,39,39,1,0.2,0.8,0.8,0.2,1,0,,,,,,,,,,,,,,,,,,,,,,,,,,,,,,,,,,,,
,,5d7df958cb6cf00001399929,66fce6cb3397cd8e465b92d6,2024-10-02_08h23.20.265,mdp,2024.2.1,Win32,60.24096386,66fa4ebf79326e780c390304,,,,,,,,,,,,,,,,,,,,,223.466,223.466,223.4668,224.4158,1,0,right,0.4174,,224.4162,224.4165,,0,,224.4167,224.4169,,0,,1,224.4169,224.4169,224.4171,225.9158,0,40,40,40,1,0.2,0.8,0.8,0.2,1,0,,,,,,,,,,,,,,,,,,,,,,,,,,,,,,,,,,,,
,,5d7df958cb6cf00001399929,66fce6cb3397cd8e465b92d6,2024-10-02_08h23.20.265,mdp,2024.2.1,Win32,60.24096386,66fa4ebf79326e780c390304,,,,,,,,,,,,,,,,,,,,,225.9159,225.9159,225.9163,226.8659,1,1,right,0.4172,,226.8663,226.8665,,0,,226.8668,226.867,,1,,0,226.867,226.867,226.8672,228.3659,0,41,41,41,1,0.8,0.2,0.2,0.8,1,0,,,,,,,,,,,,,,,,,,,,,,,,,,,,,,,,,,,,
,,5d7df958cb6cf00001399929,66fce6cb3397cd8e465b92d6,2024-10-02_08h23.20.265,mdp,2024.2.1,Win32,60.24096386,66fa4ebf79326e780c390304,,,,,,,,,,,,,,,,,,,,,228.366,228.3661,228.3664,229.1661,0,0,left,0.2676,,229.1665,229.1668,,1,,229.1671,229.1673,,0,,1,229.1673,229.1673,229.1674,230.666,0,42,42,42,1,0.8,0.2,0.2,0.8,1,0,,,,,,,,,,,,,,,,,,,,,,,,,,,,,,,,,,,,
,,5d7df958cb6cf00001399929,66fce6cb3397cd8e465b92d6,2024-10-02_08h23.20.265,mdp,2024.2.1,Win32,60.24096386,66fa4ebf79326e780c390304,,,,,,,,,,,,,,,,,,,,,230.6662,230.6662,230.6666,231.5494,0,0,left,0.3522,,231.5498,231.5502,,0,,231.5505,231.5507,,0,,1,231.5507,231.5507,231.5509,233.0493,0,43,43,43,1,0.8,0.2,0.2,0.8,1,0,,,,,,,,,,,,,,,,,,,,,,,,,,,,,,,,,,,,
,,5d7df958cb6cf00001399929,66fce6cb3397cd8e465b92d6,2024-10-02_08h23.20.265,mdp,2024.2.1,Win32,60.24096386,66fa4ebf79326e780c390304,,,,,,,,,,,,,,,,,,,,,233.0494,233.0494,233.0498,233.9493,0,1,left,0.3937,,233.9497,233.95,,1,,233.9502,233.9503,,1,,0,233.9504,233.9504,233.9506,235.4494,0,44,44,44,1,0.4,0.6,0.8,0.2,1,0,,,,,,,,,,,,,,,,,,,,,,,,,,,,,,,,,,,,
,,5d7df958cb6cf00001399929,66fce6cb3397cd8e465b92d6,2024-10-02_08h23.20.265,mdp,2024.2.1,Win32,60.24096386,66fa4ebf79326e780c390304,,,,,,,,,,,,,,,,,,,,,235.4495,235.4495,235.4499,236.2994,1,0,right,0.321,,236.2998,236.3,,0,,236.3003,236.3005,,1,,1,236.3005,236.3005,236.3007,237.7995,0,45,45,45,1,0.6,0.4,0.6,0.4,1,0,,,,,,,,,,,,,,,,,,,,,,,,,,,,,,,,,,,,
,,5d7df958cb6cf00001399929,66fce6cb3397cd8e465b92d6,2024-10-02_08h23.20.265,mdp,2024.2.1,Win32,60.24096386,66fa4ebf79326e780c390304,,,,,,,,,,,,,,,,,,,,,237.7996,237.7996,237.8,238.6828,1,0,right,0.35,,238.6832,238.6833,,1,,238.6836,238.6837,,0,,1,238.6837,238.6837,238.684,240.1828,0,46,46,46,1,0.6,0.4,0.6,0.4,1,0,,,,,,,,,,,,,,,,,,,,,,,,,,,,,,,,,,,,
,,5d7df958cb6cf00001399929,66fce6cb3397cd8e465b92d6,2024-10-02_08h23.20.265,mdp,2024.2.1,Win32,60.24096386,66fa4ebf79326e780c390304,,,,,,,,,,,,,,,,,,,,,240.1829,240.183,240.1833,241.0995,1,0,right,0.3954,,241.1,241.1002,,0,,241.1005,241.1006,,0,,1,241.1006,241.1006,241.1008,242.5995,0,47,47,47,1,0.6,0.4,0.6,0.4,1,0,,,,,,,,,,,,,,,,,,,,,,,,,,,,,,,,,,,,
,,5d7df958cb6cf00001399929,66fce6cb3397cd8e465b92d6,2024-10-02_08h23.20.265,mdp,2024.2.1,Win32,60.24096386,66fa4ebf79326e780c390304,,,,,,,,,,,,,,,,,,,,,242.5996,242.5996,242.6,243.5162,1,1,right,0.3945,,243.5167,243.5169,,1,,243.5171,243.5173,,1,,0,243.5173,243.5173,243.5175,245.0162,0,48,48,48,1,0.6,0.4,0.6,0.4,1,0,,,,,,,,,,,,,,,,,,,,,,,,,,,,,,,,,,,,
,,5d7df958cb6cf00001399929,66fce6cb3397cd8e465b92d6,2024-10-02_08h23.20.265,mdp,2024.2.1,Win32,60.24096386,66fa4ebf79326e780c390304,,,,,,,,,,,,,,,,,,,,,245.0164,245.0164,245.0167,245.8996,0,1,left,0.3541,,245.9,245.9002,,0,,245.9005,245.9005,,0,,0,245.9006,245.9006,245.9008,247.3995,0,49,49,49,1,0.8,0.2,0.2,0.8,1,0,,,,,,,,,,,,,,,,,,,,,,,,,,,,,,,,,,,,
,,5d7df958cb6cf00001399929,66fce6cb3397cd8e465b92d6,2024-10-02_08h23.20.265,mdp,2024.2.1,Win32,60.24096386,66fa4ebf79326e780c390304,,,,,,,,,,,,,,,,,,,,,,,,,,,,,,,,,,,,,,,,,,,,,,,,,,,,,,,,247.3997,305.9174,0,0,0,5,1,imgs/kangaroo.png,imgs/lion.png,imgs/giraffe.png,imgs/rabbit.png,imgs/elephant.png,,,,,,,,,,,,,,,,,,,,,,,,
,,5d7df958cb6cf00001399929,66fce6cb3397cd8e465b92d6,2024-10-02_08h23.20.265,mdp,2024.2.1,Win32,60.24096386,66fa4ebf79326e780c390304,,,,,,,,,,,,,,2,seqs/st2seq8.csv,305.9178,308.6673,space,2.2209,,308.6693,308.6693,308.6697,310.0174,0,0,left,0.8152,,310.0178,311.3174,1,0,right,311.3177,311.318,,0,,1,311.318,311.318,311.3182,312.8174,0,0,0,0,1,0.8,0.2,0.2,0.8,,,,,,,,,,,,,,,0.7834,,0.4,0.6,0.8,0.2,0.4,0.6,0.8,0.2,1,0,,,,,,,,,,,,
,,5d7df958cb6cf00001399929,66fce6cb3397cd8e465b92d6,2024-10-02_08h23.20.265,mdp,2024.2.1,Win32,60.24096386,66fa4ebf79326e780c390304,,,,,,,,,,,,,,,,,,,,,312.8176,312.8176,312.818,313.8174,0,0,left,0.4673,,313.8179,314.7174,1,1,right,314.7178,314.718,,0,,0,314.718,314.718,314.7182,316.2175,0,1,1,1,1,0.8,0.2,0.2,0.8,,,,,,,,,,,,,,,0.3688,,0.4,0.6,0.8,0.2,0.4,0.6,0.8,0.2,1,0,,,,,,,,,,,,
,,5d7df958cb6cf00001399929,66fce6cb3397cd8e465b92d6,2024-10-02_08h23.20.265,mdp,2024.2.1,Win32,60.24096386,66fa4ebf79326e780c390304,,,,,,,,,,,,,,,,,,,,,316.2177,316.2177,316.218,317.0342,0,0,left,0.2834,,317.0346,317.9675,0,1,left,317.9678,317.9681,,1,,0,317.9682,317.9682,317.9683,319.4675,0,2,2,2,1,0.8,0.2,0.2,0.8,,,,,,,,,,,,,,,0.408,,0.4,0.6,0.8,0.2,0.4,0.6,0.8,0.2,1,0,,,,,,,,,,,,
,,5d7df958cb6cf00001399929,66fce6cb3397cd8e465b92d6,2024-10-02_08h23.20.265,mdp,2024.2.1,Win32,60.24096386,66fa4ebf79326e780c390304,,,,,,,,,,,,,,,,,,,,,319.4677,319.4677,319.4681,320.4008,0,1,left,0.4013,,320.4012,321.2176,1,0,right,321.218,321.2182,,1,,1,321.2182,321.2182,321.2184,322.7175,0,3,3,3,1,0.8,0.2,0.2,0.8,,,,,,,,,,,,,,,0.3042,,0.4,0.6,0.8,0.2,0.6,0.4,0.4,0.6,1,0,,,,,,,,,,,,
,,5d7df958cb6cf00001399929,66fce6cb3397cd8e465b92d6,2024-10-02_08h23.20.265,mdp,2024.2.1,Win32,60.24096386,66fa4ebf79326e780c390304,,,,,,,,,,,,,,,,,,,,,322.7177,322.7177,322.718,323.6343,0,0,left,0.3836,,323.6346,324.8175,0,1,left,324.8179,324.8182,,0,,0,324.8182,324.8182,324.8184,326.3176,0,4,4,4,1,0.8,0.2,0.2,0.8,,,,,,,,,,,,,,,0.6651,,0.4,0.6,0.8,0.2,0.6,0.4,0.4,0.6,1,0,,,,,,,,,,,,
,,5d7df958cb6cf00001399929,66fce6cb3397cd8e465b92d6,2024-10-02_08h23.20.265,mdp,2024.2.1,Win32,60.24096386,66fa4ebf79326e780c390304,,,,,,,,,,,,,,,,,,,,,326.3178,326.3178,326.3182,327.3344,0,0,left,0.4844,,327.3349,328.501,1,1,right,328.5014,328.5016,,0,,0,328.5017,328.5017,328.5019,330.0011,0,5,5,5,1,0.8,0.2,0.2,0.8,,,,,,,,,,,,,,,0.6437,,0.4,0.6,0.8,0.2,0.6,0.4,0.4,0.6,1,0,,,,,,,,,,,,
,,5d7df958cb6cf00001399929,66fce6cb3397cd8e465b92d6,2024-10-02_08h23.20.265,mdp,2024.2.1,Win32,60.24096386,66fa4ebf79326e780c390304,,,,,,,,,,,,,,,,,,,,,330.0013,330.0013,330.0016,330.9178,1,1,right,0.3852,,330.9181,332.1512,0,0,left,332.1516,332.1518,,1,,1,332.1518,332.1518,332.152,333.651,0,6,6,6,1,0.8,0.2,0.2,0.8,,,,,,,,,,,,,,,0.6984,,0.4,0.6,0.8,0.2,0.6,0.4,0.4,0.6,1,0,,,,,,,,,,,,
,,5d7df958cb6cf00001399929,66fce6cb3397cd8e465b92d6,2024-10-02_08h23.20.265,mdp,2024.2.1,Win32,60.24096386,66fa4ebf79326e780c390304,,,,,,,,,,,,,,,,,,,,,333.6512,333.6513,333.6515,334.5844,1,1,right,0.4057,,334.5849,335.8344,0,0,left,335.8348,335.8351,,1,,1,335.8352,335.8352,335.8353,337.3345,0,7,7,7,1,0.8,0.2,0.2,0.8,,,,,,,,,,,,,,,0.7217,,0.4,0.6,0.8,0.2,0.6,0.4,0.4,0.6,1,0,,,,,,,,,,,,
,,5d7df958cb6cf00001399929,66fce6cb3397cd8e465b92d6,2024-10-02_08h23.20.265,mdp,2024.2.1,Win32,60.24096386,66fa4ebf79326e780c390304,,,,,,,,,,,,,,,,,,,,,337.3347,337.3347,337.335,338.3012,1,1,right,0.4357,,338.3016,339.4345,0,0,left,339.435,339.4352,,0,,1,339.4352,339.4352,339.4354,340.9345,0,8,8,8,1,0.8,0.2,0.2,0.8,,,,,,,,,,,,,,,0.6218,,0.4,0.6,0.8,0.2,0.8,0.2,0.2,0.8,1,0,,,,,,,,,,,,
,,5d7df958cb6cf00001399929,66fce6cb3397cd8e465b92d6,2024-10-02_08h23.20.265,mdp,2024.2.1,Win32,60.24096386,66fa4ebf79326e780c390304,,,,,,,,,,,,,,,,,,,,,340.9346,340.9346,340.935,341.8512,1,1,right,0.3957,,341.8517,343.0013,0,0,left,343.0017,343.002,,0,,1,343.002,343.002,343.0022,344.5012,0,9,9,9,1,0.8,0.2,0.2,0.8,,,,,,,,,,,,,,,0.6228,,0.4,0.6,0.8,0.2,0.8,0.2,0.2,0.8,1,0,,,,,,,,,,,,
,,5d7df958cb6cf00001399929,66fce6cb3397cd8e465b92d6,2024-10-02_08h23.20.265,mdp,2024.2.1,Win32,60.24096386,66fa4ebf79326e780c390304,,,,,,,,,,,,,,,,,,,,,344.5014,344.5014,344.5018,345.3346,1,1,right,0.3087,,345.335,346.268,1,1,right,346.2683,346.2686,,0,,0,346.2686,346.2686,346.2687,347.768,0,10,10,10,1,0.8,0.2,0.2,0.8,,,,,,,,,,,,,,,0.4203,,0.4,0.6,0.8,0.2,0.8,0.2,0.2,0.8,1,0,,,,,,,,,,,,
,,5d7df958cb6cf00001399929,66fce6cb3397cd8e465b92d6,2024-10-02_08h23.20.265,mdp,2024.2.1,Win32,60.24096386,66fa4ebf79326e780c390304,,,,,,,,,,,,,,,,,,,,,347.7681,347.7681,347.7685,348.6847,1,1,right,0.3942,,348.685,349.6514,0,1,left,349.6519,349.6522,,1,,0,349.6522,349.6522,349.6525,351.1514,0,11,11,11,1,0.8,0.2,0.2,0.8,,,,,,,,,,,,,,,0.461,,0.4,0.6,0.8,0.2,0.8,0.2,0.2,0.8,1,0,,,,,,,,,,,,
,,5d7df958cb6cf00001399929,66fce6cb3397cd8e465b92d6,2024-10-02_08h23.20.265,mdp,2024.2.1,Win32,60.24096386,66fa4ebf79326e780c390304,,,,,,,,,,,,,,,,,,,,,351.1516,351.1516,351.1518,352.1347,1,0,right,0.4591,,352.135,353.4348,0,0,left,353.4352,353.4355,,1,,1,353.4355,353.4355,353.4356,354.9349,0,12,12,12,1,0.2,0.8,0.8,0.2,,,,,,,,,,,,,,,0.782,,0.4,0.6,0.8,0.2,0.8,0.2,0.2,0.8,1,0,,,,,,,,,,,,
,,5d7df958cb6cf00001399929,66fce6cb3397cd8e465b92d6,2024-10-02_08h23.20.265,mdp,2024.2.1,Win32,60.24096386,66fa4ebf79326e780c390304,,,,,,,,,,,,,,,,,,,,,354.935,354.935,354.9353,355.9515,1,0,right,0.4912,,355.9519,356.8682,0,0,left,356.8686,356.8688,,1,,1,356.8688,356.8688,356.8691,358.3682,0,13,13,13,1,0.2,0.8,0.8,0.2,,,,,,,,,,,,,,,0.3945,,0.4,0.6,0.8,0.2,0.2,0.8,0.8,0.2,1,0,,,,,,,,,,,,
,,5d7df958cb6cf00001399929,66fce6cb3397cd8e465b92d6,2024-10-02_08h23.20.265,mdp,2024.2.1,Win32,60.24096386,66fa4ebf79326e780c390304,,,,,,,,,,,,,,,,,,,,,358.3683,358.3683,358.3687,359.3016,1,0,right,0.4007,,359.3019,360.1683,0,0,left,360.1686,360.1689,,1,,1,360.1689,360.1689,360.1691,361.6682,0,14,14,14,1,0.2,0.8,0.8,0.2,,,,,,,,,,,,,,,0.3493,,0.4,0.6,0.8,0.2,0.2,0.8,0.8,0.2,1,0,,,,,,,,,,,,
,,5d7df958cb6cf00001399929,66fce6cb3397cd8e465b92d6,2024-10-02_08h23.20.265,mdp,2024.2.1,Win32,60.24096386,66fa4ebf79326e780c390304,,,,,,,,,,,,,,,,,,,,,361.6684,361.6684,361.6688,362.6017,1,0,right,0.4001,,362.6021,363.5016,0,1,left,363.502,363.5022,,1,,0,363.5022,363.5023,363.5025,365.0016,0,15,15,15,1,0.2,0.8,0.8,0.2,,,,,,,,,,,,,,,0.3674,,0.4,0.6,0.8,0.2,0.4,0.6,0.4,0.6,1,0,,,,,,,,,,,,
,,5d7df958cb6cf00001399929,66fce6cb3397cd8e465b92d6,2024-10-02_08h23.20.265,mdp,2024.2.1,Win32,60.24096386,66fa4ebf79326e780c390304,,,,,,,,,,,,,,,,,,,,,365.0018,365.0018,365.0022,366.085,1,0,right,0.5516,,366.0855,367.235,1,0,right,367.2354,367.2358,,0,,1,367.2358,367.2358,367.236,368.7351,0,16,16,16,1,0.2,0.8,0.8,0.2,,,,,,,,,,,,,,,0.6323,,0.4,0.6,0.8,0.2,0.4,0.6,0.4,0.6,1,0,,,,,,,,,,,,
,,5d7df958cb6cf00001399929,66fce6cb3397cd8e465b92d6,2024-10-02_08h23.20.265,mdp,2024.2.1,Win32,60.24096386,66fa4ebf79326e780c390304,,,,,,,,,,,,,,,,,,,,,368.7353,368.7353,368.7357,369.635,1,1,right,0.3668,,369.6355,370.8685,0,1,left,370.8689,370.8691,,0,,0,370.8691,370.8691,370.8693,372.3684,0,17,17,17,1,0.2,0.8,0.8,0.2,,,,,,,,,,,,,,,0.718,,0.4,0.6,0.8,0.2,0.4,0.6,0.4,0.6,1,0,,,,,,,,,,,,
,,5d7df958cb6cf00001399929,66fce6cb3397cd8e465b92d6,2024-10-02_08h23.20.265,mdp,2024.2.1,Win32,60.24096386,66fa4ebf79326e780c390304,,,,,,,,,,,,,,,,,,,,,372.3686,372.3686,372.3689,373.2518,1,1,right,0.3616,,373.2521,374.1685,1,1,right,374.169,374.1692,,0,,0,374.1693,374.1693,374.1695,375.6686,0,18,18,18,1,0.2,0.8,0.8,0.2,,,,,,,,,,,,,,,0.3837,,0.4,0.6,0.8,0.2,0.4,0.6,0.4,0.6,1,0,,,,,,,,,,,,
,,5d7df958cb6cf00001399929,66fce6cb3397cd8e465b92d6,2024-10-02_08h23.20.265,mdp,2024.2.1,Win32,60.24096386,66fa4ebf79326e780c390304,,,,,,,,,,,,,,,,,,,,,375.6687,375.6687,375.6691,376.6185,1,0,right,0.4167,,376.6189,377.6518,1,1,right,377.6523,377.6525,,0,,0,377.6525,377.6525,377.6527,379.152,0,19,19,19,1,0.2,0.8,0.8,0.2,,,,,,,,,,,,,,,0.5018,,0.4,0.6,0.8,0.2,0.4,0.6,0.4,0.6,1,0,,,,,,,,,,,,
,,5d7df958cb6cf00001399929,66fce6cb3397cd8e465b92d6,2024-10-02_08h23.20.265,mdp,2024.2.1,Win32,60.24096386,66fa4ebf79326e780c390304,,,,,,,,,,,,,,,,,,,,,379.1522,379.1522,379.1525,380.2352,0,0,left,0.5505,,380.2357,381.2353,0,0,left,381.2357,381.2359,,0,,1,381.236,381.236,381.2362,382.7353,0,20,20,20,1,0.2,0.8,0.8,0.2,,,,,,,,,,,,,,,0.4709,,0.4,0.6,0.8,0.2,0.4,0.6,0.4,0.6,1,0,,,,,,,,,,,,
,,5d7df958cb6cf00001399929,66fce6cb3397cd8e465b92d6,2024-10-02_08h23.20.265,mdp,2024.2.1,Win32,60.24096386,66fa4ebf79326e780c390304,,,,,,,,,,,,,,,,,,,,,382.7354,382.7354,382.7357,383.652,0,1,left,0.3951,,383.6524,384.5853,0,1,left,384.5857,384.586,,0,,0,384.586,384.586,384.5862,386.0853,0,21,21,21,1,0.2,0.8,0.8,0.2,,,,,,,,,,,,,,,0.4045,,0.4,0.6,0.8,0.2,0.4,0.6,0.4,0.6,1,0,,,,,,,,,,,,
,,5d7df958cb6cf00001399929,66fce6cb3397cd8e465b92d6,2024-10-02_08h23.20.265,mdp,2024.2.1,Win32,60.24096386,66fa4ebf79326e780c390304,,,,,,,,,,,,,,,,,,,,,386.0855,386.0855,386.0859,387.0188,0,0,left,0.4002,,387.0192,388.1354,0,1,left,388.1359,388.1362,,1,,0,388.1362,388.1362,388.1364,389.6354,0,22,22,22,1,0.2,0.8,0.8,0.2,,,,,,,,,,,,,,,0.5898,,0.4,0.6,0.8,0.2,0.2,0.8,0.8,0.2,1,0,,,,,,,,,,,,
,,5d7df958cb6cf00001399929,66fce6cb3397cd8e465b92d6,2024-10-02_08h23.20.265,mdp,2024.2.1,Win32,60.24096386,66fa4ebf79326e780c390304,,,,,,,,,,,,,,,,,,,,,389.6356,389.6356,389.6359,390.6188,1,0,right,0.4546,,390.6192,391.6356,1,0,right,391.6359,391.6361,,1,,1,391.6361,391.6361,391.6363,393.1355,0,23,23,23,1,0.2,0.8,0.8,0.2,,,,,,,,,,,,,,,0.4999,,0.4,0.6,0.8,0.2,0.2,0.8,0.8,0.2,1,0,,,,,,,,,,,,
,,5d7df958cb6cf00001399929,66fce6cb3397cd8e465b92d6,2024-10-02_08h23.20.265,mdp,2024.2.1,Win32,60.24096386,66fa4ebf79326e780c390304,,,,,,,,,,,,,,,,,,,,,393.1356,393.1356,393.136,394.1354,1,0,right,0.4745,,394.1358,395.0189,1,0,right,395.0193,395.0195,,0,,1,395.0196,395.0196,395.0197,396.5188,0,24,24,24,1,0.2,0.8,0.8,0.2,,,,,,,,,,,,,,,0.3667,,0.4,0.6,0.8,0.2,0.2,0.8,0.8,0.2,1,0,,,,,,,,,,,,
,,5d7df958cb6cf00001399929,66fce6cb3397cd8e465b92d6,2024-10-02_08h23.20.265,mdp,2024.2.1,Win32,60.24096386,66fa4ebf79326e780c390304,,,,,,,,,,,,,,,,,,,,,396.519,396.519,396.5193,397.4356,1,1,right,0.3873,,397.436,398.3189,1,0,right,398.3193,398.3195,,0,,1,398.3195,398.3195,398.3198,399.8189,0,25,25,25,1,0.8,0.2,0.2,0.8,,,,,,,,,,,,,,,0.3488,,0.4,0.6,0.8,0.2,0.2,0.8,0.8,0.2,1,0,,,,,,,,,,,,
,,5d7df958cb6cf00001399929,66fce6cb3397cd8e465b92d6,2024-10-02_08h23.20.265,mdp,2024.2.1,Win32,60.24096386,66fa4ebf79326e780c390304,,,,,,,,,,,,,,,,,,,,,399.8191,399.8191,399.8194,400.6689,1,1,right,0.3274,,400.6693,401.4523,1,0,right,401.4526,401.4529,,1,,1,401.4529,401.4529,401.4531,402.9523,0,26,26,26,1,0.8,0.2,0.2,0.8,,,,,,,,,,,,,,,0.2777,,0.4,0.6,0.8,0.2,0.2,0.8,0.8,0.2,1,0,,,,,,,,,,,,
,,5d7df958cb6cf00001399929,66fce6cb3397cd8e465b92d6,2024-10-02_08h23.20.265,mdp,2024.2.1,Win32,60.24096386,66fa4ebf79326e780c390304,,,,,,,,,,,,,,,,,,,,,402.9525,402.9525,402.9528,403.7857,1,0,right,0.3003,,403.7861,404.519,1,0,right,404.5195,404.5197,,0,,1,404.5197,404.5197,404.5199,406.019,0,27,27,27,1,0.8,0.2,0.2,0.8,,,,,,,,,,,,,,,0.2068,,0.4,0.6,0.8,0.2,0.2,0.8,0.8,0.2,1,0,,,,,,,,,,,,
,,5d7df958cb6cf00001399929,66fce6cb3397cd8e465b92d6,2024-10-02_08h23.20.265,mdp,2024.2.1,Win32,60.24096386,66fa4ebf79326e780c390304,,,,,,,,,,,,,,,,,,,,,406.0192,406.0192,406.0195,406.7857,1,1,right,0.2336,,406.7862,407.5859,1,0,right,407.5862,407.5865,,0,,1,407.5865,407.5865,407.5867,409.0857,0,28,28,28,1,0.8,0.2,0.2,0.8,,,,,,,,,,,,,,,0.2708,,0.4,0.6,0.8,0.2,0.2,0.8,0.8,0.2,1,0,,,,,,,,,,,,
,,5d7df958cb6cf00001399929,66fce6cb3397cd8e465b92d6,2024-10-02_08h23.20.265,mdp,2024.2.1,Win32,60.24096386,66fa4ebf79326e780c390304,,,,,,,,,,,,,,,,,,,,,409.0858,409.0858,409.0861,409.9023,1,0,right,0.3091,,409.9028,410.6692,1,1,right,410.6696,410.6698,,0,,0,410.6698,410.6698,410.67,412.1692,0,29,29,29,1,0.8,0.2,0.2,0.8,,,,,,,,,,,,,,,0.2587,,0.4,0.6,0.8,0.2,0.2,0.8,0.8,0.2,1,0,,,,,,,,,,,,
,,5d7df958cb6cf00001399929,66fce6cb3397cd8e465b92d6,2024-10-02_08h23.20.265,mdp,2024.2.1,Win32,60.24096386,66fa4ebf79326e780c390304,,,,,,,,,,,,,,,,,,,,,412.1694,412.1694,412.1697,413.0025,0,1,left,0.3049,,413.0029,413.8025,0,1,left,413.8029,413.8031,,1,,0,413.8031,413.8031,413.8034,415.3025,0,30,30,30,1,0.2,0.8,0.8,0.2,,,,,,,,,,,,,,,0.2629,,0.4,0.6,0.8,0.2,0.2,0.8,0.8,0.2,1,0,,,,,,,,,,,,
,,5d7df958cb6cf00001399929,66fce6cb3397cd8e465b92d6,2024-10-02_08h23.20.265,mdp,2024.2.1,Win32,60.24096386,66fa4ebf79326e780c390304,,,,,,,,,,,,,,,,,,,,,415.3026,415.3026,415.303,416.1859,1,0,right,0.3555,,416.1863,417.0526,0,0,left,417.053,417.0532,,0,,1,417.0532,417.0532,417.0534,418.5525,0,31,31,31,1,0.2,0.8,0.8,0.2,,,,,,,,,,,,,,,0.3343,,0.6,0.4,0.6,0.4,0.2,0.8,0.8,0.2,1,0,,,,,,,,,,,,
,,5d7df958cb6cf00001399929,66fce6cb3397cd8e465b92d6,2024-10-02_08h23.20.265,mdp,2024.2.1,Win32,60.24096386,66fa4ebf79326e780c390304,,,,,,,,,,,,,,,,,,,,,418.5528,418.5528,418.5532,419.4193,1,0,right,0.3335,,419.4197,420.2193,0,1,left,420.2197,420.22,,1,,0,420.22,420.22,420.2204,421.7192,0,32,32,32,1,0.2,0.8,0.8,0.2,,,,,,,,,,,,,,,0.2791,,0.6,0.4,0.6,0.4,0.2,0.8,0.8,0.2,1,0,,,,,,,,,,,,
,,5d7df958cb6cf00001399929,66fce6cb3397cd8e465b92d6,2024-10-02_08h23.20.265,mdp,2024.2.1,Win32,60.24096386,66fa4ebf79326e780c390304,,,,,,,,,,,,,,,,,,,,,421.7194,421.7194,421.7197,422.5859,1,0,right,0.339,,422.5864,423.386,1,0,right,423.3864,423.3867,,1,,1,423.3867,423.3867,423.3869,424.8861,0,33,33,33,1,0.2,0.8,0.8,0.2,,,,,,,,,,,,,,,0.2878,,0.6,0.4,0.6,0.4,0.2,0.8,0.8,0.2,1,0,,,,,,,,,,,,
,,5d7df958cb6cf00001399929,66fce6cb3397cd8e465b92d6,2024-10-02_08h23.20.265,mdp,2024.2.1,Win32,60.24096386,66fa4ebf79326e780c390304,,,,,,,,,,,,,,,,,,,,,424.8862,424.8862,424.8866,425.7361,1,1,right,0.3239,,425.7364,426.5861,1,0,right,426.5865,426.5868,,1,,1,426.5868,426.5868,426.587,428.0861,0,34,34,34,1,0.2,0.8,0.8,0.2,,,,,,,,,,,,,,,0.3204,,0.6,0.4,0.6,0.4,0.2,0.8,0.8,0.2,1,0,,,,,,,,,,,,
,,5d7df958cb6cf00001399929,66fce6cb3397cd8e465b92d6,2024-10-02_08h23.20.265,mdp,2024.2.1,Win32,60.24096386,66fa4ebf79326e780c390304,,,,,,,,,,,,,,,,,,,,,428.0862,428.0862,428.0866,428.8861,1,1,right,0.2683,,428.8865,429.6861,1,0,right,429.6865,429.6867,,0,,1,429.6867,429.6868,429.687,431.1862,0,35,35,35,1,0.6,0.4,0.2,0.8,,,,,,,,,,,,,,,0.2847,,0.6,0.4,0.6,0.4,0.2,0.8,0.8,0.2,1,0,,,,,,,,,,,,
,,5d7df958cb6cf00001399929,66fce6cb3397cd8e465b92d6,2024-10-02_08h23.20.265,mdp,2024.2.1,Win32,60.24096386,66fa4ebf79326e780c390304,,,,,,,,,,,,,,,,,,,,,431.1863,431.1863,431.1866,432.0028,1,1,right,0.2836,,432.0031,432.8029,1,0,right,432.8033,432.8035,,1,,1,432.8035,432.8035,432.8037,434.3029,0,36,36,36,1,0.6,0.4,0.2,0.8,,,,,,,,,,,,,,,0.2868,,0.6,0.4,0.6,0.4,0.2,0.8,0.8,0.2,1,0,,,,,,,,,,,,
,,5d7df958cb6cf00001399929,66fce6cb3397cd8e465b92d6,2024-10-02_08h23.20.265,mdp,2024.2.1,Win32,60.24096386,66fa4ebf79326e780c390304,,,,,,,,,,,,,,,,,,,,,434.3031,434.3031,434.3034,434.9863,1,0,right,0.1553,,434.9867,435.753,1,1,right,435.7534,435.7536,,0,,0,435.7537,435.7537,435.7539,437.2529,0,37,37,37,1,0.6,0.4,0.2,0.8,,,,,,,,,,,,,,,0.2322,,0.6,0.4,0.6,0.4,0.2,0.8,0.8,0.2,1,0,,,,,,,,,,,,
,,5d7df958cb6cf00001399929,66fce6cb3397cd8e465b92d6,2024-10-02_08h23.20.265,mdp,2024.2.1,Win32,60.24096386,66fa4ebf79326e780c390304,,,,,,,,,,,,,,,,,,,,,437.253,437.253,437.2534,438.0696,1,1,right,0.2935,,438.07,438.8862,0,1,left,438.8867,438.887,,1,,0,438.887,438.887,438.8872,440.3863,0,38,38,38,1,0.6,0.4,0.2,0.8,,,,,,,,,,,,,,,0.2825,,0.8,0.2,0.8,0.2,0.2,0.8,0.8,0.2,1,0,,,,,,,,,,,,
,,5d7df958cb6cf00001399929,66fce6cb3397cd8e465b92d6,2024-10-02_08h23.20.265,mdp,2024.2.1,Win32,60.24096386,66fa4ebf79326e780c390304,,,,,,,,,,,,,,,,,,,,,440.3865,440.3865,440.3867,441.2863,1,1,right,0.376,,441.2867,442.103,1,0,right,442.1033,442.1036,,1,,1,442.1036,442.1036,442.1038,443.603,0,39,39,39,1,0.6,0.4,0.2,0.8,,,,,,,,,,,,,,,0.3004,,0.8,0.2,0.8,0.2,0.2,0.8,0.8,0.2,1,0,,,,,,,,,,,,
,,5d7df958cb6cf00001399929,66fce6cb3397cd8e465b92d6,2024-10-02_08h23.20.265,mdp,2024.2.1,Win32,60.24096386,66fa4ebf79326e780c390304,,,,,,,,,,,,,,,,,,,,,443.6032,443.6032,443.6036,444.4697,1,0,right,0.3351,,444.4701,445.2698,1,0,right,445.2701,445.2704,,1,,1,445.2704,445.2704,445.2706,446.7696,0,40,40,40,1,0.6,0.4,0.2,0.8,,,,,,,,,,,,,,,0.2659,,0.8,0.2,0.8,0.2,0.2,0.8,0.8,0.2,1,0,,,,,,,,,,,,
,,5d7df958cb6cf00001399929,66fce6cb3397cd8e465b92d6,2024-10-02_08h23.20.265,mdp,2024.2.1,Win32,60.24096386,66fa4ebf79326e780c390304,,,,,,,,,,,,,,,,,,,,,446.7698,446.7698,446.7702,447.5864,1,1,right,0.2885,,447.5867,448.3532,1,0,right,448.3537,448.3539,,0,,1,448.3539,448.3539,448.3541,449.8533,0,41,41,41,1,0.6,0.4,0.2,0.8,,,,,,,,,,,,,,,0.2545,,0.8,0.2,0.8,0.2,0.2,0.8,0.8,0.2,1,0,,,,,,,,,,,,
,,5d7df958cb6cf00001399929,66fce6cb3397cd8e465b92d6,2024-10-02_08h23.20.265,mdp,2024.2.1,Win32,60.24096386,66fa4ebf79326e780c390304,,,,,,,,,,,,,,,,,,,,,449.8534,449.8534,449.8538,450.6865,1,1,right,0.3009,,450.6869,451.5033,1,0,right,451.5036,451.5038,,0,,1,451.5038,451.5038,451.5041,453.0033,0,42,42,42,1,0.6,0.4,0.2,0.8,,,,,,,,,,,,,,,0.3003,,0.8,0.2,0.8,0.2,0.2,0.8,0.8,0.2,1,0,,,,,,,,,,,,
,,5d7df958cb6cf00001399929,66fce6cb3397cd8e465b92d6,2024-10-02_08h23.20.265,mdp,2024.2.1,Win32,60.24096386,66fa4ebf79326e780c390304,,,,,,,,,,,,,,,,,,,,,453.0034,453.0034,453.0038,453.8199,1,1,right,0.295,,453.8203,454.6198,1,0,right,454.6203,454.6205,,0,,1,454.6205,454.6205,454.6207,456.1199,0,43,43,43,1,0.6,0.4,0.2,0.8,,,,,,,,,,,,,,,0.2869,,0.8,0.2,0.8,0.2,0.2,0.8,0.8,0.2,1,0,,,,,,,,,,,,
,,5d7df958cb6cf00001399929,66fce6cb3397cd8e465b92d6,2024-10-02_08h23.20.265,mdp,2024.2.1,Win32,60.24096386,66fa4ebf79326e780c390304,,,,,,,,,,,,,,,,,,,,,456.1201,456.1201,456.1205,456.9366,1,1,right,0.2838,,456.937,457.7032,1,0,right,457.7037,457.7039,,0,,1,457.7039,457.7039,457.7041,459.2033,0,44,44,44,1,0.6,0.4,0.2,0.8,,,,,,,,,,,,,,,0.258,,0.8,0.2,0.8,0.2,0.2,0.8,0.8,0.2,1,0,,,,,,,,,,,,
,,5d7df958cb6cf00001399929,66fce6cb3397cd8e465b92d6,2024-10-02_08h23.20.265,mdp,2024.2.1,Win32,60.24096386,66fa4ebf79326e780c390304,,,,,,,,,,,,,,,,,,,,,459.2035,459.2035,459.2038,460.0701,1,1,right,0.3426,,460.0704,460.82,1,0,right,460.8205,460.8207,,0,,1,460.8207,460.8208,460.821,462.3201,0,45,45,45,1,0.6,0.4,0.2,0.8,,,,,,,,,,,,,,,0.2198,,0.8,0.2,0.8,0.2,0.2,0.8,0.8,0.2,1,0,,,,,,,,,,,,
,,5d7df958cb6cf00001399929,66fce6cb3397cd8e465b92d6,2024-10-02_08h23.20.265,mdp,2024.2.1,Win32,60.24096386,66fa4ebf79326e780c390304,,,,,,,,,,,,,,,,,,,,,462.3203,462.3203,462.3206,463.17,1,1,right,0.3168,,463.1704,463.9534,1,1,right,463.9539,463.9541,,0,,0,463.9541,463.9541,463.9543,465.4535,0,46,46,46,1,0.6,0.4,0.2,0.8,,,,,,,,,,,,,,,0.2509,,0.8,0.2,0.8,0.2,0.2,0.8,0.8,0.2,1,0,,,,,,,,,,,,
,,5d7df958cb6cf00001399929,66fce6cb3397cd8e465b92d6,2024-10-02_08h23.20.265,mdp,2024.2.1,Win32,60.24096386,66fa4ebf79326e780c390304,,,,,,,,,,,,,,,,,,,,,465.4536,465.4536,465.454,466.2868,1,1,right,0.3086,,466.2872,467.1034,1,0,right,467.1038,467.104,,1,,1,467.104,467.104,467.1042,468.6035,0,47,47,47,1,0.6,0.4,0.2,0.8,,,,,,,,,,,,,,,0.2999,,0.8,0.2,0.8,0.2,0.2,0.8,0.8,0.2,1,0,,,,,,,,,,,,
,,5d7df958cb6cf00001399929,66fce6cb3397cd8e465b92d6,2024-10-02_08h23.20.265,mdp,2024.2.1,Win32,60.24096386,66fa4ebf79326e780c390304,,,,,,,,,,,,,,,,,,,,,468.6037,468.6037,468.604,469.4701,1,0,right,0.3343,,469.4705,470.2701,1,0,right,470.2706,470.2709,,0,,1,470.2709,470.2709,470.2711,471.7702,0,48,48,48,1,0.6,0.4,0.2,0.8,,,,,,,,,,,,,,,0.291,,0.8,0.2,0.8,0.2,0.2,0.8,0.8,0.2,1,0,,,,,,,,,,,,
,,5d7df958cb6cf00001399929,66fce6cb3397cd8e465b92d6,2024-10-02_08h23.20.265,mdp,2024.2.1,Win32,60.24096386,66fa4ebf79326e780c390304,,,,,,,,,,,,,,,,,,,,,471.7703,471.7703,471.7707,472.6036,1,1,right,0.3119,,472.6039,473.387,1,0,right,473.3873,473.3876,,0,,1,473.3876,473.3876,473.3877,474.8869,0,49,49,49,1,0.6,0.4,0.2,0.8,,,,,,,,,,,,,,,0.2657,,0.8,0.2,0.8,0.2,0.2,0.8,0.8,0.2,1,0,,,,,,,,,,,,
,,5d7df958cb6cf00001399929,66fce6cb3397cd8e465b92d6,2024-10-02_08h23.20.265,mdp,2024.2.1,Win32,60.24096386,66fa4ebf79326e780c390304,,,,,,,,,,,,,,,,,,,,,,,,,,,,,,,,,,,,,,,,,,,,,,,,,,,,,,,,474.8869,533.3879,0,1,1,3,1,imgs/dog.png,imgs/lion.png,imgs/cat.png,imgs/giraffe.png,imgs/rabbit.png,,,,,,,,,,,,,,,,,,,,,,,,
,,5d7df958cb6cf00001399929,66fce6cb3397cd8e465b92d6,2024-10-02_08h23.20.265,mdp,2024.2.1,Win32,60.24096386,66fa4ebf79326e780c390304,,,,,,,,,,,,,,3,seqs/st3seq38.csv,533.3884,535.188,space,1.2783,,535.1912,535.1912,535.1916,536.7047,1,0,right,0.9817,,536.7051,537.7215,1,0,right,537.7218,538.7048,1,0,right,1,538.7048,538.7048,538.7052,540.2047,0,0,0,0,1,0.2,0.8,0.6,0.4,,,,,,,,,,,,,,,0.4878,,0.2,0.8,0.4,0.6,0.6,0.4,0.4,0.6,,,0.4487,,0.2,0.8,0.6,0.4,0.6,0.4,0.2,0.8,1,0
,,5d7df958cb6cf00001399929,66fce6cb3397cd8e465b92d6,2024-10-02_08h23.20.265,mdp,2024.2.1,Win32,60.24096386,66fa4ebf79326e780c390304,,,,,,,,,,,,,,,,,,,,,540.2049,540.2049,540.2053,541.1214,1,1,right,0.3882,,541.1218,541.9548,1,1,right,541.9553,542.7881,1,0,right,1,542.7881,542.7881,542.7885,544.2882,0,1,1,1,1,0.2,0.8,0.6,0.4,,,,,,,,,,,,,,,0.3154,,0.2,0.8,0.4,0.6,0.6,0.4,0.4,0.6,,,0.3176,,0.2,0.8,0.6,0.4,0.6,0.4,0.2,0.8,1,0
,,5d7df958cb6cf00001399929,66fce6cb3397cd8e465b92d6,2024-10-02_08h23.20.265,mdp,2024.2.1,Win32,60.24096386,66fa4ebf79326e780c390304,,,,,,,,,,,,,,,,,,,,,544.2883,544.2883,544.2887,545.1549,1,1,right,0.3313,,545.1552,546.0715,1,1,right,546.0719,546.9049,1,1,right,0,546.9049,546.9049,546.9053,548.4049,0,2,2,2,1,0.2,0.8,0.6,0.4,,,,,,,,,,,,,,,0.3834,,0.2,0.8,0.4,0.6,0.6,0.4,0.4,0.6,,,0.3065,,0.2,0.8,0.6,0.4,0.6,0.4,0.2,0.8,1,0
,,5d7df958cb6cf00001399929,66fce6cb3397cd8e465b92d6,2024-10-02_08h23.20.265,mdp,2024.2.1,Win32,60.24096386,66fa4ebf79326e780c390304,,,,,,,,,,,,,,,,,,,,,548.405,548.405,548.4055,549.3548,1,0,right,0.4212,,549.3552,550.5383,1,1,right,550.5386,551.5049,1,0,right,1,551.5049,551.5049,551.5054,553.005,0,3,3,3,1,0.2,0.8,0.6,0.4,,,,,,,,,,,,,,,0.6698,,0.2,0.8,0.4,0.6,0.6,0.4,0.4,0.6,,,0.4398,,0.2,0.8,0.6,0.4,0.6,0.4,0.2,0.8,1,0
,,5d7df958cb6cf00001399929,66fce6cb3397cd8e465b92d6,2024-10-02_08h23.20.265,mdp,2024.2.1,Win32,60.24096386,66fa4ebf79326e780c390304,,,,,,,,,,,,,,,,,,,,,553.0052,553.0052,553.0056,553.7717,1,0,right,0.237,,553.7722,554.8551,1,0,right,554.8555,556.0217,0,1,left,0,556.0218,556.0218,556.0221,557.5218,0,4,4,4,1,0.2,0.8,0.6,0.4,,,,,,,,,,,,,,,0.5513,,0.2,0.8,0.4,0.6,0.6,0.4,0.4,0.6,,,0.6329,,0.2,0.8,0.6,0.4,0.6,0.4,0.2,0.8,1,0
,,5d7df958cb6cf00001399929,66fce6cb3397cd8e465b92d6,2024-10-02_08h23.20.265,mdp,2024.2.1,Win32,60.24096386,66fa4ebf79326e780c390304,,,,,,,,,,,,,,,,,,,,,557.522,557.522,557.5223,558.3552,1,1,right,0.3123,,558.3556,559.5217,1,1,right,559.5221,560.3551,1,1,right,0,560.3552,560.3552,560.3556,561.8551,0,5,5,5,1,0.2,0.8,0.6,0.4,,,,,,,,,,,,,,,0.6364,,0.2,0.8,0.4,0.6,0.6,0.4,0.4,0.6,,,0.315,,0.2,0.8,0.6,0.4,0.6,0.4,0.2,0.8,1,0
,,5d7df958cb6cf00001399929,66fce6cb3397cd8e465b92d6,2024-10-02_08h23.20.265,mdp,2024.2.1,Win32,60.24096386,66fa4ebf79326e780c390304,,,,,,,,,,,,,,,,,,,,,561.8553,561.8553,561.8557,562.6385,1,0,right,0.2588,,562.6389,563.7552,1,1,right,563.7556,564.6885,1,1,right,0,564.6885,564.6885,564.689,566.1885,0,6,6,6,1,0.2,0.8,0.6,0.4,,,,,,,,,,,,,,,0.586,,0.2,0.8,0.4,0.6,0.6,0.4,0.4,0.6,,,0.4,,0.2,0.8,0.6,0.4,0.6,0.4,0.2,0.8,1,0
,,5d7df958cb6cf00001399929,66fce6cb3397cd8e465b92d6,2024-10-02_08h23.20.265,mdp,2024.2.1,Win32,60.24096386,66fa4ebf79326e780c390304,,,,,,,,,,,,,,,,,,,,,566.1886,566.1886,566.189,567.1219,1,1,right,0.4002,,567.1223,568.3053,0,0,left,568.3057,569.2553,1,1,right,0,569.2554,569.2554,569.2557,570.7553,0,7,7,7,1,0.2,0.8,0.6,0.4,,,,,,,,,,,,,,,0.6651,,0.2,0.8,0.4,0.6,0.6,0.4,0.4,0.6,,,0.415,,0.2,0.8,0.6,0.4,0.6,0.4,0.2,0.8,1,0
,,5d7df958cb6cf00001399929,66fce6cb3397cd8e465b92d6,2024-10-02_08h23.20.265,mdp,2024.2.1,Win32,60.24096386,66fa4ebf79326e780c390304,,,,,,,,,,,,,,,,,,,,,570.7555,570.7555,570.7559,571.6554,1,1,right,0.3749,,571.6558,572.8054,0,0,left,572.8058,573.7554,0,0,left,1,573.7554,573.7554,573.7558,575.2553,0,8,8,8,1,0.2,0.8,0.6,0.4,,,,,,,,,,,,,,,0.6267,,0.2,0.8,0.4,0.6,0.6,0.4,0.4,0.6,,,0.4207,,0.2,0.8,0.6,0.4,0.6,0.4,0.2,0.8,1,0
,,5d7df958cb6cf00001399929,66fce6cb3397cd8e465b92d6,2024-10-02_08h23.20.265,mdp,2024.2.1,Win32,60.24096386,66fa4ebf79326e780c390304,,,,,,,,,,,,,,,,,,,,,575.2555,575.2555,575.2559,576.322,1,1,right,0.5388,,576.3224,577.2888,0,0,left,577.2892,578.1888,0,1,left,0,578.1888,578.1888,578.1893,579.6887,0,9,9,9,1,0.2,0.8,0.6,0.4,,,,,,,,,,,,,,,0.4503,,0.2,0.8,0.4,0.6,0.6,0.4,0.4,0.6,,,0.3692,,0.2,0.8,0.6,0.4,0.6,0.4,0.2,0.8,1,0
,,5d7df958cb6cf00001399929,66fce6cb3397cd8e465b92d6,2024-10-02_08h23.20.265,mdp,2024.2.1,Win32,60.24096386,66fa4ebf79326e780c390304,,,,,,,,,,,,,,,,,,,,,579.6888,579.6889,579.6892,580.6055,1,0,right,0.3933,,580.606,581.8055,1,0,right,581.8059,582.6722,1,1,right,0,582.6722,582.6722,582.6726,584.1721,0,10,10,10,1,0.2,0.8,0.6,0.4,,,,,,,,,,,,,,,0.675,,0.2,0.8,0.4,0.6,0.6,0.4,0.4,0.6,,,0.3336,,0.2,0.8,0.6,0.4,0.6,0.4,0.2,0.8,1,0
,,5d7df958cb6cf00001399929,66fce6cb3397cd8e465b92d6,2024-10-02_08h23.20.265,mdp,2024.2.1,Win32,60.24096386,66fa4ebf79326e780c390304,,,,,,,,,,,,,,,,,,,,,584.1723,584.1723,584.1727,585.0555,1,0,right,0.3578,,585.056,586.1889,1,0,right,586.1893,587.1057,0,0,left,1,587.1057,587.1057,587.106,588.6055,0,11,11,11,1,0.2,0.8,0.6,0.4,,,,,,,,,,,,,,,0.6184,,0.2,0.8,0.4,0.6,0.6,0.4,0.4,0.6,,,0.3832,,0.2,0.8,0.6,0.4,0.6,0.4,0.2,0.8,1,0
,,5d7df958cb6cf00001399929,66fce6cb3397cd8e465b92d6,2024-10-02_08h23.20.265,mdp,2024.2.1,Win32,60.24096386,66fa4ebf79326e780c390304,,,,,,,,,,,,,,,,,,,,,588.6057,588.6057,588.606,589.3889,1,0,right,0.2604,,589.3894,590.5223,0,1,left,590.5227,591.6557,0,1,left,0,591.6557,591.6557,591.6561,593.1556,0,12,12,12,1,0.2,0.8,0.6,0.4,,,,,,,,,,,,,,,0.6165,,0.2,0.8,0.4,0.6,0.6,0.4,0.4,0.6,,,0.6156,,0.2,0.8,0.6,0.4,0.6,0.4,0.2,0.8,1,0
,,5d7df958cb6cf00001399929,66fce6cb3397cd8e465b92d6,2024-10-02_08h23.20.265,mdp,2024.2.1,Win32,60.24096386,66fa4ebf79326e780c390304,,,,,,,,,,,,,,,,,,,,,593.1558,593.1558,593.1562,594.0391,1,0,right,0.3584,,594.0396,594.9557,1,1,right,594.9561,595.8391,0,0,left,1,595.8391,595.8391,595.8395,597.339,0,13,13,13,1,0.2,0.8,0.6,0.4,,,,,,,,,,,,,,,0.4037,,0.2,0.8,0.4,0.6,0.6,0.4,0.4,0.6,,,0.3749,,0.2,0.8,0.6,0.4,0.6,0.4,0.2,0.8,1,0
,,5d7df958cb6cf00001399929,66fce6cb3397cd8e465b92d6,2024-10-02_08h23.20.265,mdp,2024.2.1,Win32,60.24096386,66fa4ebf79326e780c390304,,,,,,,,,,,,,,,,,,,,,597.3392,597.3392,597.3397,598.1891,1,0,right,0.3271,,598.1895,599.1225,1,1,right,599.1228,600.0726,0,0,left,1,600.0726,600.0726,600.0729,601.5726,0,14,14,14,1,0.2,0.8,0.6,0.4,,,,,,,,,,,,,,,0.4165,,0.2,0.8,0.4,0.6,0.6,0.4,0.4,0.6,,,0.4166,,0.2,0.8,0.6,0.4,0.6,0.4,0.2,0.8,1,0
,,5d7df958cb6cf00001399929,66fce6cb3397cd8e465b92d6,2024-10-02_08h23.20.265,mdp,2024.2.1,Win32,60.24096386,66fa4ebf79326e780c390304,,,,,,,,,,,,,,,,,,,,,601.5728,601.5728,601.5731,602.3893,1,0,right,0.2855,,602.3896,603.3393,1,1,right,603.3397,604.2894,0,1,left,0,604.2894,604.2894,604.2898,605.7893,0,15,15,15,1,0.2,0.8,0.6,0.4,,,,,,,,,,,,,,,0.4178,,0.2,0.8,0.4,0.6,0.6,0.4,0.4,0.6,,,0.4218,,0.2,0.8,0.6,0.4,0.6,0.4,0.2,0.8,1,0
,,5d7df958cb6cf00001399929,66fce6cb3397cd8e465b92d6,2024-10-02_08h23.20.265,mdp,2024.2.1,Win32,60.24096386,66fa4ebf79326e780c390304,,,,,,,,,,,,,,,,,,,,,605.7894,605.7894,605.7898,606.6227,1,1,right,0.3078,,606.6231,607.5393,1,1,right,607.5397,608.456,0,0,left,1,608.456,608.456,608.4565,609.956,0,16,16,16,1,0.2,0.8,0.6,0.4,,,,,,,,,,,,,,,0.3856,,0.2,0.8,0.4,0.6,0.6,0.4,0.4,0.6,,,0.4002,,0.2,0.8,0.6,0.4,0.6,0.4,0.2,0.8,1,0
,,5d7df958cb6cf00001399929,66fce6cb3397cd8e465b92d6,2024-10-02_08h23.20.265,mdp,2024.2.1,Win32,60.24096386,66fa4ebf79326e780c390304,,,,,,,,,,,,,,,,,,,,,609.9561,609.9561,609.9565,610.8394,1,1,right,0.3502,,610.8399,611.7562,1,0,right,611.7566,612.756,0,1,left,0,612.756,612.756,612.7564,614.256,0,17,17,17,1,0.2,0.8,0.6,0.4,,,,,,,,,,,,,,,0.4113,,0.2,0.8,0.4,0.6,0.6,0.4,0.4,0.6,,,0.4764,,0.2,0.8,0.6,0.4,0.6,0.4,0.2,0.8,1,0
,,5d7df958cb6cf00001399929,66fce6cb3397cd8e465b92d6,2024-10-02_08h23.20.265,mdp,2024.2.1,Win32,60.24096386,66fa4ebf79326e780c390304,,,,,,,,,,,,,,,,,,,,,614.2562,614.2562,614.2565,615.1394,1,0,right,0.3619,,615.1398,616.1394,1,0,right,616.1398,617.0228,0,0,left,1,617.0228,617.0228,617.0232,618.5228,0,18,18,18,1,0.2,0.8,0.6,0.4,,,,,,,,,,,,,,,0.465,,0.2,0.8,0.4,0.6,0.6,0.4,0.4,0.6,,,0.3737,,0.8,0.2,0.8,0.2,0.6,0.4,0.2,0.8,1,0
,,5d7df958cb6cf00001399929,66fce6cb3397cd8e465b92d6,2024-10-02_08h23.20.265,mdp,2024.2.1,Win32,60.24096386,66fa4ebf79326e780c390304,,,,,,,,,,,,,,,,,,,,,618.5229,618.5229,618.5233,619.3729,1,1,right,0.3191,,619.3733,620.2229,1,0,right,620.2233,621.1062,1,0,right,1,621.1062,621.1062,621.1066,622.6062,0,19,19,19,1,0.2,0.8,0.6,0.4,,,,,,,,,,,,,,,0.3232,,0.2,0.8,0.4,0.6,0.6,0.4,0.4,0.6,,,0.3515,,0.8,0.2,0.8,0.2,0.6,0.4,0.2,0.8,1,0
,,5d7df958cb6cf00001399929,66fce6cb3397cd8e465b92d6,2024-10-02_08h23.20.265,mdp,2024.2.1,Win32,60.24096386,66fa4ebf79326e780c390304,,,,,,,,,,,,,,,,,,,,,622.6065,622.6065,622.6068,623.4896,1,0,right,0.3501,,623.49,624.4564,1,0,right,624.4567,625.373,0,0,left,1,625.373,625.373,625.3735,626.873,0,20,20,20,1,0.2,0.8,0.6,0.4,,,,,,,,,,,,,,,0.4317,,0.2,0.8,0.4,0.6,0.6,0.4,0.4,0.6,,,0.3938,,0.8,0.2,0.8,0.2,0.6,0.4,0.2,0.8,1,0
,,5d7df958cb6cf00001399929,66fce6cb3397cd8e465b92d6,2024-10-02_08h23.20.265,mdp,2024.2.1,Win32,60.24096386,66fa4ebf79326e780c390304,,,,,,,,,,,,,,,,,,,,,626.8732,626.8732,626.8736,627.7231,1,1,right,0.3191,,627.7234,628.8563,0,1,left,628.8568,629.7065,1,1,right,0,629.7065,629.7065,629.7069,631.2063,0,21,21,21,1,0.2,0.8,0.6,0.4,,,,,,,,,,,,,,,0.6047,,0.2,0.8,0.4,0.6,0.2,0.8,0.6,0.4,,,0.3148,,0.8,0.2,0.8,0.2,0.6,0.4,0.2,0.8,1,0
,,5d7df958cb6cf00001399929,66fce6cb3397cd8e465b92d6,2024-10-02_08h23.20.265,mdp,2024.2.1,Win32,60.24096386,66fa4ebf79326e780c390304,,,,,,,,,,,,,,,,,,,,,631.2065,631.2065,631.2069,632.0898,1,1,right,0.3502,,632.0901,633.3063,1,0,right,633.3068,634.3565,0,1,left,0,634.3565,634.3565,634.3569,635.8566,0,22,22,22,1,0.2,0.8,0.6,0.4,,,,,,,,,,,,,,,0.6847,,0.2,0.8,0.4,0.6,0.2,0.8,0.6,0.4,,,0.5347,,0.8,0.2,0.8,0.2,0.6,0.4,0.2,0.8,1,0
,,5d7df958cb6cf00001399929,66fce6cb3397cd8e465b92d6,2024-10-02_08h23.20.265,mdp,2024.2.1,Win32,60.24096386,66fa4ebf79326e780c390304,,,,,,,,,,,,,,,,,,,,,635.8567,635.8567,635.8571,636.7897,1,0,right,0.4096,,636.7902,637.7233,1,0,right,637.7236,638.6566,0,1,left,0,638.6566,638.6566,638.6569,640.1565,0,23,23,23,1,0.2,0.8,0.6,0.4,,,,,,,,,,,,,,,0.4151,,0.2,0.8,0.4,0.6,0.2,0.8,0.6,0.4,,,0.4007,,0.8,0.2,0.8,0.2,0.8,0.2,0.8,0.2,1,0
,,5d7df958cb6cf00001399929,66fce6cb3397cd8e465b92d6,2024-10-02_08h23.20.265,mdp,2024.2.1,Win32,60.24096386,66fa4ebf79326e780c390304,,,,,,,,,,,,,,,,,,,,,640.1567,640.1567,640.157,641.0232,1,1,right,0.3332,,641.0236,642.3898,0,1,left,642.3903,643.2067,0,1,left,0,643.2067,643.2067,643.2071,644.7066,0,24,24,24,1,0.2,0.8,0.6,0.4,,,,,,,,,,,,,,,0.8576,,0.2,0.8,0.4,0.6,0.2,0.8,0.6,0.4,,,0.3071,,0.8,0.2,0.8,0.2,0.8,0.2,0.8,0.2,1,0
,,5d7df958cb6cf00001399929,66fce6cb3397cd8e465b92d6,2024-10-02_08h23.20.265,mdp,2024.2.1,Win32,60.24096386,66fa4ebf79326e780c390304,,,,,,,,,,,,,,,,,,,,,644.7068,644.7068,644.7072,645.6233,1,0,right,0.3911,,645.6237,646.7567,1,0,right,646.7571,647.7734,0,0,left,1,647.7734,647.7734,647.7737,649.2734,0,25,25,25,1,0.2,0.8,0.6,0.4,,,,,,,,,,,,,,,0.6177,,0.2,0.8,0.4,0.6,0.2,0.8,0.6,0.4,,,0.4914,,0.8,0.2,0.8,0.2,0.8,0.2,0.8,0.2,1,0
,,5d7df958cb6cf00001399929,66fce6cb3397cd8e465b92d6,2024-10-02_08h23.20.265,mdp,2024.2.1,Win32,60.24096386,66fa4ebf79326e780c390304,,,,,,,,,,,,,,,,,,,,,649.2735,649.2735,649.2738,650.1568,1,0,right,0.3526,,650.1572,651.1734,1,0,right,651.1738,652.0567,0,0,left,1,652.0568,652.0568,652.0573,653.5568,0,26,26,26,1,0.2,0.8,0.6,0.4,,,,,,,,,,,,,,,0.5017,,0.2,0.8,0.4,0.6,0.2,0.8,0.6,0.4,,,0.3492,,0.8,0.2,0.8,0.2,0.8,0.2,0.8,0.2,1,0
,,5d7df958cb6cf00001399929,66fce6cb3397cd8e465b92d6,2024-10-02_08h23.20.265,mdp,2024.2.1,Win32,60.24096386,66fa4ebf79326e780c390304,,,,,,,,,,,,,,,,,,,,,653.5571,653.5571,653.5575,654.4569,1,0,right,0.3669,,654.4573,655.4902,1,0,right,655.4906,656.4736,0,0,left,1,656.4736,656.4736,656.474,657.9736,0,27,27,27,1,0.2,0.8,0.6,0.4,,,,,,,,,,,,,,,0.5052,,0.2,0.8,0.4,0.6,0.2,0.8,0.6,0.4,,,0.4667,,0.8,0.2,0.8,0.2,0.8,0.2,0.8,0.2,1,0
,,5d7df958cb6cf00001399929,66fce6cb3397cd8e465b92d6,2024-10-02_08h23.20.265,mdp,2024.2.1,Win32,60.24096386,66fa4ebf79326e780c390304,,,,,,,,,,,,,,,,,,,,,657.9738,657.9738,657.9741,658.8569,1,1,right,0.3559,,658.8574,660.1903,0,1,left,660.1907,661.0402,1,0,right,1,661.0403,661.0403,661.0407,662.5403,0,28,28,28,1,0.2,0.8,0.6,0.4,,,,,,,,,,,,,,,0.7992,,0.2,0.8,0.4,0.6,0.2,0.8,0.6,0.4,,,0.3154,,0.8,0.2,0.8,0.2,0.8,0.2,0.8,0.2,1,0
,,5d7df958cb6cf00001399929,66fce6cb3397cd8e465b92d6,2024-10-02_08h23.20.265,mdp,2024.2.1,Win32,60.24096386,66fa4ebf79326e780c390304,,,,,,,,,,,,,,,,,,,,,662.5405,662.5405,662.5409,663.4736,1,0,right,0.4001,,663.474,664.7403,1,1,right,664.7407,665.657,0,0,left,1,665.6571,665.6571,665.6574,667.157,0,29,29,29,1,0.2,0.8,0.6,0.4,,,,,,,,,,,,,,,0.7423,,0.2,0.8,0.4,0.6,0.2,0.8,0.6,0.4,,,0.4003,,0.8,0.2,0.8,0.2,0.8,0.2,0.8,0.2,1,0
,,5d7df958cb6cf00001399929,66fce6cb3397cd8e465b92d6,2024-10-02_08h23.20.265,mdp,2024.2.1,Win32,60.24096386,66fa4ebf79326e780c390304,,,,,,,,,,,,,,,,,,,,,667.1571,667.1571,667.1575,668.1904,1,0,right,0.509,,668.1908,669.257,1,1,right,669.2575,670.2238,0,0,left,1,670.2238,670.2238,670.2243,671.7238,0,30,30,30,1,0.2,0.8,0.6,0.4,,,,,,,,,,,,,,,0.5394,,0.2,0.8,0.4,0.6,0.2,0.8,0.6,0.4,,,0.441,,0.8,0.2,0.8,0.2,0.8,0.2,0.8,0.2,1,0
,,5d7df958cb6cf00001399929,66fce6cb3397cd8e465b92d6,2024-10-02_08h23.20.265,mdp,2024.2.1,Win32,60.24096386,66fa4ebf79326e780c390304,,,,,,,,,,,,,,,,,,,,,671.7239,671.7239,671.7243,672.6404,1,1,right,0.3845,,672.6408,673.8073,0,1,left,673.8076,674.6739,1,0,right,1,674.6739,674.6739,674.6744,676.1739,0,31,31,31,1,0.2,0.8,0.6,0.4,,,,,,,,,,,,,,,0.6488,,0.2,0.8,0.4,0.6,0.2,0.8,0.6,0.4,,,0.3335,,0.8,0.2,0.8,0.2,0.8,0.2,0.8,0.2,1,0
,,5d7df958cb6cf00001399929,66fce6cb3397cd8e465b92d6,2024-10-02_08h23.20.265,mdp,2024.2.1,Win32,60.24096386,66fa4ebf79326e780c390304,,,,,,,,,,,,,,,,,,,,,676.1741,676.1741,676.1745,677.1571,1,1,right,0.4521,,677.1576,678.0906,0,1,left,678.091,679.2406,1,0,right,1,679.2406,679.2406,679.2411,680.7405,0,32,32,32,1,0.2,0.8,0.6,0.4,,,,,,,,,,,,,,,0.4168,,0.2,0.8,0.4,0.6,0.2,0.8,0.6,0.4,,,0.6203,,0.2,0.8,0.4,0.6,0.8,0.2,0.8,0.2,1,0
,,5d7df958cb6cf00001399929,66fce6cb3397cd8e465b92d6,2024-10-02_08h23.20.265,mdp,2024.2.1,Win32,60.24096386,66fa4ebf79326e780c390304,,,,,,,,,,,,,,,,,,,,,680.7407,680.7407,680.741,681.624,1,0,right,0.3573,,681.6244,682.724,1,1,right,682.7244,683.6741,0,0,left,1,683.6741,683.6741,683.6745,685.1741,0,33,33,33,1,0.2,0.8,0.6,0.4,,,,,,,,,,,,,,,0.5851,,0.2,0.8,0.4,0.6,0.2,0.8,0.6,0.4,,,0.4171,,0.2,0.8,0.4,0.6,0.8,0.2,0.8,0.2,1,0
,,5d7df958cb6cf00001399929,66fce6cb3397cd8e465b92d6,2024-10-02_08h23.20.265,mdp,2024.2.1,Win32,60.24096386,66fa4ebf79326e780c390304,,,,,,,,,,,,,,,,,,,,,685.1743,685.1743,685.1747,686.0741,1,1,right,0.3719,,686.0744,687.3074,0,1,left,687.3078,688.1407,1,0,right,1,688.1407,688.1407,688.1411,689.6408,0,34,34,34,1,0.2,0.8,0.6,0.4,,,,,,,,,,,,,,,0.7015,,0.2,0.8,0.4,0.6,0.2,0.8,0.6,0.4,,,0.3191,,0.2,0.8,0.4,0.6,0.8,0.2,0.8,0.2,1,0
,,5d7df958cb6cf00001399929,66fce6cb3397cd8e465b92d6,2024-10-02_08h23.20.265,mdp,2024.2.1,Win32,60.24096386,66fa4ebf79326e780c390304,,,,,,,,,,,,,,,,,,,,,689.6409,689.641,689.6414,690.5908,1,1,right,0.4253,,690.5913,691.7741,0,1,left,691.7746,692.8575,1,0,right,1,692.8576,692.8576,692.8579,694.3575,0,35,35,35,1,0.2,0.8,0.6,0.4,,,,,,,,,,,,,,,0.6756,,0.2,0.8,0.4,0.6,0.2,0.8,0.6,0.4,,,0.5726,,0.2,0.8,0.4,0.6,0.8,0.2,0.8,0.2,1,0
,,5d7df958cb6cf00001399929,66fce6cb3397cd8e465b92d6,2024-10-02_08h23.20.265,mdp,2024.2.1,Win32,60.24096386,66fa4ebf79326e780c390304,,,,,,,,,,,,,,,,,,,,,694.3577,694.3577,694.3581,695.2742,1,1,right,0.3831,,695.2746,696.2909,0,0,left,696.2914,697.291,1,1,right,0,697.291,697.291,697.2914,698.7909,0,36,36,36,1,0.2,0.8,0.6,0.4,,,,,,,,,,,,,,,0.4834,,0.2,0.8,0.4,0.6,0.2,0.8,0.6,0.4,,,0.482,,0.2,0.8,0.4,0.6,0.8,0.2,0.8,0.2,1,0
,,5d7df958cb6cf00001399929,66fce6cb3397cd8e465b92d6,2024-10-02_08h23.20.265,mdp,2024.2.1,Win32,60.24096386,66fa4ebf79326e780c390304,,,,,,,,,,,,,,,,,,,,,698.7911,698.7911,698.7914,699.741,1,0,right,0.4189,,699.7414,700.8911,1,0,right,700.8915,701.741,0,1,left,0,701.741,701.741,701.7414,703.2411,0,37,37,37,1,0.2,0.8,0.6,0.4,,,,,,,,,,,,,,,0.6154,,0.2,0.8,0.4,0.6,0.2,0.8,0.6,0.4,,,0.327,,0.2,0.8,0.4,0.6,0.8,0.2,0.8,0.2,1,0
,,5d7df958cb6cf00001399929,66fce6cb3397cd8e465b92d6,2024-10-02_08h23.20.265,mdp,2024.2.1,Win32,60.24096386,66fa4ebf79326e780c390304,,,,,,,,,,,,,,,,,,,,,703.2413,703.2413,703.2417,704.1744,1,0,right,0.4007,,704.1748,705.1244,1,1,right,705.1247,706.1911,0,1,left,0,706.1911,706.1911,706.1916,707.6911,0,38,38,38,1,0.2,0.8,0.6,0.4,,,,,,,,,,,,,,,0.4275,,0.2,0.8,0.4,0.6,0.2,0.8,0.6,0.4,,,0.5486,,0.2,0.8,0.4,0.6,0.8,0.2,0.8,0.2,1,0
,,5d7df958cb6cf00001399929,66fce6cb3397cd8e465b92d6,2024-10-02_08h23.20.265,mdp,2024.2.1,Win32,60.24096386,66fa4ebf79326e780c390304,,,,,,,,,,,,,,,,,,,,,707.6912,707.6912,707.6916,708.5744,1,1,right,0.359,,708.5748,709.6911,0,0,left,709.6915,710.5912,1,0,right,1,710.5912,710.5912,710.5916,712.0913,0,39,39,39,1,0.2,0.8,0.6,0.4,,,,,,,,,,,,,,,0.6106,,0.2,0.8,0.4,0.6,0.2,0.8,0.6,0.4,,,0.3811,,0.2,0.8,0.4,0.6,0.8,0.2,0.8,0.2,1,0
,,5d7df958cb6cf00001399929,66fce6cb3397cd8e465b92d6,2024-10-02_08h23.20.265,mdp,2024.2.1,Win32,60.24096386,66fa4ebf79326e780c390304,,,,,,,,,,,,,,,,,,,,,712.0914,712.0915,712.0918,713.0912,1,0,right,0.4789,,713.0916,714.1912,1,1,right,714.1916,715.3413,1,0,right,1,715.3413,715.3413,715.3417,716.8412,0,40,40,40,1,0.2,0.8,0.6,0.4,,,,,,,,,,,,,,,0.5828,,0.2,0.8,0.4,0.6,0.2,0.8,0.6,0.4,,,0.6331,,0.2,0.8,0.4,0.6,0.8,0.2,0.8,0.2,1,0
,,5d7df958cb6cf00001399929,66fce6cb3397cd8e465b92d6,2024-10-02_08h23.20.265,mdp,2024.2.1,Win32,60.24096386,66fa4ebf79326e780c390304,,,,,,,,,,,,,,,,,,,,,716.8414,716.8414,716.8419,717.9413,1,0,right,0.5685,,717.9418,718.8913,1,0,right,718.8917,719.9413,0,1,left,0,719.9413,719.9414,719.9417,721.4414,0,41,41,41,1,0.2,0.8,0.6,0.4,,,,,,,,,,,,,,,0.4207,,0.2,0.8,0.4,0.6,0.2,0.8,0.6,0.4,,,0.5251,,0.2,0.8,0.4,0.6,0.8,0.2,0.8,0.2,1,0
,,5d7df958cb6cf00001399929,66fce6cb3397cd8e465b92d6,2024-10-02_08h23.20.265,mdp,2024.2.1,Win32,60.24096386,66fa4ebf79326e780c390304,,,,,,,,,,,,,,,,,,,,,721.4415,721.4415,721.4419,722.3748,1,1,right,0.4161,,722.3752,723.5747,0,1,left,723.575,724.4248,1,1,right,0,724.4248,724.4248,724.4253,725.9247,0,42,42,42,1,0.2,0.8,0.6,0.4,,,,,,,,,,,,,,,0.6742,,0.2,0.8,0.4,0.6,0.2,0.8,0.6,0.4,,,0.3384,,0.2,0.8,0.4,0.6,0.8,0.2,0.8,0.2,1,0
,,5d7df958cb6cf00001399929,66fce6cb3397cd8e465b92d6,2024-10-02_08h23.20.265,mdp,2024.2.1,Win32,60.24096386,66fa4ebf79326e780c390304,,,,,,,,,,,,,,,,,,,,,725.9248,725.9248,725.9252,726.8081,1,0,right,0.35,,726.8085,727.7749,1,0,right,727.7753,728.6415,1,0,right,1,728.6415,728.6415,728.6419,730.1415,0,43,43,43,1,0.2,0.8,0.6,0.4,,,,,,,,,,,,,,,0.4323,,0.2,0.8,0.4,0.6,0.2,0.8,0.6,0.4,,,0.3368,,0.2,0.8,0.4,0.6,0.8,0.2,0.8,0.2,1,0
,,5d7df958cb6cf00001399929,66fce6cb3397cd8e465b92d6,2024-10-02_08h23.20.265,mdp,2024.2.1,Win32,60.24096386,66fa4ebf79326e780c390304,,,,,,,,,,,,,,,,,,,,,730.1417,730.1417,730.1421,731.0082,1,0,right,0.3337,,731.0087,731.9582,1,0,right,731.9586,732.8249,1,1,right,0,732.8249,732.8249,732.8253,734.3249,0,44,44,44,1,0.2,0.8,0.6,0.4,,,,,,,,,,,,,,,0.4198,,0.2,0.8,0.4,0.6,0.2,0.8,0.6,0.4,,,0.3338,,0.2,0.8,0.4,0.6,0.8,0.2,0.8,0.2,1,0
,,5d7df958cb6cf00001399929,66fce6cb3397cd8e465b92d6,2024-10-02_08h23.20.265,mdp,2024.2.1,Win32,60.24096386,66fa4ebf79326e780c390304,,,,,,,,,,,,,,,,,,,,,734.3251,734.3251,734.3255,735.1917,1,0,right,0.334,,735.1921,736.1416,1,1,right,736.142,737.2084,0,0,left,1,737.2084,737.2084,737.2087,738.7083,0,45,45,45,1,0.2,0.8,0.6,0.4,,,,,,,,,,,,,,,0.4262,,0.2,0.8,0.4,0.6,0.2,0.8,0.6,0.4,,,0.532,,0.2,0.8,0.4,0.6,0.8,0.2,0.8,0.2,1,0
,,5d7df958cb6cf00001399929,66fce6cb3397cd8e465b92d6,2024-10-02_08h23.20.265,mdp,2024.2.1,Win32,60.24096386,66fa4ebf79326e780c390304,,,,,,,,,,,,,,,,,,,,,738.7085,738.7085,738.7089,739.5917,1,1,right,0.3576,,739.5921,740.6251,1,0,right,740.6255,741.475,1,1,right,0,741.4751,741.4751,741.4755,742.975,0,46,46,46,1,0.2,0.8,0.6,0.4,,,,,,,,,,,,,,,0.5209,,0.2,0.8,0.4,0.6,0.2,0.8,0.6,0.4,,,0.3275,,0.2,0.8,0.4,0.6,0.8,0.2,0.8,0.2,1,0
,,5d7df958cb6cf00001399929,66fce6cb3397cd8e465b92d6,2024-10-02_08h23.20.265,mdp,2024.2.1,Win32,60.24096386,66fa4ebf79326e780c390304,,,,,,,,,,,,,,,,,,,,,742.9752,742.9752,742.9755,743.8418,1,1,right,0.3387,,743.8422,744.8584,0,1,left,744.8588,745.7251,1,0,right,1,745.7252,745.7252,745.7255,747.2251,0,47,47,47,1,0.2,0.8,0.6,0.4,,,,,,,,,,,,,,,0.4838,,0.2,0.8,0.4,0.6,0.2,0.8,0.6,0.4,,,0.3336,,0.2,0.8,0.4,0.6,0.8,0.2,0.8,0.2,1,0
,,5d7df958cb6cf00001399929,66fce6cb3397cd8e465b92d6,2024-10-02_08h23.20.265,mdp,2024.2.1,Win32,60.24096386,66fa4ebf79326e780c390304,,,,,,,,,,,,,,,,,,,,,747.2253,747.2253,747.2256,748.1085,1,1,right,0.3527,,748.1089,749.1418,0,1,left,749.1422,750.0753,1,0,right,1,750.0753,750.0753,750.0757,751.5752,0,48,48,48,1,0.2,0.8,0.6,0.4,,,,,,,,,,,,,,,0.5095,,0.2,0.8,0.4,0.6,0.2,0.8,0.6,0.4,,,0.4174,,0.2,0.8,0.4,0.6,0.8,0.2,0.8,0.2,1,0
,,5d7df958cb6cf00001399929,66fce6cb3397cd8e465b92d6,2024-10-02_08h23.20.265,mdp,2024.2.1,Win32,60.24096386,66fa4ebf79326e780c390304,,,,,,,,,,,,,,,,,,,,,751.5754,751.5754,751.5758,752.5586,1,0,right,0.4505,,752.5591,753.542,1,1,right,753.5423,754.442,0,0,left,1,754.442,754.442,754.4424,755.942,0,49,49,49,1,0.2,0.8,0.6,0.4,,,,,,,,,,,,,,,0.4578,,0.2,0.8,0.4,0.6,0.2,0.8,0.6,0.4,,,0.3721,,0.2,0.8,0.4,0.6,0.8,0.2,0.8,0.2,1,0
,,5d7df958cb6cf00001399929,66fce6cb3397cd8e465b92d6,2024-10-02_08h23.20.265,mdp,2024.2.1,Win32,60.24096386,66fa4ebf79326e780c390304,,,,,,,,,,,,,,,,,,,,,,,,,,,,,,,,,,,,,,,,,,,,,,,,,,,,,,,,755.942,814.4429,0,2,2,8,1,imgs/lion.png,imgs/bear.png,imgs/dog.png,imgs/cat.png,imgs/kangaroo.png,,,,,,,,,,,,,,,,,,,,,,,,
,,5d7df958cb6cf00001399929,66fce6cb3397cd8e465b92d6,2024-10-02_08h23.20.265,mdp,2024.2.1,Win32,60.24096386,66fa4ebf79326e780c390304,,,,,,,,,,,,,,3,seqs/st3seq37.csv,814.4431,817.0932,space,2.1268,,817.0959,817.0959,817.0963,818.6098,1,1,right,0.9869,,818.6102,819.6099,1,0,right,819.6103,820.5765,1,0,right,1,820.5765,820.5765,820.5769,822.0765,0,0,0,0,1,0.8,0.2,0.2,0.8,,,,,,,,,,,,,,,0.4649,,0.6,0.4,0.8,0.2,0.4,0.6,0.8,0.2,,,0.4315,,0.6,0.4,0.8,0.2,0.2,0.8,0.2,0.8,1,0
,,5d7df958cb6cf00001399929,66fce6cb3397cd8e465b92d6,2024-10-02_08h23.20.265,mdp,2024.2.1,Win32,60.24096386,66fa4ebf79326e780c390304,,,,,,,,,,,,,,,,,,,,,822.0766,822.0766,822.077,822.9933,1,1,right,0.3894,,822.9937,823.9099,1,0,right,823.9103,824.8265,1,1,right,0,824.8266,824.8266,824.827,826.3265,0,1,1,1,1,0.8,0.2,0.2,0.8,,,,,,,,,,,,,,,0.3849,,0.6,0.4,0.8,0.2,0.4,0.6,0.8,0.2,,,0.3848,,0.6,0.4,0.8,0.2,0.2,0.8,0.2,0.8,1,0
,,5d7df958cb6cf00001399929,66fce6cb3397cd8e465b92d6,2024-10-02_08h23.20.265,mdp,2024.2.1,Win32,60.24096386,66fa4ebf79326e780c390304,,,,,,,,,,,,,,,,,,,,,826.3267,826.3267,826.327,827.1766,1,1,right,0.3232,,827.177,828.0432,1,1,right,828.0437,828.8932,1,1,right,0,828.8933,828.8933,828.8936,830.3932,0,2,2,2,1,0.8,0.2,0.2,0.8,,,,,,,,,,,,,,,0.3599,,0.6,0.4,0.8,0.2,0.4,0.6,0.8,0.2,,,0.3334,,0.6,0.4,0.8,0.2,0.2,0.8,0.2,0.8,1,0
,,5d7df958cb6cf00001399929,66fce6cb3397cd8e465b92d6,2024-10-02_08h23.20.265,mdp,2024.2.1,Win32,60.24096386,66fa4ebf79326e780c390304,,,,,,,,,,,,,,,,,,,,,830.3934,830.3934,830.3938,831.4434,1,1,right,0.5166,,831.4438,832.6267,0,0,left,832.6271,833.4434,0,0,left,1,833.4434,833.4434,833.4438,834.9434,0,3,3,3,1,0.8,0.2,0.2,0.8,,,,,,,,,,,,,,,0.6546,,0.6,0.4,0.8,0.2,0.4,0.6,0.8,0.2,,,0.2855,,0.6,0.4,0.8,0.2,0.2,0.8,0.2,0.8,1,0
,,5d7df958cb6cf00001399929,66fce6cb3397cd8e465b92d6,2024-10-02_08h23.20.265,mdp,2024.2.1,Win32,60.24096386,66fa4ebf79326e780c390304,,,,,,,,,,,,,,,,,,,,,834.9435,834.9435,834.9439,835.9267,1,1,right,0.4505,,835.927,836.76,0,1,left,836.7604,837.5767,0,1,left,0,837.5767,837.5767,837.5771,839.0768,0,4,4,4,1,0.8,0.2,0.2,0.8,,,,,,,,,,,,,,,0.3238,,0.6,0.4,0.8,0.2,0.4,0.6,0.8,0.2,,,0.2985,,0.6,0.4,0.8,0.2,0.2,0.8,0.2,0.8,1,0
,,5d7df958cb6cf00001399929,66fce6cb3397cd8e465b92d6,2024-10-02_08h23.20.265,mdp,2024.2.1,Win32,60.24096386,66fa4ebf79326e780c390304,,,,,,,,,,,,,,,,,,,,,839.077,839.077,839.0773,839.9935,1,1,right,0.388,,839.9939,840.8267,1,0,right,840.8272,841.6435,0,0,left,1,841.6435,841.6435,841.6439,843.1436,0,5,5,5,1,0.8,0.2,0.2,0.8,,,,,,,,,,,,,,,0.3046,,0.6,0.4,0.8,0.2,0.4,0.6,0.8,0.2,,,0.2932,,0.6,0.4,0.8,0.2,0.2,0.8,0.2,0.8,1,0
,,5d7df958cb6cf00001399929,66fce6cb3397cd8e465b92d6,2024-10-02_08h23.20.265,mdp,2024.2.1,Win32,60.24096386,66fa4ebf79326e780c390304,,,,,,,,,,,,,,,,,,,,,843.1438,843.1438,843.1441,844.0768,1,1,right,0.4102,,844.0773,844.9103,1,0,right,844.9107,845.7436,0,0,left,1,845.7436,845.7436,845.744,847.2435,0,6,6,6,1,0.4,0.6,0.8,0.2,,,,,,,,,,,,,,,0.3182,,0.6,0.4,0.8,0.2,0.4,0.6,0.8,0.2,,,0.3178,,0.6,0.4,0.8,0.2,0.2,0.8,0.2,0.8,1,0
,,5d7df958cb6cf00001399929,66fce6cb3397cd8e465b92d6,2024-10-02_08h23.20.265,mdp,2024.2.1,Win32,60.24096386,66fa4ebf79326e780c390304,,,,,,,,,,,,,,,,,,,,,847.2437,847.2437,847.244,848.0937,1,0,right,0.3182,,848.0941,849.3936,0,0,left,849.394,850.4937,1,0,right,1,850.4938,850.4938,850.4942,851.9938,0,7,7,7,1,0.4,0.6,0.8,0.2,,,,,,,,,,,,,,,0.7703,,0.8,0.2,0.2,0.8,0.4,0.6,0.8,0.2,,,0.5761,,0.6,0.4,0.8,0.2,0.2,0.8,0.2,0.8,1,0
,,5d7df958cb6cf00001399929,66fce6cb3397cd8e465b92d6,2024-10-02_08h23.20.265,mdp,2024.2.1,Win32,60.24096386,66fa4ebf79326e780c390304,,,,,,,,,,,,,,,,,,,,,851.9939,851.9939,851.9942,852.8936,1,0,right,0.3761,,852.8941,853.8271,0,1,left,853.8274,854.9271,0,0,left,1,854.9271,854.9271,854.9274,856.4272,0,8,8,8,1,0.4,0.6,0.8,0.2,,,,,,,,,,,,,,,0.4196,,0.8,0.2,0.2,0.8,0.4,0.6,0.8,0.2,,,0.5649,,0.6,0.4,0.8,0.2,0.2,0.8,0.2,0.8,1,0
,,5d7df958cb6cf00001399929,66fce6cb3397cd8e465b92d6,2024-10-02_08h23.20.265,mdp,2024.2.1,Win32,60.24096386,66fa4ebf79326e780c390304,,,,,,,,,,,,,,,,,,,,,856.4273,856.4273,856.4277,857.3438,1,0,right,0.3837,,857.3442,858.2772,0,0,left,858.2775,859.4438,1,0,right,1,859.4438,859.4438,859.4441,860.9437,0,9,9,9,1,0.4,0.6,0.8,0.2,,,,,,,,,,,,,,,0.427,,0.8,0.2,0.2,0.8,0.4,0.6,0.8,0.2,,,0.6601,,0.6,0.4,0.8,0.2,0.2,0.8,0.2,0.8,1,0
,,5d7df958cb6cf00001399929,66fce6cb3397cd8e465b92d6,2024-10-02_08h23.20.265,mdp,2024.2.1,Win32,60.24096386,66fa4ebf79326e780c390304,,,,,,,,,,,,,,,,,,,,,860.944,860.944,860.9443,861.7771,1,0,right,0.3216,,861.7775,862.7272,0,1,left,862.7276,863.744,0,1,left,0,863.7441,863.7441,863.7444,865.2439,0,10,10,10,1,0.4,0.6,0.8,0.2,,,,,,,,,,,,,,,0.4414,,0.2,0.8,0.4,0.6,0.4,0.6,0.8,0.2,,,0.4891,,0.6,0.4,0.8,0.2,0.2,0.8,0.2,0.8,1,0
,,5d7df958cb6cf00001399929,66fce6cb3397cd8e465b92d6,2024-10-02_08h23.20.265,mdp,2024.2.1,Win32,60.24096386,66fa4ebf79326e780c390304,,,,,,,,,,,,,,,,,,,,,865.244,865.244,865.2444,866.094,1,0,right,0.3258,,866.0944,867.0273,0,1,left,867.0278,868.0941,0,0,left,1,868.0941,868.0941,868.0945,869.594,0,11,11,11,1,0.4,0.6,0.8,0.2,,,,,,,,,,,,,,,0.4117,,0.2,0.8,0.4,0.6,0.4,0.6,0.8,0.2,,,0.5425,,0.6,0.4,0.8,0.2,0.2,0.8,0.2,0.8,1,0
,,5d7df958cb6cf00001399929,66fce6cb3397cd8e465b92d6,2024-10-02_08h23.20.265,mdp,2024.2.1,Win32,60.24096386,66fa4ebf79326e780c390304,,,,,,,,,,,,,,,,,,,,,869.5942,869.5942,869.5945,870.4608,1,0,right,0.3358,,870.4612,871.394,0,1,left,871.3945,872.3274,0,1,left,0,872.3274,872.3274,872.3278,873.8274,0,12,12,12,1,0.4,0.6,0.8,0.2,,,,,,,,,,,,,,,0.4053,,0.2,0.8,0.4,0.6,0.4,0.6,0.8,0.2,,,0.4001,,0.6,0.4,0.8,0.2,0.2,0.8,0.2,0.8,1,0
,,5d7df958cb6cf00001399929,66fce6cb3397cd8e465b92d6,2024-10-02_08h23.20.265,mdp,2024.2.1,Win32,60.24096386,66fa4ebf79326e780c390304,,,,,,,,,,,,,,,,,,,,,873.8277,873.8277,873.8281,874.6774,1,1,right,0.3184,,874.6777,875.8609,1,0,right,875.8613,876.6942,0,0,left,1,876.6942,876.6942,876.6947,878.1942,0,13,13,13,1,0.4,0.6,0.8,0.2,,,,,,,,,,,,,,,0.6754,,0.2,0.8,0.4,0.6,0.4,0.6,0.8,0.2,,,0.3075,,0.6,0.4,0.8,0.2,0.6,0.4,0.6,0.4,1,0
,,5d7df958cb6cf00001399929,66fce6cb3397cd8e465b92d6,2024-10-02_08h23.20.265,mdp,2024.2.1,Win32,60.24096386,66fa4ebf79326e780c390304,,,,,,,,,,,,,,,,,,,,,878.1942,878.1942,878.1947,879.0441,1,1,right,0.3194,,879.0445,879.9443,1,0,right,879.9447,880.861,0,0,left,1,880.8611,880.8611,880.8614,882.3609,0,14,14,14,1,0.4,0.6,0.8,0.2,,,,,,,,,,,,,,,0.3737,,0.2,0.8,0.4,0.6,0.4,0.6,0.8,0.2,,,0.3937,,0.6,0.4,0.8,0.2,0.6,0.4,0.6,0.4,1,0
,,5d7df958cb6cf00001399929,66fce6cb3397cd8e465b92d6,2024-10-02_08h23.20.265,mdp,2024.2.1,Win32,60.24096386,66fa4ebf79326e780c390304,,,,,,,,,,,,,,,,,,,,,882.3611,882.3611,882.3614,883.1276,1,0,right,0.2407,,883.1281,884.3277,1,0,right,884.3282,885.161,0,1,left,0,885.161,885.161,885.1614,886.661,0,15,15,15,1,0.4,0.6,0.8,0.2,,,,,,,,,,,,,,,0.6813,,0.2,0.8,0.4,0.6,0.4,0.6,0.8,0.2,,,0.3166,,0.6,0.4,0.8,0.2,0.6,0.4,0.6,0.4,1,0
,,5d7df958cb6cf00001399929,66fce6cb3397cd8e465b92d6,2024-10-02_08h23.20.265,mdp,2024.2.1,Win32,60.24096386,66fa4ebf79326e780c390304,,,,,,,,,,,,,,,,,,,,,886.6611,886.6611,886.6616,887.5944,1,0,right,0.4048,,887.5948,888.5444,1,1,right,888.5448,889.6111,1,0,right,1,889.6111,889.6111,889.6115,891.1111,0,16,16,16,1,0.4,0.6,0.8,0.2,,,,,,,,,,,,,,,0.4233,,0.2,0.8,0.4,0.6,0.4,0.6,0.8,0.2,,,0.5436,,0.6,0.4,0.8,0.2,0.6,0.4,0.6,0.4,1,0
,,5d7df958cb6cf00001399929,66fce6cb3397cd8e465b92d6,2024-10-02_08h23.20.265,mdp,2024.2.1,Win32,60.24096386,66fa4ebf79326e780c390304,,,,,,,,,,,,,,,,,,,,,891.1112,891.1112,891.1116,892.011,1,0,right,0.3671,,892.0115,893.0779,1,1,right,893.0782,893.9944,1,0,right,1,893.9944,893.9944,893.9948,895.4945,0,17,17,17,1,0.4,0.6,0.8,0.2,,,,,,,,,,,,,,,0.5429,,0.2,0.8,0.4,0.6,0.4,0.6,0.8,0.2,,,0.3849,,0.6,0.4,0.8,0.2,0.6,0.4,0.6,0.4,1,0
,,5d7df958cb6cf00001399929,66fce6cb3397cd8e465b92d6,2024-10-02_08h23.20.265,mdp,2024.2.1,Win32,60.24096386,66fa4ebf79326e780c390304,,,,,,,,,,,,,,,,,,,,,895.4947,895.4947,895.4951,896.3611,1,0,right,0.3395,,896.3615,897.4779,1,0,right,897.4783,898.5445,0,1,left,0,898.5446,898.5446,898.5449,900.0445,0,18,18,18,1,0.4,0.6,0.8,0.2,,,,,,,,,,,,,,,0.6095,,0.2,0.8,0.4,0.6,0.4,0.6,0.8,0.2,,,0.5381,,0.2,0.8,0.6,0.4,0.6,0.4,0.6,0.4,1,0
,,5d7df958cb6cf00001399929,66fce6cb3397cd8e465b92d6,2024-10-02_08h23.20.265,mdp,2024.2.1,Win32,60.24096386,66fa4ebf79326e780c390304,,,,,,,,,,,,,,,,,,,,,900.0447,900.0447,900.045,900.8446,1,0,right,0.2682,,900.845,901.8279,1,1,right,901.8283,902.6779,1,0,right,1,902.678,902.6781,902.6784,904.178,0,19,19,19,1,0.4,0.6,0.8,0.2,,,,,,,,,,,,,,,0.4594,,0.2,0.8,0.4,0.6,0.4,0.6,0.8,0.2,,,0.3408,,0.2,0.8,0.6,0.4,0.6,0.4,0.6,0.4,1,0
,,5d7df958cb6cf00001399929,66fce6cb3397cd8e465b92d6,2024-10-02_08h23.20.265,mdp,2024.2.1,Win32,60.24096386,66fa4ebf79326e780c390304,,,,,,,,,,,,,,,,,,,,,904.1782,904.1782,904.1786,905.0448,1,0,right,0.3428,,905.0451,905.9615,1,1,right,905.9618,906.8281,1,1,right,0,906.8281,906.8282,906.8285,908.328,0,20,20,20,1,0.4,0.6,0.8,0.2,,,,,,,,,,,,,,,0.3839,,0.2,0.8,0.4,0.6,0.4,0.6,0.8,0.2,,,0.3366,,0.2,0.8,0.6,0.4,0.6,0.4,0.6,0.4,1,0
,,5d7df958cb6cf00001399929,66fce6cb3397cd8e465b92d6,2024-10-02_08h23.20.265,mdp,2024.2.1,Win32,60.24096386,66fa4ebf79326e780c390304,,,,,,,,,,,,,,,,,,,,,908.3282,908.3282,908.3285,909.1615,1,0,right,0.3056,,909.1618,910.2114,1,0,right,910.2119,911.2449,1,0,right,1,911.2449,911.2449,911.2452,912.7447,0,21,21,21,1,0.4,0.6,0.8,0.2,,,,,,,,,,,,,,,0.5205,,0.2,0.8,0.4,0.6,0.4,0.6,0.8,0.2,,,0.5089,,0.2,0.8,0.6,0.4,0.6,0.4,0.6,0.4,1,0
,,5d7df958cb6cf00001399929,66fce6cb3397cd8e465b92d6,2024-10-02_08h23.20.265,mdp,2024.2.1,Win32,60.24096386,66fa4ebf79326e780c390304,,,,,,,,,,,,,,,,,,,,,912.7449,912.7449,912.7453,913.5949,1,0,right,0.3291,,913.5953,914.5782,1,1,right,914.5787,915.5116,1,0,right,1,915.5116,915.5116,915.5119,917.0115,0,22,22,22,1,0.4,0.6,0.8,0.2,,,,,,,,,,,,,,,0.4667,,0.2,0.8,0.4,0.6,0.4,0.6,0.8,0.2,,,0.4056,,0.2,0.8,0.6,0.4,0.6,0.4,0.6,0.4,1,0
,,5d7df958cb6cf00001399929,66fce6cb3397cd8e465b92d6,2024-10-02_08h23.20.265,mdp,2024.2.1,Win32,60.24096386,66fa4ebf79326e780c390304,,,,,,,,,,,,,,,,,,,,,917.0116,917.0116,917.012,917.8783,1,0,right,0.3423,,917.8787,918.7284,1,1,right,918.7287,919.5949,1,1,right,0,919.5949,919.5949,919.5953,921.0949,0,23,23,23,1,0.4,0.6,0.8,0.2,,,,,,,,,,,,,,,0.3332,,0.2,0.8,0.4,0.6,0.4,0.6,0.8,0.2,,,0.3332,,0.2,0.8,0.6,0.4,0.2,0.8,0.4,0.6,1,0
,,5d7df958cb6cf00001399929,66fce6cb3397cd8e465b92d6,2024-10-02_08h23.20.265,mdp,2024.2.1,Win32,60.24096386,66fa4ebf79326e780c390304,,,,,,,,,,,,,,,,,,,,,921.0951,921.0951,921.0954,921.9449,1,0,right,0.3228,,921.9454,922.7951,1,0,right,922.7955,923.7617,1,1,right,0,923.7618,923.7618,923.7621,925.2618,0,24,24,24,1,0.4,0.6,0.8,0.2,,,,,,,,,,,,,,,0.3205,,0.2,0.8,0.4,0.6,0.4,0.6,0.8,0.2,,,0.4315,,0.2,0.8,0.6,0.4,0.2,0.8,0.4,0.6,1,0
,,5d7df958cb6cf00001399929,66fce6cb3397cd8e465b92d6,2024-10-02_08h23.20.265,mdp,2024.2.1,Win32,60.24096386,66fa4ebf79326e780c390304,,,,,,,,,,,,,,,,,,,,,925.262,925.262,925.2623,926.1619,1,0,right,0.3718,,926.1622,927.1451,1,1,right,927.1455,927.9618,0,1,left,0,927.9618,927.9618,927.9623,929.4618,0,25,25,25,1,0.4,0.6,0.8,0.2,,,,,,,,,,,,,,,0.456,,0.2,0.8,0.4,0.6,0.6,0.4,0.4,0.6,,,0.3031,,0.2,0.8,0.6,0.4,0.2,0.8,0.4,0.6,1,0
,,5d7df958cb6cf00001399929,66fce6cb3397cd8e465b92d6,2024-10-02_08h23.20.265,mdp,2024.2.1,Win32,60.24096386,66fa4ebf79326e780c390304,,,,,,,,,,,,,,,,,,,,,929.462,929.462,929.4624,930.7951,0,0,left,0.8041,,930.7956,931.6951,1,0,right,931.6955,932.5786,1,0,right,1,932.5786,932.5786,932.579,934.0786,0,26,26,26,1,0.4,0.6,0.8,0.2,,,,,,,,,,,,,,,0.3833,,0.2,0.8,0.4,0.6,0.6,0.4,0.4,0.6,,,0.3696,,0.2,0.8,0.6,0.4,0.2,0.8,0.4,0.6,1,0
,,5d7df958cb6cf00001399929,66fce6cb3397cd8e465b92d6,2024-10-02_08h23.20.265,mdp,2024.2.1,Win32,60.24096386,66fa4ebf79326e780c390304,,,,,,,,,,,,,,,,,,,,,934.0788,934.0788,934.0792,934.9618,0,1,left,0.3552,,934.9622,935.9453,1,0,right,935.9456,936.8286,1,0,right,1,936.8286,936.8286,936.8291,938.3286,0,27,27,27,1,0.4,0.6,0.8,0.2,,,,,,,,,,,,,,,0.4484,,0.2,0.8,0.4,0.6,0.6,0.4,0.4,0.6,,,0.3606,,0.2,0.8,0.6,0.4,0.2,0.8,0.4,0.6,1,0
,,5d7df958cb6cf00001399929,66fce6cb3397cd8e465b92d6,2024-10-02_08h23.20.265,mdp,2024.2.1,Win32,60.24096386,66fa4ebf79326e780c390304,,,,,,,,,,,,,,,,,,,,,938.3287,938.3287,938.3292,939.2119,0,0,left,0.3528,,939.2123,940.2286,0,0,left,940.229,941.2621,1,1,right,0,941.2621,941.2621,941.2625,942.762,0,28,28,28,1,0.4,0.6,0.8,0.2,,,,,,,,,,,,,,,0.4841,,0.2,0.8,0.4,0.6,0.6,0.4,0.4,0.6,,,0.5178,,0.2,0.8,0.6,0.4,0.2,0.8,0.4,0.6,1,0
,,5d7df958cb6cf00001399929,66fce6cb3397cd8e465b92d6,2024-10-02_08h23.20.265,mdp,2024.2.1,Win32,60.24096386,66fa4ebf79326e780c390304,,,,,,,,,,,,,,,,,,,,,942.7621,942.7621,942.7625,943.6621,0,0,left,0.3675,,943.6625,944.7789,0,1,left,944.7793,945.612,0,1,left,0,945.612,945.612,945.6124,947.1121,0,29,29,29,1,0.4,0.6,0.8,0.2,,,,,,,,,,,,,,,0.5958,,0.2,0.8,0.4,0.6,0.6,0.4,0.4,0.6,,,0.3093,,0.2,0.8,0.6,0.4,0.2,0.8,0.4,0.6,1,0
,,5d7df958cb6cf00001399929,66fce6cb3397cd8e465b92d6,2024-10-02_08h23.20.265,mdp,2024.2.1,Win32,60.24096386,66fa4ebf79326e780c390304,,,,,,,,,,,,,,,,,,,,,947.1123,947.1123,947.1126,947.9454,0,1,left,0.3,,947.9458,948.7622,1,0,right,948.7626,949.5955,1,0,right,1,949.5955,949.5955,949.5958,951.0956,0,30,30,30,1,0.2,0.8,0.6,0.4,,,,,,,,,,,,,,,0.2986,,0.2,0.8,0.4,0.6,0.6,0.4,0.4,0.6,,,0.3022,,0.2,0.8,0.6,0.4,0.2,0.8,0.4,0.6,1,0
,,5d7df958cb6cf00001399929,66fce6cb3397cd8e465b92d6,2024-10-02_08h23.20.265,mdp,2024.2.1,Win32,60.24096386,66fa4ebf79326e780c390304,,,,,,,,,,,,,,,,,,,,,951.0957,951.0957,951.0961,951.9789,0,1,left,0.3624,,951.9793,952.8122,1,1,right,952.8125,953.629,1,1,right,0,953.6291,953.6291,953.6294,955.1288,0,31,31,31,1,0.2,0.8,0.6,0.4,,,,,,,,,,,,,,,0.311,,0.2,0.8,0.4,0.6,0.6,0.4,0.4,0.6,,,0.2818,,0.2,0.8,0.6,0.4,0.2,0.8,0.4,0.6,1,0
,,5d7df958cb6cf00001399929,66fce6cb3397cd8e465b92d6,2024-10-02_08h23.20.265,mdp,2024.2.1,Win32,60.24096386,66fa4ebf79326e780c390304,,,,,,,,,,,,,,,,,,,,,955.129,955.129,955.1294,956.0456,0,1,left,0.385,,956.046,956.9791,1,0,right,956.9794,957.8456,0,1,left,0,957.8456,957.8456,957.846,959.3457,0,32,32,32,1,0.2,0.8,0.6,0.4,,,,,,,,,,,,,,,0.4169,,0.2,0.8,0.4,0.6,0.6,0.4,0.4,0.6,,,0.3331,,0.2,0.8,0.6,0.4,0.2,0.8,0.4,0.6,1,0
,,5d7df958cb6cf00001399929,66fce6cb3397cd8e465b92d6,2024-10-02_08h23.20.265,mdp,2024.2.1,Win32,60.24096386,66fa4ebf79326e780c390304,,,,,,,,,,,,,,,,,,,,,959.3459,959.3459,959.3462,960.1957,1,1,right,0.3281,,960.196,961.3457,1,1,right,961.3461,962.2123,1,1,right,0,962.2124,962.2124,962.2128,963.7125,0,33,33,33,1,0.2,0.8,0.6,0.4,,,,,,,,,,,,,,,0.6387,,0.2,0.8,0.4,0.6,0.6,0.4,0.4,0.6,,,0.3425,,0.2,0.8,0.6,0.4,0.6,0.4,0.2,0.8,1,0
,,5d7df958cb6cf00001399929,66fce6cb3397cd8e465b92d6,2024-10-02_08h23.20.265,mdp,2024.2.1,Win32,60.24096386,66fa4ebf79326e780c390304,,,,,,,,,,,,,,,,,,,,,963.7127,963.7127,963.713,964.7958,1,0,right,0.5617,,964.7962,965.8626,1,0,right,965.8629,966.7125,0,0,left,1,966.7125,966.7125,966.7129,968.2126,0,34,34,34,1,0.2,0.8,0.6,0.4,,,,,,,,,,,,,,,0.5404,,0.2,0.8,0.4,0.6,0.6,0.4,0.4,0.6,,,0.315,,0.2,0.8,0.6,0.4,0.6,0.4,0.2,0.8,1,0
,,5d7df958cb6cf00001399929,66fce6cb3397cd8e465b92d6,2024-10-02_08h23.20.265,mdp,2024.2.1,Win32,60.24096386,66fa4ebf79326e780c390304,,,,,,,,,,,,,,,,,,,,,968.2128,968.2128,968.2131,969.1793,1,0,right,0.436,,969.1797,970.1459,1,1,right,970.1462,971.3293,0,1,left,0,971.3293,971.3293,971.3297,972.8292,0,35,35,35,1,0.2,0.8,0.6,0.4,,,,,,,,,,,,,,,0.4335,,0.2,0.8,0.4,0.6,0.6,0.4,0.4,0.6,,,0.6485,,0.2,0.8,0.6,0.4,0.6,0.4,0.2,0.8,1,0
,,5d7df958cb6cf00001399929,66fce6cb3397cd8e465b92d6,2024-10-02_08h23.20.265,mdp,2024.2.1,Win32,60.24096386,66fa4ebf79326e780c390304,,,,,,,,,,,,,,,,,,,,,972.8294,972.8294,972.8296,973.7792,1,1,right,0.4284,,973.7797,975.2626,0,0,left,975.263,976.4461,0,1,left,0,976.4461,976.4461,976.4465,977.9459,0,36,36,36,1,0.2,0.8,0.6,0.4,,,,,,,,,,,,,,,0.9732,,0.2,0.8,0.4,0.6,0.6,0.4,0.4,0.6,,,0.6661,,0.2,0.8,0.6,0.4,0.6,0.4,0.2,0.8,1,0
,,5d7df958cb6cf00001399929,66fce6cb3397cd8e465b92d6,2024-10-02_08h23.20.265,mdp,2024.2.1,Win32,60.24096386,66fa4ebf79326e780c390304,,,,,,,,,,,,,,,,,,,,,977.9461,977.9461,977.9464,978.8627,1,1,right,0.392,,978.8631,979.8962,1,0,right,979.8965,980.8961,0,0,left,1,980.8961,980.8961,980.8965,982.3961,0,37,37,37,1,0.2,0.8,0.6,0.4,,,,,,,,,,,,,,,0.5001,,0.2,0.8,0.4,0.6,0.6,0.4,0.4,0.6,,,0.4831,,0.2,0.8,0.6,0.4,0.6,0.4,0.2,0.8,1,0
,,5d7df958cb6cf00001399929,66fce6cb3397cd8e465b92d6,2024-10-02_08h23.20.265,mdp,2024.2.1,Win32,60.24096386,66fa4ebf79326e780c390304,,,,,,,,,,,,,,,,,,,,,982.3962,982.3962,982.3966,983.3129,1,0,right,0.3833,,983.3132,985.0295,1,1,right,985.0299,986.3628,1,0,right,1,986.3628,986.3628,986.3631,987.8629,0,38,38,38,1,0.2,0.8,0.6,0.4,,,,,,,,,,,,,,,1.183,,0.2,0.8,0.4,0.6,0.6,0.4,0.4,0.6,,,0.7981,,0.2,0.8,0.6,0.4,0.6,0.4,0.2,0.8,1,0
,,5d7df958cb6cf00001399929,66fce6cb3397cd8e465b92d6,2024-10-02_08h23.20.265,mdp,2024.2.1,Win32,60.24096386,66fa4ebf79326e780c390304,,,,,,,,,,,,,,,,,,,,,987.863,987.863,987.8634,988.963,1,1,right,0.5668,,988.9634,990.2296,1,1,right,990.23,991.3463,0,1,left,0,991.3464,991.3464,991.3467,992.8462,0,39,39,39,1,0.2,0.8,0.6,0.4,,,,,,,,,,,,,,,0.7411,,0.2,0.8,0.4,0.6,0.6,0.4,0.4,0.6,,,0.5834,,0.2,0.8,0.6,0.4,0.6,0.4,0.2,0.8,1,0
,,5d7df958cb6cf00001399929,66fce6cb3397cd8e465b92d6,2024-10-02_08h23.20.265,mdp,2024.2.1,Win32,60.24096386,66fa4ebf79326e780c390304,,,,,,,,,,,,,,,,,,,,,992.8464,992.8464,992.8467,993.7964,1,0,right,0.4192,,993.7968,994.9464,1,1,right,994.9467,995.8965,1,0,right,1,995.8965,995.8965,995.8968,997.3963,0,40,40,40,1,0.2,0.8,0.6,0.4,,,,,,,,,,,,,,,0.6317,,0.2,0.8,0.4,0.6,0.6,0.4,0.4,0.6,,,0.4232,,0.2,0.8,0.6,0.4,0.6,0.4,0.2,0.8,1,0
,,5d7df958cb6cf00001399929,66fce6cb3397cd8e465b92d6,2024-10-02_08h23.20.265,mdp,2024.2.1,Win32,60.24096386,66fa4ebf79326e780c390304,,,,,,,,,,,,,,,,,,,,,997.3965,997.3965,997.3968,998.3464,1,0,right,0.4215,,998.3468,999.3631,1,1,right,999.3636,1000.263,1,1,right,0,1000.263,1000.263,1000.2634,1001.7631,0,41,41,41,1,0.2,0.8,0.6,0.4,,,,,,,,,,,,,,,0.512,,0.2,0.8,0.4,0.6,0.6,0.4,0.4,0.6,,,0.3836,,0.2,0.8,0.6,0.4,0.6,0.4,0.2,0.8,1,0
,,5d7df958cb6cf00001399929,66fce6cb3397cd8e465b92d6,2024-10-02_08h23.20.265,mdp,2024.2.1,Win32,60.24096386,66fa4ebf79326e780c390304,,,,,,,,,,,,,,,,,,,,,1001.7632,1001.7632,1001.7635,1002.7465,1,0,right,0.4663,,1002.7469,1003.7466,1,1,right,1003.747,1004.6632,0,0,left,1,1004.6632,1004.6632,1004.6636,1006.1632,0,42,42,42,1,0.2,0.8,0.6,0.4,,,,,,,,,,,,,,,0.4713,,0.2,0.8,0.4,0.6,0.6,0.4,0.4,0.6,,,0.3912,,0.8,0.2,0.4,0.6,0.6,0.4,0.2,0.8,1,0
,,5d7df958cb6cf00001399929,66fce6cb3397cd8e465b92d6,2024-10-02_08h23.20.265,mdp,2024.2.1,Win32,60.24096386,66fa4ebf79326e780c390304,,,,,,,,,,,,,,,,,,,,,1006.1634,1006.1634,1006.1637,1007.0466,1,1,right,0.3504,,1007.047,1008.4299,0,1,left,1008.4302,1009.5633,0,0,left,1,1009.5633,1009.5633,1009.5636,1011.0632,0,43,43,43,1,0.2,0.8,0.6,0.4,,,,,,,,,,,,,,,0.8494,,0.2,0.8,0.4,0.6,0.6,0.4,0.4,0.6,,,0.6207,,0.8,0.2,0.4,0.6,0.6,0.4,0.2,0.8,1,0
,,5d7df958cb6cf00001399929,66fce6cb3397cd8e465b92d6,2024-10-02_08h23.20.265,mdp,2024.2.1,Win32,60.24096386,66fa4ebf79326e780c390304,,,,,,,,,,,,,,,,,,,,,1011.0634,1011.0634,1011.0637,1012.03,1,1,right,0.4344,,1012.0303,1013.0467,0,0,left,1013.047,1014.3468,1,0,right,1,1014.3468,1014.3468,1014.3471,1015.8467,0,44,44,44,1,0.2,0.8,0.6,0.4,,,,,,,,,,,,,,,0.5086,,0.2,0.8,0.4,0.6,0.6,0.4,0.4,0.6,,,0.7693,,0.8,0.2,0.4,0.6,0.6,0.4,0.2,0.8,1,0
,,5d7df958cb6cf00001399929,66fce6cb3397cd8e465b92d6,2024-10-02_08h23.20.265,mdp,2024.2.1,Win32,60.24096386,66fa4ebf79326e780c390304,,,,,,,,,,,,,,,,,,,,,1015.8468,1015.8468,1015.8473,1016.7966,1,1,right,0.427,,1016.797,1017.8467,0,0,left,1017.8471,1018.8467,1,1,right,0,1018.8467,1018.8467,1018.8471,1020.3468,0,45,45,45,1,0.2,0.8,0.6,0.4,,,,,,,,,,,,,,,0.5419,,0.2,0.8,0.4,0.6,0.6,0.4,0.4,0.6,,,0.4917,,0.8,0.2,0.4,0.6,0.6,0.4,0.2,0.8,1,0
,,5d7df958cb6cf00001399929,66fce6cb3397cd8e465b92d6,2024-10-02_08h23.20.265,mdp,2024.2.1,Win32,60.24096386,66fa4ebf79326e780c390304,,,,,,,,,,,,,,,,,,,,,1020.3469,1020.3469,1020.3473,1021.23,1,1,right,0.3579,,1021.2305,1022.4636,0,1,left,1022.4639,1023.6635,1,0,right,1,1023.6635,1023.6635,1023.6639,1025.1636,0,46,46,46,1,0.2,0.8,0.6,0.4,,,,,,,,,,,,,,,0.7154,,0.2,0.8,0.4,0.6,0.6,0.4,0.4,0.6,,,0.6653,,0.8,0.2,0.4,0.6,0.6,0.4,0.2,0.8,1,0
,,5d7df958cb6cf00001399929,66fce6cb3397cd8e465b92d6,2024-10-02_08h23.20.265,mdp,2024.2.1,Win32,60.24096386,66fa4ebf79326e780c390304,,,,,,,,,,,,,,,,,,,,,1025.1638,1025.1639,1025.1641,1026.1803,1,1,right,0.486,,1026.1807,1027.5304,0,1,left,1027.5307,1028.7802,1,1,right,0,1028.7802,1028.7802,1028.7806,1030.2802,0,47,47,47,1,0.2,0.8,0.6,0.4,,,,,,,,,,,,,,,0.8167,,0.2,0.8,0.4,0.6,0.6,0.4,0.4,0.6,,,0.7274,,0.2,0.8,0.6,0.4,0.6,0.4,0.2,0.8,1,0
,,5d7df958cb6cf00001399929,66fce6cb3397cd8e465b92d6,2024-10-02_08h23.20.265,mdp,2024.2.1,Win32,60.24096386,66fa4ebf79326e780c390304,,,,,,,,,,,,,,,,,,,,,1030.2804,1030.2804,1030.2808,1031.2136,1,0,right,0.4081,,1031.214,1032.6637,1,0,right,1032.664,1033.5304,1,0,right,1,1033.5304,1033.5304,1033.5308,1035.0303,0,48,48,48,1,0.2,0.8,0.6,0.4,,,,,,,,,,,,,,,0.9326,,0.2,0.8,0.4,0.6,0.6,0.4,0.4,0.6,,,0.3527,,0.2,0.8,0.6,0.4,0.6,0.4,0.2,0.8,1,0
,,5d7df958cb6cf00001399929,66fce6cb3397cd8e465b92d6,2024-10-02_08h23.20.265,mdp,2024.2.1,Win32,60.24096386,66fa4ebf79326e780c390304,,,,,,,,,,,,,,,,,,,,,1035.0306,1035.0306,1035.0308,1035.9137,1,1,right,0.3502,,1035.9141,1037.1972,0,0,left,1037.1975,1038.0638,1,1,right,0,1038.0638,1038.0638,1038.0641,1039.5639,0,49,49,49,1,0.2,0.8,0.6,0.4,,,,,,,,,,,,,,,0.7752,,0.2,0.8,0.4,0.6,0.6,0.4,0.4,0.6,,,0.3396,,0.2,0.8,0.6,0.4,0.6,0.4,0.2,0.8,1,0
,,5d7df958cb6cf00001399929,66fce6cb3397cd8e465b92d6,2024-10-02_08h23.20.265,mdp,2024.2.1,Win32,60.24096386,66fa4ebf79326e780c390304,,,,,,,,,,,,,,,,,,,,,,,,,,,,,,,,,,,,,,,,,,,,,,,,,,,,,,,,1039.564,1098.0649,0,3,3,6,1,imgs/kangaroo.png,imgs/bear.png,imgs/giraffe.png,imgs/cat.png,imgs/elephant.png,,,,,,,,,,,,,,,,,,,,,,,,
,,5d7df958cb6cf00001399929,66fce6cb3397cd8e465b92d6,2024-10-02_08h23.20.265,mdp,2024.2.1,Win32,60.24096386,66fa4ebf79326e780c390304,,,,,,,,,,,,,,1,seqs/st1seq15.csv,1098.0653,1099.8984,space,1.2995,,1099.8994,1099.8994,1099.8997,1101.0316,1,0,right,0.5986,,1101.032,1101.0322,0,0,,1101.0324,1101.0325,1,0,,1,1101.0325,1101.0325,1101.0327,1102.5317,0,0,0,0,1,0.2,0.8,0.8,0.2,1,0,,,,,,,,,,,,,,,,,,,,,,,,,,,,,,,,,,,,
,,5d7df958cb6cf00001399929,66fce6cb3397cd8e465b92d6,2024-10-02_08h23.20.265,mdp,2024.2.1,Win32,60.24096386,66fa4ebf79326e780c390304,,,,,,,,,,,,,,,,,,,,,1102.5318,1102.5318,1102.5322,1103.465,1,1,right,0.4,,1103.4653,1103.4655,0,0,,1103.4657,1103.4658,1,1,,0,1103.4659,1103.4659,1103.466,1104.9651,0,1,1,1,1,0.2,0.8,0.8,0.2,1,0,,,,,,,,,,,,,,,,,,,,,,,,,,,,,,,,,,,,
,,5d7df958cb6cf00001399929,66fce6cb3397cd8e465b92d6,2024-10-02_08h23.20.265,mdp,2024.2.1,Win32,60.24096386,66fa4ebf79326e780c390304,,,,,,,,,,,,,,,,,,,,,1104.9653,1104.9653,1104.9656,1105.9483,1,1,right,0.4532,,1105.9487,1105.9489,0,0,,1105.9491,1105.9493,1,0,,0,1105.9493,1105.9493,1105.9494,1107.4484,0,2,2,2,1,0.2,0.8,0.8,0.2,1,0,,,,,,,,,,,,,,,,,,,,,,,,,,,,,,,,,,,,
,,5d7df958cb6cf00001399929,66fce6cb3397cd8e465b92d6,2024-10-02_08h23.20.265,mdp,2024.2.1,Win32,60.24096386,66fa4ebf79326e780c390304,,,,,,,,,,,,,,,,,,,,,1107.4486,1107.4486,1107.4488,1108.4151,0,0,left,0.4402,,1108.4155,1108.4157,0,0,,1108.4159,1108.416,1,0,,1,1108.416,1108.416,1108.4162,1109.915,0,3,3,3,1,0.2,0.8,0.8,0.2,1,0,,,,,,,,,,,,,,,,,,,,,,,,,,,,,,,,,,,,
,,5d7df958cb6cf00001399929,66fce6cb3397cd8e465b92d6,2024-10-02_08h23.20.265,mdp,2024.2.1,Win32,60.24096386,66fa4ebf79326e780c390304,,,,,,,,,,,,,,,,,,,,,1109.9152,1109.9152,1109.9156,1110.8985,0,1,left,0.4548,,1110.8989,1110.8991,0,1,,1110.8993,1110.8994,1,1,,0,1110.8994,1110.8994,1110.8996,1112.3985,0,4,4,4,1,0.2,0.8,0.8,0.2,1,0,,,,,,,,,,,,,,,,,,,,,,,,,,,,,,,,,,,,
,,5d7df958cb6cf00001399929,66fce6cb3397cd8e465b92d6,2024-10-02_08h23.20.265,mdp,2024.2.1,Win32,60.24096386,66fa4ebf79326e780c390304,,,,,,,,,,,,,,,,,,,,,1112.3987,1112.3987,1112.399,1113.4484,1,1,right,0.5234,,1113.4488,1113.449,0,0,,1113.4492,1113.4493,1,0,,0,1113.4493,1113.4494,1113.4495,1114.9486,0,5,5,5,1,0.2,0.8,0.8,0.2,1,0,,,,,,,,,,,,,,,,,,,,,,,,,,,,,,,,,,,,
,,5d7df958cb6cf00001399929,66fce6cb3397cd8e465b92d6,2024-10-02_08h23.20.265,mdp,2024.2.1,Win32,60.24096386,66fa4ebf79326e780c390304,,,,,,,,,,,,,,,,,,,,,1114.9486,1114.9487,1114.949,1115.8151,1,0,right,0.3409,,1115.8155,1115.8157,0,0,,1115.8159,1115.816,1,0,,1,1115.8161,1115.8161,1115.8162,1117.3152,0,6,6,6,1,0.2,0.8,0.8,0.2,1,0,,,,,,,,,,,,,,,,,,,,,,,,,,,,,,,,,,,,
,,5d7df958cb6cf00001399929,66fce6cb3397cd8e465b92d6,2024-10-02_08h23.20.265,mdp,2024.2.1,Win32,60.24096386,66fa4ebf79326e780c390304,,,,,,,,,,,,,,,,,,,,,1117.3153,1117.3153,1117.3156,1118.1985,0,1,left,0.351,,1118.1989,1118.1991,0,1,,1118.1993,1118.1994,1,1,,0,1118.1994,1118.1994,1118.1996,1119.6986,0,7,7,7,1,0.2,0.8,0.8,0.2,1,0,,,,,,,,,,,,,,,,,,,,,,,,,,,,,,,,,,,,
,,5d7df958cb6cf00001399929,66fce6cb3397cd8e465b92d6,2024-10-02_08h23.20.265,mdp,2024.2.1,Win32,60.24096386,66fa4ebf79326e780c390304,,,,,,,,,,,,,,,,,,,,,1119.6987,1119.6987,1119.6991,1120.5653,1,0,right,0.3349,,1120.5657,1120.5659,0,0,,1120.5661,1120.5662,1,0,,1,1120.5662,1120.5662,1120.5665,1122.0653,0,8,8,8,1,0.2,0.8,0.8,0.2,1,0,,,,,,,,,,,,,,,,,,,,,,,,,,,,,,,,,,,,
,,5d7df958cb6cf00001399929,66fce6cb3397cd8e465b92d6,2024-10-02_08h23.20.265,mdp,2024.2.1,Win32,60.24096386,66fa4ebf79326e780c390304,,,,,,,,,,,,,,,,,,,,,1122.0654,1122.0654,1122.0658,1122.8987,0,0,left,0.3,,1122.8991,1122.8993,0,1,,1122.8995,1122.8996,1,1,,1,1122.8997,1122.8997,1122.8998,1124.3986,0,9,9,9,1,0.2,0.8,0.8,0.2,1,0,,,,,,,,,,,,,,,,,,,,,,,,,,,,,,,,,,,,
,,5d7df958cb6cf00001399929,66fce6cb3397cd8e465b92d6,2024-10-02_08h23.20.265,mdp,2024.2.1,Win32,60.24096386,66fa4ebf79326e780c390304,,,,,,,,,,,,,,,,,,,,,1124.3987,1124.3988,1124.399,1125.2654,1,0,right,0.3379,,1125.2657,1125.2659,0,1,,1125.2661,1125.2663,1,0,,1,1125.2663,1125.2663,1125.2664,1126.7653,0,10,10,10,1,0.4,0.6,0.6,0.4,1,0,,,,,,,,,,,,,,,,,,,,,,,,,,,,,,,,,,,,
,,5d7df958cb6cf00001399929,66fce6cb3397cd8e465b92d6,2024-10-02_08h23.20.265,mdp,2024.2.1,Win32,60.24096386,66fa4ebf79326e780c390304,,,,,,,,,,,,,,,,,,,,,1126.7655,1126.7655,1126.7658,1127.6322,0,0,left,0.3324,,1127.6325,1127.6328,0,1,,1127.6329,1127.6331,1,0,,1,1127.6331,1127.6331,1127.6332,1129.1321,0,11,11,11,1,0.4,0.6,0.6,0.4,1,0,,,,,,,,,,,,,,,,,,,,,,,,,,,,,,,,,,,,
,,5d7df958cb6cf00001399929,66fce6cb3397cd8e465b92d6,2024-10-02_08h23.20.265,mdp,2024.2.1,Win32,60.24096386,66fa4ebf79326e780c390304,,,,,,,,,,,,,,,,,,,,,1129.1322,1129.1322,1129.1326,1129.9154,1,0,right,0.2616,,1129.9158,1129.916,0,0,,1129.9162,1129.9163,1,0,,1,1129.9163,1129.9164,1129.9165,1131.4154,0,12,12,12,1,0.4,0.6,0.6,0.4,1,0,,,,,,,,,,,,,,,,,,,,,,,,,,,,,,,,,,,,
,,5d7df958cb6cf00001399929,66fce6cb3397cd8e465b92d6,2024-10-02_08h23.20.265,mdp,2024.2.1,Win32,60.24096386,66fa4ebf79326e780c390304,,,,,,,,,,,,,,,,,,,,,1131.4156,1131.4156,1131.4159,1132.2822,0,0,left,0.3338,,1132.2826,1132.2828,0,0,,1132.283,1132.2831,1,1,,1,1132.2832,1132.2832,1132.2833,1133.7822,0,13,13,13,1,0.4,0.6,0.6,0.4,1,0,,,,,,,,,,,,,,,,,,,,,,,,,,,,,,,,,,,,
,,5d7df958cb6cf00001399929,66fce6cb3397cd8e465b92d6,2024-10-02_08h23.20.265,mdp,2024.2.1,Win32,60.24096386,66fa4ebf79326e780c390304,,,,,,,,,,,,,,,,,,,,,1133.7824,1133.7824,1133.7827,1134.6822,1,1,right,0.3683,,1134.6826,1134.6828,0,1,,1134.683,1134.6831,1,0,,0,1134.6831,1134.6831,1134.6834,1136.1823,0,14,14,14,1,0.6,0.4,0.8,0.2,1,0,,,,,,,,,,,,,,,,,,,,,,,,,,,,,,,,,,,,
,,5d7df958cb6cf00001399929,66fce6cb3397cd8e465b92d6,2024-10-02_08h23.20.265,mdp,2024.2.1,Win32,60.24096386,66fa4ebf79326e780c390304,,,,,,,,,,,,,,,,,,,,,1136.1824,1136.1824,1136.1827,1137.0657,0,1,left,0.3502,,1137.066,1137.0662,0,1,,1137.0665,1137.0665,1,1,,0,1137.0665,1137.0665,1137.0667,1138.5657,0,15,15,15,1,0.2,0.8,0.6,0.4,1,0,,,,,,,,,,,,,,,,,,,,,,,,,,,,,,,,,,,,
,,5d7df958cb6cf00001399929,66fce6cb3397cd8e465b92d6,2024-10-02_08h23.20.265,mdp,2024.2.1,Win32,60.24096386,66fa4ebf79326e780c390304,,,,,,,,,,,,,,,,,,,,,1138.5658,1138.5658,1138.5661,1139.3824,1,0,right,0.2919,,1139.3827,1139.3829,0,1,,1139.3831,1139.3833,1,0,,1,1139.3833,1139.3833,1139.3835,1140.8824,0,16,16,16,1,0.2,0.8,0.6,0.4,1,0,,,,,,,,,,,,,,,,,,,,,,,,,,,,,,,,,,,,
,,5d7df958cb6cf00001399929,66fce6cb3397cd8e465b92d6,2024-10-02_08h23.20.265,mdp,2024.2.1,Win32,60.24096386,66fa4ebf79326e780c390304,,,,,,,,,,,,,,,,,,,,,1140.8825,1140.8825,1140.8829,1141.7658,0,1,left,0.3594,,1141.7661,1141.7664,0,0,,1141.7665,1141.7667,1,0,,0,1141.7667,1141.7667,1141.7669,1143.2656,0,17,17,17,1,0.6,0.4,0.2,0.8,1,0,,,,,,,,,,,,,,,,,,,,,,,,,,,,,,,,,,,,
,,5d7df958cb6cf00001399929,66fce6cb3397cd8e465b92d6,2024-10-02_08h23.20.265,mdp,2024.2.1,Win32,60.24096386,66fa4ebf79326e780c390304,,,,,,,,,,,,,,,,,,,,,1143.2658,1143.2658,1143.2661,1144.3491,1,1,right,0.5522,,1144.3495,1144.3497,0,1,,1144.3499,1144.3501,1,1,,0,1144.3501,1144.3501,1144.3502,1145.8491,0,18,18,18,1,0.6,0.4,0.2,0.8,1,0,,,,,,,,,,,,,,,,,,,,,,,,,,,,,,,,,,,,
,,5d7df958cb6cf00001399929,66fce6cb3397cd8e465b92d6,2024-10-02_08h23.20.265,mdp,2024.2.1,Win32,60.24096386,66fa4ebf79326e780c390304,,,,,,,,,,,,,,,,,,,,,1145.8493,1145.8493,1145.8495,1146.8324,1,0,right,0.4569,,1146.8328,1146.833,0,0,,1146.8332,1146.8333,1,1,,1,1146.8333,1146.8333,1146.8335,1148.3326,0,19,19,19,1,0.6,0.4,0.2,0.8,1,0,,,,,,,,,,,,,,,,,,,,,,,,,,,,,,,,,,,,
,,5d7df958cb6cf00001399929,66fce6cb3397cd8e465b92d6,2024-10-02_08h23.20.265,mdp,2024.2.1,Win32,60.24096386,66fa4ebf79326e780c390304,,,,,,,,,,,,,,,,,,,,,1148.3327,1148.3327,1148.333,1149.4992,0,1,left,0.6369,,1149.4996,1149.4999,0,1,,1149.5001,1149.5002,1,0,,0,1149.5002,1149.5002,1149.5005,1150.9993,0,20,20,20,1,0.4,0.6,0.8,0.2,1,0,,,,,,,,,,,,,,,,,,,,,,,,,,,,,,,,,,,,
,,5d7df958cb6cf00001399929,66fce6cb3397cd8e465b92d6,2024-10-02_08h23.20.265,mdp,2024.2.1,Win32,60.24096386,66fa4ebf79326e780c390304,,,,,,,,,,,,,,,,,,,,,1150.9994,1150.9994,1150.9998,1152.1825,1,0,right,0.6509,,1152.183,1152.1832,0,1,,1152.1833,1152.1835,1,0,,1,1152.1835,1152.1835,1152.1837,1153.6827,0,21,21,21,1,0.4,0.6,0.8,0.2,1,0,,,,,,,,,,,,,,,,,,,,,,,,,,,,,,,,,,,,
,,5d7df958cb6cf00001399929,66fce6cb3397cd8e465b92d6,2024-10-02_08h23.20.265,mdp,2024.2.1,Win32,60.24096386,66fa4ebf79326e780c390304,,,,,,,,,,,,,,,,,,,,,1153.6827,1153.6828,1153.6831,1154.8492,1,0,right,0.639,,1154.8496,1154.8499,0,0,,1154.8502,1154.8503,1,0,,1,1154.8503,1154.8503,1154.8505,1156.3493,0,22,22,22,1,0.8,0.2,0.6,0.4,1,0,,,,,,,,,,,,,,,,,,,,,,,,,,,,,,,,,,,,
,,5d7df958cb6cf00001399929,66fce6cb3397cd8e465b92d6,2024-10-02_08h23.20.265,mdp,2024.2.1,Win32,60.24096386,66fa4ebf79326e780c390304,,,,,,,,,,,,,,,,,,,,,1156.3495,1156.3495,1156.3498,1157.3993,1,0,right,0.5168,,1157.3997,1157.3998,0,0,,1157.4001,1157.4002,1,0,,1,1157.4002,1157.4002,1157.4004,1158.8993,0,23,23,23,1,0.6,0.4,0.8,0.2,1,0,,,,,,,,,,,,,,,,,,,,,,,,,,,,,,,,,,,,
,,5d7df958cb6cf00001399929,66fce6cb3397cd8e465b92d6,2024-10-02_08h23.20.265,mdp,2024.2.1,Win32,60.24096386,66fa4ebf79326e780c390304,,,,,,,,,,,,,,,,,,,,,1158.8994,1158.8994,1158.8997,1159.816,1,0,right,0.382,,1159.8164,1159.8165,0,0,,1159.8168,1159.8169,1,1,,1,1159.8169,1159.8169,1159.8171,1161.316,0,24,24,24,1,0.6,0.4,0.8,0.2,1,0,,,,,,,,,,,,,,,,,,,,,,,,,,,,,,,,,,,,
,,5d7df958cb6cf00001399929,66fce6cb3397cd8e465b92d6,2024-10-02_08h23.20.265,mdp,2024.2.1,Win32,60.24096386,66fa4ebf79326e780c390304,,,,,,,,,,,,,,,,,,,,,1161.3162,1161.3162,1161.3165,1162.3327,1,0,right,0.4858,,1162.333,1162.3333,0,0,,1162.3335,1162.3336,1,1,,1,1162.3336,1162.3336,1162.3338,1163.8328,0,25,25,25,1,0.6,0.4,0.8,0.2,1,0,,,,,,,,,,,,,,,,,,,,,,,,,,,,,,,,,,,,
,,5d7df958cb6cf00001399929,66fce6cb3397cd8e465b92d6,2024-10-02_08h23.20.265,mdp,2024.2.1,Win32,60.24096386,66fa4ebf79326e780c390304,,,,,,,,,,,,,,,,,,,,,1163.833,1163.833,1163.8333,1164.8327,1,1,right,0.4727,,1164.8332,1164.8333,0,1,,1164.8336,1164.8336,1,1,,0,1164.8337,1164.8337,1164.8338,1166.3328,0,26,26,26,1,0.8,0.2,0.2,0.8,1,0,,,,,,,,,,,,,,,,,,,,,,,,,,,,,,,,,,,,
,,5d7df958cb6cf00001399929,66fce6cb3397cd8e465b92d6,2024-10-02_08h23.20.265,mdp,2024.2.1,Win32,60.24096386,66fa4ebf79326e780c390304,,,,,,,,,,,,,,,,,,,,,1166.3329,1166.3329,1166.3333,1167.3994,0,0,left,0.5408,,1167.3998,1167.4,0,0,,1167.4002,1167.4004,1,0,,1,1167.4004,1167.4004,1167.4006,1168.8995,0,27,27,27,1,0.8,0.2,0.2,0.8,1,0,,,,,,,,,,,,,,,,,,,,,,,,,,,,,,,,,,,,
,,5d7df958cb6cf00001399929,66fce6cb3397cd8e465b92d6,2024-10-02_08h23.20.265,mdp,2024.2.1,Win32,60.24096386,66fa4ebf79326e780c390304,,,,,,,,,,,,,,,,,,,,,1168.8996,1168.8996,1168.9,1169.9328,0,1,left,0.5088,,1169.9332,1169.9334,0,0,,1169.9336,1169.9337,1,0,,0,1169.9337,1169.9337,1169.9339,1171.4329,0,28,28,28,1,0.8,0.2,0.2,0.8,1,0,,,,,,,,,,,,,,,,,,,,,,,,,,,,,,,,,,,,
,,5d7df958cb6cf00001399929,66fce6cb3397cd8e465b92d6,2024-10-02_08h23.20.265,mdp,2024.2.1,Win32,60.24096386,66fa4ebf79326e780c390304,,,,,,,,,,,,,,,,,,,,,1171.433,1171.433,1171.4333,1172.5663,0,1,left,0.6088,,1172.5667,1172.5668,0,0,,1172.5671,1172.5672,1,1,,0,1172.5672,1172.5672,1172.5673,1174.0662,0,29,29,29,1,0.6,0.4,0.4,0.6,1,0,,,,,,,,,,,,,,,,,,,,,,,,,,,,,,,,,,,,
,,5d7df958cb6cf00001399929,66fce6cb3397cd8e465b92d6,2024-10-02_08h23.20.265,mdp,2024.2.1,Win32,60.24096386,66fa4ebf79326e780c390304,,,,,,,,,,,,,,,,,,,,,1174.0663,1174.0663,1174.0667,1174.9829,1,0,right,0.3831,,1174.9832,1174.9834,0,0,,1174.9837,1174.9838,1,0,,1,1174.9838,1174.9838,1174.984,1176.483,0,30,30,30,1,0.2,0.8,0.6,0.4,1,0,,,,,,,,,,,,,,,,,,,,,,,,,,,,,,,,,,,,
,,5d7df958cb6cf00001399929,66fce6cb3397cd8e465b92d6,2024-10-02_08h23.20.265,mdp,2024.2.1,Win32,60.24096386,66fa4ebf79326e780c390304,,,,,,,,,,,,,,,,,,,,,1176.4831,1176.4831,1176.4834,1177.3664,1,0,right,0.3507,,1177.3667,1177.367,0,0,,1177.3671,1177.3672,1,1,,1,1177.3672,1177.3672,1177.3674,1178.8663,0,31,31,31,1,0.2,0.8,0.6,0.4,1,0,,,,,,,,,,,,,,,,,,,,,,,,,,,,,,,,,,,,
,,5d7df958cb6cf00001399929,66fce6cb3397cd8e465b92d6,2024-10-02_08h23.20.265,mdp,2024.2.1,Win32,60.24096386,66fa4ebf79326e780c390304,,,,,,,,,,,,,,,,,,,,,1178.8664,1178.8664,1178.8668,1179.733,1,0,right,0.3354,,1179.7334,1179.7336,0,1,,1179.734,1179.7341,1,0,,1,1179.7341,1179.7341,1179.7343,1181.2331,0,32,32,32,1,0.2,0.8,0.6,0.4,1,0,,,,,,,,,,,,,,,,,,,,,,,,,,,,,,,,,,,,
,,5d7df958cb6cf00001399929,66fce6cb3397cd8e465b92d6,2024-10-02_08h23.20.265,mdp,2024.2.1,Win32,60.24096386,66fa4ebf79326e780c390304,,,,,,,,,,,,,,,,,,,,,1181.2332,1181.2332,1181.2336,1182.2165,1,0,right,0.4505,,1182.2169,1182.2171,0,1,,1182.2173,1182.2174,1,1,,1,1182.2175,1182.2175,1182.2176,1183.7164,0,33,33,33,1,0.8,0.2,0.2,0.8,1,0,,,,,,,,,,,,,,,,,,,,,,,,,,,,,,,,,,,,
,,5d7df958cb6cf00001399929,66fce6cb3397cd8e465b92d6,2024-10-02_08h23.20.265,mdp,2024.2.1,Win32,60.24096386,66fa4ebf79326e780c390304,,,,,,,,,,,,,,,,,,,,,1183.7166,1183.7166,1183.7168,1184.5999,0,0,left,0.3498,,1184.6003,1184.6005,0,1,,1184.6007,1184.6008,1,0,,1,1184.6008,1184.6008,1184.601,1186.0998,0,34,34,34,1,0.8,0.2,0.2,0.8,1,0,,,,,,,,,,,,,,,,,,,,,,,,,,,,,,,,,,,,
,,5d7df958cb6cf00001399929,66fce6cb3397cd8e465b92d6,2024-10-02_08h23.20.265,mdp,2024.2.1,Win32,60.24096386,66fa4ebf79326e780c390304,,,,,,,,,,,,,,,,,,,,,1186.1,1186.1,1186.1003,1187.1998,0,1,left,0.5736,,1187.2001,1187.2003,0,1,,1187.2005,1187.2007,1,0,,0,1187.2007,1187.2007,1187.2009,1188.7,0,35,35,35,1,0.8,0.2,0.2,0.8,1,0,,,,,,,,,,,,,,,,,,,,,,,,,,,,,,,,,,,,
,,5d7df958cb6cf00001399929,66fce6cb3397cd8e465b92d6,2024-10-02_08h23.20.265,mdp,2024.2.1,Win32,60.24096386,66fa4ebf79326e780c390304,,,,,,,,,,,,,,,,,,,,,1188.7,1188.7,1188.7004,1189.5999,0,0,left,0.3666,,1189.6003,1189.6005,0,0,,1189.6008,1189.6009,1,0,,1,1189.6009,1189.6009,1189.601,1191.0998,0,36,36,36,1,0.8,0.2,0.2,0.8,1,0,,,,,,,,,,,,,,,,,,,,,,,,,,,,,,,,,,,,
,,5d7df958cb6cf00001399929,66fce6cb3397cd8e465b92d6,2024-10-02_08h23.20.265,mdp,2024.2.1,Win32,60.24096386,66fa4ebf79326e780c390304,,,,,,,,,,,,,,,,,,,,,1191.0999,1191.0999,1191.1003,1191.9834,1,1,right,0.3504,,1191.9837,1191.9839,0,0,,1191.9841,1191.9842,1,1,,0,1191.9842,1191.9843,1191.9844,1193.4833,0,37,37,37,1,0.8,0.2,0.2,0.8,1,0,,,,,,,,,,,,,,,,,,,,,,,,,,,,,,,,,,,,
,,5d7df958cb6cf00001399929,66fce6cb3397cd8e465b92d6,2024-10-02_08h23.20.265,mdp,2024.2.1,Win32,60.24096386,66fa4ebf79326e780c390304,,,,,,,,,,,,,,,,,,,,,1193.4835,1193.4835,1193.4838,1194.35,1,1,right,0.3345,,1194.3504,1194.3506,0,1,,1194.3508,1194.3509,1,1,,0,1194.3509,1194.3509,1194.3511,1195.85,0,38,38,38,1,0.8,0.2,0.2,0.8,1,0,,,,,,,,,,,,,,,,,,,,,,,,,,,,,,,,,,,,
,,5d7df958cb6cf00001399929,66fce6cb3397cd8e465b92d6,2024-10-02_08h23.20.265,mdp,2024.2.1,Win32,60.24096386,66fa4ebf79326e780c390304,,,,,,,,,,,,,,,,,,,,,1195.8502,1195.8502,1195.8505,1196.7001,0,1,left,0.3198,,1196.7005,1196.7006,0,0,,1196.7008,1196.701,1,0,,0,1196.701,1196.701,1196.7012,1198.2,0,39,39,39,1,0.8,0.2,0.2,0.8,1,0,,,,,,,,,,,,,,,,,,,,,,,,,,,,,,,,,,,,
,,5d7df958cb6cf00001399929,66fce6cb3397cd8e465b92d6,2024-10-02_08h23.20.265,mdp,2024.2.1,Win32,60.24096386,66fa4ebf79326e780c390304,,,,,,,,,,,,,,,,,,,,,1198.2001,1198.2001,1198.2005,1199.1834,0,0,left,0.4499,,1199.1838,1199.184,0,0,,1199.1841,1199.1843,1,0,,1,1199.1843,1199.1843,1199.1845,1200.6833,0,40,40,40,1,0.8,0.2,0.2,0.8,1,0,,,,,,,,,,,,,,,,,,,,,,,,,,,,,,,,,,,,
,,5d7df958cb6cf00001399929,66fce6cb3397cd8e465b92d6,2024-10-02_08h23.20.265,mdp,2024.2.1,Win32,60.24096386,66fa4ebf79326e780c390304,,,,,,,,,,,,,,,,,,,,,1200.6834,1200.6834,1200.6838,1201.6667,0,0,left,0.4791,,1201.6671,1201.6673,0,0,,1201.6675,1201.6677,1,0,,1,1201.6677,1201.6677,1201.6678,1203.1668,0,41,41,41,1,0.8,0.2,0.2,0.8,1,0,,,,,,,,,,,,,,,,,,,,,,,,,,,,,,,,,,,,
