init_exp.started,init_exp.stopped,participant,session,date,expName,psychopyVersion,OS,frameRate,study_id,disp_instruction.started,disp_instruction.stopped,instruction.thisRepN,instruction.thisTrialN,instruction.thisN,instruction.thisIndex,instruction.ran,instimg_path,consent.started,consent.stopped,key_resp_3.keys,key_resp_3.rt,key_resp_3.duration,n_steps,sequence_path,init_block.started,init_block.stopped,key_resp.keys,key_resp.rt,key_resp.duration,init_trials.started,init_trials.stopped,step0.started,step0.stopped,act0,s1,res0.keys,res0.rt,res0.duration,step1.started,step1.stopped,act1,s2,res1.keys,step2.started,step2.stopped,act2,s3,res2.keys,rew,reward_comp.started,reward_comp.stopped,reward_disp.started,reward_disp.stopped,trials.thisRepN,trials.thisTrialN,trials.thisN,trials.thisIndex,trials.ran,s00a0s10,s00a0s11,s00a1s10,s00a1s11,rew10,rew11,break_block.started,break_block.stopped,block.thisRepN,block.thisTrialN,block.thisN,block.thisIndex,block.ran,s00path,s10path,s11path,s20path,s21path,res1.rt,res1.duration,s10a0s20,s10a0s21,s10a1s20,s10a1s21,s11a0s20,s11a0s21,s11a1s20,s11a1s21,rew20,rew21,res2.rt,res2.duration,s20a0s30,s20a0s31,s20a1s30,s20a1s31,s21a0s30,s21a0s31,s21a1s30,s21a1s31,rew30,rew31
0,0.033334,5dd6023dcaee3e5b7ba7a5bc,66fc98d33270de5129c403ab,2024-10-02_00h55.00.068,mdp,2024.2.1,Win32,14.99970001,66fa4ebf79326e780c390304,,,,,,,,,,,,,,,,,,,,,,,,,,,,,,,,,,,,,,,,,,,,,,,,,,,,,,,,,,,,,,,,,,,,,,,,,,,,,,,,,,,,,,,,,,,
,,5dd6023dcaee3e5b7ba7a5bc,66fc98d33270de5129c403ab,2024-10-02_00h55.00.068,mdp,2024.2.1,Win32,14.99970001,66fa4ebf79326e780c390304,0.050001,40.567478,0,0,0,0,1,rlnn_exp/rlnn_exp.001.png,,,,,,,,,,,,,,,,,,,,,,,,,,,,,,,,,,,,,,,,,,,,,,,,,,,,,,,,,,,,,,,,,,,,,,,,,,,,,,,,,,,
,,5dd6023dcaee3e5b7ba7a5bc,66fc98d33270de5129c403ab,2024-10-02_00h55.00.068,mdp,2024.2.1,Win32,14.99970001,66fa4ebf79326e780c390304,40.584145,61.384561,0,1,1,1,1,rlnn_exp/rlnn_exp.002.png,,,,,,,,,,,,,,,,,,,,,,,,,,,,,,,,,,,,,,,,,,,,,,,,,,,,,,,,,,,,,,,,,,,,,,,,,,,,,,,,,,,
,,5dd6023dcaee3e5b7ba7a5bc,66fc98d33270de5129c403ab,2024-10-02_00h55.00.068,mdp,2024.2.1,Win32,14.99970001,66fa4ebf79326e780c390304,61.401228,87.601752,0,2,2,2,1,rlnn_exp/rlnn_exp.003.png,,,,,,,,,,,,,,,,,,,,,,,,,,,,,,,,,,,,,,,,,,,,,,,,,,,,,,,,,,,,,,,,,,,,,,,,,,,,,,,,,,,
,,5dd6023dcaee3e5b7ba7a5bc,66fc98d33270de5129c403ab,2024-10-02_00h55.00.068,mdp,2024.2.1,Win32,14.99970001,66fa4ebf79326e780c390304,87.601752,115.352307,0,3,3,3,1,rlnn_exp/rlnn_exp.004.png,,,,,,,,,,,,,,,,,,,,,,,,,,,,,,,,,,,,,,,,,,,,,,,,,,,,,,,,,,,,,,,,,,,,,,,,,,,,,,,,,,,
,,5dd6023dcaee3e5b7ba7a5bc,66fc98d33270de5129c403ab,2024-10-02_00h55.00.068,mdp,2024.2.1,Win32,14.99970001,66fa4ebf79326e780c390304,,,,,,,,,115.352307,202.970726,y,77.50155,,,,,,,,,,,,,,,,,,,,,,,,,,,,,,,,,,,,,,,,,,,,,,,,,,,,,,,,,,,,,,,,,,,,,,,,,,,,,,,
,,5dd6023dcaee3e5b7ba7a5bc,66fc98d33270de5129c403ab,2024-10-02_00h55.00.068,mdp,2024.2.1,Win32,14.99970001,66fa4ebf79326e780c390304,,,,,,,,,,,,,,1,seqs/st1seq17.csv,203.00406,206.037454,space,2.466716,,206.087455,206.087455,206.087455,208.054161,0,1,left,1.383361,,208.054161,208.070828,,0,,208.070828,208.087495,,0,,0,208.087495,208.087495,208.087495,209.554191,0,0,0,0,1,0.2,0.8,0.8,0.2,1,0,,,,,,,,,,,,,,,,,,,,,,,,,,,,,,,,,,,,
,,5dd6023dcaee3e5b7ba7a5bc,66fc98d33270de5129c403ab,2024-10-02_00h55.00.068,mdp,2024.2.1,Win32,14.99970001,66fa4ebf79326e780c390304,,,,,,,,,,,,,,,,,,,,,209.554191,209.554191,209.554191,210.937552,0,0,left,0.83335,,210.937552,210.954219,,1,,210.954219,210.954219,,0,,1,210.970886,210.970886,210.970886,212.470916,0,1,1,1,1,0.8,0.2,0.2,0.8,1,0,,,,,,,,,,,,,,,,,,,,,,,,,,,,,,,,,,,,
,,5dd6023dcaee3e5b7ba7a5bc,66fc98d33270de5129c403ab,2024-10-02_00h55.00.068,mdp,2024.2.1,Win32,14.99970001,66fa4ebf79326e780c390304,,,,,,,,,,,,,,,,,,,,,212.470916,212.487583,212.487583,213.720941,0,0,left,0.66668,,213.720941,213.737608,,0,,213.737608,213.737608,,1,,1,213.737608,213.737608,213.754275,215.204304,0,2,2,2,1,0.8,0.2,0.2,0.8,1,0,,,,,,,,,,,,,,,,,,,,,,,,,,,,,,,,,,,,
,,5dd6023dcaee3e5b7ba7a5bc,66fc98d33270de5129c403ab,2024-10-02_00h55.00.068,mdp,2024.2.1,Win32,14.99970001,66fa4ebf79326e780c390304,,,,,,,,,,,,,,,,,,,,,215.220971,215.220971,215.237638,216.270992,0,0,left,0.50001,,216.287659,216.287659,,0,,216.304326,216.304326,,0,,1,216.304326,216.320993,216.320993,217.804356,0,3,3,3,1,0.8,0.2,0.2,0.8,1,0,,,,,,,,,,,,,,,,,,,,,,,,,,,,,,,,,,,,
,,5dd6023dcaee3e5b7ba7a5bc,66fc98d33270de5129c403ab,2024-10-02_00h55.00.068,mdp,2024.2.1,Win32,14.99970001,66fa4ebf79326e780c390304,,,,,,,,,,,,,,,,,,,,,217.804356,217.804356,217.804356,218.871044,0,0,left,0.533344,,218.871044,218.937712,,0,,218.937712,218.954379,,0,,1,218.954379,218.954379,218.954379,220.421075,0,4,4,4,1,0.8,0.2,0.2,0.8,1,0,,,,,,,,,,,,,,,,,,,,,,,,,,,,,,,,,,,,
,,5dd6023dcaee3e5b7ba7a5bc,66fc98d33270de5129c403ab,2024-10-02_00h55.00.068,mdp,2024.2.1,Win32,14.99970001,66fa4ebf79326e780c390304,,,,,,,,,,,,,,,,,,,,,220.437742,220.437742,220.454409,221.354427,0,0,left,0.366674,,221.371094,221.371094,,0,,221.387761,221.404428,,0,,1,221.404428,221.404428,221.404428,222.871124,0,5,5,5,1,0.8,0.2,0.2,0.8,1,0,,,,,,,,,,,,,,,,,,,,,,,,,,,,,,,,,,,,
,,5dd6023dcaee3e5b7ba7a5bc,66fc98d33270de5129c403ab,2024-10-02_00h55.00.068,mdp,2024.2.1,Win32,14.99970001,66fa4ebf79326e780c390304,,,,,,,,,,,,,,,,,,,,,222.871124,222.871124,222.887791,224.237818,0,0,left,0.816683,0,224.254485,224.254485,,0,,224.271152,224.271152,,0,,1,224.271152,224.271152,224.271152,225.771182,0,6,6,6,1,0.8,0.2,0.2,0.8,1,0,,,,,,,,,,,,,,,,,,,,,,,,,,,,,,,,,,,,
,,5dd6023dcaee3e5b7ba7a5bc,66fc98d33270de5129c403ab,2024-10-02_00h55.00.068,mdp,2024.2.1,Win32,14.99970001,66fa4ebf79326e780c390304,,,,,,,,,,,,,,,,,,,,,225.771182,225.771182,225.787849,226.904538,0,0,left,0.583345,,226.904538,226.937872,,1,,226.937872,226.937872,,0,,1,226.937872,226.937872,226.937872,228.421235,0,7,7,7,1,0.8,0.2,0.2,0.8,1,0,,,,,,,,,,,,,,,,,,,,,,,,,,,,,,,,,,,,
,,5dd6023dcaee3e5b7ba7a5bc,66fc98d33270de5129c403ab,2024-10-02_00h55.00.068,mdp,2024.2.1,Win32,14.99970001,66fa4ebf79326e780c390304,,,,,,,,,,,,,,,,,,,,,228.421235,228.421235,228.421235,229.50459,0,1,left,0.566678,,229.521257,229.521257,,0,,229.521257,229.521257,,0,,0,229.521257,229.521257,229.537924,230.987953,0,8,8,8,1,0.4,0.6,0.6,0.4,1,0,,,,,,,,,,,,,,,,,,,,,,,,,,,,,,,,,,,,
,,5dd6023dcaee3e5b7ba7a5bc,66fc98d33270de5129c403ab,2024-10-02_00h55.00.068,mdp,2024.2.1,Win32,14.99970001,66fa4ebf79326e780c390304,,,,,,,,,,,,,,,,,,,,,230.987953,230.987953,230.987953,231.887971,0,0,left,0.33334,,231.887971,231.904638,,1,,231.904638,231.904638,,0,,1,231.904638,231.904638,231.921305,233.371334,0,9,9,9,1,0.4,0.6,0.6,0.4,1,0,,,,,,,,,,,,,,,,,,,,,,,,,,,,,,,,,,,,
,,5dd6023dcaee3e5b7ba7a5bc,66fc98d33270de5129c403ab,2024-10-02_00h55.00.068,mdp,2024.2.1,Win32,14.99970001,66fa4ebf79326e780c390304,,,,,,,,,,,,,,,,,,,,,233.388001,233.388001,233.388001,234.271352,0,1,left,0.350007,,234.271352,234.288019,,0,,234.288019,234.304686,,0,,0,234.304686,234.304686,234.304686,235.83805,0,10,10,10,1,0.4,0.6,0.6,0.4,1,0,,,,,,,,,,,,,,,,,,,,,,,,,,,,,,,,,,,,
,,5dd6023dcaee3e5b7ba7a5bc,66fc98d33270de5129c403ab,2024-10-02_00h55.00.068,mdp,2024.2.1,Win32,14.99970001,66fa4ebf79326e780c390304,,,,,,,,,,,,,,,,,,,,,235.83805,235.83805,235.83805,236.788069,0,0,left,0.416675,,236.804736,236.821403,,1,,236.821403,236.821403,,1,,1,236.821403,236.821403,236.821403,238.3381,0,11,11,11,1,0.6,0.4,0.4,0.6,1,0,,,,,,,,,,,,,,,,,,,,,,,,,,,,,,,,,,,,
,,5dd6023dcaee3e5b7ba7a5bc,66fc98d33270de5129c403ab,2024-10-02_00h55.00.068,mdp,2024.2.1,Win32,14.99970001,66fa4ebf79326e780c390304,,,,,,,,,,,,,,,,,,,,,238.3381,238.3381,238.3381,239.33812,0,1,left,0.450009,,239.33812,239.354787,,0,,239.354787,239.354787,,1,,0,239.354787,239.354787,239.354787,240.804816,0,12,12,12,1,0.6,0.4,0.4,0.6,1,0,,,,,,,,,,,,,,,,,,,,,,,,,,,,,,,,,,,,
,,5dd6023dcaee3e5b7ba7a5bc,66fc98d33270de5129c403ab,2024-10-02_00h55.00.068,mdp,2024.2.1,Win32,14.99970001,66fa4ebf79326e780c390304,,,,,,,,,,,,,,,,,,,,,240.804816,240.804816,240.821483,241.754835,0,1,left,0.416675,,241.754835,241.771502,,1,,241.771502,241.771502,,1,,0,241.771502,241.771502,241.788169,243.238198,0,13,13,13,1,0.6,0.4,0.4,0.6,1,0,,,,,,,,,,,,,,,,,,,,,,,,,,,,,,,,,,,,
,,5dd6023dcaee3e5b7ba7a5bc,66fc98d33270de5129c403ab,2024-10-02_00h55.00.068,mdp,2024.2.1,Win32,14.99970001,66fa4ebf79326e780c390304,,,,,,,,,,,,,,,,,,,,,243.254865,243.254865,243.254865,244.104882,0,1,left,0.316673,,244.121549,244.121549,,1,,244.138216,244.138216,,1,,0,244.138216,244.138216,244.138216,245.654913,0,14,14,14,1,0.6,0.4,0.4,0.6,1,0,,,,,,,,,,,,,,,,,,,,,,,,,,,,,,,,,,,,
,,5dd6023dcaee3e5b7ba7a5bc,66fc98d33270de5129c403ab,2024-10-02_00h55.00.068,mdp,2024.2.1,Win32,14.99970001,66fa4ebf79326e780c390304,,,,,,,,,,,,,,,,,,,,,245.654913,245.654913,245.654913,246.621599,0,1,left,0.400008,,246.638266,246.638266,,1,,246.638266,246.654933,,0,,0,246.654933,246.654933,246.654933,248.121629,0,15,15,15,1,0.6,0.4,0.4,0.6,1,0,,,,,,,,,,,,,,,,,,,,,,,,,,,,,,,,,,,,
,,5dd6023dcaee3e5b7ba7a5bc,66fc98d33270de5129c403ab,2024-10-02_00h55.00.068,mdp,2024.2.1,Win32,14.99970001,66fa4ebf79326e780c390304,,,,,,,,,,,,,,,,,,,,,248.121629,248.121629,248.121629,249.388321,1,0,right,0.716681,,249.404988,249.404988,,1,,249.404988,249.421655,,1,,1,249.421655,249.421655,249.421655,250.921685,0,16,16,16,1,0.6,0.4,0.4,0.6,1,0,,,,,,,,,,,,,,,,,,,,,,,,,,,,,,,,,,,,
,,5dd6023dcaee3e5b7ba7a5bc,66fc98d33270de5129c403ab,2024-10-02_00h55.00.068,mdp,2024.2.1,Win32,14.99970001,66fa4ebf79326e780c390304,,,,,,,,,,,,,,,,,,,,,250.921685,250.921685,250.921685,251.888371,1,0,right,0.400008,,251.905038,251.921705,,0,,251.921705,251.921705,,1,,1,251.921705,251.921705,251.921705,253.388401,0,17,17,17,1,0.2,0.8,0.6,0.4,1,0,,,,,,,,,,,,,,,,,,,,,,,,,,,,,,,,,,,,
,,5dd6023dcaee3e5b7ba7a5bc,66fc98d33270de5129c403ab,2024-10-02_00h55.00.068,mdp,2024.2.1,Win32,14.99970001,66fa4ebf79326e780c390304,,,,,,,,,,,,,,,,,,,,,253.388401,253.388401,253.405068,254.271752,1,0,right,0.33334,,254.271752,254.288419,,1,,254.288419,254.288419,,1,,1,254.288419,254.288419,254.305086,255.788449,0,18,18,18,1,0.2,0.8,0.6,0.4,1,0,,,,,,,,,,,,,,,,,,,,,,,,,,,,,,,,,,,,
,,5dd6023dcaee3e5b7ba7a5bc,66fc98d33270de5129c403ab,2024-10-02_00h55.00.068,mdp,2024.2.1,Win32,14.99970001,66fa4ebf79326e780c390304,,,,,,,,,,,,,,,,,,,,,255.805116,255.805116,255.805116,256.655133,1,0,right,0.316673,,256.655133,256.655133,,0,,256.6718,256.6718,,1,,1,256.6718,256.6718,256.688467,258.155163,0,19,19,19,1,0.2,0.8,0.6,0.4,1,0,,,,,,,,,,,,,,,,,,,,,,,,,,,,,,,,,,,,
,,5dd6023dcaee3e5b7ba7a5bc,66fc98d33270de5129c403ab,2024-10-02_00h55.00.068,mdp,2024.2.1,Win32,14.99970001,66fa4ebf79326e780c390304,,,,,,,,,,,,,,,,,,,,,258.155163,258.17183,258.17183,259.071848,1,1,right,0.33334,,259.071848,259.071848,,0,,259.088515,259.088515,,0,,0,259.088515,259.088515,259.088515,260.555211,0,20,20,20,1,0.2,0.8,0.6,0.4,1,0,,,,,,,,,,,,,,,,,,,,,,,,,,,,,,,,,,,,
,,5dd6023dcaee3e5b7ba7a5bc,66fc98d33270de5129c403ab,2024-10-02_00h55.00.068,mdp,2024.2.1,Win32,14.99970001,66fa4ebf79326e780c390304,,,,,,,,,,,,,,,,,,,,,260.571878,260.571878,260.571878,261.438562,1,0,right,0.316673,,261.455229,261.455229,,1,,261.471896,261.471896,,0,,1,261.471896,261.471896,261.471896,262.971926,0,21,21,21,1,0.2,0.8,0.6,0.4,1,0,,,,,,,,,,,,,,,,,,,,,,,,,,,,,,,,,,,,
,,5dd6023dcaee3e5b7ba7a5bc,66fc98d33270de5129c403ab,2024-10-02_00h55.00.068,mdp,2024.2.1,Win32,14.99970001,66fa4ebf79326e780c390304,,,,,,,,,,,,,,,,,,,,,262.971926,262.971926,262.971926,263.871944,1,1,right,0.350007,,263.888611,263.888611,,1,,263.888611,263.888611,,1,,0,263.888611,263.888611,263.888611,265.388641,0,22,22,22,1,0.2,0.8,0.6,0.4,1,0,,,,,,,,,,,,,,,,,,,,,,,,,,,,,,,,,,,,
,,5dd6023dcaee3e5b7ba7a5bc,66fc98d33270de5129c403ab,2024-10-02_00h55.00.068,mdp,2024.2.1,Win32,14.99970001,66fa4ebf79326e780c390304,,,,,,,,,,,,,,,,,,,,,265.388641,265.388641,265.388641,267.305346,1,0,right,1.350027,,267.305346,267.305346,,0,,267.322013,267.322013,,0,,1,267.322013,267.322013,267.33868,268.83871,0,23,23,23,1,0.2,0.8,0.6,0.4,1,0,,,,,,,,,,,,,,,,,,,,,,,,,,,,,,,,,,,,
,,5dd6023dcaee3e5b7ba7a5bc,66fc98d33270de5129c403ab,2024-10-02_00h55.00.068,mdp,2024.2.1,Win32,14.99970001,66fa4ebf79326e780c390304,,,,,,,,,,,,,,,,,,,,,268.83871,268.83871,268.83871,269.722061,1,1,right,0.350007,,269.722061,269.755395,,1,,269.755395,269.772062,,0,,0,269.772062,269.772062,269.772062,271.255425,0,24,24,24,1,0.2,0.8,0.6,0.4,1,0,,,,,,,,,,,,,,,,,,,,,,,,,,,,,,,,,,,,
,,5dd6023dcaee3e5b7ba7a5bc,66fc98d33270de5129c403ab,2024-10-02_00h55.00.068,mdp,2024.2.1,Win32,14.99970001,66fa4ebf79326e780c390304,,,,,,,,,,,,,,,,,,,,,271.255425,271.255425,271.255425,272.305446,1,0,right,0.483343,,272.305446,272.305446,,1,,272.322113,272.322113,,0,,1,272.322113,272.322113,272.322113,273.772142,0,25,25,25,1,0.2,0.8,0.6,0.4,1,0,,,,,,,,,,,,,,,,,,,,,,,,,,,,,,,,,,,,
,,5dd6023dcaee3e5b7ba7a5bc,66fc98d33270de5129c403ab,2024-10-02_00h55.00.068,mdp,2024.2.1,Win32,14.99970001,66fa4ebf79326e780c390304,,,,,,,,,,,,,,,,,,,,,273.772142,273.772142,273.772142,274.622159,1,0,right,0.316673,,274.638826,274.655493,,1,,274.655493,274.655493,,1,,1,274.655493,274.655493,274.655493,276.188857,0,26,26,26,1,0.2,0.8,0.6,0.4,1,0,,,,,,,,,,,,,,,,,,,,,,,,,,,,,,,,,,,,
,,5dd6023dcaee3e5b7ba7a5bc,66fc98d33270de5129c403ab,2024-10-02_00h55.00.068,mdp,2024.2.1,Win32,14.99970001,66fa4ebf79326e780c390304,,,,,,,,,,,,,,,,,,,,,276.188857,276.188857,276.205524,277.17221,1,0,right,0.400008,,277.17221,277.188877,,1,,277.188877,277.188877,,1,,1,277.188877,277.188877,277.205544,278.688907,0,27,27,27,1,0.2,0.8,0.6,0.4,1,0,,,,,,,,,,,,,,,,,,,,,,,,,,,,,,,,,,,,
,,5dd6023dcaee3e5b7ba7a5bc,66fc98d33270de5129c403ab,2024-10-02_00h55.00.068,mdp,2024.2.1,Win32,14.99970001,66fa4ebf79326e780c390304,,,,,,,,,,,,,,,,,,,,,278.705574,278.705574,278.705574,279.622259,1,0,right,0.366674,,279.622259,279.638926,,1,,279.638926,279.638926,,0,,1,279.638926,279.638926,279.655593,281.138956,0,28,28,28,1,0.2,0.8,0.6,0.4,1,0,,,,,,,,,,,,,,,,,,,,,,,,,,,,,,,,,,,,
,,5dd6023dcaee3e5b7ba7a5bc,66fc98d33270de5129c403ab,2024-10-02_00h55.00.068,mdp,2024.2.1,Win32,14.99970001,66fa4ebf79326e780c390304,,,,,,,,,,,,,,,,,,,,,281.155623,281.155623,281.155623,282.038974,1,0,right,0.350007,,282.038974,282.055641,,1,,282.055641,282.072308,,1,,1,282.072308,282.072308,282.072308,283.572338,0,29,29,29,1,0.8,0.2,0.4,0.6,1,0,,,,,,,,,,,,,,,,,,,,,,,,,,,,,,,,,,,,
,,5dd6023dcaee3e5b7ba7a5bc,66fc98d33270de5129c403ab,2024-10-02_00h55.00.068,mdp,2024.2.1,Win32,14.99970001,66fa4ebf79326e780c390304,,,,,,,,,,,,,,,,,,,,,283.572338,283.572338,283.572338,284.722361,1,1,right,0.600012,,284.722361,284.739028,,1,,284.739028,284.755695,,1,,0,284.755695,284.755695,284.755695,286.239058,0,30,30,30,1,0.8,0.2,0.4,0.6,1,0,,,,,,,,,,,,,,,,,,,,,,,,,,,,,,,,,,,,
,,5dd6023dcaee3e5b7ba7a5bc,66fc98d33270de5129c403ab,2024-10-02_00h55.00.068,mdp,2024.2.1,Win32,14.99970001,66fa4ebf79326e780c390304,,,,,,,,,,,,,,,,,,,,,286.239058,286.239058,286.255725,287.155743,1,1,right,0.33334,,287.17241,287.189077,,1,,287.189077,287.189077,,0,,0,287.189077,287.189077,287.205744,288.705774,0,31,31,31,1,0.8,0.2,0.4,0.6,1,0,,,,,,,,,,,,,,,,,,,,,,,,,,,,,,,,,,,,
,,5dd6023dcaee3e5b7ba7a5bc,66fc98d33270de5129c403ab,2024-10-02_00h55.00.068,mdp,2024.2.1,Win32,14.99970001,66fa4ebf79326e780c390304,,,,,,,,,,,,,,,,,,,,,288.705774,288.705774,288.705774,289.655793,1,0,right,0.400008,,289.655793,289.67246,,1,,289.67246,289.689127,,0,,1,289.689127,289.689127,289.689127,291.189157,0,32,32,32,1,0.8,0.2,0.4,0.6,1,0,,,,,,,,,,,,,,,,,,,,,,,,,,,,,,,,,,,,
,,5dd6023dcaee3e5b7ba7a5bc,66fc98d33270de5129c403ab,2024-10-02_00h55.00.068,mdp,2024.2.1,Win32,14.99970001,66fa4ebf79326e780c390304,,,,,,,,,,,,,,,,,,,,,291.205824,291.205824,291.205824,292.239178,1,0,right,0.466676,,292.239178,292.239178,,1,,292.255845,292.255845,,0,,1,292.255845,292.255845,292.272512,293.722541,0,33,33,33,1,0.8,0.2,0.4,0.6,1,0,,,,,,,,,,,,,,,,,,,,,,,,,,,,,,,,,,,,
,,5dd6023dcaee3e5b7ba7a5bc,66fc98d33270de5129c403ab,2024-10-02_00h55.00.068,mdp,2024.2.1,Win32,14.99970001,66fa4ebf79326e780c390304,,,,,,,,,,,,,,,,,,,,,293.722541,293.722541,293.739208,294.639226,1,1,right,0.383341,,294.639226,294.655893,,1,,294.655893,294.655893,,1,,0,294.655893,294.655893,294.67256,296.155923,0,34,34,34,1,0.8,0.2,0.4,0.6,1,0,,,,,,,,,,,,,,,,,,,,,,,,,,,,,,,,,,,,
,,5dd6023dcaee3e5b7ba7a5bc,66fc98d33270de5129c403ab,2024-10-02_00h55.00.068,mdp,2024.2.1,Win32,14.99970001,66fa4ebf79326e780c390304,,,,,,,,,,,,,,,,,,,,,296.155923,296.155923,296.155923,297.105942,1,1,right,0.400008,,297.105942,297.122609,,0,,297.122609,297.122609,,0,,0,297.122609,297.122609,297.122609,298.622639,0,35,35,35,1,0.8,0.2,0.4,0.6,1,0,,,,,,,,,,,,,,,,,,,,,,,,,,,,,,,,,,,,
,,5dd6023dcaee3e5b7ba7a5bc,66fc98d33270de5129c403ab,2024-10-02_00h55.00.068,mdp,2024.2.1,Win32,14.99970001,66fa4ebf79326e780c390304,,,,,,,,,,,,,,,,,,,,,298.622639,298.622639,298.622639,299.605992,1,1,right,0.383341,,299.605992,299.622659,,0,,299.622659,299.639326,,1,,0,299.639326,299.639326,299.639326,301.156023,0,36,36,36,1,0.8,0.2,0.4,0.6,1,0,,,,,,,,,,,,,,,,,,,,,,,,,,,,,,,,,,,,
,,5dd6023dcaee3e5b7ba7a5bc,66fc98d33270de5129c403ab,2024-10-02_00h55.00.068,mdp,2024.2.1,Win32,14.99970001,66fa4ebf79326e780c390304,,,,,,,,,,,,,,,,,,,,,301.156023,301.156023,301.156023,302.056041,0,0,left,0.366674,,302.056041,302.089375,,1,,302.089375,302.106042,,0,,1,302.106042,302.106042,302.106042,303.572738,0,37,37,37,1,0.8,0.2,0.4,0.6,1,0,,,,,,,,,,,,,,,,,,,,,,,,,,,,,,,,,,,,
,,5dd6023dcaee3e5b7ba7a5bc,66fc98d33270de5129c403ab,2024-10-02_00h55.00.068,mdp,2024.2.1,Win32,14.99970001,66fa4ebf79326e780c390304,,,,,,,,,,,,,,,,,,,,,303.572738,303.572738,303.572738,304.872764,0,0,left,0.716681,,304.872764,304.872764,,1,,304.889431,304.889431,,1,,1,304.889431,304.889431,304.889431,306.389461,0,38,38,38,1,0.4,0.6,0.8,0.2,1,0,,,,,,,,,,,,,,,,,,,,,,,,,,,,,,,,,,,,
,,5dd6023dcaee3e5b7ba7a5bc,66fc98d33270de5129c403ab,2024-10-02_00h55.00.068,mdp,2024.2.1,Win32,14.99970001,66fa4ebf79326e780c390304,,,,,,,,,,,,,,,,,,,,,306.389461,306.389461,306.389461,307.372814,0,1,left,0.433342,,307.372814,307.389481,,0,,307.389481,307.389481,,1,,0,307.389481,307.389481,307.406148,308.872844,0,39,39,39,1,0.4,0.6,0.8,0.2,1,0,,,,,,,,,,,,,,,,,,,,,,,,,,,,,,,,,,,,
,,5dd6023dcaee3e5b7ba7a5bc,66fc98d33270de5129c403ab,2024-10-02_00h55.00.068,mdp,2024.2.1,Win32,14.99970001,66fa4ebf79326e780c390304,,,,,,,,,,,,,,,,,,,,,308.872844,308.872844,308.872844,309.856197,0,0,left,0.416675,,309.856197,309.872864,,0,,309.872864,309.889531,,1,,1,309.889531,309.889531,309.889531,311.406228,0,40,40,40,1,0.4,0.6,0.8,0.2,1,0,,,,,,,,,,,,,,,,,,,,,,,,,,,,,,,,,,,,
,,5dd6023dcaee3e5b7ba7a5bc,66fc98d33270de5129c403ab,2024-10-02_00h55.00.068,mdp,2024.2.1,Win32,14.99970001,66fa4ebf79326e780c390304,,,,,,,,,,,,,,,,,,,,,311.406228,311.406228,311.406228,312.422915,0,1,left,0.483343,,312.422915,312.422915,,1,,312.439582,312.439582,,1,,0,312.439582,312.439582,312.439582,313.939612,0,41,41,41,1,0.4,0.6,0.8,0.2,1,0,,,,,,,,,,,,,,,,,,,,,,,,,,,,,,,,,,,,
,,5dd6023dcaee3e5b7ba7a5bc,66fc98d33270de5129c403ab,2024-10-02_00h55.00.068,mdp,2024.2.1,Win32,14.99970001,66fa4ebf79326e780c390304,,,,,,,,,,,,,,,,,,,,,313.939612,313.939612,313.939612,314.889631,0,1,left,0.383341,,314.889631,314.889631,,0,,314.906298,314.922965,,1,,0,314.922965,314.922965,314.922965,316.406328,0,42,42,42,1,0.4,0.6,0.8,0.2,1,0,,,,,,,,,,,,,,,,,,,,,,,,,,,,,,,,,,,,
,,5dd6023dcaee3e5b7ba7a5bc,66fc98d33270de5129c403ab,2024-10-02_00h55.00.068,mdp,2024.2.1,Win32,14.99970001,66fa4ebf79326e780c390304,,,,,,,,,,,,,,,,,,,,,316.406328,316.406328,316.422995,317.423015,0,0,left,0.450009,,317.439682,317.439682,,0,,317.456349,317.456349,,0,,1,317.456349,317.456349,317.456349,318.939712,0,43,43,43,1,0.6,0.4,0.2,0.8,1,0,,,,,,,,,,,,,,,,,,,,,,,,,,,,,,,,,,,,
,,5dd6023dcaee3e5b7ba7a5bc,66fc98d33270de5129c403ab,2024-10-02_00h55.00.068,mdp,2024.2.1,Win32,14.99970001,66fa4ebf79326e780c390304,,,,,,,,,,,,,,,,,,,,,318.939712,318.939712,318.956379,319.939732,0,0,left,0.450009,,319.939732,319.956399,,0,,319.956399,319.956399,,0,,1,319.956399,319.956399,319.956399,321.439762,0,44,44,44,1,0.6,0.4,0.2,0.8,1,0,,,,,,,,,,,,,,,,,,,,,,,,,,,,,,,,,,,,
,,5dd6023dcaee3e5b7ba7a5bc,66fc98d33270de5129c403ab,2024-10-02_00h55.00.068,mdp,2024.2.1,Win32,14.99970001,66fa4ebf79326e780c390304,,,,,,,,,,,,,,,,,,,,,321.439762,321.439762,321.439762,322.67312,0,1,left,0.700014,,322.67312,322.67312,,1,,322.689787,322.689787,,0,,0,322.689787,322.689787,322.689787,324.206484,0,45,45,45,1,0.2,0.8,0.8,0.2,1,0,,,,,,,,,,,,,,,,,,,,,,,,,,,,,,,,,,,,
,,5dd6023dcaee3e5b7ba7a5bc,66fc98d33270de5129c403ab,2024-10-02_00h55.00.068,mdp,2024.2.1,Win32,14.99970001,66fa4ebf79326e780c390304,,,,,,,,,,,,,,,,,,,,,324.206484,324.206484,324.206484,325.556511,0,1,left,0.83335,,325.556511,325.573178,,1,,325.573178,325.589845,,1,,0,325.589845,325.589845,325.589845,327.056541,0,46,46,46,1,0.2,0.8,0.8,0.2,1,0,,,,,,,,,,,,,,,,,,,,,,,,,,,,,,,,,,,,
,,5dd6023dcaee3e5b7ba7a5bc,66fc98d33270de5129c403ab,2024-10-02_00h55.00.068,mdp,2024.2.1,Win32,14.99970001,66fa4ebf79326e780c390304,,,,,,,,,,,,,,,,,,,,,327.056541,327.056541,327.056541,328.406568,0,1,left,0.800016,,328.423235,328.423235,,1,,328.423235,328.439902,,1,,0,328.439902,328.439902,328.439902,329.889931,0,47,47,47,1,0.2,0.8,0.8,0.2,1,0,,,,,,,,,,,,,,,,,,,,,,,,,,,,,,,,,,,,
,,5dd6023dcaee3e5b7ba7a5bc,66fc98d33270de5129c403ab,2024-10-02_00h55.00.068,mdp,2024.2.1,Win32,14.99970001,66fa4ebf79326e780c390304,,,,,,,,,,,,,,,,,,,,,329.889931,329.889931,329.923265,331.289959,1,0,right,0.850017,,331.306626,331.323293,,0,,331.373294,331.373294,,1,,1,331.373294,331.373294,331.389961,332.83999,0,48,48,48,1,0.2,0.8,0.8,0.2,1,0,,,,,,,,,,,,,,,,,,,,,,,,,,,,,,,,,,,,
,,5dd6023dcaee3e5b7ba7a5bc,66fc98d33270de5129c403ab,2024-10-02_00h55.00.068,mdp,2024.2.1,Win32,14.99970001,66fa4ebf79326e780c390304,,,,,,,,,,,,,,,,,,,,,332.856657,332.856657,332.856657,334.00668,1,0,right,0.550011,,334.00668,334.023347,,0,,334.040014,334.040014,,0,,1,334.040014,334.040014,334.040014,335.590045,0,49,49,49,1,0.2,0.8,0.8,0.2,1,0,,,,,,,,,,,,,,,,,,,,,,,,,,,,,,,,,,,,
,,5dd6023dcaee3e5b7ba7a5bc,66fc98d33270de5129c403ab,2024-10-02_00h55.00.068,mdp,2024.2.1,Win32,14.99970001,66fa4ebf79326e780c390304,,,,,,,,,,,,,,,,,,,,,,,,,,,,,,,,,,,,,,,,,,,,,,,,,,,,,,,,335.590045,394.041214,0,0,0,4,1,imgs/giraffe.png,imgs/horse.png,imgs/lion.png,imgs/elephant.png,imgs/rabbit.png,,,,,,,,,,,,,,,,,,,,,,,,
,,5dd6023dcaee3e5b7ba7a5bc,66fc98d33270de5129c403ab,2024-10-02_00h55.00.068,mdp,2024.2.1,Win32,14.99970001,66fa4ebf79326e780c390304,,,,,,,,,,,,,,2,seqs/st2seq2.csv,394.074548,404.324753,space,9.700194,,404.358087,404.358087,404.358087,405.591445,0,1,left,0.633346,,405.591445,407.258145,0,0,left,407.274812,407.274812,,1,,1,407.274812,407.274812,407.291479,408.774842,0,0,0,0,1,0.2,0.8,0.6,0.4,,,,,,,,,,,,,,,1.083355,,0.4,0.6,0.4,0.6,0.2,0.8,0.8,0.2,1,0,,,,,,,,,,,,
,,5dd6023dcaee3e5b7ba7a5bc,66fc98d33270de5129c403ab,2024-10-02_00h55.00.068,mdp,2024.2.1,Win32,14.99970001,66fa4ebf79326e780c390304,,,,,,,,,,,,,,,,,,,,,408.774842,408.774842,408.774842,409.791529,0,1,left,0.466676,,409.808196,411.00822,0,0,left,411.00822,411.041554,,1,,1,411.041554,411.041554,411.041554,412.50825,0,1,1,1,1,0.2,0.8,0.6,0.4,,,,,,,,,,,,,,,0.650013,,0.4,0.6,0.4,0.6,0.2,0.8,0.8,0.2,1,0,,,,,,,,,,,,
,,5dd6023dcaee3e5b7ba7a5bc,66fc98d33270de5129c403ab,2024-10-02_00h55.00.068,mdp,2024.2.1,Win32,14.99970001,66fa4ebf79326e780c390304,,,,,,,,,,,,,,,,,,,,,412.524917,412.524917,412.541584,413.591605,0,1,left,0.483343,,413.591605,414.658293,0,1,left,414.67496,414.691627,,1,,0,414.691627,414.691627,414.691627,416.17499,0,2,2,2,1,0.2,0.8,0.6,0.4,,,,,,,,,,,,,,,0.483343,,0.4,0.6,0.4,0.6,0.2,0.8,0.8,0.2,1,0,,,,,,,,,,,,
,,5dd6023dcaee3e5b7ba7a5bc,66fc98d33270de5129c403ab,2024-10-02_00h55.00.068,mdp,2024.2.1,Win32,14.99970001,66fa4ebf79326e780c390304,,,,,,,,,,,,,,,,,,,,,416.17499,416.17499,416.191657,417.84169,1,0,right,1.133356,,417.858357,419.291719,0,0,left,419.291719,419.308386,,0,,1,419.308386,419.308386,419.308386,420.825083,0,3,3,3,1,0.2,0.8,0.6,0.4,,,,,,,,,,,,,,,0.850017,,0.4,0.6,0.4,0.6,0.2,0.8,0.8,0.2,1,0,,,,,,,,,,,,
,,5dd6023dcaee3e5b7ba7a5bc,66fc98d33270de5129c403ab,2024-10-02_00h55.00.068,mdp,2024.2.1,Win32,14.99970001,66fa4ebf79326e780c390304,,,,,,,,,,,,,,,,,,,,,420.825083,420.825083,420.84175,423.658473,1,1,right,2.300046,,423.691807,424.84183,0,1,left,424.84183,424.858497,,1,,0,424.858497,424.858497,424.858497,426.358527,0,4,4,4,1,0.2,0.8,0.6,0.4,,,,,,,,,,,,,,,0.616679,,0.4,0.6,0.4,0.6,0.2,0.8,0.8,0.2,1,0,,,,,,,,,,,,
,,5dd6023dcaee3e5b7ba7a5bc,66fc98d33270de5129c403ab,2024-10-02_00h55.00.068,mdp,2024.2.1,Win32,14.99970001,66fa4ebf79326e780c390304,,,,,,,,,,,,,,,,,,,,,426.358527,426.358527,426.358527,427.775222,1,0,right,0.900018,,427.791889,429.308586,0,1,left,429.308586,429.325253,,0,,0,429.325253,429.325253,429.325253,430.791949,0,5,5,5,1,0.2,0.8,0.6,0.4,,,,,,,,,,,,,,,0.966686,,0.4,0.6,0.4,0.6,0.2,0.8,0.8,0.2,1,0,,,,,,,,,,,,
,,5dd6023dcaee3e5b7ba7a5bc,66fc98d33270de5129c403ab,2024-10-02_00h55.00.068,mdp,2024.2.1,Win32,14.99970001,66fa4ebf79326e780c390304,,,,,,,,,,,,,,,,,,,,,430.791949,430.791949,430.808616,433.141996,1,0,right,1.766702,,433.141996,434.258685,1,1,right,434.258685,434.258685,,0,,0,434.258685,434.275352,434.275352,435.758715,0,6,6,6,1,0.6,0.4,0.4,0.6,,,,,,,,,,,,,,,0.533344,,0.4,0.6,0.4,0.6,0.2,0.8,0.8,0.2,1,0,,,,,,,,,,,,
,,5dd6023dcaee3e5b7ba7a5bc,66fc98d33270de5129c403ab,2024-10-02_00h55.00.068,mdp,2024.2.1,Win32,14.99970001,66fa4ebf79326e780c390304,,,,,,,,,,,,,,,,,,,,,435.758715,435.758715,435.758715,437.442082,0,1,left,1.116689,,437.458749,438.608772,1,0,right,438.608772,438.625439,,0,,1,438.625439,438.625439,438.625439,440.108802,0,7,7,7,1,0.2,0.8,0.6,0.4,,,,,,,,,,,,,,,0.600012,,0.4,0.6,0.4,0.6,0.2,0.8,0.8,0.2,1,0,,,,,,,,,,,,
,,5dd6023dcaee3e5b7ba7a5bc,66fc98d33270de5129c403ab,2024-10-02_00h55.00.068,mdp,2024.2.1,Win32,14.99970001,66fa4ebf79326e780c390304,,,,,,,,,,,,,,,,,,,,,440.108802,440.108802,440.108802,442.025507,0,0,left,1.33336,,442.025507,443.942212,0,1,left,443.942212,443.958879,,0,,0,443.958879,443.958879,443.958879,445.475576,0,8,8,8,1,0.2,0.8,0.6,0.4,,,,,,,,,,,,,,,1.350027,,0.4,0.6,0.4,0.6,0.2,0.8,0.8,0.2,1,0,,,,,,,,,,,,
,,5dd6023dcaee3e5b7ba7a5bc,66fc98d33270de5129c403ab,2024-10-02_00h55.00.068,mdp,2024.2.1,Win32,14.99970001,66fa4ebf79326e780c390304,,,,,,,,,,,,,,,,,,,,,445.475576,445.475576,445.475576,446.6756,0,1,left,0.66668,,446.6756,448.258965,1,0,right,448.258965,448.275632,,0,,1,448.275632,448.275632,448.275632,449.792329,0,9,9,9,1,0.2,0.8,0.6,0.4,,,,,,,,,,,,,,,1.016687,,0.4,0.6,0.4,0.6,0.2,0.8,0.8,0.2,1,0,,,,,,,,,,,,
,,5dd6023dcaee3e5b7ba7a5bc,66fc98d33270de5129c403ab,2024-10-02_00h55.00.068,mdp,2024.2.1,Win32,14.99970001,66fa4ebf79326e780c390304,,,,,,,,,,,,,,,,,,,,,449.792329,449.792329,449.792329,450.775682,1,0,right,0.450009,,450.775682,451.825703,0,1,left,451.825703,451.84237,,1,,0,451.84237,451.84237,451.84237,453.359067,0,10,10,10,1,0.2,0.8,0.6,0.4,,,,,,,,,,,,,,,0.50001,,0.4,0.6,0.4,0.6,0.2,0.8,0.8,0.2,1,0,,,,,,,,,,,,
,,5dd6023dcaee3e5b7ba7a5bc,66fc98d33270de5129c403ab,2024-10-02_00h55.00.068,mdp,2024.2.1,Win32,14.99970001,66fa4ebf79326e780c390304,,,,,,,,,,,,,,,,,,,,,453.375734,453.375734,453.375734,454.34242,0,1,left,0.416675,,454.34242,455.975786,1,0,right,455.992453,456.00912,,0,,1,456.00912,456.00912,456.00912,457.525817,0,11,11,11,1,0.2,0.8,0.6,0.4,,,,,,,,,,,,,,,1.066688,,0.4,0.6,0.4,0.6,0.2,0.8,0.8,0.2,1,0,,,,,,,,,,,,
,,5dd6023dcaee3e5b7ba7a5bc,66fc98d33270de5129c403ab,2024-10-02_00h55.00.068,mdp,2024.2.1,Win32,14.99970001,66fa4ebf79326e780c390304,,,,,,,,,,,,,,,,,,,,,457.525817,457.525817,457.542484,458.442502,0,1,left,0.366674,,458.442502,459.942532,1,0,right,459.942532,459.959199,,0,,1,459.959199,459.959199,459.975866,461.425895,0,12,12,12,1,0.2,0.8,0.6,0.4,,,,,,,,,,,,,,,0.916685,,0.4,0.6,0.4,0.6,0.2,0.8,0.8,0.2,1,0,,,,,,,,,,,,
,,5dd6023dcaee3e5b7ba7a5bc,66fc98d33270de5129c403ab,2024-10-02_00h55.00.068,mdp,2024.2.1,Win32,14.99970001,66fa4ebf79326e780c390304,,,,,,,,,,,,,,,,,,,,,461.425895,461.425895,461.425895,462.425915,0,1,left,0.466676,,462.425915,463.909278,1,1,right,463.909278,463.909278,,0,,0,463.909278,463.909278,463.909278,465.392641,0,13,13,13,1,0.2,0.8,0.6,0.4,,,,,,,,,,,,,,,0.916685,,0.4,0.6,0.4,0.6,0.2,0.8,0.8,0.2,1,0,,,,,,,,,,,,
,,5dd6023dcaee3e5b7ba7a5bc,66fc98d33270de5129c403ab,2024-10-02_00h55.00.068,mdp,2024.2.1,Win32,14.99970001,66fa4ebf79326e780c390304,,,,,,,,,,,,,,,,,,,,,465.409308,465.409308,465.409308,466.409328,0,0,left,0.400008,,466.409328,468.84271,0,1,left,468.84271,468.859377,,0,,0,468.859377,468.859377,468.859377,470.359407,0,14,14,14,1,0.2,0.8,0.6,0.4,,,,,,,,,,,,,,,1.866704,,0.4,0.6,0.4,0.6,0.2,0.8,0.8,0.2,1,0,,,,,,,,,,,,
,,5dd6023dcaee3e5b7ba7a5bc,66fc98d33270de5129c403ab,2024-10-02_00h55.00.068,mdp,2024.2.1,Win32,14.99970001,66fa4ebf79326e780c390304,,,,,,,,,,,,,,,,,,,,,470.359407,470.359407,470.376074,471.276092,0,1,left,0.350007,,471.276092,472.626119,1,0,right,472.626119,472.642786,,1,,1,472.642786,472.642786,472.642786,474.109482,0,15,15,15,1,0.2,0.8,0.6,0.4,,,,,,,,,,,,,,,0.766682,,0.6,0.4,0.6,0.4,0.2,0.8,0.8,0.2,1,0,,,,,,,,,,,,
,,5dd6023dcaee3e5b7ba7a5bc,66fc98d33270de5129c403ab,2024-10-02_00h55.00.068,mdp,2024.2.1,Win32,14.99970001,66fa4ebf79326e780c390304,,,,,,,,,,,,,,,,,,,,,474.109482,474.126149,474.126149,475.026167,0,1,left,0.33334,,475.059501,476.026187,1,0,right,476.042854,476.042854,,0,,1,476.042854,476.042854,476.042854,477.50955,0,16,16,16,1,0.2,0.8,0.6,0.4,,,,,,,,,,,,,,,0.466676,,0.6,0.4,0.6,0.4,0.4,0.6,0.6,0.4,1,0,,,,,,,,,,,,
,,5dd6023dcaee3e5b7ba7a5bc,66fc98d33270de5129c403ab,2024-10-02_00h55.00.068,mdp,2024.2.1,Win32,14.99970001,66fa4ebf79326e780c390304,,,,,,,,,,,,,,,,,,,,,477.50955,477.50955,477.526217,478.409568,0,1,left,0.350007,,478.409568,479.559591,1,0,right,479.559591,479.559591,,0,,1,479.559591,479.559591,479.559591,481.059621,0,17,17,17,1,0.2,0.8,0.6,0.4,,,,,,,,,,,,,,,0.600012,,0.6,0.4,0.6,0.4,0.4,0.6,0.6,0.4,1,0,,,,,,,,,,,,
,,5dd6023dcaee3e5b7ba7a5bc,66fc98d33270de5129c403ab,2024-10-02_00h55.00.068,mdp,2024.2.1,Win32,14.99970001,66fa4ebf79326e780c390304,,,,,,,,,,,,,,,,,,,,,481.059621,481.059621,481.076288,482.00964,0,1,left,0.400008,,482.00964,483.109662,1,0,right,483.109662,483.126329,,0,,1,483.126329,483.126329,483.126329,484.609692,0,18,18,18,1,0.4,0.6,0.8,0.2,,,,,,,,,,,,,,,0.550011,,0.6,0.4,0.6,0.4,0.4,0.6,0.6,0.4,1,0,,,,,,,,,,,,
,,5dd6023dcaee3e5b7ba7a5bc,66fc98d33270de5129c403ab,2024-10-02_00h55.00.068,mdp,2024.2.1,Win32,14.99970001,66fa4ebf79326e780c390304,,,,,,,,,,,,,,,,,,,,,484.609692,484.609692,484.609692,485.526377,0,1,left,0.366674,,485.526377,486.593065,1,1,right,486.593065,486.609732,,0,,0,486.609732,486.609732,486.609732,488.076428,0,19,19,19,1,0.4,0.6,0.8,0.2,,,,,,,,,,,,,,,0.533344,,0.6,0.4,0.6,0.4,0.4,0.6,0.6,0.4,1,0,,,,,,,,,,,,
,,5dd6023dcaee3e5b7ba7a5bc,66fc98d33270de5129c403ab,2024-10-02_00h55.00.068,mdp,2024.2.1,Win32,14.99970001,66fa4ebf79326e780c390304,,,,,,,,,,,,,,,,,,,,,488.076428,488.076428,488.076428,488.993113,0,1,left,0.33334,,488.993113,490.576478,1,1,right,490.593145,490.593145,,0,,0,490.593145,490.593145,490.609812,492.076508,0,20,20,20,1,0.4,0.6,0.8,0.2,,,,,,,,,,,,,,,1.00002,,0.6,0.4,0.6,0.4,0.4,0.6,0.6,0.4,1,0,,,,,,,,,,,,
,,5dd6023dcaee3e5b7ba7a5bc,66fc98d33270de5129c403ab,2024-10-02_00h55.00.068,mdp,2024.2.1,Win32,14.99970001,66fa4ebf79326e780c390304,,,,,,,,,,,,,,,,,,,,,492.076508,492.076508,492.076508,492.976526,0,1,left,0.350007,,492.976526,494.109882,0,0,left,494.126549,494.143216,,1,,1,494.143216,494.143216,494.143216,495.626579,0,21,21,21,1,0.4,0.6,0.8,0.2,,,,,,,,,,,,,,,0.550011,,0.6,0.4,0.6,0.4,0.4,0.6,0.6,0.4,1,0,,,,,,,,,,,,
,,5dd6023dcaee3e5b7ba7a5bc,66fc98d33270de5129c403ab,2024-10-02_00h55.00.068,mdp,2024.2.1,Win32,14.99970001,66fa4ebf79326e780c390304,,,,,,,,,,,,,,,,,,,,,495.643246,495.643246,495.659913,496.659933,0,1,left,0.466676,,496.6766,497.809956,0,0,left,497.826623,497.84329,,1,,1,497.84329,497.84329,497.84329,499.326653,0,22,22,22,1,0.4,0.6,0.8,0.2,,,,,,,,,,,,,,,0.583345,,0.2,0.8,0.2,0.8,0.4,0.6,0.6,0.4,1,0,,,,,,,,,,,,
,,5dd6023dcaee3e5b7ba7a5bc,66fc98d33270de5129c403ab,2024-10-02_00h55.00.068,mdp,2024.2.1,Win32,14.99970001,66fa4ebf79326e780c390304,,,,,,,,,,,,,,,,,,,,,499.326653,499.326653,499.326653,500.226671,0,0,left,0.366674,,500.226671,502.460049,0,1,left,502.460049,502.476716,,1,,0,502.476716,502.476716,502.476716,503.926745,0,23,23,23,1,0.4,0.6,0.8,0.2,,,,,,,,,,,,,,,1.700034,,0.2,0.8,0.2,0.8,0.4,0.6,0.6,0.4,1,0,,,,,,,,,,,,
,,5dd6023dcaee3e5b7ba7a5bc,66fc98d33270de5129c403ab,2024-10-02_00h55.00.068,mdp,2024.2.1,Win32,14.99970001,66fa4ebf79326e780c390304,,,,,,,,,,,,,,,,,,,,,503.926745,503.926745,503.926745,504.910098,0,1,left,0.450009,,504.943432,506.093455,0,1,left,506.093455,506.110122,,1,,0,506.110122,506.110122,506.110122,507.610152,0,24,24,24,1,0.4,0.6,0.8,0.2,,,,,,,,,,,,,,,0.583345,,0.2,0.8,0.2,0.8,0.4,0.6,0.6,0.4,1,0,,,,,,,,,,,,
,,5dd6023dcaee3e5b7ba7a5bc,66fc98d33270de5129c403ab,2024-10-02_00h55.00.068,mdp,2024.2.1,Win32,14.99970001,66fa4ebf79326e780c390304,,,,,,,,,,,,,,,,,,,,,507.610152,507.610152,507.610152,508.460169,0,1,left,0.300006,,508.476836,510.143536,0,0,left,510.160203,510.160203,,0,,1,510.160203,510.160203,510.160203,511.643566,0,25,25,25,1,0.4,0.6,0.8,0.2,,,,,,,,,,,,,,,1.133356,,0.2,0.8,0.2,0.8,0.4,0.6,0.6,0.4,1,0,,,,,,,,,,,,
,,5dd6023dcaee3e5b7ba7a5bc,66fc98d33270de5129c403ab,2024-10-02_00h55.00.068,mdp,2024.2.1,Win32,14.99970001,66fa4ebf79326e780c390304,,,,,,,,,,,,,,,,,,,,,511.643566,511.643566,511.643566,512.593585,0,0,left,0.400008,,512.593585,514.576958,0,1,left,514.593625,514.593625,,1,,0,514.593625,514.593625,514.610292,516.060321,0,26,26,26,1,0.4,0.6,0.8,0.2,,,,,,,,,,,,,,,1.433362,,0.2,0.8,0.2,0.8,0.4,0.6,0.6,0.4,1,0,,,,,,,,,,,,
,,5dd6023dcaee3e5b7ba7a5bc,66fc98d33270de5129c403ab,2024-10-02_00h55.00.068,mdp,2024.2.1,Win32,14.99970001,66fa4ebf79326e780c390304,,,,,,,,,,,,,,,,,,,,,516.060321,516.060321,516.060321,516.960339,0,1,left,0.33334,,516.960339,518.160363,0,1,left,518.17703,518.17703,,1,,0,518.17703,518.17703,518.193697,519.67706,0,27,27,27,1,0.4,0.6,0.8,0.2,,,,,,,,,,,,,,,0.633346,,0.2,0.8,0.2,0.8,0.4,0.6,0.6,0.4,1,0,,,,,,,,,,,,
,,5dd6023dcaee3e5b7ba7a5bc,66fc98d33270de5129c403ab,2024-10-02_00h55.00.068,mdp,2024.2.1,Win32,14.99970001,66fa4ebf79326e780c390304,,,,,,,,,,,,,,,,,,,,,519.67706,519.67706,519.693727,520.893751,0,0,left,0.66668,,520.893751,522.310446,1,0,right,522.310446,522.310446,,1,,1,522.310446,522.310446,522.327113,523.84381,0,28,28,28,1,0.4,0.6,0.8,0.2,,,,,,,,,,,,,,,0.83335,,0.2,0.8,0.2,0.8,0.4,0.6,0.6,0.4,1,0,,,,,,,,,,,,
,,5dd6023dcaee3e5b7ba7a5bc,66fc98d33270de5129c403ab,2024-10-02_00h55.00.068,mdp,2024.2.1,Win32,14.99970001,66fa4ebf79326e780c390304,,,,,,,,,,,,,,,,,,,,,523.84381,523.84381,523.84381,524.793829,0,1,left,0.416675,,524.793829,527.377214,0,0,left,527.377214,527.377214,,1,,1,527.377214,527.377214,527.393881,528.893911,0,29,29,29,1,0.4,0.6,0.8,0.2,,,,,,,,,,,,,,,2.00004,,0.2,0.8,0.2,0.8,0.4,0.6,0.6,0.4,1,0,,,,,,,,,,,,
,,5dd6023dcaee3e5b7ba7a5bc,66fc98d33270de5129c403ab,2024-10-02_00h55.00.068,mdp,2024.2.1,Win32,14.99970001,66fa4ebf79326e780c390304,,,,,,,,,,,,,,,,,,,,,528.910578,528.910578,528.910578,529.860597,0,0,left,0.383341,,529.860597,531.160623,1,0,right,531.210624,531.227291,,1,,1,531.227291,531.227291,531.227291,532.727321,0,30,30,30,1,0.4,0.6,0.8,0.2,,,,,,,,,,,,,,,0.750015,,0.2,0.8,0.2,0.8,0.4,0.6,0.6,0.4,1,0,,,,,,,,,,,,
,,5dd6023dcaee3e5b7ba7a5bc,66fc98d33270de5129c403ab,2024-10-02_00h55.00.068,mdp,2024.2.1,Win32,14.99970001,66fa4ebf79326e780c390304,,,,,,,,,,,,,,,,,,,,,532.727321,532.727321,532.727321,533.527337,0,1,left,0.266672,,533.527337,535.17737,0,1,left,535.194037,535.194037,,0,,0,535.194037,535.194037,535.210704,536.660733,0,31,31,31,1,0.4,0.6,0.8,0.2,,,,,,,,,,,,,,,1.083355,,0.2,0.8,0.2,0.8,0.4,0.6,0.6,0.4,1,0,,,,,,,,,,,,
,,5dd6023dcaee3e5b7ba7a5bc,66fc98d33270de5129c403ab,2024-10-02_00h55.00.068,mdp,2024.2.1,Win32,14.99970001,66fa4ebf79326e780c390304,,,,,,,,,,,,,,,,,,,,,536.660733,536.660733,536.660733,537.710754,0,1,left,0.50001,,537.710754,539.977466,1,0,right,539.977466,539.994133,,1,,1,539.994133,539.994133,539.994133,541.477496,0,32,32,32,1,0.4,0.6,0.8,0.2,,,,,,,,,,,,,,,1.700034,,0.2,0.8,0.2,0.8,0.4,0.6,0.6,0.4,1,0,,,,,,,,,,,,
,,5dd6023dcaee3e5b7ba7a5bc,66fc98d33270de5129c403ab,2024-10-02_00h55.00.068,mdp,2024.2.1,Win32,14.99970001,66fa4ebf79326e780c390304,,,,,,,,,,,,,,,,,,,,,541.477496,541.477496,541.494163,542.444182,0,0,left,0.416675,,542.460849,543.860877,1,1,right,543.877544,543.877544,,1,,0,543.877544,543.877544,543.894211,545.34424,0,33,33,33,1,0.4,0.6,0.8,0.2,,,,,,,,,,,,,,,0.850017,,0.2,0.8,0.2,0.8,0.8,0.2,0.2,0.8,1,0,,,,,,,,,,,,
,,5dd6023dcaee3e5b7ba7a5bc,66fc98d33270de5129c403ab,2024-10-02_00h55.00.068,mdp,2024.2.1,Win32,14.99970001,66fa4ebf79326e780c390304,,,,,,,,,,,,,,,,,,,,,545.34424,545.34424,545.360907,546.327593,0,0,left,0.400008,,546.34426,547.894291,1,1,right,547.894291,547.910958,,1,,0,547.910958,547.910958,547.910958,549.377654,0,34,34,34,1,0.4,0.6,0.8,0.2,,,,,,,,,,,,,,,1.016687,,0.2,0.8,0.2,0.8,0.8,0.2,0.2,0.8,1,0,,,,,,,,,,,,
,,5dd6023dcaee3e5b7ba7a5bc,66fc98d33270de5129c403ab,2024-10-02_00h55.00.068,mdp,2024.2.1,Win32,14.99970001,66fa4ebf79326e780c390304,,,,,,,,,,,,,,,,,,,,,549.377654,549.377654,549.377654,550.361007,0,1,left,0.416675,,550.361007,551.977706,1,1,right,551.977706,551.994373,,1,,0,551.994373,551.994373,551.994373,553.461069,0,35,35,35,1,0.4,0.6,0.8,0.2,,,,,,,,,,,,,,,1.066688,,0.2,0.8,0.2,0.8,0.8,0.2,0.2,0.8,1,0,,,,,,,,,,,,
,,5dd6023dcaee3e5b7ba7a5bc,66fc98d33270de5129c403ab,2024-10-02_00h55.00.068,mdp,2024.2.1,Win32,14.99970001,66fa4ebf79326e780c390304,,,,,,,,,,,,,,,,,,,,,553.461069,553.461069,553.461069,554.411088,0,1,left,0.383341,,554.411088,555.661113,0,0,left,555.67778,555.67778,,0,,1,555.67778,555.67778,555.694447,557.194477,0,36,36,36,1,0.4,0.6,0.8,0.2,,,,,,,,,,,,,,,0.716681,,0.2,0.8,0.2,0.8,0.8,0.2,0.2,0.8,1,0,,,,,,,,,,,,
,,5dd6023dcaee3e5b7ba7a5bc,66fc98d33270de5129c403ab,2024-10-02_00h55.00.068,mdp,2024.2.1,Win32,14.99970001,66fa4ebf79326e780c390304,,,,,,,,,,,,,,,,,,,,,557.211144,557.211144,557.211144,558.244498,0,0,left,0.466676,,558.244498,560.17787,1,1,right,560.17787,560.17787,,1,,0,560.17787,560.17787,560.194537,561.661233,0,37,37,37,1,0.4,0.6,0.8,0.2,,,,,,,,,,,,,,,1.366694,,0.2,0.8,0.2,0.8,0.2,0.8,0.8,0.2,1,0,,,,,,,,,,,,
,,5dd6023dcaee3e5b7ba7a5bc,66fc98d33270de5129c403ab,2024-10-02_00h55.00.068,mdp,2024.2.1,Win32,14.99970001,66fa4ebf79326e780c390304,,,,,,,,,,,,,,,,,,,,,561.661233,561.661233,561.661233,562.627919,0,0,left,0.400008,,562.627919,564.077948,0,1,left,564.077948,564.077948,,1,,0,564.077948,564.077948,564.094615,565.577978,0,38,38,38,1,0.4,0.6,0.8,0.2,,,,,,,,,,,,,,,0.883351,,0.2,0.8,0.2,0.8,0.2,0.8,0.8,0.2,1,0,,,,,,,,,,,,
,,5dd6023dcaee3e5b7ba7a5bc,66fc98d33270de5129c403ab,2024-10-02_00h55.00.068,mdp,2024.2.1,Win32,14.99970001,66fa4ebf79326e780c390304,,,,,,,,,,,,,,,,,,,,,565.577978,565.577978,565.594645,566.51133,0,0,left,0.400008,,566.51133,567.911358,0,1,left,567.911358,567.928025,,1,,0,567.928025,567.928025,567.944692,569.411388,0,39,39,39,1,0.4,0.6,0.8,0.2,,,,,,,,,,,,,,,0.850017,,0.2,0.8,0.2,0.8,0.2,0.8,0.8,0.2,1,0,,,,,,,,,,,,
,,5dd6023dcaee3e5b7ba7a5bc,66fc98d33270de5129c403ab,2024-10-02_00h55.00.068,mdp,2024.2.1,Win32,14.99970001,66fa4ebf79326e780c390304,,,,,,,,,,,,,,,,,,,,,569.428055,569.428055,569.444722,570.728081,0,1,left,0.750015,,570.728081,571.894771,1,0,right,571.911438,571.911438,,0,,1,571.911438,571.911438,571.928105,573.394801,0,40,40,40,1,0.4,0.6,0.8,0.2,,,,,,,,,,,,,,,0.600012,,0.2,0.8,0.2,0.8,0.2,0.8,0.8,0.2,1,0,,,,,,,,,,,,
,,5dd6023dcaee3e5b7ba7a5bc,66fc98d33270de5129c403ab,2024-10-02_00h55.00.068,mdp,2024.2.1,Win32,14.99970001,66fa4ebf79326e780c390304,,,,,,,,,,,,,,,,,,,,,573.394801,573.394801,573.411468,574.444822,0,0,left,0.483343,,574.444822,576.144856,1,0,right,576.144856,576.161523,,1,,1,576.161523,576.161523,576.161523,577.628219,0,41,41,41,1,0.4,0.6,0.8,0.2,,,,,,,,,,,,,,,1.150023,,0.2,0.8,0.2,0.8,0.2,0.8,0.8,0.2,1,0,,,,,,,,,,,,
,,5dd6023dcaee3e5b7ba7a5bc,66fc98d33270de5129c403ab,2024-10-02_00h55.00.068,mdp,2024.2.1,Win32,14.99970001,66fa4ebf79326e780c390304,,,,,,,,,,,,,,,,,,,,,577.628219,577.628219,577.644886,578.51157,0,1,left,0.350007,,578.51157,579.694927,1,0,right,579.694927,579.711594,,0,,1,579.711594,579.711594,579.711594,581.17829,0,42,42,42,1,0.4,0.6,0.8,0.2,,,,,,,,,,,,,,,0.616679,,0.2,0.8,0.2,0.8,0.2,0.8,0.8,0.2,1,0,,,,,,,,,,,,
,,5dd6023dcaee3e5b7ba7a5bc,66fc98d33270de5129c403ab,2024-10-02_00h55.00.068,mdp,2024.2.1,Win32,14.99970001,66fa4ebf79326e780c390304,,,,,,,,,,,,,,,,,,,,,581.17829,581.17829,581.17829,582.078308,0,1,left,0.366674,,582.078308,583.094995,1,0,right,583.094995,583.111662,,0,,1,583.111662,583.111662,583.111662,584.628359,0,43,43,43,1,0.4,0.6,0.8,0.2,,,,,,,,,,,,,,,0.483343,,0.2,0.8,0.2,0.8,0.2,0.8,0.8,0.2,1,0,,,,,,,,,,,,
,,5dd6023dcaee3e5b7ba7a5bc,66fc98d33270de5129c403ab,2024-10-02_00h55.00.068,mdp,2024.2.1,Win32,14.99970001,66fa4ebf79326e780c390304,,,,,,,,,,,,,,,,,,,,,584.645026,584.645026,584.645026,585.561711,0,1,left,0.350007,,585.561711,586.711734,1,0,right,586.711734,586.711734,,0,,1,586.728401,586.728401,586.728401,588.211764,0,44,44,44,1,0.4,0.6,0.8,0.2,,,,,,,,,,,,,,,0.583345,,0.2,0.8,0.2,0.8,0.2,0.8,0.8,0.2,1,0,,,,,,,,,,,,
,,5dd6023dcaee3e5b7ba7a5bc,66fc98d33270de5129c403ab,2024-10-02_00h55.00.068,mdp,2024.2.1,Win32,14.99970001,66fa4ebf79326e780c390304,,,,,,,,,,,,,,,,,,,,,588.228431,588.228431,588.228431,589.078448,0,0,left,0.300006,,589.078448,590.811816,1,1,right,590.811816,590.828483,,1,,0,590.828483,590.828483,590.828483,592.278512,0,45,45,45,1,0.4,0.6,0.8,0.2,,,,,,,,,,,,,,,1.183357,,0.4,0.6,0.4,0.6,0.2,0.8,0.8,0.2,1,0,,,,,,,,,,,,
,,5dd6023dcaee3e5b7ba7a5bc,66fc98d33270de5129c403ab,2024-10-02_00h55.00.068,mdp,2024.2.1,Win32,14.99970001,66fa4ebf79326e780c390304,,,,,,,,,,,,,,,,,,,,,592.278512,592.278512,592.295179,593.111862,0,1,left,0.300006,,593.128529,594.328553,1,1,right,594.34522,594.361887,,1,,0,594.361887,594.361887,594.361887,595.861917,0,46,46,46,1,0.4,0.6,0.8,0.2,,,,,,,,,,,,,,,0.650013,,0.4,0.6,0.4,0.6,0.2,0.8,0.8,0.2,1,0,,,,,,,,,,,,
,,5dd6023dcaee3e5b7ba7a5bc,66fc98d33270de5129c403ab,2024-10-02_00h55.00.068,mdp,2024.2.1,Win32,14.99970001,66fa4ebf79326e780c390304,,,,,,,,,,,,,,,,,,,,,595.861917,595.861917,595.861917,596.811936,0,1,left,0.383341,,596.811936,597.828623,1,0,right,597.828623,597.84529,,1,,1,597.84529,597.84529,597.84529,599.311986,0,47,47,47,1,0.4,0.6,0.8,0.2,,,,,,,,,,,,,,,0.433342,,0.4,0.6,0.4,0.6,0.2,0.8,0.8,0.2,1,0,,,,,,,,,,,,
,,5dd6023dcaee3e5b7ba7a5bc,66fc98d33270de5129c403ab,2024-10-02_00h55.00.068,mdp,2024.2.1,Win32,14.99970001,66fa4ebf79326e780c390304,,,,,,,,,,,,,,,,,,,,,599.311986,599.311986,599.311986,600.295339,0,0,left,0.400008,,600.295339,601.412028,1,1,right,601.412028,601.428695,,1,,0,601.428695,601.428695,601.428695,602.928725,0,48,48,48,1,0.4,0.6,0.8,0.2,,,,,,,,,,,,,,,0.533344,,0.4,0.6,0.4,0.6,0.2,0.8,0.8,0.2,1,0,,,,,,,,,,,,
,,5dd6023dcaee3e5b7ba7a5bc,66fc98d33270de5129c403ab,2024-10-02_00h55.00.068,mdp,2024.2.1,Win32,14.99970001,66fa4ebf79326e780c390304,,,,,,,,,,,,,,,,,,,,,602.928725,602.928725,602.928725,604.278752,0,1,left,0.766682,,604.295419,605.445442,1,0,right,605.445442,605.462109,,0,,1,605.462109,605.462109,605.462109,606.928805,0,49,49,49,1,0.4,0.6,0.8,0.2,,,,,,,,,,,,,,,0.550011,,0.4,0.6,0.4,0.6,0.2,0.8,0.8,0.2,1,0,,,,,,,,,,,,
,,5dd6023dcaee3e5b7ba7a5bc,66fc98d33270de5129c403ab,2024-10-02_00h55.00.068,mdp,2024.2.1,Win32,14.99970001,66fa4ebf79326e780c390304,,,,,,,,,,,,,,,,,,,,,,,,,,,,,,,,,,,,,,,,,,,,,,,,,,,,,,,,606.928805,665.496643,0,1,1,2,1,imgs/squirrel.png,imgs/lion.png,imgs/pig.png,imgs/bear.png,imgs/dog.png,,,,,,,,,,,,,,,,,,,,,,,,
,,5dd6023dcaee3e5b7ba7a5bc,66fc98d33270de5129c403ab,2024-10-02_00h55.00.068,mdp,2024.2.1,Win32,14.99970001,66fa4ebf79326e780c390304,,,,,,,,,,,,,,3,seqs/st3seq32.csv,665.51331,674.713494,space,8.683507,,674.763495,674.763495,674.763495,676.380194,0,0,left,1.050021,,676.396861,677.68022,0,1,left,677.68022,678.880244,0,1,left,0,678.880244,678.880244,678.896911,680.380274,0,0,0,0,1,0.4,0.6,0.6,0.4,,,,,,,,,,,,,,,0.733348,,0.2,0.8,0.8,0.2,0.6,0.4,0.8,0.2,,,0.600012,,0.6,0.4,0.2,0.8,0.4,0.6,0.6,0.4,1,0
,,5dd6023dcaee3e5b7ba7a5bc,66fc98d33270de5129c403ab,2024-10-02_00h55.00.068,mdp,2024.2.1,Win32,14.99970001,66fa4ebf79326e780c390304,,,,,,,,,,,,,,,,,,,,,680.396941,680.396941,680.396941,681.480296,0,0,left,0.550011,,681.480296,682.580318,0,0,left,682.580318,685.963719,0,1,left,0,685.963719,685.963719,685.963719,687.430415,0,1,1,1,1,0.4,0.6,0.6,0.4,,,,,,,,,,,,,,,0.550011,,0.2,0.8,0.8,0.2,0.6,0.4,0.8,0.2,,,2.816723,,0.6,0.4,0.2,0.8,0.4,0.6,0.6,0.4,1,0
,,5dd6023dcaee3e5b7ba7a5bc,66fc98d33270de5129c403ab,2024-10-02_00h55.00.068,mdp,2024.2.1,Win32,14.99970001,66fa4ebf79326e780c390304,,,,,,,,,,,,,,,,,,,,,687.430415,687.430415,687.447082,688.430435,0,0,left,0.433342,,688.430435,689.447122,0,1,left,689.447122,690.913818,1,1,right,0,690.913818,690.913818,690.930485,692.413848,0,2,2,2,1,0.4,0.6,0.6,0.4,,,,,,,,,,,,,,,0.466676,,0.2,0.8,0.8,0.2,0.6,0.4,0.8,0.2,,,0.850017,,0.2,0.8,0.4,0.6,0.4,0.6,0.6,0.4,1,0
,,5dd6023dcaee3e5b7ba7a5bc,66fc98d33270de5129c403ab,2024-10-02_00h55.00.068,mdp,2024.2.1,Win32,14.99970001,66fa4ebf79326e780c390304,,,,,,,,,,,,,,,,,,,,,692.430515,692.430515,692.430515,693.447202,0,1,left,0.450009,,693.447202,694.463889,0,1,left,694.463889,695.780582,1,0,right,1,695.797249,695.797249,695.797249,697.280612,0,3,3,3,1,0.4,0.6,0.6,0.4,,,,,,,,,,,,,,,0.433342,,0.2,0.8,0.8,0.2,0.6,0.4,0.8,0.2,,,0.750015,,0.2,0.8,0.4,0.6,0.4,0.6,0.6,0.4,1,0
,,5dd6023dcaee3e5b7ba7a5bc,66fc98d33270de5129c403ab,2024-10-02_00h55.00.068,mdp,2024.2.1,Win32,14.99970001,66fa4ebf79326e780c390304,,,,,,,,,,,,,,,,,,,,,697.280612,697.280612,697.280612,698.18063,0,1,left,0.366674,,698.18063,699.18065,0,0,left,699.18065,700.480676,1,0,right,1,700.480676,700.480676,700.480676,701.947372,0,4,4,4,1,0.4,0.6,0.6,0.4,,,,,,,,,,,,,,,0.466676,,0.2,0.8,0.8,0.2,0.6,0.4,0.8,0.2,,,0.716681,,0.2,0.8,0.4,0.6,0.4,0.6,0.6,0.4,1,0
,,5dd6023dcaee3e5b7ba7a5bc,66fc98d33270de5129c403ab,2024-10-02_00h55.00.068,mdp,2024.2.1,Win32,14.99970001,66fa4ebf79326e780c390304,,,,,,,,,,,,,,,,,,,,,701.947372,701.947372,701.964039,702.997393,0,1,left,0.483343,,702.997393,703.997413,0,1,left,703.997413,705.18077,1,0,right,1,705.18077,705.18077,705.18077,706.697467,0,5,5,5,1,0.4,0.6,0.6,0.4,,,,,,,,,,,,,,,0.483343,,0.2,0.8,0.8,0.2,0.6,0.4,0.8,0.2,,,0.616679,,0.2,0.8,0.4,0.6,0.4,0.6,0.6,0.4,1,0
,,5dd6023dcaee3e5b7ba7a5bc,66fc98d33270de5129c403ab,2024-10-02_00h55.00.068,mdp,2024.2.1,Win32,14.99970001,66fa4ebf79326e780c390304,,,,,,,,,,,,,,,,,,,,,706.697467,706.697467,706.697467,707.597485,0,1,left,0.350007,,707.597485,708.68084,0,0,left,708.68084,709.830863,1,0,right,1,709.830863,709.830863,709.830863,711.314226,0,6,6,6,1,0.4,0.6,0.6,0.4,,,,,,,,,,,,,,,0.516677,,0.2,0.8,0.8,0.2,0.6,0.4,0.8,0.2,,,0.600012,,0.2,0.8,0.4,0.6,0.4,0.6,0.6,0.4,1,0
,,5dd6023dcaee3e5b7ba7a5bc,66fc98d33270de5129c403ab,2024-10-02_00h55.00.068,mdp,2024.2.1,Win32,14.99970001,66fa4ebf79326e780c390304,,,,,,,,,,,,,,,,,,,,,711.314226,711.314226,711.314226,712.397581,0,1,left,0.550011,,712.397581,713.564271,0,0,left,713.564271,714.997633,1,1,right,0,714.997633,714.997633,714.997633,716.497663,0,7,7,7,1,0.4,0.6,0.6,0.4,,,,,,,,,,,,,,,0.583345,,0.2,0.8,0.8,0.2,0.6,0.4,0.8,0.2,,,0.850017,,0.2,0.8,0.4,0.6,0.4,0.6,0.6,0.4,1,0
,,5dd6023dcaee3e5b7ba7a5bc,66fc98d33270de5129c403ab,2024-10-02_00h55.00.068,mdp,2024.2.1,Win32,14.99970001,66fa4ebf79326e780c390304,,,,,,,,,,,,,,,,,,,,,716.497663,716.497663,716.51433,717.414348,0,0,left,0.366674,,717.414348,718.481036,0,1,left,718.497703,720.047734,1,1,right,0,720.047734,720.047734,720.047734,721.51443,0,8,8,8,1,0.4,0.6,0.6,0.4,,,,,,,,,,,,,,,0.466676,,0.2,0.8,0.8,0.2,0.6,0.4,0.8,0.2,,,1.033354,,0.2,0.8,0.4,0.6,0.4,0.6,0.6,0.4,1,0
,,5dd6023dcaee3e5b7ba7a5bc,66fc98d33270de5129c403ab,2024-10-02_00h55.00.068,mdp,2024.2.1,Win32,14.99970001,66fa4ebf79326e780c390304,,,,,,,,,,,,,,,,,,,,,721.51443,721.51443,721.51443,722.447782,0,1,left,0.400008,,722.447782,723.581138,0,0,left,723.597805,724.714494,1,1,right,0,724.714494,724.714494,724.714494,726.214524,0,9,9,9,1,0.4,0.6,0.6,0.4,,,,,,,,,,,,,,,0.550011,,0.2,0.8,0.8,0.2,0.6,0.4,0.8,0.2,,,0.550011,,0.2,0.8,0.4,0.6,0.4,0.6,0.6,0.4,1,0
,,5dd6023dcaee3e5b7ba7a5bc,66fc98d33270de5129c403ab,2024-10-02_00h55.00.068,mdp,2024.2.1,Win32,14.99970001,66fa4ebf79326e780c390304,,,,,,,,,,,,,,,,,,,,,726.214524,726.214524,726.231191,727.131209,0,0,left,0.383341,,727.131209,728.364567,0,1,left,728.364567,729.564591,0,0,left,1,729.564591,729.564591,729.597925,731.081288,0,10,10,10,1,0.4,0.6,0.6,0.4,,,,,,,,,,,,,,,0.683347,,0.2,0.8,0.8,0.2,0.6,0.4,0.8,0.2,,,0.633346,,0.2,0.8,0.4,0.6,0.4,0.6,0.6,0.4,1,0
,,5dd6023dcaee3e5b7ba7a5bc,66fc98d33270de5129c403ab,2024-10-02_00h55.00.068,mdp,2024.2.1,Win32,14.99970001,66fa4ebf79326e780c390304,,,,,,,,,,,,,,,,,,,,,731.097955,731.097955,731.114622,732.047974,0,0,left,0.383341,,732.064641,733.147996,0,1,left,733.147996,734.231351,0,1,left,0,734.231351,734.231351,734.231351,735.714714,0,11,11,11,1,0.4,0.6,0.6,0.4,,,,,,,,,,,,,,,0.566678,,0.2,0.8,0.8,0.2,0.6,0.4,0.8,0.2,,,0.50001,,0.2,0.8,0.4,0.6,0.4,0.6,0.6,0.4,1,0
,,5dd6023dcaee3e5b7ba7a5bc,66fc98d33270de5129c403ab,2024-10-02_00h55.00.068,mdp,2024.2.1,Win32,14.99970001,66fa4ebf79326e780c390304,,,,,,,,,,,,,,,,,,,,,735.714714,735.714714,735.731381,736.631399,0,0,left,0.366674,,736.631399,737.714754,0,0,left,737.714754,739.298119,0,0,left,1,739.298119,739.298119,739.298119,740.764815,0,12,12,12,1,0.4,0.6,0.6,0.4,,,,,,,,,,,,,,,0.50001,,0.2,0.8,0.8,0.2,0.6,0.4,0.8,0.2,,,1.033354,,0.2,0.8,0.4,0.6,0.4,0.6,0.6,0.4,1,0
,,5dd6023dcaee3e5b7ba7a5bc,66fc98d33270de5129c403ab,2024-10-02_00h55.00.068,mdp,2024.2.1,Win32,14.99970001,66fa4ebf79326e780c390304,,,,,,,,,,,,,,,,,,,,,740.764815,740.764815,740.781482,741.6815,0,0,left,0.366674,,741.6815,742.714854,0,1,left,742.714854,743.881544,0,0,left,1,743.881544,743.881544,743.881544,745.364907,0,13,13,13,1,0.4,0.6,0.6,0.4,,,,,,,,,,,,,,,0.466676,,0.2,0.8,0.8,0.2,0.6,0.4,0.8,0.2,,,0.583345,,0.2,0.8,0.4,0.6,0.4,0.6,0.6,0.4,1,0
,,5dd6023dcaee3e5b7ba7a5bc,66fc98d33270de5129c403ab,2024-10-02_00h55.00.068,mdp,2024.2.1,Win32,14.99970001,66fa4ebf79326e780c390304,,,,,,,,,,,,,,,,,,,,,745.364907,745.364907,745.381574,746.331593,0,1,left,0.416675,,746.331593,747.381614,0,0,left,747.381614,748.414968,0,1,left,0,748.414968,748.414968,748.414968,749.898331,0,14,14,14,1,0.4,0.6,0.6,0.4,,,,,,,,,,,,,,,0.50001,,0.2,0.8,0.8,0.2,0.6,0.4,0.8,0.2,,,0.483343,,0.2,0.8,0.4,0.6,0.4,0.6,0.6,0.4,1,0
,,5dd6023dcaee3e5b7ba7a5bc,66fc98d33270de5129c403ab,2024-10-02_00h55.00.068,mdp,2024.2.1,Win32,14.99970001,66fa4ebf79326e780c390304,,,,,,,,,,,,,,,,,,,,,749.898331,749.898331,749.914998,750.831683,0,1,left,0.400008,,750.84835,751.865037,0,0,left,751.881704,753.215064,0,1,left,0,753.215064,753.215064,753.215064,754.698427,0,15,15,15,1,0.4,0.6,0.6,0.4,,,,,,,,,,,,,,,0.50001,,0.2,0.8,0.8,0.2,0.6,0.4,0.8,0.2,,,0.800016,,0.2,0.8,0.4,0.6,0.4,0.6,0.6,0.4,1,0
,,5dd6023dcaee3e5b7ba7a5bc,66fc98d33270de5129c403ab,2024-10-02_00h55.00.068,mdp,2024.2.1,Win32,14.99970001,66fa4ebf79326e780c390304,,,,,,,,,,,,,,,,,,,,,754.698427,754.698427,754.715094,755.765115,0,1,left,0.516677,,755.765115,756.84847,0,0,left,756.84847,758.081828,0,1,left,0,758.081828,758.081828,758.081828,759.565191,0,16,16,16,1,0.4,0.6,0.6,0.4,,,,,,,,,,,,,,,0.550011,,0.2,0.8,0.8,0.2,0.6,0.4,0.8,0.2,,,0.700014,,0.8,0.2,0.2,0.8,0.4,0.6,0.6,0.4,1,0
,,5dd6023dcaee3e5b7ba7a5bc,66fc98d33270de5129c403ab,2024-10-02_00h55.00.068,mdp,2024.2.1,Win32,14.99970001,66fa4ebf79326e780c390304,,,,,,,,,,,,,,,,,,,,,759.565191,759.565191,759.565191,760.498543,0,1,left,0.400008,,760.51521,761.565231,0,0,left,761.581898,762.831923,1,0,right,1,762.831923,762.831923,762.831923,764.34862,0,17,17,17,1,0.4,0.6,0.6,0.4,,,,,,,,,,,,,,,0.516677,,0.2,0.8,0.8,0.2,0.6,0.4,0.8,0.2,,,0.700014,,0.8,0.2,0.2,0.8,0.4,0.6,0.6,0.4,1,0
,,5dd6023dcaee3e5b7ba7a5bc,66fc98d33270de5129c403ab,2024-10-02_00h55.00.068,mdp,2024.2.1,Win32,14.99970001,66fa4ebf79326e780c390304,,,,,,,,,,,,,,,,,,,,,764.34862,764.34862,764.365287,765.215304,0,1,left,0.316673,,765.215304,766.298659,0,0,left,766.298659,767.432015,1,0,right,1,767.432015,767.432015,767.432015,768.948712,0,18,18,18,1,0.4,0.6,0.6,0.4,,,,,,,,,,,,,,,0.533344,,0.2,0.8,0.8,0.2,0.6,0.4,0.8,0.2,,,0.600012,,0.8,0.2,0.2,0.8,0.4,0.6,0.6,0.4,1,0
,,5dd6023dcaee3e5b7ba7a5bc,66fc98d33270de5129c403ab,2024-10-02_00h55.00.068,mdp,2024.2.1,Win32,14.99970001,66fa4ebf79326e780c390304,,,,,,,,,,,,,,,,,,,,,768.948712,768.948712,768.965379,769.832063,0,1,left,0.33334,,769.832063,770.898751,0,1,left,770.915418,771.948772,1,1,right,0,771.948772,771.948772,771.965439,773.448802,0,19,19,19,1,0.4,0.6,0.6,0.4,,,,,,,,,,,,,,,0.50001,,0.2,0.8,0.8,0.2,0.6,0.4,0.8,0.2,,,0.450009,,0.8,0.2,0.2,0.8,0.4,0.6,0.6,0.4,1,0
,,5dd6023dcaee3e5b7ba7a5bc,66fc98d33270de5129c403ab,2024-10-02_00h55.00.068,mdp,2024.2.1,Win32,14.99970001,66fa4ebf79326e780c390304,,,,,,,,,,,,,,,,,,,,,773.448802,773.448802,773.448802,774.332153,0,1,left,0.350007,,774.332153,775.282172,0,1,left,775.282172,777.68222,1,0,right,1,777.68222,777.68222,777.698887,779.148916,0,20,20,20,1,0.8,0.2,0.2,0.8,,,,,,,,,,,,,,,0.383341,,0.2,0.8,0.8,0.2,0.6,0.4,0.8,0.2,,,1.866704,,0.8,0.2,0.2,0.8,0.4,0.6,0.6,0.4,1,0
,,5dd6023dcaee3e5b7ba7a5bc,66fc98d33270de5129c403ab,2024-10-02_00h55.00.068,mdp,2024.2.1,Win32,14.99970001,66fa4ebf79326e780c390304,,,,,,,,,,,,,,,,,,,,,779.148916,779.148916,779.165583,780.0156,0,0,left,0.316673,,780.0156,781.048954,0,1,left,781.065621,782.165643,1,0,right,1,782.165643,782.165643,782.165643,783.699007,0,21,21,21,1,0.8,0.2,0.2,0.8,,,,,,,,,,,,,,,0.483343,,0.2,0.8,0.8,0.2,0.6,0.4,0.8,0.2,,,0.550011,,0.8,0.2,0.2,0.8,0.4,0.6,0.6,0.4,1,0
,,5dd6023dcaee3e5b7ba7a5bc,66fc98d33270de5129c403ab,2024-10-02_00h55.00.068,mdp,2024.2.1,Win32,14.99970001,66fa4ebf79326e780c390304,,,,,,,,,,,,,,,,,,,,,783.699007,783.699007,783.699007,784.532357,0,0,left,0.266672,,784.532357,785.532377,0,1,left,785.532377,786.782402,1,1,right,0,786.782402,786.782402,786.782402,788.282432,0,22,22,22,1,0.8,0.2,0.2,0.8,,,,,,,,,,,,,,,0.466676,,0.2,0.8,0.8,0.2,0.6,0.4,0.8,0.2,,,0.683347,,0.8,0.2,0.2,0.8,0.4,0.6,0.6,0.4,1,0
,,5dd6023dcaee3e5b7ba7a5bc,66fc98d33270de5129c403ab,2024-10-02_00h55.00.068,mdp,2024.2.1,Win32,14.99970001,66fa4ebf79326e780c390304,,,,,,,,,,,,,,,,,,,,,788.282432,788.282432,788.282432,789.132449,0,0,left,0.266672,,789.132449,790.18247,0,1,left,790.199137,791.365827,1,0,right,1,791.365827,791.365827,791.382494,792.899191,0,23,23,23,1,0.8,0.2,0.2,0.8,,,,,,,,,,,,,,,0.483343,,0.2,0.8,0.8,0.2,0.6,0.4,0.8,0.2,,,0.650013,,0.8,0.2,0.2,0.8,0.4,0.6,0.6,0.4,1,0
,,5dd6023dcaee3e5b7ba7a5bc,66fc98d33270de5129c403ab,2024-10-02_00h55.00.068,mdp,2024.2.1,Win32,14.99970001,66fa4ebf79326e780c390304,,,,,,,,,,,,,,,,,,,,,792.915858,792.915858,792.915858,793.699207,0,0,left,0.216671,,793.699207,794.765895,0,1,left,794.782562,796.065921,1,0,right,1,796.065921,796.065921,796.065921,797.51595,0,24,24,24,1,0.8,0.2,0.2,0.8,,,,,,,,,,,,,,,0.550011,,0.2,0.8,0.8,0.2,0.6,0.4,0.8,0.2,,,0.750015,,0.8,0.2,0.2,0.8,0.4,0.6,0.6,0.4,1,0
,,5dd6023dcaee3e5b7ba7a5bc,66fc98d33270de5129c403ab,2024-10-02_00h55.00.068,mdp,2024.2.1,Win32,14.99970001,66fa4ebf79326e780c390304,,,,,,,,,,,,,,,,,,,,,797.51595,797.51595,797.532617,798.532637,0,0,left,0.450009,,798.532637,799.582658,0,1,left,799.615992,800.68268,1,1,right,0,800.68268,800.68268,800.699347,802.199377,0,25,25,25,1,0.8,0.2,0.2,0.8,,,,,,,,,,,,,,,0.483343,,0.2,0.8,0.8,0.2,0.8,0.2,0.2,0.8,,,0.516677,,0.8,0.2,0.2,0.8,0.4,0.6,0.6,0.4,1,0
,,5dd6023dcaee3e5b7ba7a5bc,66fc98d33270de5129c403ab,2024-10-02_00h55.00.068,mdp,2024.2.1,Win32,14.99970001,66fa4ebf79326e780c390304,,,,,,,,,,,,,,,,,,,,,802.199377,802.199377,802.199377,803.099395,0,0,left,0.366674,,803.099395,804.132749,0,1,left,804.132749,805.466109,1,1,right,0,805.466109,805.466109,805.466109,806.949472,0,26,26,26,1,0.8,0.2,0.2,0.8,,,,,,,,,,,,,,,0.50001,,0.2,0.8,0.8,0.2,0.8,0.2,0.2,0.8,,,0.783349,,0.8,0.2,0.2,0.8,0.4,0.6,0.6,0.4,1,0
,,5dd6023dcaee3e5b7ba7a5bc,66fc98d33270de5129c403ab,2024-10-02_00h55.00.068,mdp,2024.2.1,Win32,14.99970001,66fa4ebf79326e780c390304,,,,,,,,,,,,,,,,,,,,,806.949472,806.949472,806.949472,807.966159,0,0,left,0.466676,,807.966159,808.882844,0,1,left,808.899511,809.882864,1,0,right,1,809.882864,809.882864,809.882864,811.382894,0,27,27,27,1,0.4,0.6,0.6,0.4,,,,,,,,,,,,,,,0.33334,,0.2,0.8,0.8,0.2,0.8,0.2,0.2,0.8,,,0.466676,,0.8,0.2,0.2,0.8,0.4,0.6,0.6,0.4,1,0
,,5dd6023dcaee3e5b7ba7a5bc,66fc98d33270de5129c403ab,2024-10-02_00h55.00.068,mdp,2024.2.1,Win32,14.99970001,66fa4ebf79326e780c390304,,,,,,,,,,,,,,,,,,,,,811.382894,811.382894,811.382894,812.166243,0,1,left,0.250005,,812.18291,813.199597,0,0,left,813.199597,814.316286,1,0,right,1,814.316286,814.316286,814.316286,815.816316,0,28,28,28,1,0.4,0.6,0.6,0.4,,,,,,,,,,,,,,,0.450009,,0.2,0.8,0.8,0.2,0.8,0.2,0.2,0.8,,,0.566678,,0.8,0.2,0.2,0.8,0.4,0.6,0.6,0.4,1,0
,,5dd6023dcaee3e5b7ba7a5bc,66fc98d33270de5129c403ab,2024-10-02_00h55.00.068,mdp,2024.2.1,Win32,14.99970001,66fa4ebf79326e780c390304,,,,,,,,,,,,,,,,,,,,,815.816316,815.816316,815.816316,816.666333,0,1,left,0.266672,,816.666333,817.616352,0,0,left,817.616352,818.699707,1,1,right,0,818.699707,818.699707,818.699707,820.216404,0,29,29,29,1,0.4,0.6,0.6,0.4,,,,,,,,,,,,,,,0.400008,,0.2,0.8,0.8,0.2,0.8,0.2,0.2,0.8,,,0.533344,,0.8,0.2,0.2,0.8,0.4,0.6,0.6,0.4,1,0
,,5dd6023dcaee3e5b7ba7a5bc,66fc98d33270de5129c403ab,2024-10-02_00h55.00.068,mdp,2024.2.1,Win32,14.99970001,66fa4ebf79326e780c390304,,,,,,,,,,,,,,,,,,,,,820.216404,820.216404,820.216404,820.933085,0,1,left,0.16667,,820.933085,821.966439,0,0,left,821.966439,823.033127,1,0,right,1,823.033127,823.033127,823.033127,824.533157,0,30,30,30,1,0.4,0.6,0.6,0.4,,,,,,,,,,,,,,,0.483343,,0.2,0.8,0.8,0.2,0.8,0.2,0.2,0.8,,,0.483343,,0.8,0.2,0.2,0.8,0.4,0.6,0.6,0.4,1,0
,,5dd6023dcaee3e5b7ba7a5bc,66fc98d33270de5129c403ab,2024-10-02_00h55.00.068,mdp,2024.2.1,Win32,14.99970001,66fa4ebf79326e780c390304,,,,,,,,,,,,,,,,,,,,,824.533157,824.533157,824.533157,825.383174,0,0,left,0.283339,,825.399841,826.366527,0,1,left,826.383194,827.599885,1,0,right,1,827.599885,827.599885,827.599885,829.133249,0,31,31,31,1,0.4,0.6,0.6,0.4,,,,,,,,,,,,,,,0.400008,,0.2,0.8,0.8,0.2,0.8,0.2,0.2,0.8,,,0.66668,,0.8,0.2,0.2,0.8,0.4,0.6,0.6,0.4,1,0
,,5dd6023dcaee3e5b7ba7a5bc,66fc98d33270de5129c403ab,2024-10-02_00h55.00.068,mdp,2024.2.1,Win32,14.99970001,66fa4ebf79326e780c390304,,,,,,,,,,,,,,,,,,,,,829.133249,829.133249,829.133249,829.816596,0,1,left,0.133336,,829.816596,830.866617,0,1,left,830.866617,832.033307,1,1,right,0,832.033307,832.033307,832.033307,833.533337,0,32,32,32,1,0.4,0.6,0.6,0.4,,,,,,,,,,,,,,,0.466676,,0.2,0.8,0.8,0.2,0.8,0.2,0.2,0.8,,,0.600012,,0.8,0.2,0.2,0.8,0.4,0.6,0.6,0.4,1,0
,,5dd6023dcaee3e5b7ba7a5bc,66fc98d33270de5129c403ab,2024-10-02_00h55.00.068,mdp,2024.2.1,Win32,14.99970001,66fa4ebf79326e780c390304,,,,,,,,,,,,,,,,,,,,,833.533337,833.533337,833.533337,834.400021,0,1,left,0.316673,,834.416688,835.383374,0,0,left,835.400041,836.533397,1,0,right,1,836.533397,836.533397,836.533397,838.033427,0,33,33,33,1,0.4,0.6,0.6,0.4,,,,,,,,,,,,,,,0.450009,,0.2,0.8,0.8,0.2,0.8,0.2,0.2,0.8,,,0.600012,,0.4,0.6,0.4,0.6,0.4,0.6,0.6,0.4,1,0
,,5dd6023dcaee3e5b7ba7a5bc,66fc98d33270de5129c403ab,2024-10-02_00h55.00.068,mdp,2024.2.1,Win32,14.99970001,66fa4ebf79326e780c390304,,,,,,,,,,,,,,,,,,,,,838.033427,838.033427,838.033427,838.966779,0,1,left,0.383341,,839.000113,839.950132,0,0,left,839.966799,840.983486,1,1,right,0,841.000153,841.000153,841.01682,842.483516,0,34,34,34,1,0.4,0.6,0.6,0.4,,,,,,,,,,,,,,,0.433342,,0.2,0.8,0.8,0.2,0.8,0.2,0.2,0.8,,,0.50001,,0.4,0.6,0.4,0.6,0.4,0.6,0.6,0.4,1,0
,,5dd6023dcaee3e5b7ba7a5bc,66fc98d33270de5129c403ab,2024-10-02_00h55.00.068,mdp,2024.2.1,Win32,14.99970001,66fa4ebf79326e780c390304,,,,,,,,,,,,,,,,,,,,,842.483516,842.483516,842.483516,843.3502,0,0,left,0.316673,,843.3502,844.316886,0,1,left,844.316886,845.400241,1,0,right,1,845.400241,845.400241,845.400241,846.916938,0,35,35,35,1,0.4,0.6,0.6,0.4,,,,,,,,,,,,,,,0.400008,,0.2,0.8,0.8,0.2,0.8,0.2,0.2,0.8,,,0.533344,,0.4,0.6,0.4,0.6,0.4,0.6,0.6,0.4,1,0
,,5dd6023dcaee3e5b7ba7a5bc,66fc98d33270de5129c403ab,2024-10-02_00h55.00.068,mdp,2024.2.1,Win32,14.99970001,66fa4ebf79326e780c390304,,,,,,,,,,,,,,,,,,,,,846.916938,846.916938,846.933605,847.800289,0,1,left,0.350007,,847.800289,848.833643,0,0,left,848.85031,849.883664,1,1,right,0,849.883664,849.883664,849.900331,851.367027,0,36,36,36,1,0.4,0.6,0.6,0.4,,,,,,,,,,,,,,,0.483343,,0.2,0.8,0.8,0.2,0.8,0.2,0.2,0.8,,,0.483343,,0.4,0.6,0.4,0.6,0.4,0.6,0.6,0.4,1,0
,,5dd6023dcaee3e5b7ba7a5bc,66fc98d33270de5129c403ab,2024-10-02_00h55.00.068,mdp,2024.2.1,Win32,14.99970001,66fa4ebf79326e780c390304,,,,,,,,,,,,,,,,,,,,,851.367027,851.367027,851.383694,852.217044,0,1,left,0.266672,,852.217044,853.233731,0,0,left,853.250398,854.333753,1,0,right,1,854.333753,854.333753,854.333753,855.833783,0,37,37,37,1,0.4,0.6,0.6,0.4,,,,,,,,,,,,,,,0.433342,,0.2,0.8,0.8,0.2,0.8,0.2,0.2,0.8,,,0.550011,,0.6,0.4,0.8,0.2,0.4,0.6,0.6,0.4,1,0
,,5dd6023dcaee3e5b7ba7a5bc,66fc98d33270de5129c403ab,2024-10-02_00h55.00.068,mdp,2024.2.1,Win32,14.99970001,66fa4ebf79326e780c390304,,,,,,,,,,,,,,,,,,,,,855.85045,855.85045,855.85045,856.600465,0,1,left,0.16667,,856.600465,857.633819,0,0,left,857.633819,858.800509,1,0,right,1,858.800509,858.800509,858.800509,860.267205,0,38,38,38,1,0.4,0.6,0.6,0.4,,,,,,,,,,,,,,,0.466676,,0.2,0.8,0.8,0.2,0.8,0.2,0.2,0.8,,,0.566678,,0.6,0.4,0.8,0.2,0.4,0.6,0.6,0.4,1,0
,,5dd6023dcaee3e5b7ba7a5bc,66fc98d33270de5129c403ab,2024-10-02_00h55.00.068,mdp,2024.2.1,Win32,14.99970001,66fa4ebf79326e780c390304,,,,,,,,,,,,,,,,,,,,,860.267205,860.267205,860.267205,861.133889,0,1,left,0.33334,,861.133889,862.150576,0,0,left,862.167243,863.233931,1,0,right,1,863.233931,863.233931,863.250598,864.733961,0,39,39,39,1,0.4,0.6,0.6,0.4,,,,,,,,,,,,,,,0.483343,,0.2,0.8,0.8,0.2,0.8,0.2,0.2,0.8,,,0.533344,,0.6,0.4,0.8,0.2,0.4,0.6,0.6,0.4,1,0
,,5dd6023dcaee3e5b7ba7a5bc,66fc98d33270de5129c403ab,2024-10-02_00h55.00.068,mdp,2024.2.1,Win32,14.99970001,66fa4ebf79326e780c390304,,,,,,,,,,,,,,,,,,,,,864.750628,864.750628,864.767295,865.600645,0,0,left,0.300006,,865.600645,866.533997,0,1,left,866.533997,867.600685,1,1,right,0,867.600685,867.600685,867.600685,869.084048,0,40,40,40,1,0.4,0.6,0.6,0.4,,,,,,,,,,,,,,,0.383341,,0.2,0.8,0.8,0.2,0.8,0.2,0.2,0.8,,,0.516677,,0.6,0.4,0.8,0.2,0.4,0.6,0.6,0.4,1,0
,,5dd6023dcaee3e5b7ba7a5bc,66fc98d33270de5129c403ab,2024-10-02_00h55.00.068,mdp,2024.2.1,Win32,14.99970001,66fa4ebf79326e780c390304,,,,,,,,,,,,,,,,,,,,,869.084048,869.084048,869.084048,869.900731,0,1,left,0.283339,,869.900731,871.067421,0,0,left,871.067421,872.484116,1,0,right,1,872.500783,872.500783,872.500783,874.01748,0,41,41,41,1,0.4,0.6,0.6,0.4,,,,,,,,,,,,,,,0.616679,,0.2,0.8,0.8,0.2,0.8,0.2,0.2,0.8,,,0.866684,,0.6,0.4,0.8,0.2,0.4,0.6,0.6,0.4,1,0
,,5dd6023dcaee3e5b7ba7a5bc,66fc98d33270de5129c403ab,2024-10-02_00h55.00.068,mdp,2024.2.1,Win32,14.99970001,66fa4ebf79326e780c390304,,,,,,,,,,,,,,,,,,,,,874.034147,874.034147,874.034147,874.784162,0,0,left,0.216671,,874.800829,875.85085,0,1,left,875.85085,876.934205,1,0,right,1,876.934205,876.934205,876.934205,878.384234,0,42,42,42,1,0.4,0.6,0.6,0.4,,,,,,,,,,,,,,,0.516677,,0.2,0.8,0.8,0.2,0.8,0.2,0.2,0.8,,,0.516677,,0.6,0.4,0.8,0.2,0.2,0.8,0.2,0.8,1,0
,,5dd6023dcaee3e5b7ba7a5bc,66fc98d33270de5129c403ab,2024-10-02_00h55.00.068,mdp,2024.2.1,Win32,14.99970001,66fa4ebf79326e780c390304,,,,,,,,,,,,,,,,,,,,,878.384234,878.384234,878.384234,879.300919,0,1,left,0.383341,,879.300919,880.334273,0,0,left,880.334273,881.317626,1,0,right,1,881.317626,881.317626,881.317626,882.817656,0,43,43,43,1,0.4,0.6,0.6,0.4,,,,,,,,,,,,,,,0.483343,,0.2,0.8,0.8,0.2,0.8,0.2,0.2,0.8,,,0.400008,,0.6,0.4,0.8,0.2,0.2,0.8,0.2,0.8,1,0
,,5dd6023dcaee3e5b7ba7a5bc,66fc98d33270de5129c403ab,2024-10-02_00h55.00.068,mdp,2024.2.1,Win32,14.99970001,66fa4ebf79326e780c390304,,,,,,,,,,,,,,,,,,,,,882.817656,882.817656,882.817656,883.384334,0,1,left,0,,883.384334,884.501023,0,1,left,884.501023,885.501043,1,1,right,0,885.501043,885.501043,885.501043,886.967739,0,44,44,44,1,0.4,0.6,0.6,0.4,,,,,,,,,,,,,,,0.550011,,0.2,0.8,0.8,0.2,0.8,0.2,0.2,0.8,,,0.433342,,0.6,0.4,0.8,0.2,0.2,0.8,0.2,0.8,1,0
,,5dd6023dcaee3e5b7ba7a5bc,66fc98d33270de5129c403ab,2024-10-02_00h55.00.068,mdp,2024.2.1,Win32,14.99970001,66fa4ebf79326e780c390304,,,,,,,,,,,,,,,,,,,,,886.967739,886.967739,886.967739,887.817756,0,1,left,0.316673,,887.817756,888.917778,0,0,left,888.917778,890.051134,1,0,right,1,890.051134,890.051134,890.084468,891.501163,0,45,45,45,1,0.4,0.6,0.6,0.4,,,,,,,,,,,,,,,0.550011,,0.2,0.8,0.8,0.2,0.8,0.2,0.2,0.8,,,0.583345,,0.6,0.4,0.8,0.2,0.4,0.6,0.8,0.2,1,0
,,5dd6023dcaee3e5b7ba7a5bc,66fc98d33270de5129c403ab,2024-10-02_00h55.00.068,mdp,2024.2.1,Win32,14.99970001,66fa4ebf79326e780c390304,,,,,,,,,,,,,,,,,,,,,891.51783,891.51783,891.51783,892.317846,0,1,left,0.216671,,892.334513,893.367867,0,0,left,893.384534,894.317886,1,0,right,1,894.317886,894.317886,894.317886,895.784582,0,46,46,46,1,0.4,0.6,0.6,0.4,,,,,,,,,,,,,,,0.50001,,0.2,0.8,0.8,0.2,0.8,0.2,0.2,0.8,,,0.416675,,0.6,0.4,0.8,0.2,0.4,0.6,0.8,0.2,1,0
,,5dd6023dcaee3e5b7ba7a5bc,66fc98d33270de5129c403ab,2024-10-02_00h55.00.068,mdp,2024.2.1,Win32,14.99970001,66fa4ebf79326e780c390304,,,,,,,,,,,,,,,,,,,,,895.784582,895.784582,895.784582,896.551264,0,1,left,0.216671,,896.567931,897.634619,0,0,left,897.651286,898.701307,1,1,right,0,898.701307,898.701307,898.701307,900.18467,0,47,47,47,1,0.4,0.6,0.6,0.4,,,,,,,,,,,,,,,0.533344,,0.2,0.8,0.8,0.2,0.8,0.2,0.2,0.8,,,0.516677,,0.6,0.4,0.8,0.2,0.4,0.6,0.8,0.2,1,0
,,5dd6023dcaee3e5b7ba7a5bc,66fc98d33270de5129c403ab,2024-10-02_00h55.00.068,mdp,2024.2.1,Win32,14.99970001,66fa4ebf79326e780c390304,,,,,,,,,,,,,,,,,,,,,900.201337,900.201337,900.201337,900.734681,0,1,left,0,,900.734681,901.718034,0,1,left,901.734701,902.934725,1,0,right,1,902.934725,902.934725,902.934725,904.434755,0,48,48,48,1,0.4,0.6,0.6,0.4,,,,,,,,,,,,,,,0.433342,,0.2,0.8,0.8,0.2,0.8,0.2,0.2,0.8,,,0.66668,,0.6,0.4,0.8,0.2,0.4,0.6,0.8,0.2,1,0
,,5dd6023dcaee3e5b7ba7a5bc,66fc98d33270de5129c403ab,2024-10-02_00h55.00.068,mdp,2024.2.1,Win32,14.99970001,66fa4ebf79326e780c390304,,,,,,,,,,,,,,,,,,,,,904.434755,904.434755,904.434755,905.118102,0,0,left,0.150003,,905.118102,906.118122,0,0,left,906.134789,907.201477,1,0,right,1,907.201477,907.201477,907.201477,908.668173,0,49,49,49,1,0.4,0.6,0.6,0.4,,,,,,,,,,,,,,,0.433342,,0.6,0.4,0.4,0.6,0.8,0.2,0.2,0.8,,,0.516677,,0.6,0.4,0.8,0.2,0.4,0.6,0.8,0.2,1,0
,,5dd6023dcaee3e5b7ba7a5bc,66fc98d33270de5129c403ab,2024-10-02_00h55.00.068,mdp,2024.2.1,Win32,14.99970001,66fa4ebf79326e780c390304,,,,,,,,,,,,,,,,,,,,,,,,,,,,,,,,,,,,,,,,,,,,,,,,,,,,,,,,908.668173,967.202677,0,2,2,6,1,imgs/dog.png,imgs/cat.png,imgs/kangaroo.png,imgs/bear.png,imgs/pig.png,,,,,,,,,,,,,,,,,,,,,,,,
,,5dd6023dcaee3e5b7ba7a5bc,66fc98d33270de5129c403ab,2024-10-02_00h55.00.068,mdp,2024.2.1,Win32,14.99970001,66fa4ebf79326e780c390304,,,,,,,,,,,,,,3,seqs/st3seq0.csv,967.219344,972.952792,space,5.183437,,973.002793,973.002793,973.036127,974.986166,0,1,left,1.433362,,975.002833,976.052854,0,1,left,976.052854,977.119542,0,1,left,0,977.119542,977.119542,977.136209,978.602905,0,0,0,0,1,0.2,0.8,0.8,0.2,,,,,,,,,,,,,,,0.483343,,0.6,0.4,0.4,0.6,0.2,0.8,0.6,0.4,,,0.50001,,0.8,0.2,0.2,0.8,0.4,0.6,0.2,0.8,1,0
,,5dd6023dcaee3e5b7ba7a5bc,66fc98d33270de5129c403ab,2024-10-02_00h55.00.068,mdp,2024.2.1,Win32,14.99970001,66fa4ebf79326e780c390304,,,,,,,,,,,,,,,,,,,,,978.602905,978.602905,978.619572,980.036267,0,1,left,0.883351,,980.052934,981.236291,0,0,left,981.252958,982.319646,0,0,left,1,982.319646,982.319646,982.336313,983.786342,0,1,1,1,1,0.2,0.8,0.8,0.2,,,,,,,,,,,,,,,0.650013,,0.6,0.4,0.4,0.6,0.2,0.8,0.6,0.4,,,0.516677,,0.8,0.2,0.2,0.8,0.4,0.6,0.2,0.8,1,0
,,5dd6023dcaee3e5b7ba7a5bc,66fc98d33270de5129c403ab,2024-10-02_00h55.00.068,mdp,2024.2.1,Win32,14.99970001,66fa4ebf79326e780c390304,,,,,,,,,,,,,,,,,,,,,983.786342,983.803009,983.803009,984.719694,0,1,left,0.350007,,984.719694,985.703047,0,1,left,985.719714,986.869737,0,0,left,1,986.869737,986.869737,986.886404,988.336433,0,2,2,2,1,0.2,0.8,0.8,0.2,,,,,,,,,,,,,,,0.433342,,0.6,0.4,0.4,0.6,0.2,0.8,0.6,0.4,,,0.616679,,0.8,0.2,0.2,0.8,0.4,0.6,0.2,0.8,1,0
,,5dd6023dcaee3e5b7ba7a5bc,66fc98d33270de5129c403ab,2024-10-02_00h55.00.068,mdp,2024.2.1,Win32,14.99970001,66fa4ebf79326e780c390304,,,,,,,,,,,,,,,,,,,,,988.336433,988.336433,988.336433,989.136449,0,0,left,0.283339,,989.136449,990.219804,0,1,left,990.236471,991.253158,0,1,left,0,991.253158,991.253158,991.253158,992.719854,0,3,3,3,1,0.2,0.8,0.8,0.2,,,,,,,,,,,,,,,0.516677,,0.2,0.8,0.8,0.2,0.2,0.8,0.6,0.4,,,0.483343,,0.8,0.2,0.2,0.8,0.4,0.6,0.2,0.8,1,0
,,5dd6023dcaee3e5b7ba7a5bc,66fc98d33270de5129c403ab,2024-10-02_00h55.00.068,mdp,2024.2.1,Win32,14.99970001,66fa4ebf79326e780c390304,,,,,,,,,,,,,,,,,,,,,992.719854,992.719854,992.736521,993.636539,0,1,left,0.33334,,993.636539,994.619892,0,1,left,994.636559,995.553244,0,1,left,0,995.553244,995.553244,995.569911,997.036607,0,4,4,4,1,0.2,0.8,0.8,0.2,,,,,,,,,,,,,,,0.433342,,0.2,0.8,0.8,0.2,0.2,0.8,0.6,0.4,,,0.366674,,0.8,0.2,0.2,0.8,0.4,0.6,0.2,0.8,1,0
,,5dd6023dcaee3e5b7ba7a5bc,66fc98d33270de5129c403ab,2024-10-02_00h55.00.068,mdp,2024.2.1,Win32,14.99970001,66fa4ebf79326e780c390304,,,,,,,,,,,,,,,,,,,,,997.036607,997.036607,997.036607,997.919958,0,1,left,0.316673,,997.919958,998.919978,0,1,left,998.919978,999.903331,0,1,left,0,999.919998,999.919998,999.919998,1001.436695,0,5,5,5,1,0.2,0.8,0.8,0.2,,,,,,,,,,,,,,,0.450009,,0.2,0.8,0.8,0.2,0.2,0.8,0.6,0.4,,,0.416675,,0.8,0.2,0.2,0.8,0.4,0.6,0.2,0.8,1,0
,,5dd6023dcaee3e5b7ba7a5bc,66fc98d33270de5129c403ab,2024-10-02_00h55.00.068,mdp,2024.2.1,Win32,14.99970001,66fa4ebf79326e780c390304,,,,,,,,,,,,,,,,,,,,,1001.436695,1001.436695,1001.436695,1002.303379,0,1,left,0.316673,,1002.303379,1003.336733,0,0,left,1003.336733,1004.453422,1,0,right,1,1004.453422,1004.453422,1004.453422,1005.920118,0,6,6,6,1,0.2,0.8,0.8,0.2,,,,,,,,,,,,,,,0.50001,,0.2,0.8,0.8,0.2,0.2,0.8,0.6,0.4,,,0.533344,,0.8,0.2,0.2,0.8,0.4,0.6,0.2,0.8,1,0
,,5dd6023dcaee3e5b7ba7a5bc,66fc98d33270de5129c403ab,2024-10-02_00h55.00.068,mdp,2024.2.1,Win32,14.99970001,66fa4ebf79326e780c390304,,,,,,,,,,,,,,,,,,,,,1005.920118,1005.920118,1005.936785,1006.836803,0,1,left,0.350007,,1006.85347,1007.820156,0,1,left,1007.820156,1008.85351,1,1,right,0,1008.85351,1008.85351,1008.870177,1010.320206,0,7,7,7,1,0.2,0.8,0.8,0.2,,,,,,,,,,,,,,,0.383341,,0.2,0.8,0.8,0.2,0.2,0.8,0.6,0.4,,,0.450009,,0.8,0.2,0.2,0.8,0.4,0.6,0.2,0.8,1,0
,,5dd6023dcaee3e5b7ba7a5bc,66fc98d33270de5129c403ab,2024-10-02_00h55.00.068,mdp,2024.2.1,Win32,14.99970001,66fa4ebf79326e780c390304,,,,,,,,,,,,,,,,,,,,,1010.336873,1010.336873,1010.35354,1011.236891,0,1,left,0.316673,,1011.253558,1012.253578,0,1,left,1012.253578,1013.320266,1,1,right,0,1013.336933,1013.336933,1013.336933,1014.820296,0,8,8,8,1,0.2,0.8,0.8,0.2,,,,,,,,,,,,,,,0.433342,,0.6,0.4,0.2,0.8,0.2,0.8,0.6,0.4,,,0.50001,,0.8,0.2,0.2,0.8,0.4,0.6,0.2,0.8,1,0
,,5dd6023dcaee3e5b7ba7a5bc,66fc98d33270de5129c403ab,2024-10-02_00h55.00.068,mdp,2024.2.1,Win32,14.99970001,66fa4ebf79326e780c390304,,,,,,,,,,,,,,,,,,,,,1014.820296,1014.820296,1014.820296,1015.636979,0,1,left,0.233338,,1015.636979,1016.687,0,1,left,1016.687,1017.787022,1,1,right,0,1017.787022,1017.787022,1017.787022,1019.270385,0,9,9,9,1,0.2,0.8,0.8,0.2,,,,,,,,,,,,,,,0.516677,,0.6,0.4,0.2,0.8,0.2,0.8,0.6,0.4,,,0.516677,,0.8,0.2,0.2,0.8,0.4,0.6,0.2,0.8,1,0
,,5dd6023dcaee3e5b7ba7a5bc,66fc98d33270de5129c403ab,2024-10-02_00h55.00.068,mdp,2024.2.1,Win32,14.99970001,66fa4ebf79326e780c390304,,,,,,,,,,,,,,,,,,,,,1019.287052,1019.287052,1019.287052,1020.370407,0,1,left,0.533344,,1020.370407,1021.403761,0,1,left,1021.420428,1022.553784,0,1,left,0,1022.553784,1022.553784,1022.570451,1024.053814,0,10,10,10,1,0.2,0.8,0.8,0.2,,,,,,,,,,,,,,,0.483343,,0.6,0.4,0.2,0.8,0.2,0.8,0.6,0.4,,,0.600012,,0.8,0.2,0.2,0.8,0.4,0.6,0.2,0.8,1,0
,,5dd6023dcaee3e5b7ba7a5bc,66fc98d33270de5129c403ab,2024-10-02_00h55.00.068,mdp,2024.2.1,Win32,14.99970001,66fa4ebf79326e780c390304,,,,,,,,,,,,,,,,,,,,,1024.053814,1024.053814,1024.053814,1028.553904,1,0,right,3.933412,,1028.553904,1029.637259,1,1,right,1029.637259,1030.620612,1,0,right,1,1030.620612,1030.620612,1030.620612,1032.103975,0,11,11,11,1,0.4,0.6,0.6,0.4,,,,,,,,,,,,,,,0.533344,,0.6,0.4,0.2,0.8,0.2,0.8,0.6,0.4,,,0.450009,,0.8,0.2,0.2,0.8,0.4,0.6,0.2,0.8,1,0
,,5dd6023dcaee3e5b7ba7a5bc,66fc98d33270de5129c403ab,2024-10-02_00h55.00.068,mdp,2024.2.1,Win32,14.99970001,66fa4ebf79326e780c390304,,,,,,,,,,,,,,,,,,,,,1032.103975,1032.103975,1032.120642,1032.920658,1,0,right,0.283339,,1032.920658,1033.920678,1,1,right,1033.920678,1035.0207,1,1,right,0,1035.0207,1035.0207,1035.037367,1036.504063,0,12,12,12,1,0.4,0.6,0.6,0.4,,,,,,,,,,,,,,,0.450009,,0.6,0.4,0.2,0.8,0.2,0.8,0.6,0.4,,,0.566678,,0.8,0.2,0.2,0.8,0.4,0.6,0.2,0.8,1,0
,,5dd6023dcaee3e5b7ba7a5bc,66fc98d33270de5129c403ab,2024-10-02_00h55.00.068,mdp,2024.2.1,Win32,14.99970001,66fa4ebf79326e780c390304,,,,,,,,,,,,,,,,,,,,,1036.504063,1036.504063,1036.504063,1037.237411,1,0,right,0.183337,,1037.237411,1038.220764,1,0,right,1038.220764,1039.254118,1,1,right,0,1039.337453,1039.337453,1039.337453,1040.820816,0,13,13,13,1,0.2,0.8,0.8,0.2,,,,,,,,,,,,,,,0.433342,,0.6,0.4,0.2,0.8,0.2,0.8,0.6,0.4,,,0.466676,,0.8,0.2,0.2,0.8,0.4,0.6,0.2,0.8,1,0
,,5dd6023dcaee3e5b7ba7a5bc,66fc98d33270de5129c403ab,2024-10-02_00h55.00.068,mdp,2024.2.1,Win32,14.99970001,66fa4ebf79326e780c390304,,,,,,,,,,,,,,,,,,,,,1040.837483,1040.837483,1040.837483,1041.670833,1,1,right,0.283339,,1041.6875,1042.737521,1,0,right,1042.737521,1044.470889,1,1,right,0,1044.470889,1044.470889,1044.487556,1046.004253,0,14,14,14,1,0.2,0.8,0.8,0.2,,,,,,,,,,,,,,,0.466676,,0.6,0.4,0.2,0.8,0.2,0.8,0.6,0.4,,,1.150023,,0.8,0.2,0.2,0.8,0.4,0.6,0.2,0.8,1,0
,,5dd6023dcaee3e5b7ba7a5bc,66fc98d33270de5129c403ab,2024-10-02_00h55.00.068,mdp,2024.2.1,Win32,14.99970001,66fa4ebf79326e780c390304,,,,,,,,,,,,,,,,,,,,,1046.004253,1046.004253,1046.004253,1046.837603,1,0,right,0.316673,,1046.837603,1047.904291,1,0,right,1047.904291,1048.937645,0,0,left,1,1048.937645,1048.937645,1048.954312,1050.437675,0,15,15,15,1,0.2,0.8,0.8,0.2,,,,,,,,,,,,,,,0.483343,,0.6,0.4,0.2,0.8,0.2,0.8,0.6,0.4,,,0.50001,,0.8,0.2,0.2,0.8,0.4,0.6,0.2,0.8,1,0
,,5dd6023dcaee3e5b7ba7a5bc,66fc98d33270de5129c403ab,2024-10-02_00h55.00.068,mdp,2024.2.1,Win32,14.99970001,66fa4ebf79326e780c390304,,,,,,,,,,,,,,,,,,,,,1050.437675,1050.437675,1050.454342,1051.254358,1,0,right,0.266672,,1051.254358,1052.304379,1,1,right,1052.304379,1053.454402,0,1,left,0,1053.454402,1053.454402,1053.454402,1054.971099,0,16,16,16,1,0.2,0.8,0.8,0.2,,,,,,,,,,,,,,,0.50001,,0.6,0.4,0.2,0.8,0.2,0.8,0.6,0.4,,,0.566678,,0.8,0.2,0.2,0.8,0.4,0.6,0.2,0.8,1,0
,,5dd6023dcaee3e5b7ba7a5bc,66fc98d33270de5129c403ab,2024-10-02_00h55.00.068,mdp,2024.2.1,Win32,14.99970001,66fa4ebf79326e780c390304,,,,,,,,,,,,,,,,,,,,,1054.971099,1054.971099,1054.987766,1055.904451,1,0,right,0.366674,,1055.904451,1056.887804,1,1,right,1056.887804,1057.921158,0,0,left,1,1057.921158,1057.921158,1057.937825,1059.421188,0,17,17,17,1,0.2,0.8,0.8,0.2,,,,,,,,,,,,,,,0.433342,,0.6,0.4,0.2,0.8,0.4,0.6,0.2,0.8,,,0.466676,,0.8,0.2,0.2,0.8,0.4,0.6,0.2,0.8,1,0
,,5dd6023dcaee3e5b7ba7a5bc,66fc98d33270de5129c403ab,2024-10-02_00h55.00.068,mdp,2024.2.1,Win32,14.99970001,66fa4ebf79326e780c390304,,,,,,,,,,,,,,,,,,,,,1059.421188,1059.421188,1059.421188,1060.304539,1,0,right,0.33334,,1060.304539,1061.387894,1,1,right,1061.387894,1062.337913,0,1,left,0,1062.337913,1062.337913,1062.337913,1063.821276,0,18,18,18,1,0.2,0.8,0.8,0.2,,,,,,,,,,,,,,,0.533344,,0.6,0.4,0.2,0.8,0.4,0.6,0.2,0.8,,,0.383341,,0.8,0.2,0.2,0.8,0.4,0.6,0.2,0.8,1,0
,,5dd6023dcaee3e5b7ba7a5bc,66fc98d33270de5129c403ab,2024-10-02_00h55.00.068,mdp,2024.2.1,Win32,14.99970001,66fa4ebf79326e780c390304,,,,,,,,,,,,,,,,,,,,,1063.837943,1063.837943,1063.837943,1064.704627,1,0,right,0.316673,,1064.704627,1065.737981,1,1,right,1065.754648,1066.788002,0,1,left,0,1066.788002,1066.788002,1066.788002,1068.321366,0,19,19,19,1,0.2,0.8,0.8,0.2,,,,,,,,,,,,,,,0.466676,,0.6,0.4,0.2,0.8,0.4,0.6,0.2,0.8,,,0.50001,,0.8,0.2,0.2,0.8,0.6,0.4,0.6,0.4,1,0
,,5dd6023dcaee3e5b7ba7a5bc,66fc98d33270de5129c403ab,2024-10-02_00h55.00.068,mdp,2024.2.1,Win32,14.99970001,66fa4ebf79326e780c390304,,,,,,,,,,,,,,,,,,,,,1068.321366,1068.321366,1068.321366,1069.038047,1,1,right,0.150003,,1069.038047,1070.171403,1,1,right,1070.171403,1071.288092,0,1,left,0,1071.288092,1071.288092,1071.288092,1072.771455,0,20,20,20,1,0.2,0.8,0.8,0.2,,,,,,,,,,,,,,,0.566678,,0.6,0.4,0.2,0.8,0.4,0.6,0.2,0.8,,,0.583345,,0.8,0.2,0.2,0.8,0.6,0.4,0.6,0.4,1,0
,,5dd6023dcaee3e5b7ba7a5bc,66fc98d33270de5129c403ab,2024-10-02_00h55.00.068,mdp,2024.2.1,Win32,14.99970001,66fa4ebf79326e780c390304,,,,,,,,,,,,,,,,,,,,,1072.771455,1072.771455,1072.771455,1075.921518,1,1,right,2.616719,,1075.921518,1077.071541,0,0,left,1077.088208,1078.138229,0,0,left,1,1078.138229,1078.138229,1078.154896,1079.621592,0,21,21,21,1,0.2,0.8,0.8,0.2,,,,,,,,,,,,,,,0.566678,,0.6,0.4,0.2,0.8,0.4,0.6,0.2,0.8,,,0.516677,,0.8,0.2,0.2,0.8,0.6,0.4,0.6,0.4,1,0
,,5dd6023dcaee3e5b7ba7a5bc,66fc98d33270de5129c403ab,2024-10-02_00h55.00.068,mdp,2024.2.1,Win32,14.99970001,66fa4ebf79326e780c390304,,,,,,,,,,,,,,,,,,,,,1079.638259,1079.638259,1079.654926,1080.471609,1,0,right,0.266672,,1080.471609,1081.488296,0,1,left,1081.504963,1082.621652,0,0,left,1,1082.638319,1082.638319,1082.638319,1084.105015,0,22,22,22,1,0.2,0.8,0.8,0.2,,,,,,,,,,,,,,,0.466676,,0.6,0.4,0.2,0.8,0.4,0.6,0.2,0.8,,,0.550011,,0.8,0.2,0.2,0.8,0.6,0.4,0.6,0.4,1,0
,,5dd6023dcaee3e5b7ba7a5bc,66fc98d33270de5129c403ab,2024-10-02_00h55.00.068,mdp,2024.2.1,Win32,14.99970001,66fa4ebf79326e780c390304,,,,,,,,,,,,,,,,,,,,,1084.121682,1084.121682,1084.121682,1085.055034,1,1,right,0.366674,,1085.055034,1086.005053,0,1,left,1086.005053,1087.138409,0,1,left,0,1087.138409,1087.138409,1087.138409,1088.638439,0,23,23,23,1,0.2,0.8,0.8,0.2,,,,,,,,,,,,,,,0.383341,,0.6,0.4,0.2,0.8,0.4,0.6,0.2,0.8,,,0.566678,,0.8,0.2,0.2,0.8,0.6,0.4,0.6,0.4,1,0
,,5dd6023dcaee3e5b7ba7a5bc,66fc98d33270de5129c403ab,2024-10-02_00h55.00.068,mdp,2024.2.1,Win32,14.99970001,66fa4ebf79326e780c390304,,,,,,,,,,,,,,,,,,,,,1088.638439,1088.638439,1088.655106,1089.388454,0,1,left,0.233338,,1089.405121,1090.455142,0,0,left,1090.455142,1091.388494,0,0,left,1,1091.388494,1091.388494,1091.388494,1092.888524,0,24,24,24,1,0.2,0.8,0.8,0.2,,,,,,,,,,,,,,,0.533344,,0.6,0.4,0.2,0.8,0.4,0.6,0.2,0.8,,,0.350007,,0.8,0.2,0.2,0.8,0.6,0.4,0.6,0.4,1,0
,,5dd6023dcaee3e5b7ba7a5bc,66fc98d33270de5129c403ab,2024-10-02_00h55.00.068,mdp,2024.2.1,Win32,14.99970001,66fa4ebf79326e780c390304,,,,,,,,,,,,,,,,,,,,,1092.888524,1092.888524,1092.888524,1093.805209,1,0,right,0.33334,,1093.805209,1094.738561,0,0,left,1094.738561,1095.738581,0,0,left,1,1095.738581,1095.738581,1095.738581,1097.205277,0,25,25,25,1,0.2,0.8,0.8,0.2,,,,,,,,,,,,,,,0.33334,,0.6,0.4,0.2,0.8,0.4,0.6,0.2,0.8,,,0.416675,,0.8,0.2,0.2,0.8,0.6,0.4,0.6,0.4,1,0
,,5dd6023dcaee3e5b7ba7a5bc,66fc98d33270de5129c403ab,2024-10-02_00h55.00.068,mdp,2024.2.1,Win32,14.99970001,66fa4ebf79326e780c390304,,,,,,,,,,,,,,,,,,,,,1097.205277,1097.205277,1097.205277,1098.071961,1,1,right,0.33334,,1098.071961,1099.088648,0,1,left,1099.088648,1100.105335,0,1,left,0,1100.105335,1100.105335,1100.105335,1101.588698,0,26,26,26,1,0.2,0.8,0.8,0.2,,,,,,,,,,,,,,,0.450009,,0.6,0.4,0.2,0.8,0.4,0.6,0.2,0.8,,,0.450009,,0.8,0.2,0.2,0.8,0.6,0.4,0.6,0.4,1,0
,,5dd6023dcaee3e5b7ba7a5bc,66fc98d33270de5129c403ab,2024-10-02_00h55.00.068,mdp,2024.2.1,Win32,14.99970001,66fa4ebf79326e780c390304,,,,,,,,,,,,,,,,,,,,,1101.588698,1101.588698,1101.588698,1102.138709,1,0,right,0,,1102.138709,1103.088728,0,0,left,1103.088728,1103.988746,0,1,left,0,1103.988746,1103.988746,1104.005413,1105.488776,0,27,27,27,1,0.2,0.8,0.8,0.2,,,,,,,,,,,,,,,0.366674,,0.6,0.4,0.2,0.8,0.4,0.6,0.2,0.8,,,0.366674,,0.8,0.2,0.2,0.8,0.6,0.4,0.6,0.4,1,0
,,5dd6023dcaee3e5b7ba7a5bc,66fc98d33270de5129c403ab,2024-10-02_00h55.00.068,mdp,2024.2.1,Win32,14.99970001,66fa4ebf79326e780c390304,,,,,,,,,,,,,,,,,,,,,1105.488776,1105.488776,1105.488776,1106.155456,1,0,right,0.100002,,1106.172123,1107.155476,0,1,left,1107.155476,1108.338833,0,0,left,1,1108.338833,1108.338833,1108.338833,1109.805529,0,28,28,28,1,0.2,0.8,0.8,0.2,,,,,,,,,,,,,,,0.450009,,0.6,0.4,0.2,0.8,0.4,0.6,0.2,0.8,,,0.616679,,0.8,0.2,0.2,0.8,0.6,0.4,0.6,0.4,1,0
,,5dd6023dcaee3e5b7ba7a5bc,66fc98d33270de5129c403ab,2024-10-02_00h55.00.068,mdp,2024.2.1,Win32,14.99970001,66fa4ebf79326e780c390304,,,,,,,,,,,,,,,,,,,,,1109.805529,1109.805529,1109.822196,1110.68888,1,0,right,0.300006,,1110.68888,1111.672233,0,0,left,1111.672233,1112.705587,0,1,left,0,1112.705587,1112.705587,1112.738921,1114.18895,0,29,29,29,1,0.2,0.8,0.8,0.2,,,,,,,,,,,,,,,0.450009,,0.6,0.4,0.2,0.8,0.4,0.6,0.2,0.8,,,0.450009,,0.8,0.2,0.2,0.8,0.6,0.4,0.6,0.4,1,0
,,5dd6023dcaee3e5b7ba7a5bc,66fc98d33270de5129c403ab,2024-10-02_00h55.00.068,mdp,2024.2.1,Win32,14.99970001,66fa4ebf79326e780c390304,,,,,,,,,,,,,,,,,,,,,1114.205617,1114.205617,1114.205617,1115.072301,1,0,right,0.33334,,1115.072301,1116.055654,0,1,left,1116.072321,1117.072341,0,1,left,0,1117.072341,1117.072341,1117.072341,1118.605705,0,30,30,30,1,0.2,0.8,0.8,0.2,,,,,,,,,,,,,,,0.433342,,0.4,0.6,0.8,0.2,0.4,0.6,0.2,0.8,,,0.433342,,0.8,0.2,0.2,0.8,0.6,0.4,0.6,0.4,1,0
,,5dd6023dcaee3e5b7ba7a5bc,66fc98d33270de5129c403ab,2024-10-02_00h55.00.068,mdp,2024.2.1,Win32,14.99970001,66fa4ebf79326e780c390304,,,,,,,,,,,,,,,,,,,,,1118.605705,1118.605705,1118.605705,1119.489056,1,0,right,0.33334,,1119.505723,1120.439075,0,0,left,1120.439075,1121.389094,0,0,left,1,1121.389094,1121.389094,1121.405761,1122.872457,0,31,31,31,1,0.2,0.8,0.8,0.2,,,,,,,,,,,,,,,0.400008,,0.4,0.6,0.8,0.2,0.4,0.6,0.2,0.8,,,0.400008,,0.8,0.2,0.2,0.8,0.6,0.4,0.6,0.4,1,0
,,5dd6023dcaee3e5b7ba7a5bc,66fc98d33270de5129c403ab,2024-10-02_00h55.00.068,mdp,2024.2.1,Win32,14.99970001,66fa4ebf79326e780c390304,,,,,,,,,,,,,,,,,,,,,1122.872457,1122.872457,1122.872457,1123.755808,1,0,right,0.300006,,1123.755808,1124.789162,0,0,left,1124.789162,1125.739181,0,0,left,1,1125.739181,1125.739181,1125.739181,1127.205877,0,32,32,32,1,0.2,0.8,0.8,0.2,,,,,,,,,,,,,,,0.466676,,0.8,0.2,0.6,0.4,0.4,0.6,0.2,0.8,,,0.383341,,0.8,0.2,0.2,0.8,0.6,0.4,0.6,0.4,1,0
,,5dd6023dcaee3e5b7ba7a5bc,66fc98d33270de5129c403ab,2024-10-02_00h55.00.068,mdp,2024.2.1,Win32,14.99970001,66fa4ebf79326e780c390304,,,,,,,,,,,,,,,,,,,,,1127.205877,1127.205877,1127.222544,1128.055894,1,0,right,0.300006,,1128.072561,1128.989246,0,0,left,1129.005913,1129.972599,0,0,left,1,1129.972599,1129.972599,1129.972599,1131.472629,0,33,33,33,1,0.2,0.8,0.8,0.2,,,,,,,,,,,,,,,0.383341,,0.8,0.2,0.6,0.4,0.4,0.6,0.2,0.8,,,0.466676,,0.8,0.2,0.2,0.8,0.6,0.4,0.6,0.4,1,0
,,5dd6023dcaee3e5b7ba7a5bc,66fc98d33270de5129c403ab,2024-10-02_00h55.00.068,mdp,2024.2.1,Win32,14.99970001,66fa4ebf79326e780c390304,,,,,,,,,,,,,,,,,,,,,1131.472629,1131.472629,1131.472629,1132.289312,1,0,right,0.266672,,1132.305979,1133.18933,0,0,left,1133.205997,1134.156016,0,0,left,1,1134.156016,1134.156016,1134.172683,1135.639379,0,34,34,34,1,0.2,0.8,0.8,0.2,,,,,,,,,,,,,,,0.350007,,0.8,0.2,0.6,0.4,0.4,0.6,0.2,0.8,,,0.433342,,0.8,0.2,0.2,0.8,0.6,0.4,0.6,0.4,1,0
,,5dd6023dcaee3e5b7ba7a5bc,66fc98d33270de5129c403ab,2024-10-02_00h55.00.068,mdp,2024.2.1,Win32,14.99970001,66fa4ebf79326e780c390304,,,,,,,,,,,,,,,,,,,,,1135.639379,1135.639379,1135.656046,1136.572731,1,0,right,0.366674,,1136.589398,1137.52275,0,0,left,1137.539417,1138.622772,0,0,left,1,1138.622772,1138.622772,1138.622772,1140.122802,0,35,35,35,1,0.2,0.8,0.8,0.2,,,,,,,,,,,,,,,0.416675,,0.8,0.2,0.6,0.4,0.6,0.4,0.4,0.6,,,0.550011,,0.8,0.2,0.2,0.8,0.6,0.4,0.6,0.4,1,0
,,5dd6023dcaee3e5b7ba7a5bc,66fc98d33270de5129c403ab,2024-10-02_00h55.00.068,mdp,2024.2.1,Win32,14.99970001,66fa4ebf79326e780c390304,,,,,,,,,,,,,,,,,,,,,1140.122802,1140.122802,1140.122802,1140.972819,1,0,right,0.316673,,1141.039487,1142.006173,0,0,left,1142.02284,1143.072861,0,0,left,1,1143.072861,1143.072861,1143.089528,1144.556224,0,36,36,36,1,0.2,0.8,0.8,0.2,,,,,,,,,,,,,,,0.466676,,0.8,0.2,0.6,0.4,0.6,0.4,0.4,0.6,,,0.483343,,0.8,0.2,0.2,0.8,0.6,0.4,0.6,0.4,1,0
,,5dd6023dcaee3e5b7ba7a5bc,66fc98d33270de5129c403ab,2024-10-02_00h55.00.068,mdp,2024.2.1,Win32,14.99970001,66fa4ebf79326e780c390304,,,,,,,,,,,,,,,,,,,,,1144.556224,1144.556224,1144.556224,1145.456242,1,0,right,0.350007,,1145.472909,1146.456262,0,1,left,1146.456262,1147.556284,0,0,left,1,1147.556284,1147.556284,1147.556284,1149.072981,0,37,37,37,1,0.2,0.8,0.8,0.2,,,,,,,,,,,,,,,0.433342,,0.8,0.2,0.6,0.4,0.4,0.6,0.6,0.4,,,0.533344,,0.8,0.2,0.2,0.8,0.6,0.4,0.6,0.4,1,0
,,5dd6023dcaee3e5b7ba7a5bc,66fc98d33270de5129c403ab,2024-10-02_00h55.00.068,mdp,2024.2.1,Win32,14.99970001,66fa4ebf79326e780c390304,,,,,,,,,,,,,,,,,,,,,1149.072981,1149.072981,1149.089648,1149.922998,1,0,right,0.266672,,1149.922998,1150.906351,0,0,left,1150.906351,1152.02304,0,0,left,1,1152.02304,1152.02304,1152.039707,1153.489736,0,38,38,38,1,0.2,0.8,0.8,0.2,,,,,,,,,,,,,,,0.433342,,0.8,0.2,0.6,0.4,0.4,0.6,0.6,0.4,,,0.550011,,0.8,0.2,0.2,0.8,0.6,0.4,0.6,0.4,1,0
,,5dd6023dcaee3e5b7ba7a5bc,66fc98d33270de5129c403ab,2024-10-02_00h55.00.068,mdp,2024.2.1,Win32,14.99970001,66fa4ebf79326e780c390304,,,,,,,,,,,,,,,,,,,,,1153.489736,1153.489736,1153.506403,1154.339753,1,0,right,0.316673,,1154.35642,1155.306439,0,1,left,1155.323106,1156.289792,0,0,left,1,1156.289792,1156.289792,1156.289792,1157.789822,0,39,39,39,1,0.2,0.8,0.8,0.2,,,,,,,,,,,,,,,0.416675,,0.8,0.2,0.6,0.4,0.4,0.6,0.6,0.4,,,0.416675,,0.8,0.2,0.2,0.8,0.6,0.4,0.6,0.4,1,0
,,5dd6023dcaee3e5b7ba7a5bc,66fc98d33270de5129c403ab,2024-10-02_00h55.00.068,mdp,2024.2.1,Win32,14.99970001,66fa4ebf79326e780c390304,,,,,,,,,,,,,,,,,,,,,1157.789822,1157.789822,1157.789822,1158.68984,1,0,right,0.350007,,1158.68984,1159.723194,0,0,left,1159.739861,1160.806549,0,0,left,1,1160.806549,1160.806549,1160.806549,1162.289912,0,40,40,40,1,0.2,0.8,0.8,0.2,,,,,,,,,,,,,,,0.450009,,0.8,0.2,0.6,0.4,0.4,0.6,0.6,0.4,,,0.50001,,0.8,0.2,0.2,0.8,0.6,0.4,0.6,0.4,1,0
,,5dd6023dcaee3e5b7ba7a5bc,66fc98d33270de5129c403ab,2024-10-02_00h55.00.068,mdp,2024.2.1,Win32,14.99970001,66fa4ebf79326e780c390304,,,,,,,,,,,,,,,,,,,,,1162.289912,1162.289912,1162.289912,1163.18993,1,0,right,0.366674,,1163.206597,1164.223284,0,0,left,1164.223284,1165.256638,0,1,left,0,1165.256638,1165.256638,1165.256638,1166.756668,0,41,41,41,1,0.2,0.8,0.8,0.2,,,,,,,,,,,,,,,0.450009,,0.8,0.2,0.6,0.4,0.4,0.6,0.6,0.4,,,0.466676,,0.8,0.2,0.2,0.8,0.6,0.4,0.6,0.4,1,0
,,5dd6023dcaee3e5b7ba7a5bc,66fc98d33270de5129c403ab,2024-10-02_00h55.00.068,mdp,2024.2.1,Win32,14.99970001,66fa4ebf79326e780c390304,,,,,,,,,,,,,,,,,,,,,1166.756668,1166.756668,1166.756668,1167.656686,1,1,right,0.33334,,1167.673353,1168.640039,0,0,left,1168.640039,1169.706727,0,0,left,1,1169.706727,1169.706727,1169.706727,1171.156756,0,42,42,42,1,0.2,0.8,0.8,0.2,,,,,,,,,,,,,,,0.400008,,0.8,0.2,0.6,0.4,0.4,0.6,0.6,0.4,,,0.50001,,0.8,0.2,0.2,0.8,0.6,0.4,0.6,0.4,1,0
,,5dd6023dcaee3e5b7ba7a5bc,66fc98d33270de5129c403ab,2024-10-02_00h55.00.068,mdp,2024.2.1,Win32,14.99970001,66fa4ebf79326e780c390304,,,,,,,,,,,,,,,,,,,,,1171.156756,1171.156756,1171.173423,1172.040107,1,0,right,0.316673,,1172.056774,1173.156796,0,1,left,1173.156796,1174.173483,0,1,left,0,1174.173483,1174.173483,1174.19015,1175.69018,0,43,43,43,1,0.2,0.8,0.8,0.2,,,,,,,,,,,,,,,0.533344,,0.8,0.2,0.6,0.4,0.4,0.6,0.6,0.4,,,0.466676,,0.8,0.2,0.2,0.8,0.6,0.4,0.6,0.4,1,0
,,5dd6023dcaee3e5b7ba7a5bc,66fc98d33270de5129c403ab,2024-10-02_00h55.00.068,mdp,2024.2.1,Win32,14.99970001,66fa4ebf79326e780c390304,,,,,,,,,,,,,,,,,,,,,1175.69018,1175.69018,1175.69018,1176.640199,1,1,right,0.400008,,1176.640199,1177.69022,0,0,left,1177.706887,1178.756908,0,0,left,1,1178.756908,1178.756908,1178.756908,1180.223604,0,44,44,44,1,0.2,0.8,0.8,0.2,,,,,,,,,,,,,,,0.483343,,0.8,0.2,0.6,0.4,0.4,0.6,0.6,0.4,,,0.483343,,0.8,0.2,0.2,0.8,0.6,0.4,0.6,0.4,1,0
,,5dd6023dcaee3e5b7ba7a5bc,66fc98d33270de5129c403ab,2024-10-02_00h55.00.068,mdp,2024.2.1,Win32,14.99970001,66fa4ebf79326e780c390304,,,,,,,,,,,,,,,,,,,,,1180.223604,1180.223604,1180.223604,1181.02362,1,0,right,0.233338,,1181.02362,1182.106975,0,0,left,1182.106975,1183.156996,0,0,left,1,1183.156996,1183.156996,1183.156996,1184.640359,0,45,45,45,1,0.2,0.8,0.8,0.2,,,,,,,,,,,,,,,0.516677,,0.8,0.2,0.6,0.4,0.4,0.6,0.6,0.4,,,0.50001,,0.8,0.2,0.2,0.8,0.6,0.4,0.6,0.4,1,0
,,5dd6023dcaee3e5b7ba7a5bc,66fc98d33270de5129c403ab,2024-10-02_00h55.00.068,mdp,2024.2.1,Win32,14.99970001,66fa4ebf79326e780c390304,,,,,,,,,,,,,,,,,,,,,1184.657026,1184.657026,1184.673693,1185.52371,1,0,right,0.33334,,1185.52371,1186.540397,0,0,left,1186.540397,1187.590418,0,0,left,1,1187.590418,1187.590418,1187.607085,1189.123782,0,46,46,46,1,0.2,0.8,0.8,0.2,,,,,,,,,,,,,,,0.450009,,0.8,0.2,0.6,0.4,0.4,0.6,0.6,0.4,,,0.483343,,0.8,0.2,0.2,0.8,0.6,0.4,0.6,0.4,1,0
,,5dd6023dcaee3e5b7ba7a5bc,66fc98d33270de5129c403ab,2024-10-02_00h55.00.068,mdp,2024.2.1,Win32,14.99970001,66fa4ebf79326e780c390304,,,,,,,,,,,,,,,,,,,,,1189.140449,1189.140449,1189.140449,1190.007133,1,0,right,0.316673,,1190.007133,1191.007153,0,0,left,1191.02382,1192.073841,0,1,left,0,1192.073841,1192.073841,1192.073841,1193.573871,0,47,47,47,1,0.2,0.8,0.8,0.2,,,,,,,,,,,,,,,0.450009,,0.8,0.2,0.6,0.4,0.4,0.6,0.6,0.4,,,0.466676,,0.8,0.2,0.2,0.8,0.6,0.4,0.6,0.4,1,0
,,5dd6023dcaee3e5b7ba7a5bc,66fc98d33270de5129c403ab,2024-10-02_00h55.00.068,mdp,2024.2.1,Win32,14.99970001,66fa4ebf79326e780c390304,,,,,,,,,,,,,,,,,,,,,1193.573871,1193.573871,1193.590538,1194.407221,1,0,right,0.283339,,1194.423888,1195.340573,0,0,left,1195.35724,1196.423928,0,0,left,1,1196.423928,1196.423928,1196.440595,1197.923958,0,48,48,48,1,0.2,0.8,0.8,0.2,,,,,,,,,,,,,,,0.366674,,0.2,0.8,0.8,0.2,0.4,0.6,0.6,0.4,,,0.516677,,0.8,0.2,0.2,0.8,0.6,0.4,0.6,0.4,1,0
,,5dd6023dcaee3e5b7ba7a5bc,66fc98d33270de5129c403ab,2024-10-02_00h55.00.068,mdp,2024.2.1,Win32,14.99970001,66fa4ebf79326e780c390304,,,,,,,,,,,,,,,,,,,,,1197.923958,1197.940625,1197.940625,1198.85731,1,0,right,0.366674,,1198.85731,1199.873997,0,1,left,1199.890664,1200.874017,0,1,left,0,1200.874017,1200.874017,1200.874017,1202.35738,0,49,49,49,1,0.2,0.8,0.8,0.2,,,,,,,,,,,,,,,0.450009,,0.2,0.8,0.8,0.2,0.6,0.4,0.2,0.8,,,0.433342,,0.8,0.2,0.2,0.8,0.6,0.4,0.6,0.4,1,0
,,5dd6023dcaee3e5b7ba7a5bc,66fc98d33270de5129c403ab,2024-10-02_00h55.00.068,mdp,2024.2.1,Win32,14.99970001,66fa4ebf79326e780c390304,,,,,,,,,,,,,,,,,,,,,,,,,,,,,,,,,,,,,,,,,,,,,,,,,,,,,,,,1202.35738,1260.891884,0,3,3,7,1,imgs/kangaroo.png,imgs/lion.png,imgs/giraffe.png,imgs/rabbit.png,imgs/elephant.png,,,,,,,,,,,,,,,,,,,,,,,,
,,5dd6023dcaee3e5b7ba7a5bc,66fc98d33270de5129c403ab,2024-10-02_00h55.00.068,mdp,2024.2.1,Win32,14.99970001,66fa4ebf79326e780c390304,,,,,,,,,,,,,,1,seqs/st1seq16.csv,1260.925218,1292.175843,space,30.66728,,1292.209177,1292.209177,1292.225844,1294.792562,0,0,left,2.00004,,1294.809229,1294.809229,0,0,,1294.825896,1294.825896,0,1,,1,1294.825896,1294.825896,1294.842563,1296.275925,0,0,0,0,1,0.8,0.2,0.2,0.8,1,0,,,,,,,,,,,,,,,,,,,,,,,,,,,,,,,,,,,,
,,5dd6023dcaee3e5b7ba7a5bc,66fc98d33270de5129c403ab,2024-10-02_00h55.00.068,mdp,2024.2.1,Win32,14.99970001,66fa4ebf79326e780c390304,,,,,,,,,,,,,,,,,,,,,1296.292592,1296.292592,1296.309259,1297.459282,0,0,left,0.633346,,1297.475949,1297.475949,0,0,,1297.492616,1297.492616,0,0,,1,1297.492616,1297.492616,1297.492616,1298.975979,0,1,1,1,1,0.8,0.2,0.2,0.8,1,0,,,,,,,,,,,,,,,,,,,,,,,,,,,,,,,,,,,,
,,5dd6023dcaee3e5b7ba7a5bc,66fc98d33270de5129c403ab,2024-10-02_00h55.00.068,mdp,2024.2.1,Win32,14.99970001,66fa4ebf79326e780c390304,,,,,,,,,,,,,,,,,,,,,1298.975979,1298.975979,1298.975979,1299.909331,0,1,left,0.350007,,1299.909331,1299.909331,0,0,,1299.925998,1299.925998,0,1,,0,1299.925998,1299.925998,1299.925998,1301.409361,0,2,2,2,1,0.6,0.4,0.4,0.6,1,0,,,,,,,,,,,,,,,,,,,,,,,,,,,,,,,,,,,,
,,5dd6023dcaee3e5b7ba7a5bc,66fc98d33270de5129c403ab,2024-10-02_00h55.00.068,mdp,2024.2.1,Win32,14.99970001,66fa4ebf79326e780c390304,,,,,,,,,,,,,,,,,,,,,1301.409361,1301.409361,1301.409361,1302.442715,0,0,left,0.483343,,1302.442715,1302.442715,0,0,,1302.442715,1302.459382,0,0,,1,1302.459382,1302.459382,1302.459382,1303.959412,0,3,3,3,1,0.6,0.4,0.4,0.6,1,0,,,,,,,,,,,,,,,,,,,,,,,,,,,,,,,,,,,,
,,5dd6023dcaee3e5b7ba7a5bc,66fc98d33270de5129c403ab,2024-10-02_00h55.00.068,mdp,2024.2.1,Win32,14.99970001,66fa4ebf79326e780c390304,,,,,,,,,,,,,,,,,,,,,1303.959412,1303.959412,1303.959412,1304.959432,0,0,left,0.466676,,1304.959432,1304.976099,0,1,,1304.976099,1304.992766,0,1,,1,1304.992766,1304.992766,1304.992766,1306.476129,0,4,4,4,1,0.6,0.4,0.4,0.6,1,0,,,,,,,,,,,,,,,,,,,,,,,,,,,,,,,,,,,,
,,5dd6023dcaee3e5b7ba7a5bc,66fc98d33270de5129c403ab,2024-10-02_00h55.00.068,mdp,2024.2.1,Win32,14.99970001,66fa4ebf79326e780c390304,,,,,,,,,,,,,,,,,,,,,1306.492796,1306.492796,1306.492796,1307.376147,0,0,left,0.350007,,1307.376147,1307.392814,0,1,,1307.392814,1307.392814,0,0,,1,1307.392814,1307.392814,1307.409481,1308.892844,0,5,5,5,1,0.6,0.4,0.4,0.6,1,0,,,,,,,,,,,,,,,,,,,,,,,,,,,,,,,,,,,,
,,5dd6023dcaee3e5b7ba7a5bc,66fc98d33270de5129c403ab,2024-10-02_00h55.00.068,mdp,2024.2.1,Win32,14.99970001,66fa4ebf79326e780c390304,,,,,,,,,,,,,,,,,,,,,1308.892844,1308.892844,1308.892844,1309.826196,0,0,left,0.350007,,1309.826196,1309.826196,0,0,,1309.842863,1309.842863,0,0,,1,1309.842863,1309.842863,1309.842863,1311.35956,0,6,6,6,1,0.6,0.4,0.4,0.6,1,0,,,,,,,,,,,,,,,,,,,,,,,,,,,,,,,,,,,,
,,5dd6023dcaee3e5b7ba7a5bc,66fc98d33270de5129c403ab,2024-10-02_00h55.00.068,mdp,2024.2.1,Win32,14.99970001,66fa4ebf79326e780c390304,,,,,,,,,,,,,,,,,,,,,1311.376227,1311.376227,1311.392894,1312.376247,0,1,left,0.433342,,1312.376247,1312.392914,0,0,,1312.392914,1312.409581,0,1,,0,1312.409581,1312.409581,1312.409581,1313.85961,0,7,7,7,1,0.6,0.4,0.4,0.6,1,0,,,,,,,,,,,,,,,,,,,,,,,,,,,,,,,,,,,,
,,5dd6023dcaee3e5b7ba7a5bc,66fc98d33270de5129c403ab,2024-10-02_00h55.00.068,mdp,2024.2.1,Win32,14.99970001,66fa4ebf79326e780c390304,,,,,,,,,,,,,,,,,,,,,1313.876277,1313.876277,1313.876277,1314.85963,0,0,left,0.433342,,1314.85963,1314.876297,0,0,,1314.892964,1314.892964,0,0,,1,1314.892964,1314.892964,1314.909631,1316.392994,0,8,8,8,1,0.6,0.4,0.4,0.6,1,0,,,,,,,,,,,,,,,,,,,,,,,,,,,,,,,,,,,,
,,5dd6023dcaee3e5b7ba7a5bc,66fc98d33270de5129c403ab,2024-10-02_00h55.00.068,mdp,2024.2.1,Win32,14.99970001,66fa4ebf79326e780c390304,,,,,,,,,,,,,,,,,,,,,1316.392994,1316.392994,1316.392994,1317.409681,0,1,left,0.450009,,1317.409681,1317.426348,0,1,,1317.426348,1317.426348,0,1,,0,1317.426348,1317.426348,1317.443015,1318.876377,0,9,9,9,1,0.2,0.8,0.6,0.4,1,0,,,,,,,,,,,,,,,,,,,,,,,,,,,,,,,,,,,,
,,5dd6023dcaee3e5b7ba7a5bc,66fc98d33270de5129c403ab,2024-10-02_00h55.00.068,mdp,2024.2.1,Win32,14.99970001,66fa4ebf79326e780c390304,,,,,,,,,,,,,,,,,,,,,1318.893044,1318.893044,1318.893044,1319.776395,0,1,left,0.316673,,1319.776395,1319.793062,0,0,,1319.793062,1319.809729,0,1,,0,1319.809729,1319.809729,1319.809729,1321.276425,0,10,10,10,1,0.2,0.8,0.6,0.4,1,0,,,,,,,,,,,,,,,,,,,,,,,,,,,,,,,,,,,,
,,5dd6023dcaee3e5b7ba7a5bc,66fc98d33270de5129c403ab,2024-10-02_00h55.00.068,mdp,2024.2.1,Win32,14.99970001,66fa4ebf79326e780c390304,,,,,,,,,,,,,,,,,,,,,1321.276425,1321.276425,1321.293092,1322.326446,0,0,left,0.483343,,1322.326446,1322.35978,0,0,,1322.35978,1322.35978,0,1,,1,1322.35978,1322.35978,1322.35978,1323.826476,0,11,11,11,1,0.8,0.2,0.4,0.6,1,0,,,,,,,,,,,,,,,,,,,,,,,,,,,,,,,,,,,,
,,5dd6023dcaee3e5b7ba7a5bc,66fc98d33270de5129c403ab,2024-10-02_00h55.00.068,mdp,2024.2.1,Win32,14.99970001,66fa4ebf79326e780c390304,,,,,,,,,,,,,,,,,,,,,1323.826476,1323.826476,1323.826476,1324.743161,0,0,left,0.350007,,1324.743161,1324.759828,0,1,,1324.759828,1324.776495,0,0,,1,1324.776495,1324.776495,1324.776495,1326.309859,0,12,12,12,1,0.4,0.6,0.8,0.2,1,0,,,,,,,,,,,,,,,,,,,,,,,,,,,,,,,,,,,,
,,5dd6023dcaee3e5b7ba7a5bc,66fc98d33270de5129c403ab,2024-10-02_00h55.00.068,mdp,2024.2.1,Win32,14.99970001,66fa4ebf79326e780c390304,,,,,,,,,,,,,,,,,,,,,1326.309859,1326.309859,1326.309859,1327.226544,0,0,left,0.350007,,1327.243211,1327.243211,0,0,,1327.259878,1327.259878,0,0,,1,1327.259878,1327.259878,1327.259878,1328.759908,0,13,13,13,1,0.8,0.2,0.4,0.6,1,0,,,,,,,,,,,,,,,,,,,,,,,,,,,,,,,,,,,,
,,5dd6023dcaee3e5b7ba7a5bc,66fc98d33270de5129c403ab,2024-10-02_00h55.00.068,mdp,2024.2.1,Win32,14.99970001,66fa4ebf79326e780c390304,,,,,,,,,,,,,,,,,,,,,1328.759908,1328.759908,1328.776575,1329.626592,0,0,left,0.300006,,1329.626592,1329.659926,0,0,,1329.659926,1329.659926,0,0,,1,1329.659926,1329.659926,1329.659926,1331.159956,0,14,14,14,1,0.8,0.2,0.4,0.6,1,0,,,,,,,,,,,,,,,,,,,,,,,,,,,,,,,,,,,,
,,5dd6023dcaee3e5b7ba7a5bc,66fc98d33270de5129c403ab,2024-10-02_00h55.00.068,mdp,2024.2.1,Win32,14.99970001,66fa4ebf79326e780c390304,,,,,,,,,,,,,,,,,,,,,1331.159956,1331.159956,1331.159956,1332.059974,0,0,left,0.316673,,1332.059974,1332.076641,0,0,,1332.076641,1332.093308,0,0,,1,1332.093308,1332.093308,1332.093308,1333.593338,0,15,15,15,1,0.8,0.2,0.4,0.6,1,0,,,,,,,,,,,,,,,,,,,,,,,,,,,,,,,,,,,,
,,5dd6023dcaee3e5b7ba7a5bc,66fc98d33270de5129c403ab,2024-10-02_00h55.00.068,mdp,2024.2.1,Win32,14.99970001,66fa4ebf79326e780c390304,,,,,,,,,,,,,,,,,,,,,1333.593338,1333.593338,1333.593338,1334.443355,0,0,left,0.316673,,1334.460022,1334.460022,0,1,,1334.460022,1334.476689,0,1,,1,1334.476689,1334.476689,1334.476689,1335.960052,0,16,16,16,1,0.2,0.8,0.6,0.4,1,0,,,,,,,,,,,,,,,,,,,,,,,,,,,,,,,,,,,,
,,5dd6023dcaee3e5b7ba7a5bc,66fc98d33270de5129c403ab,2024-10-02_00h55.00.068,mdp,2024.2.1,Win32,14.99970001,66fa4ebf79326e780c390304,,,,,,,,,,,,,,,,,,,,,1335.960052,1335.960052,1335.960052,1336.810069,0,0,left,0.316673,,1336.826736,1336.826736,0,0,,1336.826736,1336.843403,0,0,,1,1336.843403,1336.843403,1336.843403,1338.326766,0,17,17,17,1,0.6,0.4,0.4,0.6,1,0,,,,,,,,,,,,,,,,,,,,,,,,,,,,,,,,,,,,
,,5dd6023dcaee3e5b7ba7a5bc,66fc98d33270de5129c403ab,2024-10-02_00h55.00.068,mdp,2024.2.1,Win32,14.99970001,66fa4ebf79326e780c390304,,,,,,,,,,,,,,,,,,,,,1338.343433,1338.343433,1338.343433,1339.226784,0,1,left,0.316673,,1339.226784,1339.226784,0,1,,1339.243451,1339.243451,0,0,,0,1339.243451,1339.243451,1339.243451,1340.710147,0,18,18,18,1,0.6,0.4,0.4,0.6,1,0,,,,,,,,,,,,,,,,,,,,,,,,,,,,,,,,,,,,
,,5dd6023dcaee3e5b7ba7a5bc,66fc98d33270de5129c403ab,2024-10-02_00h55.00.068,mdp,2024.2.1,Win32,14.99970001,66fa4ebf79326e780c390304,,,,,,,,,,,,,,,,,,,,,1340.710147,1340.710147,1340.710147,1341.626832,0,0,left,0.350007,,1341.643499,1341.643499,0,1,,1341.660166,1341.660166,0,0,,1,1341.660166,1341.660166,1341.660166,1343.160196,0,19,19,19,1,0.6,0.4,0.4,0.6,1,0,,,,,,,,,,,,,,,,,,,,,,,,,,,,,,,,,,,,
,,5dd6023dcaee3e5b7ba7a5bc,66fc98d33270de5129c403ab,2024-10-02_00h55.00.068,mdp,2024.2.1,Win32,14.99970001,66fa4ebf79326e780c390304,,,,,,,,,,,,,,,,,,,,,1343.160196,1343.160196,1343.160196,1344.060214,0,0,left,0.350007,,1344.060214,1344.076881,0,0,,1344.093548,1344.093548,0,0,,1,1344.093548,1344.093548,1344.093548,1345.576911,0,20,20,20,1,0.6,0.4,0.4,0.6,1,0,,,,,,,,,,,,,,,,,,,,,,,,,,,,,,,,,,,,
,,5dd6023dcaee3e5b7ba7a5bc,66fc98d33270de5129c403ab,2024-10-02_00h55.00.068,mdp,2024.2.1,Win32,14.99970001,66fa4ebf79326e780c390304,,,,,,,,,,,,,,,,,,,,,1345.576911,1345.576911,1345.576911,1346.960272,0,0,left,0.816683,,1346.976939,1346.976939,0,0,,1346.976939,1346.993606,0,0,,1,1346.993606,1346.993606,1346.993606,1348.476969,0,21,21,21,1,0.8,0.2,0.6,0.4,1,0,,,,,,,,,,,,,,,,,,,,,,,,,,,,,,,,,,,,
,,5dd6023dcaee3e5b7ba7a5bc,66fc98d33270de5129c403ab,2024-10-02_00h55.00.068,mdp,2024.2.1,Win32,14.99970001,66fa4ebf79326e780c390304,,,,,,,,,,,,,,,,,,,,,1348.476969,1348.476969,1348.476969,1349.293652,0,1,left,0.283339,,1349.293652,1349.293652,0,0,,1349.310319,1349.310319,0,0,,0,1349.310319,1349.310319,1349.310319,1350.810349,0,22,22,22,1,0.8,0.2,0.6,0.4,1,0,,,,,,,,,,,,,,,,,,,,,,,,,,,,,,,,,,,,
,,5dd6023dcaee3e5b7ba7a5bc,66fc98d33270de5129c403ab,2024-10-02_00h55.00.068,mdp,2024.2.1,Win32,14.99970001,66fa4ebf79326e780c390304,,,,,,,,,,,,,,,,,,,,,1350.810349,1350.810349,1350.810349,1351.793702,0,0,left,0.400008,,1351.810369,1351.827036,0,0,,1351.827036,1351.843703,0,0,,1,1351.843703,1351.843703,1351.86037,1353.327066,0,23,23,23,1,0.8,0.2,0.6,0.4,1,0,,,,,,,,,,,,,,,,,,,,,,,,,,,,,,,,,,,,
