init_exp.started,init_exp.stopped,participant,session,date,expName,psychopyVersion,OS,frameRate,study_id,disp_instruction.started,disp_instruction.stopped,instruction.thisRepN,instruction.thisTrialN,instruction.thisN,instruction.thisIndex,instruction.ran,instimg_path,consent.started,consent.stopped,key_resp_3.keys,key_resp_3.rt,key_resp_3.duration,n_steps,sequence_path,init_block.started,init_block.stopped,key_resp.keys,key_resp.rt,key_resp.duration,init_trials.started,init_trials.stopped,step0.started,step0.stopped,act0,s1,res0.keys,res0.rt,res0.duration,step1.started,step1.stopped,act1,s2,res1.keys,step2.started,step2.stopped,act2,s3,res2.keys,rew,reward_comp.started,reward_comp.stopped,reward_disp.started,reward_disp.stopped,trials.thisRepN,trials.thisTrialN,trials.thisN,trials.thisIndex,trials.ran,s00a0s10,s00a0s11,s00a1s10,s00a1s11,rew10,rew11,break_block.started,break_block.stopped,block.thisRepN,block.thisTrialN,block.thisN,block.thisIndex,block.ran,s00path,s10path,s11path,s20path,s21path,res1.rt,res1.duration,s10a0s20,s10a0s21,s10a1s20,s10a1s21,s11a0s20,s11a0s21,s11a1s20,s11a1s21,rew20,rew21,res2.rt,res2.duration,s20a0s30,s20a0s31,s20a1s30,s20a1s31,s21a0s30,s21a0s31,s21a1s30,s21a1s31,rew30,rew31
0.0008,0.0042,5dfbefa35777b591c3999842,66fc987b88aba78f66206909,2024-10-02_02h53.01.391,mdp,2024.2.1,Win32,19.91555803,66fa4ebf79326e780c390304,,,,,,,,,,,,,,,,,,,,,,,,,,,,,,,,,,,,,,,,,,,,,,,,,,,,,,,,,,,,,,,,,,,,,,,,,,,,,,,,,,,,,,,,,,,
,,5dfbefa35777b591c3999842,66fc987b88aba78f66206909,2024-10-02_02h53.01.391,mdp,2024.2.1,Win32,19.91555803,66fa4ebf79326e780c390304,0.015,31.5869,0,0,0,0,1,rlnn_exp/rlnn_exp.001.png,,,,,,,,,,,,,,,,,,,,,,,,,,,,,,,,,,,,,,,,,,,,,,,,,,,,,,,,,,,,,,,,,,,,,,,,,,,,,,,,,,,
,,5dfbefa35777b591c3999842,66fc987b88aba78f66206909,2024-10-02_02h53.01.391,mdp,2024.2.1,Win32,19.91555803,66fa4ebf79326e780c390304,31.5891,143.1777,0,1,1,1,1,rlnn_exp/rlnn_exp.002.png,,,,,,,,,,,,,,,,,,,,,,,,,,,,,,,,,,,,,,,,,,,,,,,,,,,,,,,,,,,,,,,,,,,,,,,,,,,,,,,,,,,
,,5dfbefa35777b591c3999842,66fc987b88aba78f66206909,2024-10-02_02h53.01.391,mdp,2024.2.1,Win32,19.91555803,66fa4ebf79326e780c390304,143.2138,166.7375,0,2,2,2,1,rlnn_exp/rlnn_exp.003.png,,,,,,,,,,,,,,,,,,,,,,,,,,,,,,,,,,,,,,,,,,,,,,,,,,,,,,,,,,,,,,,,,,,,,,,,,,,,,,,,,,,
,,5dfbefa35777b591c3999842,66fc987b88aba78f66206909,2024-10-02_02h53.01.391,mdp,2024.2.1,Win32,19.91555803,66fa4ebf79326e780c390304,166.7768,209.4149,0,3,3,3,1,rlnn_exp/rlnn_exp.004.png,,,,,,,,,,,,,,,,,,,,,,,,,,,,,,,,,,,,,,,,,,,,,,,,,,,,,,,,,,,,,,,,,,,,,,,,,,,,,,,,,,,
,,5dfbefa35777b591c3999842,66fc987b88aba78f66206909,2024-10-02_02h53.01.391,mdp,2024.2.1,Win32,19.91555803,66fa4ebf79326e780c390304,,,,,,,,,209.45,257.3892,y,37.8327,,,,,,,,,,,,,,,,,,,,,,,,,,,,,,,,,,,,,,,,,,,,,,,,,,,,,,,,,,,,,,,,,,,,,,,,,,,,,,,
,,5dfbefa35777b591c3999842,66fc987b88aba78f66206909,2024-10-02_02h53.01.391,mdp,2024.2.1,Win32,19.91555803,66fa4ebf79326e780c390304,,,,,,,,,,,,,,1,seqs/st1seq10.csv,257.4385,259.9792,space,1.9241,,259.9921,259.9925,259.9936,261.702,0,1,left,1.0971,,261.7038,261.7079,,1,,261.7088,261.7127,,1,,0,261.713,261.7134,261.7143,263.2058,0,0,0,0,1,0.2,0.8,0.8,0.2,1,0,,,,,,,,,,,,,,,,,,,,,,,,,,,,,,,,,,,,
,,5dfbefa35777b591c3999842,66fc987b88aba78f66206909,2024-10-02_02h53.01.391,mdp,2024.2.1,Win32,19.91555803,66fa4ebf79326e780c390304,,,,,,,,,,,,,,,,,,,,,263.2067,263.2069,263.2097,264.6429,1,0,right,0.8563,,264.6455,264.6476,,0,,264.6492,264.651,,0,,1,264.6511,264.6511,264.6528,266.1132,0,1,1,1,1,0.2,0.8,0.8,0.2,1,0,,,,,,,,,,,,,,,,,,,,,,,,,,,,,,,,,,,,
,,5dfbefa35777b591c3999842,66fc987b88aba78f66206909,2024-10-02_02h53.01.391,mdp,2024.2.1,Win32,19.91555803,66fa4ebf79326e780c390304,,,,,,,,,,,,,,,,,,,,,266.1138,266.1139,266.1183,267.4479,1,1,right,0.7374,,267.4505,267.4527,,0,,267.4543,267.4559,,0,,0,267.456,267.456,267.4575,268.9669,0,2,2,2,1,0.2,0.8,0.8,0.2,1,0,,,,,,,,,,,,,,,,,,,,,,,,,,,,,,,,,,,,
,,5dfbefa35777b591c3999842,66fc987b88aba78f66206909,2024-10-02_02h53.01.391,mdp,2024.2.1,Win32,19.91555803,66fa4ebf79326e780c390304,,,,,,,,,,,,,,,,,,,,,268.9676,268.9676,268.971,270.8782,1,0,right,1.3219,,270.8809,270.8829,,0,,270.8844,270.886,,0,,1,270.8861,270.8861,270.8878,272.3817,0,3,3,3,1,0.2,0.8,0.8,0.2,1,0,,,,,,,,,,,,,,,,,,,,,,,,,,,,,,,,,,,,
,,5dfbefa35777b591c3999842,66fc987b88aba78f66206909,2024-10-02_02h53.01.391,mdp,2024.2.1,Win32,19.91555803,66fa4ebf79326e780c390304,,,,,,,,,,,,,,,,,,,,,272.3824,272.3825,272.3907,273.5256,0,1,left,0.5968,,273.5282,273.5301,,1,,273.5322,273.5339,,1,,0,273.534,273.534,273.5354,275.0367,0,4,4,4,1,0.2,0.8,0.8,0.2,1,0,,,,,,,,,,,,,,,,,,,,,,,,,,,,,,,,,,,,
,,5dfbefa35777b591c3999842,66fc987b88aba78f66206909,2024-10-02_02h53.01.391,mdp,2024.2.1,Win32,19.91555803,66fa4ebf79326e780c390304,,,,,,,,,,,,,,,,,,,,,275.0374,275.0375,275.0408,276.4732,1,1,right,0.823,,276.4759,276.4778,,0,,276.4793,276.4821,,1,,0,276.4822,276.4822,276.4839,277.9948,0,5,5,5,1,0.2,0.8,0.8,0.2,1,0,,,,,,,,,,,,,,,,,,,,,,,,,,,,,,,,,,,,
,,5dfbefa35777b591c3999842,66fc987b88aba78f66206909,2024-10-02_02h53.01.391,mdp,2024.2.1,Win32,19.91555803,66fa4ebf79326e780c390304,,,,,,,,,,,,,,,,,,,,,277.9955,277.9955,277.9984,279.833,1,0,right,1.2395,,279.8347,279.8365,,0,,279.8383,279.8401,,0,,1,279.8402,279.8402,279.8428,281.3516,0,6,6,6,1,0.2,0.8,0.8,0.2,1,0,,,,,,,,,,,,,,,,,,,,,,,,,,,,,,,,,,,,
,,5dfbefa35777b591c3999842,66fc987b88aba78f66206909,2024-10-02_02h53.01.391,mdp,2024.2.1,Win32,19.91555803,66fa4ebf79326e780c390304,,,,,,,,,,,,,,,,,,,,,281.3524,281.3524,281.3558,283.4738,0,1,left,1.5547,,283.4763,283.4782,,1,,283.4798,283.4815,,1,,0,283.4815,283.4816,283.4831,284.9744,0,7,7,7,1,0.2,0.8,0.8,0.2,1,0,,,,,,,,,,,,,,,,,,,,,,,,,,,,,,,,,,,,
,,5dfbefa35777b591c3999842,66fc987b88aba78f66206909,2024-10-02_02h53.01.391,mdp,2024.2.1,Win32,19.91555803,66fa4ebf79326e780c390304,,,,,,,,,,,,,,,,,,,,,284.9751,284.9751,284.9779,286.9003,0,1,left,1.3397,,286.9029,286.9048,,1,,286.9065,286.9081,,1,,0,286.9082,286.9083,286.9097,288.381,0,8,8,8,1,0.2,0.8,0.8,0.2,1,0,,,,,,,,,,,,,,,,,,,,,,,,,,,,,,,,,,,,
,,5dfbefa35777b591c3999842,66fc987b88aba78f66206909,2024-10-02_02h53.01.391,mdp,2024.2.1,Win32,19.91555803,66fa4ebf79326e780c390304,,,,,,,,,,,,,,,,,,,,,288.3818,288.3818,288.3841,289.7857,1,0,right,0.8169,,289.788,289.7898,,0,,289.7922,289.794,,1,,1,289.7942,289.7943,289.7957,291.3122,0,9,9,9,1,0.2,0.8,0.8,0.2,1,0,,,,,,,,,,,,,,,,,,,,,,,,,,,,,,,,,,,,
,,5dfbefa35777b591c3999842,66fc987b88aba78f66206909,2024-10-02_02h53.01.391,mdp,2024.2.1,Win32,19.91555803,66fa4ebf79326e780c390304,,,,,,,,,,,,,,,,,,,,,291.3131,291.3132,291.3161,292.6348,1,1,right,0.7302,,292.6372,292.6394,,0,,292.6409,292.6426,,1,,0,292.6426,292.6427,292.6441,294.1537,0,10,10,10,1,0.6,0.4,0.4,0.6,1,0,,,,,,,,,,,,,,,,,,,,,,,,,,,,,,,,,,,,
,,5dfbefa35777b591c3999842,66fc987b88aba78f66206909,2024-10-02_02h53.01.391,mdp,2024.2.1,Win32,19.91555803,66fa4ebf79326e780c390304,,,,,,,,,,,,,,,,,,,,,294.1544,294.1545,294.1573,295.4538,1,0,right,0.7043,,295.4563,295.4581,,1,,295.4597,295.4613,,1,,1,295.4614,295.4615,295.4628,296.9275,0,11,11,11,1,0.6,0.4,0.4,0.6,1,0,,,,,,,,,,,,,,,,,,,,,,,,,,,,,,,,,,,,
,,5dfbefa35777b591c3999842,66fc987b88aba78f66206909,2024-10-02_02h53.01.391,mdp,2024.2.1,Win32,19.91555803,66fa4ebf79326e780c390304,,,,,,,,,,,,,,,,,,,,,296.9282,296.9283,296.931,298.9645,0,1,left,1.4403,,298.9672,298.969,,0,,298.9705,298.972,,0,,0,298.9721,298.9721,298.9734,300.4721,0,12,12,12,1,0.6,0.4,0.4,0.6,1,0,,,,,,,,,,,,,,,,,,,,,,,,,,,,,,,,,,,,
,,5dfbefa35777b591c3999842,66fc987b88aba78f66206909,2024-10-02_02h53.01.391,mdp,2024.2.1,Win32,19.91555803,66fa4ebf79326e780c390304,,,,,,,,,,,,,,,,,,,,,300.4728,300.4728,300.4752,302.2815,0,0,left,1.2525,,302.2838,302.2857,,0,,302.2872,302.2889,,0,,1,302.2889,302.2889,302.2914,303.757,0,13,13,13,1,0.6,0.4,0.4,0.6,1,0,,,,,,,,,,,,,,,,,,,,,,,,,,,,,,,,,,,,
,,5dfbefa35777b591c3999842,66fc987b88aba78f66206909,2024-10-02_02h53.01.391,mdp,2024.2.1,Win32,19.91555803,66fa4ebf79326e780c390304,,,,,,,,,,,,,,,,,,,,,303.7577,303.7578,303.7602,305.2729,1,1,right,0.9095,,305.2749,305.2772,,1,,305.279,305.2815,,0,,0,305.2816,305.2817,305.2834,306.7593,0,14,14,14,1,0.6,0.4,0.4,0.6,1,0,,,,,,,,,,,,,,,,,,,,,,,,,,,,,,,,,,,,
,,5dfbefa35777b591c3999842,66fc987b88aba78f66206909,2024-10-02_02h53.01.391,mdp,2024.2.1,Win32,19.91555803,66fa4ebf79326e780c390304,,,,,,,,,,,,,,,,,,,,,306.76,306.7601,306.7626,308.006,1,0,right,0.6463,,308.0083,308.01,,0,,308.0115,308.0131,,1,,1,308.0133,308.0134,308.0148,309.5142,0,15,15,15,1,0.6,0.4,0.4,0.6,1,0,,,,,,,,,,,,,,,,,,,,,,,,,,,,,,,,,,,,
,,5dfbefa35777b591c3999842,66fc987b88aba78f66206909,2024-10-02_02h53.01.391,mdp,2024.2.1,Win32,19.91555803,66fa4ebf79326e780c390304,,,,,,,,,,,,,,,,,,,,,309.5149,309.5149,309.5174,311.2156,0,1,left,1.1065,,311.2182,311.22,,1,,311.2216,311.223,,1,,0,311.2232,311.2232,311.2246,312.7316,0,16,16,16,1,0.6,0.4,0.4,0.6,1,0,,,,,,,,,,,,,,,,,,,,,,,,,,,,,,,,,,,,
,,5dfbefa35777b591c3999842,66fc987b88aba78f66206909,2024-10-02_02h53.01.391,mdp,2024.2.1,Win32,19.91555803,66fa4ebf79326e780c390304,,,,,,,,,,,,,,,,,,,,,312.7323,312.7323,312.7353,313.8733,0,0,left,0.5376,,313.875,313.8767,,0,,313.8781,313.8795,,0,,1,313.8796,313.8796,313.8809,315.3905,0,17,17,17,1,0.6,0.4,0.4,0.6,1,0,,,,,,,,,,,,,,,,,,,,,,,,,,,,,,,,,,,,
,,5dfbefa35777b591c3999842,66fc987b88aba78f66206909,2024-10-02_02h53.01.391,mdp,2024.2.1,Win32,19.91555803,66fa4ebf79326e780c390304,,,,,,,,,,,,,,,,,,,,,315.3912,315.3912,315.3939,317.3478,0,0,left,1.3561,,317.3503,317.3522,,0,,317.3538,317.3552,,0,,1,317.3553,317.3553,317.3567,318.8174,0,18,18,18,1,0.6,0.4,0.4,0.6,1,0,,,,,,,,,,,,,,,,,,,,,,,,,,,,,,,,,,,,
,,5dfbefa35777b591c3999842,66fc987b88aba78f66206909,2024-10-02_02h53.01.391,mdp,2024.2.1,Win32,19.91555803,66fa4ebf79326e780c390304,,,,,,,,,,,,,,,,,,,,,318.8181,318.8182,318.8205,319.9153,1,0,right,0.5344,,319.9171,319.9192,,1,,319.9211,319.9238,,1,,1,319.9238,319.9239,319.9255,321.424,0,19,19,19,1,0.6,0.4,0.4,0.6,1,0,,,,,,,,,,,,,,,,,,,,,,,,,,,,,,,,,,,,
,,5dfbefa35777b591c3999842,66fc987b88aba78f66206909,2024-10-02_02h53.01.391,mdp,2024.2.1,Win32,19.91555803,66fa4ebf79326e780c390304,,,,,,,,,,,,,,,,,,,,,321.4247,321.4249,321.4276,323.7594,0,0,left,1.7403,,323.7621,323.764,,1,,323.7659,323.7687,,1,,1,323.7687,323.7688,323.7704,325.2465,0,20,20,20,1,0.6,0.4,0.4,0.6,1,0,,,,,,,,,,,,,,,,,,,,,,,,,,,,,,,,,,,,
,,5dfbefa35777b591c3999842,66fc987b88aba78f66206909,2024-10-02_02h53.01.391,mdp,2024.2.1,Win32,19.91555803,66fa4ebf79326e780c390304,,,,,,,,,,,,,,,,,,,,,325.2472,325.2472,325.25,326.6559,1,0,right,0.8216,,326.6582,326.6601,,0,,326.6618,326.6633,,0,,1,326.6634,326.6635,326.665,328.1717,0,21,21,21,1,0.6,0.4,0.4,0.6,1,0,,,,,,,,,,,,,,,,,,,,,,,,,,,,,,,,,,,,
,,5dfbefa35777b591c3999842,66fc987b88aba78f66206909,2024-10-02_02h53.01.391,mdp,2024.2.1,Win32,19.91555803,66fa4ebf79326e780c390304,,,,,,,,,,,,,,,,,,,,,328.1723,328.1724,328.1748,329.3583,0,0,left,0.5922,,329.3607,329.3627,,0,,329.3644,329.3659,,1,,1,329.3661,329.3661,329.3677,330.8702,0,22,22,22,1,0.8,0.2,0.6,0.4,1,0,,,,,,,,,,,,,,,,,,,,,,,,,,,,,,,,,,,,
,,5dfbefa35777b591c3999842,66fc987b88aba78f66206909,2024-10-02_02h53.01.391,mdp,2024.2.1,Win32,19.91555803,66fa4ebf79326e780c390304,,,,,,,,,,,,,,,,,,,,,330.8716,330.8717,330.8736,331.9986,1,0,right,0.5339,,332.0028,332.0048,,1,,332.0067,332.0085,,0,,1,332.0086,332.0086,332.0104,333.4929,0,23,23,23,1,0.4,0.6,0.8,0.2,1,0,,,,,,,,,,,,,,,,,,,,,,,,,,,,,,,,,,,,
,,5dfbefa35777b591c3999842,66fc987b88aba78f66206909,2024-10-02_02h53.01.391,mdp,2024.2.1,Win32,19.91555803,66fa4ebf79326e780c390304,,,,,,,,,,,,,,,,,,,,,333.4935,333.4936,333.4962,334.64,0,1,left,0.5938,,334.6419,334.6443,,1,,334.6459,334.6475,,0,,0,334.6476,334.6476,334.6489,336.1141,0,24,24,24,1,0.4,0.6,0.8,0.2,1,0,,,,,,,,,,,,,,,,,,,,,,,,,,,,,,,,,,,,
,,5dfbefa35777b591c3999842,66fc987b88aba78f66206909,2024-10-02_02h53.01.391,mdp,2024.2.1,Win32,19.91555803,66fa4ebf79326e780c390304,,,,,,,,,,,,,,,,,,,,,336.1147,336.1147,336.1173,337.1965,1,0,right,0.4851,,337.1991,337.201,,0,,337.2026,337.2041,,0,,1,337.2042,337.2042,337.2056,338.7012,0,25,25,25,1,0.4,0.6,0.8,0.2,1,0,,,,,,,,,,,,,,,,,,,,,,,,,,,,,,,,,,,,
,,5dfbefa35777b591c3999842,66fc987b88aba78f66206909,2024-10-02_02h53.01.391,mdp,2024.2.1,Win32,19.91555803,66fa4ebf79326e780c390304,,,,,,,,,,,,,,,,,,,,,338.7027,338.7028,338.7052,339.8393,0,1,left,0.5332,,339.841,339.8428,,0,,339.8443,339.8458,,1,,0,339.8459,339.8459,339.8472,341.3407,0,26,26,26,1,0.4,0.6,0.8,0.2,1,0,,,,,,,,,,,,,,,,,,,,,,,,,,,,,,,,,,,,
,,5dfbefa35777b591c3999842,66fc987b88aba78f66206909,2024-10-02_02h53.01.391,mdp,2024.2.1,Win32,19.91555803,66fa4ebf79326e780c390304,,,,,,,,,,,,,,,,,,,,,341.3414,341.3414,341.344,342.5133,1,0,right,0.5835,,342.5155,342.5172,,1,,342.5185,342.5199,,0,,1,342.52,342.52,342.5214,344.0158,0,27,27,27,1,0.4,0.6,0.8,0.2,1,0,,,,,,,,,,,,,,,,,,,,,,,,,,,,,,,,,,,,
,,5dfbefa35777b591c3999842,66fc987b88aba78f66206909,2024-10-02_02h53.01.391,mdp,2024.2.1,Win32,19.91555803,66fa4ebf79326e780c390304,,,,,,,,,,,,,,,,,,,,,344.0164,344.0164,344.0191,345.3734,0,0,left,0.7613,,345.3762,345.3779,,1,,345.3797,345.3813,,1,,1,345.3814,345.3814,345.3828,346.8707,0,28,28,28,1,0.4,0.6,0.8,0.2,1,0,,,,,,,,,,,,,,,,,,,,,,,,,,,,,,,,,,,,
,,5dfbefa35777b591c3999842,66fc987b88aba78f66206909,2024-10-02_02h53.01.391,mdp,2024.2.1,Win32,19.91555803,66fa4ebf79326e780c390304,,,,,,,,,,,,,,,,,,,,,346.8717,346.8717,346.8752,347.7964,1,1,right,0.322,,347.7989,347.8007,,1,,347.8026,347.8041,,0,,0,347.8042,347.8042,347.806,349.2654,0,29,29,29,1,0.4,0.6,0.8,0.2,1,0,,,,,,,,,,,,,,,,,,,,,,,,,,,,,,,,,,,,
,,5dfbefa35777b591c3999842,66fc987b88aba78f66206909,2024-10-02_02h53.01.391,mdp,2024.2.1,Win32,19.91555803,66fa4ebf79326e780c390304,,,,,,,,,,,,,,,,,,,,,349.266,349.2661,349.2692,350.483,0,1,left,0.6182,,350.4857,350.4873,,0,,350.489,350.4906,,0,,0,350.4907,350.4907,350.492,352.0197,0,30,30,30,1,0.4,0.6,0.8,0.2,1,0,,,,,,,,,,,,,,,,,,,,,,,,,,,,,,,,,,,,
,,5dfbefa35777b591c3999842,66fc987b88aba78f66206909,2024-10-02_02h53.01.391,mdp,2024.2.1,Win32,19.91555803,66fa4ebf79326e780c390304,,,,,,,,,,,,,,,,,,,,,352.0203,352.0204,352.0229,352.9851,1,0,right,0.3717,,352.9877,352.9894,,1,,352.9911,352.9928,,0,,1,352.9929,352.9929,352.9944,354.5068,0,31,31,31,1,0.4,0.6,0.8,0.2,1,0,,,,,,,,,,,,,,,,,,,,,,,,,,,,,,,,,,,,
,,5dfbefa35777b591c3999842,66fc987b88aba78f66206909,2024-10-02_02h53.01.391,mdp,2024.2.1,Win32,19.91555803,66fa4ebf79326e780c390304,,,,,,,,,,,,,,,,,,,,,354.5075,354.5075,354.5107,355.4769,1,0,right,0.3828,,355.4794,355.4814,,0,,355.483,355.4846,,0,,1,355.4848,355.4848,355.4862,356.9993,0,32,32,32,1,0.4,0.6,0.8,0.2,1,0,,,,,,,,,,,,,,,,,,,,,,,,,,,,,,,,,,,,
,,5dfbefa35777b591c3999842,66fc987b88aba78f66206909,2024-10-02_02h53.01.391,mdp,2024.2.1,Win32,19.91555803,66fa4ebf79326e780c390304,,,,,,,,,,,,,,,,,,,,,357.0008,357.0009,357.0031,358.344,0,1,left,0.7615,,358.3466,358.3484,,0,,358.3499,358.3515,,0,,0,358.3516,358.3516,358.3532,359.8375,0,33,33,33,1,0.4,0.6,0.8,0.2,1,0,,,,,,,,,,,,,,,,,,,,,,,,,,,,,,,,,,,,
,,5dfbefa35777b591c3999842,66fc987b88aba78f66206909,2024-10-02_02h53.01.391,mdp,2024.2.1,Win32,19.91555803,66fa4ebf79326e780c390304,,,,,,,,,,,,,,,,,,,,,359.8381,359.8382,359.8408,360.7453,0,0,left,0.3214,,360.7477,360.7494,,0,,360.751,360.7524,,1,,1,360.7525,360.7526,360.754,362.2298,0,34,34,34,1,0.4,0.6,0.8,0.2,1,0,,,,,,,,,,,,,,,,,,,,,,,,,,,,,,,,,,,,
,,5dfbefa35777b591c3999842,66fc987b88aba78f66206909,2024-10-02_02h53.01.391,mdp,2024.2.1,Win32,19.91555803,66fa4ebf79326e780c390304,,,,,,,,,,,,,,,,,,,,,362.2305,362.2305,362.2332,364.1567,1,1,right,1.3439,,364.1592,364.161,,0,,364.1625,364.1641,,0,,0,364.1641,364.1642,364.1656,365.6537,0,35,35,35,1,0.4,0.6,0.8,0.2,1,0,,,,,,,,,,,,,,,,,,,,,,,,,,,,,,,,,,,,
,,5dfbefa35777b591c3999842,66fc987b88aba78f66206909,2024-10-02_02h53.01.391,mdp,2024.2.1,Win32,19.91555803,66fa4ebf79326e780c390304,,,,,,,,,,,,,,,,,,,,,365.6544,365.6544,365.657,366.7121,1,0,right,0.4707,,366.7146,366.7164,,0,,366.7182,366.7201,,0,,1,366.7201,366.7201,366.722,368.2334,0,36,36,36,1,0.4,0.6,0.8,0.2,1,0,,,,,,,,,,,,,,,,,,,,,,,,,,,,,,,,,,,,
,,5dfbefa35777b591c3999842,66fc987b88aba78f66206909,2024-10-02_02h53.01.391,mdp,2024.2.1,Win32,19.91555803,66fa4ebf79326e780c390304,,,,,,,,,,,,,,,,,,,,,368.2342,368.2342,368.2368,369.1856,0,0,left,0.3717,,369.1879,369.1896,,0,,369.1913,369.1929,,0,,1,369.193,369.193,369.1944,370.6711,0,37,37,37,1,0.4,0.6,0.8,0.2,1,0,,,,,,,,,,,,,,,,,,,,,,,,,,,,,,,,,,,,
,,5dfbefa35777b591c3999842,66fc987b88aba78f66206909,2024-10-02_02h53.01.391,mdp,2024.2.1,Win32,19.91555803,66fa4ebf79326e780c390304,,,,,,,,,,,,,,,,,,,,,370.6717,370.6717,370.6744,372.3657,0,1,left,1.0956,,372.3683,372.3701,,0,,372.3719,372.3736,,1,,0,372.3737,372.3737,372.3758,373.8586,0,38,38,38,1,0.4,0.6,0.8,0.2,1,0,,,,,,,,,,,,,,,,,,,,,,,,,,,,,,,,,,,,
,,5dfbefa35777b591c3999842,66fc987b88aba78f66206909,2024-10-02_02h53.01.391,mdp,2024.2.1,Win32,19.91555803,66fa4ebf79326e780c390304,,,,,,,,,,,,,,,,,,,,,373.8593,373.8593,373.8621,374.7765,1,1,right,0.3304,,374.7788,374.7808,,0,,374.7828,374.7844,,0,,0,374.7845,374.7845,374.786,376.2943,0,39,39,39,1,0.4,0.6,0.8,0.2,1,0,,,,,,,,,,,,,,,,,,,,,,,,,,,,,,,,,,,,
,,5dfbefa35777b591c3999842,66fc987b88aba78f66206909,2024-10-02_02h53.01.391,mdp,2024.2.1,Win32,19.91555803,66fa4ebf79326e780c390304,,,,,,,,,,,,,,,,,,,,,376.2949,376.2949,376.2973,377.2377,1,0,right,0.3406,,377.2396,377.2414,,0,,377.2432,377.2448,,1,,1,377.2449,377.2449,377.2465,378.7182,0,40,40,40,1,0.4,0.6,0.8,0.2,1,0,,,,,,,,,,,,,,,,,,,,,,,,,,,,,,,,,,,,
,,5dfbefa35777b591c3999842,66fc987b88aba78f66206909,2024-10-02_02h53.01.391,mdp,2024.2.1,Win32,19.91555803,66fa4ebf79326e780c390304,,,,,,,,,,,,,,,,,,,,,378.7189,378.7189,378.7215,379.7068,0,1,left,0.3983,,379.7094,379.7113,,0,,379.7129,379.7146,,1,,0,379.7147,379.7147,379.7162,381.1806,0,41,41,41,1,0.4,0.6,0.8,0.2,1,0,,,,,,,,,,,,,,,,,,,,,,,,,,,,,,,,,,,,
,,5dfbefa35777b591c3999842,66fc987b88aba78f66206909,2024-10-02_02h53.01.391,mdp,2024.2.1,Win32,19.91555803,66fa4ebf79326e780c390304,,,,,,,,,,,,,,,,,,,,,381.1812,381.1812,381.1837,381.938,0,1,left,0.1564,,381.9404,381.9422,,0,,381.9437,381.9453,,0,,0,381.9455,381.9455,381.9468,383.4362,0,42,42,42,1,0.4,0.6,0.8,0.2,1,0,,,,,,,,,,,,,,,,,,,,,,,,,,,,,,,,,,,,
,,5dfbefa35777b591c3999842,66fc987b88aba78f66206909,2024-10-02_02h53.01.391,mdp,2024.2.1,Win32,19.91555803,66fa4ebf79326e780c390304,,,,,,,,,,,,,,,,,,,,,383.4368,383.4369,383.4394,384.281,1,0,right,0.2586,,384.283,384.2851,,1,,384.2871,384.2902,,0,,1,384.2907,384.2907,384.2924,385.7568,0,43,43,43,1,0.4,0.6,0.8,0.2,1,0,,,,,,,,,,,,,,,,,,,,,,,,,,,,,,,,,,,,
,,5dfbefa35777b591c3999842,66fc987b88aba78f66206909,2024-10-02_02h53.01.391,mdp,2024.2.1,Win32,19.91555803,66fa4ebf79326e780c390304,,,,,,,,,,,,,,,,,,,,,385.7574,385.7575,385.7601,387.2625,0,1,left,0.9029,,387.2649,387.2667,,0,,387.2682,387.2698,,1,,0,387.2699,387.2699,387.2714,388.7309,0,44,44,44,1,0.4,0.6,0.8,0.2,1,0,,,,,,,,,,,,,,,,,,,,,,,,,,,,,,,,,,,,
,,5dfbefa35777b591c3999842,66fc987b88aba78f66206909,2024-10-02_02h53.01.391,mdp,2024.2.1,Win32,19.91555803,66fa4ebf79326e780c390304,,,,,,,,,,,,,,,,,,,,,388.7315,388.7315,388.734,389.3635,0,1,left,0.0486,,389.3657,389.3676,,1,,389.3694,389.3715,,1,,0,389.3716,389.3716,389.3732,390.8353,0,45,45,45,1,0.2,0.8,0.6,0.4,1,0,,,,,,,,,,,,,,,,,,,,,,,,,,,,,,,,,,,,
,,5dfbefa35777b591c3999842,66fc987b88aba78f66206909,2024-10-02_02h53.01.391,mdp,2024.2.1,Win32,19.91555803,66fa4ebf79326e780c390304,,,,,,,,,,,,,,,,,,,,,390.836,390.836,390.8383,391.503,1,0,right,0.1099,,391.5056,391.5077,,1,,391.5093,391.5109,,0,,1,391.511,391.511,391.5126,392.999,0,46,46,46,1,0.2,0.8,0.6,0.4,1,0,,,,,,,,,,,,,,,,,,,,,,,,,,,,,,,,,,,,
,,5dfbefa35777b591c3999842,66fc987b88aba78f66206909,2024-10-02_02h53.01.391,mdp,2024.2.1,Win32,19.91555803,66fa4ebf79326e780c390304,,,,,,,,,,,,,,,,,,,,,392.9997,392.9997,393.002,394.0991,1,1,right,0.489,,394.1016,394.1034,,1,,394.1049,394.1065,,1,,0,394.1067,394.1067,394.1081,395.6018,0,47,47,47,1,0.2,0.8,0.6,0.4,1,0,,,,,,,,,,,,,,,,,,,,,,,,,,,,,,,,,,,,
,,5dfbefa35777b591c3999842,66fc987b88aba78f66206909,2024-10-02_02h53.01.391,mdp,2024.2.1,Win32,19.91555803,66fa4ebf79326e780c390304,,,,,,,,,,,,,,,,,,,,,395.6024,395.6024,395.6051,396.5868,1,0,right,0.3828,,396.5892,396.591,,0,,396.5925,396.594,,1,,1,396.5941,396.5941,396.5954,398.0896,0,48,48,48,1,0.8,0.2,0.4,0.6,1,0,,,,,,,,,,,,,,,,,,,,,,,,,,,,,,,,,,,,
,,5dfbefa35777b591c3999842,66fc987b88aba78f66206909,2024-10-02_02h53.01.391,mdp,2024.2.1,Win32,19.91555803,66fa4ebf79326e780c390304,,,,,,,,,,,,,,,,,,,,,398.0902,398.0903,398.0929,401.5523,0,0,left,2.9099,,401.5879,401.5898,,1,,401.5913,401.5927,,0,,1,401.5928,401.5928,401.5942,403.0702,0,49,49,49,1,0.8,0.2,0.4,0.6,1,0,,,,,,,,,,,,,,,,,,,,,,,,,,,,,,,,,,,,
,,5dfbefa35777b591c3999842,66fc987b88aba78f66206909,2024-10-02_02h53.01.391,mdp,2024.2.1,Win32,19.91555803,66fa4ebf79326e780c390304,,,,,,,,,,,,,,,,,,,,,,,,,,,,,,,,,,,,,,,,,,,,,,,,,,,,,,,,403.0718,461.646,0,0,0,8,1,imgs/goat.png,imgs/lion.png,imgs/giraffe.png,imgs/dog.png,imgs/bear.png,,,,,,,,,,,,,,,,,,,,,,,,
,,5dfbefa35777b591c3999842,66fc987b88aba78f66206909,2024-10-02_02h53.01.391,mdp,2024.2.1,Win32,19.91555803,66fa4ebf79326e780c390304,,,,,,,,,,,,,,2,seqs/st2seq29.csv,461.6819,474.7841,space,12.5067,,474.8358,474.8359,474.8377,476.6434,1,0,right,1.2365,,476.6462,479.0875,1,0,right,479.1269,479.1288,,0,,1,479.1289,479.1289,479.1315,480.5946,0,0,0,0,1,0.6,0.4,0.4,0.6,,,,,,,,,,,,,,,1.8299,,0.6,0.4,0.6,0.4,0.8,0.2,0.6,0.4,1,0,,,,,,,,,,,,
,,5dfbefa35777b591c3999842,66fc987b88aba78f66206909,2024-10-02_02h53.01.391,mdp,2024.2.1,Win32,19.91555803,66fa4ebf79326e780c390304,,,,,,,,,,,,,,,,,,,,,480.5954,480.5954,480.597,482.3947,0,1,left,1.1923,,482.3974,484.2301,1,0,right,484.2326,484.2344,,0,,1,484.2345,484.2345,484.2364,485.718,0,1,1,1,1,0.6,0.4,0.4,0.6,,,,,,,,,,,,,,,1.2258,,0.6,0.4,0.6,0.4,0.8,0.2,0.6,0.4,1,0,,,,,,,,,,,,
,,5dfbefa35777b591c3999842,66fc987b88aba78f66206909,2024-10-02_02h53.01.391,mdp,2024.2.1,Win32,19.91555803,66fa4ebf79326e780c390304,,,,,,,,,,,,,,,,,,,,,485.7188,485.7188,485.7214,487.4954,0,0,left,1.1882,,487.4979,489.2332,0,1,left,489.2359,489.2376,,0,,0,489.2378,489.2378,489.2395,490.7016,0,2,2,2,1,0.6,0.4,0.4,0.6,,,,,,,,,,,,,,,1.1431,,0.4,0.6,0.8,0.2,0.8,0.2,0.6,0.4,1,0,,,,,,,,,,,,
,,5dfbefa35777b591c3999842,66fc987b88aba78f66206909,2024-10-02_02h53.01.391,mdp,2024.2.1,Win32,19.91555803,66fa4ebf79326e780c390304,,,,,,,,,,,,,,,,,,,,,490.7028,490.7028,490.7048,493.1358,1,1,right,1.8472,,493.1377,495.5363,0,0,left,495.5385,495.5409,,0,,1,495.541,495.541,495.5428,497.0502,0,3,3,3,1,0.6,0.4,0.4,0.6,,,,,,,,,,,,,,,1.8057,,0.4,0.6,0.8,0.2,0.8,0.2,0.6,0.4,1,0,,,,,,,,,,,,
,,5dfbefa35777b591c3999842,66fc987b88aba78f66206909,2024-10-02_02h53.01.391,mdp,2024.2.1,Win32,19.91555803,66fa4ebf79326e780c390304,,,,,,,,,,,,,,,,,,,,,497.051,497.051,497.0532,499.2624,1,0,right,1.6098,,499.2641,501.0837,1,1,right,501.0859,501.0875,,0,,0,501.0877,501.0877,501.0892,502.5936,0,4,4,4,1,0.6,0.4,0.4,0.6,,,,,,,,,,,,,,,1.1988,,0.4,0.6,0.8,0.2,0.6,0.4,0.2,0.8,1,0,,,,,,,,,,,,
,,5dfbefa35777b591c3999842,66fc987b88aba78f66206909,2024-10-02_02h53.01.391,mdp,2024.2.1,Win32,19.91555803,66fa4ebf79326e780c390304,,,,,,,,,,,,,,,,,,,,,502.5944,502.5944,502.5965,504.0996,1,1,right,0.9183,,504.1018,506.5459,0,1,left,506.5478,506.5495,,0,,0,506.5496,506.5496,506.5517,508.028,0,5,5,5,1,0.6,0.4,0.4,0.6,,,,,,,,,,,,,,,1.8584,,0.4,0.6,0.8,0.2,0.4,0.6,0.6,0.4,1,0,,,,,,,,,,,,
,,5dfbefa35777b591c3999842,66fc987b88aba78f66206909,2024-10-02_02h53.01.391,mdp,2024.2.1,Win32,19.91555803,66fa4ebf79326e780c390304,,,,,,,,,,,,,,,,,,,,,508.0287,508.0287,508.0304,509.6492,1,1,right,1.0003,,509.6518,511.0884,1,0,right,511.0902,511.0918,,1,,1,511.0919,511.0919,511.0935,512.5645,0,6,6,6,1,0.8,0.2,0.2,0.8,,,,,,,,,,,,,,,0.8565,,0.4,0.6,0.8,0.2,0.4,0.6,0.6,0.4,1,0,,,,,,,,,,,,
,,5dfbefa35777b591c3999842,66fc987b88aba78f66206909,2024-10-02_02h53.01.391,mdp,2024.2.1,Win32,19.91555803,66fa4ebf79326e780c390304,,,,,,,,,,,,,,,,,,,,,512.5653,512.5654,512.567,513.9313,1,1,right,0.7742,,513.9336,515.3847,1,1,right,515.3874,515.3891,,0,,0,515.3892,515.3893,515.3908,516.9021,0,7,7,7,1,0.8,0.2,0.2,0.8,,,,,,,,,,,,,,,0.8565,,0.4,0.6,0.8,0.2,0.2,0.8,0.4,0.6,1,0,,,,,,,,,,,,
,,5dfbefa35777b591c3999842,66fc987b88aba78f66206909,2024-10-02_02h53.01.391,mdp,2024.2.1,Win32,19.91555803,66fa4ebf79326e780c390304,,,,,,,,,,,,,,,,,,,,,516.9036,516.9037,516.9059,518.2262,1,0,right,0.7388,,518.2287,519.6462,0,0,left,519.6488,519.6505,,0,,1,519.6506,519.6506,519.6521,521.1373,0,8,8,8,1,0.8,0.2,0.2,0.8,,,,,,,,,,,,,,,0.814,,0.8,0.2,0.6,0.4,0.2,0.8,0.4,0.6,1,0,,,,,,,,,,,,
,,5dfbefa35777b591c3999842,66fc987b88aba78f66206909,2024-10-02_02h53.01.391,mdp,2024.2.1,Win32,19.91555803,66fa4ebf79326e780c390304,,,,,,,,,,,,,,,,,,,,,521.1384,521.1384,521.1406,522.8908,0,0,left,1.1741,,522.8932,524.4699,0,1,left,524.4725,524.4744,,0,,0,524.4746,524.4746,524.4761,525.9646,0,9,9,9,1,0.8,0.2,0.2,0.8,,,,,,,,,,,,,,,0.9667,,0.8,0.2,0.6,0.4,0.2,0.8,0.4,0.6,1,0,,,,,,,,,,,,
,,5dfbefa35777b591c3999842,66fc987b88aba78f66206909,2024-10-02_02h53.01.391,mdp,2024.2.1,Win32,19.91555803,66fa4ebf79326e780c390304,,,,,,,,,,,,,,,,,,,,,525.9653,525.9653,525.9678,527.2656,0,0,left,0.6999,,527.2679,528.6197,1,0,right,528.6223,528.6242,,0,,1,528.6243,528.6243,528.6259,530.1128,0,10,10,10,1,0.8,0.2,0.2,0.8,,,,,,,,,,,,,,,0.7702,,0.8,0.2,0.6,0.4,0.2,0.8,0.4,0.6,1,0,,,,,,,,,,,,
,,5dfbefa35777b591c3999842,66fc987b88aba78f66206909,2024-10-02_02h53.01.391,mdp,2024.2.1,Win32,19.91555803,66fa4ebf79326e780c390304,,,,,,,,,,,,,,,,,,,,,530.1135,530.1136,530.116,532.3655,1,1,right,1.644,,532.3672,534.5174,0,1,left,534.5201,534.5218,,1,,0,534.522,534.522,534.5233,536.017,0,11,11,11,1,0.8,0.2,0.2,0.8,,,,,,,,,,,,,,,1.5471,,0.8,0.2,0.6,0.4,0.2,0.8,0.4,0.6,1,0,,,,,,,,,,,,
,,5dfbefa35777b591c3999842,66fc987b88aba78f66206909,2024-10-02_02h53.01.391,mdp,2024.2.1,Win32,19.91555803,66fa4ebf79326e780c390304,,,,,,,,,,,,,,,,,,,,,536.0178,536.0179,536.0203,537.8163,1,1,right,1.2459,,537.8187,539.8796,1,0,right,539.882,539.8837,,1,,1,539.8838,539.8838,539.8854,541.3831,0,12,12,12,1,0.8,0.2,0.2,0.8,,,,,,,,,,,,,,,1.4703,,0.6,0.4,0.8,0.2,0.2,0.8,0.4,0.6,1,0,,,,,,,,,,,,
,,5dfbefa35777b591c3999842,66fc987b88aba78f66206909,2024-10-02_02h53.01.391,mdp,2024.2.1,Win32,19.91555803,66fa4ebf79326e780c390304,,,,,,,,,,,,,,,,,,,,,541.3838,541.3838,541.3863,542.8183,0,1,left,0.8411,,542.8208,544.8271,1,1,right,544.8293,544.8311,,0,,0,544.8312,544.8312,544.833,546.2955,0,13,13,13,1,0.8,0.2,0.2,0.8,,,,,,,,,,,,,,,1.4264,,0.6,0.4,0.8,0.2,0.2,0.8,0.4,0.6,1,0,,,,,,,,,,,,
,,5dfbefa35777b591c3999842,66fc987b88aba78f66206909,2024-10-02_02h53.01.391,mdp,2024.2.1,Win32,19.91555803,66fa4ebf79326e780c390304,,,,,,,,,,,,,,,,,,,,,546.2962,546.2962,546.2987,547.5152,0,0,left,0.6168,,547.5177,549.139,1,0,right,549.1409,549.1425,,0,,1,549.1426,549.1426,549.1439,550.6099,0,14,14,14,1,0.8,0.2,0.2,0.8,,,,,,,,,,,,,,,1.0614,,0.6,0.4,0.8,0.2,0.2,0.8,0.4,0.6,1,0,,,,,,,,,,,,
,,5dfbefa35777b591c3999842,66fc987b88aba78f66206909,2024-10-02_02h53.01.391,mdp,2024.2.1,Win32,19.91555803,66fa4ebf79326e780c390304,,,,,,,,,,,,,,,,,,,,,550.6106,550.6106,550.613,552.3126,0,0,left,1.0872,,552.3151,554.1332,0,0,left,554.1357,554.1375,,1,,1,554.1376,554.1376,554.1391,555.6228,0,15,15,15,1,0.8,0.2,0.2,0.8,,,,,,,,,,,,,,,1.2328,,0.6,0.4,0.8,0.2,0.6,0.4,0.2,0.8,1,0,,,,,,,,,,,,
,,5dfbefa35777b591c3999842,66fc987b88aba78f66206909,2024-10-02_02h53.01.391,mdp,2024.2.1,Win32,19.91555803,66fa4ebf79326e780c390304,,,,,,,,,,,,,,,,,,,,,555.6236,555.6236,555.626,556.8903,0,0,left,0.6518,,556.8926,558.4198,1,0,right,558.4223,558.4239,,1,,1,558.424,558.4241,558.4259,559.9096,0,16,16,16,1,0.8,0.2,0.2,0.8,,,,,,,,,,,,,,,0.9281,,0.2,0.8,0.6,0.4,0.6,0.4,0.2,0.8,1,0,,,,,,,,,,,,
,,5dfbefa35777b591c3999842,66fc987b88aba78f66206909,2024-10-02_02h53.01.391,mdp,2024.2.1,Win32,19.91555803,66fa4ebf79326e780c390304,,,,,,,,,,,,,,,,,,,,,559.9103,559.9103,559.9127,561.0408,0,0,left,0.5403,,561.0433,562.8266,0,1,left,562.8291,562.8308,,1,,0,562.8309,562.8309,562.8323,564.3126,0,17,17,17,1,0.8,0.2,0.2,0.8,,,,,,,,,,,,,,,1.1899,,0.2,0.8,0.6,0.4,0.6,0.4,0.2,0.8,1,0,,,,,,,,,,,,
,,5dfbefa35777b591c3999842,66fc987b88aba78f66206909,2024-10-02_02h53.01.391,mdp,2024.2.1,Win32,19.91555803,66fa4ebf79326e780c390304,,,,,,,,,,,,,,,,,,,,,564.3132,564.3133,564.315,565.5516,0,0,left,0.6403,,565.5538,567.3985,0,1,left,567.401,567.4029,,1,,0,567.403,567.403,567.4046,568.8698,0,18,18,18,1,0.8,0.2,0.2,0.8,,,,,,,,,,,,,,,1.2514,,0.2,0.8,0.6,0.4,0.6,0.4,0.2,0.8,1,0,,,,,,,,,,,,
,,5dfbefa35777b591c3999842,66fc987b88aba78f66206909,2024-10-02_02h53.01.391,mdp,2024.2.1,Win32,19.91555803,66fa4ebf79326e780c390304,,,,,,,,,,,,,,,,,,,,,568.8704,568.8705,568.8728,570.0598,0,0,left,0.6036,,570.062,571.2403,1,1,right,571.2428,571.2445,,1,,0,571.2445,571.2446,571.2462,572.7345,0,19,19,19,1,0.8,0.2,0.2,0.8,,,,,,,,,,,,,,,0.5902,,0.2,0.8,0.6,0.4,0.6,0.4,0.2,0.8,1,0,,,,,,,,,,,,
,,5dfbefa35777b591c3999842,66fc987b88aba78f66206909,2024-10-02_02h53.01.391,mdp,2024.2.1,Win32,19.91555803,66fa4ebf79326e780c390304,,,,,,,,,,,,,,,,,,,,,572.7351,572.7352,572.7375,573.9726,0,0,left,0.657,,573.9745,575.2582,0,1,left,575.261,575.2626,,1,,0,575.2627,575.2628,575.2641,576.7741,0,20,20,20,1,0.8,0.2,0.2,0.8,,,,,,,,,,,,,,,0.6897,,0.2,0.8,0.6,0.4,0.4,0.6,0.8,0.2,1,0,,,,,,,,,,,,
,,5dfbefa35777b591c3999842,66fc987b88aba78f66206909,2024-10-02_02h53.01.391,mdp,2024.2.1,Win32,19.91555803,66fa4ebf79326e780c390304,,,,,,,,,,,,,,,,,,,,,576.7748,576.7748,576.7772,577.9961,0,0,left,0.6343,,577.9984,579.3005,0,1,left,579.3028,579.3046,,1,,0,579.3046,579.3046,579.3062,580.7772,0,21,21,21,1,0.8,0.2,0.2,0.8,,,,,,,,,,,,,,,0.7528,,0.2,0.8,0.6,0.4,0.4,0.6,0.8,0.2,1,0,,,,,,,,,,,,
,,5dfbefa35777b591c3999842,66fc987b88aba78f66206909,2024-10-02_02h53.01.391,mdp,2024.2.1,Win32,19.91555803,66fa4ebf79326e780c390304,,,,,,,,,,,,,,,,,,,,,580.7779,580.7779,580.78,582.2587,1,1,right,0.8733,,582.261,583.8807,0,0,left,583.8829,583.8846,,1,,1,583.8847,583.8848,583.8862,585.3946,0,22,22,22,1,0.8,0.2,0.2,0.8,,,,,,,,,,,,,,,1.0268,,0.2,0.8,0.6,0.4,0.4,0.6,0.8,0.2,1,0,,,,,,,,,,,,
,,5dfbefa35777b591c3999842,66fc987b88aba78f66206909,2024-10-02_02h53.01.391,mdp,2024.2.1,Win32,19.91555803,66fa4ebf79326e780c390304,,,,,,,,,,,,,,,,,,,,,585.3952,585.3953,585.3978,587.0223,0,1,left,1.0548,,587.0247,588.2715,1,0,right,588.274,588.2758,,0,,1,588.276,588.276,588.2779,589.7394,0,23,23,23,1,0.8,0.2,0.2,0.8,,,,,,,,,,,,,,,0.6495,,0.2,0.8,0.6,0.4,0.4,0.6,0.8,0.2,1,0,,,,,,,,,,,,
,,5dfbefa35777b591c3999842,66fc987b88aba78f66206909,2024-10-02_02h53.01.391,mdp,2024.2.1,Win32,19.91555803,66fa4ebf79326e780c390304,,,,,,,,,,,,,,,,,,,,,589.7401,589.7402,589.7425,591.933,1,0,right,1.595,,591.9354,593.4771,0,1,left,593.4797,593.4814,,0,,0,593.4816,593.4817,593.4832,594.9766,0,24,24,24,1,0.4,0.6,0.4,0.6,,,,,,,,,,,,,,,0.9339,,0.2,0.8,0.6,0.4,0.4,0.6,0.8,0.2,1,0,,,,,,,,,,,,
,,5dfbefa35777b591c3999842,66fc987b88aba78f66206909,2024-10-02_02h53.01.391,mdp,2024.2.1,Win32,19.91555803,66fa4ebf79326e780c390304,,,,,,,,,,,,,,,,,,,,,594.9774,594.9774,594.9799,596.1448,0,1,left,0.6048,,596.1472,597.9136,0,1,left,597.916,597.9177,,1,,0,597.9178,597.9178,597.9193,599.4168,0,25,25,25,1,0.2,0.8,0.8,0.2,,,,,,,,,,,,,,,1.1911,,0.2,0.8,0.6,0.4,0.4,0.6,0.8,0.2,1,0,,,,,,,,,,,,
,,5dfbefa35777b591c3999842,66fc987b88aba78f66206909,2024-10-02_02h53.01.391,mdp,2024.2.1,Win32,19.91555803,66fa4ebf79326e780c390304,,,,,,,,,,,,,,,,,,,,,599.4174,599.4174,599.4198,600.7917,0,0,left,0.7869,,600.794,602.0291,1,0,right,602.0315,602.0332,,1,,1,602.0334,602.0334,602.0349,603.529,0,26,26,26,1,0.4,0.6,0.4,0.6,,,,,,,,,,,,,,,0.6454,,0.2,0.8,0.6,0.4,0.4,0.6,0.8,0.2,1,0,,,,,,,,,,,,
,,5dfbefa35777b591c3999842,66fc987b88aba78f66206909,2024-10-02_02h53.01.391,mdp,2024.2.1,Win32,19.91555803,66fa4ebf79326e780c390304,,,,,,,,,,,,,,,,,,,,,603.5297,603.5297,603.5321,605.0399,0,0,left,0.9226,,605.0426,606.7001,1,0,right,606.7025,606.7043,,1,,1,606.7043,606.7043,606.7061,608.1606,0,27,27,27,1,0.4,0.6,0.4,0.6,,,,,,,,,,,,,,,1.0786,,0.2,0.8,0.6,0.4,0.4,0.6,0.8,0.2,1,0,,,,,,,,,,,,
,,5dfbefa35777b591c3999842,66fc987b88aba78f66206909,2024-10-02_02h53.01.391,mdp,2024.2.1,Win32,19.91555803,66fa4ebf79326e780c390304,,,,,,,,,,,,,,,,,,,,,608.1613,608.1613,608.1635,609.3606,0,0,left,0.6,,609.3632,610.8717,0,0,left,610.8742,610.8759,,1,,1,610.8759,610.876,610.8775,612.3714,0,28,28,28,1,0.4,0.6,0.4,0.6,,,,,,,,,,,,,,,0.9265,,0.2,0.8,0.6,0.4,0.4,0.6,0.8,0.2,1,0,,,,,,,,,,,,
,,5dfbefa35777b591c3999842,66fc987b88aba78f66206909,2024-10-02_02h53.01.391,mdp,2024.2.1,Win32,19.91555803,66fa4ebf79326e780c390304,,,,,,,,,,,,,,,,,,,,,612.3723,612.3723,612.3743,613.4961,0,0,left,0.5416,,613.4983,614.6787,1,0,right,614.6811,614.6828,,1,,1,614.683,614.683,614.6845,616.1631,0,29,29,29,1,0.4,0.6,0.4,0.6,,,,,,,,,,,,,,,0.5848,,0.2,0.8,0.6,0.4,0.4,0.6,0.8,0.2,1,0,,,,,,,,,,,,
,,5dfbefa35777b591c3999842,66fc987b88aba78f66206909,2024-10-02_02h53.01.391,mdp,2024.2.1,Win32,19.91555803,66fa4ebf79326e780c390304,,,,,,,,,,,,,,,,,,,,,616.1639,616.1639,616.1662,617.3801,0,1,left,0.6506,,617.3823,619.8061,1,0,right,619.8083,619.8102,,0,,1,619.8103,619.8104,619.8116,621.2873,0,30,30,30,1,0.4,0.6,0.4,0.6,,,,,,,,,,,,,,,1.8142,,0.2,0.8,0.6,0.4,0.4,0.6,0.8,0.2,1,0,,,,,,,,,,,,
,,5dfbefa35777b591c3999842,66fc987b88aba78f66206909,2024-10-02_02h53.01.391,mdp,2024.2.1,Win32,19.91555803,66fa4ebf79326e780c390304,,,,,,,,,,,,,,,,,,,,,621.288,621.288,621.2904,622.4663,0,1,left,0.5843,,622.4688,624.3223,0,1,left,624.3248,624.3266,,1,,0,624.3267,624.3267,624.3283,625.8056,0,31,31,31,1,0.4,0.6,0.4,0.6,,,,,,,,,,,,,,,1.2738,,0.2,0.8,0.6,0.4,0.4,0.6,0.8,0.2,1,0,,,,,,,,,,,,
,,5dfbefa35777b591c3999842,66fc987b88aba78f66206909,2024-10-02_02h53.01.391,mdp,2024.2.1,Win32,19.91555803,66fa4ebf79326e780c390304,,,,,,,,,,,,,,,,,,,,,625.8064,625.8064,625.8086,626.8819,0,0,left,0.4743,,626.8841,628.5324,1,0,right,628.5349,628.5369,,0,,1,628.537,628.5371,628.5385,630.0164,0,32,32,32,1,0.4,0.6,0.4,0.6,,,,,,,,,,,,,,,1.0422,,0.2,0.8,0.6,0.4,0.4,0.6,0.8,0.2,1,0,,,,,,,,,,,,
,,5dfbefa35777b591c3999842,66fc987b88aba78f66206909,2024-10-02_02h53.01.391,mdp,2024.2.1,Win32,19.91555803,66fa4ebf79326e780c390304,,,,,,,,,,,,,,,,,,,,,630.017,630.017,630.0195,631.2049,0,1,left,0.6121,,631.2071,633.0588,1,0,right,633.0611,633.0628,,0,,1,633.0629,633.0629,633.0644,634.5599,0,33,33,33,1,0.4,0.6,0.4,0.6,,,,,,,,,,,,,,,1.2448,,0.2,0.8,0.6,0.4,0.4,0.6,0.8,0.2,1,0,,,,,,,,,,,,
,,5dfbefa35777b591c3999842,66fc987b88aba78f66206909,2024-10-02_02h53.01.391,mdp,2024.2.1,Win32,19.91555803,66fa4ebf79326e780c390304,,,,,,,,,,,,,,,,,,,,,634.5605,634.5606,634.5628,635.8493,0,0,left,0.703,,635.8515,637.5531,1,0,right,637.5553,637.5571,,0,,1,637.5573,637.5573,637.5589,639.0609,0,34,34,34,1,0.4,0.6,0.4,0.6,,,,,,,,,,,,,,,1.0951,,0.2,0.8,0.6,0.4,0.4,0.6,0.8,0.2,1,0,,,,,,,,,,,,
,,5dfbefa35777b591c3999842,66fc987b88aba78f66206909,2024-10-02_02h53.01.391,mdp,2024.2.1,Win32,19.91555803,66fa4ebf79326e780c390304,,,,,,,,,,,,,,,,,,,,,639.0615,639.0616,639.0639,640.2563,0,0,left,0.5955,,640.2583,641.7151,1,0,right,641.7174,641.7192,,1,,1,641.7192,641.7192,641.7207,643.1888,0,35,35,35,1,0.4,0.6,0.4,0.6,,,,,,,,,,,,,,,0.8726,,0.2,0.8,0.6,0.4,0.4,0.6,0.8,0.2,1,0,,,,,,,,,,,,
,,5dfbefa35777b591c3999842,66fc987b88aba78f66206909,2024-10-02_02h53.01.391,mdp,2024.2.1,Win32,19.91555803,66fa4ebf79326e780c390304,,,,,,,,,,,,,,,,,,,,,643.1901,643.1901,643.1923,644.195,0,1,left,0.4272,,644.1975,645.794,1,0,right,645.7964,645.798,,0,,1,645.7981,645.7981,645.7996,647.2927,0,36,36,36,1,0.4,0.6,0.4,0.6,,,,,,,,,,,,,,,1.0301,,0.2,0.8,0.6,0.4,0.4,0.6,0.8,0.2,1,0,,,,,,,,,,,,
,,5dfbefa35777b591c3999842,66fc987b88aba78f66206909,2024-10-02_02h53.01.391,mdp,2024.2.1,Win32,19.91555803,66fa4ebf79326e780c390304,,,,,,,,,,,,,,,,,,,,,647.2935,647.2935,647.296,648.434,0,1,left,0.5754,,648.4364,649.7191,1,0,right,649.7208,649.7225,,0,,1,649.7227,649.7227,649.7246,651.1872,0,37,37,37,1,0.4,0.6,0.4,0.6,,,,,,,,,,,,,,,0.6877,,0.2,0.8,0.6,0.4,0.4,0.6,0.8,0.2,1,0,,,,,,,,,,,,
,,5dfbefa35777b591c3999842,66fc987b88aba78f66206909,2024-10-02_02h53.01.391,mdp,2024.2.1,Win32,19.91555803,66fa4ebf79326e780c390304,,,,,,,,,,,,,,,,,,,,,651.1879,651.1879,651.1897,652.2616,0,1,left,0.4903,,652.2638,653.6455,1,0,right,653.6474,653.6495,,1,,1,653.6495,653.6496,653.6513,655.1573,0,38,38,38,1,0.4,0.6,0.4,0.6,,,,,,,,,,,,,,,0.7838,,0.4,0.6,0.4,0.6,0.4,0.6,0.8,0.2,1,0,,,,,,,,,,,,
,,5dfbefa35777b591c3999842,66fc987b88aba78f66206909,2024-10-02_02h53.01.391,mdp,2024.2.1,Win32,19.91555803,66fa4ebf79326e780c390304,,,,,,,,,,,,,,,,,,,,,655.158,655.158,655.1604,656.3674,0,0,left,0.6095,,656.37,657.6986,1,0,right,657.7011,657.7027,,1,,1,657.7029,657.7029,657.7044,659.1675,0,39,39,39,1,0.4,0.6,0.4,0.6,,,,,,,,,,,,,,,0.732,,0.4,0.6,0.4,0.6,0.4,0.6,0.8,0.2,1,0,,,,,,,,,,,,
,,5dfbefa35777b591c3999842,66fc987b88aba78f66206909,2024-10-02_02h53.01.391,mdp,2024.2.1,Win32,19.91555803,66fa4ebf79326e780c390304,,,,,,,,,,,,,,,,,,,,,659.1683,659.1683,659.1703,660.3,0,1,left,0.5411,,660.3029,661.5545,1,0,right,661.5569,661.5587,,0,,1,661.5588,661.5588,661.5606,663.0666,0,40,40,40,1,0.4,0.6,0.4,0.6,,,,,,,,,,,,,,,0.6418,,0.4,0.6,0.4,0.6,0.4,0.6,0.8,0.2,1,0,,,,,,,,,,,,
,,5dfbefa35777b591c3999842,66fc987b88aba78f66206909,2024-10-02_02h53.01.391,mdp,2024.2.1,Win32,19.91555803,66fa4ebf79326e780c390304,,,,,,,,,,,,,,,,,,,,,663.0674,663.0674,663.0697,664.056,0,0,left,0.4368,,664.0585,665.3589,1,1,right,665.3615,665.3633,,0,,0,665.3635,665.3635,665.3652,666.8447,0,41,41,41,1,0.2,0.8,0.6,0.4,,,,,,,,,,,,,,,0.6925,,0.4,0.6,0.4,0.6,0.4,0.6,0.8,0.2,1,0,,,,,,,,,,,,
,,5dfbefa35777b591c3999842,66fc987b88aba78f66206909,2024-10-02_02h53.01.391,mdp,2024.2.1,Win32,19.91555803,66fa4ebf79326e780c390304,,,,,,,,,,,,,,,,,,,,,666.8456,666.8457,666.8482,667.9352,0,1,left,0.4858,,667.9378,669.4034,1,0,right,669.4059,669.4078,,0,,1,669.4078,669.4079,669.4095,670.8745,0,42,42,42,1,0.2,0.8,0.6,0.4,,,,,,,,,,,,,,,0.8683,,0.4,0.6,0.4,0.6,0.4,0.6,0.8,0.2,1,0,,,,,,,,,,,,
,,5dfbefa35777b591c3999842,66fc987b88aba78f66206909,2024-10-02_02h53.01.391,mdp,2024.2.1,Win32,19.91555803,66fa4ebf79326e780c390304,,,,,,,,,,,,,,,,,,,,,670.8752,670.8752,670.8776,671.9493,0,1,left,0.4747,,671.9511,673.2612,1,0,right,673.2637,673.2654,,1,,1,673.2655,673.2655,673.2669,674.7837,0,43,43,43,1,0.2,0.8,0.6,0.4,,,,,,,,,,,,,,,0.733,,0.4,0.6,0.4,0.6,0.8,0.2,0.6,0.4,1,0,,,,,,,,,,,,
,,5dfbefa35777b591c3999842,66fc987b88aba78f66206909,2024-10-02_02h53.01.391,mdp,2024.2.1,Win32,19.91555803,66fa4ebf79326e780c390304,,,,,,,,,,,,,,,,,,,,,674.7845,674.7845,674.7869,675.8376,0,0,left,0.4789,,675.8399,677.3481,0,1,left,677.3499,677.3516,,1,,0,677.3518,677.3518,677.3532,678.826,0,44,44,44,1,0.2,0.8,0.6,0.4,,,,,,,,,,,,,,,0.8955,,0.2,0.8,0.6,0.4,0.8,0.2,0.6,0.4,1,0,,,,,,,,,,,,
,,5dfbefa35777b591c3999842,66fc987b88aba78f66206909,2024-10-02_02h53.01.391,mdp,2024.2.1,Win32,19.91555803,66fa4ebf79326e780c390304,,,,,,,,,,,,,,,,,,,,,678.8268,678.8268,678.8291,679.8549,0,1,left,0.4758,,679.8571,681.1673,1,1,right,681.1691,681.1706,,0,,0,681.1708,681.1708,681.1721,682.6213,0,45,45,45,1,0.2,0.8,0.6,0.4,,,,,,,,,,,,,,,0.6925,,0.2,0.8,0.6,0.4,0.8,0.2,0.6,0.4,1,0,,,,,,,,,,,,
,,5dfbefa35777b591c3999842,66fc987b88aba78f66206909,2024-10-02_02h53.01.391,mdp,2024.2.1,Win32,19.91555803,66fa4ebf79326e780c390304,,,,,,,,,,,,,,,,,,,,,682.6221,682.6221,682.6245,683.5947,0,1,left,0.3729,,683.5971,685.209,1,1,right,685.2111,685.213,,1,,0,685.213,685.213,685.2146,686.6846,0,46,46,46,1,0.2,0.8,0.6,0.4,,,,,,,,,,,,,,,1.0333,,0.2,0.8,0.6,0.4,0.8,0.2,0.6,0.4,1,0,,,,,,,,,,,,
,,5dfbefa35777b591c3999842,66fc987b88aba78f66206909,2024-10-02_02h53.01.391,mdp,2024.2.1,Win32,19.91555803,66fa4ebf79326e780c390304,,,,,,,,,,,,,,,,,,,,,686.6853,686.6853,686.6877,687.6585,0,1,left,0.3603,,687.6611,688.8335,0,0,left,688.8361,688.838,,1,,1,688.838,688.8381,688.8396,690.3063,0,47,47,47,1,0.2,0.8,0.6,0.4,,,,,,,,,,,,,,,0.5986,,0.2,0.8,0.6,0.4,0.8,0.2,0.6,0.4,1,0,,,,,,,,,,,,
,,5dfbefa35777b591c3999842,66fc987b88aba78f66206909,2024-10-02_02h53.01.391,mdp,2024.2.1,Win32,19.91555803,66fa4ebf79326e780c390304,,,,,,,,,,,,,,,,,,,,,690.307,690.307,690.3094,691.3868,0,1,left,0.4791,,691.389,692.6329,0,1,left,692.6351,692.6367,,1,,0,692.6368,692.6368,692.6383,694.1506,0,48,48,48,1,0.2,0.8,0.6,0.4,,,,,,,,,,,,,,,0.6535,,0.2,0.8,0.6,0.4,0.2,0.8,0.4,0.6,1,0,,,,,,,,,,,,
,,5dfbefa35777b591c3999842,66fc987b88aba78f66206909,2024-10-02_02h53.01.391,mdp,2024.2.1,Win32,19.91555803,66fa4ebf79326e780c390304,,,,,,,,,,,,,,,,,,,,,694.1514,694.1514,694.1538,695.3252,0,1,left,0.5901,,695.3277,696.9969,1,0,right,696.9993,697.001,,1,,1,697.0011,697.0011,697.0027,698.5281,0,49,49,49,1,0.2,0.8,0.6,0.4,,,,,,,,,,,,,,,1.1133,,0.2,0.8,0.6,0.4,0.2,0.8,0.4,0.6,1,0,,,,,,,,,,,,
,,5dfbefa35777b591c3999842,66fc987b88aba78f66206909,2024-10-02_02h53.01.391,mdp,2024.2.1,Win32,19.91555803,66fa4ebf79326e780c390304,,,,,,,,,,,,,,,,,,,,,,,,,,,,,,,,,,,,,,,,,,,,,,,,,,,,,,,,698.5284,757.0173,0,1,1,4,1,imgs/goat.png,imgs/cat.png,imgs/elephant.png,imgs/dog.png,imgs/kangaroo.png,,,,,,,,,,,,,,,,,,,,,,,,
,,5dfbefa35777b591c3999842,66fc987b88aba78f66206909,2024-10-02_02h53.01.391,mdp,2024.2.1,Win32,19.91555803,66fa4ebf79326e780c390304,,,,,,,,,,,,,,3,seqs/st3seq43.csv,757.056,762.4785,space,4.839,,762.5429,762.5429,762.5448,764.0668,0,0,left,0.9386,,764.0692,766.1758,0,1,left,766.1782,767.6297,1,0,right,1,767.6299,767.6299,767.6322,769.1344,0,0,0,0,1,0.6,0.4,0.4,0.6,,,,,,,,,,,,,,,1.4975,,0.2,0.8,0.8,0.2,0.6,0.4,0.4,0.6,,,0.8602,,0.8,0.2,0.4,0.6,0.6,0.4,0.2,0.8,1,0
,,5dfbefa35777b591c3999842,66fc987b88aba78f66206909,2024-10-02_02h53.01.391,mdp,2024.2.1,Win32,19.91555803,66fa4ebf79326e780c390304,,,,,,,,,,,,,,,,,,,,,769.1359,769.136,769.1381,770.8266,0,0,left,1.0914,,770.829,772.8429,0,0,left,772.8452,774.1959,1,1,right,0,774.196,774.196,774.1983,775.6968,0,1,1,1,1,0.6,0.4,0.4,0.6,,,,,,,,,,,,,,,1.4216,,0.4,0.6,0.2,0.8,0.6,0.4,0.4,0.6,,,0.7101,,0.8,0.2,0.4,0.6,0.6,0.4,0.2,0.8,1,0
,,5dfbefa35777b591c3999842,66fc987b88aba78f66206909,2024-10-02_02h53.01.391,mdp,2024.2.1,Win32,19.91555803,66fa4ebf79326e780c390304,,,,,,,,,,,,,,,,,,,,,775.6977,775.6977,775.7002,776.9681,0,1,left,0.7177,,776.9706,778.4042,1,0,right,778.4068,779.9136,1,0,right,1,779.9137,779.9138,779.9162,781.4231,0,2,2,2,1,0.6,0.4,0.4,0.6,,,,,,,,,,,,,,,0.8218,,0.4,0.6,0.2,0.8,0.6,0.4,0.4,0.6,,,0.9226,,0.8,0.2,0.4,0.6,0.6,0.4,0.2,0.8,1,0
,,5dfbefa35777b591c3999842,66fc987b88aba78f66206909,2024-10-02_02h53.01.391,mdp,2024.2.1,Win32,19.91555803,66fa4ebf79326e780c390304,,,,,,,,,,,,,,,,,,,,,781.4239,781.424,781.4263,783.9389,0,1,left,1.9234,,783.9412,786.1072,0,0,left,786.1095,787.349,1,0,right,1,787.3492,787.3492,787.3516,788.8315,0,3,3,3,1,0.6,0.4,0.4,0.6,,,,,,,,,,,,,,,1.6174,,0.4,0.6,0.2,0.8,0.6,0.4,0.4,0.6,,,0.6418,,0.8,0.2,0.4,0.6,0.6,0.4,0.2,0.8,1,0
,,5dfbefa35777b591c3999842,66fc987b88aba78f66206909,2024-10-02_02h53.01.391,mdp,2024.2.1,Win32,19.91555803,66fa4ebf79326e780c390304,,,,,,,,,,,,,,,,,,,,,788.8323,788.8323,788.8349,790.4922,0,0,left,1.0684,,790.494,792.5408,1,1,right,792.5431,793.9159,1,1,right,0,793.916,793.9161,793.9184,795.3833,0,4,4,4,1,0.6,0.4,0.4,0.6,,,,,,,,,,,,,,,1.4273,,0.4,0.6,0.2,0.8,0.6,0.4,0.4,0.6,,,0.765,,0.8,0.2,0.4,0.6,0.6,0.4,0.2,0.8,1,0
,,5dfbefa35777b591c3999842,66fc987b88aba78f66206909,2024-10-02_02h53.01.391,mdp,2024.2.1,Win32,19.91555803,66fa4ebf79326e780c390304,,,,,,,,,,,,,,,,,,,,,795.3851,795.3852,795.3873,796.673,0,0,left,0.6904,,796.6754,798.1092,1,1,right,798.1119,799.3416,0,1,left,0,799.3417,799.3417,799.3443,800.8331,0,5,5,5,1,0.6,0.4,0.4,0.6,,,,,,,,,,,,,,,0.8525,,0.4,0.6,0.2,0.8,0.6,0.4,0.4,0.6,,,0.6375,,0.8,0.2,0.4,0.6,0.6,0.4,0.2,0.8,1,0
,,5dfbefa35777b591c3999842,66fc987b88aba78f66206909,2024-10-02_02h53.01.391,mdp,2024.2.1,Win32,19.91555803,66fa4ebf79326e780c390304,,,,,,,,,,,,,,,,,,,,,800.8339,800.8339,800.8357,802.0871,0,0,left,0.6737,,802.0891,804.141,0,1,left,804.1435,805.7283,1,1,right,0,805.7285,805.7285,805.7307,807.1818,0,6,6,6,1,0.6,0.4,0.4,0.6,,,,,,,,,,,,,,,1.471,,0.4,0.6,0.2,0.8,0.6,0.4,0.4,0.6,,,0.9876,,0.8,0.2,0.4,0.6,0.6,0.4,0.2,0.8,1,0
,,5dfbefa35777b591c3999842,66fc987b88aba78f66206909,2024-10-02_02h53.01.391,mdp,2024.2.1,Win32,19.91555803,66fa4ebf79326e780c390304,,,,,,,,,,,,,,,,,,,,,807.1826,807.1826,807.1851,808.3857,0,1,left,0.6195,,808.388,809.9758,1,1,right,809.9787,811.1124,0,0,left,1,811.1126,811.1126,811.1142,812.614,0,7,7,7,1,0.6,0.4,0.4,0.6,,,,,,,,,,,,,,,0.979,,0.4,0.6,0.2,0.8,0.6,0.4,0.4,0.6,,,0.538,,0.8,0.2,0.4,0.6,0.6,0.4,0.2,0.8,1,0
,,5dfbefa35777b591c3999842,66fc987b88aba78f66206909,2024-10-02_02h53.01.391,mdp,2024.2.1,Win32,19.91555803,66fa4ebf79326e780c390304,,,,,,,,,,,,,,,,,,,,,812.6149,812.6149,812.6173,813.6801,0,1,left,0.4685,,813.6828,815.3205,1,1,right,815.323,817.0433,0,1,left,0,817.0434,817.0434,817.0459,818.5123,0,8,8,8,1,0.6,0.4,0.4,0.6,,,,,,,,,,,,,,,1.0539,,0.4,0.6,0.2,0.8,0.6,0.4,0.4,0.6,,,1.1235,,0.8,0.2,0.4,0.6,0.6,0.4,0.2,0.8,1,0
,,5dfbefa35777b591c3999842,66fc987b88aba78f66206909,2024-10-02_02h53.01.391,mdp,2024.2.1,Win32,19.91555803,66fa4ebf79326e780c390304,,,,,,,,,,,,,,,,,,,,,818.5131,818.5131,818.5153,819.6593,0,0,left,0.5459,,819.6616,821.2021,1,1,right,821.2044,822.6717,1,1,right,0,822.6724,822.6724,822.6746,824.1585,0,9,9,9,1,0.6,0.4,0.4,0.6,,,,,,,,,,,,,,,0.9589,,0.4,0.6,0.2,0.8,0.6,0.4,0.4,0.6,,,0.8851,,0.8,0.2,0.4,0.6,0.2,0.8,0.6,0.4,1,0
,,5dfbefa35777b591c3999842,66fc987b88aba78f66206909,2024-10-02_02h53.01.391,mdp,2024.2.1,Win32,19.91555803,66fa4ebf79326e780c390304,,,,,,,,,,,,,,,,,,,,,824.1593,824.1593,824.1618,826.1322,0,1,left,1.3874,,826.1348,827.751,0,0,left,827.7537,829.3743,0,1,left,0,829.3745,829.3745,829.3766,830.8666,0,10,10,10,1,0.6,0.4,0.4,0.6,,,,,,,,,,,,,,,1.009,,0.4,0.6,0.2,0.8,0.6,0.4,0.4,0.6,,,1.0214,,0.8,0.2,0.4,0.6,0.4,0.6,0.2,0.8,1,0
,,5dfbefa35777b591c3999842,66fc987b88aba78f66206909,2024-10-02_02h53.01.391,mdp,2024.2.1,Win32,19.91555803,66fa4ebf79326e780c390304,,,,,,,,,,,,,,,,,,,,,830.8674,830.8675,830.8697,832.1304,0,0,left,0.6718,,832.1327,833.1312,1,1,right,833.1338,834.0535,0,1,left,0,834.0536,834.0537,834.0559,835.5239,0,11,11,11,1,0.6,0.4,0.4,0.6,,,,,,,,,,,,,,,0.3877,,0.4,0.6,0.2,0.8,0.6,0.4,0.4,0.6,,,0.3122,,0.8,0.2,0.4,0.6,0.2,0.8,0.8,0.2,1,0
,,5dfbefa35777b591c3999842,66fc987b88aba78f66206909,2024-10-02_02h53.01.391,mdp,2024.2.1,Win32,19.91555803,66fa4ebf79326e780c390304,,,,,,,,,,,,,,,,,,,,,835.5253,835.5253,835.5269,836.6456,1,0,right,0.5343,,836.6484,837.9176,0,0,left,837.9212,839.4452,1,1,right,0,839.4454,839.4454,839.4478,840.9311,0,12,12,12,1,0.6,0.4,0.4,0.6,,,,,,,,,,,,,,,0.6735,,0.8,0.2,0.8,0.2,0.6,0.4,0.4,0.6,,,0.9048,,0.8,0.2,0.4,0.6,0.2,0.8,0.8,0.2,1,0
,,5dfbefa35777b591c3999842,66fc987b88aba78f66206909,2024-10-02_02h53.01.391,mdp,2024.2.1,Win32,19.91555803,66fa4ebf79326e780c390304,,,,,,,,,,,,,,,,,,,,,840.9321,840.9322,840.9339,842.1123,1,1,right,0.59,,842.1148,843.7977,1,1,right,843.8002,844.7797,0,1,left,0,844.7799,844.7799,844.7821,846.2514,0,13,13,13,1,0.6,0.4,0.4,0.6,,,,,,,,,,,,,,,1.0764,,0.8,0.2,0.8,0.2,0.6,0.4,0.4,0.6,,,0.3868,,0.8,0.2,0.4,0.6,0.2,0.8,0.8,0.2,1,0
,,5dfbefa35777b591c3999842,66fc987b88aba78f66206909,2024-10-02_02h53.01.391,mdp,2024.2.1,Win32,19.91555803,66fa4ebf79326e780c390304,,,,,,,,,,,,,,,,,,,,,846.2522,846.2522,846.2546,847.4369,1,0,right,0.5853,,847.4394,848.6246,0,0,left,848.6263,850.5314,1,1,right,0,850.5316,850.5316,850.5341,852.0045,0,14,14,14,1,0.6,0.4,0.4,0.6,,,,,,,,,,,,,,,0.5781,,0.8,0.2,0.8,0.2,0.6,0.4,0.4,0.6,,,1.2812,,0.8,0.2,0.4,0.6,0.2,0.8,0.8,0.2,1,0
,,5dfbefa35777b591c3999842,66fc987b88aba78f66206909,2024-10-02_02h53.01.391,mdp,2024.2.1,Win32,19.91555803,66fa4ebf79326e780c390304,,,,,,,,,,,,,,,,,,,,,852.0054,852.0054,852.0076,853.0726,0,0,left,0.4897,,853.0747,856.1912,0,0,left,856.1938,857.6788,1,1,right,0,857.679,857.679,857.6815,859.1534,0,15,15,15,1,0.6,0.4,0.4,0.6,,,,,,,,,,,,,,,2.5242,,0.8,0.2,0.8,0.2,0.6,0.4,0.4,0.6,,,0.9018,,0.8,0.2,0.4,0.6,0.2,0.8,0.8,0.2,1,0
,,5dfbefa35777b591c3999842,66fc987b88aba78f66206909,2024-10-02_02h53.01.391,mdp,2024.2.1,Win32,19.91555803,66fa4ebf79326e780c390304,,,,,,,,,,,,,,,,,,,,,859.1562,859.1562,859.1579,860.1955,0,0,left,0.4454,,860.1982,861.2147,1,0,right,861.2172,862.4963,0,0,left,1,862.4965,862.4965,862.499,863.9869,0,16,16,16,1,0.6,0.4,0.4,0.6,,,,,,,,,,,,,,,0.4251,,0.8,0.2,0.8,0.2,0.6,0.4,0.4,0.6,,,0.704,,0.6,0.4,0.2,0.8,0.2,0.8,0.8,0.2,1,0
,,5dfbefa35777b591c3999842,66fc987b88aba78f66206909,2024-10-02_02h53.01.391,mdp,2024.2.1,Win32,19.91555803,66fa4ebf79326e780c390304,,,,,,,,,,,,,,,,,,,,,863.9878,863.9878,863.9904,865.2718,0,1,left,0.6886,,865.2741,866.4914,1,0,right,866.4931,867.6495,1,1,right,0,867.6497,867.6497,867.6526,869.1581,0,17,17,17,1,0.6,0.4,0.4,0.6,,,,,,,,,,,,,,,0.5942,,0.8,0.2,0.8,0.2,0.6,0.4,0.4,0.6,,,0.545,,0.6,0.4,0.2,0.8,0.2,0.8,0.8,0.2,1,0
,,5dfbefa35777b591c3999842,66fc987b88aba78f66206909,2024-10-02_02h53.01.391,mdp,2024.2.1,Win32,19.91555803,66fa4ebf79326e780c390304,,,,,,,,,,,,,,,,,,,,,869.1589,869.1589,869.1614,870.183,0,0,left,0.4378,,870.1849,871.5891,1,0,right,871.5915,873.1099,0,1,left,0,873.11,873.11,873.1128,874.5909,0,18,18,18,1,0.6,0.4,0.4,0.6,,,,,,,,,,,,,,,0.7985,,0.8,0.2,0.8,0.2,0.6,0.4,0.4,0.6,,,0.9066,,0.6,0.4,0.2,0.8,0.2,0.8,0.8,0.2,1,0
,,5dfbefa35777b591c3999842,66fc987b88aba78f66206909,2024-10-02_02h53.01.391,mdp,2024.2.1,Win32,19.91555803,66fa4ebf79326e780c390304,,,,,,,,,,,,,,,,,,,,,874.5919,874.5919,874.5941,876.0646,0,0,left,0.889,,876.0672,878.4091,0,0,left,878.4109,879.7412,1,1,right,0,879.7414,879.7414,879.7431,881.2067,0,19,19,19,1,0.6,0.4,0.4,0.6,,,,,,,,,,,,,,,1.7456,,0.8,0.2,0.8,0.2,0.6,0.4,0.4,0.6,,,0.7536,,0.6,0.4,0.2,0.8,0.2,0.8,0.8,0.2,1,0
,,5dfbefa35777b591c3999842,66fc987b88aba78f66206909,2024-10-02_02h53.01.391,mdp,2024.2.1,Win32,19.91555803,66fa4ebf79326e780c390304,,,,,,,,,,,,,,,,,,,,,881.2078,881.2078,881.2106,882.3326,1,0,right,0.5246,,882.3349,884.6091,1,0,right,884.6118,885.662,0,0,left,1,885.6623,885.6623,885.6645,887.1327,0,20,20,20,1,0.6,0.4,0.4,0.6,,,,,,,,,,,,,,,1.6789,,0.8,0.2,0.8,0.2,0.6,0.4,0.4,0.6,,,0.4746,,0.6,0.4,0.2,0.8,0.2,0.8,0.8,0.2,1,0
,,5dfbefa35777b591c3999842,66fc987b88aba78f66206909,2024-10-02_02h53.01.391,mdp,2024.2.1,Win32,19.91555803,66fa4ebf79326e780c390304,,,,,,,,,,,,,,,,,,,,,887.134,887.134,887.136,888.464,1,0,right,0.736,,888.4662,889.7555,1,1,right,889.758,891.489,0,1,left,0,891.4891,891.4891,891.4913,892.9566,0,21,21,21,1,0.6,0.4,0.4,0.6,,,,,,,,,,,,,,,0.6914,,0.8,0.2,0.8,0.2,0.6,0.4,0.4,0.6,,,1.1446,,0.6,0.4,0.2,0.8,0.2,0.8,0.8,0.2,1,0
,,5dfbefa35777b591c3999842,66fc987b88aba78f66206909,2024-10-02_02h53.01.391,mdp,2024.2.1,Win32,19.91555803,66fa4ebf79326e780c390304,,,,,,,,,,,,,,,,,,,,,892.9574,892.9574,892.9598,894.2079,1,0,right,0.6488,,894.2101,895.461,1,0,right,895.4636,897.0243,1,1,right,0,897.0245,897.0245,897.027,898.5119,0,22,22,22,1,0.6,0.4,0.4,0.6,,,,,,,,,,,,,,,0.7011,,0.8,0.2,0.8,0.2,0.6,0.4,0.4,0.6,,,0.9649,,0.6,0.4,0.2,0.8,0.4,0.6,0.2,0.8,1,0
,,5dfbefa35777b591c3999842,66fc987b88aba78f66206909,2024-10-02_02h53.01.391,mdp,2024.2.1,Win32,19.91555803,66fa4ebf79326e780c390304,,,,,,,,,,,,,,,,,,,,,898.5127,898.5127,898.515,900.1915,0,0,left,1.0826,,900.1939,902.7169,1,1,right,902.7192,904.0797,0,0,left,1,904.0799,904.0799,904.0824,905.5646,0,23,23,23,1,0.6,0.4,0.4,0.6,,,,,,,,,,,,,,,1.9394,,0.8,0.2,0.8,0.2,0.6,0.4,0.4,0.6,,,0.7868,,0.6,0.4,0.2,0.8,0.4,0.6,0.2,0.8,1,0
,,5dfbefa35777b591c3999842,66fc987b88aba78f66206909,2024-10-02_02h53.01.391,mdp,2024.2.1,Win32,19.91555803,66fa4ebf79326e780c390304,,,,,,,,,,,,,,,,,,,,,905.5655,905.5655,905.5677,907.0276,0,0,left,0.8528,,907.03,908.949,1,0,right,908.9515,910.3041,0,1,left,0,910.3042,910.3043,910.3065,911.7731,0,24,24,24,1,0.6,0.4,0.4,0.6,,,,,,,,,,,,,,,1.3213,,0.8,0.2,0.8,0.2,0.4,0.6,0.8,0.2,,,0.7599,,0.6,0.4,0.2,0.8,0.4,0.6,0.2,0.8,1,0
,,5dfbefa35777b591c3999842,66fc987b88aba78f66206909,2024-10-02_02h53.01.391,mdp,2024.2.1,Win32,19.91555803,66fa4ebf79326e780c390304,,,,,,,,,,,,,,,,,,,,,911.774,911.774,911.7764,912.7912,0,0,left,0.4218,,912.7935,914.6285,1,0,right,914.6311,915.9604,1,1,right,0,915.9606,915.9606,915.9629,917.4326,0,25,25,25,1,0.6,0.4,0.4,0.6,,,,,,,,,,,,,,,1.2343,,0.8,0.2,0.8,0.2,0.4,0.6,0.8,0.2,,,0.7455,,0.6,0.4,0.2,0.8,0.4,0.6,0.2,0.8,1,0
,,5dfbefa35777b591c3999842,66fc987b88aba78f66206909,2024-10-02_02h53.01.391,mdp,2024.2.1,Win32,19.91555803,66fa4ebf79326e780c390304,,,,,,,,,,,,,,,,,,,,,917.4335,917.4335,917.4358,918.4494,0,0,left,0.4294,,918.4518,919.7617,0,1,left,919.7641,920.7628,1,1,right,0,920.763,920.763,920.7654,922.2427,0,26,26,26,1,0.6,0.4,0.4,0.6,,,,,,,,,,,,,,,0.7586,,0.8,0.2,0.8,0.2,0.4,0.6,0.8,0.2,,,0.3887,,0.6,0.4,0.2,0.8,0.4,0.6,0.2,0.8,1,0
,,5dfbefa35777b591c3999842,66fc987b88aba78f66206909,2024-10-02_02h53.01.391,mdp,2024.2.1,Win32,19.91555803,66fa4ebf79326e780c390304,,,,,,,,,,,,,,,,,,,,,922.2436,922.2436,922.2453,923.3882,1,0,right,0.5458,,923.3906,924.3705,0,0,left,924.3732,925.2075,0,0,left,1,925.2076,925.2077,925.2103,926.7133,0,27,27,27,1,0.6,0.4,0.4,0.6,,,,,,,,,,,,,,,0.3971,,0.8,0.2,0.8,0.2,0.4,0.6,0.8,0.2,,,0.208,,0.6,0.4,0.2,0.8,0.4,0.6,0.2,0.8,1,0
,,5dfbefa35777b591c3999842,66fc987b88aba78f66206909,2024-10-02_02h53.01.391,mdp,2024.2.1,Win32,19.91555803,66fa4ebf79326e780c390304,,,,,,,,,,,,,,,,,,,,,926.7146,926.7147,926.7165,927.7493,1,1,right,0.4353,,927.7518,929.1405,1,0,right,929.143,930.1217,0,0,left,1,930.1219,930.1219,930.1243,931.6247,0,28,28,28,1,0.6,0.4,0.4,0.6,,,,,,,,,,,,,,,0.7989,,0.8,0.2,0.8,0.2,0.4,0.6,0.8,0.2,,,0.3702,,0.6,0.4,0.2,0.8,0.6,0.4,0.8,0.2,1,0
,,5dfbefa35777b591c3999842,66fc987b88aba78f66206909,2024-10-02_02h53.01.391,mdp,2024.2.1,Win32,19.91555803,66fa4ebf79326e780c390304,,,,,,,,,,,,,,,,,,,,,931.6255,931.6255,931.628,933.1293,1,1,right,0.902,,933.1317,934.604,1,0,right,934.6062,935.5713,0,1,left,0,935.5713,935.5714,935.5739,937.072,0,29,29,29,1,0.6,0.4,0.4,0.6,,,,,,,,,,,,,,,0.8731,,0.8,0.2,0.8,0.2,0.4,0.6,0.8,0.2,,,0.3704,,0.4,0.6,0.8,0.2,0.6,0.4,0.8,0.2,1,0
,,5dfbefa35777b591c3999842,66fc987b88aba78f66206909,2024-10-02_02h53.01.391,mdp,2024.2.1,Win32,19.91555803,66fa4ebf79326e780c390304,,,,,,,,,,,,,,,,,,,,,937.0729,937.0729,937.0754,938.0428,1,1,right,0.3859,,938.0452,939.1288,0,1,left,939.1312,940.0952,1,0,right,1,940.0953,940.0953,940.0975,941.5853,0,30,30,30,1,0.6,0.4,0.4,0.6,,,,,,,,,,,,,,,0.4864,,0.8,0.2,0.8,0.2,0.4,0.6,0.8,0.2,,,0.3689,,0.4,0.6,0.8,0.2,0.6,0.4,0.8,0.2,1,0
,,5dfbefa35777b591c3999842,66fc987b88aba78f66206909,2024-10-02_02h53.01.391,mdp,2024.2.1,Win32,19.91555803,66fa4ebf79326e780c390304,,,,,,,,,,,,,,,,,,,,,941.5861,941.5862,941.5886,942.7011,1,1,right,0.5288,,942.7038,943.9579,0,1,left,943.9604,945.1926,0,0,left,1,945.1927,945.1927,945.1952,946.6982,0,31,31,31,1,0.6,0.4,0.4,0.6,,,,,,,,,,,,,,,0.6584,,0.8,0.2,0.8,0.2,0.4,0.6,0.8,0.2,,,0.6356,,0.4,0.6,0.8,0.2,0.6,0.4,0.8,0.2,1,0
,,5dfbefa35777b591c3999842,66fc987b88aba78f66206909,2024-10-02_02h53.01.391,mdp,2024.2.1,Win32,19.91555803,66fa4ebf79326e780c390304,,,,,,,,,,,,,,,,,,,,,946.6996,946.6998,946.7018,947.9047,1,1,right,0.6036,,947.9069,949.2073,1,0,right,949.2092,950.5581,0,1,left,0,950.5582,950.5582,950.5607,952.0624,0,32,32,32,1,0.6,0.4,0.4,0.6,,,,,,,,,,,,,,,0.7075,,0.8,0.2,0.8,0.2,0.4,0.6,0.8,0.2,,,0.7592,,0.4,0.6,0.8,0.2,0.6,0.4,0.8,0.2,1,0
,,5dfbefa35777b591c3999842,66fc987b88aba78f66206909,2024-10-02_02h53.01.391,mdp,2024.2.1,Win32,19.91555803,66fa4ebf79326e780c390304,,,,,,,,,,,,,,,,,,,,,952.0633,952.0633,952.0656,953.1987,1,0,right,0.5421,,953.2005,954.8024,0,0,left,954.8047,955.9909,1,0,right,1,955.991,955.9911,955.9936,957.492,0,33,33,33,1,0.6,0.4,0.4,0.6,,,,,,,,,,,,,,,1.0249,,0.8,0.2,0.8,0.2,0.4,0.6,0.8,0.2,,,0.6238,,0.4,0.6,0.8,0.2,0.6,0.4,0.8,0.2,1,0
,,5dfbefa35777b591c3999842,66fc987b88aba78f66206909,2024-10-02_02h53.01.391,mdp,2024.2.1,Win32,19.91555803,66fa4ebf79326e780c390304,,,,,,,,,,,,,,,,,,,,,957.4929,957.4929,957.4953,959.4051,1,0,right,1.3142,,959.4075,961.3716,0,0,left,961.3738,962.5589,0,1,left,0,962.5591,962.5591,962.5609,964.0263,0,34,34,34,1,0.6,0.4,0.4,0.6,,,,,,,,,,,,,,,1.3823,,0.8,0.2,0.8,0.2,0.4,0.6,0.8,0.2,,,0.5884,,0.4,0.6,0.8,0.2,0.6,0.4,0.8,0.2,1,0
,,5dfbefa35777b591c3999842,66fc987b88aba78f66206909,2024-10-02_02h53.01.391,mdp,2024.2.1,Win32,19.91555803,66fa4ebf79326e780c390304,,,,,,,,,,,,,,,,,,,,,964.0271,964.0271,964.0295,965.6605,0,1,left,1.033,,965.663,967.1377,1,1,right,967.1402,969.3551,0,0,left,1,969.3553,969.3553,969.3579,970.8307,0,35,35,35,1,0.6,0.4,0.4,0.6,,,,,,,,,,,,,,,0.8633,,0.8,0.2,0.8,0.2,0.4,0.6,0.8,0.2,,,1.6237,,0.4,0.6,0.8,0.2,0.6,0.4,0.8,0.2,1,0
,,5dfbefa35777b591c3999842,66fc987b88aba78f66206909,2024-10-02_02h53.01.391,mdp,2024.2.1,Win32,19.91555803,66fa4ebf79326e780c390304,,,,,,,,,,,,,,,,,,,,,970.8317,970.8317,970.8341,972.2433,0,1,left,0.8102,,972.2457,973.6845,1,0,right,973.6869,974.9228,1,1,right,0,974.9231,974.9231,974.9255,976.3762,0,36,36,36,1,0.6,0.4,0.4,0.6,,,,,,,,,,,,,,,0.8496,,0.8,0.2,0.8,0.2,0.4,0.6,0.8,0.2,,,0.6465,,0.4,0.6,0.8,0.2,0.6,0.4,0.8,0.2,1,0
,,5dfbefa35777b591c3999842,66fc987b88aba78f66206909,2024-10-02_02h53.01.391,mdp,2024.2.1,Win32,19.91555803,66fa4ebf79326e780c390304,,,,,,,,,,,,,,,,,,,,,976.377,976.377,976.3795,977.7279,0,0,left,0.749,,977.7312,979.3524,0,1,left,979.355,980.5706,1,0,right,1,980.5708,980.5708,980.5733,982.0737,0,37,37,37,1,0.6,0.4,0.4,0.6,,,,,,,,,,,,,,,1.0348,,0.8,0.2,0.8,0.2,0.4,0.6,0.8,0.2,,,0.5941,,0.4,0.6,0.8,0.2,0.6,0.4,0.8,0.2,1,0
,,5dfbefa35777b591c3999842,66fc987b88aba78f66206909,2024-10-02_02h53.01.391,mdp,2024.2.1,Win32,19.91555803,66fa4ebf79326e780c390304,,,,,,,,,,,,,,,,,,,,,982.0745,982.0745,982.0768,983.7936,0,1,left,1.1413,,983.7963,985.5171,1,0,right,985.5197,987.2013,0,0,left,1,987.2015,987.2016,987.2036,988.7121,0,38,38,38,1,0.6,0.4,0.4,0.6,,,,,,,,,,,,,,,1.1433,,0.8,0.2,0.8,0.2,0.4,0.6,0.8,0.2,,,1.1213,,0.4,0.6,0.8,0.2,0.6,0.4,0.8,0.2,1,0
,,5dfbefa35777b591c3999842,66fc987b88aba78f66206909,2024-10-02_02h53.01.391,mdp,2024.2.1,Win32,19.91555803,66fa4ebf79326e780c390304,,,,,,,,,,,,,,,,,,,,,988.713,988.713,988.7147,989.9472,0,0,left,0.6392,,989.949,991.6519,0,0,left,991.6544,992.8379,1,0,right,1,992.8381,992.8381,992.8403,994.3555,0,39,39,39,1,0.6,0.4,0.4,0.6,,,,,,,,,,,,,,,1.0976,,0.8,0.2,0.8,0.2,0.4,0.6,0.8,0.2,,,0.597,,0.4,0.6,0.8,0.2,0.6,0.4,0.8,0.2,1,0
,,5dfbefa35777b591c3999842,66fc987b88aba78f66206909,2024-10-02_02h53.01.391,mdp,2024.2.1,Win32,19.91555803,66fa4ebf79326e780c390304,,,,,,,,,,,,,,,,,,,,,994.3564,994.3564,994.3588,995.5072,0,1,left,0.5522,,995.5098,996.8131,1,1,right,996.8153,998.0272,0,0,left,1,998.0274,998.0274,998.0298,999.5383,0,40,40,40,1,0.6,0.4,0.4,0.6,,,,,,,,,,,,,,,0.6941,,0.8,0.2,0.8,0.2,0.4,0.6,0.8,0.2,,,0.5882,,0.4,0.6,0.8,0.2,0.6,0.4,0.8,0.2,1,0
,,5dfbefa35777b591c3999842,66fc987b88aba78f66206909,2024-10-02_02h53.01.391,mdp,2024.2.1,Win32,19.91555803,66fa4ebf79326e780c390304,,,,,,,,,,,,,,,,,,,,,999.5392,999.5392,999.5415,1000.8126,0,1,left,0.6952,,1000.8151,1003.2436,1,0,right,1003.2457,1004.701,1,0,right,1,1004.7012,1004.7012,1004.7035,1006.1898,0,41,41,41,1,0.4,0.6,0.8,0.2,,,,,,,,,,,,,,,1.8318,,0.8,0.2,0.8,0.2,0.4,0.6,0.8,0.2,,,0.8654,,0.4,0.6,0.8,0.2,0.6,0.4,0.8,0.2,1,0
,,5dfbefa35777b591c3999842,66fc987b88aba78f66206909,2024-10-02_02h53.01.391,mdp,2024.2.1,Win32,19.91555803,66fa4ebf79326e780c390304,,,,,,,,,,,,,,,,,,,,,1006.1906,1006.1906,1006.193,1007.4236,0,1,left,0.6494,,1007.4262,1008.8764,1,0,right,1008.8788,1010.4462,1,0,right,1,1010.4463,1010.4463,1010.449,1011.9199,0,42,42,42,1,0.4,0.6,0.8,0.2,,,,,,,,,,,,,,,0.8345,,0.8,0.2,0.8,0.2,0.4,0.6,0.8,0.2,,,0.9678,,0.4,0.6,0.8,0.2,0.6,0.4,0.8,0.2,1,0
,,5dfbefa35777b591c3999842,66fc987b88aba78f66206909,2024-10-02_02h53.01.391,mdp,2024.2.1,Win32,19.91555803,66fa4ebf79326e780c390304,,,,,,,,,,,,,,,,,,,,,1011.9208,1011.9209,1011.9233,1013.0744,0,1,left,0.5863,,1013.0765,1014.5909,1,0,right,1014.5936,1015.7654,1,0,right,1,1015.7656,1015.7656,1015.7683,1017.2821,0,43,43,43,1,0.4,0.6,0.8,0.2,,,,,,,,,,,,,,,0.9368,,0.8,0.2,0.8,0.2,0.4,0.6,0.8,0.2,,,0.5868,,0.4,0.6,0.8,0.2,0.6,0.4,0.8,0.2,1,0
,,5dfbefa35777b591c3999842,66fc987b88aba78f66206909,2024-10-02_02h53.01.391,mdp,2024.2.1,Win32,19.91555803,66fa4ebf79326e780c390304,,,,,,,,,,,,,,,,,,,,,1017.283,1017.283,1017.2854,1018.5676,0,0,left,0.7025,,1018.57,1020.1574,0,0,left,1020.1599,1021.5005,1,0,right,1,1021.5007,1021.5007,1021.5025,1022.974,0,44,44,44,1,0.4,0.6,0.8,0.2,,,,,,,,,,,,,,,0.9936,,0.8,0.2,0.8,0.2,0.4,0.6,0.8,0.2,,,0.7582,,0.4,0.6,0.8,0.2,0.6,0.4,0.8,0.2,1,0
,,5dfbefa35777b591c3999842,66fc987b88aba78f66206909,2024-10-02_02h53.01.391,mdp,2024.2.1,Win32,19.91555803,66fa4ebf79326e780c390304,,,,,,,,,,,,,,,,,,,,,1022.9749,1022.975,1022.977,1024.2122,0,1,left,0.6469,,1024.2148,1025.5675,1,0,right,1025.57,1027.1107,0,1,left,0,1027.1108,1027.1108,1027.1134,1028.5753,0,45,45,45,1,0.4,0.6,0.8,0.2,,,,,,,,,,,,,,,0.756,,0.8,0.2,0.8,0.2,0.4,0.6,0.8,0.2,,,0.9545,,0.4,0.6,0.8,0.2,0.6,0.4,0.8,0.2,1,0
,,5dfbefa35777b591c3999842,66fc987b88aba78f66206909,2024-10-02_02h53.01.391,mdp,2024.2.1,Win32,19.91555803,66fa4ebf79326e780c390304,,,,,,,,,,,,,,,,,,,,,1028.5762,1028.5762,1028.5787,1029.7698,0,1,left,0.6401,,1029.7723,1031.3392,1,0,right,1031.3416,1032.526,1,1,right,0,1032.5262,1032.5262,1032.5283,1033.9937,0,46,46,46,1,0.4,0.6,0.8,0.2,,,,,,,,,,,,,,,0.9744,,0.8,0.2,0.8,0.2,0.4,0.6,0.8,0.2,,,0.6019,,0.2,0.8,0.4,0.6,0.6,0.4,0.8,0.2,1,0
,,5dfbefa35777b591c3999842,66fc987b88aba78f66206909,2024-10-02_02h53.01.391,mdp,2024.2.1,Win32,19.91555803,66fa4ebf79326e780c390304,,,,,,,,,,,,,,,,,,,,,1033.9947,1033.9947,1033.997,1035.0467,0,1,left,0.4875,,1035.049,1036.9688,0,1,left,1036.9712,1038.1186,1,0,right,1,1038.1186,1038.1187,1038.1216,1039.5881,0,47,47,47,1,0.4,0.6,0.8,0.2,,,,,,,,,,,,,,,1.3352,,0.8,0.2,0.8,0.2,0.4,0.6,0.8,0.2,,,0.5548,,0.2,0.8,0.4,0.6,0.6,0.4,0.8,0.2,1,0
,,5dfbefa35777b591c3999842,66fc987b88aba78f66206909,2024-10-02_02h53.01.391,mdp,2024.2.1,Win32,19.91555803,66fa4ebf79326e780c390304,,,,,,,,,,,,,,,,,,,,,1039.5891,1039.5891,1039.5914,1040.8493,0,0,left,0.657,,1040.8517,1042.4844,1,0,right,1042.4869,1043.8517,1,1,right,0,1043.8519,1043.8519,1043.8544,1045.3259,0,48,48,48,1,0.4,0.6,0.8,0.2,,,,,,,,,,,,,,,1.0358,,0.8,0.2,0.8,0.2,0.4,0.6,0.8,0.2,,,0.7578,,0.2,0.8,0.4,0.6,0.6,0.4,0.8,0.2,1,0
,,5dfbefa35777b591c3999842,66fc987b88aba78f66206909,2024-10-02_02h53.01.391,mdp,2024.2.1,Win32,19.91555803,66fa4ebf79326e780c390304,,,,,,,,,,,,,,,,,,,,,1045.3267,1045.3267,1045.3287,1046.4617,0,1,left,0.5517,,1046.4642,1048.3616,0,0,left,1048.3642,1049.5029,1,1,right,0,1049.5031,1049.5031,1049.5051,1051.0011,0,49,49,49,1,0.4,0.6,0.8,0.2,,,,,,,,,,,,,,,1.3009,,0.8,0.2,0.8,0.2,0.6,0.4,0.4,0.6,,,0.5355,,0.2,0.8,0.4,0.6,0.6,0.4,0.8,0.2,1,0
,,5dfbefa35777b591c3999842,66fc987b88aba78f66206909,2024-10-02_02h53.01.391,mdp,2024.2.1,Win32,19.91555803,66fa4ebf79326e780c390304,,,,,,,,,,,,,,,,,,,,,,,,,,,,,,,,,,,,,,,,,,,,,,,,,,,,,,,,1051.0013,1109.522,0,2,2,3,1,imgs/cat.png,imgs/kangaroo.png,imgs/horse.png,imgs/squirrel.png,imgs/rabbit.png,,,,,,,,,,,,,,,,,,,,,,,,
,,5dfbefa35777b591c3999842,66fc987b88aba78f66206909,2024-10-02_02h53.01.391,mdp,2024.2.1,Win32,19.91555803,66fa4ebf79326e780c390304,,,,,,,,,,,,,,3,seqs/st3seq4.csv,1109.5572,1119.5688,space,9.4171,,1119.6271,1119.6272,1119.6301,1121.8592,0,0,left,1.6236,,1121.8611,1123.2445,0,0,left,1123.2472,1124.433,1,0,right,1,1124.4331,1124.4332,1124.4354,1125.9138,0,0,0,0,1,0.8,0.2,0.2,0.8,,,,,,,,,,,,,,,0.7599,,0.8,0.2,0.8,0.2,0.4,0.6,0.6,0.4,,,0.5874,,0.8,0.2,0.4,0.6,0.2,0.8,0.6,0.4,1,0
,,5dfbefa35777b591c3999842,66fc987b88aba78f66206909,2024-10-02_02h53.01.391,mdp,2024.2.1,Win32,19.91555803,66fa4ebf79326e780c390304,,,,,,,,,,,,,,,,,,,,,1125.9148,1125.9148,1125.9172,1127.1859,0,0,left,0.6841,,1127.1884,1129.0629,0,0,left,1129.0654,1130.2802,1,1,right,0,1130.2804,1130.2804,1130.2828,1131.7662,0,1,1,1,1,0.8,0.2,0.2,0.8,,,,,,,,,,,,,,,1.2921,,0.8,0.2,0.8,0.2,0.4,0.6,0.6,0.4,,,0.6157,,0.8,0.2,0.4,0.6,0.2,0.8,0.6,0.4,1,0
,,5dfbefa35777b591c3999842,66fc987b88aba78f66206909,2024-10-02_02h53.01.391,mdp,2024.2.1,Win32,19.91555803,66fa4ebf79326e780c390304,,,,,,,,,,,,,,,,,,,,,1131.7671,1131.7671,1131.7696,1132.9214,0,0,left,0.5694,,1132.923,1134.255,1,0,right,1134.2572,1135.3923,1,1,right,0,1135.3924,1135.3924,1135.3941,1136.8941,0,2,2,2,1,0.8,0.2,0.2,0.8,,,,,,,,,,,,,,,0.7703,,0.8,0.2,0.8,0.2,0.4,0.6,0.6,0.4,,,0.5339,,0.8,0.2,0.4,0.6,0.2,0.8,0.6,0.4,1,0
,,5dfbefa35777b591c3999842,66fc987b88aba78f66206909,2024-10-02_02h53.01.391,mdp,2024.2.1,Win32,19.91555803,66fa4ebf79326e780c390304,,,,,,,,,,,,,,,,,,,,,1136.8949,1136.8949,1136.8975,1138.1011,0,0,left,0.6201,,1138.1036,1139.6885,0,0,left,1139.6909,1140.7055,1,0,right,1,1140.7057,1140.7057,1140.7085,1142.21,0,3,3,3,1,0.8,0.2,0.2,0.8,,,,,,,,,,,,,,,0.9871,,0.8,0.2,0.8,0.2,0.4,0.6,0.6,0.4,,,0.4174,,0.8,0.2,0.4,0.6,0.2,0.8,0.6,0.4,1,0
,,5dfbefa35777b591c3999842,66fc987b88aba78f66206909,2024-10-02_02h53.01.391,mdp,2024.2.1,Win32,19.91555803,66fa4ebf79326e780c390304,,,,,,,,,,,,,,,,,,,,,1142.2109,1142.2109,1142.2132,1143.296,0,0,left,0.5012,,1143.2984,1145.0329,1,0,right,1145.0353,1146.2232,0,0,left,1,1146.2234,1146.2234,1146.2258,1147.6911,0,4,4,4,1,0.8,0.2,0.2,0.8,,,,,,,,,,,,,,,1.1365,,0.8,0.2,0.8,0.2,0.4,0.6,0.6,0.4,,,0.6209,,0.8,0.2,0.4,0.6,0.2,0.8,0.6,0.4,1,0
,,5dfbefa35777b591c3999842,66fc987b88aba78f66206909,2024-10-02_02h53.01.391,mdp,2024.2.1,Win32,19.91555803,66fa4ebf79326e780c390304,,,,,,,,,,,,,,,,,,,,,1147.692,1147.692,1147.6944,1149.1619,0,1,left,0.8677,,1149.1658,1150.4847,0,0,left,1150.4875,1151.5028,1,1,right,0,1151.5029,1151.5029,1151.5052,1152.9569,0,5,5,5,1,0.8,0.2,0.2,0.8,,,,,,,,,,,,,,,0.7313,,0.8,0.2,0.8,0.2,0.4,0.6,0.6,0.4,,,0.4177,,0.8,0.2,0.4,0.6,0.2,0.8,0.6,0.4,1,0
,,5dfbefa35777b591c3999842,66fc987b88aba78f66206909,2024-10-02_02h53.01.391,mdp,2024.2.1,Win32,19.91555803,66fa4ebf79326e780c390304,,,,,,,,,,,,,,,,,,,,,1152.9578,1152.9578,1152.9599,1154.1642,0,0,left,0.6047,,1154.1667,1156.0622,1,1,right,1156.0649,1157.4218,1,0,right,1,1157.4219,1157.422,1157.4244,1158.8898,0,6,6,6,1,0.8,0.2,0.2,0.8,,,,,,,,,,,,,,,1.3026,,0.8,0.2,0.8,0.2,0.4,0.6,0.6,0.4,,,0.7428,,0.8,0.2,0.4,0.6,0.2,0.8,0.6,0.4,1,0
,,5dfbefa35777b591c3999842,66fc987b88aba78f66206909,2024-10-02_02h53.01.391,mdp,2024.2.1,Win32,19.91555803,66fa4ebf79326e780c390304,,,,,,,,,,,,,,,,,,,,,1158.8932,1158.8932,1158.8948,1160.1254,0,0,left,0.643,,1160.1281,1161.6722,0,0,left,1161.6742,1162.7981,1,1,right,0,1162.7983,1162.7983,1162.8005,1164.2641,0,7,7,7,1,0.8,0.2,0.2,0.8,,,,,,,,,,,,,,,0.9752,,0.8,0.2,0.8,0.2,0.4,0.6,0.6,0.4,,,0.5274,,0.8,0.2,0.4,0.6,0.2,0.8,0.6,0.4,1,0
,,5dfbefa35777b591c3999842,66fc987b88aba78f66206909,2024-10-02_02h53.01.391,mdp,2024.2.1,Win32,19.91555803,66fa4ebf79326e780c390304,,,,,,,,,,,,,,,,,,,,,1164.2649,1164.2649,1164.2672,1165.7114,0,0,left,0.8666,,1165.7135,1166.9135,1,0,right,1166.9156,1168.053,0,0,left,1,1168.0532,1168.0532,1168.0553,1169.5301,0,8,8,8,1,0.8,0.2,0.2,0.8,,,,,,,,,,,,,,,0.5901,,0.8,0.2,0.8,0.2,0.4,0.6,0.6,0.4,,,0.5216,,0.8,0.2,0.4,0.6,0.2,0.8,0.6,0.4,1,0
,,5dfbefa35777b591c3999842,66fc987b88aba78f66206909,2024-10-02_02h53.01.391,mdp,2024.2.1,Win32,19.91555803,66fa4ebf79326e780c390304,,,,,,,,,,,,,,,,,,,,,1169.531,1169.531,1169.5332,1170.8531,0,1,left,0.7354,,1170.8553,1172.4091,1,0,right,1172.4115,1173.5791,1,0,right,1,1173.5792,1173.5792,1173.5811,1175.0946,0,9,9,9,1,0.8,0.2,0.2,0.8,,,,,,,,,,,,,,,0.9292,,0.8,0.2,0.8,0.2,0.4,0.6,0.6,0.4,,,0.5718,,0.8,0.2,0.4,0.6,0.2,0.8,0.6,0.4,1,0
,,5dfbefa35777b591c3999842,66fc987b88aba78f66206909,2024-10-02_02h53.01.391,mdp,2024.2.1,Win32,19.91555803,66fa4ebf79326e780c390304,,,,,,,,,,,,,,,,,,,,,1175.0954,1175.0955,1175.0977,1176.4583,0,0,left,0.7928,,1176.4608,1177.7053,0,0,left,1177.7076,1178.7567,1,1,right,0,1178.7567,1178.7568,1178.7589,1180.2479,0,10,10,10,1,0.8,0.2,0.2,0.8,,,,,,,,,,,,,,,0.6412,,0.8,0.2,0.8,0.2,0.4,0.6,0.6,0.4,,,0.4655,,0.8,0.2,0.4,0.6,0.2,0.8,0.6,0.4,1,0
,,5dfbefa35777b591c3999842,66fc987b88aba78f66206909,2024-10-02_02h53.01.391,mdp,2024.2.1,Win32,19.91555803,66fa4ebf79326e780c390304,,,,,,,,,,,,,,,,,,,,,1180.2489,1180.249,1180.2504,1181.402,0,1,left,0.5393,,1181.4044,1183.0872,1,1,right,1183.0897,1184.6208,1,1,right,0,1184.6209,1184.6209,1184.6234,1186.0934,0,11,11,11,1,0.8,0.2,0.2,0.8,,,,,,,,,,,,,,,1.0759,,0.8,0.2,0.8,0.2,0.4,0.6,0.6,0.4,,,0.9419,,0.8,0.2,0.4,0.6,0.2,0.8,0.6,0.4,1,0
,,5dfbefa35777b591c3999842,66fc987b88aba78f66206909,2024-10-02_02h53.01.391,mdp,2024.2.1,Win32,19.91555803,66fa4ebf79326e780c390304,,,,,,,,,,,,,,,,,,,,,1186.0942,1186.0942,1186.0965,1187.1323,0,0,left,0.4853,,1187.1347,1188.1198,1,0,right,1188.1222,1189.1347,0,0,left,1,1189.1348,1189.1348,1189.1371,1190.623,0,12,12,12,1,0.8,0.2,0.2,0.8,,,,,,,,,,,,,,,0.3827,,0.8,0.2,0.8,0.2,0.4,0.6,0.6,0.4,,,0.4499,,0.8,0.2,0.4,0.6,0.2,0.8,0.6,0.4,1,0
,,5dfbefa35777b591c3999842,66fc987b88aba78f66206909,2024-10-02_02h53.01.391,mdp,2024.2.1,Win32,19.91555803,66fa4ebf79326e780c390304,,,,,,,,,,,,,,,,,,,,,1190.6239,1190.6239,1190.6261,1191.7995,0,1,left,0.5939,,1191.8016,1192.8401,0,1,left,1192.8427,1193.8297,1,0,right,1,1193.8299,1193.8299,1193.8321,1195.3006,0,13,13,13,1,0.8,0.2,0.2,0.8,,,,,,,,,,,,,,,0.4229,,0.8,0.2,0.8,0.2,0.4,0.6,0.6,0.4,,,0.3767,,0.2,0.8,0.6,0.4,0.2,0.8,0.6,0.4,1,0
,,5dfbefa35777b591c3999842,66fc987b88aba78f66206909,2024-10-02_02h53.01.391,mdp,2024.2.1,Win32,19.91555803,66fa4ebf79326e780c390304,,,,,,,,,,,,,,,,,,,,,1195.3015,1195.3016,1195.304,1196.0577,0,0,left,0.1712,,1196.0595,1197.0671,1,0,right,1197.0696,1197.9902,0,1,left,0,1197.9903,1197.9903,1197.9926,1199.4965,0,14,14,14,1,0.8,0.2,0.2,0.8,,,,,,,,,,,,,,,0.3894,,0.8,0.2,0.8,0.2,0.4,0.6,0.6,0.4,,,0.3277,,0.2,0.8,0.6,0.4,0.2,0.8,0.6,0.4,1,0
,,5dfbefa35777b591c3999842,66fc987b88aba78f66206909,2024-10-02_02h53.01.391,mdp,2024.2.1,Win32,19.91555803,66fa4ebf79326e780c390304,,,,,,,,,,,,,,,,,,,,,1199.4973,1199.4973,1199.4997,1200.717,0,1,left,0.6369,,1200.7187,1201.7046,0,0,left,1201.707,1202.6518,1,0,right,1,1202.6521,1202.6521,1202.6543,1204.1555,0,15,15,15,1,0.8,0.2,0.2,0.8,,,,,,,,,,,,,,,0.4225,,0.8,0.2,0.8,0.2,0.4,0.6,0.6,0.4,,,0.3512,,0.2,0.8,0.6,0.4,0.2,0.8,0.6,0.4,1,0
,,5dfbefa35777b591c3999842,66fc987b88aba78f66206909,2024-10-02_02h53.01.391,mdp,2024.2.1,Win32,19.91555803,66fa4ebf79326e780c390304,,,,,,,,,,,,,,,,,,,,,1204.1564,1204.1564,1204.1589,1204.9756,0,0,left,0.219,,1204.9781,1205.7958,1,0,right,1205.7979,1206.7638,0,1,left,0,1206.764,1206.764,1206.7663,1208.2463,0,16,16,16,1,0.8,0.2,0.2,0.8,,,,,,,,,,,,,,,0.2228,,0.8,0.2,0.8,0.2,0.4,0.6,0.6,0.4,,,0.3854,,0.2,0.8,0.6,0.4,0.6,0.4,0.8,0.2,1,0
,,5dfbefa35777b591c3999842,66fc987b88aba78f66206909,2024-10-02_02h53.01.391,mdp,2024.2.1,Win32,19.91555803,66fa4ebf79326e780c390304,,,,,,,,,,,,,,,,,,,,,1208.2472,1208.2472,1208.2493,1209.1704,0,0,left,0.3321,,1209.1729,1210.1398,0,0,left,1210.1419,1211.0261,1,0,right,1,1211.0262,1211.0263,1211.0284,1212.4977,0,17,17,17,1,0.8,0.2,0.2,0.8,,,,,,,,,,,,,,,0.387,,0.8,0.2,0.8,0.2,0.4,0.6,0.6,0.4,,,0.2721,,0.2,0.8,0.6,0.4,0.6,0.4,0.8,0.2,1,0
,,5dfbefa35777b591c3999842,66fc987b88aba78f66206909,2024-10-02_02h53.01.391,mdp,2024.2.1,Win32,19.91555803,66fa4ebf79326e780c390304,,,,,,,,,,,,,,,,,,,,,1212.4985,1212.4986,1212.5001,1213.4899,0,0,left,0.4293,,1213.4926,1214.4343,1,0,right,1214.4368,1215.4581,1,1,right,0,1215.4582,1215.4582,1215.4599,1216.935,0,18,18,18,1,0.8,0.2,0.2,0.8,,,,,,,,,,,,,,,0.3844,,0.8,0.2,0.8,0.2,0.4,0.6,0.6,0.4,,,0.4213,,0.2,0.8,0.6,0.4,0.6,0.4,0.8,0.2,1,0
,,5dfbefa35777b591c3999842,66fc987b88aba78f66206909,2024-10-02_02h53.01.391,mdp,2024.2.1,Win32,19.91555803,66fa4ebf79326e780c390304,,,,,,,,,,,,,,,,,,,,,1216.936,1216.936,1216.9381,1217.7243,0,0,left,0.2005,,1217.726,1218.6134,0,0,left,1218.6157,1219.5057,1,0,right,1,1219.5059,1219.5059,1219.5083,1221.0017,0,19,19,19,1,0.4,0.6,0.6,0.4,,,,,,,,,,,,,,,0.3199,,0.8,0.2,0.8,0.2,0.4,0.6,0.6,0.4,,,0.312,,0.2,0.8,0.6,0.4,0.6,0.4,0.8,0.2,1,0
,,5dfbefa35777b591c3999842,66fc987b88aba78f66206909,2024-10-02_02h53.01.391,mdp,2024.2.1,Win32,19.91555803,66fa4ebf79326e780c390304,,,,,,,,,,,,,,,,,,,,,1221.0027,1221.0027,1221.0048,1222.0291,0,1,left,0.426,,1222.0314,1222.9076,0,0,left,1222.9097,1223.8226,1,0,right,1,1223.8228,1223.8228,1223.8249,1225.2991,0,20,20,20,1,0.4,0.6,0.6,0.4,,,,,,,,,,,,,,,0.2736,,0.8,0.2,0.8,0.2,0.4,0.6,0.6,0.4,,,0.3633,,0.2,0.8,0.6,0.4,0.6,0.4,0.8,0.2,1,0
,,5dfbefa35777b591c3999842,66fc987b88aba78f66206909,2024-10-02_02h53.01.391,mdp,2024.2.1,Win32,19.91555803,66fa4ebf79326e780c390304,,,,,,,,,,,,,,,,,,,,,1225.3006,1225.3008,1225.3025,1225.9812,0,1,left,0.1145,,1225.9836,1226.9587,0,1,left,1226.9613,1227.7824,1,1,right,0,1227.7825,1227.7825,1227.785,1229.2742,0,21,21,21,1,0.4,0.6,0.6,0.4,,,,,,,,,,,,,,,0.3629,,0.8,0.2,0.8,0.2,0.4,0.6,0.6,0.4,,,0.2201,,0.2,0.8,0.6,0.4,0.6,0.4,0.8,0.2,1,0
,,5dfbefa35777b591c3999842,66fc987b88aba78f66206909,2024-10-02_02h53.01.391,mdp,2024.2.1,Win32,19.91555803,66fa4ebf79326e780c390304,,,,,,,,,,,,,,,,,,,,,1229.2751,1229.2751,1229.2774,1229.8574,0,1,left,0.0013,,1229.8597,1230.7652,1,1,right,1230.7673,1231.6156,0,0,left,1,1231.6158,1231.6159,1231.618,1233.0688,0,22,22,22,1,0.4,0.6,0.6,0.4,,,,,,,,,,,,,,,0.3235,,0.8,0.2,0.8,0.2,0.4,0.6,0.6,0.4,,,0.2578,,0.2,0.8,0.6,0.4,0.6,0.4,0.8,0.2,1,0
,,5dfbefa35777b591c3999842,66fc987b88aba78f66206909,2024-10-02_02h53.01.391,mdp,2024.2.1,Win32,19.91555803,66fa4ebf79326e780c390304,,,,,,,,,,,,,,,,,,,,,1233.0697,1233.0698,1233.0721,1233.6531,0,1,left,0.0013,,1233.6556,1234.5875,1,1,right,1234.5899,1235.4418,0,0,left,1,1235.4419,1235.4419,1235.4442,1236.9602,0,23,23,23,1,0.4,0.6,0.6,0.4,,,,,,,,,,,,,,,0.3832,,0.8,0.2,0.8,0.2,0.4,0.6,0.6,0.4,,,0.2625,,0.2,0.8,0.6,0.4,0.6,0.4,0.8,0.2,1,0
,,5dfbefa35777b591c3999842,66fc987b88aba78f66206909,2024-10-02_02h53.01.391,mdp,2024.2.1,Win32,19.91555803,66fa4ebf79326e780c390304,,,,,,,,,,,,,,,,,,,,,1236.9611,1236.9611,1236.9633,1238.3911,0,0,left,0.8494,,1238.3935,1239.6335,1,0,right,1239.6358,1240.7849,0,1,left,0,1240.7851,1240.7851,1240.7875,1242.307,0,24,24,24,1,0.4,0.6,0.6,0.4,,,,,,,,,,,,,,,0.6397,,0.8,0.2,0.8,0.2,0.4,0.6,0.6,0.4,,,0.542,,0.2,0.8,0.6,0.4,0.6,0.4,0.8,0.2,1,0
,,5dfbefa35777b591c3999842,66fc987b88aba78f66206909,2024-10-02_02h53.01.391,mdp,2024.2.1,Win32,19.91555803,66fa4ebf79326e780c390304,,,,,,,,,,,,,,,,,,,,,1242.3079,1242.3079,1242.31,1243.2177,0,1,left,0.314,,1243.2202,1244.145,0,1,left,1244.1473,1245.0798,1,0,right,1,1245.0799,1245.0799,1245.0822,1246.5364,0,25,25,25,1,0.4,0.6,0.6,0.4,,,,,,,,,,,,,,,0.3226,,0.8,0.2,0.8,0.2,0.4,0.6,0.6,0.4,,,0.3094,,0.2,0.8,0.6,0.4,0.6,0.4,0.8,0.2,1,0
,,5dfbefa35777b591c3999842,66fc987b88aba78f66206909,2024-10-02_02h53.01.391,mdp,2024.2.1,Win32,19.91555803,66fa4ebf79326e780c390304,,,,,,,,,,,,,,,,,,,,,1246.5372,1246.5372,1246.5393,1247.189,0,1,left,0.0693,,1247.191,1248.1242,0,1,left,1248.1265,1249.0431,1,0,right,1,1249.0433,1249.0433,1249.0452,1250.5137,0,26,26,26,1,0.4,0.6,0.6,0.4,,,,,,,,,,,,,,,0.3359,,0.8,0.2,0.8,0.2,0.4,0.6,0.6,0.4,,,0.3362,,0.2,0.8,0.6,0.4,0.6,0.4,0.8,0.2,1,0
,,5dfbefa35777b591c3999842,66fc987b88aba78f66206909,2024-10-02_02h53.01.391,mdp,2024.2.1,Win32,19.91555803,66fa4ebf79326e780c390304,,,,,,,,,,,,,,,,,,,,,1250.5145,1250.5146,1250.5167,1251.2244,0,0,left,0.1115,,1251.226,1252.1999,1,0,right,1252.2024,1253.104,0,0,left,1,1253.1041,1253.1041,1253.1065,1254.5696,0,27,27,27,1,0.4,0.6,0.6,0.4,,,,,,,,,,,,,,,0.3748,,0.8,0.2,0.8,0.2,0.4,0.6,0.6,0.4,,,0.3112,,0.2,0.8,0.6,0.4,0.6,0.4,0.8,0.2,1,0
,,5dfbefa35777b591c3999842,66fc987b88aba78f66206909,2024-10-02_02h53.01.391,mdp,2024.2.1,Win32,19.91555803,66fa4ebf79326e780c390304,,,,,,,,,,,,,,,,,,,,,1254.5704,1254.5705,1254.5728,1255.2595,0,0,left,0.1041,,1255.2619,1256.5109,0,0,left,1256.5134,1257.4317,1,1,right,0,1257.4318,1257.4319,1257.4337,1258.9343,0,28,28,28,1,0.4,0.6,0.6,0.4,,,,,,,,,,,,,,,0.692,,0.8,0.2,0.8,0.2,0.4,0.6,0.6,0.4,,,0.3153,,0.2,0.8,0.6,0.4,0.6,0.4,0.8,0.2,1,0
,,5dfbefa35777b591c3999842,66fc987b88aba78f66206909,2024-10-02_02h53.01.391,mdp,2024.2.1,Win32,19.91555803,66fa4ebf79326e780c390304,,,,,,,,,,,,,,,,,,,,,1258.9351,1258.9351,1258.9376,1260.3719,1,0,right,0.8509,,1260.3743,1261.2876,1,1,right,1261.2901,1261.9391,0,0,left,1,1261.9392,1261.9392,1261.9417,1263.4496,0,29,29,29,1,0.4,0.6,0.6,0.4,,,,,,,,,,,,,,,0.3323,,0.8,0.2,0.8,0.2,0.4,0.6,0.6,0.4,,,0.0534,,0.2,0.8,0.6,0.4,0.6,0.4,0.8,0.2,1,0
,,5dfbefa35777b591c3999842,66fc987b88aba78f66206909,2024-10-02_02h53.01.391,mdp,2024.2.1,Win32,19.91555803,66fa4ebf79326e780c390304,,,,,,,,,,,,,,,,,,,,,1263.4504,1263.4505,1263.4529,1264.1526,0,0,left,0.1204,,1264.1543,1265.285,0,1,left,1265.2869,1266.1861,1,0,right,1,1266.1862,1266.1862,1266.1887,1267.6514,0,30,30,30,1,0.4,0.6,0.6,0.4,,,,,,,,,,,,,,,0.533,,0.6,0.4,0.2,0.8,0.4,0.6,0.6,0.4,,,0.3434,,0.2,0.8,0.6,0.4,0.6,0.4,0.8,0.2,1,0
,,5dfbefa35777b591c3999842,66fc987b88aba78f66206909,2024-10-02_02h53.01.391,mdp,2024.2.1,Win32,19.91555803,66fa4ebf79326e780c390304,,,,,,,,,,,,,,,,,,,,,1267.6522,1267.6522,1267.6546,1268.4117,0,1,left,0.1743,,1268.4138,1269.3976,1,0,right,1269.3999,1270.3945,0,0,left,1,1270.3947,1270.3947,1270.3971,1271.8878,0,31,31,31,1,0.4,0.6,0.6,0.4,,,,,,,,,,,,,,,0.379,,0.6,0.4,0.2,0.8,0.4,0.6,0.6,0.4,,,0.3788,,0.8,0.2,0.8,0.2,0.6,0.4,0.8,0.2,1,0
,,5dfbefa35777b591c3999842,66fc987b88aba78f66206909,2024-10-02_02h53.01.391,mdp,2024.2.1,Win32,19.91555803,66fa4ebf79326e780c390304,,,,,,,,,,,,,,,,,,,,,1271.8886,1271.8886,1271.891,1272.6549,1,0,right,0.1698,,1272.6572,1273.6416,1,0,right,1273.6441,1274.561,0,0,left,1,1274.5611,1274.5611,1274.5631,1276.063,0,32,32,32,1,0.4,0.6,0.6,0.4,,,,,,,,,,,,,,,0.3604,,0.6,0.4,0.2,0.8,0.4,0.6,0.6,0.4,,,0.3411,,0.8,0.2,0.8,0.2,0.6,0.4,0.8,0.2,1,0
,,5dfbefa35777b591c3999842,66fc987b88aba78f66206909,2024-10-02_02h53.01.391,mdp,2024.2.1,Win32,19.91555803,66fa4ebf79326e780c390304,,,,,,,,,,,,,,,,,,,,,1276.0639,1276.0639,1276.0662,1276.8099,0,1,left,0.1601,,1276.8123,1277.7004,1,0,right,1277.7026,1278.6817,0,0,left,1,1278.6818,1278.6819,1278.6843,1280.1552,0,33,33,33,1,0.4,0.6,0.6,0.4,,,,,,,,,,,,,,,0.2929,,0.6,0.4,0.2,0.8,0.4,0.6,0.6,0.4,,,0.3829,,0.8,0.2,0.8,0.2,0.6,0.4,0.8,0.2,1,0
,,5dfbefa35777b591c3999842,66fc987b88aba78f66206909,2024-10-02_02h53.01.391,mdp,2024.2.1,Win32,19.91555803,66fa4ebf79326e780c390304,,,,,,,,,,,,,,,,,,,,,1280.1561,1280.1562,1280.1586,1280.7886,0,0,left,0.0497,,1280.7907,1281.7796,0,0,left,1281.7813,1282.6101,1,1,right,0,1282.6101,1282.6103,1282.6124,1284.1145,0,34,34,34,1,0.4,0.6,0.6,0.4,,,,,,,,,,,,,,,0.4274,,0.6,0.4,0.2,0.8,0.4,0.6,0.6,0.4,,,0.2573,,0.8,0.2,0.8,0.2,0.6,0.4,0.8,0.2,1,0
,,5dfbefa35777b591c3999842,66fc987b88aba78f66206909,2024-10-02_02h53.01.391,mdp,2024.2.1,Win32,19.91555803,66fa4ebf79326e780c390304,,,,,,,,,,,,,,,,,,,,,1284.1154,1284.1154,1284.1183,1284.7643,1,1,right,0.0564,,1284.7666,1285.7362,1,0,right,1285.7385,1286.6752,0,1,left,0,1286.6753,1286.6754,1286.6775,1288.1792,0,35,35,35,1,0.4,0.6,0.6,0.4,,,,,,,,,,,,,,,0.3728,,0.6,0.4,0.2,0.8,0.4,0.6,0.6,0.4,,,0.3898,,0.8,0.2,0.8,0.2,0.6,0.4,0.8,0.2,1,0
,,5dfbefa35777b591c3999842,66fc987b88aba78f66206909,2024-10-02_02h53.01.391,mdp,2024.2.1,Win32,19.91555803,66fa4ebf79326e780c390304,,,,,,,,,,,,,,,,,,,,,1288.1801,1288.1801,1288.1825,1289.0163,1,1,right,0.2209,,1289.0186,1289.9962,0,1,left,1289.9984,1290.9388,1,1,right,0,1290.939,1290.939,1290.9406,1292.4048,0,36,36,36,1,0.4,0.6,0.6,0.4,,,,,,,,,,,,,,,0.3777,,0.6,0.4,0.2,0.8,0.4,0.6,0.6,0.4,,,0.3809,,0.8,0.2,0.8,0.2,0.6,0.4,0.8,0.2,1,0
,,5dfbefa35777b591c3999842,66fc987b88aba78f66206909,2024-10-02_02h53.01.391,mdp,2024.2.1,Win32,19.91555803,66fa4ebf79326e780c390304,,,,,,,,,,,,,,,,,,,,,1292.4057,1292.4057,1292.408,1293.2774,1,1,right,0.2731,,1293.2801,1294.2608,0,0,left,1294.2631,1295.1485,1,0,right,1,1295.1489,1295.1489,1295.1506,1296.6035,0,37,37,37,1,0.4,0.6,0.6,0.4,,,,,,,,,,,,,,,0.3835,,0.6,0.4,0.2,0.8,0.4,0.6,0.6,0.4,,,0.3252,,0.8,0.2,0.8,0.2,0.6,0.4,0.8,0.2,1,0
,,5dfbefa35777b591c3999842,66fc987b88aba78f66206909,2024-10-02_02h53.01.391,mdp,2024.2.1,Win32,19.91555803,66fa4ebf79326e780c390304,,,,,,,,,,,,,,,,,,,,,1296.6042,1296.6043,1296.6066,1297.2104,1,1,right,0.0009,,1297.2125,1298.068,1,0,right,1298.0703,1299.0386,0,0,left,1,1299.0387,1299.0388,1299.0403,1300.5527,0,38,38,38,1,0.4,0.6,0.6,0.4,,,,,,,,,,,,,,,0.2637,,0.6,0.4,0.2,0.8,0.4,0.6,0.6,0.4,,,0.3936,,0.8,0.2,0.8,0.2,0.6,0.4,0.8,0.2,1,0
,,5dfbefa35777b591c3999842,66fc987b88aba78f66206909,2024-10-02_02h53.01.391,mdp,2024.2.1,Win32,19.91555803,66fa4ebf79326e780c390304,,,,,,,,,,,,,,,,,,,,,1300.5539,1300.554,1300.5563,1301.1661,0,0,left,0.0569,,1301.1678,1302.1504,0,1,left,1302.1528,1303.053,1,0,right,1,1303.0531,1303.0531,1303.055,1304.5494,0,39,39,39,1,0.4,0.6,0.6,0.4,,,,,,,,,,,,,,,0.3683,,0.6,0.4,0.2,0.8,0.4,0.6,0.6,0.4,,,0.2902,,0.8,0.2,0.8,0.2,0.6,0.4,0.8,0.2,1,0
,,5dfbefa35777b591c3999842,66fc987b88aba78f66206909,2024-10-02_02h53.01.391,mdp,2024.2.1,Win32,19.91555803,66fa4ebf79326e780c390304,,,,,,,,,,,,,,,,,,,,,1304.5502,1304.5503,1304.5526,1305.3361,0,1,left,0.2134,,1305.3383,1306.3085,1,1,right,1306.3108,1307.2485,0,0,left,1,1307.2486,1307.2486,1307.2503,1308.7423,0,40,40,40,1,0.4,0.6,0.6,0.4,,,,,,,,,,,,,,,0.3773,,0.6,0.4,0.2,0.8,0.4,0.6,0.6,0.4,,,0.3578,,0.2,0.8,0.4,0.6,0.6,0.4,0.8,0.2,1,0
,,5dfbefa35777b591c3999842,66fc987b88aba78f66206909,2024-10-02_02h53.01.391,mdp,2024.2.1,Win32,19.91555803,66fa4ebf79326e780c390304,,,,,,,,,,,,,,,,,,,,,1308.7431,1308.7431,1308.7455,1309.6152,0,1,left,0.2683,,1309.6177,1310.5686,0,0,left,1310.5709,1311.4209,1,1,right,0,1311.4211,1311.4211,1311.4232,1312.9083,0,41,41,41,1,0.4,0.6,0.6,0.4,,,,,,,,,,,,,,,0.3722,,0.6,0.4,0.2,0.8,0.4,0.6,0.6,0.4,,,0.2576,,0.2,0.8,0.4,0.6,0.6,0.4,0.8,0.2,1,0
,,5dfbefa35777b591c3999842,66fc987b88aba78f66206909,2024-10-02_02h53.01.391,mdp,2024.2.1,Win32,19.91555803,66fa4ebf79326e780c390304,,,,,,,,,,,,,,,,,,,,,1312.9092,1312.9092,1312.9114,1314.5641,0,1,left,1.0385,,1314.5666,1315.7699,0,0,left,1315.7724,1316.6506,1,0,right,1,1316.6508,1316.6508,1316.6529,1318.1415,0,42,42,42,1,0.4,0.6,0.6,0.4,,,,,,,,,,,,,,,0.6088,,0.6,0.4,0.2,0.8,0.4,0.6,0.6,0.4,,,0.2835,,0.2,0.8,0.4,0.6,0.6,0.4,0.8,0.2,1,0
,,5dfbefa35777b591c3999842,66fc987b88aba78f66206909,2024-10-02_02h53.01.391,mdp,2024.2.1,Win32,19.91555803,66fa4ebf79326e780c390304,,,,,,,,,,,,,,,,,,,,,1318.1425,1318.1425,1318.1448,1319.2257,0,1,left,0.4901,,1319.2282,1320.1632,1,0,right,1320.1653,1321.0945,0,1,left,0,1321.0946,1321.0947,1321.0971,1322.5877,0,43,43,43,1,0.6,0.4,0.2,0.8,,,,,,,,,,,,,,,0.342,,0.6,0.4,0.2,0.8,0.4,0.6,0.6,0.4,,,0.316,,0.2,0.8,0.4,0.6,0.6,0.4,0.8,0.2,1,0
,,5dfbefa35777b591c3999842,66fc987b88aba78f66206909,2024-10-02_02h53.01.391,mdp,2024.2.1,Win32,19.91555803,66fa4ebf79326e780c390304,,,,,,,,,,,,,,,,,,,,,1322.5885,1322.5885,1322.5908,1323.2998,1,1,right,0.1146,,1323.3014,1324.2215,0,0,left,1324.2238,1325.1588,1,1,right,0,1325.159,1325.159,1325.1613,1326.643,0,44,44,44,1,0.6,0.4,0.2,0.8,,,,,,,,,,,,,,,0.3658,,0.6,0.4,0.2,0.8,0.4,0.6,0.6,0.4,,,0.3527,,0.2,0.8,0.4,0.6,0.6,0.4,0.8,0.2,1,0
,,5dfbefa35777b591c3999842,66fc987b88aba78f66206909,2024-10-02_02h53.01.391,mdp,2024.2.1,Win32,19.91555803,66fa4ebf79326e780c390304,,,,,,,,,,,,,,,,,,,,,1326.6438,1326.6439,1326.6463,1327.5175,1,1,right,0.2901,,1327.5199,1328.4187,1,0,right,1328.4211,1329.3523,0,1,left,0,1329.3525,1329.3525,1329.3548,1330.8153,0,45,45,45,1,0.6,0.4,0.2,0.8,,,,,,,,,,,,,,,0.3182,,0.6,0.4,0.2,0.8,0.4,0.6,0.6,0.4,,,0.3822,,0.2,0.8,0.4,0.6,0.6,0.4,0.8,0.2,1,0
,,5dfbefa35777b591c3999842,66fc987b88aba78f66206909,2024-10-02_02h53.01.391,mdp,2024.2.1,Win32,19.91555803,66fa4ebf79326e780c390304,,,,,,,,,,,,,,,,,,,,,1330.8163,1330.8163,1330.8182,1332.3108,0,0,left,0.901,,1332.3133,1333.2324,1,0,right,1333.2348,1334.782,1,0,right,1,1334.7822,1334.7822,1334.7842,1336.3202,0,46,46,46,1,0.6,0.4,0.2,0.8,,,,,,,,,,,,,,,0.3173,,0.6,0.4,0.2,0.8,0.4,0.6,0.6,0.4,,,0.9349,,0.2,0.8,0.4,0.6,0.6,0.4,0.8,0.2,1,0
,,5dfbefa35777b591c3999842,66fc987b88aba78f66206909,2024-10-02_02h53.01.391,mdp,2024.2.1,Win32,19.91555803,66fa4ebf79326e780c390304,,,,,,,,,,,,,,,,,,,,,1336.3211,1336.3211,1336.3233,1337.8926,0,0,left,0.9842,,1337.8948,1338.9621,0,0,left,1338.9642,1339.9583,1,1,right,0,1339.9584,1339.9584,1339.9609,1341.4305,0,47,47,47,1,0.6,0.4,0.2,0.8,,,,,,,,,,,,,,,0.4711,,0.8,0.2,0.4,0.6,0.4,0.6,0.6,0.4,,,0.4294,,0.2,0.8,0.4,0.6,0.6,0.4,0.8,0.2,1,0
,,5dfbefa35777b591c3999842,66fc987b88aba78f66206909,2024-10-02_02h53.01.391,mdp,2024.2.1,Win32,19.91555803,66fa4ebf79326e780c390304,,,,,,,,,,,,,,,,,,,,,1341.4314,1341.4314,1341.4339,1342.2935,0,1,left,0.2729,,1342.2958,1343.2397,1,1,right,1343.2419,1344.2891,0,0,left,1,1344.2892,1344.2892,1344.2914,1345.7768,0,48,48,48,1,0.6,0.4,0.2,0.8,,,,,,,,,,,,,,,0.3401,,0.8,0.2,0.4,0.6,0.4,0.6,0.6,0.4,,,0.4404,,0.2,0.8,0.4,0.6,0.6,0.4,0.8,0.2,1,0
,,5dfbefa35777b591c3999842,66fc987b88aba78f66206909,2024-10-02_02h53.01.391,mdp,2024.2.1,Win32,19.91555803,66fa4ebf79326e780c390304,,,,,,,,,,,,,,,,,,,,,1345.7777,1345.7777,1345.7801,1346.3668,0,0,left,0.0012,,1346.3685,1347.7844,0,1,left,1347.7867,1348.7554,1,0,right,1,1348.7555,1348.7555,1348.7578,1350.2569,0,49,49,49,1,0.6,0.4,0.2,0.8,,,,,,,,,,,,,,,0.808,,0.8,0.2,0.4,0.6,0.4,0.6,0.6,0.4,,,0.3738,,0.2,0.8,0.4,0.6,0.6,0.4,0.8,0.2,1,0
,,5dfbefa35777b591c3999842,66fc987b88aba78f66206909,2024-10-02_02h53.01.391,mdp,2024.2.1,Win32,19.91555803,66fa4ebf79326e780c390304,,,,,,,,,,,,,,,,,,,,,,,,,,,,,,,,,,,,,,,,,,,,,,,,,,,,,,,,1350.2572,1409.0585,0,3,3,5,1,imgs/goat.png,imgs/elephant.png,imgs/kangaroo.png,imgs/bear.png,imgs/lion.png,,,,,,,,,,,,,,,,,,,,,,,,
,,5dfbefa35777b591c3999842,66fc987b88aba78f66206909,2024-10-02_02h53.01.391,mdp,2024.2.1,Win32,19.91555803,66fa4ebf79326e780c390304,,,,,,,,,,,,,,1,seqs/st1seq33.csv,1409.1475,1414.4399,space,4.7138,,1414.5001,1414.5001,1414.5024,1416.3647,0,1,left,1.2543,,1416.3671,1416.372,0,1,,1416.3742,1416.3766,1,1,,0,1416.3767,1416.3767,1416.3787,1417.8817,0,0,0,0,1,0.4,0.6,0.8,0.2,1,0,,,,,,,,,,,,,,,,,,,,,,,,,,,,,,,,,,,,
,,5dfbefa35777b591c3999842,66fc987b88aba78f66206909,2024-10-02_02h53.01.391,mdp,2024.2.1,Win32,19.91555803,66fa4ebf79326e780c390304,,,,,,,,,,,,,,,,,,,,,1417.8827,1417.8828,1417.8848,1419.477,1,1,right,0.9907,,1419.4797,1419.4819,0,1,,1419.4839,1419.4859,1,0,,0,1419.4861,1419.4861,1419.4877,1420.9723,0,1,1,1,1,0.4,0.6,0.8,0.2,1,0,,,,,,,,,,,,,,,,,,,,,,,,,,,,,,,,,,,,
,,5dfbefa35777b591c3999842,66fc987b88aba78f66206909,2024-10-02_02h53.01.391,mdp,2024.2.1,Win32,19.91555803,66fa4ebf79326e780c390304,,,,,,,,,,,,,,,,,,,,,1420.973,1420.973,1420.9745,1422.3789,1,1,right,0.8332,,1422.3818,1422.3841,0,1,,1422.3859,1422.3874,1,0,,0,1422.3874,1422.3877,1422.389,1423.8883,0,2,2,2,1,0.8,0.2,0.4,0.6,1,0,,,,,,,,,,,,,,,,,,,,,,,,,,,,,,,,,,,,
,,5dfbefa35777b591c3999842,66fc987b88aba78f66206909,2024-10-02_02h53.01.391,mdp,2024.2.1,Win32,19.91555803,66fa4ebf79326e780c390304,,,,,,,,,,,,,,,,,,,,,1423.8897,1423.8897,1423.8924,1424.9729,0,0,left,0.4866,,1424.9753,1424.977,0,0,,1424.9786,1424.9799,1,0,,1,1424.98,1424.98,1424.9813,1426.4554,0,3,3,3,1,0.8,0.2,0.4,0.6,1,0,,,,,,,,,,,,,,,,,,,,,,,,,,,,,,,,,,,,
,,5dfbefa35777b591c3999842,66fc987b88aba78f66206909,2024-10-02_02h53.01.391,mdp,2024.2.1,Win32,19.91555803,66fa4ebf79326e780c390304,,,,,,,,,,,,,,,,,,,,,1426.4561,1426.4561,1426.4585,1427.6453,0,0,left,0.586,,1427.6476,1427.6493,0,0,,1427.6508,1427.6522,1,1,,1,1427.6523,1427.6523,1427.6535,1429.1329,0,4,4,4,1,0.8,0.2,0.4,0.6,1,0,,,,,,,,,,,,,,,,,,,,,,,,,,,,,,,,,,,,
,,5dfbefa35777b591c3999842,66fc987b88aba78f66206909,2024-10-02_02h53.01.391,mdp,2024.2.1,Win32,19.91555803,66fa4ebf79326e780c390304,,,,,,,,,,,,,,,,,,,,,1429.1336,1429.1336,1429.1356,1430.718,0,0,left,1.0194,,1430.7196,1430.721,0,0,,1430.7226,1430.7241,1,0,,1,1430.7242,1430.7242,1430.7256,1432.207,0,5,5,5,1,0.8,0.2,0.4,0.6,1,0,,,,,,,,,,,,,,,,,,,,,,,,,,,,,,,,,,,,
,,5dfbefa35777b591c3999842,66fc987b88aba78f66206909,2024-10-02_02h53.01.391,mdp,2024.2.1,Win32,19.91555803,66fa4ebf79326e780c390304,,,,,,,,,,,,,,,,,,,,,1432.2078,1432.2078,1432.2099,1433.2415,1,1,right,0.4342,,1433.2431,1433.2446,0,0,,1433.246,1433.2476,1,1,,0,1433.2476,1433.2476,1433.249,1434.7117,0,6,6,6,1,0.8,0.2,0.4,0.6,1,0,,,,,,,,,,,,,,,,,,,,,,,,,,,,,,,,,,,,
,,5dfbefa35777b591c3999842,66fc987b88aba78f66206909,2024-10-02_02h53.01.391,mdp,2024.2.1,Win32,19.91555803,66fa4ebf79326e780c390304,,,,,,,,,,,,,,,,,,,,,1434.7123,1434.7123,1434.7145,1436.1275,1,1,right,0.8138,,1436.1297,1436.1321,0,1,,1436.1341,1436.1364,1,1,,0,1436.1365,1436.1365,1436.1384,1437.6413,0,7,7,7,1,0.8,0.2,0.4,0.6,1,0,,,,,,,,,,,,,,,,,,,,,,,,,,,,,,,,,,,,
,,5dfbefa35777b591c3999842,66fc987b88aba78f66206909,2024-10-02_02h53.01.391,mdp,2024.2.1,Win32,19.91555803,66fa4ebf79326e780c390304,,,,,,,,,,,,,,,,,,,,,1437.6421,1437.6421,1437.6437,1438.585,0,0,left,0.3301,,1438.5865,1438.5882,0,0,,1438.5895,1438.591,1,1,,1,1438.591,1438.591,1438.5925,1440.0769,0,8,8,8,1,0.8,0.2,0.4,0.6,1,0,,,,,,,,,,,,,,,,,,,,,,,,,,,,,,,,,,,,
,,5dfbefa35777b591c3999842,66fc987b88aba78f66206909,2024-10-02_02h53.01.391,mdp,2024.2.1,Win32,19.91555803,66fa4ebf79326e780c390304,,,,,,,,,,,,,,,,,,,,,1440.078,1440.078,1440.0795,1441.2307,0,0,left,0.5636,,1441.2324,1441.2351,0,0,,1441.2365,1441.24,1,0,,1,1441.2403,1441.2403,1441.2431,1442.7509,0,9,9,9,1,0.8,0.2,0.4,0.6,1,0,,,,,,,,,,,,,,,,,,,,,,,,,,,,,,,,,,,,
,,5dfbefa35777b591c3999842,66fc987b88aba78f66206909,2024-10-02_02h53.01.391,mdp,2024.2.1,Win32,19.91555803,66fa4ebf79326e780c390304,,,,,,,,,,,,,,,,,,,,,1442.7515,1442.7516,1442.7538,1443.9851,0,0,left,0.6675,,1443.9876,1443.9893,0,1,,1443.9908,1443.9922,1,0,,1,1443.9923,1443.9923,1443.9937,1445.4662,0,10,10,10,1,0.4,0.6,0.8,0.2,1,0,,,,,,,,,,,,,,,,,,,,,,,,,,,,,,,,,,,,
,,5dfbefa35777b591c3999842,66fc987b88aba78f66206909,2024-10-02_02h53.01.391,mdp,2024.2.1,Win32,19.91555803,66fa4ebf79326e780c390304,,,,,,,,,,,,,,,,,,,,,1445.4675,1445.4676,1445.4694,1446.5951,0,0,left,0.5345,,1446.5975,1446.5993,0,0,,1446.6006,1446.6019,1,0,,1,1446.602,1446.602,1446.6032,1448.056,0,11,11,11,1,0.4,0.6,0.8,0.2,1,0,,,,,,,,,,,,,,,,,,,,,,,,,,,,,,,,,,,,
,,5dfbefa35777b591c3999842,66fc987b88aba78f66206909,2024-10-02_02h53.01.391,mdp,2024.2.1,Win32,19.91555803,66fa4ebf79326e780c390304,,,,,,,,,,,,,,,,,,,,,1448.0574,1448.0575,1448.0599,1449.1186,0,1,left,0.5043,,1449.1207,1449.1227,0,0,,1449.1246,1449.1265,1,1,,0,1449.1267,1449.1267,1449.1285,1450.6201,0,12,12,12,1,0.6,0.4,0.2,0.8,1,0,,,,,,,,,,,,,,,,,,,,,,,,,,,,,,,,,,,,
,,5dfbefa35777b591c3999842,66fc987b88aba78f66206909,2024-10-02_02h53.01.391,mdp,2024.2.1,Win32,19.91555803,66fa4ebf79326e780c390304,,,,,,,,,,,,,,,,,,,,,1450.6209,1450.6209,1450.6232,1451.7712,1,1,right,0.5647,,1451.7736,1451.7756,0,1,,1451.7772,1451.7786,1,1,,0,1451.7787,1451.7787,1451.7799,1453.2648,0,13,13,13,1,0.6,0.4,0.2,0.8,1,0,,,,,,,,,,,,,,,,,,,,,,,,,,,,,,,,,,,,
,,5dfbefa35777b591c3999842,66fc987b88aba78f66206909,2024-10-02_02h53.01.391,mdp,2024.2.1,Win32,19.91555803,66fa4ebf79326e780c390304,,,,,,,,,,,,,,,,,,,,,1453.2656,1453.2657,1453.2673,1454.5318,1,1,right,0.6666,,1454.5343,1454.5359,0,1,,1454.5374,1454.5387,1,1,,0,1454.5389,1454.5389,1454.5404,1456.0488,0,14,14,14,1,0.6,0.4,0.2,0.8,1,0,,,,,,,,,,,,,,,,,,,,,,,,,,,,,,,,,,,,
,,5dfbefa35777b591c3999842,66fc987b88aba78f66206909,2024-10-02_02h53.01.391,mdp,2024.2.1,Win32,19.91555803,66fa4ebf79326e780c390304,,,,,,,,,,,,,,,,,,,,,1456.0496,1456.0496,1456.0525,1457.0133,0,0,left,0.375,,1457.0156,1457.0173,0,0,,1457.0188,1457.0202,1,0,,1,1457.0203,1457.0203,1457.0219,1458.4721,0,15,15,15,1,0.6,0.4,0.2,0.8,1,0,,,,,,,,,,,,,,,,,,,,,,,,,,,,,,,,,,,,
,,5dfbefa35777b591c3999842,66fc987b88aba78f66206909,2024-10-02_02h53.01.391,mdp,2024.2.1,Win32,19.91555803,66fa4ebf79326e780c390304,,,,,,,,,,,,,,,,,,,,,1458.4728,1458.4728,1458.475,1459.4931,0,0,left,0.4342,,1459.4954,1459.4972,0,0,,1459.4987,1459.5002,1,1,,1,1459.5002,1459.5002,1459.5015,1460.9942,0,16,16,16,1,0.6,0.4,0.2,0.8,1,0,,,,,,,,,,,,,,,,,,,,,,,,,,,,,,,,,,,,
,,5dfbefa35777b591c3999842,66fc987b88aba78f66206909,2024-10-02_02h53.01.391,mdp,2024.2.1,Win32,19.91555803,66fa4ebf79326e780c390304,,,,,,,,,,,,,,,,,,,,,1460.995,1460.995,1460.9965,1461.9172,0,0,left,0.3662,,1461.9193,1461.9212,0,0,,1461.9228,1461.9245,1,0,,1,1461.9245,1461.9245,1461.9259,1463.3912,0,17,17,17,1,0.6,0.4,0.2,0.8,1,0,,,,,,,,,,,,,,,,,,,,,,,,,,,,,,,,,,,,
,,5dfbefa35777b591c3999842,66fc987b88aba78f66206909,2024-10-02_02h53.01.391,mdp,2024.2.1,Win32,19.91555803,66fa4ebf79326e780c390304,,,,,,,,,,,,,,,,,,,,,1463.3923,1463.3924,1463.3943,1464.2744,1,1,right,0.2701,,1464.2767,1464.2783,0,1,,1464.2797,1464.2812,1,1,,0,1464.2813,1464.2813,1464.2827,1465.7501,0,18,18,18,1,0.6,0.4,0.2,0.8,1,0,,,,,,,,,,,,,,,,,,,,,,,,,,,,,,,,,,,,
,,5dfbefa35777b591c3999842,66fc987b88aba78f66206909,2024-10-02_02h53.01.391,mdp,2024.2.1,Win32,19.91555803,66fa4ebf79326e780c390304,,,,,,,,,,,,,,,,,,,,,1465.751,1465.751,1465.7531,1467.0849,0,0,left,0.7237,,1467.0874,1467.0891,0,1,,1467.0908,1467.0922,1,1,,1,1467.0923,1467.0924,1467.0937,1468.5841,0,19,19,19,1,0.6,0.4,0.2,0.8,1,0,,,,,,,,,,,,,,,,,,,,,,,,,,,,,,,,,,,,
,,5dfbefa35777b591c3999842,66fc987b88aba78f66206909,2024-10-02_02h53.01.391,mdp,2024.2.1,Win32,19.91555803,66fa4ebf79326e780c390304,,,,,,,,,,,,,,,,,,,,,1468.5847,1468.5848,1468.5871,1469.7864,1,0,right,0.6466,,1469.788,1469.7896,0,0,,1469.7909,1469.7922,1,0,,1,1469.7923,1469.7924,1469.7936,1471.2606,0,20,20,20,1,0.8,0.2,0.6,0.4,1,0,,,,,,,,,,,,,,,,,,,,,,,,,,,,,,,,,,,,
,,5dfbefa35777b591c3999842,66fc987b88aba78f66206909,2024-10-02_02h53.01.391,mdp,2024.2.1,Win32,19.91555803,66fa4ebf79326e780c390304,,,,,,,,,,,,,,,,,,,,,1471.2614,1471.2614,1471.2636,1472.2575,0,0,left,0.4025,,1472.2599,1472.263,0,0,,1472.2659,1472.2684,1,0,,1,1472.2685,1472.2685,1472.2746,1473.7648,0,21,21,21,1,0.8,0.2,0.6,0.4,1,0,,,,,,,,,,,,,,,,,,,,,,,,,,,,,,,,,,,,
,,5dfbefa35777b591c3999842,66fc987b88aba78f66206909,2024-10-02_02h53.01.391,mdp,2024.2.1,Win32,19.91555803,66fa4ebf79326e780c390304,,,,,,,,,,,,,,,,,,,,,1473.7654,1473.7655,1473.7677,1474.7178,0,0,left,0.3658,,1474.7192,1474.7207,0,0,,1474.7222,1474.7235,1,0,,1,1474.7236,1474.7236,1474.7249,1476.2202,0,22,22,22,1,0.8,0.2,0.6,0.4,1,0,,,,,,,,,,,,,,,,,,,,,,,,,,,,,,,,,,,,
,,5dfbefa35777b591c3999842,66fc987b88aba78f66206909,2024-10-02_02h53.01.391,mdp,2024.2.1,Win32,19.91555803,66fa4ebf79326e780c390304,,,,,,,,,,,,,,,,,,,,,1476.2209,1476.2209,1476.2232,1477.1442,0,0,left,0.3309,,1477.1462,1477.1485,0,0,,1477.1506,1477.152,1,0,,1,1477.1521,1477.1521,1477.1535,1478.6621,0,23,23,23,1,0.8,0.2,0.6,0.4,1,0,,,,,,,,,,,,,,,,,,,,,,,,,,,,,,,,,,,,
,,5dfbefa35777b591c3999842,66fc987b88aba78f66206909,2024-10-02_02h53.01.391,mdp,2024.2.1,Win32,19.91555803,66fa4ebf79326e780c390304,,,,,,,,,,,,,,,,,,,,,1478.6629,1478.6629,1478.6655,1479.7351,1,0,right,0.4832,,1479.7368,1479.7385,0,0,,1479.7399,1479.7412,1,0,,1,1479.7413,1479.7414,1479.7426,1481.2036,0,24,24,24,1,0.8,0.2,0.6,0.4,1,0,,,,,,,,,,,,,,,,,,,,,,,,,,,,,,,,,,,,
,,5dfbefa35777b591c3999842,66fc987b88aba78f66206909,2024-10-02_02h53.01.391,mdp,2024.2.1,Win32,19.91555803,66fa4ebf79326e780c390304,,,,,,,,,,,,,,,,,,,,,1481.2049,1481.2049,1481.2073,1482.2021,0,0,left,0.3944,,1482.2046,1482.2062,0,0,,1482.2077,1482.2091,1,1,,1,1482.2092,1482.2092,1482.211,1483.6943,0,25,25,25,1,0.8,0.2,0.6,0.4,1,0,,,,,,,,,,,,,,,,,,,,,,,,,,,,,,,,,,,,
,,5dfbefa35777b591c3999842,66fc987b88aba78f66206909,2024-10-02_02h53.01.391,mdp,2024.2.1,Win32,19.91555803,66fa4ebf79326e780c390304,,,,,,,,,,,,,,,,,,,,,1483.695,1483.695,1483.6972,1484.5437,0,0,left,0.2326,,1484.5457,1484.5471,0,0,,1484.5484,1484.5497,1,0,,1,1484.5498,1484.5498,1484.5509,1486.0327,0,26,26,26,1,0.8,0.2,0.6,0.4,1,0,,,,,,,,,,,,,,,,,,,,,,,,,,,,,,,,,,,,
,,5dfbefa35777b591c3999842,66fc987b88aba78f66206909,2024-10-02_02h53.01.391,mdp,2024.2.1,Win32,19.91555803,66fa4ebf79326e780c390304,,,,,,,,,,,,,,,,,,,,,1486.0333,1486.0334,1486.0356,1487.8391,0,0,left,1.2082,,1487.8416,1487.8433,0,0,,1487.8452,1487.8467,1,0,,1,1487.8468,1487.8468,1487.8491,1489.3303,0,27,27,27,1,0.8,0.2,0.6,0.4,1,0,,,,,,,,,,,,,,,,,,,,,,,,,,,,,,,,,,,,
,,5dfbefa35777b591c3999842,66fc987b88aba78f66206909,2024-10-02_02h53.01.391,mdp,2024.2.1,Win32,19.91555803,66fa4ebf79326e780c390304,,,,,,,,,,,,,,,,,,,,,1489.3329,1489.3329,1489.3354,1490.2957,1,0,right,0.4043,,1490.2988,1490.3004,0,0,,1490.3018,1490.3031,1,1,,1,1490.3031,1490.3031,1490.3045,1491.7859,0,28,28,28,1,0.8,0.2,0.6,0.4,1,0,,,,,,,,,,,,,,,,,,,,,,,,,,,,,,,,,,,,
,,5dfbefa35777b591c3999842,66fc987b88aba78f66206909,2024-10-02_02h53.01.391,mdp,2024.2.1,Win32,19.91555803,66fa4ebf79326e780c390304,,,,,,,,,,,,,,,,,,,,,1491.7865,1491.7866,1491.7886,1492.8411,0,1,left,0.4438,,1492.8435,1492.8451,0,0,,1492.8467,1492.8488,1,0,,0,1492.849,1492.849,1492.8506,1494.3518,0,29,29,29,1,0.8,0.2,0.6,0.4,1,0,,,,,,,,,,,,,,,,,,,,,,,,,,,,,,,,,,,,
,,5dfbefa35777b591c3999842,66fc987b88aba78f66206909,2024-10-02_02h53.01.391,mdp,2024.2.1,Win32,19.91555803,66fa4ebf79326e780c390304,,,,,,,,,,,,,,,,,,,,,1494.3525,1494.3526,1494.3547,1495.4203,1,0,right,0.4677,,1495.4242,1495.4257,0,0,,1495.4273,1495.4285,1,0,,1,1495.4286,1495.4286,1495.43,1496.9101,0,30,30,30,1,0.8,0.2,0.6,0.4,1,0,,,,,,,,,,,,,,,,,,,,,,,,,,,,,,,,,,,,
,,5dfbefa35777b591c3999842,66fc987b88aba78f66206909,2024-10-02_02h53.01.391,mdp,2024.2.1,Win32,19.91555803,66fa4ebf79326e780c390304,,,,,,,,,,,,,,,,,,,,,1496.9112,1496.9112,1496.9133,1497.9327,0,1,left,0.4386,,1497.9347,1497.9366,0,1,,1497.9382,1497.94,1,1,,0,1497.9401,1497.9401,1497.9415,1499.4317,0,31,31,31,1,0.2,0.8,0.8,0.2,1,0,,,,,,,,,,,,,,,,,,,,,,,,,,,,,,,,,,,,
,,5dfbefa35777b591c3999842,66fc987b88aba78f66206909,2024-10-02_02h53.01.391,mdp,2024.2.1,Win32,19.91555803,66fa4ebf79326e780c390304,,,,,,,,,,,,,,,,,,,,,1499.4324,1499.4324,1499.4348,1500.2037,0,1,left,0.2195,,1500.2061,1500.2078,0,1,,1500.2098,1500.2114,1,1,,0,1500.2114,1500.2115,1500.2128,1501.6771,0,32,32,32,1,0.2,0.8,0.8,0.2,1,0,,,,,,,,,,,,,,,,,,,,,,,,,,,,,,,,,,,,
,,5dfbefa35777b591c3999842,66fc987b88aba78f66206909,2024-10-02_02h53.01.391,mdp,2024.2.1,Win32,19.91555803,66fa4ebf79326e780c390304,,,,,,,,,,,,,,,,,,,,,1501.6781,1501.6781,1501.68,1502.4919,1,0,right,0.219,,1502.494,1502.4956,0,0,,1502.4974,1502.4988,1,0,,1,1502.4989,1502.4989,1502.5002,1503.995,0,33,33,33,1,0.2,0.8,0.8,0.2,1,0,,,,,,,,,,,,,,,,,,,,,,,,,,,,,,,,,,,,
,,5dfbefa35777b591c3999842,66fc987b88aba78f66206909,2024-10-02_02h53.01.391,mdp,2024.2.1,Win32,19.91555803,66fa4ebf79326e780c390304,,,,,,,,,,,,,,,,,,,,,1503.9957,1503.9957,1503.9977,1504.866,1,0,right,0.2727,,1504.8683,1504.8699,0,0,,1504.8713,1504.8725,1,0,,1,1504.8726,1504.8726,1504.8741,1506.3397,0,34,34,34,1,0.2,0.8,0.8,0.2,1,0,,,,,,,,,,,,,,,,,,,,,,,,,,,,,,,,,,,,
,,5dfbefa35777b591c3999842,66fc987b88aba78f66206909,2024-10-02_02h53.01.391,mdp,2024.2.1,Win32,19.91555803,66fa4ebf79326e780c390304,,,,,,,,,,,,,,,,,,,,,1506.3403,1506.3404,1506.3426,1507.3209,1,0,right,0.3957,,1507.3237,1507.3253,0,0,,1507.3267,1507.3278,1,0,,1,1507.3279,1507.3279,1507.3291,1508.8211,0,35,35,35,1,0.2,0.8,0.8,0.2,1,0,,,,,,,,,,,,,,,,,,,,,,,,,,,,,,,,,,,,
,,5dfbefa35777b591c3999842,66fc987b88aba78f66206909,2024-10-02_02h53.01.391,mdp,2024.2.1,Win32,19.91555803,66fa4ebf79326e780c390304,,,,,,,,,,,,,,,,,,,,,1508.8217,1508.8217,1508.8236,1509.7099,0,0,left,0.3293,,1509.7121,1509.7137,0,0,,1509.7152,1509.7165,1,0,,1,1509.7166,1509.7166,1509.7179,1511.2125,0,36,36,36,1,0.8,0.2,0.6,0.4,1,0,,,,,,,,,,,,,,,,,,,,,,,,,,,,,,,,,,,,
,,5dfbefa35777b591c3999842,66fc987b88aba78f66206909,2024-10-02_02h53.01.391,mdp,2024.2.1,Win32,19.91555803,66fa4ebf79326e780c390304,,,,,,,,,,,,,,,,,,,,,1511.2134,1511.2134,1511.2155,1512.1114,1,0,right,0.3122,,1512.1138,1512.1162,0,0,,1512.1178,1512.1192,1,0,,1,1512.1193,1512.1193,1512.1207,1513.5725,0,37,37,37,1,0.8,0.2,0.6,0.4,1,0,,,,,,,,,,,,,,,,,,,,,,,,,,,,,,,,,,,,
,,5dfbefa35777b591c3999842,66fc987b88aba78f66206909,2024-10-02_02h53.01.391,mdp,2024.2.1,Win32,19.91555803,66fa4ebf79326e780c390304,,,,,,,,,,,,,,,,,,,,,1513.5732,1513.5732,1513.5747,1514.6256,1,0,right,0.4711,,1514.6271,1514.6286,0,1,,1514.6299,1514.6312,1,0,,1,1514.6313,1514.6313,1514.6325,1516.1318,0,38,38,38,1,0.8,0.2,0.6,0.4,1,0,,,,,,,,,,,,,,,,,,,,,,,,,,,,,,,,,,,,
,,5dfbefa35777b591c3999842,66fc987b88aba78f66206909,2024-10-02_02h53.01.391,mdp,2024.2.1,Win32,19.91555803,66fa4ebf79326e780c390304,,,,,,,,,,,,,,,,,,,,,1516.1326,1516.1326,1516.1349,1517.079,1,0,right,0.334,,1517.0814,1517.0831,0,1,,1517.0848,1517.0861,1,0,,1,1517.0863,1517.0863,1517.0877,1518.6006,0,39,39,39,1,0.8,0.2,0.6,0.4,1,0,,,,,,,,,,,,,,,,,,,,,,,,,,,,,,,,,,,,
