init_exp.started,init_exp.stopped,participant,session,date,expName,psychopyVersion,OS,frameRate,study_id,disp_instruction.started,disp_instruction.stopped,instruction.thisRepN,instruction.thisTrialN,instruction.thisN,instruction.thisIndex,instruction.ran,instimg_path,consent.started,consent.stopped,key_resp_3.keys,key_resp_3.rt,key_resp_3.duration,n_steps,sequence_path,init_block.started,init_block.stopped,key_resp.keys,key_resp.rt,key_resp.duration,init_trials.started,init_trials.stopped,step0.started,step0.stopped,act0,s1,res0.keys,res0.rt,res0.duration,step1.started,step1.stopped,act1,s2,res1.keys,step2.started,step2.stopped,act2,s3,res2.keys,rew,reward_comp.started,reward_comp.stopped,reward_disp.started,reward_disp.stopped,trials.thisRepN,trials.thisTrialN,trials.thisN,trials.thisIndex,trials.ran,s00a0s10,s00a0s11,s00a1s10,s00a1s11,rew10,rew11,break_block.started,break_block.stopped,block.thisRepN,block.thisTrialN,block.thisN,block.thisIndex,block.ran,s00path,s10path,s11path,s20path,s21path,res1.rt,res1.duration,s10a0s20,s10a0s21,s10a1s20,s10a1s21,s11a0s20,s11a0s21,s11a1s20,s11a1s21,rew20,rew21,res2.rt,res2.duration,s20a0s30,s20a0s31,s20a1s30,s20a1s31,s21a0s30,s21a0s31,s21a1s30,s21a1s31,rew30,rew31
0.0002,0.0021,5e13ff1b94d5eea33e200fce,66fc9849e2a5af8e2bc40518,2024-10-01_21h49.44.105,mdp,2024.2.1,Win32,59.88023952,66fa4ebf79326e780c390304,,,,,,,,,,,,,,,,,,,,,,,,,,,,,,,,,,,,,,,,,,,,,,,,,,,,,,,,,,,,,,,,,,,,,,,,,,,,,,,,,,,,,,,,,,,
,,5e13ff1b94d5eea33e200fce,66fc9849e2a5af8e2bc40518,2024-10-01_21h49.44.105,mdp,2024.2.1,Win32,59.88023952,66fa4ebf79326e780c390304,0.0051,1440.4264,0,0,0,0,1,rlnn_exp/rlnn_exp.001.png,,,,,,,,,,,,,,,,,,,,,,,,,,,,,,,,,,,,,,,,,,,,,,,,,,,,,,,,,,,,,,,,,,,,,,,,,,,,,,,,,,,
,,5e13ff1b94d5eea33e200fce,66fc9849e2a5af8e2bc40518,2024-10-01_21h49.44.105,mdp,2024.2.1,Win32,59.88023952,66fa4ebf79326e780c390304,1440.4277,1452.5315,0,1,1,1,1,rlnn_exp/rlnn_exp.002.png,,,,,,,,,,,,,,,,,,,,,,,,,,,,,,,,,,,,,,,,,,,,,,,,,,,,,,,,,,,,,,,,,,,,,,,,,,,,,,,,,,,
,,5e13ff1b94d5eea33e200fce,66fc9849e2a5af8e2bc40518,2024-10-01_21h49.44.105,mdp,2024.2.1,Win32,59.88023952,66fa4ebf79326e780c390304,1452.5585,1464.9441,0,2,2,2,1,rlnn_exp/rlnn_exp.003.png,,,,,,,,,,,,,,,,,,,,,,,,,,,,,,,,,,,,,,,,,,,,,,,,,,,,,,,,,,,,,,,,,,,,,,,,,,,,,,,,,,,
,,5e13ff1b94d5eea33e200fce,66fc9849e2a5af8e2bc40518,2024-10-01_21h49.44.105,mdp,2024.2.1,Win32,59.88023952,66fa4ebf79326e780c390304,1464.9721,1504.216,0,3,3,3,1,rlnn_exp/rlnn_exp.004.png,,,,,,,,,,,,,,,,,,,,,,,,,,,,,,,,,,,,,,,,,,,,,,,,,,,,,,,,,,,,,,,,,,,,,,,,,,,,,,,,,,,
,,5e13ff1b94d5eea33e200fce,66fc9849e2a5af8e2bc40518,2024-10-01_21h49.44.105,mdp,2024.2.1,Win32,59.88023952,66fa4ebf79326e780c390304,,,,,,,,,1504.2418,1523.7195,y,9.4382,,,,,,,,,,,,,,,,,,,,,,,,,,,,,,,,,,,,,,,,,,,,,,,,,,,,,,,,,,,,,,,,,,,,,,,,,,,,,,,
,,5e13ff1b94d5eea33e200fce,66fc9849e2a5af8e2bc40518,2024-10-01_21h49.44.105,mdp,2024.2.1,Win32,59.88023952,66fa4ebf79326e780c390304,,,,,,,,,,,,,,1,seqs/st1seq32.csv,1523.7447,1526.4714,space,2.2125,,1526.4786,1526.479,1526.4798,1543.9896,0,0,left,16.9604,,1544.0132,1544.0145,,0,,1544.0149,1544.0161,,1,,1,1544.0162,1544.0163,1544.0166,1545.5068,0,0,0,0,1,0.6,0.4,0.2,0.8,1,0,,,,,,,,,,,,,,,,,,,,,,,,,,,,,,,,,,,,
,,5e13ff1b94d5eea33e200fce,66fc9849e2a5af8e2bc40518,2024-10-01_21h49.44.105,mdp,2024.2.1,Win32,59.88023952,66fa4ebf79326e780c390304,,,,,,,,,,,,,,,,,,,,,1545.5078,1545.508,1545.5097,1567.3443,0,0,left,21.3044,,1567.3575,1567.358,,0,,1567.3584,1567.3587,,0,,1,1567.3587,1567.3587,1567.359,1568.8628,0,1,1,1,1,0.6,0.4,0.2,0.8,1,0,,,,,,,,,,,,,,,,,,,,,,,,,,,,,,,,,,,,
,,5e13ff1b94d5eea33e200fce,66fc9849e2a5af8e2bc40518,2024-10-01_21h49.44.105,mdp,2024.2.1,Win32,59.88023952,66fa4ebf79326e780c390304,,,,,,,,,,,,,,,,,,,,,1568.864,1568.8641,1568.8671,1572.7665,1,1,right,3.3721,,1572.7881,1572.7887,,1,,1572.7893,1572.7897,,1,,0,1572.7897,1572.7897,1572.7901,1574.2848,0,2,2,2,1,0.6,0.4,0.2,0.8,1,0,,,,,,,,,,,,,,,,,,,,,,,,,,,,,,,,,,,,
,,5e13ff1b94d5eea33e200fce,66fc9849e2a5af8e2bc40518,2024-10-01_21h49.44.105,mdp,2024.2.1,Win32,59.88023952,66fa4ebf79326e780c390304,,,,,,,,,,,,,,,,,,,,,1574.2855,1574.2855,1574.2879,1577.171,0,0,left,2.358,,1577.1728,1577.1741,,1,,1577.1753,1577.1763,,0,,1,1577.1764,1577.1764,1577.1774,1578.6724,0,3,3,3,1,0.6,0.4,0.2,0.8,1,0,,,,,,,,,,,,,,,,,,,,,,,,,,,,,,,,,,,,
,,5e13ff1b94d5eea33e200fce,66fc9849e2a5af8e2bc40518,2024-10-01_21h49.44.105,mdp,2024.2.1,Win32,59.88023952,66fa4ebf79326e780c390304,,,,,,,,,,,,,,,,,,,,,1578.673,1578.673,1578.6746,1580.3909,0,0,left,1.1878,,1580.3927,1580.3938,,0,,1580.395,1580.3962,,1,,1,1580.3963,1580.3964,1580.3974,1581.8924,0,4,4,4,1,0.6,0.4,0.2,0.8,1,0,,,,,,,,,,,,,,,,,,,,,,,,,,,,,,,,,,,,
,,5e13ff1b94d5eea33e200fce,66fc9849e2a5af8e2bc40518,2024-10-01_21h49.44.105,mdp,2024.2.1,Win32,59.88023952,66fa4ebf79326e780c390304,,,,,,,,,,,,,,,,,,,,,1581.8933,1581.8933,1581.8958,1583.6942,1,0,right,1.2709,,1583.6962,1583.6973,,1,,1583.6985,1583.6996,,1,,1,1583.6996,1583.6996,1583.7007,1585.1954,0,5,5,5,1,0.6,0.4,0.2,0.8,1,0,,,,,,,,,,,,,,,,,,,,,,,,,,,,,,,,,,,,
,,5e13ff1b94d5eea33e200fce,66fc9849e2a5af8e2bc40518,2024-10-01_21h49.44.105,mdp,2024.2.1,Win32,59.88023952,66fa4ebf79326e780c390304,,,,,,,,,,,,,,,,,,,,,1585.1962,1585.1962,1585.1989,1587.4146,1,1,right,1.6956,,1587.4401,1587.4407,,1,,1587.4413,1587.4416,,1,,0,1587.4417,1587.4417,1587.4421,1588.9325,0,6,6,6,1,0.6,0.4,0.2,0.8,1,0,,,,,,,,,,,,,,,,,,,,,,,,,,,,,,,,,,,,
,,5e13ff1b94d5eea33e200fce,66fc9849e2a5af8e2bc40518,2024-10-01_21h49.44.105,mdp,2024.2.1,Win32,59.88023952,66fa4ebf79326e780c390304,,,,,,,,,,,,,,,,,,,,,1588.9331,1588.9332,1588.9357,1591.0348,0,0,left,1.5682,,1591.0366,1591.0378,,0,,1591.039,1591.0399,,0,,1,1591.0401,1591.0401,1591.0411,1592.5361,0,7,7,7,1,0.8,0.2,0.8,0.2,1,0,,,,,,,,,,,,,,,,,,,,,,,,,,,,,,,,,,,,
,,5e13ff1b94d5eea33e200fce,66fc9849e2a5af8e2bc40518,2024-10-01_21h49.44.105,mdp,2024.2.1,Win32,59.88023952,66fa4ebf79326e780c390304,,,,,,,,,,,,,,,,,,,,,1592.5371,1592.5371,1592.5388,1594.0043,0,1,left,0.9341,,1594.0065,1594.0076,,0,,1594.009,1594.01,,0,,0,1594.0101,1594.0102,1594.0112,1595.5058,0,8,8,8,1,0.6,0.4,0.6,0.4,1,0,,,,,,,,,,,,,,,,,,,,,,,,,,,,,,,,,,,,
,,5e13ff1b94d5eea33e200fce,66fc9849e2a5af8e2bc40518,2024-10-01_21h49.44.105,mdp,2024.2.1,Win32,59.88023952,66fa4ebf79326e780c390304,,,,,,,,,,,,,,,,,,,,,1595.5064,1595.5064,1595.5088,1596.5901,0,1,left,0.5615,,1596.5919,1596.593,,0,,1596.5942,1596.5952,,0,,0,1596.5953,1596.5953,1596.5963,1598.0916,0,9,9,9,1,0.6,0.4,0.6,0.4,1,0,,,,,,,,,,,,,,,,,,,,,,,,,,,,,,,,,,,,
,,5e13ff1b94d5eea33e200fce,66fc9849e2a5af8e2bc40518,2024-10-01_21h49.44.105,mdp,2024.2.1,Win32,59.88023952,66fa4ebf79326e780c390304,,,,,,,,,,,,,,,,,,,,,1598.0922,1598.0922,1598.0939,1599.8599,0,1,left,1.2352,,1599.8618,1599.863,,1,,1599.8641,1599.8653,,1,,0,1599.8653,1599.8653,1599.8663,1601.3616,0,10,10,10,1,0.6,0.4,0.6,0.4,1,0,,,,,,,,,,,,,,,,,,,,,,,,,,,,,,,,,,,,
,,5e13ff1b94d5eea33e200fce,66fc9849e2a5af8e2bc40518,2024-10-01_21h49.44.105,mdp,2024.2.1,Win32,59.88023952,66fa4ebf79326e780c390304,,,,,,,,,,,,,,,,,,,,,1601.3623,1601.3623,1601.3639,1602.5958,1,1,right,0.7056,,1602.5976,1602.5989,,1,,1602.6007,1602.6021,,1,,0,1602.6022,1602.6022,1602.6032,1604.0975,0,11,11,11,1,0.6,0.4,0.6,0.4,1,0,,,,,,,,,,,,,,,,,,,,,,,,,,,,,,,,,,,,
,,5e13ff1b94d5eea33e200fce,66fc9849e2a5af8e2bc40518,2024-10-01_21h49.44.105,mdp,2024.2.1,Win32,59.88023952,66fa4ebf79326e780c390304,,,,,,,,,,,,,,,,,,,,,1604.0984,1604.0984,1604.0999,1604.9983,0,0,left,0.3769,,1605.0006,1605.002,,1,,1605.0033,1605.0043,,1,,1,1605.0044,1605.0044,1605.0053,1606.4999,0,12,12,12,1,0.6,0.4,0.6,0.4,1,0,,,,,,,,,,,,,,,,,,,,,,,,,,,,,,,,,,,,
,,5e13ff1b94d5eea33e200fce,66fc9849e2a5af8e2bc40518,2024-10-01_21h49.44.105,mdp,2024.2.1,Win32,59.88023952,66fa4ebf79326e780c390304,,,,,,,,,,,,,,,,,,,,,1606.5006,1606.5006,1606.5025,1607.5676,0,0,left,0.5352,,1607.5695,1607.5705,,0,,1607.5719,1607.5729,,1,,1,1607.573,1607.573,1607.5739,1609.0694,0,13,13,13,1,0.4,0.6,0.8,0.2,1,0,,,,,,,,,,,,,,,,,,,,,,,,,,,,,,,,,,,,
,,5e13ff1b94d5eea33e200fce,66fc9849e2a5af8e2bc40518,2024-10-01_21h49.44.105,mdp,2024.2.1,Win32,59.88023952,66fa4ebf79326e780c390304,,,,,,,,,,,,,,,,,,,,,1609.0702,1609.0702,1609.0717,1610.337,1,0,right,0.7338,,1610.3389,1610.34,,0,,1610.3411,1610.3421,,0,,1,1610.3421,1610.3421,1610.3431,1611.8385,0,14,14,14,1,0.2,0.8,0.6,0.4,1,0,,,,,,,,,,,,,,,,,,,,,,,,,,,,,,,,,,,,
,,5e13ff1b94d5eea33e200fce,66fc9849e2a5af8e2bc40518,2024-10-01_21h49.44.105,mdp,2024.2.1,Win32,59.88023952,66fa4ebf79326e780c390304,,,,,,,,,,,,,,,,,,,,,1611.8391,1611.8391,1611.8407,1613.2732,1,0,right,0.9018,,1613.275,1613.2762,,1,,1613.2775,1613.2784,,0,,1,1613.2784,1613.2784,1613.2795,1614.7747,0,15,15,15,1,0.8,0.2,0.8,0.2,1,0,,,,,,,,,,,,,,,,,,,,,,,,,,,,,,,,,,,,
,,5e13ff1b94d5eea33e200fce,66fc9849e2a5af8e2bc40518,2024-10-01_21h49.44.105,mdp,2024.2.1,Win32,59.88023952,66fa4ebf79326e780c390304,,,,,,,,,,,,,,,,,,,,,1614.7753,1614.7753,1614.7769,1616.2925,0,0,left,0.9967,,1616.2947,1616.2957,,0,,1616.2969,1616.2979,,0,,1,1616.298,1616.298,1616.2989,1617.7944,0,16,16,16,1,0.8,0.2,0.8,0.2,1,0,,,,,,,,,,,,,,,,,,,,,,,,,,,,,,,,,,,,
,,5e13ff1b94d5eea33e200fce,66fc9849e2a5af8e2bc40518,2024-10-01_21h49.44.105,mdp,2024.2.1,Win32,59.88023952,66fa4ebf79326e780c390304,,,,,,,,,,,,,,,,,,,,,1617.795,1617.795,1617.7966,1619.3959,1,0,right,1.0678,,1619.3977,1619.3988,,0,,1619.4,1619.401,,0,,1,1619.401,1619.4011,1619.4022,1620.8975,0,17,17,17,1,0.8,0.2,0.8,0.2,1,0,,,,,,,,,,,,,,,,,,,,,,,,,,,,,,,,,,,,
,,5e13ff1b94d5eea33e200fce,66fc9849e2a5af8e2bc40518,2024-10-01_21h49.44.105,mdp,2024.2.1,Win32,59.88023952,66fa4ebf79326e780c390304,,,,,,,,,,,,,,,,,,,,,1620.8981,1620.8981,1620.8996,1622.7489,1,0,right,1.3307,,1622.7509,1622.7519,,0,,1622.7532,1622.7541,,0,,1,1622.7541,1622.7541,1622.7559,1624.2508,0,18,18,18,1,0.8,0.2,0.8,0.2,1,0,,,,,,,,,,,,,,,,,,,,,,,,,,,,,,,,,,,,
,,5e13ff1b94d5eea33e200fce,66fc9849e2a5af8e2bc40518,2024-10-01_21h49.44.105,mdp,2024.2.1,Win32,59.88023952,66fa4ebf79326e780c390304,,,,,,,,,,,,,,,,,,,,,1624.2514,1624.2516,1624.2531,1626.2022,1,1,right,1.417,,1626.2031,1626.2036,,1,,1626.2042,1626.2046,,0,,0,1626.2046,1626.2046,1626.2049,1627.7039,0,19,19,19,1,0.6,0.4,0.6,0.4,1,0,,,,,,,,,,,,,,,,,,,,,,,,,,,,,,,,,,,,
,,5e13ff1b94d5eea33e200fce,66fc9849e2a5af8e2bc40518,2024-10-01_21h49.44.105,mdp,2024.2.1,Win32,59.88023952,66fa4ebf79326e780c390304,,,,,,,,,,,,,,,,,,,,,1627.7047,1627.7047,1627.7065,1629.339,0,1,left,1.109,,1629.3407,1629.342,,0,,1629.3434,1629.3444,,1,,0,1629.3445,1629.3445,1629.3454,1630.8406,0,20,20,20,1,0.4,0.6,0.8,0.2,1,0,,,,,,,,,,,,,,,,,,,,,,,,,,,,,,,,,,,,
,,5e13ff1b94d5eea33e200fce,66fc9849e2a5af8e2bc40518,2024-10-01_21h49.44.105,mdp,2024.2.1,Win32,59.88023952,66fa4ebf79326e780c390304,,,,,,,,,,,,,,,,,,,,,1630.8413,1630.8413,1630.8429,1632.5252,0,0,left,1.1624,,1632.5272,1632.5282,,0,,1632.5295,1632.5305,,0,,1,1632.5305,1632.5305,1632.5317,1634.027,0,21,21,21,1,0.4,0.6,0.8,0.2,1,0,,,,,,,,,,,,,,,,,,,,,,,,,,,,,,,,,,,,
,,5e13ff1b94d5eea33e200fce,66fc9849e2a5af8e2bc40518,2024-10-01_21h49.44.105,mdp,2024.2.1,Win32,59.88023952,66fa4ebf79326e780c390304,,,,,,,,,,,,,,,,,,,,,1634.0277,1634.0277,1634.0292,1635.8949,0,1,left,1.3368,,1635.896,1635.8965,,0,,1635.897,1635.8974,,1,,0,1635.8974,1635.8974,1635.8979,1637.397,0,22,22,22,1,0.4,0.6,0.8,0.2,1,0,,,,,,,,,,,,,,,,,,,,,,,,,,,,,,,,,,,,
,,5e13ff1b94d5eea33e200fce,66fc9849e2a5af8e2bc40518,2024-10-01_21h49.44.105,mdp,2024.2.1,Win32,59.88023952,66fa4ebf79326e780c390304,,,,,,,,,,,,,,,,,,,,,1637.3976,1637.3976,1637.3992,1639.1987,1,0,right,1.2786,,1639.2005,1639.2016,,0,,1639.2027,1639.2036,,0,,1,1639.2037,1639.2037,1639.2046,1640.7003,0,23,23,23,1,0.4,0.6,0.8,0.2,1,0,,,,,,,,,,,,,,,,,,,,,,,,,,,,,,,,,,,,
,,5e13ff1b94d5eea33e200fce,66fc9849e2a5af8e2bc40518,2024-10-01_21h49.44.105,mdp,2024.2.1,Win32,59.88023952,66fa4ebf79326e780c390304,,,,,,,,,,,,,,,,,,,,,1640.7009,1640.701,1640.7025,1642.5683,1,0,right,1.3337,,1642.5692,1642.5697,,0,,1642.5702,1642.5706,,1,,1,1642.5706,1642.5706,1642.5709,1644.0703,0,24,24,24,1,0.4,0.6,0.8,0.2,1,0,,,,,,,,,,,,,,,,,,,,,,,,,,,,,,,,,,,,
,,5e13ff1b94d5eea33e200fce,66fc9849e2a5af8e2bc40518,2024-10-01_21h49.44.105,mdp,2024.2.1,Win32,59.88023952,66fa4ebf79326e780c390304,,,,,,,,,,,,,,,,,,,,,1644.0708,1644.0709,1644.0726,1645.5383,0,1,left,0.9413,,1645.5402,1645.5413,,1,,1645.5426,1645.5434,,1,,0,1645.5435,1645.5435,1645.5446,1647.0399,0,25,25,25,1,0.4,0.6,0.8,0.2,1,0,,,,,,,,,,,,,,,,,,,,,,,,,,,,,,,,,,,,
,,5e13ff1b94d5eea33e200fce,66fc9849e2a5af8e2bc40518,2024-10-01_21h49.44.105,mdp,2024.2.1,Win32,59.88023952,66fa4ebf79326e780c390304,,,,,,,,,,,,,,,,,,,,,1647.0406,1647.0406,1647.0422,1648.0241,1,0,right,0.4591,,1648.0259,1648.0269,,0,,1648.0281,1648.0293,,1,,1,1648.0294,1648.0294,1648.0303,1649.5256,0,26,26,26,1,0.4,0.6,0.8,0.2,1,0,,,,,,,,,,,,,,,,,,,,,,,,,,,,,,,,,,,,
,,5e13ff1b94d5eea33e200fce,66fc9849e2a5af8e2bc40518,2024-10-01_21h49.44.105,mdp,2024.2.1,Win32,59.88023952,66fa4ebf79326e780c390304,,,,,,,,,,,,,,,,,,,,,1649.5264,1649.5264,1649.5279,1650.8769,1,0,right,0.8185,,1650.8788,1650.8798,,0,,1650.8809,1650.8818,,1,,1,1650.882,1650.882,1650.8829,1652.3784,0,27,27,27,1,0.4,0.6,0.8,0.2,1,0,,,,,,,,,,,,,,,,,,,,,,,,,,,,,,,,,,,,
,,5e13ff1b94d5eea33e200fce,66fc9849e2a5af8e2bc40518,2024-10-01_21h49.44.105,mdp,2024.2.1,Win32,59.88023952,66fa4ebf79326e780c390304,,,,,,,,,,,,,,,,,,,,,1652.379,1652.3791,1652.3805,1653.7631,0,1,left,0.8509,,1653.7648,1653.7659,,1,,1653.7671,1653.7681,,1,,0,1653.7682,1653.7682,1653.7692,1655.2648,0,28,28,28,1,0.4,0.6,0.8,0.2,1,0,,,,,,,,,,,,,,,,,,,,,,,,,,,,,,,,,,,,
,,5e13ff1b94d5eea33e200fce,66fc9849e2a5af8e2bc40518,2024-10-01_21h49.44.105,mdp,2024.2.1,Win32,59.88023952,66fa4ebf79326e780c390304,,,,,,,,,,,,,,,,,,,,,1655.2652,1655.2652,1655.2668,1656.0989,1,0,right,0.2995,,1656.1007,1656.1021,,1,,1656.1039,1656.1048,,0,,1,1656.1049,1656.1049,1656.1058,1657.6004,0,29,29,29,1,0.4,0.6,0.8,0.2,1,0,,,,,,,,,,,,,,,,,,,,,,,,,,,,,,,,,,,,
,,5e13ff1b94d5eea33e200fce,66fc9849e2a5af8e2bc40518,2024-10-01_21h49.44.105,mdp,2024.2.1,Win32,59.88023952,66fa4ebf79326e780c390304,,,,,,,,,,,,,,,,,,,,,1657.6009,1657.601,1657.6026,1658.4512,1,0,right,0.323,,1658.4531,1658.4542,,0,,1658.4555,1658.4564,,0,,1,1658.4564,1658.4564,1658.4575,1659.952,0,30,30,30,1,0.4,0.6,0.8,0.2,1,0,,,,,,,,,,,,,,,,,,,,,,,,,,,,,,,,,,,,
,,5e13ff1b94d5eea33e200fce,66fc9849e2a5af8e2bc40518,2024-10-01_21h49.44.105,mdp,2024.2.1,Win32,59.88023952,66fa4ebf79326e780c390304,,,,,,,,,,,,,,,,,,,,,1659.9523,1659.9523,1659.9529,1661.0204,0,0,left,0.5512,,1661.0221,1661.0231,,0,,1661.0242,1661.0249,,1,,1,1661.025,1661.025,1661.0261,1662.5215,0,31,31,31,1,0.4,0.6,0.8,0.2,1,0,,,,,,,,,,,,,,,,,,,,,,,,,,,,,,,,,,,,
,,5e13ff1b94d5eea33e200fce,66fc9849e2a5af8e2bc40518,2024-10-01_21h49.44.105,mdp,2024.2.1,Win32,59.88023952,66fa4ebf79326e780c390304,,,,,,,,,,,,,,,,,,,,,1662.5222,1662.5222,1662.5237,1663.7726,1,1,right,0.7209,,1663.7733,1663.7738,,0,,1663.7741,1663.7744,,1,,0,1663.7744,1663.7744,1663.7746,1665.2747,0,32,32,32,1,0.4,0.6,0.8,0.2,1,0,,,,,,,,,,,,,,,,,,,,,,,,,,,,,,,,,,,,
,,5e13ff1b94d5eea33e200fce,66fc9849e2a5af8e2bc40518,2024-10-01_21h49.44.105,mdp,2024.2.1,Win32,59.88023952,66fa4ebf79326e780c390304,,,,,,,,,,,,,,,,,,,,,1665.2755,1665.2755,1665.2771,1666.3253,1,0,right,0.5209,,1666.3275,1666.3286,,0,,1666.3298,1666.3306,,0,,1,1666.3307,1666.3307,1666.3317,1667.8266,0,33,33,33,1,0.4,0.6,0.8,0.2,1,0,,,,,,,,,,,,,,,,,,,,,,,,,,,,,,,,,,,,
,,5e13ff1b94d5eea33e200fce,66fc9849e2a5af8e2bc40518,2024-10-01_21h49.44.105,mdp,2024.2.1,Win32,59.88023952,66fa4ebf79326e780c390304,,,,,,,,,,,,,,,,,,,,,1667.827,1667.827,1667.8278,1668.7612,0,1,left,0.4167,,1668.7633,1668.7644,,1,,1668.7656,1668.7664,,1,,0,1668.7665,1668.7665,1668.7675,1670.2624,0,34,34,34,1,0.4,0.6,0.8,0.2,1,0,,,,,,,,,,,,,,,,,,,,,,,,,,,,,,,,,,,,
,,5e13ff1b94d5eea33e200fce,66fc9849e2a5af8e2bc40518,2024-10-01_21h49.44.105,mdp,2024.2.1,Win32,59.88023952,66fa4ebf79326e780c390304,,,,,,,,,,,,,,,,,,,,,1670.2631,1670.2631,1670.2649,1671.4805,0,0,left,0.685,,1671.4825,1671.4833,,0,,1671.4845,1671.4853,,1,,1,1671.4854,1671.4854,1671.4864,1672.982,0,35,35,35,1,0.4,0.6,0.8,0.2,1,0,,,,,,,,,,,,,,,,,,,,,,,,,,,,,,,,,,,,
,,5e13ff1b94d5eea33e200fce,66fc9849e2a5af8e2bc40518,2024-10-01_21h49.44.105,mdp,2024.2.1,Win32,59.88023952,66fa4ebf79326e780c390304,,,,,,,,,,,,,,,,,,,,,1672.9827,1672.9827,1672.9842,1674.4503,0,0,left,0.9414,,1674.4521,1674.4531,,1,,1674.4542,1674.4552,,0,,1,1674.4552,1674.4552,1674.4564,1675.9515,0,36,36,36,1,0.4,0.6,0.8,0.2,1,0,,,,,,,,,,,,,,,,,,,,,,,,,,,,,,,,,,,,
,,5e13ff1b94d5eea33e200fce,66fc9849e2a5af8e2bc40518,2024-10-01_21h49.44.105,mdp,2024.2.1,Win32,59.88023952,66fa4ebf79326e780c390304,,,,,,,,,,,,,,,,,,,,,1675.9522,1675.9522,1675.9541,1677.1195,0,1,left,0.6359,,1677.1212,1677.1222,,1,,1677.1233,1677.1242,,0,,0,1677.1242,1677.1243,1677.1252,1678.6206,0,37,37,37,1,0.2,0.8,0.6,0.4,1,0,,,,,,,,,,,,,,,,,,,,,,,,,,,,,,,,,,,,
,,5e13ff1b94d5eea33e200fce,66fc9849e2a5af8e2bc40518,2024-10-01_21h49.44.105,mdp,2024.2.1,Win32,59.88023952,66fa4ebf79326e780c390304,,,,,,,,,,,,,,,,,,,,,1678.6212,1678.6213,1678.6229,1679.2882,1,1,right,0.1428,,1679.29,1679.2911,,1,,1679.2922,1679.2931,,0,,0,1679.2932,1679.2932,1679.2941,1680.7896,0,38,38,38,1,0.8,0.2,0.2,0.8,1,0,,,,,,,,,,,,,,,,,,,,,,,,,,,,,,,,,,,,
,,5e13ff1b94d5eea33e200fce,66fc9849e2a5af8e2bc40518,2024-10-01_21h49.44.105,mdp,2024.2.1,Win32,59.88023952,66fa4ebf79326e780c390304,,,,,,,,,,,,,,,,,,,,,1680.7902,1680.7902,1680.792,1681.6072,1,1,right,0.2935,,1681.6089,1681.61,,0,,1681.6114,1681.6123,,1,,0,1681.6124,1681.6124,1681.6133,1683.1079,0,39,39,39,1,0.8,0.2,0.2,0.8,1,0,,,,,,,,,,,,,,,,,,,,,,,,,,,,,,,,,,,,
,,5e13ff1b94d5eea33e200fce,66fc9849e2a5af8e2bc40518,2024-10-01_21h49.44.105,mdp,2024.2.1,Win32,59.88023952,66fa4ebf79326e780c390304,,,,,,,,,,,,,,,,,,,,,1683.1082,1683.1082,1683.11,1684.0764,1,1,right,0.4639,,1684.0781,1684.079,,1,,1684.0801,1684.0809,,1,,0,1684.0809,1684.0809,1684.0819,1685.5777,0,40,40,40,1,0.8,0.2,0.2,0.8,1,0,,,,,,,,,,,,,,,,,,,,,,,,,,,,,,,,,,,,
,,5e13ff1b94d5eea33e200fce,66fc9849e2a5af8e2bc40518,2024-10-01_21h49.44.105,mdp,2024.2.1,Win32,59.88023952,66fa4ebf79326e780c390304,,,,,,,,,,,,,,,,,,,,,1685.5784,1685.5785,1685.5799,1687.2291,0,0,left,1.1294,,1687.2309,1687.2318,,1,,1687.233,1687.2339,,0,,1,1687.2339,1687.2339,1687.2349,1688.7309,0,41,41,41,1,0.8,0.2,0.2,0.8,1,0,,,,,,,,,,,,,,,,,,,,,,,,,,,,,,,,,,,,
,,5e13ff1b94d5eea33e200fce,66fc9849e2a5af8e2bc40518,2024-10-01_21h49.44.105,mdp,2024.2.1,Win32,59.88023952,66fa4ebf79326e780c390304,,,,,,,,,,,,,,,,,,,,,1688.7315,1688.7315,1688.7333,1689.5485,1,1,right,0.2962,,1689.5506,1689.5519,,1,,1689.553,1689.5539,,0,,0,1689.554,1689.554,1689.5549,1691.0499,0,42,42,42,1,0.8,0.2,0.2,0.8,1,0,,,,,,,,,,,,,,,,,,,,,,,,,,,,,,,,,,,,
,,5e13ff1b94d5eea33e200fce,66fc9849e2a5af8e2bc40518,2024-10-01_21h49.44.105,mdp,2024.2.1,Win32,59.88023952,66fa4ebf79326e780c390304,,,,,,,,,,,,,,,,,,,,,1691.0505,1691.0505,1691.052,1691.9836,0,0,left,0.4089,,1691.9845,1691.985,,0,,1691.9854,1691.9856,,0,,1,1691.9856,1691.9856,1691.986,1693.4857,0,43,43,43,1,0.8,0.2,0.2,0.8,1,0,,,,,,,,,,,,,,,,,,,,,,,,,,,,,,,,,,,,
,,5e13ff1b94d5eea33e200fce,66fc9849e2a5af8e2bc40518,2024-10-01_21h49.44.105,mdp,2024.2.1,Win32,59.88023952,66fa4ebf79326e780c390304,,,,,,,,,,,,,,,,,,,,,1693.4863,1693.4864,1693.4879,1694.3365,0,0,left,0.3171,,1694.3382,1694.3392,,0,,1694.3402,1694.3413,,0,,1,1694.3413,1694.3413,1694.3423,1695.8378,0,44,44,44,1,0.8,0.2,0.2,0.8,1,0,,,,,,,,,,,,,,,,,,,,,,,,,,,,,,,,,,,,
,,5e13ff1b94d5eea33e200fce,66fc9849e2a5af8e2bc40518,2024-10-01_21h49.44.105,mdp,2024.2.1,Win32,59.88023952,66fa4ebf79326e780c390304,,,,,,,,,,,,,,,,,,,,,1695.8384,1695.8384,1695.8399,1696.939,0,0,left,0.569,,1696.9408,1696.9419,,0,,1696.943,1696.9439,,1,,1,1696.9439,1696.944,1696.945,1698.4403,0,45,45,45,1,0.6,0.4,0.6,0.4,1,0,,,,,,,,,,,,,,,,,,,,,,,,,,,,,,,,,,,,
,,5e13ff1b94d5eea33e200fce,66fc9849e2a5af8e2bc40518,2024-10-01_21h49.44.105,mdp,2024.2.1,Win32,59.88023952,66fa4ebf79326e780c390304,,,,,,,,,,,,,,,,,,,,,1698.4413,1698.4413,1698.4432,1699.4415,0,0,left,0.467,,1699.4432,1699.4442,,0,,1699.4452,1699.4461,,0,,1,1699.4463,1699.4463,1699.4471,1700.9427,0,46,46,46,1,0.6,0.4,0.6,0.4,1,0,,,,,,,,,,,,,,,,,,,,,,,,,,,,,,,,,,,,
,,5e13ff1b94d5eea33e200fce,66fc9849e2a5af8e2bc40518,2024-10-01_21h49.44.105,mdp,2024.2.1,Win32,59.88023952,66fa4ebf79326e780c390304,,,,,,,,,,,,,,,,,,,,,1700.9432,1700.9432,1700.9446,1702.0936,1,0,right,0.6452,,1702.0948,1702.0955,,0,,1702.0963,1702.0969,,1,,1,1702.0969,1702.0969,1702.0975,1703.5955,0,47,47,47,1,0.6,0.4,0.6,0.4,1,0,,,,,,,,,,,,,,,,,,,,,,,,,,,,,,,,,,,,
,,5e13ff1b94d5eea33e200fce,66fc9849e2a5af8e2bc40518,2024-10-01_21h49.44.105,mdp,2024.2.1,Win32,59.88023952,66fa4ebf79326e780c390304,,,,,,,,,,,,,,,,,,,,,1703.5961,1703.5961,1703.5976,1704.7799,1,1,right,0.6545,,1704.7816,1704.7827,,1,,1704.784,1704.7848,,0,,0,1704.7849,1704.7849,1704.7858,1706.2815,0,48,48,48,1,0.6,0.4,0.6,0.4,1,0,,,,,,,,,,,,,,,,,,,,,,,,,,,,,,,,,,,,
,,5e13ff1b94d5eea33e200fce,66fc9849e2a5af8e2bc40518,2024-10-01_21h49.44.105,mdp,2024.2.1,Win32,59.88023952,66fa4ebf79326e780c390304,,,,,,,,,,,,,,,,,,,,,1706.2821,1706.2821,1706.2835,1708.1501,0,1,left,1.3374,,1708.152,1708.1529,,0,,1708.154,1708.1549,,1,,0,1708.155,1708.155,1708.1558,1709.6514,0,49,49,49,1,0.4,0.6,0.8,0.2,1,0,,,,,,,,,,,,,,,,,,,,,,,,,,,,,,,,,,,,
,,5e13ff1b94d5eea33e200fce,66fc9849e2a5af8e2bc40518,2024-10-01_21h49.44.105,mdp,2024.2.1,Win32,59.88023952,66fa4ebf79326e780c390304,,,,,,,,,,,,,,,,,,,,,,,,,,,,,,,,,,,,,,,,,,,,,,,,,,,,,,,,1709.6531,1768.1602,0,0,0,4,1,imgs/giraffe.png,imgs/squirrel.png,imgs/rabbit.png,imgs/goat.png,imgs/lion.png,,,,,,,,,,,,,,,,,,,,,,,,
,,5e13ff1b94d5eea33e200fce,66fc9849e2a5af8e2bc40518,2024-10-01_21h49.44.105,mdp,2024.2.1,Win32,59.88023952,66fa4ebf79326e780c390304,,,,,,,,,,,,,,2,seqs/st2seq21.csv,1768.1848,1774.3479,space,5.643,,1774.358,1774.358,1774.3586,1778.4525,1,1,right,3.5644,,1778.4794,1782.1395,1,1,right,1782.1413,1782.1425,,0,,0,1782.1425,1782.1426,1782.1437,1783.641,0,0,0,0,1,0.8,0.2,0.4,0.6,,,,,,,,,,,,,,,3.1628,,0.8,0.2,0.4,0.6,0.4,0.6,0.4,0.6,1,0,,,,,,,,,,,,
,,5e13ff1b94d5eea33e200fce,66fc9849e2a5af8e2bc40518,2024-10-01_21h49.44.105,mdp,2024.2.1,Win32,59.88023952,66fa4ebf79326e780c390304,,,,,,,,,,,,,,,,,,,,,1783.6417,1783.6417,1783.6432,1784.9422,0,1,left,0.7785,,1784.9439,1788.2452,0,1,left,1788.2713,1788.2718,,1,,0,1788.2718,1788.2718,1788.2724,1789.7636,0,1,1,1,1,0.2,0.8,0.8,0.2,,,,,,,,,,,,,,,2.7983,,0.8,0.2,0.4,0.6,0.4,0.6,0.4,0.6,1,0,,,,,,,,,,,,
,,5e13ff1b94d5eea33e200fce,66fc9849e2a5af8e2bc40518,2024-10-01_21h49.44.105,mdp,2024.2.1,Win32,59.88023952,66fa4ebf79326e780c390304,,,,,,,,,,,,,,,,,,,,,1789.7643,1789.7643,1789.7658,1790.8317,1,0,right,0.5355,,1790.8333,1794.1513,0,0,left,1794.1531,1794.154,,0,,1,1794.1542,1794.1542,1794.1552,1795.6526,0,2,2,2,1,0.2,0.8,0.8,0.2,,,,,,,,,,,,,,,2.7922,,0.8,0.2,0.4,0.6,0.4,0.6,0.4,0.6,1,0,,,,,,,,,,,,
,,5e13ff1b94d5eea33e200fce,66fc9849e2a5af8e2bc40518,2024-10-01_21h49.44.105,mdp,2024.2.1,Win32,59.88023952,66fa4ebf79326e780c390304,,,,,,,,,,,,,,,,,,,,,1795.6533,1795.6533,1795.6547,1797.5713,1,0,right,1.386,,1797.5735,1799.3062,1,1,right,1799.3079,1799.3088,,1,,0,1799.3089,1799.3089,1799.31,1800.8078,0,3,3,3,1,0.2,0.8,0.8,0.2,,,,,,,,,,,,,,,1.2189,,0.2,0.8,0.6,0.4,0.4,0.6,0.4,0.6,1,0,,,,,,,,,,,,
,,5e13ff1b94d5eea33e200fce,66fc9849e2a5af8e2bc40518,2024-10-01_21h49.44.105,mdp,2024.2.1,Win32,59.88023952,66fa4ebf79326e780c390304,,,,,,,,,,,,,,,,,,,,,1800.8084,1800.8085,1800.81,1801.7251,0,0,left,0.3953,,1801.7267,1802.9933,0,1,left,1802.9952,1802.9967,,1,,0,1802.9968,1802.9968,1802.9985,1804.4947,0,4,4,4,1,0.8,0.2,0.4,0.6,,,,,,,,,,,,,,,0.7573,,0.2,0.8,0.6,0.4,0.4,0.6,0.4,0.6,1,0,,,,,,,,,,,,
,,5e13ff1b94d5eea33e200fce,66fc9849e2a5af8e2bc40518,2024-10-01_21h49.44.105,mdp,2024.2.1,Win32,59.88023952,66fa4ebf79326e780c390304,,,,,,,,,,,,,,,,,,,,,1804.4952,1804.4953,1804.4963,1806.1631,0,0,left,1.1401,,1806.1646,1807.2809,1,0,right,1807.2826,1807.2836,,1,,1,1807.2837,1807.2837,1807.2848,1808.7816,0,5,5,5,1,0.8,0.2,0.4,0.6,,,,,,,,,,,,,,,0.6016,,0.2,0.8,0.6,0.4,0.4,0.6,0.4,0.6,1,0,,,,,,,,,,,,
,,5e13ff1b94d5eea33e200fce,66fc9849e2a5af8e2bc40518,2024-10-01_21h49.44.105,mdp,2024.2.1,Win32,59.88023952,66fa4ebf79326e780c390304,,,,,,,,,,,,,,,,,,,,,1808.7819,1808.7819,1808.7824,1809.8998,1,0,right,0.6056,,1809.9008,1811.0844,0,1,left,1811.0862,1811.0874,,1,,0,1811.0875,1811.0875,1811.0886,1812.5861,0,6,6,6,1,0.6,0.4,0.6,0.4,,,,,,,,,,,,,,,0.6804,,0.2,0.8,0.6,0.4,0.4,0.6,0.4,0.6,1,0,,,,,,,,,,,,
,,5e13ff1b94d5eea33e200fce,66fc9849e2a5af8e2bc40518,2024-10-01_21h49.44.105,mdp,2024.2.1,Win32,59.88023952,66fa4ebf79326e780c390304,,,,,,,,,,,,,,,,,,,,,1812.5868,1812.5868,1812.5882,1813.7539,0,0,left,0.641,,1813.7556,1814.9051,1,1,right,1814.9069,1814.908,,1,,0,1814.908,1814.908,1814.9092,1816.4065,0,7,7,7,1,0.6,0.4,0.6,0.4,,,,,,,,,,,,,,,0.6345,,0.2,0.8,0.6,0.4,0.4,0.6,0.4,0.6,1,0,,,,,,,,,,,,
,,5e13ff1b94d5eea33e200fce,66fc9849e2a5af8e2bc40518,2024-10-01_21h49.44.105,mdp,2024.2.1,Win32,59.88023952,66fa4ebf79326e780c390304,,,,,,,,,,,,,,,,,,,,,1816.4072,1816.4072,1816.4087,1817.3741,0,0,left,0.4373,,1817.3759,1818.4585,1,1,right,1818.4604,1818.4614,,0,,0,1818.4615,1818.4615,1818.4626,1819.9599,0,8,8,8,1,0.6,0.4,0.6,0.4,,,,,,,,,,,,,,,0.5745,,0.2,0.8,0.6,0.4,0.4,0.6,0.4,0.6,1,0,,,,,,,,,,,,
,,5e13ff1b94d5eea33e200fce,66fc9849e2a5af8e2bc40518,2024-10-01_21h49.44.105,mdp,2024.2.1,Win32,59.88023952,66fa4ebf79326e780c390304,,,,,,,,,,,,,,,,,,,,,1819.9607,1819.9607,1819.9623,1821.2613,0,0,left,0.7714,,1821.2633,1822.379,0,1,left,1822.3807,1822.3817,,0,,0,1822.3818,1822.3818,1822.3829,1823.8806,0,9,9,9,1,0.6,0.4,0.6,0.4,,,,,,,,,,,,,,,0.6016,,0.2,0.8,0.6,0.4,0.4,0.6,0.4,0.6,1,0,,,,,,,,,,,,
,,5e13ff1b94d5eea33e200fce,66fc9849e2a5af8e2bc40518,2024-10-01_21h49.44.105,mdp,2024.2.1,Win32,59.88023952,66fa4ebf79326e780c390304,,,,,,,,,,,,,,,,,,,,,1823.8813,1823.8814,1823.8827,1825.0816,1,0,right,0.6748,,1825.0834,1826.1493,0,1,left,1826.1509,1826.152,,1,,0,1826.152,1826.1521,1826.1532,1827.651,0,10,10,10,1,0.6,0.4,0.6,0.4,,,,,,,,,,,,,,,0.5631,,0.2,0.8,0.6,0.4,0.4,0.6,0.4,0.6,1,0,,,,,,,,,,,,
,,5e13ff1b94d5eea33e200fce,66fc9849e2a5af8e2bc40518,2024-10-01_21h49.44.105,mdp,2024.2.1,Win32,59.88023952,66fa4ebf79326e780c390304,,,,,,,,,,,,,,,,,,,,,1827.6517,1827.6517,1827.6539,1829.2355,1,0,right,1.0556,,1829.2363,1830.2868,1,0,right,1830.2886,1830.2897,,1,,1,1830.2897,1830.2897,1830.2909,1831.7884,0,11,11,11,1,0.6,0.4,0.6,0.4,,,,,,,,,,,,,,,0.5378,,0.2,0.8,0.6,0.4,0.4,0.6,0.4,0.6,1,0,,,,,,,,,,,,
,,5e13ff1b94d5eea33e200fce,66fc9849e2a5af8e2bc40518,2024-10-01_21h49.44.105,mdp,2024.2.1,Win32,59.88023952,66fa4ebf79326e780c390304,,,,,,,,,,,,,,,,,,,,,1831.789,1831.789,1831.7909,1833.0563,1,0,right,0.7345,,1833.0581,1833.8905,1,0,right,1833.8921,1833.8931,,1,,1,1833.8932,1833.8932,1833.8943,1835.3918,0,12,12,12,1,0.6,0.4,0.6,0.4,,,,,,,,,,,,,,,0.3253,,0.2,0.8,0.6,0.4,0.4,0.6,0.4,0.6,1,0,,,,,,,,,,,,
,,5e13ff1b94d5eea33e200fce,66fc9849e2a5af8e2bc40518,2024-10-01_21h49.44.105,mdp,2024.2.1,Win32,59.88023952,66fa4ebf79326e780c390304,,,,,,,,,,,,,,,,,,,,,1835.3924,1835.3925,1835.3943,1836.6265,1,0,right,0.7078,,1836.6282,1837.4768,1,0,right,1837.4778,1837.4783,,0,,1,1837.4784,1837.4784,1837.4788,1838.9788,0,13,13,13,1,0.6,0.4,0.6,0.4,,,,,,,,,,,,,,,0.3446,,0.2,0.8,0.6,0.4,0.4,0.6,0.4,0.6,1,0,,,,,,,,,,,,
,,5e13ff1b94d5eea33e200fce,66fc9849e2a5af8e2bc40518,2024-10-01_21h49.44.105,mdp,2024.2.1,Win32,59.88023952,66fa4ebf79326e780c390304,,,,,,,,,,,,,,,,,,,,,1838.9796,1838.9796,1838.9811,1840.1125,1,0,right,0.608,,1840.1132,1841.0474,1,0,right,1841.0492,1841.0504,,0,,1,1841.0505,1841.0505,1841.0516,1842.5486,0,14,14,14,1,0.6,0.4,0.6,0.4,,,,,,,,,,,,,,,0.4207,,0.2,0.8,0.6,0.4,0.4,0.6,0.4,0.6,1,0,,,,,,,,,,,,
,,5e13ff1b94d5eea33e200fce,66fc9849e2a5af8e2bc40518,2024-10-01_21h49.44.105,mdp,2024.2.1,Win32,59.88023952,66fa4ebf79326e780c390304,,,,,,,,,,,,,,,,,,,,,1842.5489,1842.5489,1842.5495,1843.4998,1,0,right,0.434,,1843.5017,1844.4842,1,1,right,1844.4859,1844.4869,,1,,0,1844.487,1844.487,1844.4881,1845.9858,0,15,15,15,1,0.6,0.4,0.6,0.4,,,,,,,,,,,,,,,0.4729,,0.2,0.8,0.6,0.4,0.4,0.6,0.4,0.6,1,0,,,,,,,,,,,,
,,5e13ff1b94d5eea33e200fce,66fc9849e2a5af8e2bc40518,2024-10-01_21h49.44.105,mdp,2024.2.1,Win32,59.88023952,66fa4ebf79326e780c390304,,,,,,,,,,,,,,,,,,,,,1845.9865,1845.9865,1845.9879,1846.6361,0,0,left,0.121,,1846.6377,1847.5206,0,1,left,1847.5223,1847.5233,,1,,0,1847.5234,1847.5234,1847.5246,1849.0217,0,16,16,16,1,0.6,0.4,0.6,0.4,,,,,,,,,,,,,,,0.367,,0.2,0.8,0.6,0.4,0.6,0.4,0.6,0.4,1,0,,,,,,,,,,,,
,,5e13ff1b94d5eea33e200fce,66fc9849e2a5af8e2bc40518,2024-10-01_21h49.44.105,mdp,2024.2.1,Win32,59.88023952,66fa4ebf79326e780c390304,,,,,,,,,,,,,,,,,,,,,1849.0223,1849.0224,1849.0238,1850.0063,0,1,left,0.4611,,1850.0079,1851.1568,0,0,left,1851.1574,1851.1578,,1,,1,1851.1578,1851.1578,1851.1582,1852.6589,0,17,17,17,1,0.6,0.4,0.6,0.4,,,,,,,,,,,,,,,0.6335,,0.2,0.8,0.6,0.4,0.6,0.4,0.6,0.4,1,0,,,,,,,,,,,,
,,5e13ff1b94d5eea33e200fce,66fc9849e2a5af8e2bc40518,2024-10-01_21h49.44.105,mdp,2024.2.1,Win32,59.88023952,66fa4ebf79326e780c390304,,,,,,,,,,,,,,,,,,,,,1852.6596,1852.6596,1852.6613,1854.3104,0,0,left,1.128,,1854.3123,1855.3282,0,1,left,1855.3299,1855.3309,,1,,0,1855.3309,1855.3309,1855.3321,1856.8298,0,18,18,18,1,0.6,0.4,0.6,0.4,,,,,,,,,,,,,,,0.4889,,0.2,0.8,0.6,0.4,0.6,0.4,0.6,0.4,1,0,,,,,,,,,,,,
,,5e13ff1b94d5eea33e200fce,66fc9849e2a5af8e2bc40518,2024-10-01_21h49.44.105,mdp,2024.2.1,Win32,59.88023952,66fa4ebf79326e780c390304,,,,,,,,,,,,,,,,,,,,,1856.8304,1856.8304,1856.8322,1859.1153,1,0,right,1.7528,,1859.1171,1860.9336,0,1,left,1860.9353,1860.9362,,1,,0,1860.9363,1860.9363,1860.9374,1862.4352,0,19,19,19,1,0.6,0.4,0.6,0.4,,,,,,,,,,,,,,,1.3049,,0.2,0.8,0.6,0.4,0.6,0.4,0.6,0.4,1,0,,,,,,,,,,,,
,,5e13ff1b94d5eea33e200fce,66fc9849e2a5af8e2bc40518,2024-10-01_21h49.44.105,mdp,2024.2.1,Win32,59.88023952,66fa4ebf79326e780c390304,,,,,,,,,,,,,,,,,,,,,1862.4359,1862.4359,1862.4381,1863.7695,1,1,right,0.8092,,1863.7716,1865.1545,1,0,right,1865.1561,1865.1572,,1,,1,1865.1572,1865.1572,1865.1584,1866.6558,0,20,20,20,1,0.8,0.2,0.2,0.8,,,,,,,,,,,,,,,0.8581,,0.2,0.8,0.6,0.4,0.6,0.4,0.6,0.4,1,0,,,,,,,,,,,,
,,5e13ff1b94d5eea33e200fce,66fc9849e2a5af8e2bc40518,2024-10-01_21h49.44.105,mdp,2024.2.1,Win32,59.88023952,66fa4ebf79326e780c390304,,,,,,,,,,,,,,,,,,,,,1866.6565,1866.6565,1866.6581,1868.7582,1,1,right,1.5873,,1868.7598,1869.7588,1,1,right,1869.7608,1869.762,,1,,0,1869.7621,1869.7621,1869.7632,1871.2601,0,21,21,21,1,0.8,0.2,0.2,0.8,,,,,,,,,,,,,,,0.4926,,0.2,0.8,0.6,0.4,0.6,0.4,0.6,0.4,1,0,,,,,,,,,,,,
,,5e13ff1b94d5eea33e200fce,66fc9849e2a5af8e2bc40518,2024-10-01_21h49.44.105,mdp,2024.2.1,Win32,59.88023952,66fa4ebf79326e780c390304,,,,,,,,,,,,,,,,,,,,,1871.2606,1871.2606,1871.2615,1872.4615,0,1,left,0.6881,,1872.4632,1873.429,1,0,right,1873.4313,1873.4323,,0,,1,1873.4323,1873.4323,1873.4334,1874.9308,0,22,22,22,1,0.8,0.2,0.2,0.8,,,,,,,,,,,,,,,0.4629,,0.2,0.8,0.6,0.4,0.6,0.4,0.6,0.4,1,0,,,,,,,,,,,,
,,5e13ff1b94d5eea33e200fce,66fc9849e2a5af8e2bc40518,2024-10-01_21h49.44.105,mdp,2024.2.1,Win32,59.88023952,66fa4ebf79326e780c390304,,,,,,,,,,,,,,,,,,,,,1874.9314,1874.9315,1874.9332,1876.0819,0,0,left,0.6249,,1876.0836,1876.9662,1,1,right,1876.9681,1876.9694,,1,,0,1876.9694,1876.9695,1876.9707,1878.4675,0,23,23,23,1,0.8,0.2,0.2,0.8,,,,,,,,,,,,,,,0.3584,,0.2,0.8,0.6,0.4,0.4,0.6,0.8,0.2,1,0,,,,,,,,,,,,
,,5e13ff1b94d5eea33e200fce,66fc9849e2a5af8e2bc40518,2024-10-01_21h49.44.105,mdp,2024.2.1,Win32,59.88023952,66fa4ebf79326e780c390304,,,,,,,,,,,,,,,,,,,,,1878.4683,1878.4683,1878.47,1879.4353,0,1,left,0.4394,,1879.437,1880.4026,0,1,left,1880.4045,1880.4054,,1,,0,1880.4055,1880.4055,1880.4066,1881.9039,0,24,24,24,1,0.8,0.2,0.2,0.8,,,,,,,,,,,,,,,0.4455,,0.2,0.8,0.6,0.4,0.4,0.6,0.8,0.2,1,0,,,,,,,,,,,,
,,5e13ff1b94d5eea33e200fce,66fc9849e2a5af8e2bc40518,2024-10-01_21h49.44.105,mdp,2024.2.1,Win32,59.88023952,66fa4ebf79326e780c390304,,,,,,,,,,,,,,,,,,,,,1881.9043,1881.9043,1881.9051,1882.638,1,1,right,0.2272,,1882.6389,1883.3723,1,0,right,1883.374,1883.375,,1,,1,1883.3751,1883.3751,1883.3762,1884.8739,0,25,25,25,1,0.8,0.2,0.2,0.8,,,,,,,,,,,,,,,0.2192,,0.2,0.8,0.6,0.4,0.4,0.6,0.8,0.2,1,0,,,,,,,,,,,,
,,5e13ff1b94d5eea33e200fce,66fc9849e2a5af8e2bc40518,2024-10-01_21h49.44.105,mdp,2024.2.1,Win32,59.88023952,66fa4ebf79326e780c390304,,,,,,,,,,,,,,,,,,,,,1884.8747,1884.8747,1884.8764,1885.4912,1,1,right,0.0899,,1885.4929,1886.2253,1,1,right,1886.2271,1886.2281,,0,,0,1886.2282,1886.2282,1886.2293,1887.7267,0,26,26,26,1,0.8,0.2,0.2,0.8,,,,,,,,,,,,,,,0.2176,,0.2,0.8,0.6,0.4,0.4,0.6,0.8,0.2,1,0,,,,,,,,,,,,
,,5e13ff1b94d5eea33e200fce,66fc9849e2a5af8e2bc40518,2024-10-01_21h49.44.105,mdp,2024.2.1,Win32,59.88023952,66fa4ebf79326e780c390304,,,,,,,,,,,,,,,,,,,,,1887.7275,1887.7275,1887.729,1888.4441,0,0,left,0.1888,,1888.446,1889.3448,1,1,right,1889.3468,1889.3478,,0,,0,1889.3479,1889.3479,1889.3491,1890.8465,0,27,27,27,1,0.8,0.2,0.2,0.8,,,,,,,,,,,,,,,0.3725,,0.2,0.8,0.6,0.4,0.4,0.6,0.8,0.2,1,0,,,,,,,,,,,,
,,5e13ff1b94d5eea33e200fce,66fc9849e2a5af8e2bc40518,2024-10-01_21h49.44.105,mdp,2024.2.1,Win32,59.88023952,66fa4ebf79326e780c390304,,,,,,,,,,,,,,,,,,,,,1890.8474,1890.8475,1890.8497,1892.031,0,0,left,0.6527,,1892.0327,1893.0153,0,0,left,1893.0174,1893.0184,,1,,1,1893.0185,1893.0185,1893.0196,1894.5166,0,28,28,28,1,0.8,0.2,0.2,0.8,,,,,,,,,,,,,,,0.4709,,0.2,0.8,0.6,0.4,0.4,0.6,0.8,0.2,1,0,,,,,,,,,,,,
,,5e13ff1b94d5eea33e200fce,66fc9849e2a5af8e2bc40518,2024-10-01_21h49.44.105,mdp,2024.2.1,Win32,59.88023952,66fa4ebf79326e780c390304,,,,,,,,,,,,,,,,,,,,,1894.5173,1894.5173,1894.5187,1895.1506,0,0,left,0.1112,,1895.1526,1895.9515,0,1,left,1895.9535,1895.9546,,1,,0,1895.9547,1895.9547,1895.9559,1897.4524,0,29,29,29,1,0.8,0.2,0.2,0.8,,,,,,,,,,,,,,,0.2939,,0.2,0.8,0.6,0.4,0.4,0.6,0.8,0.2,1,0,,,,,,,,,,,,
,,5e13ff1b94d5eea33e200fce,66fc9849e2a5af8e2bc40518,2024-10-01_21h49.44.105,mdp,2024.2.1,Win32,59.88023952,66fa4ebf79326e780c390304,,,,,,,,,,,,,,,,,,,,,1897.4526,1897.4526,1897.4532,1898.4205,0,1,left,0.4504,,1898.4225,1899.5049,0,1,left,1899.5067,1899.5076,,1,,0,1899.5077,1899.5077,1899.5088,1901.0064,0,30,30,30,1,0.8,0.2,0.2,0.8,,,,,,,,,,,,,,,0.5562,,0.2,0.8,0.6,0.4,0.4,0.6,0.8,0.2,1,0,,,,,,,,,,,,
,,5e13ff1b94d5eea33e200fce,66fc9849e2a5af8e2bc40518,2024-10-01_21h49.44.105,mdp,2024.2.1,Win32,59.88023952,66fa4ebf79326e780c390304,,,,,,,,,,,,,,,,,,,,,1901.0071,1901.0071,1901.0085,1902.2911,1,1,right,0.7565,,1902.2929,1903.1585,0,1,left,1903.1602,1903.1612,,0,,0,1903.1612,1903.1612,1903.1623,1904.66,0,31,31,31,1,0.8,0.2,0.2,0.8,,,,,,,,,,,,,,,0.353,,0.2,0.8,0.6,0.4,0.4,0.6,0.8,0.2,1,0,,,,,,,,,,,,
,,5e13ff1b94d5eea33e200fce,66fc9849e2a5af8e2bc40518,2024-10-01_21h49.44.105,mdp,2024.2.1,Win32,59.88023952,66fa4ebf79326e780c390304,,,,,,,,,,,,,,,,,,,,,1904.6606,1904.6606,1904.6623,1905.9946,1,1,right,0.8074,,1905.9962,1906.8287,1,0,right,1906.8304,1906.8315,,1,,1,1906.8315,1906.8316,1906.8326,1908.3305,0,32,32,32,1,0.8,0.2,0.2,0.8,,,,,,,,,,,,,,,0.3206,,0.6,0.4,0.4,0.6,0.4,0.6,0.8,0.2,1,0,,,,,,,,,,,,
,,5e13ff1b94d5eea33e200fce,66fc9849e2a5af8e2bc40518,2024-10-01_21h49.44.105,mdp,2024.2.1,Win32,59.88023952,66fa4ebf79326e780c390304,,,,,,,,,,,,,,,,,,,,,1908.3318,1908.3319,1908.3335,1909.2982,1,1,right,0.4403,,1909.3,1910.1655,1,0,right,1910.1672,1910.1681,,0,,1,1910.1682,1910.1682,1910.1693,1911.6669,0,33,33,33,1,0.4,0.6,0.6,0.4,,,,,,,,,,,,,,,0.354,,0.6,0.4,0.4,0.6,0.4,0.6,0.8,0.2,1,0,,,,,,,,,,,,
,,5e13ff1b94d5eea33e200fce,66fc9849e2a5af8e2bc40518,2024-10-01_21h49.44.105,mdp,2024.2.1,Win32,59.88023952,66fa4ebf79326e780c390304,,,,,,,,,,,,,,,,,,,,,1911.6676,1911.6676,1911.6692,1912.7514,1,0,right,0.5595,,1912.7531,1913.6521,1,1,right,1913.6539,1913.6549,,1,,0,1913.6549,1913.655,1913.656,1915.1536,0,34,34,34,1,0.4,0.6,0.6,0.4,,,,,,,,,,,,,,,0.3778,,0.6,0.4,0.4,0.6,0.4,0.6,0.8,0.2,1,0,,,,,,,,,,,,
,,5e13ff1b94d5eea33e200fce,66fc9849e2a5af8e2bc40518,2024-10-01_21h49.44.105,mdp,2024.2.1,Win32,59.88023952,66fa4ebf79326e780c390304,,,,,,,,,,,,,,,,,,,,,1915.1542,1915.1543,1915.1558,1916.455,0,0,left,0.7699,,1916.4567,1917.3889,0,0,left,1917.3899,1917.3907,,0,,1,1917.3908,1917.3908,1917.3913,1918.8908,0,35,35,35,1,0.4,0.6,0.6,0.4,,,,,,,,,,,,,,,0.4203,,0.6,0.4,0.4,0.6,0.4,0.6,0.8,0.2,1,0,,,,,,,,,,,,
,,5e13ff1b94d5eea33e200fce,66fc9849e2a5af8e2bc40518,2024-10-01_21h49.44.105,mdp,2024.2.1,Win32,59.88023952,66fa4ebf79326e780c390304,,,,,,,,,,,,,,,,,,,,,1918.8915,1918.8916,1918.8933,1919.7416,0,1,left,0.3201,,1919.7433,1920.709,0,1,left,1920.711,1920.712,,0,,0,1920.712,1920.712,1920.7132,1922.2102,0,36,36,36,1,0.4,0.6,0.6,0.4,,,,,,,,,,,,,,,0.4432,,0.6,0.4,0.4,0.6,0.4,0.6,0.8,0.2,1,0,,,,,,,,,,,,
,,5e13ff1b94d5eea33e200fce,66fc9849e2a5af8e2bc40518,2024-10-01_21h49.44.105,mdp,2024.2.1,Win32,59.88023952,66fa4ebf79326e780c390304,,,,,,,,,,,,,,,,,,,,,1922.2107,1922.2107,1922.2118,1923.5116,1,1,right,0.7932,,1923.514,1924.5294,1,0,right,1924.5308,1924.5314,,1,,1,1924.5315,1924.5315,1924.5324,1926.031,0,37,37,37,1,0.4,0.6,0.6,0.4,,,,,,,,,,,,,,,0.5006,,0.6,0.4,0.4,0.6,0.4,0.6,0.8,0.2,1,0,,,,,,,,,,,,
,,5e13ff1b94d5eea33e200fce,66fc9849e2a5af8e2bc40518,2024-10-01_21h49.44.105,mdp,2024.2.1,Win32,59.88023952,66fa4ebf79326e780c390304,,,,,,,,,,,,,,,,,,,,,1926.0317,1926.0317,1926.0333,1927.1324,1,0,right,0.5803,,1927.1344,1928.0496,1,0,right,1928.0516,1928.0527,,0,,1,1928.0528,1928.0528,1928.0538,1929.5512,0,38,38,38,1,0.4,0.6,0.6,0.4,,,,,,,,,,,,,,,0.3948,,0.6,0.4,0.4,0.6,0.4,0.6,0.8,0.2,1,0,,,,,,,,,,,,
,,5e13ff1b94d5eea33e200fce,66fc9849e2a5af8e2bc40518,2024-10-01_21h49.44.105,mdp,2024.2.1,Win32,59.88023952,66fa4ebf79326e780c390304,,,,,,,,,,,,,,,,,,,,,1929.552,1929.552,1929.5534,1930.5355,1,0,right,0.4604,,1930.5371,1931.4529,1,0,right,1931.4545,1931.4555,,1,,1,1931.4555,1931.4556,1931.4567,1932.9546,0,39,39,39,1,0.4,0.6,0.6,0.4,,,,,,,,,,,,,,,0.4119,,0.6,0.4,0.4,0.6,0.4,0.6,0.8,0.2,1,0,,,,,,,,,,,,
,,5e13ff1b94d5eea33e200fce,66fc9849e2a5af8e2bc40518,2024-10-01_21h49.44.105,mdp,2024.2.1,Win32,59.88023952,66fa4ebf79326e780c390304,,,,,,,,,,,,,,,,,,,,,1932.9552,1932.9553,1932.9569,1933.9223,1,0,right,0.4406,,1933.9238,1934.8398,1,0,right,1934.8418,1934.8429,,0,,1,1934.843,1934.843,1934.8441,1936.3413,0,40,40,40,1,0.4,0.6,0.6,0.4,,,,,,,,,,,,,,,0.4023,,0.6,0.4,0.4,0.6,0.4,0.6,0.8,0.2,1,0,,,,,,,,,,,,
,,5e13ff1b94d5eea33e200fce,66fc9849e2a5af8e2bc40518,2024-10-01_21h49.44.105,mdp,2024.2.1,Win32,59.88023952,66fa4ebf79326e780c390304,,,,,,,,,,,,,,,,,,,,,1936.342,1936.342,1936.3437,1937.1921,1,0,right,0.3258,,1937.1939,1938.0593,1,0,right,1938.0601,1938.0605,,1,,1,1938.0605,1938.0605,1938.0609,1939.5612,0,41,41,41,1,0.4,0.6,0.6,0.4,,,,,,,,,,,,,,,0.3549,,0.6,0.4,0.4,0.6,0.4,0.6,0.8,0.2,1,0,,,,,,,,,,,,
,,5e13ff1b94d5eea33e200fce,66fc9849e2a5af8e2bc40518,2024-10-01_21h49.44.105,mdp,2024.2.1,Win32,59.88023952,66fa4ebf79326e780c390304,,,,,,,,,,,,,,,,,,,,,1939.5618,1939.5618,1939.5633,1940.4285,1,1,right,0.3377,,1940.4304,1941.2625,1,1,right,1941.2646,1941.266,,0,,0,1941.2661,1941.2661,1941.2674,1942.7643,0,42,42,42,1,0.4,0.6,0.6,0.4,,,,,,,,,,,,,,,0.3053,,0.6,0.4,0.4,0.6,0.4,0.6,0.8,0.2,1,0,,,,,,,,,,,,
,,5e13ff1b94d5eea33e200fce,66fc9849e2a5af8e2bc40518,2024-10-01_21h49.44.105,mdp,2024.2.1,Win32,59.88023952,66fa4ebf79326e780c390304,,,,,,,,,,,,,,,,,,,,,1942.765,1942.765,1942.7665,1943.882,0,1,left,0.5848,,1943.8838,1944.8161,0,1,left,1944.818,1944.8192,,1,,0,1944.8193,1944.8193,1944.8205,1946.3178,0,43,43,43,1,0.4,0.6,0.6,0.4,,,,,,,,,,,,,,,0.4262,,0.6,0.4,0.4,0.6,0.2,0.8,0.4,0.6,1,0,,,,,,,,,,,,
,,5e13ff1b94d5eea33e200fce,66fc9849e2a5af8e2bc40518,2024-10-01_21h49.44.105,mdp,2024.2.1,Win32,59.88023952,66fa4ebf79326e780c390304,,,,,,,,,,,,,,,,,,,,,1946.3184,1946.3185,1946.3202,1946.8678,0,1,left,0.0219,,1946.8691,1947.7524,1,0,right,1947.754,1947.755,,0,,1,1947.755,1947.755,1947.7562,1949.2539,0,44,44,44,1,0.8,0.2,0.4,0.6,,,,,,,,,,,,,,,0.3759,,0.6,0.4,0.4,0.6,0.2,0.8,0.4,0.6,1,0,,,,,,,,,,,,
,,5e13ff1b94d5eea33e200fce,66fc9849e2a5af8e2bc40518,2024-10-01_21h49.44.105,mdp,2024.2.1,Win32,59.88023952,66fa4ebf79326e780c390304,,,,,,,,,,,,,,,,,,,,,1949.2546,1949.2546,1949.2563,1949.9547,1,1,right,0.1676,,1949.9563,1950.8053,1,0,right,1950.807,1950.8083,,1,,1,1950.8083,1950.8083,1950.8095,1952.307,0,45,45,45,1,0.8,0.2,0.4,0.6,,,,,,,,,,,,,,,0.345,,0.6,0.4,0.4,0.6,0.2,0.8,0.4,0.6,1,0,,,,,,,,,,,,
,,5e13ff1b94d5eea33e200fce,66fc9849e2a5af8e2bc40518,2024-10-01_21h49.44.105,mdp,2024.2.1,Win32,59.88023952,66fa4ebf79326e780c390304,,,,,,,,,,,,,,,,,,,,,1952.3076,1952.3076,1952.309,1953.1572,1,1,right,0.3206,,1953.1578,1954.008,1,1,right,1954.0086,1954.009,,1,,0,1954.009,1954.009,1954.0094,1955.51,0,46,46,46,1,0.8,0.2,0.4,0.6,,,,,,,,,,,,,,,0.3433,,0.8,0.2,0.2,0.8,0.2,0.8,0.4,0.6,1,0,,,,,,,,,,,,
,,5e13ff1b94d5eea33e200fce,66fc9849e2a5af8e2bc40518,2024-10-01_21h49.44.105,mdp,2024.2.1,Win32,59.88023952,66fa4ebf79326e780c390304,,,,,,,,,,,,,,,,,,,,,1955.5107,1955.5107,1955.5125,1956.778,1,1,right,0.7367,,1956.7799,1957.729,1,0,right,1957.7309,1957.7319,,0,,1,1957.732,1957.732,1957.7331,1959.2305,0,47,47,47,1,0.8,0.2,0.4,0.6,,,,,,,,,,,,,,,0.4334,,0.8,0.2,0.2,0.8,0.2,0.8,0.4,0.6,1,0,,,,,,,,,,,,
,,5e13ff1b94d5eea33e200fce,66fc9849e2a5af8e2bc40518,2024-10-01_21h49.44.105,mdp,2024.2.1,Win32,59.88023952,66fa4ebf79326e780c390304,,,,,,,,,,,,,,,,,,,,,1959.231,1959.2311,1959.2326,1960.3649,1,0,right,0.6053,,1960.3667,1961.3159,1,1,right,1961.318,1961.319,,1,,0,1961.3191,1961.3191,1961.3203,1962.8174,0,48,48,48,1,0.2,0.8,0.6,0.4,,,,,,,,,,,,,,,0.4272,,0.8,0.2,0.2,0.8,0.2,0.8,0.4,0.6,1,0,,,,,,,,,,,,
,,5e13ff1b94d5eea33e200fce,66fc9849e2a5af8e2bc40518,2024-10-01_21h49.44.105,mdp,2024.2.1,Win32,59.88023952,66fa4ebf79326e780c390304,,,,,,,,,,,,,,,,,,,,,1962.818,1962.818,1962.8198,1963.3846,1,0,right,0.034,,1963.3864,1964.3355,1,1,right,1964.3371,1964.3381,,1,,0,1964.3381,1964.3381,1964.3393,1965.8369,0,49,49,49,1,0.2,0.8,0.6,0.4,,,,,,,,,,,,,,,0.4431,,0.8,0.2,0.2,0.8,0.2,0.8,0.4,0.6,1,0,,,,,,,,,,,,
,,5e13ff1b94d5eea33e200fce,66fc9849e2a5af8e2bc40518,2024-10-01_21h49.44.105,mdp,2024.2.1,Win32,59.88023952,66fa4ebf79326e780c390304,,,,,,,,,,,,,,,,,,,,,,,,,,,,,,,,,,,,,,,,,,,,,,,,,,,,,,,,1965.8371,2024.3447,0,1,1,2,1,imgs/kangaroo.png,imgs/bear.png,imgs/giraffe.png,imgs/cat.png,imgs/elephant.png,,,,,,,,,,,,,,,,,,,,,,,,
,,5e13ff1b94d5eea33e200fce,66fc9849e2a5af8e2bc40518,2024-10-01_21h49.44.105,mdp,2024.2.1,Win32,59.88023952,66fa4ebf79326e780c390304,,,,,,,,,,,,,,3,seqs/st3seq48.csv,2024.3728,2029.7831,space,4.89,,2029.8156,2029.8156,2029.8162,2032.3859,0,0,left,2.0444,,2032.4112,2033.2365,0,0,left,2033.2381,2034.3212,0,0,left,1,2034.3214,2034.3214,2034.3229,2035.8223,0,0,0,0,1,0.8,0.2,0.8,0.2,,,,,,,,,,,,,,,0.3162,,0.8,0.2,0.2,0.8,0.6,0.4,0.4,0.6,,,0.5557,,0.4,0.6,0.6,0.4,0.2,0.8,0.6,0.4,1,0
,,5e13ff1b94d5eea33e200fce,66fc9849e2a5af8e2bc40518,2024-10-01_21h49.44.105,mdp,2024.2.1,Win32,59.88023952,66fa4ebf79326e780c390304,,,,,,,,,,,,,,,,,,,,,2035.8236,2035.8236,2035.8251,2036.7233,0,0,left,0.3673,,2036.7252,2037.4575,0,0,left,2037.459,2038.3248,0,0,left,1,2038.3249,2038.3249,2038.3265,2039.8265,0,1,1,1,1,0.8,0.2,0.8,0.2,,,,,,,,,,,,,,,0.2242,,0.6,0.4,0.6,0.4,0.6,0.4,0.4,0.6,,,0.3623,,0.4,0.6,0.6,0.4,0.2,0.8,0.6,0.4,1,0
,,5e13ff1b94d5eea33e200fce,66fc9849e2a5af8e2bc40518,2024-10-01_21h49.44.105,mdp,2024.2.1,Win32,59.88023952,66fa4ebf79326e780c390304,,,,,,,,,,,,,,,,,,,,,2039.8273,2039.8273,2039.8287,2040.6607,0,1,left,0.3007,,2040.6626,2041.4447,0,1,left,2041.4466,2042.2784,0,1,left,0,2042.2786,2042.2786,2042.2793,2043.7801,0,2,2,2,1,0.8,0.2,0.8,0.2,,,,,,,,,,,,,,,0.2459,,0.6,0.4,0.6,0.4,0.6,0.4,0.4,0.6,,,0.2977,,0.4,0.6,0.6,0.4,0.2,0.8,0.6,0.4,1,0
,,5e13ff1b94d5eea33e200fce,66fc9849e2a5af8e2bc40518,2024-10-01_21h49.44.105,mdp,2024.2.1,Win32,59.88023952,66fa4ebf79326e780c390304,,,,,,,,,,,,,,,,,,,,,2043.781,2043.781,2043.7827,2044.8982,1,0,right,0.5908,,2044.9004,2045.632,1,1,right,2045.6337,2046.316,1,1,right,0,2046.3161,2046.3161,2046.3177,2047.8176,0,3,3,3,1,0.8,0.2,0.8,0.2,,,,,,,,,,,,,,,0.2056,,0.6,0.4,0.6,0.4,0.6,0.4,0.4,0.6,,,0.172,,0.4,0.6,0.6,0.4,0.2,0.8,0.6,0.4,1,0
,,5e13ff1b94d5eea33e200fce,66fc9849e2a5af8e2bc40518,2024-10-01_21h49.44.105,mdp,2024.2.1,Win32,59.88023952,66fa4ebf79326e780c390304,,,,,,,,,,,,,,,,,,,,,2047.8184,2047.8184,2047.8198,2049.0522,1,0,right,0.7135,,2049.0541,2049.686,1,1,right,2049.6882,2050.3034,1,1,right,0,2050.3036,2050.3036,2050.3052,2051.8049,0,4,4,4,1,0.8,0.2,0.8,0.2,,,,,,,,,,,,,,,0.1284,,0.6,0.4,0.6,0.4,0.6,0.4,0.4,0.6,,,0.0851,,0.4,0.6,0.6,0.4,0.2,0.8,0.6,0.4,1,0
,,5e13ff1b94d5eea33e200fce,66fc9849e2a5af8e2bc40518,2024-10-01_21h49.44.105,mdp,2024.2.1,Win32,59.88023952,66fa4ebf79326e780c390304,,,,,,,,,,,,,,,,,,,,,2051.8057,2051.8058,2051.8074,2052.3555,1,0,right,0.0167,,2052.3573,2053.1227,1,0,right,2053.1248,2053.8403,1,1,right,0,2053.8405,2053.8405,2053.8421,2055.3417,0,5,5,5,1,0.8,0.2,0.8,0.2,,,,,,,,,,,,,,,0.2418,,0.6,0.4,0.6,0.4,0.6,0.4,0.4,0.6,,,0.1957,,0.4,0.6,0.6,0.4,0.2,0.8,0.6,0.4,1,0
,,5e13ff1b94d5eea33e200fce,66fc9849e2a5af8e2bc40518,2024-10-01_21h49.44.105,mdp,2024.2.1,Win32,59.88023952,66fa4ebf79326e780c390304,,,,,,,,,,,,,,,,,,,,,2055.3423,2055.3423,2055.3437,2056.693,1,0,right,0.8209,,2056.6946,2057.4769,1,0,right,2057.4785,2058.1779,1,1,right,0,2058.178,2058.178,2058.1796,2059.6794,0,6,6,6,1,0.8,0.2,0.8,0.2,,,,,,,,,,,,,,,0.2786,,0.6,0.4,0.6,0.4,0.6,0.4,0.4,0.6,,,0.1846,,0.4,0.6,0.6,0.4,0.2,0.8,0.6,0.4,1,0
,,5e13ff1b94d5eea33e200fce,66fc9849e2a5af8e2bc40518,2024-10-01_21h49.44.105,mdp,2024.2.1,Win32,59.88023952,66fa4ebf79326e780c390304,,,,,,,,,,,,,,,,,,,,,2059.6802,2059.6802,2059.6817,2060.7137,0,1,left,0.5005,,2060.7154,2061.2976,0,1,left,2061.2993,2062.2819,0,0,left,1,2062.282,2062.282,2062.2836,2063.7834,0,7,7,7,1,0.2,0.8,0.6,0.4,,,,,,,,,,,,,,,0.0602,,0.6,0.4,0.6,0.4,0.6,0.4,0.4,0.6,,,0.4555,,0.4,0.6,0.6,0.4,0.2,0.8,0.6,0.4,1,0
,,5e13ff1b94d5eea33e200fce,66fc9849e2a5af8e2bc40518,2024-10-01_21h49.44.105,mdp,2024.2.1,Win32,59.88023952,66fa4ebf79326e780c390304,,,,,,,,,,,,,,,,,,,,,2063.7841,2063.7841,2063.7857,2064.5341,0,1,left,0.218,,2064.5358,2065.0681,0,0,left,2065.0697,2066.0021,0,0,left,1,2066.0022,2066.0022,2066.0038,2067.5037,0,8,8,8,1,0.2,0.8,0.6,0.4,,,,,,,,,,,,,,,0.0208,,0.6,0.4,0.6,0.4,0.6,0.4,0.4,0.6,,,0.3954,,0.4,0.6,0.6,0.4,0.2,0.8,0.6,0.4,1,0
,,5e13ff1b94d5eea33e200fce,66fc9849e2a5af8e2bc40518,2024-10-01_21h49.44.105,mdp,2024.2.1,Win32,59.88023952,66fa4ebf79326e780c390304,,,,,,,,,,,,,,,,,,,,,2067.5045,2067.5045,2067.5059,2068.3045,0,1,left,0.2673,,2068.3061,2069.1053,0,1,left,2069.107,2070.2231,0,1,left,0,2070.2232,2070.2232,2070.2248,2071.7246,0,9,9,9,1,0.2,0.8,0.6,0.4,,,,,,,,,,,,,,,0.2843,,0.6,0.4,0.6,0.4,0.6,0.4,0.4,0.6,,,0.5986,,0.4,0.6,0.6,0.4,0.2,0.8,0.6,0.4,1,0
,,5e13ff1b94d5eea33e200fce,66fc9849e2a5af8e2bc40518,2024-10-01_21h49.44.105,mdp,2024.2.1,Win32,59.88023952,66fa4ebf79326e780c390304,,,,,,,,,,,,,,,,,,,,,2071.7252,2071.7253,2071.7267,2073.0925,1,0,right,0.8348,,2073.0943,2073.9267,1,0,right,2073.9285,2074.7945,1,1,right,0,2074.7946,2074.7946,2074.7965,2076.2954,0,10,10,10,1,0.2,0.8,0.6,0.4,,,,,,,,,,,,,,,0.3173,,0.6,0.4,0.6,0.4,0.6,0.4,0.4,0.6,,,0.3458,,0.4,0.6,0.6,0.4,0.2,0.8,0.6,0.4,1,0
,,5e13ff1b94d5eea33e200fce,66fc9849e2a5af8e2bc40518,2024-10-01_21h49.44.105,mdp,2024.2.1,Win32,59.88023952,66fa4ebf79326e780c390304,,,,,,,,,,,,,,,,,,,,,2076.2957,2076.2957,2076.2964,2076.9129,0,1,left,0.1027,,2076.9146,2077.6637,0,0,left,2077.6655,2078.7479,0,1,left,0,2078.7481,2078.7481,2078.7497,2080.2497,0,11,11,11,1,0.2,0.8,0.6,0.4,,,,,,,,,,,,,,,0.2233,,0.6,0.4,0.6,0.4,0.6,0.4,0.4,0.6,,,0.572,,0.4,0.6,0.6,0.4,0.2,0.8,0.6,0.4,1,0
,,5e13ff1b94d5eea33e200fce,66fc9849e2a5af8e2bc40518,2024-10-01_21h49.44.105,mdp,2024.2.1,Win32,59.88023952,66fa4ebf79326e780c390304,,,,,,,,,,,,,,,,,,,,,2080.2505,2080.2505,2080.2521,2081.1172,0,1,left,0.3368,,2081.1191,2081.9513,0,1,left,2081.9532,2082.9021,0,1,left,0,2082.9023,2082.9023,2082.9039,2084.4037,0,12,12,12,1,0.2,0.8,0.6,0.4,,,,,,,,,,,,,,,0.3186,,0.6,0.4,0.6,0.4,0.6,0.4,0.4,0.6,,,0.4166,,0.4,0.6,0.6,0.4,0.2,0.8,0.6,0.4,1,0
,,5e13ff1b94d5eea33e200fce,66fc9849e2a5af8e2bc40518,2024-10-01_21h49.44.105,mdp,2024.2.1,Win32,59.88023952,66fa4ebf79326e780c390304,,,,,,,,,,,,,,,,,,,,,2084.4044,2084.4044,2084.4059,2085.4874,1,1,right,0.5503,,2085.4881,2086.455,1,1,right,2086.4558,2087.3226,1,0,right,1,2087.3226,2087.3226,2087.3234,2088.8247,0,13,13,13,1,0.2,0.8,0.6,0.4,,,,,,,,,,,,,,,0.4611,,0.6,0.4,0.6,0.4,0.6,0.4,0.4,0.6,,,0.3505,,0.4,0.6,0.6,0.4,0.2,0.8,0.6,0.4,1,0
,,5e13ff1b94d5eea33e200fce,66fc9849e2a5af8e2bc40518,2024-10-01_21h49.44.105,mdp,2024.2.1,Win32,59.88023952,66fa4ebf79326e780c390304,,,,,,,,,,,,,,,,,,,,,2088.8255,2088.8256,2088.8271,2089.7257,1,1,right,0.3696,,2089.7274,2090.593,1,0,right,2090.5948,2091.4607,1,1,right,0,2091.4608,2091.4608,2091.4626,2092.9623,0,14,14,14,1,0.2,0.8,0.6,0.4,,,,,,,,,,,,,,,0.35,,0.6,0.4,0.6,0.4,0.6,0.4,0.4,0.6,,,0.3414,,0.4,0.6,0.6,0.4,0.2,0.8,0.6,0.4,1,0
,,5e13ff1b94d5eea33e200fce,66fc9849e2a5af8e2bc40518,2024-10-01_21h49.44.105,mdp,2024.2.1,Win32,59.88023952,66fa4ebf79326e780c390304,,,,,,,,,,,,,,,,,,,,,2092.9631,2092.9631,2092.9646,2093.8964,0,1,left,0.4088,,2093.8983,2094.7302,0,1,left,2094.7311,2095.5812,0,1,left,0,2095.5813,2095.5813,2095.5829,2097.0828,0,15,15,15,1,0.2,0.8,0.6,0.4,,,,,,,,,,,,,,,0.3154,,0.6,0.4,0.6,0.4,0.2,0.8,0.2,0.8,,,0.3424,,0.4,0.6,0.6,0.4,0.2,0.8,0.6,0.4,1,0
,,5e13ff1b94d5eea33e200fce,66fc9849e2a5af8e2bc40518,2024-10-01_21h49.44.105,mdp,2024.2.1,Win32,59.88023952,66fa4ebf79326e780c390304,,,,,,,,,,,,,,,,,,,,,2097.0836,2097.0836,2097.085,2098.3675,0,1,left,0.7601,,2098.3692,2099.3185,0,0,left,2099.3202,2100.5528,0,1,left,0,2100.553,2100.553,2100.5546,2102.0541,0,16,16,16,1,0.2,0.8,0.6,0.4,,,,,,,,,,,,,,,0.4447,,0.6,0.4,0.6,0.4,0.2,0.8,0.2,0.8,,,0.7068,,0.4,0.6,0.6,0.4,0.2,0.8,0.6,0.4,1,0
,,5e13ff1b94d5eea33e200fce,66fc9849e2a5af8e2bc40518,2024-10-01_21h49.44.105,mdp,2024.2.1,Win32,59.88023952,66fa4ebf79326e780c390304,,,,,,,,,,,,,,,,,,,,,2102.0546,2102.0547,2102.0556,2103.3561,1,0,right,0.7977,,2103.3579,2104.2401,1,0,right,2104.2418,2105.0907,1,0,right,1,2105.0909,2105.0909,2105.0926,2106.5921,0,17,17,17,1,0.2,0.8,0.6,0.4,,,,,,,,,,,,,,,0.3392,,0.6,0.4,0.6,0.4,0.2,0.8,0.2,0.8,,,0.34,,0.4,0.6,0.6,0.4,0.4,0.6,0.4,0.6,1,0
,,5e13ff1b94d5eea33e200fce,66fc9849e2a5af8e2bc40518,2024-10-01_21h49.44.105,mdp,2024.2.1,Win32,59.88023952,66fa4ebf79326e780c390304,,,,,,,,,,,,,,,,,,,,,2106.5929,2106.593,2106.5946,2107.9102,1,1,right,0.7869,,2107.9121,2108.7111,1,1,right,2108.7131,2109.7118,1,0,right,1,2109.7119,2109.7119,2109.7136,2111.2134,0,18,18,18,1,0.2,0.8,0.6,0.4,,,,,,,,,,,,,,,0.2814,,0.6,0.4,0.6,0.4,0.2,0.8,0.2,0.8,,,0.4733,,0.4,0.6,0.6,0.4,0.2,0.8,0.6,0.4,1,0
,,5e13ff1b94d5eea33e200fce,66fc9849e2a5af8e2bc40518,2024-10-01_21h49.44.105,mdp,2024.2.1,Win32,59.88023952,66fa4ebf79326e780c390304,,,,,,,,,,,,,,,,,,,,,2111.2141,2111.2142,2111.2157,2112.1642,1,0,right,0.43,,2112.1659,2112.9485,1,1,right,2112.9502,2113.5819,1,0,right,1,2113.582,2113.582,2113.5827,2115.0839,0,19,19,19,1,0.2,0.8,0.6,0.4,,,,,,,,,,,,,,,0.2598,,0.6,0.4,0.6,0.4,0.2,0.8,0.2,0.8,,,0.1188,,0.4,0.6,0.6,0.4,0.2,0.8,0.6,0.4,1,0
,,5e13ff1b94d5eea33e200fce,66fc9849e2a5af8e2bc40518,2024-10-01_21h49.44.105,mdp,2024.2.1,Win32,59.88023952,66fa4ebf79326e780c390304,,,,,,,,,,,,,,,,,,,,,2115.0846,2115.0846,2115.0861,2116.1513,1,0,right,0.5343,,2116.1521,2117.0859,1,0,right,2117.0875,2118.0199,1,1,right,0,2118.0201,2118.0201,2118.0218,2119.5216,0,20,20,20,1,0.2,0.8,0.6,0.4,,,,,,,,,,,,,,,0.4201,,0.6,0.4,0.6,0.4,0.2,0.8,0.2,0.8,,,0.4022,,0.4,0.6,0.6,0.4,0.2,0.8,0.6,0.4,1,0
,,5e13ff1b94d5eea33e200fce,66fc9849e2a5af8e2bc40518,2024-10-01_21h49.44.105,mdp,2024.2.1,Win32,59.88023952,66fa4ebf79326e780c390304,,,,,,,,,,,,,,,,,,,,,2119.5222,2119.5222,2119.5237,2120.3892,0,0,left,0.3373,,2120.3908,2121.1399,0,1,left,2121.1415,2121.8407,0,0,left,1,2121.8408,2121.8409,2121.8427,2123.3418,0,21,21,21,1,0.2,0.8,0.6,0.4,,,,,,,,,,,,,,,0.2384,,0.6,0.4,0.6,0.4,0.2,0.8,0.2,0.8,,,0.1787,,0.4,0.6,0.6,0.4,0.8,0.2,0.4,0.6,1,0
,,5e13ff1b94d5eea33e200fce,66fc9849e2a5af8e2bc40518,2024-10-01_21h49.44.105,mdp,2024.2.1,Win32,59.88023952,66fa4ebf79326e780c390304,,,,,,,,,,,,,,,,,,,,,2123.3426,2123.3426,2123.3441,2124.2763,0,1,left,0.4132,,2124.2781,2124.9769,0,1,left,2124.9786,2125.8779,0,1,left,0,2125.8782,2125.8782,2125.8805,2127.3793,0,22,22,22,1,0.2,0.8,0.6,0.4,,,,,,,,,,,,,,,0.172,,0.6,0.4,0.6,0.4,0.2,0.8,0.2,0.8,,,0.387,,0.4,0.6,0.6,0.4,0.6,0.4,0.2,0.8,1,0
,,5e13ff1b94d5eea33e200fce,66fc9849e2a5af8e2bc40518,2024-10-01_21h49.44.105,mdp,2024.2.1,Win32,59.88023952,66fa4ebf79326e780c390304,,,,,,,,,,,,,,,,,,,,,2127.38,2127.3801,2127.3818,2128.1802,1,1,right,0.2671,,2128.1823,2128.7307,1,1,right,2128.7324,2129.498,1,1,right,0,2129.4981,2129.4981,2129.4997,2130.9996,0,23,23,23,1,0.2,0.8,0.6,0.4,,,,,,,,,,,,,,,0.0397,,0.6,0.4,0.6,0.4,0.2,0.8,0.2,0.8,,,0.2569,,0.4,0.6,0.6,0.4,0.6,0.4,0.2,0.8,1,0
,,5e13ff1b94d5eea33e200fce,66fc9849e2a5af8e2bc40518,2024-10-01_21h49.44.105,mdp,2024.2.1,Win32,59.88023952,66fa4ebf79326e780c390304,,,,,,,,,,,,,,,,,,,,,2131.0005,2131.0005,2131.0021,2131.6503,0,1,left,0.1232,,2131.6519,2132.3005,0,1,left,2132.3028,2133.1684,0,1,left,0,2133.1685,2133.1685,2133.1702,2134.6698,0,24,24,24,1,0.2,0.8,0.6,0.4,,,,,,,,,,,,,,,0.1459,,0.6,0.4,0.6,0.4,0.2,0.8,0.2,0.8,,,0.3496,,0.4,0.6,0.6,0.4,0.4,0.6,0.8,0.2,1,0
,,5e13ff1b94d5eea33e200fce,66fc9849e2a5af8e2bc40518,2024-10-01_21h49.44.105,mdp,2024.2.1,Win32,59.88023952,66fa4ebf79326e780c390304,,,,,,,,,,,,,,,,,,,,,2134.6706,2134.6706,2134.6721,2135.3033,1,0,right,0.1002,,2135.3041,2135.9873,1,0,right,2135.9881,2136.9218,1,0,right,1,2136.922,2136.922,2136.9237,2138.4235,0,25,25,25,1,0.2,0.8,0.6,0.4,,,,,,,,,,,,,,,0.1656,,0.6,0.4,0.6,0.4,0.2,0.8,0.2,0.8,,,0.4151,,0.4,0.6,0.6,0.4,0.4,0.6,0.8,0.2,1,0
,,5e13ff1b94d5eea33e200fce,66fc9849e2a5af8e2bc40518,2024-10-01_21h49.44.105,mdp,2024.2.1,Win32,59.88023952,66fa4ebf79326e780c390304,,,,,,,,,,,,,,,,,,,,,2138.4245,2138.4246,2138.4263,2139.1411,1,0,right,0.188,,2139.1429,2139.841,1,0,right,2139.8418,2140.7593,1,0,right,1,2140.7594,2140.7594,2140.7616,2142.2605,0,26,26,26,1,0.2,0.8,0.6,0.4,,,,,,,,,,,,,,,0.1827,,0.6,0.4,0.6,0.4,0.2,0.8,0.2,0.8,,,0.4027,,0.4,0.6,0.6,0.4,0.4,0.6,0.8,0.2,1,0
,,5e13ff1b94d5eea33e200fce,66fc9849e2a5af8e2bc40518,2024-10-01_21h49.44.105,mdp,2024.2.1,Win32,59.88023952,66fa4ebf79326e780c390304,,,,,,,,,,,,,,,,,,,,,2142.2613,2142.2613,2142.263,2143.0948,1,1,right,0.3023,,2143.0967,2143.8289,1,0,right,2143.8309,2144.763,1,0,right,1,2144.7632,2144.7632,2144.7647,2146.2646,0,27,27,27,1,0.2,0.8,0.6,0.4,,,,,,,,,,,,,,,0.2069,,0.6,0.4,0.6,0.4,0.2,0.8,0.2,0.8,,,0.4187,,0.4,0.6,0.6,0.4,0.4,0.6,0.8,0.2,1,0
,,5e13ff1b94d5eea33e200fce,66fc9849e2a5af8e2bc40518,2024-10-01_21h49.44.105,mdp,2024.2.1,Win32,59.88023952,66fa4ebf79326e780c390304,,,,,,,,,,,,,,,,,,,,,2146.2654,2146.2654,2146.2669,2147.4992,1,0,right,0.7025,,2147.501,2148.3668,1,1,right,2148.3684,2149.2675,1,0,right,1,2149.2676,2149.2676,2149.2697,2150.7691,0,28,28,28,1,0.2,0.8,0.6,0.4,,,,,,,,,,,,,,,0.341,,0.6,0.4,0.6,0.4,0.2,0.8,0.2,0.8,,,0.3761,,0.4,0.6,0.6,0.4,0.4,0.6,0.8,0.2,1,0
,,5e13ff1b94d5eea33e200fce,66fc9849e2a5af8e2bc40518,2024-10-01_21h49.44.105,mdp,2024.2.1,Win32,59.88023952,66fa4ebf79326e780c390304,,,,,,,,,,,,,,,,,,,,,2150.7702,2150.7702,2150.7721,2151.9205,1,0,right,0.6173,,2151.922,2152.7043,1,0,right,2152.7061,2153.5882,1,0,right,1,2153.5883,2153.5884,2153.59,2155.09,0,29,29,29,1,0.2,0.8,0.6,0.4,,,,,,,,,,,,,,,0.2594,,0.6,0.4,0.6,0.4,0.2,0.8,0.2,0.8,,,0.3677,,0.4,0.6,0.6,0.4,0.4,0.6,0.8,0.2,1,0
,,5e13ff1b94d5eea33e200fce,66fc9849e2a5af8e2bc40518,2024-10-01_21h49.44.105,mdp,2024.2.1,Win32,59.88023952,66fa4ebf79326e780c390304,,,,,,,,,,,,,,,,,,,,,2155.0909,2155.0909,2155.0926,2155.7572,1,1,right,0.1367,,2155.7589,2156.2912,1,1,right,2156.2931,2157.2587,1,0,right,1,2157.2588,2157.2588,2157.2606,2158.7602,0,30,30,30,1,0.2,0.8,0.6,0.4,,,,,,,,,,,,,,,0.0108,,0.6,0.4,0.6,0.4,0.8,0.2,0.4,0.6,,,0.4455,,0.4,0.6,0.6,0.4,0.4,0.6,0.8,0.2,1,0
,,5e13ff1b94d5eea33e200fce,66fc9849e2a5af8e2bc40518,2024-10-01_21h49.44.105,mdp,2024.2.1,Win32,59.88023952,66fa4ebf79326e780c390304,,,,,,,,,,,,,,,,,,,,,2158.761,2158.761,2158.7625,2160.1116,1,0,right,0.8273,,2160.1133,2160.9623,1,1,right,2160.9641,2161.8965,1,1,right,0,2161.8967,2161.8967,2161.8984,2163.3982,0,31,31,31,1,0.2,0.8,0.6,0.4,,,,,,,,,,,,,,,0.3266,,0.6,0.4,0.6,0.4,0.8,0.2,0.4,0.6,,,0.4257,,0.4,0.6,0.6,0.4,0.4,0.6,0.8,0.2,1,0
,,5e13ff1b94d5eea33e200fce,66fc9849e2a5af8e2bc40518,2024-10-01_21h49.44.105,mdp,2024.2.1,Win32,59.88023952,66fa4ebf79326e780c390304,,,,,,,,,,,,,,,,,,,,,2163.399,2163.399,2163.4004,2164.516,0,1,left,0.5852,,2164.5177,2165.4003,0,0,left,2165.4021,2166.3511,0,1,left,0,2166.3513,2166.3513,2166.3532,2167.8525,0,32,32,32,1,0.2,0.8,0.6,0.4,,,,,,,,,,,,,,,0.364,,0.6,0.4,0.6,0.4,0.8,0.2,0.4,0.6,,,0.4317,,0.4,0.6,0.6,0.4,0.4,0.6,0.8,0.2,1,0
,,5e13ff1b94d5eea33e200fce,66fc9849e2a5af8e2bc40518,2024-10-01_21h49.44.105,mdp,2024.2.1,Win32,59.88023952,66fa4ebf79326e780c390304,,,,,,,,,,,,,,,,,,,,,2167.8533,2167.8533,2167.8547,2169.2207,1,0,right,0.8346,,2169.2225,2170.0715,1,0,right,2170.0731,2170.7555,1,1,right,0,2170.7556,2170.7556,2170.7572,2172.257,0,33,33,33,1,0.2,0.8,0.6,0.4,,,,,,,,,,,,,,,0.3236,,0.6,0.4,0.6,0.4,0.8,0.2,0.4,0.6,,,0.168,,0.6,0.4,0.8,0.2,0.4,0.6,0.8,0.2,1,0
,,5e13ff1b94d5eea33e200fce,66fc9849e2a5af8e2bc40518,2024-10-01_21h49.44.105,mdp,2024.2.1,Win32,59.88023952,66fa4ebf79326e780c390304,,,,,,,,,,,,,,,,,,,,,2172.2579,2172.2579,2172.2598,2173.5083,1,0,right,0.7221,,2173.5101,2174.2089,1,0,right,2174.2104,2174.9262,1,0,right,1,2174.9263,2174.9263,2174.9279,2176.4277,0,34,34,34,1,0.2,0.8,0.6,0.4,,,,,,,,,,,,,,,0.192,,0.6,0.4,0.6,0.4,0.8,0.2,0.4,0.6,,,0.2033,,0.6,0.4,0.8,0.2,0.6,0.4,0.2,0.8,1,0
,,5e13ff1b94d5eea33e200fce,66fc9849e2a5af8e2bc40518,2024-10-01_21h49.44.105,mdp,2024.2.1,Win32,59.88023952,66fa4ebf79326e780c390304,,,,,,,,,,,,,,,,,,,,,2176.4284,2176.4284,2176.4301,2177.295,1,0,right,0.3362,,2177.2967,2177.9957,1,1,right,2177.9975,2178.7466,1,1,right,0,2178.7469,2178.7469,2178.7489,2180.2481,0,35,35,35,1,0.2,0.8,0.6,0.4,,,,,,,,,,,,,,,0.1839,,0.6,0.4,0.6,0.4,0.8,0.2,0.4,0.6,,,0.2278,,0.6,0.4,0.8,0.2,0.6,0.4,0.2,0.8,1,0
,,5e13ff1b94d5eea33e200fce,66fc9849e2a5af8e2bc40518,2024-10-01_21h49.44.105,mdp,2024.2.1,Win32,59.88023952,66fa4ebf79326e780c390304,,,,,,,,,,,,,,,,,,,,,2180.2489,2180.2489,2180.2503,2181.3657,1,0,right,0.5949,,2181.3675,2181.9998,1,0,right,2182.0017,2182.6838,1,0,right,1,2182.6838,2182.6839,2182.6858,2184.1852,0,36,36,36,1,0.2,0.8,0.6,0.4,,,,,,,,,,,,,,,0.1261,,0.6,0.4,0.6,0.4,0.8,0.2,0.4,0.6,,,0.1604,,0.6,0.4,0.8,0.2,0.6,0.4,0.2,0.8,1,0
,,5e13ff1b94d5eea33e200fce,66fc9849e2a5af8e2bc40518,2024-10-01_21h49.44.105,mdp,2024.2.1,Win32,59.88023952,66fa4ebf79326e780c390304,,,,,,,,,,,,,,,,,,,,,2184.186,2184.186,2184.1875,2184.8192,0,1,left,0.1015,,2184.8209,2185.6202,0,0,left,2185.6219,2186.5877,0,1,left,0,2186.5878,2186.5878,2186.5895,2188.0887,0,37,37,37,1,0.2,0.8,0.6,0.4,,,,,,,,,,,,,,,0.2741,,0.6,0.4,0.6,0.4,0.2,0.8,0.6,0.4,,,0.4503,,0.6,0.4,0.8,0.2,0.6,0.4,0.2,0.8,1,0
,,5e13ff1b94d5eea33e200fce,66fc9849e2a5af8e2bc40518,2024-10-01_21h49.44.105,mdp,2024.2.1,Win32,59.88023952,66fa4ebf79326e780c390304,,,,,,,,,,,,,,,,,,,,,2188.0891,2188.0891,2188.0897,2189.2403,1,1,right,0.6344,,2189.2421,2189.924,1,0,right,2189.9259,2190.5575,1,1,right,0,2190.5575,2190.5575,2190.5581,2192.0597,0,38,38,38,1,0.2,0.8,0.6,0.4,,,,,,,,,,,,,,,0.1798,,0.6,0.4,0.6,0.4,0.2,0.8,0.6,0.4,,,0.1263,,0.6,0.4,0.8,0.2,0.6,0.4,0.2,0.8,1,0
,,5e13ff1b94d5eea33e200fce,66fc9849e2a5af8e2bc40518,2024-10-01_21h49.44.105,mdp,2024.2.1,Win32,59.88023952,66fa4ebf79326e780c390304,,,,,,,,,,,,,,,,,,,,,2192.0605,2192.0605,2192.0621,2193.1776,1,1,right,0.5846,,2193.1794,2193.6946,1,0,right,2193.6964,2194.5786,1,0,right,1,2194.5788,2194.5788,2194.5804,2196.0803,0,39,39,39,1,0.2,0.8,0.6,0.4,,,,,,,,,,,,,,,0.0027,,0.6,0.4,0.6,0.4,0.2,0.8,0.6,0.4,,,0.3738,,0.6,0.4,0.8,0.2,0.6,0.4,0.2,0.8,1,0
,,5e13ff1b94d5eea33e200fce,66fc9849e2a5af8e2bc40518,2024-10-01_21h49.44.105,mdp,2024.2.1,Win32,59.88023952,66fa4ebf79326e780c390304,,,,,,,,,,,,,,,,,,,,,2196.0812,2196.0812,2196.0828,2197.2815,1,1,right,0.6685,,2197.2833,2197.8153,1,1,right,2197.8169,2198.983,1,0,right,1,2198.9832,2198.9832,2198.9848,2200.4846,0,40,40,40,1,0.2,0.8,0.6,0.4,,,,,,,,,,,,,,,0.0186,,0.6,0.4,0.6,0.4,0.2,0.8,0.6,0.4,,,0.6305,,0.6,0.4,0.8,0.2,0.6,0.4,0.2,0.8,1,0
,,5e13ff1b94d5eea33e200fce,66fc9849e2a5af8e2bc40518,2024-10-01_21h49.44.105,mdp,2024.2.1,Win32,59.88023952,66fa4ebf79326e780c390304,,,,,,,,,,,,,,,,,,,,,2200.4855,2200.4855,2200.487,2201.2018,1,1,right,0.192,,2201.2035,2201.9194,1,0,right,2201.9211,2202.5367,1,1,right,0,2202.5368,2202.5369,2202.5385,2204.0381,0,41,41,41,1,0.2,0.8,0.6,0.4,,,,,,,,,,,,,,,0.2015,,0.6,0.4,0.6,0.4,0.2,0.8,0.6,0.4,,,0.0953,,0.6,0.4,0.8,0.2,0.6,0.4,0.2,0.8,1,0
,,5e13ff1b94d5eea33e200fce,66fc9849e2a5af8e2bc40518,2024-10-01_21h49.44.105,mdp,2024.2.1,Win32,59.88023952,66fa4ebf79326e780c390304,,,,,,,,,,,,,,,,,,,,,2204.0391,2204.0392,2204.0408,2205.256,1,0,right,0.6853,,2205.2578,2205.8233,1,0,right,2205.8249,2206.4406,1,0,right,1,2206.4407,2206.4407,2206.4424,2207.942,0,42,42,42,1,0.2,0.8,0.6,0.4,,,,,,,,,,,,,,,0.0482,,0.6,0.4,0.6,0.4,0.2,0.8,0.6,0.4,,,0.1089,,0.6,0.4,0.8,0.2,0.6,0.4,0.2,0.8,1,0
,,5e13ff1b94d5eea33e200fce,66fc9849e2a5af8e2bc40518,2024-10-01_21h49.44.105,mdp,2024.2.1,Win32,59.88023952,66fa4ebf79326e780c390304,,,,,,,,,,,,,,,,,,,,,2207.9427,2207.9427,2207.9441,2208.6426,1,1,right,0.1728,,2208.6444,2209.2601,1,1,right,2209.2617,2210.0774,1,1,right,0,2210.0775,2210.0775,2210.0794,2211.5789,0,43,43,43,1,0.2,0.8,0.6,0.4,,,,,,,,,,,,,,,0.1008,,0.6,0.4,0.6,0.4,0.2,0.8,0.6,0.4,,,0.2919,,0.6,0.4,0.8,0.2,0.6,0.4,0.2,0.8,1,0
,,5e13ff1b94d5eea33e200fce,66fc9849e2a5af8e2bc40518,2024-10-01_21h49.44.105,mdp,2024.2.1,Win32,59.88023952,66fa4ebf79326e780c390304,,,,,,,,,,,,,,,,,,,,,2211.5797,2211.5798,2211.5813,2212.63,0,1,left,0.5199,,2212.6316,2213.4976,0,0,left,2213.4993,2214.3982,0,1,left,0,2214.3983,2214.3983,2214.4001,2215.9,0,44,44,44,1,0.2,0.8,0.6,0.4,,,,,,,,,,,,,,,0.3522,,0.6,0.4,0.6,0.4,0.2,0.8,0.6,0.4,,,0.3743,,0.6,0.4,0.8,0.2,0.6,0.4,0.2,0.8,1,0
,,5e13ff1b94d5eea33e200fce,66fc9849e2a5af8e2bc40518,2024-10-01_21h49.44.105,mdp,2024.2.1,Win32,59.88023952,66fa4ebf79326e780c390304,,,,,,,,,,,,,,,,,,,,,2215.9008,2215.9008,2215.9024,2216.8673,0,1,left,0.4347,,2216.8688,2217.6845,0,1,left,2217.6855,2218.636,0,1,left,0,2218.636,2218.6361,2218.6377,2220.1374,0,45,45,45,1,0.2,0.8,0.6,0.4,,,,,,,,,,,,,,,0.3038,,0.6,0.4,0.6,0.4,0.2,0.8,0.6,0.4,,,0.4357,,0.6,0.4,0.8,0.2,0.6,0.4,0.2,0.8,1,0
,,5e13ff1b94d5eea33e200fce,66fc9849e2a5af8e2bc40518,2024-10-01_21h49.44.105,mdp,2024.2.1,Win32,59.88023952,66fa4ebf79326e780c390304,,,,,,,,,,,,,,,,,,,,,2220.1381,2220.1381,2220.1398,2221.0049,0,1,left,0.3373,,2221.0066,2221.5388,0,1,left,2221.5405,2222.3063,0,1,left,0,2222.3063,2222.3063,2222.3078,2223.8075,0,46,46,46,1,0.2,0.8,0.6,0.4,,,,,,,,,,,,,,,0.0174,,0.6,0.4,0.6,0.4,0.2,0.8,0.6,0.4,,,0.258,,0.6,0.4,0.8,0.2,0.6,0.4,0.2,0.8,1,0
,,5e13ff1b94d5eea33e200fce,66fc9849e2a5af8e2bc40518,2024-10-01_21h49.44.105,mdp,2024.2.1,Win32,59.88023952,66fa4ebf79326e780c390304,,,,,,,,,,,,,,,,,,,,,2223.8083,2223.8083,2223.8097,2224.842,0,1,left,0.5015,,2224.8436,2225.4924,0,1,left,2225.494,2226.4603,0,0,left,1,2226.4604,2226.4604,2226.4623,2227.9615,0,47,47,47,1,0.2,0.8,0.6,0.4,,,,,,,,,,,,,,,0.117,,0.6,0.4,0.6,0.4,0.2,0.8,0.6,0.4,,,0.4555,,0.6,0.4,0.8,0.2,0.6,0.4,0.2,0.8,1,0
,,5e13ff1b94d5eea33e200fce,66fc9849e2a5af8e2bc40518,2024-10-01_21h49.44.105,mdp,2024.2.1,Win32,59.88023952,66fa4ebf79326e780c390304,,,,,,,,,,,,,,,,,,,,,2227.9623,2227.9623,2227.9637,2229.1797,0,0,left,0.6893,,2229.1814,2230.0138,0,1,left,2230.0156,2230.9642,0,1,left,0,2230.9644,2230.9644,2230.9653,2232.4662,0,48,48,48,1,0.2,0.8,0.6,0.4,,,,,,,,,,,,,,,0.3086,,0.6,0.4,0.6,0.4,0.2,0.8,0.6,0.4,,,0.4379,,0.6,0.4,0.8,0.2,0.6,0.4,0.2,0.8,1,0
,,5e13ff1b94d5eea33e200fce,66fc9849e2a5af8e2bc40518,2024-10-01_21h49.44.105,mdp,2024.2.1,Win32,59.88023952,66fa4ebf79326e780c390304,,,,,,,,,,,,,,,,,,,,,2232.467,2232.4671,2232.4685,2233.3167,0,1,left,0.3315,,2233.3187,2234.1679,0,0,left,2234.1699,2235.0187,0,0,left,1,2235.0188,2235.0189,2235.0205,2236.5202,0,49,49,49,1,0.2,0.8,0.6,0.4,,,,,,,,,,,,,,,0.3312,,0.6,0.4,0.6,0.4,0.2,0.8,0.6,0.4,,,0.3266,,0.6,0.4,0.8,0.2,0.6,0.4,0.2,0.8,1,0
,,5e13ff1b94d5eea33e200fce,66fc9849e2a5af8e2bc40518,2024-10-01_21h49.44.105,mdp,2024.2.1,Win32,59.88023952,66fa4ebf79326e780c390304,,,,,,,,,,,,,,,,,,,,,,,,,,,,,,,,,,,,,,,,,,,,,,,,,,,,,,,,2236.5206,2295.0282,0,2,2,1,1,imgs/cat.png,imgs/elephant.png,imgs/squirrel.png,imgs/pig.png,imgs/horse.png,,,,,,,,,,,,,,,,,,,,,,,,
,,5e13ff1b94d5eea33e200fce,66fc9849e2a5af8e2bc40518,2024-10-01_21h49.44.105,mdp,2024.2.1,Win32,59.88023952,66fa4ebf79326e780c390304,,,,,,,,,,,,,,3,seqs/st3seq32.csv,2295.058,2302.6846,space,7.1176,,2302.6951,2302.6951,2302.6958,2305.0375,1,0,right,1.8129,,2305.0393,2305.705,1,0,right,2305.7069,2306.2889,1,1,right,0,2306.289,2306.289,2306.2908,2307.7903,0,0,0,0,1,0.4,0.6,0.6,0.4,,,,,,,,,,,,,,,0.1416,,0.2,0.8,0.8,0.2,0.6,0.4,0.8,0.2,,,0.0581,,0.6,0.4,0.2,0.8,0.4,0.6,0.6,0.4,1,0
,,5e13ff1b94d5eea33e200fce,66fc9849e2a5af8e2bc40518,2024-10-01_21h49.44.105,mdp,2024.2.1,Win32,59.88023952,66fa4ebf79326e780c390304,,,,,,,,,,,,,,,,,,,,,2307.7912,2307.7912,2307.7927,2308.6244,1,0,right,0.3084,,2308.6261,2309.6922,1,0,right,2309.6942,2310.3426,1,1,right,0,2310.3428,2310.3428,2310.3443,2311.8443,0,1,1,1,1,0.4,0.6,0.6,0.4,,,,,,,,,,,,,,,0.5513,,0.2,0.8,0.8,0.2,0.6,0.4,0.8,0.2,,,0.119,,0.6,0.4,0.2,0.8,0.4,0.6,0.6,0.4,1,0
,,5e13ff1b94d5eea33e200fce,66fc9849e2a5af8e2bc40518,2024-10-01_21h49.44.105,mdp,2024.2.1,Win32,59.88023952,66fa4ebf79326e780c390304,,,,,,,,,,,,,,,,,,,,,2311.8451,2311.8451,2311.8465,2312.8282,0,0,left,0.4541,,2312.8291,2313.7962,0,1,left,2313.7979,2314.8139,0,1,left,0,2314.814,2314.814,2314.8155,2316.3155,0,2,2,2,1,0.4,0.6,0.6,0.4,,,,,,,,,,,,,,,0.4556,,0.2,0.8,0.8,0.2,0.6,0.4,0.8,0.2,,,0.4978,,0.2,0.8,0.4,0.6,0.4,0.6,0.6,0.4,1,0
,,5e13ff1b94d5eea33e200fce,66fc9849e2a5af8e2bc40518,2024-10-01_21h49.44.105,mdp,2024.2.1,Win32,59.88023952,66fa4ebf79326e780c390304,,,,,,,,,,,,,,,,,,,,,2316.3162,2316.3162,2316.3178,2318.1836,1,1,right,1.3436,,2318.1847,2319.0012,1,1,right,2319.0029,2319.6853,1,1,right,0,2319.6855,2319.6855,2319.6872,2321.1868,0,3,3,3,1,0.4,0.6,0.6,0.4,,,,,,,,,,,,,,,0.2906,,0.2,0.8,0.8,0.2,0.6,0.4,0.8,0.2,,,0.1701,,0.2,0.8,0.4,0.6,0.4,0.6,0.6,0.4,1,0
,,5e13ff1b94d5eea33e200fce,66fc9849e2a5af8e2bc40518,2024-10-01_21h49.44.105,mdp,2024.2.1,Win32,59.88023952,66fa4ebf79326e780c390304,,,,,,,,,,,,,,,,,,,,,2321.1874,2321.1874,2321.1888,2321.7708,0,1,left,0.0559,,2321.7724,2322.3881,0,0,left,2322.3898,2323.0386,0,1,left,0,2323.0388,2323.0388,2323.0404,2324.54,0,4,4,4,1,0.4,0.6,0.6,0.4,,,,,,,,,,,,,,,0.1012,,0.2,0.8,0.8,0.2,0.6,0.4,0.8,0.2,,,0.1248,,0.2,0.8,0.4,0.6,0.4,0.6,0.6,0.4,1,0
,,5e13ff1b94d5eea33e200fce,66fc9849e2a5af8e2bc40518,2024-10-01_21h49.44.105,mdp,2024.2.1,Win32,59.88023952,66fa4ebf79326e780c390304,,,,,,,,,,,,,,,,,,,,,2324.5409,2324.5409,2324.5422,2325.2242,0,0,left,0.1593,,2325.2261,2325.8247,0,1,left,2325.8265,2326.7252,0,0,left,1,2326.7254,2326.7254,2326.7269,2328.227,0,5,5,5,1,0.4,0.6,0.6,0.4,,,,,,,,,,,,,,,0.079,,0.2,0.8,0.8,0.2,0.6,0.4,0.8,0.2,,,0.3834,,0.2,0.8,0.4,0.6,0.4,0.6,0.6,0.4,1,0
,,5e13ff1b94d5eea33e200fce,66fc9849e2a5af8e2bc40518,2024-10-01_21h49.44.105,mdp,2024.2.1,Win32,59.88023952,66fa4ebf79326e780c390304,,,,,,,,,,,,,,,,,,,,,2328.2277,2328.2277,2328.2291,2329.0946,1,1,right,0.3437,,2329.0964,2329.7118,1,0,right,2329.7136,2330.3454,1,0,right,1,2330.3455,2330.3455,2330.3464,2331.8474,0,6,6,6,1,0.4,0.6,0.6,0.4,,,,,,,,,,,,,,,0.0982,,0.2,0.8,0.8,0.2,0.6,0.4,0.8,0.2,,,0.102,,0.2,0.8,0.4,0.6,0.4,0.6,0.6,0.4,1,0
,,5e13ff1b94d5eea33e200fce,66fc9849e2a5af8e2bc40518,2024-10-01_21h49.44.105,mdp,2024.2.1,Win32,59.88023952,66fa4ebf79326e780c390304,,,,,,,,,,,,,,,,,,,,,2331.8481,2331.8482,2331.8496,2332.9819,0,1,left,0.6123,,2332.9837,2333.6323,0,1,left,2333.6339,2334.5,0,0,left,1,2334.5002,2334.5002,2334.5018,2336.0015,0,7,7,7,1,0.4,0.6,0.6,0.4,,,,,,,,,,,,,,,0.1423,,0.2,0.8,0.8,0.2,0.6,0.4,0.8,0.2,,,0.3418,,0.2,0.8,0.4,0.6,0.4,0.6,0.6,0.4,1,0
,,5e13ff1b94d5eea33e200fce,66fc9849e2a5af8e2bc40518,2024-10-01_21h49.44.105,mdp,2024.2.1,Win32,59.88023952,66fa4ebf79326e780c390304,,,,,,,,,,,,,,,,,,,,,2336.0022,2336.0022,2336.0037,2337.0021,1,0,right,0.4724,,2337.0041,2337.6528,1,0,right,2337.6544,2338.5206,1,1,right,0,2338.5207,2338.5207,2338.5224,2340.0219,0,8,8,8,1,0.4,0.6,0.6,0.4,,,,,,,,,,,,,,,0.1341,,0.2,0.8,0.8,0.2,0.6,0.4,0.8,0.2,,,0.3391,,0.2,0.8,0.4,0.6,0.4,0.6,0.6,0.4,1,0
,,5e13ff1b94d5eea33e200fce,66fc9849e2a5af8e2bc40518,2024-10-01_21h49.44.105,mdp,2024.2.1,Win32,59.88023952,66fa4ebf79326e780c390304,,,,,,,,,,,,,,,,,,,,,2340.0226,2340.0226,2340.0241,2340.8729,1,0,right,0.3252,,2340.8745,2341.4401,1,0,right,2341.442,2342.1909,1,1,right,0,2342.191,2342.191,2342.1926,2343.6921,0,9,9,9,1,0.4,0.6,0.6,0.4,,,,,,,,,,,,,,,0.0585,,0.2,0.8,0.8,0.2,0.6,0.4,0.8,0.2,,,0.2352,,0.2,0.8,0.4,0.6,0.4,0.6,0.6,0.4,1,0
,,5e13ff1b94d5eea33e200fce,66fc9849e2a5af8e2bc40518,2024-10-01_21h49.44.105,mdp,2024.2.1,Win32,59.88023952,66fa4ebf79326e780c390304,,,,,,,,,,,,,,,,,,,,,2343.6929,2343.6929,2343.6945,2350.2154,0,1,left,5.9992,,2350.2375,2351.1329,0,1,left,2351.1347,2352.1506,0,0,left,1,2352.1507,2352.1507,2352.1524,2353.6519,0,10,10,10,1,0.4,0.6,0.6,0.4,,,,,,,,,,,,,,,0.3909,,0.2,0.8,0.8,0.2,0.6,0.4,0.8,0.2,,,0.5001,,0.2,0.8,0.4,0.6,0.4,0.6,0.6,0.4,1,0
,,5e13ff1b94d5eea33e200fce,66fc9849e2a5af8e2bc40518,2024-10-01_21h49.44.105,mdp,2024.2.1,Win32,59.88023952,66fa4ebf79326e780c390304,,,,,,,,,,,,,,,,,,,,,2353.6526,2353.6526,2353.654,2354.3195,0,1,left,0.1433,,2354.3213,2355.1203,0,0,left,2355.122,2356.0376,0,1,left,0,2356.0376,2356.0376,2356.0385,2357.5393,0,11,11,11,1,0.4,0.6,0.6,0.4,,,,,,,,,,,,,,,0.2928,,0.2,0.8,0.8,0.2,0.6,0.4,0.8,0.2,,,0.3909,,0.2,0.8,0.4,0.6,0.4,0.6,0.6,0.4,1,0
,,5e13ff1b94d5eea33e200fce,66fc9849e2a5af8e2bc40518,2024-10-01_21h49.44.105,mdp,2024.2.1,Win32,59.88023952,66fa4ebf79326e780c390304,,,,,,,,,,,,,,,,,,,,,2357.54,2357.54,2357.5414,2358.3235,1,0,right,0.2561,,2358.3253,2358.8904,1,0,right,2358.8918,2359.5245,1,1,right,0,2359.5245,2359.5245,2359.5262,2361.0262,0,12,12,12,1,0.4,0.6,0.6,0.4,,,,,,,,,,,,,,,0.0388,,0.2,0.8,0.8,0.2,0.6,0.4,0.8,0.2,,,0.1295,,0.2,0.8,0.4,0.6,0.4,0.6,0.6,0.4,1,0
,,5e13ff1b94d5eea33e200fce,66fc9849e2a5af8e2bc40518,2024-10-01_21h49.44.105,mdp,2024.2.1,Win32,59.88023952,66fa4ebf79326e780c390304,,,,,,,,,,,,,,,,,,,,,2361.0269,2361.0269,2361.0283,2361.9104,0,1,left,0.3532,,2361.9121,2362.5944,0,1,left,2362.5961,2363.4451,0,1,left,0,2363.4453,2363.4453,2363.4468,2364.9466,0,13,13,13,1,0.4,0.6,0.6,0.4,,,,,,,,,,,,,,,0.1562,,0.2,0.8,0.8,0.2,0.6,0.4,0.8,0.2,,,0.3252,,0.2,0.8,0.4,0.6,0.4,0.6,0.6,0.4,1,0
,,5e13ff1b94d5eea33e200fce,66fc9849e2a5af8e2bc40518,2024-10-01_21h49.44.105,mdp,2024.2.1,Win32,59.88023952,66fa4ebf79326e780c390304,,,,,,,,,,,,,,,,,,,,,2364.9473,2364.9473,2364.9488,2365.8476,0,1,left,0.3765,,2365.8493,2366.5647,0,1,left,2366.5658,2367.4492,0,0,left,1,2367.4493,2367.4493,2367.4509,2368.9506,0,14,14,14,1,0.4,0.6,0.6,0.4,,,,,,,,,,,,,,,0.2039,,0.2,0.8,0.8,0.2,0.6,0.4,0.8,0.2,,,0.3664,,0.2,0.8,0.4,0.6,0.4,0.6,0.6,0.4,1,0
,,5e13ff1b94d5eea33e200fce,66fc9849e2a5af8e2bc40518,2024-10-01_21h49.44.105,mdp,2024.2.1,Win32,59.88023952,66fa4ebf79326e780c390304,,,,,,,,,,,,,,,,,,,,,2368.9513,2368.9514,2368.9531,2369.8683,1,0,right,0.3838,,2369.8698,2370.4184,1,1,right,2370.4201,2371.3865,1,1,right,0,2371.3866,2371.3866,2371.3883,2372.8879,0,15,15,15,1,0.4,0.6,0.6,0.4,,,,,,,,,,,,,,,0.014,,0.2,0.8,0.8,0.2,0.6,0.4,0.8,0.2,,,0.4522,,0.2,0.8,0.4,0.6,0.4,0.6,0.6,0.4,1,0
,,5e13ff1b94d5eea33e200fce,66fc9849e2a5af8e2bc40518,2024-10-01_21h49.44.105,mdp,2024.2.1,Win32,59.88023952,66fa4ebf79326e780c390304,,,,,,,,,,,,,,,,,,,,,2372.8888,2372.8888,2372.8903,2374.2558,0,0,left,0.8426,,2374.2576,2375.2561,0,1,left,2375.2568,2376.2411,0,1,left,0,2376.2412,2376.2412,2376.2429,2377.7424,0,16,16,16,1,0.4,0.6,0.6,0.4,,,,,,,,,,,,,,,0.4911,,0.2,0.8,0.8,0.2,0.6,0.4,0.8,0.2,,,0.4746,,0.8,0.2,0.2,0.8,0.4,0.6,0.6,0.4,1,0
,,5e13ff1b94d5eea33e200fce,66fc9849e2a5af8e2bc40518,2024-10-01_21h49.44.105,mdp,2024.2.1,Win32,59.88023952,66fa4ebf79326e780c390304,,,,,,,,,,,,,,,,,,,,,2377.7432,2377.7433,2377.7448,2379.3442,1,1,right,1.0685,,2379.3461,2380.0116,1,0,right,2380.0134,2380.8957,1,1,right,0,2380.8958,2380.8958,2380.8973,2382.3968,0,17,17,17,1,0.4,0.6,0.6,0.4,,,,,,,,,,,,,,,0.1184,,0.2,0.8,0.8,0.2,0.6,0.4,0.8,0.2,,,0.3387,,0.8,0.2,0.2,0.8,0.4,0.6,0.6,0.4,1,0
,,5e13ff1b94d5eea33e200fce,66fc9849e2a5af8e2bc40518,2024-10-01_21h49.44.105,mdp,2024.2.1,Win32,59.88023952,66fa4ebf79326e780c390304,,,,,,,,,,,,,,,,,,,,,2382.3976,2382.3976,2382.3992,2383.3148,0,0,left,0.3905,,2383.3165,2384.0654,0,0,left,2384.0672,2384.7496,0,0,left,1,2384.7499,2384.75,2384.7518,2386.251,0,18,18,18,1,0.4,0.6,0.6,0.4,,,,,,,,,,,,,,,0.228,,0.2,0.8,0.8,0.2,0.6,0.4,0.8,0.2,,,0.1706,,0.8,0.2,0.2,0.8,0.4,0.6,0.6,0.4,1,0
,,5e13ff1b94d5eea33e200fce,66fc9849e2a5af8e2bc40518,2024-10-01_21h49.44.105,mdp,2024.2.1,Win32,59.88023952,66fa4ebf79326e780c390304,,,,,,,,,,,,,,,,,,,,,2386.2518,2386.2519,2386.2534,2386.8684,0,1,left,0.0851,,2386.87,2388.1527,0,1,left,2388.1545,2389.3708,0,1,left,0,2389.3709,2389.3709,2389.3726,2390.8721,0,19,19,19,1,0.4,0.6,0.6,0.4,,,,,,,,,,,,,,,0.7565,,0.2,0.8,0.8,0.2,0.6,0.4,0.8,0.2,,,0.6897,,0.8,0.2,0.2,0.8,0.4,0.6,0.6,0.4,1,0
,,5e13ff1b94d5eea33e200fce,66fc9849e2a5af8e2bc40518,2024-10-01_21h49.44.105,mdp,2024.2.1,Win32,59.88023952,66fa4ebf79326e780c390304,,,,,,,,,,,,,,,,,,,,,2390.873,2390.873,2390.8746,2391.5895,0,1,left,0.1874,,2391.5912,2392.3232,0,1,left,2392.3242,2393.0411,0,1,left,0,2393.0412,2393.0412,2393.0427,2394.5424,0,20,20,20,1,0.8,0.2,0.2,0.8,,,,,,,,,,,,,,,0.2005,,0.2,0.8,0.8,0.2,0.6,0.4,0.8,0.2,,,0.209,,0.8,0.2,0.2,0.8,0.4,0.6,0.6,0.4,1,0
,,5e13ff1b94d5eea33e200fce,66fc9849e2a5af8e2bc40518,2024-10-01_21h49.44.105,mdp,2024.2.1,Win32,59.88023952,66fa4ebf79326e780c390304,,,,,,,,,,,,,,,,,,,,,2394.543,2394.543,2394.5444,2395.4434,1,1,right,0.3688,,2395.445,2396.044,1,0,right,2396.0458,2397.0447,1,0,right,1,2397.0448,2397.0448,2397.0464,2398.5464,0,21,21,21,1,0.8,0.2,0.2,0.8,,,,,,,,,,,,,,,0.0961,,0.2,0.8,0.8,0.2,0.6,0.4,0.8,0.2,,,0.4828,,0.8,0.2,0.2,0.8,0.4,0.6,0.6,0.4,1,0
,,5e13ff1b94d5eea33e200fce,66fc9849e2a5af8e2bc40518,2024-10-01_21h49.44.105,mdp,2024.2.1,Win32,59.88023952,66fa4ebf79326e780c390304,,,,,,,,,,,,,,,,,,,,,2398.5471,2398.5471,2398.5486,2399.5976,1,1,right,0.52,,2399.5992,2400.4815,1,1,right,2400.4831,2401.3991,1,1,right,0,2401.3992,2401.3992,2401.4011,2402.9007,0,22,22,22,1,0.8,0.2,0.2,0.8,,,,,,,,,,,,,,,0.3742,,0.2,0.8,0.8,0.2,0.6,0.4,0.8,0.2,,,0.4036,,0.8,0.2,0.2,0.8,0.4,0.6,0.6,0.4,1,0
,,5e13ff1b94d5eea33e200fce,66fc9849e2a5af8e2bc40518,2024-10-01_21h49.44.105,mdp,2024.2.1,Win32,59.88023952,66fa4ebf79326e780c390304,,,,,,,,,,,,,,,,,,,,,2402.9018,2402.9018,2402.9034,2403.8181,0,1,left,0.3879,,2403.8198,2404.3355,0,0,left,2404.3372,2405.1697,0,0,left,1,2405.1698,2405.1699,2405.1714,2406.671,0,23,23,23,1,0.8,0.2,0.2,0.8,,,,,,,,,,,,,,,0.0014,,0.2,0.8,0.8,0.2,0.6,0.4,0.8,0.2,,,0.3127,,0.8,0.2,0.2,0.8,0.4,0.6,0.6,0.4,1,0
,,5e13ff1b94d5eea33e200fce,66fc9849e2a5af8e2bc40518,2024-10-01_21h49.44.105,mdp,2024.2.1,Win32,59.88023952,66fa4ebf79326e780c390304,,,,,,,,,,,,,,,,,,,,,2406.6717,2406.6718,2406.6733,2407.2717,1,1,right,0.068,,2407.2735,2408.0723,1,0,right,2408.0741,2408.8566,1,1,right,0,2408.8567,2408.8567,2408.8585,2410.3579,0,24,24,24,1,0.8,0.2,0.2,0.8,,,,,,,,,,,,,,,0.2915,,0.2,0.8,0.8,0.2,0.6,0.4,0.8,0.2,,,0.2679,,0.8,0.2,0.2,0.8,0.4,0.6,0.6,0.4,1,0
,,5e13ff1b94d5eea33e200fce,66fc9849e2a5af8e2bc40518,2024-10-01_21h49.44.105,mdp,2024.2.1,Win32,59.88023952,66fa4ebf79326e780c390304,,,,,,,,,,,,,,,,,,,,,2410.3586,2410.3587,2410.3601,2410.8922,0,0,left,0.013,,2410.8939,2411.7762,1,1,right,2411.7779,2412.4434,0,0,left,1,2412.4435,2412.4435,2412.4451,2413.9446,0,25,25,25,1,0.8,0.2,0.2,0.8,,,,,,,,,,,,,,,0.3476,,0.2,0.8,0.8,0.2,0.8,0.2,0.2,0.8,,,0.138,,0.8,0.2,0.2,0.8,0.4,0.6,0.6,0.4,1,0
,,5e13ff1b94d5eea33e200fce,66fc9849e2a5af8e2bc40518,2024-10-01_21h49.44.105,mdp,2024.2.1,Win32,59.88023952,66fa4ebf79326e780c390304,,,,,,,,,,,,,,,,,,,,,2413.9454,2413.9454,2413.9468,2414.6958,1,1,right,0.2167,,2414.6975,2415.9632,1,0,right,2415.9639,2418.3993,1,1,right,0,2418.3995,2418.3995,2418.401,2419.9006,0,26,26,26,1,0.8,0.2,0.2,0.8,,,,,,,,,,,,,,,0.738,,0.2,0.8,0.8,0.2,0.8,0.2,0.2,0.8,,,1.9161,,0.8,0.2,0.2,0.8,0.4,0.6,0.6,0.4,1,0
,,5e13ff1b94d5eea33e200fce,66fc9849e2a5af8e2bc40518,2024-10-01_21h49.44.105,mdp,2024.2.1,Win32,59.88023952,66fa4ebf79326e780c390304,,,,,,,,,,,,,,,,,,,,,2419.9015,2419.9015,2419.9031,2421.1353,0,1,left,0.7091,,2421.1369,2422.1198,1,1,right,2422.1215,2423.0038,1,0,right,1,2423.0039,2423.0039,2423.0056,2424.5052,0,27,27,27,1,0.4,0.6,0.6,0.4,,,,,,,,,,,,,,,0.477,,0.2,0.8,0.8,0.2,0.8,0.2,0.2,0.8,,,0.3665,,0.8,0.2,0.2,0.8,0.4,0.6,0.6,0.4,1,0
,,5e13ff1b94d5eea33e200fce,66fc9849e2a5af8e2bc40518,2024-10-01_21h49.44.105,mdp,2024.2.1,Win32,59.88023952,66fa4ebf79326e780c390304,,,,,,,,,,,,,,,,,,,,,2424.5059,2424.506,2424.5075,2425.6732,0,0,left,0.6428,,2425.675,2426.574,1,0,right,2426.5757,2427.5419,1,1,right,0,2427.5419,2427.5419,2427.5438,2429.0429,0,28,28,28,1,0.4,0.6,0.6,0.4,,,,,,,,,,,,,,,0.3658,,0.2,0.8,0.8,0.2,0.8,0.2,0.2,0.8,,,0.4419,,0.8,0.2,0.2,0.8,0.4,0.6,0.6,0.4,1,0
,,5e13ff1b94d5eea33e200fce,66fc9849e2a5af8e2bc40518,2024-10-01_21h49.44.105,mdp,2024.2.1,Win32,59.88023952,66fa4ebf79326e780c390304,,,,,,,,,,,,,,,,,,,,,2429.0437,2429.0437,2429.0451,2430.1609,0,0,left,0.5844,,2430.1628,2431.1285,1,0,right,2431.1302,2432.2297,1,1,right,0,2432.2298,2432.2298,2432.2314,2433.7302,0,29,29,29,1,0.4,0.6,0.6,0.4,,,,,,,,,,,,,,,0.4589,,0.2,0.8,0.8,0.2,0.8,0.2,0.2,0.8,,,0.5878,,0.8,0.2,0.2,0.8,0.4,0.6,0.6,0.4,1,0
,,5e13ff1b94d5eea33e200fce,66fc9849e2a5af8e2bc40518,2024-10-01_21h49.44.105,mdp,2024.2.1,Win32,59.88023952,66fa4ebf79326e780c390304,,,,,,,,,,,,,,,,,,,,,2433.7305,2433.7305,2433.7312,2434.7317,0,1,left,0.4853,,2434.7328,2435.6992,0,0,left,2435.7003,2436.6671,1,0,right,1,2436.6673,2436.6673,2436.6692,2438.1687,0,30,30,30,1,0.4,0.6,0.6,0.4,,,,,,,,,,,,,,,0.4359,,0.2,0.8,0.8,0.2,0.8,0.2,0.2,0.8,,,0.4522,,0.8,0.2,0.2,0.8,0.4,0.6,0.6,0.4,1,0
,,5e13ff1b94d5eea33e200fce,66fc9849e2a5af8e2bc40518,2024-10-01_21h49.44.105,mdp,2024.2.1,Win32,59.88023952,66fa4ebf79326e780c390304,,,,,,,,,,,,,,,,,,,,,2438.1694,2438.1695,2438.1709,2439.2866,1,1,right,0.5956,,2439.2884,2440.2709,1,0,right,2440.2732,2441.0382,0,1,left,0,2441.0383,2441.0383,2441.04,2442.5393,0,31,31,31,1,0.4,0.6,0.6,0.4,,,,,,,,,,,,,,,0.4688,,0.2,0.8,0.8,0.2,0.8,0.2,0.2,0.8,,,0.236,,0.8,0.2,0.2,0.8,0.4,0.6,0.6,0.4,1,0
,,5e13ff1b94d5eea33e200fce,66fc9849e2a5af8e2bc40518,2024-10-01_21h49.44.105,mdp,2024.2.1,Win32,59.88023952,66fa4ebf79326e780c390304,,,,,,,,,,,,,,,,,,,,,2442.5402,2442.5402,2442.542,2443.3402,0,0,left,0.2789,,2443.3419,2444.2748,1,0,right,2444.2764,2445.0254,0,0,left,1,2445.0256,2445.0256,2445.0272,2446.5268,0,32,32,32,1,0.4,0.6,0.6,0.4,,,,,,,,,,,,,,,0.4117,,0.2,0.8,0.8,0.2,0.8,0.2,0.2,0.8,,,0.2407,,0.8,0.2,0.2,0.8,0.4,0.6,0.6,0.4,1,0
,,5e13ff1b94d5eea33e200fce,66fc9849e2a5af8e2bc40518,2024-10-01_21h49.44.105,mdp,2024.2.1,Win32,59.88023952,66fa4ebf79326e780c390304,,,,,,,,,,,,,,,,,,,,,2446.5276,2446.5276,2446.5293,2447.3779,1,0,right,0.3178,,2447.3796,2448.2788,0,1,left,2448.2804,2449.2797,1,1,right,0,2449.2799,2449.2799,2449.2817,2450.7812,0,33,33,33,1,0.4,0.6,0.6,0.4,,,,,,,,,,,,,,,0.3853,,0.2,0.8,0.8,0.2,0.8,0.2,0.2,0.8,,,0.481,,0.4,0.6,0.4,0.6,0.4,0.6,0.6,0.4,1,0
,,5e13ff1b94d5eea33e200fce,66fc9849e2a5af8e2bc40518,2024-10-01_21h49.44.105,mdp,2024.2.1,Win32,59.88023952,66fa4ebf79326e780c390304,,,,,,,,,,,,,,,,,,,,,2450.782,2450.782,2450.7834,2451.5812,1,1,right,0.2699,,2451.582,2452.4995,0,0,left,2452.5012,2453.3502,1,1,right,0,2453.3503,2453.3504,2453.3521,2454.8518,0,34,34,34,1,0.4,0.6,0.6,0.4,,,,,,,,,,,,,,,0.3954,,0.2,0.8,0.8,0.2,0.8,0.2,0.2,0.8,,,0.3334,,0.4,0.6,0.4,0.6,0.4,0.6,0.6,0.4,1,0
,,5e13ff1b94d5eea33e200fce,66fc9849e2a5af8e2bc40518,2024-10-01_21h49.44.105,mdp,2024.2.1,Win32,59.88023952,66fa4ebf79326e780c390304,,,,,,,,,,,,,,,,,,,,,2454.8526,2454.8526,2454.8541,2456.1198,0,1,left,0.7437,,2456.1217,2457.0039,1,1,right,2457.0059,2458.0718,1,0,right,1,2458.0719,2458.0719,2458.0736,2459.5731,0,35,35,35,1,0.4,0.6,0.6,0.4,,,,,,,,,,,,,,,0.3795,,0.2,0.8,0.8,0.2,0.8,0.2,0.2,0.8,,,0.5408,,0.4,0.6,0.4,0.6,0.4,0.6,0.6,0.4,1,0
,,5e13ff1b94d5eea33e200fce,66fc9849e2a5af8e2bc40518,2024-10-01_21h49.44.105,mdp,2024.2.1,Win32,59.88023952,66fa4ebf79326e780c390304,,,,,,,,,,,,,,,,,,,,,2459.5739,2459.5739,2459.5752,2461.0413,1,0,right,0.9346,,2461.043,2461.9755,1,0,right,2461.9778,2463.1091,0,1,left,0,2463.1092,2463.1092,2463.1098,2464.6113,0,36,36,36,1,0.4,0.6,0.6,0.4,,,,,,,,,,,,,,,0.4066,,0.2,0.8,0.8,0.2,0.8,0.2,0.2,0.8,,,0.6162,,0.4,0.6,0.4,0.6,0.4,0.6,0.6,0.4,1,0
,,5e13ff1b94d5eea33e200fce,66fc9849e2a5af8e2bc40518,2024-10-01_21h49.44.105,mdp,2024.2.1,Win32,59.88023952,66fa4ebf79326e780c390304,,,,,,,,,,,,,,,,,,,,,2464.6122,2464.6123,2464.6138,2465.4955,1,0,right,0.3601,,2465.4975,2466.3966,1,0,right,2466.3983,2467.3475,1,0,right,1,2467.3477,2467.3477,2467.3494,2468.8489,0,37,37,37,1,0.4,0.6,0.6,0.4,,,,,,,,,,,,,,,0.3881,,0.2,0.8,0.8,0.2,0.8,0.2,0.2,0.8,,,0.4345,,0.6,0.4,0.8,0.2,0.4,0.6,0.6,0.4,1,0
,,5e13ff1b94d5eea33e200fce,66fc9849e2a5af8e2bc40518,2024-10-01_21h49.44.105,mdp,2024.2.1,Win32,59.88023952,66fa4ebf79326e780c390304,,,,,,,,,,,,,,,,,,,,,2468.8497,2468.8497,2468.8511,2469.9001,1,0,right,0.5177,,2469.902,2470.8176,1,0,right,2470.8193,2471.7015,1,0,right,1,2471.7016,2471.7016,2471.703,2473.2028,0,38,38,38,1,0.4,0.6,0.6,0.4,,,,,,,,,,,,,,,0.4005,,0.2,0.8,0.8,0.2,0.8,0.2,0.2,0.8,,,0.3783,,0.6,0.4,0.8,0.2,0.4,0.6,0.6,0.4,1,0
,,5e13ff1b94d5eea33e200fce,66fc9849e2a5af8e2bc40518,2024-10-01_21h49.44.105,mdp,2024.2.1,Win32,59.88023952,66fa4ebf79326e780c390304,,,,,,,,,,,,,,,,,,,,,2473.2034,2473.2034,2473.2044,2474.6548,1,0,right,0.9359,,2474.6566,2475.5555,1,0,right,2475.5572,2476.4064,1,0,right,1,2476.4065,2476.4065,2476.4082,2477.9074,0,39,39,39,1,0.4,0.6,0.6,0.4,,,,,,,,,,,,,,,0.3894,,0.2,0.8,0.8,0.2,0.8,0.2,0.2,0.8,,,0.3368,,0.6,0.4,0.8,0.2,0.4,0.6,0.6,0.4,1,0
,,5e13ff1b94d5eea33e200fce,66fc9849e2a5af8e2bc40518,2024-10-01_21h49.44.105,mdp,2024.2.1,Win32,59.88023952,66fa4ebf79326e780c390304,,,,,,,,,,,,,,,,,,,,,2477.9078,2477.9078,2477.9084,2479.0925,1,0,right,0.6678,,2479.0943,2479.9433,1,1,right,2479.9451,2480.9609,1,0,right,1,2480.9611,2480.9611,2480.9626,2482.4622,0,40,40,40,1,0.4,0.6,0.6,0.4,,,,,,,,,,,,,,,0.327,,0.2,0.8,0.8,0.2,0.8,0.2,0.2,0.8,,,0.4949,,0.6,0.4,0.8,0.2,0.4,0.6,0.6,0.4,1,0
,,5e13ff1b94d5eea33e200fce,66fc9849e2a5af8e2bc40518,2024-10-01_21h49.44.105,mdp,2024.2.1,Win32,59.88023952,66fa4ebf79326e780c390304,,,,,,,,,,,,,,,,,,,,,2482.463,2482.463,2482.4644,2483.4295,1,0,right,0.4458,,2483.4305,2484.3476,1,0,right,2484.3495,2485.2318,1,0,right,1,2485.2319,2485.2319,2485.2335,2486.7331,0,41,41,41,1,0.4,0.6,0.6,0.4,,,,,,,,,,,,,,,0.4016,,0.2,0.8,0.8,0.2,0.8,0.2,0.2,0.8,,,0.3628,,0.6,0.4,0.8,0.2,0.4,0.6,0.6,0.4,1,0
,,5e13ff1b94d5eea33e200fce,66fc9849e2a5af8e2bc40518,2024-10-01_21h49.44.105,mdp,2024.2.1,Win32,59.88023952,66fa4ebf79326e780c390304,,,,,,,,,,,,,,,,,,,,,2486.734,2486.734,2486.7354,2488.0346,1,0,right,0.7684,,2488.0364,2488.8684,1,0,right,2488.8701,2489.7028,1,1,right,0,2489.7029,2489.703,2489.7045,2491.2043,0,42,42,42,1,0.4,0.6,0.6,0.4,,,,,,,,,,,,,,,0.329,,0.2,0.8,0.8,0.2,0.8,0.2,0.2,0.8,,,0.3193,,0.6,0.4,0.8,0.2,0.2,0.8,0.2,0.8,1,0
,,5e13ff1b94d5eea33e200fce,66fc9849e2a5af8e2bc40518,2024-10-01_21h49.44.105,mdp,2024.2.1,Win32,59.88023952,66fa4ebf79326e780c390304,,,,,,,,,,,,,,,,,,,,,2491.205,2491.205,2491.2064,2492.0215,0,1,left,0.295,,2492.0229,2492.8894,0,0,left,2492.891,2493.9904,0,0,left,1,2493.9905,2493.9905,2493.9922,2495.4917,0,43,43,43,1,0.4,0.6,0.6,0.4,,,,,,,,,,,,,,,0.3466,,0.2,0.8,0.8,0.2,0.8,0.2,0.2,0.8,,,0.5944,,0.6,0.4,0.8,0.2,0.2,0.8,0.2,0.8,1,0
,,5e13ff1b94d5eea33e200fce,66fc9849e2a5af8e2bc40518,2024-10-01_21h49.44.105,mdp,2024.2.1,Win32,59.88023952,66fa4ebf79326e780c390304,,,,,,,,,,,,,,,,,,,,,2495.4924,2495.4924,2495.4937,2496.5929,0,1,left,0.5754,,2496.5946,2497.7609,0,1,left,2497.7625,2498.7951,0,1,left,0,2498.7952,2498.7952,2498.7969,2500.2965,0,44,44,44,1,0.4,0.6,0.6,0.4,,,,,,,,,,,,,,,0.6585,,0.2,0.8,0.8,0.2,0.8,0.2,0.2,0.8,,,0.5054,,0.6,0.4,0.8,0.2,0.2,0.8,0.2,0.8,1,0
,,5e13ff1b94d5eea33e200fce,66fc9849e2a5af8e2bc40518,2024-10-01_21h49.44.105,mdp,2024.2.1,Win32,59.88023952,66fa4ebf79326e780c390304,,,,,,,,,,,,,,,,,,,,,2500.2974,2500.2974,2500.299,2501.4812,1,0,right,0.6513,,2501.483,2502.382,0,0,left,2502.3837,2503.2492,0,1,left,0,2503.2494,2503.2494,2503.2513,2504.7509,0,45,45,45,1,0.4,0.6,0.6,0.4,,,,,,,,,,,,,,,0.3832,,0.2,0.8,0.8,0.2,0.8,0.2,0.2,0.8,,,0.3458,,0.6,0.4,0.8,0.2,0.4,0.6,0.8,0.2,1,0
,,5e13ff1b94d5eea33e200fce,66fc9849e2a5af8e2bc40518,2024-10-01_21h49.44.105,mdp,2024.2.1,Win32,59.88023952,66fa4ebf79326e780c390304,,,,,,,,,,,,,,,,,,,,,2504.7516,2504.7516,2504.7534,2506.7697,1,0,right,1.4926,,2506.7714,2507.7872,0,1,left,2507.789,2509.5058,1,0,right,1,2509.5059,2509.5059,2509.5075,2511.007,0,46,46,46,1,0.4,0.6,0.6,0.4,,,,,,,,,,,,,,,0.506,,0.2,0.8,0.8,0.2,0.8,0.2,0.2,0.8,,,1.1884,,0.6,0.4,0.8,0.2,0.4,0.6,0.8,0.2,1,0
,,5e13ff1b94d5eea33e200fce,66fc9849e2a5af8e2bc40518,2024-10-01_21h49.44.105,mdp,2024.2.1,Win32,59.88023952,66fa4ebf79326e780c390304,,,,,,,,,,,,,,,,,,,,,2511.0079,2511.0079,2511.0093,2512.3751,0,0,left,0.8361,,2512.3769,2513.6765,1,0,right,2513.6781,2514.7109,0,0,left,1,2514.711,2514.711,2514.7128,2516.212,0,47,47,47,1,0.4,0.6,0.6,0.4,,,,,,,,,,,,,,,0.7882,,0.2,0.8,0.8,0.2,0.8,0.2,0.2,0.8,,,0.5084,,0.6,0.4,0.8,0.2,0.4,0.6,0.8,0.2,1,0
,,5e13ff1b94d5eea33e200fce,66fc9849e2a5af8e2bc40518,2024-10-01_21h49.44.105,mdp,2024.2.1,Win32,59.88023952,66fa4ebf79326e780c390304,,,,,,,,,,,,,,,,,,,,,2516.2127,2516.2127,2516.2142,2517.7804,0,1,left,1.0389,,2517.7825,2519.0312,1,1,right,2519.032,2520.1827,0,0,left,1,2520.1829,2520.1829,2520.1843,2521.684,0,48,48,48,1,0.4,0.6,0.6,0.4,,,,,,,,,,,,,,,0.7215,,0.2,0.8,0.8,0.2,0.8,0.2,0.2,0.8,,,0.6272,,0.6,0.4,0.8,0.2,0.4,0.6,0.8,0.2,1,0
,,5e13ff1b94d5eea33e200fce,66fc9849e2a5af8e2bc40518,2024-10-01_21h49.44.105,mdp,2024.2.1,Win32,59.88023952,66fa4ebf79326e780c390304,,,,,,,,,,,,,,,,,,,,,2521.6843,2521.6843,2521.6849,2522.7855,0,0,left,0.5913,,2522.7872,2524.0031,1,1,right,2524.0049,2524.9209,1,0,right,1,2524.921,2524.921,2524.9227,2526.422,0,49,49,49,1,0.4,0.6,0.6,0.4,,,,,,,,,,,,,,,0.6725,,0.6,0.4,0.4,0.6,0.8,0.2,0.2,0.8,,,0.4007,,0.6,0.4,0.8,0.2,0.4,0.6,0.8,0.2,1,0
,,5e13ff1b94d5eea33e200fce,66fc9849e2a5af8e2bc40518,2024-10-01_21h49.44.105,mdp,2024.2.1,Win32,59.88023952,66fa4ebf79326e780c390304,,,,,,,,,,,,,,,,,,,,,,,,,,,,,,,,,,,,,,,,,,,,,,,,,,,,,,,,2526.4222,2584.93,0,3,3,5,1,imgs/rabbit.png,imgs/squirrel.png,imgs/lion.png,imgs/goat.png,imgs/cat.png,,,,,,,,,,,,,,,,,,,,,,,,
,,5e13ff1b94d5eea33e200fce,66fc9849e2a5af8e2bc40518,2024-10-01_21h49.44.105,mdp,2024.2.1,Win32,59.88023952,66fa4ebf79326e780c390304,,,,,,,,,,,,,,1,seqs/st1seq44.csv,2584.9584,2589.7347,space,4.2568,,2589.7629,2589.763,2589.7635,2593.5884,0,1,left,3.3079,,2593.6123,2593.6128,1,0,,2593.6132,2593.6136,1,1,,0,2593.6136,2593.6136,2593.614,2595.1065,0,0,0,0,1,0.4,0.6,0.6,0.4,1,0,,,,,,,,,,,,,,,,,,,,,,,,,,,,,,,,,,,,
,,5e13ff1b94d5eea33e200fce,66fc9849e2a5af8e2bc40518,2024-10-01_21h49.44.105,mdp,2024.2.1,Win32,59.88023952,66fa4ebf79326e780c390304,,,,,,,,,,,,,,,,,,,,,2595.1073,2595.1073,2595.1089,2596.2911,0,1,left,0.6557,,2596.2928,2596.2936,1,1,,2596.2947,2596.2955,1,1,,0,2596.2956,2596.2956,2596.2964,2597.7925,0,1,1,1,1,0.4,0.6,0.6,0.4,1,0,,,,,,,,,,,,,,,,,,,,,,,,,,,,,,,,,,,,
,,5e13ff1b94d5eea33e200fce,66fc9849e2a5af8e2bc40518,2024-10-01_21h49.44.105,mdp,2024.2.1,Win32,59.88023952,66fa4ebf79326e780c390304,,,,,,,,,,,,,,,,,,,,,2597.7931,2597.7931,2597.7945,2598.6268,1,0,right,0.2998,,2598.6286,2598.6296,1,0,,2598.6308,2598.6315,1,1,,1,2598.6316,2598.6316,2598.6327,2600.128,0,2,2,2,1,0.4,0.6,0.6,0.4,1,0,,,,,,,,,,,,,,,,,,,,,,,,,,,,,,,,,,,,
,,5e13ff1b94d5eea33e200fce,66fc9849e2a5af8e2bc40518,2024-10-01_21h49.44.105,mdp,2024.2.1,Win32,59.88023952,66fa4ebf79326e780c390304,,,,,,,,,,,,,,,,,,,,,2600.1286,2600.1286,2600.1301,2601.1124,1,0,right,0.4583,,2601.1143,2601.1153,1,1,,2601.1164,2601.1171,1,0,,1,2601.1171,2601.1171,2601.118,2602.6138,0,3,3,3,1,0.4,0.6,0.6,0.4,1,0,,,,,,,,,,,,,,,,,,,,,,,,,,,,,,,,,,,,
,,5e13ff1b94d5eea33e200fce,66fc9849e2a5af8e2bc40518,2024-10-01_21h49.44.105,mdp,2024.2.1,Win32,59.88023952,66fa4ebf79326e780c390304,,,,,,,,,,,,,,,,,,,,,2602.6145,2602.6145,2602.6161,2603.815,1,1,right,0.6769,,2603.8164,2603.8171,1,1,,2603.8178,2603.8184,1,1,,0,2603.8184,2603.8184,2603.8191,2605.3164,0,4,4,4,1,0.8,0.2,0.4,0.6,1,0,,,,,,,,,,,,,,,,,,,,,,,,,,,,,,,,,,,,
,,5e13ff1b94d5eea33e200fce,66fc9849e2a5af8e2bc40518,2024-10-01_21h49.44.105,mdp,2024.2.1,Win32,59.88023952,66fa4ebf79326e780c390304,,,,,,,,,,,,,,,,,,,,,2605.3169,2605.3169,2605.3184,2606.4679,0,0,left,0.6215,,2606.4697,2606.4706,1,0,,2606.4716,2606.4724,1,0,,1,2606.4725,2606.4725,2606.4734,2607.9692,0,5,5,5,1,0.8,0.2,0.4,0.6,1,0,,,,,,,,,,,,,,,,,,,,,,,,,,,,,,,,,,,,
,,5e13ff1b94d5eea33e200fce,66fc9849e2a5af8e2bc40518,2024-10-01_21h49.44.105,mdp,2024.2.1,Win32,59.88023952,66fa4ebf79326e780c390304,,,,,,,,,,,,,,,,,,,,,2607.9699,2607.9699,2607.9718,2608.6867,0,0,left,0.194,,2608.6884,2608.6893,1,1,,2608.6904,2608.6911,1,0,,1,2608.6911,2608.6912,2608.6921,2610.1881,0,6,6,6,1,0.6,0.4,0.6,0.4,1,0,,,,,,,,,,,,,,,,,,,,,,,,,,,,,,,,,,,,
,,5e13ff1b94d5eea33e200fce,66fc9849e2a5af8e2bc40518,2024-10-01_21h49.44.105,mdp,2024.2.1,Win32,59.88023952,66fa4ebf79326e780c390304,,,,,,,,,,,,,,,,,,,,,2610.1886,2610.1886,2610.19,2611.2891,0,0,left,0.5748,,2611.2909,2611.2917,1,1,,2611.2928,2611.2936,1,1,,1,2611.2937,2611.2937,2611.2945,2612.7907,0,7,7,7,1,0.6,0.4,0.6,0.4,1,0,,,,,,,,,,,,,,,,,,,,,,,,,,,,,,,,,,,,
,,5e13ff1b94d5eea33e200fce,66fc9849e2a5af8e2bc40518,2024-10-01_21h49.44.105,mdp,2024.2.1,Win32,59.88023952,66fa4ebf79326e780c390304,,,,,,,,,,,,,,,,,,,,,2612.7913,2612.7913,2612.7934,2613.7744,0,0,left,0.4603,,2613.7755,2613.7761,1,0,,2613.7767,2613.7772,1,1,,1,2613.7772,2613.7772,2613.7777,2615.2763,0,8,8,8,1,0.6,0.4,0.6,0.4,1,0,,,,,,,,,,,,,,,,,,,,,,,,,,,,,,,,,,,,
,,5e13ff1b94d5eea33e200fce,66fc9849e2a5af8e2bc40518,2024-10-01_21h49.44.105,mdp,2024.2.1,Win32,59.88023952,66fa4ebf79326e780c390304,,,,,,,,,,,,,,,,,,,,,2615.2771,2615.2771,2615.2785,2616.1941,0,0,left,0.3908,,2616.1957,2616.1965,1,0,,2616.1975,2616.1982,1,0,,1,2616.1983,2616.1983,2616.1992,2617.6952,0,9,9,9,1,0.6,0.4,0.6,0.4,1,0,,,,,,,,,,,,,,,,,,,,,,,,,,,,,,,,,,,,
,,5e13ff1b94d5eea33e200fce,66fc9849e2a5af8e2bc40518,2024-10-01_21h49.44.105,mdp,2024.2.1,Win32,59.88023952,66fa4ebf79326e780c390304,,,,,,,,,,,,,,,,,,,,,2617.6959,2617.6959,2617.6975,2618.3126,0,1,left,0.0911,,2618.3144,2618.3153,1,0,,2618.3164,2618.3171,1,1,,0,2618.3172,2618.3172,2618.318,2619.8141,0,10,10,10,1,0.6,0.4,0.6,0.4,1,0,,,,,,,,,,,,,,,,,,,,,,,,,,,,,,,,,,,,
,,5e13ff1b94d5eea33e200fce,66fc9849e2a5af8e2bc40518,2024-10-01_21h49.44.105,mdp,2024.2.1,Win32,59.88023952,66fa4ebf79326e780c390304,,,,,,,,,,,,,,,,,,,,,2619.8148,2619.8148,2619.8165,2620.3815,1,0,right,0.0362,,2620.3835,2620.3844,1,1,,2620.3855,2620.3862,1,1,,1,2620.3863,2620.3863,2620.3871,2621.8829,0,11,11,11,1,0.8,0.2,0.4,0.6,1,0,,,,,,,,,,,,,,,,,,,,,,,,,,,,,,,,,,,,
,,5e13ff1b94d5eea33e200fce,66fc9849e2a5af8e2bc40518,2024-10-01_21h49.44.105,mdp,2024.2.1,Win32,59.88023952,66fa4ebf79326e780c390304,,,,,,,,,,,,,,,,,,,,,2621.8835,2621.8835,2621.8851,2622.9003,1,1,right,0.4962,,2622.9021,2622.903,1,1,,2622.904,2622.9047,1,1,,0,2622.9048,2622.9048,2622.9057,2624.4018,0,12,12,12,1,0.8,0.2,0.4,0.6,1,0,,,,,,,,,,,,,,,,,,,,,,,,,,,,,,,,,,,,
,,5e13ff1b94d5eea33e200fce,66fc9849e2a5af8e2bc40518,2024-10-01_21h49.44.105,mdp,2024.2.1,Win32,59.88023952,66fa4ebf79326e780c390304,,,,,,,,,,,,,,,,,,,,,2624.4025,2624.4025,2624.4041,2625.2862,0,0,left,0.3531,,2625.288,2625.2889,1,0,,2625.29,2625.2908,1,0,,1,2625.2908,2625.2908,2625.2917,2626.7877,0,13,13,13,1,0.8,0.2,0.4,0.6,1,0,,,,,,,,,,,,,,,,,,,,,,,,,,,,,,,,,,,,
,,5e13ff1b94d5eea33e200fce,66fc9849e2a5af8e2bc40518,2024-10-01_21h49.44.105,mdp,2024.2.1,Win32,59.88023952,66fa4ebf79326e780c390304,,,,,,,,,,,,,,,,,,,,,2626.7883,2626.7883,2626.7898,2628.0222,0,1,left,0.7116,,2628.0239,2628.0248,1,0,,2628.026,2628.0268,1,1,,0,2628.0268,2628.0268,2628.0277,2629.5236,0,14,14,14,1,0.8,0.2,0.4,0.6,1,0,,,,,,,,,,,,,,,,,,,,,,,,,,,,,,,,,,,,
,,5e13ff1b94d5eea33e200fce,66fc9849e2a5af8e2bc40518,2024-10-01_21h49.44.105,mdp,2024.2.1,Win32,59.88023952,66fa4ebf79326e780c390304,,,,,,,,,,,,,,,,,,,,,2629.5242,2629.5242,2629.5258,2630.1577,1,0,right,0.1032,,2630.1595,2630.1604,1,1,,2630.1615,2630.1622,1,1,,1,2630.1623,2630.1623,2630.1632,2631.659,0,15,15,15,1,0.8,0.2,0.4,0.6,1,0,,,,,,,,,,,,,,,,,,,,,,,,,,,,,,,,,,,,
,,5e13ff1b94d5eea33e200fce,66fc9849e2a5af8e2bc40518,2024-10-01_21h49.44.105,mdp,2024.2.1,Win32,59.88023952,66fa4ebf79326e780c390304,,,,,,,,,,,,,,,,,,,,,2631.6595,2631.6595,2631.661,2632.4932,1,1,right,0.3123,,2632.495,2632.4959,1,1,,2632.4969,2632.4976,1,1,,0,2632.4978,2632.4978,2632.4985,2633.9949,0,16,16,16,1,0.8,0.2,0.4,0.6,1,0,,,,,,,,,,,,,,,,,,,,,,,,,,,,,,,,,,,,
,,5e13ff1b94d5eea33e200fce,66fc9849e2a5af8e2bc40518,2024-10-01_21h49.44.105,mdp,2024.2.1,Win32,59.88023952,66fa4ebf79326e780c390304,,,,,,,,,,,,,,,,,,,,,2633.9955,2633.9955,2633.997,2634.7625,0,0,left,0.2398,,2634.7642,2634.765,1,0,,2634.7662,2634.7669,1,0,,1,2634.767,2634.767,2634.7679,2636.2637,0,17,17,17,1,0.8,0.2,0.4,0.6,1,0,,,,,,,,,,,,,,,,,,,,,,,,,,,,,,,,,,,,
,,5e13ff1b94d5eea33e200fce,66fc9849e2a5af8e2bc40518,2024-10-01_21h49.44.105,mdp,2024.2.1,Win32,59.88023952,66fa4ebf79326e780c390304,,,,,,,,,,,,,,,,,,,,,2636.2643,2636.2643,2636.2659,2637.5649,0,1,left,0.771,,2637.567,2637.5679,1,0,,2637.569,2637.5696,1,0,,0,2637.5698,2637.5698,2637.5706,2639.0664,0,18,18,18,1,0.8,0.2,0.4,0.6,1,0,,,,,,,,,,,,,,,,,,,,,,,,,,,,,,,,,,,,
,,5e13ff1b94d5eea33e200fce,66fc9849e2a5af8e2bc40518,2024-10-01_21h49.44.105,mdp,2024.2.1,Win32,59.88023952,66fa4ebf79326e780c390304,,,,,,,,,,,,,,,,,,,,,2639.0672,2639.0672,2639.0689,2639.9674,1,0,right,0.3753,,2639.9692,2639.9702,1,1,,2639.9713,2639.972,1,0,,1,2639.9722,2639.9722,2639.9729,2641.4687,0,19,19,19,1,0.6,0.4,0.6,0.4,1,0,,,,,,,,,,,,,,,,,,,,,,,,,,,,,,,,,,,,
,,5e13ff1b94d5eea33e200fce,66fc9849e2a5af8e2bc40518,2024-10-01_21h49.44.105,mdp,2024.2.1,Win32,59.88023952,66fa4ebf79326e780c390304,,,,,,,,,,,,,,,,,,,,,2641.4695,2641.4695,2641.4711,2642.6202,1,0,right,0.6169,,2642.6218,2642.6227,1,1,,2642.6237,2642.6245,1,0,,1,2642.6245,2642.6245,2642.6253,2644.1215,0,20,20,20,1,0.6,0.4,0.6,0.4,1,0,,,,,,,,,,,,,,,,,,,,,,,,,,,,,,,,,,,,
,,5e13ff1b94d5eea33e200fce,66fc9849e2a5af8e2bc40518,2024-10-01_21h49.44.105,mdp,2024.2.1,Win32,59.88023952,66fa4ebf79326e780c390304,,,,,,,,,,,,,,,,,,,,,2644.1221,2644.1221,2644.1236,2644.7722,1,1,right,0.1216,,2644.7741,2644.775,1,1,,2644.7761,2644.7767,1,0,,0,2644.7768,2644.7768,2644.7777,2646.2728,0,21,21,21,1,0.6,0.4,0.6,0.4,1,0,,,,,,,,,,,,,,,,,,,,,,,,,,,,,,,,,,,,
,,5e13ff1b94d5eea33e200fce,66fc9849e2a5af8e2bc40518,2024-10-01_21h49.44.105,mdp,2024.2.1,Win32,59.88023952,66fa4ebf79326e780c390304,,,,,,,,,,,,,,,,,,,,,2646.2731,2646.2731,2646.2735,2647.1912,0,1,left,0.4038,,2647.193,2647.1938,1,1,,2647.1949,2647.1957,1,0,,0,2647.1957,2647.1958,2647.1966,2648.6926,0,22,22,22,1,0.8,0.2,0.8,0.2,1,0,,,,,,,,,,,,,,,,,,,,,,,,,,,,,,,,,,,,
,,5e13ff1b94d5eea33e200fce,66fc9849e2a5af8e2bc40518,2024-10-01_21h49.44.105,mdp,2024.2.1,Win32,59.88023952,66fa4ebf79326e780c390304,,,,,,,,,,,,,,,,,,,,,2648.6932,2648.6932,2648.6949,2649.4595,1,0,right,0.2459,,2649.4603,2649.4608,1,0,,2649.4613,2649.4617,1,0,,1,2649.4618,2649.4618,2649.4621,2650.9615,0,23,23,23,1,0.6,0.4,0.6,0.4,1,0,,,,,,,,,,,,,,,,,,,,,,,,,,,,,,,,,,,,
,,5e13ff1b94d5eea33e200fce,66fc9849e2a5af8e2bc40518,2024-10-01_21h49.44.105,mdp,2024.2.1,Win32,59.88023952,66fa4ebf79326e780c390304,,,,,,,,,,,,,,,,,,,,,2650.9622,2650.9622,2650.9635,2651.6288,1,1,right,0.1381,,2651.6307,2651.6316,1,0,,2651.6329,2651.6336,1,0,,0,2651.6336,2651.6336,2651.6345,2653.1303,0,24,24,24,1,0.6,0.4,0.6,0.4,1,0,,,,,,,,,,,,,,,,,,,,,,,,,,,,,,,,,,,,
,,5e13ff1b94d5eea33e200fce,66fc9849e2a5af8e2bc40518,2024-10-01_21h49.44.105,mdp,2024.2.1,Win32,59.88023952,66fa4ebf79326e780c390304,,,,,,,,,,,,,,,,,,,,,2653.1309,2653.131,2653.1324,2653.7811,0,0,left,0.1214,,2653.7836,2653.7847,1,0,,2653.7865,2653.7875,1,1,,1,2653.7876,2653.7876,2653.7888,2655.2825,0,25,25,25,1,0.6,0.4,0.6,0.4,1,0,,,,,,,,,,,,,,,,,,,,,,,,,,,,,,,,,,,,
,,5e13ff1b94d5eea33e200fce,66fc9849e2a5af8e2bc40518,2024-10-01_21h49.44.105,mdp,2024.2.1,Win32,59.88023952,66fa4ebf79326e780c390304,,,,,,,,,,,,,,,,,,,,,2655.2831,2655.2832,2655.2846,2656.467,0,0,left,0.652,,2656.4686,2656.4695,1,0,,2656.4706,2656.4715,1,0,,1,2656.4716,2656.4716,2656.4725,2657.9683,0,26,26,26,1,0.6,0.4,0.6,0.4,1,0,,,,,,,,,,,,,,,,,,,,,,,,,,,,,,,,,,,,
,,5e13ff1b94d5eea33e200fce,66fc9849e2a5af8e2bc40518,2024-10-01_21h49.44.105,mdp,2024.2.1,Win32,59.88023952,66fa4ebf79326e780c390304,,,,,,,,,,,,,,,,,,,,,2657.969,2657.969,2657.9703,2658.7024,0,0,left,0.2106,,2658.7041,2658.7051,1,1,,2658.7062,2658.7069,1,1,,1,2658.707,2658.707,2658.7078,2660.2039,0,27,27,27,1,0.6,0.4,0.6,0.4,1,0,,,,,,,,,,,,,,,,,,,,,,,,,,,,,,,,,,,,
,,5e13ff1b94d5eea33e200fce,66fc9849e2a5af8e2bc40518,2024-10-01_21h49.44.105,mdp,2024.2.1,Win32,59.88023952,66fa4ebf79326e780c390304,,,,,,,,,,,,,,,,,,,,,2660.2046,2660.2046,2660.206,2660.7712,0,0,left,0.0354,,2660.7728,2660.7736,1,1,,2660.7747,2660.7754,1,1,,1,2660.7754,2660.7754,2660.7763,2662.2724,0,28,28,28,1,0.6,0.4,0.6,0.4,1,0,,,,,,,,,,,,,,,,,,,,,,,,,,,,,,,,,,,,
,,5e13ff1b94d5eea33e200fce,66fc9849e2a5af8e2bc40518,2024-10-01_21h49.44.105,mdp,2024.2.1,Win32,59.88023952,66fa4ebf79326e780c390304,,,,,,,,,,,,,,,,,,,,,2662.2729,2662.273,2662.2745,2663.7742,0,0,left,0.9787,,2663.7759,2663.7768,1,1,,2663.7779,2663.7785,1,1,,1,2663.7786,2663.7786,2663.7795,2665.2756,0,29,29,29,1,0.6,0.4,0.6,0.4,1,0,,,,,,,,,,,,,,,,,,,,,,,,,,,,,,,,,,,,
,,5e13ff1b94d5eea33e200fce,66fc9849e2a5af8e2bc40518,2024-10-01_21h49.44.105,mdp,2024.2.1,Win32,59.88023952,66fa4ebf79326e780c390304,,,,,,,,,,,,,,,,,,,,,2665.2763,2665.2763,2665.2777,2666.4101,0,1,left,0.6023,,2666.412,2666.4129,1,1,,2666.4141,2666.415,1,0,,0,2666.415,2666.415,2666.416,2667.9114,0,30,30,30,1,0.6,0.4,0.6,0.4,1,0,,,,,,,,,,,,,,,,,,,,,,,,,,,,,,,,,,,,
,,5e13ff1b94d5eea33e200fce,66fc9849e2a5af8e2bc40518,2024-10-01_21h49.44.105,mdp,2024.2.1,Win32,59.88023952,66fa4ebf79326e780c390304,,,,,,,,,,,,,,,,,,,,,2667.9119,2667.9119,2667.9136,2669.0626,1,1,right,0.6193,,2669.0644,2669.0655,1,1,,2669.0665,2669.0673,1,0,,0,2669.0673,2669.0674,2669.0682,2670.5641,0,31,31,31,1,0.6,0.4,0.6,0.4,1,0,,,,,,,,,,,,,,,,,,,,,,,,,,,,,,,,,,,,
,,5e13ff1b94d5eea33e200fce,66fc9849e2a5af8e2bc40518,2024-10-01_21h49.44.105,mdp,2024.2.1,Win32,59.88023952,66fa4ebf79326e780c390304,,,,,,,,,,,,,,,,,,,,,2670.5648,2670.5649,2670.5664,2671.3146,0,0,left,0.2163,,2671.3157,2671.3162,1,0,,2671.3167,2671.3171,1,0,,1,2671.3171,2671.3171,2671.3175,2672.8163,0,32,32,32,1,0.6,0.4,0.6,0.4,1,0,,,,,,,,,,,,,,,,,,,,,,,,,,,,,,,,,,,,
,,5e13ff1b94d5eea33e200fce,66fc9849e2a5af8e2bc40518,2024-10-01_21h49.44.105,mdp,2024.2.1,Win32,59.88023952,66fa4ebf79326e780c390304,,,,,,,,,,,,,,,,,,,,,2672.8169,2672.817,2672.8185,2673.7836,0,1,left,0.4352,,2673.7846,2673.785,1,1,,2673.7854,2673.7857,1,1,,0,2673.7857,2673.7857,2673.786,2675.2856,0,33,33,33,1,0.6,0.4,0.6,0.4,1,0,,,,,,,,,,,,,,,,,,,,,,,,,,,,,,,,,,,,
,,5e13ff1b94d5eea33e200fce,66fc9849e2a5af8e2bc40518,2024-10-01_21h49.44.105,mdp,2024.2.1,Win32,59.88023952,66fa4ebf79326e780c390304,,,,,,,,,,,,,,,,,,,,,2675.2862,2675.2862,2675.2876,2676.119,1,0,right,0.3105,,2676.1197,2676.1201,1,0,,2676.1205,2676.1208,1,0,,1,2676.1208,2676.1208,2676.1212,2677.6213,0,34,34,34,1,0.8,0.2,0.4,0.6,1,0,,,,,,,,,,,,,,,,,,,,,,,,,,,,,,,,,,,,
,,5e13ff1b94d5eea33e200fce,66fc9849e2a5af8e2bc40518,2024-10-01_21h49.44.105,mdp,2024.2.1,Win32,59.88023952,66fa4ebf79326e780c390304,,,,,,,,,,,,,,,,,,,,,2677.6219,2677.6219,2677.6232,2678.3386,1,0,right,0.1915,,2678.3405,2678.3414,1,1,,2678.3426,2678.3433,1,0,,1,2678.3434,2678.3434,2678.3442,2679.8396,0,35,35,35,1,0.8,0.2,0.4,0.6,1,0,,,,,,,,,,,,,,,,,,,,,,,,,,,,,,,,,,,,
