init_exp.started,init_exp.stopped,participant,session,date,expName,psychopyVersion,OS,frameRate,study_id,disp_instruction.started,disp_instruction.stopped,instruction.thisRepN,instruction.thisTrialN,instruction.thisN,instruction.thisIndex,instruction.ran,instimg_path,consent.started,consent.stopped,key_resp_3.keys,key_resp_3.rt,key_resp_3.duration,n_steps,sequence_path,init_block.started,init_block.stopped,key_resp.keys,key_resp.rt,key_resp.duration,init_trials.started,init_trials.stopped,step0.started,step0.stopped,act0,s1,res0.keys,res0.rt,res0.duration,step1.started,step1.stopped,act1,s2,res1.keys,step2.started,step2.stopped,act2,s3,res2.keys,rew,reward_comp.started,reward_comp.stopped,reward_disp.started,reward_disp.stopped,trials.thisRepN,trials.thisTrialN,trials.thisN,trials.thisIndex,trials.ran,s00a0s10,s00a0s11,s00a1s10,s00a1s11,rew10,rew11,break_block.started,break_block.stopped,block.thisRepN,block.thisTrialN,block.thisN,block.thisIndex,block.ran,s00path,s10path,s11path,s20path,s21path,res1.rt,res1.duration,s10a0s20,s10a0s21,s10a1s20,s10a1s21,s11a0s20,s11a0s21,s11a1s20,s11a1s21,rew20,rew21,res2.rt,res2.duration,s20a0s30,s20a0s31,s20a1s30,s20a1s31,s21a0s30,s21a0s31,s21a1s30,s21a1s31,rew30,rew31
0,0.003,5e15bb77e78021b9d45d8cf4,66daf59e805b033eede348a5,2024-09-06_14h29.35.591,mdp,2024.2.1,Win32,60.16847172,66d7945b1baad48e845df3ce,,,,,,,,,,,,,,,,,,,,,,,,,,,,,,,,,,,,,,,,,,,,,,,,,,,,,,,,,,,,,,,,,,,,,,,,,,,,,,,,,,,,,,,,,,,
,,5e15bb77e78021b9d45d8cf4,66daf59e805b033eede348a5,2024-09-06_14h29.35.591,mdp,2024.2.1,Win32,60.16847172,66d7945b1baad48e845df3ce,0.017,27.479,0,0,0,0,1,rlnn_exp/rlnn_exp.001.png,,,,,,,,,,,,,,,,,,,,,,,,,,,,,,,,,,,,,,,,,,,,,,,,,,,,,,,,,,,,,,,,,,,,,,,,,,,,,,,,,,,
,,5e15bb77e78021b9d45d8cf4,66daf59e805b033eede348a5,2024-09-06_14h29.35.591,mdp,2024.2.1,Win32,60.16847172,66d7945b1baad48e845df3ce,27.481,38.357,0,1,1,1,1,rlnn_exp/rlnn_exp.002.png,,,,,,,,,,,,,,,,,,,,,,,,,,,,,,,,,,,,,,,,,,,,,,,,,,,,,,,,,,,,,,,,,,,,,,,,,,,,,,,,,,,
,,5e15bb77e78021b9d45d8cf4,66daf59e805b033eede348a5,2024-09-06_14h29.35.591,mdp,2024.2.1,Win32,60.16847172,66d7945b1baad48e845df3ce,38.359,56.213,0,2,2,2,1,rlnn_exp/rlnn_exp.003.png,,,,,,,,,,,,,,,,,,,,,,,,,,,,,,,,,,,,,,,,,,,,,,,,,,,,,,,,,,,,,,,,,,,,,,,,,,,,,,,,,,,
,,5e15bb77e78021b9d45d8cf4,66daf59e805b033eede348a5,2024-09-06_14h29.35.591,mdp,2024.2.1,Win32,60.16847172,66d7945b1baad48e845df3ce,56.214,88.962,0,3,3,3,1,rlnn_exp/rlnn_exp.004.png,,,,,,,,,,,,,,,,,,,,,,,,,,,,,,,,,,,,,,,,,,,,,,,,,,,,,,,,,,,,,,,,,,,,,,,,,,,,,,,,,,,
,,5e15bb77e78021b9d45d8cf4,66daf59e805b033eede348a5,2024-09-06_14h29.35.591,mdp,2024.2.1,Win32,60.16847172,66d7945b1baad48e845df3ce,,,,,,,,,88.962,107.252,y,8.266,,,,,,,,,,,,,,,,,,,,,,,,,,,,,,,,,,,,,,,,,,,,,,,,,,,,,,,,,,,,,,,,,,,,,,,,,,,,,,,
,,5e15bb77e78021b9d45d8cf4,66daf59e805b033eede348a5,2024-09-06_14h29.35.591,mdp,2024.2.1,Win32,60.16847172,66d7945b1baad48e845df3ce,,,,,,,,,,,,,,1,seqs/st1seq39.csv,107.256,109.35,space,1.566,,109.353,109.353,109.354,110.866,0,1,left,0.978,,110.867,110.869,,1,,110.869,110.87,,1,,0,110.87,110.87,110.87,112.365,0,0,0,0,1,0.2,0.8,0.8,0.2,1,0,,,,,,,,,,,,,,,,,,,,,,,,,,,,,,,,,,,,
,,5e15bb77e78021b9d45d8cf4,66daf59e805b033eede348a5,2024-09-06_14h29.35.591,mdp,2024.2.1,Win32,60.16847172,66d7945b1baad48e845df3ce,,,,,,,,,,,,,,,,,,,,,112.366,112.366,112.367,113.448,1,0,right,0.551,,113.449,113.451,,0,,113.453,113.453,,1,,1,113.453,113.453,113.454,114.948,0,1,1,1,1,0.2,0.8,0.8,0.2,1,0,,,,,,,,,,,,,,,,,,,,,,,,,,,,,,,,,,,,
,,5e15bb77e78021b9d45d8cf4,66daf59e805b033eede348a5,2024-09-06_14h29.35.591,mdp,2024.2.1,Win32,60.16847172,66d7945b1baad48e845df3ce,,,,,,,,,,,,,,,,,,,,,114.948,114.948,114.949,115.897,1,0,right,0.419,,115.898,115.9,,0,,115.9,115.9,,0,,1,115.9,115.9,115.9,117.396,0,2,2,2,1,0.2,0.8,0.8,0.2,1,0,,,,,,,,,,,,,,,,,,,,,,,,,,,,,,,,,,,,
,,5e15bb77e78021b9d45d8cf4,66daf59e805b033eede348a5,2024-09-06_14h29.35.591,mdp,2024.2.1,Win32,60.16847172,66d7945b1baad48e845df3ce,,,,,,,,,,,,,,,,,,,,,117.396,117.396,117.397,118.445,1,0,right,0.543,,118.446,118.446,,0,,118.448,118.448,,0,,1,118.448,118.448,118.449,119.945,0,3,3,3,1,0.2,0.8,0.8,0.2,1,0,,,,,,,,,,,,,,,,,,,,,,,,,,,,,,,,,,,,
,,5e15bb77e78021b9d45d8cf4,66daf59e805b033eede348a5,2024-09-06_14h29.35.591,mdp,2024.2.1,Win32,60.16847172,66d7945b1baad48e845df3ce,,,,,,,,,,,,,,,,,,,,,119.945,119.945,119.947,120.728,1,0,right,0.27,,120.728,120.729,,0,,120.73,120.73,,0,,1,120.73,120.73,120.731,122.226,0,4,4,4,1,0.4,0.6,0.6,0.4,1,0,,,,,,,,,,,,,,,,,,,,,,,,,,,,,,,,,,,,
,,5e15bb77e78021b9d45d8cf4,66daf59e805b033eede348a5,2024-09-06_14h29.35.591,mdp,2024.2.1,Win32,60.16847172,66d7945b1baad48e845df3ce,,,,,,,,,,,,,,,,,,,,,122.226,122.227,122.227,123.159,1,0,right,0.399,,123.16,123.16,,1,,123.162,123.162,,0,,1,123.162,123.162,123.162,124.658,0,5,5,5,1,0.4,0.6,0.6,0.4,1,0,,,,,,,,,,,,,,,,,,,,,,,,,,,,,,,,,,,,
,,5e15bb77e78021b9d45d8cf4,66daf59e805b033eede348a5,2024-09-06_14h29.35.591,mdp,2024.2.1,Win32,60.16847172,66d7945b1baad48e845df3ce,,,,,,,,,,,,,,,,,,,,,124.658,124.658,124.66,125.642,1,0,right,0.464,,125.642,125.643,,0,,125.644,125.644,,0,,1,125.644,125.644,125.644,127.141,0,6,6,6,1,0.6,0.4,0.8,0.2,1,0,,,,,,,,,,,,,,,,,,,,,,,,,,,,,,,,,,,,
,,5e15bb77e78021b9d45d8cf4,66daf59e805b033eede348a5,2024-09-06_14h29.35.591,mdp,2024.2.1,Win32,60.16847172,66d7945b1baad48e845df3ce,,,,,,,,,,,,,,,,,,,,,127.141,127.141,127.142,128.056,1,0,right,0.408,,128.057,128.059,,0,,128.06,128.06,,0,,1,128.06,128.06,128.061,129.556,0,7,7,7,1,0.6,0.4,0.8,0.2,1,0,,,,,,,,,,,,,,,,,,,,,,,,,,,,,,,,,,,,
,,5e15bb77e78021b9d45d8cf4,66daf59e805b033eede348a5,2024-09-06_14h29.35.591,mdp,2024.2.1,Win32,60.16847172,66d7945b1baad48e845df3ce,,,,,,,,,,,,,,,,,,,,,129.556,129.556,129.557,130.372,1,0,right,0.287,,130.375,130.377,,0,,130.378,130.379,,1,,1,130.379,130.379,130.38,131.872,0,8,8,8,1,0.4,0.6,0.6,0.4,1,0,,,,,,,,,,,,,,,,,,,,,,,,,,,,,,,,,,,,
,,5e15bb77e78021b9d45d8cf4,66daf59e805b033eede348a5,2024-09-06_14h29.35.591,mdp,2024.2.1,Win32,60.16847172,66d7945b1baad48e845df3ce,,,,,,,,,,,,,,,,,,,,,131.872,131.872,131.873,132.738,1,1,right,0.337,,132.741,132.742,,0,,132.743,132.744,,1,,0,132.744,132.744,132.744,134.237,0,9,9,9,1,0.4,0.6,0.6,0.4,1,0,,,,,,,,,,,,,,,,,,,,,,,,,,,,,,,,,,,,
,,5e15bb77e78021b9d45d8cf4,66daf59e805b033eede348a5,2024-09-06_14h29.35.591,mdp,2024.2.1,Win32,60.16847172,66d7945b1baad48e845df3ce,,,,,,,,,,,,,,,,,,,,,134.238,134.238,134.24,134.787,0,1,left,0.017,,134.788,134.789,,0,,134.789,134.79,,1,,0,134.79,134.79,134.79,136.286,0,10,10,10,1,0.4,0.6,0.6,0.4,1,0,,,,,,,,,,,,,,,,,,,,,,,,,,,,,,,,,,,,
,,5e15bb77e78021b9d45d8cf4,66daf59e805b033eede348a5,2024-09-06_14h29.35.591,mdp,2024.2.1,Win32,60.16847172,66d7945b1baad48e845df3ce,,,,,,,,,,,,,,,,,,,,,136.286,136.286,136.287,137.169,1,0,right,0.349,,137.169,137.171,,0,,137.172,137.173,,0,,1,137.173,137.173,137.173,138.668,0,11,11,11,1,0.4,0.6,0.6,0.4,1,0,,,,,,,,,,,,,,,,,,,,,,,,,,,,,,,,,,,,
,,5e15bb77e78021b9d45d8cf4,66daf59e805b033eede348a5,2024-09-06_14h29.35.591,mdp,2024.2.1,Win32,60.16847172,66d7945b1baad48e845df3ce,,,,,,,,,,,,,,,,,,,,,138.668,138.669,138.669,139.617,1,1,right,0.419,,139.618,139.619,,1,,139.62,139.621,,0,,0,139.621,139.621,139.621,141.117,0,12,12,12,1,0.4,0.6,0.6,0.4,1,0,,,,,,,,,,,,,,,,,,,,,,,,,,,,,,,,,,,,
,,5e15bb77e78021b9d45d8cf4,66daf59e805b033eede348a5,2024-09-06_14h29.35.591,mdp,2024.2.1,Win32,60.16847172,66d7945b1baad48e845df3ce,,,,,,,,,,,,,,,,,,,,,141.117,141.117,141.119,142.565,1,0,right,0.915,,142.566,142.566,,0,,142.568,142.568,,0,,1,142.568,142.568,142.569,144.064,0,13,13,13,1,0.4,0.6,0.6,0.4,1,0,,,,,,,,,,,,,,,,,,,,,,,,,,,,,,,,,,,,
,,5e15bb77e78021b9d45d8cf4,66daf59e805b033eede348a5,2024-09-06_14h29.35.591,mdp,2024.2.1,Win32,60.16847172,66d7945b1baad48e845df3ce,,,,,,,,,,,,,,,,,,,,,144.066,144.066,144.066,144.98,0,0,left,0.387,,144.982,144.982,,1,,144.983,144.985,,0,,1,144.985,144.985,144.985,146.48,0,14,14,14,1,0.4,0.6,0.6,0.4,1,0,,,,,,,,,,,,,,,,,,,,,,,,,,,,,,,,,,,,
,,5e15bb77e78021b9d45d8cf4,66daf59e805b033eede348a5,2024-09-06_14h29.35.591,mdp,2024.2.1,Win32,60.16847172,66d7945b1baad48e845df3ce,,,,,,,,,,,,,,,,,,,,,146.48,146.48,146.482,147.329,1,0,right,0.324,,147.33,147.331,,1,,147.331,147.333,,0,,1,147.333,147.333,147.333,148.828,0,15,15,15,1,0.4,0.6,0.6,0.4,1,0,,,,,,,,,,,,,,,,,,,,,,,,,,,,,,,,,,,,
,,5e15bb77e78021b9d45d8cf4,66daf59e805b033eede348a5,2024-09-06_14h29.35.591,mdp,2024.2.1,Win32,60.16847172,66d7945b1baad48e845df3ce,,,,,,,,,,,,,,,,,,,,,148.829,148.829,148.83,149.678,0,1,left,0.32,,149.678,149.68,,1,,149.68,149.681,,0,,0,149.681,149.681,149.681,151.177,0,16,16,16,1,0.4,0.6,0.6,0.4,1,0,,,,,,,,,,,,,,,,,,,,,,,,,,,,,,,,,,,,
,,5e15bb77e78021b9d45d8cf4,66daf59e805b033eede348a5,2024-09-06_14h29.35.591,mdp,2024.2.1,Win32,60.16847172,66d7945b1baad48e845df3ce,,,,,,,,,,,,,,,,,,,,,151.177,151.177,151.178,152.077,1,0,right,0.376,,152.077,152.078,,0,,152.078,152.079,,0,,1,152.079,152.079,152.079,153.576,0,17,17,17,1,0.4,0.6,0.6,0.4,1,0,,,,,,,,,,,,,,,,,,,,,,,,,,,,,,,,,,,,
,,5e15bb77e78021b9d45d8cf4,66daf59e805b033eede348a5,2024-09-06_14h29.35.591,mdp,2024.2.1,Win32,60.16847172,66d7945b1baad48e845df3ce,,,,,,,,,,,,,,,,,,,,,153.576,153.576,153.578,154.975,1,0,right,0.885,,154.976,154.977,,1,,154.978,154.978,,0,,1,154.978,154.978,154.979,156.474,0,18,18,18,1,0.4,0.6,0.6,0.4,1,0,,,,,,,,,,,,,,,,,,,,,,,,,,,,,,,,,,,,
,,5e15bb77e78021b9d45d8cf4,66daf59e805b033eede348a5,2024-09-06_14h29.35.591,mdp,2024.2.1,Win32,60.16847172,66d7945b1baad48e845df3ce,,,,,,,,,,,,,,,,,,,,,156.474,156.474,156.475,157.424,0,1,left,0.439,,157.424,157.425,,1,,157.426,157.426,,0,,0,157.426,157.426,157.427,158.923,0,19,19,19,1,0.4,0.6,0.6,0.4,1,0,,,,,,,,,,,,,,,,,,,,,,,,,,,,,,,,,,,,
,,5e15bb77e78021b9d45d8cf4,66daf59e805b033eede348a5,2024-09-06_14h29.35.591,mdp,2024.2.1,Win32,60.16847172,66d7945b1baad48e845df3ce,,,,,,,,,,,,,,,,,,,,,158.923,158.923,158.924,159.722,1,0,right,0.276,,159.723,159.725,,1,,159.726,159.726,,1,,1,159.726,159.726,159.727,161.222,0,20,20,20,1,0.6,0.4,0.4,0.6,1,0,,,,,,,,,,,,,,,,,,,,,,,,,,,,,,,,,,,,
,,5e15bb77e78021b9d45d8cf4,66daf59e805b033eede348a5,2024-09-06_14h29.35.591,mdp,2024.2.1,Win32,60.16847172,66d7945b1baad48e845df3ce,,,,,,,,,,,,,,,,,,,,,161.222,161.222,161.223,162.005,1,1,right,0.25,,162.006,162.007,,1,,162.007,162.008,,1,,0,162.008,162.008,162.009,163.504,0,21,21,21,1,0.4,0.6,0.6,0.4,1,0,,,,,,,,,,,,,,,,,,,,,,,,,,,,,,,,,,,,
,,5e15bb77e78021b9d45d8cf4,66daf59e805b033eede348a5,2024-09-06_14h29.35.591,mdp,2024.2.1,Win32,60.16847172,66d7945b1baad48e845df3ce,,,,,,,,,,,,,,,,,,,,,163.504,163.504,163.505,164.686,1,0,right,0.652,,164.687,164.689,,0,,164.69,164.691,,1,,1,164.691,164.691,164.691,166.186,0,22,22,22,1,0.4,0.6,0.6,0.4,1,0,,,,,,,,,,,,,,,,,,,,,,,,,,,,,,,,,,,,
,,5e15bb77e78021b9d45d8cf4,66daf59e805b033eede348a5,2024-09-06_14h29.35.591,mdp,2024.2.1,Win32,60.16847172,66d7945b1baad48e845df3ce,,,,,,,,,,,,,,,,,,,,,166.189,166.189,166.19,167.035,1,1,right,0.324,,167.036,167.037,,0,,167.038,167.038,,1,,0,167.038,167.038,167.039,168.534,0,23,23,23,1,0.4,0.6,0.6,0.4,1,0,,,,,,,,,,,,,,,,,,,,,,,,,,,,,,,,,,,,
,,5e15bb77e78021b9d45d8cf4,66daf59e805b033eede348a5,2024-09-06_14h29.35.591,mdp,2024.2.1,Win32,60.16847172,66d7945b1baad48e845df3ce,,,,,,,,,,,,,,,,,,,,,168.534,168.534,168.535,169.367,1,1,right,0.317,,169.368,169.369,,1,,169.37,169.37,,0,,0,169.37,169.37,169.371,170.866,0,24,24,24,1,0.4,0.6,0.6,0.4,1,0,,,,,,,,,,,,,,,,,,,,,,,,,,,,,,,,,,,,
,,5e15bb77e78021b9d45d8cf4,66daf59e805b033eede348a5,2024-09-06_14h29.35.591,mdp,2024.2.1,Win32,60.16847172,66d7945b1baad48e845df3ce,,,,,,,,,,,,,,,,,,,,,170.866,170.866,170.868,171.632,1,0,right,0.256,,171.634,171.636,,0,,171.637,171.637,,1,,1,171.638,171.638,171.638,173.132,0,25,25,25,1,0.6,0.4,0.8,0.2,1,0,,,,,,,,,,,,,,,,,,,,,,,,,,,,,,,,,,,,
,,5e15bb77e78021b9d45d8cf4,66daf59e805b033eede348a5,2024-09-06_14h29.35.591,mdp,2024.2.1,Win32,60.16847172,66d7945b1baad48e845df3ce,,,,,,,,,,,,,,,,,,,,,173.132,173.132,173.133,174.048,1,0,right,0.385,,174.048,174.05,,0,,174.05,174.05,,0,,1,174.05,174.051,174.051,175.547,0,26,26,26,1,0.6,0.4,0.8,0.2,1,0,,,,,,,,,,,,,,,,,,,,,,,,,,,,,,,,,,,,
,,5e15bb77e78021b9d45d8cf4,66daf59e805b033eede348a5,2024-09-06_14h29.35.591,mdp,2024.2.1,Win32,60.16847172,66d7945b1baad48e845df3ce,,,,,,,,,,,,,,,,,,,,,175.547,175.547,175.548,176.213,0,0,left,0.134,,176.214,176.215,,0,,176.216,176.217,,0,,1,176.217,176.217,176.218,177.712,0,27,27,27,1,0.6,0.4,0.8,0.2,1,0,,,,,,,,,,,,,,,,,,,,,,,,,,,,,,,,,,,,
,,5e15bb77e78021b9d45d8cf4,66daf59e805b033eede348a5,2024-09-06_14h29.35.591,mdp,2024.2.1,Win32,60.16847172,66d7945b1baad48e845df3ce,,,,,,,,,,,,,,,,,,,,,177.713,177.713,177.714,178.562,0,0,left,0.322,,178.563,178.564,,0,,178.565,178.566,,1,,1,178.566,178.566,178.566,180.061,0,28,28,28,1,0.6,0.4,0.8,0.2,1,0,,,,,,,,,,,,,,,,,,,,,,,,,,,,,,,,,,,,
,,5e15bb77e78021b9d45d8cf4,66daf59e805b033eede348a5,2024-09-06_14h29.35.591,mdp,2024.2.1,Win32,60.16847172,66d7945b1baad48e845df3ce,,,,,,,,,,,,,,,,,,,,,180.062,180.062,180.063,180.894,1,0,right,0.299,,180.895,180.896,,1,,180.896,180.897,,1,,1,180.897,180.897,180.897,182.393,0,29,29,29,1,0.6,0.4,0.8,0.2,1,0,,,,,,,,,,,,,,,,,,,,,,,,,,,,,,,,,,,,
,,5e15bb77e78021b9d45d8cf4,66daf59e805b033eede348a5,2024-09-06_14h29.35.591,mdp,2024.2.1,Win32,60.16847172,66d7945b1baad48e845df3ce,,,,,,,,,,,,,,,,,,,,,182.394,182.394,182.395,183.294,1,0,right,0.365,,183.295,183.296,,0,,183.297,183.297,,0,,1,183.297,183.297,183.298,184.792,0,30,30,30,1,0.6,0.4,0.8,0.2,1,0,,,,,,,,,,,,,,,,,,,,,,,,,,,,,,,,,,,,
,,5e15bb77e78021b9d45d8cf4,66daf59e805b033eede348a5,2024-09-06_14h29.35.591,mdp,2024.2.1,Win32,60.16847172,66d7945b1baad48e845df3ce,,,,,,,,,,,,,,,,,,,,,184.792,184.792,184.793,185.675,0,0,left,0.368,,185.676,185.676,,1,,185.677,185.677,,0,,1,185.677,185.677,185.678,187.174,0,31,31,31,1,0.8,0.2,0.4,0.6,1,0,,,,,,,,,,,,,,,,,,,,,,,,,,,,,,,,,,,,
,,5e15bb77e78021b9d45d8cf4,66daf59e805b033eede348a5,2024-09-06_14h29.35.591,mdp,2024.2.1,Win32,60.16847172,66d7945b1baad48e845df3ce,,,,,,,,,,,,,,,,,,,,,187.175,187.175,187.176,187.99,0,1,left,0.285,,187.991,187.993,,0,,187.993,187.994,,0,,0,187.994,187.994,187.995,189.489,0,32,32,32,1,0.8,0.2,0.4,0.6,1,0,,,,,,,,,,,,,,,,,,,,,,,,,,,,,,,,,,,,
,,5e15bb77e78021b9d45d8cf4,66daf59e805b033eede348a5,2024-09-06_14h29.35.591,mdp,2024.2.1,Win32,60.16847172,66d7945b1baad48e845df3ce,,,,,,,,,,,,,,,,,,,,,189.489,189.489,189.49,190.422,0,0,left,0.417,,190.423,190.424,,1,,190.425,190.425,,1,,1,190.425,190.425,190.425,191.921,0,33,33,33,1,0.8,0.2,0.4,0.6,1,0,,,,,,,,,,,,,,,,,,,,,,,,,,,,,,,,,,,,
,,5e15bb77e78021b9d45d8cf4,66daf59e805b033eede348a5,2024-09-06_14h29.35.591,mdp,2024.2.1,Win32,60.16847172,66d7945b1baad48e845df3ce,,,,,,,,,,,,,,,,,,,,,191.922,191.922,191.923,192.854,0,1,left,0.4,,192.856,192.858,,0,,192.859,192.86,,0,,0,192.86,192.86,192.861,194.353,0,34,34,34,1,0.6,0.4,0.8,0.2,1,0,,,,,,,,,,,,,,,,,,,,,,,,,,,,,,,,,,,,
,,5e15bb77e78021b9d45d8cf4,66daf59e805b033eede348a5,2024-09-06_14h29.35.591,mdp,2024.2.1,Win32,60.16847172,66d7945b1baad48e845df3ce,,,,,,,,,,,,,,,,,,,,,194.353,194.353,194.354,195.119,1,0,right,0.255,,195.121,195.123,,0,,195.124,195.125,,0,,1,195.125,195.125,195.126,196.618,0,35,35,35,1,0.6,0.4,0.8,0.2,1,0,,,,,,,,,,,,,,,,,,,,,,,,,,,,,,,,,,,,
,,5e15bb77e78021b9d45d8cf4,66daf59e805b033eede348a5,2024-09-06_14h29.35.591,mdp,2024.2.1,Win32,60.16847172,66d7945b1baad48e845df3ce,,,,,,,,,,,,,,,,,,,,,196.619,196.619,196.62,197.801,0,0,left,0.656,,197.802,197.803,,0,,197.804,197.805,,1,,1,197.805,197.805,197.805,199.302,0,36,36,36,1,0.6,0.4,0.8,0.2,1,0,,,,,,,,,,,,,,,,,,,,,,,,,,,,,,,,,,,,
,,5e15bb77e78021b9d45d8cf4,66daf59e805b033eede348a5,2024-09-06_14h29.35.591,mdp,2024.2.1,Win32,60.16847172,66d7945b1baad48e845df3ce,,,,,,,,,,,,,,,,,,,,,199.305,199.305,199.308,200.1,1,1,right,0.272,,200.102,200.102,,1,,200.104,200.105,,1,,0,200.105,200.105,200.105,201.599,0,37,37,37,1,0.6,0.4,0.8,0.2,1,0,,,,,,,,,,,,,,,,,,,,,,,,,,,,,,,,,,,,
,,5e15bb77e78021b9d45d8cf4,66daf59e805b033eede348a5,2024-09-06_14h29.35.591,mdp,2024.2.1,Win32,60.16847172,66d7945b1baad48e845df3ce,,,,,,,,,,,,,,,,,,,,,201.6,201.6,201.601,202.383,1,0,right,0.255,,202.383,202.384,,0,,202.386,202.386,,0,,1,202.386,202.386,202.387,203.881,0,38,38,38,1,0.6,0.4,0.8,0.2,1,0,,,,,,,,,,,,,,,,,,,,,,,,,,,,,,,,,,,,
,,5e15bb77e78021b9d45d8cf4,66daf59e805b033eede348a5,2024-09-06_14h29.35.591,mdp,2024.2.1,Win32,60.16847172,66d7945b1baad48e845df3ce,,,,,,,,,,,,,,,,,,,,,203.882,203.882,203.882,204.831,1,0,right,0.42,,204.832,204.834,,0,,204.835,204.836,,0,,1,204.836,204.836,204.837,206.33,0,39,39,39,1,0.6,0.4,0.8,0.2,1,0,,,,,,,,,,,,,,,,,,,,,,,,,,,,,,,,,,,,
,,5e15bb77e78021b9d45d8cf4,66daf59e805b033eede348a5,2024-09-06_14h29.35.591,mdp,2024.2.1,Win32,60.16847172,66d7945b1baad48e845df3ce,,,,,,,,,,,,,,,,,,,,,206.331,206.331,206.331,207.179,1,0,right,0.319,,207.181,207.181,,0,,207.182,207.182,,0,,1,207.182,207.182,207.183,208.679,0,40,40,40,1,0.6,0.4,0.8,0.2,1,0,,,,,,,,,,,,,,,,,,,,,,,,,,,,,,,,,,,,
,,5e15bb77e78021b9d45d8cf4,66daf59e805b033eede348a5,2024-09-06_14h29.35.591,mdp,2024.2.1,Win32,60.16847172,66d7945b1baad48e845df3ce,,,,,,,,,,,,,,,,,,,,,208.679,208.679,208.679,209.445,0,0,left,0.24,,209.445,209.446,,1,,209.447,209.448,,1,,1,209.448,209.448,209.448,210.944,0,41,41,41,1,0.6,0.4,0.8,0.2,1,0,,,,,,,,,,,,,,,,,,,,,,,,,,,,,,,,,,,,
,,5e15bb77e78021b9d45d8cf4,66daf59e805b033eede348a5,2024-09-06_14h29.35.591,mdp,2024.2.1,Win32,60.16847172,66d7945b1baad48e845df3ce,,,,,,,,,,,,,,,,,,,,,210.944,210.944,210.945,211.86,0,0,left,0.399,,211.861,211.863,,1,,211.863,211.864,,0,,1,211.864,211.864,211.864,213.36,0,42,42,42,1,0.6,0.4,0.8,0.2,1,0,,,,,,,,,,,,,,,,,,,,,,,,,,,,,,,,,,,,
,,5e15bb77e78021b9d45d8cf4,66daf59e805b033eede348a5,2024-09-06_14h29.35.591,mdp,2024.2.1,Win32,60.16847172,66d7945b1baad48e845df3ce,,,,,,,,,,,,,,,,,,,,,213.36,213.36,213.361,214.242,0,0,left,0.36,,214.243,214.243,,0,,214.244,214.245,,0,,1,214.245,214.245,214.246,215.741,0,43,43,43,1,0.6,0.4,0.8,0.2,1,0,,,,,,,,,,,,,,,,,,,,,,,,,,,,,,,,,,,,
,,5e15bb77e78021b9d45d8cf4,66daf59e805b033eede348a5,2024-09-06_14h29.35.591,mdp,2024.2.1,Win32,60.16847172,66d7945b1baad48e845df3ce,,,,,,,,,,,,,,,,,,,,,215.742,215.742,215.744,216.508,1,0,right,0.233,,216.509,216.51,,0,,216.511,216.511,,0,,1,216.511,216.511,216.512,218.006,0,44,44,44,1,0.6,0.4,0.8,0.2,1,0,,,,,,,,,,,,,,,,,,,,,,,,,,,,,,,,,,,,
,,5e15bb77e78021b9d45d8cf4,66daf59e805b033eede348a5,2024-09-06_14h29.35.591,mdp,2024.2.1,Win32,60.16847172,66d7945b1baad48e845df3ce,,,,,,,,,,,,,,,,,,,,,218.008,218.008,218.008,218.857,1,1,right,0.317,,218.858,218.859,,0,,218.86,218.86,,0,,0,218.86,218.86,218.86,220.356,0,45,45,45,1,0.6,0.4,0.8,0.2,1,0,,,,,,,,,,,,,,,,,,,,,,,,,,,,,,,,,,,,
,,5e15bb77e78021b9d45d8cf4,66daf59e805b033eede348a5,2024-09-06_14h29.35.591,mdp,2024.2.1,Win32,60.16847172,66d7945b1baad48e845df3ce,,,,,,,,,,,,,,,,,,,,,220.356,220.356,220.357,221.255,1,0,right,0.384,,221.256,221.257,,0,,221.257,221.257,,0,,1,221.257,221.258,221.258,222.754,0,46,46,46,1,0.6,0.4,0.8,0.2,1,0,,,,,,,,,,,,,,,,,,,,,,,,,,,,,,,,,,,,
,,5e15bb77e78021b9d45d8cf4,66daf59e805b033eede348a5,2024-09-06_14h29.35.591,mdp,2024.2.1,Win32,60.16847172,66d7945b1baad48e845df3ce,,,,,,,,,,,,,,,,,,,,,222.755,222.755,222.756,223.571,1,1,right,0.292,,223.571,223.573,,0,,223.574,223.574,,0,,0,223.574,223.574,223.575,225.069,0,47,47,47,1,0.8,0.2,0.4,0.6,1,0,,,,,,,,,,,,,,,,,,,,,,,,,,,,,,,,,,,,
,,5e15bb77e78021b9d45d8cf4,66daf59e805b033eede348a5,2024-09-06_14h29.35.591,mdp,2024.2.1,Win32,60.16847172,66d7945b1baad48e845df3ce,,,,,,,,,,,,,,,,,,,,,225.07,225.07,225.07,225.669,1,1,right,0.071,,225.671,225.672,,0,,225.672,225.673,,0,,0,225.673,225.673,225.673,227.169,0,48,48,48,1,0.6,0.4,0.2,0.8,1,0,,,,,,,,,,,,,,,,,,,,,,,,,,,,,,,,,,,,
,,5e15bb77e78021b9d45d8cf4,66daf59e805b033eede348a5,2024-09-06_14h29.35.591,mdp,2024.2.1,Win32,60.16847172,66d7945b1baad48e845df3ce,,,,,,,,,,,,,,,,,,,,,227.169,227.169,227.17,228.251,0,1,left,0.56,,228.252,228.253,,1,,228.254,228.254,,1,,0,228.254,228.254,228.254,229.75,0,49,49,49,1,0.2,0.8,0.6,0.4,1,0,,,,,,,,,,,,,,,,,,,,,,,,,,,,,,,,,,,,
,,5e15bb77e78021b9d45d8cf4,66daf59e805b033eede348a5,2024-09-06_14h29.35.591,mdp,2024.2.1,Win32,60.16847172,66d7945b1baad48e845df3ce,,,,,,,,,,,,,,,,,,,,,,,,,,,,,,,,,,,,,,,,,,,,,,,,,,,,,,,,229.751,288.268,0,0,0,4,1,imgs/giraffe.png,imgs/horse.png,imgs/squirrel.png,imgs/bear.png,imgs/rabbit.png,,,,,,,,,,,,,,,,,,,,,,,,
,,5e15bb77e78021b9d45d8cf4,66daf59e805b033eede348a5,2024-09-06_14h29.35.591,mdp,2024.2.1,Win32,60.16847172,66d7945b1baad48e845df3ce,,,,,,,,,,,,,,2,seqs/st2seq4.csv,288.272,290.284,space,1.483,,290.289,290.289,290.289,291.683,0,0,left,0.867,,291.684,293.865,1,1,right,293.867,293.868,,1,,0,293.868,293.868,293.869,295.364,0,0,0,0,1,0.4,0.6,0.6,0.4,,,,,,,,,,,,,,,1.647,,0.2,0.8,0.2,0.8,0.8,0.2,0.4,0.6,1,0,,,,,,,,,,,,
,,5e15bb77e78021b9d45d8cf4,66daf59e805b033eede348a5,2024-09-06_14h29.35.591,mdp,2024.2.1,Win32,60.16847172,66d7945b1baad48e845df3ce,,,,,,,,,,,,,,,,,,,,,295.364,295.364,295.366,296.281,0,1,left,0.388,,296.282,297.146,0,0,left,297.147,297.148,,0,,1,297.148,297.148,297.15,298.647,0,1,1,1,1,0.4,0.6,0.6,0.4,,,,,,,,,,,,,,,0.329,,0.2,0.8,0.2,0.8,0.8,0.2,0.4,0.6,1,0,,,,,,,,,,,,
,,5e15bb77e78021b9d45d8cf4,66daf59e805b033eede348a5,2024-09-06_14h29.35.591,mdp,2024.2.1,Win32,60.16847172,66d7945b1baad48e845df3ce,,,,,,,,,,,,,,,,,,,,,298.649,298.649,298.652,299.512,0,1,left,0.341,,299.515,300.727,0,1,left,300.728,300.729,,1,,0,300.729,300.729,300.73,302.227,0,2,2,2,1,0.4,0.6,0.6,0.4,,,,,,,,,,,,,,,0.709,,0.2,0.8,0.2,0.8,0.8,0.2,0.4,0.6,1,0,,,,,,,,,,,,
,,5e15bb77e78021b9d45d8cf4,66daf59e805b033eede348a5,2024-09-06_14h29.35.591,mdp,2024.2.1,Win32,60.16847172,66d7945b1baad48e845df3ce,,,,,,,,,,,,,,,,,,,,,302.227,302.227,302.228,303.493,1,1,right,0.756,,303.494,304.41,0,0,left,304.41,304.412,,0,,1,304.412,304.412,304.412,305.908,0,3,3,3,1,0.4,0.6,0.6,0.4,,,,,,,,,,,,,,,0.4,,0.2,0.8,0.2,0.8,0.8,0.2,0.4,0.6,1,0,,,,,,,,,,,,
,,5e15bb77e78021b9d45d8cf4,66daf59e805b033eede348a5,2024-09-06_14h29.35.591,mdp,2024.2.1,Win32,60.16847172,66d7945b1baad48e845df3ce,,,,,,,,,,,,,,,,,,,,,305.908,305.908,305.91,306.907,1,0,right,0.488,,306.909,308.49,0,0,left,308.491,308.492,,1,,1,308.493,308.493,308.493,309.989,0,4,4,4,1,0.4,0.6,0.6,0.4,,,,,,,,,,,,,,,1.066,,0.6,0.4,0.6,0.4,0.8,0.2,0.4,0.6,1,0,,,,,,,,,,,,
,,5e15bb77e78021b9d45d8cf4,66daf59e805b033eede348a5,2024-09-06_14h29.35.591,mdp,2024.2.1,Win32,60.16847172,66d7945b1baad48e845df3ce,,,,,,,,,,,,,,,,,,,,,309.99,309.99,309.991,311.255,1,0,right,0.733,,311.255,312.438,0,1,left,312.439,312.44,,1,,0,312.44,312.44,312.44,313.937,0,5,5,5,1,0.4,0.6,0.6,0.4,,,,,,,,,,,,,,,0.673,,0.2,0.8,0.2,0.8,0.8,0.2,0.4,0.6,1,0,,,,,,,,,,,,
,,5e15bb77e78021b9d45d8cf4,66daf59e805b033eede348a5,2024-09-06_14h29.35.591,mdp,2024.2.1,Win32,60.16847172,66d7945b1baad48e845df3ce,,,,,,,,,,,,,,,,,,,,,313.937,313.937,313.939,315.12,0,1,left,0.659,,315.12,316.469,0,0,left,316.47,316.47,,1,,1,316.471,316.471,316.471,317.968,0,6,6,6,1,0.4,0.6,0.6,0.4,,,,,,,,,,,,,,,0.822,,0.2,0.8,0.2,0.8,0.8,0.2,0.4,0.6,1,0,,,,,,,,,,,,
,,5e15bb77e78021b9d45d8cf4,66daf59e805b033eede348a5,2024-09-06_14h29.35.591,mdp,2024.2.1,Win32,60.16847172,66d7945b1baad48e845df3ce,,,,,,,,,,,,,,,,,,,,,317.969,317.969,317.969,319.234,0,0,left,0.737,,319.235,320.45,1,1,right,320.451,320.452,,0,,0,320.452,320.452,320.453,321.95,0,7,7,7,1,0.4,0.6,0.6,0.4,,,,,,,,,,,,,,,0.709,,0.2,0.8,0.2,0.8,0.8,0.2,0.4,0.6,1,0,,,,,,,,,,,,
,,5e15bb77e78021b9d45d8cf4,66daf59e805b033eede348a5,2024-09-06_14h29.35.591,mdp,2024.2.1,Win32,60.16847172,66d7945b1baad48e845df3ce,,,,,,,,,,,,,,,,,,,,,321.95,321.95,321.952,322.932,0,0,left,0.453,,322.933,323.965,0,0,left,323.966,323.967,,1,,1,323.967,323.967,323.968,325.464,0,8,8,8,1,0.4,0.6,0.6,0.4,,,,,,,,,,,,,,,0.526,,0.2,0.8,0.2,0.8,0.8,0.2,0.4,0.6,1,0,,,,,,,,,,,,
,,5e15bb77e78021b9d45d8cf4,66daf59e805b033eede348a5,2024-09-06_14h29.35.591,mdp,2024.2.1,Win32,60.16847172,66d7945b1baad48e845df3ce,,,,,,,,,,,,,,,,,,,,,325.465,325.465,325.466,326.48,0,0,left,0.483,,326.481,327.563,0,1,left,327.564,327.565,,1,,0,327.565,327.565,327.565,329.062,0,9,9,9,1,0.4,0.6,0.6,0.4,,,,,,,,,,,,,,,0.571,,0.2,0.8,0.2,0.8,0.8,0.2,0.4,0.6,1,0,,,,,,,,,,,,
,,5e15bb77e78021b9d45d8cf4,66daf59e805b033eede348a5,2024-09-06_14h29.35.591,mdp,2024.2.1,Win32,60.16847172,66d7945b1baad48e845df3ce,,,,,,,,,,,,,,,,,,,,,329.062,329.062,329.064,330.145,0,1,left,0.557,,330.145,331.478,0,1,left,331.479,331.479,,1,,0,331.479,331.48,331.48,332.977,0,10,10,10,1,0.4,0.6,0.6,0.4,,,,,,,,,,,,,,,0.801,,0.2,0.8,0.2,0.8,0.6,0.4,0.2,0.8,1,0,,,,,,,,,,,,
,,5e15bb77e78021b9d45d8cf4,66daf59e805b033eede348a5,2024-09-06_14h29.35.591,mdp,2024.2.1,Win32,60.16847172,66d7945b1baad48e845df3ce,,,,,,,,,,,,,,,,,,,,,332.978,332.978,332.982,333.977,1,0,right,0.472,,333.977,335.176,1,1,right,335.176,335.178,,0,,0,335.178,335.178,335.178,336.674,0,11,11,11,1,0.4,0.6,0.6,0.4,,,,,,,,,,,,,,,0.669,,0.2,0.8,0.2,0.8,0.6,0.4,0.2,0.8,1,0,,,,,,,,,,,,
,,5e15bb77e78021b9d45d8cf4,66daf59e805b033eede348a5,2024-09-06_14h29.35.591,mdp,2024.2.1,Win32,60.16847172,66d7945b1baad48e845df3ce,,,,,,,,,,,,,,,,,,,,,336.675,336.675,336.677,337.724,1,0,right,0.524,,337.725,338.806,0,1,left,338.808,338.809,,1,,0,338.809,338.809,338.81,340.306,0,12,12,12,1,0.4,0.6,0.6,0.4,,,,,,,,,,,,,,,0.576,,0.2,0.8,0.2,0.8,0.6,0.4,0.2,0.8,1,0,,,,,,,,,,,,
,,5e15bb77e78021b9d45d8cf4,66daf59e805b033eede348a5,2024-09-06_14h29.35.591,mdp,2024.2.1,Win32,60.16847172,66d7945b1baad48e845df3ce,,,,,,,,,,,,,,,,,,,,,340.306,340.306,340.307,341.289,0,1,left,0.474,,341.289,342.821,1,1,right,342.822,342.823,,1,,0,342.824,342.824,342.824,344.32,0,13,13,13,1,0.4,0.6,0.6,0.4,,,,,,,,,,,,,,,1.003,,0.2,0.8,0.2,0.8,0.6,0.4,0.2,0.8,1,0,,,,,,,,,,,,
,,5e15bb77e78021b9d45d8cf4,66daf59e805b033eede348a5,2024-09-06_14h29.35.591,mdp,2024.2.1,Win32,60.16847172,66d7945b1baad48e845df3ce,,,,,,,,,,,,,,,,,,,,,344.32,344.32,344.321,345.253,0,0,left,0.417,,345.254,346.318,0,0,left,346.32,346.321,,1,,1,346.321,346.321,346.322,347.819,0,14,14,14,1,0.4,0.6,0.6,0.4,,,,,,,,,,,,,,,0.547,,0.2,0.8,0.2,0.8,0.6,0.4,0.2,0.8,1,0,,,,,,,,,,,,
,,5e15bb77e78021b9d45d8cf4,66daf59e805b033eede348a5,2024-09-06_14h29.35.591,mdp,2024.2.1,Win32,60.16847172,66d7945b1baad48e845df3ce,,,,,,,,,,,,,,,,,,,,,347.819,347.819,347.819,348.634,0,0,left,0.286,,348.636,349.701,0,0,left,349.702,349.703,,1,,1,349.703,349.703,349.704,351.2,0,15,15,15,1,0.4,0.6,0.6,0.4,,,,,,,,,,,,,,,0.554,,0.2,0.8,0.2,0.8,0.6,0.4,0.2,0.8,1,0,,,,,,,,,,,,
,,5e15bb77e78021b9d45d8cf4,66daf59e805b033eede348a5,2024-09-06_14h29.35.591,mdp,2024.2.1,Win32,60.16847172,66d7945b1baad48e845df3ce,,,,,,,,,,,,,,,,,,,,,351.201,351.201,351.201,352.049,0,0,left,0.317,,352.05,353.065,0,1,left,353.066,353.067,,1,,0,353.067,353.067,353.069,354.565,0,16,16,16,1,0.4,0.6,0.6,0.4,,,,,,,,,,,,,,,0.5,,0.2,0.8,0.2,0.8,0.8,0.2,0.4,0.6,1,0,,,,,,,,,,,,
,,5e15bb77e78021b9d45d8cf4,66daf59e805b033eede348a5,2024-09-06_14h29.35.591,mdp,2024.2.1,Win32,60.16847172,66d7945b1baad48e845df3ce,,,,,,,,,,,,,,,,,,,,,354.565,354.565,354.565,355.414,0,1,left,0.316,,355.415,356.714,0,0,left,356.714,356.716,,0,,1,356.716,356.716,356.716,358.213,0,17,17,17,1,0.4,0.6,0.6,0.4,,,,,,,,,,,,,,,0.781,,0.2,0.8,0.2,0.8,0.8,0.2,0.4,0.6,1,0,,,,,,,,,,,,
,,5e15bb77e78021b9d45d8cf4,66daf59e805b033eede348a5,2024-09-06_14h29.35.591,mdp,2024.2.1,Win32,60.16847172,66d7945b1baad48e845df3ce,,,,,,,,,,,,,,,,,,,,,358.214,358.214,358.215,359.012,0,1,left,0.265,,359.013,360.145,0,1,left,360.146,360.147,,1,,0,360.147,360.147,360.148,361.644,0,18,18,18,1,0.4,0.6,0.6,0.4,,,,,,,,,,,,,,,0.604,,0.2,0.8,0.2,0.8,0.6,0.4,0.8,0.2,1,0,,,,,,,,,,,,
,,5e15bb77e78021b9d45d8cf4,66daf59e805b033eede348a5,2024-09-06_14h29.35.591,mdp,2024.2.1,Win32,60.16847172,66d7945b1baad48e845df3ce,,,,,,,,,,,,,,,,,,,,,361.645,361.645,361.647,362.477,0,0,left,0.3,,362.478,363.609,1,1,right,363.61,363.611,,1,,0,363.611,363.611,363.612,365.109,0,19,19,19,1,0.4,0.6,0.6,0.4,,,,,,,,,,,,,,,0.607,,0.2,0.8,0.2,0.8,0.6,0.4,0.8,0.2,1,0,,,,,,,,,,,,
,,5e15bb77e78021b9d45d8cf4,66daf59e805b033eede348a5,2024-09-06_14h29.35.591,mdp,2024.2.1,Win32,60.16847172,66d7945b1baad48e845df3ce,,,,,,,,,,,,,,,,,,,,,365.109,365.109,365.111,365.892,0,1,left,0.266,,365.895,366.941,0,1,left,366.941,366.944,,0,,0,366.944,366.944,366.944,368.441,0,20,20,20,1,0.4,0.6,0.6,0.4,,,,,,,,,,,,,,,0.523,,0.2,0.8,0.2,0.8,0.6,0.4,0.8,0.2,1,0,,,,,,,,,,,,
,,5e15bb77e78021b9d45d8cf4,66daf59e805b033eede348a5,2024-09-06_14h29.35.591,mdp,2024.2.1,Win32,60.16847172,66d7945b1baad48e845df3ce,,,,,,,,,,,,,,,,,,,,,368.442,368.442,368.443,369.306,0,0,left,0.332,,369.308,370.389,1,1,right,370.39,370.392,,1,,0,370.392,370.392,370.393,371.889,0,21,21,21,1,0.4,0.6,0.6,0.4,,,,,,,,,,,,,,,0.55,,0.2,0.8,0.2,0.8,0.8,0.2,0.6,0.4,1,0,,,,,,,,,,,,
,,5e15bb77e78021b9d45d8cf4,66daf59e805b033eede348a5,2024-09-06_14h29.35.591,mdp,2024.2.1,Win32,60.16847172,66d7945b1baad48e845df3ce,,,,,,,,,,,,,,,,,,,,,371.889,371.889,371.89,372.688,0,1,left,0.269,,372.689,373.887,0,0,left,373.889,373.89,,0,,1,373.89,373.89,373.891,375.387,0,22,22,22,1,0.4,0.6,0.6,0.4,,,,,,,,,,,,,,,0.681,,0.2,0.8,0.2,0.8,0.8,0.2,0.6,0.4,1,0,,,,,,,,,,,,
,,5e15bb77e78021b9d45d8cf4,66daf59e805b033eede348a5,2024-09-06_14h29.35.591,mdp,2024.2.1,Win32,60.16847172,66d7945b1baad48e845df3ce,,,,,,,,,,,,,,,,,,,,,375.387,375.387,375.388,376.236,0,0,left,0.318,,376.237,377.368,1,0,right,377.37,377.371,,1,,1,377.371,377.371,377.371,378.868,0,23,23,23,1,0.4,0.6,0.6,0.4,,,,,,,,,,,,,,,0.623,,0.2,0.8,0.2,0.8,0.8,0.2,0.6,0.4,1,0,,,,,,,,,,,,
,,5e15bb77e78021b9d45d8cf4,66daf59e805b033eede348a5,2024-09-06_14h29.35.591,mdp,2024.2.1,Win32,60.16847172,66d7945b1baad48e845df3ce,,,,,,,,,,,,,,,,,,,,,378.869,378.869,378.87,379.884,0,1,left,0.482,,379.885,380.999,1,0,right,381.001,381.002,,1,,1,381.002,381.002,381.003,382.5,0,24,24,24,1,0.4,0.6,0.6,0.4,,,,,,,,,,,,,,,0.578,,0.2,0.8,0.2,0.8,0.8,0.2,0.6,0.4,1,0,,,,,,,,,,,,
,,5e15bb77e78021b9d45d8cf4,66daf59e805b033eede348a5,2024-09-06_14h29.35.591,mdp,2024.2.1,Win32,60.16847172,66d7945b1baad48e845df3ce,,,,,,,,,,,,,,,,,,,,,382.5,382.5,382.501,383.398,0,1,left,0.367,,383.399,384.481,1,1,right,384.482,384.483,,0,,0,384.483,384.483,384.484,385.981,0,25,25,25,1,0.4,0.6,0.6,0.4,,,,,,,,,,,,,,,0.573,,0.2,0.8,0.2,0.8,0.8,0.2,0.6,0.4,1,0,,,,,,,,,,,,
,,5e15bb77e78021b9d45d8cf4,66daf59e805b033eede348a5,2024-09-06_14h29.35.591,mdp,2024.2.1,Win32,60.16847172,66d7945b1baad48e845df3ce,,,,,,,,,,,,,,,,,,,,,385.982,385.982,385.983,387.18,0,0,left,0.666,,387.18,388.163,0,1,left,388.163,388.164,,0,,0,388.164,388.164,388.165,389.662,0,26,26,26,1,0.4,0.6,0.6,0.4,,,,,,,,,,,,,,,0.471,,0.2,0.8,0.2,0.8,0.8,0.2,0.6,0.4,1,0,,,,,,,,,,,,
,,5e15bb77e78021b9d45d8cf4,66daf59e805b033eede348a5,2024-09-06_14h29.35.591,mdp,2024.2.1,Win32,60.16847172,66d7945b1baad48e845df3ce,,,,,,,,,,,,,,,,,,,,,389.662,389.662,389.663,390.545,0,0,left,0.35,,390.547,391.561,1,1,right,391.562,391.563,,1,,0,391.563,391.563,391.564,393.06,0,27,27,27,1,0.8,0.2,0.4,0.6,,,,,,,,,,,,,,,0.482,,0.2,0.8,0.2,0.8,0.8,0.2,0.6,0.4,1,0,,,,,,,,,,,,
,,5e15bb77e78021b9d45d8cf4,66daf59e805b033eede348a5,2024-09-06_14h29.35.591,mdp,2024.2.1,Win32,60.16847172,66d7945b1baad48e845df3ce,,,,,,,,,,,,,,,,,,,,,393.06,393.06,393.061,394.127,0,0,left,0.543,,394.127,395.142,1,1,right,395.143,395.144,,0,,0,395.144,395.144,395.145,396.642,0,28,28,28,1,0.8,0.2,0.4,0.6,,,,,,,,,,,,,,,0.491,,0.2,0.8,0.2,0.8,0.8,0.2,0.6,0.4,1,0,,,,,,,,,,,,
,,5e15bb77e78021b9d45d8cf4,66daf59e805b033eede348a5,2024-09-06_14h29.35.591,mdp,2024.2.1,Win32,60.16847172,66d7945b1baad48e845df3ce,,,,,,,,,,,,,,,,,,,,,396.642,396.642,396.643,398.041,0,1,left,0.866,,398.041,399.057,0,1,left,399.06,399.062,,0,,0,399.062,399.062,399.063,400.556,0,29,29,29,1,0.8,0.2,0.4,0.6,,,,,,,,,,,,,,,0.479,,0.2,0.8,0.2,0.8,0.8,0.2,0.6,0.4,1,0,,,,,,,,,,,,
,,5e15bb77e78021b9d45d8cf4,66daf59e805b033eede348a5,2024-09-06_14h29.35.591,mdp,2024.2.1,Win32,60.16847172,66d7945b1baad48e845df3ce,,,,,,,,,,,,,,,,,,,,,400.557,400.557,400.558,401.822,0,0,left,0.738,,401.823,403.254,1,1,right,403.256,403.258,,1,,0,403.258,403.258,403.258,404.753,0,30,30,30,1,0.8,0.2,0.4,0.6,,,,,,,,,,,,,,,0.898,,0.2,0.8,0.2,0.8,0.8,0.2,0.6,0.4,1,0,,,,,,,,,,,,
,,5e15bb77e78021b9d45d8cf4,66daf59e805b033eede348a5,2024-09-06_14h29.35.591,mdp,2024.2.1,Win32,60.16847172,66d7945b1baad48e845df3ce,,,,,,,,,,,,,,,,,,,,,404.753,404.753,404.755,405.37,0,0,left,0.1,,405.371,406.27,0,1,left,406.27,406.272,,1,,0,406.272,406.272,406.273,407.769,0,31,31,31,1,0.8,0.2,0.4,0.6,,,,,,,,,,,,,,,0.392,,0.2,0.8,0.2,0.8,0.8,0.2,0.6,0.4,1,0,,,,,,,,,,,,
,,5e15bb77e78021b9d45d8cf4,66daf59e805b033eede348a5,2024-09-06_14h29.35.591,mdp,2024.2.1,Win32,60.16847172,66d7945b1baad48e845df3ce,,,,,,,,,,,,,,,,,,,,,407.769,407.769,407.771,408.568,0,1,left,0.274,,408.569,409.467,1,0,right,409.468,409.47,,0,,1,409.47,409.47,409.47,410.967,0,32,32,32,1,0.8,0.2,0.4,0.6,,,,,,,,,,,,,,,0.364,,0.2,0.8,0.2,0.8,0.8,0.2,0.6,0.4,1,0,,,,,,,,,,,,
,,5e15bb77e78021b9d45d8cf4,66daf59e805b033eede348a5,2024-09-06_14h29.35.591,mdp,2024.2.1,Win32,60.16847172,66d7945b1baad48e845df3ce,,,,,,,,,,,,,,,,,,,,,410.968,410.968,410.969,411.833,0,0,left,0.335,,411.834,412.766,1,1,right,412.766,412.768,,0,,0,412.768,412.768,412.769,414.265,0,33,33,33,1,0.8,0.2,0.4,0.6,,,,,,,,,,,,,,,0.408,,0.2,0.8,0.2,0.8,0.8,0.2,0.6,0.4,1,0,,,,,,,,,,,,
,,5e15bb77e78021b9d45d8cf4,66daf59e805b033eede348a5,2024-09-06_14h29.35.591,mdp,2024.2.1,Win32,60.16847172,66d7945b1baad48e845df3ce,,,,,,,,,,,,,,,,,,,,,414.265,414.265,414.266,415.114,0,0,left,0.322,,415.115,415.947,1,1,right,415.948,415.95,,1,,0,415.95,415.95,415.95,417.446,0,34,34,34,1,0.8,0.2,0.4,0.6,,,,,,,,,,,,,,,0.322,,0.2,0.8,0.2,0.8,0.8,0.2,0.6,0.4,1,0,,,,,,,,,,,,
,,5e15bb77e78021b9d45d8cf4,66daf59e805b033eede348a5,2024-09-06_14h29.35.591,mdp,2024.2.1,Win32,60.16847172,66d7945b1baad48e845df3ce,,,,,,,,,,,,,,,,,,,,,417.447,417.447,417.448,418.279,1,1,right,0.3,,418.28,419.345,0,0,left,419.347,419.349,,0,,1,419.349,419.349,419.351,420.844,0,35,35,35,1,0.8,0.2,0.4,0.6,,,,,,,,,,,,,,,0.548,,0.2,0.8,0.2,0.8,0.8,0.2,0.6,0.4,1,0,,,,,,,,,,,,
,,5e15bb77e78021b9d45d8cf4,66daf59e805b033eede348a5,2024-09-06_14h29.35.591,mdp,2024.2.1,Win32,60.16847172,66d7945b1baad48e845df3ce,,,,,,,,,,,,,,,,,,,,,420.846,420.846,420.846,421.744,1,0,right,0.372,,421.745,422.776,1,1,right,422.777,422.778,,1,,0,422.778,422.778,422.78,424.276,0,36,36,36,1,0.8,0.2,0.4,0.6,,,,,,,,,,,,,,,0.504,,0.2,0.8,0.2,0.8,0.8,0.2,0.6,0.4,1,0,,,,,,,,,,,,
,,5e15bb77e78021b9d45d8cf4,66daf59e805b033eede348a5,2024-09-06_14h29.35.591,mdp,2024.2.1,Win32,60.16847172,66d7945b1baad48e845df3ce,,,,,,,,,,,,,,,,,,,,,424.277,424.277,424.277,425.109,1,0,right,0.299,,425.11,426.508,0,1,left,426.509,426.51,,0,,0,426.51,426.51,426.511,428.007,0,37,37,37,1,0.8,0.2,0.4,0.6,,,,,,,,,,,,,,,0.866,,0.2,0.8,0.2,0.8,0.8,0.2,0.6,0.4,1,0,,,,,,,,,,,,
,,5e15bb77e78021b9d45d8cf4,66daf59e805b033eede348a5,2024-09-06_14h29.35.591,mdp,2024.2.1,Win32,60.16847172,66d7945b1baad48e845df3ce,,,,,,,,,,,,,,,,,,,,,428.007,428.007,428.008,428.824,1,1,right,0.308,,428.825,430.023,0,0,left,430.023,430.024,,0,,1,430.024,430.024,430.026,431.522,0,38,38,38,1,0.8,0.2,0.4,0.6,,,,,,,,,,,,,,,0.682,,0.2,0.8,0.2,0.8,0.8,0.2,0.6,0.4,1,0,,,,,,,,,,,,
,,5e15bb77e78021b9d45d8cf4,66daf59e805b033eede348a5,2024-09-06_14h29.35.591,mdp,2024.2.1,Win32,60.16847172,66d7945b1baad48e845df3ce,,,,,,,,,,,,,,,,,,,,,431.522,431.522,431.523,432.438,1,1,right,0.399,,432.442,433.454,0,0,left,433.456,433.457,,0,,1,433.457,433.457,433.457,434.953,0,39,39,39,1,0.8,0.2,0.4,0.6,,,,,,,,,,,,,,,0.493,,0.2,0.8,0.2,0.8,0.8,0.2,0.6,0.4,1,0,,,,,,,,,,,,
,,5e15bb77e78021b9d45d8cf4,66daf59e805b033eede348a5,2024-09-06_14h29.35.591,mdp,2024.2.1,Win32,60.16847172,66d7945b1baad48e845df3ce,,,,,,,,,,,,,,,,,,,,,434.955,434.955,434.956,435.837,1,1,right,0.352,,435.838,436.803,0,1,left,436.804,436.805,,0,,0,436.806,436.806,436.807,438.302,0,40,40,40,1,0.8,0.2,0.4,0.6,,,,,,,,,,,,,,,0.434,,0.2,0.8,0.2,0.8,0.8,0.2,0.6,0.4,1,0,,,,,,,,,,,,
,,5e15bb77e78021b9d45d8cf4,66daf59e805b033eede348a5,2024-09-06_14h29.35.591,mdp,2024.2.1,Win32,60.16847172,66d7945b1baad48e845df3ce,,,,,,,,,,,,,,,,,,,,,438.302,438.302,438.303,439.152,1,0,right,0.319,,439.152,440.417,1,0,right,440.419,440.423,,1,,1,440.423,440.423,440.424,441.916,0,41,41,41,1,0.2,0.8,0.8,0.2,,,,,,,,,,,,,,,0.738,,0.2,0.8,0.2,0.8,0.8,0.2,0.6,0.4,1,0,,,,,,,,,,,,
,,5e15bb77e78021b9d45d8cf4,66daf59e805b033eede348a5,2024-09-06_14h29.35.591,mdp,2024.2.1,Win32,60.16847172,66d7945b1baad48e845df3ce,,,,,,,,,,,,,,,,,,,,,441.917,441.917,441.918,442.865,1,0,right,0.427,,442.866,443.831,1,1,right,443.833,443.833,,0,,0,443.833,443.833,443.834,445.332,0,42,42,42,1,0.2,0.8,0.8,0.2,,,,,,,,,,,,,,,0.456,,0.6,0.4,0.4,0.6,0.8,0.2,0.6,0.4,1,0,,,,,,,,,,,,
,,5e15bb77e78021b9d45d8cf4,66daf59e805b033eede348a5,2024-09-06_14h29.35.591,mdp,2024.2.1,Win32,60.16847172,66d7945b1baad48e845df3ce,,,,,,,,,,,,,,,,,,,,,445.332,445.332,445.333,446.18,1,0,right,0.326,,446.181,447.23,0,1,left,447.23,447.232,,1,,0,447.232,447.232,447.233,448.729,0,43,43,43,1,0.2,0.8,0.8,0.2,,,,,,,,,,,,,,,0.516,,0.6,0.4,0.4,0.6,0.8,0.2,0.6,0.4,1,0,,,,,,,,,,,,
,,5e15bb77e78021b9d45d8cf4,66daf59e805b033eede348a5,2024-09-06_14h29.35.591,mdp,2024.2.1,Win32,60.16847172,66d7945b1baad48e845df3ce,,,,,,,,,,,,,,,,,,,,,448.729,448.729,448.73,449.429,1,0,right,0.182,,449.43,450.512,1,1,right,450.512,450.513,,1,,0,450.513,450.513,450.515,452.011,0,44,44,44,1,0.2,0.8,0.8,0.2,,,,,,,,,,,,,,,0.567,,0.6,0.4,0.4,0.6,0.8,0.2,0.6,0.4,1,0,,,,,,,,,,,,
,,5e15bb77e78021b9d45d8cf4,66daf59e805b033eede348a5,2024-09-06_14h29.35.591,mdp,2024.2.1,Win32,60.16847172,66d7945b1baad48e845df3ce,,,,,,,,,,,,,,,,,,,,,452.012,452.012,452.013,452.81,1,1,right,0.267,,452.811,453.993,0,0,left,453.994,453.996,,1,,1,453.996,453.996,453.998,455.492,0,45,45,45,1,0.2,0.8,0.8,0.2,,,,,,,,,,,,,,,0.673,,0.6,0.4,0.4,0.6,0.8,0.2,0.6,0.4,1,0,,,,,,,,,,,,
,,5e15bb77e78021b9d45d8cf4,66daf59e805b033eede348a5,2024-09-06_14h29.35.591,mdp,2024.2.1,Win32,60.16847172,66d7945b1baad48e845df3ce,,,,,,,,,,,,,,,,,,,,,455.492,455.492,455.493,456.675,1,1,right,0.666,,456.676,457.708,0,0,left,457.709,457.71,,0,,1,457.71,457.71,457.711,459.207,0,46,46,46,1,0.2,0.8,0.8,0.2,,,,,,,,,,,,,,,0.5,,0.2,0.8,0.2,0.8,0.8,0.2,0.6,0.4,1,0,,,,,,,,,,,,
,,5e15bb77e78021b9d45d8cf4,66daf59e805b033eede348a5,2024-09-06_14h29.35.591,mdp,2024.2.1,Win32,60.16847172,66d7945b1baad48e845df3ce,,,,,,,,,,,,,,,,,,,,,459.208,459.208,459.209,460.074,1,0,right,0.339,,460.076,460.956,0,1,left,460.957,460.959,,1,,0,460.959,460.959,460.96,462.455,0,47,47,47,1,0.2,0.8,0.8,0.2,,,,,,,,,,,,,,,0.353,,0.2,0.8,0.2,0.8,0.8,0.2,0.6,0.4,1,0,,,,,,,,,,,,
,,5e15bb77e78021b9d45d8cf4,66daf59e805b033eede348a5,2024-09-06_14h29.35.591,mdp,2024.2.1,Win32,60.16847172,66d7945b1baad48e845df3ce,,,,,,,,,,,,,,,,,,,,,462.455,462.455,462.456,463.305,0,0,left,0.325,,463.306,464.303,1,0,right,464.304,464.305,,1,,1,464.305,464.305,464.306,465.803,0,48,48,48,1,0.6,0.4,0.4,0.6,,,,,,,,,,,,,,,0.47,,0.2,0.8,0.2,0.8,0.8,0.2,0.6,0.4,1,0,,,,,,,,,,,,
,,5e15bb77e78021b9d45d8cf4,66daf59e805b033eede348a5,2024-09-06_14h29.35.591,mdp,2024.2.1,Win32,60.16847172,66d7945b1baad48e845df3ce,,,,,,,,,,,,,,,,,,,,,465.805,465.805,465.808,466.702,0,0,left,0.367,,466.703,467.502,0,1,left,467.503,467.504,,0,,0,467.504,467.504,467.505,469.002,0,49,49,49,1,0.6,0.4,0.4,0.6,,,,,,,,,,,,,,,0.288,,0.2,0.8,0.2,0.8,0.8,0.2,0.6,0.4,1,0,,,,,,,,,,,,
,,5e15bb77e78021b9d45d8cf4,66daf59e805b033eede348a5,2024-09-06_14h29.35.591,mdp,2024.2.1,Win32,60.16847172,66d7945b1baad48e845df3ce,,,,,,,,,,,,,,,,,,,,,,,,,,,,,,,,,,,,,,,,,,,,,,,,,,,,,,,,469.002,527.519,0,1,1,7,1,imgs/cat.png,imgs/giraffe.png,imgs/lion.png,imgs/rabbit.png,imgs/kangaroo.png,,,,,,,,,,,,,,,,,,,,,,,,
,,5e15bb77e78021b9d45d8cf4,66daf59e805b033eede348a5,2024-09-06_14h29.35.591,mdp,2024.2.1,Win32,60.16847172,66d7945b1baad48e845df3ce,,,,,,,,,,,,,,3,seqs/st3seq16.csv,527.524,548.807,space,20.758,,548.813,548.813,548.815,550.323,0,0,left,0.979,,550.324,551.439,0,0,left,551.44,552.371,0,0,left,1,552.371,552.371,552.373,553.871,0,0,0,0,1,0.4,0.6,0.6,0.4,,,,,,,,,,,,,,,0.58,,0.8,0.2,0.2,0.8,0.2,0.8,0.8,0.2,,,0.397,,0.4,0.6,0.8,0.2,0.8,0.2,0.6,0.4,1,0
,,5e15bb77e78021b9d45d8cf4,66daf59e805b033eede348a5,2024-09-06_14h29.35.591,mdp,2024.2.1,Win32,60.16847172,66d7945b1baad48e845df3ce,,,,,,,,,,,,,,,,,,,,,553.872,553.872,553.874,555.02,0,1,left,0.623,,555.021,556.036,0,1,left,556.037,556.869,0,0,left,1,556.869,556.869,556.871,558.368,0,1,1,1,1,0.4,0.6,0.6,0.4,,,,,,,,,,,,,,,0.503,,0.8,0.2,0.2,0.8,0.2,0.8,0.8,0.2,,,0.306,,0.4,0.6,0.8,0.2,0.8,0.2,0.6,0.4,1,0
,,5e15bb77e78021b9d45d8cf4,66daf59e805b033eede348a5,2024-09-06_14h29.35.591,mdp,2024.2.1,Win32,60.16847172,66d7945b1baad48e845df3ce,,,,,,,,,,,,,,,,,,,,,558.369,558.369,558.369,559.268,0,0,left,0.377,,559.268,560.168,0,0,left,560.169,560.967,0,1,left,0,560.968,560.968,560.968,562.466,0,2,2,2,1,0.4,0.6,0.6,0.4,,,,,,,,,,,,,,,0.364,,0.8,0.2,0.2,0.8,0.2,0.8,0.8,0.2,,,0.265,,0.4,0.6,0.8,0.2,0.8,0.2,0.6,0.4,1,0
,,5e15bb77e78021b9d45d8cf4,66daf59e805b033eede348a5,2024-09-06_14h29.35.591,mdp,2024.2.1,Win32,60.16847172,66d7945b1baad48e845df3ce,,,,,,,,,,,,,,,,,,,,,562.466,562.466,562.467,563.3,0,1,left,0.316,,563.3,564.365,0,1,left,564.366,565.315,0,0,left,1,565.315,565.315,565.316,566.814,0,3,3,3,1,0.4,0.6,0.6,0.4,,,,,,,,,,,,,,,0.533,,0.8,0.2,0.2,0.8,0.2,0.8,0.8,0.2,,,0.434,,0.4,0.6,0.8,0.2,0.8,0.2,0.6,0.4,1,0
,,5e15bb77e78021b9d45d8cf4,66daf59e805b033eede348a5,2024-09-06_14h29.35.591,mdp,2024.2.1,Win32,60.16847172,66d7945b1baad48e845df3ce,,,,,,,,,,,,,,,,,,,,,566.816,566.816,566.818,567.697,0,0,left,0.35,,567.698,569.013,1,1,right,569.014,570.395,1,0,right,1,570.395,570.396,570.397,571.894,0,4,4,4,1,0.4,0.6,0.6,0.4,,,,,,,,,,,,,,,0.786,,0.8,0.2,0.2,0.8,0.2,0.8,0.8,0.2,,,0.85,,0.4,0.6,0.8,0.2,0.8,0.2,0.6,0.4,1,0
,,5e15bb77e78021b9d45d8cf4,66daf59e805b033eede348a5,2024-09-06_14h29.35.591,mdp,2024.2.1,Win32,60.16847172,66d7945b1baad48e845df3ce,,,,,,,,,,,,,,,,,,,,,571.895,571.895,571.896,572.843,0,1,left,0.416,,572.845,573.977,0,1,left,573.978,575.009,0,0,left,1,575.01,575.01,575.01,576.509,0,5,5,5,1,0.4,0.6,0.6,0.4,,,,,,,,,,,,,,,0.619,,0.8,0.2,0.2,0.8,0.2,0.8,0.8,0.2,,,0.508,,0.4,0.6,0.8,0.2,0.8,0.2,0.6,0.4,1,0
,,5e15bb77e78021b9d45d8cf4,66daf59e805b033eede348a5,2024-09-06_14h29.35.591,mdp,2024.2.1,Win32,60.16847172,66d7945b1baad48e845df3ce,,,,,,,,,,,,,,,,,,,,,576.509,576.509,576.509,577.425,0,1,left,0.384,,577.426,578.691,0,0,left,578.692,580.007,1,0,right,1,580.007,580.007,580.007,581.506,0,6,6,6,1,0.4,0.6,0.6,0.4,,,,,,,,,,,,,,,0.732,,0.8,0.2,0.2,0.8,0.2,0.8,0.8,0.2,,,0.789,,0.4,0.6,0.8,0.2,0.8,0.2,0.6,0.4,1,0
,,5e15bb77e78021b9d45d8cf4,66daf59e805b033eede348a5,2024-09-06_14h29.35.591,mdp,2024.2.1,Win32,60.16847172,66d7945b1baad48e845df3ce,,,,,,,,,,,,,,,,,,,,,581.506,581.506,581.507,582.389,0,0,left,0.349,,582.389,583.838,0,0,left,583.839,585.104,1,1,right,0,585.104,585.104,585.104,586.603,0,7,7,7,1,0.4,0.6,0.6,0.4,,,,,,,,,,,,,,,0.934,,0.8,0.2,0.2,0.8,0.2,0.8,0.8,0.2,,,0.738,,0.4,0.6,0.8,0.2,0.8,0.2,0.6,0.4,1,0
,,5e15bb77e78021b9d45d8cf4,66daf59e805b033eede348a5,2024-09-06_14h29.35.591,mdp,2024.2.1,Win32,60.16847172,66d7945b1baad48e845df3ce,,,,,,,,,,,,,,,,,,,,,586.603,586.603,586.604,587.486,0,1,left,0.367,,587.486,588.884,1,1,right,588.885,589.834,0,0,left,1,589.834,589.835,589.835,591.334,0,8,8,8,1,0.4,0.6,0.6,0.4,,,,,,,,,,,,,,,0.867,,0.8,0.2,0.2,0.8,0.2,0.8,0.8,0.2,,,0.442,,0.4,0.6,0.8,0.2,0.8,0.2,0.6,0.4,1,0
,,5e15bb77e78021b9d45d8cf4,66daf59e805b033eede348a5,2024-09-06_14h29.35.591,mdp,2024.2.1,Win32,60.16847172,66d7945b1baad48e845df3ce,,,,,,,,,,,,,,,,,,,,,591.334,591.334,591.335,592.35,0,1,left,0.485,,592.351,593.466,1,1,right,593.467,594.532,0,1,left,0,594.532,594.532,594.533,596.03,0,9,9,9,1,0.4,0.6,0.6,0.4,,,,,,,,,,,,,,,0.586,,0.8,0.2,0.2,0.8,0.2,0.8,0.8,0.2,,,0.532,,0.4,0.6,0.8,0.2,0.4,0.6,0.4,0.6,1,0
,,5e15bb77e78021b9d45d8cf4,66daf59e805b033eede348a5,2024-09-06_14h29.35.591,mdp,2024.2.1,Win32,60.16847172,66d7945b1baad48e845df3ce,,,,,,,,,,,,,,,,,,,,,596.032,596.032,596.032,596.663,0,1,left,0.107,,596.665,597.48,1,0,right,597.482,598.229,1,0,right,1,598.23,598.23,598.231,599.729,0,10,10,10,1,0.4,0.6,0.6,0.4,,,,,,,,,,,,,,,0.283,,0.8,0.2,0.2,0.8,0.2,0.8,0.8,0.2,,,0.235,,0.4,0.6,0.8,0.2,0.4,0.6,0.4,0.6,1,0
,,5e15bb77e78021b9d45d8cf4,66daf59e805b033eede348a5,2024-09-06_14h29.35.591,mdp,2024.2.1,Win32,60.16847172,66d7945b1baad48e845df3ce,,,,,,,,,,,,,,,,,,,,,599.731,599.731,599.733,600.662,0,1,left,0.398,,600.663,601.795,1,0,right,601.796,602.861,0,1,left,0,602.861,602.861,602.863,604.36,0,11,11,11,1,0.4,0.6,0.6,0.4,,,,,,,,,,,,,,,0.606,,0.8,0.2,0.2,0.8,0.2,0.8,0.8,0.2,,,0.534,,0.4,0.6,0.8,0.2,0.4,0.6,0.4,0.6,1,0
,,5e15bb77e78021b9d45d8cf4,66daf59e805b033eede348a5,2024-09-06_14h29.35.591,mdp,2024.2.1,Win32,60.16847172,66d7945b1baad48e845df3ce,,,,,,,,,,,,,,,,,,,,,604.36,604.36,604.361,604.942,0,0,left,0.062,,604.944,605.759,1,1,right,605.76,606.625,1,1,right,0,606.625,606.625,606.625,608.125,0,12,12,12,1,0.4,0.6,0.6,0.4,,,,,,,,,,,,,,,0.301,,0.8,0.2,0.2,0.8,0.2,0.8,0.8,0.2,,,0.332,,0.4,0.6,0.8,0.2,0.4,0.6,0.4,0.6,1,0
,,5e15bb77e78021b9d45d8cf4,66daf59e805b033eede348a5,2024-09-06_14h29.35.591,mdp,2024.2.1,Win32,60.16847172,66d7945b1baad48e845df3ce,,,,,,,,,,,,,,,,,,,,,608.127,608.127,608.129,608.89,0,1,left,0.235,,608.892,610.056,1,0,right,610.057,611.039,0,1,left,0,611.039,611.039,611.041,612.538,0,13,13,13,1,0.4,0.6,0.6,0.4,,,,,,,,,,,,,,,0.652,,0.8,0.2,0.2,0.8,0.2,0.8,0.8,0.2,,,0.466,,0.4,0.6,0.8,0.2,0.8,0.2,0.6,0.4,1,0
,,5e15bb77e78021b9d45d8cf4,66daf59e805b033eede348a5,2024-09-06_14h29.35.591,mdp,2024.2.1,Win32,60.16847172,66d7945b1baad48e845df3ce,,,,,,,,,,,,,,,,,,,,,612.54,612.54,612.541,613.521,1,0,right,0.451,,613.522,614.354,0,0,left,614.355,615.154,0,1,left,0,615.154,615.154,615.155,616.653,0,14,14,14,1,0.4,0.6,0.6,0.4,,,,,,,,,,,,,,,0.316,,0.8,0.2,0.2,0.8,0.2,0.8,0.8,0.2,,,0.27,,0.4,0.6,0.8,0.2,0.8,0.2,0.6,0.4,1,0
,,5e15bb77e78021b9d45d8cf4,66daf59e805b033eede348a5,2024-09-06_14h29.35.591,mdp,2024.2.1,Win32,60.16847172,66d7945b1baad48e845df3ce,,,,,,,,,,,,,,,,,,,,,616.653,616.653,616.654,617.452,1,0,right,0.292,,617.453,618.302,1,1,right,618.304,619.068,0,0,left,1,619.068,619.068,619.069,620.567,0,15,15,15,1,0.4,0.6,0.6,0.4,,,,,,,,,,,,,,,0.334,,0.4,0.6,0.4,0.6,0.2,0.8,0.8,0.2,,,0.248,,0.4,0.6,0.8,0.2,0.8,0.2,0.6,0.4,1,0
,,5e15bb77e78021b9d45d8cf4,66daf59e805b033eede348a5,2024-09-06_14h29.35.591,mdp,2024.2.1,Win32,60.16847172,66d7945b1baad48e845df3ce,,,,,,,,,,,,,,,,,,,,,620.567,620.568,620.569,621.4,1,1,right,0.3,,621.401,622.566,0,0,left,622.567,623.416,0,1,left,0,623.416,623.416,623.417,624.915,0,16,16,16,1,0.4,0.6,0.6,0.4,,,,,,,,,,,,,,,0.646,,0.4,0.6,0.4,0.6,0.2,0.8,0.8,0.2,,,0.334,,0.2,0.8,0.6,0.4,0.8,0.2,0.6,0.4,1,0
,,5e15bb77e78021b9d45d8cf4,66daf59e805b033eede348a5,2024-09-06_14h29.35.591,mdp,2024.2.1,Win32,60.16847172,66d7945b1baad48e845df3ce,,,,,,,,,,,,,,,,,,,,,624.916,624.916,624.917,625.715,1,0,right,0.273,,625.716,626.548,1,1,right,626.55,627.33,0,0,left,1,627.33,627.33,627.331,628.829,0,17,17,17,1,0.4,0.6,0.6,0.4,,,,,,,,,,,,,,,0.308,,0.4,0.6,0.4,0.6,0.2,0.8,0.8,0.2,,,0.252,,0.2,0.8,0.6,0.4,0.8,0.2,0.6,0.4,1,0
,,5e15bb77e78021b9d45d8cf4,66daf59e805b033eede348a5,2024-09-06_14h29.35.591,mdp,2024.2.1,Win32,60.16847172,66d7945b1baad48e845df3ce,,,,,,,,,,,,,,,,,,,,,628.83,628.83,628.831,629.629,1,1,right,0.275,,629.63,630.561,0,0,left,630.562,631.245,1,0,right,1,631.245,631.245,631.246,632.744,0,18,18,18,1,0.4,0.6,0.6,0.4,,,,,,,,,,,,,,,0.414,,0.4,0.6,0.4,0.6,0.2,0.8,0.8,0.2,,,0.17,,0.2,0.8,0.6,0.4,0.8,0.2,0.6,0.4,1,0
,,5e15bb77e78021b9d45d8cf4,66daf59e805b033eede348a5,2024-09-06_14h29.35.591,mdp,2024.2.1,Win32,60.16847172,66d7945b1baad48e845df3ce,,,,,,,,,,,,,,,,,,,,,632.747,632.747,632.749,633.727,0,0,left,0.45,,633.729,634.526,1,1,right,634.527,635.343,0,0,left,1,635.343,635.343,635.345,636.842,0,19,19,19,1,0.4,0.6,0.6,0.4,,,,,,,,,,,,,,,0.267,,0.4,0.6,0.4,0.6,0.2,0.8,0.8,0.2,,,0.297,,0.2,0.8,0.6,0.4,0.8,0.2,0.6,0.4,1,0
,,5e15bb77e78021b9d45d8cf4,66daf59e805b033eede348a5,2024-09-06_14h29.35.591,mdp,2024.2.1,Win32,60.16847172,66d7945b1baad48e845df3ce,,,,,,,,,,,,,,,,,,,,,636.843,636.843,636.844,637.741,0,1,left,0.367,,637.742,638.724,0,1,left,638.724,639.507,1,1,right,0,639.507,639.507,639.508,641.006,0,20,20,20,1,0.4,0.6,0.6,0.4,,,,,,,,,,,,,,,0.465,,0.4,0.6,0.4,0.6,0.2,0.8,0.8,0.2,,,0.264,,0.4,0.6,0.2,0.8,0.8,0.2,0.6,0.4,1,0
,,5e15bb77e78021b9d45d8cf4,66daf59e805b033eede348a5,2024-09-06_14h29.35.591,mdp,2024.2.1,Win32,60.16847172,66d7945b1baad48e845df3ce,,,,,,,,,,,,,,,,,,,,,641.007,641.007,641.008,642.322,0,1,left,0.783,,642.323,643.122,1,0,right,643.124,643.921,0,1,left,0,643.921,643.921,643.921,645.422,0,21,21,21,1,0.4,0.6,0.6,0.4,,,,,,,,,,,,,,,0.273,,0.4,0.6,0.4,0.6,0.2,0.8,0.8,0.2,,,0.274,,0.4,0.6,0.2,0.8,0.8,0.2,0.6,0.4,1,0
,,5e15bb77e78021b9d45d8cf4,66daf59e805b033eede348a5,2024-09-06_14h29.35.591,mdp,2024.2.1,Win32,60.16847172,66d7945b1baad48e845df3ce,,,,,,,,,,,,,,,,,,,,,645.422,645.422,645.423,646.303,1,1,right,0.357,,646.304,647.086,0,1,left,647.087,647.852,1,0,right,1,647.853,647.853,647.854,649.351,0,22,22,22,1,0.4,0.6,0.6,0.4,,,,,,,,,,,,,,,0.269,,0.4,0.6,0.4,0.6,0.2,0.8,0.8,0.2,,,0.232,,0.4,0.6,0.2,0.8,0.8,0.2,0.6,0.4,1,0
,,5e15bb77e78021b9d45d8cf4,66daf59e805b033eede348a5,2024-09-06_14h29.35.591,mdp,2024.2.1,Win32,60.16847172,66d7945b1baad48e845df3ce,,,,,,,,,,,,,,,,,,,,,649.351,649.351,649.352,650.217,1,0,right,0.352,,650.218,651.051,0,1,left,651.052,651.9,0,0,left,1,651.9,651.9,651.901,653.4,0,23,23,23,1,0.4,0.6,0.6,0.4,,,,,,,,,,,,,,,0.299,,0.4,0.6,0.4,0.6,0.2,0.8,0.8,0.2,,,0.326,,0.4,0.6,0.2,0.8,0.8,0.2,0.6,0.4,1,0
,,5e15bb77e78021b9d45d8cf4,66daf59e805b033eede348a5,2024-09-06_14h29.35.591,mdp,2024.2.1,Win32,60.16847172,66d7945b1baad48e845df3ce,,,,,,,,,,,,,,,,,,,,,653.4,653.4,653.401,654.282,1,1,right,0.357,,654.283,655.065,0,1,left,655.067,655.847,1,1,right,0,655.848,655.848,655.849,657.348,0,24,24,24,1,0.4,0.6,0.6,0.4,,,,,,,,,,,,,,,0.249,,0.4,0.6,0.4,0.6,0.2,0.8,0.8,0.2,,,0.272,,0.4,0.6,0.2,0.8,0.8,0.2,0.6,0.4,1,0
,,5e15bb77e78021b9d45d8cf4,66daf59e805b033eede348a5,2024-09-06_14h29.35.591,mdp,2024.2.1,Win32,60.16847172,66d7945b1baad48e845df3ce,,,,,,,,,,,,,,,,,,,,,657.348,657.348,657.349,658.146,1,0,right,0.271,,658.147,658.946,0,1,left,658.947,659.729,0,0,left,1,659.729,659.729,659.73,661.228,0,25,25,25,1,0.4,0.6,0.6,0.4,,,,,,,,,,,,,,,0.287,,0.4,0.6,0.4,0.6,0.2,0.8,0.8,0.2,,,0.251,,0.4,0.6,0.2,0.8,0.8,0.2,0.6,0.4,1,0
,,5e15bb77e78021b9d45d8cf4,66daf59e805b033eede348a5,2024-09-06_14h29.35.591,mdp,2024.2.1,Win32,60.16847172,66d7945b1baad48e845df3ce,,,,,,,,,,,,,,,,,,,,,661.229,661.229,661.23,662.061,1,1,right,0.3,,662.062,662.91,0,0,left,662.911,663.676,0,1,left,0,663.676,663.676,663.678,665.177,0,26,26,26,1,0.4,0.6,0.6,0.4,,,,,,,,,,,,,,,0.337,,0.4,0.6,0.4,0.6,0.2,0.8,0.8,0.2,,,0.247,,0.4,0.6,0.2,0.8,0.8,0.2,0.6,0.4,1,0
,,5e15bb77e78021b9d45d8cf4,66daf59e805b033eede348a5,2024-09-06_14h29.35.591,mdp,2024.2.1,Win32,60.16847172,66d7945b1baad48e845df3ce,,,,,,,,,,,,,,,,,,,,,665.179,665.179,665.181,666.026,1,0,right,0.316,,666.027,667.425,0,1,left,667.426,668.224,1,1,right,0,668.224,668.224,668.225,669.724,0,27,27,27,1,0.4,0.6,0.6,0.4,,,,,,,,,,,,,,,0.864,,0.4,0.6,0.4,0.6,0.6,0.4,0.2,0.8,,,0.285,,0.4,0.6,0.2,0.8,0.8,0.2,0.6,0.4,1,0
,,5e15bb77e78021b9d45d8cf4,66daf59e805b033eede348a5,2024-09-06_14h29.35.591,mdp,2024.2.1,Win32,60.16847172,66d7945b1baad48e845df3ce,,,,,,,,,,,,,,,,,,,,,669.724,669.724,669.725,670.556,1,1,right,0.299,,670.557,671.373,0,1,left,671.374,672.239,0,0,left,1,672.239,672.239,672.24,673.737,0,28,28,28,1,0.4,0.6,0.6,0.4,,,,,,,,,,,,,,,0.303,,0.4,0.6,0.4,0.6,0.6,0.4,0.2,0.8,,,0.333,,0.4,0.6,0.2,0.8,0.8,0.2,0.6,0.4,1,0
,,5e15bb77e78021b9d45d8cf4,66daf59e805b033eede348a5,2024-09-06_14h29.35.591,mdp,2024.2.1,Win32,60.16847172,66d7945b1baad48e845df3ce,,,,,,,,,,,,,,,,,,,,,673.738,673.738,673.739,674.588,1,1,right,0.338,,674.589,675.554,0,1,left,675.555,676.403,0,0,left,1,676.403,676.403,676.404,677.903,0,29,29,29,1,0.4,0.6,0.6,0.4,,,,,,,,,,,,,,,0.434,,0.4,0.6,0.4,0.6,0.6,0.4,0.2,0.8,,,0.322,,0.4,0.6,0.2,0.8,0.8,0.2,0.6,0.4,1,0
,,5e15bb77e78021b9d45d8cf4,66daf59e805b033eede348a5,2024-09-06_14h29.35.591,mdp,2024.2.1,Win32,60.16847172,66d7945b1baad48e845df3ce,,,,,,,,,,,,,,,,,,,,,677.904,677.904,677.904,678.768,1,1,right,0.332,,678.769,679.635,0,0,left,679.636,680.7,1,1,right,0,680.7,680.7,680.701,682.2,0,30,30,30,1,0.4,0.6,0.6,0.4,,,,,,,,,,,,,,,0.356,,0.4,0.6,0.4,0.6,0.6,0.4,0.2,0.8,,,0.535,,0.4,0.6,0.2,0.8,0.8,0.2,0.6,0.4,1,0
,,5e15bb77e78021b9d45d8cf4,66daf59e805b033eede348a5,2024-09-06_14h29.35.591,mdp,2024.2.1,Win32,60.16847172,66d7945b1baad48e845df3ce,,,,,,,,,,,,,,,,,,,,,682.2,682.2,682.201,682.984,1,0,right,0.252,,682.985,684.349,0,1,left,684.35,685.599,0,1,left,0,685.599,685.599,685.599,687.098,0,31,31,31,1,0.4,0.6,0.6,0.4,,,,,,,,,,,,,,,0.834,,0.4,0.6,0.4,0.6,0.6,0.4,0.2,0.8,,,0.713,,0.4,0.6,0.2,0.8,0.8,0.2,0.6,0.4,1,0
,,5e15bb77e78021b9d45d8cf4,66daf59e805b033eede348a5,2024-09-06_14h29.35.591,mdp,2024.2.1,Win32,60.16847172,66d7945b1baad48e845df3ce,,,,,,,,,,,,,,,,,,,,,687.098,687.098,687.099,687.797,1,1,right,0.168,,687.797,689.08,1,1,right,689.08,689.996,0,0,left,1,689.996,689.996,689.997,691.494,0,32,32,32,1,0.4,0.6,0.6,0.4,,,,,,,,,,,,,,,0.76,,0.4,0.6,0.4,0.6,0.6,0.4,0.2,0.8,,,0.387,,0.4,0.6,0.2,0.8,0.8,0.2,0.6,0.4,1,0
,,5e15bb77e78021b9d45d8cf4,66daf59e805b033eede348a5,2024-09-06_14h29.35.591,mdp,2024.2.1,Win32,60.16847172,66d7945b1baad48e845df3ce,,,,,,,,,,,,,,,,,,,,,691.495,691.495,691.496,692.394,1,0,right,0.373,,692.395,693.327,0,0,left,693.328,694.493,0,0,left,1,694.493,694.493,694.494,695.992,0,33,33,33,1,0.4,0.6,0.6,0.4,,,,,,,,,,,,,,,0.42,,0.4,0.6,0.4,0.6,0.6,0.4,0.2,0.8,,,0.653,,0.4,0.6,0.2,0.8,0.8,0.2,0.6,0.4,1,0
,,5e15bb77e78021b9d45d8cf4,66daf59e805b033eede348a5,2024-09-06_14h29.35.591,mdp,2024.2.1,Win32,60.16847172,66d7945b1baad48e845df3ce,,,,,,,,,,,,,,,,,,,,,695.992,695.992,695.993,696.775,1,0,right,0.268,,696.776,697.675,0,0,left,697.675,698.725,0,1,left,0,698.725,698.725,698.73,700.224,0,34,34,34,1,0.4,0.6,0.6,0.4,,,,,,,,,,,,,,,0.391,,0.4,0.6,0.4,0.6,0.6,0.4,0.2,0.8,,,0.518,,0.4,0.6,0.2,0.8,0.8,0.2,0.6,0.4,1,0
,,5e15bb77e78021b9d45d8cf4,66daf59e805b033eede348a5,2024-09-06_14h29.35.591,mdp,2024.2.1,Win32,60.16847172,66d7945b1baad48e845df3ce,,,,,,,,,,,,,,,,,,,,,700.224,700.225,700.226,701.073,1,0,right,0.315,,701.075,701.906,0,1,left,701.907,702.739,1,0,right,1,702.739,702.739,702.74,704.238,0,35,35,35,1,0.4,0.6,0.6,0.4,,,,,,,,,,,,,,,0.3,,0.4,0.6,0.4,0.6,0.6,0.4,0.2,0.8,,,0.292,,0.4,0.6,0.2,0.8,0.8,0.2,0.6,0.4,1,0
,,5e15bb77e78021b9d45d8cf4,66daf59e805b033eede348a5,2024-09-06_14h29.35.591,mdp,2024.2.1,Win32,60.16847172,66d7945b1baad48e845df3ce,,,,,,,,,,,,,,,,,,,,,704.238,704.238,704.24,705.038,1,1,right,0.267,,705.039,705.82,1,1,right,705.821,706.62,0,0,left,1,706.62,706.62,706.621,708.119,0,36,36,36,1,0.4,0.6,0.6,0.4,,,,,,,,,,,,,,,0.249,,0.4,0.6,0.4,0.6,0.6,0.4,0.2,0.8,,,0.267,,0.4,0.6,0.2,0.8,0.8,0.2,0.6,0.4,1,0
,,5e15bb77e78021b9d45d8cf4,66daf59e805b033eede348a5,2024-09-06_14h29.35.591,mdp,2024.2.1,Win32,60.16847172,66d7945b1baad48e845df3ce,,,,,,,,,,,,,,,,,,,,,708.12,708.12,708.121,709.052,1,0,right,0.399,,709.053,709.868,0,1,left,709.87,710.551,1,1,right,0,710.551,710.551,710.551,712.049,0,37,37,37,1,0.4,0.6,0.6,0.4,,,,,,,,,,,,,,,0.291,,0.4,0.6,0.4,0.6,0.6,0.4,0.2,0.8,,,0.159,,0.4,0.6,0.2,0.8,0.8,0.2,0.6,0.4,1,0
,,5e15bb77e78021b9d45d8cf4,66daf59e805b033eede348a5,2024-09-06_14h29.35.591,mdp,2024.2.1,Win32,60.16847172,66d7945b1baad48e845df3ce,,,,,,,,,,,,,,,,,,,,,712.05,712.05,712.052,712.767,1,0,right,0.199,,712.768,713.516,1,0,right,713.517,714.249,0,1,left,0,714.249,714.249,714.249,715.748,0,38,38,38,1,0.4,0.6,0.6,0.4,,,,,,,,,,,,,,,0.216,,0.4,0.6,0.4,0.6,0.6,0.4,0.2,0.8,,,0.198,,0.4,0.6,0.2,0.8,0.8,0.2,0.6,0.4,1,0
,,5e15bb77e78021b9d45d8cf4,66daf59e805b033eede348a5,2024-09-06_14h29.35.591,mdp,2024.2.1,Win32,60.16847172,66d7945b1baad48e845df3ce,,,,,,,,,,,,,,,,,,,,,715.75,715.75,715.752,716.698,1,1,right,0.418,,716.698,717.497,0,0,left,717.498,718.23,1,1,right,0,718.23,718.231,718.232,719.729,0,39,39,39,1,0.4,0.6,0.6,0.4,,,,,,,,,,,,,,,0.27,,0.4,0.6,0.4,0.6,0.6,0.4,0.2,0.8,,,0.206,,0.4,0.6,0.2,0.8,0.8,0.2,0.6,0.4,1,0
,,5e15bb77e78021b9d45d8cf4,66daf59e805b033eede348a5,2024-09-06_14h29.35.591,mdp,2024.2.1,Win32,60.16847172,66d7945b1baad48e845df3ce,,,,,,,,,,,,,,,,,,,,,719.73,719.73,719.731,720.579,0,0,left,0.32,,720.579,721.362,1,0,right,721.362,721.961,0,0,left,1,721.962,721.962,721.962,723.46,0,40,40,40,1,0.4,0.6,0.6,0.4,,,,,,,,,,,,,,,0.252,,0.4,0.6,0.4,0.6,0.6,0.4,0.2,0.8,,,0.068,,0.4,0.6,0.2,0.8,0.8,0.2,0.6,0.4,1,0
,,5e15bb77e78021b9d45d8cf4,66daf59e805b033eede348a5,2024-09-06_14h29.35.591,mdp,2024.2.1,Win32,60.16847172,66d7945b1baad48e845df3ce,,,,,,,,,,,,,,,,,,,,,723.461,723.461,723.462,724.41,0,1,left,0.425,,724.411,725.127,1,1,right,725.128,725.743,0,1,left,0,725.743,725.743,725.743,727.242,0,41,41,41,1,0.4,0.6,0.6,0.4,,,,,,,,,,,,,,,0.199,,0.4,0.6,0.4,0.6,0.6,0.4,0.2,0.8,,,0.086,,0.2,0.8,0.6,0.4,0.8,0.2,0.6,0.4,1,0
,,5e15bb77e78021b9d45d8cf4,66daf59e805b033eede348a5,2024-09-06_14h29.35.591,mdp,2024.2.1,Win32,60.16847172,66d7945b1baad48e845df3ce,,,,,,,,,,,,,,,,,,,,,727.242,727.242,727.243,728.074,0,0,left,0.3,,728.076,728.874,0,1,left,728.875,729.474,1,1,right,0,729.474,729.474,729.474,730.973,0,42,42,42,1,0.4,0.6,0.6,0.4,,,,,,,,,,,,,,,0.263,,0.4,0.6,0.4,0.6,0.6,0.4,0.2,0.8,,,0.073,,0.2,0.8,0.6,0.4,0.8,0.2,0.6,0.4,1,0
,,5e15bb77e78021b9d45d8cf4,66daf59e805b033eede348a5,2024-09-06_14h29.35.591,mdp,2024.2.1,Win32,60.16847172,66d7945b1baad48e845df3ce,,,,,,,,,,,,,,,,,,,,,730.973,730.973,730.974,731.739,0,1,left,0.259,,731.74,732.606,0,0,left,732.61,733.289,0,1,left,0,733.289,733.289,733.289,734.787,0,43,43,43,1,0.4,0.6,0.6,0.4,,,,,,,,,,,,,,,0.351,,0.6,0.4,0.2,0.8,0.6,0.4,0.2,0.8,,,0.146,,0.2,0.8,0.6,0.4,0.8,0.2,0.6,0.4,1,0
,,5e15bb77e78021b9d45d8cf4,66daf59e805b033eede348a5,2024-09-06_14h29.35.591,mdp,2024.2.1,Win32,60.16847172,66d7945b1baad48e845df3ce,,,,,,,,,,,,,,,,,,,,,734.788,734.788,734.788,735.603,0,1,left,0.304,,735.605,736.353,0,1,left,736.355,736.986,1,1,right,0,736.986,736.986,736.987,738.486,0,44,44,44,1,0.4,0.6,0.6,0.4,,,,,,,,,,,,,,,0.243,,0.6,0.4,0.2,0.8,0.6,0.4,0.2,0.8,,,0.103,,0.2,0.8,0.6,0.4,0.8,0.2,0.6,0.4,1,0
,,5e15bb77e78021b9d45d8cf4,66daf59e805b033eede348a5,2024-09-06_14h29.35.591,mdp,2024.2.1,Win32,60.16847172,66d7945b1baad48e845df3ce,,,,,,,,,,,,,,,,,,,,,738.486,738.486,738.488,739.319,0,0,left,0.301,,739.321,740.034,1,1,right,740.035,740.751,1,1,right,0,740.751,740.751,740.752,742.25,0,45,45,45,1,0.4,0.6,0.6,0.4,,,,,,,,,,,,,,,0.193,,0.6,0.4,0.2,0.8,0.6,0.4,0.2,0.8,,,0.2,,0.2,0.8,0.6,0.4,0.8,0.2,0.6,0.4,1,0
,,5e15bb77e78021b9d45d8cf4,66daf59e805b033eede348a5,2024-09-06_14h29.35.591,mdp,2024.2.1,Win32,60.16847172,66d7945b1baad48e845df3ce,,,,,,,,,,,,,,,,,,,,,742.251,742.251,742.252,743.05,0,1,left,0.267,,743.05,743.665,1,1,right,743.666,744.216,0,0,left,1,744.216,744.216,744.217,745.715,0,46,46,46,1,0.4,0.6,0.6,0.4,,,,,,,,,,,,,,,0.09,,0.6,0.4,0.2,0.8,0.6,0.4,0.2,0.8,,,0.036,,0.2,0.8,0.6,0.4,0.8,0.2,0.6,0.4,1,0
,,5e15bb77e78021b9d45d8cf4,66daf59e805b033eede348a5,2024-09-06_14h29.35.591,mdp,2024.2.1,Win32,60.16847172,66d7945b1baad48e845df3ce,,,,,,,,,,,,,,,,,,,,,745.715,745.715,745.716,746.548,0,1,left,0.317,,746.548,747.347,0,0,left,747.348,748.03,1,1,right,0,748.03,748.03,748.031,749.53,0,47,47,47,1,0.4,0.6,0.6,0.4,,,,,,,,,,,,,,,0.267,,0.6,0.4,0.2,0.8,0.6,0.4,0.2,0.8,,,0.166,,0.2,0.8,0.6,0.4,0.8,0.2,0.6,0.4,1,0
,,5e15bb77e78021b9d45d8cf4,66daf59e805b033eede348a5,2024-09-06_14h29.35.591,mdp,2024.2.1,Win32,60.16847172,66d7945b1baad48e845df3ce,,,,,,,,,,,,,,,,,,,,,749.53,749.53,749.531,750.395,0,1,left,0.339,,750.397,751.161,1,1,right,751.162,751.861,0,0,left,1,751.861,751.861,751.863,753.36,0,48,48,48,1,0.4,0.6,0.6,0.4,,,,,,,,,,,,,,,0.252,,0.6,0.4,0.2,0.8,0.6,0.4,0.2,0.8,,,0.184,,0.2,0.8,0.6,0.4,0.8,0.2,0.6,0.4,1,0
,,5e15bb77e78021b9d45d8cf4,66daf59e805b033eede348a5,2024-09-06_14h29.35.591,mdp,2024.2.1,Win32,60.16847172,66d7945b1baad48e845df3ce,,,,,,,,,,,,,,,,,,,,,753.361,753.361,753.362,754.21,0,1,left,0.322,,754.212,754.927,1,0,right,754.927,755.676,0,0,left,1,755.676,755.676,755.676,757.175,0,49,49,49,1,0.4,0.6,0.6,0.4,,,,,,,,,,,,,,,0.201,,0.6,0.4,0.2,0.8,0.6,0.4,0.2,0.8,,,0.216,,0.2,0.8,0.6,0.4,0.8,0.2,0.6,0.4,1,0
,,5e15bb77e78021b9d45d8cf4,66daf59e805b033eede348a5,2024-09-06_14h29.35.591,mdp,2024.2.1,Win32,60.16847172,66d7945b1baad48e845df3ce,,,,,,,,,,,,,,,,,,,,,,,,,,,,,,,,,,,,,,,,,,,,,,,,,,,,,,,,757.175,815.676,0,2,2,8,1,imgs/goat.png,imgs/lion.png,imgs/giraffe.png,imgs/dog.png,imgs/bear.png,,,,,,,,,,,,,,,,,,,,,,,,
,,5e15bb77e78021b9d45d8cf4,66daf59e805b033eede348a5,2024-09-06_14h29.35.591,mdp,2024.2.1,Win32,60.16847172,66d7945b1baad48e845df3ce,,,,,,,,,,,,,,3,seqs/st3seq19.csv,815.678,844.312,space,28.109,,844.323,844.323,844.329,846.059,0,0,left,1.203,,846.061,847.276,0,0,left,847.279,848.541,1,1,right,0,848.541,848.541,848.543,850.041,0,0,0,0,1,0.8,0.2,0.4,0.6,,,,,,,,,,,,,,,0.689,,0.4,0.6,0.6,0.4,0.8,0.2,0.4,0.6,,,0.727,,0.6,0.4,0.2,0.8,0.8,0.2,0.8,0.2,1,0
,,5e15bb77e78021b9d45d8cf4,66daf59e805b033eede348a5,2024-09-06_14h29.35.591,mdp,2024.2.1,Win32,60.16847172,66d7945b1baad48e845df3ce,,,,,,,,,,,,,,,,,,,,,850.043,850.043,850.045,851.056,0,1,left,0.484,,851.059,851.839,0,0,left,851.841,852.623,0,0,left,1,852.624,852.624,852.626,854.122,0,1,1,1,1,0.8,0.2,0.4,0.6,,,,,,,,,,,,,,,0.254,,0.4,0.6,0.6,0.4,0.8,0.2,0.4,0.6,,,0.267,,0.6,0.4,0.2,0.8,0.8,0.2,0.8,0.2,1,0
,,5e15bb77e78021b9d45d8cf4,66daf59e805b033eede348a5,2024-09-06_14h29.35.591,mdp,2024.2.1,Win32,60.16847172,66d7945b1baad48e845df3ce,,,,,,,,,,,,,,,,,,,,,854.123,854.123,854.124,854.973,0,0,left,0.317,,854.975,856.073,0,1,left,856.075,857.051,0,0,left,1,857.051,857.051,857.052,858.553,0,2,2,2,1,0.8,0.2,0.4,0.6,,,,,,,,,,,,,,,0.568,,0.4,0.6,0.6,0.4,0.8,0.2,0.4,0.6,,,0.447,,0.6,0.4,0.2,0.8,0.8,0.2,0.8,0.2,1,0
,,5e15bb77e78021b9d45d8cf4,66daf59e805b033eede348a5,2024-09-06_14h29.35.591,mdp,2024.2.1,Win32,60.16847172,66d7945b1baad48e845df3ce,,,,,,,,,,,,,,,,,,,,,858.554,858.554,858.555,859.369,0,0,left,0.282,,859.371,860.254,0,1,left,860.257,861.368,0,1,left,0,861.368,861.368,861.369,862.867,0,3,3,3,1,0.8,0.2,0.4,0.6,,,,,,,,,,,,,,,0.37,,0.4,0.6,0.6,0.4,0.8,0.2,0.4,0.6,,,0.582,,0.6,0.4,0.2,0.8,0.8,0.2,0.8,0.2,1,0
,,5e15bb77e78021b9d45d8cf4,66daf59e805b033eede348a5,2024-09-06_14h29.35.591,mdp,2024.2.1,Win32,60.16847172,66d7945b1baad48e845df3ce,,,,,,,,,,,,,,,,,,,,,862.868,862.868,862.87,863.666,0,0,left,0.266,,863.668,864.649,0,0,left,864.654,865.95,0,0,left,1,865.951,865.951,865.961,867.448,0,4,4,4,1,0.8,0.2,0.4,0.6,,,,,,,,,,,,,,,0.47,,0.4,0.6,0.6,0.4,0.8,0.2,0.4,0.6,,,0.78,,0.6,0.4,0.2,0.8,0.8,0.2,0.8,0.2,1,0
,,5e15bb77e78021b9d45d8cf4,66daf59e805b033eede348a5,2024-09-06_14h29.35.591,mdp,2024.2.1,Win32,60.16847172,66d7945b1baad48e845df3ce,,,,,,,,,,,,,,,,,,,,,867.448,867.448,867.45,868.247,0,1,left,0.268,,868.248,869.863,0,0,left,869.865,870.962,0,1,left,0,870.962,870.962,870.964,872.462,0,5,5,5,1,0.8,0.2,0.4,0.6,,,,,,,,,,,,,,,1.099,,0.4,0.6,0.6,0.4,0.8,0.2,0.4,0.6,,,0.568,,0.2,0.8,0.6,0.4,0.8,0.2,0.8,0.2,1,0
,,5e15bb77e78021b9d45d8cf4,66daf59e805b033eede348a5,2024-09-06_14h29.35.591,mdp,2024.2.1,Win32,60.16847172,66d7945b1baad48e845df3ce,,,,,,,,,,,,,,,,,,,,,872.462,872.462,872.463,873.278,0,0,left,0.292,,873.279,874.244,0,0,left,874.245,875.443,1,0,right,1,875.443,875.443,875.444,876.942,0,6,6,6,1,0.8,0.2,0.4,0.6,,,,,,,,,,,,,,,0.435,,0.4,0.6,0.6,0.4,0.8,0.2,0.4,0.6,,,0.664,,0.2,0.8,0.6,0.4,0.8,0.2,0.8,0.2,1,0
,,5e15bb77e78021b9d45d8cf4,66daf59e805b033eede348a5,2024-09-06_14h29.35.591,mdp,2024.2.1,Win32,60.16847172,66d7945b1baad48e845df3ce,,,,,,,,,,,,,,,,,,,,,876.943,876.943,876.943,877.809,0,1,left,0.339,,877.81,879.208,1,1,right,879.209,880.54,1,0,right,1,880.54,880.54,880.542,882.039,0,7,7,7,1,0.8,0.2,0.4,0.6,,,,,,,,,,,,,,,0.875,,0.4,0.6,0.6,0.4,0.8,0.2,0.4,0.6,,,0.799,,0.2,0.8,0.6,0.4,0.8,0.2,0.8,0.2,1,0
,,5e15bb77e78021b9d45d8cf4,66daf59e805b033eede348a5,2024-09-06_14h29.35.591,mdp,2024.2.1,Win32,60.16847172,66d7945b1baad48e845df3ce,,,,,,,,,,,,,,,,,,,,,882.039,882.039,882.041,882.905,0,0,left,0.353,,882.907,883.788,0,0,left,883.789,884.988,0,1,left,0,884.988,884.988,884.989,886.487,0,8,8,8,1,0.8,0.2,0.4,0.6,,,,,,,,,,,,,,,0.373,,0.4,0.6,0.6,0.4,0.8,0.2,0.4,0.6,,,0.681,,0.2,0.8,0.6,0.4,0.8,0.2,0.8,0.2,1,0
,,5e15bb77e78021b9d45d8cf4,66daf59e805b033eede348a5,2024-09-06_14h29.35.591,mdp,2024.2.1,Win32,60.16847172,66d7945b1baad48e845df3ce,,,,,,,,,,,,,,,,,,,,,886.487,886.487,886.488,887.336,0,0,left,0.318,,887.337,888.319,0,1,left,888.32,889.518,1,0,right,1,889.519,889.519,889.52,891.017,0,9,9,9,1,0.8,0.2,0.4,0.6,,,,,,,,,,,,,,,0.454,,0.4,0.6,0.6,0.4,0.8,0.2,0.4,0.6,,,0.665,,0.2,0.8,0.6,0.4,0.8,0.2,0.8,0.2,1,0
,,5e15bb77e78021b9d45d8cf4,66daf59e805b033eede348a5,2024-09-06_14h29.35.591,mdp,2024.2.1,Win32,60.16847172,66d7945b1baad48e845df3ce,,,,,,,,,,,,,,,,,,,,,891.018,891.018,891.019,891.834,0,0,left,0.29,,891.835,892.9,0,0,left,892.901,894.066,0,1,left,0,894.066,894.066,894.067,895.565,0,10,10,10,1,0.8,0.2,0.4,0.6,,,,,,,,,,,,,,,0.536,,0.4,0.6,0.6,0.4,0.4,0.6,0.6,0.4,,,0.658,,0.2,0.8,0.6,0.4,0.8,0.2,0.8,0.2,1,0
,,5e15bb77e78021b9d45d8cf4,66daf59e805b033eede348a5,2024-09-06_14h29.35.591,mdp,2024.2.1,Win32,60.16847172,66d7945b1baad48e845df3ce,,,,,,,,,,,,,,,,,,,,,895.566,895.566,895.566,896.431,0,1,left,0.333,,896.433,897.381,0,0,left,897.381,898.347,1,0,right,1,898.347,898.347,898.348,899.847,0,11,11,11,1,0.8,0.2,0.4,0.6,,,,,,,,,,,,,,,0.443,,0.4,0.6,0.6,0.4,0.4,0.6,0.6,0.4,,,0.438,,0.2,0.8,0.6,0.4,0.8,0.2,0.8,0.2,1,0
,,5e15bb77e78021b9d45d8cf4,66daf59e805b033eede348a5,2024-09-06_14h29.35.591,mdp,2024.2.1,Win32,60.16847172,66d7945b1baad48e845df3ce,,,,,,,,,,,,,,,,,,,,,899.849,899.849,899.851,900.646,0,0,left,0.267,,900.647,901.545,0,0,left,901.546,902.645,1,0,right,1,902.645,902.645,902.646,904.144,0,12,12,12,1,0.8,0.2,0.4,0.6,,,,,,,,,,,,,,,0.376,,0.4,0.6,0.6,0.4,0.4,0.6,0.6,0.4,,,0.562,,0.2,0.8,0.6,0.4,0.2,0.8,0.4,0.6,1,0
,,5e15bb77e78021b9d45d8cf4,66daf59e805b033eede348a5,2024-09-06_14h29.35.591,mdp,2024.2.1,Win32,60.16847172,66d7945b1baad48e845df3ce,,,,,,,,,,,,,,,,,,,,,904.144,904.144,904.145,904.943,0,0,left,0.292,,904.944,905.843,0,0,left,905.844,906.743,0,1,left,0,906.743,906.743,906.744,908.241,0,13,13,13,1,0.8,0.2,0.4,0.6,,,,,,,,,,,,,,,0.382,,0.4,0.6,0.6,0.4,0.4,0.6,0.6,0.4,,,0.368,,0.2,0.8,0.6,0.4,0.2,0.8,0.4,0.6,1,0
,,5e15bb77e78021b9d45d8cf4,66daf59e805b033eede348a5,2024-09-06_14h29.35.591,mdp,2024.2.1,Win32,60.16847172,66d7945b1baad48e845df3ce,,,,,,,,,,,,,,,,,,,,,908.242,908.242,908.243,909.108,0,0,left,0.333,,909.11,909.908,0,0,left,909.909,910.89,1,0,right,1,910.89,910.89,910.891,912.39,0,14,14,14,1,0.8,0.2,0.4,0.6,,,,,,,,,,,,,,,0.285,,0.4,0.6,0.6,0.4,0.4,0.6,0.6,0.4,,,0.454,,0.2,0.8,0.6,0.4,0.2,0.8,0.4,0.6,1,0
,,5e15bb77e78021b9d45d8cf4,66daf59e805b033eede348a5,2024-09-06_14h29.35.591,mdp,2024.2.1,Win32,60.16847172,66d7945b1baad48e845df3ce,,,,,,,,,,,,,,,,,,,,,912.391,912.391,912.393,913.221,0,1,left,0.305,,913.223,914.255,1,1,right,914.256,915.421,1,1,right,0,915.421,915.421,915.422,916.92,0,15,15,15,1,0.8,0.2,0.4,0.6,,,,,,,,,,,,,,,0.518,,0.4,0.6,0.6,0.4,0.4,0.6,0.6,0.4,,,0.652,,0.2,0.8,0.6,0.4,0.2,0.8,0.4,0.6,1,0
,,5e15bb77e78021b9d45d8cf4,66daf59e805b033eede348a5,2024-09-06_14h29.35.591,mdp,2024.2.1,Win32,60.16847172,66d7945b1baad48e845df3ce,,,,,,,,,,,,,,,,,,,,,916.92,916.92,916.922,917.67,0,0,left,0.235,,917.671,918.602,0,0,left,918.603,919.635,1,1,right,0,919.635,919.635,919.637,921.134,0,16,16,16,1,0.8,0.2,0.4,0.6,,,,,,,,,,,,,,,0.403,,0.4,0.6,0.6,0.4,0.2,0.8,0.8,0.2,,,0.525,,0.2,0.8,0.6,0.4,0.2,0.8,0.4,0.6,1,0
,,5e15bb77e78021b9d45d8cf4,66daf59e805b033eede348a5,2024-09-06_14h29.35.591,mdp,2024.2.1,Win32,60.16847172,66d7945b1baad48e845df3ce,,,,,,,,,,,,,,,,,,,,,921.135,921.135,921.136,921.934,0,0,left,0.273,,921.935,922.8,0,1,left,922.801,923.883,1,1,right,0,923.883,923.883,923.884,925.382,0,17,17,17,1,0.8,0.2,0.4,0.6,,,,,,,,,,,,,,,0.35,,0.4,0.6,0.6,0.4,0.2,0.8,0.8,0.2,,,0.569,,0.2,0.8,0.6,0.4,0.2,0.8,0.4,0.6,1,0
,,5e15bb77e78021b9d45d8cf4,66daf59e805b033eede348a5,2024-09-06_14h29.35.591,mdp,2024.2.1,Win32,60.16847172,66d7945b1baad48e845df3ce,,,,,,,,,,,,,,,,,,,,,925.383,925.383,925.383,926.181,1,1,right,0.271,,926.182,927.197,0,1,left,927.198,927.947,0,1,left,0,927.947,927.947,927.949,929.447,0,18,18,18,1,0.4,0.6,0.8,0.2,,,,,,,,,,,,,,,0.489,,0.4,0.6,0.6,0.4,0.2,0.8,0.8,0.2,,,0.237,,0.2,0.8,0.6,0.4,0.2,0.8,0.4,0.6,1,0
,,5e15bb77e78021b9d45d8cf4,66daf59e805b033eede348a5,2024-09-06_14h29.35.591,mdp,2024.2.1,Win32,60.16847172,66d7945b1baad48e845df3ce,,,,,,,,,,,,,,,,,,,,,929.447,929.447,929.449,930.246,1,0,right,0.277,,930.247,931.062,1,1,right,931.062,931.761,1,1,right,0,931.762,931.762,931.763,933.262,0,19,19,19,1,0.4,0.6,0.8,0.2,,,,,,,,,,,,,,,0.282,,0.4,0.6,0.6,0.4,0.4,0.6,0.4,0.6,,,0.185,,0.2,0.8,0.6,0.4,0.2,0.8,0.4,0.6,1,0
,,5e15bb77e78021b9d45d8cf4,66daf59e805b033eede348a5,2024-09-06_14h29.35.591,mdp,2024.2.1,Win32,60.16847172,66d7945b1baad48e845df3ce,,,,,,,,,,,,,,,,,,,,,933.264,933.264,933.265,934.094,1,0,right,0.301,,934.096,934.994,0,1,left,934.995,936.026,1,0,right,1,936.027,936.027,936.027,937.525,0,20,20,20,1,0.4,0.6,0.8,0.2,,,,,,,,,,,,,,,0.387,,0.4,0.6,0.6,0.4,0.6,0.4,0.8,0.2,,,0.508,,0.2,0.8,0.6,0.4,0.2,0.8,0.4,0.6,1,0
,,5e15bb77e78021b9d45d8cf4,66daf59e805b033eede348a5,2024-09-06_14h29.35.591,mdp,2024.2.1,Win32,60.16847172,66d7945b1baad48e845df3ce,,,,,,,,,,,,,,,,,,,,,937.525,937.525,937.527,938.342,1,0,right,0.3,,938.343,939.257,0,1,left,939.258,940.208,1,1,right,0,940.208,940.208,940.208,941.706,0,21,21,21,1,0.4,0.6,0.8,0.2,,,,,,,,,,,,,,,0.391,,0.4,0.6,0.6,0.4,0.6,0.4,0.8,0.2,,,0.437,,0.2,0.8,0.6,0.4,0.2,0.8,0.4,0.6,1,0
,,5e15bb77e78021b9d45d8cf4,66daf59e805b033eede348a5,2024-09-06_14h29.35.591,mdp,2024.2.1,Win32,60.16847172,66d7945b1baad48e845df3ce,,,,,,,,,,,,,,,,,,,,,941.707,941.707,941.708,942.572,1,0,right,0.341,,942.573,943.555,0,1,left,943.556,944.471,0,1,left,0,944.471,944.471,944.472,945.971,0,22,22,22,1,0.4,0.6,0.8,0.2,,,,,,,,,,,,,,,0.474,,0.4,0.6,0.6,0.4,0.6,0.4,0.8,0.2,,,0.383,,0.2,0.8,0.6,0.4,0.2,0.8,0.4,0.6,1,0
,,5e15bb77e78021b9d45d8cf4,66daf59e805b033eede348a5,2024-09-06_14h29.35.591,mdp,2024.2.1,Win32,60.16847172,66d7945b1baad48e845df3ce,,,,,,,,,,,,,,,,,,,,,945.972,945.972,945.972,946.904,0,0,left,0.399,,946.905,947.836,0,0,left,947.837,949.136,1,1,right,0,949.136,949.136,949.137,950.635,0,23,23,23,1,0.4,0.6,0.8,0.2,,,,,,,,,,,,,,,0.399,,0.4,0.6,0.6,0.4,0.6,0.4,0.8,0.2,,,0.781,,0.2,0.8,0.6,0.4,0.2,0.8,0.4,0.6,1,0
,,5e15bb77e78021b9d45d8cf4,66daf59e805b033eede348a5,2024-09-06_14h29.35.591,mdp,2024.2.1,Win32,60.16847172,66d7945b1baad48e845df3ce,,,,,,,,,,,,,,,,,,,,,950.636,950.636,950.637,951.451,0,1,left,0.286,,951.452,952.666,1,0,right,952.668,953.633,0,1,left,0,953.633,953.633,953.634,955.132,0,24,24,24,1,0.4,0.6,0.8,0.2,,,,,,,,,,,,,,,0.688,,0.4,0.6,0.6,0.4,0.6,0.4,0.8,0.2,,,0.433,,0.2,0.8,0.6,0.4,0.2,0.8,0.4,0.6,1,0
,,5e15bb77e78021b9d45d8cf4,66daf59e805b033eede348a5,2024-09-06_14h29.35.591,mdp,2024.2.1,Win32,60.16847172,66d7945b1baad48e845df3ce,,,,,,,,,,,,,,,,,,,,,955.132,955.132,955.133,955.948,0,0,left,0.31,,955.949,956.914,0,0,left,956.915,958.114,0,1,left,0,958.114,958.114,958.114,959.613,0,25,25,25,1,0.2,0.8,0.4,0.6,,,,,,,,,,,,,,,0.453,,0.4,0.6,0.6,0.4,0.6,0.4,0.8,0.2,,,0.683,,0.2,0.8,0.6,0.4,0.2,0.8,0.4,0.6,1,0
,,5e15bb77e78021b9d45d8cf4,66daf59e805b033eede348a5,2024-09-06_14h29.35.591,mdp,2024.2.1,Win32,60.16847172,66d7945b1baad48e845df3ce,,,,,,,,,,,,,,,,,,,,,959.614,959.614,959.615,960.629,0,1,left,0.483,,960.631,961.728,1,0,right,961.729,962.728,0,1,left,0,962.728,962.728,962.728,964.227,0,26,26,26,1,0.2,0.8,0.4,0.6,,,,,,,,,,,,,,,0.592,,0.4,0.6,0.6,0.4,0.6,0.4,0.8,0.2,,,0.484,,0.2,0.8,0.6,0.4,0.2,0.8,0.4,0.6,1,0
,,5e15bb77e78021b9d45d8cf4,66daf59e805b033eede348a5,2024-09-06_14h29.35.591,mdp,2024.2.1,Win32,60.16847172,66d7945b1baad48e845df3ce,,,,,,,,,,,,,,,,,,,,,964.227,964.227,964.228,965.043,0,1,left,0.303,,965.044,966.576,0,1,left,966.58,967.693,1,1,right,0,967.693,967.693,967.694,969.191,0,27,27,27,1,0.2,0.8,0.4,0.6,,,,,,,,,,,,,,,1.016,,0.4,0.6,0.6,0.4,0.6,0.4,0.8,0.2,,,0.58,,0.2,0.8,0.6,0.4,0.2,0.8,0.4,0.6,1,0
,,5e15bb77e78021b9d45d8cf4,66daf59e805b033eede348a5,2024-09-06_14h29.35.591,mdp,2024.2.1,Win32,60.16847172,66d7945b1baad48e845df3ce,,,,,,,,,,,,,,,,,,,,,969.192,969.192,969.193,970.007,0,1,left,0.288,,970.008,971.873,1,0,right,971.874,972.955,0,0,left,1,972.955,972.955,972.956,974.455,0,28,28,28,1,0.2,0.8,0.4,0.6,,,,,,,,,,,,,,,1.354,,0.4,0.6,0.6,0.4,0.6,0.4,0.8,0.2,,,0.571,,0.2,0.8,0.6,0.4,0.2,0.8,0.4,0.6,1,0
,,5e15bb77e78021b9d45d8cf4,66daf59e805b033eede348a5,2024-09-06_14h29.35.591,mdp,2024.2.1,Win32,60.16847172,66d7945b1baad48e845df3ce,,,,,,,,,,,,,,,,,,,,,974.456,974.456,974.458,975.338,0,1,left,0.348,,975.339,976.471,1,0,right,976.472,977.47,0,1,left,0,977.47,977.47,977.471,978.969,0,29,29,29,1,0.2,0.8,0.4,0.6,,,,,,,,,,,,,,,0.612,,0.4,0.6,0.6,0.4,0.6,0.4,0.8,0.2,,,0.466,,0.2,0.8,0.6,0.4,0.2,0.8,0.4,0.6,1,0
,,5e15bb77e78021b9d45d8cf4,66daf59e805b033eede348a5,2024-09-06_14h29.35.591,mdp,2024.2.1,Win32,60.16847172,66d7945b1baad48e845df3ce,,,,,,,,,,,,,,,,,,,,,978.97,978.97,978.97,979.785,0,0,left,0.288,,979.785,980.701,0,0,left,980.702,981.534,1,1,right,0,981.534,981.534,981.535,983.033,0,30,30,30,1,0.2,0.8,0.4,0.6,,,,,,,,,,,,,,,0.396,,0.4,0.6,0.6,0.4,0.6,0.4,0.8,0.2,,,0.319,,0.2,0.8,0.6,0.4,0.2,0.8,0.4,0.6,1,0
,,5e15bb77e78021b9d45d8cf4,66daf59e805b033eede348a5,2024-09-06_14h29.35.591,mdp,2024.2.1,Win32,60.16847172,66d7945b1baad48e845df3ce,,,,,,,,,,,,,,,,,,,,,983.034,983.035,983.035,983.849,0,1,left,0.284,,983.851,985.015,1,0,right,985.017,986.065,1,0,right,1,986.065,986.065,986.066,987.564,0,31,31,31,1,0.2,0.8,0.4,0.6,,,,,,,,,,,,,,,0.653,,0.4,0.6,0.6,0.4,0.6,0.4,0.8,0.2,,,0.533,,0.2,0.8,0.6,0.4,0.2,0.8,0.4,0.6,1,0
,,5e15bb77e78021b9d45d8cf4,66daf59e805b033eede348a5,2024-09-06_14h29.35.591,mdp,2024.2.1,Win32,60.16847172,66d7945b1baad48e845df3ce,,,,,,,,,,,,,,,,,,,,,987.565,987.565,987.566,988.397,0,0,left,0.309,,988.398,989.497,0,1,left,989.497,990.846,1,1,right,0,990.846,990.846,990.847,992.345,0,32,32,32,1,0.2,0.8,0.4,0.6,,,,,,,,,,,,,,,0.581,,0.4,0.6,0.6,0.4,0.8,0.2,0.6,0.4,,,0.814,,0.2,0.8,0.6,0.4,0.2,0.8,0.4,0.6,1,0
,,5e15bb77e78021b9d45d8cf4,66daf59e805b033eede348a5,2024-09-06_14h29.35.591,mdp,2024.2.1,Win32,60.16847172,66d7945b1baad48e845df3ce,,,,,,,,,,,,,,,,,,,,,992.345,992.345,992.346,993.061,0,1,left,0.199,,993.062,994.244,1,0,right,994.245,995.244,1,0,right,1,995.244,995.244,995.245,996.743,0,33,33,33,1,0.2,0.8,0.4,0.6,,,,,,,,,,,,,,,0.674,,0.4,0.6,0.6,0.4,0.8,0.2,0.6,0.4,,,0.464,,0.2,0.8,0.6,0.4,0.2,0.8,0.4,0.6,1,0
,,5e15bb77e78021b9d45d8cf4,66daf59e805b033eede348a5,2024-09-06_14h29.35.591,mdp,2024.2.1,Win32,60.16847172,66d7945b1baad48e845df3ce,,,,,,,,,,,,,,,,,,,,,996.743,996.743,996.744,997.475,0,1,left,0.211,,997.476,998.608,1,0,right,998.609,999.542,1,0,right,1,999.542,999.542,999.546,1001.041,0,34,34,34,1,0.2,0.8,0.4,0.6,,,,,,,,,,,,,,,0.617,,0.4,0.6,0.6,0.4,0.8,0.2,0.6,0.4,,,0.419,,0.2,0.8,0.6,0.4,0.2,0.8,0.4,0.6,1,0
,,5e15bb77e78021b9d45d8cf4,66daf59e805b033eede348a5,2024-09-06_14h29.35.591,mdp,2024.2.1,Win32,60.16847172,66d7945b1baad48e845df3ce,,,,,,,,,,,,,,,,,,,,,1001.041,1001.041,1001.042,1001.84,0,1,left,0.265,,1001.841,1002.822,1,0,right,1002.823,1003.755,1,0,right,1,1003.755,1003.755,1003.756,1005.255,0,35,35,35,1,0.2,0.8,0.4,0.6,,,,,,,,,,,,,,,0.45,,0.4,0.6,0.6,0.4,0.8,0.2,0.6,0.4,,,0.419,,0.2,0.8,0.6,0.4,0.2,0.8,0.4,0.6,1,0
,,5e15bb77e78021b9d45d8cf4,66daf59e805b033eede348a5,2024-09-06_14h29.35.591,mdp,2024.2.1,Win32,60.16847172,66d7945b1baad48e845df3ce,,,,,,,,,,,,,,,,,,,,,1005.255,1005.255,1005.257,1006.054,0,1,left,0.268,,1006.055,1006.937,1,0,right,1006.938,1007.737,1,1,right,0,1007.737,1007.737,1007.737,1009.236,0,36,36,36,1,0.2,0.8,0.4,0.6,,,,,,,,,,,,,,,0.351,,0.4,0.6,0.6,0.4,0.8,0.2,0.6,0.4,,,0.292,,0.2,0.8,0.6,0.4,0.2,0.8,0.4,0.6,1,0
,,5e15bb77e78021b9d45d8cf4,66daf59e805b033eede348a5,2024-09-06_14h29.35.591,mdp,2024.2.1,Win32,60.16847172,66d7945b1baad48e845df3ce,,,,,,,,,,,,,,,,,,,,,1009.236,1009.236,1009.237,1010.252,0,1,left,0.484,,1010.253,1011.434,0,0,left,1011.435,1012.301,1,0,right,1,1012.301,1012.301,1012.302,1013.799,0,37,37,37,1,0.2,0.8,0.4,0.6,,,,,,,,,,,,,,,0.653,,0.4,0.6,0.6,0.4,0.8,0.2,0.6,0.4,,,0.35,,0.2,0.8,0.6,0.4,0.2,0.8,0.4,0.6,1,0
,,5e15bb77e78021b9d45d8cf4,66daf59e805b033eede348a5,2024-09-06_14h29.35.591,mdp,2024.2.1,Win32,60.16847172,66d7945b1baad48e845df3ce,,,,,,,,,,,,,,,,,,,,,1013.801,1013.801,1013.801,1014.649,0,1,left,0.316,,1014.65,1015.582,0,1,left,1015.583,1016.714,0,1,left,0,1016.714,1016.714,1016.715,1018.214,0,38,38,38,1,0.2,0.8,0.4,0.6,,,,,,,,,,,,,,,0.418,,0.4,0.6,0.6,0.4,0.8,0.2,0.6,0.4,,,0.62,,0.2,0.8,0.6,0.4,0.2,0.8,0.4,0.6,1,0
,,5e15bb77e78021b9d45d8cf4,66daf59e805b033eede348a5,2024-09-06_14h29.35.591,mdp,2024.2.1,Win32,60.16847172,66d7945b1baad48e845df3ce,,,,,,,,,,,,,,,,,,,,,1018.215,1018.215,1018.216,1018.914,0,1,left,0.177,,1018.914,1019.813,0,0,left,1019.814,1021.08,1,1,right,0,1021.08,1021.08,1021.081,1022.579,0,39,39,39,1,0.2,0.8,0.4,0.6,,,,,,,,,,,,,,,0.384,,0.4,0.6,0.6,0.4,0.8,0.2,0.6,0.4,,,0.747,,0.2,0.8,0.6,0.4,0.2,0.8,0.4,0.6,1,0
,,5e15bb77e78021b9d45d8cf4,66daf59e805b033eede348a5,2024-09-06_14h29.35.591,mdp,2024.2.1,Win32,60.16847172,66d7945b1baad48e845df3ce,,,,,,,,,,,,,,,,,,,,,1022.579,1022.579,1022.579,1023.161,0,1,left,0.057,,1023.161,1024.044,0,0,left,1024.045,1025.16,0,0,left,1,1025.16,1025.16,1025.161,1026.66,0,40,40,40,1,0.2,0.8,0.4,0.6,,,,,,,,,,,,,,,0.374,,0.4,0.6,0.6,0.4,0.8,0.2,0.6,0.4,,,0.606,,0.2,0.8,0.6,0.4,0.2,0.8,0.4,0.6,1,0
,,5e15bb77e78021b9d45d8cf4,66daf59e805b033eede348a5,2024-09-06_14h29.35.591,mdp,2024.2.1,Win32,60.16847172,66d7945b1baad48e845df3ce,,,,,,,,,,,,,,,,,,,,,1026.66,1026.66,1026.661,1027.459,0,1,left,0.273,,1027.459,1028.375,0,1,left,1028.376,1029.641,1,1,right,0,1029.641,1029.641,1029.642,1031.14,0,41,41,41,1,0.2,0.8,0.4,0.6,,,,,,,,,,,,,,,0.384,,0.4,0.6,0.6,0.4,0.8,0.2,0.6,0.4,,,0.751,,0.2,0.8,0.6,0.4,0.2,0.8,0.4,0.6,1,0
,,5e15bb77e78021b9d45d8cf4,66daf59e805b033eede348a5,2024-09-06_14h29.35.591,mdp,2024.2.1,Win32,60.16847172,66d7945b1baad48e845df3ce,,,,,,,,,,,,,,,,,,,,,1031.141,1031.141,1031.142,1031.889,0,0,left,0.226,,1031.89,1032.79,0,1,left,1032.793,1033.772,0,1,left,0,1033.772,1033.772,1033.774,1035.272,0,42,42,42,1,0.2,0.8,0.4,0.6,,,,,,,,,,,,,,,0.382,,0.4,0.6,0.6,0.4,0.8,0.2,0.6,0.4,,,0.45,,0.4,0.6,0.8,0.2,0.2,0.8,0.4,0.6,1,0
,,5e15bb77e78021b9d45d8cf4,66daf59e805b033eede348a5,2024-09-06_14h29.35.591,mdp,2024.2.1,Win32,60.16847172,66d7945b1baad48e845df3ce,,,,,,,,,,,,,,,,,,,,,1035.273,1035.273,1035.274,1035.855,0,1,left,0.055,,1035.855,1036.637,1,1,right,1036.638,1037.42,0,0,left,1,1037.42,1037.42,1037.421,1038.919,0,43,43,43,1,0.2,0.8,0.4,0.6,,,,,,,,,,,,,,,0.253,,0.4,0.6,0.6,0.4,0.8,0.2,0.6,0.4,,,0.248,,0.4,0.6,0.8,0.2,0.2,0.8,0.4,0.6,1,0
,,5e15bb77e78021b9d45d8cf4,66daf59e805b033eede348a5,2024-09-06_14h29.35.591,mdp,2024.2.1,Win32,60.16847172,66d7945b1baad48e845df3ce,,,,,,,,,,,,,,,,,,,,,1038.92,1038.92,1038.92,1039.569,0,1,left,0.116,,1039.57,1040.469,0,1,left,1040.469,1041.151,1,1,right,0,1041.151,1041.151,1041.152,1042.65,0,44,44,44,1,0.2,0.8,0.4,0.6,,,,,,,,,,,,,,,0.369,,0.4,0.6,0.6,0.4,0.8,0.2,0.6,0.4,,,0.151,,0.4,0.6,0.8,0.2,0.2,0.8,0.4,0.6,1,0
,,5e15bb77e78021b9d45d8cf4,66daf59e805b033eede348a5,2024-09-06_14h29.35.591,mdp,2024.2.1,Win32,60.16847172,66d7945b1baad48e845df3ce,,,,,,,,,,,,,,,,,,,,,1042.651,1042.651,1042.652,1043.516,0,1,left,0.341,,1043.517,1044.849,0,0,left,1044.85,1045.649,1,1,right,0,1045.649,1045.649,1045.649,1047.148,0,45,45,45,1,0.2,0.8,0.4,0.6,,,,,,,,,,,,,,,0.816,,0.4,0.6,0.6,0.4,0.8,0.2,0.6,0.4,,,0.271,,0.4,0.6,0.8,0.2,0.2,0.8,0.4,0.6,1,0
,,5e15bb77e78021b9d45d8cf4,66daf59e805b033eede348a5,2024-09-06_14h29.35.591,mdp,2024.2.1,Win32,60.16847172,66d7945b1baad48e845df3ce,,,,,,,,,,,,,,,,,,,,,1047.148,1047.148,1047.149,1047.998,1,1,right,0.324,,1047.998,1048.83,0,0,left,1048.831,1049.514,1,0,right,1,1049.514,1049.514,1049.514,1051.013,0,46,46,46,1,0.2,0.8,0.4,0.6,,,,,,,,,,,,,,,0.302,,0.4,0.6,0.6,0.4,0.8,0.2,0.6,0.4,,,0.168,,0.4,0.6,0.8,0.2,0.2,0.8,0.4,0.6,1,0
,,5e15bb77e78021b9d45d8cf4,66daf59e805b033eede348a5,2024-09-06_14h29.35.591,mdp,2024.2.1,Win32,60.16847172,66d7945b1baad48e845df3ce,,,,,,,,,,,,,,,,,,,,,1051.013,1051.013,1051.013,1051.862,1,0,right,0.319,,1051.863,1052.761,0,1,left,1052.762,1053.527,1,1,right,0,1053.528,1053.528,1053.529,1055.027,0,47,47,47,1,0.2,0.8,0.4,0.6,,,,,,,,,,,,,,,0.374,,0.4,0.6,0.6,0.4,0.8,0.2,0.6,0.4,,,0.248,,0.4,0.6,0.8,0.2,0.2,0.8,0.4,0.6,1,0
,,5e15bb77e78021b9d45d8cf4,66daf59e805b033eede348a5,2024-09-06_14h29.35.591,mdp,2024.2.1,Win32,60.16847172,66d7945b1baad48e845df3ce,,,,,,,,,,,,,,,,,,,,,1055.028,1055.028,1055.03,1055.793,1,1,right,0.237,,1055.794,1056.959,0,1,left,1056.96,1057.692,0,1,left,0,1057.692,1057.692,1057.693,1059.192,0,48,48,48,1,0.2,0.8,0.4,0.6,,,,,,,,,,,,,,,0.654,,0.4,0.6,0.6,0.4,0.8,0.2,0.6,0.4,,,0.201,,0.4,0.6,0.8,0.2,0.2,0.8,0.4,0.6,1,0
,,5e15bb77e78021b9d45d8cf4,66daf59e805b033eede348a5,2024-09-06_14h29.35.591,mdp,2024.2.1,Win32,60.16847172,66d7945b1baad48e845df3ce,,,,,,,,,,,,,,,,,,,,,1059.192,1059.192,1059.193,1060.024,1,1,right,0.303,,1060.025,1061.24,0,0,left,1061.241,1062.156,1,0,right,1,1062.156,1062.156,1062.158,1063.655,0,49,49,49,1,0.2,0.8,0.4,0.6,,,,,,,,,,,,,,,0.688,,0.4,0.6,0.6,0.4,0.8,0.2,0.6,0.4,,,0.395,,0.4,0.6,0.8,0.2,0.2,0.8,0.4,0.6,1,0
,,5e15bb77e78021b9d45d8cf4,66daf59e805b033eede348a5,2024-09-06_14h29.35.591,mdp,2024.2.1,Win32,60.16847172,66d7945b1baad48e845df3ce,,,,,,,,,,,,,,,,,,,,,,,,,,,,,,,,,,,,,,,,,,,,,,,,,,,,,,,,1063.655,1122.157,0,3,3,1,1,imgs/rabbit.png,imgs/squirrel.png,imgs/dog.png,imgs/elephant.png,imgs/giraffe.png,,,,,,,,,,,,,,,,,,,,,,,,
,,5e15bb77e78021b9d45d8cf4,66daf59e805b033eede348a5,2024-09-06_14h29.35.591,mdp,2024.2.1,Win32,60.16847172,66d7945b1baad48e845df3ce,,,,,,,,,,,,,,1,seqs/st1seq2.csv,1122.161,1124.888,space,2.206,,1124.892,1124.892,1124.892,1126.588,0,1,left,1.165,,1126.589,1126.59,0,1,,1126.59,1126.591,1,1,,0,1126.591,1126.591,1126.592,1128.087,0,0,0,0,1,0.2,0.8,0.6,0.4,1,0,,,,,,,,,,,,,,,,,,,,,,,,,,,,,,,,,,,,
,,5e15bb77e78021b9d45d8cf4,66daf59e805b033eede348a5,2024-09-06_14h29.35.591,mdp,2024.2.1,Win32,60.16847172,66d7945b1baad48e845df3ce,,,,,,,,,,,,,,,,,,,,,1128.087,1128.087,1128.088,1128.903,1,0,right,0.293,,1128.903,1128.905,0,0,,1128.906,1128.907,1,0,,1,1128.907,1128.907,1128.907,1130.402,0,1,1,1,1,0.2,0.8,0.6,0.4,1,0,,,,,,,,,,,,,,,,,,,,,,,,,,,,,,,,,,,,
,,5e15bb77e78021b9d45d8cf4,66daf59e805b033eede348a5,2024-09-06_14h29.35.591,mdp,2024.2.1,Win32,60.16847172,66d7945b1baad48e845df3ce,,,,,,,,,,,,,,,,,,,,,1130.402,1130.402,1130.403,1131.235,1,0,right,0.318,,1131.236,1131.237,0,1,,1131.238,1131.238,1,0,,1,1131.238,1131.238,1131.239,1132.734,0,2,2,2,1,0.8,0.2,0.8,0.2,1,0,,,,,,,,,,,,,,,,,,,,,,,,,,,,,,,,,,,,
,,5e15bb77e78021b9d45d8cf4,66daf59e805b033eede348a5,2024-09-06_14h29.35.591,mdp,2024.2.1,Win32,60.16847172,66d7945b1baad48e845df3ce,,,,,,,,,,,,,,,,,,,,,1132.736,1132.736,1132.739,1133.534,1,1,right,0.267,,1133.535,1133.537,0,0,,1133.537,1133.538,1,0,,0,1133.538,1133.538,1133.538,1135.033,0,3,3,3,1,0.8,0.2,0.8,0.2,1,0,,,,,,,,,,,,,,,,,,,,,,,,,,,,,,,,,,,,
,,5e15bb77e78021b9d45d8cf4,66daf59e805b033eede348a5,2024-09-06_14h29.35.591,mdp,2024.2.1,Win32,60.16847172,66d7945b1baad48e845df3ce,,,,,,,,,,,,,,,,,,,,,1135.033,1135.033,1135.034,1135.832,0,0,left,0.266,,1135.833,1135.834,0,1,,1135.834,1135.835,1,0,,1,1135.835,1135.835,1135.836,1137.332,0,4,4,4,1,0.6,0.4,0.2,0.8,1,0,,,,,,,,,,,,,,,,,,,,,,,,,,,,,,,,,,,,
,,5e15bb77e78021b9d45d8cf4,66daf59e805b033eede348a5,2024-09-06_14h29.35.591,mdp,2024.2.1,Win32,60.16847172,66d7945b1baad48e845df3ce,,,,,,,,,,,,,,,,,,,,,1137.333,1137.333,1137.334,1138.147,0,1,left,0.287,,1138.148,1138.149,0,1,,1138.15,1138.151,1,0,,0,1138.151,1138.151,1138.152,1139.646,0,5,5,5,1,0.6,0.4,0.2,0.8,1,0,,,,,,,,,,,,,,,,,,,,,,,,,,,,,,,,,,,,
,,5e15bb77e78021b9d45d8cf4,66daf59e805b033eede348a5,2024-09-06_14h29.35.591,mdp,2024.2.1,Win32,60.16847172,66d7945b1baad48e845df3ce,,,,,,,,,,,,,,,,,,,,,1139.646,1139.647,1139.648,1140.329,1,1,right,0.147,,1140.331,1140.332,0,1,,1140.332,1140.333,1,1,,0,1140.333,1140.333,1140.333,1141.829,0,6,6,6,1,0.6,0.4,0.2,0.8,1,0,,,,,,,,,,,,,,,,,,,,,,,,,,,,,,,,,,,,
,,5e15bb77e78021b9d45d8cf4,66daf59e805b033eede348a5,2024-09-06_14h29.35.591,mdp,2024.2.1,Win32,60.16847172,66d7945b1baad48e845df3ce,,,,,,,,,,,,,,,,,,,,,1141.829,1141.829,1141.831,1142.612,0,0,left,0.279,,1142.613,1142.613,0,0,,1142.614,1142.614,1,1,,1,1142.614,1142.614,1142.615,1144.111,0,7,7,7,1,0.6,0.4,0.2,0.8,1,0,,,,,,,,,,,,,,,,,,,,,,,,,,,,,,,,,,,,
,,5e15bb77e78021b9d45d8cf4,66daf59e805b033eede348a5,2024-09-06_14h29.35.591,mdp,2024.2.1,Win32,60.16847172,66d7945b1baad48e845df3ce,,,,,,,,,,,,,,,,,,,,,1144.111,1144.111,1144.112,1144.894,0,1,left,0.266,,1144.895,1144.896,0,0,,1144.897,1144.897,1,0,,0,1144.898,1144.898,1144.898,1146.393,0,8,8,8,1,0.6,0.4,0.2,0.8,1,0,,,,,,,,,,,,,,,,,,,,,,,,,,,,,,,,,,,,
,,5e15bb77e78021b9d45d8cf4,66daf59e805b033eede348a5,2024-09-06_14h29.35.591,mdp,2024.2.1,Win32,60.16847172,66d7945b1baad48e845df3ce,,,,,,,,,,,,,,,,,,,,,1146.394,1146.394,1146.395,1147.226,1,1,right,0.298,,1147.227,1147.227,0,1,,1147.228,1147.229,1,1,,0,1147.229,1147.229,1147.23,1148.725,0,9,9,9,1,0.6,0.4,0.2,0.8,1,0,,,,,,,,,,,,,,,,,,,,,,,,,,,,,,,,,,,,
,,5e15bb77e78021b9d45d8cf4,66daf59e805b033eede348a5,2024-09-06_14h29.35.591,mdp,2024.2.1,Win32,60.16847172,66d7945b1baad48e845df3ce,,,,,,,,,,,,,,,,,,,,,1148.725,1148.726,1148.726,1149.575,0,1,left,0.315,,1149.576,1149.577,0,0,,1149.577,1149.578,1,1,,0,1149.578,1149.578,1149.578,1151.074,0,10,10,10,1,0.6,0.4,0.2,0.8,1,0,,,,,,,,,,,,,,,,,,,,,,,,,,,,,,,,,,,,
,,5e15bb77e78021b9d45d8cf4,66daf59e805b033eede348a5,2024-09-06_14h29.35.591,mdp,2024.2.1,Win32,60.16847172,66d7945b1baad48e845df3ce,,,,,,,,,,,,,,,,,,,,,1151.074,1151.074,1151.075,1151.873,0,1,left,0.284,,1151.874,1151.876,0,1,,1151.877,1151.877,1,0,,0,1151.877,1151.877,1151.877,1153.373,0,11,11,11,1,0.4,0.6,0.8,0.2,1,0,,,,,,,,,,,,,,,,,,,,,,,,,,,,,,,,,,,,
,,5e15bb77e78021b9d45d8cf4,66daf59e805b033eede348a5,2024-09-06_14h29.35.591,mdp,2024.2.1,Win32,60.16847172,66d7945b1baad48e845df3ce,,,,,,,,,,,,,,,,,,,,,1153.374,1153.374,1153.374,1154.172,0,0,left,0.266,,1154.173,1154.174,0,0,,1154.175,1154.175,1,0,,1,1154.175,1154.175,1154.176,1155.671,0,12,12,12,1,0.6,0.4,0.4,0.6,1,0,,,,,,,,,,,,,,,,,,,,,,,,,,,,,,,,,,,,
,,5e15bb77e78021b9d45d8cf4,66daf59e805b033eede348a5,2024-09-06_14h29.35.591,mdp,2024.2.1,Win32,60.16847172,66d7945b1baad48e845df3ce,,,,,,,,,,,,,,,,,,,,,1155.671,1155.671,1155.672,1156.437,0,0,left,0.251,,1156.438,1156.44,0,1,,1156.441,1156.441,1,0,,1,1156.441,1156.441,1156.441,1157.936,0,13,13,13,1,0.6,0.4,0.4,0.6,1,0,,,,,,,,,,,,,,,,,,,,,,,,,,,,,,,,,,,,
,,5e15bb77e78021b9d45d8cf4,66daf59e805b033eede348a5,2024-09-06_14h29.35.591,mdp,2024.2.1,Win32,60.16847172,66d7945b1baad48e845df3ce,,,,,,,,,,,,,,,,,,,,,1157.937,1157.937,1157.938,1158.737,1,1,right,0.273,,1158.737,1158.739,0,1,,1158.74,1158.74,1,1,,0,1158.74,1158.74,1158.741,1160.235,0,14,14,14,1,0.6,0.4,0.4,0.6,1,0,,,,,,,,,,,,,,,,,,,,,,,,,,,,,,,,,,,,
,,5e15bb77e78021b9d45d8cf4,66daf59e805b033eede348a5,2024-09-06_14h29.35.591,mdp,2024.2.1,Win32,60.16847172,66d7945b1baad48e845df3ce,,,,,,,,,,,,,,,,,,,,,1160.235,1160.235,1160.237,1160.935,1,1,right,0.191,,1160.937,1160.939,0,0,,1160.939,1160.941,1,0,,0,1160.941,1160.941,1160.941,1162.434,0,15,15,15,1,0.6,0.4,0.4,0.6,1,0,,,,,,,,,,,,,,,,,,,,,,,,,,,,,,,,,,,,
,,5e15bb77e78021b9d45d8cf4,66daf59e805b033eede348a5,2024-09-06_14h29.35.591,mdp,2024.2.1,Win32,60.16847172,66d7945b1baad48e845df3ce,,,,,,,,,,,,,,,,,,,,,1162.434,1162.434,1162.435,1163.217,0,1,left,0.266,,1163.218,1163.22,0,1,,1163.221,1163.221,1,0,,0,1163.221,1163.221,1163.222,1164.717,0,16,16,16,1,0.4,0.6,0.8,0.2,1,0,,,,,,,,,,,,,,,,,,,,,,,,,,,,,,,,,,,,
,,5e15bb77e78021b9d45d8cf4,66daf59e805b033eede348a5,2024-09-06_14h29.35.591,mdp,2024.2.1,Win32,60.16847172,66d7945b1baad48e845df3ce,,,,,,,,,,,,,,,,,,,,,1164.717,1164.717,1164.718,1165.533,0,1,left,0.284,,1165.536,1165.538,0,1,,1165.54,1165.541,1,0,,0,1165.541,1165.541,1165.541,1167.032,0,17,17,17,1,0.4,0.6,0.8,0.2,1,0,,,,,,,,,,,,,,,,,,,,,,,,,,,,,,,,,,,,
,,5e15bb77e78021b9d45d8cf4,66daf59e805b033eede348a5,2024-09-06_14h29.35.591,mdp,2024.2.1,Win32,60.16847172,66d7945b1baad48e845df3ce,,,,,,,,,,,,,,,,,,,,,1167.032,1167.032,1167.033,1167.631,1,0,right,0.07,,1167.632,1167.633,0,0,,1167.634,1167.635,1,0,,1,1167.635,1167.635,1167.635,1169.131,0,18,18,18,1,0.4,0.6,0.8,0.2,1,0,,,,,,,,,,,,,,,,,,,,,,,,,,,,,,,,,,,,
,,5e15bb77e78021b9d45d8cf4,66daf59e805b033eede348a5,2024-09-06_14h29.35.591,mdp,2024.2.1,Win32,60.16847172,66d7945b1baad48e845df3ce,,,,,,,,,,,,,,,,,,,,,1169.131,1169.131,1169.132,1169.93,1,0,right,0.269,,1169.93,1169.931,0,0,,1169.932,1169.934,1,0,,1,1169.934,1169.934,1169.935,1171.429,0,19,19,19,1,0.4,0.6,0.8,0.2,1,0,,,,,,,,,,,,,,,,,,,,,,,,,,,,,,,,,,,,
,,5e15bb77e78021b9d45d8cf4,66daf59e805b033eede348a5,2024-09-06_14h29.35.591,mdp,2024.2.1,Win32,60.16847172,66d7945b1baad48e845df3ce,,,,,,,,,,,,,,,,,,,,,1171.43,1171.43,1171.43,1172.262,1,1,right,0.303,,1172.263,1172.264,0,0,,1172.266,1172.267,1,1,,0,1172.267,1172.267,1172.268,1173.761,0,20,20,20,1,0.6,0.4,0.6,0.4,1,0,,,,,,,,,,,,,,,,,,,,,,,,,,,,,,,,,,,,
,,5e15bb77e78021b9d45d8cf4,66daf59e805b033eede348a5,2024-09-06_14h29.35.591,mdp,2024.2.1,Win32,60.16847172,66d7945b1baad48e845df3ce,,,,,,,,,,,,,,,,,,,,,1173.761,1173.761,1173.763,1174.444,1,0,right,0.177,,1174.445,1174.446,0,0,,1174.447,1174.447,1,1,,1,1174.447,1174.447,1174.448,1175.943,0,21,21,21,1,0.6,0.4,0.6,0.4,1,0,,,,,,,,,,,,,,,,,,,,,,,,,,,,,,,,,,,,
,,5e15bb77e78021b9d45d8cf4,66daf59e805b033eede348a5,2024-09-06_14h29.35.591,mdp,2024.2.1,Win32,60.16847172,66d7945b1baad48e845df3ce,,,,,,,,,,,,,,,,,,,,,1175.943,1175.943,1175.943,1176.727,1,1,right,0.268,,1176.727,1176.728,0,1,,1176.729,1176.729,1,1,,0,1176.729,1176.729,1176.73,1178.225,0,22,22,22,1,0.6,0.4,0.6,0.4,1,0,,,,,,,,,,,,,,,,,,,,,,,,,,,,,,,,,,,,
,,5e15bb77e78021b9d45d8cf4,66daf59e805b033eede348a5,2024-09-06_14h29.35.591,mdp,2024.2.1,Win32,60.16847172,66d7945b1baad48e845df3ce,,,,,,,,,,,,,,,,,,,,,1178.225,1178.225,1178.226,1178.825,0,1,left,0.085,,1178.826,1178.827,0,1,,1178.828,1178.828,1,0,,0,1178.828,1178.828,1178.829,1180.324,0,23,23,23,1,0.4,0.6,0.8,0.2,1,0,,,,,,,,,,,,,,,,,,,,,,,,,,,,,,,,,,,,
,,5e15bb77e78021b9d45d8cf4,66daf59e805b033eede348a5,2024-09-06_14h29.35.591,mdp,2024.2.1,Win32,60.16847172,66d7945b1baad48e845df3ce,,,,,,,,,,,,,,,,,,,,,1180.325,1180.325,1180.325,1180.974,0,0,left,0.117,,1180.975,1180.976,0,0,,1180.977,1180.977,1,0,,1,1180.977,1180.977,1180.978,1182.473,0,24,24,24,1,0.4,0.6,0.8,0.2,1,0,,,,,,,,,,,,,,,,,,,,,,,,,,,,,,,,,,,,
,,5e15bb77e78021b9d45d8cf4,66daf59e805b033eede348a5,2024-09-06_14h29.35.591,mdp,2024.2.1,Win32,60.16847172,66d7945b1baad48e845df3ce,,,,,,,,,,,,,,,,,,,,,1182.473,1182.473,1182.475,1183.256,0,1,left,0.26,,1183.256,1183.257,0,1,,1183.258,1183.258,1,0,,0,1183.258,1183.258,1183.259,1184.756,0,25,25,25,1,0.4,0.6,0.8,0.2,1,0,,,,,,,,,,,,,,,,,,,,,,,,,,,,,,,,,,,,
,,5e15bb77e78021b9d45d8cf4,66daf59e805b033eede348a5,2024-09-06_14h29.35.591,mdp,2024.2.1,Win32,60.16847172,66d7945b1baad48e845df3ce,,,,,,,,,,,,,,,,,,,,,1184.756,1184.756,1184.757,1185.721,0,0,left,0.443,,1185.722,1185.723,0,0,,1185.723,1185.724,1,0,,1,1185.724,1185.724,1185.724,1187.221,0,26,26,26,1,0.8,0.2,0.2,0.8,1,0,,,,,,,,,,,,,,,,,,,,,,,,,,,,,,,,,,,,
,,5e15bb77e78021b9d45d8cf4,66daf59e805b033eede348a5,2024-09-06_14h29.35.591,mdp,2024.2.1,Win32,60.16847172,66d7945b1baad48e845df3ce,,,,,,,,,,,,,,,,,,,,,1187.221,1187.221,1187.222,1187.987,1,0,right,0.233,,1187.987,1187.988,0,1,,1187.989,1187.99,1,1,,1,1187.99,1187.99,1187.99,1189.486,0,27,27,27,1,0.8,0.2,0.2,0.8,1,0,,,,,,,,,,,,,,,,,,,,,,,,,,,,,,,,,,,,
,,5e15bb77e78021b9d45d8cf4,66daf59e805b033eede348a5,2024-09-06_14h29.35.591,mdp,2024.2.1,Win32,60.16847172,66d7945b1baad48e845df3ce,,,,,,,,,,,,,,,,,,,,,1189.486,1189.486,1189.487,1190.269,0,0,left,0.27,,1190.27,1190.271,0,0,,1190.271,1190.272,1,0,,1,1190.272,1190.272,1190.272,1191.768,0,28,28,28,1,0.8,0.2,0.2,0.8,1,0,,,,,,,,,,,,,,,,,,,,,,,,,,,,,,,,,,,,
,,5e15bb77e78021b9d45d8cf4,66daf59e805b033eede348a5,2024-09-06_14h29.35.591,mdp,2024.2.1,Win32,60.16847172,66d7945b1baad48e845df3ce,,,,,,,,,,,,,,,,,,,,,1191.768,1191.768,1191.769,1192.418,1,1,right,0.118,,1192.419,1192.42,0,1,,1192.421,1192.421,1,1,,0,1192.422,1192.422,1192.422,1193.917,0,29,29,29,1,0.8,0.2,0.2,0.8,1,0,,,,,,,,,,,,,,,,,,,,,,,,,,,,,,,,,,,,
,,5e15bb77e78021b9d45d8cf4,66daf59e805b033eede348a5,2024-09-06_14h29.35.591,mdp,2024.2.1,Win32,60.16847172,66d7945b1baad48e845df3ce,,,,,,,,,,,,,,,,,,,,,1193.917,1193.917,1193.919,1194.717,0,1,left,0.283,,1194.718,1194.719,0,0,,1194.719,1194.72,1,1,,0,1194.72,1194.72,1194.72,1196.216,0,30,30,30,1,0.4,0.6,0.6,0.4,1,0,,,,,,,,,,,,,,,,,,,,,,,,,,,,,,,,,,,,
,,5e15bb77e78021b9d45d8cf4,66daf59e805b033eede348a5,2024-09-06_14h29.35.591,mdp,2024.2.1,Win32,60.16847172,66d7945b1baad48e845df3ce,,,,,,,,,,,,,,,,,,,,,1196.216,1196.216,1196.216,1196.982,0,1,left,0.24,,1196.982,1196.985,0,1,,1196.985,1196.986,1,1,,0,1196.986,1196.986,1196.987,1198.482,0,31,31,31,1,0.4,0.6,0.6,0.4,1,0,,,,,,,,,,,,,,,,,,,,,,,,,,,,,,,,,,,,
,,5e15bb77e78021b9d45d8cf4,66daf59e805b033eede348a5,2024-09-06_14h29.35.591,mdp,2024.2.1,Win32,60.16847172,66d7945b1baad48e845df3ce,,,,,,,,,,,,,,,,,,,,,1198.487,1198.487,1198.488,1199.313,0,0,left,0.299,,1199.314,1199.316,0,1,,1199.317,1199.318,1,0,,1,1199.318,1199.318,1199.318,1200.813,0,32,32,32,1,0.6,0.4,0.4,0.6,1,0,,,,,,,,,,,,,,,,,,,,,,,,,,,,,,,,,,,,
,,5e15bb77e78021b9d45d8cf4,66daf59e805b033eede348a5,2024-09-06_14h29.35.591,mdp,2024.2.1,Win32,60.16847172,66d7945b1baad48e845df3ce,,,,,,,,,,,,,,,,,,,,,1200.814,1200.814,1200.815,1201.612,0,0,left,0.266,,1201.614,1201.615,0,1,,1201.616,1201.616,1,1,,1,1201.616,1201.616,1201.616,1203.111,0,33,33,33,1,0.6,0.4,0.4,0.6,1,0,,,,,,,,,,,,,,,,,,,,,,,,,,,,,,,,,,,,
,,5e15bb77e78021b9d45d8cf4,66daf59e805b033eede348a5,2024-09-06_14h29.35.591,mdp,2024.2.1,Win32,60.16847172,66d7945b1baad48e845df3ce,,,,,,,,,,,,,,,,,,,,,1203.112,1203.112,1203.113,1203.644,0,1,left,0.02,,1203.646,1203.647,0,1,,1203.649,1203.649,1,1,,0,1203.65,1203.65,1203.65,1205.143,0,34,34,34,1,0.6,0.4,0.4,0.6,1,0,,,,,,,,,,,,,,,,,,,,,,,,,,,,,,,,,,,,
,,5e15bb77e78021b9d45d8cf4,66daf59e805b033eede348a5,2024-09-06_14h29.35.591,mdp,2024.2.1,Win32,60.16847172,66d7945b1baad48e845df3ce,,,,,,,,,,,,,,,,,,,,,1205.145,1205.145,1205.145,1205.943,1,1,right,0.276,,1205.944,1205.945,0,1,,1205.946,1205.946,1,0,,0,1205.946,1205.946,1205.947,1207.442,0,35,35,35,1,0.6,0.4,0.4,0.6,1,0,,,,,,,,,,,,,,,,,,,,,,,,,,,,,,,,,,,,
,,5e15bb77e78021b9d45d8cf4,66daf59e805b033eede348a5,2024-09-06_14h29.35.591,mdp,2024.2.1,Win32,60.16847172,66d7945b1baad48e845df3ce,,,,,,,,,,,,,,,,,,,,,1207.443,1207.443,1207.444,1208.192,1,1,right,0.223,,1208.193,1208.194,0,1,,1208.194,1208.195,1,0,,0,1208.195,1208.195,1208.195,1209.692,0,36,36,36,1,0.6,0.4,0.4,0.6,1,0,,,,,,,,,,,,,,,,,,,,,,,,,,,,,,,,,,,,
,,5e15bb77e78021b9d45d8cf4,66daf59e805b033eede348a5,2024-09-06_14h29.35.591,mdp,2024.2.1,Win32,60.16847172,66d7945b1baad48e845df3ce,,,,,,,,,,,,,,,,,,,,,1209.692,1209.692,1209.693,1210.474,1,1,right,0.25,,1210.475,1210.475,0,1,,1210.477,1210.477,1,1,,0,1210.477,1210.477,1210.478,1211.973,0,37,37,37,1,0.6,0.4,0.4,0.6,1,0,,,,,,,,,,,,,,,,,,,,,,,,,,,,,,,,,,,,
,,5e15bb77e78021b9d45d8cf4,66daf59e805b033eede348a5,2024-09-06_14h29.35.591,mdp,2024.2.1,Win32,60.16847172,66d7945b1baad48e845df3ce,,,,,,,,,,,,,,,,,,,,,1211.974,1211.974,1211.975,1212.606,1,1,right,0.108,,1212.607,1212.608,0,1,,1212.608,1212.609,1,0,,0,1212.609,1212.609,1212.609,1214.105,0,38,38,38,1,0.6,0.4,0.4,0.6,1,0,,,,,,,,,,,,,,,,,,,,,,,,,,,,,,,,,,,,
,,5e15bb77e78021b9d45d8cf4,66daf59e805b033eede348a5,2024-09-06_14h29.35.591,mdp,2024.2.1,Win32,60.16847172,66d7945b1baad48e845df3ce,,,,,,,,,,,,,,,,,,,,,1214.106,1214.106,1214.108,1214.655,1,1,right,0.035,,1214.656,1214.657,0,0,,1214.658,1214.658,1,0,,0,1214.658,1214.658,1214.659,1216.154,0,39,39,39,1,0.6,0.4,0.4,0.6,1,0,,,,,,,,,,,,,,,,,,,,,,,,,,,,,,,,,,,,
,,5e15bb77e78021b9d45d8cf4,66daf59e805b033eede348a5,2024-09-06_14h29.35.591,mdp,2024.2.1,Win32,60.16847172,66d7945b1baad48e845df3ce,,,,,,,,,,,,,,,,,,,,,1216.155,1216.155,1216.156,1216.821,0,0,left,0.134,,1216.821,1216.822,0,0,,1216.823,1216.823,1,1,,1,1216.823,1216.823,1216.824,1218.32,0,40,40,40,1,0.6,0.4,0.4,0.6,1,0,,,,,,,,,,,,,,,,,,,,,,,,,,,,,,,,,,,,
,,5e15bb77e78021b9d45d8cf4,66daf59e805b033eede348a5,2024-09-06_14h29.35.591,mdp,2024.2.1,Win32,60.16847172,66d7945b1baad48e845df3ce,,,,,,,,,,,,,,,,,,,,,1218.32,1218.32,1218.321,1219.12,0,0,left,0.286,,1219.12,1219.12,0,0,,1219.121,1219.122,1,0,,1,1219.122,1219.122,1219.122,1220.618,0,41,41,41,1,0.6,0.4,0.4,0.6,1,0,,,,,,,,,,,,,,,,,,,,,,,,,,,,,,,,,,,,
,,5e15bb77e78021b9d45d8cf4,66daf59e805b033eede348a5,2024-09-06_14h29.35.591,mdp,2024.2.1,Win32,60.16847172,66d7945b1baad48e845df3ce,,,,,,,,,,,,,,,,,,,,,1220.619,1220.619,1220.62,1221.285,0,1,left,0.139,,1221.285,1221.286,0,0,,1221.287,1221.288,1,0,,0,1221.288,1221.288,1221.288,1222.784,0,42,42,42,1,0.6,0.4,0.4,0.6,1,0,,,,,,,,,,,,,,,,,,,,,,,,,,,,,,,,,,,,
,,5e15bb77e78021b9d45d8cf4,66daf59e805b033eede348a5,2024-09-06_14h29.35.591,mdp,2024.2.1,Win32,60.16847172,66d7945b1baad48e845df3ce,,,,,,,,,,,,,,,,,,,,,1222.784,1222.784,1222.785,1223.4,0,1,left,0.107,,1223.401,1223.402,0,0,,1223.404,1223.404,1,1,,0,1223.404,1223.404,1223.404,1224.9,0,43,43,43,1,0.6,0.4,0.4,0.6,1,0,,,,,,,,,,,,,,,,,,,,,,,,,,,,,,,,,,,,
,,5e15bb77e78021b9d45d8cf4,66daf59e805b033eede348a5,2024-09-06_14h29.35.591,mdp,2024.2.1,Win32,60.16847172,66d7945b1baad48e845df3ce,,,,,,,,,,,,,,,,,,,,,1224.901,1224.901,1224.901,1225.583,1,1,right,0.151,,1225.584,1225.584,0,0,,1225.585,1225.586,1,1,,0,1225.586,1225.586,1225.586,1227.082,0,44,44,44,1,0.6,0.4,0.4,0.6,1,0,,,,,,,,,,,,,,,,,,,,,,,,,,,,,,,,,,,,
,,5e15bb77e78021b9d45d8cf4,66daf59e805b033eede348a5,2024-09-06_14h29.35.591,mdp,2024.2.1,Win32,60.16847172,66d7945b1baad48e845df3ce,,,,,,,,,,,,,,,,,,,,,1227.082,1227.082,1227.083,1227.898,0,1,left,0.286,,1227.899,1227.9,0,1,,1227.901,1227.902,1,0,,0,1227.902,1227.902,1227.902,1229.397,0,45,45,45,1,0.6,0.4,0.4,0.6,1,0,,,,,,,,,,,,,,,,,,,,,,,,,,,,,,,,,,,,
,,5e15bb77e78021b9d45d8cf4,66daf59e805b033eede348a5,2024-09-06_14h29.35.591,mdp,2024.2.1,Win32,60.16847172,66d7945b1baad48e845df3ce,,,,,,,,,,,,,,,,,,,,,1229.398,1229.398,1229.399,1230.147,1,0,right,0.22,,1230.147,1230.149,0,0,,1230.149,1230.15,1,1,,1,1230.15,1230.15,1230.15,1231.646,0,46,46,46,1,0.4,0.6,0.8,0.2,1,0,,,,,,,,,,,,,,,,,,,,,,,,,,,,,,,,,,,,
,,5e15bb77e78021b9d45d8cf4,66daf59e805b033eede348a5,2024-09-06_14h29.35.591,mdp,2024.2.1,Win32,60.16847172,66d7945b1baad48e845df3ce,,,,,,,,,,,,,,,,,,,,,1231.649,1231.649,1231.651,1232.346,1,0,right,0.166,,1232.346,1232.347,0,0,,1232.348,1232.349,1,0,,1,1232.349,1232.349,1232.349,1233.845,0,47,47,47,1,0.4,0.6,0.8,0.2,1,0,,,,,,,,,,,,,,,,,,,,,,,,,,,,,,,,,,,,
,,5e15bb77e78021b9d45d8cf4,66daf59e805b033eede348a5,2024-09-06_14h29.35.591,mdp,2024.2.1,Win32,60.16847172,66d7945b1baad48e845df3ce,,,,,,,,,,,,,,,,,,,,,1233.845,1233.845,1233.846,1234.411,1,0,right,0.034,,1234.412,1234.412,0,0,,1234.414,1234.414,1,0,,1,1234.414,1234.414,1234.415,1235.91,0,48,48,48,1,0.4,0.6,0.8,0.2,1,0,,,,,,,,,,,,,,,,,,,,,,,,,,,,,,,,,,,,
,,5e15bb77e78021b9d45d8cf4,66daf59e805b033eede348a5,2024-09-06_14h29.35.591,mdp,2024.2.1,Win32,60.16847172,66d7945b1baad48e845df3ce,,,,,,,,,,,,,,,,,,,,,1235.911,1235.911,1235.912,1236.743,0,1,left,0.3,,1236.745,1236.746,0,0,,1236.746,1236.748,1,1,,0,1236.748,1236.748,1236.749,1238.242,0,49,49,49,1,0.4,0.6,0.8,0.2,1,0,,,,,,,,,,,,,,,,,,,,,,,,,,,,,,,,,,,,
,,5e15bb77e78021b9d45d8cf4,66daf59e805b033eede348a5,2024-09-06_14h29.35.591,mdp,2024.2.1,Win32,60.16847172,66d7945b1baad48e845df3ce,,,,,,,,,,,,,,,,,,,,,,,,,,,,,,,,,,,,,,,,,,,,,,,,,,,,,,,,1238.242,1296.76,0,4,4,3,1,imgs/dog.png,imgs/lion.png,imgs/cat.png,imgs/giraffe.png,imgs/rabbit.png,,,,,,,,,,,,,,,,,,,,,,,,
,,5e15bb77e78021b9d45d8cf4,66daf59e805b033eede348a5,2024-09-06_14h29.35.591,mdp,2024.2.1,Win32,60.16847172,66d7945b1baad48e845df3ce,,,,,,,,,,,,,,2,seqs/st2seq1.csv,1296.764,1303.207,space,5.915,,1303.214,1303.215,1303.217,1304.156,0,0,left,0.405,,1304.157,1305.055,1,0,right,1305.056,1305.057,1,1,,1,1305.057,1305.057,1305.058,1306.554,0,0,0,0,1,0.6,0.4,0.4,0.6,,,,,,,,,,,,,,,0.364,,0.6,0.4,0.2,0.8,0.8,0.2,0.8,0.2,1,0,,,,,,,,,,,,
