init_exp.started,init_exp.stopped,participant,session,date,expName,psychopyVersion,OS,frameRate,study_id,disp_instruction.started,disp_instruction.stopped,instruction.thisRepN,instruction.thisTrialN,instruction.thisN,instruction.thisIndex,instruction.ran,instimg_path,consent.started,consent.stopped,key_resp_3.keys,key_resp_3.rt,key_resp_3.duration,n_steps,sequence_path,init_block.started,init_block.stopped,key_resp.keys,key_resp.rt,key_resp.duration,init_trials.started,init_trials.stopped,step0.started,step0.stopped,act0,s1,res0.keys,res0.rt,res0.duration,step1.started,step1.stopped,act1,s2,res1.keys,step2.started,step2.stopped,act2,s3,res2.keys,rew,reward_comp.started,reward_comp.stopped,reward_disp.started,reward_disp.stopped,trials.thisRepN,trials.thisTrialN,trials.thisN,trials.thisIndex,trials.ran,s00a0s10,s00a0s11,s00a1s10,s00a1s11,rew10,rew11,break_block.started,break_block.stopped,block.thisRepN,block.thisTrialN,block.thisN,block.thisIndex,block.ran,s00path,s10path,s11path,s20path,s21path,res1.rt,res1.duration,s10a0s20,s10a0s21,s10a1s20,s10a1s21,s11a0s20,s11a0s21,s11a1s20,s11a1s21,rew20,rew21,res2.rt,res2.duration,s20a0s30,s20a0s31,s20a1s30,s20a1s31,s21a0s30,s21a0s31,s21a1s30,s21a1s31,rew30,rew31
0.0007,0.0032,5e23c2569138e066e7e892f7,66fc995eec791041f70b8218,2024-10-02_01h53.26.964,mdp,2024.2.1,Win32,59.52380952,66fa4ebf79326e780c390304,,,,,,,,,,,,,,,,,,,,,,,,,,,,,,,,,,,,,,,,,,,,,,,,,,,,,,,,,,,,,,,,,,,,,,,,,,,,,,,,,,,,,,,,,,,
,,5e23c2569138e066e7e892f7,66fc995eec791041f70b8218,2024-10-02_01h53.26.964,mdp,2024.2.1,Win32,59.52380952,66fa4ebf79326e780c390304,0.0077,37.6781,0,0,0,0,1,rlnn_exp/rlnn_exp.001.png,,,,,,,,,,,,,,,,,,,,,,,,,,,,,,,,,,,,,,,,,,,,,,,,,,,,,,,,,,,,,,,,,,,,,,,,,,,,,,,,,,,
,,5e23c2569138e066e7e892f7,66fc995eec791041f70b8218,2024-10-02_01h53.26.964,mdp,2024.2.1,Win32,59.52380952,66fa4ebf79326e780c390304,37.6789,84.396,0,1,1,1,1,rlnn_exp/rlnn_exp.002.png,,,,,,,,,,,,,,,,,,,,,,,,,,,,,,,,,,,,,,,,,,,,,,,,,,,,,,,,,,,,,,,,,,,,,,,,,,,,,,,,,,,
,,5e23c2569138e066e7e892f7,66fc995eec791041f70b8218,2024-10-02_01h53.26.964,mdp,2024.2.1,Win32,59.52380952,66fa4ebf79326e780c390304,84.3972,112.7951,0,2,2,2,1,rlnn_exp/rlnn_exp.003.png,,,,,,,,,,,,,,,,,,,,,,,,,,,,,,,,,,,,,,,,,,,,,,,,,,,,,,,,,,,,,,,,,,,,,,,,,,,,,,,,,,,
,,5e23c2569138e066e7e892f7,66fc995eec791041f70b8218,2024-10-02_01h53.26.964,mdp,2024.2.1,Win32,59.52380952,66fa4ebf79326e780c390304,112.7958,138.9063,0,3,3,3,1,rlnn_exp/rlnn_exp.004.png,,,,,,,,,,,,,,,,,,,,,,,,,,,,,,,,,,,,,,,,,,,,,,,,,,,,,,,,,,,,,,,,,,,,,,,,,,,,,,,,,,,
,,5e23c2569138e066e7e892f7,66fc995eec791041f70b8218,2024-10-02_01h53.26.964,mdp,2024.2.1,Win32,59.52380952,66fa4ebf79326e780c390304,,,,,,,,,138.9066,149.401,y,0.4687,,,,,,,,,,,,,,,,,,,,,,,,,,,,,,,,,,,,,,,,,,,,,,,,,,,,,,,,,,,,,,,,,,,,,,,,,,,,,,,
,,5e23c2569138e066e7e892f7,66fc995eec791041f70b8218,2024-10-02_01h53.26.964,mdp,2024.2.1,Win32,59.52380952,66fa4ebf79326e780c390304,,,,,,,,,,,,,,1,seqs/st1seq28.csv,149.4052,151.7372,space,1.8023,,151.7397,151.7399,151.7401,203.5779,1,0,right,51.3023,,203.5784,203.58,,0,,203.5803,203.5811,,1,,1,203.5812,203.5813,203.5815,205.0793,0,0,0,0,1,0.8,0.2,0.8,0.2,1,0,,,,,,,,,,,,,,,,,,,,,,,,,,,,,,,,,,,,
,,5e23c2569138e066e7e892f7,66fc995eec791041f70b8218,2024-10-02_01h53.26.964,mdp,2024.2.1,Win32,59.52380952,66fa4ebf79326e780c390304,,,,,,,,,,,,,,,,,,,,,205.0796,205.0796,205.0798,214.3263,1,0,right,8.7429,,214.3272,214.3278,,1,,214.3282,214.3286,,0,,1,214.3286,214.3286,214.329,215.8249,0,1,1,1,1,0.8,0.2,0.8,0.2,1,0,,,,,,,,,,,,,,,,,,,,,,,,,,,,,,,,,,,,
,,5e23c2569138e066e7e892f7,66fc995eec791041f70b8218,2024-10-02_01h53.26.964,mdp,2024.2.1,Win32,59.52380952,66fa4ebf79326e780c390304,,,,,,,,,,,,,,,,,,,,,215.8258,215.8258,215.8273,218.1445,1,1,right,1.7907,,218.1459,218.1465,,0,,218.1471,218.1475,,0,,0,218.1476,218.1476,218.148,219.6456,0,2,2,2,1,0.8,0.2,0.8,0.2,1,0,,,,,,,,,,,,,,,,,,,,,,,,,,,,,,,,,,,,
,,5e23c2569138e066e7e892f7,66fc995eec791041f70b8218,2024-10-02_01h53.26.964,mdp,2024.2.1,Win32,59.52380952,66fa4ebf79326e780c390304,,,,,,,,,,,,,,,,,,,,,219.6469,219.6469,219.6481,221.6647,1,0,right,1.4859,,221.6657,221.6662,,0,,221.6667,221.6672,,1,,1,221.6672,221.6672,221.6676,223.1662,0,3,3,3,1,0.8,0.2,0.8,0.2,1,0,,,,,,,,,,,,,,,,,,,,,,,,,,,,,,,,,,,,
,,5e23c2569138e066e7e892f7,66fc995eec791041f70b8218,2024-10-02_01h53.26.964,mdp,2024.2.1,Win32,59.52380952,66fa4ebf79326e780c390304,,,,,,,,,,,,,,,,,,,,,223.1675,223.1675,223.1685,226.4032,1,0,right,2.7084,,226.4042,226.4048,,0,,226.4053,226.4056,,0,,1,226.4057,226.4057,226.4061,227.9047,0,4,4,4,1,0.8,0.2,0.8,0.2,1,0,,,,,,,,,,,,,,,,,,,,,,,,,,,,,,,,,,,,
,,5e23c2569138e066e7e892f7,66fc995eec791041f70b8218,2024-10-02_01h53.26.964,mdp,2024.2.1,Win32,59.52380952,66fa4ebf79326e780c390304,,,,,,,,,,,,,,,,,,,,,227.9054,227.9054,227.9065,229.74,1,0,right,1.31,,229.7412,229.7425,,1,,229.7431,229.7435,,0,,1,229.7436,229.7436,229.744,231.242,0,5,5,5,1,0.8,0.2,0.8,0.2,1,0,,,,,,,,,,,,,,,,,,,,,,,,,,,,,,,,,,,,
,,5e23c2569138e066e7e892f7,66fc995eec791041f70b8218,2024-10-02_01h53.26.964,mdp,2024.2.1,Win32,59.52380952,66fa4ebf79326e780c390304,,,,,,,,,,,,,,,,,,,,,231.2427,231.2427,231.2435,232.3768,1,1,right,0.602,,232.3782,232.3787,,0,,232.3792,232.3796,,0,,0,232.3796,232.3796,232.38,233.8781,0,6,6,6,1,0.6,0.4,0.2,0.8,1,0,,,,,,,,,,,,,,,,,,,,,,,,,,,,,,,,,,,,
,,5e23c2569138e066e7e892f7,66fc995eec791041f70b8218,2024-10-02_01h53.26.964,mdp,2024.2.1,Win32,59.52380952,66fa4ebf79326e780c390304,,,,,,,,,,,,,,,,,,,,,233.8789,233.8789,233.8803,235.2131,1,1,right,0.8106,,235.2143,235.2149,,1,,235.2154,235.2158,,0,,0,235.2159,235.2159,235.2163,236.7144,0,7,7,7,1,0.6,0.4,0.2,0.8,1,0,,,,,,,,,,,,,,,,,,,,,,,,,,,,,,,,,,,,
,,5e23c2569138e066e7e892f7,66fc995eec791041f70b8218,2024-10-02_01h53.26.964,mdp,2024.2.1,Win32,59.52380952,66fa4ebf79326e780c390304,,,,,,,,,,,,,,,,,,,,,236.7153,236.7155,236.7165,237.9164,0,0,left,0.6675,,237.9177,237.9184,,0,,237.9188,237.9193,,0,,1,237.9193,237.9193,237.9197,239.4176,0,8,8,8,1,0.8,0.2,0.4,0.6,1,0,,,,,,,,,,,,,,,,,,,,,,,,,,,,,,,,,,,,
,,5e23c2569138e066e7e892f7,66fc995eec791041f70b8218,2024-10-02_01h53.26.964,mdp,2024.2.1,Win32,59.52380952,66fa4ebf79326e780c390304,,,,,,,,,,,,,,,,,,,,,239.4185,239.4185,239.4195,242.4545,1,1,right,2.5037,,242.4556,242.456,,1,,242.4564,242.4568,,0,,0,242.4568,242.4568,242.4574,243.9556,0,9,9,9,1,0.8,0.2,0.4,0.6,1,0,,,,,,,,,,,,,,,,,,,,,,,,,,,,,,,,,,,,
,,5e23c2569138e066e7e892f7,66fc995eec791041f70b8218,2024-10-02_01h53.26.964,mdp,2024.2.1,Win32,59.52380952,66fa4ebf79326e780c390304,,,,,,,,,,,,,,,,,,,,,243.9562,243.9562,243.9575,244.7071,0,0,left,0.2275,,244.7084,244.7095,,0,,244.71,244.7104,,0,,1,244.7105,244.7105,244.7108,246.2082,0,10,10,10,1,0.8,0.2,0.4,0.6,1,0,,,,,,,,,,,,,,,,,,,,,,,,,,,,,,,,,,,,
,,5e23c2569138e066e7e892f7,66fc995eec791041f70b8218,2024-10-02_01h53.26.964,mdp,2024.2.1,Win32,59.52380952,66fa4ebf79326e780c390304,,,,,,,,,,,,,,,,,,,,,246.2092,246.2092,246.2101,247.994,1,0,right,1.2518,,247.9953,247.9959,,1,,247.9964,247.9968,,1,,1,247.9968,247.9968,247.9972,249.4953,0,11,11,11,1,0.8,0.2,0.4,0.6,1,0,,,,,,,,,,,,,,,,,,,,,,,,,,,,,,,,,,,,
,,5e23c2569138e066e7e892f7,66fc995eec791041f70b8218,2024-10-02_01h53.26.964,mdp,2024.2.1,Win32,59.52380952,66fa4ebf79326e780c390304,,,,,,,,,,,,,,,,,,,,,249.4964,249.4964,249.4975,250.3793,1,0,right,0.3509,,250.3806,250.3812,,0,,250.3817,250.3822,,1,,1,250.3823,250.3823,250.3827,251.8811,0,12,12,12,1,0.8,0.2,0.4,0.6,1,0,,,,,,,,,,,,,,,,,,,,,,,,,,,,,,,,,,,,
,,5e23c2569138e066e7e892f7,66fc995eec791041f70b8218,2024-10-02_01h53.26.964,mdp,2024.2.1,Win32,59.52380952,66fa4ebf79326e780c390304,,,,,,,,,,,,,,,,,,,,,251.882,251.882,251.8831,253.1324,0,0,left,0.7256,,253.1337,253.1343,,0,,253.1347,253.1353,,1,,1,253.1353,253.1353,253.1357,254.634,0,13,13,13,1,0.8,0.2,0.4,0.6,1,0,,,,,,,,,,,,,,,,,,,,,,,,,,,,,,,,,,,,
,,5e23c2569138e066e7e892f7,66fc995eec791041f70b8218,2024-10-02_01h53.26.964,mdp,2024.2.1,Win32,59.52380952,66fa4ebf79326e780c390304,,,,,,,,,,,,,,,,,,,,,254.6345,254.6345,254.6355,255.4524,1,0,right,0.2947,,255.4537,255.4541,,0,,255.4547,255.4551,,0,,1,255.4551,255.4551,255.4555,256.9536,0,14,14,14,1,0.8,0.2,0.4,0.6,1,0,,,,,,,,,,,,,,,,,,,,,,,,,,,,,,,,,,,,
,,5e23c2569138e066e7e892f7,66fc995eec791041f70b8218,2024-10-02_01h53.26.964,mdp,2024.2.1,Win32,59.52380952,66fa4ebf79326e780c390304,,,,,,,,,,,,,,,,,,,,,256.9544,256.9545,256.9555,258.305,1,0,right,0.8308,,258.3063,258.3072,,1,,258.3081,258.3088,,0,,1,258.3089,258.3089,258.3093,259.8066,0,15,15,15,1,0.8,0.2,0.4,0.6,1,0,,,,,,,,,,,,,,,,,,,,,,,,,,,,,,,,,,,,
,,5e23c2569138e066e7e892f7,66fc995eec791041f70b8218,2024-10-02_01h53.26.964,mdp,2024.2.1,Win32,59.52380952,66fa4ebf79326e780c390304,,,,,,,,,,,,,,,,,,,,,259.8072,259.8072,259.8082,261.008,0,1,left,0.672,,261.0094,261.0102,,0,,261.0109,261.0115,,0,,0,261.0115,261.0115,261.012,262.5095,0,16,16,16,1,0.8,0.2,0.4,0.6,1,0,,,,,,,,,,,,,,,,,,,,,,,,,,,,,,,,,,,,
,,5e23c2569138e066e7e892f7,66fc995eec791041f70b8218,2024-10-02_01h53.26.964,mdp,2024.2.1,Win32,59.52380952,66fa4ebf79326e780c390304,,,,,,,,,,,,,,,,,,,,,262.5104,262.5104,262.5116,263.6778,1,1,right,0.6357,,263.6794,263.6804,,0,,263.681,263.6813,,0,,0,263.6814,263.6814,263.6818,265.179,0,17,17,17,1,0.8,0.2,0.4,0.6,1,0,,,,,,,,,,,,,,,,,,,,,,,,,,,,,,,,,,,,
,,5e23c2569138e066e7e892f7,66fc995eec791041f70b8218,2024-10-02_01h53.26.964,mdp,2024.2.1,Win32,59.52380952,66fa4ebf79326e780c390304,,,,,,,,,,,,,,,,,,,,,265.1801,265.1801,265.1814,265.7799,1,0,right,0.076,,265.782,265.7826,,0,,265.7829,265.7833,,1,,1,265.7834,265.7834,265.7837,267.2814,0,18,18,18,1,0.2,0.8,0.6,0.4,1,0,,,,,,,,,,,,,,,,,,,,,,,,,,,,,,,,,,,,
,,5e23c2569138e066e7e892f7,66fc995eec791041f70b8218,2024-10-02_01h53.26.964,mdp,2024.2.1,Win32,59.52380952,66fa4ebf79326e780c390304,,,,,,,,,,,,,,,,,,,,,267.282,267.2821,267.2829,268.2493,1,1,right,0.435,,268.2505,268.2511,,0,,268.2517,268.2523,,1,,0,268.2524,268.2524,268.2528,269.7508,0,19,19,19,1,0.6,0.4,0.2,0.8,1,0,,,,,,,,,,,,,,,,,,,,,,,,,,,,,,,,,,,,
,,5e23c2569138e066e7e892f7,66fc995eec791041f70b8218,2024-10-02_01h53.26.964,mdp,2024.2.1,Win32,59.52380952,66fa4ebf79326e780c390304,,,,,,,,,,,,,,,,,,,,,269.7515,269.7515,269.7524,270.6689,0,0,left,0.3882,,270.6707,270.6717,,0,,270.6723,270.6727,,0,,1,270.6728,270.6728,270.6733,272.1702,0,20,20,20,1,0.6,0.4,0.2,0.8,1,0,,,,,,,,,,,,,,,,,,,,,,,,,,,,,,,,,,,,
,,5e23c2569138e066e7e892f7,66fc995eec791041f70b8218,2024-10-02_01h53.26.964,mdp,2024.2.1,Win32,59.52380952,66fa4ebf79326e780c390304,,,,,,,,,,,,,,,,,,,,,272.1708,272.1708,272.1718,272.9911,0,0,left,0.3001,,272.9921,272.9928,,0,,272.9933,272.9937,,1,,1,272.9937,272.9937,272.9942,274.4894,0,21,21,21,1,0.6,0.4,0.2,0.8,1,0,,,,,,,,,,,,,,,,,,,,,,,,,,,,,,,,,,,,
,,5e23c2569138e066e7e892f7,66fc995eec791041f70b8218,2024-10-02_01h53.26.964,mdp,2024.2.1,Win32,59.52380952,66fa4ebf79326e780c390304,,,,,,,,,,,,,,,,,,,,,274.4902,274.4902,274.4915,275.1735,1,0,right,0.1525,,275.1746,275.1752,,1,,275.1757,275.1761,,0,,1,275.1761,275.1761,275.1766,276.6753,0,22,22,22,1,0.6,0.4,0.2,0.8,1,0,,,,,,,,,,,,,,,,,,,,,,,,,,,,,,,,,,,,
,,5e23c2569138e066e7e892f7,66fc995eec791041f70b8218,2024-10-02_01h53.26.964,mdp,2024.2.1,Win32,59.52380952,66fa4ebf79326e780c390304,,,,,,,,,,,,,,,,,,,,,276.6762,276.6762,276.6773,277.6264,1,1,right,0.4195,,277.6276,277.6281,,1,,277.6285,277.6289,,1,,0,277.6289,277.6289,277.6293,279.1277,0,23,23,23,1,0.6,0.4,0.2,0.8,1,0,,,,,,,,,,,,,,,,,,,,,,,,,,,,,,,,,,,,
,,5e23c2569138e066e7e892f7,66fc995eec791041f70b8218,2024-10-02_01h53.26.964,mdp,2024.2.1,Win32,59.52380952,66fa4ebf79326e780c390304,,,,,,,,,,,,,,,,,,,,,279.1284,279.1285,279.1295,281.9311,1,1,right,2.2776,,281.9326,281.9334,,1,,281.9341,281.9346,,1,,0,281.9346,281.9346,281.935,283.4327,0,24,24,24,1,0.6,0.4,0.2,0.8,1,0,,,,,,,,,,,,,,,,,,,,,,,,,,,,,,,,,,,,
,,5e23c2569138e066e7e892f7,66fc995eec791041f70b8218,2024-10-02_01h53.26.964,mdp,2024.2.1,Win32,59.52380952,66fa4ebf79326e780c390304,,,,,,,,,,,,,,,,,,,,,283.4333,283.4334,283.4343,288.4215,0,0,left,4.4554,,288.4228,288.4233,,0,,288.4238,288.4244,,0,,1,288.4244,288.4244,288.4248,289.9231,0,25,25,25,1,0.6,0.4,0.2,0.8,1,0,,,,,,,,,,,,,,,,,,,,,,,,,,,,,,,,,,,,
,,5e23c2569138e066e7e892f7,66fc995eec791041f70b8218,2024-10-02_01h53.26.964,mdp,2024.2.1,Win32,59.52380952,66fa4ebf79326e780c390304,,,,,,,,,,,,,,,,,,,,,289.9239,289.9239,289.9248,292.4597,1,1,right,2.005,,292.4613,292.462,,0,,292.4625,292.4628,,1,,0,292.4628,292.4628,292.4632,293.9611,0,26,26,26,1,0.6,0.4,0.2,0.8,1,0,,,,,,,,,,,,,,,,,,,,,,,,,,,,,,,,,,,,
,,5e23c2569138e066e7e892f7,66fc995eec791041f70b8218,2024-10-02_01h53.26.964,mdp,2024.2.1,Win32,59.52380952,66fa4ebf79326e780c390304,,,,,,,,,,,,,,,,,,,,,293.9619,293.9619,293.9632,294.6291,1,0,right,0.139,,294.6306,294.6314,,1,,294.6321,294.6327,,0,,1,294.6327,294.6327,294.6332,296.1299,0,27,27,27,1,0.6,0.4,0.2,0.8,1,0,,,,,,,,,,,,,,,,,,,,,,,,,,,,,,,,,,,,
,,5e23c2569138e066e7e892f7,66fc995eec791041f70b8218,2024-10-02_01h53.26.964,mdp,2024.2.1,Win32,59.52380952,66fa4ebf79326e780c390304,,,,,,,,,,,,,,,,,,,,,296.1308,296.1309,296.1321,297.6653,1,1,right,1.0043,,297.6664,297.6669,,1,,297.6677,297.6684,,0,,0,297.6684,297.6684,297.6688,299.1668,0,28,28,28,1,0.6,0.4,0.2,0.8,1,0,,,,,,,,,,,,,,,,,,,,,,,,,,,,,,,,,,,,
,,5e23c2569138e066e7e892f7,66fc995eec791041f70b8218,2024-10-02_01h53.26.964,mdp,2024.2.1,Win32,59.52380952,66fa4ebf79326e780c390304,,,,,,,,,,,,,,,,,,,,,299.1674,299.1674,299.1682,300.1681,0,0,left,0.4726,,300.1691,300.1697,,0,,300.1702,300.1707,,0,,1,300.1707,300.1707,300.1711,301.6693,0,29,29,29,1,0.6,0.4,0.2,0.8,1,0,,,,,,,,,,,,,,,,,,,,,,,,,,,,,,,,,,,,
,,5e23c2569138e066e7e892f7,66fc995eec791041f70b8218,2024-10-02_01h53.26.964,mdp,2024.2.1,Win32,59.52380952,66fa4ebf79326e780c390304,,,,,,,,,,,,,,,,,,,,,301.67,301.67,301.671,302.9876,0,0,left,0.7886,,302.9894,302.99,,0,,302.9904,302.9908,,1,,1,302.9908,302.9908,302.9912,304.489,0,30,30,30,1,0.6,0.4,0.2,0.8,1,0,,,,,,,,,,,,,,,,,,,,,,,,,,,,,,,,,,,,
,,5e23c2569138e066e7e892f7,66fc995eec791041f70b8218,2024-10-02_01h53.26.964,mdp,2024.2.1,Win32,59.52380952,66fa4ebf79326e780c390304,,,,,,,,,,,,,,,,,,,,,304.4901,304.4901,304.4911,305.9579,1,0,right,0.9463,,305.9598,305.9609,,0,,305.9615,305.9619,,1,,1,305.9619,305.9619,305.9623,307.459,0,31,31,31,1,0.6,0.4,0.2,0.8,1,0,,,,,,,,,,,,,,,,,,,,,,,,,,,,,,,,,,,,
,,5e23c2569138e066e7e892f7,66fc995eec791041f70b8218,2024-10-02_01h53.26.964,mdp,2024.2.1,Win32,59.52380952,66fa4ebf79326e780c390304,,,,,,,,,,,,,,,,,,,,,307.4597,307.4597,307.4605,308.9275,1,0,right,0.9467,,308.9287,308.9292,,0,,308.9298,308.9304,,1,,1,308.9304,308.9304,308.931,310.4289,0,32,32,32,1,0.4,0.6,0.6,0.4,1,0,,,,,,,,,,,,,,,,,,,,,,,,,,,,,,,,,,,,
,,5e23c2569138e066e7e892f7,66fc995eec791041f70b8218,2024-10-02_01h53.26.964,mdp,2024.2.1,Win32,59.52380952,66fa4ebf79326e780c390304,,,,,,,,,,,,,,,,,,,,,310.4297,310.4297,310.4306,311.2803,1,0,right,0.3169,,311.2815,311.282,,0,,311.2825,311.2828,,0,,1,311.2828,311.2828,311.2832,312.7817,0,33,33,33,1,0.4,0.6,0.6,0.4,1,0,,,,,,,,,,,,,,,,,,,,,,,,,,,,,,,,,,,,
,,5e23c2569138e066e7e892f7,66fc995eec791041f70b8218,2024-10-02_01h53.26.964,mdp,2024.2.1,Win32,59.52380952,66fa4ebf79326e780c390304,,,,,,,,,,,,,,,,,,,,,312.7825,312.7825,312.7835,314.3005,0,1,left,0.9856,,314.3024,314.3029,,1,,314.3034,314.3037,,1,,0,314.3037,314.3037,314.3041,315.8018,0,34,34,34,1,0.4,0.6,0.6,0.4,1,0,,,,,,,,,,,,,,,,,,,,,,,,,,,,,,,,,,,,
,,5e23c2569138e066e7e892f7,66fc995eec791041f70b8218,2024-10-02_01h53.26.964,mdp,2024.2.1,Win32,59.52380952,66fa4ebf79326e780c390304,,,,,,,,,,,,,,,,,,,,,315.8027,315.8028,315.8041,316.6194,0,1,left,0.2833,,316.6209,316.6214,,0,,316.6219,316.6223,,1,,0,316.6223,316.6223,316.6227,318.1208,0,35,35,35,1,0.4,0.6,0.6,0.4,1,0,,,,,,,,,,,,,,,,,,,,,,,,,,,,,,,,,,,,
,,5e23c2569138e066e7e892f7,66fc995eec791041f70b8218,2024-10-02_01h53.26.964,mdp,2024.2.1,Win32,59.52380952,66fa4ebf79326e780c390304,,,,,,,,,,,,,,,,,,,,,318.1219,318.1219,318.1231,318.9221,0,1,left,0.2692,,318.9236,318.9244,,1,,318.9249,318.9253,,0,,0,318.9253,318.9253,318.9257,320.4243,0,36,36,36,1,0.4,0.6,0.6,0.4,1,0,,,,,,,,,,,,,,,,,,,,,,,,,,,,,,,,,,,,
,,5e23c2569138e066e7e892f7,66fc995eec791041f70b8218,2024-10-02_01h53.26.964,mdp,2024.2.1,Win32,59.52380952,66fa4ebf79326e780c390304,,,,,,,,,,,,,,,,,,,,,320.4248,320.4248,320.4259,321.2912,0,1,left,0.3352,,321.2925,321.2931,,1,,321.2936,321.294,,1,,0,321.2941,321.2941,321.2944,322.7926,0,37,37,37,1,0.4,0.6,0.6,0.4,1,0,,,,,,,,,,,,,,,,,,,,,,,,,,,,,,,,,,,,
,,5e23c2569138e066e7e892f7,66fc995eec791041f70b8218,2024-10-02_01h53.26.964,mdp,2024.2.1,Win32,59.52380952,66fa4ebf79326e780c390304,,,,,,,,,,,,,,,,,,,,,322.7932,322.7933,322.7942,323.7777,1,0,right,0.4801,,323.7794,323.7799,,1,,323.7803,323.7807,,1,,1,323.7808,323.7808,323.7812,325.2788,0,38,38,38,1,0.4,0.6,0.6,0.4,1,0,,,,,,,,,,,,,,,,,,,,,,,,,,,,,,,,,,,,
,,5e23c2569138e066e7e892f7,66fc995eec791041f70b8218,2024-10-02_01h53.26.964,mdp,2024.2.1,Win32,59.52380952,66fa4ebf79326e780c390304,,,,,,,,,,,,,,,,,,,,,325.2799,325.2799,325.2813,326.2634,0,1,left,0.4533,,326.2646,326.2651,,0,,326.267,326.2678,,1,,0,326.2679,326.2679,326.2686,327.765,0,39,39,39,1,0.4,0.6,0.6,0.4,1,0,,,,,,,,,,,,,,,,,,,,,,,,,,,,,,,,,,,,
,,5e23c2569138e066e7e892f7,66fc995eec791041f70b8218,2024-10-02_01h53.26.964,mdp,2024.2.1,Win32,59.52380952,66fa4ebf79326e780c390304,,,,,,,,,,,,,,,,,,,,,327.7655,327.7655,327.7663,328.6326,1,0,right,0.334,,328.6341,328.6348,,0,,328.6353,328.6358,,1,,1,328.6358,328.6358,328.6363,330.1342,0,40,40,40,1,0.4,0.6,0.6,0.4,1,0,,,,,,,,,,,,,,,,,,,,,,,,,,,,,,,,,,,,
,,5e23c2569138e066e7e892f7,66fc995eec791041f70b8218,2024-10-02_01h53.26.964,mdp,2024.2.1,Win32,59.52380952,66fa4ebf79326e780c390304,,,,,,,,,,,,,,,,,,,,,330.1349,330.135,330.1362,330.718,1,0,right,0.0553,,330.7199,330.721,,1,,330.7216,330.7222,,1,,1,330.7222,330.7222,330.7226,332.2197,0,41,41,41,1,0.4,0.6,0.6,0.4,1,0,,,,,,,,,,,,,,,,,,,,,,,,,,,,,,,,,,,,
,,5e23c2569138e066e7e892f7,66fc995eec791041f70b8218,2024-10-02_01h53.26.964,mdp,2024.2.1,Win32,59.52380952,66fa4ebf79326e780c390304,,,,,,,,,,,,,,,,,,,,,332.2203,332.2203,332.2212,333.0047,0,1,left,0.2521,,333.0068,333.0084,,0,,333.0097,333.0108,,1,,0,333.0109,333.0109,333.012,334.5057,0,42,42,42,1,0.4,0.6,0.6,0.4,1,0,,,,,,,,,,,,,,,,,,,,,,,,,,,,,,,,,,,,
,,5e23c2569138e066e7e892f7,66fc995eec791041f70b8218,2024-10-02_01h53.26.964,mdp,2024.2.1,Win32,59.52380952,66fa4ebf79326e780c390304,,,,,,,,,,,,,,,,,,,,,334.5067,334.5067,334.5077,335.4735,1,0,right,0.4458,,335.4757,335.4763,,0,,335.4768,335.4773,,1,,1,335.4774,335.4774,335.4778,336.9751,0,43,43,43,1,0.4,0.6,0.6,0.4,1,0,,,,,,,,,,,,,,,,,,,,,,,,,,,,,,,,,,,,
,,5e23c2569138e066e7e892f7,66fc995eec791041f70b8218,2024-10-02_01h53.26.964,mdp,2024.2.1,Win32,59.52380952,66fa4ebf79326e780c390304,,,,,,,,,,,,,,,,,,,,,336.976,336.976,336.977,337.8764,1,0,right,0.3738,,337.8778,337.8786,,1,,337.8794,337.88,,1,,1,337.88,337.88,337.8805,339.3778,0,44,44,44,1,0.4,0.6,0.6,0.4,1,0,,,,,,,,,,,,,,,,,,,,,,,,,,,,,,,,,,,,
,,5e23c2569138e066e7e892f7,66fc995eec791041f70b8218,2024-10-02_01h53.26.964,mdp,2024.2.1,Win32,59.52380952,66fa4ebf79326e780c390304,,,,,,,,,,,,,,,,,,,,,339.3785,339.3785,339.3796,340.1954,1,0,right,0.2939,,340.1969,340.1977,,1,,340.1982,340.1986,,1,,1,340.1986,340.1986,340.199,341.6971,0,45,45,45,1,0.4,0.6,0.6,0.4,1,0,,,,,,,,,,,,,,,,,,,,,,,,,,,,,,,,,,,,
,,5e23c2569138e066e7e892f7,66fc995eec791041f70b8218,2024-10-02_01h53.26.964,mdp,2024.2.1,Win32,59.52380952,66fa4ebf79326e780c390304,,,,,,,,,,,,,,,,,,,,,341.698,341.698,341.6991,342.565,0,1,left,0.3415,,342.5662,342.567,,1,,342.5673,342.5678,,0,,0,342.5678,342.5678,342.568,344.0664,0,46,46,46,1,0.4,0.6,0.6,0.4,1,0,,,,,,,,,,,,,,,,,,,,,,,,,,,,,,,,,,,,
,,5e23c2569138e066e7e892f7,66fc995eec791041f70b8218,2024-10-02_01h53.26.964,mdp,2024.2.1,Win32,59.52380952,66fa4ebf79326e780c390304,,,,,,,,,,,,,,,,,,,,,344.0673,344.0673,344.0683,345.0841,1,1,right,0.4925,,345.0853,345.086,,0,,345.0867,345.0875,,0,,0,345.0875,345.0875,345.088,346.586,0,47,47,47,1,0.4,0.6,0.6,0.4,1,0,,,,,,,,,,,,,,,,,,,,,,,,,,,,,,,,,,,,
,,5e23c2569138e066e7e892f7,66fc995eec791041f70b8218,2024-10-02_01h53.26.964,mdp,2024.2.1,Win32,59.52380952,66fa4ebf79326e780c390304,,,,,,,,,,,,,,,,,,,,,346.587,346.587,346.5881,347.5367,1,0,right,0.4259,,347.5382,347.5389,,0,,347.5398,347.5407,,0,,1,347.5407,347.5407,347.5411,349.0381,0,48,48,48,1,0.4,0.6,0.6,0.4,1,0,,,,,,,,,,,,,,,,,,,,,,,,,,,,,,,,,,,,
,,5e23c2569138e066e7e892f7,66fc995eec791041f70b8218,2024-10-02_01h53.26.964,mdp,2024.2.1,Win32,59.52380952,66fa4ebf79326e780c390304,,,,,,,,,,,,,,,,,,,,,349.039,349.039,349.0402,350.1233,1,0,right,0.5527,,350.1246,350.1251,,0,,350.1255,350.1261,,0,,1,350.1261,350.1261,350.1265,351.6246,0,49,49,49,1,0.4,0.6,0.6,0.4,1,0,,,,,,,,,,,,,,,,,,,,,,,,,,,,,,,,,,,,
,,5e23c2569138e066e7e892f7,66fc995eec791041f70b8218,2024-10-02_01h53.26.964,mdp,2024.2.1,Win32,59.52380952,66fa4ebf79326e780c390304,,,,,,,,,,,,,,,,,,,,,,,,,,,,,,,,,,,,,,,,,,,,,,,,,,,,,,,,351.6252,410.1402,0,0,0,7,1,imgs/goat.png,imgs/kangaroo.png,imgs/rabbit.png,imgs/lion.png,imgs/horse.png,,,,,,,,,,,,,,,,,,,,,,,,
,,5e23c2569138e066e7e892f7,66fc995eec791041f70b8218,2024-10-02_01h53.26.964,mdp,2024.2.1,Win32,59.52380952,66fa4ebf79326e780c390304,,,,,,,,,,,,,,2,seqs/st2seq12.csv,410.1509,420.0835,space,9.4107,,420.087,420.087,420.0878,421.7687,1,1,right,1.1466,,421.7696,425.1558,1,0,right,425.1567,425.1571,,0,,1,425.1572,425.1572,425.1576,426.6574,0,0,0,0,1,0.8,0.2,0.2,0.8,,,,,,,,,,,,,,,2.8671,,0.2,0.8,0.4,0.6,0.2,0.8,0.6,0.4,1,0,,,,,,,,,,,,
,,5e23c2569138e066e7e892f7,66fc995eec791041f70b8218,2024-10-02_01h53.26.964,mdp,2024.2.1,Win32,59.52380952,66fa4ebf79326e780c390304,,,,,,,,,,,,,,,,,,,,,426.6579,426.6579,426.6587,431.2958,1,1,right,4.1095,,431.2967,432.8308,1,1,right,432.8317,432.8322,,0,,0,432.8322,432.8322,432.8325,434.3324,0,1,1,1,1,0.4,0.6,0.6,0.4,,,,,,,,,,,,,,,1.0208,,0.2,0.8,0.4,0.6,0.2,0.8,0.6,0.4,1,0,,,,,,,,,,,,
,,5e23c2569138e066e7e892f7,66fc995eec791041f70b8218,2024-10-02_01h53.26.964,mdp,2024.2.1,Win32,59.52380952,66fa4ebf79326e780c390304,,,,,,,,,,,,,,,,,,,,,434.3327,434.3327,434.3334,435.684,1,0,right,0.8447,,435.6848,443.1793,1,1,right,443.18,443.1804,,1,,0,443.1805,443.1805,443.1808,444.6772,0,2,2,2,1,0.4,0.6,0.6,0.4,,,,,,,,,,,,,,,6.9871,,0.2,0.8,0.4,0.6,0.2,0.8,0.6,0.4,1,0,,,,,,,,,,,,
,,5e23c2569138e066e7e892f7,66fc995eec791041f70b8218,2024-10-02_01h53.26.964,mdp,2024.2.1,Win32,59.52380952,66fa4ebf79326e780c390304,,,,,,,,,,,,,,,,,,,,,444.6779,444.678,444.6791,447.614,1,0,right,2.4084,,447.6152,449.1991,0,1,left,449.2006,449.2012,,1,,0,449.2012,449.2012,449.2016,450.7006,0,3,3,3,1,0.4,0.6,0.6,0.4,,,,,,,,,,,,,,,1.0688,,0.2,0.8,0.4,0.6,0.2,0.8,0.6,0.4,1,0,,,,,,,,,,,,
,,5e23c2569138e066e7e892f7,66fc995eec791041f70b8218,2024-10-02_01h53.26.964,mdp,2024.2.1,Win32,59.52380952,66fa4ebf79326e780c390304,,,,,,,,,,,,,,,,,,,,,450.7014,450.7014,450.7029,452.6364,0,0,left,1.4076,,452.6378,453.9711,1,0,right,453.9722,453.9727,,1,,1,453.9727,453.9727,453.9732,455.4723,0,4,4,4,1,0.4,0.6,0.6,0.4,,,,,,,,,,,,,,,0.8266,,0.4,0.6,0.2,0.8,0.2,0.8,0.6,0.4,1,0,,,,,,,,,,,,
,,5e23c2569138e066e7e892f7,66fc995eec791041f70b8218,2024-10-02_01h53.26.964,mdp,2024.2.1,Win32,59.52380952,66fa4ebf79326e780c390304,,,,,,,,,,,,,,,,,,,,,455.4728,455.4728,455.4741,456.4075,0,0,left,0.4272,,456.4085,457.4748,1,1,right,457.476,457.4765,,0,,0,457.4765,457.4765,457.4768,458.9764,0,5,5,5,1,0.4,0.6,0.6,0.4,,,,,,,,,,,,,,,0.5341,,0.4,0.6,0.2,0.8,0.2,0.8,0.6,0.4,1,0,,,,,,,,,,,,
,,5e23c2569138e066e7e892f7,66fc995eec791041f70b8218,2024-10-02_01h53.26.964,mdp,2024.2.1,Win32,59.52380952,66fa4ebf79326e780c390304,,,,,,,,,,,,,,,,,,,,,458.9768,458.9768,458.9779,460.4117,0,0,left,0.921,,460.4129,461.3791,1,1,right,461.3805,461.3811,,1,,0,461.3811,461.3812,461.3818,462.8808,0,6,6,6,1,0.4,0.6,0.6,0.4,,,,,,,,,,,,,,,0.441,,0.4,0.6,0.2,0.8,0.2,0.8,0.6,0.4,1,0,,,,,,,,,,,,
,,5e23c2569138e066e7e892f7,66fc995eec791041f70b8218,2024-10-02_01h53.26.964,mdp,2024.2.1,Win32,59.52380952,66fa4ebf79326e780c390304,,,,,,,,,,,,,,,,,,,,,462.8813,462.8813,462.8823,464.5826,0,1,left,1.1695,,464.584,466.2512,0,1,left,466.2526,466.2532,,1,,0,466.2532,466.2532,466.2538,467.7526,0,7,7,7,1,0.4,0.6,0.6,0.4,,,,,,,,,,,,,,,1.1362,,0.4,0.6,0.2,0.8,0.2,0.8,0.6,0.4,1,0,,,,,,,,,,,,
,,5e23c2569138e066e7e892f7,66fc995eec791041f70b8218,2024-10-02_01h53.26.964,mdp,2024.2.1,Win32,59.52380952,66fa4ebf79326e780c390304,,,,,,,,,,,,,,,,,,,,,467.7534,467.7534,467.7546,468.9048,0,1,left,0.6217,,468.9063,470.6731,1,0,right,470.6743,470.6751,,0,,1,470.6751,470.6751,470.6756,472.1743,0,8,8,8,1,0.4,0.6,0.6,0.4,,,,,,,,,,,,,,,1.2397,,0.4,0.6,0.2,0.8,0.2,0.8,0.6,0.4,1,0,,,,,,,,,,,,
,,5e23c2569138e066e7e892f7,66fc995eec791041f70b8218,2024-10-02_01h53.26.964,mdp,2024.2.1,Win32,59.52380952,66fa4ebf79326e780c390304,,,,,,,,,,,,,,,,,,,,,472.1748,472.1748,472.1757,477.5639,0,1,left,4.8586,,477.5649,478.5981,1,0,right,478.5995,478.6,,0,,1,478.6,478.6001,478.6004,480.0997,0,9,9,9,1,0.4,0.6,0.6,0.4,,,,,,,,,,,,,,,0.5288,,0.4,0.6,0.2,0.8,0.2,0.8,0.6,0.4,1,0,,,,,,,,,,,,
,,5e23c2569138e066e7e892f7,66fc995eec791041f70b8218,2024-10-02_01h53.26.964,mdp,2024.2.1,Win32,59.52380952,66fa4ebf79326e780c390304,,,,,,,,,,,,,,,,,,,,,480.1003,480.1004,480.1016,481.7352,0,1,left,1.1042,,481.7365,482.753,1,1,right,482.7541,482.7546,,0,,0,482.7547,482.7547,482.755,484.2544,0,10,10,10,1,0.4,0.6,0.6,0.4,,,,,,,,,,,,,,,0.501,,0.6,0.4,0.6,0.4,0.2,0.8,0.6,0.4,1,0,,,,,,,,,,,,
,,5e23c2569138e066e7e892f7,66fc995eec791041f70b8218,2024-10-02_01h53.26.964,mdp,2024.2.1,Win32,59.52380952,66fa4ebf79326e780c390304,,,,,,,,,,,,,,,,,,,,,484.2551,484.2551,484.256,491.2791,0,1,left,6.4935,,491.2804,492.4135,0,1,left,492.4146,492.4152,,1,,0,492.4152,492.4152,492.4159,493.915,0,11,11,11,1,0.4,0.6,0.6,0.4,,,,,,,,,,,,,,,0.6023,,0.6,0.4,0.6,0.4,0.2,0.8,0.6,0.4,1,0,,,,,,,,,,,,
,,5e23c2569138e066e7e892f7,66fc995eec791041f70b8218,2024-10-02_01h53.26.964,mdp,2024.2.1,Win32,59.52380952,66fa4ebf79326e780c390304,,,,,,,,,,,,,,,,,,,,,493.9154,493.9154,493.9163,494.8328,0,0,left,0.4015,,494.8343,496.6516,1,1,right,496.6526,496.6531,,0,,0,496.6531,496.6531,496.6535,498.1533,0,12,12,12,1,0.4,0.6,0.6,0.4,,,,,,,,,,,,,,,1.2685,,0.6,0.4,0.6,0.4,0.2,0.8,0.6,0.4,1,0,,,,,,,,,,,,
,,5e23c2569138e066e7e892f7,66fc995eec791041f70b8218,2024-10-02_01h53.26.964,mdp,2024.2.1,Win32,59.52380952,66fa4ebf79326e780c390304,,,,,,,,,,,,,,,,,,,,,498.1542,498.1542,498.1551,499.0543,0,1,left,0.3755,,499.0559,501.8242,1,0,right,501.8257,501.8263,,0,,1,501.8263,501.8263,501.8269,503.3255,0,13,13,13,1,0.6,0.4,0.2,0.8,,,,,,,,,,,,,,,2.2477,,0.6,0.4,0.6,0.4,0.2,0.8,0.6,0.4,1,0,,,,,,,,,,,,
,,5e23c2569138e066e7e892f7,66fc995eec791041f70b8218,2024-10-02_01h53.26.964,mdp,2024.2.1,Win32,59.52380952,66fa4ebf79326e780c390304,,,,,,,,,,,,,,,,,,,,,503.326,503.326,503.3268,504.3768,1,0,right,0.5177,,504.3784,505.5951,0,1,left,505.5959,505.5964,,0,,0,505.5964,505.5964,505.5968,507.0962,0,14,14,14,1,0.6,0.4,0.2,0.8,,,,,,,,,,,,,,,0.6813,,0.6,0.4,0.6,0.4,0.2,0.8,0.6,0.4,1,0,,,,,,,,,,,,
,,5e23c2569138e066e7e892f7,66fc995eec791041f70b8218,2024-10-02_01h53.26.964,mdp,2024.2.1,Win32,59.52380952,66fa4ebf79326e780c390304,,,,,,,,,,,,,,,,,,,,,507.0973,507.0973,507.0982,508.4316,1,0,right,0.8122,,508.433,509.2488,1,1,right,509.2499,509.2504,,1,,0,509.2504,509.2504,509.2508,510.7504,0,15,15,15,1,0.6,0.4,0.2,0.8,,,,,,,,,,,,,,,0.2922,,0.6,0.4,0.6,0.4,0.2,0.8,0.6,0.4,1,0,,,,,,,,,,,,
,,5e23c2569138e066e7e892f7,66fc995eec791041f70b8218,2024-10-02_01h53.26.964,mdp,2024.2.1,Win32,59.52380952,66fa4ebf79326e780c390304,,,,,,,,,,,,,,,,,,,,,510.7512,510.7512,510.7521,511.6015,0,1,left,0.32,,511.6029,512.9029,0,1,left,512.9043,512.9048,,1,,0,512.905,512.905,512.9059,514.4043,0,16,16,16,1,0.6,0.4,0.2,0.8,,,,,,,,,,,,,,,0.7796,,0.6,0.4,0.6,0.4,0.2,0.8,0.6,0.4,1,0,,,,,,,,,,,,
,,5e23c2569138e066e7e892f7,66fc995eec791041f70b8218,2024-10-02_01h53.26.964,mdp,2024.2.1,Win32,59.52380952,66fa4ebf79326e780c390304,,,,,,,,,,,,,,,,,,,,,514.4047,514.4047,514.4055,515.2887,0,1,left,0.3615,,515.2903,516.5066,1,1,right,516.5079,516.5083,,1,,0,516.5084,516.5084,516.5088,518.0085,0,17,17,17,1,0.6,0.4,0.2,0.8,,,,,,,,,,,,,,,0.706,,0.6,0.4,0.6,0.4,0.4,0.6,0.4,0.6,1,0,,,,,,,,,,,,
,,5e23c2569138e066e7e892f7,66fc995eec791041f70b8218,2024-10-02_01h53.26.964,mdp,2024.2.1,Win32,59.52380952,66fa4ebf79326e780c390304,,,,,,,,,,,,,,,,,,,,,518.0094,518.0094,518.0105,518.8454,0,1,left,0.317,,518.846,519.9273,0,0,left,519.9289,519.9297,,1,,1,519.9299,519.9299,519.9308,521.4286,0,18,18,18,1,0.6,0.4,0.2,0.8,,,,,,,,,,,,,,,0.5513,,0.6,0.4,0.6,0.4,0.4,0.6,0.4,0.6,1,0,,,,,,,,,,,,
,,5e23c2569138e066e7e892f7,66fc995eec791041f70b8218,2024-10-02_01h53.26.964,mdp,2024.2.1,Win32,59.52380952,66fa4ebf79326e780c390304,,,,,,,,,,,,,,,,,,,,,521.4292,521.4292,521.4301,522.2964,0,0,left,0.3443,,522.2981,523.7817,0,1,left,523.7829,523.7834,,1,,0,523.7835,523.7835,523.784,525.2828,0,19,19,19,1,0.6,0.4,0.2,0.8,,,,,,,,,,,,,,,0.9542,,0.6,0.4,0.6,0.4,0.4,0.6,0.4,0.6,1,0,,,,,,,,,,,,
,,5e23c2569138e066e7e892f7,66fc995eec791041f70b8218,2024-10-02_01h53.26.964,mdp,2024.2.1,Win32,59.52380952,66fa4ebf79326e780c390304,,,,,,,,,,,,,,,,,,,,,525.2834,525.2834,525.2844,526.0676,0,1,left,0.2791,,526.0693,527.4522,0,1,left,527.4539,527.4544,,1,,0,527.4546,527.4546,527.4549,528.9542,0,20,20,20,1,0.6,0.4,0.2,0.8,,,,,,,,,,,,,,,0.8389,,0.6,0.4,0.6,0.4,0.4,0.6,0.4,0.6,1,0,,,,,,,,,,,,
,,5e23c2569138e066e7e892f7,66fc995eec791041f70b8218,2024-10-02_01h53.26.964,mdp,2024.2.1,Win32,59.52380952,66fa4ebf79326e780c390304,,,,,,,,,,,,,,,,,,,,,528.955,528.955,528.956,529.9552,0,0,left,0.4746,,529.9566,530.8566,1,1,right,530.8581,530.8589,,0,,0,530.8589,530.8589,530.8593,532.3573,0,21,21,21,1,0.6,0.4,0.2,0.8,,,,,,,,,,,,,,,0.3687,,0.6,0.4,0.6,0.4,0.8,0.2,0.6,0.4,1,0,,,,,,,,,,,,
,,5e23c2569138e066e7e892f7,66fc995eec791041f70b8218,2024-10-02_01h53.26.964,mdp,2024.2.1,Win32,59.52380952,66fa4ebf79326e780c390304,,,,,,,,,,,,,,,,,,,,,532.3581,532.3581,532.3593,533.8592,0,1,left,0.9729,,533.8606,534.8271,1,1,right,534.8285,534.8291,,1,,0,534.8291,534.8291,534.8297,536.3284,0,22,22,22,1,0.6,0.4,0.2,0.8,,,,,,,,,,,,,,,0.4364,,0.6,0.4,0.6,0.4,0.8,0.2,0.6,0.4,1,0,,,,,,,,,,,,
,,5e23c2569138e066e7e892f7,66fc995eec791041f70b8218,2024-10-02_01h53.26.964,mdp,2024.2.1,Win32,59.52380952,66fa4ebf79326e780c390304,,,,,,,,,,,,,,,,,,,,,536.3288,536.3288,536.3299,537.2463,1,0,right,0.4134,,537.248,539.1818,1,0,right,539.1833,539.184,,0,,1,539.1841,539.1841,539.1853,540.6865,0,23,23,23,1,0.6,0.4,0.2,0.8,,,,,,,,,,,,,,,1.413,,0.6,0.4,0.6,0.4,0.8,0.2,0.6,0.4,1,0,,,,,,,,,,,,
,,5e23c2569138e066e7e892f7,66fc995eec791041f70b8218,2024-10-02_01h53.26.964,mdp,2024.2.1,Win32,59.52380952,66fa4ebf79326e780c390304,,,,,,,,,,,,,,,,,,,,,540.6871,540.6871,540.6881,541.5344,1,1,right,0.322,,541.5357,542.7023,0,0,left,542.7036,542.7043,,0,,1,542.7044,542.7044,542.7053,544.204,0,24,24,24,1,0.6,0.4,0.2,0.8,,,,,,,,,,,,,,,0.6417,,0.6,0.4,0.6,0.4,0.8,0.2,0.6,0.4,1,0,,,,,,,,,,,,
,,5e23c2569138e066e7e892f7,66fc995eec791041f70b8218,2024-10-02_01h53.26.964,mdp,2024.2.1,Win32,59.52380952,66fa4ebf79326e780c390304,,,,,,,,,,,,,,,,,,,,,544.2044,544.2045,544.2053,545.1384,1,1,right,0.4129,,545.1395,546.2901,0,0,left,546.2915,546.292,,0,,1,546.292,546.292,546.2925,547.7912,0,25,25,25,1,0.6,0.4,0.2,0.8,,,,,,,,,,,,,,,0.6207,,0.6,0.4,0.6,0.4,0.8,0.2,0.6,0.4,1,0,,,,,,,,,,,,
,,5e23c2569138e066e7e892f7,66fc995eec791041f70b8218,2024-10-02_01h53.26.964,mdp,2024.2.1,Win32,59.52380952,66fa4ebf79326e780c390304,,,,,,,,,,,,,,,,,,,,,547.7917,547.7917,547.7926,549.1929,1,1,right,0.8688,,549.1942,551.1617,0,1,left,551.1628,551.1633,,1,,0,551.1633,551.1633,551.1638,552.6636,0,26,26,26,1,0.6,0.4,0.2,0.8,,,,,,,,,,,,,,,1.4584,,0.6,0.4,0.6,0.4,0.8,0.2,0.6,0.4,1,0,,,,,,,,,,,,
,,5e23c2569138e066e7e892f7,66fc995eec791041f70b8218,2024-10-02_01h53.26.964,mdp,2024.2.1,Win32,59.52380952,66fa4ebf79326e780c390304,,,,,,,,,,,,,,,,,,,,,552.6644,552.6645,552.6652,553.5979,1,1,right,0.41,,553.5997,554.9659,0,0,left,554.9674,554.968,,0,,1,554.9681,554.9681,554.9686,556.4677,0,27,27,27,1,0.6,0.4,0.2,0.8,,,,,,,,,,,,,,,0.8604,,0.8,0.2,0.2,0.8,0.8,0.2,0.6,0.4,1,0,,,,,,,,,,,,
,,5e23c2569138e066e7e892f7,66fc995eec791041f70b8218,2024-10-02_01h53.26.964,mdp,2024.2.1,Win32,59.52380952,66fa4ebf79326e780c390304,,,,,,,,,,,,,,,,,,,,,556.4684,556.4685,556.4693,557.4523,1,1,right,0.4557,,557.4538,559.0207,0,1,left,559.0223,559.0227,,0,,0,559.0227,559.0227,559.0232,560.5218,0,28,28,28,1,0.6,0.4,0.2,0.8,,,,,,,,,,,,,,,1.0622,,0.8,0.2,0.2,0.8,0.8,0.2,0.6,0.4,1,0,,,,,,,,,,,,
,,5e23c2569138e066e7e892f7,66fc995eec791041f70b8218,2024-10-02_01h53.26.964,mdp,2024.2.1,Win32,59.52380952,66fa4ebf79326e780c390304,,,,,,,,,,,,,,,,,,,,,560.5225,560.5225,560.5236,561.2233,1,1,right,0.1801,,561.2246,562.2909,0,0,left,562.2921,562.2927,,0,,1,562.2927,562.2927,562.2933,563.7924,0,29,29,29,1,0.6,0.4,0.2,0.8,,,,,,,,,,,,,,,0.5345,,0.8,0.2,0.2,0.8,0.8,0.2,0.6,0.4,1,0,,,,,,,,,,,,
,,5e23c2569138e066e7e892f7,66fc995eec791041f70b8218,2024-10-02_01h53.26.964,mdp,2024.2.1,Win32,59.52380952,66fa4ebf79326e780c390304,,,,,,,,,,,,,,,,,,,,,563.7932,563.7933,563.7939,564.6266,1,0,right,0.3095,,564.6279,565.561,1,1,right,565.5624,565.563,,1,,0,565.563,565.563,565.5637,567.0625,0,30,30,30,1,0.6,0.4,0.2,0.8,,,,,,,,,,,,,,,0.4137,,0.8,0.2,0.2,0.8,0.8,0.2,0.6,0.4,1,0,,,,,,,,,,,,
,,5e23c2569138e066e7e892f7,66fc995eec791041f70b8218,2024-10-02_01h53.26.964,mdp,2024.2.1,Win32,59.52380952,66fa4ebf79326e780c390304,,,,,,,,,,,,,,,,,,,,,567.0632,567.0632,567.0642,567.8973,1,1,right,0.3088,,567.8986,568.765,1,1,right,568.7667,568.7674,,0,,0,568.7674,568.7674,568.7679,570.2661,0,31,31,31,1,0.6,0.4,0.2,0.8,,,,,,,,,,,,,,,0.3214,,0.8,0.2,0.2,0.8,0.8,0.2,0.6,0.4,1,0,,,,,,,,,,,,
,,5e23c2569138e066e7e892f7,66fc995eec791041f70b8218,2024-10-02_01h53.26.964,mdp,2024.2.1,Win32,59.52380952,66fa4ebf79326e780c390304,,,,,,,,,,,,,,,,,,,,,570.2672,570.2672,570.2685,571.1007,1,0,right,0.3081,,571.1022,572.7026,1,1,right,572.7039,572.7046,,1,,0,572.7047,572.7047,572.7051,574.2036,0,32,32,32,1,0.6,0.4,0.2,0.8,,,,,,,,,,,,,,,1.0725,,0.8,0.2,0.2,0.8,0.8,0.2,0.6,0.4,1,0,,,,,,,,,,,,
,,5e23c2569138e066e7e892f7,66fc995eec791041f70b8218,2024-10-02_01h53.26.964,mdp,2024.2.1,Win32,59.52380952,66fa4ebf79326e780c390304,,,,,,,,,,,,,,,,,,,,,574.2045,574.2045,574.206,575.0382,1,1,right,0.313,,575.0396,576.3729,0,0,left,576.3743,576.3749,,0,,1,576.375,576.375,576.3754,577.8745,0,33,33,33,1,0.6,0.4,0.2,0.8,,,,,,,,,,,,,,,0.7955,,0.8,0.2,0.2,0.8,0.8,0.2,0.6,0.4,1,0,,,,,,,,,,,,
,,5e23c2569138e066e7e892f7,66fc995eec791041f70b8218,2024-10-02_01h53.26.964,mdp,2024.2.1,Win32,59.52380952,66fa4ebf79326e780c390304,,,,,,,,,,,,,,,,,,,,,577.8752,577.8752,577.876,578.7596,1,0,right,0.3553,,578.7609,580.1108,0,0,left,580.1122,580.1129,,0,,1,580.113,580.113,580.1138,581.6117,0,34,34,34,1,0.6,0.4,0.2,0.8,,,,,,,,,,,,,,,0.8053,,0.8,0.2,0.2,0.8,0.8,0.2,0.6,0.4,1,0,,,,,,,,,,,,
,,5e23c2569138e066e7e892f7,66fc995eec791041f70b8218,2024-10-02_01h53.26.964,mdp,2024.2.1,Win32,59.52380952,66fa4ebf79326e780c390304,,,,,,,,,,,,,,,,,,,,,581.6123,581.6124,581.6134,582.4469,1,1,right,0.3056,,582.4485,583.8646,0,1,left,583.8657,583.8663,,1,,0,583.8663,583.8663,583.8667,585.366,0,35,35,35,1,0.6,0.4,0.2,0.8,,,,,,,,,,,,,,,0.8685,,0.8,0.2,0.2,0.8,0.2,0.8,0.2,0.8,1,0,,,,,,,,,,,,
,,5e23c2569138e066e7e892f7,66fc995eec791041f70b8218,2024-10-02_01h53.26.964,mdp,2024.2.1,Win32,59.52380952,66fa4ebf79326e780c390304,,,,,,,,,,,,,,,,,,,,,585.3666,585.3667,585.3678,586.1672,1,1,right,0.2839,,586.1686,587.0011,0,1,left,587.0028,587.0034,,1,,0,587.0034,587.0034,587.0038,588.5034,0,36,36,36,1,0.6,0.4,0.2,0.8,,,,,,,,,,,,,,,0.3261,,0.8,0.2,0.2,0.8,0.2,0.8,0.2,0.8,1,0,,,,,,,,,,,,
,,5e23c2569138e066e7e892f7,66fc995eec791041f70b8218,2024-10-02_01h53.26.964,mdp,2024.2.1,Win32,59.52380952,66fa4ebf79326e780c390304,,,,,,,,,,,,,,,,,,,,,588.5042,588.5042,588.5053,589.1202,1,1,right,0.0837,,589.1214,589.8712,0,1,left,589.8732,589.8737,,1,,0,589.8737,589.8738,589.8742,591.3727,0,37,37,37,1,0.6,0.4,0.2,0.8,,,,,,,,,,,,,,,0.2349,,0.8,0.2,0.2,0.8,0.2,0.8,0.2,0.8,1,0,,,,,,,,,,,,
,,5e23c2569138e066e7e892f7,66fc995eec791041f70b8218,2024-10-02_01h53.26.964,mdp,2024.2.1,Win32,59.52380952,66fa4ebf79326e780c390304,,,,,,,,,,,,,,,,,,,,,591.3737,591.3737,591.3749,592.308,1,1,right,0.4109,,592.3092,593.1418,0,1,left,593.1433,593.1442,,1,,0,593.1442,593.1442,593.1448,594.6434,0,38,38,38,1,0.6,0.4,0.2,0.8,,,,,,,,,,,,,,,0.3019,,0.8,0.2,0.2,0.8,0.2,0.8,0.2,0.8,1,0,,,,,,,,,,,,
,,5e23c2569138e066e7e892f7,66fc995eec791041f70b8218,2024-10-02_01h53.26.964,mdp,2024.2.1,Win32,59.52380952,66fa4ebf79326e780c390304,,,,,,,,,,,,,,,,,,,,,594.6443,594.6443,594.6452,595.7276,1,0,right,0.5533,,595.7294,596.5621,0,0,left,596.5631,596.5637,,0,,1,596.5637,596.5637,596.5645,598.0634,0,39,39,39,1,0.6,0.4,0.2,0.8,,,,,,,,,,,,,,,0.3007,,0.8,0.2,0.2,0.8,0.2,0.8,0.2,0.8,1,0,,,,,,,,,,,,
,,5e23c2569138e066e7e892f7,66fc995eec791041f70b8218,2024-10-02_01h53.26.964,mdp,2024.2.1,Win32,59.52380952,66fa4ebf79326e780c390304,,,,,,,,,,,,,,,,,,,,,598.0642,598.0643,598.0653,598.6477,1,1,right,0.057,,598.6492,599.3319,0,1,left,599.3333,599.3339,,1,,0,599.334,599.334,599.3343,600.8333,0,40,40,40,1,0.6,0.4,0.2,0.8,,,,,,,,,,,,,,,0.1376,,0.8,0.2,0.2,0.8,0.2,0.8,0.2,0.8,1,0,,,,,,,,,,,,
,,5e23c2569138e066e7e892f7,66fc995eec791041f70b8218,2024-10-02_01h53.26.964,mdp,2024.2.1,Win32,59.52380952,66fa4ebf79326e780c390304,,,,,,,,,,,,,,,,,,,,,600.8343,600.8344,600.8359,602.0011,1,1,right,0.6183,,602.0023,602.8857,0,1,left,602.887,602.8876,,1,,0,602.8877,602.8877,602.8881,604.3872,0,41,41,41,1,0.6,0.4,0.2,0.8,,,,,,,,,,,,,,,0.3732,,0.8,0.2,0.2,0.8,0.2,0.8,0.2,0.8,1,0,,,,,,,,,,,,
,,5e23c2569138e066e7e892f7,66fc995eec791041f70b8218,2024-10-02_01h53.26.964,mdp,2024.2.1,Win32,59.52380952,66fa4ebf79326e780c390304,,,,,,,,,,,,,,,,,,,,,604.388,604.388,604.3888,605.7421,0,1,left,0.8347,,605.7429,606.5563,1,1,right,606.5577,606.5583,,1,,0,606.5584,606.5584,606.5589,608.0577,0,42,42,42,1,0.6,0.4,0.2,0.8,,,,,,,,,,,,,,,0.2922,,0.8,0.2,0.2,0.8,0.2,0.8,0.2,0.8,1,0,,,,,,,,,,,,
,,5e23c2569138e066e7e892f7,66fc995eec791041f70b8218,2024-10-02_01h53.26.964,mdp,2024.2.1,Win32,59.52380952,66fa4ebf79326e780c390304,,,,,,,,,,,,,,,,,,,,,608.0582,608.0582,608.0591,608.7089,1,1,right,0.1347,,608.7101,609.51,0,0,left,609.5114,609.5121,,1,,1,609.5121,609.5121,609.5126,611.0111,0,43,43,43,1,0.6,0.4,0.2,0.8,,,,,,,,,,,,,,,0.2882,,0.8,0.2,0.2,0.8,0.2,0.8,0.2,0.8,1,0,,,,,,,,,,,,
,,5e23c2569138e066e7e892f7,66fc995eec791041f70b8218,2024-10-02_01h53.26.964,mdp,2024.2.1,Win32,59.52380952,66fa4ebf79326e780c390304,,,,,,,,,,,,,,,,,,,,,611.0117,611.0118,611.0128,611.6953,1,1,right,0.1527,,611.6965,612.4628,0,1,left,612.4642,612.4648,,1,,0,612.4648,612.4648,612.4652,613.9644,0,44,44,44,1,0.6,0.4,0.2,0.8,,,,,,,,,,,,,,,0.2583,,0.8,0.2,0.2,0.8,0.2,0.8,0.2,0.8,1,0,,,,,,,,,,,,
,,5e23c2569138e066e7e892f7,66fc995eec791041f70b8218,2024-10-02_01h53.26.964,mdp,2024.2.1,Win32,59.52380952,66fa4ebf79326e780c390304,,,,,,,,,,,,,,,,,,,,,613.9653,613.9653,613.9664,614.699,1,1,right,0.2089,,614.7001,615.4996,0,1,left,615.501,615.5016,,0,,0,615.5016,615.5016,615.502,617.0009,0,45,45,45,1,0.6,0.4,0.2,0.8,,,,,,,,,,,,,,,0.2673,,0.8,0.2,0.2,0.8,0.2,0.8,0.2,0.8,1,0,,,,,,,,,,,,
,,5e23c2569138e066e7e892f7,66fc995eec791041f70b8218,2024-10-02_01h53.26.964,mdp,2024.2.1,Win32,59.52380952,66fa4ebf79326e780c390304,,,,,,,,,,,,,,,,,,,,,617.0013,617.0013,617.0022,617.9689,1,1,right,0.4549,,617.9699,618.7532,1,1,right,618.755,618.7557,,1,,0,618.7557,618.7557,618.7562,620.2546,0,46,46,46,1,0.6,0.4,0.2,0.8,,,,,,,,,,,,,,,0.2754,,0.8,0.2,0.2,0.8,0.2,0.8,0.2,0.8,1,0,,,,,,,,,,,,
,,5e23c2569138e066e7e892f7,66fc995eec791041f70b8218,2024-10-02_01h53.26.964,mdp,2024.2.1,Win32,59.52380952,66fa4ebf79326e780c390304,,,,,,,,,,,,,,,,,,,,,620.2553,620.2553,620.2563,621.256,1,1,right,0.4842,,621.2577,622.0566,0,1,left,622.0579,622.0583,,1,,0,622.0583,622.0583,622.0588,623.5583,0,47,47,47,1,0.6,0.4,0.2,0.8,,,,,,,,,,,,,,,0.2734,,0.8,0.2,0.2,0.8,0.2,0.8,0.2,0.8,1,0,,,,,,,,,,,,
,,5e23c2569138e066e7e892f7,66fc995eec791041f70b8218,2024-10-02_01h53.26.964,mdp,2024.2.1,Win32,59.52380952,66fa4ebf79326e780c390304,,,,,,,,,,,,,,,,,,,,,623.5589,623.5589,623.5599,624.4431,1,0,right,0.3564,,624.4446,625.3106,0,1,left,625.3118,625.3124,,0,,0,625.3124,625.3124,625.3128,626.8119,0,48,48,48,1,0.2,0.8,0.8,0.2,,,,,,,,,,,,,,,0.3232,,0.8,0.2,0.2,0.8,0.2,0.8,0.2,0.8,1,0,,,,,,,,,,,,
,,5e23c2569138e066e7e892f7,66fc995eec791041f70b8218,2024-10-02_01h53.26.964,mdp,2024.2.1,Win32,59.52380952,66fa4ebf79326e780c390304,,,,,,,,,,,,,,,,,,,,,626.8126,626.8126,626.8137,627.6797,1,0,right,0.3365,,627.6808,628.4802,1,1,right,628.4818,628.4824,,1,,0,628.4824,628.4824,628.4829,629.9819,0,49,49,49,1,0.2,0.8,0.8,0.2,,,,,,,,,,,,,,,0.2919,,0.8,0.2,0.2,0.8,0.2,0.8,0.2,0.8,1,0,,,,,,,,,,,,
,,5e23c2569138e066e7e892f7,66fc995eec791041f70b8218,2024-10-02_01h53.26.964,mdp,2024.2.1,Win32,59.52380952,66fa4ebf79326e780c390304,,,,,,,,,,,,,,,,,,,,,,,,,,,,,,,,,,,,,,,,,,,,,,,,,,,,,,,,629.9822,683.2411,0,1,1,8,1,imgs/kangaroo.png,imgs/giraffe.png,imgs/pig.png,imgs/lion.png,imgs/cat.png,,,,,,,,,,,,,,,,,,,,,,,,
,,5e23c2569138e066e7e892f7,66fc995eec791041f70b8218,2024-10-02_01h53.26.964,mdp,2024.2.1,Win32,59.52380952,66fa4ebf79326e780c390304,,,,,,,,,,,,,,3,seqs/st3seq37.csv,683.2529,694.6701,space,10.9,,694.6757,694.6757,694.6764,697.4064,1,1,right,2.1966,,697.4074,698.8413,1,1,right,698.8422,699.8758,1,1,right,0,699.8758,699.8758,699.8768,701.3774,0,0,0,0,1,0.8,0.2,0.2,0.8,,,,,,,,,,,,,,,0.9119,,0.6,0.4,0.8,0.2,0.4,0.6,0.8,0.2,,,0.5086,,0.6,0.4,0.8,0.2,0.2,0.8,0.2,0.8,1,0
,,5e23c2569138e066e7e892f7,66fc995eec791041f70b8218,2024-10-02_01h53.26.964,mdp,2024.2.1,Win32,59.52380952,66fa4ebf79326e780c390304,,,,,,,,,,,,,,,,,,,,,701.378,701.378,701.3788,702.3118,1,1,right,0.4105,,702.3131,703.8302,1,1,right,703.8313,704.948,1,1,right,0,704.9481,704.9481,704.9491,706.4498,0,1,1,1,1,0.8,0.2,0.2,0.8,,,,,,,,,,,,,,,1.003,,0.6,0.4,0.8,0.2,0.4,0.6,0.8,0.2,,,0.6063,,0.6,0.4,0.8,0.2,0.2,0.8,0.2,0.8,1,0
,,5e23c2569138e066e7e892f7,66fc995eec791041f70b8218,2024-10-02_01h53.26.964,mdp,2024.2.1,Win32,59.52380952,66fa4ebf79326e780c390304,,,,,,,,,,,,,,,,,,,,,706.4503,706.4504,706.4513,707.7344,1,1,right,0.753,,707.7355,709.5365,1,0,right,709.5376,711.105,1,0,right,1,711.105,711.105,711.1058,712.6065,0,2,2,2,1,0.8,0.2,0.2,0.8,,,,,,,,,,,,,,,1.2893,,0.6,0.4,0.8,0.2,0.4,0.6,0.8,0.2,,,1.0465,,0.6,0.4,0.8,0.2,0.2,0.8,0.2,0.8,1,0
,,5e23c2569138e066e7e892f7,66fc995eec791041f70b8218,2024-10-02_01h53.26.964,mdp,2024.2.1,Win32,59.52380952,66fa4ebf79326e780c390304,,,,,,,,,,,,,,,,,,,,,712.607,712.6071,712.6078,713.5409,1,1,right,0.414,,713.542,714.4253,1,0,right,714.4263,715.7268,1,0,right,1,715.7268,715.7268,715.7277,717.2282,0,3,3,3,1,0.8,0.2,0.2,0.8,,,,,,,,,,,,,,,0.3728,,0.6,0.4,0.8,0.2,0.4,0.6,0.8,0.2,,,0.7882,,0.6,0.4,0.8,0.2,0.2,0.8,0.2,0.8,1,0
,,5e23c2569138e066e7e892f7,66fc995eec791041f70b8218,2024-10-02_01h53.26.964,mdp,2024.2.1,Win32,59.52380952,66fa4ebf79326e780c390304,,,,,,,,,,,,,,,,,,,,,717.2288,717.2288,717.2295,718.1127,1,0,right,0.3576,,718.1136,719.9479,0,0,left,719.949,721.4665,1,0,right,1,721.4665,721.4665,721.4674,722.9678,0,4,4,4,1,0.8,0.2,0.2,0.8,,,,,,,,,,,,,,,1.3149,,0.6,0.4,0.8,0.2,0.4,0.6,0.8,0.2,,,1.0049,,0.6,0.4,0.8,0.2,0.2,0.8,0.2,0.8,1,0
,,5e23c2569138e066e7e892f7,66fc995eec791041f70b8218,2024-10-02_01h53.26.964,mdp,2024.2.1,Win32,59.52380952,66fa4ebf79326e780c390304,,,,,,,,,,,,,,,,,,,,,722.9683,722.9683,722.9691,723.8356,1,1,right,0.3539,,723.8366,725.4706,1,0,right,725.472,727.3731,0,1,left,0,727.3732,727.3732,727.3741,728.8743,0,5,5,5,1,0.8,0.2,0.2,0.8,,,,,,,,,,,,,,,1.1124,,0.6,0.4,0.8,0.2,0.4,0.6,0.8,0.2,,,1.3924,,0.6,0.4,0.8,0.2,0.2,0.8,0.2,0.8,1,0
,,5e23c2569138e066e7e892f7,66fc995eec791041f70b8218,2024-10-02_01h53.26.964,mdp,2024.2.1,Win32,59.52380952,66fa4ebf79326e780c390304,,,,,,,,,,,,,,,,,,,,,728.8749,728.8749,728.876,745.2927,1,0,right,15.8843,,745.2937,746.7775,0,0,left,746.7786,747.7119,1,0,right,1,747.712,747.712,747.713,749.2137,0,6,6,6,1,0.4,0.6,0.8,0.2,,,,,,,,,,,,,,,0.9612,,0.6,0.4,0.8,0.2,0.4,0.6,0.8,0.2,,,0.4243,,0.6,0.4,0.8,0.2,0.2,0.8,0.2,0.8,1,0
,,5e23c2569138e066e7e892f7,66fc995eec791041f70b8218,2024-10-02_01h53.26.964,mdp,2024.2.1,Win32,59.52380952,66fa4ebf79326e780c390304,,,,,,,,,,,,,,,,,,,,,749.2141,749.2141,749.2149,750.1312,1,1,right,0.4133,,750.1323,751.2491,0,1,left,751.2504,752.2002,1,1,right,0,752.2003,752.2003,752.2013,753.7017,0,7,7,7,1,0.4,0.6,0.8,0.2,,,,,,,,,,,,,,,0.5957,,0.8,0.2,0.2,0.8,0.4,0.6,0.8,0.2,,,0.4265,,0.6,0.4,0.8,0.2,0.2,0.8,0.2,0.8,1,0
,,5e23c2569138e066e7e892f7,66fc995eec791041f70b8218,2024-10-02_01h53.26.964,mdp,2024.2.1,Win32,59.52380952,66fa4ebf79326e780c390304,,,,,,,,,,,,,,,,,,,,,753.7023,753.7023,753.703,754.5527,1,0,right,0.346,,754.5537,755.4373,1,0,right,755.4383,756.3714,1,0,right,1,756.3715,756.3715,756.3725,757.8731,0,8,8,8,1,0.4,0.6,0.8,0.2,,,,,,,,,,,,,,,0.3631,,0.8,0.2,0.2,0.8,0.4,0.6,0.8,0.2,,,0.4095,,0.6,0.4,0.8,0.2,0.2,0.8,0.2,0.8,1,0
,,5e23c2569138e066e7e892f7,66fc995eec791041f70b8218,2024-10-02_01h53.26.964,mdp,2024.2.1,Win32,59.52380952,66fa4ebf79326e780c390304,,,,,,,,,,,,,,,,,,,,,757.8736,757.8736,757.8745,759.4249,1,0,right,1.0256,,759.4259,760.3929,1,1,right,760.3938,761.4105,1,0,right,1,761.4106,761.4106,761.4116,762.912,0,9,9,9,1,0.4,0.6,0.8,0.2,,,,,,,,,,,,,,,0.4507,,0.8,0.2,0.2,0.8,0.4,0.6,0.8,0.2,,,0.4942,,0.6,0.4,0.8,0.2,0.2,0.8,0.2,0.8,1,0
,,5e23c2569138e066e7e892f7,66fc995eec791041f70b8218,2024-10-02_01h53.26.964,mdp,2024.2.1,Win32,59.52380952,66fa4ebf79326e780c390304,,,,,,,,,,,,,,,,,,,,,762.9125,762.9125,762.9132,763.7797,1,0,right,0.3549,,763.7808,764.8308,1,1,right,764.8319,767.7343,1,1,right,0,767.7344,767.7344,767.7353,769.2356,0,10,10,10,1,0.4,0.6,0.8,0.2,,,,,,,,,,,,,,,0.5392,,0.2,0.8,0.4,0.6,0.4,0.6,0.8,0.2,,,2.3864,,0.6,0.4,0.8,0.2,0.2,0.8,0.2,0.8,1,0
,,5e23c2569138e066e7e892f7,66fc995eec791041f70b8218,2024-10-02_01h53.26.964,mdp,2024.2.1,Win32,59.52380952,66fa4ebf79326e780c390304,,,,,,,,,,,,,,,,,,,,,769.236,769.2361,769.2371,770.9375,1,0,right,1.1865,,770.9388,773.057,0,1,left,773.0579,774.1244,1,1,right,0,774.1246,774.1246,774.1254,775.6261,0,11,11,11,1,0.4,0.6,0.8,0.2,,,,,,,,,,,,,,,1.6049,,0.2,0.8,0.4,0.6,0.4,0.6,0.8,0.2,,,0.5416,,0.6,0.4,0.8,0.2,0.2,0.8,0.2,0.8,1,0
,,5e23c2569138e066e7e892f7,66fc995eec791041f70b8218,2024-10-02_01h53.26.964,mdp,2024.2.1,Win32,59.52380952,66fa4ebf79326e780c390304,,,,,,,,,,,,,,,,,,,,,775.6266,775.6266,775.6274,776.9945,0,0,left,0.8425,,776.9954,778.6462,1,0,right,778.6473,779.4804,1,0,right,1,779.4805,779.4805,779.4816,780.982,0,12,12,12,1,0.4,0.6,0.8,0.2,,,,,,,,,,,,,,,1.1399,,0.2,0.8,0.4,0.6,0.4,0.6,0.8,0.2,,,0.306,,0.6,0.4,0.8,0.2,0.2,0.8,0.2,0.8,1,0
,,5e23c2569138e066e7e892f7,66fc995eec791041f70b8218,2024-10-02_01h53.26.964,mdp,2024.2.1,Win32,59.52380952,66fa4ebf79326e780c390304,,,,,,,,,,,,,,,,,,,,,780.9825,780.9825,780.9834,781.8499,0,1,left,0.3339,,781.8509,782.7507,1,0,right,782.7517,783.568,1,0,right,1,783.5681,783.5681,783.5692,785.0698,0,13,13,13,1,0.4,0.6,0.8,0.2,,,,,,,,,,,,,,,0.3681,,0.2,0.8,0.4,0.6,0.4,0.6,0.8,0.2,,,0.3072,,0.6,0.4,0.8,0.2,0.6,0.4,0.6,0.4,1,0
,,5e23c2569138e066e7e892f7,66fc995eec791041f70b8218,2024-10-02_01h53.26.964,mdp,2024.2.1,Win32,59.52380952,66fa4ebf79326e780c390304,,,,,,,,,,,,,,,,,,,,,785.0702,785.0702,785.071,789.6472,0,0,left,4.0742,,789.6481,790.2925,1,1,right,790.2941,790.9102,1,1,right,0,790.9104,790.9104,790.9117,792.4116,0,14,14,14,1,0.4,0.6,0.8,0.2,,,,,,,,,,,,,,,0.1065,,0.2,0.8,0.4,0.6,0.4,0.6,0.8,0.2,,,0.0861,,0.6,0.4,0.8,0.2,0.6,0.4,0.6,0.4,1,0
,,5e23c2569138e066e7e892f7,66fc995eec791041f70b8218,2024-10-02_01h53.26.964,mdp,2024.2.1,Win32,59.52380952,66fa4ebf79326e780c390304,,,,,,,,,,,,,,,,,,,,,792.4126,792.4126,792.4137,793.029,0,1,left,0.0918,,793.0301,793.7129,1,0,right,793.7146,794.4472,1,0,right,1,794.4474,794.4474,794.4486,795.9485,0,15,15,15,1,0.4,0.6,0.8,0.2,,,,,,,,,,,,,,,0.1456,,0.2,0.8,0.4,0.6,0.4,0.6,0.8,0.2,,,0.2095,,0.6,0.4,0.8,0.2,0.6,0.4,0.6,0.4,1,0
,,5e23c2569138e066e7e892f7,66fc995eec791041f70b8218,2024-10-02_01h53.26.964,mdp,2024.2.1,Win32,59.52380952,66fa4ebf79326e780c390304,,,,,,,,,,,,,,,,,,,,,795.9495,795.9495,795.9506,796.8169,0,0,left,0.3361,,796.8182,797.834,1,1,right,797.8351,798.7522,1,0,right,1,798.7524,798.7524,798.7539,800.2535,0,16,16,16,1,0.4,0.6,0.8,0.2,,,,,,,,,,,,,,,0.4758,,0.2,0.8,0.4,0.6,0.4,0.6,0.8,0.2,,,0.3862,,0.6,0.4,0.8,0.2,0.6,0.4,0.6,0.4,1,0
,,5e23c2569138e066e7e892f7,66fc995eec791041f70b8218,2024-10-02_01h53.26.964,mdp,2024.2.1,Win32,59.52380952,66fa4ebf79326e780c390304,,,,,,,,,,,,,,,,,,,,,800.2546,800.2546,800.2557,801.1545,0,0,left,0.3751,,801.156,802.256,1,1,right,802.2574,803.1402,1,0,right,1,803.1403,803.1403,803.1414,804.6417,0,17,17,17,1,0.4,0.6,0.8,0.2,,,,,,,,,,,,,,,0.5938,,0.2,0.8,0.4,0.6,0.4,0.6,0.8,0.2,,,0.3746,,0.6,0.4,0.8,0.2,0.6,0.4,0.6,0.4,1,0
,,5e23c2569138e066e7e892f7,66fc995eec791041f70b8218,2024-10-02_01h53.26.964,mdp,2024.2.1,Win32,59.52380952,66fa4ebf79326e780c390304,,,,,,,,,,,,,,,,,,,,,804.6424,804.6424,804.6433,805.4428,0,0,left,0.2674,,805.4446,806.5107,1,1,right,806.5122,807.3782,1,0,right,1,807.3784,807.3784,807.3796,808.8795,0,18,18,18,1,0.4,0.6,0.8,0.2,,,,,,,,,,,,,,,0.5593,,0.2,0.8,0.4,0.6,0.4,0.6,0.8,0.2,,,0.3357,,0.2,0.8,0.6,0.4,0.6,0.4,0.6,0.4,1,0
,,5e23c2569138e066e7e892f7,66fc995eec791041f70b8218,2024-10-02_01h53.26.964,mdp,2024.2.1,Win32,59.52380952,66fa4ebf79326e780c390304,,,,,,,,,,,,,,,,,,,,,808.8805,808.8806,808.8816,811.9879,0,1,left,2.5852,,811.9886,812.6505,1,0,right,812.6519,813.5015,1,1,right,0,813.5018,813.5018,813.5033,815.0032,0,19,19,19,1,0.4,0.6,0.8,0.2,,,,,,,,,,,,,,,0.1203,,0.2,0.8,0.4,0.6,0.4,0.6,0.8,0.2,,,0.3226,,0.2,0.8,0.6,0.4,0.6,0.4,0.6,0.4,1,0
,,5e23c2569138e066e7e892f7,66fc995eec791041f70b8218,2024-10-02_01h53.26.964,mdp,2024.2.1,Win32,59.52380952,66fa4ebf79326e780c390304,,,,,,,,,,,,,,,,,,,,,815.0043,815.0043,815.0052,815.8375,0,1,left,0.3027,,815.839,816.6215,1,0,right,816.6228,817.5895,1,0,right,1,817.5896,817.5896,817.5906,819.0909,0,20,20,20,1,0.4,0.6,0.8,0.2,,,,,,,,,,,,,,,0.2563,,0.2,0.8,0.4,0.6,0.4,0.6,0.8,0.2,,,0.4517,,0.2,0.8,0.6,0.4,0.6,0.4,0.6,0.4,1,0
,,5e23c2569138e066e7e892f7,66fc995eec791041f70b8218,2024-10-02_01h53.26.964,mdp,2024.2.1,Win32,59.52380952,66fa4ebf79326e780c390304,,,,,,,,,,,,,,,,,,,,,819.0917,819.0917,819.0927,819.9422,0,0,left,0.3026,,819.9436,820.7596,1,1,right,820.7606,821.5772,1,0,right,1,821.5774,821.5774,821.579,823.0786,0,21,21,21,1,0.4,0.6,0.8,0.2,,,,,,,,,,,,,,,0.2692,,0.2,0.8,0.4,0.6,0.4,0.6,0.8,0.2,,,0.2849,,0.2,0.8,0.6,0.4,0.6,0.4,0.6,0.4,1,0
,,5e23c2569138e066e7e892f7,66fc995eec791041f70b8218,2024-10-02_01h53.26.964,mdp,2024.2.1,Win32,59.52380952,66fa4ebf79326e780c390304,,,,,,,,,,,,,,,,,,,,,823.0797,823.0797,823.0805,823.8798,0,1,left,0.2684,,823.8812,824.5637,1,1,right,824.5652,825.3647,1,1,right,0,825.365,825.365,825.3664,826.8661,0,22,22,22,1,0.4,0.6,0.8,0.2,,,,,,,,,,,,,,,0.1608,,0.2,0.8,0.4,0.6,0.4,0.6,0.8,0.2,,,0.2884,,0.2,0.8,0.6,0.4,0.6,0.4,0.6,0.4,1,0
,,5e23c2569138e066e7e892f7,66fc995eec791041f70b8218,2024-10-02_01h53.26.964,mdp,2024.2.1,Win32,59.52380952,66fa4ebf79326e780c390304,,,,,,,,,,,,,,,,,,,,,826.8671,826.8671,826.8681,827.9009,0,1,left,0.5029,,827.9025,828.6354,1,0,right,828.6366,829.4358,1,1,right,0,829.4359,829.4359,829.4372,830.9373,0,23,23,23,1,0.4,0.6,0.8,0.2,,,,,,,,,,,,,,,0.2166,,0.2,0.8,0.4,0.6,0.4,0.6,0.8,0.2,,,0.2583,,0.2,0.8,0.6,0.4,0.2,0.8,0.4,0.6,1,0
,,5e23c2569138e066e7e892f7,66fc995eec791041f70b8218,2024-10-02_01h53.26.964,mdp,2024.2.1,Win32,59.52380952,66fa4ebf79326e780c390304,,,,,,,,,,,,,,,,,,,,,830.9383,830.9383,830.9395,831.5724,0,1,left,0.1028,,831.5737,832.3224,1,0,right,832.3234,832.9732,1,0,right,1,832.9734,832.9734,832.9747,834.4745,0,24,24,24,1,0.4,0.6,0.8,0.2,,,,,,,,,,,,,,,0.2222,,0.2,0.8,0.4,0.6,0.4,0.6,0.8,0.2,,,0.1342,,0.2,0.8,0.6,0.4,0.2,0.8,0.4,0.6,1,0
,,5e23c2569138e066e7e892f7,66fc995eec791041f70b8218,2024-10-02_01h53.26.964,mdp,2024.2.1,Win32,59.52380952,66fa4ebf79326e780c390304,,,,,,,,,,,,,,,,,,,,,834.4755,834.4755,834.4763,835.5592,0,1,left,0.5527,,835.5607,836.3772,1,0,right,836.3788,837.0611,1,0,right,1,837.0612,837.0612,837.0624,838.5622,0,25,25,25,1,0.4,0.6,0.8,0.2,,,,,,,,,,,,,,,0.3006,,0.2,0.8,0.4,0.6,0.6,0.4,0.4,0.6,,,0.1493,,0.2,0.8,0.6,0.4,0.2,0.8,0.4,0.6,1,0
,,5e23c2569138e066e7e892f7,66fc995eec791041f70b8218,2024-10-02_01h53.26.964,mdp,2024.2.1,Win32,59.52380952,66fa4ebf79326e780c390304,,,,,,,,,,,,,,,,,,,,,838.5631,838.5631,838.5641,839.2966,0,1,left,0.2048,,839.2978,840.0812,1,0,right,840.0829,840.6651,1,1,right,0,840.6652,840.6653,840.6665,842.1664,0,26,26,26,1,0.4,0.6,0.8,0.2,,,,,,,,,,,,,,,0.2679,,0.2,0.8,0.4,0.6,0.6,0.4,0.4,0.6,,,0.0587,,0.2,0.8,0.6,0.4,0.2,0.8,0.4,0.6,1,0
,,5e23c2569138e066e7e892f7,66fc995eec791041f70b8218,2024-10-02_01h53.26.964,mdp,2024.2.1,Win32,59.52380952,66fa4ebf79326e780c390304,,,,,,,,,,,,,,,,,,,,,842.1671,842.1671,842.168,842.9179,0,1,left,0.2245,,842.9193,843.6516,1,1,right,843.653,844.3521,1,0,right,1,844.3523,844.3523,844.3532,845.8538,0,27,27,27,1,0.4,0.6,0.8,0.2,,,,,,,,,,,,,,,0.2124,,0.2,0.8,0.4,0.6,0.6,0.4,0.4,0.6,,,0.1691,,0.2,0.8,0.6,0.4,0.2,0.8,0.4,0.6,1,0
,,5e23c2569138e066e7e892f7,66fc995eec791041f70b8218,2024-10-02_01h53.26.964,mdp,2024.2.1,Win32,59.52380952,66fa4ebf79326e780c390304,,,,,,,,,,,,,,,,,,,,,845.8545,845.8545,845.856,846.8721,0,0,left,0.4858,,846.8736,847.6064,1,1,right,847.6082,848.2232,1,1,right,0,848.2233,848.2233,848.2243,849.7248,0,28,28,28,1,0.4,0.6,0.8,0.2,,,,,,,,,,,,,,,0.1882,,0.2,0.8,0.4,0.6,0.6,0.4,0.4,0.6,,,0.0835,,0.2,0.8,0.6,0.4,0.2,0.8,0.4,0.6,1,0
,,5e23c2569138e066e7e892f7,66fc995eec791041f70b8218,2024-10-02_01h53.26.964,mdp,2024.2.1,Win32,59.52380952,66fa4ebf79326e780c390304,,,,,,,,,,,,,,,,,,,,,849.7259,849.7259,849.7273,850.4272,0,0,left,0.1816,,850.4279,851.0266,1,0,right,851.0278,851.6938,1,1,right,0,851.694,851.694,851.6952,853.1952,0,29,29,29,1,0.4,0.6,0.8,0.2,,,,,,,,,,,,,,,0.068,,0.2,0.8,0.4,0.6,0.6,0.4,0.4,0.6,,,0.1185,,0.2,0.8,0.6,0.4,0.2,0.8,0.4,0.6,1,0
,,5e23c2569138e066e7e892f7,66fc995eec791041f70b8218,2024-10-02_01h53.26.964,mdp,2024.2.1,Win32,59.52380952,66fa4ebf79326e780c390304,,,,,,,,,,,,,,,,,,,,,853.1957,853.1957,853.1965,853.8294,0,1,left,0.1177,,853.8306,854.447,1,1,right,854.4483,854.9971,1,1,right,0,854.9972,854.9972,854.9985,856.4989,0,30,30,30,1,0.2,0.8,0.6,0.4,,,,,,,,,,,,,,,0.0847,,0.2,0.8,0.4,0.6,0.6,0.4,0.4,0.6,,,0.0181,,0.2,0.8,0.6,0.4,0.2,0.8,0.4,0.6,1,0
,,5e23c2569138e066e7e892f7,66fc995eec791041f70b8218,2024-10-02_01h53.26.964,mdp,2024.2.1,Win32,59.52380952,66fa4ebf79326e780c390304,,,,,,,,,,,,,,,,,,,,,856.4995,856.4995,856.5003,857.0663,1,0,right,0.0438,,857.0675,857.8172,0,1,left,857.8189,858.5012,0,1,left,0,858.5013,858.5014,858.5024,860.0026,0,31,31,31,1,0.2,0.8,0.6,0.4,,,,,,,,,,,,,,,0.2179,,0.2,0.8,0.4,0.6,0.6,0.4,0.4,0.6,,,0.1676,,0.2,0.8,0.6,0.4,0.2,0.8,0.4,0.6,1,0
,,5e23c2569138e066e7e892f7,66fc995eec791041f70b8218,2024-10-02_01h53.26.964,mdp,2024.2.1,Win32,59.52380952,66fa4ebf79326e780c390304,,,,,,,,,,,,,,,,,,,,,860.0032,860.0032,860.0042,860.8544,1,0,right,0.3353,,860.8554,861.6045,1,0,right,861.6059,862.2721,0,1,left,0,862.2722,862.2722,862.2735,863.7734,0,32,32,32,1,0.2,0.8,0.6,0.4,,,,,,,,,,,,,,,0.2203,,0.2,0.8,0.4,0.6,0.6,0.4,0.4,0.6,,,0.1446,,0.2,0.8,0.6,0.4,0.2,0.8,0.4,0.6,1,0
,,5e23c2569138e066e7e892f7,66fc995eec791041f70b8218,2024-10-02_01h53.26.964,mdp,2024.2.1,Win32,59.52380952,66fa4ebf79326e780c390304,,,,,,,,,,,,,,,,,,,,,863.7742,863.7742,863.775,864.7612,1,0,right,0.4666,,864.7621,865.4921,1,1,right,865.4934,866.1262,0,1,left,0,866.1264,866.1264,866.1277,867.628,0,33,33,33,1,0.2,0.8,0.6,0.4,,,,,,,,,,,,,,,0.2117,,0.2,0.8,0.4,0.6,0.6,0.4,0.4,0.6,,,0.1037,,0.2,0.8,0.6,0.4,0.6,0.4,0.2,0.8,1,0
,,5e23c2569138e066e7e892f7,66fc995eec791041f70b8218,2024-10-02_01h53.26.964,mdp,2024.2.1,Win32,59.52380952,66fa4ebf79326e780c390304,,,,,,,,,,,,,,,,,,,,,867.6287,867.6287,867.6296,868.179,1,1,right,0.0184,,868.1801,868.7801,1,0,right,868.7813,869.4131,0,1,left,0,869.4133,869.4133,869.4148,870.915,0,34,34,34,1,0.2,0.8,0.6,0.4,,,,,,,,,,,,,,,0.0643,,0.2,0.8,0.4,0.6,0.6,0.4,0.4,0.6,,,0.0953,,0.2,0.8,0.6,0.4,0.6,0.4,0.2,0.8,1,0
,,5e23c2569138e066e7e892f7,66fc995eec791041f70b8218,2024-10-02_01h53.26.964,mdp,2024.2.1,Win32,59.52380952,66fa4ebf79326e780c390304,,,,,,,,,,,,,,,,,,,,,870.916,870.916,870.9171,871.766,0,1,left,0.3276,,871.7671,872.3497,1,0,right,872.3513,872.9671,0,0,left,1,872.9673,872.9673,872.969,874.4691,0,35,35,35,1,0.2,0.8,0.6,0.4,,,,,,,,,,,,,,,0.069,,0.2,0.8,0.4,0.6,0.6,0.4,0.4,0.6,,,0.1126,,0.2,0.8,0.6,0.4,0.6,0.4,0.2,0.8,1,0
,,5e23c2569138e066e7e892f7,66fc995eec791041f70b8218,2024-10-02_01h53.26.964,mdp,2024.2.1,Win32,59.52380952,66fa4ebf79326e780c390304,,,,,,,,,,,,,,,,,,,,,874.4699,874.4699,874.4708,875.2865,1,1,right,0.2927,,875.2879,875.854,0,1,left,875.8553,876.5048,1,0,right,1,876.505,876.5051,876.5063,878.0062,0,36,36,36,1,0.2,0.8,0.6,0.4,,,,,,,,,,,,,,,0.0553,,0.2,0.8,0.4,0.6,0.6,0.4,0.4,0.6,,,0.1109,,0.2,0.8,0.6,0.4,0.6,0.4,0.2,0.8,1,0
,,5e23c2569138e066e7e892f7,66fc995eec791041f70b8218,2024-10-02_01h53.26.964,mdp,2024.2.1,Win32,59.52380952,66fa4ebf79326e780c390304,,,,,,,,,,,,,,,,,,,,,878.0071,878.0071,878.008,878.9571,0,1,left,0.4187,,878.9583,879.5745,1,0,right,879.5763,880.2254,0,1,left,0,880.2256,880.2257,880.2269,881.7269,0,37,37,37,1,0.2,0.8,0.6,0.4,,,,,,,,,,,,,,,0.1013,,0.2,0.8,0.4,0.6,0.6,0.4,0.4,0.6,,,0.1194,,0.2,0.8,0.6,0.4,0.6,0.4,0.2,0.8,1,0
,,5e23c2569138e066e7e892f7,66fc995eec791041f70b8218,2024-10-02_01h53.26.964,mdp,2024.2.1,Win32,59.52380952,66fa4ebf79326e780c390304,,,,,,,,,,,,,,,,,,,,,881.728,881.728,881.7288,882.3444,1,0,right,0.0937,,882.3455,882.9285,0,1,left,882.9302,884.0128,1,1,right,0,884.0129,884.0129,884.0141,885.5142,0,38,38,38,1,0.2,0.8,0.6,0.4,,,,,,,,,,,,,,,0.0588,,0.2,0.8,0.4,0.6,0.6,0.4,0.4,0.6,,,0.5443,,0.2,0.8,0.6,0.4,0.6,0.4,0.2,0.8,1,0
,,5e23c2569138e066e7e892f7,66fc995eec791041f70b8218,2024-10-02_01h53.26.964,mdp,2024.2.1,Win32,59.52380952,66fa4ebf79326e780c390304,,,,,,,,,,,,,,,,,,,,,885.5147,885.5147,885.5156,886.4324,0,1,left,0.3971,,886.4339,887.2162,1,0,right,887.2178,887.8838,0,0,left,1,887.884,887.884,887.885,889.3851,0,39,39,39,1,0.2,0.8,0.6,0.4,,,,,,,,,,,,,,,0.2354,,0.2,0.8,0.4,0.6,0.6,0.4,0.4,0.6,,,0.1406,,0.2,0.8,0.6,0.4,0.6,0.4,0.2,0.8,1,0
,,5e23c2569138e066e7e892f7,66fc995eec791041f70b8218,2024-10-02_01h53.26.964,mdp,2024.2.1,Win32,59.52380952,66fa4ebf79326e780c390304,,,,,,,,,,,,,,,,,,,,,889.3859,889.3859,889.387,890.3698,0,1,left,0.451,,890.371,891.0544,1,1,right,891.0558,891.6379,0,1,left,0,891.638,891.6381,891.6391,893.1393,0,40,40,40,1,0.2,0.8,0.6,0.4,,,,,,,,,,,,,,,0.1769,,0.2,0.8,0.4,0.6,0.6,0.4,0.4,0.6,,,0.0343,,0.2,0.8,0.6,0.4,0.6,0.4,0.2,0.8,1,0
,,5e23c2569138e066e7e892f7,66fc995eec791041f70b8218,2024-10-02_01h53.26.964,mdp,2024.2.1,Win32,59.52380952,66fa4ebf79326e780c390304,,,,,,,,,,,,,,,,,,,,,893.14,893.14,893.1408,894.1406,1,0,right,0.4706,,894.1418,894.775,0,1,left,894.7765,895.442,1,1,right,0,895.4425,895.4425,895.4441,896.9436,0,41,41,41,1,0.2,0.8,0.6,0.4,,,,,,,,,,,,,,,0.1036,,0.2,0.8,0.4,0.6,0.6,0.4,0.4,0.6,,,0.1417,,0.2,0.8,0.6,0.4,0.6,0.4,0.2,0.8,1,0
,,5e23c2569138e066e7e892f7,66fc995eec791041f70b8218,2024-10-02_01h53.26.964,mdp,2024.2.1,Win32,59.52380952,66fa4ebf79326e780c390304,,,,,,,,,,,,,,,,,,,,,896.9445,896.9445,896.9457,897.7445,1,0,right,0.2802,,897.746,898.379,0,1,left,898.3806,898.9124,1,1,right,0,898.9127,898.9127,898.9142,900.4143,0,42,42,42,1,0.2,0.8,0.6,0.4,,,,,,,,,,,,,,,0.1266,,0.2,0.8,0.4,0.6,0.6,0.4,0.4,0.6,,,0.0115,,0.8,0.2,0.4,0.6,0.6,0.4,0.2,0.8,1,0
,,5e23c2569138e066e7e892f7,66fc995eec791041f70b8218,2024-10-02_01h53.26.964,mdp,2024.2.1,Win32,59.52380952,66fa4ebf79326e780c390304,,,,,,,,,,,,,,,,,,,,,900.4152,900.4152,900.4163,901.2486,0,1,left,0.3087,,901.2501,901.8496,1,0,right,901.851,902.386,0,0,left,1,902.3861,902.3861,902.3866,903.8848,0,43,43,43,1,0.2,0.8,0.6,0.4,,,,,,,,,,,,,,,0.0509,,0.2,0.8,0.4,0.6,0.6,0.4,0.4,0.6,,,0.0003,,0.8,0.2,0.4,0.6,0.6,0.4,0.2,0.8,1,0
,,5e23c2569138e066e7e892f7,66fc995eec791041f70b8218,2024-10-02_01h53.26.964,mdp,2024.2.1,Win32,59.52380952,66fa4ebf79326e780c390304,,,,,,,,,,,,,,,,,,,,,903.8859,903.8859,903.8868,904.7022,0,1,left,0.2891,,904.7033,905.4699,1,1,right,905.4715,906.0373,0,1,left,0,906.0375,906.0376,906.0387,907.5386,0,44,44,44,1,0.2,0.8,0.6,0.4,,,,,,,,,,,,,,,0.2565,,0.2,0.8,0.4,0.6,0.6,0.4,0.4,0.6,,,0.0356,,0.8,0.2,0.4,0.6,0.6,0.4,0.2,0.8,1,0
,,5e23c2569138e066e7e892f7,66fc995eec791041f70b8218,2024-10-02_01h53.26.964,mdp,2024.2.1,Win32,59.52380952,66fa4ebf79326e780c390304,,,,,,,,,,,,,,,,,,,,,907.5397,907.5397,907.5405,908.4397,0,1,left,0.3682,,908.4412,908.9736,1,0,right,908.9753,909.494,0,0,left,1,909.4941,909.4941,909.495,910.9923,0,45,45,45,1,0.2,0.8,0.6,0.4,,,,,,,,,,,,,,,0.0082,,0.2,0.8,0.4,0.6,0.6,0.4,0.4,0.6,,,0.0006,,0.8,0.2,0.4,0.6,0.6,0.4,0.2,0.8,1,0
,,5e23c2569138e066e7e892f7,66fc995eec791041f70b8218,2024-10-02_01h53.26.964,mdp,2024.2.1,Win32,59.52380952,66fa4ebf79326e780c390304,,,,,,,,,,,,,,,,,,,,,910.993,910.993,910.9941,912.1774,0,1,left,0.657,,912.179,912.8783,1,1,right,912.8798,913.4788,0,1,left,0,913.4789,913.479,913.4802,914.98,0,46,46,46,1,0.2,0.8,0.6,0.4,,,,,,,,,,,,,,,0.175,,0.2,0.8,0.4,0.6,0.6,0.4,0.4,0.6,,,0.0624,,0.8,0.2,0.4,0.6,0.6,0.4,0.2,0.8,1,0
,,5e23c2569138e066e7e892f7,66fc995eec791041f70b8218,2024-10-02_01h53.26.964,mdp,2024.2.1,Win32,59.52380952,66fa4ebf79326e780c390304,,,,,,,,,,,,,,,,,,,,,914.9808,914.9808,914.9817,915.8814,0,0,left,0.3749,,915.8825,916.4486,1,0,right,916.4499,916.9998,0,1,left,0,917,917,917.0011,918.5005,0,47,47,47,1,0.2,0.8,0.6,0.4,,,,,,,,,,,,,,,0.0343,,0.2,0.8,0.4,0.6,0.6,0.4,0.4,0.6,,,0.0306,,0.2,0.8,0.6,0.4,0.6,0.4,0.2,0.8,1,0
,,5e23c2569138e066e7e892f7,66fc995eec791041f70b8218,2024-10-02_01h53.26.964,mdp,2024.2.1,Win32,59.52380952,66fa4ebf79326e780c390304,,,,,,,,,,,,,,,,,,,,,918.5016,918.5016,918.5029,919.0685,0,0,left,0.0438,,919.07,920.119,1,1,right,920.121,920.7867,0,1,left,0,920.7869,920.7869,920.7882,922.2884,0,48,48,48,1,0.2,0.8,0.6,0.4,,,,,,,,,,,,,,,0.5194,,0.2,0.8,0.4,0.6,0.6,0.4,0.4,0.6,,,0.136,,0.2,0.8,0.6,0.4,0.6,0.4,0.2,0.8,1,0
,,5e23c2569138e066e7e892f7,66fc995eec791041f70b8218,2024-10-02_01h53.26.964,mdp,2024.2.1,Win32,59.52380952,66fa4ebf79326e780c390304,,,,,,,,,,,,,,,,,,,,,922.2896,922.2896,922.2904,923.3727,0,0,left,0.5634,,923.3741,923.9235,1,0,right,923.9251,924.541,0,1,left,0,924.5411,924.5411,924.5421,926.0426,0,49,49,49,1,0.2,0.8,0.6,0.4,,,,,,,,,,,,,,,0.0381,,0.2,0.8,0.4,0.6,0.6,0.4,0.4,0.6,,,0.0884,,0.2,0.8,0.6,0.4,0.6,0.4,0.2,0.8,1,0
,,5e23c2569138e066e7e892f7,66fc995eec791041f70b8218,2024-10-02_01h53.26.964,mdp,2024.2.1,Win32,59.52380952,66fa4ebf79326e780c390304,,,,,,,,,,,,,,,,,,,,,,,,,,,,,,,,,,,,,,,,,,,,,,,,,,,,,,,,926.0429,984.9242,0,2,2,3,1,imgs/rabbit.png,imgs/elephant.png,imgs/kangaroo.png,imgs/horse.png,imgs/goat.png,,,,,,,,,,,,,,,,,,,,,,,,
,,5e23c2569138e066e7e892f7,66fc995eec791041f70b8218,2024-10-02_01h53.26.964,mdp,2024.2.1,Win32,59.52380952,66fa4ebf79326e780c390304,,,,,,,,,,,,,,3,seqs/st3seq15.csv,984.9245,988.6304,space,0.966,,988.6353,988.6353,988.6359,990.0988,0,0,left,0.9348,,990.0995,990.9165,1,1,right,990.9172,991.6006,0,0,left,1,991.6006,991.6006,991.6012,993.102,0,0,0,0,1,0.2,0.8,0.6,0.4,,,,,,,,,,,,,,,0.3005,,0.2,0.8,0.8,0.2,0.2,0.8,0.8,0.2,,,0.1672,,0.8,0.2,0.2,0.8,0.8,0.2,0.2,0.8,1,0
,,5e23c2569138e066e7e892f7,66fc995eec791041f70b8218,2024-10-02_01h53.26.964,mdp,2024.2.1,Win32,59.52380952,66fa4ebf79326e780c390304,,,,,,,,,,,,,,,,,,,,,993.1023,993.1023,993.1028,993.9531,0,0,left,0.3338,,993.9537,994.6872,1,0,right,994.6878,995.3878,0,0,left,1,995.3879,995.3879,995.3885,996.8895,0,1,1,1,1,0.2,0.8,0.6,0.4,,,,,,,,,,,,,,,0.2171,,0.2,0.8,0.8,0.2,0.2,0.8,0.8,0.2,,,0.1835,,0.8,0.2,0.2,0.8,0.8,0.2,0.2,0.8,1,0
,,5e23c2569138e066e7e892f7,66fc995eec791041f70b8218,2024-10-02_01h53.26.964,mdp,2024.2.1,Win32,59.52380952,66fa4ebf79326e780c390304,,,,,,,,,,,,,,,,,,,,,996.8898,996.8898,996.8903,997.6737,0,1,left,0.2672,,997.6743,998.4751,1,0,right,998.4757,999.3258,0,0,left,1,999.3259,999.3259,999.3265,1000.8272,0,2,2,2,1,0.2,0.8,0.6,0.4,,,,,,,,,,,,,,,0.2841,,0.2,0.8,0.8,0.2,0.2,0.8,0.8,0.2,,,0.3341,,0.8,0.2,0.2,0.8,0.8,0.2,0.2,0.8,1,0
,,5e23c2569138e066e7e892f7,66fc995eec791041f70b8218,2024-10-02_01h53.26.964,mdp,2024.2.1,Win32,59.52380952,66fa4ebf79326e780c390304,,,,,,,,,,,,,,,,,,,,,1000.8275,1000.8275,1000.8281,1001.6116,0,1,left,0.2673,,1001.6122,1002.2455,1,1,right,1002.2462,1002.8797,0,0,left,1,1002.8797,1002.8797,1002.8802,1004.3811,0,3,3,3,1,0.2,0.8,0.6,0.4,,,,,,,,,,,,,,,0.1172,,0.2,0.8,0.8,0.2,0.8,0.2,0.6,0.4,,,0.117,,0.8,0.2,0.2,0.8,0.8,0.2,0.2,0.8,1,0
,,5e23c2569138e066e7e892f7,66fc995eec791041f70b8218,2024-10-02_01h53.26.964,mdp,2024.2.1,Win32,59.52380952,66fa4ebf79326e780c390304,,,,,,,,,,,,,,,,,,,,,1004.3814,1004.3814,1004.3819,1006.0998,0,0,left,1.2014,,1006.1004,1006.7337,1,0,right,1006.7344,1007.3177,0,0,left,1,1007.3177,1007.3177,1007.3184,1008.8193,0,4,4,4,1,0.2,0.8,0.6,0.4,,,,,,,,,,,,,,,0.1169,,0.2,0.8,0.8,0.2,0.8,0.2,0.6,0.4,,,0.0668,,0.8,0.2,0.2,0.8,0.8,0.2,0.2,0.8,1,0
,,5e23c2569138e066e7e892f7,66fc995eec791041f70b8218,2024-10-02_01h53.26.964,mdp,2024.2.1,Win32,59.52380952,66fa4ebf79326e780c390304,,,,,,,,,,,,,,,,,,,,,1008.8196,1008.8196,1008.8203,1009.4537,0,1,left,0.1171,,1009.4545,1009.9875,1,0,right,1009.9882,1011.0888,0,0,left,1,1011.0889,1011.0889,1011.0894,1012.5902,0,5,5,5,1,0.2,0.8,0.6,0.4,,,,,,,,,,,,,,,0.0168,,0.2,0.8,0.8,0.2,0.8,0.2,0.6,0.4,,,0.5844,,0.8,0.2,0.2,0.8,0.2,0.8,0.8,0.2,1,0
,,5e23c2569138e066e7e892f7,66fc995eec791041f70b8218,2024-10-02_01h53.26.964,mdp,2024.2.1,Win32,59.52380952,66fa4ebf79326e780c390304,,,,,,,,,,,,,,,,,,,,,1012.5904,1012.5904,1012.591,1013.3912,0,0,left,0.2837,,1013.3918,1014.0423,1,1,right,1014.0429,1014.6592,0,1,left,0,1014.6592,1014.6593,1014.6599,1016.1607,0,6,6,6,1,0.8,0.2,0.2,0.8,,,,,,,,,,,,,,,0.134,,0.2,0.8,0.8,0.2,0.8,0.2,0.6,0.4,,,0.1002,,0.8,0.2,0.2,0.8,0.2,0.8,0.8,0.2,1,0
,,5e23c2569138e066e7e892f7,66fc995eec791041f70b8218,2024-10-02_01h53.26.964,mdp,2024.2.1,Win32,59.52380952,66fa4ebf79326e780c390304,,,,,,,,,,,,,,,,,,,,,1016.161,1016.161,1016.1615,1017.1625,0,0,left,0.4846,,1017.1631,1017.9796,1,0,right,1017.9802,1018.5304,0,0,left,1,1018.5305,1018.5305,1018.531,1020.0317,0,7,7,7,1,0.8,0.2,0.2,0.8,,,,,,,,,,,,,,,0.2841,,0.2,0.8,0.8,0.2,0.8,0.2,0.6,0.4,,,0.0337,,0.8,0.2,0.2,0.8,0.2,0.8,0.8,0.2,1,0
,,5e23c2569138e066e7e892f7,66fc995eec791041f70b8218,2024-10-02_01h53.26.964,mdp,2024.2.1,Win32,59.52380952,66fa4ebf79326e780c390304,,,,,,,,,,,,,,,,,,,,,1020.032,1020.032,1020.0326,1020.7826,0,1,left,0.2338,,1020.7832,1021.4835,1,0,right,1021.4841,1022.1509,0,0,left,1,1022.151,1022.151,1022.1515,1023.6523,0,8,8,8,1,0.4,0.6,0.6,0.4,,,,,,,,,,,,,,,0.1837,,0.2,0.8,0.8,0.2,0.8,0.2,0.6,0.4,,,0.1503,,0.8,0.2,0.2,0.8,0.2,0.8,0.8,0.2,1,0
,,5e23c2569138e066e7e892f7,66fc995eec791041f70b8218,2024-10-02_01h53.26.964,mdp,2024.2.1,Win32,59.52380952,66fa4ebf79326e780c390304,,,,,,,,,,,,,,,,,,,,,1023.6526,1023.6526,1023.6531,1024.6871,0,1,left,0.5174,,1024.6877,1025.3044,1,1,right,1025.305,1025.8885,0,1,left,0,1025.8885,1025.8885,1025.889,1027.39,0,9,9,9,1,0.4,0.6,0.6,0.4,,,,,,,,,,,,,,,0.1004,,0.2,0.8,0.8,0.2,0.8,0.2,0.6,0.4,,,0.0668,,0.8,0.2,0.2,0.8,0.2,0.8,0.8,0.2,1,0
,,5e23c2569138e066e7e892f7,66fc995eec791041f70b8218,2024-10-02_01h53.26.964,mdp,2024.2.1,Win32,59.52380952,66fa4ebf79326e780c390304,,,,,,,,,,,,,,,,,,,,,1027.3902,1027.3902,1027.391,1028.1073,0,1,left,0.2004,,1028.108,1028.7585,1,0,right,1028.7591,1029.3588,0,0,left,1,1029.3588,1029.3588,1029.3593,1030.8604,0,10,10,10,1,0.4,0.6,0.6,0.4,,,,,,,,,,,,,,,0.134,,0.2,0.8,0.8,0.2,0.8,0.2,0.6,0.4,,,0.0836,,0.8,0.2,0.2,0.8,0.2,0.8,0.8,0.2,1,0
,,5e23c2569138e066e7e892f7,66fc995eec791041f70b8218,2024-10-02_01h53.26.964,mdp,2024.2.1,Win32,59.52380952,66fa4ebf79326e780c390304,,,,,,,,,,,,,,,,,,,,,1030.8608,1030.8608,1030.8612,1031.895,0,0,left,0.501,,1031.8956,1032.4624,1,0,right,1032.463,1032.9964,0,0,left,1,1032.9964,1032.9964,1032.997,1034.4978,0,11,11,11,1,0.4,0.6,0.6,0.4,,,,,,,,,,,,,,,0.0503,,0.2,0.8,0.8,0.2,0.8,0.2,0.6,0.4,,,0.017,,0.8,0.2,0.2,0.8,0.2,0.8,0.8,0.2,1,0
,,5e23c2569138e066e7e892f7,66fc995eec791041f70b8218,2024-10-02_01h53.26.964,mdp,2024.2.1,Win32,59.52380952,66fa4ebf79326e780c390304,,,,,,,,,,,,,,,,,,,,,1034.4981,1034.4982,1034.4988,1035.2988,0,1,left,0.2672,,1035.2994,1035.9662,1,1,right,1035.9668,1036.6002,0,1,left,0,1036.6003,1036.6003,1036.6008,1038.1016,0,12,12,12,1,0.4,0.6,0.6,0.4,,,,,,,,,,,,,,,0.1503,,0.2,0.8,0.8,0.2,0.8,0.2,0.6,0.4,,,0.1171,,0.8,0.2,0.2,0.8,0.2,0.8,0.8,0.2,1,0
,,5e23c2569138e066e7e892f7,66fc995eec791041f70b8218,2024-10-02_01h53.26.964,mdp,2024.2.1,Win32,59.52380952,66fa4ebf79326e780c390304,,,,,,,,,,,,,,,,,,,,,1038.1019,1038.1019,1038.1025,1038.9527,0,1,left,0.3339,,1038.9533,1039.5203,1,0,right,1039.5209,1040.0875,0,0,left,1,1040.0876,1040.0876,1040.0881,1041.5887,0,13,13,13,1,0.4,0.6,0.6,0.4,,,,,,,,,,,,,,,0.0504,,0.2,0.8,0.8,0.2,0.8,0.2,0.6,0.4,,,0.0335,,0.8,0.2,0.2,0.8,0.2,0.8,0.8,0.2,1,0
,,5e23c2569138e066e7e892f7,66fc995eec791041f70b8218,2024-10-02_01h53.26.964,mdp,2024.2.1,Win32,59.52380952,66fa4ebf79326e780c390304,,,,,,,,,,,,,,,,,,,,,1041.589,1041.589,1041.5895,1042.1729,0,1,left,0.0671,,1042.1735,1043.224,1,0,right,1043.2246,1043.8749,0,1,left,0,1043.8749,1043.8749,1043.8755,1045.3765,0,14,14,14,1,0.4,0.6,0.6,0.4,,,,,,,,,,,,,,,0.534,,0.2,0.8,0.8,0.2,0.8,0.2,0.6,0.4,,,0.1337,,0.8,0.2,0.2,0.8,0.2,0.8,0.8,0.2,1,0
,,5e23c2569138e066e7e892f7,66fc995eec791041f70b8218,2024-10-02_01h53.26.964,mdp,2024.2.1,Win32,59.52380952,66fa4ebf79326e780c390304,,,,,,,,,,,,,,,,,,,,,1045.3768,1045.3768,1045.3774,1046.411,0,1,left,0.5175,,1046.4116,1047.012,1,0,right,1047.0129,1047.6124,0,0,left,1,1047.6124,1047.6125,1047.6129,1049.1137,0,15,15,15,1,0.4,0.6,0.6,0.4,,,,,,,,,,,,,,,0.0839,,0.2,0.8,0.8,0.2,0.6,0.4,0.4,0.6,,,0.0838,,0.8,0.2,0.2,0.8,0.2,0.8,0.8,0.2,1,0
,,5e23c2569138e066e7e892f7,66fc995eec791041f70b8218,2024-10-02_01h53.26.964,mdp,2024.2.1,Win32,59.52380952,66fa4ebf79326e780c390304,,,,,,,,,,,,,,,,,,,,,1049.1141,1049.1141,1049.1146,1049.7816,0,1,left,0.1505,,1049.7822,1050.4822,1,1,right,1050.4828,1051.1496,0,0,left,1,1051.1496,1051.1496,1051.1503,1052.651,0,16,16,16,1,0.4,0.6,0.6,0.4,,,,,,,,,,,,,,,0.1839,,0.2,0.8,0.8,0.2,0.6,0.4,0.4,0.6,,,0.1504,,0.8,0.2,0.2,0.8,0.2,0.8,0.8,0.2,1,0
,,5e23c2569138e066e7e892f7,66fc995eec791041f70b8218,2024-10-02_01h53.26.964,mdp,2024.2.1,Win32,59.52380952,66fa4ebf79326e780c390304,,,,,,,,,,,,,,,,,,,,,1052.6513,1052.6513,1052.6518,1053.4687,0,1,left,0.3007,,1053.4694,1054.0194,1,0,right,1054.0199,1055.0206,0,0,left,1,1055.0207,1055.0207,1055.0213,1056.5221,0,17,17,17,1,0.4,0.6,0.6,0.4,,,,,,,,,,,,,,,0.0335,,0.2,0.8,0.8,0.2,0.6,0.4,0.4,0.6,,,0.484,,0.8,0.2,0.2,0.8,0.2,0.8,0.8,0.2,1,0
,,5e23c2569138e066e7e892f7,66fc995eec791041f70b8218,2024-10-02_01h53.26.964,mdp,2024.2.1,Win32,59.52380952,66fa4ebf79326e780c390304,,,,,,,,,,,,,,,,,,,,,1056.5223,1056.5223,1056.523,1057.1063,0,0,left,0.067,,1057.1069,1058.174,1,1,right,1058.1746,1058.9749,0,1,left,0,1058.975,1058.975,1058.9757,1060.4763,0,18,18,18,1,0.4,0.6,0.6,0.4,,,,,,,,,,,,,,,0.5509,,0.2,0.8,0.8,0.2,0.6,0.4,0.4,0.6,,,0.2839,,0.8,0.2,0.2,0.8,0.2,0.8,0.8,0.2,1,0
,,5e23c2569138e066e7e892f7,66fc995eec791041f70b8218,2024-10-02_01h53.26.964,mdp,2024.2.1,Win32,59.52380952,66fa4ebf79326e780c390304,,,,,,,,,,,,,,,,,,,,,1060.4766,1060.4767,1060.4772,1061.361,0,0,left,0.3676,,1061.3617,1062.0449,1,0,right,1062.0455,1062.5623,0,0,left,1,1062.5624,1062.5624,1062.5629,1064.0637,0,19,19,19,1,0.4,0.6,0.6,0.4,,,,,,,,,,,,,,,0.1671,,0.2,0.8,0.8,0.2,0.6,0.4,0.4,0.6,,,0.0003,,0.8,0.2,0.2,0.8,0.2,0.8,0.8,0.2,1,0
,,5e23c2569138e066e7e892f7,66fc995eec791041f70b8218,2024-10-02_01h53.26.964,mdp,2024.2.1,Win32,59.52380952,66fa4ebf79326e780c390304,,,,,,,,,,,,,,,,,,,,,1064.0639,1064.0639,1064.0645,1064.8314,0,0,left,0.2508,,1064.8319,1065.4654,1,0,right,1065.466,1066.0994,0,1,left,0,1066.0995,1066.0995,1066.1001,1067.6009,0,20,20,20,1,0.4,0.6,0.6,0.4,,,,,,,,,,,,,,,0.1171,,0.8,0.2,0.2,0.8,0.6,0.4,0.4,0.6,,,0.1172,,0.8,0.2,0.2,0.8,0.2,0.8,0.8,0.2,1,0
,,5e23c2569138e066e7e892f7,66fc995eec791041f70b8218,2024-10-02_01h53.26.964,mdp,2024.2.1,Win32,59.52380952,66fa4ebf79326e780c390304,,,,,,,,,,,,,,,,,,,,,1067.6012,1067.6012,1067.6017,1068.2519,0,1,left,0.1338,,1068.2525,1068.8694,1,0,right,1068.87,1070.0207,0,1,left,0,1070.0208,1070.0208,1070.0213,1071.5218,0,21,21,21,1,0.4,0.6,0.6,0.4,,,,,,,,,,,,,,,0.1006,,0.8,0.2,0.2,0.8,0.6,0.4,0.4,0.6,,,0.6346,,0.8,0.2,0.2,0.8,0.2,0.8,0.8,0.2,1,0
,,5e23c2569138e066e7e892f7,66fc995eec791041f70b8218,2024-10-02_01h53.26.964,mdp,2024.2.1,Win32,59.52380952,66fa4ebf79326e780c390304,,,,,,,,,,,,,,,,,,,,,1071.5221,1071.5221,1071.5227,1072.3396,0,1,left,0.3005,,1072.3402,1073.0071,1,1,right,1073.0077,1073.6745,0,0,left,1,1073.6745,1073.6745,1073.6752,1075.176,0,22,22,22,1,0.4,0.6,0.6,0.4,,,,,,,,,,,,,,,0.1506,,0.8,0.2,0.2,0.8,0.6,0.4,0.4,0.6,,,0.1504,,0.8,0.2,0.2,0.8,0.2,0.8,0.8,0.2,1,0
,,5e23c2569138e066e7e892f7,66fc995eec791041f70b8218,2024-10-02_01h53.26.964,mdp,2024.2.1,Win32,59.52380952,66fa4ebf79326e780c390304,,,,,,,,,,,,,,,,,,,,,1075.1763,1075.1763,1075.1768,1075.9104,0,0,left,0.2004,,1075.911,1076.8781,1,1,right,1076.8787,1077.7791,0,1,left,0,1077.7791,1077.7791,1077.7797,1079.2807,0,23,23,23,1,0.4,0.6,0.6,0.4,,,,,,,,,,,,,,,0.4508,,0.8,0.2,0.2,0.8,0.6,0.4,0.4,0.6,,,0.3842,,0.8,0.2,0.2,0.8,0.2,0.8,0.8,0.2,1,0
,,5e23c2569138e066e7e892f7,66fc995eec791041f70b8218,2024-10-02_01h53.26.964,mdp,2024.2.1,Win32,59.52380952,66fa4ebf79326e780c390304,,,,,,,,,,,,,,,,,,,,,1079.2811,1079.2811,1079.2817,1079.8146,0,1,left,0.017,,1079.8152,1080.4151,1,1,right,1080.4156,1081.0493,0,1,left,0,1081.0493,1081.0494,1081.0501,1082.5507,0,24,24,24,1,0.4,0.6,0.6,0.4,,,,,,,,,,,,,,,0.0835,,0.8,0.2,0.2,0.8,0.6,0.4,0.4,0.6,,,0.1172,,0.8,0.2,0.2,0.8,0.2,0.8,0.8,0.2,1,0
,,5e23c2569138e066e7e892f7,66fc995eec791041f70b8218,2024-10-02_01h53.26.964,mdp,2024.2.1,Win32,59.52380952,66fa4ebf79326e780c390304,,,,,,,,,,,,,,,,,,,,,1082.551,1082.551,1082.5515,1083.4688,0,1,left,0.4009,,1083.4693,1084.0859,1,0,right,1084.0864,1084.67,0,0,left,1,1084.67,1084.6701,1084.6707,1086.1714,0,25,25,25,1,0.4,0.6,0.6,0.4,,,,,,,,,,,,,,,0.1003,,0.8,0.2,0.2,0.8,0.6,0.4,0.4,0.6,,,0.067,,0.4,0.6,0.8,0.2,0.2,0.8,0.8,0.2,1,0
,,5e23c2569138e066e7e892f7,66fc995eec791041f70b8218,2024-10-02_01h53.26.964,mdp,2024.2.1,Win32,59.52380952,66fa4ebf79326e780c390304,,,,,,,,,,,,,,,,,,,,,1086.1717,1086.1717,1086.1722,1087.7566,0,1,left,1.0681,,1087.7572,1088.3575,1,1,right,1088.3581,1088.8913,0,1,left,0,1088.8913,1088.8913,1088.8919,1090.3927,0,26,26,26,1,0.4,0.6,0.6,0.4,,,,,,,,,,,,,,,0.0838,,0.8,0.2,0.2,0.8,0.6,0.4,0.4,0.6,,,0.0167,,0.4,0.6,0.8,0.2,0.2,0.8,0.8,0.2,1,0
,,5e23c2569138e066e7e892f7,66fc995eec791041f70b8218,2024-10-02_01h53.26.964,mdp,2024.2.1,Win32,59.52380952,66fa4ebf79326e780c390304,,,,,,,,,,,,,,,,,,,,,1090.393,1090.393,1090.3935,1091.2606,0,0,left,0.3507,,1091.2612,1091.8612,1,0,right,1091.8619,1092.3951,0,0,left,1,1092.3951,1092.3951,1092.3957,1093.8965,0,27,27,27,1,0.4,0.6,0.6,0.4,,,,,,,,,,,,,,,0.0834,,0.8,0.2,0.2,0.8,0.6,0.4,0.4,0.6,,,0.0169,,0.4,0.6,0.8,0.2,0.2,0.8,0.8,0.2,1,0
,,5e23c2569138e066e7e892f7,66fc995eec791041f70b8218,2024-10-02_01h53.26.964,mdp,2024.2.1,Win32,59.52380952,66fa4ebf79326e780c390304,,,,,,,,,,,,,,,,,,,,,1093.8968,1093.8968,1093.8973,1094.6809,0,1,left,0.2672,,1094.6815,1095.2818,1,0,right,1095.2824,1095.8156,0,0,left,1,1095.8156,1095.8156,1095.8162,1097.3171,0,28,28,28,1,0.4,0.6,0.6,0.4,,,,,,,,,,,,,,,0.0837,,0.8,0.2,0.2,0.8,0.6,0.4,0.4,0.6,,,0.0172,,0.4,0.6,0.8,0.2,0.2,0.8,0.8,0.2,1,0
,,5e23c2569138e066e7e892f7,66fc995eec791041f70b8218,2024-10-02_01h53.26.964,mdp,2024.2.1,Win32,59.52380952,66fa4ebf79326e780c390304,,,,,,,,,,,,,,,,,,,,,1097.3174,1097.3174,1097.318,1097.9182,0,1,left,0.0838,,1097.9187,1099.0192,1,0,right,1099.0198,1099.8868,0,1,left,0,1099.8868,1099.8868,1099.8873,1101.3882,0,29,29,29,1,0.4,0.6,0.6,0.4,,,,,,,,,,,,,,,0.5844,,0.8,0.2,0.2,0.8,0.6,0.4,0.4,0.6,,,0.3507,,0.4,0.6,0.8,0.2,0.2,0.8,0.8,0.2,1,0
,,5e23c2569138e066e7e892f7,66fc995eec791041f70b8218,2024-10-02_01h53.26.964,mdp,2024.2.1,Win32,59.52380952,66fa4ebf79326e780c390304,,,,,,,,,,,,,,,,,,,,,1101.3885,1101.3885,1101.389,1102.473,0,1,left,0.5676,,1102.4736,1103.5574,1,0,right,1103.558,1104.2753,0,1,left,0,1104.2753,1104.2753,1104.2761,1105.777,0,30,30,30,1,0.4,0.6,0.6,0.4,,,,,,,,,,,,,,,0.5674,,0.8,0.2,0.2,0.8,0.6,0.4,0.4,0.6,,,0.2006,,0.4,0.6,0.8,0.2,0.2,0.8,0.8,0.2,1,0
,,5e23c2569138e066e7e892f7,66fc995eec791041f70b8218,2024-10-02_01h53.26.964,mdp,2024.2.1,Win32,59.52380952,66fa4ebf79326e780c390304,,,,,,,,,,,,,,,,,,,,,1105.7773,1105.7773,1105.7791,1107.2797,0,0,left,0.9853,,1107.2803,1108.3129,1,1,right,1108.3135,1109.0302,0,1,left,0,1109.0302,1109.0302,1109.0308,1110.5319,0,31,31,31,1,0.4,0.6,0.6,0.4,,,,,,,,,,,,,,,0.5008,,0.8,0.2,0.2,0.8,0.2,0.8,0.8,0.2,,,0.2006,,0.4,0.6,0.8,0.2,0.2,0.8,0.8,0.2,1,0
,,5e23c2569138e066e7e892f7,66fc995eec791041f70b8218,2024-10-02_01h53.26.964,mdp,2024.2.1,Win32,59.52380952,66fa4ebf79326e780c390304,,,,,,,,,,,,,,,,,,,,,1110.5321,1110.5321,1110.5326,1111.5997,0,0,left,0.551,,1111.6003,1112.1504,1,1,right,1112.1509,1113.2686,0,1,left,0,1113.2687,1113.2687,1113.2693,1114.7697,0,32,32,32,1,0.4,0.6,0.6,0.4,,,,,,,,,,,,,,,0.0337,,0.8,0.2,0.2,0.8,0.2,0.8,0.8,0.2,,,0.6011,,0.4,0.6,0.8,0.2,0.2,0.8,0.8,0.2,1,0
,,5e23c2569138e066e7e892f7,66fc995eec791041f70b8218,2024-10-02_01h53.26.964,mdp,2024.2.1,Win32,59.52380952,66fa4ebf79326e780c390304,,,,,,,,,,,,,,,,,,,,,1114.7699,1114.7699,1114.7705,1115.6545,0,1,left,0.3677,,1115.6551,1116.2715,1,0,right,1116.272,1116.9222,0,1,left,0,1116.9223,1116.9223,1116.9228,1118.4238,0,33,33,33,1,0.4,0.6,0.6,0.4,,,,,,,,,,,,,,,0.1,,0.8,0.2,0.2,0.8,0.2,0.8,0.8,0.2,,,0.1336,,0.4,0.6,0.8,0.2,0.2,0.8,0.8,0.2,1,0
,,5e23c2569138e066e7e892f7,66fc995eec791041f70b8218,2024-10-02_01h53.26.964,mdp,2024.2.1,Win32,59.52380952,66fa4ebf79326e780c390304,,,,,,,,,,,,,,,,,,,,,1118.4241,1118.4241,1118.4246,1119.425,0,0,left,0.484,,1119.4256,1119.959,1,1,right,1119.9596,1120.5097,0,1,left,0,1120.5097,1120.5097,1120.5102,1122.011,0,34,34,34,1,0.4,0.6,0.6,0.4,,,,,,,,,,,,,,,0.0169,,0.8,0.2,0.2,0.8,0.2,0.8,0.8,0.2,,,0.0338,,0.4,0.6,0.8,0.2,0.2,0.8,0.8,0.2,1,0
,,5e23c2569138e066e7e892f7,66fc995eec791041f70b8218,2024-10-02_01h53.26.964,mdp,2024.2.1,Win32,59.52380952,66fa4ebf79326e780c390304,,,,,,,,,,,,,,,,,,,,,1122.0114,1122.0114,1122.0119,1122.8122,0,1,left,0.2841,,1122.8127,1123.4461,1,0,right,1123.4468,1123.9802,0,0,left,1,1123.9803,1123.9803,1123.9809,1125.4905,0,35,35,35,1,0.4,0.6,0.6,0.4,,,,,,,,,,,,,,,0.1172,,0.8,0.2,0.2,0.8,0.2,0.8,0.8,0.2,,,0.0169,,0.4,0.6,0.8,0.2,0.2,0.8,0.8,0.2,1,0
,,5e23c2569138e066e7e892f7,66fc995eec791041f70b8218,2024-10-02_01h53.26.964,mdp,2024.2.1,Win32,59.52380952,66fa4ebf79326e780c390304,,,,,,,,,,,,,,,,,,,,,1125.4908,1125.4908,1125.4914,1136.6251,0,0,left,10.6072,,1136.626,1137.1754,1,1,right,1137.1764,1138.2099,0,0,left,1,1138.21,1138.21,1138.2109,1139.7115,0,36,36,36,1,0.4,0.6,0.6,0.4,,,,,,,,,,,,,,,0.0171,,0.8,0.2,0.2,0.8,0.2,0.8,0.8,0.2,,,0.5057,,0.4,0.6,0.8,0.2,0.2,0.8,0.8,0.2,1,0
,,5e23c2569138e066e7e892f7,66fc995eec791041f70b8218,2024-10-02_01h53.26.964,mdp,2024.2.1,Win32,59.52380952,66fa4ebf79326e780c390304,,,,,,,,,,,,,,,,,,,,,1139.712,1139.712,1139.7129,1140.5793,0,1,left,0.3505,,1140.5804,1141.0988,1,0,right,1141.0995,1141.6637,0,1,left,0,1141.6638,1141.6638,1141.6647,1143.1653,0,37,37,37,1,0.4,0.6,0.6,0.4,,,,,,,,,,,,,,,0.0002,,0.8,0.2,0.2,0.8,0.2,0.8,0.8,0.2,,,0.0251,,0.4,0.6,0.8,0.2,0.2,0.8,0.8,0.2,1,0
,,5e23c2569138e066e7e892f7,66fc995eec791041f70b8218,2024-10-02_01h53.26.964,mdp,2024.2.1,Win32,59.52380952,66fa4ebf79326e780c390304,,,,,,,,,,,,,,,,,,,,,1143.1657,1143.1657,1143.1666,1144.3337,0,0,left,0.6615,,1144.3348,1144.9175,1,1,right,1144.9186,1145.5346,0,1,left,0,1145.5346,1145.5346,1145.5356,1147.0365,0,38,38,38,1,0.4,0.6,0.6,0.4,,,,,,,,,,,,,,,0.0638,,0.8,0.2,0.2,0.8,0.2,0.8,0.8,0.2,,,0.0872,,0.4,0.6,0.8,0.2,0.2,0.8,0.8,0.2,1,0
,,5e23c2569138e066e7e892f7,66fc995eec791041f70b8218,2024-10-02_01h53.26.964,mdp,2024.2.1,Win32,59.52380952,66fa4ebf79326e780c390304,,,,,,,,,,,,,,,,,,,,,1147.037,1147.037,1147.0378,1149.4753,0,0,left,1.9139,,1149.476,1150.0401,1,1,right,1150.0412,1151.0244,0,1,left,0,1151.0246,1151.0246,1151.0256,1152.526,0,39,39,39,1,0.4,0.6,0.6,0.4,,,,,,,,,,,,,,,0.0457,,0.8,0.2,0.2,0.8,0.2,0.8,0.8,0.2,,,0.4503,,0.4,0.6,0.8,0.2,0.2,0.8,0.8,0.2,1,0
,,5e23c2569138e066e7e892f7,66fc995eec791041f70b8218,2024-10-02_01h53.26.964,mdp,2024.2.1,Win32,59.52380952,66fa4ebf79326e780c390304,,,,,,,,,,,,,,,,,,,,,1152.5269,1152.5269,1152.5278,1153.1269,0,1,left,0.0658,,1153.1286,1154.0774,1,0,right,1154.079,1154.6954,0,1,left,0,1154.6955,1154.6955,1154.6966,1156.1965,0,40,40,40,1,0.4,0.6,0.6,0.4,,,,,,,,,,,,,,,0.4115,,0.8,0.2,0.2,0.8,0.2,0.8,0.8,0.2,,,0.0855,,0.4,0.6,0.8,0.2,0.2,0.8,0.8,0.2,1,0
,,5e23c2569138e066e7e892f7,66fc995eec791041f70b8218,2024-10-02_01h53.26.964,mdp,2024.2.1,Win32,59.52380952,66fa4ebf79326e780c390304,,,,,,,,,,,,,,,,,,,,,1156.1975,1156.1975,1156.1988,1156.9975,0,0,left,0.2701,,1156.9989,1157.6315,1,0,right,1157.6329,1158.2321,0,1,left,0,1158.2322,1158.2322,1158.2334,1159.7338,0,41,41,41,1,0.4,0.6,0.6,0.4,,,,,,,,,,,,,,,0.1091,,0.8,0.2,0.2,0.8,0.2,0.8,0.8,0.2,,,0.0906,,0.4,0.6,0.8,0.2,0.2,0.8,0.8,0.2,1,0
,,5e23c2569138e066e7e892f7,66fc995eec791041f70b8218,2024-10-02_01h53.26.964,mdp,2024.2.1,Win32,59.52380952,66fa4ebf79326e780c390304,,,,,,,,,,,,,,,,,,,,,1159.7346,1159.7346,1159.7356,1162.1533,0,1,left,1.8916,,1162.1547,1162.8377,1,0,right,1162.8391,1163.5386,0,1,left,0,1163.5388,1163.5388,1163.5402,1165.0398,0,42,42,42,1,0.4,0.6,0.6,0.4,,,,,,,,,,,,,,,0.1563,,0.8,0.2,0.2,0.8,0.2,0.8,0.8,0.2,,,0.1677,,0.4,0.6,0.8,0.2,0.4,0.6,0.2,0.8,1,0
,,5e23c2569138e066e7e892f7,66fc995eec791041f70b8218,2024-10-02_01h53.26.964,mdp,2024.2.1,Win32,59.52380952,66fa4ebf79326e780c390304,,,,,,,,,,,,,,,,,,,,,1165.0409,1165.0409,1165.0418,1166.2581,0,1,left,0.6909,,1166.2593,1166.775,1,0,right,1166.7766,1167.7428,0,0,left,1,1167.7429,1167.743,1167.744,1169.2445,0,43,43,43,1,0.4,0.6,0.6,0.4,,,,,,,,,,,,,,,0.0074,,0.8,0.2,0.2,0.8,0.2,0.8,0.8,0.2,,,0.459,,0.4,0.6,0.8,0.2,0.4,0.6,0.2,0.8,1,0
,,5e23c2569138e066e7e892f7,66fc995eec791041f70b8218,2024-10-02_01h53.26.964,mdp,2024.2.1,Win32,59.52380952,66fa4ebf79326e780c390304,,,,,,,,,,,,,,,,,,,,,1169.245,1169.245,1169.2458,1170.0621,0,0,left,0.2876,,1170.0636,1170.6793,1,1,right,1170.6806,1171.28,0,0,left,1,1171.2801,1171.2801,1171.2811,1172.7817,0,44,44,44,1,0.4,0.6,0.6,0.4,,,,,,,,,,,,,,,0.0736,,0.8,0.2,0.2,0.8,0.2,0.8,0.8,0.2,,,0.0795,,0.4,0.6,0.8,0.2,0.4,0.6,0.2,0.8,1,0
,,5e23c2569138e066e7e892f7,66fc995eec791041f70b8218,2024-10-02_01h53.26.964,mdp,2024.2.1,Win32,59.52380952,66fa4ebf79326e780c390304,,,,,,,,,,,,,,,,,,,,,1172.7826,1172.7826,1172.7836,1173.5992,0,1,left,0.2908,,1173.6002,1174.1834,1,0,right,1174.185,1174.7843,0,1,left,0,1174.7844,1174.7844,1174.7856,1176.2853,0,45,45,45,1,0.4,0.6,0.6,0.4,,,,,,,,,,,,,,,0.0525,,0.8,0.2,0.2,0.8,0.2,0.8,0.8,0.2,,,0.0514,,0.4,0.6,0.8,0.2,0.4,0.6,0.2,0.8,1,0
,,5e23c2569138e066e7e892f7,66fc995eec791041f70b8218,2024-10-02_01h53.26.964,mdp,2024.2.1,Win32,59.52380952,66fa4ebf79326e780c390304,,,,,,,,,,,,,,,,,,,,,1176.2865,1176.2865,1176.2881,1177.2198,0,1,left,0.418,,1177.2211,1177.7374,1,0,right,1177.7387,1178.7388,0,1,left,0,1178.739,1178.739,1178.7399,1180.2396,0,46,46,46,1,0.4,0.6,0.6,0.4,,,,,,,,,,,,,,,0.0086,,0.8,0.2,0.2,0.8,0.2,0.8,0.8,0.2,,,0.4728,,0.4,0.6,0.8,0.2,0.4,0.6,0.2,0.8,1,0
,,5e23c2569138e066e7e892f7,66fc995eec791041f70b8218,2024-10-02_01h53.26.964,mdp,2024.2.1,Win32,59.52380952,66fa4ebf79326e780c390304,,,,,,,,,,,,,,,,,,,,,1180.2406,1180.2407,1180.2417,1181.0745,0,0,left,0.3091,,1181.0756,1181.6747,1,1,right,1181.6759,1182.242,0,0,left,1,1182.2421,1182.2421,1182.2431,1183.7436,0,47,47,47,1,0.4,0.6,0.6,0.4,,,,,,,,,,,,,,,0.0608,,0.8,0.2,0.2,0.8,0.2,0.8,0.8,0.2,,,0.0343,,0.4,0.6,0.8,0.2,0.4,0.6,0.2,0.8,1,0
,,5e23c2569138e066e7e892f7,66fc995eec791041f70b8218,2024-10-02_01h53.26.964,mdp,2024.2.1,Win32,59.52380952,66fa4ebf79326e780c390304,,,,,,,,,,,,,,,,,,,,,1183.7443,1183.7443,1183.7452,1184.6286,0,1,left,0.3544,,1184.6303,1185.1647,1,0,right,1185.1653,1185.6996,0,1,left,0,1185.6997,1185.6997,1185.7005,1187.1972,0,48,48,48,1,0.4,0.6,0.6,0.4,,,,,,,,,,,,,,,0.0003,,0.8,0.2,0.2,0.8,0.2,0.8,0.8,0.2,,,0.0007,,0.4,0.6,0.8,0.2,0.8,0.2,0.6,0.4,1,0
,,5e23c2569138e066e7e892f7,66fc995eec791041f70b8218,2024-10-02_01h53.26.964,mdp,2024.2.1,Win32,59.52380952,66fa4ebf79326e780c390304,,,,,,,,,,,,,,,,,,,,,1187.1978,1187.1978,1187.1987,1187.9651,0,1,left,0.2604,,1187.9663,1188.9664,1,0,right,1188.9675,1189.6003,0,0,left,1,1189.6004,1189.6004,1189.6017,1191.1018,0,49,49,49,1,0.4,0.6,0.6,0.4,,,,,,,,,,,,,,,0.4844,,0.8,0.2,0.2,0.8,0.2,0.8,0.8,0.2,,,0.1239,,0.4,0.6,0.8,0.2,0.8,0.2,0.6,0.4,1,0
,,5e23c2569138e066e7e892f7,66fc995eec791041f70b8218,2024-10-02_01h53.26.964,mdp,2024.2.1,Win32,59.52380952,66fa4ebf79326e780c390304,,,,,,,,,,,,,,,,,,,,,,,,,,,,,,,,,,,,,,,,,,,,,,,,,,,,,,,,1191.1021,1242.6161,0,3,3,6,1,imgs/kangaroo.png,imgs/giraffe.png,imgs/cat.png,imgs/goat.png,imgs/pig.png,,,,,,,,,,,,,,,,,,,,,,,,
,,5e23c2569138e066e7e892f7,66fc995eec791041f70b8218,2024-10-02_01h53.26.964,mdp,2024.2.1,Win32,59.52380952,66fa4ebf79326e780c390304,,,,,,,,,,,,,,1,seqs/st1seq33.csv,1242.6264,1243.9938,space,0.8191,,1243.9959,1243.9959,1243.9965,1245.0446,0,1,left,0.5051,,1245.0458,1245.0463,1,0,,1245.0467,1245.047,0,0,,0,1245.047,1245.047,1245.0473,1246.5464,0,0,0,0,1,0.4,0.6,0.8,0.2,1,0,,,,,,,,,,,,,,,,,,,,,,,,,,,,,,,,,,,,
,,5e23c2569138e066e7e892f7,66fc995eec791041f70b8218,2024-10-02_01h53.26.964,mdp,2024.2.1,Win32,59.52380952,66fa4ebf79326e780c390304,,,,,,,,,,,,,,,,,,,,,1246.547,1246.547,1246.5477,1247.514,1,1,right,0.4337,,1247.515,1247.5155,1,1,,1247.5159,1247.5162,0,0,,0,1247.5163,1247.5163,1247.5166,1249.0156,0,1,1,1,1,0.4,0.6,0.8,0.2,1,0,,,,,,,,,,,,,,,,,,,,,,,,,,,,,,,,,,,,
,,5e23c2569138e066e7e892f7,66fc995eec791041f70b8218,2024-10-02_01h53.26.964,mdp,2024.2.1,Win32,59.52380952,66fa4ebf79326e780c390304,,,,,,,,,,,,,,,,,,,,,1249.0161,1249.0161,1249.0171,1249.583,1,1,right,0.0521,,1249.5842,1249.5848,1,0,,1249.5852,1249.5856,0,1,,0,1249.5856,1249.5856,1249.5859,1251.0844,0,2,2,2,1,0.8,0.2,0.4,0.6,1,0,,,,,,,,,,,,,,,,,,,,,,,,,,,,,,,,,,,,
,,5e23c2569138e066e7e892f7,66fc995eec791041f70b8218,2024-10-02_01h53.26.964,mdp,2024.2.1,Win32,59.52380952,66fa4ebf79326e780c390304,,,,,,,,,,,,,,,,,,,,,1251.0853,1251.0853,1251.0863,1251.9022,1,0,right,0.2881,,1251.9033,1251.9037,1,0,,1251.9041,1251.9044,0,1,,1,1251.9044,1251.9044,1251.9048,1253.4038,0,3,3,3,1,0.8,0.2,0.4,0.6,1,0,,,,,,,,,,,,,,,,,,,,,,,,,,,,,,,,,,,,
,,5e23c2569138e066e7e892f7,66fc995eec791041f70b8218,2024-10-02_01h53.26.964,mdp,2024.2.1,Win32,59.52380952,66fa4ebf79326e780c390304,,,,,,,,,,,,,,,,,,,,,1253.4043,1253.4043,1253.4056,1254.0381,1,1,right,0.1078,,1254.039,1254.0395,1,0,,1254.0399,1254.0401,0,1,,0,1254.0402,1254.0402,1254.0405,1255.5394,0,4,4,4,1,0.8,0.2,0.4,0.6,1,0,,,,,,,,,,,,,,,,,,,,,,,,,,,,,,,,,,,,
,,5e23c2569138e066e7e892f7,66fc995eec791041f70b8218,2024-10-02_01h53.26.964,mdp,2024.2.1,Win32,59.52380952,66fa4ebf79326e780c390304,,,,,,,,,,,,,,,,,,,,,1255.5399,1255.5399,1255.5408,1256.1902,1,1,right,0.1339,,1256.1913,1256.1918,1,0,,1256.1922,1256.1925,0,1,,0,1256.1925,1256.1925,1256.1928,1257.6917,0,5,5,5,1,0.8,0.2,0.4,0.6,1,0,,,,,,,,,,,,,,,,,,,,,,,,,,,,,,,,,,,,
,,5e23c2569138e066e7e892f7,66fc995eec791041f70b8218,2024-10-02_01h53.26.964,mdp,2024.2.1,Win32,59.52380952,66fa4ebf79326e780c390304,,,,,,,,,,,,,,,,,,,,,1257.6925,1257.6925,1257.6935,1258.3262,0,0,left,0.1043,,1258.3276,1258.3284,1,1,,1258.3289,1258.3293,0,0,,1,1258.3293,1258.3293,1258.3297,1259.8276,0,6,6,6,1,0.8,0.2,0.4,0.6,1,0,,,,,,,,,,,,,,,,,,,,,,,,,,,,,,,,,,,,
,,5e23c2569138e066e7e892f7,66fc995eec791041f70b8218,2024-10-02_01h53.26.964,mdp,2024.2.1,Win32,59.52380952,66fa4ebf79326e780c390304,,,,,,,,,,,,,,,,,,,,,1259.8281,1259.8282,1259.829,1260.7286,0,0,left,0.368,,1260.7298,1260.7302,1,0,,1260.7307,1260.7309,0,0,,1,1260.7309,1260.7309,1260.7312,1262.2301,0,7,7,7,1,0.8,0.2,0.4,0.6,1,0,,,,,,,,,,,,,,,,,,,,,,,,,,,,,,,,,,,,
,,5e23c2569138e066e7e892f7,66fc995eec791041f70b8218,2024-10-02_01h53.26.964,mdp,2024.2.1,Win32,59.52380952,66fa4ebf79326e780c390304,,,,,,,,,,,,,,,,,,,,,1262.2305,1262.2305,1262.2314,1262.7977,0,1,left,0.0623,,1262.7987,1262.7991,1,0,,1262.7995,1262.7997,0,0,,0,1262.7997,1262.7997,1262.8,1264.2993,0,8,8,8,1,0.8,0.2,0.4,0.6,1,0,,,,,,,,,,,,,,,,,,,,,,,,,,,,,,,,,,,,
,,5e23c2569138e066e7e892f7,66fc995eec791041f70b8218,2024-10-02_01h53.26.964,mdp,2024.2.1,Win32,59.52380952,66fa4ebf79326e780c390304,,,,,,,,,,,,,,,,,,,,,1264.2997,1264.2997,1264.3006,1265.2005,0,0,left,0.3688,,1265.2013,1265.2018,1,0,,1265.2021,1265.2024,0,0,,1,1265.2025,1265.2025,1265.2028,1266.7017,0,9,9,9,1,0.8,0.2,0.4,0.6,1,0,,,,,,,,,,,,,,,,,,,,,,,,,,,,,,,,,,,,
,,5e23c2569138e066e7e892f7,66fc995eec791041f70b8218,2024-10-02_01h53.26.964,mdp,2024.2.1,Win32,59.52380952,66fa4ebf79326e780c390304,,,,,,,,,,,,,,,,,,,,,1266.7027,1266.7027,1266.7037,1267.3027,0,1,left,0.0677,,1267.3038,1267.3042,1,1,,1267.3048,1267.305,0,1,,0,1267.3052,1267.3052,1267.3055,1268.8041,0,10,10,10,1,0.4,0.6,0.8,0.2,1,0,,,,,,,,,,,,,,,,,,,,,,,,,,,,,,,,,,,,
,,5e23c2569138e066e7e892f7,66fc995eec791041f70b8218,2024-10-02_01h53.26.964,mdp,2024.2.1,Win32,59.52380952,66fa4ebf79326e780c390304,,,,,,,,,,,,,,,,,,,,,1268.8047,1268.8047,1268.8056,1269.3385,0,1,left,0.0176,,1269.3396,1269.34,1,0,,1269.3404,1269.3407,0,1,,0,1269.3408,1269.3408,1269.3411,1270.8397,0,11,11,11,1,0.4,0.6,0.8,0.2,1,0,,,,,,,,,,,,,,,,,,,,,,,,,,,,,,,,,,,,
,,5e23c2569138e066e7e892f7,66fc995eec791041f70b8218,2024-10-02_01h53.26.964,mdp,2024.2.1,Win32,59.52380952,66fa4ebf79326e780c390304,,,,,,,,,,,,,,,,,,,,,1270.84,1270.84,1270.8409,1271.424,0,0,left,0.0709,,1271.4249,1271.4254,1,1,,1271.4258,1271.4261,0,0,,1,1271.4261,1271.4261,1271.4264,1272.9254,0,12,12,12,1,0.6,0.4,0.2,0.8,1,0,,,,,,,,,,,,,,,,,,,,,,,,,,,,,,,,,,,,
,,5e23c2569138e066e7e892f7,66fc995eec791041f70b8218,2024-10-02_01h53.26.964,mdp,2024.2.1,Win32,59.52380952,66fa4ebf79326e780c390304,,,,,,,,,,,,,,,,,,,,,1272.9259,1272.9259,1272.9267,1273.6763,0,0,left,0.2252,,1273.6773,1273.6778,1,0,,1273.6782,1273.6784,0,0,,1,1273.6785,1273.6785,1273.6788,1275.1778,0,13,13,13,1,0.6,0.4,0.2,0.8,1,0,,,,,,,,,,,,,,,,,,,,,,,,,,,,,,,,,,,,
,,5e23c2569138e066e7e892f7,66fc995eec791041f70b8218,2024-10-02_01h53.26.964,mdp,2024.2.1,Win32,59.52380952,66fa4ebf79326e780c390304,,,,,,,,,,,,,,,,,,,,,1275.1784,1275.1784,1275.1794,1275.8621,0,0,left,0.1632,,1275.8634,1275.864,1,0,,1275.8645,1275.8647,0,0,,1,1275.8648,1275.8648,1275.8651,1277.3638,0,14,14,14,1,0.6,0.4,0.2,0.8,1,0,,,,,,,,,,,,,,,,,,,,,,,,,,,,,,,,,,,,
,,5e23c2569138e066e7e892f7,66fc995eec791041f70b8218,2024-10-02_01h53.26.964,mdp,2024.2.1,Win32,59.52380952,66fa4ebf79326e780c390304,,,,,,,,,,,,,,,,,,,,,1277.3644,1277.3644,1277.3652,1278.0477,0,0,left,0.1642,,1278.049,1278.0495,1,1,,1278.0499,1278.0502,0,1,,1,1278.0502,1278.0502,1278.0506,1279.5494,0,15,15,15,1,0.6,0.4,0.2,0.8,1,0,,,,,,,,,,,,,,,,,,,,,,,,,,,,,,,,,,,,
,,5e23c2569138e066e7e892f7,66fc995eec791041f70b8218,2024-10-02_01h53.26.964,mdp,2024.2.1,Win32,59.52380952,66fa4ebf79326e780c390304,,,,,,,,,,,,,,,,,,,,,1279.5498,1279.5499,1279.5507,1280.3002,0,0,left,0.234,,1280.3012,1280.3019,1,0,,1280.3024,1280.3027,0,0,,1,1280.3027,1280.3027,1280.3031,1281.8017,0,16,16,16,1,0.6,0.4,0.2,0.8,1,0,,,,,,,,,,,,,,,,,,,,,,,,,,,,,,,,,,,,
,,5e23c2569138e066e7e892f7,66fc995eec791041f70b8218,2024-10-02_01h53.26.964,mdp,2024.2.1,Win32,59.52380952,66fa4ebf79326e780c390304,,,,,,,,,,,,,,,,,,,,,1281.8021,1281.8021,1281.8031,1282.3361,0,0,left,0.0204,,1282.3371,1282.3375,1,0,,1282.3379,1282.3382,0,0,,1,1282.3382,1282.3382,1282.3385,1283.8373,0,17,17,17,1,0.6,0.4,0.2,0.8,1,0,,,,,,,,,,,,,,,,,,,,,,,,,,,,,,,,,,,,
,,5e23c2569138e066e7e892f7,66fc995eec791041f70b8218,2024-10-02_01h53.26.964,mdp,2024.2.1,Win32,59.52380952,66fa4ebf79326e780c390304,,,,,,,,,,,,,,,,,,,,,1283.8377,1283.8377,1283.8387,1284.4048,0,0,left,0.047,,1284.4062,1284.407,1,1,,1284.4075,1284.4078,0,1,,1,1284.4079,1284.4079,1284.4082,1285.9065,0,18,18,18,1,0.6,0.4,0.2,0.8,1,0,,,,,,,,,,,,,,,,,,,,,,,,,,,,,,,,,,,,
,,5e23c2569138e066e7e892f7,66fc995eec791041f70b8218,2024-10-02_01h53.26.964,mdp,2024.2.1,Win32,59.52380952,66fa4ebf79326e780c390304,,,,,,,,,,,,,,,,,,,,,1285.9071,1285.9071,1285.9081,1286.4738,0,1,left,0.0332,,1286.475,1286.4753,1,1,,1286.4758,1286.4761,0,0,,0,1286.4761,1286.4761,1286.4765,1287.9754,0,19,19,19,1,0.6,0.4,0.2,0.8,1,0,,,,,,,,,,,,,,,,,,,,,,,,,,,,,,,,,,,,
,,5e23c2569138e066e7e892f7,66fc995eec791041f70b8218,2024-10-02_01h53.26.964,mdp,2024.2.1,Win32,59.52380952,66fa4ebf79326e780c390304,,,,,,,,,,,,,,,,,,,,,1287.9759,1287.9759,1287.9766,1288.5927,0,0,left,0.0838,,1288.5939,1288.5942,1,1,,1288.5947,1288.595,0,1,,1,1288.5951,1288.5951,1288.5954,1290.0941,0,20,20,20,1,0.8,0.2,0.6,0.4,1,0,,,,,,,,,,,,,,,,,,,,,,,,,,,,,,,,,,,,
,,5e23c2569138e066e7e892f7,66fc995eec791041f70b8218,2024-10-02_01h53.26.964,mdp,2024.2.1,Win32,59.52380952,66fa4ebf79326e780c390304,,,,,,,,,,,,,,,,,,,,,1290.0949,1290.0949,1290.0961,1290.8289,0,1,left,0.2102,,1290.83,1290.8306,1,0,,1290.831,1290.8313,0,0,,0,1290.8313,1290.8313,1290.8317,1292.3302,0,21,21,21,1,0.8,0.2,0.6,0.4,1,0,,,,,,,,,,,,,,,,,,,,,,,,,,,,,,,,,,,,
,,5e23c2569138e066e7e892f7,66fc995eec791041f70b8218,2024-10-02_01h53.26.964,mdp,2024.2.1,Win32,59.52380952,66fa4ebf79326e780c390304,,,,,,,,,,,,,,,,,,,,,1292.3307,1292.3307,1292.3315,1293.031,0,0,left,0.1763,,1293.032,1293.0326,1,0,,1293.033,1293.0333,0,0,,1,1293.0333,1293.0333,1293.0336,1294.5327,0,22,22,22,1,0.8,0.2,0.6,0.4,1,0,,,,,,,,,,,,,,,,,,,,,,,,,,,,,,,,,,,,
,,5e23c2569138e066e7e892f7,66fc995eec791041f70b8218,2024-10-02_01h53.26.964,mdp,2024.2.1,Win32,59.52380952,66fa4ebf79326e780c390304,,,,,,,,,,,,,,,,,,,,,1294.5333,1294.5333,1294.5343,1295.2334,0,0,left,0.173,,1295.2346,1295.235,1,0,,1295.2354,1295.2358,0,0,,1,1295.2358,1295.2358,1295.2361,1296.7349,0,23,23,23,1,0.8,0.2,0.6,0.4,1,0,,,,,,,,,,,,,,,,,,,,,,,,,,,,,,,,,,,,
,,5e23c2569138e066e7e892f7,66fc995eec791041f70b8218,2024-10-02_01h53.26.964,mdp,2024.2.1,Win32,59.52380952,66fa4ebf79326e780c390304,,,,,,,,,,,,,,,,,,,,,1296.7355,1296.7355,1296.7364,1297.303,0,0,left,0.0445,,1297.3039,1297.3043,1,0,,1297.3047,1297.3051,0,0,,1,1297.3051,1297.3051,1297.3054,1298.804,0,24,24,24,1,0.8,0.2,0.6,0.4,1,0,,,,,,,,,,,,,,,,,,,,,,,,,,,,,,,,,,,,
,,5e23c2569138e066e7e892f7,66fc995eec791041f70b8218,2024-10-02_01h53.26.964,mdp,2024.2.1,Win32,59.52380952,66fa4ebf79326e780c390304,,,,,,,,,,,,,,,,,,,,,1298.8045,1298.8045,1298.8054,1299.5385,0,0,left,0.2058,,1299.5396,1299.5401,1,0,,1299.5405,1299.5408,0,0,,1,1299.5408,1299.5408,1299.5411,1301.0402,0,25,25,25,1,0.8,0.2,0.6,0.4,1,0,,,,,,,,,,,,,,,,,,,,,,,,,,,,,,,,,,,,
,,5e23c2569138e066e7e892f7,66fc995eec791041f70b8218,2024-10-02_01h53.26.964,mdp,2024.2.1,Win32,59.52380952,66fa4ebf79326e780c390304,,,,,,,,,,,,,,,,,,,,,1301.0406,1301.0406,1301.0412,1301.7073,0,0,left,0.1463,,1301.7083,1301.7087,1,0,,1301.7091,1301.7094,0,0,,1,1301.7094,1301.7094,1301.7098,1303.2091,0,26,26,26,1,0.8,0.2,0.6,0.4,1,0,,,,,,,,,,,,,,,,,,,,,,,,,,,,,,,,,,,,
,,5e23c2569138e066e7e892f7,66fc995eec791041f70b8218,2024-10-02_01h53.26.964,mdp,2024.2.1,Win32,59.52380952,66fa4ebf79326e780c390304,,,,,,,,,,,,,,,,,,,,,1303.2099,1303.21,1303.2108,1303.8431,0,1,left,0.1129,,1303.8442,1303.8446,1,1,,1303.845,1303.8454,0,0,,0,1303.8454,1303.8454,1303.8457,1305.3446,0,27,27,27,1,0.8,0.2,0.6,0.4,1,0,,,,,,,,,,,,,,,,,,,,,,,,,,,,,,,,,,,,
,,5e23c2569138e066e7e892f7,66fc995eec791041f70b8218,2024-10-02_01h53.26.964,mdp,2024.2.1,Win32,59.52380952,66fa4ebf79326e780c390304,,,,,,,,,,,,,,,,,,,,,1305.3452,1305.3452,1305.3459,1305.8954,0,0,left,0.0164,,1305.8967,1305.8973,1,1,,1305.8978,1305.8981,0,0,,1,1305.8981,1305.8981,1305.8984,1307.3969,0,28,28,28,1,0.8,0.2,0.6,0.4,1,0,,,,,,,,,,,,,,,,,,,,,,,,,,,,,,,,,,,,
,,5e23c2569138e066e7e892f7,66fc995eec791041f70b8218,2024-10-02_01h53.26.964,mdp,2024.2.1,Win32,59.52380952,66fa4ebf79326e780c390304,,,,,,,,,,,,,,,,,,,,,1307.3975,1307.3975,1307.3981,1307.981,0,0,left,0.0588,,1307.9822,1307.9828,1,0,,1307.9832,1307.9835,0,0,,1,1307.9835,1307.9835,1307.9838,1309.4823,0,29,29,29,1,0.8,0.2,0.6,0.4,1,0,,,,,,,,,,,,,,,,,,,,,,,,,,,,,,,,,,,,
,,5e23c2569138e066e7e892f7,66fc995eec791041f70b8218,2024-10-02_01h53.26.964,mdp,2024.2.1,Win32,59.52380952,66fa4ebf79326e780c390304,,,,,,,,,,,,,,,,,,,,,1309.4827,1309.4827,1309.4835,1310.2,0,0,left,0.2014,,1310.201,1310.2015,1,0,,1310.2018,1310.2023,0,0,,1,1310.2023,1310.2023,1310.2027,1311.7015,0,30,30,30,1,0.8,0.2,0.6,0.4,1,0,,,,,,,,,,,,,,,,,,,,,,,,,,,,,,,,,,,,
,,5e23c2569138e066e7e892f7,66fc995eec791041f70b8218,2024-10-02_01h53.26.964,mdp,2024.2.1,Win32,59.52380952,66fa4ebf79326e780c390304,,,,,,,,,,,,,,,,,,,,,1311.7019,1311.7019,1311.7028,1312.4189,0,1,left,0.204,,1312.4203,1312.4208,1,1,,1312.4213,1312.4217,0,1,,0,1312.4217,1312.4217,1312.422,1313.9207,0,31,31,31,1,0.2,0.8,0.8,0.2,1,0,,,,,,,,,,,,,,,,,,,,,,,,,,,,,,,,,,,,
,,5e23c2569138e066e7e892f7,66fc995eec791041f70b8218,2024-10-02_01h53.26.964,mdp,2024.2.1,Win32,59.52380952,66fa4ebf79326e780c390304,,,,,,,,,,,,,,,,,,,,,1313.9212,1313.9212,1313.922,1314.4713,0,1,left,0.0443,,1314.4728,1314.4733,1,0,,1314.4738,1314.4741,0,1,,0,1314.4741,1314.4741,1314.4745,1315.9729,0,32,32,32,1,0.2,0.8,0.8,0.2,1,0,,,,,,,,,,,,,,,,,,,,,,,,,,,,,,,,,,,,
,,5e23c2569138e066e7e892f7,66fc995eec791041f70b8218,2024-10-02_01h53.26.964,mdp,2024.2.1,Win32,59.52380952,66fa4ebf79326e780c390304,,,,,,,,,,,,,,,,,,,,,1315.9733,1315.9733,1315.9742,1316.6403,0,1,left,0.1505,,1316.6413,1316.6418,1,1,,1316.6423,1316.6426,0,1,,0,1316.6426,1316.6426,1316.6429,1318.1421,0,33,33,33,1,0.2,0.8,0.8,0.2,1,0,,,,,,,,,,,,,,,,,,,,,,,,,,,,,,,,,,,,
,,5e23c2569138e066e7e892f7,66fc995eec791041f70b8218,2024-10-02_01h53.26.964,mdp,2024.2.1,Win32,59.52380952,66fa4ebf79326e780c390304,,,,,,,,,,,,,,,,,,,,,1318.1425,1318.1425,1318.1434,1318.9263,0,1,left,0.2591,,1318.9274,1318.9279,1,1,,1318.9284,1318.9286,0,1,,0,1318.9286,1318.9286,1318.929,1320.4277,0,34,34,34,1,0.2,0.8,0.8,0.2,1,0,,,,,,,,,,,,,,,,,,,,,,,,,,,,,,,,,,,,
,,5e23c2569138e066e7e892f7,66fc995eec791041f70b8218,2024-10-02_01h53.26.964,mdp,2024.2.1,Win32,59.52380952,66fa4ebf79326e780c390304,,,,,,,,,,,,,,,,,,,,,1320.4282,1320.4282,1320.4292,1320.962,0,1,left,0.0282,,1320.9629,1320.9633,1,1,,1320.9637,1320.964,0,1,,0,1320.964,1320.964,1320.9643,1322.4633,0,35,35,35,1,0.2,0.8,0.8,0.2,1,0,,,,,,,,,,,,,,,,,,,,,,,,,,,,,,,,,,,,
,,5e23c2569138e066e7e892f7,66fc995eec791041f70b8218,2024-10-02_01h53.26.964,mdp,2024.2.1,Win32,59.52380952,66fa4ebf79326e780c390304,,,,,,,,,,,,,,,,,,,,,1322.4638,1322.4639,1322.4648,1322.9976,0,0,left,0.0003,,1322.9987,1322.9991,1,0,,1322.9995,1322.9998,0,1,,1,1322.9998,1322.9998,1323.0001,1324.499,0,36,36,36,1,0.8,0.2,0.6,0.4,1,0,,,,,,,,,,,,,,,,,,,,,,,,,,,,,,,,,,,,
,,5e23c2569138e066e7e892f7,66fc995eec791041f70b8218,2024-10-02_01h53.26.964,mdp,2024.2.1,Win32,59.52380952,66fa4ebf79326e780c390304,,,,,,,,,,,,,,,,,,,,,1324.4998,1324.4998,1324.5008,1325.033,0,0,left,0.0041,,1325.0343,1325.035,1,0,,1325.0354,1325.0358,0,0,,1,1325.0358,1325.0358,1325.0361,1326.5347,0,37,37,37,1,0.8,0.2,0.6,0.4,1,0,,,,,,,,,,,,,,,,,,,,,,,,,,,,,,,,,,,,
,,5e23c2569138e066e7e892f7,66fc995eec791041f70b8218,2024-10-02_01h53.26.964,mdp,2024.2.1,Win32,59.52380952,66fa4ebf79326e780c390304,,,,,,,,,,,,,,,,,,,,,1326.5351,1326.5351,1326.5362,1327.2522,0,1,left,0.1934,,1327.2533,1327.2538,1,0,,1327.2541,1327.2544,0,0,,0,1327.2544,1327.2544,1327.2548,1328.7539,0,38,38,38,1,0.8,0.2,0.6,0.4,1,0,,,,,,,,,,,,,,,,,,,,,,,,,,,,,,,,,,,,
,,5e23c2569138e066e7e892f7,66fc995eec791041f70b8218,2024-10-02_01h53.26.964,mdp,2024.2.1,Win32,59.52380952,66fa4ebf79326e780c390304,,,,,,,,,,,,,,,,,,,,,1328.7545,1328.7545,1328.7553,1329.3544,0,0,left,0.0671,,1329.3557,1329.3563,1,1,,1329.3568,1329.3571,0,1,,1,1329.3571,1329.3571,1329.3574,1330.8561,0,39,39,39,1,0.8,0.2,0.6,0.4,1,0,,,,,,,,,,,,,,,,,,,,,,,,,,,,,,,,,,,,
,,5e23c2569138e066e7e892f7,66fc995eec791041f70b8218,2024-10-02_01h53.26.964,mdp,2024.2.1,Win32,59.52380952,66fa4ebf79326e780c390304,,,,,,,,,,,,,,,,,,,,,1330.8567,1330.8567,1330.8575,1331.5903,0,1,left,0.2041,,1331.5915,1331.592,1,0,,1331.5925,1331.5928,0,0,,0,1331.5929,1331.5929,1331.5931,1333.0918,0,40,40,40,1,0.8,0.2,0.6,0.4,1,0,,,,,,,,,,,,,,,,,,,,,,,,,,,,,,,,,,,,
