init_exp.started,init_exp.stopped,participant,session,date,expName,psychopyVersion,OS,frameRate,study_id,disp_instruction.started,disp_instruction.stopped,instruction.thisRepN,instruction.thisTrialN,instruction.thisN,instruction.thisIndex,instruction.ran,instimg_path,consent.started,consent.stopped,key_resp_3.keys,key_resp_3.rt,key_resp_3.duration,n_steps,sequence_path,init_block.started,init_block.stopped,key_resp.keys,key_resp.rt,key_resp.duration,init_trials.started,init_trials.stopped,step0.started,step0.stopped,act0,s1,res0.keys,res0.rt,res0.duration,step1.started,step1.stopped,act1,s2,res1.keys,step2.started,step2.stopped,act2,s3,res2.keys,rew,reward_comp.started,reward_comp.stopped,reward_disp.started,reward_disp.stopped,trials.thisRepN,trials.thisTrialN,trials.thisN,trials.thisIndex,trials.ran,s00a0s10,s00a0s11,s00a1s10,s00a1s11,rew10,rew11,break_block.started,break_block.stopped,block.thisRepN,block.thisTrialN,block.thisN,block.thisIndex,block.ran,s00path,s10path,s11path,s20path,s21path,res1.rt,res1.duration,s10a0s20,s10a0s21,s10a1s20,s10a1s21,s11a0s20,s11a0s21,s11a1s20,s11a1s21,rew20,rew21,res2.rt,res2.duration,s20a0s30,s20a0s31,s20a1s30,s20a1s31,s21a0s30,s21a0s31,s21a1s30,s21a1s31,rew30,rew31
0,0,5e248b6f0c0b31718a9d3f31,66fc98f8211d9ba1f3465eeb,2024-10-02_02h52.31.027,mdp,2024.2.1,Win32,143.6781609,66fa4ebf79326e780c390304,,,,,,,,,,,,,,,,,,,,,,,,,,,,,,,,,,,,,,,,,,,,,,,,,,,,,,,,,,,,,,,,,,,,,,,,,,,,,,,,,,,,,,,,,,,
,,5e248b6f0c0b31718a9d3f31,66fc98f8211d9ba1f3465eeb,2024-10-02_02h52.31.027,mdp,2024.2.1,Win32,143.6781609,66fa4ebf79326e780c390304,0.001,53.592,0,0,0,0,1,rlnn_exp/rlnn_exp.001.png,,,,,,,,,,,,,,,,,,,,,,,,,,,,,,,,,,,,,,,,,,,,,,,,,,,,,,,,,,,,,,,,,,,,,,,,,,,,,,,,,,,
,,5e248b6f0c0b31718a9d3f31,66fc98f8211d9ba1f3465eeb,2024-10-02_02h52.31.027,mdp,2024.2.1,Win32,143.6781609,66fa4ebf79326e780c390304,53.594,66.612,0,1,1,1,1,rlnn_exp/rlnn_exp.002.png,,,,,,,,,,,,,,,,,,,,,,,,,,,,,,,,,,,,,,,,,,,,,,,,,,,,,,,,,,,,,,,,,,,,,,,,,,,,,,,,,,,
,,5e248b6f0c0b31718a9d3f31,66fc98f8211d9ba1f3465eeb,2024-10-02_02h52.31.027,mdp,2024.2.1,Win32,143.6781609,66fa4ebf79326e780c390304,66.613,86.537,0,2,2,2,1,rlnn_exp/rlnn_exp.003.png,,,,,,,,,,,,,,,,,,,,,,,,,,,,,,,,,,,,,,,,,,,,,,,,,,,,,,,,,,,,,,,,,,,,,,,,,,,,,,,,,,,
,,5e248b6f0c0b31718a9d3f31,66fc98f8211d9ba1f3465eeb,2024-10-02_02h52.31.027,mdp,2024.2.1,Win32,143.6781609,66fa4ebf79326e780c390304,86.537,107.651,0,3,3,3,1,rlnn_exp/rlnn_exp.004.png,,,,,,,,,,,,,,,,,,,,,,,,,,,,,,,,,,,,,,,,,,,,,,,,,,,,,,,,,,,,,,,,,,,,,,,,,,,,,,,,,,,
,,5e248b6f0c0b31718a9d3f31,66fc98f8211d9ba1f3465eeb,2024-10-02_02h52.31.027,mdp,2024.2.1,Win32,143.6781609,66fa4ebf79326e780c390304,,,,,,,,,107.651,120.003,y,2.343,,,,,,,,,,,,,,,,,,,,,,,,,,,,,,,,,,,,,,,,,,,,,,,,,,,,,,,,,,,,,,,,,,,,,,,,,,,,,,,
,,5e248b6f0c0b31718a9d3f31,66fc98f8211d9ba1f3465eeb,2024-10-02_02h52.31.027,mdp,2024.2.1,Win32,143.6781609,66fa4ebf79326e780c390304,,,,,,,,,,,,,,1,seqs/st1seq26.csv,120.006,123.759,space,3.244,,123.761,123.761,123.761,161.106,0,0,left,36.827,,161.107,161.109,,0,,161.109,161.11,,0,,1,161.11,161.11,161.111,162.608,0,0,0,0,1,0.6,0.4,0.8,0.2,1,0,,,,,,,,,,,,,,,,,,,,,,,,,,,,,,,,,,,,
,,5e248b6f0c0b31718a9d3f31,66fc98f8211d9ba1f3465eeb,2024-10-02_02h52.31.027,mdp,2024.2.1,Win32,143.6781609,66fa4ebf79326e780c390304,,,,,,,,,,,,,,,,,,,,,162.608,162.608,162.608,166.704,0,0,left,3.585,,166.705,166.706,,0,,166.706,166.707,,0,,1,166.707,166.707,166.707,168.206,0,1,1,1,1,0.8,0.2,0.6,0.4,1,0,,,,,,,,,,,,,,,,,,,,,,,,,,,,,,,,,,,,
,,5e248b6f0c0b31718a9d3f31,66fc98f8211d9ba1f3465eeb,2024-10-02_02h52.31.027,mdp,2024.2.1,Win32,143.6781609,66fa4ebf79326e780c390304,,,,,,,,,,,,,,,,,,,,,168.206,168.206,168.207,170.257,0,0,left,1.546,,170.258,170.258,,0,,170.26,170.26,,0,,1,170.26,170.26,170.261,171.76,0,2,2,2,1,0.6,0.4,0.2,0.8,1,0,,,,,,,,,,,,,,,,,,,,,,,,,,,,,,,,,,,,
,,5e248b6f0c0b31718a9d3f31,66fc98f8211d9ba1f3465eeb,2024-10-02_02h52.31.027,mdp,2024.2.1,Win32,143.6781609,66fa4ebf79326e780c390304,,,,,,,,,,,,,,,,,,,,,171.76,171.76,171.761,172.893,0,1,left,0.627,,172.895,172.895,,0,,172.895,172.895,,1,,0,172.895,172.895,172.895,174.395,0,3,3,3,1,0.2,0.8,0.8,0.2,1,0,,,,,,,,,,,,,,,,,,,,,,,,,,,,,,,,,,,,
,,5e248b6f0c0b31718a9d3f31,66fc98f8211d9ba1f3465eeb,2024-10-02_02h52.31.027,mdp,2024.2.1,Win32,143.6781609,66fa4ebf79326e780c390304,,,,,,,,,,,,,,,,,,,,,174.396,174.396,174.397,175.355,0,0,left,0.456,,175.356,175.356,,0,,175.357,175.357,,1,,1,175.357,175.357,175.357,176.857,0,4,4,4,1,0.6,0.4,0.2,0.8,1,0,,,,,,,,,,,,,,,,,,,,,,,,,,,,,,,,,,,,
,,5e248b6f0c0b31718a9d3f31,66fc98f8211d9ba1f3465eeb,2024-10-02_02h52.31.027,mdp,2024.2.1,Win32,143.6781609,66fa4ebf79326e780c390304,,,,,,,,,,,,,,,,,,,,,176.858,176.858,176.859,178.019,0,0,left,0.655,,178.019,178.02,,0,,178.02,178.02,,0,,1,178.02,178.02,178.021,179.515,0,5,5,5,1,0.8,0.2,0.4,0.6,1,0,,,,,,,,,,,,,,,,,,,,,,,,,,,,,,,,,,,,
,,5e248b6f0c0b31718a9d3f31,66fc98f8211d9ba1f3465eeb,2024-10-02_02h52.31.027,mdp,2024.2.1,Win32,143.6781609,66fa4ebf79326e780c390304,,,,,,,,,,,,,,,,,,,,,179.515,179.515,179.516,180.209,0,0,left,0.192,,180.21,180.211,,0,,180.211,180.211,,0,,1,180.211,180.211,180.212,181.712,0,6,6,6,1,0.8,0.2,0.4,0.6,1,0,,,,,,,,,,,,,,,,,,,,,,,,,,,,,,,,,,,,
,,5e248b6f0c0b31718a9d3f31,66fc98f8211d9ba1f3465eeb,2024-10-02_02h52.31.027,mdp,2024.2.1,Win32,143.6781609,66fa4ebf79326e780c390304,,,,,,,,,,,,,,,,,,,,,181.712,181.712,181.713,183.45,0,0,left,1.232,,183.451,183.452,,0,,183.452,183.452,,0,,1,183.452,183.452,183.452,184.952,0,7,7,7,1,0.8,0.2,0.4,0.6,1,0,,,,,,,,,,,,,,,,,,,,,,,,,,,,,,,,,,,,
,,5e248b6f0c0b31718a9d3f31,66fc98f8211d9ba1f3465eeb,2024-10-02_02h52.31.027,mdp,2024.2.1,Win32,143.6781609,66fa4ebf79326e780c390304,,,,,,,,,,,,,,,,,,,,,184.953,184.953,184.954,186.225,1,0,right,0.767,,186.226,186.227,,0,,186.228,186.228,,1,,1,186.228,186.228,186.228,187.728,0,8,8,8,1,0.8,0.2,0.4,0.6,1,0,,,,,,,,,,,,,,,,,,,,,,,,,,,,,,,,,,,,
,,5e248b6f0c0b31718a9d3f31,66fc98f8211d9ba1f3465eeb,2024-10-02_02h52.31.027,mdp,2024.2.1,Win32,143.6781609,66fa4ebf79326e780c390304,,,,,,,,,,,,,,,,,,,,,187.728,187.728,187.729,188.75,1,1,right,0.518,,188.753,188.754,,0,,188.754,188.755,,1,,0,188.755,188.755,188.755,190.252,0,9,9,9,1,0.8,0.2,0.4,0.6,1,0,,,,,,,,,,,,,,,,,,,,,,,,,,,,,,,,,,,,
,,5e248b6f0c0b31718a9d3f31,66fc98f8211d9ba1f3465eeb,2024-10-02_02h52.31.027,mdp,2024.2.1,Win32,143.6781609,66fa4ebf79326e780c390304,,,,,,,,,,,,,,,,,,,,,190.253,190.253,190.254,191.038,1,0,right,0.278,,191.039,191.04,,0,,191.04,191.041,,1,,1,191.041,191.041,191.041,192.541,0,10,10,10,1,0.8,0.2,0.4,0.6,1,0,,,,,,,,,,,,,,,,,,,,,,,,,,,,,,,,,,,,
,,5e248b6f0c0b31718a9d3f31,66fc98f8211d9ba1f3465eeb,2024-10-02_02h52.31.027,mdp,2024.2.1,Win32,143.6781609,66fa4ebf79326e780c390304,,,,,,,,,,,,,,,,,,,,,192.541,192.541,192.542,193.354,0,0,left,0.307,,193.355,193.356,,1,,193.356,193.357,,1,,1,193.357,193.357,193.357,194.857,0,11,11,11,1,0.8,0.2,0.4,0.6,1,0,,,,,,,,,,,,,,,,,,,,,,,,,,,,,,,,,,,,
,,5e248b6f0c0b31718a9d3f31,66fc98f8211d9ba1f3465eeb,2024-10-02_02h52.31.027,mdp,2024.2.1,Win32,143.6781609,66fa4ebf79326e780c390304,,,,,,,,,,,,,,,,,,,,,194.857,194.857,194.858,195.656,0,0,left,0.286,,195.656,195.658,,0,,195.658,195.658,,0,,1,195.658,195.658,195.659,197.158,0,12,12,12,1,0.8,0.2,0.4,0.6,1,0,,,,,,,,,,,,,,,,,,,,,,,,,,,,,,,,,,,,
,,5e248b6f0c0b31718a9d3f31,66fc98f8211d9ba1f3465eeb,2024-10-02_02h52.31.027,mdp,2024.2.1,Win32,143.6781609,66fa4ebf79326e780c390304,,,,,,,,,,,,,,,,,,,,,197.158,197.158,197.159,197.951,0,0,left,0.287,,197.951,197.952,,0,,197.952,197.953,,0,,1,197.953,197.953,197.953,199.453,0,13,13,13,1,0.8,0.2,0.4,0.6,1,0,,,,,,,,,,,,,,,,,,,,,,,,,,,,,,,,,,,,
,,5e248b6f0c0b31718a9d3f31,66fc98f8211d9ba1f3465eeb,2024-10-02_02h52.31.027,mdp,2024.2.1,Win32,143.6781609,66fa4ebf79326e780c390304,,,,,,,,,,,,,,,,,,,,,199.453,199.453,199.454,200.211,0,1,left,0.251,,200.213,200.213,,1,,200.214,200.214,,1,,0,200.214,200.214,200.214,201.713,0,14,14,14,1,0.2,0.8,0.6,0.4,1,0,,,,,,,,,,,,,,,,,,,,,,,,,,,,,,,,,,,,
,,5e248b6f0c0b31718a9d3f31,66fc98f8211d9ba1f3465eeb,2024-10-02_02h52.31.027,mdp,2024.2.1,Win32,143.6781609,66fa4ebf79326e780c390304,,,,,,,,,,,,,,,,,,,,,201.713,201.713,201.714,202.486,0,1,left,0.263,,202.487,202.488,,1,,202.488,202.488,,0,,0,202.488,202.488,202.488,203.988,0,15,15,15,1,0.2,0.8,0.6,0.4,1,0,,,,,,,,,,,,,,,,,,,,,,,,,,,,,,,,,,,,
,,5e248b6f0c0b31718a9d3f31,66fc98f8211d9ba1f3465eeb,2024-10-02_02h52.31.027,mdp,2024.2.1,Win32,143.6781609,66fa4ebf79326e780c390304,,,,,,,,,,,,,,,,,,,,,203.988,203.988,203.989,204.843,1,0,right,0.353,,204.844,204.845,,1,,204.845,204.845,,1,,1,204.845,204.845,204.845,206.345,0,16,16,16,1,0.2,0.8,0.6,0.4,1,0,,,,,,,,,,,,,,,,,,,,,,,,,,,,,,,,,,,,
,,5e248b6f0c0b31718a9d3f31,66fc98f8211d9ba1f3465eeb,2024-10-02_02h52.31.027,mdp,2024.2.1,Win32,143.6781609,66fa4ebf79326e780c390304,,,,,,,,,,,,,,,,,,,,,206.345,206.345,206.347,207.152,1,0,right,0.299,,207.153,207.153,,1,,207.153,207.154,,0,,1,207.154,207.154,207.154,208.654,0,17,17,17,1,0.2,0.8,0.6,0.4,1,0,,,,,,,,,,,,,,,,,,,,,,,,,,,,,,,,,,,,
,,5e248b6f0c0b31718a9d3f31,66fc98f8211d9ba1f3465eeb,2024-10-02_02h52.31.027,mdp,2024.2.1,Win32,143.6781609,66fa4ebf79326e780c390304,,,,,,,,,,,,,,,,,,,,,208.654,208.654,208.655,209.447,1,0,right,0.286,,209.448,209.448,,1,,209.448,209.449,,1,,1,209.449,209.449,209.45,210.949,0,18,18,18,1,0.2,0.8,0.6,0.4,1,0,,,,,,,,,,,,,,,,,,,,,,,,,,,,,,,,,,,,
,,5e248b6f0c0b31718a9d3f31,66fc98f8211d9ba1f3465eeb,2024-10-02_02h52.31.027,mdp,2024.2.1,Win32,143.6781609,66fa4ebf79326e780c390304,,,,,,,,,,,,,,,,,,,,,210.949,210.949,210.95,211.798,1,1,right,0.34,,211.799,211.799,,0,,211.799,211.8,,0,,0,211.8,211.8,211.8,213.3,0,19,19,19,1,0.2,0.8,0.6,0.4,1,0,,,,,,,,,,,,,,,,,,,,,,,,,,,,,,,,,,,,
,,5e248b6f0c0b31718a9d3f31,66fc98f8211d9ba1f3465eeb,2024-10-02_02h52.31.027,mdp,2024.2.1,Win32,143.6781609,66fa4ebf79326e780c390304,,,,,,,,,,,,,,,,,,,,,213.3,213.3,213.301,214.072,1,1,right,0.265,,214.073,214.073,,1,,214.074,214.074,,1,,0,214.074,214.074,214.074,215.574,0,20,20,20,1,0.2,0.8,0.6,0.4,1,0,,,,,,,,,,,,,,,,,,,,,,,,,,,,,,,,,,,,
,,5e248b6f0c0b31718a9d3f31,66fc98f8211d9ba1f3465eeb,2024-10-02_02h52.31.027,mdp,2024.2.1,Win32,143.6781609,66fa4ebf79326e780c390304,,,,,,,,,,,,,,,,,,,,,215.575,215.575,215.577,216.353,0,1,left,0.271,,216.353,216.354,,0,,216.355,216.355,,1,,0,216.355,216.355,216.355,217.855,0,21,21,21,1,0.2,0.8,0.6,0.4,1,0,,,,,,,,,,,,,,,,,,,,,,,,,,,,,,,,,,,,
,,5e248b6f0c0b31718a9d3f31,66fc98f8211d9ba1f3465eeb,2024-10-02_02h52.31.027,mdp,2024.2.1,Win32,143.6781609,66fa4ebf79326e780c390304,,,,,,,,,,,,,,,,,,,,,217.856,217.856,217.856,218.586,0,1,left,0.224,,218.587,218.587,,1,,218.588,218.588,,1,,0,218.588,218.588,218.588,220.088,0,22,22,22,1,0.2,0.8,0.6,0.4,1,0,,,,,,,,,,,,,,,,,,,,,,,,,,,,,,,,,,,,
,,5e248b6f0c0b31718a9d3f31,66fc98f8211d9ba1f3465eeb,2024-10-02_02h52.31.027,mdp,2024.2.1,Win32,143.6781609,66fa4ebf79326e780c390304,,,,,,,,,,,,,,,,,,,,,220.089,220.089,220.089,220.867,0,1,left,0.264,,220.868,220.869,,0,,220.869,220.869,,1,,0,220.869,220.869,220.869,222.369,0,23,23,23,1,0.2,0.8,0.6,0.4,1,0,,,,,,,,,,,,,,,,,,,,,,,,,,,,,,,,,,,,
,,5e248b6f0c0b31718a9d3f31,66fc98f8211d9ba1f3465eeb,2024-10-02_02h52.31.027,mdp,2024.2.1,Win32,143.6781609,66fa4ebf79326e780c390304,,,,,,,,,,,,,,,,,,,,,222.371,222.371,222.372,223.322,1,1,right,0.438,,223.323,223.323,,0,,223.324,223.324,,0,,0,223.324,223.324,223.325,224.824,0,24,24,24,1,0.2,0.8,0.6,0.4,1,0,,,,,,,,,,,,,,,,,,,,,,,,,,,,,,,,,,,,
,,5e248b6f0c0b31718a9d3f31,66fc98f8211d9ba1f3465eeb,2024-10-02_02h52.31.027,mdp,2024.2.1,Win32,143.6781609,66fa4ebf79326e780c390304,,,,,,,,,,,,,,,,,,,,,224.825,224.825,224.826,225.575,1,0,right,0.246,,225.576,225.577,,1,,225.577,225.578,,0,,1,225.578,225.578,225.578,227.077,0,25,25,25,1,0.2,0.8,0.6,0.4,1,0,,,,,,,,,,,,,,,,,,,,,,,,,,,,,,,,,,,,
,,5e248b6f0c0b31718a9d3f31,66fc98f8211d9ba1f3465eeb,2024-10-02_02h52.31.027,mdp,2024.2.1,Win32,143.6781609,66fa4ebf79326e780c390304,,,,,,,,,,,,,,,,,,,,,227.077,227.077,227.079,227.878,1,1,right,0.295,,227.878,227.879,,1,,227.88,227.88,,0,,0,227.88,227.88,227.88,229.379,0,26,26,26,1,0.8,0.2,0.2,0.8,1,0,,,,,,,,,,,,,,,,,,,,,,,,,,,,,,,,,,,,
,,5e248b6f0c0b31718a9d3f31,66fc98f8211d9ba1f3465eeb,2024-10-02_02h52.31.027,mdp,2024.2.1,Win32,143.6781609,66fa4ebf79326e780c390304,,,,,,,,,,,,,,,,,,,,,229.379,229.379,229.381,230.207,1,1,right,0.321,,230.208,230.208,,1,,230.209,230.209,,1,,0,230.209,230.209,230.209,231.709,0,27,27,27,1,0.8,0.2,0.2,0.8,1,0,,,,,,,,,,,,,,,,,,,,,,,,,,,,,,,,,,,,
,,5e248b6f0c0b31718a9d3f31,66fc98f8211d9ba1f3465eeb,2024-10-02_02h52.31.027,mdp,2024.2.1,Win32,143.6781609,66fa4ebf79326e780c390304,,,,,,,,,,,,,,,,,,,,,231.709,231.709,231.711,232.523,0,1,left,0.307,,232.524,232.524,,1,,232.525,232.525,,1,,0,232.525,232.525,232.525,234.025,0,28,28,28,1,0.2,0.8,0.6,0.4,1,0,,,,,,,,,,,,,,,,,,,,,,,,,,,,,,,,,,,,
,,5e248b6f0c0b31718a9d3f31,66fc98f8211d9ba1f3465eeb,2024-10-02_02h52.31.027,mdp,2024.2.1,Win32,143.6781609,66fa4ebf79326e780c390304,,,,,,,,,,,,,,,,,,,,,234.026,234.026,234.026,234.832,0,0,left,0.296,,234.833,234.833,,0,,234.834,234.834,,1,,1,234.834,234.834,234.835,236.334,0,29,29,29,1,0.2,0.8,0.6,0.4,1,0,,,,,,,,,,,,,,,,,,,,,,,,,,,,,,,,,,,,
,,5e248b6f0c0b31718a9d3f31,66fc98f8211d9ba1f3465eeb,2024-10-02_02h52.31.027,mdp,2024.2.1,Win32,143.6781609,66fa4ebf79326e780c390304,,,,,,,,,,,,,,,,,,,,,236.334,236.334,236.335,237.113,0,1,left,0.275,,237.114,237.114,,1,,237.114,237.115,,1,,0,237.115,237.115,237.115,238.615,0,30,30,30,1,0.2,0.8,0.6,0.4,1,0,,,,,,,,,,,,,,,,,,,,,,,,,,,,,,,,,,,,
,,5e248b6f0c0b31718a9d3f31,66fc98f8211d9ba1f3465eeb,2024-10-02_02h52.31.027,mdp,2024.2.1,Win32,143.6781609,66fa4ebf79326e780c390304,,,,,,,,,,,,,,,,,,,,,238.615,238.615,238.616,239.395,0,1,left,0.272,,239.395,239.395,,1,,239.396,239.396,,0,,0,239.396,239.396,239.396,240.896,0,31,31,31,1,0.2,0.8,0.6,0.4,1,0,,,,,,,,,,,,,,,,,,,,,,,,,,,,,,,,,,,,
,,5e248b6f0c0b31718a9d3f31,66fc98f8211d9ba1f3465eeb,2024-10-02_02h52.31.027,mdp,2024.2.1,Win32,143.6781609,66fa4ebf79326e780c390304,,,,,,,,,,,,,,,,,,,,,240.896,240.896,240.897,241.669,1,1,right,0.267,,241.67,241.67,,1,,241.67,241.671,,0,,0,241.671,241.671,241.671,243.171,0,32,32,32,1,0.2,0.8,0.6,0.4,1,0,,,,,,,,,,,,,,,,,,,,,,,,,,,,,,,,,,,,
,,5e248b6f0c0b31718a9d3f31,66fc98f8211d9ba1f3465eeb,2024-10-02_02h52.31.027,mdp,2024.2.1,Win32,143.6781609,66fa4ebf79326e780c390304,,,,,,,,,,,,,,,,,,,,,243.171,243.171,243.172,243.935,1,0,right,0.259,,243.937,243.938,,0,,243.938,243.939,,1,,1,243.939,243.939,243.939,245.438,0,33,33,33,1,0.2,0.8,0.6,0.4,1,0,,,,,,,,,,,,,,,,,,,,,,,,,,,,,,,,,,,,
,,5e248b6f0c0b31718a9d3f31,66fc98f8211d9ba1f3465eeb,2024-10-02_02h52.31.027,mdp,2024.2.1,Win32,143.6781609,66fa4ebf79326e780c390304,,,,,,,,,,,,,,,,,,,,,245.438,245.438,245.439,246.161,1,1,right,0.219,,246.162,246.163,,1,,246.163,246.163,,1,,0,246.163,246.163,246.163,247.663,0,34,34,34,1,0.2,0.8,0.6,0.4,1,0,,,,,,,,,,,,,,,,,,,,,,,,,,,,,,,,,,,,
,,5e248b6f0c0b31718a9d3f31,66fc98f8211d9ba1f3465eeb,2024-10-02_02h52.31.027,mdp,2024.2.1,Win32,143.6781609,66fa4ebf79326e780c390304,,,,,,,,,,,,,,,,,,,,,247.664,247.664,247.665,248.623,1,1,right,0.456,,248.623,248.624,,1,,248.624,248.625,,0,,0,248.625,248.625,248.625,250.126,0,35,35,35,1,0.6,0.4,0.4,0.6,1,0,,,,,,,,,,,,,,,,,,,,,,,,,,,,,,,,,,,,
,,5e248b6f0c0b31718a9d3f31,66fc98f8211d9ba1f3465eeb,2024-10-02_02h52.31.027,mdp,2024.2.1,Win32,143.6781609,66fa4ebf79326e780c390304,,,,,,,,,,,,,,,,,,,,,250.126,250.126,250.127,251.057,1,0,right,0.425,,251.058,251.058,,1,,251.059,251.06,,0,,1,251.06,251.06,251.06,252.56,0,36,36,36,1,0.4,0.6,0.8,0.2,1,0,,,,,,,,,,,,,,,,,,,,,,,,,,,,,,,,,,,,
,,5e248b6f0c0b31718a9d3f31,66fc98f8211d9ba1f3465eeb,2024-10-02_02h52.31.027,mdp,2024.2.1,Win32,143.6781609,66fa4ebf79326e780c390304,,,,,,,,,,,,,,,,,,,,,252.56,252.56,252.561,253.436,1,0,right,0.373,,253.437,253.437,,0,,253.437,253.438,,0,,1,253.438,253.438,253.438,254.938,0,37,37,37,1,0.4,0.6,0.8,0.2,1,0,,,,,,,,,,,,,,,,,,,,,,,,,,,,,,,,,,,,
,,5e248b6f0c0b31718a9d3f31,66fc98f8211d9ba1f3465eeb,2024-10-02_02h52.31.027,mdp,2024.2.1,Win32,143.6781609,66fa4ebf79326e780c390304,,,,,,,,,,,,,,,,,,,,,254.94,254.94,254.941,255.696,1,0,right,0.245,,255.697,255.698,,0,,255.699,255.699,,0,,1,255.699,255.699,255.699,257.198,0,38,38,38,1,0.4,0.6,0.8,0.2,1,0,,,,,,,,,,,,,,,,,,,,,,,,,,,,,,,,,,,,
,,5e248b6f0c0b31718a9d3f31,66fc98f8211d9ba1f3465eeb,2024-10-02_02h52.31.027,mdp,2024.2.1,Win32,143.6781609,66fa4ebf79326e780c390304,,,,,,,,,,,,,,,,,,,,,257.198,257.198,257.199,257.908,1,1,right,0.202,,257.909,257.91,,1,,257.91,257.91,,1,,0,257.91,257.91,257.911,259.41,0,39,39,39,1,0.6,0.4,0.2,0.8,1,0,,,,,,,,,,,,,,,,,,,,,,,,,,,,,,,,,,,,
,,5e248b6f0c0b31718a9d3f31,66fc98f8211d9ba1f3465eeb,2024-10-02_02h52.31.027,mdp,2024.2.1,Win32,143.6781609,66fa4ebf79326e780c390304,,,,,,,,,,,,,,,,,,,,,259.411,259.411,259.411,260.161,1,1,right,0.238,,260.162,260.163,,1,,260.163,260.163,,0,,0,260.163,260.163,260.164,261.663,0,40,40,40,1,0.6,0.4,0.2,0.8,1,0,,,,,,,,,,,,,,,,,,,,,,,,,,,,,,,,,,,,
,,5e248b6f0c0b31718a9d3f31,66fc98f8211d9ba1f3465eeb,2024-10-02_02h52.31.027,mdp,2024.2.1,Win32,143.6781609,66fa4ebf79326e780c390304,,,,,,,,,,,,,,,,,,,,,261.663,261.663,261.664,262.387,1,1,right,0.216,,262.387,262.388,,1,,262.388,262.389,,1,,0,262.389,262.389,262.389,263.889,0,41,41,41,1,0.6,0.4,0.2,0.8,1,0,,,,,,,,,,,,,,,,,,,,,,,,,,,,,,,,,,,,
,,5e248b6f0c0b31718a9d3f31,66fc98f8211d9ba1f3465eeb,2024-10-02_02h52.31.027,mdp,2024.2.1,Win32,143.6781609,66fa4ebf79326e780c390304,,,,,,,,,,,,,,,,,,,,,263.89,263.89,263.89,264.974,1,0,right,0.571,,264.975,264.975,,1,,264.976,264.976,,1,,1,264.976,264.976,264.976,266.476,0,42,42,42,1,0.6,0.4,0.2,0.8,1,0,,,,,,,,,,,,,,,,,,,,,,,,,,,,,,,,,,,,
,,5e248b6f0c0b31718a9d3f31,66fc98f8211d9ba1f3465eeb,2024-10-02_02h52.31.027,mdp,2024.2.1,Win32,143.6781609,66fa4ebf79326e780c390304,,,,,,,,,,,,,,,,,,,,,266.476,266.476,266.477,267.262,0,1,left,0.281,,267.263,267.263,,1,,267.264,267.264,,1,,0,267.264,267.264,267.264,268.764,0,43,43,43,1,0.4,0.6,0.6,0.4,1,0,,,,,,,,,,,,,,,,,,,,,,,,,,,,,,,,,,,,
,,5e248b6f0c0b31718a9d3f31,66fc98f8211d9ba1f3465eeb,2024-10-02_02h52.31.027,mdp,2024.2.1,Win32,143.6781609,66fa4ebf79326e780c390304,,,,,,,,,,,,,,,,,,,,,268.764,268.764,268.765,269.543,1,0,right,0.273,,269.544,269.544,,0,,269.545,269.545,,1,,1,269.545,269.545,269.545,271.046,0,44,44,44,1,0.4,0.6,0.6,0.4,1,0,,,,,,,,,,,,,,,,,,,,,,,,,,,,,,,,,,,,
,,5e248b6f0c0b31718a9d3f31,66fc98f8211d9ba1f3465eeb,2024-10-02_02h52.31.027,mdp,2024.2.1,Win32,143.6781609,66fa4ebf79326e780c390304,,,,,,,,,,,,,,,,,,,,,271.046,271.046,271.047,271.804,1,0,right,0.251,,271.804,271.805,,0,,271.805,271.806,,0,,1,271.806,271.806,271.806,273.306,0,45,45,45,1,0.4,0.6,0.6,0.4,1,0,,,,,,,,,,,,,,,,,,,,,,,,,,,,,,,,,,,,
,,5e248b6f0c0b31718a9d3f31,66fc98f8211d9ba1f3465eeb,2024-10-02_02h52.31.027,mdp,2024.2.1,Win32,143.6781609,66fa4ebf79326e780c390304,,,,,,,,,,,,,,,,,,,,,273.306,273.306,273.307,274.028,1,0,right,0.219,,274.029,274.03,,1,,274.03,274.03,,0,,1,274.03,274.03,274.03,275.531,0,46,46,46,1,0.4,0.6,0.6,0.4,1,0,,,,,,,,,,,,,,,,,,,,,,,,,,,,,,,,,,,,
,,5e248b6f0c0b31718a9d3f31,66fc98f8211d9ba1f3465eeb,2024-10-02_02h52.31.027,mdp,2024.2.1,Win32,143.6781609,66fa4ebf79326e780c390304,,,,,,,,,,,,,,,,,,,,,275.531,275.531,275.532,276.289,1,0,right,0.252,,276.29,276.29,,0,,276.29,276.29,,0,,1,276.29,276.29,276.291,277.791,0,47,47,47,1,0.6,0.4,0.4,0.6,1,0,,,,,,,,,,,,,,,,,,,,,,,,,,,,,,,,,,,,
,,5e248b6f0c0b31718a9d3f31,66fc98f8211d9ba1f3465eeb,2024-10-02_02h52.31.027,mdp,2024.2.1,Win32,143.6781609,66fa4ebf79326e780c390304,,,,,,,,,,,,,,,,,,,,,277.791,277.791,277.792,278.737,1,1,right,0.439,,278.738,278.738,,1,,278.739,278.739,,1,,0,278.739,278.739,278.739,280.239,0,48,48,48,1,0.6,0.4,0.4,0.6,1,0,,,,,,,,,,,,,,,,,,,,,,,,,,,,,,,,,,,,
,,5e248b6f0c0b31718a9d3f31,66fc98f8211d9ba1f3465eeb,2024-10-02_02h52.31.027,mdp,2024.2.1,Win32,143.6781609,66fa4ebf79326e780c390304,,,,,,,,,,,,,,,,,,,,,280.239,280.239,280.24,281.033,1,1,right,0.287,,281.033,281.034,,1,,281.034,281.035,,0,,0,281.035,281.035,281.035,282.534,0,49,49,49,1,0.6,0.4,0.4,0.6,1,0,,,,,,,,,,,,,,,,,,,,,,,,,,,,,,,,,,,,
,,5e248b6f0c0b31718a9d3f31,66fc98f8211d9ba1f3465eeb,2024-10-02_02h52.31.027,mdp,2024.2.1,Win32,143.6781609,66fa4ebf79326e780c390304,,,,,,,,,,,,,,,,,,,,,,,,,,,,,,,,,,,,,,,,,,,,,,,,,,,,,,,,282.534,341.038,0,0,0,0,1,imgs/elephant.png,imgs/dog.png,imgs/goat.png,imgs/lion.png,imgs/pig.png,,,,,,,,,,,,,,,,,,,,,,,,
,,5e248b6f0c0b31718a9d3f31,66fc98f8211d9ba1f3465eeb,2024-10-02_02h52.31.027,mdp,2024.2.1,Win32,143.6781609,66fa4ebf79326e780c390304,,,,,,,,,,,,,,2,seqs/st2seq16.csv,341.039,387.815,space,46.266,,387.819,387.819,387.821,389.929,0,1,left,1.594,,389.932,391.994,1,1,right,391.995,391.996,,1,,0,391.996,391.996,391.997,393.497,0,0,0,0,1,0.8,0.2,0.6,0.4,,,,,,,,,,,,,,,1.554,,0.8,0.2,0.2,0.8,0.2,0.8,0.4,0.6,1,0,,,,,,,,,,,,
,,5e248b6f0c0b31718a9d3f31,66fc98f8211d9ba1f3465eeb,2024-10-02_02h52.31.027,mdp,2024.2.1,Win32,143.6781609,66fa4ebf79326e780c390304,,,,,,,,,,,,,,,,,,,,,393.497,393.497,393.499,394.54,0,1,left,0.536,,394.541,395.855,0,1,left,395.856,395.856,,1,,0,395.856,395.856,395.857,397.357,0,1,1,1,1,0.8,0.2,0.6,0.4,,,,,,,,,,,,,,,0.809,,0.8,0.2,0.2,0.8,0.2,0.8,0.4,0.6,1,0,,,,,,,,,,,,
,,5e248b6f0c0b31718a9d3f31,66fc98f8211d9ba1f3465eeb,2024-10-02_02h52.31.027,mdp,2024.2.1,Win32,143.6781609,66fa4ebf79326e780c390304,,,,,,,,,,,,,,,,,,,,,397.357,397.357,397.358,398.518,1,1,right,0.654,,398.519,399.408,1,1,right,399.409,399.409,,1,,0,399.409,399.409,399.41,400.911,0,2,2,2,1,0.8,0.2,0.6,0.4,,,,,,,,,,,,,,,0.386,,0.6,0.4,0.8,0.2,0.2,0.8,0.4,0.6,1,0,,,,,,,,,,,,
,,5e248b6f0c0b31718a9d3f31,66fc98f8211d9ba1f3465eeb,2024-10-02_02h52.31.027,mdp,2024.2.1,Win32,143.6781609,66fa4ebf79326e780c390304,,,,,,,,,,,,,,,,,,,,,400.911,400.911,400.912,401.773,0,0,left,0.354,,401.774,402.594,0,1,left,402.595,402.595,,0,,0,402.595,402.595,402.595,404.096,0,3,3,3,1,0.8,0.2,0.6,0.4,,,,,,,,,,,,,,,0.313,,0.6,0.4,0.8,0.2,0.2,0.8,0.4,0.6,1,0,,,,,,,,,,,,
,,5e248b6f0c0b31718a9d3f31,66fc98f8211d9ba1f3465eeb,2024-10-02_02h52.31.027,mdp,2024.2.1,Win32,143.6781609,66fa4ebf79326e780c390304,,,,,,,,,,,,,,,,,,,,,404.096,404.096,404.097,405.062,0,0,left,0.459,,405.063,406.029,0,1,left,406.029,406.031,,1,,0,406.031,406.031,406.031,407.531,0,4,4,4,1,0.8,0.2,0.6,0.4,,,,,,,,,,,,,,,0.459,,0.6,0.4,0.8,0.2,0.6,0.4,0.8,0.2,1,0,,,,,,,,,,,,
,,5e248b6f0c0b31718a9d3f31,66fc98f8211d9ba1f3465eeb,2024-10-02_02h52.31.027,mdp,2024.2.1,Win32,143.6781609,66fa4ebf79326e780c390304,,,,,,,,,,,,,,,,,,,,,407.531,407.531,407.532,408.45,0,1,left,0.413,,408.451,409.305,1,1,right,409.306,409.307,,0,,0,409.307,409.307,409.307,410.807,0,5,5,5,1,0.8,0.2,0.6,0.4,,,,,,,,,,,,,,,0.348,,0.6,0.4,0.8,0.2,0.6,0.4,0.8,0.2,1,0,,,,,,,,,,,,
,,5e248b6f0c0b31718a9d3f31,66fc98f8211d9ba1f3465eeb,2024-10-02_02h52.31.027,mdp,2024.2.1,Win32,143.6781609,66fa4ebf79326e780c390304,,,,,,,,,,,,,,,,,,,,,410.808,410.808,410.808,411.892,0,0,left,0.573,,411.893,413.11,1,0,right,413.11,413.111,,0,,1,413.111,413.111,413.111,414.611,0,6,6,6,1,0.8,0.2,0.6,0.4,,,,,,,,,,,,,,,0.709,,0.6,0.4,0.8,0.2,0.6,0.4,0.8,0.2,1,0,,,,,,,,,,,,
,,5e248b6f0c0b31718a9d3f31,66fc98f8211d9ba1f3465eeb,2024-10-02_02h52.31.027,mdp,2024.2.1,Win32,143.6781609,66fa4ebf79326e780c390304,,,,,,,,,,,,,,,,,,,,,414.611,414.611,414.612,417.825,0,0,left,2.708,,417.825,419.834,1,1,right,419.835,419.835,,1,,0,419.836,419.836,419.836,421.336,0,7,7,7,1,0.8,0.2,0.6,0.4,,,,,,,,,,,,,,,1.502,,0.6,0.4,0.8,0.2,0.6,0.4,0.8,0.2,1,0,,,,,,,,,,,,
,,5e248b6f0c0b31718a9d3f31,66fc98f8211d9ba1f3465eeb,2024-10-02_02h52.31.027,mdp,2024.2.1,Win32,143.6781609,66fa4ebf79326e780c390304,,,,,,,,,,,,,,,,,,,,,421.336,421.336,421.338,424.035,0,1,left,2.194,,424.038,425.3,0,1,left,425.301,425.302,,0,,0,425.302,425.302,425.303,426.803,0,8,8,8,1,0.8,0.2,0.6,0.4,,,,,,,,,,,,,,,0.749,,0.6,0.4,0.8,0.2,0.6,0.4,0.8,0.2,1,0,,,,,,,,,,,,
,,5e248b6f0c0b31718a9d3f31,66fc98f8211d9ba1f3465eeb,2024-10-02_02h52.31.027,mdp,2024.2.1,Win32,143.6781609,66fa4ebf79326e780c390304,,,,,,,,,,,,,,,,,,,,,426.804,426.804,426.805,427.839,0,0,left,0.522,,427.84,428.876,1,0,right,428.877,428.878,,1,,1,428.878,428.878,428.878,430.377,0,9,9,9,1,0.8,0.2,0.6,0.4,,,,,,,,,,,,,,,0.528,,0.8,0.2,0.4,0.6,0.6,0.4,0.8,0.2,1,0,,,,,,,,,,,,
,,5e248b6f0c0b31718a9d3f31,66fc98f8211d9ba1f3465eeb,2024-10-02_02h52.31.027,mdp,2024.2.1,Win32,143.6781609,66fa4ebf79326e780c390304,,,,,,,,,,,,,,,,,,,,,430.378,430.378,430.379,431.295,0,0,left,0.412,,431.296,432.52,1,1,right,432.521,432.522,,0,,0,432.522,432.522,432.522,434.022,0,10,10,10,1,0.8,0.2,0.6,0.4,,,,,,,,,,,,,,,0.716,,0.8,0.2,0.4,0.6,0.6,0.4,0.8,0.2,1,0,,,,,,,,,,,,
,,5e248b6f0c0b31718a9d3f31,66fc98f8211d9ba1f3465eeb,2024-10-02_02h52.31.027,mdp,2024.2.1,Win32,143.6781609,66fa4ebf79326e780c390304,,,,,,,,,,,,,,,,,,,,,434.023,434.023,434.024,434.933,0,1,left,0.397,,434.935,436.609,0,0,left,436.61,436.61,,1,,1,436.61,436.61,436.611,438.105,0,11,11,11,1,0.8,0.2,0.6,0.4,,,,,,,,,,,,,,,1.169,,0.8,0.2,0.4,0.6,0.6,0.4,0.8,0.2,1,0,,,,,,,,,,,,
,,5e248b6f0c0b31718a9d3f31,66fc98f8211d9ba1f3465eeb,2024-10-02_02h52.31.027,mdp,2024.2.1,Win32,143.6781609,66fa4ebf79326e780c390304,,,,,,,,,,,,,,,,,,,,,438.105,438.105,438.106,439.245,1,0,right,0.632,,439.246,440.247,1,0,right,440.248,440.248,,0,,1,440.248,440.248,440.248,441.748,0,12,12,12,1,0.8,0.2,0.6,0.4,,,,,,,,,,,,,,,0.493,,0.8,0.2,0.4,0.6,0.4,0.6,0.2,0.8,1,0,,,,,,,,,,,,
,,5e248b6f0c0b31718a9d3f31,66fc98f8211d9ba1f3465eeb,2024-10-02_02h52.31.027,mdp,2024.2.1,Win32,143.6781609,66fa4ebf79326e780c390304,,,,,,,,,,,,,,,,,,,,,441.748,441.749,441.749,443.064,1,0,right,0.81,,443.064,444.051,1,0,right,444.052,444.053,,0,,1,444.053,444.053,444.053,445.552,0,13,13,13,1,0.8,0.2,0.6,0.4,,,,,,,,,,,,,,,0.474,,0.8,0.2,0.4,0.6,0.4,0.6,0.2,0.8,1,0,,,,,,,,,,,,
,,5e248b6f0c0b31718a9d3f31,66fc98f8211d9ba1f3465eeb,2024-10-02_02h52.31.027,mdp,2024.2.1,Win32,143.6781609,66fa4ebf79326e780c390304,,,,,,,,,,,,,,,,,,,,,445.553,445.553,445.554,446.756,1,0,right,0.696,,446.756,447.737,1,1,right,447.737,447.738,,1,,0,447.738,447.738,447.738,449.238,0,14,14,14,1,0.8,0.2,0.6,0.4,,,,,,,,,,,,,,,0.476,,0.8,0.2,0.4,0.6,0.4,0.6,0.2,0.8,1,0,,,,,,,,,,,,
,,5e248b6f0c0b31718a9d3f31,66fc98f8211d9ba1f3465eeb,2024-10-02_02h52.31.027,mdp,2024.2.1,Win32,143.6781609,66fa4ebf79326e780c390304,,,,,,,,,,,,,,,,,,,,,449.239,449.239,449.24,450.31,1,1,right,0.565,,450.31,451.701,0,1,left,451.702,451.702,,0,,0,451.702,451.702,451.703,453.197,0,15,15,15,1,0.8,0.2,0.6,0.4,,,,,,,,,,,,,,,0.883,,0.8,0.2,0.4,0.6,0.6,0.4,0.8,0.2,1,0,,,,,,,,,,,,
,,5e248b6f0c0b31718a9d3f31,66fc98f8211d9ba1f3465eeb,2024-10-02_02h52.31.027,mdp,2024.2.1,Win32,143.6781609,66fa4ebf79326e780c390304,,,,,,,,,,,,,,,,,,,,,453.197,453.197,453.198,454.343,0,0,left,0.64,,454.344,455.707,0,0,left,455.71,455.712,,0,,1,455.712,455.712,455.712,457.209,0,16,16,16,1,0.8,0.2,0.6,0.4,,,,,,,,,,,,,,,0.858,,0.8,0.2,0.4,0.6,0.6,0.4,0.8,0.2,1,0,,,,,,,,,,,,
,,5e248b6f0c0b31718a9d3f31,66fc98f8211d9ba1f3465eeb,2024-10-02_02h52.31.027,mdp,2024.2.1,Win32,143.6781609,66fa4ebf79326e780c390304,,,,,,,,,,,,,,,,,,,,,457.209,457.209,457.21,458.218,0,0,left,0.502,,458.218,459.073,1,1,right,459.074,459.074,,0,,0,459.075,459.075,459.075,460.575,0,17,17,17,1,0.8,0.2,0.6,0.4,,,,,,,,,,,,,,,0.348,,0.8,0.2,0.4,0.6,0.6,0.4,0.8,0.2,1,0,,,,,,,,,,,,
,,5e248b6f0c0b31718a9d3f31,66fc98f8211d9ba1f3465eeb,2024-10-02_02h52.31.027,mdp,2024.2.1,Win32,143.6781609,66fa4ebf79326e780c390304,,,,,,,,,,,,,,,,,,,,,460.576,460.576,460.576,461.528,0,1,left,0.438,,461.528,462.335,0,1,left,462.336,462.336,,1,,0,462.336,462.336,462.337,463.837,0,18,18,18,1,0.8,0.2,0.6,0.4,,,,,,,,,,,,,,,0.299,,0.8,0.2,0.4,0.6,0.6,0.4,0.8,0.2,1,0,,,,,,,,,,,,
,,5e248b6f0c0b31718a9d3f31,66fc98f8211d9ba1f3465eeb,2024-10-02_02h52.31.027,mdp,2024.2.1,Win32,143.6781609,66fa4ebf79326e780c390304,,,,,,,,,,,,,,,,,,,,,463.839,463.839,463.84,464.741,1,1,right,0.389,,464.742,465.506,1,1,right,465.507,465.507,,1,,0,465.507,465.508,465.508,467.008,0,19,19,19,1,0.6,0.4,0.8,0.2,,,,,,,,,,,,,,,0.26,,0.8,0.2,0.4,0.6,0.6,0.4,0.8,0.2,1,0,,,,,,,,,,,,
,,5e248b6f0c0b31718a9d3f31,66fc98f8211d9ba1f3465eeb,2024-10-02_02h52.31.027,mdp,2024.2.1,Win32,143.6781609,66fa4ebf79326e780c390304,,,,,,,,,,,,,,,,,,,,,467.008,467.008,467.009,467.884,0,0,left,0.371,,467.885,468.698,0,0,left,468.699,468.7,,0,,1,468.7,468.7,468.7,470.201,0,20,20,20,1,0.6,0.4,0.8,0.2,,,,,,,,,,,,,,,0.304,,0.8,0.2,0.4,0.6,0.6,0.4,0.8,0.2,1,0,,,,,,,,,,,,
,,5e248b6f0c0b31718a9d3f31,66fc98f8211d9ba1f3465eeb,2024-10-02_02h52.31.027,mdp,2024.2.1,Win32,143.6781609,66fa4ebf79326e780c390304,,,,,,,,,,,,,,,,,,,,,470.201,470.201,470.202,471.07,0,1,left,0.364,,471.07,471.89,0,1,left,471.892,471.893,,0,,0,471.893,471.893,471.893,473.392,0,21,21,21,1,0.6,0.4,0.8,0.2,,,,,,,,,,,,,,,0.314,,0.8,0.2,0.4,0.6,0.6,0.4,0.8,0.2,1,0,,,,,,,,,,,,
,,5e248b6f0c0b31718a9d3f31,66fc98f8211d9ba1f3465eeb,2024-10-02_02h52.31.027,mdp,2024.2.1,Win32,143.6781609,66fa4ebf79326e780c390304,,,,,,,,,,,,,,,,,,,,,473.393,473.393,473.394,474.401,0,0,left,0.502,,474.402,475.228,1,0,right,475.229,475.23,,0,,1,475.23,475.23,475.231,476.731,0,22,22,22,1,0.6,0.4,0.8,0.2,,,,,,,,,,,,,,,0.318,,0.8,0.2,0.4,0.6,0.8,0.2,0.2,0.8,1,0,,,,,,,,,,,,
,,5e248b6f0c0b31718a9d3f31,66fc98f8211d9ba1f3465eeb,2024-10-02_02h52.31.027,mdp,2024.2.1,Win32,143.6781609,66fa4ebf79326e780c390304,,,,,,,,,,,,,,,,,,,,,476.731,476.731,476.732,477.524,0,1,left,0.289,,477.525,478.428,1,1,right,478.429,478.43,,1,,0,478.43,478.43,478.43,479.93,0,23,23,23,1,0.6,0.4,0.8,0.2,,,,,,,,,,,,,,,0.397,,0.8,0.2,0.4,0.6,0.8,0.2,0.2,0.8,1,0,,,,,,,,,,,,
,,5e248b6f0c0b31718a9d3f31,66fc98f8211d9ba1f3465eeb,2024-10-02_02h52.31.027,mdp,2024.2.1,Win32,143.6781609,66fa4ebf79326e780c390304,,,,,,,,,,,,,,,,,,,,,479.93,479.931,479.931,480.974,0,1,left,0.529,,480.974,481.87,1,1,right,481.871,481.872,,1,,0,481.872,481.872,481.872,483.373,0,24,24,24,1,0.6,0.4,0.8,0.2,,,,,,,,,,,,,,,0.391,,0.8,0.2,0.4,0.6,0.8,0.2,0.2,0.8,1,0,,,,,,,,,,,,
,,5e248b6f0c0b31718a9d3f31,66fc98f8211d9ba1f3465eeb,2024-10-02_02h52.31.027,mdp,2024.2.1,Win32,143.6781609,66fa4ebf79326e780c390304,,,,,,,,,,,,,,,,,,,,,483.373,483.373,483.373,484.166,0,0,left,0.286,,484.166,484.986,0,0,left,484.986,484.987,,1,,1,484.987,484.987,484.988,486.488,0,25,25,25,1,0.6,0.4,0.8,0.2,,,,,,,,,,,,,,,0.312,,0.8,0.2,0.4,0.6,0.8,0.2,0.2,0.8,1,0,,,,,,,,,,,,
,,5e248b6f0c0b31718a9d3f31,66fc98f8211d9ba1f3465eeb,2024-10-02_02h52.31.027,mdp,2024.2.1,Win32,143.6781609,66fa4ebf79326e780c390304,,,,,,,,,,,,,,,,,,,,,486.488,486.488,486.489,487.36,0,1,left,0.364,,487.36,488.645,1,1,right,488.645,488.646,,1,,0,488.646,488.646,488.646,490.147,0,26,26,26,1,0.6,0.4,0.8,0.2,,,,,,,,,,,,,,,0.771,,0.8,0.2,0.4,0.6,0.8,0.2,0.2,0.8,1,0,,,,,,,,,,,,
,,5e248b6f0c0b31718a9d3f31,66fc98f8211d9ba1f3465eeb,2024-10-02_02h52.31.027,mdp,2024.2.1,Win32,143.6781609,66fa4ebf79326e780c390304,,,,,,,,,,,,,,,,,,,,,490.148,490.148,490.15,490.968,0,0,left,0.306,,490.969,491.794,0,0,left,491.795,491.796,,0,,1,491.796,491.796,491.797,493.297,0,27,27,27,1,0.6,0.4,0.8,0.2,,,,,,,,,,,,,,,0.319,,0.8,0.2,0.4,0.6,0.8,0.2,0.2,0.8,1,0,,,,,,,,,,,,
,,5e248b6f0c0b31718a9d3f31,66fc98f8211d9ba1f3465eeb,2024-10-02_02h52.31.027,mdp,2024.2.1,Win32,143.6781609,66fa4ebf79326e780c390304,,,,,,,,,,,,,,,,,,,,,493.298,493.298,493.299,494.138,0,0,left,0.334,,494.139,495.085,0,1,left,495.086,495.086,,1,,0,495.086,495.086,495.087,496.586,0,28,28,28,1,0.6,0.4,0.8,0.2,,,,,,,,,,,,,,,0.438,,0.8,0.2,0.4,0.6,0.8,0.2,0.2,0.8,1,0,,,,,,,,,,,,
,,5e248b6f0c0b31718a9d3f31,66fc98f8211d9ba1f3465eeb,2024-10-02_02h52.31.027,mdp,2024.2.1,Win32,143.6781609,66fa4ebf79326e780c390304,,,,,,,,,,,,,,,,,,,,,496.587,496.587,496.589,497.477,0,0,left,0.386,,497.478,498.27,1,1,right,498.271,498.272,,0,,0,498.272,498.272,498.272,499.772,0,29,29,29,1,0.6,0.4,0.8,0.2,,,,,,,,,,,,,,,0.286,,0.8,0.2,0.4,0.6,0.8,0.2,0.2,0.8,1,0,,,,,,,,,,,,
,,5e248b6f0c0b31718a9d3f31,66fc98f8211d9ba1f3465eeb,2024-10-02_02h52.31.027,mdp,2024.2.1,Win32,143.6781609,66fa4ebf79326e780c390304,,,,,,,,,,,,,,,,,,,,,499.772,499.772,499.773,500.55,0,0,left,0.271,,500.552,501.329,0,0,left,501.33,501.331,,0,,1,501.331,501.331,501.331,502.832,0,30,30,30,1,0.6,0.4,0.8,0.2,,,,,,,,,,,,,,,0.274,,0.8,0.2,0.4,0.6,0.8,0.2,0.2,0.8,1,0,,,,,,,,,,,,
,,5e248b6f0c0b31718a9d3f31,66fc98f8211d9ba1f3465eeb,2024-10-02_02h52.31.027,mdp,2024.2.1,Win32,143.6781609,66fa4ebf79326e780c390304,,,,,,,,,,,,,,,,,,,,,502.833,502.833,502.834,503.736,0,0,left,0.392,,503.737,504.647,0,0,left,504.648,504.649,,1,,1,504.649,504.649,504.649,506.15,0,31,31,31,1,0.6,0.4,0.8,0.2,,,,,,,,,,,,,,,0.403,,0.8,0.2,0.4,0.6,0.8,0.2,0.2,0.8,1,0,,,,,,,,,,,,
,,5e248b6f0c0b31718a9d3f31,66fc98f8211d9ba1f3465eeb,2024-10-02_02h52.31.027,mdp,2024.2.1,Win32,143.6781609,66fa4ebf79326e780c390304,,,,,,,,,,,,,,,,,,,,,506.15,506.15,506.151,507.178,0,1,left,0.521,,507.18,507.999,0,0,left,508,508,,0,,1,508.001,508.001,508.001,509.501,0,32,32,32,1,0.6,0.4,0.8,0.2,,,,,,,,,,,,,,,0.313,,0.8,0.2,0.4,0.6,0.6,0.4,0.4,0.6,1,0,,,,,,,,,,,,
,,5e248b6f0c0b31718a9d3f31,66fc98f8211d9ba1f3465eeb,2024-10-02_02h52.31.027,mdp,2024.2.1,Win32,143.6781609,66fa4ebf79326e780c390304,,,,,,,,,,,,,,,,,,,,,509.501,509.501,509.504,510.287,0,1,left,0.282,,510.288,511.066,0,1,left,511.067,511.067,,0,,0,511.067,511.067,511.068,512.562,0,33,33,33,1,0.6,0.4,0.8,0.2,,,,,,,,,,,,,,,0.272,,0.8,0.2,0.4,0.6,0.6,0.4,0.4,0.6,1,0,,,,,,,,,,,,
,,5e248b6f0c0b31718a9d3f31,66fc98f8211d9ba1f3465eeb,2024-10-02_02h52.31.027,mdp,2024.2.1,Win32,143.6781609,66fa4ebf79326e780c390304,,,,,,,,,,,,,,,,,,,,,512.562,512.562,512.563,513.34,0,0,left,0.272,,513.341,514.085,0,0,left,514.086,514.086,,0,,1,514.087,514.087,514.087,515.586,0,34,34,34,1,0.8,0.2,0.4,0.6,,,,,,,,,,,,,,,0.237,,0.8,0.2,0.4,0.6,0.6,0.4,0.4,0.6,1,0,,,,,,,,,,,,
,,5e248b6f0c0b31718a9d3f31,66fc98f8211d9ba1f3465eeb,2024-10-02_02h52.31.027,mdp,2024.2.1,Win32,143.6781609,66fa4ebf79326e780c390304,,,,,,,,,,,,,,,,,,,,,515.587,515.587,515.587,516.7,0,0,left,0.605,,516.701,517.666,0,0,left,517.667,517.667,,0,,1,517.667,517.667,517.668,519.162,0,35,35,35,1,0.8,0.2,0.4,0.6,,,,,,,,,,,,,,,0.464,,0.8,0.2,0.4,0.6,0.6,0.4,0.4,0.6,1,0,,,,,,,,,,,,
,,5e248b6f0c0b31718a9d3f31,66fc98f8211d9ba1f3465eeb,2024-10-02_02h52.31.027,mdp,2024.2.1,Win32,143.6781609,66fa4ebf79326e780c390304,,,,,,,,,,,,,,,,,,,,,519.162,519.162,519.163,519.982,0,0,left,0.313,,519.983,520.998,0,0,left,520.998,520.999,,0,,1,520.999,520.999,520.999,522.5,0,36,36,36,1,0.8,0.2,0.4,0.6,,,,,,,,,,,,,,,0.509,,0.8,0.2,0.4,0.6,0.8,0.2,0.8,0.2,1,0,,,,,,,,,,,,
,,5e248b6f0c0b31718a9d3f31,66fc98f8211d9ba1f3465eeb,2024-10-02_02h52.31.027,mdp,2024.2.1,Win32,143.6781609,66fa4ebf79326e780c390304,,,,,,,,,,,,,,,,,,,,,522.501,522.501,522.501,523.509,0,0,left,0.498,,523.511,524.552,0,0,left,524.553,524.553,,0,,1,524.553,524.553,524.554,526.053,0,37,37,37,1,0.8,0.2,0.4,0.6,,,,,,,,,,,,,,,0.537,,0.8,0.2,0.4,0.6,0.8,0.2,0.8,0.2,1,0,,,,,,,,,,,,
,,5e248b6f0c0b31718a9d3f31,66fc98f8211d9ba1f3465eeb,2024-10-02_02h52.31.027,mdp,2024.2.1,Win32,143.6781609,66fa4ebf79326e780c390304,,,,,,,,,,,,,,,,,,,,,526.054,526.054,526.055,526.985,0,1,left,0.424,,526.986,527.855,0,1,left,527.856,527.857,,0,,0,527.857,527.857,527.857,529.357,0,38,38,38,1,0.8,0.2,0.4,0.6,,,,,,,,,,,,,,,0.36,,0.8,0.2,0.4,0.6,0.8,0.2,0.8,0.2,1,0,,,,,,,,,,,,
,,5e248b6f0c0b31718a9d3f31,66fc98f8211d9ba1f3465eeb,2024-10-02_02h52.31.027,mdp,2024.2.1,Win32,143.6781609,66fa4ebf79326e780c390304,,,,,,,,,,,,,,,,,,,,,529.358,529.358,529.358,530.15,0,0,left,0.285,,530.151,530.971,0,0,left,530.972,530.973,,0,,1,530.973,530.973,530.973,532.473,0,39,39,39,1,0.8,0.2,0.4,0.6,,,,,,,,,,,,,,,0.311,,0.8,0.2,0.4,0.6,0.8,0.2,0.8,0.2,1,0,,,,,,,,,,,,
,,5e248b6f0c0b31718a9d3f31,66fc98f8211d9ba1f3465eeb,2024-10-02_02h52.31.027,mdp,2024.2.1,Win32,143.6781609,66fa4ebf79326e780c390304,,,,,,,,,,,,,,,,,,,,,532.473,532.473,532.474,533.203,0,0,left,0.223,,533.204,533.989,0,0,left,533.99,533.991,,1,,1,533.991,533.991,533.991,535.492,0,40,40,40,1,0.8,0.2,0.4,0.6,,,,,,,,,,,,,,,0.281,,0.8,0.2,0.4,0.6,0.4,0.6,0.2,0.8,1,0,,,,,,,,,,,,
,,5e248b6f0c0b31718a9d3f31,66fc98f8211d9ba1f3465eeb,2024-10-02_02h52.31.027,mdp,2024.2.1,Win32,143.6781609,66fa4ebf79326e780c390304,,,,,,,,,,,,,,,,,,,,,535.492,535.492,535.493,536.569,0,1,left,0.573,,536.57,537.619,0,1,left,537.62,537.62,,0,,0,537.621,537.621,537.621,539.122,0,41,41,41,1,0.8,0.2,0.4,0.6,,,,,,,,,,,,,,,0.544,,0.8,0.2,0.4,0.6,0.4,0.6,0.2,0.8,1,0,,,,,,,,,,,,
,,5e248b6f0c0b31718a9d3f31,66fc98f8211d9ba1f3465eeb,2024-10-02_02h52.31.027,mdp,2024.2.1,Win32,143.6781609,66fa4ebf79326e780c390304,,,,,,,,,,,,,,,,,,,,,539.122,539.122,539.123,540.103,0,0,left,0.476,,540.103,541.18,0,0,left,541.181,541.182,,0,,1,541.182,541.182,541.182,542.682,0,42,42,42,1,0.8,0.2,0.4,0.6,,,,,,,,,,,,,,,0.564,,0.8,0.2,0.4,0.6,0.4,0.6,0.2,0.8,1,0,,,,,,,,,,,,
,,5e248b6f0c0b31718a9d3f31,66fc98f8211d9ba1f3465eeb,2024-10-02_02h52.31.027,mdp,2024.2.1,Win32,143.6781609,66fa4ebf79326e780c390304,,,,,,,,,,,,,,,,,,,,,542.682,542.682,542.684,543.496,0,0,left,0.311,,543.497,544.331,0,0,left,544.332,544.332,,0,,1,544.332,544.332,544.333,545.833,0,43,43,43,1,0.8,0.2,0.4,0.6,,,,,,,,,,,,,,,0.329,,0.8,0.2,0.4,0.6,0.4,0.6,0.2,0.8,1,0,,,,,,,,,,,,
,,5e248b6f0c0b31718a9d3f31,66fc98f8211d9ba1f3465eeb,2024-10-02_02h52.31.027,mdp,2024.2.1,Win32,143.6781609,66fa4ebf79326e780c390304,,,,,,,,,,,,,,,,,,,,,545.833,545.833,545.834,546.876,0,0,left,0.536,,546.878,547.648,0,1,left,547.649,547.65,,0,,0,547.65,547.65,547.65,549.15,0,44,44,44,1,0.8,0.2,0.4,0.6,,,,,,,,,,,,,,,0.265,,0.8,0.2,0.4,0.6,0.4,0.6,0.2,0.8,1,0,,,,,,,,,,,,
,,5e248b6f0c0b31718a9d3f31,66fc98f8211d9ba1f3465eeb,2024-10-02_02h52.31.027,mdp,2024.2.1,Win32,143.6781609,66fa4ebf79326e780c390304,,,,,,,,,,,,,,,,,,,,,549.151,549.151,549.152,550.263,0,0,left,0.607,,550.264,551.181,0,0,left,551.182,551.182,,0,,1,551.182,551.182,551.183,552.677,0,45,45,45,1,0.8,0.2,0.4,0.6,,,,,,,,,,,,,,,0.409,,0.8,0.2,0.4,0.6,0.4,0.6,0.2,0.8,1,0,,,,,,,,,,,,
,,5e248b6f0c0b31718a9d3f31,66fc98f8211d9ba1f3465eeb,2024-10-02_02h52.31.027,mdp,2024.2.1,Win32,143.6781609,66fa4ebf79326e780c390304,,,,,,,,,,,,,,,,,,,,,552.677,552.677,552.678,553.441,0,0,left,0.258,,553.442,554.241,0,0,left,554.242,554.242,,1,,1,554.242,554.242,554.243,555.737,0,46,46,46,1,0.8,0.2,0.4,0.6,,,,,,,,,,,,,,,0.293,,0.8,0.2,0.4,0.6,0.4,0.6,0.2,0.8,1,0,,,,,,,,,,,,
,,5e248b6f0c0b31718a9d3f31,66fc98f8211d9ba1f3465eeb,2024-10-02_02h52.31.027,mdp,2024.2.1,Win32,143.6781609,66fa4ebf79326e780c390304,,,,,,,,,,,,,,,,,,,,,555.737,555.737,555.737,556.551,0,0,left,0.306,,556.553,557.364,0,0,left,557.365,557.366,,0,,1,557.366,557.366,557.366,558.866,0,47,47,47,1,0.8,0.2,0.4,0.6,,,,,,,,,,,,,,,0.308,,0.8,0.2,0.4,0.6,0.4,0.6,0.2,0.8,1,0,,,,,,,,,,,,
,,5e248b6f0c0b31718a9d3f31,66fc98f8211d9ba1f3465eeb,2024-10-02_02h52.31.027,mdp,2024.2.1,Win32,143.6781609,66fa4ebf79326e780c390304,,,,,,,,,,,,,,,,,,,,,558.867,558.867,558.867,559.645,0,1,left,0.266,,559.646,560.486,0,1,left,560.487,560.488,,1,,0,560.488,560.488,560.489,561.988,0,48,48,48,1,0.8,0.2,0.4,0.6,,,,,,,,,,,,,,,0.336,,0.8,0.2,0.4,0.6,0.4,0.6,0.2,0.8,1,0,,,,,,,,,,,,
,,5e248b6f0c0b31718a9d3f31,66fc98f8211d9ba1f3465eeb,2024-10-02_02h52.31.027,mdp,2024.2.1,Win32,143.6781609,66fa4ebf79326e780c390304,,,,,,,,,,,,,,,,,,,,,561.989,561.989,561.99,562.872,0,0,left,0.378,,562.873,563.873,0,0,left,563.875,563.875,,0,,1,563.875,563.875,563.875,565.375,0,49,49,49,1,0.8,0.2,0.4,0.6,,,,,,,,,,,,,,,0.497,,0.8,0.2,0.4,0.6,0.4,0.6,0.2,0.8,1,0,,,,,,,,,,,,
,,5e248b6f0c0b31718a9d3f31,66fc98f8211d9ba1f3465eeb,2024-10-02_02h52.31.027,mdp,2024.2.1,Win32,143.6781609,66fa4ebf79326e780c390304,,,,,,,,,,,,,,,,,,,,,,,,,,,,,,,,,,,,,,,,,,,,,,,,,,,,,,,,565.375,623.879,0,1,1,6,1,imgs/goat.png,imgs/bear.png,imgs/pig.png,imgs/dog.png,imgs/cat.png,,,,,,,,,,,,,,,,,,,,,,,,
,,5e248b6f0c0b31718a9d3f31,66fc98f8211d9ba1f3465eeb,2024-10-02_02h52.31.027,mdp,2024.2.1,Win32,143.6781609,66fa4ebf79326e780c390304,,,,,,,,,,,,,,3,seqs/st3seq15.csv,623.882,624.894,space,0.501,,624.899,624.899,624.899,626.466,0,1,left,1.056,,626.467,627.572,0,1,left,627.573,628.469,0,0,left,1,628.469,628.469,628.47,629.964,0,0,0,0,1,0.2,0.8,0.6,0.4,,,,,,,,,,,,,,,0.599,,0.2,0.8,0.8,0.2,0.2,0.8,0.8,0.2,,,0.386,,0.8,0.2,0.2,0.8,0.8,0.2,0.2,0.8,1,0
,,5e248b6f0c0b31718a9d3f31,66fc98f8211d9ba1f3465eeb,2024-10-02_02h52.31.027,mdp,2024.2.1,Win32,143.6781609,66fa4ebf79326e780c390304,,,,,,,,,,,,,,,,,,,,,629.965,629.965,629.966,630.84,0,1,left,0.365,,630.841,631.807,0,1,left,631.808,632.62,0,0,left,1,632.62,632.62,632.621,634.116,0,1,1,1,1,0.2,0.8,0.6,0.4,,,,,,,,,,,,,,,0.462,,0.2,0.8,0.8,0.2,0.2,0.8,0.8,0.2,,,0.309,,0.8,0.2,0.2,0.8,0.8,0.2,0.2,0.8,1,0
,,5e248b6f0c0b31718a9d3f31,66fc98f8211d9ba1f3465eeb,2024-10-02_02h52.31.027,mdp,2024.2.1,Win32,143.6781609,66fa4ebf79326e780c390304,,,,,,,,,,,,,,,,,,,,,634.116,634.116,634.117,634.93,0,1,left,0.306,,634.931,635.848,0,1,left,635.849,636.662,0,0,left,1,636.662,636.662,636.663,638.157,0,2,2,2,1,0.2,0.8,0.6,0.4,,,,,,,,,,,,,,,0.41,,0.2,0.8,0.8,0.2,0.2,0.8,0.8,0.2,,,0.308,,0.8,0.2,0.2,0.8,0.8,0.2,0.2,0.8,1,0
,,5e248b6f0c0b31718a9d3f31,66fc98f8211d9ba1f3465eeb,2024-10-02_02h52.31.027,mdp,2024.2.1,Win32,143.6781609,66fa4ebf79326e780c390304,,,,,,,,,,,,,,,,,,,,,638.157,638.157,638.158,639.005,0,1,left,0.342,,639.006,639.847,0,0,left,639.848,640.702,0,0,left,1,640.702,640.702,640.703,642.197,0,3,3,3,1,0.2,0.8,0.6,0.4,,,,,,,,,,,,,,,0.335,,0.2,0.8,0.8,0.2,0.8,0.2,0.6,0.4,,,0.343,,0.8,0.2,0.2,0.8,0.8,0.2,0.2,0.8,1,0
,,5e248b6f0c0b31718a9d3f31,66fc98f8211d9ba1f3465eeb,2024-10-02_02h52.31.027,mdp,2024.2.1,Win32,143.6781609,66fa4ebf79326e780c390304,,,,,,,,,,,,,,,,,,,,,642.198,642.198,642.2,642.997,0,0,left,0.292,,642.998,643.825,0,1,left,643.825,644.652,0,0,left,1,644.652,644.652,644.653,646.148,0,4,4,4,1,0.2,0.8,0.6,0.4,,,,,,,,,,,,,,,0.318,,0.2,0.8,0.8,0.2,0.8,0.2,0.6,0.4,,,0.318,,0.8,0.2,0.2,0.8,0.8,0.2,0.2,0.8,1,0
,,5e248b6f0c0b31718a9d3f31,66fc98f8211d9ba1f3465eeb,2024-10-02_02h52.31.027,mdp,2024.2.1,Win32,143.6781609,66fa4ebf79326e780c390304,,,,,,,,,,,,,,,,,,,,,646.148,646.148,646.149,646.968,0,1,left,0.313,,646.97,647.77,0,0,left,647.77,648.568,0,0,left,1,648.568,648.568,648.568,650.063,0,5,5,5,1,0.2,0.8,0.6,0.4,,,,,,,,,,,,,,,0.293,,0.2,0.8,0.8,0.2,0.8,0.2,0.6,0.4,,,0.286,,0.8,0.2,0.2,0.8,0.2,0.8,0.8,0.2,1,0
,,5e248b6f0c0b31718a9d3f31,66fc98f8211d9ba1f3465eeb,2024-10-02_02h52.31.027,mdp,2024.2.1,Win32,143.6781609,66fa4ebf79326e780c390304,,,,,,,,,,,,,,,,,,,,,650.063,650.063,650.064,650.87,0,0,left,0.3,,650.871,651.788,0,1,left,651.788,652.574,0,0,left,1,652.574,652.574,652.574,654.069,0,6,6,6,1,0.8,0.2,0.2,0.8,,,,,,,,,,,,,,,0.412,,0.2,0.8,0.8,0.2,0.8,0.2,0.6,0.4,,,0.279,,0.8,0.2,0.2,0.8,0.2,0.8,0.8,0.2,1,0
,,5e248b6f0c0b31718a9d3f31,66fc98f8211d9ba1f3465eeb,2024-10-02_02h52.31.027,mdp,2024.2.1,Win32,143.6781609,66fa4ebf79326e780c390304,,,,,,,,,,,,,,,,,,,,,654.069,654.069,654.07,654.981,0,1,left,0.406,,654.981,655.822,0,1,left,655.822,656.615,0,1,left,0,656.615,656.615,656.615,658.117,0,7,7,7,1,0.8,0.2,0.2,0.8,,,,,,,,,,,,,,,0.334,,0.2,0.8,0.8,0.2,0.8,0.2,0.6,0.4,,,0.288,,0.8,0.2,0.2,0.8,0.2,0.8,0.8,0.2,1,0
,,5e248b6f0c0b31718a9d3f31,66fc98f8211d9ba1f3465eeb,2024-10-02_02h52.31.027,mdp,2024.2.1,Win32,143.6781609,66fa4ebf79326e780c390304,,,,,,,,,,,,,,,,,,,,,658.119,658.119,658.121,658.958,0,0,left,0.327,,658.959,659.724,0,1,left,659.725,660.503,0,1,left,0,660.503,660.503,660.504,661.998,0,8,8,8,1,0.4,0.6,0.6,0.4,,,,,,,,,,,,,,,0.258,,0.2,0.8,0.8,0.2,0.8,0.2,0.6,0.4,,,0.272,,0.8,0.2,0.2,0.8,0.2,0.8,0.8,0.2,1,0
,,5e248b6f0c0b31718a9d3f31,66fc98f8211d9ba1f3465eeb,2024-10-02_02h52.31.027,mdp,2024.2.1,Win32,143.6781609,66fa4ebf79326e780c390304,,,,,,,,,,,,,,,,,,,,,661.998,661.998,661.999,662.86,0,1,left,0.358,,662.861,663.611,0,0,left,663.612,664.418,0,1,left,0,664.418,664.418,664.419,665.913,0,9,9,9,1,0.4,0.6,0.6,0.4,,,,,,,,,,,,,,,0.244,,0.2,0.8,0.8,0.2,0.8,0.2,0.6,0.4,,,0.302,,0.8,0.2,0.2,0.8,0.2,0.8,0.8,0.2,1,0
,,5e248b6f0c0b31718a9d3f31,66fc98f8211d9ba1f3465eeb,2024-10-02_02h52.31.027,mdp,2024.2.1,Win32,143.6781609,66fa4ebf79326e780c390304,,,,,,,,,,,,,,,,,,,,,665.913,665.913,665.914,666.761,0,1,left,0.341,,666.762,667.561,0,0,left,667.562,668.299,0,1,left,0,668.299,668.299,668.299,669.794,0,10,10,10,1,0.4,0.6,0.6,0.4,,,,,,,,,,,,,,,0.296,,0.2,0.8,0.8,0.2,0.8,0.2,0.6,0.4,,,0.233,,0.8,0.2,0.2,0.8,0.2,0.8,0.8,0.2,1,0
,,5e248b6f0c0b31718a9d3f31,66fc98f8211d9ba1f3465eeb,2024-10-02_02h52.31.027,mdp,2024.2.1,Win32,143.6781609,66fa4ebf79326e780c390304,,,,,,,,,,,,,,,,,,,,,669.794,669.794,669.795,670.594,0,1,left,0.294,,670.595,671.358,0,0,left,671.359,672.103,0,0,left,1,672.103,672.103,672.103,673.598,0,11,11,11,1,0.4,0.6,0.6,0.4,,,,,,,,,,,,,,,0.257,,0.2,0.8,0.8,0.2,0.8,0.2,0.6,0.4,,,0.24,,0.8,0.2,0.2,0.8,0.2,0.8,0.8,0.2,1,0
,,5e248b6f0c0b31718a9d3f31,66fc98f8211d9ba1f3465eeb,2024-10-02_02h52.31.027,mdp,2024.2.1,Win32,143.6781609,66fa4ebf79326e780c390304,,,,,,,,,,,,,,,,,,,,,673.598,673.598,673.599,674.419,0,1,left,0.313,,674.42,675.135,0,0,left,675.135,675.845,0,0,left,1,675.845,675.845,675.845,677.34,0,12,12,12,1,0.4,0.6,0.6,0.4,,,,,,,,,,,,,,,0.209,,0.2,0.8,0.8,0.2,0.8,0.2,0.6,0.4,,,0.201,,0.8,0.2,0.2,0.8,0.2,0.8,0.8,0.2,1,0
,,5e248b6f0c0b31718a9d3f31,66fc98f8211d9ba1f3465eeb,2024-10-02_02h52.31.027,mdp,2024.2.1,Win32,143.6781609,66fa4ebf79326e780c390304,,,,,,,,,,,,,,,,,,,,,677.34,677.34,677.341,678.125,0,1,left,0.278,,678.126,678.758,0,1,left,678.759,679.51,0,1,left,0,679.51,679.51,679.51,681.005,0,13,13,13,1,0.4,0.6,0.6,0.4,,,,,,,,,,,,,,,0.127,,0.2,0.8,0.8,0.2,0.8,0.2,0.6,0.4,,,0.244,,0.8,0.2,0.2,0.8,0.2,0.8,0.8,0.2,1,0
,,5e248b6f0c0b31718a9d3f31,66fc98f8211d9ba1f3465eeb,2024-10-02_02h52.31.027,mdp,2024.2.1,Win32,143.6781609,66fa4ebf79326e780c390304,,,,,,,,,,,,,,,,,,,,,681.005,681.005,681.005,681.846,0,1,left,0.336,,681.847,682.723,0,0,left,682.723,683.473,0,0,left,1,683.473,683.473,683.474,684.969,0,14,14,14,1,0.4,0.6,0.6,0.4,,,,,,,,,,,,,,,0.372,,0.2,0.8,0.8,0.2,0.8,0.2,0.6,0.4,,,0.245,,0.8,0.2,0.2,0.8,0.2,0.8,0.8,0.2,1,0
,,5e248b6f0c0b31718a9d3f31,66fc98f8211d9ba1f3465eeb,2024-10-02_02h52.31.027,mdp,2024.2.1,Win32,143.6781609,66fa4ebf79326e780c390304,,,,,,,,,,,,,,,,,,,,,684.969,684.969,684.97,685.727,0,0,left,0.252,,685.729,686.345,0,1,left,686.347,687.132,0,1,left,0,687.132,687.132,687.133,688.627,0,15,15,15,1,0.4,0.6,0.6,0.4,,,,,,,,,,,,,,,0.112,,0.2,0.8,0.8,0.2,0.6,0.4,0.4,0.6,,,0.279,,0.8,0.2,0.2,0.8,0.2,0.8,0.8,0.2,1,0
,,5e248b6f0c0b31718a9d3f31,66fc98f8211d9ba1f3465eeb,2024-10-02_02h52.31.027,mdp,2024.2.1,Win32,143.6781609,66fa4ebf79326e780c390304,,,,,,,,,,,,,,,,,,,,,688.627,688.627,688.628,689.608,0,0,left,0.473,,689.609,690.311,0,1,left,690.311,691.194,0,1,left,0,691.194,691.194,691.196,692.695,0,16,16,16,1,0.4,0.6,0.6,0.4,,,,,,,,,,,,,,,0.198,,0.2,0.8,0.8,0.2,0.6,0.4,0.4,0.6,,,0.377,,0.8,0.2,0.2,0.8,0.2,0.8,0.8,0.2,1,0
,,5e248b6f0c0b31718a9d3f31,66fc98f8211d9ba1f3465eeb,2024-10-02_02h52.31.027,mdp,2024.2.1,Win32,143.6781609,66fa4ebf79326e780c390304,,,,,,,,,,,,,,,,,,,,,692.696,692.696,692.698,694.281,1,0,right,1.078,,694.282,695.018,1,0,right,695.02,695.742,1,0,right,1,695.742,695.742,695.743,697.244,0,17,17,17,1,0.4,0.6,0.6,0.4,,,,,,,,,,,,,,,0.23,,0.2,0.8,0.8,0.2,0.6,0.4,0.4,0.6,,,0.215,,0.8,0.2,0.2,0.8,0.2,0.8,0.8,0.2,1,0
,,5e248b6f0c0b31718a9d3f31,66fc98f8211d9ba1f3465eeb,2024-10-02_02h52.31.027,mdp,2024.2.1,Win32,143.6781609,66fa4ebf79326e780c390304,,,,,,,,,,,,,,,,,,,,,697.244,697.244,697.245,698.009,1,0,right,0.26,,698.009,698.753,1,1,right,698.754,699.498,1,0,right,1,699.498,699.498,699.499,701,0,18,18,18,1,0.4,0.6,0.6,0.4,,,,,,,,,,,,,,,0.239,,0.2,0.8,0.8,0.2,0.6,0.4,0.4,0.6,,,0.237,,0.8,0.2,0.2,0.8,0.2,0.8,0.8,0.2,1,0
,,5e248b6f0c0b31718a9d3f31,66fc98f8211d9ba1f3465eeb,2024-10-02_02h52.31.027,mdp,2024.2.1,Win32,143.6781609,66fa4ebf79326e780c390304,,,,,,,,,,,,,,,,,,,,,701,701,701.001,702.426,1,0,right,0.92,,702.427,703.204,1,1,right,703.205,703.914,1,0,right,1,703.914,703.914,703.915,705.416,0,19,19,19,1,0.4,0.6,0.6,0.4,,,,,,,,,,,,,,,0.273,,0.2,0.8,0.8,0.2,0.6,0.4,0.4,0.6,,,0.201,,0.8,0.2,0.2,0.8,0.2,0.8,0.8,0.2,1,0
,,5e248b6f0c0b31718a9d3f31,66fc98f8211d9ba1f3465eeb,2024-10-02_02h52.31.027,mdp,2024.2.1,Win32,143.6781609,66fa4ebf79326e780c390304,,,,,,,,,,,,,,,,,,,,,705.417,705.417,705.417,706.34,1,0,right,0.414,,706.341,707.043,1,0,right,707.044,707.746,1,1,right,0,707.746,707.746,707.747,709.241,0,20,20,20,1,0.4,0.6,0.6,0.4,,,,,,,,,,,,,,,0.195,,0.8,0.2,0.2,0.8,0.6,0.4,0.4,0.6,,,0.194,,0.8,0.2,0.2,0.8,0.2,0.8,0.8,0.2,1,0
,,5e248b6f0c0b31718a9d3f31,66fc98f8211d9ba1f3465eeb,2024-10-02_02h52.31.027,mdp,2024.2.1,Win32,143.6781609,66fa4ebf79326e780c390304,,,,,,,,,,,,,,,,,,,,,709.241,709.241,709.242,709.999,1,0,right,0.251,,710,711.181,1,0,right,711.182,711.981,1,1,right,0,711.981,711.981,711.982,713.476,0,21,21,21,1,0.4,0.6,0.6,0.4,,,,,,,,,,,,,,,0.675,,0.8,0.2,0.2,0.8,0.6,0.4,0.4,0.6,,,0.291,,0.8,0.2,0.2,0.8,0.2,0.8,0.8,0.2,1,0
,,5e248b6f0c0b31718a9d3f31,66fc98f8211d9ba1f3465eeb,2024-10-02_02h52.31.027,mdp,2024.2.1,Win32,143.6781609,66fa4ebf79326e780c390304,,,,,,,,,,,,,,,,,,,,,713.476,713.476,713.477,714.387,1,1,right,0.408,,714.388,715.312,0,1,left,715.313,716.022,1,1,right,0,716.022,716.022,716.023,717.517,0,22,22,22,1,0.4,0.6,0.6,0.4,,,,,,,,,,,,,,,0.418,,0.8,0.2,0.2,0.8,0.6,0.4,0.4,0.6,,,0.202,,0.8,0.2,0.2,0.8,0.2,0.8,0.8,0.2,1,0
,,5e248b6f0c0b31718a9d3f31,66fc98f8211d9ba1f3465eeb,2024-10-02_02h52.31.027,mdp,2024.2.1,Win32,143.6781609,66fa4ebf79326e780c390304,,,,,,,,,,,,,,,,,,,,,717.517,717.517,717.52,718.087,1,0,right,0.063,,718.088,718.825,1,1,right,718.826,719.596,1,0,right,1,719.596,719.596,719.597,721.092,0,23,23,23,1,0.4,0.6,0.6,0.4,,,,,,,,,,,,,,,0.231,,0.8,0.2,0.2,0.8,0.6,0.4,0.4,0.6,,,0.264,,0.8,0.2,0.2,0.8,0.2,0.8,0.8,0.2,1,0
,,5e248b6f0c0b31718a9d3f31,66fc98f8211d9ba1f3465eeb,2024-10-02_02h52.31.027,mdp,2024.2.1,Win32,143.6781609,66fa4ebf79326e780c390304,,,,,,,,,,,,,,,,,,,,,721.092,721.092,721.093,721.85,1,1,right,0.251,,721.851,722.594,1,0,right,722.595,723.317,1,1,right,0,723.317,723.317,723.318,724.813,0,24,24,24,1,0.4,0.6,0.6,0.4,,,,,,,,,,,,,,,0.238,,0.8,0.2,0.2,0.8,0.6,0.4,0.4,0.6,,,0.218,,0.8,0.2,0.2,0.8,0.2,0.8,0.8,0.2,1,0
,,5e248b6f0c0b31718a9d3f31,66fc98f8211d9ba1f3465eeb,2024-10-02_02h52.31.027,mdp,2024.2.1,Win32,143.6781609,66fa4ebf79326e780c390304,,,,,,,,,,,,,,,,,,,,,724.815,724.815,724.816,725.508,1,0,right,0.183,,725.509,726.169,1,1,right,726.17,726.899,1,1,right,0,726.899,726.899,726.9,728.394,0,25,25,25,1,0.4,0.6,0.6,0.4,,,,,,,,,,,,,,,0.152,,0.8,0.2,0.2,0.8,0.6,0.4,0.4,0.6,,,0.221,,0.4,0.6,0.8,0.2,0.2,0.8,0.8,0.2,1,0
,,5e248b6f0c0b31718a9d3f31,66fc98f8211d9ba1f3465eeb,2024-10-02_02h52.31.027,mdp,2024.2.1,Win32,143.6781609,66fa4ebf79326e780c390304,,,,,,,,,,,,,,,,,,,,,728.395,728.395,728.395,729.194,0,0,left,0.295,,729.195,729.973,0,0,left,729.974,730.696,0,1,left,0,730.696,730.696,730.697,732.191,0,26,26,26,1,0.4,0.6,0.6,0.4,,,,,,,,,,,,,,,0.272,,0.8,0.2,0.2,0.8,0.6,0.4,0.4,0.6,,,0.215,,0.4,0.6,0.8,0.2,0.2,0.8,0.8,0.2,1,0
,,5e248b6f0c0b31718a9d3f31,66fc98f8211d9ba1f3465eeb,2024-10-02_02h52.31.027,mdp,2024.2.1,Win32,143.6781609,66fa4ebf79326e780c390304,,,,,,,,,,,,,,,,,,,,,732.192,732.192,732.193,732.713,0,1,left,0.014,,732.714,733.408,0,1,left,733.41,734.173,0,1,left,0,734.173,734.173,734.175,735.669,0,27,27,27,1,0.4,0.6,0.6,0.4,,,,,,,,,,,,,,,0.189,,0.8,0.2,0.2,0.8,0.6,0.4,0.4,0.6,,,0.26,,0.4,0.6,0.8,0.2,0.2,0.8,0.8,0.2,1,0
,,5e248b6f0c0b31718a9d3f31,66fc98f8211d9ba1f3465eeb,2024-10-02_02h52.31.027,mdp,2024.2.1,Win32,143.6781609,66fa4ebf79326e780c390304,,,,,,,,,,,,,,,,,,,,,735.669,735.669,735.67,736.33,0,1,left,0.153,,736.33,737.296,0,0,left,737.297,738.096,0,1,left,0,738.096,738.096,738.097,739.591,0,28,28,28,1,0.4,0.6,0.6,0.4,,,,,,,,,,,,,,,0.461,,0.8,0.2,0.2,0.8,0.6,0.4,0.4,0.6,,,0.293,,0.4,0.6,0.8,0.2,0.2,0.8,0.8,0.2,1,0
,,5e248b6f0c0b31718a9d3f31,66fc98f8211d9ba1f3465eeb,2024-10-02_02h52.31.027,mdp,2024.2.1,Win32,143.6781609,66fa4ebf79326e780c390304,,,,,,,,,,,,,,,,,,,,,739.591,739.591,739.592,740.683,0,0,left,0.584,,740.684,741.434,1,1,right,741.435,742.102,0,1,left,0,742.102,742.102,742.102,743.597,0,29,29,29,1,0.4,0.6,0.6,0.4,,,,,,,,,,,,,,,0.244,,0.8,0.2,0.2,0.8,0.6,0.4,0.4,0.6,,,0.159,,0.4,0.6,0.8,0.2,0.2,0.8,0.8,0.2,1,0
,,5e248b6f0c0b31718a9d3f31,66fc98f8211d9ba1f3465eeb,2024-10-02_02h52.31.027,mdp,2024.2.1,Win32,143.6781609,66fa4ebf79326e780c390304,,,,,,,,,,,,,,,,,,,,,743.597,743.597,743.598,744.439,0,1,left,0.337,,744.44,745.037,0,1,left,745.038,745.725,1,0,right,1,745.725,745.725,745.726,747.221,0,30,30,30,1,0.4,0.6,0.6,0.4,,,,,,,,,,,,,,,0.091,,0.8,0.2,0.2,0.8,0.6,0.4,0.4,0.6,,,0.18,,0.4,0.6,0.8,0.2,0.2,0.8,0.8,0.2,1,0
,,5e248b6f0c0b31718a9d3f31,66fc98f8211d9ba1f3465eeb,2024-10-02_02h52.31.027,mdp,2024.2.1,Win32,143.6781609,66fa4ebf79326e780c390304,,,,,,,,,,,,,,,,,,,,,747.221,747.221,747.221,748.048,0,1,left,0.32,,748.049,748.932,0,1,left,748.932,749.661,1,0,right,1,749.661,749.661,749.663,751.157,0,31,31,31,1,0.4,0.6,0.6,0.4,,,,,,,,,,,,,,,0.375,,0.8,0.2,0.2,0.8,0.2,0.8,0.8,0.2,,,0.227,,0.4,0.6,0.8,0.2,0.2,0.8,0.8,0.2,1,0
,,5e248b6f0c0b31718a9d3f31,66fc98f8211d9ba1f3465eeb,2024-10-02_02h52.31.027,mdp,2024.2.1,Win32,143.6781609,66fa4ebf79326e780c390304,,,,,,,,,,,,,,,,,,,,,751.158,751.158,751.159,752.033,0,1,left,0.364,,752.033,752.784,0,1,left,752.785,753.514,1,0,right,1,753.514,753.514,753.515,755.01,0,32,32,32,1,0.4,0.6,0.6,0.4,,,,,,,,,,,,,,,0.247,,0.8,0.2,0.2,0.8,0.2,0.8,0.8,0.2,,,0.223,,0.4,0.6,0.8,0.2,0.2,0.8,0.8,0.2,1,0
,,5e248b6f0c0b31718a9d3f31,66fc98f8211d9ba1f3465eeb,2024-10-02_02h52.31.027,mdp,2024.2.1,Win32,143.6781609,66fa4ebf79326e780c390304,,,,,,,,,,,,,,,,,,,,,755.011,755.011,755.011,755.816,0,1,left,0.303,,755.817,756.539,0,1,left,756.54,757.263,1,0,right,1,757.263,757.263,757.264,758.759,0,33,33,33,1,0.4,0.6,0.6,0.4,,,,,,,,,,,,,,,0.218,,0.8,0.2,0.2,0.8,0.2,0.8,0.8,0.2,,,0.216,,0.4,0.6,0.8,0.2,0.2,0.8,0.8,0.2,1,0
,,5e248b6f0c0b31718a9d3f31,66fc98f8211d9ba1f3465eeb,2024-10-02_02h52.31.027,mdp,2024.2.1,Win32,143.6781609,66fa4ebf79326e780c390304,,,,,,,,,,,,,,,,,,,,,758.76,758.76,758.761,759.656,0,1,left,0.385,,759.656,760.393,0,1,left,760.394,761.068,1,0,right,1,761.068,761.068,761.069,762.57,0,34,34,34,1,0.4,0.6,0.6,0.4,,,,,,,,,,,,,,,0.232,,0.8,0.2,0.2,0.8,0.2,0.8,0.8,0.2,,,0.17,,0.4,0.6,0.8,0.2,0.2,0.8,0.8,0.2,1,0
,,5e248b6f0c0b31718a9d3f31,66fc98f8211d9ba1f3465eeb,2024-10-02_02h52.31.027,mdp,2024.2.1,Win32,143.6781609,66fa4ebf79326e780c390304,,,,,,,,,,,,,,,,,,,,,762.57,762.57,762.571,763.425,0,0,left,0.352,,763.426,764.142,0,0,left,764.143,764.893,1,1,right,0,764.893,764.893,764.894,766.388,0,35,35,35,1,0.4,0.6,0.6,0.4,,,,,,,,,,,,,,,0.209,,0.8,0.2,0.2,0.8,0.2,0.8,0.8,0.2,,,0.248,,0.4,0.6,0.8,0.2,0.2,0.8,0.8,0.2,1,0
,,5e248b6f0c0b31718a9d3f31,66fc98f8211d9ba1f3465eeb,2024-10-02_02h52.31.027,mdp,2024.2.1,Win32,143.6781609,66fa4ebf79326e780c390304,,,,,,,,,,,,,,,,,,,,,766.389,766.389,766.39,767.25,0,0,left,0.358,,767.252,767.925,0,0,left,767.926,768.655,1,0,right,1,768.655,768.655,768.656,770.15,0,36,36,36,1,0.4,0.6,0.6,0.4,,,,,,,,,,,,,,,0.166,,0.8,0.2,0.2,0.8,0.2,0.8,0.8,0.2,,,0.227,,0.4,0.6,0.8,0.2,0.2,0.8,0.8,0.2,1,0
,,5e248b6f0c0b31718a9d3f31,66fc98f8211d9ba1f3465eeb,2024-10-02_02h52.31.027,mdp,2024.2.1,Win32,143.6781609,66fa4ebf79326e780c390304,,,,,,,,,,,,,,,,,,,,,770.15,770.15,770.151,770.943,0,0,left,0.286,,770.944,771.562,0,0,left,771.563,772.272,1,0,right,1,772.272,772.272,772.272,773.774,0,37,37,37,1,0.4,0.6,0.6,0.4,,,,,,,,,,,,,,,0.111,,0.8,0.2,0.2,0.8,0.2,0.8,0.8,0.2,,,0.201,,0.4,0.6,0.8,0.2,0.2,0.8,0.8,0.2,1,0
,,5e248b6f0c0b31718a9d3f31,66fc98f8211d9ba1f3465eeb,2024-10-02_02h52.31.027,mdp,2024.2.1,Win32,143.6781609,66fa4ebf79326e780c390304,,,,,,,,,,,,,,,,,,,,,773.774,773.774,773.774,774.552,0,0,left,0.272,,774.553,775.137,0,0,left,775.138,775.798,1,0,right,1,775.798,775.798,775.798,777.293,0,38,38,38,1,0.4,0.6,0.6,0.4,,,,,,,,,,,,,,,0.077,,0.8,0.2,0.2,0.8,0.2,0.8,0.8,0.2,,,0.156,,0.4,0.6,0.8,0.2,0.2,0.8,0.8,0.2,1,0
,,5e248b6f0c0b31718a9d3f31,66fc98f8211d9ba1f3465eeb,2024-10-02_02h52.31.027,mdp,2024.2.1,Win32,143.6781609,66fa4ebf79326e780c390304,,,,,,,,,,,,,,,,,,,,,777.293,777.293,777.294,778.065,0,1,left,0.265,,778.066,778.906,0,1,left,778.907,779.915,1,0,right,1,779.915,779.915,779.915,781.41,0,39,39,39,1,0.4,0.6,0.6,0.4,,,,,,,,,,,,,,,0.335,,0.8,0.2,0.2,0.8,0.2,0.8,0.8,0.2,,,0.503,,0.4,0.6,0.8,0.2,0.2,0.8,0.8,0.2,1,0
,,5e248b6f0c0b31718a9d3f31,66fc98f8211d9ba1f3465eeb,2024-10-02_02h52.31.027,mdp,2024.2.1,Win32,143.6781609,66fa4ebf79326e780c390304,,,,,,,,,,,,,,,,,,,,,781.41,781.41,781.411,782.231,0,1,left,0.317,,782.232,782.996,0,1,left,782.996,783.781,1,0,right,1,783.781,783.781,783.782,785.276,0,40,40,40,1,0.4,0.6,0.6,0.4,,,,,,,,,,,,,,,0.257,,0.8,0.2,0.2,0.8,0.2,0.8,0.8,0.2,,,0.282,,0.4,0.6,0.8,0.2,0.2,0.8,0.8,0.2,1,0
,,5e248b6f0c0b31718a9d3f31,66fc98f8211d9ba1f3465eeb,2024-10-02_02h52.31.027,mdp,2024.2.1,Win32,143.6781609,66fa4ebf79326e780c390304,,,,,,,,,,,,,,,,,,,,,785.277,785.277,785.278,786.07,0,1,left,0.285,,786.071,786.779,0,1,left,786.779,787.509,1,1,right,0,787.509,787.509,787.51,789.005,0,41,41,41,1,0.4,0.6,0.6,0.4,,,,,,,,,,,,,,,0.201,,0.8,0.2,0.2,0.8,0.2,0.8,0.8,0.2,,,0.227,,0.4,0.6,0.8,0.2,0.2,0.8,0.8,0.2,1,0
,,5e248b6f0c0b31718a9d3f31,66fc98f8211d9ba1f3465eeb,2024-10-02_02h52.31.027,mdp,2024.2.1,Win32,143.6781609,66fa4ebf79326e780c390304,,,,,,,,,,,,,,,,,,,,,789.005,789.005,789.006,789.833,0,1,left,0.321,,789.833,790.527,0,1,left,790.528,791.237,1,1,right,0,791.237,791.237,791.238,792.733,0,42,42,42,1,0.4,0.6,0.6,0.4,,,,,,,,,,,,,,,0.191,,0.8,0.2,0.2,0.8,0.2,0.8,0.8,0.2,,,0.203,,0.4,0.6,0.8,0.2,0.4,0.6,0.2,0.8,1,0
,,5e248b6f0c0b31718a9d3f31,66fc98f8211d9ba1f3465eeb,2024-10-02_02h52.31.027,mdp,2024.2.1,Win32,143.6781609,66fa4ebf79326e780c390304,,,,,,,,,,,,,,,,,,,,,792.734,792.734,792.735,793.532,0,0,left,0.285,,793.533,794.45,0,1,left,794.451,795.202,1,1,right,0,795.202,795.202,795.203,796.704,0,43,43,43,1,0.4,0.6,0.6,0.4,,,,,,,,,,,,,,,0.41,,0.8,0.2,0.2,0.8,0.2,0.8,0.8,0.2,,,0.244,,0.4,0.6,0.8,0.2,0.4,0.6,0.2,0.8,1,0
,,5e248b6f0c0b31718a9d3f31,66fc98f8211d9ba1f3465eeb,2024-10-02_02h52.31.027,mdp,2024.2.1,Win32,143.6781609,66fa4ebf79326e780c390304,,,,,,,,,,,,,,,,,,,,,796.704,796.704,796.705,797.573,0,0,left,0.361,,797.574,798.15,0,0,left,798.151,798.922,0,1,left,0,798.922,798.922,798.923,800.417,0,44,44,44,1,0.4,0.6,0.6,0.4,,,,,,,,,,,,,,,0.073,,0.8,0.2,0.2,0.8,0.2,0.8,0.8,0.2,,,0.267,,0.4,0.6,0.8,0.2,0.4,0.6,0.2,0.8,1,0
,,5e248b6f0c0b31718a9d3f31,66fc98f8211d9ba1f3465eeb,2024-10-02_02h52.31.027,mdp,2024.2.1,Win32,143.6781609,66fa4ebf79326e780c390304,,,,,,,,,,,,,,,,,,,,,800.418,800.418,800.419,801.217,0,0,left,0.285,,801.218,802.247,0,0,left,802.248,803.012,1,0,right,1,803.012,803.012,803.012,804.514,0,45,45,45,1,0.4,0.6,0.6,0.4,,,,,,,,,,,,,,,0.521,,0.8,0.2,0.2,0.8,0.2,0.8,0.8,0.2,,,0.246,,0.4,0.6,0.8,0.2,0.4,0.6,0.2,0.8,1,0
,,5e248b6f0c0b31718a9d3f31,66fc98f8211d9ba1f3465eeb,2024-10-02_02h52.31.027,mdp,2024.2.1,Win32,143.6781609,66fa4ebf79326e780c390304,,,,,,,,,,,,,,,,,,,,,804.514,804.514,804.515,805.438,0,1,left,0.42,,805.439,806.419,0,1,left,806.42,808.422,1,1,right,0,808.422,808.422,808.423,809.917,0,46,46,46,1,0.4,0.6,0.6,0.4,,,,,,,,,,,,,,,0.474,,0.8,0.2,0.2,0.8,0.2,0.8,0.8,0.2,,,1.494,,0.4,0.6,0.8,0.2,0.4,0.6,0.2,0.8,1,0
,,5e248b6f0c0b31718a9d3f31,66fc98f8211d9ba1f3465eeb,2024-10-02_02h52.31.027,mdp,2024.2.1,Win32,143.6781609,66fa4ebf79326e780c390304,,,,,,,,,,,,,,,,,,,,,809.917,809.918,809.918,810.717,1,0,right,0.291,,810.719,811.448,1,1,right,811.448,812.157,0,0,left,1,812.157,812.157,812.157,813.652,0,47,47,47,1,0.4,0.6,0.6,0.4,,,,,,,,,,,,,,,0.224,,0.8,0.2,0.2,0.8,0.2,0.8,0.8,0.2,,,0.202,,0.4,0.6,0.8,0.2,0.4,0.6,0.2,0.8,1,0
,,5e248b6f0c0b31718a9d3f31,66fc98f8211d9ba1f3465eeb,2024-10-02_02h52.31.027,mdp,2024.2.1,Win32,143.6781609,66fa4ebf79326e780c390304,,,,,,,,,,,,,,,,,,,,,813.652,813.652,813.653,814.445,1,1,right,0.285,,814.445,815.14,1,0,right,815.141,815.843,0,1,left,0,815.843,815.843,815.844,817.338,0,48,48,48,1,0.4,0.6,0.6,0.4,,,,,,,,,,,,,,,0.187,,0.8,0.2,0.2,0.8,0.2,0.8,0.8,0.2,,,0.194,,0.4,0.6,0.8,0.2,0.8,0.2,0.6,0.4,1,0
,,5e248b6f0c0b31718a9d3f31,66fc98f8211d9ba1f3465eeb,2024-10-02_02h52.31.027,mdp,2024.2.1,Win32,143.6781609,66fa4ebf79326e780c390304,,,,,,,,,,,,,,,,,,,,,817.338,817.338,817.339,818.186,0,0,left,0.345,,818.187,818.826,0,0,left,818.827,819.55,1,0,right,1,819.55,819.55,819.55,821.045,0,49,49,49,1,0.4,0.6,0.6,0.4,,,,,,,,,,,,,,,0.132,,0.8,0.2,0.2,0.8,0.2,0.8,0.8,0.2,,,0.216,,0.4,0.6,0.8,0.2,0.8,0.2,0.6,0.4,1,0
,,5e248b6f0c0b31718a9d3f31,66fc98f8211d9ba1f3465eeb,2024-10-02_02h52.31.027,mdp,2024.2.1,Win32,143.6781609,66fa4ebf79326e780c390304,,,,,,,,,,,,,,,,,,,,,,,,,,,,,,,,,,,,,,,,,,,,,,,,,,,,,,,,821.045,874.583,0,2,2,7,1,imgs/elephant.png,imgs/giraffe.png,imgs/bear.png,imgs/kangaroo.png,imgs/goat.png,,,,,,,,,,,,,,,,,,,,,,,,
,,5e248b6f0c0b31718a9d3f31,66fc98f8211d9ba1f3465eeb,2024-10-02_02h52.31.027,mdp,2024.2.1,Win32,143.6781609,66fa4ebf79326e780c390304,,,,,,,,,,,,,,3,seqs/st3seq46.csv,874.583,877.986,space,2.896,,877.99,877.99,877.991,880.355,0,0,left,1.853,,880.356,881.161,0,0,left,881.162,881.948,0,0,left,1,881.948,881.948,881.949,883.443,0,0,0,0,1,0.4,0.6,0.6,0.4,,,,,,,,,,,,,,,0.296,,0.8,0.2,0.6,0.4,0.8,0.2,0.2,0.8,,,0.277,,0.6,0.4,0.4,0.6,0.8,0.2,0.6,0.4,1,0
,,5e248b6f0c0b31718a9d3f31,66fc98f8211d9ba1f3465eeb,2024-10-02_02h52.31.027,mdp,2024.2.1,Win32,143.6781609,66fa4ebf79326e780c390304,,,,,,,,,,,,,,,,,,,,,883.443,883.443,883.444,884.305,0,1,left,0.358,,884.305,885.112,0,0,left,885.113,885.856,0,1,left,0,885.856,885.856,885.858,887.351,0,1,1,1,1,0.4,0.6,0.6,0.4,,,,,,,,,,,,,,,0.299,,0.8,0.2,0.6,0.4,0.8,0.2,0.2,0.8,,,0.237,,0.6,0.4,0.4,0.6,0.8,0.2,0.6,0.4,1,0
,,5e248b6f0c0b31718a9d3f31,66fc98f8211d9ba1f3465eeb,2024-10-02_02h52.31.027,mdp,2024.2.1,Win32,143.6781609,66fa4ebf79326e780c390304,,,,,,,,,,,,,,,,,,,,,887.352,887.352,887.352,888.276,0,1,left,0.416,,888.277,888.992,0,0,left,888.993,889.758,0,1,left,0,889.758,889.758,889.758,891.26,0,2,2,2,1,0.4,0.6,0.6,0.4,,,,,,,,,,,,,,,0.208,,0.8,0.2,0.6,0.4,0.8,0.2,0.2,0.8,,,0.262,,0.6,0.4,0.4,0.6,0.6,0.4,0.2,0.8,1,0
,,5e248b6f0c0b31718a9d3f31,66fc98f8211d9ba1f3465eeb,2024-10-02_02h52.31.027,mdp,2024.2.1,Win32,143.6781609,66fa4ebf79326e780c390304,,,,,,,,,,,,,,,,,,,,,891.261,891.261,891.261,892.052,0,0,left,0.28,,892.053,892.679,1,1,right,892.68,893.388,1,1,right,0,893.388,893.388,893.388,894.883,0,3,3,3,1,0.4,0.6,0.6,0.4,,,,,,,,,,,,,,,0.12,,0.8,0.2,0.6,0.4,0.8,0.2,0.2,0.8,,,0.198,,0.6,0.4,0.4,0.6,0.6,0.4,0.2,0.8,1,0
,,5e248b6f0c0b31718a9d3f31,66fc98f8211d9ba1f3465eeb,2024-10-02_02h52.31.027,mdp,2024.2.1,Win32,143.6781609,66fa4ebf79326e780c390304,,,,,,,,,,,,,,,,,,,,,894.883,894.883,894.884,895.711,1,1,right,0.322,,895.711,896.365,1,0,right,896.366,897.046,1,0,right,1,897.046,897.046,897.047,898.541,0,4,4,4,1,0.4,0.6,0.6,0.4,,,,,,,,,,,,,,,0.145,,0.8,0.2,0.6,0.4,0.8,0.2,0.2,0.8,,,0.172,,0.6,0.4,0.4,0.6,0.6,0.4,0.2,0.8,1,0
,,5e248b6f0c0b31718a9d3f31,66fc98f8211d9ba1f3465eeb,2024-10-02_02h52.31.027,mdp,2024.2.1,Win32,143.6781609,66fa4ebf79326e780c390304,,,,,,,,,,,,,,,,,,,,,898.542,898.542,898.542,899.369,1,0,right,0.32,,899.369,900.064,1,0,right,900.066,900.676,1,0,right,1,900.676,900.676,900.677,902.172,0,5,5,5,1,0.4,0.6,0.6,0.4,,,,,,,,,,,,,,,0.187,,0.8,0.2,0.6,0.4,0.8,0.2,0.2,0.8,,,0.105,,0.6,0.4,0.4,0.6,0.6,0.4,0.2,0.8,1,0
,,5e248b6f0c0b31718a9d3f31,66fc98f8211d9ba1f3465eeb,2024-10-02_02h52.31.027,mdp,2024.2.1,Win32,143.6781609,66fa4ebf79326e780c390304,,,,,,,,,,,,,,,,,,,,,902.172,902.172,902.173,902.909,1,1,right,0.23,,902.909,903.528,1,1,right,903.529,904.237,1,1,right,0,904.238,904.238,904.238,905.74,0,6,6,6,1,0.4,0.6,0.6,0.4,,,,,,,,,,,,,,,0.111,,0.8,0.2,0.6,0.4,0.8,0.2,0.2,0.8,,,0.204,,0.6,0.4,0.4,0.6,0.6,0.4,0.2,0.8,1,0
,,5e248b6f0c0b31718a9d3f31,66fc98f8211d9ba1f3465eeb,2024-10-02_02h52.31.027,mdp,2024.2.1,Win32,143.6781609,66fa4ebf79326e780c390304,,,,,,,,,,,,,,,,,,,,,905.741,905.741,905.743,906.526,1,0,right,0.272,,906.526,907.088,1,1,right,907.089,907.847,1,0,right,1,907.847,907.847,907.849,909.342,0,7,7,7,1,0.4,0.6,0.6,0.4,,,,,,,,,,,,,,,0.058,,0.8,0.2,0.6,0.4,0.8,0.2,0.2,0.8,,,0.251,,0.6,0.4,0.4,0.6,0.6,0.4,0.2,0.8,1,0
,,5e248b6f0c0b31718a9d3f31,66fc98f8211d9ba1f3465eeb,2024-10-02_02h52.31.027,mdp,2024.2.1,Win32,143.6781609,66fa4ebf79326e780c390304,,,,,,,,,,,,,,,,,,,,,909.343,909.343,909.344,910.266,1,1,right,0.411,,910.268,911.004,1,1,right,911.006,911.776,1,1,right,0,911.776,911.776,911.777,913.272,0,8,8,8,1,0.4,0.6,0.6,0.4,,,,,,,,,,,,,,,0.228,,0.8,0.2,0.6,0.4,0.8,0.2,0.2,0.8,,,0.264,,0.6,0.4,0.4,0.6,0.6,0.4,0.2,0.8,1,0
,,5e248b6f0c0b31718a9d3f31,66fc98f8211d9ba1f3465eeb,2024-10-02_02h52.31.027,mdp,2024.2.1,Win32,143.6781609,66fa4ebf79326e780c390304,,,,,,,,,,,,,,,,,,,,,913.272,913.272,913.272,914.057,1,0,right,0.28,,914.059,914.787,1,0,right,914.788,915.441,0,0,left,1,915.441,915.441,915.442,916.936,0,9,9,9,1,0.4,0.6,0.6,0.4,,,,,,,,,,,,,,,0.223,,0.8,0.2,0.6,0.4,0.8,0.2,0.2,0.8,,,0.148,,0.6,0.4,0.4,0.6,0.6,0.4,0.2,0.8,1,0
,,5e248b6f0c0b31718a9d3f31,66fc98f8211d9ba1f3465eeb,2024-10-02_02h52.31.027,mdp,2024.2.1,Win32,143.6781609,66fa4ebf79326e780c390304,,,,,,,,,,,,,,,,,,,,,916.937,916.937,916.937,917.75,1,1,right,0.306,,917.752,918.599,1,1,right,918.599,919.336,0,1,left,0,919.336,919.336,919.337,920.831,0,10,10,10,1,0.4,0.6,0.6,0.4,,,,,,,,,,,,,,,0.343,,0.8,0.2,0.6,0.4,0.8,0.2,0.2,0.8,,,0.231,,0.6,0.4,0.4,0.6,0.6,0.4,0.2,0.8,1,0
,,5e248b6f0c0b31718a9d3f31,66fc98f8211d9ba1f3465eeb,2024-10-02_02h52.31.027,mdp,2024.2.1,Win32,143.6781609,66fa4ebf79326e780c390304,,,,,,,,,,,,,,,,,,,,,920.831,920.831,920.832,921.679,1,0,right,0.342,,921.68,922.507,1,0,right,922.508,923.244,0,0,left,1,923.244,923.244,923.245,924.74,0,11,11,11,1,0.4,0.6,0.6,0.4,,,,,,,,,,,,,,,0.322,,0.6,0.4,0.8,0.2,0.8,0.2,0.2,0.8,,,0.231,,0.6,0.4,0.4,0.6,0.6,0.4,0.2,0.8,1,0
,,5e248b6f0c0b31718a9d3f31,66fc98f8211d9ba1f3465eeb,2024-10-02_02h52.31.027,mdp,2024.2.1,Win32,143.6781609,66fa4ebf79326e780c390304,,,,,,,,,,,,,,,,,,,,,924.741,924.741,924.741,925.644,1,0,right,0.393,,925.644,926.457,1,0,right,926.458,927.133,0,1,left,0,927.133,927.133,927.133,928.634,0,12,12,12,1,0.4,0.6,0.6,0.4,,,,,,,,,,,,,,,0.307,,0.6,0.4,0.8,0.2,0.8,0.2,0.2,0.8,,,0.167,,0.6,0.4,0.4,0.6,0.6,0.4,0.2,0.8,1,0
,,5e248b6f0c0b31718a9d3f31,66fc98f8211d9ba1f3465eeb,2024-10-02_02h52.31.027,mdp,2024.2.1,Win32,143.6781609,66fa4ebf79326e780c390304,,,,,,,,,,,,,,,,,,,,,928.634,928.634,928.635,929.393,0,0,left,0.253,,929.393,930.192,0,1,left,930.193,930.867,1,0,right,1,930.867,930.867,930.867,932.362,0,13,13,13,1,0.4,0.6,0.6,0.4,,,,,,,,,,,,,,,0.296,,0.6,0.4,0.8,0.2,0.8,0.2,0.2,0.8,,,0.167,,0.6,0.4,0.4,0.6,0.8,0.2,0.6,0.4,1,0
,,5e248b6f0c0b31718a9d3f31,66fc98f8211d9ba1f3465eeb,2024-10-02_02h52.31.027,mdp,2024.2.1,Win32,143.6781609,66fa4ebf79326e780c390304,,,,,,,,,,,,,,,,,,,,,932.363,932.363,932.364,933.141,0,0,left,0.272,,933.141,933.739,0,0,left,933.739,934.358,1,0,right,1,934.358,934.358,934.359,935.854,0,14,14,14,1,0.4,0.6,0.6,0.4,,,,,,,,,,,,,,,0.093,,0.6,0.4,0.8,0.2,0.8,0.2,0.2,0.8,,,0.112,,0.6,0.4,0.4,0.6,0.8,0.2,0.6,0.4,1,0
,,5e248b6f0c0b31718a9d3f31,66fc98f8211d9ba1f3465eeb,2024-10-02_02h52.31.027,mdp,2024.2.1,Win32,143.6781609,66fa4ebf79326e780c390304,,,,,,,,,,,,,,,,,,,,,935.854,935.854,935.855,936.549,0,1,left,0.188,,936.55,937.196,0,0,left,937.196,938.224,1,1,right,0,938.224,938.224,938.226,939.721,0,15,15,15,1,0.4,0.6,0.6,0.4,,,,,,,,,,,,,,,0.141,,0.6,0.4,0.8,0.2,0.8,0.2,0.2,0.8,,,0.525,,0.6,0.4,0.4,0.6,0.8,0.2,0.6,0.4,1,0
,,5e248b6f0c0b31718a9d3f31,66fc98f8211d9ba1f3465eeb,2024-10-02_02h52.31.027,mdp,2024.2.1,Win32,143.6781609,66fa4ebf79326e780c390304,,,,,,,,,,,,,,,,,,,,,939.722,939.722,939.724,940.478,0,0,left,0.246,,940.479,941.034,0,0,left,941.035,941.703,1,1,right,0,941.703,941.703,941.704,943.198,0,16,16,16,1,0.4,0.6,0.6,0.4,,,,,,,,,,,,,,,0.051,,0.6,0.4,0.8,0.2,0.8,0.2,0.2,0.8,,,0.163,,0.6,0.4,0.4,0.6,0.8,0.2,0.6,0.4,1,0
,,5e248b6f0c0b31718a9d3f31,66fc98f8211d9ba1f3465eeb,2024-10-02_02h52.31.027,mdp,2024.2.1,Win32,143.6781609,66fa4ebf79326e780c390304,,,,,,,,,,,,,,,,,,,,,943.198,943.198,943.199,944.046,1,0,right,0.345,,944.048,944.721,1,1,right,944.721,945.423,0,0,left,1,945.423,945.423,945.424,946.918,0,17,17,17,1,0.4,0.6,0.6,0.4,,,,,,,,,,,,,,,0.168,,0.8,0.2,0.4,0.6,0.8,0.2,0.2,0.8,,,0.194,,0.6,0.4,0.4,0.6,0.8,0.2,0.6,0.4,1,0
,,5e248b6f0c0b31718a9d3f31,66fc98f8211d9ba1f3465eeb,2024-10-02_02h52.31.027,mdp,2024.2.1,Win32,143.6781609,66fa4ebf79326e780c390304,,,,,,,,,,,,,,,,,,,,,946.918,946.918,946.919,947.794,1,1,right,0.368,,947.795,948.407,1,0,right,948.408,949.068,0,0,left,1,949.068,949.068,949.068,950.569,0,18,18,18,1,0.4,0.6,0.6,0.4,,,,,,,,,,,,,,,0.104,,0.8,0.2,0.4,0.6,0.8,0.2,0.2,0.8,,,0.155,,0.6,0.4,0.4,0.6,0.8,0.2,0.6,0.4,1,0
,,5e248b6f0c0b31718a9d3f31,66fc98f8211d9ba1f3465eeb,2024-10-02_02h52.31.027,mdp,2024.2.1,Win32,143.6781609,66fa4ebf79326e780c390304,,,,,,,,,,,,,,,,,,,,,950.569,950.569,950.57,951.362,1,0,right,0.285,,951.363,952.308,0,0,left,952.309,953.108,0,1,left,0,953.108,953.108,953.109,954.603,0,19,19,19,1,0.4,0.6,0.6,0.4,,,,,,,,,,,,,,,0.439,,0.8,0.2,0.4,0.6,0.8,0.2,0.2,0.8,,,0.292,,0.6,0.4,0.4,0.6,0.8,0.2,0.6,0.4,1,0
,,5e248b6f0c0b31718a9d3f31,66fc98f8211d9ba1f3465eeb,2024-10-02_02h52.31.027,mdp,2024.2.1,Win32,143.6781609,66fa4ebf79326e780c390304,,,,,,,,,,,,,,,,,,,,,954.603,954.603,954.604,955.57,1,1,right,0.46,,955.571,956.252,1,1,right,956.253,957.302,0,0,left,1,957.302,957.302,957.303,958.797,0,20,20,20,1,0.4,0.6,0.6,0.4,,,,,,,,,,,,,,,0.177,,0.8,0.2,0.4,0.6,0.8,0.2,0.2,0.8,,,0.547,,0.6,0.4,0.4,0.6,0.8,0.2,0.6,0.4,1,0
,,5e248b6f0c0b31718a9d3f31,66fc98f8211d9ba1f3465eeb,2024-10-02_02h52.31.027,mdp,2024.2.1,Win32,143.6781609,66fa4ebf79326e780c390304,,,,,,,,,,,,,,,,,,,,,958.797,958.797,958.798,959.659,1,0,right,0.357,,959.66,960.348,1,0,right,960.349,961.147,0,0,left,1,961.147,961.147,961.148,962.643,0,21,21,21,1,0.6,0.4,0.4,0.6,,,,,,,,,,,,,,,0.182,,0.8,0.2,0.4,0.6,0.8,0.2,0.2,0.8,,,0.293,,0.6,0.4,0.4,0.6,0.8,0.2,0.6,0.4,1,0
,,5e248b6f0c0b31718a9d3f31,66fc98f8211d9ba1f3465eeb,2024-10-02_02h52.31.027,mdp,2024.2.1,Win32,143.6781609,66fa4ebf79326e780c390304,,,,,,,,,,,,,,,,,,,,,962.643,962.643,962.644,964.159,1,1,right,1.009,,964.16,964.903,1,1,right,964.904,965.508,0,0,left,1,965.508,965.508,965.509,967.003,0,22,22,22,1,0.6,0.4,0.4,0.6,,,,,,,,,,,,,,,0.236,,0.8,0.2,0.4,0.6,0.8,0.2,0.2,0.8,,,0.097,,0.6,0.4,0.4,0.6,0.8,0.2,0.6,0.4,1,0
,,5e248b6f0c0b31718a9d3f31,66fc98f8211d9ba1f3465eeb,2024-10-02_02h52.31.027,mdp,2024.2.1,Win32,143.6781609,66fa4ebf79326e780c390304,,,,,,,,,,,,,,,,,,,,,967.003,967.003,967.004,967.873,1,0,right,0.362,,967.873,968.651,1,0,right,968.652,969.438,0,0,left,1,969.438,969.438,969.438,970.933,0,23,23,23,1,0.6,0.4,0.4,0.6,,,,,,,,,,,,,,,0.271,,0.8,0.2,0.4,0.6,0.8,0.2,0.2,0.8,,,0.279,,0.6,0.4,0.4,0.6,0.8,0.2,0.6,0.4,1,0
,,5e248b6f0c0b31718a9d3f31,66fc98f8211d9ba1f3465eeb,2024-10-02_02h52.31.027,mdp,2024.2.1,Win32,143.6781609,66fa4ebf79326e780c390304,,,,,,,,,,,,,,,,,,,,,970.933,970.933,970.934,971.788,1,0,right,0.348,,971.789,972.463,1,1,right,972.463,973.109,0,0,left,1,973.11,973.11,973.112,974.605,0,24,24,24,1,0.6,0.4,0.4,0.6,,,,,,,,,,,,,,,0.167,,0.2,0.8,0.2,0.8,0.8,0.2,0.2,0.8,,,0.137,,0.6,0.4,0.4,0.6,0.8,0.2,0.6,0.4,1,0
,,5e248b6f0c0b31718a9d3f31,66fc98f8211d9ba1f3465eeb,2024-10-02_02h52.31.027,mdp,2024.2.1,Win32,143.6781609,66fa4ebf79326e780c390304,,,,,,,,,,,,,,,,,,,,,974.606,974.606,974.606,975.286,1,0,right,0.168,,975.288,975.822,1,1,right,975.822,976.552,0,0,left,1,976.552,976.552,976.553,978.048,0,25,25,25,1,0.6,0.4,0.4,0.6,,,,,,,,,,,,,,,0.028,,0.2,0.8,0.2,0.8,0.8,0.2,0.2,0.8,,,0.222,,0.6,0.4,0.4,0.6,0.6,0.4,0.8,0.2,1,0
,,5e248b6f0c0b31718a9d3f31,66fc98f8211d9ba1f3465eeb,2024-10-02_02h52.31.027,mdp,2024.2.1,Win32,143.6781609,66fa4ebf79326e780c390304,,,,,,,,,,,,,,,,,,,,,978.048,978.048,978.049,978.91,1,1,right,0.355,,978.911,979.494,1,1,right,979.494,980.252,0,0,left,1,980.252,980.252,980.253,981.748,0,26,26,26,1,0.6,0.4,0.4,0.6,,,,,,,,,,,,,,,0.078,,0.2,0.8,0.2,0.8,0.8,0.2,0.2,0.8,,,0.25,,0.6,0.4,0.4,0.6,0.6,0.4,0.8,0.2,1,0
,,5e248b6f0c0b31718a9d3f31,66fc98f8211d9ba1f3465eeb,2024-10-02_02h52.31.027,mdp,2024.2.1,Win32,143.6781609,66fa4ebf79326e780c390304,,,,,,,,,,,,,,,,,,,,,981.748,981.748,981.75,982.555,1,0,right,0.3,,982.556,983.159,1,1,right,983.16,983.806,0,1,left,0,983.806,983.806,983.807,985.302,0,27,27,27,1,0.6,0.4,0.4,0.6,,,,,,,,,,,,,,,0.09,,0.2,0.8,0.2,0.8,0.8,0.2,0.2,0.8,,,0.141,,0.6,0.4,0.4,0.6,0.6,0.4,0.8,0.2,1,0
,,5e248b6f0c0b31718a9d3f31,66fc98f8211d9ba1f3465eeb,2024-10-02_02h52.31.027,mdp,2024.2.1,Win32,143.6781609,66fa4ebf79326e780c390304,,,,,,,,,,,,,,,,,,,,,985.302,985.302,985.303,986.08,1,1,right,0.273,,986.081,986.984,1,1,right,986.986,987.673,0,1,left,0,987.673,987.673,987.674,989.168,0,28,28,28,1,0.6,0.4,0.4,0.6,,,,,,,,,,,,,,,0.397,,0.2,0.8,0.2,0.8,0.8,0.2,0.2,0.8,,,0.181,,0.6,0.4,0.4,0.6,0.6,0.4,0.8,0.2,1,0
,,5e248b6f0c0b31718a9d3f31,66fc98f8211d9ba1f3465eeb,2024-10-02_02h52.31.027,mdp,2024.2.1,Win32,143.6781609,66fa4ebf79326e780c390304,,,,,,,,,,,,,,,,,,,,,989.169,989.169,989.169,989.926,1,0,right,0.252,,989.927,990.9,1,0,right,990.9,991.651,0,0,left,1,991.651,991.651,991.652,993.146,0,29,29,29,1,0.6,0.4,0.4,0.6,,,,,,,,,,,,,,,0.466,,0.2,0.8,0.2,0.8,0.8,0.2,0.2,0.8,,,0.243,,0.6,0.4,0.4,0.6,0.6,0.4,0.8,0.2,1,0
,,5e248b6f0c0b31718a9d3f31,66fc98f8211d9ba1f3465eeb,2024-10-02_02h52.31.027,mdp,2024.2.1,Win32,143.6781609,66fa4ebf79326e780c390304,,,,,,,,,,,,,,,,,,,,,993.147,993.147,993.148,993.8,1,0,right,0.147,,993.801,994.391,1,1,right,994.392,995.044,0,1,left,0,995.045,995.045,995.046,996.54,0,30,30,30,1,0.6,0.4,0.4,0.6,,,,,,,,,,,,,,,0.084,,0.2,0.8,0.2,0.8,0.8,0.2,0.2,0.8,,,0.145,,0.6,0.4,0.4,0.6,0.6,0.4,0.8,0.2,1,0
,,5e248b6f0c0b31718a9d3f31,66fc98f8211d9ba1f3465eeb,2024-10-02_02h52.31.027,mdp,2024.2.1,Win32,143.6781609,66fa4ebf79326e780c390304,,,,,,,,,,,,,,,,,,,,,996.54,996.54,996.541,997.284,1,1,right,0.24,,997.285,997.882,1,0,right,997.883,998.967,0,1,left,0,998.967,998.967,998.968,1000.462,0,31,31,31,1,0.6,0.4,0.4,0.6,,,,,,,,,,,,,,,0.091,,0.2,0.8,0.2,0.8,0.8,0.2,0.2,0.8,,,0.58,,0.6,0.4,0.4,0.6,0.6,0.4,0.8,0.2,1,0
,,5e248b6f0c0b31718a9d3f31,66fc98f8211d9ba1f3465eeb,2024-10-02_02h52.31.027,mdp,2024.2.1,Win32,143.6781609,66fa4ebf79326e780c390304,,,,,,,,,,,,,,,,,,,,,1000.463,1000.463,1000.464,1001.165,0,0,left,0.198,,1001.166,1002.153,0,0,left,1002.153,1002.779,0,0,left,1,1002.779,1002.779,1002.779,1004.274,0,32,32,32,1,0.6,0.4,0.4,0.6,,,,,,,,,,,,,,,0.48,,0.2,0.8,0.2,0.8,0.8,0.2,0.2,0.8,,,0.119,,0.6,0.4,0.4,0.6,0.6,0.4,0.8,0.2,1,0
,,5e248b6f0c0b31718a9d3f31,66fc98f8211d9ba1f3465eeb,2024-10-02_02h52.31.027,mdp,2024.2.1,Win32,143.6781609,66fa4ebf79326e780c390304,,,,,,,,,,,,,,,,,,,,,1004.274,1004.274,1004.275,1005.045,0,1,left,0.264,,1005.046,1005.768,0,0,left,1005.77,1006.458,0,0,left,1,1006.458,1006.458,1006.46,1007.953,0,33,33,33,1,0.6,0.4,0.4,0.6,,,,,,,,,,,,,,,0.217,,0.2,0.8,0.2,0.8,0.8,0.2,0.2,0.8,,,0.182,,0.6,0.4,0.4,0.6,0.6,0.4,0.8,0.2,1,0
,,5e248b6f0c0b31718a9d3f31,66fc98f8211d9ba1f3465eeb,2024-10-02_02h52.31.027,mdp,2024.2.1,Win32,143.6781609,66fa4ebf79326e780c390304,,,,,,,,,,,,,,,,,,,,,1007.954,1007.954,1007.955,1008.628,0,0,left,0.161,,1008.629,1009.288,0,0,left,1009.288,1010.004,0,0,left,1,1010.004,1010.004,1010.005,1011.5,0,34,34,34,1,0.6,0.4,0.4,0.6,,,,,,,,,,,,,,,0.152,,0.2,0.8,0.2,0.8,0.8,0.2,0.2,0.8,,,0.21,,0.6,0.4,0.4,0.6,0.6,0.4,0.8,0.2,1,0
,,5e248b6f0c0b31718a9d3f31,66fc98f8211d9ba1f3465eeb,2024-10-02_02h52.31.027,mdp,2024.2.1,Win32,143.6781609,66fa4ebf79326e780c390304,,,,,,,,,,,,,,,,,,,,,1011.5,1011.5,1011.501,1012.286,0,1,left,0.278,,1012.287,1013.051,0,0,left,1013.051,1013.76,0,0,left,1,1013.76,1013.76,1013.761,1015.255,0,35,35,35,1,0.6,0.4,0.4,0.6,,,,,,,,,,,,,,,0.256,,0.2,0.8,0.2,0.8,0.8,0.2,0.2,0.8,,,0.204,,0.6,0.4,0.4,0.6,0.6,0.4,0.8,0.2,1,0
,,5e248b6f0c0b31718a9d3f31,66fc98f8211d9ba1f3465eeb,2024-10-02_02h52.31.027,mdp,2024.2.1,Win32,143.6781609,66fa4ebf79326e780c390304,,,,,,,,,,,,,,,,,,,,,1015.255,1015.255,1015.256,1016.111,0,0,left,0.348,,1016.112,1016.876,0,0,left,1016.877,1017.557,0,1,left,0,1017.557,1017.557,1017.558,1019.052,0,36,36,36,1,0.6,0.4,0.4,0.6,,,,,,,,,,,,,,,0.257,,0.6,0.4,0.4,0.6,0.8,0.2,0.2,0.8,,,0.175,,0.6,0.4,0.4,0.6,0.6,0.4,0.8,0.2,1,0
,,5e248b6f0c0b31718a9d3f31,66fc98f8211d9ba1f3465eeb,2024-10-02_02h52.31.027,mdp,2024.2.1,Win32,143.6781609,66fa4ebf79326e780c390304,,,,,,,,,,,,,,,,,,,,,1019.053,1019.053,1019.053,1019.838,0,0,left,0.278,,1019.839,1020.624,0,1,left,1020.625,1021.375,0,0,left,1,1021.375,1021.375,1021.376,1022.871,0,37,37,37,1,0.6,0.4,0.4,0.6,,,,,,,,,,,,,,,0.28,,0.6,0.4,0.4,0.6,0.8,0.2,0.2,0.8,,,0.245,,0.6,0.4,0.4,0.6,0.6,0.4,0.8,0.2,1,0
,,5e248b6f0c0b31718a9d3f31,66fc98f8211d9ba1f3465eeb,2024-10-02_02h52.31.027,mdp,2024.2.1,Win32,143.6781609,66fa4ebf79326e780c390304,,,,,,,,,,,,,,,,,,,,,1022.871,1022.871,1022.872,1023.726,0,1,left,0.352,,1023.727,1024.498,0,0,left,1024.499,1025.277,0,0,left,1,1025.277,1025.277,1025.277,1026.773,0,38,38,38,1,0.6,0.4,0.4,0.6,,,,,,,,,,,,,,,0.263,,0.6,0.4,0.4,0.6,0.8,0.2,0.2,0.8,,,0.273,,0.6,0.4,0.4,0.6,0.6,0.4,0.8,0.2,1,0
,,5e248b6f0c0b31718a9d3f31,66fc98f8211d9ba1f3465eeb,2024-10-02_02h52.31.027,mdp,2024.2.1,Win32,143.6781609,66fa4ebf79326e780c390304,,,,,,,,,,,,,,,,,,,,,1026.773,1026.773,1026.773,1027.58,0,0,left,0.3,,1027.581,1029.144,0,1,left,1029.144,1029.903,0,0,left,1,1029.903,1029.903,1029.904,1031.404,0,39,39,39,1,0.6,0.4,0.4,0.6,,,,,,,,,,,,,,,1.05,,0.6,0.4,0.4,0.6,0.8,0.2,0.2,0.8,,,0.255,,0.6,0.4,0.4,0.6,0.6,0.4,0.8,0.2,1,0
,,5e248b6f0c0b31718a9d3f31,66fc98f8211d9ba1f3465eeb,2024-10-02_02h52.31.027,mdp,2024.2.1,Win32,143.6781609,66fa4ebf79326e780c390304,,,,,,,,,,,,,,,,,,,,,1031.404,1031.404,1031.405,1032.106,0,1,left,0.196,,1032.107,1032.879,0,0,left,1032.88,1033.685,0,1,left,0,1033.685,1033.685,1033.686,1035.18,0,40,40,40,1,0.6,0.4,0.4,0.6,,,,,,,,,,,,,,,0.266,,0.6,0.4,0.4,0.6,0.8,0.2,0.2,0.8,,,0.298,,0.6,0.4,0.4,0.6,0.6,0.4,0.8,0.2,1,0
,,5e248b6f0c0b31718a9d3f31,66fc98f8211d9ba1f3465eeb,2024-10-02_02h52.31.027,mdp,2024.2.1,Win32,143.6781609,66fa4ebf79326e780c390304,,,,,,,,,,,,,,,,,,,,,1035.18,1035.18,1035.181,1036.022,0,0,left,0.337,,1036.023,1036.759,0,0,left,1036.76,1037.482,0,1,left,0,1037.483,1037.483,1037.483,1038.978,0,41,41,41,1,0.6,0.4,0.4,0.6,,,,,,,,,,,,,,,0.229,,0.6,0.4,0.4,0.6,0.8,0.2,0.2,0.8,,,0.22,,0.6,0.4,0.4,0.6,0.6,0.4,0.8,0.2,1,0
,,5e248b6f0c0b31718a9d3f31,66fc98f8211d9ba1f3465eeb,2024-10-02_02h52.31.027,mdp,2024.2.1,Win32,143.6781609,66fa4ebf79326e780c390304,,,,,,,,,,,,,,,,,,,,,1038.978,1038.979,1038.979,1040.147,0,1,left,0.661,,1040.149,1040.918,0,1,left,1040.92,1041.746,0,0,left,1,1041.746,1041.746,1041.747,1043.241,0,42,42,42,1,0.6,0.4,0.4,0.6,,,,,,,,,,,,,,,0.264,,0.6,0.4,0.4,0.6,0.8,0.2,0.2,0.8,,,0.319,,0.6,0.4,0.4,0.6,0.6,0.4,0.8,0.2,1,0
,,5e248b6f0c0b31718a9d3f31,66fc98f8211d9ba1f3465eeb,2024-10-02_02h52.31.027,mdp,2024.2.1,Win32,143.6781609,66fa4ebf79326e780c390304,,,,,,,,,,,,,,,,,,,,,1043.242,1043.242,1043.243,1043.985,0,0,left,0.233,,1043.986,1044.778,0,1,left,1044.779,1045.599,0,1,left,0,1045.599,1045.599,1045.599,1047.094,0,43,43,43,1,0.6,0.4,0.4,0.6,,,,,,,,,,,,,,,0.286,,0.2,0.8,0.6,0.4,0.8,0.2,0.2,0.8,,,0.313,,0.6,0.4,0.4,0.6,0.6,0.4,0.8,0.2,1,0
,,5e248b6f0c0b31718a9d3f31,66fc98f8211d9ba1f3465eeb,2024-10-02_02h52.31.027,mdp,2024.2.1,Win32,143.6781609,66fa4ebf79326e780c390304,,,,,,,,,,,,,,,,,,,,,1047.095,1047.095,1047.095,1047.887,0,0,left,0.279,,1047.888,1048.666,0,1,left,1048.667,1049.528,0,0,left,1,1049.528,1049.528,1049.529,1051.023,0,44,44,44,1,0.6,0.4,0.4,0.6,,,,,,,,,,,,,,,0.273,,0.2,0.8,0.6,0.4,0.8,0.2,0.2,0.8,,,0.355,,0.6,0.4,0.4,0.6,0.6,0.4,0.8,0.2,1,0
,,5e248b6f0c0b31718a9d3f31,66fc98f8211d9ba1f3465eeb,2024-10-02_02h52.31.027,mdp,2024.2.1,Win32,143.6781609,66fa4ebf79326e780c390304,,,,,,,,,,,,,,,,,,,,,1051.023,1051.023,1051.024,1051.781,0,1,left,0.254,,1051.782,1052.72,0,0,left,1052.721,1053.534,0,1,left,0,1053.535,1053.535,1053.535,1055.036,0,45,45,45,1,0.6,0.4,0.4,0.6,,,,,,,,,,,,,,,0.43,,0.2,0.8,0.6,0.4,0.8,0.2,0.2,0.8,,,0.307,,0.6,0.4,0.4,0.6,0.6,0.4,0.8,0.2,1,0
,,5e248b6f0c0b31718a9d3f31,66fc98f8211d9ba1f3465eeb,2024-10-02_02h52.31.027,mdp,2024.2.1,Win32,143.6781609,66fa4ebf79326e780c390304,,,,,,,,,,,,,,,,,,,,,1055.037,1055.037,1055.037,1055.968,0,1,left,0.426,,1055.968,1056.803,0,0,left,1056.804,1057.728,0,0,left,1,1057.728,1057.728,1057.728,1059.229,0,46,46,46,1,0.6,0.4,0.4,0.6,,,,,,,,,,,,,,,0.327,,0.2,0.8,0.6,0.4,0.8,0.2,0.2,0.8,,,0.417,,0.6,0.4,0.4,0.6,0.6,0.4,0.8,0.2,1,0
,,5e248b6f0c0b31718a9d3f31,66fc98f8211d9ba1f3465eeb,2024-10-02_02h52.31.027,mdp,2024.2.1,Win32,143.6781609,66fa4ebf79326e780c390304,,,,,,,,,,,,,,,,,,,,,1059.231,1059.231,1059.232,1060.023,0,0,left,0.286,,1060.023,1060.753,0,1,left,1060.753,1061.449,0,1,left,0,1061.449,1061.449,1061.449,1062.951,0,47,47,47,1,0.6,0.4,0.4,0.6,,,,,,,,,,,,,,,0.222,,0.2,0.8,0.6,0.4,0.8,0.2,0.2,0.8,,,0.188,,0.6,0.4,0.4,0.6,0.6,0.4,0.8,0.2,1,0
,,5e248b6f0c0b31718a9d3f31,66fc98f8211d9ba1f3465eeb,2024-10-02_02h52.31.027,mdp,2024.2.1,Win32,143.6781609,66fa4ebf79326e780c390304,,,,,,,,,,,,,,,,,,,,,1062.951,1062.951,1062.952,1063.688,0,1,left,0.231,,1063.688,1064.453,0,0,left,1064.453,1065.253,0,0,left,1,1065.253,1065.253,1065.253,1066.748,0,48,48,48,1,0.6,0.4,0.4,0.6,,,,,,,,,,,,,,,0.256,,0.2,0.8,0.6,0.4,0.8,0.2,0.2,0.8,,,0.292,,0.6,0.4,0.4,0.6,0.6,0.4,0.8,0.2,1,0
,,5e248b6f0c0b31718a9d3f31,66fc98f8211d9ba1f3465eeb,2024-10-02_02h52.31.027,mdp,2024.2.1,Win32,143.6781609,66fa4ebf79326e780c390304,,,,,,,,,,,,,,,,,,,,,1066.749,1066.749,1066.749,1067.589,0,1,left,0.329,,1067.59,1068.362,0,0,left,1068.362,1069.14,0,0,left,1,1069.14,1069.14,1069.141,1070.636,0,49,49,49,1,0.6,0.4,0.4,0.6,,,,,,,,,,,,,,,0.265,,0.2,0.8,0.6,0.4,0.8,0.2,0.2,0.8,,,0.272,,0.6,0.4,0.4,0.6,0.6,0.4,0.8,0.2,1,0
,,5e248b6f0c0b31718a9d3f31,66fc98f8211d9ba1f3465eeb,2024-10-02_02h52.31.027,mdp,2024.2.1,Win32,143.6781609,66fa4ebf79326e780c390304,,,,,,,,,,,,,,,,,,,,,,,,,,,,,,,,,,,,,,,,,,,,,,,,,,,,,,,,1070.636,1129.146,0,3,3,2,1,imgs/rabbit.png,imgs/cat.png,imgs/bear.png,imgs/goat.png,imgs/dog.png,,,,,,,,,,,,,,,,,,,,,,,,
,,5e248b6f0c0b31718a9d3f31,66fc98f8211d9ba1f3465eeb,2024-10-02_02h52.31.027,mdp,2024.2.1,Win32,143.6781609,66fa4ebf79326e780c390304,,,,,,,,,,,,,,1,seqs/st1seq31.csv,1129.148,1133.047,space,3.388,,1133.05,1133.05,1133.051,1134.348,0,1,left,0.782,,1134.349,1134.349,0,1,,1134.35,1134.35,0,0,,0,1134.35,1134.35,1134.35,1135.85,0,0,0,0,1,0.8,0.2,0.4,0.6,1,0,,,,,,,,,,,,,,,,,,,,,,,,,,,,,,,,,,,,
,,5e248b6f0c0b31718a9d3f31,66fc98f8211d9ba1f3465eeb,2024-10-02_02h52.31.027,mdp,2024.2.1,Win32,143.6781609,66fa4ebf79326e780c390304,,,,,,,,,,,,,,,,,,,,,1135.85,1135.85,1135.851,1136.65,0,1,left,0.292,,1136.651,1136.651,0,1,,1136.652,1136.652,0,1,,0,1136.652,1136.652,1136.652,1138.152,0,1,1,1,1,0.8,0.2,0.4,0.6,1,0,,,,,,,,,,,,,,,,,,,,,,,,,,,,,,,,,,,,
,,5e248b6f0c0b31718a9d3f31,66fc98f8211d9ba1f3465eeb,2024-10-02_02h52.31.027,mdp,2024.2.1,Win32,143.6781609,66fa4ebf79326e780c390304,,,,,,,,,,,,,,,,,,,,,1138.152,1138.152,1138.153,1138.737,1,1,right,0.077,,1138.738,1138.738,0,0,,1138.738,1138.738,0,0,,0,1138.738,1138.738,1138.738,1140.239,0,2,2,2,1,0.8,0.2,0.4,0.6,1,0,,,,,,,,,,,,,,,,,,,,,,,,,,,,,,,,,,,,
,,5e248b6f0c0b31718a9d3f31,66fc98f8211d9ba1f3465eeb,2024-10-02_02h52.31.027,mdp,2024.2.1,Win32,143.6781609,66fa4ebf79326e780c390304,,,,,,,,,,,,,,,,,,,,,1140.239,1140.239,1140.239,1140.983,1,1,right,0.24,,1140.984,1140.984,0,0,,1140.984,1140.985,0,1,,0,1140.985,1140.985,1140.985,1142.486,0,3,3,3,1,0.8,0.2,0.4,0.6,1,0,,,,,,,,,,,,,,,,,,,,,,,,,,,,,,,,,,,,
,,5e248b6f0c0b31718a9d3f31,66fc98f8211d9ba1f3465eeb,2024-10-02_02h52.31.027,mdp,2024.2.1,Win32,143.6781609,66fa4ebf79326e780c390304,,,,,,,,,,,,,,,,,,,,,1142.487,1142.487,1142.488,1143.222,0,0,left,0.231,,1143.223,1143.224,0,0,,1143.224,1143.225,0,0,,1,1143.225,1143.225,1143.225,1144.724,0,4,4,4,1,0.8,0.2,0.4,0.6,1,0,,,,,,,,,,,,,,,,,,,,,,,,,,,,,,,,,,,,
,,5e248b6f0c0b31718a9d3f31,66fc98f8211d9ba1f3465eeb,2024-10-02_02h52.31.027,mdp,2024.2.1,Win32,143.6781609,66fa4ebf79326e780c390304,,,,,,,,,,,,,,,,,,,,,1144.725,1144.725,1144.726,1145.475,0,0,left,0.245,,1145.476,1145.477,0,0,,1145.477,1145.477,0,0,,1,1145.477,1145.477,1145.478,1146.978,0,5,5,5,1,0.8,0.2,0.4,0.6,1,0,,,,,,,,,,,,,,,,,,,,,,,,,,,,,,,,,,,,
,,5e248b6f0c0b31718a9d3f31,66fc98f8211d9ba1f3465eeb,2024-10-02_02h52.31.027,mdp,2024.2.1,Win32,143.6781609,66fa4ebf79326e780c390304,,,,,,,,,,,,,,,,,,,,,1146.978,1146.978,1146.979,1147.771,0,0,left,0.286,,1147.771,1147.772,0,0,,1147.772,1147.773,0,0,,1,1147.773,1147.773,1147.773,1149.273,0,6,6,6,1,0.6,0.4,0.6,0.4,1,0,,,,,,,,,,,,,,,,,,,,,,,,,,,,,,,,,,,,
,,5e248b6f0c0b31718a9d3f31,66fc98f8211d9ba1f3465eeb,2024-10-02_02h52.31.027,mdp,2024.2.1,Win32,143.6781609,66fa4ebf79326e780c390304,,,,,,,,,,,,,,,,,,,,,1149.273,1149.273,1149.274,1149.961,0,0,left,0.181,,1149.961,1149.962,0,1,,1149.962,1149.963,0,0,,1,1149.963,1149.963,1149.963,1151.463,0,7,7,7,1,0.6,0.4,0.6,0.4,1,0,,,,,,,,,,,,,,,,,,,,,,,,,,,,,,,,,,,,
,,5e248b6f0c0b31718a9d3f31,66fc98f8211d9ba1f3465eeb,2024-10-02_02h52.31.027,mdp,2024.2.1,Win32,143.6781609,66fa4ebf79326e780c390304,,,,,,,,,,,,,,,,,,,,,1151.463,1151.463,1151.464,1152.319,0,0,left,0.348,,1152.319,1152.32,0,1,,1152.32,1152.321,0,1,,1,1152.321,1152.321,1152.321,1153.821,0,8,8,8,1,0.6,0.4,0.6,0.4,1,0,,,,,,,,,,,,,,,,,,,,,,,,,,,,,,,,,,,,
,,5e248b6f0c0b31718a9d3f31,66fc98f8211d9ba1f3465eeb,2024-10-02_02h52.31.027,mdp,2024.2.1,Win32,143.6781609,66fa4ebf79326e780c390304,,,,,,,,,,,,,,,,,,,,,1153.821,1153.821,1153.822,1154.558,0,0,left,0.233,,1154.559,1154.56,0,0,,1154.56,1154.56,0,0,,1,1154.56,1154.56,1154.56,1156.061,0,9,9,9,1,0.8,0.2,0.4,0.6,1,0,,,,,,,,,,,,,,,,,,,,,,,,,,,,,,,,,,,,
,,5e248b6f0c0b31718a9d3f31,66fc98f8211d9ba1f3465eeb,2024-10-02_02h52.31.027,mdp,2024.2.1,Win32,143.6781609,66fa4ebf79326e780c390304,,,,,,,,,,,,,,,,,,,,,1156.061,1156.061,1156.061,1156.846,0,1,left,0.279,,1156.847,1156.847,0,1,,1156.847,1156.848,0,0,,0,1156.848,1156.848,1156.848,1158.349,0,10,10,10,1,0.2,0.8,0.6,0.4,1,0,,,,,,,,,,,,,,,,,,,,,,,,,,,,,,,,,,,,
,,5e248b6f0c0b31718a9d3f31,66fc98f8211d9ba1f3465eeb,2024-10-02_02h52.31.027,mdp,2024.2.1,Win32,143.6781609,66fa4ebf79326e780c390304,,,,,,,,,,,,,,,,,,,,,1158.349,1158.349,1158.35,1159.315,0,1,left,0.459,,1159.315,1159.316,0,1,,1159.316,1159.317,0,1,,0,1159.317,1159.317,1159.317,1160.817,0,11,11,11,1,0.2,0.8,0.6,0.4,1,0,,,,,,,,,,,,,,,,,,,,,,,,,,,,,,,,,,,,
,,5e248b6f0c0b31718a9d3f31,66fc98f8211d9ba1f3465eeb,2024-10-02_02h52.31.027,mdp,2024.2.1,Win32,143.6781609,66fa4ebf79326e780c390304,,,,,,,,,,,,,,,,,,,,,1160.817,1160.817,1160.819,1161.533,0,1,left,0.21,,1161.534,1161.535,0,1,,1161.535,1161.535,0,1,,0,1161.535,1161.535,1161.536,1163.036,0,12,12,12,1,0.2,0.8,0.6,0.4,1,0,,,,,,,,,,,,,,,,,,,,,,,,,,,,,,,,,,,,
,,5e248b6f0c0b31718a9d3f31,66fc98f8211d9ba1f3465eeb,2024-10-02_02h52.31.027,mdp,2024.2.1,Win32,143.6781609,66fa4ebf79326e780c390304,,,,,,,,,,,,,,,,,,,,,1163.037,1163.037,1163.037,1163.767,1,0,right,0.226,,1163.767,1163.767,0,0,,1163.768,1163.768,0,1,,1,1163.768,1163.768,1163.768,1165.268,0,13,13,13,1,0.2,0.8,0.6,0.4,1,0,,,,,,,,,,,,,,,,,,,,,,,,,,,,,,,,,,,,
,,5e248b6f0c0b31718a9d3f31,66fc98f8211d9ba1f3465eeb,2024-10-02_02h52.31.027,mdp,2024.2.1,Win32,143.6781609,66fa4ebf79326e780c390304,,,,,,,,,,,,,,,,,,,,,1165.268,1165.268,1165.269,1166.005,1,1,right,0.232,,1166.006,1166.007,0,0,,1166.007,1166.007,0,1,,0,1166.007,1166.007,1166.008,1167.508,0,14,14,14,1,0.2,0.8,0.6,0.4,1,0,,,,,,,,,,,,,,,,,,,,,,,,,,,,,,,,,,,,
,,5e248b6f0c0b31718a9d3f31,66fc98f8211d9ba1f3465eeb,2024-10-02_02h52.31.027,mdp,2024.2.1,Win32,143.6781609,66fa4ebf79326e780c390304,,,,,,,,,,,,,,,,,,,,,1167.508,1167.508,1167.509,1168.259,0,1,left,0.244,,1168.26,1168.261,0,0,,1168.261,1168.261,0,0,,0,1168.261,1168.261,1168.262,1169.761,0,15,15,15,1,0.8,0.2,0.2,0.8,1,0,,,,,,,,,,,,,,,,,,,,,,,,,,,,,,,,,,,,
,,5e248b6f0c0b31718a9d3f31,66fc98f8211d9ba1f3465eeb,2024-10-02_02h52.31.027,mdp,2024.2.1,Win32,143.6781609,66fa4ebf79326e780c390304,,,,,,,,,,,,,,,,,,,,,1169.762,1169.762,1169.762,1170.54,0,0,left,0.274,,1170.54,1170.541,0,0,,1170.541,1170.542,0,0,,1,1170.542,1170.542,1170.543,1172.042,0,16,16,16,1,0.8,0.2,0.2,0.8,1,0,,,,,,,,,,,,,,,,,,,,,,,,,,,,,,,,,,,,
,,5e248b6f0c0b31718a9d3f31,66fc98f8211d9ba1f3465eeb,2024-10-02_02h52.31.027,mdp,2024.2.1,Win32,143.6781609,66fa4ebf79326e780c390304,,,,,,,,,,,,,,,,,,,,,1172.042,1172.042,1172.043,1172.842,0,0,left,0.293,,1172.843,1172.843,0,0,,1172.844,1172.845,0,1,,1,1172.845,1172.845,1172.845,1174.345,0,17,17,17,1,0.8,0.2,0.2,0.8,1,0,,,,,,,,,,,,,,,,,,,,,,,,,,,,,,,,,,,,
,,5e248b6f0c0b31718a9d3f31,66fc98f8211d9ba1f3465eeb,2024-10-02_02h52.31.027,mdp,2024.2.1,Win32,143.6781609,66fa4ebf79326e780c390304,,,,,,,,,,,,,,,,,,,,,1174.345,1174.345,1174.346,1175.173,0,0,left,0.321,,1175.175,1175.177,0,0,,1175.178,1175.178,0,0,,1,1175.178,1175.178,1175.179,1176.675,0,18,18,18,1,0.8,0.2,0.2,0.8,1,0,,,,,,,,,,,,,,,,,,,,,,,,,,,,,,,,,,,,
,,5e248b6f0c0b31718a9d3f31,66fc98f8211d9ba1f3465eeb,2024-10-02_02h52.31.027,mdp,2024.2.1,Win32,143.6781609,66fa4ebf79326e780c390304,,,,,,,,,,,,,,,,,,,,,1176.675,1176.675,1176.676,1177.432,0,1,left,0.254,,1177.433,1177.433,0,0,,1177.433,1177.434,0,0,,0,1177.434,1177.434,1177.434,1178.935,0,19,19,19,1,0.8,0.2,0.2,0.8,1,0,,,,,,,,,,,,,,,,,,,,,,,,,,,,,,,,,,,,
,,5e248b6f0c0b31718a9d3f31,66fc98f8211d9ba1f3465eeb,2024-10-02_02h52.31.027,mdp,2024.2.1,Win32,143.6781609,66fa4ebf79326e780c390304,,,,,,,,,,,,,,,,,,,,,1178.935,1178.935,1178.936,1179.7,0,0,left,0.257,,1179.7,1179.701,0,1,,1179.701,1179.702,0,0,,1,1179.702,1179.702,1179.702,1181.202,0,20,20,20,1,0.8,0.2,0.2,0.8,1,0,,,,,,,,,,,,,,,,,,,,,,,,,,,,,,,,,,,,
,,5e248b6f0c0b31718a9d3f31,66fc98f8211d9ba1f3465eeb,2024-10-02_02h52.31.027,mdp,2024.2.1,Win32,143.6781609,66fa4ebf79326e780c390304,,,,,,,,,,,,,,,,,,,,,1181.202,1181.202,1181.203,1182.023,0,1,left,0.318,,1182.023,1182.024,0,1,,1182.024,1182.024,0,0,,0,1182.024,1182.024,1182.024,1183.525,0,21,21,21,1,0.6,0.4,0.4,0.6,1,0,,,,,,,,,,,,,,,,,,,,,,,,,,,,,,,,,,,,
,,5e248b6f0c0b31718a9d3f31,66fc98f8211d9ba1f3465eeb,2024-10-02_02h52.31.027,mdp,2024.2.1,Win32,143.6781609,66fa4ebf79326e780c390304,,,,,,,,,,,,,,,,,,,,,1183.525,1183.525,1183.526,1184.276,0,0,left,0.242,,1184.276,1184.277,0,0,,1184.278,1184.278,0,0,,1,1184.278,1184.278,1184.278,1185.778,0,22,22,22,1,0.6,0.4,0.4,0.6,1,0,,,,,,,,,,,,,,,,,,,,,,,,,,,,,,,,,,,,
,,5e248b6f0c0b31718a9d3f31,66fc98f8211d9ba1f3465eeb,2024-10-02_02h52.31.027,mdp,2024.2.1,Win32,143.6781609,66fa4ebf79326e780c390304,,,,,,,,,,,,,,,,,,,,,1185.778,1185.778,1185.778,1186.571,0,0,left,0.289,,1186.572,1186.573,0,0,,1186.573,1186.573,0,1,,1,1186.573,1186.573,1186.574,1188.073,0,23,23,23,1,0.6,0.4,0.4,0.6,1,0,,,,,,,,,,,,,,,,,,,,,,,,,,,,,,,,,,,,
,,5e248b6f0c0b31718a9d3f31,66fc98f8211d9ba1f3465eeb,2024-10-02_02h52.31.027,mdp,2024.2.1,Win32,143.6781609,66fa4ebf79326e780c390304,,,,,,,,,,,,,,,,,,,,,1188.073,1188.073,1188.074,1188.748,0,0,left,0.169,,1188.748,1188.749,0,1,,1188.749,1188.75,0,1,,1,1188.75,1188.75,1188.75,1190.25,0,24,24,24,1,0.6,0.4,0.4,0.6,1,0,,,,,,,,,,,,,,,,,,,,,,,,,,,,,,,,,,,,
,,5e248b6f0c0b31718a9d3f31,66fc98f8211d9ba1f3465eeb,2024-10-02_02h52.31.027,mdp,2024.2.1,Win32,143.6781609,66fa4ebf79326e780c390304,,,,,,,,,,,,,,,,,,,,,1190.25,1190.25,1190.251,1190.896,0,1,left,0.139,,1190.897,1190.897,0,0,,1190.898,1190.898,0,0,,0,1190.898,1190.898,1190.898,1192.399,0,25,25,25,1,0.6,0.4,0.4,0.6,1,0,,,,,,,,,,,,,,,,,,,,,,,,,,,,,,,,,,,,
,,5e248b6f0c0b31718a9d3f31,66fc98f8211d9ba1f3465eeb,2024-10-02_02h52.31.027,mdp,2024.2.1,Win32,143.6781609,66fa4ebf79326e780c390304,,,,,,,,,,,,,,,,,,,,,1192.399,1192.399,1192.4,1193.178,0,0,left,0.272,,1193.179,1193.179,0,1,,1193.18,1193.18,0,0,,1,1193.18,1193.18,1193.18,1194.68,0,26,26,26,1,0.6,0.4,0.4,0.6,1,0,,,,,,,,,,,,,,,,,,,,,,,,,,,,,,,,,,,,
,,5e248b6f0c0b31718a9d3f31,66fc98f8211d9ba1f3465eeb,2024-10-02_02h52.31.027,mdp,2024.2.1,Win32,143.6781609,66fa4ebf79326e780c390304,,,,,,,,,,,,,,,,,,,,,1194.68,1194.68,1194.681,1195.382,0,0,left,0.198,,1195.383,1195.384,0,0,,1195.384,1195.384,0,0,,1,1195.384,1195.384,1195.384,1196.884,0,27,27,27,1,0.8,0.2,0.6,0.4,1,0,,,,,,,,,,,,,,,,,,,,,,,,,,,,,,,,,,,,
,,5e248b6f0c0b31718a9d3f31,66fc98f8211d9ba1f3465eeb,2024-10-02_02h52.31.027,mdp,2024.2.1,Win32,143.6781609,66fa4ebf79326e780c390304,,,,,,,,,,,,,,,,,,,,,1196.885,1196.885,1196.886,1197.615,0,0,left,0.223,,1197.615,1197.616,0,0,,1197.616,1197.617,0,0,,1,1197.617,1197.617,1197.618,1199.117,0,28,28,28,1,0.8,0.2,0.6,0.4,1,0,,,,,,,,,,,,,,,,,,,,,,,,,,,,,,,,,,,,
,,5e248b6f0c0b31718a9d3f31,66fc98f8211d9ba1f3465eeb,2024-10-02_02h52.31.027,mdp,2024.2.1,Win32,143.6781609,66fa4ebf79326e780c390304,,,,,,,,,,,,,,,,,,,,,1199.118,1199.118,1199.118,1199.917,0,0,left,0.293,,1199.917,1199.918,0,0,,1199.918,1199.919,0,0,,1,1199.919,1199.919,1199.919,1201.419,0,29,29,29,1,0.8,0.2,0.6,0.4,1,0,,,,,,,,,,,,,,,,,,,,,,,,,,,,,,,,,,,,
,,5e248b6f0c0b31718a9d3f31,66fc98f8211d9ba1f3465eeb,2024-10-02_02h52.31.027,mdp,2024.2.1,Win32,143.6781609,66fa4ebf79326e780c390304,,,,,,,,,,,,,,,,,,,,,1201.419,1201.419,1201.42,1202.26,0,1,left,0.334,,1202.261,1202.262,0,0,,1202.262,1202.262,0,1,,0,1202.262,1202.262,1202.262,1203.763,0,30,30,30,1,0.6,0.4,0.4,0.6,1,0,,,,,,,,,,,,,,,,,,,,,,,,,,,,,,,,,,,,
,,5e248b6f0c0b31718a9d3f31,66fc98f8211d9ba1f3465eeb,2024-10-02_02h52.31.027,mdp,2024.2.1,Win32,143.6781609,66fa4ebf79326e780c390304,,,,,,,,,,,,,,,,,,,,,1203.763,1203.763,1203.764,1204.598,0,1,left,0.328,,1204.598,1204.599,0,1,,1204.599,1204.599,0,1,,0,1204.599,1204.599,1204.599,1206.099,0,31,31,31,1,0.6,0.4,0.4,0.6,1,0,,,,,,,,,,,,,,,,,,,,,,,,,,,,,,,,,,,,
,,5e248b6f0c0b31718a9d3f31,66fc98f8211d9ba1f3465eeb,2024-10-02_02h52.31.027,mdp,2024.2.1,Win32,143.6781609,66fa4ebf79326e780c390304,,,,,,,,,,,,,,,,,,,,,1206.1,1206.1,1206.1,1206.851,0,0,left,0.244,,1206.851,1206.852,0,1,,1206.852,1206.852,0,1,,1,1206.852,1206.852,1206.853,1208.353,0,32,32,32,1,0.2,0.8,0.6,0.4,1,0,,,,,,,,,,,,,,,,,,,,,,,,,,,,,,,,,,,,
,,5e248b6f0c0b31718a9d3f31,66fc98f8211d9ba1f3465eeb,2024-10-02_02h52.31.027,mdp,2024.2.1,Win32,143.6781609,66fa4ebf79326e780c390304,,,,,,,,,,,,,,,,,,,,,1208.353,1208.353,1208.354,1209.251,0,0,left,0.392,,1209.253,1209.255,0,1,,1209.255,1209.256,0,1,,1,1209.256,1209.256,1209.256,1210.752,0,33,33,33,1,0.6,0.4,0.8,0.2,1,0,,,,,,,,,,,,,,,,,,,,,,,,,,,,,,,,,,,,
,,5e248b6f0c0b31718a9d3f31,66fc98f8211d9ba1f3465eeb,2024-10-02_02h52.31.027,mdp,2024.2.1,Win32,143.6781609,66fa4ebf79326e780c390304,,,,,,,,,,,,,,,,,,,,,1210.753,1210.753,1210.754,1211.524,0,1,left,0.264,,1211.525,1211.525,0,1,,1211.526,1211.526,0,0,,0,1211.526,1211.526,1211.526,1213.027,0,34,34,34,1,0.6,0.4,0.8,0.2,1,0,,,,,,,,,,,,,,,,,,,,,,,,,,,,,,,,,,,,
,,5e248b6f0c0b31718a9d3f31,66fc98f8211d9ba1f3465eeb,2024-10-02_02h52.31.027,mdp,2024.2.1,Win32,143.6781609,66fa4ebf79326e780c390304,,,,,,,,,,,,,,,,,,,,,1213.027,1213.027,1213.027,1213.77,0,0,left,0.241,,1213.771,1213.772,0,0,,1213.773,1213.773,0,1,,1,1213.773,1213.773,1213.774,1215.273,0,35,35,35,1,0.6,0.4,0.8,0.2,1,0,,,,,,,,,,,,,,,,,,,,,,,,,,,,,,,,,,,,
,,5e248b6f0c0b31718a9d3f31,66fc98f8211d9ba1f3465eeb,2024-10-02_02h52.31.027,mdp,2024.2.1,Win32,143.6781609,66fa4ebf79326e780c390304,,,,,,,,,,,,,,,,,,,,,1215.273,1215.273,1215.274,1216.17,0,0,left,0.39,,1216.171,1216.171,0,0,,1216.172,1216.173,0,0,,1,1216.173,1216.173,1216.173,1217.673,0,36,36,36,1,0.6,0.4,0.8,0.2,1,0,,,,,,,,,,,,,,,,,,,,,,,,,,,,,,,,,,,,
,,5e248b6f0c0b31718a9d3f31,66fc98f8211d9ba1f3465eeb,2024-10-02_02h52.31.027,mdp,2024.2.1,Win32,143.6781609,66fa4ebf79326e780c390304,,,,,,,,,,,,,,,,,,,,,1217.673,1217.673,1217.674,1218.507,0,1,left,0.32,,1218.508,1218.508,0,1,,1218.508,1218.509,0,1,,0,1218.509,1218.509,1218.509,1220.01,0,37,37,37,1,0.4,0.6,0.6,0.4,1,0,,,,,,,,,,,,,,,,,,,,,,,,,,,,,,,,,,,,
,,5e248b6f0c0b31718a9d3f31,66fc98f8211d9ba1f3465eeb,2024-10-02_02h52.31.027,mdp,2024.2.1,Win32,143.6781609,66fa4ebf79326e780c390304,,,,,,,,,,,,,,,,,,,,,1220.01,1220.01,1220.011,1220.781,1,0,right,0.267,,1220.782,1220.782,0,1,,1220.782,1220.783,0,0,,1,1220.783,1220.783,1220.783,1222.283,0,38,38,38,1,0.4,0.6,0.6,0.4,1,0,,,,,,,,,,,,,,,,,,,,,,,,,,,,,,,,,,,,
,,5e248b6f0c0b31718a9d3f31,66fc98f8211d9ba1f3465eeb,2024-10-02_02h52.31.027,mdp,2024.2.1,Win32,143.6781609,66fa4ebf79326e780c390304,,,,,,,,,,,,,,,,,,,,,1222.284,1222.284,1222.285,1223.041,1,0,right,0.254,,1223.042,1223.042,0,1,,1223.043,1223.043,0,1,,1,1223.043,1223.043,1223.043,1224.544,0,39,39,39,1,0.4,0.6,0.6,0.4,1,0,,,,,,,,,,,,,,,,,,,,,,,,,,,,,,,,,,,,
,,5e248b6f0c0b31718a9d3f31,66fc98f8211d9ba1f3465eeb,2024-10-02_02h52.31.027,mdp,2024.2.1,Win32,143.6781609,66fa4ebf79326e780c390304,,,,,,,,,,,,,,,,,,,,,1224.544,1224.544,1224.544,1225.315,1,1,right,0.267,,1225.316,1225.317,0,1,,1225.317,1225.317,0,1,,0,1225.317,1225.317,1225.318,1226.817,0,40,40,40,1,0.6,0.4,0.2,0.8,1,0,,,,,,,,,,,,,,,,,,,,,,,,,,,,,,,,,,,,
,,5e248b6f0c0b31718a9d3f31,66fc98f8211d9ba1f3465eeb,2024-10-02_02h52.31.027,mdp,2024.2.1,Win32,143.6781609,66fa4ebf79326e780c390304,,,,,,,,,,,,,,,,,,,,,1226.818,1226.818,1226.819,1227.534,1,1,right,0.21,,1227.535,1227.535,0,1,,1227.536,1227.536,0,1,,0,1227.536,1227.536,1227.536,1229.036,0,41,41,41,1,0.6,0.4,0.2,0.8,1,0,,,,,,,,,,,,,,,,,,,,,,,,,,,,,,,,,,,,
,,5e248b6f0c0b31718a9d3f31,66fc98f8211d9ba1f3465eeb,2024-10-02_02h52.31.027,mdp,2024.2.1,Win32,143.6781609,66fa4ebf79326e780c390304,,,,,,,,,,,,,,,,,,,,,1229.036,1229.036,1229.037,1229.912,0,1,left,0.368,,1229.913,1229.913,0,0,,1229.914,1229.914,0,0,,0,1229.914,1229.914,1229.914,1231.415,0,42,42,42,1,0.6,0.4,0.2,0.8,1,0,,,,,,,,,,,,,,,,,,,,,,,,,,,,,,,,,,,,
,,5e248b6f0c0b31718a9d3f31,66fc98f8211d9ba1f3465eeb,2024-10-02_02h52.31.027,mdp,2024.2.1,Win32,143.6781609,66fa4ebf79326e780c390304,,,,,,,,,,,,,,,,,,,,,1231.415,1231.415,1231.417,1232.319,0,1,left,0.398,,1232.319,1232.32,0,0,,1232.32,1232.32,0,0,,0,1232.32,1232.32,1232.321,1233.821,0,43,43,43,1,0.6,0.4,0.2,0.8,1,0,,,,,,,,,,,,,,,,,,,,,,,,,,,,,,,,,,,,
,,5e248b6f0c0b31718a9d3f31,66fc98f8211d9ba1f3465eeb,2024-10-02_02h52.31.027,mdp,2024.2.1,Win32,143.6781609,66fa4ebf79326e780c390304,,,,,,,,,,,,,,,,,,,,,1233.821,1233.821,1233.822,1234.6,0,1,left,0.271,,1234.601,1234.601,0,0,,1234.602,1234.602,0,0,,0,1234.602,1234.602,1234.602,1236.102,0,44,44,44,1,0.6,0.4,0.2,0.8,1,0,,,,,,,,,,,,,,,,,,,,,,,,,,,,,,,,,,,,
,,5e248b6f0c0b31718a9d3f31,66fc98f8211d9ba1f3465eeb,2024-10-02_02h52.31.027,mdp,2024.2.1,Win32,143.6781609,66fa4ebf79326e780c390304,,,,,,,,,,,,,,,,,,,,,1236.102,1236.102,1236.103,1236.888,1,1,right,0.279,,1236.888,1236.889,0,1,,1236.89,1236.89,0,1,,0,1236.89,1236.89,1236.89,1238.39,0,45,45,45,1,0.6,0.4,0.2,0.8,1,0,,,,,,,,,,,,,,,,,,,,,,,,,,,,,,,,,,,,
,,5e248b6f0c0b31718a9d3f31,66fc98f8211d9ba1f3465eeb,2024-10-02_02h52.31.027,mdp,2024.2.1,Win32,143.6781609,66fa4ebf79326e780c390304,,,,,,,,,,,,,,,,,,,,,1238.39,1238.39,1238.391,1238.988,0,0,left,0.09,,1238.989,1238.99,0,1,,1238.99,1238.99,0,1,,1,1238.99,1238.99,1238.991,1240.49,0,46,46,46,1,0.6,0.4,0.2,0.8,1,0,,,,,,,,,,,,,,,,,,,,,,,,,,,,,,,,,,,,
,,5e248b6f0c0b31718a9d3f31,66fc98f8211d9ba1f3465eeb,2024-10-02_02h52.31.027,mdp,2024.2.1,Win32,143.6781609,66fa4ebf79326e780c390304,,,,,,,,,,,,,,,,,,,,,1240.49,1240.49,1240.491,1241.248,0,0,left,0.253,,1241.249,1241.249,0,0,,1241.25,1241.25,0,1,,1,1241.25,1241.25,1241.25,1242.751,0,47,47,47,1,0.6,0.4,0.2,0.8,1,0,,,,,,,,,,,,,,,,,,,,,,,,,,,,,,,,,,,,
,,5e248b6f0c0b31718a9d3f31,66fc98f8211d9ba1f3465eeb,2024-10-02_02h52.31.027,mdp,2024.2.1,Win32,143.6781609,66fa4ebf79326e780c390304,,,,,,,,,,,,,,,,,,,,,1242.753,1242.753,1242.754,1243.579,0,0,left,0.313,,1243.58,1243.581,0,0,,1243.582,1243.583,0,0,,1,1243.583,1243.583,1243.583,1245.081,0,48,48,48,1,0.6,0.4,0.2,0.8,1,0,,,,,,,,,,,,,,,,,,,,,,,,,,,,,,,,,,,,
,,5e248b6f0c0b31718a9d3f31,66fc98f8211d9ba1f3465eeb,2024-10-02_02h52.31.027,mdp,2024.2.1,Win32,143.6781609,66fa4ebf79326e780c390304,,,,,,,,,,,,,,,,,,,,,1245.081,1245.081,1245.082,1245.874,0,0,left,0.286,,1245.875,1245.876,0,1,,1245.876,1245.876,0,0,,1,1245.876,1245.876,1245.877,1247.375,0,49,49,49,1,0.6,0.4,0.2,0.8,1,0,,,,,,,,,,,,,,,,,,,,,,,,,,,,,,,,,,,,
,,5e248b6f0c0b31718a9d3f31,66fc98f8211d9ba1f3465eeb,2024-10-02_02h52.31.027,mdp,2024.2.1,Win32,143.6781609,66fa4ebf79326e780c390304,,,,,,,,,,,,,,,,,,,,,,,,,,,,,,,,,,,,,,,,,,,,,,,,,,,,,,,,1247.376,1305.879,0,4,4,5,1,imgs/giraffe.png,imgs/cat.png,imgs/squirrel.png,imgs/lion.png,imgs/rabbit.png,,,,,,,,,,,,,,,,,,,,,,,,
,,5e248b6f0c0b31718a9d3f31,66fc98f8211d9ba1f3465eeb,2024-10-02_02h52.31.027,mdp,2024.2.1,Win32,143.6781609,66fa4ebf79326e780c390304,,,,,,,,,,,,,,2,seqs/st2seq4.csv,1305.882,1310.574,space,4.181,,1310.578,1310.578,1310.579,1311.791,0,1,left,0.699,,1311.792,1312.715,0,0,left,1312.716,1312.717,0,0,,1,1312.717,1312.717,1312.717,1314.217,0,0,0,0,1,0.4,0.6,0.6,0.4,,,,,,,,,,,,,,,0.416,,0.2,0.8,0.2,0.8,0.8,0.2,0.4,0.6,1,0,,,,,,,,,,,,
