init_exp.started,init_exp.stopped,participant,session,date,expName,psychopyVersion,OS,frameRate,study_id,disp_instruction.started,disp_instruction.stopped,instruction.thisRepN,instruction.thisTrialN,instruction.thisN,instruction.thisIndex,instruction.ran,instimg_path,consent.started,consent.stopped,key_resp_3.keys,key_resp_3.rt,key_resp_3.duration,n_steps,sequence_path,init_block.started,init_block.stopped,key_resp.keys,key_resp.rt,key_resp.duration,init_trials.started,init_trials.stopped,step0.started,step0.stopped,act0,s1,res0.keys,res0.rt,res0.duration,step1.started,step1.stopped,act1,s2,res1.keys,step2.started,step2.stopped,act2,s3,res2.keys,rew,reward_comp.started,reward_comp.stopped,reward_disp.started,reward_disp.stopped,trials.thisRepN,trials.thisTrialN,trials.thisN,trials.thisIndex,trials.ran,s00a0s10,s00a0s11,s00a1s10,s00a1s11,rew10,rew11,break_block.started,break_block.stopped,block.thisRepN,block.thisTrialN,block.thisN,block.thisIndex,block.ran,s00path,s10path,s11path,s20path,s21path,res1.rt,res1.duration,s10a0s20,s10a0s21,s10a1s20,s10a1s21,s11a0s20,s11a0s21,s11a1s20,s11a1s21,rew20,rew21,res2.rt,res2.duration,s20a0s30,s20a0s31,s20a1s30,s20a1s31,s21a0s30,s21a0s31,s21a1s30,s21a1s31,rew30,rew31
0.0003,0.0014,5e39cf6d0331aa07667a58ae,66fc9824caa5b98c125b655b,2024-10-02_02h48.55.359,mdp,2024.2.1,MacIntel,59.88023952,66fa4ebf79326e780c390304,,,,,,,,,,,,,,,,,,,,,,,,,,,,,,,,,,,,,,,,,,,,,,,,,,,,,,,,,,,,,,,,,,,,,,,,,,,,,,,,,,,,,,,,,,,
,,5e39cf6d0331aa07667a58ae,66fc9824caa5b98c125b655b,2024-10-02_02h48.55.359,mdp,2024.2.1,MacIntel,59.88023952,66fa4ebf79326e780c390304,0.0048,36.4349,0,0,0,0,1,rlnn_exp/rlnn_exp.001.png,,,,,,,,,,,,,,,,,,,,,,,,,,,,,,,,,,,,,,,,,,,,,,,,,,,,,,,,,,,,,,,,,,,,,,,,,,,,,,,,,,,
,,5e39cf6d0331aa07667a58ae,66fc9824caa5b98c125b655b,2024-10-02_02h48.55.359,mdp,2024.2.1,MacIntel,59.88023952,66fa4ebf79326e780c390304,36.4353,77.5033,0,1,1,1,1,rlnn_exp/rlnn_exp.002.png,,,,,,,,,,,,,,,,,,,,,,,,,,,,,,,,,,,,,,,,,,,,,,,,,,,,,,,,,,,,,,,,,,,,,,,,,,,,,,,,,,,
,,5e39cf6d0331aa07667a58ae,66fc9824caa5b98c125b655b,2024-10-02_02h48.55.359,mdp,2024.2.1,MacIntel,59.88023952,66fa4ebf79326e780c390304,77.5045,120.0548,0,2,2,2,1,rlnn_exp/rlnn_exp.003.png,,,,,,,,,,,,,,,,,,,,,,,,,,,,,,,,,,,,,,,,,,,,,,,,,,,,,,,,,,,,,,,,,,,,,,,,,,,,,,,,,,,
,,5e39cf6d0331aa07667a58ae,66fc9824caa5b98c125b655b,2024-10-02_02h48.55.359,mdp,2024.2.1,MacIntel,59.88023952,66fa4ebf79326e780c390304,120.0555,159.5724,0,3,3,3,1,rlnn_exp/rlnn_exp.004.png,,,,,,,,,,,,,,,,,,,,,,,,,,,,,,,,,,,,,,,,,,,,,,,,,,,,,,,,,,,,,,,,,,,,,,,,,,,,,,,,,,,
,,5e39cf6d0331aa07667a58ae,66fc9824caa5b98c125b655b,2024-10-02_02h48.55.359,mdp,2024.2.1,MacIntel,59.88023952,66fa4ebf79326e780c390304,,,,,,,,,159.5728,170.1733,y,0.5574,,,,,,,,,,,,,,,,,,,,,,,,,,,,,,,,,,,,,,,,,,,,,,,,,,,,,,,,,,,,,,,,,,,,,,,,,,,,,,,
,,5e39cf6d0331aa07667a58ae,66fc9824caa5b98c125b655b,2024-10-02_02h48.55.359,mdp,2024.2.1,MacIntel,59.88023952,66fa4ebf79326e780c390304,,,,,,,,,,,,,,1,seqs/st1seq34.csv,170.1795,172.2728,space,1.5671,,172.2768,172.2769,172.2773,175.5901,1,0,right,2.7784,,175.591,175.5931,,1,,175.5935,175.5944,,1,,1,175.5946,175.5946,175.5952,177.0899,0,0,0,0,1,0.6,0.4,0.2,0.8,1,0,,,,,,,,,,,,,,,,,,,,,,,,,,,,,,,,,,,,
,,5e39cf6d0331aa07667a58ae,66fc9824caa5b98c125b655b,2024-10-02_02h48.55.359,mdp,2024.2.1,MacIntel,59.88023952,66fa4ebf79326e780c390304,,,,,,,,,,,,,,,,,,,,,177.0905,177.0906,177.0921,178.8231,1,1,right,1.2059,,178.8246,178.8256,,1,,178.8263,178.8268,,1,,0,178.8268,178.8268,178.8272,180.3231,0,1,1,1,1,0.6,0.4,0.2,0.8,1,0,,,,,,,,,,,,,,,,,,,,,,,,,,,,,,,,,,,,
,,5e39cf6d0331aa07667a58ae,66fc9824caa5b98c125b655b,2024-10-02_02h48.55.359,mdp,2024.2.1,MacIntel,59.88023952,66fa4ebf79326e780c390304,,,,,,,,,,,,,,,,,,,,,180.3236,180.3236,180.3253,181.74,1,1,right,0.8841,,181.7414,181.7425,,1,,181.743,181.7434,,1,,0,181.7434,181.7434,181.7441,183.2398,0,2,2,2,1,0.6,0.4,0.2,0.8,1,0,,,,,,,,,,,,,,,,,,,,,,,,,,,,,,,,,,,,
,,5e39cf6d0331aa07667a58ae,66fc9824caa5b98c125b655b,2024-10-02_02h48.55.359,mdp,2024.2.1,MacIntel,59.88023952,66fa4ebf79326e780c390304,,,,,,,,,,,,,,,,,,,,,183.2403,183.2403,183.2419,185.0567,0,0,left,1.2851,,185.0583,185.0593,,1,,185.06,185.0603,,1,,1,185.0604,185.0604,185.0608,186.5563,0,3,3,3,1,0.6,0.4,0.2,0.8,1,0,,,,,,,,,,,,,,,,,,,,,,,,,,,,,,,,,,,,
,,5e39cf6d0331aa07667a58ae,66fc9824caa5b98c125b655b,2024-10-02_02h48.55.359,mdp,2024.2.1,MacIntel,59.88023952,66fa4ebf79326e780c390304,,,,,,,,,,,,,,,,,,,,,186.5565,186.5565,186.557,188.3068,1,0,right,1.233,,188.3083,188.3093,,1,,188.3098,188.31,,1,,1,188.3101,188.3101,188.3105,189.8068,0,4,4,4,1,0.6,0.4,0.2,0.8,1,0,,,,,,,,,,,,,,,,,,,,,,,,,,,,,,,,,,,,
,,5e39cf6d0331aa07667a58ae,66fc9824caa5b98c125b655b,2024-10-02_02h48.55.359,mdp,2024.2.1,MacIntel,59.88023952,66fa4ebf79326e780c390304,,,,,,,,,,,,,,,,,,,,,189.8073,189.8073,189.8089,191.5403,0,0,left,1.2003,,191.5418,191.5427,,0,,191.5432,191.5435,,0,,1,191.5435,191.5436,191.544,193.0402,0,5,5,5,1,0.6,0.4,0.2,0.8,1,0,,,,,,,,,,,,,,,,,,,,,,,,,,,,,,,,,,,,
,,5e39cf6d0331aa07667a58ae,66fc9824caa5b98c125b655b,2024-10-02_02h48.55.359,mdp,2024.2.1,MacIntel,59.88023952,66fa4ebf79326e780c390304,,,,,,,,,,,,,,,,,,,,,193.0408,193.0408,193.0423,194.1738,1,0,right,0.6017,,194.1751,194.176,,1,,194.1769,194.1774,,1,,1,194.1774,194.1774,194.1778,195.6737,0,6,6,6,1,0.6,0.4,0.2,0.8,1,0,,,,,,,,,,,,,,,,,,,,,,,,,,,,,,,,,,,,
,,5e39cf6d0331aa07667a58ae,66fc9824caa5b98c125b655b,2024-10-02_02h48.55.359,mdp,2024.2.1,MacIntel,59.88023952,66fa4ebf79326e780c390304,,,,,,,,,,,,,,,,,,,,,195.6742,195.6742,195.6758,196.7899,0,0,left,0.5865,,196.7911,196.7922,,1,,196.7929,196.7933,,1,,1,196.7933,196.7933,196.7936,198.2903,0,7,7,7,1,0.6,0.4,0.2,0.8,1,0,,,,,,,,,,,,,,,,,,,,,,,,,,,,,,,,,,,,
,,5e39cf6d0331aa07667a58ae,66fc9824caa5b98c125b655b,2024-10-02_02h48.55.359,mdp,2024.2.1,MacIntel,59.88023952,66fa4ebf79326e780c390304,,,,,,,,,,,,,,,,,,,,,198.2908,198.2909,198.2924,199.4072,1,0,right,0.5838,,199.4086,199.4095,,0,,199.41,199.4104,,0,,1,199.4104,199.4104,199.4108,200.9071,0,8,8,8,1,0.2,0.8,0.8,0.2,1,0,,,,,,,,,,,,,,,,,,,,,,,,,,,,,,,,,,,,
,,5e39cf6d0331aa07667a58ae,66fc9824caa5b98c125b655b,2024-10-02_02h48.55.359,mdp,2024.2.1,MacIntel,59.88023952,66fa4ebf79326e780c390304,,,,,,,,,,,,,,,,,,,,,200.9077,200.9077,200.9092,202.0072,0,1,left,0.5722,,202.0083,202.0094,,1,,202.0102,202.0107,,1,,0,202.0108,202.0108,202.011,203.5072,0,9,9,9,1,0.2,0.8,0.8,0.2,1,0,,,,,,,,,,,,,,,,,,,,,,,,,,,,,,,,,,,,
,,5e39cf6d0331aa07667a58ae,66fc9824caa5b98c125b655b,2024-10-02_02h48.55.359,mdp,2024.2.1,MacIntel,59.88023952,66fa4ebf79326e780c390304,,,,,,,,,,,,,,,,,,,,,203.5077,203.5077,203.5091,204.724,0,1,left,0.6831,,204.7253,204.7262,,1,,204.727,204.7274,,1,,0,204.7274,204.7274,204.7278,206.224,0,10,10,10,1,0.2,0.8,0.8,0.2,1,0,,,,,,,,,,,,,,,,,,,,,,,,,,,,,,,,,,,,
,,5e39cf6d0331aa07667a58ae,66fc9824caa5b98c125b655b,2024-10-02_02h48.55.359,mdp,2024.2.1,MacIntel,59.88023952,66fa4ebf79326e780c390304,,,,,,,,,,,,,,,,,,,,,206.2244,206.2244,206.2258,207.1574,1,0,right,0.3996,,207.1588,207.1598,,0,,207.1603,207.1607,,0,,1,207.1608,207.1608,207.1613,208.6573,0,11,11,11,1,0.2,0.8,0.8,0.2,1,0,,,,,,,,,,,,,,,,,,,,,,,,,,,,,,,,,,,,
,,5e39cf6d0331aa07667a58ae,66fc9824caa5b98c125b655b,2024-10-02_02h48.55.359,mdp,2024.2.1,MacIntel,59.88023952,66fa4ebf79326e780c390304,,,,,,,,,,,,,,,,,,,,,208.6578,208.6578,208.6591,209.7408,0,1,left,0.5495,,209.7423,209.7433,,1,,209.7437,209.7441,,1,,0,209.7441,209.7441,209.7449,211.2407,0,12,12,12,1,0.2,0.8,0.8,0.2,1,0,,,,,,,,,,,,,,,,,,,,,,,,,,,,,,,,,,,,
,,5e39cf6d0331aa07667a58ae,66fc9824caa5b98c125b655b,2024-10-02_02h48.55.359,mdp,2024.2.1,MacIntel,59.88023952,66fa4ebf79326e780c390304,,,,,,,,,,,,,,,,,,,,,211.2412,211.2412,211.2425,212.1908,1,0,right,0.4171,,212.1924,212.1932,,0,,212.1937,212.1941,,1,,1,212.1941,212.1941,212.1945,213.691,0,13,13,13,1,0.2,0.8,0.8,0.2,1,0,,,,,,,,,,,,,,,,,,,,,,,,,,,,,,,,,,,,
,,5e39cf6d0331aa07667a58ae,66fc9824caa5b98c125b655b,2024-10-02_02h48.55.359,mdp,2024.2.1,MacIntel,59.88023952,66fa4ebf79326e780c390304,,,,,,,,,,,,,,,,,,,,,213.6914,213.6914,213.6929,214.5743,0,1,left,0.3504,,214.5756,214.5767,,1,,214.5772,214.5775,,1,,0,214.5775,214.5775,214.5779,216.0744,0,14,14,14,1,0.2,0.8,0.8,0.2,1,0,,,,,,,,,,,,,,,,,,,,,,,,,,,,,,,,,,,,
,,5e39cf6d0331aa07667a58ae,66fc9824caa5b98c125b655b,2024-10-02_02h48.55.359,mdp,2024.2.1,MacIntel,59.88023952,66fa4ebf79326e780c390304,,,,,,,,,,,,,,,,,,,,,216.0748,216.0748,216.0763,216.9244,1,0,right,0.3199,,216.9258,216.9267,,1,,216.9276,216.9281,,0,,1,216.9281,216.9281,216.9286,218.4245,0,15,15,15,1,0.6,0.4,0.4,0.6,1,0,,,,,,,,,,,,,,,,,,,,,,,,,,,,,,,,,,,,
,,5e39cf6d0331aa07667a58ae,66fc9824caa5b98c125b655b,2024-10-02_02h48.55.359,mdp,2024.2.1,MacIntel,59.88023952,66fa4ebf79326e780c390304,,,,,,,,,,,,,,,,,,,,,218.4251,218.4251,218.4266,219.3578,1,0,right,0.4011,,219.3594,219.3603,,1,,219.3607,219.3615,,0,,1,219.3615,219.3615,219.3623,220.8577,0,16,16,16,1,0.6,0.4,0.4,0.6,1,0,,,,,,,,,,,,,,,,,,,,,,,,,,,,,,,,,,,,
,,5e39cf6d0331aa07667a58ae,66fc9824caa5b98c125b655b,2024-10-02_02h48.55.359,mdp,2024.2.1,MacIntel,59.88023952,66fa4ebf79326e780c390304,,,,,,,,,,,,,,,,,,,,,220.8582,220.8582,220.8597,221.8746,1,0,right,0.4859,,221.8761,221.8769,,0,,221.8777,221.8782,,0,,1,221.8782,221.8782,221.8786,223.3745,0,17,17,17,1,0.2,0.8,0.8,0.2,1,0,,,,,,,,,,,,,,,,,,,,,,,,,,,,,,,,,,,,
,,5e39cf6d0331aa07667a58ae,66fc9824caa5b98c125b655b,2024-10-02_02h48.55.359,mdp,2024.2.1,MacIntel,59.88023952,66fa4ebf79326e780c390304,,,,,,,,,,,,,,,,,,,,,223.3749,223.3749,223.3763,224.458,1,0,right,0.5501,,224.4596,224.4606,,0,,224.461,224.4614,,0,,1,224.4614,224.4615,224.4622,225.9581,0,18,18,18,1,0.2,0.8,0.8,0.2,1,0,,,,,,,,,,,,,,,,,,,,,,,,,,,,,,,,,,,,
,,5e39cf6d0331aa07667a58ae,66fc9824caa5b98c125b655b,2024-10-02_02h48.55.359,mdp,2024.2.1,MacIntel,59.88023952,66fa4ebf79326e780c390304,,,,,,,,,,,,,,,,,,,,,225.9586,225.9586,225.96,226.8413,1,0,right,0.3494,,226.8427,226.8437,,0,,226.8443,226.8446,,1,,1,226.8448,226.8448,226.8451,228.3414,0,19,19,19,1,0.2,0.8,0.8,0.2,1,0,,,,,,,,,,,,,,,,,,,,,,,,,,,,,,,,,,,,
,,5e39cf6d0331aa07667a58ae,66fc9824caa5b98c125b655b,2024-10-02_02h48.55.359,mdp,2024.2.1,MacIntel,59.88023952,66fa4ebf79326e780c390304,,,,,,,,,,,,,,,,,,,,,228.3419,228.3419,228.3433,229.3242,1,1,right,0.4504,,229.3254,229.3263,,1,,229.3268,229.3273,,1,,0,229.3274,229.3274,229.3283,230.8247,0,20,20,20,1,0.8,0.2,0.4,0.6,1,0,,,,,,,,,,,,,,,,,,,,,,,,,,,,,,,,,,,,
,,5e39cf6d0331aa07667a58ae,66fc9824caa5b98c125b655b,2024-10-02_02h48.55.359,mdp,2024.2.1,MacIntel,59.88023952,66fa4ebf79326e780c390304,,,,,,,,,,,,,,,,,,,,,230.8253,230.8253,230.8267,231.7415,0,0,left,0.3837,,231.743,231.7438,,1,,231.7443,231.7447,,0,,1,231.7448,231.7448,231.7452,233.2416,0,21,21,21,1,0.8,0.2,0.4,0.6,1,0,,,,,,,,,,,,,,,,,,,,,,,,,,,,,,,,,,,,
,,5e39cf6d0331aa07667a58ae,66fc9824caa5b98c125b655b,2024-10-02_02h48.55.359,mdp,2024.2.1,MacIntel,59.88023952,66fa4ebf79326e780c390304,,,,,,,,,,,,,,,,,,,,,233.2422,233.2422,233.2436,233.9416,1,0,right,0.167,,233.9431,233.9441,,1,,233.9444,233.9449,,0,,1,233.9449,233.9449,233.9452,235.4416,0,22,22,22,1,0.8,0.2,0.4,0.6,1,0,,,,,,,,,,,,,,,,,,,,,,,,,,,,,,,,,,,,
,,5e39cf6d0331aa07667a58ae,66fc9824caa5b98c125b655b,2024-10-02_02h48.55.359,mdp,2024.2.1,MacIntel,59.88023952,66fa4ebf79326e780c390304,,,,,,,,,,,,,,,,,,,,,235.442,235.442,235.4434,235.9918,0,0,left,0.0286,,235.9933,235.9942,,0,,235.9948,235.9952,,0,,1,235.9952,235.9952,235.9956,237.4917,0,23,23,23,1,0.8,0.2,0.4,0.6,1,0,,,,,,,,,,,,,,,,,,,,,,,,,,,,,,,,,,,,
,,5e39cf6d0331aa07667a58ae,66fc9824caa5b98c125b655b,2024-10-02_02h48.55.359,mdp,2024.2.1,MacIntel,59.88023952,66fa4ebf79326e780c390304,,,,,,,,,,,,,,,,,,,,,237.4923,237.4923,237.4937,239.0751,1,0,right,1.0513,,239.0765,239.0775,,1,,239.0779,239.0782,,1,,1,239.0782,239.0783,239.0789,240.5751,0,24,24,24,1,0.6,0.4,0.8,0.2,1,0,,,,,,,,,,,,,,,,,,,,,,,,,,,,,,,,,,,,
,,5e39cf6d0331aa07667a58ae,66fc9824caa5b98c125b655b,2024-10-02_02h48.55.359,mdp,2024.2.1,MacIntel,59.88023952,66fa4ebf79326e780c390304,,,,,,,,,,,,,,,,,,,,,240.5755,240.5756,240.5766,241.5584,0,0,left,0.4528,,241.56,241.5609,,0,,241.5614,241.5617,,0,,1,241.5618,241.5618,241.562,243.0585,0,25,25,25,1,0.6,0.4,0.8,0.2,1,0,,,,,,,,,,,,,,,,,,,,,,,,,,,,,,,,,,,,
,,5e39cf6d0331aa07667a58ae,66fc9824caa5b98c125b655b,2024-10-02_02h48.55.359,mdp,2024.2.1,MacIntel,59.88023952,66fa4ebf79326e780c390304,,,,,,,,,,,,,,,,,,,,,243.0589,243.0589,243.0602,243.8751,1,0,right,0.2848,,243.8759,243.8763,,0,,243.8766,243.8769,,1,,1,243.8769,243.8769,243.8772,245.3752,0,26,26,26,1,0.6,0.4,0.8,0.2,1,0,,,,,,,,,,,,,,,,,,,,,,,,,,,,,,,,,,,,
,,5e39cf6d0331aa07667a58ae,66fc9824caa5b98c125b655b,2024-10-02_02h48.55.359,mdp,2024.2.1,MacIntel,59.88023952,66fa4ebf79326e780c390304,,,,,,,,,,,,,,,,,,,,,245.3757,245.3757,245.3772,246.1588,0,1,left,0.2505,,246.1603,246.1612,,0,,246.1616,246.1619,,0,,0,246.162,246.162,246.1623,247.6587,0,27,27,27,1,0.6,0.4,0.8,0.2,1,0,,,,,,,,,,,,,,,,,,,,,,,,,,,,,,,,,,,,
,,5e39cf6d0331aa07667a58ae,66fc9824caa5b98c125b655b,2024-10-02_02h48.55.359,mdp,2024.2.1,MacIntel,59.88023952,66fa4ebf79326e780c390304,,,,,,,,,,,,,,,,,,,,,247.6592,247.6592,247.6603,248.4587,1,0,right,0.267,,248.46,248.4609,,0,,248.4612,248.4615,,0,,1,248.4615,248.4615,248.4619,249.9587,0,28,28,28,1,0.6,0.4,0.8,0.2,1,0,,,,,,,,,,,,,,,,,,,,,,,,,,,,,,,,,,,,
,,5e39cf6d0331aa07667a58ae,66fc9824caa5b98c125b655b,2024-10-02_02h48.55.359,mdp,2024.2.1,MacIntel,59.88023952,66fa4ebf79326e780c390304,,,,,,,,,,,,,,,,,,,,,249.9592,249.9592,249.9606,250.6921,0,0,left,0.2033,,250.6936,250.6945,,0,,250.6951,250.6954,,1,,1,250.6954,250.6955,250.6959,252.1921,0,29,29,29,1,0.6,0.4,0.8,0.2,1,0,,,,,,,,,,,,,,,,,,,,,,,,,,,,,,,,,,,,
,,5e39cf6d0331aa07667a58ae,66fc9824caa5b98c125b655b,2024-10-02_02h48.55.359,mdp,2024.2.1,MacIntel,59.88023952,66fa4ebf79326e780c390304,,,,,,,,,,,,,,,,,,,,,252.1925,252.1926,252.194,252.9921,1,0,right,0.2702,,252.9933,252.9941,,1,,252.9947,252.995,,1,,1,252.995,252.995,252.9953,254.4923,0,30,30,30,1,0.6,0.4,0.8,0.2,1,0,,,,,,,,,,,,,,,,,,,,,,,,,,,,,,,,,,,,
,,5e39cf6d0331aa07667a58ae,66fc9824caa5b98c125b655b,2024-10-02_02h48.55.359,mdp,2024.2.1,MacIntel,59.88023952,66fa4ebf79326e780c390304,,,,,,,,,,,,,,,,,,,,,254.4928,254.4928,254.4942,255.2757,0,0,left,0.254,,255.277,255.2778,,0,,255.2782,255.2784,,0,,1,255.2785,255.2785,255.2795,256.7757,0,31,31,31,1,0.6,0.4,0.8,0.2,1,0,,,,,,,,,,,,,,,,,,,,,,,,,,,,,,,,,,,,
,,5e39cf6d0331aa07667a58ae,66fc9824caa5b98c125b655b,2024-10-02_02h48.55.359,mdp,2024.2.1,MacIntel,59.88023952,66fa4ebf79326e780c390304,,,,,,,,,,,,,,,,,,,,,256.7762,256.7762,256.7776,257.5756,1,0,right,0.266,,257.5769,257.5777,,0,,257.5782,257.5785,,0,,1,257.5785,257.5786,257.5789,259.0757,0,32,32,32,1,0.6,0.4,0.8,0.2,1,0,,,,,,,,,,,,,,,,,,,,,,,,,,,,,,,,,,,,
,,5e39cf6d0331aa07667a58ae,66fc9824caa5b98c125b655b,2024-10-02_02h48.55.359,mdp,2024.2.1,MacIntel,59.88023952,66fa4ebf79326e780c390304,,,,,,,,,,,,,,,,,,,,,259.0762,259.0762,259.0778,259.8258,0,0,left,0.2169,,259.8271,259.8281,,0,,259.8285,259.8289,,1,,1,259.8289,259.8289,259.8294,261.3259,0,33,33,33,1,0.6,0.4,0.8,0.2,1,0,,,,,,,,,,,,,,,,,,,,,,,,,,,,,,,,,,,,
,,5e39cf6d0331aa07667a58ae,66fc9824caa5b98c125b655b,2024-10-02_02h48.55.359,mdp,2024.2.1,MacIntel,59.88023952,66fa4ebf79326e780c390304,,,,,,,,,,,,,,,,,,,,,261.3263,261.3263,261.3277,262.0925,1,0,right,0.2338,,262.094,262.095,,0,,262.0954,262.0958,,1,,1,262.0958,262.0958,262.0962,263.5925,0,34,34,34,1,0.6,0.4,0.8,0.2,1,0,,,,,,,,,,,,,,,,,,,,,,,,,,,,,,,,,,,,
,,5e39cf6d0331aa07667a58ae,66fc9824caa5b98c125b655b,2024-10-02_02h48.55.359,mdp,2024.2.1,MacIntel,59.88023952,66fa4ebf79326e780c390304,,,,,,,,,,,,,,,,,,,,,263.593,263.593,263.5946,264.276,0,0,left,0.1545,,264.2773,264.2781,,0,,264.2785,264.2788,,1,,1,264.2789,264.2789,264.2791,265.7759,0,35,35,35,1,0.6,0.4,0.8,0.2,1,0,,,,,,,,,,,,,,,,,,,,,,,,,,,,,,,,,,,,
,,5e39cf6d0331aa07667a58ae,66fc9824caa5b98c125b655b,2024-10-02_02h48.55.359,mdp,2024.2.1,MacIntel,59.88023952,66fa4ebf79326e780c390304,,,,,,,,,,,,,,,,,,,,,265.7764,265.7764,265.7777,266.7261,1,0,right,0.4173,,266.7275,266.7285,,0,,266.7288,266.7292,,0,,1,266.7292,266.7292,266.7296,268.226,0,36,36,36,1,0.8,0.2,0.6,0.4,1,0,,,,,,,,,,,,,,,,,,,,,,,,,,,,,,,,,,,,
,,5e39cf6d0331aa07667a58ae,66fc9824caa5b98c125b655b,2024-10-02_02h48.55.359,mdp,2024.2.1,MacIntel,59.88023952,66fa4ebf79326e780c390304,,,,,,,,,,,,,,,,,,,,,268.2264,268.2264,268.2278,269.1261,0,1,left,0.3673,,269.1275,269.1285,,1,,269.1289,269.1293,,0,,0,269.1293,269.1293,269.1296,270.6261,0,37,37,37,1,0.8,0.2,0.6,0.4,1,0,,,,,,,,,,,,,,,,,,,,,,,,,,,,,,,,,,,,
,,5e39cf6d0331aa07667a58ae,66fc9824caa5b98c125b655b,2024-10-02_02h48.55.359,mdp,2024.2.1,MacIntel,59.88023952,66fa4ebf79326e780c390304,,,,,,,,,,,,,,,,,,,,,270.6265,270.6265,270.6279,271.2594,1,0,right,0.1055,,271.2606,271.2615,,0,,271.2624,271.2629,,0,,1,271.263,271.263,271.2633,272.7595,0,38,38,38,1,0.8,0.2,0.6,0.4,1,0,,,,,,,,,,,,,,,,,,,,,,,,,,,,,,,,,,,,
,,5e39cf6d0331aa07667a58ae,66fc9824caa5b98c125b655b,2024-10-02_02h48.55.359,mdp,2024.2.1,MacIntel,59.88023952,66fa4ebf79326e780c390304,,,,,,,,,,,,,,,,,,,,,272.76,272.76,272.7613,273.5429,1,0,right,0.254,,273.5441,273.545,,1,,273.5457,273.5462,,0,,1,273.5462,273.5462,273.5468,275.0429,0,39,39,39,1,0.8,0.2,0.6,0.4,1,0,,,,,,,,,,,,,,,,,,,,,,,,,,,,,,,,,,,,
,,5e39cf6d0331aa07667a58ae,66fc9824caa5b98c125b655b,2024-10-02_02h48.55.359,mdp,2024.2.1,MacIntel,59.88023952,66fa4ebf79326e780c390304,,,,,,,,,,,,,,,,,,,,,275.0433,275.0434,275.0459,275.9094,0,0,left,0.3323,,275.9101,275.9105,,0,,275.9109,275.9111,,0,,1,275.9111,275.9111,275.9113,277.4096,0,40,40,40,1,0.8,0.2,0.6,0.4,1,0,,,,,,,,,,,,,,,,,,,,,,,,,,,,,,,,,,,,
,,5e39cf6d0331aa07667a58ae,66fc9824caa5b98c125b655b,2024-10-02_02h48.55.359,mdp,2024.2.1,MacIntel,59.88023952,66fa4ebf79326e780c390304,,,,,,,,,,,,,,,,,,,,,277.4101,277.4101,277.4115,278.7431,1,1,right,0.8002,,278.7445,278.7455,,1,,278.746,278.7463,,0,,0,278.7464,278.7464,278.7466,280.243,0,41,41,41,1,0.8,0.2,0.6,0.4,1,0,,,,,,,,,,,,,,,,,,,,,,,,,,,,,,,,,,,,
,,5e39cf6d0331aa07667a58ae,66fc9824caa5b98c125b655b,2024-10-02_02h48.55.359,mdp,2024.2.1,MacIntel,59.88023952,66fa4ebf79326e780c390304,,,,,,,,,,,,,,,,,,,,,280.2435,280.2435,280.2451,280.8598,0,0,left,0.0837,,280.8612,280.8621,,0,,280.8626,280.8629,,0,,1,280.8629,280.8629,280.8633,282.3598,0,42,42,42,1,0.8,0.2,0.6,0.4,1,0,,,,,,,,,,,,,,,,,,,,,,,,,,,,,,,,,,,,
,,5e39cf6d0331aa07667a58ae,66fc9824caa5b98c125b655b,2024-10-02_02h48.55.359,mdp,2024.2.1,MacIntel,59.88023952,66fa4ebf79326e780c390304,,,,,,,,,,,,,,,,,,,,,282.3603,282.3603,282.3617,283.3933,0,1,left,0.5014,,283.3946,283.3954,,1,,283.3959,283.3962,,0,,0,283.3962,283.3962,283.3964,284.8932,0,43,43,43,1,0.6,0.4,0.2,0.8,1,0,,,,,,,,,,,,,,,,,,,,,,,,,,,,,,,,,,,,
,,5e39cf6d0331aa07667a58ae,66fc9824caa5b98c125b655b,2024-10-02_02h48.55.359,mdp,2024.2.1,MacIntel,59.88023952,66fa4ebf79326e780c390304,,,,,,,,,,,,,,,,,,,,,284.8937,284.8937,284.8951,285.86,1,0,right,0.4336,,285.8614,285.8622,,1,,285.8626,285.8631,,0,,1,285.8631,285.8631,285.8638,287.3599,0,44,44,44,1,0.8,0.2,0.8,0.2,1,0,,,,,,,,,,,,,,,,,,,,,,,,,,,,,,,,,,,,
,,5e39cf6d0331aa07667a58ae,66fc9824caa5b98c125b655b,2024-10-02_02h48.55.359,mdp,2024.2.1,MacIntel,59.88023952,66fa4ebf79326e780c390304,,,,,,,,,,,,,,,,,,,,,287.3604,287.3604,287.3616,288.26,0,1,left,0.3674,,288.2614,288.2624,,1,,288.2629,288.2632,,0,,0,288.2632,288.2632,288.2637,289.76,0,45,45,45,1,0.8,0.2,0.8,0.2,1,0,,,,,,,,,,,,,,,,,,,,,,,,,,,,,,,,,,,,
,,5e39cf6d0331aa07667a58ae,66fc9824caa5b98c125b655b,2024-10-02_02h48.55.359,mdp,2024.2.1,MacIntel,59.88023952,66fa4ebf79326e780c390304,,,,,,,,,,,,,,,,,,,,,289.7605,289.7605,289.762,290.5591,1,0,right,0.2671,,290.5602,290.561,,0,,290.5614,290.5618,,0,,1,290.5618,290.5618,290.562,292.0601,0,46,46,46,1,0.6,0.4,0.4,0.6,1,0,,,,,,,,,,,,,,,,,,,,,,,,,,,,,,,,,,,,
,,5e39cf6d0331aa07667a58ae,66fc9824caa5b98c125b655b,2024-10-02_02h48.55.359,mdp,2024.2.1,MacIntel,59.88023952,66fa4ebf79326e780c390304,,,,,,,,,,,,,,,,,,,,,292.0606,292.0606,292.062,292.8935,1,0,right,0.2991,,292.8947,292.8956,,0,,292.8964,292.8969,,1,,1,292.8969,292.8969,292.8973,294.3925,0,47,47,47,1,0.6,0.4,0.4,0.6,1,0,,,,,,,,,,,,,,,,,,,,,,,,,,,,,,,,,,,,
,,5e39cf6d0331aa07667a58ae,66fc9824caa5b98c125b655b,2024-10-02_02h48.55.359,mdp,2024.2.1,MacIntel,59.88023952,66fa4ebf79326e780c390304,,,,,,,,,,,,,,,,,,,,,294.3931,294.3931,294.3942,297.0264,1,1,right,2.1,,297.0279,297.0289,,0,,297.0295,297.0299,,0,,0,297.0299,297.0299,297.0304,298.527,0,48,48,48,1,0.2,0.8,0.8,0.2,1,0,,,,,,,,,,,,,,,,,,,,,,,,,,,,,,,,,,,,
,,5e39cf6d0331aa07667a58ae,66fc9824caa5b98c125b655b,2024-10-02_02h48.55.359,mdp,2024.2.1,MacIntel,59.88023952,66fa4ebf79326e780c390304,,,,,,,,,,,,,,,,,,,,,298.5276,298.5276,298.5292,300.7271,1,1,right,1.6669,,300.7285,300.7295,,1,,300.73,300.7305,,1,,0,300.7305,300.7305,300.7309,302.2272,0,49,49,49,1,0.6,0.4,0.6,0.4,1,0,,,,,,,,,,,,,,,,,,,,,,,,,,,,,,,,,,,,
,,5e39cf6d0331aa07667a58ae,66fc9824caa5b98c125b655b,2024-10-02_02h48.55.359,mdp,2024.2.1,MacIntel,59.88023952,66fa4ebf79326e780c390304,,,,,,,,,,,,,,,,,,,,,,,,,,,,,,,,,,,,,,,,,,,,,,,,,,,,,,,,302.2277,360.7461,0,0,0,8,1,imgs/dog.png,imgs/pig.png,imgs/cat.png,imgs/squirrel.png,imgs/goat.png,,,,,,,,,,,,,,,,,,,,,,,,
,,5e39cf6d0331aa07667a58ae,66fc9824caa5b98c125b655b,2024-10-02_02h48.55.359,mdp,2024.2.1,MacIntel,59.88023952,66fa4ebf79326e780c390304,,,,,,,,,,,,,,2,seqs/st2seq0.csv,360.748,363.6126,space,2.3451,,363.618,363.618,363.6192,365.096,0,1,left,0.9516,,365.0976,366.4948,1,0,right,366.4958,366.4963,,0,,1,366.4963,366.4964,366.4967,367.9956,0,0,0,0,1,0.2,0.8,0.6,0.4,,,,,,,,,,,,,,,0.8671,,0.2,0.8,0.6,0.4,0.2,0.8,0.2,0.8,1,0,,,,,,,,,,,,
,,5e39cf6d0331aa07667a58ae,66fc9824caa5b98c125b655b,2024-10-02_02h48.55.359,mdp,2024.2.1,MacIntel,59.88023952,66fa4ebf79326e780c390304,,,,,,,,,,,,,,,,,,,,,367.9958,367.9958,367.9961,368.812,0,1,left,0.3017,,368.8132,369.6626,1,1,right,369.6642,369.6651,,1,,0,369.6651,369.6651,369.6656,371.1626,0,1,1,1,1,0.2,0.8,0.6,0.4,,,,,,,,,,,,,,,0.3341,,0.2,0.8,0.6,0.4,0.2,0.8,0.2,0.8,1,0,,,,,,,,,,,,
,,5e39cf6d0331aa07667a58ae,66fc9824caa5b98c125b655b,2024-10-02_02h48.55.359,mdp,2024.2.1,MacIntel,59.88023952,66fa4ebf79326e780c390304,,,,,,,,,,,,,,,,,,,,,371.1632,371.1632,371.1645,372.3795,1,0,right,0.6832,,372.3808,373.2295,0,1,left,373.2308,373.2317,,1,,0,373.2317,373.2317,373.2322,374.7295,0,2,2,2,1,0.2,0.8,0.6,0.4,,,,,,,,,,,,,,,0.3155,,0.2,0.8,0.6,0.4,0.2,0.8,0.2,0.8,1,0,,,,,,,,,,,,
,,5e39cf6d0331aa07667a58ae,66fc9824caa5b98c125b655b,2024-10-02_02h48.55.359,mdp,2024.2.1,MacIntel,59.88023952,66fa4ebf79326e780c390304,,,,,,,,,,,,,,,,,,,,,374.73,374.73,374.7314,375.5629,0,1,left,0.3,,375.5645,376.2787,1,1,right,376.28,376.2809,,1,,0,376.281,376.281,376.2817,377.7796,0,3,3,3,1,0.2,0.8,0.6,0.4,,,,,,,,,,,,,,,0.1832,,0.2,0.8,0.6,0.4,0.2,0.8,0.2,0.8,1,0,,,,,,,,,,,,
,,5e39cf6d0331aa07667a58ae,66fc9824caa5b98c125b655b,2024-10-02_02h48.55.359,mdp,2024.2.1,MacIntel,59.88023952,66fa4ebf79326e780c390304,,,,,,,,,,,,,,,,,,,,,377.7801,377.7801,377.7815,378.546,0,1,left,0.2456,,378.5468,379.3131,0,0,left,379.3144,379.3153,,1,,1,379.3153,379.3153,379.3158,380.8131,0,4,4,4,1,0.2,0.8,0.6,0.4,,,,,,,,,,,,,,,0.2524,,0.2,0.8,0.6,0.4,0.2,0.8,0.2,0.8,1,0,,,,,,,,,,,,
,,5e39cf6d0331aa07667a58ae,66fc9824caa5b98c125b655b,2024-10-02_02h48.55.359,mdp,2024.2.1,MacIntel,59.88023952,66fa4ebf79326e780c390304,,,,,,,,,,,,,,,,,,,,,380.8135,380.8135,380.815,381.5797,1,0,right,0.2384,,381.5811,382.1131,1,0,right,382.1145,382.1154,,0,,1,382.1154,382.1154,382.1162,383.6131,0,5,5,5,1,0.2,0.8,0.6,0.4,,,,,,,,,,,,,,,0.0004,,0.2,0.8,0.6,0.4,0.2,0.8,0.2,0.8,1,0,,,,,,,,,,,,
,,5e39cf6d0331aa07667a58ae,66fc9824caa5b98c125b655b,2024-10-02_02h48.55.359,mdp,2024.2.1,MacIntel,59.88023952,66fa4ebf79326e780c390304,,,,,,,,,,,,,,,,,,,,,383.6135,383.6136,383.6149,384.5298,0,0,left,0.3842,,384.5312,385.829,1,0,right,385.8302,385.8311,,0,,1,385.8311,385.8311,385.8316,387.3299,0,6,6,6,1,0.2,0.8,0.6,0.4,,,,,,,,,,,,,,,0.7672,,0.2,0.8,0.6,0.4,0.2,0.8,0.2,0.8,1,0,,,,,,,,,,,,
,,5e39cf6d0331aa07667a58ae,66fc9824caa5b98c125b655b,2024-10-02_02h48.55.359,mdp,2024.2.1,MacIntel,59.88023952,66fa4ebf79326e780c390304,,,,,,,,,,,,,,,,,,,,,387.3304,387.3305,387.3318,387.8632,1,0,right,0.0004,,387.8645,388.68,0,1,left,388.6814,388.6824,,0,,0,388.6825,388.6825,388.6829,390.1801,0,7,7,7,1,0.2,0.8,0.6,0.4,,,,,,,,,,,,,,,0.2837,,0.2,0.8,0.6,0.4,0.2,0.8,0.2,0.8,1,0,,,,,,,,,,,,
,,5e39cf6d0331aa07667a58ae,66fc9824caa5b98c125b655b,2024-10-02_02h48.55.359,mdp,2024.2.1,MacIntel,59.88023952,66fa4ebf79326e780c390304,,,,,,,,,,,,,,,,,,,,,390.1807,390.1807,390.1822,390.8134,0,1,left,0.1,,390.8149,391.8302,0,1,left,391.8315,391.8324,,1,,0,391.8324,391.8324,391.8328,393.3302,0,8,8,8,1,0.2,0.8,0.6,0.4,,,,,,,,,,,,,,,0.4838,,0.2,0.8,0.6,0.4,0.2,0.8,0.2,0.8,1,0,,,,,,,,,,,,
,,5e39cf6d0331aa07667a58ae,66fc9824caa5b98c125b655b,2024-10-02_02h48.55.359,mdp,2024.2.1,MacIntel,59.88023952,66fa4ebf79326e780c390304,,,,,,,,,,,,,,,,,,,,,393.3307,393.3308,393.3323,394.0969,1,0,right,0.2338,,394.0983,394.8468,1,0,right,394.8479,394.8486,,0,,1,394.8486,394.8486,394.8491,396.3469,0,9,9,9,1,0.2,0.8,0.6,0.4,,,,,,,,,,,,,,,0.2137,,0.2,0.8,0.6,0.4,0.2,0.8,0.2,0.8,1,0,,,,,,,,,,,,
,,5e39cf6d0331aa07667a58ae,66fc9824caa5b98c125b655b,2024-10-02_02h48.55.359,mdp,2024.2.1,MacIntel,59.88023952,66fa4ebf79326e780c390304,,,,,,,,,,,,,,,,,,,,,396.3474,396.3474,396.3488,397.197,0,0,left,0.3163,,397.1986,397.8471,1,0,right,397.8485,397.8493,,0,,1,397.8493,397.8493,397.8497,399.3469,0,10,10,10,1,0.2,0.8,0.6,0.4,,,,,,,,,,,,,,,0.122,,0.2,0.8,0.6,0.4,0.2,0.8,0.2,0.8,1,0,,,,,,,,,,,,
,,5e39cf6d0331aa07667a58ae,66fc9824caa5b98c125b655b,2024-10-02_02h48.55.359,mdp,2024.2.1,MacIntel,59.88023952,66fa4ebf79326e780c390304,,,,,,,,,,,,,,,,,,,,,399.3476,399.3476,399.3489,400.1802,1,0,right,0.3003,,400.1815,400.7464,0,1,left,400.7476,400.7485,,1,,0,400.7486,400.7486,400.7491,402.247,0,11,11,11,1,0.2,0.8,0.6,0.4,,,,,,,,,,,,,,,0.0338,,0.2,0.8,0.6,0.4,0.2,0.8,0.2,0.8,1,0,,,,,,,,,,,,
,,5e39cf6d0331aa07667a58ae,66fc9824caa5b98c125b655b,2024-10-02_02h48.55.359,mdp,2024.2.1,MacIntel,59.88023952,66fa4ebf79326e780c390304,,,,,,,,,,,,,,,,,,,,,402.2476,402.2476,402.249,403.6138,0,1,left,0.833,,403.6151,404.7972,1,0,right,404.7987,404.7996,,1,,1,404.7997,404.7997,404.8001,406.2971,0,12,12,12,1,0.2,0.8,0.6,0.4,,,,,,,,,,,,,,,0.6472,,0.2,0.8,0.6,0.4,0.2,0.8,0.2,0.8,1,0,,,,,,,,,,,,
,,5e39cf6d0331aa07667a58ae,66fc9824caa5b98c125b655b,2024-10-02_02h48.55.359,mdp,2024.2.1,MacIntel,59.88023952,66fa4ebf79326e780c390304,,,,,,,,,,,,,,,,,,,,,406.2977,406.2977,406.2993,407.114,0,1,left,0.2865,,407.1153,408.0301,1,1,right,408.0315,408.0323,,0,,0,408.0324,408.0324,408.0328,409.5308,0,13,13,13,1,0.2,0.8,0.6,0.4,,,,,,,,,,,,,,,0.384,,0.2,0.8,0.6,0.4,0.2,0.8,0.2,0.8,1,0,,,,,,,,,,,,
,,5e39cf6d0331aa07667a58ae,66fc9824caa5b98c125b655b,2024-10-02_02h48.55.359,mdp,2024.2.1,MacIntel,59.88023952,66fa4ebf79326e780c390304,,,,,,,,,,,,,,,,,,,,,409.5313,409.5313,409.5326,410.4141,0,1,left,0.3521,,410.4156,410.9641,1,0,right,410.9656,410.9665,,1,,1,410.9666,410.9666,410.967,412.4641,0,14,14,14,1,0.2,0.8,0.6,0.4,,,,,,,,,,,,,,,0.0168,,0.2,0.8,0.6,0.4,0.2,0.8,0.2,0.8,1,0,,,,,,,,,,,,
,,5e39cf6d0331aa07667a58ae,66fc9824caa5b98c125b655b,2024-10-02_02h48.55.359,mdp,2024.2.1,MacIntel,59.88023952,66fa4ebf79326e780c390304,,,,,,,,,,,,,,,,,,,,,412.4646,412.4646,412.466,413.5475,0,1,left,0.5526,,413.5489,414.2476,1,1,right,414.2491,414.25,,0,,0,414.2501,414.2501,414.2505,415.7475,0,15,15,15,1,0.2,0.8,0.6,0.4,,,,,,,,,,,,,,,0.1668,,0.2,0.8,0.6,0.4,0.2,0.8,0.2,0.8,1,0,,,,,,,,,,,,
,,5e39cf6d0331aa07667a58ae,66fc9824caa5b98c125b655b,2024-10-02_02h48.55.359,mdp,2024.2.1,MacIntel,59.88023952,66fa4ebf79326e780c390304,,,,,,,,,,,,,,,,,,,,,415.748,415.748,415.7494,416.4976,1,1,right,0.2221,,416.499,417.031,0,1,left,417.0325,417.0333,,1,,0,417.0334,417.0334,417.0338,418.5309,0,16,16,16,1,0.2,0.8,0.6,0.4,,,,,,,,,,,,,,,0.0004,,0.2,0.8,0.6,0.4,0.2,0.8,0.2,0.8,1,0,,,,,,,,,,,,
,,5e39cf6d0331aa07667a58ae,66fc9824caa5b98c125b655b,2024-10-02_02h48.55.359,mdp,2024.2.1,MacIntel,59.88023952,66fa4ebf79326e780c390304,,,,,,,,,,,,,,,,,,,,,418.5314,418.5314,418.5328,419.1644,0,0,left,0.1004,,419.1657,420.197,1,1,right,420.1981,420.1989,,1,,0,420.199,420.199,420.1998,421.6977,0,17,17,17,1,0.2,0.8,0.6,0.4,,,,,,,,,,,,,,,0.4979,,0.2,0.8,0.6,0.4,0.2,0.8,0.2,0.8,1,0,,,,,,,,,,,,
,,5e39cf6d0331aa07667a58ae,66fc9824caa5b98c125b655b,2024-10-02_02h48.55.359,mdp,2024.2.1,MacIntel,59.88023952,66fa4ebf79326e780c390304,,,,,,,,,,,,,,,,,,,,,421.6981,421.6982,421.6995,422.5646,1,1,right,0.3338,,422.5661,423.5643,0,1,left,423.5657,423.5665,,0,,0,423.5666,423.5666,423.5673,425.0644,0,18,18,18,1,0.2,0.8,0.6,0.4,,,,,,,,,,,,,,,0.4666,,0.2,0.8,0.6,0.4,0.2,0.8,0.2,0.8,1,0,,,,,,,,,,,,
,,5e39cf6d0331aa07667a58ae,66fc9824caa5b98c125b655b,2024-10-02_02h48.55.359,mdp,2024.2.1,MacIntel,59.88023952,66fa4ebf79326e780c390304,,,,,,,,,,,,,,,,,,,,,425.065,425.065,425.0663,425.9137,0,1,left,0.3187,,425.9147,426.898,1,1,right,426.8993,426.9001,,0,,0,426.9002,426.9002,426.9007,428.3979,0,19,19,19,1,0.2,0.8,0.6,0.4,,,,,,,,,,,,,,,0.467,,0.2,0.8,0.6,0.4,0.2,0.8,0.2,0.8,1,0,,,,,,,,,,,,
,,5e39cf6d0331aa07667a58ae,66fc9824caa5b98c125b655b,2024-10-02_02h48.55.359,mdp,2024.2.1,MacIntel,59.88023952,66fa4ebf79326e780c390304,,,,,,,,,,,,,,,,,,,,,428.3985,428.3985,428.4,429.2147,0,1,left,0.2888,,429.216,430.0147,0,1,left,430.016,430.0169,,1,,0,430.0169,430.017,430.0178,431.5147,0,20,20,20,1,0.2,0.8,0.6,0.4,,,,,,,,,,,,,,,0.2707,,0.2,0.8,0.6,0.4,0.2,0.8,0.2,0.8,1,0,,,,,,,,,,,,
,,5e39cf6d0331aa07667a58ae,66fc9824caa5b98c125b655b,2024-10-02_02h48.55.359,mdp,2024.2.1,MacIntel,59.88023952,66fa4ebf79326e780c390304,,,,,,,,,,,,,,,,,,,,,431.5151,431.5151,431.516,432.1816,1,1,right,0.133,,432.1829,433.1648,1,1,right,433.1663,433.1672,,1,,0,433.1673,433.1673,433.1678,434.6649,0,21,21,21,1,0.2,0.8,0.6,0.4,,,,,,,,,,,,,,,0.4508,,0.2,0.8,0.6,0.4,0.2,0.8,0.2,0.8,1,0,,,,,,,,,,,,
,,5e39cf6d0331aa07667a58ae,66fc9824caa5b98c125b655b,2024-10-02_02h48.55.359,mdp,2024.2.1,MacIntel,59.88023952,66fa4ebf79326e780c390304,,,,,,,,,,,,,,,,,,,,,434.6654,434.6654,434.6667,435.5982,0,1,left,0.4005,,435.5996,436.4979,1,1,right,436.4983,436.4986,,0,,0,436.4986,436.4986,436.4988,437.9982,0,22,22,22,1,0.6,0.4,0.8,0.2,,,,,,,,,,,,,,,0.3763,,0.2,0.8,0.6,0.4,0.2,0.8,0.2,0.8,1,0,,,,,,,,,,,,
,,5e39cf6d0331aa07667a58ae,66fc9824caa5b98c125b655b,2024-10-02_02h48.55.359,mdp,2024.2.1,MacIntel,59.88023952,66fa4ebf79326e780c390304,,,,,,,,,,,,,,,,,,,,,437.9989,437.9989,438.0001,438.8483,1,0,right,0.3171,,438.8497,439.5983,0,1,left,439.5996,439.6005,,0,,0,439.6006,439.6006,439.601,441.0984,0,23,23,23,1,0.6,0.4,0.8,0.2,,,,,,,,,,,,,,,0.2181,,0.2,0.8,0.6,0.4,0.2,0.8,0.2,0.8,1,0,,,,,,,,,,,,
,,5e39cf6d0331aa07667a58ae,66fc9824caa5b98c125b655b,2024-10-02_02h48.55.359,mdp,2024.2.1,MacIntel,59.88023952,66fa4ebf79326e780c390304,,,,,,,,,,,,,,,,,,,,,441.0989,441.0989,441.1003,441.9148,0,1,left,0.2924,,441.9152,442.5151,0,0,left,442.5166,442.5175,,0,,1,442.5175,442.5175,442.518,444.0151,0,24,24,24,1,0.6,0.4,0.8,0.2,,,,,,,,,,,,,,,0.0809,,0.2,0.8,0.6,0.4,0.4,0.6,0.6,0.4,1,0,,,,,,,,,,,,
,,5e39cf6d0331aa07667a58ae,66fc9824caa5b98c125b655b,2024-10-02_02h48.55.359,mdp,2024.2.1,MacIntel,59.88023952,66fa4ebf79326e780c390304,,,,,,,,,,,,,,,,,,,,,444.0156,444.0156,444.0169,444.8818,1,0,right,0.3365,,444.8833,445.8152,1,1,right,445.8164,445.8173,,1,,0,445.8174,445.8174,445.8178,447.3153,0,25,25,25,1,0.6,0.4,0.8,0.2,,,,,,,,,,,,,,,0.4036,,0.2,0.8,0.6,0.4,0.4,0.6,0.6,0.4,1,0,,,,,,,,,,,,
,,5e39cf6d0331aa07667a58ae,66fc9824caa5b98c125b655b,2024-10-02_02h48.55.359,mdp,2024.2.1,MacIntel,59.88023952,66fa4ebf79326e780c390304,,,,,,,,,,,,,,,,,,,,,447.3157,447.3157,447.3171,448.1486,0,1,left,0.3005,,448.1501,449.0653,0,0,left,449.0667,449.0676,,1,,1,449.0676,449.0676,449.068,450.5653,0,26,26,26,1,0.6,0.4,0.8,0.2,,,,,,,,,,,,,,,0.3831,,0.2,0.8,0.6,0.4,0.2,0.8,0.4,0.6,1,0,,,,,,,,,,,,
,,5e39cf6d0331aa07667a58ae,66fc9824caa5b98c125b655b,2024-10-02_02h48.55.359,mdp,2024.2.1,MacIntel,59.88023952,66fa4ebf79326e780c390304,,,,,,,,,,,,,,,,,,,,,450.5658,450.5658,450.5671,451.4654,0,0,left,0.3662,,451.4668,452.1987,0,1,left,452.2,452.201,,1,,0,452.201,452.201,452.2015,453.6988,0,27,27,27,1,0.6,0.4,0.8,0.2,,,,,,,,,,,,,,,0.2083,,0.2,0.8,0.6,0.4,0.2,0.8,0.4,0.6,1,0,,,,,,,,,,,,
,,5e39cf6d0331aa07667a58ae,66fc9824caa5b98c125b655b,2024-10-02_02h48.55.359,mdp,2024.2.1,MacIntel,59.88023952,66fa4ebf79326e780c390304,,,,,,,,,,,,,,,,,,,,,453.6994,453.6994,453.7008,454.4989,0,1,left,0.2692,,454.5001,455.4822,0,0,left,455.4838,455.4846,,1,,1,455.4847,455.4847,455.4853,456.9821,0,28,28,28,1,0.8,0.2,0.2,0.8,,,,,,,,,,,,,,,0.4482,,0.2,0.8,0.6,0.4,0.2,0.8,0.4,0.6,1,0,,,,,,,,,,,,
,,5e39cf6d0331aa07667a58ae,66fc9824caa5b98c125b655b,2024-10-02_02h48.55.359,mdp,2024.2.1,MacIntel,59.88023952,66fa4ebf79326e780c390304,,,,,,,,,,,,,,,,,,,,,456.9826,456.9826,456.9839,457.8489,0,0,left,0.3335,,457.8503,458.4154,0,0,left,458.4161,458.4166,,0,,1,458.4166,458.4166,458.417,459.9157,0,29,29,29,1,0.8,0.2,0.2,0.8,,,,,,,,,,,,,,,0.0405,,0.2,0.8,0.6,0.4,0.2,0.8,0.4,0.6,1,0,,,,,,,,,,,,
,,5e39cf6d0331aa07667a58ae,66fc9824caa5b98c125b655b,2024-10-02_02h48.55.359,mdp,2024.2.1,MacIntel,59.88023952,66fa4ebf79326e780c390304,,,,,,,,,,,,,,,,,,,,,459.9162,459.9162,459.9174,460.7324,0,0,left,0.2838,,460.7338,461.2991,0,1,left,461.3004,461.3014,,1,,0,461.3014,461.3014,461.3023,462.7992,0,30,30,30,1,0.8,0.2,0.2,0.8,,,,,,,,,,,,,,,0.0374,,0.2,0.8,0.6,0.4,0.2,0.8,0.4,0.6,1,0,,,,,,,,,,,,
,,5e39cf6d0331aa07667a58ae,66fc9824caa5b98c125b655b,2024-10-02_02h48.55.359,mdp,2024.2.1,MacIntel,59.88023952,66fa4ebf79326e780c390304,,,,,,,,,,,,,,,,,,,,,462.7996,462.7997,462.8009,463.3491,0,1,left,0.0171,,463.3504,464.4993,0,1,left,464.5009,464.5017,,1,,0,464.5017,464.5017,464.5021,465.9992,0,31,31,31,1,0.8,0.2,0.2,0.8,,,,,,,,,,,,,,,0.6143,,0.4,0.6,0.8,0.2,0.2,0.8,0.4,0.6,1,0,,,,,,,,,,,,
,,5e39cf6d0331aa07667a58ae,66fc9824caa5b98c125b655b,2024-10-02_02h48.55.359,mdp,2024.2.1,MacIntel,59.88023952,66fa4ebf79326e780c390304,,,,,,,,,,,,,,,,,,,,,465.9996,465.9996,466.001,466.8158,0,1,left,0.2854,,466.8171,467.7991,0,1,left,467.8005,467.8013,,1,,0,467.8013,467.8013,467.8018,469.2993,0,32,32,32,1,0.6,0.4,0.4,0.6,,,,,,,,,,,,,,,0.4499,,0.4,0.6,0.8,0.2,0.2,0.8,0.4,0.6,1,0,,,,,,,,,,,,
,,5e39cf6d0331aa07667a58ae,66fc9824caa5b98c125b655b,2024-10-02_02h48.55.359,mdp,2024.2.1,MacIntel,59.88023952,66fa4ebf79326e780c390304,,,,,,,,,,,,,,,,,,,,,469.2998,469.2998,469.3011,470.1495,0,0,left,0.317,,470.151,470.966,1,0,right,470.9674,470.9683,,0,,1,470.9683,470.9683,470.9687,472.466,0,33,33,33,1,0.6,0.4,0.4,0.6,,,,,,,,,,,,,,,0.2811,,0.4,0.6,0.8,0.2,0.6,0.4,0.2,0.8,1,0,,,,,,,,,,,,
,,5e39cf6d0331aa07667a58ae,66fc9824caa5b98c125b655b,2024-10-02_02h48.55.359,mdp,2024.2.1,MacIntel,59.88023952,66fa4ebf79326e780c390304,,,,,,,,,,,,,,,,,,,,,472.4665,472.4665,472.4679,473.5995,0,0,left,0.6055,,473.6006,474.3998,1,0,right,474.401,474.4017,,0,,1,474.4018,474.4018,474.4023,475.8995,0,34,34,34,1,0.6,0.4,0.4,0.6,,,,,,,,,,,,,,,0.2795,,0.4,0.6,0.8,0.2,0.6,0.4,0.2,0.8,1,0,,,,,,,,,,,,
,,5e39cf6d0331aa07667a58ae,66fc9824caa5b98c125b655b,2024-10-02_02h48.55.359,mdp,2024.2.1,MacIntel,59.88023952,66fa4ebf79326e780c390304,,,,,,,,,,,,,,,,,,,,,475.9001,475.9001,475.9014,476.7663,0,0,left,0.3356,,476.7676,477.4829,1,1,right,477.4845,477.4854,,0,,0,477.4854,477.4854,477.4858,478.9829,0,35,35,35,1,0.6,0.4,0.4,0.6,,,,,,,,,,,,,,,0.1837,,0.4,0.6,0.8,0.2,0.6,0.4,0.2,0.8,1,0,,,,,,,,,,,,
,,5e39cf6d0331aa07667a58ae,66fc9824caa5b98c125b655b,2024-10-02_02h48.55.359,mdp,2024.2.1,MacIntel,59.88023952,66fa4ebf79326e780c390304,,,,,,,,,,,,,,,,,,,,,478.9834,478.9834,478.9846,479.7498,1,1,right,0.2342,,479.7512,480.499,0,1,left,480.5002,480.5011,,1,,0,480.5012,480.5012,480.5019,481.9997,0,36,36,36,1,0.6,0.4,0.4,0.6,,,,,,,,,,,,,,,0.2199,,0.6,0.4,0.2,0.8,0.6,0.4,0.2,0.8,1,0,,,,,,,,,,,,
,,5e39cf6d0331aa07667a58ae,66fc9824caa5b98c125b655b,2024-10-02_02h48.55.359,mdp,2024.2.1,MacIntel,59.88023952,66fa4ebf79326e780c390304,,,,,,,,,,,,,,,,,,,,,482.0001,482.0001,482.0014,482.7664,0,0,left,0.2335,,482.7678,483.5498,0,0,left,483.5513,483.5521,,0,,1,483.5522,483.5522,483.5527,485.0498,0,37,37,37,1,0.6,0.4,0.4,0.6,,,,,,,,,,,,,,,0.2469,,0.6,0.4,0.2,0.8,0.6,0.4,0.2,0.8,1,0,,,,,,,,,,,,
,,5e39cf6d0331aa07667a58ae,66fc9824caa5b98c125b655b,2024-10-02_02h48.55.359,mdp,2024.2.1,MacIntel,59.88023952,66fa4ebf79326e780c390304,,,,,,,,,,,,,,,,,,,,,485.0503,485.0503,485.0515,485.8166,1,1,right,0.2364,,485.818,486.5496,1,1,right,486.55,486.5503,,1,,0,486.5503,486.5503,486.5506,488.0499,0,38,38,38,1,0.6,0.4,0.4,0.6,,,,,,,,,,,,,,,0.1954,,0.6,0.4,0.2,0.8,0.6,0.4,0.2,0.8,1,0,,,,,,,,,,,,
,,5e39cf6d0331aa07667a58ae,66fc9824caa5b98c125b655b,2024-10-02_02h48.55.359,mdp,2024.2.1,MacIntel,59.88023952,66fa4ebf79326e780c390304,,,,,,,,,,,,,,,,,,,,,488.0504,488.0504,488.0518,488.7,0,0,left,0.118,,488.7014,489.2832,1,1,right,489.2846,489.2855,,1,,0,489.2855,489.2855,489.2859,490.7832,0,39,39,39,1,0.6,0.4,0.4,0.6,,,,,,,,,,,,,,,0.0471,,0.6,0.4,0.2,0.8,0.6,0.4,0.2,0.8,1,0,,,,,,,,,,,,
,,5e39cf6d0331aa07667a58ae,66fc9824caa5b98c125b655b,2024-10-02_02h48.55.359,mdp,2024.2.1,MacIntel,59.88023952,66fa4ebf79326e780c390304,,,,,,,,,,,,,,,,,,,,,490.7837,490.7837,490.785,491.8167,0,1,left,0.5012,,491.818,492.6499,0,0,left,492.6512,492.6521,,0,,1,492.6521,492.6521,492.6526,494.1501,0,40,40,40,1,0.6,0.4,0.4,0.6,,,,,,,,,,,,,,,0.2973,,0.6,0.4,0.2,0.8,0.6,0.4,0.2,0.8,1,0,,,,,,,,,,,,
,,5e39cf6d0331aa07667a58ae,66fc9824caa5b98c125b655b,2024-10-02_02h48.55.359,mdp,2024.2.1,MacIntel,59.88023952,66fa4ebf79326e780c390304,,,,,,,,,,,,,,,,,,,,,494.1506,494.1506,494.1521,494.9835,0,0,left,0.3058,,494.9846,495.6832,0,1,left,495.6843,495.6852,,0,,0,495.6853,495.6853,495.6857,497.1835,0,41,41,41,1,0.6,0.4,0.4,0.6,,,,,,,,,,,,,,,0.1641,,0.6,0.4,0.2,0.8,0.6,0.4,0.2,0.8,1,0,,,,,,,,,,,,
,,5e39cf6d0331aa07667a58ae,66fc9824caa5b98c125b655b,2024-10-02_02h48.55.359,mdp,2024.2.1,MacIntel,59.88023952,66fa4ebf79326e780c390304,,,,,,,,,,,,,,,,,,,,,497.184,497.184,497.1853,498.0336,0,1,left,0.3169,,498.0351,498.9336,0,0,left,498.935,498.936,,1,,1,498.936,498.936,498.9367,500.4336,0,42,42,42,1,0.6,0.4,0.4,0.6,,,,,,,,,,,,,,,0.3646,,0.6,0.4,0.2,0.8,0.6,0.4,0.2,0.8,1,0,,,,,,,,,,,,
,,5e39cf6d0331aa07667a58ae,66fc9824caa5b98c125b655b,2024-10-02_02h48.55.359,mdp,2024.2.1,MacIntel,59.88023952,66fa4ebf79326e780c390304,,,,,,,,,,,,,,,,,,,,,500.4341,500.4341,500.4354,501.467,0,0,left,0.5052,,501.4682,502.0829,0,0,left,502.0842,502.085,,0,,1,502.0851,502.0851,502.0858,503.5838,0,43,43,43,1,0.6,0.4,0.4,0.6,,,,,,,,,,,,,,,0.0841,,0.6,0.4,0.2,0.8,0.6,0.4,0.2,0.8,1,0,,,,,,,,,,,,
,,5e39cf6d0331aa07667a58ae,66fc9824caa5b98c125b655b,2024-10-02_02h48.55.359,mdp,2024.2.1,MacIntel,59.88023952,66fa4ebf79326e780c390304,,,,,,,,,,,,,,,,,,,,,503.5843,503.5843,503.5855,504.4334,0,0,left,0.3266,,504.4346,504.9838,0,0,left,504.985,504.9858,,0,,1,504.9859,504.9859,504.9863,506.4838,0,44,44,44,1,0.6,0.4,0.4,0.6,,,,,,,,,,,,,,,0.0337,,0.6,0.4,0.2,0.8,0.6,0.4,0.2,0.8,1,0,,,,,,,,,,,,
,,5e39cf6d0331aa07667a58ae,66fc9824caa5b98c125b655b,2024-10-02_02h48.55.359,mdp,2024.2.1,MacIntel,59.88023952,66fa4ebf79326e780c390304,,,,,,,,,,,,,,,,,,,,,506.4843,506.4843,506.4855,507.1172,0,0,left,0.1056,,507.1184,507.6507,0,0,left,507.652,507.6528,,1,,1,507.6528,507.6529,507.6533,509.1506,0,45,45,45,1,0.6,0.4,0.4,0.6,,,,,,,,,,,,,,,0.0032,,0.6,0.4,0.2,0.8,0.6,0.4,0.2,0.8,1,0,,,,,,,,,,,,
,,5e39cf6d0331aa07667a58ae,66fc9824caa5b98c125b655b,2024-10-02_02h48.55.359,mdp,2024.2.1,MacIntel,59.88023952,66fa4ebf79326e780c390304,,,,,,,,,,,,,,,,,,,,,509.151,509.151,509.1524,509.8506,0,1,left,0.1673,,509.852,510.6506,0,0,left,510.652,510.6529,,1,,1,510.6529,510.6529,510.6533,512.1508,0,46,46,46,1,0.6,0.4,0.4,0.6,,,,,,,,,,,,,,,0.2639,,0.6,0.4,0.2,0.8,0.6,0.4,0.2,0.8,1,0,,,,,,,,,,,,
,,5e39cf6d0331aa07667a58ae,66fc9824caa5b98c125b655b,2024-10-02_02h48.55.359,mdp,2024.2.1,MacIntel,59.88023952,66fa4ebf79326e780c390304,,,,,,,,,,,,,,,,,,,,,512.1514,512.1514,512.1529,513.0007,0,0,left,0.3173,,513.0021,513.6508,0,1,left,513.6523,513.6532,,0,,0,513.6533,513.6533,513.6537,515.1501,0,47,47,47,1,0.6,0.4,0.4,0.6,,,,,,,,,,,,,,,0.1143,,0.6,0.4,0.2,0.8,0.6,0.4,0.2,0.8,1,0,,,,,,,,,,,,
,,5e39cf6d0331aa07667a58ae,66fc9824caa5b98c125b655b,2024-10-02_02h48.55.359,mdp,2024.2.1,MacIntel,59.88023952,66fa4ebf79326e780c390304,,,,,,,,,,,,,,,,,,,,,515.1507,515.1507,515.1519,516.0176,0,1,left,0.3496,,516.0191,516.7509,0,1,left,516.7523,516.7532,,0,,0,516.7533,516.7533,516.7537,518.251,0,48,48,48,1,0.6,0.4,0.4,0.6,,,,,,,,,,,,,,,0.1991,,0.6,0.4,0.2,0.8,0.6,0.4,0.2,0.8,1,0,,,,,,,,,,,,
,,5e39cf6d0331aa07667a58ae,66fc9824caa5b98c125b655b,2024-10-02_02h48.55.359,mdp,2024.2.1,MacIntel,59.88023952,66fa4ebf79326e780c390304,,,,,,,,,,,,,,,,,,,,,518.2516,518.2517,518.253,519.2842,0,0,left,0.5018,,519.2856,519.8677,0,0,left,519.869,519.8698,,0,,1,519.8698,519.8698,519.8702,521.3676,0,49,49,49,1,0.6,0.4,0.4,0.6,,,,,,,,,,,,,,,0.0474,,0.6,0.4,0.2,0.8,0.8,0.2,0.8,0.2,1,0,,,,,,,,,,,,
,,5e39cf6d0331aa07667a58ae,66fc9824caa5b98c125b655b,2024-10-02_02h48.55.359,mdp,2024.2.1,MacIntel,59.88023952,66fa4ebf79326e780c390304,,,,,,,,,,,,,,,,,,,,,,,,,,,,,,,,,,,,,,,,,,,,,,,,,,,,,,,,521.3678,579.8863,0,1,1,0,1,imgs/dog.png,imgs/cat.png,imgs/kangaroo.png,imgs/bear.png,imgs/pig.png,,,,,,,,,,,,,,,,,,,,,,,,
,,5e39cf6d0331aa07667a58ae,66fc9824caa5b98c125b655b,2024-10-02_02h48.55.359,mdp,2024.2.1,MacIntel,59.88023952,66fa4ebf79326e780c390304,,,,,,,,,,,,,,3,seqs/st3seq47.csv,579.8879,596.2703,space,15.8508,,596.2785,596.2785,596.2793,606.5704,0,1,left,9.7638,,606.5718,610.4373,1,0,right,610.4387,612.4542,0,0,left,1,612.4542,612.4542,612.4555,613.954,0,0,0,0,1,0.6,0.4,0.4,0.6,,,,,,,,,,,,,,,3.3281,,0.8,0.2,0.4,0.6,0.8,0.2,0.2,0.8,,,1.4799,,0.6,0.4,0.4,0.6,0.6,0.4,0.8,0.2,1,0
,,5e39cf6d0331aa07667a58ae,66fc9824caa5b98c125b655b,2024-10-02_02h48.55.359,mdp,2024.2.1,MacIntel,59.88023952,66fa4ebf79326e780c390304,,,,,,,,,,,,,,,,,,,,,613.9548,613.9548,613.9563,615.2541,0,1,left,0.7716,,615.2555,616.0875,1,1,right,616.0891,616.8042,0,0,left,1,616.8044,616.8044,616.8057,618.304,0,1,1,1,1,0.6,0.4,0.4,0.6,,,,,,,,,,,,,,,0.3001,,0.8,0.2,0.4,0.6,0.8,0.2,0.2,0.8,,,0.1829,,0.6,0.4,0.4,0.6,0.6,0.4,0.8,0.2,1,0
,,5e39cf6d0331aa07667a58ae,66fc9824caa5b98c125b655b,2024-10-02_02h48.55.359,mdp,2024.2.1,MacIntel,59.88023952,66fa4ebf79326e780c390304,,,,,,,,,,,,,,,,,,,,,618.3046,618.3046,618.3059,619.2376,0,1,left,0.4041,,619.239,619.771,1,1,right,619.7723,620.3375,0,0,left,1,620.3376,620.3376,620.3384,621.8376,0,2,2,2,1,0.6,0.4,0.4,0.6,,,,,,,,,,,,,,,0.0004,,0.8,0.2,0.4,0.6,0.8,0.2,0.2,0.8,,,0.0442,,0.6,0.4,0.4,0.6,0.6,0.4,0.8,0.2,1,0
,,5e39cf6d0331aa07667a58ae,66fc9824caa5b98c125b655b,2024-10-02_02h48.55.359,mdp,2024.2.1,MacIntel,59.88023952,66fa4ebf79326e780c390304,,,,,,,,,,,,,,,,,,,,,621.8381,621.8381,621.8395,622.7377,0,0,left,0.3664,,622.7392,623.3544,1,1,right,623.3557,624.404,0,0,left,1,624.4042,624.4042,624.4052,625.9043,0,3,3,3,1,0.6,0.4,0.4,0.6,,,,,,,,,,,,,,,0.0795,,0.8,0.2,0.4,0.6,0.8,0.2,0.2,0.8,,,0.5234,,0.6,0.4,0.4,0.6,0.6,0.4,0.8,0.2,1,0
,,5e39cf6d0331aa07667a58ae,66fc9824caa5b98c125b655b,2024-10-02_02h48.55.359,mdp,2024.2.1,MacIntel,59.88023952,66fa4ebf79326e780c390304,,,,,,,,,,,,,,,,,,,,,625.9049,625.905,625.9064,626.571,0,1,left,0.1371,,626.5725,627.4878,1,0,right,627.4893,628.2712,0,1,left,0,628.2713,628.2714,628.2727,629.7712,0,4,4,4,1,0.6,0.4,0.4,0.6,,,,,,,,,,,,,,,0.3815,,0.8,0.2,0.4,0.6,0.8,0.2,0.2,0.8,,,0.2475,,0.4,0.6,0.6,0.4,0.6,0.4,0.8,0.2,1,0
,,5e39cf6d0331aa07667a58ae,66fc9824caa5b98c125b655b,2024-10-02_02h48.55.359,mdp,2024.2.1,MacIntel,59.88023952,66fa4ebf79326e780c390304,,,,,,,,,,,,,,,,,,,,,629.7718,629.7718,629.7732,630.6047,0,0,left,0.3003,,630.6062,631.4045,1,0,right,631.4057,632.0546,0,1,left,0,632.0546,632.0546,632.0559,633.5546,0,5,5,5,1,0.6,0.4,0.4,0.6,,,,,,,,,,,,,,,0.269,,0.8,0.2,0.4,0.6,0.8,0.2,0.2,0.8,,,0.1329,,0.4,0.6,0.6,0.4,0.6,0.4,0.8,0.2,1,0
,,5e39cf6d0331aa07667a58ae,66fc9824caa5b98c125b655b,2024-10-02_02h48.55.359,mdp,2024.2.1,MacIntel,59.88023952,66fa4ebf79326e780c390304,,,,,,,,,,,,,,,,,,,,,633.5552,633.5552,633.5566,634.5214,0,1,left,0.4385,,634.5228,635.2047,1,1,right,635.2062,635.7881,0,0,left,1,635.7883,635.7883,635.7894,637.2881,0,6,6,6,1,0.6,0.4,0.4,0.6,,,,,,,,,,,,,,,0.147,,0.8,0.2,0.4,0.6,0.8,0.2,0.2,0.8,,,0.0474,,0.4,0.6,0.6,0.4,0.6,0.4,0.8,0.2,1,0
,,5e39cf6d0331aa07667a58ae,66fc9824caa5b98c125b655b,2024-10-02_02h48.55.359,mdp,2024.2.1,MacIntel,59.88023952,66fa4ebf79326e780c390304,,,,,,,,,,,,,,,,,,,,,637.2887,637.2887,637.2901,638.2049,0,1,left,0.384,,638.2063,639.0044,1,1,right,639.0058,639.9215,0,1,left,0,639.9216,639.9217,639.9229,641.4216,0,7,7,7,1,0.6,0.4,0.4,0.6,,,,,,,,,,,,,,,0.2669,,0.8,0.2,0.4,0.6,0.8,0.2,0.2,0.8,,,0.4019,,0.4,0.6,0.6,0.4,0.6,0.4,0.8,0.2,1,0
,,5e39cf6d0331aa07667a58ae,66fc9824caa5b98c125b655b,2024-10-02_02h48.55.359,mdp,2024.2.1,MacIntel,59.88023952,66fa4ebf79326e780c390304,,,,,,,,,,,,,,,,,,,,,641.4221,641.4221,641.4235,641.9883,0,1,left,0.0327,,641.9896,642.6716,1,1,right,642.673,643.755,1,0,right,1,643.7551,643.7551,643.7567,645.2551,0,8,8,8,1,0.6,0.4,0.4,0.6,,,,,,,,,,,,,,,0.1496,,0.8,0.2,0.4,0.6,0.8,0.2,0.2,0.8,,,0.5503,,0.4,0.6,0.6,0.4,0.6,0.4,0.8,0.2,1,0
,,5e39cf6d0331aa07667a58ae,66fc9824caa5b98c125b655b,2024-10-02_02h48.55.359,mdp,2024.2.1,MacIntel,59.88023952,66fa4ebf79326e780c390304,,,,,,,,,,,,,,,,,,,,,645.2556,645.2556,645.2571,646.1219,0,1,left,0.3338,,646.1234,646.8712,1,0,right,646.8725,648.1052,0,1,left,0,648.1052,648.1052,648.1065,649.6051,0,9,9,9,1,0.6,0.4,0.4,0.6,,,,,,,,,,,,,,,0.2169,,0.8,0.2,0.4,0.6,0.8,0.2,0.2,0.8,,,0.7141,,0.4,0.6,0.6,0.4,0.6,0.4,0.8,0.2,1,0
,,5e39cf6d0331aa07667a58ae,66fc9824caa5b98c125b655b,2024-10-02_02h48.55.359,mdp,2024.2.1,MacIntel,59.88023952,66fa4ebf79326e780c390304,,,,,,,,,,,,,,,,,,,,,649.6057,649.6058,649.6072,650.2887,0,1,left,0.1503,,650.2901,650.9886,1,0,right,650.9901,651.8886,0,0,left,1,651.8887,651.8887,651.8901,653.3886,0,10,10,10,1,0.6,0.4,0.4,0.6,,,,,,,,,,,,,,,0.1673,,0.8,0.2,0.4,0.6,0.2,0.8,0.8,0.2,,,0.3717,,0.4,0.6,0.6,0.4,0.6,0.4,0.8,0.2,1,0
,,5e39cf6d0331aa07667a58ae,66fc9824caa5b98c125b655b,2024-10-02_02h48.55.359,mdp,2024.2.1,MacIntel,59.88023952,66fa4ebf79326e780c390304,,,,,,,,,,,,,,,,,,,,,653.3893,653.3894,653.3906,654.4219,0,1,left,0.504,,654.4232,655.1888,1,0,right,655.1901,656.7055,1,0,right,1,656.7056,656.7056,656.7069,658.2055,0,11,11,11,1,0.6,0.4,0.4,0.6,,,,,,,,,,,,,,,0.2557,,0.8,0.2,0.4,0.6,0.2,0.8,0.8,0.2,,,0.9835,,0.4,0.6,0.6,0.4,0.6,0.4,0.8,0.2,1,0
,,5e39cf6d0331aa07667a58ae,66fc9824caa5b98c125b655b,2024-10-02_02h48.55.359,mdp,2024.2.1,MacIntel,59.88023952,66fa4ebf79326e780c390304,,,,,,,,,,,,,,,,,,,,,658.206,658.2061,658.2075,659.8391,0,1,left,1.1006,,659.8405,660.5718,1,0,right,660.5729,661.9221,1,0,right,1,661.9222,661.9222,661.9235,663.4223,0,12,12,12,1,0.6,0.4,0.4,0.6,,,,,,,,,,,,,,,0.2017,,0.8,0.2,0.4,0.6,0.2,0.8,0.8,0.2,,,0.8341,,0.4,0.6,0.6,0.4,0.6,0.4,0.8,0.2,1,0
,,5e39cf6d0331aa07667a58ae,66fc9824caa5b98c125b655b,2024-10-02_02h48.55.359,mdp,2024.2.1,MacIntel,59.88023952,66fa4ebf79326e780c390304,,,,,,,,,,,,,,,,,,,,,663.4229,663.423,663.4245,664.3558,0,0,left,0.401,,664.3572,665.206,1,1,right,665.2074,666.5391,0,1,left,0,666.5391,666.5391,666.5404,668.0391,0,13,13,13,1,0.6,0.4,0.4,0.6,,,,,,,,,,,,,,,0.3149,,0.8,0.2,0.4,0.6,0.2,0.8,0.8,0.2,,,0.7975,,0.4,0.6,0.6,0.4,0.2,0.8,0.6,0.4,1,0
,,5e39cf6d0331aa07667a58ae,66fc9824caa5b98c125b655b,2024-10-02_02h48.55.359,mdp,2024.2.1,MacIntel,59.88023952,66fa4ebf79326e780c390304,,,,,,,,,,,,,,,,,,,,,668.0396,668.0396,668.0411,669.1892,0,0,left,0.6187,,669.1905,669.9394,1,0,right,669.9408,671.0726,1,1,right,0,671.0726,671.0727,671.0739,672.5726,0,14,14,14,1,0.6,0.4,0.4,0.6,,,,,,,,,,,,,,,0.2181,,0.8,0.2,0.4,0.6,0.2,0.8,0.8,0.2,,,0.6007,,0.4,0.6,0.6,0.4,0.2,0.8,0.6,0.4,1,0
,,5e39cf6d0331aa07667a58ae,66fc9824caa5b98c125b655b,2024-10-02_02h48.55.359,mdp,2024.2.1,MacIntel,59.88023952,66fa4ebf79326e780c390304,,,,,,,,,,,,,,,,,,,,,672.5732,672.5732,672.5746,673.4559,0,1,left,0.3557,,673.4572,674.3226,1,0,right,674.3239,676.106,1,1,right,0,676.1061,676.1061,676.1074,677.6061,0,15,15,15,1,0.6,0.4,0.4,0.6,,,,,,,,,,,,,,,0.3367,,0.8,0.2,0.4,0.6,0.2,0.8,0.8,0.2,,,1.2506,,0.4,0.6,0.6,0.4,0.2,0.8,0.6,0.4,1,0
,,5e39cf6d0331aa07667a58ae,66fc9824caa5b98c125b655b,2024-10-02_02h48.55.359,mdp,2024.2.1,MacIntel,59.88023952,66fa4ebf79326e780c390304,,,,,,,,,,,,,,,,,,,,,677.6066,677.6066,677.608,678.4728,0,1,left,0.3338,,678.4741,679.3563,1,1,right,679.3576,680.9562,0,1,left,0,680.9564,680.9564,680.9577,682.4562,0,16,16,16,1,0.6,0.4,0.4,0.6,,,,,,,,,,,,,,,0.3503,,0.8,0.2,0.4,0.6,0.6,0.4,0.4,0.6,,,1.0637,,0.4,0.6,0.6,0.4,0.2,0.8,0.6,0.4,1,0
,,5e39cf6d0331aa07667a58ae,66fc9824caa5b98c125b655b,2024-10-02_02h48.55.359,mdp,2024.2.1,MacIntel,59.88023952,66fa4ebf79326e780c390304,,,,,,,,,,,,,,,,,,,,,682.4568,682.4568,682.4582,683.2563,0,0,left,0.267,,683.2578,684.0565,1,1,right,684.0578,685.4064,1,0,right,1,685.4065,685.4065,685.4076,686.9065,0,17,17,17,1,0.6,0.4,0.4,0.6,,,,,,,,,,,,,,,0.2651,,0.8,0.2,0.4,0.6,0.6,0.4,0.4,0.6,,,0.8173,,0.4,0.6,0.6,0.4,0.2,0.8,0.6,0.4,1,0
,,5e39cf6d0331aa07667a58ae,66fc9824caa5b98c125b655b,2024-10-02_02h48.55.359,mdp,2024.2.1,MacIntel,59.88023952,66fa4ebf79326e780c390304,,,,,,,,,,,,,,,,,,,,,686.907,686.9071,686.9085,687.7565,0,0,left,0.3171,,687.758,688.8067,1,0,right,688.808,690.2567,0,1,left,0,690.2568,690.2568,690.2582,691.7566,0,18,18,18,1,0.6,0.4,0.4,0.6,,,,,,,,,,,,,,,0.5195,,0.8,0.2,0.4,0.6,0.6,0.4,0.4,0.6,,,0.9146,,0.4,0.6,0.6,0.4,0.2,0.8,0.6,0.4,1,0
,,5e39cf6d0331aa07667a58ae,66fc9824caa5b98c125b655b,2024-10-02_02h48.55.359,mdp,2024.2.1,MacIntel,59.88023952,66fa4ebf79326e780c390304,,,,,,,,,,,,,,,,,,,,,691.7572,691.7572,691.7586,692.5901,0,0,left,0.3004,,692.5914,693.6566,1,0,right,693.6578,695.0067,1,1,right,0,695.0068,695.0069,695.0082,696.5064,0,19,19,19,1,0.6,0.4,0.4,0.6,,,,,,,,,,,,,,,0.5459,,0.8,0.2,0.4,0.6,0.6,0.4,0.4,0.6,,,0.8218,,0.4,0.6,0.6,0.4,0.2,0.8,0.6,0.4,1,0
,,5e39cf6d0331aa07667a58ae,66fc9824caa5b98c125b655b,2024-10-02_02h48.55.359,mdp,2024.2.1,MacIntel,59.88023952,66fa4ebf79326e780c390304,,,,,,,,,,,,,,,,,,,,,696.5065,696.5065,696.5068,697.4235,0,1,left,0.4008,,697.4248,698.7235,1,1,right,698.7249,700.1068,0,1,left,0,700.107,700.107,700.1082,701.6069,0,20,20,20,1,0.6,0.4,0.4,0.6,,,,,,,,,,,,,,,0.7636,,0.8,0.2,0.4,0.6,0.6,0.4,0.4,0.6,,,0.8504,,0.4,0.6,0.6,0.4,0.2,0.8,0.6,0.4,1,0
,,5e39cf6d0331aa07667a58ae,66fc9824caa5b98c125b655b,2024-10-02_02h48.55.359,mdp,2024.2.1,MacIntel,59.88023952,66fa4ebf79326e780c390304,,,,,,,,,,,,,,,,,,,,,701.6076,701.6076,701.6089,702.3569,0,0,left,0.2161,,702.3583,702.973,1,0,right,702.9739,703.5903,1,0,right,1,703.5905,703.5905,703.5919,705.0903,0,21,21,21,1,0.6,0.4,0.4,0.6,,,,,,,,,,,,,,,0.0833,,0.8,0.2,0.4,0.6,0.6,0.4,0.4,0.6,,,0.0968,,0.4,0.6,0.6,0.4,0.2,0.8,0.6,0.4,1,0
,,5e39cf6d0331aa07667a58ae,66fc9824caa5b98c125b655b,2024-10-02_02h48.55.359,mdp,2024.2.1,MacIntel,59.88023952,66fa4ebf79326e780c390304,,,,,,,,,,,,,,,,,,,,,705.0909,705.0909,705.0923,705.9565,0,0,left,0.3401,,705.9577,706.8564,1,1,right,706.8576,707.4238,1,1,right,0,707.4238,707.4238,707.425,708.9237,0,22,22,22,1,0.6,0.4,0.4,0.6,,,,,,,,,,,,,,,0.3837,,0.8,0.2,0.4,0.6,0.6,0.4,0.4,0.6,,,0.0477,,0.4,0.6,0.6,0.4,0.2,0.8,0.6,0.4,1,0
,,5e39cf6d0331aa07667a58ae,66fc9824caa5b98c125b655b,2024-10-02_02h48.55.359,mdp,2024.2.1,MacIntel,59.88023952,66fa4ebf79326e780c390304,,,,,,,,,,,,,,,,,,,,,708.9242,708.9242,708.9254,709.8074,0,1,left,0.3505,,709.8089,710.5739,1,1,right,710.5752,711.2074,1,1,right,0,711.2075,711.2075,711.2087,712.7073,0,23,23,23,1,0.6,0.4,0.4,0.6,,,,,,,,,,,,,,,0.2354,,0.8,0.2,0.4,0.6,0.6,0.4,0.4,0.6,,,0.1118,,0.4,0.6,0.6,0.4,0.2,0.8,0.6,0.4,1,0
,,5e39cf6d0331aa07667a58ae,66fc9824caa5b98c125b655b,2024-10-02_02h48.55.359,mdp,2024.2.1,MacIntel,59.88023952,66fa4ebf79326e780c390304,,,,,,,,,,,,,,,,,,,,,712.7078,712.7078,712.7092,713.7237,0,0,left,0.4935,,713.7245,714.4407,1,0,right,714.4421,715.3907,1,0,right,1,715.3908,715.3908,715.3917,716.8904,0,24,24,24,1,0.8,0.2,0.8,0.2,,,,,,,,,,,,,,,0.1979,,0.8,0.2,0.4,0.6,0.6,0.4,0.4,0.6,,,0.4147,,0.4,0.6,0.6,0.4,0.2,0.8,0.6,0.4,1,0
,,5e39cf6d0331aa07667a58ae,66fc9824caa5b98c125b655b,2024-10-02_02h48.55.359,mdp,2024.2.1,MacIntel,59.88023952,66fa4ebf79326e780c390304,,,,,,,,,,,,,,,,,,,,,716.8907,716.8907,716.8913,717.7908,0,0,left,0.3716,,717.7921,718.6408,1,1,right,718.6421,719.3742,1,0,right,1,719.3742,719.3742,719.3755,720.874,0,25,25,25,1,0.8,0.2,0.8,0.2,,,,,,,,,,,,,,,0.3163,,0.8,0.2,0.4,0.6,0.6,0.4,0.4,0.6,,,0.1974,,0.8,0.2,0.8,0.2,0.2,0.8,0.6,0.4,1,0
,,5e39cf6d0331aa07667a58ae,66fc9824caa5b98c125b655b,2024-10-02_02h48.55.359,mdp,2024.2.1,MacIntel,59.88023952,66fa4ebf79326e780c390304,,,,,,,,,,,,,,,,,,,,,720.8743,720.8743,720.875,721.7076,0,1,left,0.2996,,721.709,722.2409,1,1,right,722.2422,722.7909,1,1,right,0,722.7911,722.7911,722.7925,724.2909,0,26,26,26,1,0.8,0.2,0.8,0.2,,,,,,,,,,,,,,,0.0029,,0.8,0.2,0.4,0.6,0.6,0.4,0.4,0.6,,,0.0174,,0.8,0.2,0.8,0.2,0.2,0.8,0.6,0.4,1,0
,,5e39cf6d0331aa07667a58ae,66fc9824caa5b98c125b655b,2024-10-02_02h48.55.359,mdp,2024.2.1,MacIntel,59.88023952,66fa4ebf79326e780c390304,,,,,,,,,,,,,,,,,,,,,724.2914,724.2914,724.2921,725.2745,0,0,left,0.4515,,725.2757,726.1078,1,1,right,726.109,727.4736,1,1,right,0,727.4736,727.4736,727.4747,728.9745,0,27,27,27,1,0.8,0.2,0.8,0.2,,,,,,,,,,,,,,,0.2972,,0.8,0.2,0.4,0.6,0.6,0.4,0.4,0.6,,,0.8383,,0.8,0.2,0.8,0.2,0.2,0.8,0.6,0.4,1,0
,,5e39cf6d0331aa07667a58ae,66fc9824caa5b98c125b655b,2024-10-02_02h48.55.359,mdp,2024.2.1,MacIntel,59.88023952,66fa4ebf79326e780c390304,,,,,,,,,,,,,,,,,,,,,728.975,728.975,728.9763,729.8908,0,0,left,0.3839,,729.8921,730.5579,1,0,right,730.5593,731.5413,1,0,right,1,731.5414,731.5415,731.543,733.0412,0,28,28,28,1,0.8,0.2,0.8,0.2,,,,,,,,,,,,,,,0.1496,,0.8,0.2,0.4,0.6,0.6,0.4,0.4,0.6,,,0.4475,,0.8,0.2,0.8,0.2,0.2,0.8,0.6,0.4,1,0
,,5e39cf6d0331aa07667a58ae,66fc9824caa5b98c125b655b,2024-10-02_02h48.55.359,mdp,2024.2.1,MacIntel,59.88023952,66fa4ebf79326e780c390304,,,,,,,,,,,,,,,,,,,,,733.0419,733.0419,733.0432,733.9247,0,0,left,0.3503,,733.926,734.7914,1,0,right,734.7928,735.708,1,1,right,0,735.708,735.708,735.7093,737.208,0,29,29,29,1,0.8,0.2,0.8,0.2,,,,,,,,,,,,,,,0.3342,,0.8,0.2,0.4,0.6,0.6,0.4,0.4,0.6,,,0.3869,,0.2,0.8,0.4,0.6,0.2,0.8,0.6,0.4,1,0
,,5e39cf6d0331aa07667a58ae,66fc9824caa5b98c125b655b,2024-10-02_02h48.55.359,mdp,2024.2.1,MacIntel,59.88023952,66fa4ebf79326e780c390304,,,,,,,,,,,,,,,,,,,,,737.2086,737.2086,737.21,738.0748,0,0,left,0.3337,,738.0761,738.7251,1,0,right,738.7264,739.9081,1,1,right,0,739.9082,739.9082,739.9094,741.4082,0,30,30,30,1,0.8,0.2,0.8,0.2,,,,,,,,,,,,,,,0.1192,,0.8,0.2,0.4,0.6,0.6,0.4,0.4,0.6,,,0.6504,,0.2,0.8,0.4,0.6,0.2,0.8,0.6,0.4,1,0
,,5e39cf6d0331aa07667a58ae,66fc9824caa5b98c125b655b,2024-10-02_02h48.55.359,mdp,2024.2.1,MacIntel,59.88023952,66fa4ebf79326e780c390304,,,,,,,,,,,,,,,,,,,,,741.4087,741.4088,741.4101,742.3249,0,1,left,0.3849,,742.3263,743.1583,1,1,right,743.1595,743.7916,0,0,left,1,743.7917,743.7917,743.793,745.2917,0,31,31,31,1,0.8,0.2,0.8,0.2,,,,,,,,,,,,,,,0.3008,,0.8,0.2,0.4,0.6,0.6,0.4,0.4,0.6,,,0.0982,,0.2,0.8,0.4,0.6,0.2,0.8,0.6,0.4,1,0
,,5e39cf6d0331aa07667a58ae,66fc9824caa5b98c125b655b,2024-10-02_02h48.55.359,mdp,2024.2.1,MacIntel,59.88023952,66fa4ebf79326e780c390304,,,,,,,,,,,,,,,,,,,,,745.2923,745.2923,745.2936,746.0586,0,1,left,0.233,,746.06,747.0251,1,1,right,747.0263,747.8585,1,0,right,1,747.8586,747.8586,747.8599,749.3585,0,32,32,32,1,0.8,0.2,0.8,0.2,,,,,,,,,,,,,,,0.4341,,0.8,0.2,0.4,0.6,0.6,0.4,0.4,0.6,,,0.2995,,0.2,0.8,0.4,0.6,0.2,0.8,0.6,0.4,1,0
,,5e39cf6d0331aa07667a58ae,66fc9824caa5b98c125b655b,2024-10-02_02h48.55.359,mdp,2024.2.1,MacIntel,59.88023952,66fa4ebf79326e780c390304,,,,,,,,,,,,,,,,,,,,,749.359,749.359,749.3606,750.1911,0,0,left,0.3005,,750.1923,750.8753,1,0,right,750.8766,751.8918,1,1,right,0,751.892,751.892,751.8934,753.3918,0,33,33,33,1,0.8,0.2,0.8,0.2,,,,,,,,,,,,,,,0.1642,,0.2,0.8,0.6,0.4,0.6,0.4,0.4,0.6,,,0.483,,0.2,0.8,0.4,0.6,0.2,0.8,0.6,0.4,1,0
,,5e39cf6d0331aa07667a58ae,66fc9824caa5b98c125b655b,2024-10-02_02h48.55.359,mdp,2024.2.1,MacIntel,59.88023952,66fa4ebf79326e780c390304,,,,,,,,,,,,,,,,,,,,,753.3925,753.3925,753.3939,754.3254,0,0,left,0.4003,,754.3269,755.3087,1,0,right,755.3101,755.8917,1,1,right,0,755.8918,755.8918,755.8924,757.392,0,34,34,34,1,0.8,0.2,0.8,0.2,,,,,,,,,,,,,,,0.45,,0.2,0.8,0.6,0.4,0.6,0.4,0.4,0.6,,,0.0625,,0.4,0.6,0.6,0.4,0.2,0.8,0.6,0.4,1,0
,,5e39cf6d0331aa07667a58ae,66fc9824caa5b98c125b655b,2024-10-02_02h48.55.359,mdp,2024.2.1,MacIntel,59.88023952,66fa4ebf79326e780c390304,,,,,,,,,,,,,,,,,,,,,757.3926,757.3926,757.3939,758.1422,0,1,left,0.2172,,758.1436,758.8087,1,0,right,758.8099,759.6411,0,0,left,1,759.6413,759.6413,759.6423,761.1416,0,35,35,35,1,0.8,0.2,0.8,0.2,,,,,,,,,,,,,,,0.1307,,0.2,0.8,0.6,0.4,0.6,0.4,0.4,0.6,,,0.3055,,0.4,0.6,0.6,0.4,0.2,0.8,0.6,0.4,1,0
,,5e39cf6d0331aa07667a58ae,66fc9824caa5b98c125b655b,2024-10-02_02h48.55.359,mdp,2024.2.1,MacIntel,59.88023952,66fa4ebf79326e780c390304,,,,,,,,,,,,,,,,,,,,,761.1422,761.1422,761.1436,762.0089,0,0,left,0.3338,,762.0103,762.7256,1,0,right,762.7271,763.6756,1,0,right,1,763.6758,763.6758,763.6771,765.1756,0,36,36,36,1,0.8,0.2,0.8,0.2,,,,,,,,,,,,,,,0.1806,,0.4,0.6,0.8,0.2,0.6,0.4,0.4,0.6,,,0.4213,,0.4,0.6,0.6,0.4,0.2,0.8,0.6,0.4,1,0
,,5e39cf6d0331aa07667a58ae,66fc9824caa5b98c125b655b,2024-10-02_02h48.55.359,mdp,2024.2.1,MacIntel,59.88023952,66fa4ebf79326e780c390304,,,,,,,,,,,,,,,,,,,,,765.1763,765.1763,765.1776,765.9091,0,0,left,0.2003,,765.9104,766.9926,0,1,left,766.9938,769.5091,0,0,left,1,769.5092,769.5092,769.5103,771.0091,0,37,37,37,1,0.8,0.2,0.8,0.2,,,,,,,,,,,,,,,0.5547,,0.4,0.6,0.8,0.2,0.6,0.4,0.4,0.6,,,1.9863,,0.4,0.6,0.6,0.4,0.2,0.8,0.6,0.4,1,0
,,5e39cf6d0331aa07667a58ae,66fc9824caa5b98c125b655b,2024-10-02_02h48.55.359,mdp,2024.2.1,MacIntel,59.88023952,66fa4ebf79326e780c390304,,,,,,,,,,,,,,,,,,,,,771.0097,771.0097,771.0112,771.9425,0,0,left,0.4116,,771.9439,772.6426,1,0,right,772.644,773.2592,1,1,right,0,773.2593,773.2594,773.2606,774.7593,0,38,38,38,1,0.8,0.2,0.8,0.2,,,,,,,,,,,,,,,0.1672,,0.4,0.6,0.8,0.2,0.6,0.4,0.4,0.6,,,0.0851,,0.4,0.6,0.6,0.4,0.2,0.8,0.6,0.4,1,0
,,5e39cf6d0331aa07667a58ae,66fc9824caa5b98c125b655b,2024-10-02_02h48.55.359,mdp,2024.2.1,MacIntel,59.88023952,66fa4ebf79326e780c390304,,,,,,,,,,,,,,,,,,,,,774.76,774.76,774.7613,775.7094,0,0,left,0.4187,,775.7108,776.4423,1,1,right,776.4428,777.5262,1,0,right,1,777.5262,777.5262,777.5275,779.026,0,39,39,39,1,0.8,0.2,0.8,0.2,,,,,,,,,,,,,,,0.2071,,0.8,0.2,0.2,0.8,0.6,0.4,0.4,0.6,,,0.5526,,0.4,0.6,0.6,0.4,0.2,0.8,0.6,0.4,1,0
,,5e39cf6d0331aa07667a58ae,66fc9824caa5b98c125b655b,2024-10-02_02h48.55.359,mdp,2024.2.1,MacIntel,59.88023952,66fa4ebf79326e780c390304,,,,,,,,,,,,,,,,,,,,,779.0266,779.0266,779.028,779.876,0,0,left,0.3234,,779.8768,780.5761,1,1,right,780.5773,781.3429,0,1,left,0,781.343,781.343,781.3443,782.8428,0,40,40,40,1,0.8,0.2,0.8,0.2,,,,,,,,,,,,,,,0.1858,,0.8,0.2,0.2,0.8,0.6,0.4,0.4,0.6,,,0.2384,,0.4,0.6,0.6,0.4,0.2,0.8,0.6,0.4,1,0
,,5e39cf6d0331aa07667a58ae,66fc9824caa5b98c125b655b,2024-10-02_02h48.55.359,mdp,2024.2.1,MacIntel,59.88023952,66fa4ebf79326e780c390304,,,,,,,,,,,,,,,,,,,,,782.8434,782.8435,782.8449,783.7097,0,0,left,0.346,,783.7108,784.343,1,1,right,784.3444,785.042,1,1,right,0,785.0421,785.0421,785.0431,786.5425,0,41,41,41,1,0.8,0.2,0.8,0.2,,,,,,,,,,,,,,,0.1002,,0.8,0.2,0.2,0.8,0.6,0.4,0.4,0.6,,,0.1669,,0.4,0.6,0.6,0.4,0.6,0.4,0.2,0.8,1,0
,,5e39cf6d0331aa07667a58ae,66fc9824caa5b98c125b655b,2024-10-02_02h48.55.359,mdp,2024.2.1,MacIntel,59.88023952,66fa4ebf79326e780c390304,,,,,,,,,,,,,,,,,,,,,786.5428,786.5428,786.5433,787.3597,0,0,left,0.3003,,787.3611,788.4264,1,1,right,788.428,789.2932,0,0,left,1,789.2933,789.2933,789.2946,790.7931,0,42,42,42,1,0.8,0.2,0.8,0.2,,,,,,,,,,,,,,,0.5344,,0.8,0.2,0.2,0.8,0.6,0.4,0.4,0.6,,,0.3335,,0.4,0.6,0.6,0.4,0.6,0.4,0.2,0.8,1,0
,,5e39cf6d0331aa07667a58ae,66fc9824caa5b98c125b655b,2024-10-02_02h48.55.359,mdp,2024.2.1,MacIntel,59.88023952,66fa4ebf79326e780c390304,,,,,,,,,,,,,,,,,,,,,790.7937,790.7937,790.7949,791.6266,0,0,left,0.3053,,791.6279,792.3099,1,1,right,792.3114,792.9433,1,0,right,1,792.9434,792.9434,792.9448,794.4433,0,43,43,43,1,0.8,0.2,0.8,0.2,,,,,,,,,,,,,,,0.1501,,0.8,0.2,0.2,0.8,0.6,0.4,0.4,0.6,,,0.1015,,0.4,0.6,0.6,0.4,0.6,0.4,0.2,0.8,1,0
,,5e39cf6d0331aa07667a58ae,66fc9824caa5b98c125b655b,2024-10-02_02h48.55.359,mdp,2024.2.1,MacIntel,59.88023952,66fa4ebf79326e780c390304,,,,,,,,,,,,,,,,,,,,,794.4439,794.4439,794.4452,795.5935,1,1,right,0.6193,,795.5949,796.4767,0,0,left,796.4782,798.0934,0,0,left,1,798.0935,798.0935,798.0949,799.5925,0,44,44,44,1,0.8,0.2,0.8,0.2,,,,,,,,,,,,,,,0.3472,,0.8,0.2,0.2,0.8,0.6,0.4,0.4,0.6,,,1.0806,,0.4,0.6,0.6,0.4,0.2,0.8,0.6,0.4,1,0
,,5e39cf6d0331aa07667a58ae,66fc9824caa5b98c125b655b,2024-10-02_02h48.55.359,mdp,2024.2.1,MacIntel,59.88023952,66fa4ebf79326e780c390304,,,,,,,,,,,,,,,,,,,,,799.5932,799.5932,799.5942,800.5592,0,0,left,0.4503,,800.5603,801.3768,0,0,left,801.3781,802.3092,0,0,left,1,802.3092,802.3092,802.3103,803.8102,0,45,45,45,1,0.8,0.2,0.8,0.2,,,,,,,,,,,,,,,0.297,,0.8,0.2,0.2,0.8,0.6,0.4,0.4,0.6,,,0.4003,,0.4,0.6,0.6,0.4,0.2,0.8,0.6,0.4,1,0
,,5e39cf6d0331aa07667a58ae,66fc9824caa5b98c125b655b,2024-10-02_02h48.55.359,mdp,2024.2.1,MacIntel,59.88023952,66fa4ebf79326e780c390304,,,,,,,,,,,,,,,,,,,,,803.8107,803.8107,803.8122,804.726,0,0,left,0.3837,,804.7271,805.476,0,0,left,805.4774,806.177,0,0,left,1,806.1771,806.1771,806.1784,807.677,0,46,46,46,1,0.8,0.2,0.8,0.2,,,,,,,,,,,,,,,0.2184,,0.8,0.2,0.2,0.8,0.6,0.4,0.4,0.6,,,0.1666,,0.4,0.6,0.6,0.4,0.2,0.8,0.6,0.4,1,0
,,5e39cf6d0331aa07667a58ae,66fc9824caa5b98c125b655b,2024-10-02_02h48.55.359,mdp,2024.2.1,MacIntel,59.88023952,66fa4ebf79326e780c390304,,,,,,,,,,,,,,,,,,,,,807.6775,807.6775,807.679,808.5594,0,1,left,0.3492,,808.5606,809.2261,0,0,left,809.2271,809.8771,0,0,left,1,809.8773,809.8773,809.8784,811.3762,0,47,47,47,1,0.8,0.2,0.8,0.2,,,,,,,,,,,,,,,0.1323,,0.8,0.2,0.2,0.8,0.6,0.4,0.4,0.6,,,0.1337,,0.4,0.6,0.6,0.4,0.2,0.8,0.6,0.4,1,0
,,5e39cf6d0331aa07667a58ae,66fc9824caa5b98c125b655b,2024-10-02_02h48.55.359,mdp,2024.2.1,MacIntel,59.88023952,66fa4ebf79326e780c390304,,,,,,,,,,,,,,,,,,,,,811.377,811.377,811.3782,812.194,0,0,left,0.3033,,812.1954,812.9772,0,0,left,812.9785,813.7272,0,0,left,1,813.7274,813.7274,813.7286,815.2264,0,48,48,48,1,0.8,0.2,0.8,0.2,,,,,,,,,,,,,,,0.2489,,0.8,0.2,0.2,0.8,0.6,0.4,0.4,0.6,,,0.2235,,0.4,0.6,0.6,0.4,0.2,0.8,0.6,0.4,1,0
,,5e39cf6d0331aa07667a58ae,66fc9824caa5b98c125b655b,2024-10-02_02h48.55.359,mdp,2024.2.1,MacIntel,59.88023952,66fa4ebf79326e780c390304,,,,,,,,,,,,,,,,,,,,,815.2271,815.2271,815.2281,816.1097,0,0,left,0.3509,,816.1109,816.8607,0,0,left,816.862,817.5108,0,1,left,0,817.5108,817.5109,817.5123,819.0108,0,49,49,49,1,0.8,0.2,0.8,0.2,,,,,,,,,,,,,,,0.2341,,0.8,0.2,0.2,0.8,0.6,0.4,0.4,0.6,,,0.117,,0.4,0.6,0.6,0.4,0.2,0.8,0.6,0.4,1,0
,,5e39cf6d0331aa07667a58ae,66fc9824caa5b98c125b655b,2024-10-02_02h48.55.359,mdp,2024.2.1,MacIntel,59.88023952,66fa4ebf79326e780c390304,,,,,,,,,,,,,,,,,,,,,,,,,,,,,,,,,,,,,,,,,,,,,,,,,,,,,,,,819.0109,877.5127,0,2,2,3,1,imgs/goat.png,imgs/lion.png,imgs/giraffe.png,imgs/dog.png,imgs/bear.png,,,,,,,,,,,,,,,,,,,,,,,,
,,5e39cf6d0331aa07667a58ae,66fc9824caa5b98c125b655b,2024-10-02_02h48.55.359,mdp,2024.2.1,MacIntel,59.88023952,66fa4ebf79326e780c390304,,,,,,,,,,,,,,3,seqs/st3seq21.csv,877.5135,884.4132,space,6.3676,,884.421,884.421,884.4217,886.0463,0,0,left,1.105,,886.0476,886.9131,1,0,right,886.9146,888.5631,0,0,left,1,888.5632,888.5632,888.5644,890.063,0,0,0,0,1,0.4,0.6,0.4,0.6,,,,,,,,,,,,,,,0.3364,,0.2,0.8,0.4,0.6,0.2,0.8,0.8,0.2,,,1.1193,,0.4,0.6,0.8,0.2,0.8,0.2,0.2,0.8,1,0
,,5e39cf6d0331aa07667a58ae,66fc9824caa5b98c125b655b,2024-10-02_02h48.55.359,mdp,2024.2.1,MacIntel,59.88023952,66fa4ebf79326e780c390304,,,,,,,,,,,,,,,,,,,,,890.0636,890.0636,890.0647,891.8132,0,0,left,1.2284,,891.8144,892.6298,1,1,right,892.6312,893.6299,0,0,left,1,893.6301,893.6301,893.6314,895.1299,0,1,1,1,1,0.4,0.6,0.4,0.6,,,,,,,,,,,,,,,0.2945,,0.2,0.8,0.4,0.6,0.2,0.8,0.8,0.2,,,0.467,,0.4,0.6,0.8,0.2,0.8,0.2,0.2,0.8,1,0
,,5e39cf6d0331aa07667a58ae,66fc9824caa5b98c125b655b,2024-10-02_02h48.55.359,mdp,2024.2.1,MacIntel,59.88023952,66fa4ebf79326e780c390304,,,,,,,,,,,,,,,,,,,,,895.1306,895.1307,895.132,895.9634,0,1,left,0.3001,,895.9648,896.5799,1,0,right,896.5813,897.2801,1,0,right,1,897.2801,897.2802,897.2814,898.7801,0,2,2,2,1,0.4,0.6,0.4,0.6,,,,,,,,,,,,,,,0.0789,,0.2,0.8,0.4,0.6,0.2,0.8,0.8,0.2,,,0.1661,,0.4,0.6,0.8,0.2,0.8,0.2,0.2,0.8,1,0
,,5e39cf6d0331aa07667a58ae,66fc9824caa5b98c125b655b,2024-10-02_02h48.55.359,mdp,2024.2.1,MacIntel,59.88023952,66fa4ebf79326e780c390304,,,,,,,,,,,,,,,,,,,,,898.7807,898.7807,898.7817,899.4302,0,1,left,0.1169,,899.4315,900.0968,1,0,right,900.0982,901.1135,0,0,left,1,901.1137,901.1137,901.1149,902.6137,0,3,3,3,1,0.4,0.6,0.4,0.6,,,,,,,,,,,,,,,0.1386,,0.2,0.8,0.4,0.6,0.2,0.8,0.8,0.2,,,0.4874,,0.4,0.6,0.8,0.2,0.8,0.2,0.2,0.8,1,0
,,5e39cf6d0331aa07667a58ae,66fc9824caa5b98c125b655b,2024-10-02_02h48.55.359,mdp,2024.2.1,MacIntel,59.88023952,66fa4ebf79326e780c390304,,,,,,,,,,,,,,,,,,,,,902.6145,902.6145,902.6157,903.5799,1,1,right,0.4441,,903.5806,904.2634,1,0,right,904.2642,905.5804,1,0,right,1,905.5805,905.5805,905.5818,907.0803,0,4,4,4,1,0.4,0.6,0.4,0.6,,,,,,,,,,,,,,,0.1674,,0.2,0.8,0.4,0.6,0.2,0.8,0.8,0.2,,,0.8002,,0.4,0.6,0.8,0.2,0.8,0.2,0.2,0.8,1,0
,,5e39cf6d0331aa07667a58ae,66fc9824caa5b98c125b655b,2024-10-02_02h48.55.359,mdp,2024.2.1,MacIntel,59.88023952,66fa4ebf79326e780c390304,,,,,,,,,,,,,,,,,,,,,907.0811,907.0811,907.0823,907.93,0,1,left,0.315,,907.9307,908.6801,1,0,right,908.6808,909.4972,0,0,left,1,909.4972,909.4972,909.4985,910.9973,0,5,5,5,1,0.4,0.6,0.4,0.6,,,,,,,,,,,,,,,0.2449,,0.2,0.8,0.4,0.6,0.2,0.8,0.8,0.2,,,0.2998,,0.4,0.6,0.8,0.2,0.8,0.2,0.2,0.8,1,0
,,5e39cf6d0331aa07667a58ae,66fc9824caa5b98c125b655b,2024-10-02_02h48.55.359,mdp,2024.2.1,MacIntel,59.88023952,66fa4ebf79326e780c390304,,,,,,,,,,,,,,,,,,,,,910.9982,910.9982,910.9997,911.6304,0,1,left,0.1032,,911.6315,912.3972,1,0,right,912.3988,913.0471,1,0,right,1,913.0472,913.0472,913.0485,914.5473,0,6,6,6,1,0.4,0.6,0.4,0.6,,,,,,,,,,,,,,,0.2337,,0.2,0.8,0.4,0.6,0.2,0.8,0.8,0.2,,,0.1188,,0.4,0.6,0.8,0.2,0.8,0.2,0.2,0.8,1,0
,,5e39cf6d0331aa07667a58ae,66fc9824caa5b98c125b655b,2024-10-02_02h48.55.359,mdp,2024.2.1,MacIntel,59.88023952,66fa4ebf79326e780c390304,,,,,,,,,,,,,,,,,,,,,914.5479,914.548,914.5493,915.1975,0,1,left,0.1194,,915.1988,915.8974,1,0,right,915.8989,916.5131,0,0,left,1,916.5132,916.5132,916.5141,918.014,0,7,7,7,1,0.4,0.6,0.4,0.6,,,,,,,,,,,,,,,0.1665,,0.6,0.4,0.6,0.4,0.2,0.8,0.8,0.2,,,0.0837,,0.4,0.6,0.8,0.2,0.8,0.2,0.2,0.8,1,0
,,5e39cf6d0331aa07667a58ae,66fc9824caa5b98c125b655b,2024-10-02_02h48.55.359,mdp,2024.2.1,MacIntel,59.88023952,66fa4ebf79326e780c390304,,,,,,,,,,,,,,,,,,,,,918.0147,918.0147,918.016,918.9805,0,0,left,0.4324,,918.9809,919.664,1,0,right,919.6651,920.3308,1,0,right,1,920.3309,920.3309,920.3322,921.8309,0,8,8,8,1,0.4,0.6,0.4,0.6,,,,,,,,,,,,,,,0.1618,,0.6,0.4,0.6,0.4,0.2,0.8,0.8,0.2,,,0.1335,,0.4,0.6,0.8,0.2,0.8,0.2,0.2,0.8,1,0
,,5e39cf6d0331aa07667a58ae,66fc9824caa5b98c125b655b,2024-10-02_02h48.55.359,mdp,2024.2.1,MacIntel,59.88023952,66fa4ebf79326e780c390304,,,,,,,,,,,,,,,,,,,,,921.8315,921.8315,921.8326,922.4307,0,0,left,0.0777,,922.4317,923.0975,1,1,right,923.0987,923.6807,0,0,left,1,923.6807,923.6807,923.6814,925.1809,0,9,9,9,1,0.4,0.6,0.4,0.6,,,,,,,,,,,,,,,0.1515,,0.6,0.4,0.6,0.4,0.2,0.8,0.8,0.2,,,0.0591,,0.4,0.6,0.8,0.2,0.8,0.2,0.2,0.8,1,0
,,5e39cf6d0331aa07667a58ae,66fc9824caa5b98c125b655b,2024-10-02_02h48.55.359,mdp,2024.2.1,MacIntel,59.88023952,66fa4ebf79326e780c390304,,,,,,,,,,,,,,,,,,,,,925.1815,925.1815,925.1828,925.9809,0,0,left,0.267,,925.9825,926.5643,1,1,right,926.5658,927.0977,1,1,right,0,927.0977,927.0977,927.0987,928.5978,0,10,10,10,1,0.4,0.6,0.4,0.6,,,,,,,,,,,,,,,0.0497,,0.6,0.4,0.6,0.4,0.2,0.8,0.8,0.2,,,0.0119,,0.4,0.6,0.8,0.2,0.8,0.2,0.2,0.8,1,0
,,5e39cf6d0331aa07667a58ae,66fc9824caa5b98c125b655b,2024-10-02_02h48.55.359,mdp,2024.2.1,MacIntel,59.88023952,66fa4ebf79326e780c390304,,,,,,,,,,,,,,,,,,,,,928.5986,928.5986,928.5998,929.2147,0,1,left,0.0839,,929.2164,929.7801,1,1,right,929.7815,930.3478,0,1,left,0,930.348,930.348,930.3494,931.848,0,11,11,11,1,0.4,0.6,0.4,0.6,,,,,,,,,,,,,,,0.0307,,0.6,0.4,0.6,0.4,0.2,0.8,0.8,0.2,,,0.0502,,0.4,0.6,0.8,0.2,0.8,0.2,0.2,0.8,1,0
,,5e39cf6d0331aa07667a58ae,66fc9824caa5b98c125b655b,2024-10-02_02h48.55.359,mdp,2024.2.1,MacIntel,59.88023952,66fa4ebf79326e780c390304,,,,,,,,,,,,,,,,,,,,,931.8486,931.8486,931.8499,932.4315,0,0,left,0.0626,,932.4328,933.0312,1,0,right,933.0326,933.998,1,0,right,1,933.9981,933.9981,933.9994,935.498,0,12,12,12,1,0.4,0.6,0.4,0.6,,,,,,,,,,,,,,,0.073,,0.6,0.4,0.6,0.4,0.2,0.8,0.8,0.2,,,0.4431,,0.4,0.6,0.8,0.2,0.8,0.2,0.2,0.8,1,0
,,5e39cf6d0331aa07667a58ae,66fc9824caa5b98c125b655b,2024-10-02_02h48.55.359,mdp,2024.2.1,MacIntel,59.88023952,66fa4ebf79326e780c390304,,,,,,,,,,,,,,,,,,,,,935.4989,935.4989,935.5003,936.2982,0,1,left,0.2788,,936.2996,936.8314,1,1,right,936.8328,937.4147,0,0,left,1,937.4149,937.4149,937.4162,938.9147,0,13,13,13,1,0.2,0.8,0.2,0.8,,,,,,,,,,,,,,,0.0004,,0.6,0.4,0.6,0.4,0.2,0.8,0.8,0.2,,,0.046,,0.4,0.6,0.8,0.2,0.8,0.2,0.2,0.8,1,0
,,5e39cf6d0331aa07667a58ae,66fc9824caa5b98c125b655b,2024-10-02_02h48.55.359,mdp,2024.2.1,MacIntel,59.88023952,66fa4ebf79326e780c390304,,,,,,,,,,,,,,,,,,,,,938.9153,938.9153,938.9166,939.7812,0,0,left,0.3383,,939.7821,940.4316,1,0,right,940.433,941.3812,1,0,right,1,941.3813,941.3813,941.3819,942.8813,0,14,14,14,1,0.2,0.8,0.2,0.8,,,,,,,,,,,,,,,0.1315,,0.6,0.4,0.6,0.4,0.2,0.8,0.8,0.2,,,0.4119,,0.4,0.6,0.8,0.2,0.8,0.2,0.2,0.8,1,0
,,5e39cf6d0331aa07667a58ae,66fc9824caa5b98c125b655b,2024-10-02_02h48.55.359,mdp,2024.2.1,MacIntel,59.88023952,66fa4ebf79326e780c390304,,,,,,,,,,,,,,,,,,,,,942.8815,942.8815,942.8821,945.1818,0,0,left,1.7691,,945.1833,945.9649,1,0,right,945.9662,946.6151,0,0,left,1,946.6152,946.6152,946.6167,948.115,0,15,15,15,1,0.2,0.8,0.2,0.8,,,,,,,,,,,,,,,0.2608,,0.6,0.4,0.6,0.4,0.2,0.8,0.8,0.2,,,0.117,,0.4,0.6,0.8,0.2,0.8,0.2,0.2,0.8,1,0
,,5e39cf6d0331aa07667a58ae,66fc9824caa5b98c125b655b,2024-10-02_02h48.55.359,mdp,2024.2.1,MacIntel,59.88023952,66fa4ebf79326e780c390304,,,,,,,,,,,,,,,,,,,,,948.1156,948.1156,948.1171,948.8309,0,0,left,0.1835,,948.8325,949.4152,1,0,right,949.4166,949.9814,1,0,right,1,949.9814,949.9814,949.9818,951.4818,0,16,16,16,1,0.2,0.8,0.2,0.8,,,,,,,,,,,,,,,0.0697,,0.6,0.4,0.6,0.4,0.2,0.8,0.8,0.2,,,0.0379,,0.4,0.6,0.8,0.2,0.8,0.2,0.2,0.8,1,0
,,5e39cf6d0331aa07667a58ae,66fc9824caa5b98c125b655b,2024-10-02_02h48.55.359,mdp,2024.2.1,MacIntel,59.88023952,66fa4ebf79326e780c390304,,,,,,,,,,,,,,,,,,,,,951.4824,951.4824,951.4837,952.1985,0,0,left,0.1835,,952.1999,952.7818,1,0,right,952.7829,953.3143,0,1,left,0,953.3143,953.3144,953.3153,954.815,0,17,17,17,1,0.2,0.8,0.2,0.8,,,,,,,,,,,,,,,0.0501,,0.6,0.4,0.6,0.4,0.2,0.8,0.8,0.2,,,0.0004,,0.4,0.6,0.8,0.2,0.8,0.2,0.2,0.8,1,0
,,5e39cf6d0331aa07667a58ae,66fc9824caa5b98c125b655b,2024-10-02_02h48.55.359,mdp,2024.2.1,MacIntel,59.88023952,66fa4ebf79326e780c390304,,,,,,,,,,,,,,,,,,,,,954.8156,954.8156,954.817,955.6987,0,1,left,0.35,,955.7003,956.282,1,0,right,956.2833,956.8817,0,0,left,1,956.8818,956.8818,956.8823,958.382,0,18,18,18,1,0.2,0.8,0.2,0.8,,,,,,,,,,,,,,,0.047,,0.6,0.4,0.6,0.4,0.2,0.8,0.8,0.2,,,0.0698,,0.6,0.4,0.6,0.4,0.8,0.2,0.2,0.8,1,0
,,5e39cf6d0331aa07667a58ae,66fc9824caa5b98c125b655b,2024-10-02_02h48.55.359,mdp,2024.2.1,MacIntel,59.88023952,66fa4ebf79326e780c390304,,,,,,,,,,,,,,,,,,,,,958.3827,958.3827,958.384,959.0984,0,1,left,0.1942,,959.099,959.9988,0,1,left,960.0001,961.5656,1,1,right,0,961.5657,961.5657,961.567,963.0656,0,19,19,19,1,0.2,0.8,0.2,0.8,,,,,,,,,,,,,,,0.3872,,0.6,0.4,0.6,0.4,0.2,0.8,0.8,0.2,,,1.0328,,0.6,0.4,0.6,0.4,0.8,0.2,0.2,0.8,1,0
,,5e39cf6d0331aa07667a58ae,66fc9824caa5b98c125b655b,2024-10-02_02h48.55.359,mdp,2024.2.1,MacIntel,59.88023952,66fa4ebf79326e780c390304,,,,,,,,,,,,,,,,,,,,,963.0664,963.0664,963.0678,963.8157,0,1,left,0.2221,,963.8171,964.832,1,0,right,964.8329,965.6324,0,1,left,0,965.6325,965.6325,965.6339,967.1323,0,20,20,20,1,0.2,0.8,0.2,0.8,,,,,,,,,,,,,,,0.4818,,0.6,0.4,0.6,0.4,0.2,0.8,0.8,0.2,,,0.2674,,0.6,0.4,0.6,0.4,0.8,0.2,0.2,0.8,1,0
,,5e39cf6d0331aa07667a58ae,66fc9824caa5b98c125b655b,2024-10-02_02h48.55.359,mdp,2024.2.1,MacIntel,59.88023952,66fa4ebf79326e780c390304,,,,,,,,,,,,,,,,,,,,,967.133,967.133,967.1345,967.899,0,1,left,0.2332,,967.9005,968.6487,1,0,right,968.6495,969.4488,1,1,right,0,969.4488,969.4488,969.4496,970.949,0,21,21,21,1,0.2,0.8,0.2,0.8,,,,,,,,,,,,,,,0.2212,,0.6,0.4,0.6,0.4,0.2,0.8,0.8,0.2,,,0.2906,,0.2,0.8,0.8,0.2,0.8,0.2,0.2,0.8,1,0
,,5e39cf6d0331aa07667a58ae,66fc9824caa5b98c125b655b,2024-10-02_02h48.55.359,mdp,2024.2.1,MacIntel,59.88023952,66fa4ebf79326e780c390304,,,,,,,,,,,,,,,,,,,,,970.9499,970.9499,970.9512,971.7993,0,1,left,0.317,,971.8006,972.5658,0,1,left,972.5671,973.2995,0,0,left,1,973.2996,973.2996,973.301,974.7992,0,22,22,22,1,0.2,0.8,0.2,0.8,,,,,,,,,,,,,,,0.2351,,0.6,0.4,0.6,0.4,0.2,0.8,0.8,0.2,,,0.2099,,0.2,0.8,0.8,0.2,0.8,0.2,0.2,0.8,1,0
,,5e39cf6d0331aa07667a58ae,66fc9824caa5b98c125b655b,2024-10-02_02h48.55.359,mdp,2024.2.1,MacIntel,59.88023952,66fa4ebf79326e780c390304,,,,,,,,,,,,,,,,,,,,,974.7998,974.7998,974.8011,975.5993,1,0,right,0.2668,,975.6008,976.3159,1,0,right,976.3171,976.9327,1,1,right,0,976.9329,976.9329,976.9341,978.4327,0,23,23,23,1,0.2,0.8,0.2,0.8,,,,,,,,,,,,,,,0.18,,0.6,0.4,0.6,0.4,0.2,0.8,0.8,0.2,,,0.0827,,0.2,0.8,0.8,0.2,0.4,0.6,0.4,0.6,1,0
,,5e39cf6d0331aa07667a58ae,66fc9824caa5b98c125b655b,2024-10-02_02h48.55.359,mdp,2024.2.1,MacIntel,59.88023952,66fa4ebf79326e780c390304,,,,,,,,,,,,,,,,,,,,,978.4335,978.4335,978.4346,979.2829,0,1,left,0.3172,,979.2843,979.8493,1,1,right,979.8505,980.4493,0,0,left,1,980.4493,980.4493,980.4501,981.9495,0,24,24,24,1,0.2,0.8,0.2,0.8,,,,,,,,,,,,,,,0.0304,,0.6,0.4,0.6,0.4,0.2,0.8,0.8,0.2,,,0.0676,,0.2,0.8,0.8,0.2,0.4,0.6,0.4,0.6,1,0
,,5e39cf6d0331aa07667a58ae,66fc9824caa5b98c125b655b,2024-10-02_02h48.55.359,mdp,2024.2.1,MacIntel,59.88023952,66fa4ebf79326e780c390304,,,,,,,,,,,,,,,,,,,,,981.9501,981.9501,981.9514,982.8159,0,0,left,0.333,,982.8165,983.433,1,0,right,983.4345,984.0161,1,0,right,1,984.0162,984.0162,984.017,985.5162,0,25,25,25,1,0.2,0.8,0.2,0.8,,,,,,,,,,,,,,,0.0983,,0.6,0.4,0.6,0.4,0.2,0.8,0.8,0.2,,,0.0596,,0.2,0.8,0.8,0.2,0.8,0.2,0.2,0.8,1,0
,,5e39cf6d0331aa07667a58ae,66fc9824caa5b98c125b655b,2024-10-02_02h48.55.359,mdp,2024.2.1,MacIntel,59.88023952,66fa4ebf79326e780c390304,,,,,,,,,,,,,,,,,,,,,985.5168,985.5168,985.5182,986.3993,1,1,right,0.3501,,986.4001,986.9831,1,0,right,986.9846,987.583,1,1,right,0,987.5831,987.5832,987.5845,989.0831,0,26,26,26,1,0.2,0.8,0.2,0.8,,,,,,,,,,,,,,,0.0631,,0.6,0.4,0.6,0.4,0.2,0.8,0.8,0.2,,,0.0661,,0.2,0.8,0.8,0.2,0.8,0.2,0.2,0.8,1,0
,,5e39cf6d0331aa07667a58ae,66fc9824caa5b98c125b655b,2024-10-02_02h48.55.359,mdp,2024.2.1,MacIntel,59.88023952,66fa4ebf79326e780c390304,,,,,,,,,,,,,,,,,,,,,989.0837,989.0837,989.0852,989.8162,0,1,left,0.1992,,989.817,990.4994,0,1,left,990.5004,991.0831,0,1,left,0,991.0833,991.0833,991.0845,992.5831,0,27,27,27,1,0.2,0.8,0.2,0.8,,,,,,,,,,,,,,,0.1668,,0.6,0.4,0.6,0.4,0.2,0.8,0.8,0.2,,,0.0632,,0.2,0.8,0.8,0.2,0.8,0.2,0.2,0.8,1,0
,,5e39cf6d0331aa07667a58ae,66fc9824caa5b98c125b655b,2024-10-02_02h48.55.359,mdp,2024.2.1,MacIntel,59.88023952,66fa4ebf79326e780c390304,,,,,,,,,,,,,,,,,,,,,992.5837,992.5837,992.5849,993.6832,0,1,left,0.5732,,993.6847,994.4832,1,0,right,994.4847,995.1001,0,1,left,0,995.1002,995.1002,995.1012,996.6,0,28,28,28,1,0.2,0.8,0.2,0.8,,,,,,,,,,,,,,,0.2665,,0.6,0.4,0.6,0.4,0.2,0.8,0.8,0.2,,,0.0924,,0.2,0.8,0.8,0.2,0.8,0.2,0.2,0.8,1,0
,,5e39cf6d0331aa07667a58ae,66fc9824caa5b98c125b655b,2024-10-02_02h48.55.359,mdp,2024.2.1,MacIntel,59.88023952,66fa4ebf79326e780c390304,,,,,,,,,,,,,,,,,,,,,996.6007,996.6007,996.6021,997.6333,0,0,left,0.5107,,997.6346,998.3001,1,1,right,998.3016,998.8667,1,1,right,0,998.8669,998.8669,998.868,1000.3663,0,29,29,29,1,0.2,0.8,0.2,0.8,,,,,,,,,,,,,,,0.1301,,0.6,0.4,0.6,0.4,0.2,0.8,0.8,0.2,,,0.0323,,0.2,0.8,0.8,0.2,0.8,0.2,0.2,0.8,1,0
,,5e39cf6d0331aa07667a58ae,66fc9824caa5b98c125b655b,2024-10-02_02h48.55.359,mdp,2024.2.1,MacIntel,59.88023952,66fa4ebf79326e780c390304,,,,,,,,,,,,,,,,,,,,,1000.3671,1000.3671,1000.3683,1001.4667,1,0,right,0.5675,,1001.4683,1002.0001,0,0,left,1002.0011,1003.1335,0,1,left,0,1003.1336,1003.1336,1003.1349,1004.6336,0,30,30,30,1,0.6,0.4,0.4,0.6,,,,,,,,,,,,,,,0.0004,,0.6,0.4,0.6,0.4,0.2,0.8,0.8,0.2,,,0.5978,,0.2,0.8,0.8,0.2,0.8,0.2,0.2,0.8,1,0
,,5e39cf6d0331aa07667a58ae,66fc9824caa5b98c125b655b,2024-10-02_02h48.55.359,mdp,2024.2.1,MacIntel,59.88023952,66fa4ebf79326e780c390304,,,,,,,,,,,,,,,,,,,,,1004.6344,1004.6344,1004.6357,1005.6837,0,0,left,0.5169,,1005.6851,1006.517,1,0,right,1006.5185,1007.2499,0,1,left,0,1007.25,1007.25,1007.2503,1008.7503,0,31,31,31,1,0.6,0.4,0.4,0.6,,,,,,,,,,,,,,,0.3001,,0.6,0.4,0.6,0.4,0.2,0.8,0.8,0.2,,,0.1999,,0.2,0.8,0.8,0.2,0.8,0.2,0.2,0.8,1,0
,,5e39cf6d0331aa07667a58ae,66fc9824caa5b98c125b655b,2024-10-02_02h48.55.359,mdp,2024.2.1,MacIntel,59.88023952,66fa4ebf79326e780c390304,,,,,,,,,,,,,,,,,,,,,1008.7511,1008.7511,1008.7525,1009.6338,0,1,left,0.3505,,1009.6353,1010.3005,1,0,right,1010.3018,1011.2172,1,0,right,1,1011.2173,1011.2174,1011.2186,1012.7171,0,32,32,32,1,0.6,0.4,0.4,0.6,,,,,,,,,,,,,,,0.1324,,0.6,0.4,0.6,0.4,0.2,0.8,0.8,0.2,,,0.3873,,0.2,0.8,0.8,0.2,0.8,0.2,0.2,0.8,1,0
,,5e39cf6d0331aa07667a58ae,66fc9824caa5b98c125b655b,2024-10-02_02h48.55.359,mdp,2024.2.1,MacIntel,59.88023952,66fa4ebf79326e780c390304,,,,,,,,,,,,,,,,,,,,,1012.7179,1012.7179,1012.7192,1013.6169,0,0,left,0.3774,,1013.6175,1014.1673,1,1,right,1014.1687,1014.734,0,1,left,0,1014.7341,1014.7341,1014.7352,1016.2339,0,33,33,33,1,0.6,0.4,0.4,0.6,,,,,,,,,,,,,,,0.0271,,0.6,0.4,0.6,0.4,0.2,0.8,0.8,0.2,,,0.0291,,0.2,0.8,0.8,0.2,0.8,0.2,0.2,0.8,1,0
,,5e39cf6d0331aa07667a58ae,66fc9824caa5b98c125b655b,2024-10-02_02h48.55.359,mdp,2024.2.1,MacIntel,59.88023952,66fa4ebf79326e780c390304,,,,,,,,,,,,,,,,,,,,,1016.2345,1016.2345,1016.2359,1016.9671,0,0,left,0.2061,,1016.9679,1017.6174,1,0,right,1017.6184,1018.4508,0,1,left,0,1018.4509,1018.4509,1018.4522,1019.9507,0,34,34,34,1,0.6,0.4,0.4,0.6,,,,,,,,,,,,,,,0.1458,,0.6,0.4,0.6,0.4,0.2,0.8,0.8,0.2,,,0.3009,,0.2,0.8,0.8,0.2,0.8,0.2,0.2,0.8,1,0
,,5e39cf6d0331aa07667a58ae,66fc9824caa5b98c125b655b,2024-10-02_02h48.55.359,mdp,2024.2.1,MacIntel,59.88023952,66fa4ebf79326e780c390304,,,,,,,,,,,,,,,,,,,,,1019.9514,1019.9514,1019.9527,1020.9004,0,0,left,0.4159,,1020.9008,1021.5175,1,0,right,1021.519,1022.1506,0,1,left,0,1022.1507,1022.1507,1022.1516,1023.6508,0,35,35,35,1,0.6,0.4,0.4,0.6,,,,,,,,,,,,,,,0.0999,,0.6,0.4,0.6,0.4,0.2,0.8,0.8,0.2,,,0.1035,,0.2,0.8,0.8,0.2,0.8,0.2,0.2,0.8,1,0
,,5e39cf6d0331aa07667a58ae,66fc9824caa5b98c125b655b,2024-10-02_02h48.55.359,mdp,2024.2.1,MacIntel,59.88023952,66fa4ebf79326e780c390304,,,,,,,,,,,,,,,,,,,,,1023.6514,1023.6514,1023.6528,1024.2006,0,0,left,0.0191,,1024.2011,1024.8341,1,0,right,1024.8354,1025.4176,1,0,right,1,1025.4177,1025.4177,1025.4189,1026.9174,0,36,36,36,1,0.6,0.4,0.4,0.6,,,,,,,,,,,,,,,0.127,,0.6,0.4,0.6,0.4,0.2,0.8,0.8,0.2,,,0.062,,0.2,0.8,0.8,0.2,0.8,0.2,0.2,0.8,1,0
,,5e39cf6d0331aa07667a58ae,66fc9824caa5b98c125b655b,2024-10-02_02h48.55.359,mdp,2024.2.1,MacIntel,59.88023952,66fa4ebf79326e780c390304,,,,,,,,,,,,,,,,,,,,,1026.918,1026.918,1026.9191,1027.7344,0,1,left,0.2835,,1027.7358,1028.3012,1,0,right,1028.3026,1028.8843,0,1,left,0,1028.8844,1028.8844,1028.8856,1030.3842,0,37,37,37,1,0.6,0.4,0.4,0.6,,,,,,,,,,,,,,,0.0302,,0.6,0.4,0.6,0.4,0.2,0.8,0.8,0.2,,,0.0608,,0.2,0.8,0.8,0.2,0.8,0.2,0.2,0.8,1,0
,,5e39cf6d0331aa07667a58ae,66fc9824caa5b98c125b655b,2024-10-02_02h48.55.359,mdp,2024.2.1,MacIntel,59.88023952,66fa4ebf79326e780c390304,,,,,,,,,,,,,,,,,,,,,1030.3848,1030.3848,1030.386,1031.2511,0,1,left,0.3361,,1031.2523,1031.951,1,0,right,1031.9521,1032.4841,0,1,left,0,1032.4841,1032.4841,1032.4847,1033.9844,0,38,38,38,1,0.6,0.4,0.4,0.6,,,,,,,,,,,,,,,0.1682,,0.6,0.4,0.6,0.4,0.2,0.8,0.8,0.2,,,0.0009,,0.2,0.8,0.8,0.2,0.8,0.2,0.2,0.8,1,0
,,5e39cf6d0331aa07667a58ae,66fc9824caa5b98c125b655b,2024-10-02_02h48.55.359,mdp,2024.2.1,MacIntel,59.88023952,66fa4ebf79326e780c390304,,,,,,,,,,,,,,,,,,,,,1033.9852,1033.9852,1033.9864,1034.6349,0,0,left,0.1302,,1034.6363,1035.2511,1,0,right,1035.2521,1036.2182,1,0,right,1,1036.2183,1036.2183,1036.2195,1037.7179,0,39,39,39,1,0.6,0.4,0.4,0.6,,,,,,,,,,,,,,,0.0924,,0.6,0.4,0.6,0.4,0.2,0.8,0.8,0.2,,,0.4499,,0.2,0.8,0.8,0.2,0.8,0.2,0.2,0.8,1,0
,,5e39cf6d0331aa07667a58ae,66fc9824caa5b98c125b655b,2024-10-02_02h48.55.359,mdp,2024.2.1,MacIntel,59.88023952,66fa4ebf79326e780c390304,,,,,,,,,,,,,,,,,,,,,1037.7186,1037.7186,1037.7199,1038.4014,0,0,left,0.1621,,1038.4027,1039.3178,0,0,left,1039.3185,1040.118,0,1,left,0,1040.1181,1040.1181,1040.1196,1041.6176,0,40,40,40,1,0.6,0.4,0.4,0.6,,,,,,,,,,,,,,,0.3838,,0.6,0.4,0.6,0.4,0.2,0.8,0.8,0.2,,,0.2828,,0.2,0.8,0.8,0.2,0.8,0.2,0.2,0.8,1,0
,,5e39cf6d0331aa07667a58ae,66fc9824caa5b98c125b655b,2024-10-02_02h48.55.359,mdp,2024.2.1,MacIntel,59.88023952,66fa4ebf79326e780c390304,,,,,,,,,,,,,,,,,,,,,1041.618,1041.618,1041.6186,1042.4516,0,0,left,0.3005,,1042.4531,1043.4514,1,1,right,1043.4527,1044.185,0,1,left,0,1044.1851,1044.1851,1044.1863,1045.6849,0,41,41,41,1,0.6,0.4,0.4,0.6,,,,,,,,,,,,,,,0.4681,,0.4,0.6,0.4,0.6,0.2,0.8,0.8,0.2,,,0.2,,0.2,0.8,0.8,0.2,0.8,0.2,0.2,0.8,1,0
,,5e39cf6d0331aa07667a58ae,66fc9824caa5b98c125b655b,2024-10-02_02h48.55.359,mdp,2024.2.1,MacIntel,59.88023952,66fa4ebf79326e780c390304,,,,,,,,,,,,,,,,,,,,,1045.6857,1045.6857,1045.687,1046.4349,0,1,left,0.2207,,1046.4363,1047.0848,1,1,right,1047.0862,1047.6517,1,1,right,0,1047.6519,1047.6519,1047.6535,1049.1517,0,42,42,42,1,0.6,0.4,0.4,0.6,,,,,,,,,,,,,,,0.1261,,0.4,0.6,0.4,0.6,0.2,0.8,0.8,0.2,,,0.0366,,0.2,0.8,0.8,0.2,0.8,0.2,0.2,0.8,1,0
,,5e39cf6d0331aa07667a58ae,66fc9824caa5b98c125b655b,2024-10-02_02h48.55.359,mdp,2024.2.1,MacIntel,59.88023952,66fa4ebf79326e780c390304,,,,,,,,,,,,,,,,,,,,,1049.1525,1049.1525,1049.1538,1050.1185,0,0,left,0.4335,,1050.1201,1050.6685,1,0,right,1050.67,1051.7016,0,0,left,1,1051.7017,1051.7017,1051.7026,1053.2018,0,43,43,43,1,0.6,0.4,0.4,0.6,,,,,,,,,,,,,,,0.0142,,0.4,0.6,0.4,0.6,0.2,0.8,0.8,0.2,,,0.4981,,0.2,0.8,0.8,0.2,0.8,0.2,0.2,0.8,1,0
,,5e39cf6d0331aa07667a58ae,66fc9824caa5b98c125b655b,2024-10-02_02h48.55.359,mdp,2024.2.1,MacIntel,59.88023952,66fa4ebf79326e780c390304,,,,,,,,,,,,,,,,,,,,,1053.2026,1053.2026,1053.2038,1054.0515,0,0,left,0.3268,,1054.0522,1054.7686,1,1,right,1054.7699,1055.585,0,0,left,1,1055.5851,1055.5851,1055.586,1057.0853,0,44,44,44,1,0.6,0.4,0.4,0.6,,,,,,,,,,,,,,,0.1889,,0.4,0.6,0.4,0.6,0.2,0.8,0.8,0.2,,,0.2861,,0.2,0.8,0.8,0.2,0.8,0.2,0.2,0.8,1,0
,,5e39cf6d0331aa07667a58ae,66fc9824caa5b98c125b655b,2024-10-02_02h48.55.359,mdp,2024.2.1,MacIntel,59.88023952,66fa4ebf79326e780c390304,,,,,,,,,,,,,,,,,,,,,1057.0859,1057.0859,1057.0871,1057.8352,0,1,left,0.2287,,1057.8364,1058.5521,1,0,right,1058.5537,1059.1188,1,0,right,1,1059.1189,1059.1189,1059.1203,1060.6187,0,45,45,45,1,0.6,0.4,0.4,0.6,,,,,,,,,,,,,,,0.1969,,0.4,0.6,0.4,0.6,0.2,0.8,0.8,0.2,,,0.0419,,0.2,0.8,0.8,0.2,0.8,0.2,0.2,0.8,1,0
,,5e39cf6d0331aa07667a58ae,66fc9824caa5b98c125b655b,2024-10-02_02h48.55.359,mdp,2024.2.1,MacIntel,59.88023952,66fa4ebf79326e780c390304,,,,,,,,,,,,,,,,,,,,,1060.6193,1060.6193,1060.6207,1061.4188,0,1,left,0.2665,,1061.4202,1062.2521,1,0,right,1062.2536,1062.8522,0,1,left,0,1062.8524,1062.8524,1062.8538,1064.3522,0,46,46,46,1,0.6,0.4,0.4,0.6,,,,,,,,,,,,,,,0.2997,,0.4,0.6,0.4,0.6,0.2,0.8,0.8,0.2,,,0.0694,,0.2,0.8,0.8,0.2,0.8,0.2,0.2,0.8,1,0
,,5e39cf6d0331aa07667a58ae,66fc9824caa5b98c125b655b,2024-10-02_02h48.55.359,mdp,2024.2.1,MacIntel,59.88023952,66fa4ebf79326e780c390304,,,,,,,,,,,,,,,,,,,,,1064.353,1064.353,1064.3543,1065.1187,0,1,left,0.2385,,1065.1195,1065.9189,1,0,right,1065.9204,1066.8355,1,1,right,0,1066.8356,1066.8356,1066.8368,1068.3357,0,47,47,47,1,0.6,0.4,0.4,0.6,,,,,,,,,,,,,,,0.2701,,0.4,0.6,0.4,0.6,0.2,0.8,0.8,0.2,,,0.3842,,0.4,0.6,0.2,0.8,0.8,0.2,0.2,0.8,1,0
,,5e39cf6d0331aa07667a58ae,66fc9824caa5b98c125b655b,2024-10-02_02h48.55.359,mdp,2024.2.1,MacIntel,59.88023952,66fa4ebf79326e780c390304,,,,,,,,,,,,,,,,,,,,,1068.3365,1068.3366,1068.338,1069.202,0,0,left,0.3439,,1069.2027,1070.0522,1,0,right,1070.053,1070.7359,0,0,left,1,1070.7359,1070.7359,1070.7373,1072.2357,0,48,48,48,1,0.6,0.4,0.4,0.6,,,,,,,,,,,,,,,0.3217,,0.8,0.2,0.6,0.4,0.2,0.8,0.8,0.2,,,0.1669,,0.4,0.6,0.2,0.8,0.8,0.2,0.2,0.8,1,0
,,5e39cf6d0331aa07667a58ae,66fc9824caa5b98c125b655b,2024-10-02_02h48.55.359,mdp,2024.2.1,MacIntel,59.88023952,66fa4ebf79326e780c390304,,,,,,,,,,,,,,,,,,,,,1072.2365,1072.2365,1072.2379,1073.1687,0,0,left,0.3991,,1073.1694,1073.7193,1,0,right,1073.7208,1074.3692,1,1,right,0,1074.3694,1074.3694,1074.3706,1075.8694,0,49,49,49,1,0.6,0.4,0.4,0.6,,,,,,,,,,,,,,,0.0331,,0.8,0.2,0.6,0.4,0.2,0.8,0.8,0.2,,,0.1229,,0.4,0.6,0.2,0.8,0.8,0.2,0.2,0.8,1,0
,,5e39cf6d0331aa07667a58ae,66fc9824caa5b98c125b655b,2024-10-02_02h48.55.359,mdp,2024.2.1,MacIntel,59.88023952,66fa4ebf79326e780c390304,,,,,,,,,,,,,,,,,,,,,,,,,,,,,,,,,,,,,,,,,,,,,,,,,,,,,,,,1075.8696,1134.3711,0,3,3,4,1,imgs/elephant.png,imgs/dog.png,imgs/squirrel.png,imgs/goat.png,imgs/lion.png,,,,,,,,,,,,,,,,,,,,,,,,
,,5e39cf6d0331aa07667a58ae,66fc9824caa5b98c125b655b,2024-10-02_02h48.55.359,mdp,2024.2.1,MacIntel,59.88023952,66fa4ebf79326e780c390304,,,,,,,,,,,,,,1,seqs/st1seq42.csv,1134.3729,1136.0715,space,1.1799,,1136.0748,1136.0749,1136.0757,1137.9881,0,0,left,1.3817,,1137.9897,1137.9908,1,1,,1137.9912,1137.9915,1,1,,1,1137.9916,1137.9916,1137.9919,1139.4879,0,0,0,0,1,0.2,0.8,0.6,0.4,1,0,,,,,,,,,,,,,,,,,,,,,,,,,,,,,,,,,,,,
,,5e39cf6d0331aa07667a58ae,66fc9824caa5b98c125b655b,2024-10-02_02h48.55.359,mdp,2024.2.1,MacIntel,59.88023952,66fa4ebf79326e780c390304,,,,,,,,,,,,,,,,,,,,,1139.4885,1139.4885,1139.4898,1140.8548,0,0,left,0.8351,,1140.8563,1140.8572,1,0,,1140.8577,1140.858,1,0,,1,1140.858,1140.858,1140.8584,1142.3546,0,1,1,1,1,0.8,0.2,0.4,0.6,1,0,,,,,,,,,,,,,,,,,,,,,,,,,,,,,,,,,,,,
,,5e39cf6d0331aa07667a58ae,66fc9824caa5b98c125b655b,2024-10-02_02h48.55.359,mdp,2024.2.1,MacIntel,59.88023952,66fa4ebf79326e780c390304,,,,,,,,,,,,,,,,,,,,,1142.355,1142.355,1142.3559,1143.2049,0,0,left,0.3175,,1143.2063,1143.2072,1,0,,1143.2079,1143.2082,1,0,,1,1143.2083,1143.2083,1143.2087,1144.7048,0,2,2,2,1,0.8,0.2,0.4,0.6,1,0,,,,,,,,,,,,,,,,,,,,,,,,,,,,,,,,,,,,
,,5e39cf6d0331aa07667a58ae,66fc9824caa5b98c125b655b,2024-10-02_02h48.55.359,mdp,2024.2.1,MacIntel,59.88023952,66fa4ebf79326e780c390304,,,,,,,,,,,,,,,,,,,,,1144.7054,1144.7054,1144.7067,1145.2882,0,0,left,0.0507,,1145.2897,1145.2905,1,0,,1145.2909,1145.2912,1,0,,1,1145.2912,1145.2912,1145.2915,1146.7882,0,3,3,3,1,0.8,0.2,0.4,0.6,1,0,,,,,,,,,,,,,,,,,,,,,,,,,,,,,,,,,,,,
,,5e39cf6d0331aa07667a58ae,66fc9824caa5b98c125b655b,2024-10-02_02h48.55.359,mdp,2024.2.1,MacIntel,59.88023952,66fa4ebf79326e780c390304,,,,,,,,,,,,,,,,,,,,,1146.7887,1146.7887,1146.79,1147.7216,0,1,left,0.412,,1147.7227,1147.7233,1,0,,1147.7239,1147.7243,1,0,,0,1147.7244,1147.7244,1147.7253,1149.2216,0,4,4,4,1,0.8,0.2,0.4,0.6,1,0,,,,,,,,,,,,,,,,,,,,,,,,,,,,,,,,,,,,
,,5e39cf6d0331aa07667a58ae,66fc9824caa5b98c125b655b,2024-10-02_02h48.55.359,mdp,2024.2.1,MacIntel,59.88023952,66fa4ebf79326e780c390304,,,,,,,,,,,,,,,,,,,,,1149.2222,1149.2222,1149.2236,1150.0215,0,0,left,0.267,,1150.0222,1150.0227,1,1,,1150.0232,1150.0234,1,1,,1,1150.0234,1150.0234,1150.0238,1151.5216,0,5,5,5,1,0.2,0.8,0.6,0.4,1,0,,,,,,,,,,,,,,,,,,,,,,,,,,,,,,,,,,,,
,,5e39cf6d0331aa07667a58ae,66fc9824caa5b98c125b655b,2024-10-02_02h48.55.359,mdp,2024.2.1,MacIntel,59.88023952,66fa4ebf79326e780c390304,,,,,,,,,,,,,,,,,,,,,1151.5222,1151.5222,1151.5236,1152.5383,0,0,left,0.4898,,1152.5397,1152.5405,1,1,,1152.5409,1152.5411,1,1,,1,1152.5411,1152.5411,1152.5415,1154.0385,0,6,6,6,1,0.2,0.8,0.6,0.4,1,0,,,,,,,,,,,,,,,,,,,,,,,,,,,,,,,,,,,,
,,5e39cf6d0331aa07667a58ae,66fc9824caa5b98c125b655b,2024-10-02_02h48.55.359,mdp,2024.2.1,MacIntel,59.88023952,66fa4ebf79326e780c390304,,,,,,,,,,,,,,,,,,,,,1154.0389,1154.0389,1154.0402,1154.8385,0,1,left,0.2691,,1154.84,1154.8407,1,1,,1154.8412,1154.8414,1,1,,0,1154.8414,1154.8414,1154.8417,1156.3384,0,7,7,7,1,0.2,0.8,0.6,0.4,1,0,,,,,,,,,,,,,,,,,,,,,,,,,,,,,,,,,,,,
,,5e39cf6d0331aa07667a58ae,66fc9824caa5b98c125b655b,2024-10-02_02h48.55.359,mdp,2024.2.1,MacIntel,59.88023952,66fa4ebf79326e780c390304,,,,,,,,,,,,,,,,,,,,,1156.339,1156.339,1156.3403,1157.3052,1,0,right,0.4336,,1157.3062,1157.3069,1,0,,1157.3073,1157.3076,1,0,,1,1157.3076,1157.3077,1157.3079,1158.8053,0,8,8,8,1,0.2,0.8,0.6,0.4,1,0,,,,,,,,,,,,,,,,,,,,,,,,,,,,,,,,,,,,
,,5e39cf6d0331aa07667a58ae,66fc9824caa5b98c125b655b,2024-10-02_02h48.55.359,mdp,2024.2.1,MacIntel,59.88023952,66fa4ebf79326e780c390304,,,,,,,,,,,,,,,,,,,,,1158.8059,1158.8059,1158.8071,1159.7054,0,1,left,0.3662,,1159.7067,1159.7074,1,1,,1159.7079,1159.7082,1,1,,0,1159.7082,1159.7082,1159.709,1161.2052,0,9,9,9,1,0.2,0.8,0.6,0.4,1,0,,,,,,,,,,,,,,,,,,,,,,,,,,,,,,,,,,,,
,,5e39cf6d0331aa07667a58ae,66fc9824caa5b98c125b655b,2024-10-02_02h48.55.359,mdp,2024.2.1,MacIntel,59.88023952,66fa4ebf79326e780c390304,,,,,,,,,,,,,,,,,,,,,1161.2057,1161.2058,1161.207,1162.1554,0,1,left,0.4165,,1162.1567,1162.1576,1,1,,1162.1581,1162.1585,1,1,,0,1162.1585,1162.1586,1162.159,1163.6556,0,10,10,10,1,0.2,0.8,0.6,0.4,1,0,,,,,,,,,,,,,,,,,,,,,,,,,,,,,,,,,,,,
,,5e39cf6d0331aa07667a58ae,66fc9824caa5b98c125b655b,2024-10-02_02h48.55.359,mdp,2024.2.1,MacIntel,59.88023952,66fa4ebf79326e780c390304,,,,,,,,,,,,,,,,,,,,,1163.6564,1163.6564,1163.6577,1165.0555,1,0,right,0.8672,,1165.0569,1165.0579,1,0,,1165.0583,1165.0585,1,1,,1,1165.0586,1165.0586,1165.0589,1166.5555,0,11,11,11,1,0.2,0.8,0.6,0.4,1,0,,,,,,,,,,,,,,,,,,,,,,,,,,,,,,,,,,,,
,,5e39cf6d0331aa07667a58ae,66fc9824caa5b98c125b655b,2024-10-02_02h48.55.359,mdp,2024.2.1,MacIntel,59.88023952,66fa4ebf79326e780c390304,,,,,,,,,,,,,,,,,,,,,1166.5562,1166.5563,1166.5577,1167.6724,1,0,right,0.5881,,1167.6737,1167.6746,1,1,,1167.6754,1167.6759,1,0,,1,1167.676,1167.676,1167.6763,1169.1715,0,12,12,12,1,0.6,0.4,0.8,0.2,1,0,,,,,,,,,,,,,,,,,,,,,,,,,,,,,,,,,,,,
,,5e39cf6d0331aa07667a58ae,66fc9824caa5b98c125b655b,2024-10-02_02h48.55.359,mdp,2024.2.1,MacIntel,59.88023952,66fa4ebf79326e780c390304,,,,,,,,,,,,,,,,,,,,,1169.1721,1169.1721,1169.1731,1170.1724,1,0,right,0.4835,,1170.1739,1170.1749,1,0,,1170.1754,1170.1757,1,0,,1,1170.1758,1170.1758,1170.1761,1171.6723,0,13,13,13,1,0.6,0.4,0.8,0.2,1,0,,,,,,,,,,,,,,,,,,,,,,,,,,,,,,,,,,,,
,,5e39cf6d0331aa07667a58ae,66fc9824caa5b98c125b655b,2024-10-02_02h48.55.359,mdp,2024.2.1,MacIntel,59.88023952,66fa4ebf79326e780c390304,,,,,,,,,,,,,,,,,,,,,1171.6729,1171.6729,1171.6742,1172.6558,1,1,right,0.4516,,1172.6574,1172.6581,1,0,,1172.6585,1172.6588,1,0,,0,1172.6588,1172.6588,1172.6591,1174.1558,0,14,14,14,1,0.6,0.4,0.8,0.2,1,0,,,,,,,,,,,,,,,,,,,,,,,,,,,,,,,,,,,,
,,5e39cf6d0331aa07667a58ae,66fc9824caa5b98c125b655b,2024-10-02_02h48.55.359,mdp,2024.2.1,MacIntel,59.88023952,66fa4ebf79326e780c390304,,,,,,,,,,,,,,,,,,,,,1174.1563,1174.1563,1174.1576,1175.1058,0,0,left,0.4209,,1175.1067,1175.1074,1,0,,1175.1078,1175.1081,1,0,,1,1175.1081,1175.1082,1175.1085,1176.6054,0,15,15,15,1,0.8,0.2,0.6,0.4,1,0,,,,,,,,,,,,,,,,,,,,,,,,,,,,,,,,,,,,
,,5e39cf6d0331aa07667a58ae,66fc9824caa5b98c125b655b,2024-10-02_02h48.55.359,mdp,2024.2.1,MacIntel,59.88023952,66fa4ebf79326e780c390304,,,,,,,,,,,,,,,,,,,,,1176.6056,1176.6056,1176.6061,1177.7894,0,0,left,0.6728,,1177.7907,1177.7915,1,0,,1177.7919,1177.7922,1,0,,1,1177.7922,1177.7922,1177.793,1179.2892,0,16,16,16,1,0.8,0.2,0.6,0.4,1,0,,,,,,,,,,,,,,,,,,,,,,,,,,,,,,,,,,,,
,,5e39cf6d0331aa07667a58ae,66fc9824caa5b98c125b655b,2024-10-02_02h48.55.359,mdp,2024.2.1,MacIntel,59.88023952,66fa4ebf79326e780c390304,,,,,,,,,,,,,,,,,,,,,1179.2897,1179.2897,1179.2911,1180.0558,0,1,left,0.2376,,1180.0566,1180.0571,1,0,,1180.0575,1180.0577,1,0,,0,1180.0577,1180.0577,1180.0581,1181.5558,0,17,17,17,1,0.8,0.2,0.6,0.4,1,0,,,,,,,,,,,,,,,,,,,,,,,,,,,,,,,,,,,,
,,5e39cf6d0331aa07667a58ae,66fc9824caa5b98c125b655b,2024-10-02_02h48.55.359,mdp,2024.2.1,MacIntel,59.88023952,66fa4ebf79326e780c390304,,,,,,,,,,,,,,,,,,,,,1181.5563,1181.5564,1181.5576,1182.2225,1,0,right,0.138,,1182.2234,1182.2238,1,1,,1182.2242,1182.2246,1,1,,1,1182.2246,1182.2246,1182.2249,1183.7227,0,18,18,18,1,0.8,0.2,0.6,0.4,1,0,,,,,,,,,,,,,,,,,,,,,,,,,,,,,,,,,,,,
,,5e39cf6d0331aa07667a58ae,66fc9824caa5b98c125b655b,2024-10-02_02h48.55.359,mdp,2024.2.1,MacIntel,59.88023952,66fa4ebf79326e780c390304,,,,,,,,,,,,,,,,,,,,,1183.7233,1183.7233,1183.7245,1185.8729,1,1,right,1.6168,,1185.8743,1185.8751,1,1,,1185.8758,1185.8761,1,0,,0,1185.8761,1185.8761,1185.8764,1187.3728,0,19,19,19,1,0.8,0.2,0.6,0.4,1,0,,,,,,,,,,,,,,,,,,,,,,,,,,,,,,,,,,,,
,,5e39cf6d0331aa07667a58ae,66fc9824caa5b98c125b655b,2024-10-02_02h48.55.359,mdp,2024.2.1,MacIntel,59.88023952,66fa4ebf79326e780c390304,,,,,,,,,,,,,,,,,,,,,1187.3734,1187.3734,1187.3748,1188.1562,0,1,left,0.2506,,1188.1577,1188.1586,1,0,,1188.1593,1188.1597,1,0,,0,1188.1598,1188.1598,1188.1601,1189.6563,0,20,20,20,1,0.6,0.4,0.4,0.6,1,0,,,,,,,,,,,,,,,,,,,,,,,,,,,,,,,,,,,,
,,5e39cf6d0331aa07667a58ae,66fc9824caa5b98c125b655b,2024-10-02_02h48.55.359,mdp,2024.2.1,MacIntel,59.88023952,66fa4ebf79326e780c390304,,,,,,,,,,,,,,,,,,,,,1189.6568,1189.6568,1189.6581,1190.4398,0,0,left,0.2513,,1190.4413,1190.4421,1,0,,1190.4425,1190.4428,1,0,,1,1190.4429,1190.4429,1190.4432,1191.9396,0,21,21,21,1,0.6,0.4,0.4,0.6,1,0,,,,,,,,,,,,,,,,,,,,,,,,,,,,,,,,,,,,
,,5e39cf6d0331aa07667a58ae,66fc9824caa5b98c125b655b,2024-10-02_02h48.55.359,mdp,2024.2.1,MacIntel,59.88023952,66fa4ebf79326e780c390304,,,,,,,,,,,,,,,,,,,,,1191.9401,1191.9402,1191.9415,1192.6395,0,1,left,0.1713,,1192.6403,1192.6409,1,0,,1192.6412,1192.6415,1,1,,0,1192.6415,1192.6415,1192.6418,1194.1396,0,22,22,22,1,0.6,0.4,0.4,0.6,1,0,,,,,,,,,,,,,,,,,,,,,,,,,,,,,,,,,,,,
,,5e39cf6d0331aa07667a58ae,66fc9824caa5b98c125b655b,2024-10-02_02h48.55.359,mdp,2024.2.1,MacIntel,59.88023952,66fa4ebf79326e780c390304,,,,,,,,,,,,,,,,,,,,,1194.1401,1194.1401,1194.1412,1195.0897,0,1,left,0.4171,,1195.0913,1195.0923,1,0,,1195.0929,1195.0935,1,0,,0,1195.0935,1195.0935,1195.094,1196.5898,0,23,23,23,1,0.6,0.4,0.4,0.6,1,0,,,,,,,,,,,,,,,,,,,,,,,,,,,,,,,,,,,,
,,5e39cf6d0331aa07667a58ae,66fc9824caa5b98c125b655b,2024-10-02_02h48.55.359,mdp,2024.2.1,MacIntel,59.88023952,66fa4ebf79326e780c390304,,,,,,,,,,,,,,,,,,,,,1196.5903,1196.5903,1196.5917,1197.5898,1,0,right,0.4769,,1197.591,1197.5918,1,0,,1197.5924,1197.593,1,0,,1,1197.5931,1197.5932,1197.5936,1199.09,0,24,24,24,1,0.2,0.8,0.6,0.4,1,0,,,,,,,,,,,,,,,,,,,,,,,,,,,,,,,,,,,,
,,5e39cf6d0331aa07667a58ae,66fc9824caa5b98c125b655b,2024-10-02_02h48.55.359,mdp,2024.2.1,MacIntel,59.88023952,66fa4ebf79326e780c390304,,,,,,,,,,,,,,,,,,,,,1199.0907,1199.0907,1199.092,1199.9067,0,1,left,0.2838,,1199.9083,1199.9091,1,1,,1199.9098,1199.9101,1,1,,0,1199.9102,1199.9102,1199.9104,1201.4069,0,25,25,25,1,0.2,0.8,0.6,0.4,1,0,,,,,,,,,,,,,,,,,,,,,,,,,,,,,,,,,,,,
,,5e39cf6d0331aa07667a58ae,66fc9824caa5b98c125b655b,2024-10-02_02h48.55.359,mdp,2024.2.1,MacIntel,59.88023952,66fa4ebf79326e780c390304,,,,,,,,,,,,,,,,,,,,,1201.4075,1201.4075,1201.4089,1202.0394,1,0,right,0.1113,,1202.0405,1202.0412,1,1,,1202.0415,1202.0418,1,1,,1,1202.0418,1202.0418,1202.0421,1203.5401,0,26,26,26,1,0.2,0.8,0.6,0.4,1,0,,,,,,,,,,,,,,,,,,,,,,,,,,,,,,,,,,,,
,,5e39cf6d0331aa07667a58ae,66fc9824caa5b98c125b655b,2024-10-02_02h48.55.359,mdp,2024.2.1,MacIntel,59.88023952,66fa4ebf79326e780c390304,,,,,,,,,,,,,,,,,,,,,1203.5406,1203.5406,1203.5414,1204.1903,1,1,right,0.1171,,1204.1917,1204.1925,1,0,,1204.193,1204.1933,1,0,,0,1204.1933,1204.1933,1204.1937,1205.6901,0,27,27,27,1,0.2,0.8,0.6,0.4,1,0,,,,,,,,,,,,,,,,,,,,,,,,,,,,,,,,,,,,
,,5e39cf6d0331aa07667a58ae,66fc9824caa5b98c125b655b,2024-10-02_02h48.55.359,mdp,2024.2.1,MacIntel,59.88023952,66fa4ebf79326e780c390304,,,,,,,,,,,,,,,,,,,,,1205.6907,1205.6907,1205.6918,1206.5571,1,0,right,0.3357,,1206.5584,1206.5591,1,0,,1206.5595,1206.5601,1,1,,1,1206.5602,1206.5602,1206.561,1208.0568,0,28,28,28,1,0.2,0.8,0.6,0.4,1,0,,,,,,,,,,,,,,,,,,,,,,,,,,,,,,,,,,,,
,,5e39cf6d0331aa07667a58ae,66fc9824caa5b98c125b655b,2024-10-02_02h48.55.359,mdp,2024.2.1,MacIntel,59.88023952,66fa4ebf79326e780c390304,,,,,,,,,,,,,,,,,,,,,1208.0573,1208.0573,1208.0587,1208.9071,1,1,right,0.3169,,1208.9087,1208.9095,1,1,,1208.9099,1208.9102,1,1,,0,1208.9102,1208.9102,1208.9105,1210.4069,0,29,29,29,1,0.2,0.8,0.6,0.4,1,0,,,,,,,,,,,,,,,,,,,,,,,,,,,,,,,,,,,,
,,5e39cf6d0331aa07667a58ae,66fc9824caa5b98c125b655b,2024-10-02_02h48.55.359,mdp,2024.2.1,MacIntel,59.88023952,66fa4ebf79326e780c390304,,,,,,,,,,,,,,,,,,,,,1210.4074,1210.4074,1210.4086,1211.1737,1,0,right,0.2334,,1211.175,1211.1759,1,0,,1211.1764,1211.1768,1,1,,1,1211.1768,1211.1768,1211.1772,1212.6737,0,30,30,30,1,0.6,0.4,0.4,0.6,1,0,,,,,,,,,,,,,,,,,,,,,,,,,,,,,,,,,,,,
,,5e39cf6d0331aa07667a58ae,66fc9824caa5b98c125b655b,2024-10-02_02h48.55.359,mdp,2024.2.1,MacIntel,59.88023952,66fa4ebf79326e780c390304,,,,,,,,,,,,,,,,,,,,,1212.6742,1212.6742,1212.6754,1213.5571,1,1,right,0.353,,1213.5584,1213.5592,1,0,,1213.5595,1213.5597,1,1,,0,1213.5598,1213.5598,1213.5606,1215.0571,0,31,31,31,1,0.6,0.4,0.4,0.6,1,0,,,,,,,,,,,,,,,,,,,,,,,,,,,,,,,,,,,,
,,5e39cf6d0331aa07667a58ae,66fc9824caa5b98c125b655b,2024-10-02_02h48.55.359,mdp,2024.2.1,MacIntel,59.88023952,66fa4ebf79326e780c390304,,,,,,,,,,,,,,,,,,,,,1215.0576,1215.0576,1215.0589,1215.9406,0,0,left,0.3518,,1215.9421,1215.943,1,0,,1215.9435,1215.9437,1,1,,1,1215.9438,1215.9438,1215.9442,1217.4406,0,32,32,32,1,0.6,0.4,0.4,0.6,1,0,,,,,,,,,,,,,,,,,,,,,,,,,,,,,,,,,,,,
,,5e39cf6d0331aa07667a58ae,66fc9824caa5b98c125b655b,2024-10-02_02h48.55.359,mdp,2024.2.1,MacIntel,59.88023952,66fa4ebf79326e780c390304,,,,,,,,,,,,,,,,,,,,,1217.4413,1217.4413,1217.4425,1218.3569,0,0,left,0.3837,,1218.3582,1218.359,1,0,,1218.3593,1218.3596,1,1,,1,1218.3596,1218.3597,1218.36,1219.8572,0,33,33,33,1,0.6,0.4,0.4,0.6,1,0,,,,,,,,,,,,,,,,,,,,,,,,,,,,,,,,,,,,
,,5e39cf6d0331aa07667a58ae,66fc9824caa5b98c125b655b,2024-10-02_02h48.55.359,mdp,2024.2.1,MacIntel,59.88023952,66fa4ebf79326e780c390304,,,,,,,,,,,,,,,,,,,,,1219.8577,1219.8577,1219.8588,1220.8736,0,0,left,0.4836,,1220.8743,1220.8747,1,0,,1220.875,1220.8753,1,0,,1,1220.8753,1220.8753,1220.8756,1222.374,0,34,34,34,1,0.6,0.4,0.4,0.6,1,0,,,,,,,,,,,,,,,,,,,,,,,,,,,,,,,,,,,,
,,5e39cf6d0331aa07667a58ae,66fc9824caa5b98c125b655b,2024-10-02_02h48.55.359,mdp,2024.2.1,MacIntel,59.88023952,66fa4ebf79326e780c390304,,,,,,,,,,,,,,,,,,,,,1222.3747,1222.3747,1222.376,1223.2241,0,0,left,0.3213,,1223.2255,1223.2264,1,1,,1223.2272,1223.2274,1,0,,1,1223.2275,1223.2275,1223.2278,1224.7241,0,35,35,35,1,0.6,0.4,0.4,0.6,1,0,,,,,,,,,,,,,,,,,,,,,,,,,,,,,,,,,,,,
,,5e39cf6d0331aa07667a58ae,66fc9824caa5b98c125b655b,2024-10-02_02h48.55.359,mdp,2024.2.1,MacIntel,59.88023952,66fa4ebf79326e780c390304,,,,,,,,,,,,,,,,,,,,,1224.7247,1224.7247,1224.726,1225.5242,0,0,left,0.2675,,1225.5256,1225.5263,1,0,,1225.5269,1225.5276,1,0,,1,1225.5277,1225.5277,1225.5282,1227.0242,0,36,36,36,1,0.6,0.4,0.4,0.6,1,0,,,,,,,,,,,,,,,,,,,,,,,,,,,,,,,,,,,,
,,5e39cf6d0331aa07667a58ae,66fc9824caa5b98c125b655b,2024-10-02_02h48.55.359,mdp,2024.2.1,MacIntel,59.88023952,66fa4ebf79326e780c390304,,,,,,,,,,,,,,,,,,,,,1227.025,1227.025,1227.0263,1227.5733,0,1,left,0.0181,,1227.5744,1227.5752,1,1,,1227.5758,1227.5763,1,0,,0,1227.5764,1227.5764,1227.5768,1229.0742,0,37,37,37,1,0.6,0.4,0.4,0.6,1,0,,,,,,,,,,,,,,,,,,,,,,,,,,,,,,,,,,,,
,,5e39cf6d0331aa07667a58ae,66fc9824caa5b98c125b655b,2024-10-02_02h48.55.359,mdp,2024.2.1,MacIntel,59.88023952,66fa4ebf79326e780c390304,,,,,,,,,,,,,,,,,,,,,1229.075,1229.075,1229.0763,1229.9407,0,0,left,0.3385,,1229.9414,1229.9418,1,1,,1229.9421,1229.9424,1,0,,1,1229.9424,1229.9424,1229.9427,1231.4409,0,38,38,38,1,0.6,0.4,0.4,0.6,1,0,,,,,,,,,,,,,,,,,,,,,,,,,,,,,,,,,,,,
,,5e39cf6d0331aa07667a58ae,66fc9824caa5b98c125b655b,2024-10-02_02h48.55.359,mdp,2024.2.1,MacIntel,59.88023952,66fa4ebf79326e780c390304,,,,,,,,,,,,,,,,,,,,,1231.4415,1231.4415,1231.4428,1232.2911,0,0,left,0.3205,,1232.2925,1232.2933,1,0,,1232.2937,1232.2945,1,0,,1,1232.2946,1232.2946,1232.2952,1233.7912,0,39,39,39,1,0.6,0.4,0.4,0.6,1,0,,,,,,,,,,,,,,,,,,,,,,,,,,,,,,,,,,,,
