init_exp.started,init_exp.stopped,participant,session,date,expName,psychopyVersion,OS,frameRate,study_id,disp_instruction.started,disp_instruction.stopped,instruction.thisRepN,instruction.thisTrialN,instruction.thisN,instruction.thisIndex,instruction.ran,instimg_path,consent.started,consent.stopped,key_resp_3.keys,key_resp_3.rt,key_resp_3.duration,n_steps,sequence_path,init_block.started,init_block.stopped,key_resp.keys,key_resp.rt,key_resp.duration,init_trials.started,init_trials.stopped,step0.started,step0.stopped,act0,s1,res0.keys,res0.rt,res0.duration,step1.started,step1.stopped,act1,s2,res1.keys,step2.started,step2.stopped,act2,s3,res2.keys,rew,reward_comp.started,reward_comp.stopped,reward_disp.started,reward_disp.stopped,trials.thisRepN,trials.thisTrialN,trials.thisN,trials.thisIndex,trials.ran,s00a0s10,s00a0s11,s00a1s10,s00a1s11,rew10,rew11,break_block.started,break_block.stopped,block.thisRepN,block.thisTrialN,block.thisN,block.thisIndex,block.ran,s00path,s10path,s11path,s20path,s21path,res1.rt,res1.duration,s10a0s20,s10a0s21,s10a1s20,s10a1s21,s11a0s20,s11a0s21,s11a1s20,s11a1s21,rew20,rew21,res2.rt,res2.duration,s20a0s30,s20a0s31,s20a1s30,s20a1s31,s21a0s30,s21a0s31,s21a1s30,s21a1s31,rew30,rew31
0.0002,0.0009,5e3c407472a17401e4754bd0,66fc98d1559574b3ea396751,2024-10-02_01h50.42.100,mdp,2024.2.1,Win32,59.88023952,66fa4ebf79326e780c390304,,,,,,,,,,,,,,,,,,,,,,,,,,,,,,,,,,,,,,,,,,,,,,,,,,,,,,,,,,,,,,,,,,,,,,,,,,,,,,,,,,,,,,,,,,,
,,5e3c407472a17401e4754bd0,66fc98d1559574b3ea396751,2024-10-02_01h50.42.100,mdp,2024.2.1,Win32,59.88023952,66fa4ebf79326e780c390304,0.0035,695.8303,0,0,0,0,1,rlnn_exp/rlnn_exp.001.png,,,,,,,,,,,,,,,,,,,,,,,,,,,,,,,,,,,,,,,,,,,,,,,,,,,,,,,,,,,,,,,,,,,,,,,,,,,,,,,,,,,
,,5e3c407472a17401e4754bd0,66fc98d1559574b3ea396751,2024-10-02_01h50.42.100,mdp,2024.2.1,Win32,59.88023952,66fa4ebf79326e780c390304,695.8318,707.1032,0,1,1,1,1,rlnn_exp/rlnn_exp.002.png,,,,,,,,,,,,,,,,,,,,,,,,,,,,,,,,,,,,,,,,,,,,,,,,,,,,,,,,,,,,,,,,,,,,,,,,,,,,,,,,,,,
,,5e3c407472a17401e4754bd0,66fc98d1559574b3ea396751,2024-10-02_01h50.42.100,mdp,2024.2.1,Win32,59.88023952,66fa4ebf79326e780c390304,707.1037,718.627,0,2,2,2,1,rlnn_exp/rlnn_exp.003.png,,,,,,,,,,,,,,,,,,,,,,,,,,,,,,,,,,,,,,,,,,,,,,,,,,,,,,,,,,,,,,,,,,,,,,,,,,,,,,,,,,,
,,5e3c407472a17401e4754bd0,66fc98d1559574b3ea396751,2024-10-02_01h50.42.100,mdp,2024.2.1,Win32,59.88023952,66fa4ebf79326e780c390304,718.634,746.9853,0,3,3,3,1,rlnn_exp/rlnn_exp.004.png,,,,,,,,,,,,,,,,,,,,,,,,,,,,,,,,,,,,,,,,,,,,,,,,,,,,,,,,,,,,,,,,,,,,,,,,,,,,,,,,,,,
,,5e3c407472a17401e4754bd0,66fc98d1559574b3ea396751,2024-10-02_01h50.42.100,mdp,2024.2.1,Win32,59.88023952,66fa4ebf79326e780c390304,,,,,,,,,746.9928,857.7551,y,100.7233,,,,,,,,,,,,,,,,,,,,,,,,,,,,,,,,,,,,,,,,,,,,,,,,,,,,,,,,,,,,,,,,,,,,,,,,,,,,,,,
,,5e3c407472a17401e4754bd0,66fc98d1559574b3ea396751,2024-10-02_01h50.42.100,mdp,2024.2.1,Win32,59.88023952,66fa4ebf79326e780c390304,,,,,,,,,,,,,,1,seqs/st1seq12.csv,857.7655,864.5156,space,6.2349,,864.5233,864.5233,864.5234,867.8627,1,0,right,2.8193,,867.87,867.8711,,0,,867.8714,867.8722,,0,,1,867.8723,867.8724,867.8726,869.3615,0,0,0,0,1,0.8,0.2,0.6,0.4,1,0,,,,,,,,,,,,,,,,,,,,,,,,,,,,,,,,,,,,
,,5e3c407472a17401e4754bd0,66fc98d1559574b3ea396751,2024-10-02_01h50.42.100,mdp,2024.2.1,Win32,59.88023952,66fa4ebf79326e780c390304,,,,,,,,,,,,,,,,,,,,,869.3618,869.3618,869.3627,872.9412,0,0,left,3.0604,,872.9422,872.9431,,0,,872.9437,872.9441,,0,,1,872.9441,872.9441,872.9444,874.4401,0,1,1,1,1,0.8,0.2,0.6,0.4,1,0,,,,,,,,,,,,,,,,,,,,,,,,,,,,,,,,,,,,
,,5e3c407472a17401e4754bd0,66fc98d1559574b3ea396751,2024-10-02_01h50.42.100,mdp,2024.2.1,Win32,59.88023952,66fa4ebf79326e780c390304,,,,,,,,,,,,,,,,,,,,,874.4405,874.4405,874.4417,876.0553,1,1,right,1.0858,,876.056,876.0565,,0,,876.0572,876.0575,,0,,0,876.0576,876.0576,876.058,877.5541,0,2,2,2,1,0.8,0.2,0.6,0.4,1,0,,,,,,,,,,,,,,,,,,,,,,,,,,,,,,,,,,,,
,,5e3c407472a17401e4754bd0,66fc98d1559574b3ea396751,2024-10-02_01h50.42.100,mdp,2024.2.1,Win32,59.88023952,66fa4ebf79326e780c390304,,,,,,,,,,,,,,,,,,,,,877.5545,877.5545,877.5557,878.9529,0,0,left,0.8742,,878.9538,878.9544,,0,,878.9552,878.9557,,0,,1,878.9558,878.9558,878.956,880.4514,0,3,3,3,1,0.8,0.2,0.6,0.4,1,0,,,,,,,,,,,,,,,,,,,,,,,,,,,,,,,,,,,,
,,5e3c407472a17401e4754bd0,66fc98d1559574b3ea396751,2024-10-02_01h50.42.100,mdp,2024.2.1,Win32,59.88023952,66fa4ebf79326e780c390304,,,,,,,,,,,,,,,,,,,,,880.4517,880.4517,880.4527,881.7837,0,0,left,0.8097,,881.7851,881.786,,0,,881.7864,881.7866,,1,,1,881.7866,881.7867,881.787,883.2823,0,4,4,4,1,0.8,0.2,0.6,0.4,1,0,,,,,,,,,,,,,,,,,,,,,,,,,,,,,,,,,,,,
,,5e3c407472a17401e4754bd0,66fc98d1559574b3ea396751,2024-10-02_01h50.42.100,mdp,2024.2.1,Win32,59.88023952,66fa4ebf79326e780c390304,,,,,,,,,,,,,,,,,,,,,883.2826,883.2826,883.2837,884.4815,0,0,left,0.667,,884.4825,884.4832,,0,,884.4838,884.4841,,0,,1,884.4842,884.4842,884.4844,885.98,0,5,5,5,1,0.8,0.2,0.6,0.4,1,0,,,,,,,,,,,,,,,,,,,,,,,,,,,,,,,,,,,,
,,5e3c407472a17401e4754bd0,66fc98d1559574b3ea396751,2024-10-02_01h50.42.100,mdp,2024.2.1,Win32,59.88023952,66fa4ebf79326e780c390304,,,,,,,,,,,,,,,,,,,,,885.9803,885.9803,885.9812,888.145,0,0,left,1.6422,,888.1459,888.1464,,0,,888.1468,888.1472,,0,,1,888.1473,888.1473,888.1475,889.6435,0,6,6,6,1,0.8,0.2,0.6,0.4,1,0,,,,,,,,,,,,,,,,,,,,,,,,,,,,,,,,,,,,
,,5e3c407472a17401e4754bd0,66fc98d1559574b3ea396751,2024-10-02_01h50.42.100,mdp,2024.2.1,Win32,59.88023952,66fa4ebf79326e780c390304,,,,,,,,,,,,,,,,,,,,,889.6438,889.6438,889.645,891.2591,0,0,left,1.0905,,891.2602,891.2609,,0,,891.2617,891.262,,0,,1,891.2621,891.2621,891.2624,892.7574,0,7,7,7,1,0.8,0.2,0.6,0.4,1,0,,,,,,,,,,,,,,,,,,,,,,,,,,,,,,,,,,,,
,,5e3c407472a17401e4754bd0,66fc98d1559574b3ea396751,2024-10-02_01h50.42.100,mdp,2024.2.1,Win32,59.88023952,66fa4ebf79326e780c390304,,,,,,,,,,,,,,,,,,,,,892.7578,892.7578,892.7586,893.8901,0,0,left,0.6082,,893.8914,893.8919,,0,,893.8926,893.8929,,0,,1,893.8929,893.893,893.8933,895.3886,0,8,8,8,1,0.8,0.2,0.6,0.4,1,0,,,,,,,,,,,,,,,,,,,,,,,,,,,,,,,,,,,,
,,5e3c407472a17401e4754bd0,66fc98d1559574b3ea396751,2024-10-02_01h50.42.100,mdp,2024.2.1,Win32,59.88023952,66fa4ebf79326e780c390304,,,,,,,,,,,,,,,,,,,,,895.389,895.3891,895.39,896.6207,0,1,left,0.7054,,896.6218,896.6224,,1,,896.6228,896.6231,,1,,0,896.6233,896.6233,896.6236,898.1194,0,9,9,9,1,0.6,0.4,0.4,0.6,1,0,,,,,,,,,,,,,,,,,,,,,,,,,,,,,,,,,,,,
,,5e3c407472a17401e4754bd0,66fc98d1559574b3ea396751,2024-10-02_01h50.42.100,mdp,2024.2.1,Win32,59.88023952,66fa4ebf79326e780c390304,,,,,,,,,,,,,,,,,,,,,898.1198,898.1198,898.1209,899.2017,1,0,right,0.5581,,899.2028,899.2038,,1,,899.2049,899.2057,,1,,1,899.2057,899.2058,899.2063,900.7004,0,10,10,10,1,0.6,0.4,0.4,0.6,1,0,,,,,,,,,,,,,,,,,,,,,,,,,,,,,,,,,,,,
,,5e3c407472a17401e4754bd0,66fc98d1559574b3ea396751,2024-10-02_01h50.42.100,mdp,2024.2.1,Win32,59.88023952,66fa4ebf79326e780c390304,,,,,,,,,,,,,,,,,,,,,900.7006,900.7006,900.7012,901.916,1,1,right,0.6837,,901.9171,901.918,,1,,901.9185,901.9188,,0,,0,901.9189,901.9189,901.9191,903.4147,0,11,11,11,1,0.6,0.4,0.4,0.6,1,0,,,,,,,,,,,,,,,,,,,,,,,,,,,,,,,,,,,,
,,5e3c407472a17401e4754bd0,66fc98d1559574b3ea396751,2024-10-02_01h50.42.100,mdp,2024.2.1,Win32,59.88023952,66fa4ebf79326e780c390304,,,,,,,,,,,,,,,,,,,,,903.4151,903.4151,903.416,904.8968,0,1,left,0.9505,,904.8978,904.8983,,0,,904.8988,904.8993,,1,,0,904.8993,904.8994,904.8996,906.3954,0,12,12,12,1,0.6,0.4,0.4,0.6,1,0,,,,,,,,,,,,,,,,,,,,,,,,,,,,,,,,,,,,
,,5e3c407472a17401e4754bd0,66fc98d1559574b3ea396751,2024-10-02_01h50.42.100,mdp,2024.2.1,Win32,59.88023952,66fa4ebf79326e780c390304,,,,,,,,,,,,,,,,,,,,,906.3956,906.3956,906.3962,907.8774,1,1,right,0.954,,907.8787,907.8794,,1,,907.88,907.8802,,0,,0,907.8803,907.8803,907.8805,909.376,0,13,13,13,1,0.6,0.4,0.4,0.6,1,0,,,,,,,,,,,,,,,,,,,,,,,,,,,,,,,,,,,,
,,5e3c407472a17401e4754bd0,66fc98d1559574b3ea396751,2024-10-02_01h50.42.100,mdp,2024.2.1,Win32,59.88023952,66fa4ebf79326e780c390304,,,,,,,,,,,,,,,,,,,,,909.3762,909.3763,909.377,910.6255,0,1,left,0.7257,,910.6266,910.6273,,0,,910.6279,910.6283,,1,,0,910.6283,910.6284,910.6287,912.1236,0,14,14,14,1,0.6,0.4,0.4,0.6,1,0,,,,,,,,,,,,,,,,,,,,,,,,,,,,,,,,,,,,
,,5e3c407472a17401e4754bd0,66fc98d1559574b3ea396751,2024-10-02_01h50.42.100,mdp,2024.2.1,Win32,59.88023952,66fa4ebf79326e780c390304,,,,,,,,,,,,,,,,,,,,,912.1239,912.1239,912.1244,913.3059,1,0,right,0.6588,,913.3069,913.3078,,0,,913.3084,913.3087,,1,,1,913.3088,913.3088,913.3091,914.8048,0,15,15,15,1,0.6,0.4,0.4,0.6,1,0,,,,,,,,,,,,,,,,,,,,,,,,,,,,,,,,,,,,
,,5e3c407472a17401e4754bd0,66fc98d1559574b3ea396751,2024-10-02_01h50.42.100,mdp,2024.2.1,Win32,59.88023952,66fa4ebf79326e780c390304,,,,,,,,,,,,,,,,,,,,,914.8051,914.8051,914.806,916.1703,1,0,right,0.8334,,916.1715,916.1722,,0,,916.1728,916.1732,,0,,1,916.1732,916.1732,916.1735,917.6689,0,16,16,16,1,0.8,0.2,0.8,0.2,1,0,,,,,,,,,,,,,,,,,,,,,,,,,,,,,,,,,,,,
,,5e3c407472a17401e4754bd0,66fc98d1559574b3ea396751,2024-10-02_01h50.42.100,mdp,2024.2.1,Win32,59.88023952,66fa4ebf79326e780c390304,,,,,,,,,,,,,,,,,,,,,917.6693,917.6693,917.6704,918.8513,1,1,right,0.6574,,918.8523,918.8528,,0,,918.8532,918.8536,,0,,0,918.8536,918.8536,918.854,920.3497,0,17,17,17,1,0.8,0.2,0.8,0.2,1,0,,,,,,,,,,,,,,,,,,,,,,,,,,,,,,,,,,,,
,,5e3c407472a17401e4754bd0,66fc98d1559574b3ea396751,2024-10-02_01h50.42.100,mdp,2024.2.1,Win32,59.88023952,66fa4ebf79326e780c390304,,,,,,,,,,,,,,,,,,,,,920.35,920.35,920.3509,921.3821,0,1,left,0.5125,,921.3829,921.3834,,0,,921.3839,921.3841,,0,,0,921.3842,921.3842,921.3849,922.881,0,18,18,18,1,0.8,0.2,0.8,0.2,1,0,,,,,,,,,,,,,,,,,,,,,,,,,,,,,,,,,,,,
,,5e3c407472a17401e4754bd0,66fc98d1559574b3ea396751,2024-10-02_01h50.42.100,mdp,2024.2.1,Win32,59.88023952,66fa4ebf79326e780c390304,,,,,,,,,,,,,,,,,,,,,922.8815,922.8815,922.8823,923.9137,1,0,right,0.508,,923.9148,923.9155,,0,,923.916,923.9163,,0,,1,923.9163,923.9163,923.9166,925.4121,0,19,19,19,1,0.8,0.2,0.8,0.2,1,0,,,,,,,,,,,,,,,,,,,,,,,,,,,,,,,,,,,,
,,5e3c407472a17401e4754bd0,66fc98d1559574b3ea396751,2024-10-02_01h50.42.100,mdp,2024.2.1,Win32,59.88023952,66fa4ebf79326e780c390304,,,,,,,,,,,,,,,,,,,,,925.4125,925.4126,925.4132,926.8776,1,0,right,0.9372,,926.8787,926.8795,,0,,926.88,926.8805,,0,,1,926.8805,926.8805,926.8808,928.3761,0,20,20,20,1,0.4,0.6,0.6,0.4,1,0,,,,,,,,,,,,,,,,,,,,,,,,,,,,,,,,,,,,
,,5e3c407472a17401e4754bd0,66fc98d1559574b3ea396751,2024-10-02_01h50.42.100,mdp,2024.2.1,Win32,59.88023952,66fa4ebf79326e780c390304,,,,,,,,,,,,,,,,,,,,,928.3764,928.3764,928.3772,929.7588,1,1,right,0.8528,,929.7597,929.7605,,0,,929.7609,929.7614,,0,,0,929.7614,929.7614,929.7617,931.2569,0,21,21,21,1,0.4,0.6,0.6,0.4,1,0,,,,,,,,,,,,,,,,,,,,,,,,,,,,,,,,,,,,
,,5e3c407472a17401e4754bd0,66fc98d1559574b3ea396751,2024-10-02_01h50.42.100,mdp,2024.2.1,Win32,59.88023952,66fa4ebf79326e780c390304,,,,,,,,,,,,,,,,,,,,,931.2572,931.2573,931.2583,932.3226,0,1,left,0.5407,,932.3233,932.3239,,0,,932.3244,932.3252,,0,,0,932.3252,932.3252,932.3255,933.8214,0,22,22,22,1,0.6,0.4,0.4,0.6,1,0,,,,,,,,,,,,,,,,,,,,,,,,,,,,,,,,,,,,
,,5e3c407472a17401e4754bd0,66fc98d1559574b3ea396751,2024-10-02_01h50.42.100,mdp,2024.2.1,Win32,59.88023952,66fa4ebf79326e780c390304,,,,,,,,,,,,,,,,,,,,,933.8218,933.8218,933.8225,934.8537,1,1,right,0.504,,934.8547,934.8555,,0,,934.8562,934.8565,,0,,0,934.8565,934.8565,934.8567,936.3525,0,23,23,23,1,0.6,0.4,0.4,0.6,1,0,,,,,,,,,,,,,,,,,,,,,,,,,,,,,,,,,,,,
,,5e3c407472a17401e4754bd0,66fc98d1559574b3ea396751,2024-10-02_01h50.42.100,mdp,2024.2.1,Win32,59.88023952,66fa4ebf79326e780c390304,,,,,,,,,,,,,,,,,,,,,936.3528,936.3528,936.3534,937.5848,1,1,right,0.7007,,937.5858,937.5868,,0,,937.5872,937.5875,,0,,0,937.5876,937.5876,937.5878,939.0835,0,24,24,24,1,0.6,0.4,0.4,0.6,1,0,,,,,,,,,,,,,,,,,,,,,,,,,,,,,,,,,,,,
,,5e3c407472a17401e4754bd0,66fc98d1559574b3ea396751,2024-10-02_01h50.42.100,mdp,2024.2.1,Win32,59.88023952,66fa4ebf79326e780c390304,,,,,,,,,,,,,,,,,,,,,939.0838,939.0838,939.0847,940.7321,0,0,left,1.1162,,940.7335,940.7339,,1,,940.7345,940.7349,,1,,1,940.735,940.735,940.7352,942.2306,0,25,25,25,1,0.6,0.4,0.4,0.6,1,0,,,,,,,,,,,,,,,,,,,,,,,,,,,,,,,,,,,,
,,5e3c407472a17401e4754bd0,66fc98d1559574b3ea396751,2024-10-02_01h50.42.100,mdp,2024.2.1,Win32,59.88023952,66fa4ebf79326e780c390304,,,,,,,,,,,,,,,,,,,,,942.2308,942.2308,942.2315,943.3632,0,1,left,0.6079,,943.3642,943.3648,,0,,943.3652,943.3657,,1,,0,943.3657,943.3657,943.366,944.8617,0,26,26,26,1,0.6,0.4,0.4,0.6,1,0,,,,,,,,,,,,,,,,,,,,,,,,,,,,,,,,,,,,
,,5e3c407472a17401e4754bd0,66fc98d1559574b3ea396751,2024-10-02_01h50.42.100,mdp,2024.2.1,Win32,59.88023952,66fa4ebf79326e780c390304,,,,,,,,,,,,,,,,,,,,,944.8621,944.8621,944.863,945.9443,1,0,right,0.5517,,945.9453,945.9461,,1,,945.9465,945.9469,,1,,1,945.9469,945.9469,945.9472,947.4429,0,27,27,27,1,0.6,0.4,0.4,0.6,1,0,,,,,,,,,,,,,,,,,,,,,,,,,,,,,,,,,,,,
,,5e3c407472a17401e4754bd0,66fc98d1559574b3ea396751,2024-10-02_01h50.42.100,mdp,2024.2.1,Win32,59.88023952,66fa4ebf79326e780c390304,,,,,,,,,,,,,,,,,,,,,947.443,947.443,947.4437,948.4588,0,0,left,0.4903,,948.4598,948.4606,,1,,948.4611,948.4619,,0,,1,948.4619,948.4619,948.4623,949.9574,0,28,28,28,1,0.6,0.4,0.4,0.6,1,0,,,,,,,,,,,,,,,,,,,,,,,,,,,,,,,,,,,,
,,5e3c407472a17401e4754bd0,66fc98d1559574b3ea396751,2024-10-02_01h50.42.100,mdp,2024.2.1,Win32,59.88023952,66fa4ebf79326e780c390304,,,,,,,,,,,,,,,,,,,,,949.9579,949.9579,949.9589,950.8903,1,0,right,0.4077,,950.8912,950.8917,,1,,950.8923,950.8928,,1,,1,950.8928,950.8928,950.893,952.3885,0,29,29,29,1,0.8,0.2,0.6,0.4,1,0,,,,,,,,,,,,,,,,,,,,,,,,,,,,,,,,,,,,
,,5e3c407472a17401e4754bd0,66fc98d1559574b3ea396751,2024-10-02_01h50.42.100,mdp,2024.2.1,Win32,59.88023952,66fa4ebf79326e780c390304,,,,,,,,,,,,,,,,,,,,,952.3888,952.3888,952.3899,953.3044,0,0,left,0.3849,,953.3054,953.3061,,0,,953.3067,953.307,,1,,1,953.307,953.307,953.3073,954.8031,0,30,30,30,1,0.8,0.2,0.6,0.4,1,0,,,,,,,,,,,,,,,,,,,,,,,,,,,,,,,,,,,,
,,5e3c407472a17401e4754bd0,66fc98d1559574b3ea396751,2024-10-02_01h50.42.100,mdp,2024.2.1,Win32,59.88023952,66fa4ebf79326e780c390304,,,,,,,,,,,,,,,,,,,,,954.8035,954.8035,954.8044,955.6688,1,0,right,0.3468,,955.6696,955.6703,,0,,955.6708,955.6711,,1,,1,955.6711,955.6711,955.6714,957.1676,0,31,31,31,1,0.8,0.2,0.6,0.4,1,0,,,,,,,,,,,,,,,,,,,,,,,,,,,,,,,,,,,,
,,5e3c407472a17401e4754bd0,66fc98d1559574b3ea396751,2024-10-02_01h50.42.100,mdp,2024.2.1,Win32,59.88023952,66fa4ebf79326e780c390304,,,,,,,,,,,,,,,,,,,,,957.1679,957.1679,957.1692,958.1336,0,1,left,0.4378,,958.1346,958.1355,,0,,958.1361,958.1364,,0,,0,958.1364,958.1364,958.1367,959.6322,0,32,32,32,1,0.8,0.2,0.6,0.4,1,0,,,,,,,,,,,,,,,,,,,,,,,,,,,,,,,,,,,,
,,5e3c407472a17401e4754bd0,66fc98d1559574b3ea396751,2024-10-02_01h50.42.100,mdp,2024.2.1,Win32,59.88023952,66fa4ebf79326e780c390304,,,,,,,,,,,,,,,,,,,,,959.6326,959.6326,959.6335,960.7645,1,1,right,0.6002,,960.7656,960.7661,,1,,960.7667,960.7672,,1,,0,960.7672,960.7672,960.7674,962.263,0,33,33,33,1,0.6,0.4,0.2,0.8,1,0,,,,,,,,,,,,,,,,,,,,,,,,,,,,,,,,,,,,
,,5e3c407472a17401e4754bd0,66fc98d1559574b3ea396751,2024-10-02_01h50.42.100,mdp,2024.2.1,Win32,59.88023952,66fa4ebf79326e780c390304,,,,,,,,,,,,,,,,,,,,,962.2633,962.2633,962.2642,963.5454,1,1,right,0.7507,,963.5464,963.5471,,1,,963.5477,963.5479,,1,,0,963.548,963.548,963.5482,965.0443,0,34,34,34,1,0.6,0.4,0.2,0.8,1,0,,,,,,,,,,,,,,,,,,,,,,,,,,,,,,,,,,,,
,,5e3c407472a17401e4754bd0,66fc98d1559574b3ea396751,2024-10-02_01h50.42.100,mdp,2024.2.1,Win32,59.88023952,66fa4ebf79326e780c390304,,,,,,,,,,,,,,,,,,,,,965.0447,965.0447,965.0456,966.0433,0,1,left,0.4662,,966.0442,966.0451,,0,,966.0456,966.0459,,0,,0,966.046,966.046,966.0462,967.5418,0,35,35,35,1,0.6,0.4,0.2,0.8,1,0,,,,,,,,,,,,,,,,,,,,,,,,,,,,,,,,,,,,
,,5e3c407472a17401e4754bd0,66fc98d1559574b3ea396751,2024-10-02_01h50.42.100,mdp,2024.2.1,Win32,59.88023952,66fa4ebf79326e780c390304,,,,,,,,,,,,,,,,,,,,,967.5422,967.5422,967.5432,968.508,1,1,right,0.4335,,968.509,968.5096,,1,,968.5102,968.5106,,1,,0,968.5106,968.5106,968.5108,970.0063,0,36,36,36,1,0.6,0.4,0.2,0.8,1,0,,,,,,,,,,,,,,,,,,,,,,,,,,,,,,,,,,,,
,,5e3c407472a17401e4754bd0,66fc98d1559574b3ea396751,2024-10-02_01h50.42.100,mdp,2024.2.1,Win32,59.88023952,66fa4ebf79326e780c390304,,,,,,,,,,,,,,,,,,,,,970.0067,970.0067,970.0075,970.9722,0,1,left,0.4394,,970.9731,970.9736,,0,,970.9739,970.9742,,1,,0,970.9742,970.9743,970.9746,972.4708,0,37,37,37,1,0.6,0.4,0.2,0.8,1,0,,,,,,,,,,,,,,,,,,,,,,,,,,,,,,,,,,,,
,,5e3c407472a17401e4754bd0,66fc98d1559574b3ea396751,2024-10-02_01h50.42.100,mdp,2024.2.1,Win32,59.88023952,66fa4ebf79326e780c390304,,,,,,,,,,,,,,,,,,,,,972.4712,972.4712,972.4722,973.5201,0,0,left,0.5264,,973.521,973.5219,,0,,973.5225,973.5228,,0,,1,973.5228,973.5228,973.5231,975.0187,0,38,38,38,1,0.6,0.4,0.2,0.8,1,0,,,,,,,,,,,,,,,,,,,,,,,,,,,,,,,,,,,,
,,5e3c407472a17401e4754bd0,66fc98d1559574b3ea396751,2024-10-02_01h50.42.100,mdp,2024.2.1,Win32,59.88023952,66fa4ebf79326e780c390304,,,,,,,,,,,,,,,,,,,,,975.019,975.0191,975.02,975.8181,0,0,left,0.2744,,975.819,975.8198,,1,,975.8206,975.8209,,1,,1,975.8209,975.8209,975.8212,977.3164,0,39,39,39,1,0.6,0.4,0.2,0.8,1,0,,,,,,,,,,,,,,,,,,,,,,,,,,,,,,,,,,,,
,,5e3c407472a17401e4754bd0,66fc98d1559574b3ea396751,2024-10-02_01h50.42.100,mdp,2024.2.1,Win32,59.88023952,66fa4ebf79326e780c390304,,,,,,,,,,,,,,,,,,,,,977.3167,977.3167,977.3189,978.1493,1,1,right,0.3051,,978.1503,978.151,,1,,978.1516,978.152,,1,,0,978.152,978.1521,978.1523,979.6483,0,40,40,40,1,0.6,0.4,0.2,0.8,1,0,,,,,,,,,,,,,,,,,,,,,,,,,,,,,,,,,,,,
,,5e3c407472a17401e4754bd0,66fc98d1559574b3ea396751,2024-10-02_01h50.42.100,mdp,2024.2.1,Win32,59.88023952,66fa4ebf79326e780c390304,,,,,,,,,,,,,,,,,,,,,979.6486,979.6486,979.6494,980.5806,0,0,left,0.4054,,980.5815,980.5822,,0,,980.5826,980.583,,0,,1,980.583,980.583,980.5833,982.0792,0,41,41,41,1,0.6,0.4,0.2,0.8,1,0,,,,,,,,,,,,,,,,,,,,,,,,,,,,,,,,,,,,
,,5e3c407472a17401e4754bd0,66fc98d1559574b3ea396751,2024-10-02_01h50.42.100,mdp,2024.2.1,Win32,59.88023952,66fa4ebf79326e780c390304,,,,,,,,,,,,,,,,,,,,,982.0795,982.0795,982.0804,983.0949,0,1,left,0.4944,,983.0956,983.0959,,0,,983.0964,983.0968,,0,,0,983.0969,983.0969,983.0971,984.5935,0,42,42,42,1,0.6,0.4,0.2,0.8,1,0,,,,,,,,,,,,,,,,,,,,,,,,,,,,,,,,,,,,
,,5e3c407472a17401e4754bd0,66fc98d1559574b3ea396751,2024-10-02_01h50.42.100,mdp,2024.2.1,Win32,59.88023952,66fa4ebf79326e780c390304,,,,,,,,,,,,,,,,,,,,,984.5937,984.5937,984.5946,985.726,0,1,left,0.6115,,985.7265,985.7269,,1,,985.7275,985.7279,,0,,0,985.7279,985.7279,985.7282,987.2247,0,43,43,43,1,0.6,0.4,0.2,0.8,1,0,,,,,,,,,,,,,,,,,,,,,,,,,,,,,,,,,,,,
,,5e3c407472a17401e4754bd0,66fc98d1559574b3ea396751,2024-10-02_01h50.42.100,mdp,2024.2.1,Win32,59.88023952,66fa4ebf79326e780c390304,,,,,,,,,,,,,,,,,,,,,987.2251,987.2251,987.2258,988.5566,0,0,left,0.8123,,988.5573,988.5579,,1,,988.5583,988.5587,,1,,1,988.5587,988.5587,988.5589,990.0554,0,44,44,44,1,0.6,0.4,0.2,0.8,1,0,,,,,,,,,,,,,,,,,,,,,,,,,,,,,,,,,,,,
,,5e3c407472a17401e4754bd0,66fc98d1559574b3ea396751,2024-10-02_01h50.42.100,mdp,2024.2.1,Win32,59.88023952,66fa4ebf79326e780c390304,,,,,,,,,,,,,,,,,,,,,990.0557,990.0557,990.0564,991.1713,0,0,left,0.5832,,991.1719,991.1723,,0,,991.173,991.1736,,0,,1,991.1737,991.1737,991.1739,992.6697,0,45,45,45,1,0.6,0.4,0.2,0.8,1,0,,,,,,,,,,,,,,,,,,,,,,,,,,,,,,,,,,,,
,,5e3c407472a17401e4754bd0,66fc98d1559574b3ea396751,2024-10-02_01h50.42.100,mdp,2024.2.1,Win32,59.88023952,66fa4ebf79326e780c390304,,,,,,,,,,,,,,,,,,,,,992.67,992.67,992.6708,993.6525,0,0,left,0.4557,,993.6533,993.6537,,0,,993.6541,993.6545,,0,,1,993.6545,993.6545,993.6551,995.1509,0,46,46,46,1,0.8,0.2,0.6,0.4,1,0,,,,,,,,,,,,,,,,,,,,,,,,,,,,,,,,,,,,
,,5e3c407472a17401e4754bd0,66fc98d1559574b3ea396751,2024-10-02_01h50.42.100,mdp,2024.2.1,Win32,59.88023952,66fa4ebf79326e780c390304,,,,,,,,,,,,,,,,,,,,,995.1513,995.1513,995.1521,996.167,1,0,right,0.4865,,996.1679,996.1686,,0,,996.1691,996.1695,,0,,1,996.1695,996.1695,996.1698,997.6654,0,47,47,47,1,0.8,0.2,0.6,0.4,1,0,,,,,,,,,,,,,,,,,,,,,,,,,,,,,,,,,,,,
,,5e3c407472a17401e4754bd0,66fc98d1559574b3ea396751,2024-10-02_01h50.42.100,mdp,2024.2.1,Win32,59.88023952,66fa4ebf79326e780c390304,,,,,,,,,,,,,,,,,,,,,997.6658,997.6658,997.6666,1000.7797,1,0,right,2.5882,,1000.7807,1000.7815,,0,,1000.7822,1000.7826,,0,,1,1000.7826,1000.7826,1000.7828,1002.2781,0,48,48,48,1,0.8,0.2,0.6,0.4,1,0,,,,,,,,,,,,,,,,,,,,,,,,,,,,,,,,,,,,
,,5e3c407472a17401e4754bd0,66fc98d1559574b3ea396751,2024-10-02_01h50.42.100,mdp,2024.2.1,Win32,59.88023952,66fa4ebf79326e780c390304,,,,,,,,,,,,,,,,,,,,,1002.2784,1002.2784,1002.2792,1004.3929,0,0,left,1.591,,1004.3935,1004.394,,0,,1004.3945,1004.3953,,1,,1,1004.3953,1004.3953,1004.3957,1005.8918,0,49,49,49,1,0.8,0.2,0.6,0.4,1,0,,,,,,,,,,,,,,,,,,,,,,,,,,,,,,,,,,,,
,,5e3c407472a17401e4754bd0,66fc98d1559574b3ea396751,2024-10-02_01h50.42.100,mdp,2024.2.1,Win32,59.88023952,66fa4ebf79326e780c390304,,,,,,,,,,,,,,,,,,,,,,,,,,,,,,,,,,,,,,,,,,,,,,,,,,,,,,,,1005.8925,1064.4077,0,0,0,7,1,imgs/squirrel.png,imgs/cat.png,imgs/rabbit.png,imgs/horse.png,imgs/giraffe.png,,,,,,,,,,,,,,,,,,,,,,,,
,,5e3c407472a17401e4754bd0,66fc98d1559574b3ea396751,2024-10-02_01h50.42.100,mdp,2024.2.1,Win32,59.88023952,66fa4ebf79326e780c390304,,,,,,,,,,,,,,2,seqs/st2seq11.csv,1064.4154,1183.6192,space,118.6861,,1183.629,1183.629,1183.6295,1186.0342,1,1,right,1.8778,,1186.0351,1188.4488,1,0,right,1188.4496,1188.4501,,1,,1,1188.4501,1188.4501,1188.4504,1189.9472,0,0,0,0,1,0.8,0.2,0.8,0.2,,,,,,,,,,,,,,,1.8781,,0.8,0.2,0.6,0.4,0.2,0.8,0.4,0.6,1,0,,,,,,,,,,,,
,,5e3c407472a17401e4754bd0,66fc98d1559574b3ea396751,2024-10-02_01h50.42.100,mdp,2024.2.1,Win32,59.88023952,66fa4ebf79326e780c390304,,,,,,,,,,,,,,,,,,,,,1189.9477,1189.9477,1189.9484,1191.0293,1,1,right,0.5615,,1191.0299,1192.4118,1,0,right,1192.4126,1192.4133,,0,,1,1192.4134,1192.4134,1192.4137,1193.9105,0,1,1,1,1,0.8,0.2,0.8,0.2,,,,,,,,,,,,,,,0.8498,,0.8,0.2,0.6,0.4,0.2,0.8,0.4,0.6,1,0,,,,,,,,,,,,
,,5e3c407472a17401e4754bd0,66fc98d1559574b3ea396751,2024-10-02_01h50.42.100,mdp,2024.2.1,Win32,59.88023952,66fa4ebf79326e780c390304,,,,,,,,,,,,,,,,,,,,,1193.9107,1193.9107,1193.9114,1194.8928,1,0,right,0.4552,,1194.8936,1196.5082,0,0,left,1196.5091,1196.5097,,0,,1,1196.5099,1196.5099,1196.5101,1198.0065,0,2,2,2,1,0.8,0.2,0.8,0.2,,,,,,,,,,,,,,,1.0846,,0.6,0.4,0.4,0.6,0.2,0.8,0.4,0.6,1,0,,,,,,,,,,,,
,,5e3c407472a17401e4754bd0,66fc98d1559574b3ea396751,2024-10-02_01h50.42.100,mdp,2024.2.1,Win32,59.88023952,66fa4ebf79326e780c390304,,,,,,,,,,,,,,,,,,,,,1198.0068,1198.0068,1198.0073,1198.9224,1,1,right,0.3902,,1198.923,1200.055,1,1,right,1200.0558,1200.0568,,0,,0,1200.0568,1200.0568,1200.0574,1201.5536,0,3,3,3,1,0.8,0.2,0.8,0.2,,,,,,,,,,,,,,,0.6076,,0.6,0.4,0.4,0.6,0.2,0.8,0.4,0.6,1,0,,,,,,,,,,,,
,,5e3c407472a17401e4754bd0,66fc98d1559574b3ea396751,2024-10-02_01h50.42.100,mdp,2024.2.1,Win32,59.88023952,66fa4ebf79326e780c390304,,,,,,,,,,,,,,,,,,,,,1201.5539,1201.5539,1201.5546,1202.6028,1,1,right,0.5233,,1202.6035,1204.1512,0,1,left,1204.1522,1204.153,,1,,0,1204.153,1204.153,1204.1535,1205.6502,0,4,4,4,1,0.8,0.2,0.8,0.2,,,,,,,,,,,,,,,1.0267,,0.6,0.4,0.4,0.6,0.2,0.8,0.4,0.6,1,0,,,,,,,,,,,,
,,5e3c407472a17401e4754bd0,66fc98d1559574b3ea396751,2024-10-02_01h50.42.100,mdp,2024.2.1,Win32,59.88023952,66fa4ebf79326e780c390304,,,,,,,,,,,,,,,,,,,,,1205.6505,1205.6506,1205.6514,1206.6495,1,1,right,0.4672,,1206.6504,1207.7482,1,1,right,1207.749,1207.7496,,0,,0,1207.7497,1207.7497,1207.7502,1209.2467,0,5,5,5,1,0.2,0.8,0.6,0.4,,,,,,,,,,,,,,,0.572,,0.6,0.4,0.4,0.6,0.2,0.8,0.4,0.6,1,0,,,,,,,,,,,,
,,5e3c407472a17401e4754bd0,66fc98d1559574b3ea396751,2024-10-02_01h50.42.100,mdp,2024.2.1,Win32,59.88023952,66fa4ebf79326e780c390304,,,,,,,,,,,,,,,,,,,,,1209.247,1209.247,1209.2478,1210.1961,1,0,right,0.4222,,1210.1969,1211.9445,0,1,left,1211.9451,1211.9455,,1,,0,1211.9455,1211.9455,1211.9459,1213.4431,0,6,6,6,1,0.2,0.8,0.6,0.4,,,,,,,,,,,,,,,1.215,,0.2,0.8,0.6,0.4,0.2,0.8,0.4,0.6,1,0,,,,,,,,,,,,
,,5e3c407472a17401e4754bd0,66fc98d1559574b3ea396751,2024-10-02_01h50.42.100,mdp,2024.2.1,Win32,59.88023952,66fa4ebf79326e780c390304,,,,,,,,,,,,,,,,,,,,,1213.4434,1213.4434,1213.4446,1214.5422,1,1,right,0.5783,,1214.5431,1217.0733,0,1,left,1217.0741,1217.0746,,1,,0,1217.0746,1217.0746,1217.0753,1218.572,0,7,7,7,1,0.2,0.8,0.6,0.4,,,,,,,,,,,,,,,1.9976,,0.2,0.8,0.6,0.4,0.2,0.8,0.4,0.6,1,0,,,,,,,,,,,,
,,5e3c407472a17401e4754bd0,66fc98d1559574b3ea396751,2024-10-02_01h50.42.100,mdp,2024.2.1,Win32,59.88023952,66fa4ebf79326e780c390304,,,,,,,,,,,,,,,,,,,,,1218.5722,1218.5723,1218.573,1219.6213,1,1,right,0.5205,,1219.6222,1221.2034,0,1,left,1221.2042,1221.2051,,1,,0,1221.2051,1221.2051,1221.2055,1222.7017,0,8,8,8,1,0.8,0.2,0.2,0.8,,,,,,,,,,,,,,,1.056,,0.2,0.8,0.6,0.4,0.2,0.8,0.4,0.6,1,0,,,,,,,,,,,,
,,5e3c407472a17401e4754bd0,66fc98d1559574b3ea396751,2024-10-02_01h50.42.100,mdp,2024.2.1,Win32,59.88023952,66fa4ebf79326e780c390304,,,,,,,,,,,,,,,,,,,,,1222.702,1222.702,1222.7029,1223.6509,1,1,right,0.4166,,1223.6517,1224.8331,1,1,right,1224.8337,1224.8343,,1,,0,1224.8343,1224.8343,1224.8348,1226.3318,0,9,9,9,1,0.8,0.2,0.2,0.8,,,,,,,,,,,,,,,0.6576,,0.2,0.8,0.6,0.4,0.6,0.4,0.2,0.8,1,0,,,,,,,,,,,,
,,5e3c407472a17401e4754bd0,66fc98d1559574b3ea396751,2024-10-02_01h50.42.100,mdp,2024.2.1,Win32,59.88023952,66fa4ebf79326e780c390304,,,,,,,,,,,,,,,,,,,,,1226.332,1226.332,1226.3326,1227.3975,1,1,right,0.537,,1227.3984,1228.4466,0,0,left,1228.4471,1228.4476,,0,,1,1228.4477,1228.4477,1228.4482,1229.9452,0,10,10,10,1,0.8,0.2,0.2,0.8,,,,,,,,,,,,,,,0.527,,0.2,0.8,0.6,0.4,0.6,0.4,0.2,0.8,1,0,,,,,,,,,,,,
,,5e3c407472a17401e4754bd0,66fc98d1559574b3ea396751,2024-10-02_01h50.42.100,mdp,2024.2.1,Win32,59.88023952,66fa4ebf79326e780c390304,,,,,,,,,,,,,,,,,,,,,1229.9454,1229.9454,1229.9461,1231.1443,1,1,right,0.676,,1231.1452,1232.6262,0,0,left,1232.6269,1232.6273,,0,,1,1232.6273,1232.6273,1232.6277,1234.125,0,11,11,11,1,0.8,0.2,0.2,0.8,,,,,,,,,,,,,,,0.9498,,0.2,0.8,0.6,0.4,0.6,0.4,0.2,0.8,1,0,,,,,,,,,,,,
,,5e3c407472a17401e4754bd0,66fc98d1559574b3ea396751,2024-10-02_01h50.42.100,mdp,2024.2.1,Win32,59.88023952,66fa4ebf79326e780c390304,,,,,,,,,,,,,,,,,,,,,1234.1254,1234.1254,1234.1259,1235.3072,1,1,right,0.65,,1235.3081,1237.3555,0,1,left,1237.3565,1237.3571,,1,,0,1237.3571,1237.3571,1237.3574,1238.8544,0,12,12,12,1,0.8,0.2,0.2,0.8,,,,,,,,,,,,,,,1.538,,0.2,0.8,0.6,0.4,0.6,0.4,0.2,0.8,1,0,,,,,,,,,,,,
,,5e3c407472a17401e4754bd0,66fc98d1559574b3ea396751,2024-10-02_01h50.42.100,mdp,2024.2.1,Win32,59.88023952,66fa4ebf79326e780c390304,,,,,,,,,,,,,,,,,,,,,1238.8547,1238.8547,1238.8558,1239.7534,1,0,right,0.3668,,1239.754,1241.5185,1,0,right,1241.5191,1241.5197,,1,,1,1241.5198,1241.5198,1241.5206,1243.0173,0,13,13,13,1,0.8,0.2,0.2,0.8,,,,,,,,,,,,,,,1.2409,,0.2,0.8,0.6,0.4,0.6,0.4,0.2,0.8,1,0,,,,,,,,,,,,
,,5e3c407472a17401e4754bd0,66fc98d1559574b3ea396751,2024-10-02_01h50.42.100,mdp,2024.2.1,Win32,59.88023952,66fa4ebf79326e780c390304,,,,,,,,,,,,,,,,,,,,,1243.0177,1243.0177,1243.0188,1244.1834,1,0,right,0.6442,,1244.1844,1245.6153,1,0,right,1245.6162,1245.6168,,1,,1,1245.6168,1245.6168,1245.6174,1247.1138,0,14,14,14,1,0.8,0.2,0.2,0.8,,,,,,,,,,,,,,,0.9014,,0.2,0.8,0.6,0.4,0.6,0.4,0.2,0.8,1,0,,,,,,,,,,,,
,,5e3c407472a17401e4754bd0,66fc98d1559574b3ea396751,2024-10-02_01h50.42.100,mdp,2024.2.1,Win32,59.88023952,66fa4ebf79326e780c390304,,,,,,,,,,,,,,,,,,,,,1247.1143,1247.1143,1247.1151,1247.8298,1,1,right,0.1949,,1247.8307,1250.0445,0,0,left,1250.0451,1250.0456,,0,,1,1250.0457,1250.0457,1250.0462,1251.5435,0,15,15,15,1,0.8,0.2,0.2,0.8,,,,,,,,,,,,,,,1.6857,,0.2,0.8,0.6,0.4,0.6,0.4,0.2,0.8,1,0,,,,,,,,,,,,
,,5e3c407472a17401e4754bd0,66fc98d1559574b3ea396751,2024-10-02_01h50.42.100,mdp,2024.2.1,Win32,59.88023952,66fa4ebf79326e780c390304,,,,,,,,,,,,,,,,,,,,,1251.5438,1251.5438,1251.5447,1252.4922,1,1,right,0.4298,,1252.4928,1254.0079,1,0,right,1254.0087,1254.0091,,1,,1,1254.0092,1254.0092,1254.0097,1255.5063,0,16,16,16,1,0.8,0.2,0.2,0.8,,,,,,,,,,,,,,,0.992,,0.2,0.8,0.6,0.4,0.6,0.4,0.2,0.8,1,0,,,,,,,,,,,,
,,5e3c407472a17401e4754bd0,66fc98d1559574b3ea396751,2024-10-02_01h50.42.100,mdp,2024.2.1,Win32,59.88023952,66fa4ebf79326e780c390304,,,,,,,,,,,,,,,,,,,,,1255.5066,1255.5067,1255.5075,1257.2215,1,1,right,1.1951,,1257.2226,1259.7527,0,0,left,1259.7604,1259.7609,,1,,1,1259.7609,1259.7609,1259.7613,1261.2514,0,17,17,17,1,0.8,0.2,0.2,0.8,,,,,,,,,,,,,,,2.0073,,0.2,0.8,0.6,0.4,0.6,0.4,0.2,0.8,1,0,,,,,,,,,,,,
,,5e3c407472a17401e4754bd0,66fc98d1559574b3ea396751,2024-10-02_01h50.42.100,mdp,2024.2.1,Win32,59.88023952,66fa4ebf79326e780c390304,,,,,,,,,,,,,,,,,,,,,1261.2518,1261.2518,1261.2526,1262.2339,1,1,right,0.4572,,1262.2348,1264.8816,1,1,right,1264.8824,1264.8829,,1,,0,1264.8829,1264.8829,1264.8833,1266.3803,0,18,18,18,1,0.8,0.2,0.2,0.8,,,,,,,,,,,,,,,2.1158,,0.2,0.8,0.6,0.4,0.6,0.4,0.2,0.8,1,0,,,,,,,,,,,,
,,5e3c407472a17401e4754bd0,66fc98d1559574b3ea396751,2024-10-02_01h50.42.100,mdp,2024.2.1,Win32,59.88023952,66fa4ebf79326e780c390304,,,,,,,,,,,,,,,,,,,,,1266.3807,1266.3807,1266.3819,1267.4292,1,1,right,0.5285,,1267.4301,1268.9282,0,0,left,1268.9291,1268.9298,,0,,1,1268.9298,1268.9298,1268.9302,1270.4268,0,19,19,19,1,0.8,0.2,0.2,0.8,,,,,,,,,,,,,,,0.9757,,0.2,0.8,0.6,0.4,0.6,0.4,0.2,0.8,1,0,,,,,,,,,,,,
,,5e3c407472a17401e4754bd0,66fc98d1559574b3ea396751,2024-10-02_01h50.42.100,mdp,2024.2.1,Win32,59.88023952,66fa4ebf79326e780c390304,,,,,,,,,,,,,,,,,,,,,1270.427,1270.427,1270.4276,1271.6422,1,1,right,0.6829,,1271.6432,1273.2408,0,0,left,1273.2416,1273.2423,,0,,1,1273.2423,1273.2423,1273.2428,1274.7399,0,20,20,20,1,0.8,0.2,0.2,0.8,,,,,,,,,,,,,,,1.0752,,0.2,0.8,0.6,0.4,0.6,0.4,0.2,0.8,1,0,,,,,,,,,,,,
,,5e3c407472a17401e4754bd0,66fc98d1559574b3ea396751,2024-10-02_01h50.42.100,mdp,2024.2.1,Win32,59.88023952,66fa4ebf79326e780c390304,,,,,,,,,,,,,,,,,,,,,1274.7403,1274.7403,1274.7413,1276.6715,1,1,right,1.4015,,1276.6724,1278.4032,1,1,right,1278.4039,1278.4046,,1,,0,1278.4046,1278.4046,1278.4049,1279.9018,0,21,21,21,1,0.8,0.2,0.2,0.8,,,,,,,,,,,,,,,1.1995,,0.2,0.8,0.6,0.4,0.6,0.4,0.2,0.8,1,0,,,,,,,,,,,,
,,5e3c407472a17401e4754bd0,66fc98d1559574b3ea396751,2024-10-02_01h50.42.100,mdp,2024.2.1,Win32,59.88023952,66fa4ebf79326e780c390304,,,,,,,,,,,,,,,,,,,,,1279.9022,1279.9022,1279.903,1280.8343,1,1,right,0.4002,,1280.835,1282.2663,0,0,left,1282.2675,1282.2682,,1,,1,1282.2682,1282.2682,1282.2688,1283.7649,0,22,22,22,1,0.4,0.6,0.8,0.2,,,,,,,,,,,,,,,0.8999,,0.2,0.8,0.6,0.4,0.6,0.4,0.2,0.8,1,0,,,,,,,,,,,,
,,5e3c407472a17401e4754bd0,66fc98d1559574b3ea396751,2024-10-02_01h50.42.100,mdp,2024.2.1,Win32,59.88023952,66fa4ebf79326e780c390304,,,,,,,,,,,,,,,,,,,,,1283.7653,1283.7654,1283.7662,1284.8974,1,0,right,0.6002,,1284.8982,1286.8956,1,0,right,1286.8965,1286.8971,,0,,1,1286.8971,1286.8971,1286.8976,1288.3943,0,23,23,23,1,0.4,0.6,0.8,0.2,,,,,,,,,,,,,,,1.4656,,0.2,0.8,0.6,0.4,0.6,0.4,0.2,0.8,1,0,,,,,,,,,,,,
,,5e3c407472a17401e4754bd0,66fc98d1559574b3ea396751,2024-10-02_01h50.42.100,mdp,2024.2.1,Win32,59.88023952,66fa4ebf79326e780c390304,,,,,,,,,,,,,,,,,,,,,1288.3947,1288.3947,1288.3957,1289.3766,1,0,right,0.4593,,1289.3773,1290.9419,1,1,right,1290.9427,1290.9431,,1,,0,1290.9432,1290.9432,1290.9441,1292.4407,0,24,24,24,1,0.4,0.6,0.8,0.2,,,,,,,,,,,,,,,1.0445,,0.2,0.8,0.6,0.4,0.6,0.4,0.2,0.8,1,0,,,,,,,,,,,,
,,5e3c407472a17401e4754bd0,66fc98d1559574b3ea396751,2024-10-02_01h50.42.100,mdp,2024.2.1,Win32,59.88023952,66fa4ebf79326e780c390304,,,,,,,,,,,,,,,,,,,,,1292.441,1292.4411,1292.4419,1293.2403,1,0,right,0.2681,,1293.2413,1295.3216,1,1,right,1295.3226,1295.3232,,1,,0,1295.3232,1295.3232,1295.3238,1296.8203,0,25,25,25,1,0.4,0.6,0.8,0.2,,,,,,,,,,,,,,,1.5571,,0.2,0.8,0.6,0.4,0.6,0.4,0.2,0.8,1,0,,,,,,,,,,,,
,,5e3c407472a17401e4754bd0,66fc98d1559574b3ea396751,2024-10-02_01h50.42.100,mdp,2024.2.1,Win32,59.88023952,66fa4ebf79326e780c390304,,,,,,,,,,,,,,,,,,,,,1296.8207,1296.8207,1296.8215,1297.6029,1,1,right,0.2572,,1297.6039,1298.6519,1,1,right,1298.6526,1298.6532,,1,,0,1298.6532,1298.6532,1298.6536,1300.1507,0,26,26,26,1,0.6,0.4,0.4,0.6,,,,,,,,,,,,,,,0.5139,,0.2,0.8,0.6,0.4,0.6,0.4,0.2,0.8,1,0,,,,,,,,,,,,
,,5e3c407472a17401e4754bd0,66fc98d1559574b3ea396751,2024-10-02_01h50.42.100,mdp,2024.2.1,Win32,59.88023952,66fa4ebf79326e780c390304,,,,,,,,,,,,,,,,,,,,,1300.151,1300.151,1300.1518,1300.9502,1,1,right,0.2785,,1300.9509,1302.0993,0,0,left,1302.0999,1302.1004,,0,,1,1302.1004,1302.1005,1302.101,1303.7413,0,27,27,27,1,0.6,0.4,0.4,0.6,,,,,,,,,,,,,,,0.6233,,0.2,0.8,0.6,0.4,0.6,0.4,0.2,0.8,1,0,,,,,,,,,,,,
,,5e3c407472a17401e4754bd0,66fc98d1559574b3ea396751,2024-10-02_01h50.42.100,mdp,2024.2.1,Win32,59.88023952,66fa4ebf79326e780c390304,,,,,,,,,,,,,,,,,,,,,1303.7416,1303.7416,1303.7423,1304.7633,1,1,right,0.5064,,1304.764,1307.1613,1,0,right,1307.1623,1307.1629,,0,,1,1307.1629,1307.163,1307.1633,1308.6599,0,28,28,28,1,0.6,0.4,0.4,0.6,,,,,,,,,,,,,,,1.8661,,0.2,0.8,0.6,0.4,0.2,0.8,0.6,0.4,1,0,,,,,,,,,,,,
,,5e3c407472a17401e4754bd0,66fc98d1559574b3ea396751,2024-10-02_01h50.42.100,mdp,2024.2.1,Win32,59.88023952,66fa4ebf79326e780c390304,,,,,,,,,,,,,,,,,,,,,1308.6603,1308.6603,1308.6614,1309.809,1,0,right,0.625,,1309.81,1313.2224,1,0,right,1313.2234,1313.2243,,1,,1,1313.2243,1313.2243,1313.2249,1314.7212,0,29,29,29,1,0.6,0.4,0.4,0.6,,,,,,,,,,,,,,,2.8906,,0.2,0.8,0.6,0.4,0.2,0.8,0.6,0.4,1,0,,,,,,,,,,,,
,,5e3c407472a17401e4754bd0,66fc98d1559574b3ea396751,2024-10-02_01h50.42.100,mdp,2024.2.1,Win32,59.88023952,66fa4ebf79326e780c390304,,,,,,,,,,,,,,,,,,,,,1314.7215,1314.7215,1314.7221,1315.5707,1,1,right,0.3235,,1315.5716,1317.1858,0,1,left,1317.1867,1317.1873,,1,,0,1317.1874,1317.1874,1317.188,1318.6845,0,30,30,30,1,0.6,0.4,0.4,0.6,,,,,,,,,,,,,,,1.0807,,0.2,0.8,0.6,0.4,0.2,0.8,0.6,0.4,1,0,,,,,,,,,,,,
,,5e3c407472a17401e4754bd0,66fc98d1559574b3ea396751,2024-10-02_01h50.42.100,mdp,2024.2.1,Win32,59.88023952,66fa4ebf79326e780c390304,,,,,,,,,,,,,,,,,,,,,1318.6848,1318.6849,1318.6857,1319.667,1,0,right,0.4503,,1319.6681,1321.2656,0,0,left,1321.2664,1321.2668,,0,,1,1321.2668,1321.2668,1321.2673,1322.7644,0,31,31,31,1,0.6,0.4,0.4,0.6,,,,,,,,,,,,,,,1.0635,,0.2,0.8,0.6,0.4,0.2,0.8,0.6,0.4,1,0,,,,,,,,,,,,
,,5e3c407472a17401e4754bd0,66fc98d1559574b3ea396751,2024-10-02_01h50.42.100,mdp,2024.2.1,Win32,59.88023952,66fa4ebf79326e780c390304,,,,,,,,,,,,,,,,,,,,,1322.7646,1322.7646,1322.7654,1323.7301,1,1,right,0.4339,,1323.7311,1325.5452,1,0,right,1325.5461,1325.5467,,1,,1,1325.5467,1325.5467,1325.5473,1327.044,0,32,32,32,1,0.6,0.4,0.4,0.6,,,,,,,,,,,,,,,1.2881,,0.2,0.8,0.6,0.4,0.2,0.8,0.6,0.4,1,0,,,,,,,,,,,,
,,5e3c407472a17401e4754bd0,66fc98d1559574b3ea396751,2024-10-02_01h50.42.100,mdp,2024.2.1,Win32,59.88023952,66fa4ebf79326e780c390304,,,,,,,,,,,,,,,,,,,,,1327.0443,1327.0443,1327.0452,1328.2928,1,0,right,0.7217,,1328.2938,1330.7238,1,0,right,1330.7244,1330.725,,0,,1,1330.725,1330.7251,1330.7255,1332.2226,0,33,33,33,1,0.6,0.4,0.4,0.6,,,,,,,,,,,,,,,1.9095,,0.2,0.8,0.6,0.4,0.2,0.8,0.6,0.4,1,0,,,,,,,,,,,,
,,5e3c407472a17401e4754bd0,66fc98d1559574b3ea396751,2024-10-02_01h50.42.100,mdp,2024.2.1,Win32,59.88023952,66fa4ebf79326e780c390304,,,,,,,,,,,,,,,,,,,,,1332.2229,1332.2229,1332.2235,1335.2368,1,1,right,2.4859,,1335.2378,1336.9852,0,1,left,1336.986,1336.9867,,1,,0,1336.9868,1336.9868,1336.9873,1338.4839,0,34,34,34,1,0.8,0.2,0.2,0.8,,,,,,,,,,,,,,,1.214,,0.2,0.8,0.6,0.4,0.2,0.8,0.6,0.4,1,0,,,,,,,,,,,,
,,5e3c407472a17401e4754bd0,66fc98d1559574b3ea396751,2024-10-02_01h50.42.100,mdp,2024.2.1,Win32,59.88023952,66fa4ebf79326e780c390304,,,,,,,,,,,,,,,,,,,,,1338.4842,1338.4842,1338.485,1339.5163,1,0,right,0.5001,,1339.5169,1341.1317,1,1,right,1341.1325,1341.1329,,1,,0,1341.133,1341.133,1341.1333,1342.6302,0,35,35,35,1,0.8,0.2,0.2,0.8,,,,,,,,,,,,,,,1.0808,,0.2,0.8,0.6,0.4,0.2,0.8,0.6,0.4,1,0,,,,,,,,,,,,
,,5e3c407472a17401e4754bd0,66fc98d1559574b3ea396751,2024-10-02_01h50.42.100,mdp,2024.2.1,Win32,59.88023952,66fa4ebf79326e780c390304,,,,,,,,,,,,,,,,,,,,,1342.6304,1342.6305,1342.6314,1343.5294,1,1,right,0.3743,,1343.5301,1344.9782,0,1,left,1344.979,1344.9797,,1,,0,1344.9797,1344.9797,1344.9802,1346.4769,0,36,36,36,1,0.8,0.2,0.2,0.8,,,,,,,,,,,,,,,0.9221,,0.2,0.8,0.6,0.4,0.2,0.8,0.6,0.4,1,0,,,,,,,,,,,,
,,5e3c407472a17401e4754bd0,66fc98d1559574b3ea396751,2024-10-02_01h50.42.100,mdp,2024.2.1,Win32,59.88023952,66fa4ebf79326e780c390304,,,,,,,,,,,,,,,,,,,,,1346.4772,1346.4772,1346.4781,1347.1261,1,1,right,0.1283,,1347.1271,1348.1422,1,1,right,1348.1433,1348.1442,,0,,0,1348.1443,1348.1443,1348.1447,1349.6408,0,37,37,37,1,0.8,0.2,0.2,0.8,,,,,,,,,,,,,,,0.4864,,0.2,0.8,0.6,0.4,0.2,0.8,0.6,0.4,1,0,,,,,,,,,,,,
,,5e3c407472a17401e4754bd0,66fc98d1559574b3ea396751,2024-10-02_01h50.42.100,mdp,2024.2.1,Win32,59.88023952,66fa4ebf79326e780c390304,,,,,,,,,,,,,,,,,,,,,1349.6411,1349.6411,1349.6421,1350.5901,1,1,right,0.4276,,1350.5909,1353.0209,0,1,left,1353.0218,1353.0224,,1,,0,1353.0225,1353.0225,1353.0228,1354.5197,0,38,38,38,1,0.8,0.2,0.2,0.8,,,,,,,,,,,,,,,1.9116,,0.2,0.8,0.6,0.4,0.2,0.8,0.6,0.4,1,0,,,,,,,,,,,,
,,5e3c407472a17401e4754bd0,66fc98d1559574b3ea396751,2024-10-02_01h50.42.100,mdp,2024.2.1,Win32,59.88023952,66fa4ebf79326e780c390304,,,,,,,,,,,,,,,,,,,,,1354.5199,1354.5199,1354.5205,1355.4687,1,1,right,0.4297,,1355.4693,1356.7846,1,1,right,1356.7854,1356.7858,,1,,0,1356.7859,1356.7859,1356.7863,1358.2831,0,39,39,39,1,0.8,0.2,0.2,0.8,,,,,,,,,,,,,,,0.7838,,0.2,0.8,0.6,0.4,0.2,0.8,0.6,0.4,1,0,,,,,,,,,,,,
,,5e3c407472a17401e4754bd0,66fc98d1559574b3ea396751,2024-10-02_01h50.42.100,mdp,2024.2.1,Win32,59.88023952,66fa4ebf79326e780c390304,,,,,,,,,,,,,,,,,,,,,1358.2835,1358.2836,1358.2847,1359.2655,1,0,right,0.45,,1359.2663,1360.5809,0,1,left,1360.5816,1360.5822,,1,,0,1360.5822,1360.5822,1360.5825,1362.08,0,40,40,40,1,0.8,0.2,0.2,0.8,,,,,,,,,,,,,,,0.7935,,0.2,0.8,0.6,0.4,0.2,0.8,0.6,0.4,1,0,,,,,,,,,,,,
,,5e3c407472a17401e4754bd0,66fc98d1559574b3ea396751,2024-10-02_01h50.42.100,mdp,2024.2.1,Win32,59.88023952,66fa4ebf79326e780c390304,,,,,,,,,,,,,,,,,,,,,1362.0804,1362.0805,1362.0813,1362.9292,1,1,right,0.3167,,1362.9301,1364.9439,0,1,left,1364.9445,1364.9451,,1,,0,1364.9452,1364.9452,1364.9458,1366.4426,0,41,41,41,1,0.8,0.2,0.2,0.8,,,,,,,,,,,,,,,1.4901,,0.2,0.8,0.6,0.4,0.2,0.8,0.6,0.4,1,0,,,,,,,,,,,,
,,5e3c407472a17401e4754bd0,66fc98d1559574b3ea396751,2024-10-02_01h50.42.100,mdp,2024.2.1,Win32,59.88023952,66fa4ebf79326e780c390304,,,,,,,,,,,,,,,,,,,,,1366.4429,1366.4429,1366.4434,1367.7081,1,1,right,0.745,,1367.7088,1368.9238,1,1,right,1368.9245,1368.925,,1,,0,1368.925,1368.925,1368.9253,1370.4226,0,42,42,42,1,0.8,0.2,0.2,0.8,,,,,,,,,,,,,,,0.6959,,0.6,0.4,0.8,0.2,0.2,0.8,0.6,0.4,1,0,,,,,,,,,,,,
,,5e3c407472a17401e4754bd0,66fc98d1559574b3ea396751,2024-10-02_01h50.42.100,mdp,2024.2.1,Win32,59.88023952,66fa4ebf79326e780c390304,,,,,,,,,,,,,,,,,,,,,1370.4231,1370.4231,1370.4239,1371.3553,1,1,right,0.4058,,1371.3561,1372.7873,0,1,left,1372.7879,1372.7885,,1,,0,1372.7885,1372.7885,1372.7889,1374.2859,0,43,43,43,1,0.8,0.2,0.2,0.8,,,,,,,,,,,,,,,0.9129,,0.6,0.4,0.8,0.2,0.2,0.8,0.6,0.4,1,0,,,,,,,,,,,,
,,5e3c407472a17401e4754bd0,66fc98d1559574b3ea396751,2024-10-02_01h50.42.100,mdp,2024.2.1,Win32,59.88023952,66fa4ebf79326e780c390304,,,,,,,,,,,,,,,,,,,,,1374.2863,1374.2863,1374.287,1374.9186,1,1,right,0.1101,,1374.9196,1376.4839,1,0,right,1376.4846,1376.4851,,0,,1,1376.4852,1376.4852,1376.4857,1377.9826,0,44,44,44,1,0.8,0.2,0.2,0.8,,,,,,,,,,,,,,,1.0459,,0.2,0.8,0.4,0.6,0.2,0.8,0.6,0.4,1,0,,,,,,,,,,,,
,,5e3c407472a17401e4754bd0,66fc98d1559574b3ea396751,2024-10-02_01h50.42.100,mdp,2024.2.1,Win32,59.88023952,66fa4ebf79326e780c390304,,,,,,,,,,,,,,,,,,,,,1377.9829,1377.9829,1377.9838,1378.5321,1,1,right,0.0302,,1378.5329,1379.4981,1,1,right,1379.4992,1379.4998,,0,,0,1379.4999,1379.4999,1379.5005,1380.9966,0,45,45,45,1,0.8,0.2,0.2,0.8,,,,,,,,,,,,,,,0.4331,,0.2,0.8,0.4,0.6,0.2,0.8,0.6,0.4,1,0,,,,,,,,,,,,
,,5e3c407472a17401e4754bd0,66fc98d1559574b3ea396751,2024-10-02_01h50.42.100,mdp,2024.2.1,Win32,59.88023952,66fa4ebf79326e780c390304,,,,,,,,,,,,,,,,,,,,,1380.997,1380.9971,1380.9978,1382.1128,1,0,right,0.583,,1382.1134,1383.8111,1,1,right,1383.8121,1383.8125,,0,,0,1383.8126,1383.8126,1383.8129,1385.3094,0,46,46,46,1,0.8,0.2,0.2,0.8,,,,,,,,,,,,,,,1.1697,,0.2,0.8,0.4,0.6,0.2,0.8,0.6,0.4,1,0,,,,,,,,,,,,
,,5e3c407472a17401e4754bd0,66fc98d1559574b3ea396751,2024-10-02_01h50.42.100,mdp,2024.2.1,Win32,59.88023952,66fa4ebf79326e780c390304,,,,,,,,,,,,,,,,,,,,,1385.3096,1385.3096,1385.3103,1386.2255,1,0,right,0.3908,,1386.2264,1387.7572,0,0,left,1387.7579,1387.7582,,1,,1,1387.7582,1387.7582,1387.759,1389.2561,0,47,47,47,1,0.8,0.2,0.2,0.8,,,,,,,,,,,,,,,1.0115,,0.2,0.8,0.4,0.6,0.2,0.8,0.6,0.4,1,0,,,,,,,,,,,,
,,5e3c407472a17401e4754bd0,66fc98d1559574b3ea396751,2024-10-02_01h50.42.100,mdp,2024.2.1,Win32,59.88023952,66fa4ebf79326e780c390304,,,,,,,,,,,,,,,,,,,,,1389.2563,1389.2564,1389.2569,1390.3218,1,1,right,0.5408,,1390.3226,1392.6699,1,0,right,1392.6705,1392.6711,,1,,1,1392.6712,1392.6712,1392.6718,1394.1682,0,48,48,48,1,0.8,0.2,0.2,0.8,,,,,,,,,,,,,,,1.8164,,0.2,0.8,0.4,0.6,0.2,0.8,0.6,0.4,1,0,,,,,,,,,,,,
,,5e3c407472a17401e4754bd0,66fc98d1559574b3ea396751,2024-10-02_01h50.42.100,mdp,2024.2.1,Win32,59.88023952,66fa4ebf79326e780c390304,,,,,,,,,,,,,,,,,,,,,1394.1686,1394.1686,1394.1692,1395.3173,1,1,right,0.6276,,1395.3181,1396.9827,0,1,left,1396.9837,1396.9845,,1,,0,1396.9846,1396.9846,1396.9853,1398.4814,0,49,49,49,1,0.8,0.2,0.2,0.8,,,,,,,,,,,,,,,1.1346,,0.2,0.8,0.4,0.6,0.2,0.8,0.6,0.4,1,0,,,,,,,,,,,,
,,5e3c407472a17401e4754bd0,66fc98d1559574b3ea396751,2024-10-02_01h50.42.100,mdp,2024.2.1,Win32,59.88023952,66fa4ebf79326e780c390304,,,,,,,,,,,,,,,,,,,,,,,,,,,,,,,,,,,,,,,,,,,,,,,,,,,,,,,,1398.4815,1455.3647,0,1,1,8,1,imgs/kangaroo.png,imgs/goat.png,imgs/rabbit.png,imgs/horse.png,imgs/pig.png,,,,,,,,,,,,,,,,,,,,,,,,
,,5e3c407472a17401e4754bd0,66fc98d1559574b3ea396751,2024-10-02_01h50.42.100,mdp,2024.2.1,Win32,59.88023952,66fa4ebf79326e780c390304,,,,,,,,,,,,,,3,seqs/st3seq40.csv,1455.3719,1456.3476,space,0.4641,,1456.3512,1456.3512,1456.3518,1457.9294,1,1,right,1.0439,,1457.93,1459.2612,1,1,right,1459.2618,1461.2761,1,1,right,0,1461.2761,1461.2762,1461.2767,1462.775,0,0,0,0,1,0.2,0.8,0.6,0.4,,,,,,,,,,,,,,,0.8075,,0.6,0.4,0.2,0.8,0.2,0.8,0.6,0.4,,,1.4929,,0.2,0.8,0.2,0.8,0.6,0.4,0.2,0.8,1,0
,,5e3c407472a17401e4754bd0,66fc98d1559574b3ea396751,2024-10-02_01h50.42.100,mdp,2024.2.1,Win32,59.88023952,66fa4ebf79326e780c390304,,,,,,,,,,,,,,,,,,,,,1462.7754,1462.7755,1462.7763,1463.9238,1,0,right,0.6291,,1463.9242,1465.0729,1,1,right,1465.0738,1466.172,0,0,left,1,1466.1722,1466.1722,1466.1727,1467.6708,0,1,1,1,1,0.2,0.8,0.6,0.4,,,,,,,,,,,,,,,0.6195,,0.6,0.4,0.2,0.8,0.2,0.8,0.6,0.4,,,0.58,,0.2,0.8,0.2,0.8,0.6,0.4,0.2,0.8,1,0
,,5e3c407472a17401e4754bd0,66fc98d1559574b3ea396751,2024-10-02_01h50.42.100,mdp,2024.2.1,Win32,59.88023952,66fa4ebf79326e780c390304,,,,,,,,,,,,,,,,,,,,,1467.6711,1467.6711,1467.6717,1468.5531,1,0,right,0.35,,1468.5538,1469.8689,1,0,right,1469.8696,1471.6172,0,1,left,0,1471.6172,1471.6172,1471.6179,1473.1158,0,2,2,2,1,0.2,0.8,0.6,0.4,,,,,,,,,,,,,,,0.7871,,0.6,0.4,0.2,0.8,0.2,0.8,0.6,0.4,,,1.2122,,0.2,0.8,0.2,0.8,0.6,0.4,0.2,0.8,1,0
,,5e3c407472a17401e4754bd0,66fc98d1559574b3ea396751,2024-10-02_01h50.42.100,mdp,2024.2.1,Win32,59.88023952,66fa4ebf79326e780c390304,,,,,,,,,,,,,,,,,,,,,1473.1162,1473.1162,1473.1168,1473.8652,1,0,right,0.2242,,1473.8658,1474.8145,1,1,right,1474.8152,1476.4295,0,1,left,0,1476.4295,1476.4295,1476.4301,1477.9281,0,3,3,3,1,0.2,0.8,0.6,0.4,,,,,,,,,,,,,,,0.4193,,0.6,0.4,0.2,0.8,0.2,0.8,0.6,0.4,,,1.0844,,0.2,0.8,0.2,0.8,0.2,0.8,0.8,0.2,1,0
,,5e3c407472a17401e4754bd0,66fc98d1559574b3ea396751,2024-10-02_01h50.42.100,mdp,2024.2.1,Win32,59.88023952,66fa4ebf79326e780c390304,,,,,,,,,,,,,,,,,,,,,1477.9284,1477.9284,1477.9289,1478.7276,1,0,right,0.2761,,1478.7283,1479.8766,1,1,right,1479.8775,1481.059,1,0,right,1,1481.0591,1481.0591,1481.0596,1482.5577,0,4,4,4,1,0.2,0.8,0.6,0.4,,,,,,,,,,,,,,,0.6207,,0.6,0.4,0.2,0.8,0.2,0.8,0.6,0.4,,,0.6558,,0.2,0.8,0.2,0.8,0.2,0.8,0.8,0.2,1,0
,,5e3c407472a17401e4754bd0,66fc98d1559574b3ea396751,2024-10-02_01h50.42.100,mdp,2024.2.1,Win32,59.88023952,66fa4ebf79326e780c390304,,,,,,,,,,,,,,,,,,,,,1482.5581,1482.5581,1482.5589,1483.5901,1,0,right,0.5116,,1483.591,1484.6393,1,0,right,1484.6401,1486.5709,1,0,right,1,1486.5709,1486.5709,1486.5718,1488.0695,0,5,5,5,1,0.2,0.8,0.6,0.4,,,,,,,,,,,,,,,0.5265,,0.6,0.4,0.2,0.8,0.2,0.8,0.6,0.4,,,1.398,,0.2,0.8,0.2,0.8,0.2,0.8,0.8,0.2,1,0
,,5e3c407472a17401e4754bd0,66fc98d1559574b3ea396751,2024-10-02_01h50.42.100,mdp,2024.2.1,Win32,59.88023952,66fa4ebf79326e780c390304,,,,,,,,,,,,,,,,,,,,,1488.0699,1488.07,1488.0707,1488.9022,1,1,right,0.3028,,1488.9031,1489.8513,1,0,right,1489.8522,1492.4656,0,1,left,0,1492.4656,1492.4656,1492.4666,1493.9644,0,6,6,6,1,0.2,0.8,0.6,0.4,,,,,,,,,,,,,,,0.4138,,0.6,0.4,0.2,0.8,0.2,0.8,0.6,0.4,,,2.0897,,0.2,0.8,0.2,0.8,0.8,0.2,0.6,0.4,1,0
,,5e3c407472a17401e4754bd0,66fc98d1559574b3ea396751,2024-10-02_01h50.42.100,mdp,2024.2.1,Win32,59.88023952,66fa4ebf79326e780c390304,,,,,,,,,,,,,,,,,,,,,1493.9647,1493.9647,1493.9653,1495.0135,1,0,right,0.5202,,1495.0145,1496.0127,1,1,right,1496.0137,1497.0283,1,0,right,1,1497.0284,1497.0285,1497.029,1498.527,0,7,7,7,1,0.6,0.4,0.8,0.2,,,,,,,,,,,,,,,0.4688,,0.6,0.4,0.2,0.8,0.2,0.8,0.6,0.4,,,0.4858,,0.2,0.8,0.2,0.8,0.8,0.2,0.6,0.4,1,0
,,5e3c407472a17401e4754bd0,66fc98d1559574b3ea396751,2024-10-02_01h50.42.100,mdp,2024.2.1,Win32,59.88023952,66fa4ebf79326e780c390304,,,,,,,,,,,,,,,,,,,,,1498.5274,1498.5274,1498.5283,1501.1415,1,0,right,2.0859,,1501.1424,1502.4406,1,1,right,1502.4417,1503.7893,1,0,right,1,1503.7893,1503.7893,1503.7898,1505.2878,0,8,8,8,1,0.6,0.4,0.8,0.2,,,,,,,,,,,,,,,0.7755,,0.6,0.4,0.2,0.8,0.2,0.8,0.6,0.4,,,0.8284,,0.2,0.8,0.2,0.8,0.8,0.2,0.6,0.4,1,0
,,5e3c407472a17401e4754bd0,66fc98d1559574b3ea396751,2024-10-02_01h50.42.100,mdp,2024.2.1,Win32,59.88023952,66fa4ebf79326e780c390304,,,,,,,,,,,,,,,,,,,,,1505.2882,1505.2882,1505.289,1506.3536,1,1,right,0.5409,,1506.3547,1508.3518,0,1,left,1508.3525,1510.0005,0,0,left,1,1510.0006,1510.0006,1510.0014,1511.4989,0,9,9,9,1,0.6,0.4,0.8,0.2,,,,,,,,,,,,,,,1.4644,,0.6,0.4,0.2,0.8,0.2,0.8,0.6,0.4,,,1.1244,,0.2,0.8,0.2,0.8,0.8,0.2,0.6,0.4,1,0
,,5e3c407472a17401e4754bd0,66fc98d1559574b3ea396751,2024-10-02_01h50.42.100,mdp,2024.2.1,Win32,59.88023952,66fa4ebf79326e780c390304,,,,,,,,,,,,,,,,,,,,,1511.4993,1511.4993,1511.5001,1512.5314,1,0,right,0.4998,,1512.5322,1513.5807,1,1,right,1513.5816,1514.6299,1,1,right,0,1514.6299,1514.6299,1514.6307,1516.1283,0,10,10,10,1,0.6,0.4,0.8,0.2,,,,,,,,,,,,,,,0.5196,,0.6,0.4,0.2,0.8,0.2,0.8,0.6,0.4,,,0.5285,,0.2,0.8,0.2,0.8,0.8,0.2,0.6,0.4,1,0
,,5e3c407472a17401e4754bd0,66fc98d1559574b3ea396751,2024-10-02_01h50.42.100,mdp,2024.2.1,Win32,59.88023952,66fa4ebf79326e780c390304,,,,,,,,,,,,,,,,,,,,,1516.1286,1516.1287,1516.1296,1517.294,1,0,right,0.6451,,1517.2949,1518.4928,1,0,right,1518.4934,1520.5578,1,1,right,0,1520.5578,1520.5578,1520.5588,1522.0564,0,11,11,11,1,0.6,0.4,0.8,0.2,,,,,,,,,,,,,,,0.6793,,0.6,0.4,0.2,0.8,0.2,0.8,0.6,0.4,,,1.5335,,0.2,0.8,0.2,0.8,0.8,0.2,0.6,0.4,1,0
,,5e3c407472a17401e4754bd0,66fc98d1559574b3ea396751,2024-10-02_01h50.42.100,mdp,2024.2.1,Win32,59.88023952,66fa4ebf79326e780c390304,,,,,,,,,,,,,,,,,,,,,1522.0567,1522.0567,1522.0572,1523.2722,1,0,right,0.684,,1523.2732,1524.3712,1,1,right,1524.372,1525.8197,1,0,right,1,1525.8197,1525.8198,1525.8204,1527.3185,0,12,12,12,1,0.6,0.4,0.8,0.2,,,,,,,,,,,,,,,0.5666,,0.6,0.4,0.2,0.8,0.8,0.2,0.4,0.6,,,0.9286,,0.2,0.8,0.2,0.8,0.8,0.2,0.6,0.4,1,0
,,5e3c407472a17401e4754bd0,66fc98d1559574b3ea396751,2024-10-02_01h50.42.100,mdp,2024.2.1,Win32,59.88023952,66fa4ebf79326e780c390304,,,,,,,,,,,,,,,,,,,,,1527.3189,1527.3189,1527.3199,1528.6007,1,0,right,0.7586,,1528.6016,1530.2326,1,0,right,1530.2335,1532.0977,0,1,left,0,1532.0978,1532.0978,1532.0988,1533.5962,0,13,13,13,1,0.6,0.4,0.8,0.2,,,,,,,,,,,,,,,1.108,,0.6,0.4,0.2,0.8,0.8,0.2,0.4,0.6,,,1.3385,,0.2,0.8,0.2,0.8,0.8,0.2,0.6,0.4,1,0
,,5e3c407472a17401e4754bd0,66fc98d1559574b3ea396751,2024-10-02_01h50.42.100,mdp,2024.2.1,Win32,59.88023952,66fa4ebf79326e780c390304,,,,,,,,,,,,,,,,,,,,,1533.5966,1533.5966,1533.5974,1534.6953,1,0,right,0.5766,,1534.696,1536.4775,1,1,right,1536.4787,1538.0923,1,1,right,0,1538.0923,1538.0923,1538.0929,1539.5911,0,14,14,14,1,0.6,0.4,0.8,0.2,,,,,,,,,,,,,,,1.261,,0.6,0.4,0.2,0.8,0.8,0.2,0.4,0.6,,,1.0932,,0.2,0.8,0.2,0.8,0.8,0.2,0.6,0.4,1,0
,,5e3c407472a17401e4754bd0,66fc98d1559574b3ea396751,2024-10-02_01h50.42.100,mdp,2024.2.1,Win32,59.88023952,66fa4ebf79326e780c390304,,,,,,,,,,,,,,,,,,,,,1539.5915,1539.5915,1539.5925,1540.7904,1,0,right,0.6696,,1540.791,1542.2722,1,1,right,1542.2728,1543.954,1,0,right,1,1543.9541,1543.9541,1543.9549,1545.4525,0,15,15,15,1,0.6,0.4,0.8,0.2,,,,,,,,,,,,,,,0.9588,,0.6,0.4,0.2,0.8,0.8,0.2,0.4,0.6,,,1.1561,,0.2,0.8,0.2,0.8,0.8,0.2,0.6,0.4,1,0
,,5e3c407472a17401e4754bd0,66fc98d1559574b3ea396751,2024-10-02_01h50.42.100,mdp,2024.2.1,Win32,59.88023952,66fa4ebf79326e780c390304,,,,,,,,,,,,,,,,,,,,,1545.453,1545.453,1545.4536,1546.7018,1,0,right,0.7199,,1546.7029,1547.9339,1,1,right,1547.9345,1549.9821,1,0,right,1,1549.9822,1549.9822,1549.9832,1551.4808,0,16,16,16,1,0.6,0.4,0.8,0.2,,,,,,,,,,,,,,,0.7024,,0.6,0.4,0.2,0.8,0.8,0.2,0.4,0.6,,,1.5182,,0.2,0.8,0.2,0.8,0.8,0.2,0.6,0.4,1,0
,,5e3c407472a17401e4754bd0,66fc98d1559574b3ea396751,2024-10-02_01h50.42.100,mdp,2024.2.1,Win32,59.88023952,66fa4ebf79326e780c390304,,,,,,,,,,,,,,,,,,,,,1551.4813,1551.4813,1551.4823,1552.5798,1,1,right,0.5669,,1552.5805,1554.6946,0,0,left,1554.6954,1556.4098,0,1,left,0,1556.4098,1556.4098,1556.4107,1557.9087,0,17,17,17,1,0.6,0.4,0.8,0.2,,,,,,,,,,,,,,,1.5914,,0.6,0.4,0.2,0.8,0.8,0.2,0.4,0.6,,,1.18,,0.2,0.8,0.2,0.8,0.8,0.2,0.6,0.4,1,0
,,5e3c407472a17401e4754bd0,66fc98d1559574b3ea396751,2024-10-02_01h50.42.100,mdp,2024.2.1,Win32,59.88023952,66fa4ebf79326e780c390304,,,,,,,,,,,,,,,,,,,,,1557.9091,1557.9091,1557.9098,1558.924,1,0,right,0.4962,,1558.9247,1560.506,1,1,right,1560.5072,1562.1879,1,1,right,0,1562.188,1562.188,1562.1888,1563.6868,0,18,18,18,1,0.6,0.4,0.8,0.2,,,,,,,,,,,,,,,1.0551,,0.6,0.4,0.2,0.8,0.8,0.2,0.4,0.6,,,1.1525,,0.2,0.8,0.2,0.8,0.8,0.2,0.6,0.4,1,0
,,5e3c407472a17401e4754bd0,66fc98d1559574b3ea396751,2024-10-02_01h50.42.100,mdp,2024.2.1,Win32,59.88023952,66fa4ebf79326e780c390304,,,,,,,,,,,,,,,,,,,,,1563.687,1563.6871,1563.6879,1564.6523,1,0,right,0.4464,,1564.6529,1566.2178,1,1,right,1566.2187,1567.6669,1,0,right,1,1567.6671,1567.6671,1567.6679,1569.1652,0,19,19,19,1,0.6,0.4,0.8,0.2,,,,,,,,,,,,,,,1.0332,,0.6,0.4,0.2,0.8,0.8,0.2,0.4,0.6,,,0.9163,,0.2,0.8,0.2,0.8,0.8,0.2,0.6,0.4,1,0
,,5e3c407472a17401e4754bd0,66fc98d1559574b3ea396751,2024-10-02_01h50.42.100,mdp,2024.2.1,Win32,59.88023952,66fa4ebf79326e780c390304,,,,,,,,,,,,,,,,,,,,,1569.1657,1569.1657,1569.1665,1570.0646,1,0,right,0.3752,,1570.0656,1571.5797,1,1,right,1571.5803,1573.5947,1,1,right,0,1573.5949,1573.5949,1573.5957,1575.0936,0,20,20,20,1,0.6,0.4,0.8,0.2,,,,,,,,,,,,,,,0.996,,0.6,0.4,0.2,0.8,0.8,0.2,0.4,0.6,,,1.489,,0.2,0.8,0.2,0.8,0.8,0.2,0.6,0.4,1,0
,,5e3c407472a17401e4754bd0,66fc98d1559574b3ea396751,2024-10-02_01h50.42.100,mdp,2024.2.1,Win32,59.88023952,66fa4ebf79326e780c390304,,,,,,,,,,,,,,,,,,,,,1575.0941,1575.0941,1575.0949,1576.0427,1,1,right,0.4165,,1576.0438,1578.1242,1,1,right,1578.125,1579.6896,1,1,right,0,1579.6896,1579.6896,1579.6906,1581.1881,0,21,21,21,1,0.6,0.4,0.8,0.2,,,,,,,,,,,,,,,1.5595,,0.6,0.4,0.2,0.8,0.6,0.4,0.2,0.8,,,1.0326,,0.2,0.8,0.2,0.8,0.8,0.2,0.6,0.4,1,0
,,5e3c407472a17401e4754bd0,66fc98d1559574b3ea396751,2024-10-02_01h50.42.100,mdp,2024.2.1,Win32,59.88023952,66fa4ebf79326e780c390304,,,,,,,,,,,,,,,,,,,,,1581.1885,1581.1885,1581.1894,1588.8314,1,0,right,7.1095,,1588.8386,1590.1469,1,1,right,1590.1478,1591.6788,1,0,right,1,1591.6789,1591.679,1591.6799,1593.1772,0,22,22,22,1,0.6,0.4,0.8,0.2,,,,,,,,,,,,,,,0.7856,,0.6,0.4,0.2,0.8,0.6,0.4,0.2,0.8,,,1.0099,,0.2,0.8,0.2,0.8,0.8,0.2,0.6,0.4,1,0
,,5e3c407472a17401e4754bd0,66fc98d1559574b3ea396751,2024-10-02_01h50.42.100,mdp,2024.2.1,Win32,59.88023952,66fa4ebf79326e780c390304,,,,,,,,,,,,,,,,,,,,,1593.1776,1593.1776,1593.1785,1594.3598,1,0,right,0.6589,,1594.3612,1595.8418,1,1,right,1595.8428,1597.3573,1,0,right,1,1597.3573,1597.3573,1597.3582,1598.856,0,23,23,23,1,0.6,0.4,0.8,0.2,,,,,,,,,,,,,,,0.9495,,0.6,0.4,0.2,0.8,0.6,0.4,0.2,0.8,,,0.9863,,0.2,0.8,0.2,0.8,0.8,0.2,0.6,0.4,1,0
,,5e3c407472a17401e4754bd0,66fc98d1559574b3ea396751,2024-10-02_01h50.42.100,mdp,2024.2.1,Win32,59.88023952,66fa4ebf79326e780c390304,,,,,,,,,,,,,,,,,,,,,1598.8563,1598.8563,1598.8571,1599.9716,1,0,right,0.5884,,1599.9725,1601.2369,1,1,right,1601.2381,1602.6026,1,1,right,0,1602.6026,1602.6026,1602.6036,1604.1012,0,24,24,24,1,0.6,0.4,0.8,0.2,,,,,,,,,,,,,,,0.7368,,0.6,0.4,0.2,0.8,0.6,0.4,0.2,0.8,,,0.8325,,0.2,0.8,0.2,0.8,0.6,0.4,0.4,0.6,1,0
,,5e3c407472a17401e4754bd0,66fc98d1559574b3ea396751,2024-10-02_01h50.42.100,mdp,2024.2.1,Win32,59.88023952,66fa4ebf79326e780c390304,,,,,,,,,,,,,,,,,,,,,1604.1015,1604.1015,1604.102,1604.9839,1,0,right,0.3511,,1604.9846,1606.0496,1,1,right,1606.0503,1607.9477,1,1,right,0,1607.9478,1607.9478,1607.9482,1609.4468,0,25,25,25,1,0.6,0.4,0.8,0.2,,,,,,,,,,,,,,,0.5329,,0.6,0.4,0.2,0.8,0.6,0.4,0.2,0.8,,,1.3791,,0.2,0.8,0.2,0.8,0.6,0.4,0.4,0.6,1,0
,,5e3c407472a17401e4754bd0,66fc98d1559574b3ea396751,2024-10-02_01h50.42.100,mdp,2024.2.1,Win32,59.88023952,66fa4ebf79326e780c390304,,,,,,,,,,,,,,,,,,,,,1609.4481,1609.4481,1609.4499,1669.3107,1,0,right,1.717,,1669.3185,1670.6428,1,1,right,1670.6437,1672.0083,1,1,right,0,1672.0084,1672.0084,1672.0095,1714.4511,0,26,26,26,1,0.6,0.4,0.8,0.2,,,,,,,,,,,,,,,0.8129,,0.6,0.4,0.2,0.8,0.4,0.6,0.6,0.4,,,0.8408,,0.2,0.8,0.2,0.8,0.6,0.4,0.4,0.6,1,0
,,5e3c407472a17401e4754bd0,66fc98d1559574b3ea396751,2024-10-02_01h50.42.100,mdp,2024.2.1,Win32,59.88023952,66fa4ebf79326e780c390304,,,,,,,,,,,,,,,,,,,,,1714.458,1714.458,1714.4588,1716.886,1,0,right,1.9012,,1716.887,1718.1515,1,1,right,1718.1523,1721.199,1,1,right,0,1721.1991,1721.1991,1721.2058,1722.6975,0,27,27,27,1,0.6,0.4,0.8,0.2,,,,,,,,,,,,,,,0.7339,,0.6,0.4,0.2,0.8,0.4,0.6,0.6,0.4,,,2.525,,0.2,0.8,0.2,0.8,0.6,0.4,0.4,0.6,1,0
,,5e3c407472a17401e4754bd0,66fc98d1559574b3ea396751,2024-10-02_01h50.42.100,mdp,2024.2.1,Win32,59.88023952,66fa4ebf79326e780c390304,,,,,,,,,,,,,,,,,,,,,1722.6977,1722.6977,1722.6983,1724.8455,1,0,right,1.6262,,1724.8465,1725.8948,1,1,right,1725.8956,1727.0936,0,0,left,1,1727.0936,1727.0936,1727.0945,1728.5922,0,28,28,28,1,0.6,0.4,0.8,0.2,,,,,,,,,,,,,,,0.5192,,0.6,0.4,0.2,0.8,0.4,0.6,0.6,0.4,,,0.6694,,0.2,0.8,0.2,0.8,0.6,0.4,0.4,0.6,1,0
,,5e3c407472a17401e4754bd0,66fc98d1559574b3ea396751,2024-10-02_01h50.42.100,mdp,2024.2.1,Win32,59.88023952,66fa4ebf79326e780c390304,,,,,,,,,,,,,,,,,,,,,1728.5927,1728.5927,1728.5935,1729.4081,1,0,right,0.2928,,1729.409,1730.4574,1,1,right,1730.4583,1732.3223,1,1,right,0,1732.3223,1732.3223,1732.323,1733.8209,0,29,29,29,1,0.6,0.4,0.8,0.2,,,,,,,,,,,,,,,0.5246,,0.6,0.4,0.2,0.8,0.4,0.6,0.6,0.4,,,1.3326,,0.2,0.8,0.2,0.8,0.6,0.4,0.4,0.6,1,0
,,5e3c407472a17401e4754bd0,66fc98d1559574b3ea396751,2024-10-02_01h50.42.100,mdp,2024.2.1,Win32,59.88023952,66fa4ebf79326e780c390304,,,,,,,,,,,,,,,,,,,,,1733.8213,1733.8213,1733.8221,1734.6701,1,0,right,0.3279,,1734.671,1735.6695,1,1,right,1735.6704,1737.0182,0,0,left,1,1737.0183,1737.0183,1737.0191,1738.5172,0,30,30,30,1,0.6,0.4,0.8,0.2,,,,,,,,,,,,,,,0.4707,,0.6,0.4,0.2,0.8,0.4,0.6,0.6,0.4,,,0.8168,,0.2,0.8,0.2,0.8,0.6,0.4,0.4,0.6,1,0
,,5e3c407472a17401e4754bd0,66fc98d1559574b3ea396751,2024-10-02_01h50.42.100,mdp,2024.2.1,Win32,59.88023952,66fa4ebf79326e780c390304,,,,,,,,,,,,,,,,,,,,,1738.5177,1738.5177,1738.5185,1739.4993,1,1,right,0.4635,,1739.5,1740.4824,1,0,right,1740.4833,1742.3967,0,1,left,0,1742.3968,1742.3968,1742.3974,1743.8957,0,31,31,31,1,0.6,0.4,0.8,0.2,,,,,,,,,,,,,,,0.4547,,0.6,0.4,0.2,0.8,0.4,0.6,0.6,0.4,,,1.393,,0.2,0.8,0.2,0.8,0.6,0.4,0.4,0.6,1,0
,,5e3c407472a17401e4754bd0,66fc98d1559574b3ea396751,2024-10-02_01h50.42.100,mdp,2024.2.1,Win32,59.88023952,66fa4ebf79326e780c390304,,,,,,,,,,,,,,,,,,,,,1743.8961,1743.8961,1743.8969,1745.2612,1,1,right,0.8453,,1745.2621,1746.9595,1,0,right,1746.9602,1748.1754,1,0,right,1,1748.1754,1748.1754,1748.1761,1749.6736,0,32,32,32,1,0.6,0.4,0.8,0.2,,,,,,,,,,,,,,,1.1666,,0.6,0.4,0.2,0.8,0.4,0.6,0.6,0.4,,,0.6847,,0.2,0.8,0.2,0.8,0.6,0.4,0.4,0.6,1,0
,,5e3c407472a17401e4754bd0,66fc98d1559574b3ea396751,2024-10-02_01h50.42.100,mdp,2024.2.1,Win32,59.88023952,66fa4ebf79326e780c390304,,,,,,,,,,,,,,,,,,,,,1749.6739,1749.6739,1749.6745,1750.6728,1,0,right,0.4666,,1750.6738,1752.1717,1,0,right,1752.1722,1754.0367,0,0,left,1,1754.0367,1754.0367,1754.0373,1755.5357,0,33,33,33,1,0.6,0.4,0.8,0.2,,,,,,,,,,,,,,,0.9772,,0.6,0.4,0.2,0.8,0.6,0.4,0.4,0.6,,,1.3386,,0.2,0.8,0.2,0.8,0.6,0.4,0.4,0.6,1,0
,,5e3c407472a17401e4754bd0,66fc98d1559574b3ea396751,2024-10-02_01h50.42.100,mdp,2024.2.1,Win32,59.88023952,66fa4ebf79326e780c390304,,,,,,,,,,,,,,,,,,,,,1755.536,1755.536,1755.537,1756.3349,1,0,right,0.2775,,1756.3358,1757.5835,1,0,right,1757.5844,1758.7995,0,1,left,0,1758.7995,1758.7995,1758.8002,1760.2976,0,34,34,34,1,0.6,0.4,0.8,0.2,,,,,,,,,,,,,,,0.7173,,0.6,0.4,0.2,0.8,0.6,0.4,0.4,0.6,,,0.6838,,0.2,0.8,0.2,0.8,0.6,0.4,0.4,0.6,1,0
,,5e3c407472a17401e4754bd0,66fc98d1559574b3ea396751,2024-10-02_01h50.42.100,mdp,2024.2.1,Win32,59.88023952,66fa4ebf79326e780c390304,,,,,,,,,,,,,,,,,,,,,1760.2979,1760.2979,1760.2985,1761.2469,1,0,right,0.4263,,1761.2478,1762.6295,1,1,right,1762.6302,1764.2778,1,1,right,0,1764.2779,1764.2779,1764.2788,1765.7766,0,35,35,35,1,0.2,0.8,0.6,0.4,,,,,,,,,,,,,,,0.8781,,0.6,0.4,0.2,0.8,0.6,0.4,0.4,0.6,,,1.1253,,0.2,0.8,0.2,0.8,0.6,0.4,0.4,0.6,1,0
,,5e3c407472a17401e4754bd0,66fc98d1559574b3ea396751,2024-10-02_01h50.42.100,mdp,2024.2.1,Win32,59.88023952,66fa4ebf79326e780c390304,,,,,,,,,,,,,,,,,,,,,1765.7769,1765.7769,1765.7775,1766.9587,1,0,right,0.6603,,1766.9594,1768.0248,1,1,right,1768.0257,1769.6561,0,0,left,1,1769.6561,1769.6561,1769.6567,1771.155,0,36,36,36,1,0.2,0.8,0.6,0.4,,,,,,,,,,,,,,,0.5418,,0.6,0.4,0.2,0.8,0.6,0.4,0.4,0.6,,,1.0995,,0.2,0.8,0.2,0.8,0.6,0.4,0.4,0.6,1,0
,,5e3c407472a17401e4754bd0,66fc98d1559574b3ea396751,2024-10-02_01h50.42.100,mdp,2024.2.1,Win32,59.88023952,66fa4ebf79326e780c390304,,,,,,,,,,,,,,,,,,,,,1771.1553,1771.1553,1771.1562,1772.0207,1,1,right,0.3459,,1772.0216,1774.5189,1,0,right,1774.5264,1776.4339,1,0,right,1,1776.4339,1776.4339,1776.4347,1777.9329,0,37,37,37,1,0.2,0.8,0.6,0.4,,,,,,,,,,,,,,,1.9654,,0.6,0.4,0.2,0.8,0.6,0.4,0.4,0.6,,,1.3874,,0.2,0.8,0.2,0.8,0.6,0.4,0.4,0.6,1,0
,,5e3c407472a17401e4754bd0,66fc98d1559574b3ea396751,2024-10-02_01h50.42.100,mdp,2024.2.1,Win32,59.88023952,66fa4ebf79326e780c390304,,,,,,,,,,,,,,,,,,,,,1777.9332,1777.9332,1777.9342,1779.2313,1,0,right,0.7771,,1779.2321,1780.6133,1,1,right,1780.6143,1782.3119,1,1,right,0,1782.3119,1782.3119,1782.3125,1783.8105,0,38,38,38,1,0.2,0.8,0.6,0.4,,,,,,,,,,,,,,,0.8589,,0.6,0.4,0.2,0.8,0.6,0.4,0.4,0.6,,,1.1652,,0.2,0.8,0.2,0.8,0.6,0.4,0.4,0.6,1,0
,,5e3c407472a17401e4754bd0,66fc98d1559574b3ea396751,2024-10-02_01h50.42.100,mdp,2024.2.1,Win32,59.88023952,66fa4ebf79326e780c390304,,,,,,,,,,,,,,,,,,,,,1783.8108,1783.8108,1783.8115,1784.76,1,0,right,0.4176,,1784.7607,1785.9088,1,1,right,1785.91,1787.3407,1,0,right,1,1787.3408,1787.3408,1787.3415,1788.8399,0,39,39,39,1,0.2,0.8,0.6,0.4,,,,,,,,,,,,,,,0.6208,,0.6,0.4,0.2,0.8,0.6,0.4,0.4,0.6,,,0.9035,,0.2,0.8,0.2,0.8,0.6,0.4,0.4,0.6,1,0
,,5e3c407472a17401e4754bd0,66fc98d1559574b3ea396751,2024-10-02_01h50.42.100,mdp,2024.2.1,Win32,59.88023952,66fa4ebf79326e780c390304,,,,,,,,,,,,,,,,,,,,,1788.8404,1788.8404,1788.8415,1789.8056,1,1,right,0.4362,,1789.8065,1791.6704,1,1,right,1791.6713,1793.0193,1,1,right,0,1793.0194,1793.0194,1793.0201,1794.5179,0,40,40,40,1,0.2,0.8,0.6,0.4,,,,,,,,,,,,,,,1.3415,,0.6,0.4,0.2,0.8,0.6,0.4,0.4,0.6,,,0.822,,0.2,0.8,0.2,0.8,0.6,0.4,0.4,0.6,1,0
,,5e3c407472a17401e4754bd0,66fc98d1559574b3ea396751,2024-10-02_01h50.42.100,mdp,2024.2.1,Win32,59.88023952,66fa4ebf79326e780c390304,,,,,,,,,,,,,,,,,,,,,1794.5182,1794.5182,1794.5189,1795.4671,1,1,right,0.4301,,1795.4677,1797.382,1,1,right,1797.3827,1799.4473,1,1,right,0,1799.4475,1799.4475,1799.4485,1800.946,0,41,41,41,1,0.2,0.8,0.6,0.4,,,,,,,,,,,,,,,1.3844,,0.6,0.4,0.2,0.8,0.6,0.4,0.4,0.6,,,1.5427,,0.2,0.8,0.2,0.8,0.6,0.4,0.4,0.6,1,0
,,5e3c407472a17401e4754bd0,66fc98d1559574b3ea396751,2024-10-02_01h50.42.100,mdp,2024.2.1,Win32,59.88023952,66fa4ebf79326e780c390304,,,,,,,,,,,,,,,,,,,,,1800.9464,1800.9464,1800.947,1801.8782,1,0,right,0.4028,,1801.8792,1803.1603,1,1,right,1803.1612,1804.4594,0,1,left,0,1804.4594,1804.4594,1804.4604,1805.958,0,42,42,42,1,0.2,0.8,0.6,0.4,,,,,,,,,,,,,,,0.7557,,0.6,0.4,0.2,0.8,0.6,0.4,0.4,0.6,,,0.7808,,0.4,0.6,0.8,0.2,0.6,0.4,0.4,0.6,1,0
,,5e3c407472a17401e4754bd0,66fc98d1559574b3ea396751,2024-10-02_01h50.42.100,mdp,2024.2.1,Win32,59.88023952,66fa4ebf79326e780c390304,,,,,,,,,,,,,,,,,,,,,1805.9584,1805.9584,1805.9594,1806.7404,1,1,right,0.2557,,1806.7413,1808.4394,1,1,right,1808.4402,1809.7049,1,1,right,0,1809.705,1809.705,1809.7058,1811.2034,0,43,43,43,1,0.2,0.8,0.6,0.4,,,,,,,,,,,,,,,1.1653,,0.6,0.4,0.2,0.8,0.6,0.4,0.4,0.6,,,0.7468,,0.4,0.6,0.8,0.2,0.6,0.4,0.4,0.6,1,0
,,5e3c407472a17401e4754bd0,66fc98d1559574b3ea396751,2024-10-02_01h50.42.100,mdp,2024.2.1,Win32,59.88023952,66fa4ebf79326e780c390304,,,,,,,,,,,,,,,,,,,,,1811.2039,1811.2039,1811.2049,1812.419,1,1,right,0.6829,,1812.4205,1814.3172,1,0,right,1814.318,1816.1158,1,1,right,0,1816.1159,1816.1159,1816.1168,1817.6147,0,44,44,44,1,0.2,0.8,0.6,0.4,,,,,,,,,,,,,,,1.3778,,0.6,0.4,0.2,0.8,0.6,0.4,0.4,0.6,,,1.2696,,0.4,0.6,0.8,0.2,0.6,0.4,0.4,0.6,1,0
,,5e3c407472a17401e4754bd0,66fc98d1559574b3ea396751,2024-10-02_01h50.42.100,mdp,2024.2.1,Win32,59.88023952,66fa4ebf79326e780c390304,,,,,,,,,,,,,,,,,,,,,1817.6152,1817.6152,1817.616,1818.4968,1,0,right,0.3578,,1818.4978,1819.6625,1,1,right,1819.6634,1820.845,0,0,left,1,1820.8451,1820.8451,1820.8459,1822.3434,0,45,45,45,1,0.2,0.8,0.6,0.4,,,,,,,,,,,,,,,0.6328,,0.6,0.4,0.2,0.8,0.6,0.4,0.4,0.6,,,0.6582,,0.4,0.6,0.8,0.2,0.4,0.6,0.8,0.2,1,0
,,5e3c407472a17401e4754bd0,66fc98d1559574b3ea396751,2024-10-02_01h50.42.100,mdp,2024.2.1,Win32,59.88023952,66fa4ebf79326e780c390304,,,,,,,,,,,,,,,,,,,,,1822.3438,1822.3438,1822.3446,1823.426,1,0,right,0.5497,,1823.427,1825.2644,1,1,right,1825.2653,1826.3068,0,1,left,0,1826.3069,1826.3069,1826.3075,1827.8054,0,46,46,46,1,0.2,0.8,0.6,0.4,,,,,,,,,,,,,,,1.3197,0.0002,0.6,0.4,0.2,0.8,0.4,0.6,0.8,0.2,,,0.5305,,0.4,0.6,0.8,0.2,0.4,0.6,0.8,0.2,1,0
,,5e3c407472a17401e4754bd0,66fc98d1559574b3ea396751,2024-10-02_01h50.42.100,mdp,2024.2.1,Win32,59.88023952,66fa4ebf79326e780c390304,,,,,,,,,,,,,,,,,,,,,1827.8059,1827.8059,1827.8068,1828.7212,1,0,right,0.3831,,1828.7219,1829.8203,1,1,right,1829.8209,1831.1193,1,0,right,1,1831.1194,1831.1194,1831.12,1832.6179,0,47,47,47,1,0.2,0.8,0.6,0.4,,,,,,,,,,,,,,,0.5791,,0.6,0.4,0.2,0.8,0.8,0.2,0.4,0.6,,,0.7671,,0.4,0.6,0.8,0.2,0.4,0.6,0.8,0.2,1,0
,,5e3c407472a17401e4754bd0,66fc98d1559574b3ea396751,2024-10-02_01h50.42.100,mdp,2024.2.1,Win32,59.88023952,66fa4ebf79326e780c390304,,,,,,,,,,,,,,,,,,,,,1832.6184,1832.6184,1832.6193,1833.6672,1,0,right,0.5165,,1833.6681,1834.8166,1,1,right,1834.8175,1836.5976,0,0,left,1,1836.5977,1836.5977,1836.5984,1838.0963,0,48,48,48,1,0.2,0.8,0.6,0.4,,,,,,,,,,,,,,,0.6248,,0.6,0.4,0.2,0.8,0.8,0.2,0.4,0.6,,,1.2521,,0.4,0.6,0.8,0.2,0.4,0.6,0.8,0.2,1,0
,,5e3c407472a17401e4754bd0,66fc98d1559574b3ea396751,2024-10-02_01h50.42.100,mdp,2024.2.1,Win32,59.88023952,66fa4ebf79326e780c390304,,,,,,,,,,,,,,,,,,,,,1838.0967,1838.0967,1838.0975,1839.0622,1,0,right,0.4445,,1839.0631,1840.3281,1,1,right,1840.3287,1842.1765,1,0,right,1,1842.1765,1842.1765,1842.1774,1843.675,0,49,49,49,1,0.2,0.8,0.6,0.4,,,,,,,,,,,,,,,0.7419,,0.6,0.4,0.2,0.8,0.8,0.2,0.4,0.6,,,1.3163,,0.4,0.6,0.8,0.2,0.4,0.6,0.8,0.2,1,0
,,5e3c407472a17401e4754bd0,66fc98d1559574b3ea396751,2024-10-02_01h50.42.100,mdp,2024.2.1,Win32,59.88023952,66fa4ebf79326e780c390304,,,,,,,,,,,,,,,,,,,,,,,,,,,,,,,,,,,,,,,,,,,,,,,,,,,,,,,,1843.6751,1957.6018,0,2,2,1,1,imgs/giraffe.png,imgs/cat.png,imgs/squirrel.png,imgs/lion.png,imgs/rabbit.png,,,,,,,,,,,,,,,,,,,,,,,,
,,5e3c407472a17401e4754bd0,66fc98d1559574b3ea396751,2024-10-02_01h50.42.100,mdp,2024.2.1,Win32,59.88023952,66fa4ebf79326e780c390304,,,,,,,,,,,,,,3,seqs/st3seq19.csv,1957.6079,1958.9076,space,0.7957,,1958.9121,1958.9121,1958.9127,1961.1221,1,1,right,1.6828,,1961.1228,1963.2201,1,1,right,1963.2207,1964.5857,1,0,right,1,1964.5857,1964.5857,1964.5864,1966.0846,0,0,0,0,1,0.8,0.2,0.4,0.6,,,,,,,,,,,,,,,1.5783,,0.4,0.6,0.6,0.4,0.8,0.2,0.4,0.6,,,0.8401,,0.6,0.4,0.2,0.8,0.8,0.2,0.8,0.2,1,0
,,5e3c407472a17401e4754bd0,66fc98d1559574b3ea396751,2024-10-02_01h50.42.100,mdp,2024.2.1,Win32,59.88023952,66fa4ebf79326e780c390304,,,,,,,,,,,,,,,,,,,,,1966.0852,1966.0852,1966.0861,1973.0951,1,0,right,6.4794,,1973.1025,1974.544,1,1,right,1974.545,1975.6759,1,0,right,1,1975.6759,1975.6759,1975.6766,1977.175,0,1,1,1,1,0.8,0.2,0.4,0.6,,,,,,,,,,,,,,,0.916,,0.4,0.6,0.6,0.4,0.8,0.2,0.4,0.6,,,0.6125,,0.6,0.4,0.2,0.8,0.8,0.2,0.8,0.2,1,0
,,5e3c407472a17401e4754bd0,66fc98d1559574b3ea396751,2024-10-02_01h50.42.100,mdp,2024.2.1,Win32,59.88023952,66fa4ebf79326e780c390304,,,,,,,,,,,,,,,,,,,,,1977.1754,1977.1754,1977.1762,1977.9576,1,1,right,0.2534,,1977.9585,1979.2731,0,0,left,1979.274,1980.6716,0,0,left,1,1980.6717,1980.6717,1980.6725,1982.1703,0,2,2,2,1,0.8,0.2,0.4,0.6,,,,,,,,,,,,,,,0.7891,,0.4,0.6,0.6,0.4,0.8,0.2,0.4,0.6,,,0.8709,,0.6,0.4,0.2,0.8,0.8,0.2,0.8,0.2,1,0
,,5e3c407472a17401e4754bd0,66fc98d1559574b3ea396751,2024-10-02_01h50.42.100,mdp,2024.2.1,Win32,59.88023952,66fa4ebf79326e780c390304,,,,,,,,,,,,,,,,,,,,,1982.1707,1982.1707,1982.1713,1983.2527,1,1,right,0.5535,,1983.2538,1984.4516,1,1,right,1984.4522,1986.0835,1,0,right,1,1986.0836,1986.0836,1986.0844,1987.5823,0,3,3,3,1,0.8,0.2,0.4,0.6,,,,,,,,,,,,,,,0.6792,,0.4,0.6,0.6,0.4,0.8,0.2,0.4,0.6,,,1.1105,,0.6,0.4,0.2,0.8,0.8,0.2,0.8,0.2,1,0
,,5e3c407472a17401e4754bd0,66fc98d1559574b3ea396751,2024-10-02_01h50.42.100,mdp,2024.2.1,Win32,59.88023952,66fa4ebf79326e780c390304,,,,,,,,,,,,,,,,,,,,,1987.5827,1987.5827,1987.5838,1988.6647,1,1,right,0.5498,,1988.6654,1989.7641,1,1,right,1989.765,1990.9462,1,0,right,1,1990.9463,1990.9463,1990.947,1992.445,0,4,4,4,1,0.8,0.2,0.4,0.6,,,,,,,,,,,,,,,0.5708,,0.4,0.6,0.6,0.4,0.8,0.2,0.4,0.6,,,0.6498,,0.6,0.4,0.2,0.8,0.8,0.2,0.8,0.2,1,0
,,5e3c407472a17401e4754bd0,66fc98d1559574b3ea396751,2024-10-02_01h50.42.100,mdp,2024.2.1,Win32,59.88023952,66fa4ebf79326e780c390304,,,,,,,,,,,,,,,,,,,,,1992.4454,1992.4454,1992.446,1993.5271,1,1,right,0.5504,,1993.5281,1994.8261,1,0,right,1994.8269,1996.3412,0,1,left,0,1996.3413,1996.3413,1996.3417,1997.84,0,5,5,5,1,0.8,0.2,0.4,0.6,,,,,,,,,,,,,,,0.7732,,0.4,0.6,0.6,0.4,0.8,0.2,0.4,0.6,,,0.992,,0.2,0.8,0.6,0.4,0.8,0.2,0.8,0.2,1,0
,,5e3c407472a17401e4754bd0,66fc98d1559574b3ea396751,2024-10-02_01h50.42.100,mdp,2024.2.1,Win32,59.88023952,66fa4ebf79326e780c390304,,,,,,,,,,,,,,,,,,,,,1997.8403,1997.8403,1997.8408,1998.7391,1,1,right,0.3722,,1998.7399,2000.4211,1,1,right,2000.422,2001.9535,1,0,right,1,2001.9536,2001.9536,2001.9545,2003.4516,0,6,6,6,1,0.8,0.2,0.4,0.6,,,,,,,,,,,,,,,1.1524,,0.4,0.6,0.6,0.4,0.8,0.2,0.4,0.6,,,0.9973,,0.2,0.8,0.6,0.4,0.8,0.2,0.8,0.2,1,0
,,5e3c407472a17401e4754bd0,66fc98d1559574b3ea396751,2024-10-02_01h50.42.100,mdp,2024.2.1,Win32,59.88023952,66fa4ebf79326e780c390304,,,,,,,,,,,,,,,,,,,,,2003.4519,2003.4519,2003.4525,2019.7875,1,0,right,15.8088,,2019.7951,2021.4694,0,1,left,2021.4702,2022.7515,1,0,right,1,2022.7515,2022.7515,2022.7522,2024.2502,0,7,7,7,1,0.8,0.2,0.4,0.6,,,,,,,,,,,,,,,1.151,,0.4,0.6,0.6,0.4,0.8,0.2,0.4,0.6,,,0.7505,,0.2,0.8,0.6,0.4,0.8,0.2,0.8,0.2,1,0
,,5e3c407472a17401e4754bd0,66fc98d1559574b3ea396751,2024-10-02_01h50.42.100,mdp,2024.2.1,Win32,59.88023952,66fa4ebf79326e780c390304,,,,,,,,,,,,,,,,,,,,,2024.2506,2024.2506,2024.2511,2025.4992,1,1,right,0.7164,,2025.5002,2027.1144,1,0,right,2027.1152,2028.4963,0,1,left,0,2028.4963,2028.4963,2028.4969,2029.9954,0,8,8,8,1,0.8,0.2,0.4,0.6,,,,,,,,,,,,,,,1.0811,,0.4,0.6,0.6,0.4,0.8,0.2,0.4,0.6,,,0.8561,,0.2,0.8,0.6,0.4,0.8,0.2,0.8,0.2,1,0
,,5e3c407472a17401e4754bd0,66fc98d1559574b3ea396751,2024-10-02_01h50.42.100,mdp,2024.2.1,Win32,59.88023952,66fa4ebf79326e780c390304,,,,,,,,,,,,,,,,,,,,,2029.9958,2029.9958,2029.9966,2031.2106,1,0,right,0.6829,,2031.2112,2034.9908,1,0,right,2034.9984,2036.3393,0,0,left,1,2036.3394,2036.3394,2036.34,2037.8384,0,9,9,9,1,0.8,0.2,0.4,0.6,,,,,,,,,,,,,,,3.2545,,0.4,0.6,0.6,0.4,0.8,0.2,0.4,0.6,,,0.8293,,0.2,0.8,0.6,0.4,0.8,0.2,0.8,0.2,1,0
,,5e3c407472a17401e4754bd0,66fc98d1559574b3ea396751,2024-10-02_01h50.42.100,mdp,2024.2.1,Win32,59.88023952,66fa4ebf79326e780c390304,,,,,,,,,,,,,,,,,,,,,2037.8388,2037.8388,2037.8398,2038.8044,1,1,right,0.4379,,2038.805,2039.9031,1,0,right,2039.9036,2041.8679,0,1,left,0,2041.868,2041.868,2041.8686,2043.3666,0,10,10,10,1,0.8,0.2,0.4,0.6,,,,,,,,,,,,,,,0.574,,0.4,0.6,0.6,0.4,0.4,0.6,0.6,0.4,,,1.4445,,0.2,0.8,0.6,0.4,0.8,0.2,0.8,0.2,1,0
,,5e3c407472a17401e4754bd0,66fc98d1559574b3ea396751,2024-10-02_01h50.42.100,mdp,2024.2.1,Win32,59.88023952,66fa4ebf79326e780c390304,,,,,,,,,,,,,,,,,,,,,2043.367,2043.367,2043.3678,2044.4326,1,1,right,0.5335,,2044.4334,2045.7648,1,0,right,2045.7654,2047.347,1,1,right,0,2047.3471,2047.3471,2047.3479,2048.8456,0,11,11,11,1,0.8,0.2,0.4,0.6,,,,,,,,,,,,,,,0.8035,,0.4,0.6,0.6,0.4,0.4,0.6,0.6,0.4,,,1.0545,,0.2,0.8,0.6,0.4,0.8,0.2,0.8,0.2,1,0
,,5e3c407472a17401e4754bd0,66fc98d1559574b3ea396751,2024-10-02_01h50.42.100,mdp,2024.2.1,Win32,59.88023952,66fa4ebf79326e780c390304,,,,,,,,,,,,,,,,,,,,,2048.846,2048.846,2048.847,2083.0818,1,0,right,33.7054,,2083.0895,2084.8302,0,0,left,2084.8309,2087.0453,1,1,right,0,2087.0454,2087.0454,2087.0462,2120.1926,0,12,12,12,1,0.8,0.2,0.4,0.6,,,,,,,,,,,,,,,1.2139,,0.4,0.6,0.6,0.4,0.4,0.6,0.6,0.4,,,1.6853,,0.2,0.8,0.6,0.4,0.2,0.8,0.4,0.6,1,0
,,5e3c407472a17401e4754bd0,66fc98d1559574b3ea396751,2024-10-02_01h50.42.100,mdp,2024.2.1,Win32,59.88023952,66fa4ebf79326e780c390304,,,,,,,,,,,,,,,,,,,,,2120.193,2120.193,2120.194,2121.8812,1,1,right,1.1725,,2121.8821,2123.6965,1,0,right,2123.6972,2125.0117,0,1,left,0,2125.0118,2125.0118,2125.0121,2126.5109,0,13,13,13,1,0.8,0.2,0.4,0.6,,,,,,,,,,,,,,,1.2783,,0.4,0.6,0.6,0.4,0.4,0.6,0.6,0.4,,,0.7951,,0.2,0.8,0.6,0.4,0.2,0.8,0.4,0.6,1,0
,,5e3c407472a17401e4754bd0,66fc98d1559574b3ea396751,2024-10-02_01h50.42.100,mdp,2024.2.1,Win32,59.88023952,66fa4ebf79326e780c390304,,,,,,,,,,,,,,,,,,,,,2126.5113,2126.5113,2126.5116,2127.2435,1,1,right,0.2054,,2127.2441,2128.4925,1,0,right,2128.4933,2129.8584,1,1,right,0,2129.8585,2129.8586,2129.8594,2131.3565,0,14,14,14,1,0.8,0.2,0.4,0.6,,,,,,,,,,,,,,,0.7195,,0.4,0.6,0.6,0.4,0.4,0.6,0.6,0.4,,,0.8398,,0.2,0.8,0.6,0.4,0.2,0.8,0.4,0.6,1,0
,,5e3c407472a17401e4754bd0,66fc98d1559574b3ea396751,2024-10-02_01h50.42.100,mdp,2024.2.1,Win32,59.88023952,66fa4ebf79326e780c390304,,,,,,,,,,,,,,,,,,,,,2131.3569,2131.3569,2131.3578,2132.2723,1,1,right,0.3848,,2132.2739,2133.5044,1,0,right,2133.505,2134.87,0,1,left,0,2134.8701,2134.8701,2134.8709,2136.3686,0,15,15,15,1,0.8,0.2,0.4,0.6,,,,,,,,,,,,,,,0.708,,0.4,0.6,0.6,0.4,0.4,0.6,0.6,0.4,,,0.8353,,0.2,0.8,0.6,0.4,0.2,0.8,0.4,0.6,1,0
,,5e3c407472a17401e4754bd0,66fc98d1559574b3ea396751,2024-10-02_01h50.42.100,mdp,2024.2.1,Win32,59.88023952,66fa4ebf79326e780c390304,,,,,,,,,,,,,,,,,,,,,2136.369,2136.369,2136.3699,2137.1844,1,1,right,0.2918,,2137.185,2138.4167,1,0,right,2138.4176,2139.749,1,0,right,1,2139.749,2139.749,2139.7496,2141.248,0,16,16,16,1,0.8,0.2,0.4,0.6,,,,,,,,,,,,,,,0.7078,,0.4,0.6,0.6,0.4,0.2,0.8,0.8,0.2,,,0.8117,,0.2,0.8,0.6,0.4,0.2,0.8,0.4,0.6,1,0
,,5e3c407472a17401e4754bd0,66fc98d1559574b3ea396751,2024-10-02_01h50.42.100,mdp,2024.2.1,Win32,59.88023952,66fa4ebf79326e780c390304,,,,,,,,,,,,,,,,,,,,,2141.2484,2141.2484,2141.2493,2142.0637,1,1,right,0.2924,,2142.0647,2143.2793,1,0,right,2143.2803,2144.8946,0,1,left,0,2144.8947,2144.8947,2144.8956,2146.3932,0,17,17,17,1,0.8,0.2,0.4,0.6,,,,,,,,,,,,,,,0.6918,,0.4,0.6,0.6,0.4,0.2,0.8,0.8,0.2,,,1.0844,,0.2,0.8,0.6,0.4,0.2,0.8,0.4,0.6,1,0
,,5e3c407472a17401e4754bd0,66fc98d1559574b3ea396751,2024-10-02_01h50.42.100,mdp,2024.2.1,Win32,59.88023952,66fa4ebf79326e780c390304,,,,,,,,,,,,,,,,,,,,,2146.3936,2146.3936,2146.3948,2147.3428,1,0,right,0.4182,,2147.3438,2149.0742,1,1,right,2149.0749,2150.59,1,0,right,1,2150.5902,2150.5902,2150.5911,2152.0882,0,18,18,18,1,0.4,0.6,0.8,0.2,,,,,,,,,,,,,,,1.1973,,0.4,0.6,0.6,0.4,0.2,0.8,0.8,0.2,,,0.9908,,0.2,0.8,0.6,0.4,0.2,0.8,0.4,0.6,1,0
,,5e3c407472a17401e4754bd0,66fc98d1559574b3ea396751,2024-10-02_01h50.42.100,mdp,2024.2.1,Win32,59.88023952,66fa4ebf79326e780c390304,,,,,,,,,,,,,,,,,,,,,2152.0885,2152.0885,2152.089,2153.0039,1,0,right,0.3963,,2153.0048,2154.5192,0,1,left,2154.5199,2155.752,1,1,right,0,2155.7521,2155.7521,2155.753,2157.2503,0,19,19,19,1,0.4,0.6,0.8,0.2,,,,,,,,,,,,,,,0.9917,,0.4,0.6,0.6,0.4,0.4,0.6,0.4,0.6,,,0.7002,,0.2,0.8,0.6,0.4,0.2,0.8,0.4,0.6,1,0
,,5e3c407472a17401e4754bd0,66fc98d1559574b3ea396751,2024-10-02_01h50.42.100,mdp,2024.2.1,Win32,59.88023952,66fa4ebf79326e780c390304,,,,,,,,,,,,,,,,,,,,,2157.2508,2157.2508,2157.2512,2158.2327,1,0,right,0.458,,2158.2337,2159.4985,1,1,right,2159.4992,2160.681,1,1,right,0,2160.6812,2160.6812,2160.682,2162.1797,0,20,20,20,1,0.4,0.6,0.8,0.2,,,,,,,,,,,,,,,0.7323,,0.4,0.6,0.6,0.4,0.6,0.4,0.8,0.2,,,0.6498,,0.2,0.8,0.6,0.4,0.2,0.8,0.4,0.6,1,0
,,5e3c407472a17401e4754bd0,66fc98d1559574b3ea396751,2024-10-02_01h50.42.100,mdp,2024.2.1,Win32,59.88023952,66fa4ebf79326e780c390304,,,,,,,,,,,,,,,,,,,,,2162.1802,2162.1803,2162.1811,2163.4616,1,0,right,0.7605,,2163.4627,2164.594,0,1,left,2164.5949,2165.627,1,1,right,0,2165.6271,2165.6271,2165.6285,2167.1251,0,21,21,21,1,0.4,0.6,0.8,0.2,,,,,,,,,,,,,,,0.6066,,0.4,0.6,0.6,0.4,0.6,0.4,0.8,0.2,,,0.5065,,0.2,0.8,0.6,0.4,0.2,0.8,0.4,0.6,1,0
,,5e3c407472a17401e4754bd0,66fc98d1559574b3ea396751,2024-10-02_01h50.42.100,mdp,2024.2.1,Win32,59.88023952,66fa4ebf79326e780c390304,,,,,,,,,,,,,,,,,,,,,2167.1254,2167.1254,2167.1262,2168.2578,1,0,right,0.6069,,2168.2588,2169.523,1,0,right,2169.524,2170.4559,0,1,left,0,2170.456,2170.456,2170.4567,2171.954,0,22,22,22,1,0.4,0.6,0.8,0.2,,,,,,,,,,,,,,,0.7385,,0.4,0.6,0.6,0.4,0.6,0.4,0.8,0.2,,,0.4075,,0.2,0.8,0.6,0.4,0.2,0.8,0.4,0.6,1,0
,,5e3c407472a17401e4754bd0,66fc98d1559574b3ea396751,2024-10-02_01h50.42.100,mdp,2024.2.1,Win32,59.88023952,66fa4ebf79326e780c390304,,,,,,,,,,,,,,,,,,,,,2171.9542,2171.9542,2171.9548,2172.7705,1,0,right,0.2892,,2172.7711,2173.8858,1,1,right,2173.8868,2175.734,1,1,right,0,2175.7341,2175.7341,2175.735,2177.2326,0,23,23,23,1,0.4,0.6,0.8,0.2,,,,,,,,,,,,,,,0.5854,,0.4,0.6,0.6,0.4,0.6,0.4,0.8,0.2,,,1.3241,,0.2,0.8,0.6,0.4,0.2,0.8,0.4,0.6,1,0
,,5e3c407472a17401e4754bd0,66fc98d1559574b3ea396751,2024-10-02_01h50.42.100,mdp,2024.2.1,Win32,59.88023952,66fa4ebf79326e780c390304,,,,,,,,,,,,,,,,,,,,,2177.233,2177.233,2177.2339,2178.5315,1,0,right,0.7791,,2178.5322,2179.5141,0,0,left,2179.5149,2181.2465,0,0,left,1,2181.2466,2181.2466,2181.2475,2182.7446,0,24,24,24,1,0.4,0.6,0.8,0.2,,,,,,,,,,,,,,,0.456,,0.4,0.6,0.6,0.4,0.6,0.4,0.8,0.2,,,1.2074,,0.2,0.8,0.6,0.4,0.2,0.8,0.4,0.6,1,0
,,5e3c407472a17401e4754bd0,66fc98d1559574b3ea396751,2024-10-02_01h50.42.100,mdp,2024.2.1,Win32,59.88023952,66fa4ebf79326e780c390304,,,,,,,,,,,,,,,,,,,,,2182.745,2182.745,2182.7459,2183.6105,1,1,right,0.3474,,2183.6112,2185.1592,1,0,right,2185.1601,2186.4747,0,1,left,0,2186.4748,2186.4748,2186.4755,2187.9735,0,25,25,25,1,0.2,0.8,0.4,0.6,,,,,,,,,,,,,,,1.0151,,0.4,0.6,0.6,0.4,0.6,0.4,0.8,0.2,,,0.797,,0.2,0.8,0.6,0.4,0.2,0.8,0.4,0.6,1,0
,,5e3c407472a17401e4754bd0,66fc98d1559574b3ea396751,2024-10-02_01h50.42.100,mdp,2024.2.1,Win32,59.88023952,66fa4ebf79326e780c390304,,,,,,,,,,,,,,,,,,,,,2187.9738,2187.9738,2187.9745,2188.9224,1,0,right,0.4162,,2188.9231,2190.438,0,1,left,2190.4389,2191.6536,0,1,left,0,2191.6536,2191.6536,2191.6546,2193.1521,0,26,26,26,1,0.2,0.8,0.4,0.6,,,,,,,,,,,,,,,0.9823,,0.4,0.6,0.6,0.4,0.6,0.4,0.8,0.2,,,0.6931,,0.2,0.8,0.6,0.4,0.2,0.8,0.4,0.6,1,0
,,5e3c407472a17401e4754bd0,66fc98d1559574b3ea396751,2024-10-02_01h50.42.100,mdp,2024.2.1,Win32,59.88023952,66fa4ebf79326e780c390304,,,,,,,,,,,,,,,,,,,,,2193.1523,2193.1523,2193.153,2194.1182,1,1,right,0.4437,,2194.1192,2195.4668,1,1,right,2195.4678,2196.7658,1,0,right,1,2196.7659,2196.7659,2196.7669,2198.2643,0,27,27,27,1,0.2,0.8,0.4,0.6,,,,,,,,,,,,,,,0.8269,,0.4,0.6,0.6,0.4,0.6,0.4,0.8,0.2,,,0.7689,,0.2,0.8,0.6,0.4,0.2,0.8,0.4,0.6,1,0
,,5e3c407472a17401e4754bd0,66fc98d1559574b3ea396751,2024-10-02_01h50.42.100,mdp,2024.2.1,Win32,59.88023952,66fa4ebf79326e780c390304,,,,,,,,,,,,,,,,,,,,,2198.2646,2198.2646,2198.2652,2199.6137,1,0,right,0.828,,2199.6147,2201.1787,1,0,right,2201.1794,2202.4941,1,0,right,1,2202.4943,2202.4943,2202.4949,2203.9927,0,28,28,28,1,0.2,0.8,0.4,0.6,,,,,,,,,,,,,,,1.0449,,0.4,0.6,0.6,0.4,0.6,0.4,0.8,0.2,,,0.7834,,0.2,0.8,0.6,0.4,0.2,0.8,0.4,0.6,1,0
,,5e3c407472a17401e4754bd0,66fc98d1559574b3ea396751,2024-10-02_01h50.42.100,mdp,2024.2.1,Win32,59.88023952,66fa4ebf79326e780c390304,,,,,,,,,,,,,,,,,,,,,2203.9932,2203.9932,2203.9939,2219.7293,1,1,right,15.2038,,2219.73,2221.2277,1,0,right,2221.2285,2222.6101,0,0,left,1,2222.6102,2222.6102,2222.6111,2224.1087,0,29,29,29,1,0.2,0.8,0.4,0.6,,,,,,,,,,,,,,,0.9691,,0.4,0.6,0.6,0.4,0.6,0.4,0.8,0.2,,,0.856,,0.2,0.8,0.6,0.4,0.2,0.8,0.4,0.6,1,0
,,5e3c407472a17401e4754bd0,66fc98d1559574b3ea396751,2024-10-02_01h50.42.100,mdp,2024.2.1,Win32,59.88023952,66fa4ebf79326e780c390304,,,,,,,,,,,,,,,,,,,,,2224.1092,2224.1092,2224.1099,2224.9578,1,0,right,0.3193,,2224.9585,2226.3231,0,1,left,2226.3236,2227.6722,0,1,left,0,2227.6722,2227.6722,2227.673,2229.1708,0,30,30,30,1,0.2,0.8,0.4,0.6,,,,,,,,,,,,,,,0.8438,,0.4,0.6,0.6,0.4,0.6,0.4,0.8,0.2,,,0.8222,,0.2,0.8,0.6,0.4,0.2,0.8,0.4,0.6,1,0
,,5e3c407472a17401e4754bd0,66fc98d1559574b3ea396751,2024-10-02_01h50.42.100,mdp,2024.2.1,Win32,59.88023952,66fa4ebf79326e780c390304,,,,,,,,,,,,,,,,,,,,,2229.1712,2229.1712,2229.172,2230.1865,1,0,right,0.4971,,2230.1873,2231.8351,0,0,left,2231.8357,2233.4505,0,1,left,0,2233.4505,2233.4505,2233.451,2234.9493,0,31,31,31,1,0.2,0.8,0.4,0.6,,,,,,,,,,,,,,,1.1211,,0.4,0.6,0.6,0.4,0.6,0.4,0.8,0.2,,,1.094,,0.2,0.8,0.6,0.4,0.2,0.8,0.4,0.6,1,0
,,5e3c407472a17401e4754bd0,66fc98d1559574b3ea396751,2024-10-02_01h50.42.100,mdp,2024.2.1,Win32,59.88023952,66fa4ebf79326e780c390304,,,,,,,,,,,,,,,,,,,,,2234.9497,2234.9497,2234.9502,2236.1149,1,1,right,0.6331,,2236.1159,2237.4305,1,0,right,2237.4314,2238.7299,1,0,right,1,2238.7299,2238.73,2238.7309,2240.2276,0,32,32,32,1,0.2,0.8,0.4,0.6,,,,,,,,,,,,,,,0.7915,,0.4,0.6,0.6,0.4,0.8,0.2,0.6,0.4,,,0.766,,0.2,0.8,0.6,0.4,0.2,0.8,0.4,0.6,1,0
,,5e3c407472a17401e4754bd0,66fc98d1559574b3ea396751,2024-10-02_01h50.42.100,mdp,2024.2.1,Win32,59.88023952,66fa4ebf79326e780c390304,,,,,,,,,,,,,,,,,,,,,2240.228,2240.228,2240.2289,2241.1273,1,1,right,0.3761,,2241.1281,2242.2097,1,1,right,2242.2104,2243.6747,1,1,right,0,2243.6747,2243.6747,2243.6753,2245.1733,0,33,33,33,1,0.2,0.8,0.4,0.6,,,,,,,,,,,,,,,0.5573,,0.4,0.6,0.6,0.4,0.8,0.2,0.6,0.4,,,0.9447,,0.2,0.8,0.6,0.4,0.2,0.8,0.4,0.6,1,0
,,5e3c407472a17401e4754bd0,66fc98d1559574b3ea396751,2024-10-02_01h50.42.100,mdp,2024.2.1,Win32,59.88023952,66fa4ebf79326e780c390304,,,,,,,,,,,,,,,,,,,,,2245.1735,2245.1735,2245.1743,2246.2727,1,1,right,0.5661,,2246.2735,2247.4882,1,0,right,2247.4891,2248.6371,1,0,right,1,2248.6371,2248.6372,2248.6382,2250.1357,0,34,34,34,1,0.2,0.8,0.4,0.6,,,,,,,,,,,,,,,0.6913,,0.4,0.6,0.6,0.4,0.8,0.2,0.6,0.4,,,0.6177,,0.2,0.8,0.6,0.4,0.2,0.8,0.4,0.6,1,0
,,5e3c407472a17401e4754bd0,66fc98d1559574b3ea396751,2024-10-02_01h50.42.100,mdp,2024.2.1,Win32,59.88023952,66fa4ebf79326e780c390304,,,,,,,,,,,,,,,,,,,,,2250.136,2250.136,2250.1366,2251.0516,1,1,right,0.3955,,2251.0524,2252.3844,1,1,right,2252.3853,2253.6827,0,1,left,0,2253.6827,2253.6827,2253.6836,2255.1821,0,35,35,35,1,0.2,0.8,0.4,0.6,,,,,,,,,,,,,,,0.8089,,0.4,0.6,0.6,0.4,0.8,0.2,0.6,0.4,,,0.7642,,0.2,0.8,0.6,0.4,0.2,0.8,0.4,0.6,1,0
,,5e3c407472a17401e4754bd0,66fc98d1559574b3ea396751,2024-10-02_01h50.42.100,mdp,2024.2.1,Win32,59.88023952,66fa4ebf79326e780c390304,,,,,,,,,,,,,,,,,,,,,2255.1824,2255.1824,2255.183,2256.1306,1,1,right,0.4221,,2256.1315,2257.3792,1,0,right,2257.3802,2258.7288,1,1,right,0,2258.7289,2258.7289,2258.7297,2260.2269,0,36,36,36,1,0.2,0.8,0.4,0.6,,,,,,,,,,,,,,,0.729,,0.4,0.6,0.6,0.4,0.8,0.2,0.6,0.4,,,0.8225,,0.2,0.8,0.6,0.4,0.2,0.8,0.4,0.6,1,0
,,5e3c407472a17401e4754bd0,66fc98d1559574b3ea396751,2024-10-02_01h50.42.100,mdp,2024.2.1,Win32,59.88023952,66fa4ebf79326e780c390304,,,,,,,,,,,,,,,,,,,,,2260.2273,2260.2273,2260.228,2261.1264,1,0,right,0.3765,,2261.1274,2263.1744,1,1,right,2263.1754,2264.3066,1,1,right,0,2264.3067,2264.3067,2264.3072,2265.8057,0,37,37,37,1,0.2,0.8,0.4,0.6,,,,,,,,,,,,,,,1.524,,0.4,0.6,0.6,0.4,0.8,0.2,0.6,0.4,,,0.6112,,0.2,0.8,0.6,0.4,0.2,0.8,0.4,0.6,1,0
,,5e3c407472a17401e4754bd0,66fc98d1559574b3ea396751,2024-10-02_01h50.42.100,mdp,2024.2.1,Win32,59.88023952,66fa4ebf79326e780c390304,,,,,,,,,,,,,,,,,,,,,2265.8059,2265.8059,2265.8066,2266.6213,1,1,right,0.2928,,2266.6221,2267.9036,1,0,right,2267.9046,2269.3358,1,0,right,1,2269.3359,2269.3359,2269.3367,2270.8342,0,38,38,38,1,0.2,0.8,0.4,0.6,,,,,,,,,,,,,,,0.7566,,0.4,0.6,0.6,0.4,0.8,0.2,0.6,0.4,,,0.9065,,0.2,0.8,0.6,0.4,0.2,0.8,0.4,0.6,1,0
,,5e3c407472a17401e4754bd0,66fc98d1559574b3ea396751,2024-10-02_01h50.42.100,mdp,2024.2.1,Win32,59.88023952,66fa4ebf79326e780c390304,,,,,,,,,,,,,,,,,,,,,2270.8346,2270.8346,2270.8355,2271.7505,1,1,right,0.3853,,2271.751,2273.1326,1,0,right,2273.1331,2274.4151,0,1,left,0,2274.4151,2274.4151,2274.416,2275.9136,0,39,39,39,1,0.2,0.8,0.4,0.6,,,,,,,,,,,,,,,0.8619,,0.4,0.6,0.6,0.4,0.8,0.2,0.6,0.4,,,0.7598,,0.2,0.8,0.6,0.4,0.2,0.8,0.4,0.6,1,0
,,5e3c407472a17401e4754bd0,66fc98d1559574b3ea396751,2024-10-02_01h50.42.100,mdp,2024.2.1,Win32,59.88023952,66fa4ebf79326e780c390304,,,,,,,,,,,,,,,,,,,,,2275.9139,2275.914,2275.9147,2276.9789,0,1,left,0.5331,,2276.9798,2278.3946,0,0,left,2278.3961,2279.6267,0,1,left,0,2279.6269,2279.6269,2279.6276,2281.1254,0,40,40,40,1,0.2,0.8,0.4,0.6,,,,,,,,,,,,,,,0.883,,0.4,0.6,0.6,0.4,0.8,0.2,0.6,0.4,,,0.7053,,0.2,0.8,0.6,0.4,0.2,0.8,0.4,0.6,1,0
,,5e3c407472a17401e4754bd0,66fc98d1559574b3ea396751,2024-10-02_01h50.42.100,mdp,2024.2.1,Win32,59.88023952,66fa4ebf79326e780c390304,,,,,,,,,,,,,,,,,,,,,2281.1258,2281.1258,2281.1271,2282.3577,0,1,left,0.7014,,2282.3587,2283.4066,1,0,right,2283.4074,2284.5225,1,1,right,0,2284.5226,2284.5226,2284.5235,2286.0212,0,41,41,41,1,0.2,0.8,0.4,0.6,,,,,,,,,,,,,,,0.5176,,0.4,0.6,0.6,0.4,0.8,0.2,0.6,0.4,,,0.5889,,0.2,0.8,0.6,0.4,0.2,0.8,0.4,0.6,1,0
,,5e3c407472a17401e4754bd0,66fc98d1559574b3ea396751,2024-10-02_01h50.42.100,mdp,2024.2.1,Win32,59.88023952,66fa4ebf79326e780c390304,,,,,,,,,,,,,,,,,,,,,2286.0216,2286.0216,2286.0225,2287.0205,1,1,right,0.471,,2287.0211,2288.1695,1,0,right,2288.1708,2289.2684,1,0,right,1,2289.2684,2289.2684,2289.2691,2290.7669,0,42,42,42,1,0.2,0.8,0.4,0.6,,,,,,,,,,,,,,,0.6158,,0.4,0.6,0.6,0.4,0.8,0.2,0.6,0.4,,,0.5708,,0.4,0.6,0.8,0.2,0.2,0.8,0.4,0.6,1,0
,,5e3c407472a17401e4754bd0,66fc98d1559574b3ea396751,2024-10-02_01h50.42.100,mdp,2024.2.1,Win32,59.88023952,66fa4ebf79326e780c390304,,,,,,,,,,,,,,,,,,,,,2290.7673,2290.7673,2290.7678,2291.7162,1,0,right,0.4206,,2291.7172,2292.9815,0,0,left,2292.9821,2294.1472,0,1,left,0,2294.1472,2294.1472,2294.1478,2295.6459,0,43,43,43,1,0.2,0.8,0.4,0.6,,,,,,,,,,,,,,,0.7413,,0.4,0.6,0.6,0.4,0.8,0.2,0.6,0.4,,,0.6456,,0.4,0.6,0.8,0.2,0.2,0.8,0.4,0.6,1,0
,,5e3c407472a17401e4754bd0,66fc98d1559574b3ea396751,2024-10-02_01h50.42.100,mdp,2024.2.1,Win32,59.88023952,66fa4ebf79326e780c390304,,,,,,,,,,,,,,,,,,,,,2295.6463,2295.6463,2295.6474,2296.6617,1,0,right,0.4851,,2296.6627,2298.5604,0,0,left,2298.5614,2299.5425,1,0,right,1,2299.5426,2299.5426,2299.5435,2301.0419,0,44,44,44,1,0.2,0.8,0.4,0.6,,,,,,,,,,,,,,,1.3736,,0.4,0.6,0.6,0.4,0.8,0.2,0.6,0.4,,,0.4515,,0.4,0.6,0.8,0.2,0.2,0.8,0.4,0.6,1,0
,,5e3c407472a17401e4754bd0,66fc98d1559574b3ea396751,2024-10-02_01h50.42.100,mdp,2024.2.1,Win32,59.88023952,66fa4ebf79326e780c390304,,,,,,,,,,,,,,,,,,,,,2301.0423,2301.0423,2301.0433,2302.2904,1,1,right,0.7166,,2302.2912,2303.6223,1,0,right,2303.6231,2304.6882,1,0,right,1,2304.6882,2304.6882,2304.6891,2306.1868,0,45,45,45,1,0.2,0.8,0.4,0.6,,,,,,,,,,,,,,,0.7995,,0.4,0.6,0.6,0.4,0.8,0.2,0.6,0.4,,,0.5332,,0.4,0.6,0.8,0.2,0.2,0.8,0.4,0.6,1,0
,,5e3c407472a17401e4754bd0,66fc98d1559574b3ea396751,2024-10-02_01h50.42.100,mdp,2024.2.1,Win32,59.88023952,66fa4ebf79326e780c390304,,,,,,,,,,,,,,,,,,,,,2306.1871,2306.1871,2306.1878,2307.2028,1,1,right,0.4895,,2307.2038,2308.3351,1,0,right,2308.336,2309.4505,1,0,right,1,2309.4506,2309.4506,2309.4514,2310.9493,0,46,46,46,1,0.2,0.8,0.4,0.6,,,,,,,,,,,,,,,0.6011,,0.4,0.6,0.6,0.4,0.8,0.2,0.6,0.4,,,0.597,,0.4,0.6,0.8,0.2,0.2,0.8,0.4,0.6,1,0
,,5e3c407472a17401e4754bd0,66fc98d1559574b3ea396751,2024-10-02_01h50.42.100,mdp,2024.2.1,Win32,59.88023952,66fa4ebf79326e780c390304,,,,,,,,,,,,,,,,,,,,,2310.9496,2310.9496,2310.9505,2311.8484,1,1,right,0.3663,,2311.8491,2312.981,1,0,right,2312.982,2314.08,1,0,right,1,2314.08,2314.08,2314.0808,2315.5784,0,47,47,47,1,0.2,0.8,0.4,0.6,,,,,,,,,,,,,,,0.6037,,0.4,0.6,0.6,0.4,0.8,0.2,0.6,0.4,,,0.5754,,0.4,0.6,0.8,0.2,0.2,0.8,0.4,0.6,1,0
,,5e3c407472a17401e4754bd0,66fc98d1559574b3ea396751,2024-10-02_01h50.42.100,mdp,2024.2.1,Win32,59.88023952,66fa4ebf79326e780c390304,,,,,,,,,,,,,,,,,,,,,2315.5789,2315.5789,2315.5797,2316.5447,1,0,right,0.4333,,2316.5457,2317.7602,0,0,left,2317.7613,2318.859,1,0,right,1,2318.859,2318.859,2318.8599,2320.3577,0,48,48,48,1,0.2,0.8,0.4,0.6,,,,,,,,,,,,,,,0.6894,,0.4,0.6,0.6,0.4,0.8,0.2,0.6,0.4,,,0.5712,,0.4,0.6,0.8,0.2,0.2,0.8,0.4,0.6,1,0
,,5e3c407472a17401e4754bd0,66fc98d1559574b3ea396751,2024-10-02_01h50.42.100,mdp,2024.2.1,Win32,59.88023952,66fa4ebf79326e780c390304,,,,,,,,,,,,,,,,,,,,,2320.3581,2320.3581,2320.3589,2321.3737,1,1,right,0.4941,,2321.3746,2322.6721,1,1,right,2322.673,2324.3707,0,1,left,0,2324.3707,2324.3707,2324.3716,2325.8696,0,49,49,49,1,0.2,0.8,0.4,0.6,,,,,,,,,,,,,,,0.7648,,0.4,0.6,0.6,0.4,0.8,0.2,0.6,0.4,,,1.1688,,0.4,0.6,0.8,0.2,0.2,0.8,0.4,0.6,1,0
,,5e3c407472a17401e4754bd0,66fc98d1559574b3ea396751,2024-10-02_01h50.42.100,mdp,2024.2.1,Win32,59.88023952,66fa4ebf79326e780c390304,,,,,,,,,,,,,,,,,,,,,,,,,,,,,,,,,,,,,,,,,,,,,,,,,,,,,,,,2325.8697,2384.385,0,3,3,6,1,imgs/dog.png,imgs/lion.png,imgs/cat.png,imgs/giraffe.png,imgs/rabbit.png,,,,,,,,,,,,,,,,,,,,,,,,
,,5e3c407472a17401e4754bd0,66fc98d1559574b3ea396751,2024-10-02_01h50.42.100,mdp,2024.2.1,Win32,59.88023952,66fa4ebf79326e780c390304,,,,,,,,,,,,,,1,seqs/st1seq38.csv,2384.3924,2417.0063,space,32.099,,2417.0154,2417.0154,2417.0158,2420.1206,1,0,right,2.5766,,2420.1217,2420.1223,1,0,,2420.1229,2420.1232,0,1,,1,2420.1232,2420.1232,2420.1234,2421.619,0,0,0,0,1,0.6,0.4,0.8,0.2,1,0,,,,,,,,,,,,,,,,,,,,,,,,,,,,,,,,,,,,
,,5e3c407472a17401e4754bd0,66fc98d1559574b3ea396751,2024-10-02_01h50.42.100,mdp,2024.2.1,Win32,59.88023952,66fa4ebf79326e780c390304,,,,,,,,,,,,,,,,,,,,,2421.6194,2421.6194,2421.6203,2422.7517,1,0,right,0.6083,,2422.7523,2422.7528,1,0,,2422.7532,2422.7535,0,0,,1,2422.7536,2422.7536,2422.7539,2424.2501,0,1,1,1,1,0.4,0.6,0.6,0.4,1,0,,,,,,,,,,,,,,,,,,,,,,,,,,,,,,,,,,,,
,,5e3c407472a17401e4754bd0,66fc98d1559574b3ea396751,2024-10-02_01h50.42.100,mdp,2024.2.1,Win32,59.88023952,66fa4ebf79326e780c390304,,,,,,,,,,,,,,,,,,,,,2424.2506,2424.2506,2424.2514,2425.3328,1,1,right,0.5538,,2425.3335,2425.3339,1,0,,2425.3345,2425.3351,0,0,,0,2425.3351,2425.3351,2425.3355,2426.8314,0,2,2,2,1,0.4,0.6,0.6,0.4,1,0,,,,,,,,,,,,,,,,,,,,,,,,,,,,,,,,,,,,
,,5e3c407472a17401e4754bd0,66fc98d1559574b3ea396751,2024-10-02_01h50.42.100,mdp,2024.2.1,Win32,59.88023952,66fa4ebf79326e780c390304,,,,,,,,,,,,,,,,,,,,,2426.8318,2426.8318,2426.8325,2427.9303,0,1,left,0.5805,,2427.9312,2427.9316,1,1,,2427.9321,2427.9324,0,0,,0,2427.9324,2427.9324,2427.9326,2429.4289,0,3,3,3,1,0.4,0.6,0.6,0.4,1,0,,,,,,,,,,,,,,,,,,,,,,,,,,,,,,,,,,,,
,,5e3c407472a17401e4754bd0,66fc98d1559574b3ea396751,2024-10-02_01h50.42.100,mdp,2024.2.1,Win32,59.88023952,66fa4ebf79326e780c390304,,,,,,,,,,,,,,,,,,,,,2429.4292,2429.4292,2429.4304,2430.4279,1,1,right,0.4707,,2430.4289,2430.4296,1,1,,2430.43,2430.4305,0,1,,0,2430.4305,2430.4305,2430.4307,2431.9267,0,4,4,4,1,0.6,0.4,0.4,0.6,1,0,,,,,,,,,,,,,,,,,,,,,,,,,,,,,,,,,,,,
,,5e3c407472a17401e4754bd0,66fc98d1559574b3ea396751,2024-10-02_01h50.42.100,mdp,2024.2.1,Win32,59.88023952,66fa4ebf79326e780c390304,,,,,,,,,,,,,,,,,,,,,2431.927,2431.927,2431.9279,2433.2587,1,0,right,0.8128,,2433.2594,2433.2599,1,1,,2433.2605,2433.261,0,0,,1,2433.261,2433.261,2433.2613,2434.7573,0,5,5,5,1,0.4,0.6,0.8,0.2,1,0,,,,,,,,,,,,,,,,,,,,,,,,,,,,,,,,,,,,
,,5e3c407472a17401e4754bd0,66fc98d1559574b3ea396751,2024-10-02_01h50.42.100,mdp,2024.2.1,Win32,59.88023952,66fa4ebf79326e780c390304,,,,,,,,,,,,,,,,,,,,,2434.7577,2434.7577,2434.7584,2435.7067,1,0,right,0.4224,,2435.7073,2435.708,1,0,,2435.7087,2435.709,0,0,,1,2435.709,2435.709,2435.7093,2437.2057,0,6,6,6,1,0.4,0.6,0.8,0.2,1,0,,,,,,,,,,,,,,,,,,,,,,,,,,,,,,,,,,,,
,,5e3c407472a17401e4754bd0,66fc98d1559574b3ea396751,2024-10-02_01h50.42.100,mdp,2024.2.1,Win32,59.88023952,66fa4ebf79326e780c390304,,,,,,,,,,,,,,,,,,,,,2437.2061,2437.2061,2437.2072,2438.2044,0,0,left,0.4791,,2438.205,2438.2055,1,0,,2438.2063,2438.2068,0,1,,1,2438.2069,2438.2069,2438.2072,2439.7033,0,7,7,7,1,0.4,0.6,0.8,0.2,1,0,,,,,,,,,,,,,,,,,,,,,,,,,,,,,,,,,,,,
,,5e3c407472a17401e4754bd0,66fc98d1559574b3ea396751,2024-10-02_01h50.42.100,mdp,2024.2.1,Win32,59.88023952,66fa4ebf79326e780c390304,,,,,,,,,,,,,,,,,,,,,2439.7037,2439.7037,2439.7044,2440.6359,0,1,left,0.4049,,2440.6366,2440.6369,1,0,,2440.6375,2440.6381,0,1,,0,2440.6381,2440.6381,2440.6383,2442.1343,0,8,8,8,1,0.4,0.6,0.8,0.2,1,0,,,,,,,,,,,,,,,,,,,,,,,,,,,,,,,,,,,,
,,5e3c407472a17401e4754bd0,66fc98d1559574b3ea396751,2024-10-02_01h50.42.100,mdp,2024.2.1,Win32,59.88023952,66fa4ebf79326e780c390304,,,,,,,,,,,,,,,,,,,,,2442.1345,2442.1345,2442.1355,2443.2001,1,0,right,0.5414,,2443.2009,2443.2015,1,1,,2443.2019,2443.2023,0,0,,1,2443.2023,2443.2023,2443.2026,2444.699,0,9,9,9,1,0.4,0.6,0.8,0.2,1,0,,,,,,,,,,,,,,,,,,,,,,,,,,,,,,,,,,,,
,,5e3c407472a17401e4754bd0,66fc98d1559574b3ea396751,2024-10-02_01h50.42.100,mdp,2024.2.1,Win32,59.88023952,66fa4ebf79326e780c390304,,,,,,,,,,,,,,,,,,,,,2444.6993,2444.6993,2444.7003,2445.6316,1,0,right,0.4003,,2445.6324,2445.6329,1,0,,2445.6334,2445.6339,0,0,,1,2445.6339,2445.6339,2445.6342,2447.1301,0,10,10,10,1,0.4,0.6,0.8,0.2,1,0,,,,,,,,,,,,,,,,,,,,,,,,,,,,,,,,,,,,
,,5e3c407472a17401e4754bd0,66fc98d1559574b3ea396751,2024-10-02_01h50.42.100,mdp,2024.2.1,Win32,59.88023952,66fa4ebf79326e780c390304,,,,,,,,,,,,,,,,,,,,,2447.1306,2447.1306,2447.1312,2448.8951,1,0,right,1.2337,,2448.896,2448.8968,1,0,,2448.8971,2448.8976,0,0,,1,2448.8977,2448.8977,2448.8978,2450.3937,0,11,11,11,1,0.4,0.6,0.8,0.2,1,0,,,,,,,,,,,,,,,,,,,,,,,,,,,,,,,,,,,,
,,5e3c407472a17401e4754bd0,66fc98d1559574b3ea396751,2024-10-02_01h50.42.100,mdp,2024.2.1,Win32,59.88023952,66fa4ebf79326e780c390304,,,,,,,,,,,,,,,,,,,,,2450.3941,2450.3941,2450.3948,2451.5097,0,0,left,0.5902,,2451.5106,2451.5114,1,1,,2451.512,2451.5123,0,1,,1,2451.5123,2451.5124,2451.5126,2453.0082,0,12,12,12,1,0.4,0.6,0.8,0.2,1,0,,,,,,,,,,,,,,,,,,,,,,,,,,,,,,,,,,,,
,,5e3c407472a17401e4754bd0,66fc98d1559574b3ea396751,2024-10-02_01h50.42.100,mdp,2024.2.1,Win32,59.88023952,66fa4ebf79326e780c390304,,,,,,,,,,,,,,,,,,,,,2453.0085,2453.0085,2453.0094,2453.9244,1,1,right,0.3865,,2453.9253,2453.926,1,1,,2453.9265,2453.927,0,0,,0,2453.927,2453.927,2453.9274,2455.4229,0,13,13,13,1,0.8,0.2,0.6,0.4,1,0,,,,,,,,,,,,,,,,,,,,,,,,,,,,,,,,,,,,
,,5e3c407472a17401e4754bd0,66fc98d1559574b3ea396751,2024-10-02_01h50.42.100,mdp,2024.2.1,Win32,59.88023952,66fa4ebf79326e780c390304,,,,,,,,,,,,,,,,,,,,,2455.4234,2455.4234,2455.4242,2456.3386,1,1,right,0.3893,,2456.3394,2456.3399,1,0,,2456.3405,2456.341,0,1,,0,2456.341,2456.341,2456.3413,2457.8373,0,14,14,14,1,0.8,0.2,0.6,0.4,1,0,,,,,,,,,,,,,,,,,,,,,,,,,,,,,,,,,,,,
,,5e3c407472a17401e4754bd0,66fc98d1559574b3ea396751,2024-10-02_01h50.42.100,mdp,2024.2.1,Win32,59.88023952,66fa4ebf79326e780c390304,,,,,,,,,,,,,,,,,,,,,2457.8377,2457.8377,2457.8384,2458.903,0,0,left,0.542,,2458.9041,2458.9048,1,0,,2458.9052,2458.9056,0,1,,1,2458.9056,2458.9057,2458.906,2460.4015,0,15,15,15,1,0.8,0.2,0.6,0.4,1,0,,,,,,,,,,,,,,,,,,,,,,,,,,,,,,,,,,,,
,,5e3c407472a17401e4754bd0,66fc98d1559574b3ea396751,2024-10-02_01h50.42.100,mdp,2024.2.1,Win32,59.88023952,66fa4ebf79326e780c390304,,,,,,,,,,,,,,,,,,,,,2460.4019,2460.4019,2460.4028,2462.0337,1,0,right,1.1057,,2462.0344,2462.0349,1,0,,2462.0356,2462.036,0,0,,1,2462.0361,2462.0361,2462.0363,2463.5323,0,16,16,16,1,0.8,0.2,0.6,0.4,1,0,,,,,,,,,,,,,,,,,,,,,,,,,,,,,,,,,,,,
,,5e3c407472a17401e4754bd0,66fc98d1559574b3ea396751,2024-10-02_01h50.42.100,mdp,2024.2.1,Win32,59.88023952,66fa4ebf79326e780c390304,,,,,,,,,,,,,,,,,,,,,2463.5327,2463.5327,2463.5336,2464.5481,1,0,right,0.4865,,2464.5487,2464.5496,1,0,,2464.5504,2464.5506,0,1,,1,2464.5506,2464.5506,2464.5509,2466.0467,0,17,17,17,1,0.4,0.6,0.8,0.2,1,0,,,,,,,,,,,,,,,,,,,,,,,,,,,,,,,,,,,,
,,5e3c407472a17401e4754bd0,66fc98d1559574b3ea396751,2024-10-02_01h50.42.100,mdp,2024.2.1,Win32,59.88023952,66fa4ebf79326e780c390304,,,,,,,,,,,,,,,,,,,,,2466.0469,2466.0469,2466.0475,2466.9791,1,1,right,0.413,,2466.9798,2466.9804,1,0,,2466.9809,2466.9813,0,1,,0,2466.9813,2466.9813,2466.9815,2468.4784,0,18,18,18,1,0.4,0.6,0.8,0.2,1,0,,,,,,,,,,,,,,,,,,,,,,,,,,,,,,,,,,,,
,,5e3c407472a17401e4754bd0,66fc98d1559574b3ea396751,2024-10-02_01h50.42.100,mdp,2024.2.1,Win32,59.88023952,66fa4ebf79326e780c390304,,,,,,,,,,,,,,,,,,,,,2468.4786,2468.4786,2468.4796,2469.4603,0,0,left,0.4618,,2469.4612,2469.4621,1,1,,2469.4627,2469.4631,0,0,,1,2469.4631,2469.4631,2469.4634,2470.9593,0,19,19,19,1,0.2,0.8,0.6,0.4,1,0,,,,,,,,,,,,,,,,,,,,,,,,,,,,,,,,,,,,
,,5e3c407472a17401e4754bd0,66fc98d1559574b3ea396751,2024-10-02_01h50.42.100,mdp,2024.2.1,Win32,59.88023952,66fa4ebf79326e780c390304,,,,,,,,,,,,,,,,,,,,,2470.9596,2470.9596,2470.9604,2471.8582,0,1,left,0.3798,,2471.8592,2471.8598,1,1,,2471.8602,2471.8606,0,1,,0,2471.8606,2471.8606,2471.8609,2473.3571,0,20,20,20,1,0.2,0.8,0.6,0.4,1,0,,,,,,,,,,,,,,,,,,,,,,,,,,,,,,,,,,,,
,,5e3c407472a17401e4754bd0,66fc98d1559574b3ea396751,2024-10-02_01h50.42.100,mdp,2024.2.1,Win32,59.88023952,66fa4ebf79326e780c390304,,,,,,,,,,,,,,,,,,,,,2473.3574,2473.3574,2473.3582,2474.473,0,1,left,0.5827,,2474.4737,2474.4744,1,0,,2474.4752,2474.4756,0,1,,0,2474.4756,2474.4756,2474.4759,2475.9716,0,21,21,21,1,0.2,0.8,0.6,0.4,1,0,,,,,,,,,,,,,,,,,,,,,,,,,,,,,,,,,,,,
,,5e3c407472a17401e4754bd0,66fc98d1559574b3ea396751,2024-10-02_01h50.42.100,mdp,2024.2.1,Win32,59.88023952,66fa4ebf79326e780c390304,,,,,,,,,,,,,,,,,,,,,2475.972,2475.972,2475.9725,2476.854,0,1,left,0.3599,,2476.8547,2476.8552,1,1,,2476.8561,2476.8566,0,1,,0,2476.8566,2476.8566,2476.8568,2478.353,0,22,22,22,1,0.2,0.8,0.6,0.4,1,0,,,,,,,,,,,,,,,,,,,,,,,,,,,,,,,,,,,,
,,5e3c407472a17401e4754bd0,66fc98d1559574b3ea396751,2024-10-02_01h50.42.100,mdp,2024.2.1,Win32,59.88023952,66fa4ebf79326e780c390304,,,,,,,,,,,,,,,,,,,,,2478.3534,2478.3534,2478.3541,2479.3353,0,0,left,0.4501,,2479.3363,2479.3369,1,1,,2479.3373,2479.3377,0,1,,1,2479.3377,2479.3377,2479.338,2480.8339,0,23,23,23,1,0.6,0.4,0.2,0.8,1,0,,,,,,,,,,,,,,,,,,,,,,,,,,,,,,,,,,,,
,,5e3c407472a17401e4754bd0,66fc98d1559574b3ea396751,2024-10-02_01h50.42.100,mdp,2024.2.1,Win32,59.88023952,66fa4ebf79326e780c390304,,,,,,,,,,,,,,,,,,,,,2480.8342,2480.8342,2480.8351,2481.8164,1,0,right,0.4502,,2481.8174,2481.818,1,0,,2481.8187,2481.819,0,1,,1,2481.8191,2481.8191,2481.8193,2483.3155,0,24,24,24,1,0.8,0.2,0.6,0.4,1,0,,,,,,,,,,,,,,,,,,,,,,,,,,,,,,,,,,,,
,,5e3c407472a17401e4754bd0,66fc98d1559574b3ea396751,2024-10-02_01h50.42.100,mdp,2024.2.1,Win32,59.88023952,66fa4ebf79326e780c390304,,,,,,,,,,,,,,,,,,,,,2483.3158,2483.3158,2483.3167,2484.1977,0,0,left,0.352,,2484.1985,2484.1991,1,0,,2484.1996,2484.2,0,0,,1,2484.2001,2484.2001,2484.2004,2485.6963,0,25,25,25,1,0.8,0.2,0.6,0.4,1,0,,,,,,,,,,,,,,,,,,,,,,,,,,,,,,,,,,,,
,,5e3c407472a17401e4754bd0,66fc98d1559574b3ea396751,2024-10-02_01h50.42.100,mdp,2024.2.1,Win32,59.88023952,66fa4ebf79326e780c390304,,,,,,,,,,,,,,,,,,,,,2485.6966,2485.6966,2485.6975,2486.5619,1,0,right,0.3471,,2486.5626,2486.5631,1,0,,2486.5637,2486.5643,0,1,,1,2486.5643,2486.5643,2486.5646,2488.0609,0,26,26,26,1,0.6,0.4,0.8,0.2,1,0,,,,,,,,,,,,,,,,,,,,,,,,,,,,,,,,,,,,
,,5e3c407472a17401e4754bd0,66fc98d1559574b3ea396751,2024-10-02_01h50.42.100,mdp,2024.2.1,Win32,59.88023952,66fa4ebf79326e780c390304,,,,,,,,,,,,,,,,,,,,,2488.0612,2488.0612,2488.062,2488.9435,0,1,left,0.3594,,2488.9441,2488.9445,1,1,,2488.9451,2488.9454,0,0,,0,2488.9455,2488.9455,2488.946,2490.4421,0,27,27,27,1,0.6,0.4,0.8,0.2,1,0,,,,,,,,,,,,,,,,,,,,,,,,,,,,,,,,,,,,
,,5e3c407472a17401e4754bd0,66fc98d1559574b3ea396751,2024-10-02_01h50.42.100,mdp,2024.2.1,Win32,59.88023952,66fa4ebf79326e780c390304,,,,,,,,,,,,,,,,,,,,,2490.4425,2490.4425,2490.443,2491.5414,1,0,right,0.5774,,2491.5422,2491.5429,1,0,,2491.5433,2491.5437,0,1,,1,2491.5437,2491.5437,2491.5439,2493.04,0,28,28,28,1,0.6,0.4,0.8,0.2,1,0,,,,,,,,,,,,,,,,,,,,,,,,,,,,,,,,,,,,
,,5e3c407472a17401e4754bd0,66fc98d1559574b3ea396751,2024-10-02_01h50.42.100,mdp,2024.2.1,Win32,59.88023952,66fa4ebf79326e780c390304,,,,,,,,,,,,,,,,,,,,,2493.0404,2493.0404,2493.0412,2494.1224,1,1,right,0.5499,,2494.1231,2494.1235,1,0,,2494.1241,2494.1246,0,0,,0,2494.1246,2494.1246,2494.1248,2495.6211,0,29,29,29,1,0.8,0.2,0.4,0.6,1,0,,,,,,,,,,,,,,,,,,,,,,,,,,,,,,,,,,,,
,,5e3c407472a17401e4754bd0,66fc98d1559574b3ea396751,2024-10-02_01h50.42.100,mdp,2024.2.1,Win32,59.88023952,66fa4ebf79326e780c390304,,,,,,,,,,,,,,,,,,,,,2495.6215,2495.6215,2495.6223,2496.537,1,0,right,0.3913,,2496.5378,2496.5384,1,1,,2496.5389,2496.5392,0,0,,1,2496.5393,2496.5393,2496.5395,2498.0359,0,30,30,30,1,0.8,0.2,0.4,0.6,1,0,,,,,,,,,,,,,,,,,,,,,,,,,,,,,,,,,,,,
,,5e3c407472a17401e4754bd0,66fc98d1559574b3ea396751,2024-10-02_01h50.42.100,mdp,2024.2.1,Win32,59.88023952,66fa4ebf79326e780c390304,,,,,,,,,,,,,,,,,,,,,2498.0361,2498.0361,2498.0372,2498.8679,0,1,left,0.3122,,2498.8684,2498.869,1,0,,2498.8697,2498.87,0,0,,0,2498.8701,2498.8701,2498.871,2500.3667,0,31,31,31,1,0.8,0.2,0.4,0.6,1,0,,,,,,,,,,,,,,,,,,,,,,,,,,,,,,,,,,,,
,,5e3c407472a17401e4754bd0,66fc98d1559574b3ea396751,2024-10-02_01h50.42.100,mdp,2024.2.1,Win32,59.88023952,66fa4ebf79326e780c390304,,,,,,,,,,,,,,,,,,,,,2500.3671,2500.3671,2500.3677,2501.0162,1,0,right,0.125,,2501.0171,2501.0176,1,0,,2501.0181,2501.0185,0,0,,1,2501.0185,2501.0185,2501.0188,2502.5152,0,32,32,32,1,0.6,0.4,0.6,0.4,1,0,,,,,,,,,,,,,,,,,,,,,,,,,,,,,,,,,,,,
,,5e3c407472a17401e4754bd0,66fc98d1559574b3ea396751,2024-10-02_01h50.42.100,mdp,2024.2.1,Win32,59.88023952,66fa4ebf79326e780c390304,,,,,,,,,,,,,,,,,,,,,2502.5156,2502.5156,2502.5164,2503.4475,1,0,right,0.4088,,2503.4483,2503.4488,1,0,,2503.4493,2503.4496,0,0,,1,2503.4496,2503.4496,2503.4503,2504.946,0,33,33,33,1,0.2,0.8,0.8,0.2,1,0,,,,,,,,,,,,,,,,,,,,,,,,,,,,,,,,,,,,
,,5e3c407472a17401e4754bd0,66fc98d1559574b3ea396751,2024-10-02_01h50.42.100,mdp,2024.2.1,Win32,59.88023952,66fa4ebf79326e780c390304,,,,,,,,,,,,,,,,,,,,,2504.9463,2504.9464,2504.9469,2505.8288,1,0,right,0.3525,,2505.8297,2505.8304,1,0,,2505.8309,2505.8312,0,0,,1,2505.8312,2505.8312,2505.8315,2507.3271,0,34,34,34,1,0.2,0.8,0.8,0.2,1,0,,,,,,,,,,,,,,,,,,,,,,,,,,,,,,,,,,,,
,,5e3c407472a17401e4754bd0,66fc98d1559574b3ea396751,2024-10-02_01h50.42.100,mdp,2024.2.1,Win32,59.88023952,66fa4ebf79326e780c390304,,,,,,,,,,,,,,,,,,,,,2507.3273,2507.3273,2507.328,2508.5431,0,1,left,0.6923,,2508.5442,2508.5451,1,1,,2508.5454,2508.5459,0,1,,0,2508.5459,2508.5459,2508.5461,2510.0419,0,35,35,35,1,0.2,0.8,0.8,0.2,1,0,,,,,,,,,,,,,,,,,,,,,,,,,,,,,,,,,,,,
,,5e3c407472a17401e4754bd0,66fc98d1559574b3ea396751,2024-10-02_01h50.42.100,mdp,2024.2.1,Win32,59.88023952,66fa4ebf79326e780c390304,,,,,,,,,,,,,,,,,,,,,2510.0421,2510.0421,2510.043,2510.8912,0,1,left,0.322,,2510.892,2510.8923,1,1,,2510.893,2510.8935,0,1,,0,2510.8936,2510.8936,2510.8938,2512.3895,0,36,36,36,1,0.2,0.8,0.8,0.2,1,0,,,,,,,,,,,,,,,,,,,,,,,,,,,,,,,,,,,,
