init_exp.started,init_exp.stopped,participant,session,date,expName,psychopyVersion,OS,frameRate,study_id,disp_instruction.started,disp_instruction.stopped,instruction.thisRepN,instruction.thisTrialN,instruction.thisN,instruction.thisIndex,instruction.ran,instimg_path,consent.started,consent.stopped,key_resp_3.keys,key_resp_3.rt,key_resp_3.duration,n_steps,sequence_path,init_block.started,init_block.stopped,key_resp.keys,key_resp.rt,key_resp.duration,init_trials.started,init_trials.stopped,step0.started,step0.stopped,act0,s1,res0.keys,res0.rt,res0.duration,step1.started,step1.stopped,act1,s2,res1.keys,step2.started,step2.stopped,act2,s3,res2.keys,rew,reward_comp.started,reward_comp.stopped,reward_disp.started,reward_disp.stopped,trials.thisRepN,trials.thisTrialN,trials.thisN,trials.thisIndex,trials.ran,s00a0s10,s00a0s11,s00a1s10,s00a1s11,rew10,rew11,break_block.started,break_block.stopped,block.thisRepN,block.thisTrialN,block.thisN,block.thisIndex,block.ran,s00path,s10path,s11path,s20path,s21path,res1.rt,res1.duration,s10a0s20,s10a0s21,s10a1s20,s10a1s21,s11a0s20,s11a0s21,s11a1s20,s11a1s21,rew20,rew21,res2.rt,res2.duration,s20a0s30,s20a0s31,s20a1s30,s20a1s31,s21a0s30,s21a0s31,s21a1s30,s21a1s31,rew30,rew31
1E-04,0.0009,5e508aeddf9ae90dc8210705,66fc98b3ff9cd954959acd72,2024-10-02_13h51.11.042,mdp,2024.2.1,Win32,60.24096386,66fa4ebf79326e780c390304,,,,,,,,,,,,,,,,,,,,,,,,,,,,,,,,,,,,,,,,,,,,,,,,,,,,,,,,,,,,,,,,,,,,,,,,,,,,,,,,,,,,,,,,,,,
,,5e508aeddf9ae90dc8210705,66fc98b3ff9cd954959acd72,2024-10-02_13h51.11.042,mdp,2024.2.1,Win32,60.24096386,66fa4ebf79326e780c390304,0.0035,35.8326,0,0,0,0,1,rlnn_exp/rlnn_exp.001.png,,,,,,,,,,,,,,,,,,,,,,,,,,,,,,,,,,,,,,,,,,,,,,,,,,,,,,,,,,,,,,,,,,,,,,,,,,,,,,,,,,,
,,5e508aeddf9ae90dc8210705,66fc98b3ff9cd954959acd72,2024-10-02_13h51.11.042,mdp,2024.2.1,Win32,60.24096386,66fa4ebf79326e780c390304,35.8331,62.3468,0,1,1,1,1,rlnn_exp/rlnn_exp.002.png,,,,,,,,,,,,,,,,,,,,,,,,,,,,,,,,,,,,,,,,,,,,,,,,,,,,,,,,,,,,,,,,,,,,,,,,,,,,,,,,,,,
,,5e508aeddf9ae90dc8210705,66fc98b3ff9cd954959acd72,2024-10-02_13h51.11.042,mdp,2024.2.1,Win32,60.24096386,66fa4ebf79326e780c390304,62.3472,80.8236,0,2,2,2,1,rlnn_exp/rlnn_exp.003.png,,,,,,,,,,,,,,,,,,,,,,,,,,,,,,,,,,,,,,,,,,,,,,,,,,,,,,,,,,,,,,,,,,,,,,,,,,,,,,,,,,,
,,5e508aeddf9ae90dc8210705,66fc98b3ff9cd954959acd72,2024-10-02_13h51.11.042,mdp,2024.2.1,Win32,60.24096386,66fa4ebf79326e780c390304,80.824,91.9294,0,3,3,3,1,rlnn_exp/rlnn_exp.004.png,,,,,,,,,,,,,,,,,,,,,,,,,,,,,,,,,,,,,,,,,,,,,,,,,,,,,,,,,,,,,,,,,,,,,,,,,,,,,,,,,,,
,,5e508aeddf9ae90dc8210705,66fc98b3ff9cd954959acd72,2024-10-02_13h51.11.042,mdp,2024.2.1,Win32,60.24096386,66fa4ebf79326e780c390304,,,,,,,,,91.9297,109.8823,y,7.9417,,,,,,,,,,,,,,,,,,,,,,,,,,,,,,,,,,,,,,,,,,,,,,,,,,,,,,,,,,,,,,,,,,,,,,,,,,,,,,,
,,5e508aeddf9ae90dc8210705,66fc98b3ff9cd954959acd72,2024-10-02_13h51.11.042,mdp,2024.2.1,Win32,60.24096386,66fa4ebf79326e780c390304,,,,,,,,,,,,,,1,seqs/st1seq49.csv,109.8855,112.6243,space,2.2266,,112.6262,112.6262,112.6264,114.9011,1,1,right,1.7419,,114.9014,114.9023,,0,,114.9024,114.9031,,0,,0,114.9031,114.9031,114.9034,116.3928,0,0,0,0,1,0.4,0.6,0.6,0.4,1,0,,,,,,,,,,,,,,,,,,,,,,,,,,,,,,,,,,,,
,,5e508aeddf9ae90dc8210705,66fc98b3ff9cd954959acd72,2024-10-02_13h51.11.042,mdp,2024.2.1,Win32,60.24096386,66fa4ebf79326e780c390304,,,,,,,,,,,,,,,,,,,,,116.393,116.393,116.3934,117.9618,0,1,left,1.061,,117.9625,117.9628,,1,,117.9631,117.9633,,0,,0,117.9634,117.9634,117.9636,119.47,0,1,1,1,1,0.4,0.6,0.6,0.4,1,0,,,,,,,,,,,,,,,,,,,,,,,,,,,,,,,,,,,,
,,5e508aeddf9ae90dc8210705,66fc98b3ff9cd954959acd72,2024-10-02_13h51.11.042,mdp,2024.2.1,Win32,60.24096386,66fa4ebf79326e780c390304,,,,,,,,,,,,,,,,,,,,,119.4702,119.4702,119.4709,121.4893,0,0,left,1.4946,,121.4898,121.4903,,0,,121.4907,121.491,,1,,1,121.491,121.491,121.4913,122.979,0,2,2,2,1,0.4,0.6,0.6,0.4,1,0,,,,,,,,,,,,,,,,,,,,,,,,,,,,,,,,,,,,
,,5e508aeddf9ae90dc8210705,66fc98b3ff9cd954959acd72,2024-10-02_13h51.11.042,mdp,2024.2.1,Win32,60.24096386,66fa4ebf79326e780c390304,,,,,,,,,,,,,,,,,,,,,122.9793,122.9793,122.9802,124.8481,1,0,right,1.346,,124.8487,124.8492,,1,,124.8496,124.8499,,1,,1,124.8499,124.8499,124.8501,126.3487,0,3,3,3,1,0.4,0.6,0.6,0.4,1,0,,,,,,,,,,,,,,,,,,,,,,,,,,,,,,,,,,,,
,,5e508aeddf9ae90dc8210705,66fc98b3ff9cd954959acd72,2024-10-02_13h51.11.042,mdp,2024.2.1,Win32,60.24096386,66fa4ebf79326e780c390304,,,,,,,,,,,,,,,,,,,,,126.349,126.349,126.3498,127.9993,0,1,left,1.1121,,128,128.0003,,0,,128.0008,128.0013,,0,,0,128.0013,128.0013,128.0017,129.4931,0,4,4,4,1,0.6,0.4,0.8,0.2,1,0,,,,,,,,,,,,,,,,,,,,,,,,,,,,,,,,,,,,
,,5e508aeddf9ae90dc8210705,66fc98b3ff9cd954959acd72,2024-10-02_13h51.11.042,mdp,2024.2.1,Win32,60.24096386,66fa4ebf79326e780c390304,,,,,,,,,,,,,,,,,,,,,129.4933,129.4933,129.4939,130.918,1,0,right,0.9014,,130.9186,130.919,,0,,130.9194,130.9197,,0,,1,130.9198,130.9198,130.9201,132.4186,0,5,5,5,1,0.6,0.4,0.8,0.2,1,0,,,,,,,,,,,,,,,,,,,,,,,,,,,,,,,,,,,,
,,5e508aeddf9ae90dc8210705,66fc98b3ff9cd954959acd72,2024-10-02_13h51.11.042,mdp,2024.2.1,Win32,60.24096386,66fa4ebf79326e780c390304,,,,,,,,,,,,,,,,,,,,,132.4189,132.4189,132.4199,134.7358,1,0,right,1.7906,,134.7364,134.7367,,1,,134.7371,134.7374,,0,,1,134.7374,134.7374,134.7376,136.2364,0,6,6,6,1,0.6,0.4,0.8,0.2,1,0,,,,,,,,,,,,,,,,,,,,,,,,,,,,,,,,,,,,
,,5e508aeddf9ae90dc8210705,66fc98b3ff9cd954959acd72,2024-10-02_13h51.11.042,mdp,2024.2.1,Win32,60.24096386,66fa4ebf79326e780c390304,,,,,,,,,,,,,,,,,,,,,136.2367,136.2367,136.2375,137.2962,1,0,right,0.5478,,137.2967,137.297,,0,,137.2973,137.2977,,1,,1,137.2977,137.2977,137.298,138.7885,0,7,7,7,1,0.4,0.6,0.6,0.4,1,0,,,,,,,,,,,,,,,,,,,,,,,,,,,,,,,,,,,,
,,5e508aeddf9ae90dc8210705,66fc98b3ff9cd954959acd72,2024-10-02_13h51.11.042,mdp,2024.2.1,Win32,60.24096386,66fa4ebf79326e780c390304,,,,,,,,,,,,,,,,,,,,,138.7887,138.7887,138.7892,139.8979,1,1,right,0.5848,,139.8986,139.8991,,1,,139.8995,139.8998,,1,,0,139.8998,139.8998,139.9002,141.399,0,8,8,8,1,0.8,0.2,0.2,0.8,1,0,,,,,,,,,,,,,,,,,,,,,,,,,,,,,,,,,,,,
,,5e508aeddf9ae90dc8210705,66fc98b3ff9cd954959acd72,2024-10-02_13h51.11.042,mdp,2024.2.1,Win32,60.24096386,66fa4ebf79326e780c390304,,,,,,,,,,,,,,,,,,,,,141.3993,141.3993,141.4002,142.4068,0,1,left,0.4938,,142.4076,142.408,,0,,142.4086,142.4091,,0,,0,142.4091,142.4091,142.4094,143.8997,0,9,9,9,1,0.8,0.2,0.2,0.8,1,0,,,,,,,,,,,,,,,,,,,,,,,,,,,,,,,,,,,,
,,5e508aeddf9ae90dc8210705,66fc98b3ff9cd954959acd72,2024-10-02_13h51.11.042,mdp,2024.2.1,Win32,60.24096386,66fa4ebf79326e780c390304,,,,,,,,,,,,,,,,,,,,,143.8999,143.8999,143.9005,145.575,0,1,left,1.1548,,145.5755,145.5759,,0,,145.5762,145.5764,,0,,0,145.5764,145.5764,145.5766,147.0849,0,10,10,10,1,0.8,0.2,0.2,0.8,1,0,,,,,,,,,,,,,,,,,,,,,,,,,,,,,,,,,,,,
,,5e508aeddf9ae90dc8210705,66fc98b3ff9cd954959acd72,2024-10-02_13h51.11.042,mdp,2024.2.1,Win32,60.24096386,66fa4ebf79326e780c390304,,,,,,,,,,,,,,,,,,,,,147.0851,147.0851,147.0856,148.0855,1,1,right,0.4711,,148.086,148.0862,,1,,148.0866,148.0869,,0,,0,148.0869,148.0869,148.0871,149.5776,0,11,11,11,1,0.8,0.2,0.2,0.8,1,0,,,,,,,,,,,,,,,,,,,,,,,,,,,,,,,,,,,,
,,5e508aeddf9ae90dc8210705,66fc98b3ff9cd954959acd72,2024-10-02_13h51.11.042,mdp,2024.2.1,Win32,60.24096386,66fa4ebf79326e780c390304,,,,,,,,,,,,,,,,,,,,,149.5779,149.5779,149.5783,150.5602,1,0,right,0.4585,,150.5608,150.5611,,0,,150.5613,150.5615,,0,,1,150.5615,150.5615,150.5618,152.0608,0,12,12,12,1,0.8,0.2,0.2,0.8,1,0,,,,,,,,,,,,,,,,,,,,,,,,,,,,,,,,,,,,
,,5e508aeddf9ae90dc8210705,66fc98b3ff9cd954959acd72,2024-10-02_13h51.11.042,mdp,2024.2.1,Win32,60.24096386,66fa4ebf79326e780c390304,,,,,,,,,,,,,,,,,,,,,152.061,152.061,152.0616,153.2445,0,1,left,0.6667,,153.2452,153.2456,,1,,153.246,153.2463,,1,,0,153.2463,153.2463,153.2466,154.7467,0,13,13,13,1,0.2,0.8,0.8,0.2,1,0,,,,,,,,,,,,,,,,,,,,,,,,,,,,,,,,,,,,
,,5e508aeddf9ae90dc8210705,66fc98b3ff9cd954959acd72,2024-10-02_13h51.11.042,mdp,2024.2.1,Win32,60.24096386,66fa4ebf79326e780c390304,,,,,,,,,,,,,,,,,,,,,154.7469,154.7469,154.7474,155.7806,1,0,right,0.5057,,155.7811,155.7814,,0,,155.7817,155.7819,,1,,1,155.7819,155.7819,155.7821,157.2912,0,14,14,14,1,0.2,0.8,0.8,0.2,1,0,,,,,,,,,,,,,,,,,,,,,,,,,,,,,,,,,,,,
,,5e508aeddf9ae90dc8210705,66fc98b3ff9cd954959acd72,2024-10-02_13h51.11.042,mdp,2024.2.1,Win32,60.24096386,66fa4ebf79326e780c390304,,,,,,,,,,,,,,,,,,,,,157.2914,157.2914,157.2918,160.0929,1,1,right,2.2824,,160.0934,160.0938,,1,,160.0941,160.0944,,0,,0,160.0944,160.0944,160.0946,161.5829,0,15,15,15,1,0.8,0.2,0.2,0.8,1,0,,,,,,,,,,,,,,,,,,,,,,,,,,,,,,,,,,,,
,,5e508aeddf9ae90dc8210705,66fc98b3ff9cd954959acd72,2024-10-02_13h51.11.042,mdp,2024.2.1,Win32,60.24096386,66fa4ebf79326e780c390304,,,,,,,,,,,,,,,,,,,,,161.583,161.583,161.5837,162.9176,0,0,left,0.8193,,162.9184,162.9189,,0,,162.9194,162.9197,,0,,1,162.9197,162.9197,162.92,164.4175,0,16,16,16,1,0.8,0.2,0.2,0.8,1,0,,,,,,,,,,,,,,,,,,,,,,,,,,,,,,,,,,,,
,,5e508aeddf9ae90dc8210705,66fc98b3ff9cd954959acd72,2024-10-02_13h51.11.042,mdp,2024.2.1,Win32,60.24096386,66fa4ebf79326e780c390304,,,,,,,,,,,,,,,,,,,,,164.4177,164.4177,164.4183,165.335,0,0,left,0.4039,,165.3358,165.3363,,0,,165.3367,165.3369,,0,,1,165.3369,165.3369,165.3373,166.8359,0,17,17,17,1,0.8,0.2,0.2,0.8,1,0,,,,,,,,,,,,,,,,,,,,,,,,,,,,,,,,,,,,
,,5e508aeddf9ae90dc8210705,66fc98b3ff9cd954959acd72,2024-10-02_13h51.11.042,mdp,2024.2.1,Win32,60.24096386,66fa4ebf79326e780c390304,,,,,,,,,,,,,,,,,,,,,166.8361,166.8361,166.8368,168.3866,0,0,left,1.0329,,168.3873,168.3878,,1,,168.3882,168.3885,,0,,1,168.3885,168.3886,168.3892,169.8816,0,18,18,18,1,0.2,0.8,0.8,0.2,1,0,,,,,,,,,,,,,,,,,,,,,,,,,,,,,,,,,,,,
,,5e508aeddf9ae90dc8210705,66fc98b3ff9cd954959acd72,2024-10-02_13h51.11.042,mdp,2024.2.1,Win32,60.24096386,66fa4ebf79326e780c390304,,,,,,,,,,,,,,,,,,,,,169.8817,169.8817,169.8822,170.8986,0,0,left,0.4943,,170.8993,170.8997,,1,,170.9003,170.9006,,1,,1,170.9006,170.9006,170.9009,172.3882,0,19,19,19,1,0.2,0.8,0.8,0.2,1,0,,,,,,,,,,,,,,,,,,,,,,,,,,,,,,,,,,,,
,,5e508aeddf9ae90dc8210705,66fc98b3ff9cd954959acd72,2024-10-02_13h51.11.042,mdp,2024.2.1,Win32,60.24096386,66fa4ebf79326e780c390304,,,,,,,,,,,,,,,,,,,,,172.3885,172.3885,172.3889,173.773,0,1,left,0.8699,,173.7736,173.774,,1,,173.7744,173.7747,,1,,0,173.7747,173.7747,173.7751,175.2847,0,20,20,20,1,0.2,0.8,0.8,0.2,1,0,,,,,,,,,,,,,,,,,,,,,,,,,,,,,,,,,,,,
,,5e508aeddf9ae90dc8210705,66fc98b3ff9cd954959acd72,2024-10-02_13h51.11.042,mdp,2024.2.1,Win32,60.24096386,66fa4ebf79326e780c390304,,,,,,,,,,,,,,,,,,,,,175.2849,175.285,175.2856,176.1747,1,0,right,0.3693,,176.1752,176.1756,,1,,176.1758,176.176,,0,,1,176.176,176.176,176.1763,177.6844,0,21,21,21,1,0.2,0.8,0.8,0.2,1,0,,,,,,,,,,,,,,,,,,,,,,,,,,,,,,,,,,,,
,,5e508aeddf9ae90dc8210705,66fc98b3ff9cd954959acd72,2024-10-02_13h51.11.042,mdp,2024.2.1,Win32,60.24096386,66fa4ebf79326e780c390304,,,,,,,,,,,,,,,,,,,,,177.6846,177.6846,177.6852,178.8434,1,0,right,0.6335,,178.8439,178.8443,,0,,178.8445,178.8447,,0,,1,178.8447,178.8448,178.845,180.344,0,22,22,22,1,0.2,0.8,0.8,0.2,1,0,,,,,,,,,,,,,,,,,,,,,,,,,,,,,,,,,,,,
,,5e508aeddf9ae90dc8210705,66fc98b3ff9cd954959acd72,2024-10-02_13h51.11.042,mdp,2024.2.1,Win32,60.24096386,66fa4ebf79326e780c390304,,,,,,,,,,,,,,,,,,,,,180.3443,180.3443,180.3448,181.7621,1,0,right,0.8854,,181.7627,181.763,,0,,181.7633,181.7636,,0,,1,181.7636,181.7636,181.7638,183.2622,0,23,23,23,1,0.2,0.8,0.8,0.2,1,0,,,,,,,,,,,,,,,,,,,,,,,,,,,,,,,,,,,,
,,5e508aeddf9ae90dc8210705,66fc98b3ff9cd954959acd72,2024-10-02_13h51.11.042,mdp,2024.2.1,Win32,60.24096386,66fa4ebf79326e780c390304,,,,,,,,,,,,,,,,,,,,,183.2624,183.2624,183.2628,184.3456,1,0,right,0.551,,184.3461,184.3465,,0,,184.3468,184.3469,,0,,1,184.347,184.347,184.3472,185.8466,0,24,24,24,1,0.2,0.8,0.8,0.2,1,0,,,,,,,,,,,,,,,,,,,,,,,,,,,,,,,,,,,,
,,5e508aeddf9ae90dc8210705,66fc98b3ff9cd954959acd72,2024-10-02_13h51.11.042,mdp,2024.2.1,Win32,60.24096386,66fa4ebf79326e780c390304,,,,,,,,,,,,,,,,,,,,,185.8468,185.8468,185.8473,186.7466,0,1,left,0.369,,186.7473,186.7476,,1,,186.7479,186.7483,,1,,0,186.7483,186.7483,186.7485,188.2473,0,25,25,25,1,0.2,0.8,0.8,0.2,1,0,,,,,,,,,,,,,,,,,,,,,,,,,,,,,,,,,,,,
,,5e508aeddf9ae90dc8210705,66fc98b3ff9cd954959acd72,2024-10-02_13h51.11.042,mdp,2024.2.1,Win32,60.24096386,66fa4ebf79326e780c390304,,,,,,,,,,,,,,,,,,,,,188.2475,188.2475,188.248,189.3486,0,1,left,0.5759,,189.3494,189.3498,,0,,189.3503,189.3509,,1,,0,189.351,189.351,189.3514,190.8487,0,26,26,26,1,0.2,0.8,0.8,0.2,1,0,,,,,,,,,,,,,,,,,,,,,,,,,,,,,,,,,,,,
,,5e508aeddf9ae90dc8210705,66fc98b3ff9cd954959acd72,2024-10-02_13h51.11.042,mdp,2024.2.1,Win32,60.24096386,66fa4ebf79326e780c390304,,,,,,,,,,,,,,,,,,,,,190.8488,190.8488,190.8496,191.9994,1,0,right,0.6343,,192.0002,192.0006,,1,,192.0012,192.0015,,0,,1,192.0015,192.0015,192.0019,193.499,0,27,27,27,1,0.2,0.8,0.8,0.2,1,0,,,,,,,,,,,,,,,,,,,,,,,,,,,,,,,,,,,,
,,5e508aeddf9ae90dc8210705,66fc98b3ff9cd954959acd72,2024-10-02_13h51.11.042,mdp,2024.2.1,Win32,60.24096386,66fa4ebf79326e780c390304,,,,,,,,,,,,,,,,,,,,,193.4994,193.4994,193.4999,194.5658,1,0,right,0.5348,,194.5665,194.5669,,0,,194.5673,194.5676,,1,,1,194.5677,194.5677,194.5679,196.0668,0,28,28,28,1,0.2,0.8,0.8,0.2,1,0,,,,,,,,,,,,,,,,,,,,,,,,,,,,,,,,,,,,
,,5e508aeddf9ae90dc8210705,66fc98b3ff9cd954959acd72,2024-10-02_13h51.11.042,mdp,2024.2.1,Win32,60.24096386,66fa4ebf79326e780c390304,,,,,,,,,,,,,,,,,,,,,196.0671,196.0671,196.0677,197.4353,1,0,right,0.8441,,197.4362,197.4369,,1,,197.4375,197.4378,,0,,1,197.4378,197.4379,197.438,198.9356,0,29,29,29,1,0.2,0.8,0.8,0.2,1,0,,,,,,,,,,,,,,,,,,,,,,,,,,,,,,,,,,,,
,,5e508aeddf9ae90dc8210705,66fc98b3ff9cd954959acd72,2024-10-02_13h51.11.042,mdp,2024.2.1,Win32,60.24096386,66fa4ebf79326e780c390304,,,,,,,,,,,,,,,,,,,,,198.936,198.936,198.9369,200.0699,1,0,right,0.6241,,200.0706,200.0711,,0,,200.0717,200.072,,0,,1,200.072,200.072,200.0723,201.5701,0,30,30,30,1,0.2,0.8,0.8,0.2,1,0,,,,,,,,,,,,,,,,,,,,,,,,,,,,,,,,,,,,
,,5e508aeddf9ae90dc8210705,66fc98b3ff9cd954959acd72,2024-10-02_13h51.11.042,mdp,2024.2.1,Win32,60.24096386,66fa4ebf79326e780c390304,,,,,,,,,,,,,,,,,,,,,201.5703,201.5703,201.571,202.5882,1,0,right,0.5112,,202.5888,202.5892,,1,,202.5897,202.5899,,0,,1,202.59,202.59,202.5903,204.0878,0,31,31,31,1,0.2,0.8,0.8,0.2,1,0,,,,,,,,,,,,,,,,,,,,,,,,,,,,,,,,,,,,
,,5e508aeddf9ae90dc8210705,66fc98b3ff9cd954959acd72,2024-10-02_13h51.11.042,mdp,2024.2.1,Win32,60.24096386,66fa4ebf79326e780c390304,,,,,,,,,,,,,,,,,,,,,204.0881,204.0881,204.0887,205.2049,1,1,right,0.6061,,205.2057,205.2061,,1,,205.2064,205.2067,,0,,0,205.2068,205.2068,205.2071,206.7069,0,32,32,32,1,0.8,0.2,0.6,0.4,1,0,,,,,,,,,,,,,,,,,,,,,,,,,,,,,,,,,,,,
,,5e508aeddf9ae90dc8210705,66fc98b3ff9cd954959acd72,2024-10-02_13h51.11.042,mdp,2024.2.1,Win32,60.24096386,66fa4ebf79326e780c390304,,,,,,,,,,,,,,,,,,,,,206.7072,206.7072,206.7077,207.6732,0,0,left,0.4432,,207.6741,207.6745,,1,,207.6749,207.6751,,0,,1,207.6751,207.6751,207.6754,209.1748,0,33,33,33,1,0.8,0.2,0.6,0.4,1,0,,,,,,,,,,,,,,,,,,,,,,,,,,,,,,,,,,,,
,,5e508aeddf9ae90dc8210705,66fc98b3ff9cd954959acd72,2024-10-02_13h51.11.042,mdp,2024.2.1,Win32,60.24096386,66fa4ebf79326e780c390304,,,,,,,,,,,,,,,,,,,,,209.1752,209.1752,209.1758,210.3918,0,0,left,0.6924,,210.3926,210.393,,1,,210.3935,210.394,,1,,1,210.394,210.394,210.3943,211.8919,0,34,34,34,1,0.6,0.4,0.4,0.6,1,0,,,,,,,,,,,,,,,,,,,,,,,,,,,,,,,,,,,,
,,5e508aeddf9ae90dc8210705,66fc98b3ff9cd954959acd72,2024-10-02_13h51.11.042,mdp,2024.2.1,Win32,60.24096386,66fa4ebf79326e780c390304,,,,,,,,,,,,,,,,,,,,,211.8922,211.8922,211.8927,213.393,0,1,left,0.9979,,213.3939,213.3945,,1,,213.395,213.3955,,0,,0,213.3955,213.3955,213.3959,214.893,0,35,35,35,1,0.6,0.4,0.4,0.6,1,0,,,,,,,,,,,,,,,,,,,,,,,,,,,,,,,,,,,,
,,5e508aeddf9ae90dc8210705,66fc98b3ff9cd954959acd72,2024-10-02_13h51.11.042,mdp,2024.2.1,Win32,60.24096386,66fa4ebf79326e780c390304,,,,,,,,,,,,,,,,,,,,,214.8933,214.8933,214.8941,215.4943,1,0,right,0.0842,,215.4951,215.4954,,0,,215.4956,215.4958,,0,,1,215.4958,215.4958,215.496,216.9956,0,36,36,36,1,0.2,0.8,0.8,0.2,1,0,,,,,,,,,,,,,,,,,,,,,,,,,,,,,,,,,,,,
,,5e508aeddf9ae90dc8210705,66fc98b3ff9cd954959acd72,2024-10-02_13h51.11.042,mdp,2024.2.1,Win32,60.24096386,66fa4ebf79326e780c390304,,,,,,,,,,,,,,,,,,,,,216.9958,216.9958,216.9965,217.8454,1,0,right,0.3442,,217.8462,217.8465,,0,,217.847,217.8474,,0,,1,217.8475,217.8475,217.8477,219.3468,0,37,37,37,1,0.2,0.8,0.8,0.2,1,0,,,,,,,,,,,,,,,,,,,,,,,,,,,,,,,,,,,,
,,5e508aeddf9ae90dc8210705,66fc98b3ff9cd954959acd72,2024-10-02_13h51.11.042,mdp,2024.2.1,Win32,60.24096386,66fa4ebf79326e780c390304,,,,,,,,,,,,,,,,,,,,,219.3471,219.3471,219.3479,220.4474,1,0,right,0.5732,,220.448,220.4483,,0,,220.4487,220.449,,0,,1,220.449,220.449,220.4492,221.9483,0,38,38,38,1,0.2,0.8,0.8,0.2,1,0,,,,,,,,,,,,,,,,,,,,,,,,,,,,,,,,,,,,
,,5e508aeddf9ae90dc8210705,66fc98b3ff9cd954959acd72,2024-10-02_13h51.11.042,mdp,2024.2.1,Win32,60.24096386,66fa4ebf79326e780c390304,,,,,,,,,,,,,,,,,,,,,221.9485,221.9485,221.9492,222.9987,1,0,right,0.5469,,222.9996,223.0001,,0,,223.0005,223.0009,,0,,1,223.001,223.001,223.0012,224.4996,0,39,39,39,1,0.2,0.8,0.8,0.2,1,0,,,,,,,,,,,,,,,,,,,,,,,,,,,,,,,,,,,,
,,5e508aeddf9ae90dc8210705,66fc98b3ff9cd954959acd72,2024-10-02_13h51.11.042,mdp,2024.2.1,Win32,60.24096386,66fa4ebf79326e780c390304,,,,,,,,,,,,,,,,,,,,,224.4998,224.4999,224.5012,225.4339,1,0,right,0.4112,,225.4345,225.4348,,0,,225.4353,225.4355,,0,,1,225.4355,225.4355,225.4359,226.9342,0,40,40,40,1,0.2,0.8,0.8,0.2,1,0,,,,,,,,,,,,,,,,,,,,,,,,,,,,,,,,,,,,
,,5e508aeddf9ae90dc8210705,66fc98b3ff9cd954959acd72,2024-10-02_13h51.11.042,mdp,2024.2.1,Win32,60.24096386,66fa4ebf79326e780c390304,,,,,,,,,,,,,,,,,,,,,226.9346,226.9346,226.9353,227.8009,1,0,right,0.3529,,227.8014,227.8018,,0,,227.802,227.8022,,0,,1,227.8023,227.8023,227.8024,229.3022,0,41,41,41,1,0.2,0.8,0.8,0.2,1,0,,,,,,,,,,,,,,,,,,,,,,,,,,,,,,,,,,,,
,,5e508aeddf9ae90dc8210705,66fc98b3ff9cd954959acd72,2024-10-02_13h51.11.042,mdp,2024.2.1,Win32,60.24096386,66fa4ebf79326e780c390304,,,,,,,,,,,,,,,,,,,,,229.3024,229.3024,229.303,230.3692,1,0,right,0.5397,,230.3698,230.37,,0,,230.3703,230.3704,,1,,1,230.3704,230.3704,230.3706,231.8697,0,42,42,42,1,0.2,0.8,0.8,0.2,1,0,,,,,,,,,,,,,,,,,,,,,,,,,,,,,,,,,,,,
,,5e508aeddf9ae90dc8210705,66fc98b3ff9cd954959acd72,2024-10-02_13h51.11.042,mdp,2024.2.1,Win32,60.24096386,66fa4ebf79326e780c390304,,,,,,,,,,,,,,,,,,,,,231.87,231.8701,231.8709,232.6535,1,1,right,0.2721,,232.6543,232.6546,,1,,232.6551,232.6552,,0,,0,232.6552,232.6552,232.6555,234.154,0,43,43,43,1,0.6,0.4,0.6,0.4,1,0,,,,,,,,,,,,,,,,,,,,,,,,,,,,,,,,,,,,
,,5e508aeddf9ae90dc8210705,66fc98b3ff9cd954959acd72,2024-10-02_13h51.11.042,mdp,2024.2.1,Win32,60.24096386,66fa4ebf79326e780c390304,,,,,,,,,,,,,,,,,,,,,234.1545,234.1545,234.1552,235.021,0,0,left,0.3479,,235.0218,235.0222,,0,,235.0227,235.0233,,0,,1,235.0233,235.0233,235.0238,236.5216,0,44,44,44,1,0.8,0.2,0.8,0.2,1,0,,,,,,,,,,,,,,,,,,,,,,,,,,,,,,,,,,,,
,,5e508aeddf9ae90dc8210705,66fc98b3ff9cd954959acd72,2024-10-02_13h51.11.042,mdp,2024.2.1,Win32,60.24096386,66fa4ebf79326e780c390304,,,,,,,,,,,,,,,,,,,,,236.5218,236.5218,236.5224,237.4726,0,1,left,0.437,,237.4734,237.4737,,1,,237.474,237.4742,,1,,0,237.4742,237.4742,237.4743,238.9731,0,45,45,45,1,0.2,0.8,0.6,0.4,1,0,,,,,,,,,,,,,,,,,,,,,,,,,,,,,,,,,,,,
,,5e508aeddf9ae90dc8210705,66fc98b3ff9cd954959acd72,2024-10-02_13h51.11.042,mdp,2024.2.1,Win32,60.24096386,66fa4ebf79326e780c390304,,,,,,,,,,,,,,,,,,,,,238.9735,238.9735,238.9745,240.0572,1,0,right,0.5795,,240.0581,240.0584,,1,,240.0587,240.0589,,0,,1,240.0589,240.0589,240.0593,241.5583,0,46,46,46,1,0.2,0.8,0.6,0.4,1,0,,,,,,,,,,,,,,,,,,,,,,,,,,,,,,,,,,,,
,,5e508aeddf9ae90dc8210705,66fc98b3ff9cd954959acd72,2024-10-02_13h51.11.042,mdp,2024.2.1,Win32,60.24096386,66fa4ebf79326e780c390304,,,,,,,,,,,,,,,,,,,,,241.5586,241.5586,241.5594,242.9083,1,0,right,0.8247,,242.9094,242.9099,,1,,242.9105,242.9107,,0,,1,242.9108,242.9108,242.9111,244.4093,0,47,47,47,1,0.8,0.2,0.4,0.6,1,0,,,,,,,,,,,,,,,,,,,,,,,,,,,,,,,,,,,,
,,5e508aeddf9ae90dc8210705,66fc98b3ff9cd954959acd72,2024-10-02_13h51.11.042,mdp,2024.2.1,Win32,60.24096386,66fa4ebf79326e780c390304,,,,,,,,,,,,,,,,,,,,,244.4096,244.4096,244.4105,245.4772,1,1,right,0.5342,,245.478,245.4783,,1,,245.4786,245.4789,,0,,0,245.4789,245.4789,245.4791,246.978,0,48,48,48,1,0.8,0.2,0.4,0.6,1,0,,,,,,,,,,,,,,,,,,,,,,,,,,,,,,,,,,,,
,,5e508aeddf9ae90dc8210705,66fc98b3ff9cd954959acd72,2024-10-02_13h51.11.042,mdp,2024.2.1,Win32,60.24096386,66fa4ebf79326e780c390304,,,,,,,,,,,,,,,,,,,,,246.9782,246.9782,246.9789,247.8448,0,0,left,0.3524,,247.8456,247.8459,,0,,247.8463,247.8468,,0,,1,247.8468,247.8468,247.847,249.3459,0,49,49,49,1,0.8,0.2,0.4,0.6,1,0,,,,,,,,,,,,,,,,,,,,,,,,,,,,,,,,,,,,
,,5e508aeddf9ae90dc8210705,66fc98b3ff9cd954959acd72,2024-10-02_13h51.11.042,mdp,2024.2.1,Win32,60.24096386,66fa4ebf79326e780c390304,,,,,,,,,,,,,,,,,,,,,,,,,,,,,,,,,,,,,,,,,,,,,,,,,,,,,,,,249.3462,307.8611,0,0,0,3,1,imgs/elephant.png,imgs/dog.png,imgs/squirrel.png,imgs/goat.png,imgs/lion.png,,,,,,,,,,,,,,,,,,,,,,,,
,,5e508aeddf9ae90dc8210705,66fc98b3ff9cd954959acd72,2024-10-02_13h51.11.042,mdp,2024.2.1,Win32,60.24096386,66fa4ebf79326e780c390304,,,,,,,,,,,,,,2,seqs/st2seq37.csv,307.8619,310.2949,space,1.9101,,310.2983,310.2983,310.2987,312.1463,1,0,right,1.3233,,312.1469,314.0633,1,1,right,314.064,314.0645,,1,,0,314.0645,314.0645,314.0651,315.5643,0,0,0,0,1,0.8,0.2,0.2,0.8,,,,,,,,,,,,,,,1.3832,,0.6,0.4,0.4,0.6,0.6,0.4,0.2,0.8,1,0,,,,,,,,,,,,
,,5e508aeddf9ae90dc8210705,66fc98b3ff9cd954959acd72,2024-10-02_13h51.11.042,mdp,2024.2.1,Win32,60.24096386,66fa4ebf79326e780c390304,,,,,,,,,,,,,,,,,,,,,315.5647,315.5647,315.5655,316.9486,0,1,left,0.8623,,316.9493,318.4497,0,0,left,318.4504,318.4507,,1,,1,318.4508,318.4508,318.4511,319.9496,0,1,1,1,1,0.8,0.2,0.2,0.8,,,,,,,,,,,,,,,0.9664,,0.6,0.4,0.4,0.6,0.6,0.4,0.2,0.8,1,0,,,,,,,,,,,,
,,5e508aeddf9ae90dc8210705,66fc98b3ff9cd954959acd72,2024-10-02_13h51.11.042,mdp,2024.2.1,Win32,60.24096386,66fa4ebf79326e780c390304,,,,,,,,,,,,,,,,,,,,,319.95,319.95,319.9505,321.8339,0,0,left,1.3653,,321.8349,325.5025,0,1,left,325.5034,325.5038,,0,,0,325.5038,325.5038,325.5042,327.0037,0,2,2,2,1,0.8,0.2,0.2,0.8,,,,,,,,,,,,,,,3.1562,,0.6,0.4,0.4,0.6,0.6,0.4,0.2,0.8,1,0,,,,,,,,,,,,
,,5e508aeddf9ae90dc8210705,66fc98b3ff9cd954959acd72,2024-10-02_13h51.11.042,mdp,2024.2.1,Win32,60.24096386,66fa4ebf79326e780c390304,,,,,,,,,,,,,,,,,,,,,327.004,327.004,327.0047,328.7219,0,0,left,1.202,,328.7224,330.7397,1,0,right,330.7405,330.741,,1,,1,330.741,330.741,330.7413,332.2403,0,3,3,3,1,0.8,0.2,0.2,0.8,,,,,,,,,,,,,,,1.4939,,0.6,0.4,0.4,0.6,0.6,0.4,0.2,0.8,1,0,,,,,,,,,,,,
,,5e508aeddf9ae90dc8210705,66fc98b3ff9cd954959acd72,2024-10-02_13h51.11.042,mdp,2024.2.1,Win32,60.24096386,66fa4ebf79326e780c390304,,,,,,,,,,,,,,,,,,,,,332.2406,332.2406,332.2412,333.3744,0,0,left,0.6075,,333.3754,334.9085,1,0,right,334.9094,334.91,,0,,1,334.9101,334.9101,334.9106,336.4094,0,4,4,4,1,0.8,0.2,0.2,0.8,,,,,,,,,,,,,,,1.0188,,0.6,0.4,0.4,0.6,0.6,0.4,0.2,0.8,1,0,,,,,,,,,,,,
,,5e508aeddf9ae90dc8210705,66fc98b3ff9cd954959acd72,2024-10-02_13h51.11.042,mdp,2024.2.1,Win32,60.24096386,66fa4ebf79326e780c390304,,,,,,,,,,,,,,,,,,,,,336.4097,336.4097,336.4107,338.9776,0,1,left,2.0479,,338.9783,340.8283,1,1,right,340.8294,340.8299,,1,,0,340.83,340.83,340.8303,342.329,0,5,5,5,1,0.6,0.4,0.6,0.4,,,,,,,,,,,,,,,1.3196,,0.6,0.4,0.4,0.6,0.6,0.4,0.2,0.8,1,0,,,,,,,,,,,,
,,5e508aeddf9ae90dc8210705,66fc98b3ff9cd954959acd72,2024-10-02_13h51.11.042,mdp,2024.2.1,Win32,60.24096386,66fa4ebf79326e780c390304,,,,,,,,,,,,,,,,,,,,,342.3292,342.3292,342.33,343.78,0,0,left,0.9463,,343.7807,345.9145,1,1,right,345.9151,345.9156,,1,,0,345.9157,345.9157,345.916,347.4147,0,6,6,6,1,0.8,0.2,0.2,0.8,,,,,,,,,,,,,,,1.6193,,0.6,0.4,0.4,0.6,0.6,0.4,0.2,0.8,1,0,,,,,,,,,,,,
,,5e508aeddf9ae90dc8210705,66fc98b3ff9cd954959acd72,2024-10-02_13h51.11.042,mdp,2024.2.1,Win32,60.24096386,66fa4ebf79326e780c390304,,,,,,,,,,,,,,,,,,,,,347.415,347.415,347.4157,348.4824,0,0,left,0.5501,,348.4831,349.6992,0,0,left,349.7,349.7004,,1,,1,349.7005,349.7005,349.7009,351.2001,0,7,7,7,1,0.8,0.2,0.2,0.8,,,,,,,,,,,,,,,0.7051,,0.6,0.4,0.4,0.6,0.6,0.4,0.2,0.8,1,0,,,,,,,,,,,,
,,5e508aeddf9ae90dc8210705,66fc98b3ff9cd954959acd72,2024-10-02_13h51.11.042,mdp,2024.2.1,Win32,60.24096386,66fa4ebf79326e780c390304,,,,,,,,,,,,,,,,,,,,,351.2004,351.2004,351.2012,352.4842,0,0,left,0.7607,,352.485,353.8017,0,0,left,353.8024,353.803,,1,,1,353.803,353.803,353.8033,355.3032,0,8,8,8,1,0.8,0.2,0.2,0.8,,,,,,,,,,,,,,,0.7883,,0.6,0.4,0.4,0.6,0.6,0.4,0.2,0.8,1,0,,,,,,,,,,,,
,,5e508aeddf9ae90dc8210705,66fc98b3ff9cd954959acd72,2024-10-02_13h51.11.042,mdp,2024.2.1,Win32,60.24096386,66fa4ebf79326e780c390304,,,,,,,,,,,,,,,,,,,,,355.3034,355.3034,355.3041,356.5697,0,1,left,0.7563,,356.5707,357.8211,1,1,right,357.8217,357.8222,,1,,0,357.8223,357.8223,357.8227,359.3213,0,9,9,9,1,0.8,0.2,0.2,0.8,,,,,,,,,,,,,,,0.7409,,0.6,0.4,0.4,0.6,0.6,0.4,0.2,0.8,1,0,,,,,,,,,,,,
,,5e508aeddf9ae90dc8210705,66fc98b3ff9cd954959acd72,2024-10-02_13h51.11.042,mdp,2024.2.1,Win32,60.24096386,66fa4ebf79326e780c390304,,,,,,,,,,,,,,,,,,,,,359.3216,359.3217,359.3223,360.3717,0,0,left,0.5248,,360.3724,361.6394,0,1,left,361.6402,361.6406,,0,,0,361.6406,361.6406,361.641,363.1407,0,10,10,10,1,0.8,0.2,0.2,0.8,,,,,,,,,,,,,,,0.7507,,0.6,0.4,0.4,0.6,0.6,0.4,0.2,0.8,1,0,,,,,,,,,,,,
,,5e508aeddf9ae90dc8210705,66fc98b3ff9cd954959acd72,2024-10-02_13h51.11.042,mdp,2024.2.1,Win32,60.24096386,66fa4ebf79326e780c390304,,,,,,,,,,,,,,,,,,,,,363.141,363.141,363.1416,364.924,0,0,left,1.2504,,364.9248,366.7917,0,0,left,366.7925,366.793,,0,,1,366.793,366.793,366.7934,368.2922,0,11,11,11,1,0.8,0.2,0.2,0.8,,,,,,,,,,,,,,,1.3538,,0.6,0.4,0.4,0.6,0.6,0.4,0.2,0.8,1,0,,,,,,,,,,,,
,,5e508aeddf9ae90dc8210705,66fc98b3ff9cd954959acd72,2024-10-02_13h51.11.042,mdp,2024.2.1,Win32,60.24096386,66fa4ebf79326e780c390304,,,,,,,,,,,,,,,,,,,,,368.2926,368.2926,368.2933,369.2103,0,0,left,0.4096,,369.2112,370.5101,0,0,left,370.5109,370.5114,,0,,1,370.5114,370.5114,370.5118,372.011,0,12,12,12,1,0.8,0.2,0.2,0.8,,,,,,,,,,,,,,,0.7879,,0.6,0.4,0.4,0.6,0.6,0.4,0.2,0.8,1,0,,,,,,,,,,,,
,,5e508aeddf9ae90dc8210705,66fc98b3ff9cd954959acd72,2024-10-02_13h51.11.042,mdp,2024.2.1,Win32,60.24096386,66fa4ebf79326e780c390304,,,,,,,,,,,,,,,,,,,,,372.0114,372.0114,372.0119,373.1623,0,0,left,0.6199,,373.163,374.4288,0,0,left,374.4296,374.4301,,0,,1,374.4302,374.4302,374.4307,375.9298,0,13,13,13,1,0.8,0.2,0.2,0.8,,,,,,,,,,,,,,,0.7338,,0.6,0.4,0.4,0.6,0.6,0.4,0.2,0.8,1,0,,,,,,,,,,,,
,,5e508aeddf9ae90dc8210705,66fc98b3ff9cd954959acd72,2024-10-02_13h51.11.042,mdp,2024.2.1,Win32,60.24096386,66fa4ebf79326e780c390304,,,,,,,,,,,,,,,,,,,,,375.9304,375.9304,375.9312,376.9803,0,0,left,0.5308,,376.9813,378.2143,0,1,left,378.215,378.2154,,1,,0,378.2155,378.2155,378.216,379.7149,0,14,14,14,1,0.8,0.2,0.2,0.8,,,,,,,,,,,,,,,0.7244,,0.6,0.4,0.4,0.6,0.6,0.4,0.2,0.8,1,0,,,,,,,,,,,,
,,5e508aeddf9ae90dc8210705,66fc98b3ff9cd954959acd72,2024-10-02_13h51.11.042,mdp,2024.2.1,Win32,60.24096386,66fa4ebf79326e780c390304,,,,,,,,,,,,,,,,,,,,,379.7153,379.7153,379.7157,380.6495,0,0,left,0.4208,,380.6501,381.8171,1,0,right,381.8179,381.8184,,0,,1,381.8185,381.8185,381.819,383.3173,0,15,15,15,1,0.8,0.2,0.2,0.8,,,,,,,,,,,,,,,0.6526,,0.2,0.8,0.2,0.8,0.6,0.4,0.2,0.8,1,0,,,,,,,,,,,,
,,5e508aeddf9ae90dc8210705,66fc98b3ff9cd954959acd72,2024-10-02_13h51.11.042,mdp,2024.2.1,Win32,60.24096386,66fa4ebf79326e780c390304,,,,,,,,,,,,,,,,,,,,,383.3175,383.3175,383.3181,384.3849,0,0,left,0.5587,,384.3859,385.8014,1,1,right,385.8022,385.8027,,1,,0,385.8027,385.8027,385.8033,387.3025,0,16,16,16,1,0.8,0.2,0.2,0.8,,,,,,,,,,,,,,,0.9133,,0.2,0.8,0.2,0.8,0.6,0.4,0.2,0.8,1,0,,,,,,,,,,,,
,,5e508aeddf9ae90dc8210705,66fc98b3ff9cd954959acd72,2024-10-02_13h51.11.042,mdp,2024.2.1,Win32,60.24096386,66fa4ebf79326e780c390304,,,,,,,,,,,,,,,,,,,,,387.3028,387.3028,387.3036,388.4203,0,0,left,0.6132,,388.4212,389.5536,0,1,left,389.5545,389.5551,,0,,0,389.5551,389.5551,389.5556,391.0552,0,17,17,17,1,0.8,0.2,0.2,0.8,,,,,,,,,,,,,,,0.6058,,0.2,0.8,0.2,0.8,0.6,0.4,0.2,0.8,1,0,,,,,,,,,,,,
,,5e508aeddf9ae90dc8210705,66fc98b3ff9cd954959acd72,2024-10-02_13h51.11.042,mdp,2024.2.1,Win32,60.24096386,66fa4ebf79326e780c390304,,,,,,,,,,,,,,,,,,,,,391.0555,391.0555,391.0559,392.5388,0,0,left,0.9804,,392.5396,393.6233,0,1,left,393.6241,393.6246,,1,,0,393.6246,393.6246,393.6251,395.124,0,18,18,18,1,0.8,0.2,0.2,0.8,,,,,,,,,,,,,,,0.579,,0.2,0.8,0.2,0.8,0.6,0.4,0.2,0.8,1,0,,,,,,,,,,,,
,,5e508aeddf9ae90dc8210705,66fc98b3ff9cd954959acd72,2024-10-02_13h51.11.042,mdp,2024.2.1,Win32,60.24096386,66fa4ebf79326e780c390304,,,,,,,,,,,,,,,,,,,,,395.1243,395.1243,395.1249,396.7087,0,0,left,1.0603,,396.7093,397.8915,1,0,right,397.8923,397.8927,,1,,1,397.8927,397.8927,397.8931,399.3931,0,19,19,19,1,0.8,0.2,0.2,0.8,,,,,,,,,,,,,,,0.6609,,0.2,0.8,0.2,0.8,0.6,0.4,0.2,0.8,1,0,,,,,,,,,,,,
,,5e508aeddf9ae90dc8210705,66fc98b3ff9cd954959acd72,2024-10-02_13h51.11.042,mdp,2024.2.1,Win32,60.24096386,66fa4ebf79326e780c390304,,,,,,,,,,,,,,,,,,,,,399.3932,399.3932,399.3936,400.4097,0,1,left,0.5096,,400.4106,402.4114,0,1,left,402.4123,402.4129,,1,,0,402.413,402.413,402.4137,403.9112,0,20,20,20,1,0.8,0.2,0.2,0.8,,,,,,,,,,,,,,,1.4949,,0.2,0.8,0.2,0.8,0.6,0.4,0.2,0.8,1,0,,,,,,,,,,,,
,,5e508aeddf9ae90dc8210705,66fc98b3ff9cd954959acd72,2024-10-02_13h51.11.042,mdp,2024.2.1,Win32,60.24096386,66fa4ebf79326e780c390304,,,,,,,,,,,,,,,,,,,,,403.9115,403.9115,403.9125,405.2291,0,0,left,0.8084,,405.23,406.7642,0,0,left,406.765,406.7655,,1,,1,406.7655,406.7655,406.7661,408.2638,0,21,21,21,1,0.8,0.2,0.2,0.8,,,,,,,,,,,,,,,1.0038,,0.2,0.8,0.2,0.8,0.6,0.4,0.2,0.8,1,0,,,,,,,,,,,,
,,5e508aeddf9ae90dc8210705,66fc98b3ff9cd954959acd72,2024-10-02_13h51.11.042,mdp,2024.2.1,Win32,60.24096386,66fa4ebf79326e780c390304,,,,,,,,,,,,,,,,,,,,,408.2642,408.2642,408.2648,409.3143,0,0,left,0.5472,,409.3154,410.5983,0,1,left,410.599,410.5994,,1,,0,410.5994,410.5994,410.5998,412.099,0,22,22,22,1,0.8,0.2,0.2,0.8,,,,,,,,,,,,,,,0.7502,,0.2,0.8,0.2,0.8,0.6,0.4,0.2,0.8,1,0,,,,,,,,,,,,
,,5e508aeddf9ae90dc8210705,66fc98b3ff9cd954959acd72,2024-10-02_13h51.11.042,mdp,2024.2.1,Win32,60.24096386,66fa4ebf79326e780c390304,,,,,,,,,,,,,,,,,,,,,412.0994,412.0994,412.1002,413.2679,0,1,left,0.6548,,413.2688,414.9681,1,1,right,414.9688,414.9691,,1,,0,414.9692,414.9692,414.9696,416.4689,0,23,23,23,1,0.8,0.2,0.2,0.8,,,,,,,,,,,,,,,1.1655,,0.2,0.8,0.2,0.8,0.6,0.4,0.2,0.8,1,0,,,,,,,,,,,,
,,5e508aeddf9ae90dc8210705,66fc98b3ff9cd954959acd72,2024-10-02_13h51.11.042,mdp,2024.2.1,Win32,60.24096386,66fa4ebf79326e780c390304,,,,,,,,,,,,,,,,,,,,,416.4693,416.4693,416.4702,417.5697,0,0,left,0.57,,417.5705,419.2539,1,0,right,419.2547,419.2552,,1,,1,419.2553,419.2553,419.256,420.7536,0,24,24,24,1,0.8,0.2,0.2,0.8,,,,,,,,,,,,,,,1.1619,,0.2,0.8,0.2,0.8,0.6,0.4,0.2,0.8,1,0,,,,,,,,,,,,
,,5e508aeddf9ae90dc8210705,66fc98b3ff9cd954959acd72,2024-10-02_13h51.11.042,mdp,2024.2.1,Win32,60.24096386,66fa4ebf79326e780c390304,,,,,,,,,,,,,,,,,,,,,420.754,420.754,420.7547,421.8711,0,1,left,0.6057,,421.8721,423.1716,0,0,left,423.1725,423.1731,,0,,1,423.1731,423.1732,423.1737,424.672,0,25,25,25,1,0.8,0.2,0.2,0.8,,,,,,,,,,,,,,,0.7793,,0.2,0.8,0.2,0.8,0.6,0.4,0.2,0.8,1,0,,,,,,,,,,,,
,,5e508aeddf9ae90dc8210705,66fc98b3ff9cd954959acd72,2024-10-02_13h51.11.042,mdp,2024.2.1,Win32,60.24096386,66fa4ebf79326e780c390304,,,,,,,,,,,,,,,,,,,,,424.6723,424.6723,424.673,425.6902,0,0,left,0.5053,,425.6908,427.074,1,1,right,427.0747,427.0751,,1,,0,427.0751,427.0751,427.0755,428.5747,0,26,26,26,1,0.8,0.2,0.2,0.8,,,,,,,,,,,,,,,0.8691,,0.2,0.8,0.2,0.8,0.6,0.4,0.2,0.8,1,0,,,,,,,,,,,,
,,5e508aeddf9ae90dc8210705,66fc98b3ff9cd954959acd72,2024-10-02_13h51.11.042,mdp,2024.2.1,Win32,60.24096386,66fa4ebf79326e780c390304,,,,,,,,,,,,,,,,,,,,,428.575,428.575,428.5757,429.743,0,0,left,0.6485,,429.7437,430.8271,0,1,left,430.8278,430.8283,,0,,0,430.8283,430.8283,430.8287,432.327,0,27,27,27,1,0.8,0.2,0.2,0.8,,,,,,,,,,,,,,,0.5557,,0.2,0.8,0.2,0.8,0.6,0.4,0.2,0.8,1,0,,,,,,,,,,,,
,,5e508aeddf9ae90dc8210705,66fc98b3ff9cd954959acd72,2024-10-02_13h51.11.042,mdp,2024.2.1,Win32,60.24096386,66fa4ebf79326e780c390304,,,,,,,,,,,,,,,,,,,,,432.3273,432.3274,432.3281,433.3108,0,1,left,0.4522,,433.3116,434.4942,0,0,left,434.4951,434.4956,,0,,1,434.4956,434.4956,434.4959,435.9954,0,28,28,28,1,0.8,0.2,0.2,0.8,,,,,,,,,,,,,,,0.6545,,0.2,0.8,0.2,0.8,0.6,0.4,0.2,0.8,1,0,,,,,,,,,,,,
,,5e508aeddf9ae90dc8210705,66fc98b3ff9cd954959acd72,2024-10-02_13h51.11.042,mdp,2024.2.1,Win32,60.24096386,66fa4ebf79326e780c390304,,,,,,,,,,,,,,,,,,,,,435.9959,435.9959,435.9967,436.929,0,0,left,0.4069,,436.9298,437.896,1,1,right,437.8969,437.8974,,1,,0,437.8975,437.8975,437.8979,439.3967,0,29,29,29,1,0.8,0.2,0.2,0.8,,,,,,,,,,,,,,,0.4289,,0.2,0.8,0.2,0.8,0.6,0.4,0.2,0.8,1,0,,,,,,,,,,,,
,,5e508aeddf9ae90dc8210705,66fc98b3ff9cd954959acd72,2024-10-02_13h51.11.042,mdp,2024.2.1,Win32,60.24096386,66fa4ebf79326e780c390304,,,,,,,,,,,,,,,,,,,,,439.3971,439.3971,439.3978,440.8311,0,0,left,0.9283,,440.832,442.8162,0,1,left,442.817,442.8173,,1,,0,442.8173,442.8173,442.8178,444.3166,0,30,30,30,1,0.8,0.2,0.2,0.8,,,,,,,,,,,,,,,1.4552,,0.2,0.8,0.2,0.8,0.6,0.4,0.2,0.8,1,0,,,,,,,,,,,,
,,5e508aeddf9ae90dc8210705,66fc98b3ff9cd954959acd72,2024-10-02_13h51.11.042,mdp,2024.2.1,Win32,60.24096386,66fa4ebf79326e780c390304,,,,,,,,,,,,,,,,,,,,,444.317,444.317,444.3177,445.618,0,0,left,0.7151,,445.6187,447.0026,0,1,left,447.0031,447.0037,,1,,0,447.0037,447.0037,447.004,448.4938,0,31,31,31,1,0.8,0.2,0.2,0.8,,,,,,,,,,,,,,,0.8747,,0.2,0.8,0.2,0.8,0.6,0.4,0.2,0.8,1,0,,,,,,,,,,,,
,,5e508aeddf9ae90dc8210705,66fc98b3ff9cd954959acd72,2024-10-02_13h51.11.042,mdp,2024.2.1,Win32,60.24096386,66fa4ebf79326e780c390304,,,,,,,,,,,,,,,,,,,,,448.4941,448.4941,448.4948,451.0551,1,0,right,2.0397,,451.0555,452.0996,1,1,right,452.1003,452.1008,,1,,0,452.1008,452.1008,452.1013,453.5892,0,32,32,32,1,0.8,0.2,0.2,0.8,,,,,,,,,,,,,,,0.5298,,0.2,0.8,0.2,0.8,0.6,0.4,0.2,0.8,1,0,,,,,,,,,,,,
,,5e508aeddf9ae90dc8210705,66fc98b3ff9cd954959acd72,2024-10-02_13h51.11.042,mdp,2024.2.1,Win32,60.24096386,66fa4ebf79326e780c390304,,,,,,,,,,,,,,,,,,,,,453.5894,453.5894,453.59,454.5908,0,0,left,0.4882,,454.5914,455.8418,0,1,left,455.8424,455.8428,,1,,0,455.8428,455.8428,455.8432,457.3424,0,33,33,33,1,0.8,0.2,0.2,0.8,,,,,,,,,,,,,,,0.7365,,0.2,0.8,0.2,0.8,0.6,0.4,0.2,0.8,1,0,,,,,,,,,,,,
,,5e508aeddf9ae90dc8210705,66fc98b3ff9cd954959acd72,2024-10-02_13h51.11.042,mdp,2024.2.1,Win32,60.24096386,66fa4ebf79326e780c390304,,,,,,,,,,,,,,,,,,,,,457.3427,457.3427,457.343,458.6856,0,1,left,0.8222,,458.6862,459.9431,1,1,right,459.9438,459.9441,,1,,0,459.9441,459.9441,459.9444,461.4438,0,34,34,34,1,0.4,0.6,0.6,0.4,,,,,,,,,,,,,,,0.7419,,0.2,0.8,0.2,0.8,0.6,0.4,0.2,0.8,1,0,,,,,,,,,,,,
,,5e508aeddf9ae90dc8210705,66fc98b3ff9cd954959acd72,2024-10-02_13h51.11.042,mdp,2024.2.1,Win32,60.24096386,66fa4ebf79326e780c390304,,,,,,,,,,,,,,,,,,,,,461.4441,461.4441,461.4445,462.4445,1,0,right,0.49,,462.4451,463.6116,1,1,right,463.6121,463.6124,,1,,0,463.6124,463.6124,463.6127,465.1122,0,35,35,35,1,0.4,0.6,0.6,0.4,,,,,,,,,,,,,,,0.634,,0.2,0.8,0.2,0.8,0.6,0.4,0.2,0.8,1,0,,,,,,,,,,,,
,,5e508aeddf9ae90dc8210705,66fc98b3ff9cd954959acd72,2024-10-02_13h51.11.042,mdp,2024.2.1,Win32,60.24096386,66fa4ebf79326e780c390304,,,,,,,,,,,,,,,,,,,,,465.1123,465.1123,465.1127,466.2465,1,0,right,0.6174,,466.247,467.3639,0,1,left,467.3644,467.3646,,1,,0,467.3647,467.3647,467.3649,468.8644,0,36,36,36,1,0.4,0.6,0.6,0.4,,,,,,,,,,,,,,,0.5879,,0.2,0.8,0.2,0.8,0.2,0.8,0.6,0.4,1,0,,,,,,,,,,,,
,,5e508aeddf9ae90dc8210705,66fc98b3ff9cd954959acd72,2024-10-02_13h51.11.042,mdp,2024.2.1,Win32,60.24096386,66fa4ebf79326e780c390304,,,,,,,,,,,,,,,,,,,,,468.8645,468.8646,468.865,470.0315,0,0,left,0.6569,,470.0321,471.4003,0,1,left,471.4009,471.4011,,1,,0,471.4012,471.4012,471.4015,472.8935,0,37,37,37,1,0.4,0.6,0.6,0.4,,,,,,,,,,,,,,,0.8651,,0.2,0.8,0.2,0.8,0.2,0.8,0.6,0.4,1,0,,,,,,,,,,,,
,,5e508aeddf9ae90dc8210705,66fc98b3ff9cd954959acd72,2024-10-02_13h51.11.042,mdp,2024.2.1,Win32,60.24096386,66fa4ebf79326e780c390304,,,,,,,,,,,,,,,,,,,,,472.8938,472.8938,472.8943,473.9505,0,0,left,0.5426,,473.9513,475.0352,1,1,right,475.0356,475.0359,,1,,0,475.0359,475.0359,475.0362,476.5349,0,38,38,38,1,0.4,0.6,0.6,0.4,,,,,,,,,,,,,,,0.5727,,0.2,0.8,0.2,0.8,0.2,0.8,0.6,0.4,1,0,,,,,,,,,,,,
,,5e508aeddf9ae90dc8210705,66fc98b3ff9cd954959acd72,2024-10-02_13h51.11.042,mdp,2024.2.1,Win32,60.24096386,66fa4ebf79326e780c390304,,,,,,,,,,,,,,,,,,,,,476.535,476.5351,476.5355,477.5022,1,0,right,0.4575,,477.5028,478.5531,0,1,left,478.5537,478.554,,1,,0,478.554,478.554,478.5543,480.0538,0,39,39,39,1,0.4,0.6,0.6,0.4,,,,,,,,,,,,,,,0.5386,,0.2,0.8,0.2,0.8,0.2,0.8,0.6,0.4,1,0,,,,,,,,,,,,
,,5e508aeddf9ae90dc8210705,66fc98b3ff9cd954959acd72,2024-10-02_13h51.11.042,mdp,2024.2.1,Win32,60.24096386,66fa4ebf79326e780c390304,,,,,,,,,,,,,,,,,,,,,480.0541,480.0541,480.0546,481.2956,0,1,left,0.7247,,481.2962,482.4218,0,1,left,482.4224,482.4227,,1,,0,482.4227,482.4227,482.423,483.9225,0,40,40,40,1,0.4,0.6,0.6,0.4,,,,,,,,,,,,,,,0.5985,,0.2,0.8,0.2,0.8,0.2,0.8,0.6,0.4,1,0,,,,,,,,,,,,
,,5e508aeddf9ae90dc8210705,66fc98b3ff9cd954959acd72,2024-10-02_13h51.11.042,mdp,2024.2.1,Win32,60.24096386,66fa4ebf79326e780c390304,,,,,,,,,,,,,,,,,,,,,483.9227,483.9227,483.9233,485.6404,1,0,right,1.2078,,485.641,487.1238,1,1,right,487.1243,487.1246,,1,,0,487.1247,487.1247,487.125,488.6249,0,41,41,41,1,0.4,0.6,0.6,0.4,,,,,,,,,,,,,,,0.9513,,0.2,0.8,0.2,0.8,0.2,0.8,0.6,0.4,1,0,,,,,,,,,,,,
,,5e508aeddf9ae90dc8210705,66fc98b3ff9cd954959acd72,2024-10-02_13h51.11.042,mdp,2024.2.1,Win32,60.24096386,66fa4ebf79326e780c390304,,,,,,,,,,,,,,,,,,,,,488.6252,488.6252,488.6257,489.6421,1,1,right,0.4851,,489.6428,490.7597,0,1,left,490.7603,490.7606,,1,,0,490.7606,490.7606,490.7608,492.2582,0,42,42,42,1,0.8,0.2,0.2,0.8,,,,,,,,,,,,,,,0.5859,,0.2,0.8,0.2,0.8,0.2,0.8,0.6,0.4,1,0,,,,,,,,,,,,
,,5e508aeddf9ae90dc8210705,66fc98b3ff9cd954959acd72,2024-10-02_13h51.11.042,mdp,2024.2.1,Win32,60.24096386,66fa4ebf79326e780c390304,,,,,,,,,,,,,,,,,,,,,492.2587,492.2587,492.2595,493.459,1,1,right,0.6891,,493.4597,494.7932,1,1,right,494.7941,494.7946,,0,,0,494.7946,494.7946,494.7949,496.2948,0,43,43,43,1,0.8,0.2,0.2,0.8,,,,,,,,,,,,,,,0.8274,,0.2,0.8,0.2,0.8,0.2,0.8,0.6,0.4,1,0,,,,,,,,,,,,
,,5e508aeddf9ae90dc8210705,66fc98b3ff9cd954959acd72,2024-10-02_13h51.11.042,mdp,2024.2.1,Win32,60.24096386,66fa4ebf79326e780c390304,,,,,,,,,,,,,,,,,,,,,496.2952,496.2952,496.2959,497.4626,1,1,right,0.6368,,497.4634,498.7798,1,1,right,498.7804,498.7809,,1,,0,498.7809,498.7809,498.7812,500.2798,0,44,44,44,1,0.8,0.2,0.2,0.8,,,,,,,,,,,,,,,0.7924,,0.2,0.8,0.2,0.8,0.6,0.4,0.2,0.8,1,0,,,,,,,,,,,,
,,5e508aeddf9ae90dc8210705,66fc98b3ff9cd954959acd72,2024-10-02_13h51.11.042,mdp,2024.2.1,Win32,60.24096386,66fa4ebf79326e780c390304,,,,,,,,,,,,,,,,,,,,,500.2801,500.2802,500.2805,501.5144,0,1,left,0.7187,,501.5152,502.5484,0,0,left,502.5493,502.5497,,0,,1,502.5497,502.5497,502.55,504.0485,0,45,45,45,1,0.8,0.2,0.2,0.8,,,,,,,,,,,,,,,0.5234,,0.2,0.8,0.2,0.8,0.6,0.4,0.2,0.8,1,0,,,,,,,,,,,,
,,5e508aeddf9ae90dc8210705,66fc98b3ff9cd954959acd72,2024-10-02_13h51.11.042,mdp,2024.2.1,Win32,60.24096386,66fa4ebf79326e780c390304,,,,,,,,,,,,,,,,,,,,,504.0488,504.0488,504.0496,505.0494,0,0,left,0.4979,,505.0501,505.9501,0,1,left,505.9506,505.951,,1,,0,505.951,505.951,505.9512,507.4506,0,46,46,46,1,0.8,0.2,0.2,0.8,,,,,,,,,,,,,,,0.3644,,0.2,0.8,0.2,0.8,0.6,0.4,0.2,0.8,1,0,,,,,,,,,,,,
,,5e508aeddf9ae90dc8210705,66fc98b3ff9cd954959acd72,2024-10-02_13h51.11.042,mdp,2024.2.1,Win32,60.24096386,66fa4ebf79326e780c390304,,,,,,,,,,,,,,,,,,,,,507.4509,507.451,507.4516,508.3682,0,1,left,0.4093,,508.3688,509.3845,0,1,left,509.3854,509.3859,,1,,0,509.3859,509.3859,509.3864,510.885,0,47,47,47,1,0.8,0.2,0.2,0.8,,,,,,,,,,,,,,,0.4823,,0.2,0.8,0.2,0.8,0.6,0.4,0.2,0.8,1,0,,,,,,,,,,,,
,,5e508aeddf9ae90dc8210705,66fc98b3ff9cd954959acd72,2024-10-02_13h51.11.042,mdp,2024.2.1,Win32,60.24096386,66fa4ebf79326e780c390304,,,,,,,,,,,,,,,,,,,,,510.8854,510.8854,510.8863,511.9693,0,1,left,0.5784,,511.9701,513.003,1,1,right,513.0037,513.0042,,1,,0,513.0042,513.0042,513.0047,514.5037,0,48,48,48,1,0.4,0.6,0.4,0.6,,,,,,,,,,,,,,,0.5039,,0.2,0.8,0.2,0.8,0.6,0.4,0.2,0.8,1,0,,,,,,,,,,,,
,,5e508aeddf9ae90dc8210705,66fc98b3ff9cd954959acd72,2024-10-02_13h51.11.042,mdp,2024.2.1,Win32,60.24096386,66fa4ebf79326e780c390304,,,,,,,,,,,,,,,,,,,,,514.5041,514.5041,514.5048,515.7543,0,0,left,0.7256,,515.7552,516.7713,1,1,right,516.7722,516.773,,1,,0,516.773,516.773,516.7736,518.2734,0,49,49,49,1,0.4,0.6,0.4,0.6,,,,,,,,,,,,,,,0.4982,,0.2,0.8,0.2,0.8,0.6,0.4,0.2,0.8,1,0,,,,,,,,,,,,
,,5e508aeddf9ae90dc8210705,66fc98b3ff9cd954959acd72,2024-10-02_13h51.11.042,mdp,2024.2.1,Win32,60.24096386,66fa4ebf79326e780c390304,,,,,,,,,,,,,,,,,,,,,,,,,,,,,,,,,,,,,,,,,,,,,,,,,,,,,,,,518.2735,576.788,0,1,1,1,1,imgs/giraffe.png,imgs/horse.png,imgs/lion.png,imgs/elephant.png,imgs/rabbit.png,,,,,,,,,,,,,,,,,,,,,,,,
,,5e508aeddf9ae90dc8210705,66fc98b3ff9cd954959acd72,2024-10-02_13h51.11.042,mdp,2024.2.1,Win32,60.24096386,66fa4ebf79326e780c390304,,,,,,,,,,,,,,3,seqs/st3seq0.csv,576.7888,586.9596,space,9.6436,,586.9629,586.9629,586.9633,590.7277,0,1,left,3.2319,,590.7285,591.9956,0,1,left,591.9962,593.4131,0,0,left,1,593.4131,593.4131,593.4139,594.9138,0,0,0,0,1,0.2,0.8,0.8,0.2,,,,,,,,,,,,,,,0.7464,,0.6,0.4,0.4,0.6,0.2,0.8,0.6,0.4,,,0.8805,,0.8,0.2,0.2,0.8,0.4,0.6,0.2,0.8,1,0
,,5e508aeddf9ae90dc8210705,66fc98b3ff9cd954959acd72,2024-10-02_13h51.11.042,mdp,2024.2.1,Win32,60.24096386,66fa4ebf79326e780c390304,,,,,,,,,,,,,,,,,,,,,594.9142,594.9142,594.9147,596.2806,0,1,left,0.8372,,596.2812,597.3316,0,1,left,597.3325,598.299,0,1,left,0,598.2991,598.2991,598.2997,599.7995,0,1,1,1,1,0.2,0.8,0.8,0.2,,,,,,,,,,,,,,,0.5421,,0.6,0.4,0.4,0.6,0.2,0.8,0.6,0.4,,,0.4554,,0.8,0.2,0.2,0.8,0.4,0.6,0.2,0.8,1,0
,,5e508aeddf9ae90dc8210705,66fc98b3ff9cd954959acd72,2024-10-02_13h51.11.042,mdp,2024.2.1,Win32,60.24096386,66fa4ebf79326e780c390304,,,,,,,,,,,,,,,,,,,,,599.7999,599.7999,599.8004,601.1503,0,1,left,0.8463,,601.1512,602.3019,0,0,left,602.3024,603.3356,1,1,right,0,603.3356,603.3357,603.3364,604.8364,0,2,2,2,1,0.2,0.8,0.8,0.2,,,,,,,,,,,,,,,0.6234,,0.6,0.4,0.4,0.6,0.2,0.8,0.6,0.4,,,0.495,,0.8,0.2,0.2,0.8,0.4,0.6,0.2,0.8,1,0
,,5e508aeddf9ae90dc8210705,66fc98b3ff9cd954959acd72,2024-10-02_13h51.11.042,mdp,2024.2.1,Win32,60.24096386,66fa4ebf79326e780c390304,,,,,,,,,,,,,,,,,,,,,604.8366,604.8366,604.8371,606.1371,0,1,left,0.7771,,606.1381,607.3209,0,1,left,607.3215,608.9549,0,1,left,0,608.9549,608.9549,608.9554,610.4559,0,3,3,3,1,0.2,0.8,0.8,0.2,,,,,,,,,,,,,,,0.6585,,0.2,0.8,0.8,0.2,0.2,0.8,0.6,0.4,,,1.0998,,0.8,0.2,0.2,0.8,0.4,0.6,0.2,0.8,1,0
,,5e508aeddf9ae90dc8210705,66fc98b3ff9cd954959acd72,2024-10-02_13h51.11.042,mdp,2024.2.1,Win32,60.24096386,66fa4ebf79326e780c390304,,,,,,,,,,,,,,,,,,,,,610.4563,610.4563,610.4568,611.5054,1,0,right,0.5165,,611.5062,612.3898,1,0,right,612.3905,613.2898,1,1,right,0,613.2899,613.2899,613.2906,614.7909,0,4,4,4,1,0.2,0.8,0.8,0.2,,,,,,,,,,,,,,,0.3695,,0.2,0.8,0.8,0.2,0.2,0.8,0.6,0.4,,,0.3665,,0.8,0.2,0.2,0.8,0.4,0.6,0.2,0.8,1,0
,,5e508aeddf9ae90dc8210705,66fc98b3ff9cd954959acd72,2024-10-02_13h51.11.042,mdp,2024.2.1,Win32,60.24096386,66fa4ebf79326e780c390304,,,,,,,,,,,,,,,,,,,,,614.7912,614.7912,614.7916,616.6927,0,1,left,1.3725,,616.6933,617.7096,1,1,right,617.7104,618.6609,0,0,left,1,618.661,618.661,618.6615,620.1612,0,5,5,5,1,0.2,0.8,0.8,0.2,,,,,,,,,,,,,,,0.4886,,0.2,0.8,0.8,0.2,0.2,0.8,0.6,0.4,,,0.4112,,0.8,0.2,0.2,0.8,0.4,0.6,0.2,0.8,1,0
,,5e508aeddf9ae90dc8210705,66fc98b3ff9cd954959acd72,2024-10-02_13h51.11.042,mdp,2024.2.1,Win32,60.24096386,66fa4ebf79326e780c390304,,,,,,,,,,,,,,,,,,,,,620.1615,620.1615,620.1621,621.8285,0,1,left,1.1455,,621.8292,622.8461,0,1,left,622.8467,623.8298,1,0,right,1,623.8298,623.8298,623.8305,625.3303,0,6,6,6,1,0.2,0.8,0.8,0.2,,,,,,,,,,,,,,,0.4945,,0.2,0.8,0.8,0.2,0.2,0.8,0.6,0.4,,,0.457,,0.8,0.2,0.2,0.8,0.4,0.6,0.2,0.8,1,0
,,5e508aeddf9ae90dc8210705,66fc98b3ff9cd954959acd72,2024-10-02_13h51.11.042,mdp,2024.2.1,Win32,60.24096386,66fa4ebf79326e780c390304,,,,,,,,,,,,,,,,,,,,,625.3306,625.3307,625.3312,626.5642,0,1,left,0.7056,,626.565,627.5978,1,0,right,627.5985,628.4991,0,1,left,0,628.4992,628.4992,628.4997,629.9988,0,7,7,7,1,0.2,0.8,0.8,0.2,,,,,,,,,,,,,,,0.5182,,0.2,0.8,0.8,0.2,0.2,0.8,0.6,0.4,,,0.3805,,0.8,0.2,0.2,0.8,0.4,0.6,0.2,0.8,1,0
,,5e508aeddf9ae90dc8210705,66fc98b3ff9cd954959acd72,2024-10-02_13h51.11.042,mdp,2024.2.1,Win32,60.24096386,66fa4ebf79326e780c390304,,,,,,,,,,,,,,,,,,,,,629.9991,629.9992,629.9998,630.9003,0,0,left,0.3979,,630.9013,631.8171,0,0,left,631.8178,632.6844,1,1,right,0,632.6844,632.6845,632.6853,634.1849,0,8,8,8,1,0.2,0.8,0.8,0.2,,,,,,,,,,,,,,,0.3848,,0.6,0.4,0.2,0.8,0.2,0.8,0.6,0.4,,,0.3655,,0.8,0.2,0.2,0.8,0.4,0.6,0.2,0.8,1,0
,,5e508aeddf9ae90dc8210705,66fc98b3ff9cd954959acd72,2024-10-02_13h51.11.042,mdp,2024.2.1,Win32,60.24096386,66fa4ebf79326e780c390304,,,,,,,,,,,,,,,,,,,,,634.1853,634.1853,634.1858,635.2359,0,0,left,0.5289,,635.2366,636.2192,1,1,right,636.2203,637.2538,0,1,left,0,637.254,637.254,637.2546,638.7543,0,9,9,9,1,0.2,0.8,0.8,0.2,,,,,,,,,,,,,,,0.4573,,0.6,0.4,0.2,0.8,0.2,0.8,0.6,0.4,,,0.5254,,0.8,0.2,0.2,0.8,0.4,0.6,0.2,0.8,1,0
,,5e508aeddf9ae90dc8210705,66fc98b3ff9cd954959acd72,2024-10-02_13h51.11.042,mdp,2024.2.1,Win32,60.24096386,66fa4ebf79326e780c390304,,,,,,,,,,,,,,,,,,,,,638.7546,638.7546,638.7552,639.704,0,1,left,0.4469,,639.7049,640.9058,0,0,left,640.9064,641.923,1,1,right,0,641.9231,641.9231,641.924,643.423,0,10,10,10,1,0.2,0.8,0.8,0.2,,,,,,,,,,,,,,,0.6796,,0.6,0.4,0.2,0.8,0.2,0.8,0.6,0.4,,,0.4827,,0.8,0.2,0.2,0.8,0.4,0.6,0.2,0.8,1,0
,,5e508aeddf9ae90dc8210705,66fc98b3ff9cd954959acd72,2024-10-02_13h51.11.042,mdp,2024.2.1,Win32,60.24096386,66fa4ebf79326e780c390304,,,,,,,,,,,,,,,,,,,,,643.4233,643.4233,643.4238,644.2908,1,1,right,0.3547,,644.2913,645.2077,0,1,left,645.2083,646.1081,1,0,right,1,646.1083,646.1083,646.1091,647.6087,0,11,11,11,1,0.4,0.6,0.6,0.4,,,,,,,,,,,,,,,0.4018,,0.6,0.4,0.2,0.8,0.2,0.8,0.6,0.4,,,0.3902,,0.8,0.2,0.2,0.8,0.4,0.6,0.2,0.8,1,0
,,5e508aeddf9ae90dc8210705,66fc98b3ff9cd954959acd72,2024-10-02_13h51.11.042,mdp,2024.2.1,Win32,60.24096386,66fa4ebf79326e780c390304,,,,,,,,,,,,,,,,,,,,,647.6091,647.6091,647.6097,648.6591,0,1,left,0.541,,648.6599,649.8095,1,1,right,649.8102,650.7605,0,0,left,1,650.7606,650.7606,650.7616,652.2608,0,12,12,12,1,0.4,0.6,0.6,0.4,,,,,,,,,,,,,,,0.6357,,0.6,0.4,0.2,0.8,0.2,0.8,0.6,0.4,,,0.4297,,0.8,0.2,0.2,0.8,0.4,0.6,0.2,0.8,1,0
,,5e508aeddf9ae90dc8210705,66fc98b3ff9cd954959acd72,2024-10-02_13h51.11.042,mdp,2024.2.1,Win32,60.24096386,66fa4ebf79326e780c390304,,,,,,,,,,,,,,,,,,,,,652.2612,652.2612,652.2618,653.2955,1,0,right,0.5004,,653.2962,654.2956,0,1,left,654.2967,655.2798,1,1,right,0,655.2798,655.2798,655.2802,656.7798,0,13,13,13,1,0.2,0.8,0.8,0.2,,,,,,,,,,,,,,,0.475,,0.6,0.4,0.2,0.8,0.2,0.8,0.6,0.4,,,0.4524,,0.8,0.2,0.2,0.8,0.4,0.6,0.2,0.8,1,0
,,5e508aeddf9ae90dc8210705,66fc98b3ff9cd954959acd72,2024-10-02_13h51.11.042,mdp,2024.2.1,Win32,60.24096386,66fa4ebf79326e780c390304,,,,,,,,,,,,,,,,,,,,,656.7802,656.7802,656.7807,657.964,0,1,left,0.6791,,657.9649,658.9643,0,1,left,658.9653,659.882,1,1,right,0,659.882,659.882,659.8827,661.3823,0,14,14,14,1,0.2,0.8,0.8,0.2,,,,,,,,,,,,,,,0.4813,,0.6,0.4,0.2,0.8,0.2,0.8,0.6,0.4,,,0.4116,,0.8,0.2,0.2,0.8,0.4,0.6,0.2,0.8,1,0
,,5e508aeddf9ae90dc8210705,66fc98b3ff9cd954959acd72,2024-10-02_13h51.11.042,mdp,2024.2.1,Win32,60.24096386,66fa4ebf79326e780c390304,,,,,,,,,,,,,,,,,,,,,661.3826,661.3827,661.3833,662.4998,1,0,right,0.6014,,662.5005,663.4507,1,0,right,663.4517,664.3344,0,0,left,1,664.3344,664.3345,664.3353,665.8356,0,15,15,15,1,0.2,0.8,0.8,0.2,,,,,,,,,,,,,,,0.4343,,0.6,0.4,0.2,0.8,0.2,0.8,0.6,0.4,,,0.3687,,0.8,0.2,0.2,0.8,0.4,0.6,0.2,0.8,1,0
,,5e508aeddf9ae90dc8210705,66fc98b3ff9cd954959acd72,2024-10-02_13h51.11.042,mdp,2024.2.1,Win32,60.24096386,66fa4ebf79326e780c390304,,,,,,,,,,,,,,,,,,,,,665.8359,665.8359,665.8364,666.9026,0,1,left,0.5343,,666.9032,667.8538,0,1,left,667.8545,668.7867,1,1,right,0,668.7868,668.7868,668.7874,670.2875,0,16,16,16,1,0.2,0.8,0.8,0.2,,,,,,,,,,,,,,,0.4198,,0.6,0.4,0.2,0.8,0.2,0.8,0.6,0.4,,,0.3987,,0.8,0.2,0.2,0.8,0.4,0.6,0.2,0.8,1,0
,,5e508aeddf9ae90dc8210705,66fc98b3ff9cd954959acd72,2024-10-02_13h51.11.042,mdp,2024.2.1,Win32,60.24096386,66fa4ebf79326e780c390304,,,,,,,,,,,,,,,,,,,,,670.2881,670.2881,670.2886,671.0384,1,0,right,0.2242,,671.0391,671.9889,1,0,right,671.9896,672.8894,0,0,left,1,672.8894,672.8894,672.8899,674.3905,0,17,17,17,1,0.2,0.8,0.8,0.2,,,,,,,,,,,,,,,0.4339,,0.6,0.4,0.2,0.8,0.4,0.6,0.2,0.8,,,0.3798,,0.8,0.2,0.2,0.8,0.4,0.6,0.2,0.8,1,0
,,5e508aeddf9ae90dc8210705,66fc98b3ff9cd954959acd72,2024-10-02_13h51.11.042,mdp,2024.2.1,Win32,60.24096386,66fa4ebf79326e780c390304,,,,,,,,,,,,,,,,,,,,,674.3908,674.3908,674.3914,675.5076,1,0,right,0.5878,,675.5083,676.3913,1,0,right,676.3921,677.2914,0,1,left,0,677.2914,677.2914,677.2921,678.7925,0,18,18,18,1,0.2,0.8,0.8,0.2,,,,,,,,,,,,,,,0.3519,,0.6,0.4,0.2,0.8,0.4,0.6,0.2,0.8,,,0.3813,,0.8,0.2,0.2,0.8,0.4,0.6,0.2,0.8,1,0
,,5e508aeddf9ae90dc8210705,66fc98b3ff9cd954959acd72,2024-10-02_13h51.11.042,mdp,2024.2.1,Win32,60.24096386,66fa4ebf79326e780c390304,,,,,,,,,,,,,,,,,,,,,678.7928,678.7928,678.7935,679.6934,0,1,left,0.3807,,679.6941,680.6103,0,0,left,680.6111,681.5436,1,1,right,0,681.5437,681.5437,681.5444,683.0447,0,19,19,19,1,0.2,0.8,0.8,0.2,,,,,,,,,,,,,,,0.3942,,0.6,0.4,0.2,0.8,0.4,0.6,0.2,0.8,,,0.403,,0.8,0.2,0.2,0.8,0.6,0.4,0.6,0.4,1,0
,,5e508aeddf9ae90dc8210705,66fc98b3ff9cd954959acd72,2024-10-02_13h51.11.042,mdp,2024.2.1,Win32,60.24096386,66fa4ebf79326e780c390304,,,,,,,,,,,,,,,,,,,,,683.0451,683.0452,683.0458,684.045,0,1,left,0.4759,,684.0458,685.1622,0,0,left,685.1629,686.0797,0,0,left,1,686.0797,686.0797,686.0804,687.5802,0,20,20,20,1,0.2,0.8,0.8,0.2,,,,,,,,,,,,,,,0.5832,,0.6,0.4,0.2,0.8,0.4,0.6,0.2,0.8,,,0.409,,0.8,0.2,0.2,0.8,0.6,0.4,0.6,0.4,1,0
,,5e508aeddf9ae90dc8210705,66fc98b3ff9cd954959acd72,2024-10-02_13h51.11.042,mdp,2024.2.1,Win32,60.24096386,66fa4ebf79326e780c390304,,,,,,,,,,,,,,,,,,,,,687.5805,687.5805,687.5809,688.4809,1,0,right,0.3864,,688.4818,689.3314,1,1,right,689.3323,690.2321,1,0,right,1,690.2321,690.2321,690.233,691.7326,0,21,21,21,1,0.2,0.8,0.8,0.2,,,,,,,,,,,,,,,0.3358,,0.6,0.4,0.2,0.8,0.4,0.6,0.2,0.8,,,0.3783,,0.8,0.2,0.2,0.8,0.6,0.4,0.6,0.4,1,0
,,5e508aeddf9ae90dc8210705,66fc98b3ff9cd954959acd72,2024-10-02_13h51.11.042,mdp,2024.2.1,Win32,60.24096386,66fa4ebf79326e780c390304,,,,,,,,,,,,,,,,,,,,,691.7329,691.733,691.7336,692.7163,0,1,left,0.46,,692.7172,693.4831,0,1,left,693.484,694.2172,0,0,left,1,694.2173,694.2173,694.2183,695.7186,0,22,22,22,1,0.2,0.8,0.8,0.2,,,,,,,,,,,,,,,0.2517,,0.6,0.4,0.2,0.8,0.4,0.6,0.2,0.8,,,0.2311,,0.8,0.2,0.2,0.8,0.6,0.4,0.6,0.4,1,0
,,5e508aeddf9ae90dc8210705,66fc98b3ff9cd954959acd72,2024-10-02_13h51.11.042,mdp,2024.2.1,Win32,60.24096386,66fa4ebf79326e780c390304,,,,,,,,,,,,,,,,,,,,,695.7189,695.7189,695.7196,696.352,1,0,right,0.1069,,696.3527,697.2516,1,1,right,697.2525,698.4863,1,0,right,1,698.4863,698.4863,698.4872,699.9871,0,23,23,23,1,0.2,0.8,0.8,0.2,,,,,,,,,,,,,,,0.3871,,0.6,0.4,0.2,0.8,0.4,0.6,0.2,0.8,,,0.7186,,0.8,0.2,0.2,0.8,0.6,0.4,0.6,0.4,1,0
,,5e508aeddf9ae90dc8210705,66fc98b3ff9cd954959acd72,2024-10-02_13h51.11.042,mdp,2024.2.1,Win32,60.24096386,66fa4ebf79326e780c390304,,,,,,,,,,,,,,,,,,,,,699.9875,699.9876,699.9882,700.9877,0,1,left,0.4789,,700.9886,701.9049,0,0,left,701.9058,702.7387,0,0,left,1,702.7388,702.7388,702.7395,704.2394,0,24,24,24,1,0.2,0.8,0.8,0.2,,,,,,,,,,,,,,,0.3821,,0.6,0.4,0.2,0.8,0.4,0.6,0.2,0.8,,,0.2951,,0.8,0.2,0.2,0.8,0.6,0.4,0.6,0.4,1,0
,,5e508aeddf9ae90dc8210705,66fc98b3ff9cd954959acd72,2024-10-02_13h51.11.042,mdp,2024.2.1,Win32,60.24096386,66fa4ebf79326e780c390304,,,,,,,,,,,,,,,,,,,,,704.2399,704.2399,704.2407,705.057,1,0,right,0.2965,,705.0578,705.8239,1,1,right,705.8246,706.5235,1,0,right,1,706.5236,706.5237,706.5244,708.0245,0,25,25,25,1,0.2,0.8,0.8,0.2,,,,,,,,,,,,,,,0.2288,,0.6,0.4,0.2,0.8,0.4,0.6,0.2,0.8,,,0.1839,,0.8,0.2,0.2,0.8,0.6,0.4,0.6,0.4,1,0
,,5e508aeddf9ae90dc8210705,66fc98b3ff9cd954959acd72,2024-10-02_13h51.11.042,mdp,2024.2.1,Win32,60.24096386,66fa4ebf79326e780c390304,,,,,,,,,,,,,,,,,,,,,708.0248,708.0248,708.0255,709.1086,0,1,left,0.5742,,709.1095,709.9762,0,1,left,709.977,710.9269,0,1,left,0,710.927,710.927,710.9277,712.4271,0,26,26,26,1,0.2,0.8,0.8,0.2,,,,,,,,,,,,,,,0.3492,,0.6,0.4,0.2,0.8,0.4,0.6,0.2,0.8,,,0.4237,,0.8,0.2,0.2,0.8,0.6,0.4,0.6,0.4,1,0
,,5e508aeddf9ae90dc8210705,66fc98b3ff9cd954959acd72,2024-10-02_13h51.11.042,mdp,2024.2.1,Win32,60.24096386,66fa4ebf79326e780c390304,,,,,,,,,,,,,,,,,,,,,712.4275,712.4275,712.4281,715.2619,0,1,left,2.3315,,715.2627,716.3459,1,1,right,716.3465,717.2625,0,1,left,0,717.2625,717.2625,717.2632,718.764,0,27,27,27,1,0.2,0.8,0.8,0.2,,,,,,,,,,,,,,,0.5682,,0.6,0.4,0.2,0.8,0.4,0.6,0.2,0.8,,,0.3868,,0.8,0.2,0.2,0.8,0.6,0.4,0.6,0.4,1,0
,,5e508aeddf9ae90dc8210705,66fc98b3ff9cd954959acd72,2024-10-02_13h51.11.042,mdp,2024.2.1,Win32,60.24096386,66fa4ebf79326e780c390304,,,,,,,,,,,,,,,,,,,,,718.7643,718.7643,718.7651,719.7315,1,0,right,0.4406,,719.7324,720.7309,0,1,left,720.7317,721.7315,1,1,right,0,721.7316,721.7316,721.7327,723.2328,0,28,28,28,1,0.2,0.8,0.8,0.2,,,,,,,,,,,,,,,0.4695,,0.6,0.4,0.2,0.8,0.4,0.6,0.2,0.8,,,0.4848,,0.8,0.2,0.2,0.8,0.6,0.4,0.6,0.4,1,0
,,5e508aeddf9ae90dc8210705,66fc98b3ff9cd954959acd72,2024-10-02_13h51.11.042,mdp,2024.2.1,Win32,60.24096386,66fa4ebf79326e780c390304,,,,,,,,,,,,,,,,,,,,,723.2332,723.2332,723.2338,724.2997,0,1,left,0.5405,,724.3009,725.217,0,1,left,725.2177,726.1004,1,1,right,0,726.1005,726.1005,726.1012,727.6016,0,29,29,29,1,0.2,0.8,0.8,0.2,,,,,,,,,,,,,,,0.4045,,0.6,0.4,0.2,0.8,0.4,0.6,0.2,0.8,,,0.351,,0.8,0.2,0.2,0.8,0.6,0.4,0.6,0.4,1,0
,,5e508aeddf9ae90dc8210705,66fc98b3ff9cd954959acd72,2024-10-02_13h51.11.042,mdp,2024.2.1,Win32,60.24096386,66fa4ebf79326e780c390304,,,,,,,,,,,,,,,,,,,,,727.6019,727.6019,727.6024,728.5185,1,0,right,0.4018,,728.5193,729.4021,1,0,right,729.4029,730.319,0,0,left,1,730.3191,730.3191,730.3199,731.8209,0,30,30,30,1,0.2,0.8,0.8,0.2,,,,,,,,,,,,,,,0.3597,,0.4,0.6,0.8,0.2,0.4,0.6,0.2,0.8,,,0.4003,,0.8,0.2,0.2,0.8,0.6,0.4,0.6,0.4,1,0
,,5e508aeddf9ae90dc8210705,66fc98b3ff9cd954959acd72,2024-10-02_13h51.11.042,mdp,2024.2.1,Win32,60.24096386,66fa4ebf79326e780c390304,,,,,,,,,,,,,,,,,,,,,731.8212,731.8212,731.8217,732.8537,0,1,left,0.5031,,732.8545,733.771,0,0,left,733.772,734.6722,1,0,right,1,734.6722,734.6723,734.6728,736.1721,0,31,31,31,1,0.2,0.8,0.8,0.2,,,,,,,,,,,,,,,0.4008,,0.4,0.6,0.8,0.2,0.4,0.6,0.2,0.8,,,0.3868,,0.8,0.2,0.2,0.8,0.6,0.4,0.6,0.4,1,0
,,5e508aeddf9ae90dc8210705,66fc98b3ff9cd954959acd72,2024-10-02_13h51.11.042,mdp,2024.2.1,Win32,60.24096386,66fa4ebf79326e780c390304,,,,,,,,,,,,,,,,,,,,,736.1724,736.1724,736.1731,737.106,1,0,right,0.4264,,737.1068,738.0071,1,1,right,738.0079,738.8903,0,0,left,1,738.8903,738.8903,738.891,740.3916,0,32,32,32,1,0.2,0.8,0.8,0.2,,,,,,,,,,,,,,,0.3817,,0.8,0.2,0.6,0.4,0.4,0.6,0.2,0.8,,,0.3519,,0.8,0.2,0.2,0.8,0.6,0.4,0.6,0.4,1,0
,,5e508aeddf9ae90dc8210705,66fc98b3ff9cd954959acd72,2024-10-02_13h51.11.042,mdp,2024.2.1,Win32,60.24096386,66fa4ebf79326e780c390304,,,,,,,,,,,,,,,,,,,,,740.392,740.392,740.3925,741.3087,0,1,left,0.3919,,741.3095,742.3431,0,1,left,742.344,743.8936,1,0,right,1,743.8937,743.8937,743.8945,745.3937,0,33,33,33,1,0.2,0.8,0.8,0.2,,,,,,,,,,,,,,,0.5248,,0.8,0.2,0.6,0.4,0.4,0.6,0.2,0.8,,,1.0245,,0.8,0.2,0.2,0.8,0.6,0.4,0.6,0.4,1,0
,,5e508aeddf9ae90dc8210705,66fc98b3ff9cd954959acd72,2024-10-02_13h51.11.042,mdp,2024.2.1,Win32,60.24096386,66fa4ebf79326e780c390304,,,,,,,,,,,,,,,,,,,,,745.3941,745.3941,745.3947,746.4782,1,0,right,0.5761,,746.4788,747.5117,1,1,right,747.5122,748.4463,0,0,left,1,748.4464,748.4464,748.4471,749.9472,0,34,34,34,1,0.2,0.8,0.8,0.2,,,,,,,,,,,,,,,0.5154,,0.8,0.2,0.6,0.4,0.4,0.6,0.2,0.8,,,0.4257,,0.8,0.2,0.2,0.8,0.6,0.4,0.6,0.4,1,0
,,5e508aeddf9ae90dc8210705,66fc98b3ff9cd954959acd72,2024-10-02_13h51.11.042,mdp,2024.2.1,Win32,60.24096386,66fa4ebf79326e780c390304,,,,,,,,,,,,,,,,,,,,,749.9474,749.9474,749.9481,750.8635,0,1,left,0.3905,,750.8642,751.7813,0,1,left,751.782,752.7653,1,1,right,0,752.7654,752.7654,752.7662,754.2663,0,35,35,35,1,0.2,0.8,0.8,0.2,,,,,,,,,,,,,,,0.3969,,0.8,0.2,0.6,0.4,0.6,0.4,0.4,0.6,,,0.4727,,0.8,0.2,0.2,0.8,0.6,0.4,0.6,0.4,1,0
,,5e508aeddf9ae90dc8210705,66fc98b3ff9cd954959acd72,2024-10-02_13h51.11.042,mdp,2024.2.1,Win32,60.24096386,66fa4ebf79326e780c390304,,,,,,,,,,,,,,,,,,,,,754.2666,754.2666,754.2671,755.5497,0,1,left,0.7614,,755.5508,756.6838,0,0,left,756.6845,757.5677,0,0,left,1,757.5677,757.5677,757.5686,759.0686,0,36,36,36,1,0.2,0.8,0.8,0.2,,,,,,,,,,,,,,,0.6122,,0.8,0.2,0.6,0.4,0.6,0.4,0.4,0.6,,,0.3601,,0.8,0.2,0.2,0.8,0.6,0.4,0.6,0.4,1,0
,,5e508aeddf9ae90dc8210705,66fc98b3ff9cd954959acd72,2024-10-02_13h51.11.042,mdp,2024.2.1,Win32,60.24096386,66fa4ebf79326e780c390304,,,,,,,,,,,,,,,,,,,,,759.0689,759.0689,759.0695,759.9855,1,1,right,0.395,,759.9865,760.919,1,1,right,760.9199,761.8193,1,1,right,0,761.8194,761.8194,761.8209,763.3205,0,37,37,37,1,0.2,0.8,0.8,0.2,,,,,,,,,,,,,,,0.4018,,0.8,0.2,0.6,0.4,0.4,0.6,0.6,0.4,,,0.3804,,0.8,0.2,0.2,0.8,0.6,0.4,0.6,0.4,1,0
,,5e508aeddf9ae90dc8210705,66fc98b3ff9cd954959acd72,2024-10-02_13h51.11.042,mdp,2024.2.1,Win32,60.24096386,66fa4ebf79326e780c390304,,,,,,,,,,,,,,,,,,,,,763.3208,763.3208,763.3214,764.405,0,0,left,0.5728,,764.4056,765.6552,0,0,left,765.656,766.6391,1,0,right,1,766.6391,766.6391,766.6399,768.1404,0,38,38,38,1,0.2,0.8,0.8,0.2,,,,,,,,,,,,,,,0.7111,,0.8,0.2,0.6,0.4,0.4,0.6,0.6,0.4,,,0.4658,,0.8,0.2,0.2,0.8,0.6,0.4,0.6,0.4,1,0
,,5e508aeddf9ae90dc8210705,66fc98b3ff9cd954959acd72,2024-10-02_13h51.11.042,mdp,2024.2.1,Win32,60.24096386,66fa4ebf79326e780c390304,,,,,,,,,,,,,,,,,,,,,768.1408,768.1408,768.1415,769.0402,1,0,right,0.3852,,769.0409,769.9746,1,0,right,769.9756,770.825,0,0,left,1,770.8251,770.8251,770.8259,772.3252,0,39,39,39,1,0.2,0.8,0.8,0.2,,,,,,,,,,,,,,,0.428,,0.8,0.2,0.6,0.4,0.4,0.6,0.6,0.4,,,0.3307,,0.8,0.2,0.2,0.8,0.6,0.4,0.6,0.4,1,0
,,5e508aeddf9ae90dc8210705,66fc98b3ff9cd954959acd72,2024-10-02_13h51.11.042,mdp,2024.2.1,Win32,60.24096386,66fa4ebf79326e780c390304,,,,,,,,,,,,,,,,,,,,,772.3257,772.3257,772.3264,773.3924,0,0,left,0.5529,,773.3931,774.2931,0,0,left,774.2938,775.1771,1,1,right,0,775.1771,775.1771,775.1779,776.6781,0,40,40,40,1,0.2,0.8,0.8,0.2,,,,,,,,,,,,,,,0.3884,,0.8,0.2,0.6,0.4,0.4,0.6,0.6,0.4,,,0.374,,0.8,0.2,0.2,0.8,0.6,0.4,0.6,0.4,1,0
,,5e508aeddf9ae90dc8210705,66fc98b3ff9cd954959acd72,2024-10-02_13h51.11.042,mdp,2024.2.1,Win32,60.24096386,66fa4ebf79326e780c390304,,,,,,,,,,,,,,,,,,,,,776.6784,776.6784,776.6788,777.9786,0,1,left,0.7831,,777.9795,778.9295,0,1,left,778.9303,779.813,0,1,left,0,779.813,779.8131,779.8137,781.3128,0,41,41,41,1,0.2,0.8,0.8,0.2,,,,,,,,,,,,,,,0.4317,,0.8,0.2,0.6,0.4,0.4,0.6,0.6,0.4,,,0.3452,,0.8,0.2,0.2,0.8,0.6,0.4,0.6,0.4,1,0
,,5e508aeddf9ae90dc8210705,66fc98b3ff9cd954959acd72,2024-10-02_13h51.11.042,mdp,2024.2.1,Win32,60.24096386,66fa4ebf79326e780c390304,,,,,,,,,,,,,,,,,,,,,781.3131,781.3131,781.3137,782.6644,0,1,left,0.8457,,782.6651,783.5817,1,0,right,783.5824,784.4994,0,0,left,1,784.4994,784.4994,784.5001,785.9986,0,42,42,42,1,0.2,0.8,0.8,0.2,,,,,,,,,,,,,,,0.4122,,0.8,0.2,0.6,0.4,0.4,0.6,0.6,0.4,,,0.3899,,0.8,0.2,0.2,0.8,0.6,0.4,0.6,0.4,1,0
,,5e508aeddf9ae90dc8210705,66fc98b3ff9cd954959acd72,2024-10-02_13h51.11.042,mdp,2024.2.1,Win32,60.24096386,66fa4ebf79326e780c390304,,,,,,,,,,,,,,,,,,,,,785.9991,785.9991,785.9999,786.9163,1,0,right,0.4064,,786.917,787.817,0,0,left,787.8179,788.8178,1,1,right,0,788.8178,788.8179,788.8185,790.3187,0,43,43,43,1,0.2,0.8,0.8,0.2,,,,,,,,,,,,,,,0.3909,,0.8,0.2,0.6,0.4,0.4,0.6,0.6,0.4,,,0.4899,,0.8,0.2,0.2,0.8,0.6,0.4,0.6,0.4,1,0
,,5e508aeddf9ae90dc8210705,66fc98b3ff9cd954959acd72,2024-10-02_13h51.11.042,mdp,2024.2.1,Win32,60.24096386,66fa4ebf79326e780c390304,,,,,,,,,,,,,,,,,,,,,790.319,790.319,790.3196,791.3532,0,0,left,0.5034,,791.3541,792.3536,1,1,right,792.3545,793.2374,0,1,left,0,793.2375,793.2375,793.2381,794.738,0,44,44,44,1,0.2,0.8,0.8,0.2,,,,,,,,,,,,,,,0.483,,0.8,0.2,0.6,0.4,0.4,0.6,0.6,0.4,,,0.3615,,0.8,0.2,0.2,0.8,0.6,0.4,0.6,0.4,1,0
,,5e508aeddf9ae90dc8210705,66fc98b3ff9cd954959acd72,2024-10-02_13h51.11.042,mdp,2024.2.1,Win32,60.24096386,66fa4ebf79326e780c390304,,,,,,,,,,,,,,,,,,,,,794.7384,794.7384,794.7389,795.5049,1,1,right,0.2559,,795.5055,796.4058,0,1,left,796.4065,797.306,1,0,right,1,797.3061,797.3061,797.3067,798.807,0,45,45,45,1,0.2,0.8,0.8,0.2,,,,,,,,,,,,,,,0.3809,,0.8,0.2,0.6,0.4,0.4,0.6,0.6,0.4,,,0.3909,,0.8,0.2,0.2,0.8,0.6,0.4,0.6,0.4,1,0
,,5e508aeddf9ae90dc8210705,66fc98b3ff9cd954959acd72,2024-10-02_13h51.11.042,mdp,2024.2.1,Win32,60.24096386,66fa4ebf79326e780c390304,,,,,,,,,,,,,,,,,,,,,798.8074,798.8074,798.8081,800.2581,1,0,right,0.9276,,800.259,801.2578,0,0,left,801.2586,802.2088,1,1,right,0,802.2089,802.2089,802.2096,803.7092,0,46,46,46,1,0.2,0.8,0.8,0.2,,,,,,,,,,,,,,,0.4706,,0.8,0.2,0.6,0.4,0.4,0.6,0.6,0.4,,,0.4371,,0.8,0.2,0.2,0.8,0.6,0.4,0.6,0.4,1,0
,,5e508aeddf9ae90dc8210705,66fc98b3ff9cd954959acd72,2024-10-02_13h51.11.042,mdp,2024.2.1,Win32,60.24096386,66fa4ebf79326e780c390304,,,,,,,,,,,,,,,,,,,,,803.7095,803.7095,803.7102,804.7431,0,1,left,0.5121,,804.7438,805.7101,1,1,right,805.7108,806.6944,0,0,left,1,806.6944,806.6944,806.6951,808.195,0,47,47,47,1,0.2,0.8,0.8,0.2,,,,,,,,,,,,,,,0.4465,,0.8,0.2,0.6,0.4,0.4,0.6,0.6,0.4,,,0.4739,,0.8,0.2,0.2,0.8,0.6,0.4,0.6,0.4,1,0
,,5e508aeddf9ae90dc8210705,66fc98b3ff9cd954959acd72,2024-10-02_13h51.11.042,mdp,2024.2.1,Win32,60.24096386,66fa4ebf79326e780c390304,,,,,,,,,,,,,,,,,,,,,808.1954,808.1954,808.196,809.646,0,1,left,0.9368,,809.6465,810.7799,1,0,right,810.7808,811.6467,0,0,left,1,811.6467,811.6467,811.6474,813.1474,0,48,48,48,1,0.2,0.8,0.8,0.2,,,,,,,,,,,,,,,0.6288,,0.2,0.8,0.8,0.2,0.4,0.6,0.6,0.4,,,0.3579,,0.8,0.2,0.2,0.8,0.6,0.4,0.6,0.4,1,0
,,5e508aeddf9ae90dc8210705,66fc98b3ff9cd954959acd72,2024-10-02_13h51.11.042,mdp,2024.2.1,Win32,60.24096386,66fa4ebf79326e780c390304,,,,,,,,,,,,,,,,,,,,,813.1478,813.1478,813.1483,814.4823,1,0,right,0.8259,,814.483,815.4325,0,1,left,815.4333,816.4,1,0,right,1,816.4,816.4,816.4005,817.8999,0,49,49,49,1,0.2,0.8,0.8,0.2,,,,,,,,,,,,,,,0.4214,,0.2,0.8,0.8,0.2,0.6,0.4,0.2,0.8,,,0.434,,0.8,0.2,0.2,0.8,0.6,0.4,0.6,0.4,1,0
,,5e508aeddf9ae90dc8210705,66fc98b3ff9cd954959acd72,2024-10-02_13h51.11.042,mdp,2024.2.1,Win32,60.24096386,66fa4ebf79326e780c390304,,,,,,,,,,,,,,,,,,,,,,,,,,,,,,,,,,,,,,,,,,,,,,,,,,,,,,,,817.8999,876.4148,0,2,2,6,1,imgs/kangaroo.png,imgs/giraffe.png,imgs/pig.png,imgs/lion.png,imgs/cat.png,,,,,,,,,,,,,,,,,,,,,,,,
,,5e508aeddf9ae90dc8210705,66fc98b3ff9cd954959acd72,2024-10-02_13h51.11.042,mdp,2024.2.1,Win32,60.24096386,66fa4ebf79326e780c390304,,,,,,,,,,,,,,3,seqs/st3seq36.csv,876.4155,1073.3194,space,196.3828,,1073.3244,1073.3244,1073.3249,1074.737,0,1,left,0.8859,,1074.7379,1075.6212,0,0,left,1075.622,1076.4877,0,0,left,1,1076.4878,1076.4878,1076.4886,1077.9892,0,0,0,0,1,0.2,0.8,0.6,0.4,,,,,,,,,,,,,,,0.3468,,0.4,0.6,0.6,0.4,0.8,0.2,0.8,0.2,,,0.3384,,0.8,0.2,0.2,0.8,0.6,0.4,0.6,0.4,1,0
,,5e508aeddf9ae90dc8210705,66fc98b3ff9cd954959acd72,2024-10-02_13h51.11.042,mdp,2024.2.1,Win32,60.24096386,66fa4ebf79326e780c390304,,,,,,,,,,,,,,,,,,,,,1077.9895,1077.9895,1077.9899,1079.4567,0,1,left,0.9441,,1079.4576,1080.274,0,0,left,1080.2747,1081.1409,0,0,left,1,1081.141,1081.141,1081.1416,1082.6417,0,1,1,1,1,0.2,0.8,0.6,0.4,,,,,,,,,,,,,,,0.2843,,0.4,0.6,0.6,0.4,0.8,0.2,0.8,0.2,,,0.3514,,0.8,0.2,0.2,0.8,0.6,0.4,0.6,0.4,1,0
,,5e508aeddf9ae90dc8210705,66fc98b3ff9cd954959acd72,2024-10-02_13h51.11.042,mdp,2024.2.1,Win32,60.24096386,66fa4ebf79326e780c390304,,,,,,,,,,,,,,,,,,,,,1082.6419,1082.6419,1082.6426,1083.676,0,1,left,0.5202,,1083.6767,1084.5096,0,0,left,1084.5103,1085.3433,0,0,left,1,1085.3433,1085.3433,1085.344,1086.8444,0,2,2,2,1,0.2,0.8,0.6,0.4,,,,,,,,,,,,,,,0.3268,,0.4,0.6,0.6,0.4,0.8,0.2,0.8,0.2,,,0.3264,,0.8,0.2,0.2,0.8,0.6,0.4,0.6,0.4,1,0
,,5e508aeddf9ae90dc8210705,66fc98b3ff9cd954959acd72,2024-10-02_13h51.11.042,mdp,2024.2.1,Win32,60.24096386,66fa4ebf79326e780c390304,,,,,,,,,,,,,,,,,,,,,1086.8448,1086.8448,1086.8454,1088.0284,0,1,left,0.66,,1088.0292,1088.895,0,0,left,1088.8957,1089.8127,0,0,left,1,1089.8128,1089.8128,1089.8135,1091.3132,0,3,3,3,1,0.2,0.8,0.6,0.4,,,,,,,,,,,,,,,0.3386,,0.4,0.6,0.6,0.4,0.8,0.2,0.8,0.2,,,0.3922,,0.8,0.2,0.2,0.8,0.6,0.4,0.6,0.4,1,0
,,5e508aeddf9ae90dc8210705,66fc98b3ff9cd954959acd72,2024-10-02_13h51.11.042,mdp,2024.2.1,Win32,60.24096386,66fa4ebf79326e780c390304,,,,,,,,,,,,,,,,,,,,,1091.3134,1091.3134,1091.3139,1092.3635,0,0,left,0.5289,,1092.3644,1093.2311,0,1,left,1093.2318,1094.1145,0,0,left,1,1094.1146,1094.1146,1094.1152,1095.6152,0,4,4,4,1,0.2,0.8,0.6,0.4,,,,,,,,,,,,,,,0.3419,,0.4,0.6,0.6,0.4,0.8,0.2,0.8,0.2,,,0.3469,,0.8,0.2,0.2,0.8,0.6,0.4,0.6,0.4,1,0
,,5e508aeddf9ae90dc8210705,66fc98b3ff9cd954959acd72,2024-10-02_13h51.11.042,mdp,2024.2.1,Win32,60.24096386,66fa4ebf79326e780c390304,,,,,,,,,,,,,,,,,,,,,1095.6155,1095.6156,1095.6161,1096.6159,0,0,left,0.4669,,1096.6167,1097.3998,0,0,left,1097.4006,1098.2505,0,0,left,1,1098.2506,1098.2506,1098.2512,1099.7511,0,5,5,5,1,0.8,0.2,0.4,0.6,,,,,,,,,,,,,,,0.2713,,0.4,0.6,0.6,0.4,0.8,0.2,0.8,0.2,,,0.3343,,0.8,0.2,0.2,0.8,0.6,0.4,0.6,0.4,1,0
,,5e508aeddf9ae90dc8210705,66fc98b3ff9cd954959acd72,2024-10-02_13h51.11.042,mdp,2024.2.1,Win32,60.24096386,66fa4ebf79326e780c390304,,,,,,,,,,,,,,,,,,,,,1099.7516,1099.7516,1099.7521,1100.6514,0,0,left,0.3692,,1100.652,1101.6357,0,0,left,1101.6365,1102.4364,0,1,left,0,1102.4365,1102.4365,1102.4372,1103.9364,0,6,6,6,1,0.8,0.2,0.4,0.6,,,,,,,,,,,,,,,0.4711,,0.4,0.6,0.6,0.4,0.8,0.2,0.8,0.2,,,0.2848,,0.8,0.2,0.2,0.8,0.6,0.4,0.6,0.4,1,0
,,5e508aeddf9ae90dc8210705,66fc98b3ff9cd954959acd72,2024-10-02_13h51.11.042,mdp,2024.2.1,Win32,60.24096386,66fa4ebf79326e780c390304,,,,,,,,,,,,,,,,,,,,,1103.9369,1103.9369,1103.9377,1105.0035,1,1,right,0.559,,1105.0044,1105.821,1,0,right,1105.8218,1106.5712,1,1,right,0,1106.5713,1106.5713,1106.5719,1108.072,0,7,7,7,1,0.8,0.2,0.4,0.6,,,,,,,,,,,,,,,0.3066,,0.4,0.6,0.6,0.4,0.8,0.2,0.8,0.2,,,0.2259,,0.8,0.2,0.2,0.8,0.6,0.4,0.6,0.4,1,0
,,5e508aeddf9ae90dc8210705,66fc98b3ff9cd954959acd72,2024-10-02_13h51.11.042,mdp,2024.2.1,Win32,60.24096386,66fa4ebf79326e780c390304,,,,,,,,,,,,,,,,,,,,,1108.0723,1108.0723,1108.0732,1109.3058,0,0,left,0.7103,,1109.3067,1110.2235,0,0,left,1110.2242,1111.1403,1,0,right,1,1111.1403,1111.1403,1111.1411,1112.6407,0,8,8,8,1,0.8,0.2,0.4,0.6,,,,,,,,,,,,,,,0.3881,,0.4,0.6,0.6,0.4,0.8,0.2,0.8,0.2,,,0.3872,,0.8,0.2,0.2,0.8,0.6,0.4,0.6,0.4,1,0
,,5e508aeddf9ae90dc8210705,66fc98b3ff9cd954959acd72,2024-10-02_13h51.11.042,mdp,2024.2.1,Win32,60.24096386,66fa4ebf79326e780c390304,,,,,,,,,,,,,,,,,,,,,1112.6411,1112.6411,1112.6416,1113.7244,0,0,left,0.5526,,1113.7253,1114.6578,0,0,left,1114.6587,1115.559,1,1,right,0,1115.5591,1115.5591,1115.5599,1117.0593,0,9,9,9,1,0.8,0.2,0.4,0.6,,,,,,,,,,,,,,,0.418,,0.4,0.6,0.6,0.4,0.8,0.2,0.8,0.2,,,0.3855,,0.8,0.2,0.2,0.8,0.6,0.4,0.6,0.4,1,0
,,5e508aeddf9ae90dc8210705,66fc98b3ff9cd954959acd72,2024-10-02_13h51.11.042,mdp,2024.2.1,Win32,60.24096386,66fa4ebf79326e780c390304,,,,,,,,,,,,,,,,,,,,,1117.0596,1117.0596,1117.0601,1118.3267,0,0,left,0.7463,,1118.3276,1119.4271,1,0,right,1119.4279,1120.311,0,0,left,1,1120.3112,1120.3112,1120.312,1121.8118,0,10,10,10,1,0.8,0.2,0.4,0.6,,,,,,,,,,,,,,,0.5683,,0.4,0.6,0.6,0.4,0.8,0.2,0.8,0.2,,,0.3799,,0.8,0.2,0.2,0.8,0.6,0.4,0.6,0.4,1,0
,,5e508aeddf9ae90dc8210705,66fc98b3ff9cd954959acd72,2024-10-02_13h51.11.042,mdp,2024.2.1,Win32,60.24096386,66fa4ebf79326e780c390304,,,,,,,,,,,,,,,,,,,,,1121.8122,1121.8122,1121.8129,1123.3137,0,1,left,0.9706,,1123.3146,1124.4311,1,0,right,1124.4317,1125.3638,0,0,left,1,1125.3639,1125.3639,1125.3646,1126.8647,0,11,11,11,1,0.8,0.2,0.4,0.6,,,,,,,,,,,,,,,0.5995,,0.4,0.6,0.6,0.4,0.8,0.2,0.8,0.2,,,0.402,,0.8,0.2,0.2,0.8,0.6,0.4,0.6,0.4,1,0
,,5e508aeddf9ae90dc8210705,66fc98b3ff9cd954959acd72,2024-10-02_13h51.11.042,mdp,2024.2.1,Win32,60.24096386,66fa4ebf79326e780c390304,,,,,,,,,,,,,,,,,,,,,1126.8651,1126.8651,1126.866,1128.1988,0,0,left,0.818,,1128.1997,1129.1338,1,0,right,1129.1344,1130.0007,0,0,left,1,1130.0007,1130.0008,1130.0014,1131.5002,0,12,12,12,1,0.8,0.2,0.4,0.6,,,,,,,,,,,,,,,0.4154,,0.6,0.4,0.8,0.2,0.8,0.2,0.8,0.2,,,0.3459,,0.8,0.2,0.2,0.8,0.6,0.4,0.6,0.4,1,0
,,5e508aeddf9ae90dc8210705,66fc98b3ff9cd954959acd72,2024-10-02_13h51.11.042,mdp,2024.2.1,Win32,60.24096386,66fa4ebf79326e780c390304,,,,,,,,,,,,,,,,,,,,,1131.5006,1131.5006,1131.5012,1132.652,0,0,left,0.6339,,1132.6527,1133.7356,1,0,right,1133.7363,1134.8526,0,0,left,1,1134.8527,1134.8527,1134.8534,1136.3538,0,13,13,13,1,0.8,0.2,0.4,0.6,,,,,,,,,,,,,,,0.5682,,0.6,0.4,0.8,0.2,0.6,0.4,0.2,0.8,,,0.5827,,0.8,0.2,0.2,0.8,0.6,0.4,0.6,0.4,1,0
,,5e508aeddf9ae90dc8210705,66fc98b3ff9cd954959acd72,2024-10-02_13h51.11.042,mdp,2024.2.1,Win32,60.24096386,66fa4ebf79326e780c390304,,,,,,,,,,,,,,,,,,,,,1136.3541,1136.3541,1136.3548,1138.2045,1,1,right,1.3314,,1138.2053,1139.4391,0,1,left,1139.44,1140.84,0,1,left,0,1140.8401,1140.8401,1140.8408,1142.3398,0,14,14,14,1,0.8,0.2,0.4,0.6,,,,,,,,,,,,,,,0.7127,,0.6,0.4,0.8,0.2,0.6,0.4,0.2,0.8,,,0.867,,0.8,0.2,0.2,0.8,0.6,0.4,0.6,0.4,1,0
,,5e508aeddf9ae90dc8210705,66fc98b3ff9cd954959acd72,2024-10-02_13h51.11.042,mdp,2024.2.1,Win32,60.24096386,66fa4ebf79326e780c390304,,,,,,,,,,,,,,,,,,,,,1142.3402,1142.3402,1142.341,1143.3073,0,0,left,0.4482,,1143.3079,1144.4749,1,1,right,1144.4756,1145.4916,0,0,left,1,1145.4917,1145.4917,1145.4923,1146.9928,0,15,15,15,1,0.8,0.2,0.4,0.6,,,,,,,,,,,,,,,0.6279,,0.6,0.4,0.8,0.2,0.6,0.4,0.2,0.8,,,0.4969,,0.8,0.2,0.2,0.8,0.6,0.4,0.6,0.4,1,0
,,5e508aeddf9ae90dc8210705,66fc98b3ff9cd954959acd72,2024-10-02_13h51.11.042,mdp,2024.2.1,Win32,60.24096386,66fa4ebf79326e780c390304,,,,,,,,,,,,,,,,,,,,,1146.9931,1146.9931,1146.9937,1148.0104,0,0,left,0.4994,,1148.0111,1149.0937,1,1,right,1149.0942,1150.0779,0,0,left,1,1150.0779,1150.078,1150.0787,1151.5787,0,16,16,16,1,0.8,0.2,0.4,0.6,,,,,,,,,,,,,,,0.5526,,0.6,0.4,0.8,0.2,0.6,0.4,0.2,0.8,,,0.468,,0.2,0.8,0.4,0.6,0.6,0.4,0.6,0.4,1,0
,,5e508aeddf9ae90dc8210705,66fc98b3ff9cd954959acd72,2024-10-02_13h51.11.042,mdp,2024.2.1,Win32,60.24096386,66fa4ebf79326e780c390304,,,,,,,,,,,,,,,,,,,,,1151.579,1151.579,1151.5794,1152.6124,0,0,left,0.5037,,1152.6133,1153.5462,1,0,right,1153.5471,1154.4304,0,1,left,0,1154.4305,1154.4305,1154.4313,1155.9309,0,17,17,17,1,0.8,0.2,0.4,0.6,,,,,,,,,,,,,,,0.4191,,0.8,0.2,0.6,0.4,0.6,0.4,0.2,0.8,,,0.3688,,0.2,0.8,0.4,0.6,0.6,0.4,0.6,0.4,1,0
,,5e508aeddf9ae90dc8210705,66fc98b3ff9cd954959acd72,2024-10-02_13h51.11.042,mdp,2024.2.1,Win32,60.24096386,66fa4ebf79326e780c390304,,,,,,,,,,,,,,,,,,,,,1155.9312,1155.9312,1155.9316,1157.9984,1,1,right,1.5517,,1157.9991,1158.9996,0,0,left,1159.0002,1159.9498,1,1,right,0,1159.9499,1159.9499,1159.9508,1161.4503,0,18,18,18,1,0.8,0.2,0.4,0.6,,,,,,,,,,,,,,,0.4757,,0.8,0.2,0.6,0.4,0.6,0.4,0.2,0.8,,,0.4276,,0.2,0.8,0.4,0.6,0.6,0.4,0.6,0.4,1,0
,,5e508aeddf9ae90dc8210705,66fc98b3ff9cd954959acd72,2024-10-02_13h51.11.042,mdp,2024.2.1,Win32,60.24096386,66fa4ebf79326e780c390304,,,,,,,,,,,,,,,,,,,,,1161.4507,1161.4507,1161.4512,1162.6851,1,1,right,0.7152,,1162.6858,1163.7684,1,1,right,1163.7694,1164.7017,0,1,left,0,1164.7017,1164.7017,1164.7025,1166.2022,0,19,19,19,1,0.8,0.2,0.4,0.6,,,,,,,,,,,,,,,0.558,,0.8,0.2,0.6,0.4,0.8,0.2,0.4,0.6,,,0.4065,,0.2,0.8,0.4,0.6,0.6,0.4,0.6,0.4,1,0
,,5e508aeddf9ae90dc8210705,66fc98b3ff9cd954959acd72,2024-10-02_13h51.11.042,mdp,2024.2.1,Win32,60.24096386,66fa4ebf79326e780c390304,,,,,,,,,,,,,,,,,,,,,1166.2026,1166.2026,1166.2033,1167.2195,1,0,right,0.5072,,1167.2203,1168.3207,1,0,right,1168.3217,1169.1873,1,1,right,0,1169.1877,1169.1877,1169.1887,1170.6881,0,20,20,20,1,0.8,0.2,0.4,0.6,,,,,,,,,,,,,,,0.5767,,0.8,0.2,0.6,0.4,0.8,0.2,0.4,0.6,,,0.3431,,0.2,0.8,0.4,0.6,0.6,0.4,0.6,0.4,1,0
,,5e508aeddf9ae90dc8210705,66fc98b3ff9cd954959acd72,2024-10-02_13h51.11.042,mdp,2024.2.1,Win32,60.24096386,66fa4ebf79326e780c390304,,,,,,,,,,,,,,,,,,,,,1170.6885,1170.6885,1170.6892,1171.4551,0,0,left,0.2546,,1171.4556,1172.6395,0,1,left,1172.6403,1173.7398,0,0,left,1,1173.7398,1173.7398,1173.7405,1175.2403,0,21,21,21,1,0.8,0.2,0.4,0.6,,,,,,,,,,,,,,,0.6793,,0.8,0.2,0.6,0.4,0.8,0.2,0.4,0.6,,,0.5742,,0.2,0.8,0.4,0.6,0.6,0.4,0.6,0.4,1,0
,,5e508aeddf9ae90dc8210705,66fc98b3ff9cd954959acd72,2024-10-02_13h51.11.042,mdp,2024.2.1,Win32,60.24096386,66fa4ebf79326e780c390304,,,,,,,,,,,,,,,,,,,,,1175.2407,1175.2407,1175.2415,1176.0247,0,1,left,0.2685,,1176.0255,1177.1089,0,0,left,1177.1097,1178.2601,0,1,left,0,1178.2601,1178.2601,1178.2609,1179.7606,0,22,22,22,1,0.8,0.2,0.4,0.6,,,,,,,,,,,,,,,0.5692,,0.8,0.2,0.6,0.4,0.8,0.2,0.4,0.6,,,0.6391,,0.2,0.8,0.4,0.6,0.6,0.4,0.6,0.4,1,0
,,5e508aeddf9ae90dc8210705,66fc98b3ff9cd954959acd72,2024-10-02_13h51.11.042,mdp,2024.2.1,Win32,60.24096386,66fa4ebf79326e780c390304,,,,,,,,,,,,,,,,,,,,,1179.7609,1179.7609,1179.7615,1180.9609,1,0,right,0.6797,,1180.9618,1181.9109,1,0,right,1181.9118,1182.7787,1,1,right,0,1182.7788,1182.7789,1182.7796,1184.2791,0,23,23,23,1,0.8,0.2,0.4,0.6,,,,,,,,,,,,,,,0.4252,,0.8,0.2,0.6,0.4,0.8,0.2,0.4,0.6,,,0.3624,,0.2,0.8,0.4,0.6,0.6,0.4,0.6,0.4,1,0
,,5e508aeddf9ae90dc8210705,66fc98b3ff9cd954959acd72,2024-10-02_13h51.11.042,mdp,2024.2.1,Win32,60.24096386,66fa4ebf79326e780c390304,,,,,,,,,,,,,,,,,,,,,1184.2795,1184.2795,1184.28,1185.3297,0,0,left,0.5473,,1185.3306,1186.2806,1,1,right,1186.2812,1187.114,0,0,left,1,1187.114,1187.114,1187.1149,1188.6145,0,24,24,24,1,0.2,0.8,0.8,0.2,,,,,,,,,,,,,,,0.4457,,0.8,0.2,0.6,0.4,0.8,0.2,0.4,0.6,,,0.3155,,0.2,0.8,0.4,0.6,0.6,0.4,0.6,0.4,1,0
,,5e508aeddf9ae90dc8210705,66fc98b3ff9cd954959acd72,2024-10-02_13h51.11.042,mdp,2024.2.1,Win32,60.24096386,66fa4ebf79326e780c390304,,,,,,,,,,,,,,,,,,,,,1188.6149,1188.6149,1188.6157,1189.6151,0,1,left,0.4863,,1189.6158,1190.6655,1,0,right,1190.6662,1191.7495,0,1,left,0,1191.7496,1191.7496,1191.7504,1193.2505,0,25,25,25,1,0.2,0.8,0.8,0.2,,,,,,,,,,,,,,,0.5296,,0.8,0.2,0.6,0.4,0.8,0.2,0.4,0.6,,,0.5642,,0.2,0.8,0.4,0.6,0.6,0.4,0.6,0.4,1,0
,,5e508aeddf9ae90dc8210705,66fc98b3ff9cd954959acd72,2024-10-02_13h51.11.042,mdp,2024.2.1,Win32,60.24096386,66fa4ebf79326e780c390304,,,,,,,,,,,,,,,,,,,,,1193.251,1193.251,1193.2518,1194.651,1,0,right,0.8693,,1194.6519,1195.6682,0,1,left,1195.669,1196.6043,1,0,right,1,1196.6043,1196.6043,1196.6048,1198.1026,0,26,26,26,1,0.2,0.8,0.8,0.2,,,,,,,,,,,,,,,0.4966,,0.8,0.2,0.6,0.4,0.8,0.2,0.4,0.6,,,0.4164,,0.2,0.8,0.4,0.6,0.6,0.4,0.6,0.4,1,0
,,5e508aeddf9ae90dc8210705,66fc98b3ff9cd954959acd72,2024-10-02_13h51.11.042,mdp,2024.2.1,Win32,60.24096386,66fa4ebf79326e780c390304,,,,,,,,,,,,,,,,,,,,,1198.103,1198.103,1198.104,1199.3534,1,0,right,0.7343,,1199.3546,1200.2887,0,1,left,1200.2894,1201.2714,1,1,right,0,1201.2714,1201.2714,1201.2721,1202.7721,0,27,27,27,1,0.2,0.8,0.8,0.2,,,,,,,,,,,,,,,0.4277,,0.8,0.2,0.6,0.4,0.8,0.2,0.4,0.6,,,0.4407,,0.2,0.8,0.4,0.6,0.6,0.4,0.6,0.4,1,0
,,5e508aeddf9ae90dc8210705,66fc98b3ff9cd954959acd72,2024-10-02_13h51.11.042,mdp,2024.2.1,Win32,60.24096386,66fa4ebf79326e780c390304,,,,,,,,,,,,,,,,,,,,,1202.7725,1202.7725,1202.7732,1203.94,0,1,left,0.6613,,1203.9408,1205.0406,1,1,right,1205.0415,1205.941,0,1,left,0,1205.9411,1205.9411,1205.9418,1207.4422,0,28,28,28,1,0.2,0.8,0.8,0.2,,,,,,,,,,,,,,,0.569,,0.8,0.2,0.6,0.4,0.8,0.2,0.4,0.6,,,0.3687,,0.2,0.8,0.4,0.6,0.6,0.4,0.6,0.4,1,0
,,5e508aeddf9ae90dc8210705,66fc98b3ff9cd954959acd72,2024-10-02_13h51.11.042,mdp,2024.2.1,Win32,60.24096386,66fa4ebf79326e780c390304,,,,,,,,,,,,,,,,,,,,,1207.4427,1207.4427,1207.4432,1208.4587,0,0,left,0.4884,,1208.4595,1209.5765,0,0,left,1209.5774,1210.493,0,0,left,1,1210.4931,1210.4931,1210.4941,1211.9938,0,29,29,29,1,0.2,0.8,0.8,0.2,,,,,,,,,,,,,,,0.5837,,0.8,0.2,0.6,0.4,0.8,0.2,0.4,0.6,,,0.4054,,0.6,0.4,0.8,0.2,0.6,0.4,0.6,0.4,1,0
,,5e508aeddf9ae90dc8210705,66fc98b3ff9cd954959acd72,2024-10-02_13h51.11.042,mdp,2024.2.1,Win32,60.24096386,66fa4ebf79326e780c390304,,,,,,,,,,,,,,,,,,,,,1211.9942,1211.9942,1211.995,1212.7614,0,1,left,0.2606,,1212.7622,1213.7952,0,0,left,1213.796,1214.7283,0,0,left,1,1214.7284,1214.7284,1214.7292,1216.229,0,30,30,30,1,0.2,0.8,0.8,0.2,,,,,,,,,,,,,,,0.4985,,0.4,0.6,0.4,0.6,0.8,0.2,0.4,0.6,,,0.4031,,0.6,0.4,0.8,0.2,0.6,0.4,0.6,0.4,1,0
,,5e508aeddf9ae90dc8210705,66fc98b3ff9cd954959acd72,2024-10-02_13h51.11.042,mdp,2024.2.1,Win32,60.24096386,66fa4ebf79326e780c390304,,,,,,,,,,,,,,,,,,,,,1216.2294,1216.2294,1216.2303,1217.3135,0,1,left,0.5756,,1217.3143,1218.2143,0,0,left,1218.2151,1219.1471,0,0,left,1,1219.1471,1219.1471,1219.1481,1220.6494,0,31,31,31,1,0.2,0.8,0.8,0.2,,,,,,,,,,,,,,,0.3755,,0.4,0.6,0.4,0.6,0.8,0.2,0.4,0.6,,,0.4138,,0.6,0.4,0.8,0.2,0.6,0.4,0.6,0.4,1,0
,,5e508aeddf9ae90dc8210705,66fc98b3ff9cd954959acd72,2024-10-02_13h51.11.042,mdp,2024.2.1,Win32,60.24096386,66fa4ebf79326e780c390304,,,,,,,,,,,,,,,,,,,,,1220.6497,1220.6497,1220.6504,1221.2983,0,1,left,0.1254,,1221.2992,1222.249,0,0,left,1222.2503,1223.1829,0,0,left,1,1223.183,1223.183,1223.1839,1224.6838,0,32,32,32,1,0.2,0.8,0.8,0.2,,,,,,,,,,,,,,,0.4384,,0.4,0.6,0.4,0.6,0.8,0.2,0.4,0.6,,,0.4237,,0.6,0.4,0.8,0.2,0.6,0.4,0.6,0.4,1,0
,,5e508aeddf9ae90dc8210705,66fc98b3ff9cd954959acd72,2024-10-02_13h51.11.042,mdp,2024.2.1,Win32,60.24096386,66fa4ebf79326e780c390304,,,,,,,,,,,,,,,,,,,,,1224.6842,1224.6842,1224.6848,1226.418,0,1,left,1.2273,,1226.4189,1227.4519,0,1,left,1227.4531,1228.4527,0,1,left,0,1228.4528,1228.4528,1228.4538,1229.9537,0,33,33,33,1,0.2,0.8,0.8,0.2,,,,,,,,,,,,,,,0.5291,,0.4,0.6,0.4,0.6,0.8,0.2,0.4,0.6,,,0.4872,,0.6,0.4,0.8,0.2,0.6,0.4,0.6,0.4,1,0
,,5e508aeddf9ae90dc8210705,66fc98b3ff9cd954959acd72,2024-10-02_13h51.11.042,mdp,2024.2.1,Win32,60.24096386,66fa4ebf79326e780c390304,,,,,,,,,,,,,,,,,,,,,1229.9541,1229.9541,1229.9548,1230.8544,1,1,right,0.3784,,1230.8552,1231.9049,1,1,right,1231.9059,1233.0219,1,1,right,0,1233.0219,1233.0219,1233.0227,1234.5227,0,34,34,34,1,0.2,0.8,0.8,0.2,,,,,,,,,,,,,,,0.5287,,0.4,0.6,0.4,0.6,0.8,0.2,0.4,0.6,,,0.589,,0.6,0.4,0.8,0.2,0.6,0.4,0.6,0.4,1,0
,,5e508aeddf9ae90dc8210705,66fc98b3ff9cd954959acd72,2024-10-02_13h51.11.042,mdp,2024.2.1,Win32,60.24096386,66fa4ebf79326e780c390304,,,,,,,,,,,,,,,,,,,,,1234.5232,1234.5232,1234.5239,1235.6233,0,1,left,0.574,,1235.6242,1236.6076,1,1,right,1236.6084,1237.542,0,1,left,0,1237.5421,1237.5421,1237.543,1239.0426,0,35,35,35,1,0.2,0.8,0.8,0.2,,,,,,,,,,,,,,,0.4768,,0.4,0.6,0.4,0.6,0.8,0.2,0.4,0.6,,,0.4096,,0.6,0.4,0.8,0.2,0.4,0.6,0.4,0.6,1,0
,,5e508aeddf9ae90dc8210705,66fc98b3ff9cd954959acd72,2024-10-02_13h51.11.042,mdp,2024.2.1,Win32,60.24096386,66fa4ebf79326e780c390304,,,,,,,,,,,,,,,,,,,,,1239.0431,1239.0431,1239.0437,1240.2771,1,0,right,0.7096,,1240.2778,1241.3767,0,1,left,1241.3777,1242.4105,1,0,right,1,1242.4105,1242.4106,1242.411,1243.9106,0,36,36,36,1,0.2,0.8,0.8,0.2,,,,,,,,,,,,,,,0.5565,,0.4,0.6,0.4,0.6,0.8,0.2,0.4,0.6,,,0.5032,,0.6,0.4,0.8,0.2,0.4,0.6,0.4,0.6,1,0
,,5e508aeddf9ae90dc8210705,66fc98b3ff9cd954959acd72,2024-10-02_13h51.11.042,mdp,2024.2.1,Win32,60.24096386,66fa4ebf79326e780c390304,,,,,,,,,,,,,,,,,,,,,1243.911,1243.911,1243.9114,1245.0123,1,0,right,0.5956,,1245.0132,1246.0462,0,0,left,1246.0467,1247.1464,1,0,right,1,1247.1464,1247.1464,1247.1472,1248.6469,0,37,37,37,1,0.2,0.8,0.8,0.2,,,,,,,,,,,,,,,0.5052,,0.6,0.4,0.8,0.2,0.8,0.2,0.4,0.6,,,0.5675,,0.6,0.4,0.8,0.2,0.4,0.6,0.4,0.6,1,0
,,5e508aeddf9ae90dc8210705,66fc98b3ff9cd954959acd72,2024-10-02_13h51.11.042,mdp,2024.2.1,Win32,60.24096386,66fa4ebf79326e780c390304,,,,,,,,,,,,,,,,,,,,,1248.6473,1248.6473,1248.6478,1249.6803,1,1,right,0.5025,,1249.681,1250.8143,0,1,left,1250.8154,1251.9317,1,1,right,0,1251.9318,1251.9319,1251.9327,1253.4323,0,38,38,38,1,0.8,0.2,0.2,0.8,,,,,,,,,,,,,,,0.6222,,0.6,0.4,0.8,0.2,0.8,0.2,0.4,0.6,,,0.6021,,0.6,0.4,0.8,0.2,0.4,0.6,0.4,0.6,1,0
,,5e508aeddf9ae90dc8210705,66fc98b3ff9cd954959acd72,2024-10-02_13h51.11.042,mdp,2024.2.1,Win32,60.24096386,66fa4ebf79326e780c390304,,,,,,,,,,,,,,,,,,,,,1253.433,1253.433,1253.4338,1254.7828,0,0,left,0.8205,,1254.7837,1255.8836,1,0,right,1255.8845,1256.834,0,0,left,1,1256.834,1256.834,1256.8347,1258.3348,0,39,39,39,1,0.8,0.2,0.2,0.8,,,,,,,,,,,,,,,0.5841,,0.6,0.4,0.8,0.2,0.8,0.2,0.4,0.6,,,0.4414,,0.8,0.2,0.2,0.8,0.4,0.6,0.4,0.6,1,0
,,5e508aeddf9ae90dc8210705,66fc98b3ff9cd954959acd72,2024-10-02_13h51.11.042,mdp,2024.2.1,Win32,60.24096386,66fa4ebf79326e780c390304,,,,,,,,,,,,,,,,,,,,,1258.3352,1258.3352,1258.3358,1259.5689,0,0,left,0.7182,,1259.5697,1260.8873,1,0,right,1260.8881,1261.9709,0,0,left,1,1261.9709,1261.9709,1261.9717,1263.472,0,40,40,40,1,0.8,0.2,0.2,0.8,,,,,,,,,,,,,,,0.806,,0.6,0.4,0.8,0.2,0.8,0.2,0.4,0.6,,,0.5658,,0.8,0.2,0.2,0.8,0.4,0.6,0.4,0.6,1,0
,,5e508aeddf9ae90dc8210705,66fc98b3ff9cd954959acd72,2024-10-02_13h51.11.042,mdp,2024.2.1,Win32,60.24096386,66fa4ebf79326e780c390304,,,,,,,,,,,,,,,,,,,,,1263.4723,1263.4723,1263.4729,1264.5558,0,0,left,0.5695,,1264.5567,1265.5726,1,1,right,1265.5735,1266.5403,1,1,right,0,1266.5404,1266.5404,1266.5413,1268.0405,0,41,41,41,1,0.8,0.2,0.2,0.8,,,,,,,,,,,,,,,0.4947,,0.6,0.4,0.8,0.2,0.8,0.2,0.4,0.6,,,0.4557,,0.8,0.2,0.2,0.8,0.2,0.8,0.2,0.8,1,0
,,5e508aeddf9ae90dc8210705,66fc98b3ff9cd954959acd72,2024-10-02_13h51.11.042,mdp,2024.2.1,Win32,60.24096386,66fa4ebf79326e780c390304,,,,,,,,,,,,,,,,,,,,,1268.0408,1268.0408,1268.0415,1269.5414,0,0,left,0.9738,,1269.5423,1270.5257,1,0,right,1270.5267,1271.4593,0,0,left,1,1271.4594,1271.4594,1271.4601,1272.96,0,42,42,42,1,0.8,0.2,0.2,0.8,,,,,,,,,,,,,,,0.4745,,0.6,0.4,0.8,0.2,0.8,0.2,0.4,0.6,,,0.4147,,0.8,0.2,0.2,0.8,0.2,0.8,0.2,0.8,1,0
,,5e508aeddf9ae90dc8210705,66fc98b3ff9cd954959acd72,2024-10-02_13h51.11.042,mdp,2024.2.1,Win32,60.24096386,66fa4ebf79326e780c390304,,,,,,,,,,,,,,,,,,,,,1272.9603,1272.9604,1272.9611,1274.1278,0,0,left,0.6357,,1274.1286,1275.161,1,0,right,1275.1619,1276.1447,0,0,left,1,1276.1447,1276.1447,1276.1456,1277.6453,0,43,43,43,1,0.8,0.2,0.2,0.8,,,,,,,,,,,,,,,0.5122,,0.6,0.4,0.8,0.2,0.8,0.2,0.4,0.6,,,0.4727,,0.8,0.2,0.2,0.8,0.2,0.8,0.2,0.8,1,0
,,5e508aeddf9ae90dc8210705,66fc98b3ff9cd954959acd72,2024-10-02_13h51.11.042,mdp,2024.2.1,Win32,60.24096386,66fa4ebf79326e780c390304,,,,,,,,,,,,,,,,,,,,,1277.6457,1277.6457,1277.6468,1278.8467,0,0,left,0.6929,,1278.8475,1279.8633,1,1,right,1279.8643,1280.9473,0,1,left,0,1280.9473,1280.9473,1280.9482,1282.4479,0,44,44,44,1,0.8,0.2,0.2,0.8,,,,,,,,,,,,,,,0.4877,,0.6,0.4,0.8,0.2,0.8,0.2,0.4,0.6,,,0.5694,,0.8,0.2,0.2,0.8,0.2,0.8,0.2,0.8,1,0
,,5e508aeddf9ae90dc8210705,66fc98b3ff9cd954959acd72,2024-10-02_13h51.11.042,mdp,2024.2.1,Win32,60.24096386,66fa4ebf79326e780c390304,,,,,,,,,,,,,,,,,,,,,1282.4483,1282.4483,1282.4494,1283.4155,1,1,right,0.4487,,1283.4164,1284.3664,0,0,left,1284.3674,1285.2496,1,0,right,1,1285.2498,1285.2498,1285.2508,1286.7516,0,45,45,45,1,0.8,0.2,0.2,0.8,,,,,,,,,,,,,,,0.426,,0.6,0.4,0.8,0.2,0.4,0.6,0.8,0.2,,,0.356,,0.8,0.2,0.2,0.8,0.2,0.8,0.2,0.8,1,0
,,5e508aeddf9ae90dc8210705,66fc98b3ff9cd954959acd72,2024-10-02_13h51.11.042,mdp,2024.2.1,Win32,60.24096386,66fa4ebf79326e780c390304,,,,,,,,,,,,,,,,,,,,,1286.7519,1286.7519,1286.7524,1287.8846,1,0,right,0.6151,,1287.8853,1288.9017,0,1,left,1288.9028,1290.0857,1,1,right,0,1290.0857,1290.0857,1290.0865,1291.5873,0,46,46,46,1,0.8,0.2,0.2,0.8,,,,,,,,,,,,,,,0.4905,,0.6,0.4,0.8,0.2,0.4,0.6,0.8,0.2,,,0.6758,,0.8,0.2,0.2,0.8,0.2,0.8,0.2,0.8,1,0
,,5e508aeddf9ae90dc8210705,66fc98b3ff9cd954959acd72,2024-10-02_13h51.11.042,mdp,2024.2.1,Win32,60.24096386,66fa4ebf79326e780c390304,,,,,,,,,,,,,,,,,,,,,1291.5877,1291.5877,1291.5882,1292.7212,0,0,left,0.6136,,1292.7219,1293.7888,0,1,left,1293.7897,1294.7723,0,0,left,1,1294.7723,1294.7723,1294.773,1296.2724,0,47,47,47,1,0.8,0.2,0.2,0.8,,,,,,,,,,,,,,,0.562,,0.6,0.4,0.8,0.2,0.4,0.6,0.8,0.2,,,0.464,,0.8,0.2,0.2,0.8,0.2,0.8,0.2,0.8,1,0
,,5e508aeddf9ae90dc8210705,66fc98b3ff9cd954959acd72,2024-10-02_13h51.11.042,mdp,2024.2.1,Win32,60.24096386,66fa4ebf79326e780c390304,,,,,,,,,,,,,,,,,,,,,1296.2729,1296.2729,1296.2733,1297.2065,0,0,left,0.4295,,1297.2074,1298.2067,0,0,left,1298.2075,1299.2743,0,0,left,1,1299.2744,1299.2744,1299.2751,1300.7756,0,48,48,48,1,0.8,0.2,0.2,0.8,,,,,,,,,,,,,,,0.4844,,0.6,0.4,0.8,0.2,0.4,0.6,0.8,0.2,,,0.5547,,0.8,0.2,0.2,0.8,0.2,0.8,0.2,0.8,1,0
,,5e508aeddf9ae90dc8210705,66fc98b3ff9cd954959acd72,2024-10-02_13h51.11.042,mdp,2024.2.1,Win32,60.24096386,66fa4ebf79326e780c390304,,,,,,,,,,,,,,,,,,,,,1300.776,1300.776,1300.7766,1301.9591,0,0,left,0.6573,,1301.96,1303.0929,0,0,left,1303.0937,1304.4429,0,1,left,0,1304.443,1304.443,1304.4438,1305.9442,0,49,49,49,1,0.8,0.2,0.2,0.8,,,,,,,,,,,,,,,0.6218,,0.6,0.4,0.8,0.2,0.4,0.6,0.8,0.2,,,0.8259,,0.6,0.4,0.8,0.2,0.2,0.8,0.2,0.8,1,0
,,5e508aeddf9ae90dc8210705,66fc98b3ff9cd954959acd72,2024-10-02_13h51.11.042,mdp,2024.2.1,Win32,60.24096386,66fa4ebf79326e780c390304,,,,,,,,,,,,,,,,,,,,,,,,,,,,,,,,,,,,,,,,,,,,,,,,,,,,,,,,1305.9443,1364.4587,0,3,3,0,1,imgs/cat.png,imgs/bear.png,imgs/elephant.png,imgs/kangaroo.png,imgs/squirrel.png,,,,,,,,,,,,,,,,,,,,,,,,
,,5e508aeddf9ae90dc8210705,66fc98b3ff9cd954959acd72,2024-10-02_13h51.11.042,mdp,2024.2.1,Win32,60.24096386,66fa4ebf79326e780c390304,,,,,,,,,,,,,,1,seqs/st1seq3.csv,1364.4597,1366.594,space,1.612,,1366.5964,1366.5964,1366.5969,1368.4606,0,0,left,1.3282,,1368.4615,1368.462,0,0,,1368.4625,1368.4627,0,1,,1,1368.4627,1368.4627,1368.4629,1369.9612,0,0,0,0,1,0.6,0.4,0.6,0.4,1,0,,,,,,,,,,,,,,,,,,,,,,,,,,,,,,,,,,,,
,,5e508aeddf9ae90dc8210705,66fc98b3ff9cd954959acd72,2024-10-02_13h51.11.042,mdp,2024.2.1,Win32,60.24096386,66fa4ebf79326e780c390304,,,,,,,,,,,,,,,,,,,,,1369.9618,1369.9618,1369.9625,1371.3289,0,1,left,0.8506,,1371.33,1371.3305,0,0,,1371.3312,1371.3316,0,1,,0,1371.3317,1371.3317,1371.332,1372.8304,0,1,1,1,1,0.6,0.4,0.6,0.4,1,0,,,,,,,,,,,,,,,,,,,,,,,,,,,,,,,,,,,,
,,5e508aeddf9ae90dc8210705,66fc98b3ff9cd954959acd72,2024-10-02_13h51.11.042,mdp,2024.2.1,Win32,60.24096386,66fa4ebf79326e780c390304,,,,,,,,,,,,,,,,,,,,,1372.8307,1372.8308,1372.8316,1373.9967,0,0,left,0.6625,,1373.9977,1373.9984,0,1,,1373.999,1373.9993,0,0,,1,1373.9993,1373.9993,1373.9996,1375.4976,0,2,2,2,1,0.6,0.4,0.6,0.4,1,0,,,,,,,,,,,,,,,,,,,,,,,,,,,,,,,,,,,,
,,5e508aeddf9ae90dc8210705,66fc98b3ff9cd954959acd72,2024-10-02_13h51.11.042,mdp,2024.2.1,Win32,60.24096386,66fa4ebf79326e780c390304,,,,,,,,,,,,,,,,,,,,,1375.498,1375.498,1375.4987,1376.4652,1,0,right,0.4646,,1376.466,1376.4664,0,0,,1376.4671,1376.4676,0,0,,1,1376.4676,1376.4676,1376.468,1377.9662,0,3,3,3,1,0.6,0.4,0.6,0.4,1,0,,,,,,,,,,,,,,,,,,,,,,,,,,,,,,,,,,,,
,,5e508aeddf9ae90dc8210705,66fc98b3ff9cd954959acd72,2024-10-02_13h51.11.042,mdp,2024.2.1,Win32,60.24096386,66fa4ebf79326e780c390304,,,,,,,,,,,,,,,,,,,,,1377.9665,1377.9665,1377.9672,1379.0836,0,1,left,0.585,,1379.0844,1379.0848,0,0,,1379.085,1379.0853,0,1,,0,1379.0853,1379.0853,1379.0854,1380.5846,0,4,4,4,1,0.6,0.4,0.6,0.4,1,0,,,,,,,,,,,,,,,,,,,,,,,,,,,,,,,,,,,,
,,5e508aeddf9ae90dc8210705,66fc98b3ff9cd954959acd72,2024-10-02_13h51.11.042,mdp,2024.2.1,Win32,60.24096386,66fa4ebf79326e780c390304,,,,,,,,,,,,,,,,,,,,,1380.5849,1380.5849,1380.5854,1382.1011,0,1,left,0.9958,,1382.1019,1382.1024,0,0,,1382.103,1382.1035,0,0,,0,1382.1035,1382.1035,1382.1037,1383.6022,0,5,5,5,1,0.8,0.2,0.2,0.8,1,0,,,,,,,,,,,,,,,,,,,,,,,,,,,,,,,,,,,,
,,5e508aeddf9ae90dc8210705,66fc98b3ff9cd954959acd72,2024-10-02_13h51.11.042,mdp,2024.2.1,Win32,60.24096386,66fa4ebf79326e780c390304,,,,,,,,,,,,,,,,,,,,,1383.6024,1383.6024,1383.6031,1384.7694,0,1,left,0.653,,1384.7702,1384.7706,0,0,,1384.7709,1384.7711,0,0,,0,1384.7711,1384.7711,1384.7713,1386.2703,0,6,6,6,1,0.8,0.2,0.2,0.8,1,0,,,,,,,,,,,,,,,,,,,,,,,,,,,,,,,,,,,,
,,5e508aeddf9ae90dc8210705,66fc98b3ff9cd954959acd72,2024-10-02_13h51.11.042,mdp,2024.2.1,Win32,60.24096386,66fa4ebf79326e780c390304,,,,,,,,,,,,,,,,,,,,,1386.2706,1386.2706,1386.2713,1387.2883,1,1,right,0.5089,,1387.289,1387.2894,0,1,,1387.2898,1387.29,0,1,,0,1387.29,1387.2901,1387.2902,1388.7887,0,7,7,7,1,0.8,0.2,0.2,0.8,1,0,,,,,,,,,,,,,,,,,,,,,,,,,,,,,,,,,,,,
,,5e508aeddf9ae90dc8210705,66fc98b3ff9cd954959acd72,2024-10-02_13h51.11.042,mdp,2024.2.1,Win32,60.24096386,66fa4ebf79326e780c390304,,,,,,,,,,,,,,,,,,,,,1388.789,1388.789,1388.7896,1390.406,1,0,right,1.093,,1390.4069,1390.4074,0,1,,1390.408,1390.4083,0,1,,1,1390.4083,1390.4084,1390.4086,1391.9065,0,8,8,8,1,0.8,0.2,0.2,0.8,1,0,,,,,,,,,,,,,,,,,,,,,,,,,,,,,,,,,,,,
,,5e508aeddf9ae90dc8210705,66fc98b3ff9cd954959acd72,2024-10-02_13h51.11.042,mdp,2024.2.1,Win32,60.24096386,66fa4ebf79326e780c390304,,,,,,,,,,,,,,,,,,,,,1391.9069,1391.9069,1391.9079,1392.9251,0,0,left,0.4996,,1392.926,1392.9263,0,1,,1392.9267,1392.9269,0,0,,1,1392.9269,1392.9269,1392.9271,1394.4247,0,9,9,9,1,0.8,0.2,0.2,0.8,1,0,,,,,,,,,,,,,,,,,,,,,,,,,,,,,,,,,,,,
,,5e508aeddf9ae90dc8210705,66fc98b3ff9cd954959acd72,2024-10-02_13h51.11.042,mdp,2024.2.1,Win32,60.24096386,66fa4ebf79326e780c390304,,,,,,,,,,,,,,,,,,,,,1394.425,1394.425,1394.4257,1395.4258,1,1,right,0.4891,,1395.4265,1395.4269,0,1,,1395.4273,1395.4275,0,1,,0,1395.4275,1395.4275,1395.4278,1396.9264,0,10,10,10,1,0.8,0.2,0.2,0.8,1,0,,,,,,,,,,,,,,,,,,,,,,,,,,,,,,,,,,,,
,,5e508aeddf9ae90dc8210705,66fc98b3ff9cd954959acd72,2024-10-02_13h51.11.042,mdp,2024.2.1,Win32,60.24096386,66fa4ebf79326e780c390304,,,,,,,,,,,,,,,,,,,,,1396.9267,1396.9267,1396.9275,1397.7936,1,0,right,0.3602,,1397.7946,1397.7953,0,1,,1397.796,1397.7965,0,1,,1,1397.7966,1397.7966,1397.797,1399.2949,0,11,11,11,1,0.8,0.2,0.2,0.8,1,0,,,,,,,,,,,,,,,,,,,,,,,,,,,,,,,,,,,,
,,5e508aeddf9ae90dc8210705,66fc98b3ff9cd954959acd72,2024-10-02_13h51.11.042,mdp,2024.2.1,Win32,60.24096386,66fa4ebf79326e780c390304,,,,,,,,,,,,,,,,,,,,,1399.2952,1399.2952,1399.2956,1400.1946,0,0,left,0.3794,,1400.1954,1400.196,0,0,,1400.1964,1400.1969,0,0,,1,1400.1969,1400.197,1400.1975,1401.6952,0,12,12,12,1,0.4,0.6,0.8,0.2,1,0,,,,,,,,,,,,,,,,,,,,,,,,,,,,,,,,,,,,
,,5e508aeddf9ae90dc8210705,66fc98b3ff9cd954959acd72,2024-10-02_13h51.11.042,mdp,2024.2.1,Win32,60.24096386,66fa4ebf79326e780c390304,,,,,,,,,,,,,,,,,,,,,1401.6955,1401.6955,1401.6962,1402.6287,1,1,right,0.4174,,1402.6298,1402.6302,0,0,,1402.6306,1402.6308,0,1,,0,1402.6309,1402.6309,1402.6312,1404.1304,0,13,13,13,1,0.4,0.6,0.8,0.2,1,0,,,,,,,,,,,,,,,,,,,,,,,,,,,,,,,,,,,,
,,5e508aeddf9ae90dc8210705,66fc98b3ff9cd954959acd72,2024-10-02_13h51.11.042,mdp,2024.2.1,Win32,60.24096386,66fa4ebf79326e780c390304,,,,,,,,,,,,,,,,,,,,,1404.1307,1404.1308,1404.1315,1405.0304,1,0,right,0.3699,,1405.0313,1405.032,0,1,,1405.0326,1405.0331,0,1,,1,1405.0331,1405.0331,1405.0335,1406.5309,0,14,14,14,1,0.4,0.6,0.8,0.2,1,0,,,,,,,,,,,,,,,,,,,,,,,,,,,,,,,,,,,,
,,5e508aeddf9ae90dc8210705,66fc98b3ff9cd954959acd72,2024-10-02_13h51.11.042,mdp,2024.2.1,Win32,60.24096386,66fa4ebf79326e780c390304,,,,,,,,,,,,,,,,,,,,,1406.5313,1406.5313,1406.5318,1407.7321,0,0,left,0.6804,,1407.733,1407.7334,0,0,,1407.734,1407.7344,0,0,,1,1407.7345,1407.7345,1407.7349,1409.2326,0,15,15,15,1,0.6,0.4,0.2,0.8,1,0,,,,,,,,,,,,,,,,,,,,,,,,,,,,,,,,,,,,
,,5e508aeddf9ae90dc8210705,66fc98b3ff9cd954959acd72,2024-10-02_13h51.11.042,mdp,2024.2.1,Win32,60.24096386,66fa4ebf79326e780c390304,,,,,,,,,,,,,,,,,,,,,1409.2329,1409.2329,1409.2337,1410.0833,0,0,left,0.3182,,1410.0841,1410.0845,0,0,,1410.0848,1410.085,0,0,,1,1410.085,1410.085,1410.0852,1411.5839,0,16,16,16,1,0.6,0.4,0.2,0.8,1,0,,,,,,,,,,,,,,,,,,,,,,,,,,,,,,,,,,,,
,,5e508aeddf9ae90dc8210705,66fc98b3ff9cd954959acd72,2024-10-02_13h51.11.042,mdp,2024.2.1,Win32,60.24096386,66fa4ebf79326e780c390304,,,,,,,,,,,,,,,,,,,,,1411.5842,1411.5842,1411.5848,1412.5842,1,1,right,0.4913,,1412.5852,1412.5858,0,0,,1412.5863,1412.5866,0,1,,0,1412.5867,1412.5867,1412.5871,1414.0859,0,17,17,17,1,0.6,0.4,0.2,0.8,1,0,,,,,,,,,,,,,,,,,,,,,,,,,,,,,,,,,,,,
,,5e508aeddf9ae90dc8210705,66fc98b3ff9cd954959acd72,2024-10-02_13h51.11.042,mdp,2024.2.1,Win32,60.24096386,66fa4ebf79326e780c390304,,,,,,,,,,,,,,,,,,,,,1414.0862,1414.0863,1414.0868,1415.0364,1,1,right,0.4195,,1415.0373,1415.0378,0,1,,1415.0384,1415.0387,0,1,,0,1415.0387,1415.0387,1415.0391,1416.5378,0,18,18,18,1,0.6,0.4,0.2,0.8,1,0,,,,,,,,,,,,,,,,,,,,,,,,,,,,,,,,,,,,
,,5e508aeddf9ae90dc8210705,66fc98b3ff9cd954959acd72,2024-10-02_13h51.11.042,mdp,2024.2.1,Win32,60.24096386,66fa4ebf79326e780c390304,,,,,,,,,,,,,,,,,,,,,1416.5382,1416.5382,1416.5389,1417.938,0,0,left,0.8751,,1417.9389,1417.9395,0,1,,1417.9399,1417.9403,0,0,,1,1417.9403,1417.9403,1417.9405,1419.4377,0,19,19,19,1,0.6,0.4,0.2,0.8,1,0,,,,,,,,,,,,,,,,,,,,,,,,,,,,,,,,,,,,
,,5e508aeddf9ae90dc8210705,66fc98b3ff9cd954959acd72,2024-10-02_13h51.11.042,mdp,2024.2.1,Win32,60.24096386,66fa4ebf79326e780c390304,,,,,,,,,,,,,,,,,,,,,1419.4379,1419.4379,1419.4387,1420.6055,0,0,left,0.6522,,1420.6063,1420.6068,0,1,,1420.6074,1420.6077,0,1,,1,1420.6077,1420.6077,1420.6081,1422.1066,0,20,20,20,1,0.6,0.4,0.2,0.8,1,0,,,,,,,,,,,,,,,,,,,,,,,,,,,,,,,,,,,,
,,5e508aeddf9ae90dc8210705,66fc98b3ff9cd954959acd72,2024-10-02_13h51.11.042,mdp,2024.2.1,Win32,60.24096386,66fa4ebf79326e780c390304,,,,,,,,,,,,,,,,,,,,,1422.1069,1422.1069,1422.1076,1423.1571,0,1,left,0.5232,,1423.158,1423.1585,0,0,,1423.1591,1423.1596,0,0,,0,1423.1596,1423.1596,1423.1599,1424.6574,0,21,21,21,1,0.6,0.4,0.2,0.8,1,0,,,,,,,,,,,,,,,,,,,,,,,,,,,,,,,,,,,,
,,5e508aeddf9ae90dc8210705,66fc98b3ff9cd954959acd72,2024-10-02_13h51.11.042,mdp,2024.2.1,Win32,60.24096386,66fa4ebf79326e780c390304,,,,,,,,,,,,,,,,,,,,,1424.6578,1424.6578,1424.6586,1425.6746,1,1,right,0.5127,,1425.6754,1425.6759,0,1,,1425.6763,1425.6765,0,1,,0,1425.6765,1425.6765,1425.6768,1427.1754,0,22,22,22,1,0.6,0.4,0.2,0.8,1,0,,,,,,,,,,,,,,,,,,,,,,,,,,,,,,,,,,,,
,,5e508aeddf9ae90dc8210705,66fc98b3ff9cd954959acd72,2024-10-02_13h51.11.042,mdp,2024.2.1,Win32,60.24096386,66fa4ebf79326e780c390304,,,,,,,,,,,,,,,,,,,,,1427.1757,1427.1757,1427.1767,1428.0929,1,1,right,0.3924,,1428.0937,1428.0943,0,1,,1428.0947,1428.0951,0,1,,0,1428.0951,1428.0951,1428.0954,1429.5944,0,23,23,23,1,0.6,0.4,0.2,0.8,1,0,,,,,,,,,,,,,,,,,,,,,,,,,,,,,,,,,,,,
,,5e508aeddf9ae90dc8210705,66fc98b3ff9cd954959acd72,2024-10-02_13h51.11.042,mdp,2024.2.1,Win32,60.24096386,66fa4ebf79326e780c390304,,,,,,,,,,,,,,,,,,,,,1429.5946,1429.5946,1429.5953,1430.8281,0,0,left,0.7079,,1430.829,1430.8295,0,1,,1430.8301,1430.8304,0,1,,1,1430.8304,1430.8304,1430.8307,1432.3286,0,24,24,24,1,0.6,0.4,0.2,0.8,1,0,,,,,,,,,,,,,,,,,,,,,,,,,,,,,,,,,,,,
,,5e508aeddf9ae90dc8210705,66fc98b3ff9cd954959acd72,2024-10-02_13h51.11.042,mdp,2024.2.1,Win32,60.24096386,66fa4ebf79326e780c390304,,,,,,,,,,,,,,,,,,,,,1432.3289,1432.3289,1432.3298,1433.4793,0,0,left,0.6454,,1433.4802,1433.4807,0,0,,1433.4812,1433.4816,0,0,,1,1433.4816,1433.4816,1433.482,1434.9805,0,25,25,25,1,0.8,0.2,0.4,0.6,1,0,,,,,,,,,,,,,,,,,,,,,,,,,,,,,,,,,,,,
,,5e508aeddf9ae90dc8210705,66fc98b3ff9cd954959acd72,2024-10-02_13h51.11.042,mdp,2024.2.1,Win32,60.24096386,66fa4ebf79326e780c390304,,,,,,,,,,,,,,,,,,,,,1434.9809,1434.9809,1434.9815,1435.8973,0,0,left,0.3852,,1435.8981,1435.8984,0,0,,1435.8989,1435.8991,0,0,,1,1435.8991,1435.8991,1435.8994,1437.398,0,26,26,26,1,0.8,0.2,0.4,0.6,1,0,,,,,,,,,,,,,,,,,,,,,,,,,,,,,,,,,,,,
,,5e508aeddf9ae90dc8210705,66fc98b3ff9cd954959acd72,2024-10-02_13h51.11.042,mdp,2024.2.1,Win32,60.24096386,66fa4ebf79326e780c390304,,,,,,,,,,,,,,,,,,,,,1437.3983,1437.3983,1437.3991,1439.1326,0,0,left,1.2005,,1439.1334,1439.1339,0,0,,1439.1346,1439.1348,0,0,,1,1439.1348,1439.1348,1439.1351,1440.6325,0,27,27,27,1,0.8,0.2,0.4,0.6,1,0,,,,,,,,,,,,,,,,,,,,,,,,,,,,,,,,,,,,
,,5e508aeddf9ae90dc8210705,66fc98b3ff9cd954959acd72,2024-10-02_13h51.11.042,mdp,2024.2.1,Win32,60.24096386,66fa4ebf79326e780c390304,,,,,,,,,,,,,,,,,,,,,1440.6327,1440.6327,1440.6335,1442.8353,0,0,left,1.6939,,1442.8361,1442.8365,0,1,,1442.8372,1442.8376,0,0,,1,1442.8376,1442.8376,1442.8379,1444.3351,0,28,28,28,1,0.8,0.2,0.4,0.6,1,0,,,,,,,,,,,,,,,,,,,,,,,,,,,,,,,,,,,,
,,5e508aeddf9ae90dc8210705,66fc98b3ff9cd954959acd72,2024-10-02_13h51.11.042,mdp,2024.2.1,Win32,60.24096386,66fa4ebf79326e780c390304,,,,,,,,,,,,,,,,,,,,,1444.3354,1444.3354,1444.336,1445.4031,0,0,left,0.5628,,1445.4039,1445.4043,0,0,,1445.4049,1445.4054,0,0,,1,1445.4054,1445.4054,1445.4056,1446.903,0,29,29,29,1,0.8,0.2,0.4,0.6,1,0,,,,,,,,,,,,,,,,,,,,,,,,,,,,,,,,,,,,
,,5e508aeddf9ae90dc8210705,66fc98b3ff9cd954959acd72,2024-10-02_13h51.11.042,mdp,2024.2.1,Win32,60.24096386,66fa4ebf79326e780c390304,,,,,,,,,,,,,,,,,,,,,1446.9033,1446.9033,1446.9039,1447.8046,0,0,left,0.396,,1447.8054,1447.8058,0,0,,1447.8064,1447.8067,0,1,,1,1447.8067,1447.8067,1447.807,1449.3043,0,30,30,30,1,0.4,0.6,0.8,0.2,1,0,,,,,,,,,,,,,,,,,,,,,,,,,,,,,,,,,,,,
,,5e508aeddf9ae90dc8210705,66fc98b3ff9cd954959acd72,2024-10-02_13h51.11.042,mdp,2024.2.1,Win32,60.24096386,66fa4ebf79326e780c390304,,,,,,,,,,,,,,,,,,,,,1449.3046,1449.3047,1449.3053,1450.1716,0,0,left,0.3529,,1450.1723,1450.1728,0,1,,1450.1733,1450.1737,0,1,,1,1450.1737,1450.1737,1450.174,1451.673,0,31,31,31,1,0.4,0.6,0.8,0.2,1,0,,,,,,,,,,,,,,,,,,,,,,,,,,,,,,,,,,,,
,,5e508aeddf9ae90dc8210705,66fc98b3ff9cd954959acd72,2024-10-02_13h51.11.042,mdp,2024.2.1,Win32,60.24096386,66fa4ebf79326e780c390304,,,,,,,,,,,,,,,,,,,,,1451.6734,1451.6734,1451.674,1454.0908,1,0,right,1.8929,,1454.0917,1454.0923,0,0,,1454.0928,1454.0931,0,1,,1,1454.0931,1454.0932,1454.0936,1455.591,0,32,32,32,1,0.4,0.6,0.8,0.2,1,0,,,,,,,,,,,,,,,,,,,,,,,,,,,,,,,,,,,,
,,5e508aeddf9ae90dc8210705,66fc98b3ff9cd954959acd72,2024-10-02_13h51.11.042,mdp,2024.2.1,Win32,60.24096386,66fa4ebf79326e780c390304,,,,,,,,,,,,,,,,,,,,,1455.5913,1455.5913,1455.592,1456.4919,1,0,right,0.3699,,1456.4926,1456.493,0,0,,1456.4934,1456.4936,0,0,,1,1456.4936,1456.4937,1456.494,1457.9918,0,33,33,33,1,0.4,0.6,0.8,0.2,1,0,,,,,,,,,,,,,,,,,,,,,,,,,,,,,,,,,,,,
,,5e508aeddf9ae90dc8210705,66fc98b3ff9cd954959acd72,2024-10-02_13h51.11.042,mdp,2024.2.1,Win32,60.24096386,66fa4ebf79326e780c390304,,,,,,,,,,,,,,,,,,,,,1457.9921,1457.9921,1457.9927,1460.344,1,0,right,1.8313,,1460.3447,1460.3455,0,0,,1460.3463,1460.3468,0,0,,1,1460.3468,1460.3468,1460.3475,1461.8436,0,34,34,34,1,0.4,0.6,0.8,0.2,1,0,,,,,,,,,,,,,,,,,,,,,,,,,,,,,,,,,,,,
,,5e508aeddf9ae90dc8210705,66fc98b3ff9cd954959acd72,2024-10-02_13h51.11.042,mdp,2024.2.1,Win32,60.24096386,66fa4ebf79326e780c390304,,,,,,,,,,,,,,,,,,,,,1461.8439,1461.8439,1461.8447,1462.9781,1,0,right,0.6187,,1462.9791,1462.9795,0,0,,1462.9801,1462.9804,0,1,,1,1462.9804,1462.9804,1462.9808,1464.4793,0,35,35,35,1,0.4,0.6,0.8,0.2,1,0,,,,,,,,,,,,,,,,,,,,,,,,,,,,,,,,,,,,
,,5e508aeddf9ae90dc8210705,66fc98b3ff9cd954959acd72,2024-10-02_13h51.11.042,mdp,2024.2.1,Win32,60.24096386,66fa4ebf79326e780c390304,,,,,,,,,,,,,,,,,,,,,1464.4797,1464.4797,1464.4805,1465.613,1,0,right,0.6141,,1465.6137,1465.6142,0,1,,1465.6148,1465.6151,0,1,,1,1465.6151,1465.6151,1465.6155,1467.1132,0,36,36,36,1,0.4,0.6,0.8,0.2,1,0,,,,,,,,,,,,,,,,,,,,,,,,,,,,,,,,,,,,
,,5e508aeddf9ae90dc8210705,66fc98b3ff9cd954959acd72,2024-10-02_13h51.11.042,mdp,2024.2.1,Win32,60.24096386,66fa4ebf79326e780c390304,,,,,,,,,,,,,,,,,,,,,1467.1134,1467.1134,1467.1141,1468.4142,1,1,right,0.7769,,1468.4153,1468.4158,0,0,,1468.4164,1468.4168,0,0,,0,1468.4169,1468.4169,1468.4174,1469.9148,0,37,37,37,1,0.4,0.6,0.8,0.2,1,0,,,,,,,,,,,,,,,,,,,,,,,,,,,,,,,,,,,,
,,5e508aeddf9ae90dc8210705,66fc98b3ff9cd954959acd72,2024-10-02_13h51.11.042,mdp,2024.2.1,Win32,60.24096386,66fa4ebf79326e780c390304,,,,,,,,,,,,,,,,,,,,,1469.9152,1469.9152,1469.916,1471.5327,1,0,right,1.0904,,1471.5335,1471.5342,0,0,,1471.5349,1471.5354,0,0,,1,1471.5355,1471.5355,1471.5358,1473.034,0,38,38,38,1,0.4,0.6,0.8,0.2,1,0,,,,,,,,,,,,,,,,,,,,,,,,,,,,,,,,,,,,
,,5e508aeddf9ae90dc8210705,66fc98b3ff9cd954959acd72,2024-10-02_13h51.11.042,mdp,2024.2.1,Win32,60.24096386,66fa4ebf79326e780c390304,,,,,,,,,,,,,,,,,,,,,1473.0345,1473.0345,1473.0353,1474.2501,1,0,right,0.6839,,1474.251,1474.2517,0,0,,1474.2524,1474.2529,0,0,,1,1474.2529,1474.2529,1474.2533,1475.7519,0,39,39,39,1,0.8,0.2,0.6,0.4,1,0,,,,,,,,,,,,,,,,,,,,,,,,,,,,,,,,,,,,
,,5e508aeddf9ae90dc8210705,66fc98b3ff9cd954959acd72,2024-10-02_13h51.11.042,mdp,2024.2.1,Win32,60.24096386,66fa4ebf79326e780c390304,,,,,,,,,,,,,,,,,,,,,1475.7523,1475.7523,1475.7532,1477.0862,1,0,right,0.8007,,1477.087,1477.0874,0,0,,1477.0878,1477.088,0,0,,1,1477.088,1477.088,1477.0881,1478.5873,0,40,40,40,1,0.8,0.2,0.6,0.4,1,0,,,,,,,,,,,,,,,,,,,,,,,,,,,,,,,,,,,,
