init_exp.started,init_exp.stopped,participant,session,date,expName,psychopyVersion,OS,frameRate,study_id,disp_instruction.started,disp_instruction.stopped,instruction.thisRepN,instruction.thisTrialN,instruction.thisN,instruction.thisIndex,instruction.ran,instimg_path,consent.started,consent.stopped,key_resp_3.keys,key_resp_3.rt,key_resp_3.duration,n_steps,sequence_path,init_block.started,init_block.stopped,key_resp.keys,key_resp.rt,key_resp.duration,init_trials.started,init_trials.stopped,step0.started,step0.stopped,act0,s1,res0.keys,res0.rt,res0.duration,step1.started,step1.stopped,act1,s2,res1.keys,step2.started,step2.stopped,act2,s3,res2.keys,rew,reward_comp.started,reward_comp.stopped,reward_disp.started,reward_disp.stopped,trials.thisRepN,trials.thisTrialN,trials.thisN,trials.thisIndex,trials.ran,s00a0s10,s00a0s11,s00a1s10,s00a1s11,rew10,rew11,break_block.started,break_block.stopped,block.thisRepN,block.thisTrialN,block.thisN,block.thisIndex,block.ran,s00path,s10path,s11path,s20path,s21path,res1.rt,res1.duration,s10a0s20,s10a0s21,s10a1s20,s10a1s21,s11a0s20,s11a0s21,s11a1s20,s11a1s21,rew20,rew21,res2.rt,res2.duration,s20a0s30,s20a0s31,s20a1s30,s20a1s31,s21a0s30,s21a0s31,s21a1s30,s21a1s31,rew30,rew31
0.0004,0.0021,5e7414b9929931398ae59f02,66fc98b1f6ba0ddc6b0f763b,2024-10-01_21h51.10.674,mdp,2024.2.1,Win32,59.88023952,66fa4ebf79326e780c390304,,,,,,,,,,,,,,,,,,,,,,,,,,,,,,,,,,,,,,,,,,,,,,,,,,,,,,,,,,,,,,,,,,,,,,,,,,,,,,,,,,,,,,,,,,,
,,5e7414b9929931398ae59f02,66fc98b1f6ba0ddc6b0f763b,2024-10-01_21h51.10.674,mdp,2024.2.1,Win32,59.88023952,66fa4ebf79326e780c390304,0.0061,471.087,0,0,0,0,1,rlnn_exp/rlnn_exp.001.png,,,,,,,,,,,,,,,,,,,,,,,,,,,,,,,,,,,,,,,,,,,,,,,,,,,,,,,,,,,,,,,,,,,,,,,,,,,,,,,,,,,
,,5e7414b9929931398ae59f02,66fc98b1f6ba0ddc6b0f763b,2024-10-01_21h51.10.674,mdp,2024.2.1,Win32,59.88023952,66fa4ebf79326e780c390304,471.0878,506.0066,0,1,1,1,1,rlnn_exp/rlnn_exp.002.png,,,,,,,,,,,,,,,,,,,,,,,,,,,,,,,,,,,,,,,,,,,,,,,,,,,,,,,,,,,,,,,,,,,,,,,,,,,,,,,,,,,
,,5e7414b9929931398ae59f02,66fc98b1f6ba0ddc6b0f763b,2024-10-01_21h51.10.674,mdp,2024.2.1,Win32,59.88023952,66fa4ebf79326e780c390304,506.0072,597.3661,0,2,2,2,1,rlnn_exp/rlnn_exp.003.png,,,,,,,,,,,,,,,,,,,,,,,,,,,,,,,,,,,,,,,,,,,,,,,,,,,,,,,,,,,,,,,,,,,,,,,,,,,,,,,,,,,
,,5e7414b9929931398ae59f02,66fc98b1f6ba0ddc6b0f763b,2024-10-01_21h51.10.674,mdp,2024.2.1,Win32,59.88023952,66fa4ebf79326e780c390304,597.3668,609.6801,0,3,3,3,1,rlnn_exp/rlnn_exp.004.png,,,,,,,,,,,,,,,,,,,,,,,,,,,,,,,,,,,,,,,,,,,,,,,,,,,,,,,,,,,,,,,,,,,,,,,,,,,,,,,,,,,
,,5e7414b9929931398ae59f02,66fc98b1f6ba0ddc6b0f763b,2024-10-01_21h51.10.674,mdp,2024.2.1,Win32,59.88023952,66fa4ebf79326e780c390304,,,,,,,,,609.6804,663.8258,y,44.1149,,,,,,,,,,,,,,,,,,,,,,,,,,,,,,,,,,,,,,,,,,,,,,,,,,,,,,,,,,,,,,,,,,,,,,,,,,,,,,,
,,5e7414b9929931398ae59f02,66fc98b1f6ba0ddc6b0f763b,2024-10-01_21h51.10.674,mdp,2024.2.1,Win32,59.88023952,66fa4ebf79326e780c390304,,,,,,,,,,,,,,1,seqs/st1seq17.csv,663.8309,666.2082,space,1.8675,,666.2116,666.2117,666.212,671.1877,0,0,left,4.4491,,671.188,671.1896,,1,,671.1898,671.1909,,1,,1,671.191,671.191,671.1912,672.6837,0,0,0,0,1,0.2,0.8,0.8,0.2,1,0,,,,,,,,,,,,,,,,,,,,,,,,,,,,,,,,,,,,
,,5e7414b9929931398ae59f02,66fc98b1f6ba0ddc6b0f763b,2024-10-01_21h51.10.674,mdp,2024.2.1,Win32,59.88023952,66fa4ebf79326e780c390304,,,,,,,,,,,,,,,,,,,,,672.6848,672.6848,672.6866,675.0141,1,1,right,1.8016,,675.0165,675.0172,,1,,675.0177,675.0181,,1,,0,675.0182,675.0182,675.0185,676.5173,0,1,1,1,1,0.8,0.2,0.2,0.8,1,0,,,,,,,,,,,,,,,,,,,,,,,,,,,,,,,,,,,,
,,5e7414b9929931398ae59f02,66fc98b1f6ba0ddc6b0f763b,2024-10-01_21h51.10.674,mdp,2024.2.1,Win32,59.88023952,66fa4ebf79326e780c390304,,,,,,,,,,,,,,,,,,,,,676.5181,676.5182,676.5194,677.5302,1,1,right,0.4875,,677.5316,677.5326,,0,,677.533,677.5333,,1,,0,677.5333,677.5333,677.5336,679.0299,0,2,2,2,1,0.8,0.2,0.2,0.8,1,0,,,,,,,,,,,,,,,,,,,,,,,,,,,,,,,,,,,,
,,5e7414b9929931398ae59f02,66fc98b1f6ba0ddc6b0f763b,2024-10-01_21h51.10.674,mdp,2024.2.1,Win32,59.88023952,66fa4ebf79326e780c390304,,,,,,,,,,,,,,,,,,,,,679.0305,679.0305,679.032,680.0162,1,0,right,0.4796,,680.0177,680.0184,,0,,680.0192,680.0196,,1,,1,680.0196,680.0196,680.02,681.5161,0,3,3,3,1,0.8,0.2,0.2,0.8,1,0,,,,,,,,,,,,,,,,,,,,,,,,,,,,,,,,,,,,
,,5e7414b9929931398ae59f02,66fc98b1f6ba0ddc6b0f763b,2024-10-01_21h51.10.674,mdp,2024.2.1,Win32,59.88023952,66fa4ebf79326e780c390304,,,,,,,,,,,,,,,,,,,,,681.5163,681.5163,681.5173,682.5155,0,0,left,0.4677,,682.5166,682.517,,0,,682.5174,682.5178,,0,,1,682.5178,682.5178,682.5182,684.0112,0,4,4,4,1,0.8,0.2,0.2,0.8,1,0,,,,,,,,,,,,,,,,,,,,,,,,,,,,,,,,,,,,
,,5e7414b9929931398ae59f02,66fc98b1f6ba0ddc6b0f763b,2024-10-01_21h51.10.674,mdp,2024.2.1,Win32,59.88023952,66fa4ebf79326e780c390304,,,,,,,,,,,,,,,,,,,,,684.0119,684.0119,684.0131,684.8268,1,1,right,0.2787,,684.8282,684.8287,,0,,684.8291,684.8294,,1,,0,684.8294,684.8294,684.8297,686.326,0,5,5,5,1,0.8,0.2,0.2,0.8,1,0,,,,,,,,,,,,,,,,,,,,,,,,,,,,,,,,,,,,
,,5e7414b9929931398ae59f02,66fc98b1f6ba0ddc6b0f763b,2024-10-01_21h51.10.674,mdp,2024.2.1,Win32,59.88023952,66fa4ebf79326e780c390304,,,,,,,,,,,,,,,,,,,,,686.327,686.327,686.3288,687.3264,0,0,left,0.4737,,687.3277,687.3286,,0,,687.3292,687.3297,,0,,1,687.3297,687.3297,687.3302,688.8249,0,6,6,6,1,0.8,0.2,0.2,0.8,1,0,,,,,,,,,,,,,,,,,,,,,,,,,,,,,,,,,,,,
,,5e7414b9929931398ae59f02,66fc98b1f6ba0ddc6b0f763b,2024-10-01_21h51.10.674,mdp,2024.2.1,Win32,59.88023952,66fa4ebf79326e780c390304,,,,,,,,,,,,,,,,,,,,,688.8254,688.8254,688.8268,689.5971,0,0,left,0.2529,,689.598,689.5992,,0,,689.5996,689.6002,,0,,1,689.6002,689.6002,689.6006,691.0903,0,7,7,7,1,0.8,0.2,0.2,0.8,1,0,,,,,,,,,,,,,,,,,,,,,,,,,,,,,,,,,,,,
,,5e7414b9929931398ae59f02,66fc98b1f6ba0ddc6b0f763b,2024-10-01_21h51.10.674,mdp,2024.2.1,Win32,59.88023952,66fa4ebf79326e780c390304,,,,,,,,,,,,,,,,,,,,,691.0914,691.0915,691.0926,691.7576,0,1,left,0.1532,,691.7591,691.7596,,0,,691.7601,691.7606,,1,,0,691.7606,691.7606,691.7611,693.2566,0,8,8,8,1,0.4,0.6,0.6,0.4,1,0,,,,,,,,,,,,,,,,,,,,,,,,,,,,,,,,,,,,
,,5e7414b9929931398ae59f02,66fc98b1f6ba0ddc6b0f763b,2024-10-01_21h51.10.674,mdp,2024.2.1,Win32,59.88023952,66fa4ebf79326e780c390304,,,,,,,,,,,,,,,,,,,,,693.2571,693.2572,693.2589,694.0726,0,1,left,0.2925,,694.0739,694.0743,,1,,694.0745,694.0748,,1,,0,694.0748,694.0748,694.0749,695.5723,0,9,9,9,1,0.4,0.6,0.6,0.4,1,0,,,,,,,,,,,,,,,,,,,,,,,,,,,,,,,,,,,,
,,5e7414b9929931398ae59f02,66fc98b1f6ba0ddc6b0f763b,2024-10-01_21h51.10.674,mdp,2024.2.1,Win32,59.88023952,66fa4ebf79326e780c390304,,,,,,,,,,,,,,,,,,,,,695.5731,695.5731,695.5746,696.409,0,1,left,0.3108,,696.4103,696.4109,,1,,696.4117,696.4122,,1,,0,696.4122,696.4122,696.4127,697.9049,0,10,10,10,1,0.4,0.6,0.6,0.4,1,0,,,,,,,,,,,,,,,,,,,,,,,,,,,,,,,,,,,,
,,5e7414b9929931398ae59f02,66fc98b1f6ba0ddc6b0f763b,2024-10-01_21h51.10.674,mdp,2024.2.1,Win32,59.88023952,66fa4ebf79326e780c390304,,,,,,,,,,,,,,,,,,,,,697.9059,697.9059,697.9068,698.7591,0,0,left,0.3281,,698.76,698.7607,,1,,698.7616,698.7621,,1,,1,698.7621,698.7622,698.7626,700.2582,0,11,11,11,1,0.6,0.4,0.4,0.6,1,0,,,,,,,,,,,,,,,,,,,,,,,,,,,,,,,,,,,,
,,5e7414b9929931398ae59f02,66fc98b1f6ba0ddc6b0f763b,2024-10-01_21h51.10.674,mdp,2024.2.1,Win32,59.88023952,66fa4ebf79326e780c390304,,,,,,,,,,,,,,,,,,,,,700.2586,700.2586,700.2598,701.073,1,1,right,0.2812,,701.0739,701.0745,,1,,701.0748,701.0753,,1,,0,701.0753,701.0753,701.0757,702.5689,0,12,12,12,1,0.6,0.4,0.4,0.6,1,0,,,,,,,,,,,,,,,,,,,,,,,,,,,,,,,,,,,,
,,5e7414b9929931398ae59f02,66fc98b1f6ba0ddc6b0f763b,2024-10-01_21h51.10.674,mdp,2024.2.1,Win32,59.88023952,66fa4ebf79326e780c390304,,,,,,,,,,,,,,,,,,,,,702.5698,702.5698,702.5715,703.3552,0,1,left,0.2655,,703.3559,703.3566,,0,,703.3571,703.3574,,1,,0,703.3574,703.3574,703.3578,704.8509,0,13,13,13,1,0.6,0.4,0.4,0.6,1,0,,,,,,,,,,,,,,,,,,,,,,,,,,,,,,,,,,,,
,,5e7414b9929931398ae59f02,66fc98b1f6ba0ddc6b0f763b,2024-10-01_21h51.10.674,mdp,2024.2.1,Win32,59.88023952,66fa4ebf79326e780c390304,,,,,,,,,,,,,,,,,,,,,704.8514,704.8515,704.8527,705.6706,0,0,left,0.2976,,705.6717,705.6724,,1,,705.6729,705.6735,,1,,1,705.6736,705.6736,705.6739,707.1668,0,14,14,14,1,0.6,0.4,0.4,0.6,1,0,,,,,,,,,,,,,,,,,,,,,,,,,,,,,,,,,,,,
,,5e7414b9929931398ae59f02,66fc98b1f6ba0ddc6b0f763b,2024-10-01_21h51.10.674,mdp,2024.2.1,Win32,59.88023952,66fa4ebf79326e780c390304,,,,,,,,,,,,,,,,,,,,,707.1682,707.1682,707.1701,707.9665,0,0,left,0.2516,,707.9685,707.9691,,0,,707.9696,707.97,,0,,1,707.9702,707.9702,707.9707,709.466,0,15,15,15,1,0.6,0.4,0.4,0.6,1,0,,,,,,,,,,,,,,,,,,,,,,,,,,,,,,,,,,,,
,,5e7414b9929931398ae59f02,66fc98b1f6ba0ddc6b0f763b,2024-10-01_21h51.10.674,mdp,2024.2.1,Win32,59.88023952,66fa4ebf79326e780c390304,,,,,,,,,,,,,,,,,,,,,709.4672,709.4672,709.4684,710.3538,1,0,right,0.3803,,710.3546,710.355,,1,,710.356,710.3564,,0,,1,710.3565,710.3565,710.3568,711.8481,0,16,16,16,1,0.6,0.4,0.4,0.6,1,0,,,,,,,,,,,,,,,,,,,,,,,,,,,,,,,,,,,,
,,5e7414b9929931398ae59f02,66fc98b1f6ba0ddc6b0f763b,2024-10-01_21h51.10.674,mdp,2024.2.1,Win32,59.88023952,66fa4ebf79326e780c390304,,,,,,,,,,,,,,,,,,,,,711.8488,711.8488,711.85,712.8188,1,0,right,0.4349,,712.8196,712.8201,,1,,712.8206,712.8212,,0,,1,712.8212,712.8212,712.8219,714.3136,0,17,17,17,1,0.2,0.8,0.6,0.4,1,0,,,,,,,,,,,,,,,,,,,,,,,,,,,,,,,,,,,,
,,5e7414b9929931398ae59f02,66fc98b1f6ba0ddc6b0f763b,2024-10-01_21h51.10.674,mdp,2024.2.1,Win32,59.88023952,66fa4ebf79326e780c390304,,,,,,,,,,,,,,,,,,,,,714.3142,714.3142,714.3158,715.2822,0,0,left,0.4473,,715.2828,715.2831,,1,,715.2835,715.2838,,1,,1,715.2838,715.2838,715.2843,716.7827,0,18,18,18,1,0.2,0.8,0.6,0.4,1,0,,,,,,,,,,,,,,,,,,,,,,,,,,,,,,,,,,,,
,,5e7414b9929931398ae59f02,66fc98b1f6ba0ddc6b0f763b,2024-10-01_21h51.10.674,mdp,2024.2.1,Win32,59.88023952,66fa4ebf79326e780c390304,,,,,,,,,,,,,,,,,,,,,716.7831,716.7831,716.7842,717.6337,0,1,left,0.3328,,717.6347,717.6353,,1,,717.6357,717.6361,,1,,0,717.6361,717.6361,717.6365,719.1287,0,19,19,19,1,0.2,0.8,0.6,0.4,1,0,,,,,,,,,,,,,,,,,,,,,,,,,,,,,,,,,,,,
,,5e7414b9929931398ae59f02,66fc98b1f6ba0ddc6b0f763b,2024-10-01_21h51.10.674,mdp,2024.2.1,Win32,59.88023952,66fa4ebf79326e780c390304,,,,,,,,,,,,,,,,,,,,,719.1294,719.1295,719.1313,720.5948,0,1,left,0.9331,,720.5965,720.5972,,1,,720.5977,720.5984,,1,,0,720.5985,720.5985,720.5987,722.0935,0,20,20,20,1,0.2,0.8,0.6,0.4,1,0,,,,,,,,,,,,,,,,,,,,,,,,,,,,,,,,,,,,
,,5e7414b9929931398ae59f02,66fc98b1f6ba0ddc6b0f763b,2024-10-01_21h51.10.674,mdp,2024.2.1,Win32,59.88023952,66fa4ebf79326e780c390304,,,,,,,,,,,,,,,,,,,,,722.0941,722.0948,722.096,722.9,0,1,left,0.2831,,722.9008,722.9015,,0,,722.9022,722.9027,,0,,0,722.9027,722.9027,722.9031,724.3928,0,21,21,21,1,0.2,0.8,0.6,0.4,1,0,,,,,,,,,,,,,,,,,,,,,,,,,,,,,,,,,,,,
,,5e7414b9929931398ae59f02,66fc98b1f6ba0ddc6b0f763b,2024-10-01_21h51.10.674,mdp,2024.2.1,Win32,59.88023952,66fa4ebf79326e780c390304,,,,,,,,,,,,,,,,,,,,,724.3935,724.3935,724.3948,725.2928,0,1,left,0.364,,725.2943,725.2954,,0,,725.2959,725.2964,,1,,0,725.2964,725.2964,725.2969,726.7946,0,22,22,22,1,0.2,0.8,0.6,0.4,1,0,,,,,,,,,,,,,,,,,,,,,,,,,,,,,,,,,,,,
,,5e7414b9929931398ae59f02,66fc98b1f6ba0ddc6b0f763b,2024-10-01_21h51.10.674,mdp,2024.2.1,Win32,59.88023952,66fa4ebf79326e780c390304,,,,,,,,,,,,,,,,,,,,,726.7951,726.7951,726.7963,727.4742,0,1,left,0.1425,,727.4758,727.4764,,1,,727.4767,727.477,,1,,0,727.4771,727.4771,727.4773,728.9748,0,23,23,23,1,0.2,0.8,0.6,0.4,1,0,,,,,,,,,,,,,,,,,,,,,,,,,,,,,,,,,,,,
,,5e7414b9929931398ae59f02,66fc98b1f6ba0ddc6b0f763b,2024-10-01_21h51.10.674,mdp,2024.2.1,Win32,59.88023952,66fa4ebf79326e780c390304,,,,,,,,,,,,,,,,,,,,,728.9755,728.9755,728.9772,729.7742,0,1,left,0.2627,,729.7756,729.7767,,1,,729.7773,729.7777,,0,,0,729.7778,729.7778,729.7783,731.278,0,24,24,24,1,0.2,0.8,0.6,0.4,1,0,,,,,,,,,,,,,,,,,,,,,,,,,,,,,,,,,,,,
,,5e7414b9929931398ae59f02,66fc98b1f6ba0ddc6b0f763b,2024-10-01_21h51.10.674,mdp,2024.2.1,Win32,59.88023952,66fa4ebf79326e780c390304,,,,,,,,,,,,,,,,,,,,,731.2784,731.2784,731.2797,732.0778,0,1,left,0.2832,,732.0786,732.0789,,1,,732.0793,732.0796,,0,,0,732.0797,732.0797,732.0799,733.5773,0,25,25,25,1,0.2,0.8,0.6,0.4,1,0,,,,,,,,,,,,,,,,,,,,,,,,,,,,,,,,,,,,
,,5e7414b9929931398ae59f02,66fc98b1f6ba0ddc6b0f763b,2024-10-01_21h51.10.674,mdp,2024.2.1,Win32,59.88023952,66fa4ebf79326e780c390304,,,,,,,,,,,,,,,,,,,,,733.5779,733.5779,733.5789,734.355,0,1,left,0.2448,,734.3569,734.3574,,1,,734.3579,734.3584,,1,,0,734.3584,734.3584,734.3588,735.8599,0,26,26,26,1,0.2,0.8,0.6,0.4,1,0,,,,,,,,,,,,,,,,,,,,,,,,,,,,,,,,,,,,
,,5e7414b9929931398ae59f02,66fc98b1f6ba0ddc6b0f763b,2024-10-01_21h51.10.674,mdp,2024.2.1,Win32,59.88023952,66fa4ebf79326e780c390304,,,,,,,,,,,,,,,,,,,,,735.8603,735.8604,735.8627,736.6877,0,1,left,0.3084,,736.6891,736.6895,,1,,736.6898,736.69,,1,,0,736.69,736.69,736.6903,738.1914,0,27,27,27,1,0.2,0.8,0.6,0.4,1,0,,,,,,,,,,,,,,,,,,,,,,,,,,,,,,,,,,,,
,,5e7414b9929931398ae59f02,66fc98b1f6ba0ddc6b0f763b,2024-10-01_21h51.10.674,mdp,2024.2.1,Win32,59.88023952,66fa4ebf79326e780c390304,,,,,,,,,,,,,,,,,,,,,738.1919,738.1919,738.1933,739.0242,0,1,left,0.3154,,739.0249,739.0254,,0,,739.0257,739.026,,1,,0,739.0261,739.0261,739.0263,740.5234,0,28,28,28,1,0.2,0.8,0.6,0.4,1,0,,,,,,,,,,,,,,,,,,,,,,,,,,,,,,,,,,,,
,,5e7414b9929931398ae59f02,66fc98b1f6ba0ddc6b0f763b,2024-10-01_21h51.10.674,mdp,2024.2.1,Win32,59.88023952,66fa4ebf79326e780c390304,,,,,,,,,,,,,,,,,,,,,740.5244,740.5244,740.5251,741.3517,1,1,right,0.2862,,741.3536,741.3541,,1,,741.3546,741.3552,,1,,0,741.3552,741.3552,741.3554,742.8523,0,29,29,29,1,0.8,0.2,0.4,0.6,1,0,,,,,,,,,,,,,,,,,,,,,,,,,,,,,,,,,,,,
,,5e7414b9929931398ae59f02,66fc98b1f6ba0ddc6b0f763b,2024-10-01_21h51.10.674,mdp,2024.2.1,Win32,59.88023952,66fa4ebf79326e780c390304,,,,,,,,,,,,,,,,,,,,,742.853,742.853,742.8539,743.7067,1,0,right,0.3179,,743.708,743.7091,,1,,743.7098,743.7105,,1,,1,743.7106,743.7106,743.7111,745.2063,0,30,30,30,1,0.8,0.2,0.4,0.6,1,0,,,,,,,,,,,,,,,,,,,,,,,,,,,,,,,,,,,,
,,5e7414b9929931398ae59f02,66fc98b1f6ba0ddc6b0f763b,2024-10-01_21h51.10.674,mdp,2024.2.1,Win32,59.88023952,66fa4ebf79326e780c390304,,,,,,,,,,,,,,,,,,,,,745.2073,745.2074,745.2087,746.1215,1,1,right,0.3989,,746.1224,746.1229,,0,,746.1233,746.1238,,1,,0,746.1238,746.1238,746.1243,747.6163,0,31,31,31,1,0.8,0.2,0.4,0.6,1,0,,,,,,,,,,,,,,,,,,,,,,,,,,,,,,,,,,,,
,,5e7414b9929931398ae59f02,66fc98b1f6ba0ddc6b0f763b,2024-10-01_21h51.10.674,mdp,2024.2.1,Win32,59.88023952,66fa4ebf79326e780c390304,,,,,,,,,,,,,,,,,,,,,747.6174,747.6174,747.618,748.4154,0,0,left,0.2528,,748.417,748.4175,,1,,748.418,748.4183,,0,,1,748.4183,748.4183,748.4186,749.9154,0,32,32,32,1,0.8,0.2,0.4,0.6,1,0,,,,,,,,,,,,,,,,,,,,,,,,,,,,,,,,,,,,
,,5e7414b9929931398ae59f02,66fc98b1f6ba0ddc6b0f763b,2024-10-01_21h51.10.674,mdp,2024.2.1,Win32,59.88023952,66fa4ebf79326e780c390304,,,,,,,,,,,,,,,,,,,,,749.9164,749.9164,749.9179,750.7318,1,0,right,0.3062,,750.7332,750.7337,,0,,750.7345,750.7348,,1,,1,750.7349,750.7349,750.7353,752.2312,0,33,33,33,1,0.8,0.2,0.4,0.6,1,0,,,,,,,,,,,,,,,,,,,,,,,,,,,,,,,,,,,,
,,5e7414b9929931398ae59f02,66fc98b1f6ba0ddc6b0f763b,2024-10-01_21h51.10.674,mdp,2024.2.1,Win32,59.88023952,66fa4ebf79326e780c390304,,,,,,,,,,,,,,,,,,,,,752.2319,752.2319,752.2327,753.0475,0,0,left,0.29,,753.0487,753.0493,,0,,753.0503,753.0506,,0,,1,753.0506,753.0507,753.0509,754.5513,0,34,34,34,1,0.8,0.2,0.4,0.6,1,0,,,,,,,,,,,,,,,,,,,,,,,,,,,,,,,,,,,,
,,5e7414b9929931398ae59f02,66fc98b1f6ba0ddc6b0f763b,2024-10-01_21h51.10.674,mdp,2024.2.1,Win32,59.88023952,66fa4ebf79326e780c390304,,,,,,,,,,,,,,,,,,,,,754.5518,754.5518,754.5527,755.3353,0,0,left,0.2516,,755.3361,755.3366,,0,,755.3371,755.3375,,0,,1,755.3375,755.3375,755.3378,756.8287,0,35,35,35,1,0.8,0.2,0.4,0.6,1,0,,,,,,,,,,,,,,,,,,,,,,,,,,,,,,,,,,,,
,,5e7414b9929931398ae59f02,66fc98b1f6ba0ddc6b0f763b,2024-10-01_21h51.10.674,mdp,2024.2.1,Win32,59.88023952,66fa4ebf79326e780c390304,,,,,,,,,,,,,,,,,,,,,756.8293,756.8293,756.8309,757.4784,1,1,right,0.124,,757.4798,757.4804,,1,,757.4809,757.4812,,1,,0,757.4812,757.4812,757.4815,758.9782,0,36,36,36,1,0.8,0.2,0.4,0.6,1,0,,,,,,,,,,,,,,,,,,,,,,,,,,,,,,,,,,,,
,,5e7414b9929931398ae59f02,66fc98b1f6ba0ddc6b0f763b,2024-10-01_21h51.10.674,mdp,2024.2.1,Win32,59.88023952,66fa4ebf79326e780c390304,,,,,,,,,,,,,,,,,,,,,758.9794,758.9794,758.9806,759.7775,0,0,left,0.2567,,759.7786,759.7791,,0,,759.7796,759.7799,,0,,1,759.7799,759.7799,759.7807,761.281,0,37,37,37,1,0.8,0.2,0.4,0.6,1,0,,,,,,,,,,,,,,,,,,,,,,,,,,,,,,,,,,,,
,,5e7414b9929931398ae59f02,66fc98b1f6ba0ddc6b0f763b,2024-10-01_21h51.10.674,mdp,2024.2.1,Win32,59.88023952,66fa4ebf79326e780c390304,,,,,,,,,,,,,,,,,,,,,761.2816,761.2816,761.2826,762.3664,1,0,right,0.5515,,762.3679,762.3691,,1,,762.3699,762.3703,,1,,1,762.3703,762.3703,762.3708,763.8591,0,38,38,38,1,0.4,0.6,0.8,0.2,1,0,,,,,,,,,,,,,,,,,,,,,,,,,,,,,,,,,,,,
,,5e7414b9929931398ae59f02,66fc98b1f6ba0ddc6b0f763b,2024-10-01_21h51.10.674,mdp,2024.2.1,Win32,59.88023952,66fa4ebf79326e780c390304,,,,,,,,,,,,,,,,,,,,,763.8601,763.8601,763.8614,764.7089,0,0,left,0.3183,,764.7097,764.7102,,1,,764.7106,764.7108,,0,,1,764.7108,764.7108,764.7109,766.2084,0,39,39,39,1,0.4,0.6,0.8,0.2,1,0,,,,,,,,,,,,,,,,,,,,,,,,,,,,,,,,,,,,
,,5e7414b9929931398ae59f02,66fc98b1f6ba0ddc6b0f763b,2024-10-01_21h51.10.674,mdp,2024.2.1,Win32,59.88023952,66fa4ebf79326e780c390304,,,,,,,,,,,,,,,,,,,,,766.209,766.209,766.2115,766.9745,0,0,left,0.2201,,766.9759,766.9765,,1,,766.9769,766.9773,,1,,1,766.9773,766.9773,766.9779,768.4741,0,40,40,40,1,0.4,0.6,0.8,0.2,1,0,,,,,,,,,,,,,,,,,,,,,,,,,,,,,,,,,,,,
,,5e7414b9929931398ae59f02,66fc98b1f6ba0ddc6b0f763b,2024-10-01_21h51.10.674,mdp,2024.2.1,Win32,59.88023952,66fa4ebf79326e780c390304,,,,,,,,,,,,,,,,,,,,,768.4749,768.475,768.4756,769.5947,1,0,right,0.6002,,769.5957,769.5965,,0,,769.5974,769.5979,,0,,1,769.5979,769.5979,769.5982,771.0944,0,41,41,41,1,0.4,0.6,0.8,0.2,1,0,,,,,,,,,,,,,,,,,,,,,,,,,,,,,,,,,,,,
,,5e7414b9929931398ae59f02,66fc98b1f6ba0ddc6b0f763b,2024-10-01_21h51.10.674,mdp,2024.2.1,Win32,59.88023952,66fa4ebf79326e780c390304,,,,,,,,,,,,,,,,,,,,,771.095,771.095,771.0966,772.0433,1,0,right,0.4173,,772.0442,772.0446,,1,,772.045,772.0453,,0,,1,772.0453,772.0453,772.0456,773.5381,0,42,42,42,1,0.4,0.6,0.8,0.2,1,0,,,,,,,,,,,,,,,,,,,,,,,,,,,,,,,,,,,,
,,5e7414b9929931398ae59f02,66fc98b1f6ba0ddc6b0f763b,2024-10-01_21h51.10.674,mdp,2024.2.1,Win32,59.88023952,66fa4ebf79326e780c390304,,,,,,,,,,,,,,,,,,,,,773.5386,773.5387,773.5403,774.3382,0,0,left,0.2813,,774.3395,774.3402,,0,,774.3406,774.3408,,1,,1,774.3409,774.3409,774.3413,775.8395,0,43,43,43,1,0.6,0.4,0.2,0.8,1,0,,,,,,,,,,,,,,,,,,,,,,,,,,,,,,,,,,,,
,,5e7414b9929931398ae59f02,66fc98b1f6ba0ddc6b0f763b,2024-10-01_21h51.10.674,mdp,2024.2.1,Win32,59.88023952,66fa4ebf79326e780c390304,,,,,,,,,,,,,,,,,,,,,775.8398,775.8398,775.8406,776.7235,0,0,left,0.3486,,776.7248,776.7254,,0,,776.726,776.7266,,1,,1,776.7266,776.7266,776.7272,778.2196,0,44,44,44,1,0.6,0.4,0.2,0.8,1,0,,,,,,,,,,,,,,,,,,,,,,,,,,,,,,,,,,,,
,,5e7414b9929931398ae59f02,66fc98b1f6ba0ddc6b0f763b,2024-10-01_21h51.10.674,mdp,2024.2.1,Win32,59.88023952,66fa4ebf79326e780c390304,,,,,,,,,,,,,,,,,,,,,778.2205,778.2205,778.2217,779.0859,1,0,right,0.3232,,779.0873,779.0878,,0,,779.0881,779.0884,,0,,1,779.0884,779.0884,779.0887,780.5903,0,45,45,45,1,0.2,0.8,0.8,0.2,1,0,,,,,,,,,,,,,,,,,,,,,,,,,,,,,,,,,,,,
,,5e7414b9929931398ae59f02,66fc98b1f6ba0ddc6b0f763b,2024-10-01_21h51.10.674,mdp,2024.2.1,Win32,59.88023952,66fa4ebf79326e780c390304,,,,,,,,,,,,,,,,,,,,,780.5909,780.5909,780.5921,781.5047,0,1,left,0.3822,,781.5061,781.507,,0,,781.5077,781.5081,,1,,0,781.5081,781.5082,781.5087,783.0014,0,46,46,46,1,0.2,0.8,0.8,0.2,1,0,,,,,,,,,,,,,,,,,,,,,,,,,,,,,,,,,,,,
,,5e7414b9929931398ae59f02,66fc98b1f6ba0ddc6b0f763b,2024-10-01_21h51.10.674,mdp,2024.2.1,Win32,59.88023952,66fa4ebf79326e780c390304,,,,,,,,,,,,,,,,,,,,,783.0019,783.0019,783.0034,783.7667,1,0,right,0.2385,,783.7684,783.769,,1,,783.7694,783.7699,,1,,1,783.7699,783.7699,783.7702,785.2673,0,47,47,47,1,0.2,0.8,0.8,0.2,1,0,,,,,,,,,,,,,,,,,,,,,,,,,,,,,,,,,,,,
,,5e7414b9929931398ae59f02,66fc98b1f6ba0ddc6b0f763b,2024-10-01_21h51.10.674,mdp,2024.2.1,Win32,59.88023952,66fa4ebf79326e780c390304,,,,,,,,,,,,,,,,,,,,,785.2678,785.2678,785.269,786.17,1,0,right,0.3839,,786.1714,786.1721,,0,,786.1727,786.1732,,0,,1,786.1732,786.1732,786.1736,787.665,0,48,48,48,1,0.2,0.8,0.8,0.2,1,0,,,,,,,,,,,,,,,,,,,,,,,,,,,,,,,,,,,,
,,5e7414b9929931398ae59f02,66fc98b1f6ba0ddc6b0f763b,2024-10-01_21h51.10.674,mdp,2024.2.1,Win32,59.88023952,66fa4ebf79326e780c390304,,,,,,,,,,,,,,,,,,,,,787.6653,787.6653,787.6668,788.4863,0,1,left,0.3001,,788.4872,788.4878,,1,,788.4888,788.4892,,0,,0,788.4892,788.4892,788.4895,789.9844,0,49,49,49,1,0.2,0.8,0.8,0.2,1,0,,,,,,,,,,,,,,,,,,,,,,,,,,,,,,,,,,,,
,,5e7414b9929931398ae59f02,66fc98b1f6ba0ddc6b0f763b,2024-10-01_21h51.10.674,mdp,2024.2.1,Win32,59.88023952,66fa4ebf79326e780c390304,,,,,,,,,,,,,,,,,,,,,,,,,,,,,,,,,,,,,,,,,,,,,,,,,,,,,,,,789.9847,848.4898,0,0,0,8,1,imgs/giraffe.png,imgs/bear.png,imgs/pig.png,imgs/horse.png,imgs/kangaroo.png,,,,,,,,,,,,,,,,,,,,,,,,
,,5e7414b9929931398ae59f02,66fc98b1f6ba0ddc6b0f763b,2024-10-01_21h51.10.674,mdp,2024.2.1,Win32,59.88023952,66fa4ebf79326e780c390304,,,,,,,,,,,,,,2,seqs/st2seq8.csv,848.4929,850.2715,space,1.2503,,850.2769,850.2769,850.2777,852.1703,0,0,left,1.367,,852.1721,856.4721,1,0,right,856.4737,856.4745,,0,,1,856.4745,856.4745,856.4752,857.9685,0,0,0,0,1,0.8,0.2,0.2,0.8,,,,,,,,,,,,,,,3.7885,,0.4,0.6,0.8,0.2,0.4,0.6,0.8,0.2,1,0,,,,,,,,,,,,
,,5e7414b9929931398ae59f02,66fc98b1f6ba0ddc6b0f763b,2024-10-01_21h51.10.674,mdp,2024.2.1,Win32,59.88023952,66fa4ebf79326e780c390304,,,,,,,,,,,,,,,,,,,,,857.9692,857.9692,857.9715,858.8355,0,0,left,0.3436,,858.8373,859.9507,0,0,left,859.9524,859.9534,,1,,1,859.9535,859.9535,859.9545,861.4512,0,1,1,1,1,0.8,0.2,0.2,0.8,,,,,,,,,,,,,,,0.5854,,0.4,0.6,0.8,0.2,0.4,0.6,0.8,0.2,1,0,,,,,,,,,,,,
,,5e7414b9929931398ae59f02,66fc98b1f6ba0ddc6b0f763b,2024-10-01_21h51.10.674,mdp,2024.2.1,Win32,59.88023952,66fa4ebf79326e780c390304,,,,,,,,,,,,,,,,,,,,,861.4526,861.4526,861.4543,862.8495,1,1,right,0.8721,,862.8513,864.898,1,1,right,864.8986,864.8991,,1,,0,864.8991,864.8992,864.8997,866.3983,0,2,2,2,1,0.8,0.2,0.2,0.8,,,,,,,,,,,,,,,1.5228,,0.4,0.6,0.8,0.2,0.4,0.6,0.8,0.2,1,0,,,,,,,,,,,,
,,5e7414b9929931398ae59f02,66fc98b1f6ba0ddc6b0f763b,2024-10-01_21h51.10.674,mdp,2024.2.1,Win32,59.88023952,66fa4ebf79326e780c390304,,,,,,,,,,,,,,,,,,,,,866.3989,866.3989,866.401,867.2978,1,0,right,0.3678,,867.3004,868.1304,0,0,left,868.1317,868.1327,,1,,1,868.1328,868.1328,868.1336,869.6296,0,3,3,3,1,0.8,0.2,0.2,0.8,,,,,,,,,,,,,,,0.3062,,0.4,0.6,0.8,0.2,0.6,0.4,0.4,0.6,1,0,,,,,,,,,,,,
,,5e7414b9929931398ae59f02,66fc98b1f6ba0ddc6b0f763b,2024-10-01_21h51.10.674,mdp,2024.2.1,Win32,59.88023952,66fa4ebf79326e780c390304,,,,,,,,,,,,,,,,,,,,,869.6302,869.6302,869.6318,870.4459,0,0,left,0.2819,,870.4475,871.2786,1,0,right,871.2805,871.2818,,0,,1,871.2818,871.2818,871.2825,872.7791,0,4,4,4,1,0.8,0.2,0.2,0.8,,,,,,,,,,,,,,,0.3022,,0.4,0.6,0.8,0.2,0.6,0.4,0.4,0.6,1,0,,,,,,,,,,,,
,,5e7414b9929931398ae59f02,66fc98b1f6ba0ddc6b0f763b,2024-10-01_21h51.10.674,mdp,2024.2.1,Win32,59.88023952,66fa4ebf79326e780c390304,,,,,,,,,,,,,,,,,,,,,872.7797,872.7797,872.7824,873.5947,1,1,right,0.2832,,873.5973,874.4114,0,1,left,874.4132,874.4142,,1,,0,874.4143,874.4143,874.4152,875.9098,0,5,5,5,1,0.8,0.2,0.2,0.8,,,,,,,,,,,,,,,0.2815,,0.4,0.6,0.8,0.2,0.6,0.4,0.4,0.6,1,0,,,,,,,,,,,,
,,5e7414b9929931398ae59f02,66fc98b1f6ba0ddc6b0f763b,2024-10-01_21h51.10.674,mdp,2024.2.1,Win32,59.88023952,66fa4ebf79326e780c390304,,,,,,,,,,,,,,,,,,,,,875.9103,875.9103,875.9108,876.7266,0,0,left,0.2831,,876.728,877.5592,0,1,left,877.5607,877.5618,,0,,0,877.5619,877.5619,877.5625,879.0591,0,6,6,6,1,0.8,0.2,0.2,0.8,,,,,,,,,,,,,,,0.3023,,0.4,0.6,0.8,0.2,0.6,0.4,0.4,0.6,1,0,,,,,,,,,,,,
,,5e7414b9929931398ae59f02,66fc98b1f6ba0ddc6b0f763b,2024-10-01_21h51.10.674,mdp,2024.2.1,Win32,59.88023952,66fa4ebf79326e780c390304,,,,,,,,,,,,,,,,,,,,,879.0596,879.0596,879.061,879.908,0,0,left,0.315,,879.9086,880.6919,1,0,right,880.6938,880.6951,,1,,1,880.6951,880.6951,880.6961,882.1915,0,7,7,7,1,0.8,0.2,0.2,0.8,,,,,,,,,,,,,,,0.2745,,0.4,0.6,0.8,0.2,0.6,0.4,0.4,0.6,1,0,,,,,,,,,,,,
,,5e7414b9929931398ae59f02,66fc98b1f6ba0ddc6b0f763b,2024-10-01_21h51.10.674,mdp,2024.2.1,Win32,59.88023952,66fa4ebf79326e780c390304,,,,,,,,,,,,,,,,,,,,,882.1926,882.1926,882.1944,883.191,1,1,right,0.4731,,883.1928,884.0253,0,0,left,884.0273,884.0288,,1,,1,884.0289,884.0289,884.03,885.5227,0,8,8,8,1,0.8,0.2,0.2,0.8,,,,,,,,,,,,,,,0.2971,,0.4,0.6,0.8,0.2,0.8,0.2,0.2,0.8,1,0,,,,,,,,,,,,
,,5e7414b9929931398ae59f02,66fc98b1f6ba0ddc6b0f763b,2024-10-01_21h51.10.674,mdp,2024.2.1,Win32,59.88023952,66fa4ebf79326e780c390304,,,,,,,,,,,,,,,,,,,,,885.5231,885.5231,885.5252,886.3552,0,0,left,0.3228,,886.3558,887.1889,1,0,right,887.1905,887.1916,,1,,1,887.1916,887.1916,887.1928,888.688,0,9,9,9,1,0.8,0.2,0.2,0.8,,,,,,,,,,,,,,,0.3143,,0.4,0.6,0.8,0.2,0.8,0.2,0.2,0.8,1,0,,,,,,,,,,,,
,,5e7414b9929931398ae59f02,66fc98b1f6ba0ddc6b0f763b,2024-10-01_21h51.10.674,mdp,2024.2.1,Win32,59.88023952,66fa4ebf79326e780c390304,,,,,,,,,,,,,,,,,,,,,888.6888,888.6888,888.6903,889.5047,0,1,left,0.2865,,889.5062,890.321,1,1,right,890.3226,890.3242,,1,,0,890.3243,890.3243,890.325,891.8195,0,10,10,10,1,0.8,0.2,0.2,0.8,,,,,,,,,,,,,,,0.2772,,0.4,0.6,0.8,0.2,0.8,0.2,0.2,0.8,1,0,,,,,,,,,,,,
,,5e7414b9929931398ae59f02,66fc98b1f6ba0ddc6b0f763b,2024-10-01_21h51.10.674,mdp,2024.2.1,Win32,59.88023952,66fa4ebf79326e780c390304,,,,,,,,,,,,,,,,,,,,,891.8197,891.8197,891.8205,892.6027,0,0,left,0.2723,,892.6041,893.403,1,0,right,893.4044,893.4056,,0,,1,893.4057,893.4057,893.4069,894.9021,0,11,11,11,1,0.8,0.2,0.2,0.8,,,,,,,,,,,,,,,0.2802,,0.4,0.6,0.8,0.2,0.8,0.2,0.2,0.8,1,0,,,,,,,,,,,,
,,5e7414b9929931398ae59f02,66fc98b1f6ba0ddc6b0f763b,2024-10-01_21h51.10.674,mdp,2024.2.1,Win32,59.88023952,66fa4ebf79326e780c390304,,,,,,,,,,,,,,,,,,,,,894.9027,894.9027,894.9039,895.7187,1,1,right,0.2837,,895.7204,897.1173,1,0,right,897.1179,897.1183,,1,,1,897.1183,897.1183,897.1188,898.6176,0,12,12,12,1,0.2,0.8,0.8,0.2,,,,,,,,,,,,,,,0.8595,,0.4,0.6,0.8,0.2,0.8,0.2,0.2,0.8,1,0,,,,,,,,,,,,
,,5e7414b9929931398ae59f02,66fc98b1f6ba0ddc6b0f763b,2024-10-01_21h51.10.674,mdp,2024.2.1,Win32,59.88023952,66fa4ebf79326e780c390304,,,,,,,,,,,,,,,,,,,,,898.6181,898.6185,898.6202,899.4333,0,1,left,0.2847,,899.4348,900.2213,0,1,left,900.223,900.2242,,1,,0,900.2243,900.2243,900.2254,901.7166,0,13,13,13,1,0.2,0.8,0.8,0.2,,,,,,,,,,,,,,,0.2641,,0.4,0.6,0.8,0.2,0.2,0.8,0.8,0.2,1,0,,,,,,,,,,,,
,,5e7414b9929931398ae59f02,66fc98b1f6ba0ddc6b0f763b,2024-10-01_21h51.10.674,mdp,2024.2.1,Win32,59.88023952,66fa4ebf79326e780c390304,,,,,,,,,,,,,,,,,,,,,901.7178,901.7179,901.7199,902.5484,0,1,left,0.3074,,902.5492,903.3816,1,0,right,903.3826,903.3829,,0,,1,903.3829,903.3829,903.3833,904.8806,0,14,14,14,1,0.2,0.8,0.8,0.2,,,,,,,,,,,,,,,0.3257,,0.4,0.6,0.8,0.2,0.2,0.8,0.8,0.2,1,0,,,,,,,,,,,,
,,5e7414b9929931398ae59f02,66fc98b1f6ba0ddc6b0f763b,2024-10-01_21h51.10.674,mdp,2024.2.1,Win32,59.88023952,66fa4ebf79326e780c390304,,,,,,,,,,,,,,,,,,,,,904.8812,904.8814,904.8821,905.8805,0,1,left,0.4667,,905.883,906.7969,1,1,right,906.7984,906.7996,,1,,0,906.7996,906.7996,906.8005,908.2964,0,15,15,15,1,0.2,0.8,0.8,0.2,,,,,,,,,,,,,,,0.399,,0.4,0.6,0.8,0.2,0.4,0.6,0.4,0.6,1,0,,,,,,,,,,,,
,,5e7414b9929931398ae59f02,66fc98b1f6ba0ddc6b0f763b,2024-10-01_21h51.10.674,mdp,2024.2.1,Win32,59.88023952,66fa4ebf79326e780c390304,,,,,,,,,,,,,,,,,,,,,908.2972,908.2972,908.2992,909.1626,0,1,left,0.3405,,909.1641,910.1291,1,0,right,910.1305,910.1316,,1,,1,910.1316,910.1316,910.1325,911.6285,0,16,16,16,1,0.2,0.8,0.8,0.2,,,,,,,,,,,,,,,0.4342,,0.4,0.6,0.8,0.2,0.4,0.6,0.4,0.6,1,0,,,,,,,,,,,,
,,5e7414b9929931398ae59f02,66fc98b1f6ba0ddc6b0f763b,2024-10-01_21h51.10.674,mdp,2024.2.1,Win32,59.88023952,66fa4ebf79326e780c390304,,,,,,,,,,,,,,,,,,,,,911.6292,911.6292,911.6309,912.5278,0,1,left,0.3661,,912.5293,913.3946,0,1,left,913.3963,913.3974,,0,,0,913.3974,913.3974,913.3981,914.8935,0,17,17,17,1,0.2,0.8,0.8,0.2,,,,,,,,,,,,,,,0.3335,,0.4,0.6,0.8,0.2,0.4,0.6,0.4,0.6,1,0,,,,,,,,,,,,
,,5e7414b9929931398ae59f02,66fc98b1f6ba0ddc6b0f763b,2024-10-01_21h51.10.674,mdp,2024.2.1,Win32,59.88023952,66fa4ebf79326e780c390304,,,,,,,,,,,,,,,,,,,,,914.8942,914.8942,914.8961,915.7428,0,1,left,0.316,,915.7434,916.5087,0,1,left,916.5093,916.5097,,0,,0,916.5098,916.5098,916.5102,918.0084,0,18,18,18,1,0.2,0.8,0.8,0.2,,,,,,,,,,,,,,,0.239,,0.4,0.6,0.8,0.2,0.4,0.6,0.4,0.6,1,0,,,,,,,,,,,,
,,5e7414b9929931398ae59f02,66fc98b1f6ba0ddc6b0f763b,2024-10-01_21h51.10.674,mdp,2024.2.1,Win32,59.88023952,66fa4ebf79326e780c390304,,,,,,,,,,,,,,,,,,,,,918.0087,918.0087,918.0094,918.7431,0,1,left,0.2034,,918.7448,919.5581,1,1,right,919.5598,919.5609,,1,,0,919.561,919.561,919.5619,921.0574,0,19,19,19,1,0.2,0.8,0.8,0.2,,,,,,,,,,,,,,,0.2841,,0.4,0.6,0.8,0.2,0.4,0.6,0.4,0.6,1,0,,,,,,,,,,,,
,,5e7414b9929931398ae59f02,66fc98b1f6ba0ddc6b0f763b,2024-10-01_21h51.10.674,mdp,2024.2.1,Win32,59.88023952,66fa4ebf79326e780c390304,,,,,,,,,,,,,,,,,,,,,921.058,921.058,921.0601,921.807,0,1,left,0.2216,,921.8088,922.6403,1,0,right,922.6426,922.6437,,1,,1,922.6438,922.6438,922.6445,924.1391,0,20,20,20,1,0.2,0.8,0.8,0.2,,,,,,,,,,,,,,,0.3002,,0.4,0.6,0.8,0.2,0.4,0.6,0.4,0.6,1,0,,,,,,,,,,,,
,,5e7414b9929931398ae59f02,66fc98b1f6ba0ddc6b0f763b,2024-10-01_21h51.10.674,mdp,2024.2.1,Win32,59.88023952,66fa4ebf79326e780c390304,,,,,,,,,,,,,,,,,,,,,924.1396,924.1396,924.1412,924.9388,0,1,left,0.2653,,924.9402,925.7393,0,1,left,925.7412,925.7424,,0,,0,925.7425,925.7425,925.7434,927.2382,0,21,21,21,1,0.2,0.8,0.8,0.2,,,,,,,,,,,,,,,0.2731,,0.4,0.6,0.8,0.2,0.4,0.6,0.4,0.6,1,0,,,,,,,,,,,,
,,5e7414b9929931398ae59f02,66fc98b1f6ba0ddc6b0f763b,2024-10-01_21h51.10.674,mdp,2024.2.1,Win32,59.88023952,66fa4ebf79326e780c390304,,,,,,,,,,,,,,,,,,,,,927.239,927.2393,927.241,928.0541,1,1,right,0.2845,,928.0559,928.8538,1,0,right,928.8545,928.8551,,0,,1,928.8551,928.8551,928.8557,930.3538,0,22,22,22,1,0.2,0.8,0.8,0.2,,,,,,,,,,,,,,,0.2681,,0.4,0.6,0.8,0.2,0.2,0.8,0.8,0.2,1,0,,,,,,,,,,,,
,,5e7414b9929931398ae59f02,66fc98b1f6ba0ddc6b0f763b,2024-10-01_21h51.10.674,mdp,2024.2.1,Win32,59.88023952,66fa4ebf79326e780c390304,,,,,,,,,,,,,,,,,,,,,930.3549,930.3552,930.3567,930.9864,0,0,left,0.1024,,930.9881,931.5858,0,1,left,931.5873,931.5883,,1,,0,931.5883,931.5884,931.5891,933.0853,0,23,23,23,1,0.2,0.8,0.8,0.2,,,,,,,,,,,,,,,0.0658,,0.4,0.6,0.8,0.2,0.2,0.8,0.8,0.2,1,0,,,,,,,,,,,,
,,5e7414b9929931398ae59f02,66fc98b1f6ba0ddc6b0f763b,2024-10-01_21h51.10.674,mdp,2024.2.1,Win32,59.88023952,66fa4ebf79326e780c390304,,,,,,,,,,,,,,,,,,,,,933.086,933.086,933.0874,933.6855,0,1,left,0.0676,,933.687,934.3851,1,0,right,934.3866,934.3879,,0,,1,934.3879,934.388,934.3889,935.8846,0,24,24,24,1,0.2,0.8,0.8,0.2,,,,,,,,,,,,,,,0.1621,,0.4,0.6,0.8,0.2,0.2,0.8,0.8,0.2,1,0,,,,,,,,,,,,
,,5e7414b9929931398ae59f02,66fc98b1f6ba0ddc6b0f763b,2024-10-01_21h51.10.674,mdp,2024.2.1,Win32,59.88023952,66fa4ebf79326e780c390304,,,,,,,,,,,,,,,,,,,,,935.8851,935.8851,935.887,936.7176,0,0,left,0.3022,,936.7191,937.4838,1,0,right,937.4856,937.4863,,0,,1,937.4864,937.4864,937.4872,938.9831,0,25,25,25,1,0.8,0.2,0.2,0.8,,,,,,,,,,,,,,,0.2317,,0.4,0.6,0.8,0.2,0.2,0.8,0.8,0.2,1,0,,,,,,,,,,,,
,,5e7414b9929931398ae59f02,66fc98b1f6ba0ddc6b0f763b,2024-10-01_21h51.10.674,mdp,2024.2.1,Win32,59.88023952,66fa4ebf79326e780c390304,,,,,,,,,,,,,,,,,,,,,938.9836,938.9836,938.9857,939.8152,0,0,left,0.3077,,939.8158,940.6663,1,0,right,940.668,940.6692,,0,,1,940.6693,940.6693,940.6704,942.1648,0,26,26,26,1,0.8,0.2,0.2,0.8,,,,,,,,,,,,,,,0.3331,,0.4,0.6,0.8,0.2,0.2,0.8,0.8,0.2,1,0,,,,,,,,,,,,
,,5e7414b9929931398ae59f02,66fc98b1f6ba0ddc6b0f763b,2024-10-01_21h51.10.674,mdp,2024.2.1,Win32,59.88023952,66fa4ebf79326e780c390304,,,,,,,,,,,,,,,,,,,,,942.1651,942.1652,942.1662,942.948,0,0,left,0.2497,,942.9498,943.7644,1,1,right,943.7663,943.7674,,0,,0,943.7675,943.7675,943.7684,945.2638,0,27,27,27,1,0.8,0.2,0.2,0.8,,,,,,,,,,,,,,,0.2842,,0.4,0.6,0.8,0.2,0.2,0.8,0.8,0.2,1,0,,,,,,,,,,,,
,,5e7414b9929931398ae59f02,66fc98b1f6ba0ddc6b0f763b,2024-10-01_21h51.10.674,mdp,2024.2.1,Win32,59.88023952,66fa4ebf79326e780c390304,,,,,,,,,,,,,,,,,,,,,945.2644,945.2644,945.2668,946.0137,0,0,left,0.2168,,946.016,946.7953,1,0,right,946.7959,946.7962,,0,,1,946.7963,946.7963,946.7968,948.2955,0,28,28,28,1,0.8,0.2,0.2,0.8,,,,,,,,,,,,,,,0.2563,,0.4,0.6,0.8,0.2,0.2,0.8,0.8,0.2,1,0,,,,,,,,,,,,
,,5e7414b9929931398ae59f02,66fc98b1f6ba0ddc6b0f763b,2024-10-01_21h51.10.674,mdp,2024.2.1,Win32,59.88023952,66fa4ebf79326e780c390304,,,,,,,,,,,,,,,,,,,,,948.296,948.296,948.2974,949.0792,1,1,right,0.2609,,949.0804,949.8781,0,1,left,949.8796,949.8805,,1,,0,949.8805,949.8805,949.8814,951.3772,0,29,29,29,1,0.8,0.2,0.2,0.8,,,,,,,,,,,,,,,0.268,,0.4,0.6,0.8,0.2,0.2,0.8,0.8,0.2,1,0,,,,,,,,,,,,
,,5e7414b9929931398ae59f02,66fc98b1f6ba0ddc6b0f763b,2024-10-01_21h51.10.674,mdp,2024.2.1,Win32,59.88023952,66fa4ebf79326e780c390304,,,,,,,,,,,,,,,,,,,,,951.3779,951.3779,951.3802,952.1934,1,0,right,0.2919,,952.1956,953.0766,0,0,left,953.0781,953.0791,,1,,1,953.0792,953.0792,953.0801,954.5762,0,30,30,30,1,0.2,0.8,0.8,0.2,,,,,,,,,,,,,,,0.3659,,0.4,0.6,0.8,0.2,0.2,0.8,0.8,0.2,1,0,,,,,,,,,,,,
,,5e7414b9929931398ae59f02,66fc98b1f6ba0ddc6b0f763b,2024-10-01_21h51.10.674,mdp,2024.2.1,Win32,59.88023952,66fa4ebf79326e780c390304,,,,,,,,,,,,,,,,,,,,,954.5767,954.5767,954.5783,955.3421,0,1,left,0.2334,,955.3428,956.1254,1,0,right,956.1269,956.128,,0,,1,956.128,956.128,956.1291,957.6248,0,31,31,31,1,0.2,0.8,0.8,0.2,,,,,,,,,,,,,,,0.2525,,0.6,0.4,0.6,0.4,0.2,0.8,0.8,0.2,1,0,,,,,,,,,,,,
,,5e7414b9929931398ae59f02,66fc98b1f6ba0ddc6b0f763b,2024-10-01_21h51.10.674,mdp,2024.2.1,Win32,59.88023952,66fa4ebf79326e780c390304,,,,,,,,,,,,,,,,,,,,,957.6256,957.6256,957.6275,958.2082,0,1,left,0.0486,,958.2102,958.8408,1,0,right,958.8422,958.8434,,0,,1,958.8434,958.8434,958.8442,960.3407,0,32,32,32,1,0.2,0.8,0.8,0.2,,,,,,,,,,,,,,,0.1059,,0.6,0.4,0.6,0.4,0.2,0.8,0.8,0.2,1,0,,,,,,,,,,,,
,,5e7414b9929931398ae59f02,66fc98b1f6ba0ddc6b0f763b,2024-10-01_21h51.10.674,mdp,2024.2.1,Win32,59.88023952,66fa4ebf79326e780c390304,,,,,,,,,,,,,,,,,,,,,960.3418,960.3418,960.3434,961.1726,1,1,right,0.309,,961.1731,961.9555,1,0,right,961.9563,961.957,,0,,1,961.9571,961.9571,961.9577,963.4558,0,33,33,33,1,0.2,0.8,0.8,0.2,,,,,,,,,,,,,,,0.274,,0.6,0.4,0.6,0.4,0.2,0.8,0.8,0.2,1,0,,,,,,,,,,,,
,,5e7414b9929931398ae59f02,66fc98b1f6ba0ddc6b0f763b,2024-10-01_21h51.10.674,mdp,2024.2.1,Win32,59.88023952,66fa4ebf79326e780c390304,,,,,,,,,,,,,,,,,,,,,963.4564,963.4564,963.4588,964.3054,1,0,right,0.3163,,964.3077,965.1052,0,0,left,965.1068,965.1078,,0,,1,965.1079,965.1079,965.1089,966.605,0,34,34,34,1,0.2,0.8,0.8,0.2,,,,,,,,,,,,,,,0.2637,,0.6,0.4,0.6,0.4,0.2,0.8,0.8,0.2,1,0,,,,,,,,,,,,
,,5e7414b9929931398ae59f02,66fc98b1f6ba0ddc6b0f763b,2024-10-01_21h51.10.674,mdp,2024.2.1,Win32,59.88023952,66fa4ebf79326e780c390304,,,,,,,,,,,,,,,,,,,,,966.6057,966.6057,966.6071,967.3868,1,1,right,0.2554,,967.3877,968.3866,1,0,right,968.388,968.389,,0,,1,968.389,968.389,968.3897,969.8855,0,35,35,35,1,0.6,0.4,0.2,0.8,,,,,,,,,,,,,,,0.4888,,0.6,0.4,0.6,0.4,0.2,0.8,0.8,0.2,1,0,,,,,,,,,,,,
,,5e7414b9929931398ae59f02,66fc98b1f6ba0ddc6b0f763b,2024-10-01_21h51.10.674,mdp,2024.2.1,Win32,59.88023952,66fa4ebf79326e780c390304,,,,,,,,,,,,,,,,,,,,,969.8858,969.8858,969.8869,970.6193,0,0,left,0.2189,,970.6217,971.4355,1,1,right,971.436,971.4365,,1,,0,971.4366,971.4366,971.437,972.9346,0,36,36,36,1,0.6,0.4,0.2,0.8,,,,,,,,,,,,,,,0.2839,,0.6,0.4,0.6,0.4,0.2,0.8,0.8,0.2,1,0,,,,,,,,,,,,
,,5e7414b9929931398ae59f02,66fc98b1f6ba0ddc6b0f763b,2024-10-01_21h51.10.674,mdp,2024.2.1,Win32,59.88023952,66fa4ebf79326e780c390304,,,,,,,,,,,,,,,,,,,,,972.9348,972.9348,972.9353,973.5676,1,0,right,0.1028,,973.5682,974.3173,1,0,right,974.318,974.3184,,0,,1,974.3184,974.3184,974.3189,975.8168,0,37,37,37,1,0.6,0.4,0.2,0.8,,,,,,,,,,,,,,,0.2184,,0.6,0.4,0.6,0.4,0.2,0.8,0.8,0.2,1,0,,,,,,,,,,,,
,,5e7414b9929931398ae59f02,66fc98b1f6ba0ddc6b0f763b,2024-10-01_21h51.10.674,mdp,2024.2.1,Win32,59.88023952,66fa4ebf79326e780c390304,,,,,,,,,,,,,,,,,,,,,975.8172,975.8172,975.8189,976.5506,0,0,left,0.2262,,976.552,977.3495,0,0,left,977.3511,977.3517,,0,,1,977.3518,977.3518,977.3526,978.8492,0,38,38,38,1,0.6,0.4,0.2,0.8,,,,,,,,,,,,,,,0.2749,,0.8,0.2,0.8,0.2,0.2,0.8,0.8,0.2,1,0,,,,,,,,,,,,
,,5e7414b9929931398ae59f02,66fc98b1f6ba0ddc6b0f763b,2024-10-01_21h51.10.674,mdp,2024.2.1,Win32,59.88023952,66fa4ebf79326e780c390304,,,,,,,,,,,,,,,,,,,,,978.8497,978.8499,978.8519,979.665,0,1,left,0.2837,,979.6665,980.4487,1,0,right,980.4502,980.4515,,0,,1,980.4516,980.4516,980.4524,981.9475,0,39,39,39,1,0.6,0.4,0.2,0.8,,,,,,,,,,,,,,,0.2674,,0.8,0.2,0.8,0.2,0.2,0.8,0.8,0.2,1,0,,,,,,,,,,,,
,,5e7414b9929931398ae59f02,66fc98b1f6ba0ddc6b0f763b,2024-10-01_21h51.10.674,mdp,2024.2.1,Win32,59.88023952,66fa4ebf79326e780c390304,,,,,,,,,,,,,,,,,,,,,981.9488,981.9488,981.9507,982.7464,0,1,left,0.2651,,982.747,983.5477,0,1,left,983.5491,983.5501,,1,,0,983.5502,983.5502,983.5509,985.0468,0,40,40,40,1,0.6,0.4,0.2,0.8,,,,,,,,,,,,,,,0.2951,,0.8,0.2,0.8,0.2,0.2,0.8,0.8,0.2,1,0,,,,,,,,,,,,
,,5e7414b9929931398ae59f02,66fc98b1f6ba0ddc6b0f763b,2024-10-01_21h51.10.674,mdp,2024.2.1,Win32,59.88023952,66fa4ebf79326e780c390304,,,,,,,,,,,,,,,,,,,,,985.0474,985.0474,985.0492,985.8794,1,1,right,0.3016,,985.8813,986.662,0,0,left,986.6633,986.6643,,1,,1,986.6643,986.6644,986.6652,988.1617,0,41,41,41,1,0.6,0.4,0.2,0.8,,,,,,,,,,,,,,,0.2576,,0.8,0.2,0.8,0.2,0.2,0.8,0.8,0.2,1,0,,,,,,,,,,,,
,,5e7414b9929931398ae59f02,66fc98b1f6ba0ddc6b0f763b,2024-10-01_21h51.10.674,mdp,2024.2.1,Win32,59.88023952,66fa4ebf79326e780c390304,,,,,,,,,,,,,,,,,,,,,988.1621,988.1621,988.1635,988.9947,1,1,right,0.3016,,988.9963,989.7949,0,1,left,989.7969,989.798,,1,,0,989.798,989.798,989.7989,991.2935,0,42,42,42,1,0.6,0.4,0.2,0.8,,,,,,,,,,,,,,,0.269,,0.8,0.2,0.8,0.2,0.2,0.8,0.8,0.2,1,0,,,,,,,,,,,,
,,5e7414b9929931398ae59f02,66fc98b1f6ba0ddc6b0f763b,2024-10-01_21h51.10.674,mdp,2024.2.1,Win32,59.88023952,66fa4ebf79326e780c390304,,,,,,,,,,,,,,,,,,,,,991.2939,991.2939,991.2963,992.0933,1,1,right,0.2684,,992.0953,992.8758,0,0,left,992.8766,992.877,,0,,1,992.877,992.877,992.8776,994.3763,0,43,43,43,1,0.6,0.4,0.2,0.8,,,,,,,,,,,,,,,0.2661,,0.8,0.2,0.8,0.2,0.2,0.8,0.8,0.2,1,0,,,,,,,,,,,,
,,5e7414b9929931398ae59f02,66fc98b1f6ba0ddc6b0f763b,2024-10-01_21h51.10.674,mdp,2024.2.1,Win32,59.88023952,66fa4ebf79326e780c390304,,,,,,,,,,,,,,,,,,,,,994.3771,994.3771,994.3791,995.1755,0,0,left,0.2676,,995.177,995.9916,1,1,right,995.9931,995.994,,0,,0,995.994,995.994,995.9947,997.4909,0,44,44,44,1,0.6,0.4,0.2,0.8,,,,,,,,,,,,,,,0.2805,,0.8,0.2,0.8,0.2,0.2,0.8,0.8,0.2,1,0,,,,,,,,,,,,
,,5e7414b9929931398ae59f02,66fc98b1f6ba0ddc6b0f763b,2024-10-01_21h51.10.674,mdp,2024.2.1,Win32,59.88023952,66fa4ebf79326e780c390304,,,,,,,,,,,,,,,,,,,,,997.4913,997.4913,997.4933,998.2731,0,0,left,0.2576,,998.2745,999.1566,1,1,right,999.158,999.1589,,0,,0,999.159,999.1591,999.1598,1000.6566,0,45,45,45,1,0.6,0.4,0.2,0.8,,,,,,,,,,,,,,,0.3746,,0.8,0.2,0.8,0.2,0.2,0.8,0.8,0.2,1,0,,,,,,,,,,,,
,,5e7414b9929931398ae59f02,66fc98b1f6ba0ddc6b0f763b,2024-10-01_21h51.10.674,mdp,2024.2.1,Win32,59.88023952,66fa4ebf79326e780c390304,,,,,,,,,,,,,,,,,,,,,1000.6573,1000.6574,1000.6594,1001.4388,0,0,left,0.257,,1001.4402,1002.2218,0,0,left,1002.2234,1002.2248,,1,,1,1002.225,1002.225,1002.2259,1003.7206,0,46,46,46,1,0.6,0.4,0.2,0.8,,,,,,,,,,,,,,,0.2546,,0.8,0.2,0.8,0.2,0.2,0.8,0.8,0.2,1,0,,,,,,,,,,,,
,,5e7414b9929931398ae59f02,66fc98b1f6ba0ddc6b0f763b,2024-10-01_21h51.10.674,mdp,2024.2.1,Win32,59.88023952,66fa4ebf79326e780c390304,,,,,,,,,,,,,,,,,,,,,1003.7208,1003.7208,1003.7213,1004.454,0,0,left,0.2102,,1004.4548,1005.2208,0,0,left,1005.2222,1005.2232,,0,,1,1005.2232,1005.2232,1005.2242,1006.7205,0,47,47,47,1,0.6,0.4,0.2,0.8,,,,,,,,,,,,,,,0.2378,,0.8,0.2,0.8,0.2,0.2,0.8,0.8,0.2,1,0,,,,,,,,,,,,
,,5e7414b9929931398ae59f02,66fc98b1f6ba0ddc6b0f763b,2024-10-01_21h51.10.674,mdp,2024.2.1,Win32,59.88023952,66fa4ebf79326e780c390304,,,,,,,,,,,,,,,,,,,,,1006.722,1006.7221,1006.7233,1007.5033,1,0,right,0.2516,,1007.5058,1008.3361,0,0,left,1008.3378,1008.3391,,0,,1,1008.3392,1008.3392,1008.3401,1009.836,0,48,48,48,1,0.6,0.4,0.2,0.8,,,,,,,,,,,,,,,0.3073,,0.8,0.2,0.8,0.2,0.2,0.8,0.8,0.2,1,0,,,,,,,,,,,,
,,5e7414b9929931398ae59f02,66fc98b1f6ba0ddc6b0f763b,2024-10-01_21h51.10.674,mdp,2024.2.1,Win32,59.88023952,66fa4ebf79326e780c390304,,,,,,,,,,,,,,,,,,,,,1009.8367,1009.8367,1009.8386,1010.835,1,1,right,0.4662,,1010.8371,1011.6847,1,0,right,1011.6862,1011.6877,,0,,1,1011.6878,1011.6878,1011.6887,1013.184,0,49,49,49,1,0.6,0.4,0.2,0.8,,,,,,,,,,,,,,,0.3143,,0.8,0.2,0.8,0.2,0.2,0.8,0.8,0.2,1,0,,,,,,,,,,,,
,,5e7414b9929931398ae59f02,66fc98b1f6ba0ddc6b0f763b,2024-10-01_21h51.10.674,mdp,2024.2.1,Win32,59.88023952,66fa4ebf79326e780c390304,,,,,,,,,,,,,,,,,,,,,,,,,,,,,,,,,,,,,,,,,,,,,,,,,,,,,,,,1013.1841,1071.6913,0,1,1,6,1,imgs/elephant.png,imgs/dog.png,imgs/squirrel.png,imgs/goat.png,imgs/lion.png,,,,,,,,,,,,,,,,,,,,,,,,
,,5e7414b9929931398ae59f02,66fc98b1f6ba0ddc6b0f763b,2024-10-01_21h51.10.674,mdp,2024.2.1,Win32,59.88023952,66fa4ebf79326e780c390304,,,,,,,,,,,,,,3,seqs/st3seq45.csv,1071.6929,1074.3568,space,2.1501,,1074.3623,1074.3623,1074.363,1075.9399,1,1,right,1.0447,,1075.9413,1076.7226,1,1,right,1076.7237,1077.6561,1,0,right,1,1077.6562,1077.6562,1077.6575,1079.1552,0,0,0,0,1,0.2,0.8,0.2,0.8,,,,,,,,,,,,,,,0.2451,,0.8,0.2,0.6,0.4,0.6,0.4,0.2,0.8,,,0.3957,,0.2,0.8,0.4,0.6,0.2,0.8,0.8,0.2,1,0
,,5e7414b9929931398ae59f02,66fc98b1f6ba0ddc6b0f763b,2024-10-01_21h51.10.674,mdp,2024.2.1,Win32,59.88023952,66fa4ebf79326e780c390304,,,,,,,,,,,,,,,,,,,,,1079.1558,1079.1559,1079.1572,1079.9046,0,1,left,0.2266,,1079.9057,1080.6545,1,1,right,1080.6554,1081.587,1,0,right,1,1081.587,1081.587,1081.5877,1083.0865,0,1,1,1,1,0.2,0.8,0.2,0.8,,,,,,,,,,,,,,,0.2174,,0.8,0.2,0.6,0.4,0.6,0.4,0.2,0.8,,,0.4016,,0.2,0.8,0.4,0.6,0.2,0.8,0.8,0.2,1,0
,,5e7414b9929931398ae59f02,66fc98b1f6ba0ddc6b0f763b,2024-10-01_21h51.10.674,mdp,2024.2.1,Win32,59.88023952,66fa4ebf79326e780c390304,,,,,,,,,,,,,,,,,,,,,1083.087,1083.087,1083.0878,1083.9362,0,0,left,0.3174,,1083.937,1084.7187,1,0,right,1084.7196,1085.5687,0,1,left,0,1085.5688,1085.5688,1085.5695,1087.0687,0,2,2,2,1,0.2,0.8,0.2,0.8,,,,,,,,,,,,,,,0.2445,,0.8,0.2,0.6,0.4,0.4,0.6,0.4,0.6,,,0.3291,,0.2,0.8,0.4,0.6,0.2,0.8,0.8,0.2,1,0
,,5e7414b9929931398ae59f02,66fc98b1f6ba0ddc6b0f763b,2024-10-01_21h51.10.674,mdp,2024.2.1,Win32,59.88023952,66fa4ebf79326e780c390304,,,,,,,,,,,,,,,,,,,,,1087.0689,1087.0689,1087.0696,1087.6343,0,1,left,0.0437,,1087.6353,1088.2507,1,1,right,1088.2511,1089.3669,0,1,left,0,1089.367,1089.367,1089.3677,1090.866,0,3,3,3,1,0.2,0.8,0.2,0.8,,,,,,,,,,,,,,,0.0911,,0.8,0.2,0.6,0.4,0.6,0.4,0.2,0.8,,,0.585,,0.2,0.8,0.4,0.6,0.2,0.8,0.8,0.2,1,0
,,5e7414b9929931398ae59f02,66fc98b1f6ba0ddc6b0f763b,2024-10-01_21h51.10.674,mdp,2024.2.1,Win32,59.88023952,66fa4ebf79326e780c390304,,,,,,,,,,,,,,,,,,,,,1090.8663,1090.8664,1090.8673,1091.7327,0,1,left,0.3315,,1091.7331,1092.4155,0,0,left,1092.4166,1093.1317,0,1,left,0,1093.1318,1093.1318,1093.1326,1094.6313,0,4,4,4,1,0.2,0.8,0.2,0.8,,,,,,,,,,,,,,,0.1571,,0.8,0.2,0.6,0.4,0.6,0.4,0.2,0.8,,,0.2066,,0.2,0.8,0.4,0.6,0.2,0.8,0.8,0.2,1,0
,,5e7414b9929931398ae59f02,66fc98b1f6ba0ddc6b0f763b,2024-10-01_21h51.10.674,mdp,2024.2.1,Win32,59.88023952,66fa4ebf79326e780c390304,,,,,,,,,,,,,,,,,,,,,1094.6316,1094.6316,1094.6324,1095.2477,0,1,left,0.0887,,1095.2485,1095.9642,0,1,left,1095.9649,1096.7135,1,0,right,1,1096.7136,1096.7136,1096.7147,1098.213,0,5,5,5,1,0.2,0.8,0.2,0.8,,,,,,,,,,,,,,,0.1911,,0.8,0.2,0.6,0.4,0.6,0.4,0.2,0.8,,,0.213,,0.2,0.8,0.4,0.6,0.2,0.8,0.8,0.2,1,0
,,5e7414b9929931398ae59f02,66fc98b1f6ba0ddc6b0f763b,2024-10-01_21h51.10.674,mdp,2024.2.1,Win32,59.88023952,66fa4ebf79326e780c390304,,,,,,,,,,,,,,,,,,,,,1098.2134,1098.2134,1098.215,1098.9459,1,1,right,0.2182,,1098.9465,1099.6455,1,0,right,1099.6459,1100.4128,0,1,left,0,1100.4129,1100.4129,1100.4143,1101.9116,0,6,6,6,1,0.2,0.8,0.2,0.8,,,,,,,,,,,,,,,0.1735,,0.8,0.2,0.6,0.4,0.6,0.4,0.2,0.8,,,0.2477,,0.2,0.8,0.4,0.6,0.2,0.8,0.8,0.2,1,0
,,5e7414b9929931398ae59f02,66fc98b1f6ba0ddc6b0f763b,2024-10-01_21h51.10.674,mdp,2024.2.1,Win32,59.88023952,66fa4ebf79326e780c390304,,,,,,,,,,,,,,,,,,,,,1101.9119,1101.9119,1101.9129,1102.6944,1,1,right,0.2555,,1102.6955,1103.4108,0,1,left,1103.4117,1104.1437,1,0,right,1,1104.1437,1104.1437,1104.1445,1105.643,0,7,7,7,1,0.2,0.8,0.2,0.8,,,,,,,,,,,,,,,0.2088,,0.8,0.2,0.6,0.4,0.6,0.4,0.2,0.8,,,0.2051,,0.2,0.8,0.4,0.6,0.2,0.8,0.8,0.2,1,0
,,5e7414b9929931398ae59f02,66fc98b1f6ba0ddc6b0f763b,2024-10-01_21h51.10.674,mdp,2024.2.1,Win32,59.88023952,66fa4ebf79326e780c390304,,,,,,,,,,,,,,,,,,,,,1105.6433,1105.6433,1105.644,1106.4262,1,0,right,0.2534,,1106.4269,1107.1758,0,0,left,1107.1769,1107.9256,1,1,right,0,1107.9256,1107.9256,1107.9264,1109.4247,0,8,8,8,1,0.2,0.8,0.2,0.8,,,,,,,,,,,,,,,0.2318,,0.8,0.2,0.6,0.4,0.6,0.4,0.2,0.8,,,0.2228,,0.2,0.8,0.4,0.6,0.2,0.8,0.8,0.2,1,0
,,5e7414b9929931398ae59f02,66fc98b1f6ba0ddc6b0f763b,2024-10-01_21h51.10.674,mdp,2024.2.1,Win32,59.88023952,66fa4ebf79326e780c390304,,,,,,,,,,,,,,,,,,,,,1109.4252,1109.4252,1109.4266,1110.208,1,1,right,0.2569,,1110.2085,1110.9908,0,0,left,1110.9923,1111.7241,0,0,left,1,1111.7243,1111.7243,1111.7251,1113.2235,0,9,9,9,1,0.2,0.8,0.2,0.8,,,,,,,,,,,,,,,0.2464,,0.8,0.2,0.6,0.4,0.6,0.4,0.2,0.8,,,0.2172,,0.2,0.8,0.4,0.6,0.2,0.8,0.8,0.2,1,0
,,5e7414b9929931398ae59f02,66fc98b1f6ba0ddc6b0f763b,2024-10-01_21h51.10.674,mdp,2024.2.1,Win32,59.88023952,66fa4ebf79326e780c390304,,,,,,,,,,,,,,,,,,,,,1113.2238,1113.2239,1113.2246,1113.7893,1,1,right,0.0411,,1113.79,1114.5558,1,1,right,1114.5566,1115.3223,0,1,left,0,1115.3223,1115.3223,1115.323,1116.8214,0,10,10,10,1,0.2,0.8,0.2,0.8,,,,,,,,,,,,,,,0.2355,,0.8,0.2,0.6,0.4,0.6,0.4,0.2,0.8,,,0.2325,,0.2,0.8,0.4,0.6,0.2,0.8,0.8,0.2,1,0
,,5e7414b9929931398ae59f02,66fc98b1f6ba0ddc6b0f763b,2024-10-01_21h51.10.674,mdp,2024.2.1,Win32,59.88023952,66fa4ebf79326e780c390304,,,,,,,,,,,,,,,,,,,,,1116.8217,1116.8217,1116.8223,1117.6045,0,1,left,0.2549,,1117.6053,1118.3044,0,1,left,1118.3054,1119.054,1,0,right,1,1119.0542,1119.0542,1119.0552,1120.5532,0,11,11,11,1,0.2,0.8,0.2,0.8,,,,,,,,,,,,,,,0.1913,,0.8,0.2,0.6,0.4,0.6,0.4,0.2,0.8,,,0.2288,,0.2,0.8,0.4,0.6,0.2,0.8,0.8,0.2,1,0
,,5e7414b9929931398ae59f02,66fc98b1f6ba0ddc6b0f763b,2024-10-01_21h51.10.674,mdp,2024.2.1,Win32,59.88023952,66fa4ebf79326e780c390304,,,,,,,,,,,,,,,,,,,,,1120.5535,1120.5535,1120.5539,1121.403,0,1,left,0.318,,1121.4036,1122.1858,1,1,right,1122.1864,1123.735,1,0,right,1,1123.7351,1123.7352,1123.7358,1125.2355,0,12,12,12,1,0.2,0.8,0.2,0.8,,,,,,,,,,,,,,,0.2607,,0.8,0.2,0.6,0.4,0.6,0.4,0.2,0.8,,,1.0391,,0.2,0.8,0.4,0.6,0.2,0.8,0.8,0.2,1,0
,,5e7414b9929931398ae59f02,66fc98b1f6ba0ddc6b0f763b,2024-10-01_21h51.10.674,mdp,2024.2.1,Win32,59.88023952,66fa4ebf79326e780c390304,,,,,,,,,,,,,,,,,,,,,1125.2359,1125.2359,1125.2367,1126.1177,0,1,left,0.35,,1126.1185,1126.8841,0,0,left,1126.8846,1128.2498,0,1,left,0,1128.2498,1128.2498,1128.2508,1129.7497,0,13,13,13,1,0.2,0.8,0.2,0.8,,,,,,,,,,,,,,,0.2382,,0.8,0.2,0.6,0.4,0.6,0.4,0.2,0.8,,,0.8407,,0.2,0.8,0.4,0.6,0.2,0.8,0.8,0.2,1,0
,,5e7414b9929931398ae59f02,66fc98b1f6ba0ddc6b0f763b,2024-10-01_21h51.10.674,mdp,2024.2.1,Win32,59.88023952,66fa4ebf79326e780c390304,,,,,,,,,,,,,,,,,,,,,1129.7503,1129.7503,1129.7512,1130.6321,1,1,right,0.3562,,1130.6329,1131.3986,0,1,left,1131.3991,1132.5983,1,0,right,1,1132.5984,1132.5984,1132.599,1134.0978,0,14,14,14,1,0.2,0.8,0.2,0.8,,,,,,,,,,,,,,,0.2389,,0.8,0.2,0.6,0.4,0.6,0.4,0.2,0.8,,,0.6649,,0.2,0.8,0.4,0.6,0.2,0.8,0.8,0.2,1,0
,,5e7414b9929931398ae59f02,66fc98b1f6ba0ddc6b0f763b,2024-10-01_21h51.10.674,mdp,2024.2.1,Win32,59.88023952,66fa4ebf79326e780c390304,,,,,,,,,,,,,,,,,,,,,1134.0981,1134.0981,1134.0991,1135.0636,1,1,right,0.4329,,1135.0644,1135.8468,1,1,right,1135.8472,1136.7127,1,0,right,1,1136.7128,1136.7128,1136.7134,1138.2123,0,15,15,15,1,0.2,0.8,0.2,0.8,,,,,,,,,,,,,,,0.258,,0.8,0.2,0.6,0.4,0.6,0.4,0.2,0.8,,,0.3577,,0.2,0.8,0.4,0.6,0.2,0.8,0.8,0.2,1,0
,,5e7414b9929931398ae59f02,66fc98b1f6ba0ddc6b0f763b,2024-10-01_21h51.10.674,mdp,2024.2.1,Win32,59.88023952,66fa4ebf79326e780c390304,,,,,,,,,,,,,,,,,,,,,1138.2127,1138.2127,1138.2137,1139.0119,0,1,left,0.268,,1139.0132,1139.9114,0,0,left,1139.9122,1141.1941,1,1,right,0,1141.1942,1141.1942,1141.1949,1142.6939,0,16,16,16,1,0.2,0.8,0.2,0.8,,,,,,,,,,,,,,,0.3728,,0.8,0.2,0.6,0.4,0.6,0.4,0.2,0.8,,,0.7558,,0.2,0.8,0.4,0.6,0.2,0.8,0.8,0.2,1,0
,,5e7414b9929931398ae59f02,66fc98b1f6ba0ddc6b0f763b,2024-10-01_21h51.10.674,mdp,2024.2.1,Win32,59.88023952,66fa4ebf79326e780c390304,,,,,,,,,,,,,,,,,,,,,1142.6944,1142.6944,1142.6952,1143.7435,1,1,right,0.5214,,1143.7442,1144.6428,0,1,left,1144.6434,1145.7756,1,0,right,1,1145.7756,1145.7756,1145.7763,1147.2749,0,17,17,17,1,0.2,0.8,0.2,0.8,,,,,,,,,,,,,,,0.3788,,0.8,0.2,0.6,0.4,0.6,0.4,0.2,0.8,,,0.6134,,0.2,0.8,0.4,0.6,0.2,0.8,0.8,0.2,1,0
,,5e7414b9929931398ae59f02,66fc98b1f6ba0ddc6b0f763b,2024-10-01_21h51.10.674,mdp,2024.2.1,Win32,59.88023952,66fa4ebf79326e780c390304,,,,,,,,,,,,,,,,,,,,,1147.2756,1147.2756,1147.2762,1148.2747,1,0,right,0.4674,,1148.2757,1149.0748,1,0,right,1149.0759,1150.224,0,1,left,0,1150.224,1150.224,1150.2246,1151.7234,0,18,18,18,1,0.2,0.8,0.2,0.8,,,,,,,,,,,,,,,0.2633,,0.8,0.2,0.6,0.4,0.6,0.4,0.2,0.8,,,0.6215,,0.2,0.8,0.4,0.6,0.6,0.4,0.2,0.8,1,0
,,5e7414b9929931398ae59f02,66fc98b1f6ba0ddc6b0f763b,2024-10-01_21h51.10.674,mdp,2024.2.1,Win32,59.88023952,66fa4ebf79326e780c390304,,,,,,,,,,,,,,,,,,,,,1151.724,1151.724,1151.7251,1152.6392,0,1,left,0.3826,,1152.6397,1153.4057,0,0,left,1153.4064,1155.1214,0,1,left,0,1155.1214,1155.1215,1155.1222,1156.6211,0,19,19,19,1,0.2,0.8,0.2,0.8,,,,,,,,,,,,,,,0.2354,,0.8,0.2,0.6,0.4,0.6,0.4,0.2,0.8,,,1.1939,,0.2,0.8,0.4,0.6,0.6,0.4,0.2,0.8,1,0
,,5e7414b9929931398ae59f02,66fc98b1f6ba0ddc6b0f763b,2024-10-01_21h51.10.674,mdp,2024.2.1,Win32,59.88023952,66fa4ebf79326e780c390304,,,,,,,,,,,,,,,,,,,,,1156.6214,1156.6214,1156.6224,1157.4215,0,0,left,0.279,,1157.4223,1158.1872,0,1,left,1158.1878,1159.3532,1,1,right,0,1159.3533,1159.3533,1159.354,1160.8521,0,20,20,20,1,0.2,0.8,0.2,0.8,,,,,,,,,,,,,,,0.2358,,0.8,0.2,0.6,0.4,0.6,0.4,0.2,0.8,,,0.641,,0.2,0.8,0.4,0.6,0.6,0.4,0.2,0.8,1,0
,,5e7414b9929931398ae59f02,66fc98b1f6ba0ddc6b0f763b,2024-10-01_21h51.10.674,mdp,2024.2.1,Win32,59.88023952,66fa4ebf79326e780c390304,,,,,,,,,,,,,,,,,,,,,1160.8524,1160.8524,1160.853,1161.7353,0,0,left,0.35,,1161.7362,1162.4852,0,0,left,1162.4862,1163.751,1,1,right,0,1163.7511,1163.7511,1163.7515,1165.2503,0,21,21,21,1,0.2,0.8,0.2,0.8,,,,,,,,,,,,,,,0.2217,,0.8,0.2,0.6,0.4,0.6,0.4,0.2,0.8,,,0.7271,,0.2,0.8,0.4,0.6,0.6,0.4,0.2,0.8,1,0
,,5e7414b9929931398ae59f02,66fc98b1f6ba0ddc6b0f763b,2024-10-01_21h51.10.674,mdp,2024.2.1,Win32,59.88023952,66fa4ebf79326e780c390304,,,,,,,,,,,,,,,,,,,,,1165.2505,1165.2505,1165.2508,1166.0168,1,1,right,0.2534,,1166.0174,1166.6999,0,0,left,1166.7005,1167.4497,1,0,right,1,1167.4497,1167.4497,1167.4509,1168.9491,0,22,22,22,1,0.2,0.8,0.2,0.8,,,,,,,,,,,,,,,0.1752,,0.8,0.2,0.6,0.4,0.6,0.4,0.2,0.8,,,0.2186,,0.2,0.8,0.4,0.6,0.6,0.4,0.2,0.8,1,0
,,5e7414b9929931398ae59f02,66fc98b1f6ba0ddc6b0f763b,2024-10-01_21h51.10.674,mdp,2024.2.1,Win32,59.88023952,66fa4ebf79326e780c390304,,,,,,,,,,,,,,,,,,,,,1168.9494,1168.9494,1168.9503,1169.7649,0,1,left,0.2889,,1169.7657,1170.515,1,1,right,1170.5157,1171.3312,0,0,left,1,1171.3313,1171.3313,1171.3322,1172.8304,0,23,23,23,1,0.2,0.8,0.2,0.8,,,,,,,,,,,,,,,0.2334,,0.8,0.2,0.6,0.4,0.6,0.4,0.2,0.8,,,0.2857,,0.2,0.8,0.4,0.6,0.6,0.4,0.2,0.8,1,0
,,5e7414b9929931398ae59f02,66fc98b1f6ba0ddc6b0f763b,2024-10-01_21h51.10.674,mdp,2024.2.1,Win32,59.88023952,66fa4ebf79326e780c390304,,,,,,,,,,,,,,,,,,,,,1172.8307,1172.8307,1172.8313,1173.63,1,1,right,0.2766,,1173.6307,1174.4131,1,1,right,1174.4139,1175.4791,0,0,left,1,1175.4791,1175.4791,1175.4798,1176.9792,0,24,24,24,1,0.2,0.8,0.2,0.8,,,,,,,,,,,,,,,0.2507,,0.8,0.2,0.6,0.4,0.6,0.4,0.2,0.8,,,0.5502,,0.2,0.8,0.4,0.6,0.6,0.4,0.2,0.8,1,0
,,5e7414b9929931398ae59f02,66fc98b1f6ba0ddc6b0f763b,2024-10-01_21h51.10.674,mdp,2024.2.1,Win32,59.88023952,66fa4ebf79326e780c390304,,,,,,,,,,,,,,,,,,,,,1176.98,1176.98,1176.9812,1177.7283,0,0,left,0.2203,,1177.7293,1178.4951,0,1,left,1178.4962,1179.2781,1,0,right,1,1179.2782,1179.2782,1179.2787,1180.7774,0,25,25,25,1,0.2,0.8,0.2,0.8,,,,,,,,,,,,,,,0.2324,,0.8,0.2,0.6,0.4,0.2,0.8,0.4,0.6,,,0.2601,,0.2,0.8,0.4,0.6,0.6,0.4,0.2,0.8,1,0
,,5e7414b9929931398ae59f02,66fc98b1f6ba0ddc6b0f763b,2024-10-01_21h51.10.674,mdp,2024.2.1,Win32,59.88023952,66fa4ebf79326e780c390304,,,,,,,,,,,,,,,,,,,,,1180.7778,1180.7778,1180.779,1181.7603,1,1,right,0.4549,,1181.761,1182.5767,1,1,right,1182.5775,1183.426,0,0,left,1,1183.426,1183.426,1183.4266,1184.9251,0,26,26,26,1,0.2,0.8,0.2,0.8,,,,,,,,,,,,,,,0.2842,,0.8,0.2,0.6,0.4,0.2,0.8,0.4,0.6,,,0.3262,,0.2,0.8,0.4,0.6,0.6,0.4,0.2,0.8,1,0
,,5e7414b9929931398ae59f02,66fc98b1f6ba0ddc6b0f763b,2024-10-01_21h51.10.674,mdp,2024.2.1,Win32,59.88023952,66fa4ebf79326e780c390304,,,,,,,,,,,,,,,,,,,,,1184.9258,1184.9258,1184.9264,1185.758,0,1,left,0.3075,,1185.7586,1186.5416,1,1,right,1186.5426,1188.1073,1,0,right,1,1188.1074,1188.1074,1188.1079,1189.6066,0,27,27,27,1,0.2,0.8,0.2,0.8,,,,,,,,,,,,,,,0.2509,,0.8,0.2,0.6,0.4,0.2,0.8,0.4,0.6,,,1.0506,,0.2,0.8,0.4,0.6,0.8,0.2,0.6,0.4,1,0
,,5e7414b9929931398ae59f02,66fc98b1f6ba0ddc6b0f763b,2024-10-01_21h51.10.674,mdp,2024.2.1,Win32,59.88023952,66fa4ebf79326e780c390304,,,,,,,,,,,,,,,,,,,,,1189.6072,1189.6072,1189.6088,1190.1399,0,1,left,0.0006,,1190.1407,1190.9226,0,1,left,1190.9234,1191.6889,1,1,right,0,1191.6889,1191.6889,1191.6897,1193.1882,0,28,28,28,1,0.2,0.8,0.2,0.8,,,,,,,,,,,,,,,0.2511,,0.8,0.2,0.6,0.4,0.2,0.8,0.4,0.6,,,0.2446,,0.2,0.8,0.4,0.6,0.8,0.2,0.6,0.4,1,0
,,5e7414b9929931398ae59f02,66fc98b1f6ba0ddc6b0f763b,2024-10-01_21h51.10.674,mdp,2024.2.1,Win32,59.88023952,66fa4ebf79326e780c390304,,,,,,,,,,,,,,,,,,,,,1193.1894,1193.1894,1193.1904,1194.1049,0,0,left,0.3838,,1194.1062,1194.8546,0,0,left,1194.8553,1195.637,0,1,left,0,1195.637,1195.637,1195.6374,1197.1366,0,29,29,29,1,0.2,0.8,0.2,0.8,,,,,,,,,,,,,,,0.2258,,0.8,0.2,0.6,0.4,0.2,0.8,0.4,0.6,,,0.2488,,0.2,0.8,0.4,0.6,0.8,0.2,0.6,0.4,1,0
,,5e7414b9929931398ae59f02,66fc98b1f6ba0ddc6b0f763b,2024-10-01_21h51.10.674,mdp,2024.2.1,Win32,59.88023952,66fa4ebf79326e780c390304,,,,,,,,,,,,,,,,,,,,,1197.1369,1197.137,1197.1384,1197.936,0,0,left,0.2673,,1197.9369,1198.7029,0,0,left,1198.7037,1199.4859,1,1,right,0,1199.486,1199.486,1199.4867,1200.985,0,30,30,30,1,0.2,0.8,0.2,0.8,,,,,,,,,,,,,,,0.235,,0.8,0.2,0.6,0.4,0.2,0.8,0.4,0.6,,,0.2506,,0.2,0.8,0.4,0.6,0.8,0.2,0.6,0.4,1,0
,,5e7414b9929931398ae59f02,66fc98b1f6ba0ddc6b0f763b,2024-10-01_21h51.10.674,mdp,2024.2.1,Win32,59.88023952,66fa4ebf79326e780c390304,,,,,,,,,,,,,,,,,,,,,1200.9853,1200.9854,1200.9863,1201.7514,1,0,right,0.2421,,1201.7519,1202.5508,0,0,left,1202.5518,1203.3841,1,1,right,0,1203.3841,1203.3841,1203.3848,1204.8832,0,31,31,31,1,0.2,0.8,0.2,0.8,,,,,,,,,,,,,,,0.2707,,0.8,0.2,0.6,0.4,0.2,0.8,0.4,0.6,,,0.3157,,0.2,0.8,0.4,0.6,0.8,0.2,0.6,0.4,1,0
,,5e7414b9929931398ae59f02,66fc98b1f6ba0ddc6b0f763b,2024-10-01_21h51.10.674,mdp,2024.2.1,Win32,59.88023952,66fa4ebf79326e780c390304,,,,,,,,,,,,,,,,,,,,,1204.8835,1204.8835,1204.8841,1205.6665,0,1,left,0.2548,,1205.6672,1206.3823,1,0,right,1206.3829,1207.4322,1,0,right,1,1207.4323,1207.4323,1207.4336,1208.9315,0,32,32,32,1,0.2,0.8,0.2,0.8,,,,,,,,,,,,,,,0.1809,,0.8,0.2,0.6,0.4,0.2,0.8,0.4,0.6,,,0.5172,,0.4,0.6,0.6,0.4,0.8,0.2,0.6,0.4,1,0
,,5e7414b9929931398ae59f02,66fc98b1f6ba0ddc6b0f763b,2024-10-01_21h51.10.674,mdp,2024.2.1,Win32,59.88023952,66fa4ebf79326e780c390304,,,,,,,,,,,,,,,,,,,,,1208.9324,1208.9324,1208.933,1209.7317,0,0,left,0.2724,,1209.7326,1210.5309,0,0,left,1210.5317,1211.3306,1,0,right,1,1211.3306,1211.3306,1211.3311,1212.8299,0,33,33,33,1,0.8,0.2,0.4,0.6,,,,,,,,,,,,,,,0.2713,,0.8,0.2,0.6,0.4,0.2,0.8,0.4,0.6,,,0.2768,,0.4,0.6,0.6,0.4,0.8,0.2,0.6,0.4,1,0
,,5e7414b9929931398ae59f02,66fc98b1f6ba0ddc6b0f763b,2024-10-01_21h51.10.674,mdp,2024.2.1,Win32,59.88023952,66fa4ebf79326e780c390304,,,,,,,,,,,,,,,,,,,,,1212.8302,1212.8303,1212.831,1213.7292,1,0,right,0.3746,,1213.7299,1215.329,1,0,right,1215.3297,1216.3282,1,1,right,0,1216.3282,1216.3282,1216.3287,1217.8277,0,34,34,34,1,0.8,0.2,0.4,0.6,,,,,,,,,,,,,,,1.0842,,0.8,0.2,0.6,0.4,0.2,0.8,0.4,0.6,,,0.4746,,0.4,0.6,0.6,0.4,0.8,0.2,0.6,0.4,1,0
,,5e7414b9929931398ae59f02,66fc98b1f6ba0ddc6b0f763b,2024-10-01_21h51.10.674,mdp,2024.2.1,Win32,59.88023952,66fa4ebf79326e780c390304,,,,,,,,,,,,,,,,,,,,,1217.828,1217.828,1217.8284,1218.6109,0,0,left,0.2529,,1218.6116,1219.3603,1,0,right,1219.3612,1220.1099,0,0,left,1,1220.1101,1220.1101,1220.1107,1221.6096,0,35,35,35,1,0.8,0.2,0.4,0.6,,,,,,,,,,,,,,,0.2161,,0.8,0.2,0.6,0.4,0.2,0.8,0.4,0.6,,,0.2445,,0.4,0.6,0.6,0.4,0.8,0.2,0.6,0.4,1,0
,,5e7414b9929931398ae59f02,66fc98b1f6ba0ddc6b0f763b,2024-10-01_21h51.10.674,mdp,2024.2.1,Win32,59.88023952,66fa4ebf79326e780c390304,,,,,,,,,,,,,,,,,,,,,1221.61,1221.6101,1221.611,1222.4089,0,0,left,0.2682,,1222.4095,1223.1588,0,1,left,1223.1594,1224.3915,0,0,left,1,1224.3915,1224.3915,1224.3923,1225.8916,0,36,36,36,1,0.8,0.2,0.4,0.6,,,,,,,,,,,,,,,0.2428,,0.8,0.2,0.6,0.4,0.2,0.8,0.4,0.6,,,0.7057,,0.4,0.6,0.6,0.4,0.8,0.2,0.6,0.4,1,0
,,5e7414b9929931398ae59f02,66fc98b1f6ba0ddc6b0f763b,2024-10-01_21h51.10.674,mdp,2024.2.1,Win32,59.88023952,66fa4ebf79326e780c390304,,,,,,,,,,,,,,,,,,,,,1225.8919,1225.8919,1225.8931,1226.5902,1,1,right,0.1781,,1226.5907,1227.3234,1,1,right,1227.3239,1228.1066,1,0,right,1,1228.1066,1228.1067,1228.1074,1229.6056,0,37,37,37,1,0.8,0.2,0.4,0.6,,,,,,,,,,,,,,,0.2015,,0.8,0.2,0.6,0.4,0.2,0.8,0.4,0.6,,,0.2509,,0.4,0.6,0.6,0.4,0.8,0.2,0.6,0.4,1,0
,,5e7414b9929931398ae59f02,66fc98b1f6ba0ddc6b0f763b,2024-10-01_21h51.10.674,mdp,2024.2.1,Win32,59.88023952,66fa4ebf79326e780c390304,,,,,,,,,,,,,,,,,,,,,1229.6058,1229.6058,1229.6063,1230.2558,0,0,left,0.133,,1230.2566,1231.0553,0,0,left,1231.0565,1232.0558,1,0,right,1,1232.0559,1232.0559,1232.0567,1233.5546,0,38,38,38,1,0.8,0.2,0.4,0.6,,,,,,,,,,,,,,,0.264,,0.8,0.2,0.6,0.4,0.2,0.8,0.4,0.6,,,0.4671,,0.4,0.6,0.6,0.4,0.8,0.2,0.6,0.4,1,0
,,5e7414b9929931398ae59f02,66fc98b1f6ba0ddc6b0f763b,2024-10-01_21h51.10.674,mdp,2024.2.1,Win32,59.88023952,66fa4ebf79326e780c390304,,,,,,,,,,,,,,,,,,,,,1233.5551,1233.5551,1233.5559,1234.1372,1,0,right,0.0522,,1234.1381,1234.7534,1,1,right,1234.754,1235.9698,1,0,right,1,1235.9699,1235.9699,1235.9705,1237.4689,0,39,39,39,1,0.8,0.2,0.4,0.6,,,,,,,,,,,,,,,0.1022,,0.8,0.2,0.6,0.4,0.2,0.8,0.4,0.6,,,0.6954,,0.4,0.6,0.6,0.4,0.8,0.2,0.6,0.4,1,0
,,5e7414b9929931398ae59f02,66fc98b1f6ba0ddc6b0f763b,2024-10-01_21h51.10.674,mdp,2024.2.1,Win32,59.88023952,66fa4ebf79326e780c390304,,,,,,,,,,,,,,,,,,,,,1237.4696,1237.4696,1237.4704,1238.2518,0,1,left,0.254,,1238.2523,1239.0354,0,1,left,1239.0363,1240.0511,1,0,right,1,1240.0511,1240.0511,1240.0518,1241.5506,0,40,40,40,1,0.8,0.2,0.4,0.6,,,,,,,,,,,,,,,0.2477,,0.8,0.2,0.6,0.4,0.2,0.8,0.4,0.6,,,0.4954,,0.4,0.6,0.6,0.4,0.8,0.2,0.6,0.4,1,0
,,5e7414b9929931398ae59f02,66fc98b1f6ba0ddc6b0f763b,2024-10-01_21h51.10.674,mdp,2024.2.1,Win32,59.88023952,66fa4ebf79326e780c390304,,,,,,,,,,,,,,,,,,,,,1241.5508,1241.5508,1241.5513,1242.2503,0,0,left,0.1668,,1242.251,1243.8497,0,0,left,1243.8504,1245.1496,1,1,right,0,1245.1496,1245.1496,1245.1506,1246.6483,0,41,41,41,1,0.8,0.2,0.4,0.6,,,,,,,,,,,,,,,1.064,,0.8,0.2,0.6,0.4,0.2,0.8,0.4,0.6,,,0.7636,,0.6,0.4,0.4,0.6,0.8,0.2,0.6,0.4,1,0
,,5e7414b9929931398ae59f02,66fc98b1f6ba0ddc6b0f763b,2024-10-01_21h51.10.674,mdp,2024.2.1,Win32,59.88023952,66fa4ebf79326e780c390304,,,,,,,,,,,,,,,,,,,,,1246.6486,1246.6486,1246.6491,1247.4149,1,1,right,0.236,,1247.4158,1248.1313,1,1,right,1248.1322,1249.297,1,0,right,1,1249.297,1249.297,1249.2975,1250.7965,0,42,42,42,1,0.8,0.2,0.4,0.6,,,,,,,,,,,,,,,0.1792,,0.8,0.2,0.6,0.4,0.2,0.8,0.4,0.6,,,0.6339,,0.6,0.4,0.4,0.6,0.8,0.2,0.6,0.4,1,0
,,5e7414b9929931398ae59f02,66fc98b1f6ba0ddc6b0f763b,2024-10-01_21h51.10.674,mdp,2024.2.1,Win32,59.88023952,66fa4ebf79326e780c390304,,,,,,,,,,,,,,,,,,,,,1250.797,1250.797,1250.798,1251.58,0,1,left,0.2513,,1251.581,1252.3624,0,1,left,1252.3633,1253.2788,1,1,right,0,1253.2788,1253.2788,1253.2794,1254.7783,0,43,43,43,1,0.8,0.2,0.4,0.6,,,,,,,,,,,,,,,0.2494,,0.8,0.2,0.6,0.4,0.2,0.8,0.4,0.6,,,0.3884,,0.6,0.4,0.4,0.6,0.8,0.2,0.6,0.4,1,0
,,5e7414b9929931398ae59f02,66fc98b1f6ba0ddc6b0f763b,2024-10-01_21h51.10.674,mdp,2024.2.1,Win32,59.88023952,66fa4ebf79326e780c390304,,,,,,,,,,,,,,,,,,,,,1254.7785,1254.7785,1254.7791,1255.5279,0,0,left,0.2421,,1255.5284,1256.4112,0,0,left,1256.4123,1257.5775,1,1,right,0,1257.5776,1257.5776,1257.5782,1259.0762,0,44,44,44,1,0.8,0.2,0.4,0.6,,,,,,,,,,,,,,,0.3467,,0.8,0.2,0.6,0.4,0.2,0.8,0.4,0.6,,,0.638,,0.6,0.4,0.4,0.6,0.8,0.2,0.6,0.4,1,0
,,5e7414b9929931398ae59f02,66fc98b1f6ba0ddc6b0f763b,2024-10-01_21h51.10.674,mdp,2024.2.1,Win32,59.88023952,66fa4ebf79326e780c390304,,,,,,,,,,,,,,,,,,,,,1259.0765,1259.0765,1259.0769,1259.8758,1,1,right,0.2751,,1259.8765,1260.7089,1,1,right,1260.7099,1261.8251,0,0,left,1,1261.8251,1261.8251,1261.8256,1263.3246,0,45,45,45,1,0.8,0.2,0.4,0.6,,,,,,,,,,,,,,,0.2987,,0.8,0.2,0.6,0.4,0.2,0.8,0.4,0.6,,,0.5984,,0.6,0.4,0.4,0.6,0.8,0.2,0.6,0.4,1,0
,,5e7414b9929931398ae59f02,66fc98b1f6ba0ddc6b0f763b,2024-10-01_21h51.10.674,mdp,2024.2.1,Win32,59.88023952,66fa4ebf79326e780c390304,,,,,,,,,,,,,,,,,,,,,1263.325,1263.325,1263.3259,1264.1909,1,0,right,0.3428,,1264.1917,1264.9575,0,0,left,1264.9582,1265.7399,1,1,right,0,1265.7399,1265.7399,1265.7407,1267.2397,0,46,46,46,1,0.8,0.2,0.4,0.6,,,,,,,,,,,,,,,0.2354,,0.8,0.2,0.6,0.4,0.2,0.8,0.4,0.6,,,0.2576,,0.6,0.4,0.4,0.6,0.8,0.2,0.6,0.4,1,0
,,5e7414b9929931398ae59f02,66fc98b1f6ba0ddc6b0f763b,2024-10-01_21h51.10.674,mdp,2024.2.1,Win32,59.88023952,66fa4ebf79326e780c390304,,,,,,,,,,,,,,,,,,,,,1267.2401,1267.2401,1267.2416,1268.0058,1,0,right,0.2367,,1268.0062,1268.7886,1,0,right,1268.7895,1269.6216,0,1,left,0,1269.6216,1269.6216,1269.6221,1271.1219,0,47,47,47,1,0.8,0.2,0.4,0.6,,,,,,,,,,,,,,,0.2499,,0.8,0.2,0.6,0.4,0.2,0.8,0.4,0.6,,,0.3034,,0.6,0.4,0.4,0.6,0.8,0.2,0.6,0.4,1,0
,,5e7414b9929931398ae59f02,66fc98b1f6ba0ddc6b0f763b,2024-10-01_21h51.10.674,mdp,2024.2.1,Win32,59.88023952,66fa4ebf79326e780c390304,,,,,,,,,,,,,,,,,,,,,1271.1222,1271.1223,1271.123,1271.8373,1,1,right,0.1934,,1271.8382,1272.5872,1,1,right,1272.588,1273.4034,1,1,right,0,1273.4035,1273.4035,1273.4043,1274.9031,0,48,48,48,1,0.8,0.2,0.4,0.6,,,,,,,,,,,,,,,0.2331,,0.8,0.2,0.6,0.4,0.8,0.2,0.2,0.8,,,0.2842,,0.6,0.4,0.4,0.6,0.8,0.2,0.6,0.4,1,0
,,5e7414b9929931398ae59f02,66fc98b1f6ba0ddc6b0f763b,2024-10-01_21h51.10.674,mdp,2024.2.1,Win32,59.88023952,66fa4ebf79326e780c390304,,,,,,,,,,,,,,,,,,,,,1274.9034,1274.9034,1274.9039,1275.669,1,1,right,0.2371,,1275.6695,1276.4187,1,1,right,1276.4194,1277.2182,0,1,left,0,1277.2182,1277.2182,1277.219,1278.7178,0,49,49,49,1,0.4,0.6,0.6,0.4,,,,,,,,,,,,,,,0.2223,,0.8,0.2,0.6,0.4,0.8,0.2,0.2,0.8,,,0.2771,,0.6,0.4,0.4,0.6,0.8,0.2,0.6,0.4,1,0
,,5e7414b9929931398ae59f02,66fc98b1f6ba0ddc6b0f763b,2024-10-01_21h51.10.674,mdp,2024.2.1,Win32,59.88023952,66fa4ebf79326e780c390304,,,,,,,,,,,,,,,,,,,,,,,,,,,,,,,,,,,,,,,,,,,,,,,,,,,,,,,,1278.718,1356.84,0,2,2,7,1,imgs/goat.png,imgs/kangaroo.png,imgs/rabbit.png,imgs/lion.png,imgs/horse.png,,,,,,,,,,,,,,,,,,,,,,,,
,,5e7414b9929931398ae59f02,66fc98b1f6ba0ddc6b0f763b,2024-10-01_21h51.10.674,mdp,2024.2.1,Win32,59.88023952,66fa4ebf79326e780c390304,,,,,,,,,,,,,,3,seqs/st3seq27.csv,1356.8443,1358.3405,space,0.9684,,1358.345,1358.345,1358.346,1359.8373,1,1,right,0.9663,,1359.8382,1360.6371,1,1,right,1360.6377,1361.3749,0,1,left,0,1361.375,1361.375,1361.3761,1362.8711,0,0,0,0,1,0.8,0.2,0.6,0.4,,,,,,,,,,,,,,,0.2835,,0.4,0.6,0.8,0.2,0.8,0.2,0.2,0.8,,,0.2045,,0.6,0.4,0.8,0.2,0.4,0.6,0.4,0.6,1,0
,,5e7414b9929931398ae59f02,66fc98b1f6ba0ddc6b0f763b,2024-10-01_21h51.10.674,mdp,2024.2.1,Win32,59.88023952,66fa4ebf79326e780c390304,,,,,,,,,,,,,,,,,,,,,1362.8722,1362.8722,1362.8736,1363.652,1,0,right,0.2494,,1363.6525,1364.4053,0,1,left,1364.4068,1365.7513,0,1,left,0,1365.7514,1365.7514,1365.7518,1367.2516,0,1,1,1,1,0.8,0.2,0.6,0.4,,,,,,,,,,,,,,,0.2358,,0.4,0.6,0.8,0.2,0.8,0.2,0.2,0.8,,,0.8148,,0.6,0.4,0.8,0.2,0.4,0.6,0.4,0.6,1,0
,,5e7414b9929931398ae59f02,66fc98b1f6ba0ddc6b0f763b,2024-10-01_21h51.10.674,mdp,2024.2.1,Win32,59.88023952,66fa4ebf79326e780c390304,,,,,,,,,,,,,,,,,,,,,1367.2523,1367.2523,1367.2533,1367.9682,0,0,left,0.1838,,1367.9693,1368.7014,0,0,left,1368.7025,1369.5007,1,0,right,1,1369.5008,1369.5008,1369.5019,1371.0004,0,2,2,2,1,0.8,0.2,0.6,0.4,,,,,,,,,,,,,,,0.201,,0.4,0.6,0.8,0.2,0.8,0.2,0.2,0.8,,,0.2671,,0.6,0.4,0.8,0.2,0.4,0.6,0.4,0.6,1,0
,,5e7414b9929931398ae59f02,66fc98b1f6ba0ddc6b0f763b,2024-10-01_21h51.10.674,mdp,2024.2.1,Win32,59.88023952,66fa4ebf79326e780c390304,,,,,,,,,,,,,,,,,,,,,1371.0014,1371.0014,1371.0024,1371.6334,1,0,right,0.1008,,1371.6346,1372.2332,1,0,right,1372.2344,1372.7835,0,1,left,0,1372.7836,1372.7836,1372.7849,1374.2833,0,3,3,3,1,0.8,0.2,0.6,0.4,,,,,,,,,,,,,,,0.0672,,0.4,0.6,0.8,0.2,0.8,0.2,0.2,0.8,,,0.017,,0.6,0.4,0.8,0.2,0.4,0.6,0.4,0.6,1,0
,,5e7414b9929931398ae59f02,66fc98b1f6ba0ddc6b0f763b,2024-10-01_21h51.10.674,mdp,2024.2.1,Win32,59.88023952,66fa4ebf79326e780c390304,,,,,,,,,,,,,,,,,,,,,1374.2839,1374.2839,1374.2852,1374.866,0,0,left,0.0503,,1374.8676,1375.432,1,0,right,1375.4333,1376.1302,0,0,left,1,1376.1304,1376.1304,1376.1308,1377.6311,0,4,4,4,1,0.8,0.2,0.6,0.4,,,,,,,,,,,,,,,0.0335,,0.4,0.6,0.8,0.2,0.8,0.2,0.2,0.8,,,0.1837,,0.6,0.4,0.8,0.2,0.8,0.2,0.2,0.8,1,0
,,5e7414b9929931398ae59f02,66fc98b1f6ba0ddc6b0f763b,2024-10-01_21h51.10.674,mdp,2024.2.1,Win32,59.88023952,66fa4ebf79326e780c390304,,,,,,,,,,,,,,,,,,,,,1377.6316,1377.6316,1377.633,1378.4328,1,0,right,0.2692,,1378.4342,1379.0487,0,0,left,1379.05,1379.7117,1,1,right,0,1379.7118,1379.7118,1379.7122,1381.2121,0,5,5,5,1,0.8,0.2,0.6,0.4,,,,,,,,,,,,,,,0.0852,,0.4,0.6,0.8,0.2,0.8,0.2,0.2,0.8,,,0.1326,,0.6,0.4,0.8,0.2,0.8,0.2,0.2,0.8,1,0
,,5e7414b9929931398ae59f02,66fc98b1f6ba0ddc6b0f763b,2024-10-01_21h51.10.674,mdp,2024.2.1,Win32,59.88023952,66fa4ebf79326e780c390304,,,,,,,,,,,,,,,,,,,,,1381.2127,1381.2127,1381.2137,1381.7637,1,1,right,0.0185,,1381.7652,1382.4489,1,0,right,1382.4503,1383.3954,1,0,right,1,1383.3954,1383.3954,1383.3966,1384.8929,0,6,6,6,1,0.8,0.2,0.6,0.4,,,,,,,,,,,,,,,0.1534,,0.4,0.6,0.8,0.2,0.8,0.2,0.2,0.8,,,0.4173,,0.6,0.4,0.8,0.2,0.8,0.2,0.2,0.8,1,0
,,5e7414b9929931398ae59f02,66fc98b1f6ba0ddc6b0f763b,2024-10-01_21h51.10.674,mdp,2024.2.1,Win32,59.88023952,66fa4ebf79326e780c390304,,,,,,,,,,,,,,,,,,,,,1384.8934,1384.8934,1384.8942,1385.6612,1,1,right,0.2331,,1385.6625,1386.311,1,1,right,1386.3121,1387.0415,1,1,right,0,1387.0415,1387.0415,1387.0419,1388.5428,0,7,7,7,1,0.8,0.2,0.6,0.4,,,,,,,,,,,,,,,0.1175,,0.4,0.6,0.8,0.2,0.8,0.2,0.2,0.8,,,0.1998,,0.6,0.4,0.8,0.2,0.8,0.2,0.2,0.8,1,0
,,5e7414b9929931398ae59f02,66fc98b1f6ba0ddc6b0f763b,2024-10-01_21h51.10.674,mdp,2024.2.1,Win32,59.88023952,66fa4ebf79326e780c390304,,,,,,,,,,,,,,,,,,,,,1388.5433,1388.5433,1388.5443,1389.1927,1,1,right,0.1169,,1389.1937,1390.1236,1,1,right,1390.1241,1391.3904,0,0,left,1,1391.3905,1391.3906,1391.3916,1392.8919,0,8,8,8,1,0.8,0.2,0.6,0.4,,,,,,,,,,,,,,,0.3987,,0.4,0.6,0.8,0.2,0.8,0.2,0.2,0.8,,,0.7487,,0.6,0.4,0.8,0.2,0.8,0.2,0.2,0.8,1,0
,,5e7414b9929931398ae59f02,66fc98b1f6ba0ddc6b0f763b,2024-10-01_21h51.10.674,mdp,2024.2.1,Win32,59.88023952,66fa4ebf79326e780c390304,,,,,,,,,,,,,,,,,,,,,1392.8925,1392.8925,1392.8934,1393.6747,1,1,right,0.2524,,1393.6761,1394.4753,1,0,right,1394.4768,1395.6243,1,0,right,1,1395.6245,1395.6245,1395.6257,1397.1233,0,9,9,9,1,0.8,0.2,0.6,0.4,,,,,,,,,,,,,,,0.2686,,0.4,0.6,0.8,0.2,0.8,0.2,0.2,0.8,,,0.6181,,0.6,0.4,0.8,0.2,0.8,0.2,0.2,0.8,1,0
,,5e7414b9929931398ae59f02,66fc98b1f6ba0ddc6b0f763b,2024-10-01_21h51.10.674,mdp,2024.2.1,Win32,59.88023952,66fa4ebf79326e780c390304,,,,,,,,,,,,,,,,,,,,,1397.1239,1397.1239,1397.1256,1397.9369,1,0,right,0.2833,,1397.9373,1398.6725,1,0,right,1398.6738,1399.7558,1,0,right,1,1399.7559,1399.7559,1399.7571,1401.2545,0,10,10,10,1,0.8,0.2,0.6,0.4,,,,,,,,,,,,,,,0.2176,,0.4,0.6,0.8,0.2,0.8,0.2,0.2,0.8,,,0.5513,,0.6,0.4,0.8,0.2,0.8,0.2,0.2,0.8,1,0
,,5e7414b9929931398ae59f02,66fc98b1f6ba0ddc6b0f763b,2024-10-01_21h51.10.674,mdp,2024.2.1,Win32,59.88023952,66fa4ebf79326e780c390304,,,,,,,,,,,,,,,,,,,,,1401.2553,1401.2553,1401.2566,1402.0042,1,1,right,0.2177,,1402.0056,1402.8381,1,1,right,1402.8395,1404.2705,0,1,left,0,1404.2706,1404.2706,1404.2719,1405.7693,0,11,11,11,1,0.6,0.4,0.2,0.8,,,,,,,,,,,,,,,0.3185,,0.4,0.6,0.8,0.2,0.8,0.2,0.2,0.8,,,0.9012,,0.6,0.4,0.8,0.2,0.8,0.2,0.2,0.8,1,0
,,5e7414b9929931398ae59f02,66fc98b1f6ba0ddc6b0f763b,2024-10-01_21h51.10.674,mdp,2024.2.1,Win32,59.88023952,66fa4ebf79326e780c390304,,,,,,,,,,,,,,,,,,,,,1405.7701,1405.7702,1405.7721,1406.5689,1,1,right,0.268,,1406.5705,1407.2524,1,0,right,1407.2537,1408.5324,1,1,right,0,1408.5324,1408.5324,1408.5329,1410.0333,0,12,12,12,1,0.8,0.2,0.6,0.4,,,,,,,,,,,,,,,0.1509,,0.4,0.6,0.8,0.2,0.8,0.2,0.2,0.8,,,0.7492,,0.6,0.4,0.8,0.2,0.8,0.2,0.2,0.8,1,0
,,5e7414b9929931398ae59f02,66fc98b1f6ba0ddc6b0f763b,2024-10-01_21h51.10.674,mdp,2024.2.1,Win32,59.88023952,66fa4ebf79326e780c390304,,,,,,,,,,,,,,,,,,,,,1410.0337,1410.0337,1410.0352,1410.7829,1,0,right,0.2169,,1410.7841,1411.5996,1,0,right,1411.6005,1412.3981,1,0,right,1,1412.3981,1412.3981,1412.3988,1413.8963,0,13,13,13,1,0.8,0.2,0.6,0.4,,,,,,,,,,,,,,,0.2844,,0.4,0.6,0.8,0.2,0.8,0.2,0.2,0.8,,,0.2656,,0.6,0.4,0.8,0.2,0.8,0.2,0.2,0.8,1,0
,,5e7414b9929931398ae59f02,66fc98b1f6ba0ddc6b0f763b,2024-10-01_21h51.10.674,mdp,2024.2.1,Win32,59.88023952,66fa4ebf79326e780c390304,,,,,,,,,,,,,,,,,,,,,1413.8965,1413.8965,1413.8969,1414.4488,1,1,right,0.0338,,1414.4503,1415.0653,1,1,right,1415.0668,1415.9982,1,1,right,0,1415.9983,1415.9983,1415.9997,1417.497,0,14,14,14,1,0.6,0.4,0.2,0.8,,,,,,,,,,,,,,,0.0844,,0.4,0.6,0.8,0.2,0.8,0.2,0.2,0.8,,,0.4012,,0.6,0.4,0.8,0.2,0.8,0.2,0.2,0.8,1,0
,,5e7414b9929931398ae59f02,66fc98b1f6ba0ddc6b0f763b,2024-10-01_21h51.10.674,mdp,2024.2.1,Win32,59.88023952,66fa4ebf79326e780c390304,,,,,,,,,,,,,,,,,,,,,1417.4976,1417.4977,1417.4992,1418.3318,1,1,right,0.3021,,1418.3334,1418.8786,1,1,right,1418.8791,1419.8609,1,1,right,0,1419.8609,1419.8609,1419.8613,1421.3617,0,15,15,15,1,0.6,0.4,0.2,0.8,,,,,,,,,,,,,,,0.0174,,0.8,0.2,0.6,0.4,0.8,0.2,0.2,0.8,,,0.4504,,0.6,0.4,0.8,0.2,0.8,0.2,0.2,0.8,1,0
,,5e7414b9929931398ae59f02,66fc98b1f6ba0ddc6b0f763b,2024-10-01_21h51.10.674,mdp,2024.2.1,Win32,59.88023952,66fa4ebf79326e780c390304,,,,,,,,,,,,,,,,,,,,,1421.3626,1421.3626,1421.3636,1422.1443,1,1,right,0.2667,,1422.1452,1422.7609,1,1,right,1422.7618,1423.5441,1,1,right,0,1423.5442,1423.5443,1423.5454,1425.0411,0,16,16,16,1,0.6,0.4,0.2,0.8,,,,,,,,,,,,,,,0.1006,,0.8,0.2,0.6,0.4,0.8,0.2,0.2,0.8,,,0.2505,,0.6,0.4,0.8,0.2,0.8,0.2,0.2,0.8,1,0
,,5e7414b9929931398ae59f02,66fc98b1f6ba0ddc6b0f763b,2024-10-01_21h51.10.674,mdp,2024.2.1,Win32,59.88023952,66fa4ebf79326e780c390304,,,,,,,,,,,,,,,,,,,,,1425.0414,1425.0414,1425.0418,1425.7937,1,1,right,0.2337,,1425.796,1426.327,1,1,right,1426.3287,1426.9094,1,1,right,0,1426.9095,1426.9095,1426.9109,1428.4096,0,17,17,17,1,0.6,0.4,0.2,0.8,,,,,,,,,,,,,,,0.001,,0.8,0.2,0.6,0.4,0.8,0.2,0.2,0.8,,,0.0503,,0.6,0.4,0.8,0.2,0.8,0.2,0.2,0.8,1,0
,,5e7414b9929931398ae59f02,66fc98b1f6ba0ddc6b0f763b,2024-10-01_21h51.10.674,mdp,2024.2.1,Win32,59.88023952,66fa4ebf79326e780c390304,,,,,,,,,,,,,,,,,,,,,1428.4102,1428.4102,1428.4117,1429.1264,1,0,right,0.1852,,1429.1278,1429.8233,1,0,right,1429.8237,1430.607,1,0,right,1,1430.607,1430.607,1430.6079,1432.1073,0,18,18,18,1,0.6,0.4,0.2,0.8,,,,,,,,,,,,,,,0.167,,0.8,0.2,0.6,0.4,0.8,0.2,0.2,0.8,,,0.2495,,0.6,0.4,0.8,0.2,0.8,0.2,0.2,0.8,1,0
,,5e7414b9929931398ae59f02,66fc98b1f6ba0ddc6b0f763b,2024-10-01_21h51.10.674,mdp,2024.2.1,Win32,59.88023952,66fa4ebf79326e780c390304,,,,,,,,,,,,,,,,,,,,,1432.1078,1432.1078,1432.1091,1432.9225,1,1,right,0.2835,,1432.9239,1434.3233,0,0,left,1434.3246,1435.3049,0,0,left,1,1435.3051,1435.3051,1435.3062,1436.807,0,19,19,19,1,0.6,0.4,0.2,0.8,,,,,,,,,,,,,,,0.8845,,0.8,0.2,0.6,0.4,0.8,0.2,0.2,0.8,,,0.4494,,0.6,0.4,0.8,0.2,0.8,0.2,0.2,0.8,1,0
,,5e7414b9929931398ae59f02,66fc98b1f6ba0ddc6b0f763b,2024-10-01_21h51.10.674,mdp,2024.2.1,Win32,59.88023952,66fa4ebf79326e780c390304,,,,,,,,,,,,,,,,,,,,,1436.8078,1436.8078,1436.8095,1437.3726,0,1,left,0.0344,,1437.3738,1437.9389,0,0,left,1437.9402,1438.8554,0,0,left,1,1438.8555,1438.8555,1438.8571,1440.3512,0,20,20,20,1,0.6,0.4,0.2,0.8,,,,,,,,,,,,,,,0.0343,,0.8,0.2,0.6,0.4,0.8,0.2,0.2,0.8,,,0.3846,,0.6,0.4,0.8,0.2,0.8,0.2,0.2,0.8,1,0
,,5e7414b9929931398ae59f02,66fc98b1f6ba0ddc6b0f763b,2024-10-01_21h51.10.674,mdp,2024.2.1,Win32,59.88023952,66fa4ebf79326e780c390304,,,,,,,,,,,,,,,,,,,,,1440.3515,1440.3515,1440.3518,1441.1852,0,0,left,0.317,,1441.1856,1442.0509,1,1,right,1442.0514,1442.8523,0,0,left,1,1442.8523,1442.8524,1442.8533,1444.3515,0,21,21,21,1,0.6,0.4,0.2,0.8,,,,,,,,,,,,,,,0.3332,,0.8,0.2,0.6,0.4,0.8,0.2,0.2,0.8,,,0.2842,,0.6,0.4,0.8,0.2,0.8,0.2,0.2,0.8,1,0
,,5e7414b9929931398ae59f02,66fc98b1f6ba0ddc6b0f763b,2024-10-01_21h51.10.674,mdp,2024.2.1,Win32,59.88023952,66fa4ebf79326e780c390304,,,,,,,,,,,,,,,,,,,,,1444.352,1444.352,1444.353,1445.2178,0,0,left,0.3336,,1445.2186,1446.0513,0,0,left,1446.0524,1446.8176,1,0,right,1,1446.8178,1446.8178,1446.8194,1448.3174,0,22,22,22,1,0.6,0.4,0.2,0.8,,,,,,,,,,,,,,,0.3009,,0.8,0.2,0.6,0.4,0.8,0.2,0.2,0.8,,,0.234,,0.8,0.2,0.4,0.6,0.8,0.2,0.2,0.8,1,0
,,5e7414b9929931398ae59f02,66fc98b1f6ba0ddc6b0f763b,2024-10-01_21h51.10.674,mdp,2024.2.1,Win32,59.88023952,66fa4ebf79326e780c390304,,,,,,,,,,,,,,,,,,,,,1448.3181,1448.3181,1448.3201,1449.6999,1,1,right,0.8499,,1449.7015,1450.5647,0,0,left,1450.5651,1451.599,1,0,right,1,1451.5992,1451.5992,1451.6006,1453.097,0,23,23,23,1,0.6,0.4,0.2,0.8,,,,,,,,,,,,,,,0.3329,,0.8,0.2,0.6,0.4,0.8,0.2,0.2,0.8,,,0.5019,,0.2,0.8,0.8,0.2,0.8,0.2,0.2,0.8,1,0
,,5e7414b9929931398ae59f02,66fc98b1f6ba0ddc6b0f763b,2024-10-01_21h51.10.674,mdp,2024.2.1,Win32,59.88023952,66fa4ebf79326e780c390304,,,,,,,,,,,,,,,,,,,,,1453.0979,1453.0979,1453.0987,1462.3934,1,1,right,8.7633,,1462.3942,1463.2279,0,0,left,1463.2292,1464.0415,0,1,left,0,1464.0416,1464.0416,1464.0419,1465.5408,0,24,24,24,1,0.6,0.4,0.2,0.8,,,,,,,,,,,,,,,0.301,,0.8,0.2,0.6,0.4,0.8,0.2,0.2,0.8,,,0.2822,,0.2,0.8,0.8,0.2,0.8,0.2,0.2,0.8,1,0
,,5e7414b9929931398ae59f02,66fc98b1f6ba0ddc6b0f763b,2024-10-01_21h51.10.674,mdp,2024.2.1,Win32,59.88023952,66fa4ebf79326e780c390304,,,,,,,,,,,,,,,,,,,,,1465.5413,1465.5413,1465.5419,1466.375,0,1,left,0.317,,1466.3759,1467.1763,0,0,left,1467.1773,1468.0082,0,1,left,0,1468.0083,1468.0083,1468.0094,1469.5074,0,25,25,25,1,0.6,0.4,0.2,0.8,,,,,,,,,,,,,,,0.2676,,0.8,0.2,0.6,0.4,0.8,0.2,0.2,0.8,,,0.3014,,0.2,0.8,0.8,0.2,0.4,0.6,0.8,0.2,1,0
,,5e7414b9929931398ae59f02,66fc98b1f6ba0ddc6b0f763b,2024-10-01_21h51.10.674,mdp,2024.2.1,Win32,59.88023952,66fa4ebf79326e780c390304,,,,,,,,,,,,,,,,,,,,,1469.508,1469.508,1469.5093,1470.6231,1,0,right,0.5829,,1470.6239,1471.672,1,0,right,1471.6724,1472.673,1,0,right,1,1472.673,1472.673,1472.6736,1474.1712,0,26,26,26,1,0.6,0.4,0.2,0.8,,,,,,,,,,,,,,,0.5163,,0.8,0.2,0.6,0.4,0.8,0.2,0.2,0.8,,,0.4684,,0.2,0.8,0.8,0.2,0.4,0.6,0.8,0.2,1,0
,,5e7414b9929931398ae59f02,66fc98b1f6ba0ddc6b0f763b,2024-10-01_21h51.10.674,mdp,2024.2.1,Win32,59.88023952,66fa4ebf79326e780c390304,,,,,,,,,,,,,,,,,,,,,1474.1719,1474.1719,1474.1731,1475.0873,1,0,right,0.384,,1475.0882,1475.7209,0,1,left,1475.7219,1476.52,0,1,left,0,1476.52,1476.52,1476.5208,1478.019,0,27,27,27,1,0.6,0.4,0.2,0.8,,,,,,,,,,,,,,,0.1007,,0.8,0.2,0.6,0.4,0.8,0.2,0.2,0.8,,,0.2664,,0.2,0.8,0.8,0.2,0.4,0.6,0.8,0.2,1,0
,,5e7414b9929931398ae59f02,66fc98b1f6ba0ddc6b0f763b,2024-10-01_21h51.10.674,mdp,2024.2.1,Win32,59.88023952,66fa4ebf79326e780c390304,,,,,,,,,,,,,,,,,,,,,1478.0193,1478.0194,1478.02,1478.9031,0,0,left,0.3671,,1478.9039,1479.6357,0,0,left,1479.6368,1480.4036,1,0,right,1,1480.4036,1480.4036,1480.4049,1481.9027,0,28,28,28,1,0.6,0.4,0.2,0.8,,,,,,,,,,,,,,,0.2005,,0.8,0.2,0.6,0.4,0.8,0.2,0.2,0.8,,,0.251,,0.2,0.8,0.8,0.2,0.4,0.6,0.8,0.2,1,0
,,5e7414b9929931398ae59f02,66fc98b1f6ba0ddc6b0f763b,2024-10-01_21h51.10.674,mdp,2024.2.1,Win32,59.88023952,66fa4ebf79326e780c390304,,,,,,,,,,,,,,,,,,,,,1481.9036,1481.9036,1481.9046,1482.8003,1,1,right,0.3668,,1482.8009,1483.6017,0,0,left,1483.6027,1484.4011,1,0,right,1,1484.4012,1484.4012,1484.4026,1485.9002,0,29,29,29,1,0.6,0.4,0.2,0.8,,,,,,,,,,,,,,,0.2842,,0.8,0.2,0.6,0.4,0.8,0.2,0.2,0.8,,,0.267,,0.2,0.8,0.8,0.2,0.4,0.6,0.8,0.2,1,0
,,5e7414b9929931398ae59f02,66fc98b1f6ba0ddc6b0f763b,2024-10-01_21h51.10.674,mdp,2024.2.1,Win32,59.88023952,66fa4ebf79326e780c390304,,,,,,,,,,,,,,,,,,,,,1485.901,1485.901,1485.9019,1486.7331,1,1,right,0.3001,,1486.7343,1487.5315,1,0,right,1487.5321,1488.3846,0,1,left,0,1488.3847,1488.3847,1488.3859,1489.8831,0,30,30,30,1,0.6,0.4,0.2,0.8,,,,,,,,,,,,,,,0.2654,,0.8,0.2,0.6,0.4,0.8,0.2,0.2,0.8,,,0.3354,,0.2,0.8,0.8,0.2,0.4,0.6,0.8,0.2,1,0
,,5e7414b9929931398ae59f02,66fc98b1f6ba0ddc6b0f763b,2024-10-01_21h51.10.674,mdp,2024.2.1,Win32,59.88023952,66fa4ebf79326e780c390304,,,,,,,,,,,,,,,,,,,,,1489.8836,1489.8837,1489.8849,1490.8168,0,1,left,0.4022,,1490.8184,1491.6323,0,0,left,1491.6336,1492.4324,1,0,right,1,1492.4325,1492.4325,1492.434,1493.9293,0,31,31,31,1,0.6,0.4,0.2,0.8,,,,,,,,,,,,,,,0.2842,,0.8,0.2,0.6,0.4,0.8,0.2,0.2,0.8,,,0.2683,,0.2,0.8,0.8,0.2,0.4,0.6,0.8,0.2,1,0
,,5e7414b9929931398ae59f02,66fc98b1f6ba0ddc6b0f763b,2024-10-01_21h51.10.674,mdp,2024.2.1,Win32,59.88023952,66fa4ebf79326e780c390304,,,,,,,,,,,,,,,,,,,,,1493.9298,1493.9298,1493.9307,1494.7461,1,1,right,0.2845,,1494.7474,1495.5621,0,0,left,1495.5632,1496.3132,1,0,right,1,1496.3132,1496.3132,1496.3141,1497.8115,0,32,32,32,1,0.6,0.4,0.2,0.8,,,,,,,,,,,,,,,0.2993,,0.6,0.4,0.8,0.2,0.8,0.2,0.2,0.8,,,0.2174,,0.2,0.8,0.8,0.2,0.4,0.6,0.8,0.2,1,0
,,5e7414b9929931398ae59f02,66fc98b1f6ba0ddc6b0f763b,2024-10-01_21h51.10.674,mdp,2024.2.1,Win32,59.88023952,66fa4ebf79326e780c390304,,,,,,,,,,,,,,,,,,,,,1497.8119,1497.8119,1497.813,1498.7443,1,1,right,0.4003,,1498.7453,1499.611,0,0,left,1499.6121,1500.6453,1,0,right,1,1500.6455,1500.6456,1500.6472,1502.1438,0,33,33,33,1,0.6,0.4,0.2,0.8,,,,,,,,,,,,,,,0.3339,,0.6,0.4,0.8,0.2,0.8,0.2,0.2,0.8,,,0.5009,,0.2,0.8,0.8,0.2,0.4,0.6,0.8,0.2,1,0
,,5e7414b9929931398ae59f02,66fc98b1f6ba0ddc6b0f763b,2024-10-01_21h51.10.674,mdp,2024.2.1,Win32,59.88023952,66fa4ebf79326e780c390304,,,,,,,,,,,,,,,,,,,,,1502.1445,1502.1445,1502.1463,1502.9772,0,0,left,0.301,,1502.9783,1503.7912,1,1,right,1503.7917,1505.0238,0,0,left,1,1505.0238,1505.0238,1505.0243,1506.5231,0,34,34,34,1,0.6,0.4,0.2,0.8,,,,,,,,,,,,,,,0.2834,,0.6,0.4,0.8,0.2,0.8,0.2,0.2,0.8,,,0.7148,,0.2,0.8,0.8,0.2,0.4,0.6,0.8,0.2,1,0
,,5e7414b9929931398ae59f02,66fc98b1f6ba0ddc6b0f763b,2024-10-01_21h51.10.674,mdp,2024.2.1,Win32,59.88023952,66fa4ebf79326e780c390304,,,,,,,,,,,,,,,,,,,,,1506.5233,1506.5233,1506.5239,1507.3083,1,0,right,0.2509,,1507.3096,1508.1412,1,1,right,1508.1423,1508.9737,0,1,left,0,1508.9738,1508.9738,1508.9748,1510.4729,0,35,35,35,1,0.6,0.4,0.2,0.8,,,,,,,,,,,,,,,0.3009,,0.6,0.4,0.8,0.2,0.8,0.2,0.2,0.8,,,0.3008,,0.2,0.8,0.8,0.2,0.4,0.6,0.8,0.2,1,0
,,5e7414b9929931398ae59f02,66fc98b1f6ba0ddc6b0f763b,2024-10-01_21h51.10.674,mdp,2024.2.1,Win32,59.88023952,66fa4ebf79326e780c390304,,,,,,,,,,,,,,,,,,,,,1510.4734,1510.4734,1510.4744,1511.3065,0,1,left,0.3005,,1511.3075,1512.1083,0,0,left,1512.1098,1513.2889,1,0,right,1,1513.2889,1513.2889,1513.2901,1514.786,0,36,36,36,1,0.6,0.4,0.2,0.8,,,,,,,,,,,,,,,0.2703,,0.6,0.4,0.8,0.2,0.8,0.2,0.2,0.8,,,0.6508,,0.2,0.8,0.8,0.2,0.4,0.6,0.8,0.2,1,0
,,5e7414b9929931398ae59f02,66fc98b1f6ba0ddc6b0f763b,2024-10-01_21h51.10.674,mdp,2024.2.1,Win32,59.88023952,66fa4ebf79326e780c390304,,,,,,,,,,,,,,,,,,,,,1514.7861,1514.7861,1514.7867,1515.5538,1,1,right,0.2502,,1515.5551,1516.4039,0,0,left,1516.405,1517.5203,1,0,right,1,1517.5203,1517.5203,1517.5212,1519.0186,0,37,37,37,1,0.6,0.4,0.2,0.8,,,,,,,,,,,,,,,0.3175,,0.6,0.4,0.8,0.2,0.8,0.2,0.2,0.8,,,0.5841,,0.4,0.6,0.4,0.6,0.4,0.6,0.8,0.2,1,0
,,5e7414b9929931398ae59f02,66fc98b1f6ba0ddc6b0f763b,2024-10-01_21h51.10.674,mdp,2024.2.1,Win32,59.88023952,66fa4ebf79326e780c390304,,,,,,,,,,,,,,,,,,,,,1519.019,1519.019,1519.0202,1519.8184,1,1,right,0.2665,,1519.8193,1520.6184,1,1,right,1520.6195,1521.6182,1,0,right,1,1521.6184,1521.6184,1521.6195,1523.1179,0,38,38,38,1,0.6,0.4,0.2,0.8,,,,,,,,,,,,,,,0.2666,,0.6,0.4,0.8,0.2,0.8,0.2,0.2,0.8,,,0.4675,,0.4,0.6,0.4,0.6,0.4,0.6,0.8,0.2,1,0
,,5e7414b9929931398ae59f02,66fc98b1f6ba0ddc6b0f763b,2024-10-01_21h51.10.674,mdp,2024.2.1,Win32,59.88023952,66fa4ebf79326e780c390304,,,,,,,,,,,,,,,,,,,,,1523.1188,1523.1189,1523.12,1524.0359,1,1,right,0.3856,,1524.0373,1524.8338,1,1,right,1524.8349,1526.1312,1,0,right,1,1526.1312,1526.1312,1526.1316,1527.6322,0,39,39,39,1,0.6,0.4,0.2,0.8,,,,,,,,,,,,,,,0.2686,,0.6,0.4,0.8,0.2,0.8,0.2,0.2,0.8,,,0.7671,,0.4,0.6,0.4,0.6,0.4,0.6,0.8,0.2,1,0
,,5e7414b9929931398ae59f02,66fc98b1f6ba0ddc6b0f763b,2024-10-01_21h51.10.674,mdp,2024.2.1,Win32,59.88023952,66fa4ebf79326e780c390304,,,,,,,,,,,,,,,,,,,,,1527.6329,1527.633,1527.6341,1528.4813,0,0,left,0.3167,,1528.4823,1529.3813,0,0,left,1529.3824,1530.4297,1,1,right,0,1530.4298,1530.4298,1530.4306,1531.9312,0,40,40,40,1,0.6,0.4,0.2,0.8,,,,,,,,,,,,,,,0.3675,,0.6,0.4,0.8,0.2,0.8,0.2,0.2,0.8,,,0.5329,,0.4,0.6,0.4,0.6,0.4,0.6,0.8,0.2,1,0
,,5e7414b9929931398ae59f02,66fc98b1f6ba0ddc6b0f763b,2024-10-01_21h51.10.674,mdp,2024.2.1,Win32,59.88023952,66fa4ebf79326e780c390304,,,,,,,,,,,,,,,,,,,,,1531.9324,1531.9324,1531.9337,1532.7797,1,0,right,0.3159,,1532.7806,1533.6143,0,0,left,1533.6162,1534.4653,1,1,right,0,1534.4653,1534.4653,1534.4666,1535.96,0,41,41,41,1,0.4,0.6,0.4,0.6,,,,,,,,,,,,,,,0.3015,,0.6,0.4,0.8,0.2,0.8,0.2,0.2,0.8,,,0.3188,,0.4,0.6,0.4,0.6,0.4,0.6,0.8,0.2,1,0
,,5e7414b9929931398ae59f02,66fc98b1f6ba0ddc6b0f763b,2024-10-01_21h51.10.674,mdp,2024.2.1,Win32,59.88023952,66fa4ebf79326e780c390304,,,,,,,,,,,,,,,,,,,,,1535.9601,1535.9601,1535.9606,1536.7955,0,1,left,0.3019,,1536.7972,1537.5969,1,0,right,1537.5982,1538.4117,0,0,left,1,1538.4118,1538.4119,1538.4133,1539.9082,0,42,42,42,1,0.4,0.6,0.4,0.6,,,,,,,,,,,,,,,0.2684,,0.6,0.4,0.8,0.2,0.8,0.2,0.2,0.8,,,0.2835,,0.4,0.6,0.4,0.6,0.4,0.6,0.8,0.2,1,0
,,5e7414b9929931398ae59f02,66fc98b1f6ba0ddc6b0f763b,2024-10-01_21h51.10.674,mdp,2024.2.1,Win32,59.88023952,66fa4ebf79326e780c390304,,,,,,,,,,,,,,,,,,,,,1539.9084,1539.9085,1539.9088,1540.7111,1,1,right,0.2844,,1540.7131,1541.5105,1,1,right,1541.5121,1543.4252,1,0,right,1,1543.4253,1543.4253,1543.4263,1544.9249,0,43,43,43,1,0.4,0.6,0.4,0.6,,,,,,,,,,,,,,,0.2679,,0.4,0.6,0.6,0.4,0.8,0.2,0.2,0.8,,,1.383,,0.4,0.6,0.4,0.6,0.4,0.6,0.8,0.2,1,0
,,5e7414b9929931398ae59f02,66fc98b1f6ba0ddc6b0f763b,2024-10-01_21h51.10.674,mdp,2024.2.1,Win32,59.88023952,66fa4ebf79326e780c390304,,,,,,,,,,,,,,,,,,,,,1544.9257,1544.9257,1544.9275,1545.7753,0,0,left,0.3176,,1545.7766,1546.5722,0,0,left,1546.5727,1547.6392,1,0,right,1,1547.6392,1547.6392,1547.6402,1549.1397,0,44,44,44,1,0.4,0.6,0.4,0.6,,,,,,,,,,,,,,,0.2662,,0.4,0.6,0.6,0.4,0.8,0.2,0.2,0.8,,,0.5494,,0.4,0.6,0.4,0.6,0.4,0.6,0.8,0.2,1,0
,,5e7414b9929931398ae59f02,66fc98b1f6ba0ddc6b0f763b,2024-10-01_21h51.10.674,mdp,2024.2.1,Win32,59.88023952,66fa4ebf79326e780c390304,,,,,,,,,,,,,,,,,,,,,1549.1407,1549.1407,1549.1421,1549.9556,0,1,left,0.2838,,1549.957,1550.7725,0,0,left,1550.7738,1551.7546,1,1,right,0,1551.7546,1551.7546,1551.7561,1553.2543,0,45,45,45,1,0.4,0.6,0.4,0.6,,,,,,,,,,,,,,,0.3008,,0.4,0.6,0.6,0.4,0.8,0.2,0.2,0.8,,,0.4499,,0.4,0.6,0.4,0.6,0.4,0.6,0.8,0.2,1,0
,,5e7414b9929931398ae59f02,66fc98b1f6ba0ddc6b0f763b,2024-10-01_21h51.10.674,mdp,2024.2.1,Win32,59.88023952,66fa4ebf79326e780c390304,,,,,,,,,,,,,,,,,,,,,1553.2552,1553.2552,1553.2566,1554.0716,1,0,right,0.2834,,1554.073,1554.8209,1,0,right,1554.8224,1555.771,1,1,right,0,1555.7712,1555.7712,1555.7725,1557.2673,0,46,46,46,1,0.4,0.6,0.4,0.6,,,,,,,,,,,,,,,0.2174,,0.4,0.6,0.6,0.4,0.8,0.2,0.2,0.8,,,0.418,,0.4,0.6,0.4,0.6,0.4,0.6,0.8,0.2,1,0
,,5e7414b9929931398ae59f02,66fc98b1f6ba0ddc6b0f763b,2024-10-01_21h51.10.674,mdp,2024.2.1,Win32,59.88023952,66fa4ebf79326e780c390304,,,,,,,,,,,,,,,,,,,,,1557.2674,1557.2674,1557.2678,1558.1173,1,1,right,0.3173,,1558.1178,1558.9022,0,0,left,1558.9036,1559.7187,1,0,right,1,1559.7189,1559.7189,1559.7202,1561.2175,0,47,47,47,1,0.4,0.6,0.4,0.6,,,,,,,,,,,,,,,0.2672,,0.4,0.6,0.6,0.4,0.8,0.2,0.2,0.8,,,0.2839,,0.4,0.6,0.4,0.6,0.4,0.6,0.8,0.2,1,0
,,5e7414b9929931398ae59f02,66fc98b1f6ba0ddc6b0f763b,2024-10-01_21h51.10.674,mdp,2024.2.1,Win32,59.88023952,66fa4ebf79326e780c390304,,,,,,,,,,,,,,,,,,,,,1561.2185,1561.2185,1561.2196,1562.0344,1,0,right,0.2846,,1562.036,1562.8672,1,0,right,1562.8683,1563.8331,0,1,left,0,1563.8331,1563.8331,1563.8341,1565.3342,0,48,48,48,1,0.4,0.6,0.4,0.6,,,,,,,,,,,,,,,0.301,,0.4,0.6,0.6,0.4,0.8,0.2,0.2,0.8,,,0.4338,,0.4,0.6,0.4,0.6,0.4,0.6,0.8,0.2,1,0
,,5e7414b9929931398ae59f02,66fc98b1f6ba0ddc6b0f763b,2024-10-01_21h51.10.674,mdp,2024.2.1,Win32,59.88023952,66fa4ebf79326e780c390304,,,,,,,,,,,,,,,,,,,,,1565.3349,1565.3349,1565.3363,1566.0333,0,0,left,0.1687,,1566.0346,1566.8489,0,1,left,1566.8503,1567.6802,1,0,right,1,1567.6802,1567.6802,1567.6807,1569.18,0,49,49,49,1,0.4,0.6,0.4,0.6,,,,,,,,,,,,,,,0.2854,,0.4,0.6,0.6,0.4,0.8,0.2,0.2,0.8,,,0.2999,,0.4,0.6,0.4,0.6,0.4,0.6,0.8,0.2,1,0
,,5e7414b9929931398ae59f02,66fc98b1f6ba0ddc6b0f763b,2024-10-01_21h51.10.674,mdp,2024.2.1,Win32,59.88023952,66fa4ebf79326e780c390304,,,,,,,,,,,,,,,,,,,,,,,,,,,,,,,,,,,,,,,,,,,,,,,,,,,,,,,,1569.1803,1642.0249,0,3,3,3,1,imgs/dog.png,imgs/goat.png,imgs/elephant.png,imgs/rabbit.png,imgs/kangaroo.png,,,,,,,,,,,,,,,,,,,,,,,,
,,5e7414b9929931398ae59f02,66fc98b1f6ba0ddc6b0f763b,2024-10-01_21h51.10.674,mdp,2024.2.1,Win32,59.88023952,66fa4ebf79326e780c390304,,,,,,,,,,,,,,1,seqs/st1seq46.csv,1642.0315,1643.4309,space,0.8818,,1643.435,1643.435,1643.4356,1645.0144,1,0,right,1.051,,1645.0162,1645.0169,0,0,,1645.0175,1645.0181,1,0,,1,1645.0182,1645.0182,1645.0187,1646.5134,0,0,0,0,1,0.4,0.6,0.6,0.4,1,0,,,,,,,,,,,,,,,,,,,,,,,,,,,,,,,,,,,,
,,5e7414b9929931398ae59f02,66fc98b1f6ba0ddc6b0f763b,2024-10-01_21h51.10.674,mdp,2024.2.1,Win32,59.88023952,66fa4ebf79326e780c390304,,,,,,,,,,,,,,,,,,,,,1646.5144,1646.5144,1646.5155,1647.5141,1,0,right,0.4676,,1647.5157,1647.5166,0,0,,1647.5176,1647.5186,1,1,,1,1647.5186,1647.5186,1647.5194,1649.0128,0,1,1,1,1,0.8,0.2,0.8,0.2,1,0,,,,,,,,,,,,,,,,,,,,,,,,,,,,,,,,,,,,
,,5e7414b9929931398ae59f02,66fc98b1f6ba0ddc6b0f763b,2024-10-01_21h51.10.674,mdp,2024.2.1,Win32,59.88023952,66fa4ebf79326e780c390304,,,,,,,,,,,,,,,,,,,,,1649.0135,1649.0136,1649.0146,1649.9133,1,1,right,0.3676,,1649.9149,1649.9156,0,0,,1649.9164,1649.9171,1,0,,0,1649.9172,1649.9172,1649.9179,1651.4125,0,2,2,2,1,0.8,0.2,0.8,0.2,1,0,,,,,,,,,,,,,,,,,,,,,,,,,,,,,,,,,,,,
,,5e7414b9929931398ae59f02,66fc98b1f6ba0ddc6b0f763b,2024-10-01_21h51.10.674,mdp,2024.2.1,Win32,59.88023952,66fa4ebf79326e780c390304,,,,,,,,,,,,,,,,,,,,,1651.4134,1651.4134,1651.4147,1652.2597,1,0,right,0.3156,,1652.2601,1652.2605,0,0,,1652.2607,1652.261,1,0,,1,1652.2611,1652.2611,1652.2612,1653.7611,0,3,3,3,1,0.8,0.2,0.8,0.2,1,0,,,,,,,,,,,,,,,,,,,,,,,,,,,,,,,,,,,,
,,5e7414b9929931398ae59f02,66fc98b1f6ba0ddc6b0f763b,2024-10-01_21h51.10.674,mdp,2024.2.1,Win32,59.88023952,66fa4ebf79326e780c390304,,,,,,,,,,,,,,,,,,,,,1653.762,1653.7621,1653.763,1654.9759,0,0,left,0.6831,,1654.9769,1654.9774,0,0,,1654.9779,1654.9784,1,1,,1,1654.9784,1654.9784,1654.9788,1656.4761,0,4,4,4,1,0.8,0.2,0.8,0.2,1,0,,,,,,,,,,,,,,,,,,,,,,,,,,,,,,,,,,,,
,,5e7414b9929931398ae59f02,66fc98b1f6ba0ddc6b0f763b,2024-10-01_21h51.10.674,mdp,2024.2.1,Win32,59.88023952,66fa4ebf79326e780c390304,,,,,,,,,,,,,,,,,,,,,1656.4768,1656.4768,1656.4778,1657.3426,1,0,right,0.3337,,1657.3438,1657.3448,0,1,,1657.3456,1657.3464,1,0,,1,1657.3465,1657.3465,1657.3471,1658.8405,0,5,5,5,1,0.8,0.2,0.8,0.2,1,0,,,,,,,,,,,,,,,,,,,,,,,,,,,,,,,,,,,,
,,5e7414b9929931398ae59f02,66fc98b1f6ba0ddc6b0f763b,2024-10-01_21h51.10.674,mdp,2024.2.1,Win32,59.88023952,66fa4ebf79326e780c390304,,,,,,,,,,,,,,,,,,,,,1658.841,1658.841,1658.8418,1659.6424,1,0,right,0.2842,,1659.6439,1659.645,0,0,,1659.6458,1659.6465,1,0,,1,1659.6465,1659.6465,1659.6472,1661.141,0,6,6,6,1,0.8,0.2,0.8,0.2,1,0,,,,,,,,,,,,,,,,,,,,,,,,,,,,,,,,,,,,
,,5e7414b9929931398ae59f02,66fc98b1f6ba0ddc6b0f763b,2024-10-01_21h51.10.674,mdp,2024.2.1,Win32,59.88023952,66fa4ebf79326e780c390304,,,,,,,,,,,,,,,,,,,,,1661.1414,1661.1415,1661.1425,1661.9562,0,0,left,0.2833,,1661.9571,1661.9575,0,0,,1661.9581,1661.9586,1,1,,1,1661.9587,1661.9587,1661.9592,1663.4548,0,7,7,7,1,0.8,0.2,0.8,0.2,1,0,,,,,,,,,,,,,,,,,,,,,,,,,,,,,,,,,,,,
,,5e7414b9929931398ae59f02,66fc98b1f6ba0ddc6b0f763b,2024-10-01_21h51.10.674,mdp,2024.2.1,Win32,59.88023952,66fa4ebf79326e780c390304,,,,,,,,,,,,,,,,,,,,,1663.4549,1663.4549,1663.4554,1664.221,1,0,right,0.2338,,1664.2214,1664.2217,0,0,,1664.222,1664.2222,1,0,,1,1664.2222,1664.2222,1664.2224,1665.7204,0,8,8,8,1,0.8,0.2,0.8,0.2,1,0,,,,,,,,,,,,,,,,,,,,,,,,,,,,,,,,,,,,
,,5e7414b9929931398ae59f02,66fc98b1f6ba0ddc6b0f763b,2024-10-01_21h51.10.674,mdp,2024.2.1,Win32,59.88023952,66fa4ebf79326e780c390304,,,,,,,,,,,,,,,,,,,,,1665.7207,1665.7207,1665.721,1666.487,0,0,left,0.2337,,1666.4875,1666.4877,0,0,,1666.4879,1666.4883,1,0,,1,1666.4883,1666.4883,1666.4885,1667.9857,0,9,9,9,1,0.8,0.2,0.8,0.2,1,0,,,,,,,,,,,,,,,,,,,,,,,,,,,,,,,,,,,,
,,5e7414b9929931398ae59f02,66fc98b1f6ba0ddc6b0f763b,2024-10-01_21h51.10.674,mdp,2024.2.1,Win32,59.88023952,66fa4ebf79326e780c390304,,,,,,,,,,,,,,,,,,,,,1667.986,1667.986,1667.9863,1668.7525,1,0,right,0.2337,,1668.753,1668.7533,0,0,,1668.7536,1668.7538,1,0,,1,1668.7538,1668.7538,1668.754,1670.2517,0,10,10,10,1,0.8,0.2,0.8,0.2,1,0,,,,,,,,,,,,,,,,,,,,,,,,,,,,,,,,,,,,
,,5e7414b9929931398ae59f02,66fc98b1f6ba0ddc6b0f763b,2024-10-01_21h51.10.674,mdp,2024.2.1,Win32,59.88023952,66fa4ebf79326e780c390304,,,,,,,,,,,,,,,,,,,,,1670.2519,1670.2519,1670.2524,1671.0016,0,0,left,0.2166,,1671.0021,1671.0024,0,0,,1671.0027,1671.0029,1,1,,1,1671.0029,1671.0029,1671.0032,1672.5003,0,11,11,11,1,0.8,0.2,0.8,0.2,1,0,,,,,,,,,,,,,,,,,,,,,,,,,,,,,,,,,,,,
,,5e7414b9929931398ae59f02,66fc98b1f6ba0ddc6b0f763b,2024-10-01_21h51.10.674,mdp,2024.2.1,Win32,59.88023952,66fa4ebf79326e780c390304,,,,,,,,,,,,,,,,,,,,,1672.5006,1672.5006,1672.5012,1673.3002,1,0,right,0.2665,,1673.3006,1673.3009,0,0,,1673.3012,1673.3013,1,0,,1,1673.3013,1673.3013,1673.3016,1674.8008,0,12,12,12,1,0.8,0.2,0.8,0.2,1,0,,,,,,,,,,,,,,,,,,,,,,,,,,,,,,,,,,,,
,,5e7414b9929931398ae59f02,66fc98b1f6ba0ddc6b0f763b,2024-10-01_21h51.10.674,mdp,2024.2.1,Win32,59.88023952,66fa4ebf79326e780c390304,,,,,,,,,,,,,,,,,,,,,1674.8013,1674.8013,1674.8026,1675.6178,0,0,left,0.2845,,1675.619,1675.6198,0,0,,1675.6206,1675.6212,1,1,,1,1675.6212,1675.6212,1675.6218,1677.1172,0,13,13,13,1,0.8,0.2,0.8,0.2,1,0,,,,,,,,,,,,,,,,,,,,,,,,,,,,,,,,,,,,
,,5e7414b9929931398ae59f02,66fc98b1f6ba0ddc6b0f763b,2024-10-01_21h51.10.674,mdp,2024.2.1,Win32,59.88023952,66fa4ebf79326e780c390304,,,,,,,,,,,,,,,,,,,,,1677.1179,1677.1179,1677.1195,1677.9009,1,1,right,0.251,,1677.9021,1677.9027,0,0,,1677.9033,1677.9037,1,0,,0,1677.9037,1677.9037,1677.9042,1679.3998,0,14,14,14,1,0.8,0.2,0.8,0.2,1,0,,,,,,,,,,,,,,,,,,,,,,,,,,,,,,,,,,,,
,,5e7414b9929931398ae59f02,66fc98b1f6ba0ddc6b0f763b,2024-10-01_21h51.10.674,mdp,2024.2.1,Win32,59.88023952,66fa4ebf79326e780c390304,,,,,,,,,,,,,,,,,,,,,1679.4003,1679.4003,1679.4014,1680.2489,1,1,right,0.317,,1680.2496,1680.2501,0,0,,1680.2507,1680.251,1,1,,0,1680.251,1680.2511,1680.2515,1681.7488,0,15,15,15,1,0.6,0.4,0.2,0.8,1,0,,,,,,,,,,,,,,,,,,,,,,,,,,,,,,,,,,,,
,,5e7414b9929931398ae59f02,66fc98b1f6ba0ddc6b0f763b,2024-10-01_21h51.10.674,mdp,2024.2.1,Win32,59.88023952,66fa4ebf79326e780c390304,,,,,,,,,,,,,,,,,,,,,1681.7493,1681.7493,1681.7503,1682.715,1,1,right,0.434,,1682.7159,1682.7165,0,1,,1682.7169,1682.7173,1,0,,0,1682.7173,1682.7173,1682.7177,1684.2134,0,16,16,16,1,0.6,0.4,0.2,0.8,1,0,,,,,,,,,,,,,,,,,,,,,,,,,,,,,,,,,,,,
,,5e7414b9929931398ae59f02,66fc98b1f6ba0ddc6b0f763b,2024-10-01_21h51.10.674,mdp,2024.2.1,Win32,59.88023952,66fa4ebf79326e780c390304,,,,,,,,,,,,,,,,,,,,,1684.2144,1684.2144,1684.216,1685.0465,0,1,left,0.301,,1685.0471,1685.0475,0,0,,1685.0477,1685.048,1,0,,0,1685.048,1685.048,1685.0482,1686.5463,0,17,17,17,1,0.6,0.4,0.2,0.8,1,0,,,,,,,,,,,,,,,,,,,,,,,,,,,,,,,,,,,,
,,5e7414b9929931398ae59f02,66fc98b1f6ba0ddc6b0f763b,2024-10-01_21h51.10.674,mdp,2024.2.1,Win32,59.88023952,66fa4ebf79326e780c390304,,,,,,,,,,,,,,,,,,,,,1686.5471,1686.5471,1686.5488,1687.3633,1,1,right,0.2843,,1687.365,1687.3657,0,1,,1687.3666,1687.3673,1,1,,0,1687.3674,1687.3674,1687.3681,1688.8621,0,18,18,18,1,0.6,0.4,0.2,0.8,1,0,,,,,,,,,,,,,,,,,,,,,,,,,,,,,,,,,,,,
,,5e7414b9929931398ae59f02,66fc98b1f6ba0ddc6b0f763b,2024-10-01_21h51.10.674,mdp,2024.2.1,Win32,59.88023952,66fa4ebf79326e780c390304,,,,,,,,,,,,,,,,,,,,,1688.8633,1688.8633,1688.8645,1689.696,0,0,left,0.3009,,1689.6977,1689.6984,0,1,,1689.6993,1689.7001,1,0,,1,1689.7001,1689.7001,1689.7008,1691.1953,0,19,19,19,1,0.6,0.4,0.2,0.8,1,0,,,,,,,,,,,,,,,,,,,,,,,,,,,,,,,,,,,,
,,5e7414b9929931398ae59f02,66fc98b1f6ba0ddc6b0f763b,2024-10-01_21h51.10.674,mdp,2024.2.1,Win32,59.88023952,66fa4ebf79326e780c390304,,,,,,,,,,,,,,,,,,,,,1691.1958,1691.1958,1691.1972,1692.0293,0,1,left,0.3024,,1692.0307,1692.0317,0,1,,1692.0328,1692.0336,1,0,,0,1692.0336,1692.0336,1692.0342,1693.5263,0,20,20,20,1,0.6,0.4,0.2,0.8,1,0,,,,,,,,,,,,,,,,,,,,,,,,,,,,,,,,,,,,
,,5e7414b9929931398ae59f02,66fc98b1f6ba0ddc6b0f763b,2024-10-01_21h51.10.674,mdp,2024.2.1,Win32,59.88023952,66fa4ebf79326e780c390304,,,,,,,,,,,,,,,,,,,,,1693.5269,1693.5269,1693.5284,1694.3743,1,1,right,0.3165,,1694.3749,1694.3751,0,0,,1694.3754,1694.3757,1,1,,0,1694.3757,1694.3757,1694.3759,1695.8766,0,21,21,21,1,0.4,0.6,0.8,0.2,1,0,,,,,,,,,,,,,,,,,,,,,,,,,,,,,,,,,,,,
,,5e7414b9929931398ae59f02,66fc98b1f6ba0ddc6b0f763b,2024-10-01_21h51.10.674,mdp,2024.2.1,Win32,59.88023952,66fa4ebf79326e780c390304,,,,,,,,,,,,,,,,,,,,,1695.8775,1695.8775,1695.8794,1696.7097,1,0,right,0.3007,,1696.7111,1696.7119,0,0,,1696.7126,1696.7132,1,0,,1,1696.7132,1696.7132,1696.7138,1698.2075,0,22,22,22,1,0.4,0.6,0.8,0.2,1,0,,,,,,,,,,,,,,,,,,,,,,,,,,,,,,,,,,,,
,,5e7414b9929931398ae59f02,66fc98b1f6ba0ddc6b0f763b,2024-10-01_21h51.10.674,mdp,2024.2.1,Win32,59.88023952,66fa4ebf79326e780c390304,,,,,,,,,,,,,,,,,,,,,1698.2081,1698.2081,1698.2095,1698.9935,0,0,left,0.2526,,1698.9946,1698.9955,0,1,,1698.9963,1698.997,1,0,,1,1698.9971,1698.9971,1698.9978,1700.4896,0,23,23,23,1,0.4,0.6,0.8,0.2,1,0,,,,,,,,,,,,,,,,,,,,,,,,,,,,,,,,,,,,
,,5e7414b9929931398ae59f02,66fc98b1f6ba0ddc6b0f763b,2024-10-01_21h51.10.674,mdp,2024.2.1,Win32,59.88023952,66fa4ebf79326e780c390304,,,,,,,,,,,,,,,,,,,,,1700.4903,1700.4903,1700.4915,1701.3247,1,0,right,0.3182,,1701.3263,1701.3275,0,1,,1701.3285,1701.3292,1,0,,1,1701.3292,1701.3292,1701.33,1702.8226,0,24,24,24,1,0.4,0.6,0.8,0.2,1,0,,,,,,,,,,,,,,,,,,,,,,,,,,,,,,,,,,,,
,,5e7414b9929931398ae59f02,66fc98b1f6ba0ddc6b0f763b,2024-10-01_21h51.10.674,mdp,2024.2.1,Win32,59.88023952,66fa4ebf79326e780c390304,,,,,,,,,,,,,,,,,,,,,1702.8234,1702.8234,1702.8248,1703.6569,0,0,left,0.3017,,1703.6583,1703.6592,0,0,,1703.66,1703.6607,1,1,,1,1703.6608,1703.6608,1703.6614,1705.156,0,25,25,25,1,0.4,0.6,0.8,0.2,1,0,,,,,,,,,,,,,,,,,,,,,,,,,,,,,,,,,,,,
,,5e7414b9929931398ae59f02,66fc98b1f6ba0ddc6b0f763b,2024-10-01_21h51.10.674,mdp,2024.2.1,Win32,59.88023952,66fa4ebf79326e780c390304,,,,,,,,,,,,,,,,,,,,,1705.1565,1705.1565,1705.1583,1705.9387,1,1,right,0.2524,,1705.9399,1705.9407,0,0,,1705.9414,1705.942,1,1,,0,1705.9421,1705.9421,1705.9427,1707.4373,0,26,26,26,1,0.4,0.6,0.8,0.2,1,0,,,,,,,,,,,,,,,,,,,,,,,,,,,,,,,,,,,,
,,5e7414b9929931398ae59f02,66fc98b1f6ba0ddc6b0f763b,2024-10-01_21h51.10.674,mdp,2024.2.1,Win32,59.88023952,66fa4ebf79326e780c390304,,,,,,,,,,,,,,,,,,,,,1707.4381,1707.4381,1707.4394,1708.2541,0,1,left,0.2842,,1708.2559,1708.257,0,1,,1708.2579,1708.2587,1,1,,0,1708.2588,1708.2588,1708.2592,1709.7538,0,27,27,27,1,0.4,0.6,0.8,0.2,1,0,,,,,,,,,,,,,,,,,,,,,,,,,,,,,,,,,,,,
,,5e7414b9929931398ae59f02,66fc98b1f6ba0ddc6b0f763b,2024-10-01_21h51.10.674,mdp,2024.2.1,Win32,59.88023952,66fa4ebf79326e780c390304,,,,,,,,,,,,,,,,,,,,,1709.7545,1709.7546,1709.756,1710.5367,0,0,left,0.2508,,1710.5381,1710.5389,0,0,,1710.5397,1710.5405,1,1,,1,1710.5405,1710.5405,1710.5411,1712.0368,0,28,28,28,1,0.4,0.6,0.8,0.2,1,0,,,,,,,,,,,,,,,,,,,,,,,,,,,,,,,,,,,,
,,5e7414b9929931398ae59f02,66fc98b1f6ba0ddc6b0f763b,2024-10-01_21h51.10.674,mdp,2024.2.1,Win32,59.88023952,66fa4ebf79326e780c390304,,,,,,,,,,,,,,,,,,,,,1712.0373,1712.0373,1712.039,1712.8353,1,0,right,0.2676,,1712.8363,1712.8369,0,0,,1712.8376,1712.838,1,0,,1,1712.8381,1712.8381,1712.8385,1714.3346,0,29,29,29,1,0.4,0.6,0.8,0.2,1,0,,,,,,,,,,,,,,,,,,,,,,,,,,,,,,,,,,,,
,,5e7414b9929931398ae59f02,66fc98b1f6ba0ddc6b0f763b,2024-10-01_21h51.10.674,mdp,2024.2.1,Win32,59.88023952,66fa4ebf79326e780c390304,,,,,,,,,,,,,,,,,,,,,1714.3356,1714.3356,1714.3373,1715.1321,1,1,right,0.2673,,1715.1326,1715.133,0,0,,1715.1332,1715.1334,1,0,,0,1715.1334,1715.1334,1715.1337,1716.6335,0,30,30,30,1,0.4,0.6,0.8,0.2,1,0,,,,,,,,,,,,,,,,,,,,,,,,,,,,,,,,,,,,
,,5e7414b9929931398ae59f02,66fc98b1f6ba0ddc6b0f763b,2024-10-01_21h51.10.674,mdp,2024.2.1,Win32,59.88023952,66fa4ebf79326e780c390304,,,,,,,,,,,,,,,,,,,,,1716.6344,1716.6345,1716.6357,1717.3671,1,0,right,0.2006,,1717.3683,1717.3691,0,0,,1717.37,1717.3706,1,0,,1,1717.3706,1717.3706,1717.3713,1718.866,0,31,31,31,1,0.4,0.6,0.8,0.2,1,0,,,,,,,,,,,,,,,,,,,,,,,,,,,,,,,,,,,,
,,5e7414b9929931398ae59f02,66fc98b1f6ba0ddc6b0f763b,2024-10-01_21h51.10.674,mdp,2024.2.1,Win32,59.88023952,66fa4ebf79326e780c390304,,,,,,,,,,,,,,,,,,,,,1718.8669,1718.8669,1718.8683,1719.6831,0,0,left,0.2843,,1719.6845,1719.6854,0,1,,1719.6863,1719.6871,1,0,,1,1719.6872,1719.6872,1719.6878,1721.1815,0,32,32,32,1,0.4,0.6,0.8,0.2,1,0,,,,,,,,,,,,,,,,,,,,,,,,,,,,,,,,,,,,
,,5e7414b9929931398ae59f02,66fc98b1f6ba0ddc6b0f763b,2024-10-01_21h51.10.674,mdp,2024.2.1,Win32,59.88023952,66fa4ebf79326e780c390304,,,,,,,,,,,,,,,,,,,,,1721.1823,1721.1823,1721.1836,1721.9487,1,0,right,0.2347,,1721.9497,1721.9507,0,0,,1721.9514,1721.9519,1,0,,1,1721.9519,1721.9519,1721.9525,1723.4473,0,33,33,33,1,0.4,0.6,0.8,0.2,1,0,,,,,,,,,,,,,,,,,,,,,,,,,,,,,,,,,,,,
,,5e7414b9929931398ae59f02,66fc98b1f6ba0ddc6b0f763b,2024-10-01_21h51.10.674,mdp,2024.2.1,Win32,59.88023952,66fa4ebf79326e780c390304,,,,,,,,,,,,,,,,,,,,,1723.4484,1723.4484,1723.4499,1724.2142,0,0,left,0.2339,,1724.2157,1724.2165,0,0,,1724.2174,1724.2182,1,1,,1,1724.2182,1724.2182,1724.2189,1725.7124,0,34,34,34,1,0.8,0.2,0.2,0.8,1,0,,,,,,,,,,,,,,,,,,,,,,,,,,,,,,,,,,,,
,,5e7414b9929931398ae59f02,66fc98b1f6ba0ddc6b0f763b,2024-10-01_21h51.10.674,mdp,2024.2.1,Win32,59.88023952,66fa4ebf79326e780c390304,,,,,,,,,,,,,,,,,,,,,1725.7132,1725.7133,1725.7145,1726.461,1,0,right,0.217,,1726.4615,1726.4623,0,0,,1726.463,1726.4635,1,0,,1,1726.4635,1726.4635,1726.464,1727.9614,0,35,35,35,1,0.2,0.8,0.8,0.2,1,0,,,,,,,,,,,,,,,,,,,,,,,,,,,,,,,,,,,,
,,5e7414b9929931398ae59f02,66fc98b1f6ba0ddc6b0f763b,2024-10-01_21h51.10.674,mdp,2024.2.1,Win32,59.88023952,66fa4ebf79326e780c390304,,,,,,,,,,,,,,,,,,,,,1727.9621,1727.9621,1727.9636,1728.7464,0,1,left,0.252,,1728.748,1728.7492,0,1,,1728.7502,1728.7512,1,1,,0,1728.7513,1728.7513,1728.7522,1730.2449,0,36,36,36,1,0.2,0.8,0.8,0.2,1,0,,,,,,,,,,,,,,,,,,,,,,,,,,,,,,,,,,,,
,,5e7414b9929931398ae59f02,66fc98b1f6ba0ddc6b0f763b,2024-10-01_21h51.10.674,mdp,2024.2.1,Win32,59.88023952,66fa4ebf79326e780c390304,,,,,,,,,,,,,,,,,,,,,1730.2456,1730.2456,1730.2468,1731.0451,1,0,right,0.268,,1731.0466,1731.0473,0,1,,1731.0481,1731.0488,1,0,,1,1731.0489,1731.0489,1731.0495,1732.5444,0,37,37,37,1,0.2,0.8,0.8,0.2,1,0,,,,,,,,,,,,,,,,,,,,,,,,,,,,,,,,,,,,
,,5e7414b9929931398ae59f02,66fc98b1f6ba0ddc6b0f763b,2024-10-01_21h51.10.674,mdp,2024.2.1,Win32,59.88023952,66fa4ebf79326e780c390304,,,,,,,,,,,,,,,,,,,,,1732.5453,1732.5454,1732.5468,1733.3603,0,1,left,0.2843,,1733.3616,1733.3624,0,1,,1733.363,1733.3636,1,1,,0,1733.3636,1733.3636,1733.3643,1734.8591,0,38,38,38,1,0.2,0.8,0.8,0.2,1,0,,,,,,,,,,,,,,,,,,,,,,,,,,,,,,,,,,,,
