init_exp.started,init_exp.stopped,participant,session,date,expName,psychopyVersion,OS,frameRate,study_id,disp_instruction.started,disp_instruction.stopped,instruction.thisRepN,instruction.thisTrialN,instruction.thisN,instruction.thisIndex,instruction.ran,instimg_path,consent.started,consent.stopped,key_resp_3.keys,key_resp_3.rt,key_resp_3.duration,n_steps,sequence_path,init_block.started,init_block.stopped,key_resp.keys,key_resp.rt,key_resp.duration,init_trials.started,init_trials.stopped,step0.started,step0.stopped,act0,s1,res0.keys,res0.rt,res0.duration,step1.started,step1.stopped,act1,s2,res1.keys,step2.started,step2.stopped,act2,s3,res2.keys,rew,reward_comp.started,reward_comp.stopped,reward_disp.started,reward_disp.stopped,trials.thisRepN,trials.thisTrialN,trials.thisN,trials.thisIndex,trials.ran,s00a0s10,s00a0s11,s00a1s10,s00a1s11,rew10,rew11,break_block.started,break_block.stopped,block.thisRepN,block.thisTrialN,block.thisN,block.thisIndex,block.ran,s00path,s10path,s11path,s20path,s21path,res1.rt,res1.duration,s10a0s20,s10a0s21,s10a1s20,s10a1s21,s11a0s20,s11a0s21,s11a1s20,s11a1s21,rew20,rew21,res2.rt,res2.duration,s20a0s30,s20a0s31,s20a1s30,s20a1s31,s21a0s30,s21a0s31,s21a1s30,s21a1s31,rew30,rew31
0.0006,0.0072,5e9fd839311b8018f88c99eb,66fc990c18cc4e2caba97e02,2024-10-02_02h52.58.945,mdp,2024.2.1,Win32,59.52380952,66fa4ebf79326e780c390304,,,,,,,,,,,,,,,,,,,,,,,,,,,,,,,,,,,,,,,,,,,,,,,,,,,,,,,,,,,,,,,,,,,,,,,,,,,,,,,,,,,,,,,,,,,
,,5e9fd839311b8018f88c99eb,66fc990c18cc4e2caba97e02,2024-10-02_02h52.58.945,mdp,2024.2.1,Win32,59.52380952,66fa4ebf79326e780c390304,0.0214,64.5315,0,0,0,0,1,rlnn_exp/rlnn_exp.001.png,,,,,,,,,,,,,,,,,,,,,,,,,,,,,,,,,,,,,,,,,,,,,,,,,,,,,,,,,,,,,,,,,,,,,,,,,,,,,,,,,,,
,,5e9fd839311b8018f88c99eb,66fc990c18cc4e2caba97e02,2024-10-02_02h52.58.945,mdp,2024.2.1,Win32,59.52380952,66fa4ebf79326e780c390304,64.5337,79.5098,0,1,1,1,1,rlnn_exp/rlnn_exp.002.png,,,,,,,,,,,,,,,,,,,,,,,,,,,,,,,,,,,,,,,,,,,,,,,,,,,,,,,,,,,,,,,,,,,,,,,,,,,,,,,,,,,
,,5e9fd839311b8018f88c99eb,66fc990c18cc4e2caba97e02,2024-10-02_02h52.58.945,mdp,2024.2.1,Win32,59.52380952,66fa4ebf79326e780c390304,79.5119,102.5271,0,2,2,2,1,rlnn_exp/rlnn_exp.003.png,,,,,,,,,,,,,,,,,,,,,,,,,,,,,,,,,,,,,,,,,,,,,,,,,,,,,,,,,,,,,,,,,,,,,,,,,,,,,,,,,,,
,,5e9fd839311b8018f88c99eb,66fc990c18cc4e2caba97e02,2024-10-02_02h52.58.945,mdp,2024.2.1,Win32,59.52380952,66fa4ebf79326e780c390304,102.529,115.9784,0,3,3,3,1,rlnn_exp/rlnn_exp.004.png,,,,,,,,,,,,,,,,,,,,,,,,,,,,,,,,,,,,,,,,,,,,,,,,,,,,,,,,,,,,,,,,,,,,,,,,,,,,,,,,,,,
,,5e9fd839311b8018f88c99eb,66fc990c18cc4e2caba97e02,2024-10-02_02h52.58.945,mdp,2024.2.1,Win32,59.52380952,66fa4ebf79326e780c390304,,,,,,,,,115.9802,166.0921,y,40.0743,,,,,,,,,,,,,,,,,,,,,,,,,,,,,,,,,,,,,,,,,,,,,,,,,,,,,,,,,,,,,,,,,,,,,,,,,,,,,,,
,,5e9fd839311b8018f88c99eb,66fc990c18cc4e2caba97e02,2024-10-02_02h52.58.945,mdp,2024.2.1,Win32,59.52380952,66fa4ebf79326e780c390304,,,,,,,,,,,,,,1,seqs/st1seq43.csv,166.1051,168.1921,space,1.5689,,168.2019,168.2022,168.2031,171.3768,1,1,right,2.6324,,171.3784,171.384,,1,,171.3855,171.3942,,1,,0,171.3945,171.3949,171.3959,172.8927,0,0,0,0,1,0.8,0.2,0.4,0.6,1,0,,,,,,,,,,,,,,,,,,,,,,,,,,,,,,,,,,,,
,,5e9fd839311b8018f88c99eb,66fc990c18cc4e2caba97e02,2024-10-02_02h52.58.945,mdp,2024.2.1,Win32,59.52380952,66fa4ebf79326e780c390304,,,,,,,,,,,,,,,,,,,,,172.8939,172.8941,172.8968,175.2078,1,0,right,1.7851,,175.2115,175.2135,,0,,175.2157,175.2178,,0,,1,175.218,175.218,175.22,176.7086,0,1,1,1,1,0.8,0.2,0.4,0.6,1,0,,,,,,,,,,,,,,,,,,,,,,,,,,,,,,,,,,,,
,,5e9fd839311b8018f88c99eb,66fc990c18cc4e2caba97e02,2024-10-02_02h52.58.945,mdp,2024.2.1,Win32,59.52380952,66fa4ebf79326e780c390304,,,,,,,,,,,,,,,,,,,,,176.7094,176.7096,176.7132,178.8911,1,1,right,1.6533,,178.8948,178.8968,,0,,178.899,178.901,,1,,0,178.9012,178.9012,178.903,180.3906,0,2,2,2,1,0.8,0.2,0.4,0.6,1,0,,,,,,,,,,,,,,,,,,,,,,,,,,,,,,,,,,,,
,,5e9fd839311b8018f88c99eb,66fc990c18cc4e2caba97e02,2024-10-02_02h52.58.945,mdp,2024.2.1,Win32,59.52380952,66fa4ebf79326e780c390304,,,,,,,,,,,,,,,,,,,,,180.3919,180.3921,180.3954,182.3934,1,1,right,1.4746,,182.3961,182.398,,0,,182.4,182.4019,,1,,0,182.402,182.4021,182.4039,183.8908,0,3,3,3,1,0.8,0.2,0.4,0.6,1,0,,,,,,,,,,,,,,,,,,,,,,,,,,,,,,,,,,,,
,,5e9fd839311b8018f88c99eb,66fc990c18cc4e2caba97e02,2024-10-02_02h52.58.945,mdp,2024.2.1,Win32,59.52380952,66fa4ebf79326e780c390304,,,,,,,,,,,,,,,,,,,,,183.8922,183.8924,183.8957,184.8757,1,1,right,0.4511,,184.8785,184.8805,,1,,184.8825,184.8852,,1,,0,184.8854,184.8854,184.8873,186.3749,0,4,4,4,1,0.8,0.2,0.4,0.6,1,0,,,,,,,,,,,,,,,,,,,,,,,,,,,,,,,,,,,,
,,5e9fd839311b8018f88c99eb,66fc990c18cc4e2caba97e02,2024-10-02_02h52.58.945,mdp,2024.2.1,Win32,59.52380952,66fa4ebf79326e780c390304,,,,,,,,,,,,,,,,,,,,,186.3764,186.3765,186.3802,186.9747,1,1,right,0.0679,,186.9779,186.9797,,1,,186.9817,186.9837,,0,,0,186.9839,186.9839,186.9857,188.474,0,5,5,5,1,0.8,0.2,0.4,0.6,1,0,,,,,,,,,,,,,,,,,,,,,,,,,,,,,,,,,,,,
,,5e9fd839311b8018f88c99eb,66fc990c18cc4e2caba97e02,2024-10-02_02h52.58.945,mdp,2024.2.1,Win32,59.52380952,66fa4ebf79326e780c390304,,,,,,,,,,,,,,,,,,,,,188.4754,188.4756,188.4789,190.3927,1,1,right,1.3882,,190.3957,190.3977,,0,,190.3999,190.4019,,0,,0,190.402,190.402,190.405,191.8906,0,6,6,6,1,0.8,0.2,0.4,0.6,1,0,,,,,,,,,,,,,,,,,,,,,,,,,,,,,,,,,,,,
,,5e9fd839311b8018f88c99eb,66fc990c18cc4e2caba97e02,2024-10-02_02h52.58.945,mdp,2024.2.1,Win32,59.52380952,66fa4ebf79326e780c390304,,,,,,,,,,,,,,,,,,,,,191.8917,191.8919,191.8954,193.4088,1,0,right,0.9849,,193.4117,193.4135,,1,,193.4156,193.4174,,1,,1,193.4175,193.4176,193.4193,194.9074,0,7,7,7,1,0.8,0.2,0.4,0.6,1,0,,,,,,,,,,,,,,,,,,,,,,,,,,,,,,,,,,,,
,,5e9fd839311b8018f88c99eb,66fc990c18cc4e2caba97e02,2024-10-02_02h52.58.945,mdp,2024.2.1,Win32,59.52380952,66fa4ebf79326e780c390304,,,,,,,,,,,,,,,,,,,,,194.9086,194.9087,194.9118,195.5262,1,0,right,0.085,,195.5287,195.5305,,1,,195.5328,195.5346,,1,,1,195.5347,195.5349,195.5366,197.0253,0,8,8,8,1,0.8,0.2,0.4,0.6,1,0,,,,,,,,,,,,,,,,,,,,,,,,,,,,,,,,,,,,
,,5e9fd839311b8018f88c99eb,66fc990c18cc4e2caba97e02,2024-10-02_02h52.58.945,mdp,2024.2.1,Win32,59.52380952,66fa4ebf79326e780c390304,,,,,,,,,,,,,,,,,,,,,197.0264,197.0265,197.0296,200.1078,1,1,right,2.5506,,200.1111,200.1133,,1,,200.1154,200.1172,,0,,0,200.1173,200.1173,200.1192,201.625,0,9,9,9,1,0.8,0.2,0.4,0.6,1,0,,,,,,,,,,,,,,,,,,,,,,,,,,,,,,,,,,,,
,,5e9fd839311b8018f88c99eb,66fc990c18cc4e2caba97e02,2024-10-02_02h52.58.945,mdp,2024.2.1,Win32,59.52380952,66fa4ebf79326e780c390304,,,,,,,,,,,,,,,,,,,,,201.6268,201.6268,201.6302,203.4603,1,0,right,1.3043,,203.4638,203.4657,,1,,203.4678,203.4698,,0,,1,203.4699,203.4699,203.4751,204.9586,0,10,10,10,1,0.8,0.2,0.4,0.6,1,0,,,,,,,,,,,,,,,,,,,,,,,,,,,,,,,,,,,,
,,5e9fd839311b8018f88c99eb,66fc990c18cc4e2caba97e02,2024-10-02_02h52.58.945,mdp,2024.2.1,Win32,59.52380952,66fa4ebf79326e780c390304,,,,,,,,,,,,,,,,,,,,,204.9596,204.9597,204.9623,205.5408,1,0,right,0.0522,,205.5441,205.5461,,1,,205.5482,205.5501,,0,,1,205.5502,205.5503,205.5521,207.041,0,11,11,11,1,0.8,0.2,0.4,0.6,1,0,,,,,,,,,,,,,,,,,,,,,,,,,,,,,,,,,,,,
,,5e9fd839311b8018f88c99eb,66fc990c18cc4e2caba97e02,2024-10-02_02h52.58.945,mdp,2024.2.1,Win32,59.52380952,66fa4ebf79326e780c390304,,,,,,,,,,,,,,,,,,,,,207.0429,207.043,207.0472,207.7596,1,0,right,0.1929,,207.7638,207.7658,,1,,207.7684,207.774,,0,,1,207.7741,207.7741,207.7765,209.2736,0,12,12,12,1,0.8,0.2,0.4,0.6,1,0,,,,,,,,,,,,,,,,,,,,,,,,,,,,,,,,,,,,
,,5e9fd839311b8018f88c99eb,66fc990c18cc4e2caba97e02,2024-10-02_02h52.58.945,mdp,2024.2.1,Win32,59.52380952,66fa4ebf79326e780c390304,,,,,,,,,,,,,,,,,,,,,209.2749,209.275,209.2778,211.2075,1,0,right,1.4011,,211.2104,211.2123,,1,,211.2145,211.2165,,1,,1,211.2166,211.2167,211.2189,212.7077,0,13,13,13,1,0.8,0.2,0.4,0.6,1,0,,,,,,,,,,,,,,,,,,,,,,,,,,,,,,,,,,,,
,,5e9fd839311b8018f88c99eb,66fc990c18cc4e2caba97e02,2024-10-02_02h52.58.945,mdp,2024.2.1,Win32,59.52380952,66fa4ebf79326e780c390304,,,,,,,,,,,,,,,,,,,,,212.7088,212.7088,212.7117,215.2755,1,0,right,2.0511,,215.2781,215.2798,,0,,215.2818,215.2836,,1,,1,215.2837,215.2837,215.2854,216.7737,0,14,14,14,1,0.8,0.2,0.4,0.6,1,0,,,,,,,,,,,,,,,,,,,,,,,,,,,,,,,,,,,,
,,5e9fd839311b8018f88c99eb,66fc990c18cc4e2caba97e02,2024-10-02_02h52.58.945,mdp,2024.2.1,Win32,59.52380952,66fa4ebf79326e780c390304,,,,,,,,,,,,,,,,,,,,,216.7746,216.7747,216.7772,217.3091,1,1,right,0.0011,,217.3123,217.3146,,1,,217.3166,217.3183,,1,,0,217.3184,217.3185,217.3214,218.807,0,15,15,15,1,0.8,0.2,0.4,0.6,1,0,,,,,,,,,,,,,,,,,,,,,,,,,,,,,,,,,,,,
,,5e9fd839311b8018f88c99eb,66fc990c18cc4e2caba97e02,2024-10-02_02h52.58.945,mdp,2024.2.1,Win32,59.52380952,66fa4ebf79326e780c390304,,,,,,,,,,,,,,,,,,,,,218.8084,218.8084,218.8113,219.5587,1,1,right,0.2175,,219.5618,219.5637,,1,,219.5661,219.5683,,1,,0,219.5684,219.5684,219.5713,221.0579,0,16,16,16,1,0.8,0.2,0.4,0.6,1,0,,,,,,,,,,,,,,,,,,,,,,,,,,,,,,,,,,,,
,,5e9fd839311b8018f88c99eb,66fc990c18cc4e2caba97e02,2024-10-02_02h52.58.945,mdp,2024.2.1,Win32,59.52380952,66fa4ebf79326e780c390304,,,,,,,,,,,,,,,,,,,,,221.0589,221.0591,221.0613,221.642,1,0,right,0.0539,,221.6451,221.6469,,1,,221.6491,221.651,,1,,1,221.651,221.651,221.653,223.1405,0,17,17,17,1,0.8,0.2,0.4,0.6,1,0,,,,,,,,,,,,,,,,,,,,,,,,,,,,,,,,,,,,
,,5e9fd839311b8018f88c99eb,66fc990c18cc4e2caba97e02,2024-10-02_02h52.58.945,mdp,2024.2.1,Win32,59.52380952,66fa4ebf79326e780c390304,,,,,,,,,,,,,,,,,,,,,223.1415,223.1417,223.1443,225.1917,1,1,right,1.5177,,225.195,225.1967,,0,,225.1997,225.2013,,1,,0,225.2014,225.2015,225.2055,226.6914,0,18,18,18,1,0.8,0.2,0.4,0.6,1,0,,,,,,,,,,,,,,,,,,,,,,,,,,,,,,,,,,,,
,,5e9fd839311b8018f88c99eb,66fc990c18cc4e2caba97e02,2024-10-02_02h52.58.945,mdp,2024.2.1,Win32,59.52380952,66fa4ebf79326e780c390304,,,,,,,,,,,,,,,,,,,,,226.6921,226.6921,226.6953,227.2249,1,1,right,0.0024,,227.2279,227.2296,,0,,227.2318,227.2336,,0,,0,227.2338,227.2338,227.2356,228.724,0,19,19,19,1,0.4,0.6,0.6,0.4,1,0,,,,,,,,,,,,,,,,,,,,,,,,,,,,,,,,,,,,
,,5e9fd839311b8018f88c99eb,66fc990c18cc4e2caba97e02,2024-10-02_02h52.58.945,mdp,2024.2.1,Win32,59.52380952,66fa4ebf79326e780c390304,,,,,,,,,,,,,,,,,,,,,228.725,228.7251,228.7278,229.2906,1,1,right,0.0349,,229.2941,229.2967,,0,,229.2988,229.3007,,1,,0,229.3007,229.3008,229.3025,230.7895,0,20,20,20,1,0.4,0.6,0.6,0.4,1,0,,,,,,,,,,,,,,,,,,,,,,,,,,,,,,,,,,,,
,,5e9fd839311b8018f88c99eb,66fc990c18cc4e2caba97e02,2024-10-02_02h52.58.945,mdp,2024.2.1,Win32,59.52380952,66fa4ebf79326e780c390304,,,,,,,,,,,,,,,,,,,,,230.7916,230.7916,230.7944,231.7582,1,1,right,0.4359,,231.7611,231.7629,,1,,231.7649,231.7667,,0,,0,231.7668,231.7668,231.7688,233.2575,0,21,21,21,1,0.4,0.6,0.6,0.4,1,0,,,,,,,,,,,,,,,,,,,,,,,,,,,,,,,,,,,,
,,5e9fd839311b8018f88c99eb,66fc990c18cc4e2caba97e02,2024-10-02_02h52.58.945,mdp,2024.2.1,Win32,59.52380952,66fa4ebf79326e780c390304,,,,,,,,,,,,,,,,,,,,,233.2584,233.2585,233.2612,233.9088,1,0,right,0.1162,,233.9112,233.913,,1,,233.915,233.9171,,0,,1,233.9172,233.9172,233.9196,235.4079,0,22,22,22,1,0.8,0.2,0.2,0.8,1,0,,,,,,,,,,,,,,,,,,,,,,,,,,,,,,,,,,,,
,,5e9fd839311b8018f88c99eb,66fc990c18cc4e2caba97e02,2024-10-02_02h52.58.945,mdp,2024.2.1,Win32,59.52380952,66fa4ebf79326e780c390304,,,,,,,,,,,,,,,,,,,,,235.4092,235.4093,235.4118,237.6572,1,0,right,1.7329,,237.6601,237.6621,,0,,237.6642,237.6659,,1,,1,237.6659,237.666,237.6677,239.1566,0,23,23,23,1,0.8,0.2,0.2,0.8,1,0,,,,,,,,,,,,,,,,,,,,,,,,,,,,,,,,,,,,
,,5e9fd839311b8018f88c99eb,66fc990c18cc4e2caba97e02,2024-10-02_02h52.58.945,mdp,2024.2.1,Win32,59.52380952,66fa4ebf79326e780c390304,,,,,,,,,,,,,,,,,,,,,239.1578,239.1579,239.1608,241.0417,1,1,right,1.3513,,241.0444,241.0461,,1,,241.0481,241.0498,,0,,0,241.0499,241.0499,241.0516,242.5402,0,24,24,24,1,0.8,0.2,0.2,0.8,1,0,,,,,,,,,,,,,,,,,,,,,,,,,,,,,,,,,,,,
,,5e9fd839311b8018f88c99eb,66fc990c18cc4e2caba97e02,2024-10-02_02h52.58.945,mdp,2024.2.1,Win32,59.52380952,66fa4ebf79326e780c390304,,,,,,,,,,,,,,,,,,,,,242.5415,242.5417,242.5446,244.0403,1,0,right,0.9693,,244.0439,244.0458,,1,,244.0479,244.0497,,1,,1,244.0498,244.0498,244.0524,245.5405,0,25,25,25,1,0.8,0.2,0.2,0.8,1,0,,,,,,,,,,,,,,,,,,,,,,,,,,,,,,,,,,,,
,,5e9fd839311b8018f88c99eb,66fc990c18cc4e2caba97e02,2024-10-02_02h52.58.945,mdp,2024.2.1,Win32,59.52380952,66fa4ebf79326e780c390304,,,,,,,,,,,,,,,,,,,,,245.5415,245.5418,245.5445,246.2247,1,1,right,0.1498,,246.2276,246.2293,,1,,246.2313,246.2329,,1,,0,246.233,246.2331,246.2349,247.7231,0,26,26,26,1,0.8,0.2,0.2,0.8,1,0,,,,,,,,,,,,,,,,,,,,,,,,,,,,,,,,,,,,
,,5e9fd839311b8018f88c99eb,66fc990c18cc4e2caba97e02,2024-10-02_02h52.58.945,mdp,2024.2.1,Win32,59.52380952,66fa4ebf79326e780c390304,,,,,,,,,,,,,,,,,,,,,247.7244,247.7244,247.7271,248.9568,1,1,right,0.7017,,248.96,248.9618,,1,,248.9641,248.9658,,1,,0,248.9659,248.966,248.9676,250.4574,0,27,27,27,1,0.8,0.2,0.2,0.8,1,0,,,,,,,,,,,,,,,,,,,,,,,,,,,,,,,,,,,,
,,5e9fd839311b8018f88c99eb,66fc990c18cc4e2caba97e02,2024-10-02_02h52.58.945,mdp,2024.2.1,Win32,59.52380952,66fa4ebf79326e780c390304,,,,,,,,,,,,,,,,,,,,,250.4588,250.4589,250.4612,251.0422,1,1,right,0.0527,,251.0454,251.0474,,1,,251.0499,251.0518,,1,,0,251.0519,251.0519,251.0567,252.5411,0,28,28,28,1,0.8,0.2,0.2,0.8,1,0,,,,,,,,,,,,,,,,,,,,,,,,,,,,,,,,,,,,
,,5e9fd839311b8018f88c99eb,66fc990c18cc4e2caba97e02,2024-10-02_02h52.58.945,mdp,2024.2.1,Win32,59.52380952,66fa4ebf79326e780c390304,,,,,,,,,,,,,,,,,,,,,252.5418,252.5419,252.5448,253.7751,1,1,right,0.7014,,253.778,253.7798,,1,,253.7825,253.7845,,0,,0,253.7845,253.7845,253.7875,255.2729,0,29,29,29,1,0.8,0.2,0.2,0.8,1,0,,,,,,,,,,,,,,,,,,,,,,,,,,,,,,,,,,,,
,,5e9fd839311b8018f88c99eb,66fc990c18cc4e2caba97e02,2024-10-02_02h52.58.945,mdp,2024.2.1,Win32,59.52380952,66fa4ebf79326e780c390304,,,,,,,,,,,,,,,,,,,,,255.2745,255.2745,255.2771,256.325,1,0,right,0.5183,,256.3277,256.3294,,1,,256.3319,256.3339,,1,,1,256.3339,256.334,256.3357,257.8233,0,30,30,30,1,0.8,0.2,0.2,0.8,1,0,,,,,,,,,,,,,,,,,,,,,,,,,,,,,,,,,,,,
,,5e9fd839311b8018f88c99eb,66fc990c18cc4e2caba97e02,2024-10-02_02h52.58.945,mdp,2024.2.1,Win32,59.52380952,66fa4ebf79326e780c390304,,,,,,,,,,,,,,,,,,,,,257.8244,257.8246,257.827,258.7935,1,1,right,0.4437,,258.7959,258.7978,,1,,258.7999,258.8016,,1,,0,258.8016,258.8016,258.8081,260.2896,0,31,31,31,1,0.8,0.2,0.2,0.8,1,0,,,,,,,,,,,,,,,,,,,,,,,,,,,,,,,,,,,,
,,5e9fd839311b8018f88c99eb,66fc990c18cc4e2caba97e02,2024-10-02_02h52.58.945,mdp,2024.2.1,Win32,59.52380952,66fa4ebf79326e780c390304,,,,,,,,,,,,,,,,,,,,,260.2909,260.291,260.2946,261.2413,1,1,right,0.4221,,261.2446,261.2464,,1,,261.2485,261.2505,,1,,0,261.2506,261.2506,261.2523,262.7399,0,32,32,32,1,0.8,0.2,0.2,0.8,1,0,,,,,,,,,,,,,,,,,,,,,,,,,,,,,,,,,,,,
,,5e9fd839311b8018f88c99eb,66fc990c18cc4e2caba97e02,2024-10-02_02h52.58.945,mdp,2024.2.1,Win32,59.52380952,66fa4ebf79326e780c390304,,,,,,,,,,,,,,,,,,,,,262.741,262.7411,262.744,263.9409,1,0,right,0.6665,,263.9435,263.9453,,0,,263.9473,263.949,,1,,1,263.9491,263.9491,263.9508,265.4394,0,33,33,33,1,0.2,0.8,0.8,0.2,1,0,,,,,,,,,,,,,,,,,,,,,,,,,,,,,,,,,,,,
,,5e9fd839311b8018f88c99eb,66fc990c18cc4e2caba97e02,2024-10-02_02h52.58.945,mdp,2024.2.1,Win32,59.52380952,66fa4ebf79326e780c390304,,,,,,,,,,,,,,,,,,,,,265.4406,265.4406,265.4433,266.3912,1,0,right,0.4193,,266.3941,266.3958,,0,,266.3979,266.3995,,0,,1,266.3996,266.3996,266.4014,267.8894,0,34,34,34,1,0.2,0.8,0.8,0.2,1,0,,,,,,,,,,,,,,,,,,,,,,,,,,,,,,,,,,,,
,,5e9fd839311b8018f88c99eb,66fc990c18cc4e2caba97e02,2024-10-02_02h52.58.945,mdp,2024.2.1,Win32,59.52380952,66fa4ebf79326e780c390304,,,,,,,,,,,,,,,,,,,,,267.8907,267.8908,267.8937,268.7743,1,0,right,0.3523,,268.7772,268.7789,,0,,268.7808,268.7825,,0,,1,268.7826,268.7826,268.7844,270.2727,0,35,35,35,1,0.2,0.8,0.8,0.2,1,0,,,,,,,,,,,,,,,,,,,,,,,,,,,,,,,,,,,,
,,5e9fd839311b8018f88c99eb,66fc990c18cc4e2caba97e02,2024-10-02_02h52.58.945,mdp,2024.2.1,Win32,59.52380952,66fa4ebf79326e780c390304,,,,,,,,,,,,,,,,,,,,,270.2745,270.2745,270.2774,271.3732,1,0,right,0.5692,,271.377,271.379,,0,,271.381,271.3827,,0,,1,271.3828,271.3828,271.3847,272.8727,0,36,36,36,1,0.2,0.8,0.8,0.2,1,0,,,,,,,,,,,,,,,,,,,,,,,,,,,,,,,,,,,,
,,5e9fd839311b8018f88c99eb,66fc990c18cc4e2caba97e02,2024-10-02_02h52.58.945,mdp,2024.2.1,Win32,59.52380952,66fa4ebf79326e780c390304,,,,,,,,,,,,,,,,,,,,,272.8743,272.8744,272.877,273.8737,1,0,right,0.4684,,273.8764,273.8783,,0,,273.8803,273.882,,0,,1,273.8821,273.8821,273.8839,275.3732,0,37,37,37,1,0.2,0.8,0.8,0.2,1,0,,,,,,,,,,,,,,,,,,,,,,,,,,,,,,,,,,,,
,,5e9fd839311b8018f88c99eb,66fc990c18cc4e2caba97e02,2024-10-02_02h52.58.945,mdp,2024.2.1,Win32,59.52380952,66fa4ebf79326e780c390304,,,,,,,,,,,,,,,,,,,,,275.3743,275.3744,275.3777,276.3915,1,0,right,0.4842,,276.394,276.3961,,0,,276.3989,276.4007,,1,,1,276.4009,276.4009,276.4058,277.8905,0,38,38,38,1,0.2,0.8,0.8,0.2,1,0,,,,,,,,,,,,,,,,,,,,,,,,,,,,,,,,,,,,
,,5e9fd839311b8018f88c99eb,66fc990c18cc4e2caba97e02,2024-10-02_02h52.58.945,mdp,2024.2.1,Win32,59.52380952,66fa4ebf79326e780c390304,,,,,,,,,,,,,,,,,,,,,277.8913,277.8913,277.8943,279.2912,1,0,right,0.8715,,279.2943,279.2964,,0,,279.2986,279.3004,,0,,1,279.3005,279.3006,279.3022,280.7891,0,39,39,39,1,0.2,0.8,0.8,0.2,1,0,,,,,,,,,,,,,,,,,,,,,,,,,,,,,,,,,,,,
,,5e9fd839311b8018f88c99eb,66fc990c18cc4e2caba97e02,2024-10-02_02h52.58.945,mdp,2024.2.1,Win32,59.52380952,66fa4ebf79326e780c390304,,,,,,,,,,,,,,,,,,,,,280.7904,280.7905,280.8018,282.0105,1,1,right,0.693,,282.0129,282.0151,,0,,282.0172,282.0189,,0,,0,282.019,282.019,282.0246,283.5068,0,40,40,40,1,0.2,0.8,0.8,0.2,1,0,,,,,,,,,,,,,,,,,,,,,,,,,,,,,,,,,,,,
,,5e9fd839311b8018f88c99eb,66fc990c18cc4e2caba97e02,2024-10-02_02h52.58.945,mdp,2024.2.1,Win32,59.52380952,66fa4ebf79326e780c390304,,,,,,,,,,,,,,,,,,,,,283.5076,283.5077,283.5106,284.29,1,1,right,0.2522,,284.293,284.2948,,1,,284.2967,284.2984,,1,,0,284.2985,284.2986,284.3002,285.7869,0,41,41,41,1,0.8,0.2,0.2,0.8,1,0,,,,,,,,,,,,,,,,,,,,,,,,,,,,,,,,,,,,
,,5e9fd839311b8018f88c99eb,66fc990c18cc4e2caba97e02,2024-10-02_02h52.58.945,mdp,2024.2.1,Win32,59.52380952,66fa4ebf79326e780c390304,,,,,,,,,,,,,,,,,,,,,285.7883,285.7883,285.7931,286.5439,1,1,right,0.2451,,286.5464,286.5486,,1,,286.5506,286.5522,,1,,0,286.5523,286.5523,286.5554,288.0569,0,42,42,42,1,0.8,0.2,0.2,0.8,1,0,,,,,,,,,,,,,,,,,,,,,,,,,,,,,,,,,,,,
,,5e9fd839311b8018f88c99eb,66fc990c18cc4e2caba97e02,2024-10-02_02h52.58.945,mdp,2024.2.1,Win32,59.52380952,66fa4ebf79326e780c390304,,,,,,,,,,,,,,,,,,,,,288.0577,288.0577,288.0605,289.3748,1,1,right,0.7874,,289.3776,289.3794,,1,,289.3812,289.3829,,0,,0,289.383,289.383,289.3847,290.8731,0,43,43,43,1,0.8,0.2,0.2,0.8,1,0,,,,,,,,,,,,,,,,,,,,,,,,,,,,,,,,,,,,
,,5e9fd839311b8018f88c99eb,66fc990c18cc4e2caba97e02,2024-10-02_02h52.58.945,mdp,2024.2.1,Win32,59.52380952,66fa4ebf79326e780c390304,,,,,,,,,,,,,,,,,,,,,290.8741,290.8742,290.8788,291.4089,1,0,right,0.01,,291.4111,291.4128,,1,,291.4147,291.4166,,0,,1,291.4167,291.4167,291.4186,292.9069,0,44,44,44,1,0.4,0.6,0.8,0.2,1,0,,,,,,,,,,,,,,,,,,,,,,,,,,,,,,,,,,,,
,,5e9fd839311b8018f88c99eb,66fc990c18cc4e2caba97e02,2024-10-02_02h52.58.945,mdp,2024.2.1,Win32,59.52380952,66fa4ebf79326e780c390304,,,,,,,,,,,,,,,,,,,,,292.9078,292.9078,292.9105,294.1405,1,1,right,0.7051,,294.1434,294.1451,,1,,294.1469,294.1488,,1,,0,294.1489,294.1489,294.151,295.6392,0,45,45,45,1,0.6,0.4,0.6,0.4,1,0,,,,,,,,,,,,,,,,,,,,,,,,,,,,,,,,,,,,
,,5e9fd839311b8018f88c99eb,66fc990c18cc4e2caba97e02,2024-10-02_02h52.58.945,mdp,2024.2.1,Win32,59.52380952,66fa4ebf79326e780c390304,,,,,,,,,,,,,,,,,,,,,295.6405,295.6406,295.6436,296.1746,1,0,right,0.0015,,296.1769,296.1785,,0,,296.1801,296.1814,,1,,1,296.1816,296.1816,296.183,297.6739,0,46,46,46,1,0.6,0.4,0.6,0.4,1,0,,,,,,,,,,,,,,,,,,,,,,,,,,,,,,,,,,,,
,,5e9fd839311b8018f88c99eb,66fc990c18cc4e2caba97e02,2024-10-02_02h52.58.945,mdp,2024.2.1,Win32,59.52380952,66fa4ebf79326e780c390304,,,,,,,,,,,,,,,,,,,,,297.6747,297.6747,297.6775,298.9405,1,1,right,0.7348,,298.9434,298.9451,,0,,298.9472,298.9487,,1,,0,298.9488,298.9489,298.9506,300.4401,0,47,47,47,1,0.6,0.4,0.6,0.4,1,0,,,,,,,,,,,,,,,,,,,,,,,,,,,,,,,,,,,,
,,5e9fd839311b8018f88c99eb,66fc990c18cc4e2caba97e02,2024-10-02_02h52.58.945,mdp,2024.2.1,Win32,59.52380952,66fa4ebf79326e780c390304,,,,,,,,,,,,,,,,,,,,,300.4409,300.4409,300.4437,301.8232,1,1,right,0.8588,,301.8287,301.8307,,1,,301.8335,301.8354,,1,,0,301.8355,301.8355,301.8397,303.3401,0,48,48,48,1,0.6,0.4,0.6,0.4,1,0,,,,,,,,,,,,,,,,,,,,,,,,,,,,,,,,,,,,
,,5e9fd839311b8018f88c99eb,66fc990c18cc4e2caba97e02,2024-10-02_02h52.58.945,mdp,2024.2.1,Win32,59.52380952,66fa4ebf79326e780c390304,,,,,,,,,,,,,,,,,,,,,303.3409,303.3409,303.3438,305.0725,1,1,right,1.2026,,305.0764,305.078,,1,,305.0799,305.0816,,0,,0,305.0817,305.0817,305.0835,306.573,0,49,49,49,1,0.8,0.2,0.2,0.8,1,0,,,,,,,,,,,,,,,,,,,,,,,,,,,,,,,,,,,,
,,5e9fd839311b8018f88c99eb,66fc990c18cc4e2caba97e02,2024-10-02_02h52.58.945,mdp,2024.2.1,Win32,59.52380952,66fa4ebf79326e780c390304,,,,,,,,,,,,,,,,,,,,,,,,,,,,,,,,,,,,,,,,,,,,,,,,,,,,,,,,306.6158,365.0868,0,0,0,6,1,imgs/kangaroo.png,imgs/dog.png,imgs/giraffe.png,imgs/rabbit.png,imgs/squirrel.png,,,,,,,,,,,,,,,,,,,,,,,,
,,5e9fd839311b8018f88c99eb,66fc990c18cc4e2caba97e02,2024-10-02_02h52.58.945,mdp,2024.2.1,Win32,59.52380952,66fa4ebf79326e780c390304,,,,,,,,,,,,,,2,seqs/st2seq10.csv,365.0911,368.1452,space,2.5471,,368.1593,368.1593,368.1618,370.9395,0,1,left,2.2342,,370.9425,374.2424,0,1,left,374.2448,374.2466,,1,,0,374.2467,374.2467,374.2494,375.738,0,0,0,0,1,0.2,0.8,0.6,0.4,,,,,,,,,,,,,,,2.7585,,0.8,0.2,0.8,0.2,0.4,0.6,0.6,0.4,1,0,,,,,,,,,,,,
,,5e9fd839311b8018f88c99eb,66fc990c18cc4e2caba97e02,2024-10-02_02h52.58.945,mdp,2024.2.1,Win32,59.52380952,66fa4ebf79326e780c390304,,,,,,,,,,,,,,,,,,,,,375.7395,375.7397,375.7423,376.8074,0,0,left,0.5356,,376.811,378.0363,0,0,left,378.0391,378.0409,,1,,1,378.0411,378.0411,378.0432,379.5392,0,1,1,1,1,0.2,0.8,0.6,0.4,,,,,,,,,,,,,,,0.6769,,0.8,0.2,0.8,0.2,0.4,0.6,0.6,0.4,1,0,,,,,,,,,,,,
,,5e9fd839311b8018f88c99eb,66fc990c18cc4e2caba97e02,2024-10-02_02h52.58.945,mdp,2024.2.1,Win32,59.52380952,66fa4ebf79326e780c390304,,,,,,,,,,,,,,,,,,,,,379.54,379.5401,379.543,380.255,1,0,right,0.187,,380.2583,381.5049,1,0,right,381.5081,381.5098,,0,,1,381.51,381.51,381.512,383.0103,0,2,2,2,1,0.2,0.8,0.6,0.4,,,,,,,,,,,,,,,0.7328,,0.8,0.2,0.8,0.2,0.4,0.6,0.6,0.4,1,0,,,,,,,,,,,,
,,5e9fd839311b8018f88c99eb,66fc990c18cc4e2caba97e02,2024-10-02_02h52.58.945,mdp,2024.2.1,Win32,59.52380952,66fa4ebf79326e780c390304,,,,,,,,,,,,,,,,,,,,,383.0136,383.0141,383.0235,384.1074,1,1,right,0.5683,,384.1101,385.4063,0,1,left,385.4098,385.4116,,1,,0,385.4117,385.4117,385.4156,386.9056,0,3,3,3,1,0.2,0.8,0.6,0.4,,,,,,,,,,,,,,,0.7523,,0.8,0.2,0.8,0.2,0.4,0.6,0.6,0.4,1,0,,,,,,,,,,,,
,,5e9fd839311b8018f88c99eb,66fc990c18cc4e2caba97e02,2024-10-02_02h52.58.945,mdp,2024.2.1,Win32,59.52380952,66fa4ebf79326e780c390304,,,,,,,,,,,,,,,,,,,,,386.9064,386.9066,386.9096,387.8064,1,0,right,0.3675,,387.8088,388.7728,1,0,right,388.7756,388.7773,,0,,1,388.7775,388.7775,388.7793,390.2722,0,4,4,4,1,0.4,0.6,0.8,0.2,,,,,,,,,,,,,,,0.4206,,0.8,0.2,0.8,0.2,0.4,0.6,0.6,0.4,1,0,,,,,,,,,,,,
,,5e9fd839311b8018f88c99eb,66fc990c18cc4e2caba97e02,2024-10-02_02h52.58.945,mdp,2024.2.1,Win32,59.52380952,66fa4ebf79326e780c390304,,,,,,,,,,,,,,,,,,,,,390.273,390.2731,390.2763,391.0397,1,0,right,0.2353,,391.0422,391.9219,1,1,right,391.9255,391.9275,,0,,0,391.9276,391.9276,391.9306,393.4228,0,5,5,5,1,0.4,0.6,0.8,0.2,,,,,,,,,,,,,,,0.3554,,0.8,0.2,0.8,0.2,0.4,0.6,0.6,0.4,1,0,,,,,,,,,,,,
,,5e9fd839311b8018f88c99eb,66fc990c18cc4e2caba97e02,2024-10-02_02h52.58.945,mdp,2024.2.1,Win32,59.52380952,66fa4ebf79326e780c390304,,,,,,,,,,,,,,,,,,,,,393.4237,393.4238,393.4263,394.0058,1,0,right,0.0594,,394.0094,394.7083,1,1,right,394.7105,394.7136,,0,,0,394.7137,394.7137,394.7158,396.2055,0,6,6,6,1,0.4,0.6,0.8,0.2,,,,,,,,,,,,,,,0.1772,,0.8,0.2,0.8,0.2,0.4,0.6,0.6,0.4,1,0,,,,,,,,,,,,
,,5e9fd839311b8018f88c99eb,66fc990c18cc4e2caba97e02,2024-10-02_02h52.58.945,mdp,2024.2.1,Win32,59.52380952,66fa4ebf79326e780c390304,,,,,,,,,,,,,,,,,,,,,396.2071,396.2072,396.21,397.0584,1,0,right,0.3273,,397.0614,397.7733,1,0,right,397.777,397.7787,,1,,1,397.7788,397.7788,397.7808,399.2727,0,7,7,7,1,0.4,0.6,0.8,0.2,,,,,,,,,,,,,,,0.1834,,0.8,0.2,0.8,0.2,0.4,0.6,0.6,0.4,1,0,,,,,,,,,,,,
,,5e9fd839311b8018f88c99eb,66fc990c18cc4e2caba97e02,2024-10-02_02h52.58.945,mdp,2024.2.1,Win32,59.52380952,66fa4ebf79326e780c390304,,,,,,,,,,,,,,,,,,,,,399.2737,399.2737,399.2763,399.9396,1,1,right,0.1371,,399.9424,400.6216,1,0,right,400.6249,400.6267,,0,,1,400.6268,400.6268,400.6287,402.121,0,8,8,8,1,0.4,0.6,0.8,0.2,,,,,,,,,,,,,,,0.1385,,0.8,0.2,0.8,0.2,0.4,0.6,0.6,0.4,1,0,,,,,,,,,,,,
,,5e9fd839311b8018f88c99eb,66fc990c18cc4e2caba97e02,2024-10-02_02h52.58.945,mdp,2024.2.1,Win32,59.52380952,66fa4ebf79326e780c390304,,,,,,,,,,,,,,,,,,,,,402.1224,402.1225,402.1252,403.0402,0,1,left,0.4004,,403.0431,403.7396,0,0,left,403.7426,403.7444,,0,,1,403.7446,403.7446,403.7468,405.2374,0,9,9,9,1,0.4,0.6,0.8,0.2,,,,,,,,,,,,,,,0.1667,,0.8,0.2,0.8,0.2,0.4,0.6,0.6,0.4,1,0,,,,,,,,,,,,
,,5e9fd839311b8018f88c99eb,66fc990c18cc4e2caba97e02,2024-10-02_02h52.58.945,mdp,2024.2.1,Win32,59.52380952,66fa4ebf79326e780c390304,,,,,,,,,,,,,,,,,,,,,405.2386,405.2388,405.2415,406.0437,0,1,left,0.2791,,406.0464,407.0736,0,1,left,407.0763,407.0779,,0,,0,407.0781,407.0781,407.08,408.5706,0,10,10,10,1,0.4,0.6,0.8,0.2,,,,,,,,,,,,,,,0.5013,,0.8,0.2,0.8,0.2,0.4,0.6,0.6,0.4,1,0,,,,,,,,,,,,
,,5e9fd839311b8018f88c99eb,66fc990c18cc4e2caba97e02,2024-10-02_02h52.58.945,mdp,2024.2.1,Win32,59.52380952,66fa4ebf79326e780c390304,,,,,,,,,,,,,,,,,,,,,408.5722,408.5722,408.5754,409.2897,0,1,left,0.1845,,409.2933,409.824,1,0,right,409.8273,409.8299,,0,,1,409.83,409.83,409.8321,411.3211,0,11,11,11,1,0.4,0.6,0.8,0.2,,,,,,,,,,,,,,,0.0177,,0.8,0.2,0.8,0.2,0.4,0.6,0.6,0.4,1,0,,,,,,,,,,,,
,,5e9fd839311b8018f88c99eb,66fc990c18cc4e2caba97e02,2024-10-02_02h52.58.945,mdp,2024.2.1,Win32,59.52380952,66fa4ebf79326e780c390304,,,,,,,,,,,,,,,,,,,,,411.3225,411.3227,411.3258,412.9598,0,0,left,1.1149,,412.9628,413.8774,1,0,right,413.8805,413.8823,,1,,1,413.8823,413.8824,413.8854,415.3738,0,12,12,12,1,0.4,0.6,0.8,0.2,,,,,,,,,,,,,,,0.3797,,0.8,0.2,0.8,0.2,0.4,0.6,0.6,0.4,1,0,,,,,,,,,,,,
,,5e9fd839311b8018f88c99eb,66fc990c18cc4e2caba97e02,2024-10-02_02h52.58.945,mdp,2024.2.1,Win32,59.52380952,66fa4ebf79326e780c390304,,,,,,,,,,,,,,,,,,,,,415.3746,415.3747,415.378,416.1721,0,1,left,0.2676,,416.1748,416.9581,1,0,right,416.9612,416.9633,,0,,1,416.9634,416.9634,416.9662,418.4558,0,13,13,13,1,0.4,0.6,0.8,0.2,,,,,,,,,,,,,,,0.2504,,0.8,0.2,0.8,0.2,0.4,0.6,0.6,0.4,1,0,,,,,,,,,,,,
,,5e9fd839311b8018f88c99eb,66fc990c18cc4e2caba97e02,2024-10-02_02h52.58.945,mdp,2024.2.1,Win32,59.52380952,66fa4ebf79326e780c390304,,,,,,,,,,,,,,,,,,,,,418.4567,418.4567,418.4592,419.223,0,1,left,0.2429,,419.2262,419.9246,1,0,right,419.927,419.9286,,0,,1,419.9287,419.9288,419.9306,421.4237,0,14,14,14,1,0.4,0.6,0.8,0.2,,,,,,,,,,,,,,,0.1775,,0.8,0.2,0.8,0.2,0.4,0.6,0.6,0.4,1,0,,,,,,,,,,,,
,,5e9fd839311b8018f88c99eb,66fc990c18cc4e2caba97e02,2024-10-02_02h52.58.945,mdp,2024.2.1,Win32,59.52380952,66fa4ebf79326e780c390304,,,,,,,,,,,,,,,,,,,,,421.4246,421.4247,421.4276,422.1262,0,1,left,0.1868,,422.1302,422.8376,1,1,right,422.8414,422.8435,,1,,0,422.8436,422.8436,422.8457,424.3437,0,15,15,15,1,0.4,0.6,0.8,0.2,,,,,,,,,,,,,,,0.1866,,0.8,0.2,0.8,0.2,0.4,0.6,0.6,0.4,1,0,,,,,,,,,,,,
,,5e9fd839311b8018f88c99eb,66fc990c18cc4e2caba97e02,2024-10-02_02h52.58.945,mdp,2024.2.1,Win32,59.52380952,66fa4ebf79326e780c390304,,,,,,,,,,,,,,,,,,,,,424.3447,424.3448,424.349,433.0408,1,0,right,8.1734,,433.0455,433.9558,0,1,left,433.96,433.9617,,0,,0,433.9618,433.9618,433.9637,435.4539,0,16,16,16,1,0.4,0.6,0.8,0.2,,,,,,,,,,,,,,,0.3722,,0.2,0.8,0.6,0.4,0.4,0.6,0.6,0.4,1,0,,,,,,,,,,,,
,,5e9fd839311b8018f88c99eb,66fc990c18cc4e2caba97e02,2024-10-02_02h52.58.945,mdp,2024.2.1,Win32,59.52380952,66fa4ebf79326e780c390304,,,,,,,,,,,,,,,,,,,,,435.4561,435.4562,435.4616,440.4887,1,0,right,4.5014,,440.4915,441.4979,1,0,right,441.5094,441.5113,,1,,1,441.5113,441.5114,441.5144,443.1431,0,17,17,17,1,0.4,0.6,0.8,0.2,,,,,,,,,,,,,,,0.4822,,0.2,0.8,0.6,0.4,0.4,0.6,0.6,0.4,1,0,,,,,,,,,,,,
,,5e9fd839311b8018f88c99eb,66fc990c18cc4e2caba97e02,2024-10-02_02h52.58.945,mdp,2024.2.1,Win32,59.52380952,66fa4ebf79326e780c390304,,,,,,,,,,,,,,,,,,,,,443.144,443.1448,443.1475,443.941,0,0,left,0.276,,443.9451,444.9414,1,1,right,444.944,444.9457,,0,,0,444.9457,444.9458,444.948,446.4375,0,18,18,18,1,0.4,0.6,0.8,0.2,,,,,,,,,,,,,,,0.4778,,0.4,0.6,0.8,0.2,0.4,0.6,0.6,0.4,1,0,,,,,,,,,,,,
,,5e9fd839311b8018f88c99eb,66fc990c18cc4e2caba97e02,2024-10-02_02h52.58.945,mdp,2024.2.1,Win32,59.52380952,66fa4ebf79326e780c390304,,,,,,,,,,,,,,,,,,,,,446.4386,446.4388,446.4414,447.3225,0,1,left,0.352,,447.325,448.2224,1,0,right,448.2249,448.2266,,0,,1,448.2267,448.2267,448.2286,449.7217,0,19,19,19,1,0.4,0.6,0.8,0.2,,,,,,,,,,,,,,,0.3558,,0.4,0.6,0.8,0.2,0.4,0.6,0.6,0.4,1,0,,,,,,,,,,,,
,,5e9fd839311b8018f88c99eb,66fc990c18cc4e2caba97e02,2024-10-02_02h52.58.945,mdp,2024.2.1,Win32,59.52380952,66fa4ebf79326e780c390304,,,,,,,,,,,,,,,,,,,,,449.7226,449.7226,449.7252,450.2913,1,0,right,0.0564,,450.2938,450.8573,1,1,right,450.8596,450.8615,,0,,0,450.8616,450.8616,450.8636,452.3571,0,20,20,20,1,0.4,0.6,0.8,0.2,,,,,,,,,,,,,,,0.0292,,0.4,0.6,0.8,0.2,0.4,0.6,0.6,0.4,1,0,,,,,,,,,,,,
,,5e9fd839311b8018f88c99eb,66fc990c18cc4e2caba97e02,2024-10-02_02h52.58.945,mdp,2024.2.1,Win32,59.52380952,66fa4ebf79326e780c390304,,,,,,,,,,,,,,,,,,,,,452.3582,452.3582,452.3605,453.2061,0,1,left,0.3254,,453.2086,454.1072,1,0,right,454.1096,454.1114,,0,,1,454.1115,454.1115,454.1136,455.6042,0,21,21,21,1,0.6,0.4,0.2,0.8,,,,,,,,,,,,,,,0.3641,,0.4,0.6,0.8,0.2,0.4,0.6,0.6,0.4,1,0,,,,,,,,,,,,
,,5e9fd839311b8018f88c99eb,66fc990c18cc4e2caba97e02,2024-10-02_02h52.58.945,mdp,2024.2.1,Win32,59.52380952,66fa4ebf79326e780c390304,,,,,,,,,,,,,,,,,,,,,455.6052,455.6053,455.608,456.455,1,0,right,0.3291,,456.458,457.2205,1,0,right,457.224,457.2263,,0,,1,457.2265,457.2265,457.2283,458.7211,0,22,22,22,1,0.6,0.4,0.2,0.8,,,,,,,,,,,,,,,0.2391,,0.4,0.6,0.8,0.2,0.4,0.6,0.6,0.4,1,0,,,,,,,,,,,,
,,5e9fd839311b8018f88c99eb,66fc990c18cc4e2caba97e02,2024-10-02_02h52.58.945,mdp,2024.2.1,Win32,59.52380952,66fa4ebf79326e780c390304,,,,,,,,,,,,,,,,,,,,,458.7221,458.7221,458.7248,459.44,0,1,left,0.1941,,459.4424,460.3039,1,0,right,460.3071,460.3088,,0,,1,460.3089,460.309,460.3108,461.8032,0,23,23,23,1,0.6,0.4,0.2,0.8,,,,,,,,,,,,,,,0.3224,,0.4,0.6,0.8,0.2,0.4,0.6,0.6,0.4,1,0,,,,,,,,,,,,
,,5e9fd839311b8018f88c99eb,66fc990c18cc4e2caba97e02,2024-10-02_02h52.58.945,mdp,2024.2.1,Win32,59.52380952,66fa4ebf79326e780c390304,,,,,,,,,,,,,,,,,,,,,461.8051,461.8053,461.8076,462.8558,0,1,left,0.5253,,462.8586,463.6278,1,0,right,463.6309,463.6327,,0,,1,463.6327,463.6327,463.639,465.138,0,24,24,24,1,0.6,0.4,0.2,0.8,,,,,,,,,,,,,,,0.249,,0.4,0.6,0.8,0.2,0.4,0.6,0.6,0.4,1,0,,,,,,,,,,,,
,,5e9fd839311b8018f88c99eb,66fc990c18cc4e2caba97e02,2024-10-02_02h52.58.945,mdp,2024.2.1,Win32,59.52380952,66fa4ebf79326e780c390304,,,,,,,,,,,,,,,,,,,,,465.1388,465.1389,465.1418,466.1068,1,1,right,0.4344,,466.1098,467.6645,1,0,right,467.6701,467.6723,,0,,1,467.6724,467.6724,467.6744,469.17,0,25,25,25,1,0.6,0.4,0.2,0.8,,,,,,,,,,,,,,,1.033,,0.4,0.6,0.8,0.2,0.4,0.6,0.6,0.4,1,0,,,,,,,,,,,,
,,5e9fd839311b8018f88c99eb,66fc990c18cc4e2caba97e02,2024-10-02_02h52.58.945,mdp,2024.2.1,Win32,59.52380952,66fa4ebf79326e780c390304,,,,,,,,,,,,,,,,,,,,,469.1715,469.1715,469.1742,470.0381,0,0,left,0.3339,,470.042,470.772,1,1,right,470.7752,470.7774,,0,,0,470.7775,470.7775,470.7797,472.2712,0,26,26,26,1,0.6,0.4,0.2,0.8,,,,,,,,,,,,,,,0.1831,,0.4,0.6,0.8,0.2,0.4,0.6,0.6,0.4,1,0,,,,,,,,,,,,
,,5e9fd839311b8018f88c99eb,66fc990c18cc4e2caba97e02,2024-10-02_02h52.58.945,mdp,2024.2.1,Win32,59.52380952,66fa4ebf79326e780c390304,,,,,,,,,,,,,,,,,,,,,472.2728,472.2728,472.2769,473.4705,1,1,right,0.666,,473.4746,474.2288,1,0,right,474.2319,474.2367,,0,,1,474.2368,474.2368,474.2398,475.738,0,27,27,27,1,0.6,0.4,0.2,0.8,,,,,,,,,,,,,,,0.2335,,0.4,0.6,0.8,0.2,0.4,0.6,0.6,0.4,1,0,,,,,,,,,,,,
,,5e9fd839311b8018f88c99eb,66fc990c18cc4e2caba97e02,2024-10-02_02h52.58.945,mdp,2024.2.1,Win32,59.52380952,66fa4ebf79326e780c390304,,,,,,,,,,,,,,,,,,,,,475.7388,475.7388,475.7415,476.7718,1,1,right,0.5043,,476.7743,477.3101,1,1,right,477.313,477.3151,,1,,0,477.3151,477.3152,477.3214,479.4412,0,28,28,28,1,0.6,0.4,0.2,0.8,,,,,,,,,,,,,,,0.0023,,0.4,0.6,0.8,0.2,0.6,0.4,0.2,0.8,1,0,,,,,,,,,,,,
,,5e9fd839311b8018f88c99eb,66fc990c18cc4e2caba97e02,2024-10-02_02h52.58.945,mdp,2024.2.1,Win32,59.52380952,66fa4ebf79326e780c390304,,,,,,,,,,,,,,,,,,,,,479.4426,479.4426,479.4468,480.3869,1,1,right,0.419,,480.39,481.4379,1,1,right,481.4406,481.4423,,1,,0,481.4424,481.4424,481.4443,482.9369,0,29,29,29,1,0.6,0.4,0.2,0.8,,,,,,,,,,,,,,,0.5159,,0.4,0.6,0.8,0.2,0.6,0.4,0.2,0.8,1,0,,,,,,,,,,,,
,,5e9fd839311b8018f88c99eb,66fc990c18cc4e2caba97e02,2024-10-02_02h52.58.945,mdp,2024.2.1,Win32,59.52380952,66fa4ebf79326e780c390304,,,,,,,,,,,,,,,,,,,,,482.9384,482.9386,482.9412,483.8043,0,0,left,0.334,,483.807,484.4253,1,1,right,484.4285,484.4303,,0,,0,484.4304,484.4304,484.4328,485.9213,0,30,30,30,1,0.6,0.4,0.2,0.8,,,,,,,,,,,,,,,0.0685,,0.4,0.6,0.8,0.2,0.6,0.4,0.2,0.8,1,0,,,,,,,,,,,,
,,5e9fd839311b8018f88c99eb,66fc990c18cc4e2caba97e02,2024-10-02_02h52.58.945,mdp,2024.2.1,Win32,59.52380952,66fa4ebf79326e780c390304,,,,,,,,,,,,,,,,,,,,,485.9222,485.9223,485.9249,487.0552,1,0,right,0.5973,,487.0579,487.6217,1,0,right,487.6243,487.626,,0,,1,487.626,487.626,487.6279,489.1211,0,31,31,31,1,0.6,0.4,0.2,0.8,,,,,,,,,,,,,,,0.0344,,0.4,0.6,0.8,0.2,0.6,0.4,0.2,0.8,1,0,,,,,,,,,,,,
,,5e9fd839311b8018f88c99eb,66fc990c18cc4e2caba97e02,2024-10-02_02h52.58.945,mdp,2024.2.1,Win32,59.52380952,66fa4ebf79326e780c390304,,,,,,,,,,,,,,,,,,,,,489.1221,489.1221,489.1246,490.0405,1,1,right,0.3953,,490.0428,490.5801,1,1,right,490.5824,490.5885,,1,,0,490.5886,490.5886,490.5919,492.0872,0,32,32,32,1,0.6,0.4,0.2,0.8,,,,,,,,,,,,,,,0.0018,,0.4,0.6,0.8,0.2,0.6,0.4,0.2,0.8,1,0,,,,,,,,,,,,
,,5e9fd839311b8018f88c99eb,66fc990c18cc4e2caba97e02,2024-10-02_02h52.58.945,mdp,2024.2.1,Win32,59.52380952,66fa4ebf79326e780c390304,,,,,,,,,,,,,,,,,,,,,492.088,492.088,492.0908,493.0212,1,1,right,0.4011,,493.024,493.5702,1,0,right,493.5735,493.5753,,1,,1,493.5754,493.5754,493.5774,495.0695,0,33,33,33,1,0.6,0.4,0.2,0.8,,,,,,,,,,,,,,,0.0196,,0.4,0.6,0.8,0.2,0.4,0.6,0.8,0.2,1,0,,,,,,,,,,,,
,,5e9fd839311b8018f88c99eb,66fc990c18cc4e2caba97e02,2024-10-02_02h52.58.945,mdp,2024.2.1,Win32,59.52380952,66fa4ebf79326e780c390304,,,,,,,,,,,,,,,,,,,,,495.0707,495.0709,495.0735,496.0033,1,1,right,0.4016,,496.0066,497.2345,1,0,right,497.2385,497.241,,0,,1,497.241,497.241,497.243,498.7359,0,34,34,34,1,0.6,0.4,0.2,0.8,,,,,,,,,,,,,,,0.7013,,0.4,0.6,0.8,0.2,0.4,0.6,0.8,0.2,1,0,,,,,,,,,,,,
,,5e9fd839311b8018f88c99eb,66fc990c18cc4e2caba97e02,2024-10-02_02h52.58.945,mdp,2024.2.1,Win32,59.52380952,66fa4ebf79326e780c390304,,,,,,,,,,,,,,,,,,,,,498.7373,498.7374,498.74,499.2879,1,1,right,0.0205,,499.2908,500.2216,1,0,right,500.2245,500.2263,,0,,1,500.2263,500.2264,500.2282,501.7203,0,35,35,35,1,0.6,0.4,0.2,0.8,,,,,,,,,,,,,,,0.4023,,0.4,0.6,0.8,0.2,0.4,0.6,0.8,0.2,1,0,,,,,,,,,,,,
,,5e9fd839311b8018f88c99eb,66fc990c18cc4e2caba97e02,2024-10-02_02h52.58.945,mdp,2024.2.1,Win32,59.52380952,66fa4ebf79326e780c390304,,,,,,,,,,,,,,,,,,,,,501.7211,501.7212,501.724,502.5234,1,1,right,0.2781,,502.5257,503.1395,1,0,right,503.1418,503.1434,,0,,1,503.1435,503.1435,503.1454,504.636,0,36,36,36,1,0.6,0.4,0.2,0.8,,,,,,,,,,,,,,,0.0943,,0.4,0.6,0.8,0.2,0.4,0.6,0.8,0.2,1,0,,,,,,,,,,,,
,,5e9fd839311b8018f88c99eb,66fc990c18cc4e2caba97e02,2024-10-02_02h52.58.945,mdp,2024.2.1,Win32,59.52380952,66fa4ebf79326e780c390304,,,,,,,,,,,,,,,,,,,,,504.6372,504.6374,504.64,505.1698,0,0,left,0.0028,,505.1733,505.7677,0,1,left,505.7728,505.7746,,0,,0,505.7746,505.7747,505.7765,507.2697,0,37,37,37,1,0.6,0.4,0.2,0.8,,,,,,,,,,,,,,,0.0537,,0.4,0.6,0.8,0.2,0.4,0.6,0.8,0.2,1,0,,,,,,,,,,,,
,,5e9fd839311b8018f88c99eb,66fc990c18cc4e2caba97e02,2024-10-02_02h52.58.945,mdp,2024.2.1,Win32,59.52380952,66fa4ebf79326e780c390304,,,,,,,,,,,,,,,,,,,,,507.271,507.271,507.2737,508.1393,1,1,right,0.3435,,508.1421,508.7741,1,0,right,508.7767,508.7788,,0,,1,508.7789,508.7789,508.7819,510.2705,0,38,38,38,1,0.6,0.4,0.2,0.8,,,,,,,,,,,,,,,0.103,,0.4,0.6,0.8,0.2,0.4,0.6,0.8,0.2,1,0,,,,,,,,,,,,
,,5e9fd839311b8018f88c99eb,66fc990c18cc4e2caba97e02,2024-10-02_02h52.58.945,mdp,2024.2.1,Win32,59.52380952,66fa4ebf79326e780c390304,,,,,,,,,,,,,,,,,,,,,510.2713,510.2715,510.2744,510.9876,1,1,right,0.1828,,510.991,511.5552,0,0,left,511.5581,511.5598,,1,,1,511.5599,511.5599,511.5619,513.0526,0,39,39,39,1,0.6,0.4,0.2,0.8,,,,,,,,,,,,,,,0.0434,,0.4,0.6,0.8,0.2,0.4,0.6,0.8,0.2,1,0,,,,,,,,,,,,
,,5e9fd839311b8018f88c99eb,66fc990c18cc4e2caba97e02,2024-10-02_02h52.58.945,mdp,2024.2.1,Win32,59.52380952,66fa4ebf79326e780c390304,,,,,,,,,,,,,,,,,,,,,513.0541,513.0541,513.0573,513.6538,1,0,right,0.0672,,513.6566,514.5223,0,1,left,514.5252,514.5269,,1,,0,514.527,514.527,514.529,516.0202,0,40,40,40,1,0.6,0.4,0.2,0.8,,,,,,,,,,,,,,,0.3285,,0.4,0.6,0.8,0.2,0.4,0.6,0.8,0.2,1,0,,,,,,,,,,,,
,,5e9fd839311b8018f88c99eb,66fc990c18cc4e2caba97e02,2024-10-02_02h52.58.945,mdp,2024.2.1,Win32,59.52380952,66fa4ebf79326e780c390304,,,,,,,,,,,,,,,,,,,,,516.021,516.0211,516.024,516.7207,1,1,right,0.1689,,516.7234,517.5364,1,0,right,517.5394,517.5413,,0,,1,517.5414,517.5414,517.5434,519.0357,0,41,41,41,1,0.6,0.4,0.2,0.8,,,,,,,,,,,,,,,0.2722,,0.4,0.6,0.8,0.2,0.8,0.2,0.6,0.4,1,0,,,,,,,,,,,,
,,5e9fd839311b8018f88c99eb,66fc990c18cc4e2caba97e02,2024-10-02_02h52.58.945,mdp,2024.2.1,Win32,59.52380952,66fa4ebf79326e780c390304,,,,,,,,,,,,,,,,,,,,,519.0371,519.0372,519.0397,520.1362,1,0,right,0.5594,,520.1395,520.9696,1,0,right,520.9726,520.9744,,0,,1,520.9745,520.9745,520.9767,522.4705,0,42,42,42,1,0.6,0.4,0.2,0.8,,,,,,,,,,,,,,,0.3028,,0.4,0.6,0.8,0.2,0.8,0.2,0.6,0.4,1,0,,,,,,,,,,,,
,,5e9fd839311b8018f88c99eb,66fc990c18cc4e2caba97e02,2024-10-02_02h52.58.945,mdp,2024.2.1,Win32,59.52380952,66fa4ebf79326e780c390304,,,,,,,,,,,,,,,,,,,,,522.4714,522.4715,522.4743,523.1376,0,1,left,0.1351,,523.1406,523.9529,0,1,left,523.9569,523.9585,,0,,0,523.9587,523.9587,523.9607,525.4528,0,43,43,43,1,0.6,0.4,0.2,0.8,,,,,,,,,,,,,,,0.27,,0.4,0.6,0.8,0.2,0.8,0.2,0.6,0.4,1,0,,,,,,,,,,,,
,,5e9fd839311b8018f88c99eb,66fc990c18cc4e2caba97e02,2024-10-02_02h52.58.945,mdp,2024.2.1,Win32,59.52380952,66fa4ebf79326e780c390304,,,,,,,,,,,,,,,,,,,,,525.4541,525.4542,525.4584,526.1385,1,1,right,0.1591,,526.1411,526.7076,1,0,right,526.7102,526.7119,,0,,1,526.7121,526.7121,526.7145,528.2047,0,44,44,44,1,0.6,0.4,0.2,0.8,,,,,,,,,,,,,,,0.0444,,0.4,0.6,0.8,0.2,0.8,0.2,0.6,0.4,1,0,,,,,,,,,,,,
,,5e9fd839311b8018f88c99eb,66fc990c18cc4e2caba97e02,2024-10-02_02h52.58.945,mdp,2024.2.1,Win32,59.52380952,66fa4ebf79326e780c390304,,,,,,,,,,,,,,,,,,,,,528.2069,528.207,528.2097,528.773,1,1,right,0.0413,,528.7753,529.5029,0,0,left,529.5063,529.5083,,0,,1,529.5083,529.5083,529.5104,531.0032,0,45,45,45,1,0.6,0.4,0.2,0.8,,,,,,,,,,,,,,,0.2149,,0.8,0.2,0.6,0.4,0.8,0.2,0.6,0.4,1,0,,,,,,,,,,,,
,,5e9fd839311b8018f88c99eb,66fc990c18cc4e2caba97e02,2024-10-02_02h52.58.945,mdp,2024.2.1,Win32,59.52380952,66fa4ebf79326e780c390304,,,,,,,,,,,,,,,,,,,,,531.0051,531.0051,531.0076,531.8029,0,1,left,0.2684,,531.8072,532.6371,1,0,right,532.6397,532.6414,,1,,1,532.6415,532.6415,532.6433,534.136,0,46,46,46,1,0.6,0.4,0.2,0.8,,,,,,,,,,,,,,,0.3017,,0.8,0.2,0.6,0.4,0.8,0.2,0.6,0.4,1,0,,,,,,,,,,,,
,,5e9fd839311b8018f88c99eb,66fc990c18cc4e2caba97e02,2024-10-02_02h52.58.945,mdp,2024.2.1,Win32,59.52380952,66fa4ebf79326e780c390304,,,,,,,,,,,,,,,,,,,,,534.1386,534.1387,534.1416,535.0385,1,0,right,0.3753,,535.0415,535.9547,1,1,right,535.9573,535.9589,,0,,0,535.959,535.959,535.9613,537.4541,0,47,47,47,1,0.8,0.2,0.8,0.2,,,,,,,,,,,,,,,0.3703,,0.8,0.2,0.6,0.4,0.8,0.2,0.6,0.4,1,0,,,,,,,,,,,,
,,5e9fd839311b8018f88c99eb,66fc990c18cc4e2caba97e02,2024-10-02_02h52.58.945,mdp,2024.2.1,Win32,59.52380952,66fa4ebf79326e780c390304,,,,,,,,,,,,,,,,,,,,,537.455,537.4551,537.4577,539.0036,0,1,left,1.0199,,539.0064,539.6695,1,1,right,539.6723,539.674,,1,,0,539.6741,539.6741,539.6761,541.1691,0,48,48,48,1,0.8,0.2,0.8,0.2,,,,,,,,,,,,,,,0.1216,,0.8,0.2,0.6,0.4,0.8,0.2,0.6,0.4,1,0,,,,,,,,,,,,
,,5e9fd839311b8018f88c99eb,66fc990c18cc4e2caba97e02,2024-10-02_02h52.58.945,mdp,2024.2.1,Win32,59.52380952,66fa4ebf79326e780c390304,,,,,,,,,,,,,,,,,,,,,541.1703,541.1703,541.1729,543.1068,1,0,right,1.4024,,543.1095,546.1211,1,1,right,546.1235,546.1252,,1,,0,546.1252,546.1253,546.1271,547.6204,0,49,49,49,1,0.8,0.2,0.8,0.2,,,,,,,,,,,,,,,2.4685,,0.8,0.2,0.6,0.4,0.2,0.8,0.4,0.6,1,0,,,,,,,,,,,,
,,5e9fd839311b8018f88c99eb,66fc990c18cc4e2caba97e02,2024-10-02_02h52.58.945,mdp,2024.2.1,Win32,59.52380952,66fa4ebf79326e780c390304,,,,,,,,,,,,,,,,,,,,,,,,,,,,,,,,,,,,,,,,,,,,,,,,,,,,,,,,547.6206,606.1363,0,1,1,4,1,imgs/goat.png,imgs/pig.png,imgs/squirrel.png,imgs/dog.png,imgs/cat.png,,,,,,,,,,,,,,,,,,,,,,,,
,,5e9fd839311b8018f88c99eb,66fc990c18cc4e2caba97e02,2024-10-02_02h52.58.945,mdp,2024.2.1,Win32,59.52380952,66fa4ebf79326e780c390304,,,,,,,,,,,,,,3,seqs/st3seq41.csv,606.1397,608.3535,space,1.6851,,608.3782,608.3784,608.3808,609.4712,1,0,right,0.5518,,609.4736,610.4551,1,1,right,610.458,611.2693,1,0,right,1,611.2694,611.2694,611.272,612.7688,0,0,0,0,1,0.2,0.8,0.6,0.4,,,,,,,,,,,,,,,0.4486,,0.6,0.4,0.2,0.8,0.8,0.2,0.4,0.6,,,0.2684,,0.4,0.6,0.8,0.2,0.4,0.6,0.8,0.2,1,0
,,5e9fd839311b8018f88c99eb,66fc990c18cc4e2caba97e02,2024-10-02_02h52.58.945,mdp,2024.2.1,Win32,59.52380952,66fa4ebf79326e780c390304,,,,,,,,,,,,,,,,,,,,,612.7698,612.77,612.7737,613.87,0,1,left,0.5685,,613.873,615.285,1,1,right,615.2881,617.185,1,1,right,0,617.1854,617.1854,617.1881,618.6843,0,1,1,1,1,0.2,0.8,0.6,0.4,,,,,,,,,,,,,,,0.8669,,0.6,0.4,0.2,0.8,0.8,0.2,0.4,0.6,,,1.3687,,0.4,0.6,0.8,0.2,0.4,0.6,0.8,0.2,1,0
,,5e9fd839311b8018f88c99eb,66fc990c18cc4e2caba97e02,2024-10-02_02h52.58.945,mdp,2024.2.1,Win32,59.52380952,66fa4ebf79326e780c390304,,,,,,,,,,,,,,,,,,,,,618.6859,618.6861,618.6899,619.585,1,1,right,0.3684,,619.5882,623.1028,0,1,left,623.1056,624.2866,1,0,right,1,624.287,624.287,624.2894,625.7841,0,2,2,2,1,0.2,0.8,0.6,0.4,,,,,,,,,,,,,,,2.984,,0.6,0.4,0.2,0.8,0.8,0.2,0.4,0.6,,,0.66,,0.4,0.6,0.8,0.2,0.4,0.6,0.8,0.2,1,0
,,5e9fd839311b8018f88c99eb,66fc990c18cc4e2caba97e02,2024-10-02_02h52.58.945,mdp,2024.2.1,Win32,59.52380952,66fa4ebf79326e780c390304,,,,,,,,,,,,,,,,,,,,,625.7856,625.7857,625.7883,626.6866,1,1,right,0.3746,,626.6897,627.8359,0,0,left,627.8387,628.7028,1,0,right,1,628.7031,628.7031,628.7057,630.2021,0,3,3,3,1,0.2,0.8,0.6,0.4,,,,,,,,,,,,,,,0.6164,,0.6,0.4,0.2,0.8,0.8,0.2,0.4,0.6,,,0.3172,,0.4,0.6,0.8,0.2,0.4,0.6,0.8,0.2,1,0
,,5e9fd839311b8018f88c99eb,66fc990c18cc4e2caba97e02,2024-10-02_02h52.58.945,mdp,2024.2.1,Win32,59.52380952,66fa4ebf79326e780c390304,,,,,,,,,,,,,,,,,,,,,630.203,630.2031,630.2059,631.4696,0,0,left,0.7485,,631.4719,632.0693,1,1,right,632.0719,632.6848,0,0,left,1,632.6849,632.685,632.688,634.1824,0,4,4,4,1,0.2,0.8,0.6,0.4,,,,,,,,,,,,,,,0.0527,,0.6,0.4,0.2,0.8,0.8,0.2,0.4,0.6,,,0.0724,,0.4,0.6,0.8,0.2,0.2,0.8,0.2,0.8,1,0
,,5e9fd839311b8018f88c99eb,66fc990c18cc4e2caba97e02,2024-10-02_02h52.58.945,mdp,2024.2.1,Win32,59.52380952,66fa4ebf79326e780c390304,,,,,,,,,,,,,,,,,,,,,634.1854,634.1854,634.1886,634.7356,0,1,left,0.0162,,634.7385,635.6515,0,0,left,635.6544,636.8515,1,0,right,1,636.8518,636.8519,636.8592,638.3507,0,5,5,5,1,0.2,0.8,0.6,0.4,,,,,,,,,,,,,,,0.3737,,0.6,0.4,0.2,0.8,0.8,0.2,0.4,0.6,,,0.6559,,0.4,0.6,0.8,0.2,0.2,0.8,0.2,0.8,1,0
,,5e9fd839311b8018f88c99eb,66fc990c18cc4e2caba97e02,2024-10-02_02h52.58.945,mdp,2024.2.1,Win32,59.52380952,66fa4ebf79326e780c390304,,,,,,,,,,,,,,,,,,,,,638.3523,638.3525,638.355,639.0028,1,0,right,0.1155,,639.0057,639.9027,1,0,right,639.9055,640.8383,1,0,right,1,640.8385,640.8385,640.841,642.3354,0,6,6,6,1,0.2,0.8,0.6,0.4,,,,,,,,,,,,,,,0.3543,,0.2,0.8,0.8,0.2,0.8,0.2,0.4,0.6,,,0.412,,0.4,0.6,0.8,0.2,0.2,0.8,0.2,0.8,1,0
,,5e9fd839311b8018f88c99eb,66fc990c18cc4e2caba97e02,2024-10-02_02h52.58.945,mdp,2024.2.1,Win32,59.52380952,66fa4ebf79326e780c390304,,,,,,,,,,,,,,,,,,,,,642.3364,642.3366,642.3393,643.0359,1,1,right,0.1693,,643.0385,643.8369,1,1,right,643.8396,644.5026,1,1,right,0,644.5028,644.5028,644.5054,646.0017,0,7,7,7,1,0.2,0.8,0.6,0.4,,,,,,,,,,,,,,,0.2626,,0.2,0.8,0.8,0.2,0.8,0.2,0.4,0.6,,,0.1252,,0.4,0.6,0.8,0.2,0.2,0.8,0.2,0.8,1,0
,,5e9fd839311b8018f88c99eb,66fc990c18cc4e2caba97e02,2024-10-02_02h52.58.945,mdp,2024.2.1,Win32,59.52380952,66fa4ebf79326e780c390304,,,,,,,,,,,,,,,,,,,,,646.0027,646.0028,646.0055,646.9026,1,0,right,0.3696,,646.906,647.5377,1,0,right,647.5403,648.1189,1,0,right,1,648.1191,648.1191,648.1219,649.6182,0,8,8,8,1,0.2,0.8,0.6,0.4,,,,,,,,,,,,,,,0.0964,,0.2,0.8,0.8,0.2,0.8,0.2,0.4,0.6,,,0.0409,,0.4,0.6,0.8,0.2,0.2,0.8,0.2,0.8,1,0
,,5e9fd839311b8018f88c99eb,66fc990c18cc4e2caba97e02,2024-10-02_02h52.58.945,mdp,2024.2.1,Win32,59.52380952,66fa4ebf79326e780c390304,,,,,,,,,,,,,,,,,,,,,649.6191,649.6192,649.6221,650.5862,1,0,right,0.4352,,650.589,651.3345,1,0,right,651.3377,652.4189,1,0,right,1,652.419,652.419,652.4217,653.9185,0,9,9,9,1,0.2,0.8,0.6,0.4,,,,,,,,,,,,,,,0.234,,0.2,0.8,0.8,0.2,0.8,0.2,0.4,0.6,,,0.5504,,0.4,0.6,0.8,0.2,0.2,0.8,0.2,0.8,1,0
,,5e9fd839311b8018f88c99eb,66fc990c18cc4e2caba97e02,2024-10-02_02h52.58.945,mdp,2024.2.1,Win32,59.52380952,66fa4ebf79326e780c390304,,,,,,,,,,,,,,,,,,,,,653.9194,653.9195,653.9231,655.0014,1,0,right,0.5585,,655.0053,655.7537,1,0,right,655.7572,656.301,0,0,left,1,656.3016,656.3016,656.3047,657.8005,0,10,10,10,1,0.2,0.8,0.6,0.4,,,,,,,,,,,,,,,0.2261,,0.2,0.8,0.8,0.2,0.8,0.2,0.4,0.6,,,0.0203,,0.4,0.6,0.8,0.2,0.2,0.8,0.2,0.8,1,0
,,5e9fd839311b8018f88c99eb,66fc990c18cc4e2caba97e02,2024-10-02_02h52.58.945,mdp,2024.2.1,Win32,59.52380952,66fa4ebf79326e780c390304,,,,,,,,,,,,,,,,,,,,,657.802,657.802,657.8046,658.6016,1,1,right,0.2678,,658.6044,659.5844,0,0,left,659.5875,660.8847,0,1,left,0,660.885,660.885,660.8876,662.3837,0,11,11,11,1,0.2,0.8,0.6,0.4,,,,,,,,,,,,,,,0.4403,,0.2,0.8,0.8,0.2,0.8,0.2,0.4,0.6,,,0.7654,,0.4,0.6,0.8,0.2,0.2,0.8,0.2,0.8,1,0
,,5e9fd839311b8018f88c99eb,66fc990c18cc4e2caba97e02,2024-10-02_02h52.58.945,mdp,2024.2.1,Win32,59.52380952,66fa4ebf79326e780c390304,,,,,,,,,,,,,,,,,,,,,662.3852,662.3853,662.388,663.3375,1,0,right,0.4262,,663.34,663.9027,1,0,right,663.9052,664.7356,1,1,right,0,664.7358,664.7358,664.7386,666.2348,0,12,12,12,1,0.2,0.8,0.6,0.4,,,,,,,,,,,,,,,0.0241,,0.2,0.8,0.8,0.2,0.8,0.2,0.4,0.6,,,0.3045,,0.4,0.6,0.8,0.2,0.2,0.8,0.2,0.8,1,0
,,5e9fd839311b8018f88c99eb,66fc990c18cc4e2caba97e02,2024-10-02_02h52.58.945,mdp,2024.2.1,Win32,59.52380952,66fa4ebf79326e780c390304,,,,,,,,,,,,,,,,,,,,,666.2357,666.2358,666.2385,667.3018,1,0,right,0.5344,,667.3047,668.502,1,1,right,668.5053,669.104,1,0,right,1,669.1044,669.1045,669.1079,670.6017,0,13,13,13,1,0.8,0.2,0.8,0.2,,,,,,,,,,,,,,,0.6682,,0.2,0.8,0.8,0.2,0.8,0.2,0.4,0.6,,,0.0639,,0.4,0.6,0.8,0.2,0.2,0.8,0.2,0.8,1,0
,,5e9fd839311b8018f88c99eb,66fc990c18cc4e2caba97e02,2024-10-02_02h52.58.945,mdp,2024.2.1,Win32,59.52380952,66fa4ebf79326e780c390304,,,,,,,,,,,,,,,,,,,,,670.6027,670.6027,670.606,671.451,1,1,right,0.3201,,671.454,672.6172,1,1,right,672.6205,673.6034,1,1,right,0,673.6037,673.6037,673.6073,675.1017,0,14,14,14,1,0.8,0.2,0.8,0.2,,,,,,,,,,,,,,,0.6344,,0.2,0.8,0.8,0.2,0.8,0.2,0.4,0.6,,,0.4596,,0.4,0.6,0.8,0.2,0.2,0.8,0.2,0.8,1,0
,,5e9fd839311b8018f88c99eb,66fc990c18cc4e2caba97e02,2024-10-02_02h52.58.945,mdp,2024.2.1,Win32,59.52380952,66fa4ebf79326e780c390304,,,,,,,,,,,,,,,,,,,,,675.1027,675.1027,675.1056,675.784,1,0,right,0.153,,675.7874,676.3507,1,0,right,676.3537,676.8979,1,0,right,1,676.898,676.898,676.9016,678.4012,0,15,15,15,1,0.8,0.2,0.8,0.2,,,,,,,,,,,,,,,0.0244,,0.2,0.8,0.8,0.2,0.8,0.2,0.4,0.6,,,0.007,,0.4,0.6,0.8,0.2,0.2,0.8,0.2,0.8,1,0
,,5e9fd839311b8018f88c99eb,66fc990c18cc4e2caba97e02,2024-10-02_02h52.58.945,mdp,2024.2.1,Win32,59.52380952,66fa4ebf79326e780c390304,,,,,,,,,,,,,,,,,,,,,678.402,678.4022,678.405,679.1368,0,1,left,0.1998,,679.1406,680.0372,1,1,right,680.0401,680.5778,0,1,left,0,680.5781,680.5781,680.5829,682.0684,0,16,16,16,1,0.8,0.2,0.8,0.2,,,,,,,,,,,,,,,0.3653,,0.2,0.8,0.8,0.2,0.8,0.2,0.4,0.6,,,0.0015,,0.4,0.6,0.8,0.2,0.2,0.8,0.2,0.8,1,0
,,5e9fd839311b8018f88c99eb,66fc990c18cc4e2caba97e02,2024-10-02_02h52.58.945,mdp,2024.2.1,Win32,59.52380952,66fa4ebf79326e780c390304,,,,,,,,,,,,,,,,,,,,,682.0692,682.0693,682.0718,682.9356,1,0,right,0.335,,682.9382,683.5183,0,0,left,683.5211,684.1021,1,0,right,1,684.1024,684.1024,684.1054,685.6017,0,17,17,17,1,0.8,0.2,0.8,0.2,,,,,,,,,,,,,,,0.037,,0.2,0.8,0.8,0.2,0.8,0.2,0.4,0.6,,,0.0411,,0.4,0.6,0.8,0.2,0.2,0.8,0.2,0.8,1,0
,,5e9fd839311b8018f88c99eb,66fc990c18cc4e2caba97e02,2024-10-02_02h52.58.945,mdp,2024.2.1,Win32,59.52380952,66fa4ebf79326e780c390304,,,,,,,,,,,,,,,,,,,,,685.6028,685.6028,685.6053,686.4849,0,1,left,0.3515,,686.4876,687.5023,1,1,right,687.5048,688.384,0,1,left,0,688.3847,688.3847,688.3881,689.8835,0,18,18,18,1,0.8,0.2,0.8,0.2,,,,,,,,,,,,,,,0.4707,,0.2,0.8,0.8,0.2,0.8,0.2,0.4,0.6,,,0.3528,,0.4,0.6,0.8,0.2,0.2,0.8,0.2,0.8,1,0
,,5e9fd839311b8018f88c99eb,66fc990c18cc4e2caba97e02,2024-10-02_02h52.58.945,mdp,2024.2.1,Win32,59.52380952,66fa4ebf79326e780c390304,,,,,,,,,,,,,,,,,,,,,689.885,689.8852,689.8877,690.5195,0,0,left,0.1034,,690.5222,691.3843,0,1,left,691.3873,691.9355,0,1,left,0,691.9357,691.9357,691.9381,693.4349,0,19,19,19,1,0.8,0.2,0.8,0.2,,,,,,,,,,,,,,,0.3244,,0.2,0.8,0.8,0.2,0.8,0.2,0.4,0.6,,,0.0175,,0.4,0.6,0.8,0.2,0.2,0.8,0.2,0.8,1,0
,,5e9fd839311b8018f88c99eb,66fc990c18cc4e2caba97e02,2024-10-02_02h52.58.945,mdp,2024.2.1,Win32,59.52380952,66fa4ebf79326e780c390304,,,,,,,,,,,,,,,,,,,,,693.4359,693.436,693.4383,695.1689,1,0,right,1.2029,,695.1712,695.9512,0,0,left,695.954,696.5696,0,0,left,1,696.57,696.57,696.5723,698.068,0,20,20,20,1,0.8,0.2,0.8,0.2,,,,,,,,,,,,,,,0.2548,,0.2,0.8,0.8,0.2,0.8,0.2,0.4,0.6,,,0.0702,,0.4,0.6,0.8,0.2,0.2,0.8,0.2,0.8,1,0
,,5e9fd839311b8018f88c99eb,66fc990c18cc4e2caba97e02,2024-10-02_02h52.58.945,mdp,2024.2.1,Win32,59.52380952,66fa4ebf79326e780c390304,,,,,,,,,,,,,,,,,,,,,698.0691,698.0692,698.0719,698.9687,0,0,left,0.3672,,698.9711,699.6838,1,1,right,699.687,700.2524,1,1,right,0,700.2526,700.2526,700.255,701.75,0,21,21,21,1,0.8,0.2,0.8,0.2,,,,,,,,,,,,,,,0.1852,,0.2,0.8,0.8,0.2,0.8,0.2,0.4,0.6,,,0.0238,,0.4,0.6,0.8,0.2,0.2,0.8,0.2,0.8,1,0
,,5e9fd839311b8018f88c99eb,66fc990c18cc4e2caba97e02,2024-10-02_02h52.58.945,mdp,2024.2.1,Win32,59.52380952,66fa4ebf79326e780c390304,,,,,,,,,,,,,,,,,,,,,701.7512,701.7513,701.754,702.3504,1,0,right,0.0684,,702.354,703.4703,0,1,left,703.4728,704.4698,0,0,left,1,704.4703,704.4703,704.473,705.9681,0,22,22,22,1,0.8,0.2,0.8,0.2,,,,,,,,,,,,,,,0.5935,,0.2,0.8,0.8,0.2,0.8,0.2,0.4,0.6,,,0.476,,0.4,0.6,0.8,0.2,0.2,0.8,0.2,0.8,1,0
,,5e9fd839311b8018f88c99eb,66fc990c18cc4e2caba97e02,2024-10-02_02h52.58.945,mdp,2024.2.1,Win32,59.52380952,66fa4ebf79326e780c390304,,,,,,,,,,,,,,,,,,,,,705.9689,705.9691,705.9718,706.8699,1,0,right,0.3774,,706.8725,707.4851,0,1,left,707.4876,708.3684,0,1,left,0,708.3686,708.3686,708.371,709.8681,0,23,23,23,1,0.8,0.2,0.8,0.2,,,,,,,,,,,,,,,0.0888,,0.2,0.8,0.8,0.2,0.8,0.2,0.4,0.6,,,0.352,,0.8,0.2,0.4,0.6,0.2,0.8,0.2,0.8,1,0
,,5e9fd839311b8018f88c99eb,66fc990c18cc4e2caba97e02,2024-10-02_02h52.58.945,mdp,2024.2.1,Win32,59.52380952,66fa4ebf79326e780c390304,,,,,,,,,,,,,,,,,,,,,709.8691,709.8692,709.8717,710.7505,0,0,left,0.3518,,710.7538,711.6688,1,1,right,711.6717,712.202,0,1,left,0,712.2022,712.2023,712.2047,713.7015,0,24,24,24,1,0.8,0.2,0.8,0.2,,,,,,,,,,,,,,,0.3843,,0.2,0.8,0.8,0.2,0.8,0.2,0.4,0.6,,,0.0012,,0.8,0.2,0.4,0.6,0.2,0.8,0.2,0.8,1,0
,,5e9fd839311b8018f88c99eb,66fc990c18cc4e2caba97e02,2024-10-02_02h52.58.945,mdp,2024.2.1,Win32,59.52380952,66fa4ebf79326e780c390304,,,,,,,,,,,,,,,,,,,,,713.7024,713.7026,713.7051,714.8502,1,0,right,0.6188,,714.8535,715.4703,1,0,right,715.4727,716.2183,1,1,right,0,716.2184,716.2185,716.2215,717.7165,0,25,25,25,1,0.8,0.2,0.8,0.2,,,,,,,,,,,,,,,0.0939,,0.2,0.8,0.8,0.2,0.8,0.2,0.4,0.6,,,0.2113,,0.8,0.2,0.4,0.6,0.2,0.8,0.2,0.8,1,0
,,5e9fd839311b8018f88c99eb,66fc990c18cc4e2caba97e02,2024-10-02_02h52.58.945,mdp,2024.2.1,Win32,59.52380952,66fa4ebf79326e780c390304,,,,,,,,,,,,,,,,,,,,,717.7179,717.7179,717.7205,730.0501,1,0,right,11.8163,,730.0533,730.8506,1,0,right,730.8533,731.6017,0,0,left,1,731.6018,731.6018,731.6045,733.1247,0,26,26,26,1,0.8,0.2,0.8,0.2,,,,,,,,,,,,,,,0.2685,,0.2,0.8,0.8,0.2,0.8,0.2,0.4,0.6,,,0.2176,,0.8,0.2,0.4,0.6,0.4,0.6,0.4,0.6,1,0
,,5e9fd839311b8018f88c99eb,66fc990c18cc4e2caba97e02,2024-10-02_02h52.58.945,mdp,2024.2.1,Win32,59.52380952,66fa4ebf79326e780c390304,,,,,,,,,,,,,,,,,,,,,733.1272,733.1272,733.1492,734.1174,0,0,left,0.4672,,734.1201,734.935,1,0,right,734.9379,735.6509,1,0,right,1,735.6511,735.6511,735.6536,737.1496,0,27,27,27,1,0.8,0.2,0.8,0.2,,,,,,,,,,,,,,,0.2795,,0.2,0.8,0.8,0.2,0.8,0.2,0.4,0.6,,,0.1854,,0.8,0.2,0.4,0.6,0.4,0.6,0.4,0.6,1,0
,,5e9fd839311b8018f88c99eb,66fc990c18cc4e2caba97e02,2024-10-02_02h52.58.945,mdp,2024.2.1,Win32,59.52380952,66fa4ebf79326e780c390304,,,,,,,,,,,,,,,,,,,,,737.1567,737.1568,737.1618,737.8182,0,0,left,0.1422,,737.8212,738.5164,1,0,right,738.5199,739.5165,1,1,right,0,739.5169,739.5169,739.5195,741.018,0,28,28,28,1,0.8,0.2,0.8,0.2,,,,,,,,,,,,,,,0.1687,,0.2,0.8,0.8,0.2,0.8,0.2,0.4,0.6,,,0.4679,,0.8,0.2,0.4,0.6,0.4,0.6,0.4,0.6,1,0
,,5e9fd839311b8018f88c99eb,66fc990c18cc4e2caba97e02,2024-10-02_02h52.58.945,mdp,2024.2.1,Win32,59.52380952,66fa4ebf79326e780c390304,,,,,,,,,,,,,,,,,,,,,741.0191,741.0193,741.0218,741.6215,0,0,left,0.0795,,741.6249,742.6189,0,1,left,742.622,743.5674,0,1,left,0,743.5676,743.5676,743.5704,745.0661,0,29,29,29,1,0.8,0.2,0.8,0.2,,,,,,,,,,,,,,,0.477,,0.2,0.8,0.8,0.2,0.8,0.2,0.4,0.6,,,0.4051,,0.8,0.2,0.4,0.6,0.4,0.6,0.4,0.6,1,0
,,5e9fd839311b8018f88c99eb,66fc990c18cc4e2caba97e02,2024-10-02_02h52.58.945,mdp,2024.2.1,Win32,59.52380952,66fa4ebf79326e780c390304,,,,,,,,,,,,,,,,,,,,,745.0678,745.0678,745.0704,745.933,1,0,right,0.3373,,745.9362,746.8148,0,0,left,746.8191,747.6176,0,1,left,0,747.6177,747.6177,747.6204,749.1172,0,30,30,30,1,0.8,0.2,0.8,0.2,,,,,,,,,,,,,,,0.3539,,0.2,0.8,0.8,0.2,0.8,0.2,0.4,0.6,,,0.274,,0.2,0.8,0.8,0.2,0.4,0.6,0.4,0.6,1,0
,,5e9fd839311b8018f88c99eb,66fc990c18cc4e2caba97e02,2024-10-02_02h52.58.945,mdp,2024.2.1,Win32,59.52380952,66fa4ebf79326e780c390304,,,,,,,,,,,,,,,,,,,,,749.1181,749.1181,749.1209,749.8858,1,0,right,0.236,,749.8885,750.7845,1,0,right,750.7879,751.6176,1,0,right,1,751.6177,751.6177,751.6224,753.1172,0,31,31,31,1,0.8,0.2,0.8,0.2,,,,,,,,,,,,,,,0.3697,,0.2,0.8,0.8,0.2,0.8,0.2,0.4,0.6,,,0.2994,,0.2,0.8,0.8,0.2,0.4,0.6,0.4,0.6,1,0
,,5e9fd839311b8018f88c99eb,66fc990c18cc4e2caba97e02,2024-10-02_02h52.58.945,mdp,2024.2.1,Win32,59.52380952,66fa4ebf79326e780c390304,,,,,,,,,,,,,,,,,,,,,753.1182,753.1183,753.121,754.0175,0,1,left,0.3718,,754.0201,754.8347,0,0,left,754.8372,755.6675,0,0,left,1,755.6676,755.6676,755.6708,757.1657,0,32,32,32,1,0.8,0.2,0.8,0.2,,,,,,,,,,,,,,,0.2735,,0.2,0.8,0.8,0.2,0.8,0.2,0.4,0.6,,,0.3082,,0.2,0.8,0.8,0.2,0.4,0.6,0.4,0.6,1,0
,,5e9fd839311b8018f88c99eb,66fc990c18cc4e2caba97e02,2024-10-02_02h52.58.945,mdp,2024.2.1,Win32,59.52380952,66fa4ebf79326e780c390304,,,,,,,,,,,,,,,,,,,,,757.167,757.1672,757.1697,757.9196,1,0,right,0.2267,,757.9222,758.7844,1,0,right,758.788,759.6525,1,0,right,1,759.6526,759.6526,759.6551,761.1503,0,33,33,33,1,0.8,0.2,0.8,0.2,,,,,,,,,,,,,,,0.3265,,0.2,0.8,0.8,0.2,0.8,0.2,0.4,0.6,,,0.3438,,0.2,0.8,0.8,0.2,0.4,0.6,0.4,0.6,1,0
,,5e9fd839311b8018f88c99eb,66fc990c18cc4e2caba97e02,2024-10-02_02h52.58.945,mdp,2024.2.1,Win32,59.52380952,66fa4ebf79326e780c390304,,,,,,,,,,,,,,,,,,,,,761.1511,761.1511,761.1542,761.9661,1,0,right,0.2858,,761.969,762.8337,1,0,right,762.8377,763.366,0,0,left,1,763.3663,763.3663,763.3692,764.866,0,34,34,34,1,0.8,0.2,0.8,0.2,,,,,,,,,,,,,,,0.3451,,0.2,0.8,0.8,0.2,0.8,0.2,0.4,0.6,,,0.0038,,0.2,0.8,0.8,0.2,0.4,0.6,0.4,0.6,1,0
,,5e9fd839311b8018f88c99eb,66fc990c18cc4e2caba97e02,2024-10-02_02h52.58.945,mdp,2024.2.1,Win32,59.52380952,66fa4ebf79326e780c390304,,,,,,,,,,,,,,,,,,,,,764.8677,764.8678,764.8702,765.4845,0,0,left,0.0837,,765.487,766.1004,0,1,left,766.1034,767.0844,1,0,right,1,767.0848,767.0848,767.0873,768.5839,0,35,35,35,1,0.8,0.2,0.8,0.2,,,,,,,,,,,,,,,0.0856,,0.2,0.8,0.8,0.2,0.8,0.2,0.4,0.6,,,0.4367,,0.2,0.8,0.8,0.2,0.4,0.6,0.4,0.6,1,0
,,5e9fd839311b8018f88c99eb,66fc990c18cc4e2caba97e02,2024-10-02_02h52.58.945,mdp,2024.2.1,Win32,59.52380952,66fa4ebf79326e780c390304,,,,,,,,,,,,,,,,,,,,,768.5847,768.5854,768.5881,769.1994,1,0,right,0.0853,,769.2024,769.8662,1,0,right,769.8692,770.4505,1,0,right,1,770.4506,770.4506,770.4541,771.9488,0,36,36,36,1,0.8,0.2,0.8,0.2,,,,,,,,,,,,,,,0.1345,,0.2,0.8,0.8,0.2,0.8,0.2,0.4,0.6,,,0.0462,,0.2,0.8,0.8,0.2,0.4,0.6,0.4,0.6,1,0
,,5e9fd839311b8018f88c99eb,66fc990c18cc4e2caba97e02,2024-10-02_02h52.58.945,mdp,2024.2.1,Win32,59.52380952,66fa4ebf79326e780c390304,,,,,,,,,,,,,,,,,,,,,771.9504,771.9505,771.9532,772.5162,0,0,left,0.0343,,772.5192,773.0495,0,1,left,773.0525,773.595,0,0,left,1,773.595,773.5951,773.599,775.101,0,37,37,37,1,0.8,0.2,0.8,0.2,,,,,,,,,,,,,,,0.0011,,0.2,0.8,0.8,0.2,0.8,0.2,0.4,0.6,,,0.0042,,0.2,0.8,0.8,0.2,0.4,0.6,0.4,0.6,1,0
,,5e9fd839311b8018f88c99eb,66fc990c18cc4e2caba97e02,2024-10-02_02h52.58.945,mdp,2024.2.1,Win32,59.52380952,66fa4ebf79326e780c390304,,,,,,,,,,,,,,,,,,,,,775.1019,775.102,775.1047,775.7026,1,0,right,0.0781,,775.7051,779.0834,1,0,right,779.086,779.784,0,1,left,0,779.7842,779.7842,779.7869,781.2832,0,38,38,38,1,0.8,0.2,0.8,0.2,,,,,,,,,,,,,,,2.8533,,0.2,0.8,0.8,0.2,0.8,0.2,0.4,0.6,,,0.1554,,0.2,0.8,0.8,0.2,0.4,0.6,0.4,0.6,1,0
,,5e9fd839311b8018f88c99eb,66fc990c18cc4e2caba97e02,2024-10-02_02h52.58.945,mdp,2024.2.1,Win32,59.52380952,66fa4ebf79326e780c390304,,,,,,,,,,,,,,,,,,,,,781.2841,781.2842,781.287,782.9172,1,1,right,1.1001,,782.9199,783.9176,0,0,left,783.9203,784.9524,1,0,right,1,784.9526,784.9527,784.9551,786.4497,0,39,39,39,1,0.8,0.2,0.8,0.2,,,,,,,,,,,,,,,0.4534,,0.2,0.8,0.8,0.2,0.8,0.2,0.4,0.6,,,0.5112,,0.2,0.8,0.8,0.2,0.4,0.6,0.4,0.6,1,0
,,5e9fd839311b8018f88c99eb,66fc990c18cc4e2caba97e02,2024-10-02_02h52.58.945,mdp,2024.2.1,Win32,59.52380952,66fa4ebf79326e780c390304,,,,,,,,,,,,,,,,,,,,,786.4505,786.4507,786.4535,788.4169,1,0,right,1.436,,788.4203,789.1502,1,1,right,789.1532,790.4513,1,1,right,0,790.4515,790.4515,790.4542,791.9495,0,40,40,40,1,0.8,0.2,0.8,0.2,,,,,,,,,,,,,,,0.1894,,0.2,0.8,0.8,0.2,0.8,0.2,0.4,0.6,,,0.7565,,0.2,0.8,0.8,0.2,0.4,0.6,0.4,0.6,1,0
,,5e9fd839311b8018f88c99eb,66fc990c18cc4e2caba97e02,2024-10-02_02h52.58.945,mdp,2024.2.1,Win32,59.52380952,66fa4ebf79326e780c390304,,,,,,,,,,,,,,,,,,,,,791.9505,791.9506,791.9534,792.7169,0,0,left,0.2376,,792.7194,793.5323,1,0,right,793.5356,794.2836,1,0,right,1,794.2838,794.2839,794.2865,795.7831,0,41,41,41,1,0.8,0.2,0.8,0.2,,,,,,,,,,,,,,,0.2852,,0.2,0.8,0.8,0.2,0.8,0.2,0.4,0.6,,,0.2042,,0.2,0.8,0.8,0.2,0.4,0.6,0.4,0.6,1,0
,,5e9fd839311b8018f88c99eb,66fc990c18cc4e2caba97e02,2024-10-02_02h52.58.945,mdp,2024.2.1,Win32,59.52380952,66fa4ebf79326e780c390304,,,,,,,,,,,,,,,,,,,,,795.7846,795.7847,795.7876,796.6506,0,0,left,0.3379,,796.6533,797.3846,1,0,right,797.3886,797.9321,1,0,right,1,797.9325,797.9325,797.936,799.4317,0,42,42,42,1,0.8,0.2,0.8,0.2,,,,,,,,,,,,,,,0.2065,,0.2,0.8,0.8,0.2,0.8,0.2,0.4,0.6,,,0.0196,,0.2,0.8,0.8,0.2,0.4,0.6,0.4,0.6,1,0
,,5e9fd839311b8018f88c99eb,66fc990c18cc4e2caba97e02,2024-10-02_02h52.58.945,mdp,2024.2.1,Win32,59.52380952,66fa4ebf79326e780c390304,,,,,,,,,,,,,,,,,,,,,799.4333,799.4336,799.4361,800.2169,0,0,left,0.2498,,800.2196,800.9001,1,0,right,800.9027,801.5323,0,1,left,0,801.5325,801.5325,801.5354,803.0316,0,43,43,43,1,0.8,0.2,0.8,0.2,,,,,,,,,,,,,,,0.1539,,0.2,0.8,0.8,0.2,0.8,0.2,0.4,0.6,,,0.1016,,0.2,0.8,0.8,0.2,0.4,0.6,0.4,0.6,1,0
,,5e9fd839311b8018f88c99eb,66fc990c18cc4e2caba97e02,2024-10-02_02h52.58.945,mdp,2024.2.1,Win32,59.52380952,66fa4ebf79326e780c390304,,,,,,,,,,,,,,,,,,,,,803.0329,803.033,803.0358,803.7005,0,0,left,0.1385,,803.703,804.5989,1,0,right,804.6021,805.4,1,0,right,1,805.4001,805.4001,805.4034,806.8982,0,44,44,44,1,0.8,0.2,0.8,0.2,,,,,,,,,,,,,,,0.3693,,0.2,0.8,0.8,0.2,0.8,0.2,0.4,0.6,,,0.2743,,0.2,0.8,0.8,0.2,0.4,0.6,0.4,0.6,1,0
,,5e9fd839311b8018f88c99eb,66fc990c18cc4e2caba97e02,2024-10-02_02h52.58.945,mdp,2024.2.1,Win32,59.52380952,66fa4ebf79326e780c390304,,,,,,,,,,,,,,,,,,,,,806.8996,806.8998,806.9024,807.6836,0,1,left,0.2448,,807.687,808.3526,0,1,left,808.3567,808.9822,0,0,left,1,808.9827,808.9827,808.9854,810.4817,0,45,45,45,1,0.8,0.2,0.8,0.2,,,,,,,,,,,,,,,0.1322,,0.2,0.8,0.8,0.2,0.8,0.2,0.4,0.6,,,0.0915,,0.6,0.4,0.4,0.6,0.4,0.6,0.4,0.6,1,0
,,5e9fd839311b8018f88c99eb,66fc990c18cc4e2caba97e02,2024-10-02_02h52.58.945,mdp,2024.2.1,Win32,59.52380952,66fa4ebf79326e780c390304,,,,,,,,,,,,,,,,,,,,,810.4841,810.4843,810.4868,811.2998,1,0,right,0.2828,,811.3045,811.9488,1,0,right,811.9517,812.5334,1,1,right,0,812.5336,812.5336,812.5362,814.0331,0,46,46,46,1,0.8,0.2,0.8,0.2,,,,,,,,,,,,,,,0.105,,0.2,0.8,0.8,0.2,0.8,0.2,0.4,0.6,,,0.0416,,0.6,0.4,0.4,0.6,0.4,0.6,0.4,0.6,1,0
,,5e9fd839311b8018f88c99eb,66fc990c18cc4e2caba97e02,2024-10-02_02h52.58.945,mdp,2024.2.1,Win32,59.52380952,66fa4ebf79326e780c390304,,,,,,,,,,,,,,,,,,,,,814.0343,814.0343,814.037,814.7001,1,0,right,0.1332,,814.7026,815.3335,1,1,right,815.3364,816.1344,1,1,right,0,816.1346,816.1347,816.1379,817.6326,0,47,47,47,1,0.8,0.2,0.8,0.2,,,,,,,,,,,,,,,0.1052,,0.2,0.8,0.8,0.2,0.8,0.2,0.4,0.6,,,0.2641,,0.6,0.4,0.4,0.6,0.4,0.6,0.4,0.6,1,0
,,5e9fd839311b8018f88c99eb,66fc990c18cc4e2caba97e02,2024-10-02_02h52.58.945,mdp,2024.2.1,Win32,59.52380952,66fa4ebf79326e780c390304,,,,,,,,,,,,,,,,,,,,,817.6336,817.6337,817.6365,818.6507,1,1,right,0.4933,,818.6529,819.5496,0,0,left,819.553,820.249,1,0,right,1,820.2493,820.2493,820.2529,821.7481,0,48,48,48,1,0.8,0.2,0.8,0.2,,,,,,,,,,,,,,,0.3546,,0.2,0.8,0.8,0.2,0.8,0.2,0.4,0.6,,,0.1614,,0.6,0.4,0.4,0.6,0.4,0.6,0.4,0.6,1,0
,,5e9fd839311b8018f88c99eb,66fc990c18cc4e2caba97e02,2024-10-02_02h52.58.945,mdp,2024.2.1,Win32,59.52380952,66fa4ebf79326e780c390304,,,,,,,,,,,,,,,,,,,,,821.7495,821.7496,821.7521,823.1819,1,0,right,0.9013,,823.185,824.3154,1,0,right,824.3183,825.2153,1,1,right,0,825.2156,825.2157,825.2183,826.7152,0,49,49,49,1,0.8,0.2,0.8,0.2,,,,,,,,,,,,,,,0.5869,,0.2,0.8,0.8,0.2,0.8,0.2,0.4,0.6,,,0.3681,,0.6,0.4,0.4,0.6,0.4,0.6,0.4,0.6,1,0
,,5e9fd839311b8018f88c99eb,66fc990c18cc4e2caba97e02,2024-10-02_02h52.58.945,mdp,2024.2.1,Win32,59.52380952,66fa4ebf79326e780c390304,,,,,,,,,,,,,,,,,,,,,,,,,,,,,,,,,,,,,,,,,,,,,,,,,,,,,,,,826.7154,885.2309,0,2,2,8,1,imgs/dog.png,imgs/goat.png,imgs/elephant.png,imgs/rabbit.png,imgs/kangaroo.png,,,,,,,,,,,,,,,,,,,,,,,,
,,5e9fd839311b8018f88c99eb,66fc990c18cc4e2caba97e02,2024-10-02_02h52.58.945,mdp,2024.2.1,Win32,59.52380952,66fa4ebf79326e780c390304,,,,,,,,,,,,,,3,seqs/st3seq13.csv,885.2328,893.6828,space,7.9206,,893.7046,893.7047,893.7073,896.2991,1,0,right,2.0516,,896.3021,897.3356,0,0,left,897.338,898.435,1,1,right,0,898.4351,898.4353,898.4376,899.9319,0,0,0,0,1,0.2,0.8,0.2,0.8,,,,,,,,,,,,,,,0.4919,,0.8,0.2,0.8,0.2,0.6,0.4,0.2,0.8,,,0.564,,0.2,0.8,0.2,0.8,0.8,0.2,0.6,0.4,1,0
,,5e9fd839311b8018f88c99eb,66fc990c18cc4e2caba97e02,2024-10-02_02h52.58.945,mdp,2024.2.1,Win32,59.52380952,66fa4ebf79326e780c390304,,,,,,,,,,,,,,,,,,,,,899.9329,899.9331,899.9355,900.4992,0,1,left,0.0349,,900.5019,901.6639,1,1,right,901.6674,902.7472,0,0,left,1,902.7476,902.7476,902.7511,904.2482,0,1,1,1,1,0.2,0.8,0.2,0.8,,,,,,,,,,,,,,,0.6283,,0.8,0.2,0.8,0.2,0.6,0.4,0.2,0.8,,,0.5318,,0.2,0.8,0.2,0.8,0.8,0.2,0.6,0.4,1,0
,,5e9fd839311b8018f88c99eb,66fc990c18cc4e2caba97e02,2024-10-02_02h52.58.945,mdp,2024.2.1,Win32,59.52380952,66fa4ebf79326e780c390304,,,,,,,,,,,,,,,,,,,,,904.2491,904.2491,904.2522,904.7977,0,1,left,0.02,,904.801,905.6336,0,1,left,905.6403,906.2685,0,0,left,1,906.2686,906.2686,906.272,907.7681,0,2,2,2,1,0.2,0.8,0.2,0.8,,,,,,,,,,,,,,,0.309,,0.8,0.2,0.8,0.2,0.6,0.4,0.2,0.8,,,0.1098,,0.2,0.8,0.2,0.8,0.8,0.2,0.6,0.4,1,0
,,5e9fd839311b8018f88c99eb,66fc990c18cc4e2caba97e02,2024-10-02_02h52.58.945,mdp,2024.2.1,Win32,59.52380952,66fa4ebf79326e780c390304,,,,,,,,,,,,,,,,,,,,,907.77,907.77,907.7735,908.7825,1,1,right,0.4847,,908.7847,909.4986,1,1,right,909.5016,910.4016,1,0,right,1,910.4018,910.4018,910.4042,911.8979,0,3,3,3,1,0.2,0.8,0.2,0.8,,,,,,,,,,,,,,,0.178,,0.8,0.2,0.8,0.2,0.6,0.4,0.2,0.8,,,0.3923,,0.4,0.6,0.6,0.4,0.8,0.2,0.6,0.4,1,0
,,5e9fd839311b8018f88c99eb,66fc990c18cc4e2caba97e02,2024-10-02_02h52.58.945,mdp,2024.2.1,Win32,59.52380952,66fa4ebf79326e780c390304,,,,,,,,,,,,,,,,,,,,,911.8988,911.8989,911.9018,912.668,1,1,right,0.2452,,912.6702,913.3474,1,1,right,913.3503,914.0654,1,0,right,1,914.0655,914.0655,914.0689,915.5647,0,4,4,4,1,0.2,0.8,0.2,0.8,,,,,,,,,,,,,,,0.1531,,0.8,0.2,0.8,0.2,0.6,0.4,0.2,0.8,,,0.1862,,0.4,0.6,0.6,0.4,0.8,0.2,0.6,0.4,1,0
,,5e9fd839311b8018f88c99eb,66fc990c18cc4e2caba97e02,2024-10-02_02h52.58.945,mdp,2024.2.1,Win32,59.52380952,66fa4ebf79326e780c390304,,,,,,,,,,,,,,,,,,,,,915.5656,915.5656,915.5684,916.865,1,1,right,0.7698,,916.8678,917.5655,1,0,right,917.569,918.1343,0,0,left,1,918.1344,918.1344,918.1378,919.6353,0,5,5,5,1,0.2,0.8,0.2,0.8,,,,,,,,,,,,,,,0.1853,,0.8,0.2,0.8,0.2,0.6,0.4,0.2,0.8,,,0.0277,,0.4,0.6,0.6,0.4,0.8,0.2,0.6,0.4,1,0
,,5e9fd839311b8018f88c99eb,66fc990c18cc4e2caba97e02,2024-10-02_02h52.58.945,mdp,2024.2.1,Win32,59.52380952,66fa4ebf79326e780c390304,,,,,,,,,,,,,,,,,,,,,919.6363,919.6364,919.6387,920.5815,0,1,left,0.418,,920.5841,921.7644,1,1,right,921.7687,922.9487,1,1,right,0,922.9488,922.9488,922.9515,924.459,0,6,6,6,1,0.2,0.8,0.2,0.8,,,,,,,,,,,,,,,0.6525,,0.8,0.2,0.8,0.2,0.6,0.4,0.2,0.8,,,0.6367,,0.6,0.4,0.2,0.8,0.8,0.2,0.6,0.4,1,0
,,5e9fd839311b8018f88c99eb,66fc990c18cc4e2caba97e02,2024-10-02_02h52.58.945,mdp,2024.2.1,Win32,59.52380952,66fa4ebf79326e780c390304,,,,,,,,,,,,,,,,,,,,,924.4598,924.4599,924.4637,925.3637,1,1,right,0.3866,,925.3667,926.1973,1,1,right,926.2003,926.8303,1,1,right,0,926.8305,926.8305,926.8333,928.3299,0,7,7,7,1,0.2,0.8,0.2,0.8,,,,,,,,,,,,,,,0.3016,,0.8,0.2,0.8,0.2,0.6,0.4,0.2,0.8,,,0.1015,,0.6,0.4,0.2,0.8,0.8,0.2,0.6,0.4,1,0
,,5e9fd839311b8018f88c99eb,66fc990c18cc4e2caba97e02,2024-10-02_02h52.58.945,mdp,2024.2.1,Win32,59.52380952,66fa4ebf79326e780c390304,,,,,,,,,,,,,,,,,,,,,928.3314,928.3315,928.334,929.4637,1,1,right,0.604,,929.4671,930.1307,1,1,right,930.1343,931.0845,1,1,right,0,931.0845,931.0845,931.0867,932.5815,0,8,8,8,1,0.2,0.8,0.2,0.8,,,,,,,,,,,,,,,0.1408,,0.8,0.2,0.8,0.2,0.6,0.4,0.2,0.8,,,0.4272,,0.6,0.4,0.2,0.8,0.8,0.2,0.6,0.4,1,0
,,5e9fd839311b8018f88c99eb,66fc990c18cc4e2caba97e02,2024-10-02_02h52.58.945,mdp,2024.2.1,Win32,59.52380952,66fa4ebf79326e780c390304,,,,,,,,,,,,,,,,,,,,,932.5826,932.5826,932.5853,933.2668,0,1,left,0.161,,933.2704,934.115,0,0,left,934.1179,935.0308,0,1,left,0,935.0309,935.0309,935.0335,936.5297,0,9,9,9,1,0.2,0.8,0.2,0.8,,,,,,,,,,,,,,,0.3181,,0.8,0.2,0.8,0.2,0.6,0.4,0.2,0.8,,,0.3723,,0.6,0.4,0.2,0.8,0.8,0.2,0.6,0.4,1,0
,,5e9fd839311b8018f88c99eb,66fc990c18cc4e2caba97e02,2024-10-02_02h52.58.945,mdp,2024.2.1,Win32,59.52380952,66fa4ebf79326e780c390304,,,,,,,,,,,,,,,,,,,,,936.5311,936.5313,936.5339,938.1481,0,1,left,1.0858,,938.151,939.031,0,0,left,939.0337,939.9304,0,0,left,1,939.9307,939.9308,939.9335,941.4311,0,10,10,10,1,0.2,0.8,0.2,0.8,,,,,,,,,,,,,,,0.3533,,0.8,0.2,0.8,0.2,0.6,0.4,0.2,0.8,,,0.367,,0.6,0.4,0.2,0.8,0.8,0.2,0.6,0.4,1,0
,,5e9fd839311b8018f88c99eb,66fc990c18cc4e2caba97e02,2024-10-02_02h52.58.945,mdp,2024.2.1,Win32,59.52380952,66fa4ebf79326e780c390304,,,,,,,,,,,,,,,,,,,,,941.4322,941.4322,941.4353,942.2318,0,1,left,0.2692,,942.2346,943.0986,0,0,left,943.1015,944.0149,0,0,left,1,944.015,944.015,944.0177,945.5142,0,11,11,11,1,0.2,0.8,0.2,0.8,,,,,,,,,,,,,,,0.3394,,0.8,0.2,0.8,0.2,0.6,0.4,0.2,0.8,,,0.3826,,0.6,0.4,0.2,0.8,0.8,0.2,0.6,0.4,1,0
,,5e9fd839311b8018f88c99eb,66fc990c18cc4e2caba97e02,2024-10-02_02h52.58.945,mdp,2024.2.1,Win32,59.52380952,66fa4ebf79326e780c390304,,,,,,,,,,,,,,,,,,,,,945.5151,945.5151,945.5179,946.5513,0,1,left,0.5126,,946.5545,947.0811,0,1,left,947.084,947.9302,0,0,left,1,947.9307,947.9307,947.9332,949.4297,0,12,12,12,1,0.2,0.8,0.2,0.8,,,,,,,,,,,,,,,0.0031,,0.8,0.2,0.8,0.2,0.6,0.4,0.2,0.8,,,0.3048,,0.6,0.4,0.2,0.8,0.8,0.2,0.6,0.4,1,0
,,5e9fd839311b8018f88c99eb,66fc990c18cc4e2caba97e02,2024-10-02_02h52.58.945,mdp,2024.2.1,Win32,59.52380952,66fa4ebf79326e780c390304,,,,,,,,,,,,,,,,,,,,,949.4312,949.4312,949.434,950.2633,0,1,left,0.3034,,950.2665,950.7968,0,0,left,950.7997,951.365,0,0,left,1,951.3651,951.3655,951.3681,952.8628,0,13,13,13,1,0.2,0.8,0.2,0.8,,,,,,,,,,,,,,,0.0017,,0.8,0.2,0.8,0.2,0.6,0.4,0.2,0.8,,,0.0311,,0.6,0.4,0.2,0.8,0.8,0.2,0.6,0.4,1,0
,,5e9fd839311b8018f88c99eb,66fc990c18cc4e2caba97e02,2024-10-02_02h52.58.945,mdp,2024.2.1,Win32,59.52380952,66fa4ebf79326e780c390304,,,,,,,,,,,,,,,,,,,,,952.8644,952.8646,952.8671,953.6815,0,1,left,0.2833,,953.6848,954.2963,0,1,left,954.3,955.9147,0,0,left,1,955.915,955.915,955.9176,957.4141,0,14,14,14,1,0.2,0.8,0.2,0.8,,,,,,,,,,,,,,,0.0897,,0.4,0.6,0.4,0.6,0.6,0.4,0.2,0.8,,,1.0849,,0.6,0.4,0.2,0.8,0.8,0.2,0.6,0.4,1,0
,,5e9fd839311b8018f88c99eb,66fc990c18cc4e2caba97e02,2024-10-02_02h52.58.945,mdp,2024.2.1,Win32,59.52380952,66fa4ebf79326e780c390304,,,,,,,,,,,,,,,,,,,,,957.4155,957.4155,957.4181,958.3142,0,0,left,0.3686,,958.3171,959.1968,0,1,left,959.1996,960.0299,0,0,left,1,960.0301,960.0302,960.0329,961.5294,0,15,15,15,1,0.2,0.8,0.2,0.8,,,,,,,,,,,,,,,0.3392,,0.4,0.6,0.4,0.6,0.6,0.4,0.2,0.8,,,0.3016,,0.6,0.4,0.2,0.8,0.8,0.2,0.6,0.4,1,0
,,5e9fd839311b8018f88c99eb,66fc990c18cc4e2caba97e02,2024-10-02_02h52.58.945,mdp,2024.2.1,Win32,59.52380952,66fa4ebf79326e780c390304,,,,,,,,,,,,,,,,,,,,,961.5309,961.531,961.5334,962.1159,0,1,left,0.0592,,962.1188,962.9481,0,0,left,962.951,964.1483,0,0,left,1,964.1484,964.1484,964.1513,965.6471,0,16,16,16,1,0.2,0.8,0.2,0.8,,,,,,,,,,,,,,,0.2875,,0.4,0.6,0.4,0.6,0.6,0.4,0.2,0.8,,,0.6556,,0.6,0.4,0.2,0.8,0.8,0.2,0.6,0.4,1,0
,,5e9fd839311b8018f88c99eb,66fc990c18cc4e2caba97e02,2024-10-02_02h52.58.945,mdp,2024.2.1,Win32,59.52380952,66fa4ebf79326e780c390304,,,,,,,,,,,,,,,,,,,,,965.6479,965.648,965.6507,966.1996,0,1,left,0.0281,,966.2025,966.8993,0,0,left,966.9016,967.83,0,1,left,0,967.8303,967.8304,967.8336,969.3303,0,17,17,17,1,0.2,0.8,0.2,0.8,,,,,,,,,,,,,,,0.1762,,0.4,0.6,0.4,0.6,0.6,0.4,0.2,0.8,,,0.4013,,0.6,0.4,0.2,0.8,0.8,0.2,0.6,0.4,1,0
,,5e9fd839311b8018f88c99eb,66fc990c18cc4e2caba97e02,2024-10-02_02h52.58.945,mdp,2024.2.1,Win32,59.52380952,66fa4ebf79326e780c390304,,,,,,,,,,,,,,,,,,,,,969.3313,969.3314,969.3342,969.9466,0,0,left,0.0867,,969.9496,970.6316,0,0,left,970.6345,971.6465,0,1,left,0,971.6472,971.6473,971.6496,973.1461,0,18,18,18,1,0.2,0.8,0.2,0.8,,,,,,,,,,,,,,,0.1404,,0.4,0.6,0.4,0.6,0.6,0.4,0.2,0.8,,,0.4861,,0.6,0.4,0.2,0.8,0.8,0.2,0.6,0.4,1,0
,,5e9fd839311b8018f88c99eb,66fc990c18cc4e2caba97e02,2024-10-02_02h52.58.945,mdp,2024.2.1,Win32,59.52380952,66fa4ebf79326e780c390304,,,,,,,,,,,,,,,,,,,,,973.1477,973.1478,973.1504,973.8642,1,1,right,0.1826,,973.8671,974.698,1,1,right,974.7024,976.1664,1,1,right,0,976.1665,976.1665,976.1693,977.6626,0,19,19,19,1,0.2,0.8,0.2,0.8,,,,,,,,,,,,,,,0.2869,,0.4,0.6,0.4,0.6,0.6,0.4,0.2,0.8,,,0.9304,,0.4,0.6,0.8,0.2,0.8,0.2,0.6,0.4,1,0
,,5e9fd839311b8018f88c99eb,66fc990c18cc4e2caba97e02,2024-10-02_02h52.58.945,mdp,2024.2.1,Win32,59.52380952,66fa4ebf79326e780c390304,,,,,,,,,,,,,,,,,,,,,977.6643,977.6644,977.667,978.3992,1,0,right,0.2093,,978.4015,979.1797,1,0,right,979.1845,980.4167,1,0,right,1,980.4169,980.417,980.4193,981.9126,0,20,20,20,1,0.2,0.8,0.2,0.8,,,,,,,,,,,,,,,0.2337,,0.4,0.6,0.4,0.6,0.6,0.4,0.2,0.8,,,0.6885,,0.4,0.6,0.8,0.2,0.8,0.2,0.6,0.4,1,0
,,5e9fd839311b8018f88c99eb,66fc990c18cc4e2caba97e02,2024-10-02_02h52.58.945,mdp,2024.2.1,Win32,59.52380952,66fa4ebf79326e780c390304,,,,,,,,,,,,,,,,,,,,,981.9142,981.9143,981.917,982.5133,1,1,right,0.0699,,982.5163,983.1644,1,1,right,983.1686,983.8312,1,0,right,1,983.8313,983.8313,983.834,985.3305,0,21,21,21,1,0.2,0.8,0.2,0.8,,,,,,,,,,,,,,,0.1026,,0.4,0.6,0.4,0.6,0.6,0.4,0.2,0.8,,,0.1213,,0.4,0.6,0.8,0.2,0.8,0.2,0.6,0.4,1,0
,,5e9fd839311b8018f88c99eb,66fc990c18cc4e2caba97e02,2024-10-02_02h52.58.945,mdp,2024.2.1,Win32,59.52380952,66fa4ebf79326e780c390304,,,,,,,,,,,,,,,,,,,,,985.3312,985.3313,985.3343,985.8627,1,0,right,0.0012,,985.8664,986.4809,1,0,right,986.4841,987.0464,1,0,right,1,987.0465,987.0465,987.0493,988.5458,0,22,22,22,1,0.2,0.8,0.2,0.8,,,,,,,,,,,,,,,0.0791,,0.4,0.6,0.4,0.6,0.6,0.4,0.2,0.8,,,0.0233,,0.4,0.6,0.8,0.2,0.8,0.2,0.6,0.4,1,0
,,5e9fd839311b8018f88c99eb,66fc990c18cc4e2caba97e02,2024-10-02_02h52.58.945,mdp,2024.2.1,Win32,59.52380952,66fa4ebf79326e780c390304,,,,,,,,,,,,,,,,,,,,,988.5471,988.5471,988.5498,989.2976,1,0,right,0.2175,,989.3001,989.8306,1,1,right,989.8338,990.5316,1,0,right,1,990.532,990.532,990.5349,992.0299,0,23,23,23,1,0.2,0.8,0.2,0.8,,,,,,,,,,,,,,,0.0013,,0.4,0.6,0.4,0.6,0.6,0.4,0.2,0.8,,,0.1637,,0.2,0.8,0.4,0.6,0.8,0.2,0.6,0.4,1,0
,,5e9fd839311b8018f88c99eb,66fc990c18cc4e2caba97e02,2024-10-02_02h52.58.945,mdp,2024.2.1,Win32,59.52380952,66fa4ebf79326e780c390304,,,,,,,,,,,,,,,,,,,,,992.0308,992.031,992.0337,992.7461,1,1,right,0.1862,,992.7492,993.3682,1,1,right,993.3717,996.1295,1,1,right,0,996.1302,996.1302,996.1328,997.6301,0,24,24,24,1,0.2,0.8,0.2,0.8,,,,,,,,,,,,,,,0.0827,,0.4,0.6,0.4,0.6,0.6,0.4,0.2,0.8,,,2.2345,,0.4,0.6,0.6,0.4,0.8,0.2,0.6,0.4,1,0
,,5e9fd839311b8018f88c99eb,66fc990c18cc4e2caba97e02,2024-10-02_02h52.58.945,mdp,2024.2.1,Win32,59.52380952,66fa4ebf79326e780c390304,,,,,,,,,,,,,,,,,,,,,997.6316,997.6317,997.6347,998.214,1,0,right,0.0517,,998.2169,998.9637,1,0,right,998.9663,1000.1138,1,1,right,0,1000.1139,1000.114,1000.1167,1001.6148,0,25,25,25,1,0.2,0.8,0.2,0.8,,,,,,,,,,,,,,,0.2062,,0.4,0.6,0.4,0.6,0.6,0.4,0.2,0.8,,,0.6058,,0.4,0.6,0.6,0.4,0.8,0.2,0.6,0.4,1,0
,,5e9fd839311b8018f88c99eb,66fc990c18cc4e2caba97e02,2024-10-02_02h52.58.945,mdp,2024.2.1,Win32,59.52380952,66fa4ebf79326e780c390304,,,,,,,,,,,,,,,,,,,,,1001.6159,1001.616,1001.6186,1002.4125,0,1,left,0.2708,,1002.4165,1003.0666,0,1,left,1003.0692,1004.5307,0,0,left,1,1004.5309,1004.5309,1004.5333,1006.0299,0,26,26,26,1,0.2,0.8,0.2,0.8,,,,,,,,,,,,,,,0.114,,0.4,0.6,0.4,0.6,0.6,0.4,0.2,0.8,,,0.9214,,0.4,0.6,0.6,0.4,0.8,0.2,0.6,0.4,1,0
,,5e9fd839311b8018f88c99eb,66fc990c18cc4e2caba97e02,2024-10-02_02h52.58.945,mdp,2024.2.1,Win32,59.52380952,66fa4ebf79326e780c390304,,,,,,,,,,,,,,,,,,,,,1006.0312,1006.0314,1006.0353,1006.664,0,1,left,0.1024,,1006.6669,1007.2793,0,0,left,1007.2832,1008.0656,0,0,left,1,1008.066,1008.066,1008.0706,1009.5632,0,27,27,27,1,0.2,0.8,0.2,0.8,,,,,,,,,,,,,,,0.0872,,0.4,0.6,0.4,0.6,0.6,0.4,0.2,0.8,,,0.243,,0.4,0.6,0.6,0.4,0.8,0.2,0.6,0.4,1,0
,,5e9fd839311b8018f88c99eb,66fc990c18cc4e2caba97e02,2024-10-02_02h52.58.945,mdp,2024.2.1,Win32,59.52380952,66fa4ebf79326e780c390304,,,,,,,,,,,,,,,,,,,,,1009.5641,1009.5642,1009.5669,1010.097,0,1,left,0.0131,,1010.0999,1010.7142,0,1,left,1010.7169,1011.333,0,1,left,0,1011.3332,1011.3332,1011.3354,1012.8298,0,28,28,28,1,0.2,0.8,0.2,0.8,,,,,,,,,,,,,,,0.0929,,0.4,0.6,0.4,0.6,0.6,0.4,0.2,0.8,,,0.0815,,0.4,0.6,0.6,0.4,0.8,0.2,0.6,0.4,1,0
,,5e9fd839311b8018f88c99eb,66fc990c18cc4e2caba97e02,2024-10-02_02h52.58.945,mdp,2024.2.1,Win32,59.52380952,66fa4ebf79326e780c390304,,,,,,,,,,,,,,,,,,,,,1012.832,1012.832,1012.8352,1013.4304,1,1,right,0.069,,1013.4333,1014.1279,1,1,right,1014.1312,1014.8124,1,1,right,0,1014.8127,1014.8127,1014.8156,1016.3118,0,29,29,29,1,0.2,0.8,0.2,0.8,,,,,,,,,,,,,,,0.174,,0.4,0.6,0.4,0.6,0.6,0.4,0.2,0.8,,,0.1678,,0.4,0.6,0.6,0.4,0.8,0.2,0.6,0.4,1,0
,,5e9fd839311b8018f88c99eb,66fc990c18cc4e2caba97e02,2024-10-02_02h52.58.945,mdp,2024.2.1,Win32,59.52380952,66fa4ebf79326e780c390304,,,,,,,,,,,,,,,,,,,,,1016.3133,1016.3133,1016.316,1016.9124,1,1,right,0.0698,,1016.9155,1017.6466,1,1,right,1017.6499,1018.5331,1,0,right,1,1018.5332,1018.5333,1018.5356,1020.03,0,30,30,30,1,0.2,0.8,0.2,0.8,,,,,,,,,,,,,,,0.201,,0.4,0.6,0.4,0.6,0.6,0.4,0.2,0.8,,,0.3539,,0.8,0.2,0.4,0.6,0.8,0.2,0.6,0.4,1,0
,,5e9fd839311b8018f88c99eb,66fc990c18cc4e2caba97e02,2024-10-02_02h52.58.945,mdp,2024.2.1,Win32,59.52380952,66fa4ebf79326e780c390304,,,,,,,,,,,,,,,,,,,,,1020.031,1020.0311,1020.0339,1020.6657,1,1,right,0.1114,,1020.6686,1021.2967,1,1,right,1021.2998,1021.9124,1,1,right,0,1021.913,1021.913,1021.9159,1023.4132,0,31,31,31,1,0.2,0.8,0.2,0.8,,,,,,,,,,,,,,,0.1003,,0.4,0.6,0.4,0.6,0.6,0.4,0.2,0.8,,,0.087,,0.8,0.2,0.4,0.6,0.8,0.2,0.6,0.4,1,0
,,5e9fd839311b8018f88c99eb,66fc990c18cc4e2caba97e02,2024-10-02_02h52.58.945,mdp,2024.2.1,Win32,59.52380952,66fa4ebf79326e780c390304,,,,,,,,,,,,,,,,,,,,,1023.414,1023.4145,1023.4171,1024.1628,1,0,right,0.219,,1024.1657,1024.7802,1,0,right,1024.7828,1025.4821,1,1,right,0,1025.4825,1025.4827,1025.4855,1026.9796,0,32,32,32,1,0.2,0.8,0.2,0.8,,,,,,,,,,,,,,,0.0712,,0.4,0.6,0.4,0.6,0.2,0.8,0.8,0.2,,,0.1646,,0.8,0.2,0.4,0.6,0.8,0.2,0.6,0.4,1,0
,,5e9fd839311b8018f88c99eb,66fc990c18cc4e2caba97e02,2024-10-02_02h52.58.945,mdp,2024.2.1,Win32,59.52380952,66fa4ebf79326e780c390304,,,,,,,,,,,,,,,,,,,,,1026.9805,1026.9806,1026.9834,1027.7291,0,1,left,0.2212,,1027.7319,1028.2807,0,1,left,1028.2849,1028.8488,0,0,left,1,1028.8489,1028.8489,1028.8522,1030.3462,0,33,33,33,1,0.2,0.8,0.2,0.8,,,,,,,,,,,,,,,0.0134,,0.4,0.6,0.4,0.6,0.2,0.8,0.8,0.2,,,0.0273,,0.8,0.2,0.4,0.6,0.8,0.2,0.6,0.4,1,0
,,5e9fd839311b8018f88c99eb,66fc990c18cc4e2caba97e02,2024-10-02_02h52.58.945,mdp,2024.2.1,Win32,59.52380952,66fa4ebf79326e780c390304,,,,,,,,,,,,,,,,,,,,,1030.3472,1030.3472,1030.3503,1031.2639,1,1,right,0.3886,,1031.2668,1031.9639,1,0,right,1031.9665,1033.3458,1,1,right,0,1033.3459,1033.346,1033.3486,1034.845,0,34,34,34,1,0.2,0.8,0.2,0.8,,,,,,,,,,,,,,,0.1751,,0.4,0.6,0.4,0.6,0.2,0.8,0.8,0.2,,,0.8377,,0.6,0.4,0.8,0.2,0.8,0.2,0.6,0.4,1,0
,,5e9fd839311b8018f88c99eb,66fc990c18cc4e2caba97e02,2024-10-02_02h52.58.945,mdp,2024.2.1,Win32,59.52380952,66fa4ebf79326e780c390304,,,,,,,,,,,,,,,,,,,,,1034.8465,1034.8465,1034.8492,1035.8789,1,1,right,0.5019,,1035.8819,1036.6303,0,0,left,1036.6331,1037.2818,1,0,right,1,1037.2818,1037.2819,1037.2841,1038.7783,0,35,35,35,1,0.2,0.8,0.2,0.8,,,,,,,,,,,,,,,0.2166,,0.4,0.6,0.4,0.6,0.2,0.8,0.8,0.2,,,0.1271,,0.6,0.4,0.8,0.2,0.8,0.2,0.6,0.4,1,0
,,5e9fd839311b8018f88c99eb,66fc990c18cc4e2caba97e02,2024-10-02_02h52.58.945,mdp,2024.2.1,Win32,59.52380952,66fa4ebf79326e780c390304,,,,,,,,,,,,,,,,,,,,,1038.7803,1038.7803,1038.7832,1039.7302,1,1,right,0.4197,,1039.7327,1040.2978,0,1,left,1040.3008,1041.464,1,0,right,1,1041.4642,1041.4642,1041.4666,1042.9631,0,36,36,36,1,0.2,0.8,0.2,0.8,,,,,,,,,,,,,,,0.0426,,0.4,0.6,0.4,0.6,0.2,0.8,0.8,0.2,,,0.6216,,0.6,0.4,0.8,0.2,0.8,0.2,0.6,0.4,1,0
,,5e9fd839311b8018f88c99eb,66fc990c18cc4e2caba97e02,2024-10-02_02h52.58.945,mdp,2024.2.1,Win32,59.52380952,66fa4ebf79326e780c390304,,,,,,,,,,,,,,,,,,,,,1042.9642,1042.9642,1042.9667,1043.715,0,1,left,0.228,,1043.7177,1044.315,1,0,right,1044.3174,1045.2802,1,0,right,1,1045.2804,1045.2804,1045.2834,1046.7796,0,37,37,37,1,0.2,0.8,0.2,0.8,,,,,,,,,,,,,,,0.0763,,0.4,0.6,0.4,0.6,0.2,0.8,0.8,0.2,,,0.4233,,0.6,0.4,0.8,0.2,0.8,0.2,0.6,0.4,1,0
,,5e9fd839311b8018f88c99eb,66fc990c18cc4e2caba97e02,2024-10-02_02h52.58.945,mdp,2024.2.1,Win32,59.52380952,66fa4ebf79326e780c390304,,,,,,,,,,,,,,,,,,,,,1046.781,1046.7811,1046.7836,1047.6954,1,1,right,0.3873,,1047.6985,1048.7954,0,1,left,1048.7986,1050.53,0,0,left,1,1050.5301,1050.5301,1050.534,1052.0313,0,38,38,38,1,0.2,0.8,0.2,0.8,,,,,,,,,,,,,,,0.5677,,0.4,0.6,0.4,0.6,0.2,0.8,0.8,0.2,,,1.1951,,0.6,0.4,0.8,0.2,0.8,0.2,0.6,0.4,1,0
,,5e9fd839311b8018f88c99eb,66fc990c18cc4e2caba97e02,2024-10-02_02h52.58.945,mdp,2024.2.1,Win32,59.52380952,66fa4ebf79326e780c390304,,,,,,,,,,,,,,,,,,,,,1052.0328,1052.0328,1052.0354,1052.962,0,1,left,0.4036,,1052.9651,1053.5963,1,0,right,1053.5991,1054.2623,1,0,right,1,1054.2626,1054.2626,1054.2659,1055.7613,0,39,39,39,1,0.2,0.8,0.2,0.8,,,,,,,,,,,,,,,0.1163,,0.6,0.4,0.2,0.8,0.2,0.8,0.8,0.2,,,0.1229,,0.6,0.4,0.8,0.2,0.8,0.2,0.6,0.4,1,0
,,5e9fd839311b8018f88c99eb,66fc990c18cc4e2caba97e02,2024-10-02_02h52.58.945,mdp,2024.2.1,Win32,59.52380952,66fa4ebf79326e780c390304,,,,,,,,,,,,,,,,,,,,,1055.7628,1055.763,1055.7654,1056.6649,0,1,left,0.3766,,1056.6672,1058.0285,1,0,right,1058.0317,1059.0963,1,0,right,1,1059.0965,1059.0966,1059.099,1060.5946,0,40,40,40,1,0.2,0.8,0.2,0.8,,,,,,,,,,,,,,,0.8342,,0.6,0.4,0.2,0.8,0.2,0.8,0.8,0.2,,,0.5353,,0.6,0.4,0.8,0.2,0.8,0.2,0.6,0.4,1,0
,,5e9fd839311b8018f88c99eb,66fc990c18cc4e2caba97e02,2024-10-02_02h52.58.945,mdp,2024.2.1,Win32,59.52380952,66fa4ebf79326e780c390304,,,,,,,,,,,,,,,,,,,,,1060.5959,1060.5961,1060.5987,1061.5819,1,1,right,0.46,,1061.5844,1062.513,0,1,left,1062.5161,1063.3467,0,1,left,0,1063.3469,1063.3469,1063.35,1064.8466,0,41,41,41,1,0.2,0.8,0.2,0.8,,,,,,,,,,,,,,,0.4002,,0.6,0.4,0.2,0.8,0.2,0.8,0.8,0.2,,,0.2894,,0.6,0.4,0.8,0.2,0.8,0.2,0.6,0.4,1,0
,,5e9fd839311b8018f88c99eb,66fc990c18cc4e2caba97e02,2024-10-02_02h52.58.945,mdp,2024.2.1,Win32,59.52380952,66fa4ebf79326e780c390304,,,,,,,,,,,,,,,,,,,,,1064.8482,1064.8483,1064.8508,1065.6931,1,1,right,0.3181,,1065.697,1066.5951,1,1,right,1066.5981,1067.6465,0,0,left,1,1067.6466,1067.6466,1067.649,1069.146,0,42,42,42,1,0.2,0.8,0.2,0.8,,,,,,,,,,,,,,,0.3865,,0.6,0.4,0.2,0.8,0.2,0.8,0.8,0.2,,,0.5171,,0.6,0.4,0.8,0.2,0.8,0.2,0.6,0.4,1,0
,,5e9fd839311b8018f88c99eb,66fc990c18cc4e2caba97e02,2024-10-02_02h52.58.945,mdp,2024.2.1,Win32,59.52380952,66fa4ebf79326e780c390304,,,,,,,,,,,,,,,,,,,,,1069.1469,1069.1471,1069.1498,1070.1479,0,1,left,0.4779,,1070.1507,1071.146,1,0,right,1071.1487,1072.2617,1,1,right,0,1072.2622,1072.2622,1072.265,1073.7613,0,43,43,43,1,0.2,0.8,0.2,0.8,,,,,,,,,,,,,,,0.4694,,0.6,0.4,0.2,0.8,0.2,0.8,0.8,0.2,,,0.5889,,0.6,0.4,0.8,0.2,0.8,0.2,0.6,0.4,1,0
,,5e9fd839311b8018f88c99eb,66fc990c18cc4e2caba97e02,2024-10-02_02h52.58.945,mdp,2024.2.1,Win32,59.52380952,66fa4ebf79326e780c390304,,,,,,,,,,,,,,,,,,,,,1073.7629,1073.7629,1073.7656,1074.3464,1,1,right,0.0675,,1074.3494,1075.0616,1,0,right,1075.0646,1075.995,1,1,right,0,1075.9955,1075.9955,1075.998,1077.4944,0,44,44,44,1,0.2,0.8,0.2,0.8,,,,,,,,,,,,,,,0.1859,,0.6,0.4,0.2,0.8,0.2,0.8,0.8,0.2,,,0.4014,,0.6,0.4,0.8,0.2,0.8,0.2,0.6,0.4,1,0
,,5e9fd839311b8018f88c99eb,66fc990c18cc4e2caba97e02,2024-10-02_02h52.58.945,mdp,2024.2.1,Win32,59.52380952,66fa4ebf79326e780c390304,,,,,,,,,,,,,,,,,,,,,1077.4958,1077.4959,1077.4986,1078.195,0,1,left,0.1678,,1078.198,1079.1291,1,1,right,1079.1315,1080.8799,0,0,left,1,1080.88,1080.88,1080.8826,1082.3786,0,45,45,45,1,0.2,0.8,0.2,0.8,,,,,,,,,,,,,,,0.4013,,0.6,0.4,0.2,0.8,0.2,0.8,0.8,0.2,,,1.2041,,0.6,0.4,0.8,0.2,0.8,0.2,0.6,0.4,1,0
,,5e9fd839311b8018f88c99eb,66fc990c18cc4e2caba97e02,2024-10-02_02h52.58.945,mdp,2024.2.1,Win32,59.52380952,66fa4ebf79326e780c390304,,,,,,,,,,,,,,,,,,,,,1082.3795,1082.3796,1082.3825,1083.1795,0,1,left,0.2711,,1083.1821,1083.8462,0,1,left,1083.8485,1086.2967,0,0,left,1,1086.2969,1086.2969,1086.3012,1087.7942,0,46,46,46,1,0.2,0.8,0.2,0.8,,,,,,,,,,,,,,,0.1358,,0.6,0.4,0.2,0.8,0.2,0.8,0.8,0.2,,,1.9178,,0.6,0.4,0.8,0.2,0.8,0.2,0.6,0.4,1,0
,,5e9fd839311b8018f88c99eb,66fc990c18cc4e2caba97e02,2024-10-02_02h52.58.945,mdp,2024.2.1,Win32,59.52380952,66fa4ebf79326e780c390304,,,,,,,,,,,,,,,,,,,,,1087.7959,1087.7961,1087.7988,1088.3302,1,1,right,0.0088,,1088.3326,1088.9282,1,0,right,1088.931,1089.6978,1,0,right,1,1089.6979,1089.6979,1089.7001,1091.1942,0,47,47,47,1,0.2,0.8,0.2,0.8,,,,,,,,,,,,,,,0.068,,0.6,0.4,0.2,0.8,0.2,0.8,0.8,0.2,,,0.2295,,0.6,0.4,0.8,0.2,0.8,0.2,0.6,0.4,1,0
,,5e9fd839311b8018f88c99eb,66fc990c18cc4e2caba97e02,2024-10-02_02h52.58.945,mdp,2024.2.1,Win32,59.52380952,66fa4ebf79326e780c390304,,,,,,,,,,,,,,,,,,,,,1091.1958,1091.196,1091.1983,1092.0795,0,1,left,0.3522,,1092.0823,1092.6466,0,1,left,1092.6506,1093.2315,0,1,left,0,1093.2316,1093.2316,1093.2339,1094.7275,0,48,48,48,1,0.2,0.8,0.2,0.8,,,,,,,,,,,,,,,0.0437,,0.6,0.4,0.2,0.8,0.2,0.8,0.8,0.2,,,0.0458,,0.6,0.4,0.8,0.2,0.2,0.8,0.8,0.2,1,0
,,5e9fd839311b8018f88c99eb,66fc990c18cc4e2caba97e02,2024-10-02_02h52.58.945,mdp,2024.2.1,Win32,59.52380952,66fa4ebf79326e780c390304,,,,,,,,,,,,,,,,,,,,,1094.7289,1094.729,1094.7316,1095.7127,0,1,left,0.4517,,1095.7153,1096.5794,0,1,left,1096.5824,1097.4416,0,1,left,0,1097.4418,1097.4418,1097.445,1098.9452,0,49,49,49,1,0.2,0.8,0.2,0.8,,,,,,,,,,,,,,,0.3398,,0.6,0.4,0.2,0.8,0.2,0.8,0.8,0.2,,,0.3373,,0.6,0.4,0.8,0.2,0.2,0.8,0.8,0.2,1,0
,,5e9fd839311b8018f88c99eb,66fc990c18cc4e2caba97e02,2024-10-02_02h52.58.945,mdp,2024.2.1,Win32,59.52380952,66fa4ebf79326e780c390304,,,,,,,,,,,,,,,,,,,,,,,,,,,,,,,,,,,,,,,,,,,,,,,,,,,,,,,,1098.9457,1158.5995,0,3,3,7,1,imgs/cat.png,imgs/giraffe.png,imgs/lion.png,imgs/rabbit.png,imgs/kangaroo.png,,,,,,,,,,,,,,,,,,,,,,,,
,,5e9fd839311b8018f88c99eb,66fc990c18cc4e2caba97e02,2024-10-02_02h52.58.945,mdp,2024.2.1,Win32,59.52380952,66fa4ebf79326e780c390304,,,,,,,,,,,,,,1,seqs/st1seq18.csv,1158.6884,1160.6952,space,1.4868,,1160.702,1160.7021,1160.7043,1162.1275,1,1,right,0.8733,,1162.1303,1162.132,0,0,,1162.1339,1162.1356,0,0,,0,1162.1357,1162.1358,1162.1373,1163.6265,0,0,0,0,1,0.2,0.8,0.8,0.2,1,0,,,,,,,,,,,,,,,,,,,,,,,,,,,,,,,,,,,,
,,5e9fd839311b8018f88c99eb,66fc990c18cc4e2caba97e02,2024-10-02_02h52.58.945,mdp,2024.2.1,Win32,59.52380952,66fa4ebf79326e780c390304,,,,,,,,,,,,,,,,,,,,,1163.6282,1163.6282,1163.6308,1164.7627,0,0,left,0.6093,,1164.7653,1164.7669,0,1,,1164.7688,1164.7703,0,0,,1,1164.7704,1164.7704,1164.7721,1166.2779,0,1,1,1,1,0.2,0.8,0.8,0.2,1,0,,,,,,,,,,,,,,,,,,,,,,,,,,,,,,,,,,,,
,,5e9fd839311b8018f88c99eb,66fc990c18cc4e2caba97e02,2024-10-02_02h52.58.945,mdp,2024.2.1,Win32,59.52380952,66fa4ebf79326e780c390304,,,,,,,,,,,,,,,,,,,,,1166.2788,1166.2791,1166.2813,1166.8952,1,0,right,0.0835,,1166.8977,1166.8994,0,0,,1166.9012,1166.9029,0,0,,1,1166.9029,1166.9029,1166.9059,1168.3937,0,2,2,2,1,0.2,0.8,0.8,0.2,1,0,,,,,,,,,,,,,,,,,,,,,,,,,,,,,,,,,,,,
,,5e9fd839311b8018f88c99eb,66fc990c18cc4e2caba97e02,2024-10-02_02h52.58.945,mdp,2024.2.1,Win32,59.52380952,66fa4ebf79326e780c390304,,,,,,,,,,,,,,,,,,,,,1168.3951,1168.3952,1168.3977,1169.3783,0,0,left,0.451,,1169.3809,1169.3825,0,1,,1169.3843,1169.3857,0,0,,1,1169.3858,1169.3859,1169.3874,1170.8763,0,3,3,3,1,0.2,0.8,0.8,0.2,1,0,,,,,,,,,,,,,,,,,,,,,,,,,,,,,,,,,,,,
,,5e9fd839311b8018f88c99eb,66fc990c18cc4e2caba97e02,2024-10-02_02h52.58.945,mdp,2024.2.1,Win32,59.52380952,66fa4ebf79326e780c390304,,,,,,,,,,,,,,,,,,,,,1170.8777,1170.8778,1170.8802,1172.0103,1,0,right,0.6014,,1172.0132,1172.0148,0,0,,1172.0167,1172.0182,0,0,,1,1172.0183,1172.0184,1172.02,1173.5096,0,4,4,4,1,0.2,0.8,0.8,0.2,1,0,,,,,,,,,,,,,,,,,,,,,,,,,,,,,,,,,,,,
,,5e9fd839311b8018f88c99eb,66fc990c18cc4e2caba97e02,2024-10-02_02h52.58.945,mdp,2024.2.1,Win32,59.52380952,66fa4ebf79326e780c390304,,,,,,,,,,,,,,,,,,,,,1173.511,1173.511,1173.5137,1174.2613,0,1,left,0.2178,,1174.2642,1174.2658,0,1,,1174.2676,1174.2696,0,0,,0,1174.2698,1174.2698,1174.272,1175.7596,0,5,5,5,1,0.2,0.8,0.8,0.2,1,0,,,,,,,,,,,,,,,,,,,,,,,,,,,,,,,,,,,,
,,5e9fd839311b8018f88c99eb,66fc990c18cc4e2caba97e02,2024-10-02_02h52.58.945,mdp,2024.2.1,Win32,59.52380952,66fa4ebf79326e780c390304,,,,,,,,,,,,,,,,,,,,,1175.7608,1175.7609,1175.7636,1176.7933,1,0,right,0.5013,,1176.7965,1176.7983,0,1,,1176.8,1176.8016,0,1,,1,1176.8017,1176.8017,1176.8034,1178.2943,0,6,6,6,1,0.2,0.8,0.8,0.2,1,0,,,,,,,,,,,,,,,,,,,,,,,,,,,,,,,,,,,,
,,5e9fd839311b8018f88c99eb,66fc990c18cc4e2caba97e02,2024-10-02_02h52.58.945,mdp,2024.2.1,Win32,59.52380952,66fa4ebf79326e780c390304,,,,,,,,,,,,,,,,,,,,,1178.2952,1178.2952,1178.2983,1178.9772,0,1,left,0.1508,,1178.9801,1178.9818,0,0,,1178.9838,1178.9854,0,1,,0,1178.9855,1178.9855,1178.9872,1180.4762,0,7,7,7,1,0.2,0.8,0.8,0.2,1,0,,,,,,,,,,,,,,,,,,,,,,,,,,,,,,,,,,,,
,,5e9fd839311b8018f88c99eb,66fc990c18cc4e2caba97e02,2024-10-02_02h52.58.945,mdp,2024.2.1,Win32,59.52380952,66fa4ebf79326e780c390304,,,,,,,,,,,,,,,,,,,,,1180.4775,1180.4776,1180.4801,1181.5439,0,1,left,0.5345,,1181.5471,1181.5494,0,1,,1181.5515,1181.5531,0,1,,0,1181.5532,1181.5532,1181.5548,1183.0431,0,8,8,8,1,0.2,0.8,0.8,0.2,1,0,,,,,,,,,,,,,,,,,,,,,,,,,,,,,,,,,,,,
,,5e9fd839311b8018f88c99eb,66fc990c18cc4e2caba97e02,2024-10-02_02h52.58.945,mdp,2024.2.1,Win32,59.52380952,66fa4ebf79326e780c390304,,,,,,,,,,,,,,,,,,,,,1183.0448,1183.0448,1183.0473,1184.1433,1,0,right,0.5703,,1184.1465,1184.1483,0,0,,1184.1515,1184.1534,0,0,,1,1184.1536,1184.1536,1184.1561,1185.644,0,9,9,9,1,0.2,0.8,0.8,0.2,1,0,,,,,,,,,,,,,,,,,,,,,,,,,,,,,,,,,,,,
,,5e9fd839311b8018f88c99eb,66fc990c18cc4e2caba97e02,2024-10-02_02h52.58.945,mdp,2024.2.1,Win32,59.52380952,66fa4ebf79326e780c390304,,,,,,,,,,,,,,,,,,,,,1185.6447,1185.6448,1185.6475,1186.4618,0,1,left,0.283,,1186.4644,1186.4661,0,0,,1186.4679,1186.4695,0,1,,0,1186.4696,1186.4696,1186.4713,1187.9595,0,10,10,10,1,0.2,0.8,0.8,0.2,1,0,,,,,,,,,,,,,,,,,,,,,,,,,,,,,,,,,,,,
,,5e9fd839311b8018f88c99eb,66fc990c18cc4e2caba97e02,2024-10-02_02h52.58.945,mdp,2024.2.1,Win32,59.52380952,66fa4ebf79326e780c390304,,,,,,,,,,,,,,,,,,,,,1187.9609,1187.961,1187.9635,1188.7109,0,0,left,0.2167,,1188.7139,1188.7154,0,0,,1188.7176,1188.7193,0,0,,1,1188.7193,1188.7193,1188.721,1190.2106,0,11,11,11,1,0.8,0.2,0.2,0.8,1,0,,,,,,,,,,,,,,,,,,,,,,,,,,,,,,,,,,,,
,,5e9fd839311b8018f88c99eb,66fc990c18cc4e2caba97e02,2024-10-02_02h52.58.945,mdp,2024.2.1,Win32,59.52380952,66fa4ebf79326e780c390304,,,,,,,,,,,,,,,,,,,,,1190.2114,1190.2115,1190.2142,1190.9281,1,1,right,0.193,,1190.9313,1190.9332,0,1,,1190.9352,1190.9369,0,1,,0,1190.937,1190.937,1190.9405,1192.4261,0,12,12,12,1,0.6,0.4,0.4,0.6,1,0,,,,,,,,,,,,,,,,,,,,,,,,,,,,,,,,,,,,
,,5e9fd839311b8018f88c99eb,66fc990c18cc4e2caba97e02,2024-10-02_02h52.58.945,mdp,2024.2.1,Win32,59.52380952,66fa4ebf79326e780c390304,,,,,,,,,,,,,,,,,,,,,1192.4272,1192.4274,1192.4299,1193.4109,0,0,left,0.4667,,1193.4139,1193.4154,0,0,,1193.4173,1193.4189,0,0,,1,1193.4189,1193.4189,1193.4206,1194.9093,0,13,13,13,1,0.6,0.4,0.4,0.6,1,0,,,,,,,,,,,,,,,,,,,,,,,,,,,,,,,,,,,,
,,5e9fd839311b8018f88c99eb,66fc990c18cc4e2caba97e02,2024-10-02_02h52.58.945,mdp,2024.2.1,Win32,59.52380952,66fa4ebf79326e780c390304,,,,,,,,,,,,,,,,,,,,,1194.9106,1194.9106,1194.9134,1195.7097,1,1,right,0.267,,1195.713,1195.7147,0,0,,1195.7167,1195.7186,0,0,,0,1195.7186,1195.7186,1195.721,1197.2093,0,14,14,14,1,0.6,0.4,0.4,0.6,1,0,,,,,,,,,,,,,,,,,,,,,,,,,,,,,,,,,,,,
,,5e9fd839311b8018f88c99eb,66fc990c18cc4e2caba97e02,2024-10-02_02h52.58.945,mdp,2024.2.1,Win32,59.52380952,66fa4ebf79326e780c390304,,,,,,,,,,,,,,,,,,,,,1197.2106,1197.2107,1197.2133,1198.3779,0,1,left,0.6419,,1198.3813,1198.3829,0,1,,1198.3848,1198.3865,0,0,,0,1198.3865,1198.3865,1198.3882,1199.8762,0,15,15,15,1,0.6,0.4,0.4,0.6,1,0,,,,,,,,,,,,,,,,,,,,,,,,,,,,,,,,,,,,
,,5e9fd839311b8018f88c99eb,66fc990c18cc4e2caba97e02,2024-10-02_02h52.58.945,mdp,2024.2.1,Win32,59.52380952,66fa4ebf79326e780c390304,,,,,,,,,,,,,,,,,,,,,1199.8773,1199.8773,1199.8802,1200.4285,1,1,right,0.0156,,1200.4309,1200.4326,0,0,,1200.4344,1200.4361,0,1,,0,1200.4361,1200.4361,1200.4377,1201.9279,0,16,16,16,1,0.8,0.2,0.6,0.4,1,0,,,,,,,,,,,,,,,,,,,,,,,,,,,,,,,,,,,,
,,5e9fd839311b8018f88c99eb,66fc990c18cc4e2caba97e02,2024-10-02_02h52.58.945,mdp,2024.2.1,Win32,59.52380952,66fa4ebf79326e780c390304,,,,,,,,,,,,,,,,,,,,,1201.9287,1201.9288,1201.9311,1202.4432,0,0,left,0.0012,,1202.4465,1202.4481,0,0,,1202.4499,1202.4516,0,0,,1,1202.4516,1202.4516,1202.4533,1203.9427,0,17,17,17,1,0.8,0.2,0.6,0.4,1,0,,,,,,,,,,,,,,,,,,,,,,,,,,,,,,,,,,,,
,,5e9fd839311b8018f88c99eb,66fc990c18cc4e2caba97e02,2024-10-02_02h52.58.945,mdp,2024.2.1,Win32,59.52380952,66fa4ebf79326e780c390304,,,,,,,,,,,,,,,,,,,,,1203.944,1203.944,1203.9471,1204.4944,1,0,right,0.0177,,1204.4971,1204.4989,0,1,,1204.502,1204.5038,0,0,,1,1204.504,1204.5041,1204.5071,1205.9925,0,18,18,18,1,0.6,0.4,0.8,0.2,1,0,,,,,,,,,,,,,,,,,,,,,,,,,,,,,,,,,,,,
,,5e9fd839311b8018f88c99eb,66fc990c18cc4e2caba97e02,2024-10-02_02h52.58.945,mdp,2024.2.1,Win32,59.52380952,66fa4ebf79326e780c390304,,,,,,,,,,,,,,,,,,,,,1205.9938,1205.9938,1205.9967,1206.8598,1,0,right,0.3519,,1206.8627,1206.8645,0,0,,1206.8663,1206.868,0,0,,1,1206.8681,1206.8681,1206.8697,1208.3592,0,19,19,19,1,0.6,0.4,0.8,0.2,1,0,,,,,,,,,,,,,,,,,,,,,,,,,,,,,,,,,,,,
,,5e9fd839311b8018f88c99eb,66fc990c18cc4e2caba97e02,2024-10-02_02h52.58.945,mdp,2024.2.1,Win32,59.52380952,66fa4ebf79326e780c390304,,,,,,,,,,,,,,,,,,,,,1208.3607,1208.3607,1208.3634,1209.1274,0,1,left,0.2352,,1209.1303,1209.1319,0,1,,1209.1338,1209.1355,0,1,,0,1209.1357,1209.1357,1209.1373,1210.6298,0,20,20,20,1,0.6,0.4,0.8,0.2,1,0,,,,,,,,,,,,,,,,,,,,,,,,,,,,,,,,,,,,
,,5e9fd839311b8018f88c99eb,66fc990c18cc4e2caba97e02,2024-10-02_02h52.58.945,mdp,2024.2.1,Win32,59.52380952,66fa4ebf79326e780c390304,,,,,,,,,,,,,,,,,,,,,1210.6312,1210.6312,1210.6342,1211.2463,0,1,left,0.0851,,1211.2491,1211.2512,0,0,,1211.2533,1211.2551,0,0,,0,1211.2552,1211.2552,1211.2584,1212.7577,0,21,21,21,1,0.6,0.4,0.8,0.2,1,0,,,,,,,,,,,,,,,,,,,,,,,,,,,,,,,,,,,,
,,5e9fd839311b8018f88c99eb,66fc990c18cc4e2caba97e02,2024-10-02_02h52.58.945,mdp,2024.2.1,Win32,59.52380952,66fa4ebf79326e780c390304,,,,,,,,,,,,,,,,,,,,,1212.7593,1212.7593,1212.7627,1213.5949,0,0,left,0.3257,,1213.5978,1213.5995,0,0,,1213.6019,1213.6035,0,1,,1,1213.6035,1213.6036,1213.6053,1215.0927,0,22,22,22,1,0.6,0.4,0.8,0.2,1,0,,,,,,,,,,,,,,,,,,,,,,,,,,,,,,,,,,,,
,,5e9fd839311b8018f88c99eb,66fc990c18cc4e2caba97e02,2024-10-02_02h52.58.945,mdp,2024.2.1,Win32,59.52380952,66fa4ebf79326e780c390304,,,,,,,,,,,,,,,,,,,,,1215.0942,1215.0942,1215.0976,1216.0094,0,0,left,0.387,,1216.0131,1216.0149,0,0,,1216.0171,1216.0193,0,1,,1,1216.0195,1216.0196,1216.0215,1217.5105,0,23,23,23,1,0.6,0.4,0.8,0.2,1,0,,,,,,,,,,,,,,,,,,,,,,,,,,,,,,,,,,,,
,,5e9fd839311b8018f88c99eb,66fc990c18cc4e2caba97e02,2024-10-02_02h52.58.945,mdp,2024.2.1,Win32,59.52380952,66fa4ebf79326e780c390304,,,,,,,,,,,,,,,,,,,,,1217.5117,1217.5117,1217.5141,1218.4614,1,1,right,0.4172,,1218.4639,1218.4658,0,1,,1218.4677,1218.4694,0,0,,0,1218.4695,1218.4695,1218.4713,1219.9603,0,24,24,24,1,0.4,0.6,0.6,0.4,1,0,,,,,,,,,,,,,,,,,,,,,,,,,,,,,,,,,,,,
,,5e9fd839311b8018f88c99eb,66fc990c18cc4e2caba97e02,2024-10-02_02h52.58.945,mdp,2024.2.1,Win32,59.52380952,66fa4ebf79326e780c390304,,,,,,,,,,,,,,,,,,,,,1219.9611,1219.9611,1219.964,1220.7096,1,1,right,0.2189,,1220.7127,1220.7145,0,1,,1220.7164,1220.718,0,1,,0,1220.7181,1220.7181,1220.7197,1222.209,0,25,25,25,1,0.8,0.2,0.4,0.6,1,0,,,,,,,,,,,,,,,,,,,,,,,,,,,,,,,,,,,,
,,5e9fd839311b8018f88c99eb,66fc990c18cc4e2caba97e02,2024-10-02_02h52.58.945,mdp,2024.2.1,Win32,59.52380952,66fa4ebf79326e780c390304,,,,,,,,,,,,,,,,,,,,,1222.2103,1222.2103,1222.213,1223.4294,1,1,right,0.6932,,1223.4325,1223.4342,0,1,,1223.4363,1223.4378,0,0,,0,1223.4379,1223.438,1223.4411,1224.9436,0,26,26,26,1,0.8,0.2,0.4,0.6,1,0,,,,,,,,,,,,,,,,,,,,,,,,,,,,,,,,,,,,
,,5e9fd839311b8018f88c99eb,66fc990c18cc4e2caba97e02,2024-10-02_02h52.58.945,mdp,2024.2.1,Win32,59.52380952,66fa4ebf79326e780c390304,,,,,,,,,,,,,,,,,,,,,1224.9463,1224.9465,1224.9494,1225.9095,1,0,right,0.4346,,1225.9124,1225.9139,0,0,,1225.917,1225.9187,0,0,,1,1225.9188,1225.9189,1225.921,1227.4088,0,27,27,27,1,0.2,0.8,0.8,0.2,1,0,,,,,,,,,,,,,,,,,,,,,,,,,,,,,,,,,,,,
,,5e9fd839311b8018f88c99eb,66fc990c18cc4e2caba97e02,2024-10-02_02h52.58.945,mdp,2024.2.1,Win32,59.52380952,66fa4ebf79326e780c390304,,,,,,,,,,,,,,,,,,,,,1227.4103,1227.4103,1227.4131,1228.076,0,1,left,0.1368,,1228.0793,1228.0809,0,1,,1228.0828,1228.0844,0,1,,0,1228.0846,1228.0846,1228.0862,1229.5759,0,28,28,28,1,0.2,0.8,0.8,0.2,1,0,,,,,,,,,,,,,,,,,,,,,,,,,,,,,,,,,,,,
,,5e9fd839311b8018f88c99eb,66fc990c18cc4e2caba97e02,2024-10-02_02h52.58.945,mdp,2024.2.1,Win32,59.52380952,66fa4ebf79326e780c390304,,,,,,,,,,,,,,,,,,,,,1229.5771,1229.5772,1229.5796,1230.4275,0,1,left,0.3186,,1230.4298,1230.4314,0,0,,1230.4333,1230.435,0,1,,0,1230.4351,1230.4351,1230.4367,1231.9271,0,29,29,29,1,0.2,0.8,0.8,0.2,1,0,,,,,,,,,,,,,,,,,,,,,,,,,,,,,,,,,,,,
,,5e9fd839311b8018f88c99eb,66fc990c18cc4e2caba97e02,2024-10-02_02h52.58.945,mdp,2024.2.1,Win32,59.52380952,66fa4ebf79326e780c390304,,,,,,,,,,,,,,,,,,,,,1231.9279,1231.928,1231.9305,1232.6279,0,0,left,0.168,,1232.6305,1232.6322,0,0,,1232.6341,1232.6357,0,0,,1,1232.6358,1232.6358,1232.6376,1234.1273,0,30,30,30,1,0.6,0.4,0.2,0.8,1,0,,,,,,,,,,,,,,,,,,,,,,,,,,,,,,,,,,,,
,,5e9fd839311b8018f88c99eb,66fc990c18cc4e2caba97e02,2024-10-02_02h52.58.945,mdp,2024.2.1,Win32,59.52380952,66fa4ebf79326e780c390304,,,,,,,,,,,,,,,,,,,,,1234.1283,1234.1284,1234.1309,1234.8109,0,0,left,0.1544,,1234.8149,1234.8168,0,0,,1234.8187,1234.8204,0,0,,1,1234.8205,1234.8205,1234.8232,1236.3088,0,31,31,31,1,0.6,0.4,0.2,0.8,1,0,,,,,,,,,,,,,,,,,,,,,,,,,,,,,,,,,,,,
,,5e9fd839311b8018f88c99eb,66fc990c18cc4e2caba97e02,2024-10-02_02h52.58.945,mdp,2024.2.1,Win32,59.52380952,66fa4ebf79326e780c390304,,,,,,,,,,,,,,,,,,,,,1236.31,1236.31,1236.3126,1237.1807,1,1,right,0.3354,,1237.1835,1237.1854,0,1,,1237.1874,1237.1895,0,1,,0,1237.1896,1237.1896,1237.1925,1238.6958,0,32,32,32,1,0.6,0.4,0.2,0.8,1,0,,,,,,,,,,,,,,,,,,,,,,,,,,,,,,,,,,,,
,,5e9fd839311b8018f88c99eb,66fc990c18cc4e2caba97e02,2024-10-02_02h52.58.945,mdp,2024.2.1,Win32,59.52380952,66fa4ebf79326e780c390304,,,,,,,,,,,,,,,,,,,,,1238.6968,1238.6969,1238.6996,1239.4429,1,1,right,0.2188,,1239.4458,1239.4475,0,1,,1239.4493,1239.4509,0,1,,0,1239.4509,1239.451,1239.4527,1240.9428,0,33,33,33,1,0.6,0.4,0.2,0.8,1,0,,,,,,,,,,,,,,,,,,,,,,,,,,,,,,,,,,,,
,,5e9fd839311b8018f88c99eb,66fc990c18cc4e2caba97e02,2024-10-02_02h52.58.945,mdp,2024.2.1,Win32,59.52380952,66fa4ebf79326e780c390304,,,,,,,,,,,,,,,,,,,,,1240.9438,1240.9438,1240.9465,1242.0766,0,0,left,0.6074,,1242.0806,1242.0828,0,0,,1242.0847,1242.0864,0,0,,1,1242.0866,1242.0866,1242.0906,1243.5754,0,34,34,34,1,0.8,0.2,0.8,0.2,1,0,,,,,,,,,,,,,,,,,,,,,,,,,,,,,,,,,,,,
,,5e9fd839311b8018f88c99eb,66fc990c18cc4e2caba97e02,2024-10-02_02h52.58.945,mdp,2024.2.1,Win32,59.52380952,66fa4ebf79326e780c390304,,,,,,,,,,,,,,,,,,,,,1243.577,1243.577,1243.5807,1244.1934,1,0,right,0.0835,,1244.1966,1244.1983,0,0,,1244.2002,1244.2017,0,0,,1,1244.2017,1244.2017,1244.2035,1245.6926,0,35,35,35,1,0.8,0.2,0.8,0.2,1,0,,,,,,,,,,,,,,,,,,,,,,,,,,,,,,,,,,,,
,,5e9fd839311b8018f88c99eb,66fc990c18cc4e2caba97e02,2024-10-02_02h52.58.945,mdp,2024.2.1,Win32,59.52380952,66fa4ebf79326e780c390304,,,,,,,,,,,,,,,,,,,,,1245.6936,1245.6936,1245.6965,1246.4265,0,0,left,0.2019,,1246.429,1246.4307,0,0,,1246.4325,1246.4342,0,0,,1,1246.4343,1246.4344,1246.436,1247.9256,0,36,36,36,1,0.8,0.2,0.8,0.2,1,0,,,,,,,,,,,,,,,,,,,,,,,,,,,,,,,,,,,,
,,5e9fd839311b8018f88c99eb,66fc990c18cc4e2caba97e02,2024-10-02_02h52.58.945,mdp,2024.2.1,Win32,59.52380952,66fa4ebf79326e780c390304,,,,,,,,,,,,,,,,,,,,,1247.9267,1247.9268,1247.9293,1248.4618,1,0,right,0.0101,,1248.464,1248.4656,0,0,,1248.4674,1248.469,0,0,,1,1248.4691,1248.4692,1248.4711,1249.9587,0,37,37,37,1,0.6,0.4,0.4,0.6,1,0,,,,,,,,,,,,,,,,,,,,,,,,,,,,,,,,,,,,
,,5e9fd839311b8018f88c99eb,66fc990c18cc4e2caba97e02,2024-10-02_02h52.58.945,mdp,2024.2.1,Win32,59.52380952,66fa4ebf79326e780c390304,,,,,,,,,,,,,,,,,,,,,1249.9601,1249.9601,1249.9628,1250.6105,0,1,left,0.117,,1250.613,1250.6146,0,0,,1250.6166,1250.6181,0,1,,0,1250.6182,1250.6182,1250.6199,1252.1086,0,38,38,38,1,0.6,0.4,0.4,0.6,1,0,,,,,,,,,,,,,,,,,,,,,,,,,,,,,,,,,,,,
,,5e9fd839311b8018f88c99eb,66fc990c18cc4e2caba97e02,2024-10-02_02h52.58.945,mdp,2024.2.1,Win32,59.52380952,66fa4ebf79326e780c390304,,,,,,,,,,,,,,,,,,,,,1252.1098,1252.11,1252.1131,1252.6935,1,1,right,0.0557,,1252.6968,1252.6991,0,1,,1252.701,1252.7027,0,0,,0,1252.7027,1252.7028,1252.7045,1254.1926,0,39,39,39,1,0.6,0.4,0.4,0.6,1,0,,,,,,,,,,,,,,,,,,,,,,,,,,,,,,,,,,,,
,,5e9fd839311b8018f88c99eb,66fc990c18cc4e2caba97e02,2024-10-02_02h52.58.945,mdp,2024.2.1,Win32,59.52380952,66fa4ebf79326e780c390304,,,,,,,,,,,,,,,,,,,,,1254.1935,1254.1936,1254.199,1255.1778,1,1,right,0.4513,,1255.1802,1255.1819,0,0,,1255.184,1255.1856,0,1,,0,1255.1857,1255.1858,1255.1881,1256.6768,0,40,40,40,1,0.6,0.4,0.4,0.6,1,0,,,,,,,,,,,,,,,,,,,,,,,,,,,,,,,,,,,,
