init_exp.started,init_exp.stopped,participant,session,date,expName,psychopyVersion,OS,frameRate,study_id,disp_instruction.started,disp_instruction.stopped,instruction.thisRepN,instruction.thisTrialN,instruction.thisN,instruction.thisIndex,instruction.ran,instimg_path,consent.started,consent.stopped,key_resp_3.keys,key_resp_3.rt,key_resp_3.duration,n_steps,sequence_path,init_block.started,init_block.stopped,key_resp.keys,key_resp.rt,key_resp.duration,init_trials.started,init_trials.stopped,step0.started,step0.stopped,act0,s1,res0.keys,res0.rt,res0.duration,step1.started,step1.stopped,act1,s2,res1.keys,step2.started,step2.stopped,act2,s3,res2.keys,rew,reward_comp.started,reward_comp.stopped,reward_disp.started,reward_disp.stopped,trials.thisRepN,trials.thisTrialN,trials.thisN,trials.thisIndex,trials.ran,s00a0s10,s00a0s11,s00a1s10,s00a1s11,rew10,rew11,break_block.started,break_block.stopped,block.thisRepN,block.thisTrialN,block.thisN,block.thisIndex,block.ran,s00path,s10path,s11path,s20path,s21path,res1.rt,res1.duration,s10a0s20,s10a0s21,s10a1s20,s10a1s21,s11a0s20,s11a0s21,s11a1s20,s11a1s21,rew20,rew21,res2.rt,res2.duration,s20a0s30,s20a0s31,s20a1s30,s20a1s31,s21a0s30,s21a0s31,s21a1s30,s21a1s31,rew30,rew31
0.0002,0.0009,5ed9c3054268815691ed0e2c,66fcce14af1672a1e20f76a1,2024-10-01_22h02.23.319,mdp,2024.2.1,Win32,119.047619,66fa4ebf79326e780c390304,,,,,,,,,,,,,,,,,,,,,,,,,,,,,,,,,,,,,,,,,,,,,,,,,,,,,,,,,,,,,,,,,,,,,,,,,,,,,,,,,,,,,,,,,,,
,,5ed9c3054268815691ed0e2c,66fcce14af1672a1e20f76a1,2024-10-01_22h02.23.319,mdp,2024.2.1,Win32,119.047619,66fa4ebf79326e780c390304,0.0034,331.3286,0,0,0,0,1,rlnn_exp/rlnn_exp.001.png,,,,,,,,,,,,,,,,,,,,,,,,,,,,,,,,,,,,,,,,,,,,,,,,,,,,,,,,,,,,,,,,,,,,,,,,,,,,,,,,,,,
,,5ed9c3054268815691ed0e2c,66fcce14af1672a1e20f76a1,2024-10-01_22h02.23.319,mdp,2024.2.1,Win32,119.047619,66fa4ebf79326e780c390304,331.329,355.3771,0,1,1,1,1,rlnn_exp/rlnn_exp.002.png,,,,,,,,,,,,,,,,,,,,,,,,,,,,,,,,,,,,,,,,,,,,,,,,,,,,,,,,,,,,,,,,,,,,,,,,,,,,,,,,,,,
,,5ed9c3054268815691ed0e2c,66fcce14af1672a1e20f76a1,2024-10-01_22h02.23.319,mdp,2024.2.1,Win32,119.047619,66fa4ebf79326e780c390304,355.3775,384.3558,0,2,2,2,1,rlnn_exp/rlnn_exp.003.png,,,,,,,,,,,,,,,,,,,,,,,,,,,,,,,,,,,,,,,,,,,,,,,,,,,,,,,,,,,,,,,,,,,,,,,,,,,,,,,,,,,
,,5ed9c3054268815691ed0e2c,66fcce14af1672a1e20f76a1,2024-10-01_22h02.23.319,mdp,2024.2.1,Win32,119.047619,66fa4ebf79326e780c390304,384.3561,401.2558,0,3,3,3,1,rlnn_exp/rlnn_exp.004.png,,,,,,,,,,,,,,,,,,,,,,,,,,,,,,,,,,,,,,,,,,,,,,,,,,,,,,,,,,,,,,,,,,,,,,,,,,,,,,,,,,,
,,5ed9c3054268815691ed0e2c,66fcce14af1672a1e20f76a1,2024-10-01_22h02.23.319,mdp,2024.2.1,Win32,119.047619,66fa4ebf79326e780c390304,,,,,,,,,401.2561,495.8993,y,84.6339,,,,,,,,,,,,,,,,,,,,,,,,,,,,,,,,,,,,,,,,,,,,,,,,,,,,,,,,,,,,,,,,,,,,,,,,,,,,,,,
,,5ed9c3054268815691ed0e2c,66fcce14af1672a1e20f76a1,2024-10-01_22h02.23.319,mdp,2024.2.1,Win32,119.047619,66fa4ebf79326e780c390304,,,,,,,,,,,,,,1,seqs/st1seq32.csv,495.9024,497.6011,space,1.1915,,497.6028,497.6028,497.603,536.1975,0,0,left,38.078,,536.1978,536.1986,,1,,536.1988,536.1993,,0,,1,536.1994,536.1994,536.1995,537.6989,0,0,0,0,1,0.6,0.4,0.2,0.8,1,0,,,,,,,,,,,,,,,,,,,,,,,,,,,,,,,,,,,,
,,5ed9c3054268815691ed0e2c,66fcce14af1672a1e20f76a1,2024-10-01_22h02.23.319,mdp,2024.2.1,Win32,119.047619,66fa4ebf79326e780c390304,,,,,,,,,,,,,,,,,,,,,537.6992,537.6992,537.6992,542.0531,0,1,left,3.8464,,542.0537,542.054,,1,,542.0542,542.0545,,0,,0,542.0545,542.0545,542.0547,543.5546,0,1,1,1,1,0.6,0.4,0.2,0.8,1,0,,,,,,,,,,,,,,,,,,,,,,,,,,,,,,,,,,,,
,,5ed9c3054268815691ed0e2c,66fcce14af1672a1e20f76a1,2024-10-01_22h02.23.319,mdp,2024.2.1,Win32,119.047619,66fa4ebf79326e780c390304,,,,,,,,,,,,,,,,,,,,,543.5548,543.5548,543.5555,545.7819,0,0,left,1.722299999,,545.7824,545.7828,,0,,545.783,545.7832,,1,,1,545.7832,545.7832,545.7834,547.2833,0,2,2,2,1,0.6,0.4,0.2,0.8,1,0,,,,,,,,,,,,,,,,,,,,,,,,,,,,,,,,,,,,
,,5ed9c3054268815691ed0e2c,66fcce14af1672a1e20f76a1,2024-10-01_22h02.23.319,mdp,2024.2.1,Win32,119.047619,66fa4ebf79326e780c390304,,,,,,,,,,,,,,,,,,,,,547.2835,547.2835,547.2842,554.0735,0,0,left,6.2846,,554.0741,554.0746,,0,,554.0748,554.0751,,0,,1,554.0751,554.0751,554.0754,555.5748,0,3,3,3,1,0.6,0.4,0.2,0.8,1,0,,,,,,,,,,,,,,,,,,,,,,,,,,,,,,,,,,,,
,,5ed9c3054268815691ed0e2c,66fcce14af1672a1e20f76a1,2024-10-01_22h02.23.319,mdp,2024.2.1,Win32,119.047619,66fa4ebf79326e780c390304,,,,,,,,,,,,,,,,,,,,,555.575,555.575,555.5755,557.1848,0,0,left,1.1075,,557.1852,557.1855,,0,,557.1858,557.1861,,1,,1,557.1861,557.1861,557.1863,558.6862,0,4,4,4,1,0.6,0.4,0.2,0.8,1,0,,,,,,,,,,,,,,,,,,,,,,,,,,,,,,,,,,,,
,,5ed9c3054268815691ed0e2c,66fcce14af1672a1e20f76a1,2024-10-01_22h02.23.319,mdp,2024.2.1,Win32,119.047619,66fa4ebf79326e780c390304,,,,,,,,,,,,,,,,,,,,,558.6865,558.6865,558.6872,560.0459,0,0,left,0.8554,,560.0464,560.0468,,0,,560.0469,560.0472,,0,,1,560.0472,560.0472,560.0474,561.5474,0,5,5,5,1,0.6,0.4,0.2,0.8,1,0,,,,,,,,,,,,,,,,,,,,,,,,,,,,,,,,,,,,
,,5ed9c3054268815691ed0e2c,66fcce14af1672a1e20f76a1,2024-10-01_22h02.23.319,mdp,2024.2.1,Win32,119.047619,66fa4ebf79326e780c390304,,,,,,,,,,,,,,,,,,,,,561.5476,561.5476,561.5482,562.6068,0,0,left,0.5507,,562.6074,562.6076,,1,,562.6078,562.6081,,1,,1,562.6081,562.6081,562.6083,564.1082,0,6,6,6,1,0.6,0.4,0.2,0.8,1,0,,,,,,,,,,,,,,,,,,,,,,,,,,,,,,,,,,,,
,,5ed9c3054268815691ed0e2c,66fcce14af1672a1e20f76a1,2024-10-01_22h02.23.319,mdp,2024.2.1,Win32,119.047619,66fa4ebf79326e780c390304,,,,,,,,,,,,,,,,,,,,,564.1085,564.1085,564.1091,566.0852,0,0,left,1.4705,,566.0858,566.086,,0,,566.0863,566.0865,,0,,1,566.0866,566.0866,566.0867,567.5867,0,7,7,7,1,0.8,0.2,0.8,0.2,1,0,,,,,,,,,,,,,,,,,,,,,,,,,,,,,,,,,,,,
,,5ed9c3054268815691ed0e2c,66fcce14af1672a1e20f76a1,2024-10-01_22h02.23.319,mdp,2024.2.1,Win32,119.047619,66fa4ebf79326e780c390304,,,,,,,,,,,,,,,,,,,,,567.5868,567.5868,567.5872,568.5794,0,0,left,0.4894,,568.58,568.5802,,1,,568.5805,568.5806,,0,,1,568.5806,568.5807,568.5812,570.0808,0,8,8,8,1,0.6,0.4,0.6,0.4,1,0,,,,,,,,,,,,,,,,,,,,,,,,,,,,,,,,,,,,
,,5ed9c3054268815691ed0e2c,66fcce14af1672a1e20f76a1,2024-10-01_22h02.23.319,mdp,2024.2.1,Win32,119.047619,66fa4ebf79326e780c390304,,,,,,,,,,,,,,,,,,,,,570.081,570.081,570.0815,571.4739,0,0,left,0.886099999,,571.4743,571.4747,,1,,571.4749,571.4751,,1,,1,571.4751,571.4751,571.4754,572.9754,0,9,9,9,1,0.6,0.4,0.6,0.4,1,0,,,,,,,,,,,,,,,,,,,,,,,,,,,,,,,,,,,,
,,5ed9c3054268815691ed0e2c,66fcce14af1672a1e20f76a1,2024-10-01_22h02.23.319,mdp,2024.2.1,Win32,119.047619,66fa4ebf79326e780c390304,,,,,,,,,,,,,,,,,,,,,572.9756,572.9756,572.9761,573.8262,0,0,left,0.347599999,,573.8267,573.8271,,0,,573.8273,573.8274,,1,,1,573.8274,573.8274,573.8277,575.3277,0,10,10,10,1,0.6,0.4,0.6,0.4,1,0,,,,,,,,,,,,,,,,,,,,,,,,,,,,,,,,,,,,
,,5ed9c3054268815691ed0e2c,66fcce14af1672a1e20f76a1,2024-10-01_22h02.23.319,mdp,2024.2.1,Win32,119.047619,66fa4ebf79326e780c390304,,,,,,,,,,,,,,,,,,,,,575.3278,575.3278,575.3282,577.021,0,0,left,1.1903,,577.0216,577.022,,1,,577.0224,577.0226,,0,,1,577.0226,577.0226,577.0229,578.5225,0,11,11,11,1,0.6,0.4,0.6,0.4,1,0,,,,,,,,,,,,,,,,,,,,,,,,,,,,,,,,,,,,
,,5ed9c3054268815691ed0e2c,66fcce14af1672a1e20f76a1,2024-10-01_22h02.23.319,mdp,2024.2.1,Win32,119.047619,66fa4ebf79326e780c390304,,,,,,,,,,,,,,,,,,,,,578.5227,578.5227,578.5231,579.757,0,1,left,0.7267,,579.7575,579.7579,,0,,579.7581,579.7583,,0,,0,579.7584,579.7584,579.7585,581.2585,0,12,12,12,1,0.6,0.4,0.6,0.4,1,0,,,,,,,,,,,,,,,,,,,,,,,,,,,,,,,,,,,,
,,5ed9c3054268815691ed0e2c,66fcce14af1672a1e20f76a1,2024-10-01_22h02.23.319,mdp,2024.2.1,Win32,119.047619,66fa4ebf79326e780c390304,,,,,,,,,,,,,,,,,,,,,581.2587,581.2587,581.2593,582.7184,0,1,left,0.9573,,582.7188,582.7191,,0,,582.7194,582.7195,,1,,0,582.7196,582.7196,582.7197,584.2197,0,13,13,13,1,0.4,0.6,0.8,0.2,1,0,,,,,,,,,,,,,,,,,,,,,,,,,,,,,,,,,,,,
,,5ed9c3054268815691ed0e2c,66fcce14af1672a1e20f76a1,2024-10-01_22h02.23.319,mdp,2024.2.1,Win32,119.047619,66fa4ebf79326e780c390304,,,,,,,,,,,,,,,,,,,,,584.2199,584.2199,584.2203,585.5711,0,0,left,0.847700001,,585.5716,585.5719,,1,,585.5722,585.5723,,1,,1,585.5724,585.5724,585.5725,587.0726,0,14,14,14,1,0.2,0.8,0.6,0.4,1,0,,,,,,,,,,,,,,,,,,,,,,,,,,,,,,,,,,,,
,,5ed9c3054268815691ed0e2c,66fcce14af1672a1e20f76a1,2024-10-01_22h02.23.319,mdp,2024.2.1,Win32,119.047619,66fa4ebf79326e780c390304,,,,,,,,,,,,,,,,,,,,,587.0728,587.0728,587.0732,588.3072,0,0,left,0.7263,,588.3076,588.3079,,0,,588.3082,588.3084,,0,,1,588.3084,588.3084,588.3086,589.8086,0,15,15,15,1,0.8,0.2,0.8,0.2,1,0,,,,,,,,,,,,,,,,,,,,,,,,,,,,,,,,,,,,
,,5ed9c3054268815691ed0e2c,66fcce14af1672a1e20f76a1,2024-10-01_22h02.23.319,mdp,2024.2.1,Win32,119.047619,66fa4ebf79326e780c390304,,,,,,,,,,,,,,,,,,,,,589.8088,589.8088,589.8092,590.9515,0,0,left,0.638400001,,590.952,590.9523,,1,,590.9526,590.9528,,0,,1,590.9528,590.9528,590.9531,592.4529,0,16,16,16,1,0.8,0.2,0.8,0.2,1,0,,,,,,,,,,,,,,,,,,,,,,,,,,,,,,,,,,,,
,,5ed9c3054268815691ed0e2c,66fcce14af1672a1e20f76a1,2024-10-01_22h02.23.319,mdp,2024.2.1,Win32,119.047619,66fa4ebf79326e780c390304,,,,,,,,,,,,,,,,,,,,,592.453,592.453,592.4534,593.7375,0,0,left,0.777900001,,593.738,593.7384,,0,,593.7386,593.7388,,0,,1,593.7388,593.7388,593.739,595.239,0,17,17,17,1,0.8,0.2,0.8,0.2,1,0,,,,,,,,,,,,,,,,,,,,,,,,,,,,,,,,,,,,
,,5ed9c3054268815691ed0e2c,66fcce14af1672a1e20f76a1,2024-10-01_22h02.23.319,mdp,2024.2.1,Win32,119.047619,66fa4ebf79326e780c390304,,,,,,,,,,,,,,,,,,,,,595.2391,595.2391,595.2396,596.6321,0,0,left,0.8868,,596.6327,596.633,,0,,596.6332,596.6334,,1,,1,596.6334,596.6334,596.6336,598.1335,0,18,18,18,1,0.8,0.2,0.8,0.2,1,0,,,,,,,,,,,,,,,,,,,,,,,,,,,,,,,,,,,,
,,5ed9c3054268815691ed0e2c,66fcce14af1672a1e20f76a1,2024-10-01_22h02.23.319,mdp,2024.2.1,Win32,119.047619,66fa4ebf79326e780c390304,,,,,,,,,,,,,,,,,,,,,598.1337,598.1337,598.1342,599.243,0,0,left,0.6043,,599.2435,599.2438,,1,,599.244,599.2442,,0,,1,599.2442,599.2442,599.2444,600.7444,0,19,19,19,1,0.6,0.4,0.6,0.4,1,0,,,,,,,,,,,,,,,,,,,,,,,,,,,,,,,,,,,,
,,5ed9c3054268815691ed0e2c,66fcce14af1672a1e20f76a1,2024-10-01_22h02.23.319,mdp,2024.2.1,Win32,119.047619,66fa4ebf79326e780c390304,,,,,,,,,,,,,,,,,,,,,600.7446,600.7446,600.7451,601.7204,0,0,left,0.4696,,601.7208,601.7213,,0,,601.7218,601.722,,1,,1,601.722,601.722,601.7224,603.222,0,20,20,20,1,0.4,0.6,0.8,0.2,1,0,,,,,,,,,,,,,,,,,,,,,,,,,,,,,,,,,,,,
,,5ed9c3054268815691ed0e2c,66fcce14af1672a1e20f76a1,2024-10-01_22h02.23.319,mdp,2024.2.1,Win32,119.047619,66fa4ebf79326e780c390304,,,,,,,,,,,,,,,,,,,,,603.2223,603.2223,603.2229,604.1061,0,1,left,0.3683,,604.1066,604.1069,,1,,604.1072,604.1074,,0,,0,604.1074,604.1074,604.1075,605.6076,0,21,21,21,1,0.4,0.6,0.8,0.2,1,0,,,,,,,,,,,,,,,,,,,,,,,,,,,,,,,,,,,,
,,5ed9c3054268815691ed0e2c,66fcce14af1672a1e20f76a1,2024-10-01_22h02.23.319,mdp,2024.2.1,Win32,119.047619,66fa4ebf79326e780c390304,,,,,,,,,,,,,,,,,,,,,605.6078,605.6078,605.6081,606.8505,1,0,right,0.7393,,606.8511,606.8514,,0,,606.8516,606.8518,,0,,1,606.8518,606.8518,606.852,608.3519,0,22,22,22,1,0.4,0.6,0.8,0.2,1,0,,,,,,,,,,,,,,,,,,,,,,,,,,,,,,,,,,,,
,,5ed9c3054268815691ed0e2c,66fcce14af1672a1e20f76a1,2024-10-01_22h02.23.319,mdp,2024.2.1,Win32,119.047619,66fa4ebf79326e780c390304,,,,,,,,,,,,,,,,,,,,,608.3521,608.3521,608.3525,610.037,1,1,right,1.1808,,610.0375,610.0378,,0,,610.038,610.0382,,0,,0,610.0382,610.0382,610.0384,611.5383,0,23,23,23,1,0.4,0.6,0.8,0.2,1,0,,,,,,,,,,,,,,,,,,,,,,,,,,,,,,,,,,,,
,,5ed9c3054268815691ed0e2c,66fcce14af1672a1e20f76a1,2024-10-01_22h02.23.319,mdp,2024.2.1,Win32,119.047619,66fa4ebf79326e780c390304,,,,,,,,,,,,,,,,,,,,,611.5385,611.5385,611.539,612.8063,0,1,left,0.7578,,612.8068,612.8072,,1,,612.8074,612.8075,,1,,0,612.8075,612.8075,612.8078,614.3078,0,24,24,24,1,0.4,0.6,0.8,0.2,1,0,,,,,,,,,,,,,,,,,,,,,,,,,,,,,,,,,,,,
,,5ed9c3054268815691ed0e2c,66fcce14af1672a1e20f76a1,2024-10-01_22h02.23.319,mdp,2024.2.1,Win32,119.047619,66fa4ebf79326e780c390304,,,,,,,,,,,,,,,,,,,,,614.3079,614.3079,614.3084,617.0356,1,1,right,2.2199,,617.036,617.0363,,0,,617.0366,617.0368,,0,,0,617.0368,617.0368,617.037,618.537,0,25,25,25,1,0.4,0.6,0.8,0.2,1,0,,,,,,,,,,,,,,,,,,,,,,,,,,,,,,,,,,,,
,,5ed9c3054268815691ed0e2c,66fcce14af1672a1e20f76a1,2024-10-01_22h02.23.319,mdp,2024.2.1,Win32,119.047619,66fa4ebf79326e780c390304,,,,,,,,,,,,,,,,,,,,,618.5371,618.5371,618.5376,619.7465,0,1,left,0.7018,,619.747,619.7474,,1,,619.7477,619.7478,,0,,0,619.7478,619.7478,619.7481,621.248,0,26,26,26,1,0.4,0.6,0.8,0.2,1,0,,,,,,,,,,,,,,,,,,,,,,,,,,,,,,,,,,,,
,,5ed9c3054268815691ed0e2c,66fcce14af1672a1e20f76a1,2024-10-01_22h02.23.319,mdp,2024.2.1,Win32,119.047619,66fa4ebf79326e780c390304,,,,,,,,,,,,,,,,,,,,,621.2482,621.2482,621.2486,622.0822,0,1,left,0.326599999,,622.0827,622.083,,0,,622.0831,622.0833,,1,,0,622.0834,622.0834,622.0835,623.5837,0,27,27,27,1,0.4,0.6,0.8,0.2,1,0,,,,,,,,,,,,,,,,,,,,,,,,,,,,,,,,,,,,
,,5ed9c3054268815691ed0e2c,66fcce14af1672a1e20f76a1,2024-10-01_22h02.23.319,mdp,2024.2.1,Win32,119.047619,66fa4ebf79326e780c390304,,,,,,,,,,,,,,,,,,,,,623.5838,623.5838,623.5842,626.1195,1,0,right,2.0321,,626.1201,626.1204,,0,,626.1206,626.1208,,0,,1,626.1208,626.1208,626.121,627.6209,0,28,28,28,1,0.4,0.6,0.8,0.2,1,0,,,,,,,,,,,,,,,,,,,,,,,,,,,,,,,,,,,,
,,5ed9c3054268815691ed0e2c,66fcce14af1672a1e20f76a1,2024-10-01_22h02.23.319,mdp,2024.2.1,Win32,119.047619,66fa4ebf79326e780c390304,,,,,,,,,,,,,,,,,,,,,627.6211,627.6211,627.6216,628.8723,1,0,right,0.7424,,628.8727,628.8731,,0,,628.8733,628.8735,,0,,1,628.8735,628.8735,628.8737,630.3736,0,29,29,29,1,0.4,0.6,0.8,0.2,1,0,,,,,,,,,,,,,,,,,,,,,,,,,,,,,,,,,,,,
,,5ed9c3054268815691ed0e2c,66fcce14af1672a1e20f76a1,2024-10-01_22h02.23.319,mdp,2024.2.1,Win32,119.047619,66fa4ebf79326e780c390304,,,,,,,,,,,,,,,,,,,,,630.3738,630.3738,630.3743,631.4081,1,0,right,0.526400001,,631.4086,631.4089,,0,,631.409,631.4092,,0,,1,631.4092,631.4092,631.4094,632.9095,0,30,30,30,1,0.4,0.6,0.8,0.2,1,0,,,,,,,,,,,,,,,,,,,,,,,,,,,,,,,,,,,,
,,5ed9c3054268815691ed0e2c,66fcce14af1672a1e20f76a1,2024-10-01_22h02.23.319,mdp,2024.2.1,Win32,119.047619,66fa4ebf79326e780c390304,,,,,,,,,,,,,,,,,,,,,632.9097,632.9097,632.9101,633.9939,1,0,right,0.578,,633.9945,633.9947,,0,,633.995,633.9952,,1,,1,633.9952,633.9952,633.9953,635.4954,0,31,31,31,1,0.4,0.6,0.8,0.2,1,0,,,,,,,,,,,,,,,,,,,,,,,,,,,,,,,,,,,,
,,5ed9c3054268815691ed0e2c,66fcce14af1672a1e20f76a1,2024-10-01_22h02.23.319,mdp,2024.2.1,Win32,119.047619,66fa4ebf79326e780c390304,,,,,,,,,,,,,,,,,,,,,635.4955,635.4955,635.496,636.4214,1,0,right,0.424400001,,636.4218,636.4221,,1,,636.4224,636.4225,,0,,1,636.4225,636.4225,636.4227,637.9228,0,32,32,32,1,0.4,0.6,0.8,0.2,1,0,,,,,,,,,,,,,,,,,,,,,,,,,,,,,,,,,,,,
,,5ed9c3054268815691ed0e2c,66fcce14af1672a1e20f76a1,2024-10-01_22h02.23.319,mdp,2024.2.1,Win32,119.047619,66fa4ebf79326e780c390304,,,,,,,,,,,,,,,,,,,,,637.9229,637.9229,637.9235,638.9488,1,0,right,0.5175,,638.9494,638.9496,,0,,638.9499,638.9501,,0,,1,638.9501,638.9501,638.9503,640.4503,0,33,33,33,1,0.4,0.6,0.8,0.2,1,0,,,,,,,,,,,,,,,,,,,,,,,,,,,,,,,,,,,,
,,5ed9c3054268815691ed0e2c,66fcce14af1672a1e20f76a1,2024-10-01_22h02.23.319,mdp,2024.2.1,Win32,119.047619,66fa4ebf79326e780c390304,,,,,,,,,,,,,,,,,,,,,640.4504,640.4504,640.4509,641.6849,1,0,right,0.7294,,641.6854,641.6857,,0,,641.686,641.6861,,1,,1,641.6861,641.6861,641.6863,643.1864,0,34,34,34,1,0.4,0.6,0.8,0.2,1,0,,,,,,,,,,,,,,,,,,,,,,,,,,,,,,,,,,,,
,,5ed9c3054268815691ed0e2c,66fcce14af1672a1e20f76a1,2024-10-01_22h02.23.319,mdp,2024.2.1,Win32,119.047619,66fa4ebf79326e780c390304,,,,,,,,,,,,,,,,,,,,,643.1865,643.1865,643.187,644.3208,1,0,right,0.6215,,644.3213,644.3216,,0,,644.3219,644.322,,0,,1,644.322,644.322,644.3223,645.8223,0,35,35,35,1,0.4,0.6,0.8,0.2,1,0,,,,,,,,,,,,,,,,,,,,,,,,,,,,,,,,,,,,
,,5ed9c3054268815691ed0e2c,66fcce14af1672a1e20f76a1,2024-10-01_22h02.23.319,mdp,2024.2.1,Win32,119.047619,66fa4ebf79326e780c390304,,,,,,,,,,,,,,,,,,,,,645.8225,645.8225,645.8229,648.2164,1,0,right,1.885599999,,648.2169,648.2172,,1,,648.2175,648.2177,,0,,1,648.2177,648.2177,648.2178,649.7178,0,36,36,36,1,0.4,0.6,0.8,0.2,1,0,,,,,,,,,,,,,,,,,,,,,,,,,,,,,,,,,,,,
,,5ed9c3054268815691ed0e2c,66fcce14af1672a1e20f76a1,2024-10-01_22h02.23.319,mdp,2024.2.1,Win32,119.047619,66fa4ebf79326e780c390304,,,,,,,,,,,,,,,,,,,,,649.718,649.718,649.7184,650.6937,1,1,right,0.4674,,650.6942,650.6946,,0,,650.6949,650.6951,,0,,0,650.6951,650.6951,650.6953,652.1952,0,37,37,37,1,0.2,0.8,0.6,0.4,1,0,,,,,,,,,,,,,,,,,,,,,,,,,,,,,,,,,,,,
,,5ed9c3054268815691ed0e2c,66fcce14af1672a1e20f76a1,2024-10-01_22h02.23.319,mdp,2024.2.1,Win32,119.047619,66fa4ebf79326e780c390304,,,,,,,,,,,,,,,,,,,,,652.1954,652.1954,652.1958,653.263,0,0,left,0.5644,,653.2635,653.2639,,0,,653.2641,653.2643,,0,,1,653.2643,653.2643,653.2646,654.7645,0,38,38,38,1,0.8,0.2,0.2,0.8,1,0,,,,,,,,,,,,,,,,,,,,,,,,,,,,,,,,,,,,
,,5ed9c3054268815691ed0e2c,66fcce14af1672a1e20f76a1,2024-10-01_22h02.23.319,mdp,2024.2.1,Win32,119.047619,66fa4ebf79326e780c390304,,,,,,,,,,,,,,,,,,,,,654.7646,654.7646,654.765,655.6827,0,0,left,0.4168,,655.6832,655.6835,,0,,655.6836,655.6839,,0,,1,655.6839,655.6839,655.6841,657.1835,0,39,39,39,1,0.8,0.2,0.2,0.8,1,0,,,,,,,,,,,,,,,,,,,,,,,,,,,,,,,,,,,,
,,5ed9c3054268815691ed0e2c,66fcce14af1672a1e20f76a1,2024-10-01_22h02.23.319,mdp,2024.2.1,Win32,119.047619,66fa4ebf79326e780c390304,,,,,,,,,,,,,,,,,,,,,657.1837,657.1837,657.1841,658.735,0,0,left,1.0435,,658.7355,658.7359,,1,,658.7361,658.7363,,0,,1,658.7363,658.7363,658.7365,660.2365,0,40,40,40,1,0.8,0.2,0.2,0.8,1,0,,,,,,,,,,,,,,,,,,,,,,,,,,,,,,,,,,,,
,,5ed9c3054268815691ed0e2c,66fcce14af1672a1e20f76a1,2024-10-01_22h02.23.319,mdp,2024.2.1,Win32,119.047619,66fa4ebf79326e780c390304,,,,,,,,,,,,,,,,,,,,,660.2367,660.2367,660.2371,661.6379,0,0,left,0.897,,661.6384,661.6386,,0,,661.6389,661.6391,,0,,1,661.6391,661.6391,661.6393,663.1394,0,41,41,41,1,0.8,0.2,0.2,0.8,1,0,,,,,,,,,,,,,,,,,,,,,,,,,,,,,,,,,,,,
,,5ed9c3054268815691ed0e2c,66fcce14af1672a1e20f76a1,2024-10-01_22h02.23.319,mdp,2024.2.1,Win32,119.047619,66fa4ebf79326e780c390304,,,,,,,,,,,,,,,,,,,,,663.1396,663.1396,663.14,664.2906,0,0,left,0.6462,,664.2911,664.2915,,1,,664.2917,664.2919,,0,,1,664.292,664.292,664.2922,665.792,0,42,42,42,1,0.8,0.2,0.2,0.8,1,0,,,,,,,,,,,,,,,,,,,,,,,,,,,,,,,,,,,,
,,5ed9c3054268815691ed0e2c,66fcce14af1672a1e20f76a1,2024-10-01_22h02.23.319,mdp,2024.2.1,Win32,119.047619,66fa4ebf79326e780c390304,,,,,,,,,,,,,,,,,,,,,665.7923,665.7923,665.7927,666.8348,0,0,left,0.5341,,666.8353,666.8355,,0,,666.8357,666.8359,,1,,1,666.8359,666.8359,666.8362,668.3361,0,43,43,43,1,0.8,0.2,0.2,0.8,1,0,,,,,,,,,,,,,,,,,,,,,,,,,,,,,,,,,,,,
,,5ed9c3054268815691ed0e2c,66fcce14af1672a1e20f76a1,2024-10-01_22h02.23.319,mdp,2024.2.1,Win32,119.047619,66fa4ebf79326e780c390304,,,,,,,,,,,,,,,,,,,,,668.3363,668.3363,668.3367,669.4205,0,0,left,0.5814,,669.4211,669.4213,,0,,669.4216,669.4218,,1,,1,669.4218,669.4218,669.4219,670.922,0,44,44,44,1,0.8,0.2,0.2,0.8,1,0,,,,,,,,,,,,,,,,,,,,,,,,,,,,,,,,,,,,
,,5ed9c3054268815691ed0e2c,66fcce14af1672a1e20f76a1,2024-10-01_22h02.23.319,mdp,2024.2.1,Win32,119.047619,66fa4ebf79326e780c390304,,,,,,,,,,,,,,,,,,,,,670.9222,670.9222,670.9226,672.1399,0,0,left,0.715400001,,672.1404,672.1408,,0,,672.141,672.1412,,1,,1,672.1412,672.1412,672.1414,673.6414,0,45,45,45,1,0.6,0.4,0.6,0.4,1,0,,,,,,,,,,,,,,,,,,,,,,,,,,,,,,,,,,,,
,,5ed9c3054268815691ed0e2c,66fcce14af1672a1e20f76a1,2024-10-01_22h02.23.319,mdp,2024.2.1,Win32,119.047619,66fa4ebf79326e780c390304,,,,,,,,,,,,,,,,,,,,,673.6416,673.6416,673.642,674.7925,0,0,left,0.6481,,674.793,674.7933,,0,,674.7935,674.7937,,1,,1,674.7937,674.7937,674.7939,676.2942,0,46,46,46,1,0.6,0.4,0.6,0.4,1,0,,,,,,,,,,,,,,,,,,,,,,,,,,,,,,,,,,,,
,,5ed9c3054268815691ed0e2c,66fcce14af1672a1e20f76a1,2024-10-01_22h02.23.319,mdp,2024.2.1,Win32,119.047619,66fa4ebf79326e780c390304,,,,,,,,,,,,,,,,,,,,,676.2944,676.2944,676.295,677.3785,0,1,left,0.567900001,,677.379,677.3793,,0,,677.3795,677.3797,,0,,0,677.3797,677.3797,677.3799,678.88,0,47,47,47,1,0.6,0.4,0.6,0.4,1,0,,,,,,,,,,,,,,,,,,,,,,,,,,,,,,,,,,,,
,,5ed9c3054268815691ed0e2c,66fcce14af1672a1e20f76a1,2024-10-01_22h02.23.319,mdp,2024.2.1,Win32,119.047619,66fa4ebf79326e780c390304,,,,,,,,,,,,,,,,,,,,,678.8802,678.8802,678.8807,679.8643,1,0,right,0.4748,,679.8647,679.8651,,0,,679.8652,679.8655,,0,,1,679.8655,679.8655,679.8657,681.3658,0,48,48,48,1,0.6,0.4,0.6,0.4,1,0,,,,,,,,,,,,,,,,,,,,,,,,,,,,,,,,,,,,
,,5ed9c3054268815691ed0e2c,66fcce14af1672a1e20f76a1,2024-10-01_22h02.23.319,mdp,2024.2.1,Win32,119.047619,66fa4ebf79326e780c390304,,,,,,,,,,,,,,,,,,,,,681.366,681.366,681.3665,682.3583,1,0,right,0.4848,,682.3589,682.3592,,0,,682.3595,682.3596,,0,,1,682.3596,682.3596,682.3598,683.8598,0,49,49,49,1,0.4,0.6,0.8,0.2,1,0,,,,,,,,,,,,,,,,,,,,,,,,,,,,,,,,,,,,
,,5ed9c3054268815691ed0e2c,66fcce14af1672a1e20f76a1,2024-10-01_22h02.23.319,mdp,2024.2.1,Win32,119.047619,66fa4ebf79326e780c390304,,,,,,,,,,,,,,,,,,,,,,,,,,,,,,,,,,,,,,,,,,,,,,,,,,,,,,,,683.86,742.3678,0,0,0,3,1,imgs/lion.png,imgs/bear.png,imgs/dog.png,imgs/cat.png,imgs/kangaroo.png,,,,,,,,,,,,,,,,,,,,,,,,
,,5ed9c3054268815691ed0e2c,66fcce14af1672a1e20f76a1,2024-10-01_22h02.23.319,mdp,2024.2.1,Win32,119.047619,66fa4ebf79326e780c390304,,,,,,,,,,,,,,2,seqs/st2seq4.csv,742.3684,777.3439,space,34.4696,,777.3467,777.3467,777.3471,779.9631,1,0,right,2.0985,,779.9636,783.5834,0,1,left,783.584,783.5843,,1,,0,783.5843,783.5843,783.5846,785.0848,0,0,0,0,1,0.4,0.6,0.6,0.4,,,,,,,,,,,,,,,3.1077,,0.2,0.8,0.2,0.8,0.8,0.2,0.4,0.6,1,0,,,,,,,,,,,,
,,5ed9c3054268815691ed0e2c,66fcce14af1672a1e20f76a1,2024-10-01_22h02.23.319,mdp,2024.2.1,Win32,119.047619,66fa4ebf79326e780c390304,,,,,,,,,,,,,,,,,,,,,785.085,785.085,785.0854,786.7448,1,0,right,1.1531,,786.7454,788.8802,1,1,right,788.8808,788.881,,1,,0,788.881,788.8811,788.8813,790.3817,0,1,1,1,1,0.4,0.6,0.6,0.4,,,,,,,,,,,,,,,1.6277,,0.2,0.8,0.2,0.8,0.8,0.2,0.4,0.6,1,0,,,,,,,,,,,,
,,5ed9c3054268815691ed0e2c,66fcce14af1672a1e20f76a1,2024-10-01_22h02.23.319,mdp,2024.2.1,Win32,119.047619,66fa4ebf79326e780c390304,,,,,,,,,,,,,,,,,,,,,790.3818,790.3819,790.3823,793.0843,0,1,left,2.1925,,793.0848,796.5545,0,0,left,796.5549,796.5553,,0,,1,796.5553,796.5553,796.5555,798.0559,0,2,2,2,1,0.4,0.6,0.6,0.4,,,,,,,,,,,,,,,2.9592,,0.2,0.8,0.2,0.8,0.8,0.2,0.4,0.6,1,0,,,,,,,,,,,,
,,5ed9c3054268815691ed0e2c,66fcce14af1672a1e20f76a1,2024-10-01_22h02.23.319,mdp,2024.2.1,Win32,119.047619,66fa4ebf79326e780c390304,,,,,,,,,,,,,,,,,,,,,798.0561,798.0561,798.0565,799.641,0,1,left,1.0822,,799.6415,801.2091,0,0,left,801.2096,801.2099,,1,,1,801.2099,801.2099,801.2101,802.7105,0,3,3,3,1,0.4,0.6,0.6,0.4,,,,,,,,,,,,,,,1.0642,,0.2,0.8,0.2,0.8,0.8,0.2,0.4,0.6,1,0,,,,,,,,,,,,
,,5ed9c3054268815691ed0e2c,66fcce14af1672a1e20f76a1,2024-10-01_22h02.23.319,mdp,2024.2.1,Win32,119.047619,66fa4ebf79326e780c390304,,,,,,,,,,,,,,,,,,,,,802.7107,802.7107,802.7111,804.5207,0,1,left,1.304400001,,804.5212,806.5393,0,1,left,806.5398,806.54,,0,,0,806.5401,806.5401,806.5403,808.0408,0,4,4,4,1,0.4,0.6,0.6,0.4,,,,,,,,,,,,,,,1.516400001,,0.6,0.4,0.6,0.4,0.8,0.2,0.4,0.6,1,0,,,,,,,,,,,,
,,5ed9c3054268815691ed0e2c,66fcce14af1672a1e20f76a1,2024-10-01_22h02.23.319,mdp,2024.2.1,Win32,119.047619,66fa4ebf79326e780c390304,,,,,,,,,,,,,,,,,,,,,808.0409,808.0409,808.0414,809.4672,1,0,right,0.920099999,,809.4677,811.7285,1,1,right,811.7289,811.7292,,0,,0,811.7292,811.7292,811.7294,813.2292,0,5,5,5,1,0.4,0.6,0.6,0.4,,,,,,,,,,,,,,,1.7515,,0.2,0.8,0.2,0.8,0.8,0.2,0.4,0.6,1,0,,,,,,,,,,,,
,,5ed9c3054268815691ed0e2c,66fcce14af1672a1e20f76a1,2024-10-01_22h02.23.319,mdp,2024.2.1,Win32,119.047619,66fa4ebf79326e780c390304,,,,,,,,,,,,,,,,,,,,,813.2294,813.2294,813.2298,815.1144,1,0,right,1.3818,,815.1149,817.1248,0,0,left,817.1252,817.1256,,1,,1,817.1257,817.1257,817.1259,818.6262,0,6,6,6,1,0.4,0.6,0.6,0.4,,,,,,,,,,,,,,,1.5027,,0.2,0.8,0.2,0.8,0.8,0.2,0.4,0.6,1,0,,,,,,,,,,,,
,,5ed9c3054268815691ed0e2c,66fcce14af1672a1e20f76a1,2024-10-01_22h02.23.319,mdp,2024.2.1,Win32,119.047619,66fa4ebf79326e780c390304,,,,,,,,,,,,,,,,,,,,,818.6264,818.6264,818.6268,820.0444,0,1,left,0.913599999,,820.0449,822.3883,1,0,right,822.3887,822.3891,,0,,1,822.3891,822.3891,822.3893,823.8897,0,7,7,7,1,0.4,0.6,0.6,0.4,,,,,,,,,,,,,,,1.832299999,,0.2,0.8,0.2,0.8,0.8,0.2,0.4,0.6,1,0,,,,,,,,,,,,
,,5ed9c3054268815691ed0e2c,66fcce14af1672a1e20f76a1,2024-10-01_22h02.23.319,mdp,2024.2.1,Win32,119.047619,66fa4ebf79326e780c390304,,,,,,,,,,,,,,,,,,,,,823.89,823.89,823.8904,825.3245,0,0,left,0.9332,,825.325,826.7927,0,1,left,826.7932,826.7935,,1,,0,826.7935,826.7935,826.7937,828.2941,0,8,8,8,1,0.4,0.6,0.6,0.4,,,,,,,,,,,,,,,0.9579,,0.2,0.8,0.2,0.8,0.8,0.2,0.4,0.6,1,0,,,,,,,,,,,,
,,5ed9c3054268815691ed0e2c,66fcce14af1672a1e20f76a1,2024-10-01_22h02.23.319,mdp,2024.2.1,Win32,119.047619,66fa4ebf79326e780c390304,,,,,,,,,,,,,,,,,,,,,828.2943,828.2944,828.2947,829.9958,0,1,left,1.1948,,829.9964,831.2637,1,1,right,831.2643,831.2646,,1,,0,831.2646,831.2646,831.2648,832.7653,0,9,9,9,1,0.4,0.6,0.6,0.4,,,,,,,,,,,,,,,0.753599999,,0.2,0.8,0.2,0.8,0.8,0.2,0.4,0.6,1,0,,,,,,,,,,,,
,,5ed9c3054268815691ed0e2c,66fcce14af1672a1e20f76a1,2024-10-01_22h02.23.319,mdp,2024.2.1,Win32,119.047619,66fa4ebf79326e780c390304,,,,,,,,,,,,,,,,,,,,,832.7654,832.7654,832.766,833.9497,0,0,left,0.676200001,,833.9502,835.6432,0,1,left,835.6437,835.6441,,0,,0,835.6441,835.6441,835.6444,837.1445,0,10,10,10,1,0.4,0.6,0.6,0.4,,,,,,,,,,,,,,,1.182099999,,0.2,0.8,0.2,0.8,0.6,0.4,0.2,0.8,1,0,,,,,,,,,,,,
,,5ed9c3054268815691ed0e2c,66fcce14af1672a1e20f76a1,2024-10-01_22h02.23.319,mdp,2024.2.1,Win32,119.047619,66fa4ebf79326e780c390304,,,,,,,,,,,,,,,,,,,,,837.1447,837.1447,837.1451,838.2456,0,1,left,0.5954,,838.2461,840.4228,0,0,left,840.4232,840.4235,,0,,1,840.4235,840.4235,840.4237,841.9243,0,11,11,11,1,0.4,0.6,0.6,0.4,,,,,,,,,,,,,,,1.6672,,0.2,0.8,0.2,0.8,0.6,0.4,0.2,0.8,1,0,,,,,,,,,,,,
,,5ed9c3054268815691ed0e2c,66fcce14af1672a1e20f76a1,2024-10-01_22h02.23.319,mdp,2024.2.1,Win32,119.047619,66fa4ebf79326e780c390304,,,,,,,,,,,,,,,,,,,,,841.9244,841.9244,841.9248,843.1505,0,0,left,0.7246,,843.151,844.6855,1,1,right,844.686,844.6864,,0,,0,844.6864,844.6864,844.6868,846.1867,0,12,12,12,1,0.4,0.6,0.6,0.4,,,,,,,,,,,,,,,1.0221,,0.2,0.8,0.2,0.8,0.6,0.4,0.2,0.8,1,0,,,,,,,,,,,,
,,5ed9c3054268815691ed0e2c,66fcce14af1672a1e20f76a1,2024-10-01_22h02.23.319,mdp,2024.2.1,Win32,119.047619,66fa4ebf79326e780c390304,,,,,,,,,,,,,,,,,,,,,846.1869,846.1869,846.1874,847.2297,0,1,left,0.5412,,847.2302,848.6893,0,0,left,848.6897,848.69,,0,,1,848.69,848.69,848.6903,850.1907,0,13,13,13,1,0.4,0.6,0.6,0.4,,,,,,,,,,,,,,,0.9458,,0.2,0.8,0.2,0.8,0.6,0.4,0.2,0.8,1,0,,,,,,,,,,,,
,,5ed9c3054268815691ed0e2c,66fcce14af1672a1e20f76a1,2024-10-01_22h02.23.319,mdp,2024.2.1,Win32,119.047619,66fa4ebf79326e780c390304,,,,,,,,,,,,,,,,,,,,,850.1909,850.191,850.1913,851.7256,0,1,left,1.028200001,,851.7261,853.0018,0,0,left,853.0023,853.0027,,0,,1,853.0027,853.0027,853.0028,854.5033,0,14,14,14,1,0.4,0.6,0.6,0.4,,,,,,,,,,,,,,,0.769200001,,0.2,0.8,0.2,0.8,0.6,0.4,0.2,0.8,1,0,,,,,,,,,,,,
,,5ed9c3054268815691ed0e2c,66fcce14af1672a1e20f76a1,2024-10-01_22h02.23.319,mdp,2024.2.1,Win32,119.047619,66fa4ebf79326e780c390304,,,,,,,,,,,,,,,,,,,,,854.5035,854.5035,854.5039,855.6712,0,0,left,0.6627,,855.6717,857.3062,0,1,left,857.3066,857.307,,1,,0,857.307,857.307,857.3072,858.8075,0,15,15,15,1,0.4,0.6,0.6,0.4,,,,,,,,,,,,,,,1.1251,,0.2,0.8,0.2,0.8,0.6,0.4,0.2,0.8,1,0,,,,,,,,,,,,
,,5ed9c3054268815691ed0e2c,66fcce14af1672a1e20f76a1,2024-10-01_22h02.23.319,mdp,2024.2.1,Win32,119.047619,66fa4ebf79326e780c390304,,,,,,,,,,,,,,,,,,,,,858.8077,858.8077,858.8081,859.892,0,1,left,0.582200001,,859.8925,861.1599,0,0,left,861.1604,861.1607,,0,,1,861.1607,861.1607,861.1609,862.6613,0,16,16,16,1,0.4,0.6,0.6,0.4,,,,,,,,,,,,,,,0.753700001,,0.2,0.8,0.2,0.8,0.8,0.2,0.4,0.6,1,0,,,,,,,,,,,,
,,5ed9c3054268815691ed0e2c,66fcce14af1672a1e20f76a1,2024-10-01_22h02.23.319,mdp,2024.2.1,Win32,119.047619,66fa4ebf79326e780c390304,,,,,,,,,,,,,,,,,,,,,862.6615,862.6615,862.6619,863.7708,0,1,left,0.6007,,863.7714,865.0304,0,0,left,865.0309,865.0312,,0,,1,865.0312,865.0312,865.0315,866.5319,0,17,17,17,1,0.4,0.6,0.6,0.4,,,,,,,,,,,,,,,0.755,,0.2,0.8,0.2,0.8,0.8,0.2,0.4,0.6,1,0,,,,,,,,,,,,
,,5ed9c3054268815691ed0e2c,66fcce14af1672a1e20f76a1,2024-10-01_22h02.23.319,mdp,2024.2.1,Win32,119.047619,66fa4ebf79326e780c390304,,,,,,,,,,,,,,,,,,,,,866.5321,866.5321,866.5326,867.7331,0,0,left,0.697099999,,867.7335,869.5098,1,1,right,869.5103,869.5108,,1,,0,869.5108,869.5108,869.5111,871.0112,0,18,18,18,1,0.4,0.6,0.6,0.4,,,,,,,,,,,,,,,1.2636,,0.2,0.8,0.2,0.8,0.6,0.4,0.8,0.2,1,0,,,,,,,,,,,,
,,5ed9c3054268815691ed0e2c,66fcce14af1672a1e20f76a1,2024-10-01_22h02.23.319,mdp,2024.2.1,Win32,119.047619,66fa4ebf79326e780c390304,,,,,,,,,,,,,,,,,,,,,871.0114,871.0114,871.0119,872.2542,0,0,left,0.7403,,872.2546,873.9892,0,1,left,873.9897,873.99,,1,,0,873.99,873.99,873.9902,875.4907,0,19,19,19,1,0.4,0.6,0.6,0.4,,,,,,,,,,,,,,,1.2316,,0.2,0.8,0.2,0.8,0.6,0.4,0.8,0.2,1,0,,,,,,,,,,,,
,,5ed9c3054268815691ed0e2c,66fcce14af1672a1e20f76a1,2024-10-01_22h02.23.319,mdp,2024.2.1,Win32,119.047619,66fa4ebf79326e780c390304,,,,,,,,,,,,,,,,,,,,,875.4909,875.4909,875.4914,876.8588,0,0,left,0.8619,,876.8592,878.9025,1,1,right,878.903,878.9034,,0,,0,878.9034,878.9034,878.9037,880.4039,0,20,20,20,1,0.4,0.6,0.6,0.4,,,,,,,,,,,,,,,1.5371,,0.2,0.8,0.2,0.8,0.6,0.4,0.8,0.2,1,0,,,,,,,,,,,,
,,5ed9c3054268815691ed0e2c,66fcce14af1672a1e20f76a1,2024-10-01_22h02.23.319,mdp,2024.2.1,Win32,119.047619,66fa4ebf79326e780c390304,,,,,,,,,,,,,,,,,,,,,880.4041,880.4041,880.4045,882.3224,1,0,right,1.4169,,882.323,884.2995,1,0,right,884.3,884.3004,,0,,1,884.3004,884.3004,884.3006,885.8009,0,21,21,21,1,0.4,0.6,0.6,0.4,,,,,,,,,,,,,,,1.468299999,,0.2,0.8,0.2,0.8,0.8,0.2,0.6,0.4,1,0,,,,,,,,,,,,
,,5ed9c3054268815691ed0e2c,66fcce14af1672a1e20f76a1,2024-10-01_22h02.23.319,mdp,2024.2.1,Win32,119.047619,66fa4ebf79326e780c390304,,,,,,,,,,,,,,,,,,,,,885.8011,885.8011,885.8014,887.7695,1,0,right,1.4598,,887.77,889.1293,1,1,right,889.1297,889.1301,,0,,0,889.1301,889.1301,889.1303,890.6306,0,22,22,22,1,0.4,0.6,0.6,0.4,,,,,,,,,,,,,,,0.854400001,,0.2,0.8,0.2,0.8,0.8,0.2,0.6,0.4,1,0,,,,,,,,,,,,
,,5ed9c3054268815691ed0e2c,66fcce14af1672a1e20f76a1,2024-10-01_22h02.23.319,mdp,2024.2.1,Win32,119.047619,66fa4ebf79326e780c390304,,,,,,,,,,,,,,,,,,,,,890.6309,890.6309,890.6312,892.2239,0,0,left,1.0911,,892.2244,893.5753,0,1,left,893.5758,893.5761,,1,,0,893.5761,893.5761,893.5763,895.0767,0,23,23,23,1,0.4,0.6,0.6,0.4,,,,,,,,,,,,,,,0.8459,,0.2,0.8,0.2,0.8,0.8,0.2,0.6,0.4,1,0,,,,,,,,,,,,
,,5ed9c3054268815691ed0e2c,66fcce14af1672a1e20f76a1,2024-10-01_22h02.23.319,mdp,2024.2.1,Win32,119.047619,66fa4ebf79326e780c390304,,,,,,,,,,,,,,,,,,,,,895.0769,895.0769,895.0773,896.9953,0,1,left,1.410799999,,896.9958,899.9482,0,1,left,899.9487,899.949,,0,,0,899.949,899.949,899.9492,901.4497,0,24,24,24,1,0.4,0.6,0.6,0.4,,,,,,,,,,,,,,,2.4358,,0.2,0.8,0.2,0.8,0.8,0.2,0.6,0.4,1,0,,,,,,,,,,,,
,,5ed9c3054268815691ed0e2c,66fcce14af1672a1e20f76a1,2024-10-01_22h02.23.319,mdp,2024.2.1,Win32,119.047619,66fa4ebf79326e780c390304,,,,,,,,,,,,,,,,,,,,,901.4498,901.4499,901.4504,902.5592,0,1,left,0.605,,902.5596,903.9856,0,0,left,903.9861,903.9865,,0,,1,903.9865,903.9865,903.9867,905.4869,0,25,25,25,1,0.4,0.6,0.6,0.4,,,,,,,,,,,,,,,0.9188,,0.2,0.8,0.2,0.8,0.8,0.2,0.6,0.4,1,0,,,,,,,,,,,,
,,5ed9c3054268815691ed0e2c,66fcce14af1672a1e20f76a1,2024-10-01_22h02.23.319,mdp,2024.2.1,Win32,119.047619,66fa4ebf79326e780c390304,,,,,,,,,,,,,,,,,,,,,905.4871,905.4871,905.4875,906.6132,0,0,left,0.6187,,906.6136,908.465,0,1,left,908.4654,908.4658,,1,,0,908.4658,908.4658,908.466,909.9664,0,26,26,26,1,0.4,0.6,0.6,0.4,,,,,,,,,,,,,,,1.339,,0.2,0.8,0.2,0.8,0.8,0.2,0.6,0.4,1,0,,,,,,,,,,,,
,,5ed9c3054268815691ed0e2c,66fcce14af1672a1e20f76a1,2024-10-01_22h02.23.319,mdp,2024.2.1,Win32,119.047619,66fa4ebf79326e780c390304,,,,,,,,,,,,,,,,,,,,,909.9666,909.9666,909.967,911.1176,0,0,left,0.6493,,911.1181,912.7776,1,1,right,912.7781,912.7783,,1,,0,912.7783,912.7783,912.7785,914.279,0,27,27,27,1,0.8,0.2,0.4,0.6,,,,,,,,,,,,,,,1.158099999,,0.2,0.8,0.2,0.8,0.8,0.2,0.6,0.4,1,0,,,,,,,,,,,,
,,5ed9c3054268815691ed0e2c,66fcce14af1672a1e20f76a1,2024-10-01_22h02.23.319,mdp,2024.2.1,Win32,119.047619,66fa4ebf79326e780c390304,,,,,,,,,,,,,,,,,,,,,914.2792,914.2793,914.2798,915.4635,0,0,left,0.6795,,915.464,917.1986,1,1,right,917.1991,917.1993,,0,,0,917.1993,917.1994,917.1996,918.7001,0,28,28,28,1,0.8,0.2,0.4,0.6,,,,,,,,,,,,,,,1.2258,,0.2,0.8,0.2,0.8,0.8,0.2,0.6,0.4,1,0,,,,,,,,,,,,
,,5ed9c3054268815691ed0e2c,66fcce14af1672a1e20f76a1,2024-10-01_22h02.23.319,mdp,2024.2.1,Win32,119.047619,66fa4ebf79326e780c390304,,,,,,,,,,,,,,,,,,,,,918.7003,918.7003,918.7006,921.0191,0,0,left,1.8135,,921.0195,922.5622,0,0,left,922.5627,922.563,,1,,1,922.563,922.563,922.5632,924.0636,0,29,29,29,1,0.8,0.2,0.4,0.6,,,,,,,,,,,,,,,1.0344,,0.2,0.8,0.2,0.8,0.8,0.2,0.6,0.4,1,0,,,,,,,,,,,,
,,5ed9c3054268815691ed0e2c,66fcce14af1672a1e20f76a1,2024-10-01_22h02.23.319,mdp,2024.2.1,Win32,119.047619,66fa4ebf79326e780c390304,,,,,,,,,,,,,,,,,,,,,924.0638,924.0638,924.0643,925.6319,0,0,left,1.0599,,925.6325,927.0667,0,1,left,927.0671,927.0675,,1,,0,927.0676,927.0676,927.0677,928.5681,0,30,30,30,1,0.8,0.2,0.4,0.6,,,,,,,,,,,,,,,0.927599999,,0.2,0.8,0.2,0.8,0.8,0.2,0.6,0.4,1,0,,,,,,,,,,,,
,,5ed9c3054268815691ed0e2c,66fcce14af1672a1e20f76a1,2024-10-01_22h02.23.319,mdp,2024.2.1,Win32,119.047619,66fa4ebf79326e780c390304,,,,,,,,,,,,,,,,,,,,,928.5683,928.5683,928.5687,929.9863,0,0,left,0.910400001,,929.9867,931.6629,1,1,right,931.6633,931.6636,,0,,0,931.6636,931.6636,931.6639,933.1644,0,31,31,31,1,0.8,0.2,0.4,0.6,,,,,,,,,,,,,,,1.1715,,0.2,0.8,0.2,0.8,0.8,0.2,0.6,0.4,1,0,,,,,,,,,,,,
,,5ed9c3054268815691ed0e2c,66fcce14af1672a1e20f76a1,2024-10-01_22h02.23.319,mdp,2024.2.1,Win32,119.047619,66fa4ebf79326e780c390304,,,,,,,,,,,,,,,,,,,,,933.1645,933.1645,933.1649,935.1663,0,1,left,1.494299999,,935.1668,936.9097,1,1,right,936.9103,936.9106,,1,,0,936.9106,936.9106,936.9108,938.4111,0,32,32,32,1,0.8,0.2,0.4,0.6,,,,,,,,,,,,,,,1.227400001,,0.2,0.8,0.2,0.8,0.8,0.2,0.6,0.4,1,0,,,,,,,,,,,,
,,5ed9c3054268815691ed0e2c,66fcce14af1672a1e20f76a1,2024-10-01_22h02.23.319,mdp,2024.2.1,Win32,119.047619,66fa4ebf79326e780c390304,,,,,,,,,,,,,,,,,,,,,938.4114,938.4114,938.4118,940.2047,0,1,left,1.2873,,940.2052,941.6729,0,1,left,941.6735,941.6737,,0,,0,941.6738,941.6738,941.674,943.1742,0,33,33,33,1,0.8,0.2,0.4,0.6,,,,,,,,,,,,,,,0.966,,0.2,0.8,0.2,0.8,0.8,0.2,0.6,0.4,1,0,,,,,,,,,,,,
,,5ed9c3054268815691ed0e2c,66fcce14af1672a1e20f76a1,2024-10-01_22h02.23.319,mdp,2024.2.1,Win32,119.047619,66fa4ebf79326e780c390304,,,,,,,,,,,,,,,,,,,,,943.1743,943.1743,943.1748,944.9927,0,1,left,1.3143,,944.9933,946.2023,0,0,left,946.2028,946.203,,0,,1,946.203,946.203,946.2032,947.7037,0,34,34,34,1,0.8,0.2,0.4,0.6,,,,,,,,,,,,,,,0.7077,,0.2,0.8,0.2,0.8,0.8,0.2,0.6,0.4,1,0,,,,,,,,,,,,
,,5ed9c3054268815691ed0e2c,66fcce14af1672a1e20f76a1,2024-10-01_22h02.23.319,mdp,2024.2.1,Win32,119.047619,66fa4ebf79326e780c390304,,,,,,,,,,,,,,,,,,,,,947.7038,947.7038,947.7043,948.9048,0,0,left,0.692900001,,948.9053,950.7318,1,0,right,950.7323,950.7326,,1,,1,950.7326,950.7326,950.7328,952.2331,0,35,35,35,1,0.8,0.2,0.4,0.6,,,,,,,,,,,,,,,1.310299999,,0.2,0.8,0.2,0.8,0.8,0.2,0.6,0.4,1,0,,,,,,,,,,,,
,,5ed9c3054268815691ed0e2c,66fcce14af1672a1e20f76a1,2024-10-01_22h02.23.319,mdp,2024.2.1,Win32,119.047619,66fa4ebf79326e780c390304,,,,,,,,,,,,,,,,,,,,,952.2333,952.2333,952.2337,953.351,0,1,left,0.6132,,953.3516,954.5271,0,0,left,954.5276,954.528,,1,,1,954.528,954.528,954.5283,956.0286,0,36,36,36,1,0.8,0.2,0.4,0.6,,,,,,,,,,,,,,,0.6634,,0.2,0.8,0.2,0.8,0.8,0.2,0.6,0.4,1,0,,,,,,,,,,,,
,,5ed9c3054268815691ed0e2c,66fcce14af1672a1e20f76a1,2024-10-01_22h02.23.319,mdp,2024.2.1,Win32,119.047619,66fa4ebf79326e780c390304,,,,,,,,,,,,,,,,,,,,,956.0288,956.0288,956.0292,957.6468,0,0,left,1.109599999,,957.6473,959.1817,1,1,right,959.1822,959.1824,,1,,0,959.1825,959.1825,959.1828,960.6831,0,37,37,37,1,0.8,0.2,0.4,0.6,,,,,,,,,,,,,,,1.0182,,0.2,0.8,0.2,0.8,0.8,0.2,0.6,0.4,1,0,,,,,,,,,,,,
,,5ed9c3054268815691ed0e2c,66fcce14af1672a1e20f76a1,2024-10-01_22h02.23.319,mdp,2024.2.1,Win32,119.047619,66fa4ebf79326e780c390304,,,,,,,,,,,,,,,,,,,,,960.6833,960.6833,960.6837,961.7593,0,0,left,0.569,,961.7597,962.9437,0,0,left,962.9442,962.9445,,1,,1,962.9445,962.9445,962.9447,964.4453,0,38,38,38,1,0.8,0.2,0.4,0.6,,,,,,,,,,,,,,,0.6782,,0.2,0.8,0.2,0.8,0.8,0.2,0.6,0.4,1,0,,,,,,,,,,,,
,,5ed9c3054268815691ed0e2c,66fcce14af1672a1e20f76a1,2024-10-01_22h02.23.319,mdp,2024.2.1,Win32,119.047619,66fa4ebf79326e780c390304,,,,,,,,,,,,,,,,,,,,,964.4455,964.4455,964.4458,965.5297,0,0,left,0.5802,,965.5301,967.0561,0,1,left,967.0566,967.0569,,1,,0,967.0569,967.0569,967.0571,968.5576,0,39,39,39,1,0.8,0.2,0.4,0.6,,,,,,,,,,,,,,,1.0225,,0.2,0.8,0.2,0.8,0.8,0.2,0.6,0.4,1,0,,,,,,,,,,,,
,,5ed9c3054268815691ed0e2c,66fcce14af1672a1e20f76a1,2024-10-01_22h02.23.319,mdp,2024.2.1,Win32,119.047619,66fa4ebf79326e780c390304,,,,,,,,,,,,,,,,,,,,,968.5578,968.5578,968.5582,969.8672,0,0,left,0.8018,,969.8677,971.2102,0,0,left,971.2107,971.211,,1,,1,971.211,971.211,971.2112,972.7117,0,40,40,40,1,0.8,0.2,0.4,0.6,,,,,,,,,,,,,,,0.8401,,0.2,0.8,0.2,0.8,0.8,0.2,0.6,0.4,1,0,,,,,,,,,,,,
,,5ed9c3054268815691ed0e2c,66fcce14af1672a1e20f76a1,2024-10-01_22h02.23.319,mdp,2024.2.1,Win32,119.047619,66fa4ebf79326e780c390304,,,,,,,,,,,,,,,,,,,,,972.7119,972.7119,972.7123,974.0548,0,1,left,0.8347,,974.0552,975.356,0,1,left,975.3565,975.3568,,0,,0,975.3568,975.3568,975.357,976.8575,0,41,41,41,1,0.2,0.8,0.8,0.2,,,,,,,,,,,,,,,0.7912,,0.2,0.8,0.2,0.8,0.8,0.2,0.6,0.4,1,0,,,,,,,,,,,,
,,5ed9c3054268815691ed0e2c,66fcce14af1672a1e20f76a1,2024-10-01_22h02.23.319,mdp,2024.2.1,Win32,119.047619,66fa4ebf79326e780c390304,,,,,,,,,,,,,,,,,,,,,976.8577,976.8577,976.8581,978.1087,0,1,left,0.745,,978.1092,980.0523,0,1,left,980.0528,980.0531,,0,,0,980.0531,980.0531,980.0533,981.5538,0,42,42,42,1,0.2,0.8,0.8,0.2,,,,,,,,,,,,,,,1.4397,,0.6,0.4,0.4,0.6,0.8,0.2,0.6,0.4,1,0,,,,,,,,,,,,
,,5ed9c3054268815691ed0e2c,66fcce14af1672a1e20f76a1,2024-10-01_22h02.23.319,mdp,2024.2.1,Win32,119.047619,66fa4ebf79326e780c390304,,,,,,,,,,,,,,,,,,,,,981.5539,981.5539,981.5544,982.4547,0,1,left,0.3918,,982.4552,983.7477,1,1,right,983.7481,983.7484,,0,,0,983.7484,983.7484,983.7486,985.2491,0,43,43,43,1,0.2,0.8,0.8,0.2,,,,,,,,,,,,,,,0.7906,,0.6,0.4,0.4,0.6,0.8,0.2,0.6,0.4,1,0,,,,,,,,,,,,
,,5ed9c3054268815691ed0e2c,66fcce14af1672a1e20f76a1,2024-10-01_22h02.23.319,mdp,2024.2.1,Win32,119.047619,66fa4ebf79326e780c390304,,,,,,,,,,,,,,,,,,,,,985.2493,985.2493,985.2497,986.4002,0,0,left,0.6441,,986.4008,988.7025,0,1,left,988.703,988.7033,,0,,0,988.7033,988.7033,988.7035,990.2042,0,44,44,44,1,0.2,0.8,0.8,0.2,,,,,,,,,,,,,,,1.7855,,0.6,0.4,0.4,0.6,0.8,0.2,0.6,0.4,1,0,,,,,,,,,,,,
,,5ed9c3054268815691ed0e2c,66fcce14af1672a1e20f76a1,2024-10-01_22h02.23.319,mdp,2024.2.1,Win32,119.047619,66fa4ebf79326e780c390304,,,,,,,,,,,,,,,,,,,,,990.2044,990.2044,990.2048,991.8973,0,0,left,1.1884,,991.8979,993.7074,0,0,left,993.708,993.7083,,1,,1,993.7083,993.7083,993.7085,995.2089,0,45,45,45,1,0.2,0.8,0.8,0.2,,,,,,,,,,,,,,,1.3014,,0.6,0.4,0.4,0.6,0.8,0.2,0.6,0.4,1,0,,,,,,,,,,,,
,,5ed9c3054268815691ed0e2c,66fcce14af1672a1e20f76a1,2024-10-01_22h02.23.319,mdp,2024.2.1,Win32,119.047619,66fa4ebf79326e780c390304,,,,,,,,,,,,,,,,,,,,,995.2091,995.2091,995.2096,997.1442,0,0,left,1.4273,,997.1447,999.2046,0,1,left,999.205,999.2054,,1,,0,999.2054,999.2054,999.2056,1000.706,0,46,46,46,1,0.2,0.8,0.8,0.2,,,,,,,,,,,,,,,1.557200001,,0.2,0.8,0.2,0.8,0.8,0.2,0.6,0.4,1,0,,,,,,,,,,,,
,,5ed9c3054268815691ed0e2c,66fcce14af1672a1e20f76a1,2024-10-01_22h02.23.319,mdp,2024.2.1,Win32,119.047619,66fa4ebf79326e780c390304,,,,,,,,,,,,,,,,,,,,,1000.7062,1000.7062,1000.7066,1001.8321,0,0,left,0.6192,,1001.8327,1003.3336,1,1,right,1003.3341,1003.3345,,1,,0,1003.3345,1003.3345,1003.3346,1004.8351,0,47,47,47,1,0.2,0.8,0.8,0.2,,,,,,,,,,,,,,,0.9935,,0.2,0.8,0.2,0.8,0.8,0.2,0.6,0.4,1,0,,,,,,,,,,,,
,,5ed9c3054268815691ed0e2c,66fcce14af1672a1e20f76a1,2024-10-01_22h02.23.319,mdp,2024.2.1,Win32,119.047619,66fa4ebf79326e780c390304,,,,,,,,,,,,,,,,,,,,,1004.8352,1004.8352,1004.8357,1005.7777,0,0,left,0.4384,,1005.7783,1007.0122,0,1,left,1007.0127,1007.0131,,1,,0,1007.0131,1007.0131,1007.0133,1008.5137,0,48,48,48,1,0.6,0.4,0.4,0.6,,,,,,,,,,,,,,,0.7275,,0.2,0.8,0.2,0.8,0.8,0.2,0.6,0.4,1,0,,,,,,,,,,,,
,,5ed9c3054268815691ed0e2c,66fcce14af1672a1e20f76a1,2024-10-01_22h02.23.319,mdp,2024.2.1,Win32,119.047619,66fa4ebf79326e780c390304,,,,,,,,,,,,,,,,,,,,,1008.5139,1008.5139,1008.5144,1010.1153,0,1,left,1.0986,,1010.1158,1011.6753,0,1,left,1011.676,1011.6763,,0,,0,1011.6763,1011.6763,1011.6765,1013.1766,0,49,49,49,1,0.6,0.4,0.4,0.6,,,,,,,,,,,,,,,1.0475,,0.2,0.8,0.2,0.8,0.8,0.2,0.6,0.4,1,0,,,,,,,,,,,,
,,5ed9c3054268815691ed0e2c,66fcce14af1672a1e20f76a1,2024-10-01_22h02.23.319,mdp,2024.2.1,Win32,119.047619,66fa4ebf79326e780c390304,,,,,,,,,,,,,,,,,,,,,,,,,,,,,,,,,,,,,,,,,,,,,,,,,,,,,,,,1013.1768,1071.6845,0,1,1,0,1,imgs/lion.png,imgs/dog.png,imgs/elephant.png,imgs/giraffe.png,imgs/kangaroo.png,,,,,,,,,,,,,,,,,,,,,,,,
,,5ed9c3054268815691ed0e2c,66fcce14af1672a1e20f76a1,2024-10-01_22h02.23.319,mdp,2024.2.1,Win32,119.047619,66fa4ebf79326e780c390304,,,,,,,,,,,,,,3,seqs/st3seq12.csv,1071.6851,1172.2672,space,100.08,,1172.2716,1172.2716,1172.272,1177.1386,0,0,left,4.348,,1177.1393,1180.7922,1,1,right,1180.7927,1182.5856,1,1,right,0,1182.5856,1182.5857,1182.5862,1184.087,0,0,0,0,1,0.8,0.2,0.4,0.6,,,,,,,,,,,,,,,3.1415,,0.6,0.4,0.6,0.4,0.6,0.4,0.2,0.8,,,1.2833,,0.2,0.8,0.8,0.2,0.8,0.2,0.2,0.8,1,0
,,5ed9c3054268815691ed0e2c,66fcce14af1672a1e20f76a1,2024-10-01_22h02.23.319,mdp,2024.2.1,Win32,119.047619,66fa4ebf79326e780c390304,,,,,,,,,,,,,,,,,,,,,1184.0874,1184.0874,1184.0877,1187.0568,0,1,left,2.4625,,1187.0572,1188.5249,0,1,left,1188.5254,1189.8595,1,0,right,1,1189.8595,1189.8595,1189.86,1191.3609,0,1,1,1,1,0.8,0.2,0.4,0.6,,,,,,,,,,,,,,,0.9557,,0.6,0.4,0.6,0.4,0.6,0.4,0.2,0.8,,,0.832799999,,0.2,0.8,0.8,0.2,0.8,0.2,0.2,0.8,1,0
,,5ed9c3054268815691ed0e2c,66fcce14af1672a1e20f76a1,2024-10-01_22h02.23.319,mdp,2024.2.1,Win32,119.047619,66fa4ebf79326e780c390304,,,,,,,,,,,,,,,,,,,,,1191.3611,1191.3612,1191.3617,1194.4807,0,1,left,2.6176,,1194.4811,1196.0239,0,0,left,1196.0244,1197.2751,1,0,right,1,1197.2752,1197.2752,1197.2757,1198.7766,0,2,2,2,1,0.8,0.2,0.4,0.6,,,,,,,,,,,,,,,1.0405,,0.6,0.4,0.6,0.4,0.6,0.4,0.2,0.8,,,0.7385,,0.2,0.8,0.8,0.2,0.8,0.2,0.2,0.8,1,0
,,5ed9c3054268815691ed0e2c,66fcce14af1672a1e20f76a1,2024-10-01_22h02.23.319,mdp,2024.2.1,Win32,119.047619,66fa4ebf79326e780c390304,,,,,,,,,,,,,,,,,,,,,1198.7768,1198.7768,1198.7773,1200.0362,0,0,left,0.7567,,1200.0367,1202.6805,1,1,right,1202.6809,1204.1569,1,1,right,0,1204.157,1204.157,1204.1574,1205.6589,0,3,3,3,1,0.8,0.2,0.4,0.6,,,,,,,,,,,,,,,2.129099999,,0.6,0.4,0.6,0.4,0.6,0.4,0.2,0.8,,,0.9649,,0.2,0.8,0.8,0.2,0.8,0.2,0.2,0.8,1,0
,,5ed9c3054268815691ed0e2c,66fcce14af1672a1e20f76a1,2024-10-01_22h02.23.319,mdp,2024.2.1,Win32,119.047619,66fa4ebf79326e780c390304,,,,,,,,,,,,,,,,,,,,,1205.6591,1205.6591,1205.6595,1207.7855,0,1,left,1.6147,,1207.786,1209.0284,0,1,left,1209.0289,1210.313,1,0,right,1,1210.313,1210.313,1210.3136,1211.8145,0,4,4,4,1,0.8,0.2,0.4,0.6,,,,,,,,,,,,,,,0.7318,,0.6,0.4,0.6,0.4,0.6,0.4,0.2,0.8,,,0.7779,,0.2,0.8,0.8,0.2,0.8,0.2,0.2,0.8,1,0
,,5ed9c3054268815691ed0e2c,66fcce14af1672a1e20f76a1,2024-10-01_22h02.23.319,mdp,2024.2.1,Win32,119.047619,66fa4ebf79326e780c390304,,,,,,,,,,,,,,,,,,,,,1211.8147,1211.8147,1211.8152,1213.8081,0,1,left,1.4921,,1213.8086,1215.2179,0,0,left,1215.2184,1216.5525,1,1,right,0,1216.5525,1216.5526,1216.5529,1218.0539,0,5,5,5,1,0.8,0.2,0.4,0.6,,,,,,,,,,,,,,,0.9021,,0.8,0.2,0.2,0.8,0.6,0.4,0.2,0.8,,,0.8215,,0.2,0.8,0.8,0.2,0.8,0.2,0.2,0.8,1,0
,,5ed9c3054268815691ed0e2c,66fcce14af1672a1e20f76a1,2024-10-01_22h02.23.319,mdp,2024.2.1,Win32,119.047619,66fa4ebf79326e780c390304,,,,,,,,,,,,,,,,,,,,,1218.0542,1218.0542,1218.0546,1219.422,0,0,left,0.863400001,,1219.4225,1221.9495,1,1,right,1221.95,1224.0432,1,0,right,1,1224.0433,1224.0433,1224.0438,1225.5447,0,6,6,6,1,0.8,0.2,0.4,0.6,,,,,,,,,,,,,,,2.016099999,,0.8,0.2,0.2,0.8,0.6,0.4,0.2,0.8,,,1.5828,,0.2,0.8,0.8,0.2,0.8,0.2,0.2,0.8,1,0
,,5ed9c3054268815691ed0e2c,66fcce14af1672a1e20f76a1,2024-10-01_22h02.23.319,mdp,2024.2.1,Win32,119.047619,66fa4ebf79326e780c390304,,,,,,,,,,,,,,,,,,,,,1225.5449,1225.5449,1225.5453,1226.6792,0,0,left,0.6307,,1226.6797,1227.922,1,1,right,1227.9226,1229.2657,1,1,right,0,1229.2658,1229.2658,1229.2662,1230.7665,0,7,7,7,1,0.8,0.2,0.4,0.6,,,,,,,,,,,,,,,0.7365,,0.8,0.2,0.2,0.8,0.6,0.4,0.2,0.8,,,0.8422,,0.2,0.8,0.8,0.2,0.8,0.2,0.2,0.8,1,0
,,5ed9c3054268815691ed0e2c,66fcce14af1672a1e20f76a1,2024-10-01_22h02.23.319,mdp,2024.2.1,Win32,119.047619,66fa4ebf79326e780c390304,,,,,,,,,,,,,,,,,,,,,1230.7667,1230.7667,1230.7672,1232.0845,0,0,left,0.8157,,1232.0849,1233.7528,1,1,right,1233.7533,1235.0291,0,0,left,1,1235.0292,1235.0292,1235.0296,1236.5306,0,8,8,8,1,0.8,0.2,0.4,0.6,,,,,,,,,,,,,,,1.1616,,0.2,0.8,0.6,0.4,0.6,0.4,0.2,0.8,,,0.7683,,0.2,0.8,0.8,0.2,0.8,0.2,0.2,0.8,1,0
,,5ed9c3054268815691ed0e2c,66fcce14af1672a1e20f76a1,2024-10-01_22h02.23.319,mdp,2024.2.1,Win32,119.047619,66fa4ebf79326e780c390304,,,,,,,,,,,,,,,,,,,,,1236.5307,1236.5307,1236.5312,1238.6827,0,0,left,1.6478,,1238.6832,1241.1101,1,1,right,1241.1106,1242.8034,1,1,right,0,1242.8035,1242.8035,1242.804,1244.3049,0,9,9,9,1,0.8,0.2,0.4,0.6,,,,,,,,,,,,,,,1.9246,,0.2,0.8,0.6,0.4,0.6,0.4,0.2,0.8,,,1.1846,,0.2,0.8,0.8,0.2,0.8,0.2,0.2,0.8,1,0
,,5ed9c3054268815691ed0e2c,66fcce14af1672a1e20f76a1,2024-10-01_22h02.23.319,mdp,2024.2.1,Win32,119.047619,66fa4ebf79326e780c390304,,,,,,,,,,,,,,,,,,,,,1244.305,1244.305,1244.3055,1245.4978,1,0,right,0.6895,,1245.4983,1246.8074,1,1,right,1246.8079,1247.9588,0,1,left,0,1247.9588,1247.9588,1247.9593,1249.46,0,10,10,10,1,0.8,0.2,0.4,0.6,,,,,,,,,,,,,,,0.801,,0.2,0.8,0.6,0.4,0.6,0.4,0.2,0.8,,,0.643099999,,0.8,0.2,0.4,0.6,0.8,0.2,0.2,0.8,1,0
,,5ed9c3054268815691ed0e2c,66fcce14af1672a1e20f76a1,2024-10-01_22h02.23.319,mdp,2024.2.1,Win32,119.047619,66fa4ebf79326e780c390304,,,,,,,,,,,,,,,,,,,,,1249.4602,1249.4602,1249.4608,1250.5027,1,1,right,0.5352,,1250.5032,1251.6121,1,0,right,1251.6126,1253.1303,1,0,right,1,1253.1304,1253.1304,1253.1308,1254.6317,0,11,11,11,1,0.8,0.2,0.4,0.6,,,,,,,,,,,,,,,0.5961,,0.2,0.8,0.6,0.4,0.6,0.4,0.2,0.8,,,1.006900001,,0.8,0.2,0.4,0.6,0.8,0.2,0.2,0.8,1,0
,,5ed9c3054268815691ed0e2c,66fcce14af1672a1e20f76a1,2024-10-01_22h02.23.319,mdp,2024.2.1,Win32,119.047619,66fa4ebf79326e780c390304,,,,,,,,,,,,,,,,,,,,,1254.632,1254.632,1254.6323,1255.8747,0,0,left,0.7416,,1255.8752,1259.545,1,1,right,1259.5455,1261.1215,1,1,right,0,1261.1216,1261.1216,1261.122,1262.6229,0,12,12,12,1,0.8,0.2,0.4,0.6,,,,,,,,,,,,,,,3.156,,0.2,0.8,0.6,0.4,0.6,0.4,0.2,0.8,,,1.0608,,0.8,0.2,0.4,0.6,0.8,0.2,0.2,0.8,1,0
,,5ed9c3054268815691ed0e2c,66fcce14af1672a1e20f76a1,2024-10-01_22h02.23.319,mdp,2024.2.1,Win32,119.047619,66fa4ebf79326e780c390304,,,,,,,,,,,,,,,,,,,,,1262.6232,1262.6232,1262.6236,1263.991,0,0,left,0.8625,,1263.9916,1265.3173,1,0,right,1265.3178,1266.5519,0,0,left,1,1266.552,1266.552,1266.5525,1268.0533,0,13,13,13,1,0.8,0.2,0.4,0.6,,,,,,,,,,,,,,,0.818400001,,0.2,0.8,0.6,0.4,0.6,0.4,0.2,0.8,,,0.7194,,0.8,0.2,0.4,0.6,0.8,0.2,0.2,0.8,1,0
,,5ed9c3054268815691ed0e2c,66fcce14af1672a1e20f76a1,2024-10-01_22h02.23.319,mdp,2024.2.1,Win32,119.047619,66fa4ebf79326e780c390304,,,,,,,,,,,,,,,,,,,,,1268.0536,1268.0536,1268.0539,1269.5715,0,0,left,1.0109,,1269.572,1272.416,1,0,right,1272.4165,1274.0349,1,1,right,0,1274.0349,1274.0349,1274.0354,1275.5357,0,14,14,14,1,0.8,0.2,0.4,0.6,,,,,,,,,,,,,,,2.3358,,0.2,0.8,0.6,0.4,0.6,0.4,0.2,0.8,,,1.1176,,0.8,0.2,0.4,0.6,0.8,0.2,0.2,0.8,1,0
,,5ed9c3054268815691ed0e2c,66fcce14af1672a1e20f76a1,2024-10-01_22h02.23.319,mdp,2024.2.1,Win32,119.047619,66fa4ebf79326e780c390304,,,,,,,,,,,,,,,,,,,,,1275.5359,1275.5359,1275.5364,1276.7202,0,0,left,0.6782,,1276.7207,1278.0132,1,1,right,1278.0136,1279.4481,0,1,left,0,1279.4482,1279.4482,1279.4487,1280.9495,0,15,15,15,1,0.8,0.2,0.4,0.6,,,,,,,,,,,,,,,0.7899,,0.2,0.8,0.6,0.4,0.6,0.4,0.2,0.8,,,0.9195,,0.8,0.2,0.4,0.6,0.8,0.2,0.2,0.8,1,0
,,5ed9c3054268815691ed0e2c,66fcce14af1672a1e20f76a1,2024-10-01_22h02.23.319,mdp,2024.2.1,Win32,119.047619,66fa4ebf79326e780c390304,,,,,,,,,,,,,,,,,,,,,1280.9498,1280.9498,1280.9503,1282.0171,0,1,left,0.5637,,1282.0177,1283.6355,0,1,left,1283.6361,1284.9534,1,0,right,1,1284.9534,1284.9534,1284.954,1286.4548,0,16,16,16,1,0.6,0.4,0.6,0.4,,,,,,,,,,,,,,,1.1066,,0.2,0.8,0.6,0.4,0.6,0.4,0.2,0.8,,,0.8138,,0.8,0.2,0.4,0.6,0.8,0.2,0.2,0.8,1,0
,,5ed9c3054268815691ed0e2c,66fcce14af1672a1e20f76a1,2024-10-01_22h02.23.319,mdp,2024.2.1,Win32,119.047619,66fa4ebf79326e780c390304,,,,,,,,,,,,,,,,,,,,,1286.4551,1286.4551,1286.4555,1287.7144,0,0,left,0.753299999,,1287.7149,1290.3086,1,0,right,1290.3091,1292.1605,0,0,left,1,1292.1606,1292.1606,1292.161,1293.6619,0,17,17,17,1,0.6,0.4,0.6,0.4,,,,,,,,,,,,,,,2.078599999,,0.2,0.8,0.6,0.4,0.6,0.4,0.2,0.8,,,1.3372,,0.8,0.2,0.4,0.6,0.8,0.2,0.2,0.8,1,0
,,5ed9c3054268815691ed0e2c,66fcce14af1672a1e20f76a1,2024-10-01_22h02.23.319,mdp,2024.2.1,Win32,119.047619,66fa4ebf79326e780c390304,,,,,,,,,,,,,,,,,,,,,1293.6621,1293.6621,1293.6626,1294.7716,0,0,left,0.600599999,,1294.7721,1296.1561,1,1,right,1296.1566,1297.2571,0,0,left,1,1297.2573,1297.2573,1297.2576,1298.7586,0,18,18,18,1,0.6,0.4,0.6,0.4,,,,,,,,,,,,,,,0.88,,0.2,0.8,0.6,0.4,0.6,0.4,0.2,0.8,,,0.5865,,0.8,0.2,0.4,0.6,0.8,0.2,0.2,0.8,1,0
,,5ed9c3054268815691ed0e2c,66fcce14af1672a1e20f76a1,2024-10-01_22h02.23.319,mdp,2024.2.1,Win32,119.047619,66fa4ebf79326e780c390304,,,,,,,,,,,,,,,,,,,,,1298.7589,1298.7589,1298.7593,1299.8098,0,0,left,0.5444,,1299.8103,1301.0359,1,0,right,1301.0365,1302.1954,0,0,left,1,1302.1954,1302.1954,1302.1959,1303.6968,0,19,19,19,1,0.6,0.4,0.6,0.4,,,,,,,,,,,,,,,0.7225,,0.2,0.8,0.6,0.4,0.6,0.4,0.2,0.8,,,0.643,,0.2,0.8,0.2,0.8,0.8,0.2,0.2,0.8,1,0
,,5ed9c3054268815691ed0e2c,66fcce14af1672a1e20f76a1,2024-10-01_22h02.23.319,mdp,2024.2.1,Win32,119.047619,66fa4ebf79326e780c390304,,,,,,,,,,,,,,,,,,,,,1303.6971,1303.6971,1303.6975,1304.7146,0,1,left,0.514900001,,1304.7151,1306.533,0,0,left,1306.5336,1309.0105,1,0,right,1,1309.0106,1309.0106,1309.011,1310.5121,0,20,20,20,1,0.6,0.4,0.6,0.4,,,,,,,,,,,,,,,1.3031,,0.2,0.8,0.6,0.4,0.6,0.4,0.2,0.8,,,1.974,,0.2,0.8,0.2,0.8,0.8,0.2,0.2,0.8,1,0
,,5ed9c3054268815691ed0e2c,66fcce14af1672a1e20f76a1,2024-10-01_22h02.23.319,mdp,2024.2.1,Win32,119.047619,66fa4ebf79326e780c390304,,,,,,,,,,,,,,,,,,,,,1310.5123,1310.5123,1310.5129,1311.6964,0,0,left,0.682099999,,1311.6969,1312.981,1,1,right,1312.9815,1314.858,1,1,right,0,1314.858,1314.858,1314.8588,1316.3593,0,21,21,21,1,0.6,0.4,0.6,0.4,,,,,,,,,,,,,,,0.774,,0.2,0.8,0.6,0.4,0.6,0.4,0.2,0.8,,,1.3597,,0.2,0.8,0.2,0.8,0.8,0.2,0.2,0.8,1,0
,,5ed9c3054268815691ed0e2c,66fcce14af1672a1e20f76a1,2024-10-01_22h02.23.319,mdp,2024.2.1,Win32,119.047619,66fa4ebf79326e780c390304,,,,,,,,,,,,,,,,,,,,,1316.3596,1316.3596,1316.36,1317.4437,0,1,left,0.5819,,1317.4443,1318.8452,0,1,left,1318.8458,1320.5969,0,1,left,0,1320.5969,1320.5969,1320.5974,1322.0983,0,22,22,22,1,0.6,0.4,0.6,0.4,,,,,,,,,,,,,,,0.884599999,,0.2,0.8,0.6,0.4,0.6,0.4,0.2,0.8,,,1.249900001,,0.2,0.8,0.2,0.8,0.8,0.2,0.2,0.8,1,0
,,5ed9c3054268815691ed0e2c,66fcce14af1672a1e20f76a1,2024-10-01_22h02.23.319,mdp,2024.2.1,Win32,119.047619,66fa4ebf79326e780c390304,,,,,,,,,,,,,,,,,,,,,1322.0986,1322.0986,1322.0991,1323.1995,0,1,left,0.5967,,1323.2,1324.4006,0,1,left,1324.4011,1325.5018,1,1,right,0,1325.5018,1325.5018,1325.5023,1327.0032,0,23,23,23,1,0.4,0.6,0.8,0.2,,,,,,,,,,,,,,,0.6996,,0.2,0.8,0.6,0.4,0.6,0.4,0.2,0.8,,,0.5961,,0.2,0.8,0.2,0.8,0.8,0.2,0.2,0.8,1,0
,,5ed9c3054268815691ed0e2c,66fcce14af1672a1e20f76a1,2024-10-01_22h02.23.319,mdp,2024.2.1,Win32,119.047619,66fa4ebf79326e780c390304,,,,,,,,,,,,,,,,,,,,,1327.0034,1327.0034,1327.0039,1328.0376,0,0,left,0.5289,,1328.0381,1330.8654,0,1,left,1330.8658,1332.3085,0,0,left,1,1332.3085,1332.3085,1332.3091,1333.8099,0,24,24,24,1,0.4,0.6,0.8,0.2,,,,,,,,,,,,,,,2.3183,,0.2,0.8,0.6,0.4,0.6,0.4,0.2,0.8,,,0.9377,,0.2,0.8,0.2,0.8,0.8,0.2,0.2,0.8,1,0
,,5ed9c3054268815691ed0e2c,66fcce14af1672a1e20f76a1,2024-10-01_22h02.23.319,mdp,2024.2.1,Win32,119.047619,66fa4ebf79326e780c390304,,,,,,,,,,,,,,,,,,,,,1333.8101,1333.8101,1333.8106,1334.8109,0,1,left,0.4972,,1334.8114,1336.8462,1,1,right,1336.8467,1338.3978,0,0,left,1,1338.3978,1338.3978,1338.3984,1339.8993,0,25,25,25,1,0.4,0.6,0.8,0.2,,,,,,,,,,,,,,,1.523,,0.8,0.2,0.8,0.2,0.6,0.4,0.2,0.8,,,1.045599999,,0.2,0.8,0.2,0.8,0.8,0.2,0.2,0.8,1,0
,,5ed9c3054268815691ed0e2c,66fcce14af1672a1e20f76a1,2024-10-01_22h02.23.319,mdp,2024.2.1,Win32,119.047619,66fa4ebf79326e780c390304,,,,,,,,,,,,,,,,,,,,,1339.8995,1339.8995,1339.8999,1342.1849,0,1,left,1.7817,,1342.1854,1344.362,0,1,left,1344.3625,1345.5716,1,0,right,1,1345.5716,1345.5716,1345.5721,1347.073,0,26,26,26,1,0.4,0.6,0.8,0.2,,,,,,,,,,,,,,,1.6731,,0.8,0.2,0.8,0.2,0.6,0.4,0.2,0.8,,,0.705,,0.2,0.8,0.2,0.8,0.8,0.2,0.2,0.8,1,0
,,5ed9c3054268815691ed0e2c,66fcce14af1672a1e20f76a1,2024-10-01_22h02.23.319,mdp,2024.2.1,Win32,119.047619,66fa4ebf79326e780c390304,,,,,,,,,,,,,,,,,,,,,1347.0733,1347.0733,1347.0737,1348.7914,0,0,left,1.216,,1348.7919,1350.3513,1,0,right,1350.3518,1351.5441,0,1,left,0,1351.5442,1351.5442,1351.5446,1353.0455,0,27,27,27,1,0.4,0.6,0.8,0.2,,,,,,,,,,,,,,,1.045,,0.8,0.2,0.8,0.2,0.6,0.4,0.2,0.8,,,0.6806,,0.2,0.8,0.2,0.8,0.8,0.2,0.2,0.8,1,0
,,5ed9c3054268815691ed0e2c,66fcce14af1672a1e20f76a1,2024-10-01_22h02.23.319,mdp,2024.2.1,Win32,119.047619,66fa4ebf79326e780c390304,,,,,,,,,,,,,,,,,,,,,1353.0459,1353.0459,1353.0463,1354.0966,0,1,left,0.5425,,1354.0971,1355.7733,0,0,left,1355.7737,1357.0496,1,0,right,1,1357.0496,1357.0496,1357.0501,1358.551,0,28,28,28,1,0.4,0.6,0.8,0.2,,,,,,,,,,,,,,,1.1618,,0.8,0.2,0.8,0.2,0.6,0.4,0.2,0.8,,,0.7705,,0.2,0.8,0.2,0.8,0.8,0.2,0.2,0.8,1,0
,,5ed9c3054268815691ed0e2c,66fcce14af1672a1e20f76a1,2024-10-01_22h02.23.319,mdp,2024.2.1,Win32,119.047619,66fa4ebf79326e780c390304,,,,,,,,,,,,,,,,,,,,,1358.5513,1358.5513,1358.5517,1359.7857,0,0,left,0.728,,1359.7862,1361.7709,1,0,right,1361.7714,1363.2223,1,1,right,0,1363.2224,1363.2224,1363.2228,1364.7238,0,29,29,29,1,0.4,0.6,0.8,0.2,,,,,,,,,,,,,,,1.4722,,0.8,0.2,0.8,0.2,0.6,0.4,0.2,0.8,,,0.942599999,,0.2,0.8,0.2,0.8,0.8,0.2,0.2,0.8,1,0
,,5ed9c3054268815691ed0e2c,66fcce14af1672a1e20f76a1,2024-10-01_22h02.23.319,mdp,2024.2.1,Win32,119.047619,66fa4ebf79326e780c390304,,,,,,,,,,,,,,,,,,,,,1364.7241,1364.7241,1364.7244,1365.8419,0,0,left,0.6162,,1365.8424,1368.0438,1,1,right,1368.0442,1369.1616,0,0,left,1,1369.1616,1369.1616,1369.162,1370.6629,0,30,30,30,1,0.4,0.6,0.8,0.2,,,,,,,,,,,,,,,1.7003,,0.8,0.2,0.8,0.2,0.6,0.4,0.2,0.8,,,0.6015,,0.2,0.8,0.2,0.8,0.8,0.2,0.2,0.8,1,0
,,5ed9c3054268815691ed0e2c,66fcce14af1672a1e20f76a1,2024-10-01_22h02.23.319,mdp,2024.2.1,Win32,119.047619,66fa4ebf79326e780c390304,,,,,,,,,,,,,,,,,,,,,1370.6632,1370.6632,1370.6636,1371.614,0,0,left,0.4479,,1371.6145,1372.6983,1,0,right,1372.6989,1373.9079,0,1,left,0,1373.9079,1373.9079,1373.9085,1375.4093,0,31,31,31,1,0.4,0.6,0.8,0.2,,,,,,,,,,,,,,,0.577900001,,0.8,0.2,0.8,0.2,0.6,0.4,0.2,0.8,,,0.696900001,,0.2,0.8,0.2,0.8,0.8,0.2,0.2,0.8,1,0
,,5ed9c3054268815691ed0e2c,66fcce14af1672a1e20f76a1,2024-10-01_22h02.23.319,mdp,2024.2.1,Win32,119.047619,66fa4ebf79326e780c390304,,,,,,,,,,,,,,,,,,,,,1375.4095,1375.4095,1375.4099,1376.3936,0,0,left,0.4825,,1376.3942,1377.67,1,0,right,1377.6704,1378.9129,1,1,right,0,1378.9129,1378.9129,1378.9135,1380.4142,0,32,32,32,1,0.4,0.6,0.8,0.2,,,,,,,,,,,,,,,0.7711,,0.8,0.2,0.8,0.2,0.6,0.4,0.2,0.8,,,0.735,,0.2,0.8,0.2,0.8,0.8,0.2,0.2,0.8,1,0
,,5ed9c3054268815691ed0e2c,66fcce14af1672a1e20f76a1,2024-10-01_22h02.23.319,mdp,2024.2.1,Win32,119.047619,66fa4ebf79326e780c390304,,,,,,,,,,,,,,,,,,,,,1380.4145,1380.4145,1380.4148,1382.2327,0,1,left,1.3117,,1382.2332,1383.6425,0,1,left,1383.643,1385.8363,1,1,right,0,1385.8364,1385.8364,1385.8368,1387.3379,0,33,33,33,1,0.4,0.6,0.8,0.2,,,,,,,,,,,,,,,0.8964,,0.8,0.2,0.8,0.2,0.6,0.4,0.2,0.8,,,1.6807,,0.2,0.8,0.2,0.8,0.8,0.2,0.2,0.8,1,0
,,5ed9c3054268815691ed0e2c,66fcce14af1672a1e20f76a1,2024-10-01_22h02.23.319,mdp,2024.2.1,Win32,119.047619,66fa4ebf79326e780c390304,,,,,,,,,,,,,,,,,,,,,1387.3381,1387.3381,1387.3385,1388.3889,0,0,left,0.5489,,1388.3893,1389.8737,1,0,right,1389.8742,1390.9831,0,1,left,0,1390.9831,1390.9831,1390.9835,1392.4845,0,34,34,34,1,0.4,0.6,0.8,0.2,,,,,,,,,,,,,,,0.9698,,0.8,0.2,0.8,0.2,0.6,0.4,0.2,0.8,,,0.5931,,0.2,0.8,0.2,0.8,0.8,0.2,0.2,0.8,1,0
,,5ed9c3054268815691ed0e2c,66fcce14af1672a1e20f76a1,2024-10-01_22h02.23.319,mdp,2024.2.1,Win32,119.047619,66fa4ebf79326e780c390304,,,,,,,,,,,,,,,,,,,,,1392.4847,1392.4847,1392.4851,1393.6523,0,1,left,0.659099999,,1393.6528,1395.6878,0,0,left,1395.6883,1397.2392,1,1,right,0,1397.2393,1397.2393,1397.2397,1398.7407,0,35,35,35,1,0.4,0.6,0.8,0.2,,,,,,,,,,,,,,,1.5238,,0.8,0.2,0.8,0.2,0.6,0.4,0.2,0.8,,,1.0442,,0.2,0.8,0.2,0.8,0.8,0.2,0.2,0.8,1,0
,,5ed9c3054268815691ed0e2c,66fcce14af1672a1e20f76a1,2024-10-01_22h02.23.319,mdp,2024.2.1,Win32,119.047619,66fa4ebf79326e780c390304,,,,,,,,,,,,,,,,,,,,,1398.741,1398.741,1398.7414,1399.7501,0,1,left,0.506799999,,1399.7505,1400.8845,0,0,left,1400.885,1402.1859,0,1,left,0,1402.1859,1402.1859,1402.1864,1403.6872,0,36,36,36,1,0.4,0.6,0.8,0.2,,,,,,,,,,,,,,,0.6267,,0.8,0.2,0.8,0.2,0.6,0.4,0.2,0.8,,,0.7962,,0.2,0.8,0.2,0.8,0.8,0.2,0.2,0.8,1,0
,,5ed9c3054268815691ed0e2c,66fcce14af1672a1e20f76a1,2024-10-01_22h02.23.319,mdp,2024.2.1,Win32,119.047619,66fa4ebf79326e780c390304,,,,,,,,,,,,,,,,,,,,,1403.6874,1403.6874,1403.6878,1404.9468,0,1,left,0.752,,1404.9473,1407.441,0,1,left,1407.4416,1408.6255,1,1,right,0,1408.6255,1408.6255,1408.626,1410.1269,0,37,37,37,1,0.4,0.6,0.8,0.2,,,,,,,,,,,,,,,1.986099999,,0.8,0.2,0.8,0.2,0.4,0.6,0.4,0.6,,,0.668099999,,0.2,0.8,0.2,0.8,0.8,0.2,0.2,0.8,1,0
,,5ed9c3054268815691ed0e2c,66fcce14af1672a1e20f76a1,2024-10-01_22h02.23.319,mdp,2024.2.1,Win32,119.047619,66fa4ebf79326e780c390304,,,,,,,,,,,,,,,,,,,,,1410.1272,1410.1272,1410.1276,1411.1203,0,0,left,0.4919,,1411.1208,1413.0131,0,0,left,1413.0136,1414.0726,0,0,left,1,1414.0726,1414.0726,1414.0731,1415.5739,0,38,38,38,1,0.4,0.6,0.8,0.2,,,,,,,,,,,,,,,1.3755,,0.8,0.2,0.8,0.2,0.4,0.6,0.4,0.6,,,0.5465,,0.2,0.8,0.2,0.8,0.8,0.2,0.2,0.8,1,0
,,5ed9c3054268815691ed0e2c,66fcce14af1672a1e20f76a1,2024-10-01_22h02.23.319,mdp,2024.2.1,Win32,119.047619,66fa4ebf79326e780c390304,,,,,,,,,,,,,,,,,,,,,1415.5742,1415.5742,1415.5746,1416.9671,0,1,left,0.885900001,,1416.9676,1418.6688,0,1,left,1418.6693,1419.8115,0,0,left,1,1419.8115,1419.8115,1419.812,1421.3131,0,39,39,39,1,0.2,0.8,0.2,0.8,,,,,,,,,,,,,,,1.186099999,,0.8,0.2,0.8,0.2,0.4,0.6,0.4,0.6,,,0.6294,,0.2,0.8,0.2,0.8,0.8,0.2,0.2,0.8,1,0
,,5ed9c3054268815691ed0e2c,66fcce14af1672a1e20f76a1,2024-10-01_22h02.23.319,mdp,2024.2.1,Win32,119.047619,66fa4ebf79326e780c390304,,,,,,,,,,,,,,,,,,,,,1421.3133,1421.3133,1421.3136,1422.1138,0,1,left,0.2946,,1422.1143,1423.2483,0,1,left,1423.2487,1424.3244,0,0,left,1,1424.3244,1424.3244,1424.3248,1425.8258,0,40,40,40,1,0.2,0.8,0.2,0.8,,,,,,,,,,,,,,,0.6298,,0.8,0.2,0.8,0.2,0.4,0.6,0.4,0.6,,,0.5683,,0.2,0.8,0.2,0.8,0.8,0.2,0.2,0.8,1,0
,,5ed9c3054268815691ed0e2c,66fcce14af1672a1e20f76a1,2024-10-01_22h02.23.319,mdp,2024.2.1,Win32,119.047619,66fa4ebf79326e780c390304,,,,,,,,,,,,,,,,,,,,,1425.826,1425.826,1425.8264,1426.7183,0,1,left,0.387799999,,1426.7188,1427.9362,0,1,left,1427.9367,1429.0874,0,0,left,1,1429.0874,1429.0874,1429.0879,1430.5889,0,41,41,41,1,0.2,0.8,0.2,0.8,,,,,,,,,,,,,,,0.7114,,0.8,0.2,0.8,0.2,0.4,0.6,0.4,0.6,,,0.6414,,0.2,0.8,0.2,0.8,0.6,0.4,0.8,0.2,1,0
,,5ed9c3054268815691ed0e2c,66fcce14af1672a1e20f76a1,2024-10-01_22h02.23.319,mdp,2024.2.1,Win32,119.047619,66fa4ebf79326e780c390304,,,,,,,,,,,,,,,,,,,,,1430.5891,1430.5891,1430.5896,1431.5398,0,0,left,0.4457,,1431.5403,1432.7327,0,0,left,1432.7331,1433.9255,0,1,left,0,1433.9256,1433.9256,1433.926,1435.4269,0,42,42,42,1,0.2,0.8,0.2,0.8,,,,,,,,,,,,,,,0.678299999,,0.8,0.2,0.8,0.2,0.4,0.6,0.4,0.6,,,0.6788,,0.2,0.8,0.2,0.8,0.8,0.2,0.6,0.4,1,0
,,5ed9c3054268815691ed0e2c,66fcce14af1672a1e20f76a1,2024-10-01_22h02.23.319,mdp,2024.2.1,Win32,119.047619,66fa4ebf79326e780c390304,,,,,,,,,,,,,,,,,,,,,1435.4272,1435.4272,1435.4276,1436.5865,0,0,left,0.6555,,1436.5869,1437.7459,0,0,left,1437.7464,1438.8971,0,1,left,0,1438.8971,1438.8971,1438.8976,1440.3985,0,43,43,43,1,0.2,0.8,0.2,0.8,,,,,,,,,,,,,,,0.653,,0.8,0.2,0.8,0.2,0.4,0.6,0.4,0.6,,,0.6425,,0.2,0.8,0.2,0.8,0.8,0.2,0.6,0.4,1,0
,,5ed9c3054268815691ed0e2c,66fcce14af1672a1e20f76a1,2024-10-01_22h02.23.319,mdp,2024.2.1,Win32,119.047619,66fa4ebf79326e780c390304,,,,,,,,,,,,,,,,,,,,,1440.3987,1440.3987,1440.3991,1442.0501,0,1,left,1.148,,1442.0506,1443.8853,0,1,left,1443.8858,1445.2784,1,1,right,0,1445.2784,1445.2784,1445.2789,1446.7798,0,44,44,44,1,0.2,0.8,0.2,0.8,,,,,,,,,,,,,,,1.3217,,0.8,0.2,0.8,0.2,0.4,0.6,0.4,0.6,,,0.8797,,0.2,0.8,0.2,0.8,0.8,0.2,0.6,0.4,1,0
,,5ed9c3054268815691ed0e2c,66fcce14af1672a1e20f76a1,2024-10-01_22h02.23.319,mdp,2024.2.1,Win32,119.047619,66fa4ebf79326e780c390304,,,,,,,,,,,,,,,,,,,,,1446.7801,1446.7801,1446.7805,1447.7057,0,1,left,0.4171,,1447.7063,1449.0154,0,1,left,1449.0158,1450.4,0,0,left,1,1450.4001,1450.4001,1450.4006,1451.9016,0,45,45,45,1,0.2,0.8,0.2,0.8,,,,,,,,,,,,,,,0.802799999,,0.8,0.2,0.8,0.2,0.6,0.4,0.2,0.8,,,0.8812,,0.2,0.8,0.2,0.8,0.8,0.2,0.6,0.4,1,0
,,5ed9c3054268815691ed0e2c,66fcce14af1672a1e20f76a1,2024-10-01_22h02.23.319,mdp,2024.2.1,Win32,119.047619,66fa4ebf79326e780c390304,,,,,,,,,,,,,,,,,,,,,1451.9017,1451.9017,1451.9022,1452.9693,0,1,left,0.559,,1452.9698,1454.1121,0,0,left,1454.1126,1455.3216,0,1,left,0,1455.3217,1455.3217,1455.3221,1456.8231,0,46,46,46,1,0.2,0.8,0.2,0.8,,,,,,,,,,,,,,,0.6362,,0.8,0.2,0.8,0.2,0.6,0.4,0.2,0.8,,,0.696900001,,0.2,0.8,0.2,0.8,0.8,0.2,0.6,0.4,1,0
,,5ed9c3054268815691ed0e2c,66fcce14af1672a1e20f76a1,2024-10-01_22h02.23.319,mdp,2024.2.1,Win32,119.047619,66fa4ebf79326e780c390304,,,,,,,,,,,,,,,,,,,,,1456.8233,1456.8233,1456.8237,1457.7073,0,1,left,0.375,,1457.7078,1459.0503,0,0,left,1459.0508,1460.2097,1,1,right,0,1460.2098,1460.2098,1460.2103,1461.7112,0,47,47,47,1,0.2,0.8,0.2,0.8,,,,,,,,,,,,,,,0.839299999,,0.8,0.2,0.8,0.2,0.6,0.4,0.2,0.8,,,0.657,,0.2,0.8,0.2,0.8,0.8,0.2,0.6,0.4,1,0
,,5ed9c3054268815691ed0e2c,66fcce14af1672a1e20f76a1,2024-10-01_22h02.23.319,mdp,2024.2.1,Win32,119.047619,66fa4ebf79326e780c390304,,,,,,,,,,,,,,,,,,,,,1461.7114,1461.7114,1461.7118,1462.7289,0,1,left,0.5152,,1462.7294,1463.9969,1,0,right,1463.9974,1465.2064,0,0,left,1,1465.2064,1465.2064,1465.2069,1466.7079,0,48,48,48,1,0.2,0.8,0.2,0.8,,,,,,,,,,,,,,,0.7592,,0.8,0.2,0.8,0.2,0.6,0.4,0.2,0.8,,,0.706599999,,0.2,0.8,0.2,0.8,0.8,0.2,0.6,0.4,1,0
,,5ed9c3054268815691ed0e2c,66fcce14af1672a1e20f76a1,2024-10-01_22h02.23.319,mdp,2024.2.1,Win32,119.047619,66fa4ebf79326e780c390304,,,,,,,,,,,,,,,,,,,,,1466.7081,1466.7081,1466.7085,1467.6504,0,1,left,0.4354,,1467.6509,1468.7599,1,1,right,1468.7603,1469.8526,0,0,left,1,1469.8526,1469.8526,1469.8531,1471.3541,0,49,49,49,1,0.2,0.8,0.2,0.8,,,,,,,,,,,,,,,0.6071,,0.8,0.2,0.8,0.2,0.6,0.4,0.2,0.8,,,0.580599999,,0.2,0.8,0.2,0.8,0.8,0.2,0.6,0.4,1,0
,,5ed9c3054268815691ed0e2c,66fcce14af1672a1e20f76a1,2024-10-01_22h02.23.319,mdp,2024.2.1,Win32,119.047619,66fa4ebf79326e780c390304,,,,,,,,,,,,,,,,,,,,,,,,,,,,,,,,,,,,,,,,,,,,,,,,,,,,,,,,1471.3542,1529.8535,0,2,2,4,1,imgs/kangaroo.png,imgs/dog.png,imgs/giraffe.png,imgs/rabbit.png,imgs/squirrel.png,,,,,,,,,,,,,,,,,,,,,,,,
,,5ed9c3054268815691ed0e2c,66fcce14af1672a1e20f76a1,2024-10-01_22h02.23.319,mdp,2024.2.1,Win32,119.047619,66fa4ebf79326e780c390304,,,,,,,,,,,,,,3,seqs/st3seq15.csv,1529.8537,1598.2544,space,67.8956,,1598.2584,1598.2584,1598.2587,1601.2156,0,1,left,2.4387,,1601.2161,1602.7506,1,0,right,1602.7511,1604.1769,0,0,left,1,1604.1769,1604.1769,1604.1774,1605.6784,0,0,0,0,1,0.2,0.8,0.6,0.4,,,,,,,,,,,,,,,1.0181,,0.2,0.8,0.8,0.2,0.2,0.8,0.8,0.2,,,0.9099,,0.8,0.2,0.2,0.8,0.8,0.2,0.2,0.8,1,0
,,5ed9c3054268815691ed0e2c,66fcce14af1672a1e20f76a1,2024-10-01_22h02.23.319,mdp,2024.2.1,Win32,119.047619,66fa4ebf79326e780c390304,,,,,,,,,,,,,,,,,,,,,1605.6786,1605.6786,1605.679,1606.6293,0,1,left,0.4464,,1606.6297,1608.1391,0,1,left,1608.1396,1609.4321,1,1,right,0,1609.4321,1609.4321,1609.4326,1610.9335,0,1,1,1,1,0.2,0.8,0.6,0.4,,,,,,,,,,,,,,,1.0034,,0.2,0.8,0.8,0.2,0.2,0.8,0.8,0.2,,,0.7773,,0.8,0.2,0.2,0.8,0.8,0.2,0.2,0.8,1,0
,,5ed9c3054268815691ed0e2c,66fcce14af1672a1e20f76a1,2024-10-01_22h02.23.319,mdp,2024.2.1,Win32,119.047619,66fa4ebf79326e780c390304,,,,,,,,,,,,,,,,,,,,,1610.9337,1610.9337,1610.9342,1612.0014,0,0,left,0.5631,,1612.0019,1614.1451,0,1,left,1614.1455,1615.5298,0,0,left,1,1615.5298,1615.5298,1615.5303,1617.0313,0,2,2,2,1,0.2,0.8,0.6,0.4,,,,,,,,,,,,,,,1.628400001,,0.2,0.8,0.8,0.2,0.2,0.8,0.8,0.2,,,0.8808,,0.8,0.2,0.2,0.8,0.8,0.2,0.2,0.8,1,0
,,5ed9c3054268815691ed0e2c,66fcce14af1672a1e20f76a1,2024-10-01_22h02.23.319,mdp,2024.2.1,Win32,119.047619,66fa4ebf79326e780c390304,,,,,,,,,,,,,,,,,,,,,1617.0316,1617.0316,1617.0319,1617.9738,0,0,left,0.435,,1617.9744,1619.1751,0,1,left,1619.1755,1620.2678,0,0,left,1,1620.2678,1620.2678,1620.2683,1621.7692,0,3,3,3,1,0.2,0.8,0.6,0.4,,,,,,,,,,,,,,,0.697099999,,0.2,0.8,0.8,0.2,0.8,0.2,0.6,0.4,,,0.584099999,,0.8,0.2,0.2,0.8,0.8,0.2,0.2,0.8,1,0
,,5ed9c3054268815691ed0e2c,66fcce14af1672a1e20f76a1,2024-10-01_22h02.23.319,mdp,2024.2.1,Win32,119.047619,66fa4ebf79326e780c390304,,,,,,,,,,,,,,,,,,,,,1621.7695,1621.7695,1621.7699,1622.6201,0,1,left,0.3466,,1622.6207,1624.1717,0,0,left,1624.1722,1625.206,0,1,left,0,1625.206,1625.206,1625.2065,1626.7075,0,4,4,4,1,0.2,0.8,0.6,0.4,,,,,,,,,,,,,,,1.0381,,0.2,0.8,0.8,0.2,0.8,0.2,0.6,0.4,,,0.5195,,0.8,0.2,0.2,0.8,0.8,0.2,0.2,0.8,1,0
,,5ed9c3054268815691ed0e2c,66fcce14af1672a1e20f76a1,2024-10-01_22h02.23.319,mdp,2024.2.1,Win32,119.047619,66fa4ebf79326e780c390304,,,,,,,,,,,,,,,,,,,,,1626.7078,1626.7078,1626.7082,1627.6417,0,1,left,0.4257,,1627.6423,1629.1182,1,1,right,1629.1187,1630.5696,0,1,left,0,1630.5697,1630.5697,1630.57,1632.0711,0,5,5,5,1,0.2,0.8,0.6,0.4,,,,,,,,,,,,,,,0.975099999,,0.2,0.8,0.8,0.2,0.8,0.2,0.6,0.4,,,0.9379,,0.8,0.2,0.2,0.8,0.2,0.8,0.8,0.2,1,0
,,5ed9c3054268815691ed0e2c,66fcce14af1672a1e20f76a1,2024-10-01_22h02.23.319,mdp,2024.2.1,Win32,119.047619,66fa4ebf79326e780c390304,,,,,,,,,,,,,,,,,,,,,1632.0713,1632.0713,1632.0718,1633.0804,0,0,left,0.5008,,1633.081,1634.5569,0,1,left,1634.5573,1635.9833,0,0,left,1,1635.9834,1635.9834,1635.9838,1637.4853,0,6,6,6,1,0.8,0.2,0.2,0.8,,,,,,,,,,,,,,,0.966200001,,0.2,0.8,0.8,0.2,0.8,0.2,0.6,0.4,,,0.9218,,0.8,0.2,0.2,0.8,0.2,0.8,0.8,0.2,1,0
,,5ed9c3054268815691ed0e2c,66fcce14af1672a1e20f76a1,2024-10-01_22h02.23.319,mdp,2024.2.1,Win32,119.047619,66fa4ebf79326e780c390304,,,,,,,,,,,,,,,,,,,,,1637.4856,1637.4856,1637.486,1638.4691,0,0,left,0.4706,,1638.4696,1639.5869,0,0,left,1639.5873,1641.0466,0,0,left,1,1641.0467,1641.0467,1641.0471,1642.5481,0,7,7,7,1,0.8,0.2,0.2,0.8,,,,,,,,,,,,,,,0.6148,,0.2,0.8,0.8,0.2,0.8,0.2,0.6,0.4,,,0.9445,,0.8,0.2,0.2,0.8,0.2,0.8,0.8,0.2,1,0
,,5ed9c3054268815691ed0e2c,66fcce14af1672a1e20f76a1,2024-10-01_22h02.23.319,mdp,2024.2.1,Win32,119.047619,66fa4ebf79326e780c390304,,,,,,,,,,,,,,,,,,,,,1642.5483,1642.5483,1642.5487,1643.4574,0,1,left,0.4036,,1643.4579,1644.9171,1,0,right,1644.9176,1646.1934,0,0,left,1,1646.1934,1646.1934,1646.1938,1647.6949,0,8,8,8,1,0.4,0.6,0.6,0.4,,,,,,,,,,,,,,,0.9425,,0.2,0.8,0.8,0.2,0.8,0.2,0.6,0.4,,,0.7746,,0.8,0.2,0.2,0.8,0.2,0.8,0.8,0.2,1,0
,,5ed9c3054268815691ed0e2c,66fcce14af1672a1e20f76a1,2024-10-01_22h02.23.319,mdp,2024.2.1,Win32,119.047619,66fa4ebf79326e780c390304,,,,,,,,,,,,,,,,,,,,,1647.6951,1647.6951,1647.6956,1648.7042,0,0,left,0.5048,,1648.7046,1650.0889,0,0,left,1650.0893,1651.532,0,0,left,1,1651.532,1651.532,1651.5325,1653.0335,0,9,9,9,1,0.4,0.6,0.6,0.4,,,,,,,,,,,,,,,0.8714,,0.2,0.8,0.8,0.2,0.8,0.2,0.6,0.4,,,0.9345,,0.8,0.2,0.2,0.8,0.2,0.8,0.8,0.2,1,0
,,5ed9c3054268815691ed0e2c,66fcce14af1672a1e20f76a1,2024-10-01_22h02.23.319,mdp,2024.2.1,Win32,119.047619,66fa4ebf79326e780c390304,,,,,,,,,,,,,,,,,,,,,1653.0338,1653.0338,1653.0342,1654.0011,0,0,left,0.4623,,1654.0015,1655.1356,0,0,left,1655.136,1656.245,0,0,left,1,1656.245,1656.245,1656.2454,1657.7464,0,10,10,10,1,0.4,0.6,0.6,0.4,,,,,,,,,,,,,,,0.6306,,0.2,0.8,0.8,0.2,0.8,0.2,0.6,0.4,,,0.6051,,0.8,0.2,0.2,0.8,0.2,0.8,0.8,0.2,1,0
,,5ed9c3054268815691ed0e2c,66fcce14af1672a1e20f76a1,2024-10-01_22h02.23.319,mdp,2024.2.1,Win32,119.047619,66fa4ebf79326e780c390304,,,,,,,,,,,,,,,,,,,,,1657.7467,1657.7467,1657.747,1658.7474,0,1,left,0.4983,,1658.7479,1659.9904,1,0,right,1659.9909,1661.2332,0,0,left,1,1661.2332,1661.2332,1661.2337,1662.7348,0,11,11,11,1,0.4,0.6,0.6,0.4,,,,,,,,,,,,,,,0.7264,,0.2,0.8,0.8,0.2,0.8,0.2,0.6,0.4,,,0.735299999,,0.8,0.2,0.2,0.8,0.2,0.8,0.8,0.2,1,0
,,5ed9c3054268815691ed0e2c,66fcce14af1672a1e20f76a1,2024-10-01_22h02.23.319,mdp,2024.2.1,Win32,119.047619,66fa4ebf79326e780c390304,,,,,,,,,,,,,,,,,,,,,1662.7349,1662.7349,1662.7354,1663.7273,0,1,left,0.4872,,1663.7278,1664.9953,1,1,right,1664.9958,1666.1965,0,1,left,0,1666.1965,1666.1965,1666.197,1667.6984,0,12,12,12,1,0.4,0.6,0.6,0.4,,,,,,,,,,,,,,,0.7632,,0.2,0.8,0.8,0.2,0.8,0.2,0.6,0.4,,,0.6873,,0.8,0.2,0.2,0.8,0.2,0.8,0.8,0.2,1,0
,,5ed9c3054268815691ed0e2c,66fcce14af1672a1e20f76a1,2024-10-01_22h02.23.319,mdp,2024.2.1,Win32,119.047619,66fa4ebf79326e780c390304,,,,,,,,,,,,,,,,,,,,,1667.6987,1667.6987,1667.6991,1668.991,0,1,left,0.7834,,1668.9915,1670.2921,1,0,right,1670.2927,1671.7019,1,0,right,1,1671.7019,1671.7019,1671.7024,1673.2034,0,13,13,13,1,0.4,0.6,0.6,0.4,,,,,,,,,,,,,,,0.7927,,0.2,0.8,0.8,0.2,0.8,0.2,0.6,0.4,,,0.8935,,0.8,0.2,0.2,0.8,0.2,0.8,0.8,0.2,1,0
,,5ed9c3054268815691ed0e2c,66fcce14af1672a1e20f76a1,2024-10-01_22h02.23.319,mdp,2024.2.1,Win32,119.047619,66fa4ebf79326e780c390304,,,,,,,,,,,,,,,,,,,,,1673.2036,1673.2036,1673.204,1674.3044,0,0,left,0.594400001,,1674.305,1675.5891,0,1,left,1675.5896,1677.0572,1,1,right,0,1677.0573,1677.0573,1677.0577,1678.5587,0,14,14,14,1,0.4,0.6,0.6,0.4,,,,,,,,,,,,,,,0.768599999,,0.2,0.8,0.8,0.2,0.8,0.2,0.6,0.4,,,0.956,,0.8,0.2,0.2,0.8,0.2,0.8,0.8,0.2,1,0
,,5ed9c3054268815691ed0e2c,66fcce14af1672a1e20f76a1,2024-10-01_22h02.23.319,mdp,2024.2.1,Win32,119.047619,66fa4ebf79326e780c390304,,,,,,,,,,,,,,,,,,,,,1678.559,1678.559,1678.5594,1679.5679,0,0,left,0.5069,,1679.5685,1680.8609,0,0,left,1680.8614,1682.179,0,0,left,1,1682.1791,1682.1791,1682.1795,1683.6803,0,15,15,15,1,0.4,0.6,0.6,0.4,,,,,,,,,,,,,,,0.7857,,0.2,0.8,0.8,0.2,0.6,0.4,0.4,0.6,,,0.8083,,0.8,0.2,0.2,0.8,0.2,0.8,0.8,0.2,1,0
,,5ed9c3054268815691ed0e2c,66fcce14af1672a1e20f76a1,2024-10-01_22h02.23.319,mdp,2024.2.1,Win32,119.047619,66fa4ebf79326e780c390304,,,,,,,,,,,,,,,,,,,,,1683.6806,1683.6806,1683.6811,1684.9483,0,0,left,0.760400001,,1684.9489,1686.1828,0,1,left,1686.1834,1687.4591,0,0,left,1,1687.4592,1687.4592,1687.4595,1688.9606,0,16,16,16,1,0.4,0.6,0.6,0.4,,,,,,,,,,,,,,,0.728299999,,0.2,0.8,0.8,0.2,0.6,0.4,0.4,0.6,,,0.7651,,0.8,0.2,0.2,0.8,0.2,0.8,0.8,0.2,1,0
,,5ed9c3054268815691ed0e2c,66fcce14af1672a1e20f76a1,2024-10-01_22h02.23.319,mdp,2024.2.1,Win32,119.047619,66fa4ebf79326e780c390304,,,,,,,,,,,,,,,,,,,,,1688.9609,1688.9609,1688.9613,1690.4621,0,0,left,0.999099999,,1690.4626,1691.9386,0,1,left,1691.9391,1694.7413,0,0,left,1,1694.7414,1694.7414,1694.7418,1696.2428,0,17,17,17,1,0.4,0.6,0.6,0.4,,,,,,,,,,,,,,,0.9695,,0.2,0.8,0.8,0.2,0.6,0.4,0.4,0.6,,,2.2999,,0.8,0.2,0.2,0.8,0.2,0.8,0.8,0.2,1,0
,,5ed9c3054268815691ed0e2c,66fcce14af1672a1e20f76a1,2024-10-01_22h02.23.319,mdp,2024.2.1,Win32,119.047619,66fa4ebf79326e780c390304,,,,,,,,,,,,,,,,,,,,,1696.2431,1696.2431,1696.2435,1697.3605,0,1,left,0.608,,1697.361,1699.1875,1,1,right,1699.188,1700.4135,0,0,left,1,1700.4136,1700.4136,1700.4141,1701.9151,0,18,18,18,1,0.4,0.6,0.6,0.4,,,,,,,,,,,,,,,1.3168,,0.2,0.8,0.8,0.2,0.6,0.4,0.4,0.6,,,0.718599999,,0.8,0.2,0.2,0.8,0.2,0.8,0.8,0.2,1,0
,,5ed9c3054268815691ed0e2c,66fcce14af1672a1e20f76a1,2024-10-01_22h02.23.319,mdp,2024.2.1,Win32,119.047619,66fa4ebf79326e780c390304,,,,,,,,,,,,,,,,,,,,,1701.9153,1701.9153,1701.9157,1704.4092,0,1,left,1.9895,,1704.4097,1705.8606,1,1,right,1705.8613,1707.3788,0,1,left,0,1707.3789,1707.3789,1707.3793,1708.8803,0,19,19,19,1,0.4,0.6,0.6,0.4,,,,,,,,,,,,,,,0.9443,,0.2,0.8,0.8,0.2,0.6,0.4,0.4,0.6,,,1.011,,0.8,0.2,0.2,0.8,0.2,0.8,0.8,0.2,1,0
,,5ed9c3054268815691ed0e2c,66fcce14af1672a1e20f76a1,2024-10-01_22h02.23.319,mdp,2024.2.1,Win32,119.047619,66fa4ebf79326e780c390304,,,,,,,,,,,,,,,,,,,,,1708.8805,1708.8805,1708.8809,1710.6654,0,1,left,1.2813,,1710.6659,1711.9917,1,0,right,1711.9922,1714.5525,1,1,right,0,1714.5525,1714.5525,1714.553,1716.054,0,20,20,20,1,0.4,0.6,0.6,0.4,,,,,,,,,,,,,,,0.8177,,0.8,0.2,0.2,0.8,0.6,0.4,0.4,0.6,,,2.0466,,0.8,0.2,0.2,0.8,0.2,0.8,0.8,0.2,1,0
,,5ed9c3054268815691ed0e2c,66fcce14af1672a1e20f76a1,2024-10-01_22h02.23.319,mdp,2024.2.1,Win32,119.047619,66fa4ebf79326e780c390304,,,,,,,,,,,,,,,,,,,,,1716.0542,1716.0543,1716.0547,1717.1969,0,1,left,0.639400001,,1717.1974,1718.5982,1,1,right,1718.5988,1719.6826,0,1,left,0,1719.6826,1719.6826,1719.6831,1721.1841,0,21,21,21,1,0.4,0.6,0.6,0.4,,,,,,,,,,,,,,,0.8979,,0.8,0.2,0.2,0.8,0.6,0.4,0.4,0.6,,,0.5718,,0.8,0.2,0.2,0.8,0.2,0.8,0.8,0.2,1,0
,,5ed9c3054268815691ed0e2c,66fcce14af1672a1e20f76a1,2024-10-01_22h02.23.319,mdp,2024.2.1,Win32,119.047619,66fa4ebf79326e780c390304,,,,,,,,,,,,,,,,,,,,,1721.1844,1721.1844,1721.1847,1722.3519,0,0,left,0.6613,,1722.3524,1723.745,0,0,left,1723.7454,1724.8376,0,0,left,1,1724.8378,1724.8378,1724.8382,1726.3392,0,22,22,22,1,0.4,0.6,0.6,0.4,,,,,,,,,,,,,,,0.8774,,0.8,0.2,0.2,0.8,0.6,0.4,0.4,0.6,,,0.5815,,0.8,0.2,0.2,0.8,0.2,0.8,0.8,0.2,1,0
,,5ed9c3054268815691ed0e2c,66fcce14af1672a1e20f76a1,2024-10-01_22h02.23.319,mdp,2024.2.1,Win32,119.047619,66fa4ebf79326e780c390304,,,,,,,,,,,,,,,,,,,,,1726.3394,1726.3394,1726.3398,1727.3902,0,1,left,0.5473,,1727.3907,1729.1337,0,0,left,1729.1341,1730.2765,0,0,left,1,1730.2765,1730.2765,1730.2769,1731.7778,0,23,23,23,1,0.4,0.6,0.6,0.4,,,,,,,,,,,,,,,1.226799999,,0.8,0.2,0.2,0.8,0.6,0.4,0.4,0.6,,,0.6398,,0.8,0.2,0.2,0.8,0.2,0.8,0.8,0.2,1,0
,,5ed9c3054268815691ed0e2c,66fcce14af1672a1e20f76a1,2024-10-01_22h02.23.319,mdp,2024.2.1,Win32,119.047619,66fa4ebf79326e780c390304,,,,,,,,,,,,,,,,,,,,,1731.7781,1731.7781,1731.7786,1732.8206,0,0,left,0.5355,,1732.8211,1734.0551,0,0,left,1734.0556,1735.2062,0,0,left,1,1735.2063,1735.2063,1735.2067,1736.7078,0,24,24,24,1,0.4,0.6,0.6,0.4,,,,,,,,,,,,,,,0.7213,,0.8,0.2,0.2,0.8,0.6,0.4,0.4,0.6,,,0.6472,,0.8,0.2,0.2,0.8,0.2,0.8,0.8,0.2,1,0
,,5ed9c3054268815691ed0e2c,66fcce14af1672a1e20f76a1,2024-10-01_22h02.23.319,mdp,2024.2.1,Win32,119.047619,66fa4ebf79326e780c390304,,,,,,,,,,,,,,,,,,,,,1736.7081,1736.7081,1736.7085,1738.4261,0,1,left,1.2127,,1738.4266,1739.9609,0,1,left,1739.9616,1741.062,0,1,left,0,1741.0621,1741.0621,1741.0625,1742.5635,0,25,25,25,1,0.4,0.6,0.6,0.4,,,,,,,,,,,,,,,1.021299999,,0.8,0.2,0.2,0.8,0.6,0.4,0.4,0.6,,,0.591,,0.4,0.6,0.8,0.2,0.2,0.8,0.8,0.2,1,0
,,5ed9c3054268815691ed0e2c,66fcce14af1672a1e20f76a1,2024-10-01_22h02.23.319,mdp,2024.2.1,Win32,119.047619,66fa4ebf79326e780c390304,,,,,,,,,,,,,,,,,,,,,1742.5638,1742.5638,1742.5642,1744.2569,0,1,left,1.1788,,1744.2573,1745.3079,0,0,left,1745.3083,1746.3673,1,0,right,1,1746.3673,1746.3673,1746.3677,1747.8688,0,26,26,26,1,0.4,0.6,0.6,0.4,,,,,,,,,,,,,,,0.5427,,0.8,0.2,0.2,0.8,0.6,0.4,0.4,0.6,,,0.547900001,,0.4,0.6,0.8,0.2,0.2,0.8,0.8,0.2,1,0
,,5ed9c3054268815691ed0e2c,66fcce14af1672a1e20f76a1,2024-10-01_22h02.23.319,mdp,2024.2.1,Win32,119.047619,66fa4ebf79326e780c390304,,,,,,,,,,,,,,,,,,,,,1747.8691,1747.8691,1747.8695,1748.8614,0,0,left,0.484,,1748.8619,1750.0876,0,0,left,1750.0881,1751.097,1,0,right,1,1751.097,1751.097,1751.0974,1752.5985,0,27,27,27,1,0.4,0.6,0.6,0.4,,,,,,,,,,,,,,,0.7105,,0.8,0.2,0.2,0.8,0.6,0.4,0.4,0.6,,,0.5028,,0.4,0.6,0.8,0.2,0.2,0.8,0.8,0.2,1,0
,,5ed9c3054268815691ed0e2c,66fcce14af1672a1e20f76a1,2024-10-01_22h02.23.319,mdp,2024.2.1,Win32,119.047619,66fa4ebf79326e780c390304,,,,,,,,,,,,,,,,,,,,,1752.5987,1752.5987,1752.5992,1753.5078,0,0,left,0.408,,1753.5083,1754.592,0,1,left,1754.5926,1755.7932,1,0,right,1,1755.7933,1755.7933,1755.7938,1757.2948,0,28,28,28,1,0.4,0.6,0.6,0.4,,,,,,,,,,,,,,,0.5758,,0.8,0.2,0.2,0.8,0.6,0.4,0.4,0.6,,,0.6876,,0.4,0.6,0.8,0.2,0.2,0.8,0.8,0.2,1,0
,,5ed9c3054268815691ed0e2c,66fcce14af1672a1e20f76a1,2024-10-01_22h02.23.319,mdp,2024.2.1,Win32,119.047619,66fa4ebf79326e780c390304,,,,,,,,,,,,,,,,,,,,,1757.2949,1757.2949,1757.2953,1758.2457,0,0,left,0.4486,,1758.2462,1759.4135,0,0,left,1759.414,1760.5647,1,0,right,1,1760.5648,1760.5648,1760.5653,1762.0661,0,29,29,29,1,0.4,0.6,0.6,0.4,,,,,,,,,,,,,,,0.662700001,,0.8,0.2,0.2,0.8,0.6,0.4,0.4,0.6,,,0.639900001,,0.4,0.6,0.8,0.2,0.2,0.8,0.8,0.2,1,0
,,5ed9c3054268815691ed0e2c,66fcce14af1672a1e20f76a1,2024-10-01_22h02.23.319,mdp,2024.2.1,Win32,119.047619,66fa4ebf79326e780c390304,,,,,,,,,,,,,,,,,,,,,1762.0663,1762.0663,1762.0667,1763.0087,0,0,left,0.4393,,1763.0092,1764.1015,0,1,left,1764.1019,1765.4528,1,1,right,0,1765.4529,1765.4529,1765.4532,1766.9542,0,30,30,30,1,0.4,0.6,0.6,0.4,,,,,,,,,,,,,,,0.5847,,0.8,0.2,0.2,0.8,0.6,0.4,0.4,0.6,,,0.8403,,0.4,0.6,0.8,0.2,0.2,0.8,0.8,0.2,1,0
,,5ed9c3054268815691ed0e2c,66fcce14af1672a1e20f76a1,2024-10-01_22h02.23.319,mdp,2024.2.1,Win32,119.047619,66fa4ebf79326e780c390304,,,,,,,,,,,,,,,,,,,,,1766.9545,1766.9545,1766.9548,1767.9136,0,1,left,0.455900001,,1767.9141,1769.5153,1,0,right,1769.5159,1770.783,1,0,right,1,1770.7831,1770.7831,1770.7835,1772.2846,0,31,31,31,1,0.4,0.6,0.6,0.4,,,,,,,,,,,,,,,1.0873,,0.8,0.2,0.2,0.8,0.2,0.8,0.8,0.2,,,0.7547,,0.4,0.6,0.8,0.2,0.2,0.8,0.8,0.2,1,0
,,5ed9c3054268815691ed0e2c,66fcce14af1672a1e20f76a1,2024-10-01_22h02.23.319,mdp,2024.2.1,Win32,119.047619,66fa4ebf79326e780c390304,,,,,,,,,,,,,,,,,,,,,1772.2848,1772.2848,1772.2853,1773.1688,0,0,left,0.3815,,1773.1692,1774.3532,0,0,left,1774.3537,1775.3459,0,0,left,1,1775.3459,1775.3459,1775.3464,1776.8474,0,32,32,32,1,0.4,0.6,0.6,0.4,,,,,,,,,,,,,,,0.6689,,0.8,0.2,0.2,0.8,0.2,0.8,0.8,0.2,,,0.49,,0.4,0.6,0.8,0.2,0.2,0.8,0.8,0.2,1,0
,,5ed9c3054268815691ed0e2c,66fcce14af1672a1e20f76a1,2024-10-01_22h02.23.319,mdp,2024.2.1,Win32,119.047619,66fa4ebf79326e780c390304,,,,,,,,,,,,,,,,,,,,,1776.8476,1776.8476,1776.848,1777.7984,0,1,left,0.4479,,1777.7988,1779.0996,1,0,right,1779.1001,1780.1591,1,0,right,1,1780.1591,1780.1591,1780.1596,1781.6605,0,33,33,33,1,0.4,0.6,0.6,0.4,,,,,,,,,,,,,,,0.7898,,0.8,0.2,0.2,0.8,0.2,0.8,0.8,0.2,,,0.553700001,,0.4,0.6,0.8,0.2,0.2,0.8,0.8,0.2,1,0
,,5ed9c3054268815691ed0e2c,66fcce14af1672a1e20f76a1,2024-10-01_22h02.23.319,mdp,2024.2.1,Win32,119.047619,66fa4ebf79326e780c390304,,,,,,,,,,,,,,,,,,,,,1781.6607,1781.6607,1781.6611,1782.603,0,1,left,0.441,,1782.6036,1783.771,1,0,right,1783.7716,1784.7806,1,0,right,1,1784.7806,1784.7806,1784.7811,1786.2817,0,34,34,34,1,0.4,0.6,0.6,0.4,,,,,,,,,,,,,,,0.6631,,0.8,0.2,0.2,0.8,0.2,0.8,0.8,0.2,,,0.5085,,0.4,0.6,0.8,0.2,0.2,0.8,0.8,0.2,1,0
,,5ed9c3054268815691ed0e2c,66fcce14af1672a1e20f76a1,2024-10-01_22h02.23.319,mdp,2024.2.1,Win32,119.047619,66fa4ebf79326e780c390304,,,,,,,,,,,,,,,,,,,,,1786.2819,1786.2819,1786.2823,1787.2744,0,0,left,0.4886,,1787.2748,1788.5006,0,0,left,1788.5011,1789.5265,0,1,left,0,1789.5266,1789.5266,1789.5271,1791.0281,0,35,35,35,1,0.4,0.6,0.6,0.4,,,,,,,,,,,,,,,0.7123,,0.8,0.2,0.2,0.8,0.2,0.8,0.8,0.2,,,0.5188,,0.4,0.6,0.8,0.2,0.2,0.8,0.8,0.2,1,0
,,5ed9c3054268815691ed0e2c,66fcce14af1672a1e20f76a1,2024-10-01_22h02.23.319,mdp,2024.2.1,Win32,119.047619,66fa4ebf79326e780c390304,,,,,,,,,,,,,,,,,,,,,1791.0283,1791.0283,1791.0287,1791.9957,0,0,left,0.4643,,1791.9962,1793.5138,0,0,left,1793.5143,1794.5899,1,1,right,0,1794.59,1794.59,1794.5904,1796.0914,0,36,36,36,1,0.4,0.6,0.6,0.4,,,,,,,,,,,,,,,1.0157,,0.8,0.2,0.2,0.8,0.2,0.8,0.8,0.2,,,0.5675,,0.4,0.6,0.8,0.2,0.2,0.8,0.8,0.2,1,0
,,5ed9c3054268815691ed0e2c,66fcce14af1672a1e20f76a1,2024-10-01_22h02.23.319,mdp,2024.2.1,Win32,119.047619,66fa4ebf79326e780c390304,,,,,,,,,,,,,,,,,,,,,1796.0916,1796.0916,1796.0921,1797.1925,0,0,left,0.593299999,,1797.1929,1798.3436,0,1,left,1798.344,1799.6365,0,1,left,0,1799.6366,1799.6366,1799.6371,1801.138,0,37,37,37,1,0.4,0.6,0.6,0.4,,,,,,,,,,,,,,,0.6477,,0.8,0.2,0.2,0.8,0.2,0.8,0.8,0.2,,,0.7799,,0.4,0.6,0.8,0.2,0.2,0.8,0.8,0.2,1,0
,,5ed9c3054268815691ed0e2c,66fcce14af1672a1e20f76a1,2024-10-01_22h02.23.319,mdp,2024.2.1,Win32,119.047619,66fa4ebf79326e780c390304,,,,,,,,,,,,,,,,,,,,,1801.1382,1801.1383,1801.1387,1802.114,0,1,left,0.4673,,1802.1144,1803.3986,1,0,right,1803.3991,1804.4163,1,1,right,0,1804.4163,1804.4163,1804.4168,1805.9178,0,38,38,38,1,0.4,0.6,0.6,0.4,,,,,,,,,,,,,,,0.767599999,,0.8,0.2,0.2,0.8,0.2,0.8,0.8,0.2,,,0.5031,,0.4,0.6,0.8,0.2,0.2,0.8,0.8,0.2,1,0
,,5ed9c3054268815691ed0e2c,66fcce14af1672a1e20f76a1,2024-10-01_22h02.23.319,mdp,2024.2.1,Win32,119.047619,66fa4ebf79326e780c390304,,,,,,,,,,,,,,,,,,,,,1805.9179,1805.9179,1805.9183,1806.8604,0,1,left,0.4405,,1806.8609,1808.0782,1,0,right,1808.0787,1809.0626,0,1,left,0,1809.0626,1809.0626,1809.063,1810.564,0,39,39,39,1,0.4,0.6,0.6,0.4,,,,,,,,,,,,,,,0.714799999,,0.8,0.2,0.2,0.8,0.2,0.8,0.8,0.2,,,0.4769,,0.4,0.6,0.8,0.2,0.2,0.8,0.8,0.2,1,0
,,5ed9c3054268815691ed0e2c,66fcce14af1672a1e20f76a1,2024-10-01_22h02.23.319,mdp,2024.2.1,Win32,119.047619,66fa4ebf79326e780c390304,,,,,,,,,,,,,,,,,,,,,1810.5642,1810.5642,1810.5646,1811.5233,0,1,left,0.4562,,1811.5238,1812.8246,0,0,left,1812.825,1813.9673,0,0,left,1,1813.9675,1813.9675,1813.9679,1815.4688,0,40,40,40,1,0.4,0.6,0.6,0.4,,,,,,,,,,,,,,,0.796799999,,0.8,0.2,0.2,0.8,0.2,0.8,0.8,0.2,,,0.6395,,0.4,0.6,0.8,0.2,0.2,0.8,0.8,0.2,1,0
,,5ed9c3054268815691ed0e2c,66fcce14af1672a1e20f76a1,2024-10-01_22h02.23.319,mdp,2024.2.1,Win32,119.047619,66fa4ebf79326e780c390304,,,,,,,,,,,,,,,,,,,,,1815.469,1815.469,1815.4695,1816.4282,0,1,left,0.4565,,1816.4286,1817.5208,0,1,left,1817.5214,1818.7054,0,0,left,1,1818.7054,1818.7054,1818.7058,1820.2069,0,41,41,41,1,0.4,0.6,0.6,0.4,,,,,,,,,,,,,,,0.5858,,0.8,0.2,0.2,0.8,0.2,0.8,0.8,0.2,,,0.6687,,0.4,0.6,0.8,0.2,0.2,0.8,0.8,0.2,1,0
,,5ed9c3054268815691ed0e2c,66fcce14af1672a1e20f76a1,2024-10-01_22h02.23.319,mdp,2024.2.1,Win32,119.047619,66fa4ebf79326e780c390304,,,,,,,,,,,,,,,,,,,,,1820.2071,1820.2071,1820.2075,1821.2663,0,1,left,0.551400001,,1821.2667,1822.4674,0,1,left,1822.4679,1823.6853,0,1,left,0,1823.6853,1823.6854,1823.6858,1825.1868,0,42,42,42,1,0.4,0.6,0.6,0.4,,,,,,,,,,,,,,,0.6957,,0.8,0.2,0.2,0.8,0.2,0.8,0.8,0.2,,,0.7157,,0.4,0.6,0.8,0.2,0.4,0.6,0.2,0.8,1,0
,,5ed9c3054268815691ed0e2c,66fcce14af1672a1e20f76a1,2024-10-01_22h02.23.319,mdp,2024.2.1,Win32,119.047619,66fa4ebf79326e780c390304,,,,,,,,,,,,,,,,,,,,,1825.187,1825.187,1825.1874,1826.1378,0,1,left,0.4443,,1826.1382,1827.1137,0,0,left,1827.1141,1828.7486,0,0,left,1,1828.7487,1828.7487,1828.7491,1830.2501,0,43,43,43,1,0.4,0.6,0.6,0.4,,,,,,,,,,,,,,,0.4705,,0.8,0.2,0.2,0.8,0.2,0.8,0.8,0.2,,,1.1248,,0.4,0.6,0.8,0.2,0.4,0.6,0.2,0.8,1,0
,,5ed9c3054268815691ed0e2c,66fcce14af1672a1e20f76a1,2024-10-01_22h02.23.319,mdp,2024.2.1,Win32,119.047619,66fa4ebf79326e780c390304,,,,,,,,,,,,,,,,,,,,,1830.2504,1830.2504,1830.2508,1831.2344,0,1,left,0.4818,,1831.2349,1832.786,0,1,left,1832.7865,1834.7629,0,1,left,0,1834.7629,1834.7629,1834.7634,1836.2644,0,44,44,44,1,0.4,0.6,0.6,0.4,,,,,,,,,,,,,,,1.044400001,,0.8,0.2,0.2,0.8,0.2,0.8,0.8,0.2,,,1.4625,,0.4,0.6,0.8,0.2,0.4,0.6,0.2,0.8,1,0
,,5ed9c3054268815691ed0e2c,66fcce14af1672a1e20f76a1,2024-10-01_22h02.23.319,mdp,2024.2.1,Win32,119.047619,66fa4ebf79326e780c390304,,,,,,,,,,,,,,,,,,,,,1836.2646,1836.2646,1836.2649,1837.157,0,0,left,0.3848,,1837.1575,1838.4248,0,1,left,1838.4254,1840.0849,1,0,right,1,1840.0849,1840.0849,1840.0853,1841.5863,0,45,45,45,1,0.4,0.6,0.6,0.4,,,,,,,,,,,,,,,0.7515,,0.8,0.2,0.2,0.8,0.2,0.8,0.8,0.2,,,1.1562,,0.4,0.6,0.8,0.2,0.4,0.6,0.2,0.8,1,0
,,5ed9c3054268815691ed0e2c,66fcce14af1672a1e20f76a1,2024-10-01_22h02.23.319,mdp,2024.2.1,Win32,119.047619,66fa4ebf79326e780c390304,,,,,,,,,,,,,,,,,,,,,1841.5865,1841.5865,1841.5869,1842.6707,0,1,left,0.577599999,,1842.6712,1843.7635,0,1,left,1843.7639,1844.8228,1,1,right,0,1844.8228,1844.8228,1844.8233,1846.3243,0,46,46,46,1,0.4,0.6,0.6,0.4,,,,,,,,,,,,,,,0.5817,,0.8,0.2,0.2,0.8,0.2,0.8,0.8,0.2,,,0.5515,,0.4,0.6,0.8,0.2,0.4,0.6,0.2,0.8,1,0
,,5ed9c3054268815691ed0e2c,66fcce14af1672a1e20f76a1,2024-10-01_22h02.23.319,mdp,2024.2.1,Win32,119.047619,66fa4ebf79326e780c390304,,,,,,,,,,,,,,,,,,,,,1846.3245,1846.3245,1846.3249,1847.3087,0,1,left,0.477799999,,1847.3091,1848.368,0,1,left,1848.3685,1849.4774,0,0,left,1,1849.4775,1849.4775,1849.478,1850.9789,0,47,47,47,1,0.4,0.6,0.6,0.4,,,,,,,,,,,,,,,0.554400001,,0.8,0.2,0.2,0.8,0.2,0.8,0.8,0.2,,,0.6007,,0.4,0.6,0.8,0.2,0.4,0.6,0.2,0.8,1,0
,,5ed9c3054268815691ed0e2c,66fcce14af1672a1e20f76a1,2024-10-01_22h02.23.319,mdp,2024.2.1,Win32,119.047619,66fa4ebf79326e780c390304,,,,,,,,,,,,,,,,,,,,,1850.9791,1850.9791,1850.9795,1851.9466,0,1,left,0.4611,,1851.947,1853.0559,0,1,left,1853.0565,1854.1488,0,1,left,0,1854.1488,1854.1488,1854.1493,1855.6502,0,48,48,48,1,0.4,0.6,0.6,0.4,,,,,,,,,,,,,,,0.6024,,0.8,0.2,0.2,0.8,0.2,0.8,0.8,0.2,,,0.589,,0.4,0.6,0.8,0.2,0.8,0.2,0.6,0.4,1,0
,,5ed9c3054268815691ed0e2c,66fcce14af1672a1e20f76a1,2024-10-01_22h02.23.319,mdp,2024.2.1,Win32,119.047619,66fa4ebf79326e780c390304,,,,,,,,,,,,,,,,,,,,,1855.6504,1855.6504,1855.651,1856.6595,0,1,left,0.5078,,1856.6599,1857.7606,0,1,left,1857.7611,1858.9202,1,0,right,1,1858.9202,1858.9202,1858.9207,1860.4216,0,49,49,49,1,0.4,0.6,0.6,0.4,,,,,,,,,,,,,,,0.594599999,,0.8,0.2,0.2,0.8,0.2,0.8,0.8,0.2,,,0.6583,,0.4,0.6,0.8,0.2,0.8,0.2,0.6,0.4,1,0
,,5ed9c3054268815691ed0e2c,66fcce14af1672a1e20f76a1,2024-10-01_22h02.23.319,mdp,2024.2.1,Win32,119.047619,66fa4ebf79326e780c390304,,,,,,,,,,,,,,,,,,,,,,,,,,,,,,,,,,,,,,,,,,,,,,,,,,,,,,,,1860.4216,1918.921,0,3,3,2,1,imgs/bear.png,imgs/pig.png,imgs/cat.png,imgs/elephant.png,imgs/goat.png,,,,,,,,,,,,,,,,,,,,,,,,
,,5ed9c3054268815691ed0e2c,66fcce14af1672a1e20f76a1,2024-10-01_22h02.23.319,mdp,2024.2.1,Win32,119.047619,66fa4ebf79326e780c390304,,,,,,,,,,,,,,1,seqs/st1seq23.csv,1918.9215,1921.3401,space,1.9128,,1921.3423,1921.3423,1921.3426,1925.0604,0,1,left,3.194900001,,1925.0609,1925.0613,0,1,,1925.0615,1925.0617,1,1,,0,1925.0617,1925.0617,1925.0618,1926.5619,0,0,0,0,1,0.2,0.8,0.8,0.2,1,0,,,,,,,,,,,,,,,,,,,,,,,,,,,,,,,,,,,,
,,5ed9c3054268815691ed0e2c,66fcce14af1672a1e20f76a1,2024-10-01_22h02.23.319,mdp,2024.2.1,Win32,119.047619,66fa4ebf79326e780c390304,,,,,,,,,,,,,,,,,,,,,1926.5621,1926.5621,1926.5624,1927.6129,1,0,right,0.546799999,,1927.6134,1927.6137,0,1,,1927.6138,1927.614,1,0,,1,1927.614,1927.614,1927.6143,1929.1144,0,1,1,1,1,0.2,0.8,0.8,0.2,1,0,,,,,,,,,,,,,,,,,,,,,,,,,,,,,,,,,,,,
,,5ed9c3054268815691ed0e2c,66fcce14af1672a1e20f76a1,2024-10-01_22h02.23.319,mdp,2024.2.1,Win32,119.047619,66fa4ebf79326e780c390304,,,,,,,,,,,,,,,,,,,,,1929.1145,1929.1145,1929.115,1930.0653,1,0,right,0.4422,,1930.0658,1930.0661,0,0,,1930.0664,1930.0665,1,0,,1,1930.0665,1930.0665,1930.0667,1931.5668,0,2,2,2,1,0.2,0.8,0.8,0.2,1,0,,,,,,,,,,,,,,,,,,,,,,,,,,,,,,,,,,,,
,,5ed9c3054268815691ed0e2c,66fcce14af1672a1e20f76a1,2024-10-01_22h02.23.319,mdp,2024.2.1,Win32,119.047619,66fa4ebf79326e780c390304,,,,,,,,,,,,,,,,,,,,,1931.5669,1931.5669,1931.5674,1932.5261,1,0,right,0.451,,1932.5266,1932.527,0,0,,1932.5271,1932.5273,1,1,,1,1932.5273,1932.5273,1932.5275,1934.0281,0,3,3,3,1,0.2,0.8,0.8,0.2,1,0,,,,,,,,,,,,,,,,,,,,,,,,,,,,,,,,,,,,
,,5ed9c3054268815691ed0e2c,66fcce14af1672a1e20f76a1,2024-10-01_22h02.23.319,mdp,2024.2.1,Win32,119.047619,66fa4ebf79326e780c390304,,,,,,,,,,,,,,,,,,,,,1934.0282,1934.0283,1934.0286,1934.9034,1,0,right,0.3657,,1934.904,1934.9042,0,0,,1934.9044,1934.9046,1,0,,1,1934.9046,1934.9046,1934.9048,1936.405,0,4,4,4,1,0.2,0.8,0.8,0.2,1,0,,,,,,,,,,,,,,,,,,,,,,,,,,,,,,,,,,,,
,,5ed9c3054268815691ed0e2c,66fcce14af1672a1e20f76a1,2024-10-01_22h02.23.319,mdp,2024.2.1,Win32,119.047619,66fa4ebf79326e780c390304,,,,,,,,,,,,,,,,,,,,,1936.4052,1936.4052,1936.4055,1937.3558,1,1,right,0.4457,,1937.3564,1937.3567,0,1,,1937.3569,1937.3571,1,0,,0,1937.3571,1937.3571,1937.3573,1938.8574,0,5,5,5,1,0.6,0.4,0.6,0.4,1,0,,,,,,,,,,,,,,,,,,,,,,,,,,,,,,,,,,,,
,,5ed9c3054268815691ed0e2c,66fcce14af1672a1e20f76a1,2024-10-01_22h02.23.319,mdp,2024.2.1,Win32,119.047619,66fa4ebf79326e780c390304,,,,,,,,,,,,,,,,,,,,,1938.8575,1938.8575,1938.8579,1939.7499,0,0,left,0.3892,,1939.7504,1939.7507,0,0,,1939.751,1939.7511,1,0,,1,1939.7511,1939.7511,1939.7513,1941.2514,0,6,6,6,1,0.8,0.2,0.8,0.2,1,0,,,,,,,,,,,,,,,,,,,,,,,,,,,,,,,,,,,,
,,5ed9c3054268815691ed0e2c,66fcce14af1672a1e20f76a1,2024-10-01_22h02.23.319,mdp,2024.2.1,Win32,119.047619,66fa4ebf79326e780c390304,,,,,,,,,,,,,,,,,,,,,1941.2516,1941.2516,1941.252,1942.1856,0,0,left,0.4272,,1942.1861,1942.1864,0,0,,1942.1866,1942.1868,1,0,,1,1942.1868,1942.1868,1942.187,1943.6871,0,7,7,7,1,0.8,0.2,0.8,0.2,1,0,,,,,,,,,,,,,,,,,,,,,,,,,,,,,,,,,,,,
,,5ed9c3054268815691ed0e2c,66fcce14af1672a1e20f76a1,2024-10-01_22h02.23.319,mdp,2024.2.1,Win32,119.047619,66fa4ebf79326e780c390304,,,,,,,,,,,,,,,,,,,,,1943.6874,1943.6874,1943.6877,1944.5797,0,0,left,0.3852,,1944.5801,1944.5804,0,1,,1944.5807,1944.5808,1,0,,1,1944.5808,1944.5808,1944.581,1946.0812,0,8,8,8,1,0.8,0.2,0.8,0.2,1,0,,,,,,,,,,,,,,,,,,,,,,,,,,,,,,,,,,,,
,,5ed9c3054268815691ed0e2c,66fcce14af1672a1e20f76a1,2024-10-01_22h02.23.319,mdp,2024.2.1,Win32,119.047619,66fa4ebf79326e780c390304,,,,,,,,,,,,,,,,,,,,,1946.0814,1946.0814,1946.0818,1947.0655,0,0,left,0.4784,,1947.066,1947.0663,0,0,,1947.0665,1947.0668,1,0,,1,1947.0668,1947.0668,1947.0669,1948.567,0,9,9,9,1,0.8,0.2,0.8,0.2,1,0,,,,,,,,,,,,,,,,,,,,,,,,,,,,,,,,,,,,
,,5ed9c3054268815691ed0e2c,66fcce14af1672a1e20f76a1,2024-10-01_22h02.23.319,mdp,2024.2.1,Win32,119.047619,66fa4ebf79326e780c390304,,,,,,,,,,,,,,,,,,,,,1948.5671,1948.5671,1948.5675,1949.5179,0,1,left,0.4496,,1949.5184,1949.5187,0,0,,1949.5189,1949.519,1,1,,0,1949.5191,1949.5191,1949.5192,1951.0194,0,10,10,10,1,0.8,0.2,0.8,0.2,1,0,,,,,,,,,,,,,,,,,,,,,,,,,,,,,,,,,,,,
,,5ed9c3054268815691ed0e2c,66fcce14af1672a1e20f76a1,2024-10-01_22h02.23.319,mdp,2024.2.1,Win32,119.047619,66fa4ebf79326e780c390304,,,,,,,,,,,,,,,,,,,,,1951.0195,1951.0195,1951.0199,1952.0454,1,1,right,0.522,,1952.0459,1952.0461,0,1,,1952.0464,1952.0466,1,0,,0,1952.0466,1952.0466,1952.0468,1953.5468,0,11,11,11,1,0.6,0.4,0.4,0.6,1,0,,,,,,,,,,,,,,,,,,,,,,,,,,,,,,,,,,,,
,,5ed9c3054268815691ed0e2c,66fcce14af1672a1e20f76a1,2024-10-01_22h02.23.319,mdp,2024.2.1,Win32,119.047619,66fa4ebf79326e780c390304,,,,,,,,,,,,,,,,,,,,,1953.5471,1953.5471,1953.5475,1954.748,0,1,left,0.6937,,1954.7485,1954.7488,0,0,,1954.749,1954.7492,1,1,,0,1954.7492,1954.7492,1954.7493,1956.2495,0,12,12,12,1,0.6,0.4,0.4,0.6,1,0,,,,,,,,,,,,,,,,,,,,,,,,,,,,,,,,,,,,
,,5ed9c3054268815691ed0e2c,66fcce14af1672a1e20f76a1,2024-10-01_22h02.23.319,mdp,2024.2.1,Win32,119.047619,66fa4ebf79326e780c390304,,,,,,,,,,,,,,,,,,,,,1956.2497,1956.2497,1956.2501,1957.3924,0,1,left,0.6347,,1957.3928,1957.393,0,0,,1957.3933,1957.3934,1,1,,0,1957.3934,1957.3934,1957.3936,1958.8938,0,13,13,13,1,0.8,0.2,0.6,0.4,1,0,,,,,,,,,,,,,,,,,,,,,,,,,,,,,,,,,,,,
,,5ed9c3054268815691ed0e2c,66fcce14af1672a1e20f76a1,2024-10-01_22h02.23.319,mdp,2024.2.1,Win32,119.047619,66fa4ebf79326e780c390304,,,,,,,,,,,,,,,,,,,,,1958.8941,1958.8941,1958.8944,1959.8281,1,0,right,0.4277,,1959.8286,1959.829,0,0,,1959.8292,1959.8293,1,0,,1,1959.8293,1959.8294,1959.8295,1961.3296,0,14,14,14,1,0.8,0.2,0.6,0.4,1,0,,,,,,,,,,,,,,,,,,,,,,,,,,,,,,,,,,,,
,,5ed9c3054268815691ed0e2c,66fcce14af1672a1e20f76a1,2024-10-01_22h02.23.319,mdp,2024.2.1,Win32,119.047619,66fa4ebf79326e780c390304,,,,,,,,,,,,,,,,,,,,,1961.3298,1961.3298,1961.3303,1962.2807,1,0,right,0.443900001,,1962.2812,1962.2816,0,0,,1962.2818,1962.282,1,0,,1,1962.282,1962.282,1962.2822,1963.782,0,15,15,15,1,0.8,0.2,0.6,0.4,1,0,,,,,,,,,,,,,,,,,,,,,,,,,,,,,,,,,,,,
,,5ed9c3054268815691ed0e2c,66fcce14af1672a1e20f76a1,2024-10-01_22h02.23.319,mdp,2024.2.1,Win32,119.047619,66fa4ebf79326e780c390304,,,,,,,,,,,,,,,,,,,,,1963.7822,1963.7822,1963.7826,1964.7412,1,1,right,0.456599999,,1964.7417,1964.742,0,1,,1964.7422,1964.7424,1,1,,0,1964.7424,1964.7424,1964.7426,1966.2427,0,16,16,16,1,0.8,0.2,0.6,0.4,1,0,,,,,,,,,,,,,,,,,,,,,,,,,,,,,,,,,,,,
,,5ed9c3054268815691ed0e2c,66fcce14af1672a1e20f76a1,2024-10-01_22h02.23.319,mdp,2024.2.1,Win32,119.047619,66fa4ebf79326e780c390304,,,,,,,,,,,,,,,,,,,,,1966.243,1966.243,1966.2433,1967.2276,0,1,left,0.4835,,1967.2282,1967.2285,0,1,,1967.2287,1967.2288,1,0,,0,1967.2289,1967.2289,1967.2293,1968.7286,0,17,17,17,1,0.6,0.4,0.4,0.6,1,0,,,,,,,,,,,,,,,,,,,,,,,,,,,,,,,,,,,,
,,5ed9c3054268815691ed0e2c,66fcce14af1672a1e20f76a1,2024-10-01_22h02.23.319,mdp,2024.2.1,Win32,119.047619,66fa4ebf79326e780c390304,,,,,,,,,,,,,,,,,,,,,1968.7287,1968.7287,1968.7292,1969.6461,1,1,right,0.415,,1969.6465,1969.6468,0,1,,1969.647,1969.6471,1,1,,0,1969.6471,1969.6471,1969.6474,1971.1476,0,18,18,18,1,0.6,0.4,0.4,0.6,1,0,,,,,,,,,,,,,,,,,,,,,,,,,,,,,,,,,,,,
,,5ed9c3054268815691ed0e2c,66fcce14af1672a1e20f76a1,2024-10-01_22h02.23.319,mdp,2024.2.1,Win32,119.047619,66fa4ebf79326e780c390304,,,,,,,,,,,,,,,,,,,,,1971.1478,1971.1478,1971.1482,1971.9901,1,0,right,0.336900001,,1971.9906,1971.991,0,1,,1971.9912,1971.9913,1,0,,1,1971.9913,1971.9914,1971.9916,1973.4915,0,19,19,19,1,0.8,0.2,0.8,0.2,1,0,,,,,,,,,,,,,,,,,,,,,,,,,,,,,,,,,,,,
,,5ed9c3054268815691ed0e2c,66fcce14af1672a1e20f76a1,2024-10-01_22h02.23.319,mdp,2024.2.1,Win32,119.047619,66fa4ebf79326e780c390304,,,,,,,,,,,,,,,,,,,,,1973.4918,1973.4918,1973.4922,1974.3508,1,0,right,0.3529,,1974.3512,1974.3515,0,0,,1974.3518,1974.352,1,1,,1,1974.352,1974.352,1974.3521,1975.8522,0,20,20,20,1,0.8,0.2,0.8,0.2,1,0,,,,,,,,,,,,,,,,,,,,,,,,,,,,,,,,,,,,
,,5ed9c3054268815691ed0e2c,66fcce14af1672a1e20f76a1,2024-10-01_22h02.23.319,mdp,2024.2.1,Win32,119.047619,66fa4ebf79326e780c390304,,,,,,,,,,,,,,,,,,,,,1975.8525,1975.8525,1975.8528,1976.7948,1,1,right,0.4339,,1976.7952,1976.7955,0,1,,1976.7958,1976.7959,1,0,,0,1976.7959,1976.7959,1976.7961,1978.2963,0,21,21,21,1,0.8,0.2,0.8,0.2,1,0,,,,,,,,,,,,,,,,,,,,,,,,,,,,,,,,,,,,
,,5ed9c3054268815691ed0e2c,66fcce14af1672a1e20f76a1,2024-10-01_22h02.23.319,mdp,2024.2.1,Win32,119.047619,66fa4ebf79326e780c390304,,,,,,,,,,,,,,,,,,,,,1978.2966,1978.2966,1978.297,1979.2556,1,0,right,0.4574,,1979.2561,1979.2563,0,0,,1979.2566,1979.2568,1,0,,1,1979.2568,1979.2568,1979.2569,1980.7571,0,22,22,22,1,0.8,0.2,0.8,0.2,1,0,,,,,,,,,,,,,,,,,,,,,,,,,,,,,,,,,,,,
,,5ed9c3054268815691ed0e2c,66fcce14af1672a1e20f76a1,2024-10-01_22h02.23.319,mdp,2024.2.1,Win32,119.047619,66fa4ebf79326e780c390304,,,,,,,,,,,,,,,,,,,,,1980.7573,1980.7573,1980.7576,1981.7414,1,0,right,0.4813,,1981.7418,1981.7421,0,0,,1981.7423,1981.7424,1,0,,1,1981.7424,1981.7424,1981.7427,1983.2429,0,23,23,23,1,0.8,0.2,0.8,0.2,1,0,,,,,,,,,,,,,,,,,,,,,,,,,,,,,,,,,,,,
,,5ed9c3054268815691ed0e2c,66fcce14af1672a1e20f76a1,2024-10-01_22h02.23.319,mdp,2024.2.1,Win32,119.047619,66fa4ebf79326e780c390304,,,,,,,,,,,,,,,,,,,,,1983.243,1983.243,1983.2435,1984.0687,1,0,right,0.3245,,1984.0692,1984.0696,0,1,,1984.0699,1984.0702,1,0,,1,1984.0702,1984.0702,1984.0704,1985.5701,0,24,24,24,1,0.8,0.2,0.8,0.2,1,0,,,,,,,,,,,,,,,,,,,,,,,,,,,,,,,,,,,,
,,5ed9c3054268815691ed0e2c,66fcce14af1672a1e20f76a1,2024-10-01_22h02.23.319,mdp,2024.2.1,Win32,119.047619,66fa4ebf79326e780c390304,,,,,,,,,,,,,,,,,,,,,1985.5703,1985.5703,1985.5707,1986.5295,1,0,right,0.4574,,1986.5299,1986.5301,0,0,,1986.5304,1986.5305,1,0,,1,1986.5305,1986.5305,1986.5307,1988.0315,0,25,25,25,1,0.8,0.2,0.8,0.2,1,0,,,,,,,,,,,,,,,,,,,,,,,,,,,,,,,,,,,,
,,5ed9c3054268815691ed0e2c,66fcce14af1672a1e20f76a1,2024-10-01_22h02.23.319,mdp,2024.2.1,Win32,119.047619,66fa4ebf79326e780c390304,,,,,,,,,,,,,,,,,,,,,1988.0317,1988.0317,1988.0321,1988.8901,1,1,right,0.3492,,1988.8905,1988.8909,0,0,,1988.8911,1988.8912,1,0,,0,1988.8912,1988.8912,1988.8914,1990.3916,0,26,26,26,1,0.8,0.2,0.8,0.2,1,0,,,,,,,,,,,,,,,,,,,,,,,,,,,,,,,,,,,,
,,5ed9c3054268815691ed0e2c,66fcce14af1672a1e20f76a1,2024-10-01_22h02.23.319,mdp,2024.2.1,Win32,119.047619,66fa4ebf79326e780c390304,,,,,,,,,,,,,,,,,,,,,1990.3918,1990.3918,1990.3921,1991.3175,1,0,right,0.420400001,,1991.318,1991.3182,0,0,,1991.3184,1991.3186,1,0,,1,1991.3187,1991.3187,1991.3188,1992.819,0,27,27,27,1,0.8,0.2,0.8,0.2,1,0,,,,,,,,,,,,,,,,,,,,,,,,,,,,,,,,,,,,
,,5ed9c3054268815691ed0e2c,66fcce14af1672a1e20f76a1,2024-10-01_22h02.23.319,mdp,2024.2.1,Win32,119.047619,66fa4ebf79326e780c390304,,,,,,,,,,,,,,,,,,,,,1992.8192,1992.8192,1992.8196,1993.8789,1,0,right,0.5587,,1993.8794,1993.8797,0,0,,1993.8799,1993.88,1,0,,1,1993.88,1993.88,1993.8803,1995.3799,0,28,28,28,1,0.8,0.2,0.8,0.2,1,0,,,,,,,,,,,,,,,,,,,,,,,,,,,,,,,,,,,,
,,5ed9c3054268815691ed0e2c,66fcce14af1672a1e20f76a1,2024-10-01_22h02.23.319,mdp,2024.2.1,Win32,119.047619,66fa4ebf79326e780c390304,,,,,,,,,,,,,,,,,,,,,1995.38,1995.38,1995.3804,1996.3725,1,0,right,0.485799999,,1996.373,1996.3732,0,0,,1996.3735,1996.3736,1,0,,1,1996.3736,1996.3737,1996.3738,1997.874,0,29,29,29,1,0.8,0.2,0.8,0.2,1,0,,,,,,,,,,,,,,,,,,,,,,,,,,,,,,,,,,,,
,,5ed9c3054268815691ed0e2c,66fcce14af1672a1e20f76a1,2024-10-01_22h02.23.319,mdp,2024.2.1,Win32,119.047619,66fa4ebf79326e780c390304,,,,,,,,,,,,,,,,,,,,,1997.8742,1997.8742,1997.8746,1998.8249,1,0,right,0.4472,,1998.8254,1998.8257,0,0,,1998.8259,1998.8261,1,0,,1,1998.8261,1998.8261,1998.8262,2000.3264,0,30,30,30,1,0.8,0.2,0.8,0.2,1,0,,,,,,,,,,,,,,,,,,,,,,,,,,,,,,,,,,,,
,,5ed9c3054268815691ed0e2c,66fcce14af1672a1e20f76a1,2024-10-01_22h02.23.319,mdp,2024.2.1,Win32,119.047619,66fa4ebf79326e780c390304,,,,,,,,,,,,,,,,,,,,,2000.3266,2000.3266,2000.327,2001.2606,1,0,right,0.431900001,,2001.261,2001.2613,0,0,,2001.2615,2001.2618,1,0,,1,2001.2618,2001.2618,2001.2619,2002.7622,0,31,31,31,1,0.6,0.4,0.6,0.4,1,0,,,,,,,,,,,,,,,,,,,,,,,,,,,,,,,,,,,,
,,5ed9c3054268815691ed0e2c,66fcce14af1672a1e20f76a1,2024-10-01_22h02.23.319,mdp,2024.2.1,Win32,119.047619,66fa4ebf79326e780c390304,,,,,,,,,,,,,,,,,,,,,2002.7623,2002.7624,2002.7628,2004.0134,1,1,right,0.748400001,,2004.0139,2004.0142,0,0,,2004.0143,2004.0146,1,0,,0,2004.0146,2004.0146,2004.0147,2005.5148,0,32,32,32,1,0.6,0.4,0.6,0.4,1,0,,,,,,,,,,,,,,,,,,,,,,,,,,,,,,,,,,,,
,,5ed9c3054268815691ed0e2c,66fcce14af1672a1e20f76a1,2024-10-01_22h02.23.319,mdp,2024.2.1,Win32,119.047619,66fa4ebf79326e780c390304,,,,,,,,,,,,,,,,,,,,,2005.5151,2005.5151,2005.5155,2006.4825,1,0,right,0.459599999,,2006.483,2006.4833,0,0,,2006.4834,2006.4836,1,1,,1,2006.4837,2006.4837,2006.4839,2007.9839,0,33,33,33,1,0.6,0.4,0.6,0.4,1,0,,,,,,,,,,,,,,,,,,,,,,,,,,,,,,,,,,,,
,,5ed9c3054268815691ed0e2c,66fcce14af1672a1e20f76a1,2024-10-01_22h02.23.319,mdp,2024.2.1,Win32,119.047619,66fa4ebf79326e780c390304,,,,,,,,,,,,,,,,,,,,,2007.9841,2007.9841,2007.9845,2008.9348,1,1,right,0.4464,,2008.9354,2008.9356,0,0,,2008.9359,2008.936,1,1,,0,2008.936,2008.9361,2008.9362,2010.4364,0,34,34,34,1,0.6,0.4,0.6,0.4,1,0,,,,,,,,,,,,,,,,,,,,,,,,,,,,,,,,,,,,
,,5ed9c3054268815691ed0e2c,66fcce14af1672a1e20f76a1,2024-10-01_22h02.23.319,mdp,2024.2.1,Win32,119.047619,66fa4ebf79326e780c390304,,,,,,,,,,,,,,,,,,,,,2010.4366,2010.4366,2010.4369,2011.4207,1,0,right,0.4829,,2011.4212,2011.4215,0,1,,2011.4217,2011.4219,1,0,,1,2011.4219,2011.4219,2011.4221,2012.9221,0,35,35,35,1,0.6,0.4,0.6,0.4,1,0,,,,,,,,,,,,,,,,,,,,,,,,,,,,,,,,,,,,
,,5ed9c3054268815691ed0e2c,66fcce14af1672a1e20f76a1,2024-10-01_22h02.23.319,mdp,2024.2.1,Win32,119.047619,66fa4ebf79326e780c390304,,,,,,,,,,,,,,,,,,,,,2012.9223,2012.9223,2012.9227,2013.9732,1,0,right,0.549200001,,2013.9737,2013.9739,0,0,,2013.9741,2013.9743,1,0,,1,2013.9744,2013.9744,2013.9746,2015.4747,0,36,36,36,1,0.6,0.4,0.6,0.4,1,0,,,,,,,,,,,,,,,,,,,,,,,,,,,,,,,,,,,,
,,5ed9c3054268815691ed0e2c,66fcce14af1672a1e20f76a1,2024-10-01_22h02.23.319,mdp,2024.2.1,Win32,119.047619,66fa4ebf79326e780c390304,,,,,,,,,,,,,,,,,,,,,2015.4748,2015.4748,2015.4753,2016.4256,1,0,right,0.4486,,2016.426,2016.4263,0,0,,2016.4265,2016.4267,1,0,,1,2016.4267,2016.4267,2016.4269,2017.9273,0,37,37,37,1,0.8,0.2,0.8,0.2,1,0,,,,,,,,,,,,,,,,,,,,,,,,,,,,,,,,,,,,
