init_exp.started,init_exp.stopped,participant,session,date,expName,psychopyVersion,OS,frameRate,study_id,disp_instruction.started,disp_instruction.stopped,instruction.thisRepN,instruction.thisTrialN,instruction.thisN,instruction.thisIndex,instruction.ran,instimg_path,consent.started,consent.stopped,key_resp_3.keys,key_resp_3.rt,key_resp_3.duration,n_steps,sequence_path,init_block.started,init_block.stopped,key_resp.keys,key_resp.rt,key_resp.duration,init_trials.started,init_trials.stopped,step0.started,step0.stopped,act0,s1,res0.keys,res0.rt,res0.duration,step1.started,step1.stopped,act1,s2,res1.keys,step2.started,step2.stopped,act2,s3,res2.keys,rew,reward_comp.started,reward_comp.stopped,reward_disp.started,reward_disp.stopped,trials.thisRepN,trials.thisTrialN,trials.thisN,trials.thisIndex,trials.ran,s00a0s10,s00a0s11,s00a1s10,s00a1s11,rew10,rew11,break_block.started,break_block.stopped,block.thisRepN,block.thisTrialN,block.thisN,block.thisIndex,block.ran,s00path,s10path,s11path,s20path,s21path,res1.rt,res1.duration,s10a0s20,s10a0s21,s10a1s20,s10a1s21,s11a0s20,s11a0s21,s11a1s20,s11a1s21,rew20,rew21,res2.rt,res2.duration,s20a0s30,s20a0s31,s20a1s30,s20a1s31,s21a0s30,s21a0s31,s21a1s30,s21a1s31,rew30,rew31
0,0,5ee78cdd0103130133fdb204,66fc981f42b801f3398f5601,2024-10-02_02h47.47.189,mdp,2024.2.1,Win32,144.092219,66fa4ebf79326e780c390304,,,,,,,,,,,,,,,,,,,,,,,,,,,,,,,,,,,,,,,,,,,,,,,,,,,,,,,,,,,,,,,,,,,,,,,,,,,,,,,,,,,,,,,,,,,
,,5ee78cdd0103130133fdb204,66fc981f42b801f3398f5601,2024-10-02_02h47.47.189,mdp,2024.2.1,Win32,144.092219,66fa4ebf79326e780c390304,0.001,73.509,0,0,0,0,1,rlnn_exp/rlnn_exp.001.png,,,,,,,,,,,,,,,,,,,,,,,,,,,,,,,,,,,,,,,,,,,,,,,,,,,,,,,,,,,,,,,,,,,,,,,,,,,,,,,,,,,
,,5ee78cdd0103130133fdb204,66fc981f42b801f3398f5601,2024-10-02_02h47.47.189,mdp,2024.2.1,Win32,144.092219,66fa4ebf79326e780c390304,73.51,84.308,0,1,1,1,1,rlnn_exp/rlnn_exp.002.png,,,,,,,,,,,,,,,,,,,,,,,,,,,,,,,,,,,,,,,,,,,,,,,,,,,,,,,,,,,,,,,,,,,,,,,,,,,,,,,,,,,
,,5ee78cdd0103130133fdb204,66fc981f42b801f3398f5601,2024-10-02_02h47.47.189,mdp,2024.2.1,Win32,144.092219,66fa4ebf79326e780c390304,84.308,96.705,0,2,2,2,1,rlnn_exp/rlnn_exp.003.png,,,,,,,,,,,,,,,,,,,,,,,,,,,,,,,,,,,,,,,,,,,,,,,,,,,,,,,,,,,,,,,,,,,,,,,,,,,,,,,,,,,
,,5ee78cdd0103130133fdb204,66fc981f42b801f3398f5601,2024-10-02_02h47.47.189,mdp,2024.2.1,Win32,144.092219,66fa4ebf79326e780c390304,96.705,113.073,0,3,3,3,1,rlnn_exp/rlnn_exp.004.png,,,,,,,,,,,,,,,,,,,,,,,,,,,,,,,,,,,,,,,,,,,,,,,,,,,,,,,,,,,,,,,,,,,,,,,,,,,,,,,,,,,
,,5ee78cdd0103130133fdb204,66fc981f42b801f3398f5601,2024-10-02_02h47.47.189,mdp,2024.2.1,Win32,144.092219,66fa4ebf79326e780c390304,,,,,,,,,113.073,123.107,y,0.028,,,,,,,,,,,,,,,,,,,,,,,,,,,,,,,,,,,,,,,,,,,,,,,,,,,,,,,,,,,,,,,,,,,,,,,,,,,,,,,
,,5ee78cdd0103130133fdb204,66fc981f42b801f3398f5601,2024-10-02_02h47.47.189,mdp,2024.2.1,Win32,144.092219,66fa4ebf79326e780c390304,,,,,,,,,,,,,,1,seqs/st1seq24.csv,123.11,124.17,space,0.549,,124.172,124.172,124.172,125.496,0,0,left,0.812,,125.496,125.497,,1,,125.497,125.497,,1,,1,125.497,125.497,125.498,126.995,0,0,0,0,1,0.6,0.4,0.2,0.8,1,0,,,,,,,,,,,,,,,,,,,,,,,,,,,,,,,,,,,,
,,5ee78cdd0103130133fdb204,66fc981f42b801f3398f5601,2024-10-02_02h47.47.189,mdp,2024.2.1,Win32,144.092219,66fa4ebf79326e780c390304,,,,,,,,,,,,,,,,,,,,,126.996,126.996,126.996,128.329,0,1,left,0.827,,128.33,128.33,,1,,128.331,128.331,,1,,0,128.331,128.331,128.331,129.83,0,1,1,1,1,0.2,0.8,0.8,0.2,1,0,,,,,,,,,,,,,,,,,,,,,,,,,,,,,,,,,,,,
,,5ee78cdd0103130133fdb204,66fc981f42b801f3398f5601,2024-10-02_02h47.47.189,mdp,2024.2.1,Win32,144.092219,66fa4ebf79326e780c390304,,,,,,,,,,,,,,,,,,,,,129.83,129.83,129.83,130.906,0,1,left,0.561,,130.907,130.907,,1,,130.907,130.908,,0,,0,130.908,130.908,130.908,132.406,0,2,2,2,1,0.2,0.8,0.8,0.2,1,0,,,,,,,,,,,,,,,,,,,,,,,,,,,,,,,,,,,,
,,5ee78cdd0103130133fdb204,66fc981f42b801f3398f5601,2024-10-02_02h47.47.189,mdp,2024.2.1,Win32,144.092219,66fa4ebf79326e780c390304,,,,,,,,,,,,,,,,,,,,,132.407,132.407,132.408,133.475,1,0,right,0.556,,133.476,133.477,,1,,133.477,133.477,,0,,1,133.477,133.477,133.478,134.975,0,3,3,3,1,0.2,0.8,0.8,0.2,1,0,,,,,,,,,,,,,,,,,,,,,,,,,,,,,,,,,,,,
,,5ee78cdd0103130133fdb204,66fc981f42b801f3398f5601,2024-10-02_02h47.47.189,mdp,2024.2.1,Win32,144.092219,66fa4ebf79326e780c390304,,,,,,,,,,,,,,,,,,,,,134.975,134.975,134.976,135.955,1,1,right,0.473,,135.955,135.956,,0,,135.956,135.957,,0,,0,135.957,135.957,135.957,137.454,0,4,4,4,1,0.2,0.8,0.8,0.2,1,0,,,,,,,,,,,,,,,,,,,,,,,,,,,,,,,,,,,,
,,5ee78cdd0103130133fdb204,66fc981f42b801f3398f5601,2024-10-02_02h47.47.189,mdp,2024.2.1,Win32,144.092219,66fa4ebf79326e780c390304,,,,,,,,,,,,,,,,,,,,,137.455,137.455,137.455,138.537,1,1,right,0.569,,138.538,138.538,,1,,138.539,138.539,,0,,0,138.539,138.539,138.539,140.038,0,5,5,5,1,0.2,0.8,0.8,0.2,1,0,,,,,,,,,,,,,,,,,,,,,,,,,,,,,,,,,,,,
,,5ee78cdd0103130133fdb204,66fc981f42b801f3398f5601,2024-10-02_02h47.47.189,mdp,2024.2.1,Win32,144.092219,66fa4ebf79326e780c390304,,,,,,,,,,,,,,,,,,,,,140.038,140.038,140.038,141.023,1,0,right,0.472,,141.024,141.024,,0,,141.025,141.025,,0,,1,141.025,141.025,141.025,142.523,0,6,6,6,1,0.2,0.8,0.8,0.2,1,0,,,,,,,,,,,,,,,,,,,,,,,,,,,,,,,,,,,,
,,5ee78cdd0103130133fdb204,66fc981f42b801f3398f5601,2024-10-02_02h47.47.189,mdp,2024.2.1,Win32,144.092219,66fa4ebf79326e780c390304,,,,,,,,,,,,,,,,,,,,,142.524,142.524,142.524,143.482,1,0,right,0.451,,143.482,143.483,,0,,143.484,143.484,,0,,1,143.484,143.484,143.484,144.982,0,7,7,7,1,0.6,0.4,0.4,0.6,1,0,,,,,,,,,,,,,,,,,,,,,,,,,,,,,,,,,,,,
,,5ee78cdd0103130133fdb204,66fc981f42b801f3398f5601,2024-10-02_02h47.47.189,mdp,2024.2.1,Win32,144.092219,66fa4ebf79326e780c390304,,,,,,,,,,,,,,,,,,,,,144.983,144.983,144.983,145.975,1,1,right,0.48,,145.975,145.976,,1,,145.977,145.977,,1,,0,145.977,145.977,145.977,147.475,0,8,8,8,1,0.6,0.4,0.4,0.6,1,0,,,,,,,,,,,,,,,,,,,,,,,,,,,,,,,,,,,,
,,5ee78cdd0103130133fdb204,66fc981f42b801f3398f5601,2024-10-02_02h47.47.189,mdp,2024.2.1,Win32,144.092219,66fa4ebf79326e780c390304,,,,,,,,,,,,,,,,,,,,,147.476,147.476,147.476,148.308,0,0,left,0.32,,148.309,148.309,,1,,148.309,148.31,,1,,1,148.31,148.31,148.31,149.809,0,9,9,9,1,0.6,0.4,0.4,0.6,1,0,,,,,,,,,,,,,,,,,,,,,,,,,,,,,,,,,,,,
,,5ee78cdd0103130133fdb204,66fc981f42b801f3398f5601,2024-10-02_02h47.47.189,mdp,2024.2.1,Win32,144.092219,66fa4ebf79326e780c390304,,,,,,,,,,,,,,,,,,,,,149.809,149.809,149.81,150.656,0,0,left,0.335,,150.656,150.656,,0,,150.657,150.657,,1,,1,150.657,150.657,150.657,152.156,0,10,10,10,1,0.6,0.4,0.4,0.6,1,0,,,,,,,,,,,,,,,,,,,,,,,,,,,,,,,,,,,,
,,5ee78cdd0103130133fdb204,66fc981f42b801f3398f5601,2024-10-02_02h47.47.189,mdp,2024.2.1,Win32,144.092219,66fa4ebf79326e780c390304,,,,,,,,,,,,,,,,,,,,,152.156,152.156,152.156,153.038,0,0,left,0.373,,153.039,153.039,,1,,153.039,153.04,,0,,1,153.04,153.04,153.04,154.537,0,11,11,11,1,0.6,0.4,0.4,0.6,1,0,,,,,,,,,,,,,,,,,,,,,,,,,,,,,,,,,,,,
,,5ee78cdd0103130133fdb204,66fc981f42b801f3398f5601,2024-10-02_02h47.47.189,mdp,2024.2.1,Win32,144.092219,66fa4ebf79326e780c390304,,,,,,,,,,,,,,,,,,,,,154.537,154.537,154.539,155.475,0,0,left,0.43,,155.475,155.476,,0,,155.476,155.476,,1,,1,155.476,155.476,155.477,156.975,0,12,12,12,1,0.6,0.4,0.4,0.6,1,0,,,,,,,,,,,,,,,,,,,,,,,,,,,,,,,,,,,,
,,5ee78cdd0103130133fdb204,66fc981f42b801f3398f5601,2024-10-02_02h47.47.189,mdp,2024.2.1,Win32,144.092219,66fa4ebf79326e780c390304,,,,,,,,,,,,,,,,,,,,,156.975,156.975,156.976,157.843,0,0,left,0.362,,157.844,157.844,,0,,157.845,157.845,,1,,1,157.845,157.845,157.845,159.343,0,13,13,13,1,0.6,0.4,0.4,0.6,1,0,,,,,,,,,,,,,,,,,,,,,,,,,,,,,,,,,,,,
,,5ee78cdd0103130133fdb204,66fc981f42b801f3398f5601,2024-10-02_02h47.47.189,mdp,2024.2.1,Win32,144.092219,66fa4ebf79326e780c390304,,,,,,,,,,,,,,,,,,,,,159.343,159.343,159.343,160.225,0,0,left,0.374,,160.225,160.226,,0,,160.226,160.226,,0,,1,160.226,160.226,160.226,161.725,0,14,14,14,1,0.6,0.4,0.4,0.6,1,0,,,,,,,,,,,,,,,,,,,,,,,,,,,,,,,,,,,,
,,5ee78cdd0103130133fdb204,66fc981f42b801f3398f5601,2024-10-02_02h47.47.189,mdp,2024.2.1,Win32,144.092219,66fa4ebf79326e780c390304,,,,,,,,,,,,,,,,,,,,,161.725,161.725,161.726,162.468,0,0,left,0.236,,162.468,162.469,,0,,162.469,162.469,,1,,1,162.469,162.469,162.47,163.968,0,15,15,15,1,0.6,0.4,0.4,0.6,1,0,,,,,,,,,,,,,,,,,,,,,,,,,,,,,,,,,,,,
,,5ee78cdd0103130133fdb204,66fc981f42b801f3398f5601,2024-10-02_02h47.47.189,mdp,2024.2.1,Win32,144.092219,66fa4ebf79326e780c390304,,,,,,,,,,,,,,,,,,,,,163.968,163.968,163.969,164.712,0,0,left,0.238,,164.712,164.713,,0,,164.713,164.713,,0,,1,164.713,164.713,164.713,166.212,0,16,16,16,1,0.6,0.4,0.4,0.6,1,0,,,,,,,,,,,,,,,,,,,,,,,,,,,,,,,,,,,,
,,5ee78cdd0103130133fdb204,66fc981f42b801f3398f5601,2024-10-02_02h47.47.189,mdp,2024.2.1,Win32,144.092219,66fa4ebf79326e780c390304,,,,,,,,,,,,,,,,,,,,,166.213,166.213,166.215,167.051,0,0,left,0.327,,167.052,167.053,,0,,167.053,167.054,,0,,1,167.054,167.054,167.054,168.552,0,17,17,17,1,0.6,0.4,0.4,0.6,1,0,,,,,,,,,,,,,,,,,,,,,,,,,,,,,,,,,,,,
,,5ee78cdd0103130133fdb204,66fc981f42b801f3398f5601,2024-10-02_02h47.47.189,mdp,2024.2.1,Win32,144.092219,66fa4ebf79326e780c390304,,,,,,,,,,,,,,,,,,,,,168.552,168.552,168.553,169.287,0,0,left,0.23,,169.288,169.289,,0,,169.289,169.289,,1,,1,169.289,169.289,169.29,170.788,0,18,18,18,1,0.6,0.4,0.4,0.6,1,0,,,,,,,,,,,,,,,,,,,,,,,,,,,,,,,,,,,,
,,5ee78cdd0103130133fdb204,66fc981f42b801f3398f5601,2024-10-02_02h47.47.189,mdp,2024.2.1,Win32,144.092219,66fa4ebf79326e780c390304,,,,,,,,,,,,,,,,,,,,,170.789,170.789,170.789,171.483,0,1,left,0.18,,171.483,171.484,,1,,171.484,171.485,,0,,0,171.485,171.485,171.485,172.983,0,19,19,19,1,0.2,0.8,0.6,0.4,1,0,,,,,,,,,,,,,,,,,,,,,,,,,,,,,,,,,,,,
,,5ee78cdd0103130133fdb204,66fc981f42b801f3398f5601,2024-10-02_02h47.47.189,mdp,2024.2.1,Win32,144.092219,66fa4ebf79326e780c390304,,,,,,,,,,,,,,,,,,,,,172.983,172.983,172.983,173.67,0,1,left,0.177,,173.671,173.671,,0,,173.671,173.671,,1,,0,173.671,173.671,173.672,175.169,0,20,20,20,1,0.2,0.8,0.6,0.4,1,0,,,,,,,,,,,,,,,,,,,,,,,,,,,,,,,,,,,,
,,5ee78cdd0103130133fdb204,66fc981f42b801f3398f5601,2024-10-02_02h47.47.189,mdp,2024.2.1,Win32,144.092219,66fa4ebf79326e780c390304,,,,,,,,,,,,,,,,,,,,,175.17,175.17,175.17,175.858,0,0,left,0.18,,175.858,175.859,,1,,175.859,175.859,,1,,1,175.859,175.859,175.859,177.358,0,21,21,21,1,0.2,0.8,0.6,0.4,1,0,,,,,,,,,,,,,,,,,,,,,,,,,,,,,,,,,,,,
,,5ee78cdd0103130133fdb204,66fc981f42b801f3398f5601,2024-10-02_02h47.47.189,mdp,2024.2.1,Win32,144.092219,66fa4ebf79326e780c390304,,,,,,,,,,,,,,,,,,,,,177.358,177.358,177.358,178.107,0,1,left,0.236,,178.108,178.108,,1,,178.108,178.109,,1,,0,178.109,178.109,178.109,179.607,0,22,22,22,1,0.2,0.8,0.6,0.4,1,0,,,,,,,,,,,,,,,,,,,,,,,,,,,,,,,,,,,,
,,5ee78cdd0103130133fdb204,66fc981f42b801f3398f5601,2024-10-02_02h47.47.189,mdp,2024.2.1,Win32,144.092219,66fa4ebf79326e780c390304,,,,,,,,,,,,,,,,,,,,,179.607,179.607,179.608,180.33,1,0,right,0.216,,180.33,180.33,,0,,180.331,180.331,,0,,1,180.331,180.331,180.331,181.829,0,23,23,23,1,0.2,0.8,0.6,0.4,1,0,,,,,,,,,,,,,,,,,,,,,,,,,,,,,,,,,,,,
,,5ee78cdd0103130133fdb204,66fc981f42b801f3398f5601,2024-10-02_02h47.47.189,mdp,2024.2.1,Win32,144.092219,66fa4ebf79326e780c390304,,,,,,,,,,,,,,,,,,,,,181.829,181.829,181.831,182.545,1,1,right,0.208,,182.546,182.546,,1,,182.546,182.546,,1,,0,182.546,182.546,182.547,184.045,0,24,24,24,1,0.8,0.2,0.2,0.8,1,0,,,,,,,,,,,,,,,,,,,,,,,,,,,,,,,,,,,,
,,5ee78cdd0103130133fdb204,66fc981f42b801f3398f5601,2024-10-02_02h47.47.189,mdp,2024.2.1,Win32,144.092219,66fa4ebf79326e780c390304,,,,,,,,,,,,,,,,,,,,,184.045,184.045,184.045,184.67,1,1,right,0.121,,184.67,184.67,,1,,184.671,184.671,,1,,0,184.671,184.671,184.671,186.17,0,25,25,25,1,0.8,0.2,0.2,0.8,1,0,,,,,,,,,,,,,,,,,,,,,,,,,,,,,,,,,,,,
,,5ee78cdd0103130133fdb204,66fc981f42b801f3398f5601,2024-10-02_02h47.47.189,mdp,2024.2.1,Win32,144.092219,66fa4ebf79326e780c390304,,,,,,,,,,,,,,,,,,,,,186.17,186.17,186.171,186.912,0,0,left,0.236,,186.914,186.914,,0,,186.914,186.915,,0,,1,186.915,186.915,186.915,188.413,0,26,26,26,1,0.8,0.2,0.2,0.8,1,0,,,,,,,,,,,,,,,,,,,,,,,,,,,,,,,,,,,,
,,5ee78cdd0103130133fdb204,66fc981f42b801f3398f5601,2024-10-02_02h47.47.189,mdp,2024.2.1,Win32,144.092219,66fa4ebf79326e780c390304,,,,,,,,,,,,,,,,,,,,,188.413,188.413,188.414,189.079,0,0,left,0.16,,189.08,189.081,,0,,189.081,189.081,,1,,1,189.081,189.081,189.081,190.58,0,27,27,27,1,0.8,0.2,0.2,0.8,1,0,,,,,,,,,,,,,,,,,,,,,,,,,,,,,,,,,,,,
,,5ee78cdd0103130133fdb204,66fc981f42b801f3398f5601,2024-10-02_02h47.47.189,mdp,2024.2.1,Win32,144.092219,66fa4ebf79326e780c390304,,,,,,,,,,,,,,,,,,,,,190.58,190.58,190.581,191.337,0,0,left,0.25,,191.337,191.338,,0,,191.338,191.338,,1,,1,191.338,191.338,191.338,192.836,0,28,28,28,1,0.8,0.2,0.2,0.8,1,0,,,,,,,,,,,,,,,,,,,,,,,,,,,,,,,,,,,,
,,5ee78cdd0103130133fdb204,66fc981f42b801f3398f5601,2024-10-02_02h47.47.189,mdp,2024.2.1,Win32,144.092219,66fa4ebf79326e780c390304,,,,,,,,,,,,,,,,,,,,,192.836,192.836,192.837,193.579,0,1,left,0.236,,193.58,193.58,,0,,193.581,193.581,,0,,0,193.581,193.581,193.582,195.08,0,29,29,29,1,0.8,0.2,0.2,0.8,1,0,,,,,,,,,,,,,,,,,,,,,,,,,,,,,,,,,,,,
,,5ee78cdd0103130133fdb204,66fc981f42b801f3398f5601,2024-10-02_02h47.47.189,mdp,2024.2.1,Win32,144.092219,66fa4ebf79326e780c390304,,,,,,,,,,,,,,,,,,,,,195.08,195.08,195.08,195.746,0,1,left,0.161,,195.747,195.747,,0,,195.747,195.747,,0,,0,195.747,195.747,195.747,197.247,0,30,30,30,1,0.8,0.2,0.2,0.8,1,0,,,,,,,,,,,,,,,,,,,,,,,,,,,,,,,,,,,,
,,5ee78cdd0103130133fdb204,66fc981f42b801f3398f5601,2024-10-02_02h47.47.189,mdp,2024.2.1,Win32,144.092219,66fa4ebf79326e780c390304,,,,,,,,,,,,,,,,,,,,,197.247,197.247,197.247,197.885,0,0,left,0.129,,197.886,197.886,,0,,197.886,197.886,,1,,1,197.886,197.886,197.886,199.386,0,31,31,31,1,0.8,0.2,0.2,0.8,1,0,,,,,,,,,,,,,,,,,,,,,,,,,,,,,,,,,,,,
,,5ee78cdd0103130133fdb204,66fc981f42b801f3398f5601,2024-10-02_02h47.47.189,mdp,2024.2.1,Win32,144.092219,66fa4ebf79326e780c390304,,,,,,,,,,,,,,,,,,,,,199.387,199.387,199.388,200.219,0,0,left,0.319,,200.219,200.22,,0,,200.22,200.221,,1,,1,200.221,200.221,200.221,201.719,0,32,32,32,1,0.8,0.2,0.2,0.8,1,0,,,,,,,,,,,,,,,,,,,,,,,,,,,,,,,,,,,,
,,5ee78cdd0103130133fdb204,66fc981f42b801f3398f5601,2024-10-02_02h47.47.189,mdp,2024.2.1,Win32,144.092219,66fa4ebf79326e780c390304,,,,,,,,,,,,,,,,,,,,,201.719,201.719,201.719,202.462,0,1,left,0.239,,202.462,202.462,,1,,202.463,202.463,,0,,0,202.463,202.463,202.463,203.962,0,33,33,33,1,0.4,0.6,0.6,0.4,1,0,,,,,,,,,,,,,,,,,,,,,,,,,,,,,,,,,,,,
,,5ee78cdd0103130133fdb204,66fc981f42b801f3398f5601,2024-10-02_02h47.47.189,mdp,2024.2.1,Win32,144.092219,66fa4ebf79326e780c390304,,,,,,,,,,,,,,,,,,,,,203.962,203.962,203.963,204.503,1,1,right,0.029,,204.503,204.505,,0,,204.505,204.505,,0,,0,204.505,204.505,204.506,206.003,0,34,34,34,1,0.4,0.6,0.6,0.4,1,0,,,,,,,,,,,,,,,,,,,,,,,,,,,,,,,,,,,,
,,5ee78cdd0103130133fdb204,66fc981f42b801f3398f5601,2024-10-02_02h47.47.189,mdp,2024.2.1,Win32,144.092219,66fa4ebf79326e780c390304,,,,,,,,,,,,,,,,,,,,,206.004,206.004,206.004,206.746,0,0,left,0.228,,206.746,206.747,,1,,206.747,206.747,,1,,1,206.747,206.747,206.747,208.246,0,35,35,35,1,0.4,0.6,0.6,0.4,1,0,,,,,,,,,,,,,,,,,,,,,,,,,,,,,,,,,,,,
,,5ee78cdd0103130133fdb204,66fc981f42b801f3398f5601,2024-10-02_02h47.47.189,mdp,2024.2.1,Win32,144.092219,66fa4ebf79326e780c390304,,,,,,,,,,,,,,,,,,,,,208.247,208.247,208.247,208.843,0,1,left,0.091,,208.844,208.844,,0,,208.845,208.845,,0,,0,208.845,208.845,208.845,210.344,0,36,36,36,1,0.4,0.6,0.6,0.4,1,0,,,,,,,,,,,,,,,,,,,,,,,,,,,,,,,,,,,,
,,5ee78cdd0103130133fdb204,66fc981f42b801f3398f5601,2024-10-02_02h47.47.189,mdp,2024.2.1,Win32,144.092219,66fa4ebf79326e780c390304,,,,,,,,,,,,,,,,,,,,,210.344,210.344,210.344,211.087,0,1,left,0.231,,211.087,211.088,,1,,211.088,211.088,,1,,0,211.088,211.088,211.088,212.587,0,37,37,37,1,0.2,0.8,0.8,0.2,1,0,,,,,,,,,,,,,,,,,,,,,,,,,,,,,,,,,,,,
,,5ee78cdd0103130133fdb204,66fc981f42b801f3398f5601,2024-10-02_02h47.47.189,mdp,2024.2.1,Win32,144.092219,66fa4ebf79326e780c390304,,,,,,,,,,,,,,,,,,,,,212.587,212.587,212.588,213.24,1,1,right,0.141,,213.24,213.241,,0,,213.241,213.241,,0,,0,213.241,213.241,213.241,214.739,0,38,38,38,1,0.2,0.8,0.8,0.2,1,0,,,,,,,,,,,,,,,,,,,,,,,,,,,,,,,,,,,,
,,5ee78cdd0103130133fdb204,66fc981f42b801f3398f5601,2024-10-02_02h47.47.189,mdp,2024.2.1,Win32,144.092219,66fa4ebf79326e780c390304,,,,,,,,,,,,,,,,,,,,,214.74,214.74,214.74,215.309,0,1,left,0.06,,215.31,215.31,,0,,215.31,215.311,,0,,0,215.311,215.311,215.311,216.809,0,39,39,39,1,0.8,0.2,0.4,0.6,1,0,,,,,,,,,,,,,,,,,,,,,,,,,,,,,,,,,,,,
,,5ee78cdd0103130133fdb204,66fc981f42b801f3398f5601,2024-10-02_02h47.47.189,mdp,2024.2.1,Win32,144.092219,66fa4ebf79326e780c390304,,,,,,,,,,,,,,,,,,,,,216.809,216.809,216.809,217.51,0,1,left,0.189,,217.511,217.511,,0,,217.511,217.512,,1,,0,217.512,217.512,217.512,219.01,0,40,40,40,1,0.4,0.6,0.8,0.2,1,0,,,,,,,,,,,,,,,,,,,,,,,,,,,,,,,,,,,,
,,5ee78cdd0103130133fdb204,66fc981f42b801f3398f5601,2024-10-02_02h47.47.189,mdp,2024.2.1,Win32,144.092219,66fa4ebf79326e780c390304,,,,,,,,,,,,,,,,,,,,,219.011,219.011,219.011,219.67,0,0,left,0.149,,219.671,219.671,,0,,219.671,219.671,,0,,1,219.671,219.671,219.671,221.17,0,41,41,41,1,0.8,0.2,0.2,0.8,1,0,,,,,,,,,,,,,,,,,,,,,,,,,,,,,,,,,,,,
,,5ee78cdd0103130133fdb204,66fc981f42b801f3398f5601,2024-10-02_02h47.47.189,mdp,2024.2.1,Win32,144.092219,66fa4ebf79326e780c390304,,,,,,,,,,,,,,,,,,,,,221.171,221.171,221.171,221.753,0,0,left,0.07,,221.753,221.754,,0,,221.754,221.754,,0,,1,221.754,221.754,221.754,223.253,0,42,42,42,1,0.8,0.2,0.2,0.8,1,0,,,,,,,,,,,,,,,,,,,,,,,,,,,,,,,,,,,,
,,5ee78cdd0103130133fdb204,66fc981f42b801f3398f5601,2024-10-02_02h47.47.189,mdp,2024.2.1,Win32,144.092219,66fa4ebf79326e780c390304,,,,,,,,,,,,,,,,,,,,,223.253,223.253,223.253,223.92,0,1,left,0.161,,223.92,223.921,,1,,223.921,223.921,,0,,0,223.921,223.921,223.921,225.42,0,43,43,43,1,0.8,0.2,0.2,0.8,1,0,,,,,,,,,,,,,,,,,,,,,,,,,,,,,,,,,,,,
,,5ee78cdd0103130133fdb204,66fc981f42b801f3398f5601,2024-10-02_02h47.47.189,mdp,2024.2.1,Win32,144.092219,66fa4ebf79326e780c390304,,,,,,,,,,,,,,,,,,,,,225.42,225.42,225.421,226.003,0,0,left,0.077,,226.004,226.004,,0,,226.004,226.005,,0,,1,226.005,226.005,226.005,227.503,0,44,44,44,1,0.8,0.2,0.2,0.8,1,0,,,,,,,,,,,,,,,,,,,,,,,,,,,,,,,,,,,,
,,5ee78cdd0103130133fdb204,66fc981f42b801f3398f5601,2024-10-02_02h47.47.189,mdp,2024.2.1,Win32,144.092219,66fa4ebf79326e780c390304,,,,,,,,,,,,,,,,,,,,,227.503,227.503,227.503,228.184,0,0,left,0.175,,228.185,228.185,,0,,228.185,228.186,,0,,1,228.186,228.186,228.186,229.684,0,45,45,45,1,0.8,0.2,0.2,0.8,1,0,,,,,,,,,,,,,,,,,,,,,,,,,,,,,,,,,,,,
,,5ee78cdd0103130133fdb204,66fc981f42b801f3398f5601,2024-10-02_02h47.47.189,mdp,2024.2.1,Win32,144.092219,66fa4ebf79326e780c390304,,,,,,,,,,,,,,,,,,,,,229.684,229.684,229.685,230.323,0,1,left,0.132,,230.323,230.323,,0,,230.324,230.324,,0,,0,230.324,230.324,230.324,231.823,0,46,46,46,1,0.8,0.2,0.2,0.8,1,0,,,,,,,,,,,,,,,,,,,,,,,,,,,,,,,,,,,,
,,5ee78cdd0103130133fdb204,66fc981f42b801f3398f5601,2024-10-02_02h47.47.189,mdp,2024.2.1,Win32,144.092219,66fa4ebf79326e780c390304,,,,,,,,,,,,,,,,,,,,,231.823,231.823,231.824,232.545,0,0,left,0.215,,232.547,232.549,,0,,232.549,232.549,,0,,1,232.549,232.549,232.549,234.045,0,47,47,47,1,0.8,0.2,0.2,0.8,1,0,,,,,,,,,,,,,,,,,,,,,,,,,,,,,,,,,,,,
,,5ee78cdd0103130133fdb204,66fc981f42b801f3398f5601,2024-10-02_02h47.47.189,mdp,2024.2.1,Win32,144.092219,66fa4ebf79326e780c390304,,,,,,,,,,,,,,,,,,,,,234.045,234.045,234.046,234.649,0,0,left,0.098,,234.65,234.65,,0,,234.65,234.651,,0,,1,234.651,234.651,234.651,236.149,0,48,48,48,1,0.8,0.2,0.2,0.8,1,0,,,,,,,,,,,,,,,,,,,,,,,,,,,,,,,,,,,,
,,5ee78cdd0103130133fdb204,66fc981f42b801f3398f5601,2024-10-02_02h47.47.189,mdp,2024.2.1,Win32,144.092219,66fa4ebf79326e780c390304,,,,,,,,,,,,,,,,,,,,,236.149,236.149,236.15,237.184,0,0,left,0.528,,237.185,237.185,,0,,237.186,237.186,,1,,1,237.186,237.186,237.187,238.684,0,49,49,49,1,0.8,0.2,0.2,0.8,1,0,,,,,,,,,,,,,,,,,,,,,,,,,,,,,,,,,,,,
,,5ee78cdd0103130133fdb204,66fc981f42b801f3398f5601,2024-10-02_02h47.47.189,mdp,2024.2.1,Win32,144.092219,66fa4ebf79326e780c390304,,,,,,,,,,,,,,,,,,,,,,,,,,,,,,,,,,,,,,,,,,,,,,,,,,,,,,,,238.684,300.29,0,0,0,8,1,imgs/cat.png,imgs/dog.png,imgs/kangaroo.png,imgs/goat.png,imgs/giraffe.png,,,,,,,,,,,,,,,,,,,,,,,,
,,5ee78cdd0103130133fdb204,66fc981f42b801f3398f5601,2024-10-02_02h47.47.189,mdp,2024.2.1,Win32,144.092219,66fa4ebf79326e780c390304,,,,,,,,,,,,,,2,seqs/st2seq26.csv,300.292,302.032,space,1.116,,302.034,302.034,302.035,303.511,1,0,right,0.962,,303.512,304.872,0,1,left,304.873,304.873,,0,,0,304.873,304.873,304.873,306.372,0,0,0,0,1,0.8,0.2,0.6,0.4,,,,,,,,,,,,,,,0.852,,0.4,0.6,0.8,0.2,0.2,0.8,0.4,0.6,1,0,,,,,,,,,,,,
,,5ee78cdd0103130133fdb204,66fc981f42b801f3398f5601,2024-10-02_02h47.47.189,mdp,2024.2.1,Win32,144.092219,66fa4ebf79326e780c390304,,,,,,,,,,,,,,,,,,,,,306.373,306.373,306.373,307.122,1,1,right,0.235,,307.122,307.844,0,1,left,307.845,307.845,,1,,0,307.845,307.845,307.845,309.344,0,1,1,1,1,0.8,0.2,0.6,0.4,,,,,,,,,,,,,,,0.217,,0.4,0.6,0.8,0.2,0.2,0.8,0.4,0.6,1,0,,,,,,,,,,,,
,,5ee78cdd0103130133fdb204,66fc981f42b801f3398f5601,2024-10-02_02h47.47.189,mdp,2024.2.1,Win32,144.092219,66fa4ebf79326e780c390304,,,,,,,,,,,,,,,,,,,,,309.344,309.344,309.345,310.073,0,0,left,0.223,,310.073,310.615,1,0,right,310.615,310.616,,1,,1,310.616,310.616,310.616,312.115,0,2,2,2,1,0.8,0.2,0.6,0.4,,,,,,,,,,,,,,,0.035,,0.4,0.6,0.8,0.2,0.2,0.8,0.4,0.6,1,0,,,,,,,,,,,,
,,5ee78cdd0103130133fdb204,66fc981f42b801f3398f5601,2024-10-02_02h47.47.189,mdp,2024.2.1,Win32,144.092219,66fa4ebf79326e780c390304,,,,,,,,,,,,,,,,,,,,,312.115,312.115,312.116,312.949,0,0,left,0.329,,312.949,313.469,1,1,right,313.47,313.47,,0,,0,313.47,313.47,313.47,314.969,0,3,3,3,1,0.8,0.2,0.6,0.4,,,,,,,,,,,,,,,0.009,,0.4,0.6,0.8,0.2,0.2,0.8,0.4,0.6,1,0,,,,,,,,,,,,
,,5ee78cdd0103130133fdb204,66fc981f42b801f3398f5601,2024-10-02_02h47.47.189,mdp,2024.2.1,Win32,144.092219,66fa4ebf79326e780c390304,,,,,,,,,,,,,,,,,,,,,314.969,314.969,314.969,315.761,0,1,left,0.285,,315.761,316.351,1,0,right,316.351,316.351,,0,,1,316.352,316.352,316.352,317.851,0,4,4,4,1,0.8,0.2,0.6,0.4,,,,,,,,,,,,,,,0.083,,0.4,0.6,0.8,0.2,0.2,0.8,0.4,0.6,1,0,,,,,,,,,,,,
,,5ee78cdd0103130133fdb204,66fc981f42b801f3398f5601,2024-10-02_02h47.47.189,mdp,2024.2.1,Win32,144.092219,66fa4ebf79326e780c390304,,,,,,,,,,,,,,,,,,,,,317.851,317.851,317.852,318.601,0,0,left,0.243,,318.602,319.254,1,0,right,319.254,319.255,,0,,1,319.255,319.255,319.255,320.753,0,5,5,5,1,0.8,0.2,0.6,0.4,,,,,,,,,,,,,,,0.146,,0.4,0.6,0.8,0.2,0.2,0.8,0.4,0.6,1,0,,,,,,,,,,,,
,,5ee78cdd0103130133fdb204,66fc981f42b801f3398f5601,2024-10-02_02h47.47.189,mdp,2024.2.1,Win32,144.092219,66fa4ebf79326e780c390304,,,,,,,,,,,,,,,,,,,,,320.755,320.755,320.755,321.518,0,1,left,0.251,,321.518,322.157,1,1,right,322.157,322.158,,0,,0,322.158,322.158,322.158,323.657,0,6,6,6,1,0.8,0.2,0.6,0.4,,,,,,,,,,,,,,,0.134,,0.4,0.6,0.8,0.2,0.2,0.8,0.4,0.6,1,0,,,,,,,,,,,,
,,5ee78cdd0103130133fdb204,66fc981f42b801f3398f5601,2024-10-02_02h47.47.189,mdp,2024.2.1,Win32,144.092219,66fa4ebf79326e780c390304,,,,,,,,,,,,,,,,,,,,,323.657,323.657,323.658,324.4,1,0,right,0.229,,324.4,325.664,0,0,left,325.664,325.664,,1,,1,325.664,325.664,325.665,327.164,0,7,7,7,1,0.8,0.2,0.6,0.4,,,,,,,,,,,,,,,0.756,,0.4,0.6,0.8,0.2,0.2,0.8,0.4,0.6,1,0,,,,,,,,,,,,
,,5ee78cdd0103130133fdb204,66fc981f42b801f3398f5601,2024-10-02_02h47.47.189,mdp,2024.2.1,Win32,144.092219,66fa4ebf79326e780c390304,,,,,,,,,,,,,,,,,,,,,327.164,327.164,327.164,327.99,1,0,right,0.32,,327.991,328.865,1,0,right,328.865,328.866,,0,,1,328.866,328.866,328.866,330.365,0,8,8,8,1,0.8,0.2,0.6,0.4,,,,,,,,,,,,,,,0.367,,0.4,0.6,0.8,0.2,0.2,0.8,0.4,0.6,1,0,,,,,,,,,,,,
,,5ee78cdd0103130133fdb204,66fc981f42b801f3398f5601,2024-10-02_02h47.47.189,mdp,2024.2.1,Win32,144.092219,66fa4ebf79326e780c390304,,,,,,,,,,,,,,,,,,,,,330.366,330.366,330.366,331.296,1,1,right,0.416,,331.296,332.053,1,0,right,332.055,332.056,,0,,1,332.056,332.056,332.056,333.552,0,9,9,9,1,0.8,0.2,0.6,0.4,,,,,,,,,,,,,,,0.252,,0.4,0.6,0.8,0.2,0.6,0.4,0.8,0.2,1,0,,,,,,,,,,,,
,,5ee78cdd0103130133fdb204,66fc981f42b801f3398f5601,2024-10-02_02h47.47.189,mdp,2024.2.1,Win32,144.092219,66fa4ebf79326e780c390304,,,,,,,,,,,,,,,,,,,,,333.553,333.553,333.553,334.449,1,0,right,0.388,,334.449,335.338,0,1,left,335.338,335.339,,1,,0,335.339,335.339,335.339,336.838,0,10,10,10,1,0.8,0.2,0.6,0.4,,,,,,,,,,,,,,,0.374,,0.4,0.6,0.8,0.2,0.2,0.8,0.2,0.8,1,0,,,,,,,,,,,,
,,5ee78cdd0103130133fdb204,66fc981f42b801f3398f5601,2024-10-02_02h47.47.189,mdp,2024.2.1,Win32,144.092219,66fa4ebf79326e780c390304,,,,,,,,,,,,,,,,,,,,,336.838,336.838,336.839,337.476,0,0,left,0.134,,337.477,338.185,1,1,right,338.185,338.186,,1,,0,338.186,338.186,338.186,339.685,0,11,11,11,1,0.8,0.2,0.6,0.4,,,,,,,,,,,,,,,0.201,,0.4,0.6,0.8,0.2,0.2,0.8,0.2,0.8,1,0,,,,,,,,,,,,
,,5ee78cdd0103130133fdb204,66fc981f42b801f3398f5601,2024-10-02_02h47.47.189,mdp,2024.2.1,Win32,144.092219,66fa4ebf79326e780c390304,,,,,,,,,,,,,,,,,,,,,339.685,339.685,339.685,340.42,0,0,left,0.225,,340.421,341.15,0,1,left,341.151,341.151,,1,,0,341.151,341.151,341.151,342.649,0,12,12,12,1,0.8,0.2,0.6,0.4,,,,,,,,,,,,,,,0.223,,0.4,0.6,0.8,0.2,0.2,0.8,0.2,0.8,1,0,,,,,,,,,,,,
,,5ee78cdd0103130133fdb204,66fc981f42b801f3398f5601,2024-10-02_02h47.47.189,mdp,2024.2.1,Win32,144.092219,66fa4ebf79326e780c390304,,,,,,,,,,,,,,,,,,,,,342.65,342.65,342.65,343.295,0,0,left,0.139,,343.297,343.976,1,1,right,343.977,343.977,,0,,0,343.977,343.977,343.977,345.477,0,13,13,13,1,0.8,0.2,0.6,0.4,,,,,,,,,,,,,,,0.175,,0.4,0.6,0.8,0.2,0.2,0.8,0.2,0.8,1,0,,,,,,,,,,,,
,,5ee78cdd0103130133fdb204,66fc981f42b801f3398f5601,2024-10-02_02h47.47.189,mdp,2024.2.1,Win32,144.092219,66fa4ebf79326e780c390304,,,,,,,,,,,,,,,,,,,,,345.477,345.477,345.478,346.205,1,0,right,0.216,,346.206,346.913,1,0,right,346.914,346.914,,0,,1,346.914,346.914,346.915,348.414,0,14,14,14,1,0.8,0.2,0.6,0.4,,,,,,,,,,,,,,,0.202,,0.4,0.6,0.8,0.2,0.2,0.8,0.2,0.8,1,0,,,,,,,,,,,,
,,5ee78cdd0103130133fdb204,66fc981f42b801f3398f5601,2024-10-02_02h47.47.189,mdp,2024.2.1,Win32,144.092219,66fa4ebf79326e780c390304,,,,,,,,,,,,,,,,,,,,,348.414,348.414,348.415,349.129,1,0,right,0.208,,349.129,349.816,0,0,left,349.818,349.818,,1,,1,349.818,349.818,349.818,351.317,0,15,15,15,1,0.8,0.2,0.6,0.4,,,,,,,,,,,,,,,0.181,,0.4,0.6,0.8,0.2,0.2,0.8,0.2,0.8,1,0,,,,,,,,,,,,
,,5ee78cdd0103130133fdb204,66fc981f42b801f3398f5601,2024-10-02_02h47.47.189,mdp,2024.2.1,Win32,144.092219,66fa4ebf79326e780c390304,,,,,,,,,,,,,,,,,,,,,351.317,351.317,351.317,351.921,0,0,left,0.091,,351.921,352.574,1,0,right,352.575,352.575,,0,,1,352.575,352.575,352.575,354.074,0,16,16,16,1,0.8,0.2,0.6,0.4,,,,,,,,,,,,,,,0.149,,0.4,0.6,0.8,0.2,0.2,0.8,0.2,0.8,1,0,,,,,,,,,,,,
,,5ee78cdd0103130133fdb204,66fc981f42b801f3398f5601,2024-10-02_02h47.47.189,mdp,2024.2.1,Win32,144.092219,66fa4ebf79326e780c390304,,,,,,,,,,,,,,,,,,,,,354.074,354.074,354.074,354.823,0,1,left,0.243,,354.824,355.567,1,1,right,355.567,355.568,,0,,0,355.568,355.568,355.568,357.067,0,17,17,17,1,0.8,0.2,0.6,0.4,,,,,,,,,,,,,,,0.237,,0.4,0.6,0.8,0.2,0.2,0.8,0.2,0.8,1,0,,,,,,,,,,,,
,,5ee78cdd0103130133fdb204,66fc981f42b801f3398f5601,2024-10-02_02h47.47.189,mdp,2024.2.1,Win32,144.092219,66fa4ebf79326e780c390304,,,,,,,,,,,,,,,,,,,,,357.067,357.067,357.067,357.831,0,1,left,0.251,,357.831,358.559,1,1,right,358.56,358.56,,1,,0,358.56,358.56,358.561,360.059,0,18,18,18,1,0.8,0.2,0.6,0.4,,,,,,,,,,,,,,,0.216,,0.4,0.6,0.8,0.2,0.2,0.8,0.2,0.8,1,0,,,,,,,,,,,,
,,5ee78cdd0103130133fdb204,66fc981f42b801f3398f5601,2024-10-02_02h47.47.189,mdp,2024.2.1,Win32,144.092219,66fa4ebf79326e780c390304,,,,,,,,,,,,,,,,,,,,,360.06,360.06,360.06,360.831,1,0,right,0.266,,360.831,361.456,0,1,left,361.456,361.456,,1,,0,361.456,361.456,361.457,362.956,0,19,19,19,1,0.8,0.2,0.6,0.4,,,,,,,,,,,,,,,0.112,,0.4,0.6,0.8,0.2,0.2,0.8,0.2,0.8,1,0,,,,,,,,,,,,
,,5ee78cdd0103130133fdb204,66fc981f42b801f3398f5601,2024-10-02_02h47.47.189,mdp,2024.2.1,Win32,144.092219,66fa4ebf79326e780c390304,,,,,,,,,,,,,,,,,,,,,362.956,362.956,362.956,364.073,0,0,left,0.613,,364.074,364.768,0,0,left,364.768,364.769,,0,,1,364.769,364.769,364.769,366.269,0,20,20,20,1,0.6,0.4,0.2,0.8,,,,,,,,,,,,,,,0.186,,0.4,0.6,0.8,0.2,0.2,0.8,0.2,0.8,1,0,,,,,,,,,,,,
,,5ee78cdd0103130133fdb204,66fc981f42b801f3398f5601,2024-10-02_02h47.47.189,mdp,2024.2.1,Win32,144.092219,66fa4ebf79326e780c390304,,,,,,,,,,,,,,,,,,,,,366.27,366.27,366.271,367.032,0,0,left,0.251,,367.033,367.685,1,1,right,367.685,367.686,,1,,0,367.686,367.686,367.686,369.185,0,21,21,21,1,0.6,0.4,0.2,0.8,,,,,,,,,,,,,,,0.147,,0.8,0.2,0.2,0.8,0.2,0.8,0.2,0.8,1,0,,,,,,,,,,,,
,,5ee78cdd0103130133fdb204,66fc981f42b801f3398f5601,2024-10-02_02h47.47.189,mdp,2024.2.1,Win32,144.092219,66fa4ebf79326e780c390304,,,,,,,,,,,,,,,,,,,,,369.185,369.185,369.185,371.824,1,1,right,2.131,,371.824,372.421,0,1,left,372.421,372.421,,1,,0,372.421,372.421,372.422,373.92,0,22,22,22,1,0.6,0.4,0.2,0.8,,,,,,,,,,,,,,,0.092,,0.8,0.2,0.2,0.8,0.2,0.8,0.2,0.8,1,0,,,,,,,,,,,,
,,5ee78cdd0103130133fdb204,66fc981f42b801f3398f5601,2024-10-02_02h47.47.189,mdp,2024.2.1,Win32,144.092219,66fa4ebf79326e780c390304,,,,,,,,,,,,,,,,,,,,,373.921,373.921,373.921,374.574,0,0,left,0.147,,374.574,375.345,0,0,left,375.346,375.346,,0,,1,375.346,375.346,375.346,376.845,0,23,23,23,1,0.8,0.2,0.6,0.4,,,,,,,,,,,,,,,0.257,,0.8,0.2,0.2,0.8,0.2,0.8,0.2,0.8,1,0,,,,,,,,,,,,
,,5ee78cdd0103130133fdb204,66fc981f42b801f3398f5601,2024-10-02_02h47.47.189,mdp,2024.2.1,Win32,144.092219,66fa4ebf79326e780c390304,,,,,,,,,,,,,,,,,,,,,376.845,376.845,376.845,377.901,0,0,left,0.551,,377.901,378.83,0,0,left,378.831,378.831,,0,,1,378.831,378.831,378.832,380.331,0,24,24,24,1,0.8,0.2,0.6,0.4,,,,,,,,,,,,,,,0.417,,0.8,0.2,0.2,0.8,0.2,0.8,0.2,0.8,1,0,,,,,,,,,,,,
,,5ee78cdd0103130133fdb204,66fc981f42b801f3398f5601,2024-10-02_02h47.47.189,mdp,2024.2.1,Win32,144.092219,66fa4ebf79326e780c390304,,,,,,,,,,,,,,,,,,,,,380.331,380.331,380.331,381.102,0,0,left,0.265,,381.102,381.727,1,1,right,381.727,381.727,,0,,0,381.728,381.728,381.728,383.226,0,25,25,25,1,0.8,0.2,0.6,0.4,,,,,,,,,,,,,,,0.118,,0.8,0.2,0.2,0.8,0.2,0.8,0.2,0.8,1,0,,,,,,,,,,,,
,,5ee78cdd0103130133fdb204,66fc981f42b801f3398f5601,2024-10-02_02h47.47.189,mdp,2024.2.1,Win32,144.092219,66fa4ebf79326e780c390304,,,,,,,,,,,,,,,,,,,,,383.226,383.226,383.227,383.803,1,1,right,0.073,,383.804,384.352,0,1,left,384.352,384.353,,1,,0,384.353,384.353,384.353,385.851,0,26,26,26,1,0.8,0.2,0.6,0.4,,,,,,,,,,,,,,,0.042,,0.8,0.2,0.2,0.8,0.2,0.8,0.2,0.8,1,0,,,,,,,,,,,,
,,5ee78cdd0103130133fdb204,66fc981f42b801f3398f5601,2024-10-02_02h47.47.189,mdp,2024.2.1,Win32,144.092219,66fa4ebf79326e780c390304,,,,,,,,,,,,,,,,,,,,,385.851,385.851,385.852,386.4,1,0,right,0.042,,386.401,387.004,1,1,right,387.005,387.005,,1,,0,387.005,387.005,387.005,388.505,0,27,27,27,1,0.8,0.2,0.6,0.4,,,,,,,,,,,,,,,0.1,,0.8,0.2,0.2,0.8,0.2,0.8,0.2,0.8,1,0,,,,,,,,,,,,
,,5ee78cdd0103130133fdb204,66fc981f42b801f3398f5601,2024-10-02_02h47.47.189,mdp,2024.2.1,Win32,144.092219,66fa4ebf79326e780c390304,,,,,,,,,,,,,,,,,,,,,388.505,388.505,388.505,389.088,1,0,right,0.076,,389.089,389.601,0,0,left,389.602,389.603,,0,,1,389.603,389.603,389.603,391.101,0,28,28,28,1,0.8,0.2,0.6,0.4,,,,,,,,,,,,,,,0.001,,0.8,0.2,0.2,0.8,0.2,0.8,0.2,0.8,1,0,,,,,,,,,,,,
,,5ee78cdd0103130133fdb204,66fc981f42b801f3398f5601,2024-10-02_02h47.47.189,mdp,2024.2.1,Win32,144.092219,66fa4ebf79326e780c390304,,,,,,,,,,,,,,,,,,,,,391.101,391.101,391.102,391.845,0,0,left,0.237,,391.846,392.588,0,0,left,392.588,392.588,,1,,1,392.588,392.588,392.589,394.088,0,29,29,29,1,0.8,0.2,0.6,0.4,,,,,,,,,,,,,,,0.232,,0.6,0.4,0.4,0.6,0.2,0.8,0.2,0.8,1,0,,,,,,,,,,,,
,,5ee78cdd0103130133fdb204,66fc981f42b801f3398f5601,2024-10-02_02h47.47.189,mdp,2024.2.1,Win32,144.092219,66fa4ebf79326e780c390304,,,,,,,,,,,,,,,,,,,,,394.088,394.088,394.088,394.831,0,0,left,0.236,,394.831,395.539,1,1,right,395.541,395.542,,1,,0,395.542,395.542,395.543,397.039,0,30,30,30,1,0.8,0.2,0.6,0.4,,,,,,,,,,,,,,,0.205,,0.6,0.4,0.4,0.6,0.2,0.8,0.2,0.8,1,0,,,,,,,,,,,,
,,5ee78cdd0103130133fdb204,66fc981f42b801f3398f5601,2024-10-02_02h47.47.189,mdp,2024.2.1,Win32,144.092219,66fa4ebf79326e780c390304,,,,,,,,,,,,,,,,,,,,,397.039,397.039,397.04,397.726,1,1,right,0.181,,397.727,398.303,0,1,left,398.304,398.304,,0,,0,398.304,398.304,398.304,399.803,0,31,31,31,1,0.8,0.2,0.6,0.4,,,,,,,,,,,,,,,0.069,,0.6,0.4,0.4,0.6,0.2,0.8,0.2,0.8,1,0,,,,,,,,,,,,
,,5ee78cdd0103130133fdb204,66fc981f42b801f3398f5601,2024-10-02_02h47.47.189,mdp,2024.2.1,Win32,144.092219,66fa4ebf79326e780c390304,,,,,,,,,,,,,,,,,,,,,399.804,399.804,399.804,400.365,0,0,left,0.049,,400.366,400.977,0,0,left,400.978,400.978,,1,,1,400.978,400.978,400.978,402.477,0,32,32,32,1,0.8,0.2,0.6,0.4,,,,,,,,,,,,,,,0.104,,0.6,0.4,0.4,0.6,0.2,0.8,0.2,0.8,1,0,,,,,,,,,,,,
,,5ee78cdd0103130133fdb204,66fc981f42b801f3398f5601,2024-10-02_02h47.47.189,mdp,2024.2.1,Win32,144.092219,66fa4ebf79326e780c390304,,,,,,,,,,,,,,,,,,,,,402.477,402.477,402.477,403.304,0,0,left,0.32,,403.304,403.949,1,1,right,403.95,403.95,,1,,0,403.95,403.95,403.95,405.449,0,33,33,33,1,0.8,0.2,0.6,0.4,,,,,,,,,,,,,,,0.133,,0.6,0.4,0.4,0.6,0.6,0.4,0.4,0.6,1,0,,,,,,,,,,,,
,,5ee78cdd0103130133fdb204,66fc981f42b801f3398f5601,2024-10-02_02h47.47.189,mdp,2024.2.1,Win32,144.092219,66fa4ebf79326e780c390304,,,,,,,,,,,,,,,,,,,,,405.449,405.449,405.449,406.171,1,0,right,0.218,,406.172,406.72,0,0,left,406.721,406.721,,0,,1,406.721,406.721,406.721,408.22,0,34,34,34,1,0.8,0.2,0.6,0.4,,,,,,,,,,,,,,,0.042,,0.6,0.4,0.4,0.6,0.6,0.4,0.4,0.6,1,0,,,,,,,,,,,,
,,5ee78cdd0103130133fdb204,66fc981f42b801f3398f5601,2024-10-02_02h47.47.189,mdp,2024.2.1,Win32,144.092219,66fa4ebf79326e780c390304,,,,,,,,,,,,,,,,,,,,,408.22,408.22,408.22,408.963,1,1,right,0.239,,408.963,409.775,0,1,left,409.775,409.776,,1,,0,409.776,409.776,409.776,411.275,0,35,35,35,1,0.8,0.2,0.6,0.4,,,,,,,,,,,,,,,0.297,,0.6,0.4,0.4,0.6,0.6,0.4,0.4,0.6,1,0,,,,,,,,,,,,
,,5ee78cdd0103130133fdb204,66fc981f42b801f3398f5601,2024-10-02_02h47.47.189,mdp,2024.2.1,Win32,144.092219,66fa4ebf79326e780c390304,,,,,,,,,,,,,,,,,,,,,411.275,411.275,411.275,412.331,0,0,left,0.552,,412.332,413.046,0,0,left,413.046,413.047,,0,,1,413.047,413.047,413.047,414.546,0,36,36,36,1,0.6,0.4,0.2,0.8,,,,,,,,,,,,,,,0.209,,0.6,0.4,0.4,0.6,0.6,0.4,0.4,0.6,1,0,,,,,,,,,,,,
,,5ee78cdd0103130133fdb204,66fc981f42b801f3398f5601,2024-10-02_02h47.47.189,mdp,2024.2.1,Win32,144.092219,66fa4ebf79326e780c390304,,,,,,,,,,,,,,,,,,,,,414.547,414.547,414.547,416.102,0,0,left,1.042,,416.103,416.956,0,1,left,416.957,416.957,,0,,0,416.957,416.957,416.957,418.456,0,37,37,37,1,0.6,0.4,0.2,0.8,,,,,,,,,,,,,,,0.351,,0.6,0.4,0.4,0.6,0.6,0.4,0.4,0.6,1,0,,,,,,,,,,,,
,,5ee78cdd0103130133fdb204,66fc981f42b801f3398f5601,2024-10-02_02h47.47.189,mdp,2024.2.1,Win32,144.092219,66fa4ebf79326e780c390304,,,,,,,,,,,,,,,,,,,,,418.456,418.456,418.456,420.067,1,1,right,1.109,,420.068,420.789,0,0,left,420.789,420.79,,0,,1,420.79,420.79,420.79,422.29,0,38,38,38,1,0.8,0.2,0.4,0.6,,,,,,,,,,,,,,,0.216,,0.6,0.4,0.4,0.6,0.6,0.4,0.4,0.6,1,0,,,,,,,,,,,,
,,5ee78cdd0103130133fdb204,66fc981f42b801f3398f5601,2024-10-02_02h47.47.189,mdp,2024.2.1,Win32,144.092219,66fa4ebf79326e780c390304,,,,,,,,,,,,,,,,,,,,,422.29,422.29,422.29,423.053,1,1,right,0.251,,423.054,423.671,1,1,right,423.671,423.672,,0,,0,423.672,423.672,423.673,425.171,0,39,39,39,1,0.8,0.2,0.4,0.6,,,,,,,,,,,,,,,0.112,,0.4,0.6,0.2,0.8,0.6,0.4,0.4,0.6,1,0,,,,,,,,,,,,
,,5ee78cdd0103130133fdb204,66fc981f42b801f3398f5601,2024-10-02_02h47.47.189,mdp,2024.2.1,Win32,144.092219,66fa4ebf79326e780c390304,,,,,,,,,,,,,,,,,,,,,425.172,425.172,425.172,425.796,1,0,right,0.12,,425.797,426.588,0,1,left,426.589,426.589,,1,,0,426.589,426.589,426.589,428.088,0,40,40,40,1,0.4,0.6,0.6,0.4,,,,,,,,,,,,,,,0.287,,0.4,0.6,0.2,0.8,0.6,0.4,0.4,0.6,1,0,,,,,,,,,,,,
,,5ee78cdd0103130133fdb204,66fc981f42b801f3398f5601,2024-10-02_02h47.47.189,mdp,2024.2.1,Win32,144.092219,66fa4ebf79326e780c390304,,,,,,,,,,,,,,,,,,,,,428.089,428.089,428.089,428.63,0,0,left,0.029,,428.632,429.186,0,1,left,429.186,429.186,,1,,0,429.186,429.186,429.186,430.685,0,41,41,41,1,0.4,0.6,0.6,0.4,,,,,,,,,,,,,,,0.042,,0.4,0.6,0.2,0.8,0.6,0.4,0.4,0.6,1,0,,,,,,,,,,,,
,,5ee78cdd0103130133fdb204,66fc981f42b801f3398f5601,2024-10-02_02h47.47.189,mdp,2024.2.1,Win32,144.092219,66fa4ebf79326e780c390304,,,,,,,,,,,,,,,,,,,,,430.685,430.685,430.686,431.407,0,0,left,0.216,,431.408,432.005,0,1,left,432.005,432.006,,1,,0,432.006,432.006,432.006,433.504,0,42,42,42,1,0.4,0.6,0.6,0.4,,,,,,,,,,,,,,,0.085,,0.4,0.6,0.2,0.8,0.6,0.4,0.4,0.6,1,0,,,,,,,,,,,,
,,5ee78cdd0103130133fdb204,66fc981f42b801f3398f5601,2024-10-02_02h47.47.189,mdp,2024.2.1,Win32,144.092219,66fa4ebf79326e780c390304,,,,,,,,,,,,,,,,,,,,,433.505,433.505,433.505,434.255,0,1,left,0.243,,434.256,435.268,0,0,left,435.269,435.269,,1,,1,435.27,435.27,435.27,436.768,0,43,43,43,1,0.4,0.6,0.6,0.4,,,,,,,,,,,,,,,0.501,,0.4,0.6,0.2,0.8,0.6,0.4,0.4,0.6,1,0,,,,,,,,,,,,
,,5ee78cdd0103130133fdb204,66fc981f42b801f3398f5601,2024-10-02_02h47.47.189,mdp,2024.2.1,Win32,144.092219,66fa4ebf79326e780c390304,,,,,,,,,,,,,,,,,,,,,436.769,436.769,436.769,437.539,0,1,left,0.266,,437.539,438.665,0,0,left,438.666,438.666,,0,,1,438.666,438.666,438.666,440.164,0,44,44,44,1,0.4,0.6,0.6,0.4,,,,,,,,,,,,,,,0.619,,0.4,0.6,0.2,0.8,0.6,0.4,0.4,0.6,1,0,,,,,,,,,,,,
,,5ee78cdd0103130133fdb204,66fc981f42b801f3398f5601,2024-10-02_02h47.47.189,mdp,2024.2.1,Win32,144.092219,66fa4ebf79326e780c390304,,,,,,,,,,,,,,,,,,,,,440.165,440.165,440.165,440.928,0,0,left,0.258,,440.929,441.574,1,1,right,441.575,441.575,,1,,0,441.575,441.575,441.576,443.075,0,45,45,45,1,0.4,0.6,0.6,0.4,,,,,,,,,,,,,,,0.139,,0.4,0.6,0.2,0.8,0.6,0.4,0.4,0.6,1,0,,,,,,,,,,,,
,,5ee78cdd0103130133fdb204,66fc981f42b801f3398f5601,2024-10-02_02h47.47.189,mdp,2024.2.1,Win32,144.092219,66fa4ebf79326e780c390304,,,,,,,,,,,,,,,,,,,,,443.075,443.075,443.075,443.914,0,1,left,0.33,,443.915,444.852,0,0,left,444.852,444.853,,0,,1,444.853,444.853,444.853,446.352,0,46,46,46,1,0.4,0.6,0.6,0.4,,,,,,,,,,,,,,,0.432,,0.4,0.6,0.2,0.8,0.8,0.2,0.6,0.4,1,0,,,,,,,,,,,,
,,5ee78cdd0103130133fdb204,66fc981f42b801f3398f5601,2024-10-02_02h47.47.189,mdp,2024.2.1,Win32,144.092219,66fa4ebf79326e780c390304,,,,,,,,,,,,,,,,,,,,,446.352,446.352,446.352,447.165,0,0,left,0.307,,447.165,447.901,1,1,right,447.901,447.902,,0,,0,447.902,447.902,447.902,449.4,0,47,47,47,1,0.4,0.6,0.6,0.4,,,,,,,,,,,,,,,0.223,,0.4,0.6,0.2,0.8,0.8,0.2,0.6,0.4,1,0,,,,,,,,,,,,
,,5ee78cdd0103130133fdb204,66fc981f42b801f3398f5601,2024-10-02_02h47.47.189,mdp,2024.2.1,Win32,144.092219,66fa4ebf79326e780c390304,,,,,,,,,,,,,,,,,,,,,449.4,449.4,449.401,450.213,1,1,right,0.307,,450.214,450.859,0,0,left,450.859,450.859,,0,,1,450.859,450.859,450.86,452.359,0,48,48,48,1,0.8,0.2,0.4,0.6,,,,,,,,,,,,,,,0.141,,0.4,0.6,0.2,0.8,0.8,0.2,0.6,0.4,1,0,,,,,,,,,,,,
,,5ee78cdd0103130133fdb204,66fc981f42b801f3398f5601,2024-10-02_02h47.47.189,mdp,2024.2.1,Win32,144.092219,66fa4ebf79326e780c390304,,,,,,,,,,,,,,,,,,,,,452.359,452.359,452.36,453.109,1,1,right,0.245,,453.109,453.928,0,0,left,453.928,453.929,,0,,1,453.929,453.929,453.929,455.428,0,49,49,49,1,0.8,0.2,0.4,0.6,,,,,,,,,,,,,,,0.313,,0.4,0.6,0.2,0.8,0.8,0.2,0.6,0.4,1,0,,,,,,,,,,,,
,,5ee78cdd0103130133fdb204,66fc981f42b801f3398f5601,2024-10-02_02h47.47.189,mdp,2024.2.1,Win32,144.092219,66fa4ebf79326e780c390304,,,,,,,,,,,,,,,,,,,,,,,,,,,,,,,,,,,,,,,,,,,,,,,,,,,,,,,,455.428,513.936,0,1,1,5,1,imgs/kangaroo.png,imgs/lion.png,imgs/giraffe.png,imgs/pig.png,imgs/rabbit.png,,,,,,,,,,,,,,,,,,,,,,,,
,,5ee78cdd0103130133fdb204,66fc981f42b801f3398f5601,2024-10-02_02h47.47.189,mdp,2024.2.1,Win32,144.092219,66fa4ebf79326e780c390304,,,,,,,,,,,,,,3,seqs/st3seq37.csv,513.938,518.221,space,3.306,,518.224,518.224,518.224,519.068,0,0,left,0.333,,519.068,519.943,1,1,right,519.945,520.679,0,1,left,0,520.679,520.679,520.68,522.179,0,0,0,0,1,0.8,0.2,0.2,0.8,,,,,,,,,,,,,,,0.366,,0.6,0.4,0.8,0.2,0.4,0.6,0.8,0.2,,,0.226,,0.6,0.4,0.8,0.2,0.2,0.8,0.2,0.8,1,0
,,5ee78cdd0103130133fdb204,66fc981f42b801f3398f5601,2024-10-02_02h47.47.189,mdp,2024.2.1,Win32,144.092219,66fa4ebf79326e780c390304,,,,,,,,,,,,,,,,,,,,,522.18,522.18,522.18,522.831,0,1,left,0.141,,522.833,523.38,1,1,right,523.381,523.964,0,1,left,0,523.964,523.964,523.964,525.464,0,1,1,1,1,0.8,0.2,0.2,0.8,,,,,,,,,,,,,,,0.04,,0.6,0.4,0.8,0.2,0.4,0.6,0.8,0.2,,,0.071,,0.6,0.4,0.8,0.2,0.2,0.8,0.2,0.8,1,0
,,5ee78cdd0103130133fdb204,66fc981f42b801f3398f5601,2024-10-02_02h47.47.189,mdp,2024.2.1,Win32,144.092219,66fa4ebf79326e780c390304,,,,,,,,,,,,,,,,,,,,,525.464,525.464,525.464,526.2,0,0,left,0.229,,526.2,527.005,1,1,right,527.006,527.63,1,0,right,1,527.63,527.63,527.63,529.131,0,2,2,2,1,0.8,0.2,0.2,0.8,,,,,,,,,,,,,,,0.299,,0.6,0.4,0.8,0.2,0.4,0.6,0.8,0.2,,,0.117,,0.6,0.4,0.8,0.2,0.2,0.8,0.2,0.8,1,0
,,5ee78cdd0103130133fdb204,66fc981f42b801f3398f5601,2024-10-02_02h47.47.189,mdp,2024.2.1,Win32,144.092219,66fa4ebf79326e780c390304,,,,,,,,,,,,,,,,,,,,,529.131,529.131,529.131,529.908,1,1,right,0.265,,529.909,530.429,1,1,right,530.43,530.942,1,1,right,0,530.942,530.942,530.943,532.443,0,3,3,3,1,0.8,0.2,0.2,0.8,,,,,,,,,,,,,,,0.013,,0.6,0.4,0.8,0.2,0.4,0.6,0.8,0.2,,,0.006,,0.6,0.4,0.8,0.2,0.2,0.8,0.2,0.8,1,0
,,5ee78cdd0103130133fdb204,66fc981f42b801f3398f5601,2024-10-02_02h47.47.189,mdp,2024.2.1,Win32,144.092219,66fa4ebf79326e780c390304,,,,,,,,,,,,,,,,,,,,,532.443,532.443,532.444,533.165,1,1,right,0.216,,533.166,533.693,0,0,left,533.693,534.533,1,0,right,1,534.533,534.533,534.534,536.033,0,4,4,4,1,0.8,0.2,0.2,0.8,,,,,,,,,,,,,,,0.021,,0.6,0.4,0.8,0.2,0.4,0.6,0.8,0.2,,,0.331,,0.6,0.4,0.8,0.2,0.2,0.8,0.2,0.8,1,0
,,5ee78cdd0103130133fdb204,66fc981f42b801f3398f5601,2024-10-02_02h47.47.189,mdp,2024.2.1,Win32,144.092219,66fa4ebf79326e780c390304,,,,,,,,,,,,,,,,,,,,,536.033,536.033,536.034,536.797,1,1,right,0.256,,536.797,537.429,0,1,left,537.43,537.97,1,1,right,0,537.97,537.97,537.972,539.47,0,5,5,5,1,0.8,0.2,0.2,0.8,,,,,,,,,,,,,,,0.125,,0.6,0.4,0.8,0.2,0.4,0.6,0.8,0.2,,,0.037,,0.6,0.4,0.8,0.2,0.2,0.8,0.2,0.8,1,0
,,5ee78cdd0103130133fdb204,66fc981f42b801f3398f5601,2024-10-02_02h47.47.189,mdp,2024.2.1,Win32,144.092219,66fa4ebf79326e780c390304,,,,,,,,,,,,,,,,,,,,,539.471,539.471,539.471,540.186,1,1,right,0.211,,540.186,540.964,0,1,left,540.965,541.741,1,1,right,0,541.741,541.741,541.742,543.242,0,6,6,6,1,0.4,0.6,0.8,0.2,,,,,,,,,,,,,,,0.272,,0.6,0.4,0.8,0.2,0.4,0.6,0.8,0.2,,,0.272,,0.6,0.4,0.8,0.2,0.2,0.8,0.2,0.8,1,0
,,5ee78cdd0103130133fdb204,66fc981f42b801f3398f5601,2024-10-02_02h47.47.189,mdp,2024.2.1,Win32,144.092219,66fa4ebf79326e780c390304,,,,,,,,,,,,,,,,,,,,,543.242,543.242,543.242,544.019,1,0,right,0.265,,544.02,544.742,0,0,left,544.743,545.818,1,0,right,1,545.818,545.818,545.818,547.318,0,7,7,7,1,0.4,0.6,0.8,0.2,,,,,,,,,,,,,,,0.215,,0.8,0.2,0.2,0.8,0.4,0.6,0.8,0.2,,,0.566,,0.6,0.4,0.8,0.2,0.2,0.8,0.2,0.8,1,0
,,5ee78cdd0103130133fdb204,66fc981f42b801f3398f5601,2024-10-02_02h47.47.189,mdp,2024.2.1,Win32,144.092219,66fa4ebf79326e780c390304,,,,,,,,,,,,,,,,,,,,,547.319,547.319,547.319,548.116,1,0,right,0.286,,548.117,549.054,1,0,right,549.054,549.831,0,0,left,1,549.831,549.831,549.832,551.332,0,8,8,8,1,0.4,0.6,0.8,0.2,,,,,,,,,,,,,,,0.431,,0.8,0.2,0.2,0.8,0.4,0.6,0.8,0.2,,,0.272,,0.6,0.4,0.8,0.2,0.2,0.8,0.2,0.8,1,0
,,5ee78cdd0103130133fdb204,66fc981f42b801f3398f5601,2024-10-02_02h47.47.189,mdp,2024.2.1,Win32,144.092219,66fa4ebf79326e780c390304,,,,,,,,,,,,,,,,,,,,,551.332,551.332,551.332,552.047,1,0,right,0.208,,552.047,552.589,0,0,left,552.589,553.381,1,0,right,1,553.381,553.381,553.383,554.881,0,9,9,9,1,0.4,0.6,0.8,0.2,,,,,,,,,,,,,,,0.035,,0.8,0.2,0.2,0.8,0.4,0.6,0.8,0.2,,,0.284,,0.6,0.4,0.8,0.2,0.2,0.8,0.2,0.8,1,0
,,5ee78cdd0103130133fdb204,66fc981f42b801f3398f5601,2024-10-02_02h47.47.189,mdp,2024.2.1,Win32,144.092219,66fa4ebf79326e780c390304,,,,,,,,,,,,,,,,,,,,,554.881,554.881,554.882,555.582,0,1,left,0.188,,555.582,556.158,1,0,right,556.159,556.714,0,1,left,0,556.714,556.714,556.714,558.214,0,10,10,10,1,0.4,0.6,0.8,0.2,,,,,,,,,,,,,,,0.07,,0.2,0.8,0.4,0.6,0.4,0.6,0.8,0.2,,,0.045,,0.6,0.4,0.8,0.2,0.2,0.8,0.2,0.8,1,0
,,5ee78cdd0103130133fdb204,66fc981f42b801f3398f5601,2024-10-02_02h47.47.189,mdp,2024.2.1,Win32,144.092219,66fa4ebf79326e780c390304,,,,,,,,,,,,,,,,,,,,,558.214,558.214,558.214,558.839,0,0,left,0.117,,558.839,559.381,1,0,right,559.381,559.908,1,0,right,1,559.908,559.908,559.908,561.409,0,11,11,11,1,0.4,0.6,0.8,0.2,,,,,,,,,,,,,,,0.029,,0.2,0.8,0.4,0.6,0.4,0.6,0.8,0.2,,,0.021,,0.6,0.4,0.8,0.2,0.2,0.8,0.2,0.8,1,0
,,5ee78cdd0103130133fdb204,66fc981f42b801f3398f5601,2024-10-02_02h47.47.189,mdp,2024.2.1,Win32,144.092219,66fa4ebf79326e780c390304,,,,,,,,,,,,,,,,,,,,,561.409,561.409,561.409,562.13,0,1,left,0.211,,562.131,562.686,1,0,right,562.686,563.256,1,0,right,1,563.256,563.256,563.256,564.755,0,12,12,12,1,0.4,0.6,0.8,0.2,,,,,,,,,,,,,,,0.048,,0.2,0.8,0.4,0.6,0.4,0.6,0.8,0.2,,,0.062,,0.6,0.4,0.8,0.2,0.2,0.8,0.2,0.8,1,0
,,5ee78cdd0103130133fdb204,66fc981f42b801f3398f5601,2024-10-02_02h47.47.189,mdp,2024.2.1,Win32,144.092219,66fa4ebf79326e780c390304,,,,,,,,,,,,,,,,,,,,,564.756,564.756,564.756,565.415,0,0,left,0.153,,565.415,565.922,1,1,right,565.922,566.533,0,1,left,0,566.533,566.533,566.534,568.033,0,13,13,13,1,0.4,0.6,0.8,0.2,,,,,,,,,,,,,,,0.003,,0.2,0.8,0.4,0.6,0.4,0.6,0.8,0.2,,,0.103,,0.6,0.4,0.8,0.2,0.6,0.4,0.6,0.4,1,0
,,5ee78cdd0103130133fdb204,66fc981f42b801f3398f5601,2024-10-02_02h47.47.189,mdp,2024.2.1,Win32,144.092219,66fa4ebf79326e780c390304,,,,,,,,,,,,,,,,,,,,,568.033,568.033,568.034,568.742,1,0,right,0.194,,568.742,569.27,0,1,left,569.27,569.824,0,1,left,0,569.825,569.825,569.825,571.325,0,14,14,14,1,0.4,0.6,0.8,0.2,,,,,,,,,,,,,,,0.014,,0.2,0.8,0.4,0.6,0.4,0.6,0.8,0.2,,,0.044,,0.6,0.4,0.8,0.2,0.6,0.4,0.6,0.4,1,0
,,5ee78cdd0103130133fdb204,66fc981f42b801f3398f5601,2024-10-02_02h47.47.189,mdp,2024.2.1,Win32,144.092219,66fa4ebf79326e780c390304,,,,,,,,,,,,,,,,,,,,,571.325,571.325,571.325,572.026,0,1,left,0.195,,572.027,572.575,1,0,right,572.575,573.103,1,0,right,1,573.103,573.103,573.103,574.602,0,15,15,15,1,0.4,0.6,0.8,0.2,,,,,,,,,,,,,,,0.041,,0.2,0.8,0.4,0.6,0.4,0.6,0.8,0.2,,,0.02,,0.6,0.4,0.8,0.2,0.6,0.4,0.6,0.4,1,0
,,5ee78cdd0103130133fdb204,66fc981f42b801f3398f5601,2024-10-02_02h47.47.189,mdp,2024.2.1,Win32,144.092219,66fa4ebf79326e780c390304,,,,,,,,,,,,,,,,,,,,,574.603,574.603,574.603,575.179,0,1,left,0.071,,575.179,575.741,1,0,right,575.743,576.277,1,0,right,1,576.277,576.277,576.277,577.776,0,16,16,16,1,0.4,0.6,0.8,0.2,,,,,,,,,,,,,,,0.055,,0.2,0.8,0.4,0.6,0.4,0.6,0.8,0.2,,,0.029,,0.6,0.4,0.8,0.2,0.6,0.4,0.6,0.4,1,0
,,5ee78cdd0103130133fdb204,66fc981f42b801f3398f5601,2024-10-02_02h47.47.189,mdp,2024.2.1,Win32,144.092219,66fa4ebf79326e780c390304,,,,,,,,,,,,,,,,,,,,,577.776,577.776,577.777,578.478,0,0,left,0.196,,578.478,578.999,1,0,right,578.999,579.533,1,0,right,1,579.533,579.533,579.533,581.033,0,17,17,17,1,0.4,0.6,0.8,0.2,,,,,,,,,,,,,,,0.014,,0.2,0.8,0.4,0.6,0.4,0.6,0.8,0.2,,,0.022,,0.6,0.4,0.8,0.2,0.6,0.4,0.6,0.4,1,0
,,5ee78cdd0103130133fdb204,66fc981f42b801f3398f5601,2024-10-02_02h47.47.189,mdp,2024.2.1,Win32,144.092219,66fa4ebf79326e780c390304,,,,,,,,,,,,,,,,,,,,,581.033,581.033,581.034,581.72,0,1,left,0.183,,581.722,582.228,1,0,right,582.228,582.944,1,1,right,0,582.944,582.944,582.944,584.443,0,18,18,18,1,0.4,0.6,0.8,0.2,,,,,,,,,,,,,,,0,,0.2,0.8,0.4,0.6,0.4,0.6,0.8,0.2,,,0.202,,0.2,0.8,0.6,0.4,0.6,0.4,0.6,0.4,1,0
,,5ee78cdd0103130133fdb204,66fc981f42b801f3398f5601,2024-10-02_02h47.47.189,mdp,2024.2.1,Win32,144.092219,66fa4ebf79326e780c390304,,,,,,,,,,,,,,,,,,,,,584.443,584.443,584.444,585.172,1,0,right,0.222,,585.172,585.763,0,1,left,585.763,586.291,0,1,left,0,586.291,586.291,586.291,587.79,0,19,19,19,1,0.4,0.6,0.8,0.2,,,,,,,,,,,,,,,0.084,,0.2,0.8,0.4,0.6,0.4,0.6,0.8,0.2,,,0.016,,0.2,0.8,0.6,0.4,0.6,0.4,0.6,0.4,1,0
,,5ee78cdd0103130133fdb204,66fc981f42b801f3398f5601,2024-10-02_02h47.47.189,mdp,2024.2.1,Win32,144.092219,66fa4ebf79326e780c390304,,,,,,,,,,,,,,,,,,,,,587.791,587.791,587.793,588.506,0,1,left,0.204,,588.506,589.027,1,0,right,589.027,589.631,1,1,right,0,589.631,589.631,589.631,591.13,0,20,20,20,1,0.4,0.6,0.8,0.2,,,,,,,,,,,,,,,0.016,,0.2,0.8,0.4,0.6,0.4,0.6,0.8,0.2,,,0.09,,0.2,0.8,0.6,0.4,0.6,0.4,0.6,0.4,1,0
,,5ee78cdd0103130133fdb204,66fc981f42b801f3398f5601,2024-10-02_02h47.47.189,mdp,2024.2.1,Win32,144.092219,66fa4ebf79326e780c390304,,,,,,,,,,,,,,,,,,,,,591.131,591.131,591.131,591.79,1,0,right,0.153,,591.791,592.346,0,1,left,592.347,592.894,1,0,right,1,592.894,592.894,592.895,594.395,0,21,21,21,1,0.4,0.6,0.8,0.2,,,,,,,,,,,,,,,0.051,,0.2,0.8,0.4,0.6,0.4,0.6,0.8,0.2,,,0.042,,0.2,0.8,0.6,0.4,0.6,0.4,0.6,0.4,1,0
,,5ee78cdd0103130133fdb204,66fc981f42b801f3398f5601,2024-10-02_02h47.47.189,mdp,2024.2.1,Win32,144.092219,66fa4ebf79326e780c390304,,,,,,,,,,,,,,,,,,,,,594.395,594.395,594.395,595.124,0,0,left,0.216,,595.124,595.714,0,1,left,595.714,596.277,1,0,right,1,596.277,596.277,596.277,597.776,0,22,22,22,1,0.4,0.6,0.8,0.2,,,,,,,,,,,,,,,0.085,,0.2,0.8,0.4,0.6,0.4,0.6,0.8,0.2,,,0.055,,0.2,0.8,0.6,0.4,0.6,0.4,0.6,0.4,1,0
,,5ee78cdd0103130133fdb204,66fc981f42b801f3398f5601,2024-10-02_02h47.47.189,mdp,2024.2.1,Win32,144.092219,66fa4ebf79326e780c390304,,,,,,,,,,,,,,,,,,,,,597.776,597.776,597.777,598.471,0,1,left,0.188,,598.471,599.061,1,0,right,599.062,599.735,1,0,right,1,599.735,599.735,599.736,601.235,0,23,23,23,1,0.4,0.6,0.8,0.2,,,,,,,,,,,,,,,0.083,,0.2,0.8,0.4,0.6,0.4,0.6,0.8,0.2,,,0.167,,0.2,0.8,0.6,0.4,0.2,0.8,0.4,0.6,1,0
,,5ee78cdd0103130133fdb204,66fc981f42b801f3398f5601,2024-10-02_02h47.47.189,mdp,2024.2.1,Win32,144.092219,66fa4ebf79326e780c390304,,,,,,,,,,,,,,,,,,,,,601.235,601.235,601.235,601.853,0,1,left,0.111,,601.854,602.409,1,1,right,602.409,602.971,1,0,right,1,602.971,602.971,602.972,604.471,0,24,24,24,1,0.4,0.6,0.8,0.2,,,,,,,,,,,,,,,0.052,,0.2,0.8,0.4,0.6,0.4,0.6,0.8,0.2,,,0.05,,0.2,0.8,0.6,0.4,0.2,0.8,0.4,0.6,1,0
,,5ee78cdd0103130133fdb204,66fc981f42b801f3398f5601,2024-10-02_02h47.47.189,mdp,2024.2.1,Win32,144.092219,66fa4ebf79326e780c390304,,,,,,,,,,,,,,,,,,,,,604.472,604.472,604.472,605.193,1,0,right,0.211,,605.193,605.777,0,1,left,605.777,606.346,1,0,right,1,606.346,606.346,606.346,607.846,0,25,25,25,1,0.4,0.6,0.8,0.2,,,,,,,,,,,,,,,0.08,,0.2,0.8,0.4,0.6,0.6,0.4,0.4,0.6,,,0.058,,0.2,0.8,0.6,0.4,0.2,0.8,0.4,0.6,1,0
,,5ee78cdd0103130133fdb204,66fc981f42b801f3398f5601,2024-10-02_02h47.47.189,mdp,2024.2.1,Win32,144.092219,66fa4ebf79326e780c390304,,,,,,,,,,,,,,,,,,,,,607.847,607.847,607.847,608.499,1,0,right,0.14,,608.499,609.054,0,0,left,609.054,609.575,1,0,right,1,609.575,609.575,609.576,611.075,0,26,26,26,1,0.4,0.6,0.8,0.2,,,,,,,,,,,,,,,0.05,,0.2,0.8,0.4,0.6,0.6,0.4,0.4,0.6,,,0.014,,0.2,0.8,0.6,0.4,0.2,0.8,0.4,0.6,1,0
,,5ee78cdd0103130133fdb204,66fc981f42b801f3398f5601,2024-10-02_02h47.47.189,mdp,2024.2.1,Win32,144.092219,66fa4ebf79326e780c390304,,,,,,,,,,,,,,,,,,,,,611.075,611.075,611.075,611.686,0,0,left,0.105,,611.687,612.269,1,0,right,612.27,612.929,1,1,right,0,612.929,612.929,612.93,614.43,0,27,27,27,1,0.4,0.6,0.8,0.2,,,,,,,,,,,,,,,0.076,,0.2,0.8,0.4,0.6,0.6,0.4,0.4,0.6,,,0.155,,0.2,0.8,0.6,0.4,0.2,0.8,0.4,0.6,1,0
,,5ee78cdd0103130133fdb204,66fc981f42b801f3398f5601,2024-10-02_02h47.47.189,mdp,2024.2.1,Win32,144.092219,66fa4ebf79326e780c390304,,,,,,,,,,,,,,,,,,,,,614.43,614.43,614.43,615.138,0,1,left,0.198,,615.139,615.819,1,0,right,615.819,616.353,1,0,right,1,616.353,616.353,616.354,617.853,0,28,28,28,1,0.4,0.6,0.8,0.2,,,,,,,,,,,,,,,0.175,,0.2,0.8,0.4,0.6,0.6,0.4,0.4,0.6,,,0.023,,0.2,0.8,0.6,0.4,0.2,0.8,0.4,0.6,1,0
,,5ee78cdd0103130133fdb204,66fc981f42b801f3398f5601,2024-10-02_02h47.47.189,mdp,2024.2.1,Win32,144.092219,66fa4ebf79326e780c390304,,,,,,,,,,,,,,,,,,,,,617.853,617.853,617.854,618.478,0,0,left,0.118,,618.478,618.999,0,0,left,618.999,619.555,1,0,right,1,619.555,619.555,619.555,621.055,0,29,29,29,1,0.4,0.6,0.8,0.2,,,,,,,,,,,,,,,0.014,,0.2,0.8,0.4,0.6,0.6,0.4,0.4,0.6,,,0.05,,0.2,0.8,0.6,0.4,0.2,0.8,0.4,0.6,1,0
,,5ee78cdd0103130133fdb204,66fc981f42b801f3398f5601,2024-10-02_02h47.47.189,mdp,2024.2.1,Win32,144.092219,66fa4ebf79326e780c390304,,,,,,,,,,,,,,,,,,,,,621.056,621.056,621.057,621.61,1,1,right,0.044,,621.611,622.138,0,0,left,622.138,622.694,0,1,left,0,622.694,622.694,622.694,624.194,0,30,30,30,1,0.2,0.8,0.6,0.4,,,,,,,,,,,,,,,0.023,,0.2,0.8,0.4,0.6,0.6,0.4,0.4,0.6,,,0.049,,0.2,0.8,0.6,0.4,0.2,0.8,0.4,0.6,1,0
,,5ee78cdd0103130133fdb204,66fc981f42b801f3398f5601,2024-10-02_02h47.47.189,mdp,2024.2.1,Win32,144.092219,66fa4ebf79326e780c390304,,,,,,,,,,,,,,,,,,,,,624.194,624.194,624.195,624.791,0,1,left,0.084,,624.791,625.346,0,0,left,625.347,625.916,0,1,left,0,625.916,625.916,625.916,627.415,0,31,31,31,1,0.2,0.8,0.6,0.4,,,,,,,,,,,,,,,0.05,,0.2,0.8,0.4,0.6,0.6,0.4,0.4,0.6,,,0.062,,0.2,0.8,0.6,0.4,0.2,0.8,0.4,0.6,1,0
,,5ee78cdd0103130133fdb204,66fc981f42b801f3398f5601,2024-10-02_02h47.47.189,mdp,2024.2.1,Win32,144.092219,66fa4ebf79326e780c390304,,,,,,,,,,,,,,,,,,,,,627.416,627.416,627.417,628.145,0,0,left,0.226,,628.145,628.707,1,0,right,628.708,629.319,1,0,right,1,629.319,629.319,629.319,630.819,0,32,32,32,1,0.2,0.8,0.6,0.4,,,,,,,,,,,,,,,0.048,,0.2,0.8,0.4,0.6,0.6,0.4,0.4,0.6,,,0.104,,0.2,0.8,0.6,0.4,0.2,0.8,0.4,0.6,1,0
,,5ee78cdd0103130133fdb204,66fc981f42b801f3398f5601,2024-10-02_02h47.47.189,mdp,2024.2.1,Win32,144.092219,66fa4ebf79326e780c390304,,,,,,,,,,,,,,,,,,,,,630.819,630.819,630.819,631.526,0,0,left,0.201,,631.527,632.388,1,1,right,632.388,632.979,1,1,right,0,632.979,632.979,632.979,634.478,0,33,33,33,1,0.2,0.8,0.6,0.4,,,,,,,,,,,,,,,0.354,,0.2,0.8,0.4,0.6,0.6,0.4,0.4,0.6,,,0.076,,0.2,0.8,0.6,0.4,0.6,0.4,0.2,0.8,1,0
,,5ee78cdd0103130133fdb204,66fc981f42b801f3398f5601,2024-10-02_02h47.47.189,mdp,2024.2.1,Win32,144.092219,66fa4ebf79326e780c390304,,,,,,,,,,,,,,,,,,,,,634.478,634.478,634.479,635.215,0,1,left,0.23,,635.216,635.777,1,1,right,635.777,636.319,1,0,right,1,636.319,636.319,636.319,637.818,0,34,34,34,1,0.2,0.8,0.6,0.4,,,,,,,,,,,,,,,0.05,,0.2,0.8,0.4,0.6,0.6,0.4,0.4,0.6,,,0.035,,0.2,0.8,0.6,0.4,0.6,0.4,0.2,0.8,1,0
,,5ee78cdd0103130133fdb204,66fc981f42b801f3398f5601,2024-10-02_02h47.47.189,mdp,2024.2.1,Win32,144.092219,66fa4ebf79326e780c390304,,,,,,,,,,,,,,,,,,,,,637.819,637.819,637.819,638.444,0,0,left,0.118,,638.444,638.964,0,1,left,638.965,639.506,1,0,right,1,639.506,639.506,639.506,641.006,0,35,35,35,1,0.2,0.8,0.6,0.4,,,,,,,,,,,,,,,0.007,,0.2,0.8,0.4,0.6,0.6,0.4,0.4,0.6,,,0.036,,0.2,0.8,0.6,0.4,0.6,0.4,0.2,0.8,1,0
,,5ee78cdd0103130133fdb204,66fc981f42b801f3398f5601,2024-10-02_02h47.47.189,mdp,2024.2.1,Win32,144.092219,66fa4ebf79326e780c390304,,,,,,,,,,,,,,,,,,,,,641.007,641.007,641.007,641.777,1,1,right,0.26,,641.778,642.305,0,1,left,642.305,642.972,1,0,right,1,642.972,642.972,642.972,644.471,0,36,36,36,1,0.2,0.8,0.6,0.4,,,,,,,,,,,,,,,0.024,,0.2,0.8,0.4,0.6,0.6,0.4,0.4,0.6,,,0.16,,0.2,0.8,0.6,0.4,0.6,0.4,0.2,0.8,1,0
,,5ee78cdd0103130133fdb204,66fc981f42b801f3398f5601,2024-10-02_02h47.47.189,mdp,2024.2.1,Win32,144.092219,66fa4ebf79326e780c390304,,,,,,,,,,,,,,,,,,,,,644.471,644.471,644.472,645.027,1,1,right,0.049,,645.027,645.59,0,0,left,645.59,646.179,0,1,left,0,646.179,646.179,646.18,647.679,0,37,37,37,1,0.2,0.8,0.6,0.4,,,,,,,,,,,,,,,0.056,,0.2,0.8,0.4,0.6,0.6,0.4,0.4,0.6,,,0.076,,0.2,0.8,0.6,0.4,0.6,0.4,0.2,0.8,1,0
,,5ee78cdd0103130133fdb204,66fc981f42b801f3398f5601,2024-10-02_02h47.47.189,mdp,2024.2.1,Win32,144.092219,66fa4ebf79326e780c390304,,,,,,,,,,,,,,,,,,,,,647.68,647.68,647.68,648.45,1,0,right,0.264,,648.451,649.138,0,1,left,649.138,650.054,0,1,left,0,650.054,650.054,650.055,651.554,0,38,38,38,1,0.2,0.8,0.6,0.4,,,,,,,,,,,,,,,0.182,,0.2,0.8,0.4,0.6,0.6,0.4,0.4,0.6,,,0.41,,0.2,0.8,0.6,0.4,0.6,0.4,0.2,0.8,1,0
,,5ee78cdd0103130133fdb204,66fc981f42b801f3398f5601,2024-10-02_02h47.47.189,mdp,2024.2.1,Win32,144.092219,66fa4ebf79326e780c390304,,,,,,,,,,,,,,,,,,,,,651.554,651.554,651.555,652.249,1,1,right,0.19,,652.249,652.875,0,0,left,652.875,653.672,1,1,right,0,653.673,653.673,653.674,655.173,0,39,39,39,1,0.2,0.8,0.6,0.4,,,,,,,,,,,,,,,0.12,,0.2,0.8,0.4,0.6,0.6,0.4,0.4,0.6,,,0.286,,0.2,0.8,0.6,0.4,0.6,0.4,0.2,0.8,1,0
,,5ee78cdd0103130133fdb204,66fc981f42b801f3398f5601,2024-10-02_02h47.47.189,mdp,2024.2.1,Win32,144.092219,66fa4ebf79326e780c390304,,,,,,,,,,,,,,,,,,,,,655.173,655.173,655.174,655.812,1,1,right,0.132,,655.812,656.7,1,1,right,656.701,657.381,1,1,right,0,657.381,657.381,657.381,658.881,0,40,40,40,1,0.2,0.8,0.6,0.4,,,,,,,,,,,,,,,0.382,,0.2,0.8,0.4,0.6,0.6,0.4,0.4,0.6,,,0.173,,0.2,0.8,0.6,0.4,0.6,0.4,0.2,0.8,1,0
,,5ee78cdd0103130133fdb204,66fc981f42b801f3398f5601,2024-10-02_02h47.47.189,mdp,2024.2.1,Win32,144.092219,66fa4ebf79326e780c390304,,,,,,,,,,,,,,,,,,,,,658.881,658.881,658.882,659.617,1,1,right,0.232,,659.618,660.173,0,0,left,660.173,660.729,0,1,left,0,660.729,660.729,660.729,662.229,0,41,41,41,1,0.2,0.8,0.6,0.4,,,,,,,,,,,,,,,0.049,,0.2,0.8,0.4,0.6,0.6,0.4,0.4,0.6,,,0.045,,0.2,0.8,0.6,0.4,0.6,0.4,0.2,0.8,1,0
,,5ee78cdd0103130133fdb204,66fc981f42b801f3398f5601,2024-10-02_02h47.47.189,mdp,2024.2.1,Win32,144.092219,66fa4ebf79326e780c390304,,,,,,,,,,,,,,,,,,,,,662.229,662.229,662.229,662.777,1,0,right,0.037,,662.777,663.354,0,0,left,663.354,664.11,1,1,right,0,664.11,664.11,664.111,665.611,0,42,42,42,1,0.2,0.8,0.6,0.4,,,,,,,,,,,,,,,0.072,,0.2,0.8,0.4,0.6,0.6,0.4,0.4,0.6,,,0.242,,0.8,0.2,0.4,0.6,0.6,0.4,0.2,0.8,1,0
,,5ee78cdd0103130133fdb204,66fc981f42b801f3398f5601,2024-10-02_02h47.47.189,mdp,2024.2.1,Win32,144.092219,66fa4ebf79326e780c390304,,,,,,,,,,,,,,,,,,,,,665.611,665.611,665.611,666.27,1,0,right,0.145,,666.27,666.93,0,1,left,666.93,667.611,1,1,right,0,667.611,667.611,667.611,669.111,0,43,43,43,1,0.2,0.8,0.6,0.4,,,,,,,,,,,,,,,0.155,,0.2,0.8,0.4,0.6,0.6,0.4,0.4,0.6,,,0.174,,0.8,0.2,0.4,0.6,0.6,0.4,0.2,0.8,1,0
,,5ee78cdd0103130133fdb204,66fc981f42b801f3398f5601,2024-10-02_02h47.47.189,mdp,2024.2.1,Win32,144.092219,66fa4ebf79326e780c390304,,,,,,,,,,,,,,,,,,,,,669.111,669.111,669.111,669.867,1,1,right,0.244,,669.868,670.486,1,1,right,670.486,671.034,1,1,right,0,671.034,671.034,671.034,672.534,0,44,44,44,1,0.2,0.8,0.6,0.4,,,,,,,,,,,,,,,0.109,,0.2,0.8,0.4,0.6,0.6,0.4,0.4,0.6,,,0.037,,0.8,0.2,0.4,0.6,0.6,0.4,0.2,0.8,1,0
,,5ee78cdd0103130133fdb204,66fc981f42b801f3398f5601,2024-10-02_02h47.47.189,mdp,2024.2.1,Win32,144.092219,66fa4ebf79326e780c390304,,,,,,,,,,,,,,,,,,,,,672.534,672.534,672.535,673.118,0,1,left,0.076,,673.118,673.673,0,0,left,673.673,674.243,0,0,left,1,674.243,674.243,674.243,675.742,0,45,45,45,1,0.2,0.8,0.6,0.4,,,,,,,,,,,,,,,0.044,,0.2,0.8,0.4,0.6,0.6,0.4,0.4,0.6,,,0.064,,0.8,0.2,0.4,0.6,0.6,0.4,0.2,0.8,1,0
,,5ee78cdd0103130133fdb204,66fc981f42b801f3398f5601,2024-10-02_02h47.47.189,mdp,2024.2.1,Win32,144.092219,66fa4ebf79326e780c390304,,,,,,,,,,,,,,,,,,,,,675.742,675.742,675.743,676.45,0,1,left,0.201,,676.451,677.014,0,0,left,677.014,677.589,0,0,left,1,677.59,677.59,677.59,679.09,0,46,46,46,1,0.2,0.8,0.6,0.4,,,,,,,,,,,,,,,0.056,,0.2,0.8,0.4,0.6,0.6,0.4,0.4,0.6,,,0.061,,0.8,0.2,0.4,0.6,0.6,0.4,0.2,0.8,1,0
,,5ee78cdd0103130133fdb204,66fc981f42b801f3398f5601,2024-10-02_02h47.47.189,mdp,2024.2.1,Win32,144.092219,66fa4ebf79326e780c390304,,,,,,,,,,,,,,,,,,,,,679.09,679.09,679.09,679.722,0,1,left,0.127,,679.722,680.277,1,1,right,680.277,680.833,1,0,right,1,680.833,680.833,680.833,682.332,0,47,47,47,1,0.2,0.8,0.6,0.4,,,,,,,,,,,,,,,0.042,,0.2,0.8,0.4,0.6,0.6,0.4,0.4,0.6,,,0.05,,0.2,0.8,0.6,0.4,0.6,0.4,0.2,0.8,1,0
,,5ee78cdd0103130133fdb204,66fc981f42b801f3398f5601,2024-10-02_02h47.47.189,mdp,2024.2.1,Win32,144.092219,66fa4ebf79326e780c390304,,,,,,,,,,,,,,,,,,,,,682.333,682.333,682.333,682.902,1,1,right,0.062,,682.902,683.436,0,0,left,683.437,683.979,0,1,left,0,683.979,683.979,683.979,685.478,0,48,48,48,1,0.2,0.8,0.6,0.4,,,,,,,,,,,,,,,0.028,,0.2,0.8,0.4,0.6,0.6,0.4,0.4,0.6,,,0.035,,0.2,0.8,0.6,0.4,0.6,0.4,0.2,0.8,1,0
,,5ee78cdd0103130133fdb204,66fc981f42b801f3398f5601,2024-10-02_02h47.47.189,mdp,2024.2.1,Win32,144.092219,66fa4ebf79326e780c390304,,,,,,,,,,,,,,,,,,,,,685.478,685.478,685.479,686.173,0,1,left,0.187,,686.173,686.715,0,1,left,686.717,687.305,0,0,left,1,687.305,687.305,687.305,688.805,0,49,49,49,1,0.2,0.8,0.6,0.4,,,,,,,,,,,,,,,0.028,,0.2,0.8,0.4,0.6,0.6,0.4,0.4,0.6,,,0.085,,0.2,0.8,0.6,0.4,0.6,0.4,0.2,0.8,1,0
,,5ee78cdd0103130133fdb204,66fc981f42b801f3398f5601,2024-10-02_02h47.47.189,mdp,2024.2.1,Win32,144.092219,66fa4ebf79326e780c390304,,,,,,,,,,,,,,,,,,,,,,,,,,,,,,,,,,,,,,,,,,,,,,,,,,,,,,,,688.805,744.095,0,2,2,2,1,imgs/lion.png,imgs/bear.png,imgs/dog.png,imgs/cat.png,imgs/kangaroo.png,,,,,,,,,,,,,,,,,,,,,,,,
,,5ee78cdd0103130133fdb204,66fc981f42b801f3398f5601,2024-10-02_02h47.47.189,mdp,2024.2.1,Win32,144.092219,66fa4ebf79326e780c390304,,,,,,,,,,,,,,3,seqs/st3seq39.csv,744.096,745.916,space,1.313,,745.919,745.919,745.921,746.674,0,1,left,0.244,,746.674,747.278,1,1,right,747.278,747.889,1,0,right,1,747.889,747.889,747.889,749.388,0,0,0,0,1,0.2,0.8,0.6,0.4,,,,,,,,,,,,,,,0.088,,0.2,0.8,0.4,0.6,0.2,0.8,0.6,0.4,,,0.098,,0.2,0.8,0.4,0.6,0.4,0.6,0.6,0.4,1,0
,,5ee78cdd0103130133fdb204,66fc981f42b801f3398f5601,2024-10-02_02h47.47.189,mdp,2024.2.1,Win32,144.092219,66fa4ebf79326e780c390304,,,,,,,,,,,,,,,,,,,,,749.389,749.389,749.39,750.125,0,1,left,0.222,,750.126,750.861,1,0,right,750.861,751.632,1,1,right,0,751.632,751.632,751.632,753.132,0,1,1,1,1,0.2,0.8,0.6,0.4,,,,,,,,,,,,,,,0.23,,0.2,0.8,0.4,0.6,0.2,0.8,0.6,0.4,,,0.264,,0.2,0.8,0.4,0.6,0.4,0.6,0.6,0.4,1,0
,,5ee78cdd0103130133fdb204,66fc981f42b801f3398f5601,2024-10-02_02h47.47.189,mdp,2024.2.1,Win32,144.092219,66fa4ebf79326e780c390304,,,,,,,,,,,,,,,,,,,,,753.132,753.132,753.132,753.84,0,0,left,0.203,,753.841,754.5,1,1,right,754.501,755.319,1,1,right,0,755.32,755.32,755.32,756.819,0,2,2,2,1,0.2,0.8,0.6,0.4,,,,,,,,,,,,,,,0.151,,0.2,0.8,0.4,0.6,0.2,0.8,0.6,0.4,,,0.309,,0.2,0.8,0.4,0.6,0.4,0.6,0.6,0.4,1,0
,,5ee78cdd0103130133fdb204,66fc981f42b801f3398f5601,2024-10-02_02h47.47.189,mdp,2024.2.1,Win32,144.092219,66fa4ebf79326e780c390304,,,,,,,,,,,,,,,,,,,,,756.819,756.819,756.82,757.541,1,0,right,0.215,,757.542,758.132,1,1,right,758.133,758.736,1,1,right,0,758.736,758.736,758.737,760.236,0,3,3,3,1,0.2,0.8,0.6,0.4,,,,,,,,,,,,,,,0.083,,0.2,0.8,0.4,0.6,0.2,0.8,0.6,0.4,,,0.1,,0.2,0.8,0.4,0.6,0.4,0.6,0.6,0.4,1,0
,,5ee78cdd0103130133fdb204,66fc981f42b801f3398f5601,2024-10-02_02h47.47.189,mdp,2024.2.1,Win32,144.092219,66fa4ebf79326e780c390304,,,,,,,,,,,,,,,,,,,,,760.237,760.237,760.237,761.07,0,1,left,0.319,,761.07,761.785,1,0,right,761.785,762.638,1,1,right,0,762.638,762.639,762.639,764.138,0,4,4,4,1,0.2,0.8,0.6,0.4,,,,,,,,,,,,,,,0.203,,0.2,0.8,0.4,0.6,0.2,0.8,0.6,0.4,,,0.342,,0.2,0.8,0.4,0.6,0.4,0.6,0.6,0.4,1,0
,,5ee78cdd0103130133fdb204,66fc981f42b801f3398f5601,2024-10-02_02h47.47.189,mdp,2024.2.1,Win32,144.092219,66fa4ebf79326e780c390304,,,,,,,,,,,,,,,,,,,,,764.139,764.139,764.139,764.868,0,1,left,0.222,,764.868,765.805,1,0,right,765.806,766.639,0,1,left,0,766.639,766.639,766.639,768.139,0,5,5,5,1,0.2,0.8,0.6,0.4,,,,,,,,,,,,,,,0.424,,0.2,0.8,0.4,0.6,0.2,0.8,0.6,0.4,,,0.33,,0.2,0.8,0.4,0.6,0.4,0.6,0.6,0.4,1,0
,,5ee78cdd0103130133fdb204,66fc981f42b801f3398f5601,2024-10-02_02h47.47.189,mdp,2024.2.1,Win32,144.092219,66fa4ebf79326e780c390304,,,,,,,,,,,,,,,,,,,,,768.139,768.139,768.139,768.972,1,0,right,0.326,,768.973,769.819,1,0,right,769.819,770.618,0,0,left,1,770.618,770.618,770.618,772.118,0,6,6,6,1,0.2,0.8,0.6,0.4,,,,,,,,,,,,,,,0.341,,0.2,0.8,0.4,0.6,0.2,0.8,0.6,0.4,,,0.291,,0.2,0.8,0.4,0.6,0.4,0.6,0.6,0.4,1,0
,,5ee78cdd0103130133fdb204,66fc981f42b801f3398f5601,2024-10-02_02h47.47.189,mdp,2024.2.1,Win32,144.092219,66fa4ebf79326e780c390304,,,,,,,,,,,,,,,,,,,,,772.118,772.118,772.119,772.979,1,0,right,0.354,,772.979,773.791,1,1,right,773.792,774.952,1,1,right,0,774.952,774.952,774.952,776.452,0,7,7,7,1,0.2,0.8,0.6,0.4,,,,,,,,,,,,,,,0.308,,0.2,0.8,0.4,0.6,0.2,0.8,0.6,0.4,,,0.655,,0.2,0.8,0.4,0.6,0.4,0.6,0.6,0.4,1,0
,,5ee78cdd0103130133fdb204,66fc981f42b801f3398f5601,2024-10-02_02h47.47.189,mdp,2024.2.1,Win32,144.092219,66fa4ebf79326e780c390304,,,,,,,,,,,,,,,,,,,,,776.452,776.452,776.452,777.188,1,0,right,0.223,,777.188,777.917,1,0,right,777.919,778.771,0,1,left,0,778.771,778.771,778.772,780.271,0,8,8,8,1,0.2,0.8,0.6,0.4,,,,,,,,,,,,,,,0.216,,0.2,0.8,0.4,0.6,0.2,0.8,0.6,0.4,,,0.34,,0.2,0.8,0.4,0.6,0.4,0.6,0.6,0.4,1,0
,,5ee78cdd0103130133fdb204,66fc981f42b801f3398f5601,2024-10-02_02h47.47.189,mdp,2024.2.1,Win32,144.092219,66fa4ebf79326e780c390304,,,,,,,,,,,,,,,,,,,,,780.271,780.271,780.272,780.833,0,1,left,0.051,,780.834,781.368,0,1,left,781.369,781.924,0,1,left,0,781.924,781.924,781.925,783.423,0,9,9,9,1,0.2,0.8,0.6,0.4,,,,,,,,,,,,,,,0.029,,0.6,0.4,0.2,0.8,0.2,0.8,0.6,0.4,,,0.048,,0.2,0.8,0.4,0.6,0.4,0.6,0.6,0.4,1,0
,,5ee78cdd0103130133fdb204,66fc981f42b801f3398f5601,2024-10-02_02h47.47.189,mdp,2024.2.1,Win32,144.092219,66fa4ebf79326e780c390304,,,,,,,,,,,,,,,,,,,,,783.423,783.423,783.425,784.083,0,1,left,0.152,,784.084,784.618,1,0,right,784.619,785.256,0,1,left,0,785.257,785.257,785.258,786.757,0,10,10,10,1,0.2,0.8,0.6,0.4,,,,,,,,,,,,,,,0.02,,0.6,0.4,0.2,0.8,0.2,0.8,0.6,0.4,,,0.126,,0.2,0.8,0.4,0.6,0.4,0.6,0.6,0.4,1,0
,,5ee78cdd0103130133fdb204,66fc981f42b801f3398f5601,2024-10-02_02h47.47.189,mdp,2024.2.1,Win32,144.092219,66fa4ebf79326e780c390304,,,,,,,,,,,,,,,,,,,,,786.757,786.757,786.758,787.479,0,1,left,0.217,,787.479,788.146,0,1,left,788.146,788.729,1,0,right,1,788.729,788.729,788.729,790.229,0,11,11,11,1,0.4,0.6,0.8,0.2,,,,,,,,,,,,,,,0.16,,0.6,0.4,0.2,0.8,0.2,0.8,0.6,0.4,,,0.077,,0.2,0.8,0.4,0.6,0.4,0.6,0.6,0.4,1,0
,,5ee78cdd0103130133fdb204,66fc981f42b801f3398f5601,2024-10-02_02h47.47.189,mdp,2024.2.1,Win32,144.092219,66fa4ebf79326e780c390304,,,,,,,,,,,,,,,,,,,,,790.229,790.229,790.229,790.8,0,0,left,0.066,,790.801,791.375,1,1,right,791.375,792.028,1,0,right,1,792.028,792.028,792.028,793.527,0,12,12,12,1,0.4,0.6,0.8,0.2,,,,,,,,,,,,,,,0.066,,0.6,0.4,0.2,0.8,0.2,0.8,0.6,0.4,,,0.146,,0.2,0.8,0.4,0.6,0.4,0.6,0.6,0.4,1,0
,,5ee78cdd0103130133fdb204,66fc981f42b801f3398f5601,2024-10-02_02h47.47.189,mdp,2024.2.1,Win32,144.092219,66fa4ebf79326e780c390304,,,,,,,,,,,,,,,,,,,,,793.528,793.528,793.528,794.187,0,0,left,0.152,,794.188,794.77,1,0,right,794.771,795.347,1,0,right,1,795.347,795.347,795.348,796.848,0,13,13,13,1,0.4,0.6,0.8,0.2,,,,,,,,,,,,,,,0.077,,0.6,0.4,0.2,0.8,0.2,0.8,0.6,0.4,,,0.062,,0.2,0.8,0.4,0.6,0.4,0.6,0.6,0.4,1,0
,,5ee78cdd0103130133fdb204,66fc981f42b801f3398f5601,2024-10-02_02h47.47.189,mdp,2024.2.1,Win32,144.092219,66fa4ebf79326e780c390304,,,,,,,,,,,,,,,,,,,,,796.848,796.848,796.849,797.5,0,1,left,0.138,,797.5,798.132,1,0,right,798.132,798.729,1,0,right,1,798.729,798.729,798.73,800.23,0,14,14,14,1,0.4,0.6,0.8,0.2,,,,,,,,,,,,,,,0.124,,0.6,0.4,0.2,0.8,0.2,0.8,0.6,0.4,,,0.091,,0.2,0.8,0.4,0.6,0.4,0.6,0.6,0.4,1,0
,,5ee78cdd0103130133fdb204,66fc981f42b801f3398f5601,2024-10-02_02h47.47.189,mdp,2024.2.1,Win32,144.092219,66fa4ebf79326e780c390304,,,,,,,,,,,,,,,,,,,,,800.23,800.23,800.23,800.868,0,1,left,0.124,,800.869,801.472,0,1,left,801.473,802.063,0,1,left,0,802.063,802.063,802.063,803.563,0,15,15,15,1,0.4,0.6,0.8,0.2,,,,,,,,,,,,,,,0.098,,0.6,0.4,0.2,0.8,0.2,0.8,0.6,0.4,,,0.087,,0.2,0.8,0.4,0.6,0.4,0.6,0.6,0.4,1,0
,,5ee78cdd0103130133fdb204,66fc981f42b801f3398f5601,2024-10-02_02h47.47.189,mdp,2024.2.1,Win32,144.092219,66fa4ebf79326e780c390304,,,,,,,,,,,,,,,,,,,,,803.563,803.563,803.564,804.209,0,1,left,0.14,,804.209,804.778,1,1,right,804.779,805.305,1,0,right,1,805.305,805.305,805.306,806.805,0,16,16,16,1,0.4,0.6,0.8,0.2,,,,,,,,,,,,,,,0.055,,0.6,0.4,0.2,0.8,0.2,0.8,0.6,0.4,,,0.014,,0.2,0.8,0.4,0.6,0.4,0.6,0.6,0.4,1,0
,,5ee78cdd0103130133fdb204,66fc981f42b801f3398f5601,2024-10-02_02h47.47.189,mdp,2024.2.1,Win32,144.092219,66fa4ebf79326e780c390304,,,,,,,,,,,,,,,,,,,,,806.806,806.806,806.806,807.451,0,1,left,0.139,,807.452,807.972,1,0,right,807.973,808.555,1,1,right,0,808.555,808.555,808.556,810.056,0,17,17,17,1,0.4,0.6,0.8,0.2,,,,,,,,,,,,,,,0.015,,0.6,0.4,0.2,0.8,0.2,0.8,0.6,0.4,,,0.076,,0.2,0.8,0.4,0.6,0.4,0.6,0.6,0.4,1,0
,,5ee78cdd0103130133fdb204,66fc981f42b801f3398f5601,2024-10-02_02h47.47.189,mdp,2024.2.1,Win32,144.092219,66fa4ebf79326e780c390304,,,,,,,,,,,,,,,,,,,,,810.056,810.056,810.056,810.799,1,0,right,0.239,,810.799,811.375,0,0,left,811.377,811.958,0,1,left,0,811.958,811.958,811.959,813.459,0,18,18,18,1,0.4,0.6,0.8,0.2,,,,,,,,,,,,,,,0.07,,0.6,0.4,0.2,0.8,0.2,0.8,0.6,0.4,,,0.08,,0.2,0.8,0.4,0.6,0.4,0.6,0.6,0.4,1,0
,,5ee78cdd0103130133fdb204,66fc981f42b801f3398f5601,2024-10-02_02h47.47.189,mdp,2024.2.1,Win32,144.092219,66fa4ebf79326e780c390304,,,,,,,,,,,,,,,,,,,,,813.459,813.459,813.46,814.32,0,0,left,0.356,,814.321,815.049,0,0,left,815.05,815.785,0,1,left,0,815.785,815.785,815.785,817.285,0,19,19,19,1,0.4,0.6,0.8,0.2,,,,,,,,,,,,,,,0.223,,0.6,0.4,0.2,0.8,0.2,0.8,0.6,0.4,,,0.229,,0.2,0.8,0.4,0.6,0.4,0.6,0.6,0.4,1,0
,,5ee78cdd0103130133fdb204,66fc981f42b801f3398f5601,2024-10-02_02h47.47.189,mdp,2024.2.1,Win32,144.092219,66fa4ebf79326e780c390304,,,,,,,,,,,,,,,,,,,,,817.285,817.285,817.285,818.076,0,1,left,0.277,,818.077,818.681,1,1,right,818.682,819.264,1,1,right,0,819.264,819.264,819.265,820.764,0,20,20,20,1,0.4,0.6,0.8,0.2,,,,,,,,,,,,,,,0.097,,0.6,0.4,0.2,0.8,0.2,0.8,0.6,0.4,,,0.078,,0.2,0.8,0.4,0.6,0.4,0.6,0.6,0.4,1,0
,,5ee78cdd0103130133fdb204,66fc981f42b801f3398f5601,2024-10-02_02h47.47.189,mdp,2024.2.1,Win32,144.092219,66fa4ebf79326e780c390304,,,,,,,,,,,,,,,,,,,,,820.764,820.764,820.765,821.327,1,1,right,0.058,,821.327,821.875,0,1,left,821.875,822.431,0,0,left,1,822.431,822.431,822.431,823.931,0,21,21,21,1,0.4,0.6,0.8,0.2,,,,,,,,,,,,,,,0.034,,0.6,0.4,0.2,0.8,0.2,0.8,0.6,0.4,,,0.052,,0.2,0.8,0.4,0.6,0.4,0.6,0.6,0.4,1,0
,,5ee78cdd0103130133fdb204,66fc981f42b801f3398f5601,2024-10-02_02h47.47.189,mdp,2024.2.1,Win32,144.092219,66fa4ebf79326e780c390304,,,,,,,,,,,,,,,,,,,,,823.931,823.931,823.931,824.535,0,0,left,0.1,,824.535,825.202,0,0,left,825.202,825.709,1,1,right,0,825.709,825.709,825.709,827.209,0,22,22,22,1,0.4,0.6,0.8,0.2,,,,,,,,,,,,,,,0.159,,0.6,0.4,0.2,0.8,0.2,0.8,0.6,0.4,,,0,,0.2,0.8,0.4,0.6,0.2,0.8,0.8,0.2,1,0
,,5ee78cdd0103130133fdb204,66fc981f42b801f3398f5601,2024-10-02_02h47.47.189,mdp,2024.2.1,Win32,144.092219,66fa4ebf79326e780c390304,,,,,,,,,,,,,,,,,,,,,827.209,827.209,827.209,827.82,1,0,right,0.097,,827.82,828.361,0,0,left,828.361,828.91,1,1,right,0,828.91,828.91,828.91,830.41,0,23,23,23,1,0.4,0.6,0.8,0.2,,,,,,,,,,,,,,,0.035,,0.2,0.8,0.6,0.4,0.2,0.8,0.6,0.4,,,0.045,,0.2,0.8,0.4,0.6,0.2,0.8,0.8,0.2,1,0
,,5ee78cdd0103130133fdb204,66fc981f42b801f3398f5601,2024-10-02_02h47.47.189,mdp,2024.2.1,Win32,144.092219,66fa4ebf79326e780c390304,,,,,,,,,,,,,,,,,,,,,830.41,830.41,830.41,831.618,1,0,right,0.7,,831.618,832.244,1,0,right,832.244,833.091,1,1,right,0,833.091,833.091,833.091,834.59,0,24,24,24,1,0.4,0.6,0.8,0.2,,,,,,,,,,,,,,,0.119,,0.2,0.8,0.6,0.4,0.2,0.8,0.6,0.4,,,0.334,,0.2,0.8,0.4,0.6,0.2,0.8,0.8,0.2,1,0
,,5ee78cdd0103130133fdb204,66fc981f42b801f3398f5601,2024-10-02_02h47.47.189,mdp,2024.2.1,Win32,144.092219,66fa4ebf79326e780c390304,,,,,,,,,,,,,,,,,,,,,834.59,834.59,834.591,835.501,0,0,left,0.403,,835.501,836.133,0,0,left,836.133,836.674,1,1,right,0,836.674,836.674,836.674,838.174,0,25,25,25,1,0.4,0.6,0.8,0.2,,,,,,,,,,,,,,,0.118,,0.8,0.2,0.2,0.8,0.2,0.8,0.6,0.4,,,0.027,,0.2,0.8,0.4,0.6,0.2,0.8,0.8,0.2,1,0
,,5ee78cdd0103130133fdb204,66fc981f42b801f3398f5601,2024-10-02_02h47.47.189,mdp,2024.2.1,Win32,144.092219,66fa4ebf79326e780c390304,,,,,,,,,,,,,,,,,,,,,838.174,838.174,838.175,838.889,0,1,left,0.209,,838.89,839.591,0,1,left,839.591,840.257,0,1,left,0,840.257,840.257,840.258,841.757,0,26,26,26,1,0.4,0.6,0.8,0.2,,,,,,,,,,,,,,,0.198,,0.8,0.2,0.2,0.8,0.2,0.8,0.6,0.4,,,0.153,,0.4,0.6,0.8,0.2,0.2,0.8,0.8,0.2,1,0
,,5ee78cdd0103130133fdb204,66fc981f42b801f3398f5601,2024-10-02_02h47.47.189,mdp,2024.2.1,Win32,144.092219,66fa4ebf79326e780c390304,,,,,,,,,,,,,,,,,,,,,841.758,841.758,841.758,842.507,0,1,left,0.236,,842.508,843.194,1,1,right,843.195,843.848,1,0,right,1,843.848,843.848,843.848,845.348,0,27,27,27,1,0.4,0.6,0.8,0.2,,,,,,,,,,,,,,,0.18,,0.8,0.2,0.2,0.8,0.6,0.4,0.2,0.8,,,0.148,,0.4,0.6,0.8,0.2,0.2,0.8,0.8,0.2,1,0
,,5ee78cdd0103130133fdb204,66fc981f42b801f3398f5601,2024-10-02_02h47.47.189,mdp,2024.2.1,Win32,144.092219,66fa4ebf79326e780c390304,,,,,,,,,,,,,,,,,,,,,845.349,845.349,845.35,846.063,1,0,right,0.203,,846.063,846.695,0,1,left,846.696,847.306,1,0,right,1,847.306,847.306,847.307,848.806,0,28,28,28,1,0.4,0.6,0.8,0.2,,,,,,,,,,,,,,,0.119,,0.8,0.2,0.2,0.8,0.6,0.4,0.2,0.8,,,0.104,,0.4,0.6,0.8,0.2,0.2,0.8,0.8,0.2,1,0
,,5ee78cdd0103130133fdb204,66fc981f42b801f3398f5601,2024-10-02_02h47.47.189,mdp,2024.2.1,Win32,144.092219,66fa4ebf79326e780c390304,,,,,,,,,,,,,,,,,,,,,848.807,848.807,848.807,849.473,0,1,left,0.152,,849.473,850.056,1,1,right,850.056,850.667,1,0,right,1,850.667,850.667,850.668,852.167,0,29,29,29,1,0.4,0.6,0.8,0.2,,,,,,,,,,,,,,,0.078,,0.8,0.2,0.2,0.8,0.6,0.4,0.2,0.8,,,0.105,,0.4,0.6,0.8,0.2,0.2,0.8,0.8,0.2,1,0
,,5ee78cdd0103130133fdb204,66fc981f42b801f3398f5601,2024-10-02_02h47.47.189,mdp,2024.2.1,Win32,144.092219,66fa4ebf79326e780c390304,,,,,,,,,,,,,,,,,,,,,852.167,852.167,852.168,852.855,0,1,left,0.182,,852.855,853.57,1,1,right,853.57,854.216,1,1,right,0,854.216,854.216,854.216,855.716,0,30,30,30,1,0.4,0.6,0.8,0.2,,,,,,,,,,,,,,,0.208,,0.8,0.2,0.2,0.8,0.6,0.4,0.2,0.8,,,0.141,,0.4,0.6,0.8,0.2,0.6,0.4,0.2,0.8,1,0
,,5ee78cdd0103130133fdb204,66fc981f42b801f3398f5601,2024-10-02_02h47.47.189,mdp,2024.2.1,Win32,144.092219,66fa4ebf79326e780c390304,,,,,,,,,,,,,,,,,,,,,855.716,855.716,855.716,856.347,0,1,left,0.125,,856.348,856.966,0,0,left,856.966,857.598,1,0,right,1,857.598,857.598,857.598,859.098,0,31,31,31,1,0.4,0.6,0.8,0.2,,,,,,,,,,,,,,,0.115,,0.8,0.2,0.2,0.8,0.6,0.4,0.2,0.8,,,0.128,,0.4,0.6,0.8,0.2,0.6,0.4,0.2,0.8,1,0
,,5ee78cdd0103130133fdb204,66fc981f42b801f3398f5601,2024-10-02_02h47.47.189,mdp,2024.2.1,Win32,144.092219,66fa4ebf79326e780c390304,,,,,,,,,,,,,,,,,,,,,859.098,859.098,859.098,859.827,0,0,left,0.222,,859.828,860.417,0,0,left,860.418,860.987,1,0,right,1,860.987,860.987,860.987,862.487,0,32,32,32,1,0.4,0.6,0.8,0.2,,,,,,,,,,,,,,,0.083,,0.8,0.2,0.2,0.8,0.6,0.4,0.2,0.8,,,0.061,,0.4,0.6,0.8,0.2,0.6,0.4,0.2,0.8,1,0
,,5ee78cdd0103130133fdb204,66fc981f42b801f3398f5601,2024-10-02_02h47.47.189,mdp,2024.2.1,Win32,144.092219,66fa4ebf79326e780c390304,,,,,,,,,,,,,,,,,,,,,862.487,862.487,862.487,863.043,0,0,left,0.049,,863.043,863.611,1,0,right,863.612,864.139,0,1,left,0,864.139,864.139,864.139,865.639,0,33,33,33,1,0.4,0.6,0.8,0.2,,,,,,,,,,,,,,,0.057,,0.4,0.6,0.8,0.2,0.6,0.4,0.2,0.8,,,0.021,,0.4,0.6,0.8,0.2,0.6,0.4,0.2,0.8,1,0
,,5ee78cdd0103130133fdb204,66fc981f42b801f3398f5601,2024-10-02_02h47.47.189,mdp,2024.2.1,Win32,144.092219,66fa4ebf79326e780c390304,,,,,,,,,,,,,,,,,,,,,865.64,865.64,865.64,866.376,0,1,left,0.23,,866.376,866.938,0,1,left,866.939,867.514,1,1,right,0,867.514,867.514,867.515,869.015,0,34,34,34,1,0.4,0.6,0.8,0.2,,,,,,,,,,,,,,,0.055,,0.4,0.6,0.8,0.2,0.6,0.4,0.2,0.8,,,0.069,,0.4,0.6,0.8,0.2,0.6,0.4,0.2,0.8,1,0
,,5ee78cdd0103130133fdb204,66fc981f42b801f3398f5601,2024-10-02_02h47.47.189,mdp,2024.2.1,Win32,144.092219,66fa4ebf79326e780c390304,,,,,,,,,,,,,,,,,,,,,869.015,869.015,869.016,869.667,1,1,right,0.138,,869.667,870.32,1,1,right,870.321,870.861,0,1,left,0,870.861,870.861,870.862,872.362,0,35,35,35,1,0.4,0.6,0.8,0.2,,,,,,,,,,,,,,,0.147,,0.4,0.6,0.8,0.2,0.6,0.4,0.2,0.8,,,0.031,,0.4,0.6,0.8,0.2,0.6,0.4,0.2,0.8,1,0
,,5ee78cdd0103130133fdb204,66fc981f42b801f3398f5601,2024-10-02_02h47.47.189,mdp,2024.2.1,Win32,144.092219,66fa4ebf79326e780c390304,,,,,,,,,,,,,,,,,,,,,872.362,872.362,872.362,872.993,0,1,left,0.125,,872.994,873.799,1,0,right,873.8,874.403,1,0,right,1,874.403,874.403,874.404,875.904,0,36,36,36,1,0.4,0.6,0.8,0.2,,,,,,,,,,,,,,,0.3,,0.8,0.2,0.2,0.8,0.6,0.4,0.2,0.8,,,0.098,,0.4,0.6,0.8,0.2,0.6,0.4,0.2,0.8,1,0
,,5ee78cdd0103130133fdb204,66fc981f42b801f3398f5601,2024-10-02_02h47.47.189,mdp,2024.2.1,Win32,144.092219,66fa4ebf79326e780c390304,,,,,,,,,,,,,,,,,,,,,875.904,875.904,875.904,876.591,1,0,right,0.184,,876.592,877.285,1,1,right,877.286,877.904,0,0,left,1,877.904,877.904,877.906,879.403,0,37,37,37,1,0.4,0.6,0.8,0.2,,,,,,,,,,,,,,,0.184,,0.8,0.2,0.2,0.8,0.6,0.4,0.2,0.8,,,0.112,,0.4,0.6,0.8,0.2,0.6,0.4,0.2,0.8,1,0
,,5ee78cdd0103130133fdb204,66fc981f42b801f3398f5601,2024-10-02_02h47.47.189,mdp,2024.2.1,Win32,144.092219,66fa4ebf79326e780c390304,,,,,,,,,,,,,,,,,,,,,879.404,879.404,879.404,880.112,1,1,right,0.196,,880.113,880.806,1,1,right,880.807,881.41,1,0,right,1,881.41,881.41,881.411,882.911,0,38,38,38,1,0.4,0.6,0.8,0.2,,,,,,,,,,,,,,,0.182,,0.8,0.2,0.2,0.8,0.6,0.4,0.2,0.8,,,0.097,,0.4,0.6,0.8,0.2,0.6,0.4,0.2,0.8,1,0
,,5ee78cdd0103130133fdb204,66fc981f42b801f3398f5601,2024-10-02_02h47.47.189,mdp,2024.2.1,Win32,144.092219,66fa4ebf79326e780c390304,,,,,,,,,,,,,,,,,,,,,882.911,882.911,882.911,883.633,1,1,right,0.209,,883.633,884.265,0,0,left,884.265,884.91,0,1,left,0,884.91,884.91,884.911,886.41,0,39,39,39,1,0.4,0.6,0.8,0.2,,,,,,,,,,,,,,,0.125,,0.8,0.2,0.2,0.8,0.6,0.4,0.2,0.8,,,0.14,,0.4,0.6,0.8,0.2,0.6,0.4,0.2,0.8,1,0
,,5ee78cdd0103130133fdb204,66fc981f42b801f3398f5601,2024-10-02_02h47.47.189,mdp,2024.2.1,Win32,144.092219,66fa4ebf79326e780c390304,,,,,,,,,,,,,,,,,,,,,886.41,886.41,886.411,887.015,0,1,left,0.099,,887.015,887.625,1,1,right,887.627,888.244,1,0,right,1,888.244,888.244,888.244,889.744,0,40,40,40,1,0.4,0.6,0.8,0.2,,,,,,,,,,,,,,,0.097,,0.8,0.2,0.2,0.8,0.6,0.4,0.2,0.8,,,0.111,,0.4,0.6,0.8,0.2,0.6,0.4,0.2,0.8,1,0
,,5ee78cdd0103130133fdb204,66fc981f42b801f3398f5601,2024-10-02_02h47.47.189,mdp,2024.2.1,Win32,144.092219,66fa4ebf79326e780c390304,,,,,,,,,,,,,,,,,,,,,889.744,889.744,889.745,890.438,1,0,right,0.191,,890.439,891.042,0,1,left,891.043,891.611,1,1,right,0,891.611,891.611,891.612,893.112,0,41,41,41,1,0.4,0.6,0.8,0.2,,,,,,,,,,,,,,,0.097,,0.2,0.8,0.6,0.4,0.6,0.4,0.2,0.8,,,0.056,,0.4,0.6,0.8,0.2,0.6,0.4,0.2,0.8,1,0
,,5ee78cdd0103130133fdb204,66fc981f42b801f3398f5601,2024-10-02_02h47.47.189,mdp,2024.2.1,Win32,144.092219,66fa4ebf79326e780c390304,,,,,,,,,,,,,,,,,,,,,893.112,893.112,893.113,893.862,0,0,left,0.246,,893.862,894.459,0,1,left,894.46,894.987,1,1,right,0,894.987,894.987,894.988,896.487,0,42,42,42,1,0.4,0.6,0.8,0.2,,,,,,,,,,,,,,,0.083,,0.2,0.8,0.6,0.4,0.6,0.4,0.2,0.8,,,0.021,,0.4,0.6,0.8,0.2,0.6,0.4,0.2,0.8,1,0
,,5ee78cdd0103130133fdb204,66fc981f42b801f3398f5601,2024-10-02_02h47.47.189,mdp,2024.2.1,Win32,144.092219,66fa4ebf79326e780c390304,,,,,,,,,,,,,,,,,,,,,896.487,896.487,896.488,897.167,1,0,right,0.169,,897.168,897.744,0,1,left,897.745,898.584,0,0,left,1,898.584,898.584,898.584,900.084,0,43,43,43,1,0.4,0.6,0.8,0.2,,,,,,,,,,,,,,,0.07,,0.2,0.8,0.6,0.4,0.6,0.4,0.2,0.8,,,0.327,,0.4,0.6,0.8,0.2,0.6,0.4,0.2,0.8,1,0
,,5ee78cdd0103130133fdb204,66fc981f42b801f3398f5601,2024-10-02_02h47.47.189,mdp,2024.2.1,Win32,144.092219,66fa4ebf79326e780c390304,,,,,,,,,,,,,,,,,,,,,900.085,900.085,900.085,900.911,1,0,right,0.315,,900.911,901.466,0,1,left,901.466,902.022,0,1,left,0,902.022,902.022,902.022,903.522,0,44,44,44,1,0.4,0.6,0.8,0.2,,,,,,,,,,,,,,,0.042,,0.2,0.8,0.6,0.4,0.6,0.4,0.2,0.8,,,0.052,,0.4,0.6,0.8,0.2,0.6,0.4,0.2,0.8,1,0
,,5ee78cdd0103130133fdb204,66fc981f42b801f3398f5601,2024-10-02_02h47.47.189,mdp,2024.2.1,Win32,144.092219,66fa4ebf79326e780c390304,,,,,,,,,,,,,,,,,,,,,903.522,903.522,903.522,904.07,1,1,right,0.045,,904.071,904.584,0,0,left,904.585,905.119,0,0,left,1,905.119,905.119,905.119,906.619,0,45,45,45,1,0.2,0.8,0.6,0.4,,,,,,,,,,,,,,,0.007,,0.2,0.8,0.6,0.4,0.6,0.4,0.2,0.8,,,0.029,,0.4,0.6,0.8,0.2,0.6,0.4,0.2,0.8,1,0
,,5ee78cdd0103130133fdb204,66fc981f42b801f3398f5601,2024-10-02_02h47.47.189,mdp,2024.2.1,Win32,144.092219,66fa4ebf79326e780c390304,,,,,,,,,,,,,,,,,,,,,906.619,906.619,906.619,907.146,0,1,left,0.021,,907.147,907.674,0,0,left,907.675,908.258,1,1,right,0,908.258,908.258,908.259,909.758,0,46,46,46,1,0.2,0.8,0.6,0.4,,,,,,,,,,,,,,,0.02,,0.6,0.4,0.2,0.8,0.6,0.4,0.2,0.8,,,0.077,,0.4,0.6,0.8,0.2,0.6,0.4,0.2,0.8,1,0
,,5ee78cdd0103130133fdb204,66fc981f42b801f3398f5601,2024-10-02_02h47.47.189,mdp,2024.2.1,Win32,144.092219,66fa4ebf79326e780c390304,,,,,,,,,,,,,,,,,,,,,909.758,909.758,909.758,910.411,1,1,right,0.14,,910.411,911.056,0,0,left,911.058,911.667,0,1,left,0,911.668,911.668,911.668,913.167,0,47,47,47,1,0.2,0.8,0.6,0.4,,,,,,,,,,,,,,,0.132,,0.6,0.4,0.2,0.8,0.6,0.4,0.2,0.8,,,0.103,,0.4,0.6,0.8,0.2,0.6,0.4,0.2,0.8,1,0
,,5ee78cdd0103130133fdb204,66fc981f42b801f3398f5601,2024-10-02_02h47.47.189,mdp,2024.2.1,Win32,144.092219,66fa4ebf79326e780c390304,,,,,,,,,,,,,,,,,,,,,913.168,913.168,913.169,913.918,0,1,left,0.245,,913.918,914.501,1,1,right,914.502,915.063,0,0,left,1,915.063,915.063,915.063,916.563,0,48,48,48,1,0.2,0.8,0.6,0.4,,,,,,,,,,,,,,,0.08,,0.6,0.4,0.2,0.8,0.6,0.4,0.2,0.8,,,0.055,,0.4,0.6,0.8,0.2,0.6,0.4,0.2,0.8,1,0
,,5ee78cdd0103130133fdb204,66fc981f42b801f3398f5601,2024-10-02_02h47.47.189,mdp,2024.2.1,Win32,144.092219,66fa4ebf79326e780c390304,,,,,,,,,,,,,,,,,,,,,916.564,916.564,916.564,917.237,0,1,left,0.168,,917.237,917.807,0,1,left,917.807,918.397,1,1,right,0,918.397,918.397,918.397,919.896,0,49,49,49,1,0.2,0.8,0.6,0.4,,,,,,,,,,,,,,,0.065,,0.6,0.4,0.2,0.8,0.2,0.8,0.6,0.4,,,0.087,,0.4,0.6,0.8,0.2,0.6,0.4,0.2,0.8,1,0
,,5ee78cdd0103130133fdb204,66fc981f42b801f3398f5601,2024-10-02_02h47.47.189,mdp,2024.2.1,Win32,144.092219,66fa4ebf79326e780c390304,,,,,,,,,,,,,,,,,,,,,,,,,,,,,,,,,,,,,,,,,,,,,,,,,,,,,,,,919.897,978.397,0,3,3,7,1,imgs/cat.png,imgs/lion.png,imgs/goat.png,imgs/rabbit.png,imgs/horse.png,,,,,,,,,,,,,,,,,,,,,,,,
,,5ee78cdd0103130133fdb204,66fc981f42b801f3398f5601,2024-10-02_02h47.47.189,mdp,2024.2.1,Win32,144.092219,66fa4ebf79326e780c390304,,,,,,,,,,,,,,1,seqs/st1seq16.csv,978.399,1036.641,space,57.73,,1036.645,1036.645,1036.646,1037.502,1,1,right,0.346,,1037.502,1037.503,0,1,,1037.504,1037.504,1,1,,0,1037.504,1037.504,1037.504,1039.002,0,0,0,0,1,0.8,0.2,0.2,0.8,1,0,,,,,,,,,,,,,,,,,,,,,,,,,,,,,,,,,,,,
,,5ee78cdd0103130133fdb204,66fc981f42b801f3398f5601,2024-10-02_02h47.47.189,mdp,2024.2.1,Win32,144.092219,66fa4ebf79326e780c390304,,,,,,,,,,,,,,,,,,,,,1039.002,1039.002,1039.002,1039.62,1,1,right,0.106,,1039.62,1039.621,0,1,,1039.621,1039.621,1,1,,0,1039.621,1039.621,1039.621,1041.12,0,1,1,1,1,0.8,0.2,0.2,0.8,1,0,,,,,,,,,,,,,,,,,,,,,,,,,,,,,,,,,,,,
,,5ee78cdd0103130133fdb204,66fc981f42b801f3398f5601,2024-10-02_02h47.47.189,mdp,2024.2.1,Win32,144.092219,66fa4ebf79326e780c390304,,,,,,,,,,,,,,,,,,,,,1041.12,1041.12,1041.121,1041.641,1,0,right,0.012,,1041.641,1041.642,0,1,,1041.642,1041.642,1,1,,1,1041.642,1041.642,1041.643,1043.14,0,2,2,2,1,0.6,0.4,0.4,0.6,1,0,,,,,,,,,,,,,,,,,,,,,,,,,,,,,,,,,,,,
,,5ee78cdd0103130133fdb204,66fc981f42b801f3398f5601,2024-10-02_02h47.47.189,mdp,2024.2.1,Win32,144.092219,66fa4ebf79326e780c390304,,,,,,,,,,,,,,,,,,,,,1043.141,1043.141,1043.141,1043.794,1,1,right,0.146,,1043.795,1043.796,0,1,,1043.797,1043.797,1,0,,0,1043.797,1043.797,1043.797,1045.293,0,3,3,3,1,0.6,0.4,0.4,0.6,1,0,,,,,,,,,,,,,,,,,,,,,,,,,,,,,,,,,,,,
,,5ee78cdd0103130133fdb204,66fc981f42b801f3398f5601,2024-10-02_02h47.47.189,mdp,2024.2.1,Win32,144.092219,66fa4ebf79326e780c390304,,,,,,,,,,,,,,,,,,,,,1045.294,1045.294,1045.294,1045.849,1,1,right,0.042,,1045.85,1045.85,0,0,,1045.85,1045.851,1,0,,0,1045.851,1045.851,1045.851,1047.349,0,4,4,4,1,0.6,0.4,0.4,0.6,1,0,,,,,,,,,,,,,,,,,,,,,,,,,,,,,,,,,,,,
,,5ee78cdd0103130133fdb204,66fc981f42b801f3398f5601,2024-10-02_02h47.47.189,mdp,2024.2.1,Win32,144.092219,66fa4ebf79326e780c390304,,,,,,,,,,,,,,,,,,,,,1047.349,1047.349,1047.35,1047.911,0,0,left,0.056,,1047.912,1047.912,0,1,,1047.913,1047.913,1,1,,1,1047.913,1047.913,1047.913,1049.411,0,5,5,5,1,0.6,0.4,0.4,0.6,1,0,,,,,,,,,,,,,,,,,,,,,,,,,,,,,,,,,,,,
,,5ee78cdd0103130133fdb204,66fc981f42b801f3398f5601,2024-10-02_02h47.47.189,mdp,2024.2.1,Win32,144.092219,66fa4ebf79326e780c390304,,,,,,,,,,,,,,,,,,,,,1049.412,1049.412,1049.412,1049.981,0,1,left,0.064,,1049.981,1049.982,0,0,,1049.982,1049.982,1,0,,0,1049.982,1049.982,1049.983,1051.481,0,6,6,6,1,0.6,0.4,0.4,0.6,1,0,,,,,,,,,,,,,,,,,,,,,,,,,,,,,,,,,,,,
,,5ee78cdd0103130133fdb204,66fc981f42b801f3398f5601,2024-10-02_02h47.47.189,mdp,2024.2.1,Win32,144.092219,66fa4ebf79326e780c390304,,,,,,,,,,,,,,,,,,,,,1051.481,1051.481,1051.481,1052.023,0,1,left,0.035,,1052.023,1052.023,0,0,,1052.024,1052.024,1,0,,0,1052.024,1052.024,1052.024,1053.523,0,7,7,7,1,0.6,0.4,0.4,0.6,1,0,,,,,,,,,,,,,,,,,,,,,,,,,,,,,,,,,,,,
,,5ee78cdd0103130133fdb204,66fc981f42b801f3398f5601,2024-10-02_02h47.47.189,mdp,2024.2.1,Win32,144.092219,66fa4ebf79326e780c390304,,,,,,,,,,,,,,,,,,,,,1053.523,1053.523,1053.524,1054.335,0,1,left,0.299,,1054.336,1054.336,0,0,,1054.336,1054.337,1,0,,0,1054.337,1054.337,1054.337,1055.835,0,8,8,8,1,0.6,0.4,0.4,0.6,1,0,,,,,,,,,,,,,,,,,,,,,,,,,,,,,,,,,,,,
,,5ee78cdd0103130133fdb204,66fc981f42b801f3398f5601,2024-10-02_02h47.47.189,mdp,2024.2.1,Win32,144.092219,66fa4ebf79326e780c390304,,,,,,,,,,,,,,,,,,,,,1055.835,1055.835,1055.836,1056.37,0,1,left,0.027,,1056.37,1056.37,0,1,,1056.371,1056.371,1,1,,0,1056.371,1056.371,1056.371,1057.87,0,9,9,9,1,0.2,0.8,0.6,0.4,1,0,,,,,,,,,,,,,,,,,,,,,,,,,,,,,,,,,,,,
,,5ee78cdd0103130133fdb204,66fc981f42b801f3398f5601,2024-10-02_02h47.47.189,mdp,2024.2.1,Win32,144.092219,66fa4ebf79326e780c390304,,,,,,,,,,,,,,,,,,,,,1057.87,1057.87,1057.871,1058.453,0,0,left,0.078,,1058.453,1058.454,0,1,,1058.454,1058.454,1,1,,1,1058.454,1058.454,1058.454,1059.954,0,10,10,10,1,0.2,0.8,0.6,0.4,1,0,,,,,,,,,,,,,,,,,,,,,,,,,,,,,,,,,,,,
,,5ee78cdd0103130133fdb204,66fc981f42b801f3398f5601,2024-10-02_02h47.47.189,mdp,2024.2.1,Win32,144.092219,66fa4ebf79326e780c390304,,,,,,,,,,,,,,,,,,,,,1059.954,1059.954,1059.954,1060.911,0,0,left,0.445,,1060.912,1060.912,0,0,,1060.912,1060.913,1,0,,1,1060.913,1060.913,1060.913,1062.411,0,11,11,11,1,0.8,0.2,0.4,0.6,1,0,,,,,,,,,,,,,,,,,,,,,,,,,,,,,,,,,,,,
,,5ee78cdd0103130133fdb204,66fc981f42b801f3398f5601,2024-10-02_02h47.47.189,mdp,2024.2.1,Win32,144.092219,66fa4ebf79326e780c390304,,,,,,,,,,,,,,,,,,,,,1062.411,1062.411,1062.412,1063.14,0,0,left,0.225,,1063.141,1063.141,0,0,,1063.142,1063.142,1,0,,1,1063.142,1063.142,1063.142,1064.641,0,12,12,12,1,0.4,0.6,0.8,0.2,1,0,,,,,,,,,,,,,,,,,,,,,,,,,,,,,,,,,,,,
,,5ee78cdd0103130133fdb204,66fc981f42b801f3398f5601,2024-10-02_02h47.47.189,mdp,2024.2.1,Win32,144.092219,66fa4ebf79326e780c390304,,,,,,,,,,,,,,,,,,,,,1064.641,1064.641,1064.641,1065.272,0,0,left,0.125,,1065.273,1065.273,0,0,,1065.273,1065.274,1,0,,1,1065.274,1065.274,1065.275,1066.772,0,13,13,13,1,0.8,0.2,0.4,0.6,1,0,,,,,,,,,,,,,,,,,,,,,,,,,,,,,,,,,,,,
,,5ee78cdd0103130133fdb204,66fc981f42b801f3398f5601,2024-10-02_02h47.47.189,mdp,2024.2.1,Win32,144.092219,66fa4ebf79326e780c390304,,,,,,,,,,,,,,,,,,,,,1066.773,1066.773,1066.773,1067.433,0,0,left,0.153,,1067.433,1067.434,0,1,,1067.434,1067.434,1,0,,1,1067.434,1067.434,1067.434,1068.932,0,14,14,14,1,0.8,0.2,0.4,0.6,1,0,,,,,,,,,,,,,,,,,,,,,,,,,,,,,,,,,,,,
,,5ee78cdd0103130133fdb204,66fc981f42b801f3398f5601,2024-10-02_02h47.47.189,mdp,2024.2.1,Win32,144.092219,66fa4ebf79326e780c390304,,,,,,,,,,,,,,,,,,,,,1068.933,1068.933,1068.933,1069.592,0,0,left,0.152,,1069.592,1069.593,0,1,,1069.593,1069.593,1,1,,1,1069.593,1069.593,1069.593,1071.092,0,15,15,15,1,0.8,0.2,0.4,0.6,1,0,,,,,,,,,,,,,,,,,,,,,,,,,,,,,,,,,,,,
,,5ee78cdd0103130133fdb204,66fc981f42b801f3398f5601,2024-10-02_02h47.47.189,mdp,2024.2.1,Win32,144.092219,66fa4ebf79326e780c390304,,,,,,,,,,,,,,,,,,,,,1071.092,1071.092,1071.092,1071.71,0,0,left,0.111,,1071.71,1071.711,0,1,,1071.711,1071.711,1,1,,1,1071.711,1071.711,1071.711,1073.21,0,16,16,16,1,0.2,0.8,0.6,0.4,1,0,,,,,,,,,,,,,,,,,,,,,,,,,,,,,,,,,,,,
,,5ee78cdd0103130133fdb204,66fc981f42b801f3398f5601,2024-10-02_02h47.47.189,mdp,2024.2.1,Win32,144.092219,66fa4ebf79326e780c390304,,,,,,,,,,,,,,,,,,,,,1073.211,1073.211,1073.211,1073.829,0,0,left,0.113,,1073.829,1073.829,0,1,,1073.83,1073.83,1,0,,1,1073.83,1073.83,1073.83,1075.328,0,17,17,17,1,0.6,0.4,0.4,0.6,1,0,,,,,,,,,,,,,,,,,,,,,,,,,,,,,,,,,,,,
,,5ee78cdd0103130133fdb204,66fc981f42b801f3398f5601,2024-10-02_02h47.47.189,mdp,2024.2.1,Win32,144.092219,66fa4ebf79326e780c390304,,,,,,,,,,,,,,,,,,,,,1075.328,1075.328,1075.329,1075.905,0,0,left,0.07,,1075.906,1075.906,0,0,,1075.906,1075.906,1,1,,1,1075.906,1075.906,1075.907,1077.405,0,18,18,18,1,0.6,0.4,0.4,0.6,1,0,,,,,,,,,,,,,,,,,,,,,,,,,,,,,,,,,,,,
,,5ee78cdd0103130133fdb204,66fc981f42b801f3398f5601,2024-10-02_02h47.47.189,mdp,2024.2.1,Win32,144.092219,66fa4ebf79326e780c390304,,,,,,,,,,,,,,,,,,,,,1077.407,1077.407,1077.407,1077.96,0,1,left,0.041,,1077.961,1077.961,0,1,,1077.961,1077.962,1,1,,0,1077.962,1077.962,1077.962,1079.461,0,19,19,19,1,0.6,0.4,0.4,0.6,1,0,,,,,,,,,,,,,,,,,,,,,,,,,,,,,,,,,,,,
,,5ee78cdd0103130133fdb204,66fc981f42b801f3398f5601,2024-10-02_02h47.47.189,mdp,2024.2.1,Win32,144.092219,66fa4ebf79326e780c390304,,,,,,,,,,,,,,,,,,,,,1079.461,1079.461,1079.461,1080.009,0,1,left,0.042,,1080.009,1080.01,0,0,,1080.01,1080.011,1,1,,0,1080.011,1080.011,1080.011,1081.509,0,20,20,20,1,0.6,0.4,0.4,0.6,1,0,,,,,,,,,,,,,,,,,,,,,,,,,,,,,,,,,,,,
,,5ee78cdd0103130133fdb204,66fc981f42b801f3398f5601,2024-10-02_02h47.47.189,mdp,2024.2.1,Win32,144.092219,66fa4ebf79326e780c390304,,,,,,,,,,,,,,,,,,,,,1081.509,1081.509,1081.51,1082.065,0,0,left,0.049,,1082.066,1082.066,0,0,,1082.067,1082.067,1,1,,1,1082.067,1082.067,1082.067,1083.565,0,21,21,21,1,0.8,0.2,0.6,0.4,1,0,,,,,,,,,,,,,,,,,,,,,,,,,,,,,,,,,,,,
,,5ee78cdd0103130133fdb204,66fc981f42b801f3398f5601,2024-10-02_02h47.47.189,mdp,2024.2.1,Win32,144.092219,66fa4ebf79326e780c390304,,,,,,,,,,,,,,,,,,,,,1083.565,1083.565,1083.565,1084.363,0,0,left,0.288,,1084.363,1084.364,0,1,,1084.364,1084.364,1,0,,1,1084.364,1084.364,1084.364,1085.864,0,22,22,22,1,0.8,0.2,0.6,0.4,1,0,,,,,,,,,,,,,,,,,,,,,,,,,,,,,,,,,,,,
,,5ee78cdd0103130133fdb204,66fc981f42b801f3398f5601,2024-10-02_02h47.47.189,mdp,2024.2.1,Win32,144.092219,66fa4ebf79326e780c390304,,,,,,,,,,,,,,,,,,,,,1085.864,1085.864,1085.864,1086.55,0,1,left,0.174,,1086.551,1086.551,0,0,,1086.552,1086.552,1,0,,0,1086.552,1086.552,1086.553,1088.051,0,23,23,23,1,0.8,0.2,0.6,0.4,1,0,,,,,,,,,,,,,,,,,,,,,,,,,,,,,,,,,,,,
,,5ee78cdd0103130133fdb204,66fc981f42b801f3398f5601,2024-10-02_02h47.47.189,mdp,2024.2.1,Win32,144.092219,66fa4ebf79326e780c390304,,,,,,,,,,,,,,,,,,,,,1088.051,1088.051,1088.052,1088.676,0,0,left,0.114,,1088.676,1088.676,0,0,,1088.677,1088.677,1,0,,1,1088.677,1088.677,1088.677,1090.175,0,24,24,24,1,0.8,0.2,0.6,0.4,1,0,,,,,,,,,,,,,,,,,,,,,,,,,,,,,,,,,,,,
,,5ee78cdd0103130133fdb204,66fc981f42b801f3398f5601,2024-10-02_02h47.47.189,mdp,2024.2.1,Win32,144.092219,66fa4ebf79326e780c390304,,,,,,,,,,,,,,,,,,,,,1090.176,1090.176,1090.176,1090.745,0,0,left,0.064,,1090.746,1090.746,0,1,,1090.746,1090.747,1,0,,1,1090.747,1090.747,1090.747,1092.245,0,25,25,25,1,0.8,0.2,0.6,0.4,1,0,,,,,,,,,,,,,,,,,,,,,,,,,,,,,,,,,,,,
,,5ee78cdd0103130133fdb204,66fc981f42b801f3398f5601,2024-10-02_02h47.47.189,mdp,2024.2.1,Win32,144.092219,66fa4ebf79326e780c390304,,,,,,,,,,,,,,,,,,,,,1092.245,1092.245,1092.246,1092.808,0,0,left,0.055,,1092.809,1092.809,0,0,,1092.809,1092.81,1,0,,1,1092.81,1092.81,1092.81,1094.308,0,26,26,26,1,0.8,0.2,0.6,0.4,1,0,,,,,,,,,,,,,,,,,,,,,,,,,,,,,,,,,,,,
,,5ee78cdd0103130133fdb204,66fc981f42b801f3398f5601,2024-10-02_02h47.47.189,mdp,2024.2.1,Win32,144.092219,66fa4ebf79326e780c390304,,,,,,,,,,,,,,,,,,,,,1094.308,1094.308,1094.308,1094.856,0,0,left,0.041,,1094.857,1094.857,0,1,,1094.857,1094.858,1,0,,1,1094.858,1094.858,1094.858,1096.356,0,27,27,27,1,0.8,0.2,0.6,0.4,1,0,,,,,,,,,,,,,,,,,,,,,,,,,,,,,,,,,,,,
,,5ee78cdd0103130133fdb204,66fc981f42b801f3398f5601,2024-10-02_02h47.47.189,mdp,2024.2.1,Win32,144.092219,66fa4ebf79326e780c390304,,,,,,,,,,,,,,,,,,,,,1096.356,1096.356,1096.356,1096.919,0,0,left,0.056,,1096.92,1096.92,0,1,,1096.92,1096.92,1,1,,1,1096.92,1096.92,1096.92,1098.419,0,28,28,28,1,0.8,0.2,0.6,0.4,1,0,,,,,,,,,,,,,,,,,,,,,,,,,,,,,,,,,,,,
,,5ee78cdd0103130133fdb204,66fc981f42b801f3398f5601,2024-10-02_02h47.47.189,mdp,2024.2.1,Win32,144.092219,66fa4ebf79326e780c390304,,,,,,,,,,,,,,,,,,,,,1098.42,1098.42,1098.42,1098.967,0,1,left,0.035,,1098.968,1098.969,0,1,,1098.969,1098.969,1,0,,0,1098.969,1098.969,1098.969,1100.468,0,29,29,29,1,0.4,0.6,0.8,0.2,1,0,,,,,,,,,,,,,,,,,,,,,,,,,,,,,,,,,,,,
,,5ee78cdd0103130133fdb204,66fc981f42b801f3398f5601,2024-10-02_02h47.47.189,mdp,2024.2.1,Win32,144.092219,66fa4ebf79326e780c390304,,,,,,,,,,,,,,,,,,,,,1100.468,1100.468,1100.468,1101.016,0,1,left,0.035,,1101.016,1101.017,0,0,,1101.017,1101.017,1,0,,0,1101.017,1101.017,1101.017,1102.516,0,30,30,30,1,0.4,0.6,0.8,0.2,1,0,,,,,,,,,,,,,,,,,,,,,,,,,,,,,,,,,,,,
,,5ee78cdd0103130133fdb204,66fc981f42b801f3398f5601,2024-10-02_02h47.47.189,mdp,2024.2.1,Win32,144.092219,66fa4ebf79326e780c390304,,,,,,,,,,,,,,,,,,,,,1102.516,1102.516,1102.517,1103.092,0,0,left,0.064,,1103.093,1103.093,0,0,,1103.093,1103.094,1,1,,1,1103.094,1103.094,1103.094,1104.592,0,31,31,31,1,0.6,0.4,0.4,0.6,1,0,,,,,,,,,,,,,,,,,,,,,,,,,,,,,,,,,,,,
,,5ee78cdd0103130133fdb204,66fc981f42b801f3398f5601,2024-10-02_02h47.47.189,mdp,2024.2.1,Win32,144.092219,66fa4ebf79326e780c390304,,,,,,,,,,,,,,,,,,,,,1104.592,1104.592,1104.593,1105.35,0,0,left,0.25,,1105.35,1105.351,0,0,,1105.351,1105.351,1,0,,1,1105.351,1105.351,1105.351,1106.849,0,32,32,32,1,0.6,0.4,0.4,0.6,1,0,,,,,,,,,,,,,,,,,,,,,,,,,,,,,,,,,,,,
,,5ee78cdd0103130133fdb204,66fc981f42b801f3398f5601,2024-10-02_02h47.47.189,mdp,2024.2.1,Win32,144.092219,66fa4ebf79326e780c390304,,,,,,,,,,,,,,,,,,,,,1106.849,1106.849,1106.85,1107.454,0,1,left,0.099,,1107.454,1107.454,0,0,,1107.454,1107.455,1,1,,0,1107.455,1107.455,1107.455,1108.954,0,33,33,33,1,0.6,0.4,0.4,0.6,1,0,,,,,,,,,,,,,,,,,,,,,,,,,,,,,,,,,,,,
,,5ee78cdd0103130133fdb204,66fc981f42b801f3398f5601,2024-10-02_02h47.47.189,mdp,2024.2.1,Win32,144.092219,66fa4ebf79326e780c390304,,,,,,,,,,,,,,,,,,,,,1108.954,1108.954,1108.954,1109.516,0,0,left,0.05,,1109.516,1109.516,0,1,,1109.517,1109.517,1,0,,1,1109.517,1109.517,1109.518,1111.016,0,34,34,34,1,0.6,0.4,0.4,0.6,1,0,,,,,,,,,,,,,,,,,,,,,,,,,,,,,,,,,,,,
,,5ee78cdd0103130133fdb204,66fc981f42b801f3398f5601,2024-10-02_02h47.47.189,mdp,2024.2.1,Win32,144.092219,66fa4ebf79326e780c390304,,,,,,,,,,,,,,,,,,,,,1111.017,1111.017,1111.018,1111.648,0,1,left,0.118,,1111.648,1111.649,0,1,,1111.65,1111.65,1,1,,0,1111.65,1111.65,1111.65,1113.148,0,35,35,35,1,0.6,0.4,0.4,0.6,1,0,,,,,,,,,,,,,,,,,,,,,,,,,,,,,,,,,,,,
,,5ee78cdd0103130133fdb204,66fc981f42b801f3398f5601,2024-10-02_02h47.47.189,mdp,2024.2.1,Win32,144.092219,66fa4ebf79326e780c390304,,,,,,,,,,,,,,,,,,,,,1113.149,1113.149,1113.149,1113.697,0,0,left,0.035,,1113.698,1113.698,0,1,,1113.698,1113.699,1,1,,1,1113.699,1113.699,1113.699,1115.197,0,36,36,36,1,0.6,0.4,0.4,0.6,1,0,,,,,,,,,,,,,,,,,,,,,,,,,,,,,,,,,,,,
,,5ee78cdd0103130133fdb204,66fc981f42b801f3398f5601,2024-10-02_02h47.47.189,mdp,2024.2.1,Win32,144.092219,66fa4ebf79326e780c390304,,,,,,,,,,,,,,,,,,,,,1115.198,1115.198,1115.198,1115.807,0,0,left,0.096,,1115.809,1115.809,0,0,,1115.809,1115.809,1,0,,1,1115.809,1115.809,1115.809,1117.307,0,37,37,37,1,0.6,0.4,0.4,0.6,1,0,,,,,,,,,,,,,,,,,,,,,,,,,,,,,,,,,,,,
,,5ee78cdd0103130133fdb204,66fc981f42b801f3398f5601,2024-10-02_02h47.47.189,mdp,2024.2.1,Win32,144.092219,66fa4ebf79326e780c390304,,,,,,,,,,,,,,,,,,,,,1117.308,1117.308,1117.308,1117.967,0,0,left,0.153,,1117.968,1117.968,0,1,,1117.968,1117.969,1,0,,1,1117.969,1117.969,1117.969,1119.468,0,38,38,38,1,0.6,0.4,0.4,0.6,1,0,,,,,,,,,,,,,,,,,,,,,,,,,,,,,,,,,,,,
,,5ee78cdd0103130133fdb204,66fc981f42b801f3398f5601,2024-10-02_02h47.47.189,mdp,2024.2.1,Win32,144.092219,66fa4ebf79326e780c390304,,,,,,,,,,,,,,,,,,,,,1119.468,1119.468,1119.469,1120.176,0,1,left,0.201,,1120.177,1120.177,0,1,,1120.177,1120.177,1,1,,0,1120.177,1120.177,1120.177,1121.676,0,39,39,39,1,0.2,0.8,0.8,0.2,1,0,,,,,,,,,,,,,,,,,,,,,,,,,,,,,,,,,,,,
,,5ee78cdd0103130133fdb204,66fc981f42b801f3398f5601,2024-10-02_02h47.47.189,mdp,2024.2.1,Win32,144.092219,66fa4ebf79326e780c390304,,,,,,,,,,,,,,,,,,,,,1121.676,1121.676,1121.676,1122.468,0,1,left,0.287,,1122.468,1122.469,0,1,,1122.469,1122.469,1,0,,0,1122.469,1122.469,1122.469,1123.968,0,40,40,40,1,0.2,0.8,0.8,0.2,1,0,,,,,,,,,,,,,,,,,,,,,,,,,,,,,,,,,,,,
,,5ee78cdd0103130133fdb204,66fc981f42b801f3398f5601,2024-10-02_02h47.47.189,mdp,2024.2.1,Win32,144.092219,66fa4ebf79326e780c390304,,,,,,,,,,,,,,,,,,,,,1123.968,1123.968,1123.969,1124.593,0,0,left,0.112,,1124.594,1124.594,0,0,,1124.594,1124.594,1,0,,1,1124.594,1124.594,1124.595,1126.093,0,41,41,41,1,0.2,0.8,0.8,0.2,1,0,,,,,,,,,,,,,,,,,,,,,,,,,,,,,,,,,,,,
,,5ee78cdd0103130133fdb204,66fc981f42b801f3398f5601,2024-10-02_02h47.47.189,mdp,2024.2.1,Win32,144.092219,66fa4ebf79326e780c390304,,,,,,,,,,,,,,,,,,,,,1126.093,1126.093,1126.093,1126.718,0,1,left,0.119,,1126.718,1126.719,0,0,,1126.719,1126.719,1,1,,0,1126.719,1126.719,1126.72,1128.218,0,42,42,42,1,0.2,0.8,0.8,0.2,1,0,,,,,,,,,,,,,,,,,,,,,,,,,,,,,,,,,,,,
,,5ee78cdd0103130133fdb204,66fc981f42b801f3398f5601,2024-10-02_02h47.47.189,mdp,2024.2.1,Win32,144.092219,66fa4ebf79326e780c390304,,,,,,,,,,,,,,,,,,,,,1128.218,1128.218,1128.219,1128.884,0,1,left,0.161,,1128.884,1128.885,0,1,,1128.885,1128.886,1,1,,0,1128.886,1128.886,1128.886,1130.385,0,43,43,43,1,0.2,0.8,0.8,0.2,1,0,,,,,,,,,,,,,,,,,,,,,,,,,,,,,,,,,,,,
,,5ee78cdd0103130133fdb204,66fc981f42b801f3398f5601,2024-10-02_02h47.47.189,mdp,2024.2.1,Win32,144.092219,66fa4ebf79326e780c390304,,,,,,,,,,,,,,,,,,,,,1130.385,1130.385,1130.385,1130.996,0,1,left,0.099,,1130.996,1130.996,0,0,,1130.996,1130.997,1,1,,0,1130.997,1130.997,1130.997,1132.495,0,44,44,44,1,0.2,0.8,0.8,0.2,1,0,,,,,,,,,,,,,,,,,,,,,,,,,,,,,,,,,,,,
,,5ee78cdd0103130133fdb204,66fc981f42b801f3398f5601,2024-10-02_02h47.47.189,mdp,2024.2.1,Win32,144.092219,66fa4ebf79326e780c390304,,,,,,,,,,,,,,,,,,,,,1132.495,1132.495,1132.496,1133.044,0,1,left,0.043,,1133.045,1133.045,0,1,,1133.045,1133.045,1,1,,0,1133.045,1133.045,1133.046,1134.544,0,45,45,45,1,0.2,0.8,0.8,0.2,1,0,,,,,,,,,,,,,,,,,,,,,,,,,,,,,,,,,,,,
,,5ee78cdd0103130133fdb204,66fc981f42b801f3398f5601,2024-10-02_02h47.47.189,mdp,2024.2.1,Win32,144.092219,66fa4ebf79326e780c390304,,,,,,,,,,,,,,,,,,,,,1134.544,1134.544,1134.545,1135.253,0,1,left,0.203,,1135.253,1135.253,0,1,,1135.253,1135.254,1,1,,0,1135.254,1135.254,1135.254,1136.752,0,46,46,46,1,0.2,0.8,0.8,0.2,1,0,,,,,,,,,,,,,,,,,,,,,,,,,,,,,,,,,,,,
,,5ee78cdd0103130133fdb204,66fc981f42b801f3398f5601,2024-10-02_02h47.47.189,mdp,2024.2.1,Win32,144.092219,66fa4ebf79326e780c390304,,,,,,,,,,,,,,,,,,,,,1136.752,1136.752,1136.753,1137.371,0,1,left,0.116,,1137.371,1137.372,0,1,,1137.372,1137.372,1,1,,0,1137.372,1137.372,1137.372,1138.871,0,47,47,47,1,0.2,0.8,0.8,0.2,1,0,,,,,,,,,,,,,,,,,,,,,,,,,,,,,,,,,,,,
,,5ee78cdd0103130133fdb204,66fc981f42b801f3398f5601,2024-10-02_02h47.47.189,mdp,2024.2.1,Win32,144.092219,66fa4ebf79326e780c390304,,,,,,,,,,,,,,,,,,,,,1138.871,1138.871,1138.871,1139.517,0,1,left,0.142,,1139.517,1139.518,0,1,,1139.518,1139.518,1,1,,0,1139.518,1139.518,1139.518,1141.016,0,48,48,48,1,0.2,0.8,0.8,0.2,1,0,,,,,,,,,,,,,,,,,,,,,,,,,,,,,,,,,,,,
,,5ee78cdd0103130133fdb204,66fc981f42b801f3398f5601,2024-10-02_02h47.47.189,mdp,2024.2.1,Win32,144.092219,66fa4ebf79326e780c390304,,,,,,,,,,,,,,,,,,,,,1141.016,1141.016,1141.017,1142.003,0,1,left,0.483,,1142.003,1142.003,0,1,,1142.004,1142.004,1,1,,0,1142.004,1142.004,1142.004,1143.502,0,49,49,49,1,0.2,0.8,0.8,0.2,1,0,,,,,,,,,,,,,,,,,,,,,,,,,,,,,,,,,,,,
,,5ee78cdd0103130133fdb204,66fc981f42b801f3398f5601,2024-10-02_02h47.47.189,mdp,2024.2.1,Win32,144.092219,66fa4ebf79326e780c390304,,,,,,,,,,,,,,,,,,,,,,,,,,,,,,,,,,,,,,,,,,,,,,,,,,,,,,,,1143.502,1212.994,0,4,4,1,1,imgs/goat.png,imgs/lion.png,imgs/giraffe.png,imgs/dog.png,imgs/bear.png,,,,,,,,,,,,,,,,,,,,,,,,
,,5ee78cdd0103130133fdb204,66fc981f42b801f3398f5601,2024-10-02_02h47.47.189,mdp,2024.2.1,Win32,144.092219,66fa4ebf79326e780c390304,,,,,,,,,,,,,,2,seqs/st2seq46.csv,1212.996,1222.413,space,1.234,,1222.416,1222.416,1222.417,1223.26,0,1,left,0.333,,1223.261,1223.871,1,0,right,1223.872,1223.873,1,0,,1,1223.873,1223.873,1223.873,1225.372,0,0,0,0,1,0.2,0.8,0.6,0.4,,,,,,,,,,,,,,,0.102,,0.2,0.8,0.6,0.4,0.2,0.8,0.8,0.2,1,0,,,,,,,,,,,,
,,5ee78cdd0103130133fdb204,66fc981f42b801f3398f5601,2024-10-02_02h47.47.189,mdp,2024.2.1,Win32,144.092219,66fa4ebf79326e780c390304,,,,,,,,,,,,,,,,,,,,,1225.372,1225.372,1225.372,1226.093,0,1,left,0.208,,1226.094,1226.872,1,1,right,1226.872,1226.872,1,0,,0,1226.872,1226.872,1226.873,1228.371,0,1,1,1,1,0.2,0.8,0.6,0.4,,,,,,,,,,,,,,,0.27,,0.2,0.8,0.6,0.4,0.2,0.8,0.8,0.2,1,0,,,,,,,,,,,,
