init_exp.started,init_exp.stopped,participant,session,date,expName,psychopyVersion,OS,frameRate,study_id,disp_instruction.started,disp_instruction.stopped,instruction.thisRepN,instruction.thisTrialN,instruction.thisN,instruction.thisIndex,instruction.ran,instimg_path,consent.started,consent.stopped,key_resp_3.keys,key_resp_3.rt,key_resp_3.duration,n_steps,sequence_path,init_block.started,init_block.stopped,key_resp.keys,key_resp.rt,key_resp.duration,init_trials.started,init_trials.stopped,step0.started,step0.stopped,act0,s1,res0.keys,res0.rt,res0.duration,step1.started,step1.stopped,act1,s2,res1.keys,step2.started,step2.stopped,act2,s3,res2.keys,rew,reward_comp.started,reward_comp.stopped,reward_disp.started,reward_disp.stopped,trials.thisRepN,trials.thisTrialN,trials.thisN,trials.thisIndex,trials.ran,s00a0s10,s00a0s11,s00a1s10,s00a1s11,rew10,rew11,break_block.started,break_block.stopped,block.thisRepN,block.thisTrialN,block.thisN,block.thisIndex,block.ran,s00path,s10path,s11path,s20path,s21path,res1.rt,res1.duration,s10a0s20,s10a0s21,s10a1s20,s10a1s21,s11a0s20,s11a0s21,s11a1s20,s11a1s21,rew20,rew21,res2.rt,res2.duration,s20a0s30,s20a0s31,s20a1s30,s20a1s31,s21a0s30,s21a0s31,s21a1s30,s21a1s31,rew30,rew31
0.0003,0.0011,5ee9193db78df9119fe4f7c1,66fc981d46fcc5b0e60e5081,2024-10-02_02h48.10.010,mdp,2024.2.1,Win32,60.24096386,66fa4ebf79326e780c390304,,,,,,,,,,,,,,,,,,,,,,,,,,,,,,,,,,,,,,,,,,,,,,,,,,,,,,,,,,,,,,,,,,,,,,,,,,,,,,,,,,,,,,,,,,,
,,5ee9193db78df9119fe4f7c1,66fc981d46fcc5b0e60e5081,2024-10-02_02h48.10.010,mdp,2024.2.1,Win32,60.24096386,66fa4ebf79326e780c390304,0.0036,289.2487,0,0,0,0,1,rlnn_exp/rlnn_exp.001.png,,,,,,,,,,,,,,,,,,,,,,,,,,,,,,,,,,,,,,,,,,,,,,,,,,,,,,,,,,,,,,,,,,,,,,,,,,,,,,,,,,,
,,5ee9193db78df9119fe4f7c1,66fc981d46fcc5b0e60e5081,2024-10-02_02h48.10.010,mdp,2024.2.1,Win32,60.24096386,66fa4ebf79326e780c390304,289.249,301.4682,0,1,1,1,1,rlnn_exp/rlnn_exp.002.png,,,,,,,,,,,,,,,,,,,,,,,,,,,,,,,,,,,,,,,,,,,,,,,,,,,,,,,,,,,,,,,,,,,,,,,,,,,,,,,,,,,
,,5ee9193db78df9119fe4f7c1,66fc981d46fcc5b0e60e5081,2024-10-02_02h48.10.010,mdp,2024.2.1,Win32,60.24096386,66fa4ebf79326e780c390304,301.4749,321.5418,0,2,2,2,1,rlnn_exp/rlnn_exp.003.png,,,,,,,,,,,,,,,,,,,,,,,,,,,,,,,,,,,,,,,,,,,,,,,,,,,,,,,,,,,,,,,,,,,,,,,,,,,,,,,,,,,
,,5ee9193db78df9119fe4f7c1,66fc981d46fcc5b0e60e5081,2024-10-02_02h48.10.010,mdp,2024.2.1,Win32,60.24096386,66fa4ebf79326e780c390304,321.548,332.5462,0,3,3,3,1,rlnn_exp/rlnn_exp.004.png,,,,,,,,,,,,,,,,,,,,,,,,,,,,,,,,,,,,,,,,,,,,,,,,,,,,,,,,,,,,,,,,,,,,,,,,,,,,,,,,,,,
,,5ee9193db78df9119fe4f7c1,66fc981d46fcc5b0e60e5081,2024-10-02_02h48.10.010,mdp,2024.2.1,Win32,60.24096386,66fa4ebf79326e780c390304,,,,,,,,,332.5524,343.5504,y,0.9692,,,,,,,,,,,,,,,,,,,,,,,,,,,,,,,,,,,,,,,,,,,,,,,,,,,,,,,,,,,,,,,,,,,,,,,,,,,,,,,
,,5ee9193db78df9119fe4f7c1,66fc981d46fcc5b0e60e5081,2024-10-02_02h48.10.010,mdp,2024.2.1,Win32,60.24096386,66fa4ebf79326e780c390304,,,,,,,,,,,,,,1,seqs/st1seq47.csv,343.5584,345.651,space,1.5766,,345.6534,345.6534,345.6537,347.3185,0,0,left,1.1414,,347.3188,347.3198,,1,,347.3201,347.3207,,1,,1,347.3208,347.3209,347.321,348.8196,0,0,0,0,1,0.8,0.2,0.4,0.6,1,0,,,,,,,,,,,,,,,,,,,,,,,,,,,,,,,,,,,,
,,5ee9193db78df9119fe4f7c1,66fc981d46fcc5b0e60e5081,2024-10-02_02h48.10.010,mdp,2024.2.1,Win32,60.24096386,66fa4ebf79326e780c390304,,,,,,,,,,,,,,,,,,,,,348.8198,348.8198,348.8203,350.1028,0,0,left,0.7794,,350.1034,350.1041,,0,,350.1048,350.1051,,1,,1,350.1051,350.1051,350.1054,351.6033,0,1,1,1,1,0.8,0.2,0.4,0.6,1,0,,,,,,,,,,,,,,,,,,,,,,,,,,,,,,,,,,,,
,,5ee9193db78df9119fe4f7c1,66fc981d46fcc5b0e60e5081,2024-10-02_02h48.10.010,mdp,2024.2.1,Win32,60.24096386,66fa4ebf79326e780c390304,,,,,,,,,,,,,,,,,,,,,351.6036,351.6037,351.6048,352.8203,0,0,left,0.6976,,352.8209,352.8213,,1,,352.8217,352.8222,,0,,1,352.8222,352.8222,352.8225,354.321,0,2,2,2,1,0.8,0.2,0.4,0.6,1,0,,,,,,,,,,,,,,,,,,,,,,,,,,,,,,,,,,,,
,,5ee9193db78df9119fe4f7c1,66fc981d46fcc5b0e60e5081,2024-10-02_02h48.10.010,mdp,2024.2.1,Win32,60.24096386,66fa4ebf79326e780c390304,,,,,,,,,,,,,,,,,,,,,354.3213,354.3213,354.3226,355.438,0,0,left,0.5963,,355.4388,355.4393,,0,,355.4398,355.4402,,1,,1,355.4402,355.4402,355.4405,356.9387,0,3,3,3,1,0.8,0.2,0.4,0.6,1,0,,,,,,,,,,,,,,,,,,,,,,,,,,,,,,,,,,,,
,,5ee9193db78df9119fe4f7c1,66fc981d46fcc5b0e60e5081,2024-10-02_02h48.10.010,mdp,2024.2.1,Win32,60.24096386,66fa4ebf79326e780c390304,,,,,,,,,,,,,,,,,,,,,356.9389,356.939,356.94,358.0895,0,0,left,0.6314,,358.0905,358.0913,,0,,358.0916,358.092,,1,,1,358.092,358.092,358.0923,359.5899,0,4,4,4,1,0.8,0.2,0.4,0.6,1,0,,,,,,,,,,,,,,,,,,,,,,,,,,,,,,,,,,,,
,,5ee9193db78df9119fe4f7c1,66fc981d46fcc5b0e60e5081,2024-10-02_02h48.10.010,mdp,2024.2.1,Win32,60.24096386,66fa4ebf79326e780c390304,,,,,,,,,,,,,,,,,,,,,359.5903,359.5903,359.591,360.6566,1,1,right,0.5436,,360.6574,360.6578,,1,,360.6582,360.6588,,1,,0,360.6589,360.6589,360.6593,362.1575,0,5,5,5,1,0.8,0.2,0.4,0.6,1,0,,,,,,,,,,,,,,,,,,,,,,,,,,,,,,,,,,,,
,,5ee9193db78df9119fe4f7c1,66fc981d46fcc5b0e60e5081,2024-10-02_02h48.10.010,mdp,2024.2.1,Win32,60.24096386,66fa4ebf79326e780c390304,,,,,,,,,,,,,,,,,,,,,362.1577,362.1577,362.1587,363.1744,0,0,left,0.4849,,363.1755,363.1763,,0,,363.1767,363.1772,,0,,1,363.1772,363.1772,363.1776,364.6748,0,6,6,6,1,0.8,0.2,0.4,0.6,1,0,,,,,,,,,,,,,,,,,,,,,,,,,,,,,,,,,,,,
,,5ee9193db78df9119fe4f7c1,66fc981d46fcc5b0e60e5081,2024-10-02_02h48.10.010,mdp,2024.2.1,Win32,60.24096386,66fa4ebf79326e780c390304,,,,,,,,,,,,,,,,,,,,,364.6751,364.6751,364.6767,365.6587,0,0,left,0.4708,,365.6593,365.6598,,0,,365.6603,365.6608,,0,,1,365.6608,365.6608,365.6612,367.1599,0,7,7,7,1,0.8,0.2,0.4,0.6,1,0,,,,,,,,,,,,,,,,,,,,,,,,,,,,,,,,,,,,
,,5ee9193db78df9119fe4f7c1,66fc981d46fcc5b0e60e5081,2024-10-02_02h48.10.010,mdp,2024.2.1,Win32,60.24096386,66fa4ebf79326e780c390304,,,,,,,,,,,,,,,,,,,,,367.1602,367.1603,367.1609,368.1432,0,0,left,0.4547,,368.1443,368.1451,,1,,368.1454,368.1458,,1,,1,368.1458,368.1458,368.1461,369.6434,0,8,8,8,1,0.6,0.4,0.8,0.2,1,0,,,,,,,,,,,,,,,,,,,,,,,,,,,,,,,,,,,,
,,5ee9193db78df9119fe4f7c1,66fc981d46fcc5b0e60e5081,2024-10-02_02h48.10.010,mdp,2024.2.1,Win32,60.24096386,66fa4ebf79326e780c390304,,,,,,,,,,,,,,,,,,,,,369.6438,369.6438,369.6445,370.6272,0,0,left,0.4778,,370.6283,370.6291,,0,,370.6296,370.6299,,1,,1,370.6299,370.6299,370.6302,372.1277,0,9,9,9,1,0.6,0.4,0.8,0.2,1,0,,,,,,,,,,,,,,,,,,,,,,,,,,,,,,,,,,,,
,,5ee9193db78df9119fe4f7c1,66fc981d46fcc5b0e60e5081,2024-10-02_02h48.10.010,mdp,2024.2.1,Win32,60.24096386,66fa4ebf79326e780c390304,,,,,,,,,,,,,,,,,,,,,372.128,372.128,372.1286,373.1447,0,1,left,0.5028,,373.1455,373.1462,,1,,373.1467,373.147,,1,,0,373.147,373.147,373.1473,374.6457,0,10,10,10,1,0.8,0.2,0.4,0.6,1,0,,,,,,,,,,,,,,,,,,,,,,,,,,,,,,,,,,,,
,,5ee9193db78df9119fe4f7c1,66fc981d46fcc5b0e60e5081,2024-10-02_02h48.10.010,mdp,2024.2.1,Win32,60.24096386,66fa4ebf79326e780c390304,,,,,,,,,,,,,,,,,,,,,374.6462,374.6462,374.6471,377.013,0,0,left,1.8358,,377.0136,377.0143,,0,,377.0148,377.0153,,0,,1,377.0153,377.0153,377.0156,378.5136,0,11,11,11,1,0.8,0.2,0.4,0.6,1,0,,,,,,,,,,,,,,,,,,,,,,,,,,,,,,,,,,,,
,,5ee9193db78df9119fe4f7c1,66fc981d46fcc5b0e60e5081,2024-10-02_02h48.10.010,mdp,2024.2.1,Win32,60.24096386,66fa4ebf79326e780c390304,,,,,,,,,,,,,,,,,,,,,378.5142,378.5143,378.5154,379.5642,0,0,left,0.5184,,379.5651,379.5657,,0,,379.5661,379.5665,,1,,1,379.5665,379.5665,379.5668,381.0644,0,12,12,12,1,0.8,0.2,0.4,0.6,1,0,,,,,,,,,,,,,,,,,,,,,,,,,,,,,,,,,,,,
,,5ee9193db78df9119fe4f7c1,66fc981d46fcc5b0e60e5081,2024-10-02_02h48.10.010,mdp,2024.2.1,Win32,60.24096386,66fa4ebf79326e780c390304,,,,,,,,,,,,,,,,,,,,,381.0646,381.0646,381.0654,382.1819,0,0,left,0.6088,,382.1828,382.1835,,0,,382.1839,382.1842,,0,,1,382.1842,382.1842,382.1846,383.6822,0,13,13,13,1,0.8,0.2,0.4,0.6,1,0,,,,,,,,,,,,,,,,,,,,,,,,,,,,,,,,,,,,
,,5ee9193db78df9119fe4f7c1,66fc981d46fcc5b0e60e5081,2024-10-02_02h48.10.010,mdp,2024.2.1,Win32,60.24096386,66fa4ebf79326e780c390304,,,,,,,,,,,,,,,,,,,,,383.6826,383.6826,383.6836,384.7498,0,0,left,0.5367,,384.7509,384.7515,,1,,384.7519,384.7522,,1,,1,384.7522,384.7522,384.7525,386.2498,0,14,14,14,1,0.8,0.2,0.4,0.6,1,0,,,,,,,,,,,,,,,,,,,,,,,,,,,,,,,,,,,,
,,5ee9193db78df9119fe4f7c1,66fc981d46fcc5b0e60e5081,2024-10-02_02h48.10.010,mdp,2024.2.1,Win32,60.24096386,66fa4ebf79326e780c390304,,,,,,,,,,,,,,,,,,,,,386.2499,386.2499,386.2506,387.2671,0,0,left,0.5003,,387.2681,387.2691,,0,,387.2694,387.2698,,0,,1,387.2698,387.2698,387.2702,388.7679,0,15,15,15,1,0.8,0.2,0.4,0.6,1,0,,,,,,,,,,,,,,,,,,,,,,,,,,,,,,,,,,,,
,,5ee9193db78df9119fe4f7c1,66fc981d46fcc5b0e60e5081,2024-10-02_02h48.10.010,mdp,2024.2.1,Win32,60.24096386,66fa4ebf79326e780c390304,,,,,,,,,,,,,,,,,,,,,388.7683,388.7683,388.7693,389.4684,0,0,left,0.1674,,389.4695,389.4701,,0,,389.4704,389.4708,,1,,1,389.4708,389.4708,389.471,390.9682,0,16,16,16,1,0.8,0.2,0.4,0.6,1,0,,,,,,,,,,,,,,,,,,,,,,,,,,,,,,,,,,,,
,,5ee9193db78df9119fe4f7c1,66fc981d46fcc5b0e60e5081,2024-10-02_02h48.10.010,mdp,2024.2.1,Win32,60.24096386,66fa4ebf79326e780c390304,,,,,,,,,,,,,,,,,,,,,390.9687,390.9687,390.9698,391.9191,0,0,left,0.4424,,391.9202,391.9208,,0,,391.9212,391.9215,,0,,1,391.9215,391.9215,391.9217,393.4201,0,17,17,17,1,0.8,0.2,0.4,0.6,1,0,,,,,,,,,,,,,,,,,,,,,,,,,,,,,,,,,,,,
,,5ee9193db78df9119fe4f7c1,66fc981d46fcc5b0e60e5081,2024-10-02_02h48.10.010,mdp,2024.2.1,Win32,60.24096386,66fa4ebf79326e780c390304,,,,,,,,,,,,,,,,,,,,,393.4206,393.4206,393.4213,394.4198,0,0,left,0.471,,394.4207,394.4214,,1,,394.4219,394.4222,,0,,1,394.4222,394.4222,394.4227,395.9203,0,18,18,18,1,0.8,0.2,0.4,0.6,1,0,,,,,,,,,,,,,,,,,,,,,,,,,,,,,,,,,,,,
,,5ee9193db78df9119fe4f7c1,66fc981d46fcc5b0e60e5081,2024-10-02_02h48.10.010,mdp,2024.2.1,Win32,60.24096386,66fa4ebf79326e780c390304,,,,,,,,,,,,,,,,,,,,,395.9207,395.9207,395.9212,396.8203,0,1,left,0.3753,,396.8209,396.8213,,0,,396.822,396.8227,,0,,0,396.8228,396.8228,396.8233,398.321,0,19,19,19,1,0.6,0.4,0.6,0.4,1,0,,,,,,,,,,,,,,,,,,,,,,,,,,,,,,,,,,,,
,,5ee9193db78df9119fe4f7c1,66fc981d46fcc5b0e60e5081,2024-10-02_02h48.10.010,mdp,2024.2.1,Win32,60.24096386,66fa4ebf79326e780c390304,,,,,,,,,,,,,,,,,,,,,398.3214,398.3214,398.3224,400.2217,0,0,left,1.367,,400.2226,400.2232,,0,,400.2238,400.2241,,0,,1,400.2241,400.2241,400.2245,401.7225,0,20,20,20,1,0.6,0.4,0.6,0.4,1,0,,,,,,,,,,,,,,,,,,,,,,,,,,,,,,,,,,,,
,,5ee9193db78df9119fe4f7c1,66fc981d46fcc5b0e60e5081,2024-10-02_02h48.10.010,mdp,2024.2.1,Win32,60.24096386,66fa4ebf79326e780c390304,,,,,,,,,,,,,,,,,,,,,401.7228,401.7228,401.7233,402.7898,0,0,left,0.5349,,402.7905,402.7909,,0,,402.7913,402.7917,,0,,1,402.7918,402.7918,402.792,404.2902,0,21,21,21,1,0.6,0.4,0.6,0.4,1,0,,,,,,,,,,,,,,,,,,,,,,,,,,,,,,,,,,,,
,,5ee9193db78df9119fe4f7c1,66fc981d46fcc5b0e60e5081,2024-10-02_02h48.10.010,mdp,2024.2.1,Win32,60.24096386,66fa4ebf79326e780c390304,,,,,,,,,,,,,,,,,,,,,404.2906,404.2906,404.2912,405.2573,0,0,left,0.4331,,405.2581,405.2586,,0,,405.2591,405.2595,,0,,1,405.2595,405.2595,405.2599,406.7577,0,22,22,22,1,0.8,0.2,0.8,0.2,1,0,,,,,,,,,,,,,,,,,,,,,,,,,,,,,,,,,,,,
,,5ee9193db78df9119fe4f7c1,66fc981d46fcc5b0e60e5081,2024-10-02_02h48.10.010,mdp,2024.2.1,Win32,60.24096386,66fa4ebf79326e780c390304,,,,,,,,,,,,,,,,,,,,,406.7581,406.7581,406.7587,407.7915,0,0,left,0.5182,,407.7928,407.7934,,0,,407.7937,407.7941,,1,,1,407.7941,407.7941,407.7944,409.2918,0,23,23,23,1,0.8,0.2,0.8,0.2,1,0,,,,,,,,,,,,,,,,,,,,,,,,,,,,,,,,,,,,
,,5ee9193db78df9119fe4f7c1,66fc981d46fcc5b0e60e5081,2024-10-02_02h48.10.010,mdp,2024.2.1,Win32,60.24096386,66fa4ebf79326e780c390304,,,,,,,,,,,,,,,,,,,,,409.2922,409.2922,409.2932,410.2426,0,0,left,0.4188,,410.2435,410.2441,,1,,410.2444,410.2447,,0,,1,410.2448,410.2448,410.2449,411.7431,0,24,24,24,1,0.8,0.2,0.8,0.2,1,0,,,,,,,,,,,,,,,,,,,,,,,,,,,,,,,,,,,,
,,5ee9193db78df9119fe4f7c1,66fc981d46fcc5b0e60e5081,2024-10-02_02h48.10.010,mdp,2024.2.1,Win32,60.24096386,66fa4ebf79326e780c390304,,,,,,,,,,,,,,,,,,,,,411.7435,411.7435,411.7443,412.5933,0,1,left,0.3267,,412.5939,412.5944,,0,,412.5947,412.5952,,0,,0,412.5953,412.5953,412.5955,414.0938,0,25,25,25,1,0.8,0.2,0.8,0.2,1,0,,,,,,,,,,,,,,,,,,,,,,,,,,,,,,,,,,,,
,,5ee9193db78df9119fe4f7c1,66fc981d46fcc5b0e60e5081,2024-10-02_02h48.10.010,mdp,2024.2.1,Win32,60.24096386,66fa4ebf79326e780c390304,,,,,,,,,,,,,,,,,,,,,414.0944,414.0944,414.0952,416.9952,0,0,left,2.3818,,417.001,417.0014,,0,,417.0018,417.0022,,0,,1,417.0022,417.0022,417.0025,418.4955,0,26,26,26,1,0.8,0.2,0.8,0.2,1,0,,,,,,,,,,,,,,,,,,,,,,,,,,,,,,,,,,,,
,,5ee9193db78df9119fe4f7c1,66fc981d46fcc5b0e60e5081,2024-10-02_02h48.10.010,mdp,2024.2.1,Win32,60.24096386,66fa4ebf79326e780c390304,,,,,,,,,,,,,,,,,,,,,418.4958,418.4959,418.4966,419.0795,0,0,left,0.0498,,419.0804,419.0809,,0,,419.0816,419.0821,,0,,1,419.0821,419.0821,419.0825,420.5798,0,27,27,27,1,0.6,0.4,0.2,0.8,1,0,,,,,,,,,,,,,,,,,,,,,,,,,,,,,,,,,,,,
,,5ee9193db78df9119fe4f7c1,66fc981d46fcc5b0e60e5081,2024-10-02_02h48.10.010,mdp,2024.2.1,Win32,60.24096386,66fa4ebf79326e780c390304,,,,,,,,,,,,,,,,,,,,,420.5801,420.5801,420.5806,421.4633,0,0,left,0.359,,421.464,421.4647,,1,,421.4651,421.4655,,0,,1,421.4656,421.4656,421.4658,422.9639,0,28,28,28,1,0.6,0.4,0.2,0.8,1,0,,,,,,,,,,,,,,,,,,,,,,,,,,,,,,,,,,,,
,,5ee9193db78df9119fe4f7c1,66fc981d46fcc5b0e60e5081,2024-10-02_02h48.10.010,mdp,2024.2.1,Win32,60.24096386,66fa4ebf79326e780c390304,,,,,,,,,,,,,,,,,,,,,422.9643,422.9643,422.9652,423.714,0,0,left,0.225,,423.7146,423.7151,,1,,423.7158,423.7161,,0,,1,423.7161,423.7161,423.7164,425.2148,0,29,29,29,1,0.6,0.4,0.2,0.8,1,0,,,,,,,,,,,,,,,,,,,,,,,,,,,,,,,,,,,,
,,5ee9193db78df9119fe4f7c1,66fc981d46fcc5b0e60e5081,2024-10-02_02h48.10.010,mdp,2024.2.1,Win32,60.24096386,66fa4ebf79326e780c390304,,,,,,,,,,,,,,,,,,,,,425.2152,425.2152,425.216,425.8988,0,1,left,0.151,,425.8997,425.9002,,1,,425.9007,425.901,,1,,0,425.901,425.901,425.9013,427.3993,0,30,30,30,1,0.2,0.8,0.6,0.4,1,0,,,,,,,,,,,,,,,,,,,,,,,,,,,,,,,,,,,,
,,5ee9193db78df9119fe4f7c1,66fc981d46fcc5b0e60e5081,2024-10-02_02h48.10.010,mdp,2024.2.1,Win32,60.24096386,66fa4ebf79326e780c390304,,,,,,,,,,,,,,,,,,,,,427.3995,427.3995,427.4003,428.8994,0,1,left,0.9794,,428.9002,428.9007,,0,,428.901,428.9015,,0,,0,428.9016,428.9016,428.9019,430.3998,0,31,31,31,1,0.4,0.6,0.8,0.2,1,0,,,,,,,,,,,,,,,,,,,,,,,,,,,,,,,,,,,,
,,5ee9193db78df9119fe4f7c1,66fc981d46fcc5b0e60e5081,2024-10-02_02h48.10.010,mdp,2024.2.1,Win32,60.24096386,66fa4ebf79326e780c390304,,,,,,,,,,,,,,,,,,,,,430.4002,430.4002,430.401,431.6173,0,0,left,0.6901,,431.6181,431.6189,,0,,431.6193,431.6195,,0,,1,431.6196,431.6196,431.6198,433.1181,0,32,32,32,1,0.6,0.4,0.4,0.6,1,0,,,,,,,,,,,,,,,,,,,,,,,,,,,,,,,,,,,,
,,5ee9193db78df9119fe4f7c1,66fc981d46fcc5b0e60e5081,2024-10-02_02h48.10.010,mdp,2024.2.1,Win32,60.24096386,66fa4ebf79326e780c390304,,,,,,,,,,,,,,,,,,,,,433.1188,433.1188,433.1196,435.4355,0,0,left,1.7892,,435.4367,435.4373,,1,,435.4377,435.438,,0,,1,435.438,435.438,435.4383,436.9359,0,33,33,33,1,0.6,0.4,0.4,0.6,1,0,,,,,,,,,,,,,,,,,,,,,,,,,,,,,,,,,,,,
,,5ee9193db78df9119fe4f7c1,66fc981d46fcc5b0e60e5081,2024-10-02_02h48.10.010,mdp,2024.2.1,Win32,60.24096386,66fa4ebf79326e780c390304,,,,,,,,,,,,,,,,,,,,,436.9362,436.9362,436.9367,437.8363,0,0,left,0.377,,437.8369,437.8376,,0,,437.8381,437.8387,,1,,1,437.8387,437.8387,437.8392,439.3368,0,34,34,34,1,0.6,0.4,0.4,0.6,1,0,,,,,,,,,,,,,,,,,,,,,,,,,,,,,,,,,,,,
,,5ee9193db78df9119fe4f7c1,66fc981d46fcc5b0e60e5081,2024-10-02_02h48.10.010,mdp,2024.2.1,Win32,60.24096386,66fa4ebf79326e780c390304,,,,,,,,,,,,,,,,,,,,,439.337,439.337,439.3375,440.0035,0,0,left,0.146,,440.0041,440.0049,,0,,440.0053,440.0057,,0,,1,440.0057,440.0057,440.006,441.5047,0,35,35,35,1,0.6,0.4,0.4,0.6,1,0,,,,,,,,,,,,,,,,,,,,,,,,,,,,,,,,,,,,
,,5ee9193db78df9119fe4f7c1,66fc981d46fcc5b0e60e5081,2024-10-02_02h48.10.010,mdp,2024.2.1,Win32,60.24096386,66fa4ebf79326e780c390304,,,,,,,,,,,,,,,,,,,,,441.505,441.505,441.5055,442.3881,0,1,left,0.3511,,442.3891,442.3898,,0,,442.3904,442.3906,,1,,0,442.3906,442.3906,442.3909,443.8882,0,36,36,36,1,0.6,0.4,0.4,0.6,1,0,,,,,,,,,,,,,,,,,,,,,,,,,,,,,,,,,,,,
,,5ee9193db78df9119fe4f7c1,66fc981d46fcc5b0e60e5081,2024-10-02_02h48.10.010,mdp,2024.2.1,Win32,60.24096386,66fa4ebf79326e780c390304,,,,,,,,,,,,,,,,,,,,,443.8885,443.8886,443.8891,444.8726,0,1,left,0.4667,,444.8737,444.8742,,1,,444.8745,444.8748,,1,,0,444.8748,444.8748,444.875,446.3727,0,37,37,37,1,0.6,0.4,0.4,0.6,1,0,,,,,,,,,,,,,,,,,,,,,,,,,,,,,,,,,,,,
,,5ee9193db78df9119fe4f7c1,66fc981d46fcc5b0e60e5081,2024-10-02_02h48.10.010,mdp,2024.2.1,Win32,60.24096386,66fa4ebf79326e780c390304,,,,,,,,,,,,,,,,,,,,,446.3732,446.3732,446.3737,447.0067,0,0,left,0.1025,,447.0073,447.0078,,1,,447.0084,447.0087,,0,,1,447.0087,447.0087,447.009,448.5069,0,38,38,38,1,0.6,0.4,0.4,0.6,1,0,,,,,,,,,,,,,,,,,,,,,,,,,,,,,,,,,,,,
,,5ee9193db78df9119fe4f7c1,66fc981d46fcc5b0e60e5081,2024-10-02_02h48.10.010,mdp,2024.2.1,Win32,60.24096386,66fa4ebf79326e780c390304,,,,,,,,,,,,,,,,,,,,,448.5074,448.5074,448.508,449.1404,1,0,right,0.1133,,449.1411,449.1418,,0,,449.1424,449.1427,,0,,1,449.1427,449.1428,449.143,450.6408,0,39,39,39,1,0.6,0.4,0.4,0.6,1,0,,,,,,,,,,,,,,,,,,,,,,,,,,,,,,,,,,,,
,,5ee9193db78df9119fe4f7c1,66fc981d46fcc5b0e60e5081,2024-10-02_02h48.10.010,mdp,2024.2.1,Win32,60.24096386,66fa4ebf79326e780c390304,,,,,,,,,,,,,,,,,,,,,450.641,450.641,450.6425,452.1084,1,1,right,0.9509,,452.1098,452.1102,,0,,452.1107,452.1111,,1,,0,452.1111,452.1111,452.1114,453.6088,0,40,40,40,1,0.6,0.4,0.4,0.6,1,0,,,,,,,,,,,,,,,,,,,,,,,,,,,,,,,,,,,,
,,5ee9193db78df9119fe4f7c1,66fc981d46fcc5b0e60e5081,2024-10-02_02h48.10.010,mdp,2024.2.1,Win32,60.24096386,66fa4ebf79326e780c390304,,,,,,,,,,,,,,,,,,,,,453.609,453.609,453.6096,454.2256,0,1,left,0.09,,454.2262,454.2266,,1,,454.227,454.2276,,0,,0,454.2276,454.2276,454.2281,455.7261,0,41,41,41,1,0.2,0.8,0.8,0.2,1,0,,,,,,,,,,,,,,,,,,,,,,,,,,,,,,,,,,,,
,,5ee9193db78df9119fe4f7c1,66fc981d46fcc5b0e60e5081,2024-10-02_02h48.10.010,mdp,2024.2.1,Win32,60.24096386,66fa4ebf79326e780c390304,,,,,,,,,,,,,,,,,,,,,455.7263,455.7263,455.7268,456.4766,1,0,right,0.24,,456.4775,456.4781,,0,,456.4786,456.4789,,1,,1,456.479,456.479,456.4792,457.9774,0,42,42,42,1,0.2,0.8,0.8,0.2,1,0,,,,,,,,,,,,,,,,,,,,,,,,,,,,,,,,,,,,
,,5ee9193db78df9119fe4f7c1,66fc981d46fcc5b0e60e5081,2024-10-02_02h48.10.010,mdp,2024.2.1,Win32,60.24096386,66fa4ebf79326e780c390304,,,,,,,,,,,,,,,,,,,,,457.9778,457.9778,457.9787,458.9444,1,0,right,0.4335,,458.9456,458.9463,,0,,458.9467,458.947,,0,,1,458.947,458.947,458.9473,460.4445,0,43,43,43,1,0.2,0.8,0.8,0.2,1,0,,,,,,,,,,,,,,,,,,,,,,,,,,,,,,,,,,,,
,,5ee9193db78df9119fe4f7c1,66fc981d46fcc5b0e60e5081,2024-10-02_02h48.10.010,mdp,2024.2.1,Win32,60.24096386,66fa4ebf79326e780c390304,,,,,,,,,,,,,,,,,,,,,460.4448,460.4448,460.4457,461.2618,1,1,right,0.3057,,461.2627,461.2632,,1,,461.2637,461.264,,1,,0,461.264,461.264,461.2643,462.7622,0,44,44,44,1,0.2,0.8,0.8,0.2,1,0,,,,,,,,,,,,,,,,,,,,,,,,,,,,,,,,,,,,
,,5ee9193db78df9119fe4f7c1,66fc981d46fcc5b0e60e5081,2024-10-02_02h48.10.010,mdp,2024.2.1,Win32,60.24096386,66fa4ebf79326e780c390304,,,,,,,,,,,,,,,,,,,,,462.7624,462.7625,462.7632,463.5125,0,0,left,0.2388,,463.5134,463.514,,1,,463.5143,463.5147,,0,,1,463.5147,463.5147,463.5149,465.0133,0,45,45,45,1,0.2,0.8,0.8,0.2,1,0,,,,,,,,,,,,,,,,,,,,,,,,,,,,,,,,,,,,
,,5ee9193db78df9119fe4f7c1,66fc981d46fcc5b0e60e5081,2024-10-02_02h48.10.010,mdp,2024.2.1,Win32,60.24096386,66fa4ebf79326e780c390304,,,,,,,,,,,,,,,,,,,,,465.0136,465.0136,465.0144,465.6636,0,1,left,0.123,,465.6646,465.6649,,0,,465.6653,465.6657,,1,,0,465.6658,465.6658,465.666,467.1639,0,46,46,46,1,0.2,0.8,0.8,0.2,1,0,,,,,,,,,,,,,,,,,,,,,,,,,,,,,,,,,,,,
,,5ee9193db78df9119fe4f7c1,66fc981d46fcc5b0e60e5081,2024-10-02_02h48.10.010,mdp,2024.2.1,Win32,60.24096386,66fa4ebf79326e780c390304,,,,,,,,,,,,,,,,,,,,,467.1642,467.1642,467.1649,467.9144,0,1,left,0.2392,,467.9156,467.9163,,1,,467.9168,467.9171,,1,,0,467.9171,467.9171,467.9174,469.4147,0,47,47,47,1,0.2,0.8,0.8,0.2,1,0,,,,,,,,,,,,,,,,,,,,,,,,,,,,,,,,,,,,
,,5ee9193db78df9119fe4f7c1,66fc981d46fcc5b0e60e5081,2024-10-02_02h48.10.010,mdp,2024.2.1,Win32,60.24096386,66fa4ebf79326e780c390304,,,,,,,,,,,,,,,,,,,,,469.4151,469.4151,469.4157,470.3318,0,0,left,0.4076,,470.3325,470.3331,,1,,470.3337,470.3342,,1,,1,470.3342,470.3342,470.3344,471.8324,0,48,48,48,1,0.4,0.6,0.6,0.4,1,0,,,,,,,,,,,,,,,,,,,,,,,,,,,,,,,,,,,,
,,5ee9193db78df9119fe4f7c1,66fc981d46fcc5b0e60e5081,2024-10-02_02h48.10.010,mdp,2024.2.1,Win32,60.24096386,66fa4ebf79326e780c390304,,,,,,,,,,,,,,,,,,,,,471.8327,471.8327,471.8335,472.7495,1,0,right,0.4029,,472.7502,472.7505,,0,,472.7509,472.7515,,0,,1,472.7516,472.7516,472.752,474.25,0,49,49,49,1,0.2,0.8,0.8,0.2,1,0,,,,,,,,,,,,,,,,,,,,,,,,,,,,,,,,,,,,
,,5ee9193db78df9119fe4f7c1,66fc981d46fcc5b0e60e5081,2024-10-02_02h48.10.010,mdp,2024.2.1,Win32,60.24096386,66fa4ebf79326e780c390304,,,,,,,,,,,,,,,,,,,,,,,,,,,,,,,,,,,,,,,,,,,,,,,,,,,,,,,,474.2504,532.7564,0,0,0,8,1,imgs/giraffe.png,imgs/horse.png,imgs/lion.png,imgs/elephant.png,imgs/rabbit.png,,,,,,,,,,,,,,,,,,,,,,,,
,,5ee9193db78df9119fe4f7c1,66fc981d46fcc5b0e60e5081,2024-10-02_02h48.10.010,mdp,2024.2.1,Win32,60.24096386,66fa4ebf79326e780c390304,,,,,,,,,,,,,,2,seqs/st2seq17.csv,532.7629,543.1267,space,9.8424,,543.136,543.136,543.1365,545.1436,0,0,left,1.4844,,545.1445,547.7781,0,0,left,547.779,547.7796,,0,,1,547.7796,547.7796,547.7801,549.2786,0,0,0,0,1,0.8,0.2,0.4,0.6,,,,,,,,,,,,,,,2.1208,,0.8,0.2,0.4,0.6,0.4,0.6,0.2,0.8,1,0,,,,,,,,,,,,
,,5ee9193db78df9119fe4f7c1,66fc981d46fcc5b0e60e5081,2024-10-02_02h48.10.010,mdp,2024.2.1,Win32,60.24096386,66fa4ebf79326e780c390304,,,,,,,,,,,,,,,,,,,,,549.2789,549.2789,549.2796,550.4792,0,1,left,0.6891,,550.4805,551.5292,0,0,left,551.5299,551.5305,,0,,1,551.5305,551.5305,551.5311,553.03,0,1,1,1,1,0.8,0.2,0.4,0.6,,,,,,,,,,,,,,,0.5412,,0.8,0.2,0.4,0.6,0.4,0.6,0.2,0.8,1,0,,,,,,,,,,,,
,,5ee9193db78df9119fe4f7c1,66fc981d46fcc5b0e60e5081,2024-10-02_02h48.10.010,mdp,2024.2.1,Win32,60.24096386,66fa4ebf79326e780c390304,,,,,,,,,,,,,,,,,,,,,553.0303,553.0303,553.0307,554.1643,0,1,left,0.6028,,554.1651,555.3975,0,0,left,555.3984,555.3992,,0,,1,555.3992,555.3992,555.3997,556.8979,0,2,2,2,1,0.8,0.2,0.4,0.6,,,,,,,,,,,,,,,0.7057,,0.8,0.2,0.4,0.6,0.4,0.6,0.2,0.8,1,0,,,,,,,,,,,,
,,5ee9193db78df9119fe4f7c1,66fc981d46fcc5b0e60e5081,2024-10-02_02h48.10.010,mdp,2024.2.1,Win32,60.24096386,66fa4ebf79326e780c390304,,,,,,,,,,,,,,,,,,,,,556.8982,556.8982,556.8991,557.9152,0,0,left,0.501,,557.9161,559.0494,0,0,left,559.05,559.0504,,0,,1,559.0504,559.0504,559.0507,560.5493,0,3,3,3,1,0.8,0.2,0.4,0.6,,,,,,,,,,,,,,,0.6185,,0.8,0.2,0.4,0.6,0.4,0.6,0.2,0.8,1,0,,,,,,,,,,,,
,,5ee9193db78df9119fe4f7c1,66fc981d46fcc5b0e60e5081,2024-10-02_02h48.10.010,mdp,2024.2.1,Win32,60.24096386,66fa4ebf79326e780c390304,,,,,,,,,,,,,,,,,,,,,560.5498,560.5498,560.5506,561.5168,0,0,left,0.4393,,561.5177,562.5003,0,1,left,562.5008,562.5013,,0,,0,562.5013,562.5013,562.5017,564.0006,0,4,4,4,1,0.8,0.2,0.4,0.6,,,,,,,,,,,,,,,0.4504,,0.8,0.2,0.4,0.6,0.4,0.6,0.2,0.8,1,0,,,,,,,,,,,,
,,5ee9193db78df9119fe4f7c1,66fc981d46fcc5b0e60e5081,2024-10-02_02h48.10.010,mdp,2024.2.1,Win32,60.24096386,66fa4ebf79326e780c390304,,,,,,,,,,,,,,,,,,,,,564.0009,564.0009,564.0016,565.1186,0,0,left,0.5889,,565.1197,566.719,0,1,left,566.7199,566.7206,,0,,0,566.7207,566.7207,566.7211,568.219,0,5,5,5,1,0.8,0.2,0.4,0.6,,,,,,,,,,,,,,,1.0755,,0.8,0.2,0.4,0.6,0.4,0.6,0.2,0.8,1,0,,,,,,,,,,,,
,,5ee9193db78df9119fe4f7c1,66fc981d46fcc5b0e60e5081,2024-10-02_02h48.10.010,mdp,2024.2.1,Win32,60.24096386,66fa4ebf79326e780c390304,,,,,,,,,,,,,,,,,,,,,568.2194,568.2194,568.2201,569.2363,0,0,left,0.5016,,569.2373,570.4698,0,0,left,570.4704,570.4709,,0,,1,570.4709,570.4709,570.4713,571.9706,0,6,6,6,1,0.8,0.2,0.4,0.6,,,,,,,,,,,,,,,0.7301,,0.8,0.2,0.4,0.6,0.4,0.6,0.2,0.8,1,0,,,,,,,,,,,,
,,5ee9193db78df9119fe4f7c1,66fc981d46fcc5b0e60e5081,2024-10-02_02h48.10.010,mdp,2024.2.1,Win32,60.24096386,66fa4ebf79326e780c390304,,,,,,,,,,,,,,,,,,,,,571.9709,571.9709,571.9713,572.9045,0,0,left,0.4083,,572.9054,574.138,0,0,left,574.139,574.1396,,0,,1,574.1396,574.1396,574.1401,575.639,0,7,7,7,1,0.8,0.2,0.4,0.6,,,,,,,,,,,,,,,0.7112,,0.8,0.2,0.4,0.6,0.4,0.6,0.2,0.8,1,0,,,,,,,,,,,,
,,5ee9193db78df9119fe4f7c1,66fc981d46fcc5b0e60e5081,2024-10-02_02h48.10.010,mdp,2024.2.1,Win32,60.24096386,66fa4ebf79326e780c390304,,,,,,,,,,,,,,,,,,,,,575.6395,575.6395,575.6406,576.6389,0,0,left,0.4757,,576.6399,577.9898,1,1,right,577.9906,577.9913,,1,,0,577.9914,577.9914,577.992,579.49,0,8,8,8,1,0.8,0.2,0.4,0.6,,,,,,,,,,,,,,,0.8418,,0.8,0.2,0.4,0.6,0.4,0.6,0.2,0.8,1,0,,,,,,,,,,,,
,,5ee9193db78df9119fe4f7c1,66fc981d46fcc5b0e60e5081,2024-10-02_02h48.10.010,mdp,2024.2.1,Win32,60.24096386,66fa4ebf79326e780c390304,,,,,,,,,,,,,,,,,,,,,579.4903,579.4903,579.491,580.9905,0,0,left,0.9715,,580.9914,582.2244,1,0,right,582.2253,582.226,,0,,1,582.226,582.226,582.2265,583.725,0,9,9,9,1,0.8,0.2,0.4,0.6,,,,,,,,,,,,,,,0.7246,,0.8,0.2,0.4,0.6,0.2,0.8,0.6,0.4,1,0,,,,,,,,,,,,
,,5ee9193db78df9119fe4f7c1,66fc981d46fcc5b0e60e5081,2024-10-02_02h48.10.010,mdp,2024.2.1,Win32,60.24096386,66fa4ebf79326e780c390304,,,,,,,,,,,,,,,,,,,,,583.7255,583.7256,583.7264,585.2923,0,0,left,1.0445,,585.2932,586.7426,0,0,left,586.7433,586.744,,0,,1,586.744,586.744,586.7444,588.2433,0,10,10,10,1,0.8,0.2,0.4,0.6,,,,,,,,,,,,,,,0.938,,0.8,0.2,0.4,0.6,0.2,0.8,0.6,0.4,1,0,,,,,,,,,,,,
,,5ee9193db78df9119fe4f7c1,66fc981d46fcc5b0e60e5081,2024-10-02_02h48.10.010,mdp,2024.2.1,Win32,60.24096386,66fa4ebf79326e780c390304,,,,,,,,,,,,,,,,,,,,,588.2436,588.2436,588.2443,589.444,0,0,left,0.6978,,589.4448,591.7952,0,1,left,591.7959,591.7963,,0,,0,591.7964,591.7964,591.7966,593.2956,0,11,11,11,1,0.8,0.2,0.4,0.6,,,,,,,,,,,,,,,1.8177,,0.8,0.2,0.4,0.6,0.2,0.8,0.6,0.4,1,0,,,,,,,,,,,,
,,5ee9193db78df9119fe4f7c1,66fc981d46fcc5b0e60e5081,2024-10-02_02h48.10.010,mdp,2024.2.1,Win32,60.24096386,66fa4ebf79326e780c390304,,,,,,,,,,,,,,,,,,,,,593.2961,593.2961,593.297,594.3125,0,0,left,0.4841,,594.3133,595.7128,1,1,right,595.7135,595.7139,,0,,0,595.7139,595.7139,595.7146,597.2134,0,12,12,12,1,0.8,0.2,0.4,0.6,,,,,,,,,,,,,,,0.8711,,0.8,0.2,0.4,0.6,0.2,0.8,0.6,0.4,1,0,,,,,,,,,,,,
,,5ee9193db78df9119fe4f7c1,66fc981d46fcc5b0e60e5081,2024-10-02_02h48.10.010,mdp,2024.2.1,Win32,60.24096386,66fa4ebf79326e780c390304,,,,,,,,,,,,,,,,,,,,,597.2138,597.2138,597.2146,598.1805,0,1,left,0.441,,598.1813,599.0978,1,1,right,599.0987,599.0994,,0,,0,599.0994,599.0994,599.1,600.5986,0,13,13,13,1,0.8,0.2,0.4,0.6,,,,,,,,,,,,,,,0.388,,0.8,0.2,0.4,0.6,0.2,0.8,0.6,0.4,1,0,,,,,,,,,,,,
,,5ee9193db78df9119fe4f7c1,66fc981d46fcc5b0e60e5081,2024-10-02_02h48.10.010,mdp,2024.2.1,Win32,60.24096386,66fa4ebf79326e780c390304,,,,,,,,,,,,,,,,,,,,,600.5991,600.5991,600.5999,601.8152,0,0,left,0.691,,601.8163,603.8324,1,1,right,603.833,603.8335,,0,,0,603.8335,603.8335,603.834,605.3335,0,14,14,14,1,0.8,0.2,0.4,0.6,,,,,,,,,,,,,,,1.5103,,0.8,0.2,0.4,0.6,0.4,0.6,0.4,0.6,1,0,,,,,,,,,,,,
,,5ee9193db78df9119fe4f7c1,66fc981d46fcc5b0e60e5081,2024-10-02_02h48.10.010,mdp,2024.2.1,Win32,60.24096386,66fa4ebf79326e780c390304,,,,,,,,,,,,,,,,,,,,,605.3338,605.3338,605.3347,606.3174,0,0,left,0.4503,,606.3183,607.4505,1,0,right,607.4514,607.4523,,1,,1,607.4523,607.4523,607.453,608.9512,0,15,15,15,1,0.6,0.4,0.6,0.4,,,,,,,,,,,,,,,0.6029,,0.8,0.2,0.4,0.6,0.4,0.6,0.4,0.6,1,0,,,,,,,,,,,,
,,5ee9193db78df9119fe4f7c1,66fc981d46fcc5b0e60e5081,2024-10-02_02h48.10.010,mdp,2024.2.1,Win32,60.24096386,66fa4ebf79326e780c390304,,,,,,,,,,,,,,,,,,,,,608.9515,608.9515,608.9527,609.9349,0,0,left,0.4593,,609.9358,611.6027,0,0,left,611.6037,611.6044,,1,,1,611.6044,611.6044,611.605,613.1028,0,16,16,16,1,0.6,0.4,0.6,0.4,,,,,,,,,,,,,,,1.1621,,0.8,0.2,0.4,0.6,0.4,0.6,0.4,0.6,1,0,,,,,,,,,,,,
,,5ee9193db78df9119fe4f7c1,66fc981d46fcc5b0e60e5081,2024-10-02_02h48.10.010,mdp,2024.2.1,Win32,60.24096386,66fa4ebf79326e780c390304,,,,,,,,,,,,,,,,,,,,,613.1032,613.1032,613.1039,613.9531,1,0,right,0.3285,,613.9538,616.2539,0,0,left,616.2546,616.2552,,0,,1,616.2552,616.2552,616.2556,617.7547,0,17,17,17,1,0.6,0.4,0.6,0.4,,,,,,,,,,,,,,,1.7937,,0.4,0.6,0.8,0.2,0.4,0.6,0.4,0.6,1,0,,,,,,,,,,,,
,,5ee9193db78df9119fe4f7c1,66fc981d46fcc5b0e60e5081,2024-10-02_02h48.10.010,mdp,2024.2.1,Win32,60.24096386,66fa4ebf79326e780c390304,,,,,,,,,,,,,,,,,,,,,617.7552,617.7552,617.7558,618.6883,1,0,right,0.4118,,618.6891,619.7558,0,0,left,619.7568,619.7575,,1,,1,619.7575,619.7575,619.758,621.2558,0,18,18,18,1,0.6,0.4,0.6,0.4,,,,,,,,,,,,,,,0.5349,,0.4,0.6,0.8,0.2,0.4,0.6,0.4,0.6,1,0,,,,,,,,,,,,
,,5ee9193db78df9119fe4f7c1,66fc981d46fcc5b0e60e5081,2024-10-02_02h48.10.010,mdp,2024.2.1,Win32,60.24096386,66fa4ebf79326e780c390304,,,,,,,,,,,,,,,,,,,,,621.2561,621.2561,621.2568,622.1563,1,0,right,0.3676,,622.1572,623.4734,0,0,left,623.4745,623.475,,1,,1,623.475,623.475,623.4757,624.9742,0,19,19,19,1,0.6,0.4,0.6,0.4,,,,,,,,,,,,,,,0.8047,,0.4,0.6,0.8,0.2,0.4,0.6,0.4,0.6,1,0,,,,,,,,,,,,
,,5ee9193db78df9119fe4f7c1,66fc981d46fcc5b0e60e5081,2024-10-02_02h48.10.010,mdp,2024.2.1,Win32,60.24096386,66fa4ebf79326e780c390304,,,,,,,,,,,,,,,,,,,,,624.9745,624.9745,624.9752,625.8078,1,1,right,0.3018,,625.8092,627.4591,1,0,right,627.4598,627.4603,,1,,1,627.4603,627.4603,627.4608,628.9593,0,20,20,20,1,0.6,0.4,0.6,0.4,,,,,,,,,,,,,,,1.1226,,0.4,0.6,0.8,0.2,0.4,0.6,0.4,0.6,1,0,,,,,,,,,,,,
,,5ee9193db78df9119fe4f7c1,66fc981d46fcc5b0e60e5081,2024-10-02_02h48.10.010,mdp,2024.2.1,Win32,60.24096386,66fa4ebf79326e780c390304,,,,,,,,,,,,,,,,,,,,,628.9595,628.9595,628.9607,629.9424,1,1,right,0.4632,,629.9429,631.3266,1,0,right,631.328,631.3287,,1,,1,631.3287,631.3287,631.3292,632.8271,0,21,21,21,1,0.6,0.4,0.6,0.4,,,,,,,,,,,,,,,0.8752,,0.6,0.4,0.4,0.6,0.4,0.6,0.4,0.6,1,0,,,,,,,,,,,,
,,5ee9193db78df9119fe4f7c1,66fc981d46fcc5b0e60e5081,2024-10-02_02h48.10.010,mdp,2024.2.1,Win32,60.24096386,66fa4ebf79326e780c390304,,,,,,,,,,,,,,,,,,,,,632.8275,632.8275,632.8284,633.8606,1,1,right,0.5033,,633.8613,634.9943,1,1,right,634.9957,634.9964,,1,,0,634.9964,634.9964,634.9968,636.4949,0,22,22,22,1,0.6,0.4,0.6,0.4,,,,,,,,,,,,,,,0.6293,,0.6,0.4,0.4,0.6,0.6,0.4,0.2,0.8,1,0,,,,,,,,,,,,
,,5ee9193db78df9119fe4f7c1,66fc981d46fcc5b0e60e5081,2024-10-02_02h48.10.010,mdp,2024.2.1,Win32,60.24096386,66fa4ebf79326e780c390304,,,,,,,,,,,,,,,,,,,,,636.4953,636.4953,636.4962,637.4455,1,1,right,0.4312,,637.4463,638.4794,1,1,right,638.4802,638.4807,,1,,0,638.4807,638.4807,638.481,639.9795,0,23,23,23,1,0.6,0.4,0.6,0.4,,,,,,,,,,,,,,,0.5254,,0.4,0.6,0.8,0.2,0.6,0.4,0.2,0.8,1,0,,,,,,,,,,,,
,,5ee9193db78df9119fe4f7c1,66fc981d46fcc5b0e60e5081,2024-10-02_02h48.10.010,mdp,2024.2.1,Win32,60.24096386,66fa4ebf79326e780c390304,,,,,,,,,,,,,,,,,,,,,639.9797,639.9797,639.9802,640.58,1,1,right,0.089,,640.581,641.8471,1,1,right,641.8479,641.8486,,1,,0,641.8486,641.8486,641.8493,643.3475,0,24,24,24,1,0.6,0.4,0.6,0.4,,,,,,,,,,,,,,,0.7586,,0.4,0.6,0.8,0.2,0.6,0.4,0.2,0.8,1,0,,,,,,,,,,,,
,,5ee9193db78df9119fe4f7c1,66fc981d46fcc5b0e60e5081,2024-10-02_02h48.10.010,mdp,2024.2.1,Win32,60.24096386,66fa4ebf79326e780c390304,,,,,,,,,,,,,,,,,,,,,643.3478,643.3478,643.3485,643.9813,1,0,right,0.1273,,643.9822,645.9154,0,0,left,645.9164,645.9171,,1,,1,645.9171,645.9171,645.9175,647.416,0,25,25,25,1,0.6,0.4,0.6,0.4,,,,,,,,,,,,,,,1.3993,,0.2,0.8,0.6,0.4,0.6,0.4,0.2,0.8,1,0,,,,,,,,,,,,
,,5ee9193db78df9119fe4f7c1,66fc981d46fcc5b0e60e5081,2024-10-02_02h48.10.010,mdp,2024.2.1,Win32,60.24096386,66fa4ebf79326e780c390304,,,,,,,,,,,,,,,,,,,,,647.4163,647.4163,647.4171,648.5497,1,0,right,0.6045,,648.5506,650.067,0,1,left,650.0678,650.0683,,1,,0,650.0684,650.0684,650.069,651.5675,0,26,26,26,1,0.6,0.4,0.6,0.4,,,,,,,,,,,,,,,0.9835,,0.2,0.8,0.6,0.4,0.6,0.4,0.2,0.8,1,0,,,,,,,,,,,,
,,5ee9193db78df9119fe4f7c1,66fc981d46fcc5b0e60e5081,2024-10-02_02h48.10.010,mdp,2024.2.1,Win32,60.24096386,66fa4ebf79326e780c390304,,,,,,,,,,,,,,,,,,,,,651.5678,651.5678,651.5686,652.2343,1,1,right,0.1349,,652.2349,653.3516,0,0,left,653.3528,653.3536,,0,,1,653.3536,653.3536,653.3539,654.8523,0,27,27,27,1,0.6,0.4,0.6,0.4,,,,,,,,,,,,,,,0.599,,0.2,0.8,0.6,0.4,0.6,0.4,0.2,0.8,1,0,,,,,,,,,,,,
,,5ee9193db78df9119fe4f7c1,66fc981d46fcc5b0e60e5081,2024-10-02_02h48.10.010,mdp,2024.2.1,Win32,60.24096386,66fa4ebf79326e780c390304,,,,,,,,,,,,,,,,,,,,,654.8528,654.8528,654.8534,655.786,1,0,right,0.4039,,655.7869,656.8029,1,0,right,656.8039,656.8045,,0,,1,656.8045,656.8045,656.805,658.3034,0,28,28,28,1,0.6,0.4,0.6,0.4,,,,,,,,,,,,,,,0.4927,,0.2,0.8,0.6,0.4,0.6,0.4,0.2,0.8,1,0,,,,,,,,,,,,
,,5ee9193db78df9119fe4f7c1,66fc981d46fcc5b0e60e5081,2024-10-02_02h48.10.010,mdp,2024.2.1,Win32,60.24096386,66fa4ebf79326e780c390304,,,,,,,,,,,,,,,,,,,,,658.3037,658.3037,658.3044,659.2036,1,0,right,0.3803,,659.2042,660.354,1,1,right,660.3545,660.3549,,0,,0,660.3549,660.3549,660.3552,661.8548,0,29,29,29,1,0.6,0.4,0.6,0.4,,,,,,,,,,,,,,,0.6465,,0.2,0.8,0.6,0.4,0.6,0.4,0.2,0.8,1,0,,,,,,,,,,,,
,,5ee9193db78df9119fe4f7c1,66fc981d46fcc5b0e60e5081,2024-10-02_02h48.10.010,mdp,2024.2.1,Win32,60.24096386,66fa4ebf79326e780c390304,,,,,,,,,,,,,,,,,,,,,661.8553,661.8553,661.8562,662.7551,1,0,right,0.3762,,662.756,664.0388,1,0,right,664.0394,664.0401,,0,,1,664.0402,664.0402,664.0408,665.5398,0,30,30,30,1,0.2,0.8,0.8,0.2,,,,,,,,,,,,,,,0.7587,,0.2,0.8,0.6,0.4,0.6,0.4,0.2,0.8,1,0,,,,,,,,,,,,
,,5ee9193db78df9119fe4f7c1,66fc981d46fcc5b0e60e5081,2024-10-02_02h48.10.010,mdp,2024.2.1,Win32,60.24096386,66fa4ebf79326e780c390304,,,,,,,,,,,,,,,,,,,,,665.5401,665.5401,665.5407,666.1398,1,0,right,0.0724,,666.1406,666.9901,0,1,left,666.9909,666.9914,,0,,0,666.9914,666.9914,666.9918,668.4904,0,31,31,31,1,0.2,0.8,0.8,0.2,,,,,,,,,,,,,,,0.3224,,0.2,0.8,0.6,0.4,0.6,0.4,0.2,0.8,1,0,,,,,,,,,,,,
,,5ee9193db78df9119fe4f7c1,66fc981d46fcc5b0e60e5081,2024-10-02_02h48.10.010,mdp,2024.2.1,Win32,60.24096386,66fa4ebf79326e780c390304,,,,,,,,,,,,,,,,,,,,,668.4906,668.4906,668.4911,669.2907,1,0,right,0.2693,,669.2912,670.1081,1,0,right,670.1089,670.1098,,0,,1,670.1098,670.1098,670.1102,671.6086,0,32,32,32,1,0.2,0.8,0.8,0.2,,,,,,,,,,,,,,,0.3146,,0.2,0.8,0.6,0.4,0.6,0.4,0.2,0.8,1,0,,,,,,,,,,,,
,,5ee9193db78df9119fe4f7c1,66fc981d46fcc5b0e60e5081,2024-10-02_02h48.10.010,mdp,2024.2.1,Win32,60.24096386,66fa4ebf79326e780c390304,,,,,,,,,,,,,,,,,,,,,671.6092,671.6093,671.6102,672.1422,1,0,right,0.0054,,672.1429,672.9756,1,1,right,672.9762,672.9766,,0,,0,672.9766,672.9766,672.977,674.476,0,33,33,33,1,0.2,0.8,0.8,0.2,,,,,,,,,,,,,,,0.3016,,0.2,0.8,0.6,0.4,0.6,0.4,0.2,0.8,1,0,,,,,,,,,,,,
,,5ee9193db78df9119fe4f7c1,66fc981d46fcc5b0e60e5081,2024-10-02_02h48.10.010,mdp,2024.2.1,Win32,60.24096386,66fa4ebf79326e780c390304,,,,,,,,,,,,,,,,,,,,,674.4764,674.4764,674.4772,675.3265,1,0,right,0.339,,675.3272,676.0267,1,1,right,676.0277,676.0283,,1,,0,676.0284,676.0284,676.0292,677.5275,0,34,34,34,1,0.2,0.8,0.8,0.2,,,,,,,,,,,,,,,0.184,,0.6,0.4,0.4,0.6,0.6,0.4,0.2,0.8,1,0,,,,,,,,,,,,
,,5ee9193db78df9119fe4f7c1,66fc981d46fcc5b0e60e5081,2024-10-02_02h48.10.010,mdp,2024.2.1,Win32,60.24096386,66fa4ebf79326e780c390304,,,,,,,,,,,,,,,,,,,,,677.5278,677.5278,677.5283,679.1787,0,1,left,1.1203,,679.1795,679.8119,0,0,left,679.8125,679.8133,,0,,1,679.8133,679.8133,679.8139,681.3119,0,35,35,35,1,0.2,0.8,0.8,0.2,,,,,,,,,,,,,,,0.1104,,0.6,0.4,0.4,0.6,0.6,0.4,0.2,0.8,1,0,,,,,,,,,,,,
,,5ee9193db78df9119fe4f7c1,66fc981d46fcc5b0e60e5081,2024-10-02_02h48.10.010,mdp,2024.2.1,Win32,60.24096386,66fa4ebf79326e780c390304,,,,,,,,,,,,,,,,,,,,,681.3123,681.3123,681.3131,682.0622,0,0,left,0.224,,682.063,682.8294,0,0,left,682.8299,682.8305,,1,,1,682.8305,682.8305,682.8309,684.3299,0,36,36,36,1,0.2,0.8,0.8,0.2,,,,,,,,,,,,,,,0.2502,,0.8,0.2,0.2,0.8,0.6,0.4,0.2,0.8,1,0,,,,,,,,,,,,
,,5ee9193db78df9119fe4f7c1,66fc981d46fcc5b0e60e5081,2024-10-02_02h48.10.010,mdp,2024.2.1,Win32,60.24096386,66fa4ebf79326e780c390304,,,,,,,,,,,,,,,,,,,,,684.3301,684.3301,684.3309,685.0304,0,1,left,0.1719,,685.0315,685.6472,0,0,left,685.648,685.6485,,0,,1,685.6485,685.6485,685.6489,687.1482,0,37,37,37,1,0.2,0.8,0.8,0.2,,,,,,,,,,,,,,,0.0992,,0.8,0.2,0.2,0.8,0.6,0.4,0.2,0.8,1,0,,,,,,,,,,,,
,,5ee9193db78df9119fe4f7c1,66fc981d46fcc5b0e60e5081,2024-10-02_02h48.10.010,mdp,2024.2.1,Win32,60.24096386,66fa4ebf79326e780c390304,,,,,,,,,,,,,,,,,,,,,687.1486,687.1486,687.1495,687.848,0,1,left,0.1767,,687.8488,688.5315,0,0,left,688.5325,688.5333,,0,,1,688.5333,688.5333,688.5338,690.0324,0,38,38,38,1,0.2,0.8,0.8,0.2,,,,,,,,,,,,,,,0.1662,,0.8,0.2,0.2,0.8,0.6,0.4,0.2,0.8,1,0,,,,,,,,,,,,
,,5ee9193db78df9119fe4f7c1,66fc981d46fcc5b0e60e5081,2024-10-02_02h48.10.010,mdp,2024.2.1,Win32,60.24096386,66fa4ebf79326e780c390304,,,,,,,,,,,,,,,,,,,,,690.0327,690.0327,690.0334,690.6322,0,1,left,0.0692,,690.6327,691.2324,1,1,right,691.2334,691.2341,,1,,0,691.2342,691.2342,691.2347,692.733,0,39,39,39,1,0.2,0.8,0.8,0.2,,,,,,,,,,,,,,,0.0835,,0.8,0.2,0.2,0.8,0.6,0.4,0.2,0.8,1,0,,,,,,,,,,,,
,,5ee9193db78df9119fe4f7c1,66fc981d46fcc5b0e60e5081,2024-10-02_02h48.10.010,mdp,2024.2.1,Win32,60.24096386,66fa4ebf79326e780c390304,,,,,,,,,,,,,,,,,,,,,692.7333,692.7333,692.7338,693.4168,0,1,left,0.1647,,693.4175,694.0502,0,0,left,694.0509,694.0513,,1,,1,694.0513,694.0513,694.0516,695.5507,0,40,40,40,1,0.2,0.8,0.8,0.2,,,,,,,,,,,,,,,0.1124,,0.8,0.2,0.2,0.8,0.6,0.4,0.2,0.8,1,0,,,,,,,,,,,,
,,5ee9193db78df9119fe4f7c1,66fc981d46fcc5b0e60e5081,2024-10-02_02h48.10.010,mdp,2024.2.1,Win32,60.24096386,66fa4ebf79326e780c390304,,,,,,,,,,,,,,,,,,,,,695.551,695.551,695.5517,696.4345,0,0,left,0.3573,,696.4355,697.885,1,1,right,697.8856,697.8862,,1,,0,697.8863,697.8863,697.8871,699.3856,0,41,41,41,1,0.2,0.8,0.8,0.2,,,,,,,,,,,,,,,0.9323,,0.8,0.2,0.2,0.8,0.6,0.4,0.2,0.8,1,0,,,,,,,,,,,,
,,5ee9193db78df9119fe4f7c1,66fc981d46fcc5b0e60e5081,2024-10-02_02h48.10.010,mdp,2024.2.1,Win32,60.24096386,66fa4ebf79326e780c390304,,,,,,,,,,,,,,,,,,,,,699.386,699.386,699.3868,700.3027,0,0,left,0.4096,,700.3038,701.5699,1,1,right,701.5707,701.5715,,1,,0,701.5716,701.5716,701.5722,703.0704,0,42,42,42,1,0.2,0.8,0.8,0.2,,,,,,,,,,,,,,,0.7634,,0.8,0.2,0.2,0.8,0.6,0.4,0.2,0.8,1,0,,,,,,,,,,,,
,,5ee9193db78df9119fe4f7c1,66fc981d46fcc5b0e60e5081,2024-10-02_02h48.10.010,mdp,2024.2.1,Win32,60.24096386,66fa4ebf79326e780c390304,,,,,,,,,,,,,,,,,,,,,703.0708,703.0708,703.0719,703.6041,0,1,left,0.0025,,703.6045,704.7375,0,1,left,704.7385,704.7394,,1,,0,704.7394,704.7394,704.7398,706.2383,0,43,43,43,1,0.2,0.8,0.8,0.2,,,,,,,,,,,,,,,0.6276,,0.8,0.2,0.2,0.8,0.6,0.4,0.2,0.8,1,0,,,,,,,,,,,,
,,5ee9193db78df9119fe4f7c1,66fc981d46fcc5b0e60e5081,2024-10-02_02h48.10.010,mdp,2024.2.1,Win32,60.24096386,66fa4ebf79326e780c390304,,,,,,,,,,,,,,,,,,,,,706.2388,706.2388,706.2396,706.8216,0,1,left,0.0639,,706.8223,707.7723,0,0,left,707.773,707.7739,,0,,1,707.7739,707.7739,707.7743,709.2727,0,44,44,44,1,0.2,0.8,0.8,0.2,,,,,,,,,,,,,,,0.4465,,0.8,0.2,0.2,0.8,0.6,0.4,0.2,0.8,1,0,,,,,,,,,,,,
,,5ee9193db78df9119fe4f7c1,66fc981d46fcc5b0e60e5081,2024-10-02_02h48.10.010,mdp,2024.2.1,Win32,60.24096386,66fa4ebf79326e780c390304,,,,,,,,,,,,,,,,,,,,,709.2732,709.2732,709.274,710.0064,0,1,left,0.2037,,710.0073,711.9241,0,0,left,711.9249,711.9256,,0,,1,711.9256,711.9256,711.9265,713.4249,0,45,45,45,1,0.2,0.8,0.8,0.2,,,,,,,,,,,,,,,1.41,,0.8,0.2,0.2,0.8,0.6,0.4,0.2,0.8,1,0,,,,,,,,,,,,
,,5ee9193db78df9119fe4f7c1,66fc981d46fcc5b0e60e5081,2024-10-02_02h48.10.010,mdp,2024.2.1,Win32,60.24096386,66fa4ebf79326e780c390304,,,,,,,,,,,,,,,,,,,,,713.4252,713.4253,713.4261,714.1912,0,1,left,0.2348,,714.1919,715.2249,1,1,right,715.2256,715.2262,,1,,0,715.2262,715.2262,715.2266,716.7257,0,46,46,46,1,0.2,0.8,0.8,0.2,,,,,,,,,,,,,,,0.5275,,0.8,0.2,0.2,0.8,0.6,0.4,0.2,0.8,1,0,,,,,,,,,,,,
,,5ee9193db78df9119fe4f7c1,66fc981d46fcc5b0e60e5081,2024-10-02_02h48.10.010,mdp,2024.2.1,Win32,60.24096386,66fa4ebf79326e780c390304,,,,,,,,,,,,,,,,,,,,,716.7261,716.7261,716.727,717.6595,0,1,left,0.401,,717.6606,718.7266,1,1,right,718.7277,718.7283,,1,,0,718.7284,718.7284,718.7288,720.2276,0,47,47,47,1,0.6,0.4,0.6,0.4,,,,,,,,,,,,,,,0.5376,,0.8,0.2,0.2,0.8,0.6,0.4,0.2,0.8,1,0,,,,,,,,,,,,
,,5ee9193db78df9119fe4f7c1,66fc981d46fcc5b0e60e5081,2024-10-02_02h48.10.010,mdp,2024.2.1,Win32,60.24096386,66fa4ebf79326e780c390304,,,,,,,,,,,,,,,,,,,,,720.2279,720.2279,720.2283,720.9104,0,1,left,0.1539,,720.9115,721.8442,1,1,right,721.8448,721.8452,,1,,0,721.8453,721.8453,721.8456,723.3449,0,48,48,48,1,0.6,0.4,0.6,0.4,,,,,,,,,,,,,,,0.4174,,0.4,0.6,0.8,0.2,0.6,0.4,0.2,0.8,1,0,,,,,,,,,,,,
,,5ee9193db78df9119fe4f7c1,66fc981d46fcc5b0e60e5081,2024-10-02_02h48.10.010,mdp,2024.2.1,Win32,60.24096386,66fa4ebf79326e780c390304,,,,,,,,,,,,,,,,,,,,,723.3453,723.3453,723.3461,723.8782,0,0,left,0.0108,,723.8792,725.0792,1,0,right,725.08,725.0808,,0,,1,725.0808,725.0809,725.0813,726.5793,0,49,49,49,1,0.6,0.4,0.6,0.4,,,,,,,,,,,,,,,0.6873,,0.4,0.6,0.8,0.2,0.4,0.6,0.4,0.6,1,0,,,,,,,,,,,,
,,5ee9193db78df9119fe4f7c1,66fc981d46fcc5b0e60e5081,2024-10-02_02h48.10.010,mdp,2024.2.1,Win32,60.24096386,66fa4ebf79326e780c390304,,,,,,,,,,,,,,,,,,,,,,,,,,,,,,,,,,,,,,,,,,,,,,,,,,,,,,,,726.5793,785.0851,0,1,1,2,1,imgs/lion.png,imgs/bear.png,imgs/dog.png,imgs/cat.png,imgs/kangaroo.png,,,,,,,,,,,,,,,,,,,,,,,,
,,5ee9193db78df9119fe4f7c1,66fc981d46fcc5b0e60e5081,2024-10-02_02h48.10.010,mdp,2024.2.1,Win32,60.24096386,66fa4ebf79326e780c390304,,,,,,,,,,,,,,3,seqs/st3seq16.csv,785.0917,786.8856,space,1.2753,,786.8895,786.8895,786.8899,793.8049,0,1,left,6.3916,,793.811,794.8886,0,1,left,794.8899,795.9223,0,1,left,0,795.9223,795.9223,795.9228,797.423,0,0,0,0,1,0.4,0.6,0.6,0.4,,,,,,,,,,,,,,,0.567,,0.8,0.2,0.2,0.8,0.2,0.8,0.8,0.2,,,0.5251,,0.4,0.6,0.8,0.2,0.8,0.2,0.6,0.4,1,0
,,5ee9193db78df9119fe4f7c1,66fc981d46fcc5b0e60e5081,2024-10-02_02h48.10.010,mdp,2024.2.1,Win32,60.24096386,66fa4ebf79326e780c390304,,,,,,,,,,,,,,,,,,,,,797.4235,797.4235,797.4242,798.4901,0,1,left,0.5443,,798.4908,799.8237,1,0,right,799.8246,800.7079,1,0,right,1,800.708,800.7081,800.7092,802.2083,0,1,1,1,1,0.4,0.6,0.6,0.4,,,,,,,,,,,,,,,0.813,,0.8,0.2,0.2,0.8,0.2,0.8,0.8,0.2,,,0.3628,,0.4,0.6,0.8,0.2,0.8,0.2,0.6,0.4,1,0
,,5ee9193db78df9119fe4f7c1,66fc981d46fcc5b0e60e5081,2024-10-02_02h48.10.010,mdp,2024.2.1,Win32,60.24096386,66fa4ebf79326e780c390304,,,,,,,,,,,,,,,,,,,,,802.2087,802.2087,802.2096,803.0917,0,1,left,0.3631,,803.0927,804.0091,1,0,right,804.0102,804.726,1,0,right,1,804.7261,804.7261,804.7267,806.2264,0,2,2,2,1,0.4,0.6,0.6,0.4,,,,,,,,,,,,,,,0.4002,,0.8,0.2,0.2,0.8,0.2,0.8,0.8,0.2,,,0.2117,,0.4,0.6,0.8,0.2,0.8,0.2,0.6,0.4,1,0
,,5ee9193db78df9119fe4f7c1,66fc981d46fcc5b0e60e5081,2024-10-02_02h48.10.010,mdp,2024.2.1,Win32,60.24096386,66fa4ebf79326e780c390304,,,,,,,,,,,,,,,,,,,,,806.2268,806.2268,806.2275,806.8267,0,0,left,0.0918,,806.8274,807.6433,1,1,right,807.6439,808.5275,0,0,left,1,808.5277,808.5277,808.5286,810.0277,0,3,3,3,1,0.4,0.6,0.6,0.4,,,,,,,,,,,,,,,0.304,,0.8,0.2,0.2,0.8,0.2,0.8,0.8,0.2,,,0.3741,,0.4,0.6,0.8,0.2,0.8,0.2,0.6,0.4,1,0
,,5ee9193db78df9119fe4f7c1,66fc981d46fcc5b0e60e5081,2024-10-02_02h48.10.010,mdp,2024.2.1,Win32,60.24096386,66fa4ebf79326e780c390304,,,,,,,,,,,,,,,,,,,,,810.0282,810.0282,810.0294,810.9282,0,1,left,0.371,,810.9292,811.7617,1,1,right,811.7624,812.279,1,0,right,1,812.2791,812.2791,812.2799,813.7793,0,4,4,4,1,0.4,0.6,0.6,0.4,,,,,,,,,,,,,,,0.3219,,0.8,0.2,0.2,0.8,0.2,0.8,0.8,0.2,,,0.0003,,0.4,0.6,0.8,0.2,0.8,0.2,0.6,0.4,1,0
,,5ee9193db78df9119fe4f7c1,66fc981d46fcc5b0e60e5081,2024-10-02_02h48.10.010,mdp,2024.2.1,Win32,60.24096386,66fa4ebf79326e780c390304,,,,,,,,,,,,,,,,,,,,,813.7798,813.7798,813.7807,814.7297,0,1,left,0.4194,,814.7306,815.5635,1,1,right,815.5644,816.3971,0,1,left,0,816.3972,816.3972,816.398,817.8977,0,5,5,5,1,0.4,0.6,0.6,0.4,,,,,,,,,,,,,,,0.2999,,0.8,0.2,0.2,0.8,0.2,0.8,0.8,0.2,,,0.3012,,0.4,0.6,0.8,0.2,0.8,0.2,0.6,0.4,1,0
,,5ee9193db78df9119fe4f7c1,66fc981d46fcc5b0e60e5081,2024-10-02_02h48.10.010,mdp,2024.2.1,Win32,60.24096386,66fa4ebf79326e780c390304,,,,,,,,,,,,,,,,,,,,,817.898,817.8981,817.899,818.4809,0,0,left,0.0578,,818.4818,819.1479,1,0,right,819.1487,819.8314,1,0,right,1,819.8314,819.8314,819.8322,821.3322,0,6,6,6,1,0.4,0.6,0.6,0.4,,,,,,,,,,,,,,,0.1487,,0.8,0.2,0.2,0.8,0.2,0.8,0.8,0.2,,,0.1776,,0.4,0.6,0.8,0.2,0.8,0.2,0.6,0.4,1,0
,,5ee9193db78df9119fe4f7c1,66fc981d46fcc5b0e60e5081,2024-10-02_02h48.10.010,mdp,2024.2.1,Win32,60.24096386,66fa4ebf79326e780c390304,,,,,,,,,,,,,,,,,,,,,821.3325,821.3325,821.3334,822.2496,0,1,left,0.3853,,822.2503,823.0327,1,0,right,823.0336,823.7666,1,0,right,1,823.7666,823.7667,823.7677,825.2668,0,7,7,7,1,0.4,0.6,0.6,0.4,,,,,,,,,,,,,,,0.2553,,0.8,0.2,0.2,0.8,0.2,0.8,0.8,0.2,,,0.2205,,0.4,0.6,0.8,0.2,0.8,0.2,0.6,0.4,1,0
,,5ee9193db78df9119fe4f7c1,66fc981d46fcc5b0e60e5081,2024-10-02_02h48.10.010,mdp,2024.2.1,Win32,60.24096386,66fa4ebf79326e780c390304,,,,,,,,,,,,,,,,,,,,,825.2673,825.2673,825.2685,826.0339,0,1,left,0.2346,,826.035,826.9007,1,0,right,826.9015,827.718,0,1,left,0,827.7181,827.7181,827.7195,829.2187,0,8,8,8,1,0.4,0.6,0.6,0.4,,,,,,,,,,,,,,,0.3431,,0.8,0.2,0.2,0.8,0.2,0.8,0.8,0.2,,,0.3094,,0.4,0.6,0.8,0.2,0.8,0.2,0.6,0.4,1,0
,,5ee9193db78df9119fe4f7c1,66fc981d46fcc5b0e60e5081,2024-10-02_02h48.10.010,mdp,2024.2.1,Win32,60.24096386,66fa4ebf79326e780c390304,,,,,,,,,,,,,,,,,,,,,829.2193,829.2193,829.2199,830.2854,0,0,left,0.5337,,830.2865,830.9693,1,1,right,830.9701,831.6862,1,1,right,0,831.6863,831.6863,831.6872,833.1864,0,9,9,9,1,0.4,0.6,0.6,0.4,,,,,,,,,,,,,,,0.1652,,0.8,0.2,0.2,0.8,0.2,0.8,0.8,0.2,,,0.1818,,0.4,0.6,0.8,0.2,0.4,0.6,0.4,0.6,1,0
,,5ee9193db78df9119fe4f7c1,66fc981d46fcc5b0e60e5081,2024-10-02_02h48.10.010,mdp,2024.2.1,Win32,60.24096386,66fa4ebf79326e780c390304,,,,,,,,,,,,,,,,,,,,,833.1867,833.1867,833.1878,833.8873,1,0,right,0.1929,,833.8881,834.487,1,0,right,834.4879,835.1207,1,1,right,0,835.1208,835.1208,835.1217,836.6214,0,10,10,10,1,0.4,0.6,0.6,0.4,,,,,,,,,,,,,,,0.0786,,0.8,0.2,0.2,0.8,0.2,0.8,0.8,0.2,,,0.1294,,0.4,0.6,0.8,0.2,0.4,0.6,0.4,0.6,1,0
,,5ee9193db78df9119fe4f7c1,66fc981d46fcc5b0e60e5081,2024-10-02_02h48.10.010,mdp,2024.2.1,Win32,60.24096386,66fa4ebf79326e780c390304,,,,,,,,,,,,,,,,,,,,,836.6219,836.6219,836.6226,837.2052,1,1,right,0.0579,,837.2062,837.8883,1,0,right,837.8892,838.4386,1,0,right,1,838.4387,838.4387,838.4392,839.9397,0,11,11,11,1,0.4,0.6,0.6,0.4,,,,,,,,,,,,,,,0.1486,,0.8,0.2,0.2,0.8,0.2,0.8,0.8,0.2,,,0.0397,,0.4,0.6,0.8,0.2,0.4,0.6,0.4,0.6,1,0
,,5ee9193db78df9119fe4f7c1,66fc981d46fcc5b0e60e5081,2024-10-02_02h48.10.010,mdp,2024.2.1,Win32,60.24096386,66fa4ebf79326e780c390304,,,,,,,,,,,,,,,,,,,,,839.9403,839.9403,839.9411,840.7229,1,0,right,0.2567,,840.7237,841.4732,1,1,right,841.4741,842.1067,1,1,right,0,842.1068,842.1068,842.1075,843.6072,0,12,12,12,1,0.4,0.6,0.6,0.4,,,,,,,,,,,,,,,0.2326,,0.8,0.2,0.2,0.8,0.2,0.8,0.8,0.2,,,0.1241,,0.4,0.6,0.8,0.2,0.4,0.6,0.4,0.6,1,0
,,5ee9193db78df9119fe4f7c1,66fc981d46fcc5b0e60e5081,2024-10-02_02h48.10.010,mdp,2024.2.1,Win32,60.24096386,66fa4ebf79326e780c390304,,,,,,,,,,,,,,,,,,,,,843.6075,843.6076,843.6083,844.4244,1,1,right,0.3022,,844.4253,845.5415,1,0,right,845.5424,846.375,1,1,right,0,846.3751,846.3752,846.376,847.8756,0,13,13,13,1,0.4,0.6,0.6,0.4,,,,,,,,,,,,,,,0.5833,,0.8,0.2,0.2,0.8,0.2,0.8,0.8,0.2,,,0.3201,,0.4,0.6,0.8,0.2,0.8,0.2,0.6,0.4,1,0
,,5ee9193db78df9119fe4f7c1,66fc981d46fcc5b0e60e5081,2024-10-02_02h48.10.010,mdp,2024.2.1,Win32,60.24096386,66fa4ebf79326e780c390304,,,,,,,,,,,,,,,,,,,,,847.876,847.876,847.8768,848.7092,1,1,right,0.3104,,848.71,850.1598,0,1,left,850.1604,851.1599,1,1,right,0,851.1599,851.16,851.1604,852.6607,0,14,14,14,1,0.4,0.6,0.6,0.4,,,,,,,,,,,,,,,0.9364,,0.8,0.2,0.2,0.8,0.2,0.8,0.8,0.2,,,0.4698,,0.4,0.6,0.8,0.2,0.8,0.2,0.6,0.4,1,0
,,5ee9193db78df9119fe4f7c1,66fc981d46fcc5b0e60e5081,2024-10-02_02h48.10.010,mdp,2024.2.1,Win32,60.24096386,66fa4ebf79326e780c390304,,,,,,,,,,,,,,,,,,,,,852.661,852.661,852.6616,853.3274,1,0,right,0.1482,,853.3282,854.7627,0,0,left,854.7634,855.5452,0,0,left,1,855.5453,855.5453,855.5463,857.0459,0,15,15,15,1,0.4,0.6,0.6,0.4,,,,,,,,,,,,,,,0.9199,,0.4,0.6,0.4,0.6,0.2,0.8,0.8,0.2,,,0.252,,0.4,0.6,0.8,0.2,0.8,0.2,0.6,0.4,1,0
,,5ee9193db78df9119fe4f7c1,66fc981d46fcc5b0e60e5081,2024-10-02_02h48.10.010,mdp,2024.2.1,Win32,60.24096386,66fa4ebf79326e780c390304,,,,,,,,,,,,,,,,,,,,,857.0463,857.0463,857.0471,857.7124,0,1,left,0.1328,,857.7132,858.7641,0,1,left,858.7646,859.3967,1,1,right,0,859.3968,859.3968,859.3977,860.8974,0,16,16,16,1,0.4,0.6,0.6,0.4,,,,,,,,,,,,,,,0.5445,,0.4,0.6,0.4,0.6,0.2,0.8,0.8,0.2,,,0.1032,,0.2,0.8,0.6,0.4,0.8,0.2,0.6,0.4,1,0
,,5ee9193db78df9119fe4f7c1,66fc981d46fcc5b0e60e5081,2024-10-02_02h48.10.010,mdp,2024.2.1,Win32,60.24096386,66fa4ebf79326e780c390304,,,,,,,,,,,,,,,,,,,,,860.8978,860.8978,860.8985,861.5981,0,0,left,0.1757,,861.5994,863.048,0,0,left,863.0488,864.2149,1,0,right,1,864.2149,864.2149,864.2155,865.7157,0,17,17,17,1,0.4,0.6,0.6,0.4,,,,,,,,,,,,,,,0.9244,,0.4,0.6,0.4,0.6,0.2,0.8,0.8,0.2,,,0.6448,,0.2,0.8,0.6,0.4,0.8,0.2,0.6,0.4,1,0
,,5ee9193db78df9119fe4f7c1,66fc981d46fcc5b0e60e5081,2024-10-02_02h48.10.010,mdp,2024.2.1,Win32,60.24096386,66fa4ebf79326e780c390304,,,,,,,,,,,,,,,,,,,,,865.7161,865.7161,865.7171,866.7162,0,0,left,0.4793,,866.7169,868.1831,0,1,left,868.1837,869.267,1,1,right,0,869.2671,869.2671,869.2679,870.7696,0,18,18,18,1,0.4,0.6,0.6,0.4,,,,,,,,,,,,,,,0.9585,,0.4,0.6,0.4,0.6,0.2,0.8,0.8,0.2,,,0.5797,,0.2,0.8,0.6,0.4,0.8,0.2,0.6,0.4,1,0
,,5ee9193db78df9119fe4f7c1,66fc981d46fcc5b0e60e5081,2024-10-02_02h48.10.010,mdp,2024.2.1,Win32,60.24096386,66fa4ebf79326e780c390304,,,,,,,,,,,,,,,,,,,,,870.7698,870.7698,870.7702,871.7845,0,0,left,0.4908,,871.7851,872.8351,0,0,left,872.8361,873.9691,1,0,right,1,873.9692,873.9692,873.9699,875.4693,0,19,19,19,1,0.4,0.6,0.6,0.4,,,,,,,,,,,,,,,0.539,,0.4,0.6,0.4,0.6,0.2,0.8,0.8,0.2,,,0.6242,,0.2,0.8,0.6,0.4,0.8,0.2,0.6,0.4,1,0
,,5ee9193db78df9119fe4f7c1,66fc981d46fcc5b0e60e5081,2024-10-02_02h48.10.010,mdp,2024.2.1,Win32,60.24096386,66fa4ebf79326e780c390304,,,,,,,,,,,,,,,,,,,,,875.4697,875.4697,875.4706,876.5532,0,1,left,0.5539,,876.5538,877.9536,1,0,right,877.9542,878.8704,1,0,right,1,878.8705,878.8705,878.8711,880.3711,0,20,20,20,1,0.4,0.6,0.6,0.4,,,,,,,,,,,,,,,0.8827,,0.4,0.6,0.4,0.6,0.2,0.8,0.8,0.2,,,0.4127,,0.4,0.6,0.2,0.8,0.8,0.2,0.6,0.4,1,0
,,5ee9193db78df9119fe4f7c1,66fc981d46fcc5b0e60e5081,2024-10-02_02h48.10.010,mdp,2024.2.1,Win32,60.24096386,66fa4ebf79326e780c390304,,,,,,,,,,,,,,,,,,,,,880.3713,880.3713,880.3719,881.2214,0,0,left,0.3465,,881.2218,882.7721,0,1,left,882.7732,884.323,0,0,left,1,884.3231,884.3231,884.3239,885.8233,0,21,21,21,1,0.4,0.6,0.6,0.4,,,,,,,,,,,,,,,1.0368,,0.4,0.6,0.4,0.6,0.2,0.8,0.8,0.2,,,1.0365,,0.4,0.6,0.2,0.8,0.8,0.2,0.6,0.4,1,0
,,5ee9193db78df9119fe4f7c1,66fc981d46fcc5b0e60e5081,2024-10-02_02h48.10.010,mdp,2024.2.1,Win32,60.24096386,66fa4ebf79326e780c390304,,,,,,,,,,,,,,,,,,,,,885.8237,885.8237,885.8243,886.8238,0,1,left,0.4751,,886.8249,888.0242,1,1,right,888.025,889.3087,1,1,right,0,889.3088,889.3088,889.3097,890.8091,0,22,22,22,1,0.4,0.6,0.6,0.4,,,,,,,,,,,,,,,0.6934,,0.4,0.6,0.4,0.6,0.2,0.8,0.8,0.2,,,0.7555,,0.4,0.6,0.2,0.8,0.8,0.2,0.6,0.4,1,0
,,5ee9193db78df9119fe4f7c1,66fc981d46fcc5b0e60e5081,2024-10-02_02h48.10.010,mdp,2024.2.1,Win32,60.24096386,66fa4ebf79326e780c390304,,,,,,,,,,,,,,,,,,,,,890.8094,890.8094,890.8099,891.8923,0,1,left,0.554,,891.8934,893.2094,1,0,right,893.2103,894.5433,1,1,right,0,894.5434,894.5434,894.5443,896.0437,0,23,23,23,1,0.4,0.6,0.6,0.4,,,,,,,,,,,,,,,0.7945,,0.4,0.6,0.4,0.6,0.2,0.8,0.8,0.2,,,0.8159,,0.4,0.6,0.2,0.8,0.8,0.2,0.6,0.4,1,0
,,5ee9193db78df9119fe4f7c1,66fc981d46fcc5b0e60e5081,2024-10-02_02h48.10.010,mdp,2024.2.1,Win32,60.24096386,66fa4ebf79326e780c390304,,,,,,,,,,,,,,,,,,,,,896.0439,896.0439,896.0446,896.9273,0,0,left,0.3807,,896.928,898.2783,0,1,left,898.2796,899.812,0,0,left,1,899.8121,899.8121,899.8126,901.3125,0,24,24,24,1,0.4,0.6,0.6,0.4,,,,,,,,,,,,,,,0.8401,,0.4,0.6,0.4,0.6,0.2,0.8,0.8,0.2,,,1.0198,,0.4,0.6,0.2,0.8,0.8,0.2,0.6,0.4,1,0
,,5ee9193db78df9119fe4f7c1,66fc981d46fcc5b0e60e5081,2024-10-02_02h48.10.010,mdp,2024.2.1,Win32,60.24096386,66fa4ebf79326e780c390304,,,,,,,,,,,,,,,,,,,,,901.3128,901.3128,901.3136,902.4629,0,1,left,0.6286,,902.4635,903.7973,0,1,left,903.7982,904.6637,1,0,right,1,904.6638,904.6638,904.6649,906.1646,0,25,25,25,1,0.4,0.6,0.6,0.4,,,,,,,,,,,,,,,0.817,,0.4,0.6,0.4,0.6,0.2,0.8,0.8,0.2,,,0.334,,0.4,0.6,0.2,0.8,0.8,0.2,0.6,0.4,1,0
,,5ee9193db78df9119fe4f7c1,66fc981d46fcc5b0e60e5081,2024-10-02_02h48.10.010,mdp,2024.2.1,Win32,60.24096386,66fa4ebf79326e780c390304,,,,,,,,,,,,,,,,,,,,,906.1651,906.1651,906.1659,906.8483,0,1,left,0.1505,,906.8496,907.6814,1,0,right,907.682,908.3984,0,1,left,0,908.3985,908.3986,908.3994,909.8993,0,26,26,26,1,0.4,0.6,0.6,0.4,,,,,,,,,,,,,,,0.3076,,0.4,0.6,0.4,0.6,0.2,0.8,0.8,0.2,,,0.2064,,0.4,0.6,0.2,0.8,0.8,0.2,0.6,0.4,1,0
,,5ee9193db78df9119fe4f7c1,66fc981d46fcc5b0e60e5081,2024-10-02_02h48.10.010,mdp,2024.2.1,Win32,60.24096386,66fa4ebf79326e780c390304,,,,,,,,,,,,,,,,,,,,,909.8997,909.8997,909.9006,910.4658,1,1,right,0.0432,,910.4667,911.15,1,1,right,911.1507,911.8332,1,0,right,1,911.8332,911.8332,911.834,913.3337,0,27,27,27,1,0.4,0.6,0.6,0.4,,,,,,,,,,,,,,,0.1728,,0.4,0.6,0.4,0.6,0.6,0.4,0.2,0.8,,,0.1534,,0.4,0.6,0.2,0.8,0.8,0.2,0.6,0.4,1,0
,,5ee9193db78df9119fe4f7c1,66fc981d46fcc5b0e60e5081,2024-10-02_02h48.10.010,mdp,2024.2.1,Win32,60.24096386,66fa4ebf79326e780c390304,,,,,,,,,,,,,,,,,,,,,913.3342,913.3342,913.3349,913.9508,1,0,right,0.0896,,913.9514,914.6676,1,1,right,914.6682,915.3682,1,1,right,0,915.3683,915.3683,915.3691,916.8687,0,28,28,28,1,0.4,0.6,0.6,0.4,,,,,,,,,,,,,,,0.1848,,0.4,0.6,0.4,0.6,0.6,0.4,0.2,0.8,,,0.1847,,0.4,0.6,0.2,0.8,0.8,0.2,0.6,0.4,1,0
,,5ee9193db78df9119fe4f7c1,66fc981d46fcc5b0e60e5081,2024-10-02_02h48.10.010,mdp,2024.2.1,Win32,60.24096386,66fa4ebf79326e780c390304,,,,,,,,,,,,,,,,,,,,,916.8691,916.8692,916.8699,917.5193,0,1,left,0.1181,,917.5203,918.1191,1,1,right,918.1197,918.8361,0,1,left,0,918.8362,918.8362,918.8371,920.3365,0,29,29,29,1,0.4,0.6,0.6,0.4,,,,,,,,,,,,,,,0.0656,,0.4,0.6,0.4,0.6,0.6,0.4,0.2,0.8,,,0.2051,,0.4,0.6,0.2,0.8,0.8,0.2,0.6,0.4,1,0
,,5ee9193db78df9119fe4f7c1,66fc981d46fcc5b0e60e5081,2024-10-02_02h48.10.010,mdp,2024.2.1,Win32,60.24096386,66fa4ebf79326e780c390304,,,,,,,,,,,,,,,,,,,,,920.3369,920.3369,920.338,920.9034,1,1,right,0.0473,,920.904,921.4538,1,1,right,921.4543,921.9878,1,1,right,0,921.9879,921.9879,921.9887,923.4879,0,30,30,30,1,0.4,0.6,0.6,0.4,,,,,,,,,,,,,,,0.0342,,0.4,0.6,0.4,0.6,0.6,0.4,0.2,0.8,,,0.0214,,0.4,0.6,0.2,0.8,0.8,0.2,0.6,0.4,1,0
,,5ee9193db78df9119fe4f7c1,66fc981d46fcc5b0e60e5081,2024-10-02_02h48.10.010,mdp,2024.2.1,Win32,60.24096386,66fa4ebf79326e780c390304,,,,,,,,,,,,,,,,,,,,,923.4882,923.4882,923.4888,924.0548,0,1,left,0.0432,,924.0557,924.589,0,1,left,924.5898,925.1385,0,0,left,1,925.1386,925.1386,925.1395,926.6393,0,31,31,31,1,0.4,0.6,0.6,0.4,,,,,,,,,,,,,,,0.0057,,0.4,0.6,0.4,0.6,0.6,0.4,0.2,0.8,,,0.0235,,0.4,0.6,0.2,0.8,0.8,0.2,0.6,0.4,1,0
,,5ee9193db78df9119fe4f7c1,66fc981d46fcc5b0e60e5081,2024-10-02_02h48.10.010,mdp,2024.2.1,Win32,60.24096386,66fa4ebf79326e780c390304,,,,,,,,,,,,,,,,,,,,,926.6398,926.6398,926.6407,927.3562,0,0,left,0.1843,,927.3571,927.8892,0,0,left,927.8901,928.5728,1,1,right,0,928.5728,928.5728,928.5732,930.0737,0,32,32,32,1,0.4,0.6,0.6,0.4,,,,,,,,,,,,,,,0.0035,,0.4,0.6,0.4,0.6,0.6,0.4,0.2,0.8,,,0.1772,,0.4,0.6,0.2,0.8,0.8,0.2,0.6,0.4,1,0
,,5ee9193db78df9119fe4f7c1,66fc981d46fcc5b0e60e5081,2024-10-02_02h48.10.010,mdp,2024.2.1,Win32,60.24096386,66fa4ebf79326e780c390304,,,,,,,,,,,,,,,,,,,,,930.0739,930.074,930.0747,930.8904,0,0,left,0.2856,,930.8909,931.5074,0,0,left,931.5082,932.1077,1,1,right,0,932.1077,932.1077,932.1082,933.6084,0,33,33,33,1,0.4,0.6,0.6,0.4,,,,,,,,,,,,,,,0.1132,,0.4,0.6,0.4,0.6,0.6,0.4,0.2,0.8,,,0.0829,,0.4,0.6,0.2,0.8,0.8,0.2,0.6,0.4,1,0
,,5ee9193db78df9119fe4f7c1,66fc981d46fcc5b0e60e5081,2024-10-02_02h48.10.010,mdp,2024.2.1,Win32,60.24096386,66fa4ebf79326e780c390304,,,,,,,,,,,,,,,,,,,,,933.6087,933.6087,933.6095,934.1751,1,0,right,0.0408,,934.1762,934.7254,0,1,left,934.7261,935.3754,0,1,left,0,935.3754,935.3754,935.3763,936.8762,0,34,34,34,1,0.4,0.6,0.6,0.4,,,,,,,,,,,,,,,0.0422,,0.4,0.6,0.4,0.6,0.6,0.4,0.2,0.8,,,0.1267,,0.4,0.6,0.2,0.8,0.8,0.2,0.6,0.4,1,0
,,5ee9193db78df9119fe4f7c1,66fc981d46fcc5b0e60e5081,2024-10-02_02h48.10.010,mdp,2024.2.1,Win32,60.24096386,66fa4ebf79326e780c390304,,,,,,,,,,,,,,,,,,,,,936.8766,936.8766,936.8773,937.5434,1,0,right,0.142,,937.5442,938.2934,0,1,left,938.2943,938.977,0,0,left,1,938.977,938.977,938.9778,940.4776,0,35,35,35,1,0.4,0.6,0.6,0.4,,,,,,,,,,,,,,,0.2231,,0.4,0.6,0.4,0.6,0.6,0.4,0.2,0.8,,,0.1683,,0.4,0.6,0.2,0.8,0.8,0.2,0.6,0.4,1,0
,,5ee9193db78df9119fe4f7c1,66fc981d46fcc5b0e60e5081,2024-10-02_02h48.10.010,mdp,2024.2.1,Win32,60.24096386,66fa4ebf79326e780c390304,,,,,,,,,,,,,,,,,,,,,940.478,940.478,940.4787,941.1778,0,0,left,0.1909,,941.1784,941.878,0,0,left,941.8785,942.5788,1,1,right,0,942.5789,942.5789,942.5797,944.0787,0,36,36,36,1,0.4,0.6,0.6,0.4,,,,,,,,,,,,,,,0.1916,,0.4,0.6,0.4,0.6,0.6,0.4,0.2,0.8,,,0.1848,,0.4,0.6,0.2,0.8,0.8,0.2,0.6,0.4,1,0
,,5ee9193db78df9119fe4f7c1,66fc981d46fcc5b0e60e5081,2024-10-02_02h48.10.010,mdp,2024.2.1,Win32,60.24096386,66fa4ebf79326e780c390304,,,,,,,,,,,,,,,,,,,,,944.0793,944.0793,944.0802,944.8124,1,0,right,0.2099,,944.8133,945.5129,1,0,right,945.5141,946.2963,0,1,left,0,946.2963,946.2963,946.297,947.7974,0,37,37,37,1,0.4,0.6,0.6,0.4,,,,,,,,,,,,,,,0.1929,,0.4,0.6,0.4,0.6,0.6,0.4,0.2,0.8,,,0.2583,,0.4,0.6,0.2,0.8,0.8,0.2,0.6,0.4,1,0
,,5ee9193db78df9119fe4f7c1,66fc981d46fcc5b0e60e5081,2024-10-02_02h48.10.010,mdp,2024.2.1,Win32,60.24096386,66fa4ebf79326e780c390304,,,,,,,,,,,,,,,,,,,,,947.7979,947.798,947.7991,948.4139,1,1,right,0.0836,,948.4148,949.0641,1,1,right,949.0647,949.7809,1,1,right,0,949.781,949.781,949.7818,951.2815,0,38,38,38,1,0.4,0.6,0.6,0.4,,,,,,,,,,,,,,,0.1246,,0.4,0.6,0.4,0.6,0.6,0.4,0.2,0.8,,,0.203,,0.4,0.6,0.2,0.8,0.8,0.2,0.6,0.4,1,0
,,5ee9193db78df9119fe4f7c1,66fc981d46fcc5b0e60e5081,2024-10-02_02h48.10.010,mdp,2024.2.1,Win32,60.24096386,66fa4ebf79326e780c390304,,,,,,,,,,,,,,,,,,,,,951.2817,951.2817,951.2824,951.999,0,0,left,0.1896,,952.0001,952.632,0,1,left,952.6329,953.3157,1,0,right,1,953.3157,953.3157,953.3165,954.8166,0,39,39,39,1,0.4,0.6,0.6,0.4,,,,,,,,,,,,,,,0.112,,0.4,0.6,0.4,0.6,0.6,0.4,0.2,0.8,,,0.1694,,0.4,0.6,0.2,0.8,0.8,0.2,0.6,0.4,1,0
,,5ee9193db78df9119fe4f7c1,66fc981d46fcc5b0e60e5081,2024-10-02_02h48.10.010,mdp,2024.2.1,Win32,60.24096386,66fa4ebf79326e780c390304,,,,,,,,,,,,,,,,,,,,,954.817,954.817,954.8178,955.3833,1,0,right,0.034,,955.3844,956.0667,0,0,left,956.0675,956.6338,1,0,right,1,956.6339,956.6339,956.6348,958.1345,0,40,40,40,1,0.4,0.6,0.6,0.4,,,,,,,,,,,,,,,0.1733,,0.4,0.6,0.4,0.6,0.6,0.4,0.2,0.8,,,0.0542,,0.4,0.6,0.2,0.8,0.8,0.2,0.6,0.4,1,0
,,5ee9193db78df9119fe4f7c1,66fc981d46fcc5b0e60e5081,2024-10-02_02h48.10.010,mdp,2024.2.1,Win32,60.24096386,66fa4ebf79326e780c390304,,,,,,,,,,,,,,,,,,,,,958.1347,958.1347,958.1354,958.7844,1,0,right,0.1175,,958.7849,959.4682,1,0,right,959.4693,960.1684,1,1,right,0,960.1685,960.1685,960.1694,961.669,0,41,41,41,1,0.4,0.6,0.6,0.4,,,,,,,,,,,,,,,0.1709,,0.4,0.6,0.4,0.6,0.6,0.4,0.2,0.8,,,0.1736,,0.2,0.8,0.6,0.4,0.8,0.2,0.6,0.4,1,0
,,5ee9193db78df9119fe4f7c1,66fc981d46fcc5b0e60e5081,2024-10-02_02h48.10.010,mdp,2024.2.1,Win32,60.24096386,66fa4ebf79326e780c390304,,,,,,,,,,,,,,,,,,,,,961.6694,961.6694,961.6702,962.2192,1,1,right,0.0251,,962.2202,962.9028,1,1,right,962.9037,963.4362,0,0,left,1,963.4362,963.4362,963.437,964.9372,0,42,42,42,1,0.4,0.6,0.6,0.4,,,,,,,,,,,,,,,0.148,,0.4,0.6,0.4,0.6,0.6,0.4,0.2,0.8,,,0.0095,,0.2,0.8,0.6,0.4,0.8,0.2,0.6,0.4,1,0
,,5ee9193db78df9119fe4f7c1,66fc981d46fcc5b0e60e5081,2024-10-02_02h48.10.010,mdp,2024.2.1,Win32,60.24096386,66fa4ebf79326e780c390304,,,,,,,,,,,,,,,,,,,,,964.9375,964.9375,964.9384,965.5203,0,1,left,0.0529,,965.5207,966.1203,1,1,right,966.1212,966.6881,0,0,left,1,966.6882,966.6882,966.6892,968.1885,0,43,43,43,1,0.4,0.6,0.6,0.4,,,,,,,,,,,,,,,0.0932,,0.6,0.4,0.2,0.8,0.6,0.4,0.2,0.8,,,0.0602,,0.2,0.8,0.6,0.4,0.8,0.2,0.6,0.4,1,0
,,5ee9193db78df9119fe4f7c1,66fc981d46fcc5b0e60e5081,2024-10-02_02h48.10.010,mdp,2024.2.1,Win32,60.24096386,66fa4ebf79326e780c390304,,,,,,,,,,,,,,,,,,,,,968.1888,968.1888,968.1895,968.805,0,0,left,0.0938,,968.8055,969.4049,1,1,right,969.4053,970.0055,0,0,left,1,970.0056,970.0056,970.0064,971.506,0,44,44,44,1,0.4,0.6,0.6,0.4,,,,,,,,,,,,,,,0.0764,,0.6,0.4,0.2,0.8,0.6,0.4,0.2,0.8,,,0.0908,,0.2,0.8,0.6,0.4,0.8,0.2,0.6,0.4,1,0
,,5ee9193db78df9119fe4f7c1,66fc981d46fcc5b0e60e5081,2024-10-02_02h48.10.010,mdp,2024.2.1,Win32,60.24096386,66fa4ebf79326e780c390304,,,,,,,,,,,,,,,,,,,,,971.5064,971.5064,971.5074,972.1896,0,1,left,0.178,,972.1904,972.8731,1,1,right,972.8738,973.5736,0,0,left,1,973.5737,973.5737,973.5744,975.0744,0,45,45,45,1,0.4,0.6,0.6,0.4,,,,,,,,,,,,,,,0.1725,,0.6,0.4,0.2,0.8,0.6,0.4,0.2,0.8,,,0.1924,,0.2,0.8,0.6,0.4,0.8,0.2,0.6,0.4,1,0
,,5ee9193db78df9119fe4f7c1,66fc981d46fcc5b0e60e5081,2024-10-02_02h48.10.010,mdp,2024.2.1,Win32,60.24096386,66fa4ebf79326e780c390304,,,,,,,,,,,,,,,,,,,,,975.0748,975.0748,975.0756,975.6909,0,1,left,0.0843,,975.6915,976.4414,0,0,left,976.4424,977.1749,0,1,left,0,977.175,977.175,977.1757,978.6754,0,46,46,46,1,0.4,0.6,0.6,0.4,,,,,,,,,,,,,,,0.2378,,0.6,0.4,0.2,0.8,0.6,0.4,0.2,0.8,,,0.1986,,0.2,0.8,0.6,0.4,0.8,0.2,0.6,0.4,1,0
,,5ee9193db78df9119fe4f7c1,66fc981d46fcc5b0e60e5081,2024-10-02_02h48.10.010,mdp,2024.2.1,Win32,60.24096386,66fa4ebf79326e780c390304,,,,,,,,,,,,,,,,,,,,,978.6758,978.6758,978.6766,979.2093,1,0,right,0.0108,,979.2102,979.9093,1,1,right,979.91,980.5263,0,0,left,1,980.5264,980.5264,980.5271,982.027,0,47,47,47,1,0.4,0.6,0.6,0.4,,,,,,,,,,,,,,,0.1919,,0.6,0.4,0.2,0.8,0.6,0.4,0.2,0.8,,,0.1125,,0.2,0.8,0.6,0.4,0.8,0.2,0.6,0.4,1,0
,,5ee9193db78df9119fe4f7c1,66fc981d46fcc5b0e60e5081,2024-10-02_02h48.10.010,mdp,2024.2.1,Win32,60.24096386,66fa4ebf79326e780c390304,,,,,,,,,,,,,,,,,,,,,982.0274,982.0274,982.0285,982.8103,1,0,right,0.2584,,982.8109,983.4941,1,1,right,983.4948,984.1442,0,0,left,1,984.1442,984.1442,984.1451,985.6446,0,48,48,48,1,0.4,0.6,0.6,0.4,,,,,,,,,,,,,,,0.1525,,0.6,0.4,0.2,0.8,0.6,0.4,0.2,0.8,,,0.1334,,0.2,0.8,0.6,0.4,0.8,0.2,0.6,0.4,1,0
,,5ee9193db78df9119fe4f7c1,66fc981d46fcc5b0e60e5081,2024-10-02_02h48.10.010,mdp,2024.2.1,Win32,60.24096386,66fa4ebf79326e780c390304,,,,,,,,,,,,,,,,,,,,,985.645,985.645,985.6457,986.228,1,0,right,0.0631,,986.2291,986.7449,1,1,right,986.7454,987.7956,0,0,left,1,987.7957,987.7957,987.7965,989.2962,0,49,49,49,1,0.4,0.6,0.6,0.4,,,,,,,,,,,,,,,0.0135,,0.6,0.4,0.2,0.8,0.6,0.4,0.2,0.8,,,0.5403,,0.2,0.8,0.6,0.4,0.8,0.2,0.6,0.4,1,0
,,5ee9193db78df9119fe4f7c1,66fc981d46fcc5b0e60e5081,2024-10-02_02h48.10.010,mdp,2024.2.1,Win32,60.24096386,66fa4ebf79326e780c390304,,,,,,,,,,,,,,,,,,,,,,,,,,,,,,,,,,,,,,,,,,,,,,,,,,,,,,,,989.2964,1047.8015,0,2,2,7,1,imgs/goat.png,imgs/kangaroo.png,imgs/rabbit.png,imgs/lion.png,imgs/horse.png,,,,,,,,,,,,,,,,,,,,,,,,
,,5ee9193db78df9119fe4f7c1,66fc981d46fcc5b0e60e5081,2024-10-02_02h48.10.010,mdp,2024.2.1,Win32,60.24096386,66fa4ebf79326e780c390304,,,,,,,,,,,,,,3,seqs/st3seq31.csv,1047.8078,1054.8377,space,6.5101,,1054.8463,1054.8463,1054.8467,1057.2719,0,1,left,1.9089,,1057.273,1058.1391,0,0,left,1058.1399,1058.8395,1,0,right,1,1058.8396,1058.8396,1058.8404,1060.3399,0,0,0,0,1,0.6,0.4,0.8,0.2,,,,,,,,,,,,,,,0.3557,,0.8,0.2,0.2,0.8,0.8,0.2,0.8,0.2,,,0.1842,,0.8,0.2,0.6,0.4,0.6,0.4,0.4,0.6,1,0
,,5ee9193db78df9119fe4f7c1,66fc981d46fcc5b0e60e5081,2024-10-02_02h48.10.010,mdp,2024.2.1,Win32,60.24096386,66fa4ebf79326e780c390304,,,,,,,,,,,,,,,,,,,,,1060.3402,1060.3402,1060.3409,1060.907,0,0,left,0.0334,,1060.9081,1061.7237,0,0,left,1061.7246,1062.3738,1,1,right,0,1062.3739,1062.3739,1062.3748,1063.8746,0,1,1,1,1,0.6,0.4,0.8,0.2,,,,,,,,,,,,,,,0.2962,,0.8,0.2,0.2,0.8,0.8,0.2,0.8,0.2,,,0.1413,,0.8,0.2,0.6,0.4,0.4,0.6,0.6,0.4,1,0
,,5ee9193db78df9119fe4f7c1,66fc981d46fcc5b0e60e5081,2024-10-02_02h48.10.010,mdp,2024.2.1,Win32,60.24096386,66fa4ebf79326e780c390304,,,,,,,,,,,,,,,,,,,,,1063.875,1063.875,1063.8758,1067.4259,0,0,left,3.0205,,1067.4267,1068.1095,0,0,left,1068.1102,1068.8597,1,0,right,1,1068.8597,1068.8597,1068.8604,1070.3602,0,2,2,2,1,0.6,0.4,0.8,0.2,,,,,,,,,,,,,,,0.1758,,0.8,0.2,0.2,0.8,0.8,0.2,0.8,0.2,,,0.2353,,0.8,0.2,0.6,0.4,0.4,0.6,0.6,0.4,1,0
,,5ee9193db78df9119fe4f7c1,66fc981d46fcc5b0e60e5081,2024-10-02_02h48.10.010,mdp,2024.2.1,Win32,60.24096386,66fa4ebf79326e780c390304,,,,,,,,,,,,,,,,,,,,,1070.3605,1070.3605,1070.361,1071.0275,0,0,left,0.1365,,1071.0285,1071.5953,0,1,left,1071.5961,1072.1444,0,1,left,0,1072.1445,1072.1445,1072.1452,1073.6447,0,3,3,3,1,0.6,0.4,0.8,0.2,,,,,,,,,,,,,,,0.0338,,0.8,0.2,0.2,0.8,0.8,0.2,0.8,0.2,,,0.0202,,0.8,0.2,0.6,0.4,0.4,0.6,0.6,0.4,1,0
,,5ee9193db78df9119fe4f7c1,66fc981d46fcc5b0e60e5081,2024-10-02_02h48.10.010,mdp,2024.2.1,Win32,60.24096386,66fa4ebf79326e780c390304,,,,,,,,,,,,,,,,,,,,,1073.6449,1073.6449,1073.6455,1074.279,1,0,right,0.1001,,1074.28,1075.0619,0,0,left,1075.0626,1075.6454,1,1,right,0,1075.6455,1075.6455,1075.6466,1077.1466,0,4,4,4,1,0.6,0.4,0.8,0.2,,,,,,,,,,,,,,,0.2728,,0.8,0.2,0.2,0.8,0.8,0.2,0.8,0.2,,,0.0492,,0.8,0.2,0.6,0.4,0.4,0.6,0.6,0.4,1,0
,,5ee9193db78df9119fe4f7c1,66fc981d46fcc5b0e60e5081,2024-10-02_02h48.10.010,mdp,2024.2.1,Win32,60.24096386,66fa4ebf79326e780c390304,,,,,,,,,,,,,,,,,,,,,1077.1471,1077.1471,1077.1479,1077.68,1,0,right,0.0057,,1077.6805,1078.2802,0,0,left,1078.2808,1078.93,1,0,right,1,1078.9301,1078.9301,1078.9305,1080.4307,0,5,5,5,1,0.6,0.4,0.8,0.2,,,,,,,,,,,,,,,0.0712,,0.8,0.2,0.2,0.8,0.8,0.2,0.8,0.2,,,0.1289,,0.8,0.2,0.6,0.4,0.4,0.6,0.6,0.4,1,0
,,5ee9193db78df9119fe4f7c1,66fc981d46fcc5b0e60e5081,2024-10-02_02h48.10.010,mdp,2024.2.1,Win32,60.24096386,66fa4ebf79326e780c390304,,,,,,,,,,,,,,,,,,,,,1080.431,1080.431,1080.4315,1080.9478,1,0,right,0.0118,,1080.9488,1081.5979,1,1,right,1081.5984,1082.3981,1,0,right,1,1082.3981,1082.3981,1082.3988,1083.8991,0,6,6,6,1,0.6,0.4,0.8,0.2,,,,,,,,,,,,,,,0.1334,,0.8,0.2,0.2,0.8,0.8,0.2,0.8,0.2,,,0.2929,,0.8,0.2,0.6,0.4,0.4,0.6,0.6,0.4,1,0
,,5ee9193db78df9119fe4f7c1,66fc981d46fcc5b0e60e5081,2024-10-02_02h48.10.010,mdp,2024.2.1,Win32,60.24096386,66fa4ebf79326e780c390304,,,,,,,,,,,,,,,,,,,,,1083.8997,1083.8997,1083.9004,1093.2192,0,0,left,8.787,,1093.2259,1094.136,1,1,right,1094.1371,1094.9031,1,1,right,0,1094.9032,1094.9032,1094.904,1096.4034,0,7,7,7,1,0.6,0.4,0.8,0.2,,,,,,,,,,,,,,,0.4078,,0.8,0.2,0.2,0.8,0.8,0.2,0.8,0.2,,,0.257,,0.8,0.2,0.6,0.4,0.4,0.6,0.6,0.4,1,0
,,5ee9193db78df9119fe4f7c1,66fc981d46fcc5b0e60e5081,2024-10-02_02h48.10.010,mdp,2024.2.1,Win32,60.24096386,66fa4ebf79326e780c390304,,,,,,,,,,,,,,,,,,,,,1096.4036,1096.4036,1096.404,1097.6707,1,1,right,0.7337,,1097.6716,1098.3708,1,0,right,1098.3715,1099.2215,1,0,right,1,1099.2216,1099.2216,1099.2225,1100.7217,0,8,8,8,1,0.6,0.4,0.8,0.2,,,,,,,,,,,,,,,0.1935,,0.8,0.2,0.2,0.8,0.8,0.2,0.8,0.2,,,0.3312,,0.8,0.2,0.6,0.4,0.4,0.6,0.6,0.4,1,0
,,5ee9193db78df9119fe4f7c1,66fc981d46fcc5b0e60e5081,2024-10-02_02h48.10.010,mdp,2024.2.1,Win32,60.24096386,66fa4ebf79326e780c390304,,,,,,,,,,,,,,,,,,,,,1100.722,1100.722,1100.7226,1101.2728,1,0,right,0.0337,,1101.2737,1101.8557,1,0,right,1101.8571,1102.5394,0,0,left,1,1102.5394,1102.5394,1102.5401,1104.0399,0,9,9,9,1,0.6,0.4,0.8,0.2,,,,,,,,,,,,,,,0.0498,,0.8,0.2,0.2,0.8,0.8,0.2,0.8,0.2,,,0.1524,,0.8,0.2,0.6,0.4,0.4,0.6,0.6,0.4,1,0
,,5ee9193db78df9119fe4f7c1,66fc981d46fcc5b0e60e5081,2024-10-02_02h48.10.010,mdp,2024.2.1,Win32,60.24096386,66fa4ebf79326e780c390304,,,,,,,,,,,,,,,,,,,,,1104.0401,1104.0401,1104.041,1104.7738,0,0,left,0.2141,,1104.7747,1105.4236,0,0,left,1105.4245,1106.1075,1,0,right,1,1106.1075,1106.1075,1106.1087,1107.6076,0,10,10,10,1,0.6,0.4,0.8,0.2,,,,,,,,,,,,,,,0.118,,0.8,0.2,0.2,0.8,0.8,0.2,0.8,0.2,,,0.1708,,0.8,0.2,0.6,0.4,0.4,0.6,0.6,0.4,1,0
,,5ee9193db78df9119fe4f7c1,66fc981d46fcc5b0e60e5081,2024-10-02_02h48.10.010,mdp,2024.2.1,Win32,60.24096386,66fa4ebf79326e780c390304,,,,,,,,,,,,,,,,,,,,,1107.6081,1107.6081,1107.609,1108.1916,0,0,left,0.0665,,1108.1925,1108.9915,1,0,right,1108.992,1109.8921,0,0,left,1,1109.8921,1109.8921,1109.893,1111.3928,0,11,11,11,1,0.6,0.4,0.8,0.2,,,,,,,,,,,,,,,0.2718,,0.8,0.2,0.2,0.8,0.8,0.2,0.8,0.2,,,0.3874,,0.8,0.2,0.6,0.4,0.4,0.6,0.6,0.4,1,0
,,5ee9193db78df9119fe4f7c1,66fc981d46fcc5b0e60e5081,2024-10-02_02h48.10.010,mdp,2024.2.1,Win32,60.24096386,66fa4ebf79326e780c390304,,,,,,,,,,,,,,,,,,,,,1111.3933,1111.3933,1111.3939,1112.0597,1,0,right,0.1394,,1112.0605,1112.8597,1,1,right,1112.8608,1113.61,1,0,right,1,1113.6101,1113.6101,1113.6106,1115.1106,0,12,12,12,1,0.6,0.4,0.8,0.2,,,,,,,,,,,,,,,0.295,,0.8,0.2,0.2,0.8,0.8,0.2,0.8,0.2,,,0.2445,,0.8,0.2,0.6,0.4,0.4,0.6,0.6,0.4,1,0
,,5ee9193db78df9119fe4f7c1,66fc981d46fcc5b0e60e5081,2024-10-02_02h48.10.010,mdp,2024.2.1,Win32,60.24096386,66fa4ebf79326e780c390304,,,,,,,,,,,,,,,,,,,,,1115.1109,1115.1109,1115.1113,1116.0281,1,0,right,0.4103,,1116.0292,1116.6944,1,1,right,1116.6951,1117.4115,1,1,right,0,1117.4116,1117.4116,1117.4124,1118.9121,0,13,13,13,1,0.6,0.4,0.8,0.2,,,,,,,,,,,,,,,0.1528,,0.8,0.2,0.2,0.8,0.8,0.2,0.8,0.2,,,0.2044,,0.8,0.2,0.6,0.4,0.4,0.6,0.6,0.4,1,0
,,5ee9193db78df9119fe4f7c1,66fc981d46fcc5b0e60e5081,2024-10-02_02h48.10.010,mdp,2024.2.1,Win32,60.24096386,66fa4ebf79326e780c390304,,,,,,,,,,,,,,,,,,,,,1118.9124,1118.9124,1118.9131,1119.6621,1,1,right,0.2281,,1119.663,1120.2961,0,0,left,1120.2965,1120.996,0,0,left,1,1120.9962,1120.9962,1120.9971,1122.4968,0,14,14,14,1,0.6,0.4,0.8,0.2,,,,,,,,,,,,,,,0.1233,,0.8,0.2,0.2,0.8,0.8,0.2,0.8,0.2,,,0.1901,,0.8,0.2,0.6,0.4,0.4,0.6,0.6,0.4,1,0
,,5ee9193db78df9119fe4f7c1,66fc981d46fcc5b0e60e5081,2024-10-02_02h48.10.010,mdp,2024.2.1,Win32,60.24096386,66fa4ebf79326e780c390304,,,,,,,,,,,,,,,,,,,,,1122.4971,1122.4971,1122.4976,1123.0968,0,1,left,0.0709,,1123.0975,1123.8476,0,0,left,1123.8482,1124.5975,0,0,left,1,1124.5976,1124.5976,1124.5982,1126.0984,0,15,15,15,1,0.6,0.4,0.8,0.2,,,,,,,,,,,,,,,0.239,,0.8,0.2,0.2,0.8,0.8,0.2,0.8,0.2,,,0.2469,,0.8,0.2,0.6,0.4,0.4,0.6,0.6,0.4,1,0
,,5ee9193db78df9119fe4f7c1,66fc981d46fcc5b0e60e5081,2024-10-02_02h48.10.010,mdp,2024.2.1,Win32,60.24096386,66fa4ebf79326e780c390304,,,,,,,,,,,,,,,,,,,,,1126.0991,1126.0991,1126.0999,1126.8149,0,1,left,0.1957,,1126.8156,1127.5821,0,1,left,1127.5827,1128.2655,1,0,right,1,1128.2656,1128.2656,1128.2662,1129.7663,0,16,16,16,1,0.6,0.4,0.8,0.2,,,,,,,,,,,,,,,0.2538,,0.8,0.2,0.2,0.8,0.2,0.8,0.2,0.8,,,0.1651,,0.8,0.2,0.6,0.4,0.4,0.6,0.6,0.4,1,0
,,5ee9193db78df9119fe4f7c1,66fc981d46fcc5b0e60e5081,2024-10-02_02h48.10.010,mdp,2024.2.1,Win32,60.24096386,66fa4ebf79326e780c390304,,,,,,,,,,,,,,,,,,,,,1129.7667,1129.7667,1129.7673,1130.4333,1,0,right,0.1425,,1130.4344,1131.1335,1,1,right,1131.1345,1131.7337,1,1,right,0,1131.7338,1131.7338,1131.7347,1133.2343,0,17,17,17,1,0.6,0.4,0.8,0.2,,,,,,,,,,,,,,,0.1814,,0.8,0.2,0.2,0.8,0.2,0.8,0.2,0.8,,,0.0834,,0.6,0.4,0.2,0.8,0.4,0.6,0.6,0.4,1,0
,,5ee9193db78df9119fe4f7c1,66fc981d46fcc5b0e60e5081,2024-10-02_02h48.10.010,mdp,2024.2.1,Win32,60.24096386,66fa4ebf79326e780c390304,,,,,,,,,,,,,,,,,,,,,1133.2345,1133.2345,1133.2349,1133.9845,1,1,right,0.2174,,1133.9856,1134.6352,1,0,right,1134.6359,1135.2016,1,1,right,0,1135.2016,1135.2016,1135.2022,1136.7022,0,18,18,18,1,0.6,0.4,0.8,0.2,,,,,,,,,,,,,,,0.1328,,0.8,0.2,0.2,0.8,0.2,0.8,0.2,0.8,,,0.0384,,0.6,0.4,0.2,0.8,0.4,0.6,0.6,0.4,1,0
,,5ee9193db78df9119fe4f7c1,66fc981d46fcc5b0e60e5081,2024-10-02_02h48.10.010,mdp,2024.2.1,Win32,60.24096386,66fa4ebf79326e780c390304,,,,,,,,,,,,,,,,,,,,,1136.7025,1136.7025,1136.7032,1137.4192,1,0,right,0.1883,,1137.4197,1140.6535,0,0,left,1140.6597,1141.4039,1,1,right,0,1141.404,1141.404,1141.4048,1142.9047,0,19,19,19,1,0.6,0.4,0.8,0.2,,,,,,,,,,,,,,,2.725,,0.8,0.2,0.2,0.8,0.2,0.8,0.2,0.8,,,0.2345,,0.6,0.4,0.2,0.8,0.4,0.6,0.6,0.4,1,0
,,5ee9193db78df9119fe4f7c1,66fc981d46fcc5b0e60e5081,2024-10-02_02h48.10.010,mdp,2024.2.1,Win32,60.24096386,66fa4ebf79326e780c390304,,,,,,,,,,,,,,,,,,,,,1142.905,1142.905,1142.9058,1143.7215,0,1,left,0.2839,,1143.7223,1144.3388,0,1,left,1144.3394,1145.0558,1,1,right,0,1145.056,1145.056,1145.0567,1146.556,0,20,20,20,1,0.6,0.4,0.8,0.2,,,,,,,,,,,,,,,0.0838,,0.8,0.2,0.2,0.8,0.2,0.8,0.2,0.8,,,0.1982,,0.6,0.4,0.2,0.8,0.4,0.6,0.6,0.4,1,0
,,5ee9193db78df9119fe4f7c1,66fc981d46fcc5b0e60e5081,2024-10-02_02h48.10.010,mdp,2024.2.1,Win32,60.24096386,66fa4ebf79326e780c390304,,,,,,,,,,,,,,,,,,,,,1146.5564,1146.5564,1146.5571,1147.2062,0,0,left,0.1215,,1147.2072,1147.8733,0,0,left,1147.874,1148.4735,0,1,left,0,1148.4735,1148.4736,1148.4742,1149.9742,0,21,21,21,1,0.6,0.4,0.8,0.2,,,,,,,,,,,,,,,0.1531,,0.8,0.2,0.2,0.8,0.2,0.8,0.2,0.8,,,0.0919,,0.6,0.4,0.2,0.8,0.4,0.6,0.6,0.4,1,0
,,5ee9193db78df9119fe4f7c1,66fc981d46fcc5b0e60e5081,2024-10-02_02h48.10.010,mdp,2024.2.1,Win32,60.24096386,66fa4ebf79326e780c390304,,,,,,,,,,,,,,,,,,,,,1149.9746,1149.9746,1149.9753,1150.7741,0,0,left,0.2673,,1150.7748,1151.491,1,1,right,1151.4915,1152.1412,0,0,left,1,1152.1413,1152.1413,1152.1418,1153.6419,0,22,22,22,1,0.6,0.4,0.8,0.2,,,,,,,,,,,,,,,0.2011,,0.8,0.2,0.2,0.8,0.2,0.8,0.2,0.8,,,0.143,,0.6,0.4,0.2,0.8,0.4,0.6,0.6,0.4,1,0
,,5ee9193db78df9119fe4f7c1,66fc981d46fcc5b0e60e5081,2024-10-02_02h48.10.010,mdp,2024.2.1,Win32,60.24096386,66fa4ebf79326e780c390304,,,,,,,,,,,,,,,,,,,,,1153.6423,1153.6423,1153.643,1154.759,0,0,left,0.5833,,1154.7598,1155.576,1,1,right,1155.5769,1156.1761,0,1,left,0,1156.1762,1156.1763,1156.1768,1157.6769,0,23,23,23,1,0.6,0.4,0.8,0.2,,,,,,,,,,,,,,,0.3097,,0.8,0.2,0.2,0.8,0.2,0.8,0.2,0.8,,,0.0916,,0.6,0.4,0.2,0.8,0.4,0.6,0.6,0.4,1,0
,,5ee9193db78df9119fe4f7c1,66fc981d46fcc5b0e60e5081,2024-10-02_02h48.10.010,mdp,2024.2.1,Win32,60.24096386,66fa4ebf79326e780c390304,,,,,,,,,,,,,,,,,,,,,1157.6773,1157.6773,1157.6782,1158.3774,0,0,left,0.1668,,1158.3783,1158.9442,0,0,left,1158.9449,1159.5607,1,0,right,1,1159.5607,1159.5607,1159.5612,1161.0614,0,24,24,24,1,0.6,0.4,0.8,0.2,,,,,,,,,,,,,,,0.0432,,0.8,0.2,0.2,0.8,0.2,0.8,0.2,0.8,,,0.0878,,0.6,0.4,0.2,0.8,0.4,0.6,0.6,0.4,1,0
,,5ee9193db78df9119fe4f7c1,66fc981d46fcc5b0e60e5081,2024-10-02_02h48.10.010,mdp,2024.2.1,Win32,60.24096386,66fa4ebf79326e780c390304,,,,,,,,,,,,,,,,,,,,,1161.0616,1161.0616,1161.0624,1161.7283,0,1,left,0.1616,,1161.729,1162.3452,0,1,left,1162.3464,1162.8622,1,0,right,1,1162.8623,1162.8623,1162.863,1164.3627,0,25,25,25,1,0.6,0.4,0.8,0.2,,,,,,,,,,,,,,,0.1042,,0.8,0.2,0.2,0.8,0.2,0.8,0.2,0.8,,,0.0072,,0.6,0.4,0.2,0.8,0.4,0.6,0.6,0.4,1,0
,,5ee9193db78df9119fe4f7c1,66fc981d46fcc5b0e60e5081,2024-10-02_02h48.10.010,mdp,2024.2.1,Win32,60.24096386,66fa4ebf79326e780c390304,,,,,,,,,,,,,,,,,,,,,1164.3631,1164.3631,1164.3638,1164.9297,0,0,left,0.0343,,1164.9305,1165.4965,0,0,left,1165.4972,1166.1801,1,1,right,0,1166.1801,1166.1801,1166.1806,1167.6807,0,26,26,26,1,0.6,0.4,0.8,0.2,,,,,,,,,,,,,,,0.0619,,0.8,0.2,0.2,0.8,0.2,0.8,0.2,0.8,,,0.1691,,0.6,0.4,0.2,0.8,0.4,0.6,0.6,0.4,1,0
,,5ee9193db78df9119fe4f7c1,66fc981d46fcc5b0e60e5081,2024-10-02_02h48.10.010,mdp,2024.2.1,Win32,60.24096386,66fa4ebf79326e780c390304,,,,,,,,,,,,,,,,,,,,,1167.6811,1167.6811,1167.6819,1168.2475,1,0,right,0.0409,,1168.2486,1169.0481,1,1,right,1169.0491,1169.6146,0,1,left,0,1169.6146,1169.6146,1169.6152,1171.1152,0,27,27,27,1,0.6,0.4,0.8,0.2,,,,,,,,,,,,,,,0.2884,,0.8,0.2,0.2,0.8,0.2,0.8,0.2,0.8,,,0.0418,,0.6,0.4,0.2,0.8,0.4,0.6,0.6,0.4,1,0
,,5ee9193db78df9119fe4f7c1,66fc981d46fcc5b0e60e5081,2024-10-02_02h48.10.010,mdp,2024.2.1,Win32,60.24096386,66fa4ebf79326e780c390304,,,,,,,,,,,,,,,,,,,,,1171.1156,1171.1156,1171.1167,1171.9489,1,0,right,0.3255,,1171.9496,1172.9163,1,1,right,1172.917,1173.6498,1,0,right,1,1173.6499,1173.6499,1173.6506,1175.1502,0,28,28,28,1,0.6,0.4,0.8,0.2,,,,,,,,,,,,,,,0.4593,,0.8,0.2,0.2,0.8,0.2,0.8,0.2,0.8,,,0.2111,,0.6,0.4,0.2,0.8,0.4,0.6,0.6,0.4,1,0
,,5ee9193db78df9119fe4f7c1,66fc981d46fcc5b0e60e5081,2024-10-02_02h48.10.010,mdp,2024.2.1,Win32,60.24096386,66fa4ebf79326e780c390304,,,,,,,,,,,,,,,,,,,,,1175.1505,1175.1505,1175.1514,1175.8005,1,0,right,0.1269,,1175.8013,1176.3506,1,0,right,1176.3512,1177.0844,1,1,right,0,1177.0845,1177.0845,1177.0853,1178.585,0,29,29,29,1,0.6,0.4,0.8,0.2,,,,,,,,,,,,,,,0.0163,,0.8,0.2,0.2,0.8,0.2,0.8,0.2,0.8,,,0.216,,0.6,0.4,0.2,0.8,0.4,0.6,0.6,0.4,1,0
,,5ee9193db78df9119fe4f7c1,66fc981d46fcc5b0e60e5081,2024-10-02_02h48.10.010,mdp,2024.2.1,Win32,60.24096386,66fa4ebf79326e780c390304,,,,,,,,,,,,,,,,,,,,,1178.5854,1178.5854,1178.5863,1179.5187,0,0,left,0.4015,,1179.5195,1180.2691,0,0,left,1180.2704,1180.8025,0,0,left,1,1180.8026,1180.8026,1180.8033,1182.303,0,30,30,30,1,0.6,0.4,0.8,0.2,,,,,,,,,,,,,,,0.2393,,0.8,0.2,0.2,0.8,0.2,0.8,0.2,0.8,,,0.0048,,0.6,0.4,0.2,0.8,0.4,0.6,0.6,0.4,1,0
,,5ee9193db78df9119fe4f7c1,66fc981d46fcc5b0e60e5081,2024-10-02_02h48.10.010,mdp,2024.2.1,Win32,60.24096386,66fa4ebf79326e780c390304,,,,,,,,,,,,,,,,,,,,,1182.3034,1182.3034,1182.3041,1182.9532,0,0,left,0.1225,,1182.9542,1183.6866,0,0,left,1183.6872,1184.4204,0,1,left,0,1184.4204,1184.4204,1184.4209,1185.9208,0,31,31,31,1,0.8,0.2,0.4,0.6,,,,,,,,,,,,,,,0.23,,0.8,0.2,0.2,0.8,0.2,0.8,0.2,0.8,,,0.2163,,0.6,0.4,0.2,0.8,0.4,0.6,0.6,0.4,1,0
,,5ee9193db78df9119fe4f7c1,66fc981d46fcc5b0e60e5081,2024-10-02_02h48.10.010,mdp,2024.2.1,Win32,60.24096386,66fa4ebf79326e780c390304,,,,,,,,,,,,,,,,,,,,,1185.9211,1185.9211,1185.9224,1186.4548,0,0,left,0.0282,,1186.4557,1187.0047,1,1,right,1187.0054,1187.6715,0,1,left,0,1187.6716,1187.6716,1187.6722,1189.1724,0,32,32,32,1,0.8,0.2,0.4,0.6,,,,,,,,,,,,,,,0.0241,,0.8,0.2,0.2,0.8,0.2,0.8,0.2,0.8,,,0.1485,,0.6,0.4,0.2,0.8,0.4,0.6,0.6,0.4,1,0
,,5ee9193db78df9119fe4f7c1,66fc981d46fcc5b0e60e5081,2024-10-02_02h48.10.010,mdp,2024.2.1,Win32,60.24096386,66fa4ebf79326e780c390304,,,,,,,,,,,,,,,,,,,,,1189.173,1189.173,1189.1737,1190.1727,1,0,right,0.4669,,1190.1739,1190.773,1,1,right,1190.7735,1191.4062,1,1,right,0,1191.4063,1191.4063,1191.407,1192.907,0,33,33,33,1,0.8,0.2,0.4,0.6,,,,,,,,,,,,,,,0.0754,,0.8,0.2,0.2,0.8,0.2,0.8,0.2,0.8,,,0.1301,,0.6,0.4,0.2,0.8,0.4,0.6,0.6,0.4,1,0
,,5ee9193db78df9119fe4f7c1,66fc981d46fcc5b0e60e5081,2024-10-02_02h48.10.010,mdp,2024.2.1,Win32,60.24096386,66fa4ebf79326e780c390304,,,,,,,,,,,,,,,,,,,,,1192.9073,1192.9074,1192.9084,1193.6571,0,0,left,0.2258,,1193.6578,1194.2413,0,0,left,1194.2422,1195.0583,1,1,right,0,1195.0584,1195.0584,1195.0591,1196.5587,0,34,34,34,1,0.8,0.2,0.4,0.6,,,,,,,,,,,,,,,0.0776,,0.8,0.2,0.2,0.8,0.2,0.8,0.2,0.8,,,0.2838,,0.6,0.4,0.2,0.8,0.4,0.6,0.6,0.4,1,0
,,5ee9193db78df9119fe4f7c1,66fc981d46fcc5b0e60e5081,2024-10-02_02h48.10.010,mdp,2024.2.1,Win32,60.24096386,66fa4ebf79326e780c390304,,,,,,,,,,,,,,,,,,,,,1196.5592,1196.5592,1196.5599,1197.0917,0,0,left,0.0141,,1197.0925,1197.6423,0,0,left,1197.6434,1198.3092,1,1,right,0,1198.3092,1198.3092,1198.3098,1199.8095,0,35,35,35,1,0.8,0.2,0.4,0.6,,,,,,,,,,,,,,,0.0432,,0.8,0.2,0.2,0.8,0.2,0.8,0.2,0.8,,,0.1473,,0.6,0.4,0.2,0.8,0.4,0.6,0.6,0.4,1,0
,,5ee9193db78df9119fe4f7c1,66fc981d46fcc5b0e60e5081,2024-10-02_02h48.10.010,mdp,2024.2.1,Win32,60.24096386,66fa4ebf79326e780c390304,,,,,,,,,,,,,,,,,,,,,1199.8097,1199.8097,1199.8104,1200.3431,0,1,left,0.0231,,1200.3435,1200.927,0,0,left,1200.9278,1201.6937,1,1,right,0,1201.6938,1201.6938,1201.6946,1203.1941,0,36,36,36,1,0.8,0.2,0.4,0.6,,,,,,,,,,,,,,,0.0656,,0.8,0.2,0.2,0.8,0.6,0.4,0.8,0.2,,,0.244,,0.6,0.4,0.2,0.8,0.4,0.6,0.6,0.4,1,0
,,5ee9193db78df9119fe4f7c1,66fc981d46fcc5b0e60e5081,2024-10-02_02h48.10.010,mdp,2024.2.1,Win32,60.24096386,66fa4ebf79326e780c390304,,,,,,,,,,,,,,,,,,,,,1203.1944,1203.1944,1203.1951,1203.7946,1,1,right,0.0775,,1203.7958,1204.3613,0,1,left,1204.3621,1205.1116,1,0,right,1,1205.1116,1205.1116,1205.1123,1206.6121,0,37,37,37,1,0.8,0.2,0.4,0.6,,,,,,,,,,,,,,,0.0344,,0.8,0.2,0.2,0.8,0.6,0.4,0.8,0.2,,,0.22,,0.6,0.4,0.2,0.8,0.4,0.6,0.6,0.4,1,0
,,5ee9193db78df9119fe4f7c1,66fc981d46fcc5b0e60e5081,2024-10-02_02h48.10.010,mdp,2024.2.1,Win32,60.24096386,66fa4ebf79326e780c390304,,,,,,,,,,,,,,,,,,,,,1206.6125,1206.6125,1206.6134,1207.2627,0,1,left,0.1172,,1207.2635,1207.8295,1,0,right,1207.8301,1208.5131,1,1,right,0,1208.5131,1208.5131,1208.5139,1210.0135,0,38,38,38,1,0.8,0.2,0.4,0.6,,,,,,,,,,,,,,,0.0336,,0.8,0.2,0.2,0.8,0.6,0.4,0.8,0.2,,,0.1684,,0.6,0.4,0.2,0.8,0.4,0.6,0.6,0.4,1,0
,,5ee9193db78df9119fe4f7c1,66fc981d46fcc5b0e60e5081,2024-10-02_02h48.10.010,mdp,2024.2.1,Win32,60.24096386,66fa4ebf79326e780c390304,,,,,,,,,,,,,,,,,,,,,1210.0139,1210.0139,1210.0146,1210.9139,1,1,right,0.3696,,1210.9147,1211.4642,1,0,right,1211.465,1212.0808,0,1,left,0,1212.0808,1212.0808,1212.0814,1213.5813,0,39,39,39,1,0.8,0.2,0.4,0.6,,,,,,,,,,,,,,,0.0268,,0.8,0.2,0.2,0.8,0.6,0.4,0.8,0.2,,,0.0856,,0.6,0.4,0.2,0.8,0.4,0.6,0.6,0.4,1,0
,,5ee9193db78df9119fe4f7c1,66fc981d46fcc5b0e60e5081,2024-10-02_02h48.10.010,mdp,2024.2.1,Win32,60.24096386,66fa4ebf79326e780c390304,,,,,,,,,,,,,,,,,,,,,1213.5817,1213.5817,1213.5825,1214.0989,1,1,right,0.0002,,1214.0996,1214.6992,1,0,right,1214.6998,1215.2495,1,0,right,1,1215.2495,1215.2495,1215.2505,1216.7496,0,40,40,40,1,0.8,0.2,0.4,0.6,,,,,,,,,,,,,,,0.0872,,0.8,0.2,0.2,0.8,0.6,0.4,0.8,0.2,,,0.0301,,0.6,0.4,0.2,0.8,0.4,0.6,0.6,0.4,1,0
,,5ee9193db78df9119fe4f7c1,66fc981d46fcc5b0e60e5081,2024-10-02_02h48.10.010,mdp,2024.2.1,Win32,60.24096386,66fa4ebf79326e780c390304,,,,,,,,,,,,,,,,,,,,,1216.7499,1216.7499,1216.7504,1217.4166,1,1,right,0.1436,,1217.4175,1217.9996,1,1,right,1218.0004,1218.5501,1,0,right,1,1218.5501,1218.5501,1218.5507,1220.0505,0,41,41,41,1,0.8,0.2,0.4,0.6,,,,,,,,,,,,,,,0.0755,,0.8,0.2,0.2,0.8,0.6,0.4,0.8,0.2,,,0.0346,,0.6,0.4,0.2,0.8,0.4,0.6,0.6,0.4,1,0
,,5ee9193db78df9119fe4f7c1,66fc981d46fcc5b0e60e5081,2024-10-02_02h48.10.010,mdp,2024.2.1,Win32,60.24096386,66fa4ebf79326e780c390304,,,,,,,,,,,,,,,,,,,,,1220.0508,1220.0508,1220.0512,1220.8174,1,1,right,0.2456,,1220.8183,1221.3686,1,0,right,1221.3698,1222.2013,1,1,right,0,1222.2014,1222.2014,1222.2021,1223.7018,0,42,42,42,1,0.8,0.2,0.4,0.6,,,,,,,,,,,,,,,0.0406,,0.8,0.2,0.2,0.8,0.6,0.4,0.8,0.2,,,0.3102,,0.6,0.4,0.2,0.8,0.4,0.6,0.6,0.4,1,0
,,5ee9193db78df9119fe4f7c1,66fc981d46fcc5b0e60e5081,2024-10-02_02h48.10.010,mdp,2024.2.1,Win32,60.24096386,66fa4ebf79326e780c390304,,,,,,,,,,,,,,,,,,,,,1223.7022,1223.7022,1223.7031,1224.5859,1,1,right,0.3497,,1224.5868,1225.5034,1,0,right,1225.5043,1226.0365,1,0,right,1,1226.0366,1226.0366,1226.0372,1227.5368,0,43,43,43,1,0.8,0.2,0.4,0.6,,,,,,,,,,,,,,,0.4009,,0.8,0.2,0.2,0.8,0.6,0.4,0.8,0.2,,,0.0093,,0.6,0.4,0.2,0.8,0.4,0.6,0.6,0.4,1,0
,,5ee9193db78df9119fe4f7c1,66fc981d46fcc5b0e60e5081,2024-10-02_02h48.10.010,mdp,2024.2.1,Win32,60.24096386,66fa4ebf79326e780c390304,,,,,,,,,,,,,,,,,,,,,1227.5372,1227.5372,1227.5377,1228.0873,1,1,right,0.018,,1228.0887,1228.6206,1,0,right,1228.6216,1229.4208,1,1,right,0,1229.4209,1229.4209,1229.4214,1230.9213,0,44,44,44,1,0.8,0.2,0.4,0.6,,,,,,,,,,,,,,,0.0002,,0.8,0.2,0.2,0.8,0.6,0.4,0.8,0.2,,,0.2933,,0.6,0.4,0.2,0.8,0.4,0.6,0.6,0.4,1,0
,,5ee9193db78df9119fe4f7c1,66fc981d46fcc5b0e60e5081,2024-10-02_02h48.10.010,mdp,2024.2.1,Win32,60.24096386,66fa4ebf79326e780c390304,,,,,,,,,,,,,,,,,,,,,1230.9215,1230.9215,1230.9223,1231.5215,1,1,right,0.0735,,1231.5223,1232.3053,1,1,right,1232.3059,1233.039,1,0,right,1,1233.039,1233.039,1233.0398,1234.5392,0,45,45,45,1,0.8,0.2,0.4,0.6,,,,,,,,,,,,,,,0.2689,,0.2,0.8,0.8,0.2,0.6,0.4,0.8,0.2,,,0.2159,,0.6,0.4,0.2,0.8,0.4,0.6,0.6,0.4,1,0
,,5ee9193db78df9119fe4f7c1,66fc981d46fcc5b0e60e5081,2024-10-02_02h48.10.010,mdp,2024.2.1,Win32,60.24096386,66fa4ebf79326e780c390304,,,,,,,,,,,,,,,,,,,,,1234.5395,1234.5395,1234.5403,1235.6731,0,0,left,0.6284,,1235.6737,1236.4235,0,0,left,1236.4244,1237.0903,0,1,left,0,1237.0904,1237.0904,1237.091,1238.5911,0,46,46,46,1,0.8,0.2,0.4,0.6,,,,,,,,,,,,,,,0.2318,,0.2,0.8,0.8,0.2,0.6,0.4,0.8,0.2,,,0.1608,,0.6,0.4,0.2,0.8,0.4,0.6,0.6,0.4,1,0
,,5ee9193db78df9119fe4f7c1,66fc981d46fcc5b0e60e5081,2024-10-02_02h48.10.010,mdp,2024.2.1,Win32,60.24096386,66fa4ebf79326e780c390304,,,,,,,,,,,,,,,,,,,,,1238.5916,1238.5916,1238.5925,1239.141,1,1,right,0.0301,,1239.1416,1239.6914,1,0,right,1239.6924,1240.2587,1,1,right,0,1240.2588,1240.2588,1240.2593,1241.7593,0,47,47,47,1,0.8,0.2,0.4,0.6,,,,,,,,,,,,,,,0.0328,,0.2,0.8,0.8,0.2,0.6,0.4,0.8,0.2,,,0.0504,,0.6,0.4,0.2,0.8,0.4,0.6,0.6,0.4,1,0
,,5ee9193db78df9119fe4f7c1,66fc981d46fcc5b0e60e5081,2024-10-02_02h48.10.010,mdp,2024.2.1,Win32,60.24096386,66fa4ebf79326e780c390304,,,,,,,,,,,,,,,,,,,,,1241.7596,1241.7597,1241.7603,1242.3758,1,1,right,0.0912,,1242.3768,1242.9764,0,0,left,1242.9774,1244.0262,0,1,left,0,1244.0263,1244.0263,1244.0269,1245.5272,0,48,48,48,1,0.8,0.2,0.4,0.6,,,,,,,,,,,,,,,0.0835,,0.2,0.8,0.8,0.2,0.6,0.4,0.8,0.2,,,0.5295,,0.6,0.4,0.2,0.8,0.4,0.6,0.6,0.4,1,0
,,5ee9193db78df9119fe4f7c1,66fc981d46fcc5b0e60e5081,2024-10-02_02h48.10.010,mdp,2024.2.1,Win32,60.24096386,66fa4ebf79326e780c390304,,,,,,,,,,,,,,,,,,,,,1245.5274,1245.5274,1245.5284,1246.0775,0,1,left,0.0162,,1246.0783,1246.6272,1,0,right,1246.6279,1247.2777,1,1,right,0,1247.2777,1247.2777,1247.2783,1248.7789,0,49,49,49,1,0.8,0.2,0.4,0.6,,,,,,,,,,,,,,,0.0335,,0.2,0.8,0.8,0.2,0.6,0.4,0.8,0.2,,,0.1429,,0.6,0.4,0.2,0.8,0.4,0.6,0.6,0.4,1,0
,,5ee9193db78df9119fe4f7c1,66fc981d46fcc5b0e60e5081,2024-10-02_02h48.10.010,mdp,2024.2.1,Win32,60.24096386,66fa4ebf79326e780c390304,,,,,,,,,,,,,,,,,,,,,,,,,,,,,,,,,,,,,,,,,,,,,,,,,,,,,,,,1248.7791,1307.2839,0,3,3,6,1,imgs/squirrel.png,imgs/cat.png,imgs/rabbit.png,imgs/horse.png,imgs/giraffe.png,,,,,,,,,,,,,,,,,,,,,,,,
,,5ee9193db78df9119fe4f7c1,66fc981d46fcc5b0e60e5081,2024-10-02_02h48.10.010,mdp,2024.2.1,Win32,60.24096386,66fa4ebf79326e780c390304,,,,,,,,,,,,,,1,seqs/st1seq23.csv,1307.2905,1319.1888,space,11.3718,,1319.1958,1319.1958,1319.1962,1320.5561,0,1,left,0.8317,,1320.5567,1320.5572,1,1,,1320.5576,1320.558,1,0,,0,1320.558,1320.558,1320.5583,1322.0559,0,0,0,0,1,0.2,0.8,0.8,0.2,1,0,,,,,,,,,,,,,,,,,,,,,,,,,,,,,,,,,,,,
,,5ee9193db78df9119fe4f7c1,66fc981d46fcc5b0e60e5081,2024-10-02_02h48.10.010,mdp,2024.2.1,Win32,60.24096386,66fa4ebf79326e780c390304,,,,,,,,,,,,,,,,,,,,,1322.0562,1322.0562,1322.0567,1323.1398,0,1,left,0.5734,,1323.1404,1323.141,1,1,,1323.1413,1323.1417,1,1,,0,1323.1417,1323.1418,1323.142,1324.6404,0,1,1,1,1,0.2,0.8,0.8,0.2,1,0,,,,,,,,,,,,,,,,,,,,,,,,,,,,,,,,,,,,
,,5ee9193db78df9119fe4f7c1,66fc981d46fcc5b0e60e5081,2024-10-02_02h48.10.010,mdp,2024.2.1,Win32,60.24096386,66fa4ebf79326e780c390304,,,,,,,,,,,,,,,,,,,,,1324.6407,1324.6407,1324.6415,1325.6241,1,1,right,0.4745,,1325.625,1325.6257,1,0,,1325.6261,1325.6264,1,0,,0,1325.6264,1325.6264,1325.6267,1327.125,0,2,2,2,1,0.2,0.8,0.8,0.2,1,0,,,,,,,,,,,,,,,,,,,,,,,,,,,,,,,,,,,,
,,5ee9193db78df9119fe4f7c1,66fc981d46fcc5b0e60e5081,2024-10-02_02h48.10.010,mdp,2024.2.1,Win32,60.24096386,66fa4ebf79326e780c390304,,,,,,,,,,,,,,,,,,,,,1327.1251,1327.1251,1327.1259,1328.1088,0,1,left,0.4504,,1328.1096,1328.1101,1,1,,1328.1106,1328.1108,1,1,,0,1328.1108,1328.1108,1328.111,1329.6091,0,3,3,3,1,0.2,0.8,0.8,0.2,1,0,,,,,,,,,,,,,,,,,,,,,,,,,,,,,,,,,,,,
,,5ee9193db78df9119fe4f7c1,66fc981d46fcc5b0e60e5081,2024-10-02_02h48.10.010,mdp,2024.2.1,Win32,60.24096386,66fa4ebf79326e780c390304,,,,,,,,,,,,,,,,,,,,,1329.6094,1329.6094,1329.6101,1330.4594,0,0,left,0.34,,1330.4601,1330.4605,1,1,,1330.461,1330.4613,1,1,,1,1330.4613,1330.4613,1330.4615,1331.96,0,4,4,4,1,0.2,0.8,0.8,0.2,1,0,,,,,,,,,,,,,,,,,,,,,,,,,,,,,,,,,,,,
,,5ee9193db78df9119fe4f7c1,66fc981d46fcc5b0e60e5081,2024-10-02_02h48.10.010,mdp,2024.2.1,Win32,60.24096386,66fa4ebf79326e780c390304,,,,,,,,,,,,,,,,,,,,,1331.9602,1331.9602,1331.961,1332.8102,0,1,left,0.3238,,1332.8112,1332.8118,1,0,,1332.8126,1332.8128,1,0,,0,1332.8128,1332.8128,1332.8131,1334.3109,0,5,5,5,1,0.6,0.4,0.6,0.4,1,0,,,,,,,,,,,,,,,,,,,,,,,,,,,,,,,,,,,,
,,5ee9193db78df9119fe4f7c1,66fc981d46fcc5b0e60e5081,2024-10-02_02h48.10.010,mdp,2024.2.1,Win32,60.24096386,66fa4ebf79326e780c390304,,,,,,,,,,,,,,,,,,,,,1334.311,1334.311,1334.3118,1335.2944,0,0,left,0.4636,,1335.2953,1335.2958,1,0,,1335.2963,1335.2966,1,0,,1,1335.2966,1335.2966,1335.2969,1336.795,0,6,6,6,1,0.8,0.2,0.8,0.2,1,0,,,,,,,,,,,,,,,,,,,,,,,,,,,,,,,,,,,,
,,5ee9193db78df9119fe4f7c1,66fc981d46fcc5b0e60e5081,2024-10-02_02h48.10.010,mdp,2024.2.1,Win32,60.24096386,66fa4ebf79326e780c390304,,,,,,,,,,,,,,,,,,,,,1336.7953,1336.7953,1336.796,1337.6953,1,0,right,0.3793,,1337.6956,1337.6962,1,0,,1337.6968,1337.6972,1,0,,1,1337.6972,1337.6972,1337.6975,1339.1961,0,7,7,7,1,0.8,0.2,0.8,0.2,1,0,,,,,,,,,,,,,,,,,,,,,,,,,,,,,,,,,,,,
,,5ee9193db78df9119fe4f7c1,66fc981d46fcc5b0e60e5081,2024-10-02_02h48.10.010,mdp,2024.2.1,Win32,60.24096386,66fa4ebf79326e780c390304,,,,,,,,,,,,,,,,,,,,,1339.1964,1339.1965,1339.1973,1339.7298,1,0,right,0.0092,,1339.7309,1339.7313,1,0,,1339.7318,1339.7321,1,0,,1,1339.7321,1339.7321,1339.7323,1341.2303,0,8,8,8,1,0.8,0.2,0.8,0.2,1,0,,,,,,,,,,,,,,,,,,,,,,,,,,,,,,,,,,,,
,,5ee9193db78df9119fe4f7c1,66fc981d46fcc5b0e60e5081,2024-10-02_02h48.10.010,mdp,2024.2.1,Win32,60.24096386,66fa4ebf79326e780c390304,,,,,,,,,,,,,,,,,,,,,1341.2306,1341.2306,1341.2313,1342.0805,1,0,right,0.316,,1342.081,1342.0815,1,0,,1342.082,1342.0823,1,0,,1,1342.0824,1342.0824,1342.0827,1343.5809,0,9,9,9,1,0.8,0.2,0.8,0.2,1,0,,,,,,,,,,,,,,,,,,,,,,,,,,,,,,,,,,,,
,,5ee9193db78df9119fe4f7c1,66fc981d46fcc5b0e60e5081,2024-10-02_02h48.10.010,mdp,2024.2.1,Win32,60.24096386,66fa4ebf79326e780c390304,,,,,,,,,,,,,,,,,,,,,1343.581,1343.581,1343.5815,1344.4978,1,0,right,0.4132,,1344.4986,1344.4991,1,0,,1344.4998,1344.5002,1,1,,1,1344.5002,1344.5002,1344.5005,1345.9986,0,10,10,10,1,0.8,0.2,0.8,0.2,1,0,,,,,,,,,,,,,,,,,,,,,,,,,,,,,,,,,,,,
,,5ee9193db78df9119fe4f7c1,66fc981d46fcc5b0e60e5081,2024-10-02_02h48.10.010,mdp,2024.2.1,Win32,60.24096386,66fa4ebf79326e780c390304,,,,,,,,,,,,,,,,,,,,,1345.9988,1345.9988,1345.9995,1346.8322,1,1,right,0.3169,,1346.8332,1346.8339,1,0,,1346.8345,1346.8348,1,1,,0,1346.8348,1346.8348,1346.8351,1348.3328,0,11,11,11,1,0.6,0.4,0.4,0.6,1,0,,,,,,,,,,,,,,,,,,,,,,,,,,,,,,,,,,,,
,,5ee9193db78df9119fe4f7c1,66fc981d46fcc5b0e60e5081,2024-10-02_02h48.10.010,mdp,2024.2.1,Win32,60.24096386,66fa4ebf79326e780c390304,,,,,,,,,,,,,,,,,,,,,1348.3332,1348.3332,1348.3339,1348.9997,1,0,right,0.1339,,1349.0005,1349.0011,1,0,,1349.0015,1349.0021,1,1,,1,1349.0021,1349.0021,1349.0026,1350.5002,0,12,12,12,1,0.6,0.4,0.4,0.6,1,0,,,,,,,,,,,,,,,,,,,,,,,,,,,,,,,,,,,,
,,5ee9193db78df9119fe4f7c1,66fc981d46fcc5b0e60e5081,2024-10-02_02h48.10.010,mdp,2024.2.1,Win32,60.24096386,66fa4ebf79326e780c390304,,,,,,,,,,,,,,,,,,,,,1350.5004,1350.5004,1350.5014,1351.1505,1,0,right,0.1248,,1351.1511,1351.1516,1,0,,1351.152,1351.1524,1,1,,1,1351.1525,1351.1525,1351.1528,1352.651,0,13,13,13,1,0.8,0.2,0.6,0.4,1,0,,,,,,,,,,,,,,,,,,,,,,,,,,,,,,,,,,,,
,,5ee9193db78df9119fe4f7c1,66fc981d46fcc5b0e60e5081,2024-10-02_02h48.10.010,mdp,2024.2.1,Win32,60.24096386,66fa4ebf79326e780c390304,,,,,,,,,,,,,,,,,,,,,1352.6514,1352.6514,1352.6523,1353.5014,1,0,right,0.3269,,1353.5024,1353.5029,1,0,,1353.5035,1353.5037,1,1,,1,1353.5037,1353.5037,1353.504,1355.0021,0,14,14,14,1,0.8,0.2,0.6,0.4,1,0,,,,,,,,,,,,,,,,,,,,,,,,,,,,,,,,,,,,
,,5ee9193db78df9119fe4f7c1,66fc981d46fcc5b0e60e5081,2024-10-02_02h48.10.010,mdp,2024.2.1,Win32,60.24096386,66fa4ebf79326e780c390304,,,,,,,,,,,,,,,,,,,,,1355.0025,1355.0025,1355.0032,1355.5524,0,0,left,0.0275,,1355.5533,1355.5538,1,0,,1355.5542,1355.5545,1,0,,1,1355.5545,1355.5545,1355.5547,1357.0528,0,15,15,15,1,0.8,0.2,0.6,0.4,1,0,,,,,,,,,,,,,,,,,,,,,,,,,,,,,,,,,,,,
,,5ee9193db78df9119fe4f7c1,66fc981d46fcc5b0e60e5081,2024-10-02_02h48.10.010,mdp,2024.2.1,Win32,60.24096386,66fa4ebf79326e780c390304,,,,,,,,,,,,,,,,,,,,,1357.0532,1357.0532,1357.054,1357.92,1,0,right,0.3353,,1357.9207,1357.9211,1,0,,1357.9215,1357.922,1,1,,1,1357.922,1357.922,1357.9223,1359.4204,0,16,16,16,1,0.8,0.2,0.6,0.4,1,0,,,,,,,,,,,,,,,,,,,,,,,,,,,,,,,,,,,,
,,5ee9193db78df9119fe4f7c1,66fc981d46fcc5b0e60e5081,2024-10-02_02h48.10.010,mdp,2024.2.1,Win32,60.24096386,66fa4ebf79326e780c390304,,,,,,,,,,,,,,,,,,,,,1359.4207,1359.4207,1359.4214,1360.3873,1,0,right,0.4339,,1360.3882,1360.389,1,0,,1360.3894,1360.3897,1,0,,1,1360.3897,1360.3897,1360.3899,1361.8886,0,17,17,17,1,0.6,0.4,0.4,0.6,1,0,,,,,,,,,,,,,,,,,,,,,,,,,,,,,,,,,,,,
,,5ee9193db78df9119fe4f7c1,66fc981d46fcc5b0e60e5081,2024-10-02_02h48.10.010,mdp,2024.2.1,Win32,60.24096386,66fa4ebf79326e780c390304,,,,,,,,,,,,,,,,,,,,,1361.8891,1361.8891,1361.89,1362.5048,1,0,right,0.0884,,1362.5056,1362.5062,1,0,,1362.5067,1362.507,1,1,,1,1362.507,1362.507,1362.5071,1364.0055,0,18,18,18,1,0.6,0.4,0.4,0.6,1,0,,,,,,,,,,,,,,,,,,,,,,,,,,,,,,,,,,,,
,,5ee9193db78df9119fe4f7c1,66fc981d46fcc5b0e60e5081,2024-10-02_02h48.10.010,mdp,2024.2.1,Win32,60.24096386,66fa4ebf79326e780c390304,,,,,,,,,,,,,,,,,,,,,1364.0057,1364.0057,1364.0068,1364.6893,0,1,left,0.1716,,1364.6903,1364.6909,1,0,,1364.6912,1364.6916,1,1,,0,1364.6916,1364.6916,1364.6919,1366.1897,0,19,19,19,1,0.8,0.2,0.8,0.2,1,0,,,,,,,,,,,,,,,,,,,,,,,,,,,,,,,,,,,,
,,5ee9193db78df9119fe4f7c1,66fc981d46fcc5b0e60e5081,2024-10-02_02h48.10.010,mdp,2024.2.1,Win32,60.24096386,66fa4ebf79326e780c390304,,,,,,,,,,,,,,,,,,,,,1366.19,1366.19,1366.1909,1367.1732,0,1,left,0.4619,,1367.1739,1367.1745,1,0,,1367.1749,1367.1755,1,0,,0,1367.1755,1367.1755,1367.1757,1368.6736,0,20,20,20,1,0.8,0.2,0.8,0.2,1,0,,,,,,,,,,,,,,,,,,,,,,,,,,,,,,,,,,,,
,,5ee9193db78df9119fe4f7c1,66fc981d46fcc5b0e60e5081,2024-10-02_02h48.10.010,mdp,2024.2.1,Win32,60.24096386,66fa4ebf79326e780c390304,,,,,,,,,,,,,,,,,,,,,1368.6738,1368.6738,1368.6746,1369.5408,0,1,left,0.3517,,1369.5418,1369.5423,1,0,,1369.5427,1369.5432,1,0,,0,1369.5432,1369.5432,1369.5435,1371.0413,0,21,21,21,1,0.8,0.2,0.8,0.2,1,0,,,,,,,,,,,,,,,,,,,,,,,,,,,,,,,,,,,,
,,5ee9193db78df9119fe4f7c1,66fc981d46fcc5b0e60e5081,2024-10-02_02h48.10.010,mdp,2024.2.1,Win32,60.24096386,66fa4ebf79326e780c390304,,,,,,,,,,,,,,,,,,,,,1371.0415,1371.0415,1371.0421,1371.6752,0,0,left,0.1121,,1371.6759,1371.6764,1,1,,1371.6769,1371.6772,1,1,,1,1371.6772,1371.6772,1371.6775,1373.1756,0,22,22,22,1,0.8,0.2,0.8,0.2,1,0,,,,,,,,,,,,,,,,,,,,,,,,,,,,,,,,,,,,
,,5ee9193db78df9119fe4f7c1,66fc981d46fcc5b0e60e5081,2024-10-02_02h48.10.010,mdp,2024.2.1,Win32,60.24096386,66fa4ebf79326e780c390304,,,,,,,,,,,,,,,,,,,,,1373.1758,1373.1758,1373.1766,1373.8761,1,0,right,0.1852,,1373.8769,1373.8773,1,0,,1373.8778,1373.8781,1,0,,1,1373.8781,1373.8781,1373.8784,1375.3765,0,23,23,23,1,0.8,0.2,0.8,0.2,1,0,,,,,,,,,,,,,,,,,,,,,,,,,,,,,,,,,,,,
,,5ee9193db78df9119fe4f7c1,66fc981d46fcc5b0e60e5081,2024-10-02_02h48.10.010,mdp,2024.2.1,Win32,60.24096386,66fa4ebf79326e780c390304,,,,,,,,,,,,,,,,,,,,,1375.3767,1375.3767,1375.3777,1376.0934,1,0,right,0.2016,,1376.0944,1376.0949,1,0,,1376.0952,1376.0956,1,0,,1,1376.0956,1376.0956,1376.0958,1377.5938,0,24,24,24,1,0.8,0.2,0.8,0.2,1,0,,,,,,,,,,,,,,,,,,,,,,,,,,,,,,,,,,,,
,,5ee9193db78df9119fe4f7c1,66fc981d46fcc5b0e60e5081,2024-10-02_02h48.10.010,mdp,2024.2.1,Win32,60.24096386,66fa4ebf79326e780c390304,,,,,,,,,,,,,,,,,,,,,1377.594,1377.594,1377.5946,1378.1108,1,1,right,0.0092,,1378.1118,1378.1125,1,0,,1378.113,1378.1133,1,0,,0,1378.1134,1378.1134,1378.1136,1379.6113,0,25,25,25,1,0.8,0.2,0.8,0.2,1,0,,,,,,,,,,,,,,,,,,,,,,,,,,,,,,,,,,,,
,,5ee9193db78df9119fe4f7c1,66fc981d46fcc5b0e60e5081,2024-10-02_02h48.10.010,mdp,2024.2.1,Win32,60.24096386,66fa4ebf79326e780c390304,,,,,,,,,,,,,,,,,,,,,1379.6115,1379.6115,1379.6125,1380.2115,1,0,right,0.0661,,1380.2125,1380.2133,1,0,,1380.2139,1380.2141,1,0,,1,1380.2141,1380.2142,1380.2144,1381.712,0,26,26,26,1,0.8,0.2,0.8,0.2,1,0,,,,,,,,,,,,,,,,,,,,,,,,,,,,,,,,,,,,
,,5ee9193db78df9119fe4f7c1,66fc981d46fcc5b0e60e5081,2024-10-02_02h48.10.010,mdp,2024.2.1,Win32,60.24096386,66fa4ebf79326e780c390304,,,,,,,,,,,,,,,,,,,,,1381.7122,1381.7122,1381.7126,1382.5627,1,1,right,0.3299,,1382.5635,1382.564,1,0,,1382.5646,1382.5649,1,0,,0,1382.5649,1382.5649,1382.5651,1384.0631,0,27,27,27,1,0.8,0.2,0.8,0.2,1,0,,,,,,,,,,,,,,,,,,,,,,,,,,,,,,,,,,,,
,,5ee9193db78df9119fe4f7c1,66fc981d46fcc5b0e60e5081,2024-10-02_02h48.10.010,mdp,2024.2.1,Win32,60.24096386,66fa4ebf79326e780c390304,,,,,,,,,,,,,,,,,,,,,1384.0635,1384.0635,1384.0644,1384.847,1,0,right,0.253,,1384.848,1384.8484,1,0,,1384.8491,1384.8494,1,0,,1,1384.8494,1384.8494,1384.8496,1386.3473,0,28,28,28,1,0.8,0.2,0.8,0.2,1,0,,,,,,,,,,,,,,,,,,,,,,,,,,,,,,,,,,,,
,,5ee9193db78df9119fe4f7c1,66fc981d46fcc5b0e60e5081,2024-10-02_02h48.10.010,mdp,2024.2.1,Win32,60.24096386,66fa4ebf79326e780c390304,,,,,,,,,,,,,,,,,,,,,1386.3477,1386.3477,1386.3483,1387.2311,1,1,right,0.356,,1387.2317,1387.2324,1,0,,1387.2329,1387.2332,1,0,,0,1387.2333,1387.2333,1387.2335,1388.7313,0,29,29,29,1,0.8,0.2,0.8,0.2,1,0,,,,,,,,,,,,,,,,,,,,,,,,,,,,,,,,,,,,
,,5ee9193db78df9119fe4f7c1,66fc981d46fcc5b0e60e5081,2024-10-02_02h48.10.010,mdp,2024.2.1,Win32,60.24096386,66fa4ebf79326e780c390304,,,,,,,,,,,,,,,,,,,,,1388.7315,1388.7315,1388.7322,1389.3991,1,0,right,0.1585,,1389.4001,1389.4005,1,0,,1389.4009,1389.4014,1,0,,1,1389.4015,1389.4015,1389.4019,1390.8989,0,30,30,30,1,0.8,0.2,0.8,0.2,1,0,,,,,,,,,,,,,,,,,,,,,,,,,,,,,,,,,,,,
,,5ee9193db78df9119fe4f7c1,66fc981d46fcc5b0e60e5081,2024-10-02_02h48.10.010,mdp,2024.2.1,Win32,60.24096386,66fa4ebf79326e780c390304,,,,,,,,,,,,,,,,,,,,,1390.8992,1390.8992,1390.9,1391.566,1,1,right,0.1506,,1391.567,1391.5677,1,0,,1391.5682,1391.5685,1,0,,0,1391.5686,1391.5686,1391.5688,1393.0664,0,31,31,31,1,0.6,0.4,0.6,0.4,1,0,,,,,,,,,,,,,,,,,,,,,,,,,,,,,,,,,,,,
,,5ee9193db78df9119fe4f7c1,66fc981d46fcc5b0e60e5081,2024-10-02_02h48.10.010,mdp,2024.2.1,Win32,60.24096386,66fa4ebf79326e780c390304,,,,,,,,,,,,,,,,,,,,,1393.0667,1393.0667,1393.0673,1393.8835,0,0,left,0.2898,,1393.8844,1393.8849,1,0,,1393.8854,1393.8859,1,0,,1,1393.8859,1393.8859,1393.8861,1395.3839,0,32,32,32,1,0.6,0.4,0.6,0.4,1,0,,,,,,,,,,,,,,,,,,,,,,,,,,,,,,,,,,,,
,,5ee9193db78df9119fe4f7c1,66fc981d46fcc5b0e60e5081,2024-10-02_02h48.10.010,mdp,2024.2.1,Win32,60.24096386,66fa4ebf79326e780c390304,,,,,,,,,,,,,,,,,,,,,1395.3843,1395.3843,1395.3852,1396.268,1,1,right,0.3585,,1396.269,1396.2696,1,0,,1396.2701,1396.2704,1,0,,0,1396.2704,1396.2704,1396.2707,1397.7684,0,33,33,33,1,0.6,0.4,0.6,0.4,1,0,,,,,,,,,,,,,,,,,,,,,,,,,,,,,,,,,,,,
,,5ee9193db78df9119fe4f7c1,66fc981d46fcc5b0e60e5081,2024-10-02_02h48.10.010,mdp,2024.2.1,Win32,60.24096386,66fa4ebf79326e780c390304,,,,,,,,,,,,,,,,,,,,,1397.7685,1397.7686,1397.7694,1398.5189,1,1,right,0.2346,,1398.5196,1398.5203,1,1,,1398.5209,1398.5212,1,1,,0,1398.5213,1398.5213,1398.5216,1400.0194,0,34,34,34,1,0.6,0.4,0.6,0.4,1,0,,,,,,,,,,,,,,,,,,,,,,,,,,,,,,,,,,,,
,,5ee9193db78df9119fe4f7c1,66fc981d46fcc5b0e60e5081,2024-10-02_02h48.10.010,mdp,2024.2.1,Win32,60.24096386,66fa4ebf79326e780c390304,,,,,,,,,,,,,,,,,,,,,1400.0196,1400.0196,1400.0202,1400.636,0,1,left,0.0841,,1400.6365,1400.6372,1,0,,1400.6376,1400.638,1,0,,0,1400.638,1400.638,1400.6383,1402.1365,0,35,35,35,1,0.6,0.4,0.6,0.4,1,0,,,,,,,,,,,,,,,,,,,,,,,,,,,,,,,,,,,,
,,5ee9193db78df9119fe4f7c1,66fc981d46fcc5b0e60e5081,2024-10-02_02h48.10.010,mdp,2024.2.1,Win32,60.24096386,66fa4ebf79326e780c390304,,,,,,,,,,,,,,,,,,,,,1402.1367,1402.1367,1402.1374,1402.7377,0,0,left,0.087,,1402.7385,1402.739,1,1,,1402.7395,1402.7398,1,1,,1,1402.7399,1402.7399,1402.7401,1404.2377,0,36,36,36,1,0.6,0.4,0.6,0.4,1,0,,,,,,,,,,,,,,,,,,,,,,,,,,,,,,,,,,,,
,,5ee9193db78df9119fe4f7c1,66fc981d46fcc5b0e60e5081,2024-10-02_02h48.10.010,mdp,2024.2.1,Win32,60.24096386,66fa4ebf79326e780c390304,,,,,,,,,,,,,,,,,,,,,1404.238,1404.238,1404.2387,1404.9712,0,0,left,0.2066,,1404.9718,1404.9723,1,1,,1404.9726,1404.9729,1,0,,1,1404.9729,1404.9729,1404.9731,1406.4715,0,37,37,37,1,0.8,0.2,0.8,0.2,1,0,,,,,,,,,,,,,,,,,,,,,,,,,,,,,,,,,,,,
,,5ee9193db78df9119fe4f7c1,66fc981d46fcc5b0e60e5081,2024-10-02_02h48.10.010,mdp,2024.2.1,Win32,60.24096386,66fa4ebf79326e780c390304,,,,,,,,,,,,,,,,,,,,,1406.4716,1406.4716,1406.4725,1407.0217,1,1,right,0.0247,,1407.0226,1407.0233,1,0,,1407.0238,1407.0242,1,0,,0,1407.0242,1407.0242,1407.0244,1408.5225,0,38,38,38,1,0.8,0.2,0.8,0.2,1,0,,,,,,,,,,,,,,,,,,,,,,,,,,,,,,,,,,,,
,,5ee9193db78df9119fe4f7c1,66fc981d46fcc5b0e60e5081,2024-10-02_02h48.10.010,mdp,2024.2.1,Win32,60.24096386,66fa4ebf79326e780c390304,,,,,,,,,,,,,,,,,,,,,1408.5228,1408.5228,1408.5236,1409.0895,1,0,right,0.0395,,1409.0903,1409.0908,1,0,,1409.0912,1409.0919,1,1,,1,1409.0919,1409.0919,1409.0922,1410.5897,0,39,39,39,1,0.8,0.2,0.8,0.2,1,0,,,,,,,,,,,,,,,,,,,,,,,,,,,,,,,,,,,,
,,5ee9193db78df9119fe4f7c1,66fc981d46fcc5b0e60e5081,2024-10-02_02h48.10.010,mdp,2024.2.1,Win32,60.24096386,66fa4ebf79326e780c390304,,,,,,,,,,,,,,,,,,,,,1410.59,1410.59,1410.5906,1411.2399,1,0,right,0.1451,,1411.2404,1411.2408,1,1,,1411.2413,1411.2418,1,0,,1,1411.2418,1411.2418,1411.2422,1412.7405,0,40,40,40,1,0.8,0.2,0.8,0.2,1,0,,,,,,,,,,,,,,,,,,,,,,,,,,,,,,,,,,,,
