init_exp.started,init_exp.stopped,participant,session,date,expName,psychopyVersion,OS,frameRate,study_id,disp_instruction.started,disp_instruction.stopped,instruction.thisRepN,instruction.thisTrialN,instruction.thisN,instruction.thisIndex,instruction.ran,instimg_path,consent.started,consent.stopped,key_resp_3.keys,key_resp_3.rt,key_resp_3.duration,n_steps,sequence_path,init_block.started,init_block.stopped,key_resp.keys,key_resp.rt,key_resp.duration,init_trials.started,init_trials.stopped,step0.started,step0.stopped,act0,s1,res0.keys,res0.rt,res0.duration,step1.started,step1.stopped,act1,s2,res1.keys,step2.started,step2.stopped,act2,s3,res2.keys,rew,reward_comp.started,reward_comp.stopped,reward_disp.started,reward_disp.stopped,trials.thisRepN,trials.thisTrialN,trials.thisN,trials.thisIndex,trials.ran,s00a0s10,s00a0s11,s00a1s10,s00a1s11,rew10,rew11,break_block.started,break_block.stopped,block.thisRepN,block.thisTrialN,block.thisN,block.thisIndex,block.ran,s00path,s10path,s11path,s20path,s21path,res1.rt,res1.duration,s10a0s20,s10a0s21,s10a1s20,s10a1s21,s11a0s20,s11a0s21,s11a1s20,s11a1s21,rew20,rew21,res2.rt,res2.duration,s20a0s30,s20a0s31,s20a1s30,s20a1s31,s21a0s30,s21a0s31,s21a1s30,s21a1s31,rew30,rew31
0.0002,0.0011,5f1f459122764312bfbe265e,66fce0fc8cf72c0b23106580,2024-10-02_07h58.42.753,mdp,2024.2.1,Win32,123.4567901,66fa4ebf79326e780c390304,,,,,,,,,,,,,,,,,,,,,,,,,,,,,,,,,,,,,,,,,,,,,,,,,,,,,,,,,,,,,,,,,,,,,,,,,,,,,,,,,,,,,,,,,,,
,,5f1f459122764312bfbe265e,66fce0fc8cf72c0b23106580,2024-10-02_07h58.42.753,mdp,2024.2.1,Win32,123.4567901,66fa4ebf79326e780c390304,0.0038,15.5984,0,0,0,0,1,rlnn_exp/rlnn_exp.001.png,,,,,,,,,,,,,,,,,,,,,,,,,,,,,,,,,,,,,,,,,,,,,,,,,,,,,,,,,,,,,,,,,,,,,,,,,,,,,,,,,,,
,,5f1f459122764312bfbe265e,66fce0fc8cf72c0b23106580,2024-10-02_07h58.42.753,mdp,2024.2.1,Win32,123.4567901,66fa4ebf79326e780c390304,15.5992,26.2354,0,1,1,1,1,rlnn_exp/rlnn_exp.002.png,,,,,,,,,,,,,,,,,,,,,,,,,,,,,,,,,,,,,,,,,,,,,,,,,,,,,,,,,,,,,,,,,,,,,,,,,,,,,,,,,,,
,,5f1f459122764312bfbe265e,66fce0fc8cf72c0b23106580,2024-10-02_07h58.42.753,mdp,2024.2.1,Win32,123.4567901,66fa4ebf79326e780c390304,26.2356,37.1788,0,2,2,2,1,rlnn_exp/rlnn_exp.003.png,,,,,,,,,,,,,,,,,,,,,,,,,,,,,,,,,,,,,,,,,,,,,,,,,,,,,,,,,,,,,,,,,,,,,,,,,,,,,,,,,,,
,,5f1f459122764312bfbe265e,66fce0fc8cf72c0b23106580,2024-10-02_07h58.42.753,mdp,2024.2.1,Win32,123.4567901,66fa4ebf79326e780c390304,37.1796,48.0019,0,3,3,3,1,rlnn_exp/rlnn_exp.004.png,,,,,,,,,,,,,,,,,,,,,,,,,,,,,,,,,,,,,,,,,,,,,,,,,,,,,,,,,,,,,,,,,,,,,,,,,,,,,,,,,,,
,,5f1f459122764312bfbe265e,66fce0fc8cf72c0b23106580,2024-10-02_07h58.42.753,mdp,2024.2.1,Win32,123.4567901,66fa4ebf79326e780c390304,,,,,,,,,48.0021,58.4923,y,0.4593,,,,,,,,,,,,,,,,,,,,,,,,,,,,,,,,,,,,,,,,,,,,,,,,,,,,,,,,,,,,,,,,,,,,,,,,,,,,,,,
,,5f1f459122764312bfbe265e,66fce0fc8cf72c0b23106580,2024-10-02_07h58.42.753,mdp,2024.2.1,Win32,123.4567901,66fa4ebf79326e780c390304,,,,,,,,,,,,,,1,seqs/st1seq9.csv,58.4967,59.8336,space,0.8265,,59.8364,59.8365,59.8366,72.0874,1,1,right,11.7321,,72.0877,72.0885,,1,,72.0886,72.0894,,1,,0,72.0895,72.0895,72.0897,73.5899,0,0,0,0,1,0.8,0.2,0.2,0.8,1,0,,,,,,,,,,,,,,,,,,,,,,,,,,,,,,,,,,,,
,,5f1f459122764312bfbe265e,66fce0fc8cf72c0b23106580,2024-10-02_07h58.42.753,mdp,2024.2.1,Win32,123.4567901,66fa4ebf79326e780c390304,,,,,,,,,,,,,,,,,,,,,73.5906,73.5906,73.5919,74.7484,0,0,left,0.642,,74.7496,74.7502,,0,,74.7506,74.7509,,0,,1,74.7509,74.7509,74.7512,76.2481,0,1,1,1,1,0.8,0.2,0.2,0.8,1,0,,,,,,,,,,,,,,,,,,,,,,,,,,,,,,,,,,,,
,,5f1f459122764312bfbe265e,66fce0fc8cf72c0b23106580,2024-10-02_07h58.42.753,mdp,2024.2.1,Win32,123.4567901,66fa4ebf79326e780c390304,,,,,,,,,,,,,,,,,,,,,76.2485,76.2485,76.25,77.073,0,0,left,0.3088,,77.0747,77.0753,,1,,77.0756,77.0759,,0,,1,77.0759,77.0759,77.0761,78.5727,0,2,2,2,1,0.2,0.8,0.6,0.4,1,0,,,,,,,,,,,,,,,,,,,,,,,,,,,,,,,,,,,,
,,5f1f459122764312bfbe265e,66fce0fc8cf72c0b23106580,2024-10-02_07h58.42.753,mdp,2024.2.1,Win32,123.4567901,66fa4ebf79326e780c390304,,,,,,,,,,,,,,,,,,,,,78.5733,78.5734,78.5754,79.3309,0,1,left,0.2434,,79.3321,79.3328,,1,,79.3333,79.3335,,1,,0,79.3335,79.3335,79.3338,80.8304,0,3,3,3,1,0.2,0.8,0.6,0.4,1,0,,,,,,,,,,,,,,,,,,,,,,,,,,,,,,,,,,,,
,,5f1f459122764312bfbe265e,66fce0fc8cf72c0b23106580,2024-10-02_07h58.42.753,mdp,2024.2.1,Win32,123.4567901,66fa4ebf79326e780c390304,,,,,,,,,,,,,,,,,,,,,80.831,80.831,80.8326,81.431,0,1,left,0.0837,,81.4324,81.4328,,1,,81.4332,81.4334,,1,,0,81.4334,81.4334,81.4338,82.9305,0,4,4,4,1,0.2,0.8,0.6,0.4,1,0,,,,,,,,,,,,,,,,,,,,,,,,,,,,,,,,,,,,
,,5f1f459122764312bfbe265e,66fce0fc8cf72c0b23106580,2024-10-02_07h58.42.753,mdp,2024.2.1,Win32,123.4567901,66fa4ebf79326e780c390304,,,,,,,,,,,,,,,,,,,,,82.931,82.931,82.9326,83.8054,0,1,left,0.3587,,83.8068,83.8073,,0,,83.8076,83.8079,,1,,0,83.8079,83.8079,83.8082,85.3053,0,5,5,5,1,0.2,0.8,0.6,0.4,1,0,,,,,,,,,,,,,,,,,,,,,,,,,,,,,,,,,,,,
,,5f1f459122764312bfbe265e,66fce0fc8cf72c0b23106580,2024-10-02_07h58.42.753,mdp,2024.2.1,Win32,123.4567901,66fa4ebf79326e780c390304,,,,,,,,,,,,,,,,,,,,,85.3058,85.3058,85.3073,86.0266,0,0,left,0.2087,,86.0272,86.0275,,0,,86.0279,86.0283,,1,,1,86.0283,86.0283,86.0287,87.5301,0,6,6,6,1,0.2,0.8,0.6,0.4,1,0,,,,,,,,,,,,,,,,,,,,,,,,,,,,,,,,,,,,
,,5f1f459122764312bfbe265e,66fce0fc8cf72c0b23106580,2024-10-02_07h58.42.753,mdp,2024.2.1,Win32,123.4567901,66fa4ebf79326e780c390304,,,,,,,,,,,,,,,,,,,,,87.5303,87.5304,87.5318,88.0799,0,1,left,0.0339,,88.0815,88.0819,,1,,88.0823,88.0826,,1,,0,88.0826,88.0826,88.0828,89.5797,0,7,7,7,1,0.2,0.8,0.6,0.4,1,0,,,,,,,,,,,,,,,,,,,,,,,,,,,,,,,,,,,,
,,5f1f459122764312bfbe265e,66fce0fc8cf72c0b23106580,2024-10-02_07h58.42.753,mdp,2024.2.1,Win32,123.4567901,66fa4ebf79326e780c390304,,,,,,,,,,,,,,,,,,,,,89.58,89.58,89.5813,90.2545,0,1,left,0.1586,,90.2557,90.2565,,1,,90.2568,90.2571,,1,,0,90.2571,90.2571,90.2574,91.7544,0,8,8,8,1,0.2,0.8,0.6,0.4,1,0,,,,,,,,,,,,,,,,,,,,,,,,,,,,,,,,,,,,
,,5f1f459122764312bfbe265e,66fce0fc8cf72c0b23106580,2024-10-02_07h58.42.753,mdp,2024.2.1,Win32,123.4567901,66fa4ebf79326e780c390304,,,,,,,,,,,,,,,,,,,,,91.7549,91.755,91.7561,92.7042,1,0,right,0.4339,,92.7055,92.7062,,1,,92.7065,92.7069,,0,,1,92.7069,92.707,92.7072,94.2037,0,9,9,9,1,0.2,0.8,0.6,0.4,1,0,,,,,,,,,,,,,,,,,,,,,,,,,,,,,,,,,,,,
,,5f1f459122764312bfbe265e,66fce0fc8cf72c0b23106580,2024-10-02_07h58.42.753,mdp,2024.2.1,Win32,123.4567901,66fa4ebf79326e780c390304,,,,,,,,,,,,,,,,,,,,,94.204,94.204,94.2051,95.0374,1,0,right,0.3171,,95.0387,95.0393,,1,,95.0398,95.0402,,1,,1,95.0402,95.0402,95.0405,96.5371,0,10,10,10,1,0.2,0.8,0.6,0.4,1,0,,,,,,,,,,,,,,,,,,,,,,,,,,,,,,,,,,,,
,,5f1f459122764312bfbe265e,66fce0fc8cf72c0b23106580,2024-10-02_07h58.42.753,mdp,2024.2.1,Win32,123.4567901,66fa4ebf79326e780c390304,,,,,,,,,,,,,,,,,,,,,96.5376,96.5376,96.5386,97.3119,1,1,right,0.2586,,97.313,97.3137,,1,,97.3142,97.3144,,1,,0,97.3144,97.3144,97.3146,98.8118,0,11,11,11,1,0.4,0.6,0.8,0.2,1,0,,,,,,,,,,,,,,,,,,,,,,,,,,,,,,,,,,,,
,,5f1f459122764312bfbe265e,66fce0fc8cf72c0b23106580,2024-10-02_07h58.42.753,mdp,2024.2.1,Win32,123.4567901,66fa4ebf79326e780c390304,,,,,,,,,,,,,,,,,,,,,98.8122,98.8122,98.8134,99.4948,1,1,right,0.1685,,99.4963,99.497,,1,,99.4974,99.4977,,0,,0,99.4978,99.4978,99.4981,100.9996,0,12,12,12,1,0.4,0.6,0.8,0.2,1,0,,,,,,,,,,,,,,,,,,,,,,,,,,,,,,,,,,,,
,,5f1f459122764312bfbe265e,66fce0fc8cf72c0b23106580,2024-10-02_07h58.42.753,mdp,2024.2.1,Win32,123.4567901,66fa4ebf79326e780c390304,,,,,,,,,,,,,,,,,,,,,100.9999,100.9999,101.0006,101.7529,1,0,right,0.2419,,101.7547,101.7553,,0,,101.7557,101.7558,,1,,1,101.7559,101.7559,101.7562,103.2529,0,13,13,13,1,0.4,0.6,0.8,0.2,1,0,,,,,,,,,,,,,,,,,,,,,,,,,,,,,,,,,,,,
,,5f1f459122764312bfbe265e,66fce0fc8cf72c0b23106580,2024-10-02_07h58.42.753,mdp,2024.2.1,Win32,123.4567901,66fa4ebf79326e780c390304,,,,,,,,,,,,,,,,,,,,,103.2532,103.2532,103.2545,104.0279,1,0,right,0.2587,,104.0289,104.0297,,0,,104.03,104.0302,,0,,1,104.0303,104.0303,104.0305,105.5275,0,14,14,14,1,0.4,0.6,0.8,0.2,1,0,,,,,,,,,,,,,,,,,,,,,,,,,,,,,,,,,,,,
,,5f1f459122764312bfbe265e,66fce0fc8cf72c0b23106580,2024-10-02_07h58.42.753,mdp,2024.2.1,Win32,123.4567901,66fa4ebf79326e780c390304,,,,,,,,,,,,,,,,,,,,,105.5279,105.5279,105.5291,106.2693,0,1,left,0.2253,,106.2704,106.271,,1,,106.2714,106.2716,,1,,0,106.2716,106.2716,106.2718,107.7687,0,15,15,15,1,0.4,0.6,0.8,0.2,1,0,,,,,,,,,,,,,,,,,,,,,,,,,,,,,,,,,,,,
,,5f1f459122764312bfbe265e,66fce0fc8cf72c0b23106580,2024-10-02_07h58.42.753,mdp,2024.2.1,Win32,123.4567901,66fa4ebf79326e780c390304,,,,,,,,,,,,,,,,,,,,,107.769,107.769,107.7705,108.577,1,0,right,0.2946,,108.5783,108.579,,1,,108.5793,108.5795,,1,,1,108.5796,108.5796,108.5798,110.0767,0,16,16,16,1,0.8,0.2,0.6,0.4,1,0,,,,,,,,,,,,,,,,,,,,,,,,,,,,,,,,,,,,
,,5f1f459122764312bfbe265e,66fce0fc8cf72c0b23106580,2024-10-02_07h58.42.753,mdp,2024.2.1,Win32,123.4567901,66fa4ebf79326e780c390304,,,,,,,,,,,,,,,,,,,,,110.077,110.077,110.0782,110.8516,1,1,right,0.2582,,110.853,110.8537,,0,,110.8541,110.8544,,0,,0,110.8544,110.8544,110.8546,112.3513,0,17,17,17,1,0.8,0.2,0.6,0.4,1,0,,,,,,,,,,,,,,,,,,,,,,,,,,,,,,,,,,,,
,,5f1f459122764312bfbe265e,66fce0fc8cf72c0b23106580,2024-10-02_07h58.42.753,mdp,2024.2.1,Win32,123.4567901,66fa4ebf79326e780c390304,,,,,,,,,,,,,,,,,,,,,112.3516,112.3516,112.3532,113.068,1,1,right,0.2003,,113.0699,113.0703,,0,,113.0707,113.0709,,0,,0,113.0709,113.0709,113.0714,114.5679,0,18,18,18,1,0.4,0.6,0.8,0.2,1,0,,,,,,,,,,,,,,,,,,,,,,,,,,,,,,,,,,,,
,,5f1f459122764312bfbe265e,66fce0fc8cf72c0b23106580,2024-10-02_07h58.42.753,mdp,2024.2.1,Win32,123.4567901,66fa4ebf79326e780c390304,,,,,,,,,,,,,,,,,,,,,114.5687,114.5687,114.5704,115.3012,1,0,right,0.2183,,115.3025,115.3032,,0,,115.3035,115.3038,,0,,1,115.3038,115.3038,115.304,116.8007,0,19,19,19,1,0.4,0.6,0.8,0.2,1,0,,,,,,,,,,,,,,,,,,,,,,,,,,,,,,,,,,,,
,,5f1f459122764312bfbe265e,66fce0fc8cf72c0b23106580,2024-10-02_07h58.42.753,mdp,2024.2.1,Win32,123.4567901,66fa4ebf79326e780c390304,,,,,,,,,,,,,,,,,,,,,116.8013,116.8013,116.8031,117.5923,1,1,right,0.2751,,117.5941,117.5949,,0,,117.5952,117.5956,,0,,0,117.5956,117.5956,117.5959,119.0924,0,20,20,20,1,0.4,0.6,0.8,0.2,1,0,,,,,,,,,,,,,,,,,,,,,,,,,,,,,,,,,,,,
,,5f1f459122764312bfbe265e,66fce0fc8cf72c0b23106580,2024-10-02_07h58.42.753,mdp,2024.2.1,Win32,123.4567901,66fa4ebf79326e780c390304,,,,,,,,,,,,,,,,,,,,,119.0927,119.0927,119.0938,119.8755,0,1,left,0.2668,,119.8767,119.8776,,0,,119.8779,119.8782,,1,,0,119.8782,119.8782,119.8784,121.375,0,21,21,21,1,0.8,0.2,0.2,0.8,1,0,,,,,,,,,,,,,,,,,,,,,,,,,,,,,,,,,,,,
,,5f1f459122764312bfbe265e,66fce0fc8cf72c0b23106580,2024-10-02_07h58.42.753,mdp,2024.2.1,Win32,123.4567901,66fa4ebf79326e780c390304,,,,,,,,,,,,,,,,,,,,,121.3752,121.3752,121.3765,122.1586,0,0,left,0.2669,,122.1599,122.1605,,0,,122.1609,122.161,,0,,1,122.161,122.161,122.1613,123.6582,0,22,22,22,1,0.8,0.2,0.2,0.8,1,0,,,,,,,,,,,,,,,,,,,,,,,,,,,,,,,,,,,,
,,5f1f459122764312bfbe265e,66fce0fc8cf72c0b23106580,2024-10-02_07h58.42.753,mdp,2024.2.1,Win32,123.4567901,66fa4ebf79326e780c390304,,,,,,,,,,,,,,,,,,,,,123.6586,123.6586,123.6601,124.4165,1,1,right,0.2426,,124.4179,124.4185,,0,,124.4189,124.4191,,1,,0,124.4191,124.4191,124.4194,125.9164,0,23,23,23,1,0.8,0.2,0.2,0.8,1,0,,,,,,,,,,,,,,,,,,,,,,,,,,,,,,,,,,,,
,,5f1f459122764312bfbe265e,66fce0fc8cf72c0b23106580,2024-10-02_07h58.42.753,mdp,2024.2.1,Win32,123.4567901,66fa4ebf79326e780c390304,,,,,,,,,,,,,,,,,,,,,125.9168,125.9168,125.9178,126.6747,0,0,left,0.242,,126.6759,126.6766,,0,,126.6769,126.6771,,0,,1,126.6771,126.6771,126.6773,128.1743,0,24,24,24,1,0.8,0.2,0.2,0.8,1,0,,,,,,,,,,,,,,,,,,,,,,,,,,,,,,,,,,,,
,,5f1f459122764312bfbe265e,66fce0fc8cf72c0b23106580,2024-10-02_07h58.42.753,mdp,2024.2.1,Win32,123.4567901,66fa4ebf79326e780c390304,,,,,,,,,,,,,,,,,,,,,128.1748,128.1748,128.1759,128.9163,0,0,left,0.2259,,128.9178,128.9184,,1,,128.9191,128.9196,,1,,1,128.9196,128.9196,128.92,130.4158,0,25,25,25,1,0.8,0.2,0.2,0.8,1,0,,,,,,,,,,,,,,,,,,,,,,,,,,,,,,,,,,,,
,,5f1f459122764312bfbe265e,66fce0fc8cf72c0b23106580,2024-10-02_07h58.42.753,mdp,2024.2.1,Win32,123.4567901,66fa4ebf79326e780c390304,,,,,,,,,,,,,,,,,,,,,130.4162,130.4162,130.4171,131.1406,1,0,right,0.2086,,131.1419,131.1426,,0,,131.143,131.1433,,0,,1,131.1433,131.1433,131.1435,132.6405,0,26,26,26,1,0.4,0.6,0.6,0.4,1,0,,,,,,,,,,,,,,,,,,,,,,,,,,,,,,,,,,,,
,,5f1f459122764312bfbe265e,66fce0fc8cf72c0b23106580,2024-10-02_07h58.42.753,mdp,2024.2.1,Win32,123.4567901,66fa4ebf79326e780c390304,,,,,,,,,,,,,,,,,,,,,132.6409,132.6409,132.6419,133.4155,1,1,right,0.2588,,133.4166,133.4173,,0,,133.4176,133.4179,,0,,0,133.4179,133.4179,133.4181,134.9152,0,27,27,27,1,0.4,0.6,0.6,0.4,1,0,,,,,,,,,,,,,,,,,,,,,,,,,,,,,,,,,,,,
,,5f1f459122764312bfbe265e,66fce0fc8cf72c0b23106580,2024-10-02_07h58.42.753,mdp,2024.2.1,Win32,123.4567901,66fa4ebf79326e780c390304,,,,,,,,,,,,,,,,,,,,,134.9156,134.9156,134.9168,135.4318,1,0,right,0.0022,,135.4331,135.4337,,1,,135.434,135.4342,,1,,1,135.4342,135.4342,135.4344,136.9316,0,28,28,28,1,0.4,0.6,0.6,0.4,1,0,,,,,,,,,,,,,,,,,,,,,,,,,,,,,,,,,,,,
,,5f1f459122764312bfbe265e,66fce0fc8cf72c0b23106580,2024-10-02_07h58.42.753,mdp,2024.2.1,Win32,123.4567901,66fa4ebf79326e780c390304,,,,,,,,,,,,,,,,,,,,,136.9319,136.9319,136.9329,137.7066,1,0,right,0.2588,,137.7077,137.7085,,0,,137.709,137.7093,,1,,1,137.7093,137.7093,137.7096,139.2065,0,29,29,29,1,0.4,0.6,0.6,0.4,1,0,,,,,,,,,,,,,,,,,,,,,,,,,,,,,,,,,,,,
,,5f1f459122764312bfbe265e,66fce0fc8cf72c0b23106580,2024-10-02_07h58.42.753,mdp,2024.2.1,Win32,123.4567901,66fa4ebf79326e780c390304,,,,,,,,,,,,,,,,,,,,,139.2069,139.2069,139.2081,139.8814,0,1,left,0.1594,,139.8825,139.8831,,0,,139.8835,139.8838,,1,,0,139.8838,139.8838,139.8839,141.3811,0,30,30,30,1,0.4,0.6,0.6,0.4,1,0,,,,,,,,,,,,,,,,,,,,,,,,,,,,,,,,,,,,
,,5f1f459122764312bfbe265e,66fce0fc8cf72c0b23106580,2024-10-02_07h58.42.753,mdp,2024.2.1,Win32,123.4567901,66fa4ebf79326e780c390304,,,,,,,,,,,,,,,,,,,,,141.3814,141.3814,141.3826,142.0225,0,0,left,0.1255,,142.0238,142.0244,,1,,142.0248,142.025,,0,,1,142.0251,142.0251,142.0253,143.5223,0,31,31,31,1,0.4,0.6,0.6,0.4,1,0,,,,,,,,,,,,,,,,,,,,,,,,,,,,,,,,,,,,
,,5f1f459122764312bfbe265e,66fce0fc8cf72c0b23106580,2024-10-02_07h58.42.753,mdp,2024.2.1,Win32,123.4567901,66fa4ebf79326e780c390304,,,,,,,,,,,,,,,,,,,,,143.5227,143.5227,143.5238,144.2557,0,1,left,0.217,,144.2569,144.2575,,0,,144.2578,144.2581,,0,,0,144.2581,144.2581,144.2584,145.7555,0,32,32,32,1,0.4,0.6,0.6,0.4,1,0,,,,,,,,,,,,,,,,,,,,,,,,,,,,,,,,,,,,
,,5f1f459122764312bfbe265e,66fce0fc8cf72c0b23106580,2024-10-02_07h58.42.753,mdp,2024.2.1,Win32,123.4567901,66fa4ebf79326e780c390304,,,,,,,,,,,,,,,,,,,,,145.7559,145.7559,145.7572,146.4138,0,1,left,0.1421,,146.415,146.4156,,1,,146.4159,146.4162,,0,,0,146.4162,146.4162,146.4165,147.9133,0,33,33,33,1,0.4,0.6,0.6,0.4,1,0,,,,,,,,,,,,,,,,,,,,,,,,,,,,,,,,,,,,
,,5f1f459122764312bfbe265e,66fce0fc8cf72c0b23106580,2024-10-02_07h58.42.753,mdp,2024.2.1,Win32,123.4567901,66fa4ebf79326e780c390304,,,,,,,,,,,,,,,,,,,,,147.9138,147.9138,147.9152,148.8967,0,1,left,0.4667,,148.8978,148.8987,,1,,148.8991,148.8993,,0,,0,148.8993,148.8994,148.8997,150.3961,0,34,34,34,1,0.4,0.6,0.6,0.4,1,0,,,,,,,,,,,,,,,,,,,,,,,,,,,,,,,,,,,,
,,5f1f459122764312bfbe265e,66fce0fc8cf72c0b23106580,2024-10-02_07h58.42.753,mdp,2024.2.1,Win32,123.4567901,66fa4ebf79326e780c390304,,,,,,,,,,,,,,,,,,,,,150.3966,150.3966,150.3978,151.1213,0,0,left,0.2086,,151.1224,151.1232,,1,,151.1235,151.1237,,1,,1,151.1238,151.1238,151.1239,152.6212,0,35,35,35,1,0.4,0.6,0.6,0.4,1,0,,,,,,,,,,,,,,,,,,,,,,,,,,,,,,,,,,,,
,,5f1f459122764312bfbe265e,66fce0fc8cf72c0b23106580,2024-10-02_07h58.42.753,mdp,2024.2.1,Win32,123.4567901,66fa4ebf79326e780c390304,,,,,,,,,,,,,,,,,,,,,152.6215,152.6215,152.6226,153.3712,1,0,right,0.2336,,153.3725,153.3731,,0,,153.3736,153.3739,,0,,1,153.374,153.374,153.3744,154.871,0,36,36,36,1,0.4,0.6,0.6,0.4,1,0,,,,,,,,,,,,,,,,,,,,,,,,,,,,,,,,,,,,
,,5f1f459122764312bfbe265e,66fce0fc8cf72c0b23106580,2024-10-02_07h58.42.753,mdp,2024.2.1,Win32,123.4567901,66fa4ebf79326e780c390304,,,,,,,,,,,,,,,,,,,,,154.8713,154.8713,154.8725,155.6126,1,1,right,0.2252,,155.6139,155.6145,,1,,155.6151,155.6155,,1,,0,155.6155,155.6155,155.6158,157.1123,0,37,37,37,1,0.6,0.4,0.4,0.6,1,0,,,,,,,,,,,,,,,,,,,,,,,,,,,,,,,,,,,,
,,5f1f459122764312bfbe265e,66fce0fc8cf72c0b23106580,2024-10-02_07h58.42.753,mdp,2024.2.1,Win32,123.4567901,66fa4ebf79326e780c390304,,,,,,,,,,,,,,,,,,,,,157.1127,157.1127,157.1139,157.7289,1,0,right,0.1001,,157.73,157.7307,,0,,157.7311,157.7315,,1,,1,157.7315,157.7315,157.7318,159.2285,0,38,38,38,1,0.6,0.4,0.4,0.6,1,0,,,,,,,,,,,,,,,,,,,,,,,,,,,,,,,,,,,,
,,5f1f459122764312bfbe265e,66fce0fc8cf72c0b23106580,2024-10-02_07h58.42.753,mdp,2024.2.1,Win32,123.4567901,66fa4ebf79326e780c390304,,,,,,,,,,,,,,,,,,,,,159.2289,159.2289,159.2302,159.8617,1,1,right,0.1179,,159.8629,159.8636,,1,,159.864,159.8643,,1,,0,159.8643,159.8643,159.8646,161.3617,0,39,39,39,1,0.6,0.4,0.4,0.6,1,0,,,,,,,,,,,,,,,,,,,,,,,,,,,,,,,,,,,,
,,5f1f459122764312bfbe265e,66fce0fc8cf72c0b23106580,2024-10-02_07h58.42.753,mdp,2024.2.1,Win32,123.4567901,66fa4ebf79326e780c390304,,,,,,,,,,,,,,,,,,,,,161.362,161.362,161.364,161.995,1,0,right,0.1176,,161.9961,161.9968,,0,,161.997,161.9974,,1,,1,161.9974,161.9974,161.9976,163.4947,0,40,40,40,1,0.2,0.8,0.6,0.4,1,0,,,,,,,,,,,,,,,,,,,,,,,,,,,,,,,,,,,,
,,5f1f459122764312bfbe265e,66fce0fc8cf72c0b23106580,2024-10-02_07h58.42.753,mdp,2024.2.1,Win32,123.4567901,66fa4ebf79326e780c390304,,,,,,,,,,,,,,,,,,,,,163.495,163.495,163.4964,164.2196,1,0,right,0.21,,164.2207,164.2214,,1,,164.2219,164.2223,,1,,1,164.2223,164.2223,164.2227,165.7193,0,41,41,41,1,0.6,0.4,0.4,0.6,1,0,,,,,,,,,,,,,,,,,,,,,,,,,,,,,,,,,,,,
,,5f1f459122764312bfbe265e,66fce0fc8cf72c0b23106580,2024-10-02_07h58.42.753,mdp,2024.2.1,Win32,123.4567901,66fa4ebf79326e780c390304,,,,,,,,,,,,,,,,,,,,,165.7197,165.7197,165.721,166.4611,1,0,right,0.2254,,166.4622,166.4629,,1,,166.4632,166.4634,,1,,1,166.4634,166.4634,166.4636,167.9605,0,42,42,42,1,0.6,0.4,0.4,0.6,1,0,,,,,,,,,,,,,,,,,,,,,,,,,,,,,,,,,,,,
,,5f1f459122764312bfbe265e,66fce0fc8cf72c0b23106580,2024-10-02_07h58.42.753,mdp,2024.2.1,Win32,123.4567901,66fa4ebf79326e780c390304,,,,,,,,,,,,,,,,,,,,,167.9608,167.9608,167.9622,168.7021,1,1,right,0.2252,,168.7033,168.7039,,1,,168.7043,168.7045,,1,,0,168.7046,168.7046,168.7047,170.2021,0,43,43,43,1,0.6,0.4,0.4,0.6,1,0,,,,,,,,,,,,,,,,,,,,,,,,,,,,,,,,,,,,
,,5f1f459122764312bfbe265e,66fce0fc8cf72c0b23106580,2024-10-02_07h58.42.753,mdp,2024.2.1,Win32,123.4567901,66fa4ebf79326e780c390304,,,,,,,,,,,,,,,,,,,,,170.2024,170.2024,170.2035,170.8604,1,1,right,0.1431,,170.8615,170.8622,,0,,170.8625,170.8628,,1,,0,170.8628,170.8628,170.8631,172.36,0,44,44,44,1,0.6,0.4,0.4,0.6,1,0,,,,,,,,,,,,,,,,,,,,,,,,,,,,,,,,,,,,
,,5f1f459122764312bfbe265e,66fce0fc8cf72c0b23106580,2024-10-02_07h58.42.753,mdp,2024.2.1,Win32,123.4567901,66fa4ebf79326e780c390304,,,,,,,,,,,,,,,,,,,,,172.3603,172.3603,172.3614,172.9351,1,1,right,0.0584,,172.9363,172.9369,,1,,172.9373,172.9374,,1,,0,172.9374,172.9375,172.9377,174.4348,0,45,45,45,1,0.8,0.2,0.2,0.8,1,0,,,,,,,,,,,,,,,,,,,,,,,,,,,,,,,,,,,,
,,5f1f459122764312bfbe265e,66fce0fc8cf72c0b23106580,2024-10-02_07h58.42.753,mdp,2024.2.1,Win32,123.4567901,66fa4ebf79326e780c390304,,,,,,,,,,,,,,,,,,,,,174.4354,174.4354,174.4366,175.0265,1,0,right,0.0763,,175.0276,175.0283,,1,,175.0287,175.029,,0,,1,175.029,175.029,175.0293,176.5262,0,46,46,46,1,0.4,0.6,0.6,0.4,1,0,,,,,,,,,,,,,,,,,,,,,,,,,,,,,,,,,,,,
,,5f1f459122764312bfbe265e,66fce0fc8cf72c0b23106580,2024-10-02_07h58.42.753,mdp,2024.2.1,Win32,123.4567901,66fa4ebf79326e780c390304,,,,,,,,,,,,,,,,,,,,,176.5265,176.5265,176.5275,177.1594,1,0,right,0.1174,,177.1604,177.1612,,0,,177.1615,177.1618,,0,,1,177.1618,177.1618,177.1621,178.6593,0,47,47,47,1,0.2,0.8,0.8,0.2,1,0,,,,,,,,,,,,,,,,,,,,,,,,,,,,,,,,,,,,
,,5f1f459122764312bfbe265e,66fce0fc8cf72c0b23106580,2024-10-02_07h58.42.753,mdp,2024.2.1,Win32,123.4567901,66fa4ebf79326e780c390304,,,,,,,,,,,,,,,,,,,,,178.6596,178.6596,178.6605,179.4428,1,0,right,0.267,,179.4444,179.4454,,0,,179.446,179.4464,,1,,1,179.4464,179.4464,179.4467,180.9422,0,48,48,48,1,0.2,0.8,0.8,0.2,1,0,,,,,,,,,,,,,,,,,,,,,,,,,,,,,,,,,,,,
,,5f1f459122764312bfbe265e,66fce0fc8cf72c0b23106580,2024-10-02_07h58.42.753,mdp,2024.2.1,Win32,123.4567901,66fa4ebf79326e780c390304,,,,,,,,,,,,,,,,,,,,,180.9426,180.9426,180.9435,181.6338,1,0,right,0.1752,,181.6349,181.6357,,0,,181.6362,181.6365,,0,,1,181.6365,181.6365,181.6368,183.1336,0,49,49,49,1,0.2,0.8,0.8,0.2,1,0,,,,,,,,,,,,,,,,,,,,,,,,,,,,,,,,,,,,
,,5f1f459122764312bfbe265e,66fce0fc8cf72c0b23106580,2024-10-02_07h58.42.753,mdp,2024.2.1,Win32,123.4567901,66fa4ebf79326e780c390304,,,,,,,,,,,,,,,,,,,,,,,,,,,,,,,,,,,,,,,,,,,,,,,,,,,,,,,,183.1342,241.6427,0,0,0,7,1,imgs/giraffe.png,imgs/bear.png,imgs/pig.png,imgs/horse.png,imgs/kangaroo.png,,,,,,,,,,,,,,,,,,,,,,,,
,,5f1f459122764312bfbe265e,66fce0fc8cf72c0b23106580,2024-10-02_07h58.42.753,mdp,2024.2.1,Win32,123.4567901,66fa4ebf79326e780c390304,,,,,,,,,,,,,,2,seqs/st2seq45.csv,241.6444,246.6167,space,4.4598,,246.62,246.62,246.6205,247.7249,1,0,right,0.5837,,247.7262,249.1083,0,1,left,249.1095,249.1101,,0,,0,249.1101,249.1101,249.1105,250.6077,0,0,0,0,1,0.2,0.8,0.6,0.4,,,,,,,,,,,,,,,0.8582,,0.6,0.4,0.4,0.6,0.6,0.4,0.4,0.6,1,0,,,,,,,,,,,,
,,5f1f459122764312bfbe265e,66fce0fc8cf72c0b23106580,2024-10-02_07h58.42.753,mdp,2024.2.1,Win32,123.4567901,66fa4ebf79326e780c390304,,,,,,,,,,,,,,,,,,,,,250.6082,250.6082,250.6091,251.391,0,0,left,0.2682,,251.3922,252.1742,1,1,right,252.1756,252.1763,,1,,0,252.1763,252.1763,252.1766,253.674,0,1,1,1,1,0.2,0.8,0.6,0.4,,,,,,,,,,,,,,,0.2667,,0.6,0.4,0.4,0.6,0.6,0.4,0.4,0.6,1,0,,,,,,,,,,,,
,,5f1f459122764312bfbe265e,66fce0fc8cf72c0b23106580,2024-10-02_07h58.42.753,mdp,2024.2.1,Win32,123.4567901,66fa4ebf79326e780c390304,,,,,,,,,,,,,,,,,,,,,253.6744,253.6744,253.6752,254.4407,0,1,left,0.2519,,254.4419,255.1905,0,0,left,255.1917,255.1924,,0,,1,255.1925,255.1925,255.1927,256.6904,0,2,2,2,1,0.2,0.8,0.6,0.4,,,,,,,,,,,,,,,0.2251,,0.6,0.4,0.4,0.6,0.6,0.4,0.4,0.6,1,0,,,,,,,,,,,,
,,5f1f459122764312bfbe265e,66fce0fc8cf72c0b23106580,2024-10-02_07h58.42.753,mdp,2024.2.1,Win32,123.4567901,66fa4ebf79326e780c390304,,,,,,,,,,,,,,,,,,,,,256.6908,256.6908,256.6919,257.6236,0,1,left,0.417,,257.6246,258.5152,1,1,right,258.5164,258.5169,,1,,0,258.5169,258.5169,258.5172,260.015,0,3,3,3,1,0.2,0.8,0.6,0.4,,,,,,,,,,,,,,,0.3781,,0.6,0.4,0.4,0.6,0.4,0.6,0.2,0.8,1,0,,,,,,,,,,,,
,,5f1f459122764312bfbe265e,66fce0fc8cf72c0b23106580,2024-10-02_07h58.42.753,mdp,2024.2.1,Win32,123.4567901,66fa4ebf79326e780c390304,,,,,,,,,,,,,,,,,,,,,260.0153,260.0153,260.0163,260.9898,0,1,left,0.4586,,260.9909,261.8646,0,0,left,261.8658,261.8665,,1,,1,261.8665,261.8665,261.8669,263.3645,0,4,4,4,1,0.2,0.8,0.6,0.4,,,,,,,,,,,,,,,0.3584,,0.6,0.4,0.4,0.6,0.4,0.6,0.2,0.8,1,0,,,,,,,,,,,,
,,5f1f459122764312bfbe265e,66fce0fc8cf72c0b23106580,2024-10-02_07h58.42.753,mdp,2024.2.1,Win32,123.4567901,66fa4ebf79326e780c390304,,,,,,,,,,,,,,,,,,,,,263.3648,263.3648,263.3659,264.1646,0,1,left,0.2849,,264.1664,265.0475,0,0,left,265.0487,265.0494,,1,,1,265.0494,265.0494,265.0498,266.5474,0,5,5,5,1,0.2,0.8,0.6,0.4,,,,,,,,,,,,,,,0.3697,,0.6,0.4,0.4,0.6,0.4,0.6,0.2,0.8,1,0,,,,,,,,,,,,
,,5f1f459122764312bfbe265e,66fce0fc8cf72c0b23106580,2024-10-02_07h58.42.753,mdp,2024.2.1,Win32,123.4567901,66fa4ebf79326e780c390304,,,,,,,,,,,,,,,,,,,,,266.5478,266.5478,266.5487,267.4475,0,1,left,0.3838,,267.4488,268.189,0,1,left,268.1901,268.1908,,1,,0,268.1908,268.1908,268.1911,269.6887,0,6,6,6,1,0.2,0.8,0.6,0.4,,,,,,,,,,,,,,,0.2261,,0.6,0.4,0.4,0.6,0.4,0.6,0.2,0.8,1,0,,,,,,,,,,,,
,,5f1f459122764312bfbe265e,66fce0fc8cf72c0b23106580,2024-10-02_07h58.42.753,mdp,2024.2.1,Win32,123.4567901,66fa4ebf79326e780c390304,,,,,,,,,,,,,,,,,,,,,269.6891,269.6891,269.6903,270.4468,0,0,left,0.2416,,270.448,271.3636,1,0,right,271.3646,271.3653,,1,,1,271.3654,271.3654,271.3656,272.8631,0,7,7,7,1,0.2,0.8,0.6,0.4,,,,,,,,,,,,,,,0.3919,,0.6,0.4,0.4,0.6,0.4,0.6,0.2,0.8,1,0,,,,,,,,,,,,
,,5f1f459122764312bfbe265e,66fce0fc8cf72c0b23106580,2024-10-02_07h58.42.753,mdp,2024.2.1,Win32,123.4567901,66fa4ebf79326e780c390304,,,,,,,,,,,,,,,,,,,,,272.8635,272.8636,272.8646,273.6883,0,0,left,0.3086,,273.6899,274.5546,1,1,right,274.5559,274.5566,,0,,0,274.5567,274.5567,274.5572,276.0544,0,8,8,8,1,0.2,0.8,0.6,0.4,,,,,,,,,,,,,,,0.3517,,0.6,0.4,0.4,0.6,0.4,0.6,0.2,0.8,1,0,,,,,,,,,,,,
,,5f1f459122764312bfbe265e,66fce0fc8cf72c0b23106580,2024-10-02_07h58.42.753,mdp,2024.2.1,Win32,123.4567901,66fa4ebf79326e780c390304,,,,,,,,,,,,,,,,,,,,,276.0548,276.0548,276.056,276.8545,0,1,left,0.2836,,276.8555,277.8045,0,0,left,277.8056,277.8061,,0,,1,277.8062,277.8062,277.8065,279.3041,0,9,9,9,1,0.2,0.8,0.6,0.4,,,,,,,,,,,,,,,0.425,,0.6,0.4,0.4,0.6,0.4,0.6,0.2,0.8,1,0,,,,,,,,,,,,
,,5f1f459122764312bfbe265e,66fce0fc8cf72c0b23106580,2024-10-02_07h58.42.753,mdp,2024.2.1,Win32,123.4567901,66fa4ebf79326e780c390304,,,,,,,,,,,,,,,,,,,,,279.3045,279.3045,279.3061,280.054,0,1,left,0.2338,,280.0551,280.8956,0,1,left,280.8969,280.8975,,0,,0,280.8975,280.8975,280.8978,282.3952,0,10,10,10,1,0.2,0.8,0.6,0.4,,,,,,,,,,,,,,,0.3263,,0.6,0.4,0.4,0.6,0.8,0.2,0.8,0.2,1,0,,,,,,,,,,,,
,,5f1f459122764312bfbe265e,66fce0fc8cf72c0b23106580,2024-10-02_07h58.42.753,mdp,2024.2.1,Win32,123.4567901,66fa4ebf79326e780c390304,,,,,,,,,,,,,,,,,,,,,282.3955,282.3955,282.3965,283.1198,0,1,left,0.2111,,283.1208,283.9448,0,0,left,283.946,283.9468,,0,,1,283.9468,283.9468,283.9472,285.4446,0,11,11,11,1,0.2,0.8,0.6,0.4,,,,,,,,,,,,,,,0.3196,,0.6,0.4,0.4,0.6,0.8,0.2,0.8,0.2,1,0,,,,,,,,,,,,
,,5f1f459122764312bfbe265e,66fce0fc8cf72c0b23106580,2024-10-02_07h58.42.753,mdp,2024.2.1,Win32,123.4567901,66fa4ebf79326e780c390304,,,,,,,,,,,,,,,,,,,,,285.4453,285.4453,285.4469,286.2031,0,0,left,0.2418,,286.2043,287.1445,1,1,right,287.1457,287.1464,,1,,0,287.1464,287.1464,287.1467,288.6443,0,12,12,12,1,0.2,0.8,0.6,0.4,,,,,,,,,,,,,,,0.4171,,0.6,0.4,0.4,0.6,0.8,0.2,0.8,0.2,1,0,,,,,,,,,,,,
,,5f1f459122764312bfbe265e,66fce0fc8cf72c0b23106580,2024-10-02_07h58.42.753,mdp,2024.2.1,Win32,123.4567901,66fa4ebf79326e780c390304,,,,,,,,,,,,,,,,,,,,,288.6448,288.6448,288.6457,289.4109,0,1,left,0.2501,,289.412,290.2275,0,0,left,290.2287,290.2294,,1,,1,290.2294,290.2294,290.2298,291.7273,0,13,13,13,1,0.2,0.8,0.6,0.4,,,,,,,,,,,,,,,0.3012,,0.6,0.4,0.4,0.6,0.8,0.2,0.8,0.2,1,0,,,,,,,,,,,,
,,5f1f459122764312bfbe265e,66fce0fc8cf72c0b23106580,2024-10-02_07h58.42.753,mdp,2024.2.1,Win32,123.4567901,66fa4ebf79326e780c390304,,,,,,,,,,,,,,,,,,,,,291.7276,291.7276,291.7287,292.4857,0,1,left,0.242,,292.487,293.3435,0,0,left,293.3448,293.3455,,1,,1,293.3455,293.3455,293.3458,294.8435,0,14,14,14,1,0.2,0.8,0.6,0.4,,,,,,,,,,,,,,,0.3421,,0.2,0.8,0.6,0.4,0.8,0.2,0.8,0.2,1,0,,,,,,,,,,,,
,,5f1f459122764312bfbe265e,66fce0fc8cf72c0b23106580,2024-10-02_07h58.42.753,mdp,2024.2.1,Win32,123.4567901,66fa4ebf79326e780c390304,,,,,,,,,,,,,,,,,,,,,294.8439,294.8439,294.8449,295.6269,0,0,left,0.267,,295.6281,296.493,1,1,right,296.4941,296.4949,,0,,0,296.4949,296.4949,296.4952,297.9932,0,15,15,15,1,0.2,0.8,0.6,0.4,,,,,,,,,,,,,,,0.3439,,0.2,0.8,0.6,0.4,0.8,0.2,0.8,0.2,1,0,,,,,,,,,,,,
,,5f1f459122764312bfbe265e,66fce0fc8cf72c0b23106580,2024-10-02_07h58.42.753,mdp,2024.2.1,Win32,123.4567901,66fa4ebf79326e780c390304,,,,,,,,,,,,,,,,,,,,,297.9936,297.9936,297.9947,298.7432,0,1,left,0.2336,,298.7446,299.7515,0,0,left,299.7528,299.7534,,0,,1,299.7534,299.7534,299.7539,301.2511,0,16,16,16,1,0.2,0.8,0.6,0.4,,,,,,,,,,,,,,,0.4855,,0.2,0.8,0.6,0.4,0.8,0.2,0.8,0.2,1,0,,,,,,,,,,,,
,,5f1f459122764312bfbe265e,66fce0fc8cf72c0b23106580,2024-10-02_07h58.42.753,mdp,2024.2.1,Win32,123.4567901,66fa4ebf79326e780c390304,,,,,,,,,,,,,,,,,,,,,301.2515,301.2515,301.2526,302.0093,0,1,left,0.2418,,302.0105,302.8342,0,1,left,302.8358,302.8364,,1,,0,302.8364,302.8364,302.8369,304.334,0,17,17,17,1,0.2,0.8,0.6,0.4,,,,,,,,,,,,,,,0.3083,,0.6,0.4,0.2,0.8,0.8,0.2,0.8,0.2,1,0,,,,,,,,,,,,
,,5f1f459122764312bfbe265e,66fce0fc8cf72c0b23106580,2024-10-02_07h58.42.753,mdp,2024.2.1,Win32,123.4567901,66fa4ebf79326e780c390304,,,,,,,,,,,,,,,,,,,,,304.3343,304.3343,304.3355,305.134,0,1,left,0.2836,,305.1353,305.9921,0,0,left,305.9933,305.9938,,0,,1,305.9938,305.9938,305.9942,307.4919,0,18,18,18,1,0.2,0.8,0.6,0.4,,,,,,,,,,,,,,,0.3417,,0.6,0.4,0.2,0.8,0.8,0.2,0.8,0.2,1,0,,,,,,,,,,,,
,,5f1f459122764312bfbe265e,66fce0fc8cf72c0b23106580,2024-10-02_07h58.42.753,mdp,2024.2.1,Win32,123.4567901,66fa4ebf79326e780c390304,,,,,,,,,,,,,,,,,,,,,307.4924,307.4924,307.4936,308.2751,0,1,left,0.2672,,308.2764,309.0916,0,0,left,309.0928,309.0934,,0,,1,309.0935,309.0935,309.0938,310.5914,0,19,19,19,1,0.2,0.8,0.6,0.4,,,,,,,,,,,,,,,0.3009,,0.6,0.4,0.2,0.8,0.8,0.2,0.8,0.2,1,0,,,,,,,,,,,,
,,5f1f459122764312bfbe265e,66fce0fc8cf72c0b23106580,2024-10-02_07h58.42.753,mdp,2024.2.1,Win32,123.4567901,66fa4ebf79326e780c390304,,,,,,,,,,,,,,,,,,,,,310.5918,310.5918,310.5928,311.3248,0,1,left,0.2169,,311.3258,312.2164,0,0,left,312.2175,312.2181,,0,,1,312.2181,312.2181,312.2184,313.716,0,20,20,20,1,0.2,0.8,0.6,0.4,,,,,,,,,,,,,,,0.3753,,0.6,0.4,0.2,0.8,0.8,0.2,0.8,0.2,1,0,,,,,,,,,,,,
,,5f1f459122764312bfbe265e,66fce0fc8cf72c0b23106580,2024-10-02_07h58.42.753,mdp,2024.2.1,Win32,123.4567901,66fa4ebf79326e780c390304,,,,,,,,,,,,,,,,,,,,,313.7163,313.7163,313.7178,314.4745,0,1,left,0.2418,,314.476,315.3073,0,0,left,315.3088,315.3094,,0,,1,315.3094,315.3094,315.3098,316.807,0,21,21,21,1,0.2,0.8,0.6,0.4,,,,,,,,,,,,,,,0.317,,0.6,0.4,0.2,0.8,0.8,0.2,0.8,0.2,1,0,,,,,,,,,,,,
,,5f1f459122764312bfbe265e,66fce0fc8cf72c0b23106580,2024-10-02_07h58.42.753,mdp,2024.2.1,Win32,123.4567901,66fa4ebf79326e780c390304,,,,,,,,,,,,,,,,,,,,,316.8074,316.8074,316.8088,317.5488,0,1,left,0.2277,,317.5498,318.382,0,0,left,318.3834,318.3839,,1,,1,318.3839,318.3839,318.3842,319.8819,0,22,22,22,1,0.2,0.8,0.6,0.4,,,,,,,,,,,,,,,0.3164,,0.6,0.4,0.2,0.8,0.8,0.2,0.8,0.2,1,0,,,,,,,,,,,,
,,5f1f459122764312bfbe265e,66fce0fc8cf72c0b23106580,2024-10-02_07h58.42.753,mdp,2024.2.1,Win32,123.4567901,66fa4ebf79326e780c390304,,,,,,,,,,,,,,,,,,,,,319.8822,319.8822,319.8833,320.6319,0,1,left,0.2342,,320.633,321.4733,0,1,left,321.4744,321.4752,,1,,0,321.4752,321.4752,321.4755,322.9731,0,23,23,23,1,0.2,0.8,0.6,0.4,,,,,,,,,,,,,,,0.3253,,0.6,0.4,0.2,0.8,0.4,0.6,0.2,0.8,1,0,,,,,,,,,,,,
,,5f1f459122764312bfbe265e,66fce0fc8cf72c0b23106580,2024-10-02_07h58.42.753,mdp,2024.2.1,Win32,123.4567901,66fa4ebf79326e780c390304,,,,,,,,,,,,,,,,,,,,,322.9735,322.9735,322.9745,323.7232,0,1,left,0.2336,,323.7245,324.5147,0,1,left,324.5161,324.5166,,1,,0,324.5166,324.5166,324.5172,326.0143,0,24,24,24,1,0.2,0.8,0.6,0.4,,,,,,,,,,,,,,,0.2751,,0.6,0.4,0.2,0.8,0.4,0.6,0.2,0.8,1,0,,,,,,,,,,,,
,,5f1f459122764312bfbe265e,66fce0fc8cf72c0b23106580,2024-10-02_07h58.42.753,mdp,2024.2.1,Win32,123.4567901,66fa4ebf79326e780c390304,,,,,,,,,,,,,,,,,,,,,326.0147,326.0147,326.0158,326.7561,0,1,left,0.2254,,326.7574,327.556,0,0,left,327.5571,327.5577,,0,,1,327.5577,327.5577,327.5581,329.0556,0,25,25,25,1,0.2,0.8,0.6,0.4,,,,,,,,,,,,,,,0.2836,,0.6,0.4,0.2,0.8,0.8,0.2,0.4,0.6,1,0,,,,,,,,,,,,
,,5f1f459122764312bfbe265e,66fce0fc8cf72c0b23106580,2024-10-02_07h58.42.753,mdp,2024.2.1,Win32,123.4567901,66fa4ebf79326e780c390304,,,,,,,,,,,,,,,,,,,,,329.0559,329.0559,329.0569,329.814,0,0,left,0.2419,,329.8151,330.7223,1,1,right,330.7234,330.724,,1,,0,330.7241,330.7241,330.7244,332.2217,0,26,26,26,1,0.2,0.8,0.6,0.4,,,,,,,,,,,,,,,0.3835,,0.6,0.4,0.2,0.8,0.8,0.2,0.4,0.6,1,0,,,,,,,,,,,,
,,5f1f459122764312bfbe265e,66fce0fc8cf72c0b23106580,2024-10-02_07h58.42.753,mdp,2024.2.1,Win32,123.4567901,66fa4ebf79326e780c390304,,,,,,,,,,,,,,,,,,,,,332.2221,332.2221,332.223,332.9467,0,1,left,0.2087,,332.948,333.7632,0,0,left,333.7643,333.7651,,1,,1,333.7651,333.7651,333.7654,335.2631,0,27,27,27,1,0.2,0.8,0.6,0.4,,,,,,,,,,,,,,,0.292,,0.6,0.4,0.2,0.8,0.8,0.2,0.4,0.6,1,0,,,,,,,,,,,,
,,5f1f459122764312bfbe265e,66fce0fc8cf72c0b23106580,2024-10-02_07h58.42.753,mdp,2024.2.1,Win32,123.4567901,66fa4ebf79326e780c390304,,,,,,,,,,,,,,,,,,,,,335.2635,335.2635,335.2647,335.9797,0,1,left,0.2,,335.9807,336.7793,0,0,left,336.7808,336.7814,,0,,1,336.7814,336.7814,336.7817,338.2791,0,28,28,28,1,0.2,0.8,0.6,0.4,,,,,,,,,,,,,,,0.2834,,0.6,0.4,0.2,0.8,0.8,0.2,0.4,0.6,1,0,,,,,,,,,,,,
,,5f1f459122764312bfbe265e,66fce0fc8cf72c0b23106580,2024-10-02_07h58.42.753,mdp,2024.2.1,Win32,123.4567901,66fa4ebf79326e780c390304,,,,,,,,,,,,,,,,,,,,,338.2795,338.2795,338.2807,339.1377,0,0,left,0.3419,,339.139,340.1623,1,0,right,340.1635,340.1641,,1,,1,340.1642,340.1642,340.1645,341.6622,0,29,29,29,1,0.2,0.8,0.6,0.4,,,,,,,,,,,,,,,0.5001,,0.6,0.4,0.2,0.8,0.8,0.2,0.4,0.6,1,0,,,,,,,,,,,,
,,5f1f459122764312bfbe265e,66fce0fc8cf72c0b23106580,2024-10-02_07h58.42.753,mdp,2024.2.1,Win32,123.4567901,66fa4ebf79326e780c390304,,,,,,,,,,,,,,,,,,,,,341.6625,341.6625,341.6634,342.4457,0,0,left,0.2667,,342.4468,343.4202,0,1,left,343.4213,343.422,,1,,0,343.422,343.422,343.4224,344.92,0,30,30,30,1,0.2,0.8,0.6,0.4,,,,,,,,,,,,,,,0.4614,,0.2,0.8,0.6,0.4,0.8,0.2,0.4,0.6,1,0,,,,,,,,,,,,
,,5f1f459122764312bfbe265e,66fce0fc8cf72c0b23106580,2024-10-02_07h58.42.753,mdp,2024.2.1,Win32,123.4567901,66fa4ebf79326e780c390304,,,,,,,,,,,,,,,,,,,,,344.9204,344.9204,344.9214,345.6618,0,1,left,0.2252,,345.6629,346.4615,0,0,left,346.4627,346.4634,,0,,1,346.4634,346.4634,346.4637,347.9613,0,31,31,31,1,0.2,0.8,0.6,0.4,,,,,,,,,,,,,,,0.2758,,0.2,0.8,0.6,0.4,0.8,0.2,0.4,0.6,1,0,,,,,,,,,,,,
,,5f1f459122764312bfbe265e,66fce0fc8cf72c0b23106580,2024-10-02_07h58.42.753,mdp,2024.2.1,Win32,123.4567901,66fa4ebf79326e780c390304,,,,,,,,,,,,,,,,,,,,,347.9619,347.9619,347.9631,348.7447,0,1,left,0.2668,,348.7465,349.6693,0,1,left,349.6705,349.6712,,0,,0,349.6712,349.6712,349.6716,351.1693,0,32,32,32,1,0.2,0.8,0.6,0.4,,,,,,,,,,,,,,,0.4092,,0.2,0.8,0.6,0.4,0.8,0.2,0.4,0.6,1,0,,,,,,,,,,,,
,,5f1f459122764312bfbe265e,66fce0fc8cf72c0b23106580,2024-10-02_07h58.42.753,mdp,2024.2.1,Win32,123.4567901,66fa4ebf79326e780c390304,,,,,,,,,,,,,,,,,,,,,351.1697,351.1697,351.1707,351.9773,0,1,left,0.2916,,351.9784,352.8691,0,0,left,352.8702,352.8708,,0,,1,352.8709,352.8709,352.8712,354.3688,0,33,33,33,1,0.2,0.8,0.6,0.4,,,,,,,,,,,,,,,0.3838,,0.2,0.8,0.6,0.4,0.8,0.2,0.4,0.6,1,0,,,,,,,,,,,,
,,5f1f459122764312bfbe265e,66fce0fc8cf72c0b23106580,2024-10-02_07h58.42.753,mdp,2024.2.1,Win32,123.4567901,66fa4ebf79326e780c390304,,,,,,,,,,,,,,,,,,,,,354.369,354.369,354.37,355.6355,0,1,left,0.7501,,355.6369,356.6104,0,0,left,356.6114,356.612,,0,,1,356.612,356.612,356.6124,358.1099,0,34,34,34,1,0.2,0.8,0.6,0.4,,,,,,,,,,,,,,,0.4588,,0.2,0.8,0.6,0.4,0.8,0.2,0.4,0.6,1,0,,,,,,,,,,,,
,,5f1f459122764312bfbe265e,66fce0fc8cf72c0b23106580,2024-10-02_07h58.42.753,mdp,2024.2.1,Win32,123.4567901,66fa4ebf79326e780c390304,,,,,,,,,,,,,,,,,,,,,358.1102,358.1102,358.1111,359.0681,0,0,left,0.4419,,359.0697,360.0261,1,0,right,360.0276,360.0284,,0,,1,360.0284,360.0284,360.0289,361.5261,0,35,35,35,1,0.2,0.8,0.6,0.4,,,,,,,,,,,,,,,0.4356,,0.2,0.8,0.6,0.4,0.8,0.2,0.4,0.6,1,0,,,,,,,,,,,,
,,5f1f459122764312bfbe265e,66fce0fc8cf72c0b23106580,2024-10-02_07h58.42.753,mdp,2024.2.1,Win32,123.4567901,66fa4ebf79326e780c390304,,,,,,,,,,,,,,,,,,,,,361.5264,361.5264,361.5277,362.4429,0,1,left,0.4006,,362.4442,363.3095,0,0,left,363.3107,363.3113,,0,,1,363.3114,363.3114,363.3118,364.8089,0,36,36,36,1,0.2,0.8,0.6,0.4,,,,,,,,,,,,,,,0.3418,,0.2,0.8,0.6,0.4,0.8,0.2,0.4,0.6,1,0,,,,,,,,,,,,
,,5f1f459122764312bfbe265e,66fce0fc8cf72c0b23106580,2024-10-02_07h58.42.753,mdp,2024.2.1,Win32,123.4567901,66fa4ebf79326e780c390304,,,,,,,,,,,,,,,,,,,,,364.8093,364.8093,364.8107,365.567,0,1,left,0.2417,,365.5684,366.3919,0,1,left,366.394,366.3946,,1,,0,366.3946,366.3946,366.395,367.8916,0,37,37,37,1,0.2,0.8,0.6,0.4,,,,,,,,,,,,,,,0.3091,,0.2,0.8,0.6,0.4,0.8,0.2,0.4,0.6,1,0,,,,,,,,,,,,
,,5f1f459122764312bfbe265e,66fce0fc8cf72c0b23106580,2024-10-02_07h58.42.753,mdp,2024.2.1,Win32,123.4567901,66fa4ebf79326e780c390304,,,,,,,,,,,,,,,,,,,,,367.8921,367.8922,367.8937,368.6416,0,1,left,0.2331,,368.6433,369.4917,0,0,left,369.4933,369.4937,,1,,1,369.4937,369.4937,369.4941,370.9916,0,38,38,38,1,0.2,0.8,0.6,0.4,,,,,,,,,,,,,,,0.3337,,0.2,0.8,0.6,0.4,0.8,0.2,0.4,0.6,1,0,,,,,,,,,,,,
,,5f1f459122764312bfbe265e,66fce0fc8cf72c0b23106580,2024-10-02_07h58.42.753,mdp,2024.2.1,Win32,123.4567901,66fa4ebf79326e780c390304,,,,,,,,,,,,,,,,,,,,,370.9919,370.9919,370.993,371.7749,0,1,left,0.2671,,371.7761,372.658,0,1,left,372.6592,372.6599,,1,,0,372.6599,372.6599,372.6602,374.1578,0,39,39,39,1,0.2,0.8,0.6,0.4,,,,,,,,,,,,,,,0.3681,,0.2,0.8,0.6,0.4,0.2,0.8,0.2,0.8,1,0,,,,,,,,,,,,
,,5f1f459122764312bfbe265e,66fce0fc8cf72c0b23106580,2024-10-02_07h58.42.753,mdp,2024.2.1,Win32,123.4567901,66fa4ebf79326e780c390304,,,,,,,,,,,,,,,,,,,,,374.1583,374.1583,374.1597,375.0244,0,1,left,0.3501,,375.0254,375.8328,0,0,left,375.8341,375.8346,,1,,1,375.8346,375.8346,375.8352,377.3324,0,40,40,40,1,0.2,0.8,0.6,0.4,,,,,,,,,,,,,,,0.2919,,0.2,0.8,0.6,0.4,0.6,0.4,0.8,0.2,1,0,,,,,,,,,,,,
,,5f1f459122764312bfbe265e,66fce0fc8cf72c0b23106580,2024-10-02_07h58.42.753,mdp,2024.2.1,Win32,123.4567901,66fa4ebf79326e780c390304,,,,,,,,,,,,,,,,,,,,,377.3332,377.3332,377.3346,378.0654,0,1,left,0.2193,,378.0665,378.8906,0,1,left,378.8918,378.8925,,0,,0,378.8925,378.8925,378.8928,380.3903,0,41,41,41,1,0.2,0.8,0.6,0.4,,,,,,,,,,,,,,,0.3176,,0.2,0.8,0.6,0.4,0.6,0.4,0.8,0.2,1,0,,,,,,,,,,,,
,,5f1f459122764312bfbe265e,66fce0fc8cf72c0b23106580,2024-10-02_07h58.42.753,mdp,2024.2.1,Win32,123.4567901,66fa4ebf79326e780c390304,,,,,,,,,,,,,,,,,,,,,380.3907,380.3907,380.3919,381.2235,0,1,left,0.3175,,381.2246,382.0398,0,1,left,382.0408,382.0416,,0,,0,382.0416,382.0416,382.0419,383.5398,0,42,42,42,1,0.2,0.8,0.6,0.4,,,,,,,,,,,,,,,0.3002,,0.2,0.8,0.6,0.4,0.6,0.4,0.8,0.2,1,0,,,,,,,,,,,,
,,5f1f459122764312bfbe265e,66fce0fc8cf72c0b23106580,2024-10-02_07h58.42.753,mdp,2024.2.1,Win32,123.4567901,66fa4ebf79326e780c390304,,,,,,,,,,,,,,,,,,,,,383.5401,383.5401,383.5411,384.2482,0,1,left,0.1942,,384.2495,385.1064,0,0,left,385.1079,385.1084,,0,,1,385.1085,385.1085,385.1089,386.6061,0,43,43,43,1,0.2,0.8,0.6,0.4,,,,,,,,,,,,,,,0.3417,,0.2,0.8,0.6,0.4,0.6,0.4,0.8,0.2,1,0,,,,,,,,,,,,
,,5f1f459122764312bfbe265e,66fce0fc8cf72c0b23106580,2024-10-02_07h58.42.753,mdp,2024.2.1,Win32,123.4567901,66fa4ebf79326e780c390304,,,,,,,,,,,,,,,,,,,,,386.6065,386.6065,386.6075,387.3979,0,1,left,0.2751,,387.399,388.2476,0,1,left,388.2488,388.2495,,1,,0,388.2495,388.2495,388.25,389.7474,0,44,44,44,1,0.2,0.8,0.6,0.4,,,,,,,,,,,,,,,0.3337,,0.2,0.8,0.6,0.4,0.2,0.8,0.6,0.4,1,0,,,,,,,,,,,,
,,5f1f459122764312bfbe265e,66fce0fc8cf72c0b23106580,2024-10-02_07h58.42.753,mdp,2024.2.1,Win32,123.4567901,66fa4ebf79326e780c390304,,,,,,,,,,,,,,,,,,,,,389.7478,389.7478,389.749,390.589,0,1,left,0.3249,,390.5901,391.4223,0,1,left,391.4234,391.4241,,0,,0,391.4241,391.4241,391.4244,392.9218,0,45,45,45,1,0.2,0.8,0.6,0.4,,,,,,,,,,,,,,,0.3175,,0.2,0.8,0.6,0.4,0.2,0.8,0.6,0.4,1,0,,,,,,,,,,,,
,,5f1f459122764312bfbe265e,66fce0fc8cf72c0b23106580,2024-10-02_07h58.42.753,mdp,2024.2.1,Win32,123.4567901,66fa4ebf79326e780c390304,,,,,,,,,,,,,,,,,,,,,392.9221,392.9221,392.9232,393.6636,0,1,left,0.2253,,393.6647,394.5636,1,1,right,394.5647,394.5653,,0,,0,394.5653,394.5653,394.5657,396.0632,0,46,46,46,1,0.2,0.8,0.6,0.4,,,,,,,,,,,,,,,0.3841,,0.2,0.8,0.6,0.4,0.4,0.6,0.4,0.6,1,0,,,,,,,,,,,,
,,5f1f459122764312bfbe265e,66fce0fc8cf72c0b23106580,2024-10-02_07h58.42.753,mdp,2024.2.1,Win32,123.4567901,66fa4ebf79326e780c390304,,,,,,,,,,,,,,,,,,,,,396.0635,396.0635,396.0645,396.8549,0,1,left,0.2754,,396.8559,397.6796,0,1,left,397.6808,397.6814,,1,,0,397.6814,397.6814,397.6817,399.1794,0,47,47,47,1,0.2,0.8,0.6,0.4,,,,,,,,,,,,,,,0.3096,,0.2,0.8,0.6,0.4,0.2,0.8,0.8,0.2,1,0,,,,,,,,,,,,
,,5f1f459122764312bfbe265e,66fce0fc8cf72c0b23106580,2024-10-02_07h58.42.753,mdp,2024.2.1,Win32,123.4567901,66fa4ebf79326e780c390304,,,,,,,,,,,,,,,,,,,,,399.1799,399.1799,399.1811,399.8795,0,1,left,0.1838,,399.8806,400.6794,0,1,left,400.6804,400.6811,,0,,0,400.6811,400.6811,400.6815,402.1791,0,48,48,48,1,0.2,0.8,0.6,0.4,,,,,,,,,,,,,,,0.2836,,0.2,0.8,0.6,0.4,0.2,0.8,0.8,0.2,1,0,,,,,,,,,,,,
,,5f1f459122764312bfbe265e,66fce0fc8cf72c0b23106580,2024-10-02_07h58.42.753,mdp,2024.2.1,Win32,123.4567901,66fa4ebf79326e780c390304,,,,,,,,,,,,,,,,,,,,,402.1794,402.1794,402.1803,402.9537,0,1,left,0.2612,,402.9548,403.7457,0,1,left,403.747,403.7475,,1,,0,403.7476,403.7476,403.7478,405.2453,0,49,49,49,1,0.2,0.8,0.6,0.4,,,,,,,,,,,,,,,0.284,,0.2,0.8,0.6,0.4,0.2,0.8,0.8,0.2,1,0,,,,,,,,,,,,
,,5f1f459122764312bfbe265e,66fce0fc8cf72c0b23106580,2024-10-02_07h58.42.753,mdp,2024.2.1,Win32,123.4567901,66fa4ebf79326e780c390304,,,,,,,,,,,,,,,,,,,,,,,,,,,,,,,,,,,,,,,,,,,,,,,,,,,,,,,,405.2454,463.7508,0,1,1,5,1,imgs/goat.png,imgs/elephant.png,imgs/kangaroo.png,imgs/bear.png,imgs/lion.png,,,,,,,,,,,,,,,,,,,,,,,,
,,5f1f459122764312bfbe265e,66fce0fc8cf72c0b23106580,2024-10-02_07h58.42.753,mdp,2024.2.1,Win32,123.4567901,66fa4ebf79326e780c390304,,,,,,,,,,,,,,3,seqs/st3seq26.csv,463.7513,465.9508,space,1.6835,,465.9546,465.9546,465.9557,466.8787,0,1,left,0.4,,466.8798,467.662,1,1,right,467.6632,468.4036,0,0,left,1,468.4037,468.4037,468.4047,469.9031,0,0,0,0,1,0.6,0.4,0.4,0.6,,,,,,,,,,,,,,,0.2595,,0.6,0.4,0.4,0.6,0.4,0.6,0.2,0.8,,,0.2167,,0.8,0.2,0.8,0.2,0.4,0.6,0.4,0.6,1,0
,,5f1f459122764312bfbe265e,66fce0fc8cf72c0b23106580,2024-10-02_07h58.42.753,mdp,2024.2.1,Win32,123.4567901,66fa4ebf79326e780c390304,,,,,,,,,,,,,,,,,,,,,469.9038,469.9038,469.9052,470.703,0,0,left,0.2835,,470.7048,471.636,1,0,right,471.6374,472.4942,0,1,left,0,472.4943,472.4943,472.4958,473.9942,0,1,1,1,1,0.6,0.4,0.4,0.6,,,,,,,,,,,,,,,0.4085,,0.6,0.4,0.4,0.6,0.4,0.6,0.2,0.8,,,0.3336,,0.2,0.8,0.6,0.4,0.4,0.6,0.4,0.6,1,0
,,5f1f459122764312bfbe265e,66fce0fc8cf72c0b23106580,2024-10-02_07h58.42.753,mdp,2024.2.1,Win32,123.4567901,66fa4ebf79326e780c390304,,,,,,,,,,,,,,,,,,,,,473.9947,473.9947,473.9961,474.7357,0,0,left,0.2253,,474.7375,475.5605,1,0,right,475.5619,476.5605,1,0,right,1,476.5607,476.5607,476.5624,478.0601,0,2,2,2,1,0.6,0.4,0.4,0.6,,,,,,,,,,,,,,,0.3086,,0.6,0.4,0.4,0.6,0.8,0.2,0.8,0.2,,,0.4837,,0.2,0.8,0.6,0.4,0.4,0.6,0.4,0.6,1,0
,,5f1f459122764312bfbe265e,66fce0fc8cf72c0b23106580,2024-10-02_07h58.42.753,mdp,2024.2.1,Win32,123.4567901,66fa4ebf79326e780c390304,,,,,,,,,,,,,,,,,,,,,478.0607,478.0607,478.0623,478.835,0,1,left,0.2587,,478.8361,479.7515,1,1,right,479.753,480.6431,1,1,right,0,480.6432,480.6432,480.645,482.1428,0,3,3,3,1,0.6,0.4,0.4,0.6,,,,,,,,,,,,,,,0.3933,,0.6,0.4,0.4,0.6,0.4,0.6,0.4,0.6,,,0.367,,0.2,0.8,0.6,0.4,0.4,0.6,0.4,0.6,1,0
,,5f1f459122764312bfbe265e,66fce0fc8cf72c0b23106580,2024-10-02_07h58.42.753,mdp,2024.2.1,Win32,123.4567901,66fa4ebf79326e780c390304,,,,,,,,,,,,,,,,,,,,,482.1436,482.1437,482.1454,483.0348,0,1,left,0.375,,483.0366,483.9595,1,1,right,483.9616,484.9014,0,0,left,1,484.9016,484.9016,484.9036,486.4008,0,4,4,4,1,0.6,0.4,0.4,0.6,,,,,,,,,,,,,,,0.409,,0.6,0.4,0.4,0.6,0.4,0.6,0.4,0.6,,,0.4254,0.0001,0.2,0.8,0.6,0.4,0.4,0.6,0.4,0.6,1,0
,,5f1f459122764312bfbe265e,66fce0fc8cf72c0b23106580,2024-10-02_07h58.42.753,mdp,2024.2.1,Win32,123.4567901,66fa4ebf79326e780c390304,,,,,,,,,,,,,,,,,,,,,486.4018,486.4018,486.4036,487.1756,0,1,left,0.2595,,487.1777,488.0337,1,0,right,488.0351,489.1169,1,1,right,0,489.117,489.117,489.1185,490.6169,0,5,5,5,1,0.6,0.4,0.4,0.6,,,,,,,,,,,,,,,0.3416,,0.6,0.4,0.4,0.6,0.4,0.6,0.4,0.6,,,0.5673,,0.2,0.8,0.6,0.4,0.4,0.6,0.4,0.6,1,0
,,5f1f459122764312bfbe265e,66fce0fc8cf72c0b23106580,2024-10-02_07h58.42.753,mdp,2024.2.1,Win32,123.4567901,66fa4ebf79326e780c390304,,,,,,,,,,,,,,,,,,,,,490.6175,490.6176,490.6191,491.5837,1,0,right,0.4505,,491.5855,492.6332,1,0,right,492.6351,493.4249,1,0,right,1,493.4251,493.4251,493.4271,494.9245,0,6,6,6,1,0.6,0.4,0.4,0.6,,,,,,,,,,,,,,,0.5257,,0.6,0.4,0.4,0.6,0.4,0.6,0.4,0.6,,,0.2755,,0.2,0.8,0.6,0.4,0.4,0.6,0.4,0.6,1,0
,,5f1f459122764312bfbe265e,66fce0fc8cf72c0b23106580,2024-10-02_07h58.42.753,mdp,2024.2.1,Win32,123.4567901,66fa4ebf79326e780c390304,,,,,,,,,,,,,,,,,,,,,494.925,494.925,494.9264,495.9081,0,1,left,0.4702,,495.9097,496.8909,0,0,left,496.8921,497.7242,1,1,right,0,497.7243,497.7243,497.7258,499.2241,0,7,7,7,1,0.8,0.2,0.6,0.4,,,,,,,,,,,,,,,0.4584,,0.6,0.4,0.4,0.6,0.4,0.6,0.4,0.6,,,0.3253,,0.2,0.8,0.6,0.4,0.4,0.6,0.4,0.6,1,0
,,5f1f459122764312bfbe265e,66fce0fc8cf72c0b23106580,2024-10-02_07h58.42.753,mdp,2024.2.1,Win32,123.4567901,66fa4ebf79326e780c390304,,,,,,,,,,,,,,,,,,,,,499.2246,499.2246,499.2262,500.6575,0,0,left,0.9168,,500.6589,501.549,1,0,right,501.5504,502.4239,0,1,left,0,502.424,502.424,502.4251,503.9235,0,8,8,8,1,0.8,0.2,0.6,0.4,,,,,,,,,,,,,,,0.3678,,0.6,0.4,0.4,0.6,0.4,0.6,0.4,0.6,,,0.3614,,0.2,0.8,0.6,0.4,0.4,0.6,0.4,0.6,1,0
,,5f1f459122764312bfbe265e,66fce0fc8cf72c0b23106580,2024-10-02_07h58.42.753,mdp,2024.2.1,Win32,123.4567901,66fa4ebf79326e780c390304,,,,,,,,,,,,,,,,,,,,,503.9238,503.9238,503.925,505.0151,0,1,left,0.5777,,505.0163,506.0816,1,1,right,506.0827,507.1982,1,0,right,1,507.1983,507.1983,507.1995,508.698,0,9,9,9,1,0.8,0.2,0.6,0.4,,,,,,,,,,,,,,,0.5426,,0.6,0.4,0.4,0.6,0.4,0.6,0.4,0.6,,,0.5917,,0.2,0.8,0.6,0.4,0.4,0.6,0.4,0.6,1,0
,,5f1f459122764312bfbe265e,66fce0fc8cf72c0b23106580,2024-10-02_07h58.42.753,mdp,2024.2.1,Win32,123.4567901,66fa4ebf79326e780c390304,,,,,,,,,,,,,,,,,,,,,508.6983,508.6984,508.6997,509.6561,0,0,left,0.442,,509.6575,510.8724,1,1,right,510.8735,512.1478,1,0,right,1,512.1478,512.1478,512.1488,513.6473,0,10,10,10,1,0.8,0.2,0.6,0.4,,,,,,,,,,,,,,,0.694,,0.6,0.4,0.4,0.6,0.4,0.6,0.4,0.6,,,0.7668,,0.2,0.8,0.6,0.4,0.4,0.6,0.4,0.6,1,0
,,5f1f459122764312bfbe265e,66fce0fc8cf72c0b23106580,2024-10-02_07h58.42.753,mdp,2024.2.1,Win32,123.4567901,66fa4ebf79326e780c390304,,,,,,,,,,,,,,,,,,,,,513.6479,513.6479,513.6492,514.7221,0,0,left,0.5587,,514.7234,515.6472,1,1,right,515.6483,516.4718,1,1,right,0,516.4718,516.4719,516.473,517.9717,0,11,11,11,1,0.8,0.2,0.6,0.4,,,,,,,,,,,,,,,0.4085,,0.6,0.4,0.4,0.6,0.4,0.6,0.4,0.6,,,0.3101,,0.2,0.8,0.6,0.4,0.4,0.6,0.4,0.6,1,0
,,5f1f459122764312bfbe265e,66fce0fc8cf72c0b23106580,2024-10-02_07h58.42.753,mdp,2024.2.1,Win32,123.4567901,66fa4ebf79326e780c390304,,,,,,,,,,,,,,,,,,,,,517.9721,517.9721,517.9732,518.8298,0,1,left,0.3417,,518.831,519.7129,1,0,right,519.7142,520.5879,1,0,right,1,520.5879,520.5879,520.5892,522.0876,0,12,12,12,1,0.8,0.2,0.6,0.4,,,,,,,,,,,,,,,0.36,,0.6,0.4,0.4,0.6,0.4,0.6,0.4,0.6,,,0.3519,,0.2,0.8,0.6,0.4,0.4,0.6,0.4,0.6,1,0
,,5f1f459122764312bfbe265e,66fce0fc8cf72c0b23106580,2024-10-02_07h58.42.753,mdp,2024.2.1,Win32,123.4567901,66fa4ebf79326e780c390304,,,,,,,,,,,,,,,,,,,,,522.0881,522.0881,522.0892,522.9377,0,1,left,0.3333,,522.9393,523.7792,1,1,right,523.7803,524.5708,1,1,right,0,524.571,524.571,524.5722,526.0707,0,13,13,13,1,0.8,0.2,0.6,0.4,,,,,,,,,,,,,,,0.3251,,0.6,0.4,0.4,0.6,0.4,0.6,0.4,0.6,,,0.2672,,0.2,0.8,0.6,0.4,0.4,0.6,0.4,0.6,1,0
,,5f1f459122764312bfbe265e,66fce0fc8cf72c0b23106580,2024-10-02_07h58.42.753,mdp,2024.2.1,Win32,123.4567901,66fa4ebf79326e780c390304,,,,,,,,,,,,,,,,,,,,,526.071,526.071,526.072,526.8457,0,0,left,0.2587,,526.8469,527.7038,1,1,right,527.7048,528.5369,1,0,right,1,528.537,528.537,528.5382,530.0367,0,14,14,14,1,0.8,0.2,0.6,0.4,,,,,,,,,,,,,,,0.3332,,0.6,0.4,0.4,0.6,0.4,0.6,0.4,0.6,,,0.318,,0.2,0.8,0.6,0.4,0.4,0.6,0.4,0.6,1,0
,,5f1f459122764312bfbe265e,66fce0fc8cf72c0b23106580,2024-10-02_07h58.42.753,mdp,2024.2.1,Win32,123.4567901,66fa4ebf79326e780c390304,,,,,,,,,,,,,,,,,,,,,530.0372,530.0372,530.0384,531.0533,0,0,left,0.5003,,531.0546,531.9034,1,1,right,531.9047,532.7448,1,1,right,0,532.7449,532.7449,532.746,534.2445,0,15,15,15,1,0.8,0.2,0.6,0.4,,,,,,,,,,,,,,,0.3336,,0.6,0.4,0.4,0.6,0.4,0.6,0.4,0.6,,,0.3253,,0.2,0.8,0.6,0.4,0.4,0.6,0.4,0.6,1,0
,,5f1f459122764312bfbe265e,66fce0fc8cf72c0b23106580,2024-10-02_07h58.42.753,mdp,2024.2.1,Win32,123.4567901,66fa4ebf79326e780c390304,,,,,,,,,,,,,,,,,,,,,534.245,534.245,534.2462,535.0942,0,0,left,0.3342,,535.0954,535.8945,1,1,right,535.8958,536.6609,1,0,right,1,536.661,536.661,536.6622,538.1607,0,16,16,16,1,0.8,0.2,0.6,0.4,,,,,,,,,,,,,,,0.292,,0.6,0.4,0.4,0.6,0.2,0.8,0.6,0.4,,,0.2501,,0.2,0.8,0.6,0.4,0.4,0.6,0.4,0.6,1,0
,,5f1f459122764312bfbe265e,66fce0fc8cf72c0b23106580,2024-10-02_07h58.42.753,mdp,2024.2.1,Win32,123.4567901,66fa4ebf79326e780c390304,,,,,,,,,,,,,,,,,,,,,538.1611,538.1611,538.1621,538.9272,0,0,left,0.2505,,538.9284,539.6271,1,1,right,539.6286,540.4683,1,1,right,0,540.4684,540.4685,540.4696,541.9685,0,17,17,17,1,0.8,0.2,0.6,0.4,,,,,,,,,,,,,,,0.1839,,0.6,0.4,0.4,0.6,0.2,0.8,0.6,0.4,,,0.3278,,0.2,0.8,0.6,0.4,0.4,0.6,0.4,0.6,1,0
,,5f1f459122764312bfbe265e,66fce0fc8cf72c0b23106580,2024-10-02_07h58.42.753,mdp,2024.2.1,Win32,123.4567901,66fa4ebf79326e780c390304,,,,,,,,,,,,,,,,,,,,,541.969,541.969,541.9702,542.7019,0,0,left,0.2173,,542.7032,543.4851,1,1,right,543.4862,544.3016,1,0,right,1,544.3017,544.3017,544.3028,545.8013,0,18,18,18,1,0.8,0.2,0.6,0.4,,,,,,,,,,,,,,,0.2669,,0.6,0.4,0.4,0.6,0.2,0.8,0.6,0.4,,,0.3029,,0.6,0.4,0.8,0.2,0.4,0.6,0.4,0.6,1,0
,,5f1f459122764312bfbe265e,66fce0fc8cf72c0b23106580,2024-10-02_07h58.42.753,mdp,2024.2.1,Win32,123.4567901,66fa4ebf79326e780c390304,,,,,,,,,,,,,,,,,,,,,545.8017,545.8018,545.8029,546.5758,0,0,left,0.2615,,546.5768,547.3509,1,1,right,547.3522,548.2261,1,0,right,1,548.2262,548.2262,548.2274,549.7257,0,19,19,19,1,0.8,0.2,0.6,0.4,,,,,,,,,,,,,,,0.2666,,0.6,0.4,0.4,0.6,0.2,0.8,0.6,0.4,,,0.3596,,0.6,0.4,0.8,0.2,0.4,0.6,0.4,0.6,1,0
,,5f1f459122764312bfbe265e,66fce0fc8cf72c0b23106580,2024-10-02_07h58.42.753,mdp,2024.2.1,Win32,123.4567901,66fa4ebf79326e780c390304,,,,,,,,,,,,,,,,,,,,,549.7262,549.7262,549.7278,550.5339,0,0,left,0.2917,,550.535,551.2841,1,1,right,551.2851,552.0172,1,0,right,1,552.0174,552.0174,552.0184,553.5168,0,20,20,20,1,0.8,0.2,0.6,0.4,,,,,,,,,,,,,,,0.2336,,0.6,0.4,0.4,0.6,0.2,0.8,0.6,0.4,,,0.2177,,0.6,0.4,0.8,0.2,0.4,0.6,0.4,0.6,1,0
,,5f1f459122764312bfbe265e,66fce0fc8cf72c0b23106580,2024-10-02_07h58.42.753,mdp,2024.2.1,Win32,123.4567901,66fa4ebf79326e780c390304,,,,,,,,,,,,,,,,,,,,,553.5172,553.5172,553.5187,554.2918,0,0,left,0.2582,,554.293,555.0417,1,1,right,555.0428,555.8084,1,0,right,1,555.8085,555.8085,555.8099,557.3081,0,21,21,21,1,0.8,0.2,0.6,0.4,,,,,,,,,,,,,,,0.235,,0.6,0.4,0.4,0.6,0.2,0.8,0.6,0.4,,,0.2507,,0.6,0.4,0.8,0.2,0.4,0.6,0.4,0.6,1,0
,,5f1f459122764312bfbe265e,66fce0fc8cf72c0b23106580,2024-10-02_07h58.42.753,mdp,2024.2.1,Win32,123.4567901,66fa4ebf79326e780c390304,,,,,,,,,,,,,,,,,,,,,557.3085,557.3085,557.3098,558.0829,0,0,left,0.258,,558.0841,558.8747,1,1,right,558.8758,559.6407,1,1,right,0,559.6408,559.6408,559.6421,561.1407,0,22,22,22,1,0.8,0.2,0.6,0.4,,,,,,,,,,,,,,,0.2753,,0.6,0.4,0.4,0.6,0.2,0.8,0.6,0.4,,,0.2528,,0.6,0.4,0.8,0.2,0.4,0.6,0.4,0.6,1,0
,,5f1f459122764312bfbe265e,66fce0fc8cf72c0b23106580,2024-10-02_07h58.42.753,mdp,2024.2.1,Win32,123.4567901,66fa4ebf79326e780c390304,,,,,,,,,,,,,,,,,,,,,561.1413,561.1413,561.1426,561.9826,0,1,left,0.3255,,561.9839,562.7159,1,1,right,562.7169,563.5155,1,0,right,1,563.5155,563.5155,563.5167,565.0153,0,23,23,23,1,0.8,0.2,0.6,0.4,,,,,,,,,,,,,,,0.2083,,0.6,0.4,0.4,0.6,0.2,0.8,0.6,0.4,,,0.2832,,0.6,0.4,0.8,0.2,0.4,0.6,0.4,0.6,1,0
,,5f1f459122764312bfbe265e,66fce0fc8cf72c0b23106580,2024-10-02_07h58.42.753,mdp,2024.2.1,Win32,123.4567901,66fa4ebf79326e780c390304,,,,,,,,,,,,,,,,,,,,,565.0158,565.0158,565.0168,565.757,0,0,left,0.225,,565.7582,566.7819,1,1,right,566.7833,567.5319,1,0,right,1,567.5319,567.5319,567.533,569.0316,0,24,24,24,1,0.8,0.2,0.6,0.4,,,,,,,,,,,,,,,0.5001,,0.6,0.4,0.4,0.6,0.2,0.8,0.6,0.4,,,0.2334,,0.6,0.4,0.8,0.2,0.4,0.6,0.4,0.6,1,0
,,5f1f459122764312bfbe265e,66fce0fc8cf72c0b23106580,2024-10-02_07h58.42.753,mdp,2024.2.1,Win32,123.4567901,66fa4ebf79326e780c390304,,,,,,,,,,,,,,,,,,,,,569.0321,569.0322,569.0334,569.6146,0,0,left,0.0688,,569.6158,570.3732,1,1,right,570.3744,571.123,1,1,right,0,571.1231,571.1231,571.1241,572.6226,0,25,25,25,1,0.8,0.2,0.6,0.4,,,,,,,,,,,,,,,0.245,,0.6,0.4,0.4,0.6,0.2,0.8,0.6,0.4,,,0.2347,,0.6,0.4,0.8,0.2,0.4,0.6,0.4,0.6,1,0
,,5f1f459122764312bfbe265e,66fce0fc8cf72c0b23106580,2024-10-02_07h58.42.753,mdp,2024.2.1,Win32,123.4567901,66fa4ebf79326e780c390304,,,,,,,,,,,,,,,,,,,,,572.6229,572.6229,572.6239,573.2893,0,0,left,0.1504,,573.2904,573.956,1,1,right,573.9571,574.7724,1,1,right,0,574.7726,574.7726,574.7738,576.2721,0,26,26,26,1,0.8,0.2,0.6,0.4,,,,,,,,,,,,,,,0.1501,,0.6,0.4,0.4,0.6,0.2,0.8,0.6,0.4,,,0.3003,,0.6,0.4,0.8,0.2,0.4,0.6,0.4,0.6,1,0
,,5f1f459122764312bfbe265e,66fce0fc8cf72c0b23106580,2024-10-02_07h58.42.753,mdp,2024.2.1,Win32,123.4567901,66fa4ebf79326e780c390304,,,,,,,,,,,,,,,,,,,,,576.2725,576.2725,576.2741,576.9722,0,0,left,0.184,,576.9734,577.6054,1,1,right,577.6068,578.2638,1,1,right,0,578.2638,578.2638,578.265,579.7633,0,27,27,27,1,0.8,0.2,0.6,0.4,,,,,,,,,,,,,,,0.1172,,0.6,0.4,0.4,0.6,0.2,0.8,0.6,0.4,,,0.1419,,0.6,0.4,0.8,0.2,0.4,0.6,0.4,0.6,1,0
,,5f1f459122764312bfbe265e,66fce0fc8cf72c0b23106580,2024-10-02_07h58.42.753,mdp,2024.2.1,Win32,123.4567901,66fa4ebf79326e780c390304,,,,,,,,,,,,,,,,,,,,,579.7637,579.7637,579.7647,580.5552,0,0,left,0.276,,580.5563,582.1796,1,1,right,582.1806,582.9547,1,1,right,0,582.9548,582.9548,582.9558,584.4543,0,28,28,28,1,0.8,0.2,0.6,0.4,,,,,,,,,,,,,,,1.1081,,0.6,0.4,0.4,0.6,0.2,0.8,0.6,0.4,,,0.259,,0.6,0.4,0.8,0.2,0.4,0.6,0.4,0.6,1,0
,,5f1f459122764312bfbe265e,66fce0fc8cf72c0b23106580,2024-10-02_07h58.42.753,mdp,2024.2.1,Win32,123.4567901,66fa4ebf79326e780c390304,,,,,,,,,,,,,,,,,,,,,584.4547,584.4548,584.456,585.2046,0,0,left,0.2335,,585.206,586.0291,1,0,right,586.0303,586.7875,1,0,right,1,586.7876,586.7876,586.7886,588.2872,0,29,29,29,1,0.8,0.2,0.6,0.4,,,,,,,,,,,,,,,0.3095,,0.6,0.4,0.4,0.6,0.2,0.8,0.6,0.4,,,0.2335,,0.6,0.4,0.8,0.2,0.4,0.6,0.4,0.6,1,0
,,5f1f459122764312bfbe265e,66fce0fc8cf72c0b23106580,2024-10-02_07h58.42.753,mdp,2024.2.1,Win32,123.4567901,66fa4ebf79326e780c390304,,,,,,,,,,,,,,,,,,,,,588.2876,588.2876,588.2887,588.9288,0,0,left,0.1253,,588.9299,589.6538,1,1,right,589.6549,590.4121,1,1,right,0,590.4121,590.4121,590.4132,591.9117,0,30,30,30,1,0.8,0.2,0.6,0.4,,,,,,,,,,,,,,,0.2092,,0.6,0.4,0.4,0.6,0.2,0.8,0.6,0.4,,,0.2338,,0.6,0.4,0.8,0.2,0.4,0.6,0.4,0.6,1,0
,,5f1f459122764312bfbe265e,66fce0fc8cf72c0b23106580,2024-10-02_07h58.42.753,mdp,2024.2.1,Win32,123.4567901,66fa4ebf79326e780c390304,,,,,,,,,,,,,,,,,,,,,591.9121,591.9122,591.9131,592.8115,0,0,left,0.3835,,592.8125,593.5284,1,1,right,593.5295,594.3115,1,1,right,0,594.3116,594.3116,594.3126,595.8112,0,31,31,31,1,0.8,0.2,0.6,0.4,,,,,,,,,,,,,,,0.2004,,0.6,0.4,0.4,0.6,0.2,0.8,0.6,0.4,,,0.2671,,0.6,0.4,0.8,0.2,0.4,0.6,0.4,0.6,1,0
,,5f1f459122764312bfbe265e,66fce0fc8cf72c0b23106580,2024-10-02_07h58.42.753,mdp,2024.2.1,Win32,123.4567901,66fa4ebf79326e780c390304,,,,,,,,,,,,,,,,,,,,,595.8118,595.8118,595.813,596.5862,0,0,left,0.2588,,596.5872,597.3528,1,1,right,597.3539,598.1612,1,1,right,0,598.1613,598.1613,598.1624,599.6606,0,32,32,32,1,0.8,0.2,0.6,0.4,,,,,,,,,,,,,,,0.2505,,0.6,0.4,0.4,0.6,0.2,0.8,0.6,0.4,,,0.292,,0.6,0.4,0.8,0.2,0.4,0.6,0.4,0.6,1,0
,,5f1f459122764312bfbe265e,66fce0fc8cf72c0b23106580,2024-10-02_07h58.42.753,mdp,2024.2.1,Win32,123.4567901,66fa4ebf79326e780c390304,,,,,,,,,,,,,,,,,,,,,599.6611,599.6611,599.6621,600.2855,0,0,left,0.1087,,600.2868,600.9606,1,1,right,600.9618,601.6606,1,0,right,1,601.6606,601.6607,601.6618,603.1601,0,33,33,33,1,0.8,0.2,0.6,0.4,,,,,,,,,,,,,,,0.1601,,0.6,0.4,0.4,0.6,0.2,0.8,0.6,0.4,,,0.1837,,0.6,0.4,0.8,0.2,0.4,0.6,0.4,0.6,1,0
,,5f1f459122764312bfbe265e,66fce0fc8cf72c0b23106580,2024-10-02_07h58.42.753,mdp,2024.2.1,Win32,123.4567901,66fa4ebf79326e780c390304,,,,,,,,,,,,,,,,,,,,,603.1606,603.1606,603.1618,603.9182,0,0,left,0.2446,,603.9194,604.6684,1,0,right,604.6696,605.4267,1,1,right,0,605.4268,605.4268,605.4281,606.926,0,34,34,34,1,0.8,0.2,0.6,0.4,,,,,,,,,,,,,,,0.2412,,0.6,0.4,0.4,0.6,0.2,0.8,0.6,0.4,,,0.2334,,0.6,0.4,0.8,0.2,0.4,0.6,0.4,0.6,1,0
,,5f1f459122764312bfbe265e,66fce0fc8cf72c0b23106580,2024-10-02_07h58.42.753,mdp,2024.2.1,Win32,123.4567901,66fa4ebf79326e780c390304,,,,,,,,,,,,,,,,,,,,,606.9265,606.9265,606.9277,607.6931,0,0,left,0.2503,,607.6941,608.4347,1,0,right,608.4359,609.1843,1,0,right,1,609.1846,609.1846,609.186,610.6841,0,35,35,35,1,0.8,0.2,0.6,0.4,,,,,,,,,,,,,,,0.2252,,0.6,0.4,0.4,0.6,0.2,0.8,0.6,0.4,,,0.2334,,0.6,0.4,0.8,0.2,0.4,0.6,0.4,0.6,1,0
,,5f1f459122764312bfbe265e,66fce0fc8cf72c0b23106580,2024-10-02_07h58.42.753,mdp,2024.2.1,Win32,123.4567901,66fa4ebf79326e780c390304,,,,,,,,,,,,,,,,,,,,,610.6846,610.6846,610.6856,611.4508,0,0,left,0.2529,,611.4522,612.267,1,1,right,612.2689,613.0006,1,0,right,1,613.0007,613.0007,613.002,614.5004,0,36,36,36,1,0.8,0.2,0.6,0.4,,,,,,,,,,,,,,,0.3017,,0.6,0.4,0.4,0.6,0.2,0.8,0.6,0.4,,,0.2085,,0.6,0.4,0.8,0.2,0.4,0.6,0.4,0.6,1,0
,,5f1f459122764312bfbe265e,66fce0fc8cf72c0b23106580,2024-10-02_07h58.42.753,mdp,2024.2.1,Win32,123.4567901,66fa4ebf79326e780c390304,,,,,,,,,,,,,,,,,,,,,614.5007,614.5007,614.5019,615.2587,0,1,left,0.242,,615.2598,615.9665,1,1,right,615.9679,616.6582,1,1,right,0,616.6583,616.6583,616.6595,618.1578,0,37,37,37,1,0.8,0.2,0.6,0.4,,,,,,,,,,,,,,,0.1842,,0.6,0.4,0.4,0.6,0.2,0.8,0.6,0.4,,,0.1856,,0.6,0.4,0.8,0.2,0.4,0.6,0.4,0.6,1,0
,,5f1f459122764312bfbe265e,66fce0fc8cf72c0b23106580,2024-10-02_07h58.42.753,mdp,2024.2.1,Win32,123.4567901,66fa4ebf79326e780c390304,,,,,,,,,,,,,,,,,,,,,618.1584,618.1584,618.16,618.9331,0,0,left,0.2585,,618.9349,619.633,1,0,right,619.6342,620.2827,1,1,right,0,620.2828,620.2828,620.2839,621.7826,0,38,38,38,1,0.8,0.2,0.6,0.4,,,,,,,,,,,,,,,0.1755,,0.4,0.6,0.8,0.2,0.2,0.8,0.6,0.4,,,0.126,,0.6,0.4,0.8,0.2,0.4,0.6,0.4,0.6,1,0
,,5f1f459122764312bfbe265e,66fce0fc8cf72c0b23106580,2024-10-02_07h58.42.753,mdp,2024.2.1,Win32,123.4567901,66fa4ebf79326e780c390304,,,,,,,,,,,,,,,,,,,,,621.783,621.783,621.784,622.8077,0,0,left,0.5084,,622.8087,623.5409,1,0,right,623.542,624.3075,1,1,right,0,624.3076,624.3076,624.3087,625.8071,0,39,39,39,1,0.8,0.2,0.6,0.4,,,,,,,,,,,,,,,0.2169,,0.4,0.6,0.8,0.2,0.2,0.8,0.6,0.4,,,0.2505,,0.6,0.4,0.8,0.2,0.4,0.6,0.4,0.6,1,0
,,5f1f459122764312bfbe265e,66fce0fc8cf72c0b23106580,2024-10-02_07h58.42.753,mdp,2024.2.1,Win32,123.4567901,66fa4ebf79326e780c390304,,,,,,,,,,,,,,,,,,,,,625.8076,625.8077,625.8088,626.5406,0,0,left,0.2172,,626.5418,627.2151,1,0,right,627.2162,627.8983,1,0,right,1,627.8984,627.8984,627.8996,629.3983,0,40,40,40,1,0.8,0.2,0.6,0.4,,,,,,,,,,,,,,,0.1603,,0.4,0.6,0.8,0.2,0.2,0.8,0.6,0.4,,,0.1754,,0.6,0.4,0.8,0.2,0.4,0.6,0.4,0.6,1,0
,,5f1f459122764312bfbe265e,66fce0fc8cf72c0b23106580,2024-10-02_07h58.42.753,mdp,2024.2.1,Win32,123.4567901,66fa4ebf79326e780c390304,,,,,,,,,,,,,,,,,,,,,629.3988,629.3988,629.4,630.1401,0,0,left,0.2254,,630.1414,630.8315,1,1,right,630.8327,631.5982,1,0,right,1,631.5983,631.5983,631.5994,633.0978,0,41,41,41,1,0.8,0.2,0.6,0.4,,,,,,,,,,,,,,,0.1762,,0.4,0.6,0.8,0.2,0.2,0.8,0.6,0.4,,,0.2417,,0.6,0.4,0.8,0.2,0.4,0.6,0.4,0.6,1,0
,,5f1f459122764312bfbe265e,66fce0fc8cf72c0b23106580,2024-10-02_07h58.42.753,mdp,2024.2.1,Win32,123.4567901,66fa4ebf79326e780c390304,,,,,,,,,,,,,,,,,,,,,633.0982,633.0982,633.0992,634.0311,0,0,left,0.4169,,634.0322,634.7891,1,0,right,634.7903,635.5308,1,0,right,1,635.5308,635.5308,635.5321,637.0306,0,42,42,42,1,0.8,0.2,0.6,0.4,,,,,,,,,,,,,,,0.2419,,0.4,0.6,0.8,0.2,0.2,0.8,0.6,0.4,,,0.2267,,0.6,0.4,0.8,0.2,0.4,0.6,0.4,0.6,1,0
,,5f1f459122764312bfbe265e,66fce0fc8cf72c0b23106580,2024-10-02_07h58.42.753,mdp,2024.2.1,Win32,123.4567901,66fa4ebf79326e780c390304,,,,,,,,,,,,,,,,,,,,,637.0312,637.0312,637.0324,638.0305,0,0,left,0.4855,,638.0316,638.6802,1,0,right,638.6813,639.2971,1,0,right,1,639.2971,639.2971,639.2983,640.7968,0,43,43,43,1,0.8,0.2,0.6,0.4,,,,,,,,,,,,,,,0.1346,,0.4,0.6,0.8,0.2,0.2,0.8,0.6,0.4,,,0.1001,,0.6,0.4,0.8,0.2,0.4,0.6,0.4,0.6,1,0
,,5f1f459122764312bfbe265e,66fce0fc8cf72c0b23106580,2024-10-02_07h58.42.753,mdp,2024.2.1,Win32,123.4567901,66fa4ebf79326e780c390304,,,,,,,,,,,,,,,,,,,,,640.7973,640.7973,640.7984,641.3383,0,0,left,0.025,,641.3395,641.9218,1,0,right,641.9227,642.4714,1,0,right,1,642.4715,642.4715,642.4729,643.9714,0,44,44,44,1,0.8,0.2,0.6,0.4,,,,,,,,,,,,,,,0.0668,,0.4,0.6,0.8,0.2,0.8,0.2,0.2,0.8,,,0.0338,,0.6,0.4,0.8,0.2,0.4,0.6,0.4,0.6,1,0
,,5f1f459122764312bfbe265e,66fce0fc8cf72c0b23106580,2024-10-02_07h58.42.753,mdp,2024.2.1,Win32,123.4567901,66fa4ebf79326e780c390304,,,,,,,,,,,,,,,,,,,,,643.9717,643.9718,643.9727,644.7214,0,0,left,0.2349,,644.7227,645.3543,1,0,right,645.3556,645.8962,1,0,right,1,645.8962,645.8962,645.8975,647.3959,0,45,45,45,1,0.8,0.2,0.6,0.4,,,,,,,,,,,,,,,0.1191,,0.4,0.6,0.8,0.2,0.8,0.2,0.2,0.8,,,0.0256,,0.6,0.4,0.8,0.2,0.4,0.6,0.4,0.6,1,0
,,5f1f459122764312bfbe265e,66fce0fc8cf72c0b23106580,2024-10-02_07h58.42.753,mdp,2024.2.1,Win32,123.4567901,66fa4ebf79326e780c390304,,,,,,,,,,,,,,,,,,,,,647.3962,647.3962,647.3973,648.1709,0,0,left,0.2589,,648.1719,648.7455,1,0,right,648.7469,649.3539,1,0,right,1,649.354,649.354,649.355,650.8537,0,46,46,46,1,0.8,0.2,0.6,0.4,,,,,,,,,,,,,,,0.0585,,0.4,0.6,0.8,0.2,0.8,0.2,0.2,0.8,,,0.0919,,0.6,0.4,0.8,0.2,0.4,0.6,0.4,0.6,1,0
,,5f1f459122764312bfbe265e,66fce0fc8cf72c0b23106580,2024-10-02_07h58.42.753,mdp,2024.2.1,Win32,123.4567901,66fa4ebf79326e780c390304,,,,,,,,,,,,,,,,,,,,,650.854,650.8541,650.8551,651.612,0,0,left,0.2429,,651.6131,652.27,1,0,right,652.2709,652.8286,1,0,right,1,652.8287,652.8287,652.8298,654.3282,0,47,47,47,1,0.8,0.2,0.6,0.4,,,,,,,,,,,,,,,0.1445,,0.4,0.6,0.8,0.2,0.8,0.2,0.2,0.8,,,0.0502,,0.6,0.4,0.8,0.2,0.4,0.6,0.4,0.6,1,0
,,5f1f459122764312bfbe265e,66fce0fc8cf72c0b23106580,2024-10-02_07h58.42.753,mdp,2024.2.1,Win32,123.4567901,66fa4ebf79326e780c390304,,,,,,,,,,,,,,,,,,,,,654.3287,654.3287,654.3302,655.0449,0,0,left,0.2002,,655.0462,655.6366,1,0,right,655.6376,656.2029,1,0,right,1,656.2029,656.2029,656.204,657.7026,0,48,48,48,1,0.8,0.2,0.6,0.4,,,,,,,,,,,,,,,0.0751,,0.4,0.6,0.8,0.2,0.8,0.2,0.2,0.8,,,0.0503,,0.6,0.4,0.8,0.2,0.4,0.6,0.4,0.6,1,0
,,5f1f459122764312bfbe265e,66fce0fc8cf72c0b23106580,2024-10-02_07h58.42.753,mdp,2024.2.1,Win32,123.4567901,66fa4ebf79326e780c390304,,,,,,,,,,,,,,,,,,,,,657.7029,657.7029,657.7042,658.4692,0,0,left,0.2503,,658.4704,659.1025,1,0,right,659.1039,659.9026,1,0,right,1,659.9027,659.9027,659.9037,661.4023,0,49,49,49,1,0.8,0.2,0.6,0.4,,,,,,,,,,,,,,,0.1167,,0.4,0.6,0.8,0.2,0.8,0.2,0.2,0.8,,,0.2922,,0.6,0.4,0.8,0.2,0.4,0.6,0.4,0.6,1,0
,,5f1f459122764312bfbe265e,66fce0fc8cf72c0b23106580,2024-10-02_07h58.42.753,mdp,2024.2.1,Win32,123.4567901,66fa4ebf79326e780c390304,,,,,,,,,,,,,,,,,,,,,,,,,,,,,,,,,,,,,,,,,,,,,,,,,,,,,,,,661.4026,719.9108,0,2,2,4,1,imgs/rabbit.png,imgs/squirrel.png,imgs/dog.png,imgs/elephant.png,imgs/giraffe.png,,,,,,,,,,,,,,,,,,,,,,,,
,,5f1f459122764312bfbe265e,66fce0fc8cf72c0b23106580,2024-10-02_07h58.42.753,mdp,2024.2.1,Win32,123.4567901,66fa4ebf79326e780c390304,,,,,,,,,,,,,,3,seqs/st3seq32.csv,719.9114,728.5017,space,8.0744,,728.5057,728.5057,728.5062,729.7016,0,1,left,0.6781,,729.7027,730.5596,1,0,right,730.5609,731.5262,1,1,right,0,731.5263,731.5263,731.5273,733.0259,0,0,0,0,1,0.4,0.6,0.6,0.4,,,,,,,,,,,,,,,0.3336,,0.2,0.8,0.8,0.2,0.6,0.4,0.8,0.2,,,0.4429,,0.6,0.4,0.2,0.8,0.4,0.6,0.6,0.4,1,0
,,5f1f459122764312bfbe265e,66fce0fc8cf72c0b23106580,2024-10-02_07h58.42.753,mdp,2024.2.1,Win32,123.4567901,66fa4ebf79326e780c390304,,,,,,,,,,,,,,,,,,,,,733.0264,733.0264,733.0273,734.5087,1,0,right,0.9695,,734.51,735.5921,0,1,left,735.5942,736.509,0,1,left,0,736.5091,736.5091,736.5101,738.0086,0,1,1,1,1,0.4,0.6,0.6,0.4,,,,,,,,,,,,,,,0.5682,,0.2,0.8,0.8,0.2,0.6,0.4,0.8,0.2,,,0.3922,,0.6,0.4,0.2,0.8,0.4,0.6,0.6,0.4,1,0
,,5f1f459122764312bfbe265e,66fce0fc8cf72c0b23106580,2024-10-02_07h58.42.753,mdp,2024.2.1,Win32,123.4567901,66fa4ebf79326e780c390304,,,,,,,,,,,,,,,,,,,,,738.0089,738.0089,738.0099,739.0002,1,1,right,0.4749,,739.0013,740.083,1,0,right,740.0843,741.108,1,0,right,1,741.108,741.108,741.1093,742.6079,0,2,2,2,1,0.4,0.6,0.6,0.4,,,,,,,,,,,,,,,0.5585,,0.2,0.8,0.8,0.2,0.6,0.4,0.8,0.2,,,0.5003,,0.2,0.8,0.4,0.6,0.4,0.6,0.6,0.4,1,0
,,5f1f459122764312bfbe265e,66fce0fc8cf72c0b23106580,2024-10-02_07h58.42.753,mdp,2024.2.1,Win32,123.4567901,66fa4ebf79326e780c390304,,,,,,,,,,,,,,,,,,,,,742.6086,742.6086,742.61,743.3998,1,1,right,0.2749,,743.4015,744.3074,1,0,right,744.309,745.1245,1,1,right,0,745.1246,745.1247,745.1262,746.6243,0,3,3,3,1,0.4,0.6,0.6,0.4,,,,,,,,,,,,,,,0.394,,0.2,0.8,0.8,0.2,0.6,0.4,0.8,0.2,,,0.3088,,0.2,0.8,0.4,0.6,0.4,0.6,0.6,0.4,1,0
,,5f1f459122764312bfbe265e,66fce0fc8cf72c0b23106580,2024-10-02_07h58.42.753,mdp,2024.2.1,Win32,123.4567901,66fa4ebf79326e780c390304,,,,,,,,,,,,,,,,,,,,,746.6247,746.6247,746.6257,747.4074,1,0,right,0.267,,747.4085,748.4653,1,0,right,748.4663,749.7486,0,1,left,0,749.7488,749.7488,749.7502,751.2485,0,4,4,4,1,0.4,0.6,0.6,0.4,,,,,,,,,,,,,,,0.5362,,0.2,0.8,0.8,0.2,0.6,0.4,0.8,0.2,,,0.7666,,0.2,0.8,0.4,0.6,0.4,0.6,0.6,0.4,1,0
,,5f1f459122764312bfbe265e,66fce0fc8cf72c0b23106580,2024-10-02_07h58.42.753,mdp,2024.2.1,Win32,123.4567901,66fa4ebf79326e780c390304,,,,,,,,,,,,,,,,,,,,,751.2488,751.2488,751.2499,752.1567,1,0,right,0.3917,,752.1578,753.39,1,0,right,753.391,754.2481,1,1,right,0,754.2482,754.2482,754.2495,755.7479,0,5,5,5,1,0.4,0.6,0.6,0.4,,,,,,,,,,,,,,,0.7168,,0.2,0.8,0.8,0.2,0.6,0.4,0.8,0.2,,,0.3416,,0.2,0.8,0.4,0.6,0.4,0.6,0.6,0.4,1,0
,,5f1f459122764312bfbe265e,66fce0fc8cf72c0b23106580,2024-10-02_07h58.42.753,mdp,2024.2.1,Win32,123.4567901,66fa4ebf79326e780c390304,,,,,,,,,,,,,,,,,,,,,755.7483,755.7483,755.7493,756.6143,1,1,right,0.3515,,756.6153,757.5144,0,0,left,757.5154,758.3557,0,1,left,0,758.3558,758.3558,758.357,759.8556,0,6,6,6,1,0.4,0.6,0.6,0.4,,,,,,,,,,,,,,,0.3753,,0.2,0.8,0.8,0.2,0.6,0.4,0.8,0.2,,,0.3277,,0.2,0.8,0.4,0.6,0.4,0.6,0.6,0.4,1,0
,,5f1f459122764312bfbe265e,66fce0fc8cf72c0b23106580,2024-10-02_07h58.42.753,mdp,2024.2.1,Win32,123.4567901,66fa4ebf79326e780c390304,,,,,,,,,,,,,,,,,,,,,759.856,759.8561,759.857,760.6057,0,1,left,0.2336,,760.6068,761.3807,1,0,right,761.3817,762.0971,1,1,right,0,762.0972,762.0972,762.0983,763.5967,0,7,7,7,1,0.4,0.6,0.6,0.4,,,,,,,,,,,,,,,0.2586,,0.2,0.8,0.8,0.2,0.6,0.4,0.8,0.2,,,0.2001,,0.2,0.8,0.4,0.6,0.4,0.6,0.6,0.4,1,0
,,5f1f459122764312bfbe265e,66fce0fc8cf72c0b23106580,2024-10-02_07h58.42.753,mdp,2024.2.1,Win32,123.4567901,66fa4ebf79326e780c390304,,,,,,,,,,,,,,,,,,,,,763.5971,763.5971,763.5981,764.3635,0,1,left,0.2505,,764.3645,765.3132,1,0,right,765.3145,766.0717,0,0,left,1,766.0717,766.0718,766.0729,767.5712,0,8,8,8,1,0.4,0.6,0.6,0.4,,,,,,,,,,,,,,,0.4354,,0.2,0.8,0.8,0.2,0.6,0.4,0.8,0.2,,,0.2419,,0.2,0.8,0.4,0.6,0.4,0.6,0.6,0.4,1,0
,,5f1f459122764312bfbe265e,66fce0fc8cf72c0b23106580,2024-10-02_07h58.42.753,mdp,2024.2.1,Win32,123.4567901,66fa4ebf79326e780c390304,,,,,,,,,,,,,,,,,,,,,767.5718,767.5718,767.5728,768.3627,0,1,left,0.2764,,768.3639,769.1043,1,0,right,769.1054,769.7543,0,1,left,0,769.7543,769.7543,769.7556,771.2541,0,9,9,9,1,0.4,0.6,0.6,0.4,,,,,,,,,,,,,,,0.225,,0.2,0.8,0.8,0.2,0.6,0.4,0.8,0.2,,,0.1363,,0.2,0.8,0.4,0.6,0.4,0.6,0.6,0.4,1,0
,,5f1f459122764312bfbe265e,66fce0fc8cf72c0b23106580,2024-10-02_07h58.42.753,mdp,2024.2.1,Win32,123.4567901,66fa4ebf79326e780c390304,,,,,,,,,,,,,,,,,,,,,771.2546,771.2546,771.2557,772.0625,1,1,right,0.2919,,772.0637,772.7541,1,0,right,772.7553,773.429,1,0,right,1,773.4291,773.4291,773.4307,774.9286,0,10,10,10,1,0.4,0.6,0.6,0.4,,,,,,,,,,,,,,,0.1768,,0.2,0.8,0.8,0.2,0.6,0.4,0.8,0.2,,,0.1585,,0.2,0.8,0.4,0.6,0.4,0.6,0.6,0.4,1,0
,,5f1f459122764312bfbe265e,66fce0fc8cf72c0b23106580,2024-10-02_07h58.42.753,mdp,2024.2.1,Win32,123.4567901,66fa4ebf79326e780c390304,,,,,,,,,,,,,,,,,,,,,774.9291,774.9291,774.9304,775.9704,1,0,right,0.5251,,775.9717,776.9451,0,1,left,776.9462,777.6615,1,1,right,0,777.6615,777.6615,777.6627,779.1612,0,11,11,11,1,0.4,0.6,0.6,0.4,,,,,,,,,,,,,,,0.45,,0.2,0.8,0.8,0.2,0.6,0.4,0.8,0.2,,,0.1928,,0.2,0.8,0.4,0.6,0.4,0.6,0.6,0.4,1,0
,,5f1f459122764312bfbe265e,66fce0fc8cf72c0b23106580,2024-10-02_07h58.42.753,mdp,2024.2.1,Win32,123.4567901,66fa4ebf79326e780c390304,,,,,,,,,,,,,,,,,,,,,779.1616,779.1616,779.1627,780.0697,1,0,right,0.3918,,780.0708,780.8364,0,1,left,780.8376,781.5447,0,1,left,0,781.5448,781.5448,781.5459,783.0442,0,12,12,12,1,0.4,0.6,0.6,0.4,,,,,,,,,,,,,,,0.2503,,0.2,0.8,0.8,0.2,0.6,0.4,0.8,0.2,,,0.192,,0.2,0.8,0.4,0.6,0.4,0.6,0.6,0.4,1,0
,,5f1f459122764312bfbe265e,66fce0fc8cf72c0b23106580,2024-10-02_07h58.42.753,mdp,2024.2.1,Win32,123.4567901,66fa4ebf79326e780c390304,,,,,,,,,,,,,,,,,,,,,783.0448,783.0448,783.046,783.7691,0,0,left,0.2092,,783.7703,784.6692,1,0,right,784.6702,785.4107,1,0,right,1,785.4109,785.4109,785.4123,786.9102,0,13,13,13,1,0.4,0.6,0.6,0.4,,,,,,,,,,,,,,,0.3837,,0.2,0.8,0.8,0.2,0.6,0.4,0.8,0.2,,,0.2171,,0.2,0.8,0.4,0.6,0.4,0.6,0.6,0.4,1,0
,,5f1f459122764312bfbe265e,66fce0fc8cf72c0b23106580,2024-10-02_07h58.42.753,mdp,2024.2.1,Win32,123.4567901,66fa4ebf79326e780c390304,,,,,,,,,,,,,,,,,,,,,786.9107,786.9107,786.9116,787.6521,0,0,left,0.225,,787.653,788.3766,1,0,right,788.3777,789.0602,1,1,right,0,789.0603,789.0603,789.0616,790.5596,0,14,14,14,1,0.4,0.6,0.6,0.4,,,,,,,,,,,,,,,0.2115,,0.2,0.8,0.8,0.2,0.6,0.4,0.8,0.2,,,0.1764,,0.2,0.8,0.4,0.6,0.4,0.6,0.6,0.4,1,0
,,5f1f459122764312bfbe265e,66fce0fc8cf72c0b23106580,2024-10-02_07h58.42.753,mdp,2024.2.1,Win32,123.4567901,66fa4ebf79326e780c390304,,,,,,,,,,,,,,,,,,,,,790.56,790.56,790.5611,791.3599,0,0,left,0.2834,,791.361,792.1514,0,1,left,792.1526,792.8428,1,0,right,1,792.8429,792.8429,792.844,794.3426,0,15,15,15,1,0.4,0.6,0.6,0.4,,,,,,,,,,,,,,,0.2754,,0.2,0.8,0.8,0.2,0.6,0.4,0.8,0.2,,,0.1668,,0.2,0.8,0.4,0.6,0.4,0.6,0.6,0.4,1,0
,,5f1f459122764312bfbe265e,66fce0fc8cf72c0b23106580,2024-10-02_07h58.42.753,mdp,2024.2.1,Win32,123.4567901,66fa4ebf79326e780c390304,,,,,,,,,,,,,,,,,,,,,794.3429,794.3429,794.3439,795.0675,0,1,left,0.2086,,795.0692,795.826,0,1,left,795.8274,796.5258,1,0,right,1,796.5259,796.5259,796.527,798.0253,0,16,16,16,1,0.4,0.6,0.6,0.4,,,,,,,,,,,,,,,0.2352,,0.2,0.8,0.8,0.2,0.6,0.4,0.8,0.2,,,0.1835,,0.8,0.2,0.2,0.8,0.4,0.6,0.6,0.4,1,0
,,5f1f459122764312bfbe265e,66fce0fc8cf72c0b23106580,2024-10-02_07h58.42.753,mdp,2024.2.1,Win32,123.4567901,66fa4ebf79326e780c390304,,,,,,,,,,,,,,,,,,,,,798.0257,798.0257,798.0266,798.7588,0,1,left,0.2172,,798.7603,799.4752,0,1,left,799.4762,800.1585,1,0,right,1,800.1586,800.1586,800.1596,801.6584,0,17,17,17,1,0.4,0.6,0.6,0.4,,,,,,,,,,,,,,,0.2026,,0.2,0.8,0.8,0.2,0.6,0.4,0.8,0.2,,,0.1668,,0.8,0.2,0.2,0.8,0.4,0.6,0.6,0.4,1,0
,,5f1f459122764312bfbe265e,66fce0fc8cf72c0b23106580,2024-10-02_07h58.42.753,mdp,2024.2.1,Win32,123.4567901,66fa4ebf79326e780c390304,,,,,,,,,,,,,,,,,,,,,801.6588,801.6588,801.6598,802.4167,0,1,left,0.243,,802.4178,803.1166,0,0,left,803.1176,803.8494,1,1,right,0,803.8494,803.8494,803.8506,805.3495,0,18,18,18,1,0.4,0.6,0.6,0.4,,,,,,,,,,,,,,,0.1837,,0.2,0.8,0.8,0.2,0.6,0.4,0.8,0.2,,,0.2109,,0.8,0.2,0.2,0.8,0.4,0.6,0.6,0.4,1,0
,,5f1f459122764312bfbe265e,66fce0fc8cf72c0b23106580,2024-10-02_07h58.42.753,mdp,2024.2.1,Win32,123.4567901,66fa4ebf79326e780c390304,,,,,,,,,,,,,,,,,,,,,805.3499,805.3499,805.3511,806.0579,0,1,left,0.1917,,806.0591,806.7162,0,0,left,806.7172,807.3827,1,1,right,0,807.3827,807.3827,807.3839,808.8823,0,19,19,19,1,0.4,0.6,0.6,0.4,,,,,,,,,,,,,,,0.1421,,0.2,0.8,0.8,0.2,0.6,0.4,0.8,0.2,,,0.1506,,0.8,0.2,0.2,0.8,0.4,0.6,0.6,0.4,1,0
,,5f1f459122764312bfbe265e,66fce0fc8cf72c0b23106580,2024-10-02_07h58.42.753,mdp,2024.2.1,Win32,123.4567901,66fa4ebf79326e780c390304,,,,,,,,,,,,,,,,,,,,,808.8827,808.8827,808.8837,809.6237,0,1,left,0.2277,,809.6249,810.3156,0,0,left,810.3166,810.9822,0,0,left,1,810.9822,810.9822,810.9833,812.4816,0,20,20,20,1,0.8,0.2,0.2,0.8,,,,,,,,,,,,,,,0.1837,,0.2,0.8,0.8,0.2,0.6,0.4,0.8,0.2,,,0.1501,,0.8,0.2,0.2,0.8,0.4,0.6,0.6,0.4,1,0
,,5f1f459122764312bfbe265e,66fce0fc8cf72c0b23106580,2024-10-02_07h58.42.753,mdp,2024.2.1,Win32,123.4567901,66fa4ebf79326e780c390304,,,,,,,,,,,,,,,,,,,,,812.4821,812.4821,812.4832,813.115,0,1,left,0.1194,,813.116,813.8068,0,1,left,813.808,814.4648,0,1,left,0,814.4649,814.4649,814.466,815.9647,0,21,21,21,1,0.8,0.2,0.2,0.8,,,,,,,,,,,,,,,0.184,,0.2,0.8,0.8,0.2,0.6,0.4,0.8,0.2,,,0.1333,,0.8,0.2,0.2,0.8,0.4,0.6,0.6,0.4,1,0
,,5f1f459122764312bfbe265e,66fce0fc8cf72c0b23106580,2024-10-02_07h58.42.753,mdp,2024.2.1,Win32,123.4567901,66fa4ebf79326e780c390304,,,,,,,,,,,,,,,,,,,,,815.9651,815.9652,815.9662,816.6648,0,0,left,0.1833,,816.6658,817.3894,0,1,left,817.3905,818.2313,1,0,right,1,818.2313,818.2313,818.2323,819.7309,0,22,22,22,1,0.8,0.2,0.2,0.8,,,,,,,,,,,,,,,0.2,,0.2,0.8,0.8,0.2,0.6,0.4,0.8,0.2,,,0.3254,,0.8,0.2,0.2,0.8,0.4,0.6,0.6,0.4,1,0
,,5f1f459122764312bfbe265e,66fce0fc8cf72c0b23106580,2024-10-02_07h58.42.753,mdp,2024.2.1,Win32,123.4567901,66fa4ebf79326e780c390304,,,,,,,,,,,,,,,,,,,,,819.7313,819.7313,819.7323,820.4476,0,0,left,0.2,,820.4487,821.1722,0,1,left,821.1732,822.0388,1,0,right,1,822.0388,822.0388,822.04,823.5388,0,23,23,23,1,0.8,0.2,0.2,0.8,,,,,,,,,,,,,,,0.2085,,0.2,0.8,0.8,0.2,0.6,0.4,0.8,0.2,,,0.3582,,0.8,0.2,0.2,0.8,0.4,0.6,0.6,0.4,1,0
,,5f1f459122764312bfbe265e,66fce0fc8cf72c0b23106580,2024-10-02_07h58.42.753,mdp,2024.2.1,Win32,123.4567901,66fa4ebf79326e780c390304,,,,,,,,,,,,,,,,,,,,,823.5393,823.5393,823.5403,824.2052,0,0,left,0.1522,,824.2065,824.9219,0,1,left,824.9232,825.7386,1,1,right,0,825.7387,825.7387,825.7397,827.2382,0,24,24,24,1,0.8,0.2,0.2,0.8,,,,,,,,,,,,,,,0.2022,,0.2,0.8,0.8,0.2,0.6,0.4,0.8,0.2,,,0.3002,,0.8,0.2,0.2,0.8,0.4,0.6,0.6,0.4,1,0
,,5f1f459122764312bfbe265e,66fce0fc8cf72c0b23106580,2024-10-02_07h58.42.753,mdp,2024.2.1,Win32,123.4567901,66fa4ebf79326e780c390304,,,,,,,,,,,,,,,,,,,,,827.2386,827.2386,827.2398,827.9547,0,0,left,0.2001,,827.956,828.7711,0,0,left,828.7721,829.7459,0,0,left,1,829.7459,829.7459,829.747,831.246,0,25,25,25,1,0.8,0.2,0.2,0.8,,,,,,,,,,,,,,,0.3004,,0.2,0.8,0.8,0.2,0.8,0.2,0.2,0.8,,,0.4609,,0.8,0.2,0.2,0.8,0.4,0.6,0.6,0.4,1,0
,,5f1f459122764312bfbe265e,66fce0fc8cf72c0b23106580,2024-10-02_07h58.42.753,mdp,2024.2.1,Win32,123.4567901,66fa4ebf79326e780c390304,,,,,,,,,,,,,,,,,,,,,831.2464,831.2464,831.2474,832.0127,0,0,left,0.251,,832.0138,832.7126,0,1,left,832.7139,833.5039,1,1,right,0,833.5039,833.5039,833.505,835.0039,0,26,26,26,1,0.8,0.2,0.2,0.8,,,,,,,,,,,,,,,0.1842,,0.2,0.8,0.8,0.2,0.8,0.2,0.2,0.8,,,0.2674,,0.8,0.2,0.2,0.8,0.4,0.6,0.6,0.4,1,0
,,5f1f459122764312bfbe265e,66fce0fc8cf72c0b23106580,2024-10-02_07h58.42.753,mdp,2024.2.1,Win32,123.4567901,66fa4ebf79326e780c390304,,,,,,,,,,,,,,,,,,,,,835.0044,835.0044,835.0055,835.7206,0,0,left,0.2005,,835.7217,836.4619,0,1,left,836.4631,837.312,0,1,left,0,837.312,837.312,837.3131,838.8116,0,27,27,27,1,0.4,0.6,0.6,0.4,,,,,,,,,,,,,,,0.2251,,0.2,0.8,0.8,0.2,0.8,0.2,0.2,0.8,,,0.3333,,0.8,0.2,0.2,0.8,0.4,0.6,0.6,0.4,1,0
,,5f1f459122764312bfbe265e,66fce0fc8cf72c0b23106580,2024-10-02_07h58.42.753,mdp,2024.2.1,Win32,123.4567901,66fa4ebf79326e780c390304,,,,,,,,,,,,,,,,,,,,,838.812,838.812,838.813,839.5697,0,1,left,0.2424,,839.571,840.2948,0,0,left,840.2958,841.4028,1,0,right,1,841.4029,841.4029,841.4039,842.9026,0,28,28,28,1,0.4,0.6,0.6,0.4,,,,,,,,,,,,,,,0.2003,,0.2,0.8,0.8,0.2,0.8,0.2,0.2,0.8,,,0.5858,,0.8,0.2,0.2,0.8,0.4,0.6,0.6,0.4,1,0
,,5f1f459122764312bfbe265e,66fce0fc8cf72c0b23106580,2024-10-02_07h58.42.753,mdp,2024.2.1,Win32,123.4567901,66fa4ebf79326e780c390304,,,,,,,,,,,,,,,,,,,,,842.903,842.903,842.904,843.6443,0,1,left,0.2251,,843.6455,844.3859,0,1,left,844.3872,845.3857,1,1,right,0,845.3858,845.3858,845.3871,846.8853,0,29,29,29,1,0.4,0.6,0.6,0.4,,,,,,,,,,,,,,,0.225,,0.2,0.8,0.8,0.2,0.8,0.2,0.2,0.8,,,0.4767,,0.8,0.2,0.2,0.8,0.4,0.6,0.6,0.4,1,0
,,5f1f459122764312bfbe265e,66fce0fc8cf72c0b23106580,2024-10-02_07h58.42.753,mdp,2024.2.1,Win32,123.4567901,66fa4ebf79326e780c390304,,,,,,,,,,,,,,,,,,,,,846.8857,846.8858,846.8869,847.8603,0,1,left,0.4596,,847.8615,848.5102,0,0,left,848.5113,849.4104,1,1,right,0,849.4105,849.4105,849.4121,850.9102,0,30,30,30,1,0.4,0.6,0.6,0.4,,,,,,,,,,,,,,,0.1332,,0.2,0.8,0.8,0.2,0.8,0.2,0.2,0.8,,,0.3752,,0.8,0.2,0.2,0.8,0.4,0.6,0.6,0.4,1,0
,,5f1f459122764312bfbe265e,66fce0fc8cf72c0b23106580,2024-10-02_07h58.42.753,mdp,2024.2.1,Win32,123.4567901,66fa4ebf79326e780c390304,,,,,,,,,,,,,,,,,,,,,850.9108,850.9108,850.9118,851.6267,0,1,left,0.2,,851.6279,852.26,0,0,left,852.2611,853.1761,0,0,left,1,853.1761,853.1761,853.1772,854.6762,0,31,31,31,1,0.4,0.6,0.6,0.4,,,,,,,,,,,,,,,0.1173,,0.2,0.8,0.8,0.2,0.8,0.2,0.2,0.8,,,0.4027,,0.8,0.2,0.2,0.8,0.4,0.6,0.6,0.4,1,0
,,5f1f459122764312bfbe265e,66fce0fc8cf72c0b23106580,2024-10-02_07h58.42.753,mdp,2024.2.1,Win32,123.4567901,66fa4ebf79326e780c390304,,,,,,,,,,,,,,,,,,,,,854.6766,854.6766,854.6776,855.2514,0,0,left,0.0586,,855.2526,855.8928,0,1,left,855.8936,856.7342,0,1,left,0,856.7343,856.7343,856.7351,858.2338,0,32,32,32,1,0.4,0.6,0.6,0.4,,,,,,,,,,,,,,,0.1234,,0.2,0.8,0.8,0.2,0.8,0.2,0.2,0.8,,,0.3237,,0.8,0.2,0.2,0.8,0.4,0.6,0.6,0.4,1,0
,,5f1f459122764312bfbe265e,66fce0fc8cf72c0b23106580,2024-10-02_07h58.42.753,mdp,2024.2.1,Win32,123.4567901,66fa4ebf79326e780c390304,,,,,,,,,,,,,,,,,,,,,858.2341,858.2341,858.2347,859.0419,0,1,left,0.2915,,859.0425,859.6836,0,0,left,859.6842,860.5755,0,0,left,1,860.5756,860.5756,860.5764,862.0751,0,33,33,33,1,0.4,0.6,0.6,0.4,,,,,,,,,,,,,,,0.1327,,0.2,0.8,0.8,0.2,0.8,0.2,0.2,0.8,,,0.3746,,0.4,0.6,0.4,0.6,0.4,0.6,0.6,0.4,1,0
,,5f1f459122764312bfbe265e,66fce0fc8cf72c0b23106580,2024-10-02_07h58.42.753,mdp,2024.2.1,Win32,123.4567901,66fa4ebf79326e780c390304,,,,,,,,,,,,,,,,,,,,,862.0755,862.0755,862.0762,862.7967,0,1,left,0.2083,,862.7972,863.5302,0,0,left,863.5306,864.555,0,1,left,0,864.555,864.555,864.5557,866.0546,0,34,34,34,1,0.4,0.6,0.6,0.4,,,,,,,,,,,,,,,0.2169,,0.2,0.8,0.8,0.2,0.8,0.2,0.2,0.8,,,0.5083,,0.4,0.6,0.4,0.6,0.4,0.6,0.6,0.4,1,0
,,5f1f459122764312bfbe265e,66fce0fc8cf72c0b23106580,2024-10-02_07h58.42.753,mdp,2024.2.1,Win32,123.4567901,66fa4ebf79326e780c390304,,,,,,,,,,,,,,,,,,,,,866.0548,866.0548,866.0551,866.8128,0,1,left,0.2421,,866.8132,867.5544,0,0,left,867.5548,868.4375,0,1,left,0,868.4375,868.4375,868.4379,869.9376,0,35,35,35,1,0.4,0.6,0.6,0.4,,,,,,,,,,,,,,,0.2253,,0.2,0.8,0.8,0.2,0.8,0.2,0.2,0.8,,,0.3668,,0.4,0.6,0.4,0.6,0.4,0.6,0.6,0.4,1,0
,,5f1f459122764312bfbe265e,66fce0fc8cf72c0b23106580,2024-10-02_07h58.42.753,mdp,2024.2.1,Win32,123.4567901,66fa4ebf79326e780c390304,,,,,,,,,,,,,,,,,,,,,869.9378,869.9378,869.9382,870.696,0,1,left,0.242,,870.6964,871.4457,0,0,left,871.4462,872.2956,0,1,left,0,872.2956,872.2956,872.2961,873.7951,0,36,36,36,1,0.4,0.6,0.6,0.4,,,,,,,,,,,,,,,0.2335,,0.2,0.8,0.8,0.2,0.8,0.2,0.2,0.8,,,0.3335,,0.4,0.6,0.4,0.6,0.4,0.6,0.6,0.4,1,0
,,5f1f459122764312bfbe265e,66fce0fc8cf72c0b23106580,2024-10-02_07h58.42.753,mdp,2024.2.1,Win32,123.4567901,66fa4ebf79326e780c390304,,,,,,,,,,,,,,,,,,,,,873.7953,873.7953,873.7958,874.5534,0,1,left,0.2417,,874.5538,875.337,0,0,left,875.338,876.2285,0,0,left,1,876.2285,876.2285,876.229,877.7278,0,37,37,37,1,0.4,0.6,0.6,0.4,,,,,,,,,,,,,,,0.2669,,0.2,0.8,0.8,0.2,0.8,0.2,0.2,0.8,,,0.3754,,0.6,0.4,0.8,0.2,0.4,0.6,0.6,0.4,1,0
,,5f1f459122764312bfbe265e,66fce0fc8cf72c0b23106580,2024-10-02_07h58.42.753,mdp,2024.2.1,Win32,123.4567901,66fa4ebf79326e780c390304,,,,,,,,,,,,,,,,,,,,,877.7281,877.7281,877.7285,878.4864,0,1,left,0.242,,878.4868,879.1943,0,0,left,879.1951,879.9696,0,1,left,0,879.9697,879.9697,879.9702,881.4693,0,38,38,38,1,0.4,0.6,0.6,0.4,,,,,,,,,,,,,,,0.192,,0.2,0.8,0.8,0.2,0.8,0.2,0.2,0.8,,,0.2587,,0.6,0.4,0.8,0.2,0.4,0.6,0.6,0.4,1,0
,,5f1f459122764312bfbe265e,66fce0fc8cf72c0b23106580,2024-10-02_07h58.42.753,mdp,2024.2.1,Win32,123.4567901,66fa4ebf79326e780c390304,,,,,,,,,,,,,,,,,,,,,881.4695,881.4695,881.4699,882.1441,0,0,left,0.1584,,882.1445,882.8772,0,1,left,882.8777,883.8692,1,0,right,1,883.8692,883.8692,883.8699,885.3687,0,39,39,39,1,0.4,0.6,0.6,0.4,,,,,,,,,,,,,,,0.2165,,0.2,0.8,0.8,0.2,0.8,0.2,0.2,0.8,,,0.4833,,0.6,0.4,0.8,0.2,0.4,0.6,0.6,0.4,1,0
,,5f1f459122764312bfbe265e,66fce0fc8cf72c0b23106580,2024-10-02_07h58.42.753,mdp,2024.2.1,Win32,123.4567901,66fa4ebf79326e780c390304,,,,,,,,,,,,,,,,,,,,,885.3689,885.3689,885.3693,886.1687,0,0,left,0.2836,,886.1693,887.0601,0,1,left,887.0606,888.0351,1,1,right,0,888.0351,888.0351,888.0355,889.5344,0,40,40,40,1,0.4,0.6,0.6,0.4,,,,,,,,,,,,,,,0.3751,,0.2,0.8,0.8,0.2,0.8,0.2,0.2,0.8,,,0.4585,,0.6,0.4,0.8,0.2,0.4,0.6,0.6,0.4,1,0
,,5f1f459122764312bfbe265e,66fce0fc8cf72c0b23106580,2024-10-02_07h58.42.753,mdp,2024.2.1,Win32,123.4567901,66fa4ebf79326e780c390304,,,,,,,,,,,,,,,,,,,,,889.5346,889.5346,889.535,890.2344,0,1,left,0.183,,890.2349,890.9262,0,0,left,890.9267,891.801,0,0,left,1,891.801,891.801,891.8015,893.301,0,41,41,41,1,0.4,0.6,0.6,0.4,,,,,,,,,,,,,,,0.1833,,0.2,0.8,0.8,0.2,0.8,0.2,0.2,0.8,,,0.3579,,0.6,0.4,0.8,0.2,0.4,0.6,0.6,0.4,1,0
,,5f1f459122764312bfbe265e,66fce0fc8cf72c0b23106580,2024-10-02_07h58.42.753,mdp,2024.2.1,Win32,123.4567901,66fa4ebf79326e780c390304,,,,,,,,,,,,,,,,,,,,,893.3012,893.3012,893.3016,894.0176,0,1,left,0.2002,,894.0179,894.6844,0,1,left,894.685,895.5089,0,1,left,0,895.509,895.509,895.5094,897.0087,0,42,42,42,1,0.4,0.6,0.6,0.4,,,,,,,,,,,,,,,0.1505,,0.2,0.8,0.8,0.2,0.8,0.2,0.2,0.8,,,0.3078,,0.6,0.4,0.8,0.2,0.2,0.8,0.2,0.8,1,0
,,5f1f459122764312bfbe265e,66fce0fc8cf72c0b23106580,2024-10-02_07h58.42.753,mdp,2024.2.1,Win32,123.4567901,66fa4ebf79326e780c390304,,,,,,,,,,,,,,,,,,,,,897.009,897.009,897.0094,898.0169,0,1,left,0.4918,,898.0174,898.7253,0,0,left,898.7258,899.6916,0,1,left,0,899.6916,899.6916,899.692,901.1914,0,43,43,43,1,0.4,0.6,0.6,0.4,,,,,,,,,,,,,,,0.2004,,0.2,0.8,0.8,0.2,0.8,0.2,0.2,0.8,,,0.4495,,0.6,0.4,0.8,0.2,0.2,0.8,0.2,0.8,1,0
,,5f1f459122764312bfbe265e,66fce0fc8cf72c0b23106580,2024-10-02_07h58.42.753,mdp,2024.2.1,Win32,123.4567901,66fa4ebf79326e780c390304,,,,,,,,,,,,,,,,,,,,,901.1917,901.1917,901.192,901.8414,0,1,left,0.1335,,901.8418,902.7329,0,1,left,902.7334,903.4084,0,1,left,0,903.4084,903.4084,903.4088,904.9077,0,44,44,44,1,0.4,0.6,0.6,0.4,,,,,,,,,,,,,,,0.3749,,0.2,0.8,0.8,0.2,0.8,0.2,0.2,0.8,,,0.1589,,0.6,0.4,0.8,0.2,0.2,0.8,0.2,0.8,1,0
,,5f1f459122764312bfbe265e,66fce0fc8cf72c0b23106580,2024-10-02_07h58.42.753,mdp,2024.2.1,Win32,123.4567901,66fa4ebf79326e780c390304,,,,,,,,,,,,,,,,,,,,,904.908,904.908,904.9085,905.6696,0,1,left,0.2511,,905.6708,906.8859,1,0,right,906.8869,907.9358,0,0,left,1,907.9359,907.9359,907.937,909.4351,0,45,45,45,1,0.4,0.6,0.6,0.4,,,,,,,,,,,,,,,0.701,,0.2,0.8,0.8,0.2,0.8,0.2,0.2,0.8,,,0.5248,,0.6,0.4,0.8,0.2,0.4,0.6,0.8,0.2,1,0
,,5f1f459122764312bfbe265e,66fce0fc8cf72c0b23106580,2024-10-02_07h58.42.753,mdp,2024.2.1,Win32,123.4567901,66fa4ebf79326e780c390304,,,,,,,,,,,,,,,,,,,,,909.4356,909.4356,909.4369,910.1935,0,0,left,0.2426,,910.1946,911.2188,0,1,left,911.22,912.2181,1,0,right,1,912.2182,912.2182,912.2192,913.7182,0,46,46,46,1,0.4,0.6,0.6,0.4,,,,,,,,,,,,,,,0.5,,0.2,0.8,0.8,0.2,0.8,0.2,0.2,0.8,,,0.4755,,0.6,0.4,0.8,0.2,0.4,0.6,0.8,0.2,1,0
,,5f1f459122764312bfbe265e,66fce0fc8cf72c0b23106580,2024-10-02_07h58.42.753,mdp,2024.2.1,Win32,123.4567901,66fa4ebf79326e780c390304,,,,,,,,,,,,,,,,,,,,,913.7185,913.7185,913.7196,914.4512,0,0,left,0.2193,,914.4522,915.4848,0,0,left,915.486,916.4346,0,1,left,0,916.4347,916.4348,916.4361,917.9342,0,47,47,47,1,0.4,0.6,0.6,0.4,,,,,,,,,,,,,,,0.5251,,0.2,0.8,0.8,0.2,0.8,0.2,0.2,0.8,,,0.4252,,0.6,0.4,0.8,0.2,0.4,0.6,0.8,0.2,1,0
,,5f1f459122764312bfbe265e,66fce0fc8cf72c0b23106580,2024-10-02_07h58.42.753,mdp,2024.2.1,Win32,123.4567901,66fa4ebf79326e780c390304,,,,,,,,,,,,,,,,,,,,,917.9346,917.9347,917.9359,918.6842,0,0,left,0.2348,,918.6853,919.5925,0,1,left,919.5938,920.4588,1,0,right,1,920.4588,920.4588,920.46,921.9587,0,48,48,48,1,0.4,0.6,0.6,0.4,,,,,,,,,,,,,,,0.3928,,0.2,0.8,0.8,0.2,0.8,0.2,0.2,0.8,,,0.3436,,0.6,0.4,0.8,0.2,0.4,0.6,0.8,0.2,1,0
,,5f1f459122764312bfbe265e,66fce0fc8cf72c0b23106580,2024-10-02_07h58.42.753,mdp,2024.2.1,Win32,123.4567901,66fa4ebf79326e780c390304,,,,,,,,,,,,,,,,,,,,,921.9592,921.9592,921.9604,922.7421,0,0,left,0.267,,922.7431,924.1002,0,0,left,924.1015,925.1249,0,1,left,0,925.125,925.125,925.126,926.6246,0,49,49,49,1,0.4,0.6,0.6,0.4,,,,,,,,,,,,,,,0.8416,,0.6,0.4,0.4,0.6,0.8,0.2,0.2,0.8,,,0.5006,,0.6,0.4,0.8,0.2,0.4,0.6,0.8,0.2,1,0
,,5f1f459122764312bfbe265e,66fce0fc8cf72c0b23106580,2024-10-02_07h58.42.753,mdp,2024.2.1,Win32,123.4567901,66fa4ebf79326e780c390304,,,,,,,,,,,,,,,,,,,,,,,,,,,,,,,,,,,,,,,,,,,,,,,,,,,,,,,,926.6249,985.1332,0,3,3,8,1,imgs/cat.png,imgs/dog.png,imgs/kangaroo.png,imgs/goat.png,imgs/giraffe.png,,,,,,,,,,,,,,,,,,,,,,,,
,,5f1f459122764312bfbe265e,66fce0fc8cf72c0b23106580,2024-10-02_07h58.42.753,mdp,2024.2.1,Win32,123.4567901,66fa4ebf79326e780c390304,,,,,,,,,,,,,,1,seqs/st1seq0.csv,985.1348,988.5914,space,2.9426,,988.5942,988.5942,988.5947,989.5331,0,0,left,0.4164,,989.5347,989.5353,0,0,,989.5358,989.536,0,0,,1,989.5361,989.5361,989.5363,991.0324,0,0,0,0,1,0.8,0.2,0.8,0.2,1,0,,,,,,,,,,,,,,,,,,,,,,,,,,,,,,,,,,,,
,,5f1f459122764312bfbe265e,66fce0fc8cf72c0b23106580,2024-10-02_07h58.42.753,mdp,2024.2.1,Win32,123.4567901,66fa4ebf79326e780c390304,,,,,,,,,,,,,,,,,,,,,991.0328,991.0328,991.0342,991.9656,0,0,left,0.4171,,991.9673,991.9681,0,0,,991.9686,991.9689,0,0,,1,991.9689,991.9689,991.9691,993.4657,0,1,1,1,1,0.8,0.2,0.8,0.2,1,0,,,,,,,,,,,,,,,,,,,,,,,,,,,,,,,,,,,,
,,5f1f459122764312bfbe265e,66fce0fc8cf72c0b23106580,2024-10-02_07h58.42.753,mdp,2024.2.1,Win32,123.4567901,66fa4ebf79326e780c390304,,,,,,,,,,,,,,,,,,,,,993.4667,993.4667,993.4688,994.307,0,0,left,0.3264,,994.309,994.3095,0,1,,994.3101,994.3103,0,0,,1,994.3104,994.3104,994.3106,995.8069,0,2,2,2,1,0.8,0.2,0.8,0.2,1,0,,,,,,,,,,,,,,,,,,,,,,,,,,,,,,,,,,,,
,,5f1f459122764312bfbe265e,66fce0fc8cf72c0b23106580,2024-10-02_07h58.42.753,mdp,2024.2.1,Win32,123.4567901,66fa4ebf79326e780c390304,,,,,,,,,,,,,,,,,,,,,995.8079,995.8079,995.8096,996.64,0,0,left,0.3169,,996.6414,996.642,0,0,,996.6423,996.6426,0,0,,1,996.6426,996.6426,996.6428,998.1399,0,3,3,3,1,0.8,0.2,0.8,0.2,1,0,,,,,,,,,,,,,,,,,,,,,,,,,,,,,,,,,,,,
,,5f1f459122764312bfbe265e,66fce0fc8cf72c0b23106580,2024-10-02_07h58.42.753,mdp,2024.2.1,Win32,123.4567901,66fa4ebf79326e780c390304,,,,,,,,,,,,,,,,,,,,,998.1402,998.1403,998.1411,998.9483,0,0,left,0.2942,,998.9494,998.95,0,0,,998.9504,998.9506,0,0,,1,998.9506,998.9506,998.9508,1000.4481,0,4,4,4,1,0.8,0.2,0.8,0.2,1,0,,,,,,,,,,,,,,,,,,,,,,,,,,,,,,,,,,,,
,,5f1f459122764312bfbe265e,66fce0fc8cf72c0b23106580,2024-10-02_07h58.42.753,mdp,2024.2.1,Win32,123.4567901,66fa4ebf79326e780c390304,,,,,,,,,,,,,,,,,,,,,1000.4485,1000.4485,1000.4497,1001.2149,0,0,left,0.2503,,1001.2162,1001.2167,0,0,,1001.2172,1001.2175,0,0,,1,1001.2176,1001.2176,1001.2178,1002.7143,0,5,5,5,1,0.8,0.2,0.8,0.2,1,0,,,,,,,,,,,,,,,,,,,,,,,,,,,,,,,,,,,,
,,5f1f459122764312bfbe265e,66fce0fc8cf72c0b23106580,2024-10-02_07h58.42.753,mdp,2024.2.1,Win32,123.4567901,66fa4ebf79326e780c390304,,,,,,,,,,,,,,,,,,,,,1002.7146,1002.7146,1002.7156,1003.4561,0,1,left,0.2255,,1003.4572,1003.4579,0,0,,1003.4582,1003.4584,0,0,,0,1003.4584,1003.4585,1003.4586,1004.9559,0,6,6,6,1,0.8,0.2,0.8,0.2,1,0,,,,,,,,,,,,,,,,,,,,,,,,,,,,,,,,,,,,
,,5f1f459122764312bfbe265e,66fce0fc8cf72c0b23106580,2024-10-02_07h58.42.753,mdp,2024.2.1,Win32,123.4567901,66fa4ebf79326e780c390304,,,,,,,,,,,,,,,,,,,,,1004.9563,1004.9563,1004.9575,1005.6222,0,0,left,0.1522,,1005.6233,1005.624,0,1,,1005.6243,1005.6246,0,0,,1,1005.6246,1005.6246,1005.6248,1007.1222,0,7,7,7,1,0.8,0.2,0.8,0.2,1,0,,,,,,,,,,,,,,,,,,,,,,,,,,,,,,,,,,,,
,,5f1f459122764312bfbe265e,66fce0fc8cf72c0b23106580,2024-10-02_07h58.42.753,mdp,2024.2.1,Win32,123.4567901,66fa4ebf79326e780c390304,,,,,,,,,,,,,,,,,,,,,1007.1225,1007.1225,1007.1234,1007.7806,0,0,left,0.1417,,1007.7816,1007.7824,0,0,,1007.7827,1007.7829,0,1,,1,1007.7829,1007.7829,1007.7831,1009.2803,0,8,8,8,1,0.8,0.2,0.8,0.2,1,0,,,,,,,,,,,,,,,,,,,,,,,,,,,,,,,,,,,,
,,5f1f459122764312bfbe265e,66fce0fc8cf72c0b23106580,2024-10-02_07h58.42.753,mdp,2024.2.1,Win32,123.4567901,66fa4ebf79326e780c390304,,,,,,,,,,,,,,,,,,,,,1009.2807,1009.2807,1009.2822,1009.9799,0,1,left,0.1837,,1009.9813,1009.982,0,1,,1009.9824,1009.9828,0,0,,0,1009.9828,1009.9828,1009.9832,1011.4796,0,9,9,9,1,0.8,0.2,0.8,0.2,1,0,,,,,,,,,,,,,,,,,,,,,,,,,,,,,,,,,,,,
,,5f1f459122764312bfbe265e,66fce0fc8cf72c0b23106580,2024-10-02_07h58.42.753,mdp,2024.2.1,Win32,123.4567901,66fa4ebf79326e780c390304,,,,,,,,,,,,,,,,,,,,,1011.4799,1011.4799,1011.4812,1012.0467,0,0,left,0.0503,,1012.0478,1012.0484,0,0,,1012.0488,1012.0489,0,0,,1,1012.049,1012.049,1012.0492,1013.5463,0,10,10,10,1,0.8,0.2,0.8,0.2,1,0,,,,,,,,,,,,,,,,,,,,,,,,,,,,,,,,,,,,
,,5f1f459122764312bfbe265e,66fce0fc8cf72c0b23106580,2024-10-02_07h58.42.753,mdp,2024.2.1,Win32,123.4567901,66fa4ebf79326e780c390304,,,,,,,,,,,,,,,,,,,,,1013.5465,1013.5465,1013.5476,1014.2629,0,1,left,0.2002,,1014.2641,1014.2648,0,1,,1014.265,1014.2653,0,0,,0,1014.2653,1014.2653,1014.2654,1015.7627,0,11,11,11,1,0.6,0.4,0.4,0.6,1,0,,,,,,,,,,,,,,,,,,,,,,,,,,,,,,,,,,,,
,,5f1f459122764312bfbe265e,66fce0fc8cf72c0b23106580,2024-10-02_07h58.42.753,mdp,2024.2.1,Win32,123.4567901,66fa4ebf79326e780c390304,,,,,,,,,,,,,,,,,,,,,1015.763,1015.763,1015.764,1016.4042,0,0,left,0.125,,1016.4054,1016.4061,0,1,,1016.4065,1016.4067,0,0,,1,1016.4067,1016.4067,1016.4069,1017.9038,0,12,12,12,1,0.6,0.4,0.4,0.6,1,0,,,,,,,,,,,,,,,,,,,,,,,,,,,,,,,,,,,,
,,5f1f459122764312bfbe265e,66fce0fc8cf72c0b23106580,2024-10-02_07h58.42.753,mdp,2024.2.1,Win32,123.4567901,66fa4ebf79326e780c390304,,,,,,,,,,,,,,,,,,,,,1017.9042,1017.9042,1017.9056,1018.6457,0,1,left,0.2252,,1018.6471,1018.6477,0,1,,1018.6481,1018.6485,0,0,,0,1018.6485,1018.6485,1018.6488,1020.1452,0,13,13,13,1,0.6,0.4,0.4,0.6,1,0,,,,,,,,,,,,,,,,,,,,,,,,,,,,,,,,,,,,
,,5f1f459122764312bfbe265e,66fce0fc8cf72c0b23106580,2024-10-02_07h58.42.753,mdp,2024.2.1,Win32,123.4567901,66fa4ebf79326e780c390304,,,,,,,,,,,,,,,,,,,,,1020.1456,1020.1456,1020.1471,1020.9291,0,0,left,0.2668,,1020.9304,1020.9308,0,0,,1020.9313,1020.9316,0,0,,1,1020.9316,1020.9316,1020.932,1022.4284,0,14,14,14,1,0.8,0.2,0.2,0.8,1,0,,,,,,,,,,,,,,,,,,,,,,,,,,,,,,,,,,,,
,,5f1f459122764312bfbe265e,66fce0fc8cf72c0b23106580,2024-10-02_07h58.42.753,mdp,2024.2.1,Win32,123.4567901,66fa4ebf79326e780c390304,,,,,,,,,,,,,,,,,,,,,1022.4288,1022.4288,1022.4299,1023.2199,0,0,left,0.2764,,1023.2211,1023.2218,0,1,,1023.2221,1023.2224,0,0,,1,1023.2224,1023.2224,1023.2226,1024.7198,0,15,15,15,1,0.8,0.2,0.2,0.8,1,0,,,,,,,,,,,,,,,,,,,,,,,,,,,,,,,,,,,,
,,5f1f459122764312bfbe265e,66fce0fc8cf72c0b23106580,2024-10-02_07h58.42.753,mdp,2024.2.1,Win32,123.4567901,66fa4ebf79326e780c390304,,,,,,,,,,,,,,,,,,,,,1024.7202,1024.7202,1024.7215,1025.4948,0,1,left,0.2603,,1025.496,1025.4966,0,0,,1025.4971,1025.4974,0,0,,0,1025.4974,1025.4975,1025.4978,1026.9945,0,16,16,16,1,0.8,0.2,0.2,0.8,1,0,,,,,,,,,,,,,,,,,,,,,,,,,,,,,,,,,,,,
,,5f1f459122764312bfbe265e,66fce0fc8cf72c0b23106580,2024-10-02_07h58.42.753,mdp,2024.2.1,Win32,123.4567901,66fa4ebf79326e780c390304,,,,,,,,,,,,,,,,,,,,,1026.9948,1026.9948,1026.9959,1027.7691,0,0,left,0.2585,,1027.7702,1027.7708,0,0,,1027.7713,1027.7715,0,0,,1,1027.7715,1027.7715,1027.7717,1029.2691,0,17,17,17,1,0.8,0.2,0.2,0.8,1,0,,,,,,,,,,,,,,,,,,,,,,,,,,,,,,,,,,,,
,,5f1f459122764312bfbe265e,66fce0fc8cf72c0b23106580,2024-10-02_07h58.42.753,mdp,2024.2.1,Win32,123.4567901,66fa4ebf79326e780c390304,,,,,,,,,,,,,,,,,,,,,1029.2695,1029.2695,1029.2708,1030.0938,0,0,left,0.3081,,1030.0952,1030.0959,0,0,,1030.0963,1030.0965,0,1,,1,1030.0965,1030.0965,1030.0968,1031.5939,0,18,18,18,1,0.8,0.2,0.2,0.8,1,0,,,,,,,,,,,,,,,,,,,,,,,,,,,,,,,,,,,,
,,5f1f459122764312bfbe265e,66fce0fc8cf72c0b23106580,2024-10-02_07h58.42.753,mdp,2024.2.1,Win32,123.4567901,66fa4ebf79326e780c390304,,,,,,,,,,,,,,,,,,,,,1031.5942,1031.5942,1031.5951,1032.3523,0,0,left,0.2429,,1032.3533,1032.354,0,0,,1032.3543,1032.3544,0,0,,1,1032.3545,1032.3545,1032.3547,1033.8519,0,19,19,19,1,0.8,0.2,0.2,0.8,1,0,,,,,,,,,,,,,,,,,,,,,,,,,,,,,,,,,,,,
,,5f1f459122764312bfbe265e,66fce0fc8cf72c0b23106580,2024-10-02_07h58.42.753,mdp,2024.2.1,Win32,123.4567901,66fa4ebf79326e780c390304,,,,,,,,,,,,,,,,,,,,,1033.8523,1033.8524,1033.8536,1034.3935,0,0,left,0.0255,,1034.3948,1034.3954,0,0,,1034.3959,1034.3963,0,0,,1,1034.3963,1034.3963,1034.3966,1035.8933,0,20,20,20,1,0.8,0.2,0.2,0.8,1,0,,,,,,,,,,,,,,,,,,,,,,,,,,,,,,,,,,,,
,,5f1f459122764312bfbe265e,66fce0fc8cf72c0b23106580,2024-10-02_07h58.42.753,mdp,2024.2.1,Win32,123.4567901,66fa4ebf79326e780c390304,,,,,,,,,,,,,,,,,,,,,1035.8937,1035.8937,1035.8951,1036.9016,0,0,left,0.4921,,1036.9027,1036.9033,0,0,,1036.9037,1036.9039,0,1,,1,1036.9039,1036.9039,1036.9041,1038.4014,0,21,21,21,1,0.8,0.2,0.2,0.8,1,0,,,,,,,,,,,,,,,,,,,,,,,,,,,,,,,,,,,,
,,5f1f459122764312bfbe265e,66fce0fc8cf72c0b23106580,2024-10-02_07h58.42.753,mdp,2024.2.1,Win32,123.4567901,66fa4ebf79326e780c390304,,,,,,,,,,,,,,,,,,,,,1038.4017,1038.4017,1038.4028,1039.6761,0,0,left,0.7586,,1039.6775,1039.6781,0,1,,1039.6786,1039.6789,0,0,,1,1039.6789,1039.6789,1039.6791,1041.176,0,22,22,22,1,0.6,0.4,0.8,0.2,1,0,,,,,,,,,,,,,,,,,,,,,,,,,,,,,,,,,,,,
,,5f1f459122764312bfbe265e,66fce0fc8cf72c0b23106580,2024-10-02_07h58.42.753,mdp,2024.2.1,Win32,123.4567901,66fa4ebf79326e780c390304,,,,,,,,,,,,,,,,,,,,,1041.1764,1041.1764,1041.1776,1041.7673,0,1,left,0.0775,,1041.7683,1041.769,0,0,,1041.7693,1041.7696,0,1,,0,1041.7696,1041.7696,1041.7698,1043.2674,0,23,23,23,1,0.6,0.4,0.8,0.2,1,0,,,,,,,,,,,,,,,,,,,,,,,,,,,,,,,,,,,,
,,5f1f459122764312bfbe265e,66fce0fc8cf72c0b23106580,2024-10-02_07h58.42.753,mdp,2024.2.1,Win32,123.4567901,66fa4ebf79326e780c390304,,,,,,,,,,,,,,,,,,,,,1043.2678,1043.2678,1043.2688,1044.0505,0,0,left,0.2683,,1044.0518,1044.0524,0,0,,1044.0527,1044.0529,0,0,,1,1044.0529,1044.0529,1044.0531,1045.5503,0,24,24,24,1,0.6,0.4,0.8,0.2,1,0,,,,,,,,,,,,,,,,,,,,,,,,,,,,,,,,,,,,
,,5f1f459122764312bfbe265e,66fce0fc8cf72c0b23106580,2024-10-02_07h58.42.753,mdp,2024.2.1,Win32,123.4567901,66fa4ebf79326e780c390304,,,,,,,,,,,,,,,,,,,,,1045.5507,1045.5507,1045.5517,1046.292,0,0,left,0.226,,1046.293,1046.2936,0,0,,1046.294,1046.2942,0,0,,1,1046.2942,1046.2942,1046.2943,1047.7918,0,25,25,25,1,0.8,0.2,0.6,0.4,1,0,,,,,,,,,,,,,,,,,,,,,,,,,,,,,,,,,,,,
,,5f1f459122764312bfbe265e,66fce0fc8cf72c0b23106580,2024-10-02_07h58.42.753,mdp,2024.2.1,Win32,123.4567901,66fa4ebf79326e780c390304,,,,,,,,,,,,,,,,,,,,,1047.792,1047.7921,1047.7932,1048.6999,0,0,left,0.3917,,1048.701,1048.7017,0,0,,1048.702,1048.7022,0,0,,1,1048.7022,1048.7022,1048.7024,1050.1995,0,26,26,26,1,0.8,0.2,0.6,0.4,1,0,,,,,,,,,,,,,,,,,,,,,,,,,,,,,,,,,,,,
,,5f1f459122764312bfbe265e,66fce0fc8cf72c0b23106580,2024-10-02_07h58.42.753,mdp,2024.2.1,Win32,123.4567901,66fa4ebf79326e780c390304,,,,,,,,,,,,,,,,,,,,,1050.1999,1050.1999,1050.2008,1050.9995,0,1,left,0.2834,,1051.0009,1051.0015,0,1,,1051.0019,1051.002,0,0,,0,1051.002,1051.002,1051.0023,1052.4993,0,27,27,27,1,0.6,0.4,0.4,0.6,1,0,,,,,,,,,,,,,,,,,,,,,,,,,,,,,,,,,,,,
,,5f1f459122764312bfbe265e,66fce0fc8cf72c0b23106580,2024-10-02_07h58.42.753,mdp,2024.2.1,Win32,123.4567901,66fa4ebf79326e780c390304,,,,,,,,,,,,,,,,,,,,,1052.4996,1052.4996,1052.5005,1053.3077,0,0,left,0.2921,,1053.3088,1053.3094,0,0,,1053.3098,1053.31,0,0,,1,1053.31,1053.31,1053.3102,1054.8074,0,28,28,28,1,0.6,0.4,0.4,0.6,1,0,,,,,,,,,,,,,,,,,,,,,,,,,,,,,,,,,,,,
,,5f1f459122764312bfbe265e,66fce0fc8cf72c0b23106580,2024-10-02_07h58.42.753,mdp,2024.2.1,Win32,123.4567901,66fa4ebf79326e780c390304,,,,,,,,,,,,,,,,,,,,,1054.8078,1054.8078,1054.8092,1055.5574,0,0,left,0.2336,,1055.5584,1055.5591,0,0,,1055.5597,1055.5601,0,1,,1,1055.5601,1055.5601,1055.5603,1057.057,0,29,29,29,1,0.6,0.4,0.4,0.6,1,0,,,,,,,,,,,,,,,,,,,,,,,,,,,,,,,,,,,,
,,5f1f459122764312bfbe265e,66fce0fc8cf72c0b23106580,2024-10-02_07h58.42.753,mdp,2024.2.1,Win32,123.4567901,66fa4ebf79326e780c390304,,,,,,,,,,,,,,,,,,,,,1057.0573,1057.0573,1057.0581,1057.7819,0,0,left,0.2112,,1057.7831,1057.7837,0,1,,1057.784,1057.7842,0,0,,1,1057.7843,1057.7843,1057.7845,1059.2814,0,30,30,30,1,0.6,0.4,0.4,0.6,1,0,,,,,,,,,,,,,,,,,,,,,,,,,,,,,,,,,,,,
,,5f1f459122764312bfbe265e,66fce0fc8cf72c0b23106580,2024-10-02_07h58.42.753,mdp,2024.2.1,Win32,123.4567901,66fa4ebf79326e780c390304,,,,,,,,,,,,,,,,,,,,,1059.2818,1059.2818,1059.283,1060.0898,0,1,left,0.2923,,1060.091,1060.0919,0,0,,1060.0922,1060.0924,0,1,,0,1060.0924,1060.0924,1060.0927,1061.5899,0,31,31,31,1,0.4,0.6,0.6,0.4,1,0,,,,,,,,,,,,,,,,,,,,,,,,,,,,,,,,,,,,
,,5f1f459122764312bfbe265e,66fce0fc8cf72c0b23106580,2024-10-02_07h58.42.753,mdp,2024.2.1,Win32,123.4567901,66fa4ebf79326e780c390304,,,,,,,,,,,,,,,,,,,,,1061.5903,1061.5903,1061.5914,1062.3899,0,0,left,0.2837,,1062.3911,1062.3916,0,0,,1062.3922,1062.3925,0,0,,1,1062.3925,1062.3925,1062.3929,1063.8896,0,32,32,32,1,0.8,0.2,0.4,0.6,1,0,,,,,,,,,,,,,,,,,,,,,,,,,,,,,,,,,,,,
,,5f1f459122764312bfbe265e,66fce0fc8cf72c0b23106580,2024-10-02_07h58.42.753,mdp,2024.2.1,Win32,123.4567901,66fa4ebf79326e780c390304,,,,,,,,,,,,,,,,,,,,,1063.89,1063.89,1063.8912,1065.3394,0,0,left,0.9335,,1065.3405,1065.3411,0,0,,1065.3415,1065.3417,0,1,,1,1065.3417,1065.3417,1065.342,1066.8391,0,33,33,33,1,0.8,0.2,0.4,0.6,1,0,,,,,,,,,,,,,,,,,,,,,,,,,,,,,,,,,,,,
,,5f1f459122764312bfbe265e,66fce0fc8cf72c0b23106580,2024-10-02_07h58.42.753,mdp,2024.2.1,Win32,123.4567901,66fa4ebf79326e780c390304,,,,,,,,,,,,,,,,,,,,,1066.8395,1066.8395,1066.8405,1067.7392,0,1,left,0.3838,,1067.7401,1067.7408,0,1,,1067.7412,1067.7414,0,0,,0,1067.7414,1067.7414,1067.7416,1069.2389,0,34,34,34,1,0.8,0.2,0.4,0.6,1,0,,,,,,,,,,,,,,,,,,,,,,,,,,,,,,,,,,,,
,,5f1f459122764312bfbe265e,66fce0fc8cf72c0b23106580,2024-10-02_07h58.42.753,mdp,2024.2.1,Win32,123.4567901,66fa4ebf79326e780c390304,,,,,,,,,,,,,,,,,,,,,1069.2391,1069.2392,1069.2404,1070.0055,0,0,left,0.2504,,1070.0066,1070.0073,0,1,,1070.0077,1070.008,0,1,,1,1070.008,1070.008,1070.0083,1071.5051,0,35,35,35,1,0.8,0.2,0.4,0.6,1,0,,,,,,,,,,,,,,,,,,,,,,,,,,,,,,,,,,,,
,,5f1f459122764312bfbe265e,66fce0fc8cf72c0b23106580,2024-10-02_07h58.42.753,mdp,2024.2.1,Win32,123.4567901,66fa4ebf79326e780c390304,,,,,,,,,,,,,,,,,,,,,1071.5054,1071.5054,1071.5064,1072.0468,0,1,left,0.0263,,1072.0479,1072.0486,0,1,,1072.0489,1072.049,0,0,,0,1072.0491,1072.0491,1072.0493,1073.5466,0,36,36,36,1,0.4,0.6,0.6,0.4,1,0,,,,,,,,,,,,,,,,,,,,,,,,,,,,,,,,,,,,
,,5f1f459122764312bfbe265e,66fce0fc8cf72c0b23106580,2024-10-02_07h58.42.753,mdp,2024.2.1,Win32,123.4567901,66fa4ebf79326e780c390304,,,,,,,,,,,,,,,,,,,,,1073.5469,1073.547,1073.5478,1074.0883,0,1,left,0.0257,,1074.0896,1074.0901,0,1,,1074.0904,1074.0906,0,1,,0,1074.0907,1074.0907,1074.0908,1075.5879,0,37,37,37,1,0.4,0.6,0.6,0.4,1,0,,,,,,,,,,,,,,,,,,,,,,,,,,,,,,,,,,,,
,,5f1f459122764312bfbe265e,66fce0fc8cf72c0b23106580,2024-10-02_07h58.42.753,mdp,2024.2.1,Win32,123.4567901,66fa4ebf79326e780c390304,,,,,,,,,,,,,,,,,,,,,1075.5883,1075.5883,1075.5893,1076.138,0,0,left,0.0335,,1076.1391,1076.1397,0,0,,1076.14,1076.1402,0,1,,1,1076.1402,1076.1402,1076.1405,1077.6376,0,38,38,38,1,0.4,0.6,0.6,0.4,1,0,,,,,,,,,,,,,,,,,,,,,,,,,,,,,,,,,,,,
,,5f1f459122764312bfbe265e,66fce0fc8cf72c0b23106580,2024-10-02_07h58.42.753,mdp,2024.2.1,Win32,123.4567901,66fa4ebf79326e780c390304,,,,,,,,,,,,,,,,,,,,,1077.638,1077.638,1077.6389,1078.4959,0,0,left,0.3417,,1078.4972,1078.4977,0,0,,1078.498,1078.4982,0,1,,1,1078.4983,1078.4983,1078.4984,1079.9956,0,39,39,39,1,0.6,0.4,0.4,0.6,1,0,,,,,,,,,,,,,,,,,,,,,,,,,,,,,,,,,,,,
,,5f1f459122764312bfbe265e,66fce0fc8cf72c0b23106580,2024-10-02_07h58.42.753,mdp,2024.2.1,Win32,123.4567901,66fa4ebf79326e780c390304,,,,,,,,,,,,,,,,,,,,,1079.9961,1079.9961,1079.9973,1080.579,0,0,left,0.0671,,1080.5802,1080.5808,0,0,,1080.5812,1080.5814,0,0,,1,1080.5814,1080.5814,1080.5816,1082.0788,0,40,40,40,1,0.6,0.4,0.4,0.6,1,0,,,,,,,,,,,,,,,,,,,,,,,,,,,,,,,,,,,,
,,5f1f459122764312bfbe265e,66fce0fc8cf72c0b23106580,2024-10-02_07h58.42.753,mdp,2024.2.1,Win32,123.4567901,66fa4ebf79326e780c390304,,,,,,,,,,,,,,,,,,,,,1082.0791,1082.0791,1082.0801,1082.8871,0,0,left,0.293,,1082.8881,1082.8888,0,0,,1082.8891,1082.8893,0,1,,1,1082.8893,1082.8893,1082.8895,1084.3866,0,41,41,41,1,0.6,0.4,0.4,0.6,1,0,,,,,,,,,,,,,,,,,,,,,,,,,,,,,,,,,,,,
,,5f1f459122764312bfbe265e,66fce0fc8cf72c0b23106580,2024-10-02_07h58.42.753,mdp,2024.2.1,Win32,123.4567901,66fa4ebf79326e780c390304,,,,,,,,,,,,,,,,,,,,,1084.387,1084.3871,1084.3881,1085.1367,0,1,left,0.235,,1085.1378,1085.1385,0,1,,1085.1388,1085.139,0,0,,0,1085.139,1085.139,1085.1392,1086.6365,0,42,42,42,1,0.2,0.8,0.6,0.4,1,0,,,,,,,,,,,,,,,,,,,,,,,,,,,,,,,,,,,,
