init_exp.started,init_exp.stopped,participant,session,date,expName,psychopyVersion,OS,frameRate,study_id,disp_instruction.started,disp_instruction.stopped,instruction.thisRepN,instruction.thisTrialN,instruction.thisN,instruction.thisIndex,instruction.ran,instimg_path,consent.started,consent.stopped,key_resp_3.keys,key_resp_3.rt,key_resp_3.duration,n_steps,sequence_path,init_block.started,init_block.stopped,key_resp.keys,key_resp.rt,key_resp.duration,init_trials.started,init_trials.stopped,step0.started,step0.stopped,act0,s1,res0.keys,res0.rt,res0.duration,step1.started,step1.stopped,act1,s2,res1.keys,step2.started,step2.stopped,act2,s3,res2.keys,rew,reward_comp.started,reward_comp.stopped,reward_disp.started,reward_disp.stopped,trials.thisRepN,trials.thisTrialN,trials.thisN,trials.thisIndex,trials.ran,s00a0s10,s00a0s11,s00a1s10,s00a1s11,rew10,rew11,break_block.started,break_block.stopped,block.thisRepN,block.thisTrialN,block.thisN,block.thisIndex,block.ran,s00path,s10path,s11path,s20path,s21path,res1.rt,res1.duration,s10a0s20,s10a0s21,s10a1s20,s10a1s21,s11a0s20,s11a0s21,s11a1s20,s11a1s21,rew20,rew21,res2.rt,res2.duration,s20a0s30,s20a0s31,s20a1s30,s20a1s31,s21a0s30,s21a0s31,s21a1s30,s21a1s31,rew30,rew31
0.0006,0.002,5f4469a101c96e20702a9ece,66fc97acd3725f8ed889d11e,2024-10-02_01h49.29.358,mdp,2024.2.1,Win32,144.9275362,66fa4ebf79326e780c390304,,,,,,,,,,,,,,,,,,,,,,,,,,,,,,,,,,,,,,,,,,,,,,,,,,,,,,,,,,,,,,,,,,,,,,,,,,,,,,,,,,,,,,,,,,,
,,5f4469a101c96e20702a9ece,66fc97acd3725f8ed889d11e,2024-10-02_01h49.29.358,mdp,2024.2.1,Win32,144.9275362,66fa4ebf79326e780c390304,0.0065,2305.7493,0,0,0,0,1,rlnn_exp/rlnn_exp.001.png,,,,,,,,,,,,,,,,,,,,,,,,,,,,,,,,,,,,,,,,,,,,,,,,,,,,,,,,,,,,,,,,,,,,,,,,,,,,,,,,,,,
,,5f4469a101c96e20702a9ece,66fc97acd3725f8ed889d11e,2024-10-02_01h49.29.358,mdp,2024.2.1,Win32,144.9275362,66fa4ebf79326e780c390304,2305.7501,2316.6051,0,1,1,1,1,rlnn_exp/rlnn_exp.002.png,,,,,,,,,,,,,,,,,,,,,,,,,,,,,,,,,,,,,,,,,,,,,,,,,,,,,,,,,,,,,,,,,,,,,,,,,,,,,,,,,,,
,,5f4469a101c96e20702a9ece,66fc97acd3725f8ed889d11e,2024-10-02_01h49.29.358,mdp,2024.2.1,Win32,144.9275362,66fa4ebf79326e780c390304,2316.6056,2332.8896,0,2,2,2,1,rlnn_exp/rlnn_exp.003.png,,,,,,,,,,,,,,,,,,,,,,,,,,,,,,,,,,,,,,,,,,,,,,,,,,,,,,,,,,,,,,,,,,,,,,,,,,,,,,,,,,,
,,5f4469a101c96e20702a9ece,66fc97acd3725f8ed889d11e,2024-10-02_01h49.29.358,mdp,2024.2.1,Win32,144.9275362,66fa4ebf79326e780c390304,2332.8899,2350.6607,0,3,3,3,1,rlnn_exp/rlnn_exp.004.png,,,,,,,,,,,,,,,,,,,,,,,,,,,,,,,,,,,,,,,,,,,,,,,,,,,,,,,,,,,,,,,,,,,,,,,,,,,,,,,,,,,
,,5f4469a101c96e20702a9ece,66fc97acd3725f8ed889d11e,2024-10-02_01h49.29.358,mdp,2024.2.1,Win32,144.9275362,66fa4ebf79326e780c390304,,,,,,,,,2350.661,2365.2026,y,4.519,,,,,,,,,,,,,,,,,,,,,,,,,,,,,,,,,,,,,,,,,,,,,,,,,,,,,,,,,,,,,,,,,,,,,,,,,,,,,,,
,,5f4469a101c96e20702a9ece,66fc97acd3725f8ed889d11e,2024-10-02_01h49.29.358,mdp,2024.2.1,Win32,144.9275362,66fa4ebf79326e780c390304,,,,,,,,,,,,,,1,seqs/st1seq29.csv,2365.2065,2367.7929,space,2.0786,,2367.7949,2367.7949,2367.7952,2369.5849,0,1,left,1.2721,,2369.5856,2369.5871,,1,,2369.5873,2369.5881,,1,,0,2369.5881,2369.5883,2369.5885,2371.0859,0,0,0,0,1,0.4,0.6,0.6,0.4,1,0,,,,,,,,,,,,,,,,,,,,,,,,,,,,,,,,,,,,
,,5f4469a101c96e20702a9ece,66fc97acd3725f8ed889d11e,2024-10-02_01h49.29.358,mdp,2024.2.1,Win32,144.9275362,66fa4ebf79326e780c390304,,,,,,,,,,,,,,,,,,,,,2371.0865,2371.0865,2371.0871,2372.1402,1,0,right,0.5434,,2372.1409,2372.1414,,0,,2372.1418,2372.1422,,0,,1,2372.1422,2372.1422,2372.1425,2373.6402,0,1,1,1,1,0.4,0.6,0.6,0.4,1,0,,,,,,,,,,,,,,,,,,,,,,,,,,,,,,,,,,,,
,,5f4469a101c96e20702a9ece,66fc97acd3725f8ed889d11e,2024-10-02_01h49.29.358,mdp,2024.2.1,Win32,144.9275362,66fa4ebf79326e780c390304,,,,,,,,,,,,,,,,,,,,,2373.6406,2373.6406,2373.6416,2375.4046,1,1,right,1.2506,,2375.4058,2375.4063,,1,,2375.4068,2375.4071,,0,,0,2375.4071,2375.4071,2375.4074,2376.9044,0,2,2,2,1,0.4,0.6,0.6,0.4,1,0,,,,,,,,,,,,,,,,,,,,,,,,,,,,,,,,,,,,
,,5f4469a101c96e20702a9ece,66fc97acd3725f8ed889d11e,2024-10-02_01h49.29.358,mdp,2024.2.1,Win32,144.9275362,66fa4ebf79326e780c390304,,,,,,,,,,,,,,,,,,,,,2376.9052,2376.9052,2376.9062,2378.1471,1,0,right,0.7324,,2378.148,2378.1484,,0,,2378.1489,2378.1493,,1,,1,2378.1493,2378.1493,2378.1496,2379.6477,0,3,3,3,1,0.2,0.8,0.8,0.2,1,0,,,,,,,,,,,,,,,,,,,,,,,,,,,,,,,,,,,,
,,5f4469a101c96e20702a9ece,66fc97acd3725f8ed889d11e,2024-10-02_01h49.29.358,mdp,2024.2.1,Win32,144.9275362,66fa4ebf79326e780c390304,,,,,,,,,,,,,,,,,,,,,2379.6481,2379.6482,2379.649,2380.5983,0,1,left,0.4334,,2380.599,2380.5995,,0,,2380.6,2380.6004,,1,,0,2380.6004,2380.6004,2380.6008,2382.0987,0,4,4,4,1,0.2,0.8,0.8,0.2,1,0,,,,,,,,,,,,,,,,,,,,,,,,,,,,,,,,,,,,
,,5f4469a101c96e20702a9ece,66fc97acd3725f8ed889d11e,2024-10-02_01h49.29.358,mdp,2024.2.1,Win32,144.9275362,66fa4ebf79326e780c390304,,,,,,,,,,,,,,,,,,,,,2382.0989,2382.0989,2382.0998,2382.7512,1,1,right,0.149,,2382.7519,2382.7526,,1,,2382.753,2382.7534,,0,,0,2382.7534,2382.7534,2382.7537,2384.2514,0,5,5,5,1,0.6,0.4,0.2,0.8,1,0,,,,,,,,,,,,,,,,,,,,,,,,,,,,,,,,,,,,
,,5f4469a101c96e20702a9ece,66fc97acd3725f8ed889d11e,2024-10-02_01h49.29.358,mdp,2024.2.1,Win32,144.9275362,66fa4ebf79326e780c390304,,,,,,,,,,,,,,,,,,,,,2384.2516,2384.2516,2384.2526,2384.9595,1,1,right,0.206,,2384.9602,2384.9608,,0,,2384.9612,2384.9617,,1,,0,2384.9617,2384.9617,2384.9621,2386.4603,0,6,6,6,1,0.6,0.4,0.2,0.8,1,0,,,,,,,,,,,,,,,,,,,,,,,,,,,,,,,,,,,,
,,5f4469a101c96e20702a9ece,66fc97acd3725f8ed889d11e,2024-10-02_01h49.29.358,mdp,2024.2.1,Win32,144.9275362,66fa4ebf79326e780c390304,,,,,,,,,,,,,,,,,,,,,2386.4607,2386.4607,2386.462,2387.1616,0,0,left,0.1885,,2387.1626,2387.1634,,1,,2387.1637,2387.164,,1,,1,2387.1641,2387.1641,2387.1644,2388.6616,0,7,7,7,1,0.6,0.4,0.2,0.8,1,0,,,,,,,,,,,,,,,,,,,,,,,,,,,,,,,,,,,,
,,5f4469a101c96e20702a9ece,66fc97acd3725f8ed889d11e,2024-10-02_01h49.29.358,mdp,2024.2.1,Win32,144.9275362,66fa4ebf79326e780c390304,,,,,,,,,,,,,,,,,,,,,2388.662,2388.6621,2388.663,2389.3491,0,0,left,0.1737,,2389.3501,2389.3506,,0,,2389.351,2389.3513,,0,,1,2389.3514,2389.3514,2389.352,2390.8491,0,8,8,8,1,0.8,0.2,0.8,0.2,1,0,,,,,,,,,,,,,,,,,,,,,,,,,,,,,,,,,,,,
,,5f4469a101c96e20702a9ece,66fc97acd3725f8ed889d11e,2024-10-02_01h49.29.358,mdp,2024.2.1,Win32,144.9275362,66fa4ebf79326e780c390304,,,,,,,,,,,,,,,,,,,,,2390.8495,2390.8495,2390.8499,2391.4943,1,0,right,0.1344,,2391.4949,2391.4954,,1,,2391.4961,2391.4965,,1,,1,2391.4965,2391.4965,2391.4968,2392.9946,0,9,9,9,1,0.6,0.4,0.4,0.6,1,0,,,,,,,,,,,,,,,,,,,,,,,,,,,,,,,,,,,,
,,5f4469a101c96e20702a9ece,66fc97acd3725f8ed889d11e,2024-10-02_01h49.29.358,mdp,2024.2.1,Win32,144.9275362,66fa4ebf79326e780c390304,,,,,,,,,,,,,,,,,,,,,2392.9949,2392.9949,2392.9957,2393.6614,0,1,left,0.1593,,2393.6623,2393.6628,,1,,2393.6633,2393.6636,,1,,0,2393.6636,2393.6636,2393.6639,2395.1616,0,10,10,10,1,0.2,0.8,0.8,0.2,1,0,,,,,,,,,,,,,,,,,,,,,,,,,,,,,,,,,,,,
,,5f4469a101c96e20702a9ece,66fc97acd3725f8ed889d11e,2024-10-02_01h49.29.358,mdp,2024.2.1,Win32,144.9275362,66fa4ebf79326e780c390304,,,,,,,,,,,,,,,,,,,,,2395.1621,2395.1621,2395.1626,2395.7935,1,1,right,0.1192,,2395.7946,2395.7956,,0,,2395.796,2395.7963,,0,,0,2395.7963,2395.7963,2395.7966,2397.2936,0,11,11,11,1,0.2,0.8,0.8,0.2,1,0,,,,,,,,,,,,,,,,,,,,,,,,,,,,,,,,,,,,
,,5f4469a101c96e20702a9ece,66fc97acd3725f8ed889d11e,2024-10-02_01h49.29.358,mdp,2024.2.1,Win32,144.9275362,66fa4ebf79326e780c390304,,,,,,,,,,,,,,,,,,,,,2397.2939,2397.2939,2397.2947,2398.2169,1,0,right,0.4097,,2398.2179,2398.2183,,0,,2398.2187,2398.2192,,0,,1,2398.2193,2398.2194,2398.2198,2399.7172,0,12,12,12,1,0.2,0.8,0.8,0.2,1,0,,,,,,,,,,,,,,,,,,,,,,,,,,,,,,,,,,,,
,,5f4469a101c96e20702a9ece,66fc97acd3725f8ed889d11e,2024-10-02_01h49.29.358,mdp,2024.2.1,Win32,144.9275362,66fa4ebf79326e780c390304,,,,,,,,,,,,,,,,,,,,,2399.7176,2399.7176,2399.7182,2400.543,0,1,left,0.3167,,2400.5437,2400.5443,,1,,2400.5448,2400.5451,,0,,0,2400.5452,2400.5452,2400.5454,2402.0435,0,13,13,13,1,0.2,0.8,0.8,0.2,1,0,,,,,,,,,,,,,,,,,,,,,,,,,,,,,,,,,,,,
,,5f4469a101c96e20702a9ece,66fc97acd3725f8ed889d11e,2024-10-02_01h49.29.358,mdp,2024.2.1,Win32,144.9275362,66fa4ebf79326e780c390304,,,,,,,,,,,,,,,,,,,,,2402.0438,2402.0438,2402.0444,2403.21,0,0,left,0.6572,,2403.2109,2403.2116,,0,,2403.212,2403.2122,,0,,1,2403.2123,2403.2123,2403.2126,2404.7105,0,14,14,14,1,0.8,0.2,0.6,0.4,1,0,,,,,,,,,,,,,,,,,,,,,,,,,,,,,,,,,,,,
,,5f4469a101c96e20702a9ece,66fc97acd3725f8ed889d11e,2024-10-02_01h49.29.358,mdp,2024.2.1,Win32,144.9275362,66fa4ebf79326e780c390304,,,,,,,,,,,,,,,,,,,,,2404.7111,2404.7112,2404.7121,2405.4527,0,0,left,0.2315,,2405.4536,2405.4541,,0,,2405.4548,2405.455,,0,,1,2405.4551,2405.4551,2405.4554,2406.953,0,15,15,15,1,0.8,0.2,0.6,0.4,1,0,,,,,,,,,,,,,,,,,,,,,,,,,,,,,,,,,,,,
,,5f4469a101c96e20702a9ece,66fc97acd3725f8ed889d11e,2024-10-02_01h49.29.358,mdp,2024.2.1,Win32,144.9275362,66fa4ebf79326e780c390304,,,,,,,,,,,,,,,,,,,,,2406.9531,2406.9532,2406.9538,2407.5777,0,0,left,0.1202,,2407.5786,2407.5791,,0,,2407.5797,2407.5801,,0,,1,2407.5802,2407.5802,2407.5805,2409.0783,0,16,16,16,1,0.8,0.2,0.6,0.4,1,0,,,,,,,,,,,,,,,,,,,,,,,,,,,,,,,,,,,,
,,5f4469a101c96e20702a9ece,66fc97acd3725f8ed889d11e,2024-10-02_01h49.29.358,mdp,2024.2.1,Win32,144.9275362,66fa4ebf79326e780c390304,,,,,,,,,,,,,,,,,,,,,2409.0788,2409.0788,2409.08,2409.7244,0,0,left,0.1314,,2409.725,2409.7253,,0,,2409.7258,2409.7261,,0,,1,2409.7261,2409.7261,2409.7265,2411.2242,0,17,17,17,1,0.8,0.2,0.6,0.4,1,0,,,,,,,,,,,,,,,,,,,,,,,,,,,,,,,,,,,,
,,5f4469a101c96e20702a9ece,66fc97acd3725f8ed889d11e,2024-10-02_01h49.29.358,mdp,2024.2.1,Win32,144.9275362,66fa4ebf79326e780c390304,,,,,,,,,,,,,,,,,,,,,2411.2245,2411.2245,2411.2256,2411.7801,0,0,left,0.0441,,2411.7807,2411.7812,,1,,2411.7815,2411.7819,,1,,1,2411.7819,2411.7819,2411.7828,2413.2792,0,18,18,18,1,0.6,0.4,0.8,0.2,1,0,,,,,,,,,,,,,,,,,,,,,,,,,,,,,,,,,,,,
,,5f4469a101c96e20702a9ece,66fc97acd3725f8ed889d11e,2024-10-02_01h49.29.358,mdp,2024.2.1,Win32,144.9275362,66fa4ebf79326e780c390304,,,,,,,,,,,,,,,,,,,,,2413.2793,2413.2793,2413.2801,2413.8419,0,0,left,0.0561,,2413.8425,2413.8429,,0,,2413.8435,2413.8438,,0,,1,2413.8438,2413.8438,2413.8441,2415.3422,0,19,19,19,1,0.6,0.4,0.8,0.2,1,0,,,,,,,,,,,,,,,,,,,,,,,,,,,,,,,,,,,,
,,5f4469a101c96e20702a9ece,66fc97acd3725f8ed889d11e,2024-10-02_01h49.29.358,mdp,2024.2.1,Win32,144.9275362,66fa4ebf79326e780c390304,,,,,,,,,,,,,,,,,,,,,2415.3429,2415.3429,2415.344,2416.0301,0,0,left,0.1743,,2416.0308,2416.0312,,0,,2416.0319,2416.0323,,0,,1,2416.0323,2416.0323,2416.0327,2417.5298,0,20,20,20,1,0.6,0.4,0.8,0.2,1,0,,,,,,,,,,,,,,,,,,,,,,,,,,,,,,,,,,,,
,,5f4469a101c96e20702a9ece,66fc97acd3725f8ed889d11e,2024-10-02_01h49.29.358,mdp,2024.2.1,Win32,144.9275362,66fa4ebf79326e780c390304,,,,,,,,,,,,,,,,,,,,,2417.5302,2417.5302,2417.5311,2418.099,0,0,left,0.0558,,2418.0997,2418.1001,,1,,2418.1007,2418.1012,,1,,1,2418.1012,2418.1012,2418.1016,2419.5993,0,21,21,21,1,0.8,0.2,0.6,0.4,1,0,,,,,,,,,,,,,,,,,,,,,,,,,,,,,,,,,,,,
,,5f4469a101c96e20702a9ece,66fc97acd3725f8ed889d11e,2024-10-02_01h49.29.358,mdp,2024.2.1,Win32,144.9275362,66fa4ebf79326e780c390304,,,,,,,,,,,,,,,,,,,,,2419.5997,2419.5997,2419.6002,2420.1961,0,1,left,0.0839,,2420.197,2420.1976,,0,,2420.1982,2420.1986,,0,,0,2420.1986,2420.1986,2420.199,2421.6966,0,22,22,22,1,0.8,0.2,0.6,0.4,1,0,,,,,,,,,,,,,,,,,,,,,,,,,,,,,,,,,,,,
,,5f4469a101c96e20702a9ece,66fc97acd3725f8ed889d11e,2024-10-02_01h49.29.358,mdp,2024.2.1,Win32,144.9275362,66fa4ebf79326e780c390304,,,,,,,,,,,,,,,,,,,,,2421.6969,2421.697,2421.698,2422.3417,0,1,left,0.1352,,2422.3423,2422.3428,,0,,2422.3432,2422.3437,,0,,0,2422.3437,2422.3437,2422.3442,2423.8424,0,23,23,23,1,0.8,0.2,0.6,0.4,1,0,,,,,,,,,,,,,,,,,,,,,,,,,,,,,,,,,,,,
,,5f4469a101c96e20702a9ece,66fc97acd3725f8ed889d11e,2024-10-02_01h49.29.358,mdp,2024.2.1,Win32,144.9275362,66fa4ebf79326e780c390304,,,,,,,,,,,,,,,,,,,,,2423.8426,2423.8426,2423.8433,2424.4116,0,0,left,0.0505,,2424.4125,2424.413,,0,,2424.4135,2424.4138,,0,,1,2424.4138,2424.4138,2424.4141,2425.9119,0,24,24,24,1,0.8,0.2,0.6,0.4,1,0,,,,,,,,,,,,,,,,,,,,,,,,,,,,,,,,,,,,
,,5f4469a101c96e20702a9ece,66fc97acd3725f8ed889d11e,2024-10-02_01h49.29.358,mdp,2024.2.1,Win32,144.9275362,66fa4ebf79326e780c390304,,,,,,,,,,,,,,,,,,,,,2425.9121,2425.9121,2425.9129,2426.5154,0,0,left,0.0902,,2426.5159,2426.5166,,0,,2426.5172,2426.5176,,1,,1,2426.5176,2426.5176,2426.5181,2428.0156,0,25,25,25,1,0.8,0.2,0.6,0.4,1,0,,,,,,,,,,,,,,,,,,,,,,,,,,,,,,,,,,,,
,,5f4469a101c96e20702a9ece,66fc97acd3725f8ed889d11e,2024-10-02_01h49.29.358,mdp,2024.2.1,Win32,144.9275362,66fa4ebf79326e780c390304,,,,,,,,,,,,,,,,,,,,,2428.0157,2428.0157,2428.0165,2428.5512,0,0,left,0.0287,,2428.5522,2428.5526,,0,,2428.553,2428.5536,,1,,1,2428.5536,2428.5537,2428.5541,2430.0505,0,26,26,26,1,0.6,0.4,0.4,0.6,1,0,,,,,,,,,,,,,,,,,,,,,,,,,,,,,,,,,,,,
,,5f4469a101c96e20702a9ece,66fc97acd3725f8ed889d11e,2024-10-02_01h49.29.358,mdp,2024.2.1,Win32,144.9275362,66fa4ebf79326e780c390304,,,,,,,,,,,,,,,,,,,,,2430.0508,2430.0508,2430.0518,2430.641,0,0,left,0.078,,2430.6417,2430.6421,,1,,2430.6426,2430.6429,,0,,1,2430.6429,2430.6429,2430.6432,2432.1411,0,27,27,27,1,0.6,0.4,0.4,0.6,1,0,,,,,,,,,,,,,,,,,,,,,,,,,,,,,,,,,,,,
,,5f4469a101c96e20702a9ece,66fc97acd3725f8ed889d11e,2024-10-02_01h49.29.358,mdp,2024.2.1,Win32,144.9275362,66fa4ebf79326e780c390304,,,,,,,,,,,,,,,,,,,,,2432.1416,2432.1416,2432.1426,2432.6753,0,0,left,0.0248,,2432.676,2432.6764,,0,,2432.6768,2432.6771,,1,,1,2432.6771,2432.6771,2432.6775,2434.1755,0,28,28,28,1,0.6,0.4,0.4,0.6,1,0,,,,,,,,,,,,,,,,,,,,,,,,,,,,,,,,,,,,
,,5f4469a101c96e20702a9ece,66fc97acd3725f8ed889d11e,2024-10-02_01h49.29.358,mdp,2024.2.1,Win32,144.9275362,66fa4ebf79326e780c390304,,,,,,,,,,,,,,,,,,,,,2434.1757,2434.1757,2434.1763,2434.7173,0,0,left,0.0354,,2434.7178,2434.7183,,0,,2434.7186,2434.719,,1,,1,2434.7191,2434.7191,2434.7193,2436.2174,0,29,29,29,1,0.6,0.4,0.4,0.6,1,0,,,,,,,,,,,,,,,,,,,,,,,,,,,,,,,,,,,,
,,5f4469a101c96e20702a9ece,66fc97acd3725f8ed889d11e,2024-10-02_01h49.29.358,mdp,2024.2.1,Win32,144.9275362,66fa4ebf79326e780c390304,,,,,,,,,,,,,,,,,,,,,2436.2178,2436.2178,2436.2187,2436.8628,0,0,left,0.1356,,2436.8633,2436.8639,,1,,2436.8643,2436.8647,,0,,1,2436.8647,2436.8647,2436.865,2438.3629,0,30,30,30,1,0.6,0.4,0.4,0.6,1,0,,,,,,,,,,,,,,,,,,,,,,,,,,,,,,,,,,,,
,,5f4469a101c96e20702a9ece,66fc97acd3725f8ed889d11e,2024-10-02_01h49.29.358,mdp,2024.2.1,Win32,144.9275362,66fa4ebf79326e780c390304,,,,,,,,,,,,,,,,,,,,,2438.3633,2438.3633,2438.3642,2438.9399,0,0,left,0.0626,,2438.9409,2438.9414,,1,,2438.9417,2438.9422,,1,,1,2438.9422,2438.9422,2438.9428,2440.4394,0,31,31,31,1,0.6,0.4,0.4,0.6,1,0,,,,,,,,,,,,,,,,,,,,,,,,,,,,,,,,,,,,
,,5f4469a101c96e20702a9ece,66fc97acd3725f8ed889d11e,2024-10-02_01h49.29.358,mdp,2024.2.1,Win32,144.9275362,66fa4ebf79326e780c390304,,,,,,,,,,,,,,,,,,,,,2440.4397,2440.4397,2440.4405,2441.1343,0,1,left,0.1821,,2441.1352,2441.1356,,0,,2441.136,2441.1365,,0,,0,2441.1365,2441.1365,2441.137,2442.6342,0,32,32,32,1,0.6,0.4,0.4,0.6,1,0,,,,,,,,,,,,,,,,,,,,,,,,,,,,,,,,,,,,
,,5f4469a101c96e20702a9ece,66fc97acd3725f8ed889d11e,2024-10-02_01h49.29.358,mdp,2024.2.1,Win32,144.9275362,66fa4ebf79326e780c390304,,,,,,,,,,,,,,,,,,,,,2442.6346,2442.6346,2442.6352,2443.3286,0,0,left,0.1813,,2443.3295,2443.33,,0,,2443.3305,2443.3307,,0,,1,2443.3308,2443.3308,2443.3311,2444.8289,0,33,33,33,1,0.6,0.4,0.4,0.6,1,0,,,,,,,,,,,,,,,,,,,,,,,,,,,,,,,,,,,,
,,5f4469a101c96e20702a9ece,66fc97acd3725f8ed889d11e,2024-10-02_01h49.29.358,mdp,2024.2.1,Win32,144.9275362,66fa4ebf79326e780c390304,,,,,,,,,,,,,,,,,,,,,2444.8294,2444.8295,2444.8305,2445.3909,0,1,left,0.0535,,2445.3918,2445.3923,,0,,2445.393,2445.3934,,0,,0,2445.3934,2445.3934,2445.3939,2446.8912,0,34,34,34,1,0.6,0.4,0.4,0.6,1,0,,,,,,,,,,,,,,,,,,,,,,,,,,,,,,,,,,,,
,,5f4469a101c96e20702a9ece,66fc97acd3725f8ed889d11e,2024-10-02_01h49.29.358,mdp,2024.2.1,Win32,144.9275362,66fa4ebf79326e780c390304,,,,,,,,,,,,,,,,,,,,,2446.8915,2446.8915,2446.8921,2447.4554,0,0,left,0.0558,,2447.456,2447.4566,,0,,2447.4572,2447.4574,,0,,1,2447.4574,2447.4574,2447.4577,2448.9539,0,35,35,35,1,0.8,0.2,0.2,0.8,1,0,,,,,,,,,,,,,,,,,,,,,,,,,,,,,,,,,,,,
,,5f4469a101c96e20702a9ece,66fc97acd3725f8ed889d11e,2024-10-02_01h49.29.358,mdp,2024.2.1,Win32,144.9275362,66fa4ebf79326e780c390304,,,,,,,,,,,,,,,,,,,,,2448.9543,2448.9543,2448.9551,2449.5023,0,1,left,0.0355,,2449.5033,2449.5039,,0,,2449.5043,2449.5047,,1,,0,2449.5047,2449.5047,2449.505,2451.0016,0,36,36,36,1,0.8,0.2,0.2,0.8,1,0,,,,,,,,,,,,,,,,,,,,,,,,,,,,,,,,,,,,
,,5f4469a101c96e20702a9ece,66fc97acd3725f8ed889d11e,2024-10-02_01h49.29.358,mdp,2024.2.1,Win32,144.9275362,66fa4ebf79326e780c390304,,,,,,,,,,,,,,,,,,,,,2451.0018,2451.0018,2451.0027,2451.6482,0,0,left,0.1387,,2451.6493,2451.6498,,0,,2451.6503,2451.6506,,0,,1,2451.6506,2451.6506,2451.651,2453.1482,0,37,37,37,1,0.8,0.2,0.2,0.8,1,0,,,,,,,,,,,,,,,,,,,,,,,,,,,,,,,,,,,,
,,5f4469a101c96e20702a9ece,66fc97acd3725f8ed889d11e,2024-10-02_01h49.29.358,mdp,2024.2.1,Win32,144.9275362,66fa4ebf79326e780c390304,,,,,,,,,,,,,,,,,,,,,2453.1487,2453.1487,2453.1497,2453.6895,0,0,left,0.0286,,2453.6903,2453.6909,,0,,2453.6913,2453.6916,,0,,1,2453.6916,2453.6916,2453.6919,2455.19,0,38,38,38,1,0.8,0.2,0.2,0.8,1,0,,,,,,,,,,,,,,,,,,,,,,,,,,,,,,,,,,,,
,,5f4469a101c96e20702a9ece,66fc97acd3725f8ed889d11e,2024-10-02_01h49.29.358,mdp,2024.2.1,Win32,144.9275362,66fa4ebf79326e780c390304,,,,,,,,,,,,,,,,,,,,,2455.1904,2455.1904,2455.1909,2455.8843,0,0,left,0.1823,,2455.8852,2455.8858,,0,,2455.8864,2455.8867,,0,,1,2455.8868,2455.8868,2455.8871,2457.3838,0,39,39,39,1,0.8,0.2,0.2,0.8,1,0,,,,,,,,,,,,,,,,,,,,,,,,,,,,,,,,,,,,
,,5f4469a101c96e20702a9ece,66fc97acd3725f8ed889d11e,2024-10-02_01h49.29.358,mdp,2024.2.1,Win32,144.9275362,66fa4ebf79326e780c390304,,,,,,,,,,,,,,,,,,,,,2457.3842,2457.3842,2457.3856,2457.9186,0,0,left,0.0275,,2457.9192,2457.9197,,0,,2457.92,2457.9204,,0,,1,2457.9205,2457.9205,2457.9209,2459.4189,0,40,40,40,1,0.8,0.2,0.2,0.8,1,0,,,,,,,,,,,,,,,,,,,,,,,,,,,,,,,,,,,,
,,5f4469a101c96e20702a9ece,66fc97acd3725f8ed889d11e,2024-10-02_01h49.29.358,mdp,2024.2.1,Win32,144.9275362,66fa4ebf79326e780c390304,,,,,,,,,,,,,,,,,,,,,2459.4192,2459.4192,2459.42,2460.0041,0,0,left,0.0758,,2460.0046,2460.005,,0,,2460.0054,2460.0057,,0,,1,2460.0057,2460.0057,2460.0061,2461.5023,0,41,41,41,1,0.8,0.2,0.2,0.8,1,0,,,,,,,,,,,,,,,,,,,,,,,,,,,,,,,,,,,,
,,5f4469a101c96e20702a9ece,66fc97acd3725f8ed889d11e,2024-10-02_01h49.29.358,mdp,2024.2.1,Win32,144.9275362,66fa4ebf79326e780c390304,,,,,,,,,,,,,,,,,,,,,2461.5025,2461.5025,2461.503,2462.0784,0,0,left,0.0623,,2462.0792,2462.0796,,1,,2462.08,2462.0805,,1,,1,2462.0805,2462.0805,2462.081,2463.579,0,42,42,42,1,0.4,0.6,0.8,0.2,1,0,,,,,,,,,,,,,,,,,,,,,,,,,,,,,,,,,,,,
,,5f4469a101c96e20702a9ece,66fc97acd3725f8ed889d11e,2024-10-02_01h49.29.358,mdp,2024.2.1,Win32,144.9275362,66fa4ebf79326e780c390304,,,,,,,,,,,,,,,,,,,,,2463.5794,2463.5794,2463.5802,2464.197,0,0,left,0.1039,,2464.198,2464.1984,,1,,2464.1988,2464.1991,,1,,1,2464.1991,2464.1991,2464.1996,2465.6965,0,43,43,43,1,0.4,0.6,0.8,0.2,1,0,,,,,,,,,,,,,,,,,,,,,,,,,,,,,,,,,,,,
,,5f4469a101c96e20702a9ece,66fc97acd3725f8ed889d11e,2024-10-02_01h49.29.358,mdp,2024.2.1,Win32,144.9275362,66fa4ebf79326e780c390304,,,,,,,,,,,,,,,,,,,,,2465.6968,2465.6968,2465.6977,2466.2726,0,0,left,0.065,,2466.2731,2466.2736,,1,,2466.274,2466.2744,,1,,1,2466.2744,2466.2744,2466.2748,2467.7731,0,44,44,44,1,0.4,0.6,0.8,0.2,1,0,,,,,,,,,,,,,,,,,,,,,,,,,,,,,,,,,,,,
,,5f4469a101c96e20702a9ece,66fc97acd3725f8ed889d11e,2024-10-02_01h49.29.358,mdp,2024.2.1,Win32,144.9275362,66fa4ebf79326e780c390304,,,,,,,,,,,,,,,,,,,,,2467.7736,2467.7736,2467.7745,2468.2937,0,1,left,0.0109,,2468.2944,2468.2948,,1,,2468.2954,2468.2959,,1,,0,2468.2959,2468.2959,2468.2962,2469.7941,0,45,45,45,1,0.4,0.6,0.8,0.2,1,0,,,,,,,,,,,,,,,,,,,,,,,,,,,,,,,,,,,,
,,5f4469a101c96e20702a9ece,66fc97acd3725f8ed889d11e,2024-10-02_01h49.29.358,mdp,2024.2.1,Win32,144.9275362,66fa4ebf79326e780c390304,,,,,,,,,,,,,,,,,,,,,2469.7945,2469.7945,2469.7951,2470.3076,0,0,left,0.004,,2470.3084,2470.3089,,1,,2470.3093,2470.3096,,1,,1,2470.3097,2470.3097,2470.31,2471.8076,0,46,46,46,1,0.4,0.6,0.8,0.2,1,0,,,,,,,,,,,,,,,,,,,,,,,,,,,,,,,,,,,,
,,5f4469a101c96e20702a9ece,66fc97acd3725f8ed889d11e,2024-10-02_01h49.29.358,mdp,2024.2.1,Win32,144.9275362,66fa4ebf79326e780c390304,,,,,,,,,,,,,,,,,,,,,2471.8078,2471.8078,2471.8083,2472.3908,0,0,left,0.0713,,2472.3914,2472.392,,1,,2472.3926,2472.3929,,1,,1,2472.3929,2472.3929,2472.3933,2473.892,0,47,47,47,1,0.4,0.6,0.8,0.2,1,0,,,,,,,,,,,,,,,,,,,,,,,,,,,,,,,,,,,,
,,5f4469a101c96e20702a9ece,66fc97acd3725f8ed889d11e,2024-10-02_01h49.29.358,mdp,2024.2.1,Win32,144.9275362,66fa4ebf79326e780c390304,,,,,,,,,,,,,,,,,,,,,2473.8926,2473.8926,2473.8932,2474.5162,0,1,left,0.1118,,2474.5172,2474.5181,,1,,2474.5185,2474.5189,,0,,0,2474.5189,2474.5189,2474.5192,2476.016,0,48,48,48,1,0.4,0.6,0.8,0.2,1,0,,,,,,,,,,,,,,,,,,,,,,,,,,,,,,,,,,,,
,,5f4469a101c96e20702a9ece,66fc97acd3725f8ed889d11e,2024-10-02_01h49.29.358,mdp,2024.2.1,Win32,144.9275362,66fa4ebf79326e780c390304,,,,,,,,,,,,,,,,,,,,,2476.0163,2476.0163,2476.0167,2476.6413,0,0,left,0.111,,2476.6424,2476.643,,1,,2476.6434,2476.6437,,0,,1,2476.6437,2476.6437,2476.6441,2478.1419,0,49,49,49,1,0.6,0.4,0.4,0.6,1,0,,,,,,,,,,,,,,,,,,,,,,,,,,,,,,,,,,,,
,,5f4469a101c96e20702a9ece,66fc97acd3725f8ed889d11e,2024-10-02_01h49.29.358,mdp,2024.2.1,Win32,144.9275362,66fa4ebf79326e780c390304,,,,,,,,,,,,,,,,,,,,,,,,,,,,,,,,,,,,,,,,,,,,,,,,,,,,,,,,2478.1424,2536.6439,0,0,0,3,1,imgs/giraffe.png,imgs/elephant.png,imgs/rabbit.png,imgs/dog.png,imgs/goat.png,,,,,,,,,,,,,,,,,,,,,,,,
,,5f4469a101c96e20702a9ece,66fc97acd3725f8ed889d11e,2024-10-02_01h49.29.358,mdp,2024.2.1,Win32,144.9275362,66fa4ebf79326e780c390304,,,,,,,,,,,,,,2,seqs/st2seq46.csv,2536.6445,2541.4214,space,4.2641,,2541.4236,2541.4236,2541.4241,2542.6297,0,1,left,0.6944,,2542.6302,2545.0607,0,1,left,2545.0612,2545.0616,,1,,0,2545.0616,2545.0616,2545.062,2546.5603,0,0,0,0,1,0.2,0.8,0.6,0.4,,,,,,,,,,,,,,,1.916,,0.2,0.8,0.6,0.4,0.2,0.8,0.8,0.2,1,0,,,,,,,,,,,,
,,5f4469a101c96e20702a9ece,66fc97acd3725f8ed889d11e,2024-10-02_01h49.29.358,mdp,2024.2.1,Win32,144.9275362,66fa4ebf79326e780c390304,,,,,,,,,,,,,,,,,,,,,2546.5605,2546.5605,2546.561,2547.3452,0,0,left,0.2711,,2547.3459,2548.8172,0,1,left,2548.8178,2548.8182,,1,,0,2548.8182,2548.8182,2548.8186,2550.317,0,1,1,1,1,0.2,0.8,0.6,0.4,,,,,,,,,,,,,,,0.9569,,0.2,0.8,0.6,0.4,0.2,0.8,0.8,0.2,1,0,,,,,,,,,,,,
,,5f4469a101c96e20702a9ece,66fc97acd3725f8ed889d11e,2024-10-02_01h49.29.358,mdp,2024.2.1,Win32,144.9275362,66fa4ebf79326e780c390304,,,,,,,,,,,,,,,,,,,,,2550.3172,2550.3173,2550.3177,2551.0403,0,0,left,0.2163,,2551.0411,2551.8033,1,1,right,2551.8037,2551.8042,,0,,0,2551.8042,2551.8042,2551.8046,2553.3033,0,2,2,2,1,0.2,0.8,0.6,0.4,,,,,,,,,,,,,,,0.25,,0.2,0.8,0.6,0.4,0.2,0.8,0.8,0.2,1,0,,,,,,,,,,,,
,,5f4469a101c96e20702a9ece,66fc97acd3725f8ed889d11e,2024-10-02_01h49.29.358,mdp,2024.2.1,Win32,144.9275362,66fa4ebf79326e780c390304,,,,,,,,,,,,,,,,,,,,,2553.3035,2553.3036,2553.3041,2553.9077,1,1,right,0.0906,,2553.9082,2554.6506,1,0,right,2554.6512,2554.6514,,1,,1,2554.6515,2554.6515,2554.6519,2556.151,0,3,3,3,1,0.2,0.8,0.6,0.4,,,,,,,,,,,,,,,0.2297,,0.2,0.8,0.6,0.4,0.2,0.8,0.8,0.2,1,0,,,,,,,,,,,,
,,5f4469a101c96e20702a9ece,66fc97acd3725f8ed889d11e,2024-10-02_01h49.29.358,mdp,2024.2.1,Win32,144.9275362,66fa4ebf79326e780c390304,,,,,,,,,,,,,,,,,,,,,2556.1513,2556.1513,2556.1519,2556.9633,1,0,right,0.2989,,2556.9638,2557.6855,0,1,left,2557.6859,2557.6863,,1,,0,2557.6863,2557.6863,2557.6867,2559.185,0,4,4,4,1,0.8,0.2,0.4,0.6,,,,,,,,,,,,,,,0.2084,,0.2,0.8,0.6,0.4,0.2,0.8,0.8,0.2,1,0,,,,,,,,,,,,
,,5f4469a101c96e20702a9ece,66fc97acd3725f8ed889d11e,2024-10-02_01h49.29.358,mdp,2024.2.1,Win32,144.9275362,66fa4ebf79326e780c390304,,,,,,,,,,,,,,,,,,,,,2559.1855,2559.1855,2559.1864,2559.908,1,1,right,0.2077,,2559.9089,2560.4633,1,1,right,2560.464,2560.4644,,0,,0,2560.4644,2560.4644,2560.4647,2561.9637,0,5,5,5,1,0.8,0.2,0.4,0.6,,,,,,,,,,,,,,,0.0417,,0.2,0.8,0.6,0.4,0.2,0.8,0.8,0.2,1,0,,,,,,,,,,,,
,,5f4469a101c96e20702a9ece,66fc97acd3725f8ed889d11e,2024-10-02_01h49.29.358,mdp,2024.2.1,Win32,144.9275362,66fa4ebf79326e780c390304,,,,,,,,,,,,,,,,,,,,,2561.9639,2561.9639,2561.9645,2562.5607,1,0,right,0.0829,,2562.5613,2563.1369,1,1,right,2563.1374,2563.1378,,0,,0,2563.1378,2563.1378,2563.1382,2564.6367,0,6,6,6,1,0.8,0.2,0.4,0.6,,,,,,,,,,,,,,,0.0627,,0.8,0.2,0.4,0.6,0.2,0.8,0.8,0.2,1,0,,,,,,,,,,,,
,,5f4469a101c96e20702a9ece,66fc97acd3725f8ed889d11e,2024-10-02_01h49.29.358,mdp,2024.2.1,Win32,144.9275362,66fa4ebf79326e780c390304,,,,,,,,,,,,,,,,,,,,,2564.6372,2564.6372,2564.638,2565.4637,1,1,right,0.3128,,2565.4642,2566.1643,0,0,left,2566.165,2566.1653,,1,,1,2566.1653,2566.1653,2566.1656,2567.6645,0,7,7,7,1,0.8,0.2,0.4,0.6,,,,,,,,,,,,,,,0.1878,,0.8,0.2,0.4,0.6,0.2,0.8,0.8,0.2,1,0,,,,,,,,,,,,
,,5f4469a101c96e20702a9ece,66fc97acd3725f8ed889d11e,2024-10-02_01h49.29.358,mdp,2024.2.1,Win32,144.9275362,66fa4ebf79326e780c390304,,,,,,,,,,,,,,,,,,,,,2567.6647,2567.6647,2567.6652,2568.3659,1,1,right,0.1876,,2568.3663,2569.0258,0,1,left,2569.0263,2569.0268,,1,,0,2569.0269,2569.0269,2569.0273,2570.5261,0,8,8,8,1,0.8,0.2,0.4,0.6,,,,,,,,,,,,,,,0.1521,,0.8,0.2,0.4,0.6,0.2,0.8,0.8,0.2,1,0,,,,,,,,,,,,
,,5f4469a101c96e20702a9ece,66fc97acd3725f8ed889d11e,2024-10-02_01h49.29.358,mdp,2024.2.1,Win32,144.9275362,66fa4ebf79326e780c390304,,,,,,,,,,,,,,,,,,,,,2570.5264,2570.5264,2570.5269,2571.3733,0,0,left,0.3333,,2571.3739,2572.1244,0,1,left,2572.1249,2572.1252,,0,,0,2572.1252,2572.1252,2572.1255,2573.6233,0,9,9,9,1,0.8,0.2,0.4,0.6,,,,,,,,,,,,,,,0.2442,,0.8,0.2,0.4,0.6,0.4,0.6,0.2,0.8,1,0,,,,,,,,,,,,
,,5f4469a101c96e20702a9ece,66fc97acd3725f8ed889d11e,2024-10-02_01h49.29.358,mdp,2024.2.1,Win32,144.9275362,66fa4ebf79326e780c390304,,,,,,,,,,,,,,,,,,,,,2573.6235,2573.6235,2573.6239,2574.3455,0,0,left,0.2089,,2574.3459,2574.9849,1,1,right,2574.9857,2574.9862,,0,,0,2574.9863,2574.9863,2574.9868,2576.484,0,10,10,10,1,0.8,0.2,0.4,0.6,,,,,,,,,,,,,,,0.1258,,0.8,0.2,0.4,0.6,0.4,0.6,0.2,0.8,1,0,,,,,,,,,,,,
,,5f4469a101c96e20702a9ece,66fc97acd3725f8ed889d11e,2024-10-02_01h49.29.358,mdp,2024.2.1,Win32,144.9275362,66fa4ebf79326e780c390304,,,,,,,,,,,,,,,,,,,,,2576.4844,2576.4844,2576.4848,2577.2696,1,1,right,0.271,,2577.2703,2577.8525,1,1,right,2577.8532,2577.8536,,0,,0,2577.8536,2577.8536,2577.854,2579.353,0,11,11,11,1,0.8,0.2,0.4,0.6,,,,,,,,,,,,,,,0.0704,,0.8,0.2,0.4,0.6,0.4,0.6,0.2,0.8,1,0,,,,,,,,,,,,
,,5f4469a101c96e20702a9ece,66fc97acd3725f8ed889d11e,2024-10-02_01h49.29.358,mdp,2024.2.1,Win32,144.9275362,66fa4ebf79326e780c390304,,,,,,,,,,,,,,,,,,,,,2579.3533,2579.3533,2579.3537,2580.1096,1,0,right,0.2438,,2580.1101,2580.7422,1,0,right,2580.743,2580.7432,,0,,1,2580.7432,2580.7433,2580.7437,2582.2408,0,12,12,12,1,0.8,0.2,0.4,0.6,,,,,,,,,,,,,,,0.1196,,0.8,0.2,0.4,0.6,0.4,0.6,0.2,0.8,1,0,,,,,,,,,,,,
,,5f4469a101c96e20702a9ece,66fc97acd3725f8ed889d11e,2024-10-02_01h49.29.358,mdp,2024.2.1,Win32,144.9275362,66fa4ebf79326e780c390304,,,,,,,,,,,,,,,,,,,,,2582.2412,2582.2412,2582.2417,2582.9642,1,0,right,0.2157,,2582.9649,2583.5965,1,0,right,2583.5974,2583.5977,,1,,1,2583.5977,2583.5977,2583.5981,2585.0952,0,13,13,13,1,0.8,0.2,0.4,0.6,,,,,,,,,,,,,,,0.1194,,0.8,0.2,0.4,0.6,0.4,0.6,0.2,0.8,1,0,,,,,,,,,,,,
,,5f4469a101c96e20702a9ece,66fc97acd3725f8ed889d11e,2024-10-02_01h49.29.358,mdp,2024.2.1,Win32,144.9275362,66fa4ebf79326e780c390304,,,,,,,,,,,,,,,,,,,,,2585.0955,2585.0955,2585.0961,2585.7485,1,0,right,0.1464,,2585.749,2586.38,1,1,right,2586.3806,2586.3809,,0,,0,2586.381,2586.381,2586.3814,2587.88,0,14,14,14,1,0.8,0.2,0.4,0.6,,,,,,,,,,,,,,,0.1182,,0.8,0.2,0.4,0.6,0.4,0.6,0.2,0.8,1,0,,,,,,,,,,,,
,,5f4469a101c96e20702a9ece,66fc97acd3725f8ed889d11e,2024-10-02_01h49.29.358,mdp,2024.2.1,Win32,144.9275362,66fa4ebf79326e780c390304,,,,,,,,,,,,,,,,,,,,,2587.8802,2587.8802,2587.8807,2588.5882,1,1,right,0.2013,,2588.5888,2589.3246,1,0,right,2589.3253,2589.3256,,0,,1,2589.3257,2589.3257,2589.3261,2590.8249,0,15,15,15,1,0.8,0.2,0.4,0.6,,,,,,,,,,,,,,,0.2294,,0.8,0.2,0.4,0.6,0.2,0.8,0.6,0.4,1,0,,,,,,,,,,,,
,,5f4469a101c96e20702a9ece,66fc97acd3725f8ed889d11e,2024-10-02_01h49.29.358,mdp,2024.2.1,Win32,144.9275362,66fa4ebf79326e780c390304,,,,,,,,,,,,,,,,,,,,,2590.8253,2590.8253,2590.8262,2591.6021,1,0,right,0.2634,,2591.6028,2592.241,1,0,right,2592.2415,2592.2419,,1,,1,2592.2419,2592.2419,2592.2423,2593.7417,0,16,16,16,1,0.4,0.6,0.8,0.2,,,,,,,,,,,,,,,0.1319,,0.8,0.2,0.4,0.6,0.2,0.8,0.6,0.4,1,0,,,,,,,,,,,,
,,5f4469a101c96e20702a9ece,66fc97acd3725f8ed889d11e,2024-10-02_01h49.29.358,mdp,2024.2.1,Win32,144.9275362,66fa4ebf79326e780c390304,,,,,,,,,,,,,,,,,,,,,2593.7421,2593.7422,2593.7427,2594.5613,1,1,right,0.3056,,2594.5617,2595.6649,0,1,left,2595.6655,2595.6659,,0,,0,2595.6659,2595.6659,2595.6664,2597.1645,0,17,17,17,1,0.4,0.6,0.8,0.2,,,,,,,,,,,,,,,0.5903,,0.8,0.2,0.4,0.6,0.2,0.8,0.6,0.4,1,0,,,,,,,,,,,,
,,5f4469a101c96e20702a9ece,66fc97acd3725f8ed889d11e,2024-10-02_01h49.29.358,mdp,2024.2.1,Win32,144.9275362,66fa4ebf79326e780c390304,,,,,,,,,,,,,,,,,,,,,2597.1646,2597.1646,2597.1651,2597.9845,1,1,right,0.3055,,2597.9849,2598.9642,1,0,right,2598.9647,2598.9651,,0,,1,2598.9651,2598.9651,2598.9654,2600.4643,0,18,18,18,1,0.4,0.6,0.8,0.2,,,,,,,,,,,,,,,0.4655,,0.8,0.2,0.4,0.6,0.2,0.8,0.6,0.4,1,0,,,,,,,,,,,,
,,5f4469a101c96e20702a9ece,66fc97acd3725f8ed889d11e,2024-10-02_01h49.29.358,mdp,2024.2.1,Win32,144.9275362,66fa4ebf79326e780c390304,,,,,,,,,,,,,,,,,,,,,2600.4646,2600.4647,2600.4654,2601.1925,1,0,right,0.2148,,2601.193,2601.7832,1,0,right,2601.7841,2601.7845,,0,,1,2601.7845,2601.7845,2601.7848,2603.2829,0,19,19,19,1,0.4,0.6,0.8,0.2,,,,,,,,,,,,,,,0.0836,,0.8,0.2,0.4,0.6,0.2,0.8,0.6,0.4,1,0,,,,,,,,,,,,
,,5f4469a101c96e20702a9ece,66fc97acd3725f8ed889d11e,2024-10-02_01h49.29.358,mdp,2024.2.1,Win32,144.9275362,66fa4ebf79326e780c390304,,,,,,,,,,,,,,,,,,,,,2603.2832,2603.2832,2603.2836,2603.8811,1,1,right,0.0836,,2603.8817,2604.6302,1,1,right,2604.6307,2604.631,,1,,0,2604.6311,2604.6311,2604.6315,2606.1305,0,20,20,20,1,0.4,0.6,0.8,0.2,,,,,,,,,,,,,,,0.2358,,0.8,0.2,0.4,0.6,0.2,0.8,0.6,0.4,1,0,,,,,,,,,,,,
,,5f4469a101c96e20702a9ece,66fc97acd3725f8ed889d11e,2024-10-02_01h49.29.358,mdp,2024.2.1,Win32,144.9275362,66fa4ebf79326e780c390304,,,,,,,,,,,,,,,,,,,,,2606.1309,2606.1309,2606.1315,2606.6515,1,0,right,0.0133,,2606.652,2607.3256,1,0,right,2607.3264,2607.3267,,0,,1,2607.3267,2607.3267,2607.327,2608.8254,0,21,21,21,1,0.4,0.6,0.8,0.2,,,,,,,,,,,,,,,0.1678,,0.8,0.2,0.4,0.6,0.2,0.8,0.6,0.4,1,0,,,,,,,,,,,,
,,5f4469a101c96e20702a9ece,66fc97acd3725f8ed889d11e,2024-10-02_01h49.29.358,mdp,2024.2.1,Win32,144.9275362,66fa4ebf79326e780c390304,,,,,,,,,,,,,,,,,,,,,2608.8258,2608.8258,2608.8264,2609.4436,1,0,right,0.1044,,2609.4443,2609.9637,1,1,right,2609.9642,2609.9647,,1,,0,2609.9648,2609.9648,2609.9654,2611.4645,0,22,22,22,1,0.4,0.6,0.8,0.2,,,,,,,,,,,,,,,0.0063,,0.8,0.2,0.4,0.6,0.2,0.8,0.6,0.4,1,0,,,,,,,,,,,,
,,5f4469a101c96e20702a9ece,66fc97acd3725f8ed889d11e,2024-10-02_01h49.29.358,mdp,2024.2.1,Win32,144.9275362,66fa4ebf79326e780c390304,,,,,,,,,,,,,,,,,,,,,2611.4647,2611.4647,2611.4654,2612.1163,1,0,right,0.1385,,2612.1168,2612.7343,1,0,right,2612.735,2612.7353,,0,,1,2612.7354,2612.7354,2612.7357,2614.2344,0,23,23,23,1,0.4,0.6,0.8,0.2,,,,,,,,,,,,,,,0.1112,,0.8,0.2,0.4,0.6,0.2,0.8,0.6,0.4,1,0,,,,,,,,,,,,
,,5f4469a101c96e20702a9ece,66fc97acd3725f8ed889d11e,2024-10-02_01h49.29.358,mdp,2024.2.1,Win32,144.9275362,66fa4ebf79326e780c390304,,,,,,,,,,,,,,,,,,,,,2614.2346,2614.2346,2614.2351,2614.8941,1,0,right,0.153,,2614.8948,2616.0126,1,1,right,2616.013,2616.0134,,0,,0,2616.0134,2616.0134,2616.0137,2617.5123,0,24,24,24,1,0.4,0.6,0.8,0.2,,,,,,,,,,,,,,,0.6108,,0.8,0.2,0.4,0.6,0.2,0.8,0.6,0.4,1,0,,,,,,,,,,,,
,,5f4469a101c96e20702a9ece,66fc97acd3725f8ed889d11e,2024-10-02_01h49.29.358,mdp,2024.2.1,Win32,144.9275362,66fa4ebf79326e780c390304,,,,,,,,,,,,,,,,,,,,,2617.5126,2617.5127,2617.5131,2618.2486,1,0,right,0.2225,,2618.2491,2618.7766,1,1,right,2618.7771,2618.7775,,1,,0,2618.7775,2618.7775,2618.7778,2620.2763,0,25,25,25,1,0.4,0.6,0.8,0.2,,,,,,,,,,,,,,,0.0144,,0.8,0.2,0.4,0.6,0.2,0.8,0.6,0.4,1,0,,,,,,,,,,,,
,,5f4469a101c96e20702a9ece,66fc97acd3725f8ed889d11e,2024-10-02_01h49.29.358,mdp,2024.2.1,Win32,144.9275362,66fa4ebf79326e780c390304,,,,,,,,,,,,,,,,,,,,,2620.2768,2620.2768,2620.2775,2620.8187,1,0,right,0.0287,,2620.8195,2621.4847,1,0,right,2621.4851,2621.4855,,0,,1,2621.4856,2621.4856,2621.4859,2622.9844,0,26,26,26,1,0.4,0.6,0.8,0.2,,,,,,,,,,,,,,,0.153,,0.4,0.6,0.6,0.4,0.2,0.8,0.6,0.4,1,0,,,,,,,,,,,,
,,5f4469a101c96e20702a9ece,66fc97acd3725f8ed889d11e,2024-10-02_01h49.29.358,mdp,2024.2.1,Win32,144.9275362,66fa4ebf79326e780c390304,,,,,,,,,,,,,,,,,,,,,2622.9847,2622.9847,2622.9853,2625.2274,1,0,right,1.7352,,2625.2279,2625.9785,1,0,right,2625.9792,2625.9795,,0,,1,2625.9796,2625.9796,2625.9799,2627.478,0,27,27,27,1,0.4,0.6,0.8,0.2,,,,,,,,,,,,,,,0.2373,,0.6,0.4,0.8,0.2,0.2,0.8,0.6,0.4,1,0,,,,,,,,,,,,
,,5f4469a101c96e20702a9ece,66fc97acd3725f8ed889d11e,2024-10-02_01h49.29.358,mdp,2024.2.1,Win32,144.9275362,66fa4ebf79326e780c390304,,,,,,,,,,,,,,,,,,,,,2627.4782,2627.4782,2627.479,2628.1656,1,0,right,0.1742,,2628.1665,2628.8046,1,0,right,2628.8056,2628.8059,,0,,1,2628.8059,2628.8059,2628.8062,2630.3036,0,28,28,28,1,0.4,0.6,0.8,0.2,,,,,,,,,,,,,,,0.1255,,0.6,0.4,0.8,0.2,0.2,0.8,0.6,0.4,1,0,,,,,,,,,,,,
,,5f4469a101c96e20702a9ece,66fc97acd3725f8ed889d11e,2024-10-02_01h49.29.358,mdp,2024.2.1,Win32,144.9275362,66fa4ebf79326e780c390304,,,,,,,,,,,,,,,,,,,,,2630.3039,2630.3039,2630.3045,2631.2906,1,1,right,0.4798,,2631.2912,2632.1935,1,1,right,2632.1942,2632.1946,,1,,0,2632.1946,2632.1946,2632.1949,2633.6932,0,29,29,29,1,0.2,0.8,0.6,0.4,,,,,,,,,,,,,,,0.3895,,0.6,0.4,0.8,0.2,0.2,0.8,0.6,0.4,1,0,,,,,,,,,,,,
,,5f4469a101c96e20702a9ece,66fc97acd3725f8ed889d11e,2024-10-02_01h49.29.358,mdp,2024.2.1,Win32,144.9275362,66fa4ebf79326e780c390304,,,,,,,,,,,,,,,,,,,,,2633.6934,2633.6934,2633.694,2634.6511,1,0,right,0.451,,2634.6518,2635.5126,1,0,right,2635.5133,2635.5135,,0,,1,2635.5136,2635.5136,2635.5141,2637.013,0,30,30,30,1,0.2,0.8,0.6,0.4,,,,,,,,,,,,,,,0.3475,,0.6,0.4,0.8,0.2,0.2,0.8,0.6,0.4,1,0,,,,,,,,,,,,
,,5f4469a101c96e20702a9ece,66fc97acd3725f8ed889d11e,2024-10-02_01h49.29.358,mdp,2024.2.1,Win32,144.9275362,66fa4ebf79326e780c390304,,,,,,,,,,,,,,,,,,,,,2637.0133,2637.0133,2637.0137,2637.6581,1,0,right,0.1318,,2637.6586,2638.1933,1,0,right,2638.1938,2638.1943,,1,,1,2638.1943,2638.1943,2638.1946,2639.6932,0,31,31,31,1,0.2,0.8,0.6,0.4,,,,,,,,,,,,,,,0.028,,0.4,0.6,0.6,0.4,0.2,0.8,0.6,0.4,1,0,,,,,,,,,,,,
,,5f4469a101c96e20702a9ece,66fc97acd3725f8ed889d11e,2024-10-02_01h49.29.358,mdp,2024.2.1,Win32,144.9275362,66fa4ebf79326e780c390304,,,,,,,,,,,,,,,,,,,,,2639.6936,2639.6936,2639.6942,2641.2425,1,1,right,1.0357,,2641.2433,2641.9292,1,0,right,2641.9297,2641.93,,0,,1,2641.93,2641.93,2641.9303,2643.4293,0,32,32,32,1,0.2,0.8,0.6,0.4,,,,,,,,,,,,,,,0.1734,,0.4,0.6,0.6,0.4,0.2,0.8,0.6,0.4,1,0,,,,,,,,,,,,
,,5f4469a101c96e20702a9ece,66fc97acd3725f8ed889d11e,2024-10-02_01h49.29.358,mdp,2024.2.1,Win32,144.9275362,66fa4ebf79326e780c390304,,,,,,,,,,,,,,,,,,,,,2643.4296,2643.4296,2643.4301,2644.1442,1,0,right,0.2014,,2644.1447,2644.735,1,0,right,2644.7355,2644.7359,,1,,1,2644.736,2644.736,2644.7365,2646.235,0,33,33,33,1,0.2,0.8,0.6,0.4,,,,,,,,,,,,,,,0.0824,,0.4,0.6,0.6,0.4,0.2,0.8,0.6,0.4,1,0,,,,,,,,,,,,
,,5f4469a101c96e20702a9ece,66fc97acd3725f8ed889d11e,2024-10-02_01h49.29.358,mdp,2024.2.1,Win32,144.9275362,66fa4ebf79326e780c390304,,,,,,,,,,,,,,,,,,,,,2646.2353,2646.2353,2646.236,2646.7486,1,0,right,0.0003,,2646.749,2647.6308,1,0,right,2647.6312,2647.6315,,0,,1,2647.6316,2647.6316,2647.6319,2649.1313,0,34,34,34,1,0.2,0.8,0.6,0.4,,,,,,,,,,,,,,,0.3754,,0.4,0.6,0.6,0.4,0.2,0.8,0.6,0.4,1,0,,,,,,,,,,,,
,,5f4469a101c96e20702a9ece,66fc97acd3725f8ed889d11e,2024-10-02_01h49.29.358,mdp,2024.2.1,Win32,144.9275362,66fa4ebf79326e780c390304,,,,,,,,,,,,,,,,,,,,,2649.1316,2649.1316,2649.1323,2649.7279,1,1,right,0.0835,,2649.7285,2651.4511,1,1,right,2651.4519,2651.4523,,0,,0,2651.4523,2651.4523,2651.4526,2652.9506,0,35,35,35,1,0.2,0.8,0.6,0.4,,,,,,,,,,,,,,,1.2161,,0.4,0.6,0.6,0.4,0.2,0.8,0.6,0.4,1,0,,,,,,,,,,,,
,,5f4469a101c96e20702a9ece,66fc97acd3725f8ed889d11e,2024-10-02_01h49.29.358,mdp,2024.2.1,Win32,144.9275362,66fa4ebf79326e780c390304,,,,,,,,,,,,,,,,,,,,,2652.9508,2652.9508,2652.9512,2654.6031,1,0,right,1.1386,,2654.6038,2655.3957,1,1,right,2655.3964,2655.3967,,1,,0,2655.3967,2655.3967,2655.397,2656.8949,0,36,36,36,1,0.2,0.8,0.6,0.4,,,,,,,,,,,,,,,0.2854,,0.4,0.6,0.6,0.4,0.2,0.8,0.6,0.4,1,0,,,,,,,,,,,,
,,5f4469a101c96e20702a9ece,66fc97acd3725f8ed889d11e,2024-10-02_01h49.29.358,mdp,2024.2.1,Win32,144.9275362,66fa4ebf79326e780c390304,,,,,,,,,,,,,,,,,,,,,2656.8952,2656.8952,2656.8956,2657.4232,1,0,right,0.0143,,2657.4239,2657.9988,1,1,right,2657.9994,2657.9997,,1,,0,2657.9997,2657.9997,2658.0001,2659.4992,0,37,37,37,1,0.2,0.8,0.6,0.4,,,,,,,,,,,,,,,0.0624,,0.8,0.2,0.2,0.8,0.2,0.8,0.6,0.4,1,0,,,,,,,,,,,,
,,5f4469a101c96e20702a9ece,66fc97acd3725f8ed889d11e,2024-10-02_01h49.29.358,mdp,2024.2.1,Win32,144.9275362,66fa4ebf79326e780c390304,,,,,,,,,,,,,,,,,,,,,2659.4995,2659.4995,2659.5003,2660.353,1,1,right,0.3477,,2660.3537,2660.9991,1,1,right,2660.9995,2661,,0,,0,2661,2661,2661.0004,2662.4989,0,38,38,38,1,0.2,0.8,0.6,0.4,,,,,,,,,,,,,,,0.1325,,0.8,0.2,0.2,0.8,0.2,0.8,0.6,0.4,1,0,,,,,,,,,,,,
,,5f4469a101c96e20702a9ece,66fc97acd3725f8ed889d11e,2024-10-02_01h49.29.358,mdp,2024.2.1,Win32,144.9275362,66fa4ebf79326e780c390304,,,,,,,,,,,,,,,,,,,,,2662.4991,2662.4991,2662.4997,2663.1725,1,0,right,0.1597,,2663.1732,2663.8878,1,1,right,2663.8882,2663.8886,,1,,0,2663.8886,2663.8886,2663.8889,2665.3883,0,39,39,39,1,0.2,0.8,0.6,0.4,,,,,,,,,,,,,,,0.2083,,0.8,0.2,0.2,0.8,0.2,0.8,0.6,0.4,1,0,,,,,,,,,,,,
,,5f4469a101c96e20702a9ece,66fc97acd3725f8ed889d11e,2024-10-02_01h49.29.358,mdp,2024.2.1,Win32,144.9275362,66fa4ebf79326e780c390304,,,,,,,,,,,,,,,,,,,,,2665.3885,2665.3885,2665.3891,2666.0269,1,0,right,0.1247,,2666.0276,2666.7627,1,0,right,2666.7634,2666.7637,,0,,1,2666.7638,2666.7638,2666.7642,2668.2631,0,40,40,40,1,0.2,0.8,0.6,0.4,,,,,,,,,,,,,,,0.2224,,0.8,0.2,0.2,0.8,0.2,0.8,0.6,0.4,1,0,,,,,,,,,,,,
,,5f4469a101c96e20702a9ece,66fc97acd3725f8ed889d11e,2024-10-02_01h49.29.358,mdp,2024.2.1,Win32,144.9275362,66fa4ebf79326e780c390304,,,,,,,,,,,,,,,,,,,,,2668.2635,2668.2635,2668.2642,2669.2489,1,0,right,0.4724,,2669.2494,2669.9644,0,0,left,2669.9649,2669.9652,,0,,1,2669.9652,2669.9652,2669.9655,2671.4649,0,41,41,41,1,0.2,0.8,0.6,0.4,,,,,,,,,,,,,,,0.2019,,0.8,0.2,0.2,0.8,0.2,0.8,0.6,0.4,1,0,,,,,,,,,,,,
,,5f4469a101c96e20702a9ece,66fc97acd3725f8ed889d11e,2024-10-02_01h49.29.358,mdp,2024.2.1,Win32,144.9275362,66fa4ebf79326e780c390304,,,,,,,,,,,,,,,,,,,,,2671.4651,2671.4652,2671.4658,2672.2637,1,0,right,0.2856,,2672.2642,2673.1454,0,0,left,2673.1462,2673.1468,,0,,1,2673.1468,2673.1468,2673.1473,2674.645,0,42,42,42,1,0.2,0.8,0.6,0.4,,,,,,,,,,,,,,,0.3688,,0.8,0.2,0.2,0.8,0.2,0.8,0.6,0.4,1,0,,,,,,,,,,,,
,,5f4469a101c96e20702a9ece,66fc97acd3725f8ed889d11e,2024-10-02_01h49.29.358,mdp,2024.2.1,Win32,144.9275362,66fa4ebf79326e780c390304,,,,,,,,,,,,,,,,,,,,,2674.6454,2674.6454,2674.6461,2675.5476,1,0,right,0.3886,,2675.5481,2676.3256,1,1,right,2676.3263,2676.3266,,1,,0,2676.3266,2676.3266,2676.327,2677.8261,0,43,43,43,1,0.4,0.6,0.8,0.2,,,,,,,,,,,,,,,0.2639,,0.8,0.2,0.2,0.8,0.2,0.8,0.6,0.4,1,0,,,,,,,,,,,,
,,5f4469a101c96e20702a9ece,66fc97acd3725f8ed889d11e,2024-10-02_01h49.29.358,mdp,2024.2.1,Win32,144.9275362,66fa4ebf79326e780c390304,,,,,,,,,,,,,,,,,,,,,2677.8263,2677.8263,2677.8268,2678.5685,1,0,right,0.2297,,2678.5691,2679.0968,1,1,right,2679.0975,2679.0978,,1,,0,2679.0978,2679.0978,2679.0981,2680.5962,0,44,44,44,1,0.4,0.6,0.8,0.2,,,,,,,,,,,,,,,0.0148,,0.8,0.2,0.2,0.8,0.2,0.8,0.6,0.4,1,0,,,,,,,,,,,,
,,5f4469a101c96e20702a9ece,66fc97acd3725f8ed889d11e,2024-10-02_01h49.29.358,mdp,2024.2.1,Win32,144.9275362,66fa4ebf79326e780c390304,,,,,,,,,,,,,,,,,,,,,2680.5964,2680.5964,2680.5968,2681.173,1,1,right,0.0632,,2681.1736,2681.7703,1,1,right,2681.7709,2681.7712,,0,,0,2681.7712,2681.7712,2681.7716,2683.27,0,45,45,45,1,0.4,0.6,0.8,0.2,,,,,,,,,,,,,,,0.0839,,0.8,0.2,0.2,0.8,0.2,0.8,0.6,0.4,1,0,,,,,,,,,,,,
,,5f4469a101c96e20702a9ece,66fc97acd3725f8ed889d11e,2024-10-02_01h49.29.358,mdp,2024.2.1,Win32,144.9275362,66fa4ebf79326e780c390304,,,,,,,,,,,,,,,,,,,,,2683.2702,2683.2702,2683.2707,2684.4297,0,1,left,0.6529,,2684.4301,2684.9931,1,0,right,2684.9938,2684.9941,,0,,1,2684.9941,2684.9941,2684.9945,2686.4926,0,46,46,46,1,0.4,0.6,0.8,0.2,,,,,,,,,,,,,,,0.05,,0.6,0.4,0.4,0.6,0.2,0.8,0.6,0.4,1,0,,,,,,,,,,,,
,,5f4469a101c96e20702a9ece,66fc97acd3725f8ed889d11e,2024-10-02_01h49.29.358,mdp,2024.2.1,Win32,144.9275362,66fa4ebf79326e780c390304,,,,,,,,,,,,,,,,,,,,,2686.4929,2686.4929,2686.4933,2687.249,0,0,left,0.2425,,2687.2495,2687.9369,1,1,right,2687.9376,2687.9379,,1,,0,2687.9379,2687.9379,2687.9382,2689.4365,0,47,47,47,1,0.4,0.6,0.8,0.2,,,,,,,,,,,,,,,0.1814,,0.6,0.4,0.4,0.6,0.2,0.8,0.6,0.4,1,0,,,,,,,,,,,,
,,5f4469a101c96e20702a9ece,66fc97acd3725f8ed889d11e,2024-10-02_01h49.29.358,mdp,2024.2.1,Win32,144.9275362,66fa4ebf79326e780c390304,,,,,,,,,,,,,,,,,,,,,2689.4369,2689.4369,2689.4375,2690.0346,0,1,left,0.0833,,2690.035,2690.555,0,0,left,2690.5556,2690.5559,,1,,1,2690.5559,2690.5559,2690.5563,2692.0552,0,48,48,48,1,0.4,0.6,0.8,0.2,,,,,,,,,,,,,,,0.007,,0.6,0.4,0.4,0.6,0.2,0.8,0.6,0.4,1,0,,,,,,,,,,,,
,,5f4469a101c96e20702a9ece,66fc97acd3725f8ed889d11e,2024-10-02_01h49.29.358,mdp,2024.2.1,Win32,144.9275362,66fa4ebf79326e780c390304,,,,,,,,,,,,,,,,,,,,,2692.0555,2692.0555,2692.056,2693.9644,0,0,left,1.3952,,2693.965,2694.7488,1,1,right,2694.7494,2694.7497,,1,,0,2694.7498,2694.7498,2694.7501,2696.2487,0,49,49,49,1,0.6,0.4,0.4,0.6,,,,,,,,,,,,,,,0.2772,,0.6,0.4,0.4,0.6,0.2,0.8,0.6,0.4,1,0,,,,,,,,,,,,
,,5f4469a101c96e20702a9ece,66fc97acd3725f8ed889d11e,2024-10-02_01h49.29.358,mdp,2024.2.1,Win32,144.9275362,66fa4ebf79326e780c390304,,,,,,,,,,,,,,,,,,,,,,,,,,,,,,,,,,,,,,,,,,,,,,,,,,,,,,,,2696.2488,2754.7501,0,1,1,5,1,imgs/giraffe.png,imgs/cat.png,imgs/squirrel.png,imgs/lion.png,imgs/rabbit.png,,,,,,,,,,,,,,,,,,,,,,,,
,,5f4469a101c96e20702a9ece,66fc97acd3725f8ed889d11e,2024-10-02_01h49.29.358,mdp,2024.2.1,Win32,144.9275362,66fa4ebf79326e780c390304,,,,,,,,,,,,,,3,seqs/st3seq47.csv,2754.7511,2764.0836,space,8.8202,,2764.0878,2764.0878,2764.0885,2765.3238,1,1,right,0.7262,,2765.3247,2766.1922,1,1,right,2766.1928,2767.0395,1,0,right,1,2767.0396,2767.0396,2767.0405,2768.5396,0,0,0,0,1,0.6,0.4,0.4,0.6,,,,,,,,,,,,,,,0.3551,,0.8,0.2,0.4,0.6,0.8,0.2,0.2,0.8,,,0.3277,,0.6,0.4,0.4,0.6,0.6,0.4,0.8,0.2,1,0
,,5f4469a101c96e20702a9ece,66fc97acd3725f8ed889d11e,2024-10-02_01h49.29.358,mdp,2024.2.1,Win32,144.9275362,66fa4ebf79326e780c390304,,,,,,,,,,,,,,,,,,,,,2768.54,2768.5401,2768.5406,2769.5463,1,1,right,0.4941,,2769.5476,2770.3313,1,0,right,2770.3326,2771.0878,0,0,left,1,2771.0879,2771.0879,2771.0885,2772.5883,0,1,1,1,1,0.6,0.4,0.4,0.6,,,,,,,,,,,,,,,0.2786,,0.8,0.2,0.4,0.6,0.8,0.2,0.2,0.8,,,0.2434,,0.6,0.4,0.4,0.6,0.6,0.4,0.8,0.2,1,0
,,5f4469a101c96e20702a9ece,66fc97acd3725f8ed889d11e,2024-10-02_01h49.29.358,mdp,2024.2.1,Win32,144.9275362,66fa4ebf79326e780c390304,,,,,,,,,,,,,,,,,,,,,2772.5888,2772.5888,2772.5893,2773.3311,1,1,right,0.2287,,2773.3319,2774.0745,1,1,right,2774.0756,2774.9219,1,0,right,1,2774.9219,2774.9219,2774.9225,2776.4215,0,2,2,2,1,0.6,0.4,0.4,0.6,,,,,,,,,,,,,,,0.2365,,0.8,0.2,0.4,0.6,0.8,0.2,0.2,0.8,,,0.3288,,0.6,0.4,0.4,0.6,0.6,0.4,0.8,0.2,1,0
,,5f4469a101c96e20702a9ece,66fc97acd3725f8ed889d11e,2024-10-02_01h49.29.358,mdp,2024.2.1,Win32,144.9275362,66fa4ebf79326e780c390304,,,,,,,,,,,,,,,,,,,,,2776.4219,2776.422,2776.4225,2777.3378,1,1,right,0.4071,,2777.3386,2778.1157,1,1,right,2778.1163,2779.2686,1,0,right,1,2779.2686,2779.2686,2779.2694,2780.7691,0,3,3,3,1,0.6,0.4,0.4,0.6,,,,,,,,,,,,,,,0.2746,,0.8,0.2,0.4,0.6,0.8,0.2,0.2,0.8,,,0.6463,,0.6,0.4,0.4,0.6,0.6,0.4,0.8,0.2,1,0
,,5f4469a101c96e20702a9ece,66fc97acd3725f8ed889d11e,2024-10-02_01h49.29.358,mdp,2024.2.1,Win32,144.9275362,66fa4ebf79326e780c390304,,,,,,,,,,,,,,,,,,,,,2780.7695,2780.7695,2780.77,2781.5192,1,0,right,0.2367,,2781.5203,2783.4841,0,0,left,2783.4848,2784.9216,1,1,right,0,2784.9216,2784.9216,2784.9224,2786.4218,0,4,4,4,1,0.6,0.4,0.4,0.6,,,,,,,,,,,,,,,1.4444,,0.8,0.2,0.4,0.6,0.8,0.2,0.2,0.8,,,0.9253,,0.4,0.6,0.6,0.4,0.6,0.4,0.8,0.2,1,0
,,5f4469a101c96e20702a9ece,66fc97acd3725f8ed889d11e,2024-10-02_01h49.29.358,mdp,2024.2.1,Win32,144.9275362,66fa4ebf79326e780c390304,,,,,,,,,,,,,,,,,,,,,2786.4222,2786.4222,2786.4227,2787.1921,1,0,right,0.2589,,2787.1927,2788.387,0,1,left,2788.3876,2789.5672,1,0,right,1,2789.5673,2789.5673,2789.5681,2791.0676,0,5,5,5,1,0.6,0.4,0.4,0.6,,,,,,,,,,,,,,,0.6898,,0.8,0.2,0.4,0.6,0.8,0.2,0.2,0.8,,,0.6633,,0.4,0.6,0.6,0.4,0.6,0.4,0.8,0.2,1,0
,,5f4469a101c96e20702a9ece,66fc97acd3725f8ed889d11e,2024-10-02_01h49.29.358,mdp,2024.2.1,Win32,144.9275362,66fa4ebf79326e780c390304,,,,,,,,,,,,,,,,,,,,,2791.0679,2791.0679,2791.0689,2792.4146,1,0,right,0.8354,,2792.4153,2793.5047,0,0,left,2793.5056,2794.5542,0,0,left,1,2794.5543,2794.5543,2794.5553,2796.0538,0,6,6,6,1,0.6,0.4,0.4,0.6,,,,,,,,,,,,,,,0.5766,,0.8,0.2,0.4,0.6,0.8,0.2,0.2,0.8,,,0.5363,,0.4,0.6,0.6,0.4,0.6,0.4,0.8,0.2,1,0
,,5f4469a101c96e20702a9ece,66fc97acd3725f8ed889d11e,2024-10-02_01h49.29.358,mdp,2024.2.1,Win32,144.9275362,66fa4ebf79326e780c390304,,,,,,,,,,,,,,,,,,,,,2796.0543,2796.0543,2796.0551,2796.9288,1,1,right,0.3607,,2796.9299,2798.6027,1,1,right,2798.6039,2799.3802,1,0,right,1,2799.3803,2799.3803,2799.3813,2800.8797,0,7,7,7,1,0.6,0.4,0.4,0.6,,,,,,,,,,,,,,,1.1548,,0.8,0.2,0.4,0.6,0.8,0.2,0.2,0.8,,,0.2651,,0.4,0.6,0.6,0.4,0.6,0.4,0.8,0.2,1,0
,,5f4469a101c96e20702a9ece,66fc97acd3725f8ed889d11e,2024-10-02_01h49.29.358,mdp,2024.2.1,Win32,144.9275362,66fa4ebf79326e780c390304,,,,,,,,,,,,,,,,,,,,,2800.8799,2800.8799,2800.8807,2801.6509,1,1,right,0.2646,,2801.6517,2802.749,1,1,right,2802.75,2803.5403,1,0,right,1,2803.5403,2803.5403,2803.5409,2805.0397,0,8,8,8,1,0.6,0.4,0.4,0.6,,,,,,,,,,,,,,,0.5896,,0.8,0.2,0.4,0.6,0.8,0.2,0.2,0.8,,,0.2778,,0.4,0.6,0.6,0.4,0.6,0.4,0.8,0.2,1,0
,,5f4469a101c96e20702a9ece,66fc97acd3725f8ed889d11e,2024-10-02_01h49.29.358,mdp,2024.2.1,Win32,144.9275362,66fa4ebf79326e780c390304,,,,,,,,,,,,,,,,,,,,,2805.0402,2805.0402,2805.0411,2805.7966,1,1,right,0.2447,,2805.7973,2806.6018,1,1,right,2806.6025,2807.4288,1,0,right,1,2807.4289,2807.429,2807.4298,2808.9288,0,9,9,9,1,0.6,0.4,0.4,0.6,,,,,,,,,,,,,,,0.295,,0.8,0.2,0.4,0.6,0.8,0.2,0.2,0.8,,,0.3189,,0.4,0.6,0.6,0.4,0.6,0.4,0.8,0.2,1,0
,,5f4469a101c96e20702a9ece,66fc97acd3725f8ed889d11e,2024-10-02_01h49.29.358,mdp,2024.2.1,Win32,144.9275362,66fa4ebf79326e780c390304,,,,,,,,,,,,,,,,,,,,,2808.9294,2808.9295,2808.9308,2810.3117,1,1,right,0.868,,2810.3126,2811.3317,1,0,right,2811.3323,2812.3804,0,0,left,1,2812.3806,2812.3806,2812.3811,2813.8804,0,10,10,10,1,0.6,0.4,0.4,0.6,,,,,,,,,,,,,,,0.5114,,0.8,0.2,0.4,0.6,0.2,0.8,0.8,0.2,,,0.5373,,0.4,0.6,0.6,0.4,0.6,0.4,0.8,0.2,1,0
,,5f4469a101c96e20702a9ece,66fc97acd3725f8ed889d11e,2024-10-02_01h49.29.358,mdp,2024.2.1,Win32,144.9275362,66fa4ebf79326e780c390304,,,,,,,,,,,,,,,,,,,,,2813.8808,2813.8808,2813.8815,2814.9215,1,0,right,0.5325,,2814.9221,2816.0334,0,0,left,2816.0344,2817.0959,0,1,left,0,2817.096,2817.096,2817.0968,2818.5954,0,11,11,11,1,0.6,0.4,0.4,0.6,,,,,,,,,,,,,,,0.5993,,0.8,0.2,0.4,0.6,0.2,0.8,0.8,0.2,,,0.548,,0.4,0.6,0.6,0.4,0.6,0.4,0.8,0.2,1,0
,,5f4469a101c96e20702a9ece,66fc97acd3725f8ed889d11e,2024-10-02_01h49.29.358,mdp,2024.2.1,Win32,144.9275362,66fa4ebf79326e780c390304,,,,,,,,,,,,,,,,,,,,,2818.5961,2818.5961,2818.5967,2819.4921,1,1,right,0.3816,,2819.4931,2820.429,1,0,right,2820.43,2821.436,0,1,left,0,2821.436,2821.436,2821.4368,2822.9361,0,12,12,12,1,0.6,0.4,0.4,0.6,,,,,,,,,,,,,,,0.4189,,0.8,0.2,0.4,0.6,0.2,0.8,0.8,0.2,,,0.5042,,0.4,0.6,0.6,0.4,0.6,0.4,0.8,0.2,1,0
,,5f4469a101c96e20702a9ece,66fc97acd3725f8ed889d11e,2024-10-02_01h49.29.358,mdp,2024.2.1,Win32,144.9275362,66fa4ebf79326e780c390304,,,,,,,,,,,,,,,,,,,,,2822.9367,2822.9367,2822.9376,2824.8315,1,1,right,1.3841,,2824.8321,2825.6236,1,0,right,2825.6245,2826.6231,0,0,left,1,2826.6231,2826.6232,2826.624,2828.1234,0,13,13,13,1,0.6,0.4,0.4,0.6,,,,,,,,,,,,,,,0.2846,,0.8,0.2,0.4,0.6,0.2,0.8,0.8,0.2,,,0.4874,,0.4,0.6,0.6,0.4,0.2,0.8,0.6,0.4,1,0
,,5f4469a101c96e20702a9ece,66fc97acd3725f8ed889d11e,2024-10-02_01h49.29.358,mdp,2024.2.1,Win32,144.9275362,66fa4ebf79326e780c390304,,,,,,,,,,,,,,,,,,,,,2828.1238,2828.1238,2828.1244,2829.2556,1,1,right,0.6185,,2829.2562,2830.1578,1,0,right,2830.1585,2831.1655,0,1,left,0,2831.1655,2831.1655,2831.1661,2832.6653,0,14,14,14,1,0.6,0.4,0.4,0.6,,,,,,,,,,,,,,,0.392,,0.8,0.2,0.4,0.6,0.2,0.8,0.8,0.2,,,0.5012,,0.4,0.6,0.6,0.4,0.2,0.8,0.6,0.4,1,0
,,5f4469a101c96e20702a9ece,66fc97acd3725f8ed889d11e,2024-10-02_01h49.29.358,mdp,2024.2.1,Win32,144.9275362,66fa4ebf79326e780c390304,,,,,,,,,,,,,,,,,,,,,2832.6658,2832.6658,2832.6662,2833.7423,1,0,right,0.5633,,2833.7434,2834.5677,1,1,right,2834.5683,2835.5398,1,1,right,0,2835.5399,2835.5399,2835.5405,2837.0404,0,15,15,15,1,0.6,0.4,0.4,0.6,,,,,,,,,,,,,,,0.3069,,0.8,0.2,0.4,0.6,0.2,0.8,0.8,0.2,,,0.4618,,0.4,0.6,0.6,0.4,0.2,0.8,0.6,0.4,1,0
,,5f4469a101c96e20702a9ece,66fc97acd3725f8ed889d11e,2024-10-02_01h49.29.358,mdp,2024.2.1,Win32,144.9275362,66fa4ebf79326e780c390304,,,,,,,,,,,,,,,,,,,,,2837.0407,2837.0407,2837.0413,2838.0127,1,1,right,0.4581,,2838.0137,2839.0683,1,1,right,2839.0693,2839.8667,1,0,right,1,2839.8668,2839.8668,2839.8678,2841.3666,0,16,16,16,1,0.6,0.4,0.4,0.6,,,,,,,,,,,,,,,0.5376,,0.8,0.2,0.4,0.6,0.6,0.4,0.4,0.6,,,0.2847,,0.4,0.6,0.6,0.4,0.2,0.8,0.6,0.4,1,0
,,5f4469a101c96e20702a9ece,66fc97acd3725f8ed889d11e,2024-10-02_01h49.29.358,mdp,2024.2.1,Win32,144.9275362,66fa4ebf79326e780c390304,,,,,,,,,,,,,,,,,,,,,2841.367,2841.367,2841.3676,2844.1378,1,0,right,2.2573,,2844.1384,2844.9845,1,0,right,2844.9854,2845.9987,0,1,left,0,2845.9987,2845.9987,2845.9998,2847.4988,0,17,17,17,1,0.6,0.4,0.4,0.6,,,,,,,,,,,,,,,0.3289,,0.8,0.2,0.4,0.6,0.6,0.4,0.4,0.6,,,0.4941,,0.4,0.6,0.6,0.4,0.2,0.8,0.6,0.4,1,0
,,5f4469a101c96e20702a9ece,66fc97acd3725f8ed889d11e,2024-10-02_01h49.29.358,mdp,2024.2.1,Win32,144.9275362,66fa4ebf79326e780c390304,,,,,,,,,,,,,,,,,,,,,2847.4993,2847.4993,2847.5004,2849.1169,1,1,right,1.1053,,2849.118,2850.1585,1,1,right,2850.1591,2850.9567,1,1,right,0,2850.9567,2850.9567,2850.9572,2852.457,0,18,18,18,1,0.6,0.4,0.4,0.6,,,,,,,,,,,,,,,0.5227,,0.8,0.2,0.4,0.6,0.6,0.4,0.4,0.6,,,0.2805,,0.4,0.6,0.6,0.4,0.2,0.8,0.6,0.4,1,0
,,5f4469a101c96e20702a9ece,66fc97acd3725f8ed889d11e,2024-10-02_01h49.29.358,mdp,2024.2.1,Win32,144.9275362,66fa4ebf79326e780c390304,,,,,,,,,,,,,,,,,,,,,2852.4573,2852.4574,2852.4579,2854.0677,1,1,right,1.0999,,2854.0682,2854.8183,1,1,right,2854.8193,2855.6232,1,1,right,0,2855.6233,2855.6233,2855.624,2857.1236,0,19,19,19,1,0.6,0.4,0.4,0.6,,,,,,,,,,,,,,,0.2362,,0.8,0.2,0.4,0.6,0.6,0.4,0.4,0.6,,,0.2945,,0.4,0.6,0.6,0.4,0.2,0.8,0.6,0.4,1,0
,,5f4469a101c96e20702a9ece,66fc97acd3725f8ed889d11e,2024-10-02_01h49.29.358,mdp,2024.2.1,Win32,144.9275362,66fa4ebf79326e780c390304,,,,,,,,,,,,,,,,,,,,,2857.1243,2857.1243,2857.1251,2858.408,1,1,right,0.7749,,2858.4088,2859.1866,1,1,right,2859.1876,2860.0131,1,0,right,1,2860.0133,2860.0133,2860.0144,2861.5124,0,20,20,20,1,0.6,0.4,0.4,0.6,,,,,,,,,,,,,,,0.2714,,0.8,0.2,0.4,0.6,0.6,0.4,0.4,0.6,,,0.3129,,0.4,0.6,0.6,0.4,0.2,0.8,0.6,0.4,1,0
,,5f4469a101c96e20702a9ece,66fc97acd3725f8ed889d11e,2024-10-02_01h49.29.358,mdp,2024.2.1,Win32,144.9275362,66fa4ebf79326e780c390304,,,,,,,,,,,,,,,,,,,,,2861.5127,2861.5127,2861.5134,2862.5542,1,1,right,0.5288,,2862.5554,2863.4387,1,1,right,2863.4397,2864.2835,1,0,right,1,2864.2835,2864.2836,2864.2845,2865.7833,0,21,21,21,1,0.6,0.4,0.4,0.6,,,,,,,,,,,,,,,0.3756,,0.8,0.2,0.4,0.6,0.6,0.4,0.4,0.6,,,0.3337,,0.4,0.6,0.6,0.4,0.2,0.8,0.6,0.4,1,0
,,5f4469a101c96e20702a9ece,66fc97acd3725f8ed889d11e,2024-10-02_01h49.29.358,mdp,2024.2.1,Win32,144.9275362,66fa4ebf79326e780c390304,,,,,,,,,,,,,,,,,,,,,2865.7835,2865.7835,2865.7841,2866.9011,1,1,right,0.6079,,2866.9021,2867.6998,1,1,right,2867.7008,2868.5958,1,0,right,1,2868.596,2868.596,2868.597,2870.0962,0,22,22,22,1,0.6,0.4,0.4,0.6,,,,,,,,,,,,,,,0.2923,,0.8,0.2,0.4,0.6,0.6,0.4,0.4,0.6,,,0.3898,,0.4,0.6,0.6,0.4,0.2,0.8,0.6,0.4,1,0
,,5f4469a101c96e20702a9ece,66fc97acd3725f8ed889d11e,2024-10-02_01h49.29.358,mdp,2024.2.1,Win32,144.9275362,66fa4ebf79326e780c390304,,,,,,,,,,,,,,,,,,,,,2870.0967,2870.0967,2870.0975,2870.8878,1,1,right,0.279,,2870.8885,2871.7418,1,0,right,2871.7425,2872.7145,0,1,left,0,2872.7146,2872.7146,2872.7157,2874.2137,0,23,23,23,1,0.6,0.4,0.4,0.6,,,,,,,,,,,,,,,0.3406,,0.8,0.2,0.4,0.6,0.6,0.4,0.4,0.6,,,0.4603,,0.4,0.6,0.6,0.4,0.2,0.8,0.6,0.4,1,0
,,5f4469a101c96e20702a9ece,66fc97acd3725f8ed889d11e,2024-10-02_01h49.29.358,mdp,2024.2.1,Win32,144.9275362,66fa4ebf79326e780c390304,,,,,,,,,,,,,,,,,,,,,2874.2141,2874.2142,2874.2149,2875.1443,1,0,right,0.4181,,2875.1452,2876.0609,1,0,right,2876.0615,2876.8674,1,1,right,0,2876.8674,2876.8674,2876.8683,2878.3665,0,24,24,24,1,0.8,0.2,0.8,0.2,,,,,,,,,,,,,,,0.4047,,0.8,0.2,0.4,0.6,0.6,0.4,0.4,0.6,,,0.2987,,0.4,0.6,0.6,0.4,0.2,0.8,0.6,0.4,1,0
,,5f4469a101c96e20702a9ece,66fc97acd3725f8ed889d11e,2024-10-02_01h49.29.358,mdp,2024.2.1,Win32,144.9275362,66fa4ebf79326e780c390304,,,,,,,,,,,,,,,,,,,,,2878.367,2878.367,2878.3677,2879.2353,1,1,right,0.3613,,2879.236,2880.1726,1,1,right,2880.1736,2881.0125,1,1,right,0,2881.0125,2881.0125,2881.013,2882.5134,0,25,25,25,1,0.8,0.2,0.8,0.2,,,,,,,,,,,,,,,0.4193,,0.8,0.2,0.4,0.6,0.6,0.4,0.4,0.6,,,0.3288,,0.8,0.2,0.8,0.2,0.2,0.8,0.6,0.4,1,0
,,5f4469a101c96e20702a9ece,66fc97acd3725f8ed889d11e,2024-10-02_01h49.29.358,mdp,2024.2.1,Win32,144.9275362,66fa4ebf79326e780c390304,,,,,,,,,,,,,,,,,,,,,2882.5141,2882.5141,2882.5148,2883.3322,1,1,right,0.3051,,2883.3327,2884.1378,1,0,right,2884.1384,2885.2138,0,0,left,1,2885.2138,2885.2138,2885.2143,2886.7143,0,26,26,26,1,0.8,0.2,0.8,0.2,,,,,,,,,,,,,,,0.2979,,0.8,0.2,0.4,0.6,0.6,0.4,0.4,0.6,,,0.564,,0.8,0.2,0.8,0.2,0.2,0.8,0.6,0.4,1,0
,,5f4469a101c96e20702a9ece,66fc97acd3725f8ed889d11e,2024-10-02_01h49.29.358,mdp,2024.2.1,Win32,144.9275362,66fa4ebf79326e780c390304,,,,,,,,,,,,,,,,,,,,,2886.7149,2886.7149,2886.7157,2887.5079,1,1,right,0.2849,,2887.5084,2888.3527,1,1,right,2888.3536,2889.2979,1,0,right,1,2889.298,2889.298,2889.2989,2890.7975,0,27,27,27,1,0.8,0.2,0.8,0.2,,,,,,,,,,,,,,,0.3338,,0.8,0.2,0.4,0.6,0.6,0.4,0.4,0.6,,,0.4326,,0.8,0.2,0.8,0.2,0.2,0.8,0.6,0.4,1,0
,,5f4469a101c96e20702a9ece,66fc97acd3725f8ed889d11e,2024-10-02_01h49.29.358,mdp,2024.2.1,Win32,144.9275362,66fa4ebf79326e780c390304,,,,,,,,,,,,,,,,,,,,,2890.7981,2890.7981,2890.7986,2891.5402,1,0,right,0.2311,,2891.5411,2892.5274,1,0,right,2892.5283,2893.3949,0,0,left,1,2893.3949,2893.3949,2893.396,2894.8945,0,28,28,28,1,0.8,0.2,0.8,0.2,,,,,,,,,,,,,,,0.4725,,0.8,0.2,0.4,0.6,0.6,0.4,0.4,0.6,,,0.3488,,0.8,0.2,0.8,0.2,0.2,0.8,0.6,0.4,1,0
,,5f4469a101c96e20702a9ece,66fc97acd3725f8ed889d11e,2024-10-02_01h49.29.358,mdp,2024.2.1,Win32,144.9275362,66fa4ebf79326e780c390304,,,,,,,,,,,,,,,,,,,,,2894.8948,2894.8948,2894.8955,2895.6381,1,1,right,0.2315,,2895.6387,2896.5197,1,0,right,2896.5202,2897.568,0,1,left,0,2897.5681,2897.5681,2897.5692,2899.0686,0,29,29,29,1,0.8,0.2,0.8,0.2,,,,,,,,,,,,,,,0.3645,,0.8,0.2,0.4,0.6,0.6,0.4,0.4,0.6,,,0.546,,0.2,0.8,0.4,0.6,0.2,0.8,0.6,0.4,1,0
,,5f4469a101c96e20702a9ece,66fc97acd3725f8ed889d11e,2024-10-02_01h49.29.358,mdp,2024.2.1,Win32,144.9275362,66fa4ebf79326e780c390304,,,,,,,,,,,,,,,,,,,,,2899.0688,2899.0688,2899.0695,2899.9019,1,0,right,0.3198,,2899.9029,2901.0827,0,0,left,2901.0836,2901.9295,0,1,left,0,2901.9295,2901.9295,2901.9302,2903.4301,0,30,30,30,1,0.8,0.2,0.8,0.2,,,,,,,,,,,,,,,0.6596,,0.8,0.2,0.4,0.6,0.6,0.4,0.4,0.6,,,0.3382,,0.2,0.8,0.4,0.6,0.2,0.8,0.6,0.4,1,0
,,5f4469a101c96e20702a9ece,66fc97acd3725f8ed889d11e,2024-10-02_01h49.29.358,mdp,2024.2.1,Win32,144.9275362,66fa4ebf79326e780c390304,,,,,,,,,,,,,,,,,,,,,2903.4306,2903.4306,2903.4313,2904.3667,1,0,right,0.425,,2904.3674,2905.2727,0,0,left,2905.2732,2906.0962,1,1,right,0,2906.0963,2906.0963,2906.0969,2907.5961,0,31,31,31,1,0.8,0.2,0.8,0.2,,,,,,,,,,,,,,,0.4027,,0.8,0.2,0.4,0.6,0.6,0.4,0.4,0.6,,,0.3145,,0.2,0.8,0.4,0.6,0.2,0.8,0.6,0.4,1,0
,,5f4469a101c96e20702a9ece,66fc97acd3725f8ed889d11e,2024-10-02_01h49.29.358,mdp,2024.2.1,Win32,144.9275362,66fa4ebf79326e780c390304,,,,,,,,,,,,,,,,,,,,,2907.5964,2907.5964,2907.597,2908.4643,1,1,right,0.3607,,2908.4652,2909.4645,1,0,right,2909.4652,2910.5754,0,1,left,0,2910.5754,2910.5754,2910.5765,2912.0752,0,32,32,32,1,0.8,0.2,0.8,0.2,,,,,,,,,,,,,,,0.4805,,0.8,0.2,0.4,0.6,0.6,0.4,0.4,0.6,,,0.5969,,0.2,0.8,0.4,0.6,0.2,0.8,0.6,0.4,1,0
,,5f4469a101c96e20702a9ece,66fc97acd3725f8ed889d11e,2024-10-02_01h49.29.358,mdp,2024.2.1,Win32,144.9275362,66fa4ebf79326e780c390304,,,,,,,,,,,,,,,,,,,,,2912.0756,2912.0756,2912.0763,2912.8251,1,0,right,0.2457,,2912.8262,2914.3599,0,1,left,2914.3607,2915.8467,1,0,right,1,2915.8467,2915.8467,2915.8476,2917.3464,0,33,33,33,1,0.8,0.2,0.8,0.2,,,,,,,,,,,,,,,1.0248,,0.2,0.8,0.6,0.4,0.6,0.4,0.4,0.6,,,0.9731,,0.2,0.8,0.4,0.6,0.2,0.8,0.6,0.4,1,0
,,5f4469a101c96e20702a9ece,66fc97acd3725f8ed889d11e,2024-10-02_01h49.29.358,mdp,2024.2.1,Win32,144.9275362,66fa4ebf79326e780c390304,,,,,,,,,,,,,,,,,,,,,2917.3469,2917.347,2917.3479,2918.6241,1,0,right,0.7652,,2918.6248,2920.2006,0,1,left,2920.2019,2921.1588,1,0,right,1,2921.1588,2921.1588,2921.1595,2922.6591,0,34,34,34,1,0.8,0.2,0.8,0.2,,,,,,,,,,,,,,,1.0705,,0.2,0.8,0.6,0.4,0.6,0.4,0.4,0.6,,,0.451,,0.4,0.6,0.6,0.4,0.2,0.8,0.6,0.4,1,0
,,5f4469a101c96e20702a9ece,66fc97acd3725f8ed889d11e,2024-10-02_01h49.29.358,mdp,2024.2.1,Win32,144.9275362,66fa4ebf79326e780c390304,,,,,,,,,,,,,,,,,,,,,2922.6595,2922.6595,2922.66,2923.6037,1,0,right,0.4325,,2923.6044,2924.4988,0,1,left,2924.4994,2925.3321,1,1,right,0,2925.3322,2925.3322,2925.3329,2926.8329,0,35,35,35,1,0.8,0.2,0.8,0.2,,,,,,,,,,,,,,,0.3824,,0.2,0.8,0.6,0.4,0.6,0.4,0.4,0.6,,,0.3295,,0.4,0.6,0.6,0.4,0.2,0.8,0.6,0.4,1,0
,,5f4469a101c96e20702a9ece,66fc97acd3725f8ed889d11e,2024-10-02_01h49.29.358,mdp,2024.2.1,Win32,144.9275362,66fa4ebf79326e780c390304,,,,,,,,,,,,,,,,,,,,,2926.8335,2926.8335,2926.8342,2927.6029,1,0,right,0.2578,,2927.6037,2928.7141,0,0,left,2928.7148,2929.7566,0,1,left,0,2929.7566,2929.7566,2929.7576,2931.2563,0,36,36,36,1,0.8,0.2,0.8,0.2,,,,,,,,,,,,,,,0.608,,0.4,0.6,0.8,0.2,0.6,0.4,0.4,0.6,,,0.5305,,0.4,0.6,0.6,0.4,0.2,0.8,0.6,0.4,1,0
,,5f4469a101c96e20702a9ece,66fc97acd3725f8ed889d11e,2024-10-02_01h49.29.358,mdp,2024.2.1,Win32,144.9275362,66fa4ebf79326e780c390304,,,,,,,,,,,,,,,,,,,,,2931.2566,2931.2566,2931.2571,2932.5405,1,0,right,0.7742,,2932.5411,2933.3394,0,1,left,2933.3403,2934.1869,1,0,right,1,2934.187,2934.187,2934.1876,2935.6869,0,37,37,37,1,0.8,0.2,0.8,0.2,,,,,,,,,,,,,,,0.2854,,0.4,0.6,0.8,0.2,0.6,0.4,0.4,0.6,,,0.3274,,0.4,0.6,0.6,0.4,0.2,0.8,0.6,0.4,1,0
,,5f4469a101c96e20702a9ece,66fc97acd3725f8ed889d11e,2024-10-02_01h49.29.358,mdp,2024.2.1,Win32,144.9275362,66fa4ebf79326e780c390304,,,,,,,,,,,,,,,,,,,,,2935.6873,2935.6873,2935.6879,2936.5614,0,1,left,0.363,,2936.5626,2937.7213,1,0,right,2937.7225,2939.0268,0,0,left,1,2939.0268,2939.0268,2939.0279,2940.5273,0,38,38,38,1,0.8,0.2,0.8,0.2,,,,,,,,,,,,,,,0.648,,0.4,0.6,0.8,0.2,0.6,0.4,0.4,0.6,,,0.7934,,0.4,0.6,0.6,0.4,0.2,0.8,0.6,0.4,1,0
,,5f4469a101c96e20702a9ece,66fc97acd3725f8ed889d11e,2024-10-02_01h49.29.358,mdp,2024.2.1,Win32,144.9275362,66fa4ebf79326e780c390304,,,,,,,,,,,,,,,,,,,,,2940.5279,2940.5279,2940.5288,2941.4922,0,1,left,0.452,,2941.493,2942.3607,1,0,right,2942.3619,2943.8884,0,1,left,0,2943.8884,2943.8884,2943.8891,2945.3885,0,39,39,39,1,0.8,0.2,0.8,0.2,,,,,,,,,,,,,,,0.361,,0.8,0.2,0.2,0.8,0.6,0.4,0.4,0.6,,,1.0145,,0.4,0.6,0.6,0.4,0.2,0.8,0.6,0.4,1,0
,,5f4469a101c96e20702a9ece,66fc97acd3725f8ed889d11e,2024-10-02_01h49.29.358,mdp,2024.2.1,Win32,144.9275362,66fa4ebf79326e780c390304,,,,,,,,,,,,,,,,,,,,,2945.3889,2945.3889,2945.3894,2946.4643,1,1,right,0.5629,,2946.4652,2947.7145,0,0,left,2947.7154,2949.3393,1,1,right,0,2949.3393,2949.3393,2949.3402,2950.8399,0,40,40,40,1,0.8,0.2,0.8,0.2,,,,,,,,,,,,,,,0.7472,,0.8,0.2,0.2,0.8,0.6,0.4,0.4,0.6,,,1.1222,,0.4,0.6,0.6,0.4,0.2,0.8,0.6,0.4,1,0
,,5f4469a101c96e20702a9ece,66fc97acd3725f8ed889d11e,2024-10-02_01h49.29.358,mdp,2024.2.1,Win32,144.9275362,66fa4ebf79326e780c390304,,,,,,,,,,,,,,,,,,,,,2950.8403,2950.8403,2950.8407,2952.215,1,0,right,0.8602,,2952.216,2953.1795,0,0,left,2953.1801,2954.7705,1,1,right,0,2954.7706,2954.7706,2954.7713,2956.2703,0,41,41,41,1,0.8,0.2,0.8,0.2,,,,,,,,,,,,,,,0.4553,,0.8,0.2,0.2,0.8,0.6,0.4,0.4,0.6,,,1.0841,,0.4,0.6,0.6,0.4,0.6,0.4,0.2,0.8,1,0
,,5f4469a101c96e20702a9ece,66fc97acd3725f8ed889d11e,2024-10-02_01h49.29.358,mdp,2024.2.1,Win32,144.9275362,66fa4ebf79326e780c390304,,,,,,,,,,,,,,,,,,,,,2956.2708,2956.2709,2956.2718,2958.4301,1,0,right,1.6459,,2958.431,2959.6946,0,1,left,2959.6958,2960.902,1,1,right,0,2960.902,2960.902,2960.9025,2962.4025,0,42,42,42,1,0.8,0.2,0.8,0.2,,,,,,,,,,,,,,,0.7512,,0.8,0.2,0.2,0.8,0.6,0.4,0.4,0.6,,,0.6929,,0.4,0.6,0.6,0.4,0.6,0.4,0.2,0.8,1,0
,,5f4469a101c96e20702a9ece,66fc97acd3725f8ed889d11e,2024-10-02_01h49.29.358,mdp,2024.2.1,Win32,144.9275362,66fa4ebf79326e780c390304,,,,,,,,,,,,,,,,,,,,,2962.403,2962.403,2962.4035,2963.4304,1,0,right,0.5154,,2963.4315,2964.4229,0,1,left,2964.4234,2965.388,1,1,right,0,2965.3881,2965.3881,2965.3887,2966.8882,0,43,43,43,1,0.8,0.2,0.8,0.2,,,,,,,,,,,,,,,0.481,,0.8,0.2,0.2,0.8,0.6,0.4,0.4,0.6,,,0.4618,,0.4,0.6,0.6,0.4,0.6,0.4,0.2,0.8,1,0
,,5f4469a101c96e20702a9ece,66fc97acd3725f8ed889d11e,2024-10-02_01h49.29.358,mdp,2024.2.1,Win32,144.9275362,66fa4ebf79326e780c390304,,,,,,,,,,,,,,,,,,,,,2966.8886,2966.8886,2966.8893,2969.0897,1,1,right,1.6894,,2969.0906,2970.8396,0,0,left,2970.8404,2972.7707,0,0,left,1,2972.7707,2972.7707,2972.7713,2974.2702,0,44,44,44,1,0.8,0.2,0.8,0.2,,,,,,,,,,,,,,,1.2408,,0.8,0.2,0.2,0.8,0.6,0.4,0.4,0.6,,,1.4179,,0.4,0.6,0.6,0.4,0.2,0.8,0.6,0.4,1,0
,,5f4469a101c96e20702a9ece,66fc97acd3725f8ed889d11e,2024-10-02_01h49.29.358,mdp,2024.2.1,Win32,144.9275362,66fa4ebf79326e780c390304,,,,,,,,,,,,,,,,,,,,,2974.2706,2974.2706,2974.2711,2975.1803,0,0,left,0.3965,,2975.181,2976.2493,0,0,left,2976.2499,2977.3681,0,1,left,0,2977.3682,2977.3682,2977.3695,2978.8678,0,45,45,45,1,0.8,0.2,0.8,0.2,,,,,,,,,,,,,,,0.5518,,0.8,0.2,0.2,0.8,0.6,0.4,0.4,0.6,,,0.6048,,0.4,0.6,0.6,0.4,0.2,0.8,0.6,0.4,1,0
,,5f4469a101c96e20702a9ece,66fc97acd3725f8ed889d11e,2024-10-02_01h49.29.358,mdp,2024.2.1,Win32,144.9275362,66fa4ebf79326e780c390304,,,,,,,,,,,,,,,,,,,,,2978.8683,2978.8683,2978.8693,2979.9934,0,0,left,0.6114,,2979.9945,2981.1875,0,0,left,2981.188,2982.4098,1,0,right,1,2982.4098,2982.4098,2982.4105,2983.9095,0,46,46,46,1,0.8,0.2,0.8,0.2,,,,,,,,,,,,,,,0.6821,,0.8,0.2,0.2,0.8,0.6,0.4,0.4,0.6,,,0.7095,,0.4,0.6,0.6,0.4,0.2,0.8,0.6,0.4,1,0
,,5f4469a101c96e20702a9ece,66fc97acd3725f8ed889d11e,2024-10-02_01h49.29.358,mdp,2024.2.1,Win32,144.9275362,66fa4ebf79326e780c390304,,,,,,,,,,,,,,,,,,,,,2983.91,2983.91,2983.9108,2984.9376,0,0,left,0.5161,,2984.9382,2986.1594,0,0,left,2986.1606,2987.0202,1,1,right,0,2987.0202,2987.0202,2987.0212,2988.5202,0,47,47,47,1,0.8,0.2,0.8,0.2,,,,,,,,,,,,,,,0.7141,,0.8,0.2,0.2,0.8,0.6,0.4,0.4,0.6,,,0.351,,0.4,0.6,0.6,0.4,0.2,0.8,0.6,0.4,1,0
,,5f4469a101c96e20702a9ece,66fc97acd3725f8ed889d11e,2024-10-02_01h49.29.358,mdp,2024.2.1,Win32,144.9275362,66fa4ebf79326e780c390304,,,,,,,,,,,,,,,,,,,,,2988.5204,2988.5205,2988.5212,2990.0556,0,0,left,1.0272,,2990.0568,2990.8812,1,1,right,2990.882,2991.7706,1,1,right,0,2991.7707,2991.7707,2991.7717,2993.2701,0,48,48,48,1,0.8,0.2,0.8,0.2,,,,,,,,,,,,,,,0.3169,,0.8,0.2,0.2,0.8,0.6,0.4,0.4,0.6,,,0.3757,,0.4,0.6,0.6,0.4,0.2,0.8,0.6,0.4,1,0
,,5f4469a101c96e20702a9ece,66fc97acd3725f8ed889d11e,2024-10-02_01h49.29.358,mdp,2024.2.1,Win32,144.9275362,66fa4ebf79326e780c390304,,,,,,,,,,,,,,,,,,,,,2993.2705,2993.2705,2993.2714,2994.3748,1,0,right,0.5947,,2994.3756,2995.4094,0,0,left,2995.4101,2996.8607,1,0,right,1,2996.8607,2996.8607,2996.8612,2998.3613,0,49,49,49,1,0.8,0.2,0.8,0.2,,,,,,,,,,,,,,,0.5297,,0.8,0.2,0.2,0.8,0.6,0.4,0.4,0.6,,,0.9406,,0.4,0.6,0.6,0.4,0.2,0.8,0.6,0.4,1,0
,,5f4469a101c96e20702a9ece,66fc97acd3725f8ed889d11e,2024-10-02_01h49.29.358,mdp,2024.2.1,Win32,144.9275362,66fa4ebf79326e780c390304,,,,,,,,,,,,,,,,,,,,,,,,,,,,,,,,,,,,,,,,,,,,,,,,,,,,,,,,2998.3616,3056.8614,0,2,2,6,1,imgs/kangaroo.png,imgs/lion.png,imgs/giraffe.png,imgs/rabbit.png,imgs/elephant.png,,,,,,,,,,,,,,,,,,,,,,,,
,,5f4469a101c96e20702a9ece,66fc97acd3725f8ed889d11e,2024-10-02_01h49.29.358,mdp,2024.2.1,Win32,144.9275362,66fa4ebf79326e780c390304,,,,,,,,,,,,,,3,seqs/st3seq43.csv,3056.8617,3067.8613,space,10.4855,,3067.8659,3067.8659,3067.8664,3069.3984,1,0,right,1.0215,,3069.3989,3070.9804,0,1,left,3070.9814,3072.1956,0,0,left,1,3072.1956,3072.1956,3072.1966,3073.6946,0,0,0,0,1,0.6,0.4,0.4,0.6,,,,,,,,,,,,,,,1.0704,,0.2,0.8,0.8,0.2,0.6,0.4,0.4,0.6,,,0.6957,,0.8,0.2,0.4,0.6,0.6,0.4,0.2,0.8,1,0
,,5f4469a101c96e20702a9ece,66fc97acd3725f8ed889d11e,2024-10-02_01h49.29.358,mdp,2024.2.1,Win32,144.9275362,66fa4ebf79326e780c390304,,,,,,,,,,,,,,,,,,,,,3073.6952,3073.6952,3073.6959,3074.8472,0,1,left,0.6389,,3074.8483,3075.6674,1,0,right,3075.668,3076.5486,1,1,right,0,3076.5487,3076.5487,3076.5496,3078.0494,0,1,1,1,1,0.6,0.4,0.4,0.6,,,,,,,,,,,,,,,0.3074,,0.4,0.6,0.2,0.8,0.6,0.4,0.4,0.6,,,0.3626,,0.8,0.2,0.4,0.6,0.6,0.4,0.2,0.8,1,0
,,5f4469a101c96e20702a9ece,66fc97acd3725f8ed889d11e,2024-10-02_01h49.29.358,mdp,2024.2.1,Win32,144.9275362,66fa4ebf79326e780c390304,,,,,,,,,,,,,,,,,,,,,3078.0497,3078.0497,3078.0503,3078.8203,0,0,left,0.2579,,3078.8214,3080.0423,1,0,right,3080.0432,3081.4237,1,1,right,0,3081.4237,3081.4237,3081.4246,3082.9241,0,2,2,2,1,0.6,0.4,0.4,0.6,,,,,,,,,,,,,,,0.7027,,0.4,0.6,0.2,0.8,0.6,0.4,0.4,0.6,,,0.8718,,0.8,0.2,0.4,0.6,0.6,0.4,0.2,0.8,1,0
,,5f4469a101c96e20702a9ece,66fc97acd3725f8ed889d11e,2024-10-02_01h49.29.358,mdp,2024.2.1,Win32,144.9275362,66fa4ebf79326e780c390304,,,,,,,,,,,,,,,,,,,,,3082.9244,3082.9245,3082.9252,3084.1397,0,0,left,0.7082,,3084.1409,3084.9931,1,0,right,3084.994,3086.6187,1,1,right,0,3086.6187,3086.6187,3086.6193,3088.1184,0,3,3,3,1,0.6,0.4,0.4,0.6,,,,,,,,,,,,,,,0.3433,,0.4,0.6,0.2,0.8,0.6,0.4,0.4,0.6,,,1.1199,,0.8,0.2,0.4,0.6,0.6,0.4,0.2,0.8,1,0
,,5f4469a101c96e20702a9ece,66fc97acd3725f8ed889d11e,2024-10-02_01h49.29.358,mdp,2024.2.1,Win32,144.9275362,66fa4ebf79326e780c390304,,,,,,,,,,,,,,,,,,,,,3088.1188,3088.1188,3088.1197,3089.0147,0,0,left,0.382,,3089.0158,3089.8475,1,1,right,3089.8481,3091.4107,0,1,left,0,3091.4108,3091.4108,3091.4118,3092.9107,0,4,4,4,1,0.6,0.4,0.4,0.6,,,,,,,,,,,,,,,0.3189,,0.4,0.6,0.2,0.8,0.6,0.4,0.4,0.6,,,1.0504,,0.8,0.2,0.4,0.6,0.6,0.4,0.2,0.8,1,0
,,5f4469a101c96e20702a9ece,66fc97acd3725f8ed889d11e,2024-10-02_01h49.29.358,mdp,2024.2.1,Win32,144.9275362,66fa4ebf79326e780c390304,,,,,,,,,,,,,,,,,,,,,3092.9113,3092.9113,3092.9124,3094.0281,0,0,left,0.6072,,3094.0286,3095.0771,1,1,right,3095.0778,3096.2306,1,1,right,0,3096.2307,3096.2307,3096.2317,3097.7299,0,5,5,5,1,0.6,0.4,0.4,0.6,,,,,,,,,,,,,,,0.5415,,0.4,0.6,0.2,0.8,0.6,0.4,0.4,0.6,,,0.6381,,0.8,0.2,0.4,0.6,0.6,0.4,0.2,0.8,1,0
,,5f4469a101c96e20702a9ece,66fc97acd3725f8ed889d11e,2024-10-02_01h49.29.358,mdp,2024.2.1,Win32,144.9275362,66fa4ebf79326e780c390304,,,,,,,,,,,,,,,,,,,,,3097.7304,3097.7304,3097.7312,3098.5627,0,1,left,0.3214,,3098.5632,3100.3407,0,0,left,3100.3415,3101.8545,0,0,left,1,3101.8545,3101.8545,3101.8551,3103.3563,0,6,6,6,1,0.6,0.4,0.4,0.6,,,,,,,,,,,,,,,1.2654,,0.4,0.6,0.2,0.8,0.6,0.4,0.4,0.6,,,1.003,,0.8,0.2,0.4,0.6,0.6,0.4,0.2,0.8,1,0
,,5f4469a101c96e20702a9ece,66fc97acd3725f8ed889d11e,2024-10-02_01h49.29.358,mdp,2024.2.1,Win32,144.9275362,66fa4ebf79326e780c390304,,,,,,,,,,,,,,,,,,,,,3103.3565,3103.3565,3103.3569,3104.1956,0,1,left,0.3275,,3104.1966,3105.1123,0,1,left,3105.1128,3106.2785,1,1,right,0,3106.2786,3106.2786,3106.2793,3107.7787,0,7,7,7,1,0.6,0.4,0.4,0.6,,,,,,,,,,,,,,,0.4049,,0.4,0.6,0.2,0.8,0.6,0.4,0.4,0.6,,,0.6465,,0.8,0.2,0.4,0.6,0.6,0.4,0.2,0.8,1,0
,,5f4469a101c96e20702a9ece,66fc97acd3725f8ed889d11e,2024-10-02_01h49.29.358,mdp,2024.2.1,Win32,144.9275362,66fa4ebf79326e780c390304,,,,,,,,,,,,,,,,,,,,,3107.7791,3107.7791,3107.7796,3108.6471,0,0,left,0.3558,,3108.6481,3109.8761,1,1,right,3109.8769,3111.5217,1,1,right,0,3111.5218,3111.5218,3111.5227,3113.0218,0,8,8,8,1,0.6,0.4,0.4,0.6,,,,,,,,,,,,,,,0.7097,,0.4,0.6,0.2,0.8,0.6,0.4,0.4,0.6,,,1.1324,,0.8,0.2,0.4,0.6,0.6,0.4,0.2,0.8,1,0
,,5f4469a101c96e20702a9ece,66fc97acd3725f8ed889d11e,2024-10-02_01h49.29.358,mdp,2024.2.1,Win32,144.9275362,66fa4ebf79326e780c390304,,,,,,,,,,,,,,,,,,,,,3113.0222,3113.0222,3113.0227,3114.5077,0,0,left,0.9742,,3114.5083,3115.501,1,1,right,3115.5018,3116.4316,0,0,left,1,3116.4316,3116.4316,3116.4327,3117.9313,0,9,9,9,1,0.6,0.4,0.4,0.6,,,,,,,,,,,,,,,0.4871,,0.4,0.6,0.2,0.8,0.6,0.4,0.4,0.6,,,0.4162,,0.8,0.2,0.4,0.6,0.2,0.8,0.6,0.4,1,0
,,5f4469a101c96e20702a9ece,66fc97acd3725f8ed889d11e,2024-10-02_01h49.29.358,mdp,2024.2.1,Win32,144.9275362,66fa4ebf79326e780c390304,,,,,,,,,,,,,,,,,,,,,3117.9317,3117.9317,3117.9324,3118.7372,0,0,left,0.2925,,3118.7383,3119.6116,1,0,right,3119.6124,3121.1122,1,1,right,0,3121.1123,3121.1124,3121.1129,3122.6122,0,10,10,10,1,0.6,0.4,0.4,0.6,,,,,,,,,,,,,,,0.3625,,0.4,0.6,0.2,0.8,0.6,0.4,0.4,0.6,,,0.9807,,0.8,0.2,0.4,0.6,0.4,0.6,0.2,0.8,1,0
,,5f4469a101c96e20702a9ece,66fc97acd3725f8ed889d11e,2024-10-02_01h49.29.358,mdp,2024.2.1,Win32,144.9275362,66fa4ebf79326e780c390304,,,,,,,,,,,,,,,,,,,,,3122.6125,3122.6125,3122.613,3123.3896,0,1,left,0.2645,,3123.3905,3124.9032,0,0,left,3124.9037,3125.8206,0,1,left,0,3125.8206,3125.8206,3125.8216,3127.3207,0,11,11,11,1,0.6,0.4,0.4,0.6,,,,,,,,,,,,,,,1.0046,,0.4,0.6,0.2,0.8,0.6,0.4,0.4,0.6,,,0.4104,,0.8,0.2,0.4,0.6,0.2,0.8,0.8,0.2,1,0
,,5f4469a101c96e20702a9ece,66fc97acd3725f8ed889d11e,2024-10-02_01h49.29.358,mdp,2024.2.1,Win32,144.9275362,66fa4ebf79326e780c390304,,,,,,,,,,,,,,,,,,,,,3127.3211,3127.3211,3127.3221,3128.1192,0,0,left,0.2855,,3128.1203,3128.9528,0,0,left,3128.9541,3129.6464,1,1,right,0,3129.6464,3129.6464,3129.6469,3131.1465,0,12,12,12,1,0.6,0.4,0.4,0.6,,,,,,,,,,,,,,,0.3144,,0.8,0.2,0.8,0.2,0.6,0.4,0.4,0.6,,,0.1837,,0.8,0.2,0.4,0.6,0.2,0.8,0.8,0.2,1,0
,,5f4469a101c96e20702a9ece,66fc97acd3725f8ed889d11e,2024-10-02_01h49.29.358,mdp,2024.2.1,Win32,144.9275362,66fa4ebf79326e780c390304,,,,,,,,,,,,,,,,,,,,,3131.1468,3131.1468,3131.1472,3131.89,1,1,right,0.2302,,3131.8915,3133.0705,1,0,right,3133.0713,3133.9806,0,0,left,1,3133.9807,3133.9807,3133.9816,3135.4803,0,13,13,13,1,0.6,0.4,0.4,0.6,,,,,,,,,,,,,,,0.6597,,0.8,0.2,0.8,0.2,0.6,0.4,0.4,0.6,,,0.3969,,0.8,0.2,0.4,0.6,0.2,0.8,0.8,0.2,1,0
,,5f4469a101c96e20702a9ece,66fc97acd3725f8ed889d11e,2024-10-02_01h49.29.358,mdp,2024.2.1,Win32,144.9275362,66fa4ebf79326e780c390304,,,,,,,,,,,,,,,,,,,,,3135.4808,3135.4808,3135.4815,3136.2169,1,0,right,0.2229,,3136.2181,3137.4659,0,0,left,3137.4664,3138.5365,0,0,left,1,3138.5366,3138.5366,3138.5373,3140.0358,0,14,14,14,1,0.6,0.4,0.4,0.6,,,,,,,,,,,,,,,0.7335,,0.8,0.2,0.8,0.2,0.6,0.4,0.4,0.6,,,0.5577,,0.8,0.2,0.4,0.6,0.2,0.8,0.8,0.2,1,0
,,5f4469a101c96e20702a9ece,66fc97acd3725f8ed889d11e,2024-10-02_01h49.29.358,mdp,2024.2.1,Win32,144.9275362,66fa4ebf79326e780c390304,,,,,,,,,,,,,,,,,,,,,3140.0363,3140.0363,3140.0371,3140.8063,1,0,right,0.2603,,3140.8069,3141.7785,0,0,left,3141.7792,3142.5978,0,0,left,1,3142.5979,3142.5979,3142.5985,3144.0985,0,15,15,15,1,0.6,0.4,0.4,0.6,,,,,,,,,,,,,,,0.4695,,0.8,0.2,0.8,0.2,0.6,0.4,0.4,0.6,,,0.3154,,0.8,0.2,0.4,0.6,0.2,0.8,0.8,0.2,1,0
,,5f4469a101c96e20702a9ece,66fc97acd3725f8ed889d11e,2024-10-02_01h49.29.358,mdp,2024.2.1,Win32,144.9275362,66fa4ebf79326e780c390304,,,,,,,,,,,,,,,,,,,,,3144.099,3144.099,3144.0999,3144.8895,1,1,right,0.2818,,3144.8901,3146.0495,1,1,right,3146.0504,3146.8341,1,0,right,1,3146.8341,3146.8341,3146.8349,3148.3344,0,16,16,16,1,0.6,0.4,0.4,0.6,,,,,,,,,,,,,,,0.6484,,0.8,0.2,0.8,0.2,0.6,0.4,0.4,0.6,,,0.2755,,0.6,0.4,0.2,0.8,0.2,0.8,0.8,0.2,1,0
,,5f4469a101c96e20702a9ece,66fc97acd3725f8ed889d11e,2024-10-02_01h49.29.358,mdp,2024.2.1,Win32,144.9275362,66fa4ebf79326e780c390304,,,,,,,,,,,,,,,,,,,,,3148.335,3148.335,3148.3355,3149.1053,1,1,right,0.2589,,3149.1061,3150.1535,1,0,right,3150.1541,3151.0772,1,1,right,0,3151.0772,3151.0772,3151.078,3152.5778,0,17,17,17,1,0.6,0.4,0.4,0.6,,,,,,,,,,,,,,,0.5348,,0.8,0.2,0.8,0.2,0.6,0.4,0.4,0.6,,,0.4149,,0.6,0.4,0.2,0.8,0.2,0.8,0.8,0.2,1,0
,,5f4469a101c96e20702a9ece,66fc97acd3725f8ed889d11e,2024-10-02_01h49.29.358,mdp,2024.2.1,Win32,144.9275362,66fa4ebf79326e780c390304,,,,,,,,,,,,,,,,,,,,,3152.5783,3152.5783,3152.5791,3153.2998,1,0,right,0.209,,3153.3008,3154.2721,0,0,left,3154.2732,3155.1819,1,1,right,0,3155.1822,3155.1822,3155.1832,3156.6817,0,18,18,18,1,0.6,0.4,0.4,0.6,,,,,,,,,,,,,,,0.4593,,0.8,0.2,0.8,0.2,0.6,0.4,0.4,0.6,,,0.3958,,0.6,0.4,0.2,0.8,0.2,0.8,0.8,0.2,1,0
,,5f4469a101c96e20702a9ece,66fc97acd3725f8ed889d11e,2024-10-02_01h49.29.358,mdp,2024.2.1,Win32,144.9275362,66fa4ebf79326e780c390304,,,,,,,,,,,,,,,,,,,,,3156.682,3156.682,3156.6827,3157.5225,0,1,left,0.3275,,3157.5234,3158.633,1,0,right,3158.6337,3160.0076,0,0,left,1,3160.0076,3160.0076,3160.0083,3161.5083,0,19,19,19,1,0.6,0.4,0.4,0.6,,,,,,,,,,,,,,,0.5923,,0.8,0.2,0.8,0.2,0.6,0.4,0.4,0.6,,,0.8652,,0.6,0.4,0.2,0.8,0.2,0.8,0.8,0.2,1,0
,,5f4469a101c96e20702a9ece,66fc97acd3725f8ed889d11e,2024-10-02_01h49.29.358,mdp,2024.2.1,Win32,144.9275362,66fa4ebf79326e780c390304,,,,,,,,,,,,,,,,,,,,,3161.5087,3161.5087,3161.5093,3162.6058,0,0,left,0.584,,3162.6068,3163.6467,1,0,right,3163.6471,3164.4386,1,1,right,0,3164.4388,3164.4388,3164.4394,3165.9385,0,20,20,20,1,0.6,0.4,0.4,0.6,,,,,,,,,,,,,,,0.5246,,0.8,0.2,0.8,0.2,0.6,0.4,0.4,0.6,,,0.2858,,0.6,0.4,0.2,0.8,0.2,0.8,0.8,0.2,1,0
,,5f4469a101c96e20702a9ece,66fc97acd3725f8ed889d11e,2024-10-02_01h49.29.358,mdp,2024.2.1,Win32,144.9275362,66fa4ebf79326e780c390304,,,,,,,,,,,,,,,,,,,,,3165.9389,3165.9389,3165.9395,3166.5291,1,0,right,0.0758,,3166.5302,3167.4875,0,0,left,3167.4883,3168.5495,0,1,left,0,3168.5496,3168.5496,3168.5504,3170.0496,0,21,21,21,1,0.6,0.4,0.4,0.6,,,,,,,,,,,,,,,0.4444,,0.8,0.2,0.8,0.2,0.6,0.4,0.4,0.6,,,0.5527,,0.6,0.4,0.2,0.8,0.2,0.8,0.8,0.2,1,0
,,5f4469a101c96e20702a9ece,66fc97acd3725f8ed889d11e,2024-10-02_01h49.29.358,mdp,2024.2.1,Win32,144.9275362,66fa4ebf79326e780c390304,,,,,,,,,,,,,,,,,,,,,3170.0498,3170.0498,3170.0503,3170.814,1,1,right,0.2567,,3170.8146,3172.8974,1,1,right,3172.8984,3174.0225,1,1,right,0,3174.0226,3174.0226,3174.0231,3175.5226,0,22,22,22,1,0.6,0.4,0.4,0.6,,,,,,,,,,,,,,,1.5642,,0.8,0.2,0.8,0.2,0.6,0.4,0.4,0.6,,,0.6061,,0.6,0.4,0.2,0.8,0.4,0.6,0.2,0.8,1,0
,,5f4469a101c96e20702a9ece,66fc97acd3725f8ed889d11e,2024-10-02_01h49.29.358,mdp,2024.2.1,Win32,144.9275362,66fa4ebf79326e780c390304,,,,,,,,,,,,,,,,,,,,,3175.523,3175.523,3175.5239,3176.3143,1,1,right,0.2797,,3176.3148,3177.1122,1,0,right,3177.1133,3178.7302,0,1,left,0,3178.7302,3178.7302,3178.7307,3180.2308,0,23,23,23,1,0.6,0.4,0.4,0.6,,,,,,,,,,,,,,,0.284,,0.8,0.2,0.8,0.2,0.6,0.4,0.4,0.6,,,1.1046,,0.6,0.4,0.2,0.8,0.4,0.6,0.2,0.8,1,0
,,5f4469a101c96e20702a9ece,66fc97acd3725f8ed889d11e,2024-10-02_01h49.29.358,mdp,2024.2.1,Win32,144.9275362,66fa4ebf79326e780c390304,,,,,,,,,,,,,,,,,,,,,3180.2312,3180.2313,3180.232,3181.2024,1,0,right,0.4591,,3181.2035,3181.9737,1,0,right,3181.9743,3182.946,0,0,left,1,3182.9461,3182.9461,3182.9471,3184.4457,0,24,24,24,1,0.6,0.4,0.4,0.6,,,,,,,,,,,,,,,0.2601,,0.8,0.2,0.8,0.2,0.4,0.6,0.8,0.2,,,0.4583,,0.6,0.4,0.2,0.8,0.4,0.6,0.2,0.8,1,0
,,5f4469a101c96e20702a9ece,66fc97acd3725f8ed889d11e,2024-10-02_01h49.29.358,mdp,2024.2.1,Win32,144.9275362,66fa4ebf79326e780c390304,,,,,,,,,,,,,,,,,,,,,3184.4463,3184.4463,3184.4471,3185.2164,1,1,right,0.2616,,3185.2169,3186.1123,1,0,right,3186.1128,3187.2792,1,1,right,0,3187.2793,3187.2793,3187.28,3188.7794,0,25,25,25,1,0.6,0.4,0.4,0.6,,,,,,,,,,,,,,,0.3857,,0.8,0.2,0.8,0.2,0.4,0.6,0.8,0.2,,,0.6599,,0.6,0.4,0.2,0.8,0.4,0.6,0.2,0.8,1,0
,,5f4469a101c96e20702a9ece,66fc97acd3725f8ed889d11e,2024-10-02_01h49.29.358,mdp,2024.2.1,Win32,144.9275362,66fa4ebf79326e780c390304,,,,,,,,,,,,,,,,,,,,,3188.7797,3188.7797,3188.7803,3189.5079,1,1,right,0.2195,,3189.5084,3190.4318,1,0,right,3190.4323,3191.2511,0,0,left,1,3191.2512,3191.2512,3191.2521,3192.7512,0,26,26,26,1,0.6,0.4,0.4,0.6,,,,,,,,,,,,,,,0.419,,0.8,0.2,0.8,0.2,0.4,0.6,0.8,0.2,,,0.3097,,0.6,0.4,0.2,0.8,0.4,0.6,0.2,0.8,1,0
,,5f4469a101c96e20702a9ece,66fc97acd3725f8ed889d11e,2024-10-02_01h49.29.358,mdp,2024.2.1,Win32,144.9275362,66fa4ebf79326e780c390304,,,,,,,,,,,,,,,,,,,,,3192.7515,3192.7515,3192.752,3193.8972,1,1,right,0.6317,,3193.8977,3194.7935,1,0,right,3194.7942,3195.6401,0,1,left,0,3195.6401,3195.6401,3195.641,3197.1402,0,27,27,27,1,0.6,0.4,0.4,0.6,,,,,,,,,,,,,,,0.3892,,0.8,0.2,0.8,0.2,0.4,0.6,0.8,0.2,,,0.3352,,0.6,0.4,0.2,0.8,0.4,0.6,0.2,0.8,1,0
,,5f4469a101c96e20702a9ece,66fc97acd3725f8ed889d11e,2024-10-02_01h49.29.358,mdp,2024.2.1,Win32,144.9275362,66fa4ebf79326e780c390304,,,,,,,,,,,,,,,,,,,,,3197.1404,3197.1404,3197.1408,3197.9179,1,1,right,0.2727,,3197.9185,3198.8137,1,0,right,3198.8143,3199.8279,0,1,left,0,3199.828,3199.828,3199.8285,3201.3275,0,28,28,28,1,0.6,0.4,0.4,0.6,,,,,,,,,,,,,,,0.3902,,0.8,0.2,0.8,0.2,0.4,0.6,0.8,0.2,,,0.5078,,0.6,0.4,0.2,0.8,0.6,0.4,0.8,0.2,1,0
,,5f4469a101c96e20702a9ece,66fc97acd3725f8ed889d11e,2024-10-02_01h49.29.358,mdp,2024.2.1,Win32,144.9275362,66fa4ebf79326e780c390304,,,,,,,,,,,,,,,,,,,,,3201.3277,3201.3277,3201.3283,3202.1962,1,0,right,0.3625,,3202.197,3203.286,0,0,left,3203.2869,3204.2863,0,1,left,0,3204.2863,3204.2865,3204.2871,3205.786,0,29,29,29,1,0.6,0.4,0.4,0.6,,,,,,,,,,,,,,,0.5749,,0.8,0.2,0.8,0.2,0.4,0.6,0.8,0.2,,,0.4925,,0.4,0.6,0.8,0.2,0.6,0.4,0.8,0.2,1,0
,,5f4469a101c96e20702a9ece,66fc97acd3725f8ed889d11e,2024-10-02_01h49.29.358,mdp,2024.2.1,Win32,144.9275362,66fa4ebf79326e780c390304,,,,,,,,,,,,,,,,,,,,,3205.7865,3205.7865,3205.7872,3206.529,1,1,right,0.2311,,3206.5299,3207.6129,1,0,right,3207.6139,3208.5712,0,1,left,0,3208.5712,3208.5712,3208.5718,3210.0713,0,30,30,30,1,0.6,0.4,0.4,0.6,,,,,,,,,,,,,,,0.5646,,0.8,0.2,0.8,0.2,0.4,0.6,0.8,0.2,,,0.4443,,0.4,0.6,0.8,0.2,0.6,0.4,0.8,0.2,1,0
,,5f4469a101c96e20702a9ece,66fc97acd3725f8ed889d11e,2024-10-02_01h49.29.358,mdp,2024.2.1,Win32,144.9275362,66fa4ebf79326e780c390304,,,,,,,,,,,,,,,,,,,,,3210.0718,3210.0719,3210.0731,3211.0152,1,1,right,0.4314,,3211.0161,3212.0786,1,0,right,3212.0794,3212.9252,1,0,right,1,3212.9252,3212.9252,3212.9262,3214.4255,0,31,31,31,1,0.6,0.4,0.4,0.6,,,,,,,,,,,,,,,0.5553,,0.8,0.2,0.8,0.2,0.4,0.6,0.8,0.2,,,0.3339,,0.4,0.6,0.8,0.2,0.6,0.4,0.8,0.2,1,0
,,5f4469a101c96e20702a9ece,66fc97acd3725f8ed889d11e,2024-10-02_01h49.29.358,mdp,2024.2.1,Win32,144.9275362,66fa4ebf79326e780c390304,,,,,,,,,,,,,,,,,,,,,3214.426,3214.426,3214.427,3215.4461,1,1,right,0.5091,,3215.4467,3216.3491,1,0,right,3216.3498,3217.2171,1,0,right,1,3217.2172,3217.2172,3217.218,3218.7172,0,32,32,32,1,0.6,0.4,0.4,0.6,,,,,,,,,,,,,,,0.389,,0.8,0.2,0.8,0.2,0.4,0.6,0.8,0.2,,,0.3537,,0.4,0.6,0.8,0.2,0.6,0.4,0.8,0.2,1,0
,,5f4469a101c96e20702a9ece,66fc97acd3725f8ed889d11e,2024-10-02_01h49.29.358,mdp,2024.2.1,Win32,144.9275362,66fa4ebf79326e780c390304,,,,,,,,,,,,,,,,,,,,,3218.7177,3218.7178,3218.7186,3219.4323,1,0,right,0.2011,,3219.4332,3220.1131,1,0,right,3220.1137,3220.9874,0,1,left,0,3220.9874,3220.9874,3220.9878,3222.488,0,33,33,33,1,0.6,0.4,0.4,0.6,,,,,,,,,,,,,,,0.1615,,0.8,0.2,0.8,0.2,0.4,0.6,0.8,0.2,,,0.3606,,0.4,0.6,0.8,0.2,0.6,0.4,0.8,0.2,1,0
,,5f4469a101c96e20702a9ece,66fc97acd3725f8ed889d11e,2024-10-02_01h49.29.358,mdp,2024.2.1,Win32,144.9275362,66fa4ebf79326e780c390304,,,,,,,,,,,,,,,,,,,,,3222.4885,3222.4885,3222.4894,3223.2236,1,0,right,0.2259,,3223.2248,3224.154,0,1,left,3224.1547,3225.6263,0,0,left,1,3225.6265,3225.6265,3225.627,3227.1272,0,34,34,34,1,0.6,0.4,0.4,0.6,,,,,,,,,,,,,,,0.4238,,0.8,0.2,0.8,0.2,0.4,0.6,0.8,0.2,,,0.9619,,0.4,0.6,0.8,0.2,0.6,0.4,0.8,0.2,1,0
,,5f4469a101c96e20702a9ece,66fc97acd3725f8ed889d11e,2024-10-02_01h49.29.358,mdp,2024.2.1,Win32,144.9275362,66fa4ebf79326e780c390304,,,,,,,,,,,,,,,,,,,,,3227.1277,3227.1278,3227.1286,3228.0433,1,0,right,0.4028,,3228.0443,3228.8277,0,0,left,3228.8283,3230.1824,1,0,right,1,3230.1825,3230.1825,3230.1834,3231.6827,0,35,35,35,1,0.6,0.4,0.4,0.6,,,,,,,,,,,,,,,0.2795,,0.8,0.2,0.8,0.2,0.4,0.6,0.8,0.2,,,0.8402,,0.4,0.6,0.8,0.2,0.6,0.4,0.8,0.2,1,0
,,5f4469a101c96e20702a9ece,66fc97acd3725f8ed889d11e,2024-10-02_01h49.29.358,mdp,2024.2.1,Win32,144.9275362,66fa4ebf79326e780c390304,,,,,,,,,,,,,,,,,,,,,3231.6832,3231.6832,3231.6842,3232.4882,1,1,right,0.293,,3232.4893,3233.6197,1,1,right,3233.6204,3234.8281,1,0,right,1,3234.8281,3234.8281,3234.8289,3236.328,0,36,36,36,1,0.6,0.4,0.4,0.6,,,,,,,,,,,,,,,0.6123,,0.8,0.2,0.8,0.2,0.4,0.6,0.8,0.2,,,0.6908,,0.4,0.6,0.8,0.2,0.6,0.4,0.8,0.2,1,0
,,5f4469a101c96e20702a9ece,66fc97acd3725f8ed889d11e,2024-10-02_01h49.29.358,mdp,2024.2.1,Win32,144.9275362,66fa4ebf79326e780c390304,,,,,,,,,,,,,,,,,,,,,3236.3284,3236.3284,3236.329,3237.1473,1,1,right,0.314,,3237.148,3237.9947,1,0,right,3237.9954,3239.8426,1,0,right,1,3239.8427,3239.8427,3239.8438,3241.3419,0,37,37,37,1,0.6,0.4,0.4,0.6,,,,,,,,,,,,,,,0.3453,,0.8,0.2,0.8,0.2,0.4,0.6,0.8,0.2,,,1.3278,,0.4,0.6,0.8,0.2,0.6,0.4,0.8,0.2,1,0
,,5f4469a101c96e20702a9ece,66fc97acd3725f8ed889d11e,2024-10-02_01h49.29.358,mdp,2024.2.1,Win32,144.9275362,66fa4ebf79326e780c390304,,,,,,,,,,,,,,,,,,,,,3241.3423,3241.3423,3241.3429,3242.1542,1,0,right,0.3028,,3242.1548,3243.002,0,1,left,3243.003,3244.0921,1,0,right,1,3244.0921,3244.0921,3244.0926,3245.5923,0,38,38,38,1,0.6,0.4,0.4,0.6,,,,,,,,,,,,,,,0.335,,0.8,0.2,0.8,0.2,0.4,0.6,0.8,0.2,,,0.5749,,0.4,0.6,0.8,0.2,0.6,0.4,0.8,0.2,1,0
,,5f4469a101c96e20702a9ece,66fc97acd3725f8ed889d11e,2024-10-02_01h49.29.358,mdp,2024.2.1,Win32,144.9275362,66fa4ebf79326e780c390304,,,,,,,,,,,,,,,,,,,,,3245.5928,3245.5928,3245.5933,3246.939,1,1,right,0.8366,,3246.9396,3247.6545,0,1,left,3247.6552,3248.5508,0,1,left,0,3248.5508,3248.5509,3248.5519,3250.0509,0,39,39,39,1,0.6,0.4,0.4,0.6,,,,,,,,,,,,,,,0.2035,,0.8,0.2,0.8,0.2,0.4,0.6,0.8,0.2,,,0.3832,,0.4,0.6,0.8,0.2,0.6,0.4,0.8,0.2,1,0
,,5f4469a101c96e20702a9ece,66fc97acd3725f8ed889d11e,2024-10-02_01h49.29.358,mdp,2024.2.1,Win32,144.9275362,66fa4ebf79326e780c390304,,,,,,,,,,,,,,,,,,,,,3250.0513,3250.0514,3250.0523,3250.8906,1,0,right,0.3316,,3250.8914,3251.9398,0,0,left,3251.9409,3252.8072,1,0,right,1,3252.8073,3252.8073,3252.808,3254.3071,0,40,40,40,1,0.6,0.4,0.4,0.6,,,,,,,,,,,,,,,0.5295,,0.8,0.2,0.8,0.2,0.4,0.6,0.8,0.2,,,0.3521,,0.4,0.6,0.8,0.2,0.6,0.4,0.8,0.2,1,0
,,5f4469a101c96e20702a9ece,66fc97acd3725f8ed889d11e,2024-10-02_01h49.29.358,mdp,2024.2.1,Win32,144.9275362,66fa4ebf79326e780c390304,,,,,,,,,,,,,,,,,,,,,3254.3074,3254.3074,3254.3079,3255.2726,1,0,right,0.4512,,3255.2734,3257.2658,0,1,left,3257.2667,3258.5717,1,0,right,1,3258.5718,3258.5718,3258.5724,3260.0715,0,41,41,41,1,0.4,0.6,0.8,0.2,,,,,,,,,,,,,,,1.472,,0.8,0.2,0.8,0.2,0.4,0.6,0.8,0.2,,,0.7859,,0.4,0.6,0.8,0.2,0.6,0.4,0.8,0.2,1,0
,,5f4469a101c96e20702a9ece,66fc97acd3725f8ed889d11e,2024-10-02_01h49.29.358,mdp,2024.2.1,Win32,144.9275362,66fa4ebf79326e780c390304,,,,,,,,,,,,,,,,,,,,,3260.0718,3260.0718,3260.0724,3260.9746,1,0,right,0.389,,3260.9756,3261.9749,0,0,left,3261.976,3264.2725,1,0,right,1,3264.2725,3264.2725,3264.2734,3265.773,0,42,42,42,1,0.4,0.6,0.8,0.2,,,,,,,,,,,,,,,0.4882,,0.8,0.2,0.8,0.2,0.4,0.6,0.8,0.2,,,1.7825,,0.4,0.6,0.8,0.2,0.6,0.4,0.8,0.2,1,0
,,5f4469a101c96e20702a9ece,66fc97acd3725f8ed889d11e,2024-10-02_01h49.29.358,mdp,2024.2.1,Win32,144.9275362,66fa4ebf79326e780c390304,,,,,,,,,,,,,,,,,,,,,3265.7735,3265.7735,3265.7739,3267.8633,1,0,right,1.5764,,3267.8641,3268.6896,0,1,left,3268.6904,3269.8839,1,1,right,0,3269.884,3269.884,3269.8848,3271.3838,0,43,43,43,1,0.4,0.6,0.8,0.2,,,,,,,,,,,,,,,0.3174,,0.8,0.2,0.8,0.2,0.4,0.6,0.8,0.2,,,0.6748,,0.4,0.6,0.8,0.2,0.6,0.4,0.8,0.2,1,0
,,5f4469a101c96e20702a9ece,66fc97acd3725f8ed889d11e,2024-10-02_01h49.29.358,mdp,2024.2.1,Win32,144.9275362,66fa4ebf79326e780c390304,,,,,,,,,,,,,,,,,,,,,3271.3841,3271.3841,3271.385,3273.5861,1,1,right,1.6887,,3273.5872,3274.5094,1,0,right,3274.5104,3275.3634,1,0,right,1,3275.3635,3275.3635,3275.364,3276.8634,0,44,44,44,1,0.4,0.6,0.8,0.2,,,,,,,,,,,,,,,0.403,,0.8,0.2,0.8,0.2,0.4,0.6,0.8,0.2,,,0.3334,,0.4,0.6,0.8,0.2,0.6,0.4,0.8,0.2,1,0
,,5f4469a101c96e20702a9ece,66fc97acd3725f8ed889d11e,2024-10-02_01h49.29.358,mdp,2024.2.1,Win32,144.9275362,66fa4ebf79326e780c390304,,,,,,,,,,,,,,,,,,,,,3276.8637,3276.8637,3276.8643,3277.6269,1,0,right,0.2506,,3277.6279,3278.5854,1,0,right,3278.5862,3279.5021,1,0,right,1,3279.5021,3279.5021,3279.5031,3281.0017,0,45,45,45,1,0.4,0.6,0.8,0.2,,,,,,,,,,,,,,,0.4387,,0.8,0.2,0.8,0.2,0.4,0.6,0.8,0.2,,,0.4098,,0.4,0.6,0.8,0.2,0.6,0.4,0.8,0.2,1,0
,,5f4469a101c96e20702a9ece,66fc97acd3725f8ed889d11e,2024-10-02_01h49.29.358,mdp,2024.2.1,Win32,144.9275362,66fa4ebf79326e780c390304,,,,,,,,,,,,,,,,,,,,,3281.0019,3281.0019,3281.0028,3281.7801,1,0,right,0.2573,,3281.7805,3283.0227,0,0,left,3283.0236,3283.8288,1,1,right,0,3283.8288,3283.8288,3283.8294,3285.3287,0,46,46,46,1,0.4,0.6,0.8,0.2,,,,,,,,,,,,,,,0.7226,,0.8,0.2,0.8,0.2,0.4,0.6,0.8,0.2,,,0.3004,,0.2,0.8,0.4,0.6,0.6,0.4,0.8,0.2,1,0
,,5f4469a101c96e20702a9ece,66fc97acd3725f8ed889d11e,2024-10-02_01h49.29.358,mdp,2024.2.1,Win32,144.9275362,66fa4ebf79326e780c390304,,,,,,,,,,,,,,,,,,,,,3285.3292,3285.3293,3285.33,3286.2115,1,0,right,0.3689,,3286.2125,3287.2316,0,0,left,3287.2328,3288.0718,1,0,right,1,3288.0719,3288.0719,3288.0726,3289.5714,0,47,47,47,1,0.4,0.6,0.8,0.2,,,,,,,,,,,,,,,0.5065,,0.8,0.2,0.8,0.2,0.4,0.6,0.8,0.2,,,0.3285,,0.2,0.8,0.4,0.6,0.6,0.4,0.8,0.2,1,0
,,5f4469a101c96e20702a9ece,66fc97acd3725f8ed889d11e,2024-10-02_01h49.29.358,mdp,2024.2.1,Win32,144.9275362,66fa4ebf79326e780c390304,,,,,,,,,,,,,,,,,,,,,3289.5718,3289.5718,3289.5728,3290.7241,1,0,right,0.6407,,3290.7252,3291.6825,0,0,left,3291.6831,3292.5019,1,0,right,1,3292.5019,3292.5019,3292.5025,3294.0021,0,48,48,48,1,0.4,0.6,0.8,0.2,,,,,,,,,,,,,,,0.4536,,0.8,0.2,0.8,0.2,0.4,0.6,0.8,0.2,,,0.3146,,0.2,0.8,0.4,0.6,0.6,0.4,0.8,0.2,1,0
,,5f4469a101c96e20702a9ece,66fc97acd3725f8ed889d11e,2024-10-02_01h49.29.358,mdp,2024.2.1,Win32,144.9275362,66fa4ebf79326e780c390304,,,,,,,,,,,,,,,,,,,,,3294.0024,3294.0024,3294.003,3294.7877,1,0,right,0.2772,,3294.7888,3295.7385,0,1,left,3295.7393,3296.5026,1,0,right,1,3296.5026,3296.5027,3296.5034,3298.002,0,49,49,49,1,0.4,0.6,0.8,0.2,,,,,,,,,,,,,,,0.4383,,0.8,0.2,0.8,0.2,0.6,0.4,0.4,0.6,,,0.2446,,0.2,0.8,0.4,0.6,0.6,0.4,0.8,0.2,1,0
,,5f4469a101c96e20702a9ece,66fc97acd3725f8ed889d11e,2024-10-02_01h49.29.358,mdp,2024.2.1,Win32,144.9275362,66fa4ebf79326e780c390304,,,,,,,,,,,,,,,,,,,,,,,,,,,,,,,,,,,,,,,,,,,,,,,,,,,,,,,,3298.0022,3356.5029,0,3,3,7,1,imgs/kangaroo.png,imgs/giraffe.png,imgs/cat.png,imgs/goat.png,imgs/pig.png,,,,,,,,,,,,,,,,,,,,,,,,
,,5f4469a101c96e20702a9ece,66fc97acd3725f8ed889d11e,2024-10-02_01h49.29.358,mdp,2024.2.1,Win32,144.9275362,66fa4ebf79326e780c390304,,,,,,,,,,,,,,1,seqs/st1seq38.csv,3356.5041,3358.4477,space,1.437,,3358.4505,3358.4505,3358.4509,3360.267,0,0,left,1.2997,,3360.268,3360.2686,0,0,,3360.2693,3360.2696,1,0,,1,3360.2696,3360.2696,3360.2699,3361.7664,0,0,0,0,1,0.6,0.4,0.8,0.2,1,0,,,,,,,,,,,,,,,,,,,,,,,,,,,,,,,,,,,,
,,5f4469a101c96e20702a9ece,66fc97acd3725f8ed889d11e,2024-10-02_01h49.29.358,mdp,2024.2.1,Win32,144.9275362,66fa4ebf79326e780c390304,,,,,,,,,,,,,,,,,,,,,3361.7669,3361.7669,3361.7677,3362.6344,0,1,left,0.3558,,3362.6353,3362.6356,0,0,,3362.6361,3362.6364,1,1,,0,3362.6364,3362.6364,3362.6367,3364.1344,0,1,1,1,1,0.4,0.6,0.6,0.4,1,0,,,,,,,,,,,,,,,,,,,,,,,,,,,,,,,,,,,,
,,5f4469a101c96e20702a9ece,66fc97acd3725f8ed889d11e,2024-10-02_01h49.29.358,mdp,2024.2.1,Win32,144.9275362,66fa4ebf79326e780c390304,,,,,,,,,,,,,,,,,,,,,3364.1347,3364.1347,3364.1356,3364.8432,0,1,left,0.1943,,3364.8441,3364.8446,0,0,,3364.8452,3364.8454,1,1,,0,3364.8455,3364.8455,3364.8458,3366.3432,0,2,2,2,1,0.4,0.6,0.6,0.4,1,0,,,,,,,,,,,,,,,,,,,,,,,,,,,,,,,,,,,,
,,5f4469a101c96e20702a9ece,66fc97acd3725f8ed889d11e,2024-10-02_01h49.29.358,mdp,2024.2.1,Win32,144.9275362,66fa4ebf79326e780c390304,,,,,,,,,,,,,,,,,,,,,3366.3435,3366.3435,3366.3441,3366.9335,0,1,left,0.0808,,3366.9341,3366.9346,0,1,,3366.9352,3366.9355,1,0,,0,3366.9355,3366.9355,3366.9358,3368.4336,0,3,3,3,1,0.4,0.6,0.6,0.4,1,0,,,,,,,,,,,,,,,,,,,,,,,,,,,,,,,,,,,,
,,5f4469a101c96e20702a9ece,66fc97acd3725f8ed889d11e,2024-10-02_01h49.29.358,mdp,2024.2.1,Win32,144.9275362,66fa4ebf79326e780c390304,,,,,,,,,,,,,,,,,,,,,3368.434,3368.434,3368.4349,3369.0656,1,1,right,0.1186,,3369.0665,3369.0671,0,0,,3369.0676,3369.0679,1,1,,0,3369.068,3369.068,3369.0683,3370.5651,0,4,4,4,1,0.6,0.4,0.4,0.6,1,0,,,,,,,,,,,,,,,,,,,,,,,,,,,,,,,,,,,,
,,5f4469a101c96e20702a9ece,66fc97acd3725f8ed889d11e,2024-10-02_01h49.29.358,mdp,2024.2.1,Win32,144.9275362,66fa4ebf79326e780c390304,,,,,,,,,,,,,,,,,,,,,3370.5653,3370.5653,3370.5658,3371.2946,1,1,right,0.2154,,3371.2954,3371.2956,0,0,,3371.296,3371.2963,1,0,,0,3371.2963,3371.2963,3371.2966,3372.7946,0,5,5,5,1,0.4,0.6,0.8,0.2,1,0,,,,,,,,,,,,,,,,,,,,,,,,,,,,,,,,,,,,
,,5f4469a101c96e20702a9ece,66fc97acd3725f8ed889d11e,2024-10-02_01h49.29.358,mdp,2024.2.1,Win32,144.9275362,66fa4ebf79326e780c390304,,,,,,,,,,,,,,,,,,,,,3372.795,3372.795,3372.7956,3373.5867,1,0,right,0.2785,,3373.5876,3373.5879,0,0,,3373.5884,3373.5888,1,0,,1,3373.5889,3373.5889,3373.5892,3375.0863,0,6,6,6,1,0.4,0.6,0.8,0.2,1,0,,,,,,,,,,,,,,,,,,,,,,,,,,,,,,,,,,,,
,,5f4469a101c96e20702a9ece,66fc97acd3725f8ed889d11e,2024-10-02_01h49.29.358,mdp,2024.2.1,Win32,144.9275362,66fa4ebf79326e780c390304,,,,,,,,,,,,,,,,,,,,,3375.0867,3375.0867,3375.0876,3375.8011,1,0,right,0.2038,,3375.8021,3375.8031,0,0,,3375.8036,3375.8039,1,1,,1,3375.804,3375.804,3375.8043,3377.302,0,7,7,7,1,0.4,0.6,0.8,0.2,1,0,,,,,,,,,,,,,,,,,,,,,,,,,,,,,,,,,,,,
,,5f4469a101c96e20702a9ece,66fc97acd3725f8ed889d11e,2024-10-02_01h49.29.358,mdp,2024.2.1,Win32,144.9275362,66fa4ebf79326e780c390304,,,,,,,,,,,,,,,,,,,,,3377.3023,3377.3023,3377.303,3377.9267,1,0,right,0.1123,,3377.9277,3377.9284,0,0,,3377.9288,3377.9291,1,1,,1,3377.9291,3377.9291,3377.9294,3379.4266,0,8,8,8,1,0.4,0.6,0.8,0.2,1,0,,,,,,,,,,,,,,,,,,,,,,,,,,,,,,,,,,,,
,,5f4469a101c96e20702a9ece,66fc97acd3725f8ed889d11e,2024-10-02_01h49.29.358,mdp,2024.2.1,Win32,144.9275362,66fa4ebf79326e780c390304,,,,,,,,,,,,,,,,,,,,,3379.427,3379.427,3379.4279,3380.0881,1,0,right,0.1524,,3380.0888,3380.0893,0,0,,3380.0896,3380.09,1,1,,1,3380.09,3380.09,3380.0903,3381.5863,0,9,9,9,1,0.4,0.6,0.8,0.2,1,0,,,,,,,,,,,,,,,,,,,,,,,,,,,,,,,,,,,,
,,5f4469a101c96e20702a9ece,66fc97acd3725f8ed889d11e,2024-10-02_01h49.29.358,mdp,2024.2.1,Win32,144.9275362,66fa4ebf79326e780c390304,,,,,,,,,,,,,,,,,,,,,3381.5867,3381.5868,3381.5876,3382.2328,1,0,right,0.131,,3382.234,3382.2343,0,1,,3382.2347,3382.235,1,1,,1,3382.235,3382.235,3382.2353,3383.7323,0,10,10,10,1,0.4,0.6,0.8,0.2,1,0,,,,,,,,,,,,,,,,,,,,,,,,,,,,,,,,,,,,
,,5f4469a101c96e20702a9ece,66fc97acd3725f8ed889d11e,2024-10-02_01h49.29.358,mdp,2024.2.1,Win32,144.9275362,66fa4ebf79326e780c390304,,,,,,,,,,,,,,,,,,,,,3383.7327,3383.7328,3383.7336,3384.3297,1,0,right,0.0839,,3384.3304,3384.3307,0,0,,3384.3311,3384.3314,1,0,,1,3384.3314,3384.3314,3384.3317,3385.8293,0,11,11,11,1,0.4,0.6,0.8,0.2,1,0,,,,,,,,,,,,,,,,,,,,,,,,,,,,,,,,,,,,
,,5f4469a101c96e20702a9ece,66fc97acd3725f8ed889d11e,2024-10-02_01h49.29.358,mdp,2024.2.1,Win32,144.9275362,66fa4ebf79326e780c390304,,,,,,,,,,,,,,,,,,,,,3385.8295,3385.8296,3385.8301,3386.5312,1,0,right,0.1882,,3386.5322,3386.533,0,0,,3386.5335,3386.5338,1,0,,1,3386.5338,3386.5338,3386.5341,3388.0309,0,12,12,12,1,0.4,0.6,0.8,0.2,1,0,,,,,,,,,,,,,,,,,,,,,,,,,,,,,,,,,,,,
,,5f4469a101c96e20702a9ece,66fc97acd3725f8ed889d11e,2024-10-02_01h49.29.358,mdp,2024.2.1,Win32,144.9275362,66fa4ebf79326e780c390304,,,,,,,,,,,,,,,,,,,,,3388.0313,3388.0313,3388.032,3388.76,1,0,right,0.2096,,3388.7608,3388.761,0,1,,3388.7615,3388.7618,1,0,,1,3388.7618,3388.7618,3388.7621,3390.26,0,13,13,13,1,0.8,0.2,0.6,0.4,1,0,,,,,,,,,,,,,,,,,,,,,,,,,,,,,,,,,,,,
,,5f4469a101c96e20702a9ece,66fc97acd3725f8ed889d11e,2024-10-02_01h49.29.358,mdp,2024.2.1,Win32,144.9275362,66fa4ebf79326e780c390304,,,,,,,,,,,,,,,,,,,,,3390.2604,3390.2604,3390.2612,3390.8713,1,0,right,0.099,,3390.872,3390.8723,0,0,,3390.8727,3390.873,1,0,,1,3390.873,3390.873,3390.8733,3392.3711,0,14,14,14,1,0.8,0.2,0.6,0.4,1,0,,,,,,,,,,,,,,,,,,,,,,,,,,,,,,,,,,,,
,,5f4469a101c96e20702a9ece,66fc97acd3725f8ed889d11e,2024-10-02_01h49.29.358,mdp,2024.2.1,Win32,144.9275362,66fa4ebf79326e780c390304,,,,,,,,,,,,,,,,,,,,,3392.3715,3392.3715,3392.3723,3392.9826,1,0,right,0.0981,,3392.9838,3392.9843,0,0,,3392.9847,3392.9849,1,0,,1,3392.9849,3392.9849,3392.9854,3394.4826,0,15,15,15,1,0.8,0.2,0.6,0.4,1,0,,,,,,,,,,,,,,,,,,,,,,,,,,,,,,,,,,,,
,,5f4469a101c96e20702a9ece,66fc97acd3725f8ed889d11e,2024-10-02_01h49.29.358,mdp,2024.2.1,Win32,144.9275362,66fa4ebf79326e780c390304,,,,,,,,,,,,,,,,,,,,,3394.4829,3394.4829,3394.4839,3395.0729,1,1,right,0.077,,3395.0741,3395.0744,0,1,,3395.0747,3395.075,1,0,,0,3395.0751,3395.0751,3395.0756,3396.5728,0,16,16,16,1,0.8,0.2,0.6,0.4,1,0,,,,,,,,,,,,,,,,,,,,,,,,,,,,,,,,,,,,
,,5f4469a101c96e20702a9ece,66fc97acd3725f8ed889d11e,2024-10-02_01h49.29.358,mdp,2024.2.1,Win32,144.9275362,66fa4ebf79326e780c390304,,,,,,,,,,,,,,,,,,,,,3396.5731,3396.5731,3396.574,3397.1422,1,1,right,0.0552,,3397.1432,3397.1434,0,0,,3397.1438,3397.1442,1,0,,0,3397.1443,3397.1443,3397.1447,3398.6422,0,17,17,17,1,0.4,0.6,0.8,0.2,1,0,,,,,,,,,,,,,,,,,,,,,,,,,,,,,,,,,,,,
,,5f4469a101c96e20702a9ece,66fc97acd3725f8ed889d11e,2024-10-02_01h49.29.358,mdp,2024.2.1,Win32,144.9275362,66fa4ebf79326e780c390304,,,,,,,,,,,,,,,,,,,,,3398.6425,3398.6425,3398.643,3399.2328,1,1,right,0.0765,,3399.234,3399.2346,0,0,,3399.2349,3399.2351,1,0,,0,3399.2351,3399.2351,3399.2355,3400.7328,0,18,18,18,1,0.4,0.6,0.8,0.2,1,0,,,,,,,,,,,,,,,,,,,,,,,,,,,,,,,,,,,,
,,5f4469a101c96e20702a9ece,66fc97acd3725f8ed889d11e,2024-10-02_01h49.29.358,mdp,2024.2.1,Win32,144.9275362,66fa4ebf79326e780c390304,,,,,,,,,,,,,,,,,,,,,3400.7332,3400.7332,3400.734,3401.2883,0,1,left,0.0411,,3401.289,3401.2893,0,1,,3401.2897,3401.29,1,1,,0,3401.29,3401.29,3401.2903,3402.7879,0,19,19,19,1,0.2,0.8,0.6,0.4,1,0,,,,,,,,,,,,,,,,,,,,,,,,,,,,,,,,,,,,
,,5f4469a101c96e20702a9ece,66fc97acd3725f8ed889d11e,2024-10-02_01h49.29.358,mdp,2024.2.1,Win32,144.9275362,66fa4ebf79326e780c390304,,,,,,,,,,,,,,,,,,,,,3402.7882,3402.7882,3402.7888,3403.4754,1,0,right,0.174,,3403.476,3403.4767,0,1,,3403.4772,3403.4775,1,0,,1,3403.4776,3403.4776,3403.4779,3404.9759,0,20,20,20,1,0.2,0.8,0.6,0.4,1,0,,,,,,,,,,,,,,,,,,,,,,,,,,,,,,,,,,,,
,,5f4469a101c96e20702a9ece,66fc97acd3725f8ed889d11e,2024-10-02_01h49.29.358,mdp,2024.2.1,Win32,144.9275362,66fa4ebf79326e780c390304,,,,,,,,,,,,,,,,,,,,,3404.9764,3404.9764,3404.9772,3405.5375,1,0,right,0.0522,,3405.5383,3405.5387,0,1,,3405.5391,3405.5394,1,1,,1,3405.5394,3405.5394,3405.5397,3407.0375,0,21,21,21,1,0.2,0.8,0.6,0.4,1,0,,,,,,,,,,,,,,,,,,,,,,,,,,,,,,,,,,,,
,,5f4469a101c96e20702a9ece,66fc97acd3725f8ed889d11e,2024-10-02_01h49.29.358,mdp,2024.2.1,Win32,144.9275362,66fa4ebf79326e780c390304,,,,,,,,,,,,,,,,,,,,,3407.0377,3407.0377,3407.0381,3407.7535,1,0,right,0.2096,,3407.7541,3407.7544,0,0,,3407.7548,3407.7551,1,1,,1,3407.7551,3407.7551,3407.7554,3409.2533,0,22,22,22,1,0.2,0.8,0.6,0.4,1,0,,,,,,,,,,,,,,,,,,,,,,,,,,,,,,,,,,,,
,,5f4469a101c96e20702a9ece,66fc97acd3725f8ed889d11e,2024-10-02_01h49.29.358,mdp,2024.2.1,Win32,144.9275362,66fa4ebf79326e780c390304,,,,,,,,,,,,,,,,,,,,,3409.2535,3409.2535,3409.2541,3410.0177,1,1,right,0.2518,,3410.0187,3410.0191,0,1,,3410.0195,3410.0199,1,1,,0,3410.02,3410.02,3410.0205,3411.5176,0,23,23,23,1,0.6,0.4,0.2,0.8,1,0,,,,,,,,,,,,,,,,,,,,,,,,,,,,,,,,,,,,
,,5f4469a101c96e20702a9ece,66fc97acd3725f8ed889d11e,2024-10-02_01h49.29.358,mdp,2024.2.1,Win32,144.9275362,66fa4ebf79326e780c390304,,,,,,,,,,,,,,,,,,,,,3411.5181,3411.5182,3411.519,3412.1974,1,0,right,0.1701,,3412.1982,3412.1986,0,0,,3412.1991,3412.1993,1,1,,1,3412.1994,3412.1994,3412.1996,3413.6975,0,24,24,24,1,0.8,0.2,0.6,0.4,1,0,,,,,,,,,,,,,,,,,,,,,,,,,,,,,,,,,,,,
,,5f4469a101c96e20702a9ece,66fc97acd3725f8ed889d11e,2024-10-02_01h49.29.358,mdp,2024.2.1,Win32,144.9275362,66fa4ebf79326e780c390304,,,,,,,,,,,,,,,,,,,,,3413.6978,3413.6978,3413.6986,3414.2397,1,1,right,0.0292,,3414.2402,3414.2405,0,0,,3414.2409,3414.2413,1,0,,0,3414.2413,3414.2413,3414.2415,3415.7394,0,25,25,25,1,0.8,0.2,0.6,0.4,1,0,,,,,,,,,,,,,,,,,,,,,,,,,,,,,,,,,,,,
,,5f4469a101c96e20702a9ece,66fc97acd3725f8ed889d11e,2024-10-02_01h49.29.358,mdp,2024.2.1,Win32,144.9275362,66fa4ebf79326e780c390304,,,,,,,,,,,,,,,,,,,,,3415.7398,3415.7398,3415.7406,3416.5726,1,0,right,0.3242,,3416.5734,3416.5737,0,1,,3416.5741,3416.5744,1,0,,1,3416.5744,3416.5745,3416.5747,3418.0727,0,26,26,26,1,0.6,0.4,0.8,0.2,1,0,,,,,,,,,,,,,,,,,,,,,,,,,,,,,,,,,,,,
,,5f4469a101c96e20702a9ece,66fc97acd3725f8ed889d11e,2024-10-02_01h49.29.358,mdp,2024.2.1,Win32,144.9275362,66fa4ebf79326e780c390304,,,,,,,,,,,,,,,,,,,,,3418.0732,3418.0732,3418.0743,3418.5869,1,0,right,0.0003,,3418.588,3418.5883,0,0,,3418.5888,3418.5891,1,0,,1,3418.5891,3418.5891,3418.5896,3420.0867,0,27,27,27,1,0.6,0.4,0.8,0.2,1,0,,,,,,,,,,,,,,,,,,,,,,,,,,,,,,,,,,,,
,,5f4469a101c96e20702a9ece,66fc97acd3725f8ed889d11e,2024-10-02_01h49.29.358,mdp,2024.2.1,Win32,144.9275362,66fa4ebf79326e780c390304,,,,,,,,,,,,,,,,,,,,,3420.0871,3420.0871,3420.088,3420.6705,1,0,right,0.0695,,3420.6711,3420.6714,0,0,,3420.6718,3420.6722,1,1,,1,3420.6722,3420.6723,3420.6727,3422.1695,0,28,28,28,1,0.6,0.4,0.8,0.2,1,0,,,,,,,,,,,,,,,,,,,,,,,,,,,,,,,,,,,,
,,5f4469a101c96e20702a9ece,66fc97acd3725f8ed889d11e,2024-10-02_01h49.29.358,mdp,2024.2.1,Win32,144.9275362,66fa4ebf79326e780c390304,,,,,,,,,,,,,,,,,,,,,3422.1697,3422.1697,3422.1702,3422.6836,1,1,right,0.0101,,3422.6843,3422.6846,0,1,,3422.685,3422.6852,1,1,,0,3422.6852,3422.6852,3422.6856,3424.1842,0,29,29,29,1,0.8,0.2,0.4,0.6,1,0,,,,,,,,,,,,,,,,,,,,,,,,,,,,,,,,,,,,
,,5f4469a101c96e20702a9ece,66fc97acd3725f8ed889d11e,2024-10-02_01h49.29.358,mdp,2024.2.1,Win32,144.9275362,66fa4ebf79326e780c390304,,,,,,,,,,,,,,,,,,,,,3424.1846,3424.1846,3424.1856,3424.8366,1,1,right,0.1383,,3424.8373,3424.8377,0,1,,3424.8381,3424.8385,1,1,,0,3424.8385,3424.8385,3424.839,3426.3365,0,30,30,30,1,0.8,0.2,0.4,0.6,1,0,,,,,,,,,,,,,,,,,,,,,,,,,,,,,,,,,,,,
,,5f4469a101c96e20702a9ece,66fc97acd3725f8ed889d11e,2024-10-02_01h49.29.358,mdp,2024.2.1,Win32,144.9275362,66fa4ebf79326e780c390304,,,,,,,,,,,,,,,,,,,,,3426.3369,3426.3369,3426.3374,3427.0727,1,1,right,0.222,,3427.0733,3427.074,0,0,,3427.0745,3427.0749,1,1,,0,3427.0749,3427.0749,3427.0754,3428.5729,0,31,31,31,1,0.8,0.2,0.4,0.6,1,0,,,,,,,,,,,,,,,,,,,,,,,,,,,,,,,,,,,,
,,5f4469a101c96e20702a9ece,66fc97acd3725f8ed889d11e,2024-10-02_01h49.29.358,mdp,2024.2.1,Win32,144.9275362,66fa4ebf79326e780c390304,,,,,,,,,,,,,,,,,,,,,3428.5734,3428.5734,3428.5744,3429.3433,1,1,right,0.2585,,3429.3439,3429.3443,0,1,,3429.3446,3429.3451,1,0,,0,3429.3451,3429.3451,3429.3455,3430.8438,0,32,32,32,1,0.6,0.4,0.6,0.4,1,0,,,,,,,,,,,,,,,,,,,,,,,,,,,,,,,,,,,,
,,5f4469a101c96e20702a9ece,66fc97acd3725f8ed889d11e,2024-10-02_01h49.29.358,mdp,2024.2.1,Win32,144.9275362,66fa4ebf79326e780c390304,,,,,,,,,,,,,,,,,,,,,3430.8442,3430.8442,3430.8456,3431.5794,1,0,right,0.2267,,3431.5802,3431.5806,0,1,,3431.5809,3431.5812,1,0,,1,3431.5812,3431.5812,3431.5815,3433.0795,0,33,33,33,1,0.2,0.8,0.8,0.2,1,0,,,,,,,,,,,,,,,,,,,,,,,,,,,,,,,,,,,,
,,5f4469a101c96e20702a9ece,66fc97acd3725f8ed889d11e,2024-10-02_01h49.29.358,mdp,2024.2.1,Win32,144.9275362,66fa4ebf79326e780c390304,,,,,,,,,,,,,,,,,,,,,3433.0796,3433.0796,3433.0803,3433.8372,1,1,right,0.251,,3433.8384,3433.8388,0,0,,3433.8392,3433.8395,1,0,,0,3433.8395,3433.8395,3433.8398,3435.337,0,34,34,34,1,0.2,0.8,0.8,0.2,1,0,,,,,,,,,,,,,,,,,,,,,,,,,,,,,,,,,,,,
