init_exp.started,init_exp.stopped,participant,session,date,expName,psychopyVersion,OS,frameRate,study_id,disp_instruction.started,disp_instruction.stopped,instruction.thisRepN,instruction.thisTrialN,instruction.thisN,instruction.thisIndex,instruction.ran,instimg_path,consent.started,consent.stopped,key_resp_3.keys,key_resp_3.rt,key_resp_3.duration,n_steps,sequence_path,init_block.started,init_block.stopped,key_resp.keys,key_resp.rt,key_resp.duration,init_trials.started,init_trials.stopped,step0.started,step0.stopped,act0,s1,res0.keys,res0.rt,res0.duration,step1.started,step1.stopped,act1,s2,res1.keys,step2.started,step2.stopped,act2,s3,res2.keys,rew,reward_comp.started,reward_comp.stopped,reward_disp.started,reward_disp.stopped,trials.thisRepN,trials.thisTrialN,trials.thisN,trials.thisIndex,trials.ran,s00a0s10,s00a0s11,s00a1s10,s00a1s11,rew10,rew11,break_block.started,break_block.stopped,block.thisRepN,block.thisTrialN,block.thisN,block.thisIndex,block.ran,s00path,s10path,s11path,s20path,s21path,res1.rt,res1.duration,s10a0s20,s10a0s21,s10a1s20,s10a1s21,s11a0s20,s11a0s21,s11a1s20,s11a1s21,rew20,rew21,res2.rt,res2.duration,s20a0s30,s20a0s31,s20a1s30,s20a1s31,s21a0s30,s21a0s31,s21a1s30,s21a1s31,rew30,rew31
0.0003,0.001,5faacca24cd0384c1fa08be1,66fc97e542b801f3398f55ea,2024-10-02_02h47.35.121,mdp,2024.2.1,Win32,144.9275362,66fa4ebf79326e780c390304,,,,,,,,,,,,,,,,,,,,,,,,,,,,,,,,,,,,,,,,,,,,,,,,,,,,,,,,,,,,,,,,,,,,,,,,,,,,,,,,,,,,,,,,,,,
,,5faacca24cd0384c1fa08be1,66fc97e542b801f3398f55ea,2024-10-02_02h47.35.121,mdp,2024.2.1,Win32,144.9275362,66fa4ebf79326e780c390304,0.003,44.247,0,0,0,0,1,rlnn_exp/rlnn_exp.001.png,,,,,,,,,,,,,,,,,,,,,,,,,,,,,,,,,,,,,,,,,,,,,,,,,,,,,,,,,,,,,,,,,,,,,,,,,,,,,,,,,,,
,,5faacca24cd0384c1fa08be1,66fc97e542b801f3398f55ea,2024-10-02_02h47.35.121,mdp,2024.2.1,Win32,144.9275362,66fa4ebf79326e780c390304,44.2474,75.007,0,1,1,1,1,rlnn_exp/rlnn_exp.002.png,,,,,,,,,,,,,,,,,,,,,,,,,,,,,,,,,,,,,,,,,,,,,,,,,,,,,,,,,,,,,,,,,,,,,,,,,,,,,,,,,,,
,,5faacca24cd0384c1fa08be1,66fc97e542b801f3398f55ea,2024-10-02_02h47.35.121,mdp,2024.2.1,Win32,144.9275362,66fa4ebf79326e780c390304,75.0123,93.7454,0,2,2,2,1,rlnn_exp/rlnn_exp.003.png,,,,,,,,,,,,,,,,,,,,,,,,,,,,,,,,,,,,,,,,,,,,,,,,,,,,,,,,,,,,,,,,,,,,,,,,,,,,,,,,,,,
,,5faacca24cd0384c1fa08be1,66fc97e542b801f3398f55ea,2024-10-02_02h47.35.121,mdp,2024.2.1,Win32,144.9275362,66fa4ebf79326e780c390304,93.7506,129.7563,0,3,3,3,1,rlnn_exp/rlnn_exp.004.png,,,,,,,,,,,,,,,,,,,,,,,,,,,,,,,,,,,,,,,,,,,,,,,,,,,,,,,,,,,,,,,,,,,,,,,,,,,,,,,,,,,
,,5faacca24cd0384c1fa08be1,66fc97e542b801f3398f55ea,2024-10-02_02h47.35.121,mdp,2024.2.1,Win32,144.9275362,66fa4ebf79326e780c390304,,,,,,,,,129.7616,142.8549,y,3.0804,,,,,,,,,,,,,,,,,,,,,,,,,,,,,,,,,,,,,,,,,,,,,,,,,,,,,,,,,,,,,,,,,,,,,,,,,,,,,,,
,,5faacca24cd0384c1fa08be1,66fc97e542b801f3398f55ea,2024-10-02_02h47.35.121,mdp,2024.2.1,Win32,144.9275362,66fa4ebf79326e780c390304,,,,,,,,,,,,,,1,seqs/st1seq3.csv,142.8631,146.9182,space,3.5405,,146.9248,146.9248,146.9255,148.4113,1,1,right,0.9789,,148.4116,148.4123,,0,,148.4124,148.4129,,0,,0,148.4129,148.413,148.4131,149.9114,0,0,0,0,1,0.6,0.4,0.6,0.4,1,0,,,,,,,,,,,,,,,,,,,,,,,,,,,,,,,,,,,,
,,5faacca24cd0384c1fa08be1,66fc97e542b801f3398f55ea,2024-10-02_02h47.35.121,mdp,2024.2.1,Win32,144.9275362,66fa4ebf79326e780c390304,,,,,,,,,,,,,,,,,,,,,149.9115,149.9115,149.9119,151.4254,0,0,left,1.0022,,151.4259,151.4261,,0,,151.4263,151.4266,,0,,1,151.4266,151.4266,151.4267,152.9255,0,1,1,1,1,0.6,0.4,0.6,0.4,1,0,,,,,,,,,,,,,,,,,,,,,,,,,,,,,,,,,,,,
,,5faacca24cd0384c1fa08be1,66fc97e542b801f3398f55ea,2024-10-02_02h47.35.121,mdp,2024.2.1,Win32,144.9275362,66fa4ebf79326e780c390304,,,,,,,,,,,,,,,,,,,,,152.9257,152.9257,152.9263,154.773,1,0,right,1.3367,,154.7734,154.7737,,0,,154.774,154.7742,,0,,1,154.7742,154.7742,154.7744,156.2731,0,2,2,2,1,0.6,0.4,0.6,0.4,1,0,,,,,,,,,,,,,,,,,,,,,,,,,,,,,,,,,,,,
,,5faacca24cd0384c1fa08be1,66fc97e542b801f3398f55ea,2024-10-02_02h47.35.121,mdp,2024.2.1,Win32,144.9275362,66fa4ebf79326e780c390304,,,,,,,,,,,,,,,,,,,,,156.2733,156.2733,156.2739,157.5789,0,0,left,0.7923,,157.5793,157.5796,,1,,157.5798,157.5801,,0,,1,157.5801,157.5801,157.5802,159.0789,0,3,3,3,1,0.6,0.4,0.6,0.4,1,0,,,,,,,,,,,,,,,,,,,,,,,,,,,,,,,,,,,,
,,5faacca24cd0384c1fa08be1,66fc97e542b801f3398f55ea,2024-10-02_02h47.35.121,mdp,2024.2.1,Win32,144.9275362,66fa4ebf79326e780c390304,,,,,,,,,,,,,,,,,,,,,159.0791,159.0791,159.0796,160.3083,0,0,left,0.7169,,160.3088,160.3092,,0,,160.3094,160.3096,,1,,1,160.3096,160.3097,160.3098,161.8084,0,4,4,4,1,0.6,0.4,0.6,0.4,1,0,,,,,,,,,,,,,,,,,,,,,,,,,,,,,,,,,,,,
,,5faacca24cd0384c1fa08be1,66fc97e542b801f3398f55ea,2024-10-02_02h47.35.121,mdp,2024.2.1,Win32,144.9275362,66fa4ebf79326e780c390304,,,,,,,,,,,,,,,,,,,,,161.8086,161.8086,161.8093,163.3781,1,1,right,1.0578,,163.3786,163.3789,,1,,163.3791,163.3794,,0,,0,163.3794,163.3794,163.3796,164.8782,0,5,5,5,1,0.8,0.2,0.2,0.8,1,0,,,,,,,,,,,,,,,,,,,,,,,,,,,,,,,,,,,,
,,5faacca24cd0384c1fa08be1,66fc97e542b801f3398f55ea,2024-10-02_02h47.35.121,mdp,2024.2.1,Win32,144.9275362,66fa4ebf79326e780c390304,,,,,,,,,,,,,,,,,,,,,164.8784,164.8784,164.879,166.2396,1,1,right,0.8474,,166.24,166.2402,,1,,166.2406,166.2409,,1,,0,166.2409,166.2409,166.2412,167.7396,0,6,6,6,1,0.8,0.2,0.2,0.8,1,0,,,,,,,,,,,,,,,,,,,,,,,,,,,,,,,,,,,,
,,5faacca24cd0384c1fa08be1,66fc97e542b801f3398f55ea,2024-10-02_02h47.35.121,mdp,2024.2.1,Win32,144.9275362,66fa4ebf79326e780c390304,,,,,,,,,,,,,,,,,,,,,167.7398,167.7398,167.7404,168.7537,0,0,left,0.5002,,168.7541,168.7545,,0,,168.7547,168.7548,,0,,1,168.7548,168.7548,168.755,170.2538,0,7,7,7,1,0.8,0.2,0.2,0.8,1,0,,,,,,,,,,,,,,,,,,,,,,,,,,,,,,,,,,,,
,,5faacca24cd0384c1fa08be1,66fc97e542b801f3398f55ea,2024-10-02_02h47.35.121,mdp,2024.2.1,Win32,144.9275362,66fa4ebf79326e780c390304,,,,,,,,,,,,,,,,,,,,,170.2539,170.254,170.2544,171.2747,0,0,left,0.5102,,171.2752,171.2754,,0,,171.2757,171.2758,,0,,1,171.2759,171.2759,171.2761,172.7749,0,8,8,8,1,0.8,0.2,0.2,0.8,1,0,,,,,,,,,,,,,,,,,,,,,,,,,,,,,,,,,,,,
,,5faacca24cd0384c1fa08be1,66fc97e542b801f3398f55ea,2024-10-02_02h47.35.121,mdp,2024.2.1,Win32,144.9275362,66fa4ebf79326e780c390304,,,,,,,,,,,,,,,,,,,,,172.7751,172.7751,172.7755,174.2196,0,0,left,0.9332,,174.22,174.2203,,1,,174.2205,174.2207,,1,,1,174.2207,174.2207,174.2209,175.7197,0,9,9,9,1,0.8,0.2,0.2,0.8,1,0,,,,,,,,,,,,,,,,,,,,,,,,,,,,,,,,,,,,
,,5faacca24cd0384c1fa08be1,66fc97e542b801f3398f55ea,2024-10-02_02h47.35.121,mdp,2024.2.1,Win32,144.9275362,66fa4ebf79326e780c390304,,,,,,,,,,,,,,,,,,,,,175.7199,175.7199,175.7203,176.7338,0,0,left,0.505,,176.7342,176.7346,,0,,176.7349,176.7352,,0,,1,176.7352,176.7352,176.7353,178.2338,0,10,10,10,1,0.8,0.2,0.2,0.8,1,0,,,,,,,,,,,,,,,,,,,,,,,,,,,,,,,,,,,,
,,5faacca24cd0384c1fa08be1,66fc97e542b801f3398f55ea,2024-10-02_02h47.35.121,mdp,2024.2.1,Win32,144.9275362,66fa4ebf79326e780c390304,,,,,,,,,,,,,,,,,,,,,178.234,178.234,178.2344,179.6369,0,0,left,0.8891,,179.6373,179.6377,,1,,179.6379,179.6381,,0,,1,179.6381,179.6381,179.6382,181.137,0,11,11,11,1,0.8,0.2,0.2,0.8,1,0,,,,,,,,,,,,,,,,,,,,,,,,,,,,,,,,,,,,
,,5faacca24cd0384c1fa08be1,66fc97e542b801f3398f55ea,2024-10-02_02h47.35.121,mdp,2024.2.1,Win32,144.9275362,66fa4ebf79326e780c390304,,,,,,,,,,,,,,,,,,,,,181.1371,181.1371,181.1376,182.0329,0,1,left,0.3824,,182.0335,182.0337,,1,,182.0339,182.034,,0,,0,182.034,182.034,182.0343,183.5331,0,12,12,12,1,0.4,0.6,0.8,0.2,1,0,,,,,,,,,,,,,,,,,,,,,,,,,,,,,,,,,,,,
,,5faacca24cd0384c1fa08be1,66fc97e542b801f3398f55ea,2024-10-02_02h47.35.121,mdp,2024.2.1,Win32,144.9275362,66fa4ebf79326e780c390304,,,,,,,,,,,,,,,,,,,,,183.5332,183.5332,183.5336,184.4498,0,1,left,0.4074,,184.4503,184.4506,,1,,184.4508,184.451,,1,,0,184.451,184.451,184.4512,185.95,0,13,13,13,1,0.4,0.6,0.8,0.2,1,0,,,,,,,,,,,,,,,,,,,,,,,,,,,,,,,,,,,,
,,5faacca24cd0384c1fa08be1,66fc97e542b801f3398f55ea,2024-10-02_02h47.35.121,mdp,2024.2.1,Win32,144.9275362,66fa4ebf79326e780c390304,,,,,,,,,,,,,,,,,,,,,185.9502,185.9502,185.9506,186.846,1,0,right,0.3802,,186.8464,186.8466,,0,,186.8468,186.8471,,1,,1,186.8471,186.8471,186.8472,188.3461,0,14,14,14,1,0.4,0.6,0.8,0.2,1,0,,,,,,,,,,,,,,,,,,,,,,,,,,,,,,,,,,,,
,,5faacca24cd0384c1fa08be1,66fc97e542b801f3398f55ea,2024-10-02_02h47.35.121,mdp,2024.2.1,Win32,144.9275362,66fa4ebf79326e780c390304,,,,,,,,,,,,,,,,,,,,,188.3463,188.3463,188.3467,189.2629,1,1,right,0.4077,,189.2634,189.2637,,1,,189.264,189.2641,,1,,0,189.2642,189.2642,189.2643,190.763,0,15,15,15,1,0.6,0.4,0.2,0.8,1,0,,,,,,,,,,,,,,,,,,,,,,,,,,,,,,,,,,,,
,,5faacca24cd0384c1fa08be1,66fc97e542b801f3398f55ea,2024-10-02_02h47.35.121,mdp,2024.2.1,Win32,144.9275362,66fa4ebf79326e780c390304,,,,,,,,,,,,,,,,,,,,,190.7632,190.7632,190.7636,191.6521,1,1,right,0.3781,,191.6526,191.6529,,1,,191.6531,191.6533,,1,,0,191.6533,191.6533,191.6535,193.1522,0,16,16,16,1,0.6,0.4,0.2,0.8,1,0,,,,,,,,,,,,,,,,,,,,,,,,,,,,,,,,,,,,
,,5faacca24cd0384c1fa08be1,66fc97e542b801f3398f55ea,2024-10-02_02h47.35.121,mdp,2024.2.1,Win32,144.9275362,66fa4ebf79326e780c390304,,,,,,,,,,,,,,,,,,,,,193.1524,193.1524,193.1528,193.8607,1,1,right,0.1961,,193.8611,193.8615,,1,,193.8616,193.8618,,1,,0,193.8619,193.8619,193.8621,195.3607,0,17,17,17,1,0.6,0.4,0.2,0.8,1,0,,,,,,,,,,,,,,,,,,,,,,,,,,,,,,,,,,,,
,,5faacca24cd0384c1fa08be1,66fc97e542b801f3398f55ea,2024-10-02_02h47.35.121,mdp,2024.2.1,Win32,144.9275362,66fa4ebf79326e780c390304,,,,,,,,,,,,,,,,,,,,,195.361,195.361,195.3613,195.8956,0,1,left,0.0228,,195.8961,195.8964,,0,,195.8967,195.8968,,0,,0,195.8968,195.8968,195.8971,197.3957,0,18,18,18,1,0.6,0.4,0.2,0.8,1,0,,,,,,,,,,,,,,,,,,,,,,,,,,,,,,,,,,,,
,,5faacca24cd0384c1fa08be1,66fc97e542b801f3398f55ea,2024-10-02_02h47.35.121,mdp,2024.2.1,Win32,144.9275362,66fa4ebf79326e780c390304,,,,,,,,,,,,,,,,,,,,,197.3959,197.3959,197.3963,198.0694,0,1,left,0.1633,,198.07,198.0702,,1,,198.0705,198.0707,,0,,0,198.0707,198.0707,198.0708,199.5697,0,19,19,19,1,0.6,0.4,0.2,0.8,1,0,,,,,,,,,,,,,,,,,,,,,,,,,,,,,,,,,,,,
,,5faacca24cd0384c1fa08be1,66fc97e542b801f3398f55ea,2024-10-02_02h47.35.121,mdp,2024.2.1,Win32,144.9275362,66fa4ebf79326e780c390304,,,,,,,,,,,,,,,,,,,,,199.5698,199.5698,199.5702,200.1669,0,1,left,0.0876,,200.1674,200.1677,,1,,200.1678,200.168,,1,,0,200.168,200.168,200.1682,201.6671,0,20,20,20,1,0.6,0.4,0.2,0.8,1,0,,,,,,,,,,,,,,,,,,,,,,,,,,,,,,,,,,,,
,,5faacca24cd0384c1fa08be1,66fc97e542b801f3398f55ea,2024-10-02_02h47.35.121,mdp,2024.2.1,Win32,144.9275362,66fa4ebf79326e780c390304,,,,,,,,,,,,,,,,,,,,,201.6672,201.6672,201.6676,202.4241,0,0,left,0.2464,,202.4246,202.4249,,1,,202.425,202.4252,,0,,1,202.4252,202.4252,202.4253,203.9242,0,21,21,21,1,0.6,0.4,0.2,0.8,1,0,,,,,,,,,,,,,,,,,,,,,,,,,,,,,,,,,,,,
,,5faacca24cd0384c1fa08be1,66fc97e542b801f3398f55ea,2024-10-02_02h47.35.121,mdp,2024.2.1,Win32,144.9275362,66fa4ebf79326e780c390304,,,,,,,,,,,,,,,,,,,,,203.9244,203.9244,203.9248,204.6744,0,0,left,0.2364,,204.6748,204.675,,0,,204.6753,204.6754,,0,,1,204.6754,204.6754,204.6756,206.1745,0,22,22,22,1,0.6,0.4,0.2,0.8,1,0,,,,,,,,,,,,,,,,,,,,,,,,,,,,,,,,,,,,
,,5faacca24cd0384c1fa08be1,66fc97e542b801f3398f55ea,2024-10-02_02h47.35.121,mdp,2024.2.1,Win32,144.9275362,66fa4ebf79326e780c390304,,,,,,,,,,,,,,,,,,,,,206.1747,206.1747,206.1751,206.7649,0,1,left,0.0813,,206.7653,206.7655,,0,,206.7657,206.7659,,0,,0,206.7659,206.7659,206.7661,208.265,0,23,23,23,1,0.6,0.4,0.2,0.8,1,0,,,,,,,,,,,,,,,,,,,,,,,,,,,,,,,,,,,,
,,5faacca24cd0384c1fa08be1,66fc97e542b801f3398f55ea,2024-10-02_02h47.35.121,mdp,2024.2.1,Win32,144.9275362,66fa4ebf79326e780c390304,,,,,,,,,,,,,,,,,,,,,208.2651,208.2651,208.2655,208.8485,1,1,right,0.074,,208.8489,208.8491,,1,,208.8493,208.8495,,1,,0,208.8495,208.8495,208.8497,210.3485,0,24,24,24,1,0.6,0.4,0.2,0.8,1,0,,,,,,,,,,,,,,,,,,,,,,,,,,,,,,,,,,,,
,,5faacca24cd0384c1fa08be1,66fc97e542b801f3398f55ea,2024-10-02_02h47.35.121,mdp,2024.2.1,Win32,144.9275362,66fa4ebf79326e780c390304,,,,,,,,,,,,,,,,,,,,,210.3487,210.3487,210.3492,211.1196,1,1,right,0.2577,,211.12,211.1203,,0,,211.1205,211.1208,,0,,0,211.1208,211.1208,211.1209,212.6197,0,25,25,25,1,0.8,0.2,0.4,0.6,1,0,,,,,,,,,,,,,,,,,,,,,,,,,,,,,,,,,,,,
,,5faacca24cd0384c1fa08be1,66fc97e542b801f3398f55ea,2024-10-02_02h47.35.121,mdp,2024.2.1,Win32,144.9275362,66fa4ebf79326e780c390304,,,,,,,,,,,,,,,,,,,,,212.6198,212.6199,212.6202,213.2171,1,1,right,0.0835,,213.2174,213.2178,,1,,213.218,213.2182,,1,,0,213.2182,213.2182,213.2184,214.7171,0,26,26,26,1,0.8,0.2,0.4,0.6,1,0,,,,,,,,,,,,,,,,,,,,,,,,,,,,,,,,,,,,
,,5faacca24cd0384c1fa08be1,66fc97e542b801f3398f55ea,2024-10-02_02h47.35.121,mdp,2024.2.1,Win32,144.9275362,66fa4ebf79326e780c390304,,,,,,,,,,,,,,,,,,,,,214.7174,214.7174,214.7177,215.4254,1,1,right,0.1986,,215.4258,215.4261,,1,,215.4263,215.4266,,1,,0,215.4266,215.4266,215.4267,216.9258,0,27,27,27,1,0.8,0.2,0.4,0.6,1,0,,,,,,,,,,,,,,,,,,,,,,,,,,,,,,,,,,,,
,,5faacca24cd0384c1fa08be1,66fc97e542b801f3398f55ea,2024-10-02_02h47.35.121,mdp,2024.2.1,Win32,144.9275362,66fa4ebf79326e780c390304,,,,,,,,,,,,,,,,,,,,,216.9259,216.9259,216.9262,217.6619,0,0,left,0.2255,,217.6623,217.6626,,0,,217.6628,217.663,,0,,1,217.663,217.663,217.6631,219.162,0,28,28,28,1,0.8,0.2,0.4,0.6,1,0,,,,,,,,,,,,,,,,,,,,,,,,,,,,,,,,,,,,
,,5faacca24cd0384c1fa08be1,66fc97e542b801f3398f55ea,2024-10-02_02h47.35.121,mdp,2024.2.1,Win32,144.9275362,66fa4ebf79326e780c390304,,,,,,,,,,,,,,,,,,,,,219.1622,219.1622,219.1626,219.9955,0,0,left,0.3232,,219.9959,219.9962,,1,,219.9965,219.9966,,0,,1,219.9966,219.9966,219.9968,221.4956,0,29,29,29,1,0.8,0.2,0.4,0.6,1,0,,,,,,,,,,,,,,,,,,,,,,,,,,,,,,,,,,,,
,,5faacca24cd0384c1fa08be1,66fc97e542b801f3398f55ea,2024-10-02_02h47.35.121,mdp,2024.2.1,Win32,144.9275362,66fa4ebf79326e780c390304,,,,,,,,,,,,,,,,,,,,,221.4958,221.4958,221.4963,222.086,0,0,left,0.0744,,222.0865,222.0867,,0,,222.087,222.0871,,0,,1,222.0871,222.0871,222.0873,223.5861,0,30,30,30,1,0.4,0.6,0.8,0.2,1,0,,,,,,,,,,,,,,,,,,,,,,,,,,,,,,,,,,,,
,,5faacca24cd0384c1fa08be1,66fc97e542b801f3398f55ea,2024-10-02_02h47.35.121,mdp,2024.2.1,Win32,144.9275362,66fa4ebf79326e780c390304,,,,,,,,,,,,,,,,,,,,,223.5863,223.5863,223.5867,224.2807,0,1,left,0.1808,,224.2812,224.2814,,0,,224.2816,224.2818,,1,,0,224.2818,224.2818,224.282,225.7808,0,31,31,31,1,0.4,0.6,0.8,0.2,1,0,,,,,,,,,,,,,,,,,,,,,,,,,,,,,,,,,,,,
,,5faacca24cd0384c1fa08be1,66fc97e542b801f3398f55ea,2024-10-02_02h47.35.121,mdp,2024.2.1,Win32,144.9275362,66fa4ebf79326e780c390304,,,,,,,,,,,,,,,,,,,,,225.781,225.781,225.7814,226.7046,1,0,right,0.4122,,226.705,226.7053,,0,,226.7055,226.7057,,0,,1,226.7057,226.7057,226.7059,228.2048,0,32,32,32,1,0.4,0.6,0.8,0.2,1,0,,,,,,,,,,,,,,,,,,,,,,,,,,,,,,,,,,,,
,,5faacca24cd0384c1fa08be1,66fc97e542b801f3398f55ea,2024-10-02_02h47.35.121,mdp,2024.2.1,Win32,144.9275362,66fa4ebf79326e780c390304,,,,,,,,,,,,,,,,,,,,,228.205,228.205,228.2054,228.7326,1,1,right,0.0186,,228.733,228.7332,,0,,228.7334,228.7336,,0,,0,228.7336,228.7336,228.7338,230.2328,0,33,33,33,1,0.4,0.6,0.8,0.2,1,0,,,,,,,,,,,,,,,,,,,,,,,,,,,,,,,,,,,,
,,5faacca24cd0384c1fa08be1,66fc97e542b801f3398f55ea,2024-10-02_02h47.35.121,mdp,2024.2.1,Win32,144.9275362,66fa4ebf79326e780c390304,,,,,,,,,,,,,,,,,,,,,230.233,230.233,230.2333,230.8578,0,0,left,0.1117,,230.8583,230.8585,,1,,230.8587,230.8589,,1,,1,230.8589,230.8589,230.859,232.3579,0,34,34,34,1,0.4,0.6,0.8,0.2,1,0,,,,,,,,,,,,,,,,,,,,,,,,,,,,,,,,,,,,
,,5faacca24cd0384c1fa08be1,66fc97e542b801f3398f55ea,2024-10-02_02h47.35.121,mdp,2024.2.1,Win32,144.9275362,66fa4ebf79326e780c390304,,,,,,,,,,,,,,,,,,,,,232.3582,232.3582,232.3586,232.9483,0,1,left,0.0766,,232.9488,232.9491,,1,,232.9493,232.9495,,0,,0,232.9495,232.9495,232.9496,234.4485,0,35,35,35,1,0.4,0.6,0.8,0.2,1,0,,,,,,,,,,,,,,,,,,,,,,,,,,,,,,,,,,,,
,,5faacca24cd0384c1fa08be1,66fc97e542b801f3398f55ea,2024-10-02_02h47.35.121,mdp,2024.2.1,Win32,144.9275362,66fa4ebf79326e780c390304,,,,,,,,,,,,,,,,,,,,,234.4487,234.4487,234.4491,235.0389,1,0,right,0.0785,,235.0393,235.0396,,0,,235.0398,235.0399,,0,,1,235.04,235.04,235.0401,236.539,0,36,36,36,1,0.4,0.6,0.8,0.2,1,0,,,,,,,,,,,,,,,,,,,,,,,,,,,,,,,,,,,,
,,5faacca24cd0384c1fa08be1,66fc97e542b801f3398f55ea,2024-10-02_02h47.35.121,mdp,2024.2.1,Win32,144.9275362,66fa4ebf79326e780c390304,,,,,,,,,,,,,,,,,,,,,236.5392,236.5392,236.5396,237.06,1,1,right,0.0111,,237.0604,237.0607,,0,,237.0609,237.061,,0,,0,237.061,237.061,237.0613,238.56,0,37,37,37,1,0.4,0.6,0.8,0.2,1,0,,,,,,,,,,,,,,,,,,,,,,,,,,,,,,,,,,,,
,,5faacca24cd0384c1fa08be1,66fc97e542b801f3398f55ea,2024-10-02_02h47.35.121,mdp,2024.2.1,Win32,144.9275362,66fa4ebf79326e780c390304,,,,,,,,,,,,,,,,,,,,,238.5602,238.5602,238.5606,239.1505,0,1,left,0.0766,,239.1509,239.1512,,1,,239.1514,239.1515,,1,,0,239.1515,239.1515,239.1517,240.6505,0,38,38,38,1,0.4,0.6,0.8,0.2,1,0,,,,,,,,,,,,,,,,,,,,,,,,,,,,,,,,,,,,
,,5faacca24cd0384c1fa08be1,66fc97e542b801f3398f55ea,2024-10-02_02h47.35.121,mdp,2024.2.1,Win32,144.9275362,66fa4ebf79326e780c390304,,,,,,,,,,,,,,,,,,,,,240.6506,240.6506,240.6509,241.3452,0,0,left,0.1891,,241.3456,241.3458,,1,,241.3461,241.3463,,0,,1,241.3463,241.3463,241.3465,242.8453,0,39,39,39,1,0.8,0.2,0.6,0.4,1,0,,,,,,,,,,,,,,,,,,,,,,,,,,,,,,,,,,,,
,,5faacca24cd0384c1fa08be1,66fc97e542b801f3398f55ea,2024-10-02_02h47.35.121,mdp,2024.2.1,Win32,144.9275362,66fa4ebf79326e780c390304,,,,,,,,,,,,,,,,,,,,,242.8454,242.8454,242.8464,243.4218,0,1,left,0.0626,,243.4222,243.4224,,1,,243.4226,243.4227,,0,,0,243.4227,243.4227,243.4229,244.9218,0,40,40,40,1,0.8,0.2,0.6,0.4,1,0,,,,,,,,,,,,,,,,,,,,,,,,,,,,,,,,,,,,
,,5faacca24cd0384c1fa08be1,66fc97e542b801f3398f55ea,2024-10-02_02h47.35.121,mdp,2024.2.1,Win32,144.9275362,66fa4ebf79326e780c390304,,,,,,,,,,,,,,,,,,,,,244.9221,244.9221,244.9225,245.5053,0,1,left,0.0722,,245.5058,245.5061,,0,,245.5062,245.5063,,0,,0,245.5063,245.5064,245.5065,247.0055,0,41,41,41,1,0.8,0.2,0.6,0.4,1,0,,,,,,,,,,,,,,,,,,,,,,,,,,,,,,,,,,,,
,,5faacca24cd0384c1fa08be1,66fc97e542b801f3398f55ea,2024-10-02_02h47.35.121,mdp,2024.2.1,Win32,144.9275362,66fa4ebf79326e780c390304,,,,,,,,,,,,,,,,,,,,,247.0057,247.0057,247.006,247.9501,1,1,right,0.4319,,247.9505,247.9507,,1,,247.9509,247.9511,,1,,0,247.9511,247.9511,247.9512,249.4502,0,42,42,42,1,0.6,0.4,0.4,0.6,1,0,,,,,,,,,,,,,,,,,,,,,,,,,,,,,,,,,,,,
,,5faacca24cd0384c1fa08be1,66fc97e542b801f3398f55ea,2024-10-02_02h47.35.121,mdp,2024.2.1,Win32,144.9275362,66fa4ebf79326e780c390304,,,,,,,,,,,,,,,,,,,,,249.4503,249.4503,249.4507,249.9711,1,0,right,0.0104,,249.9715,249.9717,,1,,249.972,249.9721,,0,,1,249.9721,249.9721,249.9722,251.4712,0,43,43,43,1,0.6,0.4,0.4,0.6,1,0,,,,,,,,,,,,,,,,,,,,,,,,,,,,,,,,,,,,
,,5faacca24cd0384c1fa08be1,66fc97e542b801f3398f55ea,2024-10-02_02h47.35.121,mdp,2024.2.1,Win32,144.9275362,66fa4ebf79326e780c390304,,,,,,,,,,,,,,,,,,,,,251.4714,251.4714,251.4718,252.0964,1,1,right,0.1127,,252.0967,252.0971,,0,,252.0973,252.0974,,1,,0,252.0974,252.0974,252.0976,253.5965,0,44,44,44,1,0.6,0.4,0.4,0.6,1,0,,,,,,,,,,,,,,,,,,,,,,,,,,,,,,,,,,,,
,,5faacca24cd0384c1fa08be1,66fc97e542b801f3398f55ea,2024-10-02_02h47.35.121,mdp,2024.2.1,Win32,144.9275362,66fa4ebf79326e780c390304,,,,,,,,,,,,,,,,,,,,,253.5966,253.5966,253.597,254.1382,0,0,left,0.0296,,254.1386,254.139,,1,,254.1392,254.1393,,0,,1,254.1393,254.1393,254.1395,255.6384,0,45,45,45,1,0.6,0.4,0.4,0.6,1,0,,,,,,,,,,,,,,,,,,,,,,,,,,,,,,,,,,,,
,,5faacca24cd0384c1fa08be1,66fc97e542b801f3398f55ea,2024-10-02_02h47.35.121,mdp,2024.2.1,Win32,144.9275362,66fa4ebf79326e780c390304,,,,,,,,,,,,,,,,,,,,,255.6386,255.6386,255.639,256.3119,0,1,left,0.1599,,256.3124,256.3126,,0,,256.3128,256.313,,1,,0,256.313,256.313,256.3131,257.8123,0,46,46,46,1,0.6,0.4,0.4,0.6,1,0,,,,,,,,,,,,,,,,,,,,,,,,,,,,,,,,,,,,
,,5faacca24cd0384c1fa08be1,66fc97e542b801f3398f55ea,2024-10-02_02h47.35.121,mdp,2024.2.1,Win32,144.9275362,66fa4ebf79326e780c390304,,,,,,,,,,,,,,,,,,,,,257.8124,257.8124,257.8127,258.3609,0,0,left,0.0389,,258.3613,258.3616,,0,,258.3619,258.362,,0,,1,258.362,258.362,258.3622,259.8611,0,47,47,47,1,0.6,0.4,0.4,0.6,1,0,,,,,,,,,,,,,,,,,,,,,,,,,,,,,,,,,,,,
,,5faacca24cd0384c1fa08be1,66fc97e542b801f3398f55ea,2024-10-02_02h47.35.121,mdp,2024.2.1,Win32,144.9275362,66fa4ebf79326e780c390304,,,,,,,,,,,,,,,,,,,,,259.8613,259.8613,259.8617,260.4862,0,0,left,0.1123,,260.4865,260.4868,,1,,260.4871,260.4872,,0,,1,260.4872,260.4872,260.4874,261.9863,0,48,48,48,1,0.6,0.4,0.4,0.6,1,0,,,,,,,,,,,,,,,,,,,,,,,,,,,,,,,,,,,,
,,5faacca24cd0384c1fa08be1,66fc97e542b801f3398f55ea,2024-10-02_02h47.35.121,mdp,2024.2.1,Win32,144.9275362,66fa4ebf79326e780c390304,,,,,,,,,,,,,,,,,,,,,261.9865,261.9865,261.9868,262.674,0,1,left,0.1778,,262.6743,262.6746,,0,,262.6747,262.6748,,0,,0,262.6749,262.6749,262.6751,264.1741,0,49,49,49,1,0.6,0.4,0.4,0.6,1,0,,,,,,,,,,,,,,,,,,,,,,,,,,,,,,,,,,,,
,,5faacca24cd0384c1fa08be1,66fc97e542b801f3398f55ea,2024-10-02_02h47.35.121,mdp,2024.2.1,Win32,144.9275362,66fa4ebf79326e780c390304,,,,,,,,,,,,,,,,,,,,,,,,,,,,,,,,,,,,,,,,,,,,,,,,,,,,,,,,264.1745,322.6809,0,0,0,6,1,imgs/cat.png,imgs/giraffe.png,imgs/lion.png,imgs/rabbit.png,imgs/kangaroo.png,,,,,,,,,,,,,,,,,,,,,,,,
,,5faacca24cd0384c1fa08be1,66fc97e542b801f3398f55ea,2024-10-02_02h47.35.121,mdp,2024.2.1,Win32,144.9275362,66fa4ebf79326e780c390304,,,,,,,,,,,,,,2,seqs/st2seq48.csv,322.6865,325.4449,space,2.2515,,325.4469,325.4469,325.4472,328.7161,0,1,left,2.7551,,328.7213,330.2718,1,1,right,330.2722,330.2725,,0,,0,330.2725,330.2725,330.2727,331.7719,0,0,0,0,1,0.2,0.8,0.6,0.4,,,,,,,,,,,,,,,1.0395,,0.6,0.4,0.4,0.6,0.6,0.4,0.2,0.8,1,0,,,,,,,,,,,,
,,5faacca24cd0384c1fa08be1,66fc97e542b801f3398f55ea,2024-10-02_02h47.35.121,mdp,2024.2.1,Win32,144.9275362,66fa4ebf79326e780c390304,,,,,,,,,,,,,,,,,,,,,331.7721,331.7721,331.7724,332.6331,1,0,right,0.3514,,332.6336,333.161,0,1,left,333.1613,333.1616,,0,,0,333.1616,333.1616,333.1618,334.6611,0,1,1,1,1,0.2,0.8,0.6,0.4,,,,,,,,,,,,,,,0.0132,,0.6,0.4,0.4,0.6,0.6,0.4,0.2,0.8,1,0,,,,,,,,,,,,
,,5faacca24cd0384c1fa08be1,66fc97e542b801f3398f55ea,2024-10-02_02h47.35.121,mdp,2024.2.1,Win32,144.9275362,66fa4ebf79326e780c390304,,,,,,,,,,,,,,,,,,,,,334.6613,334.6613,334.6616,335.6195,0,1,left,0.4445,,335.62,336.7517,0,0,left,336.752,336.7523,,0,,1,336.7523,336.7523,336.7525,338.2518,0,2,2,2,1,0.2,0.8,0.6,0.4,,,,,,,,,,,,,,,0.6258,,0.6,0.4,0.4,0.6,0.8,0.2,0.8,0.2,1,0,,,,,,,,,,,,
,,5faacca24cd0384c1fa08be1,66fc97e542b801f3398f55ea,2024-10-02_02h47.35.121,mdp,2024.2.1,Win32,144.9275362,66fa4ebf79326e780c390304,,,,,,,,,,,,,,,,,,,,,338.252,338.252,338.2523,339.0158,0,1,left,0.2545,,339.0162,339.9395,0,0,left,339.9399,339.9402,,0,,1,339.9402,339.9402,339.9404,341.4396,0,3,3,3,1,0.2,0.8,0.6,0.4,,,,,,,,,,,,,,,0.4127,,0.6,0.4,0.4,0.6,0.8,0.2,0.8,0.2,1,0,,,,,,,,,,,,
,,5faacca24cd0384c1fa08be1,66fc97e542b801f3398f55ea,2024-10-02_02h47.35.121,mdp,2024.2.1,Win32,144.9275362,66fa4ebf79326e780c390304,,,,,,,,,,,,,,,,,,,,,341.4398,341.4398,341.4401,342.4329,0,1,left,0.4841,,342.4333,343.1551,0,1,left,343.1556,343.1559,,0,,0,343.1559,343.1559,343.1562,344.6553,0,4,4,4,1,0.2,0.8,0.6,0.4,,,,,,,,,,,,,,,0.212,,0.6,0.4,0.4,0.6,0.8,0.2,0.8,0.2,1,0,,,,,,,,,,,,
,,5faacca24cd0384c1fa08be1,66fc97e542b801f3398f55ea,2024-10-02_02h47.35.121,mdp,2024.2.1,Win32,144.9275362,66fa4ebf79326e780c390304,,,,,,,,,,,,,,,,,,,,,344.6554,344.6554,344.6559,345.4401,0,0,left,0.2797,,345.4405,346.2249,1,1,right,346.2254,346.2257,,0,,0,346.2257,346.2257,346.226,347.725,0,5,5,5,1,0.8,0.2,0.2,0.8,,,,,,,,,,,,,,,0.2772,,0.6,0.4,0.4,0.6,0.8,0.2,0.8,0.2,1,0,,,,,,,,,,,,
,,5faacca24cd0384c1fa08be1,66fc97e542b801f3398f55ea,2024-10-02_02h47.35.121,mdp,2024.2.1,Win32,144.9275362,66fa4ebf79326e780c390304,,,,,,,,,,,,,,,,,,,,,347.7253,347.7253,347.7256,348.5168,1,1,right,0.2814,,348.5173,349.0446,0,0,left,349.0452,349.0455,,1,,1,349.0455,349.0455,349.0456,350.5448,0,6,6,6,1,0.8,0.2,0.2,0.8,,,,,,,,,,,,,,,0.0168,,0.6,0.4,0.4,0.6,0.8,0.2,0.8,0.2,1,0,,,,,,,,,,,,
,,5faacca24cd0384c1fa08be1,66fc97e542b801f3398f55ea,2024-10-02_02h47.35.121,mdp,2024.2.1,Win32,144.9275362,66fa4ebf79326e780c390304,,,,,,,,,,,,,,,,,,,,,350.545,350.545,350.5454,351.3366,1,0,right,0.2798,,351.3371,351.8575,1,1,right,351.8579,351.8583,,1,,0,351.8583,351.8583,351.8585,353.3577,0,7,7,7,1,0.8,0.2,0.2,0.8,,,,,,,,,,,,,,,0.0133,,0.6,0.4,0.4,0.6,0.8,0.2,0.8,0.2,1,0,,,,,,,,,,,,
,,5faacca24cd0384c1fa08be1,66fc97e542b801f3398f55ea,2024-10-02_02h47.35.121,mdp,2024.2.1,Win32,144.9275362,66fa4ebf79326e780c390304,,,,,,,,,,,,,,,,,,,,,353.3579,353.3579,353.3582,353.9689,1,1,right,0.1013,,353.9692,354.4828,1,1,right,354.4832,354.4835,,0,,0,354.4835,354.4835,354.4837,355.9829,0,8,8,8,1,0.8,0.2,0.2,0.8,,,,,,,,,,,,,,,0.0093,,0.6,0.4,0.4,0.6,0.8,0.2,0.8,0.2,1,0,,,,,,,,,,,,
,,5faacca24cd0384c1fa08be1,66fc97e542b801f3398f55ea,2024-10-02_02h47.35.121,mdp,2024.2.1,Win32,144.9275362,66fa4ebf79326e780c390304,,,,,,,,,,,,,,,,,,,,,355.9831,355.9831,355.9835,356.7053,0,0,left,0.2123,,356.7057,357.504,0,0,left,357.5044,357.5046,,0,,1,357.5046,357.5046,357.5048,359.0041,0,9,9,9,1,0.8,0.2,0.2,0.8,,,,,,,,,,,,,,,0.2931,,0.6,0.4,0.4,0.6,0.8,0.2,0.8,0.2,1,0,,,,,,,,,,,,
,,5faacca24cd0384c1fa08be1,66fc97e542b801f3398f55ea,2024-10-02_02h47.35.121,mdp,2024.2.1,Win32,144.9275362,66fa4ebf79326e780c390304,,,,,,,,,,,,,,,,,,,,,359.0042,359.0042,359.0046,359.7472,0,0,left,0.2393,,359.7477,360.2751,1,0,right,360.2755,360.2757,,0,,1,360.2758,360.2758,360.276,361.7753,0,10,10,10,1,0.8,0.2,0.2,0.8,,,,,,,,,,,,,,,0.021,,0.6,0.4,0.4,0.6,0.8,0.2,0.8,0.2,1,0,,,,,,,,,,,,
,,5faacca24cd0384c1fa08be1,66fc97e542b801f3398f55ea,2024-10-02_02h47.35.121,mdp,2024.2.1,Win32,144.9275362,66fa4ebf79326e780c390304,,,,,,,,,,,,,,,,,,,,,361.7755,361.7755,361.776,362.5393,1,1,right,0.2502,,362.5398,363.0533,0,0,left,363.0537,363.0539,,0,,1,363.0539,363.0539,363.0541,364.5534,0,11,11,11,1,0.8,0.2,0.2,0.8,,,,,,,,,,,,,,,0.0107,,0.6,0.4,0.4,0.6,0.8,0.2,0.8,0.2,1,0,,,,,,,,,,,,
,,5faacca24cd0384c1fa08be1,66fc97e542b801f3398f55ea,2024-10-02_02h47.35.121,mdp,2024.2.1,Win32,144.9275362,66fa4ebf79326e780c390304,,,,,,,,,,,,,,,,,,,,,364.5535,364.5535,364.5539,365.3173,0,1,left,0.2502,,365.3177,367.9009,1,0,right,367.9014,367.9017,,0,,1,367.9017,367.9017,367.9019,369.4011,0,12,12,12,1,0.2,0.8,0.6,0.4,,,,,,,,,,,,,,,2.0782,,0.6,0.4,0.4,0.6,0.8,0.2,0.8,0.2,1,0,,,,,,,,,,,,
,,5faacca24cd0384c1fa08be1,66fc97e542b801f3398f55ea,2024-10-02_02h47.35.121,mdp,2024.2.1,Win32,144.9275362,66fa4ebf79326e780c390304,,,,,,,,,,,,,,,,,,,,,369.4013,369.4013,369.4017,370.6096,0,1,left,0.6986,,370.6101,371.4431,1,0,right,371.4435,371.4437,,0,,1,371.4437,371.4437,371.4439,372.9432,0,13,13,13,1,0.2,0.8,0.6,0.4,,,,,,,,,,,,,,,0.3195,,0.6,0.4,0.4,0.6,0.8,0.2,0.8,0.2,1,0,,,,,,,,,,,,
,,5faacca24cd0384c1fa08be1,66fc97e542b801f3398f55ea,2024-10-02_02h47.35.121,mdp,2024.2.1,Win32,144.9275362,66fa4ebf79326e780c390304,,,,,,,,,,,,,,,,,,,,,372.9434,372.9434,372.9437,373.4642,1,1,right,0.0071,,373.4645,373.9989,1,0,right,373.9993,373.9996,,0,,1,373.9996,373.9996,373.9997,375.499,0,14,14,14,1,0.2,0.8,0.6,0.4,,,,,,,,,,,,,,,0.0221,,0.6,0.4,0.4,0.6,0.8,0.2,0.8,0.2,1,0,,,,,,,,,,,,
,,5faacca24cd0384c1fa08be1,66fc97e542b801f3398f55ea,2024-10-02_02h47.35.121,mdp,2024.2.1,Win32,144.9275362,66fa4ebf79326e780c390304,,,,,,,,,,,,,,,,,,,,,375.4992,375.4992,375.4995,376.4575,1,1,right,0.4454,,376.458,379.3536,0,0,left,379.3589,379.3592,,0,,1,379.3593,379.3593,379.3596,380.8607,0,15,15,15,1,0.2,0.8,0.6,0.4,,,,,,,,,,,,,,,2.3874,,0.6,0.4,0.4,0.6,0.8,0.2,0.8,0.2,1,0,,,,,,,,,,,,
,,5faacca24cd0384c1fa08be1,66fc97e542b801f3398f55ea,2024-10-02_02h47.35.121,mdp,2024.2.1,Win32,144.9275362,66fa4ebf79326e780c390304,,,,,,,,,,,,,,,,,,,,,380.8608,380.8609,380.8612,382.3193,0,1,left,0.9473,,382.3197,383.1179,0,0,left,383.1184,383.1187,,0,,1,383.1187,383.1187,383.1188,384.6181,0,16,16,16,1,0.2,0.8,0.6,0.4,,,,,,,,,,,,,,,0.2859,,0.6,0.4,0.4,0.6,0.8,0.2,0.8,0.2,1,0,,,,,,,,,,,,
,,5faacca24cd0384c1fa08be1,66fc97e542b801f3398f55ea,2024-10-02_02h47.35.121,mdp,2024.2.1,Win32,144.9275362,66fa4ebf79326e780c390304,,,,,,,,,,,,,,,,,,,,,384.6182,384.6182,384.6186,385.3057,0,0,left,0.1739,,385.3061,385.9794,0,1,left,385.9798,385.9801,,0,,0,385.9801,385.9801,385.9803,387.4795,0,17,17,17,1,0.2,0.8,0.6,0.4,,,,,,,,,,,,,,,0.1617,,0.6,0.4,0.4,0.6,0.8,0.2,0.8,0.2,1,0,,,,,,,,,,,,
,,5faacca24cd0384c1fa08be1,66fc97e542b801f3398f55ea,2024-10-02_02h47.35.121,mdp,2024.2.1,Win32,144.9275362,66fa4ebf79326e780c390304,,,,,,,,,,,,,,,,,,,,,387.4797,387.4797,387.4801,388.5005,1,0,right,0.5083,,388.501,390.9244,0,0,left,390.9296,390.9299,,0,,1,390.9299,390.9299,390.9301,392.4314,0,18,18,18,1,0.2,0.8,0.6,0.4,,,,,,,,,,,,,,,1.9136,,0.6,0.4,0.4,0.6,0.8,0.2,0.8,0.2,1,0,,,,,,,,,,,,
,,5faacca24cd0384c1fa08be1,66fc97e542b801f3398f55ea,2024-10-02_02h47.35.121,mdp,2024.2.1,Win32,144.9275362,66fa4ebf79326e780c390304,,,,,,,,,,,,,,,,,,,,,392.4317,392.4317,392.4321,394.3692,0,0,left,1.4269,,394.3697,395.0499,0,0,left,395.0503,395.0506,,1,,1,395.0506,395.0506,395.0508,396.55,0,19,19,19,1,0.2,0.8,0.6,0.4,,,,,,,,,,,,,,,0.1669,,0.6,0.4,0.4,0.6,0.8,0.2,0.8,0.2,1,0,,,,,,,,,,,,
,,5faacca24cd0384c1fa08be1,66fc97e542b801f3398f55ea,2024-10-02_02h47.35.121,mdp,2024.2.1,Win32,144.9275362,66fa4ebf79326e780c390304,,,,,,,,,,,,,,,,,,,,,396.5502,396.5502,396.5505,397.5849,1,0,right,0.521,,397.5853,398.2377,0,1,left,398.2381,398.2384,,0,,0,398.2384,398.2384,398.2385,399.7379,0,20,20,20,1,0.2,0.8,0.6,0.4,,,,,,,,,,,,,,,0.1489,,0.6,0.4,0.4,0.6,0.8,0.2,0.8,0.2,1,0,,,,,,,,,,,,
,,5faacca24cd0384c1fa08be1,66fc97e542b801f3398f55ea,2024-10-02_02h47.35.121,mdp,2024.2.1,Win32,144.9275362,66fa4ebf79326e780c390304,,,,,,,,,,,,,,,,,,,,,399.738,399.738,399.7384,400.9255,0,0,left,0.6763,,400.926,401.5158,1,1,right,401.5163,401.5165,,0,,0,401.5165,401.5165,401.5167,403.016,0,21,21,21,1,0.2,0.8,0.6,0.4,,,,,,,,,,,,,,,0.0837,,0.6,0.4,0.4,0.6,0.8,0.2,0.8,0.2,1,0,,,,,,,,,,,,
,,5faacca24cd0384c1fa08be1,66fc97e542b801f3398f55ea,2024-10-02_02h47.35.121,mdp,2024.2.1,Win32,144.9275362,66fa4ebf79326e780c390304,,,,,,,,,,,,,,,,,,,,,403.0161,403.0161,403.0165,403.78,1,1,right,0.2521,,403.7804,404.3009,1,1,right,404.3015,404.3016,,0,,0,404.3016,404.3016,404.3018,405.8009,0,22,22,22,1,0.2,0.8,0.6,0.4,,,,,,,,,,,,,,,0.016,,0.6,0.4,0.4,0.6,0.8,0.2,0.8,0.2,1,0,,,,,,,,,,,,
,,5faacca24cd0384c1fa08be1,66fc97e542b801f3398f55ea,2024-10-02_02h47.35.121,mdp,2024.2.1,Win32,144.9275362,66fa4ebf79326e780c390304,,,,,,,,,,,,,,,,,,,,,405.8011,405.8011,405.8014,406.5789,0,0,left,0.264,,406.5794,407.4818,0,1,left,407.4822,407.4824,,0,,0,407.4824,407.4824,407.4826,408.9819,0,23,23,23,1,0.2,0.8,0.6,0.4,,,,,,,,,,,,,,,0.3963,,0.6,0.4,0.4,0.6,0.8,0.2,0.8,0.2,1,0,,,,,,,,,,,,
,,5faacca24cd0384c1fa08be1,66fc97e542b801f3398f55ea,2024-10-02_02h47.35.121,mdp,2024.2.1,Win32,144.9275362,66fa4ebf79326e780c390304,,,,,,,,,,,,,,,,,,,,,408.9821,408.9822,408.9825,409.6695,0,1,left,0.1771,,409.6699,410.3085,0,1,left,410.3089,410.3091,,0,,0,410.3092,410.3092,410.3094,411.8087,0,24,24,24,1,0.2,0.8,0.6,0.4,,,,,,,,,,,,,,,0.125,,0.6,0.4,0.4,0.6,0.8,0.2,0.8,0.2,1,0,,,,,,,,,,,,
,,5faacca24cd0384c1fa08be1,66fc97e542b801f3398f55ea,2024-10-02_02h47.35.121,mdp,2024.2.1,Win32,144.9275362,66fa4ebf79326e780c390304,,,,,,,,,,,,,,,,,,,,,411.8088,411.8088,411.8091,412.3991,0,0,left,0.0768,,412.3994,413.1838,1,1,right,413.1842,413.1845,,1,,0,413.1845,413.1845,413.1847,414.684,0,25,25,25,1,0.6,0.4,0.2,0.8,,,,,,,,,,,,,,,0.2748,,0.6,0.4,0.4,0.6,0.8,0.2,0.8,0.2,1,0,,,,,,,,,,,,
,,5faacca24cd0384c1fa08be1,66fc97e542b801f3398f55ea,2024-10-02_02h47.35.121,mdp,2024.2.1,Win32,144.9275362,66fa4ebf79326e780c390304,,,,,,,,,,,,,,,,,,,,,414.6842,414.6842,414.6845,415.5591,1,0,right,0.3656,,415.5595,416.1286,1,0,right,416.1289,416.1293,,0,,1,416.1293,416.1293,416.1295,417.6287,0,26,26,26,1,0.6,0.4,0.2,0.8,,,,,,,,,,,,,,,0.0587,,0.6,0.4,0.4,0.6,0.8,0.2,0.8,0.2,1,0,,,,,,,,,,,,
,,5faacca24cd0384c1fa08be1,66fc97e542b801f3398f55ea,2024-10-02_02h47.35.121,mdp,2024.2.1,Win32,144.9275362,66fa4ebf79326e780c390304,,,,,,,,,,,,,,,,,,,,,417.6289,417.629,417.6294,418.2955,1,0,right,0.1531,,418.2959,418.8094,1,1,right,418.8098,418.8101,,1,,0,418.8102,418.8102,418.8104,420.3096,0,27,27,27,1,0.6,0.4,0.2,0.8,,,,,,,,,,,,,,,0.0084,,0.6,0.4,0.4,0.6,0.8,0.2,0.8,0.2,1,0,,,,,,,,,,,,
,,5faacca24cd0384c1fa08be1,66fc97e542b801f3398f55ea,2024-10-02_02h47.35.121,mdp,2024.2.1,Win32,144.9275362,66fa4ebf79326e780c390304,,,,,,,,,,,,,,,,,,,,,420.3098,420.3098,420.3102,420.8861,1,1,right,0.0628,,420.8865,422.0598,0,0,left,422.0603,422.0606,,0,,1,422.0606,422.0606,422.0607,423.56,0,28,28,28,1,0.6,0.4,0.2,0.8,,,,,,,,,,,,,,,0.6658,,0.6,0.4,0.4,0.6,0.8,0.2,0.8,0.2,1,0,,,,,,,,,,,,
,,5faacca24cd0384c1fa08be1,66fc97e542b801f3398f55ea,2024-10-02_02h47.35.121,mdp,2024.2.1,Win32,144.9275362,66fa4ebf79326e780c390304,,,,,,,,,,,,,,,,,,,,,423.5602,423.5602,423.5605,424.2546,1,1,right,0.1819,,424.255,424.8101,0,0,left,424.8106,424.8108,,0,,1,424.8108,424.8108,424.8111,426.3103,0,29,29,29,1,0.2,0.8,0.4,0.6,,,,,,,,,,,,,,,0.0442,,0.6,0.4,0.4,0.6,0.8,0.2,0.8,0.2,1,0,,,,,,,,,,,,
,,5faacca24cd0384c1fa08be1,66fc97e542b801f3398f55ea,2024-10-02_02h47.35.121,mdp,2024.2.1,Win32,144.9275362,66fa4ebf79326e780c390304,,,,,,,,,,,,,,,,,,,,,426.3105,426.3105,426.3108,427.0881,1,0,right,0.2642,,427.0886,427.6231,0,0,left,427.6235,427.6238,,1,,1,427.6238,427.6238,427.624,429.1231,0,30,30,30,1,0.2,0.8,0.4,0.6,,,,,,,,,,,,,,,0.025,,0.4,0.6,0.2,0.8,0.8,0.2,0.8,0.2,1,0,,,,,,,,,,,,
,,5faacca24cd0384c1fa08be1,66fc97e542b801f3398f55ea,2024-10-02_02h47.35.121,mdp,2024.2.1,Win32,144.9275362,66fa4ebf79326e780c390304,,,,,,,,,,,,,,,,,,,,,429.1232,429.1232,429.1235,429.8246,1,1,right,0.1892,,429.825,430.3661,0,0,left,430.3666,430.3668,,0,,1,430.3668,430.3668,430.367,431.8665,0,31,31,31,1,0.2,0.8,0.4,0.6,,,,,,,,,,,,,,,0.031,,0.4,0.6,0.2,0.8,0.8,0.2,0.8,0.2,1,0,,,,,,,,,,,,
,,5faacca24cd0384c1fa08be1,66fc97e542b801f3398f55ea,2024-10-02_02h47.35.121,mdp,2024.2.1,Win32,144.9275362,66fa4ebf79326e780c390304,,,,,,,,,,,,,,,,,,,,,431.8666,431.8666,431.867,432.561,1,0,right,0.1841,,432.5614,433.0748,0,0,left,433.0753,433.0756,,0,,1,433.0756,433.0756,433.0758,434.5751,0,32,32,32,1,0.2,0.8,0.4,0.6,,,,,,,,,,,,,,,0.0087,,0.4,0.6,0.2,0.8,0.8,0.2,0.8,0.2,1,0,,,,,,,,,,,,
,,5faacca24cd0384c1fa08be1,66fc97e542b801f3398f55ea,2024-10-02_02h47.35.121,mdp,2024.2.1,Win32,144.9275362,66fa4ebf79326e780c390304,,,,,,,,,,,,,,,,,,,,,434.5753,434.5753,434.5756,435.2696,1,1,right,0.1807,,435.2701,436.1239,0,0,left,436.1244,436.1246,,0,,1,436.1246,436.1246,436.1248,437.6239,0,33,33,33,1,0.2,0.8,0.4,0.6,,,,,,,,,,,,,,,0.3474,,0.4,0.6,0.2,0.8,0.8,0.2,0.8,0.2,1,0,,,,,,,,,,,,
,,5faacca24cd0384c1fa08be1,66fc97e542b801f3398f55ea,2024-10-02_02h47.35.121,mdp,2024.2.1,Win32,144.9275362,66fa4ebf79326e780c390304,,,,,,,,,,,,,,,,,,,,,437.6242,437.6242,437.6245,438.3186,1,0,right,0.1852,,438.319,439.1173,0,1,left,439.1178,439.118,,0,,0,439.118,439.118,439.1182,440.6174,0,34,34,34,1,0.2,0.8,0.4,0.6,,,,,,,,,,,,,,,0.2911,,0.4,0.6,0.2,0.8,0.8,0.2,0.8,0.2,1,0,,,,,,,,,,,,
,,5faacca24cd0384c1fa08be1,66fc97e542b801f3398f55ea,2024-10-02_02h47.35.121,mdp,2024.2.1,Win32,144.9275362,66fa4ebf79326e780c390304,,,,,,,,,,,,,,,,,,,,,440.6176,440.6176,440.6179,441.4578,1,1,right,0.3291,,441.4582,442.0065,1,0,right,442.0069,442.0072,,0,,1,442.0072,442.0072,442.0074,443.5066,0,35,35,35,1,0.2,0.8,0.4,0.6,,,,,,,,,,,,,,,0.0412,,0.4,0.6,0.2,0.8,0.8,0.2,0.8,0.2,1,0,,,,,,,,,,,,
,,5faacca24cd0384c1fa08be1,66fc97e542b801f3398f55ea,2024-10-02_02h47.35.121,mdp,2024.2.1,Win32,144.9275362,66fa4ebf79326e780c390304,,,,,,,,,,,,,,,,,,,,,443.5068,443.5068,443.5071,444.2637,1,0,right,0.2441,,444.2641,444.8263,1,1,right,444.8268,444.827,,1,,0,444.827,444.827,444.8274,446.3264,0,36,36,36,1,0.2,0.8,0.4,0.6,,,,,,,,,,,,,,,0.0551,,0.4,0.6,0.2,0.8,0.8,0.2,0.8,0.2,1,0,,,,,,,,,,,,
,,5faacca24cd0384c1fa08be1,66fc97e542b801f3398f55ea,2024-10-02_02h47.35.121,mdp,2024.2.1,Win32,144.9275362,66fa4ebf79326e780c390304,,,,,,,,,,,,,,,,,,,,,446.3266,446.3266,446.3269,447.021,1,1,right,0.1807,,447.0213,447.6043,0,0,left,447.6047,447.605,,0,,1,447.605,447.605,447.6052,449.1045,0,37,37,37,1,0.2,0.8,0.4,0.6,,,,,,,,,,,,,,,0.0683,,0.4,0.6,0.2,0.8,0.8,0.2,0.8,0.2,1,0,,,,,,,,,,,,
,,5faacca24cd0384c1fa08be1,66fc97e542b801f3398f55ea,2024-10-02_02h47.35.121,mdp,2024.2.1,Win32,144.9275362,66fa4ebf79326e780c390304,,,,,,,,,,,,,,,,,,,,,449.1046,449.1046,449.105,449.7435,1,1,right,0.1279,,449.7438,450.6255,0,0,left,450.626,450.6261,,0,,1,450.6262,450.6262,450.6264,452.1256,0,38,38,38,1,0.2,0.8,0.4,0.6,,,,,,,,,,,,,,,0.3769,,0.4,0.6,0.2,0.8,0.8,0.2,0.8,0.2,1,0,,,,,,,,,,,,
,,5faacca24cd0384c1fa08be1,66fc97e542b801f3398f55ea,2024-10-02_02h47.35.121,mdp,2024.2.1,Win32,144.9275362,66fa4ebf79326e780c390304,,,,,,,,,,,,,,,,,,,,,452.1258,452.1258,452.1263,452.9452,1,0,right,0.3101,,452.9456,453.5147,0,1,left,453.5151,453.5154,,1,,0,453.5154,453.5154,453.5156,455.0149,0,39,39,39,1,0.2,0.8,0.4,0.6,,,,,,,,,,,,,,,0.055,,0.4,0.6,0.2,0.8,0.8,0.2,0.8,0.2,1,0,,,,,,,,,,,,
,,5faacca24cd0384c1fa08be1,66fc97e542b801f3398f55ea,2024-10-02_02h47.35.121,mdp,2024.2.1,Win32,144.9275362,66fa4ebf79326e780c390304,,,,,,,,,,,,,,,,,,,,,455.015,455.015,455.0153,455.6608,0,1,left,0.1322,,455.6613,456.2372,0,0,left,456.2376,456.2379,,0,,1,456.2379,456.2379,456.2381,457.7374,0,40,40,40,1,0.2,0.8,0.4,0.6,,,,,,,,,,,,,,,0.0725,,0.4,0.6,0.2,0.8,0.8,0.2,0.8,0.2,1,0,,,,,,,,,,,,
,,5faacca24cd0384c1fa08be1,66fc97e542b801f3398f55ea,2024-10-02_02h47.35.121,mdp,2024.2.1,Win32,144.9275362,66fa4ebf79326e780c390304,,,,,,,,,,,,,,,,,,,,,457.7375,457.7375,457.7379,458.3486,0,0,left,0.1012,,458.349,458.9251,0,0,left,458.9255,458.9258,,0,,1,458.9258,458.9258,458.926,460.4252,0,41,41,41,1,0.2,0.8,0.4,0.6,,,,,,,,,,,,,,,0.0689,,0.4,0.6,0.2,0.8,0.8,0.2,0.8,0.2,1,0,,,,,,,,,,,,
,,5faacca24cd0384c1fa08be1,66fc97e542b801f3398f55ea,2024-10-02_02h47.35.121,mdp,2024.2.1,Win32,144.9275362,66fa4ebf79326e780c390304,,,,,,,,,,,,,,,,,,,,,460.4254,460.4254,460.4257,461.0573,0,1,left,0.1183,,461.0577,461.6268,0,0,left,461.6271,461.6274,,0,,1,461.6274,461.6274,461.6277,463.1268,0,42,42,42,1,0.2,0.8,0.4,0.6,,,,,,,,,,,,,,,0.0566,,0.4,0.6,0.2,0.8,0.8,0.2,0.8,0.2,1,0,,,,,,,,,,,,
,,5faacca24cd0384c1fa08be1,66fc97e542b801f3398f55ea,2024-10-02_02h47.35.121,mdp,2024.2.1,Win32,144.9275362,66fa4ebf79326e780c390304,,,,,,,,,,,,,,,,,,,,,463.127,463.127,463.1274,463.7103,0,1,left,0.0701,,463.7107,464.259,0,0,left,464.2594,464.2597,,1,,1,464.2597,464.2597,464.2599,465.7591,0,43,43,43,1,0.2,0.8,0.4,0.6,,,,,,,,,,,,,,,0.0467,,0.4,0.6,0.2,0.8,0.8,0.2,0.8,0.2,1,0,,,,,,,,,,,,
,,5faacca24cd0384c1fa08be1,66fc97e542b801f3398f55ea,2024-10-02_02h47.35.121,mdp,2024.2.1,Win32,144.9275362,66fa4ebf79326e780c390304,,,,,,,,,,,,,,,,,,,,,465.7593,465.7593,465.7596,466.3357,0,1,left,0.065,,466.3361,466.9468,0,0,left,466.9472,466.9474,,0,,1,466.9474,466.9474,466.9476,468.4469,0,44,44,44,1,0.2,0.8,0.4,0.6,,,,,,,,,,,,,,,0.1018,,0.4,0.6,0.2,0.8,0.8,0.2,0.8,0.2,1,0,,,,,,,,,,,,
,,5faacca24cd0384c1fa08be1,66fc97e542b801f3398f55ea,2024-10-02_02h47.35.121,mdp,2024.2.1,Win32,144.9275362,66fa4ebf79326e780c390304,,,,,,,,,,,,,,,,,,,,,468.4471,468.4471,468.4474,469.0304,0,1,left,0.0696,,469.0307,470.0652,0,0,left,470.0656,470.0658,,0,,1,470.0658,470.0658,470.066,471.5653,0,45,45,45,1,0.2,0.8,0.4,0.6,,,,,,,,,,,,,,,0.5223,,0.4,0.6,0.2,0.8,0.8,0.2,0.8,0.2,1,0,,,,,,,,,,,,
,,5faacca24cd0384c1fa08be1,66fc97e542b801f3398f55ea,2024-10-02_02h47.35.121,mdp,2024.2.1,Win32,144.9275362,66fa4ebf79326e780c390304,,,,,,,,,,,,,,,,,,,,,471.5656,471.5656,471.5659,472.1974,0,0,left,0.1182,,472.1978,472.8572,0,0,left,472.8575,472.8578,,1,,1,472.8578,472.8578,472.858,474.3573,0,46,46,46,1,0.2,0.8,0.4,0.6,,,,,,,,,,,,,,,0.1556,,0.4,0.6,0.2,0.8,0.8,0.2,0.8,0.2,1,0,,,,,,,,,,,,
,,5faacca24cd0384c1fa08be1,66fc97e542b801f3398f55ea,2024-10-02_02h47.35.121,mdp,2024.2.1,Win32,144.9275362,66fa4ebf79326e780c390304,,,,,,,,,,,,,,,,,,,,,474.3575,474.3575,474.3578,474.9199,0,1,left,0.0489,,474.9203,475.5936,0,0,left,475.594,475.5943,,0,,1,475.5943,475.5943,475.5945,477.0937,0,47,47,47,1,0.2,0.8,0.4,0.6,,,,,,,,,,,,,,,0.1666,,0.4,0.6,0.2,0.8,0.8,0.2,0.8,0.2,1,0,,,,,,,,,,,,
,,5faacca24cd0384c1fa08be1,66fc97e542b801f3398f55ea,2024-10-02_02h47.35.121,mdp,2024.2.1,Win32,144.9275362,66fa4ebf79326e780c390304,,,,,,,,,,,,,,,,,,,,,477.0939,477.0939,477.0943,477.6841,0,1,left,0.0766,,477.6846,478.3856,0,0,left,478.386,478.3862,,1,,1,478.3862,478.3862,478.3864,479.8857,0,48,48,48,1,0.2,0.8,0.4,0.6,,,,,,,,,,,,,,,0.1945,,0.4,0.6,0.2,0.8,0.8,0.2,0.8,0.2,1,0,,,,,,,,,,,,
,,5faacca24cd0384c1fa08be1,66fc97e542b801f3398f55ea,2024-10-02_02h47.35.121,mdp,2024.2.1,Win32,144.9275362,66fa4ebf79326e780c390304,,,,,,,,,,,,,,,,,,,,,479.8859,479.8859,479.8863,480.4969,0,0,left,0.0974,,480.4973,481.1359,0,1,left,481.1363,481.1366,,1,,0,481.1366,481.1366,481.1367,482.636,0,49,49,49,1,0.2,0.8,0.4,0.6,,,,,,,,,,,,,,,0.136,,0.4,0.6,0.2,0.8,0.8,0.2,0.8,0.2,1,0,,,,,,,,,,,,
,,5faacca24cd0384c1fa08be1,66fc97e542b801f3398f55ea,2024-10-02_02h47.35.121,mdp,2024.2.1,Win32,144.9275362,66fa4ebf79326e780c390304,,,,,,,,,,,,,,,,,,,,,,,,,,,,,,,,,,,,,,,,,,,,,,,,,,,,,,,,482.6361,541.1426,0,1,1,0,1,imgs/kangaroo.png,imgs/giraffe.png,imgs/pig.png,imgs/lion.png,imgs/cat.png,,,,,,,,,,,,,,,,,,,,,,,,
,,5faacca24cd0384c1fa08be1,66fc97e542b801f3398f55ea,2024-10-02_02h47.35.121,mdp,2024.2.1,Win32,144.9275362,66fa4ebf79326e780c390304,,,,,,,,,,,,,,3,seqs/st3seq11.csv,541.1481,543.1915,space,1.5349,,543.1948,543.1948,543.1951,544.6708,0,1,left,0.9623,,544.6713,545.5251,0,0,left,545.5254,546.2612,1,1,right,0,546.2612,546.2613,546.2617,547.7614,0,0,0,0,1,0.8,0.2,0.2,0.8,,,,,,,,,,,,,,,0.3495,,0.8,0.2,0.2,0.8,0.2,0.8,0.2,0.8,,,0.2203,,0.6,0.4,0.2,0.8,0.2,0.8,0.4,0.6,1,0
,,5faacca24cd0384c1fa08be1,66fc97e542b801f3398f55ea,2024-10-02_02h47.35.121,mdp,2024.2.1,Win32,144.9275362,66fa4ebf79326e780c390304,,,,,,,,,,,,,,,,,,,,,547.7616,547.7616,547.762,548.567,0,0,left,0.296,,548.5674,549.1851,0,0,left,549.1856,549.7686,0,1,left,0,549.7687,549.7687,549.769,551.2687,0,1,1,1,1,0.8,0.2,0.2,0.8,,,,,,,,,,,,,,,0.1091,,0.8,0.2,0.2,0.8,0.2,0.8,0.2,0.8,,,0.0811,,0.6,0.4,0.2,0.8,0.2,0.8,0.4,0.6,1,0
,,5faacca24cd0384c1fa08be1,66fc97e542b801f3398f55ea,2024-10-02_02h47.35.121,mdp,2024.2.1,Win32,144.9275362,66fa4ebf79326e780c390304,,,,,,,,,,,,,,,,,,,,,551.2689,551.2689,551.2693,551.8521,1,1,right,0.0729,,551.8526,552.4633,1,0,right,552.4638,553.0328,0,0,left,1,553.0329,553.0329,553.0332,554.533,0,2,2,2,1,0.8,0.2,0.2,0.8,,,,,,,,,,,,,,,0.1048,,0.8,0.2,0.2,0.8,0.2,0.8,0.2,0.8,,,0.0594,,0.6,0.4,0.2,0.8,0.2,0.8,0.4,0.6,1,0
,,5faacca24cd0384c1fa08be1,66fc97e542b801f3398f55ea,2024-10-02_02h47.35.121,mdp,2024.2.1,Win32,144.9275362,66fa4ebf79326e780c390304,,,,,,,,,,,,,,,,,,,,,554.5332,554.5332,554.5335,555.3664,1,1,right,0.321,,555.3669,556.0679,1,1,right,556.0683,556.7415,1,0,right,1,556.7416,556.7416,556.742,558.2418,0,3,3,3,1,0.8,0.2,0.2,0.8,,,,,,,,,,,,,,,0.1887,,0.8,0.2,0.2,0.8,0.2,0.8,0.2,0.8,,,0.1589,,0.6,0.4,0.2,0.8,0.2,0.8,0.4,0.6,1,0
,,5faacca24cd0384c1fa08be1,66fc97e542b801f3398f55ea,2024-10-02_02h47.35.121,mdp,2024.2.1,Win32,144.9275362,66fa4ebf79326e780c390304,,,,,,,,,,,,,,,,,,,,,558.242,558.242,558.2424,558.8459,1,1,right,0.0916,,558.8464,559.4432,1,1,right,559.4437,560.2767,1,1,right,0,560.2768,560.2768,560.2772,561.7768,0,4,4,4,1,0.8,0.2,0.2,0.8,,,,,,,,,,,,,,,0.0913,,0.8,0.2,0.2,0.8,0.4,0.6,0.4,0.6,,,0.3252,,0.6,0.4,0.2,0.8,0.2,0.8,0.4,0.6,1,0
,,5faacca24cd0384c1fa08be1,66fc97e542b801f3398f55ea,2024-10-02_02h47.35.121,mdp,2024.2.1,Win32,144.9275362,66fa4ebf79326e780c390304,,,,,,,,,,,,,,,,,,,,,561.777,561.777,561.7775,562.3116,1,1,right,0.025,,562.312,562.8256,1,0,right,562.826,563.4298,0,0,left,1,563.4298,563.4298,563.4303,564.9299,0,5,5,5,1,0.8,0.2,0.2,0.8,,,,,,,,,,,,,,,0.0071,,0.8,0.2,0.2,0.8,0.4,0.6,0.4,0.6,,,0.0896,,0.6,0.4,0.2,0.8,0.2,0.8,0.4,0.6,1,0
,,5faacca24cd0384c1fa08be1,66fc97e542b801f3398f55ea,2024-10-02_02h47.35.121,mdp,2024.2.1,Win32,144.9275362,66fa4ebf79326e780c390304,,,,,,,,,,,,,,,,,,,,,564.9301,564.9301,564.9305,565.5551,1,0,right,0.112,,565.5555,566.1732,1,0,right,566.1735,566.701,0,1,left,0,566.7011,566.7011,566.7014,568.2011,0,6,6,6,1,0.8,0.2,0.2,0.8,,,,,,,,,,,,,,,0.1142,,0.8,0.2,0.2,0.8,0.4,0.6,0.4,0.6,,,0.025,,0.6,0.4,0.2,0.8,0.2,0.8,0.4,0.6,1,0
,,5faacca24cd0384c1fa08be1,66fc97e542b801f3398f55ea,2024-10-02_02h47.35.121,mdp,2024.2.1,Win32,144.9275362,66fa4ebf79326e780c390304,,,,,,,,,,,,,,,,,,,,,568.2014,568.2014,568.2017,569.0416,1,1,right,0.3266,,569.042,569.618,0,0,left,569.6185,570.1806,1,1,right,0,570.1806,570.1806,570.181,571.6807,0,7,7,7,1,0.8,0.2,0.2,0.8,,,,,,,,,,,,,,,0.0616,,0.8,0.2,0.2,0.8,0.4,0.6,0.4,0.6,,,0.0565,,0.6,0.4,0.2,0.8,0.2,0.8,0.4,0.6,1,0
,,5faacca24cd0384c1fa08be1,66fc97e542b801f3398f55ea,2024-10-02_02h47.35.121,mdp,2024.2.1,Win32,144.9275362,66fa4ebf79326e780c390304,,,,,,,,,,,,,,,,,,,,,571.6809,571.681,571.6813,572.2294,1,1,right,0.0354,,572.2298,572.7504,1,1,right,572.7508,573.4864,0,1,left,0,573.4865,573.4865,573.487,574.9866,0,8,8,8,1,0.8,0.2,0.2,0.8,,,,,,,,,,,,,,,0.0145,,0.8,0.2,0.2,0.8,0.4,0.6,0.4,0.6,,,0.2249,,0.6,0.4,0.2,0.8,0.2,0.8,0.4,0.6,1,0
,,5faacca24cd0384c1fa08be1,66fc97e542b801f3398f55ea,2024-10-02_02h47.35.121,mdp,2024.2.1,Win32,144.9275362,66fa4ebf79326e780c390304,,,,,,,,,,,,,,,,,,,,,574.9869,574.9869,574.9873,575.5492,0,0,left,0.0487,,575.5497,576.1673,1,1,right,576.1677,576.7716,0,1,left,0,576.7716,576.7716,576.7721,578.2718,0,9,9,9,1,0.8,0.2,0.2,0.8,,,,,,,,,,,,,,,0.115,,0.8,0.2,0.2,0.8,0.4,0.6,0.4,0.6,,,0.0989,,0.6,0.4,0.2,0.8,0.2,0.8,0.4,0.6,1,0
,,5faacca24cd0384c1fa08be1,66fc97e542b801f3398f55ea,2024-10-02_02h47.35.121,mdp,2024.2.1,Win32,144.9275362,66fa4ebf79326e780c390304,,,,,,,,,,,,,,,,,,,,,578.272,578.272,578.2723,578.7927,0,1,left,0.0071,,578.7931,579.3135,0,0,left,579.3139,579.9108,1,0,right,1,579.9108,579.9108,579.9113,581.4109,0,10,10,10,1,0.8,0.2,0.2,0.8,,,,,,,,,,,,,,,0.0161,,0.8,0.2,0.2,0.8,0.4,0.6,0.4,0.6,,,0.0845,,0.6,0.4,0.2,0.8,0.2,0.8,0.4,0.6,1,0
,,5faacca24cd0384c1fa08be1,66fc97e542b801f3398f55ea,2024-10-02_02h47.35.121,mdp,2024.2.1,Win32,144.9275362,66fa4ebf79326e780c390304,,,,,,,,,,,,,,,,,,,,,581.4112,581.4112,581.4115,582.0083,0,0,left,0.0835,,582.0087,582.7028,1,1,right,582.7032,583.2376,1,0,right,1,583.2376,583.2376,583.238,584.7378,0,11,11,11,1,0.8,0.2,0.2,0.8,,,,,,,,,,,,,,,0.1888,,0.8,0.2,0.2,0.8,0.4,0.6,0.4,0.6,,,0.0235,,0.6,0.4,0.2,0.8,0.2,0.8,0.4,0.6,1,0
,,5faacca24cd0384c1fa08be1,66fc97e542b801f3398f55ea,2024-10-02_02h47.35.121,mdp,2024.2.1,Win32,144.9275362,66fa4ebf79326e780c390304,,,,,,,,,,,,,,,,,,,,,584.738,584.738,584.7383,585.4323,1,1,right,0.1808,,585.4327,586.0921,0,1,left,586.0925,586.6338,1,0,right,1,586.6338,586.6338,586.6342,588.1339,0,12,12,12,1,0.8,0.2,0.2,0.8,,,,,,,,,,,,,,,0.1452,,0.8,0.2,0.2,0.8,0.4,0.6,0.4,0.6,,,0.0349,,0.6,0.4,0.2,0.8,0.2,0.8,0.4,0.6,1,0
,,5faacca24cd0384c1fa08be1,66fc97e542b801f3398f55ea,2024-10-02_02h47.35.121,mdp,2024.2.1,Win32,144.9275362,66fa4ebf79326e780c390304,,,,,,,,,,,,,,,,,,,,,588.1342,588.1342,588.1344,588.7383,1,1,right,0.0923,,588.7387,589.2799,1,1,right,589.2803,589.8286,1,1,right,0,589.8286,589.8286,589.8291,591.3287,0,13,13,13,1,0.8,0.2,0.2,0.8,,,,,,,,,,,,,,,0.0279,,0.8,0.2,0.2,0.8,0.4,0.6,0.4,0.6,,,0.0418,,0.2,0.8,0.8,0.2,0.2,0.8,0.4,0.6,1,0
,,5faacca24cd0384c1fa08be1,66fc97e542b801f3398f55ea,2024-10-02_02h47.35.121,mdp,2024.2.1,Win32,144.9275362,66fa4ebf79326e780c390304,,,,,,,,,,,,,,,,,,,,,591.329,591.329,591.3293,591.9191,1,1,right,0.0802,,591.9195,592.4817,0,0,left,592.4821,593.1763,1,0,right,1,593.1763,593.1763,593.1767,594.6763,0,14,14,14,1,0.8,0.2,0.2,0.8,,,,,,,,,,,,,,,0.0557,,0.8,0.2,0.2,0.8,0.4,0.6,0.4,0.6,,,0.1848,,0.2,0.8,0.8,0.2,0.2,0.8,0.4,0.6,1,0
,,5faacca24cd0384c1fa08be1,66fc97e542b801f3398f55ea,2024-10-02_02h47.35.121,mdp,2024.2.1,Win32,144.9275362,66fa4ebf79326e780c390304,,,,,,,,,,,,,,,,,,,,,594.6765,594.6765,594.6769,595.2806,1,1,right,0.0929,,595.281,596.0377,1,1,right,596.0381,596.7252,1,1,right,0,596.7252,596.7252,596.7256,598.2254,0,15,15,15,1,0.8,0.2,0.2,0.8,,,,,,,,,,,,,,,0.2501,,0.8,0.2,0.2,0.8,0.4,0.6,0.4,0.6,,,0.1773,,0.2,0.8,0.8,0.2,0.2,0.8,0.4,0.6,1,0
,,5faacca24cd0384c1fa08be1,66fc97e542b801f3398f55ea,2024-10-02_02h47.35.121,mdp,2024.2.1,Win32,144.9275362,66fa4ebf79326e780c390304,,,,,,,,,,,,,,,,,,,,,598.2256,598.2256,598.226,598.906,1,1,right,0.1648,,598.9065,599.4617,1,0,right,599.462,600.566,1,0,right,1,600.566,600.566,600.5664,602.066,0,16,16,16,1,0.8,0.2,0.2,0.8,,,,,,,,,,,,,,,0.0419,,0.8,0.2,0.2,0.8,0.4,0.6,0.4,0.6,,,0.5908,,0.2,0.8,0.8,0.2,0.2,0.8,0.4,0.6,1,0
,,5faacca24cd0384c1fa08be1,66fc97e542b801f3398f55ea,2024-10-02_02h47.35.121,mdp,2024.2.1,Win32,144.9275362,66fa4ebf79326e780c390304,,,,,,,,,,,,,,,,,,,,,602.0662,602.0662,602.0667,602.6981,1,0,right,0.1191,,602.6986,603.2954,1,1,right,603.2959,604.8372,1,0,right,1,604.8373,604.8373,604.8376,606.3373,0,17,17,17,1,0.6,0.4,0.6,0.4,,,,,,,,,,,,,,,0.0874,,0.8,0.2,0.2,0.8,0.4,0.6,0.4,0.6,,,1.0283,,0.2,0.8,0.8,0.2,0.2,0.8,0.4,0.6,1,0
,,5faacca24cd0384c1fa08be1,66fc97e542b801f3398f55ea,2024-10-02_02h47.35.121,mdp,2024.2.1,Win32,144.9275362,66fa4ebf79326e780c390304,,,,,,,,,,,,,,,,,,,,,606.3376,606.3376,606.338,608.3099,1,0,right,1.4615,,608.3103,608.9835,0,0,left,608.984,609.4905,1,0,right,1,609.4906,609.4906,609.4911,610.9906,0,18,18,18,1,0.6,0.4,0.6,0.4,,,,,,,,,,,,,,,0.1672,,0.8,0.2,0.2,0.8,0.4,0.6,0.4,0.6,,,0.0002,,0.2,0.8,0.8,0.2,0.2,0.8,0.4,0.6,1,0
,,5faacca24cd0384c1fa08be1,66fc97e542b801f3398f55ea,2024-10-02_02h47.35.121,mdp,2024.2.1,Win32,144.9275362,66fa4ebf79326e780c390304,,,,,,,,,,,,,,,,,,,,,610.9909,610.9909,610.9912,611.5185,0,0,left,0.0174,,611.519,612.4144,1,0,right,612.4149,612.9979,1,0,right,1,612.9979,612.9979,612.9983,614.498,0,19,19,19,1,0.6,0.4,0.6,0.4,,,,,,,,,,,,,,,0.3937,,0.8,0.2,0.2,0.8,0.4,0.6,0.4,0.6,,,0.0696,,0.2,0.8,0.8,0.2,0.2,0.8,0.4,0.6,1,0
,,5faacca24cd0384c1fa08be1,66fc97e542b801f3398f55ea,2024-10-02_02h47.35.121,mdp,2024.2.1,Win32,144.9275362,66fa4ebf79326e780c390304,,,,,,,,,,,,,,,,,,,,,614.4983,614.4983,614.4987,615.1648,1,0,right,0.1529,,615.1652,615.7204,1,1,right,615.7208,616.2411,0,1,left,0,616.2412,616.2412,616.2416,617.7414,0,20,20,20,1,0.6,0.4,0.6,0.4,,,,,,,,,,,,,,,0.0488,,0.8,0.2,0.2,0.8,0.4,0.6,0.4,0.6,,,0.0066,,0.2,0.8,0.8,0.2,0.2,0.8,0.4,0.6,1,0
,,5faacca24cd0384c1fa08be1,66fc97e542b801f3398f55ea,2024-10-02_02h47.35.121,mdp,2024.2.1,Win32,144.9275362,66fa4ebf79326e780c390304,,,,,,,,,,,,,,,,,,,,,617.7416,617.7416,617.7419,619.0124,1,0,right,0.7606,,619.0128,621.0404,0,0,left,621.0409,621.6377,0,1,left,0,621.6377,621.6378,621.6382,623.1379,0,21,21,21,1,0.6,0.4,0.6,0.4,,,,,,,,,,,,,,,1.5238,,0.8,0.2,0.2,0.8,0.6,0.4,0.2,0.8,,,0.0828,,0.2,0.8,0.8,0.2,0.2,0.8,0.4,0.6,1,0
,,5faacca24cd0384c1fa08be1,66fc97e542b801f3398f55ea,2024-10-02_02h47.35.121,mdp,2024.2.1,Win32,144.9275362,66fa4ebf79326e780c390304,,,,,,,,,,,,,,,,,,,,,623.138,623.138,623.1384,624.1795,1,0,right,0.528,,624.1799,624.7354,1,1,right,624.7357,625.2631,1,1,right,0,625.2632,625.2632,625.2636,626.7633,0,22,22,22,1,0.6,0.4,0.6,0.4,,,,,,,,,,,,,,,0.0499,,0.8,0.2,0.2,0.8,0.6,0.4,0.2,0.8,,,0.0143,,0.2,0.8,0.8,0.2,0.8,0.2,0.2,0.8,1,0
,,5faacca24cd0384c1fa08be1,66fc97e542b801f3398f55ea,2024-10-02_02h47.35.121,mdp,2024.2.1,Win32,144.9275362,66fa4ebf79326e780c390304,,,,,,,,,,,,,,,,,,,,,626.7635,626.7635,626.7639,627.812,0,0,left,0.5355,,627.8125,628.4996,1,0,right,628.4999,629.1663,1,0,right,1,629.1663,629.1663,629.1668,630.6663,0,23,23,23,1,0.6,0.4,0.6,0.4,,,,,,,,,,,,,,,0.1738,,0.6,0.4,0.6,0.4,0.6,0.4,0.2,0.8,,,0.1597,,0.2,0.8,0.8,0.2,0.8,0.2,0.2,0.8,1,0
,,5faacca24cd0384c1fa08be1,66fc97e542b801f3398f55ea,2024-10-02_02h47.35.121,mdp,2024.2.1,Win32,144.9275362,66fa4ebf79326e780c390304,,,,,,,,,,,,,,,,,,,,,630.6665,630.6665,630.6669,631.5486,0,0,left,0.3778,,631.549,632.2361,0,1,left,632.2366,632.9307,1,0,right,1,632.9307,632.9307,632.9311,634.4308,0,24,24,24,1,0.6,0.4,0.6,0.4,,,,,,,,,,,,,,,0.1749,,0.6,0.4,0.6,0.4,0.6,0.4,0.2,0.8,,,0.1906,,0.2,0.8,0.8,0.2,0.8,0.2,0.2,0.8,1,0
,,5faacca24cd0384c1fa08be1,66fc97e542b801f3398f55ea,2024-10-02_02h47.35.121,mdp,2024.2.1,Win32,144.9275362,66fa4ebf79326e780c390304,,,,,,,,,,,,,,,,,,,,,634.431,634.431,634.4314,635.0282,0,1,left,0.0849,,635.0286,635.6115,1,1,right,635.612,636.3061,1,1,right,0,636.3061,636.3061,636.3065,637.8062,0,25,25,25,1,0.6,0.4,0.6,0.4,,,,,,,,,,,,,,,0.0687,,0.6,0.4,0.6,0.4,0.6,0.4,0.2,0.8,,,0.1892,,0.2,0.8,0.8,0.2,0.8,0.2,0.2,0.8,1,0
,,5faacca24cd0384c1fa08be1,66fc97e542b801f3398f55ea,2024-10-02_02h47.35.121,mdp,2024.2.1,Win32,144.9275362,66fa4ebf79326e780c390304,,,,,,,,,,,,,,,,,,,,,637.8064,637.8064,637.8068,638.3479,0,1,left,0.028,,638.3484,638.9799,1,0,right,638.9804,639.9523,1,0,right,1,639.9523,639.9523,639.9527,641.4524,0,26,26,26,1,0.6,0.4,0.6,0.4,,,,,,,,,,,,,,,0.1252,,0.6,0.4,0.6,0.4,0.6,0.4,0.2,0.8,,,0.4583,,0.2,0.8,0.8,0.2,0.8,0.2,0.2,0.8,1,0
,,5faacca24cd0384c1fa08be1,66fc97e542b801f3398f55ea,2024-10-02_02h47.35.121,mdp,2024.2.1,Win32,144.9275362,66fa4ebf79326e780c390304,,,,,,,,,,,,,,,,,,,,,641.4527,641.4527,641.453,642.2164,1,1,right,0.2511,,642.2169,642.779,1,1,right,642.7794,643.3901,1,1,right,0,643.3902,643.3902,643.3905,644.8903,0,27,27,27,1,0.6,0.4,0.6,0.4,,,,,,,,,,,,,,,0.0505,,0.6,0.4,0.6,0.4,0.6,0.4,0.2,0.8,,,0.1008,,0.2,0.8,0.8,0.2,0.8,0.2,0.2,0.8,1,0
,,5faacca24cd0384c1fa08be1,66fc97e542b801f3398f55ea,2024-10-02_02h47.35.121,mdp,2024.2.1,Win32,144.9275362,66fa4ebf79326e780c390304,,,,,,,,,,,,,,,,,,,,,644.8905,644.8905,644.8909,653.0163,1,0,right,7.6165,,653.0216,653.551,0,0,left,653.5515,654.4331,1,0,right,1,654.4332,654.4332,654.4335,655.9332,0,28,28,28,1,0.6,0.4,0.6,0.4,,,,,,,,,,,,,,,0.0298,,0.6,0.4,0.6,0.4,0.6,0.4,0.2,0.8,,,0.3691,,0.2,0.8,0.8,0.2,0.8,0.2,0.2,0.8,1,0
,,5faacca24cd0384c1fa08be1,66fc97e542b801f3398f55ea,2024-10-02_02h47.35.121,mdp,2024.2.1,Win32,144.9275362,66fa4ebf79326e780c390304,,,,,,,,,,,,,,,,,,,,,655.9334,655.9334,655.9338,673.8311,1,0,right,17.384,,673.8365,674.3798,0,0,left,674.3801,675.0464,0,1,left,0,675.0464,675.0464,675.0468,676.5466,0,29,29,29,1,0.6,0.4,0.6,0.4,,,,,,,,,,,,,,,0.0389,,0.6,0.4,0.6,0.4,0.6,0.4,0.2,0.8,,,0.1599,,0.2,0.8,0.8,0.2,0.8,0.2,0.2,0.8,1,0
,,5faacca24cd0384c1fa08be1,66fc97e542b801f3398f55ea,2024-10-02_02h47.35.121,mdp,2024.2.1,Win32,144.9275362,66fa4ebf79326e780c390304,,,,,,,,,,,,,,,,,,,,,676.5468,676.5468,676.5472,679.1164,0,1,left,2.0561,,679.1168,679.6998,0,1,left,679.7003,680.5262,0,0,left,1,680.5262,680.5262,680.5267,682.0264,0,30,30,30,1,0.6,0.4,0.6,0.4,,,,,,,,,,,,,,,0.0783,,0.6,0.4,0.6,0.4,0.6,0.4,0.2,0.8,,,0.3132,,0.2,0.8,0.8,0.2,0.8,0.2,0.2,0.8,1,0
,,5faacca24cd0384c1fa08be1,66fc97e542b801f3398f55ea,2024-10-02_02h47.35.121,mdp,2024.2.1,Win32,144.9275362,66fa4ebf79326e780c390304,,,,,,,,,,,,,,,,,,,,,682.0266,682.0266,682.0269,683.4363,0,1,left,0.8962,,683.4368,684.1031,1,1,right,684.1036,684.6169,1,1,right,0,684.6169,684.6169,684.6174,686.1172,0,31,31,31,1,0.6,0.4,0.6,0.4,,,,,,,,,,,,,,,0.1542,,0.6,0.4,0.6,0.4,0.6,0.4,0.2,0.8,,,0.008,,0.2,0.8,0.8,0.2,0.8,0.2,0.2,0.8,1,0
,,5faacca24cd0384c1fa08be1,66fc97e542b801f3398f55ea,2024-10-02_02h47.35.121,mdp,2024.2.1,Win32,144.9275362,66fa4ebf79326e780c390304,,,,,,,,,,,,,,,,,,,,,686.1173,686.1173,686.1177,686.6728,1,1,right,0.0419,,686.6732,687.2701,0,0,left,687.2705,687.8674,0,1,left,0,687.8675,687.8675,687.8679,689.3675,0,32,32,32,1,0.6,0.4,0.6,0.4,,,,,,,,,,,,,,,0.0905,,0.6,0.4,0.6,0.4,0.6,0.4,0.2,0.8,,,0.0848,,0.2,0.8,0.8,0.2,0.8,0.2,0.2,0.8,1,0
,,5faacca24cd0384c1fa08be1,66fc97e542b801f3398f55ea,2024-10-02_02h47.35.121,mdp,2024.2.1,Win32,144.9275362,66fa4ebf79326e780c390304,,,,,,,,,,,,,,,,,,,,,689.3677,689.3677,689.368,689.9578,0,0,left,0.0766,,689.9583,690.5065,0,0,left,690.5069,691.1177,0,1,left,0,691.1177,691.1177,691.1181,692.6179,0,33,33,33,1,0.6,0.4,0.6,0.4,,,,,,,,,,,,,,,0.0361,,0.6,0.4,0.6,0.4,0.6,0.4,0.2,0.8,,,0.0992,,0.2,0.8,0.8,0.2,0.8,0.2,0.2,0.8,1,0
,,5faacca24cd0384c1fa08be1,66fc97e542b801f3398f55ea,2024-10-02_02h47.35.121,mdp,2024.2.1,Win32,144.9275362,66fa4ebf79326e780c390304,,,,,,,,,,,,,,,,,,,,,692.6181,692.6181,692.6184,693.4652,1,1,right,0.3335,,693.4656,694.1736,1,0,right,694.174,694.9029,0,1,left,0,694.9029,694.9029,694.9034,696.403,0,34,34,34,1,0.6,0.4,0.6,0.4,,,,,,,,,,,,,,,0.1957,,0.6,0.4,0.6,0.4,0.6,0.4,0.2,0.8,,,0.2226,,0.2,0.8,0.8,0.2,0.8,0.2,0.2,0.8,1,0
,,5faacca24cd0384c1fa08be1,66fc97e542b801f3398f55ea,2024-10-02_02h47.35.121,mdp,2024.2.1,Win32,144.9275362,66fa4ebf79326e780c390304,,,,,,,,,,,,,,,,,,,,,696.4032,696.4032,696.4036,697.0628,1,0,right,0.148,,697.0633,697.6185,1,0,right,697.619,698.1671,1,0,right,1,698.1672,698.1672,698.1676,699.6673,0,35,35,35,1,0.6,0.4,0.6,0.4,,,,,,,,,,,,,,,0.0481,,0.6,0.4,0.6,0.4,0.6,0.4,0.2,0.8,,,0.0393,,0.2,0.8,0.8,0.2,0.8,0.2,0.2,0.8,1,0
,,5faacca24cd0384c1fa08be1,66fc97e542b801f3398f55ea,2024-10-02_02h47.35.121,mdp,2024.2.1,Win32,144.9275362,66fa4ebf79326e780c390304,,,,,,,,,,,,,,,,,,,,,699.6676,699.6676,699.668,700.2644,0,0,left,0.0834,,700.2648,700.8272,1,0,right,700.8276,701.4522,1,0,right,1,701.4522,701.4522,701.4527,702.9522,0,36,36,36,1,0.6,0.4,0.6,0.4,,,,,,,,,,,,,,,0.0557,,0.6,0.4,0.6,0.4,0.6,0.4,0.2,0.8,,,0.1113,,0.2,0.8,0.8,0.2,0.8,0.2,0.2,0.8,1,0
,,5faacca24cd0384c1fa08be1,66fc97e542b801f3398f55ea,2024-10-02_02h47.35.121,mdp,2024.2.1,Win32,144.9275362,66fa4ebf79326e780c390304,,,,,,,,,,,,,,,,,,,,,702.9524,702.9524,702.9528,703.6469,0,0,left,0.1797,,703.6474,704.3067,0,1,left,704.3072,705.1193,0,0,left,1,705.1193,705.1193,705.1197,706.6195,0,37,37,37,1,0.6,0.4,0.6,0.4,,,,,,,,,,,,,,,0.1543,,0.6,0.4,0.6,0.4,0.6,0.4,0.2,0.8,,,0.2998,,0.2,0.8,0.8,0.2,0.8,0.2,0.2,0.8,1,0
,,5faacca24cd0384c1fa08be1,66fc97e542b801f3398f55ea,2024-10-02_02h47.35.121,mdp,2024.2.1,Win32,144.9275362,66fa4ebf79326e780c390304,,,,,,,,,,,,,,,,,,,,,706.6196,706.6196,706.62,707.1404,1,0,right,0.0072,,707.1408,707.8696,0,1,left,707.87,708.5641,1,1,right,0,708.5641,708.5641,708.5646,710.0642,0,38,38,38,1,0.6,0.4,0.6,0.4,,,,,,,,,,,,,,,0.2254,,0.6,0.4,0.6,0.4,0.6,0.4,0.2,0.8,,,0.1882,,0.2,0.8,0.8,0.2,0.8,0.2,0.2,0.8,1,0
,,5faacca24cd0384c1fa08be1,66fc97e542b801f3398f55ea,2024-10-02_02h47.35.121,mdp,2024.2.1,Win32,144.9275362,66fa4ebf79326e780c390304,,,,,,,,,,,,,,,,,,,,,710.0642,710.0643,710.0646,710.7171,1,1,right,0.1407,,710.7176,711.2867,1,1,right,711.2871,711.8353,1,0,right,1,711.8353,711.8353,711.8357,713.3354,0,39,39,39,1,0.6,0.4,0.6,0.4,,,,,,,,,,,,,,,0.0621,,0.6,0.4,0.6,0.4,0.6,0.4,0.2,0.8,,,0.0464,,0.2,0.8,0.8,0.2,0.8,0.2,0.2,0.8,1,0
,,5faacca24cd0384c1fa08be1,66fc97e542b801f3398f55ea,2024-10-02_02h47.35.121,mdp,2024.2.1,Win32,144.9275362,66fa4ebf79326e780c390304,,,,,,,,,,,,,,,,,,,,,713.3357,713.3357,713.3361,713.9258,1,0,right,0.0809,,713.9263,714.5162,1,0,right,714.5167,715.551,1,0,right,1,715.551,715.551,715.5515,717.0511,0,40,40,40,1,0.6,0.4,0.6,0.4,,,,,,,,,,,,,,,0.0759,,0.6,0.4,0.6,0.4,0.6,0.4,0.2,0.8,,,0.5285,,0.2,0.8,0.8,0.2,0.8,0.2,0.2,0.8,1,0
,,5faacca24cd0384c1fa08be1,66fc97e542b801f3398f55ea,2024-10-02_02h47.35.121,mdp,2024.2.1,Win32,144.9275362,66fa4ebf79326e780c390304,,,,,,,,,,,,,,,,,,,,,717.0513,717.0513,717.0517,717.7527,1,0,right,0.1877,,717.7531,718.4055,1,0,right,718.406,719.0654,0,1,left,0,719.0654,719.0654,719.0657,720.5655,0,41,41,41,1,0.6,0.4,0.6,0.4,,,,,,,,,,,,,,,0.1396,,0.6,0.4,0.6,0.4,0.6,0.4,0.2,0.8,,,0.153,,0.2,0.8,0.8,0.2,0.8,0.2,0.2,0.8,1,0
,,5faacca24cd0384c1fa08be1,66fc97e542b801f3398f55ea,2024-10-02_02h47.35.121,mdp,2024.2.1,Win32,144.9275362,66fa4ebf79326e780c390304,,,,,,,,,,,,,,,,,,,,,720.5656,720.5656,720.5662,721.2809,0,1,left,0.2048,,721.2812,722.0795,0,0,left,722.0799,722.6073,0,1,left,0,722.6074,722.6074,722.6079,724.1075,0,42,42,42,1,0.6,0.4,0.6,0.4,,,,,,,,,,,,,,,0.2855,,0.6,0.4,0.6,0.4,0.6,0.4,0.2,0.8,,,0.0235,,0.2,0.8,0.8,0.2,0.8,0.2,0.2,0.8,1,0
,,5faacca24cd0384c1fa08be1,66fc97e542b801f3398f55ea,2024-10-02_02h47.35.121,mdp,2024.2.1,Win32,144.9275362,66fa4ebf79326e780c390304,,,,,,,,,,,,,,,,,,,,,724.1077,724.1077,724.1081,725.1215,1,0,right,0.5002,,725.122,725.7258,0,0,left,725.7262,726.3786,1,0,right,1,726.3786,726.3786,726.379,727.8788,0,43,43,43,1,0.6,0.4,0.6,0.4,,,,,,,,,,,,,,,0.0943,,0.6,0.4,0.6,0.4,0.6,0.4,0.2,0.8,,,0.15,,0.2,0.8,0.8,0.2,0.8,0.2,0.2,0.8,1,0
,,5faacca24cd0384c1fa08be1,66fc97e542b801f3398f55ea,2024-10-02_02h47.35.121,mdp,2024.2.1,Win32,144.9275362,66fa4ebf79326e780c390304,,,,,,,,,,,,,,,,,,,,,727.8789,727.8789,727.8793,728.9692,1,0,right,0.5786,,728.9696,729.6081,0,1,left,729.6089,730.5458,1,1,right,0,730.5458,730.5458,730.5462,732.0459,0,44,44,44,1,0.6,0.4,0.6,0.4,,,,,,,,,,,,,,,0.1251,,0.6,0.4,0.6,0.4,0.6,0.4,0.2,0.8,,,0.423,,0.2,0.8,0.8,0.2,0.8,0.2,0.2,0.8,1,0
,,5faacca24cd0384c1fa08be1,66fc97e542b801f3398f55ea,2024-10-02_02h47.35.121,mdp,2024.2.1,Win32,144.9275362,66fa4ebf79326e780c390304,,,,,,,,,,,,,,,,,,,,,732.0461,732.0461,732.0465,733.8656,0,0,left,1.3087,,733.866,734.3863,1,0,right,734.3868,734.8935,1,0,right,1,734.8935,734.8935,734.894,736.3936,0,45,45,45,1,0.6,0.4,0.6,0.4,,,,,,,,,,,,,,,0.0073,,0.6,0.4,0.6,0.4,0.6,0.4,0.2,0.8,,,0.0033,,0.2,0.8,0.8,0.2,0.8,0.2,0.2,0.8,1,0
,,5faacca24cd0384c1fa08be1,66fc97e542b801f3398f55ea,2024-10-02_02h47.35.121,mdp,2024.2.1,Win32,144.9275362,66fa4ebf79326e780c390304,,,,,,,,,,,,,,,,,,,,,736.3938,736.3938,736.3941,738.0744,1,0,right,1.1695,,738.0748,738.6786,1,0,right,738.679,739.1926,0,1,left,0,739.1926,739.1926,739.193,740.6927,0,46,46,46,1,0.6,0.4,0.6,0.4,,,,,,,,,,,,,,,0.0936,,0.6,0.4,0.6,0.4,0.6,0.4,0.2,0.8,,,0.0086,,0.2,0.8,0.8,0.2,0.8,0.2,0.2,0.8,1,0
,,5faacca24cd0384c1fa08be1,66fc97e542b801f3398f55ea,2024-10-02_02h47.35.121,mdp,2024.2.1,Win32,144.9275362,66fa4ebf79326e780c390304,,,,,,,,,,,,,,,,,,,,,740.6929,740.6929,740.6933,741.5539,1,0,right,0.3474,,741.5544,742.1927,1,1,right,742.1931,742.7138,1,1,right,0,742.7138,742.7138,742.7141,744.2139,0,47,47,47,1,0.6,0.4,0.6,0.4,,,,,,,,,,,,,,,0.1345,,0.6,0.4,0.6,0.4,0.6,0.4,0.2,0.8,,,0.0166,,0.2,0.8,0.8,0.2,0.8,0.2,0.2,0.8,1,0
,,5faacca24cd0384c1fa08be1,66fc97e542b801f3398f55ea,2024-10-02_02h47.35.121,mdp,2024.2.1,Win32,144.9275362,66fa4ebf79326e780c390304,,,,,,,,,,,,,,,,,,,,,744.2141,744.2141,744.2144,745.6793,0,0,left,0.953,,745.6797,746.3182,0,1,left,746.3186,746.8252,1,1,right,0,746.8253,746.8253,746.8256,748.3255,0,48,48,48,1,0.6,0.4,0.6,0.4,,,,,,,,,,,,,,,0.1368,,0.6,0.4,0.6,0.4,0.6,0.4,0.2,0.8,,,0.0019,,0.2,0.8,0.8,0.2,0.8,0.2,0.2,0.8,1,0
,,5faacca24cd0384c1fa08be1,66fc97e542b801f3398f55ea,2024-10-02_02h47.35.121,mdp,2024.2.1,Win32,144.9275362,66fa4ebf79326e780c390304,,,,,,,,,,,,,,,,,,,,,748.3257,748.3257,748.326,748.8603,0,0,left,0.0244,,748.8607,749.3743,0,0,left,749.3747,749.9924,0,0,left,1,749.9924,749.9925,749.9928,751.4925,0,49,49,49,1,0.8,0.2,0.4,0.6,,,,,,,,,,,,,,,0.0085,,0.6,0.4,0.6,0.4,0.6,0.4,0.2,0.8,,,0.1082,,0.2,0.8,0.8,0.2,0.8,0.2,0.2,0.8,1,0
,,5faacca24cd0384c1fa08be1,66fc97e542b801f3398f55ea,2024-10-02_02h47.35.121,mdp,2024.2.1,Win32,144.9275362,66fa4ebf79326e780c390304,,,,,,,,,,,,,,,,,,,,,,,,,,,,,,,,,,,,,,,,,,,,,,,,,,,,,,,,751.4926,809.9991,0,2,2,3,1,imgs/rabbit.png,imgs/elephant.png,imgs/kangaroo.png,imgs/horse.png,imgs/goat.png,,,,,,,,,,,,,,,,,,,,,,,,
,,5faacca24cd0384c1fa08be1,66fc97e542b801f3398f55ea,2024-10-02_02h47.35.121,mdp,2024.2.1,Win32,144.9275362,66fa4ebf79326e780c390304,,,,,,,,,,,,,,3,seqs/st3seq3.csv,810.0043,811.6799,space,1.1651,,811.6835,811.6835,811.6839,812.7078,1,1,right,0.5132,,812.7082,813.3189,1,0,right,813.3194,813.9162,0,1,left,0,813.9162,813.9163,813.9167,815.4163,0,0,0,0,1,0.8,0.2,0.2,0.8,,,,,,,,,,,,,,,0.1007,,0.8,0.2,0.2,0.8,0.4,0.6,0.6,0.4,,,0.0887,,0.4,0.6,0.2,0.8,0.6,0.4,0.4,0.6,1,0
,,5faacca24cd0384c1fa08be1,66fc97e542b801f3398f55ea,2024-10-02_02h47.35.121,mdp,2024.2.1,Win32,144.9275362,66fa4ebf79326e780c390304,,,,,,,,,,,,,,,,,,,,,815.4166,815.4166,815.4172,816.0484,1,1,right,0.1201,,816.0489,816.5554,1,0,right,816.5558,817.236,1,1,right,0,817.236,817.236,817.2365,818.7362,0,1,1,1,1,0.8,0.2,0.2,0.8,,,,,,,,,,,,,,,0.003,,0.8,0.2,0.2,0.8,0.4,0.6,0.6,0.4,,,0.1668,,0.4,0.6,0.2,0.8,0.6,0.4,0.4,0.6,1,0
,,5faacca24cd0384c1fa08be1,66fc97e542b801f3398f55ea,2024-10-02_02h47.35.121,mdp,2024.2.1,Win32,144.9275362,66fa4ebf79326e780c390304,,,,,,,,,,,,,,,,,,,,,818.7363,818.7364,818.7367,819.2709,0,0,left,0.0225,,819.2714,819.8544,0,0,left,819.8548,820.5766,0,1,left,0,820.5767,820.5767,820.5771,822.0769,0,2,2,2,1,0.8,0.2,0.2,0.8,,,,,,,,,,,,,,,0.0776,,0.8,0.2,0.2,0.8,0.4,0.6,0.6,0.4,,,0.208,,0.4,0.6,0.2,0.8,0.6,0.4,0.4,0.6,1,0
,,5faacca24cd0384c1fa08be1,66fc97e542b801f3398f55ea,2024-10-02_02h47.35.121,mdp,2024.2.1,Win32,144.9275362,66fa4ebf79326e780c390304,,,,,,,,,,,,,,,,,,,,,822.077,822.077,822.0774,822.5908,0,0,left,0.0021,,822.5912,823.2506,0,0,left,823.251,823.7993,1,1,right,0,823.7993,823.7993,823.7997,825.2994,0,3,3,3,1,0.8,0.2,0.2,0.8,,,,,,,,,,,,,,,0.1438,,0.8,0.2,0.2,0.8,0.4,0.6,0.6,0.4,,,0.0374,,0.4,0.6,0.2,0.8,0.6,0.4,0.4,0.6,1,0
,,5faacca24cd0384c1fa08be1,66fc97e542b801f3398f55ea,2024-10-02_02h47.35.121,mdp,2024.2.1,Win32,144.9275362,66fa4ebf79326e780c390304,,,,,,,,,,,,,,,,,,,,,825.2996,825.2996,825.2999,825.8342,0,0,left,0.021,,825.8346,826.4038,0,0,left,826.4042,826.9525,0,0,left,1,826.9525,826.9525,826.9529,828.4525,0,4,4,4,1,0.8,0.2,0.2,0.8,,,,,,,,,,,,,,,0.0626,,0.8,0.2,0.2,0.8,0.4,0.6,0.6,0.4,,,0.0361,,0.4,0.6,0.2,0.8,0.6,0.4,0.4,0.6,1,0
,,5faacca24cd0384c1fa08be1,66fc97e542b801f3398f55ea,2024-10-02_02h47.35.121,mdp,2024.2.1,Win32,144.9275362,66fa4ebf79326e780c390304,,,,,,,,,,,,,,,,,,,,,828.4528,828.4528,828.4531,829.1262,0,1,left,0.1623,,829.1268,829.6888,0,0,left,829.6892,830.2236,1,0,right,1,830.2236,830.2236,830.224,831.7238,0,5,5,5,1,0.8,0.2,0.2,0.8,,,,,,,,,,,,,,,0.0497,,0.8,0.2,0.2,0.8,0.4,0.6,0.6,0.4,,,0.0233,,0.4,0.6,0.2,0.8,0.6,0.4,0.4,0.6,1,0
,,5faacca24cd0384c1fa08be1,66fc97e542b801f3398f55ea,2024-10-02_02h47.35.121,mdp,2024.2.1,Win32,144.9275362,66fa4ebf79326e780c390304,,,,,,,,,,,,,,,,,,,,,831.724,831.724,831.7244,832.3002,1,0,right,0.0665,,832.3006,832.9113,1,1,right,832.9118,833.5087,0,0,left,1,833.5087,833.5087,833.5091,835.0089,0,6,6,6,1,0.8,0.2,0.2,0.8,,,,,,,,,,,,,,,0.1027,,0.8,0.2,0.2,0.8,0.4,0.6,0.6,0.4,,,0.0943,,0.4,0.6,0.2,0.8,0.6,0.4,0.4,0.6,1,0
,,5faacca24cd0384c1fa08be1,66fc97e542b801f3398f55ea,2024-10-02_02h47.35.121,mdp,2024.2.1,Win32,144.9275362,66fa4ebf79326e780c390304,,,,,,,,,,,,,,,,,,,,,835.0091,835.0091,835.0094,835.6408,0,0,left,0.1183,,835.6413,836.1756,0,0,left,836.1761,836.7035,0,1,left,0,836.7035,836.7035,836.704,838.2037,0,7,7,7,1,0.8,0.2,0.2,0.8,,,,,,,,,,,,,,,0.0288,,0.8,0.2,0.2,0.8,0.4,0.6,0.6,0.4,,,0.0134,,0.4,0.6,0.2,0.8,0.6,0.4,0.4,0.6,1,0
,,5faacca24cd0384c1fa08be1,66fc97e542b801f3398f55ea,2024-10-02_02h47.35.121,mdp,2024.2.1,Win32,144.9275362,66fa4ebf79326e780c390304,,,,,,,,,,,,,,,,,,,,,838.2039,838.2039,838.2042,838.7385,1,1,right,0.0232,,838.7389,839.3983,1,0,right,839.3988,840.1136,0,1,left,0,840.1136,840.1136,840.1141,841.6138,0,8,8,8,1,0.8,0.2,0.2,0.8,,,,,,,,,,,,,,,0.1547,,0.8,0.2,0.2,0.8,0.4,0.6,0.6,0.4,,,0.2021,,0.4,0.6,0.2,0.8,0.8,0.2,0.8,0.2,1,0
,,5faacca24cd0384c1fa08be1,66fc97e542b801f3398f55ea,2024-10-02_02h47.35.121,mdp,2024.2.1,Win32,144.9275362,66fa4ebf79326e780c390304,,,,,,,,,,,,,,,,,,,,,841.614,841.614,841.6144,842.2597,0,0,left,0.1345,,842.26,842.9195,0,0,left,842.9199,843.614,1,1,right,0,843.614,843.614,843.6145,845.1141,0,9,9,9,1,0.8,0.2,0.2,0.8,,,,,,,,,,,,,,,0.1468,,0.8,0.2,0.2,0.8,0.4,0.6,0.6,0.4,,,0.1881,,0.4,0.6,0.2,0.8,0.8,0.2,0.8,0.2,1,0
,,5faacca24cd0384c1fa08be1,66fc97e542b801f3398f55ea,2024-10-02_02h47.35.121,mdp,2024.2.1,Win32,144.9275362,66fa4ebf79326e780c390304,,,,,,,,,,,,,,,,,,,,,845.1143,845.1143,845.1147,845.7254,0,0,left,0.0974,,845.7257,846.4614,0,0,left,846.4618,847.7741,1,1,right,0,847.7741,847.7742,847.7745,849.2743,0,10,10,10,1,0.8,0.2,0.2,0.8,,,,,,,,,,,,,,,0.2265,,0.8,0.2,0.2,0.8,0.4,0.6,0.6,0.4,,,0.8064,,0.4,0.6,0.2,0.8,0.8,0.2,0.8,0.2,1,0
,,5faacca24cd0384c1fa08be1,66fc97e542b801f3398f55ea,2024-10-02_02h47.35.121,mdp,2024.2.1,Win32,144.9275362,66fa4ebf79326e780c390304,,,,,,,,,,,,,,,,,,,,,849.2746,849.2746,849.2749,849.955,1,1,right,0.17,,849.9554,850.5176,1,1,right,850.518,851.1426,1,0,right,1,851.1426,851.1426,851.1431,852.6427,0,11,11,11,1,0.8,0.2,0.2,0.8,,,,,,,,,,,,,,,0.0553,,0.8,0.2,0.2,0.8,0.4,0.6,0.6,0.4,,,0.1151,,0.4,0.6,0.2,0.8,0.8,0.2,0.8,0.2,1,0
,,5faacca24cd0384c1fa08be1,66fc97e542b801f3398f55ea,2024-10-02_02h47.35.121,mdp,2024.2.1,Win32,144.9275362,66fa4ebf79326e780c390304,,,,,,,,,,,,,,,,,,,,,852.6429,852.6429,852.6433,853.1984,1,0,right,0.0449,,853.1988,853.7124,1,1,right,853.7128,854.3305,0,0,left,1,854.3305,854.3305,854.3309,855.8306,0,12,12,12,1,0.8,0.2,0.2,0.8,,,,,,,,,,,,,,,0.0073,,0.8,0.2,0.2,0.8,0.4,0.6,0.6,0.4,,,0.1083,,0.4,0.6,0.2,0.8,0.8,0.2,0.8,0.2,1,0
,,5faacca24cd0384c1fa08be1,66fc97e542b801f3398f55ea,2024-10-02_02h47.35.121,mdp,2024.2.1,Win32,144.9275362,66fa4ebf79326e780c390304,,,,,,,,,,,,,,,,,,,,,855.8308,855.8308,855.8312,856.428,0,0,left,0.0843,,856.4284,856.9627,0,0,left,856.9632,857.5114,0,1,left,0,857.5114,857.5114,857.5119,859.0115,0,13,13,13,1,0.8,0.2,0.2,0.8,,,,,,,,,,,,,,,0.0299,,0.8,0.2,0.2,0.8,0.4,0.6,0.6,0.4,,,0.034,,0.4,0.6,0.2,0.8,0.8,0.2,0.8,0.2,1,0
,,5faacca24cd0384c1fa08be1,66fc97e542b801f3398f55ea,2024-10-02_02h47.35.121,mdp,2024.2.1,Win32,144.9275362,66fa4ebf79326e780c390304,,,,,,,,,,,,,,,,,,,,,859.0117,859.0117,859.0121,859.588,0,0,left,0.0628,,859.5884,860.1784,0,1,left,860.1788,860.7617,1,0,right,1,860.7618,860.7618,860.7622,862.2619,0,14,14,14,1,0.8,0.2,0.2,0.8,,,,,,,,,,,,,,,0.0863,,0.8,0.2,0.2,0.8,0.4,0.6,0.6,0.4,,,0.0688,,0.4,0.6,0.2,0.8,0.8,0.2,0.8,0.2,1,0
,,5faacca24cd0384c1fa08be1,66fc97e542b801f3398f55ea,2024-10-02_02h47.35.121,mdp,2024.2.1,Win32,144.9275362,66fa4ebf79326e780c390304,,,,,,,,,,,,,,,,,,,,,862.2621,862.2621,862.2625,862.7828,1,0,right,0.0088,,862.7832,863.3523,1,1,right,863.3528,864.0816,0,0,left,1,864.0816,864.0816,864.082,865.5817,0,15,15,15,1,0.8,0.2,0.2,0.8,,,,,,,,,,,,,,,0.0628,,0.8,0.2,0.2,0.8,0.4,0.6,0.6,0.4,,,0.2195,,0.4,0.6,0.2,0.8,0.8,0.2,0.8,0.2,1,0
,,5faacca24cd0384c1fa08be1,66fc97e542b801f3398f55ea,2024-10-02_02h47.35.121,mdp,2024.2.1,Win32,144.9275362,66fa4ebf79326e780c390304,,,,,,,,,,,,,,,,,,,,,865.5819,865.5819,865.5822,866.1027,1,1,right,0.0083,,866.1031,866.7068,1,0,right,866.7073,868.339,0,1,left,0,868.3391,868.3391,868.3395,869.8391,0,16,16,16,1,0.8,0.2,0.2,0.8,,,,,,,,,,,,,,,0.0907,,0.8,0.2,0.2,0.8,0.4,0.6,0.6,0.4,,,1.1247,,0.4,0.6,0.2,0.8,0.8,0.2,0.8,0.2,1,0
,,5faacca24cd0384c1fa08be1,66fc97e542b801f3398f55ea,2024-10-02_02h47.35.121,mdp,2024.2.1,Win32,144.9275362,66fa4ebf79326e780c390304,,,,,,,,,,,,,,,,,,,,,869.8393,869.8393,869.8397,870.353,0,0,left,0.0032,,870.3535,871.0407,1,1,right,871.0412,871.6379,1,0,right,1,871.638,871.638,871.6384,873.1381,0,17,17,17,1,0.8,0.2,0.2,0.8,,,,,,,,,,,,,,,0.1808,,0.2,0.8,0.6,0.4,0.4,0.6,0.6,0.4,,,0.0863,,0.4,0.6,0.2,0.8,0.8,0.2,0.8,0.2,1,0
,,5faacca24cd0384c1fa08be1,66fc97e542b801f3398f55ea,2024-10-02_02h47.35.121,mdp,2024.2.1,Win32,144.9275362,66fa4ebf79326e780c390304,,,,,,,,,,,,,,,,,,,,,873.1382,873.1382,873.1387,873.7006,0,0,left,0.0517,,873.7011,874.2772,0,1,left,874.2775,875.3189,0,1,left,0,875.319,875.319,875.3194,876.8191,0,18,18,18,1,0.8,0.2,0.2,0.8,,,,,,,,,,,,,,,0.0732,,0.2,0.8,0.6,0.4,0.4,0.6,0.6,0.4,,,0.5349,,0.4,0.6,0.2,0.8,0.8,0.2,0.8,0.2,1,0
,,5faacca24cd0384c1fa08be1,66fc97e542b801f3398f55ea,2024-10-02_02h47.35.121,mdp,2024.2.1,Win32,144.9275362,66fa4ebf79326e780c390304,,,,,,,,,,,,,,,,,,,,,876.8192,876.8192,876.8196,877.3956,1,1,right,0.0673,,877.396,878.1457,1,1,right,878.1461,878.7499,0,1,left,0,878.7499,878.7499,878.7503,880.2499,0,19,19,19,1,0.8,0.2,0.2,0.8,,,,,,,,,,,,,,,0.2427,,0.2,0.8,0.6,0.4,0.4,0.6,0.6,0.4,,,0.1018,,0.4,0.6,0.2,0.8,0.8,0.2,0.8,0.2,1,0
,,5faacca24cd0384c1fa08be1,66fc97e542b801f3398f55ea,2024-10-02_02h47.35.121,mdp,2024.2.1,Win32,144.9275362,66fa4ebf79326e780c390304,,,,,,,,,,,,,,,,,,,,,880.2501,880.2501,880.2504,881.0001,1,1,right,0.2377,,881.0005,881.6252,1,1,right,881.6256,882.1945,1,0,right,1,882.1945,882.1945,882.195,883.6949,0,20,20,20,1,0.8,0.2,0.2,0.8,,,,,,,,,,,,,,,0.1195,,0.2,0.8,0.6,0.4,0.4,0.6,0.6,0.4,,,0.0595,,0.4,0.6,0.2,0.8,0.8,0.2,0.8,0.2,1,0
,,5faacca24cd0384c1fa08be1,66fc97e542b801f3398f55ea,2024-10-02_02h47.35.121,mdp,2024.2.1,Win32,144.9275362,66fa4ebf79326e780c390304,,,,,,,,,,,,,,,,,,,,,883.695,883.695,883.6954,884.2088,1,1,right,0.0013,,884.2092,884.7992,1,0,right,884.7996,885.327,1,0,right,1,885.327,885.327,885.3274,886.8271,0,21,21,21,1,0.8,0.2,0.2,0.8,,,,,,,,,,,,,,,0.0764,,0.2,0.8,0.6,0.4,0.4,0.6,0.6,0.4,,,0.0203,,0.4,0.6,0.2,0.8,0.8,0.2,0.8,0.2,1,0
,,5faacca24cd0384c1fa08be1,66fc97e542b801f3398f55ea,2024-10-02_02h47.35.121,mdp,2024.2.1,Win32,144.9275362,66fa4ebf79326e780c390304,,,,,,,,,,,,,,,,,,,,,886.8273,886.8273,886.8277,887.5425,1,1,right,0.2052,,887.5429,888.1259,1,0,right,888.1263,888.7301,1,0,right,1,888.7302,888.7302,888.7306,890.2303,0,22,22,22,1,0.8,0.2,0.2,0.8,,,,,,,,,,,,,,,0.0769,,0.2,0.8,0.6,0.4,0.4,0.6,0.6,0.4,,,0.0984,,0.4,0.6,0.2,0.8,0.8,0.2,0.8,0.2,1,0
,,5faacca24cd0384c1fa08be1,66fc97e542b801f3398f55ea,2024-10-02_02h47.35.121,mdp,2024.2.1,Win32,144.9275362,66fa4ebf79326e780c390304,,,,,,,,,,,,,,,,,,,,,890.2305,890.2305,890.2308,891.2444,0,0,left,0.5002,,891.2448,891.7791,0,1,left,891.7796,892.3556,1,0,right,1,892.3556,892.3556,892.356,893.8557,0,23,23,23,1,0.8,0.2,0.2,0.8,,,,,,,,,,,,,,,0.0207,,0.2,0.8,0.6,0.4,0.4,0.6,0.6,0.4,,,0.0709,,0.4,0.6,0.2,0.8,0.8,0.2,0.8,0.2,1,0
,,5faacca24cd0384c1fa08be1,66fc97e542b801f3398f55ea,2024-10-02_02h47.35.121,mdp,2024.2.1,Win32,144.9275362,66fa4ebf79326e780c390304,,,,,,,,,,,,,,,,,,,,,893.8559,893.8559,893.8563,894.5017,1,1,right,0.1333,,894.5021,895.1961,0,1,left,895.1965,895.7239,1,0,right,1,895.724,895.724,895.7243,897.2242,0,24,24,24,1,0.8,0.2,0.2,0.8,,,,,,,,,,,,,,,0.1869,,0.2,0.8,0.6,0.4,0.4,0.6,0.6,0.4,,,0.0161,,0.4,0.6,0.2,0.8,0.8,0.2,0.8,0.2,1,0
,,5faacca24cd0384c1fa08be1,66fc97e542b801f3398f55ea,2024-10-02_02h47.35.121,mdp,2024.2.1,Win32,144.9275362,66fa4ebf79326e780c390304,,,,,,,,,,,,,,,,,,,,,897.2244,897.2244,897.2247,897.8422,0,0,left,0.1042,,897.8427,898.3563,0,1,left,898.3567,899.0161,0,0,left,1,899.0161,899.0161,899.0165,900.5162,0,25,25,25,1,0.8,0.2,0.2,0.8,,,,,,,,,,,,,,,0.0002,,0.2,0.8,0.6,0.4,0.4,0.6,0.6,0.4,,,0.1439,,0.4,0.6,0.2,0.8,0.8,0.2,0.8,0.2,1,0
,,5faacca24cd0384c1fa08be1,66fc97e542b801f3398f55ea,2024-10-02_02h47.35.121,mdp,2024.2.1,Win32,144.9275362,66fa4ebf79326e780c390304,,,,,,,,,,,,,,,,,,,,,900.5164,900.5164,900.5168,901.2732,0,0,left,0.2447,,901.2737,901.8566,0,0,left,901.857,902.3637,0,0,left,1,902.3637,902.3637,902.3641,903.8637,0,26,26,26,1,0.8,0.2,0.2,0.8,,,,,,,,,,,,,,,0.0695,,0.2,0.8,0.6,0.4,0.4,0.6,0.6,0.4,,,0.0002,,0.4,0.6,0.2,0.8,0.8,0.2,0.8,0.2,1,0
,,5faacca24cd0384c1fa08be1,66fc97e542b801f3398f55ea,2024-10-02_02h47.35.121,mdp,2024.2.1,Win32,144.9275362,66fa4ebf79326e780c390304,,,,,,,,,,,,,,,,,,,,,903.864,903.864,903.8645,904.5514,1,1,right,0.1775,,904.5518,905.1695,0,1,left,905.17,905.7876,1,0,right,1,905.7877,905.7877,905.788,907.2878,0,27,27,27,1,0.8,0.2,0.2,0.8,,,,,,,,,,,,,,,0.1034,,0.8,0.2,0.8,0.2,0.4,0.6,0.6,0.4,,,0.1153,,0.4,0.6,0.2,0.8,0.8,0.2,0.8,0.2,1,0
,,5faacca24cd0384c1fa08be1,66fc97e542b801f3398f55ea,2024-10-02_02h47.35.121,mdp,2024.2.1,Win32,144.9275362,66fa4ebf79326e780c390304,,,,,,,,,,,,,,,,,,,,,907.288,907.288,907.2883,907.8712,0,0,left,0.0738,,907.8716,908.3921,0,0,left,908.3925,908.9616,0,1,left,0,908.9616,908.9616,908.962,910.4618,0,28,28,28,1,0.8,0.2,0.2,0.8,,,,,,,,,,,,,,,0.0134,,0.8,0.2,0.8,0.2,0.4,0.6,0.6,0.4,,,0.058,,0.4,0.6,0.2,0.8,0.8,0.2,0.8,0.2,1,0
,,5faacca24cd0384c1fa08be1,66fc97e542b801f3398f55ea,2024-10-02_02h47.35.121,mdp,2024.2.1,Win32,144.9275362,66fa4ebf79326e780c390304,,,,,,,,,,,,,,,,,,,,,910.462,910.462,910.4623,911.087,0,0,left,0.1162,,911.0873,911.7535,1,1,right,911.7539,912.3786,1,1,right,0,912.3786,912.3786,912.379,913.8788,0,29,29,29,1,0.8,0.2,0.2,0.8,,,,,,,,,,,,,,,0.1549,,0.8,0.2,0.8,0.2,0.4,0.6,0.6,0.4,,,0.1103,,0.4,0.6,0.2,0.8,0.8,0.2,0.8,0.2,1,0
,,5faacca24cd0384c1fa08be1,66fc97e542b801f3398f55ea,2024-10-02_02h47.35.121,mdp,2024.2.1,Win32,144.9275362,66fa4ebf79326e780c390304,,,,,,,,,,,,,,,,,,,,,913.879,913.879,913.8793,914.4205,0,0,left,0.0284,,914.421,915.0663,0,0,left,915.0668,915.6081,0,1,left,0,915.6082,915.6082,915.6086,917.1083,0,30,30,30,1,0.8,0.2,0.2,0.8,,,,,,,,,,,,,,,0.1321,,0.8,0.2,0.8,0.2,0.4,0.6,0.6,0.4,,,0.0371,,0.4,0.6,0.2,0.8,0.8,0.2,0.8,0.2,1,0
,,5faacca24cd0384c1fa08be1,66fc97e542b801f3398f55ea,2024-10-02_02h47.35.121,mdp,2024.2.1,Win32,144.9275362,66fa4ebf79326e780c390304,,,,,,,,,,,,,,,,,,,,,917.1085,917.1085,917.1089,917.6709,0,0,left,0.0488,,917.6713,918.2821,0,0,left,918.2825,918.7899,0,1,left,0,918.7899,918.7899,918.7902,920.2892,0,31,31,31,1,0.8,0.2,0.2,0.8,,,,,,,,,,,,,,,0.1068,,0.8,0.2,0.8,0.2,0.4,0.6,0.6,0.4,,,0.0026,,0.4,0.6,0.2,0.8,0.8,0.2,0.8,0.2,1,0
,,5faacca24cd0384c1fa08be1,66fc97e542b801f3398f55ea,2024-10-02_02h47.35.121,mdp,2024.2.1,Win32,144.9275362,66fa4ebf79326e780c390304,,,,,,,,,,,,,,,,,,,,,920.2894,920.2894,920.2898,920.9768,0,0,left,0.1756,,920.9773,921.5114,0,0,left,921.5119,922.1436,0,1,left,0,922.1436,922.1436,922.144,923.6438,0,32,32,32,1,0.8,0.2,0.2,0.8,,,,,,,,,,,,,,,0.0216,,0.8,0.2,0.8,0.2,0.4,0.6,0.6,0.4,,,0.1264,,0.4,0.6,0.2,0.8,0.8,0.2,0.8,0.2,1,0
,,5faacca24cd0384c1fa08be1,66fc97e542b801f3398f55ea,2024-10-02_02h47.35.121,mdp,2024.2.1,Win32,144.9275362,66fa4ebf79326e780c390304,,,,,,,,,,,,,,,,,,,,,923.644,923.644,923.6443,924.3451,0,0,left,0.1876,,924.3455,925.262,0,0,left,925.2624,925.901,1,1,right,0,925.901,925.901,925.9014,927.4012,0,33,33,33,1,0.8,0.2,0.2,0.8,,,,,,,,,,,,,,,0.4143,,0.8,0.2,0.8,0.2,0.4,0.6,0.6,0.4,,,0.1321,,0.4,0.6,0.2,0.8,0.8,0.2,0.8,0.2,1,0
,,5faacca24cd0384c1fa08be1,66fc97e542b801f3398f55ea,2024-10-02_02h47.35.121,mdp,2024.2.1,Win32,144.9275362,66fa4ebf79326e780c390304,,,,,,,,,,,,,,,,,,,,,927.4013,927.4013,927.4017,927.9359,1,1,right,0.0236,,927.9364,928.4638,1,0,right,928.4642,929.1097,0,0,left,1,929.1097,929.1097,929.1101,930.6098,0,34,34,34,1,0.8,0.2,0.2,0.8,,,,,,,,,,,,,,,0.0132,,0.8,0.2,0.8,0.2,0.4,0.6,0.6,0.4,,,0.1391,,0.4,0.6,0.2,0.8,0.8,0.2,0.8,0.2,1,0
,,5faacca24cd0384c1fa08be1,66fc97e542b801f3398f55ea,2024-10-02_02h47.35.121,mdp,2024.2.1,Win32,144.9275362,66fa4ebf79326e780c390304,,,,,,,,,,,,,,,,,,,,,930.61,930.61,930.6103,931.214,1,1,right,0.0924,,931.2145,931.7211,1,0,right,931.7214,932.2836,0,0,left,1,932.2837,932.2837,932.2841,933.7838,0,35,35,35,1,0.8,0.2,0.2,0.8,,,,,,,,,,,,,,,0.0041,,0.8,0.2,0.8,0.2,0.4,0.6,0.6,0.4,,,0.0512,,0.4,0.6,0.2,0.8,0.8,0.2,0.8,0.2,1,0
,,5faacca24cd0384c1fa08be1,66fc97e542b801f3398f55ea,2024-10-02_02h47.35.121,mdp,2024.2.1,Win32,144.9275362,66fa4ebf79326e780c390304,,,,,,,,,,,,,,,,,,,,,933.784,933.784,933.7843,934.3325,1,1,right,0.0357,,934.3329,934.8464,1,1,right,934.8468,935.3882,0,1,left,0,935.3882,935.3882,935.3886,936.8883,0,36,36,36,1,0.8,0.2,0.2,0.8,,,,,,,,,,,,,,,0.0042,,0.8,0.2,0.8,0.2,0.4,0.6,0.6,0.4,,,0.0372,,0.8,0.2,0.4,0.6,0.8,0.2,0.8,0.2,1,0
,,5faacca24cd0384c1fa08be1,66fc97e542b801f3398f55ea,2024-10-02_02h47.35.121,mdp,2024.2.1,Win32,144.9275362,66fa4ebf79326e780c390304,,,,,,,,,,,,,,,,,,,,,936.8886,936.8886,936.8888,937.4996,1,1,right,0.0975,,937.5,938.0412,1,0,right,938.0417,938.6386,1,0,right,1,938.6386,938.6386,938.6389,940.1386,0,37,37,37,1,0.8,0.2,0.2,0.8,,,,,,,,,,,,,,,0.0314,,0.8,0.2,0.8,0.2,0.4,0.6,0.6,0.4,,,0.0827,,0.8,0.2,0.4,0.6,0.8,0.2,0.8,0.2,1,0
,,5faacca24cd0384c1fa08be1,66fc97e542b801f3398f55ea,2024-10-02_02h47.35.121,mdp,2024.2.1,Win32,144.9275362,66fa4ebf79326e780c390304,,,,,,,,,,,,,,,,,,,,,940.1389,940.1389,940.1392,940.7985,1,1,right,0.1485,,940.7989,941.3819,1,0,right,941.3823,941.9792,1,0,right,1,941.9792,941.9792,941.9796,943.4792,0,38,38,38,1,0.8,0.2,0.2,0.8,,,,,,,,,,,,,,,0.0808,,0.8,0.2,0.8,0.2,0.4,0.6,0.6,0.4,,,0.0835,,0.8,0.2,0.4,0.6,0.8,0.2,0.8,0.2,1,0
,,5faacca24cd0384c1fa08be1,66fc97e542b801f3398f55ea,2024-10-02_02h47.35.121,mdp,2024.2.1,Win32,144.9275362,66fa4ebf79326e780c390304,,,,,,,,,,,,,,,,,,,,,943.4795,943.4795,943.4799,946.1602,0,0,left,2.1696,,946.1654,946.6879,0,0,left,946.6883,951.2024,0,0,left,1,951.2025,951.2025,951.2076,952.7025,0,39,39,39,1,0.8,0.2,0.2,0.8,,,,,,,,,,,,,,,0.0198,,0.8,0.2,0.8,0.2,0.4,0.6,0.6,0.4,,,4.0082,,0.8,0.2,0.4,0.6,0.8,0.2,0.8,0.2,1,0
,,5faacca24cd0384c1fa08be1,66fc97e542b801f3398f55ea,2024-10-02_02h47.35.121,mdp,2024.2.1,Win32,144.9275362,66fa4ebf79326e780c390304,,,,,,,,,,,,,,,,,,,,,952.7028,952.7028,952.7031,953.6819,1,1,right,0.4702,,953.6823,954.2514,1,1,right,954.2517,954.7931,0,1,left,0,954.7932,954.7932,954.7935,956.2933,0,40,40,40,1,0.8,0.2,0.2,0.8,,,,,,,,,,,,,,,0.066,,0.8,0.2,0.8,0.2,0.4,0.6,0.6,0.4,,,0.0308,,0.8,0.2,0.4,0.6,0.8,0.2,0.8,0.2,1,0
,,5faacca24cd0384c1fa08be1,66fc97e542b801f3398f55ea,2024-10-02_02h47.35.121,mdp,2024.2.1,Win32,144.9275362,66fa4ebf79326e780c390304,,,,,,,,,,,,,,,,,,,,,956.2934,956.2934,956.2938,958.1685,0,0,left,1.3629,,958.169,958.8221,0,0,left,958.8225,959.3561,1,1,right,0,959.3561,959.3561,959.3565,960.8563,0,41,41,41,1,0.8,0.2,0.2,0.8,,,,,,,,,,,,,,,0.1467,,0.8,0.2,0.8,0.2,0.4,0.6,0.6,0.4,,,0.0214,,0.8,0.2,0.4,0.6,0.8,0.2,0.8,0.2,1,0
,,5faacca24cd0384c1fa08be1,66fc97e542b801f3398f55ea,2024-10-02_02h47.35.121,mdp,2024.2.1,Win32,144.9275362,66fa4ebf79326e780c390304,,,,,,,,,,,,,,,,,,,,,960.8564,960.8564,960.8568,962.5648,0,0,left,1.1992,,962.5652,963.1343,0,0,left,963.1347,963.6968,1,1,right,0,963.6969,963.6969,963.6974,965.197,0,42,42,42,1,0.8,0.2,0.2,0.8,,,,,,,,,,,,,,,0.0668,,0.8,0.2,0.8,0.2,0.4,0.6,0.6,0.4,,,0.0557,,0.8,0.2,0.4,0.6,0.2,0.8,0.6,0.4,1,0
,,5faacca24cd0384c1fa08be1,66fc97e542b801f3398f55ea,2024-10-02_02h47.35.121,mdp,2024.2.1,Win32,144.9275362,66fa4ebf79326e780c390304,,,,,,,,,,,,,,,,,,,,,965.1972,965.1972,965.1975,968.7183,1,1,right,3.0083,,968.7234,969.3573,1,0,right,969.3577,970.024,0,0,left,1,970.024,970.024,970.0243,971.5241,0,43,43,43,1,0.8,0.2,0.2,0.8,,,,,,,,,,,,,,,0.1254,,0.8,0.2,0.8,0.2,0.4,0.6,0.6,0.4,,,0.1562,,0.8,0.2,0.4,0.6,0.2,0.8,0.6,0.4,1,0
,,5faacca24cd0384c1fa08be1,66fc97e542b801f3398f55ea,2024-10-02_02h47.35.121,mdp,2024.2.1,Win32,144.9275362,66fa4ebf79326e780c390304,,,,,,,,,,,,,,,,,,,,,971.5244,971.5244,971.5248,972.2117,1,1,right,0.1717,,972.2122,972.8715,1,0,right,972.872,973.5382,1,1,right,0,973.5383,973.5383,973.5387,975.0384,0,44,44,44,1,0.8,0.2,0.2,0.8,,,,,,,,,,,,,,,0.147,,0.8,0.2,0.8,0.2,0.4,0.6,0.6,0.4,,,0.1599,,0.8,0.2,0.4,0.6,0.2,0.8,0.6,0.4,1,0
,,5faacca24cd0384c1fa08be1,66fc97e542b801f3398f55ea,2024-10-02_02h47.35.121,mdp,2024.2.1,Win32,144.9275362,66fa4ebf79326e780c390304,,,,,,,,,,,,,,,,,,,,,975.0387,975.0387,975.039,976.5872,0,0,left,1.0387,,976.5876,977.1081,0,0,left,977.1085,977.6915,0,0,left,1,977.6916,977.6916,977.692,979.1916,0,45,45,45,1,0.8,0.2,0.2,0.8,,,,,,,,,,,,,,,0.0103,,0.8,0.2,0.8,0.2,0.4,0.6,0.6,0.4,,,0.0711,,0.8,0.2,0.4,0.6,0.2,0.8,0.6,0.4,1,0
,,5faacca24cd0384c1fa08be1,66fc97e542b801f3398f55ea,2024-10-02_02h47.35.121,mdp,2024.2.1,Win32,144.9275362,66fa4ebf79326e780c390304,,,,,,,,,,,,,,,,,,,,,979.1919,979.1919,979.1922,979.7959,1,0,right,0.095,,979.7963,980.3446,1,0,right,980.345,980.9557,0,0,left,1,980.9557,980.9557,980.956,982.4559,0,46,46,46,1,0.8,0.2,0.2,0.8,,,,,,,,,,,,,,,0.0467,,0.8,0.2,0.8,0.2,0.4,0.6,0.6,0.4,,,0.107,,0.8,0.2,0.4,0.6,0.2,0.8,0.6,0.4,1,0
,,5faacca24cd0384c1fa08be1,66fc97e542b801f3398f55ea,2024-10-02_02h47.35.121,mdp,2024.2.1,Win32,144.9275362,66fa4ebf79326e780c390304,,,,,,,,,,,,,,,,,,,,,982.4561,982.4561,982.4564,983.0948,1,1,right,0.1279,,983.0953,983.6158,1,1,right,983.6162,984.2479,1,0,right,1,984.2479,984.2479,984.2483,985.7479,0,47,47,47,1,0.8,0.2,0.2,0.8,,,,,,,,,,,,,,,0.0161,,0.8,0.2,0.8,0.2,0.4,0.6,0.6,0.4,,,0.1245,,0.8,0.2,0.4,0.6,0.2,0.8,0.6,0.4,1,0
,,5faacca24cd0384c1fa08be1,66fc97e542b801f3398f55ea,2024-10-02_02h47.35.121,mdp,2024.2.1,Win32,144.9275362,66fa4ebf79326e780c390304,,,,,,,,,,,,,,,,,,,,,985.7481,985.7481,985.7485,987.0398,1,0,right,0.7813,,987.0402,987.6718,1,0,right,987.6722,988.1927,0,0,left,1,988.1927,988.1927,988.1931,989.6928,0,48,48,48,1,0.8,0.2,0.2,0.8,,,,,,,,,,,,,,,0.1285,,0.8,0.2,0.8,0.2,0.4,0.6,0.6,0.4,,,0.0152,,0.8,0.2,0.4,0.6,0.2,0.8,0.6,0.4,1,0
,,5faacca24cd0384c1fa08be1,66fc97e542b801f3398f55ea,2024-10-02_02h47.35.121,mdp,2024.2.1,Win32,144.9275362,66fa4ebf79326e780c390304,,,,,,,,,,,,,,,,,,,,,989.693,989.693,989.6934,990.4638,0,0,left,0.2617,,990.4643,990.9914,0,0,left,990.9919,991.6582,1,1,right,0,991.6583,991.6583,991.6586,993.1585,0,49,49,49,1,0.8,0.2,0.2,0.8,,,,,,,,,,,,,,,0.0227,,0.8,0.2,0.8,0.2,0.4,0.6,0.6,0.4,,,0.1598,,0.8,0.2,0.4,0.6,0.2,0.8,0.6,0.4,1,0
,,5faacca24cd0384c1fa08be1,66fc97e542b801f3398f55ea,2024-10-02_02h47.35.121,mdp,2024.2.1,Win32,144.9275362,66fa4ebf79326e780c390304,,,,,,,,,,,,,,,,,,,,,,,,,,,,,,,,,,,,,,,,,,,,,,,,,,,,,,,,993.1587,1051.6651,0,3,3,7,1,imgs/goat.png,imgs/cat.png,imgs/elephant.png,imgs/dog.png,imgs/kangaroo.png,,,,,,,,,,,,,,,,,,,,,,,,
,,5faacca24cd0384c1fa08be1,66fc97e542b801f3398f55ea,2024-10-02_02h47.35.121,mdp,2024.2.1,Win32,144.9275362,66fa4ebf79326e780c390304,,,,,,,,,,,,,,1,seqs/st1seq7.csv,1051.6704,1054.0126,space,1.834,,1054.0144,1054.0144,1054.0146,1054.9501,0,0,left,0.4251,,1054.9506,1054.9508,0,1,,1054.951,1054.9511,1,1,,1,1054.9511,1054.9511,1054.9513,1056.4504,0,0,0,0,1,0.2,0.8,0.8,0.2,1,0,,,,,,,,,,,,,,,,,,,,,,,,,,,,,,,,,,,,
,,5faacca24cd0384c1fa08be1,66fc97e542b801f3398f55ea,2024-10-02_02h47.35.121,mdp,2024.2.1,Win32,144.9275362,66fa4ebf79326e780c390304,,,,,,,,,,,,,,,,,,,,,1056.4506,1056.4506,1056.4508,1057.0129,1,0,right,0.0487,,1057.0133,1057.0136,0,0,,1057.0138,1057.0138,1,0,,1,1057.0138,1057.0138,1057.014,1058.5131,0,1,1,1,1,0.2,0.8,0.8,0.2,1,0,,,,,,,,,,,,,,,,,,,,,,,,,,,,,,,,,,,,
,,5faacca24cd0384c1fa08be1,66fc97e542b801f3398f55ea,2024-10-02_02h47.35.121,mdp,2024.2.1,Win32,144.9275362,66fa4ebf79326e780c390304,,,,,,,,,,,,,,,,,,,,,1058.5132,1058.5132,1058.5136,1059.2492,1,0,right,0.2243,,1059.2497,1059.2499,0,1,,1059.2501,1059.2502,1,0,,1,1059.2503,1059.2503,1059.2504,1060.7494,0,2,2,2,1,0.2,0.8,0.8,0.2,1,0,,,,,,,,,,,,,,,,,,,,,,,,,,,,,,,,,,,,
,,5faacca24cd0384c1fa08be1,66fc97e542b801f3398f55ea,2024-10-02_02h47.35.121,mdp,2024.2.1,Win32,144.9275362,66fa4ebf79326e780c390304,,,,,,,,,,,,,,,,,,,,,1060.7495,1060.7495,1060.75,1061.3398,1,0,right,0.0779,,1061.3402,1061.3405,0,0,,1061.3406,1061.3408,1,0,,1,1061.3408,1061.3408,1061.3409,1062.84,0,3,3,3,1,0.2,0.8,0.8,0.2,1,0,,,,,,,,,,,,,,,,,,,,,,,,,,,,,,,,,,,,
,,5faacca24cd0384c1fa08be1,66fc97e542b801f3398f55ea,2024-10-02_02h47.35.121,mdp,2024.2.1,Win32,144.9275362,66fa4ebf79326e780c390304,,,,,,,,,,,,,,,,,,,,,1062.8401,1062.8401,1062.8405,1063.5275,1,0,right,0.1739,,1063.5279,1063.5282,0,0,,1063.5284,1063.5285,1,0,,1,1063.5285,1063.5285,1063.5287,1065.0276,0,4,4,4,1,0.2,0.8,0.8,0.2,1,0,,,,,,,,,,,,,,,,,,,,,,,,,,,,,,,,,,,,
,,5faacca24cd0384c1fa08be1,66fc97e542b801f3398f55ea,2024-10-02_02h47.35.121,mdp,2024.2.1,Win32,144.9275362,66fa4ebf79326e780c390304,,,,,,,,,,,,,,,,,,,,,1065.0278,1065.0278,1065.0282,1065.5416,1,1,right,0.0041,,1065.542,1065.5423,0,1,,1065.5424,1065.5426,1,1,,0,1065.5426,1065.5426,1065.5427,1067.0418,0,5,5,5,1,0.6,0.4,0.2,0.8,1,0,,,,,,,,,,,,,,,,,,,,,,,,,,,,,,,,,,,,
,,5faacca24cd0384c1fa08be1,66fc97e542b801f3398f55ea,2024-10-02_02h47.35.121,mdp,2024.2.1,Win32,144.9275362,66fa4ebf79326e780c390304,,,,,,,,,,,,,,,,,,,,,1067.0419,1067.0419,1067.0423,1067.5764,1,1,right,0.0233,,1067.5768,1067.577,0,1,,1067.5773,1067.5774,1,1,,0,1067.5774,1067.5774,1067.5776,1069.0767,0,6,6,6,1,0.6,0.4,0.2,0.8,1,0,,,,,,,,,,,,,,,,,,,,,,,,,,,,,,,,,,,,
,,5faacca24cd0384c1fa08be1,66fc97e542b801f3398f55ea,2024-10-02_02h47.35.121,mdp,2024.2.1,Win32,144.9275362,66fa4ebf79326e780c390304,,,,,,,,,,,,,,,,,,,,,1069.077,1069.077,1069.0773,1069.6463,0,0,left,0.0558,,1069.6467,1069.6469,0,0,,1069.6472,1069.6475,1,1,,1,1069.6475,1069.6475,1069.6477,1071.1464,0,7,7,7,1,0.6,0.4,0.2,0.8,1,0,,,,,,,,,,,,,,,,,,,,,,,,,,,,,,,,,,,,
,,5faacca24cd0384c1fa08be1,66fc97e542b801f3398f55ea,2024-10-02_02h47.35.121,mdp,2024.2.1,Win32,144.9275362,66fa4ebf79326e780c390304,,,,,,,,,,,,,,,,,,,,,1071.1465,1071.1465,1071.1469,1071.8965,1,1,right,0.2401,,1071.8969,1071.8971,0,0,,1071.8973,1071.8974,1,1,,0,1071.8974,1071.8974,1071.8976,1073.3967,0,8,8,8,1,0.6,0.4,0.2,0.8,1,0,,,,,,,,,,,,,,,,,,,,,,,,,,,,,,,,,,,,
,,5faacca24cd0384c1fa08be1,66fc97e542b801f3398f55ea,2024-10-02_02h47.35.121,mdp,2024.2.1,Win32,144.9275362,66fa4ebf79326e780c390304,,,,,,,,,,,,,,,,,,,,,1073.3968,1073.3968,1073.3972,1074.1606,1,1,right,0.2533,,1074.161,1074.1613,0,0,,1074.1616,1074.1617,1,1,,0,1074.1617,1074.1617,1074.1618,1075.6608,0,9,9,9,1,0.6,0.4,0.2,0.8,1,0,,,,,,,,,,,,,,,,,,,,,,,,,,,,,,,,,,,,
,,5faacca24cd0384c1fa08be1,66fc97e542b801f3398f55ea,2024-10-02_02h47.35.121,mdp,2024.2.1,Win32,144.9275362,66fa4ebf79326e780c390304,,,,,,,,,,,,,,,,,,,,,1075.661,1075.661,1075.6613,1076.2512,0,0,left,0.0765,,1076.2516,1076.2518,0,1,,1076.252,1076.2521,1,1,,1,1076.2521,1076.2521,1076.2523,1077.7513,0,10,10,10,1,0.4,0.6,0.8,0.2,1,0,,,,,,,,,,,,,,,,,,,,,,,,,,,,,,,,,,,,
,,5faacca24cd0384c1fa08be1,66fc97e542b801f3398f55ea,2024-10-02_02h47.35.121,mdp,2024.2.1,Win32,144.9275362,66fa4ebf79326e780c390304,,,,,,,,,,,,,,,,,,,,,1077.7515,1077.7515,1077.7518,1078.5223,1,1,right,0.2591,,1078.5227,1078.523,0,0,,1078.5232,1078.5233,1,0,,0,1078.5233,1078.5233,1078.5235,1080.0224,0,11,11,11,1,0.4,0.6,0.8,0.2,1,0,,,,,,,,,,,,,,,,,,,,,,,,,,,,,,,,,,,,
,,5faacca24cd0384c1fa08be1,66fc97e542b801f3398f55ea,2024-10-02_02h47.35.121,mdp,2024.2.1,Win32,144.9275362,66fa4ebf79326e780c390304,,,,,,,,,,,,,,,,,,,,,1080.0225,1080.0226,1080.0229,1080.6476,1,0,right,0.1161,,1080.648,1080.6482,0,0,,1080.6484,1080.6485,1,0,,1,1080.6485,1080.6485,1080.6487,1082.1476,0,12,12,12,1,0.4,0.6,0.8,0.2,1,0,,,,,,,,,,,,,,,,,,,,,,,,,,,,,,,,,,,,
,,5faacca24cd0384c1fa08be1,66fc97e542b801f3398f55ea,2024-10-02_02h47.35.121,mdp,2024.2.1,Win32,144.9275362,66fa4ebf79326e780c390304,,,,,,,,,,,,,,,,,,,,,1082.1478,1082.1478,1082.1482,1082.8144,1,0,right,0.154,,1082.8148,1082.815,0,0,,1082.8153,1082.8154,1,1,,1,1082.8154,1082.8154,1082.8156,1084.3145,0,13,13,13,1,0.4,0.6,0.8,0.2,1,0,,,,,,,,,,,,,,,,,,,,,,,,,,,,,,,,,,,,
,,5faacca24cd0384c1fa08be1,66fc97e542b801f3398f55ea,2024-10-02_02h47.35.121,mdp,2024.2.1,Win32,144.9275362,66fa4ebf79326e780c390304,,,,,,,,,,,,,,,,,,,,,1084.3147,1084.3147,1084.315,1084.9466,1,1,right,0.1194,,1084.9469,1084.9472,0,0,,1084.9473,1084.9475,1,0,,0,1084.9476,1084.9476,1084.9477,1086.4468,0,14,14,14,1,0.4,0.6,0.8,0.2,1,0,,,,,,,,,,,,,,,,,,,,,,,,,,,,,,,,,,,,
,,5faacca24cd0384c1fa08be1,66fc97e542b801f3398f55ea,2024-10-02_02h47.35.121,mdp,2024.2.1,Win32,144.9275362,66fa4ebf79326e780c390304,,,,,,,,,,,,,,,,,,,,,1086.447,1086.447,1086.4472,1087.0857,0,0,left,0.1274,,1087.0862,1087.0864,0,1,,1087.0866,1087.0868,1,1,,1,1087.0868,1087.0868,1087.087,1088.5858,0,15,15,15,1,0.4,0.6,0.8,0.2,1,0,,,,,,,,,,,,,,,,,,,,,,,,,,,,,,,,,,,,
,,5faacca24cd0384c1fa08be1,66fc97e542b801f3398f55ea,2024-10-02_02h47.35.121,mdp,2024.2.1,Win32,144.9275362,66fa4ebf79326e780c390304,,,,,,,,,,,,,,,,,,,,,1088.586,1088.586,1088.5864,1091.0514,0,1,left,1.9519,,1091.0518,1091.0521,0,1,,1091.0523,1091.0525,1,0,,0,1091.0525,1091.0525,1091.0526,1092.5516,0,16,16,16,1,0.4,0.6,0.8,0.2,1,0,,,,,,,,,,,,,,,,,,,,,,,,,,,,,,,,,,,,
,,5faacca24cd0384c1fa08be1,66fc97e542b801f3398f55ea,2024-10-02_02h47.35.121,mdp,2024.2.1,Win32,144.9275362,66fa4ebf79326e780c390304,,,,,,,,,,,,,,,,,,,,,1092.5517,1092.5517,1092.5522,1093.7184,1,0,right,0.6534,,1093.7188,1093.719,0,0,,1093.7193,1093.7194,1,1,,1,1093.7194,1093.7194,1093.7195,1095.2186,0,17,17,17,1,0.4,0.6,0.8,0.2,1,0,,,,,,,,,,,,,,,,,,,,,,,,,,,,,,,,,,,,
,,5faacca24cd0384c1fa08be1,66fc97e542b801f3398f55ea,2024-10-02_02h47.35.121,mdp,2024.2.1,Win32,144.9275362,66fa4ebf79326e780c390304,,,,,,,,,,,,,,,,,,,,,1095.2188,1095.2188,1095.2191,1095.8437,0,1,left,0.1148,,1095.8441,1095.8443,0,0,,1095.8445,1095.8446,1,1,,0,1095.8446,1095.8446,1095.8448,1097.3438,0,18,18,18,1,0.4,0.6,0.8,0.2,1,0,,,,,,,,,,,,,,,,,,,,,,,,,,,,,,,,,,,,
,,5faacca24cd0384c1fa08be1,66fc97e542b801f3398f55ea,2024-10-02_02h47.35.121,mdp,2024.2.1,Win32,144.9275362,66fa4ebf79326e780c390304,,,,,,,,,,,,,,,,,,,,,1097.3439,1097.3439,1097.3443,1098.9759,0,1,left,1.1187,,1098.9764,1098.9766,0,0,,1098.9768,1098.9769,1,0,,0,1098.9769,1098.9769,1098.9771,1100.4761,0,19,19,19,1,0.6,0.4,0.2,0.8,1,0,,,,,,,,,,,,,,,,,,,,,,,,,,,,,,,,,,,,
,,5faacca24cd0384c1fa08be1,66fc97e542b801f3398f55ea,2024-10-02_02h47.35.121,mdp,2024.2.1,Win32,144.9275362,66fa4ebf79326e780c390304,,,,,,,,,,,,,,,,,,,,,1100.4762,1100.4762,1100.4765,1103.3931,0,1,left,2.4012,,1103.3935,1103.3938,0,1,,1103.3941,1103.3944,1,0,,0,1103.3944,1103.3944,1103.3946,1104.8933,0,20,20,20,1,0.8,0.2,0.4,0.6,1,0,,,,,,,,,,,,,,,,,,,,,,,,,,,,,,,,,,,,
,,5faacca24cd0384c1fa08be1,66fc97e542b801f3398f55ea,2024-10-02_02h47.35.121,mdp,2024.2.1,Win32,144.9275362,66fa4ebf79326e780c390304,,,,,,,,,,,,,,,,,,,,,1104.8934,1104.8934,1104.8938,1110.2272,0,1,left,4.8226,,1110.2323,1110.2326,0,1,,1110.2328,1110.2329,1,1,,0,1110.2329,1110.2329,1110.2332,1111.7343,0,21,21,21,1,0.8,0.2,0.4,0.6,1,0,,,,,,,,,,,,,,,,,,,,,,,,,,,,,,,,,,,,
,,5faacca24cd0384c1fa08be1,66fc97e542b801f3398f55ea,2024-10-02_02h47.35.121,mdp,2024.2.1,Win32,144.9275362,66fa4ebf79326e780c390304,,,,,,,,,,,,,,,,,,,,,1111.7344,1111.7345,1111.7348,1112.2898,1,0,right,0.0456,,1112.2902,1112.2904,0,0,,1112.2906,1112.2907,1,0,,1,1112.2907,1112.2907,1112.2908,1113.7901,0,22,22,22,1,0.4,0.6,0.8,0.2,1,0,,,,,,,,,,,,,,,,,,,,,,,,,,,,,,,,,,,,
,,5faacca24cd0384c1fa08be1,66fc97e542b801f3398f55ea,2024-10-02_02h47.35.121,mdp,2024.2.1,Win32,144.9275362,66fa4ebf79326e780c390304,,,,,,,,,,,,,,,,,,,,,1113.7902,1113.7902,1113.7905,1114.554,1,0,right,0.2532,,1114.5544,1114.5547,0,0,,1114.5549,1114.5549,1,0,,1,1114.5549,1114.5549,1114.5552,1116.0542,0,23,23,23,1,0.4,0.6,0.8,0.2,1,0,,,,,,,,,,,,,,,,,,,,,,,,,,,,,,,,,,,,
,,5faacca24cd0384c1fa08be1,66fc97e542b801f3398f55ea,2024-10-02_02h47.35.121,mdp,2024.2.1,Win32,144.9275362,66fa4ebf79326e780c390304,,,,,,,,,,,,,,,,,,,,,1116.0544,1116.0544,1116.0547,1117.1377,0,1,left,0.5697,,1117.1382,1117.1384,0,1,,1117.1386,1117.1387,1,0,,0,1117.1387,1117.1387,1117.1389,1118.6379,0,24,24,24,1,0.4,0.6,0.8,0.2,1,0,,,,,,,,,,,,,,,,,,,,,,,,,,,,,,,,,,,,
,,5faacca24cd0384c1fa08be1,66fc97e542b801f3398f55ea,2024-10-02_02h47.35.121,mdp,2024.2.1,Win32,144.9275362,66fa4ebf79326e780c390304,,,,,,,,,,,,,,,,,,,,,1118.638,1118.638,1118.6383,1119.5476,1,0,right,0.3962,,1119.5481,1119.5483,0,1,,1119.5485,1119.5486,1,0,,1,1119.5486,1119.5486,1119.5488,1121.0478,0,25,25,25,1,0.4,0.6,0.8,0.2,1,0,,,,,,,,,,,,,,,,,,,,,,,,,,,,,,,,,,,,
,,5faacca24cd0384c1fa08be1,66fc97e542b801f3398f55ea,2024-10-02_02h47.35.121,mdp,2024.2.1,Win32,144.9275362,66fa4ebf79326e780c390304,,,,,,,,,,,,,,,,,,,,,1121.048,1121.048,1121.0483,1121.9438,1,0,right,0.3841,,1121.9441,1121.9444,0,0,,1121.9447,1121.9449,1,0,,1,1121.9449,1121.9449,1121.945,1123.4439,0,26,26,26,1,0.4,0.6,0.8,0.2,1,0,,,,,,,,,,,,,,,,,,,,,,,,,,,,,,,,,,,,
,,5faacca24cd0384c1fa08be1,66fc97e542b801f3398f55ea,2024-10-02_02h47.35.121,mdp,2024.2.1,Win32,144.9275362,66fa4ebf79326e780c390304,,,,,,,,,,,,,,,,,,,,,1123.4441,1123.4441,1123.4444,1123.9996,0,1,left,0.0422,,1124,1124.0003,0,1,,1124.0005,1124.0007,1,1,,0,1124.0007,1124.0007,1124.0009,1125.4997,0,27,27,27,1,0.4,0.6,0.8,0.2,1,0,,,,,,,,,,,,,,,,,,,,,,,,,,,,,,,,,,,,
,,5faacca24cd0384c1fa08be1,66fc97e542b801f3398f55ea,2024-10-02_02h47.35.121,mdp,2024.2.1,Win32,144.9275362,66fa4ebf79326e780c390304,,,,,,,,,,,,,,,,,,,,,1125.4999,1125.4999,1125.5003,1126.1873,1,0,right,0.1738,,1126.1876,1126.1879,0,0,,1126.1881,1126.1884,1,0,,1,1126.1884,1126.1884,1126.1886,1127.6874,0,28,28,28,1,0.4,0.6,0.8,0.2,1,0,,,,,,,,,,,,,,,,,,,,,,,,,,,,,,,,,,,,
,,5faacca24cd0384c1fa08be1,66fc97e542b801f3398f55ea,2024-10-02_02h47.35.121,mdp,2024.2.1,Win32,144.9275362,66fa4ebf79326e780c390304,,,,,,,,,,,,,,,,,,,,,1127.6876,1127.6876,1127.688,1128.389,0,1,left,0.1902,,1128.3894,1128.3897,0,0,,1128.3899,1128.39,1,1,,0,1128.3901,1128.3901,1128.3902,1129.8891,0,29,29,29,1,0.4,0.6,0.8,0.2,1,0,,,,,,,,,,,,,,,,,,,,,,,,,,,,,,,,,,,,
,,5faacca24cd0384c1fa08be1,66fc97e542b801f3398f55ea,2024-10-02_02h47.35.121,mdp,2024.2.1,Win32,144.9275362,66fa4ebf79326e780c390304,,,,,,,,,,,,,,,,,,,,,1129.8892,1129.8892,1129.8896,1130.8962,1,0,right,0.4941,,1130.8966,1130.8968,0,1,,1130.8971,1130.8972,1,1,,1,1130.8972,1130.8972,1130.8974,1132.3963,0,30,30,30,1,0.8,0.2,0.6,0.4,1,0,,,,,,,,,,,,,,,,,,,,,,,,,,,,,,,,,,,,
,,5faacca24cd0384c1fa08be1,66fc97e542b801f3398f55ea,2024-10-02_02h47.35.121,mdp,2024.2.1,Win32,144.9275362,66fa4ebf79326e780c390304,,,,,,,,,,,,,,,,,,,,,1132.3965,1132.3965,1132.3969,1136.5982,1,1,right,3.6893,,1136.6034,1136.6036,0,1,,1136.6038,1136.604,1,0,,0,1136.604,1136.604,1136.6043,1138.1053,0,31,31,31,1,0.6,0.4,0.4,0.6,1,0,,,,,,,,,,,,,,,,,,,,,,,,,,,,,,,,,,,,
,,5faacca24cd0384c1fa08be1,66fc97e542b801f3398f55ea,2024-10-02_02h47.35.121,mdp,2024.2.1,Win32,144.9275362,66fa4ebf79326e780c390304,,,,,,,,,,,,,,,,,,,,,1138.1055,1138.1055,1138.1058,1138.7791,0,0,left,0.1645,,1138.7795,1138.7798,0,0,,1138.78,1138.7801,1,0,,1,1138.7801,1138.7801,1138.7803,1140.2792,0,32,32,32,1,0.6,0.4,0.4,0.6,1,0,,,,,,,,,,,,,,,,,,,,,,,,,,,,,,,,,,,,
,,5faacca24cd0384c1fa08be1,66fc97e542b801f3398f55ea,2024-10-02_02h47.35.121,mdp,2024.2.1,Win32,144.9275362,66fa4ebf79326e780c390304,,,,,,,,,,,,,,,,,,,,,1140.2794,1140.2794,1140.2797,1140.8902,0,0,left,0.1019,,1140.8906,1140.8908,0,1,,1140.891,1140.8911,1,1,,1,1140.8912,1140.8912,1140.8912,1142.3905,0,33,33,33,1,0.6,0.4,0.4,0.6,1,0,,,,,,,,,,,,,,,,,,,,,,,,,,,,,,,,,,,,
,,5faacca24cd0384c1fa08be1,66fc97e542b801f3398f55ea,2024-10-02_02h47.35.121,mdp,2024.2.1,Win32,144.9275362,66fa4ebf79326e780c390304,,,,,,,,,,,,,,,,,,,,,1142.3907,1142.3907,1142.391,1142.9324,1,1,right,0.0329,,1142.9327,1142.9329,0,1,,1142.9331,1142.9332,1,0,,0,1142.9333,1142.9333,1142.9334,1144.4324,0,34,34,34,1,0.6,0.4,0.4,0.6,1,0,,,,,,,,,,,,,,,,,,,,,,,,,,,,,,,,,,,,
,,5faacca24cd0384c1fa08be1,66fc97e542b801f3398f55ea,2024-10-02_02h47.35.121,mdp,2024.2.1,Win32,144.9275362,66fa4ebf79326e780c390304,,,,,,,,,,,,,,,,,,,,,1144.4326,1144.4326,1144.4329,1145.0852,0,0,left,0.1421,,1145.0856,1145.0858,0,0,,1145.086,1145.0861,1,0,,1,1145.0861,1145.0861,1145.0863,1146.5855,0,35,35,35,1,0.6,0.4,0.4,0.6,1,0,,,,,,,,,,,,,,,,,,,,,,,,,,,,,,,,,,,,
,,5faacca24cd0384c1fa08be1,66fc97e542b801f3398f55ea,2024-10-02_02h47.35.121,mdp,2024.2.1,Win32,144.9275362,66fa4ebf79326e780c390304,,,,,,,,,,,,,,,,,,,,,1146.5857,1146.5857,1146.586,1147.0992,0,0,left,0.0003,,1147.0996,1147.0999,0,0,,1147.1,1147.1002,1,0,,1,1147.1002,1147.1002,1147.1004,1148.5995,0,36,36,36,1,0.6,0.4,0.4,0.6,1,0,,,,,,,,,,,,,,,,,,,,,,,,,,,,,,,,,,,,
,,5faacca24cd0384c1fa08be1,66fc97e542b801f3398f55ea,2024-10-02_02h47.35.121,mdp,2024.2.1,Win32,144.9275362,66fa4ebf79326e780c390304,,,,,,,,,,,,,,,,,,,,,1148.5997,1148.5997,1148.6003,1149.1413,0,1,left,0.0294,,1149.1417,1149.1419,0,0,,1149.1422,1149.1422,1,0,,0,1149.1423,1149.1423,1149.1424,1150.6414,0,37,37,37,1,0.6,0.4,0.4,0.6,1,0,,,,,,,,,,,,,,,,,,,,,,,,,,,,,,,,,,,,
,,5faacca24cd0384c1fa08be1,66fc97e542b801f3398f55ea,2024-10-02_02h47.35.121,mdp,2024.2.1,Win32,144.9275362,66fa4ebf79326e780c390304,,,,,,,,,,,,,,,,,,,,,1150.6416,1150.6416,1150.6419,1151.3429,0,0,left,0.1876,,1151.3433,1151.3435,0,0,,1151.3437,1151.3438,1,0,,1,1151.3438,1151.3439,1151.344,1152.843,0,38,38,38,1,0.6,0.4,0.4,0.6,1,0,,,,,,,,,,,,,,,,,,,,,,,,,,,,,,,,,,,,
,,5faacca24cd0384c1fa08be1,66fc97e542b801f3398f55ea,2024-10-02_02h47.35.121,mdp,2024.2.1,Win32,144.9275362,66fa4ebf79326e780c390304,,,,,,,,,,,,,,,,,,,,,1152.8432,1152.8432,1152.8436,1153.489,0,0,left,0.1321,,1153.4894,1153.4896,0,1,,1153.4898,1153.4899,1,0,,1,1153.4899,1153.4899,1153.4901,1154.9891,0,39,39,39,1,0.6,0.4,0.4,0.6,1,0,,,,,,,,,,,,,,,,,,,,,,,,,,,,,,,,,,,,
,,5faacca24cd0384c1fa08be1,66fc97e542b801f3398f55ea,2024-10-02_02h47.35.121,mdp,2024.2.1,Win32,144.9275362,66fa4ebf79326e780c390304,,,,,,,,,,,,,,,,,,,,,1154.9892,1154.9892,1154.9896,1155.5934,1,1,right,0.0973,,1155.5938,1155.594,0,1,,1155.5942,1155.5944,1,1,,0,1155.5944,1155.5944,1155.5945,1157.0935,0,40,40,40,1,0.6,0.4,0.4,0.6,1,0,,,,,,,,,,,,,,,,,,,,,,,,,,,,,,,,,,,,
,,5faacca24cd0384c1fa08be1,66fc97e542b801f3398f55ea,2024-10-02_02h47.35.121,mdp,2024.2.1,Win32,144.9275362,66fa4ebf79326e780c390304,,,,,,,,,,,,,,,,,,,,,1157.0937,1157.0937,1157.0941,1157.802,1,0,right,0.1993,,1157.8024,1157.8026,0,0,,1157.8028,1157.8029,1,1,,1,1157.8029,1157.8029,1157.8031,1159.3021,0,41,41,41,1,0.6,0.4,0.4,0.6,1,0,,,,,,,,,,,,,,,,,,,,,,,,,,,,,,,,,,,,
