init_exp.started,init_exp.stopped,participant,session,date,expName,psychopyVersion,OS,frameRate,study_id,disp_instruction.started,disp_instruction.stopped,instruction.thisRepN,instruction.thisTrialN,instruction.thisN,instruction.thisIndex,instruction.ran,instimg_path,consent.started,consent.stopped,key_resp_3.keys,key_resp_3.rt,key_resp_3.duration,n_steps,sequence_path,init_block.started,init_block.stopped,key_resp.keys,key_resp.rt,key_resp.duration,init_trials.started,init_trials.stopped,step0.started,step0.stopped,act0,s1,res0.keys,res0.rt,res0.duration,step1.started,step1.stopped,act1,s2,res1.keys,step2.started,step2.stopped,act2,s3,res2.keys,rew,reward_comp.started,reward_comp.stopped,reward_disp.started,reward_disp.stopped,trials.thisRepN,trials.thisTrialN,trials.thisN,trials.thisIndex,trials.ran,s00a0s10,s00a0s11,s00a1s10,s00a1s11,rew10,rew11,break_block.started,break_block.stopped,block.thisRepN,block.thisTrialN,block.thisN,block.thisIndex,block.ran,s00path,s10path,s11path,s20path,s21path,res1.rt,res1.duration,s10a0s20,s10a0s21,s10a1s20,s10a1s21,s11a0s20,s11a0s21,s11a1s20,s11a1s21,rew20,rew21,res2.rt,res2.duration,s20a0s30,s20a0s31,s20a1s30,s20a1s31,s21a0s30,s21a0s31,s21a1s30,s21a1s31,rew30,rew31
0.0002,0.0009,5fbdc4f0784d3f225d8d96d1,66fc98528e542c2d44976e65,2024-10-01_20h58.09.927,mdp,2024.2.1,Win32,59.17159763,66fa4ebf79326e780c390304,,,,,,,,,,,,,,,,,,,,,,,,,,,,,,,,,,,,,,,,,,,,,,,,,,,,,,,,,,,,,,,,,,,,,,,,,,,,,,,,,,,,,,,,,,,
,,5fbdc4f0784d3f225d8d96d1,66fc98528e542c2d44976e65,2024-10-01_20h58.09.927,mdp,2024.2.1,Win32,59.17159763,66fa4ebf79326e780c390304,0.0034,62.4905,0,0,0,0,1,rlnn_exp/rlnn_exp.001.png,,,,,,,,,,,,,,,,,,,,,,,,,,,,,,,,,,,,,,,,,,,,,,,,,,,,,,,,,,,,,,,,,,,,,,,,,,,,,,,,,,,
,,5fbdc4f0784d3f225d8d96d1,66fc98528e542c2d44976e65,2024-10-01_20h58.09.927,mdp,2024.2.1,Win32,59.17159763,66fa4ebf79326e780c390304,62.4909,85.5041,0,1,1,1,1,rlnn_exp/rlnn_exp.002.png,,,,,,,,,,,,,,,,,,,,,,,,,,,,,,,,,,,,,,,,,,,,,,,,,,,,,,,,,,,,,,,,,,,,,,,,,,,,,,,,,,,
,,5fbdc4f0784d3f225d8d96d1,66fc98528e542c2d44976e65,2024-10-01_20h58.09.927,mdp,2024.2.1,Win32,59.17159763,66fa4ebf79326e780c390304,85.5044,106.6961,0,2,2,2,1,rlnn_exp/rlnn_exp.003.png,,,,,,,,,,,,,,,,,,,,,,,,,,,,,,,,,,,,,,,,,,,,,,,,,,,,,,,,,,,,,,,,,,,,,,,,,,,,,,,,,,,
,,5fbdc4f0784d3f225d8d96d1,66fc98528e542c2d44976e65,2024-10-01_20h58.09.927,mdp,2024.2.1,Win32,59.17159763,66fa4ebf79326e780c390304,106.6964,234.6465,0,3,3,3,1,rlnn_exp/rlnn_exp.004.png,,,,,,,,,,,,,,,,,,,,,,,,,,,,,,,,,,,,,,,,,,,,,,,,,,,,,,,,,,,,,,,,,,,,,,,,,,,,,,,,,,,
,,5fbdc4f0784d3f225d8d96d1,66fc98528e542c2d44976e65,2024-10-01_20h58.09.927,mdp,2024.2.1,Win32,59.17159763,66fa4ebf79326e780c390304,,,,,,,,,234.6469,248.1097,y,3.4183,,,,,,,,,,,,,,,,,,,,,,,,,,,,,,,,,,,,,,,,,,,,,,,,,,,,,,,,,,,,,,,,,,,,,,,,,,,,,,,
,,5fbdc4f0784d3f225d8d96d1,66fc98528e542c2d44976e65,2024-10-01_20h58.09.927,mdp,2024.2.1,Win32,59.17159763,66fa4ebf79326e780c390304,,,,,,,,,,,,,,1,seqs/st1seq43.csv,248.1173,251.6115,space,2.9812,,251.6159,251.616,251.6164,252.9423,1,1,right,0.784,,252.943,252.9453,,1,,252.9457,252.9473,,0,,0,252.9474,252.9475,252.9479,254.4412,0,0,0,0,1,0.8,0.2,0.4,0.6,1,0,,,,,,,,,,,,,,,,,,,,,,,,,,,,,,,,,,,,
,,5fbdc4f0784d3f225d8d96d1,66fc98528e542c2d44976e65,2024-10-01_20h58.09.927,mdp,2024.2.1,Win32,59.17159763,66fa4ebf79326e780c390304,,,,,,,,,,,,,,,,,,,,,254.4415,254.4415,254.4422,255.6917,0,0,left,0.7334,,255.6925,255.693,,0,,255.6935,255.6938,,0,,1,255.6938,255.6938,255.6942,257.1937,0,1,1,1,1,0.8,0.2,0.4,0.6,1,0,,,,,,,,,,,,,,,,,,,,,,,,,,,,,,,,,,,,
,,5fbdc4f0784d3f225d8d96d1,66fc98528e542c2d44976e65,2024-10-01_20h58.09.927,mdp,2024.2.1,Win32,59.17159763,66fa4ebf79326e780c390304,,,,,,,,,,,,,,,,,,,,,257.1946,257.1946,257.1968,258.3732,0,0,left,0.6491,,258.3738,258.3743,,0,,258.3747,258.3751,,0,,1,258.3751,258.3751,258.3755,259.8742,0,2,2,2,1,0.8,0.2,0.4,0.6,1,0,,,,,,,,,,,,,,,,,,,,,,,,,,,,,,,,,,,,
,,5fbdc4f0784d3f225d8d96d1,66fc98528e542c2d44976e65,2024-10-01_20h58.09.927,mdp,2024.2.1,Win32,59.17159763,66fa4ebf79326e780c390304,,,,,,,,,,,,,,,,,,,,,259.8744,259.8744,259.8752,260.9564,0,0,left,0.544,,260.9595,260.9604,,0,,260.9614,260.9621,,0,,1,260.9622,260.9622,260.9629,262.456,0,3,3,3,1,0.8,0.2,0.4,0.6,1,0,,,,,,,,,,,,,,,,,,,,,,,,,,,,,,,,,,,,
,,5fbdc4f0784d3f225d8d96d1,66fc98528e542c2d44976e65,2024-10-01_20h58.09.927,mdp,2024.2.1,Win32,59.17159763,66fa4ebf79326e780c390304,,,,,,,,,,,,,,,,,,,,,262.4564,262.4576,262.4595,263.4884,0,0,left,0.5033,,263.4889,263.4892,,0,,263.4895,263.4897,,1,,1,263.4898,263.4898,263.4901,264.9881,0,4,4,4,1,0.8,0.2,0.4,0.6,1,0,,,,,,,,,,,,,,,,,,,,,,,,,,,,,,,,,,,,
,,5fbdc4f0784d3f225d8d96d1,66fc98528e542c2d44976e65,2024-10-01_20h58.09.927,mdp,2024.2.1,Win32,59.17159763,66fa4ebf79326e780c390304,,,,,,,,,,,,,,,,,,,,,264.9883,264.9883,264.9892,265.9884,0,0,left,0.492,,265.9902,265.9914,,0,,265.9923,265.993,,0,,1,265.993,265.9931,265.9937,267.488,0,5,5,5,1,0.8,0.2,0.4,0.6,1,0,,,,,,,,,,,,,,,,,,,,,,,,,,,,,,,,,,,,
,,5fbdc4f0784d3f225d8d96d1,66fc98528e542c2d44976e65,2024-10-01_20h58.09.927,mdp,2024.2.1,Win32,59.17159763,66fa4ebf79326e780c390304,,,,,,,,,,,,,,,,,,,,,267.4886,267.4886,267.4899,268.4732,0,1,left,0.4655,,268.4745,268.4751,,1,,268.4755,268.476,,0,,0,268.4761,268.4761,268.4765,269.9721,0,6,6,6,1,0.8,0.2,0.4,0.6,1,0,,,,,,,,,,,,,,,,,,,,,,,,,,,,,,,,,,,,
,,5fbdc4f0784d3f225d8d96d1,66fc98528e542c2d44976e65,2024-10-01_20h58.09.927,mdp,2024.2.1,Win32,59.17159763,66fa4ebf79326e780c390304,,,,,,,,,,,,,,,,,,,,,269.9726,269.9727,269.9744,270.9205,0,0,left,0.4207,,270.9217,270.9226,,0,,270.9232,270.9236,,0,,1,270.9236,270.9236,270.9241,272.4199,0,7,7,7,1,0.8,0.2,0.4,0.6,1,0,,,,,,,,,,,,,,,,,,,,,,,,,,,,,,,,,,,,
,,5fbdc4f0784d3f225d8d96d1,66fc98528e542c2d44976e65,2024-10-01_20h58.09.927,mdp,2024.2.1,Win32,59.17159763,66fa4ebf79326e780c390304,,,,,,,,,,,,,,,,,,,,,272.4204,272.4205,272.4216,273.3528,0,0,left,0.3968,,273.3543,273.3551,,0,,273.3559,273.3565,,1,,1,273.3566,273.3566,273.3572,274.8528,0,8,8,8,1,0.8,0.2,0.4,0.6,1,0,,,,,,,,,,,,,,,,,,,,,,,,,,,,,,,,,,,,
,,5fbdc4f0784d3f225d8d96d1,66fc98528e542c2d44976e65,2024-10-01_20h58.09.927,mdp,2024.2.1,Win32,59.17159763,66fa4ebf79326e780c390304,,,,,,,,,,,,,,,,,,,,,274.8533,274.8533,274.8565,275.7526,0,0,left,0.3718,,275.7562,275.7571,,1,,275.7581,275.7589,,0,,1,275.759,275.759,275.7598,277.2542,0,9,9,9,1,0.8,0.2,0.4,0.6,1,0,,,,,,,,,,,,,,,,,,,,,,,,,,,,,,,,,,,,
,,5fbdc4f0784d3f225d8d96d1,66fc98528e542c2d44976e65,2024-10-01_20h58.09.927,mdp,2024.2.1,Win32,59.17159763,66fa4ebf79326e780c390304,,,,,,,,,,,,,,,,,,,,,277.2548,277.2548,277.2559,278.235,0,1,left,0.4599,,278.2361,278.2367,,1,,278.2373,278.2377,,0,,0,278.2377,278.2377,278.2383,279.7348,0,10,10,10,1,0.8,0.2,0.4,0.6,1,0,,,,,,,,,,,,,,,,,,,,,,,,,,,,,,,,,,,,
,,5fbdc4f0784d3f225d8d96d1,66fc98528e542c2d44976e65,2024-10-01_20h58.09.927,mdp,2024.2.1,Win32,59.17159763,66fa4ebf79326e780c390304,,,,,,,,,,,,,,,,,,,,,279.7352,279.7352,279.7367,280.6841,0,0,left,0.425,,280.6846,280.6857,,0,,280.6865,280.6867,,0,,1,280.6867,280.6867,280.687,282.1844,0,11,11,11,1,0.8,0.2,0.4,0.6,1,0,,,,,,,,,,,,,,,,,,,,,,,,,,,,,,,,,,,,
,,5fbdc4f0784d3f225d8d96d1,66fc98528e542c2d44976e65,2024-10-01_20h58.09.927,mdp,2024.2.1,Win32,59.17159763,66fa4ebf79326e780c390304,,,,,,,,,,,,,,,,,,,,,282.185,282.185,282.1874,283.167,0,1,left,0.4508,,283.1687,283.1696,,0,,283.1705,283.1712,,0,,0,283.1712,283.1712,283.1719,284.6669,0,12,12,12,1,0.8,0.2,0.4,0.6,1,0,,,,,,,,,,,,,,,,,,,,,,,,,,,,,,,,,,,,
,,5fbdc4f0784d3f225d8d96d1,66fc98528e542c2d44976e65,2024-10-01_20h58.09.927,mdp,2024.2.1,Win32,59.17159763,66fa4ebf79326e780c390304,,,,,,,,,,,,,,,,,,,,,284.6674,284.6674,284.6688,285.6498,0,1,left,0.4531,,285.6507,285.6512,,0,,285.6517,285.6522,,0,,0,285.6522,285.6522,285.6526,287.1499,0,13,13,13,1,0.8,0.2,0.4,0.6,1,0,,,,,,,,,,,,,,,,,,,,,,,,,,,,,,,,,,,,
,,5fbdc4f0784d3f225d8d96d1,66fc98528e542c2d44976e65,2024-10-01_20h58.09.927,mdp,2024.2.1,Win32,59.17159763,66fa4ebf79326e780c390304,,,,,,,,,,,,,,,,,,,,,287.1505,287.1506,287.1523,288.1353,1,1,right,0.4663,,288.1364,288.137,,1,,288.1376,288.1383,,1,,0,288.1384,288.1384,288.139,289.6319,0,14,14,14,1,0.8,0.2,0.4,0.6,1,0,,,,,,,,,,,,,,,,,,,,,,,,,,,,,,,,,,,,
,,5fbdc4f0784d3f225d8d96d1,66fc98528e542c2d44976e65,2024-10-01_20h58.09.927,mdp,2024.2.1,Win32,59.17159763,66fa4ebf79326e780c390304,,,,,,,,,,,,,,,,,,,,,289.6322,289.6322,289.6331,290.632,1,1,right,0.4705,,290.6335,290.6346,,0,,290.6353,290.6357,,1,,0,290.6357,290.6357,290.6363,292.1313,0,15,15,15,1,0.8,0.2,0.4,0.6,1,0,,,,,,,,,,,,,,,,,,,,,,,,,,,,,,,,,,,,
,,5fbdc4f0784d3f225d8d96d1,66fc98528e542c2d44976e65,2024-10-01_20h58.09.927,mdp,2024.2.1,Win32,59.17159763,66fa4ebf79326e780c390304,,,,,,,,,,,,,,,,,,,,,292.1316,292.1316,292.1343,293.0316,0,0,left,0.3686,,293.0328,293.0345,,1,,293.0354,293.0361,,0,,1,293.0362,293.0362,293.0367,294.5311,0,16,16,16,1,0.8,0.2,0.4,0.6,1,0,,,,,,,,,,,,,,,,,,,,,,,,,,,,,,,,,,,,
,,5fbdc4f0784d3f225d8d96d1,66fc98528e542c2d44976e65,2024-10-01_20h58.09.927,mdp,2024.2.1,Win32,59.17159763,66fa4ebf79326e780c390304,,,,,,,,,,,,,,,,,,,,,294.5315,294.5315,294.5326,295.7636,0,0,left,0.702,,295.7644,295.7648,,0,,295.7651,295.7655,,0,,1,295.7655,295.7655,295.7658,297.2635,0,17,17,17,1,0.8,0.2,0.4,0.6,1,0,,,,,,,,,,,,,,,,,,,,,,,,,,,,,,,,,,,,
,,5fbdc4f0784d3f225d8d96d1,66fc98528e542c2d44976e65,2024-10-01_20h58.09.927,mdp,2024.2.1,Win32,59.17159763,66fa4ebf79326e780c390304,,,,,,,,,,,,,,,,,,,,,297.264,297.264,297.2656,298.1303,0,1,left,0.3619,,298.1323,298.1333,,0,,298.1345,298.1353,,0,,0,298.1354,298.1354,298.137,299.6292,0,18,18,18,1,0.8,0.2,0.4,0.6,1,0,,,,,,,,,,,,,,,,,,,,,,,,,,,,,,,,,,,,
,,5fbdc4f0784d3f225d8d96d1,66fc98528e542c2d44976e65,2024-10-01_20h58.09.927,mdp,2024.2.1,Win32,59.17159763,66fa4ebf79326e780c390304,,,,,,,,,,,,,,,,,,,,,299.6293,299.6293,299.6298,300.5458,0,1,left,0.4038,,300.5466,300.5471,,1,,300.5475,300.5479,,1,,0,300.5479,300.5479,300.5482,302.0454,0,19,19,19,1,0.4,0.6,0.6,0.4,1,0,,,,,,,,,,,,,,,,,,,,,,,,,,,,,,,,,,,,
,,5fbdc4f0784d3f225d8d96d1,66fc98528e542c2d44976e65,2024-10-01_20h58.09.927,mdp,2024.2.1,Win32,59.17159763,66fa4ebf79326e780c390304,,,,,,,,,,,,,,,,,,,,,302.0456,302.0456,302.0465,302.8951,0,1,left,0.3209,,302.8959,302.8963,,1,,302.8967,302.897,,1,,0,302.8971,302.8971,302.8974,304.3948,0,20,20,20,1,0.4,0.6,0.6,0.4,1,0,,,,,,,,,,,,,,,,,,,,,,,,,,,,,,,,,,,,
,,5fbdc4f0784d3f225d8d96d1,66fc98528e542c2d44976e65,2024-10-01_20h58.09.927,mdp,2024.2.1,Win32,59.17159763,66fa4ebf79326e780c390304,,,,,,,,,,,,,,,,,,,,,304.395,304.3951,304.3959,305.1282,0,1,left,0.2131,,305.129,305.1295,,1,,305.1303,305.1308,,0,,0,305.1308,305.1309,305.1312,306.6279,0,21,21,21,1,0.4,0.6,0.6,0.4,1,0,,,,,,,,,,,,,,,,,,,,,,,,,,,,,,,,,,,,
,,5fbdc4f0784d3f225d8d96d1,66fc98528e542c2d44976e65,2024-10-01_20h58.09.927,mdp,2024.2.1,Win32,59.17159763,66fa4ebf79326e780c390304,,,,,,,,,,,,,,,,,,,,,306.6284,306.6284,306.6317,307.9605,0,0,left,0.8123,,307.9618,307.9626,,0,,307.9632,307.9637,,0,,1,307.9637,307.9637,307.9643,309.4606,0,22,22,22,1,0.8,0.2,0.2,0.8,1,0,,,,,,,,,,,,,,,,,,,,,,,,,,,,,,,,,,,,
,,5fbdc4f0784d3f225d8d96d1,66fc98528e542c2d44976e65,2024-10-01_20h58.09.927,mdp,2024.2.1,Win32,59.17159763,66fa4ebf79326e780c390304,,,,,,,,,,,,,,,,,,,,,309.461,309.461,309.4625,310.3768,0,0,left,0.3877,,310.3783,310.3791,,0,,310.3797,310.3802,,1,,1,310.3802,310.3802,310.3808,311.8767,0,23,23,23,1,0.8,0.2,0.2,0.8,1,0,,,,,,,,,,,,,,,,,,,,,,,,,,,,,,,,,,,,
,,5fbdc4f0784d3f225d8d96d1,66fc98528e542c2d44976e65,2024-10-01_20h58.09.927,mdp,2024.2.1,Win32,59.17159763,66fa4ebf79326e780c390304,,,,,,,,,,,,,,,,,,,,,311.8785,311.8785,311.8802,312.7595,0,1,left,0.356,,312.7611,312.762,,1,,312.7628,312.7635,,0,,0,312.7636,312.7636,312.7641,314.259,0,24,24,24,1,0.8,0.2,0.2,0.8,1,0,,,,,,,,,,,,,,,,,,,,,,,,,,,,,,,,,,,,
,,5fbdc4f0784d3f225d8d96d1,66fc98528e542c2d44976e65,2024-10-01_20h58.09.927,mdp,2024.2.1,Win32,59.17159763,66fa4ebf79326e780c390304,,,,,,,,,,,,,,,,,,,,,314.2595,314.2595,314.2607,315.4589,0,0,left,0.6767,,315.4601,315.4608,,0,,315.4615,315.4619,,0,,1,315.4619,315.4619,315.4626,316.9587,0,25,25,25,1,0.8,0.2,0.2,0.8,1,0,,,,,,,,,,,,,,,,,,,,,,,,,,,,,,,,,,,,
,,5fbdc4f0784d3f225d8d96d1,66fc98528e542c2d44976e65,2024-10-01_20h58.09.927,mdp,2024.2.1,Win32,59.17159763,66fa4ebf79326e780c390304,,,,,,,,,,,,,,,,,,,,,316.9592,316.9592,316.9606,317.8913,0,0,left,0.4249,,317.8924,317.8933,,0,,317.8939,317.8946,,0,,1,317.8947,317.8947,317.8952,319.3909,0,26,26,26,1,0.8,0.2,0.2,0.8,1,0,,,,,,,,,,,,,,,,,,,,,,,,,,,,,,,,,,,,
,,5fbdc4f0784d3f225d8d96d1,66fc98528e542c2d44976e65,2024-10-01_20h58.09.927,mdp,2024.2.1,Win32,59.17159763,66fa4ebf79326e780c390304,,,,,,,,,,,,,,,,,,,,,319.3911,319.3912,319.3919,320.3241,0,1,left,0.4088,,320.3253,320.3263,,0,,320.3268,320.3273,,0,,0,320.3273,320.3274,320.3279,321.8236,0,27,27,27,1,0.8,0.2,0.2,0.8,1,0,,,,,,,,,,,,,,,,,,,,,,,,,,,,,,,,,,,,
,,5fbdc4f0784d3f225d8d96d1,66fc98528e542c2d44976e65,2024-10-01_20h58.09.927,mdp,2024.2.1,Win32,59.17159763,66fa4ebf79326e780c390304,,,,,,,,,,,,,,,,,,,,,321.824,321.8241,321.8253,322.6568,0,0,left,0.3123,,322.658,322.6587,,0,,322.6595,322.66,,0,,1,322.66,322.66,322.6605,324.156,0,28,28,28,1,0.8,0.2,0.2,0.8,1,0,,,,,,,,,,,,,,,,,,,,,,,,,,,,,,,,,,,,
,,5fbdc4f0784d3f225d8d96d1,66fc98528e542c2d44976e65,2024-10-01_20h58.09.927,mdp,2024.2.1,Win32,59.17159763,66fa4ebf79326e780c390304,,,,,,,,,,,,,,,,,,,,,324.1562,324.1562,324.1567,325.0393,0,1,left,0.3642,,325.0399,325.0403,,0,,325.0408,325.041,,0,,0,325.041,325.041,325.0413,326.539,0,29,29,29,1,0.8,0.2,0.2,0.8,1,0,,,,,,,,,,,,,,,,,,,,,,,,,,,,,,,,,,,,
,,5fbdc4f0784d3f225d8d96d1,66fc98528e542c2d44976e65,2024-10-01_20h58.09.927,mdp,2024.2.1,Win32,59.17159763,66fa4ebf79326e780c390304,,,,,,,,,,,,,,,,,,,,,326.5394,326.5394,326.5404,327.3392,0,1,left,0.277,,327.3404,327.3412,,0,,327.3421,327.3427,,0,,0,327.3427,327.3427,327.3434,328.8388,0,30,30,30,1,0.8,0.2,0.2,0.8,1,0,,,,,,,,,,,,,,,,,,,,,,,,,,,,,,,,,,,,
,,5fbdc4f0784d3f225d8d96d1,66fc98528e542c2d44976e65,2024-10-01_20h58.09.927,mdp,2024.2.1,Win32,59.17159763,66fa4ebf79326e780c390304,,,,,,,,,,,,,,,,,,,,,328.8392,328.8392,328.8417,330.405,1,1,right,1.0328,,330.4065,330.4077,,1,,330.4083,330.4088,,1,,0,330.4088,330.4088,330.4094,331.9042,0,31,31,31,1,0.8,0.2,0.2,0.8,1,0,,,,,,,,,,,,,,,,,,,,,,,,,,,,,,,,,,,,
,,5fbdc4f0784d3f225d8d96d1,66fc98528e542c2d44976e65,2024-10-01_20h58.09.927,mdp,2024.2.1,Win32,59.17159763,66fa4ebf79326e780c390304,,,,,,,,,,,,,,,,,,,,,331.9044,331.9044,331.9049,332.6042,1,1,right,0.1937,,332.6049,332.6053,,1,,332.6055,332.6058,,1,,0,332.6058,332.6058,332.606,334.1041,0,32,32,32,1,0.8,0.2,0.2,0.8,1,0,,,,,,,,,,,,,,,,,,,,,,,,,,,,,,,,,,,,
,,5fbdc4f0784d3f225d8d96d1,66fc98528e542c2d44976e65,2024-10-01_20h58.09.927,mdp,2024.2.1,Win32,59.17159763,66fa4ebf79326e780c390304,,,,,,,,,,,,,,,,,,,,,334.1047,334.1047,334.1057,334.9058,1,0,right,0.282,,334.9065,334.907,,0,,334.9075,334.9078,,0,,1,334.9079,334.9079,334.9083,336.4033,0,33,33,33,1,0.2,0.8,0.8,0.2,1,0,,,,,,,,,,,,,,,,,,,,,,,,,,,,,,,,,,,,
,,5fbdc4f0784d3f225d8d96d1,66fc98528e542c2d44976e65,2024-10-01_20h58.09.927,mdp,2024.2.1,Win32,59.17159763,66fa4ebf79326e780c390304,,,,,,,,,,,,,,,,,,,,,336.4036,336.4036,336.405,337.1031,1,1,right,0.173,,337.1048,337.1063,,0,,337.107,337.1076,,0,,0,337.1076,337.1076,337.1083,338.6027,0,34,34,34,1,0.2,0.8,0.8,0.2,1,0,,,,,,,,,,,,,,,,,,,,,,,,,,,,,,,,,,,,
,,5fbdc4f0784d3f225d8d96d1,66fc98528e542c2d44976e65,2024-10-01_20h58.09.927,mdp,2024.2.1,Win32,59.17159763,66fa4ebf79326e780c390304,,,,,,,,,,,,,,,,,,,,,338.603,338.603,338.6059,339.5689,1,0,right,0.4614,,339.5697,339.5704,,0,,339.571,339.5714,,0,,1,339.5714,339.5715,339.5719,341.0682,0,35,35,35,1,0.2,0.8,0.8,0.2,1,0,,,,,,,,,,,,,,,,,,,,,,,,,,,,,,,,,,,,
,,5fbdc4f0784d3f225d8d96d1,66fc98528e542c2d44976e65,2024-10-01_20h58.09.927,mdp,2024.2.1,Win32,59.17159763,66fa4ebf79326e780c390304,,,,,,,,,,,,,,,,,,,,,341.0685,341.0685,341.0689,341.9689,1,1,right,0.3833,,341.9701,341.971,,0,,341.9717,341.9722,,0,,0,341.9723,341.9723,341.9728,343.4681,0,36,36,36,1,0.2,0.8,0.8,0.2,1,0,,,,,,,,,,,,,,,,,,,,,,,,,,,,,,,,,,,,
,,5fbdc4f0784d3f225d8d96d1,66fc98528e542c2d44976e65,2024-10-01_20h58.09.927,mdp,2024.2.1,Win32,59.17159763,66fa4ebf79326e780c390304,,,,,,,,,,,,,,,,,,,,,343.4683,343.4684,343.469,344.1515,0,1,left,0.1407,,344.1526,344.1534,,1,,344.1542,344.1549,,1,,0,344.1549,344.1549,344.1555,345.651,0,37,37,37,1,0.2,0.8,0.8,0.2,1,0,,,,,,,,,,,,,,,,,,,,,,,,,,,,,,,,,,,,
,,5fbdc4f0784d3f225d8d96d1,66fc98528e542c2d44976e65,2024-10-01_20h58.09.927,mdp,2024.2.1,Win32,59.17159763,66fa4ebf79326e780c390304,,,,,,,,,,,,,,,,,,,,,345.6515,345.6515,345.6539,346.384,0,1,left,0.2133,,346.3849,346.3857,,1,,346.3865,346.387,,0,,0,346.3871,346.3871,346.3875,347.8834,0,38,38,38,1,0.2,0.8,0.8,0.2,1,0,,,,,,,,,,,,,,,,,,,,,,,,,,,,,,,,,,,,
,,5fbdc4f0784d3f225d8d96d1,66fc98528e542c2d44976e65,2024-10-01_20h58.09.927,mdp,2024.2.1,Win32,59.17159763,66fa4ebf79326e780c390304,,,,,,,,,,,,,,,,,,,,,347.8839,347.8839,347.8865,348.5335,0,1,left,0.1244,,348.5349,348.5358,,1,,348.537,348.5377,,1,,0,348.5377,348.5377,348.5385,350.0332,0,39,39,39,1,0.2,0.8,0.8,0.2,1,0,,,,,,,,,,,,,,,,,,,,,,,,,,,,,,,,,,,,
,,5fbdc4f0784d3f225d8d96d1,66fc98528e542c2d44976e65,2024-10-01_20h58.09.927,mdp,2024.2.1,Win32,59.17159763,66fa4ebf79326e780c390304,,,,,,,,,,,,,,,,,,,,,350.0337,350.0337,350.0379,350.7329,0,1,left,0.1676,,350.7334,350.7346,,0,,350.735,350.7352,,1,,0,350.7352,350.7352,350.7354,352.2325,0,40,40,40,1,0.2,0.8,0.8,0.2,1,0,,,,,,,,,,,,,,,,,,,,,,,,,,,,,,,,,,,,
,,5fbdc4f0784d3f225d8d96d1,66fc98528e542c2d44976e65,2024-10-01_20h58.09.927,mdp,2024.2.1,Win32,59.17159763,66fa4ebf79326e780c390304,,,,,,,,,,,,,,,,,,,,,352.2328,352.2328,352.2339,353.249,0,0,left,0.4936,,353.2507,353.2516,,0,,353.2522,353.2528,,0,,1,353.2528,353.2528,353.2534,354.7482,0,41,41,41,1,0.8,0.2,0.2,0.8,1,0,,,,,,,,,,,,,,,,,,,,,,,,,,,,,,,,,,,,
,,5fbdc4f0784d3f225d8d96d1,66fc98528e542c2d44976e65,2024-10-01_20h58.09.927,mdp,2024.2.1,Win32,59.17159763,66fa4ebf79326e780c390304,,,,,,,,,,,,,,,,,,,,,354.7484,354.7484,354.7488,355.4821,0,0,left,0.2201,,355.4848,355.4855,,0,,355.4862,355.4868,,0,,1,355.4868,355.4868,355.4874,356.9816,0,42,42,42,1,0.8,0.2,0.2,0.8,1,0,,,,,,,,,,,,,,,,,,,,,,,,,,,,,,,,,,,,
,,5fbdc4f0784d3f225d8d96d1,66fc98528e542c2d44976e65,2024-10-01_20h58.09.927,mdp,2024.2.1,Win32,59.17159763,66fa4ebf79326e780c390304,,,,,,,,,,,,,,,,,,,,,356.9821,356.9821,356.9836,357.7977,0,0,left,0.2918,,357.7989,357.7993,,0,,357.7999,357.8003,,0,,1,357.8003,357.8003,357.8008,359.2993,0,43,43,43,1,0.8,0.2,0.2,0.8,1,0,,,,,,,,,,,,,,,,,,,,,,,,,,,,,,,,,,,,
,,5fbdc4f0784d3f225d8d96d1,66fc98528e542c2d44976e65,2024-10-01_20h58.09.927,mdp,2024.2.1,Win32,59.17159763,66fa4ebf79326e780c390304,,,,,,,,,,,,,,,,,,,,,359.2994,359.2994,359.3,359.8472,0,1,left,0.0187,,359.8484,359.8498,,1,,359.8505,359.851,,1,,0,359.8511,359.8511,359.8516,361.3468,0,44,44,44,1,0.4,0.6,0.8,0.2,1,0,,,,,,,,,,,,,,,,,,,,,,,,,,,,,,,,,,,,
,,5fbdc4f0784d3f225d8d96d1,66fc98528e542c2d44976e65,2024-10-01_20h58.09.927,mdp,2024.2.1,Win32,59.17159763,66fa4ebf79326e780c390304,,,,,,,,,,,,,,,,,,,,,361.3471,361.3471,361.3491,362.1299,0,0,left,0.2612,,362.1312,362.1319,,1,,362.1325,362.1331,,0,,1,362.1332,362.1332,362.1337,363.6296,0,45,45,45,1,0.6,0.4,0.6,0.4,1,0,,,,,,,,,,,,,,,,,,,,,,,,,,,,,,,,,,,,
,,5fbdc4f0784d3f225d8d96d1,66fc98528e542c2d44976e65,2024-10-01_20h58.09.927,mdp,2024.2.1,Win32,59.17159763,66fa4ebf79326e780c390304,,,,,,,,,,,,,,,,,,,,,363.6302,363.6302,363.6313,364.4794,0,1,left,0.3223,,364.4802,364.4807,,1,,364.4812,364.4817,,0,,0,364.4817,364.4817,364.4822,365.9793,0,46,46,46,1,0.6,0.4,0.6,0.4,1,0,,,,,,,,,,,,,,,,,,,,,,,,,,,,,,,,,,,,
,,5fbdc4f0784d3f225d8d96d1,66fc98528e542c2d44976e65,2024-10-01_20h58.09.927,mdp,2024.2.1,Win32,59.17159763,66fa4ebf79326e780c390304,,,,,,,,,,,,,,,,,,,,,365.9799,365.9799,365.9815,366.779,0,0,left,0.277,,366.7801,366.7808,,1,,366.7814,366.7819,,0,,1,366.782,366.782,366.7825,368.2783,0,47,47,47,1,0.6,0.4,0.6,0.4,1,0,,,,,,,,,,,,,,,,,,,,,,,,,,,,,,,,,,,,
,,5fbdc4f0784d3f225d8d96d1,66fc98528e542c2d44976e65,2024-10-01_20h58.09.927,mdp,2024.2.1,Win32,59.17159763,66fa4ebf79326e780c390304,,,,,,,,,,,,,,,,,,,,,368.2787,368.2787,368.2799,368.9116,0,1,left,0.0977,,368.9134,368.9142,,1,,368.9147,368.915,,0,,0,368.915,368.915,368.9153,370.4112,0,48,48,48,1,0.6,0.4,0.6,0.4,1,0,,,,,,,,,,,,,,,,,,,,,,,,,,,,,,,,,,,,
,,5fbdc4f0784d3f225d8d96d1,66fc98528e542c2d44976e65,2024-10-01_20h58.09.927,mdp,2024.2.1,Win32,59.17159763,66fa4ebf79326e780c390304,,,,,,,,,,,,,,,,,,,,,370.4116,370.4116,370.4149,371.2306,0,0,left,0.2995,,371.2322,371.2331,,0,,371.234,371.235,,0,,1,371.235,371.235,371.2359,372.7272,0,49,49,49,1,0.8,0.2,0.2,0.8,1,0,,,,,,,,,,,,,,,,,,,,,,,,,,,,,,,,,,,,
,,5fbdc4f0784d3f225d8d96d1,66fc98528e542c2d44976e65,2024-10-01_20h58.09.927,mdp,2024.2.1,Win32,59.17159763,66fa4ebf79326e780c390304,,,,,,,,,,,,,,,,,,,,,,,,,,,,,,,,,,,,,,,,,,,,,,,,,,,,,,,,372.7276,431.2456,0,0,0,0,1,imgs/goat.png,imgs/lion.png,imgs/giraffe.png,imgs/dog.png,imgs/bear.png,,,,,,,,,,,,,,,,,,,,,,,,
,,5fbdc4f0784d3f225d8d96d1,66fc98528e542c2d44976e65,2024-10-01_20h58.09.927,mdp,2024.2.1,Win32,59.17159763,66fa4ebf79326e780c390304,,,,,,,,,,,,,,2,seqs/st2seq12.csv,431.2469,456.3733,space,24.6017,,456.3816,456.3816,456.3832,457.5723,0,0,left,0.6518,,457.5734,459.0551,1,0,right,459.0569,459.0578,,1,,1,459.0578,459.0578,459.0587,460.5545,0,0,0,0,1,0.8,0.2,0.2,0.8,,,,,,,,,,,,,,,0.9403,,0.2,0.8,0.4,0.6,0.2,0.8,0.6,0.4,1,0,,,,,,,,,,,,
,,5fbdc4f0784d3f225d8d96d1,66fc98528e542c2d44976e65,2024-10-01_20h58.09.927,mdp,2024.2.1,Win32,59.17159763,66fa4ebf79326e780c390304,,,,,,,,,,,,,,,,,,,,,460.5548,460.5548,460.5555,461.5381,0,0,left,0.4615,,461.5394,462.5208,1,1,right,462.5222,462.5233,,1,,0,462.5234,462.5234,462.524,464.0224,0,1,1,1,1,0.4,0.6,0.6,0.4,,,,,,,,,,,,,,,0.4553,,0.2,0.8,0.4,0.6,0.2,0.8,0.6,0.4,1,0,,,,,,,,,,,,
,,5fbdc4f0784d3f225d8d96d1,66fc98528e542c2d44976e65,2024-10-01_20h58.09.927,mdp,2024.2.1,Win32,59.17159763,66fa4ebf79326e780c390304,,,,,,,,,,,,,,,,,,,,,464.023,464.023,464.024,464.9704,0,0,left,0.419,,464.9712,465.9366,1,0,right,465.9377,465.9385,,0,,1,465.9386,465.9386,465.9394,467.4365,0,2,2,2,1,0.4,0.6,0.6,0.4,,,,,,,,,,,,,,,0.4458,,0.2,0.8,0.4,0.6,0.2,0.8,0.6,0.4,1,0,,,,,,,,,,,,
,,5fbdc4f0784d3f225d8d96d1,66fc98528e542c2d44976e65,2024-10-01_20h58.09.927,mdp,2024.2.1,Win32,59.17159763,66fa4ebf79326e780c390304,,,,,,,,,,,,,,,,,,,,,467.4368,467.4368,467.4377,468.4362,0,1,left,0.4682,,468.4374,469.3862,1,0,right,469.3879,469.3889,,0,,1,469.3889,469.389,469.3896,470.8865,0,3,3,3,1,0.4,0.6,0.6,0.4,,,,,,,,,,,,,,,0.4039,,0.2,0.8,0.4,0.6,0.2,0.8,0.6,0.4,1,0,,,,,,,,,,,,
,,5fbdc4f0784d3f225d8d96d1,66fc98528e542c2d44976e65,2024-10-01_20h58.09.927,mdp,2024.2.1,Win32,59.17159763,66fa4ebf79326e780c390304,,,,,,,,,,,,,,,,,,,,,470.8869,470.8869,470.8877,472.0851,0,1,left,0.6748,,472.0884,473.1184,1,0,right,473.1195,473.1208,,0,,1,473.1209,473.1209,473.1214,474.6178,0,4,4,4,1,0.4,0.6,0.6,0.4,,,,,,,,,,,,,,,0.5064,,0.4,0.6,0.2,0.8,0.2,0.8,0.6,0.4,1,0,,,,,,,,,,,,
,,5fbdc4f0784d3f225d8d96d1,66fc98528e542c2d44976e65,2024-10-01_20h58.09.927,mdp,2024.2.1,Win32,59.17159763,66fa4ebf79326e780c390304,,,,,,,,,,,,,,,,,,,,,474.6184,474.6184,474.6198,475.7365,1,1,right,0.599,,475.7371,476.7373,1,0,right,476.7395,476.7407,,0,,1,476.7408,476.7409,476.7418,478.2336,0,5,5,5,1,0.4,0.6,0.6,0.4,,,,,,,,,,,,,,,0.4844,,0.4,0.6,0.2,0.8,0.2,0.8,0.6,0.4,1,0,,,,,,,,,,,,
,,5fbdc4f0784d3f225d8d96d1,66fc98528e542c2d44976e65,2024-10-01_20h58.09.927,mdp,2024.2.1,Win32,59.17159763,66fa4ebf79326e780c390304,,,,,,,,,,,,,,,,,,,,,478.2342,478.2342,478.2359,479.1829,1,0,right,0.4225,,479.1838,480.3325,1,0,right,480.3333,480.3338,,1,,1,480.3338,480.3338,480.3343,481.8328,0,6,6,6,1,0.4,0.6,0.6,0.4,,,,,,,,,,,,,,,0.6087,,0.4,0.6,0.2,0.8,0.2,0.8,0.6,0.4,1,0,,,,,,,,,,,,
,,5fbdc4f0784d3f225d8d96d1,66fc98528e542c2d44976e65,2024-10-01_20h58.09.927,mdp,2024.2.1,Win32,59.17159763,66fa4ebf79326e780c390304,,,,,,,,,,,,,,,,,,,,,481.8332,481.8332,481.835,483.2824,1,1,right,0.9205,,483.2849,484.4652,1,0,right,484.4675,484.468,,0,,1,484.468,484.468,484.4684,485.9644,0,7,7,7,1,0.4,0.6,0.6,0.4,,,,,,,,,,,,,,,0.6378,,0.4,0.6,0.2,0.8,0.2,0.8,0.6,0.4,1,0,,,,,,,,,,,,
,,5fbdc4f0784d3f225d8d96d1,66fc98528e542c2d44976e65,2024-10-01_20h58.09.927,mdp,2024.2.1,Win32,59.17159763,66fa4ebf79326e780c390304,,,,,,,,,,,,,,,,,,,,,485.9648,485.9648,485.9658,487.2978,1,1,right,0.788,,487.2996,488.2974,1,1,right,488.299,488.2999,,0,,0,488.2999,488.2999,488.3005,489.7971,0,8,8,8,1,0.4,0.6,0.6,0.4,,,,,,,,,,,,,,,0.4638,,0.4,0.6,0.2,0.8,0.2,0.8,0.6,0.4,1,0,,,,,,,,,,,,
,,5fbdc4f0784d3f225d8d96d1,66fc98528e542c2d44976e65,2024-10-01_20h58.09.927,mdp,2024.2.1,Win32,59.17159763,66fa4ebf79326e780c390304,,,,,,,,,,,,,,,,,,,,,489.7974,489.7974,489.7982,490.997,1,0,right,0.6753,,490.9984,492.9298,0,0,left,492.9311,492.9317,,1,,1,492.9318,492.9318,492.9325,494.4315,0,9,9,9,1,0.4,0.6,0.6,0.4,,,,,,,,,,,,,,,1.3949,,0.4,0.6,0.2,0.8,0.2,0.8,0.6,0.4,1,0,,,,,,,,,,,,
,,5fbdc4f0784d3f225d8d96d1,66fc98528e542c2d44976e65,2024-10-01_20h58.09.927,mdp,2024.2.1,Win32,59.17159763,66fa4ebf79326e780c390304,,,,,,,,,,,,,,,,,,,,,494.4321,494.4321,494.4333,495.6953,0,1,left,0.7461,,495.6959,497.1121,1,1,right,497.1155,497.1162,,1,,0,497.1163,497.1163,497.1171,498.6109,0,10,10,10,1,0.4,0.6,0.6,0.4,,,,,,,,,,,,,,,0.8723,,0.6,0.4,0.6,0.4,0.2,0.8,0.6,0.4,1,0,,,,,,,,,,,,
,,5fbdc4f0784d3f225d8d96d1,66fc98528e542c2d44976e65,2024-10-01_20h58.09.927,mdp,2024.2.1,Win32,59.17159763,66fa4ebf79326e780c390304,,,,,,,,,,,,,,,,,,,,,498.6112,498.6112,498.6118,500.0949,0,0,left,0.9665,,500.0963,501.7435,0,1,left,501.744,501.7443,,0,,0,501.7443,501.7443,501.7446,503.2438,0,11,11,11,1,0.4,0.6,0.6,0.4,,,,,,,,,,,,,,,1.1136,,0.6,0.4,0.6,0.4,0.2,0.8,0.6,0.4,1,0,,,,,,,,,,,,
,,5fbdc4f0784d3f225d8d96d1,66fc98528e542c2d44976e65,2024-10-01_20h58.09.927,mdp,2024.2.1,Win32,59.17159763,66fa4ebf79326e780c390304,,,,,,,,,,,,,,,,,,,,,503.2443,503.2443,503.2457,504.1771,0,1,left,0.4003,,504.1809,505.7267,1,0,right,505.7296,505.7304,,0,,1,505.7305,505.7305,505.7313,507.226,0,12,12,12,1,0.4,0.6,0.6,0.4,,,,,,,,,,,,,,,1.0077,,0.6,0.4,0.6,0.4,0.2,0.8,0.6,0.4,1,0,,,,,,,,,,,,
,,5fbdc4f0784d3f225d8d96d1,66fc98528e542c2d44976e65,2024-10-01_20h58.09.927,mdp,2024.2.1,Win32,59.17159763,66fa4ebf79326e780c390304,,,,,,,,,,,,,,,,,,,,,507.2263,507.2263,507.2269,508.7613,1,1,right,1.0157,,508.7623,509.9088,1,0,right,509.9107,509.9114,,0,,1,509.9114,509.9114,509.9122,511.4084,0,13,13,13,1,0.6,0.4,0.2,0.8,,,,,,,,,,,,,,,0.6186,,0.6,0.4,0.6,0.4,0.2,0.8,0.6,0.4,1,0,,,,,,,,,,,,
,,5fbdc4f0784d3f225d8d96d1,66fc98528e542c2d44976e65,2024-10-01_20h58.09.927,mdp,2024.2.1,Win32,59.17159763,66fa4ebf79326e780c390304,,,,,,,,,,,,,,,,,,,,,511.4088,511.4088,511.412,512.4912,1,1,right,0.5594,,512.4919,513.5239,1,1,right,513.5247,513.5251,,0,,0,513.5252,513.5252,513.5256,515.0241,0,14,14,14,1,0.6,0.4,0.2,0.8,,,,,,,,,,,,,,,0.5056,,0.6,0.4,0.6,0.4,0.2,0.8,0.6,0.4,1,0,,,,,,,,,,,,
,,5fbdc4f0784d3f225d8d96d1,66fc98528e542c2d44976e65,2024-10-01_20h58.09.927,mdp,2024.2.1,Win32,59.17159763,66fa4ebf79326e780c390304,,,,,,,,,,,,,,,,,,,,,515.0246,515.0246,515.0257,516.1572,1,1,right,0.6085,,516.1603,517.4734,0,1,left,517.4741,517.4745,,1,,0,517.4745,517.4745,517.4749,518.9729,0,15,15,15,1,0.6,0.4,0.2,0.8,,,,,,,,,,,,,,,0.7867,,0.6,0.4,0.6,0.4,0.2,0.8,0.6,0.4,1,0,,,,,,,,,,,,
,,5fbdc4f0784d3f225d8d96d1,66fc98528e542c2d44976e65,2024-10-01_20h58.09.927,mdp,2024.2.1,Win32,59.17159763,66fa4ebf79326e780c390304,,,,,,,,,,,,,,,,,,,,,518.9733,518.9733,518.9763,520.2064,1,1,right,0.6925,,520.2079,521.1558,1,0,right,521.1581,521.1586,,0,,1,521.1586,521.1586,521.1591,522.6551,0,16,16,16,1,0.6,0.4,0.2,0.8,,,,,,,,,,,,,,,0.419,,0.6,0.4,0.6,0.4,0.2,0.8,0.6,0.4,1,0,,,,,,,,,,,,
,,5fbdc4f0784d3f225d8d96d1,66fc98528e542c2d44976e65,2024-10-01_20h58.09.927,mdp,2024.2.1,Win32,59.17159763,66fa4ebf79326e780c390304,,,,,,,,,,,,,,,,,,,,,522.6556,522.6556,522.6579,523.6883,1,0,right,0.5145,,523.6895,524.5549,1,1,right,524.5566,524.5577,,0,,0,524.5578,524.5578,524.5585,526.0544,0,17,17,17,1,0.6,0.4,0.2,0.8,,,,,,,,,,,,,,,0.3278,,0.6,0.4,0.6,0.4,0.4,0.6,0.4,0.6,1,0,,,,,,,,,,,,
,,5fbdc4f0784d3f225d8d96d1,66fc98528e542c2d44976e65,2024-10-01_20h58.09.927,mdp,2024.2.1,Win32,59.17159763,66fa4ebf79326e780c390304,,,,,,,,,,,,,,,,,,,,,526.0549,526.0549,526.0568,527.0545,1,0,right,0.473,,527.0561,528.0543,1,0,right,528.0559,528.0567,,0,,1,528.0567,528.0567,528.0574,529.5534,0,18,18,18,1,0.6,0.4,0.2,0.8,,,,,,,,,,,,,,,0.474,,0.6,0.4,0.6,0.4,0.4,0.6,0.4,0.6,1,0,,,,,,,,,,,,
,,5fbdc4f0784d3f225d8d96d1,66fc98528e542c2d44976e65,2024-10-01_20h58.09.927,mdp,2024.2.1,Win32,59.17159763,66fa4ebf79326e780c390304,,,,,,,,,,,,,,,,,,,,,529.5537,529.5537,529.5546,530.3533,1,1,right,0.2855,,530.3543,531.5029,1,1,right,531.5043,531.505,,0,,0,531.5051,531.5051,531.5058,533.0028,0,19,19,19,1,0.6,0.4,0.2,0.8,,,,,,,,,,,,,,,0.6068,,0.6,0.4,0.6,0.4,0.4,0.6,0.4,0.6,1,0,,,,,,,,,,,,
,,5fbdc4f0784d3f225d8d96d1,66fc98528e542c2d44976e65,2024-10-01_20h58.09.927,mdp,2024.2.1,Win32,59.17159763,66fa4ebf79326e780c390304,,,,,,,,,,,,,,,,,,,,,533.0032,533.0032,533.0042,534.0693,1,1,right,0.5415,,534.0705,535.1522,1,1,right,535.1535,535.1545,,1,,0,535.1546,535.1546,535.1553,536.6516,0,20,20,20,1,0.6,0.4,0.2,0.8,,,,,,,,,,,,,,,0.5635,,0.6,0.4,0.6,0.4,0.4,0.6,0.4,0.6,1,0,,,,,,,,,,,,
,,5fbdc4f0784d3f225d8d96d1,66fc98528e542c2d44976e65,2024-10-01_20h58.09.927,mdp,2024.2.1,Win32,59.17159763,66fa4ebf79326e780c390304,,,,,,,,,,,,,,,,,,,,,536.6518,536.6518,536.6526,537.4872,1,1,right,0.3315,,537.4877,538.6178,1,0,right,538.6186,538.619,,1,,1,538.6191,538.6191,538.6194,540.1176,0,21,21,21,1,0.6,0.4,0.2,0.8,,,,,,,,,,,,,,,0.612,,0.6,0.4,0.6,0.4,0.8,0.2,0.6,0.4,1,0,,,,,,,,,,,,
,,5fbdc4f0784d3f225d8d96d1,66fc98528e542c2d44976e65,2024-10-01_20h58.09.927,mdp,2024.2.1,Win32,59.17159763,66fa4ebf79326e780c390304,,,,,,,,,,,,,,,,,,,,,540.1177,540.1177,540.1184,541.1171,1,1,right,0.4746,,541.1184,542.1838,1,0,right,542.1851,542.1857,,0,,1,542.1858,542.1858,542.1867,543.6832,0,22,22,22,1,0.6,0.4,0.2,0.8,,,,,,,,,,,,,,,0.5467,,0.6,0.4,0.6,0.4,0.8,0.2,0.6,0.4,1,0,,,,,,,,,,,,
,,5fbdc4f0784d3f225d8d96d1,66fc98528e542c2d44976e65,2024-10-01_20h58.09.927,mdp,2024.2.1,Win32,59.17159763,66fa4ebf79326e780c390304,,,,,,,,,,,,,,,,,,,,,543.6835,543.6835,543.6848,544.6498,1,1,right,0.4447,,544.6508,545.9162,1,0,right,545.9174,545.9185,,1,,1,545.9186,545.9186,545.9194,547.4153,0,23,23,23,1,0.6,0.4,0.2,0.8,,,,,,,,,,,,,,,0.741,,0.6,0.4,0.6,0.4,0.8,0.2,0.6,0.4,1,0,,,,,,,,,,,,
,,5fbdc4f0784d3f225d8d96d1,66fc98528e542c2d44976e65,2024-10-01_20h58.09.927,mdp,2024.2.1,Win32,59.17159763,66fa4ebf79326e780c390304,,,,,,,,,,,,,,,,,,,,,547.4157,547.4157,547.4186,548.3489,1,1,right,0.4082,,548.3516,549.4649,1,0,right,549.4663,549.4671,,1,,1,549.4672,549.4672,549.4679,550.9645,0,24,24,24,1,0.6,0.4,0.2,0.8,,,,,,,,,,,,,,,0.5884,,0.6,0.4,0.6,0.4,0.8,0.2,0.6,0.4,1,0,,,,,,,,,,,,
,,5fbdc4f0784d3f225d8d96d1,66fc98528e542c2d44976e65,2024-10-01_20h58.09.927,mdp,2024.2.1,Win32,59.17159763,66fa4ebf79326e780c390304,,,,,,,,,,,,,,,,,,,,,550.9647,550.9647,550.9653,551.8979,1,1,right,0.4104,,551.8994,552.9978,1,1,right,552.9992,553.0001,,1,,0,553.0002,553.0002,553.001,554.4973,0,25,25,25,1,0.6,0.4,0.2,0.8,,,,,,,,,,,,,,,0.5745,,0.6,0.4,0.6,0.4,0.8,0.2,0.6,0.4,1,0,,,,,,,,,,,,
,,5fbdc4f0784d3f225d8d96d1,66fc98528e542c2d44976e65,2024-10-01_20h58.09.927,mdp,2024.2.1,Win32,59.17159763,66fa4ebf79326e780c390304,,,,,,,,,,,,,,,,,,,,,554.4982,554.4982,554.4995,555.3803,1,1,right,0.3496,,555.3819,556.4634,1,1,right,556.4645,556.4654,,1,,0,556.4657,556.4657,556.4664,557.9631,0,26,26,26,1,0.6,0.4,0.2,0.8,,,,,,,,,,,,,,,0.5516,,0.6,0.4,0.6,0.4,0.8,0.2,0.6,0.4,1,0,,,,,,,,,,,,
,,5fbdc4f0784d3f225d8d96d1,66fc98528e542c2d44976e65,2024-10-01_20h58.09.927,mdp,2024.2.1,Win32,59.17159763,66fa4ebf79326e780c390304,,,,,,,,,,,,,,,,,,,,,557.9639,557.9639,557.9657,558.5793,1,1,right,0.0928,,558.5809,559.5959,1,0,right,559.5973,559.5979,,1,,1,559.598,559.598,559.5986,561.0953,0,27,27,27,1,0.6,0.4,0.2,0.8,,,,,,,,,,,,,,,0.4939,,0.8,0.2,0.2,0.8,0.8,0.2,0.6,0.4,1,0,,,,,,,,,,,,
,,5fbdc4f0784d3f225d8d96d1,66fc98528e542c2d44976e65,2024-10-01_20h58.09.927,mdp,2024.2.1,Win32,59.17159763,66fa4ebf79326e780c390304,,,,,,,,,,,,,,,,,,,,,561.0957,561.0957,561.0987,561.945,1,1,right,0.3274,,561.9466,563.0117,1,1,right,563.0134,563.0145,,1,,0,563.0146,563.0146,563.0154,564.5109,0,28,28,28,1,0.6,0.4,0.2,0.8,,,,,,,,,,,,,,,0.5202,,0.8,0.2,0.2,0.8,0.8,0.2,0.6,0.4,1,0,,,,,,,,,,,,
,,5fbdc4f0784d3f225d8d96d1,66fc98528e542c2d44976e65,2024-10-01_20h58.09.927,mdp,2024.2.1,Win32,59.17159763,66fa4ebf79326e780c390304,,,,,,,,,,,,,,,,,,,,,564.5112,564.5112,564.5119,565.3949,1,1,right,0.3679,,565.3966,566.2778,1,0,right,566.279,566.2797,,0,,1,566.2797,566.2797,566.2803,567.7765,0,29,29,29,1,0.6,0.4,0.2,0.8,,,,,,,,,,,,,,,0.35,,0.8,0.2,0.2,0.8,0.8,0.2,0.6,0.4,1,0,,,,,,,,,,,,
,,5fbdc4f0784d3f225d8d96d1,66fc98528e542c2d44976e65,2024-10-01_20h58.09.927,mdp,2024.2.1,Win32,59.17159763,66fa4ebf79326e780c390304,,,,,,,,,,,,,,,,,,,,,567.7767,567.7768,567.7772,568.6433,1,1,right,0.3363,,568.6445,569.5457,1,1,right,569.5466,569.5471,,0,,0,569.5472,569.5472,569.5478,571.0427,0,30,30,30,1,0.6,0.4,0.2,0.8,,,,,,,,,,,,,,,0.3823,,0.8,0.2,0.2,0.8,0.8,0.2,0.6,0.4,1,0,,,,,,,,,,,,
,,5fbdc4f0784d3f225d8d96d1,66fc98528e542c2d44976e65,2024-10-01_20h58.09.927,mdp,2024.2.1,Win32,59.17159763,66fa4ebf79326e780c390304,,,,,,,,,,,,,,,,,,,,,571.0432,571.0433,571.0457,571.8759,1,1,right,0.3086,,571.8765,572.7428,1,0,right,572.7442,572.7451,,1,,1,572.7452,572.7452,572.7459,574.2421,0,31,31,31,1,0.6,0.4,0.2,0.8,,,,,,,,,,,,,,,0.3403,,0.8,0.2,0.2,0.8,0.8,0.2,0.6,0.4,1,0,,,,,,,,,,,,
,,5fbdc4f0784d3f225d8d96d1,66fc98528e542c2d44976e65,2024-10-01_20h58.09.927,mdp,2024.2.1,Win32,59.17159763,66fa4ebf79326e780c390304,,,,,,,,,,,,,,,,,,,,,574.2425,574.2425,574.2433,575.025,1,1,right,0.2624,,575.0266,576.1083,1,1,right,576.1096,576.1105,,0,,0,576.1105,576.1105,576.1109,577.6077,0,32,32,32,1,0.6,0.4,0.2,0.8,,,,,,,,,,,,,,,0.5586,,0.8,0.2,0.2,0.8,0.8,0.2,0.6,0.4,1,0,,,,,,,,,,,,
,,5fbdc4f0784d3f225d8d96d1,66fc98528e542c2d44976e65,2024-10-01_20h58.09.927,mdp,2024.2.1,Win32,59.17159763,66fa4ebf79326e780c390304,,,,,,,,,,,,,,,,,,,,,577.6082,577.6082,577.6098,578.4911,0,0,left,0.3515,,578.4925,579.4267,0,0,left,579.4279,579.4287,,0,,1,579.4287,579.4287,579.4294,580.9233,0,33,33,33,1,0.6,0.4,0.2,0.8,,,,,,,,,,,,,,,0.4002,,0.8,0.2,0.2,0.8,0.8,0.2,0.6,0.4,1,0,,,,,,,,,,,,
,,5fbdc4f0784d3f225d8d96d1,66fc98528e542c2d44976e65,2024-10-01_20h58.09.927,mdp,2024.2.1,Win32,59.17159763,66fa4ebf79326e780c390304,,,,,,,,,,,,,,,,,,,,,580.9238,580.9239,580.9264,581.9402,0,1,left,0.4849,,581.9416,582.8087,0,0,left,582.8092,582.8095,,0,,1,582.8096,582.8096,582.8097,584.3063,0,34,34,34,1,0.6,0.4,0.2,0.8,,,,,,,,,,,,,,,0.3329,,0.8,0.2,0.2,0.8,0.8,0.2,0.6,0.4,1,0,,,,,,,,,,,,
,,5fbdc4f0784d3f225d8d96d1,66fc98528e542c2d44976e65,2024-10-01_20h58.09.927,mdp,2024.2.1,Win32,59.17159763,66fa4ebf79326e780c390304,,,,,,,,,,,,,,,,,,,,,584.3067,584.3067,584.3078,585.2726,0,0,left,0.4336,,585.2743,586.3388,0,1,left,586.3396,586.3402,,1,,0,586.3402,586.3402,586.3407,587.8384,0,35,35,35,1,0.6,0.4,0.2,0.8,,,,,,,,,,,,,,,0.5193,,0.8,0.2,0.2,0.8,0.2,0.8,0.2,0.8,1,0,,,,,,,,,,,,
,,5fbdc4f0784d3f225d8d96d1,66fc98528e542c2d44976e65,2024-10-01_20h58.09.927,mdp,2024.2.1,Win32,59.17159763,66fa4ebf79326e780c390304,,,,,,,,,,,,,,,,,,,,,587.8386,587.8389,587.8395,588.5549,1,1,right,0.1852,,588.556,589.6383,1,0,right,589.6395,589.6402,,0,,1,589.6402,589.6402,589.6409,591.1377,0,36,36,36,1,0.6,0.4,0.2,0.8,,,,,,,,,,,,,,,0.5414,,0.8,0.2,0.2,0.8,0.2,0.8,0.2,0.8,1,0,,,,,,,,,,,,
,,5fbdc4f0784d3f225d8d96d1,66fc98528e542c2d44976e65,2024-10-01_20h58.09.927,mdp,2024.2.1,Win32,59.17159763,66fa4ebf79326e780c390304,,,,,,,,,,,,,,,,,,,,,591.1382,591.1382,591.1395,592.0545,1,1,right,0.4054,,592.0557,593.0207,1,1,right,593.0225,593.0232,,1,,0,593.0233,593.0233,593.0239,594.5201,0,37,37,37,1,0.6,0.4,0.2,0.8,,,,,,,,,,,,,,,0.4421,,0.8,0.2,0.2,0.8,0.2,0.8,0.2,0.8,1,0,,,,,,,,,,,,
,,5fbdc4f0784d3f225d8d96d1,66fc98528e542c2d44976e65,2024-10-01_20h58.09.927,mdp,2024.2.1,Win32,59.17159763,66fa4ebf79326e780c390304,,,,,,,,,,,,,,,,,,,,,594.5206,594.5206,594.5227,595.3865,1,1,right,0.345,,595.3877,596.4028,0,0,left,596.4037,596.4043,,1,,1,596.4043,596.4043,596.4049,597.9021,0,38,38,38,1,0.6,0.4,0.2,0.8,,,,,,,,,,,,,,,0.51,,0.8,0.2,0.2,0.8,0.2,0.8,0.2,0.8,1,0,,,,,,,,,,,,
,,5fbdc4f0784d3f225d8d96d1,66fc98528e542c2d44976e65,2024-10-01_20h58.09.927,mdp,2024.2.1,Win32,59.17159763,66fa4ebf79326e780c390304,,,,,,,,,,,,,,,,,,,,,597.9022,597.9022,597.9026,599.0189,1,1,right,0.5996,,599.0202,599.9025,0,1,left,599.9037,599.9044,,1,,0,599.9044,599.9044,599.9053,601.4017,0,39,39,39,1,0.6,0.4,0.2,0.8,,,,,,,,,,,,,,,0.3552,,0.8,0.2,0.2,0.8,0.2,0.8,0.2,0.8,1,0,,,,,,,,,,,,
,,5fbdc4f0784d3f225d8d96d1,66fc98528e542c2d44976e65,2024-10-01_20h58.09.927,mdp,2024.2.1,Win32,59.17159763,66fa4ebf79326e780c390304,,,,,,,,,,,,,,,,,,,,,601.4023,601.4023,601.4049,602.2849,1,1,right,0.3584,,602.2862,603.718,1,1,right,603.7193,603.7202,,1,,0,603.7202,603.7202,603.721,605.2171,0,40,40,40,1,0.6,0.4,0.2,0.8,,,,,,,,,,,,,,,0.9004,,0.8,0.2,0.2,0.8,0.2,0.8,0.2,0.8,1,0,,,,,,,,,,,,
,,5fbdc4f0784d3f225d8d96d1,66fc98528e542c2d44976e65,2024-10-01_20h58.09.927,mdp,2024.2.1,Win32,59.17159763,66fa4ebf79326e780c390304,,,,,,,,,,,,,,,,,,,,,605.2175,605.2176,605.2186,606.1697,1,1,right,0.4321,,606.1709,607.067,0,1,left,607.0684,607.0692,,0,,0,607.0692,607.0693,607.0701,608.5665,0,41,41,41,1,0.6,0.4,0.2,0.8,,,,,,,,,,,,,,,0.3782,,0.8,0.2,0.2,0.8,0.2,0.8,0.2,0.8,1,0,,,,,,,,,,,,
,,5fbdc4f0784d3f225d8d96d1,66fc98528e542c2d44976e65,2024-10-01_20h58.09.927,mdp,2024.2.1,Win32,59.17159763,66fa4ebf79326e780c390304,,,,,,,,,,,,,,,,,,,,,608.5669,608.5669,608.5676,609.2501,1,0,right,0.1616,,609.2516,610.0993,1,1,right,610.1003,610.101,,0,,0,610.101,610.101,610.1017,611.6008,0,42,42,42,1,0.6,0.4,0.2,0.8,,,,,,,,,,,,,,,0.3023,,0.8,0.2,0.2,0.8,0.2,0.8,0.2,0.8,1,0,,,,,,,,,,,,
,,5fbdc4f0784d3f225d8d96d1,66fc98528e542c2d44976e65,2024-10-01_20h58.09.927,mdp,2024.2.1,Win32,59.17159763,66fa4ebf79326e780c390304,,,,,,,,,,,,,,,,,,,,,611.6011,611.6012,611.6018,612.2826,1,1,right,0.1531,,612.2842,613.3175,1,1,right,613.3189,613.3194,,0,,0,613.3194,613.3194,613.3198,614.8169,0,43,43,43,1,0.6,0.4,0.2,0.8,,,,,,,,,,,,,,,0.4996,,0.8,0.2,0.2,0.8,0.2,0.8,0.2,0.8,1,0,,,,,,,,,,,,
,,5fbdc4f0784d3f225d8d96d1,66fc98528e542c2d44976e65,2024-10-01_20h58.09.927,mdp,2024.2.1,Win32,59.17159763,66fa4ebf79326e780c390304,,,,,,,,,,,,,,,,,,,,,614.8171,614.8171,614.8176,615.6312,1,1,right,0.2839,,615.6323,616.9166,0,1,left,616.917,616.9173,,1,,0,616.9173,616.9173,616.9175,618.4137,0,44,44,44,1,0.6,0.4,0.2,0.8,,,,,,,,,,,,,,,0.7658,,0.8,0.2,0.2,0.8,0.2,0.8,0.2,0.8,1,0,,,,,,,,,,,,
,,5fbdc4f0784d3f225d8d96d1,66fc98528e542c2d44976e65,2024-10-01_20h58.09.927,mdp,2024.2.1,Win32,59.17159763,66fa4ebf79326e780c390304,,,,,,,,,,,,,,,,,,,,,618.4143,618.4143,618.4155,619.5469,1,0,right,0.6101,,619.5478,621.4798,1,1,right,621.4811,621.4817,,1,,0,621.4817,621.4817,621.4826,622.9795,0,45,45,45,1,0.6,0.4,0.2,0.8,,,,,,,,,,,,,,,1.389,,0.8,0.2,0.2,0.8,0.2,0.8,0.2,0.8,1,0,,,,,,,,,,,,
,,5fbdc4f0784d3f225d8d96d1,66fc98528e542c2d44976e65,2024-10-01_20h58.09.927,mdp,2024.2.1,Win32,59.17159763,66fa4ebf79326e780c390304,,,,,,,,,,,,,,,,,,,,,622.9798,622.9798,622.9824,623.596,1,1,right,0.0924,,623.5973,624.4625,1,1,right,624.4637,624.4644,,1,,0,624.4644,624.4644,624.465,625.9623,0,46,46,46,1,0.6,0.4,0.2,0.8,,,,,,,,,,,,,,,0.3239,,0.8,0.2,0.2,0.8,0.2,0.8,0.2,0.8,1,0,,,,,,,,,,,,
,,5fbdc4f0784d3f225d8d96d1,66fc98528e542c2d44976e65,2024-10-01_20h58.09.927,mdp,2024.2.1,Win32,59.17159763,66fa4ebf79326e780c390304,,,,,,,,,,,,,,,,,,,,,625.9628,625.9641,625.9657,626.6451,1,1,right,0.158,,626.6479,627.5285,1,0,right,627.5295,627.5302,,1,,1,627.5302,627.5302,627.5309,629.0294,0,47,47,47,1,0.6,0.4,0.2,0.8,,,,,,,,,,,,,,,0.3715,,0.8,0.2,0.2,0.8,0.2,0.8,0.2,0.8,1,0,,,,,,,,,,,,
,,5fbdc4f0784d3f225d8d96d1,66fc98528e542c2d44976e65,2024-10-01_20h58.09.927,mdp,2024.2.1,Win32,59.17159763,66fa4ebf79326e780c390304,,,,,,,,,,,,,,,,,,,,,629.0306,629.0306,629.0314,629.844,1,0,right,0.2888,,629.8451,630.6606,1,1,right,630.6615,630.6622,,1,,0,630.6622,630.6622,630.6627,632.1601,0,48,48,48,1,0.2,0.8,0.8,0.2,,,,,,,,,,,,,,,0.2874,,0.8,0.2,0.2,0.8,0.2,0.8,0.2,0.8,1,0,,,,,,,,,,,,
,,5fbdc4f0784d3f225d8d96d1,66fc98528e542c2d44976e65,2024-10-01_20h58.09.927,mdp,2024.2.1,Win32,59.17159763,66fa4ebf79326e780c390304,,,,,,,,,,,,,,,,,,,,,632.1606,632.1606,632.1631,633.0605,1,1,right,0.3531,,633.0618,634.0433,1,0,right,634.045,634.0461,,1,,1,634.0462,634.0462,634.047,635.5429,0,49,49,49,1,0.2,0.8,0.8,0.2,,,,,,,,,,,,,,,0.4361,,0.8,0.2,0.2,0.8,0.2,0.8,0.2,0.8,1,0,,,,,,,,,,,,
,,5fbdc4f0784d3f225d8d96d1,66fc98528e542c2d44976e65,2024-10-01_20h58.09.927,mdp,2024.2.1,Win32,59.17159763,66fa4ebf79326e780c390304,,,,,,,,,,,,,,,,,,,,,,,,,,,,,,,,,,,,,,,,,,,,,,,,,,,,,,,,635.543,694.0612,0,1,1,3,1,imgs/giraffe.png,imgs/horse.png,imgs/squirrel.png,imgs/bear.png,imgs/rabbit.png,,,,,,,,,,,,,,,,,,,,,,,,
,,5fbdc4f0784d3f225d8d96d1,66fc98528e542c2d44976e65,2024-10-01_20h58.09.927,mdp,2024.2.1,Win32,59.17159763,66fa4ebf79326e780c390304,,,,,,,,,,,,,,3,seqs/st3seq24.csv,694.0624,843.0558,space,148.4614,,843.0615,843.0615,843.0622,844.9388,1,1,right,1.3436,,844.9397,846.9384,1,1,right,846.9395,849.6377,0,0,left,1,849.6381,849.6381,849.639,851.1372,0,0,0,0,1,0.8,0.2,0.4,0.6,,,,,,,,,,,,,,,1.4703,,0.4,0.6,0.6,0.4,0.2,0.8,0.2,0.8,,,2.1646,,0.6,0.4,0.2,0.8,0.6,0.4,0.2,0.8,1,0
,,5fbdc4f0784d3f225d8d96d1,66fc98528e542c2d44976e65,2024-10-01_20h58.09.927,mdp,2024.2.1,Win32,59.17159763,66fa4ebf79326e780c390304,,,,,,,,,,,,,,,,,,,,,851.1377,851.1377,851.1386,852.3533,1,1,right,0.6954,,852.3545,853.3701,1,0,right,853.3711,855.5525,0,1,left,0,855.5525,855.5525,855.5534,857.0525,0,1,1,1,1,0.8,0.2,0.4,0.6,,,,,,,,,,,,,,,0.4861,,0.4,0.6,0.6,0.4,0.2,0.8,0.2,0.8,,,1.6728,,0.6,0.4,0.2,0.8,0.6,0.4,0.2,0.8,1,0
,,5fbdc4f0784d3f225d8d96d1,66fc98528e542c2d44976e65,2024-10-01_20h58.09.927,mdp,2024.2.1,Win32,59.17159763,66fa4ebf79326e780c390304,,,,,,,,,,,,,,,,,,,,,857.0529,857.0529,857.0542,859.5016,0,0,left,1.9237,,859.5027,861.351,1,1,right,861.352,863.1508,1,1,right,0,863.1509,863.1509,863.152,864.6505,0,2,2,2,1,0.8,0.2,0.4,0.6,,,,,,,,,,,,,,,1.3152,,0.4,0.6,0.6,0.4,0.2,0.8,0.2,0.8,,,1.2623,,0.6,0.4,0.2,0.8,0.6,0.4,0.2,0.8,1,0
,,5fbdc4f0784d3f225d8d96d1,66fc98528e542c2d44976e65,2024-10-01_20h58.09.927,mdp,2024.2.1,Win32,59.17159763,66fa4ebf79326e780c390304,,,,,,,,,,,,,,,,,,,,,864.6509,864.6509,864.6516,866.3335,0,0,left,1.1503,,866.3346,867.2499,0,0,left,867.2508,869.5662,1,0,right,1,869.5662,869.5662,869.5672,871.0651,0,3,3,3,1,0.8,0.2,0.4,0.6,,,,,,,,,,,,,,,0.3942,,0.4,0.6,0.6,0.4,0.2,0.8,0.2,0.8,,,1.7767,,0.6,0.4,0.2,0.8,0.6,0.4,0.2,0.8,1,0
,,5fbdc4f0784d3f225d8d96d1,66fc98528e542c2d44976e65,2024-10-01_20h58.09.927,mdp,2024.2.1,Win32,59.17159763,66fa4ebf79326e780c390304,,,,,,,,,,,,,,,,,,,,,871.0655,871.0655,871.0664,873.0817,1,0,right,1.4869,,873.0827,875.1977,0,0,left,875.1991,877.347,1,1,right,0,877.3471,877.3471,877.3478,878.8466,0,4,4,4,1,0.8,0.2,0.4,0.6,,,,,,,,,,,,,,,1.5906,,0.4,0.6,0.6,0.4,0.2,0.8,0.2,0.8,,,1.6179,,0.6,0.4,0.2,0.8,0.6,0.4,0.2,0.8,1,0
,,5fbdc4f0784d3f225d8d96d1,66fc98528e542c2d44976e65,2024-10-01_20h58.09.927,mdp,2024.2.1,Win32,59.17159763,66fa4ebf79326e780c390304,,,,,,,,,,,,,,,,,,,,,878.8468,878.8468,878.8473,880.0798,1,0,right,0.7056,,880.0808,881.3628,0,0,left,881.3642,882.8126,0,0,left,1,882.8127,882.8127,882.8137,884.3115,0,5,5,5,1,0.8,0.2,0.4,0.6,,,,,,,,,,,,,,,0.7593,,0.4,0.6,0.6,0.4,0.2,0.8,0.2,0.8,,,0.9176,,0.6,0.4,0.2,0.8,0.6,0.4,0.2,0.8,1,0
,,5fbdc4f0784d3f225d8d96d1,66fc98528e542c2d44976e65,2024-10-01_20h58.09.927,mdp,2024.2.1,Win32,59.17159763,66fa4ebf79326e780c390304,,,,,,,,,,,,,,,,,,,,,884.3117,884.3117,884.3122,886.4447,1,0,right,1.6243,,886.4457,888.244,0,0,left,888.2447,889.4439,0,1,left,0,889.444,889.444,889.445,890.9437,0,6,6,6,1,0.8,0.2,0.4,0.6,,,,,,,,,,,,,,,1.2754,,0.4,0.6,0.6,0.4,0.2,0.8,0.2,0.8,,,0.6852,,0.6,0.4,0.2,0.8,0.6,0.4,0.2,0.8,1,0
,,5fbdc4f0784d3f225d8d96d1,66fc98528e542c2d44976e65,2024-10-01_20h58.09.927,mdp,2024.2.1,Win32,59.17159763,66fa4ebf79326e780c390304,,,,,,,,,,,,,,,,,,,,,890.9441,890.9441,890.945,894.0426,1,1,right,2.5763,,894.0434,896.0587,0,0,left,896.0598,898.2585,0,1,left,0,898.2586,898.2586,898.2595,899.7582,0,7,7,7,1,0.8,0.2,0.4,0.6,,,,,,,,,,,,,,,1.5046,,0.4,0.6,0.6,0.4,0.2,0.8,0.2,0.8,,,1.6776,,0.6,0.4,0.2,0.8,0.6,0.4,0.2,0.8,1,0
,,5fbdc4f0784d3f225d8d96d1,66fc98528e542c2d44976e65,2024-10-01_20h58.09.927,mdp,2024.2.1,Win32,59.17159763,66fa4ebf79326e780c390304,,,,,,,,,,,,,,,,,,,,,899.7585,899.7585,899.7592,900.7244,1,0,right,0.4338,,900.7254,903.3069,1,0,right,903.3078,904.8567,1,0,right,1,904.8569,904.8569,904.858,906.3561,0,8,8,8,1,0.8,0.2,0.4,0.6,,,,,,,,,,,,,,,2.0465,,0.4,0.6,0.6,0.4,0.2,0.8,0.2,0.8,,,1.0208,,0.6,0.4,0.2,0.8,0.6,0.4,0.2,0.8,1,0
,,5fbdc4f0784d3f225d8d96d1,66fc98528e542c2d44976e65,2024-10-01_20h58.09.927,mdp,2024.2.1,Win32,59.17159763,66fa4ebf79326e780c390304,,,,,,,,,,,,,,,,,,,,,906.3566,906.3566,906.3575,907.7392,1,1,right,0.8518,,907.7402,909.6389,1,1,right,909.6398,911.7885,0,0,left,1,911.7885,911.7885,911.7894,913.2879,0,9,9,9,1,0.8,0.2,0.4,0.6,,,,,,,,,,,,,,,1.3671,,0.4,0.6,0.6,0.4,0.2,0.8,0.2,0.8,,,1.6117,,0.6,0.4,0.2,0.8,0.6,0.4,0.2,0.8,1,0
,,5fbdc4f0784d3f225d8d96d1,66fc98528e542c2d44976e65,2024-10-01_20h58.09.927,mdp,2024.2.1,Win32,59.17159763,66fa4ebf79326e780c390304,,,,,,,,,,,,,,,,,,,,,913.2883,913.2883,913.2891,914.2213,1,1,right,0.4087,,914.2222,915.5207,1,0,right,915.5219,917.2869,1,1,right,0,917.287,917.287,917.2878,918.7865,0,10,10,10,1,0.8,0.2,0.4,0.6,,,,,,,,,,,,,,,0.7707,,0.4,0.6,0.6,0.4,0.2,0.8,0.2,0.8,,,1.2249,,0.6,0.4,0.2,0.8,0.6,0.4,0.2,0.8,1,0
,,5fbdc4f0784d3f225d8d96d1,66fc98528e542c2d44976e65,2024-10-01_20h58.09.927,mdp,2024.2.1,Win32,59.17159763,66fa4ebf79326e780c390304,,,,,,,,,,,,,,,,,,,,,918.7873,918.7873,918.7882,919.6195,1,1,right,0.3098,,919.6205,921.119,1,1,right,921.1201,922.3354,1,0,right,1,922.3354,922.3354,922.3361,923.8348,0,11,11,11,1,0.8,0.2,0.4,0.6,,,,,,,,,,,,,,,0.967,,0.4,0.6,0.6,0.4,0.2,0.8,0.2,0.8,,,0.6916,,0.6,0.4,0.2,0.8,0.6,0.4,0.2,0.8,1,0
,,5fbdc4f0784d3f225d8d96d1,66fc98528e542c2d44976e65,2024-10-01_20h58.09.927,mdp,2024.2.1,Win32,59.17159763,66fa4ebf79326e780c390304,,,,,,,,,,,,,,,,,,,,,923.8354,923.8354,923.8362,924.7516,1,1,right,0.3966,,924.7525,925.9182,1,1,right,925.919,927.301,1,1,right,0,927.3011,927.3011,927.3021,928.8005,0,12,12,12,1,0.8,0.2,0.4,0.6,,,,,,,,,,,,,,,0.634,,0.4,0.6,0.6,0.4,0.2,0.8,0.2,0.8,,,0.8502,,0.6,0.4,0.2,0.8,0.6,0.4,0.2,0.8,1,0
,,5fbdc4f0784d3f225d8d96d1,66fc98528e542c2d44976e65,2024-10-01_20h58.09.927,mdp,2024.2.1,Win32,59.17159763,66fa4ebf79326e780c390304,,,,,,,,,,,,,,,,,,,,,928.801,928.801,928.8019,929.6835,1,1,right,0.3511,,929.6843,930.8668,1,1,right,930.8677,931.7997,0,0,left,1,931.7998,931.7998,931.8003,933.2993,0,13,13,13,1,0.8,0.2,0.4,0.6,,,,,,,,,,,,,,,0.6609,,0.8,0.2,0.8,0.2,0.2,0.8,0.2,0.8,,,0.4,,0.6,0.4,0.2,0.8,0.6,0.4,0.2,0.8,1,0
,,5fbdc4f0784d3f225d8d96d1,66fc98528e542c2d44976e65,2024-10-01_20h58.09.927,mdp,2024.2.1,Win32,59.17159763,66fa4ebf79326e780c390304,,,,,,,,,,,,,,,,,,,,,933.2997,933.2997,933.3004,934.1989,1,1,right,0.373,,934.1998,935.2157,1,1,right,935.2165,936.3153,0,0,left,1,936.3154,936.3154,936.3162,937.8146,0,14,14,14,1,0.8,0.2,0.4,0.6,,,,,,,,,,,,,,,0.4839,,0.8,0.2,0.8,0.2,0.2,0.8,0.2,0.8,,,0.5767,,0.6,0.4,0.2,0.8,0.6,0.4,0.2,0.8,1,0
,,5fbdc4f0784d3f225d8d96d1,66fc98528e542c2d44976e65,2024-10-01_20h58.09.927,mdp,2024.2.1,Win32,59.17159763,66fa4ebf79326e780c390304,,,,,,,,,,,,,,,,,,,,,937.815,937.8151,937.8158,938.6982,1,0,right,0.3612,,938.6991,940.9308,0,1,left,940.9318,943.1803,0,0,left,1,943.1803,943.1803,943.1812,944.6791,0,15,15,15,1,0.8,0.2,0.4,0.6,,,,,,,,,,,,,,,1.6969,,0.8,0.2,0.8,0.2,0.2,0.8,0.2,0.8,,,1.7179,,0.6,0.4,0.2,0.8,0.6,0.4,0.2,0.8,1,0
,,5fbdc4f0784d3f225d8d96d1,66fc98528e542c2d44976e65,2024-10-01_20h58.09.927,mdp,2024.2.1,Win32,59.17159763,66fa4ebf79326e780c390304,,,,,,,,,,,,,,,,,,,,,944.6794,944.6794,944.6799,946.5124,1,0,right,1.3128,,946.5137,947.9788,0,0,left,947.9797,949.7615,1,0,right,1,949.7615,949.7615,949.7624,951.2611,0,16,16,16,1,0.8,0.2,0.4,0.6,,,,,,,,,,,,,,,0.9428,,0.8,0.2,0.8,0.2,0.2,0.8,0.2,0.8,,,1.2566,,0.6,0.4,0.2,0.8,0.6,0.4,0.2,0.8,1,0
,,5fbdc4f0784d3f225d8d96d1,66fc98528e542c2d44976e65,2024-10-01_20h58.09.927,mdp,2024.2.1,Win32,59.17159763,66fa4ebf79326e780c390304,,,,,,,,,,,,,,,,,,,,,951.2615,951.2616,951.2627,952.1612,1,1,right,0.3778,,952.1622,953.6161,1,1,right,953.6172,954.7443,0,1,left,0,954.7443,954.7443,954.7451,956.2432,0,17,17,17,1,0.8,0.2,0.4,0.6,,,,,,,,,,,,,,,0.9151,,0.6,0.4,0.2,0.8,0.2,0.8,0.2,0.8,,,0.5942,,0.6,0.4,0.2,0.8,0.6,0.4,0.2,0.8,1,0
,,5fbdc4f0784d3f225d8d96d1,66fc98528e542c2d44976e65,2024-10-01_20h58.09.927,mdp,2024.2.1,Win32,59.17159763,66fa4ebf79326e780c390304,,,,,,,,,,,,,,,,,,,,,956.2436,956.2436,956.2442,957.2101,1,0,right,0.4354,,957.2108,959.0428,0,0,left,959.0436,960.7424,1,1,right,0,960.7425,960.7425,960.7435,962.2422,0,18,18,18,1,0.8,0.2,0.4,0.6,,,,,,,,,,,,,,,1.318,,0.6,0.4,0.2,0.8,0.2,0.8,0.2,0.8,,,1.1612,,0.6,0.4,0.2,0.8,0.6,0.4,0.2,0.8,1,0
,,5fbdc4f0784d3f225d8d96d1,66fc98528e542c2d44976e65,2024-10-01_20h58.09.927,mdp,2024.2.1,Win32,59.17159763,66fa4ebf79326e780c390304,,,,,,,,,,,,,,,,,,,,,962.2425,962.2425,962.2434,963.1413,1,0,right,0.3737,,963.1419,965.0414,0,1,left,965.0424,966.5743,0,0,left,1,966.5744,966.5744,966.5754,968.0733,0,19,19,19,1,0.8,0.2,0.4,0.6,,,,,,,,,,,,,,,1.3862,,0.6,0.4,0.2,0.8,0.2,0.8,0.2,0.8,,,0.9939,,0.6,0.4,0.2,0.8,0.6,0.4,0.2,0.8,1,0
,,5fbdc4f0784d3f225d8d96d1,66fc98528e542c2d44976e65,2024-10-01_20h58.09.927,mdp,2024.2.1,Win32,59.17159763,66fa4ebf79326e780c390304,,,,,,,,,,,,,,,,,,,,,968.0736,968.0736,968.0745,968.8731,1,1,right,0.2702,,968.8742,970.8062,1,0,right,970.8071,971.6562,0,0,left,1,971.6564,971.6564,971.6574,973.1556,0,20,20,20,1,0.8,0.2,0.4,0.6,,,,,,,,,,,,,,,1.4005,,0.6,0.4,0.2,0.8,0.2,0.8,0.2,0.8,,,0.3214,,0.6,0.4,0.2,0.8,0.6,0.4,0.2,0.8,1,0
,,5fbdc4f0784d3f225d8d96d1,66fc98528e542c2d44976e65,2024-10-01_20h58.09.927,mdp,2024.2.1,Win32,59.17159763,66fa4ebf79326e780c390304,,,,,,,,,,,,,,,,,,,,,973.1561,973.1561,973.1568,973.8053,1,1,right,0.1164,,973.8063,974.7721,1,1,right,974.773,975.7048,0,0,left,1,975.705,975.705,975.7059,977.2046,0,21,21,21,1,0.8,0.2,0.4,0.6,,,,,,,,,,,,,,,0.4592,,0.4,0.6,0.8,0.2,0.2,0.8,0.2,0.8,,,0.3987,,0.6,0.4,0.2,0.8,0.6,0.4,0.2,0.8,1,0
,,5fbdc4f0784d3f225d8d96d1,66fc98528e542c2d44976e65,2024-10-01_20h58.09.927,mdp,2024.2.1,Win32,59.17159763,66fa4ebf79326e780c390304,,,,,,,,,,,,,,,,,,,,,977.2051,977.2051,977.2061,978.0712,1,1,right,0.3387,,978.0723,979.0041,1,1,right,979.005,980.0375,0,1,left,0,980.0377,980.0377,980.0389,981.5369,0,22,22,22,1,0.8,0.2,0.4,0.6,,,,,,,,,,,,,,,0.4087,,0.4,0.6,0.8,0.2,0.2,0.8,0.2,0.8,,,0.5169,,0.6,0.4,0.2,0.8,0.6,0.4,0.2,0.8,1,0
,,5fbdc4f0784d3f225d8d96d1,66fc98528e542c2d44976e65,2024-10-01_20h58.09.927,mdp,2024.2.1,Win32,59.17159763,66fa4ebf79326e780c390304,,,,,,,,,,,,,,,,,,,,,981.5376,981.5376,981.5387,982.5202,1,0,right,0.4554,,982.5215,984.1863,0,1,left,984.1873,985.7692,0,0,left,1,985.7693,985.7693,985.7701,987.2687,0,23,23,23,1,0.8,0.2,0.4,0.6,,,,,,,,,,,,,,,1.1299,,0.4,0.6,0.8,0.2,0.2,0.8,0.2,0.8,,,1.054,,0.6,0.4,0.2,0.8,0.6,0.4,0.2,0.8,1,0
,,5fbdc4f0784d3f225d8d96d1,66fc98528e542c2d44976e65,2024-10-01_20h58.09.927,mdp,2024.2.1,Win32,59.17159763,66fa4ebf79326e780c390304,,,,,,,,,,,,,,,,,,,,,987.2692,987.2692,987.2701,987.9521,1,0,right,0.1548,,987.9532,989.3184,0,0,left,989.3195,991.0509,1,1,right,0,991.051,991.051,991.0519,992.5507,0,24,24,24,1,0.8,0.2,0.4,0.6,,,,,,,,,,,,,,,0.8349,,0.4,0.6,0.8,0.2,0.2,0.8,0.2,0.8,,,1.2047,,0.6,0.4,0.2,0.8,0.6,0.4,0.2,0.8,1,0
,,5fbdc4f0784d3f225d8d96d1,66fc98528e542c2d44976e65,2024-10-01_20h58.09.927,mdp,2024.2.1,Win32,59.17159763,66fa4ebf79326e780c390304,,,,,,,,,,,,,,,,,,,,,992.5512,992.5512,992.5521,993.6167,1,1,right,0.5445,,993.6173,994.9332,1,1,right,994.9343,996.05,0,0,left,1,996.0501,996.0502,996.051,997.5494,0,25,25,25,1,0.8,0.2,0.4,0.6,,,,,,,,,,,,,,,0.8028,,0.4,0.6,0.8,0.2,0.2,0.8,0.2,0.8,,,0.6047,,0.6,0.4,0.2,0.8,0.6,0.4,0.2,0.8,1,0
,,5fbdc4f0784d3f225d8d96d1,66fc98528e542c2d44976e65,2024-10-01_20h58.09.927,mdp,2024.2.1,Win32,59.17159763,66fa4ebf79326e780c390304,,,,,,,,,,,,,,,,,,,,,997.55,997.55,997.5508,998.4325,1,1,right,0.3536,,998.4336,999.3825,1,1,right,999.3837,1000.2988,0,0,left,1,1000.2988,1000.2989,1000.2999,1001.7985,0,26,26,26,1,0.8,0.2,0.4,0.6,,,,,,,,,,,,,,,0.4165,,0.4,0.6,0.8,0.2,0.2,0.8,0.2,0.8,,,0.3856,,0.6,0.4,0.2,0.8,0.6,0.4,0.2,0.8,1,0
,,5fbdc4f0784d3f225d8d96d1,66fc98528e542c2d44976e65,2024-10-01_20h58.09.927,mdp,2024.2.1,Win32,59.17159763,66fa4ebf79326e780c390304,,,,,,,,,,,,,,,,,,,,,1001.7993,1001.7993,1001.8002,1002.3316,1,0,right,0.0019,,1002.3326,1003.748,0,0,left,1003.7493,1005.347,0,1,left,0,1005.3471,1005.3471,1005.3476,1006.8467,0,27,27,27,1,0.4,0.6,0.8,0.2,,,,,,,,,,,,,,,0.8804,,0.4,0.6,0.8,0.2,0.2,0.8,0.2,0.8,,,1.0603,,0.6,0.4,0.2,0.8,0.6,0.4,0.2,0.8,1,0
,,5fbdc4f0784d3f225d8d96d1,66fc98528e542c2d44976e65,2024-10-01_20h58.09.927,mdp,2024.2.1,Win32,59.17159763,66fa4ebf79326e780c390304,,,,,,,,,,,,,,,,,,,,,1006.8471,1006.8471,1006.8481,1007.4801,1,0,right,0.1128,,1007.4809,1008.8634,0,1,left,1008.8642,1010.0461,0,0,left,1,1010.0461,1010.0461,1010.0468,1011.546,0,28,28,28,1,0.4,0.6,0.8,0.2,,,,,,,,,,,,,,,0.8682,,0.4,0.6,0.8,0.2,0.2,0.8,0.2,0.8,,,0.6453,,0.6,0.4,0.2,0.8,0.6,0.4,0.2,0.8,1,0
,,5fbdc4f0784d3f225d8d96d1,66fc98528e542c2d44976e65,2024-10-01_20h58.09.927,mdp,2024.2.1,Win32,59.17159763,66fa4ebf79326e780c390304,,,,,,,,,,,,,,,,,,,,,1011.5464,1011.5464,1011.5472,1012.4955,1,0,right,0.4223,,1012.4964,1013.5958,0,0,left,1013.5971,1015.0117,1,1,right,0,1015.0117,1015.0117,1015.0126,1016.5109,0,29,29,29,1,0.4,0.6,0.8,0.2,,,,,,,,,,,,,,,0.5766,,0.4,0.6,0.8,0.2,0.2,0.8,0.2,0.8,,,0.8885,,0.6,0.4,0.2,0.8,0.6,0.4,0.2,0.8,1,0
,,5fbdc4f0784d3f225d8d96d1,66fc98528e542c2d44976e65,2024-10-01_20h58.09.927,mdp,2024.2.1,Win32,59.17159763,66fa4ebf79326e780c390304,,,,,,,,,,,,,,,,,,,,,1016.5114,1016.5114,1016.5123,1017.7108,1,0,right,0.6728,,1017.7117,1018.9772,0,1,left,1018.9782,1019.9602,0,1,left,0,1019.9602,1019.9602,1019.9608,1021.46,0,30,30,30,1,0.4,0.6,0.8,0.2,,,,,,,,,,,,,,,0.7371,,0.4,0.6,0.8,0.2,0.2,0.8,0.2,0.8,,,0.4567,,0.6,0.4,0.2,0.8,0.6,0.4,0.2,0.8,1,0
,,5fbdc4f0784d3f225d8d96d1,66fc98528e542c2d44976e65,2024-10-01_20h58.09.927,mdp,2024.2.1,Win32,59.17159763,66fa4ebf79326e780c390304,,,,,,,,,,,,,,,,,,,,,1021.4605,1021.4605,1021.4615,1022.5595,1,0,right,0.5804,,1022.5603,1023.7421,0,0,left,1023.7426,1025.3088,1,1,right,0,1025.3089,1025.3089,1025.3097,1026.8085,0,31,31,31,1,0.4,0.6,0.8,0.2,,,,,,,,,,,,,,,0.6485,,0.4,0.6,0.8,0.2,0.2,0.8,0.2,0.8,,,1.044,,0.6,0.4,0.2,0.8,0.6,0.4,0.2,0.8,1,0
,,5fbdc4f0784d3f225d8d96d1,66fc98528e542c2d44976e65,2024-10-01_20h58.09.927,mdp,2024.2.1,Win32,59.17159763,66fa4ebf79326e780c390304,,,,,,,,,,,,,,,,,,,,,1026.8089,1026.809,1026.8098,1028.5249,1,0,right,1.1864,,1028.5259,1029.858,0,0,left,1029.8589,1031.3407,1,1,right,0,1031.3407,1031.3407,1031.3417,1032.8403,0,32,32,32,1,0.4,0.6,0.8,0.2,,,,,,,,,,,,,,,0.8112,,0.4,0.6,0.8,0.2,0.2,0.8,0.2,0.8,,,0.9585,,0.6,0.4,0.2,0.8,0.6,0.4,0.2,0.8,1,0
,,5fbdc4f0784d3f225d8d96d1,66fc98528e542c2d44976e65,2024-10-01_20h58.09.927,mdp,2024.2.1,Win32,59.17159763,66fa4ebf79326e780c390304,,,,,,,,,,,,,,,,,,,,,1032.8408,1032.8408,1032.8415,1034.1902,0,1,left,0.8158,,1034.1909,1036.1227,1,1,right,1036.1238,1037.239,0,0,left,1,1037.2391,1037.2391,1037.2401,1038.7387,0,33,33,33,1,0.4,0.6,0.8,0.2,,,,,,,,,,,,,,,1.4038,,0.4,0.6,0.8,0.2,0.2,0.8,0.2,0.8,,,0.5782,,0.6,0.4,0.2,0.8,0.6,0.4,0.2,0.8,1,0
,,5fbdc4f0784d3f225d8d96d1,66fc98528e542c2d44976e65,2024-10-01_20h58.09.927,mdp,2024.2.1,Win32,59.17159763,66fa4ebf79326e780c390304,,,,,,,,,,,,,,,,,,,,,1038.739,1038.739,1038.7397,1039.2886,0,1,left,0.0209,,1039.2896,1040.5049,1,1,right,1040.506,1041.5215,0,0,left,1,1041.5216,1041.5216,1041.5227,1043.0212,0,34,34,34,1,0.4,0.6,0.8,0.2,,,,,,,,,,,,,,,0.6955,,0.4,0.6,0.8,0.2,0.2,0.8,0.2,0.8,,,0.4951,,0.6,0.4,0.2,0.8,0.6,0.4,0.2,0.8,1,0
,,5fbdc4f0784d3f225d8d96d1,66fc98528e542c2d44976e65,2024-10-01_20h58.09.927,mdp,2024.2.1,Win32,59.17159763,66fa4ebf79326e780c390304,,,,,,,,,,,,,,,,,,,,,1043.0216,1043.0216,1043.0226,1043.8209,0,0,left,0.2738,,1043.8215,1045.4541,0,1,left,1045.4549,1046.7033,0,0,left,1,1046.7034,1046.7034,1046.7041,1048.2028,0,35,35,35,1,0.4,0.6,0.8,0.2,,,,,,,,,,,,,,,1.0925,,0.4,0.6,0.8,0.2,0.2,0.8,0.2,0.8,,,0.7173,,0.6,0.4,0.2,0.8,0.6,0.4,0.2,0.8,1,0
,,5fbdc4f0784d3f225d8d96d1,66fc98528e542c2d44976e65,2024-10-01_20h58.09.927,mdp,2024.2.1,Win32,59.17159763,66fa4ebf79326e780c390304,,,,,,,,,,,,,,,,,,,,,1048.2032,1048.2033,1048.2042,1049.3359,0,0,left,0.6054,,1049.3368,1050.3857,0,0,left,1050.3864,1051.8352,1,0,right,1,1051.8352,1051.8352,1051.8359,1053.3347,0,36,36,36,1,0.4,0.6,0.8,0.2,,,,,,,,,,,,,,,0.5206,,0.4,0.6,0.8,0.2,0.2,0.8,0.2,0.8,,,0.9144,,0.6,0.4,0.2,0.8,0.6,0.4,0.2,0.8,1,0
,,5fbdc4f0784d3f225d8d96d1,66fc98528e542c2d44976e65,2024-10-01_20h58.09.927,mdp,2024.2.1,Win32,59.17159763,66fa4ebf79326e780c390304,,,,,,,,,,,,,,,,,,,,,1053.3352,1053.3353,1053.3362,1054.4676,0,1,left,0.6088,,1054.4682,1055.7508,0,1,left,1055.7518,1056.8343,0,0,left,1,1056.8343,1056.8343,1056.8353,1058.3335,0,37,37,37,1,0.4,0.6,0.8,0.2,,,,,,,,,,,,,,,0.7688,,0.4,0.6,0.8,0.2,0.2,0.8,0.2,0.8,,,0.5553,,0.8,0.2,0.8,0.2,0.6,0.4,0.2,0.8,1,0
,,5fbdc4f0784d3f225d8d96d1,66fc98528e542c2d44976e65,2024-10-01_20h58.09.927,mdp,2024.2.1,Win32,59.17159763,66fa4ebf79326e780c390304,,,,,,,,,,,,,,,,,,,,,1058.334,1058.3341,1058.3349,1059.533,0,0,left,0.6741,,1059.534,1060.8998,0,0,left,1060.9007,1062.0496,1,0,right,1,1062.0497,1062.0498,1062.0506,1063.5491,0,38,38,38,1,0.4,0.6,0.8,0.2,,,,,,,,,,,,,,,0.8528,,0.4,0.6,0.8,0.2,0.2,0.8,0.2,0.8,,,0.6146,,0.8,0.2,0.8,0.2,0.6,0.4,0.2,0.8,1,0
,,5fbdc4f0784d3f225d8d96d1,66fc98528e542c2d44976e65,2024-10-01_20h58.09.927,mdp,2024.2.1,Win32,59.17159763,66fa4ebf79326e780c390304,,,,,,,,,,,,,,,,,,,,,1063.5495,1063.5495,1063.5505,1064.4155,0,0,left,0.3472,,1064.4163,1065.765,0,1,left,1065.7662,1066.7148,1,1,right,0,1066.7149,1066.7149,1066.7159,1068.2146,0,39,39,39,1,0.4,0.6,0.8,0.2,,,,,,,,,,,,,,,0.8164,,0.4,0.6,0.8,0.2,0.8,0.2,0.6,0.4,,,0.4188,,0.8,0.2,0.8,0.2,0.6,0.4,0.2,0.8,1,0
,,5fbdc4f0784d3f225d8d96d1,66fc98528e542c2d44976e65,2024-10-01_20h58.09.927,mdp,2024.2.1,Win32,59.17159763,66fa4ebf79326e780c390304,,,,,,,,,,,,,,,,,,,,,1068.2152,1068.2152,1068.2162,1069.0311,1,1,right,0.2897,,1069.0325,1070.3642,1,1,right,1070.3654,1071.2639,0,0,left,1,1071.264,1071.264,1071.2652,1072.763,0,40,40,40,1,0.4,0.6,0.8,0.2,,,,,,,,,,,,,,,0.7986,,0.4,0.6,0.8,0.2,0.8,0.2,0.6,0.4,,,0.3678,,0.8,0.2,0.8,0.2,0.6,0.4,0.2,0.8,1,0
,,5fbdc4f0784d3f225d8d96d1,66fc98528e542c2d44976e65,2024-10-01_20h58.09.927,mdp,2024.2.1,Win32,59.17159763,66fa4ebf79326e780c390304,,,,,,,,,,,,,,,,,,,,,1072.7635,1072.7635,1072.7645,1073.6631,1,0,right,0.3722,,1073.664,1075.1628,0,0,left,1075.1639,1076.4124,1,0,right,1,1076.4125,1076.4125,1076.4133,1077.9121,0,41,41,41,1,0.4,0.6,0.8,0.2,,,,,,,,,,,,,,,0.9688,,0.4,0.6,0.8,0.2,0.8,0.2,0.6,0.4,,,0.709,,0.8,0.2,0.8,0.2,0.6,0.4,0.2,0.8,1,0
,,5fbdc4f0784d3f225d8d96d1,66fc98528e542c2d44976e65,2024-10-01_20h58.09.927,mdp,2024.2.1,Win32,59.17159763,66fa4ebf79326e780c390304,,,,,,,,,,,,,,,,,,,,,1077.9125,1077.9125,1077.9133,1078.9619,1,0,right,0.52,,1078.9627,1080.8114,0,1,left,1080.8125,1081.8778,0,0,left,1,1081.8779,1081.8779,1081.8788,1083.3775,0,42,42,42,1,0.4,0.6,0.8,0.2,,,,,,,,,,,,,,,1.3264,,0.4,0.6,0.8,0.2,0.8,0.2,0.6,0.4,,,0.5269,,0.8,0.2,0.8,0.2,0.6,0.4,0.2,0.8,1,0
,,5fbdc4f0784d3f225d8d96d1,66fc98528e542c2d44976e65,2024-10-01_20h58.09.927,mdp,2024.2.1,Win32,59.17159763,66fa4ebf79326e780c390304,,,,,,,,,,,,,,,,,,,,,1083.378,1083.378,1083.3793,1084.2439,1,0,right,0.3335,,1084.2448,1085.1934,0,0,left,1085.1944,1086.6933,1,0,right,1,1086.6933,1086.6933,1086.6941,1088.1926,0,43,43,43,1,0.4,0.6,0.8,0.2,,,,,,,,,,,,,,,0.4291,,0.4,0.6,0.8,0.2,0.8,0.2,0.6,0.4,,,0.9596,,0.8,0.2,0.8,0.2,0.6,0.4,0.2,0.8,1,0
,,5fbdc4f0784d3f225d8d96d1,66fc98528e542c2d44976e65,2024-10-01_20h58.09.927,mdp,2024.2.1,Win32,59.17159763,66fa4ebf79326e780c390304,,,,,,,,,,,,,,,,,,,,,1088.193,1088.193,1088.194,1089.1094,1,0,right,0.3918,,1089.1105,1090.2253,0,0,left,1090.2264,1091.292,1,0,right,1,1091.292,1091.292,1091.2928,1092.7916,0,44,44,44,1,0.4,0.6,0.8,0.2,,,,,,,,,,,,,,,0.5869,,0.6,0.4,0.6,0.4,0.8,0.2,0.6,0.4,,,0.5361,,0.8,0.2,0.8,0.2,0.6,0.4,0.2,0.8,1,0
,,5fbdc4f0784d3f225d8d96d1,66fc98528e542c2d44976e65,2024-10-01_20h58.09.927,mdp,2024.2.1,Win32,59.17159763,66fa4ebf79326e780c390304,,,,,,,,,,,,,,,,,,,,,1092.7921,1092.7921,1092.7931,1094.091,1,0,right,0.7771,,1094.0918,1095.2075,0,0,left,1095.2083,1096.3741,1,0,right,1,1096.3741,1096.3741,1096.3749,1097.8734,0,45,45,45,1,0.4,0.6,0.8,0.2,,,,,,,,,,,,,,,0.5972,,0.6,0.4,0.6,0.4,0.8,0.2,0.6,0.4,,,0.6332,,0.8,0.2,0.8,0.2,0.6,0.4,0.2,0.8,1,0
,,5fbdc4f0784d3f225d8d96d1,66fc98528e542c2d44976e65,2024-10-01_20h58.09.927,mdp,2024.2.1,Win32,59.17159763,66fa4ebf79326e780c390304,,,,,,,,,,,,,,,,,,,,,1097.874,1097.874,1097.8748,1098.7569,1,0,right,0.3589,,1098.7578,1099.9562,0,1,left,1099.9571,1101.256,0,0,left,1,1101.2561,1101.2561,1101.2568,1102.7555,0,46,46,46,1,0.4,0.6,0.8,0.2,,,,,,,,,,,,,,,0.6676,,0.6,0.4,0.6,0.4,0.8,0.2,0.6,0.4,,,0.7676,,0.8,0.2,0.8,0.2,0.6,0.4,0.2,0.8,1,0
,,5fbdc4f0784d3f225d8d96d1,66fc98528e542c2d44976e65,2024-10-01_20h58.09.927,mdp,2024.2.1,Win32,59.17159763,66fa4ebf79326e780c390304,,,,,,,,,,,,,,,,,,,,,1102.7558,1102.7558,1102.7568,1103.5721,1,0,right,0.2845,,1103.5731,1104.5884,0,1,left,1104.5894,1105.5051,0,1,left,0,1105.5052,1105.5052,1105.5062,1107.0044,0,47,47,47,1,0.4,0.6,0.8,0.2,,,,,,,,,,,,,,,0.4839,,0.6,0.4,0.6,0.4,0.8,0.2,0.6,0.4,,,0.3947,,0.8,0.2,0.8,0.2,0.6,0.4,0.2,0.8,1,0
,,5fbdc4f0784d3f225d8d96d1,66fc98528e542c2d44976e65,2024-10-01_20h58.09.927,mdp,2024.2.1,Win32,59.17159763,66fa4ebf79326e780c390304,,,,,,,,,,,,,,,,,,,,,1107.005,1107.005,1107.006,1107.7378,1,0,right,0.2029,,1107.7385,1108.9207,0,1,left,1108.9216,1110.1871,0,0,left,1,1110.1872,1110.1872,1110.1879,1111.6866,0,48,48,48,1,0.4,0.6,0.8,0.2,,,,,,,,,,,,,,,0.6549,,0.6,0.4,0.6,0.4,0.8,0.2,0.6,0.4,,,0.7352,,0.8,0.2,0.8,0.2,0.6,0.4,0.2,0.8,1,0
,,5fbdc4f0784d3f225d8d96d1,66fc98528e542c2d44976e65,2024-10-01_20h58.09.927,mdp,2024.2.1,Win32,59.17159763,66fa4ebf79326e780c390304,,,,,,,,,,,,,,,,,,,,,1111.6869,1111.687,1111.6878,1112.6528,1,0,right,0.4339,,1112.6541,1113.6691,0,0,left,1113.6696,1114.8361,1,1,right,0,1114.8361,1114.8361,1114.837,1116.3352,0,49,49,49,1,0.4,0.6,0.8,0.2,,,,,,,,,,,,,,,0.4895,,0.6,0.4,0.6,0.4,0.8,0.2,0.6,0.4,,,0.6457,,0.8,0.2,0.8,0.2,0.6,0.4,0.2,0.8,1,0
,,5fbdc4f0784d3f225d8d96d1,66fc98528e542c2d44976e65,2024-10-01_20h58.09.927,mdp,2024.2.1,Win32,59.17159763,66fa4ebf79326e780c390304,,,,,,,,,,,,,,,,,,,,,,,,,,,,,,,,,,,,,,,,,,,,,,,,,,,,,,,,1116.3353,1174.8371,0,2,2,4,1,imgs/elephant.png,imgs/giraffe.png,imgs/bear.png,imgs/kangaroo.png,imgs/goat.png,,,,,,,,,,,,,,,,,,,,,,,,
,,5fbdc4f0784d3f225d8d96d1,66fc98528e542c2d44976e65,2024-10-01_20h58.09.927,mdp,2024.2.1,Win32,59.17159763,66fa4ebf79326e780c390304,,,,,,,,,,,,,,3,seqs/st3seq30.csv,1174.8375,1266.4299,space,91.0666,,1266.4362,1266.4362,1266.4369,1268.1464,0,1,left,1.18,,1268.1474,1269.779,0,1,left,1269.7798,1272.045,0,1,left,0,1272.0451,1272.0451,1272.046,1273.5447,0,0,0,0,1,0.8,0.2,0.2,0.8,,,,,,,,,,,,,,,1.0934,,0.6,0.4,0.8,0.2,0.8,0.2,0.4,0.6,,,1.7353,,0.2,0.8,0.8,0.2,0.4,0.6,0.8,0.2,1,0
,,5fbdc4f0784d3f225d8d96d1,66fc98528e542c2d44976e65,2024-10-01_20h58.09.927,mdp,2024.2.1,Win32,59.17159763,66fa4ebf79326e780c390304,,,,,,,,,,,,,,,,,,,,,1273.5453,1273.5453,1273.5464,1274.3782,0,0,left,0.311,,1274.3793,1276.6107,1,0,right,1276.6118,1277.9102,1,0,right,1,1277.9103,1277.9103,1277.911,1279.4102,0,1,1,1,1,0.8,0.2,0.2,0.8,,,,,,,,,,,,,,,1.707,,0.6,0.4,0.8,0.2,0.8,0.2,0.4,0.6,,,0.7597,,0.2,0.8,0.8,0.2,0.4,0.6,0.8,0.2,1,0
,,5fbdc4f0784d3f225d8d96d1,66fc98528e542c2d44976e65,2024-10-01_20h58.09.927,mdp,2024.2.1,Win32,59.17159763,66fa4ebf79326e780c390304,,,,,,,,,,,,,,,,,,,,,1279.4105,1279.4105,1279.4113,1280.4267,0,0,left,0.4939,,1280.4278,1281.8595,1,0,right,1281.8603,1282.776,1,1,right,0,1282.776,1282.776,1282.7769,1284.2752,0,2,2,2,1,0.8,0.2,0.2,0.8,,,,,,,,,,,,,,,0.9099,,0.6,0.4,0.8,0.2,0.8,0.2,0.4,0.6,,,0.3834,,0.2,0.8,0.8,0.2,0.4,0.6,0.8,0.2,1,0
,,5fbdc4f0784d3f225d8d96d1,66fc98528e542c2d44976e65,2024-10-01_20h58.09.927,mdp,2024.2.1,Win32,59.17159763,66fa4ebf79326e780c390304,,,,,,,,,,,,,,,,,,,,,1284.2757,1284.2758,1284.2765,1285.2253,0,0,left,0.4206,,1285.2266,1286.5083,1,0,right,1286.5092,1287.4911,1,0,right,1,1287.4912,1287.4912,1287.492,1288.9906,0,3,3,3,1,0.8,0.2,0.2,0.8,,,,,,,,,,,,,,,0.7494,,0.6,0.4,0.8,0.2,0.8,0.2,0.4,0.6,,,0.4519,,0.2,0.8,0.8,0.2,0.4,0.6,0.8,0.2,1,0
,,5fbdc4f0784d3f225d8d96d1,66fc98528e542c2d44976e65,2024-10-01_20h58.09.927,mdp,2024.2.1,Win32,59.17159763,66fa4ebf79326e780c390304,,,,,,,,,,,,,,,,,,,,,1288.991,1288.991,1288.9919,1289.9073,0,0,left,0.3934,,1289.9083,1290.8906,1,0,right,1290.8915,1291.8231,1,0,right,1,1291.8231,1291.8231,1291.8237,1293.3229,0,4,4,4,1,0.8,0.2,0.2,0.8,,,,,,,,,,,,,,,0.4528,,0.6,0.4,0.8,0.2,0.8,0.2,0.4,0.6,,,0.4057,,0.2,0.8,0.8,0.2,0.4,0.6,0.8,0.2,1,0
,,5fbdc4f0784d3f225d8d96d1,66fc98528e542c2d44976e65,2024-10-01_20h58.09.927,mdp,2024.2.1,Win32,59.17159763,66fa4ebf79326e780c390304,,,,,,,,,,,,,,,,,,,,,1293.3232,1293.3232,1293.324,1294.0397,0,0,left,0.1891,,1294.0405,1295.0395,1,1,right,1295.0402,1296.4053,0,1,left,0,1296.4054,1296.4054,1296.4065,1297.9055,0,5,5,5,1,0.8,0.2,0.2,0.8,,,,,,,,,,,,,,,0.4808,,0.6,0.4,0.8,0.2,0.8,0.2,0.4,0.6,,,0.8338,,0.2,0.8,0.8,0.2,0.6,0.4,0.4,0.6,1,0
,,5fbdc4f0784d3f225d8d96d1,66fc98528e542c2d44976e65,2024-10-01_20h58.09.927,mdp,2024.2.1,Win32,59.17159763,66fa4ebf79326e780c390304,,,,,,,,,,,,,,,,,,,,,1297.9062,1297.9063,1297.9078,1298.7714,0,0,left,0.3337,,1298.7728,1300.2046,1,0,right,1300.2056,1301.2213,1,0,right,1,1301.2213,1301.2213,1301.2223,1302.7208,0,6,6,6,1,0.8,0.2,0.2,0.8,,,,,,,,,,,,,,,0.9168,,0.6,0.4,0.8,0.2,0.8,0.2,0.4,0.6,,,0.4785,,0.2,0.8,0.8,0.2,0.6,0.4,0.4,0.6,1,0
,,5fbdc4f0784d3f225d8d96d1,66fc98528e542c2d44976e65,2024-10-01_20h58.09.927,mdp,2024.2.1,Win32,59.17159763,66fa4ebf79326e780c390304,,,,,,,,,,,,,,,,,,,,,1302.7211,1302.7211,1302.7219,1303.504,0,0,left,0.263,,1303.5052,1304.4533,1,0,right,1304.4544,1305.3531,1,0,right,1,1305.3532,1305.3532,1305.3543,1306.8526,0,7,7,7,1,0.8,0.2,0.2,0.8,,,,,,,,,,,,,,,0.4174,,0.6,0.4,0.8,0.2,0.8,0.2,0.4,0.6,,,0.3941,,0.2,0.8,0.8,0.2,0.6,0.4,0.4,0.6,1,0
,,5fbdc4f0784d3f225d8d96d1,66fc98528e542c2d44976e65,2024-10-01_20h58.09.927,mdp,2024.2.1,Win32,59.17159763,66fa4ebf79326e780c390304,,,,,,,,,,,,,,,,,,,,,1306.8531,1306.8531,1306.8539,1307.5025,0,0,left,0.1234,,1307.5035,1308.2693,1,0,right,1308.2705,1309.1689,1,0,right,1,1309.169,1309.169,1309.1701,1310.6686,0,8,8,8,1,0.8,0.2,0.2,0.8,,,,,,,,,,,,,,,0.2581,,0.6,0.4,0.8,0.2,0.8,0.2,0.4,0.6,,,0.377,,0.2,0.8,0.8,0.2,0.6,0.4,0.4,0.6,1,0
,,5fbdc4f0784d3f225d8d96d1,66fc98528e542c2d44976e65,2024-10-01_20h58.09.927,mdp,2024.2.1,Win32,59.17159763,66fa4ebf79326e780c390304,,,,,,,,,,,,,,,,,,,,,1310.669,1310.669,1310.6698,1312.4345,0,0,left,1.2427,,1312.4353,1313.4844,1,0,right,1313.4853,1314.5675,1,0,right,1,1314.5676,1314.5676,1314.5684,1316.0671,0,9,9,9,1,0.8,0.2,0.2,0.8,,,,,,,,,,,,,,,0.5174,,0.6,0.4,0.8,0.2,0.8,0.2,0.4,0.6,,,0.5528,,0.2,0.8,0.8,0.2,0.6,0.4,0.4,0.6,1,0
,,5fbdc4f0784d3f225d8d96d1,66fc98528e542c2d44976e65,2024-10-01_20h58.09.927,mdp,2024.2.1,Win32,59.17159763,66fa4ebf79326e780c390304,,,,,,,,,,,,,,,,,,,,,1316.0674,1316.0675,1316.0682,1316.717,0,0,left,0.1161,,1316.7179,1317.5667,1,0,right,1317.5671,1318.4333,1,1,right,0,1318.4333,1318.4334,1318.4344,1319.9327,0,10,10,10,1,0.8,0.2,0.2,0.8,,,,,,,,,,,,,,,0.3161,,0.6,0.4,0.8,0.2,0.8,0.2,0.4,0.6,,,0.3447,,0.2,0.8,0.8,0.2,0.6,0.4,0.4,0.6,1,0
,,5fbdc4f0784d3f225d8d96d1,66fc98528e542c2d44976e65,2024-10-01_20h58.09.927,mdp,2024.2.1,Win32,59.17159763,66fa4ebf79326e780c390304,,,,,,,,,,,,,,,,,,,,,1319.9331,1319.9331,1319.9339,1320.8494,0,0,left,0.3871,,1320.8503,1322.0655,1,1,right,1322.0665,1324.3148,1,1,right,0,1324.3149,1324.3149,1324.3154,1325.8145,0,11,11,11,1,0.8,0.2,0.2,0.8,,,,,,,,,,,,,,,0.6952,,0.8,0.2,0.2,0.8,0.8,0.2,0.4,0.6,,,1.7203,,0.2,0.8,0.8,0.2,0.6,0.4,0.4,0.6,1,0
,,5fbdc4f0784d3f225d8d96d1,66fc98528e542c2d44976e65,2024-10-01_20h58.09.927,mdp,2024.2.1,Win32,59.17159763,66fa4ebf79326e780c390304,,,,,,,,,,,,,,,,,,,,,1325.8149,1325.8149,1325.8158,1326.6143,0,1,left,0.2727,,1326.6152,1328.7473,1,1,right,1328.7481,1330.1135,0,1,left,0,1330.1137,1330.1137,1330.1146,1331.6132,0,12,12,12,1,0.8,0.2,0.2,0.8,,,,,,,,,,,,,,,1.6105,,0.8,0.2,0.2,0.8,0.8,0.2,0.4,0.6,,,0.8365,,0.8,0.2,0.6,0.4,0.6,0.4,0.4,0.6,1,0
,,5fbdc4f0784d3f225d8d96d1,66fc98528e542c2d44976e65,2024-10-01_20h58.09.927,mdp,2024.2.1,Win32,59.17159763,66fa4ebf79326e780c390304,,,,,,,,,,,,,,,,,,,,,1331.614,1331.6141,1331.6149,1332.4799,0,1,left,0.3325,,1332.4808,1334.2626,0,0,left,1334.2635,1335.312,1,1,right,0,1335.312,1335.312,1335.3127,1336.8118,0,13,13,13,1,0.8,0.2,0.2,0.8,,,,,,,,,,,,,,,1.2499,,0.8,0.2,0.2,0.8,0.8,0.2,0.4,0.6,,,0.5231,,0.8,0.2,0.6,0.4,0.6,0.4,0.4,0.6,1,0
,,5fbdc4f0784d3f225d8d96d1,66fc98528e542c2d44976e65,2024-10-01_20h58.09.927,mdp,2024.2.1,Win32,59.17159763,66fa4ebf79326e780c390304,,,,,,,,,,,,,,,,,,,,,1336.8123,1336.8123,1336.8131,1337.6449,0,0,left,0.3029,,1337.6461,1338.7109,1,1,right,1338.7118,1340.6276,0,1,left,0,1340.6277,1340.6277,1340.6284,1342.1273,0,14,14,14,1,0.8,0.2,0.2,0.8,,,,,,,,,,,,,,,0.528,,0.8,0.2,0.2,0.8,0.8,0.2,0.4,0.6,,,1.3978,,0.8,0.2,0.6,0.4,0.6,0.4,0.4,0.6,1,0
,,5fbdc4f0784d3f225d8d96d1,66fc98528e542c2d44976e65,2024-10-01_20h58.09.927,mdp,2024.2.1,Win32,59.17159763,66fa4ebf79326e780c390304,,,,,,,,,,,,,,,,,,,,,1342.1277,1342.1277,1342.1287,1342.8604,0,0,left,0.209,,1342.8613,1344.4098,1,1,right,1344.411,1345.7597,0,1,left,0,1345.7597,1345.7597,1345.7607,1347.2587,0,15,15,15,1,0.8,0.2,0.2,0.8,,,,,,,,,,,,,,,1.0189,,0.8,0.2,0.2,0.8,0.8,0.2,0.4,0.6,,,0.8387,,0.8,0.2,0.6,0.4,0.6,0.4,0.4,0.6,1,0
,,5fbdc4f0784d3f225d8d96d1,66fc98528e542c2d44976e65,2024-10-01_20h58.09.927,mdp,2024.2.1,Win32,59.17159763,66fa4ebf79326e780c390304,,,,,,,,,,,,,,,,,,,,,1347.2589,1347.2589,1347.2595,1348.175,0,1,left,0.3888,,1348.1756,1350.5751,0,0,left,1350.576,1351.6415,1,1,right,0,1351.6416,1351.6416,1351.6424,1353.141,0,16,16,16,1,0.8,0.2,0.2,0.8,,,,,,,,,,,,,,,1.8688,,0.8,0.2,0.2,0.8,0.8,0.2,0.4,0.6,,,0.538,,0.8,0.2,0.6,0.4,0.6,0.4,0.4,0.6,1,0
,,5fbdc4f0784d3f225d8d96d1,66fc98528e542c2d44976e65,2024-10-01_20h58.09.927,mdp,2024.2.1,Win32,59.17159763,66fa4ebf79326e780c390304,,,,,,,,,,,,,,,,,,,,,1353.1414,1353.1414,1353.1423,1353.8744,0,0,left,0.2014,,1353.8754,1354.7741,1,1,right,1354.7751,1356.2235,0,0,left,1,1356.2236,1356.2236,1356.2245,1357.723,0,17,17,17,1,0.8,0.2,0.2,0.8,,,,,,,,,,,,,,,0.3707,,0.8,0.2,0.2,0.8,0.8,0.2,0.4,0.6,,,0.9115,,0.8,0.2,0.6,0.4,0.6,0.4,0.4,0.6,1,0
,,5fbdc4f0784d3f225d8d96d1,66fc98528e542c2d44976e65,2024-10-01_20h58.09.927,mdp,2024.2.1,Win32,59.17159763,66fa4ebf79326e780c390304,,,,,,,,,,,,,,,,,,,,,1357.7234,1357.7234,1357.7245,1358.4558,0,0,left,0.2038,,1358.4563,1359.6226,0,0,left,1359.6238,1360.6557,1,1,right,0,1360.6558,1360.6558,1360.6571,1362.1552,0,18,18,18,1,0.8,0.2,0.2,0.8,,,,,,,,,,,,,,,0.6498,,0.8,0.2,0.2,0.8,0.8,0.2,0.4,0.6,,,0.4966,,0.8,0.2,0.6,0.4,0.6,0.4,0.4,0.6,1,0
,,5fbdc4f0784d3f225d8d96d1,66fc98528e542c2d44976e65,2024-10-01_20h58.09.927,mdp,2024.2.1,Win32,59.17159763,66fa4ebf79326e780c390304,,,,,,,,,,,,,,,,,,,,,1362.1556,1362.1556,1362.1563,1363.0049,0,0,left,0.3172,,1363.0059,1363.9884,0,0,left,1363.9892,1365.7213,0,1,left,0,1365.7214,1365.7214,1365.7226,1367.2203,0,19,19,19,1,0.8,0.2,0.2,0.8,,,,,,,,,,,,,,,0.4675,,0.8,0.2,0.2,0.8,0.8,0.2,0.4,0.6,,,1.2117,,0.8,0.2,0.6,0.4,0.6,0.4,0.4,0.6,1,0
,,5fbdc4f0784d3f225d8d96d1,66fc98528e542c2d44976e65,2024-10-01_20h58.09.927,mdp,2024.2.1,Win32,59.17159763,66fa4ebf79326e780c390304,,,,,,,,,,,,,,,,,,,,,1367.2206,1367.2207,1367.2216,1367.9705,0,0,left,0.2203,,1367.9715,1369.0371,0,0,left,1369.0382,1369.9367,1,1,right,0,1369.9367,1369.9367,1369.9373,1371.4359,0,20,20,20,1,0.8,0.2,0.2,0.8,,,,,,,,,,,,,,,0.5338,,0.8,0.2,0.2,0.8,0.8,0.2,0.4,0.6,,,0.3714,,0.8,0.2,0.6,0.4,0.6,0.4,0.4,0.6,1,0
,,5fbdc4f0784d3f225d8d96d1,66fc98528e542c2d44976e65,2024-10-01_20h58.09.927,mdp,2024.2.1,Win32,59.17159763,66fa4ebf79326e780c390304,,,,,,,,,,,,,,,,,,,,,1371.4363,1371.4363,1371.4371,1372.6527,0,0,left,0.683,,1372.6536,1374.1524,0,0,left,1374.1532,1375.1521,1,0,right,1,1375.1522,1375.1522,1375.153,1376.6516,0,21,21,21,1,0.8,0.2,0.2,0.8,,,,,,,,,,,,,,,0.9709,,0.8,0.2,0.2,0.8,0.8,0.2,0.4,0.6,,,0.4661,,0.8,0.2,0.6,0.4,0.6,0.4,0.4,0.6,1,0
,,5fbdc4f0784d3f225d8d96d1,66fc98528e542c2d44976e65,2024-10-01_20h58.09.927,mdp,2024.2.1,Win32,59.17159763,66fa4ebf79326e780c390304,,,,,,,,,,,,,,,,,,,,,1376.6521,1376.6522,1376.6534,1377.4014,0,0,left,0.2209,,1377.4026,1378.5012,0,0,left,1378.502,1379.5011,1,1,right,0,1379.5011,1379.5011,1379.5021,1381.0005,0,22,22,22,1,0.8,0.2,0.2,0.8,,,,,,,,,,,,,,,0.5895,,0.8,0.2,0.2,0.8,0.8,0.2,0.4,0.6,,,0.4742,,0.8,0.2,0.6,0.4,0.6,0.4,0.4,0.6,1,0
,,5fbdc4f0784d3f225d8d96d1,66fc98528e542c2d44976e65,2024-10-01_20h58.09.927,mdp,2024.2.1,Win32,59.17159763,66fa4ebf79326e780c390304,,,,,,,,,,,,,,,,,,,,,1381.0009,1381.0009,1381.0018,1381.9505,0,0,left,0.416,,1381.9513,1382.7502,0,0,left,1382.7511,1384.5329,1,0,right,1,1384.533,1384.533,1384.534,1386.0325,0,23,23,23,1,0.8,0.2,0.2,0.8,,,,,,,,,,,,,,,0.2679,,0.8,0.2,0.2,0.8,0.8,0.2,0.4,0.6,,,1.2582,,0.8,0.2,0.6,0.4,0.6,0.4,0.4,0.6,1,0
,,5fbdc4f0784d3f225d8d96d1,66fc98528e542c2d44976e65,2024-10-01_20h58.09.927,mdp,2024.2.1,Win32,59.17159763,66fa4ebf79326e780c390304,,,,,,,,,,,,,,,,,,,,,1386.0329,1386.0329,1386.0339,1386.6988,0,1,left,0.1343,,1386.6998,1389.1318,0,0,left,1389.1324,1390.1815,1,0,right,1,1390.1818,1390.1818,1390.1825,1391.6812,0,24,24,24,1,0.8,0.2,0.2,0.8,,,,,,,,,,,,,,,1.8961,,0.8,0.2,0.2,0.8,0.8,0.2,0.4,0.6,,,0.5238,,0.8,0.2,0.6,0.4,0.6,0.4,0.4,0.6,1,0
,,5fbdc4f0784d3f225d8d96d1,66fc98528e542c2d44976e65,2024-10-01_20h58.09.927,mdp,2024.2.1,Win32,59.17159763,66fa4ebf79326e780c390304,,,,,,,,,,,,,,,,,,,,,1391.6819,1391.6819,1391.6829,1392.3811,0,0,left,0.1678,,1392.3827,1393.4471,0,0,left,1393.4477,1394.4469,1,0,right,1,1394.447,1394.4471,1394.4483,1395.9465,0,25,25,25,1,0.8,0.2,0.2,0.8,,,,,,,,,,,,,,,0.5234,,0.8,0.2,0.2,0.8,0.8,0.2,0.4,0.6,,,0.4732,,0.8,0.2,0.6,0.4,0.6,0.4,0.4,0.6,1,0
,,5fbdc4f0784d3f225d8d96d1,66fc98528e542c2d44976e65,2024-10-01_20h58.09.927,mdp,2024.2.1,Win32,59.17159763,66fa4ebf79326e780c390304,,,,,,,,,,,,,,,,,,,,,1395.9469,1395.9469,1395.9479,1396.5966,0,0,left,0.1257,,1396.5976,1397.546,0,0,left,1397.547,1398.4962,1,0,right,1,1398.4962,1398.4962,1398.497,1399.9954,0,26,26,26,1,0.8,0.2,0.2,0.8,,,,,,,,,,,,,,,0.4197,,0.8,0.2,0.2,0.8,0.8,0.2,0.4,0.6,,,0.422,,0.8,0.2,0.6,0.4,0.6,0.4,0.4,0.6,1,0
,,5fbdc4f0784d3f225d8d96d1,66fc98528e542c2d44976e65,2024-10-01_20h58.09.927,mdp,2024.2.1,Win32,59.17159763,66fa4ebf79326e780c390304,,,,,,,,,,,,,,,,,,,,,1399.9959,1399.9959,1399.9967,1400.6452,0,1,left,0.1244,,1400.6462,1401.545,0,0,left,1401.5463,1402.5784,1,1,right,0,1402.5785,1402.5785,1402.5793,1404.078,0,27,27,27,1,0.8,0.2,0.2,0.8,,,,,,,,,,,,,,,0.366,,0.8,0.2,0.2,0.8,0.8,0.2,0.4,0.6,,,0.5016,,0.8,0.2,0.6,0.4,0.6,0.4,0.4,0.6,1,0
,,5fbdc4f0784d3f225d8d96d1,66fc98528e542c2d44976e65,2024-10-01_20h58.09.927,mdp,2024.2.1,Win32,59.17159763,66fa4ebf79326e780c390304,,,,,,,,,,,,,,,,,,,,,1404.0783,1404.0783,1404.0794,1404.8107,0,0,left,0.2017,,1404.8111,1406.4273,0,0,left,1406.4281,1407.3935,1,0,right,1,1407.3936,1407.3936,1407.3945,1408.8932,0,28,28,28,1,0.8,0.2,0.2,0.8,,,,,,,,,,,,,,,1.0866,,0.8,0.2,0.2,0.8,0.8,0.2,0.4,0.6,,,0.4368,,0.8,0.2,0.6,0.4,0.6,0.4,0.4,0.6,1,0
,,5fbdc4f0784d3f225d8d96d1,66fc98528e542c2d44976e65,2024-10-01_20h58.09.927,mdp,2024.2.1,Win32,59.17159763,66fa4ebf79326e780c390304,,,,,,,,,,,,,,,,,,,,,1408.8936,1408.8936,1408.8946,1409.6098,0,0,left,0.1945,,1409.6108,1410.7096,0,0,left,1410.7108,1411.5595,1,0,right,1,1411.5595,1411.5596,1411.5605,1413.0586,0,29,29,29,1,0.8,0.2,0.2,0.8,,,,,,,,,,,,,,,0.5673,,0.8,0.2,0.2,0.8,0.8,0.2,0.4,0.6,,,0.3225,,0.8,0.2,0.6,0.4,0.6,0.4,0.4,0.6,1,0
,,5fbdc4f0784d3f225d8d96d1,66fc98528e542c2d44976e65,2024-10-01_20h58.09.927,mdp,2024.2.1,Win32,59.17159763,66fa4ebf79326e780c390304,,,,,,,,,,,,,,,,,,,,,1413.059,1413.059,1413.0597,1413.9751,0,0,left,0.3901,,1413.9762,1414.9919,0,0,left,1414.9927,1415.9247,1,0,right,1,1415.9249,1415.9249,1415.9257,1417.4245,0,30,30,30,1,0.8,0.2,0.2,0.8,,,,,,,,,,,,,,,0.4887,,0.8,0.2,0.2,0.8,0.8,0.2,0.4,0.6,,,0.4083,,0.8,0.2,0.6,0.4,0.6,0.4,0.4,0.6,1,0
,,5fbdc4f0784d3f225d8d96d1,66fc98528e542c2d44976e65,2024-10-01_20h58.09.927,mdp,2024.2.1,Win32,59.17159763,66fa4ebf79326e780c390304,,,,,,,,,,,,,,,,,,,,,1417.4249,1417.4249,1417.4259,1418.0077,0,0,left,0.0556,,1418.0085,1419.0744,0,1,left,1419.0757,1420.1067,1,1,right,0,1420.1067,1420.1068,1420.1076,1421.6066,0,31,31,31,1,0.8,0.2,0.2,0.8,,,,,,,,,,,,,,,0.5456,,0.8,0.2,0.2,0.8,0.8,0.2,0.4,0.6,,,0.4976,,0.8,0.2,0.6,0.4,0.6,0.4,0.4,0.6,1,0
,,5fbdc4f0784d3f225d8d96d1,66fc98528e542c2d44976e65,2024-10-01_20h58.09.927,mdp,2024.2.1,Win32,59.17159763,66fa4ebf79326e780c390304,,,,,,,,,,,,,,,,,,,,,1421.6071,1421.6071,1421.6084,1422.2567,0,0,left,0.1298,,1422.2578,1423.3064,0,1,left,1423.3071,1424.6226,0,1,left,0,1424.6226,1424.6227,1424.6237,1426.1224,0,32,32,32,1,0.8,0.2,0.2,0.8,,,,,,,,,,,,,,,0.5188,,0.8,0.2,0.2,0.8,0.8,0.2,0.4,0.6,,,0.785,,0.8,0.2,0.6,0.4,0.6,0.4,0.4,0.6,1,0
,,5fbdc4f0784d3f225d8d96d1,66fc98528e542c2d44976e65,2024-10-01_20h58.09.927,mdp,2024.2.1,Win32,59.17159763,66fa4ebf79326e780c390304,,,,,,,,,,,,,,,,,,,,,1426.1228,1426.1228,1426.1237,1426.7909,0,0,left,0.1466,,1426.7921,1428.1882,1,1,right,1428.1889,1429.4572,1,1,right,0,1429.4573,1429.4573,1429.4581,1430.9541,0,33,33,33,1,0.8,0.2,0.2,0.8,,,,,,,,,,,,,,,0.8747,,0.8,0.2,0.2,0.8,0.8,0.2,0.4,0.6,,,0.7477,,0.8,0.2,0.6,0.4,0.6,0.4,0.4,0.6,1,0
,,5fbdc4f0784d3f225d8d96d1,66fc98528e542c2d44976e65,2024-10-01_20h58.09.927,mdp,2024.2.1,Win32,59.17159763,66fa4ebf79326e780c390304,,,,,,,,,,,,,,,,,,,,,1430.9545,1430.9545,1430.9567,1432.4375,0,0,left,0.9587,,1432.4388,1433.4372,0,0,left,1433.4391,1434.9365,1,0,right,1,1434.9366,1434.9366,1434.938,1436.4362,0,34,34,34,1,0.8,0.2,0.2,0.8,,,,,,,,,,,,,,,0.4591,,0.8,0.2,0.2,0.8,0.8,0.2,0.4,0.6,,,0.9709,,0.8,0.2,0.6,0.4,0.6,0.4,0.4,0.6,1,0
,,5fbdc4f0784d3f225d8d96d1,66fc98528e542c2d44976e65,2024-10-01_20h58.09.927,mdp,2024.2.1,Win32,59.17159763,66fa4ebf79326e780c390304,,,,,,,,,,,,,,,,,,,,,1436.4366,1436.4366,1436.4374,1437.0695,0,0,left,0.1075,,1437.0711,1438.0528,0,0,left,1438.054,1439.0187,1,0,right,1,1439.0188,1439.0188,1439.02,1440.5183,0,35,35,35,1,0.8,0.2,0.2,0.8,,,,,,,,,,,,,,,0.4585,,0.8,0.2,0.2,0.8,0.8,0.2,0.4,0.6,,,0.4351,,0.8,0.2,0.6,0.4,0.6,0.4,0.4,0.6,1,0
,,5fbdc4f0784d3f225d8d96d1,66fc98528e542c2d44976e65,2024-10-01_20h58.09.927,mdp,2024.2.1,Win32,59.17159763,66fa4ebf79326e780c390304,,,,,,,,,,,,,,,,,,,,,1440.5188,1440.5188,1440.5242,1441.0682,0,1,left,0.025,,1441.0699,1441.9677,0,0,left,1441.9685,1442.9526,1,0,right,1,1442.9526,1442.9526,1442.9534,1444.4508,0,36,36,36,1,0.8,0.2,0.2,0.8,,,,,,,,,,,,,,,0.3632,,0.8,0.2,0.2,0.8,0.4,0.6,0.2,0.8,,,0.481,,0.8,0.2,0.6,0.4,0.6,0.4,0.4,0.6,1,0
,,5fbdc4f0784d3f225d8d96d1,66fc98528e542c2d44976e65,2024-10-01_20h58.09.927,mdp,2024.2.1,Win32,59.17159763,66fa4ebf79326e780c390304,,,,,,,,,,,,,,,,,,,,,1444.4513,1444.4513,1444.4527,1445.0675,0,0,left,0.0849,,1445.0704,1446.1005,1,0,right,1446.1022,1447.1499,1,0,right,1,1447.1501,1447.1501,1447.1508,1448.6499,0,37,37,37,1,0.8,0.2,0.2,0.8,,,,,,,,,,,,,,,0.4851,,0.8,0.2,0.2,0.8,0.4,0.6,0.2,0.8,,,0.5227,,0.8,0.2,0.6,0.4,0.6,0.4,0.4,0.6,1,0
,,5fbdc4f0784d3f225d8d96d1,66fc98528e542c2d44976e65,2024-10-01_20h58.09.927,mdp,2024.2.1,Win32,59.17159763,66fa4ebf79326e780c390304,,,,,,,,,,,,,,,,,,,,,1448.6504,1448.6504,1448.6515,1449.4018,0,0,left,0.2323,,1449.4031,1451.3492,1,1,right,1451.3505,1452.5652,0,0,left,1,1452.5653,1452.5654,1452.5665,1454.0667,0,38,38,38,1,0.8,0.2,0.2,0.8,,,,,,,,,,,,,,,1.4254,,0.8,0.2,0.2,0.8,0.4,0.6,0.2,0.8,,,0.6675,,0.8,0.2,0.6,0.4,0.6,0.4,0.4,0.6,1,0
,,5fbdc4f0784d3f225d8d96d1,66fc98528e542c2d44976e65,2024-10-01_20h58.09.927,mdp,2024.2.1,Win32,59.17159763,66fa4ebf79326e780c390304,,,,,,,,,,,,,,,,,,,,,1454.0675,1454.0676,1454.069,1454.8146,0,1,left,0.2218,,1454.8154,1457.1476,1,1,right,1457.15,1458.297,0,0,left,1,1458.297,1458.2971,1458.2982,1459.7971,0,39,39,39,1,0.6,0.4,0.8,0.2,,,,,,,,,,,,,,,1.7847,,0.8,0.2,0.2,0.8,0.4,0.6,0.2,0.8,,,0.6278,,0.8,0.2,0.6,0.4,0.6,0.4,0.4,0.6,1,0
,,5fbdc4f0784d3f225d8d96d1,66fc98528e542c2d44976e65,2024-10-01_20h58.09.927,mdp,2024.2.1,Win32,59.17159763,66fa4ebf79326e780c390304,,,,,,,,,,,,,,,,,,,,,1459.7975,1459.7976,1459.7988,1460.4802,0,1,left,0.1337,,1460.4812,1462.1797,1,1,right,1462.1806,1463.1791,0,0,left,1,1463.1792,1463.1792,1463.1799,1464.6788,0,40,40,40,1,0.6,0.4,0.8,0.2,,,,,,,,,,,,,,,1.1676,,0.8,0.2,0.2,0.8,0.4,0.6,0.2,0.8,,,0.469,,0.8,0.2,0.6,0.4,0.6,0.4,0.4,0.6,1,0
,,5fbdc4f0784d3f225d8d96d1,66fc98528e542c2d44976e65,2024-10-01_20h58.09.927,mdp,2024.2.1,Win32,59.17159763,66fa4ebf79326e780c390304,,,,,,,,,,,,,,,,,,,,,1464.6794,1464.6794,1464.6809,1466.0949,1,0,right,0.8964,,1466.0954,1467.6282,1,1,right,1467.6311,1468.8112,0,0,left,1,1468.8113,1468.8113,1468.8125,1470.3106,0,41,41,41,1,0.6,0.4,0.8,0.2,,,,,,,,,,,,,,,0.9924,,0.8,0.2,0.2,0.8,0.8,0.2,0.8,0.2,,,0.6608,,0.8,0.2,0.6,0.4,0.6,0.4,0.4,0.6,1,0
,,5fbdc4f0784d3f225d8d96d1,66fc98528e542c2d44976e65,2024-10-01_20h58.09.927,mdp,2024.2.1,Win32,59.17159763,66fa4ebf79326e780c390304,,,,,,,,,,,,,,,,,,,,,1470.311,1470.311,1470.312,1471.1942,0,0,left,0.3539,,1471.1955,1472.3436,0,0,left,1472.3448,1473.493,1,0,right,1,1473.493,1473.493,1473.4938,1474.9926,0,42,42,42,1,0.6,0.4,0.8,0.2,,,,,,,,,,,,,,,0.6171,,0.8,0.2,0.2,0.8,0.8,0.2,0.8,0.2,,,0.5996,,0.8,0.2,0.6,0.4,0.6,0.4,0.4,0.6,1,0
,,5fbdc4f0784d3f225d8d96d1,66fc98528e542c2d44976e65,2024-10-01_20h58.09.927,mdp,2024.2.1,Win32,59.17159763,66fa4ebf79326e780c390304,,,,,,,,,,,,,,,,,,,,,1474.9931,1474.9931,1474.9958,1475.6595,1,1,right,0.1331,,1475.6607,1477.1588,0,0,left,1477.16,1478.4085,1,0,right,1,1478.4086,1478.4086,1478.4113,1479.9082,0,43,43,43,1,0.6,0.4,0.8,0.2,,,,,,,,,,,,,,,0.9513,,0.8,0.2,0.2,0.8,0.8,0.2,0.8,0.2,,,0.7286,,0.8,0.2,0.6,0.4,0.6,0.4,0.4,0.6,1,0
,,5fbdc4f0784d3f225d8d96d1,66fc98528e542c2d44976e65,2024-10-01_20h58.09.927,mdp,2024.2.1,Win32,59.17159763,66fa4ebf79326e780c390304,,,,,,,,,,,,,,,,,,,,,1479.9088,1479.9088,1479.9103,1480.7083,1,1,right,0.2746,,1480.71,1482.3908,1,0,right,1482.3921,1483.6072,1,0,right,1,1483.6073,1483.6073,1483.6084,1485.1069,0,44,44,44,1,0.6,0.4,0.8,0.2,,,,,,,,,,,,,,,1.1558,,0.8,0.2,0.2,0.8,0.8,0.2,0.8,0.2,,,0.6888,,0.8,0.2,0.6,0.4,0.6,0.4,0.4,0.6,1,0
,,5fbdc4f0784d3f225d8d96d1,66fc98528e542c2d44976e65,2024-10-01_20h58.09.927,mdp,2024.2.1,Win32,59.17159763,66fa4ebf79326e780c390304,,,,,,,,,,,,,,,,,,,,,1485.1075,1485.1075,1485.109,1485.9406,0,0,left,0.3096,,1485.9439,1487.1229,1,1,right,1487.124,1488.3558,0,1,left,0,1488.3558,1488.3558,1488.3563,1489.8557,0,45,45,45,1,0.6,0.4,0.8,0.2,,,,,,,,,,,,,,,0.6436,,0.8,0.2,0.2,0.8,0.8,0.2,0.8,0.2,,,0.6839,,0.8,0.2,0.6,0.4,0.6,0.4,0.4,0.6,1,0
,,5fbdc4f0784d3f225d8d96d1,66fc98528e542c2d44976e65,2024-10-01_20h58.09.927,mdp,2024.2.1,Win32,59.17159763,66fa4ebf79326e780c390304,,,,,,,,,,,,,,,,,,,,,1489.8558,1489.8559,1489.8564,1490.5057,1,0,right,0.1274,,1490.5079,1492.0386,1,1,right,1492.0397,1493.2741,0,1,left,0,1493.2743,1493.2743,1493.275,1494.7712,0,46,46,46,1,0.6,0.4,0.8,0.2,,,,,,,,,,,,,,,1.0003,,0.8,0.2,0.2,0.8,0.8,0.2,0.8,0.2,,,0.7158,,0.8,0.2,0.6,0.4,0.6,0.4,0.4,0.6,1,0
,,5fbdc4f0784d3f225d8d96d1,66fc98528e542c2d44976e65,2024-10-01_20h58.09.927,mdp,2024.2.1,Win32,59.17159763,66fa4ebf79326e780c390304,,,,,,,,,,,,,,,,,,,,,1494.7717,1494.7717,1494.7732,1495.8545,0,0,left,0.5568,,1495.856,1497.1036,1,1,right,1497.1044,1498.2038,0,0,left,1,1498.2038,1498.2038,1498.2052,1499.703,0,47,47,47,1,0.6,0.4,0.8,0.2,,,,,,,,,,,,,,,0.7445,,0.8,0.2,0.2,0.8,0.8,0.2,0.8,0.2,,,0.5701,,0.8,0.2,0.6,0.4,0.6,0.4,0.4,0.6,1,0
,,5fbdc4f0784d3f225d8d96d1,66fc98528e542c2d44976e65,2024-10-01_20h58.09.927,mdp,2024.2.1,Win32,59.17159763,66fa4ebf79326e780c390304,,,,,,,,,,,,,,,,,,,,,1499.7035,1499.7035,1499.7062,1500.5029,0,1,left,0.2682,,1500.5044,1501.9693,0,0,left,1501.9705,1503.1024,1,0,right,1,1503.1025,1503.1025,1503.1033,1504.6026,0,48,48,48,1,0.6,0.4,0.8,0.2,,,,,,,,,,,,,,,0.9205,,0.8,0.2,0.2,0.8,0.8,0.2,0.8,0.2,,,0.59,,0.8,0.2,0.6,0.4,0.6,0.4,0.4,0.6,1,0
,,5fbdc4f0784d3f225d8d96d1,66fc98528e542c2d44976e65,2024-10-01_20h58.09.927,mdp,2024.2.1,Win32,59.17159763,66fa4ebf79326e780c390304,,,,,,,,,,,,,,,,,,,,,1504.6041,1504.6041,1504.6051,1505.8183,1,1,right,0.6938,,1505.8197,1506.8184,0,0,left,1506.821,1507.7679,1,1,right,0,1507.768,1507.768,1507.7695,1509.2674,0,49,49,49,1,0.6,0.4,0.8,0.2,,,,,,,,,,,,,,,0.4691,,0.8,0.2,0.2,0.8,0.8,0.2,0.8,0.2,,,0.4284,,0.8,0.2,0.6,0.4,0.6,0.4,0.4,0.6,1,0
,,5fbdc4f0784d3f225d8d96d1,66fc98528e542c2d44976e65,2024-10-01_20h58.09.927,mdp,2024.2.1,Win32,59.17159763,66fa4ebf79326e780c390304,,,,,,,,,,,,,,,,,,,,,,,,,,,,,,,,,,,,,,,,,,,,,,,,,,,,,,,,1509.2674,1567.7689,0,3,3,6,1,imgs/squirrel.png,imgs/goat.png,imgs/dog.png,imgs/bear.png,imgs/horse.png,,,,,,,,,,,,,,,,,,,,,,,,
,,5fbdc4f0784d3f225d8d96d1,66fc98528e542c2d44976e65,2024-10-01_20h58.09.927,mdp,2024.2.1,Win32,59.17159763,66fa4ebf79326e780c390304,,,,,,,,,,,,,,1,seqs/st1seq0.csv,1567.7704,1622.7416,space,54.4468,,1622.7448,1622.7448,1622.7455,1624.2544,1,0,right,0.9738,,1624.2553,1624.2559,0,0,,1624.2565,1624.2568,1,0,,1,1624.2568,1624.2569,1624.2573,1625.756,0,0,0,0,1,0.8,0.2,0.8,0.2,1,0,,,,,,,,,,,,,,,,,,,,,,,,,,,,,,,,,,,,
,,5fbdc4f0784d3f225d8d96d1,66fc98528e542c2d44976e65,2024-10-01_20h58.09.927,mdp,2024.2.1,Win32,59.17159763,66fa4ebf79326e780c390304,,,,,,,,,,,,,,,,,,,,,1625.7565,1625.7565,1625.7578,1626.6041,1,0,right,0.3164,,1626.6067,1626.6072,0,1,,1626.6079,1626.6084,1,0,,1,1626.6084,1626.6084,1626.609,1628.1031,0,1,1,1,1,0.8,0.2,0.8,0.2,1,0,,,,,,,,,,,,,,,,,,,,,,,,,,,,,,,,,,,,
,,5fbdc4f0784d3f225d8d96d1,66fc98528e542c2d44976e65,2024-10-01_20h58.09.927,mdp,2024.2.1,Win32,59.17159763,66fa4ebf79326e780c390304,,,,,,,,,,,,,,,,,,,,,1628.1035,1628.1035,1628.1044,1629.1199,1,0,right,0.4886,,1629.121,1629.1215,0,0,,1629.1222,1629.1226,1,0,,1,1629.1226,1629.1226,1629.1231,1630.6193,0,2,2,2,1,0.8,0.2,0.8,0.2,1,0,,,,,,,,,,,,,,,,,,,,,,,,,,,,,,,,,,,,
,,5fbdc4f0784d3f225d8d96d1,66fc98528e542c2d44976e65,2024-10-01_20h58.09.927,mdp,2024.2.1,Win32,59.17159763,66fa4ebf79326e780c390304,,,,,,,,,,,,,,,,,,,,,1630.6196,1630.6196,1630.6202,1631.5358,1,0,right,0.3881,,1631.5366,1631.5372,0,0,,1631.5378,1631.5382,1,0,,1,1631.5382,1631.5382,1631.5386,1633.0352,0,3,3,3,1,0.8,0.2,0.8,0.2,1,0,,,,,,,,,,,,,,,,,,,,,,,,,,,,,,,,,,,,
,,5fbdc4f0784d3f225d8d96d1,66fc98528e542c2d44976e65,2024-10-01_20h58.09.927,mdp,2024.2.1,Win32,59.17159763,66fa4ebf79326e780c390304,,,,,,,,,,,,,,,,,,,,,1633.0358,1633.0358,1633.0371,1633.9186,1,0,right,0.3577,,1633.92,1633.9207,0,0,,1633.9213,1633.9218,1,0,,1,1633.9219,1633.9219,1633.9224,1635.4205,0,4,4,4,1,0.8,0.2,0.8,0.2,1,0,,,,,,,,,,,,,,,,,,,,,,,,,,,,,,,,,,,,
,,5fbdc4f0784d3f225d8d96d1,66fc98528e542c2d44976e65,2024-10-01_20h58.09.927,mdp,2024.2.1,Win32,59.17159763,66fa4ebf79326e780c390304,,,,,,,,,,,,,,,,,,,,,1635.4209,1635.4209,1635.4221,1636.2515,1,0,right,0.3112,,1636.2528,1636.2535,0,0,,1636.2544,1636.2549,1,1,,1,1636.255,1636.255,1636.2556,1637.7527,0,5,5,5,1,0.8,0.2,0.8,0.2,1,0,,,,,,,,,,,,,,,,,,,,,,,,,,,,,,,,,,,,
,,5fbdc4f0784d3f225d8d96d1,66fc98528e542c2d44976e65,2024-10-01_20h58.09.927,mdp,2024.2.1,Win32,59.17159763,66fa4ebf79326e780c390304,,,,,,,,,,,,,,,,,,,,,1637.753,1637.7531,1637.7539,1638.5669,1,0,right,0.2958,,1638.5673,1638.5676,0,0,,1638.5678,1638.568,1,0,,1,1638.568,1638.5681,1638.5683,1640.0668,0,6,6,6,1,0.8,0.2,0.8,0.2,1,0,,,,,,,,,,,,,,,,,,,,,,,,,,,,,,,,,,,,
,,5fbdc4f0784d3f225d8d96d1,66fc98528e542c2d44976e65,2024-10-01_20h58.09.927,mdp,2024.2.1,Win32,59.17159763,66fa4ebf79326e780c390304,,,,,,,,,,,,,,,,,,,,,1640.0672,1640.0672,1640.068,1640.9503,1,0,right,0.3565,,1640.9525,1640.9531,0,1,,1640.9538,1640.9542,1,0,,1,1640.9542,1640.9542,1640.9548,1642.45,0,7,7,7,1,0.8,0.2,0.8,0.2,1,0,,,,,,,,,,,,,,,,,,,,,,,,,,,,,,,,,,,,
,,5fbdc4f0784d3f225d8d96d1,66fc98528e542c2d44976e65,2024-10-01_20h58.09.927,mdp,2024.2.1,Win32,59.17159763,66fa4ebf79326e780c390304,,,,,,,,,,,,,,,,,,,,,1642.4517,1642.4517,1642.4526,1643.2661,1,0,right,0.294,,1643.2674,1643.2685,0,0,,1643.2692,1643.2697,1,0,,1,1643.2697,1643.2697,1643.2702,1644.7655,0,8,8,8,1,0.8,0.2,0.8,0.2,1,0,,,,,,,,,,,,,,,,,,,,,,,,,,,,,,,,,,,,
,,5fbdc4f0784d3f225d8d96d1,66fc98528e542c2d44976e65,2024-10-01_20h58.09.927,mdp,2024.2.1,Win32,59.17159763,66fa4ebf79326e780c390304,,,,,,,,,,,,,,,,,,,,,1644.7659,1644.7659,1644.7668,1645.4988,1,0,right,0.2023,,1645.5,1645.5007,0,0,,1645.5013,1645.5019,1,0,,1,1645.5019,1645.5019,1645.5024,1646.9985,0,9,9,9,1,0.8,0.2,0.8,0.2,1,0,,,,,,,,,,,,,,,,,,,,,,,,,,,,,,,,,,,,
,,5fbdc4f0784d3f225d8d96d1,66fc98528e542c2d44976e65,2024-10-01_20h58.09.927,mdp,2024.2.1,Win32,59.17159763,66fa4ebf79326e780c390304,,,,,,,,,,,,,,,,,,,,,1646.9989,1646.9989,1647.0002,1647.7984,1,1,right,0.2662,,1647.7992,1647.7996,0,0,,1647.8,1647.8003,1,0,,0,1647.8003,1647.8003,1647.8008,1649.2982,0,10,10,10,1,0.8,0.2,0.8,0.2,1,0,,,,,,,,,,,,,,,,,,,,,,,,,,,,,,,,,,,,
,,5fbdc4f0784d3f225d8d96d1,66fc98528e542c2d44976e65,2024-10-01_20h58.09.927,mdp,2024.2.1,Win32,59.17159763,66fa4ebf79326e780c390304,,,,,,,,,,,,,,,,,,,,,1649.2986,1649.2986,1649.2996,1650.0979,1,1,right,0.2776,,1650.0987,1650.0992,0,1,,1650.0996,1650.0999,1,0,,0,1650.0999,1650.0999,1650.1003,1651.5973,0,11,11,11,1,0.6,0.4,0.4,0.6,1,0,,,,,,,,,,,,,,,,,,,,,,,,,,,,,,,,,,,,
,,5fbdc4f0784d3f225d8d96d1,66fc98528e542c2d44976e65,2024-10-01_20h58.09.927,mdp,2024.2.1,Win32,59.17159763,66fa4ebf79326e780c390304,,,,,,,,,,,,,,,,,,,,,1651.5978,1651.5979,1651.6004,1652.7307,1,1,right,0.6102,,1652.7339,1652.7345,0,1,,1652.7352,1652.7357,1,1,,0,1652.7357,1652.7357,1652.7364,1654.2321,0,12,12,12,1,0.6,0.4,0.4,0.6,1,0,,,,,,,,,,,,,,,,,,,,,,,,,,,,,,,,,,,,
,,5fbdc4f0784d3f225d8d96d1,66fc98528e542c2d44976e65,2024-10-01_20h58.09.927,mdp,2024.2.1,Win32,59.17159763,66fa4ebf79326e780c390304,,,,,,,,,,,,,,,,,,,,,1654.2327,1654.2327,1654.2342,1655.0647,0,0,left,0.3153,,1655.0655,1655.0659,0,0,,1655.0663,1655.0666,1,1,,1,1655.0666,1655.0666,1655.0669,1656.5626,0,13,13,13,1,0.6,0.4,0.4,0.6,1,0,,,,,,,,,,,,,,,,,,,,,,,,,,,,,,,,,,,,
,,5fbdc4f0784d3f225d8d96d1,66fc98528e542c2d44976e65,2024-10-01_20h58.09.927,mdp,2024.2.1,Win32,59.17159763,66fa4ebf79326e780c390304,,,,,,,,,,,,,,,,,,,,,1656.563,1656.563,1656.5657,1657.4127,0,0,left,0.3241,,1657.4138,1657.4144,0,1,,1657.4151,1657.4156,1,1,,1,1657.4156,1657.4156,1657.4162,1658.912,0,14,14,14,1,0.8,0.2,0.2,0.8,1,0,,,,,,,,,,,,,,,,,,,,,,,,,,,,,,,,,,,,
,,5fbdc4f0784d3f225d8d96d1,66fc98528e542c2d44976e65,2024-10-01_20h58.09.927,mdp,2024.2.1,Win32,59.17159763,66fa4ebf79326e780c390304,,,,,,,,,,,,,,,,,,,,,1658.9123,1658.9123,1658.9141,1659.7286,0,1,left,0.2956,,1659.7301,1659.7308,0,0,,1659.7315,1659.7319,1,0,,0,1659.732,1659.732,1659.7325,1661.2283,0,15,15,15,1,0.8,0.2,0.2,0.8,1,0,,,,,,,,,,,,,,,,,,,,,,,,,,,,,,,,,,,,
,,5fbdc4f0784d3f225d8d96d1,66fc98528e542c2d44976e65,2024-10-01_20h58.09.927,mdp,2024.2.1,Win32,59.17159763,66fa4ebf79326e780c390304,,,,,,,,,,,,,,,,,,,,,1661.2286,1661.2286,1661.23,1662.0283,0,0,left,0.2677,,1662.03,1662.0307,0,0,,1662.0313,1662.0318,1,0,,1,1662.0319,1662.0319,1662.0324,1663.5276,0,16,16,16,1,0.8,0.2,0.2,0.8,1,0,,,,,,,,,,,,,,,,,,,,,,,,,,,,,,,,,,,,
,,5fbdc4f0784d3f225d8d96d1,66fc98528e542c2d44976e65,2024-10-01_20h58.09.927,mdp,2024.2.1,Win32,59.17159763,66fa4ebf79326e780c390304,,,,,,,,,,,,,,,,,,,,,1663.528,1663.528,1663.5304,1664.3609,0,0,left,0.3041,,1664.3623,1664.363,0,0,,1664.3637,1664.3641,1,0,,1,1664.3641,1664.3641,1664.3645,1665.8625,0,17,17,17,1,0.8,0.2,0.2,0.8,1,0,,,,,,,,,,,,,,,,,,,,,,,,,,,,,,,,,,,,
,,5fbdc4f0784d3f225d8d96d1,66fc98528e542c2d44976e65,2024-10-01_20h58.09.927,mdp,2024.2.1,Win32,59.17159763,66fa4ebf79326e780c390304,,,,,,,,,,,,,,,,,,,,,1665.8625,1665.8625,1665.863,1666.66,0,1,left,0.2725,,1666.6609,1666.6618,0,0,,1666.6624,1666.6629,1,1,,0,1666.6629,1666.6629,1666.6635,1668.1596,0,18,18,18,1,0.8,0.2,0.2,0.8,1,0,,,,,,,,,,,,,,,,,,,,,,,,,,,,,,,,,,,,
,,5fbdc4f0784d3f225d8d96d1,66fc98528e542c2d44976e65,2024-10-01_20h58.09.927,mdp,2024.2.1,Win32,59.17159763,66fa4ebf79326e780c390304,,,,,,,,,,,,,,,,,,,,,1668.1599,1668.1599,1668.1609,1669.0932,0,0,left,0.4005,,1669.0949,1669.0955,0,0,,1669.0961,1669.0966,1,0,,1,1669.0966,1669.0966,1669.0971,1670.5923,0,19,19,19,1,0.8,0.2,0.2,0.8,1,0,,,,,,,,,,,,,,,,,,,,,,,,,,,,,,,,,,,,
,,5fbdc4f0784d3f225d8d96d1,66fc98528e542c2d44976e65,2024-10-01_20h58.09.927,mdp,2024.2.1,Win32,59.17159763,66fa4ebf79326e780c390304,,,,,,,,,,,,,,,,,,,,,1670.5927,1670.5927,1670.5949,1671.3918,0,1,left,0.2789,,1671.3924,1671.3928,0,0,,1671.3931,1671.3933,1,0,,0,1671.3934,1671.3934,1671.3936,1672.892,0,20,20,20,1,0.8,0.2,0.2,0.8,1,0,,,,,,,,,,,,,,,,,,,,,,,,,,,,,,,,,,,,
,,5fbdc4f0784d3f225d8d96d1,66fc98528e542c2d44976e65,2024-10-01_20h58.09.927,mdp,2024.2.1,Win32,59.17159763,66fa4ebf79326e780c390304,,,,,,,,,,,,,,,,,,,,,1672.8924,1672.8924,1672.8935,1673.542,1,1,right,0.1185,,1673.5435,1673.5442,0,1,,1673.5449,1673.5454,1,1,,0,1673.5455,1673.5455,1673.5461,1675.0414,0,21,21,21,1,0.8,0.2,0.2,0.8,1,0,,,,,,,,,,,,,,,,,,,,,,,,,,,,,,,,,,,,
,,5fbdc4f0784d3f225d8d96d1,66fc98528e542c2d44976e65,2024-10-01_20h58.09.927,mdp,2024.2.1,Win32,59.17159763,66fa4ebf79326e780c390304,,,,,,,,,,,,,,,,,,,,,1675.0419,1675.0419,1675.0431,1675.7078,1,1,right,0.1417,,1675.7085,1675.7089,0,0,,1675.7094,1675.7098,1,1,,0,1675.7098,1675.7098,1675.7102,1677.2075,0,22,22,22,1,0.6,0.4,0.8,0.2,1,0,,,,,,,,,,,,,,,,,,,,,,,,,,,,,,,,,,,,
,,5fbdc4f0784d3f225d8d96d1,66fc98528e542c2d44976e65,2024-10-01_20h58.09.927,mdp,2024.2.1,Win32,59.17159763,66fa4ebf79326e780c390304,,,,,,,,,,,,,,,,,,,,,1677.2081,1677.2081,1677.209,1677.7573,1,0,right,0.0256,,1677.7587,1677.7594,0,0,,1677.7601,1677.7605,1,1,,1,1677.7605,1677.7605,1677.761,1679.2569,0,23,23,23,1,0.6,0.4,0.8,0.2,1,0,,,,,,,,,,,,,,,,,,,,,,,,,,,,,,,,,,,,
,,5fbdc4f0784d3f225d8d96d1,66fc98528e542c2d44976e65,2024-10-01_20h58.09.927,mdp,2024.2.1,Win32,59.17159763,66fa4ebf79326e780c390304,,,,,,,,,,,,,,,,,,,,,1679.2572,1679.2572,1679.258,1680.2733,1,0,right,0.4869,,1680.2743,1680.2751,0,0,,1680.276,1680.2764,1,0,,1,1680.2764,1680.2764,1680.277,1681.7726,0,24,24,24,1,0.6,0.4,0.8,0.2,1,0,,,,,,,,,,,,,,,,,,,,,,,,,,,,,,,,,,,,
,,5fbdc4f0784d3f225d8d96d1,66fc98528e542c2d44976e65,2024-10-01_20h58.09.927,mdp,2024.2.1,Win32,59.17159763,66fa4ebf79326e780c390304,,,,,,,,,,,,,,,,,,,,,1681.7731,1681.7731,1681.7746,1682.3728,1,0,right,0.0749,,1682.3738,1682.3746,0,0,,1682.3753,1682.3759,1,1,,1,1682.3759,1682.3759,1682.3765,1683.8724,0,25,25,25,1,0.8,0.2,0.6,0.4,1,0,,,,,,,,,,,,,,,,,,,,,,,,,,,,,,,,,,,,
,,5fbdc4f0784d3f225d8d96d1,66fc98528e542c2d44976e65,2024-10-01_20h58.09.927,mdp,2024.2.1,Win32,59.17159763,66fa4ebf79326e780c390304,,,,,,,,,,,,,,,,,,,,,1683.8728,1683.8728,1683.8738,1684.4555,1,0,right,0.0493,,1684.4563,1684.4567,0,0,,1684.4572,1684.4574,1,0,,1,1684.4575,1684.4575,1684.4579,1685.9549,0,26,26,26,1,0.8,0.2,0.6,0.4,1,0,,,,,,,,,,,,,,,,,,,,,,,,,,,,,,,,,,,,
,,5fbdc4f0784d3f225d8d96d1,66fc98528e542c2d44976e65,2024-10-01_20h58.09.927,mdp,2024.2.1,Win32,59.17159763,66fa4ebf79326e780c390304,,,,,,,,,,,,,,,,,,,,,1685.9553,1685.9553,1685.9563,1686.5716,1,0,right,0.0848,,1686.5742,1686.5747,0,0,,1686.5754,1686.5758,1,1,,1,1686.5758,1686.5758,1686.5763,1688.0732,0,27,27,27,1,0.6,0.4,0.4,0.6,1,0,,,,,,,,,,,,,,,,,,,,,,,,,,,,,,,,,,,,
,,5fbdc4f0784d3f225d8d96d1,66fc98528e542c2d44976e65,2024-10-01_20h58.09.927,mdp,2024.2.1,Win32,59.17159763,66fa4ebf79326e780c390304,,,,,,,,,,,,,,,,,,,,,1688.0735,1688.0735,1688.0744,1688.8046,1,1,right,0.2082,,1688.8058,1688.8063,0,1,,1688.8068,1688.8072,1,1,,0,1688.8072,1688.8072,1688.8077,1690.3038,0,28,28,28,1,0.6,0.4,0.4,0.6,1,0,,,,,,,,,,,,,,,,,,,,,,,,,,,,,,,,,,,,
,,5fbdc4f0784d3f225d8d96d1,66fc98528e542c2d44976e65,2024-10-01_20h58.09.927,mdp,2024.2.1,Win32,59.17159763,66fa4ebf79326e780c390304,,,,,,,,,,,,,,,,,,,,,1690.3043,1690.3043,1690.3059,1691.0374,1,1,right,0.2017,,1691.039,1691.0397,0,0,,1691.0404,1691.0409,1,0,,0,1691.0409,1691.0409,1691.0414,1692.537,0,29,29,29,1,0.6,0.4,0.4,0.6,1,0,,,,,,,,,,,,,,,,,,,,,,,,,,,,,,,,,,,,
,,5fbdc4f0784d3f225d8d96d1,66fc98528e542c2d44976e65,2024-10-01_20h58.09.927,mdp,2024.2.1,Win32,59.17159763,66fa4ebf79326e780c390304,,,,,,,,,,,,,,,,,,,,,1692.5374,1692.5374,1692.5387,1693.1028,1,1,right,0.0539,,1693.1033,1693.1035,0,1,,1693.1038,1693.1049,1,1,,0,1693.105,1693.105,1693.1053,1694.6027,0,30,30,30,1,0.6,0.4,0.4,0.6,1,0,,,,,,,,,,,,,,,,,,,,,,,,,,,,,,,,,,,,
,,5fbdc4f0784d3f225d8d96d1,66fc98528e542c2d44976e65,2024-10-01_20h58.09.927,mdp,2024.2.1,Win32,59.17159763,66fa4ebf79326e780c390304,,,,,,,,,,,,,,,,,,,,,1694.6029,1694.603,1694.6037,1695.521,1,0,right,0.4136,,1695.5216,1695.522,0,0,,1695.5223,1695.5226,1,1,,1,1695.5226,1695.5226,1695.5229,1697.0186,0,31,31,31,1,0.4,0.6,0.6,0.4,1,0,,,,,,,,,,,,,,,,,,,,,,,,,,,,,,,,,,,,
,,5fbdc4f0784d3f225d8d96d1,66fc98528e542c2d44976e65,2024-10-01_20h58.09.927,mdp,2024.2.1,Win32,59.17159763,66fa4ebf79326e780c390304,,,,,,,,,,,,,,,,,,,,,1697.0189,1697.0189,1697.0192,1697.7186,1,0,right,0.1766,,1697.7192,1697.7195,0,0,,1697.7199,1697.7201,1,1,,1,1697.7201,1697.7201,1697.7204,1699.2185,0,32,32,32,1,0.8,0.2,0.4,0.6,1,0,,,,,,,,,,,,,,,,,,,,,,,,,,,,,,,,,,,,
,,5fbdc4f0784d3f225d8d96d1,66fc98528e542c2d44976e65,2024-10-01_20h58.09.927,mdp,2024.2.1,Win32,59.17159763,66fa4ebf79326e780c390304,,,,,,,,,,,,,,,,,,,,,1699.2189,1699.2189,1699.2197,1700.0019,1,1,right,0.2633,,1700.0034,1700.0043,0,0,,1700.0053,1700.006,1,1,,0,1700.0061,1700.0061,1700.0069,1701.5012,0,33,33,33,1,0.8,0.2,0.4,0.6,1,0,,,,,,,,,,,,,,,,,,,,,,,,,,,,,,,,,,,,
,,5fbdc4f0784d3f225d8d96d1,66fc98528e542c2d44976e65,2024-10-01_20h58.09.927,mdp,2024.2.1,Win32,59.17159763,66fa4ebf79326e780c390304,,,,,,,,,,,,,,,,,,,,,1701.5018,1701.5018,1701.503,1702.27,1,1,right,0.2479,,1702.2707,1702.271,0,1,,1702.2713,1702.2715,1,1,,0,1702.2715,1702.2715,1702.2718,1703.7672,0,34,34,34,1,0.8,0.2,0.4,0.6,1,0,,,,,,,,,,,,,,,,,,,,,,,,,,,,,,,,,,,,
,,5fbdc4f0784d3f225d8d96d1,66fc98528e542c2d44976e65,2024-10-01_20h58.09.927,mdp,2024.2.1,Win32,59.17159763,66fa4ebf79326e780c390304,,,,,,,,,,,,,,,,,,,,,1703.7676,1703.7676,1703.7702,1704.4669,1,0,right,0.1764,,1704.4698,1704.4703,0,1,,1704.471,1704.4714,1,0,,1,1704.4714,1704.4714,1704.4719,1705.9678,0,35,35,35,1,0.8,0.2,0.4,0.6,1,0,,,,,,,,,,,,,,,,,,,,,,,,,,,,,,,,,,,,
,,5fbdc4f0784d3f225d8d96d1,66fc98528e542c2d44976e65,2024-10-01_20h58.09.927,mdp,2024.2.1,Win32,59.17159763,66fa4ebf79326e780c390304,,,,,,,,,,,,,,,,,,,,,1705.9681,1705.9681,1705.9688,1706.6663,1,1,right,0.1774,,1706.6674,1706.668,0,0,,1706.6687,1706.6691,1,0,,0,1706.6692,1706.6692,1706.6697,1708.1664,0,36,36,36,1,0.4,0.6,0.6,0.4,1,0,,,,,,,,,,,,,,,,,,,,,,,,,,,,,,,,,,,,
,,5fbdc4f0784d3f225d8d96d1,66fc98528e542c2d44976e65,2024-10-01_20h58.09.927,mdp,2024.2.1,Win32,59.17159763,66fa4ebf79326e780c390304,,,,,,,,,,,,,,,,,,,,,1708.1682,1708.1682,1708.1698,1708.7494,1,1,right,0.0511,,1708.7511,1708.7518,0,0,,1708.7528,1708.7533,1,0,,0,1708.7534,1708.7534,1708.7541,1710.249,0,37,37,37,1,0.4,0.6,0.6,0.4,1,0,,,,,,,,,,,,,,,,,,,,,,,,,,,,,,,,,,,,
,,5fbdc4f0784d3f225d8d96d1,66fc98528e542c2d44976e65,2024-10-01_20h58.09.927,mdp,2024.2.1,Win32,59.17159763,66fa4ebf79326e780c390304,,,,,,,,,,,,,,,,,,,,,1710.2495,1710.2495,1710.2506,1710.7826,0,1,left,0.0067,,1710.7842,1710.7849,0,0,,1710.7855,1710.7861,1,0,,0,1710.7861,1710.7862,1710.7867,1712.2835,0,38,38,38,1,0.4,0.6,0.6,0.4,1,0,,,,,,,,,,,,,,,,,,,,,,,,,,,,,,,,,,,,
,,5fbdc4f0784d3f225d8d96d1,66fc98528e542c2d44976e65,2024-10-01_20h58.09.927,mdp,2024.2.1,Win32,59.17159763,66fa4ebf79326e780c390304,,,,,,,,,,,,,,,,,,,,,1712.2837,1712.2837,1712.2845,1713.0315,0,0,left,0.2223,,1713.0325,1713.033,0,1,,1713.0338,1713.0344,1,0,,1,1713.0345,1713.0345,1713.0351,1714.5308,0,39,39,39,1,0.6,0.4,0.4,0.6,1,0,,,,,,,,,,,,,,,,,,,,,,,,,,,,,,,,,,,,
