init_exp.started,init_exp.stopped,participant,session,date,expName,psychopyVersion,OS,frameRate,study_id,disp_instruction.started,disp_instruction.stopped,instruction.thisRepN,instruction.thisTrialN,instruction.thisN,instruction.thisIndex,instruction.ran,instimg_path,consent.started,consent.stopped,key_resp_3.keys,key_resp_3.rt,key_resp_3.duration,n_steps,sequence_path,init_block.started,init_block.stopped,key_resp.keys,key_resp.rt,key_resp.duration,init_trials.started,init_trials.stopped,step0.started,step0.stopped,act0,s1,res0.keys,res0.rt,res0.duration,step1.started,step1.stopped,act1,s2,res1.keys,step2.started,step2.stopped,act2,s3,res2.keys,rew,reward_comp.started,reward_comp.stopped,reward_disp.started,reward_disp.stopped,trials.thisRepN,trials.thisTrialN,trials.thisN,trials.thisIndex,trials.ran,s00a0s10,s00a0s11,s00a1s10,s00a1s11,rew10,rew11,break_block.started,break_block.stopped,block.thisRepN,block.thisTrialN,block.thisN,block.thisIndex,block.ran,s00path,s10path,s11path,s20path,s21path,res1.rt,res1.duration,s10a0s20,s10a0s21,s10a1s20,s10a1s21,s11a0s20,s11a0s21,s11a1s20,s11a1s21,rew20,rew21,res2.rt,res2.duration,s20a0s30,s20a0s31,s20a1s30,s20a1s31,s21a0s30,s21a0s31,s21a1s30,s21a1s31,rew30,rew31
0.0002,0.0024,5fc4c49da0603a4d5feae548,66daf5926301aed538d7ecee,2024-09-06_14h31.03.428,mdp,2024.2.1,MacIntel,30.03003003,66d7945b1baad48e845df3ce,,,,,,,,,,,,,,,,,,,,,,,,,,,,,,,,,,,,,,,,,,,,,,,,,,,,,,,,,,,,,,,,,,,,,,,,,,,,,,,,,,,,,,,,,,,
,,5fc4c49da0603a4d5feae548,66daf5926301aed538d7ecee,2024-09-06_14h31.03.428,mdp,2024.2.1,MacIntel,30.03003003,66d7945b1baad48e845df3ce,0.0063,27.2965,0,0,0,0,1,rlnn_exp/rlnn_exp.001.png,,,,,,,,,,,,,,,,,,,,,,,,,,,,,,,,,,,,,,,,,,,,,,,,,,,,,,,,,,,,,,,,,,,,,,,,,,,,,,,,,,,
,,5fc4c49da0603a4d5feae548,66daf5926301aed538d7ecee,2024-09-06_14h31.03.428,mdp,2024.2.1,MacIntel,30.03003003,66d7945b1baad48e845df3ce,27.297,42.124,0,1,1,1,1,rlnn_exp/rlnn_exp.002.png,,,,,,,,,,,,,,,,,,,,,,,,,,,,,,,,,,,,,,,,,,,,,,,,,,,,,,,,,,,,,,,,,,,,,,,,,,,,,,,,,,,
,,5fc4c49da0603a4d5feae548,66daf5926301aed538d7ecee,2024-09-06_14h31.03.428,mdp,2024.2.1,MacIntel,30.03003003,66d7945b1baad48e845df3ce,42.135,94.1317,0,2,2,2,1,rlnn_exp/rlnn_exp.003.png,,,,,,,,,,,,,,,,,,,,,,,,,,,,,,,,,,,,,,,,,,,,,,,,,,,,,,,,,,,,,,,,,,,,,,,,,,,,,,,,,,,
,,5fc4c49da0603a4d5feae548,66daf5926301aed538d7ecee,2024-09-06_14h31.03.428,mdp,2024.2.1,MacIntel,30.03003003,66d7945b1baad48e845df3ce,94.1429,136.9723,0,3,3,3,1,rlnn_exp/rlnn_exp.004.png,,,,,,,,,,,,,,,,,,,,,,,,,,,,,,,,,,,,,,,,,,,,,,,,,,,,,,,,,,,,,,,,,,,,,,,,,,,,,,,,,,,
,,5fc4c49da0603a4d5feae548,66daf5926301aed538d7ecee,2024-09-06_14h31.03.428,mdp,2024.2.1,MacIntel,30.03003003,66d7945b1baad48e845df3ce,,,,,,,,,136.9833,191.8136,y,35.2253,,,,,,,,,,,,,,,,,,,,,,,,,,,,,,,,,,,,,,,,,,,,,,,,,,,,,,,,,,,,,,,,,,,,,,,,,,,,,,,
,,5fc4c49da0603a4d5feae548,66daf5926301aed538d7ecee,2024-09-06_14h31.03.428,mdp,2024.2.1,MacIntel,30.03003003,66d7945b1baad48e845df3ce,,,,,,,,,,,,,,1,seqs/st1seq34.csv,191.826,193.7818,space,1.4045,,193.787,193.7872,193.7875,197.3815,0,1,left,3.0431,,197.3912,197.3925,,0,,197.3928,197.3937,,0,,0,197.3939,197.394,197.3942,198.8825,0,0,0,0,1,0.6,0.4,0.2,0.8,1,0,,,,,,,,,,,,,,,,,,,,,,,,,,,,,,,,,,,,
,,5fc4c49da0603a4d5feae548,66daf5926301aed538d7ecee,2024-09-06_14h31.03.428,mdp,2024.2.1,MacIntel,30.03003003,66d7945b1baad48e845df3ce,,,,,,,,,,,,,,,,,,,,,198.883,198.883,198.8841,200.7493,1,1,right,1.3159,,200.7506,200.7513,,1,,200.7521,200.7528,,1,,0,200.7528,200.7529,200.7534,202.2494,0,1,1,1,1,0.6,0.4,0.2,0.8,1,0,,,,,,,,,,,,,,,,,,,,,,,,,,,,,,,,,,,,
,,5fc4c49da0603a4d5feae548,66daf5926301aed538d7ecee,2024-09-06_14h31.03.428,mdp,2024.2.1,MacIntel,30.03003003,66d7945b1baad48e845df3ce,,,,,,,,,,,,,,,,,,,,,202.2498,202.2498,202.251,204.5166,0,1,left,1.7021,,204.5177,204.5186,,0,,204.5191,204.5196,,0,,0,204.5196,204.5196,204.5202,206.0183,0,2,2,2,1,0.6,0.4,0.2,0.8,1,0,,,,,,,,,,,,,,,,,,,,,,,,,,,,,,,,,,,,
,,5fc4c49da0603a4d5feae548,66daf5926301aed538d7ecee,2024-09-06_14h31.03.428,mdp,2024.2.1,MacIntel,30.03003003,66d7945b1baad48e845df3ce,,,,,,,,,,,,,,,,,,,,,206.0186,206.0187,206.0198,207.0497,0,1,left,0.4859,,207.0505,207.0512,,0,,207.0517,207.0521,,1,,0,207.0522,207.0522,207.0526,208.5507,0,3,3,3,1,0.6,0.4,0.2,0.8,1,0,,,,,,,,,,,,,,,,,,,,,,,,,,,,,,,,,,,,
,,5fc4c49da0603a4d5feae548,66daf5926301aed538d7ecee,2024-09-06_14h31.03.428,mdp,2024.2.1,MacIntel,30.03003003,66d7945b1baad48e845df3ce,,,,,,,,,,,,,,,,,,,,,208.5511,208.5511,208.5522,209.7172,0,1,left,0.6219,,209.7178,209.7184,,0,,209.7188,209.7192,,0,,0,209.7192,209.7192,209.7195,211.2176,0,4,4,4,1,0.6,0.4,0.2,0.8,1,0,,,,,,,,,,,,,,,,,,,,,,,,,,,,,,,,,,,,
,,5fc4c49da0603a4d5feae548,66daf5926301aed538d7ecee,2024-09-06_14h31.03.428,mdp,2024.2.1,MacIntel,30.03003003,66d7945b1baad48e845df3ce,,,,,,,,,,,,,,,,,,,,,211.2181,211.2181,211.2192,212.3844,0,0,left,0.6137,,212.3857,212.3866,,0,,212.3874,212.3879,,0,,1,212.388,212.388,212.3885,213.8845,0,5,5,5,1,0.6,0.4,0.2,0.8,1,0,,,,,,,,,,,,,,,,,,,,,,,,,,,,,,,,,,,,
,,5fc4c49da0603a4d5feae548,66daf5926301aed538d7ecee,2024-09-06_14h31.03.428,mdp,2024.2.1,MacIntel,30.03003003,66d7945b1baad48e845df3ce,,,,,,,,,,,,,,,,,,,,,213.8849,213.8849,213.8862,216.9845,1,1,right,2.5366,,216.9858,216.9866,,0,,216.9872,216.9879,,1,,0,216.988,216.988,216.9885,218.4855,0,6,6,6,1,0.6,0.4,0.2,0.8,1,0,,,,,,,,,,,,,,,,,,,,,,,,,,,,,,,,,,,,
,,5fc4c49da0603a4d5feae548,66daf5926301aed538d7ecee,2024-09-06_14h31.03.428,mdp,2024.2.1,MacIntel,30.03003003,66d7945b1baad48e845df3ce,,,,,,,,,,,,,,,,,,,,,218.4859,218.4859,218.4869,219.7521,1,1,right,0.7042,,219.7535,219.7545,,1,,219.7552,219.7557,,1,,0,219.7558,219.7558,219.7563,221.2515,0,7,7,7,1,0.6,0.4,0.2,0.8,1,0,,,,,,,,,,,,,,,,,,,,,,,,,,,,,,,,,,,,
,,5fc4c49da0603a4d5feae548,66daf5926301aed538d7ecee,2024-09-06_14h31.03.428,mdp,2024.2.1,MacIntel,30.03003003,66d7945b1baad48e845df3ce,,,,,,,,,,,,,,,,,,,,,221.252,221.252,221.2532,222.1186,1,0,right,0.3128,,222.1195,222.1201,,0,,222.1206,222.1212,,0,,1,222.1212,222.1212,222.1216,223.6196,0,8,8,8,1,0.2,0.8,0.8,0.2,1,0,,,,,,,,,,,,,,,,,,,,,,,,,,,,,,,,,,,,
,,5fc4c49da0603a4d5feae548,66daf5926301aed538d7ecee,2024-09-06_14h31.03.428,mdp,2024.2.1,MacIntel,30.03003003,66d7945b1baad48e845df3ce,,,,,,,,,,,,,,,,,,,,,223.62,223.62,223.6211,224.7189,1,0,right,0.5346,,224.7201,224.721,,0,,224.7217,224.7222,,0,,1,224.7222,224.7222,224.7227,226.22,0,9,9,9,1,0.2,0.8,0.8,0.2,1,0,,,,,,,,,,,,,,,,,,,,,,,,,,,,,,,,,,,,
,,5fc4c49da0603a4d5feae548,66daf5926301aed538d7ecee,2024-09-06_14h31.03.428,mdp,2024.2.1,MacIntel,30.03003003,66d7945b1baad48e845df3ce,,,,,,,,,,,,,,,,,,,,,226.2204,226.2204,226.2215,227.4199,1,1,right,0.6353,,227.4209,227.4217,,0,,227.4223,227.4229,,0,,0,227.4229,227.4229,227.4233,228.9204,0,10,10,10,1,0.2,0.8,0.8,0.2,1,0,,,,,,,,,,,,,,,,,,,,,,,,,,,,,,,,,,,,
,,5fc4c49da0603a4d5feae548,66daf5926301aed538d7ecee,2024-09-06_14h31.03.428,mdp,2024.2.1,MacIntel,30.03003003,66d7945b1baad48e845df3ce,,,,,,,,,,,,,,,,,,,,,228.9208,228.9208,228.9219,230.02,1,0,right,0.5494,,230.0212,230.0221,,0,,230.0228,230.0235,,0,,1,230.0235,230.0235,230.024,231.5208,0,11,11,11,1,0.2,0.8,0.8,0.2,1,0,,,,,,,,,,,,,,,,,,,,,,,,,,,,,,,,,,,,
,,5fc4c49da0603a4d5feae548,66daf5926301aed538d7ecee,2024-09-06_14h31.03.428,mdp,2024.2.1,MacIntel,30.03003003,66d7945b1baad48e845df3ce,,,,,,,,,,,,,,,,,,,,,231.5211,231.5211,231.5222,233.0867,0,1,left,1.0012,,233.088,233.0888,,1,,233.0896,233.0902,,1,,0,233.0902,233.0903,233.0907,234.5881,0,12,12,12,1,0.2,0.8,0.8,0.2,1,0,,,,,,,,,,,,,,,,,,,,,,,,,,,,,,,,,,,,
,,5fc4c49da0603a4d5feae548,66daf5926301aed538d7ecee,2024-09-06_14h31.03.428,mdp,2024.2.1,MacIntel,30.03003003,66d7945b1baad48e845df3ce,,,,,,,,,,,,,,,,,,,,,234.5884,234.5884,234.5894,235.754,1,0,right,0.601,,235.7549,235.7555,,0,,235.756,235.7565,,0,,1,235.7565,235.7565,235.7569,237.2544,0,13,13,13,1,0.2,0.8,0.8,0.2,1,0,,,,,,,,,,,,,,,,,,,,,,,,,,,,,,,,,,,,
,,5fc4c49da0603a4d5feae548,66daf5926301aed538d7ecee,2024-09-06_14h31.03.428,mdp,2024.2.1,MacIntel,30.03003003,66d7945b1baad48e845df3ce,,,,,,,,,,,,,,,,,,,,,237.2547,237.2547,237.2557,238.2884,1,0,right,0.5023,,238.2896,238.2906,,0,,238.2913,238.2919,,0,,1,238.2919,238.292,238.2925,239.7888,0,14,14,14,1,0.2,0.8,0.8,0.2,1,0,,,,,,,,,,,,,,,,,,,,,,,,,,,,,,,,,,,,
,,5fc4c49da0603a4d5feae548,66daf5926301aed538d7ecee,2024-09-06_14h31.03.428,mdp,2024.2.1,MacIntel,30.03003003,66d7945b1baad48e845df3ce,,,,,,,,,,,,,,,,,,,,,239.7891,239.7891,239.7903,240.6891,1,1,right,0.346,,240.6901,240.6908,,1,,240.6913,240.6918,,1,,0,240.6918,240.6918,240.6923,242.1891,0,15,15,15,1,0.6,0.4,0.4,0.6,1,0,,,,,,,,,,,,,,,,,,,,,,,,,,,,,,,,,,,,
,,5fc4c49da0603a4d5feae548,66daf5926301aed538d7ecee,2024-09-06_14h31.03.428,mdp,2024.2.1,MacIntel,30.03003003,66d7945b1baad48e845df3ce,,,,,,,,,,,,,,,,,,,,,242.1895,242.1895,242.1903,243.1895,1,1,right,0.4327,,243.1907,243.1915,,0,,243.1922,243.1928,,0,,0,243.1928,243.1928,243.1934,244.6899,0,16,16,16,1,0.6,0.4,0.4,0.6,1,0,,,,,,,,,,,,,,,,,,,,,,,,,,,,,,,,,,,,
,,5fc4c49da0603a4d5feae548,66daf5926301aed538d7ecee,2024-09-06_14h31.03.428,mdp,2024.2.1,MacIntel,30.03003003,66d7945b1baad48e845df3ce,,,,,,,,,,,,,,,,,,,,,244.6903,244.6903,244.6914,245.29,1,1,right,0.0351,,245.291,245.2919,,0,,245.2927,245.2933,,0,,0,245.2934,245.2934,245.294,246.7894,0,17,17,17,1,0.2,0.8,0.8,0.2,1,0,,,,,,,,,,,,,,,,,,,,,,,,,,,,,,,,,,,,
,,5fc4c49da0603a4d5feae548,66daf5926301aed538d7ecee,2024-09-06_14h31.03.428,mdp,2024.2.1,MacIntel,30.03003003,66d7945b1baad48e845df3ce,,,,,,,,,,,,,,,,,,,,,246.7898,246.7898,246.7908,248.0236,1,0,right,0.6677,,248.0248,248.0258,,0,,248.0265,248.0272,,0,,1,248.0272,248.0272,248.0279,249.5238,0,18,18,18,1,0.2,0.8,0.8,0.2,1,0,,,,,,,,,,,,,,,,,,,,,,,,,,,,,,,,,,,,
,,5fc4c49da0603a4d5feae548,66daf5926301aed538d7ecee,2024-09-06_14h31.03.428,mdp,2024.2.1,MacIntel,30.03003003,66d7945b1baad48e845df3ce,,,,,,,,,,,,,,,,,,,,,249.5242,249.5242,249.5251,250.7562,1,0,right,0.6744,,250.7574,250.7583,,1,,250.759,250.7594,,0,,1,250.7594,250.7595,250.76,252.2568,0,19,19,19,1,0.2,0.8,0.8,0.2,1,0,,,,,,,,,,,,,,,,,,,,,,,,,,,,,,,,,,,,
,,5fc4c49da0603a4d5feae548,66daf5926301aed538d7ecee,2024-09-06_14h31.03.428,mdp,2024.2.1,MacIntel,30.03003003,66d7945b1baad48e845df3ce,,,,,,,,,,,,,,,,,,,,,252.2571,252.2571,252.258,254.3241,0,0,left,1.5519,,254.325,254.3257,,0,,254.3262,254.3267,,0,,1,254.3268,254.3268,254.3271,255.8244,0,20,20,20,1,0.8,0.2,0.4,0.6,1,0,,,,,,,,,,,,,,,,,,,,,,,,,,,,,,,,,,,,
,,5fc4c49da0603a4d5feae548,66daf5926301aed538d7ecee,2024-09-06_14h31.03.428,mdp,2024.2.1,MacIntel,30.03003003,66d7945b1baad48e845df3ce,,,,,,,,,,,,,,,,,,,,,255.8247,255.8247,255.8256,259.1914,1,0,right,2.8232,,259.2009,259.2014,,1,,259.2018,259.2021,,0,,1,259.2022,259.2022,259.2025,260.6919,0,21,21,21,1,0.8,0.2,0.4,0.6,1,0,,,,,,,,,,,,,,,,,,,,,,,,,,,,,,,,,,,,
,,5fc4c49da0603a4d5feae548,66daf5926301aed538d7ecee,2024-09-06_14h31.03.428,mdp,2024.2.1,MacIntel,30.03003003,66d7945b1baad48e845df3ce,,,,,,,,,,,,,,,,,,,,,260.6923,260.6923,260.6933,261.5916,1,1,right,0.3328,,261.5927,261.5934,,0,,261.5942,261.5948,,1,,0,261.5949,261.595,261.5954,263.0919,0,22,22,22,1,0.8,0.2,0.4,0.6,1,0,,,,,,,,,,,,,,,,,,,,,,,,,,,,,,,,,,,,
,,5fc4c49da0603a4d5feae548,66daf5926301aed538d7ecee,2024-09-06_14h31.03.428,mdp,2024.2.1,MacIntel,30.03003003,66d7945b1baad48e845df3ce,,,,,,,,,,,,,,,,,,,,,263.0922,263.0922,263.0932,266.0921,0,0,left,2.4882,,266.102,266.1026,,0,,266.1029,266.1034,,0,,1,266.1034,266.1034,266.1038,267.5931,0,23,23,23,1,0.8,0.2,0.4,0.6,1,0,,,,,,,,,,,,,,,,,,,,,,,,,,,,,,,,,,,,
,,5fc4c49da0603a4d5feae548,66daf5926301aed538d7ecee,2024-09-06_14h31.03.428,mdp,2024.2.1,MacIntel,30.03003003,66d7945b1baad48e845df3ce,,,,,,,,,,,,,,,,,,,,,267.5934,267.5934,267.5943,268.5601,1,0,right,0.4145,,268.5611,268.5617,,0,,268.5623,268.5627,,0,,1,268.5628,268.5628,268.5632,270.06,0,24,24,24,1,0.6,0.4,0.8,0.2,1,0,,,,,,,,,,,,,,,,,,,,,,,,,,,,,,,,,,,,
,,5fc4c49da0603a4d5feae548,66daf5926301aed538d7ecee,2024-09-06_14h31.03.428,mdp,2024.2.1,MacIntel,30.03003003,66d7945b1baad48e845df3ce,,,,,,,,,,,,,,,,,,,,,270.0604,270.0604,270.0613,270.994,1,1,right,0.3784,,270.9949,270.9957,,1,,270.9962,270.9968,,0,,0,270.9968,270.9968,270.9973,272.4942,0,25,25,25,1,0.6,0.4,0.8,0.2,1,0,,,,,,,,,,,,,,,,,,,,,,,,,,,,,,,,,,,,
,,5fc4c49da0603a4d5feae548,66daf5926301aed538d7ecee,2024-09-06_14h31.03.428,mdp,2024.2.1,MacIntel,30.03003003,66d7945b1baad48e845df3ce,,,,,,,,,,,,,,,,,,,,,272.4946,272.4946,272.4956,273.2936,0,0,left,0.2302,,273.2946,273.2954,,0,,273.2961,273.2969,,1,,1,273.2969,273.2969,273.2974,274.7945,0,26,26,26,1,0.6,0.4,0.8,0.2,1,0,,,,,,,,,,,,,,,,,,,,,,,,,,,,,,,,,,,,
,,5fc4c49da0603a4d5feae548,66daf5926301aed538d7ecee,2024-09-06_14h31.03.428,mdp,2024.2.1,MacIntel,30.03003003,66d7945b1baad48e845df3ce,,,,,,,,,,,,,,,,,,,,,274.7949,274.7949,274.7959,275.5271,1,0,right,0.1881,,275.5277,275.5283,,0,,275.5286,275.5289,,0,,1,275.529,275.529,275.5293,277.0279,0,27,27,27,1,0.6,0.4,0.8,0.2,1,0,,,,,,,,,,,,,,,,,,,,,,,,,,,,,,,,,,,,
,,5fc4c49da0603a4d5feae548,66daf5926301aed538d7ecee,2024-09-06_14h31.03.428,mdp,2024.2.1,MacIntel,30.03003003,66d7945b1baad48e845df3ce,,,,,,,,,,,,,,,,,,,,,277.0282,277.0282,277.0293,278.0611,1,1,right,0.4989,,278.0623,278.063,,0,,278.0638,278.0644,,1,,0,278.0644,278.0644,278.0649,279.5613,0,28,28,28,1,0.6,0.4,0.8,0.2,1,0,,,,,,,,,,,,,,,,,,,,,,,,,,,,,,,,,,,,
,,5fc4c49da0603a4d5feae548,66daf5926301aed538d7ecee,2024-09-06_14h31.03.428,mdp,2024.2.1,MacIntel,30.03003003,66d7945b1baad48e845df3ce,,,,,,,,,,,,,,,,,,,,,279.5617,279.5617,279.5628,280.0955,0,1,left,0.003,,280.0966,280.0974,,1,,280.0982,280.0988,,1,,0,280.0988,280.0989,280.0993,281.5948,0,29,29,29,1,0.6,0.4,0.8,0.2,1,0,,,,,,,,,,,,,,,,,,,,,,,,,,,,,,,,,,,,
,,5fc4c49da0603a4d5feae548,66daf5926301aed538d7ecee,2024-09-06_14h31.03.428,mdp,2024.2.1,MacIntel,30.03003003,66d7945b1baad48e845df3ce,,,,,,,,,,,,,,,,,,,,,281.5951,281.5952,281.5963,282.8961,1,0,right,0.7466,,282.8971,282.8979,,0,,282.8984,282.899,,0,,1,282.899,282.899,282.8995,284.396,0,30,30,30,1,0.6,0.4,0.8,0.2,1,0,,,,,,,,,,,,,,,,,,,,,,,,,,,,,,,,,,,,
,,5fc4c49da0603a4d5feae548,66daf5926301aed538d7ecee,2024-09-06_14h31.03.428,mdp,2024.2.1,MacIntel,30.03003003,66d7945b1baad48e845df3ce,,,,,,,,,,,,,,,,,,,,,284.3965,284.3966,284.3978,285.0295,0,0,left,0.071,,285.0306,285.0315,,0,,285.0322,285.0328,,0,,1,285.0328,285.0328,285.0334,286.5296,0,31,31,31,1,0.6,0.4,0.8,0.2,1,0,,,,,,,,,,,,,,,,,,,,,,,,,,,,,,,,,,,,
,,5fc4c49da0603a4d5feae548,66daf5926301aed538d7ecee,2024-09-06_14h31.03.428,mdp,2024.2.1,MacIntel,30.03003003,66d7945b1baad48e845df3ce,,,,,,,,,,,,,,,,,,,,,286.53,286.53,286.5309,287.4622,0,0,left,0.3871,,287.4628,287.4635,,1,,287.464,287.4644,,0,,1,287.4644,287.4644,287.4647,288.9635,0,32,32,32,1,0.6,0.4,0.8,0.2,1,0,,,,,,,,,,,,,,,,,,,,,,,,,,,,,,,,,,,,
,,5fc4c49da0603a4d5feae548,66daf5926301aed538d7ecee,2024-09-06_14h31.03.428,mdp,2024.2.1,MacIntel,30.03003003,66d7945b1baad48e845df3ce,,,,,,,,,,,,,,,,,,,,,288.964,288.964,288.9652,289.9637,1,0,right,0.4307,,289.9647,289.9655,,0,,289.9661,289.9666,,0,,1,289.9667,289.9667,289.9671,291.4643,0,33,33,33,1,0.6,0.4,0.8,0.2,1,0,,,,,,,,,,,,,,,,,,,,,,,,,,,,,,,,,,,,
,,5fc4c49da0603a4d5feae548,66daf5926301aed538d7ecee,2024-09-06_14h31.03.428,mdp,2024.2.1,MacIntel,30.03003003,66d7945b1baad48e845df3ce,,,,,,,,,,,,,,,,,,,,,291.4645,291.4646,291.4653,292.5308,0,1,left,0.4982,,292.5319,292.5326,,0,,292.5334,292.5341,,1,,0,292.5341,292.5341,292.5346,294.0301,0,34,34,34,1,0.6,0.4,0.8,0.2,1,0,,,,,,,,,,,,,,,,,,,,,,,,,,,,,,,,,,,,
,,5fc4c49da0603a4d5feae548,66daf5926301aed538d7ecee,2024-09-06_14h31.03.428,mdp,2024.2.1,MacIntel,30.03003003,66d7945b1baad48e845df3ce,,,,,,,,,,,,,,,,,,,,,294.0304,294.0304,294.0312,294.8977,0,1,left,0.3359,,294.8987,294.8994,,0,,294.8998,294.9003,,0,,0,294.9003,294.9003,294.9007,296.3981,0,35,35,35,1,0.6,0.4,0.8,0.2,1,0,,,,,,,,,,,,,,,,,,,,,,,,,,,,,,,,,,,,
,,5fc4c49da0603a4d5feae548,66daf5926301aed538d7ecee,2024-09-06_14h31.03.428,mdp,2024.2.1,MacIntel,30.03003003,66d7945b1baad48e845df3ce,,,,,,,,,,,,,,,,,,,,,296.3985,296.3985,296.3997,297.2642,1,0,right,0.3018,,297.2653,297.266,,1,,297.2668,297.2674,,0,,1,297.2674,297.2674,297.2678,298.7651,0,36,36,36,1,0.8,0.2,0.6,0.4,1,0,,,,,,,,,,,,,,,,,,,,,,,,,,,,,,,,,,,,
,,5fc4c49da0603a4d5feae548,66daf5926301aed538d7ecee,2024-09-06_14h31.03.428,mdp,2024.2.1,MacIntel,30.03003003,66d7945b1baad48e845df3ce,,,,,,,,,,,,,,,,,,,,,298.7656,298.7656,298.7665,299.6989,1,1,right,0.3696,,299.6997,299.7004,,0,,299.7011,299.7016,,0,,0,299.7016,299.7016,299.7021,301.1979,0,37,37,37,1,0.8,0.2,0.6,0.4,1,0,,,,,,,,,,,,,,,,,,,,,,,,,,,,,,,,,,,,
,,5fc4c49da0603a4d5feae548,66daf5926301aed538d7ecee,2024-09-06_14h31.03.428,mdp,2024.2.1,MacIntel,30.03003003,66d7945b1baad48e845df3ce,,,,,,,,,,,,,,,,,,,,,301.1982,301.1982,301.1991,302.0319,1,0,right,0.2674,,302.0325,302.0331,,0,,302.0335,302.0338,,0,,1,302.0339,302.0339,302.0342,303.5316,0,38,38,38,1,0.8,0.2,0.6,0.4,1,0,,,,,,,,,,,,,,,,,,,,,,,,,,,,,,,,,,,,
,,5fc4c49da0603a4d5feae548,66daf5926301aed538d7ecee,2024-09-06_14h31.03.428,mdp,2024.2.1,MacIntel,30.03003003,66d7945b1baad48e845df3ce,,,,,,,,,,,,,,,,,,,,,303.532,303.532,303.533,305.7317,0,0,left,1.6829,,305.7322,305.7327,,0,,305.7334,305.7338,,0,,1,305.7338,305.7338,305.7342,307.2328,0,39,39,39,1,0.8,0.2,0.6,0.4,1,0,,,,,,,,,,,,,,,,,,,,,,,,,,,,,,,,,,,,
,,5fc4c49da0603a4d5feae548,66daf5926301aed538d7ecee,2024-09-06_14h31.03.428,mdp,2024.2.1,MacIntel,30.03003003,66d7945b1baad48e845df3ce,,,,,,,,,,,,,,,,,,,,,307.2331,307.2331,307.2353,309.1333,0,1,left,1.3571,,309.1341,309.1346,,0,,309.135,309.1354,,1,,0,309.1354,309.1354,309.1359,310.6332,0,40,40,40,1,0.8,0.2,0.6,0.4,1,0,,,,,,,,,,,,,,,,,,,,,,,,,,,,,,,,,,,,
,,5fc4c49da0603a4d5feae548,66daf5926301aed538d7ecee,2024-09-06_14h31.03.428,mdp,2024.2.1,MacIntel,30.03003003,66d7945b1baad48e845df3ce,,,,,,,,,,,,,,,,,,,,,310.6335,310.6335,310.6344,311.5329,0,0,left,0.3829,,311.5338,311.5343,,0,,311.5347,311.5351,,0,,1,311.5351,311.5351,311.5354,313.0334,0,41,41,41,1,0.8,0.2,0.6,0.4,1,0,,,,,,,,,,,,,,,,,,,,,,,,,,,,,,,,,,,,
,,5fc4c49da0603a4d5feae548,66daf5926301aed538d7ecee,2024-09-06_14h31.03.428,mdp,2024.2.1,MacIntel,30.03003003,66d7945b1baad48e845df3ce,,,,,,,,,,,,,,,,,,,,,313.0337,313.0337,313.0346,313.9999,0,0,left,0.4533,,314.0005,314.0009,,1,,314.0013,314.0016,,1,,1,314.0016,314.0016,314.002,315.5012,0,42,42,42,1,0.8,0.2,0.6,0.4,1,0,,,,,,,,,,,,,,,,,,,,,,,,,,,,,,,,,,,,
,,5fc4c49da0603a4d5feae548,66daf5926301aed538d7ecee,2024-09-06_14h31.03.428,mdp,2024.2.1,MacIntel,30.03003003,66d7945b1baad48e845df3ce,,,,,,,,,,,,,,,,,,,,,315.5016,315.5017,315.5027,316.168,1,1,right,0.1129,,316.1694,316.1703,,1,,316.1709,316.1714,,1,,0,316.1715,316.1715,316.1719,317.6671,0,43,43,43,1,0.6,0.4,0.2,0.8,1,0,,,,,,,,,,,,,,,,,,,,,,,,,,,,,,,,,,,,
,,5fc4c49da0603a4d5feae548,66daf5926301aed538d7ecee,2024-09-06_14h31.03.428,mdp,2024.2.1,MacIntel,30.03003003,66d7945b1baad48e845df3ce,,,,,,,,,,,,,,,,,,,,,317.6676,317.6676,317.6686,318.2348,0,0,left,0.0395,,318.236,318.2369,,0,,318.2375,318.2382,,0,,1,318.2383,318.2383,318.2387,319.7342,0,44,44,44,1,0.8,0.2,0.8,0.2,1,0,,,,,,,,,,,,,,,,,,,,,,,,,,,,,,,,,,,,
,,5fc4c49da0603a4d5feae548,66daf5926301aed538d7ecee,2024-09-06_14h31.03.428,mdp,2024.2.1,MacIntel,30.03003003,66d7945b1baad48e845df3ce,,,,,,,,,,,,,,,,,,,,,319.7346,319.7346,319.7356,320.5688,0,1,left,0.3031,,320.57,320.5708,,1,,320.5715,320.5719,,0,,0,320.5719,320.5719,320.5726,322.0684,0,45,45,45,1,0.8,0.2,0.8,0.2,1,0,,,,,,,,,,,,,,,,,,,,,,,,,,,,,,,,,,,,
,,5fc4c49da0603a4d5feae548,66daf5926301aed538d7ecee,2024-09-06_14h31.03.428,mdp,2024.2.1,MacIntel,30.03003003,66d7945b1baad48e845df3ce,,,,,,,,,,,,,,,,,,,,,322.0687,322.0687,322.0693,323.2686,0,0,left,0.6357,,323.2694,323.2699,,0,,323.2704,323.2709,,0,,1,323.2709,323.2709,323.2713,324.7685,0,46,46,46,1,0.6,0.4,0.4,0.6,1,0,,,,,,,,,,,,,,,,,,,,,,,,,,,,,,,,,,,,
,,5fc4c49da0603a4d5feae548,66daf5926301aed538d7ecee,2024-09-06_14h31.03.428,mdp,2024.2.1,MacIntel,30.03003003,66d7945b1baad48e845df3ce,,,,,,,,,,,,,,,,,,,,,324.7687,324.7687,324.7693,325.3355,0,0,left,0.0544,,325.3361,325.3366,,0,,325.337,325.3372,,0,,1,325.3373,325.3373,325.3375,326.836,0,47,47,47,1,0.6,0.4,0.4,0.6,1,0,,,,,,,,,,,,,,,,,,,,,,,,,,,,,,,,,,,,
,,5fc4c49da0603a4d5feae548,66daf5926301aed538d7ecee,2024-09-06_14h31.03.428,mdp,2024.2.1,MacIntel,30.03003003,66d7945b1baad48e845df3ce,,,,,,,,,,,,,,,,,,,,,326.8365,326.8365,326.8374,327.5028,0,0,left,0.1186,,327.5039,327.5047,,1,,327.5054,327.506,,1,,1,327.506,327.5061,327.5065,329.0034,0,48,48,48,1,0.2,0.8,0.8,0.2,1,0,,,,,,,,,,,,,,,,,,,,,,,,,,,,,,,,,,,,
,,5fc4c49da0603a4d5feae548,66daf5926301aed538d7ecee,2024-09-06_14h31.03.428,mdp,2024.2.1,MacIntel,30.03003003,66d7945b1baad48e845df3ce,,,,,,,,,,,,,,,,,,,,,329.0037,329.0038,329.0048,330.6693,0,0,left,1.101,,330.6701,330.6709,,0,,330.6714,330.6721,,1,,1,330.6722,330.6722,330.6727,332.1706,0,49,49,49,1,0.6,0.4,0.6,0.4,1,0,,,,,,,,,,,,,,,,,,,,,,,,,,,,,,,,,,,,
,,5fc4c49da0603a4d5feae548,66daf5926301aed538d7ecee,2024-09-06_14h31.03.428,mdp,2024.2.1,MacIntel,30.03003003,66d7945b1baad48e845df3ce,,,,,,,,,,,,,,,,,,,,,,,,,,,,,,,,,,,,,,,,,,,,,,,,,,,,,,,,332.1713,490.2759,0,0,0,7,1,imgs/dog.png,imgs/pig.png,imgs/cat.png,imgs/squirrel.png,imgs/goat.png,,,,,,,,,,,,,,,,,,,,,,,,
,,5fc4c49da0603a4d5feae548,66daf5926301aed538d7ecee,2024-09-06_14h31.03.428,mdp,2024.2.1,MacIntel,30.03003003,66d7945b1baad48e845df3ce,,,,,,,,,,,,,,2,seqs/st2seq27.csv,490.2859,491.9464,space,1.1032,,491.9528,491.9528,491.9536,493.9463,0,0,left,1.3983,,493.947,495.6134,0,1,left,495.6143,495.6151,,1,,0,495.6151,495.6151,495.6158,497.1141,0,0,0,0,1,0.8,0.2,0.4,0.6,,,,,,,,,,,,,,,1.1316,,0.4,0.6,0.2,0.8,0.8,0.2,0.6,0.4,1,0,,,,,,,,,,,,
,,5fc4c49da0603a4d5feae548,66daf5926301aed538d7ecee,2024-09-06_14h31.03.428,mdp,2024.2.1,MacIntel,30.03003003,66d7945b1baad48e845df3ce,,,,,,,,,,,,,,,,,,,,,497.1153,497.1153,497.1181,502.1146,0,0,left,4.4389,,502.128,503.5147,1,1,right,503.5154,503.5159,,0,,0,503.516,503.516,503.5163,505.0143,0,1,1,1,1,0.8,0.2,0.4,0.6,,,,,,,,,,,,,,,0.8353,,0.2,0.8,0.4,0.6,0.8,0.2,0.6,0.4,1,0,,,,,,,,,,,,
,,5fc4c49da0603a4d5feae548,66daf5926301aed538d7ecee,2024-09-06_14h31.03.428,mdp,2024.2.1,MacIntel,30.03003003,66d7945b1baad48e845df3ce,,,,,,,,,,,,,,,,,,,,,505.0148,505.0148,505.0158,506.1486,1,0,right,0.6059,,506.1497,507.7489,0,0,left,507.7511,507.7522,,1,,1,507.7523,507.7523,507.7532,509.2502,0,2,2,2,1,0.8,0.2,0.4,0.6,,,,,,,,,,,,,,,1.0613,,0.2,0.8,0.4,0.6,0.8,0.2,0.6,0.4,1,0,,,,,,,,,,,,
,,5fc4c49da0603a4d5feae548,66daf5926301aed538d7ecee,2024-09-06_14h31.03.428,mdp,2024.2.1,MacIntel,30.03003003,66d7945b1baad48e845df3ce,,,,,,,,,,,,,,,,,,,,,509.2514,509.2515,509.2533,510.4168,1,1,right,0.6031,,510.4193,515.6503,0,1,left,515.6615,515.6621,,0,,0,515.6621,515.6621,515.6624,517.1512,0,3,3,3,1,0.8,0.2,0.4,0.6,,,,,,,,,,,,,,,4.6516,,0.2,0.8,0.4,0.6,0.8,0.2,0.6,0.4,1,0,,,,,,,,,,,,
,,5fc4c49da0603a4d5feae548,66daf5926301aed538d7ecee,2024-09-06_14h31.03.428,mdp,2024.2.1,MacIntel,30.03003003,66d7945b1baad48e845df3ce,,,,,,,,,,,,,,,,,,,,,517.1517,517.1517,517.1527,517.8831,1,1,right,0.1808,,517.884,518.884,1,1,right,518.885,518.8858,,0,,0,518.8859,518.8859,518.8865,520.3839,0,4,4,4,1,0.8,0.2,0.4,0.6,,,,,,,,,,,,,,,0.4703,,0.2,0.8,0.4,0.6,0.8,0.2,0.6,0.4,1,0,,,,,,,,,,,,
,,5fc4c49da0603a4d5feae548,66daf5926301aed538d7ecee,2024-09-06_14h31.03.428,mdp,2024.2.1,MacIntel,30.03003003,66d7945b1baad48e845df3ce,,,,,,,,,,,,,,,,,,,,,520.3841,520.3841,520.3847,521.3839,0,0,left,0.4651,,521.385,523.7175,0,1,left,523.7181,523.7187,,1,,0,523.7187,523.7187,523.7191,525.218,0,5,5,5,1,0.8,0.2,0.4,0.6,,,,,,,,,,,,,,,1.7989,,0.2,0.8,0.4,0.6,0.8,0.2,0.6,0.4,1,0,,,,,,,,,,,,
,,5fc4c49da0603a4d5feae548,66daf5926301aed538d7ecee,2024-09-06_14h31.03.428,mdp,2024.2.1,MacIntel,30.03003003,66d7945b1baad48e845df3ce,,,,,,,,,,,,,,,,,,,,,525.2182,525.2183,525.2189,528.4191,1,1,right,2.6377,,528.4291,530.9195,1,1,right,530.9201,530.9206,,1,,0,530.9206,530.9206,530.921,532.4197,0,6,6,6,1,0.8,0.2,0.4,0.6,,,,,,,,,,,,,,,1.9553,,0.8,0.2,0.2,0.8,0.8,0.2,0.6,0.4,1,0,,,,,,,,,,,,
,,5fc4c49da0603a4d5feae548,66daf5926301aed538d7ecee,2024-09-06_14h31.03.428,mdp,2024.2.1,MacIntel,30.03003003,66d7945b1baad48e845df3ce,,,,,,,,,,,,,,,,,,,,,532.4202,532.4202,532.4215,533.6521,1,1,right,0.6874,,533.6527,536.0865,1,1,right,536.0873,536.0878,,0,,0,536.0879,536.0879,536.0884,537.5878,0,7,7,7,1,0.8,0.2,0.4,0.6,,,,,,,,,,,,,,,1.9037,,0.8,0.2,0.2,0.8,0.8,0.2,0.6,0.4,1,0,,,,,,,,,,,,
,,5fc4c49da0603a4d5feae548,66daf5926301aed538d7ecee,2024-09-06_14h31.03.428,mdp,2024.2.1,MacIntel,30.03003003,66d7945b1baad48e845df3ce,,,,,,,,,,,,,,,,,,,,,537.5885,537.5885,537.5896,538.5868,0,0,left,0.4492,,538.5876,540.6204,1,1,right,540.6215,540.6222,,1,,0,540.6222,540.6222,540.6229,542.1218,0,8,8,8,1,0.8,0.2,0.4,0.6,,,,,,,,,,,,,,,1.4883,,0.8,0.2,0.2,0.8,0.8,0.2,0.6,0.4,1,0,,,,,,,,,,,,
,,5fc4c49da0603a4d5feae548,66daf5926301aed538d7ecee,2024-09-06_14h31.03.428,mdp,2024.2.1,MacIntel,30.03003003,66d7945b1baad48e845df3ce,,,,,,,,,,,,,,,,,,,,,542.1226,542.1226,542.124,543.3874,0,0,left,0.6933,0.0209,543.388,545.7555,0,0,left,545.7565,545.7576,,0,,1,545.7576,545.7576,545.7582,547.2554,0,9,9,9,1,0.8,0.2,0.4,0.6,,,,,,,,,,,,,,,1.8343,,0.8,0.2,0.2,0.8,0.4,0.6,0.2,0.8,1,0,,,,,,,,,,,,
,,5fc4c49da0603a4d5feae548,66daf5926301aed538d7ecee,2024-09-06_14h31.03.428,mdp,2024.2.1,MacIntel,30.03003003,66d7945b1baad48e845df3ce,,,,,,,,,,,,,,,,,,,,,547.2558,547.2558,547.2568,548.2221,0,0,left,0.4384,,548.2232,551.1227,0,0,left,551.1352,551.1358,,0,,1,551.1358,551.1359,551.1363,552.6226,0,10,10,10,1,0.8,0.2,0.4,0.6,,,,,,,,,,,,,,,2.3405,,0.8,0.2,0.2,0.8,0.4,0.6,0.2,0.8,1,0,,,,,,,,,,,,
,,5fc4c49da0603a4d5feae548,66daf5926301aed538d7ecee,2024-09-06_14h31.03.428,mdp,2024.2.1,MacIntel,30.03003003,66d7945b1baad48e845df3ce,,,,,,,,,,,,,,,,,,,,,552.623,552.623,552.6242,553.6893,0,0,left,0.5409,,553.6903,555.3577,0,0,left,555.3599,555.3611,,0,,1,555.3611,555.3611,555.3617,556.8567,0,11,11,11,1,0.8,0.2,0.4,0.6,,,,,,,,,,,,,,,1.1378,,0.8,0.2,0.2,0.8,0.4,0.6,0.2,0.8,1,0,,,,,,,,,,,,
,,5fc4c49da0603a4d5feae548,66daf5926301aed538d7ecee,2024-09-06_14h31.03.428,mdp,2024.2.1,MacIntel,30.03003003,66d7945b1baad48e845df3ce,,,,,,,,,,,,,,,,,,,,,556.8573,556.8573,556.8582,557.9239,0,0,left,0.5294,,557.9264,559.5911,0,1,left,559.5924,559.5935,,0,,0,559.5935,559.5935,559.5942,561.0921,0,12,12,12,1,0.8,0.2,0.4,0.6,,,,,,,,,,,,,,,1.1005,,0.8,0.2,0.2,0.8,0.4,0.6,0.2,0.8,1,0,,,,,,,,,,,,
,,5fc4c49da0603a4d5feae548,66daf5926301aed538d7ecee,2024-09-06_14h31.03.428,mdp,2024.2.1,MacIntel,30.03003003,66d7945b1baad48e845df3ce,,,,,,,,,,,,,,,,,,,,,561.0937,561.0937,561.0959,562.4908,0,0,left,0.8435,,562.4918,563.6578,0,0,left,563.6588,563.6597,,0,,1,563.6597,563.6597,563.6603,565.1582,0,13,13,13,1,0.8,0.2,0.4,0.6,,,,,,,,,,,,,,,0.6431,,0.8,0.2,0.2,0.8,0.4,0.6,0.2,0.8,1,0,,,,,,,,,,,,
,,5fc4c49da0603a4d5feae548,66daf5926301aed538d7ecee,2024-09-06_14h31.03.428,mdp,2024.2.1,MacIntel,30.03003003,66d7945b1baad48e845df3ce,,,,,,,,,,,,,,,,,,,,,565.1587,565.1587,565.16,566.0584,0,0,left,0.3313,,566.0609,567.4595,0,0,left,567.462,567.4636,,0,,1,567.4637,567.4637,567.4644,568.9584,0,14,14,14,1,0.8,0.2,0.4,0.6,,,,,,,,,,,,,,,0.832,,0.8,0.2,0.2,0.8,0.4,0.6,0.2,0.8,1,0,,,,,,,,,,,,
,,5fc4c49da0603a4d5feae548,66daf5926301aed538d7ecee,2024-09-06_14h31.03.428,mdp,2024.2.1,MacIntel,30.03003003,66d7945b1baad48e845df3ce,,,,,,,,,,,,,,,,,,,,,568.9589,568.9589,568.9599,569.525,0,0,left,0.0372,,569.5261,571.0267,1,0,right,571.0291,571.0305,,1,,1,571.0305,571.0305,571.0312,572.526,0,15,15,15,1,0.8,0.2,0.4,0.6,,,,,,,,,,,,,,,0.9683,,0.8,0.2,0.2,0.8,0.4,0.6,0.2,0.8,1,0,,,,,,,,,,,,
,,5fc4c49da0603a4d5feae548,66daf5926301aed538d7ecee,2024-09-06_14h31.03.428,mdp,2024.2.1,MacIntel,30.03003003,66d7945b1baad48e845df3ce,,,,,,,,,,,,,,,,,,,,,572.5271,572.5272,572.5292,573.4266,0,1,left,0.3352,,573.4277,575.5937,0,1,left,575.595,575.5958,,1,,0,575.5959,575.5959,575.5965,577.0938,0,16,16,16,1,0.8,0.2,0.4,0.6,,,,,,,,,,,,,,,1.5983,,0.8,0.2,0.2,0.8,0.4,0.6,0.2,0.8,1,0,,,,,,,,,,,,
,,5fc4c49da0603a4d5feae548,66daf5926301aed538d7ecee,2024-09-06_14h31.03.428,mdp,2024.2.1,MacIntel,30.03003003,66d7945b1baad48e845df3ce,,,,,,,,,,,,,,,,,,,,,577.0942,577.0942,577.0951,578.893,0,0,left,1.2395,,578.8937,582.8287,0,1,left,582.8413,582.8419,,0,,0,582.842,582.842,582.8426,584.3281,0,17,17,17,1,0.8,0.2,0.4,0.6,,,,,,,,,,,,,,,3.3987,,0.8,0.2,0.2,0.8,0.4,0.6,0.2,0.8,1,0,,,,,,,,,,,,
,,5fc4c49da0603a4d5feae548,66daf5926301aed538d7ecee,2024-09-06_14h31.03.428,mdp,2024.2.1,MacIntel,30.03003003,66d7945b1baad48e845df3ce,,,,,,,,,,,,,,,,,,,,,584.3287,584.3287,584.3297,585.0288,0,0,left,0.1342,,585.0302,587.2293,0,0,left,587.2314,587.2327,,0,,1,587.2327,587.2327,587.2333,588.729,0,18,18,18,1,0.8,0.2,0.4,0.6,,,,,,,,,,,,,,,1.6344,,0.8,0.2,0.2,0.8,0.4,0.6,0.2,0.8,1,0,,,,,,,,,,,,
,,5fc4c49da0603a4d5feae548,66daf5926301aed538d7ecee,2024-09-06_14h31.03.428,mdp,2024.2.1,MacIntel,30.03003003,66d7945b1baad48e845df3ce,,,,,,,,,,,,,,,,,,,,,588.7294,588.7295,588.7308,589.9962,0,0,left,0.7008,,589.9984,591.895,1,1,right,591.896,591.8966,,1,,0,591.8967,591.8967,591.8973,593.3966,0,19,19,19,1,0.8,0.2,0.4,0.6,,,,,,,,,,,,,,,1.3387,,0.8,0.2,0.2,0.8,0.6,0.4,0.8,0.2,1,0,,,,,,,,,,,,
,,5fc4c49da0603a4d5feae548,66daf5926301aed538d7ecee,2024-09-06_14h31.03.428,mdp,2024.2.1,MacIntel,30.03003003,66d7945b1baad48e845df3ce,,,,,,,,,,,,,,,,,,,,,593.3971,593.3971,593.398,594.4638,0,0,left,0.5205,,594.465,595.8299,0,0,left,595.8307,595.8312,,0,,1,595.8312,595.8312,595.8316,597.3291,0,20,20,20,1,0.8,0.2,0.4,0.6,,,,,,,,,,,,,,,0.8224,,0.8,0.2,0.2,0.8,0.8,0.2,0.4,0.6,1,0,,,,,,,,,,,,
,,5fc4c49da0603a4d5feae548,66daf5926301aed538d7ecee,2024-09-06_14h31.03.428,mdp,2024.2.1,MacIntel,30.03003003,66d7945b1baad48e845df3ce,,,,,,,,,,,,,,,,,,,,,597.3296,597.3296,597.3306,598.196,0,0,left,0.2936,,598.1969,600.3643,1,1,right,600.3656,600.3666,,1,,0,600.3666,600.3666,600.3671,601.8644,0,21,21,21,1,0.8,0.2,0.4,0.6,,,,,,,,,,,,,,,1.6406,,0.8,0.2,0.2,0.8,0.8,0.2,0.4,0.6,1,0,,,,,,,,,,,,
,,5fc4c49da0603a4d5feae548,66daf5926301aed538d7ecee,2024-09-06_14h31.03.428,mdp,2024.2.1,MacIntel,30.03003003,66d7945b1baad48e845df3ce,,,,,,,,,,,,,,,,,,,,,601.8654,601.8655,601.8677,602.7305,0,0,left,0.3093,,602.7313,603.8971,0,0,left,603.8982,603.8987,,1,,1,603.8988,603.8988,603.8992,605.3991,0,22,22,22,1,0.8,0.2,0.4,0.6,,,,,,,,,,,,,,,0.652,,0.8,0.2,0.2,0.8,0.8,0.2,0.4,0.6,1,0,,,,,,,,,,,,
,,5fc4c49da0603a4d5feae548,66daf5926301aed538d7ecee,2024-09-06_14h31.03.428,mdp,2024.2.1,MacIntel,30.03003003,66d7945b1baad48e845df3ce,,,,,,,,,,,,,,,,,,,,,605.4006,605.4007,605.4035,606.3649,0,0,left,0.4021,,606.3657,607.5318,0,0,left,607.533,607.5337,,0,,1,607.5338,607.5338,607.5343,609.0323,0,23,23,23,1,0.8,0.2,0.4,0.6,,,,,,,,,,,,,,,0.6071,,0.8,0.2,0.2,0.8,0.8,0.2,0.4,0.6,1,0,,,,,,,,,,,,
,,5fc4c49da0603a4d5feae548,66daf5926301aed538d7ecee,2024-09-06_14h31.03.428,mdp,2024.2.1,MacIntel,30.03003003,66d7945b1baad48e845df3ce,,,,,,,,,,,,,,,,,,,,,609.0327,609.0327,609.034,609.8317,0,0,left,0.2522,,609.8329,610.9001,0,0,left,610.9032,610.904,,0,,1,610.904,610.904,610.9046,612.3998,0,24,24,24,1,0.8,0.2,0.4,0.6,,,,,,,,,,,,,,,0.5316,,0.8,0.2,0.2,0.8,0.8,0.2,0.4,0.6,1,0,,,,,,,,,,,,
,,5fc4c49da0603a4d5feae548,66daf5926301aed538d7ecee,2024-09-06_14h31.03.428,mdp,2024.2.1,MacIntel,30.03003003,66d7945b1baad48e845df3ce,,,,,,,,,,,,,,,,,,,,,612.4004,612.4004,612.4015,613.3328,0,0,left,0.3687,,613.3357,614.3661,0,1,left,614.3674,614.3682,,0,,0,614.3682,614.3682,614.3686,615.8666,0,25,25,25,1,0.8,0.2,0.4,0.6,,,,,,,,,,,,,,,0.5029,,0.8,0.2,0.2,0.8,0.8,0.2,0.4,0.6,1,0,,,,,,,,,,,,
,,5fc4c49da0603a4d5feae548,66daf5926301aed538d7ecee,2024-09-06_14h31.03.428,mdp,2024.2.1,MacIntel,30.03003003,66d7945b1baad48e845df3ce,,,,,,,,,,,,,,,,,,,,,615.8677,615.8677,615.8702,616.834,0,0,left,0.4023,,616.8366,617.7662,0,0,left,617.7671,617.7678,,1,,1,617.7678,617.7678,617.7682,619.2673,0,26,26,26,1,0.8,0.2,0.4,0.6,,,,,,,,,,,,,,,0.3907,,0.8,0.2,0.2,0.8,0.8,0.2,0.4,0.6,1,0,,,,,,,,,,,,
,,5fc4c49da0603a4d5feae548,66daf5926301aed538d7ecee,2024-09-06_14h31.03.428,mdp,2024.2.1,MacIntel,30.03003003,66d7945b1baad48e845df3ce,,,,,,,,,,,,,,,,,,,,,619.2677,619.2677,619.2687,619.9005,0,0,left,0.0798,,619.9015,621.033,1,0,right,621.0338,621.0343,,0,,1,621.0343,621.0344,621.0347,622.5342,0,27,27,27,1,0.8,0.2,0.4,0.6,,,,,,,,,,,,,,,0.6144,,0.8,0.2,0.2,0.8,0.8,0.2,0.4,0.6,1,0,,,,,,,,,,,,
,,5fc4c49da0603a4d5feae548,66daf5926301aed538d7ecee,2024-09-06_14h31.03.428,mdp,2024.2.1,MacIntel,30.03003003,66d7945b1baad48e845df3ce,,,,,,,,,,,,,,,,,,,,,622.5345,622.5345,622.5351,623.4018,0,0,left,0.2986,,623.404,624.3015,0,0,left,624.3028,624.3035,,0,,1,624.3036,624.3036,624.3043,625.8013,0,28,28,28,1,0.8,0.2,0.4,0.6,,,,,,,,,,,,,,,0.3356,,0.8,0.2,0.2,0.8,0.8,0.2,0.4,0.6,1,0,,,,,,,,,,,,
,,5fc4c49da0603a4d5feae548,66daf5926301aed538d7ecee,2024-09-06_14h31.03.428,mdp,2024.2.1,MacIntel,30.03003003,66d7945b1baad48e845df3ce,,,,,,,,,,,,,,,,,,,,,625.8016,625.8016,625.8026,626.3696,0,0,left,0.0324,,626.3726,627.2681,0,0,left,627.269,627.2695,,0,,1,627.2695,627.2695,627.27,628.7685,0,29,29,29,1,0.8,0.2,0.4,0.6,,,,,,,,,,,,,,,0.3391,,0.8,0.2,0.2,0.8,0.8,0.2,0.4,0.6,1,0,,,,,,,,,,,,
,,5fc4c49da0603a4d5feae548,66daf5926301aed538d7ecee,2024-09-06_14h31.03.428,mdp,2024.2.1,MacIntel,30.03003003,66d7945b1baad48e845df3ce,,,,,,,,,,,,,,,,,,,,,628.7691,628.7691,628.7701,629.3685,0,0,left,0.0388,,629.3693,630.4351,1,0,right,630.4365,630.4371,,0,,1,630.4372,630.4372,630.4379,631.936,0,30,30,30,1,0.8,0.2,0.4,0.6,,,,,,,,,,,,,,,0.5334,,0.8,0.2,0.2,0.8,0.8,0.2,0.4,0.6,1,0,,,,,,,,,,,,
,,5fc4c49da0603a4d5feae548,66daf5926301aed538d7ecee,2024-09-06_14h31.03.428,mdp,2024.2.1,MacIntel,30.03003003,66d7945b1baad48e845df3ce,,,,,,,,,,,,,,,,,,,,,631.9364,631.9364,631.9375,632.5354,0,0,left,0.0337,,632.5367,633.4356,0,0,left,633.4368,633.4378,,0,,1,633.4378,633.4379,633.4385,634.9366,0,31,31,31,1,0.8,0.2,0.4,0.6,,,,,,,,,,,,,,,0.3674,,0.8,0.2,0.2,0.8,0.8,0.2,0.4,0.6,1,0,,,,,,,,,,,,
,,5fc4c49da0603a4d5feae548,66daf5926301aed538d7ecee,2024-09-06_14h31.03.428,mdp,2024.2.1,MacIntel,30.03003003,66d7945b1baad48e845df3ce,,,,,,,,,,,,,,,,,,,,,634.9371,634.9371,634.9383,635.8697,0,0,left,0.3646,,635.8723,636.8038,1,0,right,636.8053,636.8061,,1,,1,636.8062,636.8062,636.8068,638.3026,0,32,32,32,1,0.8,0.2,0.4,0.6,,,,,,,,,,,,,,,0.3663,,0.8,0.2,0.2,0.8,0.8,0.2,0.4,0.6,1,0,,,,,,,,,,,,
,,5fc4c49da0603a4d5feae548,66daf5926301aed538d7ecee,2024-09-06_14h31.03.428,mdp,2024.2.1,MacIntel,30.03003003,66d7945b1baad48e845df3ce,,,,,,,,,,,,,,,,,,,,,638.3031,638.3031,638.3042,639.1367,0,1,left,0.3152,,639.1376,641.1037,1,1,right,641.1044,641.105,,1,,0,641.105,641.1051,641.1054,642.6041,0,33,33,33,1,0.8,0.2,0.4,0.6,,,,,,,,,,,,,,,1.4044,,0.8,0.2,0.2,0.8,0.8,0.2,0.4,0.6,1,0,,,,,,,,,,,,
,,5fc4c49da0603a4d5feae548,66daf5926301aed538d7ecee,2024-09-06_14h31.03.428,mdp,2024.2.1,MacIntel,30.03003003,66d7945b1baad48e845df3ce,,,,,,,,,,,,,,,,,,,,,642.6048,642.6048,642.6071,643.2046,0,1,left,0.0366,,643.2079,644.6378,0,0,left,644.6388,644.6395,,0,,1,644.6395,644.6395,644.6401,646.1373,0,34,34,34,1,0.8,0.2,0.4,0.6,,,,,,,,,,,,,,,0.8781,,0.2,0.8,0.6,0.4,0.8,0.2,0.4,0.6,1,0,,,,,,,,,,,,
,,5fc4c49da0603a4d5feae548,66daf5926301aed538d7ecee,2024-09-06_14h31.03.428,mdp,2024.2.1,MacIntel,30.03003003,66d7945b1baad48e845df3ce,,,,,,,,,,,,,,,,,,,,,646.1377,646.1377,646.1387,647.0043,0,0,left,0.3361,,647.0051,648.738,0,1,left,648.7389,648.7397,,1,,0,648.7398,648.7398,648.7404,650.2387,0,35,35,35,1,0.8,0.2,0.4,0.6,,,,,,,,,,,,,,,1.1739,,0.2,0.8,0.6,0.4,0.6,0.4,0.6,0.4,1,0,,,,,,,,,,,,
,,5fc4c49da0603a4d5feae548,66daf5926301aed538d7ecee,2024-09-06_14h31.03.428,mdp,2024.2.1,MacIntel,30.03003003,66d7945b1baad48e845df3ce,,,,,,,,,,,,,,,,,,,,,650.2392,650.2392,650.2403,651.372,0,0,left,0.5862,,651.3728,652.5732,0,1,left,652.5746,652.5757,,1,,0,652.5757,652.5757,652.5762,654.0726,0,36,36,36,1,0.8,0.2,0.4,0.6,,,,,,,,,,,,,,,0.6637,,0.2,0.8,0.6,0.4,0.6,0.4,0.6,0.4,1,0,,,,,,,,,,,,
,,5fc4c49da0603a4d5feae548,66daf5926301aed538d7ecee,2024-09-06_14h31.03.428,mdp,2024.2.1,MacIntel,30.03003003,66d7945b1baad48e845df3ce,,,,,,,,,,,,,,,,,,,,,654.0734,654.0735,654.0758,655.0067,0,0,left,0.3707,,655.0078,655.9057,0,1,left,655.9067,655.9074,,1,,0,655.9075,655.9075,655.9079,657.407,0,37,37,37,1,0.8,0.2,0.4,0.6,,,,,,,,,,,,,,,0.35,,0.2,0.8,0.6,0.4,0.6,0.4,0.6,0.4,1,0,,,,,,,,,,,,
,,5fc4c49da0603a4d5feae548,66daf5926301aed538d7ecee,2024-09-06_14h31.03.428,mdp,2024.2.1,MacIntel,30.03003003,66d7945b1baad48e845df3ce,,,,,,,,,,,,,,,,,,,,,657.4079,657.4079,657.4101,658.14,0,0,left,0.1717,,658.1413,658.9745,1,0,right,658.9773,658.9783,,1,,1,658.9783,658.9783,658.979,660.4739,0,38,38,38,1,0.8,0.2,0.4,0.6,,,,,,,,,,,,,,,0.2712,,0.2,0.8,0.6,0.4,0.6,0.4,0.6,0.4,1,0,,,,,,,,,,,,
,,5fc4c49da0603a4d5feae548,66daf5926301aed538d7ecee,2024-09-06_14h31.03.428,mdp,2024.2.1,MacIntel,30.03003003,66d7945b1baad48e845df3ce,,,,,,,,,,,,,,,,,,,,,660.4743,660.4743,660.4756,661.3413,0,0,left,0.3314,,661.3435,662.2736,0,1,left,662.2747,662.2753,,1,,0,662.2754,662.2754,662.2758,663.7737,0,39,39,39,1,0.8,0.2,0.4,0.6,,,,,,,,,,,,,,,0.383,,0.2,0.8,0.6,0.4,0.6,0.4,0.6,0.4,1,0,,,,,,,,,,,,
,,5fc4c49da0603a4d5feae548,66daf5926301aed538d7ecee,2024-09-06_14h31.03.428,mdp,2024.2.1,MacIntel,30.03003003,66d7945b1baad48e845df3ce,,,,,,,,,,,,,,,,,,,,,663.774,663.774,663.7747,664.3752,0,0,left,0.0345,,664.3775,665.1087,1,0,right,665.1113,665.1128,,1,,1,665.1128,665.1128,665.1134,666.6079,0,40,40,40,1,0.8,0.2,0.4,0.6,,,,,,,,,,,,,,,0.1612,,0.4,0.6,0.4,0.6,0.6,0.4,0.6,0.4,1,0,,,,,,,,,,,,
,,5fc4c49da0603a4d5feae548,66daf5926301aed538d7ecee,2024-09-06_14h31.03.428,mdp,2024.2.1,MacIntel,30.03003003,66d7945b1baad48e845df3ce,,,,,,,,,,,,,,,,,,,,,666.6081,666.6081,666.6087,667.3413,0,0,left,0.1975,,667.3419,668.1744,1,0,right,668.1754,668.1762,,0,,1,668.1763,668.1763,668.1767,669.6758,0,41,41,41,1,0.8,0.2,0.4,0.6,,,,,,,,,,,,,,,0.3229,,0.4,0.6,0.4,0.6,0.6,0.4,0.6,0.4,1,0,,,,,,,,,,,,
,,5fc4c49da0603a4d5feae548,66daf5926301aed538d7ecee,2024-09-06_14h31.03.428,mdp,2024.2.1,MacIntel,30.03003003,66d7945b1baad48e845df3ce,,,,,,,,,,,,,,,,,,,,,669.6767,669.6767,669.6789,670.2753,0,0,left,0.0335,,670.2764,671.2085,0,0,left,671.2095,671.2103,,1,,1,671.2103,671.2103,671.2109,672.7087,0,42,42,42,1,0.8,0.2,0.4,0.6,,,,,,,,,,,,,,,0.3749,,0.4,0.6,0.4,0.6,0.6,0.4,0.6,0.4,1,0,,,,,,,,,,,,
,,5fc4c49da0603a4d5feae548,66daf5926301aed538d7ecee,2024-09-06_14h31.03.428,mdp,2024.2.1,MacIntel,30.03003003,66d7945b1baad48e845df3ce,,,,,,,,,,,,,,,,,,,,,672.7092,672.7093,672.7104,673.5429,0,0,left,0.2621,,673.5444,674.5755,0,1,left,674.5766,674.5774,,0,,0,674.5775,674.5775,674.5781,676.0761,0,43,43,43,1,0.8,0.2,0.4,0.6,,,,,,,,,,,,,,,0.4676,,0.4,0.6,0.4,0.6,0.6,0.4,0.6,0.4,1,0,,,,,,,,,,,,
,,5fc4c49da0603a4d5feae548,66daf5926301aed538d7ecee,2024-09-06_14h31.03.428,mdp,2024.2.1,MacIntel,30.03003003,66d7945b1baad48e845df3ce,,,,,,,,,,,,,,,,,,,,,676.0764,676.0764,676.0771,676.9771,0,0,left,0.3298,,676.9805,677.7432,1,1,right,677.7445,677.7455,,1,,0,677.7456,677.7456,677.7461,679.2435,0,44,44,44,1,0.8,0.2,0.4,0.6,,,,,,,,,,,,,,,0.2014,,0.4,0.6,0.4,0.6,0.6,0.4,0.6,0.4,1,0,,,,,,,,,,,,
,,5fc4c49da0603a4d5feae548,66daf5926301aed538d7ecee,2024-09-06_14h31.03.428,mdp,2024.2.1,MacIntel,30.03003003,66d7945b1baad48e845df3ce,,,,,,,,,,,,,,,,,,,,,679.2441,679.2441,679.2452,679.8104,0,0,left,0.0004,,679.8117,680.6105,1,1,right,680.6129,680.6147,,1,,0,680.6147,680.6147,680.6154,682.1097,0,45,45,45,1,0.8,0.2,0.4,0.6,,,,,,,,,,,,,,,0.2689,,0.4,0.6,0.4,0.6,0.6,0.4,0.6,0.4,1,0,,,,,,,,,,,,
,,5fc4c49da0603a4d5feae548,66daf5926301aed538d7ecee,2024-09-06_14h31.03.428,mdp,2024.2.1,MacIntel,30.03003003,66d7945b1baad48e845df3ce,,,,,,,,,,,,,,,,,,,,,682.1104,682.1104,682.111,683.2449,0,0,left,0.5956,,683.247,683.978,0,0,left,683.9796,683.9805,,0,,1,683.9805,683.9805,683.9812,685.4777,0,46,46,46,1,0.8,0.2,0.4,0.6,,,,,,,,,,,,,,,0.1686,,0.4,0.6,0.4,0.6,0.6,0.4,0.6,0.4,1,0,,,,,,,,,,,,
,,5fc4c49da0603a4d5feae548,66daf5926301aed538d7ecee,2024-09-06_14h31.03.428,mdp,2024.2.1,MacIntel,30.03003003,66d7945b1baad48e845df3ce,,,,,,,,,,,,,,,,,,,,,685.4782,685.4782,685.4793,686.4789,0,1,left,0.439,,686.4816,687.2113,0,0,left,687.2119,687.2123,,0,,1,687.2123,687.2123,687.2127,688.7114,0,47,47,47,1,0.8,0.2,0.4,0.6,,,,,,,,,,,,,,,0.1705,,0.4,0.6,0.4,0.6,0.4,0.6,0.8,0.2,1,0,,,,,,,,,,,,
,,5fc4c49da0603a4d5feae548,66daf5926301aed538d7ecee,2024-09-06_14h31.03.428,mdp,2024.2.1,MacIntel,30.03003003,66d7945b1baad48e845df3ce,,,,,,,,,,,,,,,,,,,,,688.7117,688.7117,688.7127,689.8785,0,0,left,0.6173,,689.8794,690.9444,0,0,left,690.9452,690.9457,,0,,1,690.9457,690.9457,690.9462,692.446,0,48,48,48,1,0.8,0.2,0.4,0.6,,,,,,,,,,,,,,,0.5144,,0.4,0.6,0.4,0.6,0.4,0.6,0.8,0.2,1,0,,,,,,,,,,,,
,,5fc4c49da0603a4d5feae548,66daf5926301aed538d7ecee,2024-09-06_14h31.03.428,mdp,2024.2.1,MacIntel,30.03003003,66d7945b1baad48e845df3ce,,,,,,,,,,,,,,,,,,,,,692.4469,692.4469,692.4493,693.5793,0,0,left,0.5659,,693.5804,694.3129,0,1,left,694.3142,694.3151,,1,,0,694.3151,694.3151,694.3157,695.8137,0,49,49,49,1,0.8,0.2,0.4,0.6,,,,,,,,,,,,,,,0.1679,,0.4,0.6,0.4,0.6,0.4,0.6,0.8,0.2,1,0,,,,,,,,,,,,
,,5fc4c49da0603a4d5feae548,66daf5926301aed538d7ecee,2024-09-06_14h31.03.428,mdp,2024.2.1,MacIntel,30.03003003,66d7945b1baad48e845df3ce,,,,,,,,,,,,,,,,,,,,,,,,,,,,,,,,,,,,,,,,,,,,,,,,,,,,,,,,695.8139,941.3855,0,1,1,8,1,imgs/rabbit.png,imgs/squirrel.png,imgs/dog.png,imgs/elephant.png,imgs/giraffe.png,,,,,,,,,,,,,,,,,,,,,,,,
,,5fc4c49da0603a4d5feae548,66daf5926301aed538d7ecee,2024-09-06_14h31.03.428,mdp,2024.2.1,MacIntel,30.03003003,66d7945b1baad48e845df3ce,,,,,,,,,,,,,,3,seqs/st3seq45.csv,941.3954,942.6864,space,0.7065,,942.6939,942.6939,942.6946,944.2863,0,1,left,1.0385,,944.2873,945.6539,0,0,left,945.6566,947.0545,0,0,left,1,947.0547,947.0547,947.0565,948.5533,0,0,0,0,1,0.2,0.8,0.2,0.8,,,,,,,,,,,,,,,0.8296,,0.8,0.2,0.6,0.4,0.6,0.4,0.2,0.8,,,0.8369,,0.2,0.8,0.4,0.6,0.2,0.8,0.8,0.2,1,0
,,5fc4c49da0603a4d5feae548,66daf5926301aed538d7ecee,2024-09-06_14h31.03.428,mdp,2024.2.1,MacIntel,30.03003003,66d7945b1baad48e845df3ce,,,,,,,,,,,,,,,,,,,,,948.5541,948.5541,948.5561,949.2211,0,1,left,0.1358,,949.2231,950.287,0,0,left,950.2887,951.2547,0,1,left,0,951.2549,951.2549,951.257,952.7547,0,1,1,1,1,0.2,0.8,0.2,0.8,,,,,,,,,,,,,,,0.5001,,0.8,0.2,0.6,0.4,0.6,0.4,0.2,0.8,,,0.4344,,0.2,0.8,0.4,0.6,0.2,0.8,0.8,0.2,1,0
,,5fc4c49da0603a4d5feae548,66daf5926301aed538d7ecee,2024-09-06_14h31.03.428,mdp,2024.2.1,MacIntel,30.03003003,66d7945b1baad48e845df3ce,,,,,,,,,,,,,,,,,,,,,952.7556,952.7556,952.7572,953.4548,0,1,left,0.1266,,953.4574,954.4209,0,0,left,954.4219,955.3886,0,1,left,0,955.3886,955.3887,955.3897,956.8885,0,2,2,2,1,0.2,0.8,0.2,0.8,,,,,,,,,,,,,,,0.411,,0.8,0.2,0.6,0.4,0.4,0.6,0.4,0.6,,,0.4368,,0.2,0.8,0.4,0.6,0.2,0.8,0.8,0.2,1,0
,,5fc4c49da0603a4d5feae548,66daf5926301aed538d7ecee,2024-09-06_14h31.03.428,mdp,2024.2.1,MacIntel,30.03003003,66d7945b1baad48e845df3ce,,,,,,,,,,,,,,,,,,,,,956.889,956.889,956.89,958.3562,0,1,left,0.8993,,958.3582,959.29,0,0,left,959.292,960.2227,0,1,left,0,960.2228,960.2228,960.2236,961.7227,0,3,3,3,1,0.2,0.8,0.2,0.8,,,,,,,,,,,,,,,0.3639,,0.8,0.2,0.6,0.4,0.6,0.4,0.2,0.8,,,0.3718,,0.2,0.8,0.4,0.6,0.2,0.8,0.8,0.2,1,0
,,5fc4c49da0603a4d5feae548,66daf5926301aed538d7ecee,2024-09-06_14h31.03.428,mdp,2024.2.1,MacIntel,30.03003003,66d7945b1baad48e845df3ce,,,,,,,,,,,,,,,,,,,,,961.7237,961.7237,961.7248,962.8897,0,0,left,0.6046,,962.8924,963.7902,0,0,left,963.7924,964.823,0,0,left,1,964.8231,964.8231,964.8246,966.3238,0,4,4,4,1,0.2,0.8,0.2,0.8,,,,,,,,,,,,,,,0.3291,,0.8,0.2,0.6,0.4,0.6,0.4,0.2,0.8,,,0.4825,,0.2,0.8,0.4,0.6,0.2,0.8,0.8,0.2,1,0
,,5fc4c49da0603a4d5feae548,66daf5926301aed538d7ecee,2024-09-06_14h31.03.428,mdp,2024.2.1,MacIntel,30.03003003,66d7945b1baad48e845df3ce,,,,,,,,,,,,,,,,,,,,,966.3246,966.3246,966.3266,966.9892,0,1,left,0.1132,,966.9898,969.0241,0,1,left,969.026,971.0908,0,1,left,0,971.091,971.091,971.0919,972.5908,0,5,5,5,1,0.2,0.8,0.2,0.8,,,,,,,,,,,,,,,1.504,,0.8,0.2,0.6,0.4,0.6,0.4,0.2,0.8,,,1.5385,,0.2,0.8,0.4,0.6,0.2,0.8,0.8,0.2,1,0
,,5fc4c49da0603a4d5feae548,66daf5926301aed538d7ecee,2024-09-06_14h31.03.428,mdp,2024.2.1,MacIntel,30.03003003,66d7945b1baad48e845df3ce,,,,,,,,,,,,,,,,,,,,,972.5915,972.5915,972.5936,973.1913,0,1,left,0.0362,,973.1932,974.2914,0,0,left,974.2932,976.9911,0,0,left,1,976.9912,976.9912,976.9922,978.492,0,6,6,6,1,0.2,0.8,0.2,0.8,,,,,,,,,,,,,,,0.5337,,0.8,0.2,0.6,0.4,0.6,0.4,0.2,0.8,,,2.1369,,0.2,0.8,0.4,0.6,0.2,0.8,0.8,0.2,1,0
,,5fc4c49da0603a4d5feae548,66daf5926301aed538d7ecee,2024-09-06_14h31.03.428,mdp,2024.2.1,MacIntel,30.03003003,66d7945b1baad48e845df3ce,,,,,,,,,,,,,,,,,,,,,978.4929,978.493,978.4942,979.5593,0,1,left,0.4991,,979.5611,980.6596,0,0,left,980.6609,982.7927,1,1,right,0,982.7928,982.7928,982.7945,984.2927,0,7,7,7,1,0.2,0.8,0.2,0.8,,,,,,,,,,,,,,,0.5327,,0.8,0.2,0.6,0.4,0.6,0.4,0.2,0.8,,,1.5701,,0.2,0.8,0.4,0.6,0.2,0.8,0.8,0.2,1,0
,,5fc4c49da0603a4d5feae548,66daf5926301aed538d7ecee,2024-09-06_14h31.03.428,mdp,2024.2.1,MacIntel,30.03003003,66d7945b1baad48e845df3ce,,,,,,,,,,,,,,,,,,,,,984.2939,984.2939,984.2964,984.9595,0,1,left,0.0995,,984.9615,985.9935,0,1,left,985.9951,987.3927,1,1,right,0,987.3928,987.3928,987.3937,988.8936,0,8,8,8,1,0.2,0.8,0.2,0.8,,,,,,,,,,,,,,,0.4717,,0.8,0.2,0.6,0.4,0.6,0.4,0.2,0.8,,,0.8362,,0.2,0.8,0.4,0.6,0.2,0.8,0.8,0.2,1,0
,,5fc4c49da0603a4d5feae548,66daf5926301aed538d7ecee,2024-09-06_14h31.03.428,mdp,2024.2.1,MacIntel,30.03003003,66d7945b1baad48e845df3ce,,,,,,,,,,,,,,,,,,,,,988.8942,988.8943,988.8962,990.6939,1,1,right,1.2352,,990.6959,993.5612,1,0,right,993.5746,995.3619,1,0,right,1,995.362,995.362,995.3639,996.8613,0,9,9,9,1,0.2,0.8,0.2,0.8,,,,,,,,,,,,,,,2.3333,,0.8,0.2,0.6,0.4,0.6,0.4,0.2,0.8,,,1.236,,0.2,0.8,0.4,0.6,0.2,0.8,0.8,0.2,1,0
,,5fc4c49da0603a4d5feae548,66daf5926301aed538d7ecee,2024-09-06_14h31.03.428,mdp,2024.2.1,MacIntel,30.03003003,66d7945b1baad48e845df3ce,,,,,,,,,,,,,,,,,,,,,996.8622,996.8622,996.8642,997.9618,1,1,right,0.529,,997.9629,999.7291,1,1,right,999.7316,1001.4623,1,0,right,1,1001.4625,1001.4625,1001.4645,1002.9625,0,10,10,10,1,0.2,0.8,0.2,0.8,,,,,,,,,,,,,,,1.2003,,0.8,0.2,0.6,0.4,0.6,0.4,0.2,0.8,,,1.1645,,0.2,0.8,0.4,0.6,0.2,0.8,0.8,0.2,1,0
,,5fc4c49da0603a4d5feae548,66daf5926301aed538d7ecee,2024-09-06_14h31.03.428,mdp,2024.2.1,MacIntel,30.03003003,66d7945b1baad48e845df3ce,,,,,,,,,,,,,,,,,,,,,1002.9634,1002.9634,1002.9652,1004.0957,1,1,right,0.5708,,1004.0965,1005.3956,1,1,right,1005.3966,1007.1626,1,0,right,1,1007.1626,1007.1626,1007.1634,1008.6638,0,11,11,11,1,0.2,0.8,0.2,0.8,,,,,,,,,,,,,,,0.7664,,0.8,0.2,0.6,0.4,0.6,0.4,0.2,0.8,,,1.2453,,0.2,0.8,0.4,0.6,0.2,0.8,0.8,0.2,1,0
,,5fc4c49da0603a4d5feae548,66daf5926301aed538d7ecee,2024-09-06_14h31.03.428,mdp,2024.2.1,MacIntel,30.03003003,66d7945b1baad48e845df3ce,,,,,,,,,,,,,,,,,,,,,1008.6648,1008.6648,1008.6668,1009.6636,1,1,right,0.4333,,1009.6657,1010.7972,1,1,right,1010.7993,1012.1307,1,0,right,1,1012.1308,1012.1308,1012.1315,1013.6313,0,12,12,12,1,0.2,0.8,0.2,0.8,,,,,,,,,,,,,,,0.5655,,0.8,0.2,0.6,0.4,0.6,0.4,0.2,0.8,,,0.7769,,0.2,0.8,0.4,0.6,0.2,0.8,0.8,0.2,1,0
,,5fc4c49da0603a4d5feae548,66daf5926301aed538d7ecee,2024-09-06_14h31.03.428,mdp,2024.2.1,MacIntel,30.03003003,66d7945b1baad48e845df3ce,,,,,,,,,,,,,,,,,,,,,1013.632,1013.632,1013.6338,1014.8312,1,1,right,0.6324,,1014.8332,1015.8315,1,1,right,1015.8341,1016.8314,1,0,right,1,1016.8314,1016.8314,1016.8322,1018.3313,0,13,13,13,1,0.2,0.8,0.2,0.8,,,,,,,,,,,,,,,0.4397,,0.8,0.2,0.6,0.4,0.6,0.4,0.2,0.8,,,0.4692,,0.2,0.8,0.4,0.6,0.2,0.8,0.8,0.2,1,0
,,5fc4c49da0603a4d5feae548,66daf5926301aed538d7ecee,2024-09-06_14h31.03.428,mdp,2024.2.1,MacIntel,30.03003003,66d7945b1baad48e845df3ce,,,,,,,,,,,,,,,,,,,,,1018.3321,1018.3321,1018.334,1019.2986,1,0,right,0.4098,,1019.2994,1021.3325,1,0,right,1021.3351,1022.4656,1,0,right,1,1022.4658,1022.4658,1022.4678,1023.9666,0,14,14,14,1,0.2,0.8,0.2,0.8,,,,,,,,,,,,,,,1.4641,,0.8,0.2,0.6,0.4,0.6,0.4,0.2,0.8,,,0.5679,,0.2,0.8,0.4,0.6,0.2,0.8,0.8,0.2,1,0
,,5fc4c49da0603a4d5feae548,66daf5926301aed538d7ecee,2024-09-06_14h31.03.428,mdp,2024.2.1,MacIntel,30.03003003,66d7945b1baad48e845df3ce,,,,,,,,,,,,,,,,,,,,,1023.9675,1023.9675,1023.9694,1024.833,1,1,right,0.3132,,1024.8339,1026.0329,1,1,right,1026.0337,1027.0669,1,0,right,1,1027.0671,1027.0671,1027.0687,1028.5667,0,15,15,15,1,0.2,0.8,0.2,0.8,,,,,,,,,,,,,,,0.642,,0.8,0.2,0.6,0.4,0.6,0.4,0.2,0.8,,,0.4694,,0.2,0.8,0.4,0.6,0.2,0.8,0.8,0.2,1,0
,,5fc4c49da0603a4d5feae548,66daf5926301aed538d7ecee,2024-09-06_14h31.03.428,mdp,2024.2.1,MacIntel,30.03003003,66d7945b1baad48e845df3ce,,,,,,,,,,,,,,,,,,,,,1028.5675,1028.5675,1028.5695,1029.2001,1,1,right,0.0703,,1029.201,1030.5674,1,1,right,1030.5693,1031.7329,1,0,right,1,1031.733,1031.733,1031.7337,1033.2342,0,16,16,16,1,0.2,0.8,0.2,0.8,,,,,,,,,,,,,,,0.8396,,0.8,0.2,0.6,0.4,0.6,0.4,0.2,0.8,,,0.6049,,0.2,0.8,0.4,0.6,0.2,0.8,0.8,0.2,1,0
,,5fc4c49da0603a4d5feae548,66daf5926301aed538d7ecee,2024-09-06_14h31.03.428,mdp,2024.2.1,MacIntel,30.03003003,66d7945b1baad48e845df3ce,,,,,,,,,,,,,,,,,,,,,1033.235,1033.235,1033.237,1034.0344,1,1,right,0.2365,,1034.0371,1034.934,1,1,right,1034.9348,1035.8341,1,0,right,1,1035.8342,1035.8343,1035.8361,1037.3349,0,17,17,17,1,0.2,0.8,0.2,0.8,,,,,,,,,,,,,,,0.3696,,0.8,0.2,0.6,0.4,0.6,0.4,0.2,0.8,,,0.3709,,0.2,0.8,0.4,0.6,0.2,0.8,0.8,0.2,1,0
,,5fc4c49da0603a4d5feae548,66daf5926301aed538d7ecee,2024-09-06_14h31.03.428,mdp,2024.2.1,MacIntel,30.03003003,66d7945b1baad48e845df3ce,,,,,,,,,,,,,,,,,,,,,1037.3357,1037.3357,1037.3378,1037.9017,1,0,right,0.0005,,1037.9038,1038.6685,1,0,right,1038.6705,1039.8685,1,0,right,1,1039.8686,1039.8686,1039.8703,1041.3686,0,18,18,18,1,0.2,0.8,0.2,0.8,,,,,,,,,,,,,,,0.1973,,0.8,0.2,0.6,0.4,0.6,0.4,0.2,0.8,,,0.6354,,0.2,0.8,0.4,0.6,0.6,0.4,0.2,0.8,1,0
,,5fc4c49da0603a4d5feae548,66daf5926301aed538d7ecee,2024-09-06_14h31.03.428,mdp,2024.2.1,MacIntel,30.03003003,66d7945b1baad48e845df3ce,,,,,,,,,,,,,,,,,,,,,1041.3694,1041.3694,1041.3717,1042.5363,1,0,right,0.6047,,1042.5384,1043.1026,1,0,right,1043.1037,1043.9023,1,1,right,0,1043.9024,1043.9024,1043.9044,1045.4033,0,19,19,19,1,0.2,0.8,0.2,0.8,,,,,,,,,,,,,,,0.0005,,0.8,0.2,0.6,0.4,0.6,0.4,0.2,0.8,,,0.2319,,0.2,0.8,0.4,0.6,0.6,0.4,0.2,0.8,1,0
,,5fc4c49da0603a4d5feae548,66daf5926301aed538d7ecee,2024-09-06_14h31.03.428,mdp,2024.2.1,MacIntel,30.03003003,66d7945b1baad48e845df3ce,,,,,,,,,,,,,,,,,,,,,1045.4041,1045.4041,1045.405,1046.0036,1,1,right,0.0353,,1046.0047,1047.0038,1,0,right,1047.0048,1047.9702,1,1,right,0,1047.9704,1047.9704,1047.972,1049.4697,0,20,20,20,1,0.2,0.8,0.2,0.8,,,,,,,,,,,,,,,0.4411,,0.8,0.2,0.6,0.4,0.6,0.4,0.2,0.8,,,0.4039,,0.2,0.8,0.4,0.6,0.6,0.4,0.2,0.8,1,0
,,5fc4c49da0603a4d5feae548,66daf5926301aed538d7ecee,2024-09-06_14h31.03.428,mdp,2024.2.1,MacIntel,30.03003003,66d7945b1baad48e845df3ce,,,,,,,,,,,,,,,,,,,,,1049.4703,1049.4703,1049.4722,1050.1034,1,1,right,0.0778,,1050.1042,1051.3709,1,1,right,1051.3724,1052.8372,1,1,right,0,1052.8373,1052.8373,1052.838,1054.3374,0,21,21,21,1,0.2,0.8,0.2,0.8,,,,,,,,,,,,,,,0.6991,,0.8,0.2,0.6,0.4,0.6,0.4,0.2,0.8,,,0.9103,,0.2,0.8,0.4,0.6,0.6,0.4,0.2,0.8,1,0
,,5fc4c49da0603a4d5feae548,66daf5926301aed538d7ecee,2024-09-06_14h31.03.428,mdp,2024.2.1,MacIntel,30.03003003,66d7945b1baad48e845df3ce,,,,,,,,,,,,,,,,,,,,,1054.3384,1054.3384,1054.3405,1054.9713,1,0,right,0.0656,,1054.9737,1057.6052,1,0,right,1057.6153,1058.7383,0,0,left,1,1058.7384,1058.7384,1058.7392,1060.2388,0,22,22,22,1,0.2,0.8,0.2,0.8,,,,,,,,,,,,,,,2.066,,0.8,0.2,0.6,0.4,0.6,0.4,0.2,0.8,,,0.5736,,0.2,0.8,0.4,0.6,0.6,0.4,0.2,0.8,1,0
,,5fc4c49da0603a4d5feae548,66daf5926301aed538d7ecee,2024-09-06_14h31.03.428,mdp,2024.2.1,MacIntel,30.03003003,66d7945b1baad48e845df3ce,,,,,,,,,,,,,,,,,,,,,1060.2399,1060.2399,1060.2412,1061.2055,1,1,right,0.3993,,1061.2082,1062.4393,1,1,right,1062.4402,1063.506,1,1,right,0,1063.5062,1063.5063,1063.5084,1065.0059,0,23,23,23,1,0.2,0.8,0.2,0.8,,,,,,,,,,,,,,,0.6734,,0.8,0.2,0.6,0.4,0.6,0.4,0.2,0.8,,,0.4999,,0.2,0.8,0.4,0.6,0.6,0.4,0.2,0.8,1,0
,,5fc4c49da0603a4d5feae548,66daf5926301aed538d7ecee,2024-09-06_14h31.03.428,mdp,2024.2.1,MacIntel,30.03003003,66d7945b1baad48e845df3ce,,,,,,,,,,,,,,,,,,,,,1065.0066,1065.0067,1065.0089,1065.9728,1,1,right,0.3937,,1065.9739,1067.0733,1,1,right,1067.0761,1068.2398,1,1,right,0,1068.2399,1068.24,1068.2419,1069.7403,0,24,24,24,1,0.2,0.8,0.2,0.8,,,,,,,,,,,,,,,0.533,,0.8,0.2,0.6,0.4,0.6,0.4,0.2,0.8,,,0.6039,,0.2,0.8,0.4,0.6,0.6,0.4,0.2,0.8,1,0
,,5fc4c49da0603a4d5feae548,66daf5926301aed538d7ecee,2024-09-06_14h31.03.428,mdp,2024.2.1,MacIntel,30.03003003,66d7945b1baad48e845df3ce,,,,,,,,,,,,,,,,,,,,,1069.7412,1069.7412,1069.743,1070.6409,1,1,right,0.3322,,1070.6437,1071.5735,1,1,right,1071.5755,1072.6402,1,1,right,0,1072.6404,1072.6404,1072.6423,1074.1409,0,25,25,25,1,0.2,0.8,0.2,0.8,,,,,,,,,,,,,,,0.3634,,0.8,0.2,0.6,0.4,0.2,0.8,0.4,0.6,,,0.5316,,0.2,0.8,0.4,0.6,0.6,0.4,0.2,0.8,1,0
,,5fc4c49da0603a4d5feae548,66daf5926301aed538d7ecee,2024-09-06_14h31.03.428,mdp,2024.2.1,MacIntel,30.03003003,66d7945b1baad48e845df3ce,,,,,,,,,,,,,,,,,,,,,1074.142,1074.142,1074.1442,1074.7733,1,1,right,0.0705,,1074.7742,1075.6077,1,0,right,1075.61,1077.2078,1,1,right,0,1077.2079,1077.2079,1077.2088,1078.7083,0,26,26,26,1,0.2,0.8,0.2,0.8,,,,,,,,,,,,,,,0.3019,,0.8,0.2,0.6,0.4,0.2,0.8,0.4,0.6,,,1.0418,,0.2,0.8,0.4,0.6,0.6,0.4,0.2,0.8,1,0
,,5fc4c49da0603a4d5feae548,66daf5926301aed538d7ecee,2024-09-06_14h31.03.428,mdp,2024.2.1,MacIntel,30.03003003,66d7945b1baad48e845df3ce,,,,,,,,,,,,,,,,,,,,,1078.7092,1078.7092,1078.7111,1079.7084,1,0,right,0.4353,,1079.7102,1081.4755,1,0,right,1081.4776,1082.5424,0,1,left,0,1082.5425,1082.5425,1082.5444,1084.0426,0,27,27,27,1,0.2,0.8,0.2,0.8,,,,,,,,,,,,,,,1.1974,,0.8,0.2,0.6,0.4,0.2,0.8,0.4,0.6,,,0.5332,,0.2,0.8,0.4,0.6,0.8,0.2,0.6,0.4,1,0
,,5fc4c49da0603a4d5feae548,66daf5926301aed538d7ecee,2024-09-06_14h31.03.428,mdp,2024.2.1,MacIntel,30.03003003,66d7945b1baad48e845df3ce,,,,,,,,,,,,,,,,,,,,,1084.0432,1084.0432,1084.0451,1084.7762,1,1,right,0.1715,,1084.7781,1086.4093,0,1,left,1086.4113,1087.843,1,0,right,1,1087.843,1087.843,1087.8438,1089.3431,0,28,28,28,1,0.2,0.8,0.2,0.8,,,,,,,,,,,,,,,1.069,,0.8,0.2,0.6,0.4,0.2,0.8,0.4,0.6,,,0.8757,,0.2,0.8,0.4,0.6,0.8,0.2,0.6,0.4,1,0
,,5fc4c49da0603a4d5feae548,66daf5926301aed538d7ecee,2024-09-06_14h31.03.428,mdp,2024.2.1,MacIntel,30.03003003,66d7945b1baad48e845df3ce,,,,,,,,,,,,,,,,,,,,,1089.3439,1089.3439,1089.3464,1089.9099,1,1,right,0.0003,,1089.9124,1091.8772,1,0,right,1091.8789,1093.4441,1,1,right,0,1093.4442,1093.4442,1093.4461,1094.9442,0,29,29,29,1,0.2,0.8,0.2,0.8,,,,,,,,,,,,,,,1.4378,,0.8,0.2,0.6,0.4,0.2,0.8,0.4,0.6,,,1.001,,0.2,0.8,0.4,0.6,0.8,0.2,0.6,0.4,1,0
,,5fc4c49da0603a4d5feae548,66daf5926301aed538d7ecee,2024-09-06_14h31.03.428,mdp,2024.2.1,MacIntel,30.03003003,66d7945b1baad48e845df3ce,,,,,,,,,,,,,,,,,,,,,1094.9448,1094.9448,1094.9467,1096.1449,1,1,right,0.6364,,1096.1468,1097.3443,1,1,right,1097.3453,1098.9104,1,1,right,0,1098.9105,1098.9105,1098.9112,1100.4116,0,30,30,30,1,0.2,0.8,0.2,0.8,,,,,,,,,,,,,,,0.6445,,0.8,0.2,0.6,0.4,0.2,0.8,0.4,0.6,,,1.0389,,0.2,0.8,0.4,0.6,0.8,0.2,0.6,0.4,1,0
,,5fc4c49da0603a4d5feae548,66daf5926301aed538d7ecee,2024-09-06_14h31.03.428,mdp,2024.2.1,MacIntel,30.03003003,66d7945b1baad48e845df3ce,,,,,,,,,,,,,,,,,,,,,1100.4123,1100.4123,1100.4143,1101.2791,1,1,right,0.295,,1101.2805,1102.2776,1,0,right,1102.2782,1103.7456,0,0,left,1,1103.7456,1103.7457,1103.7475,1105.2466,0,31,31,31,1,0.2,0.8,0.2,0.8,,,,,,,,,,,,,,,0.4504,,0.8,0.2,0.6,0.4,0.2,0.8,0.4,0.6,,,0.9386,,0.2,0.8,0.4,0.6,0.8,0.2,0.6,0.4,1,0
,,5fc4c49da0603a4d5feae548,66daf5926301aed538d7ecee,2024-09-06_14h31.03.428,mdp,2024.2.1,MacIntel,30.03003003,66d7945b1baad48e845df3ce,,,,,,,,,,,,,,,,,,,,,1105.2474,1105.2475,1105.2491,1106.6467,1,1,right,0.8361,,1106.6484,1107.8132,1,1,right,1107.8151,1109.3469,0,0,left,1,1109.3471,1109.3471,1109.3491,1110.8467,0,32,32,32,1,0.2,0.8,0.2,0.8,,,,,,,,,,,,,,,0.6012,,0.8,0.2,0.6,0.4,0.2,0.8,0.4,0.6,,,0.9686,,0.4,0.6,0.6,0.4,0.8,0.2,0.6,0.4,1,0
,,5fc4c49da0603a4d5feae548,66daf5926301aed538d7ecee,2024-09-06_14h31.03.428,mdp,2024.2.1,MacIntel,30.03003003,66d7945b1baad48e845df3ce,,,,,,,,,,,,,,,,,,,,,1110.8475,1110.8475,1110.8495,1111.5475,1,0,right,0.1288,,1111.5493,1112.4146,1,1,right,1112.4166,1113.281,0,1,left,0,1113.2811,1113.2812,1113.2823,1114.7808,0,33,33,33,1,0.8,0.2,0.4,0.6,,,,,,,,,,,,,,,0.2996,,0.8,0.2,0.6,0.4,0.2,0.8,0.4,0.6,,,0.3044,,0.4,0.6,0.6,0.4,0.8,0.2,0.6,0.4,1,0
,,5fc4c49da0603a4d5feae548,66daf5926301aed538d7ecee,2024-09-06_14h31.03.428,mdp,2024.2.1,MacIntel,30.03003003,66d7945b1baad48e845df3ce,,,,,,,,,,,,,,,,,,,,,1114.7816,1114.7816,1114.7832,1115.7808,1,0,right,0.4377,,1115.7815,1116.6478,1,0,right,1116.6507,1117.5147,0,1,left,0,1117.5148,1117.5148,1117.5165,1119.0145,0,34,34,34,1,0.8,0.2,0.4,0.6,,,,,,,,,,,,,,,0.3009,,0.8,0.2,0.6,0.4,0.2,0.8,0.4,0.6,,,0.3041,,0.4,0.6,0.6,0.4,0.8,0.2,0.6,0.4,1,0
,,5fc4c49da0603a4d5feae548,66daf5926301aed538d7ecee,2024-09-06_14h31.03.428,mdp,2024.2.1,MacIntel,30.03003003,66d7945b1baad48e845df3ce,,,,,,,,,,,,,,,,,,,,,1119.0153,1119.0153,1119.0171,1119.6818,1,0,right,0.0985,,1119.6836,1120.2818,1,0,right,1120.2828,1120.8487,1,0,right,1,1120.8489,1120.8489,1120.8515,1122.3489,0,35,35,35,1,0.8,0.2,0.4,0.6,,,,,,,,,,,,,,,0.0324,,0.8,0.2,0.6,0.4,0.2,0.8,0.4,0.6,,,0.0004,,0.4,0.6,0.6,0.4,0.8,0.2,0.6,0.4,1,0
,,5fc4c49da0603a4d5feae548,66daf5926301aed538d7ecee,2024-09-06_14h31.03.428,mdp,2024.2.1,MacIntel,30.03003003,66d7945b1baad48e845df3ce,,,,,,,,,,,,,,,,,,,,,1122.3494,1122.3494,1122.3502,1122.9154,1,0,right,0.0019,,1122.9179,1123.4823,1,0,right,1123.4842,1124.2156,1,0,right,1,1124.2157,1124.2157,1124.2174,1125.7164,0,36,36,36,1,0.8,0.2,0.4,0.6,,,,,,,,,,,,,,,0.0004,,0.8,0.2,0.6,0.4,0.2,0.8,0.4,0.6,,,0.2009,,0.4,0.6,0.6,0.4,0.8,0.2,0.6,0.4,1,0
,,5fc4c49da0603a4d5feae548,66daf5926301aed538d7ecee,2024-09-06_14h31.03.428,mdp,2024.2.1,MacIntel,30.03003003,66d7945b1baad48e845df3ce,,,,,,,,,,,,,,,,,,,,,1125.7172,1125.7172,1125.7191,1126.9496,1,0,right,0.661,,1126.9517,1127.6829,0,0,left,1127.6851,1128.3832,1,0,right,1,1128.3833,1128.3833,1128.3852,1129.8832,0,37,37,37,1,0.8,0.2,0.4,0.6,,,,,,,,,,,,,,,0.164,,0.8,0.2,0.6,0.4,0.2,0.8,0.4,0.6,,,0.1597,,0.4,0.6,0.6,0.4,0.8,0.2,0.6,0.4,1,0
,,5fc4c49da0603a4d5feae548,66daf5926301aed538d7ecee,2024-09-06_14h31.03.428,mdp,2024.2.1,MacIntel,30.03003003,66d7945b1baad48e845df3ce,,,,,,,,,,,,,,,,,,,,,1129.884,1129.884,1129.8857,1130.8501,1,1,right,0.3996,,1130.8522,1131.6495,1,0,right,1131.6502,1132.55,1,0,right,1,1132.5501,1132.5501,1132.5519,1134.0507,0,38,38,38,1,0.8,0.2,0.4,0.6,,,,,,,,,,,,,,,0.2438,,0.8,0.2,0.6,0.4,0.2,0.8,0.4,0.6,,,0.3782,,0.4,0.6,0.6,0.4,0.8,0.2,0.6,0.4,1,0
,,5fc4c49da0603a4d5feae548,66daf5926301aed538d7ecee,2024-09-06_14h31.03.428,mdp,2024.2.1,MacIntel,30.03003003,66d7945b1baad48e845df3ce,,,,,,,,,,,,,,,,,,,,,1134.0512,1134.0512,1134.0521,1135.3843,1,0,right,0.7751,,1135.3862,1136.5179,0,1,left,1136.5201,1137.5179,1,1,right,0,1137.518,1137.518,1137.5197,1139.0173,0,39,39,39,1,0.8,0.2,0.4,0.6,,,,,,,,,,,,,,,0.5658,,0.8,0.2,0.6,0.4,0.2,0.8,0.4,0.6,,,0.4379,,0.4,0.6,0.6,0.4,0.8,0.2,0.6,0.4,1,0
,,5fc4c49da0603a4d5feae548,66daf5926301aed538d7ecee,2024-09-06_14h31.03.428,mdp,2024.2.1,MacIntel,30.03003003,66d7945b1baad48e845df3ce,,,,,,,,,,,,,,,,,,,,,1139.018,1139.018,1139.0199,1140.0843,1,1,right,0.5334,,1140.0862,1141.3515,0,1,left,1141.3523,1142.2857,1,1,right,0,1142.2858,1142.2859,1142.2877,1143.7856,0,40,40,40,1,0.8,0.2,0.4,0.6,,,,,,,,,,,,,,,0.7143,,0.8,0.2,0.6,0.4,0.2,0.8,0.4,0.6,,,0.3948,,0.4,0.6,0.6,0.4,0.8,0.2,0.6,0.4,1,0
,,5fc4c49da0603a4d5feae548,66daf5926301aed538d7ecee,2024-09-06_14h31.03.428,mdp,2024.2.1,MacIntel,30.03003003,66d7945b1baad48e845df3ce,,,,,,,,,,,,,,,,,,,,,1143.7869,1143.787,1143.7896,1145.2861,1,0,right,0.9342,,1145.2881,1146.3531,1,1,right,1146.354,1147.4856,0,0,left,1,1147.4857,1147.4857,1147.4867,1148.9864,0,41,41,41,1,0.8,0.2,0.4,0.6,,,,,,,,,,,,,,,0.5033,,0.8,0.2,0.6,0.4,0.2,0.8,0.4,0.6,,,0.5714,,0.6,0.4,0.4,0.6,0.8,0.2,0.6,0.4,1,0
,,5fc4c49da0603a4d5feae548,66daf5926301aed538d7ecee,2024-09-06_14h31.03.428,mdp,2024.2.1,MacIntel,30.03003003,66d7945b1baad48e845df3ce,,,,,,,,,,,,,,,,,,,,,1148.9872,1148.9872,1148.9891,1150.386,1,1,right,0.8426,,1150.3867,1151.4201,0,1,left,1151.4229,1152.4869,1,1,right,0,1152.4869,1152.4869,1152.4877,1153.987,0,42,42,42,1,0.8,0.2,0.4,0.6,,,,,,,,,,,,,,,0.4997,,0.8,0.2,0.6,0.4,0.2,0.8,0.4,0.6,,,0.5102,,0.6,0.4,0.4,0.6,0.8,0.2,0.6,0.4,1,0
,,5fc4c49da0603a4d5feae548,66daf5926301aed538d7ecee,2024-09-06_14h31.03.428,mdp,2024.2.1,MacIntel,30.03003003,66d7945b1baad48e845df3ce,,,,,,,,,,,,,,,,,,,,,1153.9879,1153.9879,1153.9899,1154.8872,1,1,right,0.3408,,1154.8879,1155.854,0,1,left,1155.8562,1156.853,1,1,right,0,1156.853,1156.853,1156.8537,1158.3535,0,43,43,43,1,0.8,0.2,0.4,0.6,,,,,,,,,,,,,,,0.4008,,0.8,0.2,0.6,0.4,0.2,0.8,0.4,0.6,,,0.4496,,0.6,0.4,0.4,0.6,0.8,0.2,0.6,0.4,1,0
,,5fc4c49da0603a4d5feae548,66daf5926301aed538d7ecee,2024-09-06_14h31.03.428,mdp,2024.2.1,MacIntel,30.03003003,66d7945b1baad48e845df3ce,,,,,,,,,,,,,,,,,,,,,1158.3539,1158.3539,1158.3548,1159.3545,1,0,right,0.4685,,1159.3564,1160.388,0,0,left,1160.3901,1161.4218,1,1,right,0,1161.4219,1161.422,1161.424,1162.9219,0,44,44,44,1,0.8,0.2,0.4,0.6,,,,,,,,,,,,,,,0.4686,,0.8,0.2,0.6,0.4,0.2,0.8,0.4,0.6,,,0.466,,0.6,0.4,0.4,0.6,0.8,0.2,0.6,0.4,1,0
,,5fc4c49da0603a4d5feae548,66daf5926301aed538d7ecee,2024-09-06_14h31.03.428,mdp,2024.2.1,MacIntel,30.03003003,66d7945b1baad48e845df3ce,,,,,,,,,,,,,,,,,,,,,1162.9228,1162.9228,1162.9247,1165.0887,1,0,right,1.601,,1165.0907,1166.0566,0,0,left,1166.0589,1167.0896,1,1,right,0,1167.0897,1167.0897,1167.0909,1168.5896,0,45,45,45,1,0.8,0.2,0.4,0.6,,,,,,,,,,,,,,,0.4006,,0.8,0.2,0.6,0.4,0.2,0.8,0.4,0.6,,,0.4647,,0.6,0.4,0.4,0.6,0.8,0.2,0.6,0.4,1,0
,,5fc4c49da0603a4d5feae548,66daf5926301aed538d7ecee,2024-09-06_14h31.03.428,mdp,2024.2.1,MacIntel,30.03003003,66d7945b1baad48e845df3ce,,,,,,,,,,,,,,,,,,,,,1168.5904,1168.5904,1168.5922,1170.3232,1,0,right,1.1621,,1170.325,1171.3904,1,1,right,1171.3924,1172.8903,0,0,left,1,1172.8904,1172.8905,1172.8922,1174.3903,0,46,46,46,1,0.8,0.2,0.4,0.6,,,,,,,,,,,,,,,0.4992,,0.8,0.2,0.6,0.4,0.2,0.8,0.4,0.6,,,0.935,,0.6,0.4,0.4,0.6,0.8,0.2,0.6,0.4,1,0
,,5fc4c49da0603a4d5feae548,66daf5926301aed538d7ecee,2024-09-06_14h31.03.428,mdp,2024.2.1,MacIntel,30.03003003,66d7945b1baad48e845df3ce,,,,,,,,,,,,,,,,,,,,,1174.391,1174.391,1174.3929,1175.2234,0,1,left,0.2816,,1175.2247,1176.0578,1,1,right,1176.0601,1176.8911,1,1,right,0,1176.8912,1176.8912,1176.8932,1178.391,0,47,47,47,1,0.8,0.2,0.4,0.6,,,,,,,,,,,,,,,0.3043,,0.8,0.2,0.6,0.4,0.2,0.8,0.4,0.6,,,0.2722,,0.6,0.4,0.4,0.6,0.8,0.2,0.6,0.4,1,0
,,5fc4c49da0603a4d5feae548,66daf5926301aed538d7ecee,2024-09-06_14h31.03.428,mdp,2024.2.1,MacIntel,30.03003003,66d7945b1baad48e845df3ce,,,,,,,,,,,,,,,,,,,,,1178.3917,1178.3919,1178.3939,1179.3906,0,0,left,0.4438,,1179.3915,1180.1584,1,1,right,1180.1603,1180.758,0,0,left,1,1180.7581,1180.7581,1180.7589,1182.2572,0,48,48,48,1,0.8,0.2,0.4,0.6,,,,,,,,,,,,,,,0.2342,0.0164,0.8,0.2,0.6,0.4,0.8,0.2,0.2,0.8,,,0.0331,,0.6,0.4,0.4,0.6,0.8,0.2,0.6,0.4,1,0
,,5fc4c49da0603a4d5feae548,66daf5926301aed538d7ecee,2024-09-06_14h31.03.428,mdp,2024.2.1,MacIntel,30.03003003,66d7945b1baad48e845df3ce,,,,,,,,,,,,,,,,,,,,,1182.2576,1182.2576,1182.2585,1183.5917,0,0,left,0.8165,,1183.5928,1184.4923,1,0,right,1184.4948,1185.2588,0,0,left,1,1185.2588,1185.2588,1185.2595,1186.7591,0,49,49,49,1,0.4,0.6,0.6,0.4,,,,,,,,,,,,,,,0.3671,,0.8,0.2,0.6,0.4,0.8,0.2,0.2,0.8,,,0.2112,,0.6,0.4,0.4,0.6,0.8,0.2,0.6,0.4,1,0
,,5fc4c49da0603a4d5feae548,66daf5926301aed538d7ecee,2024-09-06_14h31.03.428,mdp,2024.2.1,MacIntel,30.03003003,66d7945b1baad48e845df3ce,,,,,,,,,,,,,,,,,,,,,,,,,,,,,,,,,,,,,,,,,,,,,,,,,,,,,,,,1186.7592,1245.2845,0,2,2,5,1,imgs/dog.png,imgs/cat.png,imgs/lion.png,imgs/elephant.png,imgs/goat.png,,,,,,,,,,,,,,,,,,,,,,,,
,,5fc4c49da0603a4d5feae548,66daf5926301aed538d7ecee,2024-09-06_14h31.03.428,mdp,2024.2.1,MacIntel,30.03003003,66d7945b1baad48e845df3ce,,,,,,,,,,,,,,3,seqs/st3seq42.csv,1245.2969,1268.3887,space,22.5382,,1268.4031,1268.4032,1268.4037,1272.7557,0,0,left,3.7982,,1272.766,1274.256,0,1,left,1274.2573,1275.3563,0,0,left,1,1275.3564,1275.3564,1275.3574,1276.8562,0,0,0,0,1,0.8,0.2,0.8,0.2,,,,,,,,,,,,,,,0.9349,,0.2,0.8,0.8,0.2,0.8,0.2,0.4,0.6,,,0.5254,,0.6,0.4,0.4,0.6,0.4,0.6,0.4,0.6,1,0
,,5fc4c49da0603a4d5feae548,66daf5926301aed538d7ecee,2024-09-06_14h31.03.428,mdp,2024.2.1,MacIntel,30.03003003,66d7945b1baad48e845df3ce,,,,,,,,,,,,,,,,,,,,,1276.8567,1276.8567,1276.858,1278.0232,0,0,left,0.6031,,1278.0243,1278.7899,0,0,left,1278.7909,1279.6234,0,0,left,1,1279.6235,1279.6235,1279.6246,1281.1237,0,1,1,1,1,0.8,0.2,0.8,0.2,,,,,,,,,,,,,,,0.2385,,0.2,0.8,0.8,0.2,0.8,0.2,0.4,0.6,,,0.2966,,0.6,0.4,0.4,0.6,0.4,0.6,0.4,0.6,1,0
,,5fc4c49da0603a4d5feae548,66daf5926301aed538d7ecee,2024-09-06_14h31.03.428,mdp,2024.2.1,MacIntel,30.03003003,66d7945b1baad48e845df3ce,,,,,,,,,,,,,,,,,,,,,1281.1242,1281.1242,1281.1252,1282.0905,0,0,left,0.3968,,1282.0916,1283.0571,0,1,left,1283.0582,1284.5242,0,0,left,1,1284.5243,1284.5243,1284.5253,1286.0245,0,2,2,2,1,0.8,0.2,0.8,0.2,,,,,,,,,,,,,,,0.4021,,0.2,0.8,0.8,0.2,0.8,0.2,0.4,0.6,,,0.9465,,0.6,0.4,0.4,0.6,0.4,0.6,0.4,0.6,1,0
,,5fc4c49da0603a4d5feae548,66daf5926301aed538d7ecee,2024-09-06_14h31.03.428,mdp,2024.2.1,MacIntel,30.03003003,66d7945b1baad48e845df3ce,,,,,,,,,,,,,,,,,,,,,1286.025,1286.025,1286.0262,1286.8247,0,0,left,0.2331,0.0169,1286.8256,1287.3911,0,0,left,1287.3918,1288.025,0,0,left,1,1288.0251,1288.0251,1288.0263,1289.5255,0,3,3,3,1,0.8,0.2,0.8,0.2,,,,,,,,,,,,,,,0.0208,,0.2,0.8,0.8,0.2,0.4,0.6,0.2,0.8,,,0.1063,,0.6,0.4,0.4,0.6,0.4,0.6,0.4,0.6,1,0
,,5fc4c49da0603a4d5feae548,66daf5926301aed538d7ecee,2024-09-06_14h31.03.428,mdp,2024.2.1,MacIntel,30.03003003,66d7945b1baad48e845df3ce,,,,,,,,,,,,,,,,,,,,,1289.526,1289.526,1289.5272,1290.2583,0,0,left,0.1852,,1290.2593,1290.8252,0,1,left,1290.8262,1291.3585,0,1,left,0,1291.3586,1291.3586,1291.3595,1292.8588,0,4,4,4,1,0.8,0.2,0.8,0.2,,,,,,,,,,,,,,,0.0351,,0.2,0.8,0.8,0.2,0.4,0.6,0.2,0.8,,,0.0161,,0.6,0.4,0.4,0.6,0.4,0.6,0.4,0.6,1,0
,,5fc4c49da0603a4d5feae548,66daf5926301aed538d7ecee,2024-09-06_14h31.03.428,mdp,2024.2.1,MacIntel,30.03003003,66d7945b1baad48e845df3ce,,,,,,,,,,,,,,,,,,,,,1292.8593,1292.8593,1292.8603,1293.6256,0,0,left,0.2101,,1293.6266,1294.1925,0,1,left,1294.1936,1294.7256,0,1,left,0,1294.7256,1294.7256,1294.7267,1296.2258,0,5,5,5,1,0.6,0.4,0.4,0.6,,,,,,,,,,,,,,,0.0461,,0.2,0.8,0.8,0.2,0.4,0.6,0.2,0.8,,,0.0003,,0.6,0.4,0.4,0.6,0.4,0.6,0.4,0.6,1,0
,,5fc4c49da0603a4d5feae548,66daf5926301aed538d7ecee,2024-09-06_14h31.03.428,mdp,2024.2.1,MacIntel,30.03003003,66d7945b1baad48e845df3ce,,,,,,,,,,,,,,,,,,,,,1296.2263,1296.2263,1296.2274,1296.7929,0,1,left,0.0321,,1296.7939,1297.4929,0,1,left,1297.4936,1298.0597,0,1,left,0,1298.0598,1298.0598,1298.0608,1299.5599,0,6,6,6,1,0.6,0.4,0.4,0.6,,,,,,,,,,,,,,,0.1786,,0.2,0.8,0.8,0.2,0.4,0.6,0.2,0.8,,,0.0469,,0.6,0.4,0.4,0.6,0.4,0.6,0.4,0.6,1,0
,,5fc4c49da0603a4d5feae548,66daf5926301aed538d7ecee,2024-09-06_14h31.03.428,mdp,2024.2.1,MacIntel,30.03003003,66d7945b1baad48e845df3ce,,,,,,,,,,,,,,,,,,,,,1299.5604,1299.5604,1299.5616,1300.1266,0,1,left,0.0178,,1300.1274,1300.6936,0,0,left,1300.6947,1301.3934,0,0,left,1,1301.3934,1301.3934,1301.3941,1302.8938,0,7,7,7,1,0.6,0.4,0.4,0.6,,,,,,,,,,,,,,,0.005,,0.2,0.8,0.8,0.2,0.4,0.6,0.2,0.8,,,0.1493,,0.6,0.4,0.4,0.6,0.4,0.6,0.4,0.6,1,0
,,5fc4c49da0603a4d5feae548,66daf5926301aed538d7ecee,2024-09-06_14h31.03.428,mdp,2024.2.1,MacIntel,30.03003003,66d7945b1baad48e845df3ce,,,,,,,,,,,,,,,,,,,,,1302.8944,1302.8944,1302.8955,1303.6274,0,0,left,0.1674,,1303.6286,1304.3608,0,1,left,1304.3622,1305.0943,0,0,left,1,1305.0944,1305.0944,1305.0954,1306.5943,0,8,8,8,1,0.6,0.4,0.4,0.6,,,,,,,,,,,,,,,0.1639,,0.2,0.8,0.8,0.2,0.4,0.6,0.2,0.8,,,0.1795,,0.4,0.6,0.6,0.4,0.4,0.6,0.4,0.6,1,0
,,5fc4c49da0603a4d5feae548,66daf5926301aed538d7ecee,2024-09-06_14h31.03.428,mdp,2024.2.1,MacIntel,30.03003003,66d7945b1baad48e845df3ce,,,,,,,,,,,,,,,,,,,,,1306.5948,1306.5948,1306.5959,1307.2279,0,0,left,0.0673,,1307.229,1307.7613,0,1,left,1307.7624,1308.3278,0,1,left,0,1308.3278,1308.3278,1308.3284,1309.8287,0,9,9,9,1,0.6,0.4,0.4,0.6,,,,,,,,,,,,,,,0.0118,,0.2,0.8,0.8,0.2,0.4,0.6,0.2,0.8,,,0.0468,,0.4,0.6,0.6,0.4,0.4,0.6,0.4,0.6,1,0
,,5fc4c49da0603a4d5feae548,66daf5926301aed538d7ecee,2024-09-06_14h31.03.428,mdp,2024.2.1,MacIntel,30.03003003,66d7945b1baad48e845df3ce,,,,,,,,,,,,,,,,,,,,,1309.8291,1309.8291,1309.8298,1310.5618,0,0,left,0.1647,,1310.563,1311.1621,0,1,left,1311.1634,1311.7955,0,0,left,1,1311.7956,1311.7956,1311.7967,1313.296,0,10,10,10,1,0.6,0.4,0.4,0.6,,,,,,,,,,,,,,,0.0665,,0.2,0.8,0.8,0.2,0.4,0.6,0.2,0.8,,,0.0633,,0.4,0.6,0.6,0.4,0.4,0.6,0.4,0.6,1,0
,,5fc4c49da0603a4d5feae548,66daf5926301aed538d7ecee,2024-09-06_14h31.03.428,mdp,2024.2.1,MacIntel,30.03003003,66d7945b1baad48e845df3ce,,,,,,,,,,,,,,,,,,,,,1313.2965,1313.2965,1313.2974,1314.0625,0,0,left,0.2014,,1314.0636,1314.6625,0,1,left,1314.6637,1315.2959,0,1,left,0,1315.2959,1315.2959,1315.297,1316.7966,0,11,11,11,1,0.6,0.4,0.4,0.6,,,,,,,,,,,,,,,0.0681,,0.2,0.8,0.8,0.2,0.4,0.6,0.2,0.8,,,0.07,,0.4,0.6,0.6,0.4,0.4,0.6,0.4,0.6,1,0
,,5fc4c49da0603a4d5feae548,66daf5926301aed538d7ecee,2024-09-06_14h31.03.428,mdp,2024.2.1,MacIntel,30.03003003,66d7945b1baad48e845df3ce,,,,,,,,,,,,,,,,,,,,,1316.797,1316.797,1316.7978,1317.3629,0,1,left,0.0233,,1317.3636,1318.0299,0,1,left,1318.0311,1318.6295,0,0,left,1,1318.6296,1318.6296,1318.6302,1320.13,0,12,12,12,1,0.6,0.4,0.4,0.6,,,,,,,,,,,,,,,0.1344,,0.2,0.8,0.8,0.2,0.4,0.6,0.2,0.8,,,0.0544,,0.4,0.6,0.6,0.4,0.4,0.6,0.4,0.6,1,0
,,5fc4c49da0603a4d5feae548,66daf5926301aed538d7ecee,2024-09-06_14h31.03.428,mdp,2024.2.1,MacIntel,30.03003003,66d7945b1baad48e845df3ce,,,,,,,,,,,,,,,,,,,,,1320.1304,1320.1304,1320.1315,1320.7303,0,0,left,0.0437,,1320.7317,1321.3968,0,1,left,1321.3979,1322.0638,0,1,left,0,1322.0639,1322.0639,1322.065,1323.5638,0,13,13,13,1,0.6,0.4,0.4,0.6,,,,,,,,,,,,,,,0.1111,,0.2,0.8,0.8,0.2,0.4,0.6,0.2,0.8,,,0.1365,,0.4,0.6,0.6,0.4,0.4,0.6,0.4,0.6,1,0
,,5fc4c49da0603a4d5feae548,66daf5926301aed538d7ecee,2024-09-06_14h31.03.428,mdp,2024.2.1,MacIntel,30.03003003,66d7945b1baad48e845df3ce,,,,,,,,,,,,,,,,,,,,,1323.5642,1323.5642,1323.5651,1324.1639,0,1,left,0.0526,,1324.165,1324.7307,0,0,left,1324.732,1325.4973,0,1,left,0,1325.4973,1325.4974,1325.4984,1326.9978,0,14,14,14,1,0.6,0.4,0.4,0.6,,,,,,,,,,,,,,,0.0004,,0.2,0.8,0.8,0.2,0.4,0.6,0.2,0.8,,,0.2287,,0.4,0.6,0.6,0.4,0.4,0.6,0.4,0.6,1,0
,,5fc4c49da0603a4d5feae548,66daf5926301aed538d7ecee,2024-09-06_14h31.03.428,mdp,2024.2.1,MacIntel,30.03003003,66d7945b1baad48e845df3ce,,,,,,,,,,,,,,,,,,,,,1326.9983,1326.9983,1326.9995,1327.631,0,0,left,0.067,,1327.6318,1328.2314,0,1,left,1328.2327,1328.8312,0,0,left,1,1328.8313,1328.8313,1328.8325,1330.3314,0,15,15,15,1,0.6,0.4,0.4,0.6,,,,,,,,,,,,,,,0.0778,,0.2,0.8,0.8,0.2,0.4,0.6,0.2,0.8,,,0.0336,,0.4,0.6,0.6,0.4,0.4,0.6,0.4,0.6,1,0
,,5fc4c49da0603a4d5feae548,66daf5926301aed538d7ecee,2024-09-06_14h31.03.428,mdp,2024.2.1,MacIntel,30.03003003,66d7945b1baad48e845df3ce,,,,,,,,,,,,,,,,,,,,,1330.3318,1330.3318,1330.3326,1330.9986,0,0,left,0.137,,1330.9998,1331.5652,0,1,left,1331.5665,1332.1656,0,0,left,1,1332.1657,1332.1657,1332.1669,1333.6656,0,16,16,16,1,0.6,0.4,0.4,0.6,,,,,,,,,,,,,,,0.0167,,0.2,0.8,0.8,0.2,0.4,0.6,0.2,0.8,,,0.0327,,0.4,0.6,0.6,0.4,0.4,0.6,0.4,0.6,1,0
,,5fc4c49da0603a4d5feae548,66daf5926301aed538d7ecee,2024-09-06_14h31.03.428,mdp,2024.2.1,MacIntel,30.03003003,66d7945b1baad48e845df3ce,,,,,,,,,,,,,,,,,,,,,1333.666,1333.666,1333.6671,1334.2326,0,0,left,0.002,,1334.2339,1334.9655,0,1,left,1334.9662,1335.5324,0,1,left,0,1335.5325,1335.5325,1335.5338,1337.0328,0,17,17,17,1,0.6,0.4,0.4,0.6,,,,,,,,,,,,,,,0.1911,,0.2,0.8,0.8,0.2,0.4,0.6,0.2,0.8,,,0.0386,,0.4,0.6,0.6,0.4,0.4,0.6,0.4,0.6,1,0
,,5fc4c49da0603a4d5feae548,66daf5926301aed538d7ecee,2024-09-06_14h31.03.428,mdp,2024.2.1,MacIntel,30.03003003,66d7945b1baad48e845df3ce,,,,,,,,,,,,,,,,,,,,,1337.0333,1337.0333,1337.0342,1337.7663,0,0,left,0.1682,,1337.7675,1338.5334,0,1,left,1338.5347,1339.2996,0,1,left,0,1339.2998,1339.2998,1339.301,1340.7999,0,18,18,18,1,0.6,0.4,0.4,0.6,,,,,,,,,,,,,,,0.2381,,0.2,0.8,0.8,0.2,0.4,0.6,0.2,0.8,,,0.2005,,0.4,0.6,0.6,0.4,0.4,0.6,0.4,0.6,1,0
,,5fc4c49da0603a4d5feae548,66daf5926301aed538d7ecee,2024-09-06_14h31.03.428,mdp,2024.2.1,MacIntel,30.03003003,66d7945b1baad48e845df3ce,,,,,,,,,,,,,,,,,,,,,1340.8002,1340.8002,1340.801,1341.5003,0,0,left,0.1343,,1341.5015,1342.2004,0,1,left,1342.2016,1342.9335,0,0,left,1,1342.9337,1342.9337,1342.9344,1344.4341,0,19,19,19,1,0.6,0.4,0.4,0.6,,,,,,,,,,,,,,,0.1512,,0.2,0.8,0.8,0.2,0.4,0.6,0.2,0.8,,,0.1807,,0.4,0.6,0.6,0.4,0.4,0.6,0.4,0.6,1,0
,,5fc4c49da0603a4d5feae548,66daf5926301aed538d7ecee,2024-09-06_14h31.03.428,mdp,2024.2.1,MacIntel,30.03003003,66d7945b1baad48e845df3ce,,,,,,,,,,,,,,,,,,,,,1344.4347,1344.4347,1344.4357,1345.0674,0,0,left,0.0638,,1345.0686,1345.601,0,1,left,1345.6022,1346.1676,0,1,left,0,1346.1678,1346.1678,1346.169,1347.6679,0,20,20,20,1,0.6,0.4,0.4,0.6,,,,,,,,,,,,,,,0.0003,,0.2,0.8,0.8,0.2,0.4,0.6,0.2,0.8,,,0.0005,,0.4,0.6,0.6,0.4,0.4,0.6,0.4,0.6,1,0
,,5fc4c49da0603a4d5feae548,66daf5926301aed538d7ecee,2024-09-06_14h31.03.428,mdp,2024.2.1,MacIntel,30.03003003,66d7945b1baad48e845df3ce,,,,,,,,,,,,,,,,,,,,,1347.6683,1347.6683,1347.6695,1348.3681,0,0,left,0.1341,,1348.3693,1349.1682,0,1,left,1349.1696,1349.935,0,1,left,0,1349.9351,1349.9351,1349.936,1351.4352,0,21,21,21,1,0.6,0.4,0.4,0.6,,,,,,,,,,,,,,,0.248,,0.2,0.8,0.8,0.2,0.4,0.6,0.2,0.8,,,0.2316,,0.4,0.6,0.6,0.4,0.4,0.6,0.4,0.6,1,0
,,5fc4c49da0603a4d5feae548,66daf5926301aed538d7ecee,2024-09-06_14h31.03.428,mdp,2024.2.1,MacIntel,30.03003003,66d7945b1baad48e845df3ce,,,,,,,,,,,,,,,,,,,,,1351.4356,1351.4356,1351.4367,1352.0685,0,0,left,0.0809,,1352.0697,1352.8689,0,1,left,1352.8702,1353.6695,0,1,left,0,1353.6696,1353.6696,1353.6707,1355.1697,0,22,22,22,1,0.6,0.4,0.4,0.6,,,,,,,,,,,,,,,0.238,,0.2,0.8,0.8,0.2,0.4,0.6,0.2,0.8,,,0.2358,,0.4,0.6,0.6,0.4,0.4,0.6,0.4,0.6,1,0
,,5fc4c49da0603a4d5feae548,66daf5926301aed538d7ecee,2024-09-06_14h31.03.428,mdp,2024.2.1,MacIntel,30.03003003,66d7945b1baad48e845df3ce,,,,,,,,,,,,,,,,,,,,,1355.1702,1355.1702,1355.1715,1355.8028,0,1,left,0.0655,,1355.8039,1356.3698,0,1,left,1356.3714,1356.9362,0,0,left,1,1356.9362,1356.9363,1356.9374,1358.4363,0,23,23,23,1,0.6,0.4,0.4,0.6,,,,,,,,,,,,,,,0.0067,,0.2,0.8,0.8,0.2,0.4,0.6,0.2,0.8,,,0.0028,,0.4,0.6,0.6,0.4,0.4,0.6,0.4,0.6,1,0
,,5fc4c49da0603a4d5feae548,66daf5926301aed538d7ecee,2024-09-06_14h31.03.428,mdp,2024.2.1,MacIntel,30.03003003,66d7945b1baad48e845df3ce,,,,,,,,,,,,,,,,,,,,,1358.4367,1358.4367,1358.438,1359.0695,0,0,left,0.0888,,1359.0702,1359.6031,0,0,left,1359.6044,1360.1363,0,0,left,1,1360.1364,1360.1364,1360.1375,1361.6368,0,24,24,24,1,0.6,0.4,0.4,0.6,,,,,,,,,,,,,,,0.0024,,0.2,0.8,0.8,0.2,0.4,0.6,0.2,0.8,,,0.0135,,0.4,0.6,0.6,0.4,0.4,0.6,0.4,0.6,1,0
,,5fc4c49da0603a4d5feae548,66daf5926301aed538d7ecee,2024-09-06_14h31.03.428,mdp,2024.2.1,MacIntel,30.03003003,66d7945b1baad48e845df3ce,,,,,,,,,,,,,,,,,,,,,1361.6373,1361.6373,1361.6384,1362.2704,0,1,left,0.0644,,1362.2715,1363.0371,0,0,left,1363.0382,1363.8372,0,1,left,0,1363.8373,1363.8373,1363.8384,1365.3373,0,25,25,25,1,0.6,0.4,0.4,0.6,,,,,,,,,,,,,,,0.1967,,0.2,0.8,0.8,0.2,0.4,0.6,0.2,0.8,,,0.2313,,0.4,0.6,0.6,0.4,0.4,0.6,0.4,0.6,1,0
,,5fc4c49da0603a4d5feae548,66daf5926301aed538d7ecee,2024-09-06_14h31.03.428,mdp,2024.2.1,MacIntel,30.03003003,66d7945b1baad48e845df3ce,,,,,,,,,,,,,,,,,,,,,1365.3378,1365.3378,1365.3391,1365.9044,0,1,left,0.0005,,1365.9053,1366.6377,0,1,left,1366.6389,1367.2044,0,1,left,0,1367.2045,1367.2045,1367.2056,1368.7047,0,26,26,26,1,0.6,0.4,0.4,0.6,,,,,,,,,,,,,,,0.1713,,0.2,0.8,0.8,0.2,0.4,0.6,0.2,0.8,,,0.0005,,0.4,0.6,0.6,0.4,0.4,0.6,0.4,0.6,1,0
,,5fc4c49da0603a4d5feae548,66daf5926301aed538d7ecee,2024-09-06_14h31.03.428,mdp,2024.2.1,MacIntel,30.03003003,66d7945b1baad48e845df3ce,,,,,,,,,,,,,,,,,,,,,1368.7051,1368.7051,1368.7061,1369.3382,1,0,right,0.0695,,1369.3393,1369.9048,1,0,right,1369.9059,1370.4721,1,1,right,0,1370.4721,1370.4721,1370.4733,1371.9718,0,27,27,27,1,0.6,0.4,0.4,0.6,,,,,,,,,,,,,,,0.0304,,0.2,0.8,0.8,0.2,0.4,0.6,0.2,0.8,,,0.0394,,0.4,0.6,0.6,0.4,0.4,0.6,0.4,0.6,1,0
,,5fc4c49da0603a4d5feae548,66daf5926301aed538d7ecee,2024-09-06_14h31.03.428,mdp,2024.2.1,MacIntel,30.03003003,66d7945b1baad48e845df3ce,,,,,,,,,,,,,,,,,,,,,1371.9722,1371.9722,1371.9733,1372.5389,0,0,left,0.0005,,1372.5399,1373.3055,0,1,left,1373.3065,1374.0053,0,1,left,0,1374.0053,1374.0053,1374.006,1375.5058,0,28,28,28,1,0.6,0.4,0.4,0.6,,,,,,,,,,,,,,,0.1981,,0.2,0.8,0.8,0.2,0.4,0.6,0.2,0.8,,,0.1506,,0.4,0.6,0.6,0.4,0.4,0.6,0.4,0.6,1,0
,,5fc4c49da0603a4d5feae548,66daf5926301aed538d7ecee,2024-09-06_14h31.03.428,mdp,2024.2.1,MacIntel,30.03003003,66d7945b1baad48e845df3ce,,,,,,,,,,,,,,,,,,,,,1375.5062,1375.5062,1375.5072,1376.1393,0,0,left,0.074,,1376.1405,1376.7059,0,1,left,1376.7071,1377.2729,0,1,left,0,1377.273,1377.273,1377.2741,1378.7727,0,29,29,29,1,0.6,0.4,0.4,0.6,,,,,,,,,,,,,,,0.0004,,0.2,0.8,0.8,0.2,0.4,0.6,0.2,0.8,,,0.0005,,0.4,0.6,0.6,0.4,0.4,0.6,0.4,0.6,1,0
,,5fc4c49da0603a4d5feae548,66daf5926301aed538d7ecee,2024-09-06_14h31.03.428,mdp,2024.2.1,MacIntel,30.03003003,66d7945b1baad48e845df3ce,,,,,,,,,,,,,,,,,,,,,1378.7732,1378.7732,1378.7742,1379.4401,0,0,left,0.1009,,1379.4411,1380.1066,0,1,left,1380.1075,1380.773,0,0,left,1,1380.7731,1380.7731,1380.7738,1382.2735,0,30,30,30,1,0.6,0.4,0.4,0.6,,,,,,,,,,,,,,,0.1014,,0.2,0.8,0.8,0.2,0.4,0.6,0.2,0.8,,,0.1543,,0.4,0.6,0.6,0.4,0.4,0.6,0.4,0.6,1,0
,,5fc4c49da0603a4d5feae548,66daf5926301aed538d7ecee,2024-09-06_14h31.03.428,mdp,2024.2.1,MacIntel,30.03003003,66d7945b1baad48e845df3ce,,,,,,,,,,,,,,,,,,,,,1382.274,1382.274,1382.2752,1382.9403,1,1,right,0.1285,,1382.9414,1383.4738,0,0,left,1383.4749,1384.174,0,1,left,0,1384.1741,1384.1741,1384.1753,1385.6741,0,31,31,31,1,0.6,0.4,0.4,0.6,,,,,,,,,,,,,,,0.0055,,0.2,0.8,0.8,0.2,0.4,0.6,0.2,0.8,,,0.1325,,0.4,0.6,0.6,0.4,0.6,0.4,0.2,0.8,1,0
,,5fc4c49da0603a4d5feae548,66daf5926301aed538d7ecee,2024-09-06_14h31.03.428,mdp,2024.2.1,MacIntel,30.03003003,66d7945b1baad48e845df3ce,,,,,,,,,,,,,,,,,,,,,1385.6745,1385.6746,1385.6757,1386.2735,1,1,right,0.0345,,1386.2741,1386.9737,0,0,left,1386.9743,1387.5072,0,0,left,1,1387.5072,1387.5072,1387.5078,1389.0079,0,32,32,32,1,0.6,0.4,0.4,0.6,,,,,,,,,,,,,,,0.1468,,0.2,0.8,0.8,0.2,0.4,0.6,0.2,0.8,,,0.006,,0.4,0.6,0.6,0.4,0.6,0.4,0.2,0.8,1,0
,,5fc4c49da0603a4d5feae548,66daf5926301aed538d7ecee,2024-09-06_14h31.03.428,mdp,2024.2.1,MacIntel,30.03003003,66d7945b1baad48e845df3ce,,,,,,,,,,,,,,,,,,,,,1389.0082,1389.0082,1389.0088,1389.7077,0,0,left,0.1334,,1389.7083,1390.4414,0,1,left,1390.4425,1390.9748,0,0,left,1,1390.9749,1390.9749,1390.9761,1392.4749,0,33,33,33,1,0.6,0.4,0.4,0.6,,,,,,,,,,,,,,,0.1797,,0.2,0.8,0.8,0.2,0.4,0.6,0.2,0.8,,,0.0104,,0.4,0.6,0.6,0.4,0.6,0.4,0.2,0.8,1,0
,,5fc4c49da0603a4d5feae548,66daf5926301aed538d7ecee,2024-09-06_14h31.03.428,mdp,2024.2.1,MacIntel,30.03003003,66d7945b1baad48e845df3ce,,,,,,,,,,,,,,,,,,,,,1392.4754,1392.4754,1392.4765,1393.1087,1,0,right,0.0666,,1393.1098,1393.6754,0,1,left,1393.6766,1394.3421,0,1,left,0,1394.3421,1394.3422,1394.3433,1395.8423,0,34,34,34,1,0.6,0.4,0.4,0.6,,,,,,,,,,,,,,,0.0005,,0.2,0.8,0.8,0.2,0.4,0.6,0.2,0.8,,,0.1019,,0.4,0.6,0.6,0.4,0.6,0.4,0.2,0.8,1,0
,,5fc4c49da0603a4d5feae548,66daf5926301aed538d7ecee,2024-09-06_14h31.03.428,mdp,2024.2.1,MacIntel,30.03003003,66d7945b1baad48e845df3ce,,,,,,,,,,,,,,,,,,,,,1395.8428,1395.8428,1395.8439,1397.1763,1,1,right,0.7643,,1397.1772,1398.0761,0,0,left,1398.0769,1398.7761,1,0,right,1,1398.7763,1398.7763,1398.7772,1400.2762,0,35,35,35,1,0.8,0.2,0.8,0.2,,,,,,,,,,,,,,,0.3513,,0.2,0.8,0.8,0.2,0.4,0.6,0.2,0.8,,,0.1818,,0.4,0.6,0.6,0.4,0.6,0.4,0.2,0.8,1,0
,,5fc4c49da0603a4d5feae548,66daf5926301aed538d7ecee,2024-09-06_14h31.03.428,mdp,2024.2.1,MacIntel,30.03003003,66d7945b1baad48e845df3ce,,,,,,,,,,,,,,,,,,,,,1400.2767,1400.2767,1400.2777,1400.9099,1,0,right,0.0812,,1400.9109,1401.5763,1,1,right,1401.5772,1402.1434,1,1,right,0,1402.1435,1402.1435,1402.1446,1403.6436,0,36,36,36,1,0.8,0.2,0.8,0.2,,,,,,,,,,,,,,,0.0985,,0.2,0.8,0.8,0.2,0.4,0.6,0.2,0.8,,,0.0432,,0.4,0.6,0.6,0.4,0.6,0.4,0.2,0.8,1,0
,,5fc4c49da0603a4d5feae548,66daf5926301aed538d7ecee,2024-09-06_14h31.03.428,mdp,2024.2.1,MacIntel,30.03003003,66d7945b1baad48e845df3ce,,,,,,,,,,,,,,,,,,,,,1403.6441,1403.6441,1403.6453,1404.1767,0,1,left,0.0101,,1404.1779,1404.7773,0,1,left,1404.7784,1405.344,0,1,left,0,1405.3441,1405.3441,1405.3452,1406.8439,0,37,37,37,1,0.4,0.6,0.6,0.4,,,,,,,,,,,,,,,0.0661,,0.2,0.8,0.8,0.2,0.4,0.6,0.2,0.8,,,0.0029,,0.4,0.6,0.6,0.4,0.6,0.4,0.2,0.8,1,0
,,5fc4c49da0603a4d5feae548,66daf5926301aed538d7ecee,2024-09-06_14h31.03.428,mdp,2024.2.1,MacIntel,30.03003003,66d7945b1baad48e845df3ce,,,,,,,,,,,,,,,,,,,,,1406.8443,1406.8443,1406.8451,1407.477,1,0,right,0.0872,,1407.4777,1408.0114,0,1,left,1408.0122,1408.6108,0,1,left,0,1408.6109,1408.611,1408.6122,1410.1111,0,38,38,38,1,0.4,0.6,0.6,0.4,,,,,,,,,,,,,,,0.0192,,0.2,0.8,0.8,0.2,0.4,0.6,0.2,0.8,,,0.0327,,0.4,0.6,0.6,0.4,0.6,0.4,0.2,0.8,1,0
,,5fc4c49da0603a4d5feae548,66daf5926301aed538d7ecee,2024-09-06_14h31.03.428,mdp,2024.2.1,MacIntel,30.03003003,66d7945b1baad48e845df3ce,,,,,,,,,,,,,,,,,,,,,1410.1115,1410.1115,1410.1123,1410.7116,1,1,right,0.0348,,1410.7125,1411.2783,1,1,right,1411.2796,1411.8451,1,1,right,0,1411.8452,1411.8452,1411.8464,1413.3454,0,39,39,39,1,0.4,0.6,0.6,0.4,,,,,,,,,,,,,,,0.0004,,0.2,0.8,0.8,0.2,0.4,0.6,0.2,0.8,,,0.003,,0.4,0.6,0.6,0.4,0.6,0.4,0.2,0.8,1,0
,,5fc4c49da0603a4d5feae548,66daf5926301aed538d7ecee,2024-09-06_14h31.03.428,mdp,2024.2.1,MacIntel,30.03003003,66d7945b1baad48e845df3ce,,,,,,,,,,,,,,,,,,,,,1413.3461,1413.3461,1413.3472,1413.9454,0,0,left,0.0449,,1413.9467,1414.6789,0,1,left,1414.68,1415.3454,0,0,left,1,1415.3454,1415.3454,1415.346,1416.8459,0,40,40,40,1,0.4,0.6,0.6,0.4,,,,,,,,,,,,,,,0.1644,,0.2,0.8,0.8,0.2,0.4,0.6,0.2,0.8,,,0.1197,,0.4,0.6,0.6,0.4,0.6,0.4,0.2,0.8,1,0
,,5fc4c49da0603a4d5feae548,66daf5926301aed538d7ecee,2024-09-06_14h31.03.428,mdp,2024.2.1,MacIntel,30.03003003,66d7945b1baad48e845df3ce,,,,,,,,,,,,,,,,,,,,,1416.8465,1416.8465,1416.8479,1417.479,1,0,right,0.086,,1417.4798,1418.0456,1,1,right,1418.0463,1418.6456,1,1,right,0,1418.6456,1418.6456,1418.6464,1420.1465,0,41,41,41,1,0.4,0.6,0.6,0.4,,,,,,,,,,,,,,,0.0543,,0.2,0.8,0.8,0.2,0.4,0.6,0.2,0.8,,,0.0873,,0.4,0.6,0.6,0.4,0.6,0.4,0.2,0.8,1,0
,,5fc4c49da0603a4d5feae548,66daf5926301aed538d7ecee,2024-09-06_14h31.03.428,mdp,2024.2.1,MacIntel,30.03003003,66d7945b1baad48e845df3ce,,,,,,,,,,,,,,,,,,,,,1420.1471,1420.1471,1420.1481,1420.8131,1,0,right,0.1043,,1420.8143,1421.4133,1,0,right,1421.414,1422.0467,1,0,right,1,1422.0468,1422.0469,1422.0481,1423.5469,0,42,42,42,1,0.4,0.6,0.6,0.4,,,,,,,,,,,,,,,0.054,,0.2,0.8,0.8,0.2,0.4,0.6,0.2,0.8,,,0.0635,,0.4,0.6,0.6,0.4,0.6,0.4,0.2,0.8,1,0
,,5fc4c49da0603a4d5feae548,66daf5926301aed538d7ecee,2024-09-06_14h31.03.428,mdp,2024.2.1,MacIntel,30.03003003,66d7945b1baad48e845df3ce,,,,,,,,,,,,,,,,,,,,,1423.5473,1423.5473,1423.5484,1424.2137,0,1,left,0.0997,,1424.2148,1424.8137,0,1,left,1424.8149,1425.3803,0,0,left,1,1425.3804,1425.3804,1425.3818,1426.8808,0,43,43,43,1,0.4,0.6,0.6,0.4,,,,,,,,,,,,,,,0.03,,0.2,0.8,0.8,0.2,0.6,0.4,0.4,0.6,,,0.0006,,0.4,0.6,0.6,0.4,0.6,0.4,0.2,0.8,1,0
,,5fc4c49da0603a4d5feae548,66daf5926301aed538d7ecee,2024-09-06_14h31.03.428,mdp,2024.2.1,MacIntel,30.03003003,66d7945b1baad48e845df3ce,,,,,,,,,,,,,,,,,,,,,1426.8814,1426.8814,1426.8823,1427.4475,1,0,right,0.0004,,1427.4489,1428.1808,1,0,right,1428.1818,1428.7477,1,1,right,0,1428.7478,1428.7478,1428.7488,1430.2485,0,44,44,44,1,0.4,0.6,0.6,0.4,,,,,,,,,,,,,,,0.1823,,0.2,0.8,0.8,0.2,0.6,0.4,0.4,0.6,,,0.0005,,0.8,0.2,0.4,0.6,0.6,0.4,0.2,0.8,1,0
,,5fc4c49da0603a4d5feae548,66daf5926301aed538d7ecee,2024-09-06_14h31.03.428,mdp,2024.2.1,MacIntel,30.03003003,66d7945b1baad48e845df3ce,,,,,,,,,,,,,,,,,,,,,1430.2491,1430.2491,1430.2502,1430.8817,1,0,right,0.0857,,1430.8826,1431.4815,1,0,right,1431.4828,1432.0479,1,1,right,0,1432.048,1432.048,1432.0486,1433.5485,0,45,45,45,1,0.4,0.6,0.6,0.4,,,,,,,,,,,,,,,0.0346,,0.2,0.8,0.8,0.2,0.6,0.4,0.4,0.6,,,0.0192,,0.8,0.2,0.4,0.6,0.6,0.4,0.2,0.8,1,0
,,5fc4c49da0603a4d5feae548,66daf5926301aed538d7ecee,2024-09-06_14h31.03.428,mdp,2024.2.1,MacIntel,30.03003003,66d7945b1baad48e845df3ce,,,,,,,,,,,,,,,,,,,,,1433.549,1433.549,1433.5502,1434.2154,1,0,right,0.1351,,1434.2165,1434.8154,1,0,right,1434.8166,1435.3817,1,1,right,0,1435.3818,1435.3818,1435.3823,1436.8825,0,46,46,46,1,0.4,0.6,0.6,0.4,,,,,,,,,,,,,,,0.037,,0.2,0.8,0.8,0.2,0.6,0.4,0.4,0.6,,,0.0549,,0.8,0.2,0.4,0.6,0.6,0.4,0.2,0.8,1,0
,,5fc4c49da0603a4d5feae548,66daf5926301aed538d7ecee,2024-09-06_14h31.03.428,mdp,2024.2.1,MacIntel,30.03003003,66d7945b1baad48e845df3ce,,,,,,,,,,,,,,,,,,,,,1436.8828,1436.8828,1436.8835,1437.5825,1,1,right,0.1393,,1437.5837,1438.1495,1,0,right,1438.1502,1438.7495,1,1,right,0,1438.7495,1438.7495,1438.7509,1440.2492,0,47,47,47,1,0.4,0.6,0.6,0.4,,,,,,,,,,,,,,,0.0169,,0.2,0.8,0.8,0.2,0.6,0.4,0.4,0.6,,,0.0383,,0.8,0.2,0.4,0.6,0.6,0.4,0.2,0.8,1,0
,,5fc4c49da0603a4d5feae548,66daf5926301aed538d7ecee,2024-09-06_14h31.03.428,mdp,2024.2.1,MacIntel,30.03003003,66d7945b1baad48e845df3ce,,,,,,,,,,,,,,,,,,,,,1440.2496,1440.2496,1440.2508,1440.8827,1,0,right,0.0642,,1440.8837,1441.4495,1,0,right,1441.4505,1442.0161,1,0,right,1,1442.0161,1442.0161,1442.0168,1443.5168,0,48,48,48,1,0.6,0.4,0.4,0.6,,,,,,,,,,,,,,,0.0298,,0.2,0.8,0.8,0.2,0.6,0.4,0.4,0.6,,,0.054,,0.8,0.2,0.4,0.6,0.6,0.4,0.2,0.8,1,0
,,5fc4c49da0603a4d5feae548,66daf5926301aed538d7ecee,2024-09-06_14h31.03.428,mdp,2024.2.1,MacIntel,30.03003003,66d7945b1baad48e845df3ce,,,,,,,,,,,,,,,,,,,,,1443.5173,1443.5173,1443.5184,1444.1834,0,0,left,0.1179,,1444.1843,1444.784,0,1,left,1444.785,1445.4837,0,0,left,1,1445.4838,1445.4838,1445.4849,1446.9839,0,49,49,49,1,0.6,0.4,0.4,0.6,,,,,,,,,,,,,,,0.0342,,0.2,0.8,0.8,0.2,0.6,0.4,0.4,0.6,,,0.1373,,0.8,0.2,0.4,0.6,0.6,0.4,0.2,0.8,1,0
,,5fc4c49da0603a4d5feae548,66daf5926301aed538d7ecee,2024-09-06_14h31.03.428,mdp,2024.2.1,MacIntel,30.03003003,66d7945b1baad48e845df3ce,,,,,,,,,,,,,,,,,,,,,,,,,,,,,,,,,,,,,,,,,,,,,,,,,,,,,,,,1446.9841,1505.4935,0,3,3,6,1,imgs/giraffe.png,imgs/cat.png,imgs/squirrel.png,imgs/lion.png,imgs/rabbit.png,,,,,,,,,,,,,,,,,,,,,,,,
,,5fc4c49da0603a4d5feae548,66daf5926301aed538d7ecee,2024-09-06_14h31.03.428,mdp,2024.2.1,MacIntel,30.03003003,66d7945b1baad48e845df3ce,,,,,,,,,,,,,,1,seqs/st1seq48.csv,1505.5062,1692.0909,space,186.0526,,1692.1015,1692.1015,1692.1021,1693.6574,0,1,left,0.9892,,1693.6583,1693.6589,0,1,,1693.6595,1693.6599,0,1,,0,1693.66,1693.66,1693.6604,1695.1579,0,0,0,0,1,0.2,0.8,0.8,0.2,1,0,,,,,,,,,,,,,,,,,,,,,,,,,,,,,,,,,,,,
,,5fc4c49da0603a4d5feae548,66daf5926301aed538d7ecee,2024-09-06_14h31.03.428,mdp,2024.2.1,MacIntel,30.03003003,66d7945b1baad48e845df3ce,,,,,,,,,,,,,,,,,,,,,1695.1582,1695.1582,1695.1591,1695.8242,0,1,left,0.1,,1695.8258,1695.8265,0,1,,1695.8271,1695.8276,0,1,,0,1695.8276,1695.8277,1695.8281,1697.3253,0,1,1,1,1,0.2,0.8,0.8,0.2,1,0,,,,,,,,,,,,,,,,,,,,,,,,,,,,,,,,,,,,
,,5fc4c49da0603a4d5feae548,66daf5926301aed538d7ecee,2024-09-06_14h31.03.428,mdp,2024.2.1,MacIntel,30.03003003,66d7945b1baad48e845df3ce,,,,,,,,,,,,,,,,,,,,,1697.3256,1697.3256,1697.3267,1697.9921,1,0,right,0.1154,,1697.9934,1697.9941,0,0,,1697.9947,1697.9952,0,1,,1,1697.9952,1697.9952,1697.9957,1699.4918,0,2,2,2,1,0.8,0.2,0.6,0.4,1,0,,,,,,,,,,,,,,,,,,,,,,,,,,,,,,,,,,,,
,,5fc4c49da0603a4d5feae548,66daf5926301aed538d7ecee,2024-09-06_14h31.03.428,mdp,2024.2.1,MacIntel,30.03003003,66d7945b1baad48e845df3ce,,,,,,,,,,,,,,,,,,,,,1699.4922,1699.4922,1699.4933,1700.0925,1,0,right,0.0334,,1700.0936,1700.0943,0,0,,1700.095,1700.0955,0,1,,1,1700.0956,1700.0956,1700.096,1701.5926,0,3,3,3,1,0.8,0.2,0.6,0.4,1,0,,,,,,,,,,,,,,,,,,,,,,,,,,,,,,,,,,,,
,,5fc4c49da0603a4d5feae548,66daf5926301aed538d7ecee,2024-09-06_14h31.03.428,mdp,2024.2.1,MacIntel,30.03003003,66d7945b1baad48e845df3ce,,,,,,,,,,,,,,,,,,,,,1701.593,1701.593,1701.5944,1702.2928,1,1,right,0.1331,,1702.2939,1702.2947,0,1,,1702.2952,1702.2955,0,1,,0,1702.2956,1702.2956,1702.296,1703.7931,0,4,4,4,1,0.8,0.2,0.6,0.4,1,0,,,,,,,,,,,,,,,,,,,,,,,,,,,,,,,,,,,,
,,5fc4c49da0603a4d5feae548,66daf5926301aed538d7ecee,2024-09-06_14h31.03.428,mdp,2024.2.1,MacIntel,30.03003003,66d7945b1baad48e845df3ce,,,,,,,,,,,,,,,,,,,,,1703.7935,1703.7935,1703.7947,1704.6255,1,0,right,0.275,,1704.6268,1704.6276,0,1,,1704.6282,1704.6287,0,1,,1,1704.6287,1704.6287,1704.6292,1706.1261,0,5,5,5,1,0.8,0.2,0.6,0.4,1,0,,,,,,,,,,,,,,,,,,,,,,,,,,,,,,,,,,,,
,,5fc4c49da0603a4d5feae548,66daf5926301aed538d7ecee,2024-09-06_14h31.03.428,mdp,2024.2.1,MacIntel,30.03003003,66d7945b1baad48e845df3ce,,,,,,,,,,,,,,,,,,,,,1706.1266,1706.1266,1706.1276,1706.8267,1,1,right,0.1295,,1706.8278,1706.8285,0,0,,1706.8291,1706.8296,0,0,,0,1706.8297,1706.8297,1706.83,1708.3264,0,6,6,6,1,0.8,0.2,0.6,0.4,1,0,,,,,,,,,,,,,,,,,,,,,,,,,,,,,,,,,,,,
,,5fc4c49da0603a4d5feae548,66daf5926301aed538d7ecee,2024-09-06_14h31.03.428,mdp,2024.2.1,MacIntel,30.03003003,66d7945b1baad48e845df3ce,,,,,,,,,,,,,,,,,,,,,1708.327,1708.327,1708.3281,1708.8932,1,0,right,0.0511,,1708.8943,1708.8952,0,1,,1708.8958,1708.8962,0,1,,1,1708.8962,1708.8962,1708.8967,1710.3931,0,7,7,7,1,0.8,0.2,0.6,0.4,1,0,,,,,,,,,,,,,,,,,,,,,,,,,,,,,,,,,,,,
,,5fc4c49da0603a4d5feae548,66daf5926301aed538d7ecee,2024-09-06_14h31.03.428,mdp,2024.2.1,MacIntel,30.03003003,66d7945b1baad48e845df3ce,,,,,,,,,,,,,,,,,,,,,1710.3935,1710.3935,1710.3949,1710.9944,0,0,left,0.0318,,1710.9957,1710.9966,0,1,,1710.9972,1710.9976,0,1,,1,1710.9976,1710.9976,1710.9981,1712.4944,0,8,8,8,1,0.2,0.8,0.8,0.2,1,0,,,,,,,,,,,,,,,,,,,,,,,,,,,,,,,,,,,,
,,5fc4c49da0603a4d5feae548,66daf5926301aed538d7ecee,2024-09-06_14h31.03.428,mdp,2024.2.1,MacIntel,30.03003003,66d7945b1baad48e845df3ce,,,,,,,,,,,,,,,,,,,,,1712.4947,1712.4947,1712.4959,1713.1612,1,0,right,0.1085,,1713.1626,1713.1636,0,0,,1713.1642,1713.1648,0,0,,1,1713.1648,1713.1648,1713.1652,1714.6602,0,9,9,9,1,0.2,0.8,0.8,0.2,1,0,,,,,,,,,,,,,,,,,,,,,,,,,,,,,,,,,,,,
,,5fc4c49da0603a4d5feae548,66daf5926301aed538d7ecee,2024-09-06_14h31.03.428,mdp,2024.2.1,MacIntel,30.03003003,66d7945b1baad48e845df3ce,,,,,,,,,,,,,,,,,,,,,1714.6606,1714.6606,1714.6614,1715.2271,0,1,left,0.032,,1715.2281,1715.2288,0,1,,1715.2294,1715.23,0,1,,0,1715.23,1715.23,1715.2305,1716.7282,0,10,10,10,1,0.2,0.8,0.8,0.2,1,0,,,,,,,,,,,,,,,,,,,,,,,,,,,,,,,,,,,,
,,5fc4c49da0603a4d5feae548,66daf5926301aed538d7ecee,2024-09-06_14h31.03.428,mdp,2024.2.1,MacIntel,30.03003003,66d7945b1baad48e845df3ce,,,,,,,,,,,,,,,,,,,,,1716.7286,1716.7286,1716.7297,1717.3279,1,0,right,0.0527,,1717.3286,1717.3291,0,0,,1717.3298,1717.3301,0,0,,1,1717.3302,1717.3302,1717.3306,1718.8285,0,11,11,11,1,0.8,0.2,0.6,0.4,1,0,,,,,,,,,,,,,,,,,,,,,,,,,,,,,,,,,,,,
,,5fc4c49da0603a4d5feae548,66daf5926301aed538d7ecee,2024-09-06_14h31.03.428,mdp,2024.2.1,MacIntel,30.03003003,66d7945b1baad48e845df3ce,,,,,,,,,,,,,,,,,,,,,1718.8288,1718.8288,1718.8299,1719.3955,1,1,right,0.0002,,1719.3968,1719.3977,0,0,,1719.3984,1719.3989,0,0,,0,1719.399,1719.399,1719.3994,1720.8945,0,12,12,12,1,0.8,0.2,0.6,0.4,1,0,,,,,,,,,,,,,,,,,,,,,,,,,,,,,,,,,,,,
,,5fc4c49da0603a4d5feae548,66daf5926301aed538d7ecee,2024-09-06_14h31.03.428,mdp,2024.2.1,MacIntel,30.03003003,66d7945b1baad48e845df3ce,,,,,,,,,,,,,,,,,,,,,1720.8949,1720.8949,1720.896,1721.4625,1,0,right,0.0333,,1721.4638,1721.4647,0,0,,1721.4653,1721.4659,0,0,,1,1721.466,1721.466,1721.4664,1722.9623,0,13,13,13,1,0.6,0.4,0.8,0.2,1,0,,,,,,,,,,,,,,,,,,,,,,,,,,,,,,,,,,,,
,,5fc4c49da0603a4d5feae548,66daf5926301aed538d7ecee,2024-09-06_14h31.03.428,mdp,2024.2.1,MacIntel,30.03003003,66d7945b1baad48e845df3ce,,,,,,,,,,,,,,,,,,,,,1722.9626,1722.9626,1722.9632,1723.6293,0,1,left,0.1507,,1723.6305,1723.6312,0,0,,1723.6318,1723.6322,0,0,,0,1723.6322,1723.6322,1723.6326,1725.1292,0,14,14,14,1,0.6,0.4,0.8,0.2,1,0,,,,,,,,,,,,,,,,,,,,,,,,,,,,,,,,,,,,
,,5fc4c49da0603a4d5feae548,66daf5926301aed538d7ecee,2024-09-06_14h31.03.428,mdp,2024.2.1,MacIntel,30.03003003,66d7945b1baad48e845df3ce,,,,,,,,,,,,,,,,,,,,,1725.1295,1725.1295,1725.1307,1725.6625,1,0,right,0.0005,,1725.6636,1725.6645,0,1,,1725.6651,1725.6655,0,0,,1,1725.6655,1725.6655,1725.6659,1727.1625,0,15,15,15,1,0.8,0.2,0.4,0.6,1,0,,,,,,,,,,,,,,,,,,,,,,,,,,,,,,,,,,,,
,,5fc4c49da0603a4d5feae548,66daf5926301aed538d7ecee,2024-09-06_14h31.03.428,mdp,2024.2.1,MacIntel,30.03003003,66d7945b1baad48e845df3ce,,,,,,,,,,,,,,,,,,,,,1727.1628,1727.1628,1727.1635,1727.7632,0,0,left,0.0355,,1727.7638,1727.7644,0,0,,1727.7649,1727.7652,0,0,,1,1727.7652,1727.7652,1727.7655,1729.2635,0,16,16,16,1,0.8,0.2,0.4,0.6,1,0,,,,,,,,,,,,,,,,,,,,,,,,,,,,,,,,,,,,
,,5fc4c49da0603a4d5feae548,66daf5926301aed538d7ecee,2024-09-06_14h31.03.428,mdp,2024.2.1,MacIntel,30.03003003,66d7945b1baad48e845df3ce,,,,,,,,,,,,,,,,,,,,,1729.2639,1729.2639,1729.2649,1729.8632,0,1,left,0.0543,,1729.8638,1729.8642,0,0,,1729.8646,1729.8649,0,1,,0,1729.8649,1729.8649,1729.8652,1731.364,0,17,17,17,1,0.4,0.6,0.8,0.2,1,0,,,,,,,,,,,,,,,,,,,,,,,,,,,,,,,,,,,,
,,5fc4c49da0603a4d5feae548,66daf5926301aed538d7ecee,2024-09-06_14h31.03.428,mdp,2024.2.1,MacIntel,30.03003003,66d7945b1baad48e845df3ce,,,,,,,,,,,,,,,,,,,,,1731.3643,1731.3643,1731.3657,1732.0306,1,1,right,0.1206,,1732.0312,1732.0317,0,1,,1732.0322,1732.0325,0,1,,0,1732.0325,1732.0325,1732.0329,1733.5306,0,18,18,18,1,0.6,0.4,0.4,0.6,1,0,,,,,,,,,,,,,,,,,,,,,,,,,,,,,,,,,,,,
,,5fc4c49da0603a4d5feae548,66daf5926301aed538d7ecee,2024-09-06_14h31.03.428,mdp,2024.2.1,MacIntel,30.03003003,66d7945b1baad48e845df3ce,,,,,,,,,,,,,,,,,,,,,1733.531,1733.531,1733.532,1734.231,1,0,right,0.1861,,1734.2317,1734.2323,0,0,,1734.2326,1734.233,0,0,,1,1734.233,1734.233,1734.2333,1735.7314,0,19,19,19,1,0.6,0.4,0.4,0.6,1,0,,,,,,,,,,,,,,,,,,,,,,,,,,,,,,,,,,,,
,,5fc4c49da0603a4d5feae548,66daf5926301aed538d7ecee,2024-09-06_14h31.03.428,mdp,2024.2.1,MacIntel,30.03003003,66d7945b1baad48e845df3ce,,,,,,,,,,,,,,,,,,,,,1735.7318,1735.7318,1735.733,1736.2981,0,0,left,0.0198,,1736.2988,1736.2995,0,1,,1736.2999,1736.3002,0,0,,1,1736.3002,1736.3003,1736.3006,1737.7973,0,20,20,20,1,0.6,0.4,0.4,0.6,1,0,,,,,,,,,,,,,,,,,,,,,,,,,,,,,,,,,,,,
,,5fc4c49da0603a4d5feae548,66daf5926301aed538d7ecee,2024-09-06_14h31.03.428,mdp,2024.2.1,MacIntel,30.03003003,66d7945b1baad48e845df3ce,,,,,,,,,,,,,,,,,,,,,1737.7976,1737.7977,1737.7986,1738.3649,1,1,right,0.0499,,1738.3656,1738.3659,0,1,,1738.3663,1738.3666,0,0,,0,1738.3666,1738.3666,1738.3669,1739.8652,0,21,21,21,1,0.6,0.4,0.4,0.6,1,0,,,,,,,,,,,,,,,,,,,,,,,,,,,,,,,,,,,,
,,5fc4c49da0603a4d5feae548,66daf5926301aed538d7ecee,2024-09-06_14h31.03.428,mdp,2024.2.1,MacIntel,30.03003003,66d7945b1baad48e845df3ce,,,,,,,,,,,,,,,,,,,,,1739.8656,1739.8656,1739.8668,1740.531,1,1,right,0.1208,,1740.5317,1740.5322,0,1,,1740.5326,1740.5329,0,1,,0,1740.5329,1740.5329,1740.5332,1742.0324,0,22,22,22,1,0.6,0.4,0.4,0.6,1,0,,,,,,,,,,,,,,,,,,,,,,,,,,,,,,,,,,,,
,,5fc4c49da0603a4d5feae548,66daf5926301aed538d7ecee,2024-09-06_14h31.03.428,mdp,2024.2.1,MacIntel,30.03003003,66d7945b1baad48e845df3ce,,,,,,,,,,,,,,,,,,,,,1742.0328,1742.0328,1742.0341,1743.1322,1,1,right,0.555,,1743.1329,1743.1334,0,0,,1743.134,1743.1343,0,0,,0,1743.1343,1743.1343,1743.1347,1744.6328,0,23,23,23,1,0.6,0.4,0.4,0.6,1,0,,,,,,,,,,,,,,,,,,,,,,,,,,,,,,,,,,,,
,,5fc4c49da0603a4d5feae548,66daf5926301aed538d7ecee,2024-09-06_14h31.03.428,mdp,2024.2.1,MacIntel,30.03003003,66d7945b1baad48e845df3ce,,,,,,,,,,,,,,,,,,,,,1744.6331,1744.6331,1744.6344,1745.2321,1,1,right,0.0467,,1745.2331,1745.2339,0,1,,1745.2344,1745.235,0,0,,0,1745.235,1745.235,1745.2354,1746.7332,0,24,24,24,1,0.6,0.4,0.4,0.6,1,0,,,,,,,,,,,,,,,,,,,,,,,,,,,,,,,,,,,,
,,5fc4c49da0603a4d5feae548,66daf5926301aed538d7ecee,2024-09-06_14h31.03.428,mdp,2024.2.1,MacIntel,30.03003003,66d7945b1baad48e845df3ce,,,,,,,,,,,,,,,,,,,,,1746.7335,1746.7335,1746.7348,1747.3334,1,0,right,0.0319,,1747.3347,1747.3355,0,1,,1747.3361,1747.3367,0,1,,1,1747.3367,1747.3367,1747.3371,1748.8325,0,25,25,25,1,0.6,0.4,0.4,0.6,1,0,,,,,,,,,,,,,,,,,,,,,,,,,,,,,,,,,,,,
,,5fc4c49da0603a4d5feae548,66daf5926301aed538d7ecee,2024-09-06_14h31.03.428,mdp,2024.2.1,MacIntel,30.03003003,66d7945b1baad48e845df3ce,,,,,,,,,,,,,,,,,,,,,1748.8328,1748.8328,1748.8336,1749.9673,0,1,left,0.5641,,1749.9683,1749.9692,0,1,,1749.9698,1749.9703,0,0,,0,1749.9703,1749.9703,1749.9708,1751.4671,0,26,26,26,1,0.6,0.4,0.4,0.6,1,0,,,,,,,,,,,,,,,,,,,,,,,,,,,,,,,,,,,,
,,5fc4c49da0603a4d5feae548,66daf5926301aed538d7ecee,2024-09-06_14h31.03.428,mdp,2024.2.1,MacIntel,30.03003003,66d7945b1baad48e845df3ce,,,,,,,,,,,,,,,,,,,,,1751.4675,1751.4675,1751.4685,1752.0676,1,1,right,0.0299,,1752.0687,1752.0696,0,0,,1752.0703,1752.0707,0,1,,0,1752.0707,1752.0708,1752.0711,1753.5673,0,27,27,27,1,0.6,0.4,0.4,0.6,1,0,,,,,,,,,,,,,,,,,,,,,,,,,,,,,,,,,,,,
,,5fc4c49da0603a4d5feae548,66daf5926301aed538d7ecee,2024-09-06_14h31.03.428,mdp,2024.2.1,MacIntel,30.03003003,66d7945b1baad48e845df3ce,,,,,,,,,,,,,,,,,,,,,1753.5677,1753.5677,1753.5686,1754.4679,1,0,right,0.3315,,1754.4688,1754.4695,0,0,,1754.47,1754.4705,0,1,,1,1754.4705,1754.4705,1754.4708,1755.968,0,28,28,28,1,0.6,0.4,0.4,0.6,1,0,,,,,,,,,,,,,,,,,,,,,,,,,,,,,,,,,,,,
,,5fc4c49da0603a4d5feae548,66daf5926301aed538d7ecee,2024-09-06_14h31.03.428,mdp,2024.2.1,MacIntel,30.03003003,66d7945b1baad48e845df3ce,,,,,,,,,,,,,,,,,,,,,1755.9684,1755.9684,1755.9694,1757.034,1,0,right,0.4973,,1757.0348,1757.0355,0,0,,1757.0361,1757.0367,0,0,,1,1757.0368,1757.0368,1757.0373,1758.5351,0,29,29,29,1,0.6,0.4,0.4,0.6,1,0,,,,,,,,,,,,,,,,,,,,,,,,,,,,,,,,,,,,
,,5fc4c49da0603a4d5feae548,66daf5926301aed538d7ecee,2024-09-06_14h31.03.428,mdp,2024.2.1,MacIntel,30.03003003,66d7945b1baad48e845df3ce,,,,,,,,,,,,,,,,,,,,,1758.5354,1758.5354,1758.5364,1759.3011,1,0,right,0.1979,,1759.3018,1759.3023,0,1,,1759.3027,1759.3031,0,0,,1,1759.3031,1759.3031,1759.3035,1760.8015,0,30,30,30,1,0.6,0.4,0.4,0.6,1,0,,,,,,,,,,,,,,,,,,,,,,,,,,,,,,,,,,,,
,,5fc4c49da0603a4d5feae548,66daf5926301aed538d7ecee,2024-09-06_14h31.03.428,mdp,2024.2.1,MacIntel,30.03003003,66d7945b1baad48e845df3ce,,,,,,,,,,,,,,,,,,,,,1760.8018,1760.8018,1760.8026,1761.4349,1,1,right,0.0693,,1761.4355,1761.4359,0,1,,1761.4363,1761.4366,0,1,,0,1761.4367,1761.4367,1761.437,1762.935,0,31,31,31,1,0.6,0.4,0.4,0.6,1,0,,,,,,,,,,,,,,,,,,,,,,,,,,,,,,,,,,,,
,,5fc4c49da0603a4d5feae548,66daf5926301aed538d7ecee,2024-09-06_14h31.03.428,mdp,2024.2.1,MacIntel,30.03003003,66d7945b1baad48e845df3ce,,,,,,,,,,,,,,,,,,,,,1762.9352,1762.9352,1762.9358,1763.5683,1,1,right,0.0663,,1763.569,1763.5695,0,1,,1763.5699,1763.5702,0,0,,0,1763.5702,1763.5702,1763.5706,1765.0685,0,32,32,32,1,0.6,0.4,0.4,0.6,1,0,,,,,,,,,,,,,,,,,,,,,,,,,,,,,,,,,,,,
,,5fc4c49da0603a4d5feae548,66daf5926301aed538d7ecee,2024-09-06_14h31.03.428,mdp,2024.2.1,MacIntel,30.03003003,66d7945b1baad48e845df3ce,,,,,,,,,,,,,,,,,,,,,1765.0689,1765.0689,1765.07,1769.0708,1,0,right,3.4741,,1769.0828,1769.0832,0,0,,1769.0836,1769.0839,0,0,,1,1769.0839,1769.0839,1769.0842,1770.5703,0,33,33,33,1,0.6,0.4,0.4,0.6,1,0,,,,,,,,,,,,,,,,,,,,,,,,,,,,,,,,,,,,
,,5fc4c49da0603a4d5feae548,66daf5926301aed538d7ecee,2024-09-06_14h31.03.428,mdp,2024.2.1,MacIntel,30.03003003,66d7945b1baad48e845df3ce,,,,,,,,,,,,,,,,,,,,,1770.5706,1770.5706,1770.5714,1771.2362,1,1,right,0.1178,,1771.2373,1771.238,0,1,,1771.2385,1771.239,0,0,,0,1771.2391,1771.2391,1771.2395,1772.7375,0,34,34,34,1,0.8,0.2,0.2,0.8,1,0,,,,,,,,,,,,,,,,,,,,,,,,,,,,,,,,,,,,
,,5fc4c49da0603a4d5feae548,66daf5926301aed538d7ecee,2024-09-06_14h31.03.428,mdp,2024.2.1,MacIntel,30.03003003,66d7945b1baad48e845df3ce,,,,,,,,,,,,,,,,,,,,,1772.7378,1772.7378,1772.7387,1773.3043,1,0,right,0.0003,,1773.3055,1773.3063,0,1,,1773.3071,1773.3076,0,0,,1,1773.3076,1773.3077,1773.3081,1774.8036,0,35,35,35,1,0.4,0.6,0.6,0.4,1,0,,,,,,,,,,,,,,,,,,,,,,,,,,,,,,,,,,,,
,,5fc4c49da0603a4d5feae548,66daf5926301aed538d7ecee,2024-09-06_14h31.03.428,mdp,2024.2.1,MacIntel,30.03003003,66d7945b1baad48e845df3ce,,,,,,,,,,,,,,,,,,,,,1774.8039,1774.8039,1774.8047,1775.4376,1,1,right,0.0868,,1775.4385,1775.4394,0,1,,1775.44,1775.4403,0,0,,0,1775.4404,1775.4404,1775.4408,1776.938,0,36,36,36,1,0.4,0.6,0.6,0.4,1,0,,,,,,,,,,,,,,,,,,,,,,,,,,,,,,,,,,,,
