init_exp.started,init_exp.stopped,participant,session,date,expName,psychopyVersion,OS,frameRate,study_id,disp_instruction.started,disp_instruction.stopped,instruction.thisRepN,instruction.thisTrialN,instruction.thisN,instruction.thisIndex,instruction.ran,instimg_path,consent.started,consent.stopped,key_resp_3.keys,key_resp_3.rt,key_resp_3.duration,n_steps,sequence_path,init_block.started,init_block.stopped,key_resp.keys,key_resp.rt,key_resp.duration,init_trials.started,init_trials.stopped,step0.started,step0.stopped,act0,s1,res0.keys,res0.rt,res0.duration,step1.started,step1.stopped,act1,s2,res1.keys,step2.started,step2.stopped,act2,s3,res2.keys,rew,reward_comp.started,reward_comp.stopped,reward_disp.started,reward_disp.stopped,trials.thisRepN,trials.thisTrialN,trials.thisN,trials.thisIndex,trials.ran,s00a0s10,s00a0s11,s00a1s10,s00a1s11,rew10,rew11,break_block.started,break_block.stopped,block.thisRepN,block.thisTrialN,block.thisN,block.thisIndex,block.ran,s00path,s10path,s11path,s20path,s21path,res1.rt,res1.duration,s10a0s20,s10a0s21,s10a1s20,s10a1s21,s11a0s20,s11a0s21,s11a1s20,s11a1s21,rew20,rew21,res2.rt,res2.duration,s20a0s30,s20a0s31,s20a1s30,s20a1s31,s21a0s30,s21a0s31,s21a1s30,s21a1s31,rew30,rew31
0.0002,0.0019,6006ae13a40ec00348555219,66fcb728b5299936d1513433,2024-10-02_05h09.57.588,mdp,2024.2.1,Win32,60.24096386,66fa4ebf79326e780c390304,,,,,,,,,,,,,,,,,,,,,,,,,,,,,,,,,,,,,,,,,,,,,,,,,,,,,,,,,,,,,,,,,,,,,,,,,,,,,,,,,,,,,,,,,,,
,,6006ae13a40ec00348555219,66fcb728b5299936d1513433,2024-10-02_05h09.57.588,mdp,2024.2.1,Win32,60.24096386,66fa4ebf79326e780c390304,0.0068,145.8625,0,0,0,0,1,rlnn_exp/rlnn_exp.001.png,,,,,,,,,,,,,,,,,,,,,,,,,,,,,,,,,,,,,,,,,,,,,,,,,,,,,,,,,,,,,,,,,,,,,,,,,,,,,,,,,,,
,,6006ae13a40ec00348555219,66fcb728b5299936d1513433,2024-10-02_05h09.57.588,mdp,2024.2.1,Win32,60.24096386,66fa4ebf79326e780c390304,145.8647,291.5447,0,1,1,1,1,rlnn_exp/rlnn_exp.002.png,,,,,,,,,,,,,,,,,,,,,,,,,,,,,,,,,,,,,,,,,,,,,,,,,,,,,,,,,,,,,,,,,,,,,,,,,,,,,,,,,,,
,,6006ae13a40ec00348555219,66fcb728b5299936d1513433,2024-10-02_05h09.57.588,mdp,2024.2.1,Win32,60.24096386,66fa4ebf79326e780c390304,291.5456,337.6443,0,2,2,2,1,rlnn_exp/rlnn_exp.003.png,,,,,,,,,,,,,,,,,,,,,,,,,,,,,,,,,,,,,,,,,,,,,,,,,,,,,,,,,,,,,,,,,,,,,,,,,,,,,,,,,,,
,,6006ae13a40ec00348555219,66fcb728b5299936d1513433,2024-10-02_05h09.57.588,mdp,2024.2.1,Win32,60.24096386,66fa4ebf79326e780c390304,337.6449,379.0937,0,3,3,3,1,rlnn_exp/rlnn_exp.004.png,,,,,,,,,,,,,,,,,,,,,,,,,,,,,,,,,,,,,,,,,,,,,,,,,,,,,,,,,,,,,,,,,,,,,,,,,,,,,,,,,,,
,,6006ae13a40ec00348555219,66fcb728b5299936d1513433,2024-10-02_05h09.57.588,mdp,2024.2.1,Win32,60.24096386,66fa4ebf79326e780c390304,,,,,,,,,379.0941,409.3268,y,20.1683,,,,,,,,,,,,,,,,,,,,,,,,,,,,,,,,,,,,,,,,,,,,,,,,,,,,,,,,,,,,,,,,,,,,,,,,,,,,,,,
,,6006ae13a40ec00348555219,66fcb728b5299936d1513433,2024-10-02_05h09.57.588,mdp,2024.2.1,Win32,60.24096386,66fa4ebf79326e780c390304,,,,,,,,,,,,,,1,seqs/st1seq42.csv,409.3312,414.394,space,4.5343,,414.3975,414.3976,414.3979,415.4736,0,1,left,0.5271,,415.4741,415.4767,,1,,415.4771,415.4786,,1,,0,415.4787,415.4788,415.4792,416.9771,0,0,0,0,1,0.2,0.8,0.6,0.4,1,0,,,,,,,,,,,,,,,,,,,,,,,,,,,,,,,,,,,,
,,6006ae13a40ec00348555219,66fcb728b5299936d1513433,2024-10-02_05h09.57.588,mdp,2024.2.1,Win32,60.24096386,66fa4ebf79326e780c390304,,,,,,,,,,,,,,,,,,,,,416.9777,416.9777,416.9787,418.5935,1,0,right,1.0922,,418.5948,418.5957,,1,,418.5963,418.5969,,1,,1,418.597,418.597,418.5975,420.0932,0,1,1,1,1,0.8,0.2,0.4,0.6,1,0,,,,,,,,,,,,,,,,,,,,,,,,,,,,,,,,,,,,
,,6006ae13a40ec00348555219,66fcb728b5299936d1513433,2024-10-02_05h09.57.588,mdp,2024.2.1,Win32,60.24096386,66fa4ebf79326e780c390304,,,,,,,,,,,,,,,,,,,,,420.0939,420.0939,420.0954,421.4111,1,1,right,0.7838,,421.4122,421.413,,0,,421.4137,421.4143,,1,,0,421.4143,421.4143,421.4149,422.9105,0,2,2,2,1,0.8,0.2,0.4,0.6,1,0,,,,,,,,,,,,,,,,,,,,,,,,,,,,,,,,,,,,
,,6006ae13a40ec00348555219,66fcb728b5299936d1513433,2024-10-02_05h09.57.588,mdp,2024.2.1,Win32,60.24096386,66fa4ebf79326e780c390304,,,,,,,,,,,,,,,,,,,,,422.9109,422.9109,422.9122,424.1606,0,0,left,0.7234,,424.1618,424.1624,,1,,424.1631,424.1637,,0,,1,424.1638,424.1638,424.1643,425.6599,0,3,3,3,1,0.8,0.2,0.4,0.6,1,0,,,,,,,,,,,,,,,,,,,,,,,,,,,,,,,,,,,,
,,6006ae13a40ec00348555219,66fcb728b5299936d1513433,2024-10-02_05h09.57.588,mdp,2024.2.1,Win32,60.24096386,66fa4ebf79326e780c390304,,,,,,,,,,,,,,,,,,,,,425.6602,425.6602,425.6616,427.1438,1,0,right,0.972,,427.1448,427.1456,,0,,427.1462,427.1469,,0,,1,427.1469,427.1469,427.1475,428.6434,0,4,4,4,1,0.8,0.2,0.4,0.6,1,0,,,,,,,,,,,,,,,,,,,,,,,,,,,,,,,,,,,,
,,6006ae13a40ec00348555219,66fcb728b5299936d1513433,2024-10-02_05h09.57.588,mdp,2024.2.1,Win32,60.24096386,66fa4ebf79326e780c390304,,,,,,,,,,,,,,,,,,,,,428.6438,428.6438,428.6451,429.6938,0,1,left,0.527,,429.695,429.6956,,1,,429.6963,429.6969,,1,,0,429.6969,429.6969,429.6974,431.1936,0,5,5,5,1,0.2,0.8,0.6,0.4,1,0,,,,,,,,,,,,,,,,,,,,,,,,,,,,,,,,,,,,
,,6006ae13a40ec00348555219,66fcb728b5299936d1513433,2024-10-02_05h09.57.588,mdp,2024.2.1,Win32,60.24096386,66fa4ebf79326e780c390304,,,,,,,,,,,,,,,,,,,,,431.194,431.194,431.1953,432.1603,0,1,left,0.4374,,432.1616,432.1623,,1,,432.1631,432.164,,1,,0,432.164,432.164,432.1647,433.6604,0,6,6,6,1,0.2,0.8,0.6,0.4,1,0,,,,,,,,,,,,,,,,,,,,,,,,,,,,,,,,,,,,
,,6006ae13a40ec00348555219,66fcb728b5299936d1513433,2024-10-02_05h09.57.588,mdp,2024.2.1,Win32,60.24096386,66fa4ebf79326e780c390304,,,,,,,,,,,,,,,,,,,,,433.6608,433.6608,433.6621,434.6103,1,0,right,0.4209,,434.6114,434.6122,,0,,434.6129,434.6134,,0,,1,434.6135,434.6135,434.6141,436.1102,0,7,7,7,1,0.2,0.8,0.6,0.4,1,0,,,,,,,,,,,,,,,,,,,,,,,,,,,,,,,,,,,,
,,6006ae13a40ec00348555219,66fcb728b5299936d1513433,2024-10-02_05h09.57.588,mdp,2024.2.1,Win32,60.24096386,66fa4ebf79326e780c390304,,,,,,,,,,,,,,,,,,,,,436.1107,436.1107,436.1117,437.3436,1,1,right,0.7018,,437.3448,437.3454,,0,,437.3461,437.3467,,0,,0,437.3468,437.3468,437.3477,438.8436,0,8,8,8,1,0.2,0.8,0.6,0.4,1,0,,,,,,,,,,,,,,,,,,,,,,,,,,,,,,,,,,,,
,,6006ae13a40ec00348555219,66fcb728b5299936d1513433,2024-10-02_05h09.57.588,mdp,2024.2.1,Win32,60.24096386,66fa4ebf79326e780c390304,,,,,,,,,,,,,,,,,,,,,438.844,438.844,438.8454,439.8106,0,0,left,0.4337,,439.8116,439.8123,,0,,439.813,439.8136,,1,,1,439.8136,439.8136,439.8141,441.3107,0,9,9,9,1,0.2,0.8,0.6,0.4,1,0,,,,,,,,,,,,,,,,,,,,,,,,,,,,,,,,,,,,
,,6006ae13a40ec00348555219,66fcb728b5299936d1513433,2024-10-02_05h09.57.588,mdp,2024.2.1,Win32,60.24096386,66fa4ebf79326e780c390304,,,,,,,,,,,,,,,,,,,,,441.3112,441.3113,441.3121,442.1605,1,0,right,0.3174,,442.1617,442.1624,,0,,442.1631,442.1636,,0,,1,442.1637,442.1637,442.1642,443.6604,0,10,10,10,1,0.2,0.8,0.6,0.4,1,0,,,,,,,,,,,,,,,,,,,,,,,,,,,,,,,,,,,,
,,6006ae13a40ec00348555219,66fcb728b5299936d1513433,2024-10-02_05h09.57.588,mdp,2024.2.1,Win32,60.24096386,66fa4ebf79326e780c390304,,,,,,,,,,,,,,,,,,,,,443.6608,443.6608,443.6617,444.5109,0,0,left,0.3237,,444.5119,444.5125,,0,,444.5133,444.5138,,1,,1,444.5139,444.5139,444.5145,446.0102,0,11,11,11,1,0.2,0.8,0.6,0.4,1,0,,,,,,,,,,,,,,,,,,,,,,,,,,,,,,,,,,,,
,,6006ae13a40ec00348555219,66fcb728b5299936d1513433,2024-10-02_05h09.57.588,mdp,2024.2.1,Win32,60.24096386,66fa4ebf79326e780c390304,,,,,,,,,,,,,,,,,,,,,446.0107,446.0107,446.0117,446.8606,1,0,right,0.3197,,446.8618,446.8624,,0,,446.863,446.8636,,0,,1,446.8636,446.8636,446.8642,448.36,0,12,12,12,1,0.6,0.4,0.8,0.2,1,0,,,,,,,,,,,,,,,,,,,,,,,,,,,,,,,,,,,,
,,6006ae13a40ec00348555219,66fcb728b5299936d1513433,2024-10-02_05h09.57.588,mdp,2024.2.1,Win32,60.24096386,66fa4ebf79326e780c390304,,,,,,,,,,,,,,,,,,,,,448.3605,448.3605,448.3616,449.2934,0,0,left,0.4103,,449.2944,449.2951,,0,,449.2958,449.2963,,0,,1,449.2963,449.2963,449.2969,450.7935,0,13,13,13,1,0.6,0.4,0.8,0.2,1,0,,,,,,,,,,,,,,,,,,,,,,,,,,,,,,,,,,,,
,,6006ae13a40ec00348555219,66fcb728b5299936d1513433,2024-10-02_05h09.57.588,mdp,2024.2.1,Win32,60.24096386,66fa4ebf79326e780c390304,,,,,,,,,,,,,,,,,,,,,450.7939,450.7939,450.795,451.4271,1,0,right,0.1004,,451.4283,451.4289,,0,,451.4295,451.43,,1,,1,451.4301,451.4301,451.4306,452.9268,0,14,14,14,1,0.6,0.4,0.8,0.2,1,0,,,,,,,,,,,,,,,,,,,,,,,,,,,,,,,,,,,,
,,6006ae13a40ec00348555219,66fcb728b5299936d1513433,2024-10-02_05h09.57.588,mdp,2024.2.1,Win32,60.24096386,66fa4ebf79326e780c390304,,,,,,,,,,,,,,,,,,,,,452.9272,452.9272,452.9282,453.6105,0,0,left,0.1544,,453.6116,453.6122,,1,,453.6128,453.6134,,0,,1,453.6134,453.6135,453.6145,455.1103,0,15,15,15,1,0.8,0.2,0.6,0.4,1,0,,,,,,,,,,,,,,,,,,,,,,,,,,,,,,,,,,,,
,,6006ae13a40ec00348555219,66fcb728b5299936d1513433,2024-10-02_05h09.57.588,mdp,2024.2.1,Win32,60.24096386,66fa4ebf79326e780c390304,,,,,,,,,,,,,,,,,,,,,455.1107,455.1107,455.1118,455.8435,1,1,right,0.2027,,455.8448,455.8454,,0,,455.8461,455.8466,,1,,0,455.8466,455.8466,455.8471,457.3435,0,16,16,16,1,0.8,0.2,0.6,0.4,1,0,,,,,,,,,,,,,,,,,,,,,,,,,,,,,,,,,,,,
,,6006ae13a40ec00348555219,66fcb728b5299936d1513433,2024-10-02_05h09.57.588,mdp,2024.2.1,Win32,60.24096386,66fa4ebf79326e780c390304,,,,,,,,,,,,,,,,,,,,,457.3438,457.3439,457.3449,457.9933,1,1,right,0.1253,,457.9945,457.9952,,0,,457.9958,457.9964,,0,,0,457.9965,457.9965,457.9973,459.493,0,17,17,17,1,0.8,0.2,0.6,0.4,1,0,,,,,,,,,,,,,,,,,,,,,,,,,,,,,,,,,,,,
,,6006ae13a40ec00348555219,66fcb728b5299936d1513433,2024-10-02_05h09.57.588,mdp,2024.2.1,Win32,60.24096386,66fa4ebf79326e780c390304,,,,,,,,,,,,,,,,,,,,,459.4934,459.4934,459.4944,460.3099,0,0,left,0.2937,,460.3116,460.3122,,0,,460.313,460.3137,,0,,1,460.3137,460.3137,460.3147,461.8099,0,18,18,18,1,0.8,0.2,0.6,0.4,1,0,,,,,,,,,,,,,,,,,,,,,,,,,,,,,,,,,,,,
,,6006ae13a40ec00348555219,66fcb728b5299936d1513433,2024-10-02_05h09.57.588,mdp,2024.2.1,Win32,60.24096386,66fa4ebf79326e780c390304,,,,,,,,,,,,,,,,,,,,,461.8102,461.8102,461.8112,462.7103,1,0,right,0.3758,,462.7114,462.712,,1,,462.7127,462.7135,,0,,1,462.7135,462.7135,462.714,464.2098,0,19,19,19,1,0.8,0.2,0.6,0.4,1,0,,,,,,,,,,,,,,,,,,,,,,,,,,,,,,,,,,,,
,,6006ae13a40ec00348555219,66fcb728b5299936d1513433,2024-10-02_05h09.57.588,mdp,2024.2.1,Win32,60.24096386,66fa4ebf79326e780c390304,,,,,,,,,,,,,,,,,,,,,464.2101,464.2101,464.2112,464.8769,0,1,left,0.136,,464.8779,464.8787,,1,,464.8794,464.8799,,1,,0,464.88,464.88,464.8805,466.3765,0,20,20,20,1,0.6,0.4,0.4,0.6,1,0,,,,,,,,,,,,,,,,,,,,,,,,,,,,,,,,,,,,
,,6006ae13a40ec00348555219,66fcb728b5299936d1513433,2024-10-02_05h09.57.588,mdp,2024.2.1,Win32,60.24096386,66fa4ebf79326e780c390304,,,,,,,,,,,,,,,,,,,,,466.3769,466.3769,466.3778,467.0101,0,1,left,0.109,,467.0112,467.0118,,0,,467.0124,467.0131,,0,,0,467.0131,467.0131,467.0137,468.5102,0,21,21,21,1,0.6,0.4,0.4,0.6,1,0,,,,,,,,,,,,,,,,,,,,,,,,,,,,,,,,,,,,
,,6006ae13a40ec00348555219,66fcb728b5299936d1513433,2024-10-02_05h09.57.588,mdp,2024.2.1,Win32,60.24096386,66fa4ebf79326e780c390304,,,,,,,,,,,,,,,,,,,,,468.5105,468.5105,468.5115,469.4606,0,0,left,0.4207,,469.4616,469.4623,,0,,469.4629,469.4634,,0,,1,469.4634,469.4634,469.464,470.96,0,22,22,22,1,0.6,0.4,0.4,0.6,1,0,,,,,,,,,,,,,,,,,,,,,,,,,,,,,,,,,,,,
,,6006ae13a40ec00348555219,66fcb728b5299936d1513433,2024-10-02_05h09.57.588,mdp,2024.2.1,Win32,60.24096386,66fa4ebf79326e780c390304,,,,,,,,,,,,,,,,,,,,,470.9603,470.9603,470.9614,471.6772,1,1,right,0.1857,,471.6782,471.6788,,1,,471.6794,471.68,,1,,0,471.68,471.68,471.6805,473.1767,0,23,23,23,1,0.6,0.4,0.4,0.6,1,0,,,,,,,,,,,,,,,,,,,,,,,,,,,,,,,,,,,,
,,6006ae13a40ec00348555219,66fcb728b5299936d1513433,2024-10-02_05h09.57.588,mdp,2024.2.1,Win32,60.24096386,66fa4ebf79326e780c390304,,,,,,,,,,,,,,,,,,,,,473.1771,473.1771,473.178,473.9445,1,1,right,0.2342,,473.9452,473.9458,,0,,473.9466,473.9472,,1,,0,473.9472,473.9473,473.948,475.443,0,24,24,24,1,0.2,0.8,0.6,0.4,1,0,,,,,,,,,,,,,,,,,,,,,,,,,,,,,,,,,,,,
,,6006ae13a40ec00348555219,66fcb728b5299936d1513433,2024-10-02_05h09.57.588,mdp,2024.2.1,Win32,60.24096386,66fa4ebf79326e780c390304,,,,,,,,,,,,,,,,,,,,,475.4433,475.4433,475.4443,476.1769,1,0,right,0.204,,476.1778,476.1784,,0,,476.1791,476.1796,,1,,1,476.1797,476.1797,476.1802,477.6767,0,25,25,25,1,0.2,0.8,0.6,0.4,1,0,,,,,,,,,,,,,,,,,,,,,,,,,,,,,,,,,,,,
,,6006ae13a40ec00348555219,66fcb728b5299936d1513433,2024-10-02_05h09.57.588,mdp,2024.2.1,Win32,60.24096386,66fa4ebf79326e780c390304,,,,,,,,,,,,,,,,,,,,,477.6771,477.6771,477.678,478.4943,0,0,left,0.2976,,478.4952,478.4958,,1,,478.4965,478.4972,,1,,1,478.4972,478.4972,478.4978,479.9929,0,26,26,26,1,0.2,0.8,0.6,0.4,1,0,,,,,,,,,,,,,,,,,,,,,,,,,,,,,,,,,,,,
,,6006ae13a40ec00348555219,66fcb728b5299936d1513433,2024-10-02_05h09.57.588,mdp,2024.2.1,Win32,60.24096386,66fa4ebf79326e780c390304,,,,,,,,,,,,,,,,,,,,,479.9932,479.9932,479.9942,480.7933,0,1,left,0.2685,,480.7944,480.7952,,1,,480.7959,480.7966,,0,,0,480.7966,480.7966,480.7973,482.2929,0,27,27,27,1,0.2,0.8,0.6,0.4,1,0,,,,,,,,,,,,,,,,,,,,,,,,,,,,,,,,,,,,
,,6006ae13a40ec00348555219,66fcb728b5299936d1513433,2024-10-02_05h09.57.588,mdp,2024.2.1,Win32,60.24096386,66fa4ebf79326e780c390304,,,,,,,,,,,,,,,,,,,,,482.2933,482.2933,482.2943,482.9265,1,0,right,0.11,,482.9275,482.9282,,0,,482.9289,482.9294,,0,,1,482.9294,482.9294,482.93,484.4264,0,28,28,28,1,0.2,0.8,0.6,0.4,1,0,,,,,,,,,,,,,,,,,,,,,,,,,,,,,,,,,,,,
,,6006ae13a40ec00348555219,66fcb728b5299936d1513433,2024-10-02_05h09.57.588,mdp,2024.2.1,Win32,60.24096386,66fa4ebf79326e780c390304,,,,,,,,,,,,,,,,,,,,,484.4267,484.4268,484.4278,485.027,0,1,left,0.0869,,485.0281,485.0286,,1,,485.0295,485.03,,1,,0,485.03,485.03,485.0305,486.5264,0,29,29,29,1,0.2,0.8,0.6,0.4,1,0,,,,,,,,,,,,,,,,,,,,,,,,,,,,,,,,,,,,
,,6006ae13a40ec00348555219,66fcb728b5299936d1513433,2024-10-02_05h09.57.588,mdp,2024.2.1,Win32,60.24096386,66fa4ebf79326e780c390304,,,,,,,,,,,,,,,,,,,,,486.5266,486.5266,486.5276,487.1274,0,1,left,0.0807,,487.1284,487.129,,0,,487.1296,487.1301,,1,,0,487.1301,487.1301,487.1307,488.6269,0,30,30,30,1,0.6,0.4,0.4,0.6,1,0,,,,,,,,,,,,,,,,,,,,,,,,,,,,,,,,,,,,
,,6006ae13a40ec00348555219,66fcb728b5299936d1513433,2024-10-02_05h09.57.588,mdp,2024.2.1,Win32,60.24096386,66fa4ebf79326e780c390304,,,,,,,,,,,,,,,,,,,,,488.6273,488.6273,488.6283,489.2932,0,0,left,0.138,,489.2941,489.2948,,1,,489.2954,489.2959,,1,,1,489.2959,489.2959,489.2968,490.7932,0,31,31,31,1,0.6,0.4,0.4,0.6,1,0,,,,,,,,,,,,,,,,,,,,,,,,,,,,,,,,,,,,
,,6006ae13a40ec00348555219,66fcb728b5299936d1513433,2024-10-02_05h09.57.588,mdp,2024.2.1,Win32,60.24096386,66fa4ebf79326e780c390304,,,,,,,,,,,,,,,,,,,,,490.7936,490.7936,490.7946,491.4597,0,1,left,0.1444,,491.4608,491.4614,,1,,491.462,491.4626,,0,,0,491.4626,491.4626,491.4631,492.9598,0,32,32,32,1,0.6,0.4,0.4,0.6,1,0,,,,,,,,,,,,,,,,,,,,,,,,,,,,,,,,,,,,
,,6006ae13a40ec00348555219,66fcb728b5299936d1513433,2024-10-02_05h09.57.588,mdp,2024.2.1,Win32,60.24096386,66fa4ebf79326e780c390304,,,,,,,,,,,,,,,,,,,,,492.9603,492.9603,492.9613,493.7269,1,0,right,0.2343,,493.728,493.7287,,1,,493.7292,493.7297,,0,,1,493.7297,493.7297,493.7303,495.2262,0,33,33,33,1,0.6,0.4,0.4,0.6,1,0,,,,,,,,,,,,,,,,,,,,,,,,,,,,,,,,,,,,
,,6006ae13a40ec00348555219,66fcb728b5299936d1513433,2024-10-02_05h09.57.588,mdp,2024.2.1,Win32,60.24096386,66fa4ebf79326e780c390304,,,,,,,,,,,,,,,,,,,,,495.2266,495.2267,495.2277,496.0109,0,0,left,0.2583,,496.0121,496.0128,,1,,496.0138,496.0144,,0,,1,496.0144,496.0144,496.0152,497.5104,0,34,34,34,1,0.6,0.4,0.4,0.6,1,0,,,,,,,,,,,,,,,,,,,,,,,,,,,,,,,,,,,,
,,6006ae13a40ec00348555219,66fcb728b5299936d1513433,2024-10-02_05h09.57.588,mdp,2024.2.1,Win32,60.24096386,66fa4ebf79326e780c390304,,,,,,,,,,,,,,,,,,,,,497.5109,497.5109,497.5118,498.1264,1,0,right,0.0921,,498.1274,498.128,,1,,498.1286,498.1292,,1,,1,498.1292,498.1292,498.1298,499.6265,0,35,35,35,1,0.6,0.4,0.4,0.6,1,0,,,,,,,,,,,,,,,,,,,,,,,,,,,,,,,,,,,,
,,6006ae13a40ec00348555219,66fcb728b5299936d1513433,2024-10-02_05h09.57.588,mdp,2024.2.1,Win32,60.24096386,66fa4ebf79326e780c390304,,,,,,,,,,,,,,,,,,,,,499.6269,499.6269,499.6279,500.2611,0,0,left,0.1145,,500.2621,500.2626,,0,,500.2634,500.264,,1,,1,500.2641,500.2641,500.2646,501.7597,0,36,36,36,1,0.6,0.4,0.4,0.6,1,0,,,,,,,,,,,,,,,,,,,,,,,,,,,,,,,,,,,,
,,6006ae13a40ec00348555219,66fcb728b5299936d1513433,2024-10-02_05h09.57.588,mdp,2024.2.1,Win32,60.24096386,66fa4ebf79326e780c390304,,,,,,,,,,,,,,,,,,,,,501.7603,501.7603,501.7613,502.4432,1,1,right,0.1506,,502.4443,502.4451,,1,,502.4456,502.4463,,1,,0,502.4464,502.4464,502.4469,503.9436,0,37,37,37,1,0.6,0.4,0.4,0.6,1,0,,,,,,,,,,,,,,,,,,,,,,,,,,,,,,,,,,,,
,,6006ae13a40ec00348555219,66fcb728b5299936d1513433,2024-10-02_05h09.57.588,mdp,2024.2.1,Win32,60.24096386,66fa4ebf79326e780c390304,,,,,,,,,,,,,,,,,,,,,503.944,503.944,503.945,504.593,0,0,left,0.1265,,504.594,504.5947,,0,,504.5953,504.5957,,0,,1,504.5958,504.5958,504.5963,506.0931,0,38,38,38,1,0.6,0.4,0.4,0.6,1,0,,,,,,,,,,,,,,,,,,,,,,,,,,,,,,,,,,,,
,,6006ae13a40ec00348555219,66fcb728b5299936d1513433,2024-10-02_05h09.57.588,mdp,2024.2.1,Win32,60.24096386,66fa4ebf79326e780c390304,,,,,,,,,,,,,,,,,,,,,506.0935,506.0935,506.0945,506.7599,1,0,right,0.1415,,506.7611,506.7618,,0,,506.7625,506.7631,,1,,1,506.7631,506.7631,506.7637,508.2599,0,39,39,39,1,0.6,0.4,0.4,0.6,1,0,,,,,,,,,,,,,,,,,,,,,,,,,,,,,,,,,,,,
,,6006ae13a40ec00348555219,66fcb728b5299936d1513433,2024-10-02_05h09.57.588,mdp,2024.2.1,Win32,60.24096386,66fa4ebf79326e780c390304,,,,,,,,,,,,,,,,,,,,,508.2603,508.2603,508.2626,508.8763,0,1,left,0.0918,,508.8772,508.878,,1,,508.8786,508.8792,,1,,0,508.8792,508.8793,508.8797,510.3763,0,40,40,40,1,0.4,0.6,0.8,0.2,1,0,,,,,,,,,,,,,,,,,,,,,,,,,,,,,,,,,,,,
,,6006ae13a40ec00348555219,66fcb728b5299936d1513433,2024-10-02_05h09.57.588,mdp,2024.2.1,Win32,60.24096386,66fa4ebf79326e780c390304,,,,,,,,,,,,,,,,,,,,,510.3767,510.3767,510.3777,510.9932,1,1,right,0.0837,,510.9943,510.9951,,0,,510.9957,510.9961,,1,,0,510.9961,510.9961,510.9966,512.4931,0,41,41,41,1,0.6,0.4,0.4,0.6,1,0,,,,,,,,,,,,,,,,,,,,,,,,,,,,,,,,,,,,
,,6006ae13a40ec00348555219,66fcb728b5299936d1513433,2024-10-02_05h09.57.588,mdp,2024.2.1,Win32,60.24096386,66fa4ebf79326e780c390304,,,,,,,,,,,,,,,,,,,,,512.4934,512.4934,512.4944,513.1266,0,0,left,0.1003,,513.1277,513.1283,,0,,513.1288,513.1293,,0,,1,513.1293,513.1293,513.1301,514.6263,0,42,42,42,1,0.8,0.2,0.8,0.2,1,0,,,,,,,,,,,,,,,,,,,,,,,,,,,,,,,,,,,,
,,6006ae13a40ec00348555219,66fcb728b5299936d1513433,2024-10-02_05h09.57.588,mdp,2024.2.1,Win32,60.24096386,66fa4ebf79326e780c390304,,,,,,,,,,,,,,,,,,,,,514.6267,514.6267,514.6276,515.2599,0,0,left,0.1005,,515.2609,515.2615,,0,,515.2621,515.2626,,0,,1,515.2627,515.2627,515.2631,516.7597,0,43,43,43,1,0.8,0.2,0.8,0.2,1,0,,,,,,,,,,,,,,,,,,,,,,,,,,,,,,,,,,,,
,,6006ae13a40ec00348555219,66fcb728b5299936d1513433,2024-10-02_05h09.57.588,mdp,2024.2.1,Win32,60.24096386,66fa4ebf79326e780c390304,,,,,,,,,,,,,,,,,,,,,516.7601,516.7601,516.7611,517.4266,1,0,right,0.135,,517.4277,517.4283,,1,,517.4289,517.4295,,0,,1,517.4295,517.4295,517.4301,518.9264,0,44,44,44,1,0.2,0.8,0.6,0.4,1,0,,,,,,,,,,,,,,,,,,,,,,,,,,,,,,,,,,,,
,,6006ae13a40ec00348555219,66fcb728b5299936d1513433,2024-10-02_05h09.57.588,mdp,2024.2.1,Win32,60.24096386,66fa4ebf79326e780c390304,,,,,,,,,,,,,,,,,,,,,518.9268,518.9268,518.9278,519.6266,0,1,left,0.1674,,519.6276,519.6282,,1,,519.6288,519.6293,,1,,0,519.6293,519.6293,519.6299,521.1265,0,45,45,45,1,0.2,0.8,0.6,0.4,1,0,,,,,,,,,,,,,,,,,,,,,,,,,,,,,,,,,,,,
,,6006ae13a40ec00348555219,66fcb728b5299936d1513433,2024-10-02_05h09.57.588,mdp,2024.2.1,Win32,60.24096386,66fa4ebf79326e780c390304,,,,,,,,,,,,,,,,,,,,,521.1269,521.1269,521.1281,521.793,0,1,left,0.1373,,521.7941,521.7947,,1,,521.7952,521.7957,,1,,0,521.7957,521.7957,521.7963,523.2928,0,46,46,46,1,0.2,0.8,0.6,0.4,1,0,,,,,,,,,,,,,,,,,,,,,,,,,,,,,,,,,,,,
,,6006ae13a40ec00348555219,66fcb728b5299936d1513433,2024-10-02_05h09.57.588,mdp,2024.2.1,Win32,60.24096386,66fa4ebf79326e780c390304,,,,,,,,,,,,,,,,,,,,,523.2932,523.2933,523.2941,523.9432,0,1,left,0.1173,,523.9442,523.9447,,0,,523.9453,523.9458,,0,,0,523.9458,523.9458,523.9462,525.443,0,47,47,47,1,0.2,0.8,0.6,0.4,1,0,,,,,,,,,,,,,,,,,,,,,,,,,,,,,,,,,,,,
,,6006ae13a40ec00348555219,66fcb728b5299936d1513433,2024-10-02_05h09.57.588,mdp,2024.2.1,Win32,60.24096386,66fa4ebf79326e780c390304,,,,,,,,,,,,,,,,,,,,,525.4433,525.4433,525.4443,526.0595,0,1,left,0.0861,,526.0606,526.0612,,1,,526.062,526.0626,,0,,0,526.0626,526.0626,526.0631,527.5594,0,48,48,48,1,0.2,0.8,0.6,0.4,1,0,,,,,,,,,,,,,,,,,,,,,,,,,,,,,,,,,,,,
,,6006ae13a40ec00348555219,66fcb728b5299936d1513433,2024-10-02_05h09.57.588,mdp,2024.2.1,Win32,60.24096386,66fa4ebf79326e780c390304,,,,,,,,,,,,,,,,,,,,,527.5597,527.5598,527.5607,528.3766,0,0,left,0.2848,,528.3776,528.3783,,0,,528.3789,528.3794,,0,,1,528.3794,528.3794,528.3799,529.8762,0,49,49,49,1,0.8,0.2,0.4,0.6,1,0,,,,,,,,,,,,,,,,,,,,,,,,,,,,,,,,,,,,
,,6006ae13a40ec00348555219,66fcb728b5299936d1513433,2024-10-02_05h09.57.588,mdp,2024.2.1,Win32,60.24096386,66fa4ebf79326e780c390304,,,,,,,,,,,,,,,,,,,,,,,,,,,,,,,,,,,,,,,,,,,,,,,,,,,,,,,,529.8766,588.3943,0,0,0,7,1,imgs/kangaroo.png,imgs/lion.png,imgs/giraffe.png,imgs/pig.png,imgs/rabbit.png,,,,,,,,,,,,,,,,,,,,,,,,
,,6006ae13a40ec00348555219,66fcb728b5299936d1513433,2024-10-02_05h09.57.588,mdp,2024.2.1,Win32,60.24096386,66fa4ebf79326e780c390304,,,,,,,,,,,,,,2,seqs/st2seq31.csv,588.3954,592.2763,space,3.3629,,592.2809,592.2809,592.282,593.3093,1,0,right,0.5021,,593.3103,595.2092,1,0,right,595.2103,595.2111,,0,,1,595.2111,595.2111,595.2119,596.7093,0,0,0,0,1,0.4,0.6,0.8,0.2,,,,,,,,,,,,,,,1.3653,,0.8,0.2,0.4,0.6,0.8,0.2,0.4,0.6,1,0,,,,,,,,,,,,
,,6006ae13a40ec00348555219,66fcb728b5299936d1513433,2024-10-02_05h09.57.588,mdp,2024.2.1,Win32,60.24096386,66fa4ebf79326e780c390304,,,,,,,,,,,,,,,,,,,,,596.7097,596.7097,596.7107,599.4594,1,0,right,2.2199,,599.4603,601.1592,1,0,right,601.1603,601.1612,,1,,1,601.1612,601.1612,601.1619,602.6589,0,1,1,1,1,0.4,0.6,0.8,0.2,,,,,,,,,,,,,,,1.1672,,0.8,0.2,0.4,0.6,0.8,0.2,0.4,0.6,1,0,,,,,,,,,,,,
,,6006ae13a40ec00348555219,66fcb728b5299936d1513433,2024-10-02_05h09.57.588,mdp,2024.2.1,Win32,60.24096386,66fa4ebf79326e780c390304,,,,,,,,,,,,,,,,,,,,,602.6596,602.6596,602.6607,604.2593,0,1,left,1.0677,,604.2604,605.7427,0,0,left,605.7437,605.7445,,0,,1,605.7445,605.7445,605.7451,607.2423,0,2,2,2,1,0.4,0.6,0.8,0.2,,,,,,,,,,,,,,,0.9426,,0.8,0.2,0.4,0.6,0.8,0.2,0.4,0.6,1,0,,,,,,,,,,,,
,,6006ae13a40ec00348555219,66fcb728b5299936d1513433,2024-10-02_05h09.57.588,mdp,2024.2.1,Win32,60.24096386,66fa4ebf79326e780c390304,,,,,,,,,,,,,,,,,,,,,607.2426,607.2426,607.2435,608.4257,0,0,left,0.6524,,608.4269,609.8593,0,0,left,609.8603,609.8611,,0,,1,609.8611,609.8611,609.8618,611.3588,0,3,3,3,1,0.4,0.6,0.8,0.2,,,,,,,,,,,,,,,0.8955,,0.8,0.2,0.4,0.6,0.8,0.2,0.4,0.6,1,0,,,,,,,,,,,,
,,6006ae13a40ec00348555219,66fcb728b5299936d1513433,2024-10-02_05h09.57.588,mdp,2024.2.1,Win32,60.24096386,66fa4ebf79326e780c390304,,,,,,,,,,,,,,,,,,,,,611.3594,611.3594,611.3604,612.4756,1,0,right,0.5838,,612.4769,613.8934,1,1,right,613.8944,613.8951,,1,,0,613.8951,613.8951,613.8959,615.3921,0,4,4,4,1,0.4,0.6,0.8,0.2,,,,,,,,,,,,,,,0.8962,,0.8,0.2,0.4,0.6,0.8,0.2,0.4,0.6,1,0,,,,,,,,,,,,
,,6006ae13a40ec00348555219,66fcb728b5299936d1513433,2024-10-02_05h09.57.588,mdp,2024.2.1,Win32,60.24096386,66fa4ebf79326e780c390304,,,,,,,,,,,,,,,,,,,,,615.3926,615.3926,615.3935,616.7427,0,0,left,0.8251,,616.7436,618.3588,0,0,left,618.36,618.3608,,1,,1,618.3608,618.3608,618.3616,619.8587,0,5,5,5,1,0.4,0.6,0.8,0.2,,,,,,,,,,,,,,,1.0881,,0.6,0.4,0.8,0.2,0.8,0.2,0.4,0.6,1,0,,,,,,,,,,,,
,,6006ae13a40ec00348555219,66fcb728b5299936d1513433,2024-10-02_05h09.57.588,mdp,2024.2.1,Win32,60.24096386,66fa4ebf79326e780c390304,,,,,,,,,,,,,,,,,,,,,619.8594,619.8595,619.8609,621.2591,0,1,left,0.8727,,621.2602,622.6926,0,0,left,622.6936,622.6942,,0,,1,622.6943,622.6943,622.6949,624.1921,0,6,6,6,1,0.4,0.6,0.8,0.2,,,,,,,,,,,,,,,0.8963,,0.6,0.4,0.8,0.2,0.8,0.2,0.4,0.6,1,0,,,,,,,,,,,,
,,6006ae13a40ec00348555219,66fcb728b5299936d1513433,2024-10-02_05h09.57.588,mdp,2024.2.1,Win32,60.24096386,66fa4ebf79326e780c390304,,,,,,,,,,,,,,,,,,,,,624.1928,624.1928,624.1937,625.3092,0,1,left,0.5841,,625.3106,626.9258,0,0,left,626.9268,626.9276,,0,,1,626.9276,626.9277,626.9284,628.425,0,7,7,7,1,0.4,0.6,0.8,0.2,,,,,,,,,,,,,,,1.0855,,0.6,0.4,0.8,0.2,0.8,0.2,0.4,0.6,1,0,,,,,,,,,,,,
,,6006ae13a40ec00348555219,66fcb728b5299936d1513433,2024-10-02_05h09.57.588,mdp,2024.2.1,Win32,60.24096386,66fa4ebf79326e780c390304,,,,,,,,,,,,,,,,,,,,,628.4259,628.4259,628.4272,629.4757,0,0,left,0.5212,,629.4767,631.009,0,1,left,631.0099,631.0106,,0,,0,631.0106,631.0107,631.0114,632.5084,0,8,8,8,1,0.4,0.6,0.8,0.2,,,,,,,,,,,,,,,0.9855,,0.6,0.4,0.8,0.2,0.8,0.2,0.4,0.6,1,0,,,,,,,,,,,,
,,6006ae13a40ec00348555219,66fcb728b5299936d1513433,2024-10-02_05h09.57.588,mdp,2024.2.1,Win32,60.24096386,66fa4ebf79326e780c390304,,,,,,,,,,,,,,,,,,,,,632.5091,632.5091,632.5101,633.5257,0,1,left,0.4888,,633.5267,635.0255,0,0,left,635.0268,635.0274,,0,,1,635.0275,635.0275,635.0281,636.5251,0,9,9,9,1,0.4,0.6,0.8,0.2,,,,,,,,,,,,,,,0.9709,,0.6,0.4,0.8,0.2,0.8,0.2,0.4,0.6,1,0,,,,,,,,,,,,
,,6006ae13a40ec00348555219,66fcb728b5299936d1513433,2024-10-02_05h09.57.588,mdp,2024.2.1,Win32,60.24096386,66fa4ebf79326e780c390304,,,,,,,,,,,,,,,,,,,,,636.5257,636.5257,636.5267,637.7424,0,1,left,0.6883,,637.7434,639.2591,0,0,left,639.26,639.2606,,1,,1,639.2606,639.2606,639.2613,640.7583,0,10,10,10,1,0.4,0.6,0.8,0.2,,,,,,,,,,,,,,,0.9898,,0.6,0.4,0.8,0.2,0.8,0.2,0.4,0.6,1,0,,,,,,,,,,,,
,,6006ae13a40ec00348555219,66fcb728b5299936d1513433,2024-10-02_05h09.57.588,mdp,2024.2.1,Win32,60.24096386,66fa4ebf79326e780c390304,,,,,,,,,,,,,,,,,,,,,640.759,640.759,640.7604,642.059,0,0,left,0.7725,,642.0601,643.3588,0,0,left,643.36,643.3609,,1,,1,643.3609,643.3609,643.3616,644.8582,0,11,11,11,1,0.4,0.6,0.8,0.2,,,,,,,,,,,,,,,0.7538,,0.6,0.4,0.8,0.2,0.8,0.2,0.4,0.6,1,0,,,,,,,,,,,,
,,6006ae13a40ec00348555219,66fcb728b5299936d1513433,2024-10-02_05h09.57.588,mdp,2024.2.1,Win32,60.24096386,66fa4ebf79326e780c390304,,,,,,,,,,,,,,,,,,,,,644.8592,644.8592,644.8602,645.7759,0,1,left,0.3916,,645.7772,647.1591,0,0,left,647.1601,647.1609,,0,,1,647.1609,647.1609,647.1615,648.6585,0,12,12,12,1,0.4,0.6,0.8,0.2,,,,,,,,,,,,,,,0.8243,,0.6,0.4,0.8,0.2,0.8,0.2,0.4,0.6,1,0,,,,,,,,,,,,
,,6006ae13a40ec00348555219,66fcb728b5299936d1513433,2024-10-02_05h09.57.588,mdp,2024.2.1,Win32,60.24096386,66fa4ebf79326e780c390304,,,,,,,,,,,,,,,,,,,,,648.6593,648.6593,648.6605,649.5422,0,0,left,0.3508,,649.5433,650.7754,0,0,left,650.7765,650.7775,,0,,1,650.7775,650.7775,650.7782,652.2749,0,13,13,13,1,0.4,0.6,0.8,0.2,,,,,,,,,,,,,,,0.7059,,0.6,0.4,0.8,0.2,0.4,0.6,0.2,0.8,1,0,,,,,,,,,,,,
,,6006ae13a40ec00348555219,66fcb728b5299936d1513433,2024-10-02_05h09.57.588,mdp,2024.2.1,Win32,60.24096386,66fa4ebf79326e780c390304,,,,,,,,,,,,,,,,,,,,,652.2755,652.2755,652.2767,653.0753,0,0,left,0.2706,,653.0763,654.3425,0,0,left,654.3435,654.3441,,1,,1,654.3441,654.3441,654.3449,655.8414,0,14,14,14,1,0.4,0.6,0.8,0.2,,,,,,,,,,,,,,,0.7344,,0.6,0.4,0.8,0.2,0.4,0.6,0.2,0.8,1,0,,,,,,,,,,,,
,,6006ae13a40ec00348555219,66fcb728b5299936d1513433,2024-10-02_05h09.57.588,mdp,2024.2.1,Win32,60.24096386,66fa4ebf79326e780c390304,,,,,,,,,,,,,,,,,,,,,655.8424,655.8424,655.8434,656.6922,0,1,left,0.3379,,656.6934,657.7252,0,0,left,657.7264,657.7271,,1,,1,657.7271,657.7272,657.7278,659.2248,0,15,15,15,1,0.4,0.6,0.8,0.2,,,,,,,,,,,,,,,0.5013,,0.6,0.4,0.8,0.2,0.4,0.6,0.2,0.8,1,0,,,,,,,,,,,,
,,6006ae13a40ec00348555219,66fcb728b5299936d1513433,2024-10-02_05h09.57.588,mdp,2024.2.1,Win32,60.24096386,66fa4ebf79326e780c390304,,,,,,,,,,,,,,,,,,,,,659.2255,659.2255,659.2266,660.7423,0,1,left,0.9934,,660.7433,661.7752,0,1,left,661.7767,661.7775,,1,,0,661.7776,661.7776,661.7782,663.2749,0,16,16,16,1,0.4,0.6,0.8,0.2,,,,,,,,,,,,,,,0.5068,,0.6,0.4,0.8,0.2,0.4,0.6,0.2,0.8,1,0,,,,,,,,,,,,
,,6006ae13a40ec00348555219,66fcb728b5299936d1513433,2024-10-02_05h09.57.588,mdp,2024.2.1,Win32,60.24096386,66fa4ebf79326e780c390304,,,,,,,,,,,,,,,,,,,,,663.2758,663.2759,663.2769,664.3594,0,1,left,0.5621,,664.3604,665.3252,0,0,left,665.3263,665.3271,,0,,1,665.3272,665.3272,665.328,666.8247,0,17,17,17,1,0.4,0.6,0.8,0.2,,,,,,,,,,,,,,,0.4368,,0.8,0.2,0.2,0.8,0.4,0.6,0.2,0.8,1,0,,,,,,,,,,,,
,,6006ae13a40ec00348555219,66fcb728b5299936d1513433,2024-10-02_05h09.57.588,mdp,2024.2.1,Win32,60.24096386,66fa4ebf79326e780c390304,,,,,,,,,,,,,,,,,,,,,666.8256,666.8256,666.8267,667.7089,0,0,left,0.3513,,667.7099,668.6589,0,1,left,668.66,668.6607,,1,,0,668.6608,668.6608,668.6614,670.1579,0,18,18,18,1,0.4,0.6,0.8,0.2,,,,,,,,,,,,,,,0.4188,,0.8,0.2,0.2,0.8,0.4,0.6,0.2,0.8,1,0,,,,,,,,,,,,
,,6006ae13a40ec00348555219,66fcb728b5299936d1513433,2024-10-02_05h09.57.588,mdp,2024.2.1,Win32,60.24096386,66fa4ebf79326e780c390304,,,,,,,,,,,,,,,,,,,,,670.1588,670.1588,670.1598,670.8087,0,1,left,0.1182,,670.8098,671.7928,0,0,left,671.7939,671.7946,,1,,1,671.7946,671.7946,671.7953,673.2913,0,19,19,19,1,0.4,0.6,0.8,0.2,,,,,,,,,,,,,,,0.4587,,0.8,0.2,0.2,0.8,0.4,0.6,0.2,0.8,1,0,,,,,,,,,,,,
,,6006ae13a40ec00348555219,66fcb728b5299936d1513433,2024-10-02_05h09.57.588,mdp,2024.2.1,Win32,60.24096386,66fa4ebf79326e780c390304,,,,,,,,,,,,,,,,,,,,,673.2922,673.2923,673.2932,674.0755,0,0,left,0.2525,,674.0766,675.0256,0,0,left,675.0269,675.0277,,1,,1,675.0279,675.0279,675.0288,676.5246,0,20,20,20,1,0.4,0.6,0.8,0.2,,,,,,,,,,,,,,,0.4122,,0.8,0.2,0.2,0.8,0.4,0.6,0.2,0.8,1,0,,,,,,,,,,,,
,,6006ae13a40ec00348555219,66fcb728b5299936d1513433,2024-10-02_05h09.57.588,mdp,2024.2.1,Win32,60.24096386,66fa4ebf79326e780c390304,,,,,,,,,,,,,,,,,,,,,676.5255,676.5255,676.5266,677.3753,0,0,left,0.3205,,677.3766,678.3752,0,0,left,678.3762,678.3769,,0,,1,678.377,678.377,678.3776,679.8746,0,21,21,21,1,0.4,0.6,0.8,0.2,,,,,,,,,,,,,,,0.4682,,0.8,0.2,0.2,0.8,0.4,0.6,0.2,0.8,1,0,,,,,,,,,,,,
,,6006ae13a40ec00348555219,66fcb728b5299936d1513433,2024-10-02_05h09.57.588,mdp,2024.2.1,Win32,60.24096386,66fa4ebf79326e780c390304,,,,,,,,,,,,,,,,,,,,,679.8754,679.8755,679.8764,680.4921,0,1,left,0.0928,,680.4932,681.4416,0,0,left,681.443,681.4437,,1,,1,681.4437,681.4437,681.4443,682.9412,0,22,22,22,1,0.4,0.6,0.8,0.2,,,,,,,,,,,,,,,0.4169,,0.8,0.2,0.2,0.8,0.4,0.6,0.2,0.8,1,0,,,,,,,,,,,,
,,6006ae13a40ec00348555219,66fcb728b5299936d1513433,2024-10-02_05h09.57.588,mdp,2024.2.1,Win32,60.24096386,66fa4ebf79326e780c390304,,,,,,,,,,,,,,,,,,,,,682.9422,682.9422,682.9437,683.5418,0,1,left,0.0699,,683.543,684.5084,0,1,left,684.5095,684.5101,,0,,0,684.5101,684.5101,684.5107,686.0078,0,23,23,23,1,0.4,0.6,0.8,0.2,,,,,,,,,,,,,,,0.4335,,0.8,0.2,0.2,0.8,0.4,0.6,0.2,0.8,1,0,,,,,,,,,,,,
,,6006ae13a40ec00348555219,66fcb728b5299936d1513433,2024-10-02_05h09.57.588,mdp,2024.2.1,Win32,60.24096386,66fa4ebf79326e780c390304,,,,,,,,,,,,,,,,,,,,,686.0088,686.0088,686.0102,686.5921,0,1,left,0.0615,,686.5935,687.5252,0,0,left,687.5263,687.5271,,1,,1,687.5272,687.5272,687.528,689.0291,0,24,24,24,1,0.4,0.6,0.8,0.2,,,,,,,,,,,,,,,0.4076,,0.8,0.2,0.2,0.8,0.4,0.6,0.2,0.8,1,0,,,,,,,,,,,,
,,6006ae13a40ec00348555219,66fcb728b5299936d1513433,2024-10-02_05h09.57.588,mdp,2024.2.1,Win32,60.24096386,66fa4ebf79326e780c390304,,,,,,,,,,,,,,,,,,,,,689.0299,689.0299,689.0316,689.564,0,0,left,0.0029,,689.5654,690.525,0,0,left,690.526,690.5266,,0,,1,690.5267,690.5267,690.5274,692.0244,0,25,25,25,1,0.4,0.6,0.8,0.2,,,,,,,,,,,,,,,0.411,,0.8,0.2,0.2,0.8,0.4,0.6,0.2,0.8,1,0,,,,,,,,,,,,
,,6006ae13a40ec00348555219,66fcb728b5299936d1513433,2024-10-02_05h09.57.588,mdp,2024.2.1,Win32,60.24096386,66fa4ebf79326e780c390304,,,,,,,,,,,,,,,,,,,,,692.0254,692.0254,692.0265,692.6593,1,0,right,0.1122,,692.6602,693.5758,1,1,right,693.5767,693.5773,,1,,0,693.5773,693.5773,693.5779,695.0747,0,26,26,26,1,0.4,0.6,0.8,0.2,,,,,,,,,,,,,,,0.3968,,0.8,0.2,0.2,0.8,0.4,0.6,0.2,0.8,1,0,,,,,,,,,,,,
,,6006ae13a40ec00348555219,66fcb728b5299936d1513433,2024-10-02_05h09.57.588,mdp,2024.2.1,Win32,60.24096386,66fa4ebf79326e780c390304,,,,,,,,,,,,,,,,,,,,,695.0751,695.0751,695.0761,695.6749,1,0,right,0.0671,,695.676,696.592,1,1,right,696.5932,696.5939,,1,,0,696.594,696.594,696.5945,698.0912,0,27,27,27,1,0.4,0.6,0.8,0.2,,,,,,,,,,,,,,,0.3958,,0.8,0.2,0.2,0.8,0.8,0.2,0.6,0.4,1,0,,,,,,,,,,,,
,,6006ae13a40ec00348555219,66fcb728b5299936d1513433,2024-10-02_05h09.57.588,mdp,2024.2.1,Win32,60.24096386,66fa4ebf79326e780c390304,,,,,,,,,,,,,,,,,,,,,698.0923,698.0923,698.0934,699.4416,1,0,right,0.8166,,699.4425,700.5249,1,1,right,700.5259,700.5266,,0,,0,700.5266,700.5266,700.5275,702.0243,0,28,28,28,1,0.4,0.6,0.8,0.2,,,,,,,,,,,,,,,0.552,,0.8,0.2,0.2,0.8,0.8,0.2,0.6,0.4,1,0,,,,,,,,,,,,
,,6006ae13a40ec00348555219,66fcb728b5299936d1513433,2024-10-02_05h09.57.588,mdp,2024.2.1,Win32,60.24096386,66fa4ebf79326e780c390304,,,,,,,,,,,,,,,,,,,,,702.0248,702.0248,702.026,702.5753,0,1,left,0.0173,,702.5764,703.5419,0,0,left,703.543,703.5436,,0,,1,703.5437,703.5437,703.5442,705.0409,0,29,29,29,1,0.4,0.6,0.8,0.2,,,,,,,,,,,,,,,0.4326,,0.8,0.2,0.2,0.8,0.8,0.2,0.6,0.4,1,0,,,,,,,,,,,,
,,6006ae13a40ec00348555219,66fcb728b5299936d1513433,2024-10-02_05h09.57.588,mdp,2024.2.1,Win32,60.24096386,66fa4ebf79326e780c390304,,,,,,,,,,,,,,,,,,,,,705.0417,705.0417,705.0427,705.6249,0,1,left,0.0509,,705.6258,706.5915,0,0,left,706.5927,706.5933,,0,,1,706.5934,706.5934,706.594,708.0916,0,30,30,30,1,0.4,0.6,0.8,0.2,,,,,,,,,,,,,,,0.4375,,0.2,0.8,0.8,0.2,0.8,0.2,0.6,0.4,1,0,,,,,,,,,,,,
,,6006ae13a40ec00348555219,66fcb728b5299936d1513433,2024-10-02_05h09.57.588,mdp,2024.2.1,Win32,60.24096386,66fa4ebf79326e780c390304,,,,,,,,,,,,,,,,,,,,,708.0928,708.0928,708.0938,709.5249,0,1,left,0.9042,,709.5259,710.7091,0,0,left,710.7102,710.7107,,0,,1,710.7109,710.7109,710.7114,712.2077,0,31,31,31,1,0.4,0.6,0.8,0.2,,,,,,,,,,,,,,,0.6635,,0.2,0.8,0.8,0.2,0.8,0.2,0.6,0.4,1,0,,,,,,,,,,,,
,,6006ae13a40ec00348555219,66fcb728b5299936d1513433,2024-10-02_05h09.57.588,mdp,2024.2.1,Win32,60.24096386,66fa4ebf79326e780c390304,,,,,,,,,,,,,,,,,,,,,712.2085,712.2085,712.2095,712.7581,0,1,left,0.0189,,712.7592,713.7085,0,0,left,713.7095,713.7102,,1,,1,713.7102,713.7102,713.7107,715.208,0,32,32,32,1,0.4,0.6,0.8,0.2,,,,,,,,,,,,,,,0.4198,,0.2,0.8,0.8,0.2,0.8,0.2,0.6,0.4,1,0,,,,,,,,,,,,
,,6006ae13a40ec00348555219,66fcb728b5299936d1513433,2024-10-02_05h09.57.588,mdp,2024.2.1,Win32,60.24096386,66fa4ebf79326e780c390304,,,,,,,,,,,,,,,,,,,,,715.2088,715.2088,715.2104,716.1415,0,1,left,0.4104,,716.1425,717.1084,0,0,left,717.1094,717.1102,,0,,1,717.1102,717.1102,717.1108,718.6079,0,33,33,33,1,0.4,0.6,0.8,0.2,,,,,,,,,,,,,,,0.4395,,0.2,0.8,0.8,0.2,0.8,0.2,0.6,0.4,1,0,,,,,,,,,,,,
,,6006ae13a40ec00348555219,66fcb728b5299936d1513433,2024-10-02_05h09.57.588,mdp,2024.2.1,Win32,60.24096386,66fa4ebf79326e780c390304,,,,,,,,,,,,,,,,,,,,,718.6088,718.6088,718.6099,719.1415,0,1,left,0.0004,,719.1426,720.1086,0,1,left,720.11,720.1109,,0,,0,720.111,720.111,720.1119,721.6079,0,34,34,34,1,0.4,0.6,0.8,0.2,,,,,,,,,,,,,,,0.4354,,0.2,0.8,0.8,0.2,0.8,0.2,0.6,0.4,1,0,,,,,,,,,,,,
,,6006ae13a40ec00348555219,66fcb728b5299936d1513433,2024-10-02_05h09.57.588,mdp,2024.2.1,Win32,60.24096386,66fa4ebf79326e780c390304,,,,,,,,,,,,,,,,,,,,,721.6084,721.6084,721.6097,722.8251,0,0,left,0.6903,,722.8262,723.7416,0,1,left,723.7426,723.7433,,1,,0,723.7434,723.7434,723.7439,725.2413,0,35,35,35,1,0.4,0.6,0.8,0.2,,,,,,,,,,,,,,,0.3814,,0.2,0.8,0.8,0.2,0.8,0.2,0.6,0.4,1,0,,,,,,,,,,,,
,,6006ae13a40ec00348555219,66fcb728b5299936d1513433,2024-10-02_05h09.57.588,mdp,2024.2.1,Win32,60.24096386,66fa4ebf79326e780c390304,,,,,,,,,,,,,,,,,,,,,725.2417,725.2417,725.2429,726.6082,0,1,left,0.8395,,726.6092,727.5747,0,0,left,727.5757,727.5763,,1,,1,727.5763,727.5763,727.5769,729.0743,0,36,36,36,1,0.4,0.6,0.8,0.2,,,,,,,,,,,,,,,0.437,,0.2,0.8,0.8,0.2,0.8,0.2,0.6,0.4,1,0,,,,,,,,,,,,
,,6006ae13a40ec00348555219,66fcb728b5299936d1513433,2024-10-02_05h09.57.588,mdp,2024.2.1,Win32,60.24096386,66fa4ebf79326e780c390304,,,,,,,,,,,,,,,,,,,,,729.0751,729.0751,729.0761,730.4248,1,0,right,0.8285,,730.4263,731.2418,1,1,right,731.2432,731.2441,,0,,0,731.2442,731.2442,731.2459,732.741,0,37,37,37,1,0.4,0.6,0.8,0.2,,,,,,,,,,,,,,,0.2798,,0.2,0.8,0.8,0.2,0.8,0.2,0.6,0.4,1,0,,,,,,,,,,,,
,,6006ae13a40ec00348555219,66fcb728b5299936d1513433,2024-10-02_05h09.57.588,mdp,2024.2.1,Win32,60.24096386,66fa4ebf79326e780c390304,,,,,,,,,,,,,,,,,,,,,732.7418,732.7418,732.7428,733.9583,1,0,right,0.6865,,733.9596,734.8414,1,1,right,734.8425,734.8431,,1,,0,734.8431,734.8431,734.8437,736.341,0,38,38,38,1,0.4,0.6,0.8,0.2,,,,,,,,,,,,,,,0.3602,,0.2,0.8,0.8,0.2,0.8,0.2,0.6,0.4,1,0,,,,,,,,,,,,
,,6006ae13a40ec00348555219,66fcb728b5299936d1513433,2024-10-02_05h09.57.588,mdp,2024.2.1,Win32,60.24096386,66fa4ebf79326e780c390304,,,,,,,,,,,,,,,,,,,,,736.3416,736.3416,736.3429,737.5413,1,1,right,0.6767,,737.5423,738.442,1,0,right,738.4432,738.4438,,1,,1,738.4438,738.4438,738.4444,739.9412,0,39,39,39,1,0.4,0.6,0.8,0.2,,,,,,,,,,,,,,,0.3697,,0.2,0.8,0.8,0.2,0.8,0.2,0.6,0.4,1,0,,,,,,,,,,,,
,,6006ae13a40ec00348555219,66fcb728b5299936d1513433,2024-10-02_05h09.57.588,mdp,2024.2.1,Win32,60.24096386,66fa4ebf79326e780c390304,,,,,,,,,,,,,,,,,,,,,739.9417,739.9417,739.9427,741.3416,0,1,left,0.8718,,741.343,742.3251,0,0,left,742.326,742.3266,,0,,1,742.3267,742.3267,742.3272,743.8243,0,40,40,40,1,0.4,0.6,0.8,0.2,,,,,,,,,,,,,,,0.4572,,0.2,0.8,0.8,0.2,0.8,0.2,0.6,0.4,1,0,,,,,,,,,,,,
,,6006ae13a40ec00348555219,66fcb728b5299936d1513433,2024-10-02_05h09.57.588,mdp,2024.2.1,Win32,60.24096386,66fa4ebf79326e780c390304,,,,,,,,,,,,,,,,,,,,,743.8247,743.8247,743.826,745.1913,0,1,left,0.8583,,745.1922,746.0748,0,0,left,746.0757,746.0764,,0,,1,746.0764,746.0764,746.077,747.5739,0,41,41,41,1,0.4,0.6,0.8,0.2,,,,,,,,,,,,,,,0.3505,,0.2,0.8,0.8,0.2,0.8,0.2,0.6,0.4,1,0,,,,,,,,,,,,
,,6006ae13a40ec00348555219,66fcb728b5299936d1513433,2024-10-02_05h09.57.588,mdp,2024.2.1,Win32,60.24096386,66fa4ebf79326e780c390304,,,,,,,,,,,,,,,,,,,,,747.5748,747.5748,747.5756,748.9752,0,1,left,0.8675,,748.9762,749.9082,0,0,left,749.9093,749.91,,1,,1,749.91,749.91,749.9106,751.4076,0,42,42,42,1,0.4,0.6,0.8,0.2,,,,,,,,,,,,,,,0.4067,,0.6,0.4,0.6,0.4,0.8,0.2,0.6,0.4,1,0,,,,,,,,,,,,
,,6006ae13a40ec00348555219,66fcb728b5299936d1513433,2024-10-02_05h09.57.588,mdp,2024.2.1,Win32,60.24096386,66fa4ebf79326e780c390304,,,,,,,,,,,,,,,,,,,,,751.4083,751.4084,751.4093,752.8416,0,0,left,0.9032,,752.8427,753.7748,0,0,left,753.7757,753.7764,,1,,1,753.7764,753.7764,753.7769,755.2745,0,43,43,43,1,0.4,0.6,0.8,0.2,,,,,,,,,,,,,,,0.3955,,0.6,0.4,0.6,0.4,0.8,0.2,0.6,0.4,1,0,,,,,,,,,,,,
,,6006ae13a40ec00348555219,66fcb728b5299936d1513433,2024-10-02_05h09.57.588,mdp,2024.2.1,Win32,60.24096386,66fa4ebf79326e780c390304,,,,,,,,,,,,,,,,,,,,,755.2751,755.2751,755.276,756.6747,1,1,right,0.8685,,756.6759,757.6247,1,0,right,757.6257,757.6267,,0,,1,757.6268,757.6268,757.6274,759.1239,0,44,44,44,1,0.4,0.6,0.8,0.2,,,,,,,,,,,,,,,0.4165,,0.6,0.4,0.6,0.4,0.8,0.2,0.6,0.4,1,0,,,,,,,,,,,,
,,6006ae13a40ec00348555219,66fcb728b5299936d1513433,2024-10-02_05h09.57.588,mdp,2024.2.1,Win32,60.24096386,66fa4ebf79326e780c390304,,,,,,,,,,,,,,,,,,,,,759.1243,759.1243,759.1257,760.4749,0,1,left,0.8263,,760.4758,761.3915,0,0,left,761.3926,761.3934,,0,,1,761.3934,761.3934,761.394,762.8909,0,45,45,45,1,0.4,0.6,0.8,0.2,,,,,,,,,,,,,,,0.3877,,0.6,0.4,0.6,0.4,0.8,0.2,0.6,0.4,1,0,,,,,,,,,,,,
,,6006ae13a40ec00348555219,66fcb728b5299936d1513433,2024-10-02_05h09.57.588,mdp,2024.2.1,Win32,60.24096386,66fa4ebf79326e780c390304,,,,,,,,,,,,,,,,,,,,,762.8915,762.8915,762.8926,764.1753,0,1,left,0.7632,,764.1763,765.0747,0,0,left,765.0757,765.0764,,1,,1,765.0764,765.0764,765.0769,766.5742,0,46,46,46,1,0.4,0.6,0.8,0.2,,,,,,,,,,,,,,,0.3715,,0.6,0.4,0.6,0.4,0.8,0.2,0.6,0.4,1,0,,,,,,,,,,,,
,,6006ae13a40ec00348555219,66fcb728b5299936d1513433,2024-10-02_05h09.57.588,mdp,2024.2.1,Win32,60.24096386,66fa4ebf79326e780c390304,,,,,,,,,,,,,,,,,,,,,766.5747,766.5747,766.5756,767.858,0,1,left,0.7534,,767.8591,768.7917,0,1,left,768.7927,768.7934,,0,,0,768.7935,768.7935,768.7942,770.2911,0,47,47,47,1,0.4,0.6,0.8,0.2,,,,,,,,,,,,,,,0.4004,,0.6,0.4,0.6,0.4,0.8,0.2,0.6,0.4,1,0,,,,,,,,,,,,
,,6006ae13a40ec00348555219,66fcb728b5299936d1513433,2024-10-02_05h09.57.588,mdp,2024.2.1,Win32,60.24096386,66fa4ebf79326e780c390304,,,,,,,,,,,,,,,,,,,,,770.2915,770.2915,770.2926,770.8917,0,0,left,0.0733,,770.8928,771.8412,0,0,left,771.8422,771.8429,,1,,1,771.8429,771.8429,771.8436,773.3407,0,48,48,48,1,0.4,0.6,0.8,0.2,,,,,,,,,,,,,,,0.4222,,0.6,0.4,0.6,0.4,0.8,0.2,0.6,0.4,1,0,,,,,,,,,,,,
,,6006ae13a40ec00348555219,66fcb728b5299936d1513433,2024-10-02_05h09.57.588,mdp,2024.2.1,Win32,60.24096386,66fa4ebf79326e780c390304,,,,,,,,,,,,,,,,,,,,,773.3414,773.3415,773.3424,774.3429,0,1,left,0.467,,774.3449,775.1915,0,0,left,775.1926,775.1932,,0,,1,775.1932,775.1932,775.1939,776.6907,0,49,49,49,1,0.4,0.6,0.8,0.2,,,,,,,,,,,,,,,0.3128,,0.2,0.8,0.8,0.2,0.8,0.2,0.6,0.4,1,0,,,,,,,,,,,,
,,6006ae13a40ec00348555219,66fcb728b5299936d1513433,2024-10-02_05h09.57.588,mdp,2024.2.1,Win32,60.24096386,66fa4ebf79326e780c390304,,,,,,,,,,,,,,,,,,,,,,,,,,,,,,,,,,,,,,,,,,,,,,,,,,,,,,,,776.6908,835.2071,0,1,1,4,1,imgs/kangaroo.png,imgs/giraffe.png,imgs/cat.png,imgs/goat.png,imgs/pig.png,,,,,,,,,,,,,,,,,,,,,,,,
,,6006ae13a40ec00348555219,66fcb728b5299936d1513433,2024-10-02_05h09.57.588,mdp,2024.2.1,Win32,60.24096386,66fa4ebf79326e780c390304,,,,,,,,,,,,,,3,seqs/st3seq30.csv,835.2088,843.0071,space,7.2747,,843.0147,843.0147,843.0155,844.6076,1,1,right,1.061,,844.6089,845.5081,1,1,right,845.5091,846.3574,1,1,right,0,846.3575,846.3575,846.3584,847.8569,0,0,0,0,1,0.8,0.2,0.2,0.8,,,,,,,,,,,,,,,0.3733,,0.6,0.4,0.8,0.2,0.8,0.2,0.4,0.6,,,0.3224,,0.2,0.8,0.8,0.2,0.4,0.6,0.8,0.2,1,0
,,6006ae13a40ec00348555219,66fcb728b5299936d1513433,2024-10-02_05h09.57.588,mdp,2024.2.1,Win32,60.24096386,66fa4ebf79326e780c390304,,,,,,,,,,,,,,,,,,,,,847.8579,847.858,847.8589,849.3075,1,1,right,0.9174,,849.3086,850.5739,1,1,right,850.5752,851.5362,1,0,right,1,851.5363,851.5363,851.5371,853.0401,0,1,1,1,1,0.8,0.2,0.2,0.8,,,,,,,,,,,,,,,0.7344,,0.6,0.4,0.8,0.2,0.8,0.2,0.4,0.6,,,0.4187,,0.2,0.8,0.8,0.2,0.4,0.6,0.8,0.2,1,0
,,6006ae13a40ec00348555219,66fcb728b5299936d1513433,2024-10-02_05h09.57.588,mdp,2024.2.1,Win32,60.24096386,66fa4ebf79326e780c390304,,,,,,,,,,,,,,,,,,,,,853.041,853.0411,853.042,853.7071,0,0,left,0.1339,,853.7081,854.7905,0,1,left,854.7918,855.7738,0,1,left,0,855.7739,855.7739,855.7748,857.2732,0,2,2,2,1,0.8,0.2,0.2,0.8,,,,,,,,,,,,,,,0.5437,,0.6,0.4,0.8,0.2,0.8,0.2,0.4,0.6,,,0.4531,,0.2,0.8,0.8,0.2,0.4,0.6,0.8,0.2,1,0
,,6006ae13a40ec00348555219,66fcb728b5299936d1513433,2024-10-02_05h09.57.588,mdp,2024.2.1,Win32,60.24096386,66fa4ebf79326e780c390304,,,,,,,,,,,,,,,,,,,,,857.274,857.274,857.275,858.7077,1,1,right,0.908,,858.709,859.8904,1,1,right,859.8914,860.8407,1,0,right,1,860.8408,860.8408,860.8417,862.3402,0,3,3,3,1,0.8,0.2,0.2,0.8,,,,,,,,,,,,,,,0.6533,,0.6,0.4,0.8,0.2,0.8,0.2,0.4,0.6,,,0.4233,,0.2,0.8,0.8,0.2,0.4,0.6,0.8,0.2,1,0
,,6006ae13a40ec00348555219,66fcb728b5299936d1513433,2024-10-02_05h09.57.588,mdp,2024.2.1,Win32,60.24096386,66fa4ebf79326e780c390304,,,,,,,,,,,,,,,,,,,,,862.3408,862.3408,862.342,862.957,1,1,right,0.0934,,862.9584,864.0741,1,1,right,864.0752,865.1409,1,0,right,1,865.141,865.141,865.1419,866.6402,0,4,4,4,1,0.8,0.2,0.2,0.8,,,,,,,,,,,,,,,0.5914,,0.6,0.4,0.8,0.2,0.8,0.2,0.4,0.6,,,0.5434,,0.2,0.8,0.8,0.2,0.4,0.6,0.8,0.2,1,0
,,6006ae13a40ec00348555219,66fcb728b5299936d1513433,2024-10-02_05h09.57.588,mdp,2024.2.1,Win32,60.24096386,66fa4ebf79326e780c390304,,,,,,,,,,,,,,,,,,,,,866.6411,866.6411,866.642,867.3238,1,1,right,0.1592,,867.3248,868.3739,1,0,right,868.375,869.4412,1,0,right,1,869.4412,869.4412,869.4422,870.9404,0,5,5,5,1,0.8,0.2,0.2,0.8,,,,,,,,,,,,,,,0.522,,0.6,0.4,0.8,0.2,0.8,0.2,0.4,0.6,,,0.5384,,0.2,0.8,0.8,0.2,0.6,0.4,0.4,0.6,1,0
,,6006ae13a40ec00348555219,66fcb728b5299936d1513433,2024-10-02_05h09.57.588,mdp,2024.2.1,Win32,60.24096386,66fa4ebf79326e780c390304,,,,,,,,,,,,,,,,,,,,,870.941,870.941,870.942,871.6413,1,1,right,0.18,,871.6426,872.7237,1,0,right,872.7247,873.7914,1,0,right,1,873.7915,873.7915,873.7925,875.2901,0,6,6,6,1,0.8,0.2,0.2,0.8,,,,,,,,,,,,,,,0.5505,,0.6,0.4,0.8,0.2,0.8,0.2,0.4,0.6,,,0.5466,,0.2,0.8,0.8,0.2,0.6,0.4,0.4,0.6,1,0
,,6006ae13a40ec00348555219,66fcb728b5299936d1513433,2024-10-02_05h09.57.588,mdp,2024.2.1,Win32,60.24096386,66fa4ebf79326e780c390304,,,,,,,,,,,,,,,,,,,,,875.2911,875.2911,875.2921,876.7739,1,1,right,0.9568,,876.7749,877.8408,1,1,right,877.8419,878.8074,1,0,right,1,878.8074,878.8074,878.8085,880.3067,0,7,7,7,1,0.8,0.2,0.2,0.8,,,,,,,,,,,,,,,0.5345,,0.6,0.4,0.8,0.2,0.8,0.2,0.4,0.6,,,0.4302,,0.2,0.8,0.8,0.2,0.6,0.4,0.4,0.6,1,0
,,6006ae13a40ec00348555219,66fcb728b5299936d1513433,2024-10-02_05h09.57.588,mdp,2024.2.1,Win32,60.24096386,66fa4ebf79326e780c390304,,,,,,,,,,,,,,,,,,,,,880.3077,880.3078,880.3087,880.9574,1,0,right,0.121,,880.9588,881.9738,1,0,right,881.9748,883.2079,1,0,right,1,883.2079,883.2079,883.2089,884.7069,0,8,8,8,1,0.8,0.2,0.2,0.8,,,,,,,,,,,,,,,0.4799,,0.6,0.4,0.8,0.2,0.8,0.2,0.4,0.6,,,0.7093,,0.2,0.8,0.8,0.2,0.6,0.4,0.4,0.6,1,0
,,6006ae13a40ec00348555219,66fcb728b5299936d1513433,2024-10-02_05h09.57.588,mdp,2024.2.1,Win32,60.24096386,66fa4ebf79326e780c390304,,,,,,,,,,,,,,,,,,,,,884.7077,884.7079,884.7088,885.7571,0,0,left,0.526,,885.7581,887.0073,0,0,left,887.0084,888.1572,0,1,left,0,888.1572,888.1573,888.1583,889.6568,0,9,9,9,1,0.8,0.2,0.2,0.8,,,,,,,,,,,,,,,0.7175,,0.6,0.4,0.8,0.2,0.8,0.2,0.4,0.6,,,0.6203,,0.2,0.8,0.8,0.2,0.6,0.4,0.4,0.6,1,0
,,6006ae13a40ec00348555219,66fcb728b5299936d1513433,2024-10-02_05h09.57.588,mdp,2024.2.1,Win32,60.24096386,66fa4ebf79326e780c390304,,,,,,,,,,,,,,,,,,,,,889.6575,889.6575,889.6585,890.4072,1,1,right,0.2187,,890.4083,891.4905,1,1,right,891.4916,892.5235,1,1,right,0,892.5235,892.5236,892.5245,894.0231,0,10,10,10,1,0.8,0.2,0.2,0.8,,,,,,,,,,,,,,,0.5513,,0.6,0.4,0.8,0.2,0.8,0.2,0.4,0.6,,,0.5047,,0.2,0.8,0.8,0.2,0.6,0.4,0.4,0.6,1,0
,,6006ae13a40ec00348555219,66fcb728b5299936d1513433,2024-10-02_05h09.57.588,mdp,2024.2.1,Win32,60.24096386,66fa4ebf79326e780c390304,,,,,,,,,,,,,,,,,,,,,894.0239,894.0239,894.0249,894.7575,1,1,right,0.2114,,894.7585,895.8235,1,1,right,895.8244,896.8406,1,1,right,0,896.8406,896.8406,896.8416,898.3403,0,11,11,11,1,0.8,0.2,0.2,0.8,,,,,,,,,,,,,,,0.5429,,0.8,0.2,0.2,0.8,0.8,0.2,0.4,0.6,,,0.4843,,0.2,0.8,0.8,0.2,0.6,0.4,0.4,0.6,1,0
,,6006ae13a40ec00348555219,66fcb728b5299936d1513433,2024-10-02_05h09.57.588,mdp,2024.2.1,Win32,60.24096386,66fa4ebf79326e780c390304,,,,,,,,,,,,,,,,,,,,,898.3408,898.3408,898.3419,898.8735,1,1,right,0.0111,,898.8744,899.9237,1,0,right,899.9247,900.9925,1,1,right,0,900.9925,900.9925,900.9938,902.4899,0,12,12,12,1,0.8,0.2,0.2,0.8,,,,,,,,,,,,,,,0.5167,,0.8,0.2,0.2,0.8,0.8,0.2,0.4,0.6,,,0.5434,,0.8,0.2,0.6,0.4,0.6,0.4,0.4,0.6,1,0
,,6006ae13a40ec00348555219,66fcb728b5299936d1513433,2024-10-02_05h09.57.588,mdp,2024.2.1,Win32,60.24096386,66fa4ebf79326e780c390304,,,,,,,,,,,,,,,,,,,,,902.4911,902.4911,902.4921,903.0253,1,1,right,0.0138,,903.0265,904.057,1,0,right,904.0581,905.0569,1,0,right,1,905.0571,905.0571,905.0581,906.5566,0,13,13,13,1,0.8,0.2,0.2,0.8,,,,,,,,,,,,,,,0.5003,,0.8,0.2,0.2,0.8,0.8,0.2,0.4,0.6,,,0.4677,,0.8,0.2,0.6,0.4,0.6,0.4,0.4,0.6,1,0
,,6006ae13a40ec00348555219,66fcb728b5299936d1513433,2024-10-02_05h09.57.588,mdp,2024.2.1,Win32,60.24096386,66fa4ebf79326e780c390304,,,,,,,,,,,,,,,,,,,,,906.5573,906.5573,906.5586,907.3073,0,0,left,0.2179,,907.3084,908.3409,0,0,left,908.3417,909.4071,0,0,left,1,909.4071,909.4071,909.408,910.9065,0,14,14,14,1,0.8,0.2,0.2,0.8,,,,,,,,,,,,,,,0.5088,,0.8,0.2,0.2,0.8,0.8,0.2,0.4,0.6,,,0.5344,,0.8,0.2,0.6,0.4,0.6,0.4,0.4,0.6,1,0
,,6006ae13a40ec00348555219,66fcb728b5299936d1513433,2024-10-02_05h09.57.588,mdp,2024.2.1,Win32,60.24096386,66fa4ebf79326e780c390304,,,,,,,,,,,,,,,,,,,,,910.9071,910.9071,910.9083,911.557,0,0,left,0.1212,,911.558,912.5902,0,0,left,912.5912,913.623,0,1,left,0,913.6231,913.6231,913.6245,915.1231,0,15,15,15,1,0.8,0.2,0.2,0.8,,,,,,,,,,,,,,,0.5047,,0.8,0.2,0.2,0.8,0.8,0.2,0.4,0.6,,,0.5076,,0.8,0.2,0.6,0.4,0.6,0.4,0.4,0.6,1,0
,,6006ae13a40ec00348555219,66fcb728b5299936d1513433,2024-10-02_05h09.57.588,mdp,2024.2.1,Win32,60.24096386,66fa4ebf79326e780c390304,,,,,,,,,,,,,,,,,,,,,915.1239,915.1239,915.1249,916.64,0,1,left,0.983,,916.6411,917.6902,0,0,left,917.6914,918.7233,0,0,left,1,918.7234,918.7234,918.7243,920.2229,0,16,16,16,1,0.8,0.2,0.2,0.8,,,,,,,,,,,,,,,0.5187,,0.8,0.2,0.2,0.8,0.8,0.2,0.4,0.6,,,0.5007,,0.8,0.2,0.6,0.4,0.6,0.4,0.4,0.6,1,0
,,6006ae13a40ec00348555219,66fcb728b5299936d1513433,2024-10-02_05h09.57.588,mdp,2024.2.1,Win32,60.24096386,66fa4ebf79326e780c390304,,,,,,,,,,,,,,,,,,,,,920.2237,920.2237,920.2246,920.84,1,1,right,0.0937,,920.841,921.8906,1,1,right,921.8918,922.9406,1,1,right,0,922.9406,922.9406,922.9417,924.4395,0,17,17,17,1,0.8,0.2,0.2,0.8,,,,,,,,,,,,,,,0.5266,,0.8,0.2,0.2,0.8,0.8,0.2,0.4,0.6,,,0.5236,,0.8,0.2,0.6,0.4,0.6,0.4,0.4,0.6,1,0
,,6006ae13a40ec00348555219,66fcb728b5299936d1513433,2024-10-02_05h09.57.588,mdp,2024.2.1,Win32,60.24096386,66fa4ebf79326e780c390304,,,,,,,,,,,,,,,,,,,,,924.4401,924.4402,924.4414,924.9901,1,1,right,0.0194,,924.9911,926.0233,1,1,right,926.0242,927.0735,1,0,right,1,927.0736,927.0736,927.0746,928.5728,0,18,18,18,1,0.8,0.2,0.2,0.8,,,,,,,,,,,,,,,0.5093,,0.8,0.2,0.2,0.8,0.8,0.2,0.4,0.6,,,0.5173,,0.8,0.2,0.6,0.4,0.6,0.4,0.4,0.6,1,0
,,6006ae13a40ec00348555219,66fcb728b5299936d1513433,2024-10-02_05h09.57.588,mdp,2024.2.1,Win32,60.24096386,66fa4ebf79326e780c390304,,,,,,,,,,,,,,,,,,,,,928.5735,928.5735,928.5745,930.2415,0,0,left,1.158,,930.2428,931.3569,0,0,left,931.358,932.3734,0,1,left,0,932.3735,932.3735,932.3745,933.8728,0,19,19,19,1,0.8,0.2,0.2,0.8,,,,,,,,,,,,,,,0.5873,,0.8,0.2,0.2,0.8,0.8,0.2,0.4,0.6,,,0.4816,,0.8,0.2,0.6,0.4,0.6,0.4,0.4,0.6,1,0
,,6006ae13a40ec00348555219,66fcb728b5299936d1513433,2024-10-02_05h09.57.588,mdp,2024.2.1,Win32,60.24096386,66fa4ebf79326e780c390304,,,,,,,,,,,,,,,,,,,,,933.8737,933.8737,933.8746,935.2737,0,0,left,0.8702,,935.2752,936.3402,0,0,left,936.3413,937.3389,0,0,left,1,937.3391,937.3391,937.3406,938.8397,0,20,20,20,1,0.8,0.2,0.2,0.8,,,,,,,,,,,,,,,0.5333,,0.8,0.2,0.2,0.8,0.8,0.2,0.4,0.6,,,0.4709,,0.8,0.2,0.6,0.4,0.6,0.4,0.4,0.6,1,0
,,6006ae13a40ec00348555219,66fcb728b5299936d1513433,2024-10-02_05h09.57.588,mdp,2024.2.1,Win32,60.24096386,66fa4ebf79326e780c390304,,,,,,,,,,,,,,,,,,,,,938.8403,938.8403,938.8416,939.5241,0,0,left,0.1637,,939.5251,940.5235,0,0,left,940.5244,941.5235,0,0,left,1,941.5235,941.5235,941.5246,943.0227,0,21,21,21,1,0.8,0.2,0.2,0.8,,,,,,,,,,,,,,,0.4711,,0.8,0.2,0.2,0.8,0.8,0.2,0.4,0.6,,,0.4709,,0.8,0.2,0.6,0.4,0.6,0.4,0.4,0.6,1,0
,,6006ae13a40ec00348555219,66fcb728b5299936d1513433,2024-10-02_05h09.57.588,mdp,2024.2.1,Win32,60.24096386,66fa4ebf79326e780c390304,,,,,,,,,,,,,,,,,,,,,943.0235,943.0235,943.0244,943.573,1,1,right,0.0182,,943.5741,944.6232,1,0,right,944.6242,945.6401,1,1,right,0,945.6402,945.6402,945.6415,947.1398,0,22,22,22,1,0.8,0.2,0.2,0.8,,,,,,,,,,,,,,,0.5223,,0.8,0.2,0.2,0.8,0.8,0.2,0.4,0.6,,,0.4839,,0.8,0.2,0.6,0.4,0.6,0.4,0.4,0.6,1,0
,,6006ae13a40ec00348555219,66fcb728b5299936d1513433,2024-10-02_05h09.57.588,mdp,2024.2.1,Win32,60.24096386,66fa4ebf79326e780c390304,,,,,,,,,,,,,,,,,,,,,947.1403,947.1403,947.1413,947.8904,0,0,left,0.2295,,947.8915,948.9405,0,0,left,948.9415,949.9236,0,0,left,1,949.9237,949.9237,949.9247,951.4226,0,23,23,23,1,0.8,0.2,0.2,0.8,,,,,,,,,,,,,,,0.5278,,0.8,0.2,0.2,0.8,0.8,0.2,0.4,0.6,,,0.4562,,0.8,0.2,0.6,0.4,0.6,0.4,0.4,0.6,1,0
,,6006ae13a40ec00348555219,66fcb728b5299936d1513433,2024-10-02_05h09.57.588,mdp,2024.2.1,Win32,60.24096386,66fa4ebf79326e780c390304,,,,,,,,,,,,,,,,,,,,,951.4235,951.4235,951.4247,952.0071,0,0,left,0.0501,,952.0081,953.0399,0,0,left,953.0413,954.0736,0,0,left,1,954.0737,954.0737,954.0747,955.5732,0,24,24,24,1,0.8,0.2,0.2,0.8,,,,,,,,,,,,,,,0.5007,,0.8,0.2,0.2,0.8,0.8,0.2,0.4,0.6,,,0.5004,,0.8,0.2,0.6,0.4,0.6,0.4,0.4,0.6,1,0
,,6006ae13a40ec00348555219,66fcb728b5299936d1513433,2024-10-02_05h09.57.588,mdp,2024.2.1,Win32,60.24096386,66fa4ebf79326e780c390304,,,,,,,,,,,,,,,,,,,,,955.5738,955.5738,955.5752,956.1233,0,0,left,0.0186,,956.1243,957.1563,0,0,left,957.1578,958.1399,0,0,left,1,958.14,958.14,958.141,959.6395,0,25,25,25,1,0.8,0.2,0.2,0.8,,,,,,,,,,,,,,,0.5041,,0.8,0.2,0.2,0.8,0.8,0.2,0.4,0.6,,,0.45,,0.8,0.2,0.6,0.4,0.6,0.4,0.4,0.6,1,0
,,6006ae13a40ec00348555219,66fcb728b5299936d1513433,2024-10-02_05h09.57.588,mdp,2024.2.1,Win32,60.24096386,66fa4ebf79326e780c390304,,,,,,,,,,,,,,,,,,,,,959.6405,959.6405,959.6414,961.0907,0,0,left,0.93,,961.0918,962.0734,0,0,left,962.0744,963.0076,0,0,left,1,963.0076,963.0076,963.0086,964.5063,0,26,26,26,1,0.8,0.2,0.2,0.8,,,,,,,,,,,,,,,0.4506,,0.8,0.2,0.2,0.8,0.8,0.2,0.4,0.6,,,0.4004,,0.8,0.2,0.6,0.4,0.6,0.4,0.4,0.6,1,0
,,6006ae13a40ec00348555219,66fcb728b5299936d1513433,2024-10-02_05h09.57.588,mdp,2024.2.1,Win32,60.24096386,66fa4ebf79326e780c390304,,,,,,,,,,,,,,,,,,,,,964.5073,964.5073,964.5083,966.04,0,0,left,1.0002,,966.041,967.0566,0,0,left,967.0576,968.0576,0,1,left,0,968.0577,968.0577,968.0586,969.5564,0,27,27,27,1,0.8,0.2,0.2,0.8,,,,,,,,,,,,,,,0.4846,,0.8,0.2,0.2,0.8,0.8,0.2,0.4,0.6,,,0.4806,,0.8,0.2,0.6,0.4,0.6,0.4,0.4,0.6,1,0
,,6006ae13a40ec00348555219,66fcb728b5299936d1513433,2024-10-02_05h09.57.588,mdp,2024.2.1,Win32,60.24096386,66fa4ebf79326e780c390304,,,,,,,,,,,,,,,,,,,,,969.5569,969.5569,969.5578,971.0067,0,1,left,0.9173,,971.0077,972.0229,0,0,left,972.0239,973.0399,0,0,left,1,973.0399,973.0399,973.0408,974.5401,0,28,28,28,1,0.8,0.2,0.2,0.8,,,,,,,,,,,,,,,0.4803,,0.8,0.2,0.2,0.8,0.8,0.2,0.4,0.6,,,0.5027,,0.8,0.2,0.6,0.4,0.6,0.4,0.4,0.6,1,0
,,6006ae13a40ec00348555219,66fcb728b5299936d1513433,2024-10-02_05h09.57.588,mdp,2024.2.1,Win32,60.24096386,66fa4ebf79326e780c390304,,,,,,,,,,,,,,,,,,,,,974.5405,974.5406,974.5414,975.123,0,0,left,0.0508,,975.1239,976.1398,0,0,left,976.1408,977.173,0,0,left,1,977.173,977.173,977.1739,978.6733,0,29,29,29,1,0.8,0.2,0.2,0.8,,,,,,,,,,,,,,,0.4826,,0.8,0.2,0.2,0.8,0.8,0.2,0.4,0.6,,,0.5045,,0.8,0.2,0.6,0.4,0.6,0.4,0.4,0.6,1,0
,,6006ae13a40ec00348555219,66fcb728b5299936d1513433,2024-10-02_05h09.57.588,mdp,2024.2.1,Win32,60.24096386,66fa4ebf79326e780c390304,,,,,,,,,,,,,,,,,,,,,978.6736,978.6736,978.6745,979.4063,0,1,left,0.2006,,979.4072,980.5228,0,0,left,980.5238,981.5728,0,0,left,1,981.5729,981.5729,981.5738,983.0723,0,30,30,30,1,0.8,0.2,0.2,0.8,,,,,,,,,,,,,,,0.5896,,0.8,0.2,0.2,0.8,0.8,0.2,0.4,0.6,,,0.5245,,0.8,0.2,0.6,0.4,0.6,0.4,0.4,0.6,1,0
,,6006ae13a40ec00348555219,66fcb728b5299936d1513433,2024-10-02_05h09.57.588,mdp,2024.2.1,Win32,60.24096386,66fa4ebf79326e780c390304,,,,,,,,,,,,,,,,,,,,,983.0731,983.0731,983.074,983.7065,0,0,left,0.1001,,983.7075,984.9069,0,1,left,984.9079,985.9567,0,1,left,0,985.9567,985.9567,985.9579,987.4559,0,31,31,31,1,0.8,0.2,0.2,0.8,,,,,,,,,,,,,,,0.6706,,0.8,0.2,0.2,0.8,0.8,0.2,0.4,0.6,,,0.515,,0.8,0.2,0.6,0.4,0.6,0.4,0.4,0.6,1,0
,,6006ae13a40ec00348555219,66fcb728b5299936d1513433,2024-10-02_05h09.57.588,mdp,2024.2.1,Win32,60.24096386,66fa4ebf79326e780c390304,,,,,,,,,,,,,,,,,,,,,987.4566,987.4566,987.4577,988.0406,0,0,left,0.0634,,988.0414,989.1231,0,0,left,989.1241,990.2069,0,0,left,1,990.207,990.207,990.2079,991.7061,0,32,32,32,1,0.8,0.2,0.2,0.8,,,,,,,,,,,,,,,0.5511,,0.8,0.2,0.2,0.8,0.8,0.2,0.4,0.6,,,0.5485,,0.8,0.2,0.6,0.4,0.6,0.4,0.4,0.6,1,0
,,6006ae13a40ec00348555219,66fcb728b5299936d1513433,2024-10-02_05h09.57.588,mdp,2024.2.1,Win32,60.24096386,66fa4ebf79326e780c390304,,,,,,,,,,,,,,,,,,,,,991.7069,991.707,991.7078,992.2397,0,0,left,0.0023,,992.2408,993.2728,0,0,left,993.2739,994.323,0,1,left,0,994.323,994.323,994.324,995.8223,0,33,33,33,1,0.8,0.2,0.2,0.8,,,,,,,,,,,,,,,0.507,,0.8,0.2,0.2,0.8,0.8,0.2,0.4,0.6,,,0.5225,,0.8,0.2,0.6,0.4,0.6,0.4,0.4,0.6,1,0
,,6006ae13a40ec00348555219,66fcb728b5299936d1513433,2024-10-02_05h09.57.588,mdp,2024.2.1,Win32,60.24096386,66fa4ebf79326e780c390304,,,,,,,,,,,,,,,,,,,,,995.8232,995.8232,995.8241,997.2565,0,0,left,0.9243,,997.2576,998.3061,0,0,left,998.3071,999.3897,0,0,left,1,999.3898,999.3898,999.3909,1000.8888,0,34,34,34,1,0.8,0.2,0.2,0.8,,,,,,,,,,,,,,,0.5262,,0.8,0.2,0.2,0.8,0.8,0.2,0.4,0.6,,,0.5565,,0.8,0.2,0.6,0.4,0.6,0.4,0.4,0.6,1,0
,,6006ae13a40ec00348555219,66fcb728b5299936d1513433,2024-10-02_05h09.57.588,mdp,2024.2.1,Win32,60.24096386,66fa4ebf79326e780c390304,,,,,,,,,,,,,,,,,,,,,1000.8897,1000.8898,1000.8909,1002.5563,0,0,left,1.1416,,1002.5572,1003.6064,0,0,left,1003.6075,1004.5405,0,1,left,0,1004.5406,1004.5406,1004.5416,1006.0394,0,35,35,35,1,0.8,0.2,0.2,0.8,,,,,,,,,,,,,,,0.5211,,0.8,0.2,0.2,0.8,0.8,0.2,0.4,0.6,,,0.4141,,0.8,0.2,0.6,0.4,0.6,0.4,0.4,0.6,1,0
,,6006ae13a40ec00348555219,66fcb728b5299936d1513433,2024-10-02_05h09.57.588,mdp,2024.2.1,Win32,60.24096386,66fa4ebf79326e780c390304,,,,,,,,,,,,,,,,,,,,,1006.0402,1006.0402,1006.0412,1006.607,0,0,left,0.0465,,1006.6079,1007.5908,0,0,left,1007.5917,1008.5894,0,0,left,1,1008.5894,1008.5895,1008.5906,1010.0892,0,36,36,36,1,0.8,0.2,0.2,0.8,,,,,,,,,,,,,,,0.4637,,0.8,0.2,0.2,0.8,0.4,0.6,0.2,0.8,,,0.4755,,0.8,0.2,0.6,0.4,0.6,0.4,0.4,0.6,1,0
,,6006ae13a40ec00348555219,66fcb728b5299936d1513433,2024-10-02_05h09.57.588,mdp,2024.2.1,Win32,60.24096386,66fa4ebf79326e780c390304,,,,,,,,,,,,,,,,,,,,,1010.0903,1010.0903,1010.0914,1010.9572,1,0,right,0.347,,1010.9582,1012.0403,1,1,right,1012.0413,1013.073,1,1,right,0,1013.073,1013.0731,1013.0741,1014.5724,0,37,37,37,1,0.8,0.2,0.2,0.8,,,,,,,,,,,,,,,0.5567,,0.8,0.2,0.2,0.8,0.4,0.6,0.2,0.8,,,0.5081,,0.8,0.2,0.6,0.4,0.6,0.4,0.4,0.6,1,0
,,6006ae13a40ec00348555219,66fcb728b5299936d1513433,2024-10-02_05h09.57.588,mdp,2024.2.1,Win32,60.24096386,66fa4ebf79326e780c390304,,,,,,,,,,,,,,,,,,,,,1014.573,1014.573,1014.5742,1015.5565,1,1,right,0.4529,,1015.5577,1016.5226,1,0,right,1016.5236,1017.4897,1,0,right,1,1017.4897,1017.4897,1017.4908,1018.989,0,38,38,38,1,0.8,0.2,0.2,0.8,,,,,,,,,,,,,,,0.4374,,0.8,0.2,0.2,0.8,0.4,0.6,0.2,0.8,,,0.4304,,0.8,0.2,0.6,0.4,0.6,0.4,0.4,0.6,1,0
,,6006ae13a40ec00348555219,66fcb728b5299936d1513433,2024-10-02_05h09.57.588,mdp,2024.2.1,Win32,60.24096386,66fa4ebf79326e780c390304,,,,,,,,,,,,,,,,,,,,,1018.99,1018.99,1018.991,1019.5396,0,0,left,0.0175,,1019.5407,1020.5729,0,0,left,1020.5738,1021.6063,0,0,left,1,1021.6063,1021.6063,1021.6074,1023.1055,0,39,39,39,1,0.6,0.4,0.8,0.2,,,,,,,,,,,,,,,0.4964,,0.8,0.2,0.2,0.8,0.4,0.6,0.2,0.8,,,0.501,,0.8,0.2,0.6,0.4,0.6,0.4,0.4,0.6,1,0
,,6006ae13a40ec00348555219,66fcb728b5299936d1513433,2024-10-02_05h09.57.588,mdp,2024.2.1,Win32,60.24096386,66fa4ebf79326e780c390304,,,,,,,,,,,,,,,,,,,,,1023.1063,1023.1064,1023.1074,1023.6562,1,0,right,0.0173,,1023.6573,1024.7259,1,1,right,1024.7271,1025.8396,1,1,right,0,1025.8397,1025.8397,1025.8407,1027.3394,0,40,40,40,1,0.6,0.4,0.8,0.2,,,,,,,,,,,,,,,0.5493,,0.8,0.2,0.2,0.8,0.4,0.6,0.2,0.8,,,0.5789,,0.8,0.2,0.6,0.4,0.6,0.4,0.4,0.6,1,0
,,6006ae13a40ec00348555219,66fcb728b5299936d1513433,2024-10-02_05h09.57.588,mdp,2024.2.1,Win32,60.24096386,66fa4ebf79326e780c390304,,,,,,,,,,,,,,,,,,,,,1027.34,1027.34,1027.341,1028.8572,1,0,right,0.9973,,1028.8581,1029.9563,1,0,right,1029.9573,1031.0725,1,1,right,0,1031.0725,1031.0725,1031.0735,1032.5724,0,41,41,41,1,0.6,0.4,0.8,0.2,,,,,,,,,,,,,,,0.572,,0.8,0.2,0.2,0.8,0.8,0.2,0.8,0.2,,,0.5864,,0.8,0.2,0.6,0.4,0.6,0.4,0.4,0.6,1,0
,,6006ae13a40ec00348555219,66fcb728b5299936d1513433,2024-10-02_05h09.57.588,mdp,2024.2.1,Win32,60.24096386,66fa4ebf79326e780c390304,,,,,,,,,,,,,,,,,,,,,1032.5732,1032.5732,1032.5742,1034.1394,1,0,right,1.0331,,1034.1404,1035.1732,1,1,right,1035.1742,1036.2561,1,0,right,1,1036.2562,1036.2562,1036.2572,1037.7559,0,42,42,42,1,0.6,0.4,0.8,0.2,,,,,,,,,,,,,,,0.5078,,0.8,0.2,0.2,0.8,0.8,0.2,0.8,0.2,,,0.5481,,0.8,0.2,0.6,0.4,0.6,0.4,0.4,0.6,1,0
,,6006ae13a40ec00348555219,66fcb728b5299936d1513433,2024-10-02_05h09.57.588,mdp,2024.2.1,Win32,60.24096386,66fa4ebf79326e780c390304,,,,,,,,,,,,,,,,,,,,,1037.7568,1037.7568,1037.7579,1038.4064,0,0,left,0.1239,,1038.4078,1039.4558,0,0,left,1039.4569,1040.5398,0,0,left,1,1040.5399,1040.5399,1040.5408,1042.0394,0,43,43,43,1,0.6,0.4,0.8,0.2,,,,,,,,,,,,,,,0.5172,,0.8,0.2,0.2,0.8,0.8,0.2,0.8,0.2,,,0.5461,,0.8,0.2,0.6,0.4,0.6,0.4,0.4,0.6,1,0
,,6006ae13a40ec00348555219,66fcb728b5299936d1513433,2024-10-02_05h09.57.588,mdp,2024.2.1,Win32,60.24096386,66fa4ebf79326e780c390304,,,,,,,,,,,,,,,,,,,,,1042.0399,1042.0399,1042.0408,1042.6224,0,0,left,0.0523,,1042.6238,1043.6558,0,0,left,1043.6568,1044.6727,0,0,left,1,1044.6728,1044.6728,1044.6738,1046.1721,0,44,44,44,1,0.6,0.4,0.8,0.2,,,,,,,,,,,,,,,0.5035,,0.8,0.2,0.2,0.8,0.8,0.2,0.8,0.2,,,0.471,,0.8,0.2,0.6,0.4,0.6,0.4,0.4,0.6,1,0
,,6006ae13a40ec00348555219,66fcb728b5299936d1513433,2024-10-02_05h09.57.588,mdp,2024.2.1,Win32,60.24096386,66fa4ebf79326e780c390304,,,,,,,,,,,,,,,,,,,,,1046.1729,1046.1729,1046.1741,1046.7727,0,1,left,0.0669,,1046.7737,1047.823,0,1,left,1047.824,1048.9726,0,1,left,0,1048.9726,1048.9726,1048.9735,1050.472,0,45,45,45,1,0.6,0.4,0.8,0.2,,,,,,,,,,,,,,,0.5148,,0.8,0.2,0.2,0.8,0.8,0.2,0.8,0.2,,,0.6206,,0.8,0.2,0.6,0.4,0.6,0.4,0.4,0.6,1,0
,,6006ae13a40ec00348555219,66fcb728b5299936d1513433,2024-10-02_05h09.57.588,mdp,2024.2.1,Win32,60.24096386,66fa4ebf79326e780c390304,,,,,,,,,,,,,,,,,,,,,1050.4729,1050.4729,1050.4738,1051.0727,0,1,left,0.0681,,1051.0738,1052.156,0,0,left,1052.157,1053.1729,0,0,left,1,1053.1729,1053.1729,1053.1739,1054.672,0,46,46,46,1,0.6,0.4,0.8,0.2,,,,,,,,,,,,,,,0.5519,,0.8,0.2,0.2,0.8,0.8,0.2,0.8,0.2,,,0.4797,,0.8,0.2,0.6,0.4,0.6,0.4,0.4,0.6,1,0
,,6006ae13a40ec00348555219,66fcb728b5299936d1513433,2024-10-02_05h09.57.588,mdp,2024.2.1,Win32,60.24096386,66fa4ebf79326e780c390304,,,,,,,,,,,,,,,,,,,,,1054.6728,1054.6729,1054.6738,1055.3227,1,1,right,0.1213,,1055.3237,1056.389,1,0,right,1056.39,1057.4226,1,0,right,1,1057.4227,1057.4227,1057.4236,1058.9221,0,47,47,47,1,0.6,0.4,0.8,0.2,,,,,,,,,,,,,,,0.5419,,0.8,0.2,0.2,0.8,0.8,0.2,0.8,0.2,,,0.508,,0.8,0.2,0.6,0.4,0.6,0.4,0.4,0.6,1,0
,,6006ae13a40ec00348555219,66fcb728b5299936d1513433,2024-10-02_05h09.57.588,mdp,2024.2.1,Win32,60.24096386,66fa4ebf79326e780c390304,,,,,,,,,,,,,,,,,,,,,1058.9227,1058.9227,1058.9239,1059.788,0,1,left,0.3395,,1059.7902,1060.8564,0,0,left,1060.8573,1061.8892,0,0,left,1,1061.8893,1061.8893,1061.8907,1063.3888,0,48,48,48,1,0.6,0.4,0.8,0.2,,,,,,,,,,,,,,,0.5575,,0.8,0.2,0.2,0.8,0.8,0.2,0.8,0.2,,,0.5044,,0.8,0.2,0.6,0.4,0.6,0.4,0.4,0.6,1,0
,,6006ae13a40ec00348555219,66fcb728b5299936d1513433,2024-10-02_05h09.57.588,mdp,2024.2.1,Win32,60.24096386,66fa4ebf79326e780c390304,,,,,,,,,,,,,,,,,,,,,1063.3898,1063.3898,1063.3908,1063.9393,0,1,left,0.0209,,1063.9405,1064.9227,0,1,left,1064.9238,1065.9569,0,1,left,0,1065.9569,1065.957,1065.9578,1067.4557,0,49,49,49,1,0.6,0.4,0.8,0.2,,,,,,,,,,,,,,,0.4516,,0.8,0.2,0.2,0.8,0.8,0.2,0.8,0.2,,,0.509,,0.8,0.2,0.6,0.4,0.6,0.4,0.4,0.6,1,0
,,6006ae13a40ec00348555219,66fcb728b5299936d1513433,2024-10-02_05h09.57.588,mdp,2024.2.1,Win32,60.24096386,66fa4ebf79326e780c390304,,,,,,,,,,,,,,,,,,,,,,,,,,,,,,,,,,,,,,,,,,,,,,,,,,,,,,,,1067.456,1125.9717,0,2,2,1,1,imgs/rabbit.png,imgs/dog.png,imgs/goat.png,imgs/pig.png,imgs/kangaroo.png,,,,,,,,,,,,,,,,,,,,,,,,
,,6006ae13a40ec00348555219,66fcb728b5299936d1513433,2024-10-02_05h09.57.588,mdp,2024.2.1,Win32,60.24096386,66fa4ebf79326e780c390304,,,,,,,,,,,,,,3,seqs/st3seq11.csv,1125.9724,1134.805,space,8.3001,,1134.8112,1134.8112,1134.812,1135.9051,0,1,left,0.5717,,1135.9061,1137.0053,0,1,left,1137.0064,1137.9713,0,0,left,1,1137.9713,1137.9713,1137.9729,1139.4712,0,0,0,0,1,0.8,0.2,0.2,0.8,,,,,,,,,,,,,,,0.5647,,0.8,0.2,0.2,0.8,0.2,0.8,0.2,0.8,,,0.4394,,0.6,0.4,0.2,0.8,0.2,0.8,0.4,0.6,1,0
,,6006ae13a40ec00348555219,66fcb728b5299936d1513433,2024-10-02_05h09.57.588,mdp,2024.2.1,Win32,60.24096386,66fa4ebf79326e780c390304,,,,,,,,,,,,,,,,,,,,,1139.4721,1139.4721,1139.473,1140.0224,0,0,left,0.0241,,1140.0235,1141.0555,0,0,left,1141.0566,1142.0554,0,0,left,1,1142.0554,1142.0555,1142.0564,1143.555,0,1,1,1,1,0.8,0.2,0.2,0.8,,,,,,,,,,,,,,,0.4962,,0.8,0.2,0.2,0.8,0.2,0.8,0.2,0.8,,,0.4627,,0.6,0.4,0.2,0.8,0.2,0.8,0.4,0.6,1,0
,,6006ae13a40ec00348555219,66fcb728b5299936d1513433,2024-10-02_05h09.57.588,mdp,2024.2.1,Win32,60.24096386,66fa4ebf79326e780c390304,,,,,,,,,,,,,,,,,,,,,1143.5557,1143.5557,1143.5566,1144.1053,0,0,left,0.023,,1144.1063,1145.1039,0,0,left,1145.1056,1146.0554,0,1,left,0,1146.0556,1146.0556,1146.0566,1147.5544,0,2,2,2,1,0.8,0.2,0.2,0.8,,,,,,,,,,,,,,,0.4749,,0.8,0.2,0.2,0.8,0.2,0.8,0.2,0.8,,,0.4357,,0.6,0.4,0.2,0.8,0.2,0.8,0.4,0.6,1,0
,,6006ae13a40ec00348555219,66fcb728b5299936d1513433,2024-10-02_05h09.57.588,mdp,2024.2.1,Win32,60.24096386,66fa4ebf79326e780c390304,,,,,,,,,,,,,,,,,,,,,1147.5553,1147.5553,1147.5561,1148.9055,0,0,left,0.822,,1148.9065,1149.9384,0,0,left,1149.9393,1150.8722,0,0,left,1,1150.8724,1150.8724,1150.8735,1152.3715,0,3,3,3,1,0.8,0.2,0.2,0.8,,,,,,,,,,,,,,,0.5007,,0.8,0.2,0.2,0.8,0.2,0.8,0.2,0.8,,,0.4043,,0.6,0.4,0.2,0.8,0.2,0.8,0.4,0.6,1,0
,,6006ae13a40ec00348555219,66fcb728b5299936d1513433,2024-10-02_05h09.57.588,mdp,2024.2.1,Win32,60.24096386,66fa4ebf79326e780c390304,,,,,,,,,,,,,,,,,,,,,1152.3722,1152.3722,1152.3732,1153.6053,0,0,left,0.7011,,1153.6063,1154.4719,0,0,left,1154.4728,1155.4053,0,0,left,1,1155.4053,1155.4053,1155.4064,1156.9045,0,4,4,4,1,0.8,0.2,0.2,0.8,,,,,,,,,,,,,,,0.3436,,0.8,0.2,0.2,0.8,0.4,0.6,0.4,0.6,,,0.4003,,0.6,0.4,0.2,0.8,0.2,0.8,0.4,0.6,1,0
,,6006ae13a40ec00348555219,66fcb728b5299936d1513433,2024-10-02_05h09.57.588,mdp,2024.2.1,Win32,60.24096386,66fa4ebf79326e780c390304,,,,,,,,,,,,,,,,,,,,,1156.905,1156.905,1156.9061,1158.3051,0,0,left,0.8836,,1158.3063,1159.255,0,0,left,1159.2562,1160.1726,0,1,left,0,1160.1726,1160.1726,1160.1735,1161.6717,0,5,5,5,1,0.8,0.2,0.2,0.8,,,,,,,,,,,,,,,0.4171,,0.8,0.2,0.2,0.8,0.4,0.6,0.4,0.6,,,0.3873,,0.6,0.4,0.2,0.8,0.2,0.8,0.4,0.6,1,0
,,6006ae13a40ec00348555219,66fcb728b5299936d1513433,2024-10-02_05h09.57.588,mdp,2024.2.1,Win32,60.24096386,66fa4ebf79326e780c390304,,,,,,,,,,,,,,,,,,,,,1161.6725,1161.6725,1161.6734,1162.5219,0,0,left,0.3175,,1162.523,1165.0218,0,0,left,1165.0228,1166.0895,0,1,left,0,1166.0896,1166.0896,1166.0905,1167.5877,0,6,6,6,1,0.8,0.2,0.2,0.8,,,,,,,,,,,,,,,1.9673,,0.8,0.2,0.2,0.8,0.4,0.6,0.4,0.6,,,0.5466,,0.6,0.4,0.2,0.8,0.2,0.8,0.4,0.6,1,0
,,6006ae13a40ec00348555219,66fcb728b5299936d1513433,2024-10-02_05h09.57.588,mdp,2024.2.1,Win32,60.24096386,66fa4ebf79326e780c390304,,,,,,,,,,,,,,,,,,,,,1167.5884,1167.5885,1167.5894,1168.1224,0,0,left,0.0133,,1168.1232,1169.155,0,0,left,1169.1559,1170.1216,0,0,left,1,1170.1217,1170.1217,1170.1226,1171.6216,0,7,7,7,1,0.8,0.2,0.2,0.8,,,,,,,,,,,,,,,0.5092,,0.8,0.2,0.2,0.8,0.4,0.6,0.4,0.6,,,0.4391,,0.6,0.4,0.2,0.8,0.2,0.8,0.4,0.6,1,0
,,6006ae13a40ec00348555219,66fcb728b5299936d1513433,2024-10-02_05h09.57.588,mdp,2024.2.1,Win32,60.24096386,66fa4ebf79326e780c390304,,,,,,,,,,,,,,,,,,,,,1171.6226,1171.6226,1171.6236,1172.1719,0,0,left,0.0374,,1172.173,1173.1886,0,0,left,1173.1896,1174.2387,0,0,left,1,1174.2388,1174.2388,1174.2399,1175.7379,0,8,8,8,1,0.8,0.2,0.2,0.8,,,,,,,,,,,,,,,0.4849,,0.8,0.2,0.2,0.8,0.4,0.6,0.4,0.6,,,0.52,,0.6,0.4,0.2,0.8,0.2,0.8,0.4,0.6,1,0
,,6006ae13a40ec00348555219,66fcb728b5299936d1513433,2024-10-02_05h09.57.588,mdp,2024.2.1,Win32,60.24096386,66fa4ebf79326e780c390304,,,,,,,,,,,,,,,,,,,,,1175.739,1175.739,1175.7399,1176.4551,1,0,right,0.1849,,1176.4563,1177.4219,1,1,right,1177.4229,1178.4219,1,1,right,0,1178.4219,1178.4219,1178.4231,1179.9213,0,9,9,9,1,0.8,0.2,0.2,0.8,,,,,,,,,,,,,,,0.4436,,0.8,0.2,0.2,0.8,0.4,0.6,0.4,0.6,,,0.4672,,0.6,0.4,0.2,0.8,0.2,0.8,0.4,0.6,1,0
,,6006ae13a40ec00348555219,66fcb728b5299936d1513433,2024-10-02_05h09.57.588,mdp,2024.2.1,Win32,60.24096386,66fa4ebf79326e780c390304,,,,,,,,,,,,,,,,,,,,,1179.9223,1179.9223,1179.9238,1181.3383,1,0,right,0.8882,,1181.3393,1182.3048,1,1,right,1182.3057,1183.2883,1,1,right,0,1183.2885,1183.2885,1183.2895,1184.7881,0,10,10,10,1,0.8,0.2,0.2,0.8,,,,,,,,,,,,,,,0.4394,,0.8,0.2,0.2,0.8,0.4,0.6,0.4,0.6,,,0.4509,,0.6,0.4,0.2,0.8,0.2,0.8,0.4,0.6,1,0
,,6006ae13a40ec00348555219,66fcb728b5299936d1513433,2024-10-02_05h09.57.588,mdp,2024.2.1,Win32,60.24096386,66fa4ebf79326e780c390304,,,,,,,,,,,,,,,,,,,,,1184.7886,1184.7886,1184.7896,1186.0385,1,1,right,0.7179,,1186.0397,1186.9894,1,0,right,1186.9907,1187.955,1,1,right,0,1187.955,1187.955,1187.9561,1189.4545,0,11,11,11,1,0.8,0.2,0.2,0.8,,,,,,,,,,,,,,,0.4221,,0.8,0.2,0.2,0.8,0.4,0.6,0.4,0.6,,,0.4297,,0.6,0.4,0.2,0.8,0.2,0.8,0.4,0.6,1,0
,,6006ae13a40ec00348555219,66fcb728b5299936d1513433,2024-10-02_05h09.57.588,mdp,2024.2.1,Win32,60.24096386,66fa4ebf79326e780c390304,,,,,,,,,,,,,,,,,,,,,1189.4554,1189.4554,1189.4563,1190.1892,1,1,right,0.2136,,1190.1901,1191.0717,1,0,right,1191.0727,1191.9548,1,1,right,0,1191.9548,1191.9548,1191.9558,1193.4548,0,12,12,12,1,0.8,0.2,0.2,0.8,,,,,,,,,,,,,,,0.3511,,0.8,0.2,0.2,0.8,0.4,0.6,0.4,0.6,,,0.36,,0.6,0.4,0.2,0.8,0.2,0.8,0.4,0.6,1,0
,,6006ae13a40ec00348555219,66fcb728b5299936d1513433,2024-10-02_05h09.57.588,mdp,2024.2.1,Win32,60.24096386,66fa4ebf79326e780c390304,,,,,,,,,,,,,,,,,,,,,1193.4553,1193.4553,1193.4561,1194.238,0,0,left,0.2601,,1194.2389,1195.188,0,0,left,1195.1889,1196.1379,0,1,left,0,1196.138,1196.138,1196.1394,1197.6377,0,13,13,13,1,0.8,0.2,0.2,0.8,,,,,,,,,,,,,,,0.4212,,0.8,0.2,0.2,0.8,0.4,0.6,0.4,0.6,,,0.4225,,0.2,0.8,0.8,0.2,0.2,0.8,0.4,0.6,1,0
,,6006ae13a40ec00348555219,66fcb728b5299936d1513433,2024-10-02_05h09.57.588,mdp,2024.2.1,Win32,60.24096386,66fa4ebf79326e780c390304,,,,,,,,,,,,,,,,,,,,,1197.6382,1197.6382,1197.6395,1198.738,0,0,left,0.5712,,1198.7389,1199.5883,0,0,left,1199.5894,1200.4884,0,1,left,0,1200.4885,1200.4885,1200.4894,1201.9875,0,14,14,14,1,0.8,0.2,0.2,0.8,,,,,,,,,,,,,,,0.3217,,0.8,0.2,0.2,0.8,0.4,0.6,0.4,0.6,,,0.3792,,0.2,0.8,0.8,0.2,0.2,0.8,0.4,0.6,1,0
,,6006ae13a40ec00348555219,66fcb728b5299936d1513433,2024-10-02_05h09.57.588,mdp,2024.2.1,Win32,60.24096386,66fa4ebf79326e780c390304,,,,,,,,,,,,,,,,,,,,,1201.9884,1201.9884,1201.9893,1203.0548,0,1,left,0.5406,,1203.0558,1203.9383,0,1,left,1203.9394,1204.8047,0,1,left,0,1204.8047,1204.8047,1204.8057,1206.3045,0,15,15,15,1,0.8,0.2,0.2,0.8,,,,,,,,,,,,,,,0.3455,,0.8,0.2,0.2,0.8,0.4,0.6,0.4,0.6,,,0.3395,,0.2,0.8,0.8,0.2,0.2,0.8,0.4,0.6,1,0
,,6006ae13a40ec00348555219,66fcb728b5299936d1513433,2024-10-02_05h09.57.588,mdp,2024.2.1,Win32,60.24096386,66fa4ebf79326e780c390304,,,,,,,,,,,,,,,,,,,,,1206.3054,1206.3054,1206.3063,1207.1217,0,0,left,0.2836,,1207.1227,1208.1216,0,1,left,1208.1226,1209.1223,0,1,left,0,1209.1223,1209.1223,1209.1235,1210.6211,0,16,16,16,1,0.8,0.2,0.2,0.8,,,,,,,,,,,,,,,0.4682,,0.8,0.2,0.2,0.8,0.4,0.6,0.4,0.6,,,0.4743,,0.2,0.8,0.8,0.2,0.2,0.8,0.4,0.6,1,0
,,6006ae13a40ec00348555219,66fcb728b5299936d1513433,2024-10-02_05h09.57.588,mdp,2024.2.1,Win32,60.24096386,66fa4ebf79326e780c390304,,,,,,,,,,,,,,,,,,,,,1210.6218,1210.6218,1210.6229,1211.2714,0,1,left,0.1167,,1211.2727,1212.2883,0,0,left,1212.2895,1213.2547,0,1,left,0,1213.2548,1213.2548,1213.2558,1214.7546,0,17,17,17,1,0.6,0.4,0.6,0.4,,,,,,,,,,,,,,,0.483,,0.8,0.2,0.2,0.8,0.4,0.6,0.4,0.6,,,0.4376,,0.2,0.8,0.8,0.2,0.2,0.8,0.4,0.6,1,0
,,6006ae13a40ec00348555219,66fcb728b5299936d1513433,2024-10-02_05h09.57.588,mdp,2024.2.1,Win32,60.24096386,66fa4ebf79326e780c390304,,,,,,,,,,,,,,,,,,,,,1214.7555,1214.7556,1214.7565,1216.1216,0,0,left,0.844,,1216.1227,1217.1378,0,0,left,1217.1392,1218.1216,0,1,left,0,1218.1217,1218.1217,1218.1227,1219.621,0,18,18,18,1,0.6,0.4,0.6,0.4,,,,,,,,,,,,,,,0.4832,,0.8,0.2,0.2,0.8,0.4,0.6,0.4,0.6,,,0.4521,,0.2,0.8,0.8,0.2,0.2,0.8,0.4,0.6,1,0
,,6006ae13a40ec00348555219,66fcb728b5299936d1513433,2024-10-02_05h09.57.588,mdp,2024.2.1,Win32,60.24096386,66fa4ebf79326e780c390304,,,,,,,,,,,,,,,,,,,,,1219.6215,1219.6215,1219.6226,1221.1052,0,0,left,0.9528,,1221.1062,1222.1381,0,0,left,1222.1391,1223.1887,0,1,left,0,1223.1887,1223.1887,1223.1896,1224.6876,0,19,19,19,1,0.6,0.4,0.6,0.4,,,,,,,,,,,,,,,0.5077,,0.8,0.2,0.2,0.8,0.4,0.6,0.4,0.6,,,0.5172,,0.2,0.8,0.8,0.2,0.2,0.8,0.4,0.6,1,0
,,6006ae13a40ec00348555219,66fcb728b5299936d1513433,2024-10-02_05h09.57.588,mdp,2024.2.1,Win32,60.24096386,66fa4ebf79326e780c390304,,,,,,,,,,,,,,,,,,,,,1224.6882,1224.6882,1224.6895,1225.2881,1,0,right,0.0776,,1225.289,1226.2382,1,1,right,1226.2393,1227.2719,1,1,right,0,1227.272,1227.272,1227.2729,1228.7709,0,20,20,20,1,0.6,0.4,0.6,0.4,,,,,,,,,,,,,,,0.4196,,0.8,0.2,0.2,0.8,0.4,0.6,0.4,0.6,,,0.4963,,0.2,0.8,0.8,0.2,0.2,0.8,0.4,0.6,1,0
,,6006ae13a40ec00348555219,66fcb728b5299936d1513433,2024-10-02_05h09.57.588,mdp,2024.2.1,Win32,60.24096386,66fa4ebf79326e780c390304,,,,,,,,,,,,,,,,,,,,,1228.7719,1228.7719,1228.7728,1229.3049,1,1,right,0.0132,,1229.3065,1230.3219,1,1,right,1230.3229,1231.3878,1,0,right,1,1231.3879,1231.3879,1231.3888,1232.8877,0,21,21,21,1,0.6,0.4,0.6,0.4,,,,,,,,,,,,,,,0.4805,,0.8,0.2,0.2,0.8,0.6,0.4,0.2,0.8,,,0.5402,,0.2,0.8,0.8,0.2,0.2,0.8,0.4,0.6,1,0
,,6006ae13a40ec00348555219,66fcb728b5299936d1513433,2024-10-02_05h09.57.588,mdp,2024.2.1,Win32,60.24096386,66fa4ebf79326e780c390304,,,,,,,,,,,,,,,,,,,,,1232.8886,1232.8886,1232.8895,1233.5213,1,1,right,0.1046,,1233.5226,1234.5217,1,0,right,1234.5228,1235.6047,1,0,right,1,1235.6048,1235.6048,1235.6059,1237.1039,0,22,22,22,1,0.6,0.4,0.6,0.4,,,,,,,,,,,,,,,0.475,,0.8,0.2,0.2,0.8,0.6,0.4,0.2,0.8,,,0.5639,,0.2,0.8,0.8,0.2,0.8,0.2,0.2,0.8,1,0
,,6006ae13a40ec00348555219,66fcb728b5299936d1513433,2024-10-02_05h09.57.588,mdp,2024.2.1,Win32,60.24096386,66fa4ebf79326e780c390304,,,,,,,,,,,,,,,,,,,,,1237.1046,1237.1046,1237.1058,1238.5382,1,1,right,0.903,,1238.5395,1239.5059,1,0,right,1239.5072,1240.4905,1,0,right,1,1240.4905,1240.4906,1240.4913,1241.9875,0,23,23,23,1,0.6,0.4,0.6,0.4,,,,,,,,,,,,,,,0.4468,,0.6,0.4,0.6,0.4,0.6,0.4,0.2,0.8,,,0.4654,,0.2,0.8,0.8,0.2,0.8,0.2,0.2,0.8,1,0
,,6006ae13a40ec00348555219,66fcb728b5299936d1513433,2024-10-02_05h09.57.588,mdp,2024.2.1,Win32,60.24096386,66fa4ebf79326e780c390304,,,,,,,,,,,,,,,,,,,,,1241.9884,1241.9884,1241.9894,1242.6212,0,0,left,0.1115,,1242.6222,1243.6713,0,0,left,1243.6725,1244.6889,0,1,left,0,1244.6889,1244.6889,1244.6899,1246.1877,0,24,24,24,1,0.6,0.4,0.6,0.4,,,,,,,,,,,,,,,0.5225,,0.6,0.4,0.6,0.4,0.6,0.4,0.2,0.8,,,0.4971,,0.2,0.8,0.8,0.2,0.8,0.2,0.2,0.8,1,0
,,6006ae13a40ec00348555219,66fcb728b5299936d1513433,2024-10-02_05h09.57.588,mdp,2024.2.1,Win32,60.24096386,66fa4ebf79326e780c390304,,,,,,,,,,,,,,,,,,,,,1246.1883,1246.1884,1246.1893,1247.5213,1,1,right,0.8044,,1247.5223,1248.5043,1,1,right,1248.5054,1249.405,1,1,right,0,1249.4051,1249.4051,1249.4063,1250.9037,0,25,25,25,1,0.6,0.4,0.6,0.4,,,,,,,,,,,,,,,0.457,,0.6,0.4,0.6,0.4,0.6,0.4,0.2,0.8,,,0.3694,,0.2,0.8,0.8,0.2,0.8,0.2,0.2,0.8,1,0
,,6006ae13a40ec00348555219,66fcb728b5299936d1513433,2024-10-02_05h09.57.588,mdp,2024.2.1,Win32,60.24096386,66fa4ebf79326e780c390304,,,,,,,,,,,,,,,,,,,,,1250.9046,1250.9046,1250.9054,1251.4714,0,0,left,0.0442,,1251.4725,1252.4887,0,1,left,1252.4896,1253.4384,0,0,left,1,1253.4384,1253.4385,1253.4396,1254.9378,0,26,26,26,1,0.6,0.4,0.6,0.4,,,,,,,,,,,,,,,0.4925,,0.6,0.4,0.6,0.4,0.6,0.4,0.2,0.8,,,0.4208,,0.2,0.8,0.8,0.2,0.8,0.2,0.2,0.8,1,0
,,6006ae13a40ec00348555219,66fcb728b5299936d1513433,2024-10-02_05h09.57.588,mdp,2024.2.1,Win32,60.24096386,66fa4ebf79326e780c390304,,,,,,,,,,,,,,,,,,,,,1254.9386,1254.9386,1254.9399,1255.4883,1,1,right,0.025,,1255.4896,1256.5214,1,1,right,1256.5223,1257.4879,1,1,right,0,1257.4879,1257.4879,1257.4889,1258.9876,0,27,27,27,1,0.6,0.4,0.6,0.4,,,,,,,,,,,,,,,0.4963,,0.6,0.4,0.6,0.4,0.6,0.4,0.2,0.8,,,0.4386,,0.2,0.8,0.8,0.2,0.8,0.2,0.2,0.8,1,0
,,6006ae13a40ec00348555219,66fcb728b5299936d1513433,2024-10-02_05h09.57.588,mdp,2024.2.1,Win32,60.24096386,66fa4ebf79326e780c390304,,,,,,,,,,,,,,,,,,,,,1258.9881,1258.9881,1258.989,1259.521,1,1,right,0.0081,,1259.522,1260.5376,1,1,right,1260.5386,1261.5044,1,1,right,0,1261.5044,1261.5044,1261.5055,1263.0038,0,28,28,28,1,0.6,0.4,0.6,0.4,,,,,,,,,,,,,,,0.4884,,0.6,0.4,0.6,0.4,0.6,0.4,0.2,0.8,,,0.4343,,0.2,0.8,0.8,0.2,0.8,0.2,0.2,0.8,1,0
,,6006ae13a40ec00348555219,66fcb728b5299936d1513433,2024-10-02_05h09.57.588,mdp,2024.2.1,Win32,60.24096386,66fa4ebf79326e780c390304,,,,,,,,,,,,,,,,,,,,,1263.0043,1263.0043,1263.0055,1264.3544,0,0,left,0.8418,,1264.3554,1265.3707,0,0,left,1265.3725,1266.3214,0,0,left,1,1266.3214,1266.3214,1266.3224,1267.8206,0,29,29,29,1,0.6,0.4,0.6,0.4,,,,,,,,,,,,,,,0.4797,,0.6,0.4,0.6,0.4,0.6,0.4,0.2,0.8,,,0.4152,,0.2,0.8,0.8,0.2,0.8,0.2,0.2,0.8,1,0
,,6006ae13a40ec00348555219,66fcb728b5299936d1513433,2024-10-02_05h09.57.588,mdp,2024.2.1,Win32,60.24096386,66fa4ebf79326e780c390304,,,,,,,,,,,,,,,,,,,,,1267.8213,1267.8213,1267.8223,1268.5043,0,1,left,0.1502,,1268.5053,1269.6046,0,0,left,1269.6057,1270.5717,0,1,left,0,1270.5719,1270.5719,1270.5728,1272.0703,0,30,30,30,1,0.6,0.4,0.6,0.4,,,,,,,,,,,,,,,0.5708,,0.6,0.4,0.6,0.4,0.6,0.4,0.2,0.8,,,0.446,,0.2,0.8,0.8,0.2,0.8,0.2,0.2,0.8,1,0
,,6006ae13a40ec00348555219,66fcb728b5299936d1513433,2024-10-02_05h09.57.588,mdp,2024.2.1,Win32,60.24096386,66fa4ebf79326e780c390304,,,,,,,,,,,,,,,,,,,,,1272.0711,1272.0711,1272.0722,1273.5542,0,0,left,0.9514,,1273.5552,1274.5376,0,1,left,1274.5387,1275.5542,0,0,left,1,1275.5543,1275.5543,1275.5552,1277.0544,0,31,31,31,1,0.6,0.4,0.6,0.4,,,,,,,,,,,,,,,0.448,,0.6,0.4,0.6,0.4,0.6,0.4,0.2,0.8,,,0.473,,0.2,0.8,0.8,0.2,0.8,0.2,0.2,0.8,1,0
,,6006ae13a40ec00348555219,66fcb728b5299936d1513433,2024-10-02_05h09.57.588,mdp,2024.2.1,Win32,60.24096386,66fa4ebf79326e780c390304,,,,,,,,,,,,,,,,,,,,,1277.0547,1277.0547,1277.0558,1278.8211,1,0,right,1.2379,,1278.8223,1279.839,1,0,right,1279.8399,1280.8043,1,1,right,0,1280.8044,1280.8044,1280.8054,1282.3036,0,32,32,32,1,0.6,0.4,0.6,0.4,,,,,,,,,,,,,,,0.4973,,0.6,0.4,0.6,0.4,0.6,0.4,0.2,0.8,,,0.4346,,0.2,0.8,0.8,0.2,0.8,0.2,0.2,0.8,1,0
,,6006ae13a40ec00348555219,66fcb728b5299936d1513433,2024-10-02_05h09.57.588,mdp,2024.2.1,Win32,60.24096386,66fa4ebf79326e780c390304,,,,,,,,,,,,,,,,,,,,,1282.3042,1282.3042,1282.3056,1283.8044,1,1,right,0.9707,,1283.8054,1284.7877,1,0,right,1284.7889,1285.7541,1,0,right,1,1285.7542,1285.7542,1285.7552,1287.2535,0,33,33,33,1,0.6,0.4,0.6,0.4,,,,,,,,,,,,,,,0.4528,,0.6,0.4,0.6,0.4,0.6,0.4,0.2,0.8,,,0.4379,,0.2,0.8,0.8,0.2,0.8,0.2,0.2,0.8,1,0
,,6006ae13a40ec00348555219,66fcb728b5299936d1513433,2024-10-02_05h09.57.588,mdp,2024.2.1,Win32,60.24096386,66fa4ebf79326e780c390304,,,,,,,,,,,,,,,,,,,,,1287.2546,1287.2546,1287.2557,1288.7874,0,0,left,1.0096,,1288.7883,1289.7876,0,0,left,1289.7885,1290.8209,0,1,left,0,1290.8209,1290.821,1290.8222,1292.3206,0,34,34,34,1,0.6,0.4,0.6,0.4,,,,,,,,,,,,,,,0.4684,,0.6,0.4,0.6,0.4,0.6,0.4,0.2,0.8,,,0.5085,,0.2,0.8,0.8,0.2,0.8,0.2,0.2,0.8,1,0
,,6006ae13a40ec00348555219,66fcb728b5299936d1513433,2024-10-02_05h09.57.588,mdp,2024.2.1,Win32,60.24096386,66fa4ebf79326e780c390304,,,,,,,,,,,,,,,,,,,,,1292.3216,1292.3216,1292.3225,1293.0212,0,1,left,0.1705,,1293.0224,1294.0714,0,0,left,1294.0722,1295.0876,0,0,left,1,1295.0876,1295.0876,1295.0888,1296.5872,0,35,35,35,1,0.6,0.4,0.6,0.4,,,,,,,,,,,,,,,0.525,,0.6,0.4,0.6,0.4,0.6,0.4,0.2,0.8,,,0.488,,0.2,0.8,0.8,0.2,0.8,0.2,0.2,0.8,1,0
,,6006ae13a40ec00348555219,66fcb728b5299936d1513433,2024-10-02_05h09.57.588,mdp,2024.2.1,Win32,60.24096386,66fa4ebf79326e780c390304,,,,,,,,,,,,,,,,,,,,,1296.5882,1296.5882,1296.5891,1298.0206,1,1,right,0.9094,,1298.0218,1299.1209,1,1,right,1299.1218,1300.1208,1,0,right,1,1300.1209,1300.1209,1300.122,1301.6204,0,36,36,36,1,0.6,0.4,0.6,0.4,,,,,,,,,,,,,,,0.5761,,0.6,0.4,0.6,0.4,0.6,0.4,0.2,0.8,,,0.4624,,0.2,0.8,0.8,0.2,0.8,0.2,0.2,0.8,1,0
,,6006ae13a40ec00348555219,66fcb728b5299936d1513433,2024-10-02_05h09.57.588,mdp,2024.2.1,Win32,60.24096386,66fa4ebf79326e780c390304,,,,,,,,,,,,,,,,,,,,,1301.6214,1301.6214,1301.6223,1302.2041,0,0,left,0.0536,,1302.205,1303.5539,0,1,left,1303.555,1304.804,0,0,left,1,1304.804,1304.804,1304.8051,1306.3034,0,37,37,37,1,0.6,0.4,0.6,0.4,,,,,,,,,,,,,,,0.8199,,0.6,0.4,0.6,0.4,0.6,0.4,0.2,0.8,,,0.7265,,0.2,0.8,0.8,0.2,0.8,0.2,0.2,0.8,1,0
,,6006ae13a40ec00348555219,66fcb728b5299936d1513433,2024-10-02_05h09.57.588,mdp,2024.2.1,Win32,60.24096386,66fa4ebf79326e780c390304,,,,,,,,,,,,,,,,,,,,,1306.3043,1306.3043,1306.3053,1307.1374,1,1,right,0.3079,,1307.1387,1308.304,1,0,right,1308.3051,1309.6042,1,1,right,0,1309.6042,1309.6042,1309.6051,1311.1037,0,38,38,38,1,0.6,0.4,0.6,0.4,,,,,,,,,,,,,,,0.6318,,0.6,0.4,0.6,0.4,0.6,0.4,0.2,0.8,,,0.7636,,0.2,0.8,0.8,0.2,0.8,0.2,0.2,0.8,1,0
,,6006ae13a40ec00348555219,66fcb728b5299936d1513433,2024-10-02_05h09.57.588,mdp,2024.2.1,Win32,60.24096386,66fa4ebf79326e780c390304,,,,,,,,,,,,,,,,,,,,,1311.1046,1311.1046,1311.1056,1311.7378,1,1,right,0.1006,,1311.7388,1312.8709,1,1,right,1312.8719,1313.9707,1,1,right,0,1313.9707,1313.9707,1313.9717,1315.4704,0,39,39,39,1,0.6,0.4,0.6,0.4,,,,,,,,,,,,,,,0.6051,,0.6,0.4,0.6,0.4,0.6,0.4,0.2,0.8,,,0.5726,,0.2,0.8,0.8,0.2,0.8,0.2,0.2,0.8,1,0
,,6006ae13a40ec00348555219,66fcb728b5299936d1513433,2024-10-02_05h09.57.588,mdp,2024.2.1,Win32,60.24096386,66fa4ebf79326e780c390304,,,,,,,,,,,,,,,,,,,,,1315.4718,1315.4718,1315.4727,1317.2544,1,1,right,1.2551,,1317.2553,1318.2877,1,1,right,1318.2887,1319.3039,1,1,right,0,1319.304,1319.304,1319.3049,1320.8034,0,40,40,40,1,0.6,0.4,0.6,0.4,,,,,,,,,,,,,,,0.5166,,0.6,0.4,0.6,0.4,0.6,0.4,0.2,0.8,,,0.4909,,0.2,0.8,0.8,0.2,0.8,0.2,0.2,0.8,1,0
,,6006ae13a40ec00348555219,66fcb728b5299936d1513433,2024-10-02_05h09.57.588,mdp,2024.2.1,Win32,60.24096386,66fa4ebf79326e780c390304,,,,,,,,,,,,,,,,,,,,,1320.8042,1320.8042,1320.8051,1322.1879,0,0,left,0.856,,1322.1888,1323.304,0,0,left,1323.305,1324.3882,0,1,left,0,1324.3883,1324.3883,1324.3892,1325.8869,0,41,41,41,1,0.6,0.4,0.6,0.4,,,,,,,,,,,,,,,0.5885,,0.6,0.4,0.6,0.4,0.6,0.4,0.2,0.8,,,0.5594,,0.2,0.8,0.8,0.2,0.8,0.2,0.2,0.8,1,0
,,6006ae13a40ec00348555219,66fcb728b5299936d1513433,2024-10-02_05h09.57.588,mdp,2024.2.1,Win32,60.24096386,66fa4ebf79326e780c390304,,,,,,,,,,,,,,,,,,,,,1325.8879,1325.8879,1325.8888,1327.354,0,0,left,0.9341,,1327.3553,1328.3371,0,1,left,1328.338,1329.2882,0,0,left,1,1329.2882,1329.2882,1329.2892,1330.7869,0,42,42,42,1,0.6,0.4,0.6,0.4,,,,,,,,,,,,,,,0.4591,,0.6,0.4,0.6,0.4,0.6,0.4,0.2,0.8,,,0.4259,,0.2,0.8,0.8,0.2,0.8,0.2,0.2,0.8,1,0
,,6006ae13a40ec00348555219,66fcb728b5299936d1513433,2024-10-02_05h09.57.588,mdp,2024.2.1,Win32,60.24096386,66fa4ebf79326e780c390304,,,,,,,,,,,,,,,,,,,,,1330.7875,1330.7875,1330.7886,1331.3209,0,1,left,0.0004,,1331.3219,1332.3874,0,0,left,1332.3885,1333.4038,0,0,left,1,1333.4038,1333.4039,1333.4049,1334.9032,0,43,43,43,1,0.6,0.4,0.6,0.4,,,,,,,,,,,,,,,0.5336,,0.6,0.4,0.6,0.4,0.6,0.4,0.2,0.8,,,0.4788,,0.2,0.8,0.8,0.2,0.8,0.2,0.2,0.8,1,0
,,6006ae13a40ec00348555219,66fcb728b5299936d1513433,2024-10-02_05h09.57.588,mdp,2024.2.1,Win32,60.24096386,66fa4ebf79326e780c390304,,,,,,,,,,,,,,,,,,,,,1334.904,1334.904,1334.9049,1335.4707,0,1,left,0.0367,,1335.472,1336.5875,0,0,left,1336.5885,1337.7882,0,0,left,1,1337.7883,1337.7883,1337.7893,1339.2875,0,44,44,44,1,0.6,0.4,0.6,0.4,,,,,,,,,,,,,,,0.5882,,0.6,0.4,0.6,0.4,0.6,0.4,0.2,0.8,,,0.6807,,0.2,0.8,0.8,0.2,0.8,0.2,0.2,0.8,1,0
,,6006ae13a40ec00348555219,66fcb728b5299936d1513433,2024-10-02_05h09.57.588,mdp,2024.2.1,Win32,60.24096386,66fa4ebf79326e780c390304,,,,,,,,,,,,,,,,,,,,,1339.2878,1339.2878,1339.2887,1340.1707,0,0,left,0.3505,,1340.1717,1341.3207,0,0,left,1341.3217,1342.4537,0,1,left,0,1342.4538,1342.4538,1342.4547,1343.9532,0,45,45,45,1,0.6,0.4,0.6,0.4,,,,,,,,,,,,,,,0.6185,,0.6,0.4,0.6,0.4,0.6,0.4,0.2,0.8,,,0.6072,,0.2,0.8,0.8,0.2,0.8,0.2,0.2,0.8,1,0
,,6006ae13a40ec00348555219,66fcb728b5299936d1513433,2024-10-02_05h09.57.588,mdp,2024.2.1,Win32,60.24096386,66fa4ebf79326e780c390304,,,,,,,,,,,,,,,,,,,,,1343.954,1343.954,1343.9549,1344.8209,0,1,left,0.3352,,1344.822,1345.9884,0,0,left,1345.9893,1347.1037,0,0,left,1,1347.1038,1347.1038,1347.1047,1348.6035,0,46,46,46,1,0.6,0.4,0.6,0.4,,,,,,,,,,,,,,,0.6426,,0.6,0.4,0.6,0.4,0.6,0.4,0.2,0.8,,,0.5927,,0.2,0.8,0.8,0.2,0.8,0.2,0.2,0.8,1,0
,,6006ae13a40ec00348555219,66fcb728b5299936d1513433,2024-10-02_05h09.57.588,mdp,2024.2.1,Win32,60.24096386,66fa4ebf79326e780c390304,,,,,,,,,,,,,,,,,,,,,1348.604,1348.604,1348.6051,1350.2373,0,1,left,1.1171,,1350.2384,1351.3537,0,0,left,1351.3547,1352.4369,0,1,left,0,1352.437,1352.437,1352.4379,1353.9367,0,47,47,47,1,0.6,0.4,0.6,0.4,,,,,,,,,,,,,,,0.584,,0.6,0.4,0.6,0.4,0.6,0.4,0.2,0.8,,,0.5504,,0.2,0.8,0.8,0.2,0.8,0.2,0.2,0.8,1,0
,,6006ae13a40ec00348555219,66fcb728b5299936d1513433,2024-10-02_05h09.57.588,mdp,2024.2.1,Win32,60.24096386,66fa4ebf79326e780c390304,,,,,,,,,,,,,,,,,,,,,1353.9376,1353.9376,1353.9385,1355.3036,0,0,left,0.8431,,1355.3045,1356.3036,0,0,left,1356.3046,1357.3374,0,1,left,0,1357.3375,1357.3376,1357.3386,1358.8367,0,48,48,48,1,0.6,0.4,0.6,0.4,,,,,,,,,,,,,,,0.4631,,0.6,0.4,0.6,0.4,0.6,0.4,0.2,0.8,,,0.5045,,0.2,0.8,0.8,0.2,0.8,0.2,0.2,0.8,1,0
,,6006ae13a40ec00348555219,66fcb728b5299936d1513433,2024-10-02_05h09.57.588,mdp,2024.2.1,Win32,60.24096386,66fa4ebf79326e780c390304,,,,,,,,,,,,,,,,,,,,,1358.8376,1358.8377,1358.8386,1359.587,0,0,left,0.2172,,1359.588,1360.5871,0,0,left,1360.588,1361.6037,0,0,left,1,1361.6037,1361.6038,1361.6048,1363.1029,0,49,49,49,1,0.8,0.2,0.4,0.6,,,,,,,,,,,,,,,0.4672,,0.6,0.4,0.6,0.4,0.6,0.4,0.2,0.8,,,0.4844,,0.2,0.8,0.8,0.2,0.8,0.2,0.2,0.8,1,0
,,6006ae13a40ec00348555219,66fcb728b5299936d1513433,2024-10-02_05h09.57.588,mdp,2024.2.1,Win32,60.24096386,66fa4ebf79326e780c390304,,,,,,,,,,,,,,,,,,,,,,,,,,,,,,,,,,,,,,,,,,,,,,,,,,,,,,,,1363.103,1421.6193,0,3,3,0,1,imgs/dog.png,imgs/cat.png,imgs/lion.png,imgs/elephant.png,imgs/goat.png,,,,,,,,,,,,,,,,,,,,,,,,
,,6006ae13a40ec00348555219,66fcb728b5299936d1513433,2024-10-02_05h09.57.588,mdp,2024.2.1,Win32,60.24096386,66fa4ebf79326e780c390304,,,,,,,,,,,,,,1,seqs/st1seq41.csv,1421.6208,1428.8214,space,6.6804,,1428.8239,1428.8239,1428.8248,1430.5531,0,1,left,1.1977,,1430.5541,1430.5547,0,1,,1430.5552,1430.5557,0,1,,0,1430.5557,1430.5557,1430.5561,1432.0528,0,0,0,0,1,0.2,0.8,0.8,0.2,1,0,,,,,,,,,,,,,,,,,,,,,,,,,,,,,,,,,,,,
,,6006ae13a40ec00348555219,66fcb728b5299936d1513433,2024-10-02_05h09.57.588,mdp,2024.2.1,Win32,60.24096386,66fa4ebf79326e780c390304,,,,,,,,,,,,,,,,,,,,,1432.0534,1432.0535,1432.0544,1433.0201,0,1,left,0.4372,,1433.0212,1433.0218,0,1,,1433.0224,1433.0228,0,1,,0,1433.0229,1433.0229,1433.0234,1434.5193,0,1,1,1,1,0.2,0.8,0.8,0.2,1,0,,,,,,,,,,,,,,,,,,,,,,,,,,,,,,,,,,,,
,,6006ae13a40ec00348555219,66fcb728b5299936d1513433,2024-10-02_05h09.57.588,mdp,2024.2.1,Win32,60.24096386,66fa4ebf79326e780c390304,,,,,,,,,,,,,,,,,,,,,1434.5202,1434.5202,1434.5212,1435.4701,0,0,left,0.4228,,1435.4711,1435.4717,0,1,,1435.4724,1435.4728,0,0,,1,1435.4728,1435.4728,1435.4733,1436.9694,0,2,2,2,1,0.6,0.4,0.2,0.8,1,0,,,,,,,,,,,,,,,,,,,,,,,,,,,,,,,,,,,,
,,6006ae13a40ec00348555219,66fcb728b5299936d1513433,2024-10-02_05h09.57.588,mdp,2024.2.1,Win32,60.24096386,66fa4ebf79326e780c390304,,,,,,,,,,,,,,,,,,,,,1436.97,1436.97,1436.9711,1437.9208,0,0,left,0.43,,1437.9219,1437.9224,0,0,,1437.923,1437.9233,0,0,,1,1437.9233,1437.9234,1437.9239,1439.4197,0,3,3,3,1,0.6,0.4,0.2,0.8,1,0,,,,,,,,,,,,,,,,,,,,,,,,,,,,,,,,,,,,
,,6006ae13a40ec00348555219,66fcb728b5299936d1513433,2024-10-02_05h09.57.588,mdp,2024.2.1,Win32,60.24096386,66fa4ebf79326e780c390304,,,,,,,,,,,,,,,,,,,,,1439.4203,1439.4203,1439.4212,1440.6035,1,1,right,0.6537,,1440.6044,1440.6051,0,1,,1440.6056,1440.606,0,1,,0,1440.606,1440.606,1440.6066,1442.1023,0,4,4,4,1,0.6,0.4,0.2,0.8,1,0,,,,,,,,,,,,,,,,,,,,,,,,,,,,,,,,,,,,
,,6006ae13a40ec00348555219,66fcb728b5299936d1513433,2024-10-02_05h09.57.588,mdp,2024.2.1,Win32,60.24096386,66fa4ebf79326e780c390304,,,,,,,,,,,,,,,,,,,,,1442.1032,1442.1032,1442.1041,1443.304,1,1,right,0.6802,,1443.3052,1443.3057,0,1,,1443.3062,1443.3066,0,1,,0,1443.3066,1443.3066,1443.3072,1444.8024,0,5,5,5,1,0.6,0.4,0.2,0.8,1,0,,,,,,,,,,,,,,,,,,,,,,,,,,,,,,,,,,,,
,,6006ae13a40ec00348555219,66fcb728b5299936d1513433,2024-10-02_05h09.57.588,mdp,2024.2.1,Win32,60.24096386,66fa4ebf79326e780c390304,,,,,,,,,,,,,,,,,,,,,1444.8029,1444.8029,1444.8041,1445.97,1,0,right,0.6381,,1445.9712,1445.9718,0,1,,1445.9723,1445.9728,0,0,,1,1445.9728,1445.9728,1445.9733,1447.469,0,6,6,6,1,0.8,0.2,0.6,0.4,1,0,,,,,,,,,,,,,,,,,,,,,,,,,,,,,,,,,,,,
,,6006ae13a40ec00348555219,66fcb728b5299936d1513433,2024-10-02_05h09.57.588,mdp,2024.2.1,Win32,60.24096386,66fa4ebf79326e780c390304,,,,,,,,,,,,,,,,,,,,,1447.4697,1447.4697,1447.471,1448.6032,1,0,right,0.6015,,1448.6044,1448.6049,0,0,,1448.6056,1448.606,0,1,,1,1448.606,1448.606,1448.6064,1450.1026,0,7,7,7,1,0.8,0.2,0.6,0.4,1,0,,,,,,,,,,,,,,,,,,,,,,,,,,,,,,,,,,,,
,,6006ae13a40ec00348555219,66fcb728b5299936d1513433,2024-10-02_05h09.57.588,mdp,2024.2.1,Win32,60.24096386,66fa4ebf79326e780c390304,,,,,,,,,,,,,,,,,,,,,1450.1033,1450.1033,1450.1042,1451.2031,0,0,left,0.5675,,1451.2043,1451.2049,0,1,,1451.2055,1451.2059,0,1,,1,1451.2059,1451.2059,1451.2063,1452.7025,0,8,8,8,1,0.8,0.2,0.6,0.4,1,0,,,,,,,,,,,,,,,,,,,,,,,,,,,,,,,,,,,,
,,6006ae13a40ec00348555219,66fcb728b5299936d1513433,2024-10-02_05h09.57.588,mdp,2024.2.1,Win32,60.24096386,66fa4ebf79326e780c390304,,,,,,,,,,,,,,,,,,,,,1452.7032,1452.7032,1452.7042,1454.0033,0,0,left,0.7726,,1454.0043,1454.0049,0,0,,1454.0054,1454.0059,0,0,,1,1454.0059,1454.0059,1454.0063,1455.5024,0,9,9,9,1,0.8,0.2,0.6,0.4,1,0,,,,,,,,,,,,,,,,,,,,,,,,,,,,,,,,,,,,
,,6006ae13a40ec00348555219,66fcb728b5299936d1513433,2024-10-02_05h09.57.588,mdp,2024.2.1,Win32,60.24096386,66fa4ebf79326e780c390304,,,,,,,,,,,,,,,,,,,,,1455.5033,1455.5033,1455.5041,1456.67,1,1,right,0.6334,,1456.6712,1456.6717,0,1,,1456.6722,1456.6727,0,1,,0,1456.6727,1456.6728,1456.6734,1458.1693,0,10,10,10,1,0.8,0.2,0.6,0.4,1,0,,,,,,,,,,,,,,,,,,,,,,,,,,,,,,,,,,,,
,,6006ae13a40ec00348555219,66fcb728b5299936d1513433,2024-10-02_05h09.57.588,mdp,2024.2.1,Win32,60.24096386,66fa4ebf79326e780c390304,,,,,,,,,,,,,,,,,,,,,1458.1699,1458.1699,1458.1711,1459.3699,1,0,right,0.6667,,1459.3715,1459.3721,0,0,,1459.373,1459.3736,0,0,,1,1459.3736,1459.3736,1459.3744,1460.8692,0,11,11,11,1,0.8,0.2,0.6,0.4,1,0,,,,,,,,,,,,,,,,,,,,,,,,,,,,,,,,,,,,
,,6006ae13a40ec00348555219,66fcb728b5299936d1513433,2024-10-02_05h09.57.588,mdp,2024.2.1,Win32,60.24096386,66fa4ebf79326e780c390304,,,,,,,,,,,,,,,,,,,,,1460.87,1460.87,1460.871,1462.1369,1,0,right,0.7338,,1462.1378,1462.1385,0,1,,1462.139,1462.1395,0,1,,1,1462.1395,1462.1395,1462.14,1463.6359,0,12,12,12,1,0.8,0.2,0.6,0.4,1,0,,,,,,,,,,,,,,,,,,,,,,,,,,,,,,,,,,,,
,,6006ae13a40ec00348555219,66fcb728b5299936d1513433,2024-10-02_05h09.57.588,mdp,2024.2.1,Win32,60.24096386,66fa4ebf79326e780c390304,,,,,,,,,,,,,,,,,,,,,1463.6365,1463.6365,1463.6376,1464.7702,0,1,left,0.6045,,1464.7712,1464.7718,0,0,,1464.7724,1464.7728,0,1,,0,1464.7728,1464.7728,1464.7733,1466.2695,0,13,13,13,1,0.8,0.2,0.6,0.4,1,0,,,,,,,,,,,,,,,,,,,,,,,,,,,,,,,,,,,,
,,6006ae13a40ec00348555219,66fcb728b5299936d1513433,2024-10-02_05h09.57.588,mdp,2024.2.1,Win32,60.24096386,66fa4ebf79326e780c390304,,,,,,,,,,,,,,,,,,,,,1466.2702,1466.2702,1466.2713,1467.4031,0,0,left,0.6094,,1467.4043,1467.4047,0,0,,1467.4054,1467.4059,0,0,,1,1467.4059,1467.4059,1467.4064,1468.9025,0,14,14,14,1,0.8,0.2,0.6,0.4,1,0,,,,,,,,,,,,,,,,,,,,,,,,,,,,,,,,,,,,
,,6006ae13a40ec00348555219,66fcb728b5299936d1513433,2024-10-02_05h09.57.588,mdp,2024.2.1,Win32,60.24096386,66fa4ebf79326e780c390304,,,,,,,,,,,,,,,,,,,,,1468.903,1468.903,1468.9042,1469.9863,0,1,left,0.56,,1469.9874,1469.988,0,1,,1469.9886,1469.9891,0,0,,0,1469.9891,1469.9891,1469.9895,1471.4859,0,15,15,15,1,0.6,0.4,0.2,0.8,1,0,,,,,,,,,,,,,,,,,,,,,,,,,,,,,,,,,,,,
,,6006ae13a40ec00348555219,66fcb728b5299936d1513433,2024-10-02_05h09.57.588,mdp,2024.2.1,Win32,60.24096386,66fa4ebf79326e780c390304,,,,,,,,,,,,,,,,,,,,,1471.4864,1471.4864,1471.4873,1472.6033,0,0,left,0.5836,,1472.6043,1472.6049,0,0,,1472.6054,1472.6059,0,0,,1,1472.6059,1472.6059,1472.6064,1474.1024,0,16,16,16,1,0.6,0.4,0.2,0.8,1,0,,,,,,,,,,,,,,,,,,,,,,,,,,,,,,,,,,,,
,,6006ae13a40ec00348555219,66fcb728b5299936d1513433,2024-10-02_05h09.57.588,mdp,2024.2.1,Win32,60.24096386,66fa4ebf79326e780c390304,,,,,,,,,,,,,,,,,,,,,1474.103,1474.103,1474.1041,1475.2526,0,0,left,0.627,,1475.2537,1475.2544,0,0,,1475.2549,1475.2553,0,1,,1,1475.2553,1475.2553,1475.2558,1476.7524,0,17,17,17,1,0.6,0.4,0.2,0.8,1,0,,,,,,,,,,,,,,,,,,,,,,,,,,,,,,,,,,,,
,,6006ae13a40ec00348555219,66fcb728b5299936d1513433,2024-10-02_05h09.57.588,mdp,2024.2.1,Win32,60.24096386,66fa4ebf79326e780c390304,,,,,,,,,,,,,,,,,,,,,1476.7534,1476.7534,1476.7543,1477.9197,1,1,right,0.637,,1477.9208,1477.9213,0,1,,1477.9219,1477.9223,0,1,,0,1477.9224,1477.9224,1477.9228,1479.4192,0,18,18,18,1,0.6,0.4,0.2,0.8,1,0,,,,,,,,,,,,,,,,,,,,,,,,,,,,,,,,,,,,
,,6006ae13a40ec00348555219,66fcb728b5299936d1513433,2024-10-02_05h09.57.588,mdp,2024.2.1,Win32,60.24096386,66fa4ebf79326e780c390304,,,,,,,,,,,,,,,,,,,,,1479.42,1479.42,1479.421,1480.7528,1,1,right,0.8107,,1480.7537,1480.7543,0,0,,1480.7548,1480.7553,0,1,,0,1480.7553,1480.7553,1480.7558,1482.2526,0,19,19,19,1,0.6,0.4,0.2,0.8,1,0,,,,,,,,,,,,,,,,,,,,,,,,,,,,,,,,,,,,
,,6006ae13a40ec00348555219,66fcb728b5299936d1513433,2024-10-02_05h09.57.588,mdp,2024.2.1,Win32,60.24096386,66fa4ebf79326e780c390304,,,,,,,,,,,,,,,,,,,,,1482.2534,1482.2534,1482.2543,1483.4193,1,1,right,0.6397,,1483.4203,1483.4209,0,1,,1483.4215,1483.422,0,1,,0,1483.422,1483.422,1483.4224,1484.9189,0,20,20,20,1,0.6,0.4,0.2,0.8,1,0,,,,,,,,,,,,,,,,,,,,,,,,,,,,,,,,,,,,
,,6006ae13a40ec00348555219,66fcb728b5299936d1513433,2024-10-02_05h09.57.588,mdp,2024.2.1,Win32,60.24096386,66fa4ebf79326e780c390304,,,,,,,,,,,,,,,,,,,,,1484.9197,1484.9197,1484.9207,1486.036,0,0,left,0.5837,,1486.037,1486.0375,0,1,,1486.0381,1486.0385,0,0,,1,1486.0385,1486.0385,1486.039,1487.5356,0,21,21,21,1,0.6,0.4,0.2,0.8,1,0,,,,,,,,,,,,,,,,,,,,,,,,,,,,,,,,,,,,
,,6006ae13a40ec00348555219,66fcb728b5299936d1513433,2024-10-02_05h09.57.588,mdp,2024.2.1,Win32,60.24096386,66fa4ebf79326e780c390304,,,,,,,,,,,,,,,,,,,,,1487.5365,1487.5366,1487.5375,1488.7693,0,0,left,0.7104,,1488.7703,1488.7709,0,1,,1488.7715,1488.7719,0,0,,1,1488.772,1488.772,1488.7724,1490.2686,0,22,22,22,1,0.8,0.2,0.8,0.2,1,0,,,,,,,,,,,,,,,,,,,,,,,,,,,,,,,,,,,,
,,6006ae13a40ec00348555219,66fcb728b5299936d1513433,2024-10-02_05h09.57.588,mdp,2024.2.1,Win32,60.24096386,66fa4ebf79326e780c390304,,,,,,,,,,,,,,,,,,,,,1490.2696,1490.2696,1490.2705,1491.4027,0,0,left,0.6104,,1491.4038,1491.4045,0,0,,1491.4052,1491.4056,0,1,,1,1491.4056,1491.4056,1491.406,1492.9022,0,23,23,23,1,0.8,0.2,0.8,0.2,1,0,,,,,,,,,,,,,,,,,,,,,,,,,,,,,,,,,,,,
,,6006ae13a40ec00348555219,66fcb728b5299936d1513433,2024-10-02_05h09.57.588,mdp,2024.2.1,Win32,60.24096386,66fa4ebf79326e780c390304,,,,,,,,,,,,,,,,,,,,,1492.903,1492.903,1492.9038,1493.9196,1,0,right,0.484,,1493.9206,1493.9211,0,0,,1493.9218,1493.9222,0,0,,1,1493.9222,1493.9222,1493.9227,1495.4191,0,24,24,24,1,0.8,0.2,0.8,0.2,1,0,,,,,,,,,,,,,,,,,,,,,,,,,,,,,,,,,,,,
,,6006ae13a40ec00348555219,66fcb728b5299936d1513433,2024-10-02_05h09.57.588,mdp,2024.2.1,Win32,60.24096386,66fa4ebf79326e780c390304,,,,,,,,,,,,,,,,,,,,,1495.4202,1495.4202,1495.4213,1496.6699,0,1,left,0.7244,,1496.671,1496.6716,0,0,,1496.6721,1496.6725,0,0,,0,1496.6725,1496.6725,1496.673,1498.1691,0,25,25,25,1,0.8,0.2,0.8,0.2,1,0,,,,,,,,,,,,,,,,,,,,,,,,,,,,,,,,,,,,
,,6006ae13a40ec00348555219,66fcb728b5299936d1513433,2024-10-02_05h09.57.588,mdp,2024.2.1,Win32,60.24096386,66fa4ebf79326e780c390304,,,,,,,,,,,,,,,,,,,,,1498.1697,1498.1697,1498.1708,1499.2863,0,0,left,0.5942,,1499.2873,1499.2879,0,1,,1499.2885,1499.2888,0,0,,1,1499.2888,1499.2888,1499.2893,1500.786,0,26,26,26,1,0.8,0.2,0.8,0.2,1,0,,,,,,,,,,,,,,,,,,,,,,,,,,,,,,,,,,,,
,,6006ae13a40ec00348555219,66fcb728b5299936d1513433,2024-10-02_05h09.57.588,mdp,2024.2.1,Win32,60.24096386,66fa4ebf79326e780c390304,,,,,,,,,,,,,,,,,,,,,1500.7865,1500.7865,1500.7874,1501.8195,1,0,right,0.5007,,1501.8205,1501.821,0,0,,1501.8216,1501.822,0,0,,1,1501.822,1501.822,1501.8225,1503.319,0,27,27,27,1,0.8,0.2,0.8,0.2,1,0,,,,,,,,,,,,,,,,,,,,,,,,,,,,,,,,,,,,
,,6006ae13a40ec00348555219,66fcb728b5299936d1513433,2024-10-02_05h09.57.588,mdp,2024.2.1,Win32,60.24096386,66fa4ebf79326e780c390304,,,,,,,,,,,,,,,,,,,,,1503.3195,1503.3195,1503.3207,1504.5531,1,0,right,0.7013,,1504.5541,1504.5547,0,0,,1504.5553,1504.5557,0,0,,1,1504.5557,1504.5557,1504.5565,1506.0524,0,28,28,28,1,0.8,0.2,0.8,0.2,1,0,,,,,,,,,,,,,,,,,,,,,,,,,,,,,,,,,,,,
,,6006ae13a40ec00348555219,66fcb728b5299936d1513433,2024-10-02_05h09.57.588,mdp,2024.2.1,Win32,60.24096386,66fa4ebf79326e780c390304,,,,,,,,,,,,,,,,,,,,,1506.0533,1506.0533,1506.0543,1507.0526,0,0,left,0.4727,,1507.0535,1507.0541,0,1,,1507.0547,1507.0551,0,0,,1,1507.0551,1507.0551,1507.0556,1508.5524,0,29,29,29,1,0.6,0.4,0.4,0.6,1,0,,,,,,,,,,,,,,,,,,,,,,,,,,,,,,,,,,,,
,,6006ae13a40ec00348555219,66fcb728b5299936d1513433,2024-10-02_05h09.57.588,mdp,2024.2.1,Win32,60.24096386,66fa4ebf79326e780c390304,,,,,,,,,,,,,,,,,,,,,1508.5528,1508.5528,1508.5539,1509.5696,0,0,left,0.4857,,1509.5707,1509.5714,0,0,,1509.5719,1509.5723,0,1,,1,1509.5724,1509.5724,1509.5729,1511.0686,0,30,30,30,1,0.6,0.4,0.4,0.6,1,0,,,,,,,,,,,,,,,,,,,,,,,,,,,,,,,,,,,,
,,6006ae13a40ec00348555219,66fcb728b5299936d1513433,2024-10-02_05h09.57.588,mdp,2024.2.1,Win32,60.24096386,66fa4ebf79326e780c390304,,,,,,,,,,,,,,,,,,,,,1511.0694,1511.0694,1511.0703,1512.4026,0,0,left,0.8093,,1512.4036,1512.4041,0,0,,1512.4047,1512.4051,0,0,,1,1512.4051,1512.4051,1512.4056,1513.9019,0,31,31,31,1,0.6,0.4,0.4,0.6,1,0,,,,,,,,,,,,,,,,,,,,,,,,,,,,,,,,,,,,
,,6006ae13a40ec00348555219,66fcb728b5299936d1513433,2024-10-02_05h09.57.588,mdp,2024.2.1,Win32,60.24096386,66fa4ebf79326e780c390304,,,,,,,,,,,,,,,,,,,,,1513.9028,1513.9029,1513.9038,1515.0858,1,0,right,0.6508,,1515.087,1515.0876,0,1,,1515.0883,1515.0887,0,1,,1,1515.0887,1515.0887,1515.0892,1516.5857,0,32,32,32,1,0.6,0.4,0.4,0.6,1,0,,,,,,,,,,,,,,,,,,,,,,,,,,,,,,,,,,,,
,,6006ae13a40ec00348555219,66fcb728b5299936d1513433,2024-10-02_05h09.57.588,mdp,2024.2.1,Win32,60.24096386,66fa4ebf79326e780c390304,,,,,,,,,,,,,,,,,,,,,1516.5865,1516.5865,1516.5874,1517.8527,0,0,left,0.7344,,1517.8536,1517.8542,0,0,,1517.8547,1517.8551,0,0,,1,1517.8552,1517.8552,1517.8556,1519.3523,0,33,33,33,1,0.6,0.4,0.4,0.6,1,0,,,,,,,,,,,,,,,,,,,,,,,,,,,,,,,,,,,,
,,6006ae13a40ec00348555219,66fcb728b5299936d1513433,2024-10-02_05h09.57.588,mdp,2024.2.1,Win32,60.24096386,66fa4ebf79326e780c390304,,,,,,,,,,,,,,,,,,,,,1519.3529,1519.3529,1519.3539,1520.587,0,0,left,0.7126,,1520.588,1520.5886,0,1,,1520.5892,1520.5896,0,0,,1,1520.5897,1520.5897,1520.59,1522.0855,0,34,34,34,1,0.6,0.4,0.4,0.6,1,0,,,,,,,,,,,,,,,,,,,,,,,,,,,,,,,,,,,,
,,6006ae13a40ec00348555219,66fcb728b5299936d1513433,2024-10-02_05h09.57.588,mdp,2024.2.1,Win32,60.24096386,66fa4ebf79326e780c390304,,,,,,,,,,,,,,,,,,,,,1522.0863,1522.0863,1522.0872,1523.3861,1,1,right,0.768,,1523.3873,1523.388,0,0,,1523.3886,1523.3891,0,1,,0,1523.3891,1523.3891,1523.3896,1524.8856,0,35,35,35,1,0.8,0.2,0.2,0.8,1,0,,,,,,,,,,,,,,,,,,,,,,,,,,,,,,,,,,,,
,,6006ae13a40ec00348555219,66fcb728b5299936d1513433,2024-10-02_05h09.57.588,mdp,2024.2.1,Win32,60.24096386,66fa4ebf79326e780c390304,,,,,,,,,,,,,,,,,,,,,1524.8862,1524.8862,1524.8873,1526.1699,1,1,right,0.7497,,1526.171,1526.1715,0,1,,1526.1722,1526.1726,0,1,,0,1526.1726,1526.1726,1526.1731,1527.6689,0,36,36,36,1,0.8,0.2,0.2,0.8,1,0,,,,,,,,,,,,,,,,,,,,,,,,,,,,,,,,,,,,
,,6006ae13a40ec00348555219,66fcb728b5299936d1513433,2024-10-02_05h09.57.588,mdp,2024.2.1,Win32,60.24096386,66fa4ebf79326e780c390304,,,,,,,,,,,,,,,,,,,,,1527.6694,1527.6694,1527.6706,1528.7857,1,1,right,0.5888,,1528.7867,1528.7872,0,1,,1528.7878,1528.7882,0,1,,0,1528.7883,1528.7883,1528.7887,1530.2851,0,37,37,37,1,0.8,0.2,0.2,0.8,1,0,,,,,,,,,,,,,,,,,,,,,,,,,,,,,,,,,,,,
,,6006ae13a40ec00348555219,66fcb728b5299936d1513433,2024-10-02_05h09.57.588,mdp,2024.2.1,Win32,60.24096386,66fa4ebf79326e780c390304,,,,,,,,,,,,,,,,,,,,,1530.2859,1530.2859,1530.2868,1531.4362,1,1,right,0.6185,,1531.4372,1531.4377,0,0,,1531.4384,1531.4388,0,1,,0,1531.4388,1531.4388,1531.4393,1532.9368,0,38,38,38,1,0.8,0.2,0.2,0.8,1,0,,,,,,,,,,,,,,,,,,,,,,,,,,,,,,,,,,,,
,,6006ae13a40ec00348555219,66fcb728b5299936d1513433,2024-10-02_05h09.57.588,mdp,2024.2.1,Win32,60.24096386,66fa4ebf79326e780c390304,,,,,,,,,,,,,,,,,,,,,1532.9373,1532.9373,1532.9384,1534.1359,1,0,right,0.6737,,1534.1369,1534.1375,0,0,,1534.1382,1534.1387,0,1,,1,1534.1387,1534.1387,1534.1392,1535.6359,0,39,39,39,1,0.2,0.8,0.6,0.4,1,0,,,,,,,,,,,,,,,,,,,,,,,,,,,,,,,,,,,,
