init_exp.started,init_exp.stopped,participant,session,date,expName,psychopyVersion,OS,frameRate,study_id,disp_instruction.started,disp_instruction.stopped,instruction.thisRepN,instruction.thisTrialN,instruction.thisN,instruction.thisIndex,instruction.ran,instimg_path,consent.started,consent.stopped,key_resp_3.keys,key_resp_3.rt,key_resp_3.duration,n_steps,sequence_path,init_block.started,init_block.stopped,key_resp.keys,key_resp.rt,key_resp.duration,init_trials.started,init_trials.stopped,step0.started,step0.stopped,act0,s1,res0.keys,res0.rt,res0.duration,step1.started,step1.stopped,act1,s2,res1.keys,step2.started,step2.stopped,act2,s3,res2.keys,rew,reward_comp.started,reward_comp.stopped,reward_disp.started,reward_disp.stopped,trials.thisRepN,trials.thisTrialN,trials.thisN,trials.thisIndex,trials.ran,s00a0s10,s00a0s11,s00a1s10,s00a1s11,rew10,rew11,break_block.started,break_block.stopped,block.thisRepN,block.thisTrialN,block.thisN,block.thisIndex,block.ran,s00path,s10path,s11path,s20path,s21path,res1.rt,res1.duration,s10a0s20,s10a0s21,s10a1s20,s10a1s21,s11a0s20,s11a0s21,s11a1s20,s11a1s21,rew20,rew21,res2.rt,res2.duration,s20a0s30,s20a0s31,s20a1s30,s20a1s31,s21a0s30,s21a0s31,s21a1s30,s21a1s31,rew30,rew31
0.0008,0.0024,603e8ed1b54e6cf4fafcaa1a,66fc9967f1626500d41d5142,2024-10-02_01h53.29.443,mdp,2024.2.1,MacIntel,29.94011976,66fa4ebf79326e780c390304,,,,,,,,,,,,,,,,,,,,,,,,,,,,,,,,,,,,,,,,,,,,,,,,,,,,,,,,,,,,,,,,,,,,,,,,,,,,,,,,,,,,,,,,,,,
,,603e8ed1b54e6cf4fafcaa1a,66fc9967f1626500d41d5142,2024-10-02_01h53.29.443,mdp,2024.2.1,MacIntel,29.94011976,66fa4ebf79326e780c390304,0.0072,21.0058,0,0,0,0,1,rlnn_exp/rlnn_exp.001.png,,,,,,,,,,,,,,,,,,,,,,,,,,,,,,,,,,,,,,,,,,,,,,,,,,,,,,,,,,,,,,,,,,,,,,,,,,,,,,,,,,,
,,603e8ed1b54e6cf4fafcaa1a,66fc9967f1626500d41d5142,2024-10-02_01h53.29.443,mdp,2024.2.1,MacIntel,29.94011976,66fa4ebf79326e780c390304,21.0065,35.4408,0,1,1,1,1,rlnn_exp/rlnn_exp.002.png,,,,,,,,,,,,,,,,,,,,,,,,,,,,,,,,,,,,,,,,,,,,,,,,,,,,,,,,,,,,,,,,,,,,,,,,,,,,,,,,,,,
,,603e8ed1b54e6cf4fafcaa1a,66fc9967f1626500d41d5142,2024-10-02_01h53.29.443,mdp,2024.2.1,MacIntel,29.94011976,66fa4ebf79326e780c390304,35.4414,46.1077,0,2,2,2,1,rlnn_exp/rlnn_exp.003.png,,,,,,,,,,,,,,,,,,,,,,,,,,,,,,,,,,,,,,,,,,,,,,,,,,,,,,,,,,,,,,,,,,,,,,,,,,,,,,,,,,,
,,603e8ed1b54e6cf4fafcaa1a,66fc9967f1626500d41d5142,2024-10-02_01h53.29.443,mdp,2024.2.1,MacIntel,29.94011976,66fa4ebf79326e780c390304,46.1081,57.209,0,3,3,3,1,rlnn_exp/rlnn_exp.004.png,,,,,,,,,,,,,,,,,,,,,,,,,,,,,,,,,,,,,,,,,,,,,,,,,,,,,,,,,,,,,,,,,,,,,,,,,,,,,,,,,,,
,,603e8ed1b54e6cf4fafcaa1a,66fc9967f1626500d41d5142,2024-10-02_01h53.29.443,mdp,2024.2.1,MacIntel,29.94011976,66fa4ebf79326e780c390304,,,,,,,,,57.2243,76.544,y,9.2625,,,,,,,,,,,,,,,,,,,,,,,,,,,,,,,,,,,,,,,,,,,,,,,,,,,,,,,,,,,,,,,,,,,,,,,,,,,,,,,
,,603e8ed1b54e6cf4fafcaa1a,66fc9967f1626500d41d5142,2024-10-02_01h53.29.443,mdp,2024.2.1,MacIntel,29.94011976,66fa4ebf79326e780c390304,,,,,,,,,,,,,,1,seqs/st1seq30.csv,76.5634,78.1433,space,1.0578,,78.1482,78.1483,78.1486,80.0765,1,1,right,1.3785,,80.077,80.0792,,0,,80.0795,80.081,,1,,0,80.0812,80.0812,80.0816,81.5773,0,0,0,0,1,0.6,0.4,0.4,0.6,1,0,,,,,,,,,,,,,,,,,,,,,,,,,,,,,,,,,,,,
,,603e8ed1b54e6cf4fafcaa1a,66fc9967f1626500d41d5142,2024-10-02_01h53.29.443,mdp,2024.2.1,MacIntel,29.94011976,66fa4ebf79326e780c390304,,,,,,,,,,,,,,,,,,,,,81.5778,81.5779,81.5796,84.0441,0,1,left,1.9006,,84.0456,84.0469,,1,,84.0479,84.0488,,1,,0,84.0488,84.0488,84.0494,85.5437,0,1,1,1,1,0.6,0.4,0.4,0.6,1,0,,,,,,,,,,,,,,,,,,,,,,,,,,,,,,,,,,,,
,,603e8ed1b54e6cf4fafcaa1a,66fc9967f1626500d41d5142,2024-10-02_01h53.29.443,mdp,2024.2.1,MacIntel,29.94011976,66fa4ebf79326e780c390304,,,,,,,,,,,,,,,,,,,,,85.5442,85.5442,85.5458,86.644,0,0,left,0.5346,,86.6453,86.6468,,0,,86.648,86.6492,,0,,1,86.6492,86.6492,86.6501,88.1438,0,2,2,2,1,0.8,0.2,0.6,0.4,1,0,,,,,,,,,,,,,,,,,,,,,,,,,,,,,,,,,,,,
,,603e8ed1b54e6cf4fafcaa1a,66fc9967f1626500d41d5142,2024-10-02_01h53.29.443,mdp,2024.2.1,MacIntel,29.94011976,66fa4ebf79326e780c390304,,,,,,,,,,,,,,,,,,,,,88.1442,88.1442,88.1456,89.8778,0,0,left,1.1835,,89.8793,89.8807,,1,,89.8818,89.8827,,1,,1,89.8827,89.8827,89.8835,91.3778,0,3,3,3,1,0.8,0.2,0.6,0.4,1,0,,,,,,,,,,,,,,,,,,,,,,,,,,,,,,,,,,,,
,,603e8ed1b54e6cf4fafcaa1a,66fc9967f1626500d41d5142,2024-10-02_01h53.29.443,mdp,2024.2.1,MacIntel,29.94011976,66fa4ebf79326e780c390304,,,,,,,,,,,,,,,,,,,,,91.3781,91.3782,91.3794,92.7112,0,0,left,0.7888,,92.7124,92.7133,,0,,92.7141,92.715,,0,,1,92.715,92.7151,92.7157,94.2113,0,4,4,4,1,0.8,0.2,0.6,0.4,1,0,,,,,,,,,,,,,,,,,,,,,,,,,,,,,,,,,,,,
,,603e8ed1b54e6cf4fafcaa1a,66fc9967f1626500d41d5142,2024-10-02_01h53.29.443,mdp,2024.2.1,MacIntel,29.94011976,66fa4ebf79326e780c390304,,,,,,,,,,,,,,,,,,,,,94.2118,94.2118,94.213,95.5449,0,0,left,0.7655,,95.5462,95.5477,,0,,95.5487,95.5497,,0,,1,95.5498,95.5498,95.5507,97.0448,0,5,5,5,1,0.8,0.2,0.6,0.4,1,0,,,,,,,,,,,,,,,,,,,,,,,,,,,,,,,,,,,,
,,603e8ed1b54e6cf4fafcaa1a,66fc9967f1626500d41d5142,2024-10-02_01h53.29.443,mdp,2024.2.1,MacIntel,29.94011976,66fa4ebf79326e780c390304,,,,,,,,,,,,,,,,,,,,,97.0452,97.0452,97.0468,98.0117,0,0,left,0.4128,,98.0131,98.0146,,0,,98.0156,98.0166,,0,,1,98.0167,98.0167,98.0176,99.5115,0,6,6,6,1,0.8,0.2,0.6,0.4,1,0,,,,,,,,,,,,,,,,,,,,,,,,,,,,,,,,,,,,
,,603e8ed1b54e6cf4fafcaa1a,66fc9967f1626500d41d5142,2024-10-02_01h53.29.443,mdp,2024.2.1,MacIntel,29.94011976,66fa4ebf79326e780c390304,,,,,,,,,,,,,,,,,,,,,99.5119,99.5119,99.5129,100.5441,0,0,left,0.4734,,100.5454,100.5468,,1,,100.5479,100.5489,,0,,1,100.549,100.549,100.5498,102.0451,0,7,7,7,1,0.8,0.2,0.6,0.4,1,0,,,,,,,,,,,,,,,,,,,,,,,,,,,,,,,,,,,,
,,603e8ed1b54e6cf4fafcaa1a,66fc9967f1626500d41d5142,2024-10-02_01h53.29.443,mdp,2024.2.1,MacIntel,29.94011976,66fa4ebf79326e780c390304,,,,,,,,,,,,,,,,,,,,,102.0455,102.0456,102.0468,103.0111,0,0,left,0.4083,,103.0123,103.0134,,0,,103.0143,103.0152,,0,,1,103.0152,103.0153,103.016,104.512,0,8,8,8,1,0.8,0.2,0.6,0.4,1,0,,,,,,,,,,,,,,,,,,,,,,,,,,,,,,,,,,,,
,,603e8ed1b54e6cf4fafcaa1a,66fc9967f1626500d41d5142,2024-10-02_01h53.29.443,mdp,2024.2.1,MacIntel,29.94011976,66fa4ebf79326e780c390304,,,,,,,,,,,,,,,,,,,,,104.5124,104.5124,104.5137,105.545,0,0,left,0.4679,,105.5459,105.5472,,0,,105.5479,105.5486,,0,,1,105.5487,105.5487,105.5493,107.0454,0,9,9,9,1,0.8,0.2,0.6,0.4,1,0,,,,,,,,,,,,,,,,,,,,,,,,,,,,,,,,,,,,
,,603e8ed1b54e6cf4fafcaa1a,66fc9967f1626500d41d5142,2024-10-02_01h53.29.443,mdp,2024.2.1,MacIntel,29.94011976,66fa4ebf79326e780c390304,,,,,,,,,,,,,,,,,,,,,107.0458,107.0458,107.047,108.0781,0,0,left,0.4904,,108.0791,108.0802,,0,,108.0809,108.0816,,0,,1,108.0817,108.0817,108.0821,109.579,0,10,10,10,1,0.8,0.2,0.6,0.4,1,0,,,,,,,,,,,,,,,,,,,,,,,,,,,,,,,,,,,,
,,603e8ed1b54e6cf4fafcaa1a,66fc9967f1626500d41d5142,2024-10-02_01h53.29.443,mdp,2024.2.1,MacIntel,29.94011976,66fa4ebf79326e780c390304,,,,,,,,,,,,,,,,,,,,,109.5794,109.5794,109.5806,110.5459,0,0,left,0.4071,,110.5472,110.5485,,0,,110.5497,110.5508,,1,,1,110.5509,110.5509,110.5518,112.0446,0,11,11,11,1,0.8,0.2,0.6,0.4,1,0,,,,,,,,,,,,,,,,,,,,,,,,,,,,,,,,,,,,
,,603e8ed1b54e6cf4fafcaa1a,66fc9967f1626500d41d5142,2024-10-02_01h53.29.443,mdp,2024.2.1,MacIntel,29.94011976,66fa4ebf79326e780c390304,,,,,,,,,,,,,,,,,,,,,112.045,112.045,112.0459,113.0128,0,1,left,0.4484,,113.0141,113.0156,,0,,113.0165,113.0175,,0,,0,113.0176,113.0176,113.0183,114.5125,0,12,12,12,1,0.8,0.2,0.6,0.4,1,0,,,,,,,,,,,,,,,,,,,,,,,,,,,,,,,,,,,,
,,603e8ed1b54e6cf4fafcaa1a,66fc9967f1626500d41d5142,2024-10-02_01h53.29.443,mdp,2024.2.1,MacIntel,29.94011976,66fa4ebf79326e780c390304,,,,,,,,,,,,,,,,,,,,,114.5129,114.5129,114.5142,116.7129,0,1,left,1.6542,,116.7144,116.7157,,1,,116.7168,116.7178,,0,,0,116.7179,116.718,116.7189,118.2129,0,13,13,13,1,0.8,0.2,0.6,0.4,1,0,,,,,,,,,,,,,,,,,,,,,,,,,,,,,,,,,,,,
,,603e8ed1b54e6cf4fafcaa1a,66fc9967f1626500d41d5142,2024-10-02_01h53.29.443,mdp,2024.2.1,MacIntel,29.94011976,66fa4ebf79326e780c390304,,,,,,,,,,,,,,,,,,,,,118.2133,118.2133,118.2144,119.2797,1,1,right,0.5072,,119.2811,119.2824,,0,,119.2834,119.2845,,0,,0,119.2845,119.2845,119.2854,120.7799,0,14,14,14,1,0.8,0.2,0.6,0.4,1,0,,,,,,,,,,,,,,,,,,,,,,,,,,,,,,,,,,,,
,,603e8ed1b54e6cf4fafcaa1a,66fc9967f1626500d41d5142,2024-10-02_01h53.29.443,mdp,2024.2.1,MacIntel,29.94011976,66fa4ebf79326e780c390304,,,,,,,,,,,,,,,,,,,,,120.7802,120.7802,120.7812,121.8466,1,1,right,0.4993,,121.8479,121.8493,,1,,121.8504,121.8515,,0,,0,121.8515,121.8515,121.8524,123.3465,0,15,15,15,1,0.8,0.2,0.6,0.4,1,0,,,,,,,,,,,,,,,,,,,,,,,,,,,,,,,,,,,,
,,603e8ed1b54e6cf4fafcaa1a,66fc9967f1626500d41d5142,2024-10-02_01h53.29.443,mdp,2024.2.1,MacIntel,29.94011976,66fa4ebf79326e780c390304,,,,,,,,,,,,,,,,,,,,,123.3469,123.3469,123.3482,124.4136,1,0,right,0.5028,,124.4151,124.4165,,0,,124.4177,124.4187,,0,,1,124.4187,124.4187,124.4194,125.9133,0,16,16,16,1,0.4,0.6,0.8,0.2,1,0,,,,,,,,,,,,,,,,,,,,,,,,,,,,,,,,,,,,
,,603e8ed1b54e6cf4fafcaa1a,66fc9967f1626500d41d5142,2024-10-02_01h53.29.443,mdp,2024.2.1,MacIntel,29.94011976,66fa4ebf79326e780c390304,,,,,,,,,,,,,,,,,,,,,125.9138,125.9138,125.915,127.2132,1,0,right,0.7499,,127.2143,127.2154,,0,,127.2162,127.2171,,0,,1,127.2171,127.2171,127.2178,128.7127,0,17,17,17,1,0.4,0.6,0.8,0.2,1,0,,,,,,,,,,,,,,,,,,,,,,,,,,,,,,,,,,,,
,,603e8ed1b54e6cf4fafcaa1a,66fc9967f1626500d41d5142,2024-10-02_01h53.29.443,mdp,2024.2.1,MacIntel,29.94011976,66fa4ebf79326e780c390304,,,,,,,,,,,,,,,,,,,,,128.7132,128.7132,128.7146,129.7472,1,0,right,0.471,,129.7487,129.75,,0,,129.7511,129.7526,,0,,1,129.7526,129.7526,129.7539,131.2471,0,18,18,18,1,0.4,0.6,0.8,0.2,1,0,,,,,,,,,,,,,,,,,,,,,,,,,,,,,,,,,,,,
,,603e8ed1b54e6cf4fafcaa1a,66fc9967f1626500d41d5142,2024-10-02_01h53.29.443,mdp,2024.2.1,MacIntel,29.94011976,66fa4ebf79326e780c390304,,,,,,,,,,,,,,,,,,,,,131.2475,131.2475,131.2487,132.2797,1,0,right,0.4734,,132.281,132.2824,,0,,132.2834,132.2844,,0,,1,132.2844,132.2844,132.2853,133.7805,0,19,19,19,1,0.4,0.6,0.8,0.2,1,0,,,,,,,,,,,,,,,,,,,,,,,,,,,,,,,,,,,,
,,603e8ed1b54e6cf4fafcaa1a,66fc9967f1626500d41d5142,2024-10-02_01h53.29.443,mdp,2024.2.1,MacIntel,29.94011976,66fa4ebf79326e780c390304,,,,,,,,,,,,,,,,,,,,,133.7808,133.7808,133.7823,134.9474,1,0,right,0.6124,,134.9483,134.9493,,0,,134.9499,134.9506,,0,,1,134.9506,134.9506,134.9512,136.4467,0,20,20,20,1,0.4,0.6,0.8,0.2,1,0,,,,,,,,,,,,,,,,,,,,,,,,,,,,,,,,,,,,
,,603e8ed1b54e6cf4fafcaa1a,66fc9967f1626500d41d5142,2024-10-02_01h53.29.443,mdp,2024.2.1,MacIntel,29.94011976,66fa4ebf79326e780c390304,,,,,,,,,,,,,,,,,,,,,136.447,136.447,136.4477,137.2144,1,1,right,0.2073,,137.2156,137.2169,,0,,137.2179,137.219,,0,,0,137.219,137.219,137.22,138.7134,0,21,21,21,1,0.4,0.6,0.8,0.2,1,0,,,,,,,,,,,,,,,,,,,,,,,,,,,,,,,,,,,,
,,603e8ed1b54e6cf4fafcaa1a,66fc9967f1626500d41d5142,2024-10-02_01h53.29.443,mdp,2024.2.1,MacIntel,29.94011976,66fa4ebf79326e780c390304,,,,,,,,,,,,,,,,,,,,,138.7138,138.7138,138.715,139.5799,0,1,left,0.3602,,139.5808,139.5821,,1,,139.583,139.5839,,0,,0,139.5839,139.5839,139.5844,141.0811,0,22,22,22,1,0.4,0.6,0.8,0.2,1,0,,,,,,,,,,,,,,,,,,,,,,,,,,,,,,,,,,,,
,,603e8ed1b54e6cf4fafcaa1a,66fc9967f1626500d41d5142,2024-10-02_01h53.29.443,mdp,2024.2.1,MacIntel,29.94011976,66fa4ebf79326e780c390304,,,,,,,,,,,,,,,,,,,,,141.0815,141.0815,141.0827,142.1481,0,1,left,0.5188,,142.1492,142.1506,,0,,142.1516,142.1525,,1,,0,142.1526,142.1526,142.1534,143.648,0,23,23,23,1,0.4,0.6,0.8,0.2,1,0,,,,,,,,,,,,,,,,,,,,,,,,,,,,,,,,,,,,
,,603e8ed1b54e6cf4fafcaa1a,66fc9967f1626500d41d5142,2024-10-02_01h53.29.443,mdp,2024.2.1,MacIntel,29.94011976,66fa4ebf79326e780c390304,,,,,,,,,,,,,,,,,,,,,143.6483,143.6483,143.6494,144.7816,0,0,left,0.5732,,144.7828,144.7842,,0,,144.7852,144.7864,,1,,1,144.7864,144.7864,144.7872,146.2815,0,24,24,24,1,0.8,0.2,0.4,0.6,1,0,,,,,,,,,,,,,,,,,,,,,,,,,,,,,,,,,,,,
,,603e8ed1b54e6cf4fafcaa1a,66fc9967f1626500d41d5142,2024-10-02_01h53.29.443,mdp,2024.2.1,MacIntel,29.94011976,66fa4ebf79326e780c390304,,,,,,,,,,,,,,,,,,,,,146.2818,146.2818,146.283,146.9816,0,1,left,0.1385,,146.9828,146.9842,,0,,146.9852,146.9862,,0,,0,146.9862,146.9862,146.987,148.4816,0,25,25,25,1,0.8,0.2,0.4,0.6,1,0,,,,,,,,,,,,,,,,,,,,,,,,,,,,,,,,,,,,
,,603e8ed1b54e6cf4fafcaa1a,66fc9967f1626500d41d5142,2024-10-02_01h53.29.443,mdp,2024.2.1,MacIntel,29.94011976,66fa4ebf79326e780c390304,,,,,,,,,,,,,,,,,,,,,148.4821,148.4821,148.4834,149.4152,0,0,left,0.3752,,149.4163,149.4176,,0,,149.4186,149.4197,,0,,1,149.4197,149.4197,149.4205,150.9151,0,26,26,26,1,0.8,0.2,0.4,0.6,1,0,,,,,,,,,,,,,,,,,,,,,,,,,,,,,,,,,,,,
,,603e8ed1b54e6cf4fafcaa1a,66fc9967f1626500d41d5142,2024-10-02_01h53.29.443,mdp,2024.2.1,MacIntel,29.94011976,66fa4ebf79326e780c390304,,,,,,,,,,,,,,,,,,,,,150.9155,150.9155,150.9167,151.8152,1,0,right,0.3553,,151.8163,151.8174,,0,,151.8181,151.8187,,1,,1,151.8188,151.8188,151.8192,153.3152,0,27,27,27,1,0.8,0.2,0.4,0.6,1,0,,,,,,,,,,,,,,,,,,,,,,,,,,,,,,,,,,,,
,,603e8ed1b54e6cf4fafcaa1a,66fc9967f1626500d41d5142,2024-10-02_01h53.29.443,mdp,2024.2.1,MacIntel,29.94011976,66fa4ebf79326e780c390304,,,,,,,,,,,,,,,,,,,,,153.3156,153.3156,153.3168,154.1812,0,0,left,0.3223,,154.1819,154.1828,,0,,154.1835,154.1842,,0,,1,154.1842,154.1842,154.1848,155.6812,0,28,28,28,1,0.8,0.2,0.4,0.6,1,0,,,,,,,,,,,,,,,,,,,,,,,,,,,,,,,,,,,,
,,603e8ed1b54e6cf4fafcaa1a,66fc9967f1626500d41d5142,2024-10-02_01h53.29.443,mdp,2024.2.1,MacIntel,29.94011976,66fa4ebf79326e780c390304,,,,,,,,,,,,,,,,,,,,,155.6816,155.6816,155.6829,156.5821,1,1,right,0.3688,,156.5833,156.5847,,1,,156.586,156.5869,,0,,0,156.587,156.587,156.5878,158.0822,0,29,29,29,1,0.8,0.2,0.4,0.6,1,0,,,,,,,,,,,,,,,,,,,,,,,,,,,,,,,,,,,,
,,603e8ed1b54e6cf4fafcaa1a,66fc9967f1626500d41d5142,2024-10-02_01h53.29.443,mdp,2024.2.1,MacIntel,29.94011976,66fa4ebf79326e780c390304,,,,,,,,,,,,,,,,,,,,,158.0826,158.0826,158.0838,159.1491,1,1,right,0.5057,,159.1504,159.1516,,1,,159.1526,159.1536,,0,,0,159.1536,159.1536,159.1543,160.6482,0,30,30,30,1,0.8,0.2,0.4,0.6,1,0,,,,,,,,,,,,,,,,,,,,,,,,,,,,,,,,,,,,
,,603e8ed1b54e6cf4fafcaa1a,66fc9967f1626500d41d5142,2024-10-02_01h53.29.443,mdp,2024.2.1,MacIntel,29.94011976,66fa4ebf79326e780c390304,,,,,,,,,,,,,,,,,,,,,160.6486,160.6486,160.6497,161.5826,1,1,right,0.3997,,161.5839,161.5852,,1,,161.5863,161.5871,,1,,0,161.5873,161.5873,161.5882,163.0825,0,31,31,31,1,0.8,0.2,0.4,0.6,1,0,,,,,,,,,,,,,,,,,,,,,,,,,,,,,,,,,,,,
,,603e8ed1b54e6cf4fafcaa1a,66fc9967f1626500d41d5142,2024-10-02_01h53.29.443,mdp,2024.2.1,MacIntel,29.94011976,66fa4ebf79326e780c390304,,,,,,,,,,,,,,,,,,,,,163.0828,163.0829,163.084,164.0829,1,0,right,0.4372,,164.0842,164.0856,,1,,164.0866,164.0876,,0,,1,164.0876,164.0877,164.0885,165.5828,0,32,32,32,1,0.8,0.2,0.4,0.6,1,0,,,,,,,,,,,,,,,,,,,,,,,,,,,,,,,,,,,,
,,603e8ed1b54e6cf4fafcaa1a,66fc9967f1626500d41d5142,2024-10-02_01h53.29.443,mdp,2024.2.1,MacIntel,29.94011976,66fa4ebf79326e780c390304,,,,,,,,,,,,,,,,,,,,,165.5832,165.5832,165.5844,166.4494,0,1,left,0.3216,,166.4503,166.4512,,0,,166.4519,166.4524,,0,,0,166.4525,166.4525,166.4529,167.9496,0,33,33,33,1,0.8,0.2,0.4,0.6,1,0,,,,,,,,,,,,,,,,,,,,,,,,,,,,,,,,,,,,
,,603e8ed1b54e6cf4fafcaa1a,66fc9967f1626500d41d5142,2024-10-02_01h53.29.443,mdp,2024.2.1,MacIntel,29.94011976,66fa4ebf79326e780c390304,,,,,,,,,,,,,,,,,,,,,167.9499,167.9499,167.9512,168.9495,1,1,right,0.436,,168.9503,168.9511,,1,,168.9518,168.9524,,0,,0,168.9524,168.9524,168.953,170.449,0,34,34,34,1,0.8,0.2,0.4,0.6,1,0,,,,,,,,,,,,,,,,,,,,,,,,,,,,,,,,,,,,
,,603e8ed1b54e6cf4fafcaa1a,66fc9967f1626500d41d5142,2024-10-02_01h53.29.443,mdp,2024.2.1,MacIntel,29.94011976,66fa4ebf79326e780c390304,,,,,,,,,,,,,,,,,,,,,170.4494,170.4494,170.4507,171.349,1,1,right,0.3699,,171.3504,171.3516,,1,,171.3525,171.3533,,0,,0,171.3534,171.3534,171.354,172.8499,0,35,35,35,1,0.8,0.2,0.4,0.6,1,0,,,,,,,,,,,,,,,,,,,,,,,,,,,,,,,,,,,,
,,603e8ed1b54e6cf4fafcaa1a,66fc9967f1626500d41d5142,2024-10-02_01h53.29.443,mdp,2024.2.1,MacIntel,29.94011976,66fa4ebf79326e780c390304,,,,,,,,,,,,,,,,,,,,,172.8504,172.8504,172.8515,173.8167,0,0,left,0.4215,,173.8178,173.8189,,1,,173.8198,173.8205,,1,,1,173.8205,173.8205,173.8212,175.3167,0,36,36,36,1,0.8,0.2,0.4,0.6,1,0,,,,,,,,,,,,,,,,,,,,,,,,,,,,,,,,,,,,
,,603e8ed1b54e6cf4fafcaa1a,66fc9967f1626500d41d5142,2024-10-02_01h53.29.443,mdp,2024.2.1,MacIntel,29.94011976,66fa4ebf79326e780c390304,,,,,,,,,,,,,,,,,,,,,175.3171,175.3171,175.3183,176.3171,0,0,left,0.4607,,176.3183,176.3193,,0,,176.3203,176.321,,0,,1,176.321,176.3211,176.3216,177.8164,0,37,37,37,1,0.8,0.2,0.4,0.6,1,0,,,,,,,,,,,,,,,,,,,,,,,,,,,,,,,,,,,,
,,603e8ed1b54e6cf4fafcaa1a,66fc9967f1626500d41d5142,2024-10-02_01h53.29.443,mdp,2024.2.1,MacIntel,29.94011976,66fa4ebf79326e780c390304,,,,,,,,,,,,,,,,,,,,,177.8168,177.8168,177.8178,178.8838,0,0,left,0.5421,,178.8851,178.8863,,0,,178.8874,178.8883,,0,,1,178.8884,178.8884,178.8891,180.3837,0,38,38,38,1,0.8,0.2,0.4,0.6,1,0,,,,,,,,,,,,,,,,,,,,,,,,,,,,,,,,,,,,
,,603e8ed1b54e6cf4fafcaa1a,66fc9967f1626500d41d5142,2024-10-02_01h53.29.443,mdp,2024.2.1,MacIntel,29.94011976,66fa4ebf79326e780c390304,,,,,,,,,,,,,,,,,,,,,180.3841,180.3841,180.3854,181.3173,0,0,left,0.3806,,181.3186,181.3199,,0,,181.3211,181.3219,,0,,1,181.322,181.322,181.3226,182.8173,0,39,39,39,1,0.8,0.2,0.4,0.6,1,0,,,,,,,,,,,,,,,,,,,,,,,,,,,,,,,,,,,,
,,603e8ed1b54e6cf4fafcaa1a,66fc9967f1626500d41d5142,2024-10-02_01h53.29.443,mdp,2024.2.1,MacIntel,29.94011976,66fa4ebf79326e780c390304,,,,,,,,,,,,,,,,,,,,,182.8176,182.8176,182.8202,183.9842,0,1,left,0.608,,183.9853,183.9868,,0,,183.9878,183.9887,,0,,0,183.9888,183.9888,183.9895,185.4842,0,40,40,40,1,0.8,0.2,0.4,0.6,1,0,,,,,,,,,,,,,,,,,,,,,,,,,,,,,,,,,,,,
,,603e8ed1b54e6cf4fafcaa1a,66fc9967f1626500d41d5142,2024-10-02_01h53.29.443,mdp,2024.2.1,MacIntel,29.94011976,66fa4ebf79326e780c390304,,,,,,,,,,,,,,,,,,,,,185.4845,185.4845,185.4857,186.351,1,1,right,0.3057,,186.3523,186.3535,,0,,186.3545,186.3554,,1,,0,186.3554,186.3554,186.356,187.851,0,41,41,41,1,0.8,0.2,0.4,0.6,1,0,,,,,,,,,,,,,,,,,,,,,,,,,,,,,,,,,,,,
,,603e8ed1b54e6cf4fafcaa1a,66fc9967f1626500d41d5142,2024-10-02_01h53.29.443,mdp,2024.2.1,MacIntel,29.94011976,66fa4ebf79326e780c390304,,,,,,,,,,,,,,,,,,,,,187.8512,187.8512,187.8524,188.5845,1,1,right,0.1743,,188.5857,188.5868,,0,,188.5876,188.5883,,0,,0,188.5884,188.5884,188.589,190.0844,0,42,42,42,1,0.4,0.6,0.6,0.4,1,0,,,,,,,,,,,,,,,,,,,,,,,,,,,,,,,,,,,,
,,603e8ed1b54e6cf4fafcaa1a,66fc9967f1626500d41d5142,2024-10-02_01h53.29.443,mdp,2024.2.1,MacIntel,29.94011976,66fa4ebf79326e780c390304,,,,,,,,,,,,,,,,,,,,,190.0847,190.0847,190.0859,190.9181,0,0,left,0.2777,,190.9193,190.9205,,0,,190.9215,190.9225,,1,,1,190.9227,190.9227,190.9234,192.418,0,43,43,43,1,0.4,0.6,0.6,0.4,1,0,,,,,,,,,,,,,,,,,,,,,,,,,,,,,,,,,,,,
,,603e8ed1b54e6cf4fafcaa1a,66fc9967f1626500d41d5142,2024-10-02_01h53.29.443,mdp,2024.2.1,MacIntel,29.94011976,66fa4ebf79326e780c390304,,,,,,,,,,,,,,,,,,,,,192.4183,192.4183,192.4196,193.4175,0,1,left,0.4574,,193.4185,193.4195,,0,,193.4203,193.421,,0,,0,193.421,193.421,193.4216,194.9171,0,44,44,44,1,0.4,0.6,0.6,0.4,1,0,,,,,,,,,,,,,,,,,,,,,,,,,,,,,,,,,,,,
,,603e8ed1b54e6cf4fafcaa1a,66fc9967f1626500d41d5142,2024-10-02_01h53.29.443,mdp,2024.2.1,MacIntel,29.94011976,66fa4ebf79326e780c390304,,,,,,,,,,,,,,,,,,,,,194.9174,194.9175,194.9185,196.0183,1,0,right,0.5839,,196.0195,196.0208,,0,,196.0218,196.0226,,0,,1,196.0227,196.0227,196.0235,197.5174,0,45,45,45,1,0.4,0.6,0.6,0.4,1,0,,,,,,,,,,,,,,,,,,,,,,,,,,,,,,,,,,,,
,,603e8ed1b54e6cf4fafcaa1a,66fc9967f1626500d41d5142,2024-10-02_01h53.29.443,mdp,2024.2.1,MacIntel,29.94011976,66fa4ebf79326e780c390304,,,,,,,,,,,,,,,,,,,,,197.5179,197.5179,197.519,198.3519,1,0,right,0.3187,,198.3531,198.3545,,0,,198.3555,198.3564,,0,,1,198.3564,198.3564,198.3572,199.8517,0,46,46,46,1,0.4,0.6,0.6,0.4,1,0,,,,,,,,,,,,,,,,,,,,,,,,,,,,,,,,,,,,
,,603e8ed1b54e6cf4fafcaa1a,66fc9967f1626500d41d5142,2024-10-02_01h53.29.443,mdp,2024.2.1,MacIntel,29.94011976,66fa4ebf79326e780c390304,,,,,,,,,,,,,,,,,,,,,199.852,199.852,199.8534,200.652,1,1,right,0.2437,,200.6532,200.6542,,0,,200.655,200.6559,,1,,0,200.656,200.656,200.6568,202.152,0,47,47,47,1,0.4,0.6,0.6,0.4,1,0,,,,,,,,,,,,,,,,,,,,,,,,,,,,,,,,,,,,
,,603e8ed1b54e6cf4fafcaa1a,66fc9967f1626500d41d5142,2024-10-02_01h53.29.443,mdp,2024.2.1,MacIntel,29.94011976,66fa4ebf79326e780c390304,,,,,,,,,,,,,,,,,,,,,202.1523,202.1523,202.1535,203.1856,0,1,left,0.4747,,203.1868,203.1879,,1,,203.189,203.1903,,1,,0,203.1903,203.1903,203.1911,204.6845,0,48,48,48,1,0.4,0.6,0.6,0.4,1,0,,,,,,,,,,,,,,,,,,,,,,,,,,,,,,,,,,,,
,,603e8ed1b54e6cf4fafcaa1a,66fc9967f1626500d41d5142,2024-10-02_01h53.29.443,mdp,2024.2.1,MacIntel,29.94011976,66fa4ebf79326e780c390304,,,,,,,,,,,,,,,,,,,,,204.6848,204.6848,204.6859,206.5847,0,1,left,1.354,,206.5861,206.5872,,1,,206.5884,206.5893,,1,,0,206.5893,206.5894,206.5901,208.0857,0,49,49,49,1,0.4,0.6,0.6,0.4,1,0,,,,,,,,,,,,,,,,,,,,,,,,,,,,,,,,,,,,
,,603e8ed1b54e6cf4fafcaa1a,66fc9967f1626500d41d5142,2024-10-02_01h53.29.443,mdp,2024.2.1,MacIntel,29.94011976,66fa4ebf79326e780c390304,,,,,,,,,,,,,,,,,,,,,,,,,,,,,,,,,,,,,,,,,,,,,,,,,,,,,,,,208.0864,266.6069,0,0,0,6,1,imgs/cat.png,imgs/dog.png,imgs/kangaroo.png,imgs/goat.png,imgs/giraffe.png,,,,,,,,,,,,,,,,,,,,,,,,
,,603e8ed1b54e6cf4fafcaa1a,66fc9967f1626500d41d5142,2024-10-02_01h53.29.443,mdp,2024.2.1,MacIntel,29.94011976,66fa4ebf79326e780c390304,,,,,,,,,,,,,,2,seqs/st2seq35.csv,266.6228,275.5724,space,8.4239,,275.5881,275.5881,275.5891,277.6072,1,1,right,1.4546,,277.6084,279.3073,1,0,right,279.3082,279.3091,,0,,1,279.3091,279.3092,279.3099,280.8073,0,0,0,0,1,0.8,0.2,0.2,0.8,,,,,,,,,,,,,,,1.1429,,0.2,0.8,0.6,0.4,0.6,0.4,0.8,0.2,1,0,,,,,,,,,,,,
,,603e8ed1b54e6cf4fafcaa1a,66fc9967f1626500d41d5142,2024-10-02_01h53.29.443,mdp,2024.2.1,MacIntel,29.94011976,66fa4ebf79326e780c390304,,,,,,,,,,,,,,,,,,,,,280.8077,280.8077,280.809,282.3736,1,1,right,1.0018,,282.3747,283.8075,1,0,right,283.8086,283.8099,,0,,1,283.81,283.81,283.811,285.3075,0,1,1,1,1,0.8,0.2,0.2,0.8,,,,,,,,,,,,,,,0.8714,,0.2,0.8,0.6,0.4,0.6,0.4,0.8,0.2,1,0,,,,,,,,,,,,
,,603e8ed1b54e6cf4fafcaa1a,66fc9967f1626500d41d5142,2024-10-02_01h53.29.443,mdp,2024.2.1,MacIntel,29.94011976,66fa4ebf79326e780c390304,,,,,,,,,,,,,,,,,,,,,285.3079,285.3079,285.3091,286.5077,1,0,right,0.6528,,286.5087,287.4409,1,0,right,287.4418,287.4432,,1,,1,287.4432,287.4432,287.4441,288.9411,0,2,2,2,1,0.8,0.2,0.2,0.8,,,,,,,,,,,,,,,0.3822,,0.4,0.6,0.4,0.6,0.6,0.4,0.8,0.2,1,0,,,,,,,,,,,,
,,603e8ed1b54e6cf4fafcaa1a,66fc9967f1626500d41d5142,2024-10-02_01h53.29.443,mdp,2024.2.1,MacIntel,29.94011976,66fa4ebf79326e780c390304,,,,,,,,,,,,,,,,,,,,,288.9414,288.9414,288.9425,290.1069,1,1,right,0.6173,,290.108,291.2415,1,0,right,291.2426,291.2438,,0,,1,291.2439,291.244,291.2449,292.7403,0,3,3,3,1,0.8,0.2,0.2,0.8,,,,,,,,,,,,,,,0.601,,0.4,0.6,0.4,0.6,0.6,0.4,0.8,0.2,1,0,,,,,,,,,,,,
,,603e8ed1b54e6cf4fafcaa1a,66fc9967f1626500d41d5142,2024-10-02_01h53.29.443,mdp,2024.2.1,MacIntel,29.94011976,66fa4ebf79326e780c390304,,,,,,,,,,,,,,,,,,,,,292.7408,292.7408,292.742,293.7071,1,1,right,0.4336,,293.7083,294.8084,1,0,right,294.8096,294.8109,,0,,1,294.8109,294.8109,294.8118,296.3083,0,4,4,4,1,0.8,0.2,0.2,0.8,,,,,,,,,,,,,,,0.5726,,0.4,0.6,0.4,0.6,0.6,0.4,0.8,0.2,1,0,,,,,,,,,,,,
,,603e8ed1b54e6cf4fafcaa1a,66fc9967f1626500d41d5142,2024-10-02_01h53.29.443,mdp,2024.2.1,MacIntel,29.94011976,66fa4ebf79326e780c390304,,,,,,,,,,,,,,,,,,,,,296.3087,296.3087,296.3098,297.2409,1,0,right,0.3731,,297.2423,298.6407,0,1,left,298.6415,298.6421,,0,,0,298.6421,298.6422,298.6427,300.1418,0,5,5,5,1,0.8,0.2,0.2,0.8,,,,,,,,,,,,,,,0.8826,,0.4,0.6,0.4,0.6,0.6,0.4,0.8,0.2,1,0,,,,,,,,,,,,
,,603e8ed1b54e6cf4fafcaa1a,66fc9967f1626500d41d5142,2024-10-02_01h53.29.443,mdp,2024.2.1,MacIntel,29.94011976,66fa4ebf79326e780c390304,,,,,,,,,,,,,,,,,,,,,300.1422,300.1422,300.1433,301.4409,1,0,right,0.7349,,301.442,302.8746,1,0,right,302.8756,302.8766,,0,,1,302.8767,302.8767,302.8774,304.3743,0,6,6,6,1,0.8,0.2,0.2,0.8,,,,,,,,,,,,,,,0.9177,,0.4,0.6,0.4,0.6,0.6,0.4,0.8,0.2,1,0,,,,,,,,,,,,
,,603e8ed1b54e6cf4fafcaa1a,66fc9967f1626500d41d5142,2024-10-02_01h53.29.443,mdp,2024.2.1,MacIntel,29.94011976,66fa4ebf79326e780c390304,,,,,,,,,,,,,,,,,,,,,304.3747,304.3747,304.3759,305.4757,1,1,right,0.5707,,305.477,306.9414,1,0,right,306.9426,306.9438,,0,,1,306.9438,306.9438,306.9445,308.4424,0,7,7,7,1,0.8,0.2,0.2,0.8,,,,,,,,,,,,,,,0.8964,,0.4,0.6,0.4,0.6,0.6,0.4,0.8,0.2,1,0,,,,,,,,,,,,
,,603e8ed1b54e6cf4fafcaa1a,66fc9967f1626500d41d5142,2024-10-02_01h53.29.443,mdp,2024.2.1,MacIntel,29.94011976,66fa4ebf79326e780c390304,,,,,,,,,,,,,,,,,,,,,308.4428,308.4428,308.444,309.5759,1,1,right,0.5714,,309.5771,310.6427,1,1,right,310.6439,310.6451,,1,,0,310.6452,310.6452,310.6461,312.1416,0,8,8,8,1,0.8,0.2,0.2,0.8,,,,,,,,,,,,,,,0.52,,0.4,0.6,0.4,0.6,0.8,0.2,0.2,0.8,1,0,,,,,,,,,,,,
,,603e8ed1b54e6cf4fafcaa1a,66fc9967f1626500d41d5142,2024-10-02_01h53.29.443,mdp,2024.2.1,MacIntel,29.94011976,66fa4ebf79326e780c390304,,,,,,,,,,,,,,,,,,,,,312.1419,312.1419,312.143,313.0752,1,0,right,0.405,,313.0764,314.1098,0,0,left,314.1109,314.1121,,1,,1,314.1122,314.1122,314.113,315.6096,0,9,9,9,1,0.8,0.2,0.2,0.8,,,,,,,,,,,,,,,0.5028,,0.4,0.6,0.4,0.6,0.8,0.2,0.2,0.8,1,0,,,,,,,,,,,,
,,603e8ed1b54e6cf4fafcaa1a,66fc9967f1626500d41d5142,2024-10-02_01h53.29.443,mdp,2024.2.1,MacIntel,29.94011976,66fa4ebf79326e780c390304,,,,,,,,,,,,,,,,,,,,,315.6099,315.6099,315.6111,316.8088,1,1,right,0.6331,,316.81,318.1432,1,1,right,318.1445,318.1457,,1,,0,318.1457,318.1457,318.1467,319.6421,0,10,10,10,1,0.8,0.2,0.2,0.8,,,,,,,,,,,,,,,0.7678,,0.4,0.6,0.4,0.6,0.8,0.2,0.2,0.8,1,0,,,,,,,,,,,,
,,603e8ed1b54e6cf4fafcaa1a,66fc9967f1626500d41d5142,2024-10-02_01h53.29.443,mdp,2024.2.1,MacIntel,29.94011976,66fa4ebf79326e780c390304,,,,,,,,,,,,,,,,,,,,,319.6425,319.6425,319.6438,320.6434,1,1,right,0.4875,,320.6446,322.11,0,0,left,322.1109,322.1119,,0,,1,322.112,322.112,322.1126,323.6101,0,11,11,11,1,0.8,0.2,0.2,0.8,,,,,,,,,,,,,,,0.9253,,0.4,0.6,0.4,0.6,0.8,0.2,0.2,0.8,1,0,,,,,,,,,,,,
,,603e8ed1b54e6cf4fafcaa1a,66fc9967f1626500d41d5142,2024-10-02_01h53.29.443,mdp,2024.2.1,MacIntel,29.94011976,66fa4ebf79326e780c390304,,,,,,,,,,,,,,,,,,,,,323.6105,323.6105,323.6118,324.8092,1,1,right,0.6563,,324.8101,326.1444,0,0,left,326.1457,326.147,,1,,1,326.147,326.147,326.1478,327.6437,0,12,12,12,1,0.8,0.2,0.2,0.8,,,,,,,,,,,,,,,0.828,,0.4,0.6,0.4,0.6,0.8,0.2,0.2,0.8,1,0,,,,,,,,,,,,
,,603e8ed1b54e6cf4fafcaa1a,66fc9967f1626500d41d5142,2024-10-02_01h53.29.443,mdp,2024.2.1,MacIntel,29.94011976,66fa4ebf79326e780c390304,,,,,,,,,,,,,,,,,,,,,327.6441,327.6441,327.6453,328.6773,1,0,right,0.4755,,328.6784,330.5764,0,1,left,330.5777,330.5789,,0,,0,330.5789,330.5789,330.5798,332.0763,0,13,13,13,1,0.8,0.2,0.2,0.8,,,,,,,,,,,,,,,1.3244,,0.4,0.6,0.4,0.6,0.8,0.2,0.2,0.8,1,0,,,,,,,,,,,,
,,603e8ed1b54e6cf4fafcaa1a,66fc9967f1626500d41d5142,2024-10-02_01h53.29.443,mdp,2024.2.1,MacIntel,29.94011976,66fa4ebf79326e780c390304,,,,,,,,,,,,,,,,,,,,,332.0766,332.0766,332.078,333.1098,1,1,right,0.484,,333.111,334.511,0,1,left,334.5122,334.5134,,0,,0,334.5134,334.5134,334.5144,336.0099,0,14,14,14,1,0.8,0.2,0.2,0.8,,,,,,,,,,,,,,,0.8349,,0.4,0.6,0.4,0.6,0.8,0.2,0.2,0.8,1,0,,,,,,,,,,,,
,,603e8ed1b54e6cf4fafcaa1a,66fc9967f1626500d41d5142,2024-10-02_01h53.29.443,mdp,2024.2.1,MacIntel,29.94011976,66fa4ebf79326e780c390304,,,,,,,,,,,,,,,,,,,,,336.0103,336.0103,336.0116,337.0102,1,1,right,0.4498,,337.0112,337.8434,1,1,right,337.8447,337.846,,0,,0,337.8461,337.8461,337.847,339.3437,0,15,15,15,1,0.8,0.2,0.2,0.8,,,,,,,,,,,,,,,0.3195,,0.4,0.6,0.4,0.6,0.8,0.2,0.2,0.8,1,0,,,,,,,,,,,,
,,603e8ed1b54e6cf4fafcaa1a,66fc9967f1626500d41d5142,2024-10-02_01h53.29.443,mdp,2024.2.1,MacIntel,29.94011976,66fa4ebf79326e780c390304,,,,,,,,,,,,,,,,,,,,,339.344,339.344,339.3452,340.5104,1,1,right,0.616,,340.5117,341.5438,0,0,left,341.5451,341.5462,,0,,1,341.5463,341.5463,341.5473,343.0437,0,16,16,16,1,0.8,0.2,0.2,0.8,,,,,,,,,,,,,,,0.4754,,0.4,0.6,0.4,0.6,0.8,0.2,0.2,0.8,1,0,,,,,,,,,,,,
,,603e8ed1b54e6cf4fafcaa1a,66fc9967f1626500d41d5142,2024-10-02_01h53.29.443,mdp,2024.2.1,MacIntel,29.94011976,66fa4ebf79326e780c390304,,,,,,,,,,,,,,,,,,,,,343.0441,343.0441,343.0453,343.9775,1,1,right,0.3918,,343.9788,345.0773,0,0,left,345.0785,345.0797,,0,,1,345.0798,345.0798,345.0807,346.5773,0,17,17,17,1,0.8,0.2,0.2,0.8,,,,,,,,,,,,,,,0.5852,,0.4,0.6,0.4,0.6,0.8,0.2,0.2,0.8,1,0,,,,,,,,,,,,
,,603e8ed1b54e6cf4fafcaa1a,66fc9967f1626500d41d5142,2024-10-02_01h53.29.443,mdp,2024.2.1,MacIntel,29.94011976,66fa4ebf79326e780c390304,,,,,,,,,,,,,,,,,,,,,346.5777,346.5777,346.5789,347.6109,1,1,right,0.5051,,347.6118,348.5113,0,1,left,348.5125,348.5137,,1,,0,348.5138,348.5138,348.5148,350.0119,0,18,18,18,1,0.8,0.2,0.2,0.8,,,,,,,,,,,,,,,0.3859,,0.4,0.6,0.4,0.6,0.4,0.6,0.8,0.2,1,0,,,,,,,,,,,,
,,603e8ed1b54e6cf4fafcaa1a,66fc9967f1626500d41d5142,2024-10-02_01h53.29.443,mdp,2024.2.1,MacIntel,29.94011976,66fa4ebf79326e780c390304,,,,,,,,,,,,,,,,,,,,,350.0123,350.0123,350.0134,350.949,1,1,right,0.3885,,350.9498,352.6777,1,1,right,352.679,352.6802,,0,,0,352.6802,352.6802,352.6813,354.1777,0,19,19,19,1,0.8,0.2,0.2,0.8,,,,,,,,,,,,,,,1.1672,,0.4,0.6,0.4,0.6,0.6,0.4,0.4,0.6,1,0,,,,,,,,,,,,
,,603e8ed1b54e6cf4fafcaa1a,66fc9967f1626500d41d5142,2024-10-02_01h53.29.443,mdp,2024.2.1,MacIntel,29.94011976,66fa4ebf79326e780c390304,,,,,,,,,,,,,,,,,,,,,354.1781,354.1781,354.1793,355.278,1,1,right,0.5352,,355.2792,356.6781,0,0,left,356.6795,356.6807,,0,,1,356.6808,356.6808,356.6818,358.178,0,20,20,20,1,0.8,0.2,0.2,0.8,,,,,,,,,,,,,,,0.841,,0.4,0.6,0.4,0.6,0.6,0.4,0.4,0.6,1,0,,,,,,,,,,,,
,,603e8ed1b54e6cf4fafcaa1a,66fc9967f1626500d41d5142,2024-10-02_01h53.29.443,mdp,2024.2.1,MacIntel,29.94011976,66fa4ebf79326e780c390304,,,,,,,,,,,,,,,,,,,,,358.1784,358.1784,358.1797,359.2449,1,1,right,0.5071,,359.2461,360.2784,0,0,left,360.2795,360.2804,,0,,1,360.2804,360.2804,360.2812,361.7783,0,21,21,21,1,0.8,0.2,0.2,0.8,,,,,,,,,,,,,,,0.5082,,0.4,0.6,0.4,0.6,0.6,0.4,0.4,0.6,1,0,,,,,,,,,,,,
,,603e8ed1b54e6cf4fafcaa1a,66fc9967f1626500d41d5142,2024-10-02_01h53.29.443,mdp,2024.2.1,MacIntel,29.94011976,66fa4ebf79326e780c390304,,,,,,,,,,,,,,,,,,,,,361.7787,361.7787,361.7798,363.0785,1,0,right,0.7351,,363.0795,364.0786,0,0,left,364.0799,364.0809,,1,,1,364.0809,364.0809,364.0818,365.5785,0,22,22,22,1,0.8,0.2,0.2,0.8,,,,,,,,,,,,,,,0.4451,,0.4,0.6,0.4,0.6,0.6,0.4,0.4,0.6,1,0,,,,,,,,,,,,
,,603e8ed1b54e6cf4fafcaa1a,66fc9967f1626500d41d5142,2024-10-02_01h53.29.443,mdp,2024.2.1,MacIntel,29.94011976,66fa4ebf79326e780c390304,,,,,,,,,,,,,,,,,,,,,365.579,365.579,365.5801,366.6788,1,1,right,0.5523,,366.6801,367.6787,0,1,left,367.6796,367.6802,,0,,0,367.6803,367.6803,367.6812,369.1789,0,23,23,23,1,0.8,0.2,0.2,0.8,,,,,,,,,,,,,,,0.4828,,0.4,0.6,0.4,0.6,0.6,0.4,0.4,0.6,1,0,,,,,,,,,,,,
,,603e8ed1b54e6cf4fafcaa1a,66fc9967f1626500d41d5142,2024-10-02_01h53.29.443,mdp,2024.2.1,MacIntel,29.94011976,66fa4ebf79326e780c390304,,,,,,,,,,,,,,,,,,,,,369.1793,369.1793,369.1805,370.1124,1,1,right,0.3729,,370.1136,370.9848,0,0,left,370.9859,370.9869,,0,,1,370.987,370.987,370.9876,372.479,0,24,24,24,1,0.8,0.2,0.2,0.8,,,,,,,,,,,,,,,0.3096,,0.2,0.8,0.8,0.2,0.6,0.4,0.4,0.6,1,0,,,,,,,,,,,,
,,603e8ed1b54e6cf4fafcaa1a,66fc9967f1626500d41d5142,2024-10-02_01h53.29.443,mdp,2024.2.1,MacIntel,29.94011976,66fa4ebf79326e780c390304,,,,,,,,,,,,,,,,,,,,,372.4794,372.4795,372.4806,373.3793,1,1,right,0.346,,373.3805,374.2793,0,1,left,374.2805,374.2814,,0,,0,374.2816,374.2816,374.2823,375.7791,0,25,25,25,1,0.8,0.2,0.2,0.8,,,,,,,,,,,,,,,0.3447,,0.2,0.8,0.8,0.2,0.6,0.4,0.4,0.6,1,0,,,,,,,,,,,,
,,603e8ed1b54e6cf4fafcaa1a,66fc9967f1626500d41d5142,2024-10-02_01h53.29.443,mdp,2024.2.1,MacIntel,29.94011976,66fa4ebf79326e780c390304,,,,,,,,,,,,,,,,,,,,,375.7793,375.7793,375.7801,376.6797,1,1,right,0.3515,,376.6808,377.513,0,0,left,377.5141,377.5149,,0,,1,377.515,377.515,377.5156,379.0128,0,26,26,26,1,0.8,0.2,0.2,0.8,,,,,,,,,,,,,,,0.3094,,0.2,0.8,0.8,0.2,0.6,0.4,0.4,0.6,1,0,,,,,,,,,,,,
,,603e8ed1b54e6cf4fafcaa1a,66fc9967f1626500d41d5142,2024-10-02_01h53.29.443,mdp,2024.2.1,MacIntel,29.94011976,66fa4ebf79326e780c390304,,,,,,,,,,,,,,,,,,,,,379.0132,379.0132,379.0145,379.9799,1,1,right,0.4084,,379.9811,380.8131,1,0,right,380.8143,380.8156,,0,,1,380.8156,380.8156,380.8167,382.3139,0,27,27,27,1,0.8,0.2,0.2,0.8,,,,,,,,,,,,,,,0.3167,,0.2,0.8,0.8,0.2,0.8,0.2,0.2,0.8,1,0,,,,,,,,,,,,
,,603e8ed1b54e6cf4fafcaa1a,66fc9967f1626500d41d5142,2024-10-02_01h53.29.443,mdp,2024.2.1,MacIntel,29.94011976,66fa4ebf79326e780c390304,,,,,,,,,,,,,,,,,,,,,382.3142,382.3142,382.315,383.2132,1,0,right,0.3527,,383.2144,384.1134,0,1,left,384.1147,384.1158,,1,,0,384.1158,384.1159,384.1171,385.6133,0,28,28,28,1,0.8,0.2,0.2,0.8,,,,,,,,,,,,,,,0.3331,,0.2,0.8,0.8,0.2,0.8,0.2,0.2,0.8,1,0,,,,,,,,,,,,
,,603e8ed1b54e6cf4fafcaa1a,66fc9967f1626500d41d5142,2024-10-02_01h53.29.443,mdp,2024.2.1,MacIntel,29.94011976,66fa4ebf79326e780c390304,,,,,,,,,,,,,,,,,,,,,385.6137,385.6137,385.6149,386.5801,1,1,right,0.4239,,386.5811,387.5801,0,0,left,387.5814,387.5823,,0,,1,387.5825,387.5826,387.5835,389.0802,0,29,29,29,1,0.8,0.2,0.2,0.8,,,,,,,,,,,,,,,0.4426,,0.2,0.8,0.8,0.2,0.8,0.2,0.2,0.8,1,0,,,,,,,,,,,,
,,603e8ed1b54e6cf4fafcaa1a,66fc9967f1626500d41d5142,2024-10-02_01h53.29.443,mdp,2024.2.1,MacIntel,29.94011976,66fa4ebf79326e780c390304,,,,,,,,,,,,,,,,,,,,,389.0805,389.0805,389.0818,389.9139,1,1,right,0.2675,,389.915,390.8805,1,1,right,390.8818,390.8828,,0,,0,390.8829,390.8829,390.8837,392.3804,0,30,30,30,1,0.8,0.2,0.2,0.8,,,,,,,,,,,,,,,0.4256,,0.8,0.2,0.4,0.6,0.8,0.2,0.2,0.8,1,0,,,,,,,,,,,,
,,603e8ed1b54e6cf4fafcaa1a,66fc9967f1626500d41d5142,2024-10-02_01h53.29.443,mdp,2024.2.1,MacIntel,29.94011976,66fa4ebf79326e780c390304,,,,,,,,,,,,,,,,,,,,,392.3809,392.3809,392.3819,393.3471,1,1,right,0.4237,,393.3482,394.514,1,1,right,394.5152,394.5165,,1,,0,394.5166,394.5166,394.5175,396.0138,0,31,31,31,1,0.8,0.2,0.2,0.8,,,,,,,,,,,,,,,0.6419,,0.8,0.2,0.4,0.6,0.8,0.2,0.2,0.8,1,0,,,,,,,,,,,,
,,603e8ed1b54e6cf4fafcaa1a,66fc9967f1626500d41d5142,2024-10-02_01h53.29.443,mdp,2024.2.1,MacIntel,29.94011976,66fa4ebf79326e780c390304,,,,,,,,,,,,,,,,,,,,,396.0143,396.0143,396.0154,397.2486,1,1,right,0.7067,,397.2497,398.6149,0,1,left,398.6159,398.6168,,0,,0,398.6169,398.6169,398.6178,400.1143,0,32,32,32,1,0.8,0.2,0.2,0.8,,,,,,,,,,,,,,,0.828,,0.8,0.2,0.4,0.6,0.8,0.2,0.2,0.8,1,0,,,,,,,,,,,,
,,603e8ed1b54e6cf4fafcaa1a,66fc9967f1626500d41d5142,2024-10-02_01h53.29.443,mdp,2024.2.1,MacIntel,29.94011976,66fa4ebf79326e780c390304,,,,,,,,,,,,,,,,,,,,,400.1146,400.1147,400.1158,401.1145,1,1,right,0.4548,,401.1157,402.0812,0,1,left,402.0824,402.0837,,0,,0,402.0838,402.0838,402.0848,403.5812,0,33,33,33,1,0.8,0.2,0.2,0.8,,,,,,,,,,,,,,,0.4008,,0.8,0.2,0.4,0.6,0.8,0.2,0.2,0.8,1,0,,,,,,,,,,,,
,,603e8ed1b54e6cf4fafcaa1a,66fc9967f1626500d41d5142,2024-10-02_01h53.29.443,mdp,2024.2.1,MacIntel,29.94011976,66fa4ebf79326e780c390304,,,,,,,,,,,,,,,,,,,,,403.5817,403.5817,403.5829,404.5147,1,0,right,0.3663,,404.516,405.4157,0,0,left,405.417,405.4184,,0,,1,405.4185,405.4185,405.4194,406.9146,0,34,34,34,1,0.8,0.2,0.2,0.8,,,,,,,,,,,,,,,0.3517,,0.8,0.2,0.4,0.6,0.8,0.2,0.2,0.8,1,0,,,,,,,,,,,,
,,603e8ed1b54e6cf4fafcaa1a,66fc9967f1626500d41d5142,2024-10-02_01h53.29.443,mdp,2024.2.1,MacIntel,29.94011976,66fa4ebf79326e780c390304,,,,,,,,,,,,,,,,,,,,,406.915,406.915,406.9162,407.8482,1,0,right,0.4082,,407.8493,408.9151,1,0,right,408.9164,408.9179,,1,,1,408.9179,408.9179,408.9189,410.4149,0,35,35,35,1,0.8,0.2,0.2,0.8,,,,,,,,,,,,,,,0.5015,,0.8,0.2,0.4,0.6,0.2,0.8,0.4,0.6,1,0,,,,,,,,,,,,
,,603e8ed1b54e6cf4fafcaa1a,66fc9967f1626500d41d5142,2024-10-02_01h53.29.443,mdp,2024.2.1,MacIntel,29.94011976,66fa4ebf79326e780c390304,,,,,,,,,,,,,,,,,,,,,410.4153,410.4153,410.4165,411.4485,1,0,right,0.4714,,411.4496,412.3821,0,0,left,412.3832,412.3847,,0,,1,412.3848,412.3848,412.386,413.8818,0,36,36,36,1,0.8,0.2,0.2,0.8,,,,,,,,,,,,,,,0.3765,,0.8,0.2,0.4,0.6,0.2,0.8,0.4,0.6,1,0,,,,,,,,,,,,
,,603e8ed1b54e6cf4fafcaa1a,66fc9967f1626500d41d5142,2024-10-02_01h53.29.443,mdp,2024.2.1,MacIntel,29.94011976,66fa4ebf79326e780c390304,,,,,,,,,,,,,,,,,,,,,413.8823,413.8824,413.8835,414.8829,1,1,right,0.4412,,414.8839,416.8155,0,0,left,416.8167,416.8177,,1,,1,416.8178,416.8178,416.8186,418.3168,0,37,37,37,1,0.8,0.2,0.2,0.8,,,,,,,,,,,,,,,1.3656,,0.8,0.2,0.4,0.6,0.2,0.8,0.4,0.6,1,0,,,,,,,,,,,,
,,603e8ed1b54e6cf4fafcaa1a,66fc9967f1626500d41d5142,2024-10-02_01h53.29.443,mdp,2024.2.1,MacIntel,29.94011976,66fa4ebf79326e780c390304,,,,,,,,,,,,,,,,,,,,,418.317,418.317,418.3177,419.2823,1,1,right,0.4242,,419.2835,420.2158,1,1,right,420.2171,420.2184,,0,,0,420.2184,420.2184,420.2193,421.7158,0,38,38,38,1,0.8,0.2,0.2,0.8,,,,,,,,,,,,,,,0.3683,,0.8,0.2,0.4,0.6,0.2,0.8,0.4,0.6,1,0,,,,,,,,,,,,
,,603e8ed1b54e6cf4fafcaa1a,66fc9967f1626500d41d5142,2024-10-02_01h53.29.443,mdp,2024.2.1,MacIntel,29.94011976,66fa4ebf79326e780c390304,,,,,,,,,,,,,,,,,,,,,421.7163,421.7163,421.7174,422.6499,1,0,right,0.3863,,422.6508,423.6497,1,1,right,423.6508,423.6518,,1,,0,423.6519,423.6519,423.6528,425.1493,0,39,39,39,1,0.8,0.2,0.2,0.8,,,,,,,,,,,,,,,0.4424,,0.8,0.2,0.4,0.6,0.2,0.8,0.4,0.6,1,0,,,,,,,,,,,,
,,603e8ed1b54e6cf4fafcaa1a,66fc9967f1626500d41d5142,2024-10-02_01h53.29.443,mdp,2024.2.1,MacIntel,29.94011976,66fa4ebf79326e780c390304,,,,,,,,,,,,,,,,,,,,,425.1497,425.1497,425.1508,426.1507,1,1,right,0.4428,,426.1519,427.0163,1,0,right,427.0174,427.0187,,1,,1,427.0188,427.0188,427.0197,428.5162,0,40,40,40,1,0.8,0.2,0.2,0.8,,,,,,,,,,,,,,,0.2987,,0.8,0.2,0.4,0.6,0.2,0.8,0.4,0.6,1,0,,,,,,,,,,,,
,,603e8ed1b54e6cf4fafcaa1a,66fc9967f1626500d41d5142,2024-10-02_01h53.29.443,mdp,2024.2.1,MacIntel,29.94011976,66fa4ebf79326e780c390304,,,,,,,,,,,,,,,,,,,,,428.5166,428.5166,428.5178,429.4839,1,1,right,0.411,,429.4847,430.3498,0,0,left,430.3509,430.3521,,1,,1,430.3522,430.3522,430.3531,431.8499,0,41,41,41,1,0.8,0.2,0.2,0.8,,,,,,,,,,,,,,,0.307,,0.8,0.2,0.4,0.6,0.2,0.8,0.4,0.6,1,0,,,,,,,,,,,,
,,603e8ed1b54e6cf4fafcaa1a,66fc9967f1626500d41d5142,2024-10-02_01h53.29.443,mdp,2024.2.1,MacIntel,29.94011976,66fa4ebf79326e780c390304,,,,,,,,,,,,,,,,,,,,,431.8503,431.8503,431.8516,432.7834,1,1,right,0.3681,,432.7845,433.6835,0,1,left,433.6847,433.6859,,1,,0,433.686,433.686,433.687,435.1833,0,42,42,42,1,0.8,0.2,0.2,0.8,,,,,,,,,,,,,,,0.3483,,0.8,0.2,0.4,0.6,0.2,0.8,0.4,0.6,1,0,,,,,,,,,,,,
,,603e8ed1b54e6cf4fafcaa1a,66fc9967f1626500d41d5142,2024-10-02_01h53.29.443,mdp,2024.2.1,MacIntel,29.94011976,66fa4ebf79326e780c390304,,,,,,,,,,,,,,,,,,,,,435.1835,435.1835,435.1846,436.2168,1,1,right,0.4774,,436.2181,437.0169,1,1,right,437.0179,437.0188,,1,,0,437.0189,437.0189,437.0195,438.5169,0,43,43,43,1,0.8,0.2,0.2,0.8,,,,,,,,,,,,,,,0.2564,,0.8,0.2,0.4,0.6,0.2,0.8,0.4,0.6,1,0,,,,,,,,,,,,
,,603e8ed1b54e6cf4fafcaa1a,66fc9967f1626500d41d5142,2024-10-02_01h53.29.443,mdp,2024.2.1,MacIntel,29.94011976,66fa4ebf79326e780c390304,,,,,,,,,,,,,,,,,,,,,438.5173,438.5173,438.5185,439.4835,1,1,right,0.4574,,439.4848,440.4511,0,1,left,440.4518,440.4524,,1,,0,440.4525,440.4525,440.4532,441.9504,0,44,44,44,1,0.8,0.2,0.2,0.8,,,,,,,,,,,,,,,0.4217,,0.8,0.2,0.4,0.6,0.2,0.8,0.4,0.6,1,0,,,,,,,,,,,,
,,603e8ed1b54e6cf4fafcaa1a,66fc9967f1626500d41d5142,2024-10-02_01h53.29.443,mdp,2024.2.1,MacIntel,29.94011976,66fa4ebf79326e780c390304,,,,,,,,,,,,,,,,,,,,,441.9509,441.9509,441.9522,442.8841,1,1,right,0.3734,,442.8853,443.7506,0,1,left,443.7519,443.7532,,1,,0,443.7532,443.7532,443.7542,445.2507,0,45,45,45,1,0.8,0.2,0.2,0.8,,,,,,,,,,,,,,,0.3008,,0.8,0.2,0.4,0.6,0.2,0.8,0.4,0.6,1,0,,,,,,,,,,,,
,,603e8ed1b54e6cf4fafcaa1a,66fc9967f1626500d41d5142,2024-10-02_01h53.29.443,mdp,2024.2.1,MacIntel,29.94011976,66fa4ebf79326e780c390304,,,,,,,,,,,,,,,,,,,,,445.251,445.251,445.2522,446.1509,1,1,right,0.356,,446.152,446.951,0,1,left,446.9522,446.9534,,1,,0,446.9535,446.9535,446.9543,448.4509,0,46,46,46,1,0.8,0.2,0.2,0.8,,,,,,,,,,,,,,,0.2343,,0.8,0.2,0.4,0.6,0.2,0.8,0.4,0.6,1,0,,,,,,,,,,,,
,,603e8ed1b54e6cf4fafcaa1a,66fc9967f1626500d41d5142,2024-10-02_01h53.29.443,mdp,2024.2.1,MacIntel,29.94011976,66fa4ebf79326e780c390304,,,,,,,,,,,,,,,,,,,,,448.4512,448.4513,448.4525,449.5178,1,1,right,0.4995,,449.519,450.0854,1,1,right,450.0865,450.0876,,1,,0,450.0877,450.0877,450.0886,451.5844,0,47,47,47,1,0.8,0.2,0.2,0.8,,,,,,,,,,,,,,,0.0269,,0.2,0.8,0.8,0.2,0.2,0.8,0.4,0.6,1,0,,,,,,,,,,,,
,,603e8ed1b54e6cf4fafcaa1a,66fc9967f1626500d41d5142,2024-10-02_01h53.29.443,mdp,2024.2.1,MacIntel,29.94011976,66fa4ebf79326e780c390304,,,,,,,,,,,,,,,,,,,,,451.5849,451.5849,451.586,452.618,1,1,right,0.4829,,452.6192,453.4179,0,1,left,453.4188,453.4196,,1,,0,453.4196,453.4196,453.4202,454.9178,0,48,48,48,1,0.8,0.2,0.2,0.8,,,,,,,,,,,,,,,0.2509,,0.2,0.8,0.8,0.2,0.2,0.8,0.4,0.6,1,0,,,,,,,,,,,,
,,603e8ed1b54e6cf4fafcaa1a,66fc9967f1626500d41d5142,2024-10-02_01h53.29.443,mdp,2024.2.1,MacIntel,29.94011976,66fa4ebf79326e780c390304,,,,,,,,,,,,,,,,,,,,,454.9182,454.9182,454.9192,455.9849,1,1,right,0.5009,,455.9862,456.8183,0,1,left,456.8193,456.8204,,1,,0,456.8205,456.8205,456.8212,458.3182,0,49,49,49,1,0.8,0.2,0.2,0.8,,,,,,,,,,,,,,,0.2739,,0.2,0.8,0.8,0.2,0.2,0.8,0.4,0.6,1,0,,,,,,,,,,,,
,,603e8ed1b54e6cf4fafcaa1a,66fc9967f1626500d41d5142,2024-10-02_01h53.29.443,mdp,2024.2.1,MacIntel,29.94011976,66fa4ebf79326e780c390304,,,,,,,,,,,,,,,,,,,,,,,,,,,,,,,,,,,,,,,,,,,,,,,,,,,,,,,,458.3184,525.4614,0,1,1,0,1,imgs/lion.png,imgs/dog.png,imgs/elephant.png,imgs/giraffe.png,imgs/kangaroo.png,,,,,,,,,,,,,,,,,,,,,,,,
,,603e8ed1b54e6cf4fafcaa1a,66fc9967f1626500d41d5142,2024-10-02_01h53.29.443,mdp,2024.2.1,MacIntel,29.94011976,66fa4ebf79326e780c390304,,,,,,,,,,,,,,3,seqs/st3seq40.csv,525.4718,526.9563,space,0.9374,,526.9659,526.9659,526.967,528.7231,1,0,right,1.1957,,528.724,529.9232,1,1,right,529.9246,531.9567,0,1,left,0,531.9568,531.9568,531.9579,533.4567,0,0,0,0,1,0.2,0.8,0.6,0.4,,,,,,,,,,,,,,,0.6366,,0.6,0.4,0.2,0.8,0.2,0.8,0.6,0.4,,,1.4741,,0.2,0.8,0.2,0.8,0.6,0.4,0.2,0.8,1,0
,,603e8ed1b54e6cf4fafcaa1a,66fc9967f1626500d41d5142,2024-10-02_01h53.29.443,mdp,2024.2.1,MacIntel,29.94011976,66fa4ebf79326e780c390304,,,,,,,,,,,,,,,,,,,,,533.4572,533.4572,533.4586,535.2567,1,0,right,1.2554,,535.2579,536.1237,0,0,left,536.125,537.0239,0,1,left,0,537.0239,537.0239,537.0251,538.5236,0,1,1,1,1,0.2,0.8,0.6,0.4,,,,,,,,,,,,,,,0.3244,,0.6,0.4,0.2,0.8,0.2,0.8,0.6,0.4,,,0.3428,,0.2,0.8,0.2,0.8,0.6,0.4,0.2,0.8,1,0
,,603e8ed1b54e6cf4fafcaa1a,66fc9967f1626500d41d5142,2024-10-02_01h53.29.443,mdp,2024.2.1,MacIntel,29.94011976,66fa4ebf79326e780c390304,,,,,,,,,,,,,,,,,,,,,538.5241,538.5241,538.5253,539.5239,1,0,right,0.4575,,539.525,540.7642,1,0,right,540.7651,542.5573,0,0,left,1,542.5573,542.5574,542.5584,544.0575,0,2,2,2,1,0.2,0.8,0.6,0.4,,,,,,,,,,,,,,,0.6972,,0.6,0.4,0.2,0.8,0.2,0.8,0.6,0.4,,,1.2392,,0.2,0.8,0.2,0.8,0.6,0.4,0.2,0.8,1,0
,,603e8ed1b54e6cf4fafcaa1a,66fc9967f1626500d41d5142,2024-10-02_01h53.29.443,mdp,2024.2.1,MacIntel,29.94011976,66fa4ebf79326e780c390304,,,,,,,,,,,,,,,,,,,,,544.0579,544.0579,544.059,545.0241,1,0,right,0.4165,,545.0252,546.5245,1,0,right,546.5257,547.5911,0,1,left,0,547.5912,547.5912,547.5924,549.0909,0,3,3,3,1,0.2,0.8,0.6,0.4,,,,,,,,,,,,,,,0.9376,,0.6,0.4,0.2,0.8,0.2,0.8,0.6,0.4,,,0.5211,,0.2,0.8,0.2,0.8,0.2,0.8,0.8,0.2,1,0
,,603e8ed1b54e6cf4fafcaa1a,66fc9967f1626500d41d5142,2024-10-02_01h53.29.443,mdp,2024.2.1,MacIntel,29.94011976,66fa4ebf79326e780c390304,,,,,,,,,,,,,,,,,,,,,549.0912,549.0912,549.0921,549.9912,1,1,right,0.3396,,549.9925,550.8913,0,1,left,550.8925,552.7912,0,1,left,0,552.7913,552.7913,552.7922,554.2914,0,4,4,4,1,0.2,0.8,0.6,0.4,,,,,,,,,,,,,,,0.3477,,0.6,0.4,0.2,0.8,0.2,0.8,0.6,0.4,,,1.3475,,0.2,0.8,0.2,0.8,0.2,0.8,0.8,0.2,1,0
,,603e8ed1b54e6cf4fafcaa1a,66fc9967f1626500d41d5142,2024-10-02_01h53.29.443,mdp,2024.2.1,MacIntel,29.94011976,66fa4ebf79326e780c390304,,,,,,,,,,,,,,,,,,,,,554.2919,554.2919,554.2931,557.2586,0,1,left,2.4227,,557.2598,558.3919,1,0,right,558.3931,559.4252,1,1,right,0,559.4253,559.4253,559.4264,560.9253,0,5,5,5,1,0.2,0.8,0.6,0.4,,,,,,,,,,,,,,,0.5844,,0.6,0.4,0.2,0.8,0.2,0.8,0.6,0.4,,,0.4619,,0.2,0.8,0.2,0.8,0.2,0.8,0.8,0.2,1,0
,,603e8ed1b54e6cf4fafcaa1a,66fc9967f1626500d41d5142,2024-10-02_01h53.29.443,mdp,2024.2.1,MacIntel,29.94011976,66fa4ebf79326e780c390304,,,,,,,,,,,,,,,,,,,,,560.9256,560.9256,560.9269,562.1924,1,1,right,0.7122,,562.1936,563.3921,0,1,left,563.3931,564.6919,0,0,left,1,564.6919,564.692,564.6928,566.1919,0,6,6,6,1,0.2,0.8,0.6,0.4,,,,,,,,,,,,,,,0.6564,,0.6,0.4,0.2,0.8,0.2,0.8,0.6,0.4,,,0.7771,,0.2,0.8,0.2,0.8,0.8,0.2,0.6,0.4,1,0
,,603e8ed1b54e6cf4fafcaa1a,66fc9967f1626500d41d5142,2024-10-02_01h53.29.443,mdp,2024.2.1,MacIntel,29.94011976,66fa4ebf79326e780c390304,,,,,,,,,,,,,,,,,,,,,566.1923,566.1923,566.1932,567.2922,1,0,right,0.467,,567.2929,568.2259,1,0,right,568.2271,569.626,0,1,left,0,569.6261,569.6261,569.6272,571.1257,0,7,7,7,1,0.6,0.4,0.8,0.2,,,,,,,,,,,,,,,0.4019,,0.6,0.4,0.2,0.8,0.2,0.8,0.6,0.4,,,0.8417,,0.2,0.8,0.2,0.8,0.8,0.2,0.6,0.4,1,0
,,603e8ed1b54e6cf4fafcaa1a,66fc9967f1626500d41d5142,2024-10-02_01h53.29.443,mdp,2024.2.1,MacIntel,29.94011976,66fa4ebf79326e780c390304,,,,,,,,,,,,,,,,,,,,,571.1262,571.1262,571.1274,572.3262,1,1,right,0.6412,,572.3274,573.2595,0,0,left,573.2608,574.2596,1,1,right,0,574.2597,574.2597,574.2609,575.7595,0,8,8,8,1,0.6,0.4,0.8,0.2,,,,,,,,,,,,,,,0.3655,,0.6,0.4,0.2,0.8,0.2,0.8,0.6,0.4,,,0.442,,0.2,0.8,0.2,0.8,0.8,0.2,0.6,0.4,1,0
,,603e8ed1b54e6cf4fafcaa1a,66fc9967f1626500d41d5142,2024-10-02_01h53.29.443,mdp,2024.2.1,MacIntel,29.94011976,66fa4ebf79326e780c390304,,,,,,,,,,,,,,,,,,,,,575.76,575.76,575.7612,576.8264,0,1,left,0.5066,,576.8276,577.7598,1,1,right,577.7611,578.6933,1,1,right,0,578.6933,578.6933,578.6945,580.1932,0,9,9,9,1,0.6,0.4,0.8,0.2,,,,,,,,,,,,,,,0.3842,,0.6,0.4,0.2,0.8,0.2,0.8,0.6,0.4,,,0.3608,,0.2,0.8,0.2,0.8,0.8,0.2,0.6,0.4,1,0
,,603e8ed1b54e6cf4fafcaa1a,66fc9967f1626500d41d5142,2024-10-02_01h53.29.443,mdp,2024.2.1,MacIntel,29.94011976,66fa4ebf79326e780c390304,,,,,,,,,,,,,,,,,,,,,580.1936,580.1936,580.1949,580.7934,1,1,right,0.0397,,580.7946,582.6601,0,1,left,582.6613,583.6268,1,0,right,1,583.6269,583.6269,583.6278,585.1269,0,10,10,10,1,0.6,0.4,0.8,0.2,,,,,,,,,,,,,,,1.3211,,0.6,0.4,0.2,0.8,0.2,0.8,0.6,0.4,,,0.4142,,0.2,0.8,0.2,0.8,0.8,0.2,0.6,0.4,1,0
,,603e8ed1b54e6cf4fafcaa1a,66fc9967f1626500d41d5142,2024-10-02_01h53.29.443,mdp,2024.2.1,MacIntel,29.94011976,66fa4ebf79326e780c390304,,,,,,,,,,,,,,,,,,,,,585.1274,585.1274,585.1285,586.8936,0,0,left,1.2252,,586.8943,588.2938,1,0,right,588.2948,589.5939,1,0,right,1,589.594,589.594,589.5953,591.0939,0,11,11,11,1,0.6,0.4,0.8,0.2,,,,,,,,,,,,,,,0.8533,,0.6,0.4,0.2,0.8,0.2,0.8,0.6,0.4,,,0.7452,,0.2,0.8,0.2,0.8,0.8,0.2,0.6,0.4,1,0
,,603e8ed1b54e6cf4fafcaa1a,66fc9967f1626500d41d5142,2024-10-02_01h53.29.443,mdp,2024.2.1,MacIntel,29.94011976,66fa4ebf79326e780c390304,,,,,,,,,,,,,,,,,,,,,591.0944,591.0944,591.0956,592.4275,0,0,left,0.782,,592.4288,594.161,1,0,right,594.1621,595.294,1,1,right,0,595.2941,595.2941,595.2949,596.7941,0,12,12,12,1,0.6,0.4,0.8,0.2,,,,,,,,,,,,,,,1.1745,,0.6,0.4,0.2,0.8,0.8,0.2,0.4,0.6,,,0.5699,,0.2,0.8,0.2,0.8,0.8,0.2,0.6,0.4,1,0
,,603e8ed1b54e6cf4fafcaa1a,66fc9967f1626500d41d5142,2024-10-02_01h53.29.443,mdp,2024.2.1,MacIntel,29.94011976,66fa4ebf79326e780c390304,,,,,,,,,,,,,,,,,,,,,596.7945,596.7945,596.7955,597.7612,1,1,right,0.4073,,597.7624,600.4613,0,0,left,600.4627,601.7949,1,1,right,0,601.7949,601.7949,601.7961,603.2949,0,13,13,13,1,0.6,0.4,0.8,0.2,,,,,,,,,,,,,,,2.1548,,0.6,0.4,0.2,0.8,0.8,0.2,0.4,0.6,,,0.7683,,0.2,0.8,0.2,0.8,0.8,0.2,0.6,0.4,1,0
,,603e8ed1b54e6cf4fafcaa1a,66fc9967f1626500d41d5142,2024-10-02_01h53.29.443,mdp,2024.2.1,MacIntel,29.94011976,66fa4ebf79326e780c390304,,,,,,,,,,,,,,,,,,,,,603.2953,603.2953,603.2965,604.5283,1,0,right,0.6895,,604.5293,606.2619,1,1,right,606.2631,607.6617,1,0,right,1,607.6617,607.6617,607.6624,609.1618,0,14,14,14,1,0.6,0.4,0.8,0.2,,,,,,,,,,,,,,,1.179,,0.6,0.4,0.2,0.8,0.8,0.2,0.4,0.6,,,0.8485,,0.2,0.8,0.2,0.8,0.8,0.2,0.6,0.4,1,0
,,603e8ed1b54e6cf4fafcaa1a,66fc9967f1626500d41d5142,2024-10-02_01h53.29.443,mdp,2024.2.1,MacIntel,29.94011976,66fa4ebf79326e780c390304,,,,,,,,,,,,,,,,,,,,,609.1622,609.1623,609.1635,610.2618,1,0,right,0.5335,,610.2625,611.7991,1,1,right,611.7999,612.8956,1,0,right,1,612.8957,612.8957,612.8969,614.3956,0,15,15,15,1,0.6,0.4,0.8,0.2,,,,,,,,,,,,,,,0.9983,,0.6,0.4,0.2,0.8,0.8,0.2,0.4,0.6,,,0.5415,,0.2,0.8,0.2,0.8,0.8,0.2,0.6,0.4,1,0
,,603e8ed1b54e6cf4fafcaa1a,66fc9967f1626500d41d5142,2024-10-02_01h53.29.443,mdp,2024.2.1,MacIntel,29.94011976,66fa4ebf79326e780c390304,,,,,,,,,,,,,,,,,,,,,614.396,614.396,614.3972,615.7291,1,0,right,0.7802,,615.7303,617.0625,1,1,right,617.0637,618.0961,1,1,right,0,618.0961,618.0961,618.0973,619.5959,0,16,16,16,1,0.6,0.4,0.8,0.2,,,,,,,,,,,,,,,0.7892,,0.6,0.4,0.2,0.8,0.8,0.2,0.4,0.6,,,0.4882,,0.2,0.8,0.2,0.8,0.8,0.2,0.6,0.4,1,0
,,603e8ed1b54e6cf4fafcaa1a,66fc9967f1626500d41d5142,2024-10-02_01h53.29.443,mdp,2024.2.1,MacIntel,29.94011976,66fa4ebf79326e780c390304,,,,,,,,,,,,,,,,,,,,,619.5964,619.5964,619.5976,620.7293,1,0,right,0.5878,,620.7303,621.9962,1,1,right,621.9975,623.263,1,0,right,1,623.263,623.2631,623.2643,624.763,0,17,17,17,1,0.6,0.4,0.8,0.2,,,,,,,,,,,,,,,0.7073,,0.6,0.4,0.2,0.8,0.8,0.2,0.4,0.6,,,0.7102,,0.2,0.8,0.2,0.8,0.8,0.2,0.6,0.4,1,0
,,603e8ed1b54e6cf4fafcaa1a,66fc9967f1626500d41d5142,2024-10-02_01h53.29.443,mdp,2024.2.1,MacIntel,29.94011976,66fa4ebf79326e780c390304,,,,,,,,,,,,,,,,,,,,,624.7634,624.7634,624.7646,625.9632,1,0,right,0.6492,,625.9643,627.1299,1,0,right,627.1312,628.8633,1,1,right,0,628.8635,628.8635,628.8646,630.3633,0,18,18,18,1,0.6,0.4,0.8,0.2,,,,,,,,,,,,,,,0.6199,,0.6,0.4,0.2,0.8,0.8,0.2,0.4,0.6,,,1.1787,,0.2,0.8,0.2,0.8,0.8,0.2,0.6,0.4,1,0
,,603e8ed1b54e6cf4fafcaa1a,66fc9967f1626500d41d5142,2024-10-02_01h53.29.443,mdp,2024.2.1,MacIntel,29.94011976,66fa4ebf79326e780c390304,,,,,,,,,,,,,,,,,,,,,630.3638,630.3638,630.3651,631.4968,1,0,right,0.5687,,631.4978,632.63,1,1,right,632.6308,634.1305,1,1,right,0,634.1305,634.1305,634.1317,635.63,0,19,19,19,1,0.6,0.4,0.8,0.2,,,,,,,,,,,,,,,0.5832,,0.6,0.4,0.2,0.8,0.8,0.2,0.4,0.6,,,0.9602,,0.2,0.8,0.2,0.8,0.8,0.2,0.6,0.4,1,0
,,603e8ed1b54e6cf4fafcaa1a,66fc9967f1626500d41d5142,2024-10-02_01h53.29.443,mdp,2024.2.1,MacIntel,29.94011976,66fa4ebf79326e780c390304,,,,,,,,,,,,,,,,,,,,,635.6303,635.6303,635.6311,636.7974,0,0,left,0.6354,,636.7985,638.0638,1,0,right,638.0648,639.664,1,1,right,0,639.6641,639.6641,639.6651,641.164,0,20,20,20,1,0.6,0.4,0.8,0.2,,,,,,,,,,,,,,,0.727,,0.6,0.4,0.2,0.8,0.8,0.2,0.4,0.6,,,1.0522,,0.2,0.8,0.2,0.8,0.8,0.2,0.6,0.4,1,0
,,603e8ed1b54e6cf4fafcaa1a,66fc9967f1626500d41d5142,2024-10-02_01h53.29.443,mdp,2024.2.1,MacIntel,29.94011976,66fa4ebf79326e780c390304,,,,,,,,,,,,,,,,,,,,,641.1645,641.1645,641.1659,642.6311,0,0,left,0.9113,,642.6323,643.7979,0,0,left,643.7991,645.0974,0,1,left,0,645.0975,645.0975,645.0984,646.5977,0,21,21,21,1,0.6,0.4,0.8,0.2,,,,,,,,,,,,,,,0.6112,,0.6,0.4,0.2,0.8,0.6,0.4,0.2,0.8,,,0.7544,,0.2,0.8,0.2,0.8,0.8,0.2,0.6,0.4,1,0
,,603e8ed1b54e6cf4fafcaa1a,66fc9967f1626500d41d5142,2024-10-02_01h53.29.443,mdp,2024.2.1,MacIntel,29.94011976,66fa4ebf79326e780c390304,,,,,,,,,,,,,,,,,,,,,646.5981,646.5981,646.5995,647.7981,0,1,left,0.6444,,647.7994,649.0983,0,1,left,649.0997,650.3312,1,1,right,0,650.3312,650.3312,650.3322,651.8314,0,22,22,22,1,0.6,0.4,0.8,0.2,,,,,,,,,,,,,,,0.7306,,0.6,0.4,0.2,0.8,0.6,0.4,0.2,0.8,,,0.6827,,0.2,0.8,0.2,0.8,0.8,0.2,0.6,0.4,1,0
,,603e8ed1b54e6cf4fafcaa1a,66fc9967f1626500d41d5142,2024-10-02_01h53.29.443,mdp,2024.2.1,MacIntel,29.94011976,66fa4ebf79326e780c390304,,,,,,,,,,,,,,,,,,,,,651.8319,651.8319,651.8331,652.8317,1,1,right,0.4344,,652.8329,654.9986,0,1,left,654.9999,656.5652,0,0,left,1,656.5654,656.5654,656.5665,658.0652,0,23,23,23,1,0.6,0.4,0.8,0.2,,,,,,,,,,,,,,,1.6208,,0.6,0.4,0.2,0.8,0.6,0.4,0.2,0.8,,,1.0045,,0.2,0.8,0.2,0.8,0.8,0.2,0.6,0.4,1,0
,,603e8ed1b54e6cf4fafcaa1a,66fc9967f1626500d41d5142,2024-10-02_01h53.29.443,mdp,2024.2.1,MacIntel,29.94011976,66fa4ebf79326e780c390304,,,,,,,,,,,,,,,,,,,,,658.0658,658.0658,658.0671,659.2988,1,1,right,0.6664,,659.3001,660.8655,0,0,left,660.8669,662.4661,0,1,left,0,662.4662,662.4662,662.4674,663.9654,0,24,24,24,1,0.6,0.4,0.8,0.2,,,,,,,,,,,,,,,1.0069,,0.6,0.4,0.2,0.8,0.6,0.4,0.2,0.8,,,1.0325,,0.2,0.8,0.2,0.8,0.6,0.4,0.4,0.6,1,0
,,603e8ed1b54e6cf4fafcaa1a,66fc9967f1626500d41d5142,2024-10-02_01h53.29.443,mdp,2024.2.1,MacIntel,29.94011976,66fa4ebf79326e780c390304,,,,,,,,,,,,,,,,,,,,,663.966,663.966,663.9672,665.2657,1,1,right,0.735,,665.2668,667.0326,1,0,right,667.0335,668.5661,1,0,right,1,668.5661,668.5662,668.5674,670.0659,0,25,25,25,1,0.6,0.4,0.8,0.2,,,,,,,,,,,,,,,1.2145,,0.6,0.4,0.2,0.8,0.6,0.4,0.2,0.8,,,0.9668,,0.2,0.8,0.2,0.8,0.6,0.4,0.4,0.6,1,0
,,603e8ed1b54e6cf4fafcaa1a,66fc9967f1626500d41d5142,2024-10-02_01h53.29.443,mdp,2024.2.1,MacIntel,29.94011976,66fa4ebf79326e780c390304,,,,,,,,,,,,,,,,,,,,,670.0663,670.0664,670.0676,671.3669,1,0,right,0.7629,,671.3683,672.7331,1,1,right,672.7343,673.7331,0,0,left,1,673.7332,673.7332,673.7345,675.2329,0,26,26,26,1,0.6,0.4,0.8,0.2,,,,,,,,,,,,,,,0.7923,,0.6,0.4,0.2,0.8,0.4,0.6,0.6,0.4,,,0.4318,,0.2,0.8,0.2,0.8,0.6,0.4,0.4,0.6,1,0
,,603e8ed1b54e6cf4fafcaa1a,66fc9967f1626500d41d5142,2024-10-02_01h53.29.443,mdp,2024.2.1,MacIntel,29.94011976,66fa4ebf79326e780c390304,,,,,,,,,,,,,,,,,,,,,675.2334,675.2334,675.2345,676.3334,1,0,right,0.5425,,676.3346,677.8334,1,1,right,677.8347,678.8669,0,0,left,1,678.8669,678.8669,678.8681,680.3666,0,27,27,27,1,0.6,0.4,0.8,0.2,,,,,,,,,,,,,,,0.9446,,0.6,0.4,0.2,0.8,0.4,0.6,0.6,0.4,,,0.4725,,0.2,0.8,0.2,0.8,0.6,0.4,0.4,0.6,1,0
,,603e8ed1b54e6cf4fafcaa1a,66fc9967f1626500d41d5142,2024-10-02_01h53.29.443,mdp,2024.2.1,MacIntel,29.94011976,66fa4ebf79326e780c390304,,,,,,,,,,,,,,,,,,,,,680.367,680.367,680.368,681.7337,1,0,right,0.8209,,681.7349,682.6334,0,1,left,682.6344,684.1339,0,0,left,1,684.1339,684.1339,684.1351,685.6339,0,28,28,28,1,0.6,0.4,0.8,0.2,,,,,,,,,,,,,,,0.3515,,0.6,0.4,0.2,0.8,0.4,0.6,0.6,0.4,,,0.9408,,0.2,0.8,0.2,0.8,0.6,0.4,0.4,0.6,1,0
,,603e8ed1b54e6cf4fafcaa1a,66fc9967f1626500d41d5142,2024-10-02_01h53.29.443,mdp,2024.2.1,MacIntel,29.94011976,66fa4ebf79326e780c390304,,,,,,,,,,,,,,,,,,,,,685.6343,685.6343,685.6355,686.6339,1,0,right,0.4583,,686.6348,687.701,0,1,left,687.7023,688.7006,0,1,left,0,688.7006,688.7007,688.7016,690.2008,0,29,29,29,1,0.6,0.4,0.8,0.2,,,,,,,,,,,,,,,0.5229,,0.6,0.4,0.2,0.8,0.4,0.6,0.6,0.4,,,0.4569,,0.2,0.8,0.2,0.8,0.6,0.4,0.4,0.6,1,0
,,603e8ed1b54e6cf4fafcaa1a,66fc9967f1626500d41d5142,2024-10-02_01h53.29.443,mdp,2024.2.1,MacIntel,29.94011976,66fa4ebf79326e780c390304,,,,,,,,,,,,,,,,,,,,,690.2012,690.2012,690.2024,691.1345,0,0,left,0.3799,,691.1356,692.2009,1,1,right,692.2021,693.268,0,1,left,0,693.268,693.268,693.2692,694.768,0,30,30,30,1,0.6,0.4,0.8,0.2,,,,,,,,,,,,,,,0.5054,,0.6,0.4,0.2,0.8,0.4,0.6,0.6,0.4,,,0.5406,,0.2,0.8,0.2,0.8,0.6,0.4,0.4,0.6,1,0
,,603e8ed1b54e6cf4fafcaa1a,66fc9967f1626500d41d5142,2024-10-02_01h53.29.443,mdp,2024.2.1,MacIntel,29.94011976,66fa4ebf79326e780c390304,,,,,,,,,,,,,,,,,,,,,694.7684,694.7684,694.7696,696.1011,1,0,right,0.7682,,696.1022,698.4349,1,1,right,698.4361,699.6013,1,1,right,0,699.6014,699.6014,699.6023,701.1015,0,31,31,31,1,0.6,0.4,0.8,0.2,,,,,,,,,,,,,,,1.8004,,0.6,0.4,0.2,0.8,0.4,0.6,0.6,0.4,,,0.6236,,0.2,0.8,0.2,0.8,0.6,0.4,0.4,0.6,1,0
,,603e8ed1b54e6cf4fafcaa1a,66fc9967f1626500d41d5142,2024-10-02_01h53.29.443,mdp,2024.2.1,MacIntel,29.94011976,66fa4ebf79326e780c390304,,,,,,,,,,,,,,,,,,,,,701.1019,701.1019,701.1031,702.3017,1,0,right,0.6362,,702.303,703.7685,1,1,right,703.7699,704.7019,0,1,left,0,704.7019,704.7019,704.7031,706.202,0,32,32,32,1,0.6,0.4,0.8,0.2,,,,,,,,,,,,,,,0.9124,,0.6,0.4,0.2,0.8,0.4,0.6,0.6,0.4,,,0.3932,,0.2,0.8,0.2,0.8,0.6,0.4,0.4,0.6,1,0
,,603e8ed1b54e6cf4fafcaa1a,66fc9967f1626500d41d5142,2024-10-02_01h53.29.443,mdp,2024.2.1,MacIntel,29.94011976,66fa4ebf79326e780c390304,,,,,,,,,,,,,,,,,,,,,706.2025,706.2025,706.2038,707.8017,0,1,left,1.0518,,707.8026,709.3686,1,1,right,709.3696,710.5022,1,0,right,1,710.5022,710.5022,710.5032,712.0023,0,33,33,33,1,0.6,0.4,0.8,0.2,,,,,,,,,,,,,,,1.048,,0.6,0.4,0.2,0.8,0.6,0.4,0.4,0.6,,,0.6104,,0.2,0.8,0.2,0.8,0.6,0.4,0.4,0.6,1,0
,,603e8ed1b54e6cf4fafcaa1a,66fc9967f1626500d41d5142,2024-10-02_01h53.29.443,mdp,2024.2.1,MacIntel,29.94011976,66fa4ebf79326e780c390304,,,,,,,,,,,,,,,,,,,,,712.0028,712.0028,712.004,713.0354,0,0,left,0.4887,,713.0362,714.5027,1,1,right,714.5039,715.9359,1,1,right,0,715.936,715.936,715.9372,717.436,0,34,34,34,1,0.6,0.4,0.8,0.2,,,,,,,,,,,,,,,0.9336,,0.6,0.4,0.2,0.8,0.6,0.4,0.4,0.6,,,0.8738,,0.2,0.8,0.2,0.8,0.6,0.4,0.4,0.6,1,0
,,603e8ed1b54e6cf4fafcaa1a,66fc9967f1626500d41d5142,2024-10-02_01h53.29.443,mdp,2024.2.1,MacIntel,29.94011976,66fa4ebf79326e780c390304,,,,,,,,,,,,,,,,,,,,,717.4364,717.4364,717.4377,719.5698,0,1,left,1.5665,,719.5849,721.1729,0,0,left,721.1736,722.7028,0,1,left,0,722.703,722.703,722.7039,724.2029,0,35,35,35,1,0.2,0.8,0.6,0.4,,,,,,,,,,,,,,,1.029,,0.6,0.4,0.2,0.8,0.6,0.4,0.4,0.6,,,0.9791,,0.2,0.8,0.2,0.8,0.6,0.4,0.4,0.6,1,0
,,603e8ed1b54e6cf4fafcaa1a,66fc9967f1626500d41d5142,2024-10-02_01h53.29.443,mdp,2024.2.1,MacIntel,29.94011976,66fa4ebf79326e780c390304,,,,,,,,,,,,,,,,,,,,,724.2034,724.2034,724.2046,725.6033,1,0,right,0.8389,,725.6045,726.8364,1,1,right,726.8372,727.87,0,0,left,1,727.8701,727.8701,727.8709,729.3699,0,36,36,36,1,0.2,0.8,0.6,0.4,,,,,,,,,,,,,,,0.6818,,0.6,0.4,0.2,0.8,0.6,0.4,0.4,0.6,,,0.512,,0.2,0.8,0.2,0.8,0.6,0.4,0.4,0.6,1,0
,,603e8ed1b54e6cf4fafcaa1a,66fc9967f1626500d41d5142,2024-10-02_01h53.29.443,mdp,2024.2.1,MacIntel,29.94011976,66fa4ebf79326e780c390304,,,,,,,,,,,,,,,,,,,,,729.3703,729.3703,729.3715,730.437,1,0,right,0.5005,,730.4382,731.5371,1,1,right,731.5384,732.6704,1,1,right,0,732.6704,732.6704,732.6715,734.1706,0,37,37,37,1,0.2,0.8,0.6,0.4,,,,,,,,,,,,,,,0.5338,,0.6,0.4,0.2,0.8,0.6,0.4,0.4,0.6,,,0.5863,,0.2,0.8,0.2,0.8,0.6,0.4,0.4,0.6,1,0
,,603e8ed1b54e6cf4fafcaa1a,66fc9967f1626500d41d5142,2024-10-02_01h53.29.443,mdp,2024.2.1,MacIntel,29.94011976,66fa4ebf79326e780c390304,,,,,,,,,,,,,,,,,,,,,734.171,734.171,734.1722,735.2372,1,0,right,0.5091,,735.2385,736.6706,1,0,right,736.6717,738.2706,0,0,left,1,738.2706,738.2706,738.2714,739.7709,0,38,38,38,1,0.2,0.8,0.6,0.4,,,,,,,,,,,,,,,0.9048,,0.6,0.4,0.2,0.8,0.6,0.4,0.4,0.6,,,1.0516,,0.2,0.8,0.2,0.8,0.6,0.4,0.4,0.6,1,0
,,603e8ed1b54e6cf4fafcaa1a,66fc9967f1626500d41d5142,2024-10-02_01h53.29.443,mdp,2024.2.1,MacIntel,29.94011976,66fa4ebf79326e780c390304,,,,,,,,,,,,,,,,,,,,,739.7714,739.7714,739.7725,740.871,1,0,right,0.5498,,740.8721,742.1711,1,1,right,742.1721,743.4713,0,0,left,1,743.4714,743.4714,743.4725,744.9711,0,39,39,39,1,0.2,0.8,0.6,0.4,,,,,,,,,,,,,,,0.7569,,0.6,0.4,0.2,0.8,0.6,0.4,0.4,0.6,,,0.7252,,0.2,0.8,0.2,0.8,0.6,0.4,0.4,0.6,1,0
,,603e8ed1b54e6cf4fafcaa1a,66fc9967f1626500d41d5142,2024-10-02_01h53.29.443,mdp,2024.2.1,MacIntel,29.94011976,66fa4ebf79326e780c390304,,,,,,,,,,,,,,,,,,,,,744.9717,744.9717,744.9729,746.838,0,1,left,1.3153,,746.8392,748.1717,0,1,left,748.1729,749.3048,1,1,right,0,749.3048,749.3048,749.306,750.8044,0,40,40,40,1,0.2,0.8,0.6,0.4,,,,,,,,,,,,,,,0.7631,,0.6,0.4,0.2,0.8,0.6,0.4,0.4,0.6,,,0.5817,,0.2,0.8,0.2,0.8,0.6,0.4,0.4,0.6,1,0
,,603e8ed1b54e6cf4fafcaa1a,66fc9967f1626500d41d5142,2024-10-02_01h53.29.443,mdp,2024.2.1,MacIntel,29.94011976,66fa4ebf79326e780c390304,,,,,,,,,,,,,,,,,,,,,750.8046,750.8047,750.8054,751.805,1,1,right,0.4857,,751.8059,752.9721,1,0,right,752.9733,753.9053,0,1,left,0,753.9054,753.9054,753.9066,755.4053,0,41,41,41,1,0.2,0.8,0.6,0.4,,,,,,,,,,,,,,,0.6338,,0.6,0.4,0.2,0.8,0.6,0.4,0.4,0.6,,,0.3752,,0.2,0.8,0.2,0.8,0.6,0.4,0.4,0.6,1,0
,,603e8ed1b54e6cf4fafcaa1a,66fc9967f1626500d41d5142,2024-10-02_01h53.29.443,mdp,2024.2.1,MacIntel,29.94011976,66fa4ebf79326e780c390304,,,,,,,,,,,,,,,,,,,,,755.4058,755.4058,755.407,756.6388,0,1,left,0.6743,,756.6401,758.0721,0,1,left,758.073,760.1057,0,1,left,0,760.1057,760.1057,760.1069,761.6055,0,42,42,42,1,0.2,0.8,0.6,0.4,,,,,,,,,,,,,,,0.8856,,0.6,0.4,0.2,0.8,0.6,0.4,0.4,0.6,,,1.4992,,0.4,0.6,0.8,0.2,0.6,0.4,0.4,0.6,1,0
,,603e8ed1b54e6cf4fafcaa1a,66fc9967f1626500d41d5142,2024-10-02_01h53.29.443,mdp,2024.2.1,MacIntel,29.94011976,66fa4ebf79326e780c390304,,,,,,,,,,,,,,,,,,,,,761.606,761.606,761.6071,762.7391,1,1,right,0.5848,,762.7403,764.3059,0,0,left,764.3069,765.8727,0,0,left,1,765.8728,765.8728,765.8737,767.3727,0,43,43,43,1,0.2,0.8,0.6,0.4,,,,,,,,,,,,,,,1.0263,,0.6,0.4,0.2,0.8,0.6,0.4,0.4,0.6,,,1.0153,,0.4,0.6,0.8,0.2,0.6,0.4,0.4,0.6,1,0
,,603e8ed1b54e6cf4fafcaa1a,66fc9967f1626500d41d5142,2024-10-02_01h53.29.443,mdp,2024.2.1,MacIntel,29.94011976,66fa4ebf79326e780c390304,,,,,,,,,,,,,,,,,,,,,767.3732,767.3732,767.3744,768.3731,1,0,right,0.4396,,768.3743,769.9727,1,1,right,769.9735,770.9734,0,1,left,0,770.9735,770.9735,770.9746,772.4731,0,44,44,44,1,0.2,0.8,0.6,0.4,,,,,,,,,,,,,,,1.0428,,0.6,0.4,0.2,0.8,0.6,0.4,0.4,0.6,,,0.464,,0.4,0.6,0.8,0.2,0.6,0.4,0.4,0.6,1,0
,,603e8ed1b54e6cf4fafcaa1a,66fc9967f1626500d41d5142,2024-10-02_01h53.29.443,mdp,2024.2.1,MacIntel,29.94011976,66fa4ebf79326e780c390304,,,,,,,,,,,,,,,,,,,,,772.4736,772.4736,772.4748,773.4402,1,0,right,0.405,,773.4414,774.4068,0,1,left,774.4079,776.4402,0,1,left,0,776.4403,776.4403,776.4415,777.9402,0,45,45,45,1,0.2,0.8,0.6,0.4,,,,,,,,,,,,,,,0.4073,,0.6,0.4,0.2,0.8,0.6,0.4,0.4,0.6,,,1.4806,,0.4,0.6,0.8,0.2,0.4,0.6,0.8,0.2,1,0
,,603e8ed1b54e6cf4fafcaa1a,66fc9967f1626500d41d5142,2024-10-02_01h53.29.443,mdp,2024.2.1,MacIntel,29.94011976,66fa4ebf79326e780c390304,,,,,,,,,,,,,,,,,,,,,777.9407,777.9407,777.9418,778.9404,1,0,right,0.4501,,778.9417,780.3404,1,0,right,780.3417,781.7073,0,1,left,0,781.7074,781.7074,781.7083,783.2071,0,46,46,46,1,0.2,0.8,0.6,0.4,,,,,,,,,,,,,,,0.8394,,0.6,0.4,0.2,0.8,0.4,0.6,0.8,0.2,,,0.8055,,0.4,0.6,0.8,0.2,0.4,0.6,0.8,0.2,1,0
,,603e8ed1b54e6cf4fafcaa1a,66fc9967f1626500d41d5142,2024-10-02_01h53.29.443,mdp,2024.2.1,MacIntel,29.94011976,66fa4ebf79326e780c390304,,,,,,,,,,,,,,,,,,,,,783.2077,783.2078,783.2089,784.5073,1,0,right,0.7435,,784.5085,785.4077,1,1,right,785.4087,786.5075,1,1,right,0,786.5076,786.5076,786.5087,788.0073,0,47,47,47,1,0.2,0.8,0.6,0.4,,,,,,,,,,,,,,,0.3591,,0.6,0.4,0.2,0.8,0.8,0.2,0.4,0.6,,,0.5466,,0.4,0.6,0.8,0.2,0.4,0.6,0.8,0.2,1,0
,,603e8ed1b54e6cf4fafcaa1a,66fc9967f1626500d41d5142,2024-10-02_01h53.29.443,mdp,2024.2.1,MacIntel,29.94011976,66fa4ebf79326e780c390304,,,,,,,,,,,,,,,,,,,,,788.0078,788.0078,788.0088,789.3744,1,0,right,0.8207,,789.3753,791.3079,0,0,left,791.3091,792.7748,0,0,left,1,792.7748,792.7749,792.776,794.2746,0,48,48,48,1,0.2,0.8,0.6,0.4,,,,,,,,,,,,,,,1.3874,,0.6,0.4,0.2,0.8,0.8,0.2,0.4,0.6,,,0.8935,,0.4,0.6,0.8,0.2,0.4,0.6,0.8,0.2,1,0
,,603e8ed1b54e6cf4fafcaa1a,66fc9967f1626500d41d5142,2024-10-02_01h53.29.443,mdp,2024.2.1,MacIntel,29.94011976,66fa4ebf79326e780c390304,,,,,,,,,,,,,,,,,,,,,794.2751,794.2751,794.2763,795.4749,1,0,right,0.6418,,795.4761,796.8083,1,1,right,796.8094,798.5417,0,1,left,0,798.5418,798.5418,798.5427,800.0417,0,49,49,49,1,0.2,0.8,0.6,0.4,,,,,,,,,,,,,,,0.7843,,0.6,0.4,0.2,0.8,0.8,0.2,0.4,0.6,,,1.1744,,0.4,0.6,0.8,0.2,0.4,0.6,0.8,0.2,1,0
,,603e8ed1b54e6cf4fafcaa1a,66fc9967f1626500d41d5142,2024-10-02_01h53.29.443,mdp,2024.2.1,MacIntel,29.94011976,66fa4ebf79326e780c390304,,,,,,,,,,,,,,,,,,,,,,,,,,,,,,,,,,,,,,,,,,,,,,,,,,,,,,,,800.0419,866.1014,0,2,2,2,1,imgs/rabbit.png,imgs/squirrel.png,imgs/dog.png,imgs/elephant.png,imgs/giraffe.png,,,,,,,,,,,,,,,,,,,,,,,,
,,603e8ed1b54e6cf4fafcaa1a,66fc9967f1626500d41d5142,2024-10-02_01h53.29.443,mdp,2024.2.1,MacIntel,29.94011976,66fa4ebf79326e780c390304,,,,,,,,,,,,,,3,seqs/st3seq6.csv,866.1108,867.0298,space,0.3744,,867.0386,867.0386,867.0393,868.5299,1,1,right,0.9202,,868.5312,870.0967,0,0,left,870.0979,871.4965,1,1,right,0,871.4966,871.4966,871.4975,872.9968,0,0,0,0,1,0.6,0.4,0.4,0.6,,,,,,,,,,,,,,,0.994,,0.2,0.8,0.8,0.2,0.8,0.2,0.8,0.2,,,0.8365,,0.8,0.2,0.4,0.6,0.2,0.8,0.8,0.2,1,0
,,603e8ed1b54e6cf4fafcaa1a,66fc9967f1626500d41d5142,2024-10-02_01h53.29.443,mdp,2024.2.1,MacIntel,29.94011976,66fa4ebf79326e780c390304,,,,,,,,,,,,,,,,,,,,,872.9973,872.9973,872.9983,873.8636,1,0,right,0.3145,,873.8648,875.3297,0,1,left,875.3305,877.03,1,0,right,1,877.0302,877.0302,877.0311,878.5303,0,1,1,1,1,0.6,0.4,0.4,0.6,,,,,,,,,,,,,,,0.9089,,0.2,0.8,0.8,0.2,0.8,0.2,0.8,0.2,,,1.18,,0.8,0.2,0.4,0.6,0.2,0.8,0.8,0.2,1,0
,,603e8ed1b54e6cf4fafcaa1a,66fc9967f1626500d41d5142,2024-10-02_01h53.29.443,mdp,2024.2.1,MacIntel,29.94011976,66fa4ebf79326e780c390304,,,,,,,,,,,,,,,,,,,,,878.5306,878.5306,878.5315,886.9312,1,0,right,7.8332,,886.9465,888.3973,0,1,left,888.3982,889.8974,1,1,right,0,889.8975,889.8975,889.8983,891.3981,0,2,2,2,1,0.6,0.4,0.4,0.6,,,,,,,,,,,,,,,0.9222,,0.2,0.8,0.8,0.2,0.8,0.2,0.8,0.2,,,0.9926,,0.8,0.2,0.4,0.6,0.2,0.8,0.8,0.2,1,0
,,603e8ed1b54e6cf4fafcaa1a,66fc9967f1626500d41d5142,2024-10-02_01h53.29.443,mdp,2024.2.1,MacIntel,29.94011976,66fa4ebf79326e780c390304,,,,,,,,,,,,,,,,,,,,,891.3986,891.3986,891.3997,893.9984,1,0,right,2.0511,,893.9995,897.065,1,0,right,897.0753,898.2315,0,0,left,1,898.2316,898.2316,898.2325,899.7315,0,3,3,3,1,0.6,0.4,0.4,0.6,,,,,,,,,,,,,,,2.5257,,0.2,0.8,0.8,0.2,0.8,0.2,0.8,0.2,,,0.6206,,0.8,0.2,0.4,0.6,0.2,0.8,0.8,0.2,1,0
,,603e8ed1b54e6cf4fafcaa1a,66fc9967f1626500d41d5142,2024-10-02_01h53.29.443,mdp,2024.2.1,MacIntel,29.94011976,66fa4ebf79326e780c390304,,,,,,,,,,,,,,,,,,,,,899.7319,899.7319,899.7327,900.9988,1,1,right,0.7144,,901.0001,902.3984,0,0,left,902.3996,903.4991,1,1,right,0,903.4992,903.4992,903.5004,904.999,0,4,4,4,1,0.6,0.4,0.4,0.6,,,,,,,,,,,,,,,0.8417,,0.2,0.8,0.8,0.2,0.8,0.2,0.8,0.2,,,0.5536,,0.8,0.2,0.4,0.6,0.2,0.8,0.8,0.2,1,0
,,603e8ed1b54e6cf4fafcaa1a,66fc9967f1626500d41d5142,2024-10-02_01h53.29.443,mdp,2024.2.1,MacIntel,29.94011976,66fa4ebf79326e780c390304,,,,,,,,,,,,,,,,,,,,,904.9995,904.9995,905.0008,909.5662,1,1,right,4.0195,,909.5776,910.7662,0,0,left,910.7674,911.6993,1,1,right,0,911.6994,911.6994,911.7004,913.1995,0,5,5,5,1,0.6,0.4,0.4,0.6,,,,,,,,,,,,,,,0.634,,0.2,0.8,0.8,0.2,0.8,0.2,0.8,0.2,,,0.3745,,0.8,0.2,0.4,0.6,0.2,0.8,0.8,0.2,1,0
,,603e8ed1b54e6cf4fafcaa1a,66fc9967f1626500d41d5142,2024-10-02_01h53.29.443,mdp,2024.2.1,MacIntel,29.94011976,66fa4ebf79326e780c390304,,,,,,,,,,,,,,,,,,,,,913.1999,913.1999,913.2012,914.3665,1,0,right,0.6092,,914.3677,915.5996,0,1,left,915.6009,916.7667,0,1,left,0,916.7667,916.7667,916.7676,918.2665,0,6,6,6,1,0.6,0.4,0.4,0.6,,,,,,,,,,,,,,,0.6679,,0.2,0.8,0.8,0.2,0.8,0.2,0.8,0.2,,,0.5955,,0.8,0.2,0.4,0.6,0.2,0.8,0.8,0.2,1,0
,,603e8ed1b54e6cf4fafcaa1a,66fc9967f1626500d41d5142,2024-10-02_01h53.29.443,mdp,2024.2.1,MacIntel,29.94011976,66fa4ebf79326e780c390304,,,,,,,,,,,,,,,,,,,,,918.267,918.267,918.2681,920.5997,0,1,left,1.7668,,920.6009,921.8337,1,1,right,921.8349,923.0004,1,0,right,1,923.0006,923.0006,923.0017,924.5003,0,7,7,7,1,0.6,0.4,0.4,0.6,,,,,,,,,,,,,,,0.6679,,0.2,0.8,0.8,0.2,0.8,0.2,0.8,0.2,,,0.6139,,0.4,0.6,0.2,0.8,0.2,0.8,0.8,0.2,1,0
,,603e8ed1b54e6cf4fafcaa1a,66fc9967f1626500d41d5142,2024-10-02_01h53.29.443,mdp,2024.2.1,MacIntel,29.94011976,66fa4ebf79326e780c390304,,,,,,,,,,,,,,,,,,,,,924.5008,924.5008,924.5019,925.6668,1,0,right,0.6215,,925.6677,926.8339,1,1,right,926.835,927.8673,1,0,right,1,927.8674,927.8674,927.8685,929.3673,0,8,8,8,1,0.6,0.4,0.4,0.6,,,,,,,,,,,,,,,0.6457,,0.2,0.8,0.8,0.2,0.2,0.8,0.2,0.8,,,0.4679,,0.4,0.6,0.2,0.8,0.2,0.8,0.8,0.2,1,0
,,603e8ed1b54e6cf4fafcaa1a,66fc9967f1626500d41d5142,2024-10-02_01h53.29.443,mdp,2024.2.1,MacIntel,29.94011976,66fa4ebf79326e780c390304,,,,,,,,,,,,,,,,,,,,,929.3678,929.3678,929.3689,930.467,1,1,right,0.5598,,930.4679,931.6679,1,1,right,931.6691,932.5676,0,1,left,0,932.5677,932.5677,932.5688,934.0676,0,9,9,9,1,0.6,0.4,0.4,0.6,,,,,,,,,,,,,,,0.6667,,0.2,0.8,0.8,0.2,0.2,0.8,0.2,0.8,,,0.3409,,0.4,0.6,0.2,0.8,0.2,0.8,0.8,0.2,1,0
,,603e8ed1b54e6cf4fafcaa1a,66fc9967f1626500d41d5142,2024-10-02_01h53.29.443,mdp,2024.2.1,MacIntel,29.94011976,66fa4ebf79326e780c390304,,,,,,,,,,,,,,,,,,,,,934.068,934.068,934.0692,935.6346,0,1,left,1.0062,,935.6357,937.6686,0,1,left,937.6695,938.7013,1,0,right,1,938.7014,938.7014,938.7024,940.2014,0,10,10,10,1,0.6,0.4,0.4,0.6,,,,,,,,,,,,,,,1.4931,,0.2,0.8,0.8,0.2,0.2,0.8,0.2,0.8,,,0.4901,,0.4,0.6,0.2,0.8,0.2,0.8,0.8,0.2,1,0
,,603e8ed1b54e6cf4fafcaa1a,66fc9967f1626500d41d5142,2024-10-02_01h53.29.443,mdp,2024.2.1,MacIntel,29.94011976,66fa4ebf79326e780c390304,,,,,,,,,,,,,,,,,,,,,940.2019,940.2019,940.203,941.2017,0,0,left,0.4363,,941.2028,942.8017,1,0,right,942.8029,944.0681,1,0,right,1,944.0681,944.0681,944.0691,945.5681,0,11,11,11,1,0.6,0.4,0.4,0.6,,,,,,,,,,,,,,,1.0331,,0.2,0.8,0.8,0.2,0.2,0.8,0.2,0.8,,,0.7142,,0.4,0.6,0.2,0.8,0.2,0.8,0.8,0.2,1,0
,,603e8ed1b54e6cf4fafcaa1a,66fc9967f1626500d41d5142,2024-10-02_01h53.29.443,mdp,2024.2.1,MacIntel,29.94011976,66fa4ebf79326e780c390304,,,,,,,,,,,,,,,,,,,,,945.5685,945.5685,945.5697,946.5679,0,1,left,0.4529,,946.5688,947.8017,0,1,left,947.8026,948.7352,1,1,right,0,948.7352,948.7352,948.7363,950.2354,0,12,12,12,1,0.6,0.4,0.4,0.6,,,,,,,,,,,,,,,0.7191,,0.2,0.8,0.8,0.2,0.2,0.8,0.2,0.8,,,0.3931,,0.4,0.6,0.2,0.8,0.2,0.8,0.8,0.2,1,0
,,603e8ed1b54e6cf4fafcaa1a,66fc9967f1626500d41d5142,2024-10-02_01h53.29.443,mdp,2024.2.1,MacIntel,29.94011976,66fa4ebf79326e780c390304,,,,,,,,,,,,,,,,,,,,,950.2359,950.2359,950.2371,951.8352,1,1,right,1.0513,,951.8362,953.1024,1,1,right,953.1036,954.1519,0,1,left,0,954.1519,954.1519,954.1529,955.6358,0,13,13,13,1,0.6,0.4,0.4,0.6,,,,,,,,,,,,,,,0.743,,0.2,0.8,0.8,0.2,0.2,0.8,0.2,0.8,,,0.4842,,0.6,0.4,0.8,0.2,0.2,0.8,0.8,0.2,1,0
,,603e8ed1b54e6cf4fafcaa1a,66fc9967f1626500d41d5142,2024-10-02_01h53.29.443,mdp,2024.2.1,MacIntel,29.94011976,66fa4ebf79326e780c390304,,,,,,,,,,,,,,,,,,,,,955.6364,955.6364,955.6376,956.8361,0,1,left,0.6616,,956.8372,957.6027,1,1,right,957.6038,958.6029,1,0,right,1,958.6029,958.6029,958.604,960.102,0,14,14,14,1,0.6,0.4,0.4,0.6,,,,,,,,,,,,,,,0.2272,,0.8,0.2,0.6,0.4,0.2,0.8,0.2,0.8,,,0.451,,0.6,0.4,0.8,0.2,0.2,0.8,0.8,0.2,1,0
,,603e8ed1b54e6cf4fafcaa1a,66fc9967f1626500d41d5142,2024-10-02_01h53.29.443,mdp,2024.2.1,MacIntel,29.94011976,66fa4ebf79326e780c390304,,,,,,,,,,,,,,,,,,,,,960.1027,960.1027,960.1038,961.8031,1,0,right,1.1431,,961.8042,963.3026,1,1,right,963.3038,964.3027,1,0,right,1,964.3027,964.3028,964.3039,965.8033,0,15,15,15,1,0.6,0.4,0.4,0.6,,,,,,,,,,,,,,,0.9319,,0.8,0.2,0.6,0.4,0.2,0.8,0.2,0.8,,,0.4749,,0.6,0.4,0.8,0.2,0.2,0.8,0.8,0.2,1,0
,,603e8ed1b54e6cf4fafcaa1a,66fc9967f1626500d41d5142,2024-10-02_01h53.29.443,mdp,2024.2.1,MacIntel,29.94011976,66fa4ebf79326e780c390304,,,,,,,,,,,,,,,,,,,,,965.8037,965.8037,965.8048,966.97,1,1,right,0.6073,,966.9711,968.17,0,1,left,968.1707,969.3363,1,1,right,0,969.3364,969.3364,969.3375,970.8366,0,16,16,16,1,0.6,0.4,0.4,0.6,,,,,,,,,,,,,,,0.6464,,0.8,0.2,0.6,0.4,0.2,0.8,0.2,0.8,,,0.6054,,0.6,0.4,0.8,0.2,0.2,0.8,0.8,0.2,1,0
,,603e8ed1b54e6cf4fafcaa1a,66fc9967f1626500d41d5142,2024-10-02_01h53.29.443,mdp,2024.2.1,MacIntel,29.94011976,66fa4ebf79326e780c390304,,,,,,,,,,,,,,,,,,,,,970.837,970.837,970.8378,972.0702,1,1,right,0.6709,,972.0714,973.1705,0,0,left,973.1717,974.3033,0,1,left,0,974.3034,974.3034,974.3047,975.8036,0,17,17,17,1,0.6,0.4,0.4,0.6,,,,,,,,,,,,,,,0.554,,0.8,0.2,0.6,0.4,0.2,0.8,0.2,0.8,,,0.5669,,0.6,0.4,0.8,0.2,0.2,0.8,0.8,0.2,1,0
,,603e8ed1b54e6cf4fafcaa1a,66fc9967f1626500d41d5142,2024-10-02_01h53.29.443,mdp,2024.2.1,MacIntel,29.94011976,66fa4ebf79326e780c390304,,,,,,,,,,,,,,,,,,,,,975.8041,975.8041,975.8052,977.3708,1,1,right,1.0204,,977.3718,978.7705,1,1,right,978.7717,979.8378,1,0,right,1,979.8378,979.8379,979.839,981.3375,0,18,18,18,1,0.6,0.4,0.4,0.6,,,,,,,,,,,,,,,0.8416,,0.8,0.2,0.6,0.4,0.2,0.8,0.2,0.8,,,0.5404,,0.6,0.4,0.8,0.2,0.2,0.8,0.8,0.2,1,0
,,603e8ed1b54e6cf4fafcaa1a,66fc9967f1626500d41d5142,2024-10-02_01h53.29.443,mdp,2024.2.1,MacIntel,29.94011976,66fa4ebf79326e780c390304,,,,,,,,,,,,,,,,,,,,,981.338,981.338,981.3391,984.8046,1,1,right,2.9061,,984.8184,987.0382,1,0,right,987.0394,987.8376,0,1,left,0,987.8377,987.8377,987.8389,989.3377,0,19,19,19,1,0.6,0.4,0.4,0.6,,,,,,,,,,,,,,,1.6837,,0.8,0.2,0.6,0.4,0.2,0.8,0.2,0.8,,,0.2325,,0.6,0.4,0.8,0.2,0.2,0.8,0.8,0.2,1,0
,,603e8ed1b54e6cf4fafcaa1a,66fc9967f1626500d41d5142,2024-10-02_01h53.29.443,mdp,2024.2.1,MacIntel,29.94011976,66fa4ebf79326e780c390304,,,,,,,,,,,,,,,,,,,,,989.3382,989.3382,989.3395,991.6712,1,0,right,1.7933,,991.6722,993.3052,0,0,left,993.3064,994.3387,1,0,right,1,994.3387,994.3387,994.3399,995.8386,0,20,20,20,1,0.6,0.4,0.4,0.6,,,,,,,,,,,,,,,1.0998,,0.8,0.2,0.6,0.4,0.8,0.2,0.4,0.6,,,0.4728,,0.6,0.4,0.8,0.2,0.2,0.8,0.8,0.2,1,0
,,603e8ed1b54e6cf4fafcaa1a,66fc9967f1626500d41d5142,2024-10-02_01h53.29.443,mdp,2024.2.1,MacIntel,29.94011976,66fa4ebf79326e780c390304,,,,,,,,,,,,,,,,,,,,,995.8392,995.8392,995.8403,997.3055,1,1,right,0.908,,997.3067,998.4715,0,0,left,998.4728,999.4722,1,0,right,1,999.4723,999.4723,999.4731,1000.9722,0,21,21,21,1,0.6,0.4,0.4,0.6,,,,,,,,,,,,,,,0.5983,,0.8,0.2,0.6,0.4,0.8,0.2,0.4,0.6,,,0.4883,,0.6,0.4,0.8,0.2,0.2,0.8,0.8,0.2,1,0
,,603e8ed1b54e6cf4fafcaa1a,66fc9967f1626500d41d5142,2024-10-02_01h53.29.443,mdp,2024.2.1,MacIntel,29.94011976,66fa4ebf79326e780c390304,,,,,,,,,,,,,,,,,,,,,1000.9726,1000.9726,1000.9739,1001.8724,1,1,right,0.3364,,1001.8737,1003.0392,0,0,left,1003.0404,1004.1387,1,0,right,1,1004.1387,1004.1387,1004.1399,1005.6392,0,22,22,22,1,0.6,0.4,0.4,0.6,,,,,,,,,,,,,,,0.6037,,0.8,0.2,0.6,0.4,0.8,0.2,0.4,0.6,,,0.5361,,0.6,0.4,0.8,0.2,0.2,0.8,0.8,0.2,1,0
,,603e8ed1b54e6cf4fafcaa1a,66fc9967f1626500d41d5142,2024-10-02_01h53.29.443,mdp,2024.2.1,MacIntel,29.94011976,66fa4ebf79326e780c390304,,,,,,,,,,,,,,,,,,,,,1005.6397,1005.6397,1005.6409,1006.6053,1,1,right,0.4133,,1006.6067,1008.2395,0,0,left,1008.2406,1009.3063,1,0,right,1,1009.3063,1009.3064,1009.3075,1010.8062,0,23,23,23,1,0.6,0.4,0.4,0.6,,,,,,,,,,,,,,,1.1204,,0.8,0.2,0.6,0.4,0.8,0.2,0.4,0.6,,,0.5002,,0.4,0.6,0.6,0.4,0.2,0.8,0.8,0.2,1,0
,,603e8ed1b54e6cf4fafcaa1a,66fc9967f1626500d41d5142,2024-10-02_01h53.29.443,mdp,2024.2.1,MacIntel,29.94011976,66fa4ebf79326e780c390304,,,,,,,,,,,,,,,,,,,,,1010.8065,1010.8065,1010.8076,1011.7065,1,0,right,0.3405,,1011.7077,1013.8732,1,0,right,1013.8744,1015.3395,1,0,right,1,1015.3396,1015.3396,1015.3407,1016.8399,0,24,24,24,1,0.6,0.4,0.4,0.6,,,,,,,,,,,,,,,1.6006,,0.8,0.2,0.6,0.4,0.8,0.2,0.4,0.6,,,0.9212,,0.4,0.6,0.6,0.4,0.2,0.8,0.8,0.2,1,0
,,603e8ed1b54e6cf4fafcaa1a,66fc9967f1626500d41d5142,2024-10-02_01h53.29.443,mdp,2024.2.1,MacIntel,29.94011976,66fa4ebf79326e780c390304,,,,,,,,,,,,,,,,,,,,,1016.8404,1016.8404,1016.8416,1017.7735,1,0,right,0.3841,,1017.7745,1019.1402,1,1,right,1019.1415,1020.1066,1,0,right,1,1020.1066,1020.1066,1020.1077,1021.607,0,25,25,25,1,0.6,0.4,0.4,0.6,,,,,,,,,,,,,,,0.8144,,0.8,0.2,0.6,0.4,0.8,0.2,0.4,0.6,,,0.3996,,0.4,0.6,0.6,0.4,0.2,0.8,0.8,0.2,1,0
,,603e8ed1b54e6cf4fafcaa1a,66fc9967f1626500d41d5142,2024-10-02_01h53.29.443,mdp,2024.2.1,MacIntel,29.94011976,66fa4ebf79326e780c390304,,,,,,,,,,,,,,,,,,,,,1021.6074,1021.6074,1021.6086,1022.8062,1,1,right,0.6568,,1022.8072,1023.9073,0,0,left,1023.9086,1024.9064,1,0,right,1,1024.9066,1024.9066,1024.9073,1026.4073,0,26,26,26,1,0.6,0.4,0.4,0.6,,,,,,,,,,,,,,,0.5641,,0.8,0.2,0.6,0.4,0.8,0.2,0.4,0.6,,,0.451,,0.4,0.6,0.6,0.4,0.2,0.8,0.8,0.2,1,0
,,603e8ed1b54e6cf4fafcaa1a,66fc9967f1626500d41d5142,2024-10-02_01h53.29.443,mdp,2024.2.1,MacIntel,29.94011976,66fa4ebf79326e780c390304,,,,,,,,,,,,,,,,,,,,,1026.4076,1026.4076,1026.4086,1027.841,1,0,right,0.8706,,1027.8422,1029.8406,0,0,left,1029.8418,1030.8412,1,1,right,0,1030.8412,1030.8412,1030.8424,1032.34,0,27,27,27,1,0.6,0.4,0.4,0.6,,,,,,,,,,,,,,,1.4759,,0.8,0.2,0.6,0.4,0.8,0.2,0.4,0.6,,,0.4746,,0.2,0.8,0.2,0.8,0.2,0.8,0.8,0.2,1,0
,,603e8ed1b54e6cf4fafcaa1a,66fc9967f1626500d41d5142,2024-10-02_01h53.29.443,mdp,2024.2.1,MacIntel,29.94011976,66fa4ebf79326e780c390304,,,,,,,,,,,,,,,,,,,,,1032.3405,1032.3406,1032.3414,1033.2738,1,0,right,0.425,,1033.2746,1034.8414,1,1,right,1034.8427,1035.9748,1,0,right,1,1035.9749,1035.9749,1035.9762,1037.4748,0,28,28,28,1,0.6,0.4,0.4,0.6,,,,,,,,,,,,,,,1.0369,,0.8,0.2,0.6,0.4,0.8,0.2,0.4,0.6,,,0.5662,,0.2,0.8,0.2,0.8,0.2,0.8,0.8,0.2,1,0
,,603e8ed1b54e6cf4fafcaa1a,66fc9967f1626500d41d5142,2024-10-02_01h53.29.443,mdp,2024.2.1,MacIntel,29.94011976,66fa4ebf79326e780c390304,,,,,,,,,,,,,,,,,,,,,1037.4753,1037.4753,1037.4764,1038.5744,1,1,right,0.5569,,1038.5751,1039.7749,0,0,left,1039.7762,1040.7414,1,1,right,0,1040.7414,1040.7414,1040.7423,1042.2417,0,29,29,29,1,0.6,0.4,0.4,0.6,,,,,,,,,,,,,,,0.6798,,0.8,0.2,0.6,0.4,0.8,0.2,0.4,0.6,,,0.398,,0.2,0.8,0.2,0.8,0.2,0.8,0.8,0.2,1,0
,,603e8ed1b54e6cf4fafcaa1a,66fc9967f1626500d41d5142,2024-10-02_01h53.29.443,mdp,2024.2.1,MacIntel,29.94011976,66fa4ebf79326e780c390304,,,,,,,,,,,,,,,,,,,,,1042.2421,1042.2422,1042.2434,1043.1754,1,0,right,0.3793,,1043.1766,1044.4747,1,1,right,1044.4758,1045.4087,1,0,right,1,1045.4089,1045.4089,1045.41,1046.9083,0,30,30,30,1,0.6,0.4,0.4,0.6,,,,,,,,,,,,,,,0.7457,,0.8,0.2,0.6,0.4,0.8,0.2,0.4,0.6,,,0.4019,,0.2,0.8,0.2,0.8,0.2,0.8,0.8,0.2,1,0
,,603e8ed1b54e6cf4fafcaa1a,66fc9967f1626500d41d5142,2024-10-02_01h53.29.443,mdp,2024.2.1,MacIntel,29.94011976,66fa4ebf79326e780c390304,,,,,,,,,,,,,,,,,,,,,1046.9087,1046.9087,1046.9095,1048.5086,0,0,left,1.0546,,1048.5096,1050.2758,1,1,right,1050.2769,1051.4748,1,0,right,1,1051.4748,1051.4748,1051.4759,1052.9749,0,31,31,31,1,0.6,0.4,0.4,0.6,,,,,,,,,,,,,,,1.2066,,0.8,0.2,0.6,0.4,0.8,0.2,0.4,0.6,,,0.6536,,0.2,0.8,0.2,0.8,0.2,0.8,0.8,0.2,1,0
,,603e8ed1b54e6cf4fafcaa1a,66fc9967f1626500d41d5142,2024-10-02_01h53.29.443,mdp,2024.2.1,MacIntel,29.94011976,66fa4ebf79326e780c390304,,,,,,,,,,,,,,,,,,,,,1052.9757,1052.9757,1052.9769,1053.8754,1,0,right,0.3602,,1053.8762,1055.3428,1,0,right,1055.3442,1056.4097,1,1,right,0,1056.4098,1056.4098,1056.4111,1057.9092,0,32,32,32,1,0.6,0.4,0.4,0.6,,,,,,,,,,,,,,,0.9381,,0.8,0.2,0.6,0.4,0.8,0.2,0.4,0.6,,,0.4932,,0.2,0.8,0.2,0.8,0.2,0.8,0.8,0.2,1,0
,,603e8ed1b54e6cf4fafcaa1a,66fc9967f1626500d41d5142,2024-10-02_01h53.29.443,mdp,2024.2.1,MacIntel,29.94011976,66fa4ebf79326e780c390304,,,,,,,,,,,,,,,,,,,,,1057.9094,1057.9094,1057.9102,1058.8429,0,1,left,0.3845,,1058.8439,1060.5765,1,0,right,1060.5775,1061.4765,1,1,right,0,1061.4766,1061.4766,1061.4778,1062.9765,0,33,33,33,1,0.6,0.4,0.4,0.6,,,,,,,,,,,,,,,1.1795,,0.8,0.2,0.6,0.4,0.8,0.2,0.4,0.6,,,0.3513,,0.4,0.6,0.6,0.4,0.2,0.8,0.8,0.2,1,0
,,603e8ed1b54e6cf4fafcaa1a,66fc9967f1626500d41d5142,2024-10-02_01h53.29.443,mdp,2024.2.1,MacIntel,29.94011976,66fa4ebf79326e780c390304,,,,,,,,,,,,,,,,,,,,,1062.977,1062.977,1062.9781,1068.2097,1,0,right,4.6749,,1068.2242,1070.0105,0,0,left,1070.0117,1071.2436,1,0,right,1,1071.2437,1071.2437,1071.245,1072.7438,0,34,34,34,1,0.6,0.4,0.4,0.6,,,,,,,,,,,,,,,1.2601,,0.8,0.2,0.6,0.4,0.8,0.2,0.4,0.6,,,0.6665,,0.4,0.6,0.6,0.4,0.6,0.4,0.2,0.8,1,0
,,603e8ed1b54e6cf4fafcaa1a,66fc9967f1626500d41d5142,2024-10-02_01h53.29.443,mdp,2024.2.1,MacIntel,29.94011976,66fa4ebf79326e780c390304,,,,,,,,,,,,,,,,,,,,,1072.7443,1072.7443,1072.7455,1074.2774,1,1,right,0.9781,,1074.2786,1075.9107,0,0,left,1075.9114,1077.4107,1,0,right,1,1077.4108,1077.4108,1077.4116,1078.9099,0,35,35,35,1,0.6,0.4,0.4,0.6,,,,,,,,,,,,,,,1.0694,,0.8,0.2,0.6,0.4,0.8,0.2,0.4,0.6,,,0.9456,,0.4,0.6,0.6,0.4,0.6,0.4,0.2,0.8,1,0
,,603e8ed1b54e6cf4fafcaa1a,66fc9967f1626500d41d5142,2024-10-02_01h53.29.443,mdp,2024.2.1,MacIntel,29.94011976,66fa4ebf79326e780c390304,,,,,,,,,,,,,,,,,,,,,1078.9103,1078.9103,1078.9111,1080.2438,1,1,right,0.777,,1080.2445,1081.5444,0,0,left,1081.5455,1082.6774,1,0,right,1,1082.6775,1082.6775,1082.6786,1084.1779,0,36,36,36,1,0.6,0.4,0.4,0.6,,,,,,,,,,,,,,,0.7692,,0.8,0.2,0.6,0.4,0.8,0.2,0.4,0.6,,,0.5727,,0.4,0.6,0.6,0.4,0.6,0.4,0.2,0.8,1,0
,,603e8ed1b54e6cf4fafcaa1a,66fc9967f1626500d41d5142,2024-10-02_01h53.29.443,mdp,2024.2.1,MacIntel,29.94011976,66fa4ebf79326e780c390304,,,,,,,,,,,,,,,,,,,,,1084.1784,1084.1784,1084.1796,1085.311,1,1,right,0.5735,,1085.3122,1086.5783,0,0,left,1086.5796,1087.7451,1,1,right,0,1087.7452,1087.7452,1087.7465,1089.2441,0,37,37,37,1,0.6,0.4,0.4,0.6,,,,,,,,,,,,,,,0.7339,,0.8,0.2,0.6,0.4,0.8,0.2,0.4,0.6,,,0.6086,,0.4,0.6,0.6,0.4,0.6,0.4,0.2,0.8,1,0
,,603e8ed1b54e6cf4fafcaa1a,66fc9967f1626500d41d5142,2024-10-02_01h53.29.443,mdp,2024.2.1,MacIntel,29.94011976,66fa4ebf79326e780c390304,,,,,,,,,,,,,,,,,,,,,1089.2448,1089.2448,1089.2461,1090.4453,1,1,right,0.6731,,1090.4466,1092.3449,1,1,right,1092.3459,1093.3785,1,1,right,0,1093.3786,1093.3786,1093.3798,1094.8779,0,38,38,38,1,0.6,0.4,0.4,0.6,,,,,,,,,,,,,,,1.3523,,0.8,0.2,0.6,0.4,0.8,0.2,0.4,0.6,,,0.4661,,0.6,0.4,0.8,0.2,0.6,0.4,0.2,0.8,1,0
,,603e8ed1b54e6cf4fafcaa1a,66fc9967f1626500d41d5142,2024-10-02_01h53.29.443,mdp,2024.2.1,MacIntel,29.94011976,66fa4ebf79326e780c390304,,,,,,,,,,,,,,,,,,,,,1094.8785,1094.8786,1094.8797,1095.9453,1,1,right,0.5469,,1095.9464,1097.0122,0,0,left,1097.0132,1098.1124,0,1,left,0,1098.1125,1098.1125,1098.1137,1099.6125,0,39,39,39,1,0.6,0.4,0.4,0.6,,,,,,,,,,,,,,,0.5267,,0.8,0.2,0.6,0.4,0.8,0.2,0.4,0.6,,,0.5316,,0.6,0.4,0.8,0.2,0.6,0.4,0.2,0.8,1,0
,,603e8ed1b54e6cf4fafcaa1a,66fc9967f1626500d41d5142,2024-10-02_01h53.29.443,mdp,2024.2.1,MacIntel,29.94011976,66fa4ebf79326e780c390304,,,,,,,,,,,,,,,,,,,,,1099.613,1099.613,1099.6141,1100.7784,1,1,right,0.6019,,1100.7796,1102.0789,0,0,left,1102.08,1103.0453,1,1,right,0,1103.0455,1103.0455,1103.0467,1104.546,0,40,40,40,1,0.6,0.4,0.4,0.6,,,,,,,,,,,,,,,0.7705,,0.8,0.2,0.6,0.4,0.8,0.2,0.4,0.6,,,0.4005,,0.6,0.4,0.8,0.2,0.6,0.4,0.2,0.8,1,0
,,603e8ed1b54e6cf4fafcaa1a,66fc9967f1626500d41d5142,2024-10-02_01h53.29.443,mdp,2024.2.1,MacIntel,29.94011976,66fa4ebf79326e780c390304,,,,,,,,,,,,,,,,,,,,,1104.5465,1104.5465,1104.5477,1105.613,1,1,right,0.5224,,1105.6142,1107.0799,1,0,right,1107.081,1108.2131,1,0,right,1,1108.2132,1108.2132,1108.2144,1109.713,0,41,41,41,1,0.6,0.4,0.4,0.6,,,,,,,,,,,,,,,0.9176,,0.8,0.2,0.6,0.4,0.8,0.2,0.4,0.6,,,0.5711,,0.6,0.4,0.8,0.2,0.6,0.4,0.2,0.8,1,0
,,603e8ed1b54e6cf4fafcaa1a,66fc9967f1626500d41d5142,2024-10-02_01h53.29.443,mdp,2024.2.1,MacIntel,29.94011976,66fa4ebf79326e780c390304,,,,,,,,,,,,,,,,,,,,,1109.7135,1109.7135,1109.7147,1110.68,1,1,right,0.4018,,1110.6811,1111.6457,1,0,right,1111.647,1112.5134,1,1,right,0,1112.5135,1112.5135,1112.5147,1114.0123,0,42,42,42,1,0.6,0.4,0.4,0.6,,,,,,,,,,,,,,,0.4125,,0.8,0.2,0.6,0.4,0.8,0.2,0.4,0.6,,,0.3376,,0.6,0.4,0.8,0.2,0.6,0.4,0.2,0.8,1,0
,,603e8ed1b54e6cf4fafcaa1a,66fc9967f1626500d41d5142,2024-10-02_01h53.29.443,mdp,2024.2.1,MacIntel,29.94011976,66fa4ebf79326e780c390304,,,,,,,,,,,,,,,,,,,,,1114.0132,1114.0132,1114.0144,1114.9134,0,0,left,0.3832,,1114.9144,1115.913,1,1,right,1115.9141,1116.8138,1,1,right,0,1116.8138,1116.8138,1116.815,1118.3136,0,43,43,43,1,0.6,0.4,0.4,0.6,,,,,,,,,,,,,,,0.4284,,0.8,0.2,0.6,0.4,0.8,0.2,0.4,0.6,,,0.3413,,0.6,0.4,0.8,0.2,0.6,0.4,0.2,0.8,1,0
,,603e8ed1b54e6cf4fafcaa1a,66fc9967f1626500d41d5142,2024-10-02_01h53.29.443,mdp,2024.2.1,MacIntel,29.94011976,66fa4ebf79326e780c390304,,,,,,,,,,,,,,,,,,,,,1118.3141,1118.3141,1118.3153,1119.0804,1,0,right,0.2207,,1119.0813,1120.5466,1,1,right,1120.5474,1121.4474,1,1,right,0,1121.4475,1121.4475,1121.4487,1122.9474,0,44,44,44,1,0.6,0.4,0.4,0.6,,,,,,,,,,,,,,,0.9071,,0.8,0.2,0.6,0.4,0.8,0.2,0.4,0.6,,,0.3836,,0.6,0.4,0.8,0.2,0.6,0.4,0.2,0.8,1,0
,,603e8ed1b54e6cf4fafcaa1a,66fc9967f1626500d41d5142,2024-10-02_01h53.29.443,mdp,2024.2.1,MacIntel,29.94011976,66fa4ebf79326e780c390304,,,,,,,,,,,,,,,,,,,,,1122.9478,1122.9478,1122.949,1123.8143,1,1,right,0.3088,,1123.8155,1124.7133,0,1,left,1124.7146,1125.7805,0,0,left,1,1125.7805,1125.7805,1125.7814,1127.2807,0,45,45,45,1,0.6,0.4,0.4,0.6,,,,,,,,,,,,,,,0.3333,,0.8,0.2,0.6,0.4,0.8,0.2,0.4,0.6,,,0.525,,0.6,0.4,0.8,0.2,0.6,0.4,0.2,0.8,1,0
,,603e8ed1b54e6cf4fafcaa1a,66fc9967f1626500d41d5142,2024-10-02_01h53.29.443,mdp,2024.2.1,MacIntel,29.94011976,66fa4ebf79326e780c390304,,,,,,,,,,,,,,,,,,,,,1127.2812,1127.2812,1127.2824,1128.2809,1,1,right,0.4402,,1128.2821,1129.2152,0,0,left,1129.2164,1130.1472,0,0,left,1,1130.1472,1130.1472,1130.1484,1131.6476,0,46,46,46,1,0.6,0.4,0.4,0.6,,,,,,,,,,,,,,,0.3953,,0.8,0.2,0.6,0.4,0.8,0.2,0.4,0.6,,,0.3632,,0.6,0.4,0.8,0.2,0.6,0.4,0.2,0.8,1,0
,,603e8ed1b54e6cf4fafcaa1a,66fc9967f1626500d41d5142,2024-10-02_01h53.29.443,mdp,2024.2.1,MacIntel,29.94011976,66fa4ebf79326e780c390304,,,,,,,,,,,,,,,,,,,,,1131.6479,1131.6479,1131.6486,1132.5809,1,1,right,0.3747,,1132.5821,1133.7148,0,1,left,1133.7158,1134.5472,0,0,left,1,1134.5472,1134.5472,1134.5487,1136.0472,0,47,47,47,1,0.6,0.4,0.4,0.6,,,,,,,,,,,,,,,0.6239,,0.8,0.2,0.6,0.4,0.8,0.2,0.4,0.6,,,0.2987,,0.6,0.4,0.8,0.2,0.6,0.4,0.2,0.8,1,0
,,603e8ed1b54e6cf4fafcaa1a,66fc9967f1626500d41d5142,2024-10-02_01h53.29.443,mdp,2024.2.1,MacIntel,29.94011976,66fa4ebf79326e780c390304,,,,,,,,,,,,,,,,,,,,,1136.0478,1136.0479,1136.0491,1137.1151,1,0,right,0.534,,1137.1165,1138.1808,0,1,left,1138.1822,1139.315,1,1,right,0,1139.3151,1139.3151,1139.3159,1140.8152,0,48,48,48,1,0.6,0.4,0.4,0.6,,,,,,,,,,,,,,,0.4982,,0.2,0.8,0.2,0.8,0.8,0.2,0.4,0.6,,,0.625,,0.6,0.4,0.8,0.2,0.6,0.4,0.2,0.8,1,0
,,603e8ed1b54e6cf4fafcaa1a,66fc9967f1626500d41d5142,2024-10-02_01h53.29.443,mdp,2024.2.1,MacIntel,29.94011976,66fa4ebf79326e780c390304,,,,,,,,,,,,,,,,,,,,,1140.8156,1140.8156,1140.8168,1141.7478,1,1,right,0.3805,,1141.7492,1142.6821,0,0,left,1142.6833,1143.5823,0,1,left,0,1143.5823,1143.5823,1143.5833,1145.0822,0,49,49,49,1,0.6,0.4,0.4,0.6,,,,,,,,,,,,,,,0.3954,,0.2,0.8,0.2,0.8,0.8,0.2,0.4,0.6,,,0.3481,,0.6,0.4,0.8,0.2,0.6,0.4,0.2,0.8,1,0
,,603e8ed1b54e6cf4fafcaa1a,66fc9967f1626500d41d5142,2024-10-02_01h53.29.443,mdp,2024.2.1,MacIntel,29.94011976,66fa4ebf79326e780c390304,,,,,,,,,,,,,,,,,,,,,,,,,,,,,,,,,,,,,,,,,,,,,,,,,,,,,,,,1145.0826,1235.6436,0,3,3,8,1,imgs/cat.png,imgs/kangaroo.png,imgs/horse.png,imgs/squirrel.png,imgs/rabbit.png,,,,,,,,,,,,,,,,,,,,,,,,
,,603e8ed1b54e6cf4fafcaa1a,66fc9967f1626500d41d5142,2024-10-02_01h53.29.443,mdp,2024.2.1,MacIntel,29.94011976,66fa4ebf79326e780c390304,,,,,,,,,,,,,,1,seqs/st1seq36.csv,1235.6547,1237.4046,space,1.2246,,1237.4082,1237.4082,1237.409,1238.6055,1,0,right,0.6428,,1238.6068,1238.6078,0,1,,1238.6086,1238.6094,0,1,,1,1238.6094,1238.6094,1238.61,1240.1044,0,0,0,0,1,0.6,0.4,0.4,0.6,1,0,,,,,,,,,,,,,,,,,,,,,,,,,,,,,,,,,,,,
,,603e8ed1b54e6cf4fafcaa1a,66fc9967f1626500d41d5142,2024-10-02_01h53.29.443,mdp,2024.2.1,MacIntel,29.94011976,66fa4ebf79326e780c390304,,,,,,,,,,,,,,,,,,,,,1240.1051,1240.1051,1240.1063,1241.2717,1,1,right,0.6373,,1241.2729,1241.2739,0,1,,1241.2751,1241.276,0,0,,0,1241.276,1241.276,1241.277,1242.7722,0,1,1,1,1,0.6,0.4,0.4,0.6,1,0,,,,,,,,,,,,,,,,,,,,,,,,,,,,,,,,,,,,
,,603e8ed1b54e6cf4fafcaa1a,66fc9967f1626500d41d5142,2024-10-02_01h53.29.443,mdp,2024.2.1,MacIntel,29.94011976,66fa4ebf79326e780c390304,,,,,,,,,,,,,,,,,,,,,1242.7726,1242.7726,1242.7738,1243.706,1,0,right,0.3835,,1243.7072,1243.7083,0,1,,1243.7091,1243.7098,0,0,,1,1243.7099,1243.7099,1243.7106,1245.2053,0,2,2,2,1,0.4,0.6,0.8,0.2,1,0,,,,,,,,,,,,,,,,,,,,,,,,,,,,,,,,,,,,
,,603e8ed1b54e6cf4fafcaa1a,66fc9967f1626500d41d5142,2024-10-02_01h53.29.443,mdp,2024.2.1,MacIntel,29.94011976,66fa4ebf79326e780c390304,,,,,,,,,,,,,,,,,,,,,1245.2057,1245.2057,1245.207,1246.1393,0,0,left,0.3664,,1246.1404,1246.1416,0,1,,1246.1425,1246.1433,0,0,,1,1246.1433,1246.1433,1246.144,1247.6392,0,3,3,3,1,0.4,0.6,0.8,0.2,1,0,,,,,,,,,,,,,,,,,,,,,,,,,,,,,,,,,,,,
,,603e8ed1b54e6cf4fafcaa1a,66fc9967f1626500d41d5142,2024-10-02_01h53.29.443,mdp,2024.2.1,MacIntel,29.94011976,66fa4ebf79326e780c390304,,,,,,,,,,,,,,,,,,,,,1247.6396,1247.6396,1247.6408,1248.5056,1,1,right,0.3263,,1248.5067,1248.5073,0,0,,1248.5081,1248.5088,0,1,,0,1248.5088,1248.5088,1248.5094,1250.0057,0,4,4,4,1,0.4,0.6,0.8,0.2,1,0,,,,,,,,,,,,,,,,,,,,,,,,,,,,,,,,,,,,
,,603e8ed1b54e6cf4fafcaa1a,66fc9967f1626500d41d5142,2024-10-02_01h53.29.443,mdp,2024.2.1,MacIntel,29.94011976,66fa4ebf79326e780c390304,,,,,,,,,,,,,,,,,,,,,1250.0063,1250.0063,1250.0075,1251.0063,1,1,right,0.452,,1251.0075,1251.0086,0,0,,1251.0096,1251.0105,0,0,,0,1251.0105,1251.0106,1251.0113,1252.5052,0,5,5,5,1,0.4,0.6,0.8,0.2,1,0,,,,,,,,,,,,,,,,,,,,,,,,,,,,,,,,,,,,
,,603e8ed1b54e6cf4fafcaa1a,66fc9967f1626500d41d5142,2024-10-02_01h53.29.443,mdp,2024.2.1,MacIntel,29.94011976,66fa4ebf79326e780c390304,,,,,,,,,,,,,,,,,,,,,1252.5058,1252.5058,1252.5069,1253.6718,0,1,left,0.6393,,1253.673,1253.6741,0,1,,1253.6747,1253.6754,0,0,,0,1253.6754,1253.6754,1253.6759,1255.172,0,6,6,6,1,0.4,0.6,0.8,0.2,1,0,,,,,,,,,,,,,,,,,,,,,,,,,,,,,,,,,,,,
,,603e8ed1b54e6cf4fafcaa1a,66fc9967f1626500d41d5142,2024-10-02_01h53.29.443,mdp,2024.2.1,MacIntel,29.94011976,66fa4ebf79326e780c390304,,,,,,,,,,,,,,,,,,,,,1255.1725,1255.1726,1255.1738,1255.906,1,0,right,0.184,,1255.9068,1255.9082,0,0,,1255.9088,1255.9094,0,0,,1,1255.9094,1255.9094,1255.9098,1257.4051,0,7,7,7,1,0.4,0.6,0.8,0.2,1,0,,,,,,,,,,,,,,,,,,,,,,,,,,,,,,,,,,,,
,,603e8ed1b54e6cf4fafcaa1a,66fc9967f1626500d41d5142,2024-10-02_01h53.29.443,mdp,2024.2.1,MacIntel,29.94011976,66fa4ebf79326e780c390304,,,,,,,,,,,,,,,,,,,,,1257.4054,1257.4054,1257.4063,1258.2731,0,0,left,0.3552,,1258.2741,1258.2749,0,0,,1258.2756,1258.2763,0,1,,1,1258.2763,1258.2763,1258.2769,1259.7731,0,8,8,8,1,0.4,0.6,0.8,0.2,1,0,,,,,,,,,,,,,,,,,,,,,,,,,,,,,,,,,,,,
,,603e8ed1b54e6cf4fafcaa1a,66fc9967f1626500d41d5142,2024-10-02_01h53.29.443,mdp,2024.2.1,MacIntel,29.94011976,66fa4ebf79326e780c390304,,,,,,,,,,,,,,,,,,,,,1259.7733,1259.7733,1259.7739,1260.8389,0,0,left,0.4841,,1260.84,1260.841,0,0,,1260.8417,1260.8423,0,0,,1,1260.8423,1260.8423,1260.8429,1262.3402,0,9,9,9,1,0.4,0.6,0.8,0.2,1,0,,,,,,,,,,,,,,,,,,,,,,,,,,,,,,,,,,,,
,,603e8ed1b54e6cf4fafcaa1a,66fc9967f1626500d41d5142,2024-10-02_01h53.29.443,mdp,2024.2.1,MacIntel,29.94011976,66fa4ebf79326e780c390304,,,,,,,,,,,,,,,,,,,,,1262.3406,1262.3406,1262.3417,1263.2405,1,1,right,0.3418,,1263.2417,1263.2428,0,1,,1263.2438,1263.2448,0,0,,0,1263.2449,1263.2449,1263.2458,1264.7403,0,10,10,10,1,0.2,0.8,0.6,0.4,1,0,,,,,,,,,,,,,,,,,,,,,,,,,,,,,,,,,,,,
,,603e8ed1b54e6cf4fafcaa1a,66fc9967f1626500d41d5142,2024-10-02_01h53.29.443,mdp,2024.2.1,MacIntel,29.94011976,66fa4ebf79326e780c390304,,,,,,,,,,,,,,,,,,,,,1264.7407,1264.7407,1264.7418,1265.6406,0,0,left,0.3444,,1265.6418,1265.643,0,1,,1265.644,1265.6449,0,1,,1,1265.645,1265.645,1265.6459,1267.1406,0,11,11,11,1,0.2,0.8,0.6,0.4,1,0,,,,,,,,,,,,,,,,,,,,,,,,,,,,,,,,,,,,
,,603e8ed1b54e6cf4fafcaa1a,66fc9967f1626500d41d5142,2024-10-02_01h53.29.443,mdp,2024.2.1,MacIntel,29.94011976,66fa4ebf79326e780c390304,,,,,,,,,,,,,,,,,,,,,1267.141,1267.141,1267.1422,1268.1075,0,1,left,0.4195,,1268.1086,1268.1096,0,1,,1268.1105,1268.1113,0,1,,0,1268.1113,1268.1113,1268.1119,1269.6063,0,12,12,12,1,0.2,0.8,0.6,0.4,1,0,,,,,,,,,,,,,,,,,,,,,,,,,,,,,,,,,,,,
,,603e8ed1b54e6cf4fafcaa1a,66fc9967f1626500d41d5142,2024-10-02_01h53.29.443,mdp,2024.2.1,MacIntel,29.94011976,66fa4ebf79326e780c390304,,,,,,,,,,,,,,,,,,,,,1269.6069,1269.6069,1269.6081,1270.5739,1,1,right,0.4505,,1270.5749,1270.5757,0,1,,1270.5764,1270.5771,0,0,,0,1270.5771,1270.5771,1270.5776,1272.0743,0,13,13,13,1,0.2,0.8,0.6,0.4,1,0,,,,,,,,,,,,,,,,,,,,,,,,,,,,,,,,,,,,
,,603e8ed1b54e6cf4fafcaa1a,66fc9967f1626500d41d5142,2024-10-02_01h53.29.443,mdp,2024.2.1,MacIntel,29.94011976,66fa4ebf79326e780c390304,,,,,,,,,,,,,,,,,,,,,1272.0747,1272.0747,1272.0758,1273.5745,1,1,right,0.9382,,1273.5757,1273.5766,0,1,,1273.5778,1273.5785,0,0,,0,1273.5786,1273.5786,1273.5791,1275.0734,0,14,14,14,1,0.2,0.8,0.6,0.4,1,0,,,,,,,,,,,,,,,,,,,,,,,,,,,,,,,,,,,,
,,603e8ed1b54e6cf4fafcaa1a,66fc9967f1626500d41d5142,2024-10-02_01h53.29.443,mdp,2024.2.1,MacIntel,29.94011976,66fa4ebf79326e780c390304,,,,,,,,,,,,,,,,,,,,,1275.0737,1275.0738,1275.075,1276.1414,0,1,left,0.5106,,1276.1426,1276.1438,0,0,,1276.1447,1276.1457,0,0,,0,1276.1458,1276.1458,1276.1466,1277.6401,0,15,15,15,1,0.2,0.8,0.6,0.4,1,0,,,,,,,,,,,,,,,,,,,,,,,,,,,,,,,,,,,,
,,603e8ed1b54e6cf4fafcaa1a,66fc9967f1626500d41d5142,2024-10-02_01h53.29.443,mdp,2024.2.1,MacIntel,29.94011976,66fa4ebf79326e780c390304,,,,,,,,,,,,,,,,,,,,,1277.6403,1277.6403,1277.6414,1278.4748,0,0,left,0.3077,,1278.4761,1278.4773,0,1,,1278.4781,1278.479,0,0,,1,1278.479,1278.479,1278.4796,1279.9748,0,16,16,16,1,0.8,0.2,0.2,0.8,1,0,,,,,,,,,,,,,,,,,,,,,,,,,,,,,,,,,,,,
,,603e8ed1b54e6cf4fafcaa1a,66fc9967f1626500d41d5142,2024-10-02_01h53.29.443,mdp,2024.2.1,MacIntel,29.94011976,66fa4ebf79326e780c390304,,,,,,,,,,,,,,,,,,,,,1279.9752,1279.9752,1279.9764,1281.1752,0,0,left,0.654,,1281.1763,1281.1775,0,0,,1281.1784,1281.1793,0,0,,1,1281.1794,1281.1794,1281.1802,1282.6749,0,17,17,17,1,0.8,0.2,0.2,0.8,1,0,,,,,,,,,,,,,,,,,,,,,,,,,,,,,,,,,,,,
,,603e8ed1b54e6cf4fafcaa1a,66fc9967f1626500d41d5142,2024-10-02_01h53.29.443,mdp,2024.2.1,MacIntel,29.94011976,66fa4ebf79326e780c390304,,,,,,,,,,,,,,,,,,,,,1282.6752,1282.6753,1282.6765,1283.5418,1,1,right,0.3037,,1283.543,1283.5439,0,1,,1283.5451,1283.5459,0,1,,0,1283.5459,1283.546,1283.5467,1285.0403,0,18,18,18,1,0.8,0.2,0.2,0.8,1,0,,,,,,,,,,,,,,,,,,,,,,,,,,,,,,,,,,,,
,,603e8ed1b54e6cf4fafcaa1a,66fc9967f1626500d41d5142,2024-10-02_01h53.29.443,mdp,2024.2.1,MacIntel,29.94011976,66fa4ebf79326e780c390304,,,,,,,,,,,,,,,,,,,,,1285.0405,1285.0405,1285.0414,1286.1754,1,1,right,0.6047,,1286.1764,1286.1774,0,1,,1286.1782,1286.1788,0,1,,0,1286.1789,1286.1789,1286.1796,1287.6754,0,19,19,19,1,0.8,0.2,0.2,0.8,1,0,,,,,,,,,,,,,,,,,,,,,,,,,,,,,,,,,,,,
,,603e8ed1b54e6cf4fafcaa1a,66fc9967f1626500d41d5142,2024-10-02_01h53.29.443,mdp,2024.2.1,MacIntel,29.94011976,66fa4ebf79326e780c390304,,,,,,,,,,,,,,,,,,,,,1287.6758,1287.6758,1287.6769,1288.5756,0,0,left,0.3395,,1288.5767,1288.5777,0,0,,1288.5785,1288.5792,0,0,,1,1288.5792,1288.5792,1288.5798,1290.0754,0,20,20,20,1,0.8,0.2,0.2,0.8,1,0,,,,,,,,,,,,,,,,,,,,,,,,,,,,,,,,,,,,
,,603e8ed1b54e6cf4fafcaa1a,66fc9967f1626500d41d5142,2024-10-02_01h53.29.443,mdp,2024.2.1,MacIntel,29.94011976,66fa4ebf79326e780c390304,,,,,,,,,,,,,,,,,,,,,1290.0758,1290.0758,1290.077,1291.0078,0,1,left,0.3924,,1291.0091,1291.01,0,0,,1291.0108,1291.0114,0,0,,0,1291.0115,1291.0115,1291.012,1292.5092,0,21,21,21,1,0.8,0.2,0.2,0.8,1,0,,,,,,,,,,,,,,,,,,,,,,,,,,,,,,,,,,,,
,,603e8ed1b54e6cf4fafcaa1a,66fc9967f1626500d41d5142,2024-10-02_01h53.29.443,mdp,2024.2.1,MacIntel,29.94011976,66fa4ebf79326e780c390304,,,,,,,,,,,,,,,,,,,,,1292.5096,1292.5096,1292.5107,1293.208,1,1,right,0.1324,,1293.2093,1293.2105,0,1,,1293.2115,1293.2123,0,1,,0,1293.2124,1293.2124,1293.2131,1294.709,0,22,22,22,1,0.8,0.2,0.2,0.8,1,0,,,,,,,,,,,,,,,,,,,,,,,,,,,,,,,,,,,,
,,603e8ed1b54e6cf4fafcaa1a,66fc9967f1626500d41d5142,2024-10-02_01h53.29.443,mdp,2024.2.1,MacIntel,29.94011976,66fa4ebf79326e780c390304,,,,,,,,,,,,,,,,,,,,,1294.7094,1294.7094,1294.7106,1295.6093,1,1,right,0.3445,,1295.6105,1295.6118,0,1,,1295.6127,1295.6135,0,1,,0,1295.6136,1295.6136,1295.6144,1297.1094,0,23,23,23,1,0.8,0.2,0.2,0.8,1,0,,,,,,,,,,,,,,,,,,,,,,,,,,,,,,,,,,,,
,,603e8ed1b54e6cf4fafcaa1a,66fc9967f1626500d41d5142,2024-10-02_01h53.29.443,mdp,2024.2.1,MacIntel,29.94011976,66fa4ebf79326e780c390304,,,,,,,,,,,,,,,,,,,,,1297.1098,1297.1099,1297.111,1297.8094,0,0,left,0.1414,,1297.8106,1297.8117,0,0,,1297.8126,1297.8133,0,1,,1,1297.8133,1297.8133,1297.814,1299.3094,0,24,24,24,1,0.8,0.2,0.2,0.8,1,0,,,,,,,,,,,,,,,,,,,,,,,,,,,,,,,,,,,,
,,603e8ed1b54e6cf4fafcaa1a,66fc9967f1626500d41d5142,2024-10-02_01h53.29.443,mdp,2024.2.1,MacIntel,29.94011976,66fa4ebf79326e780c390304,,,,,,,,,,,,,,,,,,,,,1299.3098,1299.3098,1299.3109,1300.576,0,1,left,0.7065,,1300.5769,1300.5776,0,0,,1300.5783,1300.579,0,0,,0,1300.579,1300.579,1300.5796,1302.0763,0,25,25,25,1,0.8,0.2,0.2,0.8,1,0,,,,,,,,,,,,,,,,,,,,,,,,,,,,,,,,,,,,
,,603e8ed1b54e6cf4fafcaa1a,66fc9967f1626500d41d5142,2024-10-02_01h53.29.443,mdp,2024.2.1,MacIntel,29.94011976,66fa4ebf79326e780c390304,,,,,,,,,,,,,,,,,,,,,1302.0766,1302.0766,1302.0778,1303.0085,1,1,right,0.3729,,1303.01,1303.0111,0,1,,1303.0121,1303.0131,0,1,,0,1303.0131,1303.0131,1303.0139,1304.5098,0,26,26,26,1,0.8,0.2,0.2,0.8,1,0,,,,,,,,,,,,,,,,,,,,,,,,,,,,,,,,,,,,
,,603e8ed1b54e6cf4fafcaa1a,66fc9967f1626500d41d5142,2024-10-02_01h53.29.443,mdp,2024.2.1,MacIntel,29.94011976,66fa4ebf79326e780c390304,,,,,,,,,,,,,,,,,,,,,1304.5102,1304.5102,1304.5114,1306.1423,1,1,right,1.0675,,1306.1436,1306.1449,0,1,,1306.1459,1306.1467,0,1,,0,1306.1467,1306.1467,1306.1474,1307.6432,0,27,27,27,1,0.8,0.2,0.2,0.8,1,0,,,,,,,,,,,,,,,,,,,,,,,,,,,,,,,,,,,,
,,603e8ed1b54e6cf4fafcaa1a,66fc9967f1626500d41d5142,2024-10-02_01h53.29.443,mdp,2024.2.1,MacIntel,29.94011976,66fa4ebf79326e780c390304,,,,,,,,,,,,,,,,,,,,,1307.6436,1307.6436,1307.6449,1308.5434,1,1,right,0.3358,,1308.5447,1308.5458,0,1,,1308.5467,1308.5476,0,0,,0,1308.5476,1308.5476,1308.5485,1310.0433,0,28,28,28,1,0.8,0.2,0.2,0.8,1,0,,,,,,,,,,,,,,,,,,,,,,,,,,,,,,,,,,,,
,,603e8ed1b54e6cf4fafcaa1a,66fc9967f1626500d41d5142,2024-10-02_01h53.29.443,mdp,2024.2.1,MacIntel,29.94011976,66fa4ebf79326e780c390304,,,,,,,,,,,,,,,,,,,,,1310.0437,1310.0437,1310.0449,1311.4772,0,0,left,0.8738,,1311.4784,1311.4795,0,1,,1311.4805,1311.4813,0,1,,1,1311.4813,1311.4813,1311.482,1312.9765,0,29,29,29,1,0.4,0.6,0.8,0.2,1,0,,,,,,,,,,,,,,,,,,,,,,,,,,,,,,,,,,,,
,,603e8ed1b54e6cf4fafcaa1a,66fc9967f1626500d41d5142,2024-10-02_01h53.29.443,mdp,2024.2.1,MacIntel,29.94011976,66fa4ebf79326e780c390304,,,,,,,,,,,,,,,,,,,,,1312.9768,1312.9768,1312.9777,1313.8439,1,0,right,0.3168,,1313.8451,1313.8464,0,0,,1313.8473,1313.848,0,0,,1,1313.8481,1313.8481,1313.8488,1315.3426,0,30,30,30,1,0.4,0.6,0.8,0.2,1,0,,,,,,,,,,,,,,,,,,,,,,,,,,,,,,,,,,,,
,,603e8ed1b54e6cf4fafcaa1a,66fc9967f1626500d41d5142,2024-10-02_01h53.29.443,mdp,2024.2.1,MacIntel,29.94011976,66fa4ebf79326e780c390304,,,,,,,,,,,,,,,,,,,,,1315.3429,1315.343,1315.3443,1316.243,0,1,left,0.371,,1316.2444,1316.2455,0,1,,1316.2465,1316.2474,0,1,,0,1316.2474,1316.2474,1316.2481,1317.744,0,31,31,31,1,0.4,0.6,0.8,0.2,1,0,,,,,,,,,,,,,,,,,,,,,,,,,,,,,,,,,,,,
,,603e8ed1b54e6cf4fafcaa1a,66fc9967f1626500d41d5142,2024-10-02_01h53.29.443,mdp,2024.2.1,MacIntel,29.94011976,66fa4ebf79326e780c390304,,,,,,,,,,,,,,,,,,,,,1317.7444,1317.7444,1317.7456,1318.677,1,0,right,0.3932,,1318.678,1318.6787,0,0,,1318.6796,1318.6804,0,1,,1,1318.6804,1318.6805,1318.6811,1320.1776,0,32,32,32,1,0.4,0.6,0.8,0.2,1,0,,,,,,,,,,,,,,,,,,,,,,,,,,,,,,,,,,,,
,,603e8ed1b54e6cf4fafcaa1a,66fc9967f1626500d41d5142,2024-10-02_01h53.29.443,mdp,2024.2.1,MacIntel,29.94011976,66fa4ebf79326e780c390304,,,,,,,,,,,,,,,,,,,,,1320.1779,1320.1779,1320.179,1321.0111,1,0,right,0.3191,,1321.012,1321.0129,0,1,,1321.0136,1321.0142,0,1,,1,1321.0143,1321.0143,1321.0148,1322.5111,0,33,33,33,1,0.6,0.4,0.4,0.6,1,0,,,,,,,,,,,,,,,,,,,,,,,,,,,,,,,,,,,,
,,603e8ed1b54e6cf4fafcaa1a,66fc9967f1626500d41d5142,2024-10-02_01h53.29.443,mdp,2024.2.1,MacIntel,29.94011976,66fa4ebf79326e780c390304,,,,,,,,,,,,,,,,,,,,,1322.5115,1322.5116,1322.5126,1323.4112,0,0,left,0.3427,,1323.4124,1323.4136,0,0,,1323.4145,1323.4154,0,1,,1,1323.4154,1323.4154,1323.4161,1324.9099,0,34,34,34,1,0.8,0.2,0.2,0.8,1,0,,,,,,,,,,,,,,,,,,,,,,,,,,,,,,,,,,,,
,,603e8ed1b54e6cf4fafcaa1a,66fc9967f1626500d41d5142,2024-10-02_01h53.29.443,mdp,2024.2.1,MacIntel,29.94011976,66fa4ebf79326e780c390304,,,,,,,,,,,,,,,,,,,,,1324.9103,1324.9103,1324.9118,1325.8435,1,1,right,0.3916,,1325.8447,1325.8456,0,1,,1325.8462,1325.8469,0,0,,0,1325.8469,1325.8469,1325.8473,1327.3435,0,35,35,35,1,0.8,0.2,0.2,0.8,1,0,,,,,,,,,,,,,,,,,,,,,,,,,,,,,,,,,,,,
,,603e8ed1b54e6cf4fafcaa1a,66fc9967f1626500d41d5142,2024-10-02_01h53.29.443,mdp,2024.2.1,MacIntel,29.94011976,66fa4ebf79326e780c390304,,,,,,,,,,,,,,,,,,,,,1327.3439,1327.3439,1327.3453,1328.3116,0,1,left,0.4331,,1328.3126,1328.3135,0,0,,1328.3143,1328.315,0,0,,0,1328.315,1328.315,1328.3156,1329.8115,0,36,36,36,1,0.8,0.2,0.2,0.8,1,0,,,,,,,,,,,,,,,,,,,,,,,,,,,,,,,,,,,,
,,603e8ed1b54e6cf4fafcaa1a,66fc9967f1626500d41d5142,2024-10-02_01h53.29.443,mdp,2024.2.1,MacIntel,29.94011976,66fa4ebf79326e780c390304,,,,,,,,,,,,,,,,,,,,,1329.8118,1329.8118,1329.813,1330.6117,0,0,left,0.2515,,1330.6129,1330.614,0,0,,1330.615,1330.6157,0,1,,1,1330.6157,1330.6157,1330.6164,1332.1112,0,37,37,37,1,0.8,0.2,0.2,0.8,1,0,,,,,,,,,,,,,,,,,,,,,,,,,,,,,,,,,,,,
,,603e8ed1b54e6cf4fafcaa1a,66fc9967f1626500d41d5142,2024-10-02_01h53.29.443,mdp,2024.2.1,MacIntel,29.94011976,66fa4ebf79326e780c390304,,,,,,,,,,,,,,,,,,,,,1332.1116,1332.1116,1332.1128,1335.3444,1,0,right,2.725,,1335.3457,1335.3463,0,0,,1335.3472,1335.3478,0,1,,1,1335.3478,1335.3478,1335.3483,1336.8448,0,38,38,38,1,0.8,0.2,0.2,0.8,1,0,,,,,,,,,,,,,,,,,,,,,,,,,,,,,,,,,,,,
