init_exp.started,init_exp.stopped,participant,session,date,expName,psychopyVersion,OS,frameRate,study_id,disp_instruction.started,disp_instruction.stopped,instruction.thisRepN,instruction.thisTrialN,instruction.thisN,instruction.thisIndex,instruction.ran,instimg_path,consent.started,consent.stopped,key_resp_3.keys,key_resp_3.rt,key_resp_3.duration,n_steps,sequence_path,init_block.started,init_block.stopped,key_resp.keys,key_resp.rt,key_resp.duration,init_trials.started,init_trials.stopped,step0.started,step0.stopped,act0,s1,res0.keys,res0.rt,res0.duration,step1.started,step1.stopped,act1,s2,res1.keys,step2.started,step2.stopped,act2,s3,res2.keys,rew,reward_comp.started,reward_comp.stopped,reward_disp.started,reward_disp.stopped,trials.thisRepN,trials.thisTrialN,trials.thisN,trials.thisIndex,trials.ran,s00a0s10,s00a0s11,s00a1s10,s00a1s11,rew10,rew11,break_block.started,break_block.stopped,block.thisRepN,block.thisTrialN,block.thisN,block.thisIndex,block.ran,s00path,s10path,s11path,s20path,s21path,res1.rt,res1.duration,s10a0s20,s10a0s21,s10a1s20,s10a1s21,s11a0s20,s11a0s21,s11a1s20,s11a1s21,rew20,rew21,res2.rt,res2.duration,s20a0s30,s20a0s31,s20a1s30,s20a1s31,s21a0s30,s21a0s31,s21a1s30,s21a1s31,rew30,rew31
1E-04,0.0011,607ec7379eac7be04ab448e3,66fc9857d5ad11bba2701e0a,2024-10-02_02h48.51.167,mdp,2024.2.1,Win32,60.24096386,66fa4ebf79326e780c390304,,,,,,,,,,,,,,,,,,,,,,,,,,,,,,,,,,,,,,,,,,,,,,,,,,,,,,,,,,,,,,,,,,,,,,,,,,,,,,,,,,,,,,,,,,,
,,607ec7379eac7be04ab448e3,66fc9857d5ad11bba2701e0a,2024-10-02_02h48.51.167,mdp,2024.2.1,Win32,60.24096386,66fa4ebf79326e780c390304,0.0043,25.1923,0,0,0,0,1,rlnn_exp/rlnn_exp.001.png,,,,,,,,,,,,,,,,,,,,,,,,,,,,,,,,,,,,,,,,,,,,,,,,,,,,,,,,,,,,,,,,,,,,,,,,,,,,,,,,,,,
,,607ec7379eac7be04ab448e3,66fc9857d5ad11bba2701e0a,2024-10-02_02h48.51.167,mdp,2024.2.1,Win32,60.24096386,66fa4ebf79326e780c390304,25.193,51.7352,0,1,1,1,1,rlnn_exp/rlnn_exp.002.png,,,,,,,,,,,,,,,,,,,,,,,,,,,,,,,,,,,,,,,,,,,,,,,,,,,,,,,,,,,,,,,,,,,,,,,,,,,,,,,,,,,
,,607ec7379eac7be04ab448e3,66fc9857d5ad11bba2701e0a,2024-10-02_02h48.51.167,mdp,2024.2.1,Win32,60.24096386,66fa4ebf79326e780c390304,51.7357,63.5303,0,2,2,2,1,rlnn_exp/rlnn_exp.003.png,,,,,,,,,,,,,,,,,,,,,,,,,,,,,,,,,,,,,,,,,,,,,,,,,,,,,,,,,,,,,,,,,,,,,,,,,,,,,,,,,,,
,,607ec7379eac7be04ab448e3,66fc9857d5ad11bba2701e0a,2024-10-02_02h48.51.167,mdp,2024.2.1,Win32,60.24096386,66fa4ebf79326e780c390304,63.5307,75.592,0,3,3,3,1,rlnn_exp/rlnn_exp.004.png,,,,,,,,,,,,,,,,,,,,,,,,,,,,,,,,,,,,,,,,,,,,,,,,,,,,,,,,,,,,,,,,,,,,,,,,,,,,,,,,,,,
,,607ec7379eac7be04ab448e3,66fc9857d5ad11bba2701e0a,2024-10-02_02h48.51.167,mdp,2024.2.1,Win32,60.24096386,66fa4ebf79326e780c390304,,,,,,,,,75.5923,85.652,y,0.0294,,,,,,,,,,,,,,,,,,,,,,,,,,,,,,,,,,,,,,,,,,,,,,,,,,,,,,,,,,,,,,,,,,,,,,,,,,,,,,,
,,607ec7379eac7be04ab448e3,66fc9857d5ad11bba2701e0a,2024-10-02_02h48.51.167,mdp,2024.2.1,Win32,60.24096386,66fa4ebf79326e780c390304,,,,,,,,,,,,,,1,seqs/st1seq21.csv,85.6557,86.8867,space,0.7062,,86.8895,86.8896,86.8898,87.8378,1,0,right,0.4159,,87.8382,87.8394,,0,,87.8397,87.8405,,1,,1,87.8407,87.8408,87.8409,89.3391,0,0,0,0,1,0.8,0.2,0.4,0.6,1,0,,,,,,,,,,,,,,,,,,,,,,,,,,,,,,,,,,,,
,,607ec7379eac7be04ab448e3,66fc9857d5ad11bba2701e0a,2024-10-02_02h48.51.167,mdp,2024.2.1,Win32,60.24096386,66fa4ebf79326e780c390304,,,,,,,,,,,,,,,,,,,,,89.3396,89.3396,89.3405,90.44,1,0,right,0.5669,,90.4408,90.4413,,0,,90.4418,90.4422,,1,,1,90.4422,90.4422,90.4426,91.9414,0,1,1,1,1,0.8,0.2,0.4,0.6,1,0,,,,,,,,,,,,,,,,,,,,,,,,,,,,,,,,,,,,
,,607ec7379eac7be04ab448e3,66fc9857d5ad11bba2701e0a,2024-10-02_02h48.51.167,mdp,2024.2.1,Win32,60.24096386,66fa4ebf79326e780c390304,,,,,,,,,,,,,,,,,,,,,91.9417,91.9417,91.9427,92.976,1,0,right,0.5277,,92.9769,92.9773,,1,,92.9779,92.9783,,0,,1,92.9783,92.9783,92.9786,94.4773,0,2,2,2,1,0.8,0.2,0.4,0.6,1,0,,,,,,,,,,,,,,,,,,,,,,,,,,,,,,,,,,,,
,,607ec7379eac7be04ab448e3,66fc9857d5ad11bba2701e0a,2024-10-02_02h48.51.167,mdp,2024.2.1,Win32,60.24096386,66fa4ebf79326e780c390304,,,,,,,,,,,,,,,,,,,,,94.4776,94.4776,94.4785,95.5452,1,1,right,0.5628,,95.5459,95.5463,,0,,95.5467,95.547,,1,,0,95.547,95.547,95.5473,97.0465,0,3,3,3,1,0.6,0.4,0.2,0.8,1,0,,,,,,,,,,,,,,,,,,,,,,,,,,,,,,,,,,,,
,,607ec7379eac7be04ab448e3,66fc9857d5ad11bba2701e0a,2024-10-02_02h48.51.167,mdp,2024.2.1,Win32,60.24096386,66fa4ebf79326e780c390304,,,,,,,,,,,,,,,,,,,,,97.0467,97.0467,97.0475,98.7316,1,0,right,1.1743,,98.7323,98.7327,,0,,98.7331,98.7335,,1,,1,98.7335,98.7335,98.7338,100.2329,0,4,4,4,1,0.6,0.4,0.2,0.8,1,0,,,,,,,,,,,,,,,,,,,,,,,,,,,,,,,,,,,,
,,607ec7379eac7be04ab448e3,66fc9857d5ad11bba2701e0a,2024-10-02_02h48.51.167,mdp,2024.2.1,Win32,60.24096386,66fa4ebf79326e780c390304,,,,,,,,,,,,,,,,,,,,,100.2333,100.2333,100.234,101.2007,0,1,left,0.4624,,101.2014,101.2019,,0,,101.2022,101.2026,,0,,0,101.2026,101.2026,101.2029,102.7023,0,5,5,5,1,0.6,0.4,0.2,0.8,1,0,,,,,,,,,,,,,,,,,,,,,,,,,,,,,,,,,,,,
,,607ec7379eac7be04ab448e3,66fc9857d5ad11bba2701e0a,2024-10-02_02h48.51.167,mdp,2024.2.1,Win32,60.24096386,66fa4ebf79326e780c390304,,,,,,,,,,,,,,,,,,,,,102.7026,102.7026,102.7036,103.8368,1,1,right,0.6025,,103.8377,103.8382,,1,,103.8388,103.8391,,1,,0,103.8392,103.8392,103.8396,105.3382,0,6,6,6,1,0.6,0.4,0.2,0.8,1,0,,,,,,,,,,,,,,,,,,,,,,,,,,,,,,,,,,,,
,,607ec7379eac7be04ab448e3,66fc9857d5ad11bba2701e0a,2024-10-02_02h48.51.167,mdp,2024.2.1,Win32,60.24096386,66fa4ebf79326e780c390304,,,,,,,,,,,,,,,,,,,,,105.3385,105.3385,105.3396,106.3725,1,0,right,0.5216,,106.3733,106.3737,,0,,106.3741,106.3745,,0,,1,106.3745,106.3745,106.3749,107.8738,0,7,7,7,1,0.8,0.2,0.6,0.4,1,0,,,,,,,,,,,,,,,,,,,,,,,,,,,,,,,,,,,,
,,607ec7379eac7be04ab448e3,66fc9857d5ad11bba2701e0a,2024-10-02_02h48.51.167,mdp,2024.2.1,Win32,60.24096386,66fa4ebf79326e780c390304,,,,,,,,,,,,,,,,,,,,,107.8741,107.8742,107.8748,108.6914,1,0,right,0.3141,,108.6921,108.6925,,0,,108.693,108.6934,,0,,1,108.6934,108.6934,108.6938,110.1929,0,8,8,8,1,0.4,0.6,0.8,0.2,1,0,,,,,,,,,,,,,,,,,,,,,,,,,,,,,,,,,,,,
,,607ec7379eac7be04ab448e3,66fc9857d5ad11bba2701e0a,2024-10-02_02h48.51.167,mdp,2024.2.1,Win32,60.24096386,66fa4ebf79326e780c390304,,,,,,,,,,,,,,,,,,,,,110.1932,110.1932,110.1938,111.044,0,1,left,0.3381,,111.0447,111.0452,,1,,111.0456,111.0459,,1,,0,111.046,111.046,111.0463,112.5453,0,9,9,9,1,0.4,0.6,0.8,0.2,1,0,,,,,,,,,,,,,,,,,,,,,,,,,,,,,,,,,,,,
,,607ec7379eac7be04ab448e3,66fc9857d5ad11bba2701e0a,2024-10-02_02h48.51.167,mdp,2024.2.1,Win32,60.24096386,66fa4ebf79326e780c390304,,,,,,,,,,,,,,,,,,,,,112.5457,112.5457,112.5464,113.3795,1,0,right,0.3189,,113.3803,113.3808,,0,,113.3812,113.3816,,1,,1,113.3816,113.3816,113.3819,114.8809,0,10,10,10,1,0.4,0.6,0.8,0.2,1,0,,,,,,,,,,,,,,,,,,,,,,,,,,,,,,,,,,,,
,,607ec7379eac7be04ab448e3,66fc9857d5ad11bba2701e0a,2024-10-02_02h48.51.167,mdp,2024.2.1,Win32,60.24096386,66fa4ebf79326e780c390304,,,,,,,,,,,,,,,,,,,,,114.8811,114.8811,114.8817,115.8319,1,1,right,0.4359,,115.8326,115.833,,0,,115.8334,115.8338,,0,,0,115.8338,115.8338,115.8342,117.3333,0,11,11,11,1,0.4,0.6,0.8,0.2,1,0,,,,,,,,,,,,,,,,,,,,,,,,,,,,,,,,,,,,
,,607ec7379eac7be04ab448e3,66fc9857d5ad11bba2701e0a,2024-10-02_02h48.51.167,mdp,2024.2.1,Win32,60.24096386,66fa4ebf79326e780c390304,,,,,,,,,,,,,,,,,,,,,117.3335,117.3335,117.3342,118.3677,1,0,right,0.5216,,118.3683,118.3687,,1,,118.3691,118.3695,,0,,1,118.3695,118.3695,118.3698,119.8692,0,12,12,12,1,0.4,0.6,0.8,0.2,1,0,,,,,,,,,,,,,,,,,,,,,,,,,,,,,,,,,,,,
,,607ec7379eac7be04ab448e3,66fc9857d5ad11bba2701e0a,2024-10-02_02h48.51.167,mdp,2024.2.1,Win32,60.24096386,66fa4ebf79326e780c390304,,,,,,,,,,,,,,,,,,,,,119.8694,119.8694,119.8701,120.6366,1,0,right,0.2552,,120.6373,120.6378,,1,,120.6382,120.6385,,0,,1,120.6385,120.6385,120.6388,122.1381,0,13,13,13,1,0.4,0.6,0.8,0.2,1,0,,,,,,,,,,,,,,,,,,,,,,,,,,,,,,,,,,,,
,,607ec7379eac7be04ab448e3,66fc9857d5ad11bba2701e0a,2024-10-02_02h48.51.167,mdp,2024.2.1,Win32,60.24096386,66fa4ebf79326e780c390304,,,,,,,,,,,,,,,,,,,,,122.1384,122.1384,122.1389,122.939,1,0,right,0.288,,122.94,122.9405,,0,,122.9408,122.9412,,0,,1,122.9412,122.9412,122.9415,124.4402,0,14,14,14,1,0.4,0.6,0.8,0.2,1,0,,,,,,,,,,,,,,,,,,,,,,,,,,,,,,,,,,,,
,,607ec7379eac7be04ab448e3,66fc9857d5ad11bba2701e0a,2024-10-02_02h48.51.167,mdp,2024.2.1,Win32,60.24096386,66fa4ebf79326e780c390304,,,,,,,,,,,,,,,,,,,,,124.4404,124.4404,124.4411,125.2245,0,0,left,0.2784,,125.2252,125.2256,,0,,125.226,125.2263,,0,,1,125.2263,125.2263,125.2267,126.7259,0,15,15,15,1,0.8,0.2,0.6,0.4,1,0,,,,,,,,,,,,,,,,,,,,,,,,,,,,,,,,,,,,
,,607ec7379eac7be04ab448e3,66fc9857d5ad11bba2701e0a,2024-10-02_02h48.51.167,mdp,2024.2.1,Win32,60.24096386,66fa4ebf79326e780c390304,,,,,,,,,,,,,,,,,,,,,126.7263,126.7263,126.7269,127.5101,1,1,right,0.2664,,127.5108,127.5111,,1,,127.5115,127.5117,,1,,0,127.5117,127.5117,127.5119,129.0116,0,16,16,16,1,0.8,0.2,0.6,0.4,1,0,,,,,,,,,,,,,,,,,,,,,,,,,,,,,,,,,,,,
,,607ec7379eac7be04ab448e3,66fc9857d5ad11bba2701e0a,2024-10-02_02h48.51.167,mdp,2024.2.1,Win32,60.24096386,66fa4ebf79326e780c390304,,,,,,,,,,,,,,,,,,,,,129.0119,129.0119,129.0124,129.9292,1,0,right,0.4105,,129.93,129.9305,,1,,129.9308,129.9312,,0,,1,129.9312,129.9312,129.9315,131.4306,0,17,17,17,1,0.4,0.6,0.8,0.2,1,0,,,,,,,,,,,,,,,,,,,,,,,,,,,,,,,,,,,,
,,607ec7379eac7be04ab448e3,66fc9857d5ad11bba2701e0a,2024-10-02_02h48.51.167,mdp,2024.2.1,Win32,60.24096386,66fa4ebf79326e780c390304,,,,,,,,,,,,,,,,,,,,,131.4309,131.4309,131.4314,132.1815,1,0,right,0.2424,,132.1822,132.1828,,0,,132.1832,132.1834,,0,,1,132.1835,132.1835,132.1842,133.6829,0,18,18,18,1,0.4,0.6,0.8,0.2,1,0,,,,,,,,,,,,,,,,,,,,,,,,,,,,,,,,,,,,
,,607ec7379eac7be04ab448e3,66fc9857d5ad11bba2701e0a,2024-10-02_02h48.51.167,mdp,2024.2.1,Win32,60.24096386,66fa4ebf79326e780c390304,,,,,,,,,,,,,,,,,,,,,133.6832,133.6832,133.6839,134.4837,1,0,right,0.2868,,134.4843,134.4847,,0,,134.485,134.4853,,0,,1,134.4853,134.4853,134.4855,135.9852,0,19,19,19,1,0.4,0.6,0.8,0.2,1,0,,,,,,,,,,,,,,,,,,,,,,,,,,,,,,,,,,,,
,,607ec7379eac7be04ab448e3,66fc9857d5ad11bba2701e0a,2024-10-02_02h48.51.167,mdp,2024.2.1,Win32,60.24096386,66fa4ebf79326e780c390304,,,,,,,,,,,,,,,,,,,,,135.9854,135.9854,135.986,136.786,0,1,left,0.2675,,136.7867,136.7872,,1,,136.7877,136.788,,0,,0,136.7881,136.7881,136.7884,138.2873,0,20,20,20,1,0.4,0.6,0.8,0.2,1,0,,,,,,,,,,,,,,,,,,,,,,,,,,,,,,,,,,,,
,,607ec7379eac7be04ab448e3,66fc9857d5ad11bba2701e0a,2024-10-02_02h48.51.167,mdp,2024.2.1,Win32,60.24096386,66fa4ebf79326e780c390304,,,,,,,,,,,,,,,,,,,,,138.2876,138.2876,138.2882,138.9382,1,0,right,0.144,,138.9391,138.9396,,1,,138.9401,138.9404,,0,,1,138.9404,138.9404,138.9408,140.4396,0,21,21,21,1,0.6,0.4,0.6,0.4,1,0,,,,,,,,,,,,,,,,,,,,,,,,,,,,,,,,,,,,
,,607ec7379eac7be04ab448e3,66fc9857d5ad11bba2701e0a,2024-10-02_02h48.51.167,mdp,2024.2.1,Win32,60.24096386,66fa4ebf79326e780c390304,,,,,,,,,,,,,,,,,,,,,140.4398,140.4398,140.4404,141.2069,0,1,left,0.2599,,141.2077,141.2081,,1,,141.2085,141.2087,,0,,0,141.2088,141.2088,141.2091,142.7084,0,22,22,22,1,0.6,0.4,0.6,0.4,1,0,,,,,,,,,,,,,,,,,,,,,,,,,,,,,,,,,,,,
,,607ec7379eac7be04ab448e3,66fc9857d5ad11bba2701e0a,2024-10-02_02h48.51.167,mdp,2024.2.1,Win32,60.24096386,66fa4ebf79326e780c390304,,,,,,,,,,,,,,,,,,,,,142.7087,142.7087,142.7094,143.6427,1,0,right,0.4285,,143.6434,143.6438,,0,,143.6442,143.6445,,0,,1,143.6445,143.6446,143.6448,145.1441,0,23,23,23,1,0.6,0.4,0.6,0.4,1,0,,,,,,,,,,,,,,,,,,,,,,,,,,,,,,,,,,,,
,,607ec7379eac7be04ab448e3,66fc9857d5ad11bba2701e0a,2024-10-02_02h48.51.167,mdp,2024.2.1,Win32,60.24096386,66fa4ebf79326e780c390304,,,,,,,,,,,,,,,,,,,,,145.1444,145.1444,145.1449,146.0118,1,0,right,0.3619,,146.0125,146.0128,,1,,146.0133,146.0135,,0,,1,146.0135,146.0136,146.0139,147.5133,0,24,24,24,1,0.6,0.4,0.6,0.4,1,0,,,,,,,,,,,,,,,,,,,,,,,,,,,,,,,,,,,,
,,607ec7379eac7be04ab448e3,66fc9857d5ad11bba2701e0a,2024-10-02_02h48.51.167,mdp,2024.2.1,Win32,60.24096386,66fa4ebf79326e780c390304,,,,,,,,,,,,,,,,,,,,,147.5136,147.5136,147.5141,148.5143,0,1,left,0.4971,,148.5149,148.5154,,0,,148.5159,148.5162,,1,,0,148.5162,148.5162,148.5164,150.0157,0,25,25,25,1,0.6,0.4,0.6,0.4,1,0,,,,,,,,,,,,,,,,,,,,,,,,,,,,,,,,,,,,
,,607ec7379eac7be04ab448e3,66fc9857d5ad11bba2701e0a,2024-10-02_02h48.51.167,mdp,2024.2.1,Win32,60.24096386,66fa4ebf79326e780c390304,,,,,,,,,,,,,,,,,,,,,150.016,150.016,150.0165,150.6998,1,0,right,0.1689,,150.7005,150.701,,0,,150.7013,150.7017,,1,,1,150.7017,150.7017,150.702,152.2012,0,26,26,26,1,0.6,0.4,0.6,0.4,1,0,,,,,,,,,,,,,,,,,,,,,,,,,,,,,,,,,,,,
,,607ec7379eac7be04ab448e3,66fc9857d5ad11bba2701e0a,2024-10-02_02h48.51.167,mdp,2024.2.1,Win32,60.24096386,66fa4ebf79326e780c390304,,,,,,,,,,,,,,,,,,,,,152.2015,152.2015,152.202,152.9853,1,0,right,0.2666,,152.986,152.9864,,1,,152.9868,152.987,,1,,1,152.9871,152.9871,152.9874,154.4869,0,27,27,27,1,0.6,0.4,0.6,0.4,1,0,,,,,,,,,,,,,,,,,,,,,,,,,,,,,,,,,,,,
,,607ec7379eac7be04ab448e3,66fc9857d5ad11bba2701e0a,2024-10-02_02h48.51.167,mdp,2024.2.1,Win32,60.24096386,66fa4ebf79326e780c390304,,,,,,,,,,,,,,,,,,,,,154.4872,154.4872,154.4877,155.3209,1,0,right,0.3242,,155.3215,155.322,,0,,155.3223,155.3225,,0,,1,155.3225,155.3225,155.3229,156.8224,0,28,28,28,1,0.6,0.4,0.6,0.4,1,0,,,,,,,,,,,,,,,,,,,,,,,,,,,,,,,,,,,,
,,607ec7379eac7be04ab448e3,66fc9857d5ad11bba2701e0a,2024-10-02_02h48.51.167,mdp,2024.2.1,Win32,60.24096386,66fa4ebf79326e780c390304,,,,,,,,,,,,,,,,,,,,,156.8227,156.8227,156.8233,157.5899,0,0,left,0.2601,,157.5906,157.591,,1,,157.5916,157.5919,,1,,1,157.5919,157.5919,157.5922,159.0914,0,29,29,29,1,0.6,0.4,0.6,0.4,1,0,,,,,,,,,,,,,,,,,,,,,,,,,,,,,,,,,,,,
,,607ec7379eac7be04ab448e3,66fc9857d5ad11bba2701e0a,2024-10-02_02h48.51.167,mdp,2024.2.1,Win32,60.24096386,66fa4ebf79326e780c390304,,,,,,,,,,,,,,,,,,,,,159.0916,159.0916,159.0923,159.8422,0,0,left,0.2401,,159.8428,159.8431,,1,,159.8435,159.8437,,1,,1,159.8437,159.8437,159.8439,161.3436,0,30,30,30,1,0.6,0.4,0.6,0.4,1,0,,,,,,,,,,,,,,,,,,,,,,,,,,,,,,,,,,,,
,,607ec7379eac7be04ab448e3,66fc9857d5ad11bba2701e0a,2024-10-02_02h48.51.167,mdp,2024.2.1,Win32,60.24096386,66fa4ebf79326e780c390304,,,,,,,,,,,,,,,,,,,,,161.3438,161.3438,161.3445,162.4283,1,0,right,0.5793,,162.4292,162.4295,,0,,162.43,162.4303,,0,,1,162.4303,162.4303,162.4307,163.9295,0,31,31,31,1,0.6,0.4,0.6,0.4,1,0,,,,,,,,,,,,,,,,,,,,,,,,,,,,,,,,,,,,
,,607ec7379eac7be04ab448e3,66fc9857d5ad11bba2701e0a,2024-10-02_02h48.51.167,mdp,2024.2.1,Win32,60.24096386,66fa4ebf79326e780c390304,,,,,,,,,,,,,,,,,,,,,163.9299,163.9299,163.9304,164.7303,1,0,right,0.2909,,164.731,164.7313,,1,,164.7316,164.7319,,0,,1,164.7319,164.7319,164.7322,166.2319,0,32,32,32,1,0.6,0.4,0.6,0.4,1,0,,,,,,,,,,,,,,,,,,,,,,,,,,,,,,,,,,,,
,,607ec7379eac7be04ab448e3,66fc9857d5ad11bba2701e0a,2024-10-02_02h48.51.167,mdp,2024.2.1,Win32,60.24096386,66fa4ebf79326e780c390304,,,,,,,,,,,,,,,,,,,,,166.2322,166.2322,166.2328,167.0494,1,0,right,0.3034,,167.0501,167.0505,,1,,167.0508,167.0512,,0,,1,167.0512,167.0512,167.0515,168.5508,0,33,33,33,1,0.4,0.6,0.8,0.2,1,0,,,,,,,,,,,,,,,,,,,,,,,,,,,,,,,,,,,,
,,607ec7379eac7be04ab448e3,66fc9857d5ad11bba2701e0a,2024-10-02_02h48.51.167,mdp,2024.2.1,Win32,60.24096386,66fa4ebf79326e780c390304,,,,,,,,,,,,,,,,,,,,,168.5511,168.5511,168.5517,169.3015,1,0,right,0.238,,169.3021,169.3026,,0,,169.3029,169.3031,,1,,1,169.3032,169.3032,169.3034,170.803,0,34,34,34,1,0.4,0.6,0.8,0.2,1,0,,,,,,,,,,,,,,,,,,,,,,,,,,,,,,,,,,,,
,,607ec7379eac7be04ab448e3,66fc9857d5ad11bba2701e0a,2024-10-02_02h48.51.167,mdp,2024.2.1,Win32,60.24096386,66fa4ebf79326e780c390304,,,,,,,,,,,,,,,,,,,,,170.8033,170.8033,170.8039,171.5705,0,0,left,0.2544,,171.5712,171.5716,,0,,171.572,171.5723,,0,,1,171.5723,171.5723,171.5726,173.0718,0,35,35,35,1,0.6,0.4,0.6,0.4,1,0,,,,,,,,,,,,,,,,,,,,,,,,,,,,,,,,,,,,
,,607ec7379eac7be04ab448e3,66fc9857d5ad11bba2701e0a,2024-10-02_02h48.51.167,mdp,2024.2.1,Win32,60.24096386,66fa4ebf79326e780c390304,,,,,,,,,,,,,,,,,,,,,173.0722,173.0722,173.0727,173.8227,0,0,left,0.2398,,173.8234,173.8238,,1,,173.8242,173.8245,,0,,1,173.8245,173.8245,173.8248,175.3242,0,36,36,36,1,0.6,0.4,0.6,0.4,1,0,,,,,,,,,,,,,,,,,,,,,,,,,,,,,,,,,,,,
,,607ec7379eac7be04ab448e3,66fc9857d5ad11bba2701e0a,2024-10-02_02h48.51.167,mdp,2024.2.1,Win32,60.24096386,66fa4ebf79326e780c390304,,,,,,,,,,,,,,,,,,,,,175.3244,175.3244,175.325,176.1416,1,0,right,0.3107,,176.1423,176.1428,,0,,176.1432,176.1434,,1,,1,176.1435,176.1435,176.1438,177.6431,0,37,37,37,1,0.4,0.6,0.8,0.2,1,0,,,,,,,,,,,,,,,,,,,,,,,,,,,,,,,,,,,,
,,607ec7379eac7be04ab448e3,66fc9857d5ad11bba2701e0a,2024-10-02_02h48.51.167,mdp,2024.2.1,Win32,60.24096386,66fa4ebf79326e780c390304,,,,,,,,,,,,,,,,,,,,,177.6433,177.6433,177.6439,178.3771,1,0,right,0.2272,,178.3778,178.3782,,0,,178.3787,178.3789,,0,,1,178.3789,178.3789,178.3792,179.8787,0,38,38,38,1,0.4,0.6,0.8,0.2,1,0,,,,,,,,,,,,,,,,,,,,,,,,,,,,,,,,,,,,
,,607ec7379eac7be04ab448e3,66fc9857d5ad11bba2701e0a,2024-10-02_02h48.51.167,mdp,2024.2.1,Win32,60.24096386,66fa4ebf79326e780c390304,,,,,,,,,,,,,,,,,,,,,179.8789,179.8789,179.8796,180.6629,1,1,right,0.2674,,180.6637,180.664,,0,,180.6645,180.6648,,0,,0,180.6648,180.6648,180.6651,182.1642,0,39,39,39,1,0.4,0.6,0.8,0.2,1,0,,,,,,,,,,,,,,,,,,,,,,,,,,,,,,,,,,,,
,,607ec7379eac7be04ab448e3,66fc9857d5ad11bba2701e0a,2024-10-02_02h48.51.167,mdp,2024.2.1,Win32,60.24096386,66fa4ebf79326e780c390304,,,,,,,,,,,,,,,,,,,,,182.1645,182.1645,182.1661,182.8816,0,0,left,0.2026,,182.8824,182.8828,,1,,182.8831,182.8834,,0,,1,182.8834,182.8834,182.8837,184.3831,0,40,40,40,1,0.6,0.4,0.2,0.8,1,0,,,,,,,,,,,,,,,,,,,,,,,,,,,,,,,,,,,,
,,607ec7379eac7be04ab448e3,66fc9857d5ad11bba2701e0a,2024-10-02_02h48.51.167,mdp,2024.2.1,Win32,60.24096386,66fa4ebf79326e780c390304,,,,,,,,,,,,,,,,,,,,,184.3834,184.3834,184.384,185.2507,0,1,left,0.3562,,185.2514,185.2518,,1,,185.2522,185.2525,,1,,0,185.2525,185.2525,185.2528,186.7522,0,41,41,41,1,0.6,0.4,0.2,0.8,1,0,,,,,,,,,,,,,,,,,,,,,,,,,,,,,,,,,,,,
,,607ec7379eac7be04ab448e3,66fc9857d5ad11bba2701e0a,2024-10-02_02h48.51.167,mdp,2024.2.1,Win32,60.24096386,66fa4ebf79326e780c390304,,,,,,,,,,,,,,,,,,,,,186.7524,186.7524,186.7531,187.5698,1,1,right,0.3038,,187.5705,187.5709,,1,,187.5712,187.5715,,0,,0,187.5716,187.5716,187.5718,189.0713,0,42,42,42,1,0.6,0.4,0.2,0.8,1,0,,,,,,,,,,,,,,,,,,,,,,,,,,,,,,,,,,,,
,,607ec7379eac7be04ab448e3,66fc9857d5ad11bba2701e0a,2024-10-02_02h48.51.167,mdp,2024.2.1,Win32,60.24096386,66fa4ebf79326e780c390304,,,,,,,,,,,,,,,,,,,,,189.0716,189.0716,189.0725,190.2057,1,0,right,0.6292,,190.2064,190.2069,,1,,190.2073,190.2075,,1,,1,190.2076,190.2076,190.2078,191.707,0,43,43,43,1,0.6,0.4,0.2,0.8,1,0,,,,,,,,,,,,,,,,,,,,,,,,,,,,,,,,,,,,
,,607ec7379eac7be04ab448e3,66fc9857d5ad11bba2701e0a,2024-10-02_02h48.51.167,mdp,2024.2.1,Win32,60.24096386,66fa4ebf79326e780c390304,,,,,,,,,,,,,,,,,,,,,191.7073,191.7074,191.7079,193.7425,1,1,right,1.5208,,193.7431,193.7436,,1,,193.7439,193.7443,,1,,0,193.7443,193.7443,193.7446,195.2439,0,44,44,44,1,0.6,0.4,0.2,0.8,1,0,,,,,,,,,,,,,,,,,,,,,,,,,,,,,,,,,,,,
,,607ec7379eac7be04ab448e3,66fc9857d5ad11bba2701e0a,2024-10-02_02h48.51.167,mdp,2024.2.1,Win32,60.24096386,66fa4ebf79326e780c390304,,,,,,,,,,,,,,,,,,,,,195.2441,195.2441,195.2447,196.2616,0,0,left,0.5097,,196.2624,196.2628,,0,,196.2631,196.2634,,0,,1,196.2634,196.2634,196.2638,197.7631,0,45,45,45,1,0.8,0.2,0.8,0.2,1,0,,,,,,,,,,,,,,,,,,,,,,,,,,,,,,,,,,,,
,,607ec7379eac7be04ab448e3,66fc9857d5ad11bba2701e0a,2024-10-02_02h48.51.167,mdp,2024.2.1,Win32,60.24096386,66fa4ebf79326e780c390304,,,,,,,,,,,,,,,,,,,,,197.7634,197.7634,197.7639,198.7975,1,0,right,0.5232,,198.7982,198.7986,,0,,198.7988,198.7991,,1,,1,198.7991,198.7991,198.7994,200.2989,0,46,46,46,1,0.8,0.2,0.8,0.2,1,0,,,,,,,,,,,,,,,,,,,,,,,,,,,,,,,,,,,,
,,607ec7379eac7be04ab448e3,66fc9857d5ad11bba2701e0a,2024-10-02_02h48.51.167,mdp,2024.2.1,Win32,60.24096386,66fa4ebf79326e780c390304,,,,,,,,,,,,,,,,,,,,,200.2993,200.2993,200.2998,201.0997,1,1,right,0.2936,,201.1004,201.1007,,0,,201.101,201.1012,,0,,0,201.1012,201.1012,201.1015,202.6013,0,47,47,47,1,0.8,0.2,0.8,0.2,1,0,,,,,,,,,,,,,,,,,,,,,,,,,,,,,,,,,,,,
,,607ec7379eac7be04ab448e3,66fc9857d5ad11bba2701e0a,2024-10-02_02h48.51.167,mdp,2024.2.1,Win32,60.24096386,66fa4ebf79326e780c390304,,,,,,,,,,,,,,,,,,,,,202.6015,202.6016,202.6021,203.4187,1,0,right,0.3066,,203.4194,203.4197,,0,,203.4201,203.4204,,1,,1,203.4204,203.4204,203.4207,204.9203,0,48,48,48,1,0.6,0.4,0.4,0.6,1,0,,,,,,,,,,,,,,,,,,,,,,,,,,,,,,,,,,,,
,,607ec7379eac7be04ab448e3,66fc9857d5ad11bba2701e0a,2024-10-02_02h48.51.167,mdp,2024.2.1,Win32,60.24096386,66fa4ebf79326e780c390304,,,,,,,,,,,,,,,,,,,,,204.9207,204.9207,204.9213,206.4551,1,1,right,1.0321,,206.4557,206.4561,,1,,206.4564,206.4566,,0,,0,206.4566,206.4566,206.4569,207.9565,0,49,49,49,1,0.6,0.4,0.4,0.6,1,0,,,,,,,,,,,,,,,,,,,,,,,,,,,,,,,,,,,,
,,607ec7379eac7be04ab448e3,66fc9857d5ad11bba2701e0a,2024-10-02_02h48.51.167,mdp,2024.2.1,Win32,60.24096386,66fa4ebf79326e780c390304,,,,,,,,,,,,,,,,,,,,,,,,,,,,,,,,,,,,,,,,,,,,,,,,,,,,,,,,207.9568,266.465,0,0,0,6,1,imgs/rabbit.png,imgs/elephant.png,imgs/kangaroo.png,imgs/horse.png,imgs/goat.png,,,,,,,,,,,,,,,,,,,,,,,,
,,607ec7379eac7be04ab448e3,66fc9857d5ad11bba2701e0a,2024-10-02_02h48.51.167,mdp,2024.2.1,Win32,60.24096386,66fa4ebf79326e780c390304,,,,,,,,,,,,,,2,seqs/st2seq25.csv,266.4664,268.917,space,1.9333,,268.9203,268.9203,268.9209,269.8681,1,1,right,0.4153,,269.8689,271.5864,1,1,right,271.5871,271.5874,,0,,0,271.5875,271.5875,271.5879,273.0879,0,0,0,0,1,0.6,0.4,0.4,0.6,,,,,,,,,,,,,,,1.1974,,0.2,0.8,0.8,0.2,0.4,0.6,0.8,0.2,1,0,,,,,,,,,,,,
,,607ec7379eac7be04ab448e3,66fc9857d5ad11bba2701e0a,2024-10-02_02h48.51.167,mdp,2024.2.1,Win32,60.24096386,66fa4ebf79326e780c390304,,,,,,,,,,,,,,,,,,,,,273.0883,273.0883,273.0889,273.9888,1,0,right,0.3679,,273.9897,275.007,0,1,left,275.0081,275.0086,,1,,0,275.0086,275.0086,275.0091,276.5082,0,1,1,1,1,0.6,0.4,0.4,0.6,,,,,,,,,,,,,,,0.5016,,0.2,0.8,0.8,0.2,0.4,0.6,0.8,0.2,1,0,,,,,,,,,,,,
,,607ec7379eac7be04ab448e3,66fc9857d5ad11bba2701e0a,2024-10-02_02h48.51.167,mdp,2024.2.1,Win32,60.24096386,66fa4ebf79326e780c390304,,,,,,,,,,,,,,,,,,,,,276.5085,276.5085,276.5092,277.6091,1,0,right,0.5754,,277.6099,278.6435,1,0,right,278.6441,278.6445,,1,,1,278.6446,278.6446,278.6449,280.145,0,2,2,2,1,0.8,0.2,0.8,0.2,,,,,,,,,,,,,,,0.5286,,0.2,0.8,0.8,0.2,0.4,0.6,0.8,0.2,1,0,,,,,,,,,,,,
,,607ec7379eac7be04ab448e3,66fc9857d5ad11bba2701e0a,2024-10-02_02h48.51.167,mdp,2024.2.1,Win32,60.24096386,66fa4ebf79326e780c390304,,,,,,,,,,,,,,,,,,,,,280.1453,280.1453,280.146,281.0464,1,0,right,0.3751,,281.0473,282.3305,1,0,right,282.3312,282.3317,,0,,1,282.3317,282.3317,282.332,283.8319,0,3,3,3,1,0.8,0.2,0.8,0.2,,,,,,,,,,,,,,,0.7507,,0.2,0.8,0.8,0.2,0.4,0.6,0.8,0.2,1,0,,,,,,,,,,,,
,,607ec7379eac7be04ab448e3,66fc9857d5ad11bba2701e0a,2024-10-02_02h48.51.167,mdp,2024.2.1,Win32,60.24096386,66fa4ebf79326e780c390304,,,,,,,,,,,,,,,,,,,,,283.8323,283.8323,283.8329,284.75,1,0,right,0.4052,,284.7506,285.9007,1,0,right,285.9014,285.9017,,0,,1,285.9018,285.9018,285.9021,287.4021,0,4,4,4,1,0.8,0.2,0.8,0.2,,,,,,,,,,,,,,,0.6167,,0.2,0.8,0.8,0.2,0.4,0.6,0.8,0.2,1,0,,,,,,,,,,,,
,,607ec7379eac7be04ab448e3,66fc9857d5ad11bba2701e0a,2024-10-02_02h48.51.167,mdp,2024.2.1,Win32,60.24096386,66fa4ebf79326e780c390304,,,,,,,,,,,,,,,,,,,,,287.4024,287.4024,287.403,288.6033,1,1,right,0.6908,,288.604,290.0715,0,1,left,290.0723,290.0727,,1,,0,290.0728,290.0728,290.0732,291.573,0,5,5,5,1,0.8,0.2,0.8,0.2,,,,,,,,,,,,,,,0.9556,,0.2,0.8,0.8,0.2,0.4,0.6,0.8,0.2,1,0,,,,,,,,,,,,
,,607ec7379eac7be04ab448e3,66fc9857d5ad11bba2701e0a,2024-10-02_02h48.51.167,mdp,2024.2.1,Win32,60.24096386,66fa4ebf79326e780c390304,,,,,,,,,,,,,,,,,,,,,291.5732,291.5732,291.5739,292.6573,1,0,right,0.5806,,292.6581,293.7585,1,0,right,293.7592,293.7596,,0,,1,293.7596,293.7596,293.76,295.2599,0,6,6,6,1,0.8,0.2,0.8,0.2,,,,,,,,,,,,,,,0.5912,,0.2,0.8,0.8,0.2,0.4,0.6,0.8,0.2,1,0,,,,,,,,,,,,
,,607ec7379eac7be04ab448e3,66fc9857d5ad11bba2701e0a,2024-10-02_02h48.51.167,mdp,2024.2.1,Win32,60.24096386,66fa4ebf79326e780c390304,,,,,,,,,,,,,,,,,,,,,295.2602,295.2602,295.2608,296.128,1,0,right,0.3503,,296.1292,297.3454,1,1,right,297.346,297.3464,,0,,0,297.3465,297.3465,297.3468,298.8467,0,7,7,7,1,0.8,0.2,0.8,0.2,,,,,,,,,,,,,,,0.7,,0.2,0.8,0.8,0.2,0.4,0.6,0.8,0.2,1,0,,,,,,,,,,,,
,,607ec7379eac7be04ab448e3,66fc9857d5ad11bba2701e0a,2024-10-02_02h48.51.167,mdp,2024.2.1,Win32,60.24096386,66fa4ebf79326e780c390304,,,,,,,,,,,,,,,,,,,,,298.847,298.847,298.8476,299.8312,1,1,right,0.4735,,299.8317,301.0492,0,0,left,301.05,301.0504,,1,,1,301.0504,301.0504,301.0508,302.5503,0,8,8,8,1,0.8,0.2,0.8,0.2,,,,,,,,,,,,,,,0.7016,,0.2,0.8,0.8,0.2,0.4,0.6,0.8,0.2,1,0,,,,,,,,,,,,
,,607ec7379eac7be04ab448e3,66fc9857d5ad11bba2701e0a,2024-10-02_02h48.51.167,mdp,2024.2.1,Win32,60.24096386,66fa4ebf79326e780c390304,,,,,,,,,,,,,,,,,,,,,302.5506,302.5506,302.5512,303.4015,1,0,right,0.3341,,303.4021,304.8527,1,0,right,304.8535,304.8538,,0,,1,304.8538,304.8538,304.8542,306.3542,0,9,9,9,1,0.8,0.2,0.8,0.2,,,,,,,,,,,,,,,0.9431,,0.2,0.8,0.8,0.2,0.4,0.6,0.8,0.2,1,0,,,,,,,,,,,,
,,607ec7379eac7be04ab448e3,66fc9857d5ad11bba2701e0a,2024-10-02_02h48.51.167,mdp,2024.2.1,Win32,60.24096386,66fa4ebf79326e780c390304,,,,,,,,,,,,,,,,,,,,,306.3545,306.3545,306.3551,307.1383,1,0,right,0.2788,,307.1391,308.1729,1,0,right,308.1736,308.1743,,0,,1,308.1743,308.1743,308.1752,309.6745,0,10,10,10,1,0.8,0.2,0.8,0.2,,,,,,,,,,,,,,,0.5165,,0.2,0.8,0.8,0.2,0.4,0.6,0.8,0.2,1,0,,,,,,,,,,,,
,,607ec7379eac7be04ab448e3,66fc9857d5ad11bba2701e0a,2024-10-02_02h48.51.167,mdp,2024.2.1,Win32,60.24096386,66fa4ebf79326e780c390304,,,,,,,,,,,,,,,,,,,,,309.6748,309.6748,309.6756,310.5418,1,0,right,0.3428,,310.5425,311.743,0,1,left,311.7436,311.744,,1,,0,311.744,311.744,311.7444,313.2445,0,11,11,11,1,0.8,0.2,0.8,0.2,,,,,,,,,,,,,,,0.6893,,0.2,0.8,0.8,0.2,0.4,0.6,0.8,0.2,1,0,,,,,,,,,,,,
,,607ec7379eac7be04ab448e3,66fc9857d5ad11bba2701e0a,2024-10-02_02h48.51.167,mdp,2024.2.1,Win32,60.24096386,66fa4ebf79326e780c390304,,,,,,,,,,,,,,,,,,,,,313.2448,313.2448,313.2453,314.1288,1,0,right,0.3729,,314.1294,315.1965,1,0,right,315.1972,315.1975,,0,,1,315.1976,315.1976,315.1979,316.6977,0,12,12,12,1,0.2,0.8,0.6,0.4,,,,,,,,,,,,,,,0.5494,,0.2,0.8,0.8,0.2,0.4,0.6,0.8,0.2,1,0,,,,,,,,,,,,
,,607ec7379eac7be04ab448e3,66fc9857d5ad11bba2701e0a,2024-10-02_02h48.51.167,mdp,2024.2.1,Win32,60.24096386,66fa4ebf79326e780c390304,,,,,,,,,,,,,,,,,,,,,316.6981,316.6981,316.6986,317.5155,0,1,left,0.3121,,317.5162,318.8501,1,0,right,318.8507,318.8511,,0,,1,318.8511,318.8511,318.8513,320.3514,0,13,13,13,1,0.2,0.8,0.6,0.4,,,,,,,,,,,,,,,0.8208,,0.2,0.8,0.8,0.2,0.4,0.6,0.8,0.2,1,0,,,,,,,,,,,,
,,607ec7379eac7be04ab448e3,66fc9857d5ad11bba2701e0a,2024-10-02_02h48.51.167,mdp,2024.2.1,Win32,60.24096386,66fa4ebf79326e780c390304,,,,,,,,,,,,,,,,,,,,,320.3517,320.3517,320.3522,321.1523,0,0,left,0.2855,,321.153,322.4201,1,0,right,322.4208,322.4211,,0,,1,322.4212,322.4212,322.4216,323.9216,0,14,14,14,1,0.2,0.8,0.6,0.4,,,,,,,,,,,,,,,0.7495,,0.2,0.8,0.8,0.2,0.4,0.6,0.8,0.2,1,0,,,,,,,,,,,,
,,607ec7379eac7be04ab448e3,66fc9857d5ad11bba2701e0a,2024-10-02_02h48.51.167,mdp,2024.2.1,Win32,60.24096386,66fa4ebf79326e780c390304,,,,,,,,,,,,,,,,,,,,,323.9218,323.9218,323.9226,324.6892,0,0,left,0.2586,,324.6899,325.7573,1,0,right,325.7586,325.7594,,1,,1,325.7596,325.7596,325.7607,327.2586,0,15,15,15,1,0.2,0.8,0.6,0.4,,,,,,,,,,,,,,,0.5621,,0.2,0.8,0.8,0.2,0.4,0.6,0.8,0.2,1,0,,,,,,,,,,,,
,,607ec7379eac7be04ab448e3,66fc9857d5ad11bba2701e0a,2024-10-02_02h48.51.167,mdp,2024.2.1,Win32,60.24096386,66fa4ebf79326e780c390304,,,,,,,,,,,,,,,,,,,,,327.2589,327.259,327.2602,328.1426,1,1,right,0.3769,,328.1433,329.1436,0,1,left,329.1443,329.1446,,1,,0,329.1447,329.1447,329.145,330.645,0,16,16,16,1,0.2,0.8,0.6,0.4,,,,,,,,,,,,,,,0.4781,,0.2,0.8,0.8,0.2,0.4,0.6,0.8,0.2,1,0,,,,,,,,,,,,
,,607ec7379eac7be04ab448e3,66fc9857d5ad11bba2701e0a,2024-10-02_02h48.51.167,mdp,2024.2.1,Win32,60.24096386,66fa4ebf79326e780c390304,,,,,,,,,,,,,,,,,,,,,330.6452,330.6452,330.6458,331.4125,1,0,right,0.2566,,331.4131,332.23,1,0,right,332.2306,332.2309,,0,,1,332.231,332.231,332.2313,333.7314,0,17,17,17,1,0.2,0.8,0.6,0.4,,,,,,,,,,,,,,,0.2994,,0.2,0.8,0.8,0.2,0.4,0.6,0.8,0.2,1,0,,,,,,,,,,,,
,,607ec7379eac7be04ab448e3,66fc9857d5ad11bba2701e0a,2024-10-02_02h48.51.167,mdp,2024.2.1,Win32,60.24096386,66fa4ebf79326e780c390304,,,,,,,,,,,,,,,,,,,,,333.7317,333.7317,333.7323,334.9159,1,0,right,0.6683,,334.9166,335.8335,1,0,right,335.8341,335.8345,,0,,1,335.8345,335.8345,335.8348,337.335,0,18,18,18,1,0.2,0.8,0.6,0.4,,,,,,,,,,,,,,,0.4138,,0.2,0.8,0.8,0.2,0.4,0.6,0.8,0.2,1,0,,,,,,,,,,,,
,,607ec7379eac7be04ab448e3,66fc9857d5ad11bba2701e0a,2024-10-02_02h48.51.167,mdp,2024.2.1,Win32,60.24096386,66fa4ebf79326e780c390304,,,,,,,,,,,,,,,,,,,,,337.3353,337.3353,337.3358,338.2859,1,0,right,0.4386,,338.2867,339.8541,0,1,left,339.8547,339.8551,,1,,0,339.8551,339.8551,339.8555,341.3557,0,19,19,19,1,0.2,0.8,0.6,0.4,,,,,,,,,,,,,,,1.0574,,0.2,0.8,0.8,0.2,0.4,0.6,0.8,0.2,1,0,,,,,,,,,,,,
,,607ec7379eac7be04ab448e3,66fc9857d5ad11bba2701e0a,2024-10-02_02h48.51.167,mdp,2024.2.1,Win32,60.24096386,66fa4ebf79326e780c390304,,,,,,,,,,,,,,,,,,,,,341.356,341.356,341.3566,341.973,1,1,right,0.1058,,341.9735,343.0242,1,0,right,343.0248,343.0252,,0,,1,343.0252,343.0252,343.0255,344.5254,0,20,20,20,1,0.2,0.8,0.6,0.4,,,,,,,,,,,,,,,0.5266,,0.2,0.8,0.8,0.2,0.4,0.6,0.8,0.2,1,0,,,,,,,,,,,,
,,607ec7379eac7be04ab448e3,66fc9857d5ad11bba2701e0a,2024-10-02_02h48.51.167,mdp,2024.2.1,Win32,60.24096386,66fa4ebf79326e780c390304,,,,,,,,,,,,,,,,,,,,,344.5257,344.5257,344.5263,345.1264,1,1,right,0.0862,,345.1271,345.71,1,0,right,345.7105,345.711,,0,,1,345.711,345.711,345.7114,347.2114,0,21,21,21,1,0.2,0.8,0.6,0.4,,,,,,,,,,,,,,,0.0681,,0.2,0.8,0.8,0.2,0.4,0.6,0.8,0.2,1,0,,,,,,,,,,,,
,,607ec7379eac7be04ab448e3,66fc9857d5ad11bba2701e0a,2024-10-02_02h48.51.167,mdp,2024.2.1,Win32,60.24096386,66fa4ebf79326e780c390304,,,,,,,,,,,,,,,,,,,,,347.2116,347.2116,347.2123,347.9957,1,1,right,0.2755,,347.9964,348.8965,1,0,right,348.8973,348.8977,,0,,1,348.8977,348.8977,348.8979,350.3986,0,22,22,22,1,0.2,0.8,0.6,0.4,,,,,,,,,,,,,,,0.3964,,0.4,0.6,0.2,0.8,0.4,0.6,0.8,0.2,1,0,,,,,,,,,,,,
,,607ec7379eac7be04ab448e3,66fc9857d5ad11bba2701e0a,2024-10-02_02h48.51.167,mdp,2024.2.1,Win32,60.24096386,66fa4ebf79326e780c390304,,,,,,,,,,,,,,,,,,,,,350.3992,350.3992,350.4002,351.0987,1,0,right,0.1748,,351.0993,351.7493,1,1,right,351.7499,351.7503,,1,,0,351.7503,351.7503,351.7507,353.2507,0,23,23,23,1,0.2,0.8,0.6,0.4,,,,,,,,,,,,,,,0.1412,,0.4,0.6,0.2,0.8,0.4,0.6,0.8,0.2,1,0,,,,,,,,,,,,
,,607ec7379eac7be04ab448e3,66fc9857d5ad11bba2701e0a,2024-10-02_02h48.51.167,mdp,2024.2.1,Win32,60.24096386,66fa4ebf79326e780c390304,,,,,,,,,,,,,,,,,,,,,353.251,353.251,353.2516,355.1862,1,0,right,1.4217,,355.1869,355.7533,0,0,left,355.7539,355.7543,,1,,1,355.7543,355.7543,355.7546,357.2547,0,24,24,24,1,0.2,0.8,0.6,0.4,,,,,,,,,,,,,,,0.0514,,0.4,0.6,0.2,0.8,0.4,0.6,0.8,0.2,1,0,,,,,,,,,,,,
,,607ec7379eac7be04ab448e3,66fc9857d5ad11bba2701e0a,2024-10-02_02h48.51.167,mdp,2024.2.1,Win32,60.24096386,66fa4ebf79326e780c390304,,,,,,,,,,,,,,,,,,,,,357.2551,357.2551,357.2556,357.9889,1,0,right,0.2231,,357.9896,358.9564,0,1,left,358.957,358.9574,,1,,0,358.9574,358.9574,358.9577,360.4579,0,25,25,25,1,0.2,0.8,0.6,0.4,,,,,,,,,,,,,,,0.4585,,0.4,0.6,0.2,0.8,0.4,0.6,0.8,0.2,1,0,,,,,,,,,,,,
,,607ec7379eac7be04ab448e3,66fc9857d5ad11bba2701e0a,2024-10-02_02h48.51.167,mdp,2024.2.1,Win32,60.24096386,66fa4ebf79326e780c390304,,,,,,,,,,,,,,,,,,,,,360.4581,360.4581,360.4587,361.2088,1,1,right,0.2373,,361.2095,362.0429,1,0,right,362.0436,362.044,,0,,1,362.0441,362.0441,362.0445,363.5443,0,26,26,26,1,0.2,0.8,0.6,0.4,,,,,,,,,,,,,,,0.3142,,0.4,0.6,0.2,0.8,0.4,0.6,0.8,0.2,1,0,,,,,,,,,,,,
,,607ec7379eac7be04ab448e3,66fc9857d5ad11bba2701e0a,2024-10-02_02h48.51.167,mdp,2024.2.1,Win32,60.24096386,66fa4ebf79326e780c390304,,,,,,,,,,,,,,,,,,,,,363.5445,363.5446,363.5452,364.3118,1,0,right,0.2578,,364.3125,365.1125,0,1,left,365.1132,365.1135,,0,,0,365.1136,365.1136,365.1139,366.6141,0,27,27,27,1,0.2,0.8,0.6,0.4,,,,,,,,,,,,,,,0.2826,,0.4,0.6,0.2,0.8,0.4,0.6,0.8,0.2,1,0,,,,,,,,,,,,
,,607ec7379eac7be04ab448e3,66fc9857d5ad11bba2701e0a,2024-10-02_02h48.51.167,mdp,2024.2.1,Win32,60.24096386,66fa4ebf79326e780c390304,,,,,,,,,,,,,,,,,,,,,366.6143,366.6143,366.615,367.565,1,0,right,0.4418,,367.5657,368.516,1,1,right,368.5167,368.5171,,1,,0,368.5171,368.5171,368.5174,370.0173,0,28,28,28,1,0.2,0.8,0.6,0.4,,,,,,,,,,,,,,,0.4386,,0.4,0.6,0.2,0.8,0.4,0.6,0.8,0.2,1,0,,,,,,,,,,,,
,,607ec7379eac7be04ab448e3,66fc9857d5ad11bba2701e0a,2024-10-02_02h48.51.167,mdp,2024.2.1,Win32,60.24096386,66fa4ebf79326e780c390304,,,,,,,,,,,,,,,,,,,,,370.0176,370.0176,370.0182,370.8016,1,1,right,0.2671,,370.8022,371.619,1,1,right,371.6197,371.6201,,0,,0,371.6201,371.6201,371.6205,373.1203,0,29,29,29,1,0.2,0.8,0.6,0.4,,,,,,,,,,,,,,,0.3092,,0.4,0.6,0.2,0.8,0.4,0.6,0.8,0.2,1,0,,,,,,,,,,,,
,,607ec7379eac7be04ab448e3,66fc9857d5ad11bba2701e0a,2024-10-02_02h48.51.167,mdp,2024.2.1,Win32,60.24096386,66fa4ebf79326e780c390304,,,,,,,,,,,,,,,,,,,,,373.1206,373.1206,373.1212,373.9379,1,0,right,0.3145,,373.9386,374.8889,1,1,right,374.8895,374.8899,,0,,0,374.8899,374.8899,374.8902,376.3904,0,30,30,30,1,0.2,0.8,0.6,0.4,,,,,,,,,,,,,,,0.4417,,0.4,0.6,0.2,0.8,0.4,0.6,0.8,0.2,1,0,,,,,,,,,,,,
,,607ec7379eac7be04ab448e3,66fc9857d5ad11bba2701e0a,2024-10-02_02h48.51.167,mdp,2024.2.1,Win32,60.24096386,66fa4ebf79326e780c390304,,,,,,,,,,,,,,,,,,,,,376.3906,376.3906,376.3912,377.2246,1,0,right,0.3263,,377.2252,377.8918,0,1,left,377.8925,377.8929,,0,,0,377.8929,377.8929,377.8931,379.3933,0,31,31,31,1,0.2,0.8,0.6,0.4,,,,,,,,,,,,,,,0.1478,,0.4,0.6,0.2,0.8,0.4,0.6,0.8,0.2,1,0,,,,,,,,,,,,
,,607ec7379eac7be04ab448e3,66fc9857d5ad11bba2701e0a,2024-10-02_02h48.51.167,mdp,2024.2.1,Win32,60.24096386,66fa4ebf79326e780c390304,,,,,,,,,,,,,,,,,,,,,379.3936,379.3936,379.3942,380.1608,0,0,left,0.2531,,380.1615,380.995,1,0,right,380.9957,380.996,,1,,1,380.9961,380.9961,380.9964,382.4965,0,32,32,32,1,0.6,0.4,0.4,0.6,,,,,,,,,,,,,,,0.3243,,0.4,0.6,0.2,0.8,0.4,0.6,0.8,0.2,1,0,,,,,,,,,,,,
,,607ec7379eac7be04ab448e3,66fc9857d5ad11bba2701e0a,2024-10-02_02h48.51.167,mdp,2024.2.1,Win32,60.24096386,66fa4ebf79326e780c390304,,,,,,,,,,,,,,,,,,,,,382.4968,382.4968,382.4973,383.2972,0,0,left,0.287,,383.2978,384.2648,1,1,right,384.2656,384.266,,0,,0,384.266,384.266,384.2664,385.7662,0,33,33,33,1,0.6,0.4,0.4,0.6,,,,,,,,,,,,,,,0.4587,,0.8,0.2,0.6,0.4,0.4,0.6,0.8,0.2,1,0,,,,,,,,,,,,
,,607ec7379eac7be04ab448e3,66fc9857d5ad11bba2701e0a,2024-10-02_02h48.51.167,mdp,2024.2.1,Win32,60.24096386,66fa4ebf79326e780c390304,,,,,,,,,,,,,,,,,,,,,385.7665,385.7665,385.7671,386.5339,0,0,left,0.2528,,386.5346,387.535,0,0,left,387.5355,387.5359,,0,,1,387.5359,387.5359,387.5361,389.0365,0,34,34,34,1,0.6,0.4,0.4,0.6,,,,,,,,,,,,,,,0.486,,0.8,0.2,0.6,0.4,0.4,0.6,0.8,0.2,1,0,,,,,,,,,,,,
,,607ec7379eac7be04ab448e3,66fc9857d5ad11bba2701e0a,2024-10-02_02h48.51.167,mdp,2024.2.1,Win32,60.24096386,66fa4ebf79326e780c390304,,,,,,,,,,,,,,,,,,,,,389.0368,389.0368,389.0375,389.8703,1,1,right,0.304,,389.871,391.0215,0,1,left,391.0222,391.0226,,1,,0,391.0226,391.0226,391.023,392.523,0,35,35,35,1,0.6,0.4,0.4,0.6,,,,,,,,,,,,,,,0.6422,,0.8,0.2,0.6,0.4,0.4,0.6,0.8,0.2,1,0,,,,,,,,,,,,
,,607ec7379eac7be04ab448e3,66fc9857d5ad11bba2701e0a,2024-10-02_02h48.51.167,mdp,2024.2.1,Win32,60.24096386,66fa4ebf79326e780c390304,,,,,,,,,,,,,,,,,,,,,392.5233,392.5233,392.5238,393.1737,1,0,right,0.1429,,393.1743,394.2247,1,0,right,394.2253,394.2257,,0,,1,394.2257,394.2257,394.2261,395.7261,0,36,36,36,1,0.6,0.4,0.4,0.6,,,,,,,,,,,,,,,0.5357,,0.8,0.2,0.6,0.4,0.4,0.6,0.8,0.2,1,0,,,,,,,,,,,,
,,607ec7379eac7be04ab448e3,66fc9857d5ad11bba2701e0a,2024-10-02_02h48.51.167,mdp,2024.2.1,Win32,60.24096386,66fa4ebf79326e780c390304,,,,,,,,,,,,,,,,,,,,,395.7264,395.7264,395.727,396.5604,0,0,left,0.3269,,396.5609,398.1454,0,0,left,398.1461,398.1465,,0,,1,398.1465,398.1465,398.1468,399.6467,0,37,37,37,1,0.6,0.4,0.4,0.6,,,,,,,,,,,,,,,1.0698,,0.8,0.2,0.6,0.4,0.4,0.6,0.8,0.2,1,0,,,,,,,,,,,,
,,607ec7379eac7be04ab448e3,66fc9857d5ad11bba2701e0a,2024-10-02_02h48.51.167,mdp,2024.2.1,Win32,60.24096386,66fa4ebf79326e780c390304,,,,,,,,,,,,,,,,,,,,,399.6471,399.6471,399.6478,400.4475,1,1,right,0.2923,,400.4482,401.5822,0,1,left,401.5829,401.5834,,0,,0,401.5834,401.5834,401.5837,403.0834,0,38,38,38,1,0.6,0.4,0.4,0.6,,,,,,,,,,,,,,,0.6126,,0.8,0.2,0.6,0.4,0.4,0.6,0.8,0.2,1,0,,,,,,,,,,,,
,,607ec7379eac7be04ab448e3,66fc9857d5ad11bba2701e0a,2024-10-02_02h48.51.167,mdp,2024.2.1,Win32,60.24096386,66fa4ebf79326e780c390304,,,,,,,,,,,,,,,,,,,,,403.0836,403.0836,403.0842,404.8519,1,1,right,1.256,,404.8525,406.0698,1,0,right,406.0705,406.0708,,0,,1,406.0709,406.0709,406.0713,407.5714,0,39,39,39,1,0.6,0.4,0.4,0.6,,,,,,,,,,,,,,,0.7008,,0.8,0.2,0.6,0.4,0.4,0.6,0.8,0.2,1,0,,,,,,,,,,,,
,,607ec7379eac7be04ab448e3,66fc9857d5ad11bba2701e0a,2024-10-02_02h48.51.167,mdp,2024.2.1,Win32,60.24096386,66fa4ebf79326e780c390304,,,,,,,,,,,,,,,,,,,,,407.5717,407.5717,407.5722,408.5222,1,0,right,0.4288,,408.5229,409.3231,0,0,left,409.3238,409.3242,,1,,1,409.3243,409.3243,409.3246,410.8246,0,40,40,40,1,0.6,0.4,0.4,0.6,,,,,,,,,,,,,,,0.2842,,0.8,0.2,0.6,0.4,0.4,0.6,0.8,0.2,1,0,,,,,,,,,,,,
,,607ec7379eac7be04ab448e3,66fc9857d5ad11bba2701e0a,2024-10-02_02h48.51.167,mdp,2024.2.1,Win32,60.24096386,66fa4ebf79326e780c390304,,,,,,,,,,,,,,,,,,,,,410.8248,410.8248,410.8254,411.592,1,0,right,0.2495,,411.5926,412.6931,0,0,left,412.6938,412.6942,,0,,1,412.6942,412.6942,412.6945,414.1945,0,41,41,41,1,0.8,0.2,0.6,0.4,,,,,,,,,,,,,,,0.5885,,0.8,0.2,0.6,0.4,0.4,0.6,0.8,0.2,1,0,,,,,,,,,,,,
,,607ec7379eac7be04ab448e3,66fc9857d5ad11bba2701e0a,2024-10-02_02h48.51.167,mdp,2024.2.1,Win32,60.24096386,66fa4ebf79326e780c390304,,,,,,,,,,,,,,,,,,,,,414.1949,414.1949,414.1954,414.9287,0,0,left,0.2216,,414.9293,415.9801,0,0,left,415.9809,415.9813,,1,,1,415.9813,415.9813,415.9816,417.4813,0,42,42,42,1,0.8,0.2,0.6,0.4,,,,,,,,,,,,,,,0.5348,,0.8,0.2,0.6,0.4,0.4,0.6,0.8,0.2,1,0,,,,,,,,,,,,
,,607ec7379eac7be04ab448e3,66fc9857d5ad11bba2701e0a,2024-10-02_02h48.51.167,mdp,2024.2.1,Win32,60.24096386,66fa4ebf79326e780c390304,,,,,,,,,,,,,,,,,,,,,417.4816,417.4816,417.4822,418.3826,0,0,left,0.3957,,418.3836,419.2332,1,1,right,419.2338,419.2341,,1,,0,419.2342,419.2342,419.2345,420.735,0,43,43,43,1,0.8,0.2,0.6,0.4,,,,,,,,,,,,,,,0.3343,,0.8,0.2,0.6,0.4,0.4,0.6,0.8,0.2,1,0,,,,,,,,,,,,
,,607ec7379eac7be04ab448e3,66fc9857d5ad11bba2701e0a,2024-10-02_02h48.51.167,mdp,2024.2.1,Win32,60.24096386,66fa4ebf79326e780c390304,,,,,,,,,,,,,,,,,,,,,420.7354,420.7355,420.7367,422.2029,0,0,left,0.9385,,422.2035,423.0703,0,0,left,423.071,423.0714,,0,,1,423.0714,423.0714,423.0717,424.5719,0,44,44,44,1,0.8,0.2,0.6,0.4,,,,,,,,,,,,,,,0.3605,,0.8,0.2,0.6,0.4,0.4,0.6,0.8,0.2,1,0,,,,,,,,,,,,
,,607ec7379eac7be04ab448e3,66fc9857d5ad11bba2701e0a,2024-10-02_02h48.51.167,mdp,2024.2.1,Win32,60.24096386,66fa4ebf79326e780c390304,,,,,,,,,,,,,,,,,,,,,424.572,424.572,424.5726,425.3392,1,0,right,0.2549,,425.3399,425.9233,0,1,left,425.9241,425.9244,,1,,0,425.9244,425.9244,425.9247,427.4248,0,45,45,45,1,0.8,0.2,0.6,0.4,,,,,,,,,,,,,,,0.0726,,0.4,0.6,0.8,0.2,0.4,0.6,0.8,0.2,1,0,,,,,,,,,,,,
,,607ec7379eac7be04ab448e3,66fc9857d5ad11bba2701e0a,2024-10-02_02h48.51.167,mdp,2024.2.1,Win32,60.24096386,66fa4ebf79326e780c390304,,,,,,,,,,,,,,,,,,,,,427.425,427.425,427.4256,428.7595,1,1,right,0.8272,,428.7602,429.5938,1,1,right,429.5945,429.5949,,1,,0,429.5949,429.5949,429.5952,431.0951,0,46,46,46,1,0.8,0.2,0.6,0.4,,,,,,,,,,,,,,,0.326,,0.4,0.6,0.8,0.2,0.4,0.6,0.8,0.2,1,0,,,,,,,,,,,,
,,607ec7379eac7be04ab448e3,66fc9857d5ad11bba2701e0a,2024-10-02_02h48.51.167,mdp,2024.2.1,Win32,60.24096386,66fa4ebf79326e780c390304,,,,,,,,,,,,,,,,,,,,,431.0955,431.0955,431.096,431.9961,1,0,right,0.3933,,431.9968,432.8471,0,0,left,432.8478,432.8482,,0,,1,432.8482,432.8482,432.8486,434.3484,0,47,47,47,1,0.8,0.2,0.6,0.4,,,,,,,,,,,,,,,0.336,,0.4,0.6,0.8,0.2,0.4,0.6,0.8,0.2,1,0,,,,,,,,,,,,
,,607ec7379eac7be04ab448e3,66fc9857d5ad11bba2701e0a,2024-10-02_02h48.51.167,mdp,2024.2.1,Win32,60.24096386,66fa4ebf79326e780c390304,,,,,,,,,,,,,,,,,,,,,434.3487,434.3487,434.3492,435.166,1,0,right,0.3095,,435.1666,436.3171,1,0,right,436.3177,436.3181,,0,,1,436.3181,436.3181,436.3185,437.8185,0,48,48,48,1,0.8,0.2,0.6,0.4,,,,,,,,,,,,,,,0.6354,,0.4,0.6,0.8,0.2,0.4,0.6,0.8,0.2,1,0,,,,,,,,,,,,
,,607ec7379eac7be04ab448e3,66fc9857d5ad11bba2701e0a,2024-10-02_02h48.51.167,mdp,2024.2.1,Win32,60.24096386,66fa4ebf79326e780c390304,,,,,,,,,,,,,,,,,,,,,437.8188,437.8188,437.8194,438.8197,1,0,right,0.486,,438.8203,440.0878,1,0,right,440.0884,440.0888,,0,,1,440.0889,440.0889,440.0892,441.5891,0,49,49,49,1,0.8,0.2,0.6,0.4,,,,,,,,,,,,,,,0.7631,,0.4,0.6,0.8,0.2,0.4,0.6,0.8,0.2,1,0,,,,,,,,,,,,
,,607ec7379eac7be04ab448e3,66fc9857d5ad11bba2701e0a,2024-10-02_02h48.51.167,mdp,2024.2.1,Win32,60.24096386,66fa4ebf79326e780c390304,,,,,,,,,,,,,,,,,,,,,,,,,,,,,,,,,,,,,,,,,,,,,,,,,,,,,,,,441.5893,500.0986,0,1,1,5,1,imgs/goat.png,imgs/lion.png,imgs/giraffe.png,imgs/dog.png,imgs/bear.png,,,,,,,,,,,,,,,,,,,,,,,,
,,607ec7379eac7be04ab448e3,66fc9857d5ad11bba2701e0a,2024-10-02_02h48.51.167,mdp,2024.2.1,Win32,60.24096386,66fa4ebf79326e780c390304,,,,,,,,,,,,,,3,seqs/st3seq22.csv,500.0993,506.3217,space,5.7095,,506.3256,506.3256,506.326,507.6899,1,1,right,0.8283,,507.6905,508.4908,1,0,right,508.4915,509.1748,1,1,right,0,509.1749,509.1749,509.1754,510.6765,0,0,0,0,1,0.6,0.4,0.4,0.6,,,,,,,,,,,,,,,0.281,,0.8,0.2,0.6,0.4,0.2,0.8,0.8,0.2,,,0.1646,,0.4,0.6,0.2,0.8,0.8,0.2,0.2,0.8,1,0
,,607ec7379eac7be04ab448e3,66fc9857d5ad11bba2701e0a,2024-10-02_02h48.51.167,mdp,2024.2.1,Win32,60.24096386,66fa4ebf79326e780c390304,,,,,,,,,,,,,,,,,,,,,510.6768,510.6768,510.6773,511.5103,0,1,left,0.3004,,511.5109,513.0453,0,0,left,513.046,513.7625,1,0,right,1,513.7626,513.7626,513.7631,515.2643,0,1,1,1,1,0.6,0.4,0.4,0.6,,,,,,,,,,,,,,,1.0275,,0.8,0.2,0.6,0.4,0.2,0.8,0.8,0.2,,,0.2008,,0.4,0.6,0.2,0.8,0.8,0.2,0.2,0.8,1,0
,,607ec7379eac7be04ab448e3,66fc9857d5ad11bba2701e0a,2024-10-02_02h48.51.167,mdp,2024.2.1,Win32,60.24096386,66fa4ebf79326e780c390304,,,,,,,,,,,,,,,,,,,,,515.2645,515.2645,515.2651,516.3986,0,0,left,0.6083,,516.3993,517.1326,0,0,left,517.1333,517.8334,1,1,right,0,517.8335,517.8335,517.834,519.3349,0,2,2,2,1,0.6,0.4,0.4,0.6,,,,,,,,,,,,,,,0.2135,,0.8,0.2,0.6,0.4,0.2,0.8,0.8,0.2,,,0.1867,,0.4,0.6,0.2,0.8,0.8,0.2,0.2,0.8,1,0
,,607ec7379eac7be04ab448e3,66fc9857d5ad11bba2701e0a,2024-10-02_02h48.51.167,mdp,2024.2.1,Win32,60.24096386,66fa4ebf79326e780c390304,,,,,,,,,,,,,,,,,,,,,519.3352,519.3352,519.3356,520.3025,1,0,right,0.46,,520.3031,521.487,0,0,left,521.4876,522.3881,1,1,right,0,522.3881,522.3881,522.3886,523.8905,0,3,3,3,1,0.6,0.4,0.4,0.6,,,,,,,,,,,,,,,0.6772,,0.8,0.2,0.6,0.4,0.2,0.8,0.8,0.2,,,0.3858,,0.6,0.4,0.6,0.4,0.8,0.2,0.2,0.8,1,0
,,607ec7379eac7be04ab448e3,66fc9857d5ad11bba2701e0a,2024-10-02_02h48.51.167,mdp,2024.2.1,Win32,60.24096386,66fa4ebf79326e780c390304,,,,,,,,,,,,,,,,,,,,,523.8908,523.8908,523.8912,525.4411,0,1,left,1.021,,525.4416,526.7757,0,1,left,526.7763,528.3941,0,0,left,1,528.3941,528.3941,528.3947,529.8958,0,4,4,4,1,0.6,0.4,0.4,0.6,,,,,,,,,,,,,,,0.8188,,0.8,0.2,0.6,0.4,0.2,0.8,0.8,0.2,,,1.1097,,0.6,0.4,0.6,0.4,0.8,0.2,0.2,0.8,1,0
,,607ec7379eac7be04ab448e3,66fc9857d5ad11bba2701e0a,2024-10-02_02h48.51.167,mdp,2024.2.1,Win32,60.24096386,66fa4ebf79326e780c390304,,,,,,,,,,,,,,,,,,,,,529.896,529.896,529.8965,530.7131,1,0,right,0.2839,,530.7137,532.1814,0,0,left,532.182,533.416,0,0,left,1,533.416,533.416,533.4166,534.9174,0,5,5,5,1,0.6,0.4,0.4,0.6,,,,,,,,,,,,,,,0.9482,,0.8,0.2,0.6,0.4,0.2,0.8,0.8,0.2,,,0.7158,,0.6,0.4,0.6,0.4,0.8,0.2,0.2,0.8,1,0
,,607ec7379eac7be04ab448e3,66fc9857d5ad11bba2701e0a,2024-10-02_02h48.51.167,mdp,2024.2.1,Win32,60.24096386,66fa4ebf79326e780c390304,,,,,,,,,,,,,,,,,,,,,534.9178,534.9178,534.9183,535.9518,1,1,right,0.5173,,535.9524,537.0195,0,1,left,537.0201,538.6378,0,0,left,1,538.6378,538.6378,538.6384,540.1396,0,6,6,6,1,0.6,0.4,0.4,0.6,,,,,,,,,,,,,,,0.5542,,0.8,0.2,0.6,0.4,0.2,0.8,0.8,0.2,,,1.1087,,0.6,0.4,0.6,0.4,0.8,0.2,0.2,0.8,1,0
,,607ec7379eac7be04ab448e3,66fc9857d5ad11bba2701e0a,2024-10-02_02h48.51.167,mdp,2024.2.1,Win32,60.24096386,66fa4ebf79326e780c390304,,,,,,,,,,,,,,,,,,,,,540.14,540.14,540.1404,541.007,1,1,right,0.3403,,541.0076,541.8244,0,1,left,541.825,542.692,0,0,left,1,542.692,542.692,542.6925,544.1934,0,7,7,7,1,0.6,0.4,0.4,0.6,,,,,,,,,,,,,,,0.3131,,0.8,0.2,0.6,0.4,0.2,0.8,0.8,0.2,,,0.3624,,0.6,0.4,0.6,0.4,0.8,0.2,0.2,0.8,1,0
,,607ec7379eac7be04ab448e3,66fc9857d5ad11bba2701e0a,2024-10-02_02h48.51.167,mdp,2024.2.1,Win32,60.24096386,66fa4ebf79326e780c390304,,,,,,,,,,,,,,,,,,,,,544.1937,544.1937,544.1941,545.0777,1,0,right,0.3798,,545.0785,545.8953,0,0,left,545.8959,547.0632,1,0,right,1,547.0633,547.0633,547.0638,548.5648,0,8,8,8,1,0.6,0.4,0.4,0.6,,,,,,,,,,,,,,,0.2979,,0.8,0.2,0.6,0.4,0.2,0.8,0.8,0.2,,,0.6475,,0.6,0.4,0.6,0.4,0.8,0.2,0.2,0.8,1,0
,,607ec7379eac7be04ab448e3,66fc9857d5ad11bba2701e0a,2024-10-02_02h48.51.167,mdp,2024.2.1,Win32,60.24096386,66fa4ebf79326e780c390304,,,,,,,,,,,,,,,,,,,,,548.5651,548.5651,548.5656,549.5657,1,0,right,0.4674,,549.5663,550.5501,0,0,left,550.5507,551.7011,1,0,right,1,551.7011,551.7011,551.7017,553.2025,0,9,9,9,1,0.6,0.4,0.4,0.6,,,,,,,,,,,,,,,0.4676,,0.8,0.2,0.6,0.4,0.2,0.8,0.8,0.2,,,0.6476,,0.6,0.4,0.6,0.4,0.8,0.2,0.2,0.8,1,0
,,607ec7379eac7be04ab448e3,66fc9857d5ad11bba2701e0a,2024-10-02_02h48.51.167,mdp,2024.2.1,Win32,60.24096386,66fa4ebf79326e780c390304,,,,,,,,,,,,,,,,,,,,,553.2028,553.2028,553.2033,554.187,1,0,right,0.4757,,554.1875,555.2714,0,0,left,555.2721,556.306,1,0,right,1,556.306,556.306,556.3065,557.8074,0,10,10,10,1,0.6,0.4,0.4,0.6,,,,,,,,,,,,,,,0.5735,,0.8,0.2,0.6,0.4,0.2,0.8,0.8,0.2,,,0.5191,,0.6,0.4,0.6,0.4,0.8,0.2,0.2,0.8,1,0
,,607ec7379eac7be04ab448e3,66fc9857d5ad11bba2701e0a,2024-10-02_02h48.51.167,mdp,2024.2.1,Win32,60.24096386,66fa4ebf79326e780c390304,,,,,,,,,,,,,,,,,,,,,557.8077,557.8077,557.8081,558.725,1,0,right,0.4057,,558.7256,559.4925,0,0,left,559.4931,560.627,1,0,right,1,560.627,560.627,560.6276,562.1282,0,11,11,11,1,0.6,0.4,0.4,0.6,,,,,,,,,,,,,,,0.2651,,0.8,0.2,0.6,0.4,0.2,0.8,0.8,0.2,,,0.6196,,0.6,0.4,0.6,0.4,0.8,0.2,0.2,0.8,1,0
,,607ec7379eac7be04ab448e3,66fc9857d5ad11bba2701e0a,2024-10-02_02h48.51.167,mdp,2024.2.1,Win32,60.24096386,66fa4ebf79326e780c390304,,,,,,,,,,,,,,,,,,,,,562.1285,562.1285,562.129,562.946,1,1,right,0.3011,,562.9466,563.78,0,1,left,563.7806,564.6477,1,0,right,1,564.6478,564.6478,564.6483,566.149,0,12,12,12,1,0.4,0.6,0.2,0.8,,,,,,,,,,,,,,,0.3245,,0.8,0.2,0.6,0.4,0.2,0.8,0.8,0.2,,,0.3498,,0.6,0.4,0.6,0.4,0.8,0.2,0.2,0.8,1,0
,,607ec7379eac7be04ab448e3,66fc9857d5ad11bba2701e0a,2024-10-02_02h48.51.167,mdp,2024.2.1,Win32,60.24096386,66fa4ebf79326e780c390304,,,,,,,,,,,,,,,,,,,,,566.1493,566.1493,566.1497,567.0169,1,1,right,0.3636,,567.0175,568.0011,1,0,right,568.0016,568.7185,0,0,left,1,568.7185,568.7185,568.7191,570.22,0,13,13,13,1,0.4,0.6,0.2,0.8,,,,,,,,,,,,,,,0.4742,,0.8,0.2,0.6,0.4,0.2,0.8,0.8,0.2,,,0.207,,0.6,0.4,0.6,0.4,0.8,0.2,0.2,0.8,1,0
,,607ec7379eac7be04ab448e3,66fc9857d5ad11bba2701e0a,2024-10-02_02h48.51.167,mdp,2024.2.1,Win32,60.24096386,66fa4ebf79326e780c390304,,,,,,,,,,,,,,,,,,,,,570.2203,570.2203,570.2208,570.7706,1,1,right,0.0383,,570.7712,571.805,0,1,left,571.8056,573.3068,0,0,left,1,573.3068,573.3068,573.3075,574.808,0,14,14,14,1,0.4,0.6,0.2,0.8,,,,,,,,,,,,,,,0.5229,,0.8,0.2,0.6,0.4,0.4,0.6,0.2,0.8,,,0.9874,,0.6,0.4,0.6,0.4,0.8,0.2,0.2,0.8,1,0
,,607ec7379eac7be04ab448e3,66fc9857d5ad11bba2701e0a,2024-10-02_02h48.51.167,mdp,2024.2.1,Win32,60.24096386,66fa4ebf79326e780c390304,,,,,,,,,,,,,,,,,,,,,574.8083,574.8083,574.8089,575.5254,1,1,right,0.2099,,575.526,576.3265,0,1,left,576.327,577.127,0,0,left,1,577.127,577.1271,577.1276,578.6287,0,15,15,15,1,0.4,0.6,0.2,0.8,,,,,,,,,,,,,,,0.2856,,0.8,0.2,0.6,0.4,0.4,0.6,0.2,0.8,,,0.2847,,0.6,0.4,0.6,0.4,0.8,0.2,0.2,0.8,1,0
,,607ec7379eac7be04ab448e3,66fc9857d5ad11bba2701e0a,2024-10-02_02h48.51.167,mdp,2024.2.1,Win32,60.24096386,66fa4ebf79326e780c390304,,,,,,,,,,,,,,,,,,,,,578.6289,578.6289,578.6294,579.4962,1,1,right,0.358,,579.4968,580.7306,1,1,right,580.7312,581.7149,0,0,left,1,581.7149,581.7149,581.7155,583.2166,0,16,16,16,1,0.4,0.6,0.2,0.8,,,,,,,,,,,,,,,0.7274,,0.8,0.2,0.6,0.4,0.4,0.6,0.2,0.8,,,0.4718,,0.6,0.4,0.6,0.4,0.8,0.2,0.2,0.8,1,0
,,607ec7379eac7be04ab448e3,66fc9857d5ad11bba2701e0a,2024-10-02_02h48.51.167,mdp,2024.2.1,Win32,60.24096386,66fa4ebf79326e780c390304,,,,,,,,,,,,,,,,,,,,,583.2168,583.2168,583.2173,583.9841,1,0,right,0.2552,,583.9847,584.7351,0,0,left,584.7357,586.1361,0,0,left,1,586.1361,586.1361,586.1367,587.6377,0,17,17,17,1,0.2,0.8,0.8,0.2,,,,,,,,,,,,,,,0.2307,,0.8,0.2,0.6,0.4,0.4,0.6,0.2,0.8,,,0.8891,,0.6,0.4,0.6,0.4,0.8,0.2,0.2,0.8,1,0
,,607ec7379eac7be04ab448e3,66fc9857d5ad11bba2701e0a,2024-10-02_02h48.51.167,mdp,2024.2.1,Win32,60.24096386,66fa4ebf79326e780c390304,,,,,,,,,,,,,,,,,,,,,587.638,587.638,587.6385,588.3717,1,0,right,0.2305,,588.3722,589.0057,0,0,left,589.0063,589.84,0,1,left,0,589.84,589.84,589.8406,591.3415,0,18,18,18,1,0.2,0.8,0.8,0.2,,,,,,,,,,,,,,,0.1185,,0.8,0.2,0.6,0.4,0.4,0.6,0.2,0.8,,,0.3236,,0.6,0.4,0.6,0.4,0.8,0.2,0.2,0.8,1,0
,,607ec7379eac7be04ab448e3,66fc9857d5ad11bba2701e0a,2024-10-02_02h48.51.167,mdp,2024.2.1,Win32,60.24096386,66fa4ebf79326e780c390304,,,,,,,,,,,,,,,,,,,,,591.3419,591.3419,591.3425,592.0422,1,0,right,0.189,,592.0427,593.3101,1,0,right,593.3107,594.1278,0,0,left,1,594.1278,594.1278,594.1284,595.6292,0,19,19,19,1,0.2,0.8,0.8,0.2,,,,,,,,,,,,,,,0.7566,,0.8,0.2,0.6,0.4,0.4,0.6,0.2,0.8,,,0.3041,,0.8,0.2,0.8,0.2,0.8,0.2,0.2,0.8,1,0
,,607ec7379eac7be04ab448e3,66fc9857d5ad11bba2701e0a,2024-10-02_02h48.51.167,mdp,2024.2.1,Win32,60.24096386,66fa4ebf79326e780c390304,,,,,,,,,,,,,,,,,,,,,595.6294,595.6294,595.6299,597.5812,1,0,right,1.4381,,597.5818,598.8491,0,0,left,598.8497,600.1671,1,0,right,1,600.1671,600.1671,600.1676,601.6684,0,20,20,20,1,0.2,0.8,0.8,0.2,,,,,,,,,,,,,,,0.7591,,0.8,0.2,0.6,0.4,0.4,0.6,0.2,0.8,,,0.8084,,0.8,0.2,0.8,0.2,0.8,0.2,0.2,0.8,1,0
,,607ec7379eac7be04ab448e3,66fc9857d5ad11bba2701e0a,2024-10-02_02h48.51.167,mdp,2024.2.1,Win32,60.24096386,66fa4ebf79326e780c390304,,,,,,,,,,,,,,,,,,,,,601.6687,601.6687,601.6692,603.1367,0,0,left,0.9543,,603.1373,604.5882,0,0,left,604.5888,605.6559,1,1,right,0,605.6559,605.6559,605.6565,607.1576,0,21,21,21,1,0.2,0.8,0.8,0.2,,,,,,,,,,,,,,,0.9476,,0.8,0.2,0.6,0.4,0.4,0.6,0.2,0.8,,,0.5632,,0.4,0.6,0.2,0.8,0.8,0.2,0.2,0.8,1,0
,,607ec7379eac7be04ab448e3,66fc9857d5ad11bba2701e0a,2024-10-02_02h48.51.167,mdp,2024.2.1,Win32,60.24096386,66fa4ebf79326e780c390304,,,,,,,,,,,,,,,,,,,,,607.1578,607.1578,607.1582,608.1421,0,0,left,0.4704,,608.1427,609.51,0,0,left,609.5106,610.9281,0,0,left,1,610.9282,610.9282,610.9288,612.4296,0,22,22,22,1,0.2,0.8,0.8,0.2,,,,,,,,,,,,,,,0.8537,,0.8,0.2,0.6,0.4,0.4,0.6,0.2,0.8,,,0.9014,,0.4,0.6,0.2,0.8,0.8,0.2,0.2,0.8,1,0
,,607ec7379eac7be04ab448e3,66fc9857d5ad11bba2701e0a,2024-10-02_02h48.51.167,mdp,2024.2.1,Win32,60.24096386,66fa4ebf79326e780c390304,,,,,,,,,,,,,,,,,,,,,612.4298,612.4298,612.4304,613.2303,1,0,right,0.2854,,613.2309,614.1312,0,0,left,614.1318,615.4325,1,1,right,0,615.4325,615.4325,615.4331,616.9343,0,23,23,23,1,0.2,0.8,0.8,0.2,,,,,,,,,,,,,,,0.3928,,0.4,0.6,0.4,0.6,0.4,0.6,0.2,0.8,,,0.7983,,0.4,0.6,0.2,0.8,0.8,0.2,0.2,0.8,1,0
,,607ec7379eac7be04ab448e3,66fc9857d5ad11bba2701e0a,2024-10-02_02h48.51.167,mdp,2024.2.1,Win32,60.24096386,66fa4ebf79326e780c390304,,,,,,,,,,,,,,,,,,,,,616.9346,616.9346,616.9351,617.7852,1,1,right,0.3444,,617.7858,618.686,0,1,left,618.6866,619.6535,0,0,left,1,619.6535,619.6535,619.6541,621.1549,0,24,24,24,1,0.2,0.8,0.8,0.2,,,,,,,,,,,,,,,0.381,,0.4,0.6,0.4,0.6,0.4,0.6,0.2,0.8,,,0.4605,,0.4,0.6,0.2,0.8,0.8,0.2,0.2,0.8,1,0
,,607ec7379eac7be04ab448e3,66fc9857d5ad11bba2701e0a,2024-10-02_02h48.51.167,mdp,2024.2.1,Win32,60.24096386,66fa4ebf79326e780c390304,,,,,,,,,,,,,,,,,,,,,621.1552,621.1552,621.1557,621.9392,1,1,right,0.271,,621.9398,622.8569,0,0,left,622.8574,624.3752,1,0,right,1,624.3752,624.3752,624.3757,625.8765,0,25,25,25,1,0.2,0.8,0.8,0.2,,,,,,,,,,,,,,,0.4109,,0.4,0.6,0.4,0.6,0.4,0.6,0.2,0.8,,,1.0093,,0.4,0.6,0.2,0.8,0.4,0.6,0.6,0.4,1,0
,,607ec7379eac7be04ab448e3,66fc9857d5ad11bba2701e0a,2024-10-02_02h48.51.167,mdp,2024.2.1,Win32,60.24096386,66fa4ebf79326e780c390304,,,,,,,,,,,,,,,,,,,,,625.8768,625.8768,625.8772,626.4771,1,0,right,0.0872,,626.4776,627.7784,0,1,left,627.779,628.7796,1,0,right,1,628.7796,628.7796,628.7803,630.2811,0,26,26,26,1,0.2,0.8,0.8,0.2,,,,,,,,,,,,,,,0.7879,,0.4,0.6,0.4,0.6,0.4,0.6,0.2,0.8,,,0.488,,0.4,0.6,0.2,0.8,0.4,0.6,0.6,0.4,1,0
,,607ec7379eac7be04ab448e3,66fc9857d5ad11bba2701e0a,2024-10-02_02h48.51.167,mdp,2024.2.1,Win32,60.24096386,66fa4ebf79326e780c390304,,,,,,,,,,,,,,,,,,,,,630.2814,630.2814,630.282,631.0984,1,0,right,0.3146,,631.0989,632.0162,1,1,right,632.0168,632.7669,0,1,left,0,632.767,632.767,632.7675,634.2685,0,27,27,27,1,0.2,0.8,0.8,0.2,,,,,,,,,,,,,,,0.4107,,0.8,0.2,0.2,0.8,0.4,0.6,0.2,0.8,,,0.2472,,0.4,0.6,0.2,0.8,0.4,0.6,0.6,0.4,1,0
,,607ec7379eac7be04ab448e3,66fc9857d5ad11bba2701e0a,2024-10-02_02h48.51.167,mdp,2024.2.1,Win32,60.24096386,66fa4ebf79326e780c390304,,,,,,,,,,,,,,,,,,,,,634.2687,634.2687,634.2691,635.5197,1,0,right,0.7388,,635.5202,636.7044,0,0,left,636.7049,638.0055,1,1,right,0,638.0055,638.0055,638.0061,639.5069,0,28,28,28,1,0.2,0.8,0.8,0.2,,,,,,,,,,,,,,,0.6732,,0.8,0.2,0.2,0.8,0.4,0.6,0.2,0.8,,,0.7955,,0.4,0.6,0.2,0.8,0.4,0.6,0.6,0.4,1,0
,,607ec7379eac7be04ab448e3,66fc9857d5ad11bba2701e0a,2024-10-02_02h48.51.167,mdp,2024.2.1,Win32,60.24096386,66fa4ebf79326e780c390304,,,,,,,,,,,,,,,,,,,,,639.5072,639.5072,639.5077,640.3411,1,0,right,0.3251,,640.3417,641.3924,0,1,left,641.393,643.4279,1,0,right,1,643.428,643.428,643.4286,644.9291,0,29,29,29,1,0.2,0.8,0.8,0.2,,,,,,,,,,,,,,,0.5359,,0.8,0.2,0.2,0.8,0.4,0.6,0.2,0.8,,,1.5254,,0.4,0.6,0.2,0.8,0.4,0.6,0.6,0.4,1,0
,,607ec7379eac7be04ab448e3,66fc9857d5ad11bba2701e0a,2024-10-02_02h48.51.167,mdp,2024.2.1,Win32,60.24096386,66fa4ebf79326e780c390304,,,,,,,,,,,,,,,,,,,,,644.9293,644.9294,644.9298,645.8802,1,1,right,0.4385,,645.8808,647.0647,0,1,left,647.0653,648.1324,0,0,left,1,648.1324,648.1324,648.133,649.6341,0,30,30,30,1,0.2,0.8,0.8,0.2,,,,,,,,,,,,,,,0.6783,,0.8,0.2,0.2,0.8,0.4,0.6,0.2,0.8,,,0.5508,,0.4,0.6,0.2,0.8,0.4,0.6,0.6,0.4,1,0
,,607ec7379eac7be04ab448e3,66fc9857d5ad11bba2701e0a,2024-10-02_02h48.51.167,mdp,2024.2.1,Win32,60.24096386,66fa4ebf79326e780c390304,,,,,,,,,,,,,,,,,,,,,649.6344,649.6344,649.6349,650.8687,0,1,left,0.7178,,650.8693,652.1034,0,1,left,652.1039,652.7039,1,1,right,0,652.704,652.704,652.7045,654.2053,0,31,31,31,1,0.2,0.8,0.8,0.2,,,,,,,,,,,,,,,0.7228,,0.8,0.2,0.2,0.8,0.4,0.6,0.2,0.8,,,0.0838,,0.4,0.6,0.2,0.8,0.4,0.6,0.6,0.4,1,0
,,607ec7379eac7be04ab448e3,66fc9857d5ad11bba2701e0a,2024-10-02_02h48.51.167,mdp,2024.2.1,Win32,60.24096386,66fa4ebf79326e780c390304,,,,,,,,,,,,,,,,,,,,,654.2056,654.2056,654.2061,655.0062,1,0,right,0.2984,,655.0068,656.5579,0,0,left,656.5585,658.1762,0,0,left,1,658.1762,658.1762,658.1768,659.6775,0,32,32,32,1,0.2,0.8,0.8,0.2,,,,,,,,,,,,,,,1.0313,,0.8,0.2,0.2,0.8,0.4,0.6,0.2,0.8,,,1.098,,0.4,0.6,0.2,0.8,0.4,0.6,0.6,0.4,1,0
,,607ec7379eac7be04ab448e3,66fc9857d5ad11bba2701e0a,2024-10-02_02h48.51.167,mdp,2024.2.1,Win32,60.24096386,66fa4ebf79326e780c390304,,,,,,,,,,,,,,,,,,,,,659.6778,659.6778,659.6782,661.1122,1,0,right,0.928,,661.1129,662.3637,0,0,left,662.3643,663.3145,0,0,left,1,663.3146,663.3146,663.315,664.8161,0,33,33,33,1,0.2,0.8,0.8,0.2,,,,,,,,,,,,,,,0.746,,0.8,0.2,0.2,0.8,0.4,0.6,0.2,0.8,,,0.444,,0.4,0.6,0.2,0.8,0.4,0.6,0.6,0.4,1,0
,,607ec7379eac7be04ab448e3,66fc9857d5ad11bba2701e0a,2024-10-02_02h48.51.167,mdp,2024.2.1,Win32,60.24096386,66fa4ebf79326e780c390304,,,,,,,,,,,,,,,,,,,,,664.8165,664.8165,664.8169,665.6171,1,0,right,0.2949,,665.6177,666.4677,0,0,left,666.4682,667.302,0,0,left,1,667.302,667.302,667.3025,668.8034,0,34,34,34,1,0.2,0.8,0.8,0.2,,,,,,,,,,,,,,,0.3479,,0.8,0.2,0.2,0.8,0.4,0.6,0.2,0.8,,,0.3274,,0.4,0.6,0.2,0.8,0.4,0.6,0.6,0.4,1,0
,,607ec7379eac7be04ab448e3,66fc9857d5ad11bba2701e0a,2024-10-02_02h48.51.167,mdp,2024.2.1,Win32,60.24096386,66fa4ebf79326e780c390304,,,,,,,,,,,,,,,,,,,,,668.8036,668.8036,668.8041,669.5542,1,0,right,0.2476,,669.5548,670.3886,0,1,left,670.3892,671.2226,0,0,left,1,671.2227,671.2227,671.2232,672.7242,0,35,35,35,1,0.2,0.8,0.8,0.2,,,,,,,,,,,,,,,0.3175,,0.4,0.6,0.6,0.4,0.4,0.6,0.2,0.8,,,0.3238,,0.4,0.6,0.2,0.8,0.4,0.6,0.6,0.4,1,0
,,607ec7379eac7be04ab448e3,66fc9857d5ad11bba2701e0a,2024-10-02_02h48.51.167,mdp,2024.2.1,Win32,60.24096386,66fa4ebf79326e780c390304,,,,,,,,,,,,,,,,,,,,,672.7245,672.7245,672.725,673.5084,1,0,right,0.2826,,673.5089,674.6764,0,1,left,674.677,676.0444,1,0,right,1,676.0444,676.0444,676.0451,677.5458,0,36,36,36,1,0.2,0.8,0.8,0.2,,,,,,,,,,,,,,,0.6509,,0.4,0.6,0.6,0.4,0.4,0.6,0.2,0.8,,,0.8579,,0.4,0.6,0.2,0.8,0.4,0.6,0.6,0.4,1,0
,,607ec7379eac7be04ab448e3,66fc9857d5ad11bba2701e0a,2024-10-02_02h48.51.167,mdp,2024.2.1,Win32,60.24096386,66fa4ebf79326e780c390304,,,,,,,,,,,,,,,,,,,,,677.5461,677.5461,677.5466,678.3799,1,1,right,0.3296,,678.3805,679.2642,0,1,left,679.2648,680.1485,0,1,left,0,680.1485,680.1485,680.149,681.65,0,37,37,37,1,0.2,0.8,0.8,0.2,,,,,,,,,,,,,,,0.3657,,0.4,0.6,0.6,0.4,0.4,0.6,0.2,0.8,,,0.3805,,0.4,0.6,0.2,0.8,0.4,0.6,0.6,0.4,1,0
,,607ec7379eac7be04ab448e3,66fc9857d5ad11bba2701e0a,2024-10-02_02h48.51.167,mdp,2024.2.1,Win32,60.24096386,66fa4ebf79326e780c390304,,,,,,,,,,,,,,,,,,,,,681.6503,681.6503,681.6508,682.4174,1,0,right,0.2453,,682.418,683.2514,0,1,left,683.252,684.0858,1,0,right,1,684.0858,684.0858,684.0864,685.5874,0,38,38,38,1,0.2,0.8,0.8,0.2,,,,,,,,,,,,,,,0.3151,,0.4,0.6,0.6,0.4,0.4,0.6,0.2,0.8,,,0.3185,,0.4,0.6,0.2,0.8,0.4,0.6,0.6,0.4,1,0
,,607ec7379eac7be04ab448e3,66fc9857d5ad11bba2701e0a,2024-10-02_02h48.51.167,mdp,2024.2.1,Win32,60.24096386,66fa4ebf79326e780c390304,,,,,,,,,,,,,,,,,,,,,685.5877,685.5877,685.5883,686.4549,1,1,right,0.3591,,686.4554,687.6395,0,1,left,687.6402,688.7073,1,0,right,1,688.7073,688.7073,688.7079,690.2087,0,39,39,39,1,0.2,0.8,0.8,0.2,,,,,,,,,,,,,,,0.6723,,0.4,0.6,0.6,0.4,0.4,0.6,0.2,0.8,,,0.5551,,0.4,0.6,0.2,0.8,0.4,0.6,0.6,0.4,1,0
,,607ec7379eac7be04ab448e3,66fc9857d5ad11bba2701e0a,2024-10-02_02h48.51.167,mdp,2024.2.1,Win32,60.24096386,66fa4ebf79326e780c390304,,,,,,,,,,,,,,,,,,,,,690.209,690.209,690.2094,690.9761,1,0,right,0.2467,,690.9767,691.6601,0,1,left,691.6606,692.5945,1,0,right,1,692.5945,692.5945,692.595,694.0959,0,40,40,40,1,0.2,0.8,0.8,0.2,,,,,,,,,,,,,,,0.1776,,0.4,0.6,0.6,0.4,0.4,0.6,0.2,0.8,,,0.4199,,0.4,0.6,0.2,0.8,0.4,0.6,0.6,0.4,1,0
,,607ec7379eac7be04ab448e3,66fc9857d5ad11bba2701e0a,2024-10-02_02h48.51.167,mdp,2024.2.1,Win32,60.24096386,66fa4ebf79326e780c390304,,,,,,,,,,,,,,,,,,,,,694.0962,694.0962,694.0966,695.5473,1,0,right,0.9432,,695.5479,696.5483,0,1,left,696.5489,697.6494,1,0,right,1,697.6495,697.6495,697.6501,699.1509,0,41,41,41,1,0.2,0.8,0.8,0.2,,,,,,,,,,,,,,,0.4929,,0.4,0.6,0.6,0.4,0.4,0.6,0.2,0.8,,,0.596,,0.4,0.6,0.2,0.8,0.4,0.6,0.6,0.4,1,0
,,607ec7379eac7be04ab448e3,66fc9857d5ad11bba2701e0a,2024-10-02_02h48.51.167,mdp,2024.2.1,Win32,60.24096386,66fa4ebf79326e780c390304,,,,,,,,,,,,,,,,,,,,,699.1512,699.1512,699.1517,699.9352,1,0,right,0.2679,,699.9359,701.0531,1,0,right,701.0537,701.8706,1,1,right,0,701.8706,701.8706,701.8711,703.3718,0,42,42,42,1,0.2,0.8,0.8,0.2,,,,,,,,,,,,,,,0.6119,,0.4,0.6,0.6,0.4,0.4,0.6,0.2,0.8,,,0.3034,,0.4,0.6,0.2,0.8,0.4,0.6,0.6,0.4,1,0
,,607ec7379eac7be04ab448e3,66fc9857d5ad11bba2701e0a,2024-10-02_02h48.51.167,mdp,2024.2.1,Win32,60.24096386,66fa4ebf79326e780c390304,,,,,,,,,,,,,,,,,,,,,703.3721,703.3721,703.3726,704.1061,1,0,right,0.2201,,704.1067,705.007,0,1,left,705.0076,706.0584,0,1,left,0,706.0584,706.0584,706.059,707.5594,0,43,43,43,1,0.2,0.8,0.8,0.2,,,,,,,,,,,,,,,0.398,,0.4,0.6,0.6,0.4,0.4,0.6,0.2,0.8,,,0.5305,,0.4,0.6,0.2,0.8,0.4,0.6,0.6,0.4,1,0
,,607ec7379eac7be04ab448e3,66fc9857d5ad11bba2701e0a,2024-10-02_02h48.51.167,mdp,2024.2.1,Win32,60.24096386,66fa4ebf79326e780c390304,,,,,,,,,,,,,,,,,,,,,707.5597,707.5597,707.5601,708.2435,1,0,right,0.178,,708.2441,709.1446,0,0,left,709.1452,710.8296,1,0,right,1,710.8296,710.8296,710.8302,712.3311,0,44,44,44,1,0.2,0.8,0.8,0.2,,,,,,,,,,,,,,,0.3852,,0.4,0.6,0.6,0.4,0.4,0.6,0.2,0.8,,,1.1774,,0.4,0.6,0.2,0.8,0.4,0.6,0.6,0.4,1,0
,,607ec7379eac7be04ab448e3,66fc9857d5ad11bba2701e0a,2024-10-02_02h48.51.167,mdp,2024.2.1,Win32,60.24096386,66fa4ebf79326e780c390304,,,,,,,,,,,,,,,,,,,,,712.3313,712.3313,712.3318,713.2821,1,0,right,0.4402,,713.2826,714.3831,0,1,left,714.3837,715.7012,1,1,right,0,715.7012,715.7013,715.7019,717.2025,0,45,45,45,1,0.2,0.8,0.8,0.2,,,,,,,,,,,,,,,0.5973,,0.4,0.6,0.6,0.4,0.4,0.6,0.2,0.8,,,0.7986,,0.4,0.6,0.2,0.8,0.4,0.6,0.6,0.4,1,0
,,607ec7379eac7be04ab448e3,66fc9857d5ad11bba2701e0a,2024-10-02_02h48.51.167,mdp,2024.2.1,Win32,60.24096386,66fa4ebf79326e780c390304,,,,,,,,,,,,,,,,,,,,,717.2028,717.2028,717.2034,717.9535,1,0,right,0.2381,,717.9541,718.8044,0,1,left,718.805,719.7889,0,1,left,0,719.789,719.789,719.7896,721.2901,0,46,46,46,1,0.2,0.8,0.8,0.2,,,,,,,,,,,,,,,0.3405,,0.4,0.6,0.6,0.4,0.4,0.6,0.2,0.8,,,0.4699,,0.4,0.6,0.2,0.8,0.4,0.6,0.6,0.4,1,0
,,607ec7379eac7be04ab448e3,66fc9857d5ad11bba2701e0a,2024-10-02_02h48.51.167,mdp,2024.2.1,Win32,60.24096386,66fa4ebf79326e780c390304,,,,,,,,,,,,,,,,,,,,,721.2904,721.2904,721.2908,722.8085,1,0,right,1.003,,722.8091,724.1597,1,1,right,724.1603,724.994,0,1,left,0,724.9941,724.9941,724.9946,726.4955,0,47,47,47,1,0.2,0.8,0.8,0.2,,,,,,,,,,,,,,,0.8343,,0.4,0.6,0.6,0.4,0.4,0.6,0.2,0.8,,,0.3217,,0.4,0.6,0.2,0.8,0.4,0.6,0.6,0.4,1,0
,,607ec7379eac7be04ab448e3,66fc9857d5ad11bba2701e0a,2024-10-02_02h48.51.167,mdp,2024.2.1,Win32,60.24096386,66fa4ebf79326e780c390304,,,,,,,,,,,,,,,,,,,,,726.4957,726.4957,726.4962,727.4297,1,0,right,0.4242,,727.4302,728.6978,1,1,right,728.6983,731.05,0,1,left,0,731.05,731.05,731.0506,732.5518,0,48,48,48,1,0.2,0.8,0.8,0.2,,,,,,,,,,,,,,,0.7583,,0.4,0.6,0.6,0.4,0.4,0.6,0.2,0.8,,,1.8505,,0.4,0.6,0.2,0.8,0.8,0.2,0.8,0.2,1,0
,,607ec7379eac7be04ab448e3,66fc9857d5ad11bba2701e0a,2024-10-02_02h48.51.167,mdp,2024.2.1,Win32,60.24096386,66fa4ebf79326e780c390304,,,,,,,,,,,,,,,,,,,,,732.5521,732.5521,732.5527,733.5028,1,0,right,0.4246,,733.5034,734.6871,1,0,right,734.6877,735.4379,1,0,right,1,735.438,735.438,735.4385,736.9394,0,49,49,49,1,0.2,0.8,0.8,0.2,,,,,,,,,,,,,,,0.6811,,0.4,0.6,0.6,0.4,0.4,0.6,0.2,0.8,,,0.2431,,0.4,0.6,0.2,0.8,0.8,0.2,0.8,0.2,1,0
,,607ec7379eac7be04ab448e3,66fc9857d5ad11bba2701e0a,2024-10-02_02h48.51.167,mdp,2024.2.1,Win32,60.24096386,66fa4ebf79326e780c390304,,,,,,,,,,,,,,,,,,,,,,,,,,,,,,,,,,,,,,,,,,,,,,,,,,,,,,,,736.9395,795.4488,0,2,2,2,1,imgs/squirrel.png,imgs/goat.png,imgs/dog.png,imgs/bear.png,imgs/horse.png,,,,,,,,,,,,,,,,,,,,,,,,
,,607ec7379eac7be04ab448e3,66fc9857d5ad11bba2701e0a,2024-10-02_02h48.51.167,mdp,2024.2.1,Win32,60.24096386,66fa4ebf79326e780c390304,,,,,,,,,,,,,,3,seqs/st3seq36.csv,795.4491,797.0838,space,1.1271,,797.0871,797.0871,797.0877,799.2694,1,0,right,1.648,,799.27,800.4706,0,1,left,800.4713,801.4551,0,1,left,0,801.4551,801.4551,801.4556,802.9564,0,0,0,0,1,0.2,0.8,0.6,0.4,,,,,,,,,,,,,,,0.685,,0.4,0.6,0.6,0.4,0.8,0.2,0.8,0.2,,,0.4729,,0.8,0.2,0.2,0.8,0.6,0.4,0.6,0.4,1,0
,,607ec7379eac7be04ab448e3,66fc9857d5ad11bba2701e0a,2024-10-02_02h48.51.167,mdp,2024.2.1,Win32,60.24096386,66fa4ebf79326e780c390304,,,,,,,,,,,,,,,,,,,,,802.9568,802.9568,802.9573,803.8742,0,1,left,0.4098,,803.8748,805.9597,1,0,right,805.9604,807.1608,1,1,right,0,807.1608,807.1608,807.1614,808.6622,0,1,1,1,1,0.2,0.8,0.6,0.4,,,,,,,,,,,,,,,1.5649,,0.4,0.6,0.6,0.4,0.8,0.2,0.8,0.2,,,0.68,,0.8,0.2,0.2,0.8,0.6,0.4,0.6,0.4,1,0
,,607ec7379eac7be04ab448e3,66fc9857d5ad11bba2701e0a,2024-10-02_02h48.51.167,mdp,2024.2.1,Win32,60.24096386,66fa4ebf79326e780c390304,,,,,,,,,,,,,,,,,,,,,808.6625,808.6625,808.663,809.4464,1,0,right,0.2678,,809.447,810.9815,1,0,right,810.982,811.9489,1,1,right,0,811.9489,811.9489,811.9495,813.4505,0,2,2,2,1,0.2,0.8,0.6,0.4,,,,,,,,,,,,,,,1.0203,,0.4,0.6,0.6,0.4,0.8,0.2,0.8,0.2,,,0.4609,,0.8,0.2,0.2,0.8,0.6,0.4,0.6,0.4,1,0
,,607ec7379eac7be04ab448e3,66fc9857d5ad11bba2701e0a,2024-10-02_02h48.51.167,mdp,2024.2.1,Win32,60.24096386,66fa4ebf79326e780c390304,,,,,,,,,,,,,,,,,,,,,813.4509,813.4509,813.4515,814.3181,1,1,right,0.3622,,814.3188,815.8863,0,0,left,815.8869,817.2712,0,0,left,1,817.2712,817.2712,817.2718,818.7726,0,3,3,3,1,0.2,0.8,0.6,0.4,,,,,,,,,,,,,,,1.0515,,0.4,0.6,0.6,0.4,0.8,0.2,0.8,0.2,,,0.8798,,0.8,0.2,0.2,0.8,0.6,0.4,0.6,0.4,1,0
,,607ec7379eac7be04ab448e3,66fc9857d5ad11bba2701e0a,2024-10-02_02h48.51.167,mdp,2024.2.1,Win32,60.24096386,66fa4ebf79326e780c390304,,,,,,,,,,,,,,,,,,,,,818.7729,818.7729,818.7733,819.6233,1,1,right,0.3177,,819.624,820.8748,0,0,left,820.8753,821.8924,0,0,left,1,821.8925,821.8925,821.8931,823.3939,0,4,4,4,1,0.2,0.8,0.6,0.4,,,,,,,,,,,,,,,0.7381,,0.4,0.6,0.6,0.4,0.8,0.2,0.8,0.2,,,0.5008,,0.8,0.2,0.2,0.8,0.6,0.4,0.6,0.4,1,0
,,607ec7379eac7be04ab448e3,66fc9857d5ad11bba2701e0a,2024-10-02_02h48.51.167,mdp,2024.2.1,Win32,60.24096386,66fa4ebf79326e780c390304,,,,,,,,,,,,,,,,,,,,,823.3942,823.3942,823.3947,824.2447,1,0,right,0.3337,,824.2454,825.1624,0,1,left,825.1629,826.3802,1,0,right,1,826.3803,826.3803,826.3809,827.8817,0,5,5,5,1,0.8,0.2,0.4,0.6,,,,,,,,,,,,,,,0.3981,,0.4,0.6,0.6,0.4,0.8,0.2,0.8,0.2,,,0.7013,,0.8,0.2,0.2,0.8,0.6,0.4,0.6,0.4,1,0
,,607ec7379eac7be04ab448e3,66fc9857d5ad11bba2701e0a,2024-10-02_02h48.51.167,mdp,2024.2.1,Win32,60.24096386,66fa4ebf79326e780c390304,,,,,,,,,,,,,,,,,,,,,827.882,827.882,827.8825,828.9495,1,0,right,0.5506,,828.95,830.034,0,1,left,830.0346,830.9683,1,1,right,0,830.9683,830.9683,830.9689,832.4697,0,6,6,6,1,0.8,0.2,0.4,0.6,,,,,,,,,,,,,,,0.5741,,0.4,0.6,0.6,0.4,0.8,0.2,0.8,0.2,,,0.4278,,0.8,0.2,0.2,0.8,0.6,0.4,0.6,0.4,1,0
,,607ec7379eac7be04ab448e3,66fc9857d5ad11bba2701e0a,2024-10-02_02h48.51.167,mdp,2024.2.1,Win32,60.24096386,66fa4ebf79326e780c390304,,,,,,,,,,,,,,,,,,,,,832.47,832.47,832.4706,833.3874,1,1,right,0.4031,,833.388,834.3718,0,0,left,834.3723,835.5062,0,0,left,1,835.5063,835.5063,835.5068,837.0077,0,7,7,7,1,0.8,0.2,0.4,0.6,,,,,,,,,,,,,,,0.4759,,0.4,0.6,0.6,0.4,0.8,0.2,0.8,0.2,,,0.6149,,0.8,0.2,0.2,0.8,0.6,0.4,0.6,0.4,1,0
,,607ec7379eac7be04ab448e3,66fc9857d5ad11bba2701e0a,2024-10-02_02h48.51.167,mdp,2024.2.1,Win32,60.24096386,66fa4ebf79326e780c390304,,,,,,,,,,,,,,,,,,,,,837.008,837.008,837.0085,837.942,1,0,right,0.4227,,837.9426,839.2433,0,0,left,839.2439,840.6113,0,1,left,0,840.6114,840.6114,840.6119,842.1128,0,8,8,8,1,0.8,0.2,0.4,0.6,,,,,,,,,,,,,,,0.7854,,0.4,0.6,0.6,0.4,0.8,0.2,0.8,0.2,,,0.8625,,0.8,0.2,0.2,0.8,0.6,0.4,0.6,0.4,1,0
,,607ec7379eac7be04ab448e3,66fc9857d5ad11bba2701e0a,2024-10-02_02h48.51.167,mdp,2024.2.1,Win32,60.24096386,66fa4ebf79326e780c390304,,,,,,,,,,,,,,,,,,,,,842.1131,842.1131,842.1136,842.9137,1,0,right,0.2913,,842.9144,843.8315,0,1,left,843.8321,844.799,0,0,left,1,844.799,844.799,844.7996,846.3006,0,9,9,9,1,0.8,0.2,0.4,0.6,,,,,,,,,,,,,,,0.4122,,0.4,0.6,0.6,0.4,0.8,0.2,0.8,0.2,,,0.4544,,0.8,0.2,0.2,0.8,0.6,0.4,0.6,0.4,1,0
,,607ec7379eac7be04ab448e3,66fc9857d5ad11bba2701e0a,2024-10-02_02h48.51.167,mdp,2024.2.1,Win32,60.24096386,66fa4ebf79326e780c390304,,,,,,,,,,,,,,,,,,,,,846.3008,846.3008,846.3014,847.0846,1,1,right,0.2672,,847.0851,848.753,1,0,right,848.7536,849.8042,0,0,left,1,849.8042,849.8042,849.8048,851.3055,0,10,10,10,1,0.8,0.2,0.4,0.6,,,,,,,,,,,,,,,1.1516,,0.4,0.6,0.6,0.4,0.8,0.2,0.8,0.2,,,0.5362,,0.8,0.2,0.2,0.8,0.6,0.4,0.6,0.4,1,0
,,607ec7379eac7be04ab448e3,66fc9857d5ad11bba2701e0a,2024-10-02_02h48.51.167,mdp,2024.2.1,Win32,60.24096386,66fa4ebf79326e780c390304,,,,,,,,,,,,,,,,,,,,,851.3058,851.3058,851.3061,852.3733,1,0,right,0.5506,,852.3739,853.5079,1,0,right,853.5085,854.5755,0,0,left,1,854.5756,854.5756,854.5761,856.0771,0,11,11,11,1,0.8,0.2,0.4,0.6,,,,,,,,,,,,,,,0.6237,,0.4,0.6,0.6,0.4,0.8,0.2,0.8,0.2,,,0.5575,,0.8,0.2,0.2,0.8,0.6,0.4,0.6,0.4,1,0
,,607ec7379eac7be04ab448e3,66fc9857d5ad11bba2701e0a,2024-10-02_02h48.51.167,mdp,2024.2.1,Win32,60.24096386,66fa4ebf79326e780c390304,,,,,,,,,,,,,,,,,,,,,856.0774,856.0774,856.0779,856.8946,1,0,right,0.3093,,856.8952,857.9124,1,0,right,857.913,858.8132,0,0,left,1,858.8132,858.8132,858.8137,860.3146,0,12,12,12,1,0.8,0.2,0.4,0.6,,,,,,,,,,,,,,,0.5078,,0.6,0.4,0.8,0.2,0.8,0.2,0.8,0.2,,,0.3874,,0.8,0.2,0.2,0.8,0.6,0.4,0.6,0.4,1,0
,,607ec7379eac7be04ab448e3,66fc9857d5ad11bba2701e0a,2024-10-02_02h48.51.167,mdp,2024.2.1,Win32,60.24096386,66fa4ebf79326e780c390304,,,,,,,,,,,,,,,,,,,,,860.315,860.315,860.3154,861.199,1,0,right,0.3672,,861.1996,862.15,1,0,right,862.1507,863.0511,0,0,left,1,863.0512,863.0512,863.0518,864.5522,0,13,13,13,1,0.8,0.2,0.4,0.6,,,,,,,,,,,,,,,0.4422,,0.6,0.4,0.8,0.2,0.6,0.4,0.2,0.8,,,0.3966,,0.8,0.2,0.2,0.8,0.6,0.4,0.6,0.4,1,0
,,607ec7379eac7be04ab448e3,66fc9857d5ad11bba2701e0a,2024-10-02_02h48.51.167,mdp,2024.2.1,Win32,60.24096386,66fa4ebf79326e780c390304,,,,,,,,,,,,,,,,,,,,,864.5525,864.5525,864.5531,865.3366,1,0,right,0.277,,865.3372,866.154,1,0,right,866.1546,866.9216,0,0,left,1,866.9216,866.9216,866.9221,868.4229,0,14,14,14,1,0.8,0.2,0.4,0.6,,,,,,,,,,,,,,,0.308,,0.6,0.4,0.8,0.2,0.6,0.4,0.2,0.8,,,0.2597,,0.8,0.2,0.2,0.8,0.6,0.4,0.6,0.4,1,0
,,607ec7379eac7be04ab448e3,66fc9857d5ad11bba2701e0a,2024-10-02_02h48.51.167,mdp,2024.2.1,Win32,60.24096386,66fa4ebf79326e780c390304,,,,,,,,,,,,,,,,,,,,,868.4231,868.4231,868.4236,869.6076,1,1,right,0.6698,,869.6082,871.1925,0,1,left,871.1931,872.6442,1,0,right,1,872.6442,872.6443,872.6448,874.1456,0,15,15,15,1,0.8,0.2,0.4,0.6,,,,,,,,,,,,,,,1.0748,,0.6,0.4,0.8,0.2,0.6,0.4,0.2,0.8,,,0.932,,0.8,0.2,0.2,0.8,0.6,0.4,0.6,0.4,1,0
,,607ec7379eac7be04ab448e3,66fc9857d5ad11bba2701e0a,2024-10-02_02h48.51.167,mdp,2024.2.1,Win32,60.24096386,66fa4ebf79326e780c390304,,,,,,,,,,,,,,,,,,,,,874.1458,874.1458,874.1463,874.9629,1,1,right,0.3043,,874.9635,875.8972,0,1,left,875.8978,876.6981,1,0,right,1,876.6981,876.6981,876.6987,878.1995,0,16,16,16,1,0.8,0.2,0.4,0.6,,,,,,,,,,,,,,,0.4172,,0.6,0.4,0.8,0.2,0.6,0.4,0.2,0.8,,,0.2944,,0.2,0.8,0.4,0.6,0.6,0.4,0.6,0.4,1,0
,,607ec7379eac7be04ab448e3,66fc9857d5ad11bba2701e0a,2024-10-02_02h48.51.167,mdp,2024.2.1,Win32,60.24096386,66fa4ebf79326e780c390304,,,,,,,,,,,,,,,,,,,,,878.1997,878.1997,878.2002,879.0173,1,0,right,0.3036,,879.0178,881.8198,0,0,left,881.8205,882.9877,0,1,left,0,882.9878,882.9878,882.9885,884.4893,0,17,17,17,1,0.8,0.2,0.4,0.6,,,,,,,,,,,,,,,2.2944,,0.8,0.2,0.6,0.4,0.6,0.4,0.2,0.8,,,0.6578,,0.2,0.8,0.4,0.6,0.6,0.4,0.6,0.4,1,0
,,607ec7379eac7be04ab448e3,66fc9857d5ad11bba2701e0a,2024-10-02_02h48.51.167,mdp,2024.2.1,Win32,60.24096386,66fa4ebf79326e780c390304,,,,,,,,,,,,,,,,,,,,,884.4895,884.4895,884.49,885.4235,1,1,right,0.4223,,885.4242,886.3079,0,1,left,886.3086,887.4756,0,1,left,0,887.4757,887.4757,887.4763,888.977,0,18,18,18,1,0.8,0.2,0.4,0.6,,,,,,,,,,,,,,,0.3691,,0.8,0.2,0.6,0.4,0.6,0.4,0.2,0.8,,,0.6547,,0.2,0.8,0.4,0.6,0.6,0.4,0.6,0.4,1,0
,,607ec7379eac7be04ab448e3,66fc9857d5ad11bba2701e0a,2024-10-02_02h48.51.167,mdp,2024.2.1,Win32,60.24096386,66fa4ebf79326e780c390304,,,,,,,,,,,,,,,,,,,,,888.9774,888.9774,888.9779,889.8114,1,1,right,0.3278,,889.8119,890.879,0,0,left,890.8796,892.3308,0,1,left,0,892.3308,892.3308,892.3314,893.8321,0,19,19,19,1,0.8,0.2,0.4,0.6,,,,,,,,,,,,,,,0.5578,,0.8,0.2,0.6,0.4,0.8,0.2,0.4,0.6,,,0.939,,0.2,0.8,0.4,0.6,0.6,0.4,0.6,0.4,1,0
,,607ec7379eac7be04ab448e3,66fc9857d5ad11bba2701e0a,2024-10-02_02h48.51.167,mdp,2024.2.1,Win32,60.24096386,66fa4ebf79326e780c390304,,,,,,,,,,,,,,,,,,,,,893.8323,893.8323,893.8328,894.733,1,1,right,0.3938,,894.7336,895.7674,0,0,left,895.768,897.0854,1,1,right,0,897.0855,897.0855,897.0861,898.5881,0,20,20,20,1,0.8,0.2,0.4,0.6,,,,,,,,,,,,,,,0.53,,0.8,0.2,0.6,0.4,0.8,0.2,0.4,0.6,,,0.8037,,0.2,0.8,0.4,0.6,0.6,0.4,0.6,0.4,1,0
,,607ec7379eac7be04ab448e3,66fc9857d5ad11bba2701e0a,2024-10-02_02h48.51.167,mdp,2024.2.1,Win32,60.24096386,66fa4ebf79326e780c390304,,,,,,,,,,,,,,,,,,,,,898.5883,898.5883,898.5889,899.5213,0,0,left,0.4047,,899.5219,900.5222,1,0,right,900.5228,901.8569,1,0,right,1,901.8569,901.8569,901.8575,903.3584,0,21,21,21,1,0.8,0.2,0.4,0.6,,,,,,,,,,,,,,,0.4811,,0.8,0.2,0.6,0.4,0.8,0.2,0.4,0.6,,,0.8312,,0.2,0.8,0.4,0.6,0.6,0.4,0.6,0.4,1,0
,,607ec7379eac7be04ab448e3,66fc9857d5ad11bba2701e0a,2024-10-02_02h48.51.167,mdp,2024.2.1,Win32,60.24096386,66fa4ebf79326e780c390304,,,,,,,,,,,,,,,,,,,,,903.3587,903.3587,903.3591,904.4764,0,0,left,0.6037,,904.4769,905.3771,1,0,right,905.3778,906.228,1,0,right,1,906.2281,906.2281,906.2286,907.7296,0,22,22,22,1,0.8,0.2,0.4,0.6,,,,,,,,,,,,,,,0.3889,,0.8,0.2,0.6,0.4,0.8,0.2,0.4,0.6,,,0.3388,,0.2,0.8,0.4,0.6,0.6,0.4,0.6,0.4,1,0
,,607ec7379eac7be04ab448e3,66fc9857d5ad11bba2701e0a,2024-10-02_02h48.51.167,mdp,2024.2.1,Win32,60.24096386,66fa4ebf79326e780c390304,,,,,,,,,,,,,,,,,,,,,907.73,907.73,907.7306,909.6651,0,0,left,1.418,,909.6657,910.7326,1,1,right,910.7332,912.2342,1,0,right,1,912.2342,912.2342,912.2348,913.7355,0,23,23,23,1,0.8,0.2,0.4,0.6,,,,,,,,,,,,,,,0.5518,,0.8,0.2,0.6,0.4,0.8,0.2,0.4,0.6,,,0.9846,,0.2,0.8,0.4,0.6,0.6,0.4,0.6,0.4,1,0
,,607ec7379eac7be04ab448e3,66fc9857d5ad11bba2701e0a,2024-10-02_02h48.51.167,mdp,2024.2.1,Win32,60.24096386,66fa4ebf79326e780c390304,,,,,,,,,,,,,,,,,,,,,913.7358,913.7359,913.7363,914.8367,0,1,left,0.5896,,914.8373,915.721,1,1,right,915.7216,916.672,1,0,right,1,916.672,916.672,916.6726,918.1735,0,24,24,24,1,0.2,0.8,0.8,0.2,,,,,,,,,,,,,,,0.3689,,0.8,0.2,0.6,0.4,0.8,0.2,0.4,0.6,,,0.4342,,0.2,0.8,0.4,0.6,0.6,0.4,0.6,0.4,1,0
,,607ec7379eac7be04ab448e3,66fc9857d5ad11bba2701e0a,2024-10-02_02h48.51.167,mdp,2024.2.1,Win32,60.24096386,66fa4ebf79326e780c390304,,,,,,,,,,,,,,,,,,,,,918.1738,918.1738,918.1744,919.0578,1,0,right,0.3686,,919.0584,920.1254,0,1,left,920.126,921.2434,0,0,left,1,921.2434,921.2434,921.244,922.745,0,25,25,25,1,0.2,0.8,0.8,0.2,,,,,,,,,,,,,,,0.548,,0.8,0.2,0.6,0.4,0.8,0.2,0.4,0.6,,,0.6013,,0.2,0.8,0.4,0.6,0.6,0.4,0.6,0.4,1,0
,,607ec7379eac7be04ab448e3,66fc9857d5ad11bba2701e0a,2024-10-02_02h48.51.167,mdp,2024.2.1,Win32,60.24096386,66fa4ebf79326e780c390304,,,,,,,,,,,,,,,,,,,,,922.7452,922.7452,922.7458,923.896,0,1,left,0.6431,,923.8966,924.6633,1,1,right,924.664,925.7979,1,0,right,1,925.7979,925.7979,925.7985,927.2994,0,26,26,26,1,0.2,0.8,0.8,0.2,,,,,,,,,,,,,,,0.2613,,0.8,0.2,0.6,0.4,0.8,0.2,0.4,0.6,,,0.6248,,0.2,0.8,0.4,0.6,0.6,0.4,0.6,0.4,1,0
,,607ec7379eac7be04ab448e3,66fc9857d5ad11bba2701e0a,2024-10-02_02h48.51.167,mdp,2024.2.1,Win32,60.24096386,66fa4ebf79326e780c390304,,,,,,,,,,,,,,,,,,,,,927.2997,927.2997,927.3003,928.3838,0,1,left,0.577,,928.3843,929.168,1,1,right,929.1686,930.0188,1,0,right,1,930.0188,930.0188,930.0194,931.5203,0,27,27,27,1,0.2,0.8,0.8,0.2,,,,,,,,,,,,,,,0.267,,0.8,0.2,0.6,0.4,0.8,0.2,0.4,0.6,,,0.3382,,0.2,0.8,0.4,0.6,0.6,0.4,0.6,0.4,1,0
,,607ec7379eac7be04ab448e3,66fc9857d5ad11bba2701e0a,2024-10-02_02h48.51.167,mdp,2024.2.1,Win32,60.24096386,66fa4ebf79326e780c390304,,,,,,,,,,,,,,,,,,,,,931.5205,931.5205,931.521,932.4213,0,1,left,0.3963,,932.4219,933.9731,1,0,right,933.9736,934.9073,0,1,left,0,934.9074,934.9074,934.9078,936.4087,0,28,28,28,1,0.2,0.8,0.8,0.2,,,,,,,,,,,,,,,1.0356,,0.8,0.2,0.6,0.4,0.8,0.2,0.4,0.6,,,0.4255,,0.2,0.8,0.4,0.6,0.6,0.4,0.6,0.4,1,0
,,607ec7379eac7be04ab448e3,66fc9857d5ad11bba2701e0a,2024-10-02_02h48.51.167,mdp,2024.2.1,Win32,60.24096386,66fa4ebf79326e780c390304,,,,,,,,,,,,,,,,,,,,,936.4089,936.4089,936.4095,937.2595,0,1,left,0.3468,,937.26,938.0104,1,1,right,938.011,938.9282,1,1,right,0,938.9283,938.9283,938.9287,940.4295,0,29,29,29,1,0.2,0.8,0.8,0.2,,,,,,,,,,,,,,,0.245,,0.8,0.2,0.6,0.4,0.8,0.2,0.4,0.6,,,0.4054,,0.6,0.4,0.8,0.2,0.6,0.4,0.6,0.4,1,0
,,607ec7379eac7be04ab448e3,66fc9857d5ad11bba2701e0a,2024-10-02_02h48.51.167,mdp,2024.2.1,Win32,60.24096386,66fa4ebf79326e780c390304,,,,,,,,,,,,,,,,,,,,,940.4298,940.4298,940.4303,941.5808,0,1,left,0.6365,,941.5814,942.7986,1,1,right,942.7992,943.95,1,0,right,1,943.9501,943.9501,943.9507,945.4512,0,30,30,30,1,0.2,0.8,0.8,0.2,,,,,,,,,,,,,,,0.7053,,0.4,0.6,0.4,0.6,0.8,0.2,0.4,0.6,,,0.6379,,0.6,0.4,0.8,0.2,0.6,0.4,0.6,0.4,1,0
,,607ec7379eac7be04ab448e3,66fc9857d5ad11bba2701e0a,2024-10-02_02h48.51.167,mdp,2024.2.1,Win32,60.24096386,66fa4ebf79326e780c390304,,,,,,,,,,,,,,,,,,,,,945.4515,945.4516,945.452,946.2855,0,1,left,0.3281,,946.2861,947.2031,1,0,right,947.2037,948.0707,1,0,right,1,948.0707,948.0708,948.0714,949.5721,0,31,31,31,1,0.2,0.8,0.8,0.2,,,,,,,,,,,,,,,0.4042,,0.4,0.6,0.4,0.6,0.8,0.2,0.4,0.6,,,0.3581,,0.6,0.4,0.8,0.2,0.6,0.4,0.6,0.4,1,0
,,607ec7379eac7be04ab448e3,66fc9857d5ad11bba2701e0a,2024-10-02_02h48.51.167,mdp,2024.2.1,Win32,60.24096386,66fa4ebf79326e780c390304,,,,,,,,,,,,,,,,,,,,,949.5723,949.5723,949.5729,950.6566,0,1,left,0.5799,,950.6571,951.7076,1,0,right,951.7081,952.7919,1,0,right,1,952.792,952.792,952.7925,954.2935,0,32,32,32,1,0.2,0.8,0.8,0.2,,,,,,,,,,,,,,,0.5452,,0.4,0.6,0.4,0.6,0.8,0.2,0.4,0.6,,,0.566,,0.6,0.4,0.8,0.2,0.6,0.4,0.6,0.4,1,0
,,607ec7379eac7be04ab448e3,66fc9857d5ad11bba2701e0a,2024-10-02_02h48.51.167,mdp,2024.2.1,Win32,60.24096386,66fa4ebf79326e780c390304,,,,,,,,,,,,,,,,,,,,,954.2939,954.2939,954.2943,955.1946,0,1,left,0.3951,,955.1951,956.1954,1,1,right,956.196,957.5801,1,0,right,1,957.5802,957.5802,957.5807,959.0818,0,33,33,33,1,0.2,0.8,0.8,0.2,,,,,,,,,,,,,,,0.485,,0.4,0.6,0.4,0.6,0.8,0.2,0.4,0.6,,,0.8675,,0.6,0.4,0.8,0.2,0.6,0.4,0.6,0.4,1,0
,,607ec7379eac7be04ab448e3,66fc9857d5ad11bba2701e0a,2024-10-02_02h48.51.167,mdp,2024.2.1,Win32,60.24096386,66fa4ebf79326e780c390304,,,,,,,,,,,,,,,,,,,,,959.0821,959.0821,959.0826,959.9997,0,1,left,0.4008,,960.0003,961.0672,1,1,right,961.0678,962.1682,1,0,right,1,962.1683,962.1683,962.1689,963.6697,0,34,34,34,1,0.2,0.8,0.8,0.2,,,,,,,,,,,,,,,0.5535,,0.4,0.6,0.4,0.6,0.8,0.2,0.4,0.6,,,0.5872,,0.6,0.4,0.8,0.2,0.6,0.4,0.6,0.4,1,0
,,607ec7379eac7be04ab448e3,66fc9857d5ad11bba2701e0a,2024-10-02_02h48.51.167,mdp,2024.2.1,Win32,60.24096386,66fa4ebf79326e780c390304,,,,,,,,,,,,,,,,,,,,,963.67,963.67,963.6705,964.5541,0,0,left,0.3766,,964.5546,965.5049,1,1,right,965.5055,966.7227,1,0,right,1,966.7228,966.7228,966.7234,968.2244,0,35,35,35,1,0.2,0.8,0.8,0.2,,,,,,,,,,,,,,,0.438,,0.4,0.6,0.4,0.6,0.8,0.2,0.4,0.6,,,0.703,,0.6,0.4,0.8,0.2,0.4,0.6,0.4,0.6,1,0
,,607ec7379eac7be04ab448e3,66fc9857d5ad11bba2701e0a,2024-10-02_02h48.51.167,mdp,2024.2.1,Win32,60.24096386,66fa4ebf79326e780c390304,,,,,,,,,,,,,,,,,,,,,968.2248,968.2248,968.2253,969.1085,0,1,left,0.379,,969.1092,969.876,1,1,right,969.8765,970.8271,1,0,right,1,970.8271,970.8271,970.8277,972.329,0,36,36,36,1,0.2,0.8,0.8,0.2,,,,,,,,,,,,,,,0.2563,,0.4,0.6,0.4,0.6,0.8,0.2,0.4,0.6,,,0.4379,,0.6,0.4,0.8,0.2,0.4,0.6,0.4,0.6,1,0
,,607ec7379eac7be04ab448e3,66fc9857d5ad11bba2701e0a,2024-10-02_02h48.51.167,mdp,2024.2.1,Win32,60.24096386,66fa4ebf79326e780c390304,,,,,,,,,,,,,,,,,,,,,972.3293,972.3293,972.3299,973.5129,1,0,right,0.6656,,973.5135,974.7478,1,0,right,974.7485,975.7155,0,0,left,1,975.7155,975.7155,975.7161,977.2167,0,37,37,37,1,0.2,0.8,0.8,0.2,,,,,,,,,,,,,,,0.725,,0.6,0.4,0.8,0.2,0.8,0.2,0.4,0.6,,,0.4586,,0.6,0.4,0.8,0.2,0.4,0.6,0.4,0.6,1,0
,,607ec7379eac7be04ab448e3,66fc9857d5ad11bba2701e0a,2024-10-02_02h48.51.167,mdp,2024.2.1,Win32,60.24096386,66fa4ebf79326e780c390304,,,,,,,,,,,,,,,,,,,,,977.217,977.217,977.2176,978.0179,1,1,right,0.2875,,978.0185,978.9685,1,1,right,978.969,979.8529,0,0,left,1,979.8529,979.8529,979.8535,981.3542,0,38,38,38,1,0.8,0.2,0.2,0.8,,,,,,,,,,,,,,,0.4445,,0.6,0.4,0.8,0.2,0.8,0.2,0.4,0.6,,,0.3653,,0.6,0.4,0.8,0.2,0.4,0.6,0.4,0.6,1,0
,,607ec7379eac7be04ab448e3,66fc9857d5ad11bba2701e0a,2024-10-02_02h48.51.167,mdp,2024.2.1,Win32,60.24096386,66fa4ebf79326e780c390304,,,,,,,,,,,,,,,,,,,,,981.3546,981.3546,981.3551,982.2554,0,0,left,0.3887,,982.2561,983.3732,1,0,right,983.3738,984.3241,0,1,left,0,984.3241,984.3241,984.3247,985.8256,0,39,39,39,1,0.8,0.2,0.2,0.8,,,,,,,,,,,,,,,0.5982,,0.6,0.4,0.8,0.2,0.8,0.2,0.4,0.6,,,0.4385,,0.8,0.2,0.2,0.8,0.4,0.6,0.4,0.6,1,0
,,607ec7379eac7be04ab448e3,66fc9857d5ad11bba2701e0a,2024-10-02_02h48.51.167,mdp,2024.2.1,Win32,60.24096386,66fa4ebf79326e780c390304,,,,,,,,,,,,,,,,,,,,,985.8258,985.8258,985.8263,986.6763,0,0,left,0.3339,,986.6769,987.7108,1,1,right,987.7114,988.9622,1,1,right,0,988.9623,988.9623,988.9629,990.4636,0,40,40,40,1,0.8,0.2,0.2,0.8,,,,,,,,,,,,,,,0.5237,,0.6,0.4,0.8,0.2,0.8,0.2,0.4,0.6,,,0.734,,0.8,0.2,0.2,0.8,0.4,0.6,0.4,0.6,1,0
,,607ec7379eac7be04ab448e3,66fc9857d5ad11bba2701e0a,2024-10-02_02h48.51.167,mdp,2024.2.1,Win32,60.24096386,66fa4ebf79326e780c390304,,,,,,,,,,,,,,,,,,,,,990.4639,990.4639,990.4644,991.2478,1,1,right,0.2748,,991.2483,992.5491,0,0,left,992.5497,993.5003,0,0,left,1,993.5003,993.5003,993.5008,995.0016,0,41,41,41,1,0.8,0.2,0.2,0.8,,,,,,,,,,,,,,,0.7818,,0.6,0.4,0.8,0.2,0.8,0.2,0.4,0.6,,,0.4371,,0.8,0.2,0.2,0.8,0.2,0.8,0.2,0.8,1,0
,,607ec7379eac7be04ab448e3,66fc9857d5ad11bba2701e0a,2024-10-02_02h48.51.167,mdp,2024.2.1,Win32,60.24096386,66fa4ebf79326e780c390304,,,,,,,,,,,,,,,,,,,,,995.0019,995.0019,995.0025,995.8025,1,1,right,0.2676,,995.8031,996.62,0,1,left,996.6205,997.471,0,0,left,1,997.471,997.471,997.4716,998.9721,0,42,42,42,1,0.8,0.2,0.2,0.8,,,,,,,,,,,,,,,0.3108,,0.6,0.4,0.8,0.2,0.8,0.2,0.4,0.6,,,0.3317,,0.8,0.2,0.2,0.8,0.2,0.8,0.2,0.8,1,0
,,607ec7379eac7be04ab448e3,66fc9857d5ad11bba2701e0a,2024-10-02_02h48.51.167,mdp,2024.2.1,Win32,60.24096386,66fa4ebf79326e780c390304,,,,,,,,,,,,,,,,,,,,,998.9724,998.9724,998.9729,999.74,1,0,right,0.2572,,999.7405,1000.6073,0,1,left,1000.6078,1001.4914,0,1,left,0,1001.4915,1001.4915,1001.4921,1002.993,0,43,43,43,1,0.8,0.2,0.2,0.8,,,,,,,,,,,,,,,0.3512,,0.6,0.4,0.8,0.2,0.8,0.2,0.4,0.6,,,0.3792,,0.8,0.2,0.2,0.8,0.2,0.8,0.2,0.8,1,0
,,607ec7379eac7be04ab448e3,66fc9857d5ad11bba2701e0a,2024-10-02_02h48.51.167,mdp,2024.2.1,Win32,60.24096386,66fa4ebf79326e780c390304,,,,,,,,,,,,,,,,,,,,,1002.9932,1002.9932,1002.9938,1003.7439,1,1,right,0.2348,,1003.7445,1005.0617,1,1,right,1005.0623,1005.8292,0,1,left,0,1005.8292,1005.8292,1005.8298,1007.331,0,44,44,44,1,0.8,0.2,0.2,0.8,,,,,,,,,,,,,,,0.7985,,0.6,0.4,0.8,0.2,0.8,0.2,0.4,0.6,,,0.2573,,0.8,0.2,0.2,0.8,0.2,0.8,0.2,0.8,1,0
,,607ec7379eac7be04ab448e3,66fc9857d5ad11bba2701e0a,2024-10-02_02h48.51.167,mdp,2024.2.1,Win32,60.24096386,66fa4ebf79326e780c390304,,,,,,,,,,,,,,,,,,,,,1007.3312,1007.3312,1007.3318,1008.1651,0,0,left,0.3118,,1008.1657,1008.9492,1,1,right,1008.9497,1009.9334,1,1,right,0,1009.9334,1009.9334,1009.934,1011.4351,0,45,45,45,1,0.8,0.2,0.2,0.8,,,,,,,,,,,,,,,0.2725,,0.6,0.4,0.8,0.2,0.4,0.6,0.8,0.2,,,0.4726,,0.8,0.2,0.2,0.8,0.2,0.8,0.2,0.8,1,0
,,607ec7379eac7be04ab448e3,66fc9857d5ad11bba2701e0a,2024-10-02_02h48.51.167,mdp,2024.2.1,Win32,60.24096386,66fa4ebf79326e780c390304,,,,,,,,,,,,,,,,,,,,,1011.4354,1011.4354,1011.436,1012.8197,1,1,right,0.8747,,1012.8203,1013.8707,0,1,left,1013.8713,1015.0885,0,0,left,1,1015.0887,1015.0887,1015.0892,1016.5902,0,46,46,46,1,0.8,0.2,0.2,0.8,,,,,,,,,,,,,,,0.5391,,0.6,0.4,0.8,0.2,0.4,0.6,0.8,0.2,,,0.7105,,0.8,0.2,0.2,0.8,0.2,0.8,0.2,0.8,1,0
,,607ec7379eac7be04ab448e3,66fc9857d5ad11bba2701e0a,2024-10-02_02h48.51.167,mdp,2024.2.1,Win32,60.24096386,66fa4ebf79326e780c390304,,,,,,,,,,,,,,,,,,,,,1016.5904,1016.5904,1016.591,1018.0918,1,0,right,0.9893,,1018.0924,1019.5598,0,0,left,1019.5604,1021.2115,0,0,left,1,1021.2115,1021.2115,1021.212,1022.7129,0,47,47,47,1,0.8,0.2,0.2,0.8,,,,,,,,,,,,,,,0.9518,,0.6,0.4,0.8,0.2,0.4,0.6,0.8,0.2,,,1.1348,,0.8,0.2,0.2,0.8,0.2,0.8,0.2,0.8,1,0
,,607ec7379eac7be04ab448e3,66fc9857d5ad11bba2701e0a,2024-10-02_02h48.51.167,mdp,2024.2.1,Win32,60.24096386,66fa4ebf79326e780c390304,,,,,,,,,,,,,,,,,,,,,1022.7132,1022.7133,1022.7138,1023.6478,1,1,right,0.4201,,1023.6484,1025.032,1,0,right,1025.0325,1025.9664,0,0,left,1,1025.9664,1025.9664,1025.9669,1027.4679,0,48,48,48,1,0.8,0.2,0.2,0.8,,,,,,,,,,,,,,,0.8738,,0.6,0.4,0.8,0.2,0.4,0.6,0.8,0.2,,,0.4245,,0.8,0.2,0.2,0.8,0.2,0.8,0.2,0.8,1,0
,,607ec7379eac7be04ab448e3,66fc9857d5ad11bba2701e0a,2024-10-02_02h48.51.167,mdp,2024.2.1,Win32,60.24096386,66fa4ebf79326e780c390304,,,,,,,,,,,,,,,,,,,,,1027.4683,1027.4683,1027.4688,1028.3687,1,1,right,0.3924,,1028.3693,1029.3532,0,1,left,1029.3538,1031.0882,0,1,left,0,1031.0883,1031.0883,1031.0889,1032.5899,0,49,49,49,1,0.8,0.2,0.2,0.8,,,,,,,,,,,,,,,0.4745,,0.6,0.4,0.8,0.2,0.4,0.6,0.8,0.2,,,1.2307,,0.6,0.4,0.8,0.2,0.2,0.8,0.2,0.8,1,0
,,607ec7379eac7be04ab448e3,66fc9857d5ad11bba2701e0a,2024-10-02_02h48.51.167,mdp,2024.2.1,Win32,60.24096386,66fa4ebf79326e780c390304,,,,,,,,,,,,,,,,,,,,,,,,,,,,,,,,,,,,,,,,,,,,,,,,,,,,,,,,1032.5899,1071.0143,0,3,3,1,1,imgs/bear.png,imgs/pig.png,imgs/cat.png,imgs/elephant.png,imgs/goat.png,,,,,,,,,,,,,,,,,,,,,,,,
,,607ec7379eac7be04ab448e3,66fc9857d5ad11bba2701e0a,2024-10-02_02h48.51.167,mdp,2024.2.1,Win32,60.24096386,66fa4ebf79326e780c390304,,,,,,,,,,,,,,1,seqs/st1seq1.csv,1071.0215,1072.7638,space,1.2204,,1072.7654,1072.7654,1072.7658,1074.8163,1,1,right,1.514,,1074.8171,1074.8173,0,0,,1074.8177,1074.8179,0,0,,0,1074.8179,1074.8179,1074.8181,1076.3176,0,0,0,0,1,0.4,0.6,0.8,0.2,1,0,,,,,,,,,,,,,,,,,,,,,,,,,,,,,,,,,,,,
,,607ec7379eac7be04ab448e3,66fc9857d5ad11bba2701e0a,2024-10-02_02h48.51.167,mdp,2024.2.1,Win32,60.24096386,66fa4ebf79326e780c390304,,,,,,,,,,,,,,,,,,,,,1076.3179,1076.3179,1076.3185,1077.1016,0,0,left,0.2665,,1077.1022,1077.1024,0,0,,1077.1028,1077.1029,0,1,,1,1077.1029,1077.1029,1077.1032,1078.6032,0,1,1,1,1,0.4,0.6,0.8,0.2,1,0,,,,,,,,,,,,,,,,,,,,,,,,,,,,,,,,,,,,
,,607ec7379eac7be04ab448e3,66fc9857d5ad11bba2701e0a,2024-10-02_02h48.51.167,mdp,2024.2.1,Win32,60.24096386,66fa4ebf79326e780c390304,,,,,,,,,,,,,,,,,,,,,1078.6034,1078.6034,1078.6039,1079.3705,0,1,left,0.2602,,1079.3711,1079.3714,0,1,,1079.3717,1079.3718,0,0,,0,1079.3718,1079.3718,1079.372,1080.872,0,2,2,2,1,0.4,0.6,0.8,0.2,1,0,,,,,,,,,,,,,,,,,,,,,,,,,,,,,,,,,,,,
,,607ec7379eac7be04ab448e3,66fc9857d5ad11bba2701e0a,2024-10-02_02h48.51.167,mdp,2024.2.1,Win32,60.24096386,66fa4ebf79326e780c390304,,,,,,,,,,,,,,,,,,,,,1080.8723,1080.8723,1080.8729,1081.8404,0,0,left,0.4573,,1081.8421,1081.8426,0,0,,1081.8429,1081.8432,0,0,,1,1081.8432,1081.8432,1081.8434,1083.3412,0,3,3,3,1,0.8,0.2,0.2,0.8,1,0,,,,,,,,,,,,,,,,,,,,,,,,,,,,,,,,,,,,
,,607ec7379eac7be04ab448e3,66fc9857d5ad11bba2701e0a,2024-10-02_02h48.51.167,mdp,2024.2.1,Win32,60.24096386,66fa4ebf79326e780c390304,,,,,,,,,,,,,,,,,,,,,1083.3415,1083.3415,1083.342,1084.1253,1,0,right,0.2689,,1084.1259,1084.1262,0,1,,1084.1265,1084.1267,0,1,,1,1084.1267,1084.1267,1084.1269,1085.627,0,4,4,4,1,0.8,0.2,0.2,0.8,1,0,,,,,,,,,,,,,,,,,,,,,,,,,,,,,,,,,,,,
,,607ec7379eac7be04ab448e3,66fc9857d5ad11bba2701e0a,2024-10-02_02h48.51.167,mdp,2024.2.1,Win32,60.24096386,66fa4ebf79326e780c390304,,,,,,,,,,,,,,,,,,,,,1085.6271,1085.6271,1085.6277,1086.311,0,0,left,0.1782,,1086.3116,1086.3118,0,0,,1086.3121,1086.3123,0,0,,1,1086.3123,1086.3123,1086.3126,1087.8124,0,5,5,5,1,0.8,0.2,0.2,0.8,1,0,,,,,,,,,,,,,,,,,,,,,,,,,,,,,,,,,,,,
,,607ec7379eac7be04ab448e3,66fc9857d5ad11bba2701e0a,2024-10-02_02h48.51.167,mdp,2024.2.1,Win32,60.24096386,66fa4ebf79326e780c390304,,,,,,,,,,,,,,,,,,,,,1087.8126,1087.8126,1087.8131,1088.58,1,1,right,0.2585,,1088.5806,1088.581,0,1,,1088.5814,1088.5815,0,1,,0,1088.5815,1088.5815,1088.5818,1090.0815,0,6,6,6,1,0.8,0.2,0.2,0.8,1,0,,,,,,,,,,,,,,,,,,,,,,,,,,,,,,,,,,,,
,,607ec7379eac7be04ab448e3,66fc9857d5ad11bba2701e0a,2024-10-02_02h48.51.167,mdp,2024.2.1,Win32,60.24096386,66fa4ebf79326e780c390304,,,,,,,,,,,,,,,,,,,,,1090.0818,1090.0818,1090.0822,1091.633,1,1,right,1.0284,,1091.6341,1091.6355,0,0,,1091.6364,1091.6367,0,1,,0,1091.6367,1091.6367,1091.637,1093.1345,0,7,7,7,1,0.8,0.2,0.2,0.8,1,0,,,,,,,,,,,,,,,,,,,,,,,,,,,,,,,,,,,,
,,607ec7379eac7be04ab448e3,66fc9857d5ad11bba2701e0a,2024-10-02_02h48.51.167,mdp,2024.2.1,Win32,60.24096386,66fa4ebf79326e780c390304,,,,,,,,,,,,,,,,,,,,,1093.1347,1093.1347,1093.1353,1093.9354,0,1,left,0.2905,,1093.9359,1093.9362,0,1,,1093.9365,1093.9367,0,1,,0,1093.9367,1093.9367,1093.937,1095.4368,0,8,8,8,1,0.2,0.8,0.6,0.4,1,0,,,,,,,,,,,,,,,,,,,,,,,,,,,,,,,,,,,,
,,607ec7379eac7be04ab448e3,66fc9857d5ad11bba2701e0a,2024-10-02_02h48.51.167,mdp,2024.2.1,Win32,60.24096386,66fa4ebf79326e780c390304,,,,,,,,,,,,,,,,,,,,,1095.4369,1095.4369,1095.4374,1096.6881,1,0,right,0.7406,,1096.6887,1096.6889,0,1,,1096.6893,1096.6895,0,1,,1,1096.6895,1096.6895,1096.6898,1098.1898,0,9,9,9,1,0.2,0.8,0.6,0.4,1,0,,,,,,,,,,,,,,,,,,,,,,,,,,,,,,,,,,,,
,,607ec7379eac7be04ab448e3,66fc9857d5ad11bba2701e0a,2024-10-02_02h48.51.167,mdp,2024.2.1,Win32,60.24096386,66fa4ebf79326e780c390304,,,,,,,,,,,,,,,,,,,,,1098.1902,1098.1902,1098.1907,1098.9571,1,1,right,0.2466,,1098.9576,1098.958,0,1,,1098.9582,1098.9584,0,1,,0,1098.9584,1098.9584,1098.9586,1100.4585,0,10,10,10,1,0.2,0.8,0.6,0.4,1,0,,,,,,,,,,,,,,,,,,,,,,,,,,,,,,,,,,,,
,,607ec7379eac7be04ab448e3,66fc9857d5ad11bba2701e0a,2024-10-02_02h48.51.167,mdp,2024.2.1,Win32,60.24096386,66fa4ebf79326e780c390304,,,,,,,,,,,,,,,,,,,,,1100.4587,1100.4587,1100.4592,1101.3929,1,0,right,0.4202,,1101.3935,1101.3938,0,0,,1101.394,1101.3942,0,0,,1,1101.3942,1101.3942,1101.3945,1102.8946,0,11,11,11,1,0.2,0.8,0.6,0.4,1,0,,,,,,,,,,,,,,,,,,,,,,,,,,,,,,,,,,,,
,,607ec7379eac7be04ab448e3,66fc9857d5ad11bba2701e0a,2024-10-02_02h48.51.167,mdp,2024.2.1,Win32,60.24096386,66fa4ebf79326e780c390304,,,,,,,,,,,,,,,,,,,,,1102.8949,1102.8949,1102.8953,1103.7287,0,1,left,0.3042,,1103.7293,1103.7296,0,0,,1103.7298,1103.7301,0,0,,0,1103.7301,1103.7301,1103.7302,1105.2301,0,12,12,12,1,0.2,0.8,0.6,0.4,1,0,,,,,,,,,,,,,,,,,,,,,,,,,,,,,,,,,,,,
,,607ec7379eac7be04ab448e3,66fc9857d5ad11bba2701e0a,2024-10-02_02h48.51.167,mdp,2024.2.1,Win32,60.24096386,66fa4ebf79326e780c390304,,,,,,,,,,,,,,,,,,,,,1105.2304,1105.2304,1105.2309,1105.9976,1,0,right,0.2507,,1105.9983,1105.9986,0,0,,1105.9988,1105.999,0,0,,1,1105.9991,1105.9991,1105.9993,1107.499,0,13,13,13,1,0.2,0.8,0.6,0.4,1,0,,,,,,,,,,,,,,,,,,,,,,,,,,,,,,,,,,,,
,,607ec7379eac7be04ab448e3,66fc9857d5ad11bba2701e0a,2024-10-02_02h48.51.167,mdp,2024.2.1,Win32,60.24096386,66fa4ebf79326e780c390304,,,,,,,,,,,,,,,,,,,,,1107.4992,1107.4992,1107.4997,1108.1497,1,1,right,0.1467,,1108.1503,1108.1505,0,0,,1108.1508,1108.151,0,1,,0,1108.151,1108.151,1108.1512,1109.6512,0,14,14,14,1,0.2,0.8,0.6,0.4,1,0,,,,,,,,,,,,,,,,,,,,,,,,,,,,,,,,,,,,
,,607ec7379eac7be04ab448e3,66fc9857d5ad11bba2701e0a,2024-10-02_02h48.51.167,mdp,2024.2.1,Win32,60.24096386,66fa4ebf79326e780c390304,,,,,,,,,,,,,,,,,,,,,1109.6513,1109.6513,1109.6519,1110.452,1,1,right,0.2917,,1110.4526,1110.453,0,0,,1110.4532,1110.4534,0,0,,0,1110.4534,1110.4534,1110.4536,1111.9535,0,15,15,15,1,0.4,0.6,0.8,0.2,1,0,,,,,,,,,,,,,,,,,,,,,,,,,,,,,,,,,,,,
,,607ec7379eac7be04ab448e3,66fc9857d5ad11bba2701e0a,2024-10-02_02h48.51.167,mdp,2024.2.1,Win32,60.24096386,66fa4ebf79326e780c390304,,,,,,,,,,,,,,,,,,,,,1111.9537,1111.9537,1111.9541,1113.0215,1,1,right,0.5508,,1113.0221,1113.0224,0,0,,1113.0226,1113.0228,0,0,,0,1113.0229,1113.0229,1113.0231,1114.523,0,16,16,16,1,0.4,0.6,0.8,0.2,1,0,,,,,,,,,,,,,,,,,,,,,,,,,,,,,,,,,,,,
,,607ec7379eac7be04ab448e3,66fc9857d5ad11bba2701e0a,2024-10-02_02h48.51.167,mdp,2024.2.1,Win32,60.24096386,66fa4ebf79326e780c390304,,,,,,,,,,,,,,,,,,,,,1114.5233,1114.5233,1114.5238,1115.1902,0,0,left,0.1595,,1115.1907,1115.191,0,0,,1115.1913,1115.1915,0,1,,1,1115.1915,1115.1915,1115.1918,1116.6918,0,17,17,17,1,0.4,0.6,0.8,0.2,1,0,,,,,,,,,,,,,,,,,,,,,,,,,,,,,,,,,,,,
,,607ec7379eac7be04ab448e3,66fc9857d5ad11bba2701e0a,2024-10-02_02h48.51.167,mdp,2024.2.1,Win32,60.24096386,66fa4ebf79326e780c390304,,,,,,,,,,,,,,,,,,,,,1116.6921,1116.6921,1116.6926,1117.4591,0,0,left,0.2508,,1117.4598,1117.46,0,1,,1117.4603,1117.4605,0,1,,1,1117.4605,1117.4605,1117.4607,1118.9613,0,18,18,18,1,0.4,0.6,0.8,0.2,1,0,,,,,,,,,,,,,,,,,,,,,,,,,,,,,,,,,,,,
,,607ec7379eac7be04ab448e3,66fc9857d5ad11bba2701e0a,2024-10-02_02h48.51.167,mdp,2024.2.1,Win32,60.24096386,66fa4ebf79326e780c390304,,,,,,,,,,,,,,,,,,,,,1118.9614,1118.9614,1118.962,1119.7616,0,0,left,0.2674,,1119.7622,1119.7624,0,0,,1119.7627,1119.7629,0,0,,1,1119.7629,1119.7629,1119.7631,1121.2629,0,19,19,19,1,0.4,0.6,0.8,0.2,1,0,,,,,,,,,,,,,,,,,,,,,,,,,,,,,,,,,,,,
,,607ec7379eac7be04ab448e3,66fc9857d5ad11bba2701e0a,2024-10-02_02h48.51.167,mdp,2024.2.1,Win32,60.24096386,66fa4ebf79326e780c390304,,,,,,,,,,,,,,,,,,,,,1121.2631,1121.2631,1121.2637,1122.0807,1,0,right,0.3053,,1122.0812,1122.0815,0,0,,1122.0818,1122.082,0,1,,1,1122.082,1122.082,1122.0823,1123.5821,0,20,20,20,1,0.4,0.6,0.8,0.2,1,0,,,,,,,,,,,,,,,,,,,,,,,,,,,,,,,,,,,,
,,607ec7379eac7be04ab448e3,66fc9857d5ad11bba2701e0a,2024-10-02_02h48.51.167,mdp,2024.2.1,Win32,60.24096386,66fa4ebf79326e780c390304,,,,,,,,,,,,,,,,,,,,,1123.5823,1123.5823,1123.5829,1124.3662,1,0,right,0.2676,,1124.3667,1124.367,0,1,,1124.3673,1124.3675,0,0,,1,1124.3675,1124.3675,1124.3678,1125.8677,0,21,21,21,1,0.4,0.6,0.8,0.2,1,0,,,,,,,,,,,,,,,,,,,,,,,,,,,,,,,,,,,,
,,607ec7379eac7be04ab448e3,66fc9857d5ad11bba2701e0a,2024-10-02_02h48.51.167,mdp,2024.2.1,Win32,60.24096386,66fa4ebf79326e780c390304,,,,,,,,,,,,,,,,,,,,,1125.8681,1125.8681,1125.8686,1126.6685,1,1,right,0.2964,,1126.6691,1126.6694,0,0,,1126.6696,1126.6698,0,1,,0,1126.6699,1126.6699,1126.6701,1128.1703,0,22,22,22,1,0.4,0.6,0.8,0.2,1,0,,,,,,,,,,,,,,,,,,,,,,,,,,,,,,,,,,,,
,,607ec7379eac7be04ab448e3,66fc9857d5ad11bba2701e0a,2024-10-02_02h48.51.167,mdp,2024.2.1,Win32,60.24096386,66fa4ebf79326e780c390304,,,,,,,,,,,,,,,,,,,,,1128.1704,1128.1704,1128.171,1128.8041,0,1,left,0.1176,,1128.8048,1128.805,0,1,,1128.8053,1128.8055,0,1,,0,1128.8055,1128.8055,1128.8058,1130.3055,0,23,23,23,1,0.2,0.8,0.6,0.4,1,0,,,,,,,,,,,,,,,,,,,,,,,,,,,,,,,,,,,,
,,607ec7379eac7be04ab448e3,66fc9857d5ad11bba2701e0a,2024-10-02_02h48.51.167,mdp,2024.2.1,Win32,60.24096386,66fa4ebf79326e780c390304,,,,,,,,,,,,,,,,,,,,,1130.3058,1130.3058,1130.3063,1130.9897,1,1,right,0.1735,,1130.9902,1130.9905,0,0,,1130.9908,1130.991,0,1,,0,1130.991,1130.991,1130.9912,1132.4912,0,24,24,24,1,0.2,0.8,0.6,0.4,1,0,,,,,,,,,,,,,,,,,,,,,,,,,,,,,,,,,,,,
,,607ec7379eac7be04ab448e3,66fc9857d5ad11bba2701e0a,2024-10-02_02h48.51.167,mdp,2024.2.1,Win32,60.24096386,66fa4ebf79326e780c390304,,,,,,,,,,,,,,,,,,,,,1132.4915,1132.4915,1132.4919,1133.3252,1,1,right,0.3234,,1133.3259,1133.3262,0,0,,1133.3264,1133.3266,0,0,,0,1133.3266,1133.3266,1133.3269,1134.8268,0,25,25,25,1,0.2,0.8,0.6,0.4,1,0,,,,,,,,,,,,,,,,,,,,,,,,,,,,,,,,,,,,
,,607ec7379eac7be04ab448e3,66fc9857d5ad11bba2701e0a,2024-10-02_02h48.51.167,mdp,2024.2.1,Win32,60.24096386,66fa4ebf79326e780c390304,,,,,,,,,,,,,,,,,,,,,1134.827,1134.827,1134.8275,1135.5108,0,1,left,0.1668,,1135.5114,1135.5118,0,1,,1135.5122,1135.5124,0,1,,0,1135.5124,1135.5124,1135.5126,1137.0124,0,26,26,26,1,0.2,0.8,0.6,0.4,1,0,,,,,,,,,,,,,,,,,,,,,,,,,,,,,,,,,,,,
,,607ec7379eac7be04ab448e3,66fc9857d5ad11bba2701e0a,2024-10-02_02h48.51.167,mdp,2024.2.1,Win32,60.24096386,66fa4ebf79326e780c390304,,,,,,,,,,,,,,,,,,,,,1137.0127,1137.0127,1137.0131,1137.78,0,0,left,0.2556,,1137.7806,1137.781,0,0,,1137.7814,1137.7816,0,0,,1,1137.7816,1137.7816,1137.7818,1139.2814,0,27,27,27,1,0.6,0.4,0.4,0.6,1,0,,,,,,,,,,,,,,,,,,,,,,,,,,,,,,,,,,,,
,,607ec7379eac7be04ab448e3,66fc9857d5ad11bba2701e0a,2024-10-02_02h48.51.167,mdp,2024.2.1,Win32,60.24096386,66fa4ebf79326e780c390304,,,,,,,,,,,,,,,,,,,,,1139.2817,1139.2817,1139.2822,1140.0821,0,1,left,0.2783,,1140.0828,1140.0832,0,1,,1140.0834,1140.0837,0,1,,0,1140.0837,1140.0837,1140.084,1141.5837,0,28,28,28,1,0.6,0.4,0.4,0.6,1,0,,,,,,,,,,,,,,,,,,,,,,,,,,,,,,,,,,,,
,,607ec7379eac7be04ab448e3,66fc9857d5ad11bba2701e0a,2024-10-02_02h48.51.167,mdp,2024.2.1,Win32,60.24096386,66fa4ebf79326e780c390304,,,,,,,,,,,,,,,,,,,,,1141.5839,1141.5839,1141.5844,1142.4179,1,1,right,0.3184,,1142.4185,1142.4188,0,1,,1142.419,1142.4192,0,1,,0,1142.4192,1142.4192,1142.4195,1143.9192,0,29,29,29,1,0.6,0.4,0.4,0.6,1,0,,,,,,,,,,,,,,,,,,,,,,,,,,,,,,,,,,,,
,,607ec7379eac7be04ab448e3,66fc9857d5ad11bba2701e0a,2024-10-02_02h48.51.167,mdp,2024.2.1,Win32,60.24096386,66fa4ebf79326e780c390304,,,,,,,,,,,,,,,,,,,,,1143.9194,1143.9194,1143.9199,1144.57,1,1,right,0.1457,,1144.5706,1144.5709,0,0,,1144.5712,1144.5713,0,1,,0,1144.5713,1144.5713,1144.5716,1146.0715,0,30,30,30,1,0.6,0.4,0.4,0.6,1,0,,,,,,,,,,,,,,,,,,,,,,,,,,,,,,,,,,,,
,,607ec7379eac7be04ab448e3,66fc9857d5ad11bba2701e0a,2024-10-02_02h48.51.167,mdp,2024.2.1,Win32,60.24096386,66fa4ebf79326e780c390304,,,,,,,,,,,,,,,,,,,,,1146.0717,1146.0717,1146.0722,1146.8723,1,0,right,0.2866,,1146.8729,1146.8733,0,0,,1146.8735,1146.8737,0,0,,1,1146.8737,1146.8737,1146.8739,1148.3739,0,31,31,31,1,0.6,0.4,0.4,0.6,1,0,,,,,,,,,,,,,,,,,,,,,,,,,,,,,,,,,,,,
,,607ec7379eac7be04ab448e3,66fc9857d5ad11bba2701e0a,2024-10-02_02h48.51.167,mdp,2024.2.1,Win32,60.24096386,66fa4ebf79326e780c390304,,,,,,,,,,,,,,,,,,,,,1148.3742,1148.3742,1148.3746,1149.158,1,0,right,0.2767,,1149.1587,1149.1591,0,1,,1149.1594,1149.1597,0,0,,1,1149.1597,1149.1597,1149.1599,1150.6596,0,32,32,32,1,0.6,0.4,0.4,0.6,1,0,,,,,,,,,,,,,,,,,,,,,,,,,,,,,,,,,,,,
,,607ec7379eac7be04ab448e3,66fc9857d5ad11bba2701e0a,2024-10-02_02h48.51.167,mdp,2024.2.1,Win32,60.24096386,66fa4ebf79326e780c390304,,,,,,,,,,,,,,,,,,,,,1150.6598,1150.6598,1150.6603,1151.4438,0,1,left,0.2793,,1151.4445,1151.4447,0,1,,1151.445,1151.4452,0,0,,0,1151.4452,1151.4452,1151.4454,1152.9452,0,33,33,33,1,0.6,0.4,0.4,0.6,1,0,,,,,,,,,,,,,,,,,,,,,,,,,,,,,,,,,,,,
,,607ec7379eac7be04ab448e3,66fc9857d5ad11bba2701e0a,2024-10-02_02h48.51.167,mdp,2024.2.1,Win32,60.24096386,66fa4ebf79326e780c390304,,,,,,,,,,,,,,,,,,,,,1152.9454,1152.9454,1152.9459,1153.7293,0,0,left,0.2718,,1153.7299,1153.7302,0,1,,1153.7305,1153.7306,0,0,,1,1153.7306,1153.7306,1153.7308,1155.2311,0,34,34,34,1,0.6,0.4,0.4,0.6,1,0,,,,,,,,,,,,,,,,,,,,,,,,,,,,,,,,,,,,
,,607ec7379eac7be04ab448e3,66fc9857d5ad11bba2701e0a,2024-10-02_02h48.51.167,mdp,2024.2.1,Win32,60.24096386,66fa4ebf79326e780c390304,,,,,,,,,,,,,,,,,,,,,1155.2313,1155.2313,1155.2318,1156.3486,0,1,left,0.6007,,1156.3492,1156.3495,0,1,,1156.3498,1156.35,0,1,,0,1156.35,1156.35,1156.3503,1157.8502,0,35,35,35,1,0.2,0.8,0.6,0.4,1,0,,,,,,,,,,,,,,,,,,,,,,,,,,,,,,,,,,,,
,,607ec7379eac7be04ab448e3,66fc9857d5ad11bba2701e0a,2024-10-02_02h48.51.167,mdp,2024.2.1,Win32,60.24096386,66fa4ebf79326e780c390304,,,,,,,,,,,,,,,,,,,,,1157.8504,1157.8504,1157.8509,1158.9012,0,1,left,0.5371,,1158.9018,1158.9022,0,1,,1158.9025,1158.9027,0,1,,0,1158.9027,1158.9027,1158.903,1160.4026,0,36,36,36,1,0.2,0.8,0.6,0.4,1,0,,,,,,,,,,,,,,,,,,,,,,,,,,,,,,,,,,,,
,,607ec7379eac7be04ab448e3,66fc9857d5ad11bba2701e0a,2024-10-02_02h48.51.167,mdp,2024.2.1,Win32,60.24096386,66fa4ebf79326e780c390304,,,,,,,,,,,,,,,,,,,,,1160.4028,1160.4028,1160.4034,1160.9701,1,1,right,0.0503,,1160.9706,1160.9709,0,0,,1160.9712,1160.9714,0,0,,0,1160.9714,1160.9714,1160.9716,1162.4717,0,37,37,37,1,0.2,0.8,0.6,0.4,1,0,,,,,,,,,,,,,,,,,,,,,,,,,,,,,,,,,,,,
,,607ec7379eac7be04ab448e3,66fc9857d5ad11bba2701e0a,2024-10-02_02h48.51.167,mdp,2024.2.1,Win32,60.24096386,66fa4ebf79326e780c390304,,,,,,,,,,,,,,,,,,,,,1162.472,1162.472,1162.4725,1163.4894,1,1,right,0.4936,,1163.49,1163.4903,0,0,,1163.4906,1163.4907,0,0,,0,1163.4908,1163.4908,1163.491,1164.9907,0,38,38,38,1,0.2,0.8,0.6,0.4,1,0,,,,,,,,,,,,,,,,,,,,,,,,,,,,,,,,,,,,
,,607ec7379eac7be04ab448e3,66fc9857d5ad11bba2701e0a,2024-10-02_02h48.51.167,mdp,2024.2.1,Win32,60.24096386,66fa4ebf79326e780c390304,,,,,,,,,,,,,,,,,,,,,1164.9909,1164.9909,1164.9913,1166.5592,1,0,right,1.0546,,1166.5599,1166.5602,0,1,,1166.5605,1166.5606,0,0,,1,1166.5607,1166.5607,1166.5609,1168.0607,0,39,39,39,1,0.2,0.8,0.6,0.4,1,0,,,,,,,,,,,,,,,,,,,,,,,,,,,,,,,,,,,,
,,607ec7379eac7be04ab448e3,66fc9857d5ad11bba2701e0a,2024-10-02_02h48.51.167,mdp,2024.2.1,Win32,60.24096386,66fa4ebf79326e780c390304,,,,,,,,,,,,,,,,,,,,,1168.061,1168.061,1168.0617,1168.7947,1,0,right,0.226,,1168.7953,1168.7956,0,0,,1168.7959,1168.7961,0,1,,1,1168.7961,1168.7961,1168.7963,1170.2962,0,40,40,40,1,0.2,0.8,0.6,0.4,1,0,,,,,,,,,,,,,,,,,,,,,,,,,,,,,,,,,,,,
,,607ec7379eac7be04ab448e3,66fc9857d5ad11bba2701e0a,2024-10-02_02h48.51.167,mdp,2024.2.1,Win32,60.24096386,66fa4ebf79326e780c390304,,,,,,,,,,,,,,,,,,,,,1170.2964,1170.2964,1170.2969,1171.0136,1,1,right,0.2135,,1171.0142,1171.0145,0,1,,1171.0148,1171.0149,0,0,,0,1171.0149,1171.0149,1171.0152,1172.5151,0,41,41,41,1,0.2,0.8,0.6,0.4,1,0,,,,,,,,,,,,,,,,,,,,,,,,,,,,,,,,,,,,
