init_exp.started,init_exp.stopped,participant,session,date,expName,psychopyVersion,OS,frameRate,study_id,disp_instruction.started,disp_instruction.stopped,instruction.thisRepN,instruction.thisTrialN,instruction.thisN,instruction.thisIndex,instruction.ran,instimg_path,consent.started,consent.stopped,key_resp_3.keys,key_resp_3.rt,key_resp_3.duration,n_steps,sequence_path,init_block.started,init_block.stopped,key_resp.keys,key_resp.rt,key_resp.duration,init_trials.started,init_trials.stopped,step0.started,step0.stopped,act0,s1,res0.keys,res0.rt,res0.duration,step1.started,step1.stopped,act1,s2,res1.keys,step2.started,step2.stopped,act2,s3,res2.keys,rew,reward_comp.started,reward_comp.stopped,reward_disp.started,reward_disp.stopped,trials.thisRepN,trials.thisTrialN,trials.thisN,trials.thisIndex,trials.ran,s00a0s10,s00a0s11,s00a1s10,s00a1s11,rew10,rew11,break_block.started,break_block.stopped,block.thisRepN,block.thisTrialN,block.thisN,block.thisIndex,block.ran,s00path,s10path,s11path,s20path,s21path,res1.rt,res1.duration,s10a0s20,s10a0s21,s10a1s20,s10a1s21,s11a0s20,s11a0s21,s11a1s20,s11a1s21,rew20,rew21,res2.rt,res2.duration,s20a0s30,s20a0s31,s20a1s30,s20a1s31,s21a0s30,s21a0s31,s21a1s30,s21a1s31,rew30,rew31
0.0005,0.0017,60ce038ef5cec7f1cb716182,66daf5cd020cb54317c8e216,2024-09-06_14h31.42.333,mdp,2024.2.1,Win32,59.52380952,66d7945b1baad48e845df3ce,,,,,,,,,,,,,,,,,,,,,,,,,,,,,,,,,,,,,,,,,,,,,,,,,,,,,,,,,,,,,,,,,,,,,,,,,,,,,,,,,,,,,,,,,,,
,,60ce038ef5cec7f1cb716182,66daf5cd020cb54317c8e216,2024-09-06_14h31.42.333,mdp,2024.2.1,Win32,59.52380952,66d7945b1baad48e845df3ce,0.0053,24.3045,0,0,0,0,1,rlnn_exp/rlnn_exp.001.png,,,,,,,,,,,,,,,,,,,,,,,,,,,,,,,,,,,,,,,,,,,,,,,,,,,,,,,,,,,,,,,,,,,,,,,,,,,,,,,,,,,
,,60ce038ef5cec7f1cb716182,66daf5cd020cb54317c8e216,2024-09-06_14h31.42.333,mdp,2024.2.1,Win32,59.52380952,66d7945b1baad48e845df3ce,24.3052,34.3984,0,1,1,1,1,rlnn_exp/rlnn_exp.002.png,,,,,,,,,,,,,,,,,,,,,,,,,,,,,,,,,,,,,,,,,,,,,,,,,,,,,,,,,,,,,,,,,,,,,,,,,,,,,,,,,,,
,,60ce038ef5cec7f1cb716182,66daf5cd020cb54317c8e216,2024-09-06_14h31.42.333,mdp,2024.2.1,Win32,59.52380952,66d7945b1baad48e845df3ce,34.4088,46.8636,0,2,2,2,1,rlnn_exp/rlnn_exp.003.png,,,,,,,,,,,,,,,,,,,,,,,,,,,,,,,,,,,,,,,,,,,,,,,,,,,,,,,,,,,,,,,,,,,,,,,,,,,,,,,,,,,
,,60ce038ef5cec7f1cb716182,66daf5cd020cb54317c8e216,2024-09-06_14h31.42.333,mdp,2024.2.1,Win32,59.52380952,66d7945b1baad48e845df3ce,46.8789,67.7002,0,3,3,3,1,rlnn_exp/rlnn_exp.004.png,,,,,,,,,,,,,,,,,,,,,,,,,,,,,,,,,,,,,,,,,,,,,,,,,,,,,,,,,,,,,,,,,,,,,,,,,,,,,,,,,,,
,,60ce038ef5cec7f1cb716182,66daf5cd020cb54317c8e216,2024-09-06_14h31.42.333,mdp,2024.2.1,Win32,59.52380952,66d7945b1baad48e845df3ce,,,,,,,,,67.715,93.5578,y,15.8093,,,,,,,,,,,,,,,,,,,,,,,,,,,,,,,,,,,,,,,,,,,,,,,,,,,,,,,,,,,,,,,,,,,,,,,,,,,,,,,
,,60ce038ef5cec7f1cb716182,66daf5cd020cb54317c8e216,2024-09-06_14h31.42.333,mdp,2024.2.1,Win32,59.52380952,66d7945b1baad48e845df3ce,,,,,,,,,,,,,,1,seqs/st1seq15.csv,93.569,98.1751,space,4.0895,,98.1903,98.1903,98.1907,105.824,1,0,right,7.1108,,105.8372,105.8395,,1,,105.84,105.8413,,0,,1,105.8413,105.8414,105.8417,107.3406,0,0,0,0,1,0.2,0.8,0.8,0.2,1,0,,,,,,,,,,,,,,,,,,,,,,,,,,,,,,,,,,,,
,,60ce038ef5cec7f1cb716182,66daf5cd020cb54317c8e216,2024-09-06_14h31.42.333,mdp,2024.2.1,Win32,59.52380952,66d7945b1baad48e845df3ce,,,,,,,,,,,,,,,,,,,,,107.3426,107.3426,107.3443,109.7735,1,0,right,1.8853,,109.7875,109.7887,,0,,109.7896,109.7904,,0,,1,109.7904,109.7905,109.7912,111.2888,0,1,1,1,1,0.2,0.8,0.8,0.2,1,0,,,,,,,,,,,,,,,,,,,,,,,,,,,,,,,,,,,,
,,60ce038ef5cec7f1cb716182,66daf5cd020cb54317c8e216,2024-09-06_14h31.42.333,mdp,2024.2.1,Win32,59.52380952,66d7945b1baad48e845df3ce,,,,,,,,,,,,,,,,,,,,,111.2893,111.2893,111.2918,114.6887,1,1,right,2.8732,,114.6997,114.7004,,1,,114.7013,114.7019,,0,,0,114.7019,114.7019,114.7023,116.2051,0,2,2,2,1,0.2,0.8,0.8,0.2,1,0,,,,,,,,,,,,,,,,,,,,,,,,,,,,,,,,,,,,
,,60ce038ef5cec7f1cb716182,66daf5cd020cb54317c8e216,2024-09-06_14h31.42.333,mdp,2024.2.1,Win32,59.52380952,66d7945b1baad48e845df3ce,,,,,,,,,,,,,,,,,,,,,116.2062,116.2062,116.2084,118.6049,0,1,left,1.8519,,118.6069,118.608,,1,,118.6089,118.6096,,1,,0,118.6097,118.6097,118.6101,120.1078,0,3,3,3,1,0.2,0.8,0.8,0.2,1,0,,,,,,,,,,,,,,,,,,,,,,,,,,,,,,,,,,,,
,,60ce038ef5cec7f1cb716182,66daf5cd020cb54317c8e216,2024-09-06_14h31.42.333,mdp,2024.2.1,Win32,59.52380952,66d7945b1baad48e845df3ce,,,,,,,,,,,,,,,,,,,,,120.1083,120.1083,120.1098,121.1587,0,0,left,0.5161,,121.1601,121.161,,1,,121.1616,121.1624,,1,,1,121.1624,121.1624,121.163,122.6544,0,4,4,4,1,0.2,0.8,0.8,0.2,1,0,,,,,,,,,,,,,,,,,,,,,,,,,,,,,,,,,,,,
,,60ce038ef5cec7f1cb716182,66daf5cd020cb54317c8e216,2024-09-06_14h31.42.333,mdp,2024.2.1,Win32,59.52380952,66d7945b1baad48e845df3ce,,,,,,,,,,,,,,,,,,,,,122.6553,122.6553,122.6572,124.0711,1,0,right,0.8801,,124.0732,124.0746,,0,,124.0754,124.0763,,1,,1,124.0763,124.0763,124.0769,125.5706,0,5,5,5,1,0.2,0.8,0.8,0.2,1,0,,,,,,,,,,,,,,,,,,,,,,,,,,,,,,,,,,,,
,,60ce038ef5cec7f1cb716182,66daf5cd020cb54317c8e216,2024-09-06_14h31.42.333,mdp,2024.2.1,Win32,59.52380952,66d7945b1baad48e845df3ce,,,,,,,,,,,,,,,,,,,,,125.572,125.572,125.5743,126.62,0,0,left,0.539,,126.6215,126.6224,,0,,126.6232,126.624,,1,,1,126.624,126.624,126.6246,128.1245,0,6,6,6,1,0.2,0.8,0.8,0.2,1,0,,,,,,,,,,,,,,,,,,,,,,,,,,,,,,,,,,,,
,,60ce038ef5cec7f1cb716182,66daf5cd020cb54317c8e216,2024-09-06_14h31.42.333,mdp,2024.2.1,Win32,59.52380952,66d7945b1baad48e845df3ce,,,,,,,,,,,,,,,,,,,,,128.125,128.125,128.1271,129.2042,0,1,left,0.5506,,129.2059,129.207,,1,,129.2078,129.2085,,1,,0,129.2086,129.2086,129.2092,130.7074,0,7,7,7,1,0.2,0.8,0.8,0.2,1,0,,,,,,,,,,,,,,,,,,,,,,,,,,,,,,,,,,,,
,,60ce038ef5cec7f1cb716182,66daf5cd020cb54317c8e216,2024-09-06_14h31.42.333,mdp,2024.2.1,Win32,59.52380952,66d7945b1baad48e845df3ce,,,,,,,,,,,,,,,,,,,,,130.7079,130.7081,130.7099,132.1199,0,1,left,0.8903,,132.1219,132.1229,,0,,132.1237,132.1244,,1,,0,132.1245,132.1245,132.1252,133.6232,0,8,8,8,1,0.2,0.8,0.8,0.2,1,0,,,,,,,,,,,,,,,,,,,,,,,,,,,,,,,,,,,,
,,60ce038ef5cec7f1cb716182,66daf5cd020cb54317c8e216,2024-09-06_14h31.42.333,mdp,2024.2.1,Win32,59.52380952,66d7945b1baad48e845df3ce,,,,,,,,,,,,,,,,,,,,,133.6239,133.624,133.6255,134.9194,1,0,right,0.7511,,134.9217,134.923,,0,,134.9238,134.9248,,0,,1,134.9248,134.9248,134.9255,136.4191,0,9,9,9,1,0.2,0.8,0.8,0.2,1,0,,,,,,,,,,,,,,,,,,,,,,,,,,,,,,,,,,,,
,,60ce038ef5cec7f1cb716182,66daf5cd020cb54317c8e216,2024-09-06_14h31.42.333,mdp,2024.2.1,Win32,59.52380952,66d7945b1baad48e845df3ce,,,,,,,,,,,,,,,,,,,,,136.4198,136.4198,136.4216,137.621,1,0,right,0.6651,,137.6225,137.6236,,0,,137.6246,137.6254,,0,,1,137.6255,137.6255,137.6272,139.119,0,10,10,10,1,0.4,0.6,0.6,0.4,1,0,,,,,,,,,,,,,,,,,,,,,,,,,,,,,,,,,,,,
,,60ce038ef5cec7f1cb716182,66daf5cd020cb54317c8e216,2024-09-06_14h31.42.333,mdp,2024.2.1,Win32,59.52380952,66d7945b1baad48e845df3ce,,,,,,,,,,,,,,,,,,,,,139.1195,139.1197,139.1215,140.0683,0,1,left,0.4398,,140.0704,140.0714,,1,,140.0723,140.0731,,1,,0,140.0732,140.0732,140.0739,141.5688,0,11,11,11,1,0.4,0.6,0.6,0.4,1,0,,,,,,,,,,,,,,,,,,,,,,,,,,,,,,,,,,,,
,,60ce038ef5cec7f1cb716182,66daf5cd020cb54317c8e216,2024-09-06_14h31.42.333,mdp,2024.2.1,Win32,59.52380952,66d7945b1baad48e845df3ce,,,,,,,,,,,,,,,,,,,,,141.5695,141.5701,141.5721,142.6185,1,1,right,0.5126,,142.6201,142.6212,,1,,142.6221,142.6229,,0,,0,142.623,142.623,142.6236,144.1208,0,12,12,12,1,0.4,0.6,0.6,0.4,1,0,,,,,,,,,,,,,,,,,,,,,,,,,,,,,,,,,,,,
,,60ce038ef5cec7f1cb716182,66daf5cd020cb54317c8e216,2024-09-06_14h31.42.333,mdp,2024.2.1,Win32,59.52380952,66d7945b1baad48e845df3ce,,,,,,,,,,,,,,,,,,,,,144.1215,144.1215,144.1232,145.4016,1,0,right,0.7513,,145.404,145.405,,1,,145.4057,145.4066,,1,,1,145.4066,145.4066,145.4072,146.9013,0,13,13,13,1,0.4,0.6,0.6,0.4,1,0,,,,,,,,,,,,,,,,,,,,,,,,,,,,,,,,,,,,
,,60ce038ef5cec7f1cb716182,66daf5cd020cb54317c8e216,2024-09-06_14h31.42.333,mdp,2024.2.1,Win32,59.52380952,66d7945b1baad48e845df3ce,,,,,,,,,,,,,,,,,,,,,146.9022,146.9022,146.9037,148.0009,0,0,left,0.5886,,148.0027,148.0038,,1,,148.0047,148.0053,,0,,1,148.0053,148.0053,148.0058,149.5012,0,14,14,14,1,0.6,0.4,0.8,0.2,1,0,,,,,,,,,,,,,,,,,,,,,,,,,,,,,,,,,,,,
,,60ce038ef5cec7f1cb716182,66daf5cd020cb54317c8e216,2024-09-06_14h31.42.333,mdp,2024.2.1,Win32,59.52380952,66d7945b1baad48e845df3ce,,,,,,,,,,,,,,,,,,,,,149.5022,149.5022,149.5043,150.4883,0,0,left,0.4608,,150.49,150.4911,,1,,150.4919,150.4927,,1,,1,150.4927,150.4927,150.4934,151.984,0,15,15,15,1,0.2,0.8,0.6,0.4,1,0,,,,,,,,,,,,,,,,,,,,,,,,,,,,,,,,,,,,
,,60ce038ef5cec7f1cb716182,66daf5cd020cb54317c8e216,2024-09-06_14h31.42.333,mdp,2024.2.1,Win32,59.52380952,66d7945b1baad48e845df3ce,,,,,,,,,,,,,,,,,,,,,151.9846,151.9846,151.9865,153.0339,1,1,right,0.5239,,153.036,153.0368,,1,,153.0375,153.0382,,0,,0,153.0383,153.0383,153.0389,154.5338,0,16,16,16,1,0.2,0.8,0.6,0.4,1,0,,,,,,,,,,,,,,,,,,,,,,,,,,,,,,,,,,,,
,,60ce038ef5cec7f1cb716182,66daf5cd020cb54317c8e216,2024-09-06_14h31.42.333,mdp,2024.2.1,Win32,59.52380952,66d7945b1baad48e845df3ce,,,,,,,,,,,,,,,,,,,,,154.5349,154.5349,154.5366,155.4668,0,1,left,0.4093,,155.4688,155.4697,,1,,155.4704,155.4711,,1,,0,155.4712,155.4712,155.4718,156.9668,0,17,17,17,1,0.6,0.4,0.2,0.8,1,0,,,,,,,,,,,,,,,,,,,,,,,,,,,,,,,,,,,,
,,60ce038ef5cec7f1cb716182,66daf5cd020cb54317c8e216,2024-09-06_14h31.42.333,mdp,2024.2.1,Win32,59.52380952,66d7945b1baad48e845df3ce,,,,,,,,,,,,,,,,,,,,,156.9679,156.9679,156.9703,158.6168,0,0,left,1.1195,,158.6188,158.6199,,0,,158.6208,158.6215,,0,,1,158.6215,158.6215,158.6226,160.1164,0,18,18,18,1,0.6,0.4,0.2,0.8,1,0,,,,,,,,,,,,,,,,,,,,,,,,,,,,,,,,,,,,
,,60ce038ef5cec7f1cb716182,66daf5cd020cb54317c8e216,2024-09-06_14h31.42.333,mdp,2024.2.1,Win32,59.52380952,66d7945b1baad48e845df3ce,,,,,,,,,,,,,,,,,,,,,160.117,160.117,160.1186,160.7331,1,1,right,0.0859,,160.7356,160.7366,,1,,160.7374,160.7382,,1,,0,160.7382,160.7382,160.7388,162.2324,0,19,19,19,1,0.6,0.4,0.2,0.8,1,0,,,,,,,,,,,,,,,,,,,,,,,,,,,,,,,,,,,,
,,60ce038ef5cec7f1cb716182,66daf5cd020cb54317c8e216,2024-09-06_14h31.42.333,mdp,2024.2.1,Win32,59.52380952,66d7945b1baad48e845df3ce,,,,,,,,,,,,,,,,,,,,,162.2331,162.2331,162.2348,163.8324,1,0,right,1.0762,,163.8341,163.8351,,0,,163.8357,163.8363,,0,,1,163.8363,163.8363,163.8369,165.3326,0,20,20,20,1,0.4,0.6,0.8,0.2,1,0,,,,,,,,,,,,,,,,,,,,,,,,,,,,,,,,,,,,
,,60ce038ef5cec7f1cb716182,66daf5cd020cb54317c8e216,2024-09-06_14h31.42.333,mdp,2024.2.1,Win32,59.52380952,66d7945b1baad48e845df3ce,,,,,,,,,,,,,,,,,,,,,165.3333,165.3333,165.3345,168.0152,1,0,right,2.1399,,168.0278,168.0284,,1,,168.0289,168.0294,,0,,1,168.0295,168.0295,168.0301,169.5172,0,21,21,21,1,0.4,0.6,0.8,0.2,1,0,,,,,,,,,,,,,,,,,,,,,,,,,,,,,,,,,,,,
,,60ce038ef5cec7f1cb716182,66daf5cd020cb54317c8e216,2024-09-06_14h31.42.333,mdp,2024.2.1,Win32,59.52380952,66d7945b1baad48e845df3ce,,,,,,,,,,,,,,,,,,,,,169.5179,169.5179,169.52,170.6525,0,0,left,0.6294,,170.6544,170.6553,,1,,170.6559,170.6566,,0,,1,170.6567,170.6567,170.6573,172.1483,0,22,22,22,1,0.8,0.2,0.6,0.4,1,0,,,,,,,,,,,,,,,,,,,,,,,,,,,,,,,,,,,,
,,60ce038ef5cec7f1cb716182,66daf5cd020cb54317c8e216,2024-09-06_14h31.42.333,mdp,2024.2.1,Win32,59.52380952,66d7945b1baad48e845df3ce,,,,,,,,,,,,,,,,,,,,,172.1501,172.1501,172.1512,178.1806,1,0,right,5.5042,,178.1984,178.2002,,0,,178.201,178.2017,,0,,1,178.2018,178.2018,178.2024,179.6972,0,23,23,23,1,0.6,0.4,0.8,0.2,1,0,,,,,,,,,,,,,,,,,,,,,,,,,,,,,,,,,,,,
,,60ce038ef5cec7f1cb716182,66daf5cd020cb54317c8e216,2024-09-06_14h31.42.333,mdp,2024.2.1,Win32,59.52380952,66d7945b1baad48e845df3ce,,,,,,,,,,,,,,,,,,,,,179.6978,179.6979,179.6994,182.4464,0,0,left,2.2213,,182.4601,182.4607,,0,,182.4613,182.4618,,0,,1,182.4618,182.4618,182.4624,183.9622,0,24,24,24,1,0.6,0.4,0.8,0.2,1,0,,,,,,,,,,,,,,,,,,,,,,,,,,,,,,,,,,,,
,,60ce038ef5cec7f1cb716182,66daf5cd020cb54317c8e216,2024-09-06_14h31.42.333,mdp,2024.2.1,Win32,59.52380952,66d7945b1baad48e845df3ce,,,,,,,,,,,,,,,,,,,,,183.9626,183.9626,183.9636,185.0126,0,1,left,0.5271,,185.0139,185.0146,,1,,185.0151,185.0156,,0,,0,185.0156,185.0156,185.0159,186.5123,0,25,25,25,1,0.6,0.4,0.8,0.2,1,0,,,,,,,,,,,,,,,,,,,,,,,,,,,,,,,,,,,,
,,60ce038ef5cec7f1cb716182,66daf5cd020cb54317c8e216,2024-09-06_14h31.42.333,mdp,2024.2.1,Win32,59.52380952,66d7945b1baad48e845df3ce,,,,,,,,,,,,,,,,,,,,,186.5129,186.5129,186.514,187.5126,0,1,left,0.4708,,187.5147,187.5158,,0,,187.5165,187.517,,0,,0,187.5171,187.5171,187.5176,189.013,0,26,26,26,1,0.8,0.2,0.2,0.8,1,0,,,,,,,,,,,,,,,,,,,,,,,,,,,,,,,,,,,,
,,60ce038ef5cec7f1cb716182,66daf5cd020cb54317c8e216,2024-09-06_14h31.42.333,mdp,2024.2.1,Win32,59.52380952,66d7945b1baad48e845df3ce,,,,,,,,,,,,,,,,,,,,,189.0135,189.0135,189.0154,190.0621,0,0,left,0.5415,,190.0643,190.0652,,1,,190.0662,190.0669,,0,,1,190.0669,190.0669,190.0674,191.5623,0,27,27,27,1,0.8,0.2,0.2,0.8,1,0,,,,,,,,,,,,,,,,,,,,,,,,,,,,,,,,,,,,
,,60ce038ef5cec7f1cb716182,66daf5cd020cb54317c8e216,2024-09-06_14h31.42.333,mdp,2024.2.1,Win32,59.52380952,66d7945b1baad48e845df3ce,,,,,,,,,,,,,,,,,,,,,191.5628,191.5628,191.5647,193.4317,1,1,right,1.3329,,193.4333,193.4342,,0,,193.4349,193.4356,,1,,0,193.4356,193.4356,193.4364,194.9279,0,28,28,28,1,0.8,0.2,0.2,0.8,1,0,,,,,,,,,,,,,,,,,,,,,,,,,,,,,,,,,,,,
,,60ce038ef5cec7f1cb716182,66daf5cd020cb54317c8e216,2024-09-06_14h31.42.333,mdp,2024.2.1,Win32,59.52380952,66d7945b1baad48e845df3ce,,,,,,,,,,,,,,,,,,,,,194.9286,194.9286,194.9294,195.9498,0,0,left,0.499,,195.9518,195.9531,,1,,195.9538,195.9544,,0,,1,195.9545,195.9545,195.955,197.445,0,29,29,29,1,0.6,0.4,0.4,0.6,1,0,,,,,,,,,,,,,,,,,,,,,,,,,,,,,,,,,,,,
,,60ce038ef5cec7f1cb716182,66daf5cd020cb54317c8e216,2024-09-06_14h31.42.333,mdp,2024.2.1,Win32,59.52380952,66d7945b1baad48e845df3ce,,,,,,,,,,,,,,,,,,,,,197.4457,197.4457,197.4477,198.4616,0,0,left,0.4906,,198.4636,198.4647,,1,,198.4656,198.4662,,1,,1,198.4662,198.4662,198.4667,199.9636,0,30,30,30,1,0.2,0.8,0.6,0.4,1,0,,,,,,,,,,,,,,,,,,,,,,,,,,,,,,,,,,,,
,,60ce038ef5cec7f1cb716182,66daf5cd020cb54317c8e216,2024-09-06_14h31.42.333,mdp,2024.2.1,Win32,59.52380952,66d7945b1baad48e845df3ce,,,,,,,,,,,,,,,,,,,,,199.9641,199.9641,199.9656,201.2985,1,0,right,0.8023,,201.3003,201.3012,,1,,201.3018,201.3025,,0,,1,201.3025,201.3025,201.3032,202.7982,0,31,31,31,1,0.2,0.8,0.6,0.4,1,0,,,,,,,,,,,,,,,,,,,,,,,,,,,,,,,,,,,,
,,60ce038ef5cec7f1cb716182,66daf5cd020cb54317c8e216,2024-09-06_14h31.42.333,mdp,2024.2.1,Win32,59.52380952,66d7945b1baad48e845df3ce,,,,,,,,,,,,,,,,,,,,,202.7994,202.7994,202.8014,203.7943,1,1,right,0.4605,,203.7962,203.7974,,0,,203.7983,203.7992,,0,,0,203.7992,203.7992,203.7999,205.2941,0,32,32,32,1,0.2,0.8,0.6,0.4,1,0,,,,,,,,,,,,,,,,,,,,,,,,,,,,,,,,,,,,
,,60ce038ef5cec7f1cb716182,66daf5cd020cb54317c8e216,2024-09-06_14h31.42.333,mdp,2024.2.1,Win32,59.52380952,66d7945b1baad48e845df3ce,,,,,,,,,,,,,,,,,,,,,205.2953,205.2953,205.2971,206.3322,0,0,left,0.5009,,206.3341,206.3353,,0,,206.3361,206.3367,,0,,1,206.3367,206.3367,206.3374,207.8271,0,33,33,33,1,0.8,0.2,0.2,0.8,1,0,,,,,,,,,,,,,,,,,,,,,,,,,,,,,,,,,,,,
,,60ce038ef5cec7f1cb716182,66daf5cd020cb54317c8e216,2024-09-06_14h31.42.333,mdp,2024.2.1,Win32,59.52380952,66d7945b1baad48e845df3ce,,,,,,,,,,,,,,,,,,,,,207.8277,207.8277,207.8295,208.8431,0,0,left,0.479,,208.8448,208.8456,,0,,208.8463,208.847,,0,,1,208.847,208.8471,208.8476,210.3434,0,34,34,34,1,0.8,0.2,0.2,0.8,1,0,,,,,,,,,,,,,,,,,,,,,,,,,,,,,,,,,,,,
,,60ce038ef5cec7f1cb716182,66daf5cd020cb54317c8e216,2024-09-06_14h31.42.333,mdp,2024.2.1,Win32,59.52380952,66d7945b1baad48e845df3ce,,,,,,,,,,,,,,,,,,,,,210.3441,210.3441,210.3463,211.3602,0,0,left,0.5005,,211.362,211.3632,,0,,211.3641,211.3649,,0,,1,211.365,211.365,211.3655,212.8596,0,35,35,35,1,0.8,0.2,0.2,0.8,1,0,,,,,,,,,,,,,,,,,,,,,,,,,,,,,,,,,,,,
,,60ce038ef5cec7f1cb716182,66daf5cd020cb54317c8e216,2024-09-06_14h31.42.333,mdp,2024.2.1,Win32,59.52380952,66d7945b1baad48e845df3ce,,,,,,,,,,,,,,,,,,,,,212.8605,212.8605,212.8624,214.1095,1,0,right,0.7295,,214.1116,214.1127,,1,,214.1137,214.1145,,1,,1,214.1145,214.1145,214.1151,215.6092,0,36,36,36,1,0.8,0.2,0.2,0.8,1,0,,,,,,,,,,,,,,,,,,,,,,,,,,,,,,,,,,,,
,,60ce038ef5cec7f1cb716182,66daf5cd020cb54317c8e216,2024-09-06_14h31.42.333,mdp,2024.2.1,Win32,59.52380952,66d7945b1baad48e845df3ce,,,,,,,,,,,,,,,,,,,,,215.6102,215.6102,215.6121,216.6632,0,1,left,0.5324,,216.6648,216.6658,,0,,216.6667,216.6672,,0,,0,216.6672,216.6672,216.6677,218.1585,0,37,37,37,1,0.8,0.2,0.2,0.8,1,0,,,,,,,,,,,,,,,,,,,,,,,,,,,,,,,,,,,,
,,60ce038ef5cec7f1cb716182,66daf5cd020cb54317c8e216,2024-09-06_14h31.42.333,mdp,2024.2.1,Win32,59.52380952,66d7945b1baad48e845df3ce,,,,,,,,,,,,,,,,,,,,,218.159,218.159,218.1607,219.1639,0,0,left,0.4967,,219.1654,219.1664,,0,,219.1671,219.1679,,0,,1,219.1679,219.168,219.1684,220.6589,0,38,38,38,1,0.8,0.2,0.2,0.8,1,0,,,,,,,,,,,,,,,,,,,,,,,,,,,,,,,,,,,,
,,60ce038ef5cec7f1cb716182,66daf5cd020cb54317c8e216,2024-09-06_14h31.42.333,mdp,2024.2.1,Win32,59.52380952,66d7945b1baad48e845df3ce,,,,,,,,,,,,,,,,,,,,,220.66,220.66,220.6621,221.8281,1,1,right,0.6479,,221.8299,221.8309,,1,,221.832,221.8327,,1,,0,221.8327,221.8327,221.8332,223.3246,0,39,39,39,1,0.8,0.2,0.2,0.8,1,0,,,,,,,,,,,,,,,,,,,,,,,,,,,,,,,,,,,,
,,60ce038ef5cec7f1cb716182,66daf5cd020cb54317c8e216,2024-09-06_14h31.42.333,mdp,2024.2.1,Win32,59.52380952,66d7945b1baad48e845df3ce,,,,,,,,,,,,,,,,,,,,,223.3253,223.3253,223.3288,224.1751,1,1,right,0.3399,,224.1766,224.1775,,1,,224.1783,224.1789,,0,,0,224.1789,224.1789,224.1796,225.6737,0,40,40,40,1,0.8,0.2,0.2,0.8,1,0,,,,,,,,,,,,,,,,,,,,,,,,,,,,,,,,,,,,
,,60ce038ef5cec7f1cb716182,66daf5cd020cb54317c8e216,2024-09-06_14h31.42.333,mdp,2024.2.1,Win32,59.52380952,66d7945b1baad48e845df3ce,,,,,,,,,,,,,,,,,,,,,225.6746,225.6746,225.6757,226.6907,0,0,left,0.497,,226.6919,226.6925,,0,,226.693,226.6934,,0,,1,226.6934,226.6934,226.6937,228.1923,0,41,41,41,1,0.8,0.2,0.2,0.8,1,0,,,,,,,,,,,,,,,,,,,,,,,,,,,,,,,,,,,,
,,60ce038ef5cec7f1cb716182,66daf5cd020cb54317c8e216,2024-09-06_14h31.42.333,mdp,2024.2.1,Win32,59.52380952,66d7945b1baad48e845df3ce,,,,,,,,,,,,,,,,,,,,,228.1927,228.1927,228.1943,229.3245,0,1,left,0.6084,,229.3261,229.327,,1,,229.3277,229.3282,,0,,0,229.3282,229.3283,229.3288,230.824,0,42,42,42,1,0.2,0.8,0.8,0.2,1,0,,,,,,,,,,,,,,,,,,,,,,,,,,,,,,,,,,,,
,,60ce038ef5cec7f1cb716182,66daf5cd020cb54317c8e216,2024-09-06_14h31.42.333,mdp,2024.2.1,Win32,59.52380952,66d7945b1baad48e845df3ce,,,,,,,,,,,,,,,,,,,,,230.8246,230.8246,230.826,232.1568,0,0,left,0.8079,,232.1587,232.1594,,1,,232.1602,232.1611,,1,,1,232.1612,232.1612,232.1619,233.6566,0,43,43,43,1,0.2,0.8,0.8,0.2,1,0,,,,,,,,,,,,,,,,,,,,,,,,,,,,,,,,,,,,
,,60ce038ef5cec7f1cb716182,66daf5cd020cb54317c8e216,2024-09-06_14h31.42.333,mdp,2024.2.1,Win32,59.52380952,66d7945b1baad48e845df3ce,,,,,,,,,,,,,,,,,,,,,233.6572,233.6572,233.6588,234.7733,1,1,right,0.5826,,234.7752,234.7762,,1,,234.7769,234.7777,,0,,0,234.7778,234.7778,234.7783,236.2734,0,44,44,44,1,0.8,0.2,0.2,0.8,1,0,,,,,,,,,,,,,,,,,,,,,,,,,,,,,,,,,,,,
,,60ce038ef5cec7f1cb716182,66daf5cd020cb54317c8e216,2024-09-06_14h31.42.333,mdp,2024.2.1,Win32,59.52380952,66d7945b1baad48e845df3ce,,,,,,,,,,,,,,,,,,,,,236.2739,236.2739,236.2758,237.1939,1,1,right,0.4006,,237.1957,237.1966,,1,,237.1975,237.1982,,1,,0,237.1982,237.1982,237.1987,238.6896,0,45,45,45,1,0.8,0.2,0.2,0.8,1,0,,,,,,,,,,,,,,,,,,,,,,,,,,,,,,,,,,,,
,,60ce038ef5cec7f1cb716182,66daf5cd020cb54317c8e216,2024-09-06_14h31.42.333,mdp,2024.2.1,Win32,59.52380952,66d7945b1baad48e845df3ce,,,,,,,,,,,,,,,,,,,,,238.6912,238.6912,238.6929,240.0559,0,0,left,0.8395,,240.0579,240.059,,0,,240.0596,240.0604,,1,,1,240.0604,240.0604,240.0609,241.5599,0,46,46,46,1,0.8,0.2,0.2,0.8,1,0,,,,,,,,,,,,,,,,,,,,,,,,,,,,,,,,,,,,
,,60ce038ef5cec7f1cb716182,66daf5cd020cb54317c8e216,2024-09-06_14h31.42.333,mdp,2024.2.1,Win32,59.52380952,66d7945b1baad48e845df3ce,,,,,,,,,,,,,,,,,,,,,241.5604,241.5604,241.5624,242.6727,0,0,left,0.5689,,242.675,242.676,,0,,242.6769,242.6775,,0,,1,242.6776,242.6776,242.6782,244.1725,0,47,47,47,1,0.8,0.2,0.2,0.8,1,0,,,,,,,,,,,,,,,,,,,,,,,,,,,,,,,,,,,,
,,60ce038ef5cec7f1cb716182,66daf5cd020cb54317c8e216,2024-09-06_14h31.42.333,mdp,2024.2.1,Win32,59.52380952,66d7945b1baad48e845df3ce,,,,,,,,,,,,,,,,,,,,,244.173,244.173,244.1746,245.1887,1,1,right,0.4836,,245.1912,245.1925,,1,,245.1934,245.1943,,1,,0,245.1943,245.1943,245.195,246.6884,0,48,48,48,1,0.8,0.2,0.2,0.8,1,0,,,,,,,,,,,,,,,,,,,,,,,,,,,,,,,,,,,,
,,60ce038ef5cec7f1cb716182,66daf5cd020cb54317c8e216,2024-09-06_14h31.42.333,mdp,2024.2.1,Win32,59.52380952,66d7945b1baad48e845df3ce,,,,,,,,,,,,,,,,,,,,,246.6889,246.689,246.6901,247.6384,0,1,left,0.4066,,247.6404,247.6414,,1,,247.6421,247.643,,0,,0,247.643,247.643,247.6437,249.1387,0,49,49,49,1,0.8,0.2,0.2,0.8,1,0,,,,,,,,,,,,,,,,,,,,,,,,,,,,,,,,,,,,
,,60ce038ef5cec7f1cb716182,66daf5cd020cb54317c8e216,2024-09-06_14h31.42.333,mdp,2024.2.1,Win32,59.52380952,66d7945b1baad48e845df3ce,,,,,,,,,,,,,,,,,,,,,,,,,,,,,,,,,,,,,,,,,,,,,,,,,,,,,,,,249.1401,307.6503,0,0,0,7,1,imgs/kangaroo.png,imgs/dog.png,imgs/giraffe.png,imgs/rabbit.png,imgs/squirrel.png,,,,,,,,,,,,,,,,,,,,,,,,
,,60ce038ef5cec7f1cb716182,66daf5cd020cb54317c8e216,2024-09-06_14h31.42.333,mdp,2024.2.1,Win32,59.52380952,66d7945b1baad48e845df3ce,,,,,,,,,,,,,,2,seqs/st2seq10.csv,307.6634,310.4303,space,2.2435,,310.437,310.4371,310.4379,312.916,0,1,left,1.9486,,312.9172,315.7008,0,1,left,315.7148,315.7155,,1,,0,315.7155,315.7155,315.7161,317.2166,0,0,0,0,1,0.2,0.8,0.6,0.4,,,,,,,,,,,,,,,2.2506,,0.8,0.2,0.8,0.2,0.4,0.6,0.6,0.4,1,0,,,,,,,,,,,,
,,60ce038ef5cec7f1cb716182,66daf5cd020cb54317c8e216,2024-09-06_14h31.42.333,mdp,2024.2.1,Win32,59.52380952,66d7945b1baad48e845df3ce,,,,,,,,,,,,,,,,,,,,,317.2172,317.2174,317.2188,319.0965,0,1,left,1.3352,,319.0984,320.4292,1,1,right,320.4312,320.4323,,0,,0,320.4323,320.4323,320.4331,321.9289,0,1,1,1,1,0.2,0.8,0.6,0.4,,,,,,,,,,,,,,,0.8011,,0.8,0.2,0.8,0.2,0.4,0.6,0.6,0.4,1,0,,,,,,,,,,,,
,,60ce038ef5cec7f1cb716182,66daf5cd020cb54317c8e216,2024-09-06_14h31.42.333,mdp,2024.2.1,Win32,59.52380952,66d7945b1baad48e845df3ce,,,,,,,,,,,,,,,,,,,,,321.9301,321.9301,321.9316,323.2447,0,1,left,0.7934,,323.2463,324.2458,0,1,left,324.2473,324.2483,,1,,0,324.2483,324.2483,324.2491,325.7491,0,2,2,2,1,0.2,0.8,0.6,0.4,,,,,,,,,,,,,,,0.488,,0.8,0.2,0.8,0.2,0.4,0.6,0.6,0.4,1,0,,,,,,,,,,,,
,,60ce038ef5cec7f1cb716182,66daf5cd020cb54317c8e216,2024-09-06_14h31.42.333,mdp,2024.2.1,Win32,59.52380952,66d7945b1baad48e845df3ce,,,,,,,,,,,,,,,,,,,,,325.7496,325.7496,325.7512,326.7285,0,1,left,0.4352,,326.7308,327.8285,0,0,left,327.8303,327.8315,,1,,1,327.8316,327.8316,327.8324,329.3282,0,3,3,3,1,0.2,0.8,0.6,0.4,,,,,,,,,,,,,,,0.5511,,0.8,0.2,0.8,0.2,0.4,0.6,0.6,0.4,1,0,,,,,,,,,,,,
,,60ce038ef5cec7f1cb716182,66daf5cd020cb54317c8e216,2024-09-06_14h31.42.333,mdp,2024.2.1,Win32,59.52380952,66d7945b1baad48e845df3ce,,,,,,,,,,,,,,,,,,,,,329.3289,329.329,329.3307,330.4156,1,0,right,0.5503,,330.4171,331.244,0,0,left,331.2455,331.2463,,0,,1,331.2464,331.2464,331.247,332.7445,0,4,4,4,1,0.4,0.6,0.8,0.2,,,,,,,,,,,,,,,0.2941,,0.8,0.2,0.8,0.2,0.4,0.6,0.6,0.4,1,0,,,,,,,,,,,,
,,60ce038ef5cec7f1cb716182,66daf5cd020cb54317c8e216,2024-09-06_14h31.42.333,mdp,2024.2.1,Win32,59.52380952,66d7945b1baad48e845df3ce,,,,,,,,,,,,,,,,,,,,,332.745,332.745,332.7466,333.8493,0,1,left,0.5792,,333.8513,334.7277,0,1,left,334.7304,334.7316,,1,,0,334.7316,334.7317,334.7325,336.2311,0,5,5,5,1,0.4,0.6,0.8,0.2,,,,,,,,,,,,,,,0.342,,0.8,0.2,0.8,0.2,0.4,0.6,0.6,0.4,1,0,,,,,,,,,,,,
,,60ce038ef5cec7f1cb716182,66daf5cd020cb54317c8e216,2024-09-06_14h31.42.333,mdp,2024.2.1,Win32,59.52380952,66d7945b1baad48e845df3ce,,,,,,,,,,,,,,,,,,,,,336.2319,336.2319,336.2345,337.2822,0,1,left,0.5189,,337.2842,338.8273,1,1,right,338.8293,338.8309,,1,,0,338.831,338.831,338.8317,340.3267,0,6,6,6,1,0.4,0.6,0.8,0.2,,,,,,,,,,,,,,,1.0174,,0.8,0.2,0.8,0.2,0.4,0.6,0.6,0.4,1,0,,,,,,,,,,,,
,,60ce038ef5cec7f1cb716182,66daf5cd020cb54317c8e216,2024-09-06_14h31.42.333,mdp,2024.2.1,Win32,59.52380952,66d7945b1baad48e845df3ce,,,,,,,,,,,,,,,,,,,,,340.3272,340.3275,340.329,341.3962,0,1,left,0.5324,,341.3975,343.3805,0,1,left,343.3821,343.3828,,1,,0,343.3829,343.3829,343.3838,344.876,0,7,7,7,1,0.4,0.6,0.8,0.2,,,,,,,,,,,,,,,1.4629,,0.8,0.2,0.8,0.2,0.4,0.6,0.6,0.4,1,0,,,,,,,,,,,,
,,60ce038ef5cec7f1cb716182,66daf5cd020cb54317c8e216,2024-09-06_14h31.42.333,mdp,2024.2.1,Win32,59.52380952,66d7945b1baad48e845df3ce,,,,,,,,,,,,,,,,,,,,,344.8769,344.877,344.8783,346.0922,1,0,right,0.7011,,346.0941,347.1301,0,0,left,347.1314,347.1324,,0,,1,347.1324,347.1324,347.1331,348.6252,0,8,8,8,1,0.4,0.6,0.8,0.2,,,,,,,,,,,,,,,0.5007,,0.8,0.2,0.8,0.2,0.4,0.6,0.6,0.4,1,0,,,,,,,,,,,,
,,60ce038ef5cec7f1cb716182,66daf5cd020cb54317c8e216,2024-09-06_14h31.42.333,mdp,2024.2.1,Win32,59.52380952,66d7945b1baad48e845df3ce,,,,,,,,,,,,,,,,,,,,,348.6259,348.626,348.6277,350.009,1,0,right,0.8519,,350.0107,351.8086,0,1,left,351.8115,351.8132,,0,,0,351.8133,351.8133,351.8142,353.3115,0,9,9,9,1,0.4,0.6,0.8,0.2,,,,,,,,,,,,,,,1.2833,,0.8,0.2,0.8,0.2,0.4,0.6,0.6,0.4,1,0,,,,,,,,,,,,
,,60ce038ef5cec7f1cb716182,66daf5cd020cb54317c8e216,2024-09-06_14h31.42.333,mdp,2024.2.1,Win32,59.52380952,66d7945b1baad48e845df3ce,,,,,,,,,,,,,,,,,,,,,353.312,353.3121,353.3137,354.4747,1,0,right,0.6281,,354.4765,356.1611,1,0,right,356.1625,356.1633,,0,,1,356.1633,356.1633,356.164,357.6594,0,10,10,10,1,0.4,0.6,0.8,0.2,,,,,,,,,,,,,,,1.164,,0.8,0.2,0.8,0.2,0.4,0.6,0.6,0.4,1,0,,,,,,,,,,,,
,,60ce038ef5cec7f1cb716182,66daf5cd020cb54317c8e216,2024-09-06_14h31.42.333,mdp,2024.2.1,Win32,59.52380952,66d7945b1baad48e845df3ce,,,,,,,,,,,,,,,,,,,,,357.66,357.66,357.6613,358.9414,1,1,right,0.7464,,358.9432,360.9774,1,1,right,360.9791,360.98,,1,,0,360.9801,360.9801,360.9808,362.4737,0,11,11,11,1,0.4,0.6,0.8,0.2,,,,,,,,,,,,,,,1.4999,,0.8,0.2,0.8,0.2,0.4,0.6,0.6,0.4,1,0,,,,,,,,,,,,
,,60ce038ef5cec7f1cb716182,66daf5cd020cb54317c8e216,2024-09-06_14h31.42.333,mdp,2024.2.1,Win32,59.52380952,66d7945b1baad48e845df3ce,,,,,,,,,,,,,,,,,,,,,362.4746,362.4746,362.4761,364.1069,0,0,left,1.0957,,364.1088,365.0109,1,0,right,365.0125,365.0133,,0,,1,365.0134,365.0135,365.0143,366.5067,0,12,12,12,1,0.4,0.6,0.8,0.2,,,,,,,,,,,,,,,0.3672,,0.8,0.2,0.8,0.2,0.4,0.6,0.6,0.4,1,0,,,,,,,,,,,,
,,60ce038ef5cec7f1cb716182,66daf5cd020cb54317c8e216,2024-09-06_14h31.42.333,mdp,2024.2.1,Win32,59.52380952,66d7945b1baad48e845df3ce,,,,,,,,,,,,,,,,,,,,,366.5075,366.5075,366.51,367.4925,0,1,left,0.4761,,367.4942,368.4262,1,1,right,368.4284,368.4295,,1,,0,368.4295,368.4295,368.4303,369.9227,0,13,13,13,1,0.4,0.6,0.8,0.2,,,,,,,,,,,,,,,0.3996,,0.8,0.2,0.8,0.2,0.4,0.6,0.6,0.4,1,0,,,,,,,,,,,,
,,60ce038ef5cec7f1cb716182,66daf5cd020cb54317c8e216,2024-09-06_14h31.42.333,mdp,2024.2.1,Win32,59.52380952,66d7945b1baad48e845df3ce,,,,,,,,,,,,,,,,,,,,,369.9234,369.9234,369.926,370.806,0,1,left,0.34,,370.8086,371.4562,0,1,left,371.4583,371.459,,1,,0,371.4591,371.4591,371.4597,372.9568,0,14,14,14,1,0.4,0.6,0.8,0.2,,,,,,,,,,,,,,,0.1399,,0.8,0.2,0.8,0.2,0.4,0.6,0.6,0.4,1,0,,,,,,,,,,,,
,,60ce038ef5cec7f1cb716182,66daf5cd020cb54317c8e216,2024-09-06_14h31.42.333,mdp,2024.2.1,Win32,59.52380952,66d7945b1baad48e845df3ce,,,,,,,,,,,,,,,,,,,,,372.9578,372.9579,372.9591,373.6053,1,0,right,0.1234,,373.6075,374.3392,1,0,right,374.3416,374.3431,,0,,1,374.3432,374.3432,374.3439,375.844,0,15,15,15,1,0.4,0.6,0.8,0.2,,,,,,,,,,,,,,,0.206,,0.8,0.2,0.8,0.2,0.4,0.6,0.6,0.4,1,0,,,,,,,,,,,,
,,60ce038ef5cec7f1cb716182,66daf5cd020cb54317c8e216,2024-09-06_14h31.42.333,mdp,2024.2.1,Win32,59.52380952,66d7945b1baad48e845df3ce,,,,,,,,,,,,,,,,,,,,,375.8454,375.8454,375.8474,377.0552,0,1,left,0.6826,,377.0568,380.1887,0,1,left,380.2035,380.2046,,0,,0,380.2046,380.2046,380.2052,381.7044,0,16,16,16,1,0.4,0.6,0.8,0.2,,,,,,,,,,,,,,,2.5883,,0.2,0.8,0.6,0.4,0.4,0.6,0.6,0.4,1,0,,,,,,,,,,,,
,,60ce038ef5cec7f1cb716182,66daf5cd020cb54317c8e216,2024-09-06_14h31.42.333,mdp,2024.2.1,Win32,59.52380952,66d7945b1baad48e845df3ce,,,,,,,,,,,,,,,,,,,,,381.7051,381.7051,381.7073,382.5048,0,1,left,0.2717,,382.5069,383.3239,1,0,right,383.3255,383.3268,,0,,1,383.3269,383.3269,383.3276,384.8213,0,17,17,17,1,0.4,0.6,0.8,0.2,,,,,,,,,,,,,,,0.2943,,0.2,0.8,0.6,0.4,0.4,0.6,0.6,0.4,1,0,,,,,,,,,,,,
,,60ce038ef5cec7f1cb716182,66daf5cd020cb54317c8e216,2024-09-06_14h31.42.333,mdp,2024.2.1,Win32,59.52380952,66d7945b1baad48e845df3ce,,,,,,,,,,,,,,,,,,,,,384.8225,384.8225,384.824,385.8539,0,1,left,0.4939,,385.8556,387.5542,0,1,left,387.5561,387.5573,,1,,0,387.5573,387.5573,387.5582,389.0536,0,18,18,18,1,0.4,0.6,0.8,0.2,,,,,,,,,,,,,,,1.1805,,0.4,0.6,0.8,0.2,0.4,0.6,0.6,0.4,1,0,,,,,,,,,,,,
,,60ce038ef5cec7f1cb716182,66daf5cd020cb54317c8e216,2024-09-06_14h31.42.333,mdp,2024.2.1,Win32,59.52380952,66d7945b1baad48e845df3ce,,,,,,,,,,,,,,,,,,,,,389.0545,389.0546,389.0562,390.0414,0,1,left,0.4621,,390.043,390.8369,0,0,left,390.8391,390.84,,0,,1,390.8402,390.8402,390.8409,392.3392,0,19,19,19,1,0.4,0.6,0.8,0.2,,,,,,,,,,,,,,,0.2523,,0.4,0.6,0.8,0.2,0.4,0.6,0.6,0.4,1,0,,,,,,,,,,,,
,,60ce038ef5cec7f1cb716182,66daf5cd020cb54317c8e216,2024-09-06_14h31.42.333,mdp,2024.2.1,Win32,59.52380952,66d7945b1baad48e845df3ce,,,,,,,,,,,,,,,,,,,,,392.3398,392.3398,392.3414,392.9248,1,0,right,0.0518,,392.9261,393.5866,0,1,left,393.5883,393.5893,,1,,0,393.5894,393.5894,393.5901,395.0861,0,20,20,20,1,0.4,0.6,0.8,0.2,,,,,,,,,,,,,,,0.1194,,0.4,0.6,0.8,0.2,0.4,0.6,0.6,0.4,1,0,,,,,,,,,,,,
,,60ce038ef5cec7f1cb716182,66daf5cd020cb54317c8e216,2024-09-06_14h31.42.333,mdp,2024.2.1,Win32,59.52380952,66d7945b1baad48e845df3ce,,,,,,,,,,,,,,,,,,,,,395.0873,395.0873,395.0891,395.786,1,1,right,0.1701,,395.7882,396.4695,0,0,left,396.4713,396.4723,,0,,1,396.4723,396.4723,396.473,397.9711,0,21,21,21,1,0.6,0.4,0.2,0.8,,,,,,,,,,,,,,,0.1395,,0.4,0.6,0.8,0.2,0.4,0.6,0.6,0.4,1,0,,,,,,,,,,,,
,,60ce038ef5cec7f1cb716182,66daf5cd020cb54317c8e216,2024-09-06_14h31.42.333,mdp,2024.2.1,Win32,59.52380952,66d7945b1baad48e845df3ce,,,,,,,,,,,,,,,,,,,,,397.9718,397.9718,397.9734,399.4021,1,1,right,0.9104,,399.4037,400.0715,0,0,left,400.0734,400.0742,,1,,1,400.0743,400.0743,400.0748,401.5691,0,22,22,22,1,0.6,0.4,0.2,0.8,,,,,,,,,,,,,,,0.1478,,0.4,0.6,0.8,0.2,0.4,0.6,0.6,0.4,1,0,,,,,,,,,,,,
,,60ce038ef5cec7f1cb716182,66daf5cd020cb54317c8e216,2024-09-06_14h31.42.333,mdp,2024.2.1,Win32,59.52380952,66d7945b1baad48e845df3ce,,,,,,,,,,,,,,,,,,,,,401.5699,401.5699,401.5713,402.1022,1,1,right,0.0059,,402.1037,403.0186,0,0,left,403.0203,403.0213,,1,,1,403.0214,403.0214,403.022,404.5185,0,23,23,23,1,0.6,0.4,0.2,0.8,,,,,,,,,,,,,,,0.3741,,0.4,0.6,0.8,0.2,0.4,0.6,0.6,0.4,1,0,,,,,,,,,,,,
,,60ce038ef5cec7f1cb716182,66daf5cd020cb54317c8e216,2024-09-06_14h31.42.333,mdp,2024.2.1,Win32,59.52380952,66d7945b1baad48e845df3ce,,,,,,,,,,,,,,,,,,,,,404.5191,404.5191,404.5208,405.6854,0,0,left,0.6296,,405.6874,406.7564,1,1,right,406.7584,406.7596,,0,,0,406.7597,406.7597,406.7604,408.2512,0,24,24,24,1,0.6,0.4,0.2,0.8,,,,,,,,,,,,,,,0.5348,,0.4,0.6,0.8,0.2,0.4,0.6,0.6,0.4,1,0,,,,,,,,,,,,
,,60ce038ef5cec7f1cb716182,66daf5cd020cb54317c8e216,2024-09-06_14h31.42.333,mdp,2024.2.1,Win32,59.52380952,66d7945b1baad48e845df3ce,,,,,,,,,,,,,,,,,,,,,408.2521,408.2521,408.254,409.3025,1,1,right,0.5023,,409.3041,410.3008,0,1,left,410.3025,410.3036,,1,,0,410.3036,410.3036,410.3043,411.8003,0,25,25,25,1,0.6,0.4,0.2,0.8,,,,,,,,,,,,,,,0.459,,0.4,0.6,0.8,0.2,0.4,0.6,0.6,0.4,1,0,,,,,,,,,,,,
,,60ce038ef5cec7f1cb716182,66daf5cd020cb54317c8e216,2024-09-06_14h31.42.333,mdp,2024.2.1,Win32,59.52380952,66d7945b1baad48e845df3ce,,,,,,,,,,,,,,,,,,,,,411.801,411.801,411.8026,417.6335,0,1,left,5.2953,,417.6463,418.533,1,0,right,418.5347,418.5359,,0,,1,418.536,418.536,418.5368,420.0333,0,26,26,26,1,0.6,0.4,0.2,0.8,,,,,,,,,,,,,,,0.3683,,0.4,0.6,0.8,0.2,0.4,0.6,0.6,0.4,1,0,,,,,,,,,,,,
,,60ce038ef5cec7f1cb716182,66daf5cd020cb54317c8e216,2024-09-06_14h31.42.333,mdp,2024.2.1,Win32,59.52380952,66d7945b1baad48e845df3ce,,,,,,,,,,,,,,,,,,,,,420.0344,420.0344,420.0359,420.704,0,0,left,0.1467,,420.706,422.2706,0,1,left,422.2721,422.2729,,1,,0,422.2729,422.2729,422.2735,423.7657,0,27,27,27,1,0.6,0.4,0.2,0.8,,,,,,,,,,,,,,,1.0338,,0.4,0.6,0.8,0.2,0.4,0.6,0.6,0.4,1,0,,,,,,,,,,,,
,,60ce038ef5cec7f1cb716182,66daf5cd020cb54317c8e216,2024-09-06_14h31.42.333,mdp,2024.2.1,Win32,59.52380952,66d7945b1baad48e845df3ce,,,,,,,,,,,,,,,,,,,,,423.767,423.7671,423.7686,424.7991,0,0,left,0.5012,,424.8013,426.1539,0,1,left,426.1556,426.1571,,1,,0,426.1571,426.1571,426.1578,427.649,0,28,28,28,1,0.6,0.4,0.2,0.8,,,,,,,,,,,,,,,0.8201,,0.4,0.6,0.8,0.2,0.6,0.4,0.2,0.8,1,0,,,,,,,,,,,,
,,60ce038ef5cec7f1cb716182,66daf5cd020cb54317c8e216,2024-09-06_14h31.42.333,mdp,2024.2.1,Win32,59.52380952,66d7945b1baad48e845df3ce,,,,,,,,,,,,,,,,,,,,,427.6496,427.6496,427.6515,429.0513,0,0,left,0.8786,,429.0528,431.4485,0,1,left,431.45,431.451,,1,,0,431.451,431.451,431.4517,432.9478,0,29,29,29,1,0.6,0.4,0.2,0.8,,,,,,,,,,,,,,,1.8672,,0.4,0.6,0.8,0.2,0.6,0.4,0.2,0.8,1,0,,,,,,,,,,,,
,,60ce038ef5cec7f1cb716182,66daf5cd020cb54317c8e216,2024-09-06_14h31.42.333,mdp,2024.2.1,Win32,59.52380952,66d7945b1baad48e845df3ce,,,,,,,,,,,,,,,,,,,,,432.9486,432.9486,432.9503,433.9645,0,1,left,0.5064,,433.9659,435.2312,0,0,left,435.2326,435.2336,,1,,1,435.2337,435.2337,435.2344,436.7307,0,30,30,30,1,0.6,0.4,0.2,0.8,,,,,,,,,,,,,,,0.744,,0.4,0.6,0.8,0.2,0.6,0.4,0.2,0.8,1,0,,,,,,,,,,,,
,,60ce038ef5cec7f1cb716182,66daf5cd020cb54317c8e216,2024-09-06_14h31.42.333,mdp,2024.2.1,Win32,59.52380952,66d7945b1baad48e845df3ce,,,,,,,,,,,,,,,,,,,,,436.7315,436.7315,436.7335,437.6507,0,0,left,0.3979,,437.652,438.3475,0,0,left,438.3492,438.3502,,1,,1,438.3502,438.3502,438.351,439.8472,0,31,31,31,1,0.6,0.4,0.2,0.8,,,,,,,,,,,,,,,0.157,,0.4,0.6,0.8,0.2,0.6,0.4,0.2,0.8,1,0,,,,,,,,,,,,
,,60ce038ef5cec7f1cb716182,66daf5cd020cb54317c8e216,2024-09-06_14h31.42.333,mdp,2024.2.1,Win32,59.52380952,66d7945b1baad48e845df3ce,,,,,,,,,,,,,,,,,,,,,439.8479,439.8479,439.8497,440.747,1,1,right,0.3679,,440.7488,441.3135,0,0,left,441.3153,441.3165,,1,,1,441.3166,441.3166,441.3172,442.8169,0,32,32,32,1,0.6,0.4,0.2,0.8,,,,,,,,,,,,,,,0.0199,,0.4,0.6,0.8,0.2,0.6,0.4,0.2,0.8,1,0,,,,,,,,,,,,
,,60ce038ef5cec7f1cb716182,66daf5cd020cb54317c8e216,2024-09-06_14h31.42.333,mdp,2024.2.1,Win32,59.52380952,66d7945b1baad48e845df3ce,,,,,,,,,,,,,,,,,,,,,442.8177,442.8177,442.8201,443.7136,1,0,right,0.3708,,443.7154,444.4133,1,0,right,444.4147,444.4157,,0,,1,444.4157,444.4157,444.4165,445.9134,0,33,33,33,1,0.6,0.4,0.2,0.8,,,,,,,,,,,,,,,0.1746,,0.4,0.6,0.8,0.2,0.4,0.6,0.8,0.2,1,0,,,,,,,,,,,,
,,60ce038ef5cec7f1cb716182,66daf5cd020cb54317c8e216,2024-09-06_14h31.42.333,mdp,2024.2.1,Win32,59.52380952,66d7945b1baad48e845df3ce,,,,,,,,,,,,,,,,,,,,,445.9144,445.9144,445.9159,446.9004,0,1,left,0.4656,,446.902,447.613,1,1,right,447.615,447.6159,,0,,0,447.6159,447.6159,447.6166,449.1168,0,34,34,34,1,0.6,0.4,0.2,0.8,,,,,,,,,,,,,,,0.1679,,0.4,0.6,0.8,0.2,0.4,0.6,0.8,0.2,1,0,,,,,,,,,,,,
,,60ce038ef5cec7f1cb716182,66daf5cd020cb54317c8e216,2024-09-06_14h31.42.333,mdp,2024.2.1,Win32,59.52380952,66d7945b1baad48e845df3ce,,,,,,,,,,,,,,,,,,,,,449.1174,449.1174,449.119,450.2172,0,1,left,0.5825,,450.219,450.9342,0,0,left,450.9363,450.9374,,1,,1,450.9374,450.9374,450.9381,452.4289,0,35,35,35,1,0.6,0.4,0.2,0.8,,,,,,,,,,,,,,,0.2,,0.4,0.6,0.8,0.2,0.4,0.6,0.8,0.2,1,0,,,,,,,,,,,,
,,60ce038ef5cec7f1cb716182,66daf5cd020cb54317c8e216,2024-09-06_14h31.42.333,mdp,2024.2.1,Win32,59.52380952,66d7945b1baad48e845df3ce,,,,,,,,,,,,,,,,,,,,,452.43,452.43,452.4313,453.3831,1,1,right,0.4447,,453.3846,454.3463,0,1,left,454.3486,454.3493,,1,,0,454.3494,454.3495,454.35,455.8452,0,36,36,36,1,0.6,0.4,0.2,0.8,,,,,,,,,,,,,,,0.4319,,0.4,0.6,0.8,0.2,0.4,0.6,0.8,0.2,1,0,,,,,,,,,,,,
,,60ce038ef5cec7f1cb716182,66daf5cd020cb54317c8e216,2024-09-06_14h31.42.333,mdp,2024.2.1,Win32,59.52380952,66d7945b1baad48e845df3ce,,,,,,,,,,,,,,,,,,,,,455.846,455.8461,455.8479,456.695,1,0,right,0.339,,456.6964,457.2454,1,0,right,457.2475,457.2486,,0,,1,457.2486,457.2486,457.2494,458.7484,0,37,37,37,1,0.6,0.4,0.2,0.8,,,,,,,,,,,,,,,0.0191,,0.4,0.6,0.8,0.2,0.4,0.6,0.8,0.2,1,0,,,,,,,,,,,,
,,60ce038ef5cec7f1cb716182,66daf5cd020cb54317c8e216,2024-09-06_14h31.42.333,mdp,2024.2.1,Win32,59.52380952,66d7945b1baad48e845df3ce,,,,,,,,,,,,,,,,,,,,,458.7489,458.7489,458.7505,459.4966,0,1,left,0.2289,,459.4982,460.1445,1,0,right,460.1467,460.1478,,1,,1,460.1478,460.1478,460.1487,461.6441,0,38,38,38,1,0.6,0.4,0.2,0.8,,,,,,,,,,,,,,,0.1029,,0.4,0.6,0.8,0.2,0.4,0.6,0.8,0.2,1,0,,,,,,,,,,,,
,,60ce038ef5cec7f1cb716182,66daf5cd020cb54317c8e216,2024-09-06_14h31.42.333,mdp,2024.2.1,Win32,59.52380952,66d7945b1baad48e845df3ce,,,,,,,,,,,,,,,,,,,,,461.645,461.6451,461.6466,462.5153,0,1,left,0.3455,,462.5169,463.4769,0,0,left,463.4786,463.4797,,1,,1,463.4798,463.4798,463.4805,464.9802,0,39,39,39,1,0.6,0.4,0.2,0.8,,,,,,,,,,,,,,,0.4437,,0.4,0.6,0.8,0.2,0.4,0.6,0.8,0.2,1,0,,,,,,,,,,,,
,,60ce038ef5cec7f1cb716182,66daf5cd020cb54317c8e216,2024-09-06_14h31.42.333,mdp,2024.2.1,Win32,59.52380952,66d7945b1baad48e845df3ce,,,,,,,,,,,,,,,,,,,,,464.9809,464.9809,464.9828,465.6445,0,0,left,0.1365,,465.6464,466.3645,1,0,right,466.366,466.3668,,1,,1,466.3669,466.3669,466.3676,467.8624,0,40,40,40,1,0.6,0.4,0.2,0.8,,,,,,,,,,,,,,,0.1834,,0.4,0.6,0.8,0.2,0.4,0.6,0.8,0.2,1,0,,,,,,,,,,,,
,,60ce038ef5cec7f1cb716182,66daf5cd020cb54317c8e216,2024-09-06_14h31.42.333,mdp,2024.2.1,Win32,59.52380952,66d7945b1baad48e845df3ce,,,,,,,,,,,,,,,,,,,,,467.8628,467.8628,467.8645,468.7603,1,1,right,0.3667,,468.7623,469.41,0,0,left,469.4117,469.4125,,1,,1,469.4125,469.4125,469.4131,470.9119,0,41,41,41,1,0.6,0.4,0.2,0.8,,,,,,,,,,,,,,,0.113,,0.4,0.6,0.8,0.2,0.8,0.2,0.6,0.4,1,0,,,,,,,,,,,,
,,60ce038ef5cec7f1cb716182,66daf5cd020cb54317c8e216,2024-09-06_14h31.42.333,mdp,2024.2.1,Win32,59.52380952,66d7945b1baad48e845df3ce,,,,,,,,,,,,,,,,,,,,,470.9124,470.9124,470.9139,471.8596,0,0,left,0.4162,,471.8613,472.8628,0,1,left,472.8641,472.865,,0,,0,472.8651,472.8651,472.8657,474.3613,0,42,42,42,1,0.6,0.4,0.2,0.8,,,,,,,,,,,,,,,0.4825,,0.4,0.6,0.8,0.2,0.8,0.2,0.6,0.4,1,0,,,,,,,,,,,,
,,60ce038ef5cec7f1cb716182,66daf5cd020cb54317c8e216,2024-09-06_14h31.42.333,mdp,2024.2.1,Win32,59.52380952,66d7945b1baad48e845df3ce,,,,,,,,,,,,,,,,,,,,,474.3619,474.3619,474.3632,475.2798,1,1,right,0.3986,,475.2813,475.9587,1,1,right,475.96,475.9608,,0,,0,475.9609,475.9609,475.9614,477.4611,0,43,43,43,1,0.6,0.4,0.2,0.8,,,,,,,,,,,,,,,0.145,,0.4,0.6,0.8,0.2,0.8,0.2,0.6,0.4,1,0,,,,,,,,,,,,
,,60ce038ef5cec7f1cb716182,66daf5cd020cb54317c8e216,2024-09-06_14h31.42.333,mdp,2024.2.1,Win32,59.52380952,66d7945b1baad48e845df3ce,,,,,,,,,,,,,,,,,,,,,477.4617,477.4617,477.4634,478.4756,0,0,left,0.4748,,478.4781,479.0419,1,1,right,479.0434,479.0445,,0,,0,479.0446,479.0446,479.0452,480.545,0,44,44,44,1,0.6,0.4,0.2,0.8,,,,,,,,,,,,,,,0.0368,,0.4,0.6,0.8,0.2,0.8,0.2,0.6,0.4,1,0,,,,,,,,,,,,
,,60ce038ef5cec7f1cb716182,66daf5cd020cb54317c8e216,2024-09-06_14h31.42.333,mdp,2024.2.1,Win32,59.52380952,66d7945b1baad48e845df3ce,,,,,,,,,,,,,,,,,,,,,480.5454,480.5454,480.5469,481.1449,1,1,right,0.0776,,481.1465,481.942,1,1,right,481.9438,481.9446,,0,,0,481.9446,481.9446,481.9453,483.4417,0,45,45,45,1,0.6,0.4,0.2,0.8,,,,,,,,,,,,,,,0.2529,,0.8,0.2,0.6,0.4,0.8,0.2,0.6,0.4,1,0,,,,,,,,,,,,
,,60ce038ef5cec7f1cb716182,66daf5cd020cb54317c8e216,2024-09-06_14h31.42.333,mdp,2024.2.1,Win32,59.52380952,66d7945b1baad48e845df3ce,,,,,,,,,,,,,,,,,,,,,483.4422,483.4423,483.4441,484.3746,0,0,left,0.3868,,484.3769,485.075,1,1,right,485.0764,485.077,,1,,0,485.077,485.077,485.0776,486.5743,0,46,46,46,1,0.6,0.4,0.2,0.8,,,,,,,,,,,,,,,0.163,,0.8,0.2,0.6,0.4,0.8,0.2,0.6,0.4,1,0,,,,,,,,,,,,
,,60ce038ef5cec7f1cb716182,66daf5cd020cb54317c8e216,2024-09-06_14h31.42.333,mdp,2024.2.1,Win32,59.52380952,66d7945b1baad48e845df3ce,,,,,,,,,,,,,,,,,,,,,486.5749,486.5749,486.5766,487.1079,1,0,right,0.0105,,487.109,487.974,0,0,left,487.9758,487.9766,,0,,1,487.9766,487.9766,487.9772,489.4746,0,47,47,47,1,0.8,0.2,0.8,0.2,,,,,,,,,,,,,,,0.3251,,0.8,0.2,0.6,0.4,0.8,0.2,0.6,0.4,1,0,,,,,,,,,,,,
,,60ce038ef5cec7f1cb716182,66daf5cd020cb54317c8e216,2024-09-06_14h31.42.333,mdp,2024.2.1,Win32,59.52380952,66d7945b1baad48e845df3ce,,,,,,,,,,,,,,,,,,,,,489.4754,489.4754,489.4775,490.277,0,0,left,0.2813,,490.2786,490.8408,0,0,left,490.8427,490.8437,,1,,1,490.8438,490.8438,490.8445,492.3404,0,48,48,48,1,0.8,0.2,0.8,0.2,,,,,,,,,,,,,,,0.0195,,0.8,0.2,0.6,0.4,0.8,0.2,0.6,0.4,1,0,,,,,,,,,,,,
,,60ce038ef5cec7f1cb716182,66daf5cd020cb54317c8e216,2024-09-06_14h31.42.333,mdp,2024.2.1,Win32,59.52380952,66d7945b1baad48e845df3ce,,,,,,,,,,,,,,,,,,,,,492.3415,492.3415,492.3438,493.6577,0,0,left,0.7697,,493.6595,494.4235,0,0,left,494.4254,494.4262,,0,,1,494.4263,494.4263,494.427,495.9271,0,49,49,49,1,0.8,0.2,0.8,0.2,,,,,,,,,,,,,,,0.2411,,0.8,0.2,0.6,0.4,0.2,0.8,0.4,0.6,1,0,,,,,,,,,,,,
,,60ce038ef5cec7f1cb716182,66daf5cd020cb54317c8e216,2024-09-06_14h31.42.333,mdp,2024.2.1,Win32,59.52380952,66d7945b1baad48e845df3ce,,,,,,,,,,,,,,,,,,,,,,,,,,,,,,,,,,,,,,,,,,,,,,,,,,,,,,,,495.9273,554.4321,0,1,1,5,1,imgs/rabbit.png,imgs/dog.png,imgs/goat.png,imgs/pig.png,imgs/kangaroo.png,,,,,,,,,,,,,,,,,,,,,,,,
,,60ce038ef5cec7f1cb716182,66daf5cd020cb54317c8e216,2024-09-06_14h31.42.333,mdp,2024.2.1,Win32,59.52380952,66d7945b1baad48e845df3ce,,,,,,,,,,,,,,3,seqs/st3seq44.csv,554.4471,582.6952,space,27.7307,,582.7182,582.7182,582.719,584.4784,0,1,left,1.2235,,584.4805,585.8281,0,1,left,585.8301,586.9446,0,0,left,1,586.9447,586.9447,586.9468,588.4444,0,0,0,0,1,0.4,0.6,0.8,0.2,,,,,,,,,,,,,,,0.8197,,0.8,0.2,0.8,0.2,0.6,0.4,0.4,0.6,,,0.5834,,0.2,0.8,0.4,0.6,0.6,0.4,0.8,0.2,1,0
,,60ce038ef5cec7f1cb716182,66daf5cd020cb54317c8e216,2024-09-06_14h31.42.333,mdp,2024.2.1,Win32,59.52380952,66d7945b1baad48e845df3ce,,,,,,,,,,,,,,,,,,,,,588.4463,588.4463,588.448,589.878,0,0,left,0.9052,,589.8799,590.511,0,0,left,590.5131,591.2108,0,1,left,0,591.2111,591.2111,591.2125,592.7106,0,1,1,1,1,0.4,0.6,0.8,0.2,,,,,,,,,,,,,,,0.0996,,0.8,0.2,0.8,0.2,0.6,0.4,0.4,0.6,,,0.1652,,0.2,0.8,0.4,0.6,0.6,0.4,0.8,0.2,1,0
,,60ce038ef5cec7f1cb716182,66daf5cd020cb54317c8e216,2024-09-06_14h31.42.333,mdp,2024.2.1,Win32,59.52380952,66d7945b1baad48e845df3ce,,,,,,,,,,,,,,,,,,,,,592.7119,592.7119,592.7141,593.5268,0,1,left,0.2932,,593.5285,594.0941,1,1,right,594.0959,595.2107,1,1,right,0,595.2109,595.2109,595.2136,596.7103,0,2,2,2,1,0.4,0.6,0.8,0.2,,,,,,,,,,,,,,,0.0461,,0.8,0.2,0.8,0.2,0.6,0.4,0.4,0.6,,,0.5781,,0.2,0.8,0.4,0.6,0.6,0.4,0.8,0.2,1,0
,,60ce038ef5cec7f1cb716182,66daf5cd020cb54317c8e216,2024-09-06_14h31.42.333,mdp,2024.2.1,Win32,59.52380952,66d7945b1baad48e845df3ce,,,,,,,,,,,,,,,,,,,,,596.711,596.711,596.7125,597.5435,0,0,left,0.3024,,597.5456,598.4767,0,0,left,598.4788,599.5595,1,1,right,0,599.5596,599.5596,599.5623,601.0598,0,3,3,3,1,0.4,0.6,0.8,0.2,,,,,,,,,,,,,,,0.401,,0.8,0.2,0.8,0.2,0.6,0.4,0.4,0.6,,,0.5529,,0.2,0.8,0.4,0.6,0.6,0.4,0.8,0.2,1,0
,,60ce038ef5cec7f1cb716182,66daf5cd020cb54317c8e216,2024-09-06_14h31.42.333,mdp,2024.2.1,Win32,59.52380952,66d7945b1baad48e845df3ce,,,,,,,,,,,,,,,,,,,,,601.0604,601.0604,601.0624,602.0761,1,0,right,0.4834,,602.078,602.743,1,0,right,602.7453,603.5262,0,1,left,0,603.5263,603.5263,603.5283,605.0257,0,4,4,4,1,0.4,0.6,0.8,0.2,,,,,,,,,,,,,,,0.1371,,0.8,0.2,0.8,0.2,0.6,0.4,0.4,0.6,,,0.2521,,0.2,0.8,0.4,0.6,0.6,0.4,0.8,0.2,1,0
,,60ce038ef5cec7f1cb716182,66daf5cd020cb54317c8e216,2024-09-06_14h31.42.333,mdp,2024.2.1,Win32,59.52380952,66d7945b1baad48e845df3ce,,,,,,,,,,,,,,,,,,,,,605.0265,605.0265,605.0288,606.2422,0,1,left,0.6842,,606.2451,607.3088,0,0,left,607.3107,609.1086,0,1,left,0,609.1087,609.1087,609.1108,610.6086,0,5,5,5,1,0.4,0.6,0.8,0.2,,,,,,,,,,,,,,,0.5442,,0.8,0.2,0.8,0.2,0.6,0.4,0.4,0.6,,,1.2863,,0.2,0.8,0.4,0.6,0.6,0.4,0.8,0.2,1,0
,,60ce038ef5cec7f1cb716182,66daf5cd020cb54317c8e216,2024-09-06_14h31.42.333,mdp,2024.2.1,Win32,59.52380952,66d7945b1baad48e845df3ce,,,,,,,,,,,,,,,,,,,,,610.6102,610.6102,610.6115,611.2586,0,1,left,0.1193,,611.2607,612.1249,1,1,right,612.1266,612.6741,1,1,right,0,612.6742,612.6742,612.6758,614.1748,0,6,6,6,1,0.4,0.6,0.8,0.2,,,,,,,,,,,,,,,0.3339,,0.6,0.4,0.2,0.8,0.6,0.4,0.4,0.6,,,0.0239,,0.2,0.8,0.4,0.6,0.6,0.4,0.8,0.2,1,0
,,60ce038ef5cec7f1cb716182,66daf5cd020cb54317c8e216,2024-09-06_14h31.42.333,mdp,2024.2.1,Win32,59.52380952,66d7945b1baad48e845df3ce,,,,,,,,,,,,,,,,,,,,,614.1755,614.1755,614.1771,615.1402,0,1,left,0.4341,,615.1411,615.6909,1,0,right,615.6935,616.2243,0,1,left,0,616.2244,616.2244,616.2265,617.7243,0,7,7,7,1,0.4,0.6,0.8,0.2,,,,,,,,,,,,,,,0.0349,,0.6,0.4,0.2,0.8,0.6,0.4,0.4,0.6,,,0.0008,,0.2,0.8,0.4,0.6,0.6,0.4,0.8,0.2,1,0
,,60ce038ef5cec7f1cb716182,66daf5cd020cb54317c8e216,2024-09-06_14h31.42.333,mdp,2024.2.1,Win32,59.52380952,66d7945b1baad48e845df3ce,,,,,,,,,,,,,,,,,,,,,617.7256,617.7256,617.7273,618.7072,0,1,left,0.4589,,618.7091,619.2907,1,1,right,619.2931,620.5738,1,1,right,0,620.5739,620.5739,620.5758,622.0735,0,8,8,8,1,0.4,0.6,0.8,0.2,,,,,,,,,,,,,,,0.0719,,0.6,0.4,0.2,0.8,0.2,0.8,0.6,0.4,,,0.7476,,0.2,0.8,0.4,0.6,0.6,0.4,0.8,0.2,1,0
,,60ce038ef5cec7f1cb716182,66daf5cd020cb54317c8e216,2024-09-06_14h31.42.333,mdp,2024.2.1,Win32,59.52380952,66d7945b1baad48e845df3ce,,,,,,,,,,,,,,,,,,,,,622.0749,622.0749,622.0767,622.9896,1,0,right,0.3914,,622.9914,623.5233,1,1,right,623.5252,624.1066,1,1,right,0,624.1067,624.1067,624.1086,625.6063,0,9,9,9,1,0.4,0.6,0.8,0.2,,,,,,,,,,,,,,,0.0184,,0.6,0.4,0.2,0.8,0.2,0.8,0.6,0.4,,,0.0719,,0.2,0.8,0.4,0.6,0.6,0.4,0.8,0.2,1,0
,,60ce038ef5cec7f1cb716182,66daf5cd020cb54317c8e216,2024-09-06_14h31.42.333,mdp,2024.2.1,Win32,59.52380952,66d7945b1baad48e845df3ce,,,,,,,,,,,,,,,,,,,,,625.6072,625.6073,625.6087,626.6399,0,0,left,0.5053,,626.6424,627.2231,0,0,left,627.2255,628.4392,0,1,left,0,628.4393,628.4393,628.4421,629.9393,0,10,10,10,1,0.4,0.6,0.8,0.2,,,,,,,,,,,,,,,0.0527,,0.6,0.4,0.2,0.8,0.2,0.8,0.6,0.4,,,0.6791,,0.2,0.8,0.4,0.6,0.6,0.4,0.8,0.2,1,0
,,60ce038ef5cec7f1cb716182,66daf5cd020cb54317c8e216,2024-09-06_14h31.42.333,mdp,2024.2.1,Win32,59.52380952,66d7945b1baad48e845df3ce,,,,,,,,,,,,,,,,,,,,,629.9406,629.9406,629.9419,630.8728,0,1,left,0.4014,,630.8756,631.6721,1,1,right,631.6739,632.3055,1,1,right,0,632.3056,632.3056,632.3075,633.8051,0,11,11,11,1,0.4,0.6,0.8,0.2,,,,,,,,,,,,,,,0.2697,,0.6,0.4,0.2,0.8,0.2,0.8,0.6,0.4,,,0.1161,,0.2,0.8,0.4,0.6,0.6,0.4,0.8,0.2,1,0
,,60ce038ef5cec7f1cb716182,66daf5cd020cb54317c8e216,2024-09-06_14h31.42.333,mdp,2024.2.1,Win32,59.52380952,66d7945b1baad48e845df3ce,,,,,,,,,,,,,,,,,,,,,633.8062,633.8063,633.8077,635.3554,0,1,left,1.0186,,635.3573,636.1889,1,1,right,636.1915,636.8058,0,0,left,1,636.8061,636.8061,636.8084,638.3048,0,12,12,12,1,0.4,0.6,0.8,0.2,,,,,,,,,,,,,,,0.3108,,0.6,0.4,0.2,0.8,0.2,0.8,0.6,0.4,,,0.0947,,0.2,0.8,0.4,0.6,0.6,0.4,0.8,0.2,1,0
,,60ce038ef5cec7f1cb716182,66daf5cd020cb54317c8e216,2024-09-06_14h31.42.333,mdp,2024.2.1,Win32,59.52380952,66d7945b1baad48e845df3ce,,,,,,,,,,,,,,,,,,,,,638.3062,638.3062,638.3079,639.2211,0,0,left,0.4017,,639.2232,640.0881,1,1,right,640.0902,640.671,0,0,left,1,640.671,640.6711,640.6729,642.1709,0,13,13,13,1,0.4,0.6,0.8,0.2,,,,,,,,,,,,,,,0.3328,,0.6,0.4,0.2,0.8,0.2,0.8,0.6,0.4,,,0.0581,,0.2,0.8,0.4,0.6,0.6,0.4,0.8,0.2,1,0
,,60ce038ef5cec7f1cb716182,66daf5cd020cb54317c8e216,2024-09-06_14h31.42.333,mdp,2024.2.1,Win32,59.52380952,66d7945b1baad48e845df3ce,,,,,,,,,,,,,,,,,,,,,642.1717,642.1717,642.1737,643.1373,0,0,left,0.4334,,643.1394,643.9876,0,0,left,643.9901,644.5375,0,1,left,0,644.5376,644.5376,644.5402,646.0371,0,14,14,14,1,0.4,0.6,0.8,0.2,,,,,,,,,,,,,,,0.3343,,0.6,0.4,0.2,0.8,0.2,0.8,0.6,0.4,,,0.0141,,0.2,0.8,0.4,0.6,0.6,0.4,0.8,0.2,1,0
,,60ce038ef5cec7f1cb716182,66daf5cd020cb54317c8e216,2024-09-06_14h31.42.333,mdp,2024.2.1,Win32,59.52380952,66d7945b1baad48e845df3ce,,,,,,,,,,,,,,,,,,,,,646.0379,646.0379,646.0402,647.2045,0,0,left,0.6441,,647.2064,647.9701,1,1,right,647.9721,648.5031,1,1,right,0,648.5033,648.5033,648.5053,650.0031,0,15,15,15,1,0.4,0.6,0.8,0.2,,,,,,,,,,,,,,,0.234,,0.6,0.4,0.2,0.8,0.2,0.8,0.6,0.4,,,0.0008,,0.2,0.8,0.4,0.6,0.8,0.2,0.2,0.8,1,0
,,60ce038ef5cec7f1cb716182,66daf5cd020cb54317c8e216,2024-09-06_14h31.42.333,mdp,2024.2.1,Win32,59.52380952,66d7945b1baad48e845df3ce,,,,,,,,,,,,,,,,,,,,,650.0046,650.0046,650.0066,650.7864,0,1,left,0.2521,,650.7886,651.3699,1,1,right,651.372,651.903,0,1,left,0,651.9031,651.9031,651.905,653.4041,0,16,16,16,1,0.4,0.6,0.8,0.2,,,,,,,,,,,,,,,0.062,,0.6,0.4,0.2,0.8,0.2,0.8,0.6,0.4,,,0.0071,,0.2,0.8,0.4,0.6,0.8,0.2,0.2,0.8,1,0
,,60ce038ef5cec7f1cb716182,66daf5cd020cb54317c8e216,2024-09-06_14h31.42.333,mdp,2024.2.1,Win32,59.52380952,66d7945b1baad48e845df3ce,,,,,,,,,,,,,,,,,,,,,653.405,653.405,653.4068,654.4528,0,0,left,0.519,,654.455,655.0857,0,1,left,655.0877,656.6026,0,0,left,1,656.6027,656.6027,656.6044,658.102,0,17,17,17,1,0.4,0.6,0.8,0.2,,,,,,,,,,,,,,,0.1039,,0.6,0.4,0.2,0.8,0.2,0.8,0.6,0.4,,,0.9859,,0.2,0.8,0.4,0.6,0.8,0.2,0.2,0.8,1,0
,,60ce038ef5cec7f1cb716182,66daf5cd020cb54317c8e216,2024-09-06_14h31.42.333,mdp,2024.2.1,Win32,59.52380952,66d7945b1baad48e845df3ce,,,,,,,,,,,,,,,,,,,,,658.1029,658.1029,658.1048,659.0698,1,0,right,0.4446,,659.0712,659.7022,0,0,left,659.7044,660.2855,1,0,right,1,660.2856,660.2856,660.2877,661.7851,0,18,18,18,1,0.4,0.6,0.8,0.2,,,,,,,,,,,,,,,0.1007,,0.6,0.4,0.2,0.8,0.2,0.8,0.6,0.4,,,0.0493,,0.2,0.8,0.4,0.6,0.8,0.2,0.2,0.8,1,0
,,60ce038ef5cec7f1cb716182,66daf5cd020cb54317c8e216,2024-09-06_14h31.42.333,mdp,2024.2.1,Win32,59.52380952,66d7945b1baad48e845df3ce,,,,,,,,,,,,,,,,,,,,,661.7864,661.7864,661.7879,663.1018,0,1,left,0.7825,,663.1039,663.8018,1,1,right,663.8044,664.3347,1,1,right,0,664.3348,664.3348,664.3368,665.8348,0,19,19,19,1,0.4,0.6,0.8,0.2,,,,,,,,,,,,,,,0.1664,,0.6,0.4,0.2,0.8,0.2,0.8,0.6,0.4,,,0.0009,,0.2,0.8,0.4,0.6,0.8,0.2,0.2,0.8,1,0
,,60ce038ef5cec7f1cb716182,66daf5cd020cb54317c8e216,2024-09-06_14h31.42.333,mdp,2024.2.1,Win32,59.52380952,66d7945b1baad48e845df3ce,,,,,,,,,,,,,,,,,,,,,665.8361,665.8361,665.8376,666.7014,0,1,left,0.3348,,666.7037,667.7675,0,1,left,667.7699,669.334,0,0,left,1,669.3341,669.3341,669.3361,670.8341,0,20,20,20,1,0.4,0.6,0.8,0.2,,,,,,,,,,,,,,,0.5346,,0.6,0.4,0.2,0.8,0.2,0.8,0.6,0.4,,,1.0593,,0.2,0.8,0.4,0.6,0.8,0.2,0.2,0.8,1,0
,,60ce038ef5cec7f1cb716182,66daf5cd020cb54317c8e216,2024-09-06_14h31.42.333,mdp,2024.2.1,Win32,59.52380952,66d7945b1baad48e845df3ce,,,,,,,,,,,,,,,,,,,,,670.8348,670.8348,670.8364,671.634,1,0,right,0.2672,,671.6356,672.3844,1,0,right,672.3864,672.9169,1,0,right,1,672.917,672.917,672.9191,674.4171,0,21,21,21,1,0.4,0.6,0.8,0.2,,,,,,,,,,,,,,,0.2133,,0.6,0.4,0.2,0.8,0.2,0.8,0.6,0.4,,,0.001,,0.2,0.8,0.4,0.6,0.8,0.2,0.2,0.8,1,0
,,60ce038ef5cec7f1cb716182,66daf5cd020cb54317c8e216,2024-09-06_14h31.42.333,mdp,2024.2.1,Win32,59.52380952,66d7945b1baad48e845df3ce,,,,,,,,,,,,,,,,,,,,,674.4182,674.4183,674.4199,675.2876,0,1,left,0.3412,,675.2889,676.1668,1,1,right,676.169,676.7493,1,1,right,0,676.7495,676.7495,676.751,678.2498,0,22,22,22,1,0.4,0.6,0.8,0.2,,,,,,,,,,,,,,,0.3446,,0.6,0.4,0.2,0.8,0.2,0.8,0.6,0.4,,,0.0559,,0.2,0.8,0.4,0.6,0.8,0.2,0.2,0.8,1,0
,,60ce038ef5cec7f1cb716182,66daf5cd020cb54317c8e216,2024-09-06_14h31.42.333,mdp,2024.2.1,Win32,59.52380952,66d7945b1baad48e845df3ce,,,,,,,,,,,,,,,,,,,,,678.2504,678.2504,678.2518,679.3326,1,0,right,0.5585,,679.3346,679.8831,1,0,right,679.8847,680.516,1,0,right,1,680.5161,680.5161,680.518,682.016,0,23,23,23,1,0.4,0.6,0.8,0.2,,,,,,,,,,,,,,,0.0315,,0.6,0.4,0.2,0.8,0.2,0.8,0.6,0.4,,,0.0982,,0.2,0.8,0.4,0.6,0.8,0.2,0.2,0.8,1,0
,,60ce038ef5cec7f1cb716182,66daf5cd020cb54317c8e216,2024-09-06_14h31.42.333,mdp,2024.2.1,Win32,59.52380952,66d7945b1baad48e845df3ce,,,,,,,,,,,,,,,,,,,,,682.0169,682.017,682.0187,682.9156,0,1,left,0.374,,682.9177,683.5161,0,1,left,683.5184,684.049,1,1,right,0,684.0492,684.0492,684.0514,685.5487,0,24,24,24,1,0.4,0.6,0.8,0.2,,,,,,,,,,,,,,,0.0653,,0.6,0.4,0.2,0.8,0.2,0.8,0.6,0.4,,,0.0008,,0.2,0.8,0.4,0.6,0.8,0.2,0.2,0.8,1,0
,,60ce038ef5cec7f1cb716182,66daf5cd020cb54317c8e216,2024-09-06_14h31.42.333,mdp,2024.2.1,Win32,59.52380952,66d7945b1baad48e845df3ce,,,,,,,,,,,,,,,,,,,,,685.5494,685.5494,685.551,686.965,1,0,right,0.8837,,686.9668,687.7315,1,1,right,687.7334,688.4152,0,0,left,1,688.4153,688.4154,688.4177,689.9151,0,25,25,25,1,0.4,0.6,0.8,0.2,,,,,,,,,,,,,,,0.2322,,0.6,0.4,0.2,0.8,0.2,0.8,0.6,0.4,,,0.15,,0.2,0.8,0.4,0.6,0.8,0.2,0.2,0.8,1,0
,,60ce038ef5cec7f1cb716182,66daf5cd020cb54317c8e216,2024-09-06_14h31.42.333,mdp,2024.2.1,Win32,59.52380952,66d7945b1baad48e845df3ce,,,,,,,,,,,,,,,,,,,,,689.9166,689.9166,689.9185,691.2977,0,1,left,0.8611,,691.2995,692.3311,1,0,right,692.3334,692.9313,0,1,left,0,692.9314,692.9314,692.9332,694.4311,0,26,26,26,1,0.4,0.6,0.8,0.2,,,,,,,,,,,,,,,0.5209,,0.4,0.6,0.4,0.6,0.2,0.8,0.6,0.4,,,0.0619,,0.2,0.8,0.4,0.6,0.8,0.2,0.2,0.8,1,0
,,60ce038ef5cec7f1cb716182,66daf5cd020cb54317c8e216,2024-09-06_14h31.42.333,mdp,2024.2.1,Win32,59.52380952,66d7945b1baad48e845df3ce,,,,,,,,,,,,,,,,,,,,,694.4331,694.4331,694.435,695.631,0,0,left,0.6693,,695.6327,696.3967,1,0,right,696.3985,696.9306,0,1,left,0,696.9306,696.9306,696.9324,698.4308,0,27,27,27,1,0.4,0.6,0.8,0.2,,,,,,,,,,,,,,,0.2389,,0.6,0.4,0.8,0.2,0.2,0.8,0.6,0.4,,,0.0233,,0.2,0.8,0.4,0.6,0.8,0.2,0.2,0.8,1,0
,,60ce038ef5cec7f1cb716182,66daf5cd020cb54317c8e216,2024-09-06_14h31.42.333,mdp,2024.2.1,Win32,59.52380952,66d7945b1baad48e845df3ce,,,,,,,,,,,,,,,,,,,,,698.4321,698.4321,698.4337,700.0803,1,0,right,1.1175,,700.0821,700.6962,0,0,left,700.6975,701.2797,1,0,right,1,701.2799,701.2799,701.2813,702.78,0,28,28,28,1,0.4,0.6,0.8,0.2,,,,,,,,,,,,,,,0.0931,,0.6,0.4,0.8,0.2,0.2,0.8,0.6,0.4,,,0.0737,,0.2,0.8,0.4,0.6,0.8,0.2,0.2,0.8,1,0
,,60ce038ef5cec7f1cb716182,66daf5cd020cb54317c8e216,2024-09-06_14h31.42.333,mdp,2024.2.1,Win32,59.52380952,66d7945b1baad48e845df3ce,,,,,,,,,,,,,,,,,,,,,702.7807,702.7808,702.7826,704.6468,0,1,left,1.3451,,704.6484,705.3963,1,0,right,705.4003,705.9626,0,0,left,1,705.9627,705.9627,705.9649,707.4622,0,29,29,29,1,0.2,0.8,0.2,0.8,,,,,,,,,,,,,,,0.2176,,0.6,0.4,0.8,0.2,0.2,0.8,0.6,0.4,,,0.0386,,0.2,0.8,0.4,0.6,0.8,0.2,0.2,0.8,1,0
,,60ce038ef5cec7f1cb716182,66daf5cd020cb54317c8e216,2024-09-06_14h31.42.333,mdp,2024.2.1,Win32,59.52380952,66d7945b1baad48e845df3ce,,,,,,,,,,,,,,,,,,,,,707.4627,707.4628,707.4646,708.9123,0,0,left,0.9182,,708.9143,709.8453,1,0,right,709.8466,710.4121,0,1,left,0,710.4121,710.4122,710.4134,711.9122,0,30,30,30,1,0.2,0.8,0.2,0.8,,,,,,,,,,,,,,,0.405,,0.6,0.4,0.8,0.2,0.2,0.8,0.6,0.4,,,0.057,,0.2,0.8,0.4,0.6,0.8,0.2,0.2,0.8,1,0
,,60ce038ef5cec7f1cb716182,66daf5cd020cb54317c8e216,2024-09-06_14h31.42.333,mdp,2024.2.1,Win32,59.52380952,66d7945b1baad48e845df3ce,,,,,,,,,,,,,,,,,,,,,711.913,711.9131,711.9149,713.045,0,0,left,0.6078,,713.0466,713.9615,0,0,left,713.9633,714.8117,0,1,left,0,714.8118,714.8118,714.8133,716.3116,0,31,31,31,1,0.2,0.8,0.2,0.8,,,,,,,,,,,,,,,0.4036,,0.6,0.4,0.8,0.2,0.2,0.8,0.6,0.4,,,0.3343,,0.2,0.8,0.4,0.6,0.2,0.8,0.8,0.2,1,0
,,60ce038ef5cec7f1cb716182,66daf5cd020cb54317c8e216,2024-09-06_14h31.42.333,mdp,2024.2.1,Win32,59.52380952,66d7945b1baad48e845df3ce,,,,,,,,,,,,,,,,,,,,,716.313,716.313,716.3143,717.045,0,0,left,0.2007,,717.0471,717.9109,0,0,left,717.9128,718.6114,1,0,right,1,718.6115,718.6115,718.6137,720.1127,0,32,32,32,1,0.2,0.8,0.2,0.8,,,,,,,,,,,,,,,0.3429,,0.6,0.4,0.8,0.2,0.2,0.8,0.6,0.4,,,0.1842,,0.2,0.8,0.4,0.6,0.2,0.8,0.8,0.2,1,0
,,60ce038ef5cec7f1cb716182,66daf5cd020cb54317c8e216,2024-09-06_14h31.42.333,mdp,2024.2.1,Win32,59.52380952,66d7945b1baad48e845df3ce,,,,,,,,,,,,,,,,,,,,,720.1133,720.1133,720.1151,721.2267,0,1,left,0.5716,,721.2276,721.8768,1,1,right,721.8785,723.127,0,1,left,0,723.1271,723.1271,723.129,724.6264,0,33,33,33,1,0.2,0.8,0.2,0.8,,,,,,,,,,,,,,,0.1141,,0.6,0.4,0.8,0.2,0.2,0.8,0.6,0.4,,,0.7229,,0.2,0.8,0.4,0.6,0.2,0.8,0.8,0.2,1,0
,,60ce038ef5cec7f1cb716182,66daf5cd020cb54317c8e216,2024-09-06_14h31.42.333,mdp,2024.2.1,Win32,59.52380952,66d7945b1baad48e845df3ce,,,,,,,,,,,,,,,,,,,,,724.6269,724.6269,724.6282,725.6104,0,1,left,0.4517,,725.6118,726.2928,0,1,left,726.2936,727.1934,1,0,right,1,727.1935,727.1935,727.195,728.6935,0,34,34,34,1,0.2,0.8,0.2,0.8,,,,,,,,,,,,,,,0.1516,,0.6,0.4,0.8,0.2,0.2,0.8,0.6,0.4,,,0.3875,,0.2,0.8,0.4,0.6,0.2,0.8,0.8,0.2,1,0
,,60ce038ef5cec7f1cb716182,66daf5cd020cb54317c8e216,2024-09-06_14h31.42.333,mdp,2024.2.1,Win32,59.52380952,66d7945b1baad48e845df3ce,,,,,,,,,,,,,,,,,,,,,728.6943,728.6943,728.6956,729.6265,0,1,left,0.4014,,729.628,730.3929,0,1,left,730.3943,731.1596,0,0,left,1,731.1598,731.1598,731.1613,732.6587,0,35,35,35,1,0.2,0.8,0.2,0.8,,,,,,,,,,,,,,,0.2363,,0.6,0.4,0.8,0.2,0.2,0.8,0.6,0.4,,,0.2512,,0.2,0.8,0.4,0.6,0.8,0.2,0.6,0.4,1,0
,,60ce038ef5cec7f1cb716182,66daf5cd020cb54317c8e216,2024-09-06_14h31.42.333,mdp,2024.2.1,Win32,59.52380952,66d7945b1baad48e845df3ce,,,,,,,,,,,,,,,,,,,,,732.6593,732.6594,732.6609,733.7096,0,1,left,0.519,,733.7113,734.3259,1,0,right,734.3275,734.9592,1,1,right,0,734.9593,734.9593,734.9609,736.4587,0,36,36,36,1,0.2,0.8,0.2,0.8,,,,,,,,,,,,,,,0.0836,,0.6,0.4,0.8,0.2,0.2,0.8,0.6,0.4,,,0.0977,,0.2,0.8,0.4,0.6,0.8,0.2,0.6,0.4,1,0
,,60ce038ef5cec7f1cb716182,66daf5cd020cb54317c8e216,2024-09-06_14h31.42.333,mdp,2024.2.1,Win32,59.52380952,66d7945b1baad48e845df3ce,,,,,,,,,,,,,,,,,,,,,736.4592,736.4593,736.4608,737.2918,1,1,right,0.3009,,737.2932,737.8251,0,1,left,737.8263,738.6419,0,0,left,1,738.642,738.642,738.6435,740.142,0,37,37,37,1,0.2,0.8,0.2,0.8,,,,,,,,,,,,,,,0.0267,,0.6,0.4,0.8,0.2,0.2,0.8,0.6,0.4,,,0.284,,0.2,0.8,0.4,0.6,0.8,0.2,0.6,0.4,1,0
,,60ce038ef5cec7f1cb716182,66daf5cd020cb54317c8e216,2024-09-06_14h31.42.333,mdp,2024.2.1,Win32,59.52380952,66d7945b1baad48e845df3ce,,,,,,,,,,,,,,,,,,,,,740.1429,740.1431,740.1445,741.125,1,0,right,0.4507,,741.1266,741.7412,1,0,right,741.7427,742.4077,1,0,right,1,742.4077,742.4078,742.4091,743.9076,0,38,38,38,1,0.2,0.8,0.2,0.8,,,,,,,,,,,,,,,0.0907,,0.6,0.4,0.8,0.2,0.2,0.8,0.6,0.4,,,0.13,,0.2,0.8,0.4,0.6,0.2,0.8,0.8,0.2,1,0
,,60ce038ef5cec7f1cb716182,66daf5cd020cb54317c8e216,2024-09-06_14h31.42.333,mdp,2024.2.1,Win32,59.52380952,66d7945b1baad48e845df3ce,,,,,,,,,,,,,,,,,,,,,743.9084,743.9085,743.9099,745.008,1,1,right,0.5692,,745.0096,745.5576,0,1,left,745.5595,746.2404,1,1,right,0,746.2406,746.2406,746.2419,747.7409,0,39,39,39,1,0.2,0.8,0.2,0.8,,,,,,,,,,,,,,,0.0132,,0.8,0.2,0.6,0.4,0.2,0.8,0.6,0.4,,,0.1519,,0.2,0.8,0.4,0.6,0.2,0.8,0.8,0.2,1,0
,,60ce038ef5cec7f1cb716182,66daf5cd020cb54317c8e216,2024-09-06_14h31.42.333,mdp,2024.2.1,Win32,59.52380952,66d7945b1baad48e845df3ce,,,,,,,,,,,,,,,,,,,,,747.7417,747.7418,747.7436,748.4403,0,0,left,0.1683,,748.4417,749.0234,0,0,left,749.0246,749.5573,0,1,left,0,749.5574,749.5574,749.559,751.0567,0,40,40,40,1,0.2,0.8,0.2,0.8,,,,,,,,,,,,,,,0.0726,,0.8,0.2,0.6,0.4,0.2,0.8,0.6,0.4,,,0.0132,,0.2,0.8,0.4,0.6,0.2,0.8,0.8,0.2,1,0
,,60ce038ef5cec7f1cb716182,66daf5cd020cb54317c8e216,2024-09-06_14h31.42.333,mdp,2024.2.1,Win32,59.52380952,66d7945b1baad48e845df3ce,,,,,,,,,,,,,,,,,,,,,751.0575,751.0577,751.0595,751.8729,0,1,left,0.2857,,751.8739,752.4402,1,0,right,752.4416,752.9904,0,1,left,0,752.9905,752.9905,752.9917,754.4898,0,41,41,41,1,0.2,0.8,0.2,0.8,,,,,,,,,,,,,,,0.0478,,0.8,0.2,0.6,0.4,0.2,0.8,0.6,0.4,,,0.0186,,0.2,0.8,0.4,0.6,0.2,0.8,0.8,0.2,1,0
,,60ce038ef5cec7f1cb716182,66daf5cd020cb54317c8e216,2024-09-06_14h31.42.333,mdp,2024.2.1,Win32,59.52380952,66d7945b1baad48e845df3ce,,,,,,,,,,,,,,,,,,,,,754.4906,754.4907,754.4924,755.3568,0,1,left,0.3342,,755.3584,755.9229,0,1,left,755.924,756.4557,0,1,left,0,756.4558,756.4559,756.4571,757.9561,0,42,42,42,1,0.2,0.8,0.2,0.8,,,,,,,,,,,,,,,0.0433,,0.8,0.2,0.6,0.4,0.2,0.8,0.6,0.4,,,0.0032,,0.2,0.8,0.4,0.6,0.2,0.8,0.8,0.2,1,0
,,60ce038ef5cec7f1cb716182,66daf5cd020cb54317c8e216,2024-09-06_14h31.42.333,mdp,2024.2.1,Win32,59.52380952,66d7945b1baad48e845df3ce,,,,,,,,,,,,,,,,,,,,,757.9567,757.9567,757.9582,759.205,1,0,right,0.7181,,759.2058,759.8891,1,0,right,759.8909,760.4558,1,1,right,0,760.4558,760.4559,760.457,761.9558,0,43,43,43,1,0.2,0.8,0.2,0.8,,,,,,,,,,,,,,,0.165,,0.8,0.2,0.6,0.4,0.6,0.4,0.2,0.8,,,0.0549,,0.2,0.8,0.4,0.6,0.2,0.8,0.8,0.2,1,0
,,60ce038ef5cec7f1cb716182,66daf5cd020cb54317c8e216,2024-09-06_14h31.42.333,mdp,2024.2.1,Win32,59.52380952,66d7945b1baad48e845df3ce,,,,,,,,,,,,,,,,,,,,,761.9566,761.9567,761.9582,764.0386,1,0,right,1.5539,,764.0404,764.5721,0,0,left,764.5735,765.2047,0,1,left,0,765.2048,765.2048,765.206,766.705,0,44,44,44,1,0.2,0.8,0.2,0.8,,,,,,,,,,,,,,,0.0058,,0.8,0.2,0.6,0.4,0.6,0.4,0.2,0.8,,,0.0998,,0.2,0.8,0.4,0.6,0.2,0.8,0.8,0.2,1,0
,,60ce038ef5cec7f1cb716182,66daf5cd020cb54317c8e216,2024-09-06_14h31.42.333,mdp,2024.2.1,Win32,59.52380952,66d7945b1baad48e845df3ce,,,,,,,,,,,,,,,,,,,,,766.7064,766.7064,766.7085,767.7046,1,1,right,0.4724,,767.7064,768.2876,0,0,left,768.2888,768.8712,1,1,right,0,768.8713,768.8713,768.8727,770.3714,0,45,45,45,1,0.2,0.8,0.2,0.8,,,,,,,,,,,,,,,0.0507,,0.8,0.2,0.6,0.4,0.6,0.4,0.2,0.8,,,0.0733,,0.2,0.8,0.4,0.6,0.2,0.8,0.8,0.2,1,0
,,60ce038ef5cec7f1cb716182,66daf5cd020cb54317c8e216,2024-09-06_14h31.42.333,mdp,2024.2.1,Win32,59.52380952,66d7945b1baad48e845df3ce,,,,,,,,,,,,,,,,,,,,,770.3721,770.3721,770.3735,771.0881,0,1,left,0.1853,,771.0898,771.7543,0,0,left,771.7557,772.3037,0,1,left,0,772.3037,772.3037,772.3053,773.8039,0,46,46,46,1,0.2,0.8,0.2,0.8,,,,,,,,,,,,,,,0.1346,,0.8,0.2,0.6,0.4,0.6,0.4,0.2,0.8,,,0.0267,,0.2,0.8,0.4,0.6,0.2,0.8,0.8,0.2,1,0
,,60ce038ef5cec7f1cb716182,66daf5cd020cb54317c8e216,2024-09-06_14h31.42.333,mdp,2024.2.1,Win32,59.52380952,66d7945b1baad48e845df3ce,,,,,,,,,,,,,,,,,,,,,773.805,773.805,773.8064,774.9705,0,1,left,0.6348,,774.9719,775.6535,1,1,right,775.6554,776.2037,0,1,left,0,776.2038,776.2038,776.2055,777.7039,0,47,47,47,1,0.2,0.8,0.2,0.8,,,,,,,,,,,,,,,0.1508,,0.8,0.2,0.6,0.4,0.6,0.4,0.2,0.8,,,0.029,,0.2,0.8,0.4,0.6,0.2,0.8,0.8,0.2,1,0
,,60ce038ef5cec7f1cb716182,66daf5cd020cb54317c8e216,2024-09-06_14h31.42.333,mdp,2024.2.1,Win32,59.52380952,66d7945b1baad48e845df3ce,,,,,,,,,,,,,,,,,,,,,777.7045,777.7045,777.706,778.7536,0,1,left,0.5172,,778.755,779.4195,1,1,right,779.4209,779.9866,0,0,left,1,779.9866,779.9866,779.9883,781.4869,0,48,48,48,1,0.2,0.8,0.2,0.8,,,,,,,,,,,,,,,0.1387,,0.8,0.2,0.6,0.4,0.6,0.4,0.2,0.8,,,0.0522,,0.2,0.8,0.4,0.6,0.2,0.8,0.8,0.2,1,0
,,60ce038ef5cec7f1cb716182,66daf5cd020cb54317c8e216,2024-09-06_14h31.42.333,mdp,2024.2.1,Win32,59.52380952,66d7945b1baad48e845df3ce,,,,,,,,,,,,,,,,,,,,,781.4875,781.4875,781.489,782.3363,0,1,left,0.3273,,782.3377,782.9357,1,1,right,782.937,783.536,0,1,left,0,783.5361,783.5361,783.5377,785.0361,0,49,49,49,1,0.2,0.8,0.2,0.8,,,,,,,,,,,,,,,0.0784,,0.8,0.2,0.6,0.4,0.6,0.4,0.2,0.8,,,0.0898,,0.2,0.8,0.4,0.6,0.2,0.8,0.8,0.2,1,0
,,60ce038ef5cec7f1cb716182,66daf5cd020cb54317c8e216,2024-09-06_14h31.42.333,mdp,2024.2.1,Win32,59.52380952,66d7945b1baad48e845df3ce,,,,,,,,,,,,,,,,,,,,,,,,,,,,,,,,,,,,,,,,,,,,,,,,,,,,,,,,785.0363,843.5449,0,2,2,2,1,imgs/cat.png,imgs/kangaroo.png,imgs/horse.png,imgs/squirrel.png,imgs/rabbit.png,,,,,,,,,,,,,,,,,,,,,,,,
,,60ce038ef5cec7f1cb716182,66daf5cd020cb54317c8e216,2024-09-06_14h31.42.333,mdp,2024.2.1,Win32,59.52380952,66d7945b1baad48e845df3ce,,,,,,,,,,,,,,3,seqs/st3seq0.csv,843.5592,845.5278,space,1.4539,,845.534,845.534,845.5349,847.0111,0,1,left,0.9469,,847.0125,848.0443,1,1,right,848.0459,848.8108,0,1,left,0,848.8109,848.8109,848.8124,850.3108,0,0,0,0,1,0.2,0.8,0.8,0.2,,,,,,,,,,,,,,,0.5071,,0.6,0.4,0.4,0.6,0.2,0.8,0.6,0.4,,,0.2376,,0.8,0.2,0.2,0.8,0.4,0.6,0.2,0.8,1,0
,,60ce038ef5cec7f1cb716182,66daf5cd020cb54317c8e216,2024-09-06_14h31.42.333,mdp,2024.2.1,Win32,59.52380952,66d7945b1baad48e845df3ce,,,,,,,,,,,,,,,,,,,,,850.3117,850.3117,850.313,851.1939,0,1,left,0.3583,,851.1951,852.5275,0,1,left,852.5287,853.3772,0,1,left,0,853.3773,853.3773,853.3786,854.8769,0,1,1,1,1,0.2,0.8,0.8,0.2,,,,,,,,,,,,,,,0.8113,,0.6,0.4,0.4,0.6,0.2,0.8,0.6,0.4,,,0.3228,,0.8,0.2,0.2,0.8,0.4,0.6,0.2,0.8,1,0
,,60ce038ef5cec7f1cb716182,66daf5cd020cb54317c8e216,2024-09-06_14h31.42.333,mdp,2024.2.1,Win32,59.52380952,66d7945b1baad48e845df3ce,,,,,,,,,,,,,,,,,,,,,854.8775,854.8775,854.8788,855.6935,1,0,right,0.2908,,855.6949,856.4099,0,0,left,856.4115,857.0933,0,0,left,1,857.0933,857.0934,857.0949,858.5928,0,2,2,2,1,0.2,0.8,0.8,0.2,,,,,,,,,,,,,,,0.1788,,0.6,0.4,0.4,0.6,0.2,0.8,0.6,0.4,,,0.1592,,0.8,0.2,0.2,0.8,0.4,0.6,0.2,0.8,1,0
,,60ce038ef5cec7f1cb716182,66daf5cd020cb54317c8e216,2024-09-06_14h31.42.333,mdp,2024.2.1,Win32,59.52380952,66d7945b1baad48e845df3ce,,,,,,,,,,,,,,,,,,,,,858.5932,858.5933,858.5949,859.4763,1,0,right,0.3509,,859.478,860.0603,0,0,left,860.0617,860.676,1,1,right,0,860.6761,860.6761,860.6775,862.1761,0,3,3,3,1,0.2,0.8,0.8,0.2,,,,,,,,,,,,,,,0.0538,,0.2,0.8,0.8,0.2,0.2,0.8,0.6,0.4,,,0.0873,,0.8,0.2,0.2,0.8,0.4,0.6,0.2,0.8,1,0
,,60ce038ef5cec7f1cb716182,66daf5cd020cb54317c8e216,2024-09-06_14h31.42.333,mdp,2024.2.1,Win32,59.52380952,66d7945b1baad48e845df3ce,,,,,,,,,,,,,,,,,,,,,862.1769,862.1769,862.178,863.0258,1,0,right,0.3176,,863.0274,863.6086,1,1,right,863.6099,864.292,1,1,right,0,864.2921,864.2921,864.2932,865.7937,0,4,4,4,1,0.2,0.8,0.8,0.2,,,,,,,,,,,,,,,0.0606,,0.2,0.8,0.8,0.2,0.2,0.8,0.6,0.4,,,0.1656,,0.8,0.2,0.2,0.8,0.4,0.6,0.2,0.8,1,0
,,60ce038ef5cec7f1cb716182,66daf5cd020cb54317c8e216,2024-09-06_14h31.42.333,mdp,2024.2.1,Win32,59.52380952,66d7945b1baad48e845df3ce,,,,,,,,,,,,,,,,,,,,,865.7951,865.7951,865.7963,866.6248,1,0,right,0.3063,,866.6256,867.1419,0,0,left,867.1435,867.6584,1,1,right,0,867.6585,867.6585,867.66,869.1585,0,5,5,5,1,0.2,0.8,0.8,0.2,,,,,,,,,,,,,,,0.0039,,0.2,0.8,0.8,0.2,0.2,0.8,0.6,0.4,,,0.0005,,0.8,0.2,0.2,0.8,0.4,0.6,0.2,0.8,1,0
,,60ce038ef5cec7f1cb716182,66daf5cd020cb54317c8e216,2024-09-06_14h31.42.333,mdp,2024.2.1,Win32,59.52380952,66d7945b1baad48e845df3ce,,,,,,,,,,,,,,,,,,,,,869.1594,869.1594,869.1606,870.1746,1,0,right,0.4952,,870.1754,870.7084,1,0,right,870.7103,871.808,1,1,right,0,871.808,871.808,871.8096,873.3079,0,6,6,6,1,0.2,0.8,0.8,0.2,,,,,,,,,,,,,,,0.0017,,0.2,0.8,0.8,0.2,0.2,0.8,0.6,0.4,,,0.5682,,0.8,0.2,0.2,0.8,0.4,0.6,0.2,0.8,1,0
,,60ce038ef5cec7f1cb716182,66daf5cd020cb54317c8e216,2024-09-06_14h31.42.333,mdp,2024.2.1,Win32,59.52380952,66d7945b1baad48e845df3ce,,,,,,,,,,,,,,,,,,,,,873.3089,873.309,873.3104,874.4911,0,1,left,0.6572,,874.4928,875.1414,1,0,right,875.1427,875.824,0,1,left,0,875.8241,875.8241,875.8256,877.3245,0,7,7,7,1,0.2,0.8,0.8,0.2,,,,,,,,,,,,,,,0.1145,,0.2,0.8,0.8,0.2,0.2,0.8,0.6,0.4,,,0.1524,,0.8,0.2,0.2,0.8,0.4,0.6,0.2,0.8,1,0
,,60ce038ef5cec7f1cb716182,66daf5cd020cb54317c8e216,2024-09-06_14h31.42.333,mdp,2024.2.1,Win32,59.52380952,66d7945b1baad48e845df3ce,,,,,,,,,,,,,,,,,,,,,877.3252,877.3252,877.3268,878.291,1,0,right,0.4343,,878.2929,879.0901,0,0,left,879.0916,879.79,1,1,right,0,879.7902,879.7902,879.7913,881.2902,0,8,8,8,1,0.2,0.8,0.8,0.2,,,,,,,,,,,,,,,0.2665,,0.6,0.4,0.2,0.8,0.2,0.8,0.6,0.4,,,0.1779,,0.8,0.2,0.2,0.8,0.4,0.6,0.2,0.8,1,0
,,60ce038ef5cec7f1cb716182,66daf5cd020cb54317c8e216,2024-09-06_14h31.42.333,mdp,2024.2.1,Win32,59.52380952,66d7945b1baad48e845df3ce,,,,,,,,,,,,,,,,,,,,,881.2911,881.2912,881.2926,882.6905,0,1,left,0.8664,,882.6923,883.3238,0,1,left,883.3255,884.107,1,1,right,0,884.107,884.107,884.1084,885.6064,0,9,9,9,1,0.2,0.8,0.8,0.2,,,,,,,,,,,,,,,0.0951,,0.6,0.4,0.2,0.8,0.2,0.8,0.6,0.4,,,0.2572,,0.8,0.2,0.2,0.8,0.4,0.6,0.2,0.8,1,0
,,60ce038ef5cec7f1cb716182,66daf5cd020cb54317c8e216,2024-09-06_14h31.42.333,mdp,2024.2.1,Win32,59.52380952,66d7945b1baad48e845df3ce,,,,,,,,,,,,,,,,,,,,,885.6073,885.6073,885.6087,886.4566,0,0,left,0.3172,,886.4583,887.1731,1,0,right,887.1748,887.8398,1,0,right,1,887.8398,887.8398,887.8415,889.3392,0,10,10,10,1,0.2,0.8,0.8,0.2,,,,,,,,,,,,,,,0.1863,,0.6,0.4,0.2,0.8,0.2,0.8,0.6,0.4,,,0.1312,,0.8,0.2,0.2,0.8,0.4,0.6,0.2,0.8,1,0
,,60ce038ef5cec7f1cb716182,66daf5cd020cb54317c8e216,2024-09-06_14h31.42.333,mdp,2024.2.1,Win32,59.52380952,66d7945b1baad48e845df3ce,,,,,,,,,,,,,,,,,,,,,889.34,889.34,889.3412,890.4895,0,1,left,0.6181,,890.491,891.1056,1,0,right,891.107,891.6726,0,1,left,0,891.6727,891.6727,891.6741,893.1719,0,11,11,11,1,0.4,0.6,0.6,0.4,,,,,,,,,,,,,,,0.0802,,0.6,0.4,0.2,0.8,0.2,0.8,0.6,0.4,,,0.0338,,0.8,0.2,0.2,0.8,0.4,0.6,0.2,0.8,1,0
,,60ce038ef5cec7f1cb716182,66daf5cd020cb54317c8e216,2024-09-06_14h31.42.333,mdp,2024.2.1,Win32,59.52380952,66d7945b1baad48e845df3ce,,,,,,,,,,,,,,,,,,,,,893.1728,893.1728,893.1744,894.3056,0,1,left,0.5993,,894.3073,894.9386,1,1,right,894.9401,895.5379,0,0,left,1,895.538,895.538,895.5393,897.038,0,12,12,12,1,0.4,0.6,0.6,0.4,,,,,,,,,,,,,,,0.1041,,0.6,0.4,0.2,0.8,0.2,0.8,0.6,0.4,,,0.0884,,0.8,0.2,0.2,0.8,0.4,0.6,0.2,0.8,1,0
,,60ce038ef5cec7f1cb716182,66daf5cd020cb54317c8e216,2024-09-06_14h31.42.333,mdp,2024.2.1,Win32,59.52380952,66d7945b1baad48e845df3ce,,,,,,,,,,,,,,,,,,,,,897.0387,897.0387,897.0403,898.3715,0,0,left,0.8034,,898.3729,899.1382,0,0,left,899.1399,899.838,0,1,left,0,899.8381,899.8381,899.8392,901.3393,0,13,13,13,1,0.2,0.8,0.8,0.2,,,,,,,,,,,,,,,0.2443,,0.6,0.4,0.2,0.8,0.2,0.8,0.6,0.4,,,0.1634,,0.8,0.2,0.2,0.8,0.4,0.6,0.2,0.8,1,0
,,60ce038ef5cec7f1cb716182,66daf5cd020cb54317c8e216,2024-09-06_14h31.42.333,mdp,2024.2.1,Win32,59.52380952,66d7945b1baad48e845df3ce,,,,,,,,,,,,,,,,,,,,,901.3404,901.3405,901.3423,902.4053,0,1,left,0.5435,,902.4073,903.0711,0,0,left,903.0729,903.6378,0,0,left,1,903.6379,903.6379,903.6396,905.1373,0,14,14,14,1,0.2,0.8,0.8,0.2,,,,,,,,,,,,,,,0.131,,0.6,0.4,0.2,0.8,0.2,0.8,0.6,0.4,,,0.035,,0.8,0.2,0.2,0.8,0.4,0.6,0.2,0.8,1,0
,,60ce038ef5cec7f1cb716182,66daf5cd020cb54317c8e216,2024-09-06_14h31.42.333,mdp,2024.2.1,Win32,59.52380952,66d7945b1baad48e845df3ce,,,,,,,,,,,,,,,,,,,,,905.138,905.138,905.1397,906.1369,0,1,left,0.4784,,906.1381,906.67,1,0,right,906.6713,907.2371,0,0,left,1,907.2371,907.2371,907.2385,908.7371,0,15,15,15,1,0.2,0.8,0.8,0.2,,,,,,,,,,,,,,,0.0264,,0.6,0.4,0.2,0.8,0.2,0.8,0.6,0.4,,,0.0523,,0.8,0.2,0.2,0.8,0.4,0.6,0.2,0.8,1,0
,,60ce038ef5cec7f1cb716182,66daf5cd020cb54317c8e216,2024-09-06_14h31.42.333,mdp,2024.2.1,Win32,59.52380952,66d7945b1baad48e845df3ce,,,,,,,,,,,,,,,,,,,,,908.7377,908.7377,908.7392,909.7365,1,0,right,0.4681,,909.7383,910.5197,0,1,left,910.5211,911.069,0,1,left,0,911.0692,911.0692,911.0702,912.5687,0,16,16,16,1,0.2,0.8,0.8,0.2,,,,,,,,,,,,,,,0.2641,,0.6,0.4,0.2,0.8,0.2,0.8,0.6,0.4,,,0.0226,,0.8,0.2,0.2,0.8,0.4,0.6,0.2,0.8,1,0
,,60ce038ef5cec7f1cb716182,66daf5cd020cb54317c8e216,2024-09-06_14h31.42.333,mdp,2024.2.1,Win32,59.52380952,66d7945b1baad48e845df3ce,,,,,,,,,,,,,,,,,,,,,912.5691,912.5691,912.5699,913.3861,1,0,right,0.3087,,913.3878,914.0695,0,1,left,914.0709,914.6351,0,0,left,1,914.6352,914.6352,914.6359,916.1359,0,17,17,17,1,0.2,0.8,0.8,0.2,,,,,,,,,,,,,,,0.1593,,0.6,0.4,0.2,0.8,0.4,0.6,0.2,0.8,,,0.036,,0.8,0.2,0.2,0.8,0.4,0.6,0.2,0.8,1,0
,,60ce038ef5cec7f1cb716182,66daf5cd020cb54317c8e216,2024-09-06_14h31.42.333,mdp,2024.2.1,Win32,59.52380952,66d7945b1baad48e845df3ce,,,,,,,,,,,,,,,,,,,,,916.1366,916.1366,916.138,916.9191,1,0,right,0.2567,,916.9205,917.5852,0,1,left,917.5868,918.152,0,0,left,1,918.1522,918.1522,918.1535,919.6522,0,18,18,18,1,0.2,0.8,0.8,0.2,,,,,,,,,,,,,,,0.1425,,0.6,0.4,0.2,0.8,0.4,0.6,0.2,0.8,,,0.0416,,0.8,0.2,0.2,0.8,0.4,0.6,0.2,0.8,1,0
,,60ce038ef5cec7f1cb716182,66daf5cd020cb54317c8e216,2024-09-06_14h31.42.333,mdp,2024.2.1,Win32,59.52380952,66d7945b1baad48e845df3ce,,,,,,,,,,,,,,,,,,,,,919.6528,919.6528,919.6542,920.6684,1,0,right,0.4903,,920.6698,922.4184,1,1,right,922.4197,923.2347,1,0,right,1,923.2348,923.2348,923.2367,924.7345,0,19,19,19,1,0.2,0.8,0.8,0.2,,,,,,,,,,,,,,,1.2261,,0.6,0.4,0.2,0.8,0.4,0.6,0.2,0.8,,,0.2849,,0.8,0.2,0.2,0.8,0.6,0.4,0.6,0.4,1,0
,,60ce038ef5cec7f1cb716182,66daf5cd020cb54317c8e216,2024-09-06_14h31.42.333,mdp,2024.2.1,Win32,59.52380952,66d7945b1baad48e845df3ce,,,,,,,,,,,,,,,,,,,,,924.7352,924.7352,924.7371,925.8182,1,0,right,0.5516,,925.8197,926.751,0,1,left,926.7523,927.2842,0,1,left,0,927.2843,927.2844,927.2861,928.7844,0,20,20,20,1,0.2,0.8,0.8,0.2,,,,,,,,,,,,,,,0.4077,,0.6,0.4,0.2,0.8,0.4,0.6,0.2,0.8,,,0.0019,,0.8,0.2,0.2,0.8,0.6,0.4,0.6,0.4,1,0
,,60ce038ef5cec7f1cb716182,66daf5cd020cb54317c8e216,2024-09-06_14h31.42.333,mdp,2024.2.1,Win32,59.52380952,66d7945b1baad48e845df3ce,,,,,,,,,,,,,,,,,,,,,928.7851,928.7851,928.7869,929.8006,1,0,right,0.4868,,929.8026,930.334,0,1,left,930.3355,930.9667,0,0,left,1,930.9667,930.9667,930.9679,932.4671,0,21,21,21,1,0.2,0.8,0.8,0.2,,,,,,,,,,,,,,,0.0013,,0.6,0.4,0.2,0.8,0.4,0.6,0.2,0.8,,,0.108,,0.8,0.2,0.2,0.8,0.6,0.4,0.6,0.4,1,0
,,60ce038ef5cec7f1cb716182,66daf5cd020cb54317c8e216,2024-09-06_14h31.42.333,mdp,2024.2.1,Win32,59.52380952,66d7945b1baad48e845df3ce,,,,,,,,,,,,,,,,,,,,,932.4678,932.4678,932.4695,933.4832,0,1,left,0.4937,,933.4845,934.1336,0,1,left,934.135,935.0836,1,0,right,1,935.0838,935.0838,935.0857,936.583,0,22,22,22,1,0.2,0.8,0.8,0.2,,,,,,,,,,,,,,,0.1315,,0.6,0.4,0.2,0.8,0.4,0.6,0.2,0.8,,,0.419,,0.8,0.2,0.2,0.8,0.6,0.4,0.6,0.4,1,0
,,60ce038ef5cec7f1cb716182,66daf5cd020cb54317c8e216,2024-09-06_14h31.42.333,mdp,2024.2.1,Win32,59.52380952,66d7945b1baad48e845df3ce,,,,,,,,,,,,,,,,,,,,,936.5839,936.5839,936.5852,937.6829,1,0,right,0.5689,,937.6844,938.233,0,1,left,938.2349,938.7663,0,0,left,1,938.7665,938.7665,938.7682,940.2662,0,23,23,23,1,0.2,0.8,0.8,0.2,,,,,,,,,,,,,,,0.0294,,0.6,0.4,0.2,0.8,0.4,0.6,0.2,0.8,,,0.0011,,0.8,0.2,0.2,0.8,0.6,0.4,0.6,0.4,1,0
,,60ce038ef5cec7f1cb716182,66daf5cd020cb54317c8e216,2024-09-06_14h31.42.333,mdp,2024.2.1,Win32,59.52380952,66d7945b1baad48e845df3ce,,,,,,,,,,,,,,,,,,,,,940.2669,940.267,940.2686,941.2825,1,0,right,0.4847,,941.2838,941.9324,0,1,left,941.9341,942.5157,1,1,right,0,942.5158,942.5158,942.5173,944.0157,0,24,24,24,1,0.2,0.8,0.8,0.2,,,,,,,,,,,,,,,0.1374,,0.6,0.4,0.2,0.8,0.4,0.6,0.2,0.8,,,0.0529,,0.8,0.2,0.2,0.8,0.6,0.4,0.6,0.4,1,0
,,60ce038ef5cec7f1cb716182,66daf5cd020cb54317c8e216,2024-09-06_14h31.42.333,mdp,2024.2.1,Win32,59.52380952,66d7945b1baad48e845df3ce,,,,,,,,,,,,,,,,,,,,,944.0165,944.0165,944.0178,945.0322,1,1,right,0.487,,945.034,945.7149,0,0,left,945.7163,947.2324,1,0,right,1,947.2325,947.2325,947.2339,948.7314,0,25,25,25,1,0.2,0.8,0.8,0.2,,,,,,,,,,,,,,,0.1567,,0.6,0.4,0.2,0.8,0.4,0.6,0.2,0.8,,,0.9968,,0.8,0.2,0.2,0.8,0.6,0.4,0.6,0.4,1,0
,,60ce038ef5cec7f1cb716182,66daf5cd020cb54317c8e216,2024-09-06_14h31.42.333,mdp,2024.2.1,Win32,59.52380952,66d7945b1baad48e845df3ce,,,,,,,,,,,,,,,,,,,,,948.732,948.732,948.7333,949.6484,1,0,right,0.3806,,949.6506,950.2313,0,0,left,950.233,951.4148,0,0,left,1,951.4148,951.4148,951.4166,952.9178,0,26,26,26,1,0.2,0.8,0.8,0.2,,,,,,,,,,,,,,,0.0472,,0.6,0.4,0.2,0.8,0.4,0.6,0.2,0.8,,,0.6511,,0.8,0.2,0.2,0.8,0.6,0.4,0.6,0.4,1,0
,,60ce038ef5cec7f1cb716182,66daf5cd020cb54317c8e216,2024-09-06_14h31.42.333,mdp,2024.2.1,Win32,59.52380952,66d7945b1baad48e845df3ce,,,,,,,,,,,,,,,,,,,,,952.9183,952.9184,952.9194,953.7311,0,1,left,0.2976,,953.7321,954.314,1,1,right,954.3154,954.848,1,0,right,1,954.8481,954.8482,954.8496,956.347,0,27,27,27,1,0.2,0.8,0.8,0.2,,,,,,,,,,,,,,,0.0511,,0.6,0.4,0.2,0.8,0.4,0.6,0.2,0.8,,,0.0118,,0.8,0.2,0.2,0.8,0.6,0.4,0.6,0.4,1,0
,,60ce038ef5cec7f1cb716182,66daf5cd020cb54317c8e216,2024-09-06_14h31.42.333,mdp,2024.2.1,Win32,59.52380952,66d7945b1baad48e845df3ce,,,,,,,,,,,,,,,,,,,,,956.3482,956.3482,956.3498,957.3801,0,0,left,0.5003,,957.383,957.9297,1,1,right,957.9309,958.48,1,1,right,0,958.4802,958.4802,958.4816,959.9802,0,28,28,28,1,0.2,0.8,0.8,0.2,,,,,,,,,,,,,,,0.0331,,0.6,0.4,0.2,0.8,0.4,0.6,0.2,0.8,,,0.0343,,0.8,0.2,0.2,0.8,0.6,0.4,0.6,0.4,1,0
,,60ce038ef5cec7f1cb716182,66daf5cd020cb54317c8e216,2024-09-06_14h31.42.333,mdp,2024.2.1,Win32,59.52380952,66d7945b1baad48e845df3ce,,,,,,,,,,,,,,,,,,,,,959.9809,959.9809,959.9826,960.8631,0,1,left,0.353,,960.8648,961.3962,1,1,right,961.3973,962.5131,1,1,right,0,962.5131,962.5131,962.5147,964.0132,0,29,29,29,1,0.2,0.8,0.8,0.2,,,,,,,,,,,,,,,0.0063,,0.6,0.4,0.2,0.8,0.4,0.6,0.2,0.8,,,0.6034,,0.8,0.2,0.2,0.8,0.6,0.4,0.6,0.4,1,0
,,60ce038ef5cec7f1cb716182,66daf5cd020cb54317c8e216,2024-09-06_14h31.42.333,mdp,2024.2.1,Win32,59.52380952,66d7945b1baad48e845df3ce,,,,,,,,,,,,,,,,,,,,,964.0141,964.0141,964.0157,964.9961,0,1,left,0.4508,,964.9979,965.6459,1,1,right,965.6475,966.312,1,0,right,1,966.312,966.312,966.3134,967.8126,0,30,30,30,1,0.2,0.8,0.8,0.2,,,,,,,,,,,,,,,0.1207,,0.4,0.6,0.8,0.2,0.4,0.6,0.2,0.8,,,0.1552,,0.8,0.2,0.2,0.8,0.6,0.4,0.6,0.4,1,0
,,60ce038ef5cec7f1cb716182,66daf5cd020cb54317c8e216,2024-09-06_14h31.42.333,mdp,2024.2.1,Win32,59.52380952,66d7945b1baad48e845df3ce,,,,,,,,,,,,,,,,,,,,,967.8135,967.8135,967.8148,968.7289,0,1,left,0.3866,,968.7303,969.4623,1,1,right,969.4642,970.0119,0,0,left,1,970.0119,970.012,970.0134,971.5117,0,31,31,31,1,0.2,0.8,0.8,0.2,,,,,,,,,,,,,,,0.2009,,0.4,0.6,0.8,0.2,0.4,0.6,0.2,0.8,,,0.0208,,0.8,0.2,0.2,0.8,0.6,0.4,0.6,0.4,1,0
,,60ce038ef5cec7f1cb716182,66daf5cd020cb54317c8e216,2024-09-06_14h31.42.333,mdp,2024.2.1,Win32,59.52380952,66d7945b1baad48e845df3ce,,,,,,,,,,,,,,,,,,,,,971.5123,971.5123,971.5141,972.812,1,0,right,0.7676,,972.8136,973.478,0,1,left,973.4793,974.078,0,0,left,1,974.0781,974.0781,974.0794,975.5784,0,32,32,32,1,0.2,0.8,0.8,0.2,,,,,,,,,,,,,,,0.1394,,0.8,0.2,0.6,0.4,0.4,0.6,0.2,0.8,,,0.0698,,0.8,0.2,0.2,0.8,0.6,0.4,0.6,0.4,1,0
,,60ce038ef5cec7f1cb716182,66daf5cd020cb54317c8e216,2024-09-06_14h31.42.333,mdp,2024.2.1,Win32,59.52380952,66d7945b1baad48e845df3ce,,,,,,,,,,,,,,,,,,,,,975.58,975.58,975.5817,976.4779,0,1,left,0.3752,,976.4793,977.0279,1,1,right,977.0296,978.361,0,1,left,0,978.361,978.361,978.3625,979.8608,0,33,33,33,1,0.2,0.8,0.8,0.2,,,,,,,,,,,,,,,0.0132,,0.8,0.2,0.6,0.4,0.4,0.6,0.2,0.8,,,0.8071,,0.8,0.2,0.2,0.8,0.6,0.4,0.6,0.4,1,0
,,60ce038ef5cec7f1cb716182,66daf5cd020cb54317c8e216,2024-09-06_14h31.42.333,mdp,2024.2.1,Win32,59.52380952,66d7945b1baad48e845df3ce,,,,,,,,,,,,,,,,,,,,,979.8616,979.8616,979.8631,980.9439,0,1,left,0.5553,,980.9456,981.494,1,1,right,981.4956,982.7933,0,0,left,1,982.7933,982.7934,982.7945,984.2936,0,34,34,34,1,0.2,0.8,0.8,0.2,,,,,,,,,,,,,,,0.0413,,0.8,0.2,0.6,0.4,0.4,0.6,0.2,0.8,,,0.777,,0.8,0.2,0.2,0.8,0.6,0.4,0.6,0.4,1,0
,,60ce038ef5cec7f1cb716182,66daf5cd020cb54317c8e216,2024-09-06_14h31.42.333,mdp,2024.2.1,Win32,59.52380952,66d7945b1baad48e845df3ce,,,,,,,,,,,,,,,,,,,,,984.2943,984.2944,984.2959,985.1767,0,1,left,0.362,,985.1779,985.7766,0,0,left,985.7785,986.3767,0,1,left,0,986.3767,986.3768,986.3782,987.8764,0,35,35,35,1,0.2,0.8,0.8,0.2,,,,,,,,,,,,,,,0.0719,,0.8,0.2,0.6,0.4,0.6,0.4,0.4,0.6,,,0.0645,,0.8,0.2,0.2,0.8,0.6,0.4,0.6,0.4,1,0
,,60ce038ef5cec7f1cb716182,66daf5cd020cb54317c8e216,2024-09-06_14h31.42.333,mdp,2024.2.1,Win32,59.52380952,66d7945b1baad48e845df3ce,,,,,,,,,,,,,,,,,,,,,987.8771,987.8772,987.8787,988.726,0,0,left,0.326,,988.7274,989.2762,0,0,left,989.2774,989.8264,0,1,left,0,989.8265,989.8265,989.8283,991.3259,0,36,36,36,1,0.2,0.8,0.8,0.2,,,,,,,,,,,,,,,0.0344,,0.8,0.2,0.6,0.4,0.6,0.4,0.4,0.6,,,0.0168,,0.8,0.2,0.2,0.8,0.6,0.4,0.6,0.4,1,0
,,60ce038ef5cec7f1cb716182,66daf5cd020cb54317c8e216,2024-09-06_14h31.42.333,mdp,2024.2.1,Win32,59.52380952,66d7945b1baad48e845df3ce,,,,,,,,,,,,,,,,,,,,,991.3266,991.3268,991.3283,992.1094,0,1,left,0.2571,,992.1109,992.7257,0,0,left,992.7269,993.2756,0,0,left,1,993.2757,993.2758,993.2772,994.7757,0,37,37,37,1,0.2,0.8,0.8,0.2,,,,,,,,,,,,,,,0.0879,,0.8,0.2,0.6,0.4,0.4,0.6,0.6,0.4,,,0.0211,,0.8,0.2,0.2,0.8,0.6,0.4,0.6,0.4,1,0
,,60ce038ef5cec7f1cb716182,66daf5cd020cb54317c8e216,2024-09-06_14h31.42.333,mdp,2024.2.1,Win32,59.52380952,66d7945b1baad48e845df3ce,,,,,,,,,,,,,,,,,,,,,994.7765,994.7768,994.7782,995.6423,0,1,left,0.3346,,995.6436,996.2257,1,0,right,996.2272,996.792,0,0,left,1,996.7921,996.7921,996.7934,998.2922,0,38,38,38,1,0.2,0.8,0.8,0.2,,,,,,,,,,,,,,,0.053,,0.8,0.2,0.6,0.4,0.4,0.6,0.6,0.4,,,0.0356,,0.8,0.2,0.2,0.8,0.6,0.4,0.6,0.4,1,0
,,60ce038ef5cec7f1cb716182,66daf5cd020cb54317c8e216,2024-09-06_14h31.42.333,mdp,2024.2.1,Win32,59.52380952,66d7945b1baad48e845df3ce,,,,,,,,,,,,,,,,,,,,,998.2931,998.2931,998.2946,999.0588,1,1,right,0.2344,,999.0601,999.6745,0,0,left,999.6757,1000.2257,0,0,left,1,1000.2258,1000.2258,1000.2271,1001.7245,0,39,39,39,1,0.2,0.8,0.8,0.2,,,,,,,,,,,,,,,0.0948,,0.8,0.2,0.6,0.4,0.4,0.6,0.6,0.4,,,0.0454,,0.8,0.2,0.2,0.8,0.6,0.4,0.6,0.4,1,0
,,60ce038ef5cec7f1cb716182,66daf5cd020cb54317c8e216,2024-09-06_14h31.42.333,mdp,2024.2.1,Win32,59.52380952,66d7945b1baad48e845df3ce,,,,,,,,,,,,,,,,,,,,,1001.725,1001.725,1001.7263,1002.4085,0,1,left,0.1691,,1002.4103,1002.9409,1,0,right,1002.9423,1003.4913,1,1,right,0,1003.4915,1003.4915,1003.4928,1004.9909,0,40,40,40,1,0.2,0.8,0.8,0.2,,,,,,,,,,,,,,,0.0092,,0.8,0.2,0.6,0.4,0.4,0.6,0.6,0.4,,,0.0244,,0.8,0.2,0.2,0.8,0.6,0.4,0.6,0.4,1,0
,,60ce038ef5cec7f1cb716182,66daf5cd020cb54317c8e216,2024-09-06_14h31.42.333,mdp,2024.2.1,Win32,59.52380952,66d7945b1baad48e845df3ce,,,,,,,,,,,,,,,,,,,,,1004.9916,1004.9918,1004.9932,1005.9408,0,1,left,0.4233,,1005.9421,1006.5076,1,0,right,1006.5089,1007.6412,1,1,right,0,1007.6413,1007.6413,1007.643,1009.1407,0,41,41,41,1,0.2,0.8,0.8,0.2,,,,,,,,,,,,,,,0.0323,,0.8,0.2,0.6,0.4,0.4,0.6,0.6,0.4,,,0.601,,0.8,0.2,0.2,0.8,0.6,0.4,0.6,0.4,1,0
,,60ce038ef5cec7f1cb716182,66daf5cd020cb54317c8e216,2024-09-06_14h31.42.333,mdp,2024.2.1,Win32,59.52380952,66d7945b1baad48e845df3ce,,,,,,,,,,,,,,,,,,,,,1009.1417,1009.1417,1009.1434,1010.1071,0,1,left,0.4412,,1010.1084,1010.6236,1,0,right,1010.6249,1011.357,1,1,right,0,1011.3571,1011.3571,1011.3583,1012.857,0,42,42,42,1,0.2,0.8,0.8,0.2,,,,,,,,,,,,,,,0.0112,,0.8,0.2,0.6,0.4,0.4,0.6,0.6,0.4,,,0.2248,,0.8,0.2,0.2,0.8,0.6,0.4,0.6,0.4,1,0
,,60ce038ef5cec7f1cb716182,66daf5cd020cb54317c8e216,2024-09-06_14h31.42.333,mdp,2024.2.1,Win32,59.52380952,66d7945b1baad48e845df3ce,,,,,,,,,,,,,,,,,,,,,1012.8578,1012.8578,1012.8594,1013.8568,0,1,left,0.4678,,1013.8583,1014.9566,1,0,right,1014.9576,1015.9398,1,1,right,0,1015.9399,1015.9399,1015.9411,1017.4415,0,43,43,43,1,0.2,0.8,0.8,0.2,,,,,,,,,,,,,,,0.5758,,0.8,0.2,0.6,0.4,0.4,0.6,0.6,0.4,,,0.4585,,0.8,0.2,0.2,0.8,0.6,0.4,0.6,0.4,1,0
,,60ce038ef5cec7f1cb716182,66daf5cd020cb54317c8e216,2024-09-06_14h31.42.333,mdp,2024.2.1,Win32,59.52380952,66d7945b1baad48e845df3ce,,,,,,,,,,,,,,,,,,,,,1017.442,1017.442,1017.4431,1018.3556,0,1,left,0.3907,,1018.3567,1018.8894,1,1,right,1018.8913,1019.4719,1,1,right,0,1019.472,1019.472,1019.4729,1020.9723,0,44,44,44,1,0.2,0.8,0.8,0.2,,,,,,,,,,,,,,,0.0187,,0.8,0.2,0.6,0.4,0.4,0.6,0.6,0.4,,,0.0557,,0.8,0.2,0.2,0.8,0.6,0.4,0.6,0.4,1,0
,,60ce038ef5cec7f1cb716182,66daf5cd020cb54317c8e216,2024-09-06_14h31.42.333,mdp,2024.2.1,Win32,59.52380952,66d7945b1baad48e845df3ce,,,,,,,,,,,,,,,,,,,,,1020.9731,1020.9732,1020.9748,1021.8219,1,0,right,0.3188,,1021.8234,1022.4058,0,0,left,1022.4075,1022.9721,1,1,right,0,1022.9722,1022.9722,1022.9734,1024.4717,0,45,45,45,1,0.2,0.8,0.8,0.2,,,,,,,,,,,,,,,0.0481,,0.8,0.2,0.6,0.4,0.4,0.6,0.6,0.4,,,0.0307,,0.8,0.2,0.2,0.8,0.6,0.4,0.6,0.4,1,0
,,60ce038ef5cec7f1cb716182,66daf5cd020cb54317c8e216,2024-09-06_14h31.42.333,mdp,2024.2.1,Win32,59.52380952,66d7945b1baad48e845df3ce,,,,,,,,,,,,,,,,,,,,,1024.4724,1024.4724,1024.474,1025.2562,0,1,left,0.25,,1025.2579,1025.805,1,0,right,1025.8077,1026.4048,1,1,right,0,1026.4049,1026.4049,1026.4061,1027.9051,0,46,46,46,1,0.2,0.8,0.8,0.2,,,,,,,,,,,,,,,0.0112,,0.8,0.2,0.6,0.4,0.4,0.6,0.6,0.4,,,0.0736,,0.8,0.2,0.2,0.8,0.6,0.4,0.6,0.4,1,0
,,60ce038ef5cec7f1cb716182,66daf5cd020cb54317c8e216,2024-09-06_14h31.42.333,mdp,2024.2.1,Win32,59.52380952,66d7945b1baad48e845df3ce,,,,,,,,,,,,,,,,,,,,,1027.906,1027.906,1027.9071,1028.988,1,1,right,0.5539,,1028.9896,1029.5377,1,1,right,1029.5391,1030.205,1,1,right,0,1030.205,1030.205,1030.2065,1031.7046,0,47,47,47,1,0.2,0.8,0.8,0.2,,,,,,,,,,,,,,,0.0227,,0.8,0.2,0.6,0.4,0.4,0.6,0.6,0.4,,,0.1445,,0.8,0.2,0.2,0.8,0.6,0.4,0.6,0.4,1,0
,,60ce038ef5cec7f1cb716182,66daf5cd020cb54317c8e216,2024-09-06_14h31.42.333,mdp,2024.2.1,Win32,59.52380952,66d7945b1baad48e845df3ce,,,,,,,,,,,,,,,,,,,,,1031.7052,1031.7052,1031.7066,1032.654,0,0,left,0.4256,,1032.6553,1033.8036,0,1,left,1033.8048,1035.1875,0,1,left,0,1035.1876,1035.1876,1035.189,1036.6871,0,48,48,48,1,0.2,0.8,0.8,0.2,,,,,,,,,,,,,,,0.6373,,0.2,0.8,0.8,0.2,0.4,0.6,0.6,0.4,,,0.868,,0.8,0.2,0.2,0.8,0.6,0.4,0.6,0.4,1,0
,,60ce038ef5cec7f1cb716182,66daf5cd020cb54317c8e216,2024-09-06_14h31.42.333,mdp,2024.2.1,Win32,59.52380952,66d7945b1baad48e845df3ce,,,,,,,,,,,,,,,,,,,,,1036.6877,1036.6877,1036.6892,1037.8202,1,0,right,0.6118,,1037.8216,1038.3862,0,1,left,1038.3882,1038.9547,0,0,left,1,1038.9548,1038.9549,1038.9566,1040.4531,0,49,49,49,1,0.2,0.8,0.8,0.2,,,,,,,,,,,,,,,0.0438,,0.2,0.8,0.8,0.2,0.6,0.4,0.2,0.8,,,0.0623,,0.8,0.2,0.2,0.8,0.6,0.4,0.6,0.4,1,0
,,60ce038ef5cec7f1cb716182,66daf5cd020cb54317c8e216,2024-09-06_14h31.42.333,mdp,2024.2.1,Win32,59.52380952,66d7945b1baad48e845df3ce,,,,,,,,,,,,,,,,,,,,,,,,,,,,,,,,,,,,,,,,,,,,,,,,,,,,,,,,1040.4533,1098.9629,0,3,3,1,1,imgs/cat.png,imgs/dog.png,imgs/kangaroo.png,imgs/goat.png,imgs/giraffe.png,,,,,,,,,,,,,,,,,,,,,,,,
,,60ce038ef5cec7f1cb716182,66daf5cd020cb54317c8e216,2024-09-06_14h31.42.333,mdp,2024.2.1,Win32,59.52380952,66d7945b1baad48e845df3ce,,,,,,,,,,,,,,1,seqs/st1seq21.csv,1098.9796,1180.8891,space,81.4028,,1180.9059,1180.9059,1180.9069,1182.2191,0,0,left,0.7689,,1182.2209,1182.2221,0,0,,1182.2228,1182.2233,0,0,,1,1182.2234,1182.2234,1182.2238,1183.7207,0,0,0,0,1,0.8,0.2,0.4,0.6,1,0,,,,,,,,,,,,,,,,,,,,,,,,,,,,,,,,,,,,
,,60ce038ef5cec7f1cb716182,66daf5cd020cb54317c8e216,2024-09-06_14h31.42.333,mdp,2024.2.1,Win32,59.52380952,66d7945b1baad48e845df3ce,,,,,,,,,,,,,,,,,,,,,1183.7211,1183.7211,1183.7226,1185.0682,0,1,left,0.8167,,1185.0699,1185.071,0,0,,1185.0717,1185.0723,0,0,,0,1185.0723,1185.0723,1185.0728,1186.5717,0,1,1,1,1,0.8,0.2,0.4,0.6,1,0,,,,,,,,,,,,,,,,,,,,,,,,,,,,,,,,,,,,
,,60ce038ef5cec7f1cb716182,66daf5cd020cb54317c8e216,2024-09-06_14h31.42.333,mdp,2024.2.1,Win32,59.52380952,66d7945b1baad48e845df3ce,,,,,,,,,,,,,,,,,,,,,1186.5725,1186.5725,1186.5739,1187.7187,0,0,left,0.6215,,1187.7204,1187.7212,0,1,,1187.7219,1187.7223,0,0,,1,1187.7224,1187.7224,1187.7229,1189.2177,0,2,2,2,1,0.8,0.2,0.4,0.6,1,0,,,,,,,,,,,,,,,,,,,,,,,,,,,,,,,,,,,,
,,60ce038ef5cec7f1cb716182,66daf5cd020cb54317c8e216,2024-09-06_14h31.42.333,mdp,2024.2.1,Win32,59.52380952,66d7945b1baad48e845df3ce,,,,,,,,,,,,,,,,,,,,,1189.2183,1189.2183,1189.2201,1190.5061,1,1,right,0.7828,,1190.5076,1190.509,0,1,,1190.5101,1190.5109,0,1,,0,1190.5109,1190.5109,1190.5115,1192.0057,0,3,3,3,1,0.6,0.4,0.2,0.8,1,0,,,,,,,,,,,,,,,,,,,,,,,,,,,,,,,,,,,,
,,60ce038ef5cec7f1cb716182,66daf5cd020cb54317c8e216,2024-09-06_14h31.42.333,mdp,2024.2.1,Win32,59.52380952,66d7945b1baad48e845df3ce,,,,,,,,,,,,,,,,,,,,,1192.0062,1192.0063,1192.0074,1192.9175,1,0,right,0.3845,,1192.9198,1192.9205,0,1,,1192.9212,1192.9216,0,1,,1,1192.9217,1192.9217,1192.9222,1194.417,0,4,4,4,1,0.6,0.4,0.2,0.8,1,0,,,,,,,,,,,,,,,,,,,,,,,,,,,,,,,,,,,,
,,60ce038ef5cec7f1cb716182,66daf5cd020cb54317c8e216,2024-09-06_14h31.42.333,mdp,2024.2.1,Win32,59.52380952,66d7945b1baad48e845df3ce,,,,,,,,,,,,,,,,,,,,,1194.4176,1194.4177,1194.4193,1195.4052,1,1,right,0.4656,,1195.4072,1195.4082,0,0,,1195.4088,1195.4096,0,1,,0,1195.4096,1195.4096,1195.4103,1196.9044,0,5,5,5,1,0.6,0.4,0.2,0.8,1,0,,,,,,,,,,,,,,,,,,,,,,,,,,,,,,,,,,,,
,,60ce038ef5cec7f1cb716182,66daf5cd020cb54317c8e216,2024-09-06_14h31.42.333,mdp,2024.2.1,Win32,59.52380952,66d7945b1baad48e845df3ce,,,,,,,,,,,,,,,,,,,,,1196.9048,1196.9048,1196.9065,1197.822,1,1,right,0.3991,,1197.8236,1197.8245,0,1,,1197.8252,1197.8257,0,1,,0,1197.8258,1197.8258,1197.8263,1199.3165,0,6,6,6,1,0.6,0.4,0.2,0.8,1,0,,,,,,,,,,,,,,,,,,,,,,,,,,,,,,,,,,,,
,,60ce038ef5cec7f1cb716182,66daf5cd020cb54317c8e216,2024-09-06_14h31.42.333,mdp,2024.2.1,Win32,59.52380952,66d7945b1baad48e845df3ce,,,,,,,,,,,,,,,,,,,,,1199.3177,1199.3178,1199.3194,1199.8495,0,0,left,0.0007,,1199.8514,1199.8524,0,0,,1199.8531,1199.8537,0,0,,1,1199.8538,1199.8538,1199.8542,1201.3494,0,7,7,7,1,0.8,0.2,0.6,0.4,1,0,,,,,,,,,,,,,,,,,,,,,,,,,,,,,,,,,,,,
,,60ce038ef5cec7f1cb716182,66daf5cd020cb54317c8e216,2024-09-06_14h31.42.333,mdp,2024.2.1,Win32,59.52380952,66d7945b1baad48e845df3ce,,,,,,,,,,,,,,,,,,,,,1201.3502,1201.3503,1201.3518,1202.2033,0,1,left,0.328,,1202.2047,1202.2055,0,1,,1202.2061,1202.2067,0,1,,0,1202.2068,1202.2068,1202.2072,1203.7023,0,8,8,8,1,0.4,0.6,0.8,0.2,1,0,,,,,,,,,,,,,,,,,,,,,,,,,,,,,,,,,,,,
,,60ce038ef5cec7f1cb716182,66daf5cd020cb54317c8e216,2024-09-06_14h31.42.333,mdp,2024.2.1,Win32,59.52380952,66d7945b1baad48e845df3ce,,,,,,,,,,,,,,,,,,,,,1203.7028,1203.7028,1203.7048,1204.8206,1,0,right,0.5844,,1204.8224,1204.8234,0,0,,1204.824,1204.8245,0,1,,1,1204.8245,1204.8245,1204.8249,1206.3178,0,9,9,9,1,0.4,0.6,0.8,0.2,1,0,,,,,,,,,,,,,,,,,,,,,,,,,,,,,,,,,,,,
,,60ce038ef5cec7f1cb716182,66daf5cd020cb54317c8e216,2024-09-06_14h31.42.333,mdp,2024.2.1,Win32,59.52380952,66d7945b1baad48e845df3ce,,,,,,,,,,,,,,,,,,,,,1206.3188,1206.3188,1206.3199,1207.151,0,0,left,0.3134,,1207.1526,1207.1535,0,0,,1207.1542,1207.1547,0,1,,1,1207.1548,1207.1548,1207.1553,1208.6484,0,10,10,10,1,0.4,0.6,0.8,0.2,1,0,,,,,,,,,,,,,,,,,,,,,,,,,,,,,,,,,,,,
,,60ce038ef5cec7f1cb716182,66daf5cd020cb54317c8e216,2024-09-06_14h31.42.333,mdp,2024.2.1,Win32,59.52380952,66d7945b1baad48e845df3ce,,,,,,,,,,,,,,,,,,,,,1208.6491,1208.6491,1208.6508,1210.0153,0,1,left,0.8325,,1210.0172,1210.018,0,1,,1210.0186,1210.0192,0,1,,0,1210.0193,1210.0193,1210.0199,1211.5142,0,11,11,11,1,0.4,0.6,0.8,0.2,1,0,,,,,,,,,,,,,,,,,,,,,,,,,,,,,,,,,,,,
,,60ce038ef5cec7f1cb716182,66daf5cd020cb54317c8e216,2024-09-06_14h31.42.333,mdp,2024.2.1,Win32,59.52380952,66d7945b1baad48e845df3ce,,,,,,,,,,,,,,,,,,,,,1211.5151,1211.5152,1211.5167,1212.4469,1,0,right,0.4049,,1212.4485,1212.4492,0,0,,1212.4496,1212.4499,0,0,,1,1212.4499,1212.4499,1212.4502,1213.948,0,12,12,12,1,0.4,0.6,0.8,0.2,1,0,,,,,,,,,,,,,,,,,,,,,,,,,,,,,,,,,,,,
,,60ce038ef5cec7f1cb716182,66daf5cd020cb54317c8e216,2024-09-06_14h31.42.333,mdp,2024.2.1,Win32,59.52380952,66d7945b1baad48e845df3ce,,,,,,,,,,,,,,,,,,,,,1213.9496,1213.9496,1213.9512,1214.9478,0,1,left,0.4658,,1214.9501,1214.9511,0,0,,1214.9518,1214.9525,0,1,,0,1214.9525,1214.9525,1214.953,1216.4479,0,13,13,13,1,0.4,0.6,0.8,0.2,1,0,,,,,,,,,,,,,,,,,,,,,,,,,,,,,,,,,,,,
,,60ce038ef5cec7f1cb716182,66daf5cd020cb54317c8e216,2024-09-06_14h31.42.333,mdp,2024.2.1,Win32,59.52380952,66d7945b1baad48e845df3ce,,,,,,,,,,,,,,,,,,,,,1216.4484,1216.4484,1216.4501,1217.7306,1,0,right,0.738,,1217.7329,1217.7338,0,0,,1217.7347,1217.7351,0,0,,1,1217.7352,1217.7353,1217.7357,1219.2334,0,14,14,14,1,0.4,0.6,0.8,0.2,1,0,,,,,,,,,,,,,,,,,,,,,,,,,,,,,,,,,,,,
,,60ce038ef5cec7f1cb716182,66daf5cd020cb54317c8e216,2024-09-06_14h31.42.333,mdp,2024.2.1,Win32,59.52380952,66d7945b1baad48e845df3ce,,,,,,,,,,,,,,,,,,,,,1219.2341,1219.2341,1219.2352,1220.2354,0,0,left,0.4966,,1220.2369,1220.2379,0,0,,1220.2386,1220.2391,0,1,,1,1220.2391,1220.2391,1220.2396,1221.7304,0,15,15,15,1,0.8,0.2,0.6,0.4,1,0,,,,,,,,,,,,,,,,,,,,,,,,,,,,,,,,,,,,
,,60ce038ef5cec7f1cb716182,66daf5cd020cb54317c8e216,2024-09-06_14h31.42.333,mdp,2024.2.1,Win32,59.52380952,66d7945b1baad48e845df3ce,,,,,,,,,,,,,,,,,,,,,1221.7315,1221.7315,1221.7331,1222.9968,0,0,left,0.7391,,1222.9989,1222.9997,0,1,,1223.0005,1223.0012,0,1,,1,1223.0012,1223.0012,1223.0018,1224.4962,0,16,16,16,1,0.8,0.2,0.6,0.4,1,0,,,,,,,,,,,,,,,,,,,,,,,,,,,,,,,,,,,,
,,60ce038ef5cec7f1cb716182,66daf5cd020cb54317c8e216,2024-09-06_14h31.42.333,mdp,2024.2.1,Win32,59.52380952,66d7945b1baad48e845df3ce,,,,,,,,,,,,,,,,,,,,,1224.4969,1224.4969,1224.4986,1225.6844,0,1,left,0.6665,,1225.6861,1225.6866,0,0,,1225.6873,1225.6878,0,1,,0,1225.6878,1225.6878,1225.6882,1227.1796,0,17,17,17,1,0.4,0.6,0.8,0.2,1,0,,,,,,,,,,,,,,,,,,,,,,,,,,,,,,,,,,,,
,,60ce038ef5cec7f1cb716182,66daf5cd020cb54317c8e216,2024-09-06_14h31.42.333,mdp,2024.2.1,Win32,59.52380952,66d7945b1baad48e845df3ce,,,,,,,,,,,,,,,,,,,,,1227.181,1227.181,1227.1826,1228.9673,0,1,left,1.2658,,1228.9685,1228.9694,0,1,,1228.9702,1228.9707,0,1,,0,1228.9708,1228.9708,1228.9713,1230.4624,0,18,18,18,1,0.4,0.6,0.8,0.2,1,0,,,,,,,,,,,,,,,,,,,,,,,,,,,,,,,,,,,,
,,60ce038ef5cec7f1cb716182,66daf5cd020cb54317c8e216,2024-09-06_14h31.42.333,mdp,2024.2.1,Win32,59.52380952,66d7945b1baad48e845df3ce,,,,,,,,,,,,,,,,,,,,,1230.4638,1230.4638,1230.4654,1231.4953,1,1,right,0.4917,,1231.4974,1231.4984,0,1,,1231.4991,1231.4996,0,0,,0,1231.4996,1231.4997,1231.5001,1232.9953,0,19,19,19,1,0.4,0.6,0.8,0.2,1,0,,,,,,,,,,,,,,,,,,,,,,,,,,,,,,,,,,,,
,,60ce038ef5cec7f1cb716182,66daf5cd020cb54317c8e216,2024-09-06_14h31.42.333,mdp,2024.2.1,Win32,59.52380952,66d7945b1baad48e845df3ce,,,,,,,,,,,,,,,,,,,,,1232.9958,1232.9959,1232.9975,1233.9978,1,0,right,0.477,,1233.9992,1234,0,1,,1234.0009,1234.0024,0,0,,1,1234.0024,1234.0024,1234.0029,1235.4984,0,20,20,20,1,0.4,0.6,0.8,0.2,1,0,,,,,,,,,,,,,,,,,,,,,,,,,,,,,,,,,,,,
,,60ce038ef5cec7f1cb716182,66daf5cd020cb54317c8e216,2024-09-06_14h31.42.333,mdp,2024.2.1,Win32,59.52380952,66d7945b1baad48e845df3ce,,,,,,,,,,,,,,,,,,,,,1235.4989,1235.499,1235.5003,1239.898,0,1,left,3.8945,,1239.9121,1239.9128,0,0,,1239.9134,1239.9141,0,0,,0,1239.9141,1239.9141,1239.9146,1241.4109,0,21,21,21,1,0.6,0.4,0.6,0.4,1,0,,,,,,,,,,,,,,,,,,,,,,,,,,,,,,,,,,,,
,,60ce038ef5cec7f1cb716182,66daf5cd020cb54317c8e216,2024-09-06_14h31.42.333,mdp,2024.2.1,Win32,59.52380952,66d7945b1baad48e845df3ce,,,,,,,,,,,,,,,,,,,,,1241.412,1241.4121,1241.4139,1242.3165,0,0,left,0.3688,,1242.3178,1242.3187,0,1,,1242.3194,1242.3199,0,1,,1,1242.32,1242.32,1242.3204,1243.8149,0,22,22,22,1,0.6,0.4,0.6,0.4,1,0,,,,,,,,,,,,,,,,,,,,,,,,,,,,,,,,,,,,
,,60ce038ef5cec7f1cb716182,66daf5cd020cb54317c8e216,2024-09-06_14h31.42.333,mdp,2024.2.1,Win32,59.52380952,66d7945b1baad48e845df3ce,,,,,,,,,,,,,,,,,,,,,1243.8158,1243.8158,1243.8174,1244.7821,0,1,left,0.449,,1244.7836,1244.7845,0,1,,1244.7852,1244.7858,0,0,,0,1244.7858,1244.7858,1244.7864,1246.2796,0,23,23,23,1,0.6,0.4,0.6,0.4,1,0,,,,,,,,,,,,,,,,,,,,,,,,,,,,,,,,,,,,
,,60ce038ef5cec7f1cb716182,66daf5cd020cb54317c8e216,2024-09-06_14h31.42.333,mdp,2024.2.1,Win32,59.52380952,66d7945b1baad48e845df3ce,,,,,,,,,,,,,,,,,,,,,1246.2801,1246.2801,1246.2818,1247.2095,0,1,left,0.3847,,1247.2109,1247.2116,0,0,,1247.2121,1247.2125,0,0,,0,1247.2126,1247.2126,1247.213,1248.7098,0,24,24,24,1,0.6,0.4,0.6,0.4,1,0,,,,,,,,,,,,,,,,,,,,,,,,,,,,,,,,,,,,
,,60ce038ef5cec7f1cb716182,66daf5cd020cb54317c8e216,2024-09-06_14h31.42.333,mdp,2024.2.1,Win32,59.52380952,66d7945b1baad48e845df3ce,,,,,,,,,,,,,,,,,,,,,1248.7106,1248.7106,1248.7128,1249.5981,1,1,right,0.3808,,1249.5998,1249.6009,0,1,,1249.6017,1249.6023,0,1,,0,1249.6023,1249.6023,1249.6029,1251.0953,0,25,25,25,1,0.6,0.4,0.6,0.4,1,0,,,,,,,,,,,,,,,,,,,,,,,,,,,,,,,,,,,,
,,60ce038ef5cec7f1cb716182,66daf5cd020cb54317c8e216,2024-09-06_14h31.42.333,mdp,2024.2.1,Win32,59.52380952,66d7945b1baad48e845df3ce,,,,,,,,,,,,,,,,,,,,,1251.0959,1251.0959,1251.0973,1251.91,1,0,right,0.2865,,1251.9118,1251.9129,0,0,,1251.9138,1251.9145,0,0,,1,1251.9146,1251.9146,1251.9154,1253.4096,0,26,26,26,1,0.6,0.4,0.6,0.4,1,0,,,,,,,,,,,,,,,,,,,,,,,,,,,,,,,,,,,,
,,60ce038ef5cec7f1cb716182,66daf5cd020cb54317c8e216,2024-09-06_14h31.42.333,mdp,2024.2.1,Win32,59.52380952,66d7945b1baad48e845df3ce,,,,,,,,,,,,,,,,,,,,,1253.4103,1253.4103,1253.4122,1254.479,0,0,left,0.5433,,1254.4798,1254.4804,0,0,,1254.4808,1254.4812,0,1,,1,1254.4812,1254.4812,1254.4816,1255.9786,0,27,27,27,1,0.6,0.4,0.6,0.4,1,0,,,,,,,,,,,,,,,,,,,,,,,,,,,,,,,,,,,,
,,60ce038ef5cec7f1cb716182,66daf5cd020cb54317c8e216,2024-09-06_14h31.42.333,mdp,2024.2.1,Win32,59.52380952,66d7945b1baad48e845df3ce,,,,,,,,,,,,,,,,,,,,,1255.9792,1255.9792,1255.9807,1257.3748,1,0,right,0.8721,,1257.3767,1257.3776,0,0,,1257.3787,1257.3796,0,0,,1,1257.3797,1257.3799,1257.3807,1258.8806,0,28,28,28,1,0.6,0.4,0.6,0.4,1,0,,,,,,,,,,,,,,,,,,,,,,,,,,,,,,,,,,,,
,,60ce038ef5cec7f1cb716182,66daf5cd020cb54317c8e216,2024-09-06_14h31.42.333,mdp,2024.2.1,Win32,59.52380952,66d7945b1baad48e845df3ce,,,,,,,,,,,,,,,,,,,,,1258.8812,1258.8812,1258.8827,1260.292,1,1,right,0.8847,,1260.2937,1260.2947,0,0,,1260.2952,1260.296,0,0,,0,1260.2962,1260.2962,1260.2969,1261.7918,0,29,29,29,1,0.6,0.4,0.6,0.4,1,0,,,,,,,,,,,,,,,,,,,,,,,,,,,,,,,,,,,,
,,60ce038ef5cec7f1cb716182,66daf5cd020cb54317c8e216,2024-09-06_14h31.42.333,mdp,2024.2.1,Win32,59.52380952,66d7945b1baad48e845df3ce,,,,,,,,,,,,,,,,,,,,,1261.7928,1261.7928,1261.7943,1262.6918,1,1,right,0.3629,,1262.6937,1262.6947,0,0,,1262.6956,1262.6963,0,0,,0,1262.6964,1262.6964,1262.697,1264.1912,0,30,30,30,1,0.6,0.4,0.6,0.4,1,0,,,,,,,,,,,,,,,,,,,,,,,,,,,,,,,,,,,,
,,60ce038ef5cec7f1cb716182,66daf5cd020cb54317c8e216,2024-09-06_14h31.42.333,mdp,2024.2.1,Win32,59.52380952,66d7945b1baad48e845df3ce,,,,,,,,,,,,,,,,,,,,,1264.1922,1264.1922,1264.1938,1265.1909,0,0,left,0.4762,,1265.193,1265.194,0,0,,1265.1947,1265.1952,0,1,,1,1265.1952,1265.1953,1265.1958,1266.6936,0,31,31,31,1,0.6,0.4,0.6,0.4,1,0,,,,,,,,,,,,,,,,,,,,,,,,,,,,,,,,,,,,
,,60ce038ef5cec7f1cb716182,66daf5cd020cb54317c8e216,2024-09-06_14h31.42.333,mdp,2024.2.1,Win32,59.52380952,66d7945b1baad48e845df3ce,,,,,,,,,,,,,,,,,,,,,1266.6941,1266.6941,1266.6953,1267.6935,1,1,right,0.4801,,1267.6951,1267.6961,0,1,,1267.6967,1267.6973,0,1,,0,1267.6973,1267.6973,1267.6978,1269.1908,0,32,32,32,1,0.6,0.4,0.6,0.4,1,0,,,,,,,,,,,,,,,,,,,,,,,,,,,,,,,,,,,,
,,60ce038ef5cec7f1cb716182,66daf5cd020cb54317c8e216,2024-09-06_14h31.42.333,mdp,2024.2.1,Win32,59.52380952,66d7945b1baad48e845df3ce,,,,,,,,,,,,,,,,,,,,,1269.1914,1269.1914,1269.1927,1270.3241,0,1,left,0.6191,,1270.3258,1270.3269,0,0,,1270.3276,1270.3283,0,0,,0,1270.3284,1270.3284,1270.3289,1271.827,0,33,33,33,1,0.4,0.6,0.8,0.2,1,0,,,,,,,,,,,,,,,,,,,,,,,,,,,,,,,,,,,,
,,60ce038ef5cec7f1cb716182,66daf5cd020cb54317c8e216,2024-09-06_14h31.42.333,mdp,2024.2.1,Win32,59.52380952,66d7945b1baad48e845df3ce,,,,,,,,,,,,,,,,,,,,,1271.8275,1271.8276,1271.8288,1272.7234,1,0,right,0.3609,,1272.7252,1272.7262,0,1,,1272.727,1272.7277,0,0,,1,1272.7277,1272.7277,1272.7283,1274.2266,0,34,34,34,1,0.4,0.6,0.8,0.2,1,0,,,,,,,,,,,,,,,,,,,,,,,,,,,,,,,,,,,,
,,60ce038ef5cec7f1cb716182,66daf5cd020cb54317c8e216,2024-09-06_14h31.42.333,mdp,2024.2.1,Win32,59.52380952,66d7945b1baad48e845df3ce,,,,,,,,,,,,,,,,,,,,,1274.2272,1274.2272,1274.2283,1275.5113,1,1,right,0.7641,,1275.5129,1275.5137,0,0,,1275.5145,1275.5151,0,0,,0,1275.5151,1275.5151,1275.5156,1277.0078,0,35,35,35,1,0.6,0.4,0.6,0.4,1,0,,,,,,,,,,,,,,,,,,,,,,,,,,,,,,,,,,,,
,,60ce038ef5cec7f1cb716182,66daf5cd020cb54317c8e216,2024-09-06_14h31.42.333,mdp,2024.2.1,Win32,59.52380952,66d7945b1baad48e845df3ce,,,,,,,,,,,,,,,,,,,,,1277.0083,1277.0083,1277.01,1277.8732,0,0,left,0.3245,,1277.8756,1277.8766,0,0,,1277.8773,1277.878,0,1,,1,1277.878,1277.878,1277.8786,1279.3752,0,36,36,36,1,0.6,0.4,0.6,0.4,1,0,,,,,,,,,,,,,,,,,,,,,,,,,,,,,,,,,,,,
,,60ce038ef5cec7f1cb716182,66daf5cd020cb54317c8e216,2024-09-06_14h31.42.333,mdp,2024.2.1,Win32,59.52380952,66d7945b1baad48e845df3ce,,,,,,,,,,,,,,,,,,,,,1279.376,1279.376,1279.3779,1280.1897,0,0,left,0.2824,,1280.192,1280.1928,0,0,,1280.1934,1280.1941,0,0,,1,1280.1941,1280.1942,1280.1947,1281.693,0,37,37,37,1,0.4,0.6,0.8,0.2,1,0,,,,,,,,,,,,,,,,,,,,,,,,,,,,,,,,,,,,
,,60ce038ef5cec7f1cb716182,66daf5cd020cb54317c8e216,2024-09-06_14h31.42.333,mdp,2024.2.1,Win32,59.52380952,66d7945b1baad48e845df3ce,,,,,,,,,,,,,,,,,,,,,1281.6938,1281.6938,1281.6965,1282.6605,1,1,right,0.4478,,1282.6628,1282.6638,0,1,,1282.6646,1282.6652,0,0,,0,1282.6652,1282.6652,1282.666,1284.1572,0,38,38,38,1,0.4,0.6,0.8,0.2,1,0,,,,,,,,,,,,,,,,,,,,,,,,,,,,,,,,,,,,
,,60ce038ef5cec7f1cb716182,66daf5cd020cb54317c8e216,2024-09-06_14h31.42.333,mdp,2024.2.1,Win32,59.52380952,66d7945b1baad48e845df3ce,,,,,,,,,,,,,,,,,,,,,1284.1578,1284.1578,1284.1597,1285.0224,1,0,right,0.3386,,1285.0241,1285.0253,0,0,,1285.026,1285.0265,0,1,,1,1285.0265,1285.0265,1285.027,1286.5219,0,39,39,39,1,0.4,0.6,0.8,0.2,1,0,,,,,,,,,,,,,,,,,,,,,,,,,,,,,,,,,,,,
,,60ce038ef5cec7f1cb716182,66daf5cd020cb54317c8e216,2024-09-06_14h31.42.333,mdp,2024.2.1,Win32,59.52380952,66d7945b1baad48e845df3ce,,,,,,,,,,,,,,,,,,,,,1286.5227,1286.5227,1286.5244,1287.3877,0,1,left,0.3543,,1287.3898,1287.3906,0,0,,1287.3914,1287.3921,0,0,,0,1287.3921,1287.3921,1287.3928,1288.8882,0,40,40,40,1,0.6,0.4,0.2,0.8,1,0,,,,,,,,,,,,,,,,,,,,,,,,,,,,,,,,,,,,
,,60ce038ef5cec7f1cb716182,66daf5cd020cb54317c8e216,2024-09-06_14h31.42.333,mdp,2024.2.1,Win32,59.52380952,66d7945b1baad48e845df3ce,,,,,,,,,,,,,,,,,,,,,1288.8892,1288.8893,1288.8908,1289.9715,1,1,right,0.5484,,1289.9735,1289.9743,0,1,,1289.9751,1289.9756,0,1,,0,1289.9756,1289.9756,1289.9762,1291.4714,0,41,41,41,1,0.6,0.4,0.2,0.8,1,0,,,,,,,,,,,,,,,,,,,,,,,,,,,,,,,,,,,,
