init_exp.started,init_exp.stopped,participant,session,date,expName,psychopyVersion,OS,frameRate,study_id,disp_instruction.started,disp_instruction.stopped,instruction.thisRepN,instruction.thisTrialN,instruction.thisN,instruction.thisIndex,instruction.ran,instimg_path,consent.started,consent.stopped,key_resp_3.keys,key_resp_3.rt,key_resp_3.duration,n_steps,sequence_path,init_block.started,init_block.stopped,key_resp.keys,key_resp.rt,key_resp.duration,init_trials.started,init_trials.stopped,step0.started,step0.stopped,act0,s1,res0.keys,res0.rt,res0.duration,step1.started,step1.stopped,act1,s2,res1.keys,step2.started,step2.stopped,act2,s3,res2.keys,rew,reward_comp.started,reward_comp.stopped,reward_disp.started,reward_disp.stopped,trials.thisRepN,trials.thisTrialN,trials.thisN,trials.thisIndex,trials.ran,s00a0s10,s00a0s11,s00a1s10,s00a1s11,rew10,rew11,break_block.started,break_block.stopped,block.thisRepN,block.thisTrialN,block.thisN,block.thisIndex,block.ran,s00path,s10path,s11path,s20path,s21path,res1.rt,res1.duration,s10a0s20,s10a0s21,s10a1s20,s10a1s21,s11a0s20,s11a0s21,s11a1s20,s11a1s21,rew20,rew21,res2.rt,res2.duration,s20a0s30,s20a0s31,s20a1s30,s20a1s31,s21a0s30,s21a0s31,s21a1s30,s21a1s31,rew30,rew31
0.001,0.004,60db30cbbbee552378774e50,66fc97c457fa74c5fcad82ad,2024-10-02_02h51.40.158,mdp,2024.2.1,Win32,59.52380952,66fa4ebf79326e780c390304,,,,,,,,,,,,,,,,,,,,,,,,,,,,,,,,,,,,,,,,,,,,,,,,,,,,,,,,,,,,,,,,,,,,,,,,,,,,,,,,,,,,,,,,,,,
,,60db30cbbbee552378774e50,66fc97c457fa74c5fcad82ad,2024-10-02_02h51.40.158,mdp,2024.2.1,Win32,59.52380952,66fa4ebf79326e780c390304,0.0067,14.0416,0,0,0,0,1,rlnn_exp/rlnn_exp.001.png,,,,,,,,,,,,,,,,,,,,,,,,,,,,,,,,,,,,,,,,,,,,,,,,,,,,,,,,,,,,,,,,,,,,,,,,,,,,,,,,,,,
,,60db30cbbbee552378774e50,66fc97c457fa74c5fcad82ad,2024-10-02_02h51.40.158,mdp,2024.2.1,Win32,59.52380952,66fa4ebf79326e780c390304,14.0527,36.591,0,1,1,1,1,rlnn_exp/rlnn_exp.002.png,,,,,,,,,,,,,,,,,,,,,,,,,,,,,,,,,,,,,,,,,,,,,,,,,,,,,,,,,,,,,,,,,,,,,,,,,,,,,,,,,,,
,,60db30cbbbee552378774e50,66fc97c457fa74c5fcad82ad,2024-10-02_02h51.40.158,mdp,2024.2.1,Win32,59.52380952,66fa4ebf79326e780c390304,36.6024,46.9821,0,2,2,2,1,rlnn_exp/rlnn_exp.003.png,,,,,,,,,,,,,,,,,,,,,,,,,,,,,,,,,,,,,,,,,,,,,,,,,,,,,,,,,,,,,,,,,,,,,,,,,,,,,,,,,,,
,,60db30cbbbee552378774e50,66fc97c457fa74c5fcad82ad,2024-10-02_02h51.40.158,mdp,2024.2.1,Win32,59.52380952,66fa4ebf79326e780c390304,46.9933,57.4572,0,3,3,3,1,rlnn_exp/rlnn_exp.004.png,,,,,,,,,,,,,,,,,,,,,,,,,,,,,,,,,,,,,,,,,,,,,,,,,,,,,,,,,,,,,,,,,,,,,,,,,,,,,,,,,,,
,,60db30cbbbee552378774e50,66fc97c457fa74c5fcad82ad,2024-10-02_02h51.40.158,mdp,2024.2.1,Win32,59.52380952,66fa4ebf79326e780c390304,,,,,,,,,57.458,67.7989,y,0.302,,,,,,,,,,,,,,,,,,,,,,,,,,,,,,,,,,,,,,,,,,,,,,,,,,,,,,,,,,,,,,,,,,,,,,,,,,,,,,,
,,60db30cbbbee552378774e50,66fc97c457fa74c5fcad82ad,2024-10-02_02h51.40.158,mdp,2024.2.1,Win32,59.52380952,66fa4ebf79326e780c390304,,,,,,,,,,,,,,1,seqs/st1seq1.csv,67.8139,69.5141,space,1.1887,,69.5178,69.5179,69.5182,74.4113,1,0,right,4.3533,,74.4221,74.4243,,0,,74.4247,74.4263,,0,,1,74.4264,74.4265,74.4269,75.9262,0,0,0,0,1,0.4,0.6,0.8,0.2,1,0,,,,,,,,,,,,,,,,,,,,,,,,,,,,,,,,,,,,
,,60db30cbbbee552378774e50,66fc97c457fa74c5fcad82ad,2024-10-02_02h51.40.158,mdp,2024.2.1,Win32,59.52380952,66fa4ebf79326e780c390304,,,,,,,,,,,,,,,,,,,,,75.9268,75.9268,75.9283,79.3895,0,0,left,2.938099999,,79.3912,79.3929,,1,,79.3943,79.3952,,1,,1,79.3952,79.3952,79.3959,80.8886,0,1,1,1,1,0.4,0.6,0.8,0.2,1,0,,,,,,,,,,,,,,,,,,,,,,,,,,,,,,,,,,,,
,,60db30cbbbee552378774e50,66fc97c457fa74c5fcad82ad,2024-10-02_02h51.40.158,mdp,2024.2.1,Win32,59.52380952,66fa4ebf79326e780c390304,,,,,,,,,,,,,,,,,,,,,80.8892,80.8892,80.8909,82.4378,0,1,left,1.0245,,82.4391,82.4402,,1,,82.4417,82.4432,,0,,0,82.4433,82.4433,82.444,83.9358,0,2,2,2,1,0.4,0.6,0.8,0.2,1,0,,,,,,,,,,,,,,,,,,,,,,,,,,,,,,,,,,,,
,,60db30cbbbee552378774e50,66fc97c457fa74c5fcad82ad,2024-10-02_02h51.40.158,mdp,2024.2.1,Win32,59.52380952,66fa4ebf79326e780c390304,,,,,,,,,,,,,,,,,,,,,83.9364,83.9364,83.938,85.3684,1,1,right,0.896400001,,85.3699,85.3712,,0,,85.3734,85.3746,,1,,0,85.3747,85.3747,85.3754,86.8669,0,3,3,3,1,0.8,0.2,0.2,0.8,1,0,,,,,,,,,,,,,,,,,,,,,,,,,,,,,,,,,,,,
,,60db30cbbbee552378774e50,66fc97c457fa74c5fcad82ad,2024-10-02_02h51.40.158,mdp,2024.2.1,Win32,59.52380952,66fa4ebf79326e780c390304,,,,,,,,,,,,,,,,,,,,,86.8673,86.8673,86.8691,88.1158,0,0,left,0.721799999,,88.1173,88.1183,,0,,88.1199,88.1213,,1,,1,88.1214,88.1214,88.1223,89.6144,0,4,4,4,1,0.8,0.2,0.2,0.8,1,0,,,,,,,,,,,,,,,,,,,,,,,,,,,,,,,,,,,,
,,60db30cbbbee552378774e50,66fc97c457fa74c5fcad82ad,2024-10-02_02h51.40.158,mdp,2024.2.1,Win32,59.52380952,66fa4ebf79326e780c390304,,,,,,,,,,,,,,,,,,,,,89.615,89.615,89.6169,90.8139,0,0,left,0.6685,,90.8154,90.8166,,0,,90.8184,90.8197,,0,,1,90.8198,90.8198,90.8206,92.3126,0,5,5,5,1,0.8,0.2,0.2,0.8,1,0,,,,,,,,,,,,,,,,,,,,,,,,,,,,,,,,,,,,
,,60db30cbbbee552378774e50,66fc97c457fa74c5fcad82ad,2024-10-02_02h51.40.158,mdp,2024.2.1,Win32,59.52380952,66fa4ebf79326e780c390304,,,,,,,,,,,,,,,,,,,,,92.3132,92.3132,92.3152,93.2784,0,0,left,0.4461,,93.2799,93.2817,,0,,93.283,93.2843,,0,,1,93.2844,93.2844,93.2851,94.7773,0,6,6,6,1,0.8,0.2,0.2,0.8,1,0,,,,,,,,,,,,,,,,,,,,,,,,,,,,,,,,,,,,
,,60db30cbbbee552378774e50,66fc97c457fa74c5fcad82ad,2024-10-02_02h51.40.158,mdp,2024.2.1,Win32,59.52380952,66fa4ebf79326e780c390304,,,,,,,,,,,,,,,,,,,,,94.7779,94.7779,94.7801,95.6598,1,1,right,0.359,,95.6612,95.6621,,1,,95.6641,95.6655,,0,,0,95.6656,95.6656,95.6663,97.1584,0,7,7,7,1,0.8,0.2,0.2,0.8,1,0,,,,,,,,,,,,,,,,,,,,,,,,,,,,,,,,,,,,
,,60db30cbbbee552378774e50,66fc97c457fa74c5fcad82ad,2024-10-02_02h51.40.158,mdp,2024.2.1,Win32,59.52380952,66fa4ebf79326e780c390304,,,,,,,,,,,,,,,,,,,,,97.1589,97.1591,97.1611,98.1748,0,1,left,0.486099999,,98.1767,98.1791,,0,,98.1806,98.1816,,1,,0,98.1817,98.1817,98.1825,99.6732,0,8,8,8,1,0.2,0.8,0.6,0.4,1,0,,,,,,,,,,,,,,,,,,,,,,,,,,,,,,,,,,,,
,,60db30cbbbee552378774e50,66fc97c457fa74c5fcad82ad,2024-10-02_02h51.40.158,mdp,2024.2.1,Win32,59.52380952,66fa4ebf79326e780c390304,,,,,,,,,,,,,,,,,,,,,99.6738,99.6738,99.6753,100.9562,1,0,right,0.758599999,,100.9582,100.9595,,0,,100.9607,100.9618,,1,,1,100.9619,100.9619,100.9625,102.4545,0,9,9,9,1,0.2,0.8,0.6,0.4,1,0,,,,,,,,,,,,,,,,,,,,,,,,,,,,,,,,,,,,
,,60db30cbbbee552378774e50,66fc97c457fa74c5fcad82ad,2024-10-02_02h51.40.158,mdp,2024.2.1,Win32,59.52380952,66fa4ebf79326e780c390304,,,,,,,,,,,,,,,,,,,,,102.4552,102.4552,102.4572,103.6533,1,0,right,0.677799999,,103.6547,103.6574,,0,,103.6584,103.6603,,1,,1,103.6603,103.6603,103.6614,105.1522,0,10,10,10,1,0.2,0.8,0.6,0.4,1,0,,,,,,,,,,,,,,,,,,,,,,,,,,,,,,,,,,,,
,,60db30cbbbee552378774e50,66fc97c457fa74c5fcad82ad,2024-10-02_02h51.40.158,mdp,2024.2.1,Win32,59.52380952,66fa4ebf79326e780c390304,,,,,,,,,,,,,,,,,,,,,105.1528,105.1529,105.1543,106.0015,1,0,right,0.3228,,106.0026,106.0037,,0,,106.0056,106.0069,,1,,1,106.007,106.007,106.0079,107.5006,0,11,11,11,1,0.2,0.8,0.6,0.4,1,0,,,,,,,,,,,,,,,,,,,,,,,,,,,,,,,,,,,,
,,60db30cbbbee552378774e50,66fc97c457fa74c5fcad82ad,2024-10-02_02h51.40.158,mdp,2024.2.1,Win32,59.52380952,66fa4ebf79326e780c390304,,,,,,,,,,,,,,,,,,,,,107.5012,107.5012,107.503,108.4497,1,0,right,0.4266,,108.4511,108.4528,,0,,108.4542,108.4556,,0,,1,108.4557,108.4557,108.4565,109.9484,0,12,12,12,1,0.2,0.8,0.6,0.4,1,0,,,,,,,,,,,,,,,,,,,,,,,,,,,,,,,,,,,,
,,60db30cbbbee552378774e50,66fc97c457fa74c5fcad82ad,2024-10-02_02h51.40.158,mdp,2024.2.1,Win32,59.52380952,66fa4ebf79326e780c390304,,,,,,,,,,,,,,,,,,,,,109.949,109.949,109.9508,111.0479,1,1,right,0.5659,,111.0505,111.0523,,0,,111.0535,111.0543,,1,,0,111.0544,111.0544,111.0551,112.5464,0,13,13,13,1,0.2,0.8,0.6,0.4,1,0,,,,,,,,,,,,,,,,,,,,,,,,,,,,,,,,,,,,
,,60db30cbbbee552378774e50,66fc97c457fa74c5fcad82ad,2024-10-02_02h51.40.158,mdp,2024.2.1,Win32,59.52380952,66fa4ebf79326e780c390304,,,,,,,,,,,,,,,,,,,,,112.547,112.5471,112.5493,113.3961,0,0,left,0.322700001,,113.3979,113.3991,,1,,113.4005,113.402,,1,,1,113.4022,113.4022,113.4028,114.8948,0,14,14,14,1,0.2,0.8,0.6,0.4,1,0,,,,,,,,,,,,,,,,,,,,,,,,,,,,,,,,,,,,
,,60db30cbbbee552378774e50,66fc97c457fa74c5fcad82ad,2024-10-02_02h51.40.158,mdp,2024.2.1,Win32,59.52380952,66fa4ebf79326e780c390304,,,,,,,,,,,,,,,,,,,,,114.8956,114.8956,114.8973,115.6942,0,0,left,0.2797,,115.6959,115.6975,,0,,115.6993,115.7004,,0,,1,115.7004,115.7004,115.701,117.1927,0,15,15,15,1,0.4,0.6,0.8,0.2,1,0,,,,,,,,,,,,,,,,,,,,,,,,,,,,,,,,,,,,
,,60db30cbbbee552378774e50,66fc97c457fa74c5fcad82ad,2024-10-02_02h51.40.158,mdp,2024.2.1,Win32,59.52380952,66fa4ebf79326e780c390304,,,,,,,,,,,,,,,,,,,,,117.1933,117.1933,117.1947,117.942,0,1,left,0.2279,,117.9435,117.9447,,0,,117.9465,117.9487,,1,,0,117.9487,117.9487,117.9495,119.4412,0,16,16,16,1,0.4,0.6,0.8,0.2,1,0,,,,,,,,,,,,,,,,,,,,,,,,,,,,,,,,,,,,
,,60db30cbbbee552378774e50,66fc97c457fa74c5fcad82ad,2024-10-02_02h51.40.158,mdp,2024.2.1,Win32,59.52380952,66fa4ebf79326e780c390304,,,,,,,,,,,,,,,,,,,,,119.4419,119.4421,119.4439,120.1072,1,0,right,0.1337,,120.1086,120.1099,,0,,120.1121,120.114,,0,,1,120.114,120.114,120.1147,121.6062,0,17,17,17,1,0.4,0.6,0.8,0.2,1,0,,,,,,,,,,,,,,,,,,,,,,,,,,,,,,,,,,,,
,,60db30cbbbee552378774e50,66fc97c457fa74c5fcad82ad,2024-10-02_02h51.40.158,mdp,2024.2.1,Win32,59.52380952,66fa4ebf79326e780c390304,,,,,,,,,,,,,,,,,,,,,121.6067,121.6067,121.6083,122.622,1,0,right,0.4888,,122.6236,122.6246,,0,,122.6265,122.628,,1,,1,122.628,122.628,122.6288,124.1207,0,18,18,18,1,0.4,0.6,0.8,0.2,1,0,,,,,,,,,,,,,,,,,,,,,,,,,,,,,,,,,,,,
,,60db30cbbbee552378774e50,66fc97c457fa74c5fcad82ad,2024-10-02_02h51.40.158,mdp,2024.2.1,Win32,59.52380952,66fa4ebf79326e780c390304,,,,,,,,,,,,,,,,,,,,,124.1212,124.1213,124.1231,125.3697,1,0,right,0.7215,,125.3712,125.3725,,0,,125.3739,125.3751,,0,,1,125.3752,125.3752,125.3759,126.8687,0,19,19,19,1,0.4,0.6,0.8,0.2,1,0,,,,,,,,,,,,,,,,,,,,,,,,,,,,,,,,,,,,
,,60db30cbbbee552378774e50,66fc97c457fa74c5fcad82ad,2024-10-02_02h51.40.158,mdp,2024.2.1,Win32,59.52380952,66fa4ebf79326e780c390304,,,,,,,,,,,,,,,,,,,,,126.8693,126.8694,126.8708,127.6845,0,1,left,0.2944,,127.6858,127.6867,,1,,127.6877,127.6892,,1,,0,127.6892,127.6893,127.6903,129.1837,0,20,20,20,1,0.4,0.6,0.8,0.2,1,0,,,,,,,,,,,,,,,,,,,,,,,,,,,,,,,,,,,,
,,60db30cbbbee552378774e50,66fc97c457fa74c5fcad82ad,2024-10-02_02h51.40.158,mdp,2024.2.1,Win32,59.52380952,66fa4ebf79326e780c390304,,,,,,,,,,,,,,,,,,,,,129.1843,129.1844,129.186,130.0327,0,0,left,0.3172,,130.0347,130.0359,,0,,130.0374,130.0387,,0,,1,130.0387,130.0387,130.0395,131.5313,0,21,21,21,1,0.4,0.6,0.8,0.2,1,0,,,,,,,,,,,,,,,,,,,,,,,,,,,,,,,,,,,,
,,60db30cbbbee552378774e50,66fc97c457fa74c5fcad82ad,2024-10-02_02h51.40.158,mdp,2024.2.1,Win32,59.52380952,66fa4ebf79326e780c390304,,,,,,,,,,,,,,,,,,,,,131.5321,131.5321,131.5338,132.3812,0,1,left,0.3232,,132.3826,132.3843,,1,,132.3857,132.387,,1,,0,132.3871,132.3871,132.3877,133.8797,0,22,22,22,1,0.4,0.6,0.8,0.2,1,0,,,,,,,,,,,,,,,,,,,,,,,,,,,,,,,,,,,,
,,60db30cbbbee552378774e50,66fc97c457fa74c5fcad82ad,2024-10-02_02h51.40.158,mdp,2024.2.1,Win32,59.52380952,66fa4ebf79326e780c390304,,,,,,,,,,,,,,,,,,,,,133.8802,133.8803,133.8815,134.7461,1,0,right,0.3396,,134.7478,134.7494,,0,,134.7505,134.7516,,0,,1,134.7516,134.7516,134.7524,136.2444,0,23,23,23,1,0.2,0.8,0.6,0.4,1,0,,,,,,,,,,,,,,,,,,,,,,,,,,,,,,,,,,,,
,,60db30cbbbee552378774e50,66fc97c457fa74c5fcad82ad,2024-10-02_02h51.40.158,mdp,2024.2.1,Win32,59.52380952,66fa4ebf79326e780c390304,,,,,,,,,,,,,,,,,,,,,136.2451,136.2451,136.2465,137.1601,1,1,right,0.3955,,137.1615,137.1624,,1,,137.1632,137.1647,,0,,0,137.1647,137.1647,137.1657,138.6595,0,24,24,24,1,0.2,0.8,0.6,0.4,1,0,,,,,,,,,,,,,,,,,,,,,,,,,,,,,,,,,,,,
,,60db30cbbbee552378774e50,66fc97c457fa74c5fcad82ad,2024-10-02_02h51.40.158,mdp,2024.2.1,Win32,59.52380952,66fa4ebf79326e780c390304,,,,,,,,,,,,,,,,,,,,,138.66,138.66,138.6614,139.525,1,1,right,0.3461,,139.5266,139.5275,,1,,139.5286,139.5299,,0,,0,139.53,139.53,139.531,141.0238,0,25,25,25,1,0.2,0.8,0.6,0.4,1,0,,,,,,,,,,,,,,,,,,,,,,,,,,,,,,,,,,,,
,,60db30cbbbee552378774e50,66fc97c457fa74c5fcad82ad,2024-10-02_02h51.40.158,mdp,2024.2.1,Win32,59.52380952,66fa4ebf79326e780c390304,,,,,,,,,,,,,,,,,,,,,141.0243,141.0243,141.0257,141.5908,1,0,right,0.0426,,141.5921,141.5932,,0,,141.5948,141.5965,,1,,1,141.5965,141.5965,141.5973,143.0889,0,26,26,26,1,0.2,0.8,0.6,0.4,1,0,,,,,,,,,,,,,,,,,,,,,,,,,,,,,,,,,,,,
,,60db30cbbbee552378774e50,66fc97c457fa74c5fcad82ad,2024-10-02_02h51.40.158,mdp,2024.2.1,Win32,59.52380952,66fa4ebf79326e780c390304,,,,,,,,,,,,,,,,,,,,,143.0895,143.0896,143.0912,143.905,1,1,right,0.2883,,143.9066,143.9075,,1,,143.9091,143.9103,,0,,0,143.9104,143.9104,143.9111,145.4038,0,27,27,27,1,0.6,0.4,0.4,0.6,1,0,,,,,,,,,,,,,,,,,,,,,,,,,,,,,,,,,,,,
,,60db30cbbbee552378774e50,66fc97c457fa74c5fcad82ad,2024-10-02_02h51.40.158,mdp,2024.2.1,Win32,59.52380952,66fa4ebf79326e780c390304,,,,,,,,,,,,,,,,,,,,,145.4042,145.4042,145.406,146.1367,0,1,left,0.1981,,146.1379,146.1389,,0,,146.14,146.1411,,0,,0,146.1412,146.1412,146.1425,147.6354,0,28,28,28,1,0.6,0.4,0.4,0.6,1,0,,,,,,,,,,,,,,,,,,,,,,,,,,,,,,,,,,,,
,,60db30cbbbee552378774e50,66fc97c457fa74c5fcad82ad,2024-10-02_02h51.40.158,mdp,2024.2.1,Win32,59.52380952,66fa4ebf79326e780c390304,,,,,,,,,,,,,,,,,,,,,147.6359,147.636,147.6373,148.768,0,0,left,0.6071,,148.7701,148.7712,,1,,148.7728,148.7738,,0,,1,148.7739,148.7739,148.7745,150.2666,0,29,29,29,1,0.6,0.4,0.4,0.6,1,0,,,,,,,,,,,,,,,,,,,,,,,,,,,,,,,,,,,,
,,60db30cbbbee552378774e50,66fc97c457fa74c5fcad82ad,2024-10-02_02h51.40.158,mdp,2024.2.1,Win32,59.52380952,66fa4ebf79326e780c390304,,,,,,,,,,,,,,,,,,,,,150.2671,150.2671,150.2687,151.5157,1,1,right,0.7176,,151.5179,151.5203,,0,,151.522,151.5231,,1,,0,151.5231,151.5231,151.5239,153.0144,0,30,30,30,1,0.6,0.4,0.4,0.6,1,0,,,,,,,,,,,,,,,,,,,,,,,,,,,,,,,,,,,,
,,60db30cbbbee552378774e50,66fc97c457fa74c5fcad82ad,2024-10-02_02h51.40.158,mdp,2024.2.1,Win32,59.52380952,66fa4ebf79326e780c390304,,,,,,,,,,,,,,,,,,,,,153.0148,153.0148,153.0164,154.8299,1,1,right,1.2801,,154.8319,154.8329,,1,,154.8345,154.836,,1,,0,154.8361,154.8361,154.8368,156.3286,0,31,31,31,1,0.6,0.4,0.4,0.6,1,0,,,,,,,,,,,,,,,,,,,,,,,,,,,,,,,,,,,,
,,60db30cbbbee552378774e50,66fc97c457fa74c5fcad82ad,2024-10-02_02h51.40.158,mdp,2024.2.1,Win32,59.52380952,66fa4ebf79326e780c390304,,,,,,,,,,,,,,,,,,,,,156.3291,156.3292,156.3306,157.2115,1,0,right,0.3581,,157.2131,157.2143,,1,,157.2159,157.2172,,1,,1,157.2173,157.2173,157.2179,158.7104,0,32,32,32,1,0.6,0.4,0.4,0.6,1,0,,,,,,,,,,,,,,,,,,,,,,,,,,,,,,,,,,,,
,,60db30cbbbee552378774e50,66fc97c457fa74c5fcad82ad,2024-10-02_02h51.40.158,mdp,2024.2.1,Win32,59.52380952,66fa4ebf79326e780c390304,,,,,,,,,,,,,,,,,,,,,158.711,158.711,158.7123,159.7258,0,1,left,0.4877,,159.7273,159.7284,,0,,159.73,159.7313,,1,,0,159.7313,159.7313,159.732,161.2245,0,33,33,33,1,0.6,0.4,0.4,0.6,1,0,,,,,,,,,,,,,,,,,,,,,,,,,,,,,,,,,,,,
,,60db30cbbbee552378774e50,66fc97c457fa74c5fcad82ad,2024-10-02_02h51.40.158,mdp,2024.2.1,Win32,59.52380952,66fa4ebf79326e780c390304,,,,,,,,,,,,,,,,,,,,,161.225,161.225,161.2263,162.1239,1,1,right,0.378900001,,162.1252,162.1261,,1,,162.1272,162.1282,,0,,0,162.1283,162.1283,162.1292,163.6229,0,34,34,34,1,0.6,0.4,0.4,0.6,1,0,,,,,,,,,,,,,,,,,,,,,,,,,,,,,,,,,,,,
,,60db30cbbbee552378774e50,66fc97c457fa74c5fcad82ad,2024-10-02_02h51.40.158,mdp,2024.2.1,Win32,59.52380952,66fa4ebf79326e780c390304,,,,,,,,,,,,,,,,,,,,,163.6235,163.6235,163.6254,164.5053,1,0,right,0.358,,164.5066,164.5076,,0,,164.5085,164.5098,,1,,1,164.5099,164.5099,164.5112,166.0045,0,35,35,35,1,0.2,0.8,0.6,0.4,1,0,,,,,,,,,,,,,,,,,,,,,,,,,,,,,,,,,,,,
,,60db30cbbbee552378774e50,66fc97c457fa74c5fcad82ad,2024-10-02_02h51.40.158,mdp,2024.2.1,Win32,59.52380952,66fa4ebf79326e780c390304,,,,,,,,,,,,,,,,,,,,,166.0049,166.0049,166.0065,167.2036,0,1,left,0.6716,,167.2049,167.2062,,1,,167.2078,167.209,,1,,0,167.209,167.209,167.2098,168.7022,0,36,36,36,1,0.2,0.8,0.6,0.4,1,0,,,,,,,,,,,,,,,,,,,,,,,,,,,,,,,,,,,,
,,60db30cbbbee552378774e50,66fc97c457fa74c5fcad82ad,2024-10-02_02h51.40.158,mdp,2024.2.1,Win32,59.52380952,66fa4ebf79326e780c390304,,,,,,,,,,,,,,,,,,,,,168.7026,168.7026,168.7039,169.5348,1,0,right,0.3001,,169.5366,169.5388,,0,,169.54,169.5411,,0,,1,169.5412,169.5412,169.5419,171.0338,0,37,37,37,1,0.2,0.8,0.6,0.4,1,0,,,,,,,,,,,,,,,,,,,,,,,,,,,,,,,,,,,,
,,60db30cbbbee552378774e50,66fc97c457fa74c5fcad82ad,2024-10-02_02h51.40.158,mdp,2024.2.1,Win32,59.52380952,66fa4ebf79326e780c390304,,,,,,,,,,,,,,,,,,,,,171.0345,171.0345,171.0359,172.0331,1,1,right,0.479900001,,172.0346,172.036,,1,,172.0372,172.0383,,0,,0,172.0384,172.0384,172.0393,173.5314,0,38,38,38,1,0.2,0.8,0.6,0.4,1,0,,,,,,,,,,,,,,,,,,,,,,,,,,,,,,,,,,,,
,,60db30cbbbee552378774e50,66fc97c457fa74c5fcad82ad,2024-10-02_02h51.40.158,mdp,2024.2.1,Win32,59.52380952,66fa4ebf79326e780c390304,,,,,,,,,,,,,,,,,,,,,173.5317,173.5317,173.5332,175.0974,1,1,right,1.040900001,,175.101,175.1027,,0,,175.1038,175.1047,,1,,0,175.1047,175.1047,175.1053,176.5957,0,39,39,39,1,0.2,0.8,0.6,0.4,1,0,,,,,,,,,,,,,,,,,,,,,,,,,,,,,,,,,,,,
,,60db30cbbbee552378774e50,66fc97c457fa74c5fcad82ad,2024-10-02_02h51.40.158,mdp,2024.2.1,Win32,59.52380952,66fa4ebf79326e780c390304,,,,,,,,,,,,,,,,,,,,,176.5962,176.5963,176.5979,177.7115,1,0,right,0.5832,,177.7132,177.7143,,0,,177.7158,177.717,,0,,1,177.7171,177.7171,177.7179,179.2105,0,40,40,40,1,0.2,0.8,0.6,0.4,1,0,,,,,,,,,,,,,,,,,,,,,,,,,,,,,,,,,,,,
,,60db30cbbbee552378774e50,66fc97c457fa74c5fcad82ad,2024-10-02_02h51.40.158,mdp,2024.2.1,Win32,59.52380952,66fa4ebf79326e780c390304,,,,,,,,,,,,,,,,,,,,,179.211,179.211,179.2124,180.0931,0,1,left,0.3563,,180.0951,180.0963,,0,,180.0985,180.0996,,1,,0,180.0996,180.0997,180.1006,181.5917,0,41,41,41,1,0.2,0.8,0.6,0.4,1,0,,,,,,,,,,,,,,,,,,,,,,,,,,,,,,,,,,,,
,,60db30cbbbee552378774e50,66fc97c457fa74c5fcad82ad,2024-10-02_02h51.40.158,mdp,2024.2.1,Win32,59.52380952,66fa4ebf79326e780c390304,,,,,,,,,,,,,,,,,,,,,181.5925,181.5925,181.5939,182.3248,0,0,left,0.2126,,182.3263,182.3273,,0,,182.3282,182.3294,,1,,1,182.3294,182.3294,182.3304,183.8239,0,42,42,42,1,0.2,0.8,0.6,0.4,1,0,,,,,,,,,,,,,,,,,,,,,,,,,,,,,,,,,,,,
,,60db30cbbbee552378774e50,66fc97c457fa74c5fcad82ad,2024-10-02_02h51.40.158,mdp,2024.2.1,Win32,59.52380952,66fa4ebf79326e780c390304,,,,,,,,,,,,,,,,,,,,,183.8244,183.8244,183.826,184.6728,1,1,right,0.328400001,,184.6743,184.6755,,1,,184.6771,184.6783,,0,,0,184.6783,184.6783,184.679,186.1717,0,43,43,43,1,0.4,0.6,0.8,0.2,1,0,,,,,,,,,,,,,,,,,,,,,,,,,,,,,,,,,,,,
,,60db30cbbbee552378774e50,66fc97c457fa74c5fcad82ad,2024-10-02_02h51.40.158,mdp,2024.2.1,Win32,59.52380952,66fa4ebf79326e780c390304,,,,,,,,,,,,,,,,,,,,,186.1723,186.1723,186.1737,186.9709,0,1,left,0.2783,,186.9723,186.9734,,0,,186.9748,186.9762,,0,,0,186.9763,186.9763,186.9771,188.4701,0,44,44,44,1,0.4,0.6,0.8,0.2,1,0,,,,,,,,,,,,,,,,,,,,,,,,,,,,,,,,,,,,
,,60db30cbbbee552378774e50,66fc97c457fa74c5fcad82ad,2024-10-02_02h51.40.158,mdp,2024.2.1,Win32,59.52380952,66fa4ebf79326e780c390304,,,,,,,,,,,,,,,,,,,,,188.4707,188.4707,188.4722,189.5525,0,1,left,0.5469,,189.5541,189.5553,,0,,189.5576,189.5588,,1,,0,189.5588,189.5589,189.5595,191.0508,0,45,45,45,1,0.4,0.6,0.8,0.2,1,0,,,,,,,,,,,,,,,,,,,,,,,,,,,,,,,,,,,,
,,60db30cbbbee552378774e50,66fc97c457fa74c5fcad82ad,2024-10-02_02h51.40.158,mdp,2024.2.1,Win32,59.52380952,66fa4ebf79326e780c390304,,,,,,,,,,,,,,,,,,,,,191.0516,191.0516,191.0534,191.6009,0,0,left,0.016799999,,191.6027,191.6044,,0,,191.6057,191.6066,,0,,1,191.6068,191.6068,191.6074,193.0993,0,46,46,46,1,0.8,0.2,0.4,0.6,1,0,,,,,,,,,,,,,,,,,,,,,,,,,,,,,,,,,,,,
,,60db30cbbbee552378774e50,66fc97c457fa74c5fcad82ad,2024-10-02_02h51.40.158,mdp,2024.2.1,Win32,59.52380952,66fa4ebf79326e780c390304,,,,,,,,,,,,,,,,,,,,,193.0999,193.0999,193.1012,194.0654,0,0,left,0.439200001,,194.0673,194.0682,,0,,194.0705,194.0718,,0,,1,194.0718,194.0718,194.0724,195.564,0,47,47,47,1,0.8,0.2,0.4,0.6,1,0,,,,,,,,,,,,,,,,,,,,,,,,,,,,,,,,,,,,
,,60db30cbbbee552378774e50,66fc97c457fa74c5fcad82ad,2024-10-02_02h51.40.158,mdp,2024.2.1,Win32,59.52380952,66fa4ebf79326e780c390304,,,,,,,,,,,,,,,,,,,,,195.5646,195.5647,195.566,196.3135,1,1,right,0.2268,,196.3152,196.3163,,1,,196.3179,196.3194,,1,,0,196.3194,196.3195,196.3202,197.8124,0,48,48,48,1,0.8,0.2,0.4,0.6,1,0,,,,,,,,,,,,,,,,,,,,,,,,,,,,,,,,,,,,
,,60db30cbbbee552378774e50,66fc97c457fa74c5fcad82ad,2024-10-02_02h51.40.158,mdp,2024.2.1,Win32,59.52380952,66fa4ebf79326e780c390304,,,,,,,,,,,,,,,,,,,,,197.8129,197.813,197.8144,198.712,0,0,left,0.367099999,,198.7139,198.7149,,0,,198.7165,198.7178,,0,,1,198.7178,198.7178,198.7185,200.2105,0,49,49,49,1,0.8,0.2,0.4,0.6,1,0,,,,,,,,,,,,,,,,,,,,,,,,,,,,,,,,,,,,
,,60db30cbbbee552378774e50,66fc97c457fa74c5fcad82ad,2024-10-02_02h51.40.158,mdp,2024.2.1,Win32,59.52380952,66fa4ebf79326e780c390304,,,,,,,,,,,,,,,,,,,,,,,,,,,,,,,,,,,,,,,,,,,,,,,,,,,,,,,,200.2117,258.7314,0,0,0,2,1,imgs/bear.png,imgs/pig.png,imgs/cat.png,imgs/elephant.png,imgs/goat.png,,,,,,,,,,,,,,,,,,,,,,,,
,,60db30cbbbee552378774e50,66fc97c457fa74c5fcad82ad,2024-10-02_02h51.40.158,mdp,2024.2.1,Win32,59.52380952,66fa4ebf79326e780c390304,,,,,,,,,,,,,,2,seqs/st2seq8.csv,258.7427,268.5399,space,9.2769,,268.5544,268.5544,268.5556,271.754,0,0,left,2.6705,,271.7646,273.586,1,1,right,273.5877,273.5888,,1,,0,273.5888,273.5889,273.5904,275.0845,0,0,0,0,1,0.8,0.2,0.2,0.8,,,,,,,,,,,,,,,1.301099999,,0.4,0.6,0.8,0.2,0.4,0.6,0.8,0.2,1,0,,,,,,,,,,,,
,,60db30cbbbee552378774e50,66fc97c457fa74c5fcad82ad,2024-10-02_02h51.40.158,mdp,2024.2.1,Win32,59.52380952,66fa4ebf79326e780c390304,,,,,,,,,,,,,,,,,,,,,275.0853,275.0853,275.0869,276.4834,1,1,right,0.877200001,,276.4847,277.933,1,0,right,277.9347,277.9369,,1,,1,277.937,277.937,277.9388,279.4309,0,1,1,1,1,0.8,0.2,0.2,0.8,,,,,,,,,,,,,,,0.9084,,0.4,0.6,0.8,0.2,0.4,0.6,0.8,0.2,1,0,,,,,,,,,,,,
,,60db30cbbbee552378774e50,66fc97c457fa74c5fcad82ad,2024-10-02_02h51.40.158,mdp,2024.2.1,Win32,59.52380952,66fa4ebf79326e780c390304,,,,,,,,,,,,,,,,,,,,,279.4315,279.4315,279.4329,280.5799,1,1,right,0.6291,,280.5812,281.7623,1,0,right,281.7634,281.7642,,0,,1,281.7643,281.7643,281.7652,283.2663,0,2,2,2,1,0.8,0.2,0.2,0.8,,,,,,,,,,,,,,,0.6542,,0.4,0.6,0.8,0.2,0.4,0.6,0.8,0.2,1,0,,,,,,,,,,,,
,,60db30cbbbee552378774e50,66fc97c457fa74c5fcad82ad,2024-10-02_02h51.40.158,mdp,2024.2.1,Win32,59.52380952,66fa4ebf79326e780c390304,,,,,,,,,,,,,,,,,,,,,283.2668,283.2669,283.2681,284.3436,1,1,right,0.5549,,284.3449,285.6095,1,0,right,285.6107,285.6118,,1,,1,285.6119,285.6119,285.6135,287.1083,0,3,3,3,1,0.8,0.2,0.2,0.8,,,,,,,,,,,,,,,0.7418,,0.4,0.6,0.8,0.2,0.6,0.4,0.4,0.6,1,0,,,,,,,,,,,,
,,60db30cbbbee552378774e50,66fc97c457fa74c5fcad82ad,2024-10-02_02h51.40.158,mdp,2024.2.1,Win32,59.52380952,66fa4ebf79326e780c390304,,,,,,,,,,,,,,,,,,,,,287.1089,287.109,287.1105,288.1242,1,1,right,0.495099999,,288.1255,289.0901,1,0,right,289.0917,289.0933,,1,,1,289.0933,289.0933,289.0944,290.5891,0,4,4,4,1,0.8,0.2,0.2,0.8,,,,,,,,,,,,,,,0.444400001,,0.4,0.6,0.8,0.2,0.6,0.4,0.4,0.6,1,0,,,,,,,,,,,,
,,60db30cbbbee552378774e50,66fc97c457fa74c5fcad82ad,2024-10-02_02h51.40.158,mdp,2024.2.1,Win32,59.52380952,66fa4ebf79326e780c390304,,,,,,,,,,,,,,,,,,,,,290.5897,290.5897,290.5912,291.6217,1,1,right,0.5088,,291.6234,292.7706,1,0,right,292.7723,292.7738,,1,,1,292.7739,292.774,292.7754,294.2694,0,5,5,5,1,0.8,0.2,0.2,0.8,,,,,,,,,,,,,,,0.6254,,0.4,0.6,0.8,0.2,0.6,0.4,0.4,0.6,1,0,,,,,,,,,,,,
,,60db30cbbbee552378774e50,66fc97c457fa74c5fcad82ad,2024-10-02_02h51.40.158,mdp,2024.2.1,Win32,59.52380952,66fa4ebf79326e780c390304,,,,,,,,,,,,,,,,,,,,,294.27,294.27,294.2716,295.3186,1,1,right,0.5212,,295.3203,296.2516,1,1,right,296.2532,296.2544,,1,,0,296.2545,296.2545,296.2559,297.7499,0,6,6,6,1,0.8,0.2,0.2,0.8,,,,,,,,,,,,,,,0.4037,,0.4,0.6,0.8,0.2,0.6,0.4,0.4,0.6,1,0,,,,,,,,,,,,
,,60db30cbbbee552378774e50,66fc97c457fa74c5fcad82ad,2024-10-02_02h51.40.158,mdp,2024.2.1,Win32,59.52380952,66fa4ebf79326e780c390304,,,,,,,,,,,,,,,,,,,,,297.7504,297.7504,297.7517,298.6834,1,1,right,0.4035,,298.6849,299.6818,0,1,left,299.6833,299.6844,,1,,0,299.6845,299.6845,299.686,301.1804,0,7,7,7,1,0.8,0.2,0.2,0.8,,,,,,,,,,,,,,,0.4789,,0.4,0.6,0.8,0.2,0.6,0.4,0.4,0.6,1,0,,,,,,,,,,,,
,,60db30cbbbee552378774e50,66fc97c457fa74c5fcad82ad,2024-10-02_02h51.40.158,mdp,2024.2.1,Win32,59.52380952,66fa4ebf79326e780c390304,,,,,,,,,,,,,,,,,,,,,301.181,301.1811,301.1824,302.2468,0,0,left,0.533,,302.2481,303.3289,0,1,left,303.3299,303.3309,,0,,0,303.331,303.331,303.3326,304.8276,0,8,8,8,1,0.8,0.2,0.2,0.8,,,,,,,,,,,,,,,0.5512,,0.4,0.6,0.8,0.2,0.8,0.2,0.2,0.8,1,0,,,,,,,,,,,,
,,60db30cbbbee552378774e50,66fc97c457fa74c5fcad82ad,2024-10-02_02h51.40.158,mdp,2024.2.1,Win32,59.52380952,66fa4ebf79326e780c390304,,,,,,,,,,,,,,,,,,,,,304.8284,304.8284,304.8304,305.7436,0,0,left,0.3863,,305.745,306.5598,1,0,right,306.5614,306.5624,,0,,1,306.5625,306.5625,306.5639,308.0589,0,9,9,9,1,0.8,0.2,0.2,0.8,,,,,,,,,,,,,,,0.2941,,0.4,0.6,0.8,0.2,0.8,0.2,0.2,0.8,1,0,,,,,,,,,,,,
,,60db30cbbbee552378774e50,66fc97c457fa74c5fcad82ad,2024-10-02_02h51.40.158,mdp,2024.2.1,Win32,59.52380952,66fa4ebf79326e780c390304,,,,,,,,,,,,,,,,,,,,,308.0595,308.0595,308.061,308.891,0,1,left,0.3126,,308.8924,309.7741,1,1,right,309.776,309.7779,,0,,0,309.778,309.778,309.7797,311.2729,0,10,10,10,1,0.8,0.2,0.2,0.8,,,,,,,,,,,,,,,0.351299999,,0.4,0.6,0.8,0.2,0.8,0.2,0.2,0.8,1,0,,,,,,,,,,,,
,,60db30cbbbee552378774e50,66fc97c457fa74c5fcad82ad,2024-10-02_02h51.40.158,mdp,2024.2.1,Win32,59.52380952,66fa4ebf79326e780c390304,,,,,,,,,,,,,,,,,,,,,311.2737,311.2737,311.275,312.106,0,0,left,0.3101,,312.1072,313.0047,1,0,right,313.0067,313.0079,,0,,1,313.0079,313.0079,313.0095,314.5033,0,11,11,11,1,0.8,0.2,0.2,0.8,,,,,,,,,,,,,,,0.358599999,,0.4,0.6,0.8,0.2,0.8,0.2,0.2,0.8,1,0,,,,,,,,,,,,
,,60db30cbbbee552378774e50,66fc97c457fa74c5fcad82ad,2024-10-02_02h51.40.158,mdp,2024.2.1,Win32,59.52380952,66fa4ebf79326e780c390304,,,,,,,,,,,,,,,,,,,,,314.5041,314.5041,314.5061,315.3034,0,1,left,0.275599999,,315.3051,316.2026,1,1,right,316.2045,316.2056,,1,,0,316.2056,316.2056,316.2071,317.7008,0,12,12,12,1,0.2,0.8,0.8,0.2,,,,,,,,,,,,,,,0.3598,,0.4,0.6,0.8,0.2,0.8,0.2,0.2,0.8,1,0,,,,,,,,,,,,
,,60db30cbbbee552378774e50,66fc97c457fa74c5fcad82ad,2024-10-02_02h51.40.158,mdp,2024.2.1,Win32,59.52380952,66fa4ebf79326e780c390304,,,,,,,,,,,,,,,,,,,,,317.7014,317.7014,317.7029,319.0838,1,0,right,0.8496,,319.0854,320.9482,1,0,right,320.9499,320.9508,,1,,1,320.9508,320.9508,320.9521,322.4475,0,13,13,13,1,0.2,0.8,0.8,0.2,,,,,,,,,,,,,,,1.3365,,0.4,0.6,0.8,0.2,0.2,0.8,0.8,0.2,1,0,,,,,,,,,,,,
,,60db30cbbbee552378774e50,66fc97c457fa74c5fcad82ad,2024-10-02_02h51.40.158,mdp,2024.2.1,Win32,59.52380952,66fa4ebf79326e780c390304,,,,,,,,,,,,,,,,,,,,,322.4481,322.4481,322.4497,323.3135,1,0,right,0.3297,,323.3147,324.2961,0,1,left,324.2979,324.2991,,0,,0,324.2992,324.2992,324.3007,325.7944,0,14,14,14,1,0.2,0.8,0.8,0.2,,,,,,,,,,,,,,,0.4587,,0.4,0.6,0.8,0.2,0.2,0.8,0.8,0.2,1,0,,,,,,,,,,,,
,,60db30cbbbee552378774e50,66fc97c457fa74c5fcad82ad,2024-10-02_02h51.40.158,mdp,2024.2.1,Win32,59.52380952,66fa4ebf79326e780c390304,,,,,,,,,,,,,,,,,,,,,325.795,325.7951,325.7966,326.4279,1,0,right,0.1079,,326.4297,327.2432,1,0,right,327.2446,327.2457,,0,,1,327.2458,327.2458,327.2474,328.742,0,15,15,15,1,0.2,0.8,0.8,0.2,,,,,,,,,,,,,,,0.295400001,,0.4,0.6,0.8,0.2,0.4,0.6,0.4,0.6,1,0,,,,,,,,,,,,
,,60db30cbbbee552378774e50,66fc97c457fa74c5fcad82ad,2024-10-02_02h51.40.158,mdp,2024.2.1,Win32,59.52380952,66fa4ebf79326e780c390304,,,,,,,,,,,,,,,,,,,,,328.7427,328.7428,328.7444,329.5252,1,0,right,0.2597,,329.5268,330.3408,1,1,right,330.342,330.343,,0,,0,330.343,330.343,330.3442,331.8397,0,16,16,16,1,0.2,0.8,0.8,0.2,,,,,,,,,,,,,,,0.2955,,0.4,0.6,0.8,0.2,0.4,0.6,0.4,0.6,1,0,,,,,,,,,,,,
,,60db30cbbbee552378774e50,66fc97c457fa74c5fcad82ad,2024-10-02_02h51.40.158,mdp,2024.2.1,Win32,59.52380952,66fa4ebf79326e780c390304,,,,,,,,,,,,,,,,,,,,,331.8406,331.8406,331.8421,332.6889,0,1,left,0.3247,,332.6901,334.0551,1,0,right,334.0572,334.0592,,1,,1,334.0593,334.0593,334.0606,335.5535,0,17,17,17,1,0.2,0.8,0.8,0.2,,,,,,,,,,,,,,,0.8252,,0.4,0.6,0.8,0.2,0.4,0.6,0.4,0.6,1,0,,,,,,,,,,,,
,,60db30cbbbee552378774e50,66fc97c457fa74c5fcad82ad,2024-10-02_02h51.40.158,mdp,2024.2.1,Win32,59.52380952,66fa4ebf79326e780c390304,,,,,,,,,,,,,,,,,,,,,335.5541,335.5541,335.5557,336.22,0,1,left,0.1332,,336.2216,337.0875,1,1,right,337.089,337.091,,1,,0,337.0911,337.0911,337.0925,338.5844,0,18,18,18,1,0.2,0.8,0.8,0.2,,,,,,,,,,,,,,,0.333099999,,0.4,0.6,0.8,0.2,0.4,0.6,0.4,0.6,1,0,,,,,,,,,,,,
,,60db30cbbbee552378774e50,66fc97c457fa74c5fcad82ad,2024-10-02_02h51.40.158,mdp,2024.2.1,Win32,59.52380952,66fa4ebf79326e780c390304,,,,,,,,,,,,,,,,,,,,,338.5849,338.5849,338.5866,339.4003,0,0,left,0.287400001,,339.4021,340.2664,1,0,right,340.2678,340.2689,,0,,1,340.2691,340.2691,340.271,341.7655,0,19,19,19,1,0.2,0.8,0.8,0.2,,,,,,,,,,,,,,,0.3259,,0.4,0.6,0.8,0.2,0.4,0.6,0.4,0.6,1,0,,,,,,,,,,,,
,,60db30cbbbee552378774e50,66fc97c457fa74c5fcad82ad,2024-10-02_02h51.40.158,mdp,2024.2.1,Win32,59.52380952,66fa4ebf79326e780c390304,,,,,,,,,,,,,,,,,,,,,341.766,341.766,341.7676,342.4812,0,1,left,0.1953,,342.4826,343.2805,1,0,right,343.2819,343.2828,,1,,1,343.2829,343.283,343.284,344.7798,0,20,20,20,1,0.2,0.8,0.8,0.2,,,,,,,,,,,,,,,0.268,,0.4,0.6,0.8,0.2,0.4,0.6,0.4,0.6,1,0,,,,,,,,,,,,
,,60db30cbbbee552378774e50,66fc97c457fa74c5fcad82ad,2024-10-02_02h51.40.158,mdp,2024.2.1,Win32,59.52380952,66fa4ebf79326e780c390304,,,,,,,,,,,,,,,,,,,,,344.7804,344.7804,344.7816,345.3124,0,1,left,0.0128,,345.3138,346.1286,1,0,right,346.1303,346.1313,,0,,1,346.1314,346.1314,346.1339,347.6278,0,21,21,21,1,0.2,0.8,0.8,0.2,,,,,,,,,,,,,,,0.2931,,0.4,0.6,0.8,0.2,0.4,0.6,0.4,0.6,1,0,,,,,,,,,,,,
,,60db30cbbbee552378774e50,66fc97c457fa74c5fcad82ad,2024-10-02_02h51.40.158,mdp,2024.2.1,Win32,59.52380952,66fa4ebf79326e780c390304,,,,,,,,,,,,,,,,,,,,,347.6284,347.6288,347.6308,348.36,0,1,left,0.2037,,348.3616,349.1933,1,1,right,349.1951,349.1962,,0,,0,349.1964,349.1964,349.1984,350.6915,0,22,22,22,1,0.2,0.8,0.8,0.2,,,,,,,,,,,,,,,0.3216,,0.4,0.6,0.8,0.2,0.2,0.8,0.8,0.2,1,0,,,,,,,,,,,,
,,60db30cbbbee552378774e50,66fc97c457fa74c5fcad82ad,2024-10-02_02h51.40.158,mdp,2024.2.1,Win32,59.52380952,66fa4ebf79326e780c390304,,,,,,,,,,,,,,,,,,,,,350.6921,350.6922,350.6941,351.4741,1,0,right,0.2615,,351.4753,352.3235,0,0,left,352.3253,352.3265,,0,,1,352.3265,352.3265,352.3282,353.8224,0,23,23,23,1,0.2,0.8,0.8,0.2,,,,,,,,,,,,,,,0.3169,,0.4,0.6,0.8,0.2,0.2,0.8,0.8,0.2,1,0,,,,,,,,,,,,
,,60db30cbbbee552378774e50,66fc97c457fa74c5fcad82ad,2024-10-02_02h51.40.158,mdp,2024.2.1,Win32,59.52380952,66fa4ebf79326e780c390304,,,,,,,,,,,,,,,,,,,,,353.823,353.823,353.8246,354.655,1,0,right,0.3062,,354.6561,355.5544,0,0,left,355.556,355.5586,,1,,1,355.5588,355.5588,355.5604,357.0534,0,24,24,24,1,0.2,0.8,0.8,0.2,,,,,,,,,,,,,,,0.3769,,0.4,0.6,0.8,0.2,0.2,0.8,0.8,0.2,1,0,,,,,,,,,,,,
,,60db30cbbbee552378774e50,66fc97c457fa74c5fcad82ad,2024-10-02_02h51.40.158,mdp,2024.2.1,Win32,59.52380952,66fa4ebf79326e780c390304,,,,,,,,,,,,,,,,,,,,,357.0539,357.0539,357.0553,357.8858,1,1,right,0.313,,357.8872,358.7019,0,1,left,358.7034,358.7047,,1,,0,358.7049,358.7049,358.7064,360.2005,0,25,25,25,1,0.8,0.2,0.2,0.8,,,,,,,,,,,,,,,0.2858,,0.4,0.6,0.8,0.2,0.2,0.8,0.8,0.2,1,0,,,,,,,,,,,,
,,60db30cbbbee552378774e50,66fc97c457fa74c5fcad82ad,2024-10-02_02h51.40.158,mdp,2024.2.1,Win32,59.52380952,66fa4ebf79326e780c390304,,,,,,,,,,,,,,,,,,,,,360.2009,360.2009,360.2028,360.8003,0,0,left,0.0668,,360.8015,361.716,1,1,right,361.7174,361.7184,,0,,0,361.7185,361.7185,361.72,363.215,0,26,26,26,1,0.8,0.2,0.2,0.8,,,,,,,,,,,,,,,0.3748,,0.4,0.6,0.8,0.2,0.2,0.8,0.8,0.2,1,0,,,,,,,,,,,,
,,60db30cbbbee552378774e50,66fc97c457fa74c5fcad82ad,2024-10-02_02h51.40.158,mdp,2024.2.1,Win32,59.52380952,66fa4ebf79326e780c390304,,,,,,,,,,,,,,,,,,,,,363.2154,363.2154,363.2168,364.2473,0,1,left,0.5118,,364.2489,365.0301,0,1,left,365.0317,365.0327,,1,,0,365.0328,365.0328,365.0342,366.529,0,27,27,27,1,0.8,0.2,0.2,0.8,,,,,,,,,,,,,,,0.2438,,0.4,0.6,0.8,0.2,0.2,0.8,0.8,0.2,1,0,,,,,,,,,,,,
,,60db30cbbbee552378774e50,66fc97c457fa74c5fcad82ad,2024-10-02_02h51.40.158,mdp,2024.2.1,Win32,59.52380952,66fa4ebf79326e780c390304,,,,,,,,,,,,,,,,,,,,,366.5294,366.5294,366.5312,367.4616,1,1,right,0.41,,367.4631,369.1436,1,1,right,369.145,369.1461,,0,,0,369.1462,369.1462,369.1479,370.6422,0,28,28,28,1,0.8,0.2,0.2,0.8,,,,,,,,,,,,,,,1.152900001,,0.4,0.6,0.8,0.2,0.2,0.8,0.8,0.2,1,0,,,,,,,,,,,,
,,60db30cbbbee552378774e50,66fc97c457fa74c5fcad82ad,2024-10-02_02h51.40.158,mdp,2024.2.1,Win32,59.52380952,66fa4ebf79326e780c390304,,,,,,,,,,,,,,,,,,,,,370.6429,370.6429,370.6446,371.2923,0,0,left,0.1264,,371.2935,372.2413,1,1,right,372.2427,372.2443,,1,,0,372.2443,372.2443,372.2461,373.7398,0,29,29,29,1,0.8,0.2,0.2,0.8,,,,,,,,,,,,,,,0.418,,0.4,0.6,0.8,0.2,0.2,0.8,0.8,0.2,1,0,,,,,,,,,,,,
,,60db30cbbbee552378774e50,66fc97c457fa74c5fcad82ad,2024-10-02_02h51.40.158,mdp,2024.2.1,Win32,59.52380952,66fa4ebf79326e780c390304,,,,,,,,,,,,,,,,,,,,,373.7402,373.7402,373.7415,374.606,0,1,left,0.3336,,374.6078,375.7719,0,1,left,375.7732,375.7743,,1,,0,375.7744,375.7744,375.7763,377.2702,0,30,30,30,1,0.2,0.8,0.8,0.2,,,,,,,,,,,,,,,0.6376,,0.4,0.6,0.8,0.2,0.2,0.8,0.8,0.2,1,0,,,,,,,,,,,,
,,60db30cbbbee552378774e50,66fc97c457fa74c5fcad82ad,2024-10-02_02h51.40.158,mdp,2024.2.1,Win32,59.52380952,66fa4ebf79326e780c390304,,,,,,,,,,,,,,,,,,,,,377.2709,377.2709,377.2725,378.1035,1,0,right,0.306,,378.1049,379.0363,0,0,left,379.0379,379.0398,,0,,1,379.0398,379.0398,379.041,380.5345,0,31,31,31,1,0.2,0.8,0.8,0.2,,,,,,,,,,,,,,,0.4055,,0.6,0.4,0.6,0.4,0.2,0.8,0.8,0.2,1,0,,,,,,,,,,,,
,,60db30cbbbee552378774e50,66fc97c457fa74c5fcad82ad,2024-10-02_02h51.40.158,mdp,2024.2.1,Win32,59.52380952,66fa4ebf79326e780c390304,,,,,,,,,,,,,,,,,,,,,380.5351,380.5352,380.5367,381.3671,1,0,right,0.3118,,381.3686,382.4834,0,0,left,382.485,382.4859,,1,,1,382.4859,382.4859,382.4872,383.9818,0,32,32,32,1,0.2,0.8,0.8,0.2,,,,,,,,,,,,,,,0.5838,,0.6,0.4,0.6,0.4,0.2,0.8,0.8,0.2,1,0,,,,,,,,,,,,
,,60db30cbbbee552378774e50,66fc97c457fa74c5fcad82ad,2024-10-02_02h51.40.158,mdp,2024.2.1,Win32,59.52380952,66fa4ebf79326e780c390304,,,,,,,,,,,,,,,,,,,,,383.9828,383.9828,383.9845,384.7147,1,0,right,0.2047,,384.716,385.6971,0,1,left,385.6985,385.6996,,1,,0,385.6997,385.6997,385.7012,387.1961,0,33,33,33,1,0.2,0.8,0.8,0.2,,,,,,,,,,,,,,,0.4606,,0.6,0.4,0.6,0.4,0.2,0.8,0.8,0.2,1,0,,,,,,,,,,,,
,,60db30cbbbee552378774e50,66fc97c457fa74c5fcad82ad,2024-10-02_02h51.40.158,mdp,2024.2.1,Win32,59.52380952,66fa4ebf79326e780c390304,,,,,,,,,,,,,,,,,,,,,387.1968,387.1968,387.1981,388.2287,0,0,left,0.5002,,388.2303,389.7941,0,0,left,389.7955,389.7964,,1,,1,389.7964,389.7965,389.798,391.2925,0,34,34,34,1,0.2,0.8,0.8,0.2,,,,,,,,,,,,,,,1.0423,,0.6,0.4,0.6,0.4,0.2,0.8,0.8,0.2,1,0,,,,,,,,,,,,
,,60db30cbbbee552378774e50,66fc97c457fa74c5fcad82ad,2024-10-02_02h51.40.158,mdp,2024.2.1,Win32,59.52380952,66fa4ebf79326e780c390304,,,,,,,,,,,,,,,,,,,,,391.2931,391.2931,391.2947,391.9925,0,1,left,0.168400001,,391.994,393.4577,1,0,right,393.4593,393.4617,,0,,1,393.4617,393.4617,393.4631,394.9563,0,35,35,35,1,0.6,0.4,0.2,0.8,,,,,,,,,,,,,,,0.9259,,0.6,0.4,0.6,0.4,0.2,0.8,0.8,0.2,1,0,,,,,,,,,,,,
,,60db30cbbbee552378774e50,66fc97c457fa74c5fcad82ad,2024-10-02_02h51.40.158,mdp,2024.2.1,Win32,59.52380952,66fa4ebf79326e780c390304,,,,,,,,,,,,,,,,,,,,,394.9568,394.9568,394.9582,395.656,1,1,right,0.1791,,395.6573,397.3881,1,0,right,397.3898,397.3908,,0,,1,397.391,397.391,397.3925,398.8866,0,36,36,36,1,0.6,0.4,0.2,0.8,,,,,,,,,,,,,,,1.202,,0.6,0.4,0.6,0.4,0.2,0.8,0.8,0.2,1,0,,,,,,,,,,,,
,,60db30cbbbee552378774e50,66fc97c457fa74c5fcad82ad,2024-10-02_02h51.40.158,mdp,2024.2.1,Win32,59.52380952,66fa4ebf79326e780c390304,,,,,,,,,,,,,,,,,,,,,398.8872,398.8872,398.8892,399.6861,1,1,right,0.268,,399.6877,400.7518,1,0,right,400.7534,400.7544,,0,,1,400.7544,400.7544,400.7553,402.2507,0,37,37,37,1,0.6,0.4,0.2,0.8,,,,,,,,,,,,,,,0.5352,,0.6,0.4,0.6,0.4,0.2,0.8,0.8,0.2,1,0,,,,,,,,,,,,
,,60db30cbbbee552378774e50,66fc97c457fa74c5fcad82ad,2024-10-02_02h51.40.158,mdp,2024.2.1,Win32,59.52380952,66fa4ebf79326e780c390304,,,,,,,,,,,,,,,,,,,,,402.2513,402.2513,402.2526,402.867,0,1,left,0.096200001,,402.8684,404.1163,1,1,right,404.1183,404.1194,,0,,0,404.1195,404.1195,404.121,405.6145,0,38,38,38,1,0.6,0.4,0.2,0.8,,,,,,,,,,,,,,,0.716,,0.8,0.2,0.8,0.2,0.2,0.8,0.8,0.2,1,0,,,,,,,,,,,,
,,60db30cbbbee552378774e50,66fc97c457fa74c5fcad82ad,2024-10-02_02h51.40.158,mdp,2024.2.1,Win32,59.52380952,66fa4ebf79326e780c390304,,,,,,,,,,,,,,,,,,,,,405.615,405.615,405.6166,406.2476,0,0,left,0.1134,,406.2487,407.0803,0,0,left,407.0818,407.0828,,1,,1,407.0829,407.0829,407.0845,408.5791,0,39,39,39,1,0.6,0.4,0.2,0.8,,,,,,,,,,,,,,,0.3036,,0.8,0.2,0.8,0.2,0.2,0.8,0.8,0.2,1,0,,,,,,,,,,,,
,,60db30cbbbee552378774e50,66fc97c457fa74c5fcad82ad,2024-10-02_02h51.40.158,mdp,2024.2.1,Win32,59.52380952,66fa4ebf79326e780c390304,,,,,,,,,,,,,,,,,,,,,408.5796,408.5796,408.5809,409.3616,0,0,left,0.2502,,409.3635,410.5606,0,1,left,410.5617,410.5625,,0,,0,410.5625,410.5625,410.5631,412.0597,0,40,40,40,1,0.6,0.4,0.2,0.8,,,,,,,,,,,,,,,0.6763,,0.8,0.2,0.8,0.2,0.2,0.8,0.8,0.2,1,0,,,,,,,,,,,,
,,60db30cbbbee552378774e50,66fc97c457fa74c5fcad82ad,2024-10-02_02h51.40.158,mdp,2024.2.1,Win32,59.52380952,66fa4ebf79326e780c390304,,,,,,,,,,,,,,,,,,,,,412.0604,412.0605,412.0622,412.8592,0,1,left,0.2718,,412.8611,414.3911,0,1,left,414.3931,414.3942,,1,,0,414.3942,414.3942,414.3956,415.8899,0,41,41,41,1,0.6,0.4,0.2,0.8,,,,,,,,,,,,,,,0.992099999,,0.8,0.2,0.8,0.2,0.2,0.8,0.8,0.2,1,0,,,,,,,,,,,,
,,60db30cbbbee552378774e50,66fc97c457fa74c5fcad82ad,2024-10-02_02h51.40.158,mdp,2024.2.1,Win32,59.52380952,66fa4ebf79326e780c390304,,,,,,,,,,,,,,,,,,,,,415.8904,415.8904,415.8921,416.5893,0,0,left,0.167400001,,416.5908,417.5386,1,0,right,417.5404,417.5413,,1,,1,417.5413,417.5413,417.543,419.0375,0,42,42,42,1,0.6,0.4,0.2,0.8,,,,,,,,,,,,,,,0.4209,,0.8,0.2,0.8,0.2,0.2,0.8,0.8,0.2,1,0,,,,,,,,,,,,
,,60db30cbbbee552378774e50,66fc97c457fa74c5fcad82ad,2024-10-02_02h51.40.158,mdp,2024.2.1,Win32,59.52380952,66fa4ebf79326e780c390304,,,,,,,,,,,,,,,,,,,,,419.0381,419.0381,419.0401,419.8538,1,0,right,0.2845,,419.8551,421.4356,1,0,right,421.4371,421.4382,,0,,1,421.4382,421.4382,421.4395,422.9345,0,43,43,43,1,0.6,0.4,0.2,0.8,,,,,,,,,,,,,,,1.0554,,0.8,0.2,0.8,0.2,0.2,0.8,0.8,0.2,1,0,,,,,,,,,,,,
,,60db30cbbbee552378774e50,66fc97c457fa74c5fcad82ad,2024-10-02_02h51.40.158,mdp,2024.2.1,Win32,59.52380952,66fa4ebf79326e780c390304,,,,,,,,,,,,,,,,,,,,,422.935,422.935,422.9365,423.9334,1,0,right,0.478099999,,423.9348,425.1003,1,0,right,425.1022,425.104,,0,,1,425.104,425.104,425.1052,426.5983,0,44,44,44,1,0.6,0.4,0.2,0.8,,,,,,,,,,,,,,,0.646599999,,0.8,0.2,0.8,0.2,0.2,0.8,0.8,0.2,1,0,,,,,,,,,,,,
,,60db30cbbbee552378774e50,66fc97c457fa74c5fcad82ad,2024-10-02_02h51.40.158,mdp,2024.2.1,Win32,59.52380952,66fa4ebf79326e780c390304,,,,,,,,,,,,,,,,,,,,,426.5989,426.5989,426.6,427.4143,1,1,right,0.2904,,427.4157,428.7466,0,1,left,428.7483,428.7493,,1,,0,428.7493,428.7494,428.7508,430.2452,0,45,45,45,1,0.6,0.4,0.2,0.8,,,,,,,,,,,,,,,0.7923,,0.8,0.2,0.8,0.2,0.2,0.8,0.8,0.2,1,0,,,,,,,,,,,,
,,60db30cbbbee552378774e50,66fc97c457fa74c5fcad82ad,2024-10-02_02h51.40.158,mdp,2024.2.1,Win32,59.52380952,66fa4ebf79326e780c390304,,,,,,,,,,,,,,,,,,,,,430.2458,430.2458,430.2471,430.8948,1,0,right,0.1241,,430.8961,432.1109,1,0,right,432.1127,432.1139,,0,,1,432.1141,432.1141,432.1152,433.6092,0,46,46,46,1,0.6,0.4,0.2,0.8,,,,,,,,,,,,,,,0.6733,,0.8,0.2,0.8,0.2,0.2,0.8,0.8,0.2,1,0,,,,,,,,,,,,
,,60db30cbbbee552378774e50,66fc97c457fa74c5fcad82ad,2024-10-02_02h51.40.158,mdp,2024.2.1,Win32,59.52380952,66fa4ebf79326e780c390304,,,,,,,,,,,,,,,,,,,,,433.6097,433.6097,433.6114,434.4918,1,0,right,0.362400001,,434.493,435.641,1,0,right,435.6423,435.6434,,0,,1,435.6435,435.6435,435.645,437.1396,0,47,47,47,1,0.6,0.4,0.2,0.8,,,,,,,,,,,,,,,0.6263,,0.8,0.2,0.8,0.2,0.2,0.8,0.8,0.2,1,0,,,,,,,,,,,,
,,60db30cbbbee552378774e50,66fc97c457fa74c5fcad82ad,2024-10-02_02h51.40.158,mdp,2024.2.1,Win32,59.52380952,66fa4ebf79326e780c390304,,,,,,,,,,,,,,,,,,,,,437.1401,437.1401,437.1415,438.09,0,0,left,0.4248,,438.0915,439.3214,1,0,right,439.3229,439.324,,0,,1,439.324,439.324,439.3254,440.8201,0,48,48,48,1,0.6,0.4,0.2,0.8,,,,,,,,,,,,,,,0.7122,,0.8,0.2,0.8,0.2,0.2,0.8,0.8,0.2,1,0,,,,,,,,,,,,
,,60db30cbbbee552378774e50,66fc97c457fa74c5fcad82ad,2024-10-02_02h51.40.158,mdp,2024.2.1,Win32,59.52380952,66fa4ebf79326e780c390304,,,,,,,,,,,,,,,,,,,,,440.8207,440.8207,440.8223,442.269,1,1,right,0.9166,,442.2704,443.4017,0,1,left,443.4029,443.4036,,0,,0,443.4037,443.4037,443.4043,444.9008,0,49,49,49,1,0.6,0.4,0.2,0.8,,,,,,,,,,,,,,,0.6,,0.8,0.2,0.8,0.2,0.2,0.8,0.8,0.2,1,0,,,,,,,,,,,,
,,60db30cbbbee552378774e50,66fc97c457fa74c5fcad82ad,2024-10-02_02h51.40.158,mdp,2024.2.1,Win32,59.52380952,66fa4ebf79326e780c390304,,,,,,,,,,,,,,,,,,,,,,,,,,,,,,,,,,,,,,,,,,,,,,,,,,,,,,,,444.9009,503.404,0,1,1,0,1,imgs/giraffe.png,imgs/horse.png,imgs/lion.png,imgs/elephant.png,imgs/rabbit.png,,,,,,,,,,,,,,,,,,,,,,,,
,,60db30cbbbee552378774e50,66fc97c457fa74c5fcad82ad,2024-10-02_02h51.40.158,mdp,2024.2.1,Win32,59.52380952,66fa4ebf79326e780c390304,,,,,,,,,,,,,,3,seqs/st3seq27.csv,503.415,505.5355,space,1.6093,,505.5449,505.5449,505.546,507.8393,0,0,left,1.7661,,507.8409,509.4494,0,0,left,509.451,510.9979,0,1,left,0,510.998,510.998,510.9994,512.4969,0,0,0,0,1,0.8,0.2,0.6,0.4,,,,,,,,,,,,,,,1.0863,,0.4,0.6,0.8,0.2,0.8,0.2,0.2,0.8,,,1.0141,,0.6,0.4,0.8,0.2,0.4,0.6,0.4,0.6,1,0
,,60db30cbbbee552378774e50,66fc97c457fa74c5fcad82ad,2024-10-02_02h51.40.158,mdp,2024.2.1,Win32,59.52380952,66fa4ebf79326e780c390304,,,,,,,,,,,,,,,,,,,,,512.4978,512.4978,512.499,513.7126,0,1,left,0.6889,,513.7146,515.711,1,1,right,515.7127,517.1265,1,1,right,0,517.1265,517.1265,517.1279,518.6251,0,1,1,1,1,0.8,0.2,0.6,0.4,,,,,,,,,,,,,,,1.461599999,,0.4,0.6,0.8,0.2,0.8,0.2,0.2,0.8,,,0.878,,0.6,0.4,0.8,0.2,0.4,0.6,0.4,0.6,1,0
,,60db30cbbbee552378774e50,66fc97c457fa74c5fcad82ad,2024-10-02_02h51.40.158,mdp,2024.2.1,Win32,59.52380952,66fa4ebf79326e780c390304,,,,,,,,,,,,,,,,,,,,,518.6258,518.6258,518.6273,519.6909,0,0,left,0.5362,,519.6923,520.7569,0,1,left,520.7586,521.7228,1,0,right,1,521.7229,521.723,521.7245,523.2217,0,2,2,2,1,0.8,0.2,0.6,0.4,,,,,,,,,,,,,,,0.549,,0.4,0.6,0.8,0.2,0.8,0.2,0.2,0.8,,,0.4332,,0.6,0.4,0.8,0.2,0.4,0.6,0.4,0.6,1,0
,,60db30cbbbee552378774e50,66fc97c457fa74c5fcad82ad,2024-10-02_02h51.40.158,mdp,2024.2.1,Win32,59.52380952,66fa4ebf79326e780c390304,,,,,,,,,,,,,,,,,,,,,523.2226,523.2226,523.2241,524.0543,0,0,left,0.3043,,524.056,525.2033,0,1,left,525.2048,526.5524,1,0,right,1,526.5524,526.5524,526.5541,528.0515,0,3,3,3,1,0.8,0.2,0.6,0.4,,,,,,,,,,,,,,,0.6221,,0.4,0.6,0.8,0.2,0.8,0.2,0.2,0.8,,,0.8188,,0.6,0.4,0.8,0.2,0.4,0.6,0.4,0.6,1,0
,,60db30cbbbee552378774e50,66fc97c457fa74c5fcad82ad,2024-10-02_02h51.40.158,mdp,2024.2.1,Win32,59.52380952,66fa4ebf79326e780c390304,,,,,,,,,,,,,,,,,,,,,528.0523,528.0524,528.0541,529.117,0,0,left,0.5332,,529.1202,530.5323,0,1,left,530.5338,531.7814,1,1,right,0,531.7815,531.7815,531.7827,533.2804,0,4,4,4,1,0.8,0.2,0.6,0.4,,,,,,,,,,,,,,,0.8826,,0.4,0.6,0.8,0.2,0.8,0.2,0.2,0.8,,,0.7255,,0.6,0.4,0.8,0.2,0.8,0.2,0.2,0.8,1,0
,,60db30cbbbee552378774e50,66fc97c457fa74c5fcad82ad,2024-10-02_02h51.40.158,mdp,2024.2.1,Win32,59.52380952,66fa4ebf79326e780c390304,,,,,,,,,,,,,,,,,,,,,533.2811,533.2811,533.2827,534.3296,1,0,right,0.525400001,,534.3314,535.8781,0,1,left,535.8793,537.8601,1,1,right,0,537.8602,537.8602,537.8614,539.3588,0,5,5,5,1,0.8,0.2,0.6,0.4,,,,,,,,,,,,,,,1.0159,,0.4,0.6,0.8,0.2,0.8,0.2,0.2,0.8,,,1.453,,0.6,0.4,0.8,0.2,0.8,0.2,0.2,0.8,1,0
,,60db30cbbbee552378774e50,66fc97c457fa74c5fcad82ad,2024-10-02_02h51.40.158,mdp,2024.2.1,Win32,59.52380952,66fa4ebf79326e780c390304,,,,,,,,,,,,,,,,,,,,,539.3595,539.3596,539.3614,540.1582,1,1,right,0.2685,,540.1597,542.0066,0,0,left,542.0081,543.3722,1,0,right,1,543.3723,543.3724,543.3736,544.8712,0,6,6,6,1,0.8,0.2,0.6,0.4,,,,,,,,,,,,,,,1.308900001,,0.4,0.6,0.8,0.2,0.8,0.2,0.2,0.8,,,0.8328,,0.6,0.4,0.8,0.2,0.8,0.2,0.2,0.8,1,0
,,60db30cbbbee552378774e50,66fc97c457fa74c5fcad82ad,2024-10-02_02h51.40.158,mdp,2024.2.1,Win32,59.52380952,66fa4ebf79326e780c390304,,,,,,,,,,,,,,,,,,,,,544.8719,544.8719,544.8735,545.9205,1,1,right,0.5216,,545.9223,547.2525,0,0,left,547.2537,548.2353,1,0,right,1,548.2355,548.2355,548.2369,549.7342,0,7,7,7,1,0.8,0.2,0.6,0.4,,,,,,,,,,,,,,,0.810400001,,0.4,0.6,0.8,0.2,0.8,0.2,0.2,0.8,,,0.463,,0.6,0.4,0.8,0.2,0.8,0.2,0.2,0.8,1,0
,,60db30cbbbee552378774e50,66fc97c457fa74c5fcad82ad,2024-10-02_02h51.40.158,mdp,2024.2.1,Win32,59.52380952,66fa4ebf79326e780c390304,,,,,,,,,,,,,,,,,,,,,549.7349,549.7349,549.7362,550.683,0,0,left,0.4278,,550.6843,552.2651,0,1,left,552.2667,553.5309,0,0,left,1,553.531,553.531,553.5328,555.0299,0,8,8,8,1,0.8,0.2,0.6,0.4,,,,,,,,,,,,,,,1.052900001,,0.4,0.6,0.8,0.2,0.8,0.2,0.2,0.8,,,0.7346,,0.6,0.4,0.8,0.2,0.8,0.2,0.2,0.8,1,0
,,60db30cbbbee552378774e50,66fc97c457fa74c5fcad82ad,2024-10-02_02h51.40.158,mdp,2024.2.1,Win32,59.52380952,66fa4ebf79326e780c390304,,,,,,,,,,,,,,,,,,,,,555.0313,555.0314,555.0331,556.0622,0,0,left,0.512,,556.0635,557.9443,0,0,left,557.946,558.8269,0,1,left,0,558.827,558.8271,558.8287,560.3261,0,9,9,9,1,0.8,0.2,0.6,0.4,,,,,,,,,,,,,,,1.3555,,0.4,0.6,0.8,0.2,0.8,0.2,0.2,0.8,,,0.3491,,0.6,0.4,0.8,0.2,0.8,0.2,0.2,0.8,1,0
,,60db30cbbbee552378774e50,66fc97c457fa74c5fcad82ad,2024-10-02_02h51.40.158,mdp,2024.2.1,Win32,59.52380952,66fa4ebf79326e780c390304,,,,,,,,,,,,,,,,,,,,,560.3266,560.3266,560.3283,561.1584,0,0,left,0.308900001,,561.1602,562.2241,0,1,left,562.2261,563.5064,0,0,left,1,563.5065,563.5065,563.508,565.005,0,10,10,10,1,0.8,0.2,0.6,0.4,,,,,,,,,,,,,,,0.5334,,0.4,0.6,0.8,0.2,0.8,0.2,0.2,0.8,,,0.7501,,0.6,0.4,0.8,0.2,0.8,0.2,0.2,0.8,1,0
,,60db30cbbbee552378774e50,66fc97c457fa74c5fcad82ad,2024-10-02_02h51.40.158,mdp,2024.2.1,Win32,59.52380952,66fa4ebf79326e780c390304,,,,,,,,,,,,,,,,,,,,,565.0056,565.0056,565.007,565.7216,1,1,right,0.1917,,565.7228,567.4699,1,1,right,567.4716,568.9522,0,0,left,1,568.9523,568.9523,568.9541,570.4513,0,11,11,11,1,0.6,0.4,0.2,0.8,,,,,,,,,,,,,,,1.2188,,0.4,0.6,0.8,0.2,0.8,0.2,0.2,0.8,,,0.9521,,0.6,0.4,0.8,0.2,0.8,0.2,0.2,0.8,1,0
,,60db30cbbbee552378774e50,66fc97c457fa74c5fcad82ad,2024-10-02_02h51.40.158,mdp,2024.2.1,Win32,59.52380952,66fa4ebf79326e780c390304,,,,,,,,,,,,,,,,,,,,,570.4521,570.4521,570.4536,571.3002,0,0,left,0.3215,,571.3017,572.6161,0,1,left,572.6174,574.0145,0,0,left,1,574.0146,574.0146,574.0161,575.5134,0,12,12,12,1,0.8,0.2,0.6,0.4,,,,,,,,,,,,,,,0.7853,,0.4,0.6,0.8,0.2,0.8,0.2,0.2,0.8,,,0.8783,,0.6,0.4,0.8,0.2,0.8,0.2,0.2,0.8,1,0
,,60db30cbbbee552378774e50,66fc97c457fa74c5fcad82ad,2024-10-02_02h51.40.158,mdp,2024.2.1,Win32,59.52380952,66fa4ebf79326e780c390304,,,,,,,,,,,,,,,,,,,,,575.5141,575.5141,575.5155,576.0463,1,0,right,0.0096,,576.048,577.9118,0,1,left,577.9136,579.1772,0,1,left,0,579.1774,579.1774,579.1795,580.6761,0,13,13,13,1,0.8,0.2,0.6,0.4,,,,,,,,,,,,,,,1.3423,,0.4,0.6,0.8,0.2,0.8,0.2,0.2,0.8,,,0.744599999,,0.6,0.4,0.8,0.2,0.8,0.2,0.2,0.8,1,0
,,60db30cbbbee552378774e50,66fc97c457fa74c5fcad82ad,2024-10-02_02h51.40.158,mdp,2024.2.1,Win32,59.52380952,66fa4ebf79326e780c390304,,,,,,,,,,,,,,,,,,,,,580.6769,580.6769,580.6782,581.8085,1,0,right,0.6124,,581.8101,583.7736,1,0,right,583.7748,585.0393,1,1,right,0,585.0394,585.0394,585.0407,586.5383,0,14,14,14,1,0.6,0.4,0.2,0.8,,,,,,,,,,,,,,,1.4429,,0.4,0.6,0.8,0.2,0.8,0.2,0.2,0.8,,,0.735599999,,0.6,0.4,0.8,0.2,0.8,0.2,0.2,0.8,1,0
,,60db30cbbbee552378774e50,66fc97c457fa74c5fcad82ad,2024-10-02_02h51.40.158,mdp,2024.2.1,Win32,59.52380952,66fa4ebf79326e780c390304,,,,,,,,,,,,,,,,,,,,,586.5388,586.5388,586.5404,587.1541,0,0,left,0.0862,,587.1552,588.3702,0,0,left,588.372,589.9355,0,1,left,0,589.9358,589.9358,589.9382,591.4344,0,15,15,15,1,0.6,0.4,0.2,0.8,,,,,,,,,,,,,,,0.6875,,0.8,0.2,0.6,0.4,0.8,0.2,0.2,0.8,,,1.0333,,0.6,0.4,0.8,0.2,0.8,0.2,0.2,0.8,1,0
,,60db30cbbbee552378774e50,66fc97c457fa74c5fcad82ad,2024-10-02_02h51.40.158,mdp,2024.2.1,Win32,59.52380952,66fa4ebf79326e780c390304,,,,,,,,,,,,,,,,,,,,,591.435,591.435,591.4365,592.2502,1,0,right,0.292,,592.2521,593.2661,1,0,right,593.2675,594.4152,1,0,right,1,594.4154,594.4154,594.4167,595.9145,0,16,16,16,1,0.6,0.4,0.2,0.8,,,,,,,,,,,,,,,0.493900001,,0.8,0.2,0.6,0.4,0.8,0.2,0.2,0.8,,,0.6171,,0.6,0.4,0.8,0.2,0.8,0.2,0.2,0.8,1,0
,,60db30cbbbee552378774e50,66fc97c457fa74c5fcad82ad,2024-10-02_02h51.40.158,mdp,2024.2.1,Win32,59.52380952,66fa4ebf79326e780c390304,,,,,,,,,,,,,,,,,,,,,595.9152,595.9153,595.9167,596.8636,0,0,left,0.417,,596.8653,598.1124,1,1,right,598.1137,599.2444,0,0,left,1,599.2445,599.2445,599.2459,600.7438,0,17,17,17,1,0.6,0.4,0.2,0.8,,,,,,,,,,,,,,,0.7217,,0.8,0.2,0.6,0.4,0.8,0.2,0.2,0.8,,,0.6165,,0.6,0.4,0.8,0.2,0.8,0.2,0.2,0.8,1,0
,,60db30cbbbee552378774e50,66fc97c457fa74c5fcad82ad,2024-10-02_02h51.40.158,mdp,2024.2.1,Win32,59.52380952,66fa4ebf79326e780c390304,,,,,,,,,,,,,,,,,,,,,600.7445,600.7447,600.7459,602.6254,0,0,left,1.347,,602.627,603.6912,0,0,left,603.6925,605.3067,0,0,left,1,605.3067,605.3067,605.3081,606.8055,0,18,18,18,1,0.6,0.4,0.2,0.8,,,,,,,,,,,,,,,0.5459,,0.8,0.2,0.6,0.4,0.8,0.2,0.2,0.8,,,1.0748,,0.6,0.4,0.8,0.2,0.8,0.2,0.2,0.8,1,0
,,60db30cbbbee552378774e50,66fc97c457fa74c5fcad82ad,2024-10-02_02h51.40.158,mdp,2024.2.1,Win32,59.52380952,66fa4ebf79326e780c390304,,,,,,,,,,,,,,,,,,,,,606.806,606.806,606.8074,607.5382,1,1,right,0.205,,607.5399,609.37,0,0,left,609.3716,610.9521,1,0,right,1,610.9522,610.9522,610.9535,612.4509,0,19,19,19,1,0.6,0.4,0.2,0.8,,,,,,,,,,,,,,,1.314200001,,0.8,0.2,0.6,0.4,0.8,0.2,0.2,0.8,,,1.0554,,0.6,0.4,0.8,0.2,0.8,0.2,0.2,0.8,1,0
,,60db30cbbbee552378774e50,66fc97c457fa74c5fcad82ad,2024-10-02_02h51.40.158,mdp,2024.2.1,Win32,59.52380952,66fa4ebf79326e780c390304,,,,,,,,,,,,,,,,,,,,,612.4515,612.4515,612.4528,613.1003,0,0,left,0.1272,,613.1017,614.2162,0,0,left,614.2178,615.3152,0,0,left,1,615.3154,615.3154,615.3167,616.8142,0,20,20,20,1,0.6,0.4,0.2,0.8,,,,,,,,,,,,,,,0.5777,,0.8,0.2,0.6,0.4,0.8,0.2,0.2,0.8,,,0.5934,,0.6,0.4,0.8,0.2,0.8,0.2,0.2,0.8,1,0
,,60db30cbbbee552378774e50,66fc97c457fa74c5fcad82ad,2024-10-02_02h51.40.158,mdp,2024.2.1,Win32,59.52380952,66fa4ebf79326e780c390304,,,,,,,,,,,,,,,,,,,,,616.8149,616.8149,616.8168,617.4136,1,1,right,0.073599999,,617.4155,618.6294,1,1,right,618.6308,619.8952,1,1,right,0,619.8952,619.8953,619.8974,621.3941,0,21,21,21,1,0.6,0.4,0.2,0.8,,,,,,,,,,,,,,,0.6758,,0.8,0.2,0.6,0.4,0.8,0.2,0.2,0.8,,,0.725599999,,0.6,0.4,0.8,0.2,0.8,0.2,0.2,0.8,1,0
,,60db30cbbbee552378774e50,66fc97c457fa74c5fcad82ad,2024-10-02_02h51.40.158,mdp,2024.2.1,Win32,59.52380952,66fa4ebf79326e780c390304,,,,,,,,,,,,,,,,,,,,,621.3947,621.3947,621.3961,622.1931,0,0,left,0.275,,622.1944,623.6089,0,0,left,623.6108,624.7745,1,0,right,1,624.7747,624.7747,624.7764,626.2734,0,22,22,22,1,0.6,0.4,0.2,0.8,,,,,,,,,,,,,,,0.8755,,0.8,0.2,0.6,0.4,0.8,0.2,0.2,0.8,,,0.6322,,0.8,0.2,0.4,0.6,0.8,0.2,0.2,0.8,1,0
,,60db30cbbbee552378774e50,66fc97c457fa74c5fcad82ad,2024-10-02_02h51.40.158,mdp,2024.2.1,Win32,59.52380952,66fa4ebf79326e780c390304,,,,,,,,,,,,,,,,,,,,,626.2741,626.2741,626.2759,627.1728,1,0,right,0.3664,,627.1743,628.2053,0,0,left,628.2067,629.7373,0,1,left,0,629.7374,629.7375,629.7387,631.2363,0,23,23,23,1,0.6,0.4,0.2,0.8,,,,,,,,,,,,,,,0.5217,,0.8,0.2,0.6,0.4,0.8,0.2,0.2,0.8,,,1.008,,0.2,0.8,0.8,0.2,0.8,0.2,0.2,0.8,1,0
,,60db30cbbbee552378774e50,66fc97c457fa74c5fcad82ad,2024-10-02_02h51.40.158,mdp,2024.2.1,Win32,59.52380952,66fa4ebf79326e780c390304,,,,,,,,,,,,,,,,,,,,,631.2368,631.2369,631.2384,631.9857,1,0,right,0.2263,,631.9872,632.8514,1,0,right,632.8531,634.1171,1,1,right,0,634.1172,634.1172,634.1186,635.6159,0,24,24,24,1,0.6,0.4,0.2,0.8,,,,,,,,,,,,,,,0.345799999,,0.8,0.2,0.6,0.4,0.8,0.2,0.2,0.8,,,0.7427,,0.2,0.8,0.8,0.2,0.8,0.2,0.2,0.8,1,0
,,60db30cbbbee552378774e50,66fc97c457fa74c5fcad82ad,2024-10-02_02h51.40.158,mdp,2024.2.1,Win32,59.52380952,66fa4ebf79326e780c390304,,,,,,,,,,,,,,,,,,,,,635.6166,635.6166,635.618,636.3156,0,1,left,0.1717,,636.3173,637.1815,0,0,left,637.1826,638.1808,0,1,left,0,638.1809,638.1809,638.1829,639.6793,0,25,25,25,1,0.6,0.4,0.2,0.8,,,,,,,,,,,,,,,0.3272,,0.8,0.2,0.6,0.4,0.8,0.2,0.2,0.8,,,0.4753,,0.2,0.8,0.8,0.2,0.4,0.6,0.8,0.2,1,0
,,60db30cbbbee552378774e50,66fc97c457fa74c5fcad82ad,2024-10-02_02h51.40.158,mdp,2024.2.1,Win32,59.52380952,66fa4ebf79326e780c390304,,,,,,,,,,,,,,,,,,,,,639.6802,639.6802,639.6823,640.4624,1,0,right,0.2597,,640.4641,641.4451,1,1,right,641.4464,643.16,1,0,right,1,643.16,643.16,643.1616,644.659,0,26,26,26,1,0.6,0.4,0.2,0.8,,,,,,,,,,,,,,,0.4497,,0.8,0.2,0.6,0.4,0.8,0.2,0.2,0.8,,,1.1811,,0.2,0.8,0.8,0.2,0.4,0.6,0.8,0.2,1,0
,,60db30cbbbee552378774e50,66fc97c457fa74c5fcad82ad,2024-10-02_02h51.40.158,mdp,2024.2.1,Win32,59.52380952,66fa4ebf79326e780c390304,,,,,,,,,,,,,,,,,,,,,644.6599,644.6599,644.6616,645.4914,1,0,right,0.3124,,645.4929,646.4243,1,0,right,646.4257,647.3399,1,1,right,0,647.34,647.34,647.3413,648.8389,0,27,27,27,1,0.6,0.4,0.2,0.8,,,,,,,,,,,,,,,0.4088,,0.8,0.2,0.6,0.4,0.8,0.2,0.2,0.8,,,0.3757,,0.2,0.8,0.8,0.2,0.4,0.6,0.8,0.2,1,0
,,60db30cbbbee552378774e50,66fc97c457fa74c5fcad82ad,2024-10-02_02h51.40.158,mdp,2024.2.1,Win32,59.52380952,66fa4ebf79326e780c390304,,,,,,,,,,,,,,,,,,,,,648.8396,648.8396,648.8413,649.6385,0,0,left,0.273799999,,649.64,650.9873,1,0,right,650.9888,652.2361,0,1,left,0,652.2361,652.2361,652.2376,653.7348,0,28,28,28,1,0.6,0.4,0.2,0.8,,,,,,,,,,,,,,,0.825700001,,0.8,0.2,0.6,0.4,0.8,0.2,0.2,0.8,,,0.7238,,0.2,0.8,0.8,0.2,0.4,0.6,0.8,0.2,1,0
,,60db30cbbbee552378774e50,66fc97c457fa74c5fcad82ad,2024-10-02_02h51.40.158,mdp,2024.2.1,Win32,59.52380952,66fa4ebf79326e780c390304,,,,,,,,,,,,,,,,,,,,,653.7355,653.7356,653.7368,654.6177,1,0,right,0.3607,,654.619,655.6002,1,1,right,655.6016,656.9994,1,0,right,1,656.9995,656.9995,657.0008,658.4979,0,29,29,29,1,0.6,0.4,0.2,0.8,,,,,,,,,,,,,,,0.4624,,0.8,0.2,0.6,0.4,0.8,0.2,0.2,0.8,,,0.864200001,,0.2,0.8,0.8,0.2,0.4,0.6,0.8,0.2,1,0
,,60db30cbbbee552378774e50,66fc97c457fa74c5fcad82ad,2024-10-02_02h51.40.158,mdp,2024.2.1,Win32,59.52380952,66fa4ebf79326e780c390304,,,,,,,,,,,,,,,,,,,,,658.4986,658.4986,658.5002,659.1472,0,1,left,0.126900001,,659.1487,659.9468,1,1,right,659.9484,661.1291,1,1,right,0,661.1291,661.1291,661.1307,662.628,0,30,30,30,1,0.6,0.4,0.2,0.8,,,,,,,,,,,,,,,0.2771,,0.8,0.2,0.6,0.4,0.8,0.2,0.2,0.8,,,0.645099999,,0.2,0.8,0.8,0.2,0.4,0.6,0.8,0.2,1,0
,,60db30cbbbee552378774e50,66fc97c457fa74c5fcad82ad,2024-10-02_02h51.40.158,mdp,2024.2.1,Win32,59.52380952,66fa4ebf79326e780c390304,,,,,,,,,,,,,,,,,,,,,662.629,662.629,662.6305,663.4275,0,0,left,0.276099999,,663.4294,664.5599,1,0,right,664.5616,665.5094,0,1,left,0,665.5096,665.5096,665.5115,667.0079,0,31,31,31,1,0.6,0.4,0.2,0.8,,,,,,,,,,,,,,,0.597,,0.8,0.2,0.6,0.4,0.8,0.2,0.2,0.8,,,0.4229,,0.2,0.8,0.8,0.2,0.4,0.6,0.8,0.2,1,0
,,60db30cbbbee552378774e50,66fc97c457fa74c5fcad82ad,2024-10-02_02h51.40.158,mdp,2024.2.1,Win32,59.52380952,66fa4ebf79326e780c390304,,,,,,,,,,,,,,,,,,,,,667.0085,667.0085,667.0099,667.6908,1,1,right,0.159200001,,667.6923,668.7899,0,0,left,668.7909,669.8889,1,1,right,0,669.8891,669.8891,669.8908,671.3877,0,32,32,32,1,0.6,0.4,0.2,0.8,,,,,,,,,,,,,,,0.5679,,0.6,0.4,0.8,0.2,0.8,0.2,0.2,0.8,,,0.5747,,0.2,0.8,0.8,0.2,0.4,0.6,0.8,0.2,1,0
,,60db30cbbbee552378774e50,66fc97c457fa74c5fcad82ad,2024-10-02_02h51.40.158,mdp,2024.2.1,Win32,59.52380952,66fa4ebf79326e780c390304,,,,,,,,,,,,,,,,,,,,,671.3884,671.3884,671.3899,672.0703,1,1,right,0.162599999,,672.0716,673.0696,0,0,left,673.0709,673.8691,0,1,left,0,673.8692,673.8692,673.8704,675.3682,0,33,33,33,1,0.6,0.4,0.2,0.8,,,,,,,,,,,,,,,0.4776,,0.6,0.4,0.8,0.2,0.8,0.2,0.2,0.8,,,0.2765,,0.2,0.8,0.8,0.2,0.4,0.6,0.8,0.2,1,0
,,60db30cbbbee552378774e50,66fc97c457fa74c5fcad82ad,2024-10-02_02h51.40.158,mdp,2024.2.1,Win32,59.52380952,66fa4ebf79326e780c390304,,,,,,,,,,,,,,,,,,,,,675.3692,675.3693,675.371,675.9176,0,0,left,0.0225,,675.9194,677.1001,1,1,right,677.1017,678.0658,1,0,right,1,678.066,678.066,678.0676,679.5646,0,34,34,34,1,0.6,0.4,0.2,0.8,,,,,,,,,,,,,,,0.6462,,0.6,0.4,0.8,0.2,0.8,0.2,0.2,0.8,,,0.4291,,0.2,0.8,0.8,0.2,0.4,0.6,0.8,0.2,1,0
,,60db30cbbbee552378774e50,66fc97c457fa74c5fcad82ad,2024-10-02_02h51.40.158,mdp,2024.2.1,Win32,59.52380952,66fa4ebf79326e780c390304,,,,,,,,,,,,,,,,,,,,,679.5651,679.5651,679.5664,680.4473,0,0,left,0.356900001,,680.449,681.4965,1,1,right,681.498,682.4623,1,0,right,1,682.4625,682.4625,682.4637,683.9612,0,35,35,35,1,0.6,0.4,0.2,0.8,,,,,,,,,,,,,,,0.525400001,,0.6,0.4,0.8,0.2,0.8,0.2,0.2,0.8,,,0.4384,,0.2,0.8,0.8,0.2,0.4,0.6,0.8,0.2,1,0
,,60db30cbbbee552378774e50,66fc97c457fa74c5fcad82ad,2024-10-02_02h51.40.158,mdp,2024.2.1,Win32,59.52380952,66fa4ebf79326e780c390304,,,,,,,,,,,,,,,,,,,,,683.9618,683.9618,683.9633,684.8609,0,1,left,0.3678,,684.8624,685.8595,1,1,right,685.8608,687.092,1,0,right,1,687.0921,687.0921,687.0935,688.5908,0,36,36,36,1,0.6,0.4,0.2,0.8,,,,,,,,,,,,,,,0.4673,,0.6,0.4,0.8,0.2,0.8,0.2,0.2,0.8,,,0.7008,,0.2,0.8,0.8,0.2,0.4,0.6,0.8,0.2,1,0
,,60db30cbbbee552378774e50,66fc97c457fa74c5fcad82ad,2024-10-02_02h51.40.158,mdp,2024.2.1,Win32,59.52380952,66fa4ebf79326e780c390304,,,,,,,,,,,,,,,,,,,,,688.5915,688.5915,688.593,690.0232,1,0,right,0.9129,,690.025,691.9046,1,0,right,691.9061,693.1537,0,0,left,1,693.1541,693.1541,693.156,694.6527,0,37,37,37,1,0.6,0.4,0.2,0.8,,,,,,,,,,,,,,,1.3516,,0.6,0.4,0.8,0.2,0.8,0.2,0.2,0.8,,,0.7095,,0.4,0.6,0.4,0.6,0.4,0.6,0.8,0.2,1,0
,,60db30cbbbee552378774e50,66fc97c457fa74c5fcad82ad,2024-10-02_02h51.40.158,mdp,2024.2.1,Win32,59.52380952,66fa4ebf79326e780c390304,,,,,,,,,,,,,,,,,,,,,694.6533,694.6534,694.6549,695.4853,0,1,left,0.3122,,695.4871,696.6009,1,1,right,696.6024,697.7339,1,0,right,1,697.7341,697.7341,697.7356,699.2327,0,38,38,38,1,0.6,0.4,0.2,0.8,,,,,,,,,,,,,,,0.5874,,0.6,0.4,0.8,0.2,0.8,0.2,0.2,0.8,,,0.5992,,0.4,0.6,0.4,0.6,0.4,0.6,0.8,0.2,1,0
,,60db30cbbbee552378774e50,66fc97c457fa74c5fcad82ad,2024-10-02_02h51.40.158,mdp,2024.2.1,Win32,59.52380952,66fa4ebf79326e780c390304,,,,,,,,,,,,,,,,,,,,,699.2335,699.2335,699.235,699.8991,1,1,right,0.143599999,,699.9005,701.1975,0,0,left,701.1988,702.463,0,1,left,0,702.4631,702.4631,702.4644,703.962,0,39,39,39,1,0.6,0.4,0.2,0.8,,,,,,,,,,,,,,,0.770700001,,0.6,0.4,0.8,0.2,0.8,0.2,0.2,0.8,,,0.7279,,0.4,0.6,0.4,0.6,0.4,0.6,0.8,0.2,1,0
,,60db30cbbbee552378774e50,66fc97c457fa74c5fcad82ad,2024-10-02_02h51.40.158,mdp,2024.2.1,Win32,59.52380952,66fa4ebf79326e780c390304,,,,,,,,,,,,,,,,,,,,,703.9625,703.9625,703.9642,704.7947,1,1,right,0.308700001,,704.7962,705.8769,0,0,left,705.8782,707.043,1,1,right,0,707.0432,707.0432,707.0447,708.5418,0,40,40,40,1,0.6,0.4,0.2,0.8,,,,,,,,,,,,,,,0.554900001,,0.6,0.4,0.8,0.2,0.8,0.2,0.2,0.8,,,0.6435,,0.4,0.6,0.4,0.6,0.4,0.6,0.8,0.2,1,0
,,60db30cbbbee552378774e50,66fc97c457fa74c5fcad82ad,2024-10-02_02h51.40.158,mdp,2024.2.1,Win32,59.52380952,66fa4ebf79326e780c390304,,,,,,,,,,,,,,,,,,,,,708.5427,708.5427,708.5449,709.2577,1,1,right,0.189,,709.2596,710.3235,0,0,left,710.3252,711.5894,1,1,right,0,711.5897,711.5897,711.5915,713.0883,0,41,41,41,1,0.4,0.6,0.4,0.6,,,,,,,,,,,,,,,0.5339,,0.6,0.4,0.8,0.2,0.8,0.2,0.2,0.8,,,0.7361,,0.4,0.6,0.4,0.6,0.4,0.6,0.8,0.2,1,0
,,60db30cbbbee552378774e50,66fc97c457fa74c5fcad82ad,2024-10-02_02h51.40.158,mdp,2024.2.1,Win32,59.52380952,66fa4ebf79326e780c390304,,,,,,,,,,,,,,,,,,,,,713.089,713.0891,713.0904,713.904,1,1,right,0.2937,,713.9057,714.8033,0,0,left,714.805,715.8194,1,1,right,0,715.8195,715.8196,715.8207,717.3183,0,42,42,42,1,0.4,0.6,0.4,0.6,,,,,,,,,,,,,,,0.3744,,0.6,0.4,0.8,0.2,0.8,0.2,0.2,0.8,,,0.4838,,0.4,0.6,0.4,0.6,0.4,0.6,0.8,0.2,1,0
,,60db30cbbbee552378774e50,66fc97c457fa74c5fcad82ad,2024-10-02_02h51.40.158,mdp,2024.2.1,Win32,59.52380952,66fa4ebf79326e780c390304,,,,,,,,,,,,,,,,,,,,,717.3189,717.3189,717.3199,718.1175,0,1,left,0.2785,,718.1191,719,1,1,right,719.0013,720.1325,1,0,right,1,720.1326,720.1326,720.1339,721.6313,0,43,43,43,1,0.4,0.6,0.4,0.6,,,,,,,,,,,,,,,0.352400001,,0.4,0.6,0.6,0.4,0.8,0.2,0.2,0.8,,,0.5978,,0.4,0.6,0.4,0.6,0.4,0.6,0.8,0.2,1,0
,,60db30cbbbee552378774e50,66fc97c457fa74c5fcad82ad,2024-10-02_02h51.40.158,mdp,2024.2.1,Win32,59.52380952,66fa4ebf79326e780c390304,,,,,,,,,,,,,,,,,,,,,721.6319,721.6319,721.6334,722.7141,1,0,right,0.556700001,,722.7155,723.7964,0,1,left,723.7982,724.912,1,1,right,0,724.9122,724.9122,724.9137,726.4111,0,44,44,44,1,0.4,0.6,0.4,0.6,,,,,,,,,,,,,,,0.5537,,0.4,0.6,0.6,0.4,0.8,0.2,0.2,0.8,,,0.5834,,0.4,0.6,0.4,0.6,0.4,0.6,0.8,0.2,1,0
,,60db30cbbbee552378774e50,66fc97c457fa74c5fcad82ad,2024-10-02_02h51.40.158,mdp,2024.2.1,Win32,59.52380952,66fa4ebf79326e780c390304,,,,,,,,,,,,,,,,,,,,,726.412,726.412,726.4134,727.3271,1,0,right,0.3883,,727.3284,728.3425,0,0,left,728.3442,729.5254,0,0,left,1,729.5255,729.5255,729.5275,731.0239,0,45,45,45,1,0.4,0.6,0.4,0.6,,,,,,,,,,,,,,,0.492599999,,0.4,0.6,0.6,0.4,0.8,0.2,0.2,0.8,,,0.6461,,0.4,0.6,0.4,0.6,0.4,0.6,0.8,0.2,1,0
,,60db30cbbbee552378774e50,66fc97c457fa74c5fcad82ad,2024-10-02_02h51.40.158,mdp,2024.2.1,Win32,59.52380952,66fa4ebf79326e780c390304,,,,,,,,,,,,,,,,,,,,,731.0248,731.0248,731.0268,731.9398,0,1,left,0.3817,,731.9413,732.9721,1,1,right,732.9736,734.1381,0,1,left,0,734.1381,734.1381,734.1398,735.6368,0,46,46,46,1,0.4,0.6,0.4,0.6,,,,,,,,,,,,,,,0.5005,,0.4,0.6,0.6,0.4,0.8,0.2,0.2,0.8,,,0.6285,,0.4,0.6,0.4,0.6,0.4,0.6,0.8,0.2,1,0
,,60db30cbbbee552378774e50,66fc97c457fa74c5fcad82ad,2024-10-02_02h51.40.158,mdp,2024.2.1,Win32,59.52380952,66fa4ebf79326e780c390304,,,,,,,,,,,,,,,,,,,,,735.6374,735.6374,735.6392,736.4362,0,0,left,0.2706,,736.4379,737.6352,1,0,right,737.6366,739.1673,0,1,left,0,739.1674,739.1674,739.1686,740.6666,0,47,47,47,1,0.4,0.6,0.4,0.6,,,,,,,,,,,,,,,0.6859,,0.4,0.6,0.6,0.4,0.8,0.2,0.2,0.8,,,1.0113,,0.4,0.6,0.4,0.6,0.4,0.6,0.8,0.2,1,0
,,60db30cbbbee552378774e50,66fc97c457fa74c5fcad82ad,2024-10-02_02h51.40.158,mdp,2024.2.1,Win32,59.52380952,66fa4ebf79326e780c390304,,,,,,,,,,,,,,,,,,,,,740.6671,740.6671,740.6685,741.616,1,1,right,0.4236,,741.6177,742.4647,1,0,right,742.4666,743.7138,1,1,right,0,743.7138,743.7138,743.7153,745.2127,0,48,48,48,1,0.4,0.6,0.4,0.6,,,,,,,,,,,,,,,0.3135,,0.4,0.6,0.6,0.4,0.8,0.2,0.2,0.8,,,0.728799999,,0.4,0.6,0.4,0.6,0.4,0.6,0.8,0.2,1,0
,,60db30cbbbee552378774e50,66fc97c457fa74c5fcad82ad,2024-10-02_02h51.40.158,mdp,2024.2.1,Win32,59.52380952,66fa4ebf79326e780c390304,,,,,,,,,,,,,,,,,,,,,745.2136,745.2136,745.2155,746.0952,0,1,left,0.3506,,746.0965,747.1615,1,1,right,747.1637,748.5601,0,1,left,0,748.5601,748.5601,748.5613,750.0587,0,49,49,49,1,0.4,0.6,0.4,0.6,,,,,,,,,,,,,,,0.540200001,,0.4,0.6,0.6,0.4,0.8,0.2,0.2,0.8,,,0.864799999,,0.4,0.6,0.4,0.6,0.4,0.6,0.8,0.2,1,0
,,60db30cbbbee552378774e50,66fc97c457fa74c5fcad82ad,2024-10-02_02h51.40.158,mdp,2024.2.1,Win32,59.52380952,66fa4ebf79326e780c390304,,,,,,,,,,,,,,,,,,,,,,,,,,,,,,,,,,,,,,,,,,,,,,,,,,,,,,,,750.0588,808.5626,0,2,2,4,1,imgs/dog.png,imgs/cat.png,imgs/kangaroo.png,imgs/bear.png,imgs/pig.png,,,,,,,,,,,,,,,,,,,,,,,,
,,60db30cbbbee552378774e50,66fc97c457fa74c5fcad82ad,2024-10-02_02h51.40.158,mdp,2024.2.1,Win32,59.52380952,66fa4ebf79326e780c390304,,,,,,,,,,,,,,3,seqs/st3seq2.csv,808.5731,816.3567,space,7.2677,,816.3763,816.3763,816.3777,821.1527,0,0,left,4.241200001,,821.1637,822.3853,1,0,right,822.3873,823.7505,0,0,left,1,823.7506,823.7506,823.7526,825.2496,0,0,0,0,1,0.6,0.4,0.4,0.6,,,,,,,,,,,,,,,0.696,,0.4,0.6,0.4,0.6,0.4,0.6,0.6,0.4,,,0.8278,,0.4,0.6,0.2,0.8,0.2,0.8,0.8,0.2,1,0
,,60db30cbbbee552378774e50,66fc97c457fa74c5fcad82ad,2024-10-02_02h51.40.158,mdp,2024.2.1,Win32,59.52380952,66fa4ebf79326e780c390304,,,,,,,,,,,,,,,,,,,,,825.2504,825.2504,825.2521,826.8485,0,1,left,1.0728,,826.8505,828.2969,1,0,right,828.299,829.7291,0,1,left,0,829.7293,829.7293,829.7314,831.228,0,1,1,1,1,0.6,0.4,0.4,0.6,,,,,,,,,,,,,,,0.908,,0.4,0.6,0.4,0.6,0.4,0.6,0.6,0.4,,,0.884,,0.4,0.6,0.2,0.8,0.2,0.8,0.8,0.2,1,0
,,60db30cbbbee552378774e50,66fc97c457fa74c5fcad82ad,2024-10-02_02h51.40.158,mdp,2024.2.1,Win32,59.52380952,66fa4ebf79326e780c390304,,,,,,,,,,,,,,,,,,,,,831.2286,831.2286,831.2304,832.3438,0,0,left,0.5847,,832.3462,833.6635,0,1,left,833.6648,835.0084,1,0,right,1,835.0085,835.0085,835.0108,836.5114,0,2,2,2,1,0.6,0.4,0.4,0.6,,,,,,,,,,,,,,,0.782900001,,0.4,0.6,0.4,0.6,0.4,0.6,0.6,0.4,,,0.809099999,,0.4,0.6,0.2,0.8,0.2,0.8,0.8,0.2,1,0
,,60db30cbbbee552378774e50,66fc97c457fa74c5fcad82ad,2024-10-02_02h51.40.158,mdp,2024.2.1,Win32,59.52380952,66fa4ebf79326e780c390304,,,,,,,,,,,,,,,,,,,,,836.512,836.512,836.5131,837.3731,0,1,left,0.342,,837.3753,838.639,1,1,right,838.6418,840.1542,1,0,right,1,840.1543,840.1543,840.1562,841.6531,0,3,3,3,1,0.6,0.4,0.4,0.6,,,,,,,,,,,,,,,0.7232,,0.4,0.6,0.4,0.6,0.6,0.4,0.2,0.8,,,0.9919,,0.4,0.6,0.2,0.8,0.2,0.8,0.8,0.2,1,0
,,60db30cbbbee552378774e50,66fc97c457fa74c5fcad82ad,2024-10-02_02h51.40.158,mdp,2024.2.1,Win32,59.52380952,66fa4ebf79326e780c390304,,,,,,,,,,,,,,,,,,,,,841.6538,841.6539,841.6556,842.4692,1,1,right,0.2898,,842.4713,845.5333,1,1,right,845.5441,847.152,1,0,right,1,847.152,847.152,847.1532,848.6479,0,4,4,4,1,0.6,0.4,0.4,0.6,,,,,,,,,,,,,,,2.5403,,0.4,0.6,0.4,0.6,0.6,0.4,0.2,0.8,,,1.0983,,0.4,0.6,0.2,0.8,0.2,0.8,0.8,0.2,1,0
,,60db30cbbbee552378774e50,66fc97c457fa74c5fcad82ad,2024-10-02_02h51.40.158,mdp,2024.2.1,Win32,59.52380952,66fa4ebf79326e780c390304,,,,,,,,,,,,,,,,,,,,,848.6487,848.6487,848.6505,849.7302,0,0,left,0.559400001,,849.7327,851.6288,0,1,left,851.6308,852.9108,1,0,right,1,852.9109,852.9109,852.9132,854.4098,0,5,5,5,1,0.6,0.4,0.4,0.6,,,,,,,,,,,,,,,1.3573,,0.4,0.6,0.4,0.6,0.6,0.4,0.2,0.8,,,0.7639,,0.4,0.6,0.2,0.8,0.2,0.8,0.8,0.2,1,0
,,60db30cbbbee552378774e50,66fc97c457fa74c5fcad82ad,2024-10-02_02h51.40.158,mdp,2024.2.1,Win32,59.52380952,66fa4ebf79326e780c390304,,,,,,,,,,,,,,,,,,,,,854.4106,854.4106,854.4126,855.0925,1,0,right,0.1504,,855.0945,856.2786,0,0,left,856.2799,857.9235,0,0,left,1,857.9237,857.9237,857.9255,859.4224,0,6,6,6,1,0.6,0.4,0.4,0.6,,,,,,,,,,,,,,,0.6663,,0.4,0.6,0.4,0.6,0.6,0.4,0.2,0.8,,,1.109400001,,0.4,0.6,0.2,0.8,0.2,0.8,0.8,0.2,1,0
,,60db30cbbbee552378774e50,66fc97c457fa74c5fcad82ad,2024-10-02_02h51.40.158,mdp,2024.2.1,Win32,59.52380952,66fa4ebf79326e780c390304,,,,,,,,,,,,,,,,,,,,,859.423,859.423,859.425,860.2051,0,0,left,0.2622,,860.2071,861.141,0,0,left,861.1421,862.3539,0,0,left,1,862.3539,862.354,862.3558,863.8524,0,7,7,7,1,0.6,0.4,0.4,0.6,,,,,,,,,,,,,,,0.4155,,0.4,0.6,0.4,0.6,0.6,0.4,0.2,0.8,,,0.6893,,0.4,0.6,0.2,0.8,0.2,0.8,0.8,0.2,1,0
,,60db30cbbbee552378774e50,66fc97c457fa74c5fcad82ad,2024-10-02_02h51.40.158,mdp,2024.2.1,Win32,59.52380952,66fa4ebf79326e780c390304,,,,,,,,,,,,,,,,,,,,,863.8529,863.8529,863.8545,864.502,0,0,left,0.1194,,864.504,865.7505,1,1,right,865.7527,867.0668,1,0,right,1,867.0668,867.0669,867.0692,868.5654,0,8,8,8,1,0.6,0.4,0.4,0.6,,,,,,,,,,,,,,,0.7285,,0.4,0.6,0.4,0.6,0.6,0.4,0.2,0.8,,,0.7737,,0.4,0.6,0.2,0.8,0.2,0.8,0.8,0.2,1,0
,,60db30cbbbee552378774e50,66fc97c457fa74c5fcad82ad,2024-10-02_02h51.40.158,mdp,2024.2.1,Win32,59.52380952,66fa4ebf79326e780c390304,,,,,,,,,,,,,,,,,,,,,868.5665,868.5665,868.5686,869.4314,0,1,left,0.3412,,869.4336,871.3297,0,1,left,871.3327,872.6619,1,0,right,1,872.6621,872.6621,872.6641,874.1609,0,9,9,9,1,0.6,0.4,0.4,0.6,,,,,,,,,,,,,,,1.3555,,0.4,0.6,0.4,0.6,0.6,0.4,0.2,0.8,,,0.8101,,0.4,0.6,0.2,0.8,0.2,0.8,0.8,0.2,1,0
,,60db30cbbbee552378774e50,66fc97c457fa74c5fcad82ad,2024-10-02_02h51.40.158,mdp,2024.2.1,Win32,59.52380952,66fa4ebf79326e780c390304,,,,,,,,,,,,,,,,,,,,,874.1619,874.1619,874.1642,875.0136,1,1,right,0.3327,,875.0148,877.025,0,1,left,877.0271,878.6249,1,0,right,1,878.625,878.625,878.6271,880.123,0,10,10,10,1,0.6,0.4,0.4,0.6,,,,,,,,,,,,,,,1.4922,,0.4,0.6,0.4,0.6,0.6,0.4,0.2,0.8,,,1.0649,,0.4,0.6,0.2,0.8,0.2,0.8,0.8,0.2,1,0
,,60db30cbbbee552378774e50,66fc97c457fa74c5fcad82ad,2024-10-02_02h51.40.158,mdp,2024.2.1,Win32,59.52380952,66fa4ebf79326e780c390304,,,,,,,,,,,,,,,,,,,,,880.1237,880.1238,880.1255,880.9055,0,0,left,0.259,,880.9074,881.9545,1,0,right,881.9568,883.3243,0,1,left,0,883.3245,883.3245,883.3255,884.8193,0,11,11,11,1,0.6,0.4,0.4,0.6,,,,,,,,,,,,,,,0.511400001,,0.4,0.6,0.4,0.6,0.6,0.4,0.2,0.8,,,0.8329,,0.4,0.6,0.2,0.8,0.2,0.8,0.8,0.2,1,0
,,60db30cbbbee552378774e50,66fc97c457fa74c5fcad82ad,2024-10-02_02h51.40.158,mdp,2024.2.1,Win32,59.52380952,66fa4ebf79326e780c390304,,,,,,,,,,,,,,,,,,,,,884.82,884.82,884.8219,885.6684,1,0,right,0.320599999,,885.6713,886.7508,0,0,left,886.7536,888.0831,1,1,right,0,888.0832,888.0832,888.0855,889.5819,0,12,12,12,1,0.6,0.4,0.4,0.6,,,,,,,,,,,,,,,0.551400001,,0.4,0.6,0.4,0.6,0.6,0.4,0.2,0.8,,,0.8057,,0.4,0.6,0.2,0.8,0.2,0.8,0.8,0.2,1,0
,,60db30cbbbee552378774e50,66fc97c457fa74c5fcad82ad,2024-10-02_02h51.40.158,mdp,2024.2.1,Win32,59.52380952,66fa4ebf79326e780c390304,,,,,,,,,,,,,,,,,,,,,889.5826,889.5826,889.5848,890.4143,1,0,right,0.31,,890.4163,891.5845,1,1,right,891.5859,892.913,1,0,right,1,892.9132,892.9133,892.9152,894.4115,0,13,13,13,1,0.6,0.4,0.4,0.6,,,,,,,,,,,,,,,0.6499,,0.4,0.6,0.4,0.6,0.6,0.4,0.2,0.8,,,0.7916,,0.4,0.6,0.2,0.8,0.2,0.8,0.8,0.2,1,0
,,60db30cbbbee552378774e50,66fc97c457fa74c5fcad82ad,2024-10-02_02h51.40.158,mdp,2024.2.1,Win32,59.52380952,66fa4ebf79326e780c390304,,,,,,,,,,,,,,,,,,,,,894.4123,894.4124,894.4142,895.2439,1,1,right,0.3101,,895.246,896.4096,0,0,left,896.4117,897.3759,1,1,right,0,897.376,897.376,897.3782,898.8748,0,14,14,14,1,0.6,0.4,0.4,0.6,,,,,,,,,,,,,,,0.6271,,0.2,0.8,0.2,0.8,0.6,0.4,0.2,0.8,,,0.420799999,,0.4,0.6,0.2,0.8,0.2,0.8,0.8,0.2,1,0
,,60db30cbbbee552378774e50,66fc97c457fa74c5fcad82ad,2024-10-02_02h51.40.158,mdp,2024.2.1,Win32,59.52380952,66fa4ebf79326e780c390304,,,,,,,,,,,,,,,,,,,,,898.8758,898.8758,898.8779,899.6572,1,1,right,0.253200001,,899.6594,900.6566,1,1,right,900.6624,901.6389,1,0,right,1,901.639,901.639,901.641,903.1383,0,15,15,15,1,0.6,0.4,0.4,0.6,,,,,,,,,,,,,,,0.4757,,0.2,0.8,0.2,0.8,0.6,0.4,0.2,0.8,,,0.4445,,0.4,0.6,0.2,0.8,0.2,0.8,0.8,0.2,1,0
,,60db30cbbbee552378774e50,66fc97c457fa74c5fcad82ad,2024-10-02_02h51.40.158,mdp,2024.2.1,Win32,59.52380952,66fa4ebf79326e780c390304,,,,,,,,,,,,,,,,,,,,,903.139,903.1391,903.1408,903.9709,1,0,right,0.305099999,,903.9732,905.353,0,1,left,905.3554,906.3688,1,0,right,1,906.3689,906.3689,906.3707,907.8677,0,16,16,16,1,0.6,0.4,0.4,0.6,,,,,,,,,,,,,,,0.8338,,0.2,0.8,0.2,0.8,0.6,0.4,0.2,0.8,,,0.487599999,,0.4,0.6,0.2,0.8,0.2,0.8,0.8,0.2,1,0
,,60db30cbbbee552378774e50,66fc97c457fa74c5fcad82ad,2024-10-02_02h51.40.158,mdp,2024.2.1,Win32,59.52380952,66fa4ebf79326e780c390304,,,,,,,,,,,,,,,,,,,,,907.8683,907.8683,907.8702,908.6338,1,0,right,0.241799999,,908.636,909.8493,0,1,left,909.8522,910.9152,1,0,right,1,910.9153,910.9153,910.9176,912.4136,0,17,17,17,1,0.6,0.4,0.4,0.6,,,,,,,,,,,,,,,0.6881,,0.2,0.8,0.2,0.8,0.6,0.4,0.2,0.8,,,0.5423,,0.4,0.6,0.2,0.8,0.8,0.2,0.6,0.4,1,0
,,60db30cbbbee552378774e50,66fc97c457fa74c5fcad82ad,2024-10-02_02h51.40.158,mdp,2024.2.1,Win32,59.52380952,66fa4ebf79326e780c390304,,,,,,,,,,,,,,,,,,,,,912.4144,912.4144,912.4159,913.2296,0,0,left,0.2863,,913.2312,914.9617,1,1,right,914.9634,916.0775,1,0,right,1,916.0776,916.0776,916.0793,917.5766,0,18,18,18,1,0.6,0.4,0.4,0.6,,,,,,,,,,,,,,,1.210400001,,0.2,0.8,0.2,0.8,0.6,0.4,0.2,0.8,,,0.595099999,,0.4,0.6,0.2,0.8,0.8,0.2,0.6,0.4,1,0
,,60db30cbbbee552378774e50,66fc97c457fa74c5fcad82ad,2024-10-02_02h51.40.158,mdp,2024.2.1,Win32,59.52380952,66fa4ebf79326e780c390304,,,,,,,,,,,,,,,,,,,,,917.5777,917.5777,917.5796,918.326,1,1,right,0.224,,918.3274,919.6415,0,0,left,919.6431,921.5235,0,0,left,1,921.5236,921.5236,921.5253,923.0221,0,19,19,19,1,0.8,0.2,0.2,0.8,,,,,,,,,,,,,,,0.7859,,0.2,0.8,0.2,0.8,0.6,0.4,0.2,0.8,,,1.3416,,0.4,0.6,0.2,0.8,0.8,0.2,0.6,0.4,1,0
,,60db30cbbbee552378774e50,66fc97c457fa74c5fcad82ad,2024-10-02_02h51.40.158,mdp,2024.2.1,Win32,59.52380952,66fa4ebf79326e780c390304,,,,,,,,,,,,,,,,,,,,,923.0228,923.0228,923.0247,923.9046,0,0,left,0.3503,,923.9068,925.2868,1,1,right,925.2886,926.3032,1,1,right,0,926.3033,926.3033,926.3043,927.8021,0,20,20,20,1,0.8,0.2,0.2,0.8,,,,,,,,,,,,,,,0.8467,,0.2,0.8,0.2,0.8,0.6,0.4,0.2,0.8,,,0.4859,,0.4,0.6,0.2,0.8,0.8,0.2,0.6,0.4,1,0
,,60db30cbbbee552378774e50,66fc97c457fa74c5fcad82ad,2024-10-02_02h51.40.158,mdp,2024.2.1,Win32,59.52380952,66fa4ebf79326e780c390304,,,,,,,,,,,,,,,,,,,,,927.8033,927.8033,927.8045,928.6009,1,1,right,0.2747,,928.6031,930.0336,0,0,left,930.0357,931.2491,0,1,left,0,931.2492,931.2492,931.2518,932.7477,0,21,21,21,1,0.8,0.2,0.2,0.8,,,,,,,,,,,,,,,0.8923,,0.2,0.8,0.2,0.8,0.6,0.4,0.2,0.8,,,0.6744,,0.4,0.6,0.2,0.8,0.8,0.2,0.6,0.4,1,0
,,60db30cbbbee552378774e50,66fc97c457fa74c5fcad82ad,2024-10-02_02h51.40.158,mdp,2024.2.1,Win32,59.52380952,66fa4ebf79326e780c390304,,,,,,,,,,,,,,,,,,,,,932.7484,932.7484,932.7504,933.5143,0,0,left,0.241099999,,933.5163,934.4966,1,1,right,934.4987,935.6994,0,0,left,1,935.6995,935.6995,935.7009,937.1947,0,22,22,22,1,0.8,0.2,0.2,0.8,,,,,,,,,,,,,,,0.4625,,0.2,0.8,0.2,0.8,0.6,0.4,0.2,0.8,,,0.6668,,0.4,0.6,0.2,0.8,0.8,0.2,0.6,0.4,1,0
,,60db30cbbbee552378774e50,66fc97c457fa74c5fcad82ad,2024-10-02_02h51.40.158,mdp,2024.2.1,Win32,59.52380952,66fa4ebf79326e780c390304,,,,,,,,,,,,,,,,,,,,,937.1953,937.1953,937.1973,938.1604,0,1,left,0.4372,,938.1623,939.2925,1,0,right,939.2947,940.5916,1,1,right,0,940.5917,940.5918,940.5941,942.0905,0,23,23,23,1,0.8,0.2,0.2,0.8,,,,,,,,,,,,,,,0.592,,0.2,0.8,0.2,0.8,0.6,0.4,0.2,0.8,,,0.751400001,,0.4,0.6,0.2,0.8,0.8,0.2,0.6,0.4,1,0
,,60db30cbbbee552378774e50,66fc97c457fa74c5fcad82ad,2024-10-02_02h51.40.158,mdp,2024.2.1,Win32,59.52380952,66fa4ebf79326e780c390304,,,,,,,,,,,,,,,,,,,,,942.0913,942.0913,942.0933,942.7731,0,0,left,0.152099999,,942.7747,943.6726,1,1,right,943.6751,945.0213,1,0,right,1,945.0214,945.0214,945.0236,946.5205,0,24,24,24,1,0.8,0.2,0.2,0.8,,,,,,,,,,,,,,,0.353,,0.2,0.8,0.2,0.8,0.6,0.4,0.2,0.8,,,0.7998,,0.4,0.6,0.2,0.8,0.8,0.2,0.6,0.4,1,0
,,60db30cbbbee552378774e50,66fc97c457fa74c5fcad82ad,2024-10-02_02h51.40.158,mdp,2024.2.1,Win32,59.52380952,66fa4ebf79326e780c390304,,,,,,,,,,,,,,,,,,,,,946.5211,946.5211,946.5229,947.3532,0,0,left,0.3099,,947.3557,948.3192,0,1,left,948.3213,949.451,1,1,right,0,949.451,949.451,949.4526,950.95,0,25,25,25,1,0.8,0.2,0.2,0.8,,,,,,,,,,,,,,,0.442799999,,0.2,0.8,0.2,0.8,0.6,0.4,0.2,0.8,,,0.6069,,0.4,0.6,0.2,0.8,0.8,0.2,0.6,0.4,1,0
,,60db30cbbbee552378774e50,66fc97c457fa74c5fcad82ad,2024-10-02_02h51.40.158,mdp,2024.2.1,Win32,59.52380952,66fa4ebf79326e780c390304,,,,,,,,,,,,,,,,,,,,,950.9509,950.951,950.9532,951.8824,1,1,right,0.4106,,951.8845,952.882,1,0,right,952.884,954.2477,0,0,left,1,954.2478,954.2478,954.2501,955.7462,0,26,26,26,1,0.8,0.2,0.2,0.8,,,,,,,,,,,,,,,0.458799999,,0.2,0.8,0.2,0.8,0.4,0.6,0.6,0.4,,,0.817200001,,0.4,0.6,0.2,0.8,0.8,0.2,0.6,0.4,1,0
,,60db30cbbbee552378774e50,66fc97c457fa74c5fcad82ad,2024-10-02_02h51.40.158,mdp,2024.2.1,Win32,59.52380952,66fa4ebf79326e780c390304,,,,,,,,,,,,,,,,,,,,,955.747,955.747,955.749,956.5789,1,0,right,0.3001,,956.5816,957.6783,1,1,right,957.6802,958.898,0,0,left,1,958.898,958.898,958.8991,960.3925,0,27,27,27,1,0.8,0.2,0.2,0.8,,,,,,,,,,,,,,,0.5602,,0.2,0.8,0.2,0.8,0.4,0.6,0.6,0.4,,,0.683,,0.4,0.6,0.2,0.8,0.8,0.2,0.6,0.4,1,0
,,60db30cbbbee552378774e50,66fc97c457fa74c5fcad82ad,2024-10-02_02h51.40.158,mdp,2024.2.1,Win32,59.52380952,66fa4ebf79326e780c390304,,,,,,,,,,,,,,,,,,,,,960.3933,960.3933,960.3953,961.2754,1,1,right,0.3603,,961.2779,962.9071,1,1,right,962.9096,964.09,0,1,left,0,964.09,964.0901,964.0921,965.5884,0,28,28,28,1,0.8,0.2,0.2,0.8,,,,,,,,,,,,,,,1.0937,,0.2,0.8,0.2,0.8,0.4,0.6,0.6,0.4,,,0.6626,,0.4,0.6,0.2,0.8,0.8,0.2,0.6,0.4,1,0
,,60db30cbbbee552378774e50,66fc97c457fa74c5fcad82ad,2024-10-02_02h51.40.158,mdp,2024.2.1,Win32,59.52380952,66fa4ebf79326e780c390304,,,,,,,,,,,,,,,,,,,,,965.5891,965.5891,965.591,966.9376,1,1,right,0.8252,,966.9399,968.2031,1,0,right,968.2051,969.4528,0,0,left,1,969.4529,969.4529,969.4548,970.9508,0,29,29,29,1,0.8,0.2,0.2,0.8,,,,,,,,,,,,,,,0.735,,0.2,0.8,0.2,0.8,0.4,0.6,0.6,0.4,,,0.713,,0.4,0.6,0.2,0.8,0.8,0.2,0.6,0.4,1,0
,,60db30cbbbee552378774e50,66fc97c457fa74c5fcad82ad,2024-10-02_02h51.40.158,mdp,2024.2.1,Win32,59.52380952,66fa4ebf79326e780c390304,,,,,,,,,,,,,,,,,,,,,970.9514,970.9514,970.9534,971.8504,1,1,right,0.3678,,971.8528,972.9828,0,0,left,972.9853,974.6147,0,0,left,1,974.6149,974.6149,974.6171,976.1134,0,30,30,30,1,0.8,0.2,0.2,0.8,,,,,,,,,,,,,,,0.609,,0.2,0.8,0.2,0.8,0.4,0.6,0.6,0.4,,,1.0993,,0.4,0.6,0.2,0.8,0.8,0.2,0.6,0.4,1,0
,,60db30cbbbee552378774e50,66fc97c457fa74c5fcad82ad,2024-10-02_02h51.40.158,mdp,2024.2.1,Win32,59.52380952,66fa4ebf79326e780c390304,,,,,,,,,,,,,,,,,,,,,976.1141,976.1141,976.1165,977.2126,0,1,left,0.571,,977.2145,978.9443,1,1,right,978.9461,980.21,1,1,right,0,980.2101,980.2101,980.2123,981.7093,0,31,31,31,1,0.8,0.2,0.2,0.8,,,,,,,,,,,,,,,1.2109,,0.2,0.8,0.2,0.8,0.4,0.6,0.6,0.4,,,0.7225,,0.4,0.6,0.2,0.8,0.8,0.2,0.6,0.4,1,0
,,60db30cbbbee552378774e50,66fc97c457fa74c5fcad82ad,2024-10-02_02h51.40.158,mdp,2024.2.1,Win32,59.52380952,66fa4ebf79326e780c390304,,,,,,,,,,,,,,,,,,,,,981.71,981.7101,981.7121,982.5963,1,1,right,0.3669,,982.5981,983.4621,0,1,left,983.4633,984.9941,0,0,left,1,984.9942,984.9942,984.9953,986.4885,0,32,32,32,1,0.8,0.2,0.2,0.8,,,,,,,,,,,,,,,0.350599999,,0.2,0.8,0.2,0.8,0.4,0.6,0.6,0.4,,,1.016799999,,0.4,0.6,0.2,0.8,0.8,0.2,0.6,0.4,1,0
,,60db30cbbbee552378774e50,66fc97c457fa74c5fcad82ad,2024-10-02_02h51.40.158,mdp,2024.2.1,Win32,59.52380952,66fa4ebf79326e780c390304,,,,,,,,,,,,,,,,,,,,,986.4891,986.4891,986.4909,987.288,0,1,left,0.2665,,987.2899,988.3371,0,0,left,988.3391,989.4861,1,1,right,0,989.4863,989.4863,989.4884,990.9853,0,33,33,33,1,0.8,0.2,0.2,0.8,,,,,,,,,,,,,,,0.526400001,,0.2,0.8,0.2,0.8,0.4,0.6,0.6,0.4,,,0.6103,,0.4,0.6,0.2,0.8,0.8,0.2,0.6,0.4,1,0
,,60db30cbbbee552378774e50,66fc97c457fa74c5fcad82ad,2024-10-02_02h51.40.158,mdp,2024.2.1,Win32,59.52380952,66fa4ebf79326e780c390304,,,,,,,,,,,,,,,,,,,,,990.9868,990.9869,990.9886,991.518,0,0,left,0.003,,991.52,992.334,0,1,left,992.3366,993.8496,1,0,right,1,993.8496,993.8496,993.852,995.3483,0,34,34,34,1,0.8,0.2,0.2,0.8,,,,,,,,,,,,,,,0.2667,,0.2,0.8,0.2,0.8,0.4,0.6,0.6,0.4,,,0.9763,,0.4,0.6,0.2,0.8,0.8,0.2,0.6,0.4,1,0
,,60db30cbbbee552378774e50,66fc97c457fa74c5fcad82ad,2024-10-02_02h51.40.158,mdp,2024.2.1,Win32,59.52380952,66fa4ebf79326e780c390304,,,,,,,,,,,,,,,,,,,,,995.3491,995.3491,995.351,996.1308,1,1,right,0.2598,,996.1323,997.1967,0,0,left,997.1989,998.2796,0,0,left,1,998.2796,998.2796,998.2815,999.7784,0,35,35,35,1,0.8,0.2,0.2,0.8,,,,,,,,,,,,,,,0.5253,,0.2,0.8,0.2,0.8,0.4,0.6,0.6,0.4,,,0.5417,,0.4,0.6,0.2,0.8,0.8,0.2,0.6,0.4,1,0
,,60db30cbbbee552378774e50,66fc97c457fa74c5fcad82ad,2024-10-02_02h51.40.158,mdp,2024.2.1,Win32,59.52380952,66fa4ebf79326e780c390304,,,,,,,,,,,,,,,,,,,,,999.7792,999.7792,999.781,1000.6111,0,0,left,0.3092,,1000.6141,1001.5436,1,1,right,1001.5456,1002.7762,1,0,right,1,1002.7763,1002.7763,1002.7782,1004.2786,0,36,36,36,1,0.8,0.2,0.2,0.8,,,,,,,,,,,,,,,0.392,,0.2,0.8,0.2,0.8,0.4,0.6,0.6,0.4,,,0.688700001,,0.4,0.6,0.2,0.8,0.8,0.2,0.6,0.4,1,0
,,60db30cbbbee552378774e50,66fc97c457fa74c5fcad82ad,2024-10-02_02h51.40.158,mdp,2024.2.1,Win32,59.52380952,66fa4ebf79326e780c390304,,,,,,,,,,,,,,,,,,,,,1004.2792,1004.2792,1004.2802,1005.0908,1,1,right,0.290900001,,1005.0932,1006.1067,0,1,left,1006.1086,1007.7051,1,1,right,0,1007.7053,1007.7053,1007.7079,1009.2044,0,37,37,37,1,0.8,0.2,0.2,0.8,,,,,,,,,,,,,,,0.4749,,0.2,0.8,0.2,0.8,0.4,0.6,0.6,0.4,,,1.075700001,,0.4,0.6,0.2,0.8,0.8,0.2,0.6,0.4,1,0
,,60db30cbbbee552378774e50,66fc97c457fa74c5fcad82ad,2024-10-02_02h51.40.158,mdp,2024.2.1,Win32,59.52380952,66fa4ebf79326e780c390304,,,,,,,,,,,,,,,,,,,,,1009.205,1009.2051,1009.2077,1009.8203,1,1,right,0.0886,,1009.8225,1010.8363,0,1,left,1010.8384,1012.2186,0,0,left,1,1012.2186,1012.2186,1012.2206,1013.7171,0,38,38,38,1,0.8,0.2,0.2,0.8,,,,,,,,,,,,,,,0.4865,,0.2,0.8,0.2,0.8,0.4,0.6,0.6,0.4,,,0.8577,,0.4,0.6,0.2,0.8,0.8,0.2,0.6,0.4,1,0
,,60db30cbbbee552378774e50,66fc97c457fa74c5fcad82ad,2024-10-02_02h51.40.158,mdp,2024.2.1,Win32,59.52380952,66fa4ebf79326e780c390304,,,,,,,,,,,,,,,,,,,,,1013.7177,1013.7177,1013.72,1014.5829,0,0,left,0.3391,,1014.5853,1016.0491,1,1,right,1016.0512,1017.964,0,1,left,0,1017.9641,1017.9641,1017.9664,1019.4624,0,39,39,39,1,0.8,0.2,0.2,0.8,,,,,,,,,,,,,,,0.917,,0.2,0.8,0.2,0.8,0.4,0.6,0.6,0.4,,,1.3885,,0.4,0.6,0.2,0.8,0.8,0.2,0.6,0.4,1,0
,,60db30cbbbee552378774e50,66fc97c457fa74c5fcad82ad,2024-10-02_02h51.40.158,mdp,2024.2.1,Win32,59.52380952,66fa4ebf79326e780c390304,,,,,,,,,,,,,,,,,,,,,1019.4634,1019.4634,1019.4653,1020.3788,1,1,right,0.3956,,1020.3809,1021.628,0,1,left,1021.6303,1022.7601,1,0,right,1,1022.7603,1022.7603,1022.7623,1024.2585,0,40,40,40,1,0.8,0.2,0.2,0.8,,,,,,,,,,,,,,,0.705,,0.4,0.6,0.6,0.4,0.4,0.6,0.6,0.4,,,0.601900001,,0.4,0.6,0.2,0.8,0.8,0.2,0.6,0.4,1,0
,,60db30cbbbee552378774e50,66fc97c457fa74c5fcad82ad,2024-10-02_02h51.40.158,mdp,2024.2.1,Win32,59.52380952,66fa4ebf79326e780c390304,,,,,,,,,,,,,,,,,,,,,1024.2594,1024.2594,1024.2614,1025.5077,0,0,left,0.718900001,,1025.5103,1026.5912,1,1,right,1026.5931,1027.9392,0,0,left,1,1027.9392,1027.9393,1027.9406,1029.4382,0,41,41,41,1,0.8,0.2,0.2,0.8,,,,,,,,,,,,,,,0.5461,,0.4,0.6,0.6,0.4,0.4,0.6,0.6,0.4,,,0.8205,,0.4,0.6,0.2,0.8,0.8,0.2,0.6,0.4,1,0
,,60db30cbbbee552378774e50,66fc97c457fa74c5fcad82ad,2024-10-02_02h51.40.158,mdp,2024.2.1,Win32,59.52380952,66fa4ebf79326e780c390304,,,,,,,,,,,,,,,,,,,,,1029.4392,1029.4392,1029.4408,1030.2042,1,1,right,0.2382,,1030.2061,1031.5195,0,1,left,1031.5206,1032.785,1,1,right,0,1032.7851,1032.7851,1032.7864,1034.2843,0,42,42,42,1,0.8,0.2,0.2,0.8,,,,,,,,,,,,,,,0.7787,,0.8,0.2,0.2,0.8,0.4,0.6,0.6,0.4,,,0.744299999,,0.4,0.6,0.2,0.8,0.8,0.2,0.6,0.4,1,0
,,60db30cbbbee552378774e50,66fc97c457fa74c5fcad82ad,2024-10-02_02h51.40.158,mdp,2024.2.1,Win32,59.52380952,66fa4ebf79326e780c390304,,,,,,,,,,,,,,,,,,,,,1034.2849,1034.2849,1034.2864,1035.0499,1,1,right,0.2445,,1035.0511,1035.9496,1,0,right,1035.9514,1036.982,0,1,left,0,1036.982,1036.982,1036.9835,1038.4814,0,43,43,43,1,0.8,0.2,0.2,0.8,,,,,,,,,,,,,,,0.3727,,0.8,0.2,0.2,0.8,0.4,0.6,0.6,0.4,,,0.5027,,0.4,0.6,0.2,0.8,0.8,0.2,0.6,0.4,1,0
,,60db30cbbbee552378774e50,66fc97c457fa74c5fcad82ad,2024-10-02_02h51.40.158,mdp,2024.2.1,Win32,59.52380952,66fa4ebf79326e780c390304,,,,,,,,,,,,,,,,,,,,,1038.4822,1038.4822,1038.4835,1039.5135,0,0,left,0.5064,,1039.5225,1040.3293,0,0,left,1040.3308,1041.4116,1,1,right,0,1041.4118,1041.4118,1041.4134,1042.9105,0,44,44,44,1,0.8,0.2,0.2,0.8,,,,,,,,,,,,,,,0.284900001,,0.8,0.2,0.2,0.8,0.4,0.6,0.6,0.4,,,0.5607,,0.4,0.6,0.2,0.8,0.6,0.4,0.4,0.6,1,0
,,60db30cbbbee552378774e50,66fc97c457fa74c5fcad82ad,2024-10-02_02h51.40.158,mdp,2024.2.1,Win32,59.52380952,66fa4ebf79326e780c390304,,,,,,,,,,,,,,,,,,,,,1042.9113,1042.9114,1042.9128,1043.7764,1,1,right,0.3417,,1043.7781,1044.726,0,0,left,1044.7286,1046.1624,1,1,right,0,1046.1625,1046.1625,1046.1636,1047.657,0,45,45,45,1,0.8,0.2,0.2,0.8,,,,,,,,,,,,,,,0.4078,,0.8,0.2,0.2,0.8,0.4,0.6,0.6,0.4,,,0.9025,,0.4,0.6,0.2,0.8,0.6,0.4,0.4,0.6,1,0
,,60db30cbbbee552378774e50,66fc97c457fa74c5fcad82ad,2024-10-02_02h51.40.158,mdp,2024.2.1,Win32,59.52380952,66fa4ebf79326e780c390304,,,,,,,,,,,,,,,,,,,,,1047.6577,1047.6577,1047.6595,1048.2562,1,1,right,0.0764,,1048.2585,1049.3892,1,0,right,1049.3916,1050.455,0,0,left,1,1050.4551,1050.4551,1050.457,1051.9535,0,46,46,46,1,0.8,0.2,0.2,0.8,,,,,,,,,,,,,,,0.606099999,,0.8,0.2,0.2,0.8,0.4,0.6,0.6,0.4,,,0.5431,,0.4,0.6,0.2,0.8,0.6,0.4,0.4,0.6,1,0
,,60db30cbbbee552378774e50,66fc97c457fa74c5fcad82ad,2024-10-02_02h51.40.158,mdp,2024.2.1,Win32,59.52380952,66fa4ebf79326e780c390304,,,,,,,,,,,,,,,,,,,,,1051.9543,1051.9543,1051.9563,1052.6198,1,1,right,0.1392,,1052.6219,1053.5687,1,1,right,1053.5713,1054.7017,0,0,left,1,1054.7018,1054.7018,1054.7037,1056.2004,0,47,47,47,1,0.8,0.2,0.2,0.8,,,,,,,,,,,,,,,0.4255,,0.8,0.2,0.2,0.8,0.4,0.6,0.6,0.4,,,0.5871,,0.4,0.6,0.2,0.8,0.6,0.4,0.4,0.6,1,0
,,60db30cbbbee552378774e50,66fc97c457fa74c5fcad82ad,2024-10-02_02h51.40.158,mdp,2024.2.1,Win32,59.52380952,66fa4ebf79326e780c390304,,,,,,,,,,,,,,,,,,,,,1056.201,1056.2011,1056.2033,1056.9831,1,1,right,0.2554,,1056.9851,1058.0157,1,0,right,1058.018,1059.565,0,1,left,0,1059.5653,1059.5653,1059.5669,1061.0665,0,48,48,48,1,0.8,0.2,0.2,0.8,,,,,,,,,,,,,,,0.5083,,0.8,0.2,0.2,0.8,0.4,0.6,0.6,0.4,,,1.005599999,,0.4,0.6,0.2,0.8,0.6,0.4,0.4,0.6,1,0
,,60db30cbbbee552378774e50,66fc97c457fa74c5fcad82ad,2024-10-02_02h51.40.158,mdp,2024.2.1,Win32,59.52380952,66fa4ebf79326e780c390304,,,,,,,,,,,,,,,,,,,,,1061.067,1061.067,1061.0681,1062.3622,0,0,left,0.7748,,1062.3642,1063.2613,1,0,right,1063.263,1064.294,1,0,right,1,1064.2942,1064.2942,1064.2964,1065.7927,0,49,49,49,1,0.8,0.2,0.2,0.8,,,,,,,,,,,,,,,0.360599999,,0.8,0.2,0.2,0.8,0.4,0.6,0.6,0.4,,,0.5077,,0.4,0.6,0.2,0.8,0.6,0.4,0.4,0.6,1,0
,,60db30cbbbee552378774e50,66fc97c457fa74c5fcad82ad,2024-10-02_02h51.40.158,mdp,2024.2.1,Win32,59.52380952,66fa4ebf79326e780c390304,,,,,,,,,,,,,,,,,,,,,,,,,,,,,,,,,,,,,,,,,,,,,,,,,,,,,,,,1065.793,1124.2988,0,3,3,3,1,imgs/giraffe.png,imgs/bear.png,imgs/pig.png,imgs/horse.png,imgs/kangaroo.png,,,,,,,,,,,,,,,,,,,,,,,,
,,60db30cbbbee552378774e50,66fc97c457fa74c5fcad82ad,2024-10-02_02h51.40.158,mdp,2024.2.1,Win32,59.52380952,66fa4ebf79326e780c390304,,,,,,,,,,,,,,1,seqs/st1seq22.csv,1124.3104,1128.0482,space,3.2151,,1128.0518,1128.0519,1128.0528,1131.0782,0,1,left,2.4988,,1131.0886,1131.0894,1,0,,1131.0908,1131.092,1,0,,0,1131.0922,1131.0922,1131.0936,1132.5901,0,0,0,0,1,0.4,0.6,0.6,0.4,1,0,,,,,,,,,,,,,,,,,,,,,,,,,,,,,,,,,,,,
,,60db30cbbbee552378774e50,66fc97c457fa74c5fcad82ad,2024-10-02_02h51.40.158,mdp,2024.2.1,Win32,59.52380952,66fa4ebf79326e780c390304,,,,,,,,,,,,,,,,,,,,,1132.5908,1132.5909,1132.593,1133.4389,1,1,right,0.316400001,,1133.4411,1133.4421,1,1,,1133.4427,1133.4434,1,0,,0,1133.4434,1133.4434,1133.444,1134.938,0,1,1,1,1,0.4,0.6,0.6,0.4,1,0,,,,,,,,,,,,,,,,,,,,,,,,,,,,,,,,,,,,
,,60db30cbbbee552378774e50,66fc97c457fa74c5fcad82ad,2024-10-02_02h51.40.158,mdp,2024.2.1,Win32,59.52380952,66fa4ebf79326e780c390304,,,,,,,,,,,,,,,,,,,,,1134.9387,1134.9387,1134.9418,1135.5206,1,0,right,0.0455,,1135.5227,1135.5239,1,0,,1135.5246,1135.5252,1,1,,1,1135.5252,1135.5252,1135.5258,1137.0195,0,2,2,2,1,0.4,0.6,0.6,0.4,1,0,,,,,,,,,,,,,,,,,,,,,,,,,,,,,,,,,,,,
,,60db30cbbbee552378774e50,66fc97c457fa74c5fcad82ad,2024-10-02_02h51.40.158,mdp,2024.2.1,Win32,59.52380952,66fa4ebf79326e780c390304,,,,,,,,,,,,,,,,,,,,,1137.0203,1137.0203,1137.022,1137.586,0,1,left,0.0339,,1137.5881,1137.589,1,0,,1137.5899,1137.5906,1,0,,0,1137.5906,1137.5906,1137.5911,1139.0846,0,3,3,3,1,0.8,0.2,0.8,0.2,1,0,,,,,,,,,,,,,,,,,,,,,,,,,,,,,,,,,,,,
,,60db30cbbbee552378774e50,66fc97c457fa74c5fcad82ad,2024-10-02_02h51.40.158,mdp,2024.2.1,Win32,59.52380952,66fa4ebf79326e780c390304,,,,,,,,,,,,,,,,,,,,,1139.0852,1139.0853,1139.0873,1139.701,1,0,right,0.0869,,1139.7029,1139.7039,1,0,,1139.7047,1139.7053,1,0,,1,1139.7053,1139.7054,1139.7059,1141.1998,0,4,4,4,1,0.8,0.2,0.8,0.2,1,0,,,,,,,,,,,,,,,,,,,,,,,,,,,,,,,,,,,,
,,60db30cbbbee552378774e50,66fc97c457fa74c5fcad82ad,2024-10-02_02h51.40.158,mdp,2024.2.1,Win32,59.52380952,66fa4ebf79326e780c390304,,,,,,,,,,,,,,,,,,,,,1141.2003,1141.2003,1141.2021,1142.2651,1,0,right,0.5392,,1142.2671,1142.2682,1,0,,1142.269,1142.2695,1,1,,1,1142.2696,1142.2696,1142.2701,1143.7641,0,5,5,5,1,0.8,0.2,0.8,0.2,1,0,,,,,,,,,,,,,,,,,,,,,,,,,,,,,,,,,,,,
,,60db30cbbbee552378774e50,66fc97c457fa74c5fcad82ad,2024-10-02_02h51.40.158,mdp,2024.2.1,Win32,59.52380952,66fa4ebf79326e780c390304,,,,,,,,,,,,,,,,,,,,,1143.7646,1143.7646,1143.7665,1144.5137,1,0,right,0.2239,,1144.5159,1144.5169,1,0,,1144.5177,1144.5183,1,0,,1,1144.5183,1144.5183,1144.5188,1146.0125,0,6,6,6,1,0.8,0.2,0.8,0.2,1,0,,,,,,,,,,,,,,,,,,,,,,,,,,,,,,,,,,,,
,,60db30cbbbee552378774e50,66fc97c457fa74c5fcad82ad,2024-10-02_02h51.40.158,mdp,2024.2.1,Win32,59.52380952,66fa4ebf79326e780c390304,,,,,,,,,,,,,,,,,,,,,1146.0131,1146.0132,1146.0148,1146.6326,1,1,right,0.100099999,,1146.6339,1146.6347,1,1,,1146.6354,1146.6361,1,0,,0,1146.6361,1146.6361,1146.6368,1148.1276,0,7,7,7,1,0.8,0.2,0.8,0.2,1,0,,,,,,,,,,,,,,,,,,,,,,,,,,,,,,,,,,,,
,,60db30cbbbee552378774e50,66fc97c457fa74c5fcad82ad,2024-10-02_02h51.40.158,mdp,2024.2.1,Win32,59.52380952,66fa4ebf79326e780c390304,,,,,,,,,,,,,,,,,,,,,1148.1283,1148.1283,1148.1301,1148.8268,0,1,left,0.1773,,1148.8288,1148.8298,1,0,,1148.8305,1148.8311,1,0,,0,1148.8312,1148.8312,1148.8316,1150.3257,0,8,8,8,1,0.8,0.2,0.8,0.2,1,0,,,,,,,,,,,,,,,,,,,,,,,,,,,,,,,,,,,,
,,60db30cbbbee552378774e50,66fc97c457fa74c5fcad82ad,2024-10-02_02h51.40.158,mdp,2024.2.1,Win32,59.52380952,66fa4ebf79326e780c390304,,,,,,,,,,,,,,,,,,,,,1150.3266,1150.3266,1150.3284,1151.3252,0,0,left,0.4746,,1151.3274,1151.3282,1,1,,1151.3289,1151.3295,1,1,,1,1151.3296,1151.3296,1151.3301,1152.8241,0,9,9,9,1,0.8,0.2,0.8,0.2,1,0,,,,,,,,,,,,,,,,,,,,,,,,,,,,,,,,,,,,
,,60db30cbbbee552378774e50,66fc97c457fa74c5fcad82ad,2024-10-02_02h51.40.158,mdp,2024.2.1,Win32,59.52380952,66fa4ebf79326e780c390304,,,,,,,,,,,,,,,,,,,,,1152.8247,1152.8247,1152.8267,1153.59,1,0,right,0.2395,,1153.5921,1153.5929,1,1,,1153.5939,1153.5957,1,0,,1,1153.5958,1153.5958,1153.5969,1155.0888,0,10,10,10,1,0.8,0.2,0.8,0.2,1,0,,,,,,,,,,,,,,,,,,,,,,,,,,,,,,,,,,,,
,,60db30cbbbee552378774e50,66fc97c457fa74c5fcad82ad,2024-10-02_02h51.40.158,mdp,2024.2.1,Win32,59.52380952,66fa4ebf79326e780c390304,,,,,,,,,,,,,,,,,,,,,1155.0893,1155.0893,1155.0914,1155.7216,0,0,left,0.1053,,1155.7237,1155.7247,1,1,,1155.7256,1155.7263,1,0,,1,1155.7264,1155.7264,1155.7269,1157.2206,0,11,11,11,1,0.8,0.2,0.8,0.2,1,0,,,,,,,,,,,,,,,,,,,,,,,,,,,,,,,,,,,,
,,60db30cbbbee552378774e50,66fc97c457fa74c5fcad82ad,2024-10-02_02h51.40.158,mdp,2024.2.1,Win32,59.52380952,66fa4ebf79326e780c390304,,,,,,,,,,,,,,,,,,,,,1157.2212,1157.2212,1157.2229,1157.7866,1,0,right,0.0415,,1157.7886,1157.7895,1,0,,1157.7907,1157.7914,1,0,,1,1157.7915,1157.7915,1157.7921,1159.2852,0,12,12,12,1,0.2,0.8,0.6,0.4,1,0,,,,,,,,,,,,,,,,,,,,,,,,,,,,,,,,,,,,
,,60db30cbbbee552378774e50,66fc97c457fa74c5fcad82ad,2024-10-02_02h51.40.158,mdp,2024.2.1,Win32,59.52380952,66fa4ebf79326e780c390304,,,,,,,,,,,,,,,,,,,,,1159.2858,1159.2858,1159.288,1160.0011,0,0,left,0.1857,,1160.0034,1160.0043,1,1,,1160.005,1160.0056,1,1,,1,1160.0057,1160.0057,1160.0061,1161.5004,0,13,13,13,1,0.2,0.8,0.6,0.4,1,0,,,,,,,,,,,,,,,,,,,,,,,,,,,,,,,,,,,,
,,60db30cbbbee552378774e50,66fc97c457fa74c5fcad82ad,2024-10-02_02h51.40.158,mdp,2024.2.1,Win32,59.52380952,66fa4ebf79326e780c390304,,,,,,,,,,,,,,,,,,,,,1161.501,1161.5011,1161.5028,1162.3327,1,0,right,0.3105,,1162.3351,1162.3361,1,0,,1162.3367,1162.3373,1,0,,1,1162.3373,1162.3373,1162.3378,1163.8354,0,14,14,14,1,0.2,0.8,0.6,0.4,1,0,,,,,,,,,,,,,,,,,,,,,,,,,,,,,,,,,,,,
,,60db30cbbbee552378774e50,66fc97c457fa74c5fcad82ad,2024-10-02_02h51.40.158,mdp,2024.2.1,Win32,59.52380952,66fa4ebf79326e780c390304,,,,,,,,,,,,,,,,,,,,,1163.8359,1163.8359,1163.837,1164.7811,0,0,left,0.4006,,1164.7833,1164.7844,1,1,,1164.7855,1164.7862,1,1,,1,1164.7863,1164.7863,1164.7869,1166.2796,0,15,15,15,1,0.2,0.8,0.6,0.4,1,0,,,,,,,,,,,,,,,,,,,,,,,,,,,,,,,,,,,,
,,60db30cbbbee552378774e50,66fc97c457fa74c5fcad82ad,2024-10-02_02h51.40.158,mdp,2024.2.1,Win32,59.52380952,66fa4ebf79326e780c390304,,,,,,,,,,,,,,,,,,,,,1166.2802,1166.2802,1166.2821,1167.4119,1,0,right,0.6103,,1167.4138,1167.4149,1,0,,1167.4155,1167.4161,1,1,,1,1167.4161,1167.4161,1167.4167,1168.9112,0,16,16,16,1,0.2,0.8,0.6,0.4,1,0,,,,,,,,,,,,,,,,,,,,,,,,,,,,,,,,,,,,
,,60db30cbbbee552378774e50,66fc97c457fa74c5fcad82ad,2024-10-02_02h51.40.158,mdp,2024.2.1,Win32,59.52380952,66fa4ebf79326e780c390304,,,,,,,,,,,,,,,,,,,,,1168.9118,1168.9118,1168.9138,1169.9434,0,0,left,0.500599999,,1169.9464,1169.9478,1,1,,1169.9486,1169.9493,1,0,,1,1169.9493,1169.9493,1169.9499,1171.4427,0,17,17,17,1,0.6,0.4,0.8,0.2,1,0,,,,,,,,,,,,,,,,,,,,,,,,,,,,,,,,,,,,
,,60db30cbbbee552378774e50,66fc97c457fa74c5fcad82ad,2024-10-02_02h51.40.158,mdp,2024.2.1,Win32,59.52380952,66fa4ebf79326e780c390304,,,,,,,,,,,,,,,,,,,,,1171.4433,1171.4433,1171.4451,1172.325,1,1,right,0.3591,,1172.3273,1172.3284,1,0,,1172.3298,1172.331,1,0,,0,1172.3311,1172.3311,1172.3321,1173.8237,0,18,18,18,1,0.6,0.4,0.8,0.2,1,0,,,,,,,,,,,,,,,,,,,,,,,,,,,,,,,,,,,,
,,60db30cbbbee552378774e50,66fc97c457fa74c5fcad82ad,2024-10-02_02h51.40.158,mdp,2024.2.1,Win32,59.52380952,66fa4ebf79326e780c390304,,,,,,,,,,,,,,,,,,,,,1173.8242,1173.8242,1173.8261,1174.6397,1,0,right,0.2875,,1174.6424,1174.6433,1,1,,1174.644,1174.6445,1,0,,1,1174.6445,1174.6445,1174.6451,1176.1386,0,19,19,19,1,0.6,0.4,0.8,0.2,1,0,,,,,,,,,,,,,,,,,,,,,,,,,,,,,,,,,,,,
,,60db30cbbbee552378774e50,66fc97c457fa74c5fcad82ad,2024-10-02_02h51.40.158,mdp,2024.2.1,Win32,59.52380952,66fa4ebf79326e780c390304,,,,,,,,,,,,,,,,,,,,,1176.1394,1176.1394,1176.1414,1177.1049,0,1,left,0.4342,,1177.1071,1177.1082,1,1,,1177.1089,1177.1096,1,0,,0,1177.1096,1177.1096,1177.1101,1178.6038,0,20,20,20,1,0.6,0.4,0.8,0.2,1,0,,,,,,,,,,,,,,,,,,,,,,,,,,,,,,,,,,,,
,,60db30cbbbee552378774e50,66fc97c457fa74c5fcad82ad,2024-10-02_02h51.40.158,mdp,2024.2.1,Win32,59.52380952,66fa4ebf79326e780c390304,,,,,,,,,,,,,,,,,,,,,1178.6047,1178.6048,1178.6064,1179.3531,1,0,right,0.2204,,1179.3556,1179.3564,1,0,,1179.3572,1179.3578,1,0,,1,1179.3579,1179.3579,1179.3584,1180.8515,0,21,21,21,1,0.6,0.4,0.8,0.2,1,0,,,,,,,,,,,,,,,,,,,,,,,,,,,,,,,,,,,,
,,60db30cbbbee552378774e50,66fc97c457fa74c5fcad82ad,2024-10-02_02h51.40.158,mdp,2024.2.1,Win32,59.52380952,66fa4ebf79326e780c390304,,,,,,,,,,,,,,,,,,,,,1180.8521,1180.8522,1180.8539,1181.4676,1,1,right,0.0956,,1181.4699,1181.471,1,0,,1181.4716,1181.4722,1,0,,0,1181.4722,1181.4722,1181.4727,1182.9667,0,22,22,22,1,0.6,0.4,0.8,0.2,1,0,,,,,,,,,,,,,,,,,,,,,,,,,,,,,,,,,,,,
,,60db30cbbbee552378774e50,66fc97c457fa74c5fcad82ad,2024-10-02_02h51.40.158,mdp,2024.2.1,Win32,59.52380952,66fa4ebf79326e780c390304,,,,,,,,,,,,,,,,,,,,,1182.9673,1182.9674,1182.9696,1183.699,1,1,right,0.2083,,1183.701,1183.7021,1,0,,1183.7027,1183.7033,1,0,,0,1183.7034,1183.7034,1183.7048,1185.1983,0,23,23,23,1,0.6,0.4,0.8,0.2,1,0,,,,,,,,,,,,,,,,,,,,,,,,,,,,,,,,,,,,
,,60db30cbbbee552378774e50,66fc97c457fa74c5fcad82ad,2024-10-02_02h51.40.158,mdp,2024.2.1,Win32,59.52380952,66fa4ebf79326e780c390304,,,,,,,,,,,,,,,,,,,,,1185.1989,1185.1989,1185.2009,1185.8311,1,1,right,0.1002,,1185.8331,1185.8342,1,1,,1185.835,1185.836,1,1,,0,1185.836,1185.836,1185.8366,1187.3299,0,24,24,24,1,0.8,0.2,0.2,0.8,1,0,,,,,,,,,,,,,,,,,,,,,,,,,,,,,,,,,,,,
,,60db30cbbbee552378774e50,66fc97c457fa74c5fcad82ad,2024-10-02_02h51.40.158,mdp,2024.2.1,Win32,59.52380952,66fa4ebf79326e780c390304,,,,,,,,,,,,,,,,,,,,,1187.3304,1187.3304,1187.3325,1188.0291,0,1,left,0.1675,,1188.0311,1188.0322,1,0,,1188.0331,1188.0337,1,0,,0,1188.0338,1188.0338,1188.0342,1189.5282,0,25,25,25,1,0.8,0.2,0.2,0.8,1,0,,,,,,,,,,,,,,,,,,,,,,,,,,,,,,,,,,,,
,,60db30cbbbee552378774e50,66fc97c457fa74c5fcad82ad,2024-10-02_02h51.40.158,mdp,2024.2.1,Win32,59.52380952,66fa4ebf79326e780c390304,,,,,,,,,,,,,,,,,,,,,1189.5287,1189.5287,1189.5307,1190.2605,1,1,right,0.1876,,1190.263,1190.2641,1,1,,1190.2648,1190.2655,1,1,,0,1190.2655,1190.2655,1190.266,1191.7598,0,26,26,26,1,0.8,0.2,0.2,0.8,1,0,,,,,,,,,,,,,,,,,,,,,,,,,,,,,,,,,,,,
,,60db30cbbbee552378774e50,66fc97c457fa74c5fcad82ad,2024-10-02_02h51.40.158,mdp,2024.2.1,Win32,59.52380952,66fa4ebf79326e780c390304,,,,,,,,,,,,,,,,,,,,,1191.7604,1191.7604,1191.7625,1192.8086,0,1,left,0.523099999,,1192.8107,1192.8117,1,0,,1192.8126,1192.8144,1,1,,0,1192.8146,1192.8146,1192.8157,1194.3076,0,27,27,27,1,0.8,0.2,0.2,0.8,1,0,,,,,,,,,,,,,,,,,,,,,,,,,,,,,,,,,,,,
,,60db30cbbbee552378774e50,66fc97c457fa74c5fcad82ad,2024-10-02_02h51.40.158,mdp,2024.2.1,Win32,59.52380952,66fa4ebf79326e780c390304,,,,,,,,,,,,,,,,,,,,,1194.3104,1194.3104,1194.3116,1195.1241,0,0,left,0.287599999,,1195.1263,1195.1271,1,1,,1195.1277,1195.1284,1,1,,1,1195.1285,1195.1285,1195.1293,1196.6226,0,28,28,28,1,0.8,0.2,0.2,0.8,1,0,,,,,,,,,,,,,,,,,,,,,,,,,,,,,,,,,,,,
,,60db30cbbbee552378774e50,66fc97c457fa74c5fcad82ad,2024-10-02_02h51.40.158,mdp,2024.2.1,Win32,59.52380952,66fa4ebf79326e780c390304,,,,,,,,,,,,,,,,,,,,,1196.6231,1196.6231,1196.625,1197.4261,1,1,right,0.2836,,1197.4273,1197.4281,1,1,,1197.4289,1197.4296,1,1,,0,1197.4297,1197.4297,1197.4302,1198.9206,0,29,29,29,1,0.8,0.2,0.2,0.8,1,0,,,,,,,,,,,,,,,,,,,,,,,,,,,,,,,,,,,,
,,60db30cbbbee552378774e50,66fc97c457fa74c5fcad82ad,2024-10-02_02h51.40.158,mdp,2024.2.1,Win32,59.52380952,66fa4ebf79326e780c390304,,,,,,,,,,,,,,,,,,,,,1198.921,1198.921,1198.9226,1199.5033,0,0,left,0.054700001,,1199.5059,1199.5068,1,0,,1199.5075,1199.508,1,0,,1,1199.508,1199.508,1199.5086,1201.0028,0,30,30,30,1,0.8,0.2,0.2,0.8,1,0,,,,,,,,,,,,,,,,,,,,,,,,,,,,,,,,,,,,
,,60db30cbbbee552378774e50,66fc97c457fa74c5fcad82ad,2024-10-02_02h51.40.158,mdp,2024.2.1,Win32,59.52380952,66fa4ebf79326e780c390304,,,,,,,,,,,,,,,,,,,,,1201.0036,1201.0036,1201.0053,1201.6019,1,1,right,0.0761,,1201.6041,1201.6048,1,1,,1201.6056,1201.606,1,0,,0,1201.6061,1201.6061,1201.6073,1203.1007,0,31,31,31,1,0.8,0.2,0.2,0.8,1,0,,,,,,,,,,,,,,,,,,,,,,,,,,,,,,,,,,,,
,,60db30cbbbee552378774e50,66fc97c457fa74c5fcad82ad,2024-10-02_02h51.40.158,mdp,2024.2.1,Win32,59.52380952,66fa4ebf79326e780c390304,,,,,,,,,,,,,,,,,,,,,1203.1013,1203.1014,1203.1034,1203.983,1,1,right,0.3521,,1203.9853,1203.9864,1,0,,1203.9873,1203.9881,1,1,,0,1203.9881,1203.9882,1203.9888,1205.4819,0,32,32,32,1,0.8,0.2,0.2,0.8,1,0,,,,,,,,,,,,,,,,,,,,,,,,,,,,,,,,,,,,
,,60db30cbbbee552378774e50,66fc97c457fa74c5fcad82ad,2024-10-02_02h51.40.158,mdp,2024.2.1,Win32,59.52380952,66fa4ebf79326e780c390304,,,,,,,,,,,,,,,,,,,,,1205.4825,1205.4826,1205.4845,1206.0982,0,0,left,0.0973,,1206.1005,1206.1013,1,0,,1206.1021,1206.1027,1,0,,1,1206.1027,1206.1027,1206.1033,1207.597,0,33,33,33,1,0.8,0.2,0.2,0.8,1,0,,,,,,,,,,,,,,,,,,,,,,,,,,,,,,,,,,,,
,,60db30cbbbee552378774e50,66fc97c457fa74c5fcad82ad,2024-10-02_02h51.40.158,mdp,2024.2.1,Win32,59.52380952,66fa4ebf79326e780c390304,,,,,,,,,,,,,,,,,,,,,1207.5975,1207.5975,1207.5994,1208.1801,0,1,left,0.0548,,1208.182,1208.1829,1,0,,1208.1837,1208.1843,1,1,,0,1208.1844,1208.1844,1208.185,1209.6789,0,34,34,34,1,0.8,0.2,0.2,0.8,1,0,,,,,,,,,,,,,,,,,,,,,,,,,,,,,,,,,,,,
,,60db30cbbbee552378774e50,66fc97c457fa74c5fcad82ad,2024-10-02_02h51.40.158,mdp,2024.2.1,Win32,59.52380952,66fa4ebf79326e780c390304,,,,,,,,,,,,,,,,,,,,,1209.6795,1209.6796,1209.6815,1210.2158,1,0,right,0.000700001,,1210.2171,1210.2179,1,1,,1210.2185,1210.2192,1,1,,1,1210.2192,1210.2192,1210.2199,1211.7145,0,35,35,35,1,0.8,0.2,0.2,0.8,1,0,,,,,,,,,,,,,,,,,,,,,,,,,,,,,,,,,,,,
,,60db30cbbbee552378774e50,66fc97c457fa74c5fcad82ad,2024-10-02_02h51.40.158,mdp,2024.2.1,Win32,59.52380952,66fa4ebf79326e780c390304,,,,,,,,,,,,,,,,,,,,,1211.715,1211.715,1211.7161,1212.4765,1,0,right,0.2335,,1212.4786,1212.4796,1,0,,1212.4803,1212.481,1,0,,1,1212.481,1212.481,1212.4816,1213.9755,0,36,36,36,1,0.4,0.6,0.6,0.4,1,0,,,,,,,,,,,,,,,,,,,,,,,,,,,,,,,,,,,,
,,60db30cbbbee552378774e50,66fc97c457fa74c5fcad82ad,2024-10-02_02h51.40.158,mdp,2024.2.1,Win32,59.52380952,66fa4ebf79326e780c390304,,,,,,,,,,,,,,,,,,,,,1213.9762,1213.9763,1213.978,1214.7752,1,1,right,0.2746,,1214.7774,1214.7782,1,0,,1214.779,1214.7795,1,0,,0,1214.7796,1214.7796,1214.7801,1216.2735,0,37,37,37,1,0.4,0.6,0.6,0.4,1,0,,,,,,,,,,,,,,,,,,,,,,,,,,,,,,,,,,,,
,,60db30cbbbee552378774e50,66fc97c457fa74c5fcad82ad,2024-10-02_02h51.40.158,mdp,2024.2.1,Win32,59.52380952,66fa4ebf79326e780c390304,,,,,,,,,,,,,,,,,,,,,1216.2743,1216.2744,1216.2764,1217.0608,0,0,left,0.267,,1217.0621,1217.0629,1,1,,1217.0637,1217.0644,1,1,,1,1217.0645,1217.0645,1217.0651,1218.555,0,38,38,38,1,0.4,0.6,0.6,0.4,1,0,,,,,,,,,,,,,,,,,,,,,,,,,,,,,,,,,,,,
,,60db30cbbbee552378774e50,66fc97c457fa74c5fcad82ad,2024-10-02_02h51.40.158,mdp,2024.2.1,Win32,59.52380952,66fa4ebf79326e780c390304,,,,,,,,,,,,,,,,,,,,,1218.5554,1218.5555,1218.5573,1219.2048,1,1,right,0.1182,,1219.2068,1219.2077,1,1,,1219.2084,1219.2093,1,1,,0,1219.2094,1219.2094,1219.2101,1220.7035,0,39,39,39,1,0.8,0.2,0.2,0.8,1,0,,,,,,,,,,,,,,,,,,,,,,,,,,,,,,,,,,,,
,,60db30cbbbee552378774e50,66fc97c457fa74c5fcad82ad,2024-10-02_02h51.40.158,mdp,2024.2.1,Win32,59.52380952,66fa4ebf79326e780c390304,,,,,,,,,,,,,,,,,,,,,1220.7044,1220.7045,1220.7065,1221.3531,0,0,left,0.1197,,1221.3553,1221.3561,1,1,,1221.3568,1221.3576,1,1,,1,1221.3576,1221.3576,1221.3584,1222.8519,0,40,40,40,1,0.8,0.2,0.2,0.8,1,0,,,,,,,,,,,,,,,,,,,,,,,,,,,,,,,,,,,,
