init_exp.started,init_exp.stopped,participant,session,date,expName,psychopyVersion,OS,frameRate,study_id,disp_instruction.started,disp_instruction.stopped,instruction.thisRepN,instruction.thisTrialN,instruction.thisN,instruction.thisIndex,instruction.ran,instimg_path,consent.started,consent.stopped,key_resp_3.keys,key_resp_3.rt,key_resp_3.duration,n_steps,sequence_path,init_block.started,init_block.stopped,key_resp.keys,key_resp.rt,key_resp.duration,init_trials.started,init_trials.stopped,step0.started,step0.stopped,act0,s1,res0.keys,res0.rt,res0.duration,step1.started,step1.stopped,act1,s2,res1.keys,step2.started,step2.stopped,act2,s3,res2.keys,rew,reward_comp.started,reward_comp.stopped,reward_disp.started,reward_disp.stopped,trials.thisRepN,trials.thisTrialN,trials.thisN,trials.thisIndex,trials.ran,s00a0s10,s00a0s11,s00a1s10,s00a1s11,rew10,rew11,break_block.started,break_block.stopped,block.thisRepN,block.thisTrialN,block.thisN,block.thisIndex,block.ran,s00path,s10path,s11path,s20path,s21path,res1.rt,res1.duration,s10a0s20,s10a0s21,s10a1s20,s10a1s21,s11a0s20,s11a0s21,s11a1s20,s11a1s21,rew20,rew21,res2.rt,res2.duration,s20a0s30,s20a0s31,s20a1s30,s20a1s31,s21a0s30,s21a0s31,s21a1s30,s21a1s31,rew30,rew31
0.001,0.002,60dc9eef1d2e18498fddb772,66fc998519a305dfc4632b01,2024-10-01_18h55.29.800,mdp,2024.2.1,Win32,500,66fa4ebf79326e780c390304,,,,,,,,,,,,,,,,,,,,,,,,,,,,,,,,,,,,,,,,,,,,,,,,,,,,,,,,,,,,,,,,,,,,,,,,,,,,,,,,,,,,,,,,,,,
,,60dc9eef1d2e18498fddb772,66fc998519a305dfc4632b01,2024-10-01_18h55.29.800,mdp,2024.2.1,Win32,500,66fa4ebf79326e780c390304,0.004,88.952,0,0,0,0,1,rlnn_exp/rlnn_exp.001.png,,,,,,,,,,,,,,,,,,,,,,,,,,,,,,,,,,,,,,,,,,,,,,,,,,,,,,,,,,,,,,,,,,,,,,,,,,,,,,,,,,,
,,60dc9eef1d2e18498fddb772,66fc998519a305dfc4632b01,2024-10-01_18h55.29.800,mdp,2024.2.1,Win32,500,66fa4ebf79326e780c390304,88.952,287.691,0,1,1,1,1,rlnn_exp/rlnn_exp.002.png,,,,,,,,,,,,,,,,,,,,,,,,,,,,,,,,,,,,,,,,,,,,,,,,,,,,,,,,,,,,,,,,,,,,,,,,,,,,,,,,,,,
,,60dc9eef1d2e18498fddb772,66fc998519a305dfc4632b01,2024-10-01_18h55.29.800,mdp,2024.2.1,Win32,500,66fa4ebf79326e780c390304,287.691,350.981,0,2,2,2,1,rlnn_exp/rlnn_exp.003.png,,,,,,,,,,,,,,,,,,,,,,,,,,,,,,,,,,,,,,,,,,,,,,,,,,,,,,,,,,,,,,,,,,,,,,,,,,,,,,,,,,,
,,60dc9eef1d2e18498fddb772,66fc998519a305dfc4632b01,2024-10-01_18h55.29.800,mdp,2024.2.1,Win32,500,66fa4ebf79326e780c390304,350.986,539.491,0,3,3,3,1,rlnn_exp/rlnn_exp.004.png,,,,,,,,,,,,,,,,,,,,,,,,,,,,,,,,,,,,,,,,,,,,,,,,,,,,,,,,,,,,,,,,,,,,,,,,,,,,,,,,,,,
,,60dc9eef1d2e18498fddb772,66fc998519a305dfc4632b01,2024-10-01_18h55.29.800,mdp,2024.2.1,Win32,500,66fa4ebf79326e780c390304,,,,,,,,,539.491,586.437,y,36.937,0.001,,,,,,,,,,,,,,,,,,,,,,,,,,,,,,,,,,,,,,,,,,,,,,,,,,,,,,,,,,,,,,,,,,,,,,,,,,,,,,
,,60dc9eef1d2e18498fddb772,66fc998519a305dfc4632b01,2024-10-01_18h55.29.800,mdp,2024.2.1,Win32,500,66fa4ebf79326e780c390304,,,,,,,,,,,,,,1,seqs/st1seq13.csv,586.445,591.537,space,4.589,,591.543,591.543,591.543,595.24,1,1,right,3.188,,595.244,595.245,,0,,595.245,595.246,,0,,0,595.246,595.246,595.246,596.744,0,0,0,0,1,0.8,0.2,0.6,0.4,1,0,,,,,,,,,,,,,,,,,,,,,,,,,,,,,,,,,,,,
,,60dc9eef1d2e18498fddb772,66fc998519a305dfc4632b01,2024-10-01_18h55.29.800,mdp,2024.2.1,Win32,500,66fa4ebf79326e780c390304,,,,,,,,,,,,,,,,,,,,,596.745,596.745,596.745,598.194,0,0,left,0.947,,598.194,598.194,,0,,598.194,598.195,,0,,1,598.195,598.195,598.195,599.695,0,1,1,1,1,0.8,0.2,0.6,0.4,1,0,,,,,,,,,,,,,,,,,,,,,,,,,,,,,,,,,,,,
,,60dc9eef1d2e18498fddb772,66fc998519a305dfc4632b01,2024-10-01_18h55.29.800,mdp,2024.2.1,Win32,500,66fa4ebf79326e780c390304,,,,,,,,,,,,,,,,,,,,,599.696,599.696,599.697,601.582,0,0,left,1.385,,601.583,601.583,,0,,601.584,601.584,,0,,1,601.584,601.584,601.584,603.084,0,2,2,2,1,0.8,0.2,0.6,0.4,1,0,,,,,,,,,,,,,,,,,,,,,,,,,,,,,,,,,,,,
,,60dc9eef1d2e18498fddb772,66fc998519a305dfc4632b01,2024-10-01_18h55.29.800,mdp,2024.2.1,Win32,500,66fa4ebf79326e780c390304,,,,,,,,,,,,,,,,,,,,,603.084,603.084,603.085,604.361,0,0,left,0.773,,604.361,604.361,,0,,604.362,604.363,,0,,1,604.363,604.363,604.363,605.863,0,3,3,3,1,0.8,0.2,0.6,0.4,1,0,,,,,,,,,,,,,,,,,,,,,,,,,,,,,,,,,,,,
,,60dc9eef1d2e18498fddb772,66fc998519a305dfc4632b01,2024-10-01_18h55.29.800,mdp,2024.2.1,Win32,500,66fa4ebf79326e780c390304,,,,,,,,,,,,,,,,,,,,,605.863,605.863,605.863,607.335,0,0,left,0.969,,607.336,607.336,,0,,607.336,607.336,,1,,1,607.336,607.336,607.337,608.834,0,4,4,4,1,0.8,0.2,0.6,0.4,1,0,,,,,,,,,,,,,,,,,,,,,,,,,,,,,,,,,,,,
,,60dc9eef1d2e18498fddb772,66fc998519a305dfc4632b01,2024-10-01_18h55.29.800,mdp,2024.2.1,Win32,500,66fa4ebf79326e780c390304,,,,,,,,,,,,,,,,,,,,,608.834,608.834,608.835,610.055,0,1,left,0.719,,610.056,610.056,,0,,610.057,610.057,,0,,0,610.057,610.057,610.057,611.555,0,5,5,5,1,0.8,0.2,0.6,0.4,1,0,,,,,,,,,,,,,,,,,,,,,,,,,,,,,,,,,,,,
,,60dc9eef1d2e18498fddb772,66fc998519a305dfc4632b01,2024-10-01_18h55.29.800,mdp,2024.2.1,Win32,500,66fa4ebf79326e780c390304,,,,,,,,,,,,,,,,,,,,,611.555,611.555,611.556,614.411,0,0,left,2.354,,614.412,614.413,,0,,614.413,614.413,,1,,1,614.413,614.413,614.413,615.913,0,6,6,6,1,0.8,0.2,0.6,0.4,1,0,,,,,,,,,,,,,,,,,,,,,,,,,,,,,,,,,,,,
,,60dc9eef1d2e18498fddb772,66fc998519a305dfc4632b01,2024-10-01_18h55.29.800,mdp,2024.2.1,Win32,500,66fa4ebf79326e780c390304,,,,,,,,,,,,,,,,,,,,,615.914,615.914,615.915,617.73,0,1,left,1.312,,617.731,617.731,,1,,617.732,617.732,,0,,0,617.732,617.732,617.732,619.233,0,7,7,7,1,0.4,0.6,0.8,0.2,1,0,,,,,,,,,,,,,,,,,,,,,,,,,,,,,,,,,,,,
,,60dc9eef1d2e18498fddb772,66fc998519a305dfc4632b01,2024-10-01_18h55.29.800,mdp,2024.2.1,Win32,500,66fa4ebf79326e780c390304,,,,,,,,,,,,,,,,,,,,,619.233,619.233,619.233,620.396,0,0,left,0.66,,620.396,620.396,,0,,620.397,620.397,,1,,1,620.397,620.397,620.397,621.897,0,8,8,8,1,0.6,0.4,0.4,0.6,1,0,,,,,,,,,,,,,,,,,,,,,,,,,,,,,,,,,,,,
,,60dc9eef1d2e18498fddb772,66fc998519a305dfc4632b01,2024-10-01_18h55.29.800,mdp,2024.2.1,Win32,500,66fa4ebf79326e780c390304,,,,,,,,,,,,,,,,,,,,,621.897,621.897,621.898,623.219,0,1,left,0.819,,623.22,623.22,,0,,623.22,623.221,,1,,0,623.221,623.221,623.221,624.721,0,9,9,9,1,0.6,0.4,0.4,0.6,1,0,,,,,,,,,,,,,,,,,,,,,,,,,,,,,,,,,,,,
,,60dc9eef1d2e18498fddb772,66fc998519a305dfc4632b01,2024-10-01_18h55.29.800,mdp,2024.2.1,Win32,500,66fa4ebf79326e780c390304,,,,,,,,,,,,,,,,,,,,,624.722,624.722,624.722,625.861,0,1,left,0.637,,625.863,625.863,,1,,625.863,625.864,,0,,0,625.864,625.864,625.864,627.364,0,10,10,10,1,0.6,0.4,0.4,0.6,1,0,,,,,,,,,,,,,,,,,,,,,,,,,,,,,,,,,,,,
,,60dc9eef1d2e18498fddb772,66fc998519a305dfc4632b01,2024-10-01_18h55.29.800,mdp,2024.2.1,Win32,500,66fa4ebf79326e780c390304,,,,,,,,,,,,,,,,,,,,,627.365,627.365,627.365,631.576,0,0,left,3.705,,631.58,631.58,,1,,631.582,631.582,,0,,1,631.582,631.582,631.582,633.081,0,11,11,11,1,0.6,0.4,0.4,0.6,1,0,,,,,,,,,,,,,,,,,,,,,,,,,,,,,,,,,,,,
,,60dc9eef1d2e18498fddb772,66fc998519a305dfc4632b01,2024-10-01_18h55.29.800,mdp,2024.2.1,Win32,500,66fa4ebf79326e780c390304,,,,,,,,,,,,,,,,,,,,,633.081,633.081,633.081,635.876,0,0,left,2.293,,635.877,635.877,,1,,635.878,635.878,,0,,1,635.878,635.878,635.878,637.376,0,12,12,12,1,0.6,0.4,0.4,0.6,1,0,,,,,,,,,,,,,,,,,,,,,,,,,,,,,,,,,,,,
,,60dc9eef1d2e18498fddb772,66fc998519a305dfc4632b01,2024-10-01_18h55.29.800,mdp,2024.2.1,Win32,500,66fa4ebf79326e780c390304,,,,,,,,,,,,,,,,,,,,,637.376,637.376,637.376,638.65,0,0,left,0.77,,638.651,638.651,,0,,638.651,638.651,,0,,1,638.651,638.651,638.651,640.149,0,13,13,13,1,0.8,0.2,0.8,0.2,1,0,,,,,,,,,,,,,,,,,,,,,,,,,,,,,,,,,,,,
,,60dc9eef1d2e18498fddb772,66fc998519a305dfc4632b01,2024-10-01_18h55.29.800,mdp,2024.2.1,Win32,500,66fa4ebf79326e780c390304,,,,,,,,,,,,,,,,,,,,,640.15,640.15,640.15,641.462,0,0,left,0.809,,641.463,641.463,,0,,641.463,641.464,,1,,1,641.464,641.464,641.464,642.962,0,14,14,14,1,0.2,0.8,0.6,0.4,1,0,,,,,,,,,,,,,,,,,,,,,,,,,,,,,,,,,,,,
,,60dc9eef1d2e18498fddb772,66fc998519a305dfc4632b01,2024-10-01_18h55.29.800,mdp,2024.2.1,Win32,500,66fa4ebf79326e780c390304,,,,,,,,,,,,,,,,,,,,,642.962,642.962,642.962,644.216,0,1,left,0.752,,644.217,644.217,,1,,644.217,644.218,,1,,0,644.218,644.218,644.218,645.718,0,15,15,15,1,0.2,0.8,0.6,0.4,1,0,,,,,,,,,,,,,,,,,,,,,,,,,,,,,,,,,,,,
,,60dc9eef1d2e18498fddb772,66fc998519a305dfc4632b01,2024-10-01_18h55.29.800,mdp,2024.2.1,Win32,500,66fa4ebf79326e780c390304,,,,,,,,,,,,,,,,,,,,,645.718,645.718,645.72,647.048,0,0,left,0.826,,647.049,647.049,,1,,647.049,647.049,,1,,1,647.049,647.049,647.05,648.548,0,16,16,16,1,0.2,0.8,0.6,0.4,1,0,,,,,,,,,,,,,,,,,,,,,,,,,,,,,,,,,,,,
,,60dc9eef1d2e18498fddb772,66fc998519a305dfc4632b01,2024-10-01_18h55.29.800,mdp,2024.2.1,Win32,500,66fa4ebf79326e780c390304,,,,,,,,,,,,,,,,,,,,,648.548,648.548,648.549,649.822,0,1,left,0.767,,649.823,649.823,,1,,649.823,649.823,,1,,0,649.823,649.823,649.824,651.321,0,17,17,17,1,0.2,0.8,0.6,0.4,1,0,,,,,,,,,,,,,,,,,,,,,,,,,,,,,,,,,,,,
,,60dc9eef1d2e18498fddb772,66fc998519a305dfc4632b01,2024-10-01_18h55.29.800,mdp,2024.2.1,Win32,500,66fa4ebf79326e780c390304,,,,,,,,,,,,,,,,,,,,,651.321,651.321,651.322,652.253,0,1,left,0.43,,652.253,652.254,,1,,652.254,652.254,,0,,0,652.254,652.254,652.254,653.753,0,18,18,18,1,0.2,0.8,0.6,0.4,1,0,,,,,,,,,,,,,,,,,,,,,,,,,,,,,,,,,,,,
,,60dc9eef1d2e18498fddb772,66fc998519a305dfc4632b01,2024-10-01_18h55.29.800,mdp,2024.2.1,Win32,500,66fa4ebf79326e780c390304,,,,,,,,,,,,,,,,,,,,,653.753,653.753,653.753,656.232,0,1,left,1.977,,656.234,656.234,,1,,656.234,656.234,,1,,0,656.234,656.234,656.234,657.733,0,19,19,19,1,0.2,0.8,0.6,0.4,1,0,,,,,,,,,,,,,,,,,,,,,,,,,,,,,,,,,,,,
,,60dc9eef1d2e18498fddb772,66fc998519a305dfc4632b01,2024-10-01_18h55.29.800,mdp,2024.2.1,Win32,500,66fa4ebf79326e780c390304,,,,,,,,,,,,,,,,,,,,,657.733,657.733,657.734,660.212,0,1,left,1.977,,660.212,660.212,,0,,660.213,660.213,,1,,0,660.214,660.214,660.214,661.714,0,20,20,20,1,0.2,0.8,0.6,0.4,1,0,,,,,,,,,,,,,,,,,,,,,,,,,,,,,,,,,,,,
,,60dc9eef1d2e18498fddb772,66fc998519a305dfc4632b01,2024-10-01_18h55.29.800,mdp,2024.2.1,Win32,500,66fa4ebf79326e780c390304,,,,,,,,,,,,,,,,,,,,,661.714,661.714,661.715,662.654,0,1,left,0.436,,662.655,662.655,,1,,662.655,662.656,,1,,0,662.656,662.656,662.656,664.154,0,21,21,21,1,0.2,0.8,0.6,0.4,1,0,,,,,,,,,,,,,,,,,,,,,,,,,,,,,,,,,,,,
,,60dc9eef1d2e18498fddb772,66fc998519a305dfc4632b01,2024-10-01_18h55.29.800,mdp,2024.2.1,Win32,500,66fa4ebf79326e780c390304,,,,,,,,,,,,,,,,,,,,,664.154,664.154,664.154,667.706,0,1,left,3.049,,667.712,667.712,,1,,667.712,667.712,,1,,0,667.712,667.712,667.712,669.211,0,22,22,22,1,0.2,0.8,0.6,0.4,1,0,,,,,,,,,,,,,,,,,,,,,,,,,,,,,,,,,,,,
,,60dc9eef1d2e18498fddb772,66fc998519a305dfc4632b01,2024-10-01_18h55.29.800,mdp,2024.2.1,Win32,500,66fa4ebf79326e780c390304,,,,,,,,,,,,,,,,,,,,,669.211,669.211,669.212,671.818,1,0,right,2.104,,671.818,671.819,,0,,671.819,671.819,,0,,1,671.819,671.819,671.819,673.318,0,23,23,23,1,0.2,0.8,0.6,0.4,1,0,,,,,,,,,,,,,,,,,,,,,,,,,,,,,,,,,,,,
,,60dc9eef1d2e18498fddb772,66fc998519a305dfc4632b01,2024-10-01_18h55.29.800,mdp,2024.2.1,Win32,500,66fa4ebf79326e780c390304,,,,,,,,,,,,,,,,,,,,,673.318,673.318,673.318,674.789,1,0,right,0.969,,674.789,674.789,,0,,674.79,674.79,,0,,1,674.79,674.79,674.79,676.291,0,24,24,24,1,0.6,0.4,0.2,0.8,1,0,,,,,,,,,,,,,,,,,,,,,,,,,,,,,,,,,,,,
,,60dc9eef1d2e18498fddb772,66fc998519a305dfc4632b01,2024-10-01_18h55.29.800,mdp,2024.2.1,Win32,500,66fa4ebf79326e780c390304,,,,,,,,,,,,,,,,,,,,,676.291,676.291,676.292,677.621,1,1,right,0.828,,677.622,677.622,,1,,677.622,677.622,,0,,0,677.622,677.622,677.622,679.123,0,25,25,25,1,0.8,0.2,0.4,0.6,1,0,,,,,,,,,,,,,,,,,,,,,,,,,,,,,,,,,,,,
,,60dc9eef1d2e18498fddb772,66fc998519a305dfc4632b01,2024-10-01_18h55.29.800,mdp,2024.2.1,Win32,500,66fa4ebf79326e780c390304,,,,,,,,,,,,,,,,,,,,,679.123,679.123,679.124,688.033,1,1,right,8.407,,688.039,688.04,,1,,688.041,688.041,,1,,0,688.041,688.041,688.041,689.541,0,26,26,26,1,0.8,0.2,0.4,0.6,1,0,,,,,,,,,,,,,,,,,,,,,,,,,,,,,,,,,,,,
,,60dc9eef1d2e18498fddb772,66fc998519a305dfc4632b01,2024-10-01_18h55.29.800,mdp,2024.2.1,Win32,500,66fa4ebf79326e780c390304,,,,,,,,,,,,,,,,,,,,,689.542,689.542,689.542,691.176,0,0,left,1.132,,691.177,691.178,,0,,691.178,691.179,,0,,1,691.179,691.179,691.179,692.679,0,27,27,27,1,0.8,0.2,0.4,0.6,1,0,,,,,,,,,,,,,,,,,,,,,,,,,,,,,,,,,,,,
,,60dc9eef1d2e18498fddb772,66fc998519a305dfc4632b01,2024-10-01_18h55.29.800,mdp,2024.2.1,Win32,500,66fa4ebf79326e780c390304,,,,,,,,,,,,,,,,,,,,,692.679,692.679,692.679,693.914,0,0,left,0.731,,693.915,693.915,,1,,693.916,693.916,,0,,1,693.916,693.916,693.916,695.416,0,28,28,28,1,0.8,0.2,0.4,0.6,1,0,,,,,,,,,,,,,,,,,,,,,,,,,,,,,,,,,,,,
,,60dc9eef1d2e18498fddb772,66fc998519a305dfc4632b01,2024-10-01_18h55.29.800,mdp,2024.2.1,Win32,500,66fa4ebf79326e780c390304,,,,,,,,,,,,,,,,,,,,,695.417,695.417,695.417,696.593,0,1,left,0.674,,696.593,696.594,,1,,696.594,696.594,,0,,0,696.594,696.594,696.595,698.093,0,29,29,29,1,0.2,0.8,0.6,0.4,1,0,,,,,,,,,,,,,,,,,,,,,,,,,,,,,,,,,,,,
,,60dc9eef1d2e18498fddb772,66fc998519a305dfc4632b01,2024-10-01_18h55.29.800,mdp,2024.2.1,Win32,500,66fa4ebf79326e780c390304,,,,,,,,,,,,,,,,,,,,,698.093,698.093,698.093,698.958,0,1,left,0.363,,698.958,698.958,,1,,698.958,698.959,,1,,0,698.959,698.959,698.959,700.457,0,30,30,30,1,0.2,0.8,0.6,0.4,1,0,,,,,,,,,,,,,,,,,,,,,,,,,,,,,,,,,,,,
,,60dc9eef1d2e18498fddb772,66fc998519a305dfc4632b01,2024-10-01_18h55.29.800,mdp,2024.2.1,Win32,500,66fa4ebf79326e780c390304,,,,,,,,,,,,,,,,,,,,,700.457,700.457,700.458,701.175,0,1,left,0.216,,701.175,701.176,,1,,701.176,701.177,,0,,0,701.177,701.177,701.177,702.674,0,31,31,31,1,0.2,0.8,0.6,0.4,1,0,,,,,,,,,,,,,,,,,,,,,,,,,,,,,,,,,,,,
,,60dc9eef1d2e18498fddb772,66fc998519a305dfc4632b01,2024-10-01_18h55.29.800,mdp,2024.2.1,Win32,500,66fa4ebf79326e780c390304,,,,,,,,,,,,,,,,,,,,,702.674,702.674,702.675,704.121,0,1,left,0.943,,704.121,704.122,,1,,704.122,704.122,,1,,0,704.122,704.122,704.122,705.623,0,32,32,32,1,0.2,0.8,0.6,0.4,1,0,,,,,,,,,,,,,,,,,,,,,,,,,,,,,,,,,,,,
,,60dc9eef1d2e18498fddb772,66fc998519a305dfc4632b01,2024-10-01_18h55.29.800,mdp,2024.2.1,Win32,500,66fa4ebf79326e780c390304,,,,,,,,,,,,,,,,,,,,,705.623,705.623,705.623,706.385,0,0,left,0.258,,706.385,706.386,,1,,706.387,706.387,,1,,1,706.387,706.387,706.387,707.887,0,33,33,33,1,0.2,0.8,0.6,0.4,1,0,,,,,,,,,,,,,,,,,,,,,,,,,,,,,,,,,,,,
,,60dc9eef1d2e18498fddb772,66fc998519a305dfc4632b01,2024-10-01_18h55.29.800,mdp,2024.2.1,Win32,500,66fa4ebf79326e780c390304,,,,,,,,,,,,,,,,,,,,,707.887,707.887,707.888,708.624,0,1,left,0.234,,708.625,708.625,,0,,708.626,708.627,,1,,0,708.627,708.627,708.627,710.126,0,34,34,34,1,0.2,0.8,0.6,0.4,1,0,,,,,,,,,,,,,,,,,,,,,,,,,,,,,,,,,,,,
,,60dc9eef1d2e18498fddb772,66fc998519a305dfc4632b01,2024-10-01_18h55.29.800,mdp,2024.2.1,Win32,500,66fa4ebf79326e780c390304,,,,,,,,,,,,,,,,,,,,,710.127,710.127,710.127,710.742,1,0,right,0.112,,710.742,710.743,,0,,710.743,710.743,,1,,1,710.743,710.743,710.744,712.241,0,35,35,35,1,0.2,0.8,0.6,0.4,1,0,,,,,,,,,,,,,,,,,,,,,,,,,,,,,,,,,,,,
,,60dc9eef1d2e18498fddb772,66fc998519a305dfc4632b01,2024-10-01_18h55.29.800,mdp,2024.2.1,Win32,500,66fa4ebf79326e780c390304,,,,,,,,,,,,,,,,,,,,,712.241,712.241,712.241,713.209,1,0,right,0.465,,713.209,713.211,,1,,713.211,713.211,,1,,1,713.211,713.211,713.211,714.711,0,36,36,36,1,0.8,0.2,0.4,0.6,1,0,,,,,,,,,,,,,,,,,,,,,,,,,,,,,,,,,,,,
,,60dc9eef1d2e18498fddb772,66fc998519a305dfc4632b01,2024-10-01_18h55.29.800,mdp,2024.2.1,Win32,500,66fa4ebf79326e780c390304,,,,,,,,,,,,,,,,,,,,,714.711,714.711,714.713,715.685,1,1,right,0.472,,715.685,715.686,,1,,715.686,715.687,,0,,0,715.687,715.687,715.687,717.187,0,37,37,37,1,0.8,0.2,0.4,0.6,1,0,,,,,,,,,,,,,,,,,,,,,,,,,,,,,,,,,,,,
,,60dc9eef1d2e18498fddb772,66fc998519a305dfc4632b01,2024-10-01_18h55.29.800,mdp,2024.2.1,Win32,500,66fa4ebf79326e780c390304,,,,,,,,,,,,,,,,,,,,,717.188,717.188,717.188,718.306,1,1,right,0.616,,718.306,718.307,,1,,718.307,718.307,,0,,0,718.307,718.307,718.307,719.805,0,38,38,38,1,0.8,0.2,0.4,0.6,1,0,,,,,,,,,,,,,,,,,,,,,,,,,,,,,,,,,,,,
,,60dc9eef1d2e18498fddb772,66fc998519a305dfc4632b01,2024-10-01_18h55.29.800,mdp,2024.2.1,Win32,500,66fa4ebf79326e780c390304,,,,,,,,,,,,,,,,,,,,,719.805,719.805,719.806,720.704,0,0,left,0.397,,720.704,720.705,,1,,720.705,720.705,,1,,1,720.705,720.705,720.705,722.203,0,39,39,39,1,0.8,0.2,0.4,0.6,1,0,,,,,,,,,,,,,,,,,,,,,,,,,,,,,,,,,,,,
,,60dc9eef1d2e18498fddb772,66fc998519a305dfc4632b01,2024-10-01_18h55.29.800,mdp,2024.2.1,Win32,500,66fa4ebf79326e780c390304,,,,,,,,,,,,,,,,,,,,,722.203,722.203,722.204,723.177,0,1,left,0.471,,723.177,723.177,,0,,723.178,723.178,,1,,0,723.178,723.178,723.178,724.676,0,40,40,40,1,0.8,0.2,0.4,0.6,1,0,,,,,,,,,,,,,,,,,,,,,,,,,,,,,,,,,,,,
,,60dc9eef1d2e18498fddb772,66fc998519a305dfc4632b01,2024-10-01_18h55.29.800,mdp,2024.2.1,Win32,500,66fa4ebf79326e780c390304,,,,,,,,,,,,,,,,,,,,,724.676,724.676,724.676,725.692,0,1,left,0.512,,725.692,725.692,,0,,725.692,725.693,,1,,0,725.693,725.693,725.693,727.193,0,41,41,41,1,0.8,0.2,0.4,0.6,1,0,,,,,,,,,,,,,,,,,,,,,,,,,,,,,,,,,,,,
,,60dc9eef1d2e18498fddb772,66fc998519a305dfc4632b01,2024-10-01_18h55.29.800,mdp,2024.2.1,Win32,500,66fa4ebf79326e780c390304,,,,,,,,,,,,,,,,,,,,,727.193,727.193,727.195,728.289,0,1,left,0.592,,728.29,728.29,,0,,728.29,728.29,,0,,0,728.29,728.29,728.291,729.789,0,42,42,42,1,0.6,0.4,0.6,0.4,1,0,,,,,,,,,,,,,,,,,,,,,,,,,,,,,,,,,,,,
,,60dc9eef1d2e18498fddb772,66fc998519a305dfc4632b01,2024-10-01_18h55.29.800,mdp,2024.2.1,Win32,500,66fa4ebf79326e780c390304,,,,,,,,,,,,,,,,,,,,,729.789,729.789,729.79,730.596,1,1,right,0.306,,730.597,730.597,,1,,730.597,730.597,,1,,0,730.597,730.597,730.597,732.095,0,43,43,43,1,0.8,0.2,0.2,0.8,1,0,,,,,,,,,,,,,,,,,,,,,,,,,,,,,,,,,,,,
,,60dc9eef1d2e18498fddb772,66fc998519a305dfc4632b01,2024-10-01_18h55.29.800,mdp,2024.2.1,Win32,500,66fa4ebf79326e780c390304,,,,,,,,,,,,,,,,,,,,,732.095,732.095,732.096,732.757,1,1,right,0.16,,732.758,732.759,,1,,732.759,732.759,,1,,0,732.759,732.759,732.759,734.257,0,44,44,44,1,0.8,0.2,0.2,0.8,1,0,,,,,,,,,,,,,,,,,,,,,,,,,,,,,,,,,,,,
,,60dc9eef1d2e18498fddb772,66fc998519a305dfc4632b01,2024-10-01_18h55.29.800,mdp,2024.2.1,Win32,500,66fa4ebf79326e780c390304,,,,,,,,,,,,,,,,,,,,,734.257,734.257,734.257,735.57,0,0,left,0.811,,735.57,735.57,,0,,735.571,735.571,,0,,1,735.571,735.571,735.571,737.069,0,45,45,45,1,0.8,0.2,0.2,0.8,1,0,,,,,,,,,,,,,,,,,,,,,,,,,,,,,,,,,,,,
,,60dc9eef1d2e18498fddb772,66fc998519a305dfc4632b01,2024-10-01_18h55.29.800,mdp,2024.2.1,Win32,500,66fa4ebf79326e780c390304,,,,,,,,,,,,,,,,,,,,,737.069,737.069,737.07,737.845,0,0,left,0.273,,737.845,737.846,,0,,737.847,737.847,,1,,1,737.847,737.847,737.847,739.346,0,46,46,46,1,0.8,0.2,0.2,0.8,1,0,,,,,,,,,,,,,,,,,,,,,,,,,,,,,,,,,,,,
,,60dc9eef1d2e18498fddb772,66fc998519a305dfc4632b01,2024-10-01_18h55.29.800,mdp,2024.2.1,Win32,500,66fa4ebf79326e780c390304,,,,,,,,,,,,,,,,,,,,,739.346,739.346,739.346,740.275,0,0,left,0.426,,740.276,740.276,,0,,740.276,740.276,,0,,1,740.276,740.276,740.277,741.776,0,47,47,47,1,0.8,0.2,0.2,0.8,1,0,,,,,,,,,,,,,,,,,,,,,,,,,,,,,,,,,,,,
,,60dc9eef1d2e18498fddb772,66fc998519a305dfc4632b01,2024-10-01_18h55.29.800,mdp,2024.2.1,Win32,500,66fa4ebf79326e780c390304,,,,,,,,,,,,,,,,,,,,,741.776,741.776,741.776,742.566,0,0,left,0.287,,742.566,742.566,,0,,742.567,742.567,,0,,1,742.567,742.567,742.567,744.066,0,48,48,48,1,0.8,0.2,0.2,0.8,1,0,,,,,,,,,,,,,,,,,,,,,,,,,,,,,,,,,,,,
,,60dc9eef1d2e18498fddb772,66fc998519a305dfc4632b01,2024-10-01_18h55.29.800,mdp,2024.2.1,Win32,500,66fa4ebf79326e780c390304,,,,,,,,,,,,,,,,,,,,,744.066,744.066,744.066,744.759,0,0,left,0.189,,744.76,744.761,,0,,744.761,744.761,,0,,1,744.761,744.761,744.761,746.26,0,49,49,49,1,0.8,0.2,0.2,0.8,1,0,,,,,,,,,,,,,,,,,,,,,,,,,,,,,,,,,,,,
,,60dc9eef1d2e18498fddb772,66fc998519a305dfc4632b01,2024-10-01_18h55.29.800,mdp,2024.2.1,Win32,500,66fa4ebf79326e780c390304,,,,,,,,,,,,,,,,,,,,,,,,,,,,,,,,,,,,,,,,,,,,,,,,,,,,,,,,746.261,804.763,0,0,0,1,1,imgs/lion.png,imgs/dog.png,imgs/elephant.png,imgs/giraffe.png,imgs/kangaroo.png,,,,,,,,,,,,,,,,,,,,,,,,
,,60dc9eef1d2e18498fddb772,66fc998519a305dfc4632b01,2024-10-01_18h55.29.800,mdp,2024.2.1,Win32,500,66fa4ebf79326e780c390304,,,,,,,,,,,,,,2,seqs/st2seq6.csv,804.77,807.409,space,2.138,0,807.411,807.411,807.411,810.791,1,1,right,2.873,,810.796,823.38,1,1,right,823.386,823.386,,1,,0,823.386,823.386,823.386,824.887,0,0,0,0,1,0.8,0.2,0.6,0.4,,,,,,,,,,,,,,,12.084,,0.6,0.4,0.6,0.4,0.4,0.6,0.4,0.6,1,0,,,,,,,,,,,,
,,60dc9eef1d2e18498fddb772,66fc998519a305dfc4632b01,2024-10-01_18h55.29.800,mdp,2024.2.1,Win32,500,66fa4ebf79326e780c390304,,,,,,,,,,,,,,,,,,,,,824.887,824.887,824.888,836.077,1,1,right,10.687,,836.082,842.523,0,0,left,842.528,842.529,,0,,1,842.529,842.529,842.529,844.029,0,1,1,1,1,0.8,0.2,0.6,0.4,,,,,,,,,,,,,,,5.94,0.001,0.6,0.4,0.6,0.4,0.4,0.6,0.4,0.6,1,0,,,,,,,,,,,,
,,60dc9eef1d2e18498fddb772,66fc998519a305dfc4632b01,2024-10-01_18h55.29.800,mdp,2024.2.1,Win32,500,66fa4ebf79326e780c390304,,,,,,,,,,,,,,,,,,,,,844.029,844.029,844.029,853.506,1,0,right,8.976,,853.511,882.723,1,0,right,882.728,882.729,,0,,1,882.729,882.729,882.729,884.227,0,2,2,2,1,0.8,0.2,0.6,0.4,,,,,,,,,,,,,,,28.712,0,0.6,0.4,0.6,0.4,0.4,0.6,0.4,0.6,1,0,,,,,,,,,,,,
,,60dc9eef1d2e18498fddb772,66fc998519a305dfc4632b01,2024-10-01_18h55.29.800,mdp,2024.2.1,Win32,500,66fa4ebf79326e780c390304,,,,,,,,,,,,,,,,,,,,,884.227,884.227,884.227,890.394,1,1,right,5.662,,890.399,896.692,0,1,left,896.697,896.697,,0,,0,896.697,896.697,896.698,898.197,0,3,3,3,1,0.8,0.2,0.6,0.4,,,,,,,,,,,,,,,5.793,0,0.6,0.4,0.6,0.4,0.4,0.6,0.4,0.6,1,0,,,,,,,,,,,,
,,60dc9eef1d2e18498fddb772,66fc998519a305dfc4632b01,2024-10-01_18h55.29.800,mdp,2024.2.1,Win32,500,66fa4ebf79326e780c390304,,,,,,,,,,,,,,,,,,,,,898.197,898.197,898.198,907.586,1,1,right,8.887,,907.591,910.876,0,0,left,910.877,910.877,,1,,1,910.878,910.878,910.878,912.378,0,4,4,4,1,0.8,0.2,0.6,0.4,,,,,,,,,,,,,,,2.788,,0.6,0.4,0.6,0.4,0.4,0.6,0.4,0.6,1,0,,,,,,,,,,,,
,,60dc9eef1d2e18498fddb772,66fc998519a305dfc4632b01,2024-10-01_18h55.29.800,mdp,2024.2.1,Win32,500,66fa4ebf79326e780c390304,,,,,,,,,,,,,,,,,,,,,912.379,912.379,912.379,917.297,1,0,right,4.416,,917.302,920.627,1,0,right,920.632,920.632,,0,,1,920.632,920.632,920.632,922.132,0,5,5,5,1,0.4,0.6,0.8,0.2,,,,,,,,,,,,,,,2.825,,0.6,0.4,0.6,0.4,0.4,0.6,0.4,0.6,1,0,,,,,,,,,,,,
,,60dc9eef1d2e18498fddb772,66fc998519a305dfc4632b01,2024-10-01_18h55.29.800,mdp,2024.2.1,Win32,500,66fa4ebf79326e780c390304,,,,,,,,,,,,,,,,,,,,,922.132,922.132,922.132,926.564,1,0,right,3.93,,926.569,928.881,1,1,right,928.882,928.882,,0,,0,928.882,928.882,928.882,930.38,0,6,6,6,1,0.4,0.6,0.8,0.2,,,,,,,,,,,,,,,1.816,,0.6,0.4,0.6,0.4,0.6,0.4,0.6,0.4,1,0,,,,,,,,,,,,
,,60dc9eef1d2e18498fddb772,66fc998519a305dfc4632b01,2024-10-01_18h55.29.800,mdp,2024.2.1,Win32,500,66fa4ebf79326e780c390304,,,,,,,,,,,,,,,,,,,,,930.38,930.38,930.381,934.094,1,0,right,3.211,,934.099,936.514,1,1,right,936.515,936.516,,0,,0,936.516,936.516,936.516,938.016,0,7,7,7,1,0.4,0.6,0.8,0.2,,,,,,,,,,,,,,,1.917,,0.2,0.8,0.4,0.6,0.6,0.4,0.6,0.4,1,0,,,,,,,,,,,,
,,60dc9eef1d2e18498fddb772,66fc998519a305dfc4632b01,2024-10-01_18h55.29.800,mdp,2024.2.1,Win32,500,66fa4ebf79326e780c390304,,,,,,,,,,,,,,,,,,,,,938.016,938.016,938.017,943.19,1,0,right,4.672,,943.196,945.069,1,0,right,945.069,945.069,,1,,1,945.069,945.069,945.07,946.568,0,8,8,8,1,0.4,0.6,0.8,0.2,,,,,,,,,,,,,,,1.373,,0.2,0.8,0.4,0.6,0.6,0.4,0.6,0.4,1,0,,,,,,,,,,,,
,,60dc9eef1d2e18498fddb772,66fc998519a305dfc4632b01,2024-10-01_18h55.29.800,mdp,2024.2.1,Win32,500,66fa4ebf79326e780c390304,,,,,,,,,,,,,,,,,,,,,946.568,946.568,946.569,949.416,1,0,right,2.345,,949.417,950.721,1,1,right,950.722,950.722,,0,,0,950.722,950.722,950.722,952.22,0,9,9,9,1,0.4,0.6,0.8,0.2,,,,,,,,,,,,,,,0.801,,0.2,0.8,0.4,0.6,0.6,0.4,0.6,0.4,1,0,,,,,,,,,,,,
,,60dc9eef1d2e18498fddb772,66fc998519a305dfc4632b01,2024-10-01_18h55.29.800,mdp,2024.2.1,Win32,500,66fa4ebf79326e780c390304,,,,,,,,,,,,,,,,,,,,,952.22,952.22,952.221,957.002,1,0,right,4.279,0,957.008,970.066,1,1,right,970.072,970.073,,1,,0,970.073,970.073,970.073,971.571,0,10,10,10,1,0.4,0.6,0.8,0.2,,,,,,,,,,,,,,,12.56,0,0.2,0.8,0.4,0.6,0.6,0.4,0.6,0.4,1,0,,,,,,,,,,,,
,,60dc9eef1d2e18498fddb772,66fc998519a305dfc4632b01,2024-10-01_18h55.29.800,mdp,2024.2.1,Win32,500,66fa4ebf79326e780c390304,,,,,,,,,,,,,,,,,,,,,971.571,971.571,971.572,974.946,0,1,left,2.869,,974.951,989.364,1,0,right,989.369,989.369,,1,,1,989.369,989.369,989.37,990.868,0,11,11,11,1,0.4,0.6,0.8,0.2,,,,,,,,,,,,,,,13.913,0,0.2,0.8,0.4,0.6,0.6,0.4,0.6,0.4,1,0,,,,,,,,,,,,
,,60dc9eef1d2e18498fddb772,66fc998519a305dfc4632b01,2024-10-01_18h55.29.800,mdp,2024.2.1,Win32,500,66fa4ebf79326e780c390304,,,,,,,,,,,,,,,,,,,,,990.869,990.869,990.869,997.22,0,0,left,5.846,,997.225,1007.35,1,1,right,1007.355,1007.356,,0,,0,1007.356,1007.356,1007.356,1008.856,0,12,12,12,1,0.4,0.6,0.8,0.2,,,,,,,,,,,,,,,9.626,,0.2,0.8,0.4,0.6,0.6,0.4,0.6,0.4,1,0,,,,,,,,,,,,
,,60dc9eef1d2e18498fddb772,66fc998519a305dfc4632b01,2024-10-01_18h55.29.800,mdp,2024.2.1,Win32,500,66fa4ebf79326e780c390304,,,,,,,,,,,,,,,,,,,,,1008.856,1008.856,1008.857,1013.836,0,0,left,4.475,,1013.841,1017.155,0,1,left,1017.155,1017.155,,1,,0,1017.155,1017.155,1017.155,1018.654,0,13,13,13,1,0.4,0.6,0.8,0.2,,,,,,,,,,,,,,,2.817,,0.2,0.8,0.4,0.6,0.6,0.4,0.6,0.4,1,0,,,,,,,,,,,,
,,60dc9eef1d2e18498fddb772,66fc998519a305dfc4632b01,2024-10-01_18h55.29.800,mdp,2024.2.1,Win32,500,66fa4ebf79326e780c390304,,,,,,,,,,,,,,,,,,,,,1018.654,1018.654,1018.655,1027.573,0,0,left,8.416,,1027.579,1031.523,1,0,right,1031.524,1031.524,,1,,1,1031.524,1031.524,1031.524,1033.022,0,14,14,14,1,0.4,0.6,0.8,0.2,,,,,,,,,,,,,,,3.447,,0.2,0.8,0.4,0.6,0.6,0.4,0.6,0.4,1,0,,,,,,,,,,,,
,,60dc9eef1d2e18498fddb772,66fc998519a305dfc4632b01,2024-10-01_18h55.29.800,mdp,2024.2.1,Win32,500,66fa4ebf79326e780c390304,,,,,,,,,,,,,,,,,,,,,1033.022,1033.022,1033.023,1044.108,0,0,left,10.582,0,1044.113,1047.082,1,1,right,1047.083,1047.083,,1,,0,1047.083,1047.083,1047.083,1048.582,0,15,15,15,1,0.4,0.6,0.8,0.2,,,,,,,,,,,,,,,2.471,,0.2,0.8,0.4,0.6,0.6,0.4,0.6,0.4,1,0,,,,,,,,,,,,
,,60dc9eef1d2e18498fddb772,66fc998519a305dfc4632b01,2024-10-01_18h55.29.800,mdp,2024.2.1,Win32,500,66fa4ebf79326e780c390304,,,,,,,,,,,,,,,,,,,,,1048.582,1048.582,1048.582,1061.361,0,1,left,12.277,,1061.367,1064.853,1,1,right,1064.853,1064.853,,0,,0,1064.853,1064.853,1064.854,1066.355,0,16,16,16,1,0.4,0.6,0.8,0.2,,,,,,,,,,,,,,,2.988,,0.2,0.8,0.4,0.6,0.6,0.4,0.6,0.4,1,0,,,,,,,,,,,,
,,60dc9eef1d2e18498fddb772,66fc998519a305dfc4632b01,2024-10-01_18h55.29.800,mdp,2024.2.1,Win32,500,66fa4ebf79326e780c390304,,,,,,,,,,,,,,,,,,,,,1066.355,1066.355,1066.355,1070.597,0,0,left,3.741,,1070.603,1082.715,0,1,left,1082.72,1082.721,,1,,0,1082.721,1082.721,1082.721,1084.22,0,17,17,17,1,0.4,0.6,0.8,0.2,,,,,,,,,,,,,,,11.614,,0.2,0.8,0.4,0.6,0.6,0.4,0.6,0.4,1,0,,,,,,,,,,,,
,,60dc9eef1d2e18498fddb772,66fc998519a305dfc4632b01,2024-10-01_18h55.29.800,mdp,2024.2.1,Win32,500,66fa4ebf79326e780c390304,,,,,,,,,,,,,,,,,,,,,1084.22,1084.22,1084.22,1097.214,0,0,left,12.491,,1097.219,1107.846,1,1,right,1107.852,1107.852,,1,,0,1107.852,1107.852,1107.852,1109.354,0,18,18,18,1,0.4,0.6,0.8,0.2,,,,,,,,,,,,,,,10.129,,0.2,0.8,0.4,0.6,0.6,0.4,0.6,0.4,1,0,,,,,,,,,,,,
,,60dc9eef1d2e18498fddb772,66fc998519a305dfc4632b01,2024-10-01_18h55.29.800,mdp,2024.2.1,Win32,500,66fa4ebf79326e780c390304,,,,,,,,,,,,,,,,,,,,,1109.354,1109.354,1109.354,1126.91,1,0,right,17.052,,1126.915,1136.819,0,1,left,1136.825,1136.825,,1,,0,1136.825,1136.825,1136.825,1138.324,0,19,19,19,1,0.4,0.6,0.8,0.2,,,,,,,,,,,,,,,9.404,0,0.2,0.8,0.4,0.6,0.6,0.4,0.6,0.4,1,0,,,,,,,,,,,,
,,60dc9eef1d2e18498fddb772,66fc998519a305dfc4632b01,2024-10-01_18h55.29.800,mdp,2024.2.1,Win32,500,66fa4ebf79326e780c390304,,,,,,,,,,,,,,,,,,,,,1138.324,1138.324,1138.324,1148.665,1,0,right,9.838,0,1148.67,1159.251,1,0,right,1159.257,1159.258,,0,,1,1159.258,1159.258,1159.258,1160.757,0,20,20,20,1,0.4,0.6,0.8,0.2,,,,,,,,,,,,,,,10.08,,0.2,0.8,0.4,0.6,0.6,0.4,0.6,0.4,1,0,,,,,,,,,,,,
,,60dc9eef1d2e18498fddb772,66fc998519a305dfc4632b01,2024-10-01_18h55.29.800,mdp,2024.2.1,Win32,500,66fa4ebf79326e780c390304,,,,,,,,,,,,,,,,,,,,,1160.757,1160.757,1160.757,1163.922,1,1,right,2.662,,1163.927,1169.739,1,0,right,1169.745,1169.745,,0,,1,1169.746,1169.746,1169.746,1171.244,0,21,21,21,1,0.4,0.6,0.8,0.2,,,,,,,,,,,,,,,5.312,,0.2,0.8,0.4,0.6,0.6,0.4,0.6,0.4,1,0,,,,,,,,,,,,
,,60dc9eef1d2e18498fddb772,66fc998519a305dfc4632b01,2024-10-01_18h55.29.800,mdp,2024.2.1,Win32,500,66fa4ebf79326e780c390304,,,,,,,,,,,,,,,,,,,,,1171.244,1171.244,1171.245,1174.151,1,0,right,2.403,,1174.157,1177.089,1,1,right,1177.089,1177.09,,0,,0,1177.09,1177.09,1177.09,1178.588,0,22,22,22,1,0.4,0.6,0.8,0.2,,,,,,,,,,,,,,,2.434,,0.2,0.8,0.4,0.6,0.6,0.4,0.6,0.4,1,0,,,,,,,,,,,,
,,60dc9eef1d2e18498fddb772,66fc998519a305dfc4632b01,2024-10-01_18h55.29.800,mdp,2024.2.1,Win32,500,66fa4ebf79326e780c390304,,,,,,,,,,,,,,,,,,,,,1178.589,1178.589,1178.589,1181.607,1,1,right,2.515,,1181.612,1185.687,1,1,right,1185.693,1185.693,,1,,0,1185.693,1185.693,1185.693,1187.193,0,23,23,23,1,0.4,0.6,0.8,0.2,,,,,,,,,,,,,,,3.576,,0.2,0.8,0.4,0.6,0.6,0.4,0.6,0.4,1,0,,,,,,,,,,,,
,,60dc9eef1d2e18498fddb772,66fc998519a305dfc4632b01,2024-10-01_18h55.29.800,mdp,2024.2.1,Win32,500,66fa4ebf79326e780c390304,,,,,,,,,,,,,,,,,,,,,1187.193,1187.193,1187.193,1191.78,1,0,right,4.085,,1191.785,1194.295,1,0,right,1194.295,1194.295,,0,,1,1194.295,1194.295,1194.296,1195.794,0,24,24,24,1,0.4,0.6,0.8,0.2,,,,,,,,,,,,,,,2.01,,0.2,0.8,0.4,0.6,0.6,0.4,0.6,0.4,1,0,,,,,,,,,,,,
,,60dc9eef1d2e18498fddb772,66fc998519a305dfc4632b01,2024-10-01_18h55.29.800,mdp,2024.2.1,Win32,500,66fa4ebf79326e780c390304,,,,,,,,,,,,,,,,,,,,,1195.794,1195.794,1195.795,1198.289,1,0,right,1.993,,1198.29,1203.831,0,0,left,1203.836,1203.836,,0,,1,1203.836,1203.836,1203.836,1205.336,0,25,25,25,1,0.4,0.6,0.8,0.2,,,,,,,,,,,,,,,5.038,,0.6,0.4,0.2,0.8,0.6,0.4,0.6,0.4,1,0,,,,,,,,,,,,
,,60dc9eef1d2e18498fddb772,66fc998519a305dfc4632b01,2024-10-01_18h55.29.800,mdp,2024.2.1,Win32,500,66fa4ebf79326e780c390304,,,,,,,,,,,,,,,,,,,,,1205.336,1205.336,1205.337,1209.278,1,0,right,3.44,,1209.283,1214.766,0,0,left,1214.772,1214.772,,0,,1,1214.772,1214.772,1214.772,1216.271,0,26,26,26,1,0.4,0.6,0.8,0.2,,,,,,,,,,,,,,,4.984,,0.6,0.4,0.2,0.8,0.6,0.4,0.6,0.4,1,0,,,,,,,,,,,,
,,60dc9eef1d2e18498fddb772,66fc998519a305dfc4632b01,2024-10-01_18h55.29.800,mdp,2024.2.1,Win32,500,66fa4ebf79326e780c390304,,,,,,,,,,,,,,,,,,,,,1216.271,1216.271,1216.272,1218.082,1,0,right,1.309,,1218.083,1219.851,0,1,left,1219.852,1219.852,,0,,0,1219.852,1219.852,1219.853,1221.351,0,27,27,27,1,0.4,0.6,0.8,0.2,,,,,,,,,,,,,,,1.266,,0.6,0.4,0.2,0.8,0.2,0.8,0.2,0.8,1,0,,,,,,,,,,,,
,,60dc9eef1d2e18498fddb772,66fc998519a305dfc4632b01,2024-10-01_18h55.29.800,mdp,2024.2.1,Win32,500,66fa4ebf79326e780c390304,,,,,,,,,,,,,,,,,,,,,1221.351,1221.351,1221.351,1226.245,1,0,right,4.39,,1226.25,1228.414,0,1,left,1228.415,1228.415,,0,,0,1228.415,1228.415,1228.415,1229.914,0,28,28,28,1,0.4,0.6,0.8,0.2,,,,,,,,,,,,,,,1.667,,0.6,0.4,0.2,0.8,0.2,0.8,0.2,0.8,1,0,,,,,,,,,,,,
,,60dc9eef1d2e18498fddb772,66fc998519a305dfc4632b01,2024-10-01_18h55.29.800,mdp,2024.2.1,Win32,500,66fa4ebf79326e780c390304,,,,,,,,,,,,,,,,,,,,,1229.914,1229.914,1229.915,1233.216,1,0,right,2.799,,1233.216,1235.7,0,0,left,1235.705,1235.705,,0,,1,1235.706,1235.706,1235.706,1237.203,0,29,29,29,1,0.4,0.6,0.8,0.2,,,,,,,,,,,,,,,1.981,,0.6,0.4,0.2,0.8,0.2,0.8,0.2,0.8,1,0,,,,,,,,,,,,
,,60dc9eef1d2e18498fddb772,66fc998519a305dfc4632b01,2024-10-01_18h55.29.800,mdp,2024.2.1,Win32,500,66fa4ebf79326e780c390304,,,,,,,,,,,,,,,,,,,,,1237.203,1237.203,1237.203,1239.889,1,0,right,2.184,,1239.896,1242.844,0,0,left,1242.844,1242.844,,1,,1,1242.844,1242.844,1242.845,1244.344,0,30,30,30,1,0.4,0.6,0.8,0.2,,,,,,,,,,,,,,,2.452,,0.6,0.4,0.2,0.8,0.2,0.8,0.2,0.8,1,0,,,,,,,,,,,,
,,60dc9eef1d2e18498fddb772,66fc998519a305dfc4632b01,2024-10-01_18h55.29.800,mdp,2024.2.1,Win32,500,66fa4ebf79326e780c390304,,,,,,,,,,,,,,,,,,,,,1244.344,1244.344,1244.344,1246.418,1,0,right,1.569,,1246.419,1248.13,0,1,left,1248.13,1248.13,,0,,0,1248.13,1248.13,1248.13,1249.629,0,31,31,31,1,0.4,0.6,0.8,0.2,,,,,,,,,,,,,,,1.208,,0.6,0.4,0.2,0.8,0.2,0.8,0.2,0.8,1,0,,,,,,,,,,,,
,,60dc9eef1d2e18498fddb772,66fc998519a305dfc4632b01,2024-10-01_18h55.29.800,mdp,2024.2.1,Win32,500,66fa4ebf79326e780c390304,,,,,,,,,,,,,,,,,,,,,1249.629,1249.629,1249.629,1252.327,1,0,right,2.196,,1252.328,1253.731,0,1,left,1253.732,1253.732,,1,,0,1253.732,1253.732,1253.733,1255.231,0,32,32,32,1,0.4,0.6,0.8,0.2,,,,,,,,,,,,,,,0.901,,0.4,0.6,0.6,0.4,0.2,0.8,0.2,0.8,1,0,,,,,,,,,,,,
,,60dc9eef1d2e18498fddb772,66fc998519a305dfc4632b01,2024-10-01_18h55.29.800,mdp,2024.2.1,Win32,500,66fa4ebf79326e780c390304,,,,,,,,,,,,,,,,,,,,,1255.231,1255.231,1255.231,1257.415,1,0,right,1.68,,1257.421,1260.008,0,0,left,1260.008,1260.008,,0,,1,1260.008,1260.008,1260.009,1261.507,0,33,33,33,1,0.4,0.6,0.8,0.2,,,,,,,,,,,,,,,2.089,,0.4,0.6,0.6,0.4,0.2,0.8,0.2,0.8,1,0,,,,,,,,,,,,
,,60dc9eef1d2e18498fddb772,66fc998519a305dfc4632b01,2024-10-01_18h55.29.800,mdp,2024.2.1,Win32,500,66fa4ebf79326e780c390304,,,,,,,,,,,,,,,,,,,,,1261.507,1261.507,1261.508,1270.423,1,0,right,8.413,,1270.428,1276.865,1,1,right,1276.87,1276.87,,1,,0,1276.87,1276.87,1276.87,1278.368,0,34,34,34,1,0.4,0.6,0.8,0.2,,,,,,,,,,,,,,,5.941,,0.4,0.6,0.6,0.4,0.2,0.8,0.2,0.8,1,0,,,,,,,,,,,,
,,60dc9eef1d2e18498fddb772,66fc998519a305dfc4632b01,2024-10-01_18h55.29.800,mdp,2024.2.1,Win32,500,66fa4ebf79326e780c390304,,,,,,,,,,,,,,,,,,,,,1278.368,1278.368,1278.369,1280.435,1,0,right,1.566,,1280.441,1282.591,1,0,right,1282.592,1282.592,,0,,1,1282.592,1282.592,1282.592,1284.09,0,35,35,35,1,0.4,0.6,0.8,0.2,,,,,,,,,,,,,,,1.654,,0.4,0.6,0.6,0.4,0.2,0.8,0.2,0.8,1,0,,,,,,,,,,,,
,,60dc9eef1d2e18498fddb772,66fc998519a305dfc4632b01,2024-10-01_18h55.29.800,mdp,2024.2.1,Win32,500,66fa4ebf79326e780c390304,,,,,,,,,,,,,,,,,,,,,1284.09,1284.09,1284.091,1285.934,1,0,right,1.341,,1285.935,1288.215,1,0,right,1288.217,1288.217,,0,,1,1288.217,1288.217,1288.217,1289.715,0,36,36,36,1,0.6,0.4,0.6,0.4,,,,,,,,,,,,,,,1.779,,0.4,0.6,0.6,0.4,0.2,0.8,0.2,0.8,1,0,,,,,,,,,,,,
,,60dc9eef1d2e18498fddb772,66fc998519a305dfc4632b01,2024-10-01_18h55.29.800,mdp,2024.2.1,Win32,500,66fa4ebf79326e780c390304,,,,,,,,,,,,,,,,,,,,,1289.715,1289.715,1289.716,1291.907,1,1,right,1.69,,1291.908,1299.129,0,0,left,1299.135,1299.135,,1,,1,1299.135,1299.135,1299.135,1300.634,0,37,37,37,1,0.6,0.4,0.6,0.4,,,,,,,,,,,,,,,6.715,0,0.4,0.6,0.6,0.4,0.2,0.8,0.2,0.8,1,0,,,,,,,,,,,,
,,60dc9eef1d2e18498fddb772,66fc998519a305dfc4632b01,2024-10-01_18h55.29.800,mdp,2024.2.1,Win32,500,66fa4ebf79326e780c390304,,,,,,,,,,,,,,,,,,,,,1300.635,1300.635,1300.635,1303.06,1,0,right,1.923,,1303.061,1307.497,1,0,right,1307.503,1307.504,,1,,1,1307.504,1307.504,1307.504,1309.002,0,38,38,38,1,0.6,0.4,0.6,0.4,,,,,,,,,,,,,,,3.932,,0.4,0.6,0.6,0.4,0.2,0.8,0.2,0.8,1,0,,,,,,,,,,,,
,,60dc9eef1d2e18498fddb772,66fc998519a305dfc4632b01,2024-10-01_18h55.29.800,mdp,2024.2.1,Win32,500,66fa4ebf79326e780c390304,,,,,,,,,,,,,,,,,,,,,1309.002,1309.002,1309.002,1312.735,1,0,right,3.231,,1312.74,1315.567,1,0,right,1315.573,1315.573,,0,,1,1315.573,1315.573,1315.573,1317.072,0,39,39,39,1,0.6,0.4,0.6,0.4,,,,,,,,,,,,,,,2.329,,0.4,0.6,0.6,0.4,0.2,0.8,0.2,0.8,1,0,,,,,,,,,,,,
,,60dc9eef1d2e18498fddb772,66fc998519a305dfc4632b01,2024-10-01_18h55.29.800,mdp,2024.2.1,Win32,500,66fa4ebf79326e780c390304,,,,,,,,,,,,,,,,,,,,,1317.072,1317.072,1317.073,1319.142,1,1,right,1.567,,1319.147,1321.481,0,1,left,1321.482,1321.482,,1,,0,1321.482,1321.482,1321.482,1322.981,0,40,40,40,1,0.8,0.2,0.2,0.8,,,,,,,,,,,,,,,1.836,,0.4,0.6,0.6,0.4,0.2,0.8,0.2,0.8,1,0,,,,,,,,,,,,
,,60dc9eef1d2e18498fddb772,66fc998519a305dfc4632b01,2024-10-01_18h55.29.800,mdp,2024.2.1,Win32,500,66fa4ebf79326e780c390304,,,,,,,,,,,,,,,,,,,,,1322.981,1322.981,1322.981,1325.033,1,1,right,1.55,,1325.034,1328.809,0,1,left,1328.813,1328.814,,1,,0,1328.814,1328.814,1328.814,1330.314,0,41,41,41,1,0.8,0.2,0.2,0.8,,,,,,,,,,,,,,,3.272,,0.4,0.6,0.6,0.4,0.2,0.8,0.2,0.8,1,0,,,,,,,,,,,,
,,60dc9eef1d2e18498fddb772,66fc998519a305dfc4632b01,2024-10-01_18h55.29.800,mdp,2024.2.1,Win32,500,66fa4ebf79326e780c390304,,,,,,,,,,,,,,,,,,,,,1330.314,1330.314,1330.314,1332.133,1,0,right,1.316,,1332.134,1339.763,1,0,right,1339.769,1339.769,,0,,1,1339.769,1339.769,1339.77,1341.269,0,42,42,42,1,0.8,0.2,0.2,0.8,,,,,,,,,,,,,,,7.127,,0.4,0.6,0.6,0.4,0.2,0.8,0.2,0.8,1,0,,,,,,,,,,,,
,,60dc9eef1d2e18498fddb772,66fc998519a305dfc4632b01,2024-10-01_18h55.29.800,mdp,2024.2.1,Win32,500,66fa4ebf79326e780c390304,,,,,,,,,,,,,,,,,,,,,1341.269,1341.269,1341.269,1343.46,1,1,right,1.689,,1343.461,1347.419,0,0,left,1347.425,1347.425,,0,,1,1347.425,1347.425,1347.425,1348.924,0,43,43,43,1,0.8,0.2,0.2,0.8,,,,,,,,,,,,,,,3.453,,0.4,0.6,0.6,0.4,0.6,0.4,0.6,0.4,1,0,,,,,,,,,,,,
,,60dc9eef1d2e18498fddb772,66fc998519a305dfc4632b01,2024-10-01_18h55.29.800,mdp,2024.2.1,Win32,500,66fa4ebf79326e780c390304,,,,,,,,,,,,,,,,,,,,,1348.925,1348.925,1348.925,1351.072,1,1,right,1.645,,1351.073,1352.872,0,0,left,1352.872,1352.872,,0,,1,1352.872,1352.872,1352.872,1354.371,0,44,44,44,1,0.8,0.2,0.2,0.8,,,,,,,,,,,,,,,1.298,,0.4,0.6,0.6,0.4,0.6,0.4,0.6,0.4,1,0,,,,,,,,,,,,
,,60dc9eef1d2e18498fddb772,66fc998519a305dfc4632b01,2024-10-01_18h55.29.800,mdp,2024.2.1,Win32,500,66fa4ebf79326e780c390304,,,,,,,,,,,,,,,,,,,,,1354.372,1354.372,1354.372,1356.916,1,1,right,2.042,,1356.917,1358.407,0,1,left,1358.407,1358.408,,1,,0,1358.408,1358.408,1358.408,1359.908,0,45,45,45,1,0.8,0.2,0.2,0.8,,,,,,,,,,,,,,,0.988,,0.4,0.6,0.6,0.4,0.8,0.2,0.4,0.6,1,0,,,,,,,,,,,,
,,60dc9eef1d2e18498fddb772,66fc998519a305dfc4632b01,2024-10-01_18h55.29.800,mdp,2024.2.1,Win32,500,66fa4ebf79326e780c390304,,,,,,,,,,,,,,,,,,,,,1359.909,1359.909,1359.909,1362.105,1,1,right,1.692,,1362.106,1368.069,0,1,left,1368.074,1368.075,,0,,0,1368.075,1368.075,1368.075,1369.577,0,46,46,46,1,0.8,0.2,0.2,0.8,,,,,,,,,,,,,,,5.462,,0.4,0.6,0.6,0.4,0.8,0.2,0.4,0.6,1,0,,,,,,,,,,,,
,,60dc9eef1d2e18498fddb772,66fc998519a305dfc4632b01,2024-10-01_18h55.29.800,mdp,2024.2.1,Win32,500,66fa4ebf79326e780c390304,,,,,,,,,,,,,,,,,,,,,1369.577,1369.577,1369.578,1371.257,1,1,right,1.177,,1371.258,1374.303,0,1,left,1374.308,1374.308,,0,,0,1374.308,1374.308,1374.309,1375.808,0,47,47,47,1,0.8,0.2,0.2,0.8,,,,,,,,,,,,,,,2.544,,0.4,0.6,0.6,0.4,0.8,0.2,0.4,0.6,1,0,,,,,,,,,,,,
,,60dc9eef1d2e18498fddb772,66fc998519a305dfc4632b01,2024-10-01_18h55.29.800,mdp,2024.2.1,Win32,500,66fa4ebf79326e780c390304,,,,,,,,,,,,,,,,,,,,,1375.808,1375.808,1375.808,1379.229,1,0,right,2.918,,1379.23,1381.327,1,0,right,1381.328,1381.328,,0,,1,1381.328,1381.328,1381.328,1382.826,0,48,48,48,1,0.8,0.2,0.2,0.8,,,,,,,,,,,,,,,1.594,,0.4,0.6,0.6,0.4,0.8,0.2,0.4,0.6,1,0,,,,,,,,,,,,
,,60dc9eef1d2e18498fddb772,66fc998519a305dfc4632b01,2024-10-01_18h55.29.800,mdp,2024.2.1,Win32,500,66fa4ebf79326e780c390304,,,,,,,,,,,,,,,,,,,,,1382.826,1382.826,1382.828,1384.913,1,0,right,1.585,,1384.914,1386.722,1,0,right,1386.722,1386.722,,0,,1,1386.722,1386.722,1386.722,1388.221,0,49,49,49,1,0.8,0.2,0.2,0.8,,,,,,,,,,,,,,,1.306,,0.2,0.8,0.8,0.2,0.8,0.2,0.4,0.6,1,0,,,,,,,,,,,,
,,60dc9eef1d2e18498fddb772,66fc998519a305dfc4632b01,2024-10-01_18h55.29.800,mdp,2024.2.1,Win32,500,66fa4ebf79326e780c390304,,,,,,,,,,,,,,,,,,,,,,,,,,,,,,,,,,,,,,,,,,,,,,,,,,,,,,,,1388.221,1446.725,0,1,1,5,1,imgs/dog.png,imgs/pig.png,imgs/cat.png,imgs/squirrel.png,imgs/goat.png,,,,,,,,,,,,,,,,,,,,,,,,
,,60dc9eef1d2e18498fddb772,66fc998519a305dfc4632b01,2024-10-01_18h55.29.800,mdp,2024.2.1,Win32,500,66fa4ebf79326e780c390304,,,,,,,,,,,,,,3,seqs/st3seq31.csv,1446.732,1452.329,space,5.089,0,1452.334,1452.334,1452.334,1472.575,1,1,right,19.736,,1472.58,1485.108,1,0,right,1485.114,1518.083,1,0,right,1,1518.084,1518.084,1518.089,1519.582,0,0,0,0,1,0.6,0.4,0.8,0.2,,,,,,,,,,,,,,,12.026,,0.8,0.2,0.2,0.8,0.8,0.2,0.8,0.2,,,32.469,0,0.8,0.2,0.6,0.4,0.6,0.4,0.4,0.6,1,0
,,60dc9eef1d2e18498fddb772,66fc998519a305dfc4632b01,2024-10-01_18h55.29.800,mdp,2024.2.1,Win32,500,66fa4ebf79326e780c390304,,,,,,,,,,,,,,,,,,,,,1519.583,1519.583,1519.584,1531.528,1,0,right,11.44,,1531.534,1569.945,1,0,right,1569.951,1580.354,1,0,right,1,1580.354,1580.354,1580.359,1581.854,0,1,1,1,1,0.6,0.4,0.8,0.2,,,,,,,,,,,,,,,37.911,,0.8,0.2,0.2,0.8,0.8,0.2,0.8,0.2,,,9.905,,0.8,0.2,0.6,0.4,0.4,0.6,0.6,0.4,1,0
,,60dc9eef1d2e18498fddb772,66fc998519a305dfc4632b01,2024-10-01_18h55.29.800,mdp,2024.2.1,Win32,500,66fa4ebf79326e780c390304,,,,,,,,,,,,,,,,,,,,,1581.855,1581.855,1581.855,1583.972,1,0,right,1.612,,1583.972,1590.932,1,1,right,1590.937,1611.829,1,1,right,0,1611.829,1611.829,1611.834,1613.327,0,2,2,2,1,0.6,0.4,0.8,0.2,,,,,,,,,,,,,,,6.456,,0.8,0.2,0.2,0.8,0.8,0.2,0.8,0.2,,,20.391,,0.8,0.2,0.6,0.4,0.4,0.6,0.6,0.4,1,0
,,60dc9eef1d2e18498fddb772,66fc998519a305dfc4632b01,2024-10-01_18h55.29.800,mdp,2024.2.1,Win32,500,66fa4ebf79326e780c390304,,,,,,,,,,,,,,,,,,,,,1613.327,1613.327,1613.328,1624.737,1,0,right,10.906,,1624.743,1636.017,1,1,right,1636.023,1643.231,0,0,left,1,1643.231,1643.231,1643.236,1644.73,0,3,3,3,1,0.6,0.4,0.8,0.2,,,,,,,,,,,,,,,10.776,,0.8,0.2,0.2,0.8,0.8,0.2,0.8,0.2,,,6.708,,0.8,0.2,0.6,0.4,0.4,0.6,0.6,0.4,1,0
,,60dc9eef1d2e18498fddb772,66fc998519a305dfc4632b01,2024-10-01_18h55.29.800,mdp,2024.2.1,Win32,500,66fa4ebf79326e780c390304,,,,,,,,,,,,,,,,,,,,,1644.73,1644.73,1644.731,1648.747,1,0,right,3.514,,1648.752,1655.155,1,1,right,1655.16,1661.777,0,0,left,1,1661.777,1661.777,1661.783,1663.276,0,4,4,4,1,0.6,0.4,0.8,0.2,,,,,,,,,,,,,,,5.905,,0.8,0.2,0.2,0.8,0.8,0.2,0.8,0.2,,,6.119,,0.8,0.2,0.6,0.4,0.4,0.6,0.6,0.4,1,0
,,60dc9eef1d2e18498fddb772,66fc998519a305dfc4632b01,2024-10-01_18h55.29.800,mdp,2024.2.1,Win32,500,66fa4ebf79326e780c390304,,,,,,,,,,,,,,,,,,,,,1663.276,1663.276,1663.278,1665.28,1,0,right,1.498,,1665.281,1669.875,1,1,right,1669.881,1678.204,0,1,left,0,1678.204,1678.204,1678.21,1679.704,0,5,5,5,1,0.6,0.4,0.8,0.2,,,,,,,,,,,,,,,4.093,,0.8,0.2,0.2,0.8,0.8,0.2,0.8,0.2,,,7.828,,0.8,0.2,0.6,0.4,0.4,0.6,0.6,0.4,1,0
,,60dc9eef1d2e18498fddb772,66fc998519a305dfc4632b01,2024-10-01_18h55.29.800,mdp,2024.2.1,Win32,500,66fa4ebf79326e780c390304,,,,,,,,,,,,,,,,,,,,,1679.704,1679.704,1679.704,1682.118,1,0,right,1.91,,1682.118,1687.656,1,1,right,1687.662,1695.146,0,0,left,1,1695.146,1695.146,1695.152,1696.645,0,6,6,6,1,0.6,0.4,0.8,0.2,,,,,,,,,,,,,,,5.033,,0.8,0.2,0.2,0.8,0.8,0.2,0.8,0.2,,,6.988,,0.8,0.2,0.6,0.4,0.4,0.6,0.6,0.4,1,0
,,60dc9eef1d2e18498fddb772,66fc998519a305dfc4632b01,2024-10-01_18h55.29.800,mdp,2024.2.1,Win32,500,66fa4ebf79326e780c390304,,,,,,,,,,,,,,,,,,,,,1696.646,1696.646,1696.647,1698.586,1,0,right,1.435,,1698.587,1703.441,1,0,right,1703.446,1708.903,1,1,right,0,1708.904,1708.904,1708.908,1710.405,0,7,7,7,1,0.6,0.4,0.8,0.2,,,,,,,,,,,,,,,4.349,,0.8,0.2,0.2,0.8,0.8,0.2,0.8,0.2,,,4.954,,0.8,0.2,0.6,0.4,0.4,0.6,0.6,0.4,1,0
,,60dc9eef1d2e18498fddb772,66fc998519a305dfc4632b01,2024-10-01_18h55.29.800,mdp,2024.2.1,Win32,500,66fa4ebf79326e780c390304,,,,,,,,,,,,,,,,,,,,,1710.405,1710.405,1710.405,1713.751,1,0,right,2.842,,1713.756,1723.021,1,0,right,1723.027,1729.53,1,0,right,1,1729.53,1729.53,1729.536,1731.029,0,8,8,8,1,0.6,0.4,0.8,0.2,,,,,,,,,,,,,,,8.767,,0.8,0.2,0.2,0.8,0.8,0.2,0.8,0.2,,,6.001,,0.8,0.2,0.6,0.4,0.4,0.6,0.6,0.4,1,0
,,60dc9eef1d2e18498fddb772,66fc998519a305dfc4632b01,2024-10-01_18h55.29.800,mdp,2024.2.1,Win32,500,66fa4ebf79326e780c390304,,,,,,,,,,,,,,,,,,,,,1731.029,1731.029,1731.03,1739.132,1,0,right,7.599,,1739.139,1748.896,1,1,right,1748.901,1754.544,0,0,left,1,1754.544,1754.544,1754.551,1756.044,0,9,9,9,1,0.6,0.4,0.8,0.2,,,,,,,,,,,,,,,9.26,,0.8,0.2,0.2,0.8,0.8,0.2,0.8,0.2,,,5.14,,0.8,0.2,0.6,0.4,0.4,0.6,0.6,0.4,1,0
,,60dc9eef1d2e18498fddb772,66fc998519a305dfc4632b01,2024-10-01_18h55.29.800,mdp,2024.2.1,Win32,500,66fa4ebf79326e780c390304,,,,,,,,,,,,,,,,,,,,,1756.044,1756.044,1756.044,1758.216,1,1,right,1.667,,1758.216,1766.208,1,1,right,1766.213,1788.124,0,1,left,0,1788.124,1788.124,1788.129,1789.623,0,10,10,10,1,0.6,0.4,0.8,0.2,,,,,,,,,,,,,,,7.486,,0.8,0.2,0.2,0.8,0.8,0.2,0.8,0.2,,,21.412,,0.8,0.2,0.6,0.4,0.4,0.6,0.6,0.4,1,0
,,60dc9eef1d2e18498fddb772,66fc998519a305dfc4632b01,2024-10-01_18h55.29.800,mdp,2024.2.1,Win32,500,66fa4ebf79326e780c390304,,,,,,,,,,,,,,,,,,,,,1789.623,1789.623,1789.623,1794.041,1,0,right,3.912,,1794.047,1798.007,1,0,right,1798.013,1800.829,1,0,right,1,1800.829,1800.829,1800.833,1802.328,0,11,11,11,1,0.6,0.4,0.8,0.2,,,,,,,,,,,,,,,3.461,,0.8,0.2,0.2,0.8,0.8,0.2,0.8,0.2,,,2.316,,0.8,0.2,0.6,0.4,0.4,0.6,0.6,0.4,1,0
,,60dc9eef1d2e18498fddb772,66fc998519a305dfc4632b01,2024-10-01_18h55.29.800,mdp,2024.2.1,Win32,500,66fa4ebf79326e780c390304,,,,,,,,,,,,,,,,,,,,,1802.328,1802.328,1802.328,1810.83,1,1,right,7.998,,1810.835,1824.437,1,0,right,1824.443,1828.591,1,0,right,1,1828.591,1828.591,1828.597,1830.09,0,12,12,12,1,0.6,0.4,0.8,0.2,,,,,,,,,,,,,,,13.101,,0.8,0.2,0.2,0.8,0.8,0.2,0.8,0.2,,,3.648,,0.8,0.2,0.6,0.4,0.4,0.6,0.6,0.4,1,0
,,60dc9eef1d2e18498fddb772,66fc998519a305dfc4632b01,2024-10-01_18h55.29.800,mdp,2024.2.1,Win32,500,66fa4ebf79326e780c390304,,,,,,,,,,,,,,,,,,,,,1830.09,1830.09,1830.091,1832.511,1,0,right,1.916,,1832.516,1836.547,1,1,right,1836.553,1838.425,0,1,left,0,1838.425,1838.425,1838.426,1839.924,0,13,13,13,1,0.6,0.4,0.8,0.2,,,,,,,,,,,,,,,3.532,,0.8,0.2,0.2,0.8,0.8,0.2,0.8,0.2,,,1.374,,0.8,0.2,0.6,0.4,0.4,0.6,0.6,0.4,1,0
,,60dc9eef1d2e18498fddb772,66fc998519a305dfc4632b01,2024-10-01_18h55.29.800,mdp,2024.2.1,Win32,500,66fa4ebf79326e780c390304,,,,,,,,,,,,,,,,,,,,,1839.924,1839.924,1839.925,1843.533,1,0,right,3.106,,1843.538,1855.706,1,0,right,1855.711,1858.32,1,0,right,1,1858.321,1858.321,1858.322,1859.818,0,14,14,14,1,0.6,0.4,0.8,0.2,,,,,,,,,,,,,,,11.67,,0.8,0.2,0.2,0.8,0.8,0.2,0.8,0.2,,,2.11,,0.8,0.2,0.6,0.4,0.4,0.6,0.6,0.4,1,0
,,60dc9eef1d2e18498fddb772,66fc998519a305dfc4632b01,2024-10-01_18h55.29.800,mdp,2024.2.1,Win32,500,66fa4ebf79326e780c390304,,,,,,,,,,,,,,,,,,,,,1859.818,1859.818,1859.818,1865.331,1,0,right,5.009,,1865.336,1874.344,1,1,right,1874.349,1876.45,0,1,left,0,1876.45,1876.45,1876.451,1877.949,0,15,15,15,1,0.6,0.4,0.8,0.2,,,,,,,,,,,,,,,8.51,,0.8,0.2,0.2,0.8,0.8,0.2,0.8,0.2,,,1.603,,0.8,0.2,0.6,0.4,0.4,0.6,0.6,0.4,1,0
,,60dc9eef1d2e18498fddb772,66fc998519a305dfc4632b01,2024-10-01_18h55.29.800,mdp,2024.2.1,Win32,500,66fa4ebf79326e780c390304,,,,,,,,,,,,,,,,,,,,,1877.95,1877.95,1877.95,1880.726,0,0,left,2.271,,1880.732,1897.036,0,0,left,1897.042,1899.732,1,0,right,1,1899.732,1899.732,1899.732,1901.231,0,16,16,16,1,0.6,0.4,0.8,0.2,,,,,,,,,,,,,,,15.808,,0.8,0.2,0.2,0.8,0.2,0.8,0.2,0.8,,,2.19,,0.8,0.2,0.6,0.4,0.4,0.6,0.6,0.4,1,0
,,60dc9eef1d2e18498fddb772,66fc998519a305dfc4632b01,2024-10-01_18h55.29.800,mdp,2024.2.1,Win32,500,66fa4ebf79326e780c390304,,,,,,,,,,,,,,,,,,,,,1901.232,1901.232,1901.232,1906.436,1,0,right,4.701,,1906.441,1908.708,0,0,left,1908.71,1910.497,1,1,right,0,1910.497,1910.497,1910.498,1911.997,0,17,17,17,1,0.6,0.4,0.8,0.2,,,,,,,,,,,,,,,1.77,,0.8,0.2,0.2,0.8,0.2,0.8,0.2,0.8,,,1.285,,0.6,0.4,0.2,0.8,0.4,0.6,0.6,0.4,1,0
,,60dc9eef1d2e18498fddb772,66fc998519a305dfc4632b01,2024-10-01_18h55.29.800,mdp,2024.2.1,Win32,500,66fa4ebf79326e780c390304,,,,,,,,,,,,,,,,,,,,,1911.997,1911.997,1911.997,1914.887,1,0,right,2.388,,1914.888,1916.315,0,0,left,1916.315,1918.397,1,1,right,0,1918.397,1918.397,1918.398,1919.898,0,18,18,18,1,0.6,0.4,0.8,0.2,,,,,,,,,,,,,,,0.927,,0.8,0.2,0.2,0.8,0.2,0.8,0.2,0.8,,,1.581,,0.6,0.4,0.2,0.8,0.4,0.6,0.6,0.4,1,0
,,60dc9eef1d2e18498fddb772,66fc998519a305dfc4632b01,2024-10-01_18h55.29.800,mdp,2024.2.1,Win32,500,66fa4ebf79326e780c390304,,,,,,,,,,,,,,,,,,,,,1919.898,1919.898,1919.898,1924.972,1,0,right,4.57,,1924.977,1926.877,0,0,left,1926.877,1928.343,1,0,right,1,1928.343,1928.343,1928.343,1929.842,0,19,19,19,1,0.6,0.4,0.8,0.2,,,,,,,,,,,,,,,1.403,,0.8,0.2,0.2,0.8,0.2,0.8,0.2,0.8,,,0.964,,0.6,0.4,0.2,0.8,0.4,0.6,0.6,0.4,1,0
,,60dc9eef1d2e18498fddb772,66fc998519a305dfc4632b01,2024-10-01_18h55.29.800,mdp,2024.2.1,Win32,500,66fa4ebf79326e780c390304,,,,,,,,,,,,,,,,,,,,,1929.842,1929.842,1929.843,1932.218,1,0,right,1.873,,1932.219,1937.621,0,0,left,1937.626,1939.632,1,1,right,0,1939.632,1939.632,1939.633,1941.131,0,20,20,20,1,0.6,0.4,0.8,0.2,,,,,,,,,,,,,,,4.899,,0.8,0.2,0.2,0.8,0.2,0.8,0.2,0.8,,,1.508,,0.6,0.4,0.2,0.8,0.4,0.6,0.6,0.4,1,0
,,60dc9eef1d2e18498fddb772,66fc998519a305dfc4632b01,2024-10-01_18h55.29.800,mdp,2024.2.1,Win32,500,66fa4ebf79326e780c390304,,,,,,,,,,,,,,,,,,,,,1941.131,1941.131,1941.132,1948.951,0,0,left,7.317,,1948.956,1952.29,0,1,left,1952.294,1958.145,1,1,right,0,1958.145,1958.145,1958.15,1959.645,0,21,21,21,1,0.6,0.4,0.8,0.2,,,,,,,,,,,,,,,2.835,,0.8,0.2,0.2,0.8,0.2,0.8,0.2,0.8,,,5.35,,0.6,0.4,0.2,0.8,0.4,0.6,0.6,0.4,1,0
,,60dc9eef1d2e18498fddb772,66fc998519a305dfc4632b01,2024-10-01_18h55.29.800,mdp,2024.2.1,Win32,500,66fa4ebf79326e780c390304,,,,,,,,,,,,,,,,,,,,,1959.645,1959.645,1959.645,1970.969,0,0,left,10.821,,1970.976,1972.767,0,1,left,1972.767,1977.76,0,1,left,0,1977.76,1977.76,1977.766,1979.259,0,22,22,22,1,0.6,0.4,0.8,0.2,,,,,,,,,,,,,,,1.291,,0.8,0.2,0.2,0.8,0.2,0.8,0.2,0.8,,,4.489,,0.6,0.4,0.2,0.8,0.4,0.6,0.6,0.4,1,0
,,60dc9eef1d2e18498fddb772,66fc998519a305dfc4632b01,2024-10-01_18h55.29.800,mdp,2024.2.1,Win32,500,66fa4ebf79326e780c390304,,,,,,,,,,,,,,,,,,,,,1979.26,1979.26,1979.26,1981.281,1,1,right,1.517,,1981.282,1985.093,0,1,left,1985.098,1991.099,0,0,left,1,1991.099,1991.099,1991.105,1992.598,0,23,23,23,1,0.6,0.4,0.8,0.2,,,,,,,,,,,,,,,3.306,,0.8,0.2,0.2,0.8,0.2,0.8,0.2,0.8,,,5.504,,0.6,0.4,0.2,0.8,0.4,0.6,0.6,0.4,1,0
,,60dc9eef1d2e18498fddb772,66fc998519a305dfc4632b01,2024-10-01_18h55.29.800,mdp,2024.2.1,Win32,500,66fa4ebf79326e780c390304,,,,,,,,,,,,,,,,,,,,,1992.598,1992.598,1992.599,1995.078,1,0,right,1.976,,1995.084,1996.223,0,0,left,1996.224,1997.942,1,1,right,0,1997.942,1997.942,1997.943,1999.442,0,24,24,24,1,0.6,0.4,0.8,0.2,,,,,,,,,,,,,,,0.642,,0.8,0.2,0.2,0.8,0.2,0.8,0.2,0.8,,,1.214,,0.6,0.4,0.2,0.8,0.4,0.6,0.6,0.4,1,0
,,60dc9eef1d2e18498fddb772,66fc998519a305dfc4632b01,2024-10-01_18h55.29.800,mdp,2024.2.1,Win32,500,66fa4ebf79326e780c390304,,,,,,,,,,,,,,,,,,,,,1999.442,1999.442,1999.443,2001.575,1,0,right,1.631,,2001.576,2002.577,0,0,left,2002.578,2003.751,1,1,right,0,2003.751,2003.751,2003.751,2005.25,0,25,25,25,1,0.6,0.4,0.8,0.2,,,,,,,,,,,,,,,0.5,,0.8,0.2,0.2,0.8,0.2,0.8,0.2,0.8,,,0.672,,0.6,0.4,0.2,0.8,0.4,0.6,0.6,0.4,1,0
,,60dc9eef1d2e18498fddb772,66fc998519a305dfc4632b01,2024-10-01_18h55.29.800,mdp,2024.2.1,Win32,500,66fa4ebf79326e780c390304,,,,,,,,,,,,,,,,,,,,,2005.251,2005.251,2005.251,2007.754,1,0,right,2.001,,2007.754,2008.85,0,0,left,2008.851,2010.049,1,1,right,0,2010.049,2010.049,2010.05,2011.549,0,26,26,26,1,0.6,0.4,0.8,0.2,,,,,,,,,,,,,,,0.594,,0.8,0.2,0.2,0.8,0.2,0.8,0.2,0.8,,,0.697,,0.6,0.4,0.2,0.8,0.4,0.6,0.6,0.4,1,0
,,60dc9eef1d2e18498fddb772,66fc998519a305dfc4632b01,2024-10-01_18h55.29.800,mdp,2024.2.1,Win32,500,66fa4ebf79326e780c390304,,,,,,,,,,,,,,,,,,,,,2011.549,2011.549,2011.55,2013.881,1,0,right,1.828,,2013.881,2017.099,0,0,left,2017.105,2017.966,1,1,right,0,2017.966,2017.966,2017.966,2019.465,0,27,27,27,1,0.6,0.4,0.8,0.2,,,,,,,,,,,,,,,2.715,,0.8,0.2,0.2,0.8,0.2,0.8,0.2,0.8,,,0.365,,0.6,0.4,0.2,0.8,0.4,0.6,0.6,0.4,1,0
,,60dc9eef1d2e18498fddb772,66fc998519a305dfc4632b01,2024-10-01_18h55.29.800,mdp,2024.2.1,Win32,500,66fa4ebf79326e780c390304,,,,,,,,,,,,,,,,,,,,,2019.465,2019.465,2019.466,2022.654,1,0,right,2.685,,2022.654,2024.076,0,0,left,2024.076,2025.48,1,1,right,0,2025.48,2025.48,2025.481,2026.979,0,28,28,28,1,0.6,0.4,0.8,0.2,,,,,,,,,,,,,,,0.917,,0.8,0.2,0.2,0.8,0.2,0.8,0.2,0.8,,,0.901,,0.6,0.4,0.2,0.8,0.4,0.6,0.6,0.4,1,0
,,60dc9eef1d2e18498fddb772,66fc998519a305dfc4632b01,2024-10-01_18h55.29.800,mdp,2024.2.1,Win32,500,66fa4ebf79326e780c390304,,,,,,,,,,,,,,,,,,,,,2026.979,2026.979,2026.979,2028.454,1,0,right,0.971,,2028.454,2035.918,0,1,left,2035.923,2038.529,0,0,left,1,2038.529,2038.529,2038.529,2040.027,0,29,29,29,1,0.6,0.4,0.8,0.2,,,,,,,,,,,,,,,6.961,,0.8,0.2,0.2,0.8,0.2,0.8,0.2,0.8,,,2.107,,0.6,0.4,0.2,0.8,0.4,0.6,0.6,0.4,1,0
,,60dc9eef1d2e18498fddb772,66fc998519a305dfc4632b01,2024-10-01_18h55.29.800,mdp,2024.2.1,Win32,500,66fa4ebf79326e780c390304,,,,,,,,,,,,,,,,,,,,,2040.027,2040.027,2040.028,2044.257,1,0,right,3.725,,2044.263,2046.767,0,0,left,2046.767,2047.76,0,1,left,0,2047.76,2047.76,2047.76,2049.259,0,30,30,30,1,0.6,0.4,0.8,0.2,,,,,,,,,,,,,,,2.005,,0.8,0.2,0.2,0.8,0.2,0.8,0.2,0.8,,,0.489,,0.6,0.4,0.2,0.8,0.4,0.6,0.6,0.4,1,0
,,60dc9eef1d2e18498fddb772,66fc998519a305dfc4632b01,2024-10-01_18h55.29.800,mdp,2024.2.1,Win32,500,66fa4ebf79326e780c390304,,,,,,,,,,,,,,,,,,,,,2049.259,2049.259,2049.26,2051.743,1,0,right,1.982,,2051.744,2052.73,0,0,left,2052.732,2053.933,0,1,left,0,2053.933,2053.933,2053.933,2055.432,0,31,31,31,1,0.8,0.2,0.4,0.6,,,,,,,,,,,,,,,0.485,,0.8,0.2,0.2,0.8,0.2,0.8,0.2,0.8,,,0.699,,0.6,0.4,0.2,0.8,0.4,0.6,0.6,0.4,1,0
,,60dc9eef1d2e18498fddb772,66fc998519a305dfc4632b01,2024-10-01_18h55.29.800,mdp,2024.2.1,Win32,500,66fa4ebf79326e780c390304,,,,,,,,,,,,,,,,,,,,,2055.432,2055.432,2055.433,2057.154,1,1,right,1.219,,2057.155,2062.584,1,1,right,2062.589,2066.621,0,1,left,0,2066.621,2066.621,2066.627,2068.12,0,32,32,32,1,0.8,0.2,0.4,0.6,,,,,,,,,,,,,,,4.925,,0.8,0.2,0.2,0.8,0.2,0.8,0.2,0.8,,,3.532,,0.6,0.4,0.2,0.8,0.4,0.6,0.6,0.4,1,0
,,60dc9eef1d2e18498fddb772,66fc998519a305dfc4632b01,2024-10-01_18h55.29.800,mdp,2024.2.1,Win32,500,66fa4ebf79326e780c390304,,,,,,,,,,,,,,,,,,,,,2068.12,2068.12,2068.121,2069.751,1,0,right,1.127,,2069.751,2070.86,0,0,left,2070.861,2071.662,1,1,right,0,2071.662,2071.662,2071.662,2073.161,0,33,33,33,1,0.8,0.2,0.4,0.6,,,,,,,,,,,,,,,0.604,,0.8,0.2,0.2,0.8,0.2,0.8,0.2,0.8,,,0.296,,0.6,0.4,0.2,0.8,0.4,0.6,0.6,0.4,1,0
,,60dc9eef1d2e18498fddb772,66fc998519a305dfc4632b01,2024-10-01_18h55.29.800,mdp,2024.2.1,Win32,500,66fa4ebf79326e780c390304,,,,,,,,,,,,,,,,,,,,,2073.161,2073.161,2073.162,2075.757,1,1,right,2.093,,2075.757,2080.911,0,0,left,2080.916,2083.245,1,1,right,0,2083.245,2083.245,2083.246,2084.744,0,34,34,34,1,0.8,0.2,0.4,0.6,,,,,,,,,,,,,,,4.649,,0.8,0.2,0.2,0.8,0.2,0.8,0.2,0.8,,,1.832,,0.6,0.4,0.2,0.8,0.4,0.6,0.6,0.4,1,0
,,60dc9eef1d2e18498fddb772,66fc998519a305dfc4632b01,2024-10-01_18h55.29.800,mdp,2024.2.1,Win32,500,66fa4ebf79326e780c390304,,,,,,,,,,,,,,,,,,,,,2084.744,2084.744,2084.745,2088.111,1,0,right,2.863,,2088.116,2096.579,1,1,right,2096.584,2098.553,0,1,left,0,2098.553,2098.553,2098.554,2100.051,0,35,35,35,1,0.8,0.2,0.4,0.6,,,,,,,,,,,,,,,7.966,,0.8,0.2,0.2,0.8,0.2,0.8,0.2,0.8,,,1.472,,0.6,0.4,0.2,0.8,0.4,0.6,0.6,0.4,1,0
,,60dc9eef1d2e18498fddb772,66fc998519a305dfc4632b01,2024-10-01_18h55.29.800,mdp,2024.2.1,Win32,500,66fa4ebf79326e780c390304,,,,,,,,,,,,,,,,,,,,,2100.051,2100.051,2100.051,2103.393,1,0,right,2.838,,2103.397,2106.757,0,0,left,2106.763,2109.027,1,1,right,0,2109.027,2109.027,2109.028,2110.527,0,36,36,36,1,0.8,0.2,0.4,0.6,,,,,,,,,,,,,,,2.86,,0.8,0.2,0.2,0.8,0.6,0.4,0.8,0.2,,,1.765,,0.6,0.4,0.2,0.8,0.4,0.6,0.6,0.4,1,0
,,60dc9eef1d2e18498fddb772,66fc998519a305dfc4632b01,2024-10-01_18h55.29.800,mdp,2024.2.1,Win32,500,66fa4ebf79326e780c390304,,,,,,,,,,,,,,,,,,,,,2110.527,2110.527,2110.527,2116.577,1,0,right,5.548,,2116.583,2122.236,0,1,left,2122.24,2125.682,1,1,right,0,2125.682,2125.682,2125.689,2127.181,0,37,37,37,1,0.8,0.2,0.4,0.6,,,,,,,,,,,,,,,5.154,,0.8,0.2,0.2,0.8,0.6,0.4,0.8,0.2,,,2.942,,0.6,0.4,0.2,0.8,0.4,0.6,0.6,0.4,1,0
,,60dc9eef1d2e18498fddb772,66fc998519a305dfc4632b01,2024-10-01_18h55.29.800,mdp,2024.2.1,Win32,500,66fa4ebf79326e780c390304,,,,,,,,,,,,,,,,,,,,,2127.182,2127.182,2127.183,2130.776,1,0,right,3.09,,2130.782,2131.799,1,1,right,2131.8,2139.224,1,0,right,1,2139.224,2139.224,2139.23,2140.724,0,38,38,38,1,0.8,0.2,0.4,0.6,,,,,,,,,,,,,,,0.522,,0.8,0.2,0.2,0.8,0.6,0.4,0.8,0.2,,,6.922,,0.6,0.4,0.2,0.8,0.4,0.6,0.6,0.4,1,0
,,60dc9eef1d2e18498fddb772,66fc998519a305dfc4632b01,2024-10-01_18h55.29.800,mdp,2024.2.1,Win32,500,66fa4ebf79326e780c390304,,,,,,,,,,,,,,,,,,,,,2140.724,2140.724,2140.724,2145.275,1,1,right,4.048,,2145.28,2148.638,1,0,right,2148.639,2155.134,0,0,left,1,2155.134,2155.134,2155.139,2156.634,0,39,39,39,1,0.8,0.2,0.4,0.6,,,,,,,,,,,,,,,2.858,,0.8,0.2,0.2,0.8,0.6,0.4,0.8,0.2,,,5.991,,0.6,0.4,0.2,0.8,0.4,0.6,0.6,0.4,1,0
,,60dc9eef1d2e18498fddb772,66fc998519a305dfc4632b01,2024-10-01_18h55.29.800,mdp,2024.2.1,Win32,500,66fa4ebf79326e780c390304,,,,,,,,,,,,,,,,,,,,,2156.634,2156.634,2156.634,2158.282,1,1,right,1.145,,2158.284,2159.849,0,1,left,2159.849,2163.142,1,0,right,1,2163.142,2163.142,2163.144,2164.642,0,40,40,40,1,0.8,0.2,0.4,0.6,,,,,,,,,,,,,,,1.064,,0.8,0.2,0.2,0.8,0.6,0.4,0.8,0.2,,,2.789,,0.6,0.4,0.2,0.8,0.4,0.6,0.6,0.4,1,0
,,60dc9eef1d2e18498fddb772,66fc998519a305dfc4632b01,2024-10-01_18h55.29.800,mdp,2024.2.1,Win32,500,66fa4ebf79326e780c390304,,,,,,,,,,,,,,,,,,,,,2164.643,2164.643,2164.643,2166.504,1,0,right,1.36,,2166.504,2173.688,1,1,right,2173.694,2175.461,1,0,right,1,2175.461,2175.461,2175.462,2176.96,0,41,41,41,1,0.8,0.2,0.4,0.6,,,,,,,,,,,,,,,6.68,,0.8,0.2,0.2,0.8,0.6,0.4,0.8,0.2,,,1.267,,0.6,0.4,0.2,0.8,0.4,0.6,0.6,0.4,1,0
,,60dc9eef1d2e18498fddb772,66fc998519a305dfc4632b01,2024-10-01_18h55.29.800,mdp,2024.2.1,Win32,500,66fa4ebf79326e780c390304,,,,,,,,,,,,,,,,,,,,,2176.96,2176.96,2176.961,2179.364,1,1,right,1.901,,2179.364,2182.318,0,1,left,2182.323,2183.876,1,0,right,1,2183.876,2183.876,2183.877,2185.376,0,42,42,42,1,0.8,0.2,0.4,0.6,,,,,,,,,,,,,,,2.449,,0.8,0.2,0.2,0.8,0.6,0.4,0.8,0.2,,,1.054,,0.6,0.4,0.2,0.8,0.4,0.6,0.6,0.4,1,0
,,60dc9eef1d2e18498fddb772,66fc998519a305dfc4632b01,2024-10-01_18h55.29.800,mdp,2024.2.1,Win32,500,66fa4ebf79326e780c390304,,,,,,,,,,,,,,,,,,,,,2185.376,2185.376,2185.376,2187.261,1,1,right,1.383,,2187.262,2189.865,0,1,left,2189.871,2191.381,1,0,right,1,2191.382,2191.382,2191.382,2192.88,0,43,43,43,1,0.8,0.2,0.4,0.6,,,,,,,,,,,,,,,2.102,,0.8,0.2,0.2,0.8,0.6,0.4,0.8,0.2,,,1.012,,0.6,0.4,0.2,0.8,0.4,0.6,0.6,0.4,1,0
,,60dc9eef1d2e18498fddb772,66fc998519a305dfc4632b01,2024-10-01_18h55.29.800,mdp,2024.2.1,Win32,500,66fa4ebf79326e780c390304,,,,,,,,,,,,,,,,,,,,,2192.881,2192.881,2192.882,2195.406,1,0,right,2.022,,2195.407,2198.238,1,1,right,2198.243,2200.892,1,0,right,1,2200.892,2200.892,2200.893,2202.392,0,44,44,44,1,0.8,0.2,0.4,0.6,,,,,,,,,,,,,,,2.327,,0.8,0.2,0.2,0.8,0.6,0.4,0.8,0.2,,,2.152,,0.6,0.4,0.2,0.8,0.4,0.6,0.6,0.4,1,0
,,60dc9eef1d2e18498fddb772,66fc998519a305dfc4632b01,2024-10-01_18h55.29.800,mdp,2024.2.1,Win32,500,66fa4ebf79326e780c390304,,,,,,,,,,,,,,,,,,,,,2202.392,2202.392,2202.393,2205.95,1,0,right,3.055,,2205.955,2208.64,1,0,right,2208.64,2215.651,0,0,left,1,2215.651,2215.651,2215.655,2217.15,0,45,45,45,1,0.8,0.2,0.4,0.6,,,,,,,,,,,,,,,2.187,,0.2,0.8,0.8,0.2,0.6,0.4,0.8,0.2,,,6.506,,0.6,0.4,0.2,0.8,0.4,0.6,0.6,0.4,1,0
,,60dc9eef1d2e18498fddb772,66fc998519a305dfc4632b01,2024-10-01_18h55.29.800,mdp,2024.2.1,Win32,500,66fa4ebf79326e780c390304,,,,,,,,,,,,,,,,,,,,,2217.15,2217.15,2217.15,2218.969,1,1,right,1.314,,2218.97,2223.545,0,0,left,2223.551,2228.11,0,0,left,1,2228.11,2228.11,2228.116,2229.61,0,46,46,46,1,0.8,0.2,0.4,0.6,,,,,,,,,,,,,,,4.071,,0.2,0.8,0.8,0.2,0.6,0.4,0.8,0.2,,,4.063,,0.6,0.4,0.2,0.8,0.4,0.6,0.6,0.4,1,0
,,60dc9eef1d2e18498fddb772,66fc998519a305dfc4632b01,2024-10-01_18h55.29.800,mdp,2024.2.1,Win32,500,66fa4ebf79326e780c390304,,,,,,,,,,,,,,,,,,,,,2229.61,2229.61,2229.61,2231.351,1,0,right,1.238,,2231.352,2234.375,1,1,right,2234.38,2235.262,1,0,right,1,2235.262,2235.262,2235.262,2236.762,0,47,47,47,1,0.8,0.2,0.4,0.6,,,,,,,,,,,,,,,2.519,,0.2,0.8,0.8,0.2,0.6,0.4,0.8,0.2,,,0.384,,0.6,0.4,0.2,0.8,0.4,0.6,0.6,0.4,1,0
,,60dc9eef1d2e18498fddb772,66fc998519a305dfc4632b01,2024-10-01_18h55.29.800,mdp,2024.2.1,Win32,500,66fa4ebf79326e780c390304,,,,,,,,,,,,,,,,,,,,,2236.762,2236.762,2236.763,2239.758,1,0,right,2.495,,2239.762,2241.611,1,0,right,2241.611,2244.242,0,0,left,1,2244.242,2244.242,2244.247,2245.742,0,48,48,48,1,0.8,0.2,0.4,0.6,,,,,,,,,,,,,,,1.35,,0.2,0.8,0.8,0.2,0.6,0.4,0.8,0.2,,,2.127,,0.6,0.4,0.2,0.8,0.4,0.6,0.6,0.4,1,0
,,60dc9eef1d2e18498fddb772,66fc998519a305dfc4632b01,2024-10-01_18h55.29.800,mdp,2024.2.1,Win32,500,66fa4ebf79326e780c390304,,,,,,,,,,,,,,,,,,,,,2245.742,2245.742,2245.742,2246.851,1,0,right,0.606,,2246.852,2249.657,1,0,right,2249.658,2252.382,0,1,left,0,2252.382,2252.382,2252.388,2253.879,0,49,49,49,1,0.8,0.2,0.4,0.6,,,,,,,,,,,,,,,2.304,,0.2,0.8,0.8,0.2,0.6,0.4,0.8,0.2,,,2.221,,0.6,0.4,0.2,0.8,0.4,0.6,0.6,0.4,1,0
,,60dc9eef1d2e18498fddb772,66fc998519a305dfc4632b01,2024-10-01_18h55.29.800,mdp,2024.2.1,Win32,500,66fa4ebf79326e780c390304,,,,,,,,,,,,,,,,,,,,,,,,,,,,,,,,,,,,,,,,,,,,,,,,,,,,,,,,2253.879,2312.383,0,2,2,3,1,imgs/kangaroo.png,imgs/lion.png,imgs/horse.png,imgs/rabbit.png,imgs/bear.png,,,,,,,,,,,,,,,,,,,,,,,,
,,60dc9eef1d2e18498fddb772,66fc998519a305dfc4632b01,2024-10-01_18h55.29.800,mdp,2024.2.1,Win32,500,66fa4ebf79326e780c390304,,,,,,,,,,,,,,3,seqs/st3seq24.csv,2312.389,2346.025,space,33.134,,2346.03,2346.03,2346.03,2365.161,1,1,right,18.625,,2365.167,2376.461,1,1,right,2376.466,2388.27,1,1,right,0,2388.27,2388.27,2388.276,2389.77,0,0,0,0,1,0.8,0.2,0.4,0.6,,,,,,,,,,,,,,,10.791,,0.4,0.6,0.6,0.4,0.2,0.8,0.2,0.8,,,11.303,,0.6,0.4,0.2,0.8,0.6,0.4,0.2,0.8,1,0
,,60dc9eef1d2e18498fddb772,66fc998519a305dfc4632b01,2024-10-01_18h55.29.800,mdp,2024.2.1,Win32,500,66fa4ebf79326e780c390304,,,,,,,,,,,,,,,,,,,,,2389.77,2389.77,2389.77,2400.738,1,0,right,10.464,,2400.744,2412.021,1,0,right,2412.026,2420.876,1,1,right,0,2420.876,2420.876,2420.881,2422.376,0,1,1,1,1,0.8,0.2,0.4,0.6,,,,,,,,,,,,,,,10.777,,0.4,0.6,0.6,0.4,0.2,0.8,0.2,0.8,,,8.35,,0.6,0.4,0.2,0.8,0.6,0.4,0.2,0.8,1,0
,,60dc9eef1d2e18498fddb772,66fc998519a305dfc4632b01,2024-10-01_18h55.29.800,mdp,2024.2.1,Win32,500,66fa4ebf79326e780c390304,,,,,,,,,,,,,,,,,,,,,2422.376,2422.376,2422.376,2431.305,0,0,left,8.424,,2431.311,2454.369,0,0,left,2454.375,2461.897,0,0,left,1,2461.897,2461.897,2461.902,2463.397,0,2,2,2,1,0.8,0.2,0.4,0.6,,,,,,,,,,,,,,,22.559,0.001,0.4,0.6,0.6,0.4,0.2,0.8,0.2,0.8,,,7.024,,0.6,0.4,0.2,0.8,0.6,0.4,0.2,0.8,1,0
,,60dc9eef1d2e18498fddb772,66fc998519a305dfc4632b01,2024-10-01_18h55.29.800,mdp,2024.2.1,Win32,500,66fa4ebf79326e780c390304,,,,,,,,,,,,,,,,,,,,,2463.397,2463.397,2463.397,2471.348,0,0,left,7.446,0,2471.354,2480.058,0,0,left,2480.063,2497.152,0,0,left,1,2497.152,2497.152,2497.158,2498.651,0,3,3,3,1,0.8,0.2,0.4,0.6,,,,,,,,,,,,,,,8.206,,0.4,0.6,0.6,0.4,0.2,0.8,0.2,0.8,,,16.591,,0.6,0.4,0.2,0.8,0.6,0.4,0.2,0.8,1,0
,,60dc9eef1d2e18498fddb772,66fc998519a305dfc4632b01,2024-10-01_18h55.29.800,mdp,2024.2.1,Win32,500,66fa4ebf79326e780c390304,,,,,,,,,,,,,,,,,,,,,2498.651,2498.651,2498.652,2507.083,0,0,left,7.925,,2507.09,2514.281,0,0,left,2514.286,2518.202,0,0,left,1,2518.202,2518.202,2518.207,2519.701,0,4,4,4,1,0.8,0.2,0.4,0.6,,,,,,,,,,,,,,,6.695,,0.4,0.6,0.6,0.4,0.2,0.8,0.2,0.8,,,3.419,,0.6,0.4,0.2,0.8,0.6,0.4,0.2,0.8,1,0
,,60dc9eef1d2e18498fddb772,66fc998519a305dfc4632b01,2024-10-01_18h55.29.800,mdp,2024.2.1,Win32,500,66fa4ebf79326e780c390304,,,,,,,,,,,,,,,,,,,,,2519.702,2519.702,2519.702,2526.845,0,0,left,6.638,,2526.851,2530.673,0,1,left,2530.678,2539.825,0,0,left,1,2539.825,2539.825,2539.831,2541.325,0,5,5,5,1,0.8,0.2,0.4,0.6,,,,,,,,,,,,,,,3.323,,0.4,0.6,0.6,0.4,0.2,0.8,0.2,0.8,,,8.648,0,0.6,0.4,0.2,0.8,0.6,0.4,0.2,0.8,1,0
,,60dc9eef1d2e18498fddb772,66fc998519a305dfc4632b01,2024-10-01_18h55.29.800,mdp,2024.2.1,Win32,500,66fa4ebf79326e780c390304,,,,,,,,,,,,,,,,,,,,,2541.325,2541.325,2541.326,2545.403,0,0,left,3.574,,2545.408,2550.309,0,1,left,2550.314,2560.678,0,0,left,1,2560.678,2560.678,2560.684,2562.177,0,6,6,6,1,0.8,0.2,0.4,0.6,,,,,,,,,,,,,,,4.401,,0.4,0.6,0.6,0.4,0.2,0.8,0.2,0.8,,,9.864,,0.6,0.4,0.2,0.8,0.6,0.4,0.2,0.8,1,0
,,60dc9eef1d2e18498fddb772,66fc998519a305dfc4632b01,2024-10-01_18h55.29.800,mdp,2024.2.1,Win32,500,66fa4ebf79326e780c390304,,,,,,,,,,,,,,,,,,,,,2562.178,2562.178,2562.179,2568.016,0,0,left,5.335,,2568.022,2573.136,0,1,left,2573.142,2580.318,0,0,left,1,2580.318,2580.318,2580.323,2581.818,0,7,7,7,1,0.8,0.2,0.4,0.6,,,,,,,,,,,,,,,4.615,,0.4,0.6,0.6,0.4,0.2,0.8,0.2,0.8,,,6.678,,0.6,0.4,0.2,0.8,0.6,0.4,0.2,0.8,1,0
,,60dc9eef1d2e18498fddb772,66fc998519a305dfc4632b01,2024-10-01_18h55.29.800,mdp,2024.2.1,Win32,500,66fa4ebf79326e780c390304,,,,,,,,,,,,,,,,,,,,,2581.818,2581.818,2581.818,2586.864,0,1,left,4.541,,2586.871,2597.774,0,1,left,2597.779,2602.965,0,1,left,0,2602.965,2602.965,2602.971,2604.465,0,8,8,8,1,0.8,0.2,0.4,0.6,,,,,,,,,,,,,,,10.407,,0.4,0.6,0.6,0.4,0.2,0.8,0.2,0.8,,,4.685,,0.6,0.4,0.2,0.8,0.6,0.4,0.2,0.8,1,0
,,60dc9eef1d2e18498fddb772,66fc998519a305dfc4632b01,2024-10-01_18h55.29.800,mdp,2024.2.1,Win32,500,66fa4ebf79326e780c390304,,,,,,,,,,,,,,,,,,,,,2604.465,2604.465,2604.466,2610.219,0,0,left,5.252,,2610.224,2618.043,0,0,left,2618.049,2621.548,0,0,left,1,2621.548,2621.548,2621.549,2623.047,0,9,9,9,1,0.8,0.2,0.4,0.6,,,,,,,,,,,,,,,7.32,0.001,0.4,0.6,0.6,0.4,0.2,0.8,0.2,0.8,,,3,,0.6,0.4,0.2,0.8,0.6,0.4,0.2,0.8,1,0
,,60dc9eef1d2e18498fddb772,66fc998519a305dfc4632b01,2024-10-01_18h55.29.800,mdp,2024.2.1,Win32,500,66fa4ebf79326e780c390304,,,,,,,,,,,,,,,,,,,,,2623.047,2623.047,2623.048,2630.953,0,0,left,7.402,0,2630.958,2640.1,0,1,left,2640.106,2653.623,0,0,left,1,2653.623,2653.623,2653.629,2655.122,0,10,10,10,1,0.8,0.2,0.4,0.6,,,,,,,,,,,,,,,8.642,,0.4,0.6,0.6,0.4,0.2,0.8,0.2,0.8,,,13.017,,0.6,0.4,0.2,0.8,0.6,0.4,0.2,0.8,1,0
,,60dc9eef1d2e18498fddb772,66fc998519a305dfc4632b01,2024-10-01_18h55.29.800,mdp,2024.2.1,Win32,500,66fa4ebf79326e780c390304,,,,,,,,,,,,,,,,,,,,,2655.122,2655.122,2655.123,2658.471,0,0,left,2.844,,2658.476,2663.423,0,1,left,2663.428,2681.626,0,1,left,0,2681.626,2681.626,2681.631,2683.127,0,11,11,11,1,0.8,0.2,0.4,0.6,,,,,,,,,,,,,,,4.446,,0.4,0.6,0.6,0.4,0.2,0.8,0.2,0.8,,,17.702,,0.6,0.4,0.2,0.8,0.6,0.4,0.2,0.8,1,0
,,60dc9eef1d2e18498fddb772,66fc998519a305dfc4632b01,2024-10-01_18h55.29.800,mdp,2024.2.1,Win32,500,66fa4ebf79326e780c390304,,,,,,,,,,,,,,,,,,,,,2683.128,2683.128,2683.128,2687.401,0,0,left,3.766,,2687.406,2692.469,0,1,left,2692.474,2698.271,0,0,left,1,2698.271,2698.271,2698.276,2699.771,0,12,12,12,1,0.8,0.2,0.4,0.6,,,,,,,,,,,,,,,4.562,,0.4,0.6,0.6,0.4,0.2,0.8,0.2,0.8,,,5.299,,0.6,0.4,0.2,0.8,0.6,0.4,0.2,0.8,1,0
,,60dc9eef1d2e18498fddb772,66fc998519a305dfc4632b01,2024-10-01_18h55.29.800,mdp,2024.2.1,Win32,500,66fa4ebf79326e780c390304,,,,,,,,,,,,,,,,,,,,,2699.771,2699.771,2699.771,2704.149,0,0,left,3.874,,2704.156,2708.062,0,0,left,2708.068,2713.477,0,0,left,1,2713.477,2713.477,2713.482,2714.976,0,13,13,13,1,0.8,0.2,0.4,0.6,,,,,,,,,,,,,,,3.409,,0.8,0.2,0.8,0.2,0.2,0.8,0.2,0.8,,,4.912,,0.6,0.4,0.2,0.8,0.6,0.4,0.2,0.8,1,0
,,60dc9eef1d2e18498fddb772,66fc998519a305dfc4632b01,2024-10-01_18h55.29.800,mdp,2024.2.1,Win32,500,66fa4ebf79326e780c390304,,,,,,,,,,,,,,,,,,,,,2714.977,2714.977,2714.977,2718.342,0,0,left,2.862,,2718.348,2722.026,0,1,left,2722.031,2726.524,0,1,left,0,2726.524,2726.524,2726.531,2728.024,0,14,14,14,1,0.8,0.2,0.4,0.6,,,,,,,,,,,,,,,3.181,,0.8,0.2,0.8,0.2,0.2,0.8,0.2,0.8,,,3.993,,0.6,0.4,0.2,0.8,0.6,0.4,0.2,0.8,1,0
,,60dc9eef1d2e18498fddb772,66fc998519a305dfc4632b01,2024-10-01_18h55.29.800,mdp,2024.2.1,Win32,500,66fa4ebf79326e780c390304,,,,,,,,,,,,,,,,,,,,,2728.024,2728.024,2728.024,2733.537,0,0,left,5.012,,2733.543,2737.182,0,1,left,2737.187,2741.437,0,0,left,1,2741.437,2741.437,2741.443,2742.937,0,15,15,15,1,0.8,0.2,0.4,0.6,,,,,,,,,,,,,,,3.14,,0.8,0.2,0.8,0.2,0.2,0.8,0.2,0.8,,,3.75,,0.6,0.4,0.2,0.8,0.6,0.4,0.2,0.8,1,0
,,60dc9eef1d2e18498fddb772,66fc998519a305dfc4632b01,2024-10-01_18h55.29.800,mdp,2024.2.1,Win32,500,66fa4ebf79326e780c390304,,,,,,,,,,,,,,,,,,,,,2742.937,2742.937,2742.937,2747.34,0,1,left,3.901,,2747.346,2753.311,0,1,left,2753.316,2758.015,0,0,left,1,2758.015,2758.015,2758.019,2759.514,0,16,16,16,1,0.8,0.2,0.4,0.6,,,,,,,,,,,,,,,5.465,,0.8,0.2,0.8,0.2,0.2,0.8,0.2,0.8,,,4.2,,0.6,0.4,0.2,0.8,0.6,0.4,0.2,0.8,1,0
,,60dc9eef1d2e18498fddb772,66fc998519a305dfc4632b01,2024-10-01_18h55.29.800,mdp,2024.2.1,Win32,500,66fa4ebf79326e780c390304,,,,,,,,,,,,,,,,,,,,,2759.514,2759.514,2759.514,2762.599,0,0,left,2.581,,2762.604,2766.861,0,0,left,2766.866,2773.24,0,0,left,1,2773.24,2773.24,2773.246,2774.739,0,17,17,17,1,0.8,0.2,0.4,0.6,,,,,,,,,,,,,,,3.758,,0.6,0.4,0.2,0.8,0.2,0.8,0.2,0.8,,,5.874,,0.6,0.4,0.2,0.8,0.6,0.4,0.2,0.8,1,0
,,60dc9eef1d2e18498fddb772,66fc998519a305dfc4632b01,2024-10-01_18h55.29.800,mdp,2024.2.1,Win32,500,66fa4ebf79326e780c390304,,,,,,,,,,,,,,,,,,,,,2774.739,2774.739,2774.74,2779.07,0,0,left,3.827,,2779.077,2784.368,0,0,left,2784.373,2788.482,0,1,left,0,2788.482,2788.482,2788.487,2789.981,0,18,18,18,1,0.8,0.2,0.4,0.6,,,,,,,,,,,,,,,4.793,,0.6,0.4,0.2,0.8,0.2,0.8,0.2,0.8,,,3.607,,0.6,0.4,0.2,0.8,0.6,0.4,0.2,0.8,1,0
,,60dc9eef1d2e18498fddb772,66fc998519a305dfc4632b01,2024-10-01_18h55.29.800,mdp,2024.2.1,Win32,500,66fa4ebf79326e780c390304,,,,,,,,,,,,,,,,,,,,,2789.981,2789.981,2789.981,2797.773,0,0,left,7.288,,2797.778,2801.157,0,0,left,2801.158,2804.514,0,0,left,1,2804.514,2804.514,2804.519,2806.013,0,19,19,19,1,0.8,0.2,0.4,0.6,,,,,,,,,,,,,,,2.881,,0.6,0.4,0.2,0.8,0.2,0.8,0.2,0.8,,,2.852,,0.6,0.4,0.2,0.8,0.6,0.4,0.2,0.8,1,0
,,60dc9eef1d2e18498fddb772,66fc998519a305dfc4632b01,2024-10-01_18h55.29.800,mdp,2024.2.1,Win32,500,66fa4ebf79326e780c390304,,,,,,,,,,,,,,,,,,,,,2806.013,2806.013,2806.013,2811.343,0,1,left,4.827,,2811.348,2817.833,0,0,left,2817.839,2821.978,0,0,left,1,2821.978,2821.978,2821.983,2823.477,0,20,20,20,1,0.8,0.2,0.4,0.6,,,,,,,,,,,,,,,5.986,,0.6,0.4,0.2,0.8,0.2,0.8,0.2,0.8,,,3.64,,0.6,0.4,0.2,0.8,0.6,0.4,0.2,0.8,1,0
,,60dc9eef1d2e18498fddb772,66fc998519a305dfc4632b01,2024-10-01_18h55.29.800,mdp,2024.2.1,Win32,500,66fa4ebf79326e780c390304,,,,,,,,,,,,,,,,,,,,,2823.477,2823.477,2823.479,2829.987,0,0,left,6.004,,2829.992,2832.844,0,1,left,2832.844,2836.619,0,1,left,0,2836.619,2836.619,2836.623,2838.118,0,21,21,21,1,0.8,0.2,0.4,0.6,,,,,,,,,,,,,,,2.352,,0.4,0.6,0.8,0.2,0.2,0.8,0.2,0.8,,,3.27,,0.6,0.4,0.2,0.8,0.6,0.4,0.2,0.8,1,0
,,60dc9eef1d2e18498fddb772,66fc998519a305dfc4632b01,2024-10-01_18h55.29.800,mdp,2024.2.1,Win32,500,66fa4ebf79326e780c390304,,,,,,,,,,,,,,,,,,,,,2838.118,2838.118,2838.119,2841.902,0,0,left,3.282,,2841.902,2844.837,0,0,left,2844.843,2848.483,0,1,left,0,2848.483,2848.483,2848.49,2849.982,0,22,22,22,1,0.8,0.2,0.4,0.6,,,,,,,,,,,,,,,2.432,,0.4,0.6,0.8,0.2,0.2,0.8,0.2,0.8,,,3.142,,0.6,0.4,0.2,0.8,0.6,0.4,0.2,0.8,1,0
,,60dc9eef1d2e18498fddb772,66fc998519a305dfc4632b01,2024-10-01_18h55.29.800,mdp,2024.2.1,Win32,500,66fa4ebf79326e780c390304,,,,,,,,,,,,,,,,,,,,,2849.983,2849.983,2849.984,2853.663,0,0,left,3.178,,2853.668,2856.614,0,1,left,2856.622,2861.188,0,1,left,0,2861.188,2861.188,2861.193,2862.687,0,23,23,23,1,0.8,0.2,0.4,0.6,,,,,,,,,,,,,,,2.448,,0.4,0.6,0.8,0.2,0.2,0.8,0.2,0.8,,,4.068,,0.6,0.4,0.2,0.8,0.6,0.4,0.2,0.8,1,0
,,60dc9eef1d2e18498fddb772,66fc998519a305dfc4632b01,2024-10-01_18h55.29.800,mdp,2024.2.1,Win32,500,66fa4ebf79326e780c390304,,,,,,,,,,,,,,,,,,,,,2862.687,2862.687,2862.689,2867.02,0,1,left,3.831,,2867.025,2872.933,0,1,left,2872.938,2877.084,0,1,left,0,2877.084,2877.084,2877.089,2878.583,0,24,24,24,1,0.8,0.2,0.4,0.6,,,,,,,,,,,,,,,5.411,,0.4,0.6,0.8,0.2,0.2,0.8,0.2,0.8,,,3.646,,0.6,0.4,0.2,0.8,0.6,0.4,0.2,0.8,1,0
,,60dc9eef1d2e18498fddb772,66fc998519a305dfc4632b01,2024-10-01_18h55.29.800,mdp,2024.2.1,Win32,500,66fa4ebf79326e780c390304,,,,,,,,,,,,,,,,,,,,,2878.583,2878.583,2878.584,2882.147,0,0,left,3.058,,2882.153,2891.485,1,0,right,2891.491,2895.183,0,1,left,0,2895.183,2895.183,2895.183,2896.681,0,25,25,25,1,0.8,0.2,0.4,0.6,,,,,,,,,,,,,,,8.833,,0.4,0.6,0.8,0.2,0.2,0.8,0.2,0.8,,,3.192,,0.6,0.4,0.2,0.8,0.6,0.4,0.2,0.8,1,0
,,60dc9eef1d2e18498fddb772,66fc998519a305dfc4632b01,2024-10-01_18h55.29.800,mdp,2024.2.1,Win32,500,66fa4ebf79326e780c390304,,,,,,,,,,,,,,,,,,,,,2896.682,2896.682,2896.683,2900.554,0,0,left,3.366,,2900.559,2905.528,1,0,right,2905.533,2909.349,0,1,left,0,2909.349,2909.349,2909.349,2910.848,0,26,26,26,1,0.8,0.2,0.4,0.6,,,,,,,,,,,,,,,4.471,,0.4,0.6,0.8,0.2,0.2,0.8,0.2,0.8,,,3.318,,0.6,0.4,0.2,0.8,0.6,0.4,0.2,0.8,1,0
,,60dc9eef1d2e18498fddb772,66fc998519a305dfc4632b01,2024-10-01_18h55.29.800,mdp,2024.2.1,Win32,500,66fa4ebf79326e780c390304,,,,,,,,,,,,,,,,,,,,,2910.849,2910.849,2910.849,2918.947,0,1,left,7.595,,2918.952,2926.524,1,1,right,2926.529,2930.788,0,0,left,1,2930.788,2930.788,2930.793,2932.287,0,27,27,27,1,0.4,0.6,0.8,0.2,,,,,,,,,,,,,,,7.071,,0.4,0.6,0.8,0.2,0.2,0.8,0.2,0.8,,,3.755,,0.6,0.4,0.2,0.8,0.6,0.4,0.2,0.8,1,0
,,60dc9eef1d2e18498fddb772,66fc998519a305dfc4632b01,2024-10-01_18h55.29.800,mdp,2024.2.1,Win32,500,66fa4ebf79326e780c390304,,,,,,,,,,,,,,,,,,,,,2932.287,2932.287,2932.287,2935.46,0,0,left,2.669,,2935.466,2939.734,0,1,left,2939.739,2943.227,0,0,left,1,2943.227,2943.227,2943.233,2944.727,0,28,28,28,1,0.4,0.6,0.8,0.2,,,,,,,,,,,,,,,3.768,,0.4,0.6,0.8,0.2,0.2,0.8,0.2,0.8,,,2.991,,0.6,0.4,0.2,0.8,0.6,0.4,0.2,0.8,1,0
,,60dc9eef1d2e18498fddb772,66fc998519a305dfc4632b01,2024-10-01_18h55.29.800,mdp,2024.2.1,Win32,500,66fa4ebf79326e780c390304,,,,,,,,,,,,,,,,,,,,,2944.727,2944.727,2944.728,2947.206,0,1,left,1.975,,2947.211,2953.766,0,1,left,2953.771,2957.028,0,0,left,1,2957.028,2957.028,2957.034,2958.528,0,29,29,29,1,0.4,0.6,0.8,0.2,,,,,,,,,,,,,,,6.056,,0.4,0.6,0.8,0.2,0.2,0.8,0.2,0.8,,,2.759,,0.6,0.4,0.2,0.8,0.6,0.4,0.2,0.8,1,0
,,60dc9eef1d2e18498fddb772,66fc998519a305dfc4632b01,2024-10-01_18h55.29.800,mdp,2024.2.1,Win32,500,66fa4ebf79326e780c390304,,,,,,,,,,,,,,,,,,,,,2958.528,2958.528,2958.529,2962.111,0,0,left,3.078,,2962.117,2964.378,0,1,left,2964.378,2968.125,0,0,left,1,2968.125,2968.125,2968.131,2969.625,0,30,30,30,1,0.4,0.6,0.8,0.2,,,,,,,,,,,,,,,1.761,,0.4,0.6,0.8,0.2,0.2,0.8,0.2,0.8,,,3.245,,0.6,0.4,0.2,0.8,0.6,0.4,0.2,0.8,1,0
,,60dc9eef1d2e18498fddb772,66fc998519a305dfc4632b01,2024-10-01_18h55.29.800,mdp,2024.2.1,Win32,500,66fa4ebf79326e780c390304,,,,,,,,,,,,,,,,,,,,,2969.625,2969.625,2969.625,2971.461,0,1,left,1.332,,2971.461,2974.47,0,0,left,2974.471,2979.325,0,0,left,1,2979.325,2979.325,2979.331,2980.824,0,31,31,31,1,0.4,0.6,0.8,0.2,,,,,,,,,,,,,,,2.505,,0.4,0.6,0.8,0.2,0.2,0.8,0.2,0.8,,,4.349,,0.6,0.4,0.2,0.8,0.6,0.4,0.2,0.8,1,0
,,60dc9eef1d2e18498fddb772,66fc998519a305dfc4632b01,2024-10-01_18h55.29.800,mdp,2024.2.1,Win32,500,66fa4ebf79326e780c390304,,,,,,,,,,,,,,,,,,,,,2980.824,2980.824,2980.826,2983.164,0,1,left,1.836,,2983.169,2986.809,0,1,left,2986.809,2994.116,0,1,left,0,2994.116,2994.116,2994.122,2995.616,0,32,32,32,1,0.4,0.6,0.8,0.2,,,,,,,,,,,,,,,3.141,,0.4,0.6,0.8,0.2,0.2,0.8,0.2,0.8,,,6.8,,0.6,0.4,0.2,0.8,0.6,0.4,0.2,0.8,1,0
,,60dc9eef1d2e18498fddb772,66fc998519a305dfc4632b01,2024-10-01_18h55.29.800,mdp,2024.2.1,Win32,500,66fa4ebf79326e780c390304,,,,,,,,,,,,,,,,,,,,,2995.616,2995.616,2995.616,2999.427,0,0,left,3.306,,2999.433,3002.606,0,0,left,3002.612,3006.164,0,1,left,0,3006.164,3006.164,3006.17,3007.664,0,33,33,33,1,0.4,0.6,0.8,0.2,,,,,,,,,,,,,,,2.676,,0.4,0.6,0.8,0.2,0.2,0.8,0.2,0.8,,,3.054,,0.6,0.4,0.2,0.8,0.6,0.4,0.2,0.8,1,0
,,60dc9eef1d2e18498fddb772,66fc998519a305dfc4632b01,2024-10-01_18h55.29.800,mdp,2024.2.1,Win32,500,66fa4ebf79326e780c390304,,,,,,,,,,,,,,,,,,,,,3007.664,3007.664,3007.664,3013.851,0,1,left,5.685,,3013.856,3021.236,0,1,left,3021.243,3023.762,0,0,left,1,3023.762,3023.762,3023.763,3025.262,0,34,34,34,1,0.4,0.6,0.8,0.2,,,,,,,,,,,,,,,6.883,,0.4,0.6,0.8,0.2,0.2,0.8,0.2,0.8,,,2.02,,0.6,0.4,0.2,0.8,0.6,0.4,0.2,0.8,1,0
,,60dc9eef1d2e18498fddb772,66fc998519a305dfc4632b01,2024-10-01_18h55.29.800,mdp,2024.2.1,Win32,500,66fa4ebf79326e780c390304,,,,,,,,,,,,,,,,,,,,,3025.262,3025.262,3025.263,3027.758,0,0,left,1.991,,3027.758,3031.823,0,1,left,3031.828,3035.413,0,1,left,0,3035.413,3035.413,3035.417,3036.913,0,35,35,35,1,0.4,0.6,0.8,0.2,,,,,,,,,,,,,,,3.56,,0.4,0.6,0.8,0.2,0.2,0.8,0.2,0.8,,,3.085,,0.6,0.4,0.2,0.8,0.6,0.4,0.2,0.8,1,0
,,60dc9eef1d2e18498fddb772,66fc998519a305dfc4632b01,2024-10-01_18h55.29.800,mdp,2024.2.1,Win32,500,66fa4ebf79326e780c390304,,,,,,,,,,,,,,,,,,,,,3036.913,3036.913,3036.914,3041.778,0,1,left,4.364,,3041.783,3045.461,0,0,left,3045.467,3047.948,0,0,left,1,3047.948,3047.948,3047.948,3049.447,0,36,36,36,1,0.4,0.6,0.8,0.2,,,,,,,,,,,,,,,3.179,,0.4,0.6,0.8,0.2,0.2,0.8,0.2,0.8,,,1.983,,0.6,0.4,0.2,0.8,0.6,0.4,0.2,0.8,1,0
,,60dc9eef1d2e18498fddb772,66fc998519a305dfc4632b01,2024-10-01_18h55.29.800,mdp,2024.2.1,Win32,500,66fa4ebf79326e780c390304,,,,,,,,,,,,,,,,,,,,,3049.447,3049.447,3049.448,3051.637,0,1,left,1.686,,3051.637,3060.872,0,1,left,3060.878,3063.287,0,0,left,1,3063.287,3063.287,3063.287,3064.786,0,37,37,37,1,0.4,0.6,0.8,0.2,,,,,,,,,,,,,,,8.732,,0.4,0.6,0.8,0.2,0.2,0.8,0.2,0.8,,,1.909,,0.8,0.2,0.8,0.2,0.6,0.4,0.2,0.8,1,0
,,60dc9eef1d2e18498fddb772,66fc998519a305dfc4632b01,2024-10-01_18h55.29.800,mdp,2024.2.1,Win32,500,66fa4ebf79326e780c390304,,,,,,,,,,,,,,,,,,,,,3064.786,3064.786,3064.787,3067.552,0,0,left,2.262,,3067.557,3073.276,0,0,left,3073.282,3076.206,0,0,left,1,3076.206,3076.206,3076.206,3077.706,0,38,38,38,1,0.4,0.6,0.8,0.2,,,,,,,,,,,,,,,5.221,,0.4,0.6,0.8,0.2,0.2,0.8,0.2,0.8,,,2.423,,0.8,0.2,0.8,0.2,0.6,0.4,0.2,0.8,1,0
,,60dc9eef1d2e18498fddb772,66fc998519a305dfc4632b01,2024-10-01_18h55.29.800,mdp,2024.2.1,Win32,500,66fa4ebf79326e780c390304,,,,,,,,,,,,,,,,,,,,,3077.706,3077.706,3077.706,3079.058,0,1,left,0.848,,3079.058,3082.852,0,0,left,3082.852,3085.89,0,0,left,1,3085.89,3085.89,3085.896,3087.389,0,39,39,39,1,0.4,0.6,0.8,0.2,,,,,,,,,,,,,,,3.289,,0.4,0.6,0.8,0.2,0.8,0.2,0.6,0.4,,,2.535,,0.8,0.2,0.8,0.2,0.6,0.4,0.2,0.8,1,0
,,60dc9eef1d2e18498fddb772,66fc998519a305dfc4632b01,2024-10-01_18h55.29.800,mdp,2024.2.1,Win32,500,66fa4ebf79326e780c390304,,,,,,,,,,,,,,,,,,,,,3087.39,3087.39,3087.39,3089.949,0,1,left,2.056,,3089.949,3092.858,0,1,left,3092.858,3094.989,0,1,left,0,3094.989,3094.989,3094.995,3096.489,0,40,40,40,1,0.4,0.6,0.8,0.2,,,,,,,,,,,,,,,2.406,,0.4,0.6,0.8,0.2,0.8,0.2,0.6,0.4,,,1.625,,0.8,0.2,0.8,0.2,0.6,0.4,0.2,0.8,1,0
,,60dc9eef1d2e18498fddb772,66fc998519a305dfc4632b01,2024-10-01_18h55.29.800,mdp,2024.2.1,Win32,500,66fa4ebf79326e780c390304,,,,,,,,,,,,,,,,,,,,,3096.489,3096.489,3096.489,3098.144,0,1,left,1.153,,3098.144,3101.448,0,0,left,3101.455,3104.659,0,0,left,1,3104.659,3104.659,3104.66,3106.158,0,41,41,41,1,0.4,0.6,0.8,0.2,,,,,,,,,,,,,,,2.801,,0.4,0.6,0.8,0.2,0.8,0.2,0.6,0.4,,,2.704,,0.8,0.2,0.8,0.2,0.6,0.4,0.2,0.8,1,0
,,60dc9eef1d2e18498fddb772,66fc998519a305dfc4632b01,2024-10-01_18h55.29.800,mdp,2024.2.1,Win32,500,66fa4ebf79326e780c390304,,,,,,,,,,,,,,,,,,,,,3106.159,3106.159,3106.159,3108.412,0,1,left,1.751,,3108.412,3113.405,0,0,left,3113.411,3116.226,0,0,left,1,3116.226,3116.226,3116.226,3117.725,0,42,42,42,1,0.4,0.6,0.8,0.2,,,,,,,,,,,,,,,4.491,,0.4,0.6,0.8,0.2,0.8,0.2,0.6,0.4,,,2.317,,0.8,0.2,0.8,0.2,0.6,0.4,0.2,0.8,1,0
,,60dc9eef1d2e18498fddb772,66fc998519a305dfc4632b01,2024-10-01_18h55.29.800,mdp,2024.2.1,Win32,500,66fa4ebf79326e780c390304,,,,,,,,,,,,,,,,,,,,,3117.725,3117.725,3117.726,3124.263,0,1,left,6.034,,3124.267,3127.606,0,0,left,3127.611,3130.675,0,0,left,1,3130.675,3130.675,3130.675,3132.175,0,43,43,43,1,0.4,0.6,0.8,0.2,,,,,,,,,,,,,,,2.841,,0.4,0.6,0.8,0.2,0.8,0.2,0.6,0.4,,,2.563,,0.8,0.2,0.8,0.2,0.6,0.4,0.2,0.8,1,0
,,60dc9eef1d2e18498fddb772,66fc998519a305dfc4632b01,2024-10-01_18h55.29.800,mdp,2024.2.1,Win32,500,66fa4ebf79326e780c390304,,,,,,,,,,,,,,,,,,,,,3132.175,3132.175,3132.175,3134.917,0,1,left,2.239,,3134.922,3138.3,0,0,left,3138.301,3141.368,0,0,left,1,3141.368,3141.368,3141.373,3142.867,0,44,44,44,1,0.4,0.6,0.8,0.2,,,,,,,,,,,,,,,2.88,,0.6,0.4,0.6,0.4,0.8,0.2,0.6,0.4,,,2.565,,0.8,0.2,0.8,0.2,0.6,0.4,0.2,0.8,1,0
,,60dc9eef1d2e18498fddb772,66fc998519a305dfc4632b01,2024-10-01_18h55.29.800,mdp,2024.2.1,Win32,500,66fa4ebf79326e780c390304,,,,,,,,,,,,,,,,,,,,,3142.868,3142.868,3142.869,3144.661,0,0,left,1.291,,3144.662,3147.717,0,1,left,3147.721,3156.421,0,1,left,0,3156.421,3156.421,3156.427,3157.92,0,45,45,45,1,0.4,0.6,0.8,0.2,,,,,,,,,,,,,,,2.55,,0.6,0.4,0.6,0.4,0.8,0.2,0.6,0.4,,,8.2,,0.8,0.2,0.8,0.2,0.6,0.4,0.2,0.8,1,0
,,60dc9eef1d2e18498fddb772,66fc998519a305dfc4632b01,2024-10-01_18h55.29.800,mdp,2024.2.1,Win32,500,66fa4ebf79326e780c390304,,,,,,,,,,,,,,,,,,,,,3157.921,3157.921,3157.921,3163.209,0,1,left,4.782,,3163.214,3166.196,0,0,left,3166.197,3168.945,0,0,left,1,3168.945,3168.945,3168.95,3170.444,0,46,46,46,1,0.4,0.6,0.8,0.2,,,,,,,,,,,,,,,2.482,,0.6,0.4,0.6,0.4,0.8,0.2,0.6,0.4,,,2.244,,0.8,0.2,0.8,0.2,0.6,0.4,0.2,0.8,1,0
,,60dc9eef1d2e18498fddb772,66fc998519a305dfc4632b01,2024-10-01_18h55.29.800,mdp,2024.2.1,Win32,500,66fa4ebf79326e780c390304,,,,,,,,,,,,,,,,,,,,,3170.444,3170.444,3170.445,3173.515,0,1,left,2.568,,3173.516,3177.68,0,0,left,3177.685,3180.679,0,0,left,1,3180.679,3180.679,3180.683,3182.178,0,47,47,47,1,0.4,0.6,0.8,0.2,,,,,,,,,,,,,,,3.662,,0.6,0.4,0.6,0.4,0.8,0.2,0.6,0.4,,,2.496,,0.8,0.2,0.8,0.2,0.6,0.4,0.2,0.8,1,0
,,60dc9eef1d2e18498fddb772,66fc998519a305dfc4632b01,2024-10-01_18h55.29.800,mdp,2024.2.1,Win32,500,66fa4ebf79326e780c390304,,,,,,,,,,,,,,,,,,,,,3182.178,3182.178,3182.179,3185.586,0,1,left,2.905,,3185.591,3193.934,0,0,left,3193.939,3198.187,0,0,left,1,3198.187,3198.188,3198.193,3199.687,0,48,48,48,1,0.4,0.6,0.8,0.2,,,,,,,,,,,,,,,7.845,,0.6,0.4,0.6,0.4,0.8,0.2,0.6,0.4,,,3.75,,0.8,0.2,0.8,0.2,0.6,0.4,0.2,0.8,1,0
,,60dc9eef1d2e18498fddb772,66fc998519a305dfc4632b01,2024-10-01_18h55.29.800,mdp,2024.2.1,Win32,500,66fa4ebf79326e780c390304,,,,,,,,,,,,,,,,,,,,,3199.687,3199.687,3199.687,3201.537,1,1,right,1.345,,3201.538,3209.922,0,0,left,3209.928,3213.145,0,0,left,1,3213.145,3213.145,3213.146,3214.645,0,49,49,49,1,0.4,0.6,0.8,0.2,,,,,,,,,,,,,,,7.883,,0.6,0.4,0.6,0.4,0.8,0.2,0.6,0.4,,,2.719,,0.8,0.2,0.8,0.2,0.6,0.4,0.2,0.8,1,0
,,60dc9eef1d2e18498fddb772,66fc998519a305dfc4632b01,2024-10-01_18h55.29.800,mdp,2024.2.1,Win32,500,66fa4ebf79326e780c390304,,,,,,,,,,,,,,,,,,,,,,,,,,,,,,,,,,,,,,,,,,,,,,,,,,,,,,,,3214.645,3273.148,0,3,3,7,1,imgs/goat.png,imgs/cat.png,imgs/elephant.png,imgs/dog.png,imgs/kangaroo.png,,,,,,,,,,,,,,,,,,,,,,,,
,,60dc9eef1d2e18498fddb772,66fc998519a305dfc4632b01,2024-10-01_18h55.29.800,mdp,2024.2.1,Win32,500,66fa4ebf79326e780c390304,,,,,,,,,,,,,,1,seqs/st1seq36.csv,3273.154,3297.628,space,23.972,0,3297.635,3297.635,3297.636,3304.045,1,1,right,5.905,,3304.051,3304.051,0,1,,3304.051,3304.052,0,1,,0,3304.052,3304.052,3304.052,3305.55,0,0,0,0,1,0.6,0.4,0.4,0.6,1,0,,,,,,,,,,,,,,,,,,,,,,,,,,,,,,,,,,,,
,,60dc9eef1d2e18498fddb772,66fc998519a305dfc4632b01,2024-10-01_18h55.29.800,mdp,2024.2.1,Win32,500,66fa4ebf79326e780c390304,,,,,,,,,,,,,,,,,,,,,3305.551,3305.551,3305.551,3309.013,0,0,left,2.961,,3309.018,3309.018,0,0,,3309.018,3309.018,0,1,,1,3309.018,3309.018,3309.019,3310.516,0,1,1,1,1,0.6,0.4,0.4,0.6,1,0,,,,,,,,,,,,,,,,,,,,,,,,,,,,,,,,,,,,
,,60dc9eef1d2e18498fddb772,66fc998519a305dfc4632b01,2024-10-01_18h55.29.800,mdp,2024.2.1,Win32,500,66fa4ebf79326e780c390304,,,,,,,,,,,,,,,,,,,,,3310.516,3310.516,3310.517,3312.105,0,0,left,1.085,,3312.105,3312.106,0,1,,3312.106,3312.106,0,1,,1,3312.106,3312.106,3312.106,3313.606,0,2,2,2,1,0.4,0.6,0.8,0.2,1,0,,,,,,,,,,,,,,,,,,,,,,,,,,,,,,,,,,,,
,,60dc9eef1d2e18498fddb772,66fc998519a305dfc4632b01,2024-10-01_18h55.29.800,mdp,2024.2.1,Win32,500,66fa4ebf79326e780c390304,,,,,,,,,,,,,,,,,,,,,3313.607,3313.607,3313.607,3314.697,0,0,left,0.588,,3314.697,3314.698,0,0,,3314.698,3314.698,0,0,,1,3314.698,3314.698,3314.699,3316.196,0,3,3,3,1,0.4,0.6,0.8,0.2,1,0,,,,,,,,,,,,,,,,,,,,,,,,,,,,,,,,,,,,
,,60dc9eef1d2e18498fddb772,66fc998519a305dfc4632b01,2024-10-01_18h55.29.800,mdp,2024.2.1,Win32,500,66fa4ebf79326e780c390304,,,,,,,,,,,,,,,,,,,,,3316.196,3316.196,3316.197,3317.254,0,1,left,0.554,,3317.254,3317.255,0,1,,3317.255,3317.255,0,0,,0,3317.255,3317.255,3317.256,3318.753,0,4,4,4,1,0.4,0.6,0.8,0.2,1,0,,,,,,,,,,,,,,,,,,,,,,,,,,,,,,,,,,,,
,,60dc9eef1d2e18498fddb772,66fc998519a305dfc4632b01,2024-10-01_18h55.29.800,mdp,2024.2.1,Win32,500,66fa4ebf79326e780c390304,,,,,,,,,,,,,,,,,,,,,3318.754,3318.754,3318.754,3320.623,0,0,left,1.365,,3320.623,3320.623,0,0,,3320.624,3320.624,0,0,,1,3320.624,3320.624,3320.624,3322.122,0,5,5,5,1,0.4,0.6,0.8,0.2,1,0,,,,,,,,,,,,,,,,,,,,,,,,,,,,,,,,,,,,
,,60dc9eef1d2e18498fddb772,66fc998519a305dfc4632b01,2024-10-01_18h55.29.800,mdp,2024.2.1,Win32,500,66fa4ebf79326e780c390304,,,,,,,,,,,,,,,,,,,,,3322.123,3322.123,3322.123,3323.312,0,1,left,0.686,,3323.313,3323.314,0,1,,3323.314,3323.314,0,0,,0,3323.314,3323.314,3323.315,3324.812,0,6,6,6,1,0.4,0.6,0.8,0.2,1,0,,,,,,,,,,,,,,,,,,,,,,,,,,,,,,,,,,,,
,,60dc9eef1d2e18498fddb772,66fc998519a305dfc4632b01,2024-10-01_18h55.29.800,mdp,2024.2.1,Win32,500,66fa4ebf79326e780c390304,,,,,,,,,,,,,,,,,,,,,3324.812,3324.812,3324.812,3326.122,0,1,left,0.808,,3326.122,3326.123,0,1,,3326.123,3326.123,0,1,,0,3326.123,3326.123,3326.124,3327.621,0,7,7,7,1,0.4,0.6,0.8,0.2,1,0,,,,,,,,,,,,,,,,,,,,,,,,,,,,,,,,,,,,
,,60dc9eef1d2e18498fddb772,66fc998519a305dfc4632b01,2024-10-01_18h55.29.800,mdp,2024.2.1,Win32,500,66fa4ebf79326e780c390304,,,,,,,,,,,,,,,,,,,,,3327.622,3327.622,3327.622,3328.729,0,0,left,0.604,,3328.73,3328.73,0,1,,3328.73,3328.73,0,1,,1,3328.73,3328.73,3328.73,3330.23,0,8,8,8,1,0.4,0.6,0.8,0.2,1,0,,,,,,,,,,,,,,,,,,,,,,,,,,,,,,,,,,,,
,,60dc9eef1d2e18498fddb772,66fc998519a305dfc4632b01,2024-10-01_18h55.29.800,mdp,2024.2.1,Win32,500,66fa4ebf79326e780c390304,,,,,,,,,,,,,,,,,,,,,3330.23,3330.23,3330.23,3331.91,0,1,left,1.177,,3331.91,3331.911,0,0,,3331.911,3331.911,0,1,,0,3331.911,3331.911,3331.911,3333.409,0,9,9,9,1,0.4,0.6,0.8,0.2,1,0,,,,,,,,,,,,,,,,,,,,,,,,,,,,,,,,,,,,
,,60dc9eef1d2e18498fddb772,66fc998519a305dfc4632b01,2024-10-01_18h55.29.800,mdp,2024.2.1,Win32,500,66fa4ebf79326e780c390304,,,,,,,,,,,,,,,,,,,,,3333.41,3333.41,3333.41,3335.206,0,0,left,1.293,,3335.207,3335.207,0,1,,3335.207,3335.207,0,1,,1,3335.207,3335.207,3335.208,3336.705,0,10,10,10,1,0.2,0.8,0.6,0.4,1,0,,,,,,,,,,,,,,,,,,,,,,,,,,,,,,,,,,,,
,,60dc9eef1d2e18498fddb772,66fc998519a305dfc4632b01,2024-10-01_18h55.29.800,mdp,2024.2.1,Win32,500,66fa4ebf79326e780c390304,,,,,,,,,,,,,,,,,,,,,3336.705,3336.705,3336.705,3337.895,0,1,left,0.687,,3337.896,3337.896,0,1,,3337.896,3337.897,0,1,,0,3337.897,3337.897,3337.897,3339.397,0,11,11,11,1,0.2,0.8,0.6,0.4,1,0,,,,,,,,,,,,,,,,,,,,,,,,,,,,,,,,,,,,
,,60dc9eef1d2e18498fddb772,66fc998519a305dfc4632b01,2024-10-01_18h55.29.800,mdp,2024.2.1,Win32,500,66fa4ebf79326e780c390304,,,,,,,,,,,,,,,,,,,,,3339.397,3339.397,3339.397,3340.895,0,1,left,0.995,,3340.895,3340.895,0,0,,3340.895,3340.896,0,1,,0,3340.896,3340.896,3340.896,3342.396,0,12,12,12,1,0.2,0.8,0.6,0.4,1,0,,,,,,,,,,,,,,,,,,,,,,,,,,,,,,,,,,,,
,,60dc9eef1d2e18498fddb772,66fc998519a305dfc4632b01,2024-10-01_18h55.29.800,mdp,2024.2.1,Win32,500,66fa4ebf79326e780c390304,,,,,,,,,,,,,,,,,,,,,3342.397,3342.397,3342.397,3343.85,0,0,left,0.95,,3343.85,3343.85,0,1,,3343.85,3343.85,0,1,,1,3343.85,3343.85,3343.851,3345.349,0,13,13,13,1,0.2,0.8,0.6,0.4,1,0,,,,,,,,,,,,,,,,,,,,,,,,,,,,,,,,,,,,
,,60dc9eef1d2e18498fddb772,66fc998519a305dfc4632b01,2024-10-01_18h55.29.800,mdp,2024.2.1,Win32,500,66fa4ebf79326e780c390304,,,,,,,,,,,,,,,,,,,,,3345.349,3345.349,3345.349,3347.474,0,1,left,1.622,,3347.475,3347.475,0,1,,3347.476,3347.476,0,1,,0,3347.476,3347.476,3347.476,3348.975,0,14,14,14,1,0.2,0.8,0.6,0.4,1,0,,,,,,,,,,,,,,,,,,,,,,,,,,,,,,,,,,,,
,,60dc9eef1d2e18498fddb772,66fc998519a305dfc4632b01,2024-10-01_18h55.29.800,mdp,2024.2.1,Win32,500,66fa4ebf79326e780c390304,,,,,,,,,,,,,,,,,,,,,3348.975,3348.975,3348.975,3349.855,0,1,left,0.376,,3349.855,3349.856,0,1,,3349.856,3349.856,0,0,,0,3349.856,3349.856,3349.857,3351.356,0,15,15,15,1,0.2,0.8,0.6,0.4,1,0,,,,,,,,,,,,,,,,,,,,,,,,,,,,,,,,,,,,
,,60dc9eef1d2e18498fddb772,66fc998519a305dfc4632b01,2024-10-01_18h55.29.800,mdp,2024.2.1,Win32,500,66fa4ebf79326e780c390304,,,,,,,,,,,,,,,,,,,,,3351.356,3351.356,3351.357,3352.722,0,0,left,0.864,,3352.724,3352.724,0,0,,3352.724,3352.724,0,0,,1,3352.724,3352.724,3352.724,3354.224,0,16,16,16,1,0.8,0.2,0.2,0.8,1,0,,,,,,,,,,,,,,,,,,,,,,,,,,,,,,,,,,,,
,,60dc9eef1d2e18498fddb772,66fc998519a305dfc4632b01,2024-10-01_18h55.29.800,mdp,2024.2.1,Win32,500,66fa4ebf79326e780c390304,,,,,,,,,,,,,,,,,,,,,3354.225,3354.225,3354.226,3355.616,1,1,right,0.888,,3355.616,3355.616,0,1,,3355.617,3355.617,0,1,,0,3355.617,3355.617,3355.617,3357.118,0,17,17,17,1,0.8,0.2,0.2,0.8,1,0,,,,,,,,,,,,,,,,,,,,,,,,,,,,,,,,,,,,
,,60dc9eef1d2e18498fddb772,66fc998519a305dfc4632b01,2024-10-01_18h55.29.800,mdp,2024.2.1,Win32,500,66fa4ebf79326e780c390304,,,,,,,,,,,,,,,,,,,,,3357.118,3357.118,3357.118,3358.799,1,0,right,1.179,,3358.801,3358.801,0,1,,3358.801,3358.801,0,1,,1,3358.801,3358.801,3358.801,3360.3,0,18,18,18,1,0.8,0.2,0.2,0.8,1,0,,,,,,,,,,,,,,,,,,,,,,,,,,,,,,,,,,,,
,,60dc9eef1d2e18498fddb772,66fc998519a305dfc4632b01,2024-10-01_18h55.29.800,mdp,2024.2.1,Win32,500,66fa4ebf79326e780c390304,,,,,,,,,,,,,,,,,,,,,3360.301,3360.301,3360.301,3361.58,1,1,right,0.774,,3361.581,3361.581,0,1,,3361.581,3361.581,0,1,,0,3361.581,3361.581,3361.582,3363.081,0,19,19,19,1,0.8,0.2,0.2,0.8,1,0,,,,,,,,,,,,,,,,,,,,,,,,,,,,,,,,,,,,
,,60dc9eef1d2e18498fddb772,66fc998519a305dfc4632b01,2024-10-01_18h55.29.800,mdp,2024.2.1,Win32,500,66fa4ebf79326e780c390304,,,,,,,,,,,,,,,,,,,,,3363.081,3363.081,3363.082,3364.772,1,0,right,1.188,,3364.773,3364.773,0,1,,3364.773,3364.773,0,1,,1,3364.773,3364.773,3364.773,3366.272,0,20,20,20,1,0.8,0.2,0.2,0.8,1,0,,,,,,,,,,,,,,,,,,,,,,,,,,,,,,,,,,,,
,,60dc9eef1d2e18498fddb772,66fc998519a305dfc4632b01,2024-10-01_18h55.29.800,mdp,2024.2.1,Win32,500,66fa4ebf79326e780c390304,,,,,,,,,,,,,,,,,,,,,3366.273,3366.273,3366.274,3368.004,1,1,right,1.23,,3368.005,3368.005,0,1,,3368.012,3368.012,0,1,,0,3368.012,3368.012,3368.012,3369.511,0,21,21,21,1,0.8,0.2,0.2,0.8,1,0,,,,,,,,,,,,,,,,,,,,,,,,,,,,,,,,,,,,
,,60dc9eef1d2e18498fddb772,66fc998519a305dfc4632b01,2024-10-01_18h55.29.800,mdp,2024.2.1,Win32,500,66fa4ebf79326e780c390304,,,,,,,,,,,,,,,,,,,,,3369.511,3369.511,3369.512,3371.442,1,1,right,1.428,,3371.442,3371.443,0,1,,3371.443,3371.443,0,0,,0,3371.443,3371.443,3371.443,3372.941,0,22,22,22,1,0.8,0.2,0.2,0.8,1,0,,,,,,,,,,,,,,,,,,,,,,,,,,,,,,,,,,,,
,,60dc9eef1d2e18498fddb772,66fc998519a305dfc4632b01,2024-10-01_18h55.29.800,mdp,2024.2.1,Win32,500,66fa4ebf79326e780c390304,,,,,,,,,,,,,,,,,,,,,3372.941,3372.941,3372.942,3374.246,0,0,left,0.802,,3374.246,3374.247,0,0,,3374.247,3374.247,0,0,,1,3374.247,3374.247,3374.247,3375.748,0,23,23,23,1,0.8,0.2,0.2,0.8,1,0,,,,,,,,,,,,,,,,,,,,,,,,,,,,,,,,,,,,
,,60dc9eef1d2e18498fddb772,66fc998519a305dfc4632b01,2024-10-01_18h55.29.800,mdp,2024.2.1,Win32,500,66fa4ebf79326e780c390304,,,,,,,,,,,,,,,,,,,,,3375.748,3375.748,3375.748,3377.145,0,0,left,0.894,,3377.145,3377.146,0,0,,3377.146,3377.146,0,1,,1,3377.146,3377.146,3377.146,3378.647,0,24,24,24,1,0.8,0.2,0.2,0.8,1,0,,,,,,,,,,,,,,,,,,,,,,,,,,,,,,,,,,,,
,,60dc9eef1d2e18498fddb772,66fc998519a305dfc4632b01,2024-10-01_18h55.29.800,mdp,2024.2.1,Win32,500,66fa4ebf79326e780c390304,,,,,,,,,,,,,,,,,,,,,3378.647,3378.647,3378.647,3380.006,0,1,left,0.857,,3380.008,3380.008,0,0,,3380.008,3380.008,0,0,,0,3380.008,3380.008,3380.008,3381.507,0,25,25,25,1,0.8,0.2,0.2,0.8,1,0,,,,,,,,,,,,,,,,,,,,,,,,,,,,,,,,,,,,
,,60dc9eef1d2e18498fddb772,66fc998519a305dfc4632b01,2024-10-01_18h55.29.800,mdp,2024.2.1,Win32,500,66fa4ebf79326e780c390304,,,,,,,,,,,,,,,,,,,,,3381.507,3381.507,3381.507,3383.205,0,0,left,1.197,,3383.206,3383.206,0,0,,3383.206,3383.206,0,0,,1,3383.206,3383.206,3383.206,3384.705,0,26,26,26,1,0.8,0.2,0.2,0.8,1,0,,,,,,,,,,,,,,,,,,,,,,,,,,,,,,,,,,,,
,,60dc9eef1d2e18498fddb772,66fc998519a305dfc4632b01,2024-10-01_18h55.29.800,mdp,2024.2.1,Win32,500,66fa4ebf79326e780c390304,,,,,,,,,,,,,,,,,,,,,3384.706,3384.706,3384.706,3386.689,0,0,left,1.481,,3386.69,3386.69,0,0,,3386.69,3386.691,0,0,,1,3386.691,3386.691,3386.691,3388.191,0,27,27,27,1,0.8,0.2,0.2,0.8,1,0,,,,,,,,,,,,,,,,,,,,,,,,,,,,,,,,,,,,
,,60dc9eef1d2e18498fddb772,66fc998519a305dfc4632b01,2024-10-01_18h55.29.800,mdp,2024.2.1,Win32,500,66fa4ebf79326e780c390304,,,,,,,,,,,,,,,,,,,,,3388.191,3388.191,3388.192,3389.392,0,0,left,0.698,,3389.393,3389.394,0,0,,3389.394,3389.394,0,0,,1,3389.394,3389.394,3389.394,3390.892,0,28,28,28,1,0.8,0.2,0.2,0.8,1,0,,,,,,,,,,,,,,,,,,,,,,,,,,,,,,,,,,,,
,,60dc9eef1d2e18498fddb772,66fc998519a305dfc4632b01,2024-10-01_18h55.29.800,mdp,2024.2.1,Win32,500,66fa4ebf79326e780c390304,,,,,,,,,,,,,,,,,,,,,3390.893,3390.893,3390.893,3391.635,0,1,left,0.241,,3391.636,3391.636,0,0,,3391.636,3391.637,0,0,,0,3391.637,3391.637,3391.637,3393.137,0,29,29,29,1,0.4,0.6,0.8,0.2,1,0,,,,,,,,,,,,,,,,,,,,,,,,,,,,,,,,,,,,
,,60dc9eef1d2e18498fddb772,66fc998519a305dfc4632b01,2024-10-01_18h55.29.800,mdp,2024.2.1,Win32,500,66fa4ebf79326e780c390304,,,,,,,,,,,,,,,,,,,,,3393.137,3393.137,3393.138,3394.205,0,1,left,0.566,,3394.206,3394.207,0,0,,3394.207,3394.207,0,1,,0,3394.207,3394.207,3394.207,3395.706,0,30,30,30,1,0.4,0.6,0.8,0.2,1,0,,,,,,,,,,,,,,,,,,,,,,,,,,,,,,,,,,,,
,,60dc9eef1d2e18498fddb772,66fc998519a305dfc4632b01,2024-10-01_18h55.29.800,mdp,2024.2.1,Win32,500,66fa4ebf79326e780c390304,,,,,,,,,,,,,,,,,,,,,3395.706,3395.706,3395.706,3396.976,0,1,left,0.766,,3396.976,3396.977,0,1,,3396.977,3396.977,0,1,,0,3396.977,3396.977,3396.978,3398.476,0,31,31,31,1,0.4,0.6,0.8,0.2,1,0,,,,,,,,,,,,,,,,,,,,,,,,,,,,,,,,,,,,
,,60dc9eef1d2e18498fddb772,66fc998519a305dfc4632b01,2024-10-01_18h55.29.800,mdp,2024.2.1,Win32,500,66fa4ebf79326e780c390304,,,,,,,,,,,,,,,,,,,,,3398.476,3398.476,3398.477,3399.908,0,1,left,0.931,,3399.908,3399.909,0,1,,3399.91,3399.91,0,1,,0,3399.91,3399.91,3399.91,3401.408,0,32,32,32,1,0.4,0.6,0.8,0.2,1,0,,,,,,,,,,,,,,,,,,,,,,,,,,,,,,,,,,,,
,,60dc9eef1d2e18498fddb772,66fc998519a305dfc4632b01,2024-10-01_18h55.29.800,mdp,2024.2.1,Win32,500,66fa4ebf79326e780c390304,,,,,,,,,,,,,,,,,,,,,3401.408,3401.408,3401.408,3402.657,0,0,left,0.747,,3402.657,3402.658,0,0,,3402.658,3402.658,0,1,,1,3402.658,3402.658,3402.658,3404.156,0,33,33,33,1,0.6,0.4,0.4,0.6,1,0,,,,,,,,,,,,,,,,,,,,,,,,,,,,,,,,,,,,
,,60dc9eef1d2e18498fddb772,66fc998519a305dfc4632b01,2024-10-01_18h55.29.800,mdp,2024.2.1,Win32,500,66fa4ebf79326e780c390304,,,,,,,,,,,,,,,,,,,,,3404.156,3404.156,3404.157,3405.629,0,0,left,0.971,,3405.63,3405.63,0,1,,3405.63,3405.63,0,0,,1,3405.63,3405.63,3405.631,3407.13,0,34,34,34,1,0.8,0.2,0.2,0.8,1,0,,,,,,,,,,,,,,,,,,,,,,,,,,,,,,,,,,,,
,,60dc9eef1d2e18498fddb772,66fc998519a305dfc4632b01,2024-10-01_18h55.29.800,mdp,2024.2.1,Win32,500,66fa4ebf79326e780c390304,,,,,,,,,,,,,,,,,,,,,3407.13,3407.13,3407.131,3408.404,0,0,left,0.771,,3408.405,3408.405,0,0,,3408.405,3408.406,0,0,,1,3408.406,3408.406,3408.406,3409.906,0,35,35,35,1,0.8,0.2,0.2,0.8,1,0,,,,,,,,,,,,,,,,,,,,,,,,,,,,,,,,,,,,
,,60dc9eef1d2e18498fddb772,66fc998519a305dfc4632b01,2024-10-01_18h55.29.800,mdp,2024.2.1,Win32,500,66fa4ebf79326e780c390304,,,,,,,,,,,,,,,,,,,,,3409.907,3409.907,3409.907,3411.105,0,0,left,0.697,,3411.106,3411.106,0,0,,3411.106,3411.107,0,1,,1,3411.107,3411.107,3411.108,3412.605,0,36,36,36,1,0.8,0.2,0.2,0.8,1,0,,,,,,,,,,,,,,,,,,,,,,,,,,,,,,,,,,,,
,,60dc9eef1d2e18498fddb772,66fc998519a305dfc4632b01,2024-10-01_18h55.29.800,mdp,2024.2.1,Win32,500,66fa4ebf79326e780c390304,,,,,,,,,,,,,,,,,,,,,3412.605,3412.605,3412.605,3413.77,0,0,left,0.663,,3413.771,3413.772,0,0,,3413.772,3413.772,0,1,,1,3413.772,3413.772,3413.772,3415.271,0,37,37,37,1,0.8,0.2,0.2,0.8,1,0,,,,,,,,,,,,,,,,,,,,,,,,,,,,,,,,,,,,
,,60dc9eef1d2e18498fddb772,66fc998519a305dfc4632b01,2024-10-01_18h55.29.800,mdp,2024.2.1,Win32,500,66fa4ebf79326e780c390304,,,,,,,,,,,,,,,,,,,,,3415.271,3415.271,3415.272,3416.337,0,1,left,0.562,,3416.337,3416.338,0,0,,3416.338,3416.338,0,0,,0,3416.338,3416.338,3416.338,3417.838,0,38,38,38,1,0.8,0.2,0.2,0.8,1,0,,,,,,,,,,,,,,,,,,,,,,,,,,,,,,,,,,,,
,,60dc9eef1d2e18498fddb772,66fc998519a305dfc4632b01,2024-10-01_18h55.29.800,mdp,2024.2.1,Win32,500,66fa4ebf79326e780c390304,,,,,,,,,,,,,,,,,,,,,3417.838,3417.838,3417.839,3418.746,0,0,left,0.403,,3418.746,3418.747,0,0,,3418.747,3418.747,0,0,,1,3418.747,3418.747,3418.747,3420.247,0,39,39,39,1,0.8,0.2,0.2,0.8,1,0,,,,,,,,,,,,,,,,,,,,,,,,,,,,,,,,,,,,
,,60dc9eef1d2e18498fddb772,66fc998519a305dfc4632b01,2024-10-01_18h55.29.800,mdp,2024.2.1,Win32,500,66fa4ebf79326e780c390304,,,,,,,,,,,,,,,,,,,,,3420.247,3420.247,3420.247,3421.345,0,0,left,0.597,,3421.346,3421.346,0,0,,3421.346,3421.347,0,0,,1,3421.347,3421.347,3421.348,3422.847,0,40,40,40,1,0.8,0.2,0.2,0.8,1,0,,,,,,,,,,,,,,,,,,,,,,,,,,,,,,,,,,,,
,,60dc9eef1d2e18498fddb772,66fc998519a305dfc4632b01,2024-10-01_18h55.29.800,mdp,2024.2.1,Win32,500,66fa4ebf79326e780c390304,,,,,,,,,,,,,,,,,,,,,3422.848,3422.848,3422.848,3423.607,0,0,left,0.258,,3423.607,3423.607,0,0,,3423.608,3423.608,0,0,,1,3423.608,3423.608,3423.608,3425.106,0,41,41,41,1,0.8,0.2,0.2,0.8,1,0,,,,,,,,,,,,,,,,,,,,,,,,,,,,,,,,,,,,
,,60dc9eef1d2e18498fddb772,66fc998519a305dfc4632b01,2024-10-01_18h55.29.800,mdp,2024.2.1,Win32,500,66fa4ebf79326e780c390304,,,,,,,,,,,,,,,,,,,,,3425.107,3425.107,3425.107,3425.76,0,1,left,0.151,,3425.761,3425.761,0,1,,3425.761,3425.761,0,1,,0,3425.761,3425.761,3425.761,3427.26,0,42,42,42,1,0.2,0.8,0.6,0.4,1,0,,,,,,,,,,,,,,,,,,,,,,,,,,,,,,,,,,,,
,,60dc9eef1d2e18498fddb772,66fc998519a305dfc4632b01,2024-10-01_18h55.29.800,mdp,2024.2.1,Win32,500,66fa4ebf79326e780c390304,,,,,,,,,,,,,,,,,,,,,3427.26,3427.26,3427.26,3428.669,0,0,left,0.909,,3428.671,3428.671,0,0,,3428.671,3428.671,0,0,,1,3428.671,3428.671,3428.671,3430.169,0,43,43,43,1,0.8,0.2,0.8,0.2,1,0,,,,,,,,,,,,,,,,,,,,,,,,,,,,,,,,,,,,
,,60dc9eef1d2e18498fddb772,66fc998519a305dfc4632b01,2024-10-01_18h55.29.800,mdp,2024.2.1,Win32,500,66fa4ebf79326e780c390304,,,,,,,,,,,,,,,,,,,,,3430.169,3430.169,3430.169,3431.226,0,0,left,0.554,,3431.227,3431.227,0,0,,3431.228,3431.228,0,0,,1,3431.228,3431.228,3431.228,3432.726,0,44,44,44,1,0.8,0.2,0.8,0.2,1,0,,,,,,,,,,,,,,,,,,,,,,,,,,,,,,,,,,,,
,,60dc9eef1d2e18498fddb772,66fc998519a305dfc4632b01,2024-10-01_18h55.29.800,mdp,2024.2.1,Win32,500,66fa4ebf79326e780c390304,,,,,,,,,,,,,,,,,,,,,3432.726,3432.726,3432.726,3433.449,0,0,left,0.219,,3433.45,3433.45,0,0,,3433.451,3433.451,0,1,,1,3433.451,3433.451,3433.451,3434.952,0,45,45,45,1,0.8,0.2,0.8,0.2,1,0,,,,,,,,,,,,,,,,,,,,,,,,,,,,,,,,,,,,
,,60dc9eef1d2e18498fddb772,66fc998519a305dfc4632b01,2024-10-01_18h55.29.800,mdp,2024.2.1,Win32,500,66fa4ebf79326e780c390304,,,,,,,,,,,,,,,,,,,,,3434.952,3434.952,3434.952,3435.577,0,1,left,0.123,,3435.578,3435.579,0,1,,3435.579,3435.579,0,0,,0,3435.579,3435.579,3435.58,3437.077,0,46,46,46,1,0.2,0.8,0.6,0.4,1,0,,,,,,,,,,,,,,,,,,,,,,,,,,,,,,,,,,,,
,,60dc9eef1d2e18498fddb772,66fc998519a305dfc4632b01,2024-10-01_18h55.29.800,mdp,2024.2.1,Win32,500,66fa4ebf79326e780c390304,,,,,,,,,,,,,,,,,,,,,3437.077,3437.077,3437.077,3438.026,0,1,left,0.445,,3438.026,3438.026,0,1,,3438.026,3438.027,0,1,,0,3438.027,3438.027,3438.027,3439.525,0,47,47,47,1,0.2,0.8,0.6,0.4,1,0,,,,,,,,,,,,,,,,,,,,,,,,,,,,,,,,,,,,
,,60dc9eef1d2e18498fddb772,66fc998519a305dfc4632b01,2024-10-01_18h55.29.800,mdp,2024.2.1,Win32,500,66fa4ebf79326e780c390304,,,,,,,,,,,,,,,,,,,,,3439.525,3439.525,3439.526,3440.699,0,1,left,0.669,,3440.699,3440.7,0,1,,3440.7,3440.7,0,0,,0,3440.7,3440.7,3440.7,3442.199,0,48,48,48,1,0.2,0.8,0.6,0.4,1,0,,,,,,,,,,,,,,,,,,,,,,,,,,,,,,,,,,,,
,,60dc9eef1d2e18498fddb772,66fc998519a305dfc4632b01,2024-10-01_18h55.29.800,mdp,2024.2.1,Win32,500,66fa4ebf79326e780c390304,,,,,,,,,,,,,,,,,,,,,3442.199,3442.199,3442.199,3442.896,0,1,left,0.191,,3442.897,3442.897,0,1,,3442.898,3442.898,0,1,,0,3442.898,3442.898,3442.898,3444.399,0,49,49,49,1,0.2,0.8,0.6,0.4,1,0,,,,,,,,,,,,,,,,,,,,,,,,,,,,,,,,,,,,
,,60dc9eef1d2e18498fddb772,66fc998519a305dfc4632b01,2024-10-01_18h55.29.800,mdp,2024.2.1,Win32,500,66fa4ebf79326e780c390304,,,,,,,,,,,,,,,,,,,,,,,,,,,,,,,,,,,,,,,,,,,,,,,,,,,,,,,,3444.399,3502.898,0,4,4,8,1,imgs/goat.png,imgs/elephant.png,imgs/kangaroo.png,imgs/bear.png,imgs/lion.png,,,,,,,,,,,,,,,,,,,,,,,,
,,60dc9eef1d2e18498fddb772,66fc998519a305dfc4632b01,2024-10-01_18h55.29.800,mdp,2024.2.1,Win32,500,66fa4ebf79326e780c390304,,,,,,,,,,,,,,2,seqs/st2seq24.csv,3502.903,3533.126,space,29.72,,3533.133,3533.133,3533.134,3539.849,1,0,right,6.212,,3539.855,3548.323,1,1,right,3548.328,3548.329,0,1,,0,3548.329,3548.329,3548.329,3549.828,0,0,0,0,1,0.6,0.4,0.4,0.6,,,,,,,,,,,,,,,7.967,,0.2,0.8,0.6,0.4,0.2,0.8,0.6,0.4,1,0,,,,,,,,,,,,
,,60dc9eef1d2e18498fddb772,66fc998519a305dfc4632b01,2024-10-01_18h55.29.800,mdp,2024.2.1,Win32,500,66fa4ebf79326e780c390304,,,,,,,,,,,,,,,,,,,,,3549.828,3549.828,3549.829,3559.498,1,1,right,9.168,,3559.503,3567.96,1,0,right,3567.966,3567.966,0,1,,1,3567.966,3567.966,3567.966,3569.465,0,1,1,1,1,0.6,0.4,0.4,0.6,,,,,,,,,,,,,,,7.956,,0.2,0.8,0.6,0.4,0.2,0.8,0.6,0.4,1,0,,,,,,,,,,,,
