init_exp.started,init_exp.stopped,participant,session,date,expName,psychopyVersion,OS,frameRate,study_id,disp_instruction.started,disp_instruction.stopped,instruction.thisRepN,instruction.thisTrialN,instruction.thisN,instruction.thisIndex,instruction.ran,instimg_path,consent.started,consent.stopped,key_resp_3.keys,key_resp_3.rt,key_resp_3.duration,n_steps,sequence_path,init_block.started,init_block.stopped,key_resp.keys,key_resp.rt,key_resp.duration,init_trials.started,init_trials.stopped,step0.started,step0.stopped,act0,s1,res0.keys,res0.rt,res0.duration,step1.started,step1.stopped,act1,s2,res1.keys,step2.started,step2.stopped,act2,s3,res2.keys,rew,reward_comp.started,reward_comp.stopped,reward_disp.started,reward_disp.stopped,trials.thisRepN,trials.thisTrialN,trials.thisN,trials.thisIndex,trials.ran,s00a0s10,s00a0s11,s00a1s10,s00a1s11,rew10,rew11,break_block.started,break_block.stopped,block.thisRepN,block.thisTrialN,block.thisN,block.thisIndex,block.ran,s00path,s10path,s11path,s20path,s21path,res1.rt,res1.duration,s10a0s20,s10a0s21,s10a1s20,s10a1s21,s11a0s20,s11a0s21,s11a1s20,s11a1s21,rew20,rew21,res2.rt,res2.duration,s20a0s30,s20a0s31,s20a1s30,s20a1s31,s21a0s30,s21a0s31,s21a1s30,s21a1s31,rew30,rew31
0.0002,0.0015,60e20896098befdcf5e59441,66fc9812559574b3ea39671e,2024-10-01_18h48.08.164,mdp,2024.2.1,Win32,60.24096386,66fa4ebf79326e780c390304,,,,,,,,,,,,,,,,,,,,,,,,,,,,,,,,,,,,,,,,,,,,,,,,,,,,,,,,,,,,,,,,,,,,,,,,,,,,,,,,,,,,,,,,,,,
,,60e20896098befdcf5e59441,66fc9812559574b3ea39671e,2024-10-01_18h48.08.164,mdp,2024.2.1,Win32,60.24096386,66fa4ebf79326e780c390304,0.0061,23.6384,0,0,0,0,1,rlnn_exp/rlnn_exp.001.png,,,,,,,,,,,,,,,,,,,,,,,,,,,,,,,,,,,,,,,,,,,,,,,,,,,,,,,,,,,,,,,,,,,,,,,,,,,,,,,,,,,
,,60e20896098befdcf5e59441,66fc9812559574b3ea39671e,2024-10-01_18h48.08.164,mdp,2024.2.1,Win32,60.24096386,66fa4ebf79326e780c390304,23.6391,34.4542,0,1,1,1,1,rlnn_exp/rlnn_exp.002.png,,,,,,,,,,,,,,,,,,,,,,,,,,,,,,,,,,,,,,,,,,,,,,,,,,,,,,,,,,,,,,,,,,,,,,,,,,,,,,,,,,,
,,60e20896098befdcf5e59441,66fc9812559574b3ea39671e,2024-10-01_18h48.08.164,mdp,2024.2.1,Win32,60.24096386,66fa4ebf79326e780c390304,34.4656,46.7865,0,2,2,2,1,rlnn_exp/rlnn_exp.003.png,,,,,,,,,,,,,,,,,,,,,,,,,,,,,,,,,,,,,,,,,,,,,,,,,,,,,,,,,,,,,,,,,,,,,,,,,,,,,,,,,,,
,,60e20896098befdcf5e59441,66fc9812559574b3ea39671e,2024-10-01_18h48.08.164,mdp,2024.2.1,Win32,60.24096386,66fa4ebf79326e780c390304,46.7954,58.9361,0,3,3,3,1,rlnn_exp/rlnn_exp.004.png,,,,,,,,,,,,,,,,,,,,,,,,,,,,,,,,,,,,,,,,,,,,,,,,,,,,,,,,,,,,,,,,,,,,,,,,,,,,,,,,,,,
,,60e20896098befdcf5e59441,66fc9812559574b3ea39671e,2024-10-01_18h48.08.164,mdp,2024.2.1,Win32,60.24096386,66fa4ebf79326e780c390304,,,,,,,,,58.9453,73.4018,y,4.4341,,,,,,,,,,,,,,,,,,,,,,,,,,,,,,,,,,,,,,,,,,,,,,,,,,,,,,,,,,,,,,,,,,,,,,,,,,,,,,,
,,60e20896098befdcf5e59441,66fc9812559574b3ea39671e,2024-10-01_18h48.08.164,mdp,2024.2.1,Win32,60.24096386,66fa4ebf79326e780c390304,,,,,,,,,,,,,,1,seqs/st1seq25.csv,73.4134,76.4183,space,2.484,,76.4214,76.4215,76.4219,77.7516,0,1,left,0.7935,,77.7524,77.7539,,0,,77.7543,77.7555,,1,,0,77.7556,77.7556,77.7559,79.2514,0,0,0,0,1,0.6,0.4,0.4,0.6,1,0,,,,,,,,,,,,,,,,,,,,,,,,,,,,,,,,,,,,
,,60e20896098befdcf5e59441,66fc9812559574b3ea39671e,2024-10-01_18h48.08.164,mdp,2024.2.1,Win32,60.24096386,66fa4ebf79326e780c390304,,,,,,,,,,,,,,,,,,,,,79.252,79.252,79.2534,80.2513,1,0,right,0.4724,,80.2523,80.253,,0,,80.2538,80.2544,,0,,1,80.2545,80.2545,80.2551,81.7512,0,1,1,1,1,0.4,0.6,0.8,0.2,1,0,,,,,,,,,,,,,,,,,,,,,,,,,,,,,,,,,,,,
,,60e20896098befdcf5e59441,66fc9812559574b3ea39671e,2024-10-01_18h48.08.164,mdp,2024.2.1,Win32,60.24096386,66fa4ebf79326e780c390304,,,,,,,,,,,,,,,,,,,,,81.7516,81.7517,81.7534,83.3509,1,0,right,1.0761,,83.3517,83.3524,,0,,83.353,83.3536,,0,,1,83.3537,83.3537,83.3542,84.8509,0,2,2,2,1,0.4,0.6,0.8,0.2,1,0,,,,,,,,,,,,,,,,,,,,,,,,,,,,,,,,,,,,
,,60e20896098befdcf5e59441,66fc9812559574b3ea39671e,2024-10-01_18h48.08.164,mdp,2024.2.1,Win32,60.24096386,66fa4ebf79326e780c390304,,,,,,,,,,,,,,,,,,,,,84.8512,84.8512,84.8529,86.2842,1,0,right,0.9045,,86.2852,86.286,,0,,86.2867,86.2874,,0,,1,86.2874,86.2874,86.288,87.784,0,3,3,3,1,0.4,0.6,0.8,0.2,1,0,,,,,,,,,,,,,,,,,,,,,,,,,,,,,,,,,,,,
,,60e20896098befdcf5e59441,66fc9812559574b3ea39671e,2024-10-01_18h48.08.164,mdp,2024.2.1,Win32,60.24096386,66fa4ebf79326e780c390304,,,,,,,,,,,,,,,,,,,,,87.7843,87.7843,87.7855,88.7841,0,0,left,0.4675,,88.7854,88.7861,,1,,88.7867,88.7875,,0,,1,88.7875,88.7875,88.788,90.2842,0,4,4,4,1,0.4,0.6,0.8,0.2,1,0,,,,,,,,,,,,,,,,,,,,,,,,,,,,,,,,,,,,
,,60e20896098befdcf5e59441,66fc9812559574b3ea39671e,2024-10-01_18h48.08.164,mdp,2024.2.1,Win32,60.24096386,66fa4ebf79326e780c390304,,,,,,,,,,,,,,,,,,,,,90.2844,90.2844,90.2856,91.3671,0,1,left,0.5623,,91.368,91.3686,,0,,91.3692,91.3698,,1,,0,91.3699,91.3699,91.3704,92.8673,0,5,5,5,1,0.4,0.6,0.8,0.2,1,0,,,,,,,,,,,,,,,,,,,,,,,,,,,,,,,,,,,,
,,60e20896098befdcf5e59441,66fc9812559574b3ea39671e,2024-10-01_18h48.08.164,mdp,2024.2.1,Win32,60.24096386,66fa4ebf79326e780c390304,,,,,,,,,,,,,,,,,,,,,92.8677,92.8683,92.8703,93.9503,1,0,right,0.5568,,93.9515,93.9523,,0,,93.9531,93.9538,,0,,1,93.9538,93.9538,93.9545,95.4502,0,6,6,6,1,0.4,0.6,0.8,0.2,1,0,,,,,,,,,,,,,,,,,,,,,,,,,,,,,,,,,,,,
,,60e20896098befdcf5e59441,66fc9812559574b3ea39671e,2024-10-01_18h48.08.164,mdp,2024.2.1,Win32,60.24096386,66fa4ebf79326e780c390304,,,,,,,,,,,,,,,,,,,,,95.4505,95.4506,95.4521,96.4003,1,0,right,0.4182,,96.4012,96.4018,,1,,96.4025,96.4031,,0,,1,96.4031,96.4031,96.4036,97.8999,0,7,7,7,1,0.4,0.6,0.8,0.2,1,0,,,,,,,,,,,,,,,,,,,,,,,,,,,,,,,,,,,,
,,60e20896098befdcf5e59441,66fc9812559574b3ea39671e,2024-10-01_18h48.08.164,mdp,2024.2.1,Win32,60.24096386,66fa4ebf79326e780c390304,,,,,,,,,,,,,,,,,,,,,97.9003,97.9003,97.9011,98.9167,1,0,right,0.4929,,98.9181,98.9188,,1,,98.9196,98.9201,,0,,1,98.9202,98.9202,98.9208,100.4165,0,8,8,8,1,0.8,0.2,0.6,0.4,1,0,,,,,,,,,,,,,,,,,,,,,,,,,,,,,,,,,,,,
,,60e20896098befdcf5e59441,66fc9812559574b3ea39671e,2024-10-01_18h48.08.164,mdp,2024.2.1,Win32,60.24096386,66fa4ebf79326e780c390304,,,,,,,,,,,,,,,,,,,,,100.4167,100.4168,100.4177,101.4502,1,0,right,0.5025,,101.4518,101.4524,,1,,101.4531,101.4536,,1,,1,101.4536,101.4536,101.4541,102.9497,0,9,9,9,1,0.8,0.2,0.6,0.4,1,0,,,,,,,,,,,,,,,,,,,,,,,,,,,,,,,,,,,,
,,60e20896098befdcf5e59441,66fc9812559574b3ea39671e,2024-10-01_18h48.08.164,mdp,2024.2.1,Win32,60.24096386,66fa4ebf79326e780c390304,,,,,,,,,,,,,,,,,,,,,102.9501,102.9502,102.9515,103.8498,1,0,right,0.3672,,103.8512,103.8521,,1,,103.8529,103.8536,,0,,1,103.8536,103.8536,103.8544,105.3495,0,10,10,10,1,0.8,0.2,0.6,0.4,1,0,,,,,,,,,,,,,,,,,,,,,,,,,,,,,,,,,,,,
,,60e20896098befdcf5e59441,66fc9812559574b3ea39671e,2024-10-01_18h48.08.164,mdp,2024.2.1,Win32,60.24096386,66fa4ebf79326e780c390304,,,,,,,,,,,,,,,,,,,,,105.3498,105.3498,105.351,106.283,1,1,right,0.4005,,106.2845,106.2853,,0,,106.2859,106.2866,,0,,0,106.2866,106.2866,106.2871,107.7829,0,11,11,11,1,0.8,0.2,0.6,0.4,1,0,,,,,,,,,,,,,,,,,,,,,,,,,,,,,,,,,,,,
,,60e20896098befdcf5e59441,66fc9812559574b3ea39671e,2024-10-01_18h48.08.164,mdp,2024.2.1,Win32,60.24096386,66fa4ebf79326e780c390304,,,,,,,,,,,,,,,,,,,,,107.7834,107.7834,107.7844,109.0493,0,0,left,0.7337,,109.0503,109.0511,,0,,109.052,109.0526,,0,,1,109.0527,109.0527,109.0532,110.5491,0,12,12,12,1,0.8,0.2,0.6,0.4,1,0,,,,,,,,,,,,,,,,,,,,,,,,,,,,,,,,,,,,
,,60e20896098befdcf5e59441,66fc9812559574b3ea39671e,2024-10-01_18h48.08.164,mdp,2024.2.1,Win32,60.24096386,66fa4ebf79326e780c390304,,,,,,,,,,,,,,,,,,,,,110.5494,110.5494,110.5507,111.5492,0,0,left,0.4705,,111.5506,111.5513,,1,,111.552,111.5525,,0,,1,111.5526,111.5526,111.5531,113.049,0,13,13,13,1,0.8,0.2,0.6,0.4,1,0,,,,,,,,,,,,,,,,,,,,,,,,,,,,,,,,,,,,
,,60e20896098befdcf5e59441,66fc9812559574b3ea39671e,2024-10-01_18h48.08.164,mdp,2024.2.1,Win32,60.24096386,66fa4ebf79326e780c390304,,,,,,,,,,,,,,,,,,,,,113.0493,113.0493,113.0501,114.0826,1,0,right,0.5001,,114.0836,114.0842,,1,,114.0849,114.0854,,0,,1,114.0855,114.0855,114.0859,115.5824,0,14,14,14,1,0.8,0.2,0.6,0.4,1,0,,,,,,,,,,,,,,,,,,,,,,,,,,,,,,,,,,,,
,,60e20896098befdcf5e59441,66fc9812559574b3ea39671e,2024-10-01_18h48.08.164,mdp,2024.2.1,Win32,60.24096386,66fa4ebf79326e780c390304,,,,,,,,,,,,,,,,,,,,,115.5829,115.5829,115.5838,116.5158,0,0,left,0.4043,,116.5168,116.5175,,0,,116.5181,116.5188,,0,,1,116.5188,116.5188,116.5193,118.0156,0,15,15,15,1,0.8,0.2,0.6,0.4,1,0,,,,,,,,,,,,,,,,,,,,,,,,,,,,,,,,,,,,
,,60e20896098befdcf5e59441,66fc9812559574b3ea39671e,2024-10-01_18h48.08.164,mdp,2024.2.1,Win32,60.24096386,66fa4ebf79326e780c390304,,,,,,,,,,,,,,,,,,,,,118.0159,118.0159,118.0174,118.7821,0,0,left,0.2368,,118.7833,118.7841,,0,,118.7849,118.7856,,1,,1,118.7856,118.7856,118.7861,120.2819,0,16,16,16,1,0.8,0.2,0.6,0.4,1,0,,,,,,,,,,,,,,,,,,,,,,,,,,,,,,,,,,,,
,,60e20896098befdcf5e59441,66fc9812559574b3ea39671e,2024-10-01_18h48.08.164,mdp,2024.2.1,Win32,60.24096386,66fa4ebf79326e780c390304,,,,,,,,,,,,,,,,,,,,,120.2822,120.2822,120.2832,121.2487,0,0,left,0.4472,,121.2497,121.2503,,1,,121.2509,121.2515,,1,,1,121.2515,121.2515,121.2521,122.7485,0,17,17,17,1,0.8,0.2,0.6,0.4,1,0,,,,,,,,,,,,,,,,,,,,,,,,,,,,,,,,,,,,
,,60e20896098befdcf5e59441,66fc9812559574b3ea39671e,2024-10-01_18h48.08.164,mdp,2024.2.1,Win32,60.24096386,66fa4ebf79326e780c390304,,,,,,,,,,,,,,,,,,,,,122.7488,122.7488,122.7498,123.4319,1,0,right,0.1521,,123.4334,123.4342,,0,,123.435,123.4356,,0,,1,123.4356,123.4356,123.4366,124.9316,0,18,18,18,1,0.8,0.2,0.6,0.4,1,0,,,,,,,,,,,,,,,,,,,,,,,,,,,,,,,,,,,,
,,60e20896098befdcf5e59441,66fc9812559574b3ea39671e,2024-10-01_18h48.08.164,mdp,2024.2.1,Win32,60.24096386,66fa4ebf79326e780c390304,,,,,,,,,,,,,,,,,,,,,124.9319,124.932,124.9331,125.7821,1,0,right,0.3224,,125.7834,125.7839,,0,,125.7846,125.7852,,0,,1,125.7852,125.7853,125.7858,127.2816,0,19,19,19,1,0.2,0.8,0.8,0.2,1,0,,,,,,,,,,,,,,,,,,,,,,,,,,,,,,,,,,,,
,,60e20896098befdcf5e59441,66fc9812559574b3ea39671e,2024-10-01_18h48.08.164,mdp,2024.2.1,Win32,60.24096386,66fa4ebf79326e780c390304,,,,,,,,,,,,,,,,,,,,,127.2819,127.2819,127.2829,128.2814,0,1,left,0.4746,,128.2823,128.283,,1,,128.2835,128.2842,,1,,0,128.2843,128.2843,128.2847,129.7816,0,20,20,20,1,0.2,0.8,0.8,0.2,1,0,,,,,,,,,,,,,,,,,,,,,,,,,,,,,,,,,,,,
,,60e20896098befdcf5e59441,66fc9812559574b3ea39671e,2024-10-01_18h48.08.164,mdp,2024.2.1,Win32,60.24096386,66fa4ebf79326e780c390304,,,,,,,,,,,,,,,,,,,,,129.7819,129.7819,129.7835,130.7479,1,0,right,0.4461,,130.7487,130.7495,,1,,130.75,130.7507,,0,,1,130.7507,130.7507,130.7514,132.2482,0,21,21,21,1,0.8,0.2,0.4,0.6,1,0,,,,,,,,,,,,,,,,,,,,,,,,,,,,,,,,,,,,
,,60e20896098befdcf5e59441,66fc9812559574b3ea39671e,2024-10-01_18h48.08.164,mdp,2024.2.1,Win32,60.24096386,66fa4ebf79326e780c390304,,,,,,,,,,,,,,,,,,,,,132.2485,132.2485,132.2493,132.8646,1,0,right,0.0967,,132.8656,132.8665,,0,,132.8673,132.8678,,0,,1,132.8678,132.8678,132.8683,134.3647,0,22,22,22,1,0.8,0.2,0.4,0.6,1,0,,,,,,,,,,,,,,,,,,,,,,,,,,,,,,,,,,,,
,,60e20896098befdcf5e59441,66fc9812559574b3ea39671e,2024-10-01_18h48.08.164,mdp,2024.2.1,Win32,60.24096386,66fa4ebf79326e780c390304,,,,,,,,,,,,,,,,,,,,,134.3651,134.3651,134.3663,134.9645,1,0,right,0.0699,,134.9657,134.9665,,1,,134.9676,134.9681,,1,,1,134.9681,134.9681,134.9686,136.4646,0,23,23,23,1,0.8,0.2,0.4,0.6,1,0,,,,,,,,,,,,,,,,,,,,,,,,,,,,,,,,,,,,
,,60e20896098befdcf5e59441,66fc9812559574b3ea39671e,2024-10-01_18h48.08.164,mdp,2024.2.1,Win32,60.24096386,66fa4ebf79326e780c390304,,,,,,,,,,,,,,,,,,,,,136.4651,136.4652,136.4661,137.5146,0,0,left,0.5243,,137.516,137.5166,,0,,137.5172,137.5179,,0,,1,137.5179,137.5179,137.5183,139.0147,0,24,24,24,1,0.8,0.2,0.4,0.6,1,0,,,,,,,,,,,,,,,,,,,,,,,,,,,,,,,,,,,,
,,60e20896098befdcf5e59441,66fc9812559574b3ea39671e,2024-10-01_18h48.08.164,mdp,2024.2.1,Win32,60.24096386,66fa4ebf79326e780c390304,,,,,,,,,,,,,,,,,,,,,139.0153,139.0153,139.0166,139.8142,1,1,right,0.2716,,139.8151,139.8157,,1,,139.8162,139.8168,,1,,0,139.8168,139.8168,139.8172,141.3141,0,25,25,25,1,0.8,0.2,0.4,0.6,1,0,,,,,,,,,,,,,,,,,,,,,,,,,,,,,,,,,,,,
,,60e20896098befdcf5e59441,66fc9812559574b3ea39671e,2024-10-01_18h48.08.164,mdp,2024.2.1,Win32,60.24096386,66fa4ebf79326e780c390304,,,,,,,,,,,,,,,,,,,,,141.3146,141.3146,141.3158,142.1309,0,0,left,0.2842,,142.1323,142.1331,,0,,142.1337,142.1342,,0,,1,142.1343,142.1343,142.1349,143.6304,0,26,26,26,1,0.6,0.4,0.6,0.4,1,0,,,,,,,,,,,,,,,,,,,,,,,,,,,,,,,,,,,,
,,60e20896098befdcf5e59441,66fc9812559574b3ea39671e,2024-10-01_18h48.08.164,mdp,2024.2.1,Win32,60.24096386,66fa4ebf79326e780c390304,,,,,,,,,,,,,,,,,,,,,143.6306,143.6306,143.6319,144.3138,0,1,left,0.1505,,144.3147,144.3153,,0,,144.316,144.3165,,0,,0,144.3165,144.3165,144.317,145.8138,0,27,27,27,1,0.6,0.4,0.6,0.4,1,0,,,,,,,,,,,,,,,,,,,,,,,,,,,,,,,,,,,,
,,60e20896098befdcf5e59441,66fc9812559574b3ea39671e,2024-10-01_18h48.08.164,mdp,2024.2.1,Win32,60.24096386,66fa4ebf79326e780c390304,,,,,,,,,,,,,,,,,,,,,145.8141,145.8141,145.8151,146.4639,0,0,left,0.1235,,146.4652,146.4658,,0,,146.4665,146.4669,,1,,1,146.467,146.467,146.4676,147.9636,0,28,28,28,1,0.6,0.4,0.6,0.4,1,0,,,,,,,,,,,,,,,,,,,,,,,,,,,,,,,,,,,,
,,60e20896098befdcf5e59441,66fc9812559574b3ea39671e,2024-10-01_18h48.08.164,mdp,2024.2.1,Win32,60.24096386,66fa4ebf79326e780c390304,,,,,,,,,,,,,,,,,,,,,147.964,147.964,147.9653,148.9136,1,1,right,0.4215,,148.9147,148.9154,,0,,148.9163,148.9169,,0,,0,148.9169,148.917,148.9174,150.4134,0,29,29,29,1,0.8,0.2,0.4,0.6,1,0,,,,,,,,,,,,,,,,,,,,,,,,,,,,,,,,,,,,
,,60e20896098befdcf5e59441,66fc9812559574b3ea39671e,2024-10-01_18h48.08.164,mdp,2024.2.1,Win32,60.24096386,66fa4ebf79326e780c390304,,,,,,,,,,,,,,,,,,,,,150.4138,150.4138,150.4153,151.5134,0,1,left,0.579,,151.5146,151.5153,,1,,151.5159,151.5165,,1,,0,151.5165,151.5165,151.5172,153.0132,0,30,30,30,1,0.6,0.4,0.2,0.8,1,0,,,,,,,,,,,,,,,,,,,,,,,,,,,,,,,,,,,,
,,60e20896098befdcf5e59441,66fc9812559574b3ea39671e,2024-10-01_18h48.08.164,mdp,2024.2.1,Win32,60.24096386,66fa4ebf79326e780c390304,,,,,,,,,,,,,,,,,,,,,153.0135,153.0135,153.0143,153.7967,0,0,left,0.253,,153.7979,153.7986,,0,,153.7993,153.7999,,1,,1,153.7999,153.7999,153.8006,155.2966,0,31,31,31,1,0.6,0.4,0.2,0.8,1,0,,,,,,,,,,,,,,,,,,,,,,,,,,,,,,,,,,,,
,,60e20896098befdcf5e59441,66fc9812559574b3ea39671e,2024-10-01_18h48.08.164,mdp,2024.2.1,Win32,60.24096386,66fa4ebf79326e780c390304,,,,,,,,,,,,,,,,,,,,,155.297,155.297,155.2985,156.1132,0,0,left,0.2935,,156.1144,156.1152,,1,,156.1159,156.1164,,0,,1,156.1165,156.1165,156.117,157.6129,0,32,32,32,1,0.6,0.4,0.2,0.8,1,0,,,,,,,,,,,,,,,,,,,,,,,,,,,,,,,,,,,,
,,60e20896098befdcf5e59441,66fc9812559574b3ea39671e,2024-10-01_18h48.08.164,mdp,2024.2.1,Win32,60.24096386,66fa4ebf79326e780c390304,,,,,,,,,,,,,,,,,,,,,157.6133,157.6133,157.6141,158.3797,0,0,left,0.2358,,158.3811,158.3817,,0,,158.3823,158.3829,,1,,1,158.3829,158.3829,158.3834,159.8796,0,33,33,33,1,0.6,0.4,0.2,0.8,1,0,,,,,,,,,,,,,,,,,,,,,,,,,,,,,,,,,,,,
,,60e20896098befdcf5e59441,66fc9812559574b3ea39671e,2024-10-01_18h48.08.164,mdp,2024.2.1,Win32,60.24096386,66fa4ebf79326e780c390304,,,,,,,,,,,,,,,,,,,,,159.8799,159.8799,159.8812,160.6962,1,1,right,0.2826,,160.6975,160.6985,,1,,160.6994,160.7001,,1,,0,160.7001,160.7001,160.7007,162.1961,0,34,34,34,1,0.6,0.4,0.2,0.8,1,0,,,,,,,,,,,,,,,,,,,,,,,,,,,,,,,,,,,,
,,60e20896098befdcf5e59441,66fc9812559574b3ea39671e,2024-10-01_18h48.08.164,mdp,2024.2.1,Win32,60.24096386,66fa4ebf79326e780c390304,,,,,,,,,,,,,,,,,,,,,162.1965,162.1965,162.198,163.2127,0,1,left,0.4897,,163.2138,163.2147,,0,,163.2153,163.2158,,0,,0,163.2158,163.2158,163.2162,164.7126,0,35,35,35,1,0.6,0.4,0.2,0.8,1,0,,,,,,,,,,,,,,,,,,,,,,,,,,,,,,,,,,,,
,,60e20896098befdcf5e59441,66fc9812559574b3ea39671e,2024-10-01_18h48.08.164,mdp,2024.2.1,Win32,60.24096386,66fa4ebf79326e780c390304,,,,,,,,,,,,,,,,,,,,,164.7129,164.7129,164.7137,165.5293,1,1,right,0.2867,,165.5301,165.5307,,0,,165.5313,165.532,,1,,0,165.532,165.532,165.5324,167.0292,0,36,36,36,1,0.6,0.4,0.2,0.8,1,0,,,,,,,,,,,,,,,,,,,,,,,,,,,,,,,,,,,,
,,60e20896098befdcf5e59441,66fc9812559574b3ea39671e,2024-10-01_18h48.08.164,mdp,2024.2.1,Win32,60.24096386,66fa4ebf79326e780c390304,,,,,,,,,,,,,,,,,,,,,167.0296,167.0296,167.0311,167.7461,1,1,right,0.1834,,167.7478,167.7484,,1,,167.7493,167.7499,,1,,0,167.75,167.75,167.7505,169.2461,0,37,37,37,1,0.6,0.4,0.2,0.8,1,0,,,,,,,,,,,,,,,,,,,,,,,,,,,,,,,,,,,,
,,60e20896098befdcf5e59441,66fc9812559574b3ea39671e,2024-10-01_18h48.08.164,mdp,2024.2.1,Win32,60.24096386,66fa4ebf79326e780c390304,,,,,,,,,,,,,,,,,,,,,169.2466,169.2467,169.2485,170.1456,1,0,right,0.3716,,170.1468,170.1475,,0,,170.1482,170.1487,,0,,1,170.1487,170.1487,170.1492,171.6456,0,38,38,38,1,0.2,0.8,0.6,0.4,1,0,,,,,,,,,,,,,,,,,,,,,,,,,,,,,,,,,,,,
,,60e20896098befdcf5e59441,66fc9812559574b3ea39671e,2024-10-01_18h48.08.164,mdp,2024.2.1,Win32,60.24096386,66fa4ebf79326e780c390304,,,,,,,,,,,,,,,,,,,,,171.6459,171.6459,171.6469,172.4288,1,0,right,0.2501,,172.4301,172.4306,,0,,172.4314,172.4321,,0,,1,172.4321,172.4321,172.4326,173.9286,0,39,39,39,1,0.2,0.8,0.6,0.4,1,0,,,,,,,,,,,,,,,,,,,,,,,,,,,,,,,,,,,,
,,60e20896098befdcf5e59441,66fc9812559574b3ea39671e,2024-10-01_18h48.08.164,mdp,2024.2.1,Win32,60.24096386,66fa4ebf79326e780c390304,,,,,,,,,,,,,,,,,,,,,173.9291,173.9291,173.9313,174.7122,0,1,left,0.2518,,174.7133,174.714,,1,,174.7146,174.7152,,1,,0,174.7152,174.7152,174.7157,176.2119,0,40,40,40,1,0.2,0.8,0.6,0.4,1,0,,,,,,,,,,,,,,,,,,,,,,,,,,,,,,,,,,,,
,,60e20896098befdcf5e59441,66fc9812559574b3ea39671e,2024-10-01_18h48.08.164,mdp,2024.2.1,Win32,60.24096386,66fa4ebf79326e780c390304,,,,,,,,,,,,,,,,,,,,,176.2121,176.2121,176.2132,177.1619,0,0,left,0.4246,,177.1632,177.164,,1,,177.1647,177.1653,,1,,1,177.1653,177.1653,177.1659,178.6616,0,41,41,41,1,0.2,0.8,0.6,0.4,1,0,,,,,,,,,,,,,,,,,,,,,,,,,,,,,,,,,,,,
,,60e20896098befdcf5e59441,66fc9812559574b3ea39671e,2024-10-01_18h48.08.164,mdp,2024.2.1,Win32,60.24096386,66fa4ebf79326e780c390304,,,,,,,,,,,,,,,,,,,,,178.6619,178.6619,178.6627,179.6454,0,1,left,0.455,,179.6462,179.6468,,0,,179.6474,179.6477,,1,,0,179.6478,179.6478,179.6483,181.1448,0,42,42,42,1,0.2,0.8,0.6,0.4,1,0,,,,,,,,,,,,,,,,,,,,,,,,,,,,,,,,,,,,
,,60e20896098befdcf5e59441,66fc9812559574b3ea39671e,2024-10-01_18h48.08.164,mdp,2024.2.1,Win32,60.24096386,66fa4ebf79326e780c390304,,,,,,,,,,,,,,,,,,,,,181.145,181.145,181.1462,181.9116,1,1,right,0.2503,,181.9127,181.9133,,0,,181.9141,181.9147,,0,,0,181.9147,181.9147,181.9152,183.4114,0,43,43,43,1,0.2,0.8,0.6,0.4,1,0,,,,,,,,,,,,,,,,,,,,,,,,,,,,,,,,,,,,
,,60e20896098befdcf5e59441,66fc9812559574b3ea39671e,2024-10-01_18h48.08.164,mdp,2024.2.1,Win32,60.24096386,66fa4ebf79326e780c390304,,,,,,,,,,,,,,,,,,,,,183.4117,183.4117,183.4127,184.1113,1,0,right,0.1673,,184.1121,184.1127,,0,,184.1132,184.1138,,0,,1,184.1138,184.1138,184.1143,185.6115,0,44,44,44,1,0.2,0.8,0.6,0.4,1,0,,,,,,,,,,,,,,,,,,,,,,,,,,,,,,,,,,,,
,,60e20896098befdcf5e59441,66fc9812559574b3ea39671e,2024-10-01_18h48.08.164,mdp,2024.2.1,Win32,60.24096386,66fa4ebf79326e780c390304,,,,,,,,,,,,,,,,,,,,,185.6119,185.612,185.6133,186.3116,0,1,left,0.1691,,186.3127,186.3133,,1,,186.3139,186.3144,,1,,0,186.3145,186.3146,186.3151,187.8109,0,45,45,45,1,0.2,0.8,0.6,0.4,1,0,,,,,,,,,,,,,,,,,,,,,,,,,,,,,,,,,,,,
,,60e20896098befdcf5e59441,66fc9812559574b3ea39671e,2024-10-01_18h48.08.164,mdp,2024.2.1,Win32,60.24096386,66fa4ebf79326e780c390304,,,,,,,,,,,,,,,,,,,,,187.8113,187.8113,187.8122,188.6114,1,1,right,0.2698,,188.6123,188.6129,,1,,188.6134,188.6139,,0,,0,188.6139,188.6139,188.6144,190.1111,0,46,46,46,1,0.8,0.2,0.4,0.6,1,0,,,,,,,,,,,,,,,,,,,,,,,,,,,,,,,,,,,,
,,60e20896098befdcf5e59441,66fc9812559574b3ea39671e,2024-10-01_18h48.08.164,mdp,2024.2.1,Win32,60.24096386,66fa4ebf79326e780c390304,,,,,,,,,,,,,,,,,,,,,190.1114,190.1114,190.1122,190.8776,1,1,right,0.2461,,190.8784,190.8791,,0,,190.8797,190.8803,,0,,0,190.8803,190.8803,190.8808,192.3775,0,47,47,47,1,0.8,0.2,0.4,0.6,1,0,,,,,,,,,,,,,,,,,,,,,,,,,,,,,,,,,,,,
,,60e20896098befdcf5e59441,66fc9812559574b3ea39671e,2024-10-01_18h48.08.164,mdp,2024.2.1,Win32,60.24096386,66fa4ebf79326e780c390304,,,,,,,,,,,,,,,,,,,,,192.3777,192.3777,192.3786,193.1441,1,1,right,0.2452,,193.145,193.1455,,1,,193.1461,193.1465,,0,,0,193.1466,193.1466,193.1471,194.644,0,48,48,48,1,0.4,0.6,0.6,0.4,1,0,,,,,,,,,,,,,,,,,,,,,,,,,,,,,,,,,,,,
,,60e20896098befdcf5e59441,66fc9812559574b3ea39671e,2024-10-01_18h48.08.164,mdp,2024.2.1,Win32,60.24096386,66fa4ebf79326e780c390304,,,,,,,,,,,,,,,,,,,,,194.6445,194.6445,194.6458,196.1439,0,0,left,0.9729,,196.1448,196.1452,,0,,196.1458,196.1462,,0,,1,196.1463,196.1463,196.1468,197.644,0,49,49,49,1,0.6,0.4,0.8,0.2,1,0,,,,,,,,,,,,,,,,,,,,,,,,,,,,,,,,,,,,
,,60e20896098befdcf5e59441,66fc9812559574b3ea39671e,2024-10-01_18h48.08.164,mdp,2024.2.1,Win32,60.24096386,66fa4ebf79326e780c390304,,,,,,,,,,,,,,,,,,,,,,,,,,,,,,,,,,,,,,,,,,,,,,,,,,,,,,,,197.6449,256.1577,0,0,0,8,1,imgs/elephant.png,imgs/goat.png,imgs/horse.png,imgs/bear.png,imgs/cat.png,,,,,,,,,,,,,,,,,,,,,,,,
,,60e20896098befdcf5e59441,66fc9812559574b3ea39671e,2024-10-01_18h48.08.164,mdp,2024.2.1,Win32,60.24096386,66fa4ebf79326e780c390304,,,,,,,,,,,,,,2,seqs/st2seq22.csv,256.1667,268.0063,space,11.329,,268.0199,268.0199,268.0204,269.6727,0,1,left,1.1378,,269.6735,270.656,1,0,right,270.6571,270.6579,,1,,1,270.658,270.658,270.6587,272.1559,0,0,0,0,1,0.2,0.8,0.6,0.4,,,,,,,,,,,,,,,0.4549,,0.2,0.8,0.6,0.4,0.2,0.8,0.4,0.6,1,0,,,,,,,,,,,,
,,60e20896098befdcf5e59441,66fc9812559574b3ea39671e,2024-10-01_18h48.08.164,mdp,2024.2.1,Win32,60.24096386,66fa4ebf79326e780c390304,,,,,,,,,,,,,,,,,,,,,272.1563,272.1563,272.1575,273.1893,0,1,left,0.5035,,273.1906,274.256,1,1,right,274.2575,274.2581,,0,,0,274.2582,274.2582,274.2587,275.7561,0,1,1,1,1,0.2,0.8,0.6,0.4,,,,,,,,,,,,,,,0.5418,,0.2,0.8,0.6,0.4,0.2,0.8,0.4,0.6,1,0,,,,,,,,,,,,
,,60e20896098befdcf5e59441,66fc9812559574b3ea39671e,2024-10-01_18h48.08.164,mdp,2024.2.1,Win32,60.24096386,66fa4ebf79326e780c390304,,,,,,,,,,,,,,,,,,,,,275.7564,275.7564,275.7572,276.5557,1,1,right,0.2784,,276.5567,277.4393,0,1,left,277.4407,277.4412,,1,,0,277.4413,277.4413,277.4418,278.939,0,2,2,2,1,0.2,0.8,0.6,0.4,,,,,,,,,,,,,,,0.354,,0.6,0.4,0.4,0.6,0.2,0.8,0.4,0.6,1,0,,,,,,,,,,,,
,,60e20896098befdcf5e59441,66fc9812559574b3ea39671e,2024-10-01_18h48.08.164,mdp,2024.2.1,Win32,60.24096386,66fa4ebf79326e780c390304,,,,,,,,,,,,,,,,,,,,,278.9394,278.9394,278.9407,279.8062,0,1,left,0.3405,,279.8071,281.5223,0,1,left,281.5231,281.5237,,0,,0,281.5237,281.5237,281.5242,283.0219,0,3,3,3,1,0.2,0.8,0.6,0.4,,,,,,,,,,,,,,,1.1876,,0.6,0.4,0.4,0.6,0.2,0.8,0.4,0.6,1,0,,,,,,,,,,,,
,,60e20896098befdcf5e59441,66fc9812559574b3ea39671e,2024-10-01_18h48.08.164,mdp,2024.2.1,Win32,60.24096386,66fa4ebf79326e780c390304,,,,,,,,,,,,,,,,,,,,,283.0221,283.0221,283.0231,283.6389,1,1,right,0.0835,,283.6401,284.4719,1,0,right,284.473,284.4737,,0,,1,284.4737,284.4737,284.4744,285.9717,0,4,4,4,1,0.8,0.2,0.2,0.8,,,,,,,,,,,,,,,0.3125,,0.6,0.4,0.4,0.6,0.2,0.8,0.4,0.6,1,0,,,,,,,,,,,,
,,60e20896098befdcf5e59441,66fc9812559574b3ea39671e,2024-10-01_18h48.08.164,mdp,2024.2.1,Win32,60.24096386,66fa4ebf79326e780c390304,,,,,,,,,,,,,,,,,,,,,285.972,285.972,285.9732,287.0884,1,1,right,0.5847,,287.0891,287.7552,0,1,left,287.7565,287.7571,,1,,0,287.7571,287.7571,287.7577,289.2548,0,5,5,5,1,0.8,0.2,0.2,0.8,,,,,,,,,,,,,,,0.138,,0.6,0.4,0.4,0.6,0.2,0.8,0.4,0.6,1,0,,,,,,,,,,,,
,,60e20896098befdcf5e59441,66fc9812559574b3ea39671e,2024-10-01_18h48.08.164,mdp,2024.2.1,Win32,60.24096386,66fa4ebf79326e780c390304,,,,,,,,,,,,,,,,,,,,,289.2551,289.2551,289.2559,290.1548,0,0,left,0.3795,,290.1556,291.0049,1,1,right,291.0061,291.007,,1,,0,291.007,291.007,291.0077,292.5046,0,6,6,6,1,0.8,0.2,0.2,0.8,,,,,,,,,,,,,,,0.3179,,0.6,0.4,0.4,0.6,0.2,0.8,0.4,0.6,1,0,,,,,,,,,,,,
,,60e20896098befdcf5e59441,66fc9812559574b3ea39671e,2024-10-01_18h48.08.164,mdp,2024.2.1,Win32,60.24096386,66fa4ebf79326e780c390304,,,,,,,,,,,,,,,,,,,,,292.5048,292.5049,292.5058,293.3046,1,1,right,0.2713,,293.3055,294.0547,0,1,left,294.0558,294.0567,,0,,0,294.0567,294.0567,294.0575,295.5544,0,7,7,7,1,0.8,0.2,0.2,0.8,,,,,,,,,,,,,,,0.2215,,0.6,0.4,0.4,0.6,0.6,0.4,0.6,0.4,1,0,,,,,,,,,,,,
,,60e20896098befdcf5e59441,66fc9812559574b3ea39671e,2024-10-01_18h48.08.164,mdp,2024.2.1,Win32,60.24096386,66fa4ebf79326e780c390304,,,,,,,,,,,,,,,,,,,,,295.5547,295.5547,295.5554,296.6544,0,0,left,0.5791,,296.6552,297.4713,0,0,left,297.4726,297.4731,,0,,1,297.4731,297.4731,297.4737,298.971,0,8,8,8,1,0.8,0.2,0.2,0.8,,,,,,,,,,,,,,,0.2791,,0.6,0.4,0.4,0.6,0.8,0.2,0.4,0.6,1,0,,,,,,,,,,,,
,,60e20896098befdcf5e59441,66fc9812559574b3ea39671e,2024-10-01_18h48.08.164,mdp,2024.2.1,Win32,60.24096386,66fa4ebf79326e780c390304,,,,,,,,,,,,,,,,,,,,,298.9713,298.9713,298.9722,299.8544,0,0,left,0.3609,,299.8558,300.6044,0,0,left,300.6051,300.6057,,0,,1,300.6058,300.6058,300.6063,302.104,0,9,9,9,1,0.8,0.2,0.2,0.8,,,,,,,,,,,,,,,0.2194,,0.6,0.4,0.4,0.6,0.8,0.2,0.4,0.6,1,0,,,,,,,,,,,,
,,60e20896098befdcf5e59441,66fc9812559574b3ea39671e,2024-10-01_18h48.08.164,mdp,2024.2.1,Win32,60.24096386,66fa4ebf79326e780c390304,,,,,,,,,,,,,,,,,,,,,302.1044,302.1044,302.1055,302.8873,1,1,right,0.2618,,302.8882,303.4874,1,0,right,303.4888,303.4895,,0,,1,303.4895,303.4895,303.4904,304.9873,0,10,10,10,1,0.8,0.2,0.2,0.8,,,,,,,,,,,,,,,0.0917,,0.6,0.4,0.4,0.6,0.8,0.2,0.4,0.6,1,0,,,,,,,,,,,,
,,60e20896098befdcf5e59441,66fc9812559574b3ea39671e,2024-10-01_18h48.08.164,mdp,2024.2.1,Win32,60.24096386,66fa4ebf79326e780c390304,,,,,,,,,,,,,,,,,,,,,304.9877,304.9877,304.989,305.8705,0,1,left,0.3579,,305.8713,306.6705,0,0,left,306.6718,306.6724,,1,,1,306.6724,306.6724,306.6732,308.1702,0,11,11,11,1,0.8,0.2,0.2,0.8,,,,,,,,,,,,,,,0.2726,,0.6,0.4,0.4,0.6,0.8,0.2,0.4,0.6,1,0,,,,,,,,,,,,
,,60e20896098befdcf5e59441,66fc9812559574b3ea39671e,2024-10-01_18h48.08.164,mdp,2024.2.1,Win32,60.24096386,66fa4ebf79326e780c390304,,,,,,,,,,,,,,,,,,,,,308.1705,308.1705,308.1719,308.9704,0,0,left,0.2773,,308.9716,309.6204,0,1,left,309.6215,309.6222,,1,,0,309.6222,309.6222,309.623,311.1202,0,12,12,12,1,0.8,0.2,0.2,0.8,,,,,,,,,,,,,,,0.1207,,0.6,0.4,0.4,0.6,0.8,0.2,0.4,0.6,1,0,,,,,,,,,,,,
,,60e20896098befdcf5e59441,66fc9812559574b3ea39671e,2024-10-01_18h48.08.164,mdp,2024.2.1,Win32,60.24096386,66fa4ebf79326e780c390304,,,,,,,,,,,,,,,,,,,,,311.1206,311.1206,311.1216,311.9036,1,1,right,0.2507,,311.9046,312.8702,1,1,right,312.8716,312.8725,,1,,0,312.8725,312.8726,312.8734,314.3701,0,13,13,13,1,0.8,0.2,0.2,0.8,,,,,,,,,,,,,,,0.4318,,0.6,0.4,0.4,0.6,0.8,0.2,0.4,0.6,1,0,,,,,,,,,,,,
,,60e20896098befdcf5e59441,66fc9812559574b3ea39671e,2024-10-01_18h48.08.164,mdp,2024.2.1,Win32,60.24096386,66fa4ebf79326e780c390304,,,,,,,,,,,,,,,,,,,,,314.3705,314.3705,314.3713,315.1533,1,0,right,0.2599,,315.1545,316.0702,0,0,left,316.0716,316.0722,,0,,1,316.0723,316.0723,316.0728,317.5697,0,14,14,14,1,0.8,0.2,0.2,0.8,,,,,,,,,,,,,,,0.3811,,0.6,0.4,0.4,0.6,0.8,0.2,0.4,0.6,1,0,,,,,,,,,,,,
,,60e20896098befdcf5e59441,66fc9812559574b3ea39671e,2024-10-01_18h48.08.164,mdp,2024.2.1,Win32,60.24096386,66fa4ebf79326e780c390304,,,,,,,,,,,,,,,,,,,,,317.57,317.57,317.5708,318.4532,0,0,left,0.3582,,318.4543,319.1031,1,1,right,319.1042,319.1048,,1,,0,319.1049,319.1049,319.1056,320.603,0,15,15,15,1,0.8,0.2,0.2,0.8,,,,,,,,,,,,,,,0.1207,,0.4,0.6,0.2,0.8,0.8,0.2,0.4,0.6,1,0,,,,,,,,,,,,
,,60e20896098befdcf5e59441,66fc9812559574b3ea39671e,2024-10-01_18h48.08.164,mdp,2024.2.1,Win32,60.24096386,66fa4ebf79326e780c390304,,,,,,,,,,,,,,,,,,,,,320.6034,320.6034,320.6046,321.5366,1,0,right,0.4006,,321.5378,322.4532,0,0,left,322.4544,322.4551,,1,,1,322.4551,322.4551,322.4556,323.9527,0,16,16,16,1,0.8,0.2,0.2,0.8,,,,,,,,,,,,,,,0.3885,,0.4,0.6,0.2,0.8,0.8,0.2,0.4,0.6,1,0,,,,,,,,,,,,
,,60e20896098befdcf5e59441,66fc9812559574b3ea39671e,2024-10-01_18h48.08.164,mdp,2024.2.1,Win32,60.24096386,66fa4ebf79326e780c390304,,,,,,,,,,,,,,,,,,,,,323.953,323.953,323.9538,324.9194,0,0,left,0.4351,,324.9203,325.5029,0,1,left,325.504,325.5044,,0,,0,325.5045,325.5045,325.505,327.0025,0,17,17,17,1,0.8,0.2,0.2,0.8,,,,,,,,,,,,,,,0.0509,,0.4,0.6,0.2,0.8,0.4,0.6,0.6,0.4,1,0,,,,,,,,,,,,
,,60e20896098befdcf5e59441,66fc9812559574b3ea39671e,2024-10-01_18h48.08.164,mdp,2024.2.1,Win32,60.24096386,66fa4ebf79326e780c390304,,,,,,,,,,,,,,,,,,,,,327.0028,327.0029,327.0038,327.8195,1,1,right,0.2838,,327.8209,328.4693,0,1,left,328.4707,328.4713,,0,,0,328.4714,328.4714,328.472,329.9693,0,18,18,18,1,0.8,0.2,0.2,0.8,,,,,,,,,,,,,,,0.1236,,0.4,0.6,0.2,0.8,0.6,0.4,0.8,0.2,1,0,,,,,,,,,,,,
,,60e20896098befdcf5e59441,66fc9812559574b3ea39671e,2024-10-01_18h48.08.164,mdp,2024.2.1,Win32,60.24096386,66fa4ebf79326e780c390304,,,,,,,,,,,,,,,,,,,,,329.9698,329.9698,329.9718,330.669,1,0,right,0.1763,,330.6699,331.2526,1,1,right,331.254,331.2551,,1,,0,331.2551,331.2551,331.2557,332.7522,0,19,19,19,1,0.8,0.2,0.2,0.8,,,,,,,,,,,,,,,0.0479,,0.2,0.8,0.6,0.4,0.6,0.4,0.8,0.2,1,0,,,,,,,,,,,,
,,60e20896098befdcf5e59441,66fc9812559574b3ea39671e,2024-10-01_18h48.08.164,mdp,2024.2.1,Win32,60.24096386,66fa4ebf79326e780c390304,,,,,,,,,,,,,,,,,,,,,332.7527,332.7527,332.7542,333.5522,1,1,right,0.2774,,333.553,334.3188,0,0,left,334.3196,334.3201,,0,,1,334.3203,334.3203,334.3208,335.8186,0,20,20,20,1,0.8,0.2,0.2,0.8,,,,,,,,,,,,,,,0.2296,,0.2,0.8,0.6,0.4,0.6,0.4,0.8,0.2,1,0,,,,,,,,,,,,
,,60e20896098befdcf5e59441,66fc9812559574b3ea39671e,2024-10-01_18h48.08.164,mdp,2024.2.1,Win32,60.24096386,66fa4ebf79326e780c390304,,,,,,,,,,,,,,,,,,,,,335.8189,335.8189,335.82,336.6022,1,1,right,0.2581,,336.6031,337.1852,0,0,left,337.186,337.1865,,0,,1,337.1866,337.1866,337.1871,338.6853,0,21,21,21,1,0.8,0.2,0.2,0.8,,,,,,,,,,,,,,,0.0625,,0.2,0.8,0.6,0.4,0.6,0.4,0.8,0.2,1,0,,,,,,,,,,,,
,,60e20896098befdcf5e59441,66fc9812559574b3ea39671e,2024-10-01_18h48.08.164,mdp,2024.2.1,Win32,60.24096386,66fa4ebf79326e780c390304,,,,,,,,,,,,,,,,,,,,,338.6856,338.6856,338.6865,339.435,1,0,right,0.2167,,339.4358,340.3518,0,0,left,340.3529,340.3535,,1,,1,340.3535,340.3535,340.354,341.8517,0,22,22,22,1,0.2,0.8,0.8,0.2,,,,,,,,,,,,,,,0.3826,,0.2,0.8,0.6,0.4,0.6,0.4,0.8,0.2,1,0,,,,,,,,,,,,
,,60e20896098befdcf5e59441,66fc9812559574b3ea39671e,2024-10-01_18h48.08.164,mdp,2024.2.1,Win32,60.24096386,66fa4ebf79326e780c390304,,,,,,,,,,,,,,,,,,,,,341.852,341.852,341.853,342.6348,1,0,right,0.2614,,342.6357,343.3682,0,1,left,343.3695,343.3704,,1,,0,343.3706,343.3706,343.3714,344.8679,0,23,23,23,1,0.2,0.8,0.8,0.2,,,,,,,,,,,,,,,0.2102,,0.2,0.8,0.6,0.4,0.6,0.4,0.8,0.2,1,0,,,,,,,,,,,,
,,60e20896098befdcf5e59441,66fc9812559574b3ea39671e,2024-10-01_18h48.08.164,mdp,2024.2.1,Win32,60.24096386,66fa4ebf79326e780c390304,,,,,,,,,,,,,,,,,,,,,344.8683,344.8683,344.8692,345.7848,0,1,left,0.3833,,345.786,346.4179,1,0,right,346.4194,346.42,,0,,1,346.42,346.42,346.4206,347.9177,0,24,24,24,1,0.2,0.8,0.8,0.2,,,,,,,,,,,,,,,0.1024,,0.2,0.8,0.6,0.4,0.6,0.4,0.8,0.2,1,0,,,,,,,,,,,,
,,60e20896098befdcf5e59441,66fc9812559574b3ea39671e,2024-10-01_18h48.08.164,mdp,2024.2.1,Win32,60.24096386,66fa4ebf79326e780c390304,,,,,,,,,,,,,,,,,,,,,347.9181,347.9181,347.9189,348.7013,0,0,left,0.2602,,348.7022,349.3679,1,1,right,349.3686,349.3692,,0,,0,349.3692,349.3692,349.3697,350.8677,0,25,25,25,1,0.2,0.8,0.8,0.2,,,,,,,,,,,,,,,0.1305,,0.2,0.8,0.6,0.4,0.6,0.4,0.8,0.2,1,0,,,,,,,,,,,,
,,60e20896098befdcf5e59441,66fc9812559574b3ea39671e,2024-10-01_18h48.08.164,mdp,2024.2.1,Win32,60.24096386,66fa4ebf79326e780c390304,,,,,,,,,,,,,,,,,,,,,350.868,350.868,350.8689,351.6509,0,1,left,0.2508,,351.6518,352.251,1,0,right,352.2521,352.2526,,0,,1,352.2527,352.2527,352.2533,353.7513,0,26,26,26,1,0.2,0.8,0.8,0.2,,,,,,,,,,,,,,,0.092,,0.2,0.8,0.6,0.4,0.6,0.4,0.8,0.2,1,0,,,,,,,,,,,,
,,60e20896098befdcf5e59441,66fc9812559574b3ea39671e,2024-10-01_18h48.08.164,mdp,2024.2.1,Win32,60.24096386,66fa4ebf79326e780c390304,,,,,,,,,,,,,,,,,,,,,353.7516,353.7516,353.7526,354.534,0,1,left,0.2615,,354.5349,355.1343,1,0,right,355.1355,355.136,,0,,1,355.1362,355.1362,355.1366,356.6339,0,27,27,27,1,0.2,0.8,0.8,0.2,,,,,,,,,,,,,,,0.0834,,0.2,0.8,0.6,0.4,0.6,0.4,0.8,0.2,1,0,,,,,,,,,,,,
,,60e20896098befdcf5e59441,66fc9812559574b3ea39671e,2024-10-01_18h48.08.164,mdp,2024.2.1,Win32,60.24096386,66fa4ebf79326e780c390304,,,,,,,,,,,,,,,,,,,,,356.6342,356.6342,356.635,357.784,0,0,left,0.6226,,357.7847,358.3839,0,1,left,358.3852,358.386,,1,,0,358.386,358.386,358.3867,359.884,0,28,28,28,1,0.2,0.8,0.8,0.2,,,,,,,,,,,,,,,0.0685,,0.2,0.8,0.6,0.4,0.6,0.4,0.8,0.2,1,0,,,,,,,,,,,,
,,60e20896098befdcf5e59441,66fc9812559574b3ea39671e,2024-10-01_18h48.08.164,mdp,2024.2.1,Win32,60.24096386,66fa4ebf79326e780c390304,,,,,,,,,,,,,,,,,,,,,359.8844,359.8844,359.8856,360.6671,0,1,left,0.2502,,360.6682,361.2672,1,0,right,361.268,361.2687,,0,,1,361.2687,361.2687,361.2692,362.7671,0,29,29,29,1,0.2,0.8,0.8,0.2,,,,,,,,,,,,,,,0.0698,,0.2,0.8,0.6,0.4,0.6,0.4,0.8,0.2,1,0,,,,,,,,,,,,
,,60e20896098befdcf5e59441,66fc9812559574b3ea39671e,2024-10-01_18h48.08.164,mdp,2024.2.1,Win32,60.24096386,66fa4ebf79326e780c390304,,,,,,,,,,,,,,,,,,,,,362.7674,362.7674,362.7684,363.8003,1,1,right,0.4992,,363.801,364.3835,1,0,right,364.3846,364.3855,,1,,1,364.3856,364.3856,364.3862,365.8837,0,30,30,30,1,0.8,0.2,0.2,0.8,,,,,,,,,,,,,,,0.06,,0.2,0.8,0.6,0.4,0.6,0.4,0.8,0.2,1,0,,,,,,,,,,,,
,,60e20896098befdcf5e59441,66fc9812559574b3ea39671e,2024-10-01_18h48.08.164,mdp,2024.2.1,Win32,60.24096386,66fa4ebf79326e780c390304,,,,,,,,,,,,,,,,,,,,,365.884,365.884,365.8848,366.6834,0,0,left,0.2799,,366.6842,367.2669,1,1,right,367.2679,367.2685,,1,,0,367.2685,367.2686,367.2692,368.7667,0,31,31,31,1,0.8,0.2,0.2,0.8,,,,,,,,,,,,,,,0.0487,,0.2,0.8,0.6,0.4,0.6,0.4,0.8,0.2,1,0,,,,,,,,,,,,
,,60e20896098befdcf5e59441,66fc9812559574b3ea39671e,2024-10-01_18h48.08.164,mdp,2024.2.1,Win32,60.24096386,66fa4ebf79326e780c390304,,,,,,,,,,,,,,,,,,,,,368.7672,368.7672,368.7684,369.6831,0,0,left,0.396,,369.684,370.5499,1,0,right,370.5512,370.5519,,0,,1,370.5519,370.5519,370.5526,372.0498,0,32,32,32,1,0.8,0.2,0.2,0.8,,,,,,,,,,,,,,,0.3406,,0.2,0.8,0.6,0.4,0.6,0.4,0.8,0.2,1,0,,,,,,,,,,,,
,,60e20896098befdcf5e59441,66fc9812559574b3ea39671e,2024-10-01_18h48.08.164,mdp,2024.2.1,Win32,60.24096386,66fa4ebf79326e780c390304,,,,,,,,,,,,,,,,,,,,,372.0502,372.0502,372.0516,373.0498,1,1,right,0.4687,,373.0511,373.6663,1,0,right,373.667,373.6675,,0,,1,373.6676,373.6676,373.6681,375.1664,0,33,33,33,1,0.8,0.2,0.2,0.8,,,,,,,,,,,,,,,0.0918,,0.2,0.8,0.6,0.4,0.6,0.4,0.8,0.2,1,0,,,,,,,,,,,,
,,60e20896098befdcf5e59441,66fc9812559574b3ea39671e,2024-10-01_18h48.08.164,mdp,2024.2.1,Win32,60.24096386,66fa4ebf79326e780c390304,,,,,,,,,,,,,,,,,,,,,375.1668,375.1668,375.1676,376.0331,1,1,right,0.3342,,376.0342,376.7162,0,0,left,376.7171,376.7177,,1,,1,376.7178,376.7178,376.7184,378.216,0,34,34,34,1,0.8,0.2,0.2,0.8,,,,,,,,,,,,,,,0.1524,,0.2,0.8,0.6,0.4,0.6,0.4,0.8,0.2,1,0,,,,,,,,,,,,
,,60e20896098befdcf5e59441,66fc9812559574b3ea39671e,2024-10-01_18h48.08.164,mdp,2024.2.1,Win32,60.24096386,66fa4ebf79326e780c390304,,,,,,,,,,,,,,,,,,,,,378.2165,378.2165,378.2176,379.0997,0,0,left,0.3641,,379.1007,379.8658,1,0,right,379.8672,379.868,,0,,1,379.8681,379.8681,379.8686,381.3661,0,35,35,35,1,0.8,0.2,0.2,0.8,,,,,,,,,,,,,,,0.2294,,0.2,0.8,0.6,0.4,0.6,0.4,0.8,0.2,1,0,,,,,,,,,,,,
,,60e20896098befdcf5e59441,66fc9812559574b3ea39671e,2024-10-01_18h48.08.164,mdp,2024.2.1,Win32,60.24096386,66fa4ebf79326e780c390304,,,,,,,,,,,,,,,,,,,,,381.3665,381.3665,381.3679,382.2331,1,1,right,0.3342,,382.2343,382.866,0,1,left,382.8673,382.8679,,1,,0,382.8679,382.8679,382.8685,384.3658,0,36,36,36,1,0.8,0.2,0.2,0.8,,,,,,,,,,,,,,,0.0995,,0.2,0.8,0.6,0.4,0.6,0.4,0.8,0.2,1,0,,,,,,,,,,,,
,,60e20896098befdcf5e59441,66fc9812559574b3ea39671e,2024-10-01_18h48.08.164,mdp,2024.2.1,Win32,60.24096386,66fa4ebf79326e780c390304,,,,,,,,,,,,,,,,,,,,,384.3661,384.3661,384.3668,385.149,0,0,left,0.2588,,385.1497,385.7155,1,0,right,385.7164,385.7169,,0,,1,385.7169,385.7169,385.7175,387.2153,0,37,37,37,1,0.8,0.2,0.2,0.8,,,,,,,,,,,,,,,0.0394,,0.2,0.8,0.6,0.4,0.6,0.4,0.8,0.2,1,0,,,,,,,,,,,,
,,60e20896098befdcf5e59441,66fc9812559574b3ea39671e,2024-10-01_18h48.08.164,mdp,2024.2.1,Win32,60.24096386,66fa4ebf79326e780c390304,,,,,,,,,,,,,,,,,,,,,387.2156,387.2156,387.2165,388.4155,0,0,left,0.6694,,388.4165,389.3489,1,1,right,389.3501,389.3507,,0,,0,389.3507,389.3507,389.3514,390.8485,0,38,38,38,1,0.8,0.2,0.2,0.8,,,,,,,,,,,,,,,0.4102,,0.2,0.8,0.6,0.4,0.6,0.4,0.8,0.2,1,0,,,,,,,,,,,,
,,60e20896098befdcf5e59441,66fc9812559574b3ea39671e,2024-10-01_18h48.08.164,mdp,2024.2.1,Win32,60.24096386,66fa4ebf79326e780c390304,,,,,,,,,,,,,,,,,,,,,390.8487,390.8487,390.8495,391.5992,1,1,right,0.2307,,391.5999,392.1488,1,0,right,392.1502,392.1509,,0,,1,392.151,392.151,392.1515,393.6484,0,39,39,39,1,0.8,0.2,0.2,0.8,,,,,,,,,,,,,,,0.0149,,0.2,0.8,0.6,0.4,0.6,0.4,0.8,0.2,1,0,,,,,,,,,,,,
,,60e20896098befdcf5e59441,66fc9812559574b3ea39671e,2024-10-01_18h48.08.164,mdp,2024.2.1,Win32,60.24096386,66fa4ebf79326e780c390304,,,,,,,,,,,,,,,,,,,,,393.6488,393.6488,393.6499,394.4652,1,1,right,0.2922,,394.4664,395.1483,0,0,left,395.1491,395.1496,,0,,1,395.1496,395.1496,395.1501,396.6481,0,40,40,40,1,0.8,0.2,0.2,0.8,,,,,,,,,,,,,,,0.1524,,0.2,0.8,0.6,0.4,0.6,0.4,0.8,0.2,1,0,,,,,,,,,,,,
,,60e20896098befdcf5e59441,66fc9812559574b3ea39671e,2024-10-01_18h48.08.164,mdp,2024.2.1,Win32,60.24096386,66fa4ebf79326e780c390304,,,,,,,,,,,,,,,,,,,,,396.6484,396.6484,396.6492,397.4983,1,0,right,0.3168,,397.4995,398.1316,0,1,left,398.1331,398.1339,,1,,0,398.134,398.134,398.1349,399.6312,0,41,41,41,1,0.6,0.4,0.4,0.6,,,,,,,,,,,,,,,0.0962,,0.2,0.8,0.6,0.4,0.6,0.4,0.8,0.2,1,0,,,,,,,,,,,,
,,60e20896098befdcf5e59441,66fc9812559574b3ea39671e,2024-10-01_18h48.08.164,mdp,2024.2.1,Win32,60.24096386,66fa4ebf79326e780c390304,,,,,,,,,,,,,,,,,,,,,399.6315,399.6315,399.6323,400.4314,0,0,left,0.2697,,400.4323,401.1318,1,1,right,401.1326,401.1332,,1,,0,401.1332,401.1332,401.1338,402.6312,0,42,42,42,1,0.6,0.4,0.4,0.6,,,,,,,,,,,,,,,0.1691,,0.2,0.8,0.6,0.4,0.6,0.4,0.8,0.2,1,0,,,,,,,,,,,,
,,60e20896098befdcf5e59441,66fc9812559574b3ea39671e,2024-10-01_18h48.08.164,mdp,2024.2.1,Win32,60.24096386,66fa4ebf79326e780c390304,,,,,,,,,,,,,,,,,,,,,402.6315,402.6315,402.6324,403.3481,1,1,right,0.191,,403.3492,403.9644,1,1,right,403.9652,403.9657,,0,,0,403.9657,403.9657,403.9662,405.4642,0,43,43,43,1,0.6,0.4,0.4,0.6,,,,,,,,,,,,,,,0.093,,0.2,0.8,0.6,0.4,0.6,0.4,0.8,0.2,1,0,,,,,,,,,,,,
,,60e20896098befdcf5e59441,66fc9812559574b3ea39671e,2024-10-01_18h48.08.164,mdp,2024.2.1,Win32,60.24096386,66fa4ebf79326e780c390304,,,,,,,,,,,,,,,,,,,,,405.4645,405.4645,405.4652,406.3313,1,0,right,0.3336,,406.3323,407.2142,0,1,left,407.2149,407.2155,,1,,0,407.2155,407.2155,407.216,408.714,0,44,44,44,1,0.6,0.4,0.4,0.6,,,,,,,,,,,,,,,0.3576,,0.2,0.8,0.6,0.4,0.6,0.4,0.8,0.2,1,0,,,,,,,,,,,,
,,60e20896098befdcf5e59441,66fc9812559574b3ea39671e,2024-10-01_18h48.08.164,mdp,2024.2.1,Win32,60.24096386,66fa4ebf79326e780c390304,,,,,,,,,,,,,,,,,,,,,408.7143,408.7143,408.715,409.5312,0,0,left,0.2898,,409.5325,410.1978,0,1,left,410.1989,410.1995,,1,,0,410.1995,410.1995,410.2,411.6974,0,45,45,45,1,0.6,0.4,0.4,0.6,,,,,,,,,,,,,,,0.1389,,0.2,0.8,0.6,0.4,0.6,0.4,0.8,0.2,1,0,,,,,,,,,,,,
,,60e20896098befdcf5e59441,66fc9812559574b3ea39671e,2024-10-01_18h48.08.164,mdp,2024.2.1,Win32,60.24096386,66fa4ebf79326e780c390304,,,,,,,,,,,,,,,,,,,,,411.6979,411.6979,411.6989,413.3806,0,0,left,1.1578,,413.3817,413.9306,1,1,right,413.9314,413.9319,,0,,0,413.932,413.932,413.9325,415.4305,0,46,46,46,1,0.6,0.4,0.4,0.6,,,,,,,,,,,,,,,0.0197,,0.2,0.8,0.6,0.4,0.6,0.4,0.8,0.2,1,0,,,,,,,,,,,,
,,60e20896098befdcf5e59441,66fc9812559574b3ea39671e,2024-10-01_18h48.08.164,mdp,2024.2.1,Win32,60.24096386,66fa4ebf79326e780c390304,,,,,,,,,,,,,,,,,,,,,415.4309,415.4309,415.4318,416.1469,1,0,right,0.1949,,416.1477,416.6803,0,1,left,416.6812,416.6817,,0,,0,416.6817,416.6817,416.6822,418.1801,0,47,47,47,1,0.6,0.4,0.4,0.6,,,,,,,,,,,,,,,0.0173,,0.2,0.8,0.6,0.4,0.6,0.4,0.8,0.2,1,0,,,,,,,,,,,,
,,60e20896098befdcf5e59441,66fc9812559574b3ea39671e,2024-10-01_18h48.08.164,mdp,2024.2.1,Win32,60.24096386,66fa4ebf79326e780c390304,,,,,,,,,,,,,,,,,,,,,418.1804,418.1804,418.1811,418.9972,0,1,left,0.2839,,418.9983,419.5635,0,1,left,419.5643,419.565,,1,,0,419.565,419.565,419.5655,421.0634,0,48,48,48,1,0.6,0.4,0.4,0.6,,,,,,,,,,,,,,,0.0295,,0.2,0.8,0.6,0.4,0.6,0.4,0.8,0.2,1,0,,,,,,,,,,,,
,,60e20896098befdcf5e59441,66fc9812559574b3ea39671e,2024-10-01_18h48.08.164,mdp,2024.2.1,Win32,60.24096386,66fa4ebf79326e780c390304,,,,,,,,,,,,,,,,,,,,,421.0637,421.0637,421.0648,421.9133,0,0,left,0.3207,,421.9141,422.5468,1,1,right,422.5477,422.5485,,0,,0,422.5485,422.5485,422.5493,424.0466,0,49,49,49,1,0.6,0.4,0.4,0.6,,,,,,,,,,,,,,,0.1009,,0.2,0.8,0.6,0.4,0.6,0.4,0.8,0.2,1,0,,,,,,,,,,,,
,,60e20896098befdcf5e59441,66fc9812559574b3ea39671e,2024-10-01_18h48.08.164,mdp,2024.2.1,Win32,60.24096386,66fa4ebf79326e780c390304,,,,,,,,,,,,,,,,,,,,,,,,,,,,,,,,,,,,,,,,,,,,,,,,,,,,,,,,424.0467,482.5596,0,1,1,6,1,imgs/kangaroo.png,imgs/dog.png,imgs/giraffe.png,imgs/rabbit.png,imgs/squirrel.png,,,,,,,,,,,,,,,,,,,,,,,,
,,60e20896098befdcf5e59441,66fc9812559574b3ea39671e,2024-10-01_18h48.08.164,mdp,2024.2.1,Win32,60.24096386,66fa4ebf79326e780c390304,,,,,,,,,,,,,,3,seqs/st3seq5.csv,482.5688,511.808,space,28.7159,,511.8229,511.8229,511.8237,513.0077,0,0,left,0.6614,,513.0087,513.7576,1,1,right,513.7585,514.408,0,0,left,1,514.408,514.408,514.4088,515.9074,0,0,0,0,1,0.6,0.4,0.2,0.8,,,,,,,,,,,,,,,0.2202,,0.8,0.2,0.4,0.6,0.8,0.2,0.8,0.2,,,0.1285,,0.2,0.8,0.4,0.6,0.6,0.4,0.8,0.2,1,0
,,60e20896098befdcf5e59441,66fc9812559574b3ea39671e,2024-10-01_18h48.08.164,mdp,2024.2.1,Win32,60.24096386,66fa4ebf79326e780c390304,,,,,,,,,,,,,,,,,,,,,515.9079,515.9079,515.9087,516.8408,0,0,left,0.4051,,516.8416,517.4907,0,0,left,517.4915,518.3909,1,0,right,1,518.391,518.391,518.392,519.8905,0,1,1,1,1,0.6,0.4,0.2,0.8,,,,,,,,,,,,,,,0.1182,,0.8,0.2,0.4,0.6,0.8,0.2,0.8,0.2,,,0.3638,,0.2,0.8,0.4,0.6,0.6,0.4,0.8,0.2,1,0
,,60e20896098befdcf5e59441,66fc9812559574b3ea39671e,2024-10-01_18h48.08.164,mdp,2024.2.1,Win32,60.24096386,66fa4ebf79326e780c390304,,,,,,,,,,,,,,,,,,,,,519.8908,519.8908,519.8916,521.2072,1,1,right,0.789,,521.208,522.1406,1,0,right,522.1416,522.957,0,1,left,0,522.9571,522.9571,522.9579,524.4569,0,2,2,2,1,0.6,0.4,0.2,0.8,,,,,,,,,,,,,,,0.4124,,0.8,0.2,0.4,0.6,0.8,0.2,0.8,0.2,,,0.2811,,0.2,0.8,0.4,0.6,0.6,0.4,0.8,0.2,1,0
,,60e20896098befdcf5e59441,66fc9812559574b3ea39671e,2024-10-01_18h48.08.164,mdp,2024.2.1,Win32,60.24096386,66fa4ebf79326e780c390304,,,,,,,,,,,,,,,,,,,,,524.4572,524.4572,524.458,525.2904,0,0,left,0.3001,,525.2918,526.0403,0,1,left,526.0416,526.7906,1,0,right,1,526.7906,526.7906,526.7917,528.2901,0,3,3,3,1,0.6,0.4,0.2,0.8,,,,,,,,,,,,,,,0.2238,,0.8,0.2,0.4,0.6,0.8,0.2,0.8,0.2,,,0.2128,,0.2,0.8,0.4,0.6,0.6,0.4,0.8,0.2,1,0
,,60e20896098befdcf5e59441,66fc9812559574b3ea39671e,2024-10-01_18h48.08.164,mdp,2024.2.1,Win32,60.24096386,66fa4ebf79326e780c390304,,,,,,,,,,,,,,,,,,,,,528.2906,528.2906,528.2915,529.9904,1,1,right,1.17,,529.9914,531.1399,0,0,left,531.1408,532.09,0,1,left,0,532.0901,532.0901,532.091,533.5896,0,4,4,4,1,0.6,0.4,0.2,0.8,,,,,,,,,,,,,,,0.6124,,0.8,0.2,0.4,0.6,0.8,0.2,0.8,0.2,,,0.4129,,0.2,0.8,0.4,0.6,0.6,0.4,0.8,0.2,1,0
,,60e20896098befdcf5e59441,66fc9812559574b3ea39671e,2024-10-01_18h48.08.164,mdp,2024.2.1,Win32,60.24096386,66fa4ebf79326e780c390304,,,,,,,,,,,,,,,,,,,,,533.59,533.59,533.5912,534.39,0,0,left,0.2712,,534.3914,535.1729,0,0,left,535.1737,535.8729,0,1,left,0,535.8729,535.8729,535.8738,537.3728,0,5,5,5,1,0.6,0.4,0.2,0.8,,,,,,,,,,,,,,,0.2489,,0.8,0.2,0.4,0.6,0.8,0.2,0.8,0.2,,,0.1799,,0.2,0.8,0.4,0.6,0.6,0.4,0.8,0.2,1,0
,,60e20896098befdcf5e59441,66fc9812559574b3ea39671e,2024-10-01_18h48.08.164,mdp,2024.2.1,Win32,60.24096386,66fa4ebf79326e780c390304,,,,,,,,,,,,,,,,,,,,,537.3731,537.3731,537.374,538.0564,0,0,left,0.1504,,538.0575,538.8398,1,0,right,538.8406,539.6227,1,0,right,1,539.6227,539.6228,539.6236,541.1226,0,6,6,6,1,0.6,0.4,0.2,0.8,,,,,,,,,,,,,,,0.2521,,0.8,0.2,0.4,0.6,0.8,0.2,0.8,0.2,,,0.2531,,0.2,0.8,0.4,0.6,0.6,0.4,0.8,0.2,1,0
,,60e20896098befdcf5e59441,66fc9812559574b3ea39671e,2024-10-01_18h48.08.164,mdp,2024.2.1,Win32,60.24096386,66fa4ebf79326e780c390304,,,,,,,,,,,,,,,,,,,,,541.1229,541.1229,541.124,542.3225,0,0,left,0.6798,,542.3233,543.6226,1,0,right,543.624,544.5728,1,0,right,1,544.573,544.573,544.5743,546.0723,0,7,7,7,1,0.6,0.4,0.2,0.8,,,,,,,,,,,,,,,0.7677,,0.8,0.2,0.4,0.6,0.8,0.2,0.8,0.2,,,0.4173,,0.2,0.8,0.4,0.6,0.6,0.4,0.8,0.2,1,0
,,60e20896098befdcf5e59441,66fc9812559574b3ea39671e,2024-10-01_18h48.08.164,mdp,2024.2.1,Win32,60.24096386,66fa4ebf79326e780c390304,,,,,,,,,,,,,,,,,,,,,546.0725,546.0725,546.0733,546.939,0,0,left,0.3353,,546.9405,547.7721,1,0,right,547.773,548.5389,1,1,right,0,548.5389,548.5389,548.5396,550.0387,0,8,8,8,1,0.6,0.4,0.2,0.8,,,,,,,,,,,,,,,0.3122,,0.8,0.2,0.4,0.6,0.8,0.2,0.8,0.2,,,0.2362,,0.2,0.8,0.4,0.6,0.6,0.4,0.8,0.2,1,0
,,60e20896098befdcf5e59441,66fc9812559574b3ea39671e,2024-10-01_18h48.08.164,mdp,2024.2.1,Win32,60.24096386,66fa4ebf79326e780c390304,,,,,,,,,,,,,,,,,,,,,550.0392,550.0392,550.0405,550.8053,1,1,right,0.2456,,550.8061,551.522,0,0,left,551.5232,552.1052,1,1,right,0,552.1053,552.1053,552.1062,553.6052,0,9,9,9,1,0.6,0.4,0.2,0.8,,,,,,,,,,,,,,,0.2016,,0.8,0.2,0.4,0.6,0.8,0.2,0.8,0.2,,,0.0547,,0.2,0.8,0.4,0.6,0.6,0.4,0.8,0.2,1,0
,,60e20896098befdcf5e59441,66fc9812559574b3ea39671e,2024-10-01_18h48.08.164,mdp,2024.2.1,Win32,60.24096386,66fa4ebf79326e780c390304,,,,,,,,,,,,,,,,,,,,,553.6056,553.6056,553.6068,554.5218,0,0,left,0.3856,,554.5226,555.0551,1,0,right,555.0559,556.0216,1,1,right,0,556.0217,556.0217,556.0229,557.5216,0,10,10,10,1,0.6,0.4,0.2,0.8,,,,,,,,,,,,,,,0.0011,,0.8,0.2,0.4,0.6,0.8,0.2,0.8,0.2,,,0.4592,,0.2,0.8,0.4,0.6,0.6,0.4,0.8,0.2,1,0
,,60e20896098befdcf5e59441,66fc9812559574b3ea39671e,2024-10-01_18h48.08.164,mdp,2024.2.1,Win32,60.24096386,66fa4ebf79326e780c390304,,,,,,,,,,,,,,,,,,,,,557.522,557.5221,557.5232,558.355,1,1,right,0.3036,,558.3561,559.0883,1,0,right,559.0894,559.8547,0,1,left,0,559.8548,559.8548,559.8556,561.3548,0,11,11,11,1,0.6,0.4,0.2,0.8,,,,,,,,,,,,,,,0.1966,,0.8,0.2,0.4,0.6,0.8,0.2,0.8,0.2,,,0.2456,,0.2,0.8,0.4,0.6,0.6,0.4,0.8,0.2,1,0
,,60e20896098befdcf5e59441,66fc9812559574b3ea39671e,2024-10-01_18h48.08.164,mdp,2024.2.1,Win32,60.24096386,66fa4ebf79326e780c390304,,,,,,,,,,,,,,,,,,,,,561.355,561.3551,561.3559,562.2721,0,0,left,0.3887,,562.2739,562.8049,1,1,right,562.8062,563.7212,0,1,left,0,563.7213,563.7213,563.7222,565.2211,0,12,12,12,1,0.6,0.4,0.2,0.8,,,,,,,,,,,,,,,0.0003,,0.8,0.2,0.4,0.6,0.8,0.2,0.8,0.2,,,0.3876,,0.2,0.8,0.4,0.6,0.6,0.4,0.8,0.2,1,0
,,60e20896098befdcf5e59441,66fc9812559574b3ea39671e,2024-10-01_18h48.08.164,mdp,2024.2.1,Win32,60.24096386,66fa4ebf79326e780c390304,,,,,,,,,,,,,,,,,,,,,565.2215,565.2216,565.2226,566.2543,0,1,left,0.5003,,566.2551,566.9545,1,0,right,566.9556,567.5544,1,1,right,0,567.5544,567.5545,567.5559,569.0543,0,13,13,13,1,0.6,0.4,0.2,0.8,,,,,,,,,,,,,,,0.1818,,0.8,0.2,0.4,0.6,0.8,0.2,0.8,0.2,,,0.0721,,0.2,0.8,0.4,0.6,0.6,0.4,0.8,0.2,1,0
,,60e20896098befdcf5e59441,66fc9812559574b3ea39671e,2024-10-01_18h48.08.164,mdp,2024.2.1,Win32,60.24096386,66fa4ebf79326e780c390304,,,,,,,,,,,,,,,,,,,,,569.0548,569.0548,569.056,569.6545,1,1,right,0.0673,,569.6555,570.3042,0,0,left,570.3054,570.9215,0,1,left,0,570.9215,570.9215,570.9223,572.4207,0,14,14,14,1,0.2,0.8,0.8,0.2,,,,,,,,,,,,,,,0.1235,,0.8,0.2,0.4,0.6,0.8,0.2,0.8,0.2,,,0.0888,,0.2,0.8,0.4,0.6,0.6,0.4,0.8,0.2,1,0
,,60e20896098befdcf5e59441,66fc9812559574b3ea39671e,2024-10-01_18h48.08.164,mdp,2024.2.1,Win32,60.24096386,66fa4ebf79326e780c390304,,,,,,,,,,,,,,,,,,,,,572.4212,572.4212,572.4223,573.2373,0,0,left,0.2899,,573.2381,574.021,1,1,right,574.0222,574.6207,1,0,right,1,574.6208,574.6208,574.6221,576.1204,0,15,15,15,1,0.2,0.8,0.8,0.2,,,,,,,,,,,,,,,0.2483,,0.8,0.2,0.4,0.6,0.8,0.2,0.8,0.2,,,0.0633,,0.2,0.8,0.4,0.6,0.6,0.4,0.8,0.2,1,0
,,60e20896098befdcf5e59441,66fc9812559574b3ea39671e,2024-10-01_18h48.08.164,mdp,2024.2.1,Win32,60.24096386,66fa4ebf79326e780c390304,,,,,,,,,,,,,,,,,,,,,576.1207,576.1207,576.1215,576.9538,0,1,left,0.3003,,576.9546,577.6369,0,0,left,577.6378,578.2536,1,0,right,1,578.2537,578.2537,578.2545,579.7538,0,16,16,16,1,0.2,0.8,0.8,0.2,,,,,,,,,,,,,,,0.1581,,0.8,0.2,0.4,0.6,0.8,0.2,0.8,0.2,,,0.079,,0.2,0.8,0.4,0.6,0.6,0.4,0.8,0.2,1,0
,,60e20896098befdcf5e59441,66fc9812559574b3ea39671e,2024-10-01_18h48.08.164,mdp,2024.2.1,Win32,60.24096386,66fa4ebf79326e780c390304,,,,,,,,,,,,,,,,,,,,,579.7544,579.7544,579.7556,580.554,0,1,left,0.2701,,580.5552,581.2369,0,0,left,581.2379,581.7869,1,0,right,1,581.787,581.787,581.7883,583.2871,0,17,17,17,1,0.2,0.8,0.8,0.2,,,,,,,,,,,,,,,0.1634,,0.8,0.2,0.4,0.6,0.8,0.2,0.8,0.2,,,0.0194,,0.6,0.4,0.2,0.8,0.6,0.4,0.8,0.2,1,0
,,60e20896098befdcf5e59441,66fc9812559574b3ea39671e,2024-10-01_18h48.08.164,mdp,2024.2.1,Win32,60.24096386,66fa4ebf79326e780c390304,,,,,,,,,,,,,,,,,,,,,583.2876,583.2876,583.2887,584.0869,0,0,left,0.2747,,584.0881,584.787,0,0,left,584.7882,585.57,0,0,left,1,585.5701,585.5701,585.5712,587.0699,0,18,18,18,1,0.2,0.8,0.8,0.2,,,,,,,,,,,,,,,0.1681,,0.8,0.2,0.4,0.6,0.8,0.2,0.8,0.2,,,0.2555,,0.4,0.6,0.8,0.2,0.6,0.4,0.8,0.2,1,0
,,60e20896098befdcf5e59441,66fc9812559574b3ea39671e,2024-10-01_18h48.08.164,mdp,2024.2.1,Win32,60.24096386,66fa4ebf79326e780c390304,,,,,,,,,,,,,,,,,,,,,587.0703,587.0703,587.0713,587.7199,1,1,right,0.1301,,587.7208,588.503,1,0,right,588.5043,589.0699,0,1,left,0,589.07,589.07,589.0713,590.5697,0,19,19,19,1,0.6,0.4,0.2,0.8,,,,,,,,,,,,,,,0.2534,,0.8,0.2,0.4,0.6,0.8,0.2,0.8,0.2,,,0.0331,,0.4,0.6,0.8,0.2,0.6,0.4,0.8,0.2,1,0
,,60e20896098befdcf5e59441,66fc9812559574b3ea39671e,2024-10-01_18h48.08.164,mdp,2024.2.1,Win32,60.24096386,66fa4ebf79326e780c390304,,,,,,,,,,,,,,,,,,,,,590.57,590.57,590.5708,591.4362,0,0,left,0.3461,,591.4369,592.0867,0,1,left,592.0887,592.6195,0,1,left,0,592.6195,592.6195,592.6203,594.1194,0,20,20,20,1,0.6,0.4,0.2,0.8,,,,,,,,,,,,,,,0.1296,,0.2,0.8,0.6,0.4,0.8,0.2,0.8,0.2,,,0.0004,,0.4,0.6,0.8,0.2,0.6,0.4,0.8,0.2,1,0
,,60e20896098befdcf5e59441,66fc9812559574b3ea39671e,2024-10-01_18h48.08.164,mdp,2024.2.1,Win32,60.24096386,66fa4ebf79326e780c390304,,,,,,,,,,,,,,,,,,,,,594.1197,594.1198,594.1209,594.6694,0,0,left,0.0301,,594.6706,595.2198,0,1,left,595.2208,595.7864,0,1,left,0,595.7865,595.7865,595.7872,597.2857,0,21,21,21,1,0.6,0.4,0.2,0.8,,,,,,,,,,,,,,,0.0199,,0.2,0.8,0.6,0.4,0.8,0.2,0.8,0.2,,,0.0471,,0.2,0.8,0.6,0.4,0.6,0.4,0.8,0.2,1,0
,,60e20896098befdcf5e59441,66fc9812559574b3ea39671e,2024-10-01_18h48.08.164,mdp,2024.2.1,Win32,60.24096386,66fa4ebf79326e780c390304,,,,,,,,,,,,,,,,,,,,,597.286,597.286,597.2867,598.3859,1,1,right,0.567,,598.3871,599.2524,1,1,right,599.2533,600.0358,0,0,left,1,600.0359,600.0359,600.0369,601.5357,0,22,22,22,1,0.6,0.4,0.2,0.8,,,,,,,,,,,,,,,0.3321,,0.2,0.8,0.6,0.4,0.8,0.2,0.8,0.2,,,0.2505,,0.2,0.8,0.6,0.4,0.6,0.4,0.8,0.2,1,0
,,60e20896098befdcf5e59441,66fc9812559574b3ea39671e,2024-10-01_18h48.08.164,mdp,2024.2.1,Win32,60.24096386,66fa4ebf79326e780c390304,,,,,,,,,,,,,,,,,,,,,601.5363,601.5363,601.5378,602.3522,1,1,right,0.2955,,602.3531,602.9854,0,0,left,602.9862,603.6355,0,1,left,0,603.6357,603.6357,603.6368,605.1352,0,23,23,23,1,0.6,0.4,0.2,0.8,,,,,,,,,,,,,,,0.1115,,0.2,0.8,0.6,0.4,0.8,0.2,0.8,0.2,,,0.1332,,0.2,0.8,0.6,0.4,0.4,0.6,0.6,0.4,1,0
,,60e20896098befdcf5e59441,66fc9812559574b3ea39671e,2024-10-01_18h48.08.164,mdp,2024.2.1,Win32,60.24096386,66fa4ebf79326e780c390304,,,,,,,,,,,,,,,,,,,,,605.1355,605.1355,605.1363,605.9354,0,0,left,0.2801,,605.9362,606.5521,1,0,right,606.5535,607.252,1,0,right,1,607.252,607.252,607.2529,608.7519,0,24,24,24,1,0.6,0.4,0.2,0.8,,,,,,,,,,,,,,,0.0918,,0.2,0.8,0.6,0.4,0.8,0.2,0.8,0.2,,,0.179,,0.2,0.8,0.6,0.4,0.4,0.6,0.6,0.4,1,0
,,60e20896098befdcf5e59441,66fc9812559574b3ea39671e,2024-10-01_18h48.08.164,mdp,2024.2.1,Win32,60.24096386,66fa4ebf79326e780c390304,,,,,,,,,,,,,,,,,,,,,608.7526,608.7526,608.7539,609.8185,1,1,right,0.5424,,609.8194,611.2359,1,0,right,611.237,612.0183,0,1,left,0,612.0184,612.0184,612.0195,613.5183,0,25,25,25,1,0.6,0.4,0.2,0.8,,,,,,,,,,,,,,,0.8803,,0.4,0.6,0.8,0.2,0.8,0.2,0.8,0.2,,,0.2618,,0.2,0.8,0.6,0.4,0.4,0.6,0.6,0.4,1,0
,,60e20896098befdcf5e59441,66fc9812559574b3ea39671e,2024-10-01_18h48.08.164,mdp,2024.2.1,Win32,60.24096386,66fa4ebf79326e780c390304,,,,,,,,,,,,,,,,,,,,,613.5187,613.5187,613.5196,614.4514,1,1,right,0.4019,,614.4522,615.4013,1,0,right,615.4024,616.1012,0,0,left,1,616.1013,616.1013,616.1022,617.6015,0,26,26,26,1,0.6,0.4,0.2,0.8,,,,,,,,,,,,,,,0.4275,,0.4,0.6,0.8,0.2,0.8,0.2,0.8,0.2,,,0.1674,,0.2,0.8,0.6,0.4,0.4,0.6,0.6,0.4,1,0
,,60e20896098befdcf5e59441,66fc9812559574b3ea39671e,2024-10-01_18h48.08.164,mdp,2024.2.1,Win32,60.24096386,66fa4ebf79326e780c390304,,,,,,,,,,,,,,,,,,,,,617.602,617.602,617.6032,618.2846,0,1,left,0.1506,,618.2854,618.9848,0,0,left,618.986,619.6846,0,1,left,0,619.6846,619.6846,619.6856,621.1844,0,27,27,27,1,0.6,0.4,0.2,0.8,,,,,,,,,,,,,,,0.1676,,0.4,0.6,0.8,0.2,0.8,0.2,0.8,0.2,,,0.1695,,0.2,0.8,0.6,0.4,0.2,0.8,0.8,0.2,1,0
,,60e20896098befdcf5e59441,66fc9812559574b3ea39671e,2024-10-01_18h48.08.164,mdp,2024.2.1,Win32,60.24096386,66fa4ebf79326e780c390304,,,,,,,,,,,,,,,,,,,,,621.1848,621.1848,621.186,621.7343,0,1,left,0.0225,,621.7356,622.5179,0,0,left,622.5191,623.0677,1,1,right,0,623.0678,623.0678,623.0691,624.5677,0,28,28,28,1,0.6,0.4,0.2,0.8,,,,,,,,,,,,,,,0.2519,,0.4,0.6,0.8,0.2,0.8,0.2,0.8,0.2,,,0.0252,,0.2,0.8,0.6,0.4,0.2,0.8,0.8,0.2,1,0
,,60e20896098befdcf5e59441,66fc9812559574b3ea39671e,2024-10-01_18h48.08.164,mdp,2024.2.1,Win32,60.24096386,66fa4ebf79326e780c390304,,,,,,,,,,,,,,,,,,,,,624.5682,624.5682,624.5691,625.151,1,1,right,0.0599,,625.1521,625.834,0,1,left,625.8352,626.7343,1,0,right,1,626.7343,626.7343,626.7354,628.2339,0,29,29,29,1,0.6,0.4,0.2,0.8,,,,,,,,,,,,,,,0.1561,,0.4,0.6,0.8,0.2,0.8,0.2,0.8,0.2,,,0.3761,,0.2,0.8,0.6,0.4,0.2,0.8,0.8,0.2,1,0
,,60e20896098befdcf5e59441,66fc9812559574b3ea39671e,2024-10-01_18h48.08.164,mdp,2024.2.1,Win32,60.24096386,66fa4ebf79326e780c390304,,,,,,,,,,,,,,,,,,,,,628.2342,628.2342,628.2351,629.1175,1,1,right,0.3509,,629.1185,629.801,0,1,left,629.8023,630.4007,1,0,right,1,630.4008,630.4008,630.4018,631.9004,0,30,30,30,1,0.6,0.4,0.2,0.8,,,,,,,,,,,,,,,0.1496,,0.4,0.6,0.8,0.2,0.8,0.2,0.8,0.2,,,0.0737,,0.2,0.8,0.6,0.4,0.2,0.8,0.8,0.2,1,0
,,60e20896098befdcf5e59441,66fc9812559574b3ea39671e,2024-10-01_18h48.08.164,mdp,2024.2.1,Win32,60.24096386,66fa4ebf79326e780c390304,,,,,,,,,,,,,,,,,,,,,631.9007,631.9007,631.9018,632.5007,1,1,right,0.0675,,632.5018,633.217,0,0,left,633.2179,633.867,1,0,right,1,633.8671,633.8671,633.8687,635.3667,0,31,31,31,1,0.6,0.4,0.2,0.8,,,,,,,,,,,,,,,0.1869,,0.4,0.6,0.8,0.2,0.8,0.2,0.8,0.2,,,0.1132,,0.2,0.8,0.6,0.4,0.2,0.8,0.8,0.2,1,0
,,60e20896098befdcf5e59441,66fc9812559574b3ea39671e,2024-10-01_18h48.08.164,mdp,2024.2.1,Win32,60.24096386,66fa4ebf79326e780c390304,,,,,,,,,,,,,,,,,,,,,635.3672,635.3672,635.3684,636.0504,1,0,right,0.1525,,636.0514,636.75,0,0,left,636.7509,637.3167,0,1,left,0,637.3168,637.3168,637.3176,638.8169,0,32,32,32,1,0.6,0.4,0.2,0.8,,,,,,,,,,,,,,,0.1652,,0.8,0.2,0.4,0.6,0.8,0.2,0.8,0.2,,,0.0444,,0.2,0.8,0.6,0.4,0.2,0.8,0.8,0.2,1,0
,,60e20896098befdcf5e59441,66fc9812559574b3ea39671e,2024-10-01_18h48.08.164,mdp,2024.2.1,Win32,60.24096386,66fa4ebf79326e780c390304,,,,,,,,,,,,,,,,,,,,,638.8176,638.8176,638.8185,639.6168,0,1,left,0.2677,,639.6183,640.333,0,0,left,640.3339,641.1999,1,1,right,0,641.1999,641.1999,641.2011,642.6997,0,33,33,33,1,0.6,0.4,0.2,0.8,,,,,,,,,,,,,,,0.1807,,0.8,0.2,0.4,0.6,0.8,0.2,0.8,0.2,,,0.3408,,0.2,0.8,0.6,0.4,0.2,0.8,0.8,0.2,1,0
,,60e20896098befdcf5e59441,66fc9812559574b3ea39671e,2024-10-01_18h48.08.164,mdp,2024.2.1,Win32,60.24096386,66fa4ebf79326e780c390304,,,,,,,,,,,,,,,,,,,,,642.7001,642.7002,642.701,643.2333,1,1,right,0.0097,,643.2343,643.9164,0,0,left,643.9173,644.5828,1,0,right,1,644.5829,644.5829,644.5837,646.0828,0,34,34,34,1,0.6,0.4,0.2,0.8,,,,,,,,,,,,,,,0.1513,,0.8,0.2,0.4,0.6,0.8,0.2,0.8,0.2,,,0.1421,,0.2,0.8,0.6,0.4,0.2,0.8,0.8,0.2,1,0
,,60e20896098befdcf5e59441,66fc9812559574b3ea39671e,2024-10-01_18h48.08.164,mdp,2024.2.1,Win32,60.24096386,66fa4ebf79326e780c390304,,,,,,,,,,,,,,,,,,,,,646.0833,646.0833,646.0843,647.2665,1,1,right,0.6541,,647.2673,647.9663,0,0,left,647.9675,648.5993,1,0,right,1,648.5993,648.5993,648.6005,650.0993,0,35,35,35,1,0.6,0.4,0.2,0.8,,,,,,,,,,,,,,,0.1663,,0.2,0.8,0.8,0.2,0.8,0.2,0.8,0.2,,,0.1031,,0.2,0.8,0.6,0.4,0.2,0.8,0.8,0.2,1,0
,,60e20896098befdcf5e59441,66fc9812559574b3ea39671e,2024-10-01_18h48.08.164,mdp,2024.2.1,Win32,60.24096386,66fa4ebf79326e780c390304,,,,,,,,,,,,,,,,,,,,,650.0997,650.0997,650.1008,650.9826,1,0,right,0.3575,,650.9837,651.6494,0,1,left,651.6506,652.2331,1,1,right,0,652.2331,652.2332,652.2345,653.7325,0,36,36,36,1,0.6,0.4,0.2,0.8,,,,,,,,,,,,,,,0.1296,,0.2,0.8,0.8,0.2,0.8,0.2,0.8,0.2,,,0.0534,,0.2,0.8,0.6,0.4,0.2,0.8,0.8,0.2,1,0
,,60e20896098befdcf5e59441,66fc9812559574b3ea39671e,2024-10-01_18h48.08.164,mdp,2024.2.1,Win32,60.24096386,66fa4ebf79326e780c390304,,,,,,,,,,,,,,,,,,,,,653.7329,653.7329,653.7337,654.4657,0,0,left,0.2034,,654.4664,655.2324,0,1,left,655.2337,655.8159,1,0,right,1,655.8161,655.8161,655.8172,657.3156,0,37,37,37,1,0.6,0.4,0.2,0.8,,,,,,,,,,,,,,,0.259,,0.2,0.8,0.8,0.2,0.8,0.2,0.8,0.2,,,0.0531,,0.2,0.8,0.6,0.4,0.2,0.8,0.8,0.2,1,0
,,60e20896098befdcf5e59441,66fc9812559574b3ea39671e,2024-10-01_18h48.08.164,mdp,2024.2.1,Win32,60.24096386,66fa4ebf79326e780c390304,,,,,,,,,,,,,,,,,,,,,657.3159,657.3159,657.317,658.082,0,1,left,0.2372,,658.0832,658.7489,0,1,left,658.7501,659.6486,1,0,right,1,659.6487,659.6487,659.6493,661.1486,0,38,38,38,1,0.6,0.4,0.2,0.8,,,,,,,,,,,,,,,0.1451,,0.2,0.8,0.8,0.2,0.8,0.2,0.8,0.2,,,0.3664,,0.2,0.8,0.6,0.4,0.2,0.8,0.8,0.2,1,0
,,60e20896098befdcf5e59441,66fc9812559574b3ea39671e,2024-10-01_18h48.08.164,mdp,2024.2.1,Win32,60.24096386,66fa4ebf79326e780c390304,,,,,,,,,,,,,,,,,,,,,661.1489,661.1489,661.1501,661.8652,1,1,right,0.1897,,661.8664,662.4652,0,0,left,662.4662,663.0817,1,0,right,1,663.0818,663.0818,663.0827,664.5816,0,39,39,39,1,0.6,0.4,0.2,0.8,,,,,,,,,,,,,,,0.0706,,0.2,0.8,0.8,0.2,0.8,0.2,0.8,0.2,,,0.0791,,0.6,0.4,0.8,0.2,0.2,0.8,0.8,0.2,1,0
,,60e20896098befdcf5e59441,66fc9812559574b3ea39671e,2024-10-01_18h48.08.164,mdp,2024.2.1,Win32,60.24096386,66fa4ebf79326e780c390304,,,,,,,,,,,,,,,,,,,,,664.582,664.582,664.5832,665.3155,1,1,right,0.2007,,665.3165,665.9317,0,1,left,665.9329,666.8314,1,1,right,0,666.8316,666.8316,666.8325,668.3316,0,40,40,40,1,0.6,0.4,0.2,0.8,,,,,,,,,,,,,,,0.0941,,0.2,0.8,0.8,0.2,0.8,0.2,0.8,0.2,,,0.3706,,0.6,0.4,0.8,0.2,0.2,0.8,0.8,0.2,1,0
,,60e20896098befdcf5e59441,66fc9812559574b3ea39671e,2024-10-01_18h48.08.164,mdp,2024.2.1,Win32,60.24096386,66fa4ebf79326e780c390304,,,,,,,,,,,,,,,,,,,,,668.3321,668.3321,668.333,669.1983,0,1,left,0.3405,,669.1996,669.9818,0,0,left,669.9832,670.5646,1,0,right,1,670.5646,670.5646,670.5654,672.0647,0,41,41,41,1,0.6,0.4,0.2,0.8,,,,,,,,,,,,,,,0.2522,,0.2,0.8,0.8,0.2,0.8,0.2,0.8,0.2,,,0.048,,0.6,0.4,0.8,0.2,0.2,0.8,0.8,0.2,1,0
,,60e20896098befdcf5e59441,66fc9812559574b3ea39671e,2024-10-01_18h48.08.164,mdp,2024.2.1,Win32,60.24096386,66fa4ebf79326e780c390304,,,,,,,,,,,,,,,,,,,,,672.0651,672.0651,672.0664,673.0482,1,1,right,0.4566,,673.0495,673.8977,1,0,right,673.8985,674.4981,0,0,left,1,674.4982,674.4982,674.4994,675.9976,0,42,42,42,1,0.6,0.4,0.2,0.8,,,,,,,,,,,,,,,0.329,,0.2,0.8,0.8,0.2,0.8,0.2,0.8,0.2,,,0.0856,,0.8,0.2,0.4,0.6,0.2,0.8,0.8,0.2,1,0
,,60e20896098befdcf5e59441,66fc9812559574b3ea39671e,2024-10-01_18h48.08.164,mdp,2024.2.1,Win32,60.24096386,66fa4ebf79326e780c390304,,,,,,,,,,,,,,,,,,,,,675.9981,675.9981,675.9993,677.2475,1,0,right,0.7255,,677.2482,677.881,0,1,left,677.8827,678.8808,0,1,left,0,678.8808,678.8808,678.8817,680.3808,0,43,43,43,1,0.8,0.2,0.8,0.2,,,,,,,,,,,,,,,0.114,,0.2,0.8,0.8,0.2,0.8,0.2,0.8,0.2,,,0.4744,,0.8,0.2,0.4,0.6,0.2,0.8,0.8,0.2,1,0
,,60e20896098befdcf5e59441,66fc9812559574b3ea39671e,2024-10-01_18h48.08.164,mdp,2024.2.1,Win32,60.24096386,66fa4ebf79326e780c390304,,,,,,,,,,,,,,,,,,,,,680.3812,680.3812,680.3822,682.2141,0,0,left,1.3039,,682.2156,682.8642,0,1,left,682.8653,683.7471,1,0,right,1,683.7472,683.7472,683.748,685.2471,0,44,44,44,1,0.8,0.2,0.8,0.2,,,,,,,,,,,,,,,0.1248,,0.2,0.8,0.8,0.2,0.8,0.2,0.8,0.2,,,0.3501,,0.8,0.2,0.4,0.6,0.2,0.8,0.8,0.2,1,0
,,60e20896098befdcf5e59441,66fc9812559574b3ea39671e,2024-10-01_18h48.08.164,mdp,2024.2.1,Win32,60.24096386,66fa4ebf79326e780c390304,,,,,,,,,,,,,,,,,,,,,685.2475,685.2475,685.2484,686.1471,0,0,left,0.3752,,686.1482,686.847,1,1,right,686.8482,687.4639,0,1,left,0,687.464,687.464,687.4651,688.9635,0,45,45,45,1,0.8,0.2,0.8,0.2,,,,,,,,,,,,,,,0.1877,,0.2,0.8,0.8,0.2,0.8,0.2,0.8,0.2,,,0.0887,,0.8,0.2,0.4,0.6,0.2,0.8,0.8,0.2,1,0
,,60e20896098befdcf5e59441,66fc9812559574b3ea39671e,2024-10-01_18h48.08.164,mdp,2024.2.1,Win32,60.24096386,66fa4ebf79326e780c390304,,,,,,,,,,,,,,,,,,,,,688.9638,688.9638,688.965,689.8637,1,0,right,0.3667,,689.865,690.647,1,0,right,690.6482,691.2969,0,0,left,1,691.2969,691.2969,691.2981,692.7965,0,46,46,46,1,0.8,0.2,0.8,0.2,,,,,,,,,,,,,,,0.2551,,0.2,0.8,0.8,0.2,0.8,0.2,0.8,0.2,,,0.1235,,0.8,0.2,0.4,0.6,0.2,0.8,0.8,0.2,1,0
,,60e20896098befdcf5e59441,66fc9812559574b3ea39671e,2024-10-01_18h48.08.164,mdp,2024.2.1,Win32,60.24096386,66fa4ebf79326e780c390304,,,,,,,,,,,,,,,,,,,,,692.7969,692.7969,692.7982,693.4967,0,1,left,0.1688,,693.4977,694.6798,0,0,left,694.6807,695.4799,0,0,left,1,695.4799,695.4799,695.4809,696.9798,0,47,47,47,1,0.6,0.4,0.4,0.6,,,,,,,,,,,,,,,0.6526,,0.2,0.8,0.8,0.2,0.8,0.2,0.8,0.2,,,0.2728,,0.8,0.2,0.4,0.6,0.2,0.8,0.8,0.2,1,0
,,60e20896098befdcf5e59441,66fc9812559574b3ea39671e,2024-10-01_18h48.08.164,mdp,2024.2.1,Win32,60.24096386,66fa4ebf79326e780c390304,,,,,,,,,,,,,,,,,,,,,696.9803,696.9803,696.9813,698.0131,0,0,left,0.5006,,698.0142,698.7463,1,0,right,698.7475,699.4796,0,1,left,0,699.4796,699.4797,699.4805,700.9793,0,48,48,48,1,0.6,0.4,0.4,0.6,,,,,,,,,,,,,,,0.2032,,0.2,0.8,0.8,0.2,0.8,0.2,0.8,0.2,,,0.2045,,0.8,0.2,0.4,0.6,0.2,0.8,0.8,0.2,1,0
,,60e20896098befdcf5e59441,66fc9812559574b3ea39671e,2024-10-01_18h48.08.164,mdp,2024.2.1,Win32,60.24096386,66fa4ebf79326e780c390304,,,,,,,,,,,,,,,,,,,,,700.9796,700.9796,700.9805,701.9126,0,0,left,0.4029,,701.9134,702.5296,0,1,left,702.5311,703.0793,1,0,right,1,703.0794,703.0794,703.0801,704.5793,0,49,49,49,1,0.6,0.4,0.4,0.6,,,,,,,,,,,,,,,0.0849,,0.2,0.8,0.8,0.2,0.8,0.2,0.8,0.2,,,0.0231,,0.8,0.2,0.4,0.6,0.2,0.8,0.8,0.2,1,0
,,60e20896098befdcf5e59441,66fc9812559574b3ea39671e,2024-10-01_18h48.08.164,mdp,2024.2.1,Win32,60.24096386,66fa4ebf79326e780c390304,,,,,,,,,,,,,,,,,,,,,,,,,,,,,,,,,,,,,,,,,,,,,,,,,,,,,,,,704.5795,758.4759,0,2,2,2,1,imgs/goat.png,imgs/kangaroo.png,imgs/rabbit.png,imgs/lion.png,imgs/horse.png,,,,,,,,,,,,,,,,,,,,,,,,
,,60e20896098befdcf5e59441,66fc9812559574b3ea39671e,2024-10-01_18h48.08.164,mdp,2024.2.1,Win32,60.24096386,66fa4ebf79326e780c390304,,,,,,,,,,,,,,3,seqs/st3seq14.csv,758.4841,759.7757,space,0.7689,,759.7802,759.7802,759.7809,761.2758,0,1,left,0.962,,761.2769,762.0089,0,1,left,762.0097,762.6922,1,0,right,1,762.6923,762.6923,762.6932,764.1927,0,0,0,0,1,0.2,0.8,0.2,0.8,,,,,,,,,,,,,,,0.1976,,0.6,0.4,0.2,0.8,0.2,0.8,0.8,0.2,,,0.1581,,0.6,0.4,0.8,0.2,0.2,0.8,0.8,0.2,1,0
,,60e20896098befdcf5e59441,66fc9812559574b3ea39671e,2024-10-01_18h48.08.164,mdp,2024.2.1,Win32,60.24096386,66fa4ebf79326e780c390304,,,,,,,,,,,,,,,,,,,,,764.1931,764.1931,764.194,765.0254,0,1,left,0.3066,,765.0262,765.692,0,1,left,765.6928,766.2756,1,0,right,1,766.2756,766.2756,766.2767,767.7757,0,1,1,1,1,0.2,0.8,0.2,0.8,,,,,,,,,,,,,,,0.1339,,0.6,0.4,0.2,0.8,0.2,0.8,0.8,0.2,,,0.0663,,0.6,0.4,0.8,0.2,0.2,0.8,0.8,0.2,1,0
,,60e20896098befdcf5e59441,66fc9812559574b3ea39671e,2024-10-01_18h48.08.164,mdp,2024.2.1,Win32,60.24096386,66fa4ebf79326e780c390304,,,,,,,,,,,,,,,,,,,,,767.7765,767.7765,767.7777,768.6585,1,0,right,0.3501,,768.6592,769.2753,0,1,left,769.2765,769.8417,1,1,right,0,769.8418,769.8418,769.8425,771.3416,0,2,2,2,1,0.2,0.8,0.2,0.8,,,,,,,,,,,,,,,0.1073,,0.6,0.4,0.2,0.8,0.2,0.8,0.8,0.2,,,0.038,,0.6,0.4,0.8,0.2,0.2,0.8,0.8,0.2,1,0
,,60e20896098befdcf5e59441,66fc9812559574b3ea39671e,2024-10-01_18h48.08.164,mdp,2024.2.1,Win32,60.24096386,66fa4ebf79326e780c390304,,,,,,,,,,,,,,,,,,,,,771.342,771.342,771.3427,772.3086,1,1,right,0.4335,,772.3099,772.8416,1,0,right,772.8424,773.7752,1,0,right,1,773.7753,773.7753,773.776,775.275,0,3,3,3,1,0.2,0.8,0.2,0.8,,,,,,,,,,,,,,,0.0002,,0.6,0.4,0.2,0.8,0.2,0.8,0.8,0.2,,,0.4085,,0.6,0.4,0.8,0.2,0.2,0.8,0.8,0.2,1,0
,,60e20896098befdcf5e59441,66fc9812559574b3ea39671e,2024-10-01_18h48.08.164,mdp,2024.2.1,Win32,60.24096386,66fa4ebf79326e780c390304,,,,,,,,,,,,,,,,,,,,,775.2755,775.2756,775.2769,776.1415,0,1,left,0.3354,,776.1425,776.7248,0,1,left,776.7257,777.3747,1,1,right,0,777.3748,777.3748,777.3758,778.8748,0,4,4,4,1,0.2,0.8,0.2,0.8,,,,,,,,,,,,,,,0.0514,,0.6,0.4,0.2,0.8,0.2,0.8,0.8,0.2,,,0.1134,,0.6,0.4,0.8,0.2,0.2,0.8,0.8,0.2,1,0
,,60e20896098befdcf5e59441,66fc9812559574b3ea39671e,2024-10-01_18h48.08.164,mdp,2024.2.1,Win32,60.24096386,66fa4ebf79326e780c390304,,,,,,,,,,,,,,,,,,,,,778.8752,778.8752,778.8763,780.0245,1,0,right,0.6168,,780.0253,780.6745,1,1,right,780.6753,781.4414,0,1,left,0,781.4415,781.4415,781.4422,782.9413,0,5,5,5,1,0.2,0.8,0.2,0.8,,,,,,,,,,,,,,,0.1354,,0.6,0.4,0.2,0.8,0.2,0.8,0.8,0.2,,,0.2386,,0.6,0.4,0.8,0.2,0.2,0.8,0.8,0.2,1,0
,,60e20896098befdcf5e59441,66fc9812559574b3ea39671e,2024-10-01_18h48.08.164,mdp,2024.2.1,Win32,60.24096386,66fa4ebf79326e780c390304,,,,,,,,,,,,,,,,,,,,,782.9419,782.9419,782.9429,783.5077,0,1,left,0.034,,783.5086,784.2244,0,1,left,784.2255,784.841,1,0,right,1,784.841,784.841,784.8418,786.3408,0,6,6,6,1,0.2,0.8,0.2,0.8,,,,,,,,,,,,,,,0.191,,0.6,0.4,0.2,0.8,0.2,0.8,0.8,0.2,,,0.1032,,0.6,0.4,0.8,0.2,0.4,0.6,0.6,0.4,1,0
,,60e20896098befdcf5e59441,66fc9812559574b3ea39671e,2024-10-01_18h48.08.164,mdp,2024.2.1,Win32,60.24096386,66fa4ebf79326e780c390304,,,,,,,,,,,,,,,,,,,,,786.3411,786.3411,786.3419,786.874,1,1,right,0.0003,,786.8749,787.6741,0,1,left,787.6749,788.6576,0,1,left,0,788.6577,788.6577,788.6592,790.1572,0,7,7,7,1,0.2,0.8,0.2,0.8,,,,,,,,,,,,,,,0.2855,,0.6,0.4,0.2,0.8,0.2,0.8,0.8,0.2,,,0.4569,,0.6,0.4,0.8,0.2,0.4,0.6,0.6,0.4,1,0
,,60e20896098befdcf5e59441,66fc9812559574b3ea39671e,2024-10-01_18h48.08.164,mdp,2024.2.1,Win32,60.24096386,66fa4ebf79326e780c390304,,,,,,,,,,,,,,,,,,,,,790.1575,790.1576,790.1583,791.1238,1,0,right,0.4382,,791.1248,791.7573,0,1,left,791.7584,792.3405,1,1,right,0,792.3406,792.3406,792.3416,793.8404,0,8,8,8,1,0.2,0.8,0.2,0.8,,,,,,,,,,,,,,,0.1185,,0.6,0.4,0.2,0.8,0.2,0.8,0.8,0.2,,,0.0511,,0.6,0.4,0.8,0.2,0.6,0.4,0.8,0.2,1,0
,,60e20896098befdcf5e59441,66fc9812559574b3ea39671e,2024-10-01_18h48.08.164,mdp,2024.2.1,Win32,60.24096386,66fa4ebf79326e780c390304,,,,,,,,,,,,,,,,,,,,,793.8409,793.8409,793.8423,794.9237,1,0,right,0.5506,,794.9247,795.7736,0,0,left,795.7747,796.9238,0,0,left,1,796.9239,796.9239,796.9246,798.4235,0,9,9,9,1,0.2,0.8,0.2,0.8,,,,,,,,,,,,,,,0.3339,,0.6,0.4,0.2,0.8,0.2,0.8,0.8,0.2,,,0.6177,,0.6,0.4,0.8,0.2,0.6,0.4,0.8,0.2,1,0
,,60e20896098befdcf5e59441,66fc9812559574b3ea39671e,2024-10-01_18h48.08.164,mdp,2024.2.1,Win32,60.24096386,66fa4ebf79326e780c390304,,,,,,,,,,,,,,,,,,,,,798.4241,798.4241,798.4251,799.3566,1,1,right,0.4074,,799.3579,799.9732,0,1,left,799.9739,800.5565,1,1,right,0,800.5565,800.5565,800.5574,802.0565,0,10,10,10,1,0.2,0.8,0.2,0.8,,,,,,,,,,,,,,,0.107,,0.6,0.4,0.2,0.8,0.2,0.8,0.8,0.2,,,0.0484,,0.6,0.4,0.8,0.2,0.6,0.4,0.8,0.2,1,0
,,60e20896098befdcf5e59441,66fc9812559574b3ea39671e,2024-10-01_18h48.08.164,mdp,2024.2.1,Win32,60.24096386,66fa4ebf79326e780c390304,,,,,,,,,,,,,,,,,,,,,802.0568,802.0569,802.0577,803.0401,0,1,left,0.4503,,803.041,803.7898,0,1,left,803.7906,804.4564,1,0,right,1,804.4565,804.4565,804.4574,805.9561,0,11,11,11,1,0.2,0.8,0.2,0.8,,,,,,,,,,,,,,,0.2173,,0.6,0.4,0.2,0.8,0.2,0.8,0.8,0.2,,,0.137,,0.6,0.4,0.8,0.2,0.6,0.4,0.8,0.2,1,0
,,60e20896098befdcf5e59441,66fc9812559574b3ea39671e,2024-10-01_18h48.08.164,mdp,2024.2.1,Win32,60.24096386,66fa4ebf79326e780c390304,,,,,,,,,,,,,,,,,,,,,805.9565,805.9565,805.9573,807.1063,0,0,left,0.6176,,807.1071,807.773,1,1,right,807.7743,808.4394,0,0,left,1,808.4394,808.4394,808.4402,809.9394,0,12,12,12,1,0.2,0.8,0.2,0.8,,,,,,,,,,,,,,,0.1318,,0.6,0.4,0.2,0.8,0.2,0.8,0.8,0.2,,,0.1396,,0.6,0.4,0.8,0.2,0.6,0.4,0.8,0.2,1,0
,,60e20896098befdcf5e59441,66fc9812559574b3ea39671e,2024-10-01_18h48.08.164,mdp,2024.2.1,Win32,60.24096386,66fa4ebf79326e780c390304,,,,,,,,,,,,,,,,,,,,,809.9398,809.9398,809.9408,811.056,0,1,left,0.5903,,811.0568,811.8225,0,1,left,811.8233,812.4393,1,0,right,1,812.4393,812.4393,812.4402,813.939,0,13,13,13,1,0.2,0.8,0.2,0.8,,,,,,,,,,,,,,,0.2382,,0.6,0.4,0.2,0.8,0.2,0.8,0.8,0.2,,,0.0831,,0.6,0.4,0.8,0.2,0.6,0.4,0.8,0.2,1,0
,,60e20896098befdcf5e59441,66fc9812559574b3ea39671e,2024-10-01_18h48.08.164,mdp,2024.2.1,Win32,60.24096386,66fa4ebf79326e780c390304,,,,,,,,,,,,,,,,,,,,,813.9394,813.9394,813.9401,814.689,0,1,left,0.2233,,814.6899,815.3389,0,1,left,815.3397,815.9392,1,1,right,0,815.9393,815.9393,815.9401,817.439,0,14,14,14,1,0.2,0.8,0.2,0.8,,,,,,,,,,,,,,,0.1268,,0.6,0.4,0.2,0.8,0.2,0.8,0.8,0.2,,,0.0841,,0.6,0.4,0.8,0.2,0.6,0.4,0.8,0.2,1,0
,,60e20896098befdcf5e59441,66fc9812559574b3ea39671e,2024-10-01_18h48.08.164,mdp,2024.2.1,Win32,60.24096386,66fa4ebf79326e780c390304,,,,,,,,,,,,,,,,,,,,,817.4392,817.4393,817.4401,818.2891,1,1,right,0.32,,818.2901,818.9554,0,1,left,818.9562,819.6053,1,0,right,1,819.6053,819.6054,819.6061,821.1054,0,15,15,15,1,0.2,0.8,0.2,0.8,,,,,,,,,,,,,,,0.1378,,0.6,0.4,0.2,0.8,0.2,0.8,0.8,0.2,,,0.1409,,0.6,0.4,0.8,0.2,0.6,0.4,0.8,0.2,1,0
,,60e20896098befdcf5e59441,66fc9812559574b3ea39671e,2024-10-01_18h48.08.164,mdp,2024.2.1,Win32,60.24096386,66fa4ebf79326e780c390304,,,,,,,,,,,,,,,,,,,,,821.106,821.106,821.1068,822.2218,0,1,left,0.5921,,822.2227,822.9053,0,1,left,822.9062,823.822,1,0,right,1,823.8221,823.8221,823.8232,825.3219,0,16,16,16,1,0.2,0.8,0.2,0.8,,,,,,,,,,,,,,,0.1764,,0.6,0.4,0.2,0.8,0.2,0.8,0.8,0.2,,,0.3874,,0.6,0.4,0.8,0.2,0.8,0.2,0.2,0.8,1,0
,,60e20896098befdcf5e59441,66fc9812559574b3ea39671e,2024-10-01_18h48.08.164,mdp,2024.2.1,Win32,60.24096386,66fa4ebf79326e780c390304,,,,,,,,,,,,,,,,,,,,,825.3224,825.3224,825.3237,826.2218,0,1,left,0.3699,,826.2226,826.8882,1,1,right,826.889,827.5383,0,1,left,0,827.5384,827.5384,827.5396,829.0384,0,17,17,17,1,0.2,0.8,0.2,0.8,,,,,,,,,,,,,,,0.1418,,0.6,0.4,0.2,0.8,0.2,0.8,0.8,0.2,,,0.1196,,0.6,0.4,0.8,0.2,0.8,0.2,0.2,0.8,1,0
,,60e20896098befdcf5e59441,66fc9812559574b3ea39671e,2024-10-01_18h48.08.164,mdp,2024.2.1,Win32,60.24096386,66fa4ebf79326e780c390304,,,,,,,,,,,,,,,,,,,,,829.0388,829.0388,829.0396,829.888,0,1,left,0.3226,,829.8888,830.538,0,0,left,830.5393,831.138,1,1,right,0,831.138,831.138,831.1389,832.6381,0,18,18,18,1,0.2,0.8,0.2,0.8,,,,,,,,,,,,,,,0.1191,,0.6,0.4,0.2,0.8,0.2,0.8,0.8,0.2,,,0.0751,,0.6,0.4,0.8,0.2,0.8,0.2,0.2,0.8,1,0
,,60e20896098befdcf5e59441,66fc9812559574b3ea39671e,2024-10-01_18h48.08.164,mdp,2024.2.1,Win32,60.24096386,66fa4ebf79326e780c390304,,,,,,,,,,,,,,,,,,,,,832.6384,832.6384,832.6394,833.4711,1,1,right,0.311,,833.4719,834.0878,1,0,right,834.0885,834.6879,0,0,left,1,834.6879,834.6879,834.6887,836.1877,0,19,19,19,1,0.2,0.8,0.2,0.8,,,,,,,,,,,,,,,0.102,,0.6,0.4,0.2,0.8,0.2,0.8,0.8,0.2,,,0.0945,,0.6,0.4,0.8,0.2,0.8,0.2,0.2,0.8,1,0
,,60e20896098befdcf5e59441,66fc9812559574b3ea39671e,2024-10-01_18h48.08.164,mdp,2024.2.1,Win32,60.24096386,66fa4ebf79326e780c390304,,,,,,,,,,,,,,,,,,,,,836.188,836.188,836.1888,836.8044,1,1,right,0.0835,,836.8054,837.4209,1,1,right,837.4217,838.0044,1,0,right,1,838.0045,838.0045,838.0052,839.5042,0,20,20,20,1,0.2,0.8,0.2,0.8,,,,,,,,,,,,,,,0.085,,0.6,0.4,0.2,0.8,0.2,0.8,0.8,0.2,,,0.0636,,0.6,0.4,0.8,0.2,0.8,0.2,0.2,0.8,1,0
,,60e20896098befdcf5e59441,66fc9812559574b3ea39671e,2024-10-01_18h48.08.164,mdp,2024.2.1,Win32,60.24096386,66fa4ebf79326e780c390304,,,,,,,,,,,,,,,,,,,,,839.5046,839.5046,839.5056,840.3042,1,1,right,0.2781,,840.3054,840.954,0,1,left,840.9549,841.5039,1,0,right,1,841.5041,841.5041,841.5048,843.0038,0,21,21,21,1,0.6,0.4,0.4,0.6,,,,,,,,,,,,,,,0.1169,,0.6,0.4,0.2,0.8,0.2,0.8,0.8,0.2,,,0.0419,,0.6,0.4,0.8,0.2,0.8,0.2,0.2,0.8,1,0
,,60e20896098befdcf5e59441,66fc9812559574b3ea39671e,2024-10-01_18h48.08.164,mdp,2024.2.1,Win32,60.24096386,66fa4ebf79326e780c390304,,,,,,,,,,,,,,,,,,,,,843.0042,843.0042,843.0049,843.604,1,1,right,0.067,,843.6049,844.2874,1,0,right,844.2886,844.9372,1,0,right,1,844.9372,844.9372,844.9379,846.437,0,22,22,22,1,0.6,0.4,0.4,0.6,,,,,,,,,,,,,,,0.1549,,0.6,0.4,0.2,0.8,0.2,0.8,0.8,0.2,,,0.1186,,0.6,0.4,0.8,0.2,0.8,0.2,0.2,0.8,1,0
,,60e20896098befdcf5e59441,66fc9812559574b3ea39671e,2024-10-01_18h48.08.164,mdp,2024.2.1,Win32,60.24096386,66fa4ebf79326e780c390304,,,,,,,,,,,,,,,,,,,,,846.4373,846.4373,846.4381,847.0703,1,0,right,0.111,,847.0711,847.687,0,1,left,847.6877,848.2369,1,0,right,1,848.2369,848.2369,848.2377,849.7371,0,23,23,23,1,0.6,0.4,0.4,0.6,,,,,,,,,,,,,,,0.0925,,0.6,0.4,0.2,0.8,0.2,0.8,0.8,0.2,,,0.0172,,0.6,0.4,0.8,0.2,0.8,0.2,0.2,0.8,1,0
,,60e20896098befdcf5e59441,66fc9812559574b3ea39671e,2024-10-01_18h48.08.164,mdp,2024.2.1,Win32,60.24096386,66fa4ebf79326e780c390304,,,,,,,,,,,,,,,,,,,,,849.7374,849.7374,849.7382,850.5034,1,1,right,0.234,,850.5043,851.1034,1,1,right,851.1042,851.6367,1,1,right,0,851.6367,851.6367,851.6375,853.1366,0,24,24,24,1,0.6,0.4,0.4,0.6,,,,,,,,,,,,,,,0.065,,0.6,0.4,0.2,0.8,0.2,0.8,0.8,0.2,,,0.0023,,0.6,0.4,0.8,0.2,0.8,0.2,0.2,0.8,1,0
,,60e20896098befdcf5e59441,66fc9812559574b3ea39671e,2024-10-01_18h48.08.164,mdp,2024.2.1,Win32,60.24096386,66fa4ebf79326e780c390304,,,,,,,,,,,,,,,,,,,,,853.1371,853.1371,853.1383,853.9866,1,0,right,0.3168,,853.9874,854.5867,1,0,right,854.5878,855.1535,1,0,right,1,855.1536,855.1536,855.1544,856.6531,0,25,25,25,1,0.6,0.4,0.4,0.6,,,,,,,,,,,,,,,0.0831,,0.6,0.4,0.2,0.8,0.2,0.8,0.8,0.2,,,0.0317,,0.6,0.4,0.8,0.2,0.8,0.2,0.2,0.8,1,0
,,60e20896098befdcf5e59441,66fc9812559574b3ea39671e,2024-10-01_18h48.08.164,mdp,2024.2.1,Win32,60.24096386,66fa4ebf79326e780c390304,,,,,,,,,,,,,,,,,,,,,856.6534,856.6534,856.6541,857.4363,1,1,right,0.2514,,857.4373,858.0363,0,1,left,858.0371,858.5865,1,1,right,0,858.5865,858.5865,858.5876,860.0862,0,26,26,26,1,0.6,0.4,0.4,0.6,,,,,,,,,,,,,,,0.0897,,0.6,0.4,0.2,0.8,0.2,0.8,0.8,0.2,,,0.0154,,0.6,0.4,0.8,0.2,0.8,0.2,0.2,0.8,1,0
,,60e20896098befdcf5e59441,66fc9812559574b3ea39671e,2024-10-01_18h48.08.164,mdp,2024.2.1,Win32,60.24096386,66fa4ebf79326e780c390304,,,,,,,,,,,,,,,,,,,,,860.0864,860.0864,860.0872,860.7028,1,0,right,0.0902,,860.7036,861.2863,0,0,left,861.2875,861.8528,1,1,right,0,861.8528,861.8528,861.8536,863.3528,0,27,27,27,1,0.6,0.4,0.4,0.6,,,,,,,,,,,,,,,0.0726,,0.6,0.4,0.2,0.8,0.2,0.8,0.8,0.2,,,0.0318,,0.6,0.4,0.8,0.2,0.8,0.2,0.2,0.8,1,0
,,60e20896098befdcf5e59441,66fc9812559574b3ea39671e,2024-10-01_18h48.08.164,mdp,2024.2.1,Win32,60.24096386,66fa4ebf79326e780c390304,,,,,,,,,,,,,,,,,,,,,863.3531,863.3531,863.354,863.9361,1,1,right,0.0543,,863.937,864.5861,0,1,left,864.5871,865.186,1,1,right,0,865.186,865.186,865.187,866.6859,0,28,28,28,1,0.6,0.4,0.4,0.6,,,,,,,,,,,,,,,0.1228,,0.6,0.4,0.2,0.8,0.2,0.8,0.8,0.2,,,0.0682,,0.8,0.2,0.6,0.4,0.8,0.2,0.2,0.8,1,0
,,60e20896098befdcf5e59441,66fc9812559574b3ea39671e,2024-10-01_18h48.08.164,mdp,2024.2.1,Win32,60.24096386,66fa4ebf79326e780c390304,,,,,,,,,,,,,,,,,,,,,866.6863,866.6863,866.6871,867.3025,1,1,right,0.0838,,867.3038,867.9359,1,0,right,867.9375,868.4689,1,0,right,1,868.469,868.469,868.4698,869.969,0,29,29,29,1,0.6,0.4,0.4,0.6,,,,,,,,,,,,,,,0.1038,,0.6,0.4,0.2,0.8,0.2,0.8,0.8,0.2,,,0.0003,,0.8,0.2,0.6,0.4,0.8,0.2,0.2,0.8,1,0
,,60e20896098befdcf5e59441,66fc9812559574b3ea39671e,2024-10-01_18h48.08.164,mdp,2024.2.1,Win32,60.24096386,66fa4ebf79326e780c390304,,,,,,,,,,,,,,,,,,,,,869.9693,869.9693,869.97,870.6026,1,1,right,0.1002,,870.6038,871.2357,0,1,left,871.2366,871.8021,1,0,right,1,871.8021,871.8022,871.8029,873.3021,0,30,30,30,1,0.6,0.4,0.4,0.6,,,,,,,,,,,,,,,0.1099,,0.6,0.4,0.2,0.8,0.2,0.8,0.8,0.2,,,0.0333,,0.8,0.2,0.6,0.4,0.8,0.2,0.2,0.8,1,0
,,60e20896098befdcf5e59441,66fc9812559574b3ea39671e,2024-10-01_18h48.08.164,mdp,2024.2.1,Win32,60.24096386,66fa4ebf79326e780c390304,,,,,,,,,,,,,,,,,,,,,873.3026,873.3026,873.3037,874.2188,1,0,right,0.3835,,874.2196,874.8353,1,1,right,874.8361,875.4855,1,1,right,0,875.4857,875.4857,875.4869,876.9853,0,31,31,31,1,0.6,0.4,0.4,0.6,,,,,,,,,,,,,,,0.0867,,0.6,0.4,0.2,0.8,0.2,0.8,0.8,0.2,,,0.1168,,0.8,0.2,0.6,0.4,0.8,0.2,0.2,0.8,1,0
,,60e20896098befdcf5e59441,66fc9812559574b3ea39671e,2024-10-01_18h48.08.164,mdp,2024.2.1,Win32,60.24096386,66fa4ebf79326e780c390304,,,,,,,,,,,,,,,,,,,,,876.9857,876.9858,876.987,877.8186,1,1,right,0.3002,,877.82,878.4185,1,0,right,878.4195,879.0016,1,0,right,1,879.0017,879.0017,879.0025,880.5019,0,32,32,32,1,0.6,0.4,0.4,0.6,,,,,,,,,,,,,,,0.0642,,0.6,0.4,0.2,0.8,0.2,0.8,0.8,0.2,,,0.0739,,0.8,0.2,0.6,0.4,0.8,0.2,0.2,0.8,1,0
,,60e20896098befdcf5e59441,66fc9812559574b3ea39671e,2024-10-01_18h48.08.164,mdp,2024.2.1,Win32,60.24096386,66fa4ebf79326e780c390304,,,,,,,,,,,,,,,,,,,,,880.5023,880.5023,880.5032,881.2184,1,0,right,0.1838,,881.2194,881.7517,0,0,left,881.7525,882.6516,1,1,right,0,882.6516,882.6516,882.6525,884.1514,0,33,33,33,1,0.6,0.4,0.4,0.6,,,,,,,,,,,,,,,0.0246,,0.6,0.4,0.2,0.8,0.2,0.8,0.8,0.2,,,0.3905,,0.8,0.2,0.6,0.4,0.8,0.2,0.2,0.8,1,0
,,60e20896098befdcf5e59441,66fc9812559574b3ea39671e,2024-10-01_18h48.08.164,mdp,2024.2.1,Win32,60.24096386,66fa4ebf79326e780c390304,,,,,,,,,,,,,,,,,,,,,884.1517,884.1517,884.1525,884.8513,1,1,right,0.1752,,884.8521,885.468,0,1,left,885.4688,886.0512,1,0,right,1,886.0513,886.0513,886.052,887.5513,0,34,34,34,1,0.6,0.4,0.4,0.6,,,,,,,,,,,,,,,0.0893,,0.6,0.4,0.2,0.8,0.2,0.8,0.8,0.2,,,0.0493,,0.8,0.2,0.6,0.4,0.8,0.2,0.2,0.8,1,0
,,60e20896098befdcf5e59441,66fc9812559574b3ea39671e,2024-10-01_18h48.08.164,mdp,2024.2.1,Win32,60.24096386,66fa4ebf79326e780c390304,,,,,,,,,,,,,,,,,,,,,887.5515,887.5515,887.5523,888.3678,0,0,left,0.2915,,888.3687,889.0677,0,0,left,889.0685,889.6844,0,0,left,1,889.6844,889.6844,889.6851,891.1843,0,35,35,35,1,0.6,0.4,0.4,0.6,,,,,,,,,,,,,,,0.1872,,0.6,0.4,0.2,0.8,0.2,0.8,0.8,0.2,,,0.0927,,0.8,0.2,0.6,0.4,0.8,0.2,0.2,0.8,1,0
,,60e20896098befdcf5e59441,66fc9812559574b3ea39671e,2024-10-01_18h48.08.164,mdp,2024.2.1,Win32,60.24096386,66fa4ebf79326e780c390304,,,,,,,,,,,,,,,,,,,,,891.1848,891.1848,891.1858,891.8011,0,1,left,0.0853,,891.802,892.4842,0,1,left,892.485,893.4174,1,1,right,0,893.4175,893.4175,893.4183,894.9175,0,36,36,36,1,0.6,0.4,0.4,0.6,,,,,,,,,,,,,,,0.1579,,0.6,0.4,0.2,0.8,0.2,0.8,0.8,0.2,,,0.4024,,0.8,0.2,0.6,0.4,0.8,0.2,0.2,0.8,1,0
,,60e20896098befdcf5e59441,66fc9812559574b3ea39671e,2024-10-01_18h48.08.164,mdp,2024.2.1,Win32,60.24096386,66fa4ebf79326e780c390304,,,,,,,,,,,,,,,,,,,,,894.9179,894.9179,894.9188,895.4509,0,0,left,0.0094,,895.452,896.0508,0,0,left,896.0517,896.6675,1,1,right,0,896.6676,896.6676,896.6688,898.1674,0,37,37,37,1,0.6,0.4,0.4,0.6,,,,,,,,,,,,,,,0.0761,,0.6,0.4,0.2,0.8,0.2,0.8,0.8,0.2,,,0.0857,,0.8,0.2,0.6,0.4,0.8,0.2,0.2,0.8,1,0
,,60e20896098befdcf5e59441,66fc9812559574b3ea39671e,2024-10-01_18h48.08.164,mdp,2024.2.1,Win32,60.24096386,66fa4ebf79326e780c390304,,,,,,,,,,,,,,,,,,,,,898.1679,898.1679,898.1689,898.9338,0,1,left,0.2351,,898.9345,899.4505,0,1,left,899.4512,900.2171,0,0,left,1,900.2171,900.2171,900.2179,901.7169,0,38,38,38,1,0.6,0.4,0.4,0.6,,,,,,,,,,,,,,,0.0002,,0.6,0.4,0.2,0.8,0.2,0.8,0.8,0.2,,,0.2568,,0.8,0.2,0.6,0.4,0.8,0.2,0.2,0.8,1,0
,,60e20896098befdcf5e59441,66fc9812559574b3ea39671e,2024-10-01_18h48.08.164,mdp,2024.2.1,Win32,60.24096386,66fa4ebf79326e780c390304,,,,,,,,,,,,,,,,,,,,,901.7173,901.7173,901.7181,902.5336,1,1,right,0.2932,,902.5343,903.1837,0,0,left,903.1849,903.7668,1,0,right,1,903.7668,903.7668,903.7676,905.2669,0,39,39,39,1,0.6,0.4,0.4,0.6,,,,,,,,,,,,,,,0.1238,,0.6,0.4,0.2,0.8,0.2,0.8,0.8,0.2,,,0.0563,,0.2,0.8,0.4,0.6,0.8,0.2,0.2,0.8,1,0
,,60e20896098befdcf5e59441,66fc9812559574b3ea39671e,2024-10-01_18h48.08.164,mdp,2024.2.1,Win32,60.24096386,66fa4ebf79326e780c390304,,,,,,,,,,,,,,,,,,,,,905.2674,905.2674,905.2683,905.8667,1,0,right,0.0769,,905.8675,906.6167,1,1,right,906.6174,907.2168,1,0,right,1,907.2168,907.2168,907.2177,908.7165,0,40,40,40,1,0.6,0.4,0.4,0.6,,,,,,,,,,,,,,,0.2311,,0.6,0.4,0.2,0.8,0.2,0.8,0.8,0.2,,,0.0659,,0.2,0.8,0.4,0.6,0.8,0.2,0.2,0.8,1,0
,,60e20896098befdcf5e59441,66fc9812559574b3ea39671e,2024-10-01_18h48.08.164,mdp,2024.2.1,Win32,60.24096386,66fa4ebf79326e780c390304,,,,,,,,,,,,,,,,,,,,,908.7169,908.7169,908.7177,909.4,0,0,left,0.1619,,909.4006,910.1001,0,1,left,910.101,910.6831,0,0,left,1,910.6832,910.6832,910.6843,912.183,0,41,41,41,1,0.6,0.4,0.4,0.6,,,,,,,,,,,,,,,0.1787,,0.6,0.4,0.2,0.8,0.2,0.8,0.8,0.2,,,0.055,,0.2,0.8,0.4,0.6,0.8,0.2,0.2,0.8,1,0
,,60e20896098befdcf5e59441,66fc9812559574b3ea39671e,2024-10-01_18h48.08.164,mdp,2024.2.1,Win32,60.24096386,66fa4ebf79326e780c390304,,,,,,,,,,,,,,,,,,,,,912.1833,912.1833,912.1841,912.933,1,1,right,0.2164,,912.9339,913.5667,1,0,right,913.5678,914.1497,1,1,right,0,914.1498,914.1498,914.151,915.6495,0,42,42,42,1,0.6,0.4,0.4,0.6,,,,,,,,,,,,,,,0.1064,,0.6,0.4,0.2,0.8,0.2,0.8,0.8,0.2,,,0.0464,,0.8,0.2,0.2,0.8,0.8,0.2,0.2,0.8,1,0
,,60e20896098befdcf5e59441,66fc9812559574b3ea39671e,2024-10-01_18h48.08.164,mdp,2024.2.1,Win32,60.24096386,66fa4ebf79326e780c390304,,,,,,,,,,,,,,,,,,,,,915.65,915.6501,915.651,916.4329,1,0,right,0.2512,,916.4339,917.0327,0,1,left,917.0334,917.5661,1,1,right,0,917.5661,917.5661,917.5668,919.0663,0,43,43,43,1,0.2,0.8,0.6,0.4,,,,,,,,,,,,,,,0.0681,,0.6,0.4,0.2,0.8,0.2,0.8,0.8,0.2,,,0.0202,,0.8,0.2,0.2,0.8,0.8,0.2,0.2,0.8,1,0
,,60e20896098befdcf5e59441,66fc9812559574b3ea39671e,2024-10-01_18h48.08.164,mdp,2024.2.1,Win32,60.24096386,66fa4ebf79326e780c390304,,,,,,,,,,,,,,,,,,,,,919.0667,919.0667,919.0676,920.0158,0,1,left,0.4176,,920.0165,920.6492,0,1,left,920.65,921.2491,0,0,left,1,921.2492,921.2492,921.2504,922.7489,0,44,44,44,1,0.2,0.8,0.6,0.4,,,,,,,,,,,,,,,0.1002,,0.6,0.4,0.2,0.8,0.2,0.8,0.8,0.2,,,0.0673,,0.8,0.2,0.2,0.8,0.8,0.2,0.2,0.8,1,0
,,60e20896098befdcf5e59441,66fc9812559574b3ea39671e,2024-10-01_18h48.08.164,mdp,2024.2.1,Win32,60.24096386,66fa4ebf79326e780c390304,,,,,,,,,,,,,,,,,,,,,922.7492,922.7492,922.75,923.5656,1,0,right,0.2869,,923.5663,924.149,1,1,right,924.1497,924.7491,1,1,right,0,924.7491,924.7491,924.7501,926.2489,0,45,45,45,1,0.2,0.8,0.6,0.4,,,,,,,,,,,,,,,0.058,,0.2,0.8,0.8,0.2,0.2,0.8,0.8,0.2,,,0.0712,,0.8,0.2,0.2,0.8,0.8,0.2,0.2,0.8,1,0
,,60e20896098befdcf5e59441,66fc9812559574b3ea39671e,2024-10-01_18h48.08.164,mdp,2024.2.1,Win32,60.24096386,66fa4ebf79326e780c390304,,,,,,,,,,,,,,,,,,,,,926.2494,926.2494,926.2505,926.9488,0,1,left,0.1685,,926.9498,927.4987,0,0,left,927.4995,928.4321,0,0,left,1,928.4321,928.4321,928.4333,929.9319,0,46,46,46,1,0.2,0.8,0.6,0.4,,,,,,,,,,,,,,,0.0145,,0.2,0.8,0.8,0.2,0.2,0.8,0.8,0.2,,,0.4134,,0.8,0.2,0.2,0.8,0.8,0.2,0.2,0.8,1,0
,,60e20896098befdcf5e59441,66fc9812559574b3ea39671e,2024-10-01_18h48.08.164,mdp,2024.2.1,Win32,60.24096386,66fa4ebf79326e780c390304,,,,,,,,,,,,,,,,,,,,,929.9322,929.9322,929.9329,930.7818,1,0,right,0.3168,,930.7826,931.465,0,1,left,931.4658,932.0484,1,1,right,0,932.0484,932.0484,932.0496,933.5487,0,47,47,47,1,0.2,0.8,0.6,0.4,,,,,,,,,,,,,,,0.1717,,0.2,0.8,0.8,0.2,0.2,0.8,0.8,0.2,,,0.0534,,0.8,0.2,0.2,0.8,0.8,0.2,0.2,0.8,1,0
,,60e20896098befdcf5e59441,66fc9812559574b3ea39671e,2024-10-01_18h48.08.164,mdp,2024.2.1,Win32,60.24096386,66fa4ebf79326e780c390304,,,,,,,,,,,,,,,,,,,,,933.5492,933.5492,933.5502,934.3651,0,1,left,0.2897,,934.3662,934.9484,0,1,left,934.95,935.5982,0,0,left,1,935.5983,935.5983,935.5991,937.0981,0,48,48,48,1,0.2,0.8,0.6,0.4,,,,,,,,,,,,,,,0.0486,,0.2,0.8,0.8,0.2,0.2,0.8,0.8,0.2,,,0.117,,0.8,0.2,0.2,0.8,0.8,0.2,0.2,0.8,1,0
,,60e20896098befdcf5e59441,66fc9812559574b3ea39671e,2024-10-01_18h48.08.164,mdp,2024.2.1,Win32,60.24096386,66fa4ebf79326e780c390304,,,,,,,,,,,,,,,,,,,,,937.0983,937.0983,937.0992,937.8814,1,0,right,0.2707,,937.8823,938.7815,0,1,left,938.7822,939.4481,0,1,left,0,939.4482,939.4482,939.4496,940.948,0,49,49,49,1,0.2,0.8,0.6,0.4,,,,,,,,,,,,,,,0.3808,,0.2,0.8,0.8,0.2,0.2,0.8,0.8,0.2,,,0.1533,,0.8,0.2,0.2,0.8,0.8,0.2,0.2,0.8,1,0
,,60e20896098befdcf5e59441,66fc9812559574b3ea39671e,2024-10-01_18h48.08.164,mdp,2024.2.1,Win32,60.24096386,66fa4ebf79326e780c390304,,,,,,,,,,,,,,,,,,,,,,,,,,,,,,,,,,,,,,,,,,,,,,,,,,,,,,,,940.948,999.4613,0,3,3,1,1,imgs/giraffe.png,imgs/rabbit.png,imgs/dog.png,imgs/squirrel.png,imgs/pig.png,,,,,,,,,,,,,,,,,,,,,,,,
,,60e20896098befdcf5e59441,66fc9812559574b3ea39671e,2024-10-01_18h48.08.164,mdp,2024.2.1,Win32,60.24096386,66fa4ebf79326e780c390304,,,,,,,,,,,,,,1,seqs/st1seq27.csv,999.4708,1029.0926,space,29.099,,1029.1071,1029.1071,1029.1079,1042.4916,1,0,right,12.8603,,1042.5036,1042.5042,0,1,,1042.5049,1042.5053,0,1,,1,1042.5053,1042.5054,1042.5058,1044.0089,0,0,0,0,1,0.6,0.4,0.4,0.6,1,0,,,,,,,,,,,,,,,,,,,,,,,,,,,,,,,,,,,,
,,60e20896098befdcf5e59441,66fc9812559574b3ea39671e,2024-10-01_18h48.08.164,mdp,2024.2.1,Win32,60.24096386,66fa4ebf79326e780c390304,,,,,,,,,,,,,,,,,,,,,1044.0097,1044.0097,1044.011,1044.7915,1,0,right,0.2502,,1044.7922,1044.7928,0,0,,1044.7933,1044.7937,0,1,,1,1044.7937,1044.7937,1044.7942,1046.2913,0,1,1,1,1,0.6,0.4,0.4,0.6,1,0,,,,,,,,,,,,,,,,,,,,,,,,,,,,,,,,,,,,
,,60e20896098befdcf5e59441,66fc9812559574b3ea39671e,2024-10-01_18h48.08.164,mdp,2024.2.1,Win32,60.24096386,66fa4ebf79326e780c390304,,,,,,,,,,,,,,,,,,,,,1046.2915,1046.2915,1046.2922,1047.1249,1,1,right,0.3022,,1047.1258,1047.1263,0,0,,1047.1268,1047.1272,0,0,,0,1047.1273,1047.1273,1047.1279,1048.6245,0,2,2,2,1,0.6,0.4,0.4,0.6,1,0,,,,,,,,,,,,,,,,,,,,,,,,,,,,,,,,,,,,
,,60e20896098befdcf5e59441,66fc9812559574b3ea39671e,2024-10-01_18h48.08.164,mdp,2024.2.1,Win32,60.24096386,66fa4ebf79326e780c390304,,,,,,,,,,,,,,,,,,,,,1048.6247,1048.6247,1048.6255,1049.9414,1,1,right,0.7898,,1049.9423,1049.9427,0,0,,1049.9432,1049.9436,0,1,,0,1049.9437,1049.9437,1049.9442,1051.4412,0,3,3,3,1,0.6,0.4,0.4,0.6,1,0,,,,,,,,,,,,,,,,,,,,,,,,,,,,,,,,,,,,
,,60e20896098befdcf5e59441,66fc9812559574b3ea39671e,2024-10-01_18h48.08.164,mdp,2024.2.1,Win32,60.24096386,66fa4ebf79326e780c390304,,,,,,,,,,,,,,,,,,,,,1051.4416,1051.4416,1051.4425,1052.2743,1,0,right,0.3101,,1052.275,1052.2756,0,0,,1052.2761,1052.2765,0,1,,1,1052.2765,1052.2765,1052.277,1053.7742,0,4,4,4,1,0.6,0.4,0.4,0.6,1,0,,,,,,,,,,,,,,,,,,,,,,,,,,,,,,,,,,,,
,,60e20896098befdcf5e59441,66fc9812559574b3ea39671e,2024-10-01_18h48.08.164,mdp,2024.2.1,Win32,60.24096386,66fa4ebf79326e780c390304,,,,,,,,,,,,,,,,,,,,,1053.7744,1053.7744,1053.7752,1054.5242,0,0,left,0.2262,,1054.5249,1054.5256,0,1,,1054.5264,1054.527,0,1,,1,1054.5271,1054.5271,1054.5275,1056.0244,0,5,5,5,1,0.2,0.8,0.6,0.4,1,0,,,,,,,,,,,,,,,,,,,,,,,,,,,,,,,,,,,,
,,60e20896098befdcf5e59441,66fc9812559574b3ea39671e,2024-10-01_18h48.08.164,mdp,2024.2.1,Win32,60.24096386,66fa4ebf79326e780c390304,,,,,,,,,,,,,,,,,,,,,1056.0248,1056.0248,1056.0257,1056.7574,0,0,left,0.213,,1056.7585,1056.7591,0,0,,1056.7598,1056.7603,0,1,,1,1056.7604,1056.7604,1056.7609,1058.2573,0,6,6,6,1,0.8,0.2,0.2,0.8,1,0,,,,,,,,,,,,,,,,,,,,,,,,,,,,,,,,,,,,
,,60e20896098befdcf5e59441,66fc9812559574b3ea39671e,2024-10-01_18h48.08.164,mdp,2024.2.1,Win32,60.24096386,66fa4ebf79326e780c390304,,,,,,,,,,,,,,,,,,,,,1058.2575,1058.2575,1058.2584,1058.9742,1,1,right,0.1874,,1058.9753,1058.9758,0,1,,1058.9764,1058.9768,0,0,,0,1058.9768,1058.9768,1058.9772,1060.4741,0,7,7,7,1,0.8,0.2,0.2,0.8,1,0,,,,,,,,,,,,,,,,,,,,,,,,,,,,,,,,,,,,
,,60e20896098befdcf5e59441,66fc9812559574b3ea39671e,2024-10-01_18h48.08.164,mdp,2024.2.1,Win32,60.24096386,66fa4ebf79326e780c390304,,,,,,,,,,,,,,,,,,,,,1060.4744,1060.4745,1060.4755,1061.1906,0,1,left,0.188,,1061.1914,1061.1919,0,0,,1061.1925,1061.1928,0,0,,0,1061.1928,1061.1928,1061.1934,1062.6905,0,8,8,8,1,0.8,0.2,0.2,0.8,1,0,,,,,,,,,,,,,,,,,,,,,,,,,,,,,,,,,,,,
,,60e20896098befdcf5e59441,66fc9812559574b3ea39671e,2024-10-01_18h48.08.164,mdp,2024.2.1,Win32,60.24096386,66fa4ebf79326e780c390304,,,,,,,,,,,,,,,,,,,,,1062.6907,1062.6907,1062.6915,1063.2571,1,1,right,0.0428,,1063.2583,1063.259,0,1,,1063.2598,1063.2604,0,1,,0,1063.2604,1063.2604,1063.2609,1064.7572,0,9,9,9,1,0.8,0.2,0.2,0.8,1,0,,,,,,,,,,,,,,,,,,,,,,,,,,,,,,,,,,,,
,,60e20896098befdcf5e59441,66fc9812559574b3ea39671e,2024-10-01_18h48.08.164,mdp,2024.2.1,Win32,60.24096386,66fa4ebf79326e780c390304,,,,,,,,,,,,,,,,,,,,,1064.7577,1064.7577,1064.7595,1066.3234,1,1,right,1.0351,,1066.3241,1066.325,0,1,,1066.3258,1066.3265,0,1,,0,1066.3266,1066.3266,1066.3271,1067.8235,0,10,10,10,1,0.8,0.2,0.2,0.8,1,0,,,,,,,,,,,,,,,,,,,,,,,,,,,,,,,,,,,,
,,60e20896098befdcf5e59441,66fc9812559574b3ea39671e,2024-10-01_18h48.08.164,mdp,2024.2.1,Win32,60.24096386,66fa4ebf79326e780c390304,,,,,,,,,,,,,,,,,,,,,1067.8239,1067.8239,1067.825,1068.6901,1,1,right,0.3341,,1068.691,1068.6916,0,1,,1068.6922,1068.6929,0,1,,0,1068.6929,1068.6929,1068.6935,1070.1899,0,11,11,11,1,0.6,0.4,0.6,0.4,1,0,,,,,,,,,,,,,,,,,,,,,,,,,,,,,,,,,,,,
,,60e20896098befdcf5e59441,66fc9812559574b3ea39671e,2024-10-01_18h48.08.164,mdp,2024.2.1,Win32,60.24096386,66fa4ebf79326e780c390304,,,,,,,,,,,,,,,,,,,,,1070.1901,1070.1901,1070.1909,1070.99,1,0,right,0.2748,,1070.9916,1070.9924,0,0,,1070.9933,1070.9941,0,0,,1,1070.9941,1070.9941,1070.9948,1072.4897,0,12,12,12,1,0.6,0.4,0.6,0.4,1,0,,,,,,,,,,,,,,,,,,,,,,,,,,,,,,,,,,,,
,,60e20896098befdcf5e59441,66fc9812559574b3ea39671e,2024-10-01_18h48.08.164,mdp,2024.2.1,Win32,60.24096386,66fa4ebf79326e780c390304,,,,,,,,,,,,,,,,,,,,,1072.4899,1072.4899,1072.4908,1073.0729,0,0,left,0.0631,,1073.0737,1073.0742,0,1,,1073.0748,1073.0751,0,1,,1,1073.0751,1073.0751,1073.0756,1074.5731,0,13,13,13,1,0.6,0.4,0.6,0.4,1,0,,,,,,,,,,,,,,,,,,,,,,,,,,,,,,,,,,,,
,,60e20896098befdcf5e59441,66fc9812559574b3ea39671e,2024-10-01_18h48.08.164,mdp,2024.2.1,Win32,60.24096386,66fa4ebf79326e780c390304,,,,,,,,,,,,,,,,,,,,,1074.5736,1074.5736,1074.5748,1075.3565,1,0,right,0.255,,1075.3579,1075.3584,0,1,,1075.3589,1075.3593,0,0,,1,1075.3593,1075.3593,1075.3597,1076.8566,0,14,14,14,1,0.8,0.2,0.8,0.2,1,0,,,,,,,,,,,,,,,,,,,,,,,,,,,,,,,,,,,,
,,60e20896098befdcf5e59441,66fc9812559574b3ea39671e,2024-10-01_18h48.08.164,mdp,2024.2.1,Win32,60.24096386,66fa4ebf79326e780c390304,,,,,,,,,,,,,,,,,,,,,1076.8569,1076.8569,1076.8579,1077.6229,1,0,right,0.241,,1077.6243,1077.625,0,0,,1077.6262,1077.627,0,0,,1,1077.627,1077.627,1077.6277,1079.1227,0,15,15,15,1,0.8,0.2,0.8,0.2,1,0,,,,,,,,,,,,,,,,,,,,,,,,,,,,,,,,,,,,
,,60e20896098befdcf5e59441,66fc9812559574b3ea39671e,2024-10-01_18h48.08.164,mdp,2024.2.1,Win32,60.24096386,66fa4ebf79326e780c390304,,,,,,,,,,,,,,,,,,,,,1079.1231,1079.1231,1079.1242,1079.906,0,0,left,0.2599,,1079.9072,1079.9078,0,1,,1079.9085,1079.9091,0,0,,1,1079.9092,1079.9092,1079.9098,1081.406,0,16,16,16,1,0.8,0.2,0.8,0.2,1,0,,,,,,,,,,,,,,,,,,,,,,,,,,,,,,,,,,,,
,,60e20896098befdcf5e59441,66fc9812559574b3ea39671e,2024-10-01_18h48.08.164,mdp,2024.2.1,Win32,60.24096386,66fa4ebf79326e780c390304,,,,,,,,,,,,,,,,,,,,,1081.4064,1081.4064,1081.4073,1082.0559,1,0,right,0.1285,,1082.0572,1082.058,0,0,,1082.0588,1082.0595,0,0,,1,1082.0596,1082.0596,1082.0603,1083.5557,0,17,17,17,1,0.8,0.2,0.8,0.2,1,0,,,,,,,,,,,,,,,,,,,,,,,,,,,,,,,,,,,,
,,60e20896098befdcf5e59441,66fc9812559574b3ea39671e,2024-10-01_18h48.08.164,mdp,2024.2.1,Win32,60.24096386,66fa4ebf79326e780c390304,,,,,,,,,,,,,,,,,,,,,1083.5561,1083.5561,1083.5571,1084.2891,0,0,left,0.2125,,1084.29,1084.2906,0,0,,1084.2915,1084.2921,0,1,,1,1084.2921,1084.2921,1084.2927,1085.789,0,18,18,18,1,0.8,0.2,0.8,0.2,1,0,,,,,,,,,,,,,,,,,,,,,,,,,,,,,,,,,,,,
,,60e20896098befdcf5e59441,66fc9812559574b3ea39671e,2024-10-01_18h48.08.164,mdp,2024.2.1,Win32,60.24096386,66fa4ebf79326e780c390304,,,,,,,,,,,,,,,,,,,,,1085.7892,1085.7893,1085.7905,1086.6222,1,1,right,0.3129,,1086.6233,1086.6238,0,0,,1086.6245,1086.6251,0,1,,0,1086.6251,1086.6251,1086.6256,1088.1222,0,19,19,19,1,0.8,0.2,0.8,0.2,1,0,,,,,,,,,,,,,,,,,,,,,,,,,,,,,,,,,,,,
,,60e20896098befdcf5e59441,66fc9812559574b3ea39671e,2024-10-01_18h48.08.164,mdp,2024.2.1,Win32,60.24096386,66fa4ebf79326e780c390304,,,,,,,,,,,,,,,,,,,,,1088.1226,1088.1226,1088.1236,1088.9058,0,1,left,0.2532,,1088.9067,1088.9073,0,1,,1088.908,1088.9085,0,0,,0,1088.9086,1088.9086,1088.9091,1090.4053,0,20,20,20,1,0.2,0.8,0.6,0.4,1,0,,,,,,,,,,,,,,,,,,,,,,,,,,,,,,,,,,,,
,,60e20896098befdcf5e59441,66fc9812559574b3ea39671e,2024-10-01_18h48.08.164,mdp,2024.2.1,Win32,60.24096386,66fa4ebf79326e780c390304,,,,,,,,,,,,,,,,,,,,,1090.4057,1090.4057,1090.4066,1091.1719,0,1,left,0.2394,,1091.1731,1091.1738,0,1,,1091.1744,1091.1749,0,1,,0,1091.175,1091.175,1091.1756,1092.6721,0,21,21,21,1,0.2,0.8,0.6,0.4,1,0,,,,,,,,,,,,,,,,,,,,,,,,,,,,,,,,,,,,
,,60e20896098befdcf5e59441,66fc9812559574b3ea39671e,2024-10-01_18h48.08.164,mdp,2024.2.1,Win32,60.24096386,66fa4ebf79326e780c390304,,,,,,,,,,,,,,,,,,,,,1092.6726,1092.6726,1092.6738,1093.7885,0,1,left,0.5962,,1093.7895,1093.7901,0,1,,1093.7906,1093.791,0,0,,0,1093.791,1093.791,1093.7915,1095.2883,0,22,22,22,1,0.2,0.8,0.6,0.4,1,0,,,,,,,,,,,,,,,,,,,,,,,,,,,,,,,,,,,,
,,60e20896098befdcf5e59441,66fc9812559574b3ea39671e,2024-10-01_18h48.08.164,mdp,2024.2.1,Win32,60.24096386,66fa4ebf79326e780c390304,,,,,,,,,,,,,,,,,,,,,1095.2886,1095.2886,1095.2894,1096.1216,1,0,right,0.3004,,1096.1229,1096.1233,0,1,,1096.1238,1096.1243,0,0,,1,1096.1243,1096.1243,1096.1248,1097.6217,0,23,23,23,1,0.2,0.8,0.6,0.4,1,0,,,,,,,,,,,,,,,,,,,,,,,,,,,,,,,,,,,,
,,60e20896098befdcf5e59441,66fc9812559574b3ea39671e,2024-10-01_18h48.08.164,mdp,2024.2.1,Win32,60.24096386,66fa4ebf79326e780c390304,,,,,,,,,,,,,,,,,,,,,1097.6221,1097.6221,1097.6234,1098.5383,1,1,right,0.3833,,1098.5396,1098.5402,0,1,,1098.5407,1098.5411,0,1,,0,1098.5411,1098.5411,1098.5415,1100.0381,0,24,24,24,1,0.2,0.8,0.6,0.4,1,0,,,,,,,,,,,,,,,,,,,,,,,,,,,,,,,,,,,,
,,60e20896098befdcf5e59441,66fc9812559574b3ea39671e,2024-10-01_18h48.08.164,mdp,2024.2.1,Win32,60.24096386,66fa4ebf79326e780c390304,,,,,,,,,,,,,,,,,,,,,1100.0384,1100.0384,1100.0391,1100.9047,1,1,right,0.3369,,1100.906,1100.9069,0,0,,1100.9078,1100.9085,0,0,,0,1100.9086,1100.9086,1100.9092,1102.4046,0,25,25,25,1,0.2,0.8,0.6,0.4,1,0,,,,,,,,,,,,,,,,,,,,,,,,,,,,,,,,,,,,
,,60e20896098befdcf5e59441,66fc9812559574b3ea39671e,2024-10-01_18h48.08.164,mdp,2024.2.1,Win32,60.24096386,66fa4ebf79326e780c390304,,,,,,,,,,,,,,,,,,,,,1102.4049,1102.4049,1102.4056,1103.3211,1,0,right,0.3834,,1103.3219,1103.3225,0,1,,1103.323,1103.3236,0,1,,1,1103.3236,1103.3236,1103.3241,1104.8214,0,26,26,26,1,0.6,0.4,0.4,0.6,1,0,,,,,,,,,,,,,,,,,,,,,,,,,,,,,,,,,,,,
,,60e20896098befdcf5e59441,66fc9812559574b3ea39671e,2024-10-01_18h48.08.164,mdp,2024.2.1,Win32,60.24096386,66fa4ebf79326e780c390304,,,,,,,,,,,,,,,,,,,,,1104.8218,1104.8218,1104.8228,1105.6711,1,0,right,0.3299,,1105.6718,1105.6723,0,0,,1105.6728,1105.6732,0,1,,1,1105.6732,1105.6732,1105.6737,1107.1709,0,27,27,27,1,0.6,0.4,0.4,0.6,1,0,,,,,,,,,,,,,,,,,,,,,,,,,,,,,,,,,,,,
,,60e20896098befdcf5e59441,66fc9812559574b3ea39671e,2024-10-01_18h48.08.164,mdp,2024.2.1,Win32,60.24096386,66fa4ebf79326e780c390304,,,,,,,,,,,,,,,,,,,,,1107.1712,1107.1712,1107.172,1107.9541,1,1,right,0.2569,,1107.9551,1107.9559,0,1,,1107.9566,1107.957,0,1,,0,1107.957,1107.957,1107.9574,1109.4542,0,28,28,28,1,0.6,0.4,0.4,0.6,1,0,,,,,,,,,,,,,,,,,,,,,,,,,,,,,,,,,,,,
,,60e20896098befdcf5e59441,66fc9812559574b3ea39671e,2024-10-01_18h48.08.164,mdp,2024.2.1,Win32,60.24096386,66fa4ebf79326e780c390304,,,,,,,,,,,,,,,,,,,,,1109.4546,1109.4546,1109.4557,1110.4709,0,1,left,0.4849,,1110.472,1110.4726,0,0,,1110.4734,1110.474,0,1,,0,1110.4741,1110.4741,1110.4747,1111.9707,0,29,29,29,1,0.4,0.6,0.6,0.4,1,0,,,,,,,,,,,,,,,,,,,,,,,,,,,,,,,,,,,,
,,60e20896098befdcf5e59441,66fc9812559574b3ea39671e,2024-10-01_18h48.08.164,mdp,2024.2.1,Win32,60.24096386,66fa4ebf79326e780c390304,,,,,,,,,,,,,,,,,,,,,1111.9711,1111.9711,1111.9722,1112.9208,1,0,right,0.4241,,1112.9219,1112.9224,0,0,,1112.923,1112.9235,0,1,,1,1112.9236,1112.9236,1112.9241,1114.4204,0,30,30,30,1,0.4,0.6,0.6,0.4,1,0,,,,,,,,,,,,,,,,,,,,,,,,,,,,,,,,,,,,
,,60e20896098befdcf5e59441,66fc9812559574b3ea39671e,2024-10-01_18h48.08.164,mdp,2024.2.1,Win32,60.24096386,66fa4ebf79326e780c390304,,,,,,,,,,,,,,,,,,,,,1114.4206,1114.4206,1114.4214,1115.2703,1,0,right,0.3285,,1115.2711,1115.2715,0,1,,1115.2721,1115.2725,0,1,,1,1115.2726,1115.2726,1115.273,1116.7704,0,31,31,31,1,0.4,0.6,0.6,0.4,1,0,,,,,,,,,,,,,,,,,,,,,,,,,,,,,,,,,,,,
,,60e20896098befdcf5e59441,66fc9812559574b3ea39671e,2024-10-01_18h48.08.164,mdp,2024.2.1,Win32,60.24096386,66fa4ebf79326e780c390304,,,,,,,,,,,,,,,,,,,,,1116.7709,1116.7709,1116.7721,1117.9203,1,1,right,0.6267,,1117.9214,1117.922,0,0,,1117.9225,1117.923,0,0,,0,1117.923,1117.923,1117.9235,1119.4201,0,32,32,32,1,0.8,0.2,0.8,0.2,1,0,,,,,,,,,,,,,,,,,,,,,,,,,,,,,,,,,,,,
,,60e20896098befdcf5e59441,66fc9812559574b3ea39671e,2024-10-01_18h48.08.164,mdp,2024.2.1,Win32,60.24096386,66fa4ebf79326e780c390304,,,,,,,,,,,,,,,,,,,,,1119.4204,1119.4204,1119.421,1121.0036,0,1,left,1.051,,1121.0046,1121.0051,0,1,,1121.0055,1121.0059,0,0,,0,1121.0059,1121.0059,1121.0065,1122.5034,0,33,33,33,1,0.8,0.2,0.8,0.2,1,0,,,,,,,,,,,,,,,,,,,,,,,,,,,,,,,,,,,,
,,60e20896098befdcf5e59441,66fc9812559574b3ea39671e,2024-10-01_18h48.08.164,mdp,2024.2.1,Win32,60.24096386,66fa4ebf79326e780c390304,,,,,,,,,,,,,,,,,,,,,1122.5037,1122.5037,1122.5047,1123.8533,0,0,left,0.8265,,1123.8544,1123.8551,0,0,,1123.8559,1123.8564,0,0,,1,1123.8564,1123.8564,1123.857,1125.3533,0,34,34,34,1,0.6,0.4,0.2,0.8,1,0,,,,,,,,,,,,,,,,,,,,,,,,,,,,,,,,,,,,
,,60e20896098befdcf5e59441,66fc9812559574b3ea39671e,2024-10-01_18h48.08.164,mdp,2024.2.1,Win32,60.24096386,66fa4ebf79326e780c390304,,,,,,,,,,,,,,,,,,,,,1125.3537,1125.3537,1125.3545,1126.9197,0,1,left,1.0426,,1126.9207,1126.9212,0,0,,1126.9218,1126.9222,0,0,,0,1126.9223,1126.9223,1126.9229,1128.4197,0,35,35,35,1,0.6,0.4,0.2,0.8,1,0,,,,,,,,,,,,,,,,,,,,,,,,,,,,,,,,,,,,
,,60e20896098befdcf5e59441,66fc9812559574b3ea39671e,2024-10-01_18h48.08.164,mdp,2024.2.1,Win32,60.24096386,66fa4ebf79326e780c390304,,,,,,,,,,,,,,,,,,,,,1128.4199,1128.4199,1128.4206,1129.3529,0,0,left,0.4092,,1129.3541,1129.3549,0,0,,1129.3557,1129.3561,0,1,,1,1129.3561,1129.3561,1129.3566,1130.8528,0,36,36,36,1,0.6,0.4,0.2,0.8,1,0,,,,,,,,,,,,,,,,,,,,,,,,,,,,,,,,,,,,
,,60e20896098befdcf5e59441,66fc9812559574b3ea39671e,2024-10-01_18h48.08.164,mdp,2024.2.1,Win32,60.24096386,66fa4ebf79326e780c390304,,,,,,,,,,,,,,,,,,,,,1130.8532,1130.8532,1130.8546,1131.6697,0,0,left,0.2907,,1131.6708,1131.6716,0,1,,1131.6721,1131.6726,0,0,,1,1131.6726,1131.6726,1131.673,1133.1694,0,37,37,37,1,0.6,0.4,0.2,0.8,1,0,,,,,,,,,,,,,,,,,,,,,,,,,,,,,,,,,,,,
,,60e20896098befdcf5e59441,66fc9812559574b3ea39671e,2024-10-01_18h48.08.164,mdp,2024.2.1,Win32,60.24096386,66fa4ebf79326e780c390304,,,,,,,,,,,,,,,,,,,,,1133.1698,1133.1698,1133.1707,1134.0362,1,1,right,0.3353,,1134.0374,1134.0378,0,1,,1134.0384,1134.0387,0,0,,0,1134.0387,1134.0387,1134.0393,1135.5358,0,38,38,38,1,0.8,0.2,0.6,0.4,1,0,,,,,,,,,,,,,,,,,,,,,,,,,,,,,,,,,,,,
,,60e20896098befdcf5e59441,66fc9812559574b3ea39671e,2024-10-01_18h48.08.164,mdp,2024.2.1,Win32,60.24096386,66fa4ebf79326e780c390304,,,,,,,,,,,,,,,,,,,,,1135.536,1135.536,1135.5368,1136.6526,0,0,left,0.5845,,1136.6537,1136.6541,0,0,,1136.6547,1136.655,0,0,,1,1136.6551,1136.6551,1136.6555,1138.1523,0,39,39,39,1,0.6,0.4,0.4,0.6,1,0,,,,,,,,,,,,,,,,,,,,,,,,,,,,,,,,,,,,
,,60e20896098befdcf5e59441,66fc9812559574b3ea39671e,2024-10-01_18h48.08.164,mdp,2024.2.1,Win32,60.24096386,66fa4ebf79326e780c390304,,,,,,,,,,,,,,,,,,,,,1138.1526,1138.1526,1138.1532,1139.0357,0,1,left,0.3588,,1139.0366,1139.0373,0,1,,1139.0378,1139.0385,0,1,,0,1139.0385,1139.0385,1139.039,1140.5356,0,40,40,40,1,0.4,0.6,0.6,0.4,1,0,,,,,,,,,,,,,,,,,,,,,,,,,,,,,,,,,,,,
,,60e20896098befdcf5e59441,66fc9812559574b3ea39671e,2024-10-01_18h48.08.164,mdp,2024.2.1,Win32,60.24096386,66fa4ebf79326e780c390304,,,,,,,,,,,,,,,,,,,,,1140.5359,1140.5359,1140.5368,1141.3521,0,1,left,0.2884,,1141.3538,1141.3545,0,0,,1141.355,1141.3554,0,1,,0,1141.3554,1141.3554,1141.3558,1142.852,0,41,41,41,1,0.4,0.6,0.6,0.4,1,0,,,,,,,,,,,,,,,,,,,,,,,,,,,,,,,,,,,,
,,60e20896098befdcf5e59441,66fc9812559574b3ea39671e,2024-10-01_18h48.08.164,mdp,2024.2.1,Win32,60.24096386,66fa4ebf79326e780c390304,,,,,,,,,,,,,,,,,,,,,1142.8522,1142.8522,1142.853,1143.7857,0,1,left,0.406,,1143.7866,1143.7871,0,1,,1143.7876,1143.7881,0,1,,0,1143.7881,1143.7881,1143.7886,1145.2853,0,42,42,42,1,0.4,0.6,0.6,0.4,1,0,,,,,,,,,,,,,,,,,,,,,,,,,,,,,,,,,,,,
