init_exp.started,init_exp.stopped,participant,session,date,expName,psychopyVersion,OS,frameRate,study_id,disp_instruction.started,disp_instruction.stopped,instruction.thisRepN,instruction.thisTrialN,instruction.thisN,instruction.thisIndex,instruction.ran,instimg_path,consent.started,consent.stopped,key_resp_3.keys,key_resp_3.rt,key_resp_3.duration,n_steps,sequence_path,init_block.started,init_block.stopped,key_resp.keys,key_resp.rt,key_resp.duration,init_trials.started,init_trials.stopped,step0.started,step0.stopped,act0,s1,res0.keys,res0.rt,res0.duration,step1.started,step1.stopped,act1,s2,res1.keys,step2.started,step2.stopped,act2,s3,res2.keys,rew,reward_comp.started,reward_comp.stopped,reward_disp.started,reward_disp.stopped,trials.thisRepN,trials.thisTrialN,trials.thisN,trials.thisIndex,trials.ran,s00a0s10,s00a0s11,s00a1s10,s00a1s11,rew10,rew11,break_block.started,break_block.stopped,block.thisRepN,block.thisTrialN,block.thisN,block.thisIndex,block.ran,s00path,s10path,s11path,s20path,s21path,res1.rt,res1.duration,s10a0s20,s10a0s21,s10a1s20,s10a1s21,s11a0s20,s11a0s21,s11a1s20,s11a1s21,rew20,rew21,res2.rt,res2.duration,s20a0s30,s20a0s31,s20a1s30,s20a1s31,s21a0s30,s21a0s31,s21a1s30,s21a1s31,rew30,rew31
0.0027,0.0057,60e20b0026ccfc52c0877202,66fc988cd1cbeb8e180b820f,2024-10-01_17h58.45.731,mdp,2024.2.1,Win32,60.24096386,66fa4ebf79326e780c390304,,,,,,,,,,,,,,,,,,,,,,,,,,,,,,,,,,,,,,,,,,,,,,,,,,,,,,,,,,,,,,,,,,,,,,,,,,,,,,,,,,,,,,,,,,,
,,60e20b0026ccfc52c0877202,66fc988cd1cbeb8e180b820f,2024-10-01_17h58.45.731,mdp,2024.2.1,Win32,60.24096386,66fa4ebf79326e780c390304,0.0142,86.3031,0,0,0,0,1,rlnn_exp/rlnn_exp.001.png,,,,,,,,,,,,,,,,,,,,,,,,,,,,,,,,,,,,,,,,,,,,,,,,,,,,,,,,,,,,,,,,,,,,,,,,,,,,,,,,,,,
,,60e20b0026ccfc52c0877202,66fc988cd1cbeb8e180b820f,2024-10-01_17h58.45.731,mdp,2024.2.1,Win32,60.24096386,66fa4ebf79326e780c390304,86.3042,106.5268,0,1,1,1,1,rlnn_exp/rlnn_exp.002.png,,,,,,,,,,,,,,,,,,,,,,,,,,,,,,,,,,,,,,,,,,,,,,,,,,,,,,,,,,,,,,,,,,,,,,,,,,,,,,,,,,,
,,60e20b0026ccfc52c0877202,66fc988cd1cbeb8e180b820f,2024-10-01_17h58.45.731,mdp,2024.2.1,Win32,60.24096386,66fa4ebf79326e780c390304,106.5791,143.9904,0,2,2,2,1,rlnn_exp/rlnn_exp.003.png,,,,,,,,,,,,,,,,,,,,,,,,,,,,,,,,,,,,,,,,,,,,,,,,,,,,,,,,,,,,,,,,,,,,,,,,,,,,,,,,,,,
,,60e20b0026ccfc52c0877202,66fc988cd1cbeb8e180b820f,2024-10-01_17h58.45.731,mdp,2024.2.1,Win32,60.24096386,66fa4ebf79326e780c390304,144.0448,184.9335,0,3,3,3,1,rlnn_exp/rlnn_exp.004.png,,,,,,,,,,,,,,,,,,,,,,,,,,,,,,,,,,,,,,,,,,,,,,,,,,,,,,,,,,,,,,,,,,,,,,,,,,,,,,,,,,,
,,60e20b0026ccfc52c0877202,66fc988cd1cbeb8e180b820f,2024-10-01_17h58.45.731,mdp,2024.2.1,Win32,60.24096386,66fa4ebf79326e780c390304,,,,,,,,,184.9876,219.1858,y,24.1565,,,,,,,,,,,,,,,,,,,,,,,,,,,,,,,,,,,,,,,,,,,,,,,,,,,,,,,,,,,,,,,,,,,,,,,,,,,,,,,
,,60e20b0026ccfc52c0877202,66fc988cd1cbeb8e180b820f,2024-10-01_17h58.45.731,mdp,2024.2.1,Win32,60.24096386,66fa4ebf79326e780c390304,,,,,,,,,,,,,,1,seqs/st1seq21.csv,219.2502,222.9786,space,3.2008,,222.9912,222.9915,222.9927,248.9555,0,0,left,25.4051,,249.003,249.0087,,0,,249.01,249.0151,,0,,1,249.0156,249.0159,249.0171,250.5168,0,0,0,0,1,0.8,0.2,0.4,0.6,1,0,,,,,,,,,,,,,,,,,,,,,,,,,,,,,,,,,,,,
,,60e20b0026ccfc52c0877202,66fc988cd1cbeb8e180b820f,2024-10-01_17h58.45.731,mdp,2024.2.1,Win32,60.24096386,66fa4ebf79326e780c390304,,,,,,,,,,,,,,,,,,,,,250.5183,250.5185,250.5215,253.648,0,1,left,2.5966,,253.702,253.7035,,0,,253.7048,253.7061,,0,,0,253.7062,253.7062,253.7073,255.1966,0,1,1,1,1,0.8,0.2,0.4,0.6,1,0,,,,,,,,,,,,,,,,,,,,,,,,,,,,,,,,,,,,
,,60e20b0026ccfc52c0877202,66fc988cd1cbeb8e180b820f,2024-10-01_17h58.45.731,mdp,2024.2.1,Win32,60.24096386,66fa4ebf79326e780c390304,,,,,,,,,,,,,,,,,,,,,255.1992,255.1994,255.2053,258.1435,0,0,left,2.416,,258.15,258.1536,,0,,258.1566,258.1602,,0,,1,258.1605,258.1606,258.1646,259.6593,0,2,2,2,1,0.8,0.2,0.4,0.6,1,0,,,,,,,,,,,,,,,,,,,,,,,,,,,,,,,,,,,,
,,60e20b0026ccfc52c0877202,66fc988cd1cbeb8e180b820f,2024-10-01_17h58.45.731,mdp,2024.2.1,Win32,60.24096386,66fa4ebf79326e780c390304,,,,,,,,,,,,,,,,,,,,,259.6622,259.6623,259.6691,261.4078,0,1,left,1.2178,,261.4127,261.4151,,1,,261.4175,261.4195,,1,,0,261.4197,261.4197,261.4225,262.9213,0,3,3,3,1,0.6,0.4,0.2,0.8,1,0,,,,,,,,,,,,,,,,,,,,,,,,,,,,,,,,,,,,
,,60e20b0026ccfc52c0877202,66fc988cd1cbeb8e180b820f,2024-10-01_17h58.45.731,mdp,2024.2.1,Win32,60.24096386,66fa4ebf79326e780c390304,,,,,,,,,,,,,,,,,,,,,262.9242,262.9244,262.9299,264.7039,0,0,left,1.2572,,264.7104,264.7131,,0,,264.7156,264.7184,,1,,1,264.719,264.719,264.7221,266.2188,0,4,4,4,1,0.6,0.4,0.2,0.8,1,0,,,,,,,,,,,,,,,,,,,,,,,,,,,,,,,,,,,,
,,60e20b0026ccfc52c0877202,66fc988cd1cbeb8e180b820f,2024-10-01_17h58.45.731,mdp,2024.2.1,Win32,60.24096386,66fa4ebf79326e780c390304,,,,,,,,,,,,,,,,,,,,,266.2214,266.2215,266.2274,268.3502,0,1,left,1.5993,,268.3556,268.358,,0,,268.3602,268.3625,,1,,0,268.3626,268.3626,268.3646,269.8653,0,5,5,5,1,0.6,0.4,0.2,0.8,1,0,,,,,,,,,,,,,,,,,,,,,,,,,,,,,,,,,,,,
,,60e20b0026ccfc52c0877202,66fc988cd1cbeb8e180b820f,2024-10-01_17h58.45.731,mdp,2024.2.1,Win32,60.24096386,66fa4ebf79326e780c390304,,,,,,,,,,,,,,,,,,,,,269.867,269.8671,269.8713,271.6622,0,1,left,1.2599,,271.6664,271.6676,,0,,271.6689,271.6702,,0,,0,271.6703,271.6703,271.6712,273.1606,0,6,6,6,1,0.6,0.4,0.2,0.8,1,0,,,,,,,,,,,,,,,,,,,,,,,,,,,,,,,,,,,,
,,60e20b0026ccfc52c0877202,66fc988cd1cbeb8e180b820f,2024-10-01_17h58.45.731,mdp,2024.2.1,Win32,60.24096386,66fa4ebf79326e780c390304,,,,,,,,,,,,,,,,,,,,,273.1614,273.1614,273.1652,276.059,0,0,left,2.3724,,276.0662,276.0696,,0,,276.0732,276.077,,0,,1,276.0773,276.0773,276.0807,277.574,0,7,7,7,1,0.8,0.2,0.6,0.4,1,0,,,,,,,,,,,,,,,,,,,,,,,,,,,,,,,,,,,,
,,60e20b0026ccfc52c0877202,66fc988cd1cbeb8e180b820f,2024-10-01_17h58.45.731,mdp,2024.2.1,Win32,60.24096386,66fa4ebf79326e780c390304,,,,,,,,,,,,,,,,,,,,,277.5767,277.5771,277.5825,278.6563,0,0,left,0.5585,,278.6626,278.665,,1,,278.6677,278.67,,0,,1,278.6701,278.6702,278.6732,280.1715,0,8,8,8,1,0.4,0.6,0.8,0.2,1,0,,,,,,,,,,,,,,,,,,,,,,,,,,,,,,,,,,,,
,,60e20b0026ccfc52c0877202,66fc988cd1cbeb8e180b820f,2024-10-01_17h58.45.731,mdp,2024.2.1,Win32,60.24096386,66fa4ebf79326e780c390304,,,,,,,,,,,,,,,,,,,,,280.1738,280.174,280.1785,281.2376,0,0,left,0.5398,,281.2434,281.248,,1,,281.2517,281.2562,,1,,1,281.2567,281.2568,281.261,282.7528,0,9,9,9,1,0.4,0.6,0.8,0.2,1,0,,,,,,,,,,,,,,,,,,,,,,,,,,,,,,,,,,,,
,,60e20b0026ccfc52c0877202,66fc988cd1cbeb8e180b820f,2024-10-01_17h58.45.731,mdp,2024.2.1,Win32,60.24096386,66fa4ebf79326e780c390304,,,,,,,,,,,,,,,,,,,,,282.7556,282.7557,282.7603,284.5175,0,1,left,1.2374,,284.5228,284.5253,,0,,284.5277,284.5297,,0,,0,284.5299,284.5299,284.5318,286.0324,0,10,10,10,1,0.4,0.6,0.8,0.2,1,0,,,,,,,,,,,,,,,,,,,,,,,,,,,,,,,,,,,,
,,60e20b0026ccfc52c0877202,66fc988cd1cbeb8e180b820f,2024-10-01_17h58.45.731,mdp,2024.2.1,Win32,60.24096386,66fa4ebf79326e780c390304,,,,,,,,,,,,,,,,,,,,,286.0346,286.0347,286.0391,292.1945,0,0,left,5.6292,,292.2482,292.2507,,1,,292.2538,292.256,,0,,1,292.2561,292.2561,292.258,293.7583,0,11,11,11,1,0.4,0.6,0.8,0.2,1,0,,,,,,,,,,,,,,,,,,,,,,,,,,,,,,,,,,,,
,,60e20b0026ccfc52c0877202,66fc988cd1cbeb8e180b820f,2024-10-01_17h58.45.731,mdp,2024.2.1,Win32,60.24096386,66fa4ebf79326e780c390304,,,,,,,,,,,,,,,,,,,,,293.7613,293.7615,293.7663,297.3713,1,0,right,3.0779,,297.4169,297.419,,0,,297.4212,297.423,,0,,1,297.4232,297.4232,297.4248,298.9198,0,12,12,12,1,0.4,0.6,0.8,0.2,1,0,,,,,,,,,,,,,,,,,,,,,,,,,,,,,,,,,,,,
,,60e20b0026ccfc52c0877202,66fc988cd1cbeb8e180b820f,2024-10-01_17h58.45.731,mdp,2024.2.1,Win32,60.24096386,66fa4ebf79326e780c390304,,,,,,,,,,,,,,,,,,,,,298.9219,298.922,298.9267,300.319,0,1,left,0.8682,,300.3245,300.3272,,1,,300.33,300.3322,,0,,0,300.3323,300.3323,300.335,301.8339,0,13,13,13,1,0.4,0.6,0.8,0.2,1,0,,,,,,,,,,,,,,,,,,,,,,,,,,,,,,,,,,,,
,,60e20b0026ccfc52c0877202,66fc988cd1cbeb8e180b820f,2024-10-01_17h58.45.731,mdp,2024.2.1,Win32,60.24096386,66fa4ebf79326e780c390304,,,,,,,,,,,,,,,,,,,,,301.8358,301.8358,301.8404,303.016,1,1,right,0.6522,,303.0213,303.0238,,0,,303.0264,303.0288,,0,,0,303.0289,303.029,303.0321,304.5312,0,14,14,14,1,0.4,0.6,0.8,0.2,1,0,,,,,,,,,,,,,,,,,,,,,,,,,,,,,,,,,,,,
,,60e20b0026ccfc52c0877202,66fc988cd1cbeb8e180b820f,2024-10-01_17h58.45.731,mdp,2024.2.1,Win32,60.24096386,66fa4ebf79326e780c390304,,,,,,,,,,,,,,,,,,,,,304.5333,304.5335,304.5375,305.8831,0,0,left,0.8175,,305.8879,305.8902,,1,,305.8928,305.8956,,1,,1,305.8961,305.8962,305.9017,307.3941,0,15,15,15,1,0.8,0.2,0.6,0.4,1,0,,,,,,,,,,,,,,,,,,,,,,,,,,,,,,,,,,,,
,,60e20b0026ccfc52c0877202,66fc988cd1cbeb8e180b820f,2024-10-01_17h58.45.731,mdp,2024.2.1,Win32,60.24096386,66fa4ebf79326e780c390304,,,,,,,,,,,,,,,,,,,,,307.3951,307.3952,307.3993,308.3941,1,0,right,0.4703,,308.4008,308.4033,,1,,308.4059,308.4084,,0,,1,308.4086,308.4086,308.4117,309.9124,0,16,16,16,1,0.8,0.2,0.6,0.4,1,0,,,,,,,,,,,,,,,,,,,,,,,,,,,,,,,,,,,,
,,60e20b0026ccfc52c0877202,66fc988cd1cbeb8e180b820f,2024-10-01_17h58.45.731,mdp,2024.2.1,Win32,60.24096386,66fa4ebf79326e780c390304,,,,,,,,,,,,,,,,,,,,,309.9138,309.9138,309.919,310.9914,1,0,right,0.5504,,310.9971,310.9991,,0,,311.0014,311.0041,,0,,1,311.0042,311.0043,311.0069,312.5074,0,17,17,17,1,0.4,0.6,0.8,0.2,1,0,,,,,,,,,,,,,,,,,,,,,,,,,,,,,,,,,,,,
,,60e20b0026ccfc52c0877202,66fc988cd1cbeb8e180b820f,2024-10-01_17h58.45.731,mdp,2024.2.1,Win32,60.24096386,66fa4ebf79326e780c390304,,,,,,,,,,,,,,,,,,,,,312.5096,312.5097,312.5142,314.7385,0,0,left,1.6999,,314.745,314.7478,,1,,314.7503,314.753,,0,,1,314.7533,314.7534,314.7611,316.2527,0,18,18,18,1,0.4,0.6,0.8,0.2,1,0,,,,,,,,,,,,,,,,,,,,,,,,,,,,,,,,,,,,
,,60e20b0026ccfc52c0877202,66fc988cd1cbeb8e180b820f,2024-10-01_17h58.45.731,mdp,2024.2.1,Win32,60.24096386,66fa4ebf79326e780c390304,,,,,,,,,,,,,,,,,,,,,316.2555,316.2556,316.26,316.8359,1,0,right,0.0504,,316.8429,316.8452,,0,,316.8476,316.8496,,0,,1,316.8498,316.8498,316.8529,318.3506,0,19,19,19,1,0.4,0.6,0.8,0.2,1,0,,,,,,,,,,,,,,,,,,,,,,,,,,,,,,,,,,,,
,,60e20b0026ccfc52c0877202,66fc988cd1cbeb8e180b820f,2024-10-01_17h58.45.731,mdp,2024.2.1,Win32,60.24096386,66fa4ebf79326e780c390304,,,,,,,,,,,,,,,,,,,,,318.3521,318.3528,318.3573,319.1336,1,0,right,0.2512,,319.1406,319.1438,,0,,319.1461,319.1491,,0,,1,319.1492,319.1492,319.1522,320.6481,0,20,20,20,1,0.4,0.6,0.8,0.2,1,0,,,,,,,,,,,,,,,,,,,,,,,,,,,,,,,,,,,,
,,60e20b0026ccfc52c0877202,66fc988cd1cbeb8e180b820f,2024-10-01_17h58.45.731,mdp,2024.2.1,Win32,60.24096386,66fa4ebf79326e780c390304,,,,,,,,,,,,,,,,,,,,,320.6494,320.6495,320.653,321.5145,0,1,left,0.3371,,321.5203,321.5226,,0,,321.5247,321.5268,,0,,0,321.5269,321.5269,321.5291,323.0304,0,21,21,21,1,0.6,0.4,0.6,0.4,1,0,,,,,,,,,,,,,,,,,,,,,,,,,,,,,,,,,,,,
,,60e20b0026ccfc52c0877202,66fc988cd1cbeb8e180b820f,2024-10-01_17h58.45.731,mdp,2024.2.1,Win32,60.24096386,66fa4ebf79326e780c390304,,,,,,,,,,,,,,,,,,,,,323.0322,323.0323,323.0359,324.0133,1,0,right,0.4519,,324.0182,324.0203,,1,,324.0224,324.0242,,0,,1,324.0243,324.0243,324.026,325.5274,0,22,22,22,1,0.6,0.4,0.6,0.4,1,0,,,,,,,,,,,,,,,,,,,,,,,,,,,,,,,,,,,,
,,60e20b0026ccfc52c0877202,66fc988cd1cbeb8e180b820f,2024-10-01_17h58.45.731,mdp,2024.2.1,Win32,60.24096386,66fa4ebf79326e780c390304,,,,,,,,,,,,,,,,,,,,,325.5299,325.5299,325.535,326.3764,1,1,right,0.323,,326.3818,326.3844,,0,,326.3866,326.3886,,1,,0,326.3887,326.3887,326.3906,327.8782,0,23,23,23,1,0.6,0.4,0.6,0.4,1,0,,,,,,,,,,,,,,,,,,,,,,,,,,,,,,,,,,,,
,,60e20b0026ccfc52c0877202,66fc988cd1cbeb8e180b820f,2024-10-01_17h58.45.731,mdp,2024.2.1,Win32,60.24096386,66fa4ebf79326e780c390304,,,,,,,,,,,,,,,,,,,,,327.8801,327.8801,327.8838,329.0406,0,0,left,0.6345,,329.0469,329.0495,,1,,329.0517,329.0538,,0,,1,329.0538,329.0538,329.0568,330.5555,0,24,24,24,1,0.6,0.4,0.6,0.4,1,0,,,,,,,,,,,,,,,,,,,,,,,,,,,,,,,,,,,,
,,60e20b0026ccfc52c0877202,66fc988cd1cbeb8e180b820f,2024-10-01_17h58.45.731,mdp,2024.2.1,Win32,60.24096386,66fa4ebf79326e780c390304,,,,,,,,,,,,,,,,,,,,,330.5583,330.5584,330.5636,331.6214,1,0,right,0.5363,,331.6271,331.6296,,0,,331.6321,331.6341,,1,,1,331.6343,331.6343,331.6373,333.136,0,25,25,25,1,0.6,0.4,0.6,0.4,1,0,,,,,,,,,,,,,,,,,,,,,,,,,,,,,,,,,,,,
,,60e20b0026ccfc52c0877202,66fc988cd1cbeb8e180b820f,2024-10-01_17h58.45.731,mdp,2024.2.1,Win32,60.24096386,66fa4ebf79326e780c390304,,,,,,,,,,,,,,,,,,,,,333.1385,333.1386,333.1432,334.2521,0,0,left,0.5829,,334.2572,334.2598,,1,,334.2621,334.2641,,1,,1,334.2642,334.2643,334.2659,335.7671,0,26,26,26,1,0.6,0.4,0.6,0.4,1,0,,,,,,,,,,,,,,,,,,,,,,,,,,,,,,,,,,,,
,,60e20b0026ccfc52c0877202,66fc988cd1cbeb8e180b820f,2024-10-01_17h58.45.731,mdp,2024.2.1,Win32,60.24096386,66fa4ebf79326e780c390304,,,,,,,,,,,,,,,,,,,,,335.7693,335.7694,335.774,336.5836,0,0,left,0.3007,,336.5887,336.5914,,1,,336.5937,336.5957,,1,,1,336.5958,336.5958,336.5989,338.099,0,27,27,27,1,0.6,0.4,0.6,0.4,1,0,,,,,,,,,,,,,,,,,,,,,,,,,,,,,,,,,,,,
,,60e20b0026ccfc52c0877202,66fc988cd1cbeb8e180b820f,2024-10-01_17h58.45.731,mdp,2024.2.1,Win32,60.24096386,66fa4ebf79326e780c390304,,,,,,,,,,,,,,,,,,,,,338.1009,338.101,338.1054,338.8838,1,0,right,0.255,,338.8873,338.8896,,1,,338.8919,338.894,,0,,1,338.8942,338.8942,338.8981,340.397,0,28,28,28,1,0.6,0.4,0.6,0.4,1,0,,,,,,,,,,,,,,,,,,,,,,,,,,,,,,,,,,,,
,,60e20b0026ccfc52c0877202,66fc988cd1cbeb8e180b820f,2024-10-01_17h58.45.731,mdp,2024.2.1,Win32,60.24096386,66fa4ebf79326e780c390304,,,,,,,,,,,,,,,,,,,,,340.4,340.4001,340.4049,341.3452,1,1,right,0.4185,,341.3516,341.3547,,1,,341.3583,341.362,,0,,0,341.3622,341.3622,341.3665,342.8601,0,29,29,29,1,0.6,0.4,0.6,0.4,1,0,,,,,,,,,,,,,,,,,,,,,,,,,,,,,,,,,,,,
,,60e20b0026ccfc52c0877202,66fc988cd1cbeb8e180b820f,2024-10-01_17h58.45.731,mdp,2024.2.1,Win32,60.24096386,66fa4ebf79326e780c390304,,,,,,,,,,,,,,,,,,,,,342.8628,342.863,342.8676,343.6286,0,0,left,0.2388,,343.6341,343.6382,,0,,343.6409,343.6438,,0,,1,343.6439,343.644,343.647,345.1411,0,30,30,30,1,0.6,0.4,0.6,0.4,1,0,,,,,,,,,,,,,,,,,,,,,,,,,,,,,,,,,,,,
,,60e20b0026ccfc52c0877202,66fc988cd1cbeb8e180b820f,2024-10-01_17h58.45.731,mdp,2024.2.1,Win32,60.24096386,66fa4ebf79326e780c390304,,,,,,,,,,,,,,,,,,,,,345.1437,345.1439,345.1492,345.9574,0,1,left,0.2808,,345.9628,345.9648,,1,,345.9671,345.9689,,0,,0,345.9689,345.969,345.9715,347.4733,0,31,31,31,1,0.6,0.4,0.6,0.4,1,0,,,,,,,,,,,,,,,,,,,,,,,,,,,,,,,,,,,,
,,60e20b0026ccfc52c0877202,66fc988cd1cbeb8e180b820f,2024-10-01_17h58.45.731,mdp,2024.2.1,Win32,60.24096386,66fa4ebf79326e780c390304,,,,,,,,,,,,,,,,,,,,,347.476,347.4761,347.4813,348.3888,0,0,left,0.3885,,348.3939,348.3972,,0,,348.3995,348.4017,,1,,1,348.4019,348.4019,348.405,349.9048,0,32,32,32,1,0.6,0.4,0.6,0.4,1,0,,,,,,,,,,,,,,,,,,,,,,,,,,,,,,,,,,,,
,,60e20b0026ccfc52c0877202,66fc988cd1cbeb8e180b820f,2024-10-01_17h58.45.731,mdp,2024.2.1,Win32,60.24096386,66fa4ebf79326e780c390304,,,,,,,,,,,,,,,,,,,,,349.9077,349.9078,349.9118,351.0358,1,0,right,0.6034,,351.041,351.0443,,0,,351.0468,351.0489,,0,,1,351.049,351.049,351.0518,352.5501,0,33,33,33,1,0.4,0.6,0.8,0.2,1,0,,,,,,,,,,,,,,,,,,,,,,,,,,,,,,,,,,,,
,,60e20b0026ccfc52c0877202,66fc988cd1cbeb8e180b820f,2024-10-01_17h58.45.731,mdp,2024.2.1,Win32,60.24096386,66fa4ebf79326e780c390304,,,,,,,,,,,,,,,,,,,,,352.5523,352.5524,352.5572,353.3833,1,0,right,0.3066,,353.3888,353.3912,,0,,353.3932,353.395,,0,,1,353.3951,353.3951,353.3969,354.8995,0,34,34,34,1,0.4,0.6,0.8,0.2,1,0,,,,,,,,,,,,,,,,,,,,,,,,,,,,,,,,,,,,
,,60e20b0026ccfc52c0877202,66fc988cd1cbeb8e180b820f,2024-10-01_17h58.45.731,mdp,2024.2.1,Win32,60.24096386,66fa4ebf79326e780c390304,,,,,,,,,,,,,,,,,,,,,354.9016,354.9016,354.9065,357.2638,1,1,right,1.8315,,357.2688,357.2709,,0,,357.2729,357.2746,,0,,0,357.2748,357.2748,357.2764,358.7778,0,35,35,35,1,0.6,0.4,0.6,0.4,1,0,,,,,,,,,,,,,,,,,,,,,,,,,,,,,,,,,,,,
,,60e20b0026ccfc52c0877202,66fc988cd1cbeb8e180b820f,2024-10-01_17h58.45.731,mdp,2024.2.1,Win32,60.24096386,66fa4ebf79326e780c390304,,,,,,,,,,,,,,,,,,,,,358.7811,358.7812,358.786,361.0758,0,0,left,1.7662,,361.0818,361.0841,,0,,361.0862,361.088,,0,,1,361.0882,361.0882,361.09,362.5913,0,36,36,36,1,0.6,0.4,0.6,0.4,1,0,,,,,,,,,,,,,,,,,,,,,,,,,,,,,,,,,,,,
,,60e20b0026ccfc52c0877202,66fc988cd1cbeb8e180b820f,2024-10-01_17h58.45.731,mdp,2024.2.1,Win32,60.24096386,66fa4ebf79326e780c390304,,,,,,,,,,,,,,,,,,,,,362.5952,362.5954,362.5991,363.5908,0,1,left,0.4688,,363.5963,363.5984,,0,,363.6004,363.6024,,1,,0,363.6025,363.6025,363.6041,365.1047,0,37,37,37,1,0.4,0.6,0.8,0.2,1,0,,,,,,,,,,,,,,,,,,,,,,,,,,,,,,,,,,,,
,,60e20b0026ccfc52c0877202,66fc988cd1cbeb8e180b820f,2024-10-01_17h58.45.731,mdp,2024.2.1,Win32,60.24096386,66fa4ebf79326e780c390304,,,,,,,,,,,,,,,,,,,,,365.1074,365.1076,365.1114,365.7548,1,1,right,0.1181,,365.7605,365.763,,0,,365.7654,365.7674,,0,,0,365.7675,365.7675,365.7702,367.2694,0,38,38,38,1,0.4,0.6,0.8,0.2,1,0,,,,,,,,,,,,,,,,,,,,,,,,,,,,,,,,,,,,
,,60e20b0026ccfc52c0877202,66fc988cd1cbeb8e180b820f,2024-10-01_17h58.45.731,mdp,2024.2.1,Win32,60.24096386,66fa4ebf79326e780c390304,,,,,,,,,,,,,,,,,,,,,367.2717,367.2718,367.2764,368.0191,1,0,right,0.2177,,368.0256,368.0281,,0,,368.0311,368.0331,,0,,1,368.0332,368.0332,368.0362,369.5338,0,39,39,39,1,0.4,0.6,0.8,0.2,1,0,,,,,,,,,,,,,,,,,,,,,,,,,,,,,,,,,,,,
,,60e20b0026ccfc52c0877202,66fc988cd1cbeb8e180b820f,2024-10-01_17h58.45.731,mdp,2024.2.1,Win32,60.24096386,66fa4ebf79326e780c390304,,,,,,,,,,,,,,,,,,,,,369.5363,369.5365,369.5478,370.1667,0,0,left,0.106,,370.172,370.1748,,0,,370.177,370.1792,,1,,1,370.1792,370.1792,370.181,371.6817,0,40,40,40,1,0.6,0.4,0.2,0.8,1,0,,,,,,,,,,,,,,,,,,,,,,,,,,,,,,,,,,,,
,,60e20b0026ccfc52c0877202,66fc988cd1cbeb8e180b820f,2024-10-01_17h58.45.731,mdp,2024.2.1,Win32,60.24096386,66fa4ebf79326e780c390304,,,,,,,,,,,,,,,,,,,,,371.6844,371.6845,371.6882,373.0642,0,0,left,0.855,,373.0694,373.0719,,0,,373.0742,373.0762,,1,,1,373.0763,373.0764,373.0789,374.5777,0,41,41,41,1,0.6,0.4,0.2,0.8,1,0,,,,,,,,,,,,,,,,,,,,,,,,,,,,,,,,,,,,
,,60e20b0026ccfc52c0877202,66fc988cd1cbeb8e180b820f,2024-10-01_17h58.45.731,mdp,2024.2.1,Win32,60.24096386,66fa4ebf79326e780c390304,,,,,,,,,,,,,,,,,,,,,374.5781,374.5781,374.5792,375.6103,1,1,right,0.4989,,375.6142,375.6155,,1,,375.6168,375.6179,,0,,0,375.6179,375.6179,375.6189,377.1094,0,42,42,42,1,0.6,0.4,0.2,0.8,1,0,,,,,,,,,,,,,,,,,,,,,,,,,,,,,,,,,,,,
,,60e20b0026ccfc52c0877202,66fc988cd1cbeb8e180b820f,2024-10-01_17h58.45.731,mdp,2024.2.1,Win32,60.24096386,66fa4ebf79326e780c390304,,,,,,,,,,,,,,,,,,,,,377.1117,377.1117,377.1166,377.9592,0,0,left,0.3194,,377.9649,377.968,,1,,377.9709,377.9733,,0,,1,377.9734,377.9735,377.9768,379.475,0,43,43,43,1,0.6,0.4,0.2,0.8,1,0,,,,,,,,,,,,,,,,,,,,,,,,,,,,,,,,,,,,
,,60e20b0026ccfc52c0877202,66fc988cd1cbeb8e180b820f,2024-10-01_17h58.45.731,mdp,2024.2.1,Win32,60.24096386,66fa4ebf79326e780c390304,,,,,,,,,,,,,,,,,,,,,379.4771,379.4772,379.482,380.5571,0,0,left,0.5522,,380.5624,380.5644,,1,,380.5662,380.5686,,0,,1,380.5687,380.5687,380.5706,382.0716,0,44,44,44,1,0.6,0.4,0.2,0.8,1,0,,,,,,,,,,,,,,,,,,,,,,,,,,,,,,,,,,,,
,,60e20b0026ccfc52c0877202,66fc988cd1cbeb8e180b820f,2024-10-01_17h58.45.731,mdp,2024.2.1,Win32,60.24096386,66fa4ebf79326e780c390304,,,,,,,,,,,,,,,,,,,,,382.0742,382.0743,382.0785,382.9337,0,0,left,0.3254,,382.9408,382.9432,,0,,382.9462,382.9489,,0,,1,382.9491,382.9492,382.9517,384.4547,0,45,45,45,1,0.8,0.2,0.8,0.2,1,0,,,,,,,,,,,,,,,,,,,,,,,,,,,,,,,,,,,,
,,60e20b0026ccfc52c0877202,66fc988cd1cbeb8e180b820f,2024-10-01_17h58.45.731,mdp,2024.2.1,Win32,60.24096386,66fa4ebf79326e780c390304,,,,,,,,,,,,,,,,,,,,,384.457,384.457,384.4618,385.5856,1,0,right,0.601,,385.5927,385.5953,,0,,385.5975,385.5994,,0,,1,385.5995,385.5995,385.6018,387.0997,0,46,46,46,1,0.8,0.2,0.8,0.2,1,0,,,,,,,,,,,,,,,,,,,,,,,,,,,,,,,,,,,,
,,60e20b0026ccfc52c0877202,66fc988cd1cbeb8e180b820f,2024-10-01_17h58.45.731,mdp,2024.2.1,Win32,60.24096386,66fa4ebf79326e780c390304,,,,,,,,,,,,,,,,,,,,,387.101,387.1011,387.1061,388.252,0,0,left,0.6284,,388.2558,388.2579,,0,,388.2597,388.2615,,0,,1,388.2615,388.2616,388.2631,389.7639,0,47,47,47,1,0.8,0.2,0.8,0.2,1,0,,,,,,,,,,,,,,,,,,,,,,,,,,,,,,,,,,,,
,,60e20b0026ccfc52c0877202,66fc988cd1cbeb8e180b820f,2024-10-01_17h58.45.731,mdp,2024.2.1,Win32,60.24096386,66fa4ebf79326e780c390304,,,,,,,,,,,,,,,,,,,,,389.7662,389.7663,389.7702,390.8818,0,0,left,0.5875,,390.8865,390.8888,,1,,390.8911,390.8931,,1,,1,390.8933,390.8933,390.8954,392.3961,0,48,48,48,1,0.6,0.4,0.4,0.6,1,0,,,,,,,,,,,,,,,,,,,,,,,,,,,,,,,,,,,,
,,60e20b0026ccfc52c0877202,66fc988cd1cbeb8e180b820f,2024-10-01_17h58.45.731,mdp,2024.2.1,Win32,60.24096386,66fa4ebf79326e780c390304,,,,,,,,,,,,,,,,,,,,,392.3981,392.3982,392.4019,393.4783,1,1,right,0.5548,,393.4853,393.4884,,0,,393.4916,393.4956,,0,,0,393.4959,393.4959,393.5006,394.9925,0,49,49,49,1,0.6,0.4,0.4,0.6,1,0,,,,,,,,,,,,,,,,,,,,,,,,,,,,,,,,,,,,
,,60e20b0026ccfc52c0877202,66fc988cd1cbeb8e180b820f,2024-10-01_17h58.45.731,mdp,2024.2.1,Win32,60.24096386,66fa4ebf79326e780c390304,,,,,,,,,,,,,,,,,,,,,,,,,,,,,,,,,,,,,,,,,,,,,,,,,,,,,,,,394.9961,453.5051,0,0,0,0,1,imgs/lion.png,imgs/elephant.png,imgs/goat.png,imgs/giraffe.png,imgs/squirrel.png,,,,,,,,,,,,,,,,,,,,,,,,
,,60e20b0026ccfc52c0877202,66fc988cd1cbeb8e180b820f,2024-10-01_17h58.45.731,mdp,2024.2.1,Win32,60.24096386,66fa4ebf79326e780c390304,,,,,,,,,,,,,,2,seqs/st2seq19.csv,453.5571,455.9651,space,1.8846,,455.9747,455.9747,455.976,462.943,0,0,left,6.4085,,462.9946,468.0046,0,1,left,468.0562,468.0583,,1,,0,468.0584,468.0584,468.061,469.5525,0,0,0,0,1,0.8,0.2,0.2,0.8,,,,,,,,,,,,,,,4.5167,,0.2,0.8,0.4,0.6,0.4,0.6,0.8,0.2,1,0,,,,,,,,,,,,
,,60e20b0026ccfc52c0877202,66fc988cd1cbeb8e180b820f,2024-10-01_17h58.45.731,mdp,2024.2.1,Win32,60.24096386,66fa4ebf79326e780c390304,,,,,,,,,,,,,,,,,,,,,469.5552,469.5554,469.5595,473.9986,1,1,right,3.9127,,474.0528,476.4451,0,0,left,476.4487,476.4498,,1,,1,476.4499,476.4499,476.4507,477.9439,0,1,1,1,1,0.8,0.2,0.2,0.8,,,,,,,,,,,,,,,1.8876,,0.6,0.4,0.8,0.2,0.4,0.6,0.8,0.2,1,0,,,,,,,,,,,,
,,60e20b0026ccfc52c0877202,66fc988cd1cbeb8e180b820f,2024-10-01_17h58.45.731,mdp,2024.2.1,Win32,60.24096386,66fa4ebf79326e780c390304,,,,,,,,,,,,,,,,,,,,,477.9468,477.9469,477.9517,487.4525,1,0,right,8.9725,,487.5055,489.2511,1,0,right,489.2557,489.258,,1,,1,489.258,489.2581,489.2603,490.748,0,2,2,2,1,0.8,0.2,0.2,0.8,,,,,,,,,,,,,,,1.2579,,0.6,0.4,0.8,0.2,0.4,0.6,0.8,0.2,1,0,,,,,,,,,,,,
,,60e20b0026ccfc52c0877202,66fc988cd1cbeb8e180b820f,2024-10-01_17h58.45.731,mdp,2024.2.1,Win32,60.24096386,66fa4ebf79326e780c390304,,,,,,,,,,,,,,,,,,,,,490.7497,490.7498,490.7543,493.8446,0,0,left,2.5652,,493.8732,497.492,1,1,right,497.4987,497.5016,,0,,0,497.5018,497.5019,497.5049,499.0065,0,3,3,3,1,0.8,0.2,0.2,0.8,,,,,,,,,,,,,,,3.1174,,0.6,0.4,0.8,0.2,0.4,0.6,0.8,0.2,1,0,,,,,,,,,,,,
,,60e20b0026ccfc52c0877202,66fc988cd1cbeb8e180b820f,2024-10-01_17h58.45.731,mdp,2024.2.1,Win32,60.24096386,66fa4ebf79326e780c390304,,,,,,,,,,,,,,,,,,,,,499.0076,499.0076,499.0109,500.4212,1,1,right,0.8807,,500.4234,501.5039,1,0,right,501.5065,501.5086,,0,,1,501.5086,501.5086,501.5095,503.0022,0,4,4,4,1,0.8,0.2,0.2,0.8,,,,,,,,,,,,,,,0.5414,,0.6,0.4,0.8,0.2,0.4,0.6,0.8,0.2,1,0,,,,,,,,,,,,
,,60e20b0026ccfc52c0877202,66fc988cd1cbeb8e180b820f,2024-10-01_17h58.45.731,mdp,2024.2.1,Win32,60.24096386,66fa4ebf79326e780c390304,,,,,,,,,,,,,,,,,,,,,503.0033,503.0033,503.0068,504.935,0,0,left,1.4045,,504.9411,506.0506,1,1,right,506.0558,506.0591,,0,,0,506.0593,506.0593,506.0618,507.549,0,5,5,5,1,0.8,0.2,0.2,0.8,,,,,,,,,,,,,,,0.5665,,0.6,0.4,0.8,0.2,0.4,0.6,0.8,0.2,1,0,,,,,,,,,,,,
,,60e20b0026ccfc52c0877202,66fc988cd1cbeb8e180b820f,2024-10-01_17h58.45.731,mdp,2024.2.1,Win32,60.24096386,66fa4ebf79326e780c390304,,,,,,,,,,,,,,,,,,,,,507.5512,507.5513,507.5565,508.7477,0,1,left,0.6665,,508.7548,509.8964,0,1,left,509.901,509.9047,,1,,0,509.905,509.905,509.9084,511.3957,0,6,6,6,1,0.4,0.6,0.6,0.4,,,,,,,,,,,,,,,0.6085,,0.6,0.4,0.8,0.2,0.4,0.6,0.8,0.2,1,0,,,,,,,,,,,,
,,60e20b0026ccfc52c0877202,66fc988cd1cbeb8e180b820f,2024-10-01_17h58.45.731,mdp,2024.2.1,Win32,60.24096386,66fa4ebf79326e780c390304,,,,,,,,,,,,,,,,,,,,,511.3979,511.3979,511.4024,512.3955,1,1,right,0.4684,,512.4027,513.4974,1,0,right,513.5006,513.5026,,0,,1,513.5027,513.5027,513.5049,514.9932,0,7,7,7,1,0.4,0.6,0.6,0.4,,,,,,,,,,,,,,,0.5766,,0.6,0.4,0.8,0.2,0.4,0.6,0.8,0.2,1,0,,,,,,,,,,,,
,,60e20b0026ccfc52c0877202,66fc988cd1cbeb8e180b820f,2024-10-01_17h58.45.731,mdp,2024.2.1,Win32,60.24096386,66fa4ebf79326e780c390304,,,,,,,,,,,,,,,,,,,,,514.9949,514.9949,514.9984,516.3576,0,1,left,0.8368,,516.3642,517.6569,1,0,right,517.6622,517.6643,,0,,1,517.6645,517.6645,517.6663,519.1534,0,8,8,8,1,0.4,0.6,0.6,0.4,,,,,,,,,,,,,,,0.7733,,0.6,0.4,0.8,0.2,0.6,0.4,0.6,0.4,1,0,,,,,,,,,,,,
,,60e20b0026ccfc52c0877202,66fc988cd1cbeb8e180b820f,2024-10-01_17h58.45.731,mdp,2024.2.1,Win32,60.24096386,66fa4ebf79326e780c390304,,,,,,,,,,,,,,,,,,,,,519.1545,519.1545,519.1574,520.6032,1,0,right,0.9205,,520.6084,521.7526,1,0,right,521.7589,521.7613,,0,,1,521.7614,521.7615,521.7638,523.2495,0,9,9,9,1,0.4,0.6,0.6,0.4,,,,,,,,,,,,,,,0.6189,,0.6,0.4,0.8,0.2,0.6,0.4,0.6,0.4,1,0,,,,,,,,,,,,
,,60e20b0026ccfc52c0877202,66fc988cd1cbeb8e180b820f,2024-10-01_17h58.45.731,mdp,2024.2.1,Win32,60.24096386,66fa4ebf79326e780c390304,,,,,,,,,,,,,,,,,,,,,523.2506,523.2507,523.2556,523.833,1,0,right,0.0483,,523.839,524.8481,1,0,right,524.8518,524.8541,,1,,1,524.8541,524.8541,524.8553,526.3462,0,10,10,10,1,0.4,0.6,0.6,0.4,,,,,,,,,,,,,,,0.4844,,0.6,0.4,0.8,0.2,0.6,0.4,0.6,0.4,1,0,,,,,,,,,,,,
,,60e20b0026ccfc52c0877202,66fc988cd1cbeb8e180b820f,2024-10-01_17h58.45.731,mdp,2024.2.1,Win32,60.24096386,66fa4ebf79326e780c390304,,,,,,,,,,,,,,,,,,,,,526.3482,526.3483,526.353,527.8112,0,0,left,0.9299,,527.8153,529.0935,0,1,left,529.0962,529.0982,,0,,0,529.0983,529.0983,529.0991,530.5925,0,11,11,11,1,0.4,0.6,0.6,0.4,,,,,,,,,,,,,,,0.7514,,0.6,0.4,0.8,0.2,0.4,0.6,0.8,0.2,1,0,,,,,,,,,,,,
,,60e20b0026ccfc52c0877202,66fc988cd1cbeb8e180b820f,2024-10-01_17h58.45.731,mdp,2024.2.1,Win32,60.24096386,66fa4ebf79326e780c390304,,,,,,,,,,,,,,,,,,,,,530.5955,530.5955,530.6008,531.3104,0,0,left,0.1957,,531.3161,532.2581,0,1,left,532.263,532.2663,,0,,0,532.2664,532.2664,532.2686,533.7561,0,12,12,12,1,0.4,0.6,0.6,0.4,,,,,,,,,,,,,,,0.4157,,0.6,0.4,0.8,0.2,0.4,0.6,0.8,0.2,1,0,,,,,,,,,,,,
,,60e20b0026ccfc52c0877202,66fc988cd1cbeb8e180b820f,2024-10-01_17h58.45.731,mdp,2024.2.1,Win32,60.24096386,66fa4ebf79326e780c390304,,,,,,,,,,,,,,,,,,,,,533.758,533.7587,533.7649,534.3564,1,1,right,0.0715,,534.3621,535.5882,0,1,left,535.5936,535.5955,,0,,0,535.5956,535.5956,535.5978,537.0864,0,13,13,13,1,0.4,0.6,0.6,0.4,,,,,,,,,,,,,,,0.6874,,0.6,0.4,0.8,0.2,0.4,0.6,0.8,0.2,1,0,,,,,,,,,,,,
,,60e20b0026ccfc52c0877202,66fc988cd1cbeb8e180b820f,2024-10-01_17h58.45.731,mdp,2024.2.1,Win32,60.24096386,66fa4ebf79326e780c390304,,,,,,,,,,,,,,,,,,,,,537.0901,537.0902,537.0965,537.8521,1,1,right,0.2429,,537.8553,539.2192,1,1,right,539.224,539.2262,,1,,0,539.2265,539.2265,539.2286,540.7164,0,14,14,14,1,0.4,0.6,0.6,0.4,,,,,,,,,,,,,,,0.8367,,0.6,0.4,0.8,0.2,0.4,0.6,0.8,0.2,1,0,,,,,,,,,,,,
,,60e20b0026ccfc52c0877202,66fc988cd1cbeb8e180b820f,2024-10-01_17h58.45.731,mdp,2024.2.1,Win32,60.24096386,66fa4ebf79326e780c390304,,,,,,,,,,,,,,,,,,,,,540.7187,540.7188,540.7235,541.5327,0,0,left,0.2847,,541.5377,542.7314,0,1,left,542.737,542.7391,,0,,0,542.7391,542.7391,542.7411,544.23,0,15,15,15,1,0.4,0.6,0.6,0.4,,,,,,,,,,,,,,,0.6577,,0.6,0.4,0.8,0.2,0.4,0.6,0.8,0.2,1,0,,,,,,,,,,,,
,,60e20b0026ccfc52c0877202,66fc988cd1cbeb8e180b820f,2024-10-01_17h58.45.731,mdp,2024.2.1,Win32,60.24096386,66fa4ebf79326e780c390304,,,,,,,,,,,,,,,,,,,,,544.2326,544.2327,544.2372,545.1962,1,0,right,0.4376,,545.2014,546.5951,0,0,left,546.6021,546.6043,,0,,1,546.6045,546.6045,546.607,548.1094,0,16,16,16,1,0.4,0.6,0.6,0.4,,,,,,,,,,,,,,,0.8702,,0.6,0.4,0.8,0.2,0.4,0.6,0.8,0.2,1,0,,,,,,,,,,,,
,,60e20b0026ccfc52c0877202,66fc988cd1cbeb8e180b820f,2024-10-01_17h58.45.731,mdp,2024.2.1,Win32,60.24096386,66fa4ebf79326e780c390304,,,,,,,,,,,,,,,,,,,,,548.1128,548.1128,548.1181,549.4578,1,1,right,0.814,,549.4625,550.6392,0,1,left,550.6427,550.6444,,1,,0,550.6444,550.6444,550.6453,552.1416,0,17,17,17,1,0.4,0.6,0.6,0.4,,,,,,,,,,,,,,,0.6351,,0.6,0.4,0.8,0.2,0.4,0.6,0.8,0.2,1,0,,,,,,,,,,,,
,,60e20b0026ccfc52c0877202,66fc988cd1cbeb8e180b820f,2024-10-01_17h58.45.731,mdp,2024.2.1,Win32,60.24096386,66fa4ebf79326e780c390304,,,,,,,,,,,,,,,,,,,,,552.1432,552.1432,552.1485,553.7054,0,0,left,1.0406,,553.7114,554.6032,1,0,right,554.6106,554.613,,0,,1,554.6131,554.6131,554.6156,556.1176,0,18,18,18,1,0.4,0.6,0.6,0.4,,,,,,,,,,,,,,,0.3652,,0.6,0.4,0.8,0.2,0.4,0.6,0.8,0.2,1,0,,,,,,,,,,,,
,,60e20b0026ccfc52c0877202,66fc988cd1cbeb8e180b820f,2024-10-01_17h58.45.731,mdp,2024.2.1,Win32,60.24096386,66fa4ebf79326e780c390304,,,,,,,,,,,,,,,,,,,,,556.1214,556.1214,556.1265,558.8834,1,0,right,2.2383,,558.8889,559.7648,0,1,left,559.7711,559.7735,,0,,0,559.7736,559.7737,559.7759,561.2629,0,19,19,19,1,0.4,0.6,0.6,0.4,,,,,,,,,,,,,,,0.3543,,0.6,0.4,0.8,0.2,0.4,0.6,0.8,0.2,1,0,,,,,,,,,,,,
,,60e20b0026ccfc52c0877202,66fc988cd1cbeb8e180b820f,2024-10-01_17h58.45.731,mdp,2024.2.1,Win32,60.24096386,66fa4ebf79326e780c390304,,,,,,,,,,,,,,,,,,,,,561.2655,561.2656,561.2709,562.2777,0,0,left,0.4796,,562.2806,563.5948,0,0,left,563.6006,563.603,,0,,1,563.6031,563.6031,563.6054,565.0917,0,20,20,20,1,0.4,0.6,0.6,0.4,,,,,,,,,,,,,,,0.7873,,0.6,0.4,0.8,0.2,0.2,0.8,0.4,0.6,1,0,,,,,,,,,,,,
,,60e20b0026ccfc52c0877202,66fc988cd1cbeb8e180b820f,2024-10-01_17h58.45.731,mdp,2024.2.1,Win32,60.24096386,66fa4ebf79326e780c390304,,,,,,,,,,,,,,,,,,,,,565.0933,565.0934,565.0963,566.0248,1,1,right,0.3979,,566.0309,567.3571,1,1,right,567.3627,567.3647,,1,,0,567.3648,567.3648,567.3667,568.8545,0,21,21,21,1,0.4,0.6,0.6,0.4,,,,,,,,,,,,,,,0.7898,,0.6,0.4,0.8,0.2,0.2,0.8,0.4,0.6,1,0,,,,,,,,,,,,
,,60e20b0026ccfc52c0877202,66fc988cd1cbeb8e180b820f,2024-10-01_17h58.45.731,mdp,2024.2.1,Win32,60.24096386,66fa4ebf79326e780c390304,,,,,,,,,,,,,,,,,,,,,568.8556,568.8556,568.8586,571.7527,1,1,right,2.3673,,571.7583,572.7518,1,0,right,572.758,572.7607,,0,,1,572.7608,572.7608,572.7633,574.2503,0,22,22,22,1,0.8,0.2,0.2,0.8,,,,,,,,,,,,,,,0.4692,,0.6,0.4,0.8,0.2,0.2,0.8,0.4,0.6,1,0,,,,,,,,,,,,
,,60e20b0026ccfc52c0877202,66fc988cd1cbeb8e180b820f,2024-10-01_17h58.45.731,mdp,2024.2.1,Win32,60.24096386,66fa4ebf79326e780c390304,,,,,,,,,,,,,,,,,,,,,574.2529,574.2529,574.2572,574.7829,1,1,right,0.0016,,574.7892,575.7817,0,1,left,575.7875,575.7896,,0,,0,575.7897,575.7897,575.7918,577.2803,0,23,23,23,1,0.8,0.2,0.2,0.8,,,,,,,,,,,,,,,0.4714,,0.6,0.4,0.8,0.2,0.2,0.8,0.4,0.6,1,0,,,,,,,,,,,,
,,60e20b0026ccfc52c0877202,66fc988cd1cbeb8e180b820f,2024-10-01_17h58.45.731,mdp,2024.2.1,Win32,60.24096386,66fa4ebf79326e780c390304,,,,,,,,,,,,,,,,,,,,,577.2828,577.2829,577.2876,579.3955,1,1,right,1.5812,,579.4011,580.7771,0,0,left,580.7825,580.7847,,0,,1,580.7847,580.7847,580.7869,582.2753,0,24,24,24,1,0.8,0.2,0.2,0.8,,,,,,,,,,,,,,,0.8494,,0.6,0.4,0.8,0.2,0.4,0.6,0.6,0.4,1,0,,,,,,,,,,,,
,,60e20b0026ccfc52c0877202,66fc988cd1cbeb8e180b820f,2024-10-01_17h58.45.731,mdp,2024.2.1,Win32,60.24096386,66fa4ebf79326e780c390304,,,,,,,,,,,,,,,,,,,,,582.277,582.2777,582.2819,583.7589,1,1,right,0.9509,,583.7648,585.2556,0,0,left,585.2597,585.2609,,1,,1,585.261,585.261,585.2621,586.7552,0,25,25,25,1,0.8,0.2,0.2,0.8,,,,,,,,,,,,,,,0.964,,0.6,0.4,0.8,0.2,0.4,0.6,0.6,0.4,1,0,,,,,,,,,,,,
,,60e20b0026ccfc52c0877202,66fc988cd1cbeb8e180b820f,2024-10-01_17h58.45.731,mdp,2024.2.1,Win32,60.24096386,66fa4ebf79326e780c390304,,,,,,,,,,,,,,,,,,,,,586.7574,586.7574,586.7617,587.7047,1,1,right,0.4169,,587.7099,589.5033,0,1,left,589.5071,589.5085,,1,,0,589.5086,589.5086,589.5098,591.0009,0,26,26,26,1,0.8,0.2,0.2,0.8,,,,,,,,,,,,,,,1.2653,,0.6,0.4,0.8,0.2,0.6,0.4,0.2,0.8,1,0,,,,,,,,,,,,
,,60e20b0026ccfc52c0877202,66fc988cd1cbeb8e180b820f,2024-10-01_17h58.45.731,mdp,2024.2.1,Win32,60.24096386,66fa4ebf79326e780c390304,,,,,,,,,,,,,,,,,,,,,591.003,591.0032,591.0074,591.9341,0,0,left,0.407,,591.9403,592.8164,1,0,right,592.8221,592.8244,,1,,1,592.8246,592.8246,592.8271,594.3147,0,27,27,27,1,0.8,0.2,0.2,0.8,,,,,,,,,,,,,,,0.337,,0.6,0.4,0.8,0.2,0.6,0.4,0.2,0.8,1,0,,,,,,,,,,,,
,,60e20b0026ccfc52c0877202,66fc988cd1cbeb8e180b820f,2024-10-01_17h58.45.731,mdp,2024.2.1,Win32,60.24096386,66fa4ebf79326e780c390304,,,,,,,,,,,,,,,,,,,,,594.316,594.3161,594.3202,600.076,1,1,right,5.2307,,600.1268,601.2399,1,1,right,601.2443,601.2455,,1,,0,601.2455,601.2455,601.2467,602.7384,0,28,28,28,1,0.8,0.2,0.2,0.8,,,,,,,,,,,,,,,0.6182,,0.6,0.4,0.8,0.2,0.6,0.4,0.2,0.8,1,0,,,,,,,,,,,,
,,60e20b0026ccfc52c0877202,66fc988cd1cbeb8e180b820f,2024-10-01_17h58.45.731,mdp,2024.2.1,Win32,60.24096386,66fa4ebf79326e780c390304,,,,,,,,,,,,,,,,,,,,,602.7411,602.7412,602.7466,603.7213,0,0,left,0.4565,,603.7275,604.6876,0,1,left,604.6934,604.6957,,1,,0,604.6958,604.6958,604.6978,606.1853,0,29,29,29,1,0.4,0.6,0.6,0.4,,,,,,,,,,,,,,,0.4182,,0.6,0.4,0.8,0.2,0.6,0.4,0.2,0.8,1,0,,,,,,,,,,,,
,,60e20b0026ccfc52c0877202,66fc988cd1cbeb8e180b820f,2024-10-01_17h58.45.731,mdp,2024.2.1,Win32,60.24096386,66fa4ebf79326e780c390304,,,,,,,,,,,,,,,,,,,,,606.1876,606.1877,606.1919,607.1348,1,0,right,0.4203,,607.1421,607.968,0,1,left,607.9738,607.9763,,1,,0,607.9765,607.9765,607.9799,609.4656,0,30,30,30,1,0.4,0.6,0.6,0.4,,,,,,,,,,,,,,,0.2993,,0.6,0.4,0.8,0.2,0.6,0.4,0.2,0.8,1,0,,,,,,,,,,,,
,,60e20b0026ccfc52c0877202,66fc988cd1cbeb8e180b820f,2024-10-01_17h58.45.731,mdp,2024.2.1,Win32,60.24096386,66fa4ebf79326e780c390304,,,,,,,,,,,,,,,,,,,,,609.4686,609.4688,609.4731,610.4148,0,0,left,0.4225,,610.4211,611.2807,1,0,right,611.2855,611.2878,,0,,1,611.2878,611.2878,611.2899,612.7787,0,31,31,31,1,0.4,0.6,0.6,0.4,,,,,,,,,,,,,,,0.3414,,0.6,0.4,0.8,0.2,0.6,0.4,0.2,0.8,1,0,,,,,,,,,,,,
,,60e20b0026ccfc52c0877202,66fc988cd1cbeb8e180b820f,2024-10-01_17h58.45.731,mdp,2024.2.1,Win32,60.24096386,66fa4ebf79326e780c390304,,,,,,,,,,,,,,,,,,,,,612.7817,612.7818,612.7877,613.6781,0,1,left,0.3706,,613.6841,614.6606,0,0,left,614.6655,614.668,,1,,1,614.6683,614.6683,614.6708,616.1586,0,32,32,32,1,0.4,0.6,0.6,0.4,,,,,,,,,,,,,,,0.4456,,0.6,0.4,0.8,0.2,0.6,0.4,0.2,0.8,1,0,,,,,,,,,,,,
,,60e20b0026ccfc52c0877202,66fc988cd1cbeb8e180b820f,2024-10-01_17h58.45.731,mdp,2024.2.1,Win32,60.24096386,66fa4ebf79326e780c390304,,,,,,,,,,,,,,,,,,,,,616.1603,616.1605,616.1642,617.2912,0,1,left,0.6038,,617.2973,618.4569,1,1,right,618.4643,618.4666,,1,,0,618.4667,618.4667,618.4695,619.9563,0,33,33,33,1,0.4,0.6,0.6,0.4,,,,,,,,,,,,,,,0.6359,,0.6,0.4,0.8,0.2,0.6,0.4,0.2,0.8,1,0,,,,,,,,,,,,
,,60e20b0026ccfc52c0877202,66fc988cd1cbeb8e180b820f,2024-10-01_17h58.45.731,mdp,2024.2.1,Win32,60.24096386,66fa4ebf79326e780c390304,,,,,,,,,,,,,,,,,,,,,619.9588,619.9588,619.9626,620.7892,0,1,left,0.301,,620.7946,621.6713,1,1,right,621.6773,621.6807,,1,,0,621.6808,621.6809,621.684,623.1734,0,34,34,34,1,0.4,0.6,0.6,0.4,,,,,,,,,,,,,,,0.3565,,0.4,0.6,0.4,0.6,0.6,0.4,0.2,0.8,1,0,,,,,,,,,,,,
,,60e20b0026ccfc52c0877202,66fc988cd1cbeb8e180b820f,2024-10-01_17h58.45.731,mdp,2024.2.1,Win32,60.24096386,66fa4ebf79326e780c390304,,,,,,,,,,,,,,,,,,,,,623.1749,623.1752,623.1796,624.2503,0,1,left,0.55,,624.2543,625.5163,0,1,left,625.5216,625.524,,1,,0,625.5241,625.5241,625.5263,627.0149,0,35,35,35,1,0.4,0.6,0.6,0.4,,,,,,,,,,,,,,,0.7529,,0.4,0.6,0.4,0.6,0.6,0.4,0.2,0.8,1,0,,,,,,,,,,,,
,,60e20b0026ccfc52c0877202,66fc988cd1cbeb8e180b820f,2024-10-01_17h58.45.731,mdp,2024.2.1,Win32,60.24096386,66fa4ebf79326e780c390304,,,,,,,,,,,,,,,,,,,,,627.0165,627.0171,627.0216,627.8644,1,1,right,0.315,,627.87,628.963,0,1,left,628.9682,628.9703,,0,,0,628.9704,628.9705,628.9724,630.4618,0,36,36,36,1,0.4,0.6,0.6,0.4,,,,,,,,,,,,,,,0.5674,,0.4,0.6,0.4,0.6,0.6,0.4,0.2,0.8,1,0,,,,,,,,,,,,
,,60e20b0026ccfc52c0877202,66fc988cd1cbeb8e180b820f,2024-10-01_17h58.45.731,mdp,2024.2.1,Win32,60.24096386,66fa4ebf79326e780c390304,,,,,,,,,,,,,,,,,,,,,630.4645,630.4646,630.4697,631.1279,1,1,right,0.1327,,631.1328,632.3934,1,0,right,632.3989,632.4019,,1,,1,632.402,632.402,632.4042,633.8914,0,37,37,37,1,0.4,0.6,0.6,0.4,,,,,,,,,,,,,,,0.7342,,0.4,0.6,0.4,0.6,0.6,0.4,0.2,0.8,1,0,,,,,,,,,,,,
,,60e20b0026ccfc52c0877202,66fc988cd1cbeb8e180b820f,2024-10-01_17h58.45.731,mdp,2024.2.1,Win32,60.24096386,66fa4ebf79326e780c390304,,,,,,,,,,,,,,,,,,,,,633.8937,633.8937,633.8981,634.8908,1,1,right,0.47,,634.8965,637.0887,1,0,right,637.0946,637.0966,,1,,1,637.0967,637.0967,637.0986,638.5875,0,38,38,38,1,0.4,0.6,0.6,0.4,,,,,,,,,,,,,,,1.671,,0.4,0.6,0.4,0.6,0.6,0.4,0.2,0.8,1,0,,,,,,,,,,,,
,,60e20b0026ccfc52c0877202,66fc988cd1cbeb8e180b820f,2024-10-01_17h58.45.731,mdp,2024.2.1,Win32,60.24096386,66fa4ebf79326e780c390304,,,,,,,,,,,,,,,,,,,,,638.5899,638.59,638.5955,640.1857,1,1,right,1.0695,,640.1918,641.8338,1,1,right,641.8388,641.8415,,0,,0,641.8415,641.8415,641.8437,643.3319,0,39,39,39,1,0.4,0.6,0.6,0.4,,,,,,,,,,,,,,,1.1169,,0.4,0.6,0.4,0.6,0.4,0.6,0.6,0.4,1,0,,,,,,,,,,,,
,,60e20b0026ccfc52c0877202,66fc988cd1cbeb8e180b820f,2024-10-01_17h58.45.731,mdp,2024.2.1,Win32,60.24096386,66fa4ebf79326e780c390304,,,,,,,,,,,,,,,,,,,,,643.3345,643.3346,643.3393,644.2484,0,1,left,0.3849,,644.2529,645.346,0,0,left,645.3488,645.3514,,1,,1,645.3514,645.3514,645.3526,646.8458,0,40,40,40,1,0.4,0.6,0.6,0.4,,,,,,,,,,,,,,,0.5776,,0.4,0.6,0.4,0.6,0.4,0.6,0.6,0.4,1,0,,,,,,,,,,,,
,,60e20b0026ccfc52c0877202,66fc988cd1cbeb8e180b820f,2024-10-01_17h58.45.731,mdp,2024.2.1,Win32,60.24096386,66fa4ebf79326e780c390304,,,,,,,,,,,,,,,,,,,,,646.8476,646.8478,646.8534,648.1278,1,1,right,0.7538,,648.1331,649.7439,0,0,left,649.7494,649.7515,,0,,1,649.7515,649.7516,649.7534,651.2419,0,41,41,41,1,0.4,0.6,0.6,0.4,,,,,,,,,,,,,,,1.0909,,0.4,0.6,0.4,0.6,0.4,0.6,0.6,0.4,1,0,,,,,,,,,,,,
,,60e20b0026ccfc52c0877202,66fc988cd1cbeb8e180b820f,2024-10-01_17h58.45.731,mdp,2024.2.1,Win32,60.24096386,66fa4ebf79326e780c390304,,,,,,,,,,,,,,,,,,,,,651.2438,651.244,651.2479,653.0741,1,0,right,1.2997,,653.0794,654.6901,0,1,left,654.6952,654.6976,,1,,0,654.6978,654.6978,654.7,656.1868,0,42,42,42,1,0.4,0.6,0.6,0.4,,,,,,,,,,,,,,,1.071,,0.4,0.6,0.4,0.6,0.4,0.6,0.6,0.4,1,0,,,,,,,,,,,,
,,60e20b0026ccfc52c0877202,66fc988cd1cbeb8e180b820f,2024-10-01_17h58.45.731,mdp,2024.2.1,Win32,60.24096386,66fa4ebf79326e780c390304,,,,,,,,,,,,,,,,,,,,,656.1889,656.189,656.193,657.2687,1,0,right,0.5456,,657.2718,658.2219,1,0,right,658.2258,658.2281,,1,,1,658.2282,658.2282,658.2304,659.7322,0,43,43,43,1,0.4,0.6,0.6,0.4,,,,,,,,,,,,,,,0.4251,,0.4,0.6,0.4,0.6,0.4,0.6,0.6,0.4,1,0,,,,,,,,,,,,
,,60e20b0026ccfc52c0877202,66fc988cd1cbeb8e180b820f,2024-10-01_17h58.45.731,mdp,2024.2.1,Win32,60.24096386,66fa4ebf79326e780c390304,,,,,,,,,,,,,,,,,,,,,659.733,659.733,659.7363,660.6324,1,0,right,0.3878,,660.638,661.6822,0,0,left,661.688,661.6903,,0,,1,661.6905,661.6905,661.6925,663.1801,0,44,44,44,1,0.4,0.6,0.6,0.4,,,,,,,,,,,,,,,0.5197,,0.4,0.6,0.4,0.6,0.4,0.6,0.6,0.4,1,0,,,,,,,,,,,,
,,60e20b0026ccfc52c0877202,66fc988cd1cbeb8e180b820f,2024-10-01_17h58.45.731,mdp,2024.2.1,Win32,60.24096386,66fa4ebf79326e780c390304,,,,,,,,,,,,,,,,,,,,,663.1822,663.1823,663.1859,664.0461,1,1,right,0.3423,,664.0577,665.7939,0,1,left,665.7999,665.8019,,0,,0,665.8022,665.8023,665.8044,667.2927,0,45,45,45,1,0.4,0.6,0.6,0.4,,,,,,,,,,,,,,,1.2101,,0.4,0.6,0.4,0.6,0.4,0.6,0.6,0.4,1,0,,,,,,,,,,,,
,,60e20b0026ccfc52c0877202,66fc988cd1cbeb8e180b820f,2024-10-01_17h58.45.731,mdp,2024.2.1,Win32,60.24096386,66fa4ebf79326e780c390304,,,,,,,,,,,,,,,,,,,,,667.2939,667.2941,667.2977,668.6757,1,0,right,0.8554,,668.6817,669.741,1,1,right,669.7471,669.7491,,0,,0,669.7491,669.7491,669.7511,671.2391,0,46,46,46,1,0.4,0.6,0.6,0.4,,,,,,,,,,,,,,,0.543,,0.8,0.2,0.8,0.2,0.4,0.6,0.6,0.4,1,0,,,,,,,,,,,,
,,60e20b0026ccfc52c0877202,66fc988cd1cbeb8e180b820f,2024-10-01_17h58.45.731,mdp,2024.2.1,Win32,60.24096386,66fa4ebf79326e780c390304,,,,,,,,,,,,,,,,,,,,,671.2411,671.2411,671.2446,672.2054,0,0,left,0.4416,,672.2114,674.3016,0,0,left,674.3048,674.306,,1,,1,674.3061,674.3061,674.3069,675.8033,0,47,47,47,1,0.4,0.6,0.6,0.4,,,,,,,,,,,,,,,1.5637,,0.8,0.2,0.8,0.2,0.4,0.6,0.6,0.4,1,0,,,,,,,,,,,,
,,60e20b0026ccfc52c0877202,66fc988cd1cbeb8e180b820f,2024-10-01_17h58.45.731,mdp,2024.2.1,Win32,60.24096386,66fa4ebf79326e780c390304,,,,,,,,,,,,,,,,,,,,,675.8054,675.8055,675.8105,676.7173,1,0,right,0.3846,,676.722,677.9327,0,0,left,677.9378,677.9397,,0,,1,677.9398,677.9398,677.9416,679.4306,0,48,48,48,1,0.4,0.6,0.6,0.4,,,,,,,,,,,,,,,0.6847,,0.8,0.2,0.8,0.2,0.4,0.6,0.6,0.4,1,0,,,,,,,,,,,,
,,60e20b0026ccfc52c0877202,66fc988cd1cbeb8e180b820f,2024-10-01_17h58.45.731,mdp,2024.2.1,Win32,60.24096386,66fa4ebf79326e780c390304,,,,,,,,,,,,,,,,,,,,,679.4328,679.4329,679.4367,682.6117,1,0,right,2.6488,,682.6681,684.0427,1,0,right,684.0487,684.051,,0,,1,684.0511,684.0512,684.0534,685.541,0,49,49,49,1,0.4,0.6,0.6,0.4,,,,,,,,,,,,,,,0.9045,,0.8,0.2,0.8,0.2,0.4,0.6,0.6,0.4,1,0,,,,,,,,,,,,
,,60e20b0026ccfc52c0877202,66fc988cd1cbeb8e180b820f,2024-10-01_17h58.45.731,mdp,2024.2.1,Win32,60.24096386,66fa4ebf79326e780c390304,,,,,,,,,,,,,,,,,,,,,,,,,,,,,,,,,,,,,,,,,,,,,,,,,,,,,,,,685.5414,744.0678,0,1,1,3,1,imgs/squirrel.png,imgs/lion.png,imgs/pig.png,imgs/bear.png,imgs/dog.png,,,,,,,,,,,,,,,,,,,,,,,,
,,60e20b0026ccfc52c0877202,66fc988cd1cbeb8e180b820f,2024-10-01_17h58.45.731,mdp,2024.2.1,Win32,60.24096386,66fa4ebf79326e780c390304,,,,,,,,,,,,,,3,seqs/st3seq13.csv,744.1138,746.3816,space,1.7552,,746.4174,746.4174,746.4202,750.8771,1,1,right,3.9083,,750.9251,751.976,0,1,left,751.9805,754.4911,1,0,right,1,754.4913,754.4914,754.5247,755.9886,0,0,0,0,1,0.2,0.8,0.2,0.8,,,,,,,,,,,,,,,0.5526,,0.8,0.2,0.8,0.2,0.6,0.4,0.2,0.8,,,1.9619,,0.2,0.8,0.2,0.8,0.8,0.2,0.6,0.4,1,0
,,60e20b0026ccfc52c0877202,66fc988cd1cbeb8e180b820f,2024-10-01_17h58.45.731,mdp,2024.2.1,Win32,60.24096386,66fa4ebf79326e780c390304,,,,,,,,,,,,,,,,,,,,,755.9917,755.9919,755.9962,760.5044,0,1,left,3.9807,,760.5585,762.3835,0,0,left,762.3897,764.3468,1,1,right,0,764.3473,764.3473,764.3512,765.8454,0,1,1,1,1,0.2,0.8,0.2,0.8,,,,,,,,,,,,,,,1.3493,,0.8,0.2,0.8,0.2,0.6,0.4,0.2,0.8,,,1.3935,,0.2,0.8,0.2,0.8,0.8,0.2,0.6,0.4,1,0
,,60e20b0026ccfc52c0877202,66fc988cd1cbeb8e180b820f,2024-10-01_17h58.45.731,mdp,2024.2.1,Win32,60.24096386,66fa4ebf79326e780c390304,,,,,,,,,,,,,,,,,,,,,765.8485,765.8486,765.8541,767.6774,1,1,right,1.3027,,767.683,768.627,0,1,left,768.6324,770.0084,1,1,right,0,770.0085,770.0085,770.0133,771.5073,0,2,2,2,1,0.2,0.8,0.2,0.8,,,,,,,,,,,,,,,0.4161,,0.8,0.2,0.8,0.2,0.6,0.4,0.2,0.8,,,0.847,,0.2,0.8,0.2,0.8,0.8,0.2,0.6,0.4,1,0
,,60e20b0026ccfc52c0877202,66fc988cd1cbeb8e180b820f,2024-10-01_17h58.45.731,mdp,2024.2.1,Win32,60.24096386,66fa4ebf79326e780c390304,,,,,,,,,,,,,,,,,,,,,771.5099,771.5099,771.5144,772.8235,0,0,left,0.7901,,772.8283,773.739,1,1,right,773.7449,774.6883,0,0,left,1,774.6886,774.6887,774.6939,776.1864,0,3,3,3,1,0.2,0.8,0.2,0.8,,,,,,,,,,,,,,,0.3641,,0.8,0.2,0.8,0.2,0.6,0.4,0.2,0.8,,,0.4349,,0.4,0.6,0.6,0.4,0.8,0.2,0.6,0.4,1,0
,,60e20b0026ccfc52c0877202,66fc988cd1cbeb8e180b820f,2024-10-01_17h58.45.731,mdp,2024.2.1,Win32,60.24096386,66fa4ebf79326e780c390304,,,,,,,,,,,,,,,,,,,,,776.1889,776.1889,776.1942,778.4345,0,1,left,1.7177,,778.4399,780.2987,0,0,left,780.3043,781.3815,0,1,left,0,781.3823,781.3823,781.3868,782.88,0,4,4,4,1,0.2,0.8,0.2,0.8,,,,,,,,,,,,,,,1.3191,,0.8,0.2,0.8,0.2,0.6,0.4,0.2,0.8,,,0.5391,,0.4,0.6,0.6,0.4,0.8,0.2,0.6,0.4,1,0
,,60e20b0026ccfc52c0877202,66fc988cd1cbeb8e180b820f,2024-10-01_17h58.45.731,mdp,2024.2.1,Win32,60.24096386,66fa4ebf79326e780c390304,,,,,,,,,,,,,,,,,,,,,782.8824,782.8824,782.8863,783.9953,1,0,right,0.5883,,784.0004,784.8782,0,1,left,784.8833,786.2461,1,1,right,0,786.2467,786.2467,786.25,787.7433,0,5,5,5,1,0.2,0.8,0.2,0.8,,,,,,,,,,,,,,,0.3369,,0.8,0.2,0.8,0.2,0.6,0.4,0.2,0.8,,,0.826,,0.4,0.6,0.6,0.4,0.8,0.2,0.6,0.4,1,0
,,60e20b0026ccfc52c0877202,66fc988cd1cbeb8e180b820f,2024-10-01_17h58.45.731,mdp,2024.2.1,Win32,60.24096386,66fa4ebf79326e780c390304,,,,,,,,,,,,,,,,,,,,,787.7463,787.7463,787.7493,792.4245,0,1,left,4.155,,792.4722,793.3186,1,1,right,793.3246,794.8343,1,1,right,0,794.8346,794.8347,794.8401,796.3332,0,6,6,6,1,0.2,0.8,0.2,0.8,,,,,,,,,,,,,,,0.3621,,0.8,0.2,0.8,0.2,0.6,0.4,0.2,0.8,,,0.9825,,0.6,0.4,0.2,0.8,0.8,0.2,0.6,0.4,1,0
,,60e20b0026ccfc52c0877202,66fc988cd1cbeb8e180b820f,2024-10-01_17h58.45.731,mdp,2024.2.1,Win32,60.24096386,66fa4ebf79326e780c390304,,,,,,,,,,,,,,,,,,,,,796.3353,796.3354,796.3396,797.2825,0,1,left,0.4179,,797.2885,798.2803,1,1,right,798.2837,799.2469,0,0,left,1,799.2471,799.2472,799.2543,800.7459,0,7,7,7,1,0.2,0.8,0.2,0.8,,,,,,,,,,,,,,,0.469,,0.8,0.2,0.8,0.2,0.6,0.4,0.2,0.8,,,0.4365,,0.6,0.4,0.2,0.8,0.8,0.2,0.6,0.4,1,0
,,60e20b0026ccfc52c0877202,66fc988cd1cbeb8e180b820f,2024-10-01_17h58.45.731,mdp,2024.2.1,Win32,60.24096386,66fa4ebf79326e780c390304,,,,,,,,,,,,,,,,,,,,,800.7479,800.7479,800.7519,802.279,0,1,left,1.0086,,802.2839,803.2307,1,1,right,803.2333,804.0764,0,1,left,0,804.0767,804.0768,804.0818,805.5737,0,8,8,8,1,0.2,0.8,0.2,0.8,,,,,,,,,,,,,,,0.4236,,0.8,0.2,0.8,0.2,0.6,0.4,0.2,0.8,,,0.3149,,0.6,0.4,0.2,0.8,0.8,0.2,0.6,0.4,1,0
,,60e20b0026ccfc52c0877202,66fc988cd1cbeb8e180b820f,2024-10-01_17h58.45.731,mdp,2024.2.1,Win32,60.24096386,66fa4ebf79326e780c390304,,,,,,,,,,,,,,,,,,,,,805.5764,805.5765,805.5812,806.4572,0,1,left,0.3552,,806.4629,807.2055,1,1,right,807.2112,808.0434,0,1,left,0,808.0437,808.0438,808.0476,809.5372,0,9,9,9,1,0.2,0.8,0.2,0.8,,,,,,,,,,,,,,,0.2188,,0.8,0.2,0.8,0.2,0.6,0.4,0.2,0.8,,,0.3109,,0.6,0.4,0.2,0.8,0.8,0.2,0.6,0.4,1,0
,,60e20b0026ccfc52c0877202,66fc988cd1cbeb8e180b820f,2024-10-01_17h58.45.731,mdp,2024.2.1,Win32,60.24096386,66fa4ebf79326e780c390304,,,,,,,,,,,,,,,,,,,,,809.5391,809.5391,809.5424,810.5525,1,1,right,0.4857,,810.5575,811.5404,0,1,left,811.5433,812.3849,1,0,right,1,812.3852,812.3852,812.3894,813.8817,0,10,10,10,1,0.2,0.8,0.2,0.8,,,,,,,,,,,,,,,0.4633,,0.8,0.2,0.8,0.2,0.6,0.4,0.2,0.8,,,0.3182,,0.6,0.4,0.2,0.8,0.8,0.2,0.6,0.4,1,0
,,60e20b0026ccfc52c0877202,66fc988cd1cbeb8e180b820f,2024-10-01_17h58.45.731,mdp,2024.2.1,Win32,60.24096386,66fa4ebf79326e780c390304,,,,,,,,,,,,,,,,,,,,,813.883,813.883,813.8862,815.314,1,1,right,0.8987,,815.3176,816.4632,1,1,right,816.4687,817.3794,0,0,left,1,817.3796,817.3796,817.3831,818.8773,0,11,11,11,1,0.2,0.8,0.2,0.8,,,,,,,,,,,,,,,0.6184,,0.8,0.2,0.8,0.2,0.6,0.4,0.2,0.8,,,0.3826,,0.6,0.4,0.2,0.8,0.8,0.2,0.6,0.4,1,0
,,60e20b0026ccfc52c0877202,66fc988cd1cbeb8e180b820f,2024-10-01_17h58.45.731,mdp,2024.2.1,Win32,60.24096386,66fa4ebf79326e780c390304,,,,,,,,,,,,,,,,,,,,,818.8793,818.8794,818.8836,819.5276,1,1,right,0.1167,,819.5327,821.0428,0,1,left,821.0476,821.8421,1,0,right,1,821.843,821.843,821.8478,823.3396,0,12,12,12,1,0.2,0.8,0.2,0.8,,,,,,,,,,,,,,,0.9867,,0.8,0.2,0.8,0.2,0.6,0.4,0.2,0.8,,,0.2683,,0.6,0.4,0.2,0.8,0.8,0.2,0.6,0.4,1,0
,,60e20b0026ccfc52c0877202,66fc988cd1cbeb8e180b820f,2024-10-01_17h58.45.731,mdp,2024.2.1,Win32,60.24096386,66fa4ebf79326e780c390304,,,,,,,,,,,,,,,,,,,,,823.3419,823.342,823.3467,824.6558,0,1,left,0.7825,,824.6611,825.6713,0,0,left,825.6762,826.822,0,1,left,0,826.8233,826.8234,826.8266,828.3175,0,13,13,13,1,0.2,0.8,0.2,0.8,,,,,,,,,,,,,,,0.4887,,0.8,0.2,0.8,0.2,0.6,0.4,0.2,0.8,,,0.6074,,0.6,0.4,0.2,0.8,0.8,0.2,0.6,0.4,1,0
,,60e20b0026ccfc52c0877202,66fc988cd1cbeb8e180b820f,2024-10-01_17h58.45.731,mdp,2024.2.1,Win32,60.24096386,66fa4ebf79326e780c390304,,,,,,,,,,,,,,,,,,,,,828.3184,828.3185,828.3212,829.5008,1,0,right,0.6532,,829.5062,830.8315,1,0,right,830.8346,831.8485,1,1,right,0,831.8488,831.8489,831.8543,833.3472,0,14,14,14,1,0.2,0.8,0.2,0.8,,,,,,,,,,,,,,,0.799,,0.4,0.6,0.4,0.6,0.6,0.4,0.2,0.8,,,0.5006,,0.6,0.4,0.2,0.8,0.8,0.2,0.6,0.4,1,0
,,60e20b0026ccfc52c0877202,66fc988cd1cbeb8e180b820f,2024-10-01_17h58.45.731,mdp,2024.2.1,Win32,60.24096386,66fa4ebf79326e780c390304,,,,,,,,,,,,,,,,,,,,,833.3494,833.3494,833.3527,834.3292,1,1,right,0.456,,834.3356,835.1641,0,1,left,835.1696,836.0608,1,0,right,1,836.0611,836.0612,836.0657,837.5592,0,15,15,15,1,0.2,0.8,0.2,0.8,,,,,,,,,,,,,,,0.2913,,0.4,0.6,0.4,0.6,0.6,0.4,0.2,0.8,,,0.3599,,0.6,0.4,0.2,0.8,0.8,0.2,0.6,0.4,1,0
,,60e20b0026ccfc52c0877202,66fc988cd1cbeb8e180b820f,2024-10-01_17h58.45.731,mdp,2024.2.1,Win32,60.24096386,66fa4ebf79326e780c390304,,,,,,,,,,,,,,,,,,,,,837.5618,837.5619,837.566,838.7789,1,1,right,0.6959,,838.7828,839.7076,0,0,left,839.7138,840.4387,0,1,left,0,840.4388,840.4389,840.4409,841.9385,0,16,16,16,1,0.2,0.8,0.2,0.8,,,,,,,,,,,,,,,0.408,,0.4,0.6,0.4,0.6,0.6,0.4,0.2,0.8,,,0.1881,,0.6,0.4,0.2,0.8,0.8,0.2,0.6,0.4,1,0
,,60e20b0026ccfc52c0877202,66fc988cd1cbeb8e180b820f,2024-10-01_17h58.45.731,mdp,2024.2.1,Win32,60.24096386,66fa4ebf79326e780c390304,,,,,,,,,,,,,,,,,,,,,841.9419,841.9421,841.9461,842.6361,0,1,left,0.1741,,842.6397,843.5706,0,0,left,843.575,844.4232,1,1,right,0,844.4237,844.4237,844.4269,845.9182,0,17,17,17,1,0.2,0.8,0.2,0.8,,,,,,,,,,,,,,,0.4201,,0.4,0.6,0.4,0.6,0.6,0.4,0.2,0.8,,,0.3261,,0.6,0.4,0.2,0.8,0.8,0.2,0.6,0.4,1,0
,,60e20b0026ccfc52c0877202,66fc988cd1cbeb8e180b820f,2024-10-01_17h58.45.731,mdp,2024.2.1,Win32,60.24096386,66fa4ebf79326e780c390304,,,,,,,,,,,,,,,,,,,,,845.9202,845.9202,845.9251,846.4843,0,0,left,0.0377,,846.4906,847.4834,0,1,left,847.4892,848.083,0,1,left,0,848.0833,848.0834,848.089,849.5815,0,18,18,18,1,0.2,0.8,0.2,0.8,,,,,,,,,,,,,,,0.4541,,0.4,0.6,0.4,0.6,0.6,0.4,0.2,0.8,,,0.0582,,0.6,0.4,0.2,0.8,0.8,0.2,0.6,0.4,1,0
,,60e20b0026ccfc52c0877202,66fc988cd1cbeb8e180b820f,2024-10-01_17h58.45.731,mdp,2024.2.1,Win32,60.24096386,66fa4ebf79326e780c390304,,,,,,,,,,,,,,,,,,,,,849.5844,849.5844,849.5886,851.2296,1,1,right,1.1168,,851.2359,852.1272,0,0,left,852.129,852.8444,1,0,right,1,852.8448,852.8449,852.8516,854.3431,0,19,19,19,1,0.2,0.8,0.2,0.8,,,,,,,,,,,,,,,0.3604,,0.4,0.6,0.4,0.6,0.6,0.4,0.2,0.8,,,0.1723,,0.4,0.6,0.8,0.2,0.8,0.2,0.6,0.4,1,0
,,60e20b0026ccfc52c0877202,66fc988cd1cbeb8e180b820f,2024-10-01_17h58.45.731,mdp,2024.2.1,Win32,60.24096386,66fa4ebf79326e780c390304,,,,,,,,,,,,,,,,,,,,,854.3457,854.3457,854.3509,854.9473,0,1,left,0.0698,,854.9513,855.7752,1,1,right,855.7814,856.641,0,0,left,1,856.6415,856.6416,856.6466,858.1393,0,20,20,20,1,0.2,0.8,0.2,0.8,,,,,,,,,,,,,,,0.3027,,0.4,0.6,0.4,0.6,0.6,0.4,0.2,0.8,,,0.3223,,0.4,0.6,0.8,0.2,0.8,0.2,0.6,0.4,1,0
,,60e20b0026ccfc52c0877202,66fc988cd1cbeb8e180b820f,2024-10-01_17h58.45.731,mdp,2024.2.1,Win32,60.24096386,66fa4ebf79326e780c390304,,,,,,,,,,,,,,,,,,,,,858.1416,858.1416,858.1457,858.722,1,0,right,0.0514,,858.7285,859.6712,1,0,right,859.6767,860.2856,0,1,left,0,860.2858,860.2859,860.2888,861.7857,0,21,21,21,1,0.2,0.8,0.2,0.8,,,,,,,,,,,,,,,0.4038,,0.4,0.6,0.4,0.6,0.6,0.4,0.2,0.8,,,0.0683,,0.4,0.6,0.8,0.2,0.8,0.2,0.6,0.4,1,0
,,60e20b0026ccfc52c0877202,66fc988cd1cbeb8e180b820f,2024-10-01_17h58.45.731,mdp,2024.2.1,Win32,60.24096386,66fa4ebf79326e780c390304,,,,,,,,,,,,,,,,,,,,,861.7891,861.7892,861.7924,862.8519,0,1,left,0.5368,,862.8576,863.7887,0,0,left,863.7931,864.7329,1,1,right,0,864.7333,864.7337,864.7385,866.2315,0,22,22,22,1,0.2,0.8,0.2,0.8,,,,,,,,,,,,,,,0.3919,,0.4,0.6,0.4,0.6,0.6,0.4,0.2,0.8,,,0.4206,,0.4,0.6,0.8,0.2,0.8,0.2,0.6,0.4,1,0
,,60e20b0026ccfc52c0877202,66fc988cd1cbeb8e180b820f,2024-10-01_17h58.45.731,mdp,2024.2.1,Win32,60.24096386,66fa4ebf79326e780c390304,,,,,,,,,,,,,,,,,,,,,866.2337,866.2337,866.2394,867.3139,0,0,left,0.5533,,867.3202,867.8689,1,0,right,867.8723,868.4958,0,1,left,0,868.4963,868.4963,868.5018,869.9944,0,23,23,23,1,0.2,0.8,0.2,0.8,,,,,,,,,,,,,,,0.012,,0.4,0.6,0.4,0.6,0.6,0.4,0.2,0.8,,,0.1044,,0.2,0.8,0.4,0.6,0.8,0.2,0.6,0.4,1,0
,,60e20b0026ccfc52c0877202,66fc988cd1cbeb8e180b820f,2024-10-01_17h58.45.731,mdp,2024.2.1,Win32,60.24096386,66fa4ebf79326e780c390304,,,,,,,,,,,,,,,,,,,,,869.9968,869.997,870.0012,870.8434,0,1,left,0.3217,,870.8504,871.7778,0,0,left,871.7839,872.6254,1,0,right,1,872.6258,872.6258,872.6313,874.1232,0,24,24,24,1,0.2,0.8,0.2,0.8,,,,,,,,,,,,,,,0.4072,,0.4,0.6,0.4,0.6,0.6,0.4,0.2,0.8,,,0.3206,,0.4,0.6,0.6,0.4,0.8,0.2,0.6,0.4,1,0
,,60e20b0026ccfc52c0877202,66fc988cd1cbeb8e180b820f,2024-10-01_17h58.45.731,mdp,2024.2.1,Win32,60.24096386,66fa4ebf79326e780c390304,,,,,,,,,,,,,,,,,,,,,874.1264,874.1265,874.1311,875.0064,0,1,left,0.3576,,875.0124,876.0388,1,0,right,876.0439,877.0211,0,0,left,1,877.0215,877.0215,877.0277,878.5195,0,25,25,25,1,0.2,0.8,0.2,0.8,,,,,,,,,,,,,,,0.5061,,0.4,0.6,0.4,0.6,0.6,0.4,0.2,0.8,,,0.4559,,0.4,0.6,0.6,0.4,0.8,0.2,0.6,0.4,1,0
,,60e20b0026ccfc52c0877202,66fc988cd1cbeb8e180b820f,2024-10-01_17h58.45.731,mdp,2024.2.1,Win32,60.24096386,66fa4ebf79326e780c390304,,,,,,,,,,,,,,,,,,,,,878.5218,878.5219,878.526,879.1343,0,1,left,0.0843,,879.138,879.9833,1,1,right,879.9864,881.0677,1,0,right,1,881.0678,881.0678,881.0711,882.5636,0,26,26,26,1,0.2,0.8,0.2,0.8,,,,,,,,,,,,,,,0.3215,,0.4,0.6,0.4,0.6,0.6,0.4,0.2,0.8,,,0.5517,,0.4,0.6,0.6,0.4,0.8,0.2,0.6,0.4,1,0
,,60e20b0026ccfc52c0877202,66fc988cd1cbeb8e180b820f,2024-10-01_17h58.45.731,mdp,2024.2.1,Win32,60.24096386,66fa4ebf79326e780c390304,,,,,,,,,,,,,,,,,,,,,882.5644,882.5644,882.567,883.7309,0,1,left,0.6356,,883.7375,884.6119,1,1,right,884.6148,885.7126,1,1,right,0,885.7128,885.7129,885.7186,887.2109,0,27,27,27,1,0.2,0.8,0.2,0.8,,,,,,,,,,,,,,,0.3507,,0.4,0.6,0.4,0.6,0.6,0.4,0.2,0.8,,,0.5714,,0.4,0.6,0.6,0.4,0.8,0.2,0.6,0.4,1,0
,,60e20b0026ccfc52c0877202,66fc988cd1cbeb8e180b820f,2024-10-01_17h58.45.731,mdp,2024.2.1,Win32,60.24096386,66fa4ebf79326e780c390304,,,,,,,,,,,,,,,,,,,,,887.213,887.2131,887.217,888.0137,0,1,left,0.2774,,888.0163,889.5422,0,0,left,889.5477,890.6074,0,0,left,1,890.608,890.6081,890.6132,892.1059,0,28,28,28,1,0.2,0.8,0.2,0.8,,,,,,,,,,,,,,,1.0018,,0.4,0.6,0.4,0.6,0.6,0.4,0.2,0.8,,,0.5354,,0.4,0.6,0.6,0.4,0.8,0.2,0.6,0.4,1,0
,,60e20b0026ccfc52c0877202,66fc988cd1cbeb8e180b820f,2024-10-01_17h58.45.731,mdp,2024.2.1,Win32,60.24096386,66fa4ebf79326e780c390304,,,,,,,,,,,,,,,,,,,,,892.108,892.1081,892.1113,893.2922,0,0,left,0.6569,,893.2956,893.9079,1,1,right,893.9121,894.9038,0,0,left,1,894.904,894.904,894.9097,896.401,0,29,29,29,1,0.2,0.8,0.2,0.8,,,,,,,,,,,,,,,0.0783,,0.4,0.6,0.4,0.6,0.6,0.4,0.2,0.8,,,0.4523,,0.4,0.6,0.6,0.4,0.8,0.2,0.6,0.4,1,0
,,60e20b0026ccfc52c0877202,66fc988cd1cbeb8e180b820f,2024-10-01_17h58.45.731,mdp,2024.2.1,Win32,60.24096386,66fa4ebf79326e780c390304,,,,,,,,,,,,,,,,,,,,,896.4029,896.403,896.4055,897.7343,1,1,right,0.8016,,897.7402,898.733,0,0,left,898.7401,899.7323,1,0,right,1,899.7331,899.7331,899.7381,901.2302,0,30,30,30,1,0.2,0.8,0.2,0.8,,,,,,,,,,,,,,,0.4527,,0.4,0.6,0.4,0.6,0.6,0.4,0.2,0.8,,,0.4546,,0.8,0.2,0.4,0.6,0.8,0.2,0.6,0.4,1,0
,,60e20b0026ccfc52c0877202,66fc988cd1cbeb8e180b820f,2024-10-01_17h58.45.731,mdp,2024.2.1,Win32,60.24096386,66fa4ebf79326e780c390304,,,,,,,,,,,,,,,,,,,,,901.2325,901.2326,901.2368,902.1965,0,1,left,0.4347,,902.2037,902.9626,1,1,right,902.969,903.8117,0,0,left,1,903.8119,903.8124,903.8172,905.3111,0,31,31,31,1,0.2,0.8,0.2,0.8,,,,,,,,,,,,,,,0.2361,,0.4,0.6,0.4,0.6,0.6,0.4,0.2,0.8,,,0.3044,,0.8,0.2,0.4,0.6,0.8,0.2,0.6,0.4,1,0
,,60e20b0026ccfc52c0877202,66fc988cd1cbeb8e180b820f,2024-10-01_17h58.45.731,mdp,2024.2.1,Win32,60.24096386,66fa4ebf79326e780c390304,,,,,,,,,,,,,,,,,,,,,905.3137,905.3138,905.3155,906.4256,1,1,right,0.5887,,906.4313,907.108,0,1,left,907.1133,907.8744,1,0,right,1,907.875,907.8751,907.8803,909.3714,0,32,32,32,1,0.2,0.8,0.2,0.8,,,,,,,,,,,,,,,0.1534,,0.4,0.6,0.4,0.6,0.2,0.8,0.8,0.2,,,0.2356,,0.8,0.2,0.4,0.6,0.8,0.2,0.6,0.4,1,0
,,60e20b0026ccfc52c0877202,66fc988cd1cbeb8e180b820f,2024-10-01_17h58.45.731,mdp,2024.2.1,Win32,60.24096386,66fa4ebf79326e780c390304,,,,,,,,,,,,,,,,,,,,,909.3726,909.3728,909.3763,910.3098,1,1,right,0.4031,,910.3127,911.2376,0,1,left,911.2436,912.0851,0,0,left,1,912.0853,912.0853,912.0885,913.5839,0,33,33,33,1,0.2,0.8,0.2,0.8,,,,,,,,,,,,,,,0.4064,,0.4,0.6,0.4,0.6,0.2,0.8,0.8,0.2,,,0.3162,,0.8,0.2,0.4,0.6,0.8,0.2,0.6,0.4,1,0
,,60e20b0026ccfc52c0877202,66fc988cd1cbeb8e180b820f,2024-10-01_17h58.45.731,mdp,2024.2.1,Win32,60.24096386,66fa4ebf79326e780c390304,,,,,,,,,,,,,,,,,,,,,913.5847,913.5847,913.588,914.6227,1,1,right,0.5135,,914.6257,915.6834,1,0,right,915.6891,916.732,0,0,left,1,916.7324,916.7324,916.7387,918.2309,0,34,34,34,1,0.2,0.8,0.2,0.8,,,,,,,,,,,,,,,0.5344,,0.4,0.6,0.4,0.6,0.2,0.8,0.8,0.2,,,0.4992,,0.6,0.4,0.8,0.2,0.8,0.2,0.6,0.4,1,0
,,60e20b0026ccfc52c0877202,66fc988cd1cbeb8e180b820f,2024-10-01_17h58.45.731,mdp,2024.2.1,Win32,60.24096386,66fa4ebf79326e780c390304,,,,,,,,,,,,,,,,,,,,,918.233,918.2331,918.2373,918.9969,1,1,right,0.2368,,919.0026,920.1123,0,1,left,920.118,921.1114,1,0,right,1,921.1123,921.1125,921.1181,922.6097,0,35,35,35,1,0.2,0.8,0.2,0.8,,,,,,,,,,,,,,,0.5849,,0.4,0.6,0.4,0.6,0.2,0.8,0.8,0.2,,,0.454,,0.6,0.4,0.8,0.2,0.8,0.2,0.6,0.4,1,0
,,60e20b0026ccfc52c0877202,66fc988cd1cbeb8e180b820f,2024-10-01_17h58.45.731,mdp,2024.2.1,Win32,60.24096386,66fa4ebf79326e780c390304,,,,,,,,,,,,,,,,,,,,,922.6121,922.6121,922.6162,923.7079,0,0,left,0.567,,923.7129,924.8079,0,0,left,924.8127,925.6396,1,0,right,1,925.6401,925.6401,925.6457,927.1387,0,36,36,36,1,0.2,0.8,0.2,0.8,,,,,,,,,,,,,,,0.5526,,0.4,0.6,0.4,0.6,0.2,0.8,0.8,0.2,,,0.2991,,0.6,0.4,0.8,0.2,0.8,0.2,0.6,0.4,1,0
,,60e20b0026ccfc52c0877202,66fc988cd1cbeb8e180b820f,2024-10-01_17h58.45.731,mdp,2024.2.1,Win32,60.24096386,66fa4ebf79326e780c390304,,,,,,,,,,,,,,,,,,,,,927.1408,927.1409,927.1451,927.8549,0,1,left,0.1851,,927.86,929.2523,0,0,left,929.2559,930.1028,1,0,right,1,930.1033,930.1035,930.1083,931.6008,0,37,37,37,1,0.2,0.8,0.2,0.8,,,,,,,,,,,,,,,0.8496,,0.4,0.6,0.4,0.6,0.2,0.8,0.8,0.2,,,0.335,,0.6,0.4,0.8,0.2,0.8,0.2,0.6,0.4,1,0
,,60e20b0026ccfc52c0877202,66fc988cd1cbeb8e180b820f,2024-10-01_17h58.45.731,mdp,2024.2.1,Win32,60.24096386,66fa4ebf79326e780c390304,,,,,,,,,,,,,,,,,,,,,931.6029,931.603,931.6065,932.4487,0,1,left,0.3173,,932.4526,933.3325,0,1,left,933.3383,936.9716,1,0,right,1,936.9718,936.9718,937.0186,938.4772,0,38,38,38,1,0.2,0.8,0.2,0.8,,,,,,,,,,,,,,,0.3556,,0.4,0.6,0.4,0.6,0.2,0.8,0.8,0.2,,,3.0996,0.0003,0.6,0.4,0.8,0.2,0.8,0.2,0.6,0.4,1,0
,,60e20b0026ccfc52c0877202,66fc988cd1cbeb8e180b820f,2024-10-01_17h58.45.731,mdp,2024.2.1,Win32,60.24096386,66fa4ebf79326e780c390304,,,,,,,,,,,,,,,,,,,,,938.4805,938.4806,938.4853,939.6257,1,0,right,0.621,,939.6319,941.6569,0,1,left,941.6629,942.4738,0,0,left,1,942.4741,942.4741,942.4803,943.9711,0,39,39,39,1,0.2,0.8,0.2,0.8,,,,,,,,,,,,,,,1.4847,,0.6,0.4,0.2,0.8,0.2,0.8,0.8,0.2,,,0.2899,,0.6,0.4,0.8,0.2,0.8,0.2,0.6,0.4,1,0
,,60e20b0026ccfc52c0877202,66fc988cd1cbeb8e180b820f,2024-10-01_17h58.45.731,mdp,2024.2.1,Win32,60.24096386,66fa4ebf79326e780c390304,,,,,,,,,,,,,,,,,,,,,943.9743,943.9745,943.979,946.4018,0,1,left,1.8985,,946.4068,947.2015,1,0,right,947.2066,948.6173,0,0,left,1,948.6179,948.618,948.623,950.115,0,40,40,40,1,0.2,0.8,0.2,0.8,,,,,,,,,,,,,,,0.2521,,0.6,0.4,0.2,0.8,0.2,0.8,0.8,0.2,,,0.8682,,0.6,0.4,0.8,0.2,0.8,0.2,0.6,0.4,1,0
,,60e20b0026ccfc52c0877202,66fc988cd1cbeb8e180b820f,2024-10-01_17h58.45.731,mdp,2024.2.1,Win32,60.24096386,66fa4ebf79326e780c390304,,,,,,,,,,,,,,,,,,,,,950.1187,950.1187,950.1227,951.2329,1,1,right,0.5892,,951.2376,952.8462,0,1,left,952.8532,953.6947,1,1,right,0,953.6949,953.695,953.7009,955.1937,0,41,41,41,1,0.2,0.8,0.2,0.8,,,,,,,,,,,,,,,1.0844,,0.6,0.4,0.2,0.8,0.2,0.8,0.8,0.2,,,0.3166,,0.6,0.4,0.8,0.2,0.8,0.2,0.6,0.4,1,0
,,60e20b0026ccfc52c0877202,66fc988cd1cbeb8e180b820f,2024-10-01_17h58.45.731,mdp,2024.2.1,Win32,60.24096386,66fa4ebf79326e780c390304,,,,,,,,,,,,,,,,,,,,,955.1966,955.1967,955.2013,956.0428,1,0,right,0.3193,,956.048,957.2417,0,1,left,957.2476,958.0412,0,0,left,1,958.0416,958.0418,958.0477,959.538,0,42,42,42,1,0.2,0.8,0.2,0.8,,,,,,,,,,,,,,,0.6565,,0.6,0.4,0.2,0.8,0.2,0.8,0.8,0.2,,,0.271,,0.6,0.4,0.8,0.2,0.8,0.2,0.6,0.4,1,0
,,60e20b0026ccfc52c0877202,66fc988cd1cbeb8e180b820f,2024-10-01_17h58.45.731,mdp,2024.2.1,Win32,60.24096386,66fa4ebf79326e780c390304,,,,,,,,,,,,,,,,,,,,,959.539,959.539,959.5421,960.6382,1,1,right,0.5783,,960.6435,961.421,1,0,right,961.4265,962.2367,0,0,left,1,962.237,962.237,962.2434,963.7349,0,43,43,43,1,0.2,0.8,0.2,0.8,,,,,,,,,,,,,,,0.2353,,0.6,0.4,0.2,0.8,0.2,0.8,0.8,0.2,,,0.275,,0.6,0.4,0.8,0.2,0.8,0.2,0.6,0.4,1,0
,,60e20b0026ccfc52c0877202,66fc988cd1cbeb8e180b820f,2024-10-01_17h58.45.731,mdp,2024.2.1,Win32,60.24096386,66fa4ebf79326e780c390304,,,,,,,,,,,,,,,,,,,,,963.7377,963.7378,963.7424,964.8338,1,1,right,0.5746,,964.839,965.9333,0,1,left,965.9394,966.7159,0,0,left,1,966.7163,966.7164,966.7222,968.215,0,44,44,44,1,0.2,0.8,0.2,0.8,,,,,,,,,,,,,,,0.5712,,0.6,0.4,0.2,0.8,0.2,0.8,0.8,0.2,,,0.2466,,0.6,0.4,0.8,0.2,0.8,0.2,0.6,0.4,1,0
,,60e20b0026ccfc52c0877202,66fc988cd1cbeb8e180b820f,2024-10-01_17h58.45.731,mdp,2024.2.1,Win32,60.24096386,66fa4ebf79326e780c390304,,,,,,,,,,,,,,,,,,,,,968.2183,968.2185,968.2233,969.3963,0,1,left,0.6569,,969.4019,970.2444,1,1,right,970.2479,970.9937,1,0,right,1,970.9938,970.9938,970.9966,972.4931,0,45,45,45,1,0.2,0.8,0.2,0.8,,,,,,,,,,,,,,,0.3167,,0.6,0.4,0.2,0.8,0.2,0.8,0.8,0.2,,,0.2394,,0.6,0.4,0.8,0.2,0.8,0.2,0.6,0.4,1,0
,,60e20b0026ccfc52c0877202,66fc988cd1cbeb8e180b820f,2024-10-01_17h58.45.731,mdp,2024.2.1,Win32,60.24096386,66fa4ebf79326e780c390304,,,,,,,,,,,,,,,,,,,,,972.496,972.4961,972.5016,973.6424,0,0,left,0.6189,,973.6489,974.5081,1,0,right,974.5146,975.3563,1,0,right,1,975.3565,975.3566,975.3595,976.8555,0,46,46,46,1,0.2,0.8,0.2,0.8,,,,,,,,,,,,,,,0.3168,,0.6,0.4,0.2,0.8,0.2,0.8,0.8,0.2,,,0.3082,,0.6,0.4,0.8,0.2,0.8,0.2,0.6,0.4,1,0
,,60e20b0026ccfc52c0877202,66fc988cd1cbeb8e180b820f,2024-10-01_17h58.45.731,mdp,2024.2.1,Win32,60.24096386,66fa4ebf79326e780c390304,,,,,,,,,,,,,,,,,,,,,976.8583,976.8586,976.8634,978.1211,0,1,left,0.7414,,978.1268,979.0706,1,0,right,979.0766,979.7866,1,1,right,0,979.7871,979.7873,979.7924,981.2846,0,47,47,47,1,0.2,0.8,0.2,0.8,,,,,,,,,,,,,,,0.403,,0.6,0.4,0.2,0.8,0.2,0.8,0.8,0.2,,,0.1843,,0.6,0.4,0.8,0.2,0.8,0.2,0.6,0.4,1,0
,,60e20b0026ccfc52c0877202,66fc988cd1cbeb8e180b820f,2024-10-01_17h58.45.731,mdp,2024.2.1,Win32,60.24096386,66fa4ebf79326e780c390304,,,,,,,,,,,,,,,,,,,,,981.2877,981.2877,981.2929,983.1993,0,1,left,1.389,,983.2056,984.0488,1,0,right,984.054,984.8148,1,0,right,1,984.8152,984.8154,984.8213,986.3145,0,48,48,48,1,0.2,0.8,0.2,0.8,,,,,,,,,,,,,,,0.3195,,0.6,0.4,0.2,0.8,0.2,0.8,0.8,0.2,,,0.2352,,0.6,0.4,0.8,0.2,0.2,0.8,0.8,0.2,1,0
,,60e20b0026ccfc52c0877202,66fc988cd1cbeb8e180b820f,2024-10-01_17h58.45.731,mdp,2024.2.1,Win32,60.24096386,66fa4ebf79326e780c390304,,,,,,,,,,,,,,,,,,,,,986.3158,986.316,986.3195,987.7643,1,0,right,0.9286,,987.7693,989.127,0,1,left,989.1334,989.9597,0,1,left,0,989.96,989.96,989.9653,991.4583,0,49,49,49,1,0.2,0.8,0.2,0.8,,,,,,,,,,,,,,,0.8191,,0.6,0.4,0.2,0.8,0.2,0.8,0.8,0.2,,,0.2856,,0.6,0.4,0.8,0.2,0.2,0.8,0.8,0.2,1,0
,,60e20b0026ccfc52c0877202,66fc988cd1cbeb8e180b820f,2024-10-01_17h58.45.731,mdp,2024.2.1,Win32,60.24096386,66fa4ebf79326e780c390304,,,,,,,,,,,,,,,,,,,,,,,,,,,,,,,,,,,,,,,,,,,,,,,,,,,,,,,,991.4588,1049.9679,0,2,2,4,1,imgs/giraffe.png,imgs/horse.png,imgs/lion.png,imgs/elephant.png,imgs/rabbit.png,,,,,,,,,,,,,,,,,,,,,,,,
,,60e20b0026ccfc52c0877202,66fc988cd1cbeb8e180b820f,2024-10-01_17h58.45.731,mdp,2024.2.1,Win32,60.24096386,66fa4ebf79326e780c390304,,,,,,,,,,,,,,3,seqs/st3seq43.csv,1050.0049,1053.8982,space,3.3713,,1053.9276,1053.9277,1053.9329,1060.0733,0,0,left,5.5775,,1060.0977,1061.0899,0,1,left,1061.0971,1061.856,1,1,right,0,1061.8563,1061.8563,1061.8623,1063.354,0,0,0,0,1,0.6,0.4,0.4,0.6,,,,,,,,,,,,,,,0.4385,,0.2,0.8,0.8,0.2,0.6,0.4,0.4,0.6,,,0.2307,,0.8,0.2,0.4,0.6,0.6,0.4,0.2,0.8,1,0
,,60e20b0026ccfc52c0877202,66fc988cd1cbeb8e180b820f,2024-10-01_17h58.45.731,mdp,2024.2.1,Win32,60.24096386,66fa4ebf79326e780c390304,,,,,,,,,,,,,,,,,,,,,1063.3571,1063.3573,1063.3613,1064.8373,1,1,right,0.9498,,1064.8421,1065.7027,0,0,left,1065.7086,1066.8844,0,0,left,1,1066.8846,1066.8847,1066.8902,1068.382,0,1,1,1,1,0.6,0.4,0.4,0.6,,,,,,,,,,,,,,,0.3107,,0.4,0.6,0.2,0.8,0.6,0.4,0.4,0.6,,,0.619,,0.8,0.2,0.4,0.6,0.6,0.4,0.2,0.8,1,0
,,60e20b0026ccfc52c0877202,66fc988cd1cbeb8e180b820f,2024-10-01_17h58.45.731,mdp,2024.2.1,Win32,60.24096386,66fa4ebf79326e780c390304,,,,,,,,,,,,,,,,,,,,,1068.3829,1068.3829,1068.3869,1069.2492,1,1,right,0.3357,,1069.2545,1070.0814,1,1,right,1070.0879,1070.6226,0,1,left,0,1070.6228,1070.6229,1070.6262,1072.1123,0,2,2,2,1,0.6,0.4,0.4,0.6,,,,,,,,,,,,,,,0.3055,,0.4,0.6,0.2,0.8,0.6,0.4,0.4,0.6,,,0.0012,,0.8,0.2,0.4,0.6,0.6,0.4,0.2,0.8,1,0
,,60e20b0026ccfc52c0877202,66fc988cd1cbeb8e180b820f,2024-10-01_17h58.45.731,mdp,2024.2.1,Win32,60.24096386,66fa4ebf79326e780c390304,,,,,,,,,,,,,,,,,,,,,1072.1158,1072.1158,1072.1201,1073.2778,1,1,right,0.6351,,1073.2827,1074.1438,1,0,right,1074.1502,1074.9427,0,0,left,1,1074.9434,1074.9435,1074.9485,1076.4413,0,3,3,3,1,0.6,0.4,0.4,0.6,,,,,,,,,,,,,,,0.336,,0.4,0.6,0.2,0.8,0.6,0.4,0.4,0.6,,,0.2555,,0.8,0.2,0.4,0.6,0.6,0.4,0.2,0.8,1,0
,,60e20b0026ccfc52c0877202,66fc988cd1cbeb8e180b820f,2024-10-01_17h58.45.731,mdp,2024.2.1,Win32,60.24096386,66fa4ebf79326e780c390304,,,,,,,,,,,,,,,,,,,,,1076.4445,1076.4446,1076.4498,1077.2588,1,0,right,0.2871,,1077.2635,1078.0734,0,1,left,1078.0807,1078.7062,0,1,left,0,1078.7064,1078.7064,1078.7118,1080.2043,0,4,4,4,1,0.6,0.4,0.4,0.6,,,,,,,,,,,,,,,0.2714,,0.4,0.6,0.2,0.8,0.6,0.4,0.4,0.6,,,0.0994,,0.8,0.2,0.4,0.6,0.6,0.4,0.2,0.8,1,0
,,60e20b0026ccfc52c0877202,66fc988cd1cbeb8e180b820f,2024-10-01_17h58.45.731,mdp,2024.2.1,Win32,60.24096386,66fa4ebf79326e780c390304,,,,,,,,,,,,,,,,,,,,,1080.207,1080.2075,1080.2119,1081.3205,1,0,right,0.5903,,1081.3266,1082.2191,0,1,left,1082.2244,1082.8355,1,1,right,0,1082.8359,1082.836,1082.8418,1084.3335,0,5,5,5,1,0.6,0.4,0.4,0.6,,,,,,,,,,,,,,,0.3735,,0.4,0.6,0.2,0.8,0.6,0.4,0.4,0.6,,,0.0887,,0.8,0.2,0.4,0.6,0.6,0.4,0.2,0.8,1,0
,,60e20b0026ccfc52c0877202,66fc988cd1cbeb8e180b820f,2024-10-01_17h58.45.731,mdp,2024.2.1,Win32,60.24096386,66fa4ebf79326e780c390304,,,,,,,,,,,,,,,,,,,,,1084.3352,1084.3352,1084.3395,1085.7486,0,1,left,0.8838,,1085.752,1087.8809,0,0,left,1087.8862,1088.8638,1,1,right,0,1088.864,1088.8643,1088.8696,1090.3606,0,6,6,6,1,0.6,0.4,0.4,0.6,,,,,,,,,,,,,,,1.59,,0.4,0.6,0.2,0.8,0.6,0.4,0.4,0.6,,,0.4381,,0.8,0.2,0.4,0.6,0.6,0.4,0.2,0.8,1,0
,,60e20b0026ccfc52c0877202,66fc988cd1cbeb8e180b820f,2024-10-01_17h58.45.731,mdp,2024.2.1,Win32,60.24096386,66fa4ebf79326e780c390304,,,,,,,,,,,,,,,,,,,,,1090.3612,1090.3612,1090.364,1091.2446,0,0,left,0.3519,,1091.2496,1092.6267,1,1,right,1092.6325,1093.4092,0,0,left,1,1093.4097,1093.4097,1093.4143,1094.907,0,7,7,7,1,0.6,0.4,0.4,0.6,,,,,,,,,,,,,,,0.8405,,0.4,0.6,0.2,0.8,0.6,0.4,0.4,0.6,,,0.24,,0.8,0.2,0.4,0.6,0.6,0.4,0.2,0.8,1,0
,,60e20b0026ccfc52c0877202,66fc988cd1cbeb8e180b820f,2024-10-01_17h58.45.731,mdp,2024.2.1,Win32,60.24096386,66fa4ebf79326e780c390304,,,,,,,,,,,,,,,,,,,,,1094.9103,1094.9104,1094.9146,1095.8897,1,0,right,0.4513,,1095.8952,1096.4559,0,1,left,1096.4619,1097.5561,0,0,left,1,1097.5565,1097.5566,1097.5614,1099.0531,0,8,8,8,1,0.6,0.4,0.4,0.6,,,,,,,,,,,,,,,0.0405,,0.4,0.6,0.2,0.8,0.6,0.4,0.4,0.6,,,0.5682,,0.8,0.2,0.4,0.6,0.6,0.4,0.2,0.8,1,0
,,60e20b0026ccfc52c0877202,66fc988cd1cbeb8e180b820f,2024-10-01_17h58.45.731,mdp,2024.2.1,Win32,60.24096386,66fa4ebf79326e780c390304,,,,,,,,,,,,,,,,,,,,,1099.0553,1099.0554,1099.0588,1100.2191,1,1,right,0.6387,,1100.2245,1100.8348,0,0,left,1100.84,1103.799,0,0,left,1,1103.7997,1103.7997,1103.8054,1105.2972,0,9,9,9,1,0.6,0.4,0.4,0.6,,,,,,,,,,,,,,,0.08,,0.4,0.6,0.2,0.8,0.6,0.4,0.4,0.6,,,2.4209,,0.8,0.2,0.4,0.6,0.2,0.8,0.6,0.4,1,0
,,60e20b0026ccfc52c0877202,66fc988cd1cbeb8e180b820f,2024-10-01_17h58.45.731,mdp,2024.2.1,Win32,60.24096386,66fa4ebf79326e780c390304,,,,,,,,,,,,,,,,,,,,,1105.299,1105.2991,1105.3027,1106.1631,0,0,left,0.3363,,1106.1686,1106.9462,0,1,left,1106.9509,1107.6621,1,1,right,0,1107.6623,1107.6623,1107.6676,1109.1598,0,10,10,10,1,0.6,0.4,0.4,0.6,,,,,,,,,,,,,,,0.2385,,0.4,0.6,0.2,0.8,0.6,0.4,0.4,0.6,,,0.167,,0.8,0.2,0.4,0.6,0.4,0.6,0.2,0.8,1,0
,,60e20b0026ccfc52c0877202,66fc988cd1cbeb8e180b820f,2024-10-01_17h58.45.731,mdp,2024.2.1,Win32,60.24096386,66fa4ebf79326e780c390304,,,,,,,,,,,,,,,,,,,,,1109.162,1109.1621,1109.1656,1109.8593,0,0,left,0.1706,,1109.8646,1110.592,0,0,left,1110.5996,1111.4578,0,0,left,1,1111.4581,1111.4581,1111.4651,1112.9561,0,11,11,11,1,0.6,0.4,0.4,0.6,,,,,,,,,,,,,,,0.2033,,0.4,0.6,0.2,0.8,0.6,0.4,0.4,0.6,,,0.3205,,0.8,0.2,0.4,0.6,0.2,0.8,0.8,0.2,1,0
,,60e20b0026ccfc52c0877202,66fc988cd1cbeb8e180b820f,2024-10-01_17h58.45.731,mdp,2024.2.1,Win32,60.24096386,66fa4ebf79326e780c390304,,,,,,,,,,,,,,,,,,,,,1112.9582,1112.9583,1112.9625,1114.2219,1,1,right,0.7344,,1114.2273,1115.0381,1,0,right,1115.0429,1115.992,0,0,left,1,1115.9923,1115.9924,1115.996,1117.4851,0,12,12,12,1,0.6,0.4,0.4,0.6,,,,,,,,,,,,,,,0.2731,,0.8,0.2,0.8,0.2,0.6,0.4,0.4,0.6,,,0.4441,,0.8,0.2,0.4,0.6,0.2,0.8,0.8,0.2,1,0
,,60e20b0026ccfc52c0877202,66fc988cd1cbeb8e180b820f,2024-10-01_17h58.45.731,mdp,2024.2.1,Win32,60.24096386,66fa4ebf79326e780c390304,,,,,,,,,,,,,,,,,,,,,1117.4874,1117.4875,1117.4908,1118.834,0,0,left,0.8215,,1118.8391,1120.0161,0,0,left,1120.0213,1121.1484,1,1,right,0,1121.1505,1121.1507,1121.1555,1122.6471,0,13,13,13,1,0.6,0.4,0.4,0.6,,,,,,,,,,,,,,,0.637,,0.8,0.2,0.8,0.2,0.6,0.4,0.4,0.6,,,0.5997,,0.8,0.2,0.4,0.6,0.2,0.8,0.8,0.2,1,0
,,60e20b0026ccfc52c0877202,66fc988cd1cbeb8e180b820f,2024-10-01_17h58.45.731,mdp,2024.2.1,Win32,60.24096386,66fa4ebf79326e780c390304,,,,,,,,,,,,,,,,,,,,,1122.6491,1122.6492,1122.6526,1125.4277,1,1,right,2.2505,,1125.4335,1126.4093,0,0,left,1126.4153,1127.2465,0,0,left,1,1127.2468,1127.2468,1127.2509,1128.74,0,14,14,14,1,0.6,0.4,0.4,0.6,,,,,,,,,,,,,,,0.431,,0.8,0.2,0.8,0.2,0.6,0.4,0.4,0.6,,,0.3063,,0.8,0.2,0.4,0.6,0.2,0.8,0.8,0.2,1,0
,,60e20b0026ccfc52c0877202,66fc988cd1cbeb8e180b820f,2024-10-01_17h58.45.731,mdp,2024.2.1,Win32,60.24096386,66fa4ebf79326e780c390304,,,,,,,,,,,,,,,,,,,,,1128.7433,1128.7433,1128.7477,1129.6728,1,1,right,0.4026,,1129.6784,1130.4885,0,0,left,1130.4945,1132.1036,0,0,left,1,1132.1039,1132.104,1132.1095,1133.6019,0,15,15,15,1,0.6,0.4,0.4,0.6,,,,,,,,,,,,,,,0.2858,,0.8,0.2,0.8,0.2,0.6,0.4,0.4,0.6,,,1.0899,,0.8,0.2,0.4,0.6,0.2,0.8,0.8,0.2,1,0
,,60e20b0026ccfc52c0877202,66fc988cd1cbeb8e180b820f,2024-10-01_17h58.45.731,mdp,2024.2.1,Win32,60.24096386,66fa4ebf79326e780c390304,,,,,,,,,,,,,,,,,,,,,1133.6042,1133.6043,1133.6089,1134.8849,0,0,left,0.7499,,1134.8901,1136.1836,0,0,left,1136.1887,1137.1686,1,1,right,0,1137.1688,1137.1688,1137.1705,1138.6643,0,16,16,16,1,0.6,0.4,0.4,0.6,,,,,,,,,,,,,,,0.7503,,0.8,0.2,0.8,0.2,0.6,0.4,0.4,0.6,,,0.4594,,0.6,0.4,0.2,0.8,0.2,0.8,0.8,0.2,1,0
,,60e20b0026ccfc52c0877202,66fc988cd1cbeb8e180b820f,2024-10-01_17h58.45.731,mdp,2024.2.1,Win32,60.24096386,66fa4ebf79326e780c390304,,,,,,,,,,,,,,,,,,,,,1138.6664,1138.6666,1138.6703,1139.7138,1,0,right,0.5229,,1139.7206,1140.4962,1,1,right,1140.5021,1141.2788,0,1,left,0,1141.2795,1141.2795,1141.2836,1142.7773,0,17,17,17,1,0.6,0.4,0.4,0.6,,,,,,,,,,,,,,,0.2534,,0.8,0.2,0.8,0.2,0.6,0.4,0.4,0.6,,,0.2402,,0.6,0.4,0.2,0.8,0.2,0.8,0.8,0.2,1,0
,,60e20b0026ccfc52c0877202,66fc988cd1cbeb8e180b820f,2024-10-01_17h58.45.731,mdp,2024.2.1,Win32,60.24096386,66fa4ebf79326e780c390304,,,,,,,,,,,,,,,,,,,,,1142.7799,1142.7801,1142.7847,1143.3767,0,0,left,0.0689,,1143.3816,1143.9928,0,1,left,1143.9987,1144.9254,1,0,right,1,1144.926,1144.9261,1144.9311,1146.4234,0,18,18,18,1,0.6,0.4,0.4,0.6,,,,,,,,,,,,,,,0.085,,0.8,0.2,0.8,0.2,0.6,0.4,0.4,0.6,,,0.4053,,0.6,0.4,0.2,0.8,0.2,0.8,0.8,0.2,1,0
,,60e20b0026ccfc52c0877202,66fc988cd1cbeb8e180b820f,2024-10-01_17h58.45.731,mdp,2024.2.1,Win32,60.24096386,66fa4ebf79326e780c390304,,,,,,,,,,,,,,,,,,,,,1146.4256,1146.4257,1146.4303,1147.6891,0,0,left,0.7351,,1147.6943,1148.8882,0,0,left,1148.8947,1149.6535,1,1,right,0,1149.6538,1149.6539,1149.6592,1151.1523,0,19,19,19,1,0.6,0.4,0.4,0.6,,,,,,,,,,,,,,,0.6675,,0.8,0.2,0.8,0.2,0.6,0.4,0.4,0.6,,,0.2206,,0.6,0.4,0.2,0.8,0.2,0.8,0.8,0.2,1,0
,,60e20b0026ccfc52c0877202,66fc988cd1cbeb8e180b820f,2024-10-01_17h58.45.731,mdp,2024.2.1,Win32,60.24096386,66fa4ebf79326e780c390304,,,,,,,,,,,,,,,,,,,,,1151.1546,1151.1547,1151.1584,1152.2353,0,1,left,0.5504,,1152.2399,1152.9172,0,0,left,1152.9238,1153.6329,1,0,right,1,1153.6332,1153.6334,1153.6388,1155.1321,0,20,20,20,1,0.6,0.4,0.4,0.6,,,,,,,,,,,,,,,0.1378,,0.8,0.2,0.8,0.2,0.6,0.4,0.4,0.6,,,0.1884,,0.6,0.4,0.2,0.8,0.2,0.8,0.8,0.2,1,0
,,60e20b0026ccfc52c0877202,66fc988cd1cbeb8e180b820f,2024-10-01_17h58.45.731,mdp,2024.2.1,Win32,60.24096386,66fa4ebf79326e780c390304,,,,,,,,,,,,,,,,,,,,,1155.135,1155.1351,1155.1384,1155.9485,0,0,left,0.2846,,1155.9535,1156.8635,1,0,right,1156.8693,1157.9126,1,1,right,0,1157.9132,1157.9132,1157.919,1159.4099,0,21,21,21,1,0.6,0.4,0.4,0.6,,,,,,,,,,,,,,,0.3732,,0.8,0.2,0.8,0.2,0.6,0.4,0.4,0.6,,,0.5179,,0.6,0.4,0.2,0.8,0.2,0.8,0.8,0.2,1,0
,,60e20b0026ccfc52c0877202,66fc988cd1cbeb8e180b820f,2024-10-01_17h58.45.731,mdp,2024.2.1,Win32,60.24096386,66fa4ebf79326e780c390304,,,,,,,,,,,,,,,,,,,,,1159.411,1159.4111,1159.4144,1160.828,1,1,right,0.8946,,1160.8322,1162.0758,1,1,right,1162.0802,1162.924,0,1,left,0,1162.9244,1162.9244,1162.9294,1164.4223,0,22,22,22,1,0.6,0.4,0.4,0.6,,,,,,,,,,,,,,,0.7121,,0.8,0.2,0.8,0.2,0.6,0.4,0.4,0.6,,,0.3073,,0.6,0.4,0.2,0.8,0.4,0.6,0.2,0.8,1,0
,,60e20b0026ccfc52c0877202,66fc988cd1cbeb8e180b820f,2024-10-01_17h58.45.731,mdp,2024.2.1,Win32,60.24096386,66fa4ebf79326e780c390304,,,,,,,,,,,,,,,,,,,,,1164.4241,1164.4243,1164.4279,1164.9562,0,0,left,0.0083,,1164.961,1165.8549,0,0,left,1165.8607,1167.0913,0,1,left,0,1167.0915,1167.0915,1167.0939,1168.5852,0,23,23,23,1,0.6,0.4,0.4,0.6,,,,,,,,,,,,,,,0.355,,0.8,0.2,0.8,0.2,0.6,0.4,0.4,0.6,,,0.6962,,0.6,0.4,0.2,0.8,0.4,0.6,0.2,0.8,1,0
,,60e20b0026ccfc52c0877202,66fc988cd1cbeb8e180b820f,2024-10-01_17h58.45.731,mdp,2024.2.1,Win32,60.24096386,66fa4ebf79326e780c390304,,,,,,,,,,,,,,,,,,,,,1168.5877,1168.5878,1168.5915,1169.2515,1,0,right,0.1338,,1169.2568,1171.5664,0,0,left,1171.5714,1172.2984,1,1,right,0,1172.2988,1172.2988,1172.3043,1173.7965,0,24,24,24,1,0.6,0.4,0.4,0.6,,,,,,,,,,,,,,,1.7893,,0.8,0.2,0.8,0.2,0.4,0.6,0.8,0.2,,,0.2028,,0.6,0.4,0.2,0.8,0.4,0.6,0.2,0.8,1,0
,,60e20b0026ccfc52c0877202,66fc988cd1cbeb8e180b820f,2024-10-01_17h58.45.731,mdp,2024.2.1,Win32,60.24096386,66fa4ebf79326e780c390304,,,,,,,,,,,,,,,,,,,,,1173.7989,1173.799,1173.8036,1174.5961,0,1,left,0.2676,,1174.6026,1175.279,0,0,left,1175.2838,1176.0953,1,1,right,0,1176.0962,1176.0962,1176.1015,1177.5918,0,25,25,25,1,0.6,0.4,0.4,0.6,,,,,,,,,,,,,,,0.1366,,0.8,0.2,0.8,0.2,0.4,0.6,0.8,0.2,,,0.2852,,0.6,0.4,0.2,0.8,0.4,0.6,0.2,0.8,1,0
,,60e20b0026ccfc52c0877202,66fc988cd1cbeb8e180b820f,2024-10-01_17h58.45.731,mdp,2024.2.1,Win32,60.24096386,66fa4ebf79326e780c390304,,,,,,,,,,,,,,,,,,,,,1177.5928,1177.5929,1177.5958,1178.1923,1,0,right,0.0696,,1178.1991,1178.7371,1,0,right,1178.7412,1179.3912,0,1,left,0,1179.3916,1179.3916,1179.3982,1180.8903,0,26,26,26,1,0.6,0.4,0.4,0.6,,,,,,,,,,,,,,,0.0024,,0.8,0.2,0.8,0.2,0.4,0.6,0.8,0.2,,,0.1385,,0.6,0.4,0.2,0.8,0.4,0.6,0.2,0.8,1,0
,,60e20b0026ccfc52c0877202,66fc988cd1cbeb8e180b820f,2024-10-01_17h58.45.731,mdp,2024.2.1,Win32,60.24096386,66fa4ebf79326e780c390304,,,,,,,,,,,,,,,,,,,,,1180.8922,1180.8923,1180.8963,1182.3549,0,0,left,0.9349,,1182.3608,1183.4377,1,0,right,1183.4433,1184.8565,1,1,right,0,1184.8567,1184.8567,1184.8592,1186.351,0,27,27,27,1,0.6,0.4,0.4,0.6,,,,,,,,,,,,,,,0.5538,,0.8,0.2,0.8,0.2,0.4,0.6,0.8,0.2,,,0.8941,,0.6,0.4,0.2,0.8,0.4,0.6,0.2,0.8,1,0
,,60e20b0026ccfc52c0877202,66fc988cd1cbeb8e180b820f,2024-10-01_17h58.45.731,mdp,2024.2.1,Win32,60.24096386,66fa4ebf79326e780c390304,,,,,,,,,,,,,,,,,,,,,1186.3534,1186.3534,1186.358,1187.1003,0,1,left,0.2216,,1187.106,1187.9165,1,0,right,1187.9218,1188.7156,0,1,left,0,1188.7158,1188.7158,1188.7207,1190.2143,0,28,28,28,1,0.6,0.4,0.4,0.6,,,,,,,,,,,,,,,0.2787,,0.8,0.2,0.8,0.2,0.4,0.6,0.8,0.2,,,0.2722,,0.6,0.4,0.2,0.8,0.6,0.4,0.8,0.2,1,0
,,60e20b0026ccfc52c0877202,66fc988cd1cbeb8e180b820f,2024-10-01_17h58.45.731,mdp,2024.2.1,Win32,60.24096386,66fa4ebf79326e780c390304,,,,,,,,,,,,,,,,,,,,,1190.2166,1190.2167,1190.2204,1191.2963,1,1,right,0.5538,,1191.3026,1192.146,1,0,right,1192.1514,1193.3441,1,0,right,1,1193.3446,1193.3447,1193.351,1194.8428,0,29,29,29,1,0.6,0.4,0.4,0.6,,,,,,,,,,,,,,,0.3237,,0.8,0.2,0.8,0.2,0.4,0.6,0.8,0.2,,,0.6862,,0.4,0.6,0.8,0.2,0.6,0.4,0.8,0.2,1,0
,,60e20b0026ccfc52c0877202,66fc988cd1cbeb8e180b820f,2024-10-01_17h58.45.731,mdp,2024.2.1,Win32,60.24096386,66fa4ebf79326e780c390304,,,,,,,,,,,,,,,,,,,,,1194.8453,1194.8455,1194.8494,1195.9756,0,0,left,0.6004,,1195.9813,1197.0401,1,1,right,1197.0467,1198.5053,1,0,right,1,1198.5057,1198.5057,1198.5113,1200.0038,0,30,30,30,1,0.6,0.4,0.4,0.6,,,,,,,,,,,,,,,0.5191,,0.8,0.2,0.8,0.2,0.4,0.6,0.8,0.2,,,0.9206,,0.4,0.6,0.8,0.2,0.6,0.4,0.8,0.2,1,0
,,60e20b0026ccfc52c0877202,66fc988cd1cbeb8e180b820f,2024-10-01_17h58.45.731,mdp,2024.2.1,Win32,60.24096386,66fa4ebf79326e780c390304,,,,,,,,,,,,,,,,,,,,,1200.0071,1200.0072,1200.0117,1201.2193,1,1,right,0.6845,,1201.2261,1201.9353,0,1,left,1201.9407,1203.1347,0,1,left,0,1203.1357,1203.1359,1203.1408,1204.6322,0,31,31,31,1,0.6,0.4,0.4,0.6,,,,,,,,,,,,,,,0.168,,0.8,0.2,0.8,0.2,0.4,0.6,0.8,0.2,,,0.6755,,0.4,0.6,0.8,0.2,0.6,0.4,0.8,0.2,1,0
,,60e20b0026ccfc52c0877202,66fc988cd1cbeb8e180b820f,2024-10-01_17h58.45.731,mdp,2024.2.1,Win32,60.24096386,66fa4ebf79326e780c390304,,,,,,,,,,,,,,,,,,,,,1204.6349,1204.635,1204.6392,1205.5316,0,0,left,0.372,,1205.5368,1207.0801,1,0,right,1207.086,1208.4794,0,1,left,0,1208.4797,1208.4803,1208.4863,1209.9768,0,32,32,32,1,0.6,0.4,0.4,0.6,,,,,,,,,,,,,,,1.0023,,0.8,0.2,0.8,0.2,0.4,0.6,0.8,0.2,,,0.8631,,0.4,0.6,0.8,0.2,0.6,0.4,0.8,0.2,1,0
,,60e20b0026ccfc52c0877202,66fc988cd1cbeb8e180b820f,2024-10-01_17h58.45.731,mdp,2024.2.1,Win32,60.24096386,66fa4ebf79326e780c390304,,,,,,,,,,,,,,,,,,,,,1209.9788,1209.9789,1209.9835,1210.961,0,0,left,0.444,,1210.9659,1212.1748,0,0,left,1212.1784,1213.1244,1,0,right,1,1213.1252,1213.1252,1213.1304,1214.6216,0,33,33,33,1,0.6,0.4,0.4,0.6,,,,,,,,,,,,,,,0.6811,,0.8,0.2,0.8,0.2,0.4,0.6,0.8,0.2,,,0.424,,0.4,0.6,0.8,0.2,0.6,0.4,0.8,0.2,1,0
,,60e20b0026ccfc52c0877202,66fc988cd1cbeb8e180b820f,2024-10-01_17h58.45.731,mdp,2024.2.1,Win32,60.24096386,66fa4ebf79326e780c390304,,,,,,,,,,,,,,,,,,,,,1214.6228,1214.6229,1214.6257,1215.4054,0,1,left,0.2576,,1215.4116,1216.055,0,1,left,1216.0606,1217.1199,1,1,right,0,1217.1201,1217.1202,1217.1243,1218.6196,0,34,34,34,1,0.6,0.4,0.4,0.6,,,,,,,,,,,,,,,0.1058,,0.8,0.2,0.8,0.2,0.4,0.6,0.8,0.2,,,0.5217,,0.4,0.6,0.8,0.2,0.6,0.4,0.8,0.2,1,0
,,60e20b0026ccfc52c0877202,66fc988cd1cbeb8e180b820f,2024-10-01_17h58.45.731,mdp,2024.2.1,Win32,60.24096386,66fa4ebf79326e780c390304,,,,,,,,,,,,,,,,,,,,,1218.6229,1218.623,1218.6273,1219.5187,0,1,left,0.3723,,1219.5251,1220.8494,1,0,right,1220.8531,1222.2653,1,0,right,1,1222.2663,1222.2664,1222.272,1223.7633,0,35,35,35,1,0.6,0.4,0.4,0.6,,,,,,,,,,,,,,,0.8092,,0.8,0.2,0.8,0.2,0.4,0.6,0.8,0.2,,,0.8715,,0.4,0.6,0.8,0.2,0.6,0.4,0.8,0.2,1,0
,,60e20b0026ccfc52c0877202,66fc988cd1cbeb8e180b820f,2024-10-01_17h58.45.731,mdp,2024.2.1,Win32,60.24096386,66fa4ebf79326e780c390304,,,,,,,,,,,,,,,,,,,,,1223.7664,1223.7665,1223.7717,1224.7466,0,1,left,0.454,,1224.752,1225.7781,0,0,left,1225.7835,1226.6433,1,0,right,1,1226.6435,1226.6435,1226.6478,1228.1427,0,36,36,36,1,0.6,0.4,0.4,0.6,,,,,,,,,,,,,,,0.5073,,0.8,0.2,0.8,0.2,0.4,0.6,0.8,0.2,,,0.3363,,0.4,0.6,0.8,0.2,0.6,0.4,0.8,0.2,1,0
,,60e20b0026ccfc52c0877202,66fc988cd1cbeb8e180b820f,2024-10-01_17h58.45.731,mdp,2024.2.1,Win32,60.24096386,66fa4ebf79326e780c390304,,,,,,,,,,,,,,,,,,,,,1228.1459,1228.1459,1228.1504,1229.3254,1,1,right,0.6604,,1229.3323,1230.6567,1,1,right,1230.6637,1231.223,0,0,left,1,1231.2233,1231.2233,1231.2292,1232.7213,0,37,37,37,1,0.6,0.4,0.4,0.6,,,,,,,,,,,,,,,0.7991,,0.8,0.2,0.8,0.2,0.4,0.6,0.8,0.2,,,0.0171,,0.4,0.6,0.8,0.2,0.6,0.4,0.8,0.2,1,0
,,60e20b0026ccfc52c0877202,66fc988cd1cbeb8e180b820f,2024-10-01_17h58.45.731,mdp,2024.2.1,Win32,60.24096386,66fa4ebf79326e780c390304,,,,,,,,,,,,,,,,,,,,,1232.7239,1232.7241,1232.7285,1233.3379,1,1,right,0.0827,,1233.3434,1234.1537,1,0,right,1234.16,1235.0193,0,1,left,0,1235.0197,1235.0197,1235.0257,1236.5175,0,38,38,38,1,0.6,0.4,0.4,0.6,,,,,,,,,,,,,,,0.2872,,0.8,0.2,0.8,0.2,0.4,0.6,0.8,0.2,,,0.3302,,0.4,0.6,0.8,0.2,0.6,0.4,0.8,0.2,1,0
,,60e20b0026ccfc52c0877202,66fc988cd1cbeb8e180b820f,2024-10-01_17h58.45.731,mdp,2024.2.1,Win32,60.24096386,66fa4ebf79326e780c390304,,,,,,,,,,,,,,,,,,,,,1236.5209,1236.5209,1236.5255,1237.7167,0,1,left,0.6633,,1237.7235,1238.4826,1,0,right,1238.4887,1239.6141,1,0,right,1,1239.6143,1239.6144,1239.6177,1241.1133,0,39,39,39,1,0.6,0.4,0.4,0.6,,,,,,,,,,,,,,,0.2327,,0.8,0.2,0.8,0.2,0.4,0.6,0.8,0.2,,,0.5967,,0.4,0.6,0.8,0.2,0.6,0.4,0.8,0.2,1,0
,,60e20b0026ccfc52c0877202,66fc988cd1cbeb8e180b820f,2024-10-01_17h58.45.731,mdp,2024.2.1,Win32,60.24096386,66fa4ebf79326e780c390304,,,,,,,,,,,,,,,,,,,,,1241.1163,1241.1163,1241.1209,1241.9629,0,0,left,0.3164,,1241.9687,1242.8783,1,0,right,1242.8847,1243.7781,1,0,right,1,1243.7786,1243.7786,1243.7842,1245.2768,0,40,40,40,1,0.6,0.4,0.4,0.6,,,,,,,,,,,,,,,0.3673,,0.8,0.2,0.8,0.2,0.4,0.6,0.8,0.2,,,0.3676,,0.4,0.6,0.8,0.2,0.6,0.4,0.8,0.2,1,0
,,60e20b0026ccfc52c0877202,66fc988cd1cbeb8e180b820f,2024-10-01_17h58.45.731,mdp,2024.2.1,Win32,60.24096386,66fa4ebf79326e780c390304,,,,,,,,,,,,,,,,,,,,,1245.2794,1245.2794,1245.284,1246.1918,1,0,right,0.3869,,1246.1983,1247.0409,0,1,left,1247.0466,1248.2407,0,0,left,1,1248.2412,1248.2413,1248.2481,1249.7392,0,41,41,41,1,0.4,0.6,0.8,0.2,,,,,,,,,,,,,,,0.3217,,0.8,0.2,0.8,0.2,0.4,0.6,0.8,0.2,,,0.6533,,0.4,0.6,0.8,0.2,0.6,0.4,0.8,0.2,1,0
,,60e20b0026ccfc52c0877202,66fc988cd1cbeb8e180b820f,2024-10-01_17h58.45.731,mdp,2024.2.1,Win32,60.24096386,66fa4ebf79326e780c390304,,,,,,,,,,,,,,,,,,,,,1249.7411,1249.7411,1249.745,1250.7051,1,0,right,0.4385,,1250.7097,1251.5046,1,0,right,1251.511,1252.4701,0,0,left,1,1252.4704,1252.4705,1252.476,1253.9683,0,42,42,42,1,0.4,0.6,0.8,0.2,,,,,,,,,,,,,,,0.2751,,0.8,0.2,0.8,0.2,0.4,0.6,0.8,0.2,,,0.4203,,0.4,0.6,0.8,0.2,0.6,0.4,0.8,0.2,1,0
,,60e20b0026ccfc52c0877202,66fc988cd1cbeb8e180b820f,2024-10-01_17h58.45.731,mdp,2024.2.1,Win32,60.24096386,66fa4ebf79326e780c390304,,,,,,,,,,,,,,,,,,,,,1253.9712,1253.9714,1253.9754,1254.8679,0,1,left,0.3684,,1254.8725,1255.8002,1,0,right,1255.806,1257.0321,1,0,right,1,1257.0327,1257.0327,1257.0382,1258.5306,0,43,43,43,1,0.4,0.6,0.8,0.2,,,,,,,,,,,,,,,0.3864,,0.8,0.2,0.8,0.2,0.4,0.6,0.8,0.2,,,0.7028,,0.4,0.6,0.8,0.2,0.6,0.4,0.8,0.2,1,0
,,60e20b0026ccfc52c0877202,66fc988cd1cbeb8e180b820f,2024-10-01_17h58.45.731,mdp,2024.2.1,Win32,60.24096386,66fa4ebf79326e780c390304,,,,,,,,,,,,,,,,,,,,,1258.5332,1258.5332,1258.5372,1260.0792,0,1,left,1.0175,,1260.0847,1260.8783,0,0,left,1260.8833,1261.8442,0,0,left,1,1261.8447,1261.8448,1261.8494,1263.3408,0,44,44,44,1,0.4,0.6,0.8,0.2,,,,,,,,,,,,,,,0.2831,,0.8,0.2,0.8,0.2,0.4,0.6,0.8,0.2,,,0.4366,,0.4,0.6,0.8,0.2,0.6,0.4,0.8,0.2,1,0
,,60e20b0026ccfc52c0877202,66fc988cd1cbeb8e180b820f,2024-10-01_17h58.45.731,mdp,2024.2.1,Win32,60.24096386,66fa4ebf79326e780c390304,,,,,,,,,,,,,,,,,,,,,1263.3416,1263.3416,1263.3443,1264.4232,1,0,right,0.551,,1264.4264,1265.3557,1,0,right,1265.359,1266.6212,0,0,left,1,1266.6212,1266.6212,1266.6247,1268.1209,0,45,45,45,1,0.4,0.6,0.8,0.2,,,,,,,,,,,,,,,0.3943,,0.8,0.2,0.8,0.2,0.4,0.6,0.8,0.2,,,0.7324,,0.4,0.6,0.8,0.2,0.6,0.4,0.8,0.2,1,0
,,60e20b0026ccfc52c0877202,66fc988cd1cbeb8e180b820f,2024-10-01_17h58.45.731,mdp,2024.2.1,Win32,60.24096386,66fa4ebf79326e780c390304,,,,,,,,,,,,,,,,,,,,,1268.1235,1268.1237,1268.128,1269.0352,0,0,left,0.3917,,1269.039,1269.8022,0,0,left,1269.8075,1270.6508,1,0,right,1,1270.6509,1270.651,1270.6534,1272.1499,0,46,46,46,1,0.4,0.6,0.8,0.2,,,,,,,,,,,,,,,0.2348,,0.8,0.2,0.8,0.2,0.4,0.6,0.8,0.2,,,0.3128,,0.2,0.8,0.4,0.6,0.6,0.4,0.8,0.2,1,0
,,60e20b0026ccfc52c0877202,66fc988cd1cbeb8e180b820f,2024-10-01_17h58.45.731,mdp,2024.2.1,Win32,60.24096386,66fa4ebf79326e780c390304,,,,,,,,,,,,,,,,,,,,,1272.1526,1272.1527,1272.1569,1272.9668,0,1,left,0.2909,,1272.9727,1273.9827,1,1,right,1273.9871,1274.9351,1,0,right,1,1274.9353,1274.9353,1274.938,1276.429,0,47,47,47,1,0.4,0.6,0.8,0.2,,,,,,,,,,,,,,,0.462,,0.8,0.2,0.8,0.2,0.4,0.6,0.8,0.2,,,0.4115,,0.2,0.8,0.4,0.6,0.6,0.4,0.8,0.2,1,0
,,60e20b0026ccfc52c0877202,66fc988cd1cbeb8e180b820f,2024-10-01_17h58.45.731,mdp,2024.2.1,Win32,60.24096386,66fa4ebf79326e780c390304,,,,,,,,,,,,,,,,,,,,,1276.4314,1276.4315,1276.4359,1277.2957,0,1,left,0.3403,,1277.3019,1278.3279,1,0,right,1278.334,1279.5276,1,0,right,1,1279.5279,1279.5279,1279.5327,1281.0243,0,48,48,48,1,0.4,0.6,0.8,0.2,,,,,,,,,,,,,,,0.5003,,0.8,0.2,0.8,0.2,0.4,0.6,0.8,0.2,,,0.6565,,0.2,0.8,0.4,0.6,0.6,0.4,0.8,0.2,1,0
,,60e20b0026ccfc52c0877202,66fc988cd1cbeb8e180b820f,2024-10-01_17h58.45.731,mdp,2024.2.1,Win32,60.24096386,66fa4ebf79326e780c390304,,,,,,,,,,,,,,,,,,,,,1281.0266,1281.0267,1281.0308,1282.0075,0,1,left,0.451,,1282.0136,1283.1397,1,1,right,1283.1455,1284.0059,1,0,right,1,1284.0061,1284.0061,1284.011,1285.504,0,49,49,49,1,0.4,0.6,0.8,0.2,,,,,,,,,,,,,,,0.6014,,0.8,0.2,0.8,0.2,0.6,0.4,0.4,0.6,,,0.3202,,0.2,0.8,0.4,0.6,0.6,0.4,0.8,0.2,1,0
,,60e20b0026ccfc52c0877202,66fc988cd1cbeb8e180b820f,2024-10-01_17h58.45.731,mdp,2024.2.1,Win32,60.24096386,66fa4ebf79326e780c390304,,,,,,,,,,,,,,,,,,,,,,,,,,,,,,,,,,,,,,,,,,,,,,,,,,,,,,,,1285.5046,1344.8994,0,3,3,8,1,imgs/goat.png,imgs/bear.png,imgs/pig.png,imgs/dog.png,imgs/cat.png,,,,,,,,,,,,,,,,,,,,,,,,
,,60e20b0026ccfc52c0877202,66fc988cd1cbeb8e180b820f,2024-10-01_17h58.45.731,mdp,2024.2.1,Win32,60.24096386,66fa4ebf79326e780c390304,,,,,,,,,,,,,,1,seqs/st1seq39.csv,1344.9234,1347.0266,space,1.5844,,1347.0382,1347.0382,1347.0417,1352.5235,0,1,left,4.9498,,1352.5466,1352.5475,1,0,,1352.5482,1352.5489,1,1,,0,1352.5489,1352.5489,1352.5495,1354.0534,0,0,0,0,1,0.2,0.8,0.8,0.2,1,0,,,,,,,,,,,,,,,,,,,,,,,,,,,,,,,,,,,,
,,60e20b0026ccfc52c0877202,66fc988cd1cbeb8e180b820f,2024-10-01_17h58.45.731,mdp,2024.2.1,Win32,60.24096386,66fa4ebf79326e780c390304,,,,,,,,,,,,,,,,,,,,,1354.0557,1354.0559,1354.0604,1356.1508,1,0,right,1.5728,,1356.1563,1356.1583,1,0,,1356.1605,1356.1624,1,1,,1,1356.1625,1356.1626,1356.1646,1357.6657,0,1,1,1,1,0.2,0.8,0.8,0.2,1,0,,,,,,,,,,,,,,,,,,,,,,,,,,,,,,,,,,,,
,,60e20b0026ccfc52c0877202,66fc988cd1cbeb8e180b820f,2024-10-01_17h58.45.731,mdp,2024.2.1,Win32,60.24096386,66fa4ebf79326e780c390304,,,,,,,,,,,,,,,,,,,,,1357.6678,1357.6679,1357.6714,1358.5981,0,0,left,0.4036,,1358.6021,1358.6045,1,1,,1358.6077,1358.6095,1,1,,1,1358.6096,1358.6096,1358.6114,1360.1132,0,2,2,2,1,0.2,0.8,0.8,0.2,1,0,,,,,,,,,,,,,,,,,,,,,,,,,,,,,,,,,,,,
,,60e20b0026ccfc52c0877202,66fc988cd1cbeb8e180b820f,2024-10-01_17h58.45.731,mdp,2024.2.1,Win32,60.24096386,66fa4ebf79326e780c390304,,,,,,,,,,,,,,,,,,,,,1360.1156,1360.1157,1360.121,1361.4792,1,0,right,0.8337,,1361.4855,1361.4884,1,0,,1361.4914,1361.4938,1,1,,1,1361.4943,1361.4943,1361.4973,1362.9941,0,3,3,3,1,0.2,0.8,0.8,0.2,1,0,,,,,,,,,,,,,,,,,,,,,,,,,,,,,,,,,,,,
,,60e20b0026ccfc52c0877202,66fc988cd1cbeb8e180b820f,2024-10-01_17h58.45.731,mdp,2024.2.1,Win32,60.24096386,66fa4ebf79326e780c390304,,,,,,,,,,,,,,,,,,,,,1362.9963,1362.9965,1363.0007,1364.56,0,1,left,1.0355,,1364.5657,1364.5683,1,0,,1364.5708,1364.573,1,0,,0,1364.5731,1364.5731,1364.5763,1366.0742,0,4,4,4,1,0.4,0.6,0.6,0.4,1,0,,,,,,,,,,,,,,,,,,,,,,,,,,,,,,,,,,,,
,,60e20b0026ccfc52c0877202,66fc988cd1cbeb8e180b820f,2024-10-01_17h58.45.731,mdp,2024.2.1,Win32,60.24096386,66fa4ebf79326e780c390304,,,,,,,,,,,,,,,,,,,,,1366.0766,1366.0768,1366.0809,1367.6228,1,1,right,1.0227,,1367.6293,1367.6321,1,1,,1367.6354,1367.6384,1,0,,0,1367.6385,1367.6385,1367.6413,1369.1383,0,5,5,5,1,0.4,0.6,0.6,0.4,1,0,,,,,,,,,,,,,,,,,,,,,,,,,,,,,,,,,,,,
,,60e20b0026ccfc52c0877202,66fc988cd1cbeb8e180b820f,2024-10-01_17h58.45.731,mdp,2024.2.1,Win32,60.24096386,66fa4ebf79326e780c390304,,,,,,,,,,,,,,,,,,,,,1369.1409,1369.141,1369.1459,1370.153,0,0,left,0.4832,,1370.1558,1370.1575,1,0,,1370.1583,1370.159,1,1,,1,1370.159,1370.159,1370.1597,1371.6517,0,6,6,6,1,0.6,0.4,0.8,0.2,1,0,,,,,,,,,,,,,,,,,,,,,,,,,,,,,,,,,,,,
,,60e20b0026ccfc52c0877202,66fc988cd1cbeb8e180b820f,2024-10-01_17h58.45.731,mdp,2024.2.1,Win32,60.24096386,66fa4ebf79326e780c390304,,,,,,,,,,,,,,,,,,,,,1371.6549,1371.655,1371.6599,1373.1686,0,0,left,0.9934,,1373.1725,1373.1754,1,1,,1373.1775,1373.1792,1,0,,1,1373.1793,1373.1793,1373.1809,1374.6824,0,7,7,7,1,0.6,0.4,0.8,0.2,1,0,,,,,,,,,,,,,,,,,,,,,,,,,,,,,,,,,,,,
,,60e20b0026ccfc52c0877202,66fc988cd1cbeb8e180b820f,2024-10-01_17h58.45.731,mdp,2024.2.1,Win32,60.24096386,66fa4ebf79326e780c390304,,,,,,,,,,,,,,,,,,,,,1374.6851,1374.6852,1374.6897,1375.6482,0,1,left,0.4345,,1375.6543,1375.6567,1,0,,1375.659,1375.6611,1,1,,0,1375.6612,1375.6612,1375.6639,1377.1633,0,8,8,8,1,0.4,0.6,0.6,0.4,1,0,,,,,,,,,,,,,,,,,,,,,,,,,,,,,,,,,,,,
,,60e20b0026ccfc52c0877202,66fc988cd1cbeb8e180b820f,2024-10-01_17h58.45.731,mdp,2024.2.1,Win32,60.24096386,66fa4ebf79326e780c390304,,,,,,,,,,,,,,,,,,,,,1377.1657,1377.1658,1377.1695,1378.0461,1,1,right,0.3529,,1378.052,1378.0542,1,0,,1378.0569,1378.0592,1,0,,0,1378.0593,1378.0593,1378.0624,1379.561,0,9,9,9,1,0.4,0.6,0.6,0.4,1,0,,,,,,,,,,,,,,,,,,,,,,,,,,,,,,,,,,,,
,,60e20b0026ccfc52c0877202,66fc988cd1cbeb8e180b820f,2024-10-01_17h58.45.731,mdp,2024.2.1,Win32,60.24096386,66fa4ebf79326e780c390304,,,,,,,,,,,,,,,,,,,,,1379.5635,1379.5638,1379.568,1380.2776,1,1,right,0.1867,,1380.2833,1380.2855,1,0,,1380.288,1380.2899,1,0,,0,1380.29,1380.29,1380.292,1381.7782,0,10,10,10,1,0.4,0.6,0.6,0.4,1,0,,,,,,,,,,,,,,,,,,,,,,,,,,,,,,,,,,,,
,,60e20b0026ccfc52c0877202,66fc988cd1cbeb8e180b820f,2024-10-01_17h58.45.731,mdp,2024.2.1,Win32,60.24096386,66fa4ebf79326e780c390304,,,,,,,,,,,,,,,,,,,,,1381.7803,1381.7804,1381.7833,1383.6743,1,0,right,1.3724,,1383.679,1383.681,1,1,,1383.6831,1383.6849,1,0,,1,1383.685,1383.6851,1383.6868,1385.1732,0,11,11,11,1,0.4,0.6,0.6,0.4,1,0,,,,,,,,,,,,,,,,,,,,,,,,,,,,,,,,,,,,
,,60e20b0026ccfc52c0877202,66fc988cd1cbeb8e180b820f,2024-10-01_17h58.45.731,mdp,2024.2.1,Win32,60.24096386,66fa4ebf79326e780c390304,,,,,,,,,,,,,,,,,,,,,1385.1748,1385.1749,1385.1793,1386.67,0,0,left,0.9656,,1386.6719,1386.6739,1,1,,1386.6745,1386.6751,1,1,,1,1386.6751,1386.6751,1386.6756,1388.1683,0,12,12,12,1,0.4,0.6,0.6,0.4,1,0,,,,,,,,,,,,,,,,,,,,,,,,,,,,,,,,,,,,
,,60e20b0026ccfc52c0877202,66fc988cd1cbeb8e180b820f,2024-10-01_17h58.45.731,mdp,2024.2.1,Win32,60.24096386,66fa4ebf79326e780c390304,,,,,,,,,,,,,,,,,,,,,1388.1691,1388.1691,1388.1723,1389.5355,0,1,left,0.8366,,1389.5405,1389.5422,1,1,,1389.5441,1389.5456,1,0,,0,1389.5456,1389.5456,1389.5471,1391.0505,0,13,13,13,1,0.4,0.6,0.6,0.4,1,0,,,,,,,,,,,,,,,,,,,,,,,,,,,,,,,,,,,,
,,60e20b0026ccfc52c0877202,66fc988cd1cbeb8e180b820f,2024-10-01_17h58.45.731,mdp,2024.2.1,Win32,60.24096386,66fa4ebf79326e780c390304,,,,,,,,,,,,,,,,,,,,,1391.0528,1391.0529,1391.0563,1391.9195,0,0,left,0.3425,,1391.9235,1391.9254,1,1,,1391.9274,1391.9292,1,1,,1,1391.9292,1391.9293,1391.9326,1393.4306,0,14,14,14,1,0.4,0.6,0.6,0.4,1,0,,,,,,,,,,,,,,,,,,,,,,,,,,,,,,,,,,,,
,,60e20b0026ccfc52c0877202,66fc988cd1cbeb8e180b820f,2024-10-01_17h58.45.731,mdp,2024.2.1,Win32,60.24096386,66fa4ebf79326e780c390304,,,,,,,,,,,,,,,,,,,,,1393.4328,1393.4329,1393.4375,1395.0128,1,0,right,1.0511,,1395.0188,1395.0214,1,0,,1395.0235,1395.0256,1,0,,1,1395.0257,1395.0257,1395.028,1396.5276,0,15,15,15,1,0.4,0.6,0.6,0.4,1,0,,,,,,,,,,,,,,,,,,,,,,,,,,,,,,,,,,,,
,,60e20b0026ccfc52c0877202,66fc988cd1cbeb8e180b820f,2024-10-01_17h58.45.731,mdp,2024.2.1,Win32,60.24096386,66fa4ebf79326e780c390304,,,,,,,,,,,,,,,,,,,,,1396.5298,1396.5299,1396.5347,1397.66,0,0,left,0.6057,,1397.6667,1397.6692,1,1,,1397.6707,1397.6718,1,1,,1,1397.6718,1397.6719,1397.6731,1399.1749,0,16,16,16,1,0.4,0.6,0.6,0.4,1,0,,,,,,,,,,,,,,,,,,,,,,,,,,,,,,,,,,,,
,,60e20b0026ccfc52c0877202,66fc988cd1cbeb8e180b820f,2024-10-01_17h58.45.731,mdp,2024.2.1,Win32,60.24096386,66fa4ebf79326e780c390304,,,,,,,,,,,,,,,,,,,,,1399.1774,1399.1776,1399.1826,1399.858,0,0,left,0.1516,,1399.8639,1399.8659,1,0,,1399.8682,1399.8699,1,1,,1,1399.87,1399.87,1399.8718,1401.3732,0,17,17,17,1,0.4,0.6,0.6,0.4,1,0,,,,,,,,,,,,,,,,,,,,,,,,,,,,,,,,,,,,
,,60e20b0026ccfc52c0877202,66fc988cd1cbeb8e180b820f,2024-10-01_17h58.45.731,mdp,2024.2.1,Win32,60.24096386,66fa4ebf79326e780c390304,,,,,,,,,,,,,,,,,,,,,1401.3757,1401.3759,1401.38,1403.5378,0,0,left,1.6365,,1403.5432,1403.547,1,1,,1403.5493,1403.5512,1,0,,1,1403.5513,1403.5513,1403.5539,1405.0524,0,18,18,18,1,0.4,0.6,0.6,0.4,1,0,,,,,,,,,,,,,,,,,,,,,,,,,,,,,,,,,,,,
,,60e20b0026ccfc52c0877202,66fc988cd1cbeb8e180b820f,2024-10-01_17h58.45.731,mdp,2024.2.1,Win32,60.24096386,66fa4ebf79326e780c390304,,,,,,,,,,,,,,,,,,,,,1405.0548,1405.0549,1405.0595,1406.0195,1,1,right,0.4406,,1406.0263,1406.028,1,0,,1406.03,1406.0317,1,0,,0,1406.0319,1406.0319,1406.0341,1407.5351,0,19,19,19,1,0.4,0.6,0.6,0.4,1,0,,,,,,,,,,,,,,,,,,,,,,,,,,,,,,,,,,,,
,,60e20b0026ccfc52c0877202,66fc988cd1cbeb8e180b820f,2024-10-01_17h58.45.731,mdp,2024.2.1,Win32,60.24096386,66fa4ebf79326e780c390304,,,,,,,,,,,,,,,,,,,,,1407.5368,1407.537,1407.5406,1408.4197,1,1,right,0.3584,,1408.4242,1408.4264,1,0,,1408.4287,1408.4306,1,0,,0,1408.4307,1408.4308,1408.4352,1409.9312,0,20,20,20,1,0.6,0.4,0.4,0.6,1,0,,,,,,,,,,,,,,,,,,,,,,,,,,,,,,,,,,,,
,,60e20b0026ccfc52c0877202,66fc988cd1cbeb8e180b820f,2024-10-01_17h58.45.731,mdp,2024.2.1,Win32,60.24096386,66fa4ebf79326e780c390304,,,,,,,,,,,,,,,,,,,,,1409.9328,1409.9329,1409.9384,1410.7978,1,1,right,0.339,,1410.8045,1410.8069,1,1,,1410.8097,1410.8115,1,0,,0,1410.8115,1410.8116,1410.8142,1412.3121,0,21,21,21,1,0.4,0.6,0.6,0.4,1,0,,,,,,,,,,,,,,,,,,,,,,,,,,,,,,,,,,,,
,,60e20b0026ccfc52c0877202,66fc988cd1cbeb8e180b820f,2024-10-01_17h58.45.731,mdp,2024.2.1,Win32,60.24096386,66fa4ebf79326e780c390304,,,,,,,,,,,,,,,,,,,,,1412.3147,1412.3148,1412.3199,1412.9437,1,1,right,0.1106,,1412.946,1412.948,1,0,,1412.9491,1412.9498,1,1,,0,1412.9498,1412.9498,1412.9506,1414.4436,0,22,22,22,1,0.4,0.6,0.6,0.4,1,0,,,,,,,,,,,,,,,,,,,,,,,,,,,,,,,,,,,,
,,60e20b0026ccfc52c0877202,66fc988cd1cbeb8e180b820f,2024-10-01_17h58.45.731,mdp,2024.2.1,Win32,60.24096386,66fa4ebf79326e780c390304,,,,,,,,,,,,,,,,,,,,,1414.4463,1414.4463,1414.4504,1415.6093,0,0,left,0.637,,1415.6152,1415.6174,1,1,,1415.6197,1415.6217,1,0,,1,1415.6217,1415.6218,1415.6237,1417.1251,0,23,23,23,1,0.4,0.6,0.6,0.4,1,0,,,,,,,,,,,,,,,,,,,,,,,,,,,,,,,,,,,,
,,60e20b0026ccfc52c0877202,66fc988cd1cbeb8e180b820f,2024-10-01_17h58.45.731,mdp,2024.2.1,Win32,60.24096386,66fa4ebf79326e780c390304,,,,,,,,,,,,,,,,,,,,,1417.1274,1417.1275,1417.1311,1418.3244,0,0,left,0.6682,,1418.3297,1418.3317,1,0,,1418.3336,1418.3354,1,1,,1,1418.3355,1418.3355,1418.3373,1419.8263,0,24,24,24,1,0.4,0.6,0.6,0.4,1,0,,,,,,,,,,,,,,,,,,,,,,,,,,,,,,,,,,,,
,,60e20b0026ccfc52c0877202,66fc988cd1cbeb8e180b820f,2024-10-01_17h58.45.731,mdp,2024.2.1,Win32,60.24096386,66fa4ebf79326e780c390304,,,,,,,,,,,,,,,,,,,,,1419.8283,1419.8284,1419.8317,1420.5372,1,0,right,0.1887,,1420.5441,1420.5461,1,0,,1420.5485,1420.5504,1,1,,1,1420.5505,1420.5505,1420.5534,1422.0526,0,25,25,25,1,0.6,0.4,0.8,0.2,1,0,,,,,,,,,,,,,,,,,,,,,,,,,,,,,,,,,,,,
,,60e20b0026ccfc52c0877202,66fc988cd1cbeb8e180b820f,2024-10-01_17h58.45.731,mdp,2024.2.1,Win32,60.24096386,66fa4ebf79326e780c390304,,,,,,,,,,,,,,,,,,,,,1422.0543,1422.0544,1422.0598,1423.2019,1,0,right,0.6226,,1423.2076,1423.21,1,0,,1423.2122,1423.2144,1,0,,1,1423.2146,1423.2147,1423.2183,1424.7181,0,26,26,26,1,0.6,0.4,0.8,0.2,1,0,,,,,,,,,,,,,,,,,,,,,,,,,,,,,,,,,,,,
,,60e20b0026ccfc52c0877202,66fc988cd1cbeb8e180b820f,2024-10-01_17h58.45.731,mdp,2024.2.1,Win32,60.24096386,66fa4ebf79326e780c390304,,,,,,,,,,,,,,,,,,,,,1424.7198,1424.7199,1424.7242,1425.7358,0,1,left,0.493,,1425.7402,1425.7423,1,0,,1425.7445,1425.7466,1,0,,0,1425.7467,1425.7467,1425.7501,1427.2479,0,27,27,27,1,0.6,0.4,0.8,0.2,1,0,,,,,,,,,,,,,,,,,,,,,,,,,,,,,,,,,,,,
,,60e20b0026ccfc52c0877202,66fc988cd1cbeb8e180b820f,2024-10-01_17h58.45.731,mdp,2024.2.1,Win32,60.24096386,66fa4ebf79326e780c390304,,,,,,,,,,,,,,,,,,,,,1427.2502,1427.2504,1427.2547,1428.0146,1,0,right,0.2353,,1428.0202,1428.0222,1,0,,1428.0246,1428.0265,1,0,,1,1428.0265,1428.0265,1428.0299,1429.5276,0,28,28,28,1,0.6,0.4,0.8,0.2,1,0,,,,,,,,,,,,,,,,,,,,,,,,,,,,,,,,,,,,
,,60e20b0026ccfc52c0877202,66fc988cd1cbeb8e180b820f,2024-10-01_17h58.45.731,mdp,2024.2.1,Win32,60.24096386,66fa4ebf79326e780c390304,,,,,,,,,,,,,,,,,,,,,1429.5281,1429.5282,1429.5318,1430.2782,1,0,right,0.2218,,1430.2833,1430.2852,1,0,,1430.2872,1430.2889,1,0,,1,1430.289,1430.289,1430.2906,1431.7918,0,29,29,29,1,0.6,0.4,0.8,0.2,1,0,,,,,,,,,,,,,,,,,,,,,,,,,,,,,,,,,,,,
,,60e20b0026ccfc52c0877202,66fc988cd1cbeb8e180b820f,2024-10-01_17h58.45.731,mdp,2024.2.1,Win32,60.24096386,66fa4ebf79326e780c390304,,,,,,,,,,,,,,,,,,,,,1431.7924,1431.7924,1431.7959,1432.7922,0,1,left,0.4685,,1432.797,1432.799,1,0,,1432.8009,1432.8045,1,1,,0,1432.8047,1432.8047,1432.8064,1434.3069,0,30,30,30,1,0.6,0.4,0.8,0.2,1,0,,,,,,,,,,,,,,,,,,,,,,,,,,,,,,,,,,,,
,,60e20b0026ccfc52c0877202,66fc988cd1cbeb8e180b820f,2024-10-01_17h58.45.731,mdp,2024.2.1,Win32,60.24096386,66fa4ebf79326e780c390304,,,,,,,,,,,,,,,,,,,,,1434.3092,1434.3093,1434.3138,1435.0401,1,1,right,0.1997,,1435.045,1435.0474,1,1,,1435.0492,1435.0508,1,1,,0,1435.0509,1435.0509,1435.0524,1436.555,0,31,31,31,1,0.8,0.2,0.4,0.6,1,0,,,,,,,,,,,,,,,,,,,,,,,,,,,,,,,,,,,,
,,60e20b0026ccfc52c0877202,66fc988cd1cbeb8e180b820f,2024-10-01_17h58.45.731,mdp,2024.2.1,Win32,60.24096386,66fa4ebf79326e780c390304,,,,,,,,,,,,,,,,,,,,,1436.5572,1436.5573,1436.5613,1437.3879,1,0,right,0.302,,1437.3935,1437.3957,1,1,,1437.3977,1437.3993,1,0,,1,1437.3994,1437.3994,1437.4013,1438.9042,0,32,32,32,1,0.8,0.2,0.4,0.6,1,0,,,,,,,,,,,,,,,,,,,,,,,,,,,,,,,,,,,,
,,60e20b0026ccfc52c0877202,66fc988cd1cbeb8e180b820f,2024-10-01_17h58.45.731,mdp,2024.2.1,Win32,60.24096386,66fa4ebf79326e780c390304,,,,,,,,,,,,,,,,,,,,,1438.9059,1438.906,1438.9101,1439.8531,0,0,left,0.4172,,1439.8589,1439.8609,1,0,,1439.863,1439.865,1,0,,1,1439.8651,1439.8651,1439.8679,1441.3669,0,33,33,33,1,0.8,0.2,0.4,0.6,1,0,,,,,,,,,,,,,,,,,,,,,,,,,,,,,,,,,,,,
,,60e20b0026ccfc52c0877202,66fc988cd1cbeb8e180b820f,2024-10-01_17h58.45.731,mdp,2024.2.1,Win32,60.24096386,66fa4ebf79326e780c390304,,,,,,,,,,,,,,,,,,,,,1441.3691,1441.3692,1441.3732,1442.2165,0,1,left,0.3217,,1442.2226,1442.2248,1,1,,1442.2269,1442.2287,1,0,,0,1442.2288,1442.2288,1442.2308,1443.7321,0,34,34,34,1,0.6,0.4,0.8,0.2,1,0,,,,,,,,,,,,,,,,,,,,,,,,,,,,,,,,,,,,
,,60e20b0026ccfc52c0877202,66fc988cd1cbeb8e180b820f,2024-10-01_17h58.45.731,mdp,2024.2.1,Win32,60.24096386,66fa4ebf79326e780c390304,,,,,,,,,,,,,,,,,,,,,1443.7339,1443.734,1443.7378,1444.8013,1,0,right,0.5337,,1444.8048,1444.8067,1,0,,1444.8087,1444.8105,1,0,,1,1444.8105,1444.8105,1444.8167,1446.312,0,35,35,35,1,0.6,0.4,0.8,0.2,1,0,,,,,,,,,,,,,,,,,,,,,,,,,,,,,,,,,,,,
,,60e20b0026ccfc52c0877202,66fc988cd1cbeb8e180b820f,2024-10-01_17h58.45.731,mdp,2024.2.1,Win32,60.24096386,66fa4ebf79326e780c390304,,,,,,,,,,,,,,,,,,,,,1446.3142,1446.3143,1446.3184,1447.4117,0,1,left,0.567,,1447.4171,1447.4196,1,0,,1447.4222,1447.424,1,1,,0,1447.4241,1447.4241,1447.426,1448.9267,0,36,36,36,1,0.6,0.4,0.8,0.2,1,0,,,,,,,,,,,,,,,,,,,,,,,,,,,,,,,,,,,,
,,60e20b0026ccfc52c0877202,66fc988cd1cbeb8e180b820f,2024-10-01_17h58.45.731,mdp,2024.2.1,Win32,60.24096386,66fa4ebf79326e780c390304,,,,,,,,,,,,,,,,,,,,,1448.9287,1448.9289,1448.9329,1449.7261,1,0,right,0.2679,,1449.7332,1449.7353,1,0,,1449.7374,1449.7389,1,1,,1,1449.7389,1449.7389,1449.7401,1451.2412,0,37,37,37,1,0.6,0.4,0.8,0.2,1,0,,,,,,,,,,,,,,,,,,,,,,,,,,,,,,,,,,,,
,,60e20b0026ccfc52c0877202,66fc988cd1cbeb8e180b820f,2024-10-01_17h58.45.731,mdp,2024.2.1,Win32,60.24096386,66fa4ebf79326e780c390304,,,,,,,,,,,,,,,,,,,,,1451.2433,1451.2435,1451.2471,1452.5562,0,0,left,0.7854,,1452.5606,1452.5619,1,0,,1452.5633,1452.5644,1,0,,1,1452.5645,1452.5645,1452.5653,1454.0554,0,38,38,38,1,0.6,0.4,0.8,0.2,1,0,,,,,,,,,,,,,,,,,,,,,,,,,,,,,,,,,,,,
,,60e20b0026ccfc52c0877202,66fc988cd1cbeb8e180b820f,2024-10-01_17h58.45.731,mdp,2024.2.1,Win32,60.24096386,66fa4ebf79326e780c390304,,,,,,,,,,,,,,,,,,,,,1454.0571,1454.0572,1454.0615,1454.8105,1,0,right,0.2283,,1454.8134,1454.8155,1,0,,1454.8179,1454.822,1,0,,1,1454.8221,1454.8222,1454.8269,1456.319,0,39,39,39,1,0.6,0.4,0.8,0.2,1,0,,,,,,,,,,,,,,,,,,,,,,,,,,,,,,,,,,,,
,,60e20b0026ccfc52c0877202,66fc988cd1cbeb8e180b820f,2024-10-01_17h58.45.731,mdp,2024.2.1,Win32,60.24096386,66fa4ebf79326e780c390304,,,,,,,,,,,,,,,,,,,,,1456.3216,1456.3216,1456.3263,1457.1175,1,0,right,0.266,,1457.1205,1457.1223,1,0,,1457.1231,1457.1238,1,0,,1,1457.1239,1457.1239,1457.1246,1458.6168,0,40,40,40,1,0.6,0.4,0.8,0.2,1,0,,,,,,,,,,,,,,,,,,,,,,,,,,,,,,,,,,,,
