init_exp.started,init_exp.stopped,participant,session,date,expName,psychopyVersion,OS,frameRate,study_id,disp_instruction.started,disp_instruction.stopped,instruction.thisRepN,instruction.thisTrialN,instruction.thisN,instruction.thisIndex,instruction.ran,instimg_path,consent.started,consent.stopped,key_resp_3.keys,key_resp_3.rt,key_resp_3.duration,n_steps,sequence_path,init_block.started,init_block.stopped,key_resp.keys,key_resp.rt,key_resp.duration,init_trials.started,init_trials.stopped,step0.started,step0.stopped,act0,s1,res0.keys,res0.rt,res0.duration,step1.started,step1.stopped,act1,s2,res1.keys,step2.started,step2.stopped,act2,s3,res2.keys,rew,reward_comp.started,reward_comp.stopped,reward_disp.started,reward_disp.stopped,trials.thisRepN,trials.thisTrialN,trials.thisN,trials.thisIndex,trials.ran,s00a0s10,s00a0s11,s00a1s10,s00a1s11,rew10,rew11,break_block.started,break_block.stopped,block.thisRepN,block.thisTrialN,block.thisN,block.thisIndex,block.ran,s00path,s10path,s11path,s20path,s21path,res1.rt,res1.duration,s10a0s20,s10a0s21,s10a1s20,s10a1s21,s11a0s20,s11a0s21,s11a1s20,s11a1s21,rew20,rew21,res2.rt,res2.duration,s20a0s30,s20a0s31,s20a1s30,s20a1s31,s21a0s30,s21a0s31,s21a1s30,s21a1s31,rew30,rew31
0.0003,0.0033,60ebfc77adae0f59618d6471,66fcb8260fbd8ab2ef632b03,2024-10-02_05h08.18.052,mdp,2024.2.1,Win32,40,66fa4ebf79326e780c390304,,,,,,,,,,,,,,,,,,,,,,,,,,,,,,,,,,,,,,,,,,,,,,,,,,,,,,,,,,,,,,,,,,,,,,,,,,,,,,,,,,,,,,,,,,,
,,60ebfc77adae0f59618d6471,66fcb8260fbd8ab2ef632b03,2024-10-02_05h08.18.052,mdp,2024.2.1,Win32,40,66fa4ebf79326e780c390304,0.0131,81.4612,0,0,0,0,1,rlnn_exp/rlnn_exp.001.png,,,,,,,,,,,,,,,,,,,,,,,,,,,,,,,,,,,,,,,,,,,,,,,,,,,,,,,,,,,,,,,,,,,,,,,,,,,,,,,,,,,
,,60ebfc77adae0f59618d6471,66fcb8260fbd8ab2ef632b03,2024-10-02_05h08.18.052,mdp,2024.2.1,Win32,40,66fa4ebf79326e780c390304,81.4631,139.6444,0,1,1,1,1,rlnn_exp/rlnn_exp.002.png,,,,,,,,,,,,,,,,,,,,,,,,,,,,,,,,,,,,,,,,,,,,,,,,,,,,,,,,,,,,,,,,,,,,,,,,,,,,,,,,,,,
,,60ebfc77adae0f59618d6471,66fcb8260fbd8ab2ef632b03,2024-10-02_05h08.18.052,mdp,2024.2.1,Win32,40,66fa4ebf79326e780c390304,139.647,202.6798,0,2,2,2,1,rlnn_exp/rlnn_exp.003.png,,,,,,,,,,,,,,,,,,,,,,,,,,,,,,,,,,,,,,,,,,,,,,,,,,,,,,,,,,,,,,,,,,,,,,,,,,,,,,,,,,,
,,60ebfc77adae0f59618d6471,66fcb8260fbd8ab2ef632b03,2024-10-02_05h08.18.052,mdp,2024.2.1,Win32,40,66fa4ebf79326e780c390304,202.6811,245.9131,0,3,3,3,1,rlnn_exp/rlnn_exp.004.png,,,,,,,,,,,,,,,,,,,,,,,,,,,,,,,,,,,,,,,,,,,,,,,,,,,,,,,,,,,,,,,,,,,,,,,,,,,,,,,,,,,
,,60ebfc77adae0f59618d6471,66fcb8260fbd8ab2ef632b03,2024-10-02_05h08.18.052,mdp,2024.2.1,Win32,40,66fa4ebf79326e780c390304,,,,,,,,,245.9151,314.0913,y,58.1015,,,,,,,,,,,,,,,,,,,,,,,,,,,,,,,,,,,,,,,,,,,,,,,,,,,,,,,,,,,,,,,,,,,,,,,,,,,,,,,
,,60ebfc77adae0f59618d6471,66fcb8260fbd8ab2ef632b03,2024-10-02_05h08.18.052,mdp,2024.2.1,Win32,40,66fa4ebf79326e780c390304,,,,,,,,,,,,,,1,seqs/st1seq27.csv,314.1031,328.3625,space,13.7059,,328.3753,328.3757,328.3771,329.7357,0,0,left,0.7942,,329.7369,329.7413,,0,,329.742,329.744,,0,,1,329.7441,329.7443,329.7448,331.2356,0,0,0,0,1,0.6,0.4,0.4,0.6,1,0,,,,,,,,,,,,,,,,,,,,,,,,,,,,,,,,,,,,
,,60ebfc77adae0f59618d6471,66fcb8260fbd8ab2ef632b03,2024-10-02_05h08.18.052,mdp,2024.2.1,Win32,40,66fa4ebf79326e780c390304,,,,,,,,,,,,,,,,,,,,,331.2372,331.2374,331.24,332.8651,1,1,right,1.0823,,332.8696,332.8717,,0,,332.8737,332.8753,,1,,0,332.8755,332.8756,332.8771,334.3603,0,1,1,1,1,0.6,0.4,0.4,0.6,1,0,,,,,,,,,,,,,,,,,,,,,,,,,,,,,,,,,,,,
,,60ebfc77adae0f59618d6471,66fcb8260fbd8ab2ef632b03,2024-10-02_05h08.18.052,mdp,2024.2.1,Win32,40,66fa4ebf79326e780c390304,,,,,,,,,,,,,,,,,,,,,334.3626,334.3627,334.3664,335.5156,0,0,left,0.6289,,335.5191,335.5211,,0,,335.5231,335.5247,,1,,1,335.5248,335.5248,335.5264,337.0099,0,2,2,2,1,0.6,0.4,0.4,0.6,1,0,,,,,,,,,,,,,,,,,,,,,,,,,,,,,,,,,,,,
,,60ebfc77adae0f59618d6471,66fcb8260fbd8ab2ef632b03,2024-10-02_05h08.18.052,mdp,2024.2.1,Win32,40,66fa4ebf79326e780c390304,,,,,,,,,,,,,,,,,,,,,337.0116,337.0117,337.0177,338.1228,0,1,left,0.5717,,338.1239,338.1245,,1,,338.1254,338.126,,0,,0,338.1261,338.1261,338.1267,339.6144,0,3,3,3,1,0.6,0.4,0.4,0.6,1,0,,,,,,,,,,,,,,,,,,,,,,,,,,,,,,,,,,,,
,,60ebfc77adae0f59618d6471,66fcb8260fbd8ab2ef632b03,2024-10-02_05h08.18.052,mdp,2024.2.1,Win32,40,66fa4ebf79326e780c390304,,,,,,,,,,,,,,,,,,,,,339.6156,339.6156,339.6193,341.1185,0,0,left,0.9742,,341.12,341.121,,1,,341.1221,341.1232,,1,,1,341.1233,341.1233,341.1244,342.6073,0,4,4,4,1,0.6,0.4,0.4,0.6,1,0,,,,,,,,,,,,,,,,,,,,,,,,,,,,,,,,,,,,
,,60ebfc77adae0f59618d6471,66fcb8260fbd8ab2ef632b03,2024-10-02_05h08.18.052,mdp,2024.2.1,Win32,40,66fa4ebf79326e780c390304,,,,,,,,,,,,,,,,,,,,,342.6081,342.6082,342.6117,344.2592,0,1,left,1.1123,,344.264,344.266,,1,,344.2681,344.2698,,1,,0,344.2699,344.2699,344.2713,345.7564,0,5,5,5,1,0.2,0.8,0.6,0.4,1,0,,,,,,,,,,,,,,,,,,,,,,,,,,,,,,,,,,,,
,,60ebfc77adae0f59618d6471,66fcb8260fbd8ab2ef632b03,2024-10-02_05h08.18.052,mdp,2024.2.1,Win32,40,66fa4ebf79326e780c390304,,,,,,,,,,,,,,,,,,,,,345.7579,345.758,345.7632,347.3885,1,1,right,1.0844,,347.3913,347.3932,,1,,347.3952,347.3969,,1,,0,347.3971,347.3971,347.3989,348.8952,0,6,6,6,1,0.8,0.2,0.2,0.8,1,0,,,,,,,,,,,,,,,,,,,,,,,,,,,,,,,,,,,,
,,60ebfc77adae0f59618d6471,66fcb8260fbd8ab2ef632b03,2024-10-02_05h08.18.052,mdp,2024.2.1,Win32,40,66fa4ebf79326e780c390304,,,,,,,,,,,,,,,,,,,,,348.896,348.896,348.9003,350.4055,0,1,left,0.976,,350.4098,350.4121,,1,,350.4137,350.415,,1,,0,350.4152,350.4152,350.4165,351.9042,0,7,7,7,1,0.8,0.2,0.2,0.8,1,0,,,,,,,,,,,,,,,,,,,,,,,,,,,,,,,,,,,,
,,60ebfc77adae0f59618d6471,66fcb8260fbd8ab2ef632b03,2024-10-02_05h08.18.052,mdp,2024.2.1,Win32,40,66fa4ebf79326e780c390304,,,,,,,,,,,,,,,,,,,,,351.9054,351.906,351.9114,353.312,0,1,left,0.8619,,353.3146,353.3165,,0,,353.3198,353.3222,,1,,0,353.3224,353.3225,353.325,354.8282,0,8,8,8,1,0.8,0.2,0.2,0.8,1,0,,,,,,,,,,,,,,,,,,,,,,,,,,,,,,,,,,,,
,,60ebfc77adae0f59618d6471,66fcb8260fbd8ab2ef632b03,2024-10-02_05h08.18.052,mdp,2024.2.1,Win32,40,66fa4ebf79326e780c390304,,,,,,,,,,,,,,,,,,,,,354.8287,354.8288,354.8321,356.1537,1,1,right,0.7834,,356.1558,356.1576,,0,,356.1588,356.1598,,1,,0,356.1599,356.1599,356.1609,357.6529,0,9,9,9,1,0.8,0.2,0.2,0.8,1,0,,,,,,,,,,,,,,,,,,,,,,,,,,,,,,,,,,,,
,,60ebfc77adae0f59618d6471,66fcb8260fbd8ab2ef632b03,2024-10-02_05h08.18.052,mdp,2024.2.1,Win32,40,66fa4ebf79326e780c390304,,,,,,,,,,,,,,,,,,,,,357.6539,357.6541,357.6577,359.0038,0,0,left,0.8057,,359.0068,359.008,,1,,359.0092,359.0103,,0,,1,359.0104,359.0105,359.0114,360.5031,0,10,10,10,1,0.8,0.2,0.2,0.8,1,0,,,,,,,,,,,,,,,,,,,,,,,,,,,,,,,,,,,,
,,60ebfc77adae0f59618d6471,66fcb8260fbd8ab2ef632b03,2024-10-02_05h08.18.052,mdp,2024.2.1,Win32,40,66fa4ebf79326e780c390304,,,,,,,,,,,,,,,,,,,,,360.5051,360.5052,360.51,361.752,0,1,left,0.7028,,361.7548,361.756,,0,,361.7574,361.7583,,0,,0,361.7584,361.7584,361.7592,363.2507,0,11,11,11,1,0.6,0.4,0.6,0.4,1,0,,,,,,,,,,,,,,,,,,,,,,,,,,,,,,,,,,,,
,,60ebfc77adae0f59618d6471,66fcb8260fbd8ab2ef632b03,2024-10-02_05h08.18.052,mdp,2024.2.1,Win32,40,66fa4ebf79326e780c390304,,,,,,,,,,,,,,,,,,,,,363.2517,363.2517,363.255,364.9751,0,1,left,1.1753,,364.9781,364.9794,,0,,364.9804,364.9812,,1,,0,364.9812,364.9812,364.9819,366.4749,0,12,12,12,1,0.6,0.4,0.6,0.4,1,0,,,,,,,,,,,,,,,,,,,,,,,,,,,,,,,,,,,,
,,60ebfc77adae0f59618d6471,66fcb8260fbd8ab2ef632b03,2024-10-02_05h08.18.052,mdp,2024.2.1,Win32,40,66fa4ebf79326e780c390304,,,,,,,,,,,,,,,,,,,,,366.4758,366.4759,366.4791,367.9,1,0,right,0.8671,,367.9027,367.9038,,1,,367.9048,367.9054,,1,,1,367.9054,367.9055,367.9062,369.3993,0,13,13,13,1,0.6,0.4,0.6,0.4,1,0,,,,,,,,,,,,,,,,,,,,,,,,,,,,,,,,,,,,
,,60ebfc77adae0f59618d6471,66fcb8260fbd8ab2ef632b03,2024-10-02_05h08.18.052,mdp,2024.2.1,Win32,40,66fa4ebf79326e780c390304,,,,,,,,,,,,,,,,,,,,,369.3999,369.3999,369.4029,370.899,1,0,right,0.955,,370.9023,370.9034,,0,,370.9045,370.9053,,0,,1,370.9054,370.9054,370.9063,372.4001,0,14,14,14,1,0.8,0.2,0.8,0.2,1,0,,,,,,,,,,,,,,,,,,,,,,,,,,,,,,,,,,,,
,,60ebfc77adae0f59618d6471,66fcb8260fbd8ab2ef632b03,2024-10-02_05h08.18.052,mdp,2024.2.1,Win32,40,66fa4ebf79326e780c390304,,,,,,,,,,,,,,,,,,,,,372.4018,372.4019,372.4056,373.6051,1,1,right,0.6611,,373.6075,373.6089,,0,,373.6107,373.612,,0,,0,373.612,373.6121,373.6135,375.0975,0,15,15,15,1,0.8,0.2,0.8,0.2,1,0,,,,,,,,,,,,,,,,,,,,,,,,,,,,,,,,,,,,
,,60ebfc77adae0f59618d6471,66fcb8260fbd8ab2ef632b03,2024-10-02_05h08.18.052,mdp,2024.2.1,Win32,40,66fa4ebf79326e780c390304,,,,,,,,,,,,,,,,,,,,,375.0986,375.0987,375.1015,376.4808,1,1,right,0.8458,,376.4831,376.4846,,0,,376.4864,376.4879,,0,,0,376.488,376.488,376.4898,377.9732,0,16,16,16,1,0.8,0.2,0.8,0.2,1,0,,,,,,,,,,,,,,,,,,,,,,,,,,,,,,,,,,,,
,,60ebfc77adae0f59618d6471,66fcb8260fbd8ab2ef632b03,2024-10-02_05h08.18.052,mdp,2024.2.1,Win32,40,66fa4ebf79326e780c390304,,,,,,,,,,,,,,,,,,,,,377.9749,377.975,377.979,379.0044,0,0,left,0.4879,,379.0067,379.0084,,0,,379.0109,379.013,,1,,1,379.0132,379.0133,379.0156,380.4956,0,17,17,17,1,0.8,0.2,0.8,0.2,1,0,,,,,,,,,,,,,,,,,,,,,,,,,,,,,,,,,,,,
,,60ebfc77adae0f59618d6471,66fcb8260fbd8ab2ef632b03,2024-10-02_05h08.18.052,mdp,2024.2.1,Win32,40,66fa4ebf79326e780c390304,,,,,,,,,,,,,,,,,,,,,380.4973,380.4974,380.5023,381.6785,0,0,left,0.6429,,381.6815,381.6833,,0,,381.6852,381.687,,1,,1,381.6871,381.6871,381.6905,383.1698,0,18,18,18,1,0.8,0.2,0.8,0.2,1,0,,,,,,,,,,,,,,,,,,,,,,,,,,,,,,,,,,,,
,,60ebfc77adae0f59618d6471,66fcb8260fbd8ab2ef632b03,2024-10-02_05h08.18.052,mdp,2024.2.1,Win32,40,66fa4ebf79326e780c390304,,,,,,,,,,,,,,,,,,,,,383.1704,383.1705,383.1738,384.3951,0,0,left,0.6935,,384.3973,384.3989,,0,,384.4,384.4007,,0,,1,384.4007,384.4007,384.4013,385.8948,0,19,19,19,1,0.8,0.2,0.8,0.2,1,0,,,,,,,,,,,,,,,,,,,,,,,,,,,,,,,,,,,,
,,60ebfc77adae0f59618d6471,66fcb8260fbd8ab2ef632b03,2024-10-02_05h08.18.052,mdp,2024.2.1,Win32,40,66fa4ebf79326e780c390304,,,,,,,,,,,,,,,,,,,,,385.8959,385.8959,385.8988,387.0942,0,1,left,0.6467,,387.0969,387.0982,,1,,387.0991,387.0998,,1,,0,387.1,387.1,387.1007,388.5937,0,20,20,20,1,0.2,0.8,0.6,0.4,1,0,,,,,,,,,,,,,,,,,,,,,,,,,,,,,,,,,,,,
,,60ebfc77adae0f59618d6471,66fcb8260fbd8ab2ef632b03,2024-10-02_05h08.18.052,mdp,2024.2.1,Win32,40,66fa4ebf79326e780c390304,,,,,,,,,,,,,,,,,,,,,388.5955,388.5956,388.5993,389.8436,1,1,right,0.6995,,389.8467,389.8482,,0,,389.8493,389.8503,,1,,0,389.8503,389.8503,389.8515,391.3428,0,21,21,21,1,0.2,0.8,0.6,0.4,1,0,,,,,,,,,,,,,,,,,,,,,,,,,,,,,,,,,,,,
,,60ebfc77adae0f59618d6471,66fcb8260fbd8ab2ef632b03,2024-10-02_05h08.18.052,mdp,2024.2.1,Win32,40,66fa4ebf79326e780c390304,,,,,,,,,,,,,,,,,,,,,391.3435,391.3435,391.3463,392.4447,0,1,left,0.5616,,392.4492,392.4508,,0,,392.4524,392.4538,,0,,0,392.4538,392.4538,392.4552,393.9413,0,22,22,22,1,0.2,0.8,0.6,0.4,1,0,,,,,,,,,,,,,,,,,,,,,,,,,,,,,,,,,,,,
,,60ebfc77adae0f59618d6471,66fcb8260fbd8ab2ef632b03,2024-10-02_05h08.18.052,mdp,2024.2.1,Win32,40,66fa4ebf79326e780c390304,,,,,,,,,,,,,,,,,,,,,393.9421,393.9421,393.9444,395.1912,0,0,left,0.7031,,395.1944,395.1956,,1,,395.1967,395.1975,,1,,1,395.1975,395.1975,395.1982,396.6905,0,23,23,23,1,0.2,0.8,0.6,0.4,1,0,,,,,,,,,,,,,,,,,,,,,,,,,,,,,,,,,,,,
,,60ebfc77adae0f59618d6471,66fcb8260fbd8ab2ef632b03,2024-10-02_05h08.18.052,mdp,2024.2.1,Win32,40,66fa4ebf79326e780c390304,,,,,,,,,,,,,,,,,,,,,396.6918,396.6918,396.6952,397.8163,0,1,left,0.5805,,397.8202,397.8214,,1,,397.8224,397.8233,,0,,0,397.8234,397.8234,397.8244,399.3146,0,24,24,24,1,0.2,0.8,0.6,0.4,1,0,,,,,,,,,,,,,,,,,,,,,,,,,,,,,,,,,,,,
,,60ebfc77adae0f59618d6471,66fcb8260fbd8ab2ef632b03,2024-10-02_05h08.18.052,mdp,2024.2.1,Win32,40,66fa4ebf79326e780c390304,,,,,,,,,,,,,,,,,,,,,399.3158,399.3159,399.3198,400.3468,1,1,right,0.5058,,400.349,400.3507,,0,,400.3524,400.3537,,0,,0,400.3538,400.3538,400.3551,401.8408,0,25,25,25,1,0.2,0.8,0.6,0.4,1,0,,,,,,,,,,,,,,,,,,,,,,,,,,,,,,,,,,,,
,,60ebfc77adae0f59618d6471,66fcb8260fbd8ab2ef632b03,2024-10-02_05h08.18.052,mdp,2024.2.1,Win32,40,66fa4ebf79326e780c390304,,,,,,,,,,,,,,,,,,,,,401.8421,401.8422,401.8475,403.1205,1,0,right,0.7352,,403.1221,403.1234,,1,,403.1246,403.1258,,1,,1,403.1259,403.1259,403.1269,404.614,0,26,26,26,1,0.6,0.4,0.4,0.6,1,0,,,,,,,,,,,,,,,,,,,,,,,,,,,,,,,,,,,,
,,60ebfc77adae0f59618d6471,66fcb8260fbd8ab2ef632b03,2024-10-02_05h08.18.052,mdp,2024.2.1,Win32,40,66fa4ebf79326e780c390304,,,,,,,,,,,,,,,,,,,,,404.6145,404.6146,404.6172,405.9934,1,0,right,0.8397,,405.9969,405.999,,1,,406.0015,406.0034,,0,,1,406.0035,406.0035,406.0055,407.4897,0,27,27,27,1,0.6,0.4,0.4,0.6,1,0,,,,,,,,,,,,,,,,,,,,,,,,,,,,,,,,,,,,
,,60ebfc77adae0f59618d6471,66fcb8260fbd8ab2ef632b03,2024-10-02_05h08.18.052,mdp,2024.2.1,Win32,40,66fa4ebf79326e780c390304,,,,,,,,,,,,,,,,,,,,,407.491,407.491,407.4961,408.5389,1,1,right,0.5064,,408.5434,408.5449,,0,,408.5464,408.5476,,0,,0,408.5477,408.5477,408.5491,410.0498,0,28,28,28,1,0.6,0.4,0.4,0.6,1,0,,,,,,,,,,,,,,,,,,,,,,,,,,,,,,,,,,,,
,,60ebfc77adae0f59618d6471,66fcb8260fbd8ab2ef632b03,2024-10-02_05h08.18.052,mdp,2024.2.1,Win32,40,66fa4ebf79326e780c390304,,,,,,,,,,,,,,,,,,,,,410.0508,410.0508,410.0525,411.127,0,0,left,0.5295,,411.1285,411.1295,,1,,411.1308,411.1318,,1,,1,411.1318,411.1319,411.1328,412.6545,0,29,29,29,1,0.4,0.6,0.6,0.4,1,0,,,,,,,,,,,,,,,,,,,,,,,,,,,,,,,,,,,,
,,60ebfc77adae0f59618d6471,66fcb8260fbd8ab2ef632b03,2024-10-02_05h08.18.052,mdp,2024.2.1,Win32,40,66fa4ebf79326e780c390304,,,,,,,,,,,,,,,,,,,,,412.6557,412.6557,412.6594,413.7872,0,0,left,0.6068,,413.7915,413.7936,,1,,413.7951,413.7966,,0,,1,413.7966,413.7967,413.798,415.2868,0,30,30,30,1,0.4,0.6,0.6,0.4,1,0,,,,,,,,,,,,,,,,,,,,,,,,,,,,,,,,,,,,
,,60ebfc77adae0f59618d6471,66fcb8260fbd8ab2ef632b03,2024-10-02_05h08.18.052,mdp,2024.2.1,Win32,40,66fa4ebf79326e780c390304,,,,,,,,,,,,,,,,,,,,,415.2893,415.2893,415.2928,416.3596,0,0,left,0.5293,,416.3645,416.3659,,0,,416.3676,416.3688,,1,,1,416.3689,416.3689,416.371,417.8601,0,31,31,31,1,0.4,0.6,0.6,0.4,1,0,,,,,,,,,,,,,,,,,,,,,,,,,,,,,,,,,,,,
,,60ebfc77adae0f59618d6471,66fcb8260fbd8ab2ef632b03,2024-10-02_05h08.18.052,mdp,2024.2.1,Win32,40,66fa4ebf79326e780c390304,,,,,,,,,,,,,,,,,,,,,417.8621,417.8623,417.8658,419.0355,0,1,left,0.6279,,419.04,419.0415,,0,,419.043,419.0443,,0,,0,419.0444,419.0444,419.0457,420.5351,0,32,32,32,1,0.8,0.2,0.8,0.2,1,0,,,,,,,,,,,,,,,,,,,,,,,,,,,,,,,,,,,,
,,60ebfc77adae0f59618d6471,66fcb8260fbd8ab2ef632b03,2024-10-02_05h08.18.052,mdp,2024.2.1,Win32,40,66fa4ebf79326e780c390304,,,,,,,,,,,,,,,,,,,,,420.5363,420.5364,420.5409,421.8098,1,0,right,0.7334,,421.8142,421.8156,,0,,421.8171,421.8181,,0,,1,421.8183,421.8183,421.8195,423.3074,0,33,33,33,1,0.8,0.2,0.8,0.2,1,0,,,,,,,,,,,,,,,,,,,,,,,,,,,,,,,,,,,,
,,60ebfc77adae0f59618d6471,66fcb8260fbd8ab2ef632b03,2024-10-02_05h08.18.052,mdp,2024.2.1,Win32,40,66fa4ebf79326e780c390304,,,,,,,,,,,,,,,,,,,,,423.3085,423.3085,423.3118,424.5823,1,0,right,0.7224,,424.585,424.5871,,1,,424.5882,424.5891,,1,,1,424.5892,424.5892,424.5901,426.0826,0,34,34,34,1,0.6,0.4,0.2,0.8,1,0,,,,,,,,,,,,,,,,,,,,,,,,,,,,,,,,,,,,
,,60ebfc77adae0f59618d6471,66fcb8260fbd8ab2ef632b03,2024-10-02_05h08.18.052,mdp,2024.2.1,Win32,40,66fa4ebf79326e780c390304,,,,,,,,,,,,,,,,,,,,,426.0832,426.0832,426.0857,427.3066,1,1,right,0.6864,,427.3099,427.3116,,1,,427.3127,427.3135,,1,,0,427.3136,427.3136,427.3145,428.8076,0,35,35,35,1,0.6,0.4,0.2,0.8,1,0,,,,,,,,,,,,,,,,,,,,,,,,,,,,,,,,,,,,
,,60ebfc77adae0f59618d6471,66fcb8260fbd8ab2ef632b03,2024-10-02_05h08.18.052,mdp,2024.2.1,Win32,40,66fa4ebf79326e780c390304,,,,,,,,,,,,,,,,,,,,,428.8086,428.8087,428.8111,429.7906,0,0,left,0.44,,429.793,429.7947,,0,,429.7966,429.7983,,1,,1,429.7984,429.7984,429.8002,431.2805,0,36,36,36,1,0.6,0.4,0.2,0.8,1,0,,,,,,,,,,,,,,,,,,,,,,,,,,,,,,,,,,,,
,,60ebfc77adae0f59618d6471,66fcb8260fbd8ab2ef632b03,2024-10-02_05h08.18.052,mdp,2024.2.1,Win32,40,66fa4ebf79326e780c390304,,,,,,,,,,,,,,,,,,,,,431.2822,431.2822,431.287,432.33,0,0,left,0.4945,,432.3324,432.334,,1,,432.3349,432.3355,,0,,1,432.3356,432.3356,432.3362,433.8333,0,37,37,37,1,0.6,0.4,0.2,0.8,1,0,,,,,,,,,,,,,,,,,,,,,,,,,,,,,,,,,,,,
,,60ebfc77adae0f59618d6471,66fcb8260fbd8ab2ef632b03,2024-10-02_05h08.18.052,mdp,2024.2.1,Win32,40,66fa4ebf79326e780c390304,,,,,,,,,,,,,,,,,,,,,433.8365,433.8369,433.8404,434.8545,0,0,left,0.4824,,434.8589,434.8602,,0,,434.8613,434.8622,,1,,1,434.8623,434.8623,434.8632,436.3557,0,38,38,38,1,0.8,0.2,0.6,0.4,1,0,,,,,,,,,,,,,,,,,,,,,,,,,,,,,,,,,,,,
,,60ebfc77adae0f59618d6471,66fcb8260fbd8ab2ef632b03,2024-10-02_05h08.18.052,mdp,2024.2.1,Win32,40,66fa4ebf79326e780c390304,,,,,,,,,,,,,,,,,,,,,436.3572,436.3573,436.362,437.3323,1,1,right,0.4373,,437.3344,437.3355,,0,,437.3371,437.3381,,0,,0,437.3382,437.3382,437.3395,438.8285,0,39,39,39,1,0.6,0.4,0.4,0.6,1,0,,,,,,,,,,,,,,,,,,,,,,,,,,,,,,,,,,,,
,,60ebfc77adae0f59618d6471,66fcb8260fbd8ab2ef632b03,2024-10-02_05h08.18.052,mdp,2024.2.1,Win32,40,66fa4ebf79326e780c390304,,,,,,,,,,,,,,,,,,,,,438.8293,438.8294,438.8344,439.8293,0,1,left,0.4631,,439.833,439.8341,,0,,439.8352,439.8362,,1,,0,439.8363,439.8364,439.8375,441.3293,0,40,40,40,1,0.4,0.6,0.6,0.4,1,0,,,,,,,,,,,,,,,,,,,,,,,,,,,,,,,,,,,,
,,60ebfc77adae0f59618d6471,66fcb8260fbd8ab2ef632b03,2024-10-02_05h08.18.052,mdp,2024.2.1,Win32,40,66fa4ebf79326e780c390304,,,,,,,,,,,,,,,,,,,,,441.3305,441.3306,441.3345,442.3331,1,0,right,0.4519,,442.3353,442.3366,,1,,442.3382,442.3395,,1,,1,442.3396,442.3396,442.341,443.8455,0,41,41,41,1,0.4,0.6,0.6,0.4,1,0,,,,,,,,,,,,,,,,,,,,,,,,,,,,,,,,,,,,
,,60ebfc77adae0f59618d6471,66fcb8260fbd8ab2ef632b03,2024-10-02_05h08.18.052,mdp,2024.2.1,Win32,40,66fa4ebf79326e780c390304,,,,,,,,,,,,,,,,,,,,,443.847,443.8471,443.8493,445.0439,1,0,right,0.6561,,445.0454,445.0467,,1,,445.0478,445.0489,,1,,1,445.0489,445.0489,445.0501,446.5407,0,42,42,42,1,0.4,0.6,0.6,0.4,1,0,,,,,,,,,,,,,,,,,,,,,,,,,,,,,,,,,,,,
,,60ebfc77adae0f59618d6471,66fcb8260fbd8ab2ef632b03,2024-10-02_05h08.18.052,mdp,2024.2.1,Win32,40,66fa4ebf79326e780c390304,,,,,,,,,,,,,,,,,,,,,446.5419,446.5419,446.544,447.6059,1,0,right,0.5434,,447.6073,447.6084,,0,,447.6095,447.6104,,1,,1,447.6105,447.6105,447.6114,449.1011,0,43,43,43,1,0.4,0.6,0.6,0.4,1,0,,,,,,,,,,,,,,,,,,,,,,,,,,,,,,,,,,,,
,,60ebfc77adae0f59618d6471,66fcb8260fbd8ab2ef632b03,2024-10-02_05h08.18.052,mdp,2024.2.1,Win32,40,66fa4ebf79326e780c390304,,,,,,,,,,,,,,,,,,,,,449.1022,449.1022,449.1046,450.2673,0,1,left,0.6208,,450.2686,450.2694,,1,,450.2703,450.2712,,1,,0,450.2712,450.2713,450.2723,451.7537,0,44,44,44,1,0.4,0.6,0.6,0.4,1,0,,,,,,,,,,,,,,,,,,,,,,,,,,,,,,,,,,,,
,,60ebfc77adae0f59618d6471,66fcb8260fbd8ab2ef632b03,2024-10-02_05h08.18.052,mdp,2024.2.1,Win32,40,66fa4ebf79326e780c390304,,,,,,,,,,,,,,,,,,,,,451.7562,451.7562,451.7587,453.0133,0,0,left,0.727,,453.016,453.0181,,0,,453.0203,453.0224,,0,,1,453.0224,453.0225,453.0258,454.5248,0,45,45,45,1,0.4,0.6,0.6,0.4,1,0,,,,,,,,,,,,,,,,,,,,,,,,,,,,,,,,,,,,
,,60ebfc77adae0f59618d6471,66fcb8260fbd8ab2ef632b03,2024-10-02_05h08.18.052,mdp,2024.2.1,Win32,40,66fa4ebf79326e780c390304,,,,,,,,,,,,,,,,,,,,,454.5273,454.5273,454.5304,455.8239,0,0,left,0.7552,,455.8287,455.8313,,1,,455.8332,455.8345,,0,,1,455.8346,455.8347,455.836,457.3231,0,46,46,46,1,0.4,0.6,0.6,0.4,1,0,,,,,,,,,,,,,,,,,,,,,,,,,,,,,,,,,,,,
,,60ebfc77adae0f59618d6471,66fcb8260fbd8ab2ef632b03,2024-10-02_05h08.18.052,mdp,2024.2.1,Win32,40,66fa4ebf79326e780c390304,,,,,,,,,,,,,,,,,,,,,457.3244,457.3245,457.3291,458.5231,0,0,left,0.6486,,458.5251,458.5266,,1,,458.5275,458.5281,,0,,1,458.5282,458.5282,458.5288,460.0219,0,47,47,47,1,0.4,0.6,0.6,0.4,1,0,,,,,,,,,,,,,,,,,,,,,,,,,,,,,,,,,,,,
,,60ebfc77adae0f59618d6471,66fcb8260fbd8ab2ef632b03,2024-10-02_05h08.18.052,mdp,2024.2.1,Win32,40,66fa4ebf79326e780c390304,,,,,,,,,,,,,,,,,,,,,460.0224,460.0225,460.0251,461.1725,1,0,right,0.6228,,461.1744,461.1763,,0,,461.1776,461.1784,,0,,1,461.1785,461.1785,461.1791,462.6719,0,48,48,48,1,0.4,0.6,0.6,0.4,1,0,,,,,,,,,,,,,,,,,,,,,,,,,,,,,,,,,,,,
,,60ebfc77adae0f59618d6471,66fcb8260fbd8ab2ef632b03,2024-10-02_05h08.18.052,mdp,2024.2.1,Win32,40,66fa4ebf79326e780c390304,,,,,,,,,,,,,,,,,,,,,462.6738,462.6739,462.6772,463.9463,1,0,right,0.7307,,463.95,463.9515,,0,,463.9531,463.9544,,0,,1,463.9544,463.9544,463.9558,465.4485,0,49,49,49,1,0.4,0.6,0.6,0.4,1,0,,,,,,,,,,,,,,,,,,,,,,,,,,,,,,,,,,,,
,,60ebfc77adae0f59618d6471,66fcb8260fbd8ab2ef632b03,2024-10-02_05h08.18.052,mdp,2024.2.1,Win32,40,66fa4ebf79326e780c390304,,,,,,,,,,,,,,,,,,,,,,,,,,,,,,,,,,,,,,,,,,,,,,,,,,,,,,,,465.4516,523.9806,0,0,0,7,1,imgs/rabbit.png,imgs/squirrel.png,imgs/lion.png,imgs/goat.png,imgs/cat.png,,,,,,,,,,,,,,,,,,,,,,,,
,,60ebfc77adae0f59618d6471,66fcb8260fbd8ab2ef632b03,2024-10-02_05h08.18.052,mdp,2024.2.1,Win32,40,66fa4ebf79326e780c390304,,,,,,,,,,,,,,2,seqs/st2seq36.csv,523.9841,528.3783,space,3.8355,,528.387,528.3871,528.3886,529.7781,1,0,right,0.8243,,529.7802,531.4278,0,1,left,531.4298,531.431,,1,,0,531.431,531.431,531.432,532.9271,0,0,0,0,1,0.8,0.2,0.2,0.8,,,,,,,,,,,,,,,1.07,,0.2,0.8,0.8,0.2,0.2,0.8,0.4,0.6,1,0,,,,,,,,,,,,
,,60ebfc77adae0f59618d6471,66fcb8260fbd8ab2ef632b03,2024-10-02_05h08.18.052,mdp,2024.2.1,Win32,40,66fa4ebf79326e780c390304,,,,,,,,,,,,,,,,,,,,,532.9281,532.9282,532.9304,534.4143,0,1,left,0.9315,,534.4154,535.8265,0,1,left,535.8282,535.8295,,0,,0,535.8296,535.8296,535.8304,537.3357,0,1,1,1,1,0.8,0.2,0.2,0.8,,,,,,,,,,,,,,,0.849,,0.2,0.8,0.8,0.2,0.2,0.8,0.4,0.6,1,0,,,,,,,,,,,,
,,60ebfc77adae0f59618d6471,66fcb8260fbd8ab2ef632b03,2024-10-02_05h08.18.052,mdp,2024.2.1,Win32,40,66fa4ebf79326e780c390304,,,,,,,,,,,,,,,,,,,,,537.3363,537.3363,537.339,538.7113,0,0,left,0.8304,,538.7134,540.1282,1,0,right,540.1294,540.1302,,0,,1,540.1303,540.1303,540.1312,541.6353,0,2,2,2,1,0.8,0.2,0.2,0.8,,,,,,,,,,,,,,,0.8704,,0.2,0.8,0.8,0.2,0.2,0.8,0.4,0.6,1,0,,,,,,,,,,,,
,,60ebfc77adae0f59618d6471,66fcb8260fbd8ab2ef632b03,2024-10-02_05h08.18.052,mdp,2024.2.1,Win32,40,66fa4ebf79326e780c390304,,,,,,,,,,,,,,,,,,,,,541.6359,541.6359,541.6391,542.8527,0,0,left,0.6979,,542.8539,544.0525,1,0,right,544.0535,544.0543,,0,,1,544.0544,544.0544,544.0552,545.56,0,3,3,3,1,0.8,0.2,0.2,0.8,,,,,,,,,,,,,,,0.66,,0.2,0.8,0.8,0.2,0.2,0.8,0.4,0.6,1,0,,,,,,,,,,,,
,,60ebfc77adae0f59618d6471,66fcb8260fbd8ab2ef632b03,2024-10-02_05h08.18.052,mdp,2024.2.1,Win32,40,66fa4ebf79326e780c390304,,,,,,,,,,,,,,,,,,,,,545.5606,545.5606,545.5631,546.7017,0,0,left,0.6016,,546.7044,547.9825,0,0,left,547.9835,547.9842,,1,,1,547.9843,547.9843,547.9851,549.471,0,4,4,4,1,0.8,0.2,0.2,0.8,,,,,,,,,,,,,,,0.7383,,0.2,0.8,0.8,0.2,0.2,0.8,0.4,0.6,1,0,,,,,,,,,,,,
,,60ebfc77adae0f59618d6471,66fcb8260fbd8ab2ef632b03,2024-10-02_05h08.18.052,mdp,2024.2.1,Win32,40,66fa4ebf79326e780c390304,,,,,,,,,,,,,,,,,,,,,549.4721,549.4722,549.4743,550.5326,0,0,left,0.502,,550.5346,551.8283,0,1,left,551.8295,551.8304,,1,,0,551.8306,551.8306,551.8315,553.3296,0,5,5,5,1,0.8,0.2,0.2,0.8,,,,,,,,,,,,,,,0.7706,,0.2,0.8,0.8,0.2,0.2,0.8,0.4,0.6,1,0,,,,,,,,,,,,
,,60ebfc77adae0f59618d6471,66fcb8260fbd8ab2ef632b03,2024-10-02_05h08.18.052,mdp,2024.2.1,Win32,40,66fa4ebf79326e780c390304,,,,,,,,,,,,,,,,,,,,,553.3303,553.3303,553.3334,554.2718,0,1,left,0.4084,,554.2744,555.6029,1,0,right,555.6059,555.6072,,1,,1,555.6074,555.6074,555.6085,557.0937,0,6,6,6,1,0.8,0.2,0.2,0.8,,,,,,,,,,,,,,,0.7613,,0.8,0.2,0.2,0.8,0.2,0.8,0.4,0.6,1,0,,,,,,,,,,,,
,,60ebfc77adae0f59618d6471,66fcb8260fbd8ab2ef632b03,2024-10-02_05h08.18.052,mdp,2024.2.1,Win32,40,66fa4ebf79326e780c390304,,,,,,,,,,,,,,,,,,,,,557.0946,557.0947,557.0974,558.1549,0,0,left,0.502,,558.1575,559.5038,0,0,left,559.5048,559.5054,,1,,1,559.5055,559.5055,559.5063,560.9949,0,7,7,7,1,0.8,0.2,0.2,0.8,,,,,,,,,,,,,,,0.8104,,0.8,0.2,0.2,0.8,0.2,0.8,0.4,0.6,1,0,,,,,,,,,,,,
,,60ebfc77adae0f59618d6471,66fcb8260fbd8ab2ef632b03,2024-10-02_05h08.18.052,mdp,2024.2.1,Win32,40,66fa4ebf79326e780c390304,,,,,,,,,,,,,,,,,,,,,560.9959,560.996,560.999,562.026,0,0,left,0.4783,,562.0296,563.3313,1,1,right,563.3338,563.3352,,0,,0,563.3353,563.3353,563.3364,564.8175,0,8,8,8,1,0.8,0.2,0.2,0.8,,,,,,,,,,,,,,,0.7572,,0.8,0.2,0.2,0.8,0.2,0.8,0.4,0.6,1,0,,,,,,,,,,,,
,,60ebfc77adae0f59618d6471,66fcb8260fbd8ab2ef632b03,2024-10-02_05h08.18.052,mdp,2024.2.1,Win32,40,66fa4ebf79326e780c390304,,,,,,,,,,,,,,,,,,,,,564.818,564.8182,564.8214,565.8709,0,1,left,0.5307,,565.8736,567.4711,1,1,right,567.4732,567.4747,,1,,0,567.4748,567.4748,567.4756,568.9655,0,9,9,9,1,0.8,0.2,0.2,0.8,,,,,,,,,,,,,,,1.059,,0.8,0.2,0.2,0.8,0.2,0.8,0.4,0.6,1,0,,,,,,,,,,,,
,,60ebfc77adae0f59618d6471,66fcb8260fbd8ab2ef632b03,2024-10-02_05h08.18.052,mdp,2024.2.1,Win32,40,66fa4ebf79326e780c390304,,,,,,,,,,,,,,,,,,,,,568.9661,568.9662,568.969,569.9478,0,0,left,0.4257,,569.9508,571.3028,0,1,left,571.3054,571.3066,,0,,0,571.3067,571.3067,571.3076,572.7999,0,10,10,10,1,0.8,0.2,0.2,0.8,,,,,,,,,,,,,,,0.811,,0.8,0.2,0.2,0.8,0.6,0.4,0.8,0.2,1,0,,,,,,,,,,,,
,,60ebfc77adae0f59618d6471,66fcb8260fbd8ab2ef632b03,2024-10-02_05h08.18.052,mdp,2024.2.1,Win32,40,66fa4ebf79326e780c390304,,,,,,,,,,,,,,,,,,,,,572.8005,572.8005,572.8037,573.797,0,0,left,0.4543,,573.799,574.9526,1,1,right,574.9546,574.956,,0,,0,574.9561,574.9561,574.9569,576.4387,0,11,11,11,1,0.8,0.2,0.2,0.8,,,,,,,,,,,,,,,0.5971,,0.8,0.2,0.2,0.8,0.6,0.4,0.8,0.2,1,0,,,,,,,,,,,,
,,60ebfc77adae0f59618d6471,66fcb8260fbd8ab2ef632b03,2024-10-02_05h08.18.052,mdp,2024.2.1,Win32,40,66fa4ebf79326e780c390304,,,,,,,,,,,,,,,,,,,,,576.4394,576.4395,576.4425,577.3264,0,1,left,0.3427,,577.3294,578.6452,1,0,right,578.6473,578.6488,,0,,1,578.6489,578.6489,578.6497,580.1501,0,12,12,12,1,0.8,0.2,0.2,0.8,,,,,,,,,,,,,,,0.7677,,0.8,0.2,0.2,0.8,0.6,0.4,0.8,0.2,1,0,,,,,,,,,,,,
,,60ebfc77adae0f59618d6471,66fcb8260fbd8ab2ef632b03,2024-10-02_05h08.18.052,mdp,2024.2.1,Win32,40,66fa4ebf79326e780c390304,,,,,,,,,,,,,,,,,,,,,580.1509,580.151,580.1538,581.2249,0,0,left,0.5358,,581.2284,582.5702,0,0,left,582.572,582.5735,,0,,1,582.5735,582.5736,582.5744,584.0712,0,13,13,13,1,0.8,0.2,0.2,0.8,,,,,,,,,,,,,,,0.7898,,0.8,0.2,0.2,0.8,0.6,0.4,0.8,0.2,1,0,,,,,,,,,,,,
,,60ebfc77adae0f59618d6471,66fcb8260fbd8ab2ef632b03,2024-10-02_05h08.18.052,mdp,2024.2.1,Win32,40,66fa4ebf79326e780c390304,,,,,,,,,,,,,,,,,,,,,584.0718,584.0718,584.0744,585.0694,0,1,left,0.4638,,585.0725,586.3173,1,1,right,586.3193,586.3208,,0,,0,586.321,586.321,586.3218,587.8199,0,14,14,14,1,0.8,0.2,0.2,0.8,,,,,,,,,,,,,,,0.6773,,0.8,0.2,0.2,0.8,0.6,0.4,0.8,0.2,1,0,,,,,,,,,,,,
,,60ebfc77adae0f59618d6471,66fcb8260fbd8ab2ef632b03,2024-10-02_05h08.18.052,mdp,2024.2.1,Win32,40,66fa4ebf79326e780c390304,,,,,,,,,,,,,,,,,,,,,587.8204,587.8204,587.8235,588.7685,0,0,left,0.4003,,588.7716,590.0638,0,0,left,590.0648,590.0656,,1,,1,590.0657,590.0657,590.0666,591.5624,0,15,15,15,1,0.8,0.2,0.2,0.8,,,,,,,,,,,,,,,0.7688,,0.8,0.2,0.2,0.8,0.4,0.6,0.6,0.4,1,0,,,,,,,,,,,,
,,60ebfc77adae0f59618d6471,66fcb8260fbd8ab2ef632b03,2024-10-02_05h08.18.052,mdp,2024.2.1,Win32,40,66fa4ebf79326e780c390304,,,,,,,,,,,,,,,,,,,,,591.5636,591.5636,591.5663,592.4969,0,0,left,0.373,,592.5008,593.559,0,0,left,593.5616,593.5625,,0,,1,593.5625,593.5626,593.5633,595.0462,0,16,16,16,1,0.8,0.2,0.2,0.8,,,,,,,,,,,,,,,0.5376,,0.8,0.2,0.2,0.8,0.2,0.8,0.8,0.2,1,0,,,,,,,,,,,,
,,60ebfc77adae0f59618d6471,66fcb8260fbd8ab2ef632b03,2024-10-02_05h08.18.052,mdp,2024.2.1,Win32,40,66fa4ebf79326e780c390304,,,,,,,,,,,,,,,,,,,,,595.0469,595.047,595.0496,596.1902,0,0,left,0.5986,,596.1924,597.4159,0,0,left,597.4174,597.4183,,0,,1,597.4184,597.4184,597.4195,598.9121,0,17,17,17,1,0.8,0.2,0.2,0.8,,,,,,,,,,,,,,,0.7116,,0.8,0.2,0.2,0.8,0.2,0.8,0.8,0.2,1,0,,,,,,,,,,,,
,,60ebfc77adae0f59618d6471,66fcb8260fbd8ab2ef632b03,2024-10-02_05h08.18.052,mdp,2024.2.1,Win32,40,66fa4ebf79326e780c390304,,,,,,,,,,,,,,,,,,,,,598.9126,598.9126,598.9152,599.8135,0,0,left,0.3855,,599.8148,600.9153,0,0,left,600.9173,600.919,,0,,1,600.919,600.919,600.9199,602.4116,0,18,18,18,1,0.8,0.2,0.2,0.8,,,,,,,,,,,,,,,0.5479,,0.8,0.2,0.2,0.8,0.8,0.2,0.6,0.4,1,0,,,,,,,,,,,,
,,60ebfc77adae0f59618d6471,66fcb8260fbd8ab2ef632b03,2024-10-02_05h08.18.052,mdp,2024.2.1,Win32,40,66fa4ebf79326e780c390304,,,,,,,,,,,,,,,,,,,,,602.4123,602.4123,602.4153,603.3141,0,0,left,0.344,,603.3164,604.4989,0,0,left,604.5,604.5008,,0,,1,604.5009,604.5009,604.5017,605.9889,0,19,19,19,1,0.8,0.2,0.2,0.8,,,,,,,,,,,,,,,0.6433,,0.8,0.2,0.2,0.8,0.8,0.2,0.6,0.4,1,0,,,,,,,,,,,,
,,60ebfc77adae0f59618d6471,66fcb8260fbd8ab2ef632b03,2024-10-02_05h08.18.052,mdp,2024.2.1,Win32,40,66fa4ebf79326e780c390304,,,,,,,,,,,,,,,,,,,,,605.9895,605.9895,605.9937,607.1402,0,0,left,0.5944,,607.1423,608.2923,0,0,left,608.2955,608.2964,,1,,1,608.2964,608.2964,608.2972,609.7781,0,20,20,20,1,0.8,0.2,0.2,0.8,,,,,,,,,,,,,,,0.6236,,0.8,0.2,0.2,0.8,0.8,0.2,0.6,0.4,1,0,,,,,,,,,,,,
,,60ebfc77adae0f59618d6471,66fcb8260fbd8ab2ef632b03,2024-10-02_05h08.18.052,mdp,2024.2.1,Win32,40,66fa4ebf79326e780c390304,,,,,,,,,,,,,,,,,,,,,609.7787,609.7787,609.7816,610.7136,0,0,left,0.3924,,610.7155,611.7595,0,1,left,611.7622,611.7635,,0,,0,611.7635,611.7635,611.7643,613.2554,0,21,21,21,1,0.8,0.2,0.2,0.8,,,,,,,,,,,,,,,0.5208,,0.8,0.2,0.2,0.8,0.8,0.2,0.6,0.4,1,0,,,,,,,,,,,,
,,60ebfc77adae0f59618d6471,66fcb8260fbd8ab2ef632b03,2024-10-02_05h08.18.052,mdp,2024.2.1,Win32,40,66fa4ebf79326e780c390304,,,,,,,,,,,,,,,,,,,,,613.2559,613.256,613.2592,614.1844,0,1,left,0.3964,,614.1872,615.3925,1,1,right,615.3956,615.3965,,1,,0,615.3965,615.3965,615.3973,616.8884,0,22,22,22,1,0.8,0.2,0.2,0.8,,,,,,,,,,,,,,,0.6356,,0.8,0.2,0.2,0.8,0.8,0.2,0.6,0.4,1,0,,,,,,,,,,,,
,,60ebfc77adae0f59618d6471,66fcb8260fbd8ab2ef632b03,2024-10-02_05h08.18.052,mdp,2024.2.1,Win32,40,66fa4ebf79326e780c390304,,,,,,,,,,,,,,,,,,,,,616.889,616.889,616.8913,617.7123,0,0,left,0.2899,,617.7152,619.1621,1,1,right,619.1652,619.1665,,1,,0,619.1665,619.1665,619.1675,620.6639,0,23,23,23,1,0.8,0.2,0.2,0.8,,,,,,,,,,,,,,,0.8923,,0.8,0.2,0.2,0.8,0.8,0.2,0.6,0.4,1,0,,,,,,,,,,,,
,,60ebfc77adae0f59618d6471,66fcb8260fbd8ab2ef632b03,2024-10-02_05h08.18.052,mdp,2024.2.1,Win32,40,66fa4ebf79326e780c390304,,,,,,,,,,,,,,,,,,,,,620.6645,620.6645,620.667,621.5369,0,1,left,0.3287,,621.5393,622.9054,0,0,left,622.9081,622.9093,,0,,1,622.9094,622.9094,622.9101,624.4061,0,24,24,24,1,0.8,0.2,0.2,0.8,,,,,,,,,,,,,,,0.8094,,0.8,0.2,0.2,0.8,0.8,0.2,0.6,0.4,1,0,,,,,,,,,,,,
,,60ebfc77adae0f59618d6471,66fcb8260fbd8ab2ef632b03,2024-10-02_05h08.18.052,mdp,2024.2.1,Win32,40,66fa4ebf79326e780c390304,,,,,,,,,,,,,,,,,,,,,624.4066,624.4067,624.4095,625.4081,0,1,left,0.4691,,625.4103,626.473,0,0,left,626.4753,626.4767,,1,,1,626.4768,626.4768,626.4776,627.9606,0,25,25,25,1,0.8,0.2,0.2,0.8,,,,,,,,,,,,,,,0.5217,,0.8,0.2,0.2,0.8,0.8,0.2,0.6,0.4,1,0,,,,,,,,,,,,
,,60ebfc77adae0f59618d6471,66fcb8260fbd8ab2ef632b03,2024-10-02_05h08.18.052,mdp,2024.2.1,Win32,40,66fa4ebf79326e780c390304,,,,,,,,,,,,,,,,,,,,,627.9612,627.9613,627.9638,628.9101,0,0,left,0.4145,,628.9128,629.9558,0,0,left,629.9582,629.9596,,0,,1,629.9597,629.9597,629.9605,631.4504,0,26,26,26,1,0.8,0.2,0.2,0.8,,,,,,,,,,,,,,,0.506,,0.8,0.2,0.2,0.8,0.8,0.2,0.6,0.4,1,0,,,,,,,,,,,,
,,60ebfc77adae0f59618d6471,66fcb8260fbd8ab2ef632b03,2024-10-02_05h08.18.052,mdp,2024.2.1,Win32,40,66fa4ebf79326e780c390304,,,,,,,,,,,,,,,,,,,,,631.4508,631.4508,631.454,632.2607,0,0,left,0.2669,,632.2638,633.3277,0,0,left,633.329,633.3297,,0,,1,633.3298,633.3298,633.3306,634.8212,0,27,27,27,1,0.8,0.2,0.2,0.8,,,,,,,,,,,,,,,0.5436,,0.8,0.2,0.2,0.8,0.8,0.2,0.6,0.4,1,0,,,,,,,,,,,,
,,60ebfc77adae0f59618d6471,66fcb8260fbd8ab2ef632b03,2024-10-02_05h08.18.052,mdp,2024.2.1,Win32,40,66fa4ebf79326e780c390304,,,,,,,,,,,,,,,,,,,,,634.8218,634.822,634.8248,635.5289,0,0,left,0.1531,,635.5319,636.7773,1,1,right,636.7804,636.7815,,1,,0,636.7816,636.7816,636.7825,638.2801,0,28,28,28,1,0.8,0.2,0.2,0.8,,,,,,,,,,,,,,,0.717,,0.8,0.2,0.2,0.8,0.4,0.6,0.8,0.2,1,0,,,,,,,,,,,,
,,60ebfc77adae0f59618d6471,66fcb8260fbd8ab2ef632b03,2024-10-02_05h08.18.052,mdp,2024.2.1,Win32,40,66fa4ebf79326e780c390304,,,,,,,,,,,,,,,,,,,,,638.2807,638.2807,638.283,639.206,0,0,left,0.3989,,639.2072,640.2234,0,0,left,640.2244,640.225,,0,,1,640.2251,640.2251,640.2257,641.7191,0,29,29,29,1,0.8,0.2,0.2,0.8,,,,,,,,,,,,,,,0.4776,,0.8,0.2,0.2,0.8,0.4,0.6,0.8,0.2,1,0,,,,,,,,,,,,
,,60ebfc77adae0f59618d6471,66fcb8260fbd8ab2ef632b03,2024-10-02_05h08.18.052,mdp,2024.2.1,Win32,40,66fa4ebf79326e780c390304,,,,,,,,,,,,,,,,,,,,,641.7196,641.7197,641.7222,642.7049,0,0,left,0.4274,,642.7069,644.8702,0,0,left,644.8726,644.8744,,0,,1,644.8747,644.8747,644.8764,646.368,0,30,30,30,1,0.8,0.2,0.2,0.8,,,,,,,,,,,,,,,1.6315,9.99999E-05,0.8,0.2,0.2,0.8,0.4,0.6,0.8,0.2,1,0,,,,,,,,,,,,
,,60ebfc77adae0f59618d6471,66fcb8260fbd8ab2ef632b03,2024-10-02_05h08.18.052,mdp,2024.2.1,Win32,40,66fa4ebf79326e780c390304,,,,,,,,,,,,,,,,,,,,,646.369,646.369,646.3708,647.0529,0,0,left,0.1497,,647.0549,648.2795,0,0,left,648.2805,648.2812,,1,,1,648.2812,648.2812,648.2819,649.7676,0,31,31,31,1,0.8,0.2,0.2,0.8,,,,,,,,,,,,,,,0.7021,,0.8,0.2,0.2,0.8,0.4,0.6,0.8,0.2,1,0,,,,,,,,,,,,
,,60ebfc77adae0f59618d6471,66fcb8260fbd8ab2ef632b03,2024-10-02_05h08.18.052,mdp,2024.2.1,Win32,40,66fa4ebf79326e780c390304,,,,,,,,,,,,,,,,,,,,,649.7682,649.7683,649.7702,651.2814,0,1,left,0.9546,0.0002,651.2827,652.1255,0,0,left,652.1279,652.129,,0,,1,652.1291,652.1292,652.1303,653.6241,0,32,32,32,1,0.8,0.2,0.2,0.8,,,,,,,,,,,,,,,0.2844,,0.8,0.2,0.2,0.8,0.4,0.6,0.8,0.2,1,0,,,,,,,,,,,,
,,60ebfc77adae0f59618d6471,66fcb8260fbd8ab2ef632b03,2024-10-02_05h08.18.052,mdp,2024.2.1,Win32,40,66fa4ebf79326e780c390304,,,,,,,,,,,,,,,,,,,,,653.6248,653.6248,653.6272,654.4974,0,0,left,0.3217,,654.4994,655.5905,0,1,left,655.5927,655.5941,,0,,0,655.5941,655.5941,655.595,657.0895,0,33,33,33,1,0.8,0.2,0.2,0.8,,,,,,,,,,,,,,,0.4799,,0.8,0.2,0.2,0.8,0.4,0.6,0.8,0.2,1,0,,,,,,,,,,,,
,,60ebfc77adae0f59618d6471,66fcb8260fbd8ab2ef632b03,2024-10-02_05h08.18.052,mdp,2024.2.1,Win32,40,66fa4ebf79326e780c390304,,,,,,,,,,,,,,,,,,,,,657.0907,657.0907,657.0927,657.9903,0,0,left,0.344,,657.9924,658.9397,1,1,right,658.9417,658.9427,,1,,0,658.9427,658.9427,658.9435,660.4389,0,34,34,34,1,0.8,0.2,0.2,0.8,,,,,,,,,,,,,,,0.3893,,0.8,0.2,0.2,0.8,0.4,0.6,0.8,0.2,1,0,,,,,,,,,,,,
,,60ebfc77adae0f59618d6471,66fcb8260fbd8ab2ef632b03,2024-10-02_05h08.18.052,mdp,2024.2.1,Win32,40,66fa4ebf79326e780c390304,,,,,,,,,,,,,,,,,,,,,660.4396,660.4396,660.4418,661.2389,0,0,left,0.232,,661.2409,662.2134,0,1,left,662.2153,662.2168,,1,,0,662.2168,662.2169,662.2179,663.7145,0,35,35,35,1,0.8,0.2,0.2,0.8,,,,,,,,,,,,,,,0.412,,0.8,0.2,0.2,0.8,0.2,0.8,0.4,0.6,1,0,,,,,,,,,,,,
,,60ebfc77adae0f59618d6471,66fcb8260fbd8ab2ef632b03,2024-10-02_05h08.18.052,mdp,2024.2.1,Win32,40,66fa4ebf79326e780c390304,,,,,,,,,,,,,,,,,,,,,663.7155,663.7156,663.7176,664.5403,0,0,left,0.272,,664.542,665.5876,1,1,right,665.5898,665.5908,,1,,0,665.5908,665.5908,665.5917,667.0866,0,36,36,36,1,0.8,0.2,0.2,0.8,,,,,,,,,,,,,,,0.5055,,0.8,0.2,0.2,0.8,0.2,0.8,0.4,0.6,1,0,,,,,,,,,,,,
,,60ebfc77adae0f59618d6471,66fcb8260fbd8ab2ef632b03,2024-10-02_05h08.18.052,mdp,2024.2.1,Win32,40,66fa4ebf79326e780c390304,,,,,,,,,,,,,,,,,,,,,667.0876,667.0876,667.0896,668.5117,0,0,left,0.8862,,668.5137,669.4924,0,1,left,669.4977,669.5001,,0,,0,669.5002,669.5002,669.5022,671.3782,0,37,37,37,1,0.8,0.2,0.2,0.8,,,,,,,,,,,,,,,0.4438,,0.8,0.2,0.2,0.8,0.2,0.8,0.4,0.6,1,0,,,,,,,,,,,,
,,60ebfc77adae0f59618d6471,66fcb8260fbd8ab2ef632b03,2024-10-02_05h08.18.052,mdp,2024.2.1,Win32,40,66fa4ebf79326e780c390304,,,,,,,,,,,,,,,,,,,,,671.38,671.3801,671.3839,672.3005,0,0,left,0.381,,672.3029,673.3405,1,1,right,673.3439,673.3456,,1,,0,673.3457,673.3457,673.3474,674.8327,0,38,38,38,1,0.8,0.2,0.2,0.8,,,,,,,,,,,,,,,0.5096,,0.8,0.2,0.2,0.8,0.2,0.8,0.4,0.6,1,0,,,,,,,,,,,,
,,60ebfc77adae0f59618d6471,66fcb8260fbd8ab2ef632b03,2024-10-02_05h08.18.052,mdp,2024.2.1,Win32,40,66fa4ebf79326e780c390304,,,,,,,,,,,,,,,,,,,,,674.8335,674.8335,674.8358,675.7079,0,1,left,0.3245,,675.7102,676.8177,0,1,left,676.8202,676.8222,,0,,0,676.8223,676.8224,676.8241,678.3087,0,39,39,39,1,0.8,0.2,0.2,0.8,,,,,,,,,,,,,,,0.4579,,0.8,0.2,0.2,0.8,0.2,0.8,0.4,0.6,1,0,,,,,,,,,,,,
,,60ebfc77adae0f59618d6471,66fcb8260fbd8ab2ef632b03,2024-10-02_05h08.18.052,mdp,2024.2.1,Win32,40,66fa4ebf79326e780c390304,,,,,,,,,,,,,,,,,,,,,678.31,678.3102,678.3144,679.2576,0,1,left,0.3979,,679.2614,680.3085,0,1,left,680.3126,680.314,,1,,0,680.3141,680.3141,680.3156,681.8079,0,40,40,40,1,0.8,0.2,0.2,0.8,,,,,,,,,,,,,,,0.5117,,0.4,0.6,0.6,0.4,0.2,0.8,0.4,0.6,1,0,,,,,,,,,,,,
,,60ebfc77adae0f59618d6471,66fcb8260fbd8ab2ef632b03,2024-10-02_05h08.18.052,mdp,2024.2.1,Win32,40,66fa4ebf79326e780c390304,,,,,,,,,,,,,,,,,,,,,681.81,681.8101,681.8151,682.7869,0,0,left,0.4347,,682.7891,684.1314,0,1,left,684.1349,684.1361,,1,,0,684.1362,684.1362,684.1375,685.6303,0,41,41,41,1,0.8,0.2,0.2,0.8,,,,,,,,,,,,,,,0.776,,0.4,0.6,0.6,0.4,0.2,0.8,0.4,0.6,1,0,,,,,,,,,,,,
,,60ebfc77adae0f59618d6471,66fcb8260fbd8ab2ef632b03,2024-10-02_05h08.18.052,mdp,2024.2.1,Win32,40,66fa4ebf79326e780c390304,,,,,,,,,,,,,,,,,,,,,685.6313,685.6314,685.6335,686.504,0,1,left,0.3498,,686.5067,687.6795,1,1,right,687.6818,687.6838,,1,,0,687.6838,687.6839,687.6848,689.1787,0,42,42,42,1,0.8,0.2,0.2,0.8,,,,,,,,,,,,,,,0.6131,,0.4,0.6,0.6,0.4,0.2,0.8,0.4,0.6,1,0,,,,,,,,,,,,
,,60ebfc77adae0f59618d6471,66fcb8260fbd8ab2ef632b03,2024-10-02_05h08.18.052,mdp,2024.2.1,Win32,40,66fa4ebf79326e780c390304,,,,,,,,,,,,,,,,,,,,,689.1794,689.1794,689.1808,690.0533,0,0,left,0.3297,,690.0554,691.3789,1,1,right,691.3804,691.3827,,0,,0,691.3829,691.3829,691.3842,692.8791,0,43,43,43,1,0.8,0.2,0.2,0.8,,,,,,,,,,,,,,,0.7828,,0.4,0.6,0.6,0.4,0.2,0.8,0.4,0.6,1,0,,,,,,,,,,,,
,,60ebfc77adae0f59618d6471,66fcb8260fbd8ab2ef632b03,2024-10-02_05h08.18.052,mdp,2024.2.1,Win32,40,66fa4ebf79326e780c390304,,,,,,,,,,,,,,,,,,,,,692.882,692.8822,692.8863,693.8033,0,0,left,0.378,,693.8084,694.9286,0,1,left,694.9337,694.935,,0,,0,694.9351,694.9351,694.9369,696.4277,0,44,44,44,1,0.8,0.2,0.2,0.8,,,,,,,,,,,,,,,0.5852,,0.4,0.6,0.6,0.4,0.2,0.8,0.4,0.6,1,0,,,,,,,,,,,,
,,60ebfc77adae0f59618d6471,66fcb8260fbd8ab2ef632b03,2024-10-02_05h08.18.052,mdp,2024.2.1,Win32,40,66fa4ebf79326e780c390304,,,,,,,,,,,,,,,,,,,,,696.4284,696.4284,696.4315,697.3574,0,0,left,0.384,,697.359,698.3768,0,0,left,698.3825,698.3842,,1,,1,698.3843,698.3843,698.3861,699.8765,0,45,45,45,1,0.8,0.2,0.2,0.8,,,,,,,,,,,,,,,0.4749,,0.4,0.6,0.6,0.4,0.2,0.8,0.4,0.6,1,0,,,,,,,,,,,,
,,60ebfc77adae0f59618d6471,66fcb8260fbd8ab2ef632b03,2024-10-02_05h08.18.052,mdp,2024.2.1,Win32,40,66fa4ebf79326e780c390304,,,,,,,,,,,,,,,,,,,,,699.8771,699.8772,699.8804,700.851,0,1,left,0.4373,,700.8553,701.7499,0,0,left,701.7523,701.7538,,1,,1,701.7539,701.7539,701.7548,703.2505,0,46,46,46,1,0.8,0.2,0.2,0.8,,,,,,,,,,,,,,,0.353,,0.4,0.6,0.6,0.4,0.2,0.8,0.4,0.6,1,0,,,,,,,,,,,,
,,60ebfc77adae0f59618d6471,66fcb8260fbd8ab2ef632b03,2024-10-02_05h08.18.052,mdp,2024.2.1,Win32,40,66fa4ebf79326e780c390304,,,,,,,,,,,,,,,,,,,,,703.2512,703.2512,703.2539,704.1312,0,0,left,0.3424,,704.1328,705.1247,0,1,left,705.1278,705.1288,,1,,0,705.1289,705.1289,705.1297,706.6234,0,47,47,47,1,0.8,0.2,0.2,0.8,,,,,,,,,,,,,,,0.4392,,0.6,0.4,0.4,0.6,0.2,0.8,0.4,0.6,1,0,,,,,,,,,,,,
,,60ebfc77adae0f59618d6471,66fcb8260fbd8ab2ef632b03,2024-10-02_05h08.18.052,mdp,2024.2.1,Win32,40,66fa4ebf79326e780c390304,,,,,,,,,,,,,,,,,,,,,706.6245,706.6246,706.6275,707.5179,0,0,left,0.3731,,707.5193,708.6239,1,1,right,708.6268,708.6285,,1,,0,708.6285,708.6285,708.6296,710.1369,0,48,48,48,1,0.8,0.2,0.2,0.8,,,,,,,,,,,,,,,0.5717,,0.6,0.4,0.4,0.6,0.6,0.4,0.2,0.8,1,0,,,,,,,,,,,,
,,60ebfc77adae0f59618d6471,66fcb8260fbd8ab2ef632b03,2024-10-02_05h08.18.052,mdp,2024.2.1,Win32,40,66fa4ebf79326e780c390304,,,,,,,,,,,,,,,,,,,,,710.1376,710.1377,710.1406,710.8967,0,0,left,0.2318,,710.8986,712.1982,1,1,right,712.2004,712.2016,,0,,0,712.2016,712.2016,712.2024,713.697,0,49,49,49,1,0.8,0.2,0.2,0.8,,,,,,,,,,,,,,,0.759,,0.6,0.4,0.4,0.6,0.6,0.4,0.2,0.8,1,0,,,,,,,,,,,,
,,60ebfc77adae0f59618d6471,66fcb8260fbd8ab2ef632b03,2024-10-02_05h08.18.052,mdp,2024.2.1,Win32,40,66fa4ebf79326e780c390304,,,,,,,,,,,,,,,,,,,,,,,,,,,,,,,,,,,,,,,,,,,,,,,,,,,,,,,,713.6976,772.2045,0,1,1,4,1,imgs/goat.png,imgs/bear.png,imgs/pig.png,imgs/dog.png,imgs/cat.png,,,,,,,,,,,,,,,,,,,,,,,,
,,60ebfc77adae0f59618d6471,66fcb8260fbd8ab2ef632b03,2024-10-02_05h08.18.052,mdp,2024.2.1,Win32,40,66fa4ebf79326e780c390304,,,,,,,,,,,,,,3,seqs/st3seq13.csv,772.2074,773.5868,space,0.8288,,773.6152,773.6153,773.6173,775.1295,0,0,left,0.8844,,775.1337,776.1533,1,0,right,776.1555,777.5847,1,1,right,0,777.585,777.585,777.5873,779.0778,0,0,0,0,1,0.2,0.8,0.2,0.8,,,,,,,,,,,,,,,0.4366,,0.8,0.2,0.8,0.2,0.6,0.4,0.2,0.8,,,0.7978,,0.2,0.8,0.2,0.8,0.8,0.2,0.6,0.4,1,0
,,60ebfc77adae0f59618d6471,66fcb8260fbd8ab2ef632b03,2024-10-02_05h08.18.052,mdp,2024.2.1,Win32,40,66fa4ebf79326e780c390304,,,,,,,,,,,,,,,,,,,,,779.0794,779.0795,779.0814,780.0942,0,1,left,0.4736,,780.0962,781.3814,0,1,left,781.3867,782.7777,0,1,left,0,782.7779,782.7779,782.7801,784.2772,0,1,1,1,1,0.2,0.8,0.2,0.8,,,,,,,,,,,,,,,0.7074,,0.8,0.2,0.8,0.2,0.6,0.4,0.2,0.8,,,0.8066,,0.2,0.8,0.2,0.8,0.8,0.2,0.6,0.4,1,0
,,60ebfc77adae0f59618d6471,66fcb8260fbd8ab2ef632b03,2024-10-02_05h08.18.052,mdp,2024.2.1,Win32,40,66fa4ebf79326e780c390304,,,,,,,,,,,,,,,,,,,,,784.2795,784.2796,784.2839,785.2886,0,1,left,0.4677,,785.2911,786.4522,0,0,left,786.4571,787.4454,1,1,right,0,787.4455,787.4456,787.4483,788.9384,0,2,2,2,1,0.2,0.8,0.2,0.8,,,,,,,,,,,,,,,0.6327,,0.8,0.2,0.8,0.2,0.6,0.4,0.2,0.8,,,0.4189,,0.2,0.8,0.2,0.8,0.8,0.2,0.6,0.4,1,0
,,60ebfc77adae0f59618d6471,66fcb8260fbd8ab2ef632b03,2024-10-02_05h08.18.052,mdp,2024.2.1,Win32,40,66fa4ebf79326e780c390304,,,,,,,,,,,,,,,,,,,,,788.9414,788.9423,788.9459,789.8993,0,0,left,0.4354,,789.9051,791.0003,1,1,right,791.0026,791.9672,0,0,left,1,791.9674,791.9674,791.9705,793.4499,0,3,3,3,1,0.2,0.8,0.2,0.8,,,,,,,,,,,,,,,0.5033,,0.8,0.2,0.8,0.2,0.6,0.4,0.2,0.8,,,0.4063,,0.4,0.6,0.6,0.4,0.8,0.2,0.6,0.4,1,0
,,60ebfc77adae0f59618d6471,66fcb8260fbd8ab2ef632b03,2024-10-02_05h08.18.052,mdp,2024.2.1,Win32,40,66fa4ebf79326e780c390304,,,,,,,,,,,,,,,,,,,,,793.4516,793.4517,793.4545,794.7097,0,0,left,0.7238,,794.713,795.6725,1,1,right,795.6772,796.746,0,0,left,1,796.7461,796.7461,796.7495,798.2464,0,4,4,4,1,0.2,0.8,0.2,0.8,,,,,,,,,,,,,,,0.4335,,0.8,0.2,0.8,0.2,0.6,0.4,0.2,0.8,,,0.5607,,0.4,0.6,0.6,0.4,0.8,0.2,0.6,0.4,1,0
,,60ebfc77adae0f59618d6471,66fcb8260fbd8ab2ef632b03,2024-10-02_05h08.18.052,mdp,2024.2.1,Win32,40,66fa4ebf79326e780c390304,,,,,,,,,,,,,,,,,,,,,798.2474,798.2474,798.2505,799.1715,0,1,left,0.4039,,799.1754,800.1464,1,0,right,800.1496,801.0971,0,1,left,0,801.0975,801.0976,801.1027,802.5964,0,5,5,5,1,0.2,0.8,0.2,0.8,,,,,,,,,,,,,,,0.3959,,0.8,0.2,0.8,0.2,0.6,0.4,0.2,0.8,,,0.405,,0.4,0.6,0.6,0.4,0.8,0.2,0.6,0.4,1,0
,,60ebfc77adae0f59618d6471,66fcb8260fbd8ab2ef632b03,2024-10-02_05h08.18.052,mdp,2024.2.1,Win32,40,66fa4ebf79326e780c390304,,,,,,,,,,,,,,,,,,,,,802.5994,802.5998,802.6035,803.5196,0,1,left,0.3782,,803.5223,804.9204,1,0,right,804.9248,805.9956,0,0,left,1,805.9957,805.9957,805.9992,807.4802,0,6,6,6,1,0.2,0.8,0.2,0.8,,,,,,,,,,,,,,,0.8849,,0.8,0.2,0.8,0.2,0.6,0.4,0.2,0.8,,,0.5283,,0.6,0.4,0.2,0.8,0.8,0.2,0.6,0.4,1,0
,,60ebfc77adae0f59618d6471,66fcb8260fbd8ab2ef632b03,2024-10-02_05h08.18.052,mdp,2024.2.1,Win32,40,66fa4ebf79326e780c390304,,,,,,,,,,,,,,,,,,,,,807.4812,807.4812,807.4825,808.4364,0,1,left,0.4212,,808.4378,809.4309,1,1,right,809.4321,810.3355,0,0,left,1,810.3355,810.3356,810.3367,811.8182,0,7,7,7,1,0.2,0.8,0.2,0.8,,,,,,,,,,,,,,,0.4502,,0.8,0.2,0.8,0.2,0.6,0.4,0.2,0.8,,,0.344,,0.6,0.4,0.2,0.8,0.8,0.2,0.6,0.4,1,0
,,60ebfc77adae0f59618d6471,66fcb8260fbd8ab2ef632b03,2024-10-02_05h08.18.052,mdp,2024.2.1,Win32,40,66fa4ebf79326e780c390304,,,,,,,,,,,,,,,,,,,,,811.8198,811.8198,811.8223,812.7264,0,1,left,0.3714,,812.73,813.756,1,1,right,813.7578,814.7679,0,0,left,1,814.7682,814.7683,814.7703,816.279,0,8,8,8,1,0.2,0.8,0.2,0.8,,,,,,,,,,,,,,,0.5026,,0.8,0.2,0.8,0.2,0.6,0.4,0.2,0.8,,,0.4812,,0.6,0.4,0.2,0.8,0.8,0.2,0.6,0.4,1,0
,,60ebfc77adae0f59618d6471,66fcb8260fbd8ab2ef632b03,2024-10-02_05h08.18.052,mdp,2024.2.1,Win32,40,66fa4ebf79326e780c390304,,,,,,,,,,,,,,,,,,,,,816.2797,816.2797,816.282,817.2667,0,0,left,0.4332,,817.2702,818.3906,0,0,left,818.3941,819.3418,1,1,right,0,819.3418,819.3418,819.3448,820.8401,0,9,9,9,1,0.2,0.8,0.2,0.8,,,,,,,,,,,,,,,0.563,,0.8,0.2,0.8,0.2,0.6,0.4,0.2,0.8,,,0.4184,,0.6,0.4,0.2,0.8,0.8,0.2,0.6,0.4,1,0
,,60ebfc77adae0f59618d6471,66fcb8260fbd8ab2ef632b03,2024-10-02_05h08.18.052,mdp,2024.2.1,Win32,40,66fa4ebf79326e780c390304,,,,,,,,,,,,,,,,,,,,,820.8408,820.8408,820.8438,821.7904,0,1,left,0.4098,,821.7935,822.8404,1,1,right,822.8452,823.7641,0,0,left,1,823.7643,823.7643,823.7672,825.263,0,10,10,10,1,0.2,0.8,0.2,0.8,,,,,,,,,,,,,,,0.4799,,0.8,0.2,0.8,0.2,0.6,0.4,0.2,0.8,,,0.3643,,0.6,0.4,0.2,0.8,0.8,0.2,0.6,0.4,1,0
,,60ebfc77adae0f59618d6471,66fcb8260fbd8ab2ef632b03,2024-10-02_05h08.18.052,mdp,2024.2.1,Win32,40,66fa4ebf79326e780c390304,,,,,,,,,,,,,,,,,,,,,825.2639,825.264,825.2663,826.1883,0,0,left,0.371,,826.1904,827.1775,1,0,right,827.179,828.1807,0,0,left,1,828.1808,828.1808,828.1824,829.6767,0,11,11,11,1,0.2,0.8,0.2,0.8,,,,,,,,,,,,,,,0.4405,,0.8,0.2,0.8,0.2,0.6,0.4,0.2,0.8,,,0.4486,,0.6,0.4,0.2,0.8,0.8,0.2,0.6,0.4,1,0
,,60ebfc77adae0f59618d6471,66fcb8260fbd8ab2ef632b03,2024-10-02_05h08.18.052,mdp,2024.2.1,Win32,40,66fa4ebf79326e780c390304,,,,,,,,,,,,,,,,,,,,,829.6781,829.6781,829.6798,830.5924,0,0,left,0.3679,,830.5969,831.6692,1,0,right,831.6723,832.6374,0,0,left,1,832.6376,832.6377,832.6411,834.1361,0,12,12,12,1,0.2,0.8,0.2,0.8,,,,,,,,,,,,,,,0.5423,,0.8,0.2,0.8,0.2,0.6,0.4,0.2,0.8,,,0.427,,0.6,0.4,0.2,0.8,0.8,0.2,0.6,0.4,1,0
,,60ebfc77adae0f59618d6471,66fcb8260fbd8ab2ef632b03,2024-10-02_05h08.18.052,mdp,2024.2.1,Win32,40,66fa4ebf79326e780c390304,,,,,,,,,,,,,,,,,,,,,834.1371,834.1372,834.1402,835.037,0,1,left,0.3544,,835.0406,836.0119,1,1,right,836.0176,837.0878,0,0,left,1,837.0881,837.0882,837.0911,838.5856,0,13,13,13,1,0.2,0.8,0.2,0.8,,,,,,,,,,,,,,,0.424,,0.8,0.2,0.8,0.2,0.6,0.4,0.2,0.8,,,0.498,,0.6,0.4,0.2,0.8,0.8,0.2,0.6,0.4,1,0
,,60ebfc77adae0f59618d6471,66fcb8260fbd8ab2ef632b03,2024-10-02_05h08.18.052,mdp,2024.2.1,Win32,40,66fa4ebf79326e780c390304,,,,,,,,,,,,,,,,,,,,,838.5869,838.5869,838.5894,839.486,0,1,left,0.3596,,839.4896,840.41,1,1,right,840.4138,841.39,0,0,left,1,841.3902,841.3902,841.3935,842.8833,0,14,14,14,1,0.2,0.8,0.2,0.8,,,,,,,,,,,,,,,0.3771,,0.4,0.6,0.4,0.6,0.6,0.4,0.2,0.8,,,0.4429,,0.6,0.4,0.2,0.8,0.8,0.2,0.6,0.4,1,0
,,60ebfc77adae0f59618d6471,66fcb8260fbd8ab2ef632b03,2024-10-02_05h08.18.052,mdp,2024.2.1,Win32,40,66fa4ebf79326e780c390304,,,,,,,,,,,,,,,,,,,,,842.8848,842.8848,842.8897,843.7386,0,0,left,0.2853,,843.7429,844.6847,1,0,right,844.6909,845.6278,0,0,left,1,845.6279,845.628,845.6301,847.1327,0,15,15,15,1,0.2,0.8,0.2,0.8,,,,,,,,,,,,,,,0.4002,,0.4,0.6,0.4,0.6,0.6,0.4,0.2,0.8,,,0.3719,,0.6,0.4,0.2,0.8,0.8,0.2,0.6,0.4,1,0
,,60ebfc77adae0f59618d6471,66fcb8260fbd8ab2ef632b03,2024-10-02_05h08.18.052,mdp,2024.2.1,Win32,40,66fa4ebf79326e780c390304,,,,,,,,,,,,,,,,,,,,,847.1342,847.1342,847.1368,847.9815,0,1,left,0.2977,,847.9837,848.8819,1,1,right,848.8851,849.8317,0,1,left,0,849.8318,849.8319,849.835,851.3308,0,16,16,16,1,0.2,0.8,0.2,0.8,,,,,,,,,,,,,,,0.3242,,0.4,0.6,0.4,0.6,0.6,0.4,0.2,0.8,,,0.3738,,0.6,0.4,0.2,0.8,0.8,0.2,0.6,0.4,1,0
,,60ebfc77adae0f59618d6471,66fcb8260fbd8ab2ef632b03,2024-10-02_05h08.18.052,mdp,2024.2.1,Win32,40,66fa4ebf79326e780c390304,,,,,,,,,,,,,,,,,,,,,851.3327,851.3328,851.3368,852.2298,0,1,left,0.3593,,852.2385,853.2057,0,1,left,853.2072,854.0805,1,0,right,1,854.0807,854.0807,854.0826,855.5991,0,17,17,17,1,0.2,0.8,0.2,0.8,,,,,,,,,,,,,,,0.4579,,0.4,0.6,0.4,0.6,0.6,0.4,0.2,0.8,,,0.3263,,0.6,0.4,0.2,0.8,0.8,0.2,0.6,0.4,1,0
,,60ebfc77adae0f59618d6471,66fcb8260fbd8ab2ef632b03,2024-10-02_05h08.18.052,mdp,2024.2.1,Win32,40,66fa4ebf79326e780c390304,,,,,,,,,,,,,,,,,,,,,855.6006,855.6006,855.6046,856.4548,0,1,left,0.3097,,856.4583,857.3786,0,0,left,857.3819,858.2577,1,1,right,0,858.2583,858.2583,858.2629,859.7672,0,18,18,18,1,0.2,0.8,0.2,0.8,,,,,,,,,,,,,,,0.3661,,0.4,0.6,0.4,0.6,0.6,0.4,0.2,0.8,,,0.3139,,0.6,0.4,0.2,0.8,0.8,0.2,0.6,0.4,1,0
,,60ebfc77adae0f59618d6471,66fcb8260fbd8ab2ef632b03,2024-10-02_05h08.18.052,mdp,2024.2.1,Win32,40,66fa4ebf79326e780c390304,,,,,,,,,,,,,,,,,,,,,859.7679,859.768,859.7704,860.6535,0,0,left,0.3633,,860.6574,861.6653,1,0,right,861.6664,862.5868,0,0,left,1,862.587,862.587,862.5893,864.0769,0,19,19,19,1,0.2,0.8,0.2,0.8,,,,,,,,,,,,,,,0.4416,,0.4,0.6,0.4,0.6,0.6,0.4,0.2,0.8,,,0.372,,0.4,0.6,0.8,0.2,0.8,0.2,0.6,0.4,1,0
,,60ebfc77adae0f59618d6471,66fcb8260fbd8ab2ef632b03,2024-10-02_05h08.18.052,mdp,2024.2.1,Win32,40,66fa4ebf79326e780c390304,,,,,,,,,,,,,,,,,,,,,864.0778,864.0778,864.0806,864.9336,0,1,left,0.3422,,864.9358,865.9536,1,1,right,865.9589,866.9761,0,0,left,1,866.9763,866.9764,866.9793,868.4771,0,20,20,20,1,0.2,0.8,0.2,0.8,,,,,,,,,,,,,,,0.4674,,0.4,0.6,0.4,0.6,0.6,0.4,0.2,0.8,,,0.445,,0.4,0.6,0.8,0.2,0.8,0.2,0.6,0.4,1,0
,,60ebfc77adae0f59618d6471,66fcb8260fbd8ab2ef632b03,2024-10-02_05h08.18.052,mdp,2024.2.1,Win32,40,66fa4ebf79326e780c390304,,,,,,,,,,,,,,,,,,,,,868.4797,868.4798,868.4833,869.3752,0,1,left,0.3475,,869.3787,870.3873,1,1,right,870.3894,871.3893,0,0,left,1,871.3893,871.3893,871.3904,872.883,0,21,21,21,1,0.2,0.8,0.2,0.8,,,,,,,,,,,,,,,0.499,,0.4,0.6,0.4,0.6,0.6,0.4,0.2,0.8,,,0.4723,,0.4,0.6,0.8,0.2,0.8,0.2,0.6,0.4,1,0
,,60ebfc77adae0f59618d6471,66fcb8260fbd8ab2ef632b03,2024-10-02_05h08.18.052,mdp,2024.2.1,Win32,40,66fa4ebf79326e780c390304,,,,,,,,,,,,,,,,,,,,,872.884,872.884,872.8863,873.5778,0,1,left,0.157,,873.582,874.5486,1,1,right,874.5512,875.4499,0,0,left,1,875.4503,875.4504,875.4531,876.951,0,22,22,22,1,0.2,0.8,0.2,0.8,,,,,,,,,,,,,,,0.4006,,0.4,0.6,0.4,0.6,0.6,0.4,0.2,0.8,,,0.3545,,0.4,0.6,0.8,0.2,0.8,0.2,0.6,0.4,1,0
,,60ebfc77adae0f59618d6471,66fcb8260fbd8ab2ef632b03,2024-10-02_05h08.18.052,mdp,2024.2.1,Win32,40,66fa4ebf79326e780c390304,,,,,,,,,,,,,,,,,,,,,876.9545,876.9546,876.9582,877.7738,0,1,left,0.2689,,877.7766,878.6741,1,1,right,878.6781,879.5971,0,0,left,1,879.5976,879.5977,879.6003,881.0983,0,23,23,23,1,0.2,0.8,0.2,0.8,,,,,,,,,,,,,,,0.3542,,0.4,0.6,0.4,0.6,0.6,0.4,0.2,0.8,,,0.3779,,0.2,0.8,0.4,0.6,0.8,0.2,0.6,0.4,1,0
,,60ebfc77adae0f59618d6471,66fcb8260fbd8ab2ef632b03,2024-10-02_05h08.18.052,mdp,2024.2.1,Win32,40,66fa4ebf79326e780c390304,,,,,,,,,,,,,,,,,,,,,881.0992,881.0993,881.1029,881.9299,0,1,left,0.2895,,881.9326,882.8719,1,0,right,882.8758,883.7716,0,1,left,0,883.7717,883.7717,883.7742,885.2713,0,24,24,24,1,0.2,0.8,0.2,0.8,,,,,,,,,,,,,,,0.3964,,0.4,0.6,0.4,0.6,0.6,0.4,0.2,0.8,,,0.3474,,0.4,0.6,0.6,0.4,0.8,0.2,0.6,0.4,1,0
,,60ebfc77adae0f59618d6471,66fcb8260fbd8ab2ef632b03,2024-10-02_05h08.18.052,mdp,2024.2.1,Win32,40,66fa4ebf79326e780c390304,,,,,,,,,,,,,,,,,,,,,885.2722,885.2723,885.2759,886.1964,0,1,left,0.3817,,886.2,887.2773,1,1,right,887.2792,888.1458,0,0,left,1,888.1459,888.146,888.1492,889.6458,0,25,25,25,1,0.2,0.8,0.2,0.8,,,,,,,,,,,,,,,0.5446,,0.4,0.6,0.4,0.6,0.6,0.4,0.2,0.8,,,0.3058,,0.4,0.6,0.6,0.4,0.8,0.2,0.6,0.4,1,0
,,60ebfc77adae0f59618d6471,66fcb8260fbd8ab2ef632b03,2024-10-02_05h08.18.052,mdp,2024.2.1,Win32,40,66fa4ebf79326e780c390304,,,,,,,,,,,,,,,,,,,,,889.6472,889.6472,889.651,890.3266,0,1,left,0.1418,,890.3286,891.32,1,0,right,891.3248,892.3482,0,0,left,1,892.3485,892.3487,892.3515,893.844,0,26,26,26,1,0.2,0.8,0.2,0.8,,,,,,,,,,,,,,,0.4576,,0.4,0.6,0.4,0.6,0.6,0.4,0.2,0.8,,,0.4704,,0.4,0.6,0.6,0.4,0.8,0.2,0.6,0.4,1,0
,,60ebfc77adae0f59618d6471,66fcb8260fbd8ab2ef632b03,2024-10-02_05h08.18.052,mdp,2024.2.1,Win32,40,66fa4ebf79326e780c390304,,,,,,,,,,,,,,,,,,,,,893.845,893.845,893.8484,894.7974,0,1,left,0.4171,,894.7991,895.7694,1,1,right,895.7732,896.7677,0,0,left,1,896.7679,896.7679,896.7705,898.2674,0,27,27,27,1,0.2,0.8,0.2,0.8,,,,,,,,,,,,,,,0.4319,,0.4,0.6,0.4,0.6,0.6,0.4,0.2,0.8,,,0.4371,,0.4,0.6,0.6,0.4,0.8,0.2,0.6,0.4,1,0
,,60ebfc77adae0f59618d6471,66fcb8260fbd8ab2ef632b03,2024-10-02_05h08.18.052,mdp,2024.2.1,Win32,40,66fa4ebf79326e780c390304,,,,,,,,,,,,,,,,,,,,,898.2693,898.2695,898.2743,899.1425,0,1,left,0.3307,,899.1463,900.0667,1,1,right,900.0701,900.9704,0,0,left,1,900.9705,900.9705,900.9715,902.4669,0,28,28,28,1,0.2,0.8,0.2,0.8,,,,,,,,,,,,,,,0.3797,,0.4,0.6,0.4,0.6,0.6,0.4,0.2,0.8,,,0.3673,,0.4,0.6,0.6,0.4,0.8,0.2,0.6,0.4,1,0
,,60ebfc77adae0f59618d6471,66fcb8260fbd8ab2ef632b03,2024-10-02_05h08.18.052,mdp,2024.2.1,Win32,40,66fa4ebf79326e780c390304,,,,,,,,,,,,,,,,,,,,,902.4684,902.4686,902.4723,903.6928,0,0,left,0.6751,,903.6973,904.6421,1,1,right,904.6468,905.5907,0,0,left,1,905.5909,905.5909,905.5948,907.0898,0,29,29,29,1,0.2,0.8,0.2,0.8,,,,,,,,,,,,,,,0.3963,,0.4,0.6,0.4,0.6,0.6,0.4,0.2,0.8,,,0.4089,,0.4,0.6,0.6,0.4,0.8,0.2,0.6,0.4,1,0
,,60ebfc77adae0f59618d6471,66fcb8260fbd8ab2ef632b03,2024-10-02_05h08.18.052,mdp,2024.2.1,Win32,40,66fa4ebf79326e780c390304,,,,,,,,,,,,,,,,,,,,,907.0905,907.0905,907.094,907.9896,0,1,left,0.3531,,907.9927,908.9641,1,0,right,908.9663,909.914,0,0,left,1,909.9142,909.9142,909.9168,911.4132,0,30,30,30,1,0.2,0.8,0.2,0.8,,,,,,,,,,,,,,,0.4312,,0.4,0.6,0.4,0.6,0.6,0.4,0.2,0.8,,,0.3935,,0.8,0.2,0.4,0.6,0.8,0.2,0.6,0.4,1,0
,,60ebfc77adae0f59618d6471,66fcb8260fbd8ab2ef632b03,2024-10-02_05h08.18.052,mdp,2024.2.1,Win32,40,66fa4ebf79326e780c390304,,,,,,,,,,,,,,,,,,,,,911.4144,911.4144,911.4166,912.3396,0,1,left,0.3868,,912.3444,913.2885,1,1,right,913.2904,914.2382,0,0,left,1,914.2385,914.2386,914.2421,915.7389,0,31,31,31,1,0.2,0.8,0.2,0.8,,,,,,,,,,,,,,,0.39,,0.4,0.6,0.4,0.6,0.6,0.4,0.2,0.8,,,0.3768,,0.8,0.2,0.4,0.6,0.8,0.2,0.6,0.4,1,0
,,60ebfc77adae0f59618d6471,66fcb8260fbd8ab2ef632b03,2024-10-02_05h08.18.052,mdp,2024.2.1,Win32,40,66fa4ebf79326e780c390304,,,,,,,,,,,,,,,,,,,,,915.7417,915.7418,915.7464,916.6365,0,1,left,0.3519,,916.6398,917.5133,1,0,right,917.5187,918.4112,0,0,left,1,918.4115,918.4115,918.414,919.8978,0,32,32,32,1,0.2,0.8,0.2,0.8,,,,,,,,,,,,,,,0.36,,0.4,0.6,0.4,0.6,0.2,0.8,0.8,0.2,,,0.3383,,0.8,0.2,0.4,0.6,0.8,0.2,0.6,0.4,1,0
,,60ebfc77adae0f59618d6471,66fcb8260fbd8ab2ef632b03,2024-10-02_05h08.18.052,mdp,2024.2.1,Win32,40,66fa4ebf79326e780c390304,,,,,,,,,,,,,,,,,,,,,919.8989,919.8989,919.9008,920.8246,0,1,left,0.3785,,920.8256,921.7245,1,0,right,921.726,922.6265,0,0,left,1,922.6266,922.6267,922.6279,924.1203,0,33,33,33,1,0.2,0.8,0.2,0.8,,,,,,,,,,,,,,,0.3502,,0.4,0.6,0.4,0.6,0.2,0.8,0.8,0.2,,,0.356,,0.8,0.2,0.4,0.6,0.8,0.2,0.6,0.4,1,0
,,60ebfc77adae0f59618d6471,66fcb8260fbd8ab2ef632b03,2024-10-02_05h08.18.052,mdp,2024.2.1,Win32,40,66fa4ebf79326e780c390304,,,,,,,,,,,,,,,,,,,,,924.1212,924.1212,924.1226,925.0267,0,1,left,0.3731,,925.0276,925.9103,1,1,right,925.9152,926.9592,0,0,left,1,926.9599,926.9599,926.9635,928.4581,0,34,34,34,1,0.2,0.8,0.2,0.8,,,,,,,,,,,,,,,0.3558,,0.4,0.6,0.4,0.6,0.2,0.8,0.8,0.2,,,0.4926,,0.6,0.4,0.8,0.2,0.8,0.2,0.6,0.4,1,0
,,60ebfc77adae0f59618d6471,66fcb8260fbd8ab2ef632b03,2024-10-02_05h08.18.052,mdp,2024.2.1,Win32,40,66fa4ebf79326e780c390304,,,,,,,,,,,,,,,,,,,,,928.459,928.459,928.4614,929.358,0,1,left,0.3397,,929.36,930.2327,1,0,right,930.235,931.1829,0,0,left,1,931.1835,931.1835,931.1858,932.682,0,35,35,35,1,0.2,0.8,0.2,0.8,,,,,,,,,,,,,,,0.3293,,0.4,0.6,0.4,0.6,0.2,0.8,0.8,0.2,,,0.3731,,0.6,0.4,0.8,0.2,0.8,0.2,0.6,0.4,1,0
,,60ebfc77adae0f59618d6471,66fcb8260fbd8ab2ef632b03,2024-10-02_05h08.18.052,mdp,2024.2.1,Win32,40,66fa4ebf79326e780c390304,,,,,,,,,,,,,,,,,,,,,932.6833,932.6834,932.6862,933.5566,0,1,left,0.3283,,933.5587,934.4558,1,0,right,934.4583,935.3313,0,1,left,0,935.3314,935.3314,935.3352,936.8307,0,36,36,36,1,0.2,0.8,0.2,0.8,,,,,,,,,,,,,,,0.3575,,0.4,0.6,0.4,0.6,0.2,0.8,0.8,0.2,,,0.3533,,0.6,0.4,0.8,0.2,0.8,0.2,0.6,0.4,1,0
,,60ebfc77adae0f59618d6471,66fcb8260fbd8ab2ef632b03,2024-10-02_05h08.18.052,mdp,2024.2.1,Win32,40,66fa4ebf79326e780c390304,,,,,,,,,,,,,,,,,,,,,936.8314,936.8314,936.8342,937.9556,0,1,left,0.5766,,937.9585,938.8047,1,0,right,938.8074,939.6554,0,1,left,0,939.6556,939.6556,939.6584,941.1539,0,37,37,37,1,0.2,0.8,0.2,0.8,,,,,,,,,,,,,,,0.3219,,0.4,0.6,0.4,0.6,0.2,0.8,0.8,0.2,,,0.3094,,0.6,0.4,0.8,0.2,0.8,0.2,0.6,0.4,1,0
,,60ebfc77adae0f59618d6471,66fcb8260fbd8ab2ef632b03,2024-10-02_05h08.18.052,mdp,2024.2.1,Win32,40,66fa4ebf79326e780c390304,,,,,,,,,,,,,,,,,,,,,941.1549,941.1549,941.1574,942.1295,0,1,left,0.4455,,942.1324,942.9793,0,1,left,942.9835,943.7289,1,0,right,1,943.729,943.729,943.7317,945.2281,0,38,38,38,1,0.2,0.8,0.2,0.8,,,,,,,,,,,,,,,0.309,,0.4,0.6,0.4,0.6,0.2,0.8,0.8,0.2,,,0.1957,,0.6,0.4,0.8,0.2,0.8,0.2,0.6,0.4,1,0
,,60ebfc77adae0f59618d6471,66fcb8260fbd8ab2ef632b03,2024-10-02_05h08.18.052,mdp,2024.2.1,Win32,40,66fa4ebf79326e780c390304,,,,,,,,,,,,,,,,,,,,,945.2297,945.2297,945.2328,946.1152,0,1,left,0.3507,,946.1167,947.0035,0,1,left,947.0062,947.7776,1,0,right,1,947.7777,947.7777,947.7807,949.2762,0,39,39,39,1,0.2,0.8,0.2,0.8,,,,,,,,,,,,,,,0.3608,,0.6,0.4,0.2,0.8,0.2,0.8,0.8,0.2,,,0.2195,,0.6,0.4,0.8,0.2,0.8,0.2,0.6,0.4,1,0
,,60ebfc77adae0f59618d6471,66fcb8260fbd8ab2ef632b03,2024-10-02_05h08.18.052,mdp,2024.2.1,Win32,40,66fa4ebf79326e780c390304,,,,,,,,,,,,,,,,,,,,,949.2769,949.2769,949.2797,950.1275,0,0,left,0.3049,,950.1304,951.0531,0,0,left,951.0552,951.9518,1,1,right,0,951.9519,951.9519,951.9553,953.4499,0,40,40,40,1,0.2,0.8,0.2,0.8,,,,,,,,,,,,,,,0.3332,,0.6,0.4,0.2,0.8,0.2,0.8,0.8,0.2,,,0.3282,,0.6,0.4,0.8,0.2,0.8,0.2,0.6,0.4,1,0
,,60ebfc77adae0f59618d6471,66fcb8260fbd8ab2ef632b03,2024-10-02_05h08.18.052,mdp,2024.2.1,Win32,40,66fa4ebf79326e780c390304,,,,,,,,,,,,,,,,,,,,,953.4506,953.4507,953.453,954.358,0,1,left,0.3942,,954.3615,955.2003,1,0,right,955.2029,956.0256,0,1,left,0,956.0258,956.0258,956.0276,957.5351,0,41,41,41,1,0.2,0.8,0.2,0.8,,,,,,,,,,,,,,,0.2702,,0.6,0.4,0.2,0.8,0.2,0.8,0.8,0.2,,,0.3053,,0.6,0.4,0.8,0.2,0.8,0.2,0.6,0.4,1,0
,,60ebfc77adae0f59618d6471,66fcb8260fbd8ab2ef632b03,2024-10-02_05h08.18.052,mdp,2024.2.1,Win32,40,66fa4ebf79326e780c390304,,,,,,,,,,,,,,,,,,,,,957.5359,957.5359,957.5379,958.502,0,1,left,0.439,,958.5055,959.36,0,1,left,959.3623,960.1985,1,0,right,1,960.1986,960.1986,960.2013,961.7101,0,42,42,42,1,0.2,0.8,0.2,0.8,,,,,,,,,,,,,,,0.3269,,0.6,0.4,0.2,0.8,0.2,0.8,0.8,0.2,,,0.2761,,0.6,0.4,0.8,0.2,0.8,0.2,0.6,0.4,1,0
,,60ebfc77adae0f59618d6471,66fcb8260fbd8ab2ef632b03,2024-10-02_05h08.18.052,mdp,2024.2.1,Win32,40,66fa4ebf79326e780c390304,,,,,,,,,,,,,,,,,,,,,961.711,961.711,961.7133,962.6004,0,1,left,0.3412,,962.6025,963.4834,0,0,left,963.4853,964.3717,1,0,right,1,964.3718,964.3718,964.3733,965.8724,0,43,43,43,1,0.2,0.8,0.2,0.8,,,,,,,,,,,,,,,0.3253,,0.6,0.4,0.2,0.8,0.2,0.8,0.8,0.2,,,0.3191,,0.6,0.4,0.8,0.2,0.8,0.2,0.6,0.4,1,0
,,60ebfc77adae0f59618d6471,66fcb8260fbd8ab2ef632b03,2024-10-02_05h08.18.052,mdp,2024.2.1,Win32,40,66fa4ebf79326e780c390304,,,,,,,,,,,,,,,,,,,,,965.8736,965.8737,965.8755,966.7267,0,1,left,0.328,,966.7303,967.5968,0,0,left,967.5996,968.4211,1,1,right,0,968.4212,968.4213,968.4254,969.9216,0,44,44,44,1,0.2,0.8,0.2,0.8,,,,,,,,,,,,,,,0.3372,,0.6,0.4,0.2,0.8,0.2,0.8,0.8,0.2,,,0.2877,,0.6,0.4,0.8,0.2,0.8,0.2,0.6,0.4,1,0
,,60ebfc77adae0f59618d6471,66fcb8260fbd8ab2ef632b03,2024-10-02_05h08.18.052,mdp,2024.2.1,Win32,40,66fa4ebf79326e780c390304,,,,,,,,,,,,,,,,,,,,,969.923,969.9231,969.9252,970.8473,0,1,left,0.3751,,970.8497,971.7958,1,0,right,971.8007,972.5539,0,1,left,0,972.554,972.554,972.5561,974.0568,0,45,45,45,1,0.2,0.8,0.2,0.8,,,,,,,,,,,,,,,0.4072,,0.6,0.4,0.2,0.8,0.2,0.8,0.8,0.2,,,0.2221,,0.6,0.4,0.8,0.2,0.8,0.2,0.6,0.4,1,0
,,60ebfc77adae0f59618d6471,66fcb8260fbd8ab2ef632b03,2024-10-02_05h08.18.052,mdp,2024.2.1,Win32,40,66fa4ebf79326e780c390304,,,,,,,,,,,,,,,,,,,,,974.0573,974.0573,974.0595,974.7987,0,1,left,0.1942,,974.7998,975.6956,0,1,left,975.6975,976.544,1,0,right,1,976.5442,976.5442,976.5469,978.0436,0,46,46,46,1,0.2,0.8,0.2,0.8,,,,,,,,,,,,,,,0.3509,,0.6,0.4,0.2,0.8,0.2,0.8,0.8,0.2,,,0.2708,,0.6,0.4,0.8,0.2,0.8,0.2,0.6,0.4,1,0
,,60ebfc77adae0f59618d6471,66fcb8260fbd8ab2ef632b03,2024-10-02_05h08.18.052,mdp,2024.2.1,Win32,40,66fa4ebf79326e780c390304,,,,,,,,,,,,,,,,,,,,,978.0443,978.0444,978.0475,978.974,0,0,left,0.3939,,978.9756,979.8924,0,0,left,979.8949,980.8178,1,0,right,1,980.8178,980.8179,980.8205,982.3172,0,47,47,47,1,0.2,0.8,0.2,0.8,,,,,,,,,,,,,,,0.3642,,0.6,0.4,0.2,0.8,0.2,0.8,0.8,0.2,,,0.3587,,0.6,0.4,0.8,0.2,0.8,0.2,0.6,0.4,1,0
,,60ebfc77adae0f59618d6471,66fcb8260fbd8ab2ef632b03,2024-10-02_05h08.18.052,mdp,2024.2.1,Win32,40,66fa4ebf79326e780c390304,,,,,,,,,,,,,,,,,,,,,982.3184,982.3185,982.3209,983.167,0,1,left,0.3006,,983.1696,984.0428,0,1,left,984.0457,984.9466,1,0,right,1,984.9468,984.9468,984.951,986.4416,0,48,48,48,1,0.2,0.8,0.2,0.8,,,,,,,,,,,,,,,0.3165,,0.6,0.4,0.2,0.8,0.2,0.8,0.8,0.2,,,0.3294,,0.6,0.4,0.8,0.2,0.2,0.8,0.8,0.2,1,0
,,60ebfc77adae0f59618d6471,66fcb8260fbd8ab2ef632b03,2024-10-02_05h08.18.052,mdp,2024.2.1,Win32,40,66fa4ebf79326e780c390304,,,,,,,,,,,,,,,,,,,,,986.4435,986.4435,986.4458,987.2409,0,1,left,0.2537,,987.2446,988.091,0,1,left,988.0942,988.9948,1,1,right,0,988.995,988.995,988.9966,990.4897,0,49,49,49,1,0.2,0.8,0.2,0.8,,,,,,,,,,,,,,,0.3007,,0.6,0.4,0.2,0.8,0.2,0.8,0.8,0.2,,,0.3669,,0.6,0.4,0.8,0.2,0.2,0.8,0.8,0.2,1,0
,,60ebfc77adae0f59618d6471,66fcb8260fbd8ab2ef632b03,2024-10-02_05h08.18.052,mdp,2024.2.1,Win32,40,66fa4ebf79326e780c390304,,,,,,,,,,,,,,,,,,,,,,,,,,,,,,,,,,,,,,,,,,,,,,,,,,,,,,,,990.4906,1049.0116,0,2,2,2,1,imgs/kangaroo.png,imgs/goat.png,imgs/rabbit.png,imgs/horse.png,imgs/pig.png,,,,,,,,,,,,,,,,,,,,,,,,
,,60ebfc77adae0f59618d6471,66fcb8260fbd8ab2ef632b03,2024-10-02_05h08.18.052,mdp,2024.2.1,Win32,40,66fa4ebf79326e780c390304,,,,,,,,,,,,,,3,seqs/st3seq5.csv,1049.013,1053.2472,space,3.7015,,1053.2559,1053.2559,1053.2574,1054.7737,0,1,left,0.932,,1054.7782,1055.8197,1,0,right,1055.8233,1056.7068,0,0,left,1,1056.7069,1056.707,1056.7102,1058.1951,0,0,0,0,1,0.6,0.4,0.2,0.8,,,,,,,,,,,,,,,0.4378,,0.8,0.2,0.4,0.6,0.8,0.2,0.8,0.2,,,0.3234,,0.2,0.8,0.4,0.6,0.6,0.4,0.8,0.2,1,0
,,60ebfc77adae0f59618d6471,66fcb8260fbd8ab2ef632b03,2024-10-02_05h08.18.052,mdp,2024.2.1,Win32,40,66fa4ebf79326e780c390304,,,,,,,,,,,,,,,,,,,,,1058.1971,1058.1972,1058.2,1059.0842,0,0,left,0.3679,,1059.0865,1059.8445,1,1,right,1059.8499,1060.6974,0,0,left,1,1060.6975,1060.6975,1060.6985,1062.1946,0,1,1,1,1,0.6,0.4,0.2,0.8,,,,,,,,,,,,,,,0.1646,,0.8,0.2,0.4,0.6,0.8,0.2,0.8,0.2,,,0.3044,,0.2,0.8,0.4,0.6,0.6,0.4,0.8,0.2,1,0
,,60ebfc77adae0f59618d6471,66fcb8260fbd8ab2ef632b03,2024-10-02_05h08.18.052,mdp,2024.2.1,Win32,40,66fa4ebf79326e780c390304,,,,,,,,,,,,,,,,,,,,,1062.1957,1062.1958,1062.1994,1062.7684,0,0,left,0.0274,,1062.7718,1063.6683,1,0,right,1063.6736,1064.5184,0,1,left,0,1064.5185,1064.5185,1064.5212,1066.0172,0,2,2,2,1,0.6,0.4,0.2,0.8,,,,,,,,,,,,,,,0.3564,,0.8,0.2,0.4,0.6,0.8,0.2,0.8,0.2,,,0.2969,,0.2,0.8,0.4,0.6,0.6,0.4,0.8,0.2,1,0
,,60ebfc77adae0f59618d6471,66fcb8260fbd8ab2ef632b03,2024-10-02_05h08.18.052,mdp,2024.2.1,Win32,40,66fa4ebf79326e780c390304,,,,,,,,,,,,,,,,,,,,,1066.0184,1066.0185,1066.0213,1066.8496,0,1,left,0.3104,,1066.8521,1067.6925,0,0,left,1067.6979,1068.5754,0,0,left,1,1068.5756,1068.5756,1068.5776,1070.0665,0,3,3,3,1,0.6,0.4,0.2,0.8,,,,,,,,,,,,,,,0.282,,0.8,0.2,0.4,0.6,0.8,0.2,0.8,0.2,,,0.3439,,0.2,0.8,0.4,0.6,0.6,0.4,0.8,0.2,1,0
,,60ebfc77adae0f59618d6471,66fcb8260fbd8ab2ef632b03,2024-10-02_05h08.18.052,mdp,2024.2.1,Win32,40,66fa4ebf79326e780c390304,,,,,,,,,,,,,,,,,,,,,1070.0674,1070.0674,1070.0711,1070.9666,0,0,left,0.3613,,1070.9715,1071.8665,0,0,left,1071.8697,1072.7645,0,1,left,0,1072.7647,1072.7647,1072.7673,1074.2653,0,4,4,4,1,0.6,0.4,0.2,0.8,,,,,,,,,,,,,,,0.3332,,0.8,0.2,0.4,0.6,0.8,0.2,0.8,0.2,,,0.3581,,0.2,0.8,0.4,0.6,0.6,0.4,0.8,0.2,1,0
,,60ebfc77adae0f59618d6471,66fcb8260fbd8ab2ef632b03,2024-10-02_05h08.18.052,mdp,2024.2.1,Win32,40,66fa4ebf79326e780c390304,,,,,,,,,,,,,,,,,,,,,1074.2663,1074.2665,1074.2694,1075.141,0,1,left,0.3311,,1075.1442,1075.9401,1,0,right,1075.9447,1076.7233,0,1,left,0,1076.7234,1076.7234,1076.7253,1078.2139,0,5,5,5,1,0.6,0.4,0.2,0.8,,,,,,,,,,,,,,,0.2403,,0.8,0.2,0.4,0.6,0.8,0.2,0.8,0.2,,,0.2397,,0.2,0.8,0.4,0.6,0.6,0.4,0.8,0.2,1,0
,,60ebfc77adae0f59618d6471,66fcb8260fbd8ab2ef632b03,2024-10-02_05h08.18.052,mdp,2024.2.1,Win32,40,66fa4ebf79326e780c390304,,,,,,,,,,,,,,,,,,,,,1078.2147,1078.2147,1078.2179,1079.0446,0,0,left,0.2868,,1079.046,1079.8658,0,0,left,1079.8711,1080.9632,1,1,right,0,1080.9633,1080.9634,1080.9661,1082.4632,0,6,6,6,1,0.6,0.4,0.2,0.8,,,,,,,,,,,,,,,0.2706,,0.8,0.2,0.4,0.6,0.8,0.2,0.8,0.2,,,0.5488,,0.2,0.8,0.4,0.6,0.6,0.4,0.8,0.2,1,0
,,60ebfc77adae0f59618d6471,66fcb8260fbd8ab2ef632b03,2024-10-02_05h08.18.052,mdp,2024.2.1,Win32,40,66fa4ebf79326e780c390304,,,,,,,,,,,,,,,,,,,,,1082.4649,1082.4654,1082.4675,1083.2371,0,0,left,0.2269,,1083.2409,1084.038,0,1,left,1084.0414,1084.8616,0,0,left,1,1084.8619,1084.8619,1084.8642,1086.3635,0,7,7,7,1,0.6,0.4,0.2,0.8,,,,,,,,,,,,,,,0.2613,,0.8,0.2,0.4,0.6,0.8,0.2,0.8,0.2,,,0.2455,,0.2,0.8,0.4,0.6,0.6,0.4,0.8,0.2,1,0
,,60ebfc77adae0f59618d6471,66fcb8260fbd8ab2ef632b03,2024-10-02_05h08.18.052,mdp,2024.2.1,Win32,40,66fa4ebf79326e780c390304,,,,,,,,,,,,,,,,,,,,,1086.3641,1086.3641,1086.366,1087.2612,0,0,left,0.364,,1087.264,1088.1364,0,0,left,1088.1396,1088.9365,0,1,left,0,1088.9369,1088.9369,1088.9412,1090.4245,0,8,8,8,1,0.6,0.4,0.2,0.8,,,,,,,,,,,,,,,0.3295,,0.8,0.2,0.4,0.6,0.8,0.2,0.8,0.2,,,0.2154,,0.2,0.8,0.4,0.6,0.6,0.4,0.8,0.2,1,0
,,60ebfc77adae0f59618d6471,66fcb8260fbd8ab2ef632b03,2024-10-02_05h08.18.052,mdp,2024.2.1,Win32,40,66fa4ebf79326e780c390304,,,,,,,,,,,,,,,,,,,,,1090.4252,1090.4253,1090.4282,1091.4653,0,0,left,0.5094,,1091.4686,1092.3848,1,1,right,1092.3874,1093.1356,0,0,left,1,1093.1359,1093.1359,1093.1385,1094.6343,0,9,9,9,1,0.6,0.4,0.2,0.8,,,,,,,,,,,,,,,0.3804,,0.8,0.2,0.4,0.6,0.8,0.2,0.8,0.2,,,0.1712,,0.2,0.8,0.4,0.6,0.6,0.4,0.8,0.2,1,0
,,60ebfc77adae0f59618d6471,66fcb8260fbd8ab2ef632b03,2024-10-02_05h08.18.052,mdp,2024.2.1,Win32,40,66fa4ebf79326e780c390304,,,,,,,,,,,,,,,,,,,,,1094.6359,1094.6359,1094.6396,1095.5077,0,0,left,0.3283,,1095.5102,1096.2583,1,1,right,1096.2634,1097.0085,0,1,left,0,1097.0089,1097.0089,1097.012,1098.5079,0,10,10,10,1,0.6,0.4,0.2,0.8,,,,,,,,,,,,,,,0.2309,,0.8,0.2,0.4,0.6,0.8,0.2,0.8,0.2,,,0.2106,,0.2,0.8,0.4,0.6,0.6,0.4,0.8,0.2,1,0
,,60ebfc77adae0f59618d6471,66fcb8260fbd8ab2ef632b03,2024-10-02_05h08.18.052,mdp,2024.2.1,Win32,40,66fa4ebf79326e780c390304,,,,,,,,,,,,,,,,,,,,,1098.5096,1098.5097,1098.5136,1099.1862,0,0,left,0.1339,,1099.1906,1100.0105,0,1,left,1100.0134,1100.6815,0,1,left,0,1100.6818,1100.6818,1100.6843,1102.1819,0,11,11,11,1,0.6,0.4,0.2,0.8,,,,,,,,,,,,,,,0.298,,0.8,0.2,0.4,0.6,0.8,0.2,0.8,0.2,,,0.1312,,0.2,0.8,0.4,0.6,0.6,0.4,0.8,0.2,1,0
,,60ebfc77adae0f59618d6471,66fcb8260fbd8ab2ef632b03,2024-10-02_05h08.18.052,mdp,2024.2.1,Win32,40,66fa4ebf79326e780c390304,,,,,,,,,,,,,,,,,,,,,1102.1835,1102.1835,1102.1854,1103.1104,0,0,left,0.3891,,1103.112,1103.9066,0,1,left,1103.9092,1104.6142,0,0,left,1,1104.6144,1104.6144,1104.6167,1106.1056,0,12,12,12,1,0.6,0.4,0.2,0.8,,,,,,,,,,,,,,,0.2526,,0.8,0.2,0.4,0.6,0.8,0.2,0.8,0.2,,,0.1862,,0.2,0.8,0.4,0.6,0.6,0.4,0.8,0.2,1,0
,,60ebfc77adae0f59618d6471,66fcb8260fbd8ab2ef632b03,2024-10-02_05h08.18.052,mdp,2024.2.1,Win32,40,66fa4ebf79326e780c390304,,,,,,,,,,,,,,,,,,,,,1106.1067,1106.1068,1106.1093,1106.9922,0,0,left,0.3412,,1106.9951,1107.8563,1,1,right,1107.8599,1108.7093,0,0,left,1,1108.7094,1108.7094,1108.7105,1110.2046,0,13,13,13,1,0.6,0.4,0.2,0.8,,,,,,,,,,,,,,,0.3272,,0.8,0.2,0.4,0.6,0.8,0.2,0.8,0.2,,,0.3178,,0.2,0.8,0.4,0.6,0.6,0.4,0.8,0.2,1,0
,,60ebfc77adae0f59618d6471,66fcb8260fbd8ab2ef632b03,2024-10-02_05h08.18.052,mdp,2024.2.1,Win32,40,66fa4ebf79326e780c390304,,,,,,,,,,,,,,,,,,,,,1110.2053,1110.2053,1110.2078,1111.0802,0,1,left,0.3294,,1111.0834,1111.904,0,0,left,1111.9097,1112.7612,0,1,left,0,1112.7614,1112.7614,1112.7638,1114.2536,0,14,14,14,1,0.2,0.8,0.8,0.2,,,,,,,,,,,,,,,0.3001,,0.8,0.2,0.4,0.6,0.8,0.2,0.8,0.2,,,0.3168,,0.2,0.8,0.4,0.6,0.6,0.4,0.8,0.2,1,0
,,60ebfc77adae0f59618d6471,66fcb8260fbd8ab2ef632b03,2024-10-02_05h08.18.052,mdp,2024.2.1,Win32,40,66fa4ebf79326e780c390304,,,,,,,,,,,,,,,,,,,,,1114.2551,1114.2552,1114.2583,1115.0283,0,1,left,0.2293,,1115.0314,1115.8028,1,0,right,1115.8084,1116.5796,0,0,left,1,1116.5807,1116.5809,1116.5845,1118.0762,0,15,15,15,1,0.2,0.8,0.8,0.2,,,,,,,,,,,,,,,0.2264,,0.8,0.2,0.4,0.6,0.8,0.2,0.8,0.2,,,0.2554,,0.2,0.8,0.4,0.6,0.6,0.4,0.8,0.2,1,0
,,60ebfc77adae0f59618d6471,66fcb8260fbd8ab2ef632b03,2024-10-02_05h08.18.052,mdp,2024.2.1,Win32,40,66fa4ebf79326e780c390304,,,,,,,,,,,,,,,,,,,,,1118.0771,1118.0771,1118.0794,1118.831,0,1,left,0.2408,,1118.8321,1119.7013,1,0,right,1119.704,1120.508,0,1,left,0,1120.5083,1120.5083,1120.5107,1122.0024,0,16,16,16,1,0.2,0.8,0.8,0.2,,,,,,,,,,,,,,,0.3306,,0.8,0.2,0.4,0.6,0.8,0.2,0.8,0.2,,,0.2847,,0.2,0.8,0.4,0.6,0.6,0.4,0.8,0.2,1,0
,,60ebfc77adae0f59618d6471,66fcb8260fbd8ab2ef632b03,2024-10-02_05h08.18.052,mdp,2024.2.1,Win32,40,66fa4ebf79326e780c390304,,,,,,,,,,,,,,,,,,,,,1122.0039,1122.0039,1122.0085,1122.8766,0,1,left,0.3242,,1122.8828,1123.6005,1,0,right,1123.6042,1124.2745,0,0,left,1,1124.2745,1124.2745,1124.277,1125.7751,0,17,17,17,1,0.2,0.8,0.8,0.2,,,,,,,,,,,,,,,0.1611,,0.8,0.2,0.4,0.6,0.8,0.2,0.8,0.2,,,0.1288,,0.6,0.4,0.2,0.8,0.6,0.4,0.8,0.2,1,0
,,60ebfc77adae0f59618d6471,66fcb8260fbd8ab2ef632b03,2024-10-02_05h08.18.052,mdp,2024.2.1,Win32,40,66fa4ebf79326e780c390304,,,,,,,,,,,,,,,,,,,,,1125.776,1125.7761,1125.7791,1126.653,0,1,left,0.3395,,1126.6544,1127.4992,0,0,left,1127.5022,1128.299,0,1,left,0,1128.2994,1128.2994,1128.3019,1129.798,0,18,18,18,1,0.2,0.8,0.8,0.2,,,,,,,,,,,,,,,0.3016,,0.8,0.2,0.4,0.6,0.8,0.2,0.8,0.2,,,0.2691,,0.4,0.6,0.8,0.2,0.6,0.4,0.8,0.2,1,0
,,60ebfc77adae0f59618d6471,66fcb8260fbd8ab2ef632b03,2024-10-02_05h08.18.052,mdp,2024.2.1,Win32,40,66fa4ebf79326e780c390304,,,,,,,,,,,,,,,,,,,,,1129.7992,1129.7992,1129.8018,1130.6736,0,0,left,0.3265,,1130.6768,1131.4738,1,1,right,1131.4772,1132.2979,0,0,left,1,1132.298,1132.298,1132.301,1133.7967,0,19,19,19,1,0.6,0.4,0.2,0.8,,,,,,,,,,,,,,,0.2366,,0.8,0.2,0.4,0.6,0.8,0.2,0.8,0.2,,,0.2674,,0.4,0.6,0.8,0.2,0.6,0.4,0.8,0.2,1,0
,,60ebfc77adae0f59618d6471,66fcb8260fbd8ab2ef632b03,2024-10-02_05h08.18.052,mdp,2024.2.1,Win32,40,66fa4ebf79326e780c390304,,,,,,,,,,,,,,,,,,,,,1133.7979,1133.7979,1133.8009,1134.572,0,0,left,0.2276,,1134.5753,1135.3484,1,1,right,1135.3536,1136.221,0,0,left,1,1136.221,1136.2211,1136.2234,1137.7231,0,20,20,20,1,0.6,0.4,0.2,0.8,,,,,,,,,,,,,,,0.2346,,0.2,0.8,0.6,0.4,0.8,0.2,0.8,0.2,,,0.3273,,0.4,0.6,0.8,0.2,0.6,0.4,0.8,0.2,1,0
,,60ebfc77adae0f59618d6471,66fcb8260fbd8ab2ef632b03,2024-10-02_05h08.18.052,mdp,2024.2.1,Win32,40,66fa4ebf79326e780c390304,,,,,,,,,,,,,,,,,,,,,1137.7244,1137.7244,1137.7299,1138.5232,0,0,left,0.2654,,1138.5248,1139.3464,1,0,right,1139.3499,1140.1215,0,0,left,1,1140.1219,1140.1219,1140.1257,1141.62,0,21,21,21,1,0.6,0.4,0.2,0.8,,,,,,,,,,,,,,,0.2838,,0.2,0.8,0.6,0.4,0.8,0.2,0.8,0.2,,,0.1897,,0.2,0.8,0.6,0.4,0.6,0.4,0.8,0.2,1,0
,,60ebfc77adae0f59618d6471,66fcb8260fbd8ab2ef632b03,2024-10-02_05h08.18.052,mdp,2024.2.1,Win32,40,66fa4ebf79326e780c390304,,,,,,,,,,,,,,,,,,,,,1141.6222,1141.6222,1141.6247,1142.4867,0,0,left,0.3299,,1142.4883,1143.3193,1,1,right,1143.3238,1144.0246,0,0,left,1,1144.0247,1144.0247,1144.0273,1145.5332,0,22,22,22,1,0.6,0.4,0.2,0.8,,,,,,,,,,,,,,,0.3096,,0.2,0.8,0.6,0.4,0.8,0.2,0.8,0.2,,,0.122,,0.2,0.8,0.6,0.4,0.6,0.4,0.8,0.2,1,0
,,60ebfc77adae0f59618d6471,66fcb8260fbd8ab2ef632b03,2024-10-02_05h08.18.052,mdp,2024.2.1,Win32,40,66fa4ebf79326e780c390304,,,,,,,,,,,,,,,,,,,,,1145.5342,1145.5343,1145.5367,1146.4203,0,0,left,0.3366,,1146.4249,1147.2427,1,0,right,1147.2457,1148.068,0,0,left,1,1148.0681,1148.0681,1148.0702,1149.5813,0,23,23,23,1,0.6,0.4,0.2,0.8,,,,,,,,,,,,,,,0.2742,,0.2,0.8,0.6,0.4,0.8,0.2,0.8,0.2,,,0.2405,,0.2,0.8,0.6,0.4,0.4,0.6,0.6,0.4,1,0
,,60ebfc77adae0f59618d6471,66fcb8260fbd8ab2ef632b03,2024-10-02_05h08.18.052,mdp,2024.2.1,Win32,40,66fa4ebf79326e780c390304,,,,,,,,,,,,,,,,,,,,,1149.5821,1149.5821,1149.5845,1150.3676,0,0,left,0.2574,,1150.3708,1151.1925,1,0,right,1151.1954,1151.972,0,1,left,0,1151.9722,1151.9723,1151.9763,1153.4656,0,24,24,24,1,0.6,0.4,0.2,0.8,,,,,,,,,,,,,,,0.2933,,0.2,0.8,0.6,0.4,0.8,0.2,0.8,0.2,,,0.2336,,0.2,0.8,0.6,0.4,0.4,0.6,0.6,0.4,1,0
,,60ebfc77adae0f59618d6471,66fcb8260fbd8ab2ef632b03,2024-10-02_05h08.18.052,mdp,2024.2.1,Win32,40,66fa4ebf79326e780c390304,,,,,,,,,,,,,,,,,,,,,1153.4665,1153.4665,1153.4701,1154.3173,0,0,left,0.3031,,1154.3217,1155.1166,0,1,left,1155.1202,1155.8931,1,0,right,1,1155.8933,1155.8933,1155.8948,1157.3903,0,25,25,25,1,0.6,0.4,0.2,0.8,,,,,,,,,,,,,,,0.2472,,0.4,0.6,0.8,0.2,0.8,0.2,0.8,0.2,,,0.2223,,0.2,0.8,0.6,0.4,0.4,0.6,0.6,0.4,1,0
,,60ebfc77adae0f59618d6471,66fcb8260fbd8ab2ef632b03,2024-10-02_05h08.18.052,mdp,2024.2.1,Win32,40,66fa4ebf79326e780c390304,,,,,,,,,,,,,,,,,,,,,1157.3918,1157.3918,1157.3946,1158.2397,0,1,left,0.2993,,1158.2422,1159.0404,0,0,left,1159.0462,1159.9397,1,0,right,1,1159.94,1159.9405,1159.9453,1161.4385,0,26,26,26,1,0.6,0.4,0.2,0.8,,,,,,,,,,,,,,,0.2482,,0.4,0.6,0.8,0.2,0.8,0.2,0.8,0.2,,,0.3113,,0.2,0.8,0.6,0.4,0.4,0.6,0.6,0.4,1,0
,,60ebfc77adae0f59618d6471,66fcb8260fbd8ab2ef632b03,2024-10-02_05h08.18.052,mdp,2024.2.1,Win32,40,66fa4ebf79326e780c390304,,,,,,,,,,,,,,,,,,,,,1161.4394,1161.4395,1161.4418,1162.2385,0,0,left,0.2562,,1162.241,1163.0388,0,1,left,1163.0416,1163.8377,1,0,right,1,1163.8378,1163.8379,1163.8408,1165.3378,0,27,27,27,1,0.6,0.4,0.2,0.8,,,,,,,,,,,,,,,0.2409,,0.4,0.6,0.8,0.2,0.8,0.2,0.8,0.2,,,0.2357,,0.2,0.8,0.6,0.4,0.2,0.8,0.8,0.2,1,0
,,60ebfc77adae0f59618d6471,66fcb8260fbd8ab2ef632b03,2024-10-02_05h08.18.052,mdp,2024.2.1,Win32,40,66fa4ebf79326e780c390304,,,,,,,,,,,,,,,,,,,,,1165.3388,1165.3389,1165.3417,1166.1625,0,1,left,0.2803,,1166.1661,1166.987,0,0,left,1166.9918,1167.7927,1,0,right,1,1167.7929,1167.7929,1167.7951,1169.2864,0,28,28,28,1,0.6,0.4,0.2,0.8,,,,,,,,,,,,,,,0.2698,,0.4,0.6,0.8,0.2,0.8,0.2,0.8,0.2,,,0.2742,,0.2,0.8,0.6,0.4,0.2,0.8,0.8,0.2,1,0
,,60ebfc77adae0f59618d6471,66fcb8260fbd8ab2ef632b03,2024-10-02_05h08.18.052,mdp,2024.2.1,Win32,40,66fa4ebf79326e780c390304,,,,,,,,,,,,,,,,,,,,,1169.2872,1169.2872,1169.2896,1170.1372,0,1,left,0.303,,1170.1409,1170.938,0,1,left,1170.9428,1171.653,1,0,right,1,1171.6531,1171.6531,1171.6544,1173.1355,0,29,29,29,1,0.6,0.4,0.2,0.8,,,,,,,,,,,,,,,0.2732,,0.4,0.6,0.8,0.2,0.8,0.2,0.8,0.2,,,0.1432,,0.2,0.8,0.6,0.4,0.2,0.8,0.8,0.2,1,0
,,60ebfc77adae0f59618d6471,66fcb8260fbd8ab2ef632b03,2024-10-02_05h08.18.052,mdp,2024.2.1,Win32,40,66fa4ebf79326e780c390304,,,,,,,,,,,,,,,,,,,,,1173.1367,1173.1368,1173.1393,1173.9876,0,0,left,0.3051,,1173.9932,1174.8106,0,1,left,1174.8131,1175.4848,1,0,right,1,1175.485,1175.485,1175.4877,1176.9861,0,30,30,30,1,0.6,0.4,0.2,0.8,,,,,,,,,,,,,,,0.2631,,0.4,0.6,0.8,0.2,0.8,0.2,0.8,0.2,,,0.1321,,0.2,0.8,0.6,0.4,0.2,0.8,0.8,0.2,1,0
,,60ebfc77adae0f59618d6471,66fcb8260fbd8ab2ef632b03,2024-10-02_05h08.18.052,mdp,2024.2.1,Win32,40,66fa4ebf79326e780c390304,,,,,,,,,,,,,,,,,,,,,1176.9886,1176.9887,1176.9938,1177.8849,0,0,left,0.3528,,1177.8873,1178.9685,0,0,left,1178.9711,1179.8886,1,0,right,1,1179.8891,1179.8891,1179.8928,1181.3833,0,31,31,31,1,0.6,0.4,0.2,0.8,,,,,,,,,,,,,,,0.5229,0.0002,0.4,0.6,0.8,0.2,0.8,0.2,0.8,0.2,,,0.3737,,0.2,0.8,0.6,0.4,0.2,0.8,0.8,0.2,1,0
,,60ebfc77adae0f59618d6471,66fcb8260fbd8ab2ef632b03,2024-10-02_05h08.18.052,mdp,2024.2.1,Win32,40,66fa4ebf79326e780c390304,,,,,,,,,,,,,,,,,,,,,1181.3852,1181.3852,1181.388,1182.1456,0,0,left,0.2249,,1182.1466,1182.8869,0,1,left,1182.8911,1183.6073,1,0,right,1,1183.6075,1183.6075,1183.6099,1185.1071,0,32,32,32,1,0.6,0.4,0.2,0.8,,,,,,,,,,,,,,,0.2142,,0.8,0.2,0.4,0.6,0.8,0.2,0.8,0.2,,,0.148,,0.2,0.8,0.6,0.4,0.2,0.8,0.8,0.2,1,0
,,60ebfc77adae0f59618d6471,66fcb8260fbd8ab2ef632b03,2024-10-02_05h08.18.052,mdp,2024.2.1,Win32,40,66fa4ebf79326e780c390304,,,,,,,,,,,,,,,,,,,,,1185.1082,1185.1082,1185.1115,1185.8466,0,0,left,0.2173,,1185.8478,1186.6139,0,0,left,1186.6187,1187.2807,1,0,right,1,1187.2809,1187.2809,1187.2829,1188.7812,0,33,33,33,1,0.6,0.4,0.2,0.8,,,,,,,,,,,,,,,0.2351,,0.8,0.2,0.4,0.6,0.8,0.2,0.8,0.2,,,0.0955,,0.2,0.8,0.6,0.4,0.2,0.8,0.8,0.2,1,0
,,60ebfc77adae0f59618d6471,66fcb8260fbd8ab2ef632b03,2024-10-02_05h08.18.052,mdp,2024.2.1,Win32,40,66fa4ebf79326e780c390304,,,,,,,,,,,,,,,,,,,,,1188.7826,1188.7827,1188.7873,1190.0079,0,0,left,0.6777,,1190.0105,1190.8604,0,0,left,1190.8621,1191.5799,1,0,right,1,1191.5801,1191.5801,1191.5837,1193.0793,0,34,34,34,1,0.6,0.4,0.2,0.8,,,,,,,,,,,,,,,0.3101,,0.8,0.2,0.4,0.6,0.8,0.2,0.8,0.2,,,0.1846,,0.2,0.8,0.6,0.4,0.2,0.8,0.8,0.2,1,0
,,60ebfc77adae0f59618d6471,66fcb8260fbd8ab2ef632b03,2024-10-02_05h08.18.052,mdp,2024.2.1,Win32,40,66fa4ebf79326e780c390304,,,,,,,,,,,,,,,,,,,,,1193.08,1193.0801,1193.0824,1193.9063,0,1,left,0.2891,,1193.9101,1194.6538,0,0,left,1194.6563,1195.3301,1,0,right,1,1195.3305,1195.3305,1195.3332,1196.8287,0,35,35,35,1,0.6,0.4,0.2,0.8,,,,,,,,,,,,,,,0.1636,,0.2,0.8,0.8,0.2,0.8,0.2,0.8,0.2,,,0.1582,,0.2,0.8,0.6,0.4,0.2,0.8,0.8,0.2,1,0
,,60ebfc77adae0f59618d6471,66fcb8260fbd8ab2ef632b03,2024-10-02_05h08.18.052,mdp,2024.2.1,Win32,40,66fa4ebf79326e780c390304,,,,,,,,,,,,,,,,,,,,,1196.8298,1196.8298,1196.833,1197.7278,0,0,left,0.3562,,1197.7311,1198.5282,0,1,left,1198.5325,1199.3061,1,0,right,1,1199.3064,1199.3064,1199.3092,1200.8014,0,36,36,36,1,0.6,0.4,0.2,0.8,,,,,,,,,,,,,,,0.2497,,0.2,0.8,0.8,0.2,0.8,0.2,0.8,0.2,,,0.2289,,0.2,0.8,0.6,0.4,0.2,0.8,0.8,0.2,1,0
,,60ebfc77adae0f59618d6471,66fcb8260fbd8ab2ef632b03,2024-10-02_05h08.18.052,mdp,2024.2.1,Win32,40,66fa4ebf79326e780c390304,,,,,,,,,,,,,,,,,,,,,1200.8021,1200.8022,1200.8049,1201.4778,0,1,left,0.137,,1201.4822,1202.3034,0,0,left,1202.3082,1203.1763,1,0,right,1,1203.1764,1203.1764,1203.1793,1204.6631,0,37,37,37,1,0.6,0.4,0.2,0.8,,,,,,,,,,,,,,,0.2479,,0.2,0.8,0.8,0.2,0.8,0.2,0.8,0.2,,,0.3167,,0.2,0.8,0.6,0.4,0.2,0.8,0.8,0.2,1,0
,,60ebfc77adae0f59618d6471,66fcb8260fbd8ab2ef632b03,2024-10-02_05h08.18.052,mdp,2024.2.1,Win32,40,66fa4ebf79326e780c390304,,,,,,,,,,,,,,,,,,,,,1204.6638,1204.6638,1204.6659,1205.4109,0,1,left,0.2209,,1205.4137,1206.3269,0,0,left,1206.331,1207.1249,1,1,right,0,1207.125,1207.1252,1207.128,1208.6243,0,38,38,38,1,0.6,0.4,0.2,0.8,,,,,,,,,,,,,,,0.3843,,0.2,0.8,0.8,0.2,0.8,0.2,0.8,0.2,,,0.2517,,0.2,0.8,0.6,0.4,0.2,0.8,0.8,0.2,1,0
,,60ebfc77adae0f59618d6471,66fcb8260fbd8ab2ef632b03,2024-10-02_05h08.18.052,mdp,2024.2.1,Win32,40,66fa4ebf79326e780c390304,,,,,,,,,,,,,,,,,,,,,1208.6253,1208.6253,1208.6281,1209.4657,0,0,left,0.3054,,1209.467,1210.1742,1,0,right,1210.1773,1210.9251,0,1,left,0,1210.9253,1210.9253,1210.9288,1212.4429,0,39,39,39,1,0.6,0.4,0.2,0.8,,,,,,,,,,,,,,,0.1465,,0.2,0.8,0.8,0.2,0.8,0.2,0.8,0.2,,,0.2158,,0.6,0.4,0.8,0.2,0.2,0.8,0.8,0.2,1,0
,,60ebfc77adae0f59618d6471,66fcb8260fbd8ab2ef632b03,2024-10-02_05h08.18.052,mdp,2024.2.1,Win32,40,66fa4ebf79326e780c390304,,,,,,,,,,,,,,,,,,,,,1212.4442,1212.4442,1212.4486,1213.299,0,1,left,0.328,,1213.3011,1214.0738,0,0,left,1214.0767,1214.8482,1,1,right,0,1214.8486,1214.8486,1214.8519,1216.3484,0,40,40,40,1,0.6,0.4,0.2,0.8,,,,,,,,,,,,,,,0.2334,,0.2,0.8,0.8,0.2,0.8,0.2,0.8,0.2,,,0.2289,,0.6,0.4,0.8,0.2,0.2,0.8,0.8,0.2,1,0
,,60ebfc77adae0f59618d6471,66fcb8260fbd8ab2ef632b03,2024-10-02_05h08.18.052,mdp,2024.2.1,Win32,40,66fa4ebf79326e780c390304,,,,,,,,,,,,,,,,,,,,,1216.3509,1216.351,1216.3546,1217.0794,0,1,left,0.1949,,1217.0816,1217.8238,0,0,left,1217.8291,1218.4222,0,1,left,0,1218.4224,1218.4224,1218.4246,1219.9213,0,41,41,41,1,0.6,0.4,0.2,0.8,,,,,,,,,,,,,,,0.2031,,0.2,0.8,0.8,0.2,0.8,0.2,0.8,0.2,,,0.0528,,0.6,0.4,0.8,0.2,0.2,0.8,0.8,0.2,1,0
,,60ebfc77adae0f59618d6471,66fcb8260fbd8ab2ef632b03,2024-10-02_05h08.18.052,mdp,2024.2.1,Win32,40,66fa4ebf79326e780c390304,,,,,,,,,,,,,,,,,,,,,1219.9227,1219.9228,1219.9257,1220.871,0,1,left,0.4046,,1220.8742,1221.623,1,0,right,1221.6275,1222.3955,0,0,left,1,1222.3958,1222.3959,1222.3984,1223.8956,0,42,42,42,1,0.6,0.4,0.2,0.8,,,,,,,,,,,,,,,0.2272,,0.2,0.8,0.8,0.2,0.8,0.2,0.8,0.2,,,0.2225,,0.8,0.2,0.4,0.6,0.2,0.8,0.8,0.2,1,0
,,60ebfc77adae0f59618d6471,66fcb8260fbd8ab2ef632b03,2024-10-02_05h08.18.052,mdp,2024.2.1,Win32,40,66fa4ebf79326e780c390304,,,,,,,,,,,,,,,,,,,,,1223.8979,1223.8981,1223.9015,1224.6964,0,0,left,0.2539,,1224.7015,1225.4701,1,0,right,1225.4746,1226.1947,0,0,left,1,1226.1949,1226.1949,1226.1981,1227.6957,0,43,43,43,1,0.8,0.2,0.8,0.2,,,,,,,,,,,,,,,0.1948,,0.2,0.8,0.8,0.2,0.8,0.2,0.8,0.2,,,0.181,,0.8,0.2,0.4,0.6,0.2,0.8,0.8,0.2,1,0
,,60ebfc77adae0f59618d6471,66fcb8260fbd8ab2ef632b03,2024-10-02_05h08.18.052,mdp,2024.2.1,Win32,40,66fa4ebf79326e780c390304,,,,,,,,,,,,,,,,,,,,,1227.697,1227.697,1227.6996,1228.5468,0,0,left,0.3134,,1228.5528,1229.2694,1,0,right,1229.2722,1230.0212,0,0,left,1,1230.0216,1230.0216,1230.0258,1231.5176,0,44,44,44,1,0.8,0.2,0.8,0.2,,,,,,,,,,,,,,,0.1872,,0.2,0.8,0.8,0.2,0.8,0.2,0.8,0.2,,,0.212,,0.8,0.2,0.4,0.6,0.2,0.8,0.8,0.2,1,0
,,60ebfc77adae0f59618d6471,66fcb8260fbd8ab2ef632b03,2024-10-02_05h08.18.052,mdp,2024.2.1,Win32,40,66fa4ebf79326e780c390304,,,,,,,,,,,,,,,,,,,,,1231.5188,1231.5188,1231.5214,1232.2933,0,0,left,0.2348,,1232.2964,1233.0193,1,1,right,1233.0215,1233.829,0,1,left,0,1233.8292,1233.8292,1233.8319,1235.317,0,45,45,45,1,0.8,0.2,0.8,0.2,,,,,,,,,,,,,,,0.156,,0.2,0.8,0.8,0.2,0.8,0.2,0.8,0.2,,,0.2254,,0.8,0.2,0.4,0.6,0.2,0.8,0.8,0.2,1,0
,,60ebfc77adae0f59618d6471,66fcb8260fbd8ab2ef632b03,2024-10-02_05h08.18.052,mdp,2024.2.1,Win32,40,66fa4ebf79326e780c390304,,,,,,,,,,,,,,,,,,,,,1235.3188,1235.3188,1235.3242,1236.2192,0,0,left,0.3641,,1236.2237,1237.0172,1,0,right,1237.0197,1237.6675,0,0,left,1,1237.668,1237.668,1237.673,1239.1657,0,46,46,46,1,0.8,0.2,0.8,0.2,,,,,,,,,,,,,,,0.2408,,0.2,0.8,0.8,0.2,0.8,0.2,0.8,0.2,,,0.0821,,0.8,0.2,0.4,0.6,0.2,0.8,0.8,0.2,1,0
,,60ebfc77adae0f59618d6471,66fcb8260fbd8ab2ef632b03,2024-10-02_05h08.18.052,mdp,2024.2.1,Win32,40,66fa4ebf79326e780c390304,,,,,,,,,,,,,,,,,,,,,1239.1662,1239.1663,1239.1686,1240.0664,0,0,left,0.3527,,1240.0694,1240.8426,1,0,right,1240.8486,1241.6474,0,1,left,0,1241.6476,1241.6476,1241.6499,1243.1399,0,47,47,47,1,0.6,0.4,0.4,0.6,,,,,,,,,,,,,,,0.2518,,0.2,0.8,0.8,0.2,0.8,0.2,0.8,0.2,,,0.2596,,0.8,0.2,0.4,0.6,0.2,0.8,0.8,0.2,1,0
,,60ebfc77adae0f59618d6471,66fcb8260fbd8ab2ef632b03,2024-10-02_05h08.18.052,mdp,2024.2.1,Win32,40,66fa4ebf79326e780c390304,,,,,,,,,,,,,,,,,,,,,1243.1406,1243.1407,1243.1432,1244.0225,0,0,left,0.3456,,1244.0247,1244.6927,0,0,left,1244.6959,1245.3453,1,0,right,1,1245.3454,1245.3455,1245.3476,1246.8388,0,48,48,48,1,0.6,0.4,0.4,0.6,,,,,,,,,,,,,,,0.1312,,0.2,0.8,0.8,0.2,0.8,0.2,0.8,0.2,,,0.1176,,0.8,0.2,0.4,0.6,0.2,0.8,0.8,0.2,1,0
,,60ebfc77adae0f59618d6471,66fcb8260fbd8ab2ef632b03,2024-10-02_05h08.18.052,mdp,2024.2.1,Win32,40,66fa4ebf79326e780c390304,,,,,,,,,,,,,,,,,,,,,1246.8403,1246.8404,1246.8428,1247.5959,0,0,left,0.2061,,1247.5981,1248.3132,0,0,left,1248.3156,1249.1382,1,0,right,1,1249.1383,1249.1383,1249.1411,1250.6377,0,49,49,49,1,0.6,0.4,0.4,0.6,,,,,,,,,,,,,,,0.1747,,0.2,0.8,0.8,0.2,0.8,0.2,0.8,0.2,,,0.2994,,0.8,0.2,0.4,0.6,0.2,0.8,0.8,0.2,1,0
,,60ebfc77adae0f59618d6471,66fcb8260fbd8ab2ef632b03,2024-10-02_05h08.18.052,mdp,2024.2.1,Win32,40,66fa4ebf79326e780c390304,,,,,,,,,,,,,,,,,,,,,,,,,,,,,,,,,,,,,,,,,,,,,,,,,,,,,,,,1250.638,1309.1444,0,3,3,5,1,imgs/dog.png,imgs/pig.png,imgs/cat.png,imgs/squirrel.png,imgs/goat.png,,,,,,,,,,,,,,,,,,,,,,,,
,,60ebfc77adae0f59618d6471,66fcb8260fbd8ab2ef632b03,2024-10-02_05h08.18.052,mdp,2024.2.1,Win32,40,66fa4ebf79326e780c390304,,,,,,,,,,,,,,1,seqs/st1seq24.csv,1309.148,1313.2693,space,3.5736,,1313.2758,1313.2759,1313.2774,1314.5436,0,1,left,0.7223,,1314.5462,1314.5477,0,0,,1314.5486,1314.5492,1,0,,0,1314.5493,1314.5493,1314.55,1316.0426,0,0,0,0,1,0.6,0.4,0.2,0.8,1,0,,,,,,,,,,,,,,,,,,,,,,,,,,,,,,,,,,,,
,,60ebfc77adae0f59618d6471,66fcb8260fbd8ab2ef632b03,2024-10-02_05h08.18.052,mdp,2024.2.1,Win32,40,66fa4ebf79326e780c390304,,,,,,,,,,,,,,,,,,,,,1316.0435,1316.0436,1316.0465,1317.1682,0,1,left,0.5781,,1317.171,1317.1721,0,1,,1317.1729,1317.1734,1,0,,0,1317.1734,1317.1734,1317.1742,1318.6685,0,1,1,1,1,0.2,0.8,0.8,0.2,1,0,,,,,,,,,,,,,,,,,,,,,,,,,,,,,,,,,,,,
,,60ebfc77adae0f59618d6471,66fcb8260fbd8ab2ef632b03,2024-10-02_05h08.18.052,mdp,2024.2.1,Win32,40,66fa4ebf79326e780c390304,,,,,,,,,,,,,,,,,,,,,1318.6702,1318.6703,1318.6735,1319.6432,1,1,right,0.4364,,1319.6477,1319.6491,0,0,,1319.6506,1319.6518,1,0,,0,1319.6518,1319.6518,1319.6529,1321.1418,0,2,2,2,1,0.2,0.8,0.8,0.2,1,0,,,,,,,,,,,,,,,,,,,,,,,,,,,,,,,,,,,,
,,60ebfc77adae0f59618d6471,66fcb8260fbd8ab2ef632b03,2024-10-02_05h08.18.052,mdp,2024.2.1,Win32,40,66fa4ebf79326e780c390304,,,,,,,,,,,,,,,,,,,,,1321.1424,1321.1425,1321.1459,1321.8908,0,1,left,0.2032,,1321.8936,1321.8952,0,1,,1321.8961,1321.8968,1,1,,0,1321.8968,1321.8969,1321.8974,1323.3921,0,3,3,3,1,0.2,0.8,0.8,0.2,1,0,,,,,,,,,,,,,,,,,,,,,,,,,,,,,,,,,,,,
,,60ebfc77adae0f59618d6471,66fcb8260fbd8ab2ef632b03,2024-10-02_05h08.18.052,mdp,2024.2.1,Win32,40,66fa4ebf79326e780c390304,,,,,,,,,,,,,,,,,,,,,1323.3929,1323.3929,1323.3962,1324.3169,0,1,left,0.3855,,1324.3203,1324.3219,0,0,,1324.3232,1324.3242,1,1,,0,1324.3243,1324.3243,1324.3253,1325.816,0,4,4,4,1,0.2,0.8,0.8,0.2,1,0,,,,,,,,,,,,,,,,,,,,,,,,,,,,,,,,,,,,
,,60ebfc77adae0f59618d6471,66fcb8260fbd8ab2ef632b03,2024-10-02_05h08.18.052,mdp,2024.2.1,Win32,40,66fa4ebf79326e780c390304,,,,,,,,,,,,,,,,,,,,,1325.8168,1325.8169,1325.82,1326.9992,0,1,left,0.6436,,1327.0015,1327.003,0,0,,1327.0048,1327.0061,1,1,,0,1327.0062,1327.0062,1327.0077,1328.4898,0,5,5,5,1,0.2,0.8,0.8,0.2,1,0,,,,,,,,,,,,,,,,,,,,,,,,,,,,,,,,,,,,
,,60ebfc77adae0f59618d6471,66fcb8260fbd8ab2ef632b03,2024-10-02_05h08.18.052,mdp,2024.2.1,Win32,40,66fa4ebf79326e780c390304,,,,,,,,,,,,,,,,,,,,,1328.4904,1328.4904,1328.4933,1329.5895,1,0,right,0.5565,,1329.5928,1329.5937,0,0,,1329.5945,1329.5953,1,0,,1,1329.5953,1329.5953,1329.5961,1331.0892,0,6,6,6,1,0.2,0.8,0.8,0.2,1,0,,,,,,,,,,,,,,,,,,,,,,,,,,,,,,,,,,,,
,,60ebfc77adae0f59618d6471,66fcb8260fbd8ab2ef632b03,2024-10-02_05h08.18.052,mdp,2024.2.1,Win32,40,66fa4ebf79326e780c390304,,,,,,,,,,,,,,,,,,,,,1331.0897,1331.0897,1331.0924,1332.1386,1,1,right,0.5096,,1332.1409,1332.1422,0,1,,1332.1429,1332.1436,1,1,,0,1332.1437,1332.1437,1332.1443,1333.6379,0,7,7,7,1,0.6,0.4,0.4,0.6,1,0,,,,,,,,,,,,,,,,,,,,,,,,,,,,,,,,,,,,
,,60ebfc77adae0f59618d6471,66fcb8260fbd8ab2ef632b03,2024-10-02_05h08.18.052,mdp,2024.2.1,Win32,40,66fa4ebf79326e780c390304,,,,,,,,,,,,,,,,,,,,,1333.6386,1333.6386,1333.6411,1334.7139,0,1,left,0.5365,,1334.7184,1334.7197,0,1,,1334.7212,1334.7222,1,1,,0,1334.7223,1334.7223,1334.7235,1336.2115,0,8,8,8,1,0.6,0.4,0.4,0.6,1,0,,,,,,,,,,,,,,,,,,,,,,,,,,,,,,,,,,,,
,,60ebfc77adae0f59618d6471,66fcb8260fbd8ab2ef632b03,2024-10-02_05h08.18.052,mdp,2024.2.1,Win32,40,66fa4ebf79326e780c390304,,,,,,,,,,,,,,,,,,,,,1336.2123,1336.2123,1336.2145,1337.3122,0,0,left,0.5675,,1337.3148,1337.3158,0,1,,1337.3165,1337.3171,1,0,,1,1337.3172,1337.3172,1337.3178,1338.8128,0,9,9,9,1,0.6,0.4,0.4,0.6,1,0,,,,,,,,,,,,,,,,,,,,,,,,,,,,,,,,,,,,
,,60ebfc77adae0f59618d6471,66fcb8260fbd8ab2ef632b03,2024-10-02_05h08.18.052,mdp,2024.2.1,Win32,40,66fa4ebf79326e780c390304,,,,,,,,,,,,,,,,,,,,,1338.8139,1338.814,1338.8184,1339.7878,0,0,left,0.4306,,1339.7926,1339.7943,0,0,,1339.796,1339.7972,1,1,,1,1339.7974,1339.7974,1339.7987,1341.2849,0,10,10,10,1,0.6,0.4,0.4,0.6,1,0,,,,,,,,,,,,,,,,,,,,,,,,,,,,,,,,,,,,
,,60ebfc77adae0f59618d6471,66fcb8260fbd8ab2ef632b03,2024-10-02_05h08.18.052,mdp,2024.2.1,Win32,40,66fa4ebf79326e780c390304,,,,,,,,,,,,,,,,,,,,,1341.2858,1341.2858,1341.2883,1342.3114,0,0,left,0.4984,,1342.3145,1342.3156,0,0,,1342.3168,1342.3175,1,0,,1,1342.3175,1342.3176,1342.3186,1343.8117,0,11,11,11,1,0.6,0.4,0.4,0.6,1,0,,,,,,,,,,,,,,,,,,,,,,,,,,,,,,,,,,,,
,,60ebfc77adae0f59618d6471,66fcb8260fbd8ab2ef632b03,2024-10-02_05h08.18.052,mdp,2024.2.1,Win32,40,66fa4ebf79326e780c390304,,,,,,,,,,,,,,,,,,,,,1343.8128,1343.8128,1343.8175,1344.8412,0,0,left,0.494,,1344.8431,1344.8445,0,0,,1344.846,1344.847,1,1,,1,1344.847,1344.8471,1344.8482,1346.3346,0,12,12,12,1,0.6,0.4,0.4,0.6,1,0,,,,,,,,,,,,,,,,,,,,,,,,,,,,,,,,,,,,
,,60ebfc77adae0f59618d6471,66fcb8260fbd8ab2ef632b03,2024-10-02_05h08.18.052,mdp,2024.2.1,Win32,40,66fa4ebf79326e780c390304,,,,,,,,,,,,,,,,,,,,,1346.3356,1346.3357,1346.3385,1347.3336,0,1,left,0.4523,,1347.3363,1347.3377,0,0,,1347.3385,1347.3392,1,1,,0,1347.3392,1347.3393,1347.3398,1348.8336,0,13,13,13,1,0.6,0.4,0.4,0.6,1,0,,,,,,,,,,,,,,,,,,,,,,,,,,,,,,,,,,,,
,,60ebfc77adae0f59618d6471,66fcb8260fbd8ab2ef632b03,2024-10-02_05h08.18.052,mdp,2024.2.1,Win32,40,66fa4ebf79326e780c390304,,,,,,,,,,,,,,,,,,,,,1348.8353,1348.8355,1348.84,1350.0841,1,1,right,0.7073,,1350.0872,1350.0887,0,0,,1350.09,1350.0909,1,1,,0,1350.0909,1350.091,1350.0923,1351.5845,0,14,14,14,1,0.6,0.4,0.4,0.6,1,0,,,,,,,,,,,,,,,,,,,,,,,,,,,,,,,,,,,,
,,60ebfc77adae0f59618d6471,66fcb8260fbd8ab2ef632b03,2024-10-02_05h08.18.052,mdp,2024.2.1,Win32,40,66fa4ebf79326e780c390304,,,,,,,,,,,,,,,,,,,,,1351.5866,1351.5868,1351.591,1352.5077,0,0,left,0.3828,,1352.5112,1352.5122,0,1,,1352.5132,1352.5139,1,1,,1,1352.514,1352.514,1352.5148,1354.0076,0,15,15,15,1,0.6,0.4,0.4,0.6,1,0,,,,,,,,,,,,,,,,,,,,,,,,,,,,,,,,,,,,
,,60ebfc77adae0f59618d6471,66fcb8260fbd8ab2ef632b03,2024-10-02_05h08.18.052,mdp,2024.2.1,Win32,40,66fa4ebf79326e780c390304,,,,,,,,,,,,,,,,,,,,,1354.0092,1354.0093,1354.0134,1355.0126,0,1,left,0.4589,,1355.0154,1355.0167,0,1,,1355.0183,1355.0195,1,1,,0,1355.0197,1355.0197,1355.021,1356.5062,0,16,16,16,1,0.6,0.4,0.4,0.6,1,0,,,,,,,,,,,,,,,,,,,,,,,,,,,,,,,,,,,,
,,60ebfc77adae0f59618d6471,66fcb8260fbd8ab2ef632b03,2024-10-02_05h08.18.052,mdp,2024.2.1,Win32,40,66fa4ebf79326e780c390304,,,,,,,,,,,,,,,,,,,,,1356.5094,1356.5095,1356.5138,1357.4562,1,0,right,0.4111,,1357.4591,1357.46,0,1,,1357.4609,1357.4614,1,1,,1,1357.4615,1357.4615,1357.4621,1358.9552,0,17,17,17,1,0.6,0.4,0.4,0.6,1,0,,,,,,,,,,,,,,,,,,,,,,,,,,,,,,,,,,,,
,,60ebfc77adae0f59618d6471,66fcb8260fbd8ab2ef632b03,2024-10-02_05h08.18.052,mdp,2024.2.1,Win32,40,66fa4ebf79326e780c390304,,,,,,,,,,,,,,,,,,,,,1358.956,1358.956,1358.959,1359.964,1,0,right,0.4707,,1359.9662,1359.9676,0,0,,1359.9695,1359.9707,1,0,,1,1359.9708,1359.9709,1359.9722,1361.4545,0,18,18,18,1,0.6,0.4,0.4,0.6,1,0,,,,,,,,,,,,,,,,,,,,,,,,,,,,,,,,,,,,
,,60ebfc77adae0f59618d6471,66fcb8260fbd8ab2ef632b03,2024-10-02_05h08.18.052,mdp,2024.2.1,Win32,40,66fa4ebf79326e780c390304,,,,,,,,,,,,,,,,,,,,,1361.4551,1361.4551,1361.4578,1362.479,1,0,right,0.4953,,1362.4812,1362.4827,0,1,,1362.4836,1362.4842,1,0,,1,1362.4843,1362.4843,1362.4849,1363.9804,0,19,19,19,1,0.2,0.8,0.6,0.4,1,0,,,,,,,,,,,,,,,,,,,,,,,,,,,,,,,,,,,,
,,60ebfc77adae0f59618d6471,66fcb8260fbd8ab2ef632b03,2024-10-02_05h08.18.052,mdp,2024.2.1,Win32,40,66fa4ebf79326e780c390304,,,,,,,,,,,,,,,,,,,,,1363.9814,1363.9814,1363.986,1364.9539,1,1,right,0.427,,1364.9567,1364.9576,0,1,,1364.9584,1364.959,1,0,,0,1364.959,1364.959,1364.9596,1366.4522,0,20,20,20,1,0.2,0.8,0.6,0.4,1,0,,,,,,,,,,,,,,,,,,,,,,,,,,,,,,,,,,,,
,,60ebfc77adae0f59618d6471,66fcb8260fbd8ab2ef632b03,2024-10-02_05h08.18.052,mdp,2024.2.1,Win32,40,66fa4ebf79326e780c390304,,,,,,,,,,,,,,,,,,,,,1366.4529,1366.453,1366.4555,1367.3521,0,1,left,0.3305,,1367.3542,1367.3562,0,1,,1367.3575,1367.3583,1,1,,0,1367.3583,1367.3583,1367.359,1368.8449,0,21,21,21,1,0.2,0.8,0.6,0.4,1,0,,,,,,,,,,,,,,,,,,,,,,,,,,,,,,,,,,,,
,,60ebfc77adae0f59618d6471,66fcb8260fbd8ab2ef632b03,2024-10-02_05h08.18.052,mdp,2024.2.1,Win32,40,66fa4ebf79326e780c390304,,,,,,,,,,,,,,,,,,,,,1368.8461,1368.8461,1368.8483,1369.5661,1,1,right,0.178,,1369.567,1369.5677,0,0,,1369.5684,1369.569,1,1,,0,1369.5691,1369.5691,1369.5698,1371.0639,0,22,22,22,1,0.2,0.8,0.6,0.4,1,0,,,,,,,,,,,,,,,,,,,,,,,,,,,,,,,,,,,,
,,60ebfc77adae0f59618d6471,66fcb8260fbd8ab2ef632b03,2024-10-02_05h08.18.052,mdp,2024.2.1,Win32,40,66fa4ebf79326e780c390304,,,,,,,,,,,,,,,,,,,,,1371.0647,1371.0647,1371.0661,1371.8155,0,1,left,0.2031,,1371.8166,1371.8171,0,1,,1371.8179,1371.8185,1,1,,0,1371.8185,1371.8185,1371.819,1373.3208,0,23,23,23,1,0.2,0.8,0.6,0.4,1,0,,,,,,,,,,,,,,,,,,,,,,,,,,,,,,,,,,,,
,,60ebfc77adae0f59618d6471,66fcb8260fbd8ab2ef632b03,2024-10-02_05h08.18.052,mdp,2024.2.1,Win32,40,66fa4ebf79326e780c390304,,,,,,,,,,,,,,,,,,,,,1373.3226,1373.3226,1373.325,1374.2271,0,0,left,0.3734,,1374.2293,1374.2307,0,0,,1374.2316,1374.2322,1,0,,1,1374.2323,1374.2323,1374.2328,1375.736,0,24,24,24,1,0.8,0.2,0.2,0.8,1,0,,,,,,,,,,,,,,,,,,,,,,,,,,,,,,,,,,,,
,,60ebfc77adae0f59618d6471,66fcb8260fbd8ab2ef632b03,2024-10-02_05h08.18.052,mdp,2024.2.1,Win32,40,66fa4ebf79326e780c390304,,,,,,,,,,,,,,,,,,,,,1375.7364,1375.7365,1375.738,1376.576,0,0,left,0.3117,,1376.5795,1376.5815,0,0,,1376.5832,1376.5844,1,0,,1,1376.5844,1376.5844,1376.5855,1378.0761,0,25,25,25,1,0.8,0.2,0.2,0.8,1,0,,,,,,,,,,,,,,,,,,,,,,,,,,,,,,,,,,,,
,,60ebfc77adae0f59618d6471,66fcb8260fbd8ab2ef632b03,2024-10-02_05h08.18.052,mdp,2024.2.1,Win32,40,66fa4ebf79326e780c390304,,,,,,,,,,,,,,,,,,,,,1378.0771,1378.0771,1378.0795,1378.9722,0,0,left,0.3545,,1378.9753,1378.9784,0,1,,1378.9802,1378.9816,1,0,,1,1378.9817,1378.9817,1378.983,1380.4739,0,26,26,26,1,0.8,0.2,0.2,0.8,1,0,,,,,,,,,,,,,,,,,,,,,,,,,,,,,,,,,,,,
,,60ebfc77adae0f59618d6471,66fcb8260fbd8ab2ef632b03,2024-10-02_05h08.18.052,mdp,2024.2.1,Win32,40,66fa4ebf79326e780c390304,,,,,,,,,,,,,,,,,,,,,1380.4751,1380.4753,1380.4798,1381.1513,0,0,left,0.1316,,1381.1539,1381.1551,0,0,,1381.1565,1381.1574,1,0,,1,1381.1574,1381.1575,1381.1584,1382.6482,0,27,27,27,1,0.8,0.2,0.2,0.8,1,0,,,,,,,,,,,,,,,,,,,,,,,,,,,,,,,,,,,,
,,60ebfc77adae0f59618d6471,66fcb8260fbd8ab2ef632b03,2024-10-02_05h08.18.052,mdp,2024.2.1,Win32,40,66fa4ebf79326e780c390304,,,,,,,,,,,,,,,,,,,,,1382.6497,1382.6499,1382.6536,1383.4997,0,0,left,0.3135,,1383.5019,1383.5027,0,0,,1383.5034,1383.504,1,1,,1,1383.504,1383.504,1383.5046,1384.9993,0,28,28,28,1,0.8,0.2,0.2,0.8,1,0,,,,,,,,,,,,,,,,,,,,,,,,,,,,,,,,,,,,
,,60ebfc77adae0f59618d6471,66fcb8260fbd8ab2ef632b03,2024-10-02_05h08.18.052,mdp,2024.2.1,Win32,40,66fa4ebf79326e780c390304,,,,,,,,,,,,,,,,,,,,,1385.0021,1385.0022,1385.0061,1385.9039,0,0,left,0.3632,,1385.9064,1385.9077,0,0,,1385.9095,1385.9106,1,0,,1,1385.9106,1385.9106,1385.9119,1387.3981,0,29,29,29,1,0.8,0.2,0.2,0.8,1,0,,,,,,,,,,,,,,,,,,,,,,,,,,,,,,,,,,,,
,,60ebfc77adae0f59618d6471,66fcb8260fbd8ab2ef632b03,2024-10-02_05h08.18.052,mdp,2024.2.1,Win32,40,66fa4ebf79326e780c390304,,,,,,,,,,,,,,,,,,,,,1387.3991,1387.3991,1387.4016,1388.2756,0,0,left,0.3406,,1388.277,1388.2779,0,0,,1388.279,1388.2798,1,0,,1,1388.2798,1388.2799,1388.2807,1389.7706,0,30,30,30,1,0.8,0.2,0.2,0.8,1,0,,,,,,,,,,,,,,,,,,,,,,,,,,,,,,,,,,,,
,,60ebfc77adae0f59618d6471,66fcb8260fbd8ab2ef632b03,2024-10-02_05h08.18.052,mdp,2024.2.1,Win32,40,66fa4ebf79326e780c390304,,,,,,,,,,,,,,,,,,,,,1389.7714,1389.7716,1389.7741,1390.7032,0,0,left,0.3945,,1390.7053,1390.7066,0,0,,1390.7081,1390.7096,1,0,,1,1390.7097,1390.7097,1390.7112,1392.1956,0,31,31,31,1,0.8,0.2,0.2,0.8,1,0,,,,,,,,,,,,,,,,,,,,,,,,,,,,,,,,,,,,
,,60ebfc77adae0f59618d6471,66fcb8260fbd8ab2ef632b03,2024-10-02_05h08.18.052,mdp,2024.2.1,Win32,40,66fa4ebf79326e780c390304,,,,,,,,,,,,,,,,,,,,,1392.1968,1392.1968,1392.1996,1393.0988,0,1,left,0.363,,1393.0999,1393.1007,0,0,,1393.1016,1393.1022,1,0,,0,1393.1023,1393.1023,1393.103,1394.5948,0,32,32,32,1,0.8,0.2,0.2,0.8,1,0,,,,,,,,,,,,,,,,,,,,,,,,,,,,,,,,,,,,
,,60ebfc77adae0f59618d6471,66fcb8260fbd8ab2ef632b03,2024-10-02_05h08.18.052,mdp,2024.2.1,Win32,40,66fa4ebf79326e780c390304,,,,,,,,,,,,,,,,,,,,,1394.5954,1394.5954,1394.5977,1395.5539,1,0,right,0.4175,,1395.5568,1395.5587,0,1,,1395.5613,1395.5632,1,1,,1,1395.5633,1395.5633,1395.5653,1397.0697,0,33,33,33,1,0.4,0.6,0.6,0.4,1,0,,,,,,,,,,,,,,,,,,,,,,,,,,,,,,,,,,,,
,,60ebfc77adae0f59618d6471,66fcb8260fbd8ab2ef632b03,2024-10-02_05h08.18.052,mdp,2024.2.1,Win32,40,66fa4ebf79326e780c390304,,,,,,,,,,,,,,,,,,,,,1397.0702,1397.0702,1397.0729,1397.9183,1,1,right,0.3036,,1397.9207,1397.922,0,0,,1397.9232,1397.9239,1,1,,0,1397.9239,1397.9239,1397.9246,1399.4184,0,34,34,34,1,0.4,0.6,0.6,0.4,1,0,,,,,,,,,,,,,,,,,,,,,,,,,,,,,,,,,,,,
,,60ebfc77adae0f59618d6471,66fcb8260fbd8ab2ef632b03,2024-10-02_05h08.18.052,mdp,2024.2.1,Win32,40,66fa4ebf79326e780c390304,,,,,,,,,,,,,,,,,,,,,1399.419,1399.419,1399.4221,1400.319,0,1,left,0.3568,,1400.3222,1400.3233,0,0,,1400.3246,1400.3256,1,0,,0,1400.3256,1400.3257,1400.3267,1401.8182,0,35,35,35,1,0.4,0.6,0.6,0.4,1,0,,,,,,,,,,,,,,,,,,,,,,,,,,,,,,,,,,,,
,,60ebfc77adae0f59618d6471,66fcb8260fbd8ab2ef632b03,2024-10-02_05h08.18.052,mdp,2024.2.1,Win32,40,66fa4ebf79326e780c390304,,,,,,,,,,,,,,,,,,,,,1401.8199,1401.8201,1401.8242,1402.7924,0,1,left,0.4249,,1402.7949,1402.7962,0,0,,1402.797,1402.7976,1,1,,0,1402.7976,1402.7976,1402.7983,1404.2921,0,36,36,36,1,0.4,0.6,0.6,0.4,1,0,,,,,,,,,,,,,,,,,,,,,,,,,,,,,,,,,,,,
,,60ebfc77adae0f59618d6471,66fcb8260fbd8ab2ef632b03,2024-10-02_05h08.18.052,mdp,2024.2.1,Win32,40,66fa4ebf79326e780c390304,,,,,,,,,,,,,,,,,,,,,1404.2938,1404.2939,1404.2978,1405.2191,1,1,right,0.3814,,1405.2218,1405.2227,0,0,,1405.2238,1405.2247,1,0,,0,1405.2248,1405.2248,1405.2257,1406.7166,0,37,37,37,1,0.2,0.8,0.8,0.2,1,0,,,,,,,,,,,,,,,,,,,,,,,,,,,,,,,,,,,,
,,60ebfc77adae0f59618d6471,66fcb8260fbd8ab2ef632b03,2024-10-02_05h08.18.052,mdp,2024.2.1,Win32,40,66fa4ebf79326e780c390304,,,,,,,,,,,,,,,,,,,,,1406.7192,1406.7193,1406.7242,1407.7481,0,1,left,0.4954,,1407.7494,1407.7504,0,1,,1407.7516,1407.7525,1,1,,0,1407.7525,1407.7525,1407.7536,1409.24,0,38,38,38,1,0.2,0.8,0.8,0.2,1,0,,,,,,,,,,,,,,,,,,,,,,,,,,,,,,,,,,,,
,,60ebfc77adae0f59618d6471,66fcb8260fbd8ab2ef632b03,2024-10-02_05h08.18.052,mdp,2024.2.1,Win32,40,66fa4ebf79326e780c390304,,,,,,,,,,,,,,,,,,,,,1409.2408,1409.2408,1409.2435,1410.1649,0,0,left,0.4014,,1410.1683,1410.1697,0,0,,1410.1709,1410.1718,1,1,,1,1410.1719,1410.1719,1410.1729,1411.6652,0,39,39,39,1,0.8,0.2,0.4,0.6,1,0,,,,,,,,,,,,,,,,,,,,,,,,,,,,,,,,,,,,
,,60ebfc77adae0f59618d6471,66fcb8260fbd8ab2ef632b03,2024-10-02_05h08.18.052,mdp,2024.2.1,Win32,40,66fa4ebf79326e780c390304,,,,,,,,,,,,,,,,,,,,,1411.6669,1411.6671,1411.671,1412.6151,0,1,left,0.4008,,1412.6183,1412.6197,0,1,,1412.6211,1412.6219,1,0,,0,1412.622,1412.622,1412.623,1414.1147,0,40,40,40,1,0.4,0.6,0.8,0.2,1,0,,,,,,,,,,,,,,,,,,,,,,,,,,,,,,,,,,,,
,,60ebfc77adae0f59618d6471,66fcb8260fbd8ab2ef632b03,2024-10-02_05h08.18.052,mdp,2024.2.1,Win32,40,66fa4ebf79326e780c390304,,,,,,,,,,,,,,,,,,,,,1414.1153,1414.1154,1414.1187,1415.0647,0,0,left,0.4061,,1415.0677,1415.0689,0,0,,1415.0701,1415.0709,1,0,,1,1415.071,1415.071,1415.0718,1416.5627,0,41,41,41,1,0.8,0.2,0.2,0.8,1,0,,,,,,,,,,,,,,,,,,,,,,,,,,,,,,,,,,,,
,,60ebfc77adae0f59618d6471,66fcb8260fbd8ab2ef632b03,2024-10-02_05h08.18.052,mdp,2024.2.1,Win32,40,66fa4ebf79326e780c390304,,,,,,,,,,,,,,,,,,,,,1416.5634,1416.5634,1416.566,1417.4772,0,0,left,0.3887,,1417.4782,1417.4788,0,0,,1417.4795,1417.48,1,1,,1,1417.4801,1417.4801,1417.4806,1418.9621,0,42,42,42,1,0.8,0.2,0.2,0.8,1,0,,,,,,,,,,,,,,,,,,,,,,,,,,,,,,,,,,,,
,,60ebfc77adae0f59618d6471,66fcb8260fbd8ab2ef632b03,2024-10-02_05h08.18.052,mdp,2024.2.1,Win32,40,66fa4ebf79326e780c390304,,,,,,,,,,,,,,,,,,,,,1418.9634,1418.9634,1418.9671,1419.8974,0,1,left,0.3972,,1419.8997,1419.9011,0,0,,1419.9028,1419.9042,1,0,,0,1419.9043,1419.9043,1419.9058,1421.3867,0,43,43,43,1,0.8,0.2,0.2,0.8,1,0,,,,,,,,,,,,,,,,,,,,,,,,,,,,,,,,,,,,
,,60ebfc77adae0f59618d6471,66fcb8260fbd8ab2ef632b03,2024-10-02_05h08.18.052,mdp,2024.2.1,Win32,40,66fa4ebf79326e780c390304,,,,,,,,,,,,,,,,,,,,,1421.388,1421.388,1421.39,1422.3184,1,1,right,0.4071,,1422.3201,1422.3211,0,1,,1422.3226,1422.3237,1,1,,0,1422.3238,1422.3239,1422.3248,1423.8103,0,44,44,44,1,0.8,0.2,0.2,0.8,1,0,,,,,,,,,,,,,,,,,,,,,,,,,,,,,,,,,,,,
,,60ebfc77adae0f59618d6471,66fcb8260fbd8ab2ef632b03,2024-10-02_05h08.18.052,mdp,2024.2.1,Win32,40,66fa4ebf79326e780c390304,,,,,,,,,,,,,,,,,,,,,1423.811,1423.811,1423.8144,1424.591,1,1,right,0.2586,,1424.5925,1424.5933,0,1,,1424.5944,1424.5953,1,0,,0,1424.5954,1424.5954,1424.5963,1426.0863,0,45,45,45,1,0.8,0.2,0.2,0.8,1,0,,,,,,,,,,,,,,,,,,,,,,,,,,,,,,,,,,,,
,,60ebfc77adae0f59618d6471,66fcb8260fbd8ab2ef632b03,2024-10-02_05h08.18.052,mdp,2024.2.1,Win32,40,66fa4ebf79326e780c390304,,,,,,,,,,,,,,,,,,,,,1426.0871,1426.0871,1426.0896,1426.7873,0,0,left,0.1605,,1426.7904,1426.7915,0,0,,1426.7931,1426.7941,1,0,,1,1426.7943,1426.7943,1426.7954,1428.2849,0,46,46,46,1,0.8,0.2,0.2,0.8,1,0,,,,,,,,,,,,,,,,,,,,,,,,,,,,,,,,,,,,
