init_exp.started,init_exp.stopped,participant,session,date,expName,psychopyVersion,OS,frameRate,study_id,disp_instruction.started,disp_instruction.stopped,instruction.thisRepN,instruction.thisTrialN,instruction.thisN,instruction.thisIndex,instruction.ran,instimg_path,consent.started,consent.stopped,key_resp_3.keys,key_resp_3.rt,key_resp_3.duration,n_steps,sequence_path,init_block.started,init_block.stopped,key_resp.keys,key_resp.rt,key_resp.duration,init_trials.started,init_trials.stopped,step0.started,step0.stopped,act0,s1,res0.keys,res0.rt,res0.duration,step1.started,step1.stopped,act1,s2,res1.keys,step2.started,step2.stopped,act2,s3,res2.keys,rew,reward_comp.started,reward_comp.stopped,reward_disp.started,reward_disp.stopped,trials.thisRepN,trials.thisTrialN,trials.thisN,trials.thisIndex,trials.ran,s00a0s10,s00a0s11,s00a1s10,s00a1s11,rew10,rew11,break_block.started,break_block.stopped,block.thisRepN,block.thisTrialN,block.thisN,block.thisIndex,block.ran,s00path,s10path,s11path,s20path,s21path,res1.rt,res1.duration,s10a0s20,s10a0s21,s10a1s20,s10a1s21,s11a0s20,s11a0s21,s11a1s20,s11a1s21,rew20,rew21,res2.rt,res2.duration,s20a0s30,s20a0s31,s20a1s30,s20a1s31,s21a0s30,s21a0s31,s21a1s30,s21a1s31,rew30,rew31
0.0002,0.0018,60fc06a551733182cbfee788,66fc995842b801f3398f5640,2024-10-02_02h54.07.671,mdp,2024.2.1,Win32,60.24096386,66fa4ebf79326e780c390304,,,,,,,,,,,,,,,,,,,,,,,,,,,,,,,,,,,,,,,,,,,,,,,,,,,,,,,,,,,,,,,,,,,,,,,,,,,,,,,,,,,,,,,,,,,
,,60fc06a551733182cbfee788,66fc995842b801f3398f5640,2024-10-02_02h54.07.671,mdp,2024.2.1,Win32,60.24096386,66fa4ebf79326e780c390304,0.0067,23.4658,0,0,0,0,1,rlnn_exp/rlnn_exp.001.png,,,,,,,,,,,,,,,,,,,,,,,,,,,,,,,,,,,,,,,,,,,,,,,,,,,,,,,,,,,,,,,,,,,,,,,,,,,,,,,,,,,
,,60fc06a551733182cbfee788,66fc995842b801f3398f5640,2024-10-02_02h54.07.671,mdp,2024.2.1,Win32,60.24096386,66fa4ebf79326e780c390304,23.4668,58.5794,0,1,1,1,1,rlnn_exp/rlnn_exp.002.png,,,,,,,,,,,,,,,,,,,,,,,,,,,,,,,,,,,,,,,,,,,,,,,,,,,,,,,,,,,,,,,,,,,,,,,,,,,,,,,,,,,
,,60fc06a551733182cbfee788,66fc995842b801f3398f5640,2024-10-02_02h54.07.671,mdp,2024.2.1,Win32,60.24096386,66fa4ebf79326e780c390304,58.5982,120.3714,0,2,2,2,1,rlnn_exp/rlnn_exp.003.png,,,,,,,,,,,,,,,,,,,,,,,,,,,,,,,,,,,,,,,,,,,,,,,,,,,,,,,,,,,,,,,,,,,,,,,,,,,,,,,,,,,
,,60fc06a551733182cbfee788,66fc995842b801f3398f5640,2024-10-02_02h54.07.671,mdp,2024.2.1,Win32,60.24096386,66fa4ebf79326e780c390304,120.3934,131.087,0,3,3,3,1,rlnn_exp/rlnn_exp.004.png,,,,,,,,,,,,,,,,,,,,,,,,,,,,,,,,,,,,,,,,,,,,,,,,,,,,,,,,,,,,,,,,,,,,,,,,,,,,,,,,,,,
,,60fc06a551733182cbfee788,66fc995842b801f3398f5640,2024-10-02_02h54.07.671,mdp,2024.2.1,Win32,60.24096386,66fa4ebf79326e780c390304,,,,,,,,,131.108,161.0832,y,19.9534,,,,,,,,,,,,,,,,,,,,,,,,,,,,,,,,,,,,,,,,,,,,,,,,,,,,,,,,,,,,,,,,,,,,,,,,,,,,,,,
,,60fc06a551733182cbfee788,66fc995842b801f3398f5640,2024-10-02_02h54.07.671,mdp,2024.2.1,Win32,60.24096386,66fa4ebf79326e780c390304,,,,,,,,,,,,,,1,seqs/st1seq48.csv,161.111,165.2379,space,3.6005,,165.2592,165.2594,165.26,167.0268,0,0,left,1.2309,,167.0282,167.032,,1,,167.0341,167.0386,,1,,1,167.0389,167.0391,167.04,168.5398,0,0,0,0,1,0.2,0.8,0.8,0.2,1,0,,,,,,,,,,,,,,,,,,,,,,,,,,,,,,,,,,,,
,,60fc06a551733182cbfee788,66fc995842b801f3398f5640,2024-10-02_02h54.07.671,mdp,2024.2.1,Win32,60.24096386,66fa4ebf79326e780c390304,,,,,,,,,,,,,,,,,,,,,168.5418,168.5418,168.5442,170.9196,0,0,left,1.8509,,170.9214,170.9223,,1,,170.9231,170.9239,,0,,1,170.9239,170.9239,170.9245,172.4179,0,1,1,1,1,0.2,0.8,0.8,0.2,1,0,,,,,,,,,,,,,,,,,,,,,,,,,,,,,,,,,,,,
,,60fc06a551733182cbfee788,66fc995842b801f3398f5640,2024-10-02_02h54.07.671,mdp,2024.2.1,Win32,60.24096386,66fa4ebf79326e780c390304,,,,,,,,,,,,,,,,,,,,,172.4188,172.4188,172.4203,174.751,0,1,left,1.7993,,174.7552,174.757,,0,,174.7599,174.7623,,0,,0,174.7623,174.7624,174.7639,176.2601,0,2,2,2,1,0.8,0.2,0.6,0.4,1,0,,,,,,,,,,,,,,,,,,,,,,,,,,,,,,,,,,,,
,,60fc06a551733182cbfee788,66fc995842b801f3398f5640,2024-10-02_02h54.07.671,mdp,2024.2.1,Win32,60.24096386,66fa4ebf79326e780c390304,,,,,,,,,,,,,,,,,,,,,176.261,176.261,176.2643,178.8082,0,0,left,2.0186,,178.8111,178.8127,,1,,178.8141,178.8155,,0,,1,178.8156,178.8156,178.8168,180.3064,0,3,3,3,1,0.8,0.2,0.6,0.4,1,0,,,,,,,,,,,,,,,,,,,,,,,,,,,,,,,,,,,,
,,60fc06a551733182cbfee788,66fc995842b801f3398f5640,2024-10-02_02h54.07.671,mdp,2024.2.1,Win32,60.24096386,66fa4ebf79326e780c390304,,,,,,,,,,,,,,,,,,,,,180.3071,180.3071,180.31,181.8112,0,1,left,0.9705,,181.8138,181.8152,,0,,181.8166,181.8183,,1,,0,181.8184,181.8184,181.8211,183.3189,0,4,4,4,1,0.8,0.2,0.6,0.4,1,0,,,,,,,,,,,,,,,,,,,,,,,,,,,,,,,,,,,,
,,60fc06a551733182cbfee788,66fc995842b801f3398f5640,2024-10-02_02h54.07.671,mdp,2024.2.1,Win32,60.24096386,66fa4ebf79326e780c390304,,,,,,,,,,,,,,,,,,,,,183.32,183.32,183.3237,184.5528,0,0,left,0.7001,,184.5555,184.557,,0,,184.5588,184.5603,,1,,1,184.5604,184.5604,184.5619,186.0485,0,5,5,5,1,0.8,0.2,0.6,0.4,1,0,,,,,,,,,,,,,,,,,,,,,,,,,,,,,,,,,,,,
,,60fc06a551733182cbfee788,66fc995842b801f3398f5640,2024-10-02_02h54.07.671,mdp,2024.2.1,Win32,60.24096386,66fa4ebf79326e780c390304,,,,,,,,,,,,,,,,,,,,,186.0488,186.0488,186.0501,186.9669,1,1,right,0.4007,,186.9696,186.9711,,0,,186.9727,186.9743,,1,,0,186.9743,186.9743,186.9759,188.4709,0,6,6,6,1,0.8,0.2,0.6,0.4,1,0,,,,,,,,,,,,,,,,,,,,,,,,,,,,,,,,,,,,
,,60fc06a551733182cbfee788,66fc995842b801f3398f5640,2024-10-02_02h54.07.671,mdp,2024.2.1,Win32,60.24096386,66fa4ebf79326e780c390304,,,,,,,,,,,,,,,,,,,,,188.4719,188.472,188.4746,189.4431,0,0,left,0.441,,189.4466,189.4482,,0,,189.4494,189.4502,,0,,1,189.4503,189.4503,189.4513,190.9435,0,7,7,7,1,0.8,0.2,0.6,0.4,1,0,,,,,,,,,,,,,,,,,,,,,,,,,,,,,,,,,,,,
,,60fc06a551733182cbfee788,66fc995842b801f3398f5640,2024-10-02_02h54.07.671,mdp,2024.2.1,Win32,60.24096386,66fa4ebf79326e780c390304,,,,,,,,,,,,,,,,,,,,,190.9443,190.9444,190.9461,191.9345,1,0,right,0.4676,,191.9377,191.9393,,0,,191.9427,191.9449,,0,,1,191.9454,191.9455,191.9471,193.4542,0,8,8,8,1,0.2,0.8,0.8,0.2,1,0,,,,,,,,,,,,,,,,,,,,,,,,,,,,,,,,,,,,
,,60fc06a551733182cbfee788,66fc995842b801f3398f5640,2024-10-02_02h54.07.671,mdp,2024.2.1,Win32,60.24096386,66fa4ebf79326e780c390304,,,,,,,,,,,,,,,,,,,,,193.455,193.455,193.4628,194.3818,0,1,left,0.4116,,194.3851,194.3872,,1,,194.3901,194.3924,,1,,0,194.3929,194.393,194.3944,195.8898,0,9,9,9,1,0.2,0.8,0.8,0.2,1,0,,,,,,,,,,,,,,,,,,,,,,,,,,,,,,,,,,,,
,,60fc06a551733182cbfee788,66fc995842b801f3398f5640,2024-10-02_02h54.07.671,mdp,2024.2.1,Win32,60.24096386,66fa4ebf79326e780c390304,,,,,,,,,,,,,,,,,,,,,195.8922,195.8923,195.8945,196.6725,1,0,right,0.2508,,196.6764,196.679,,0,,196.6807,196.6821,,0,,1,196.6823,196.6823,196.6836,198.1756,0,10,10,10,1,0.2,0.8,0.8,0.2,1,0,,,,,,,,,,,,,,,,,,,,,,,,,,,,,,,,,,,,
,,60fc06a551733182cbfee788,66fc995842b801f3398f5640,2024-10-02_02h54.07.671,mdp,2024.2.1,Win32,60.24096386,66fa4ebf79326e780c390304,,,,,,,,,,,,,,,,,,,,,198.1768,198.1768,198.1799,199.0769,0,0,left,0.3667,,199.0799,199.0819,,0,,199.0837,199.0866,,0,,1,199.0866,199.0866,199.0889,200.5749,0,11,11,11,1,0.8,0.2,0.6,0.4,1,0,,,,,,,,,,,,,,,,,,,,,,,,,,,,,,,,,,,,
,,60fc06a551733182cbfee788,66fc995842b801f3398f5640,2024-10-02_02h54.07.671,mdp,2024.2.1,Win32,60.24096386,66fa4ebf79326e780c390304,,,,,,,,,,,,,,,,,,,,,200.5758,200.5759,200.5789,201.4917,1,1,right,0.3838,,201.4933,201.4942,,0,,201.4952,201.496,,1,,0,201.4961,201.4961,201.4967,202.9894,0,12,12,12,1,0.8,0.2,0.6,0.4,1,0,,,,,,,,,,,,,,,,,,,,,,,,,,,,,,,,,,,,
,,60fc06a551733182cbfee788,66fc995842b801f3398f5640,2024-10-02_02h54.07.671,mdp,2024.2.1,Win32,60.24096386,66fa4ebf79326e780c390304,,,,,,,,,,,,,,,,,,,,,202.9901,202.9906,202.9939,203.9491,0,1,left,0.4261,,203.9525,203.954,,0,,203.9557,203.957,,1,,0,203.957,203.9571,203.9583,205.452,0,13,13,13,1,0.6,0.4,0.8,0.2,1,0,,,,,,,,,,,,,,,,,,,,,,,,,,,,,,,,,,,,
,,60fc06a551733182cbfee788,66fc995842b801f3398f5640,2024-10-02_02h54.07.671,mdp,2024.2.1,Win32,60.24096386,66fa4ebf79326e780c390304,,,,,,,,,,,,,,,,,,,,,205.4526,205.4526,205.4541,206.3517,1,0,right,0.3758,,206.3552,206.3567,,0,,206.3583,206.3596,,0,,1,206.3596,206.3596,206.3622,207.8677,0,14,14,14,1,0.6,0.4,0.8,0.2,1,0,,,,,,,,,,,,,,,,,,,,,,,,,,,,,,,,,,,,
,,60fc06a551733182cbfee788,66fc995842b801f3398f5640,2024-10-02_02h54.07.671,mdp,2024.2.1,Win32,60.24096386,66fa4ebf79326e780c390304,,,,,,,,,,,,,,,,,,,,,207.8685,207.8685,207.8716,208.9108,0,0,left,0.5107,,208.9149,208.9164,,0,,208.918,208.9193,,0,,1,208.9193,208.9193,208.9205,210.4096,0,15,15,15,1,0.8,0.2,0.4,0.6,1,0,,,,,,,,,,,,,,,,,,,,,,,,,,,,,,,,,,,,
,,60fc06a551733182cbfee788,66fc995842b801f3398f5640,2024-10-02_02h54.07.671,mdp,2024.2.1,Win32,60.24096386,66fa4ebf79326e780c390304,,,,,,,,,,,,,,,,,,,,,210.412,210.412,210.4142,211.631,1,1,right,0.6931,,211.634,211.6353,,0,,211.6364,211.6372,,1,,0,211.6372,211.6372,211.6381,213.1291,0,16,16,16,1,0.8,0.2,0.4,0.6,1,0,,,,,,,,,,,,,,,,,,,,,,,,,,,,,,,,,,,,
,,60fc06a551733182cbfee788,66fc995842b801f3398f5640,2024-10-02_02h54.07.671,mdp,2024.2.1,Win32,60.24096386,66fa4ebf79326e780c390304,,,,,,,,,,,,,,,,,,,,,213.131,213.131,213.1331,213.9955,0,0,left,0.343,,213.9992,214.0006,,1,,214.0022,214.0045,,0,,1,214.0047,214.0047,214.0073,215.5104,0,17,17,17,1,0.4,0.6,0.8,0.2,1,0,,,,,,,,,,,,,,,,,,,,,,,,,,,,,,,,,,,,
,,60fc06a551733182cbfee788,66fc995842b801f3398f5640,2024-10-02_02h54.07.671,mdp,2024.2.1,Win32,60.24096386,66fa4ebf79326e780c390304,,,,,,,,,,,,,,,,,,,,,215.512,215.5121,215.5146,216.3933,1,1,right,0.3509,,216.3973,216.3987,,0,,216.4004,216.4029,,0,,0,216.4029,216.403,216.4053,217.9065,0,18,18,18,1,0.6,0.4,0.4,0.6,1,0,,,,,,,,,,,,,,,,,,,,,,,,,,,,,,,,,,,,
,,60fc06a551733182cbfee788,66fc995842b801f3398f5640,2024-10-02_02h54.07.671,mdp,2024.2.1,Win32,60.24096386,66fa4ebf79326e780c390304,,,,,,,,,,,,,,,,,,,,,217.9072,217.9072,217.9086,218.758,0,0,left,0.3169,,218.7613,218.7629,,0,,218.7646,218.7679,,0,,1,218.768,218.768,218.7701,220.2658,0,19,19,19,1,0.6,0.4,0.4,0.6,1,0,,,,,,,,,,,,,,,,,,,,,,,,,,,,,,,,,,,,
,,60fc06a551733182cbfee788,66fc995842b801f3398f5640,2024-10-02_02h54.07.671,mdp,2024.2.1,Win32,60.24096386,66fa4ebf79326e780c390304,,,,,,,,,,,,,,,,,,,,,220.268,220.268,220.2704,222.2053,0,0,left,1.4003,,222.2072,222.2084,,1,,222.2095,222.2105,,0,,1,222.2105,222.2105,222.2112,223.7019,0,20,20,20,1,0.6,0.4,0.4,0.6,1,0,,,,,,,,,,,,,,,,,,,,,,,,,,,,,,,,,,,,
,,60fc06a551733182cbfee788,66fc995842b801f3398f5640,2024-10-02_02h54.07.671,mdp,2024.2.1,Win32,60.24096386,66fa4ebf79326e780c390304,,,,,,,,,,,,,,,,,,,,,223.7035,223.7036,223.7061,224.5021,1,1,right,0.2795,,224.5051,224.5072,,0,,224.5089,224.5118,,0,,0,224.512,224.512,224.5141,226.0108,0,21,21,21,1,0.6,0.4,0.4,0.6,1,0,,,,,,,,,,,,,,,,,,,,,,,,,,,,,,,,,,,,
,,60fc06a551733182cbfee788,66fc995842b801f3398f5640,2024-10-02_02h54.07.671,mdp,2024.2.1,Win32,60.24096386,66fa4ebf79326e780c390304,,,,,,,,,,,,,,,,,,,,,226.0117,226.0117,226.0146,226.7942,0,0,left,0.2525,,226.7973,226.7987,,0,,226.8002,226.8015,,0,,1,226.8017,226.8017,226.8029,228.2927,0,22,22,22,1,0.6,0.4,0.4,0.6,1,0,,,,,,,,,,,,,,,,,,,,,,,,,,,,,,,,,,,,
,,60fc06a551733182cbfee788,66fc995842b801f3398f5640,2024-10-02_02h54.07.671,mdp,2024.2.1,Win32,60.24096386,66fa4ebf79326e780c390304,,,,,,,,,,,,,,,,,,,,,228.2934,228.2934,228.2959,229.0591,1,1,right,0.2342,,229.0616,229.0633,,1,,229.0648,229.0664,,1,,0,229.0665,229.0665,229.0678,230.5549,0,23,23,23,1,0.6,0.4,0.4,0.6,1,0,,,,,,,,,,,,,,,,,,,,,,,,,,,,,,,,,,,,
,,60fc06a551733182cbfee788,66fc995842b801f3398f5640,2024-10-02_02h54.07.671,mdp,2024.2.1,Win32,60.24096386,66fa4ebf79326e780c390304,,,,,,,,,,,,,,,,,,,,,230.5553,230.5553,230.5563,231.3401,0,0,left,0.2677,,231.343,231.3443,,0,,231.3459,231.3473,,1,,1,231.3473,231.3473,231.3487,232.8382,0,24,24,24,1,0.6,0.4,0.4,0.6,1,0,,,,,,,,,,,,,,,,,,,,,,,,,,,,,,,,,,,,
,,60fc06a551733182cbfee788,66fc995842b801f3398f5640,2024-10-02_02h54.07.671,mdp,2024.2.1,Win32,60.24096386,66fa4ebf79326e780c390304,,,,,,,,,,,,,,,,,,,,,232.8388,232.8388,232.8415,233.6027,1,1,right,0.2359,,233.6042,233.6052,,0,,233.6066,233.6076,,0,,0,233.6077,233.6077,233.6089,235.1026,0,25,25,25,1,0.6,0.4,0.4,0.6,1,0,,,,,,,,,,,,,,,,,,,,,,,,,,,,,,,,,,,,
,,60fc06a551733182cbfee788,66fc995842b801f3398f5640,2024-10-02_02h54.07.671,mdp,2024.2.1,Win32,60.24096386,66fa4ebf79326e780c390304,,,,,,,,,,,,,,,,,,,,,235.1033,235.1034,235.1064,235.903,0,1,left,0.268,,235.9058,235.9072,,0,,235.9086,235.9105,,1,,0,235.9105,235.9105,235.9118,237.4004,0,26,26,26,1,0.6,0.4,0.4,0.6,1,0,,,,,,,,,,,,,,,,,,,,,,,,,,,,,,,,,,,,
,,60fc06a551733182cbfee788,66fc995842b801f3398f5640,2024-10-02_02h54.07.671,mdp,2024.2.1,Win32,60.24096386,66fa4ebf79326e780c390304,,,,,,,,,,,,,,,,,,,,,237.4012,237.4012,237.4037,238.4666,0,0,left,0.5343,,238.469,238.4705,,1,,238.472,238.4733,,0,,1,238.4734,238.4734,238.4747,239.9643,0,27,27,27,1,0.6,0.4,0.4,0.6,1,0,,,,,,,,,,,,,,,,,,,,,,,,,,,,,,,,,,,,
,,60fc06a551733182cbfee788,66fc995842b801f3398f5640,2024-10-02_02h54.07.671,mdp,2024.2.1,Win32,60.24096386,66fa4ebf79326e780c390304,,,,,,,,,,,,,,,,,,,,,239.9652,239.9652,239.9678,241.1963,0,0,left,0.6971,,241.1983,241.2002,,1,,241.2015,241.2026,,1,,1,241.2027,241.2027,241.2038,242.6953,0,28,28,28,1,0.6,0.4,0.4,0.6,1,0,,,,,,,,,,,,,,,,,,,,,,,,,,,,,,,,,,,,
,,60fc06a551733182cbfee788,66fc995842b801f3398f5640,2024-10-02_02h54.07.671,mdp,2024.2.1,Win32,60.24096386,66fa4ebf79326e780c390304,,,,,,,,,,,,,,,,,,,,,242.696,242.696,242.6986,243.6278,1,1,right,0.4011,,243.6307,243.632,,1,,243.6339,243.6352,,1,,0,243.6352,243.6352,243.6366,245.1259,0,29,29,29,1,0.6,0.4,0.4,0.6,1,0,,,,,,,,,,,,,,,,,,,,,,,,,,,,,,,,,,,,
,,60fc06a551733182cbfee788,66fc995842b801f3398f5640,2024-10-02_02h54.07.671,mdp,2024.2.1,Win32,60.24096386,66fa4ebf79326e780c390304,,,,,,,,,,,,,,,,,,,,,245.1266,245.1267,245.1292,246.0592,0,0,left,0.4169,,246.0617,246.0632,,0,,246.0647,246.0659,,0,,1,246.066,246.066,246.0673,247.557,0,30,30,30,1,0.6,0.4,0.4,0.6,1,0,,,,,,,,,,,,,,,,,,,,,,,,,,,,,,,,,,,,
,,60fc06a551733182cbfee788,66fc995842b801f3398f5640,2024-10-02_02h54.07.671,mdp,2024.2.1,Win32,60.24096386,66fa4ebf79326e780c390304,,,,,,,,,,,,,,,,,,,,,247.5576,247.5576,247.5601,248.5734,0,0,left,0.4841,,248.5761,248.5774,,0,,248.5789,248.5804,,0,,1,248.5806,248.5806,248.5822,250.0714,0,31,31,31,1,0.6,0.4,0.4,0.6,1,0,,,,,,,,,,,,,,,,,,,,,,,,,,,,,,,,,,,,
,,60fc06a551733182cbfee788,66fc995842b801f3398f5640,2024-10-02_02h54.07.671,mdp,2024.2.1,Win32,60.24096386,66fa4ebf79326e780c390304,,,,,,,,,,,,,,,,,,,,,250.0721,250.0721,250.0745,250.8717,0,0,left,0.2757,,250.8743,250.876,,1,,250.8776,250.8788,,1,,1,250.879,250.879,250.8803,252.3689,0,32,32,32,1,0.6,0.4,0.4,0.6,1,0,,,,,,,,,,,,,,,,,,,,,,,,,,,,,,,,,,,,
,,60fc06a551733182cbfee788,66fc995842b801f3398f5640,2024-10-02_02h54.07.671,mdp,2024.2.1,Win32,60.24096386,66fa4ebf79326e780c390304,,,,,,,,,,,,,,,,,,,,,252.3697,252.3697,252.3723,253.334,0,0,left,0.437,,253.3359,253.3375,,0,,253.3386,253.3393,,1,,1,253.3393,253.3393,253.3401,254.833,0,33,33,33,1,0.6,0.4,0.4,0.6,1,0,,,,,,,,,,,,,,,,,,,,,,,,,,,,,,,,,,,,
,,60fc06a551733182cbfee788,66fc995842b801f3398f5640,2024-10-02_02h54.07.671,mdp,2024.2.1,Win32,60.24096386,66fa4ebf79326e780c390304,,,,,,,,,,,,,,,,,,,,,254.8338,254.8338,254.8367,255.8682,0,1,left,0.5112,,255.8712,255.8726,,0,,255.8741,255.8756,,0,,0,255.8757,255.8757,255.8777,257.3641,0,34,34,34,1,0.8,0.2,0.2,0.8,1,0,,,,,,,,,,,,,,,,,,,,,,,,,,,,,,,,,,,,
,,60fc06a551733182cbfee788,66fc995842b801f3398f5640,2024-10-02_02h54.07.671,mdp,2024.2.1,Win32,60.24096386,66fa4ebf79326e780c390304,,,,,,,,,,,,,,,,,,,,,257.3648,257.3649,257.3677,258.1808,1,0,right,0.2866,,258.1834,258.1849,,1,,258.1864,258.1876,,0,,1,258.1877,258.1877,258.189,259.6763,0,35,35,35,1,0.4,0.6,0.6,0.4,1,0,,,,,,,,,,,,,,,,,,,,,,,,,,,,,,,,,,,,
,,60fc06a551733182cbfee788,66fc995842b801f3398f5640,2024-10-02_02h54.07.671,mdp,2024.2.1,Win32,60.24096386,66fa4ebf79326e780c390304,,,,,,,,,,,,,,,,,,,,,259.6766,259.6766,259.6777,262.8759,0,1,left,2.6821,,262.8789,262.8804,,0,,262.8819,262.8833,,1,,0,262.8833,262.8834,262.8846,264.3798,0,36,36,36,1,0.4,0.6,0.6,0.4,1,0,,,,,,,,,,,,,,,,,,,,,,,,,,,,,,,,,,,,
,,60fc06a551733182cbfee788,66fc995842b801f3398f5640,2024-10-02_02h54.07.671,mdp,2024.2.1,Win32,60.24096386,66fa4ebf79326e780c390304,,,,,,,,,,,,,,,,,,,,,264.3808,264.3808,264.3828,267.594,0,0,left,2.6821,,267.616,267.6175,,1,,267.6189,267.62,,1,,1,267.62,267.62,267.6212,269.1191,0,37,37,37,1,0.4,0.6,0.6,0.4,1,0,,,,,,,,,,,,,,,,,,,,,,,,,,,,,,,,,,,,
,,60fc06a551733182cbfee788,66fc995842b801f3398f5640,2024-10-02_02h54.07.671,mdp,2024.2.1,Win32,60.24096386,66fa4ebf79326e780c390304,,,,,,,,,,,,,,,,,,,,,269.1211,269.1211,269.1231,269.8089,1,0,right,0.1675,,269.812,269.8134,,1,,269.8163,269.8182,,0,,1,269.8184,269.8185,269.8204,271.3152,0,38,38,38,1,0.4,0.6,0.6,0.4,1,0,,,,,,,,,,,,,,,,,,,,,,,,,,,,,,,,,,,,
,,60fc06a551733182cbfee788,66fc995842b801f3398f5640,2024-10-02_02h54.07.671,mdp,2024.2.1,Win32,60.24096386,66fa4ebf79326e780c390304,,,,,,,,,,,,,,,,,,,,,271.3157,271.3157,271.3167,272.0825,0,0,left,0.2531,,272.0844,272.086,,0,,272.0874,272.0882,,1,,1,272.0883,272.0883,272.0892,273.5818,0,39,39,39,1,0.4,0.6,0.6,0.4,1,0,,,,,,,,,,,,,,,,,,,,,,,,,,,,,,,,,,,,
,,60fc06a551733182cbfee788,66fc995842b801f3398f5640,2024-10-02_02h54.07.671,mdp,2024.2.1,Win32,60.24096386,66fa4ebf79326e780c390304,,,,,,,,,,,,,,,,,,,,,273.5824,273.5824,273.5868,274.5308,1,0,right,0.4226,,274.5336,274.535,,0,,274.5364,274.5377,,0,,1,274.5377,274.5377,274.539,276.0295,0,40,40,40,1,0.4,0.6,0.6,0.4,1,0,,,,,,,,,,,,,,,,,,,,,,,,,,,,,,,,,,,,
,,60fc06a551733182cbfee788,66fc995842b801f3398f5640,2024-10-02_02h54.07.671,mdp,2024.2.1,Win32,60.24096386,66fa4ebf79326e780c390304,,,,,,,,,,,,,,,,,,,,,276.0301,276.0301,276.0325,276.8777,0,1,left,0.3214,,276.8805,276.8826,,1,,276.8841,276.8855,,1,,0,276.8855,276.8855,276.887,278.3748,0,41,41,41,1,0.4,0.6,0.6,0.4,1,0,,,,,,,,,,,,,,,,,,,,,,,,,,,,,,,,,,,,
,,60fc06a551733182cbfee788,66fc995842b801f3398f5640,2024-10-02_02h54.07.671,mdp,2024.2.1,Win32,60.24096386,66fa4ebf79326e780c390304,,,,,,,,,,,,,,,,,,,,,278.3753,278.3753,278.3763,279.2266,1,1,right,0.3388,,279.2293,279.2306,,1,,279.232,279.2331,,0,,0,279.2331,279.2331,279.2342,280.7246,0,42,42,42,1,0.4,0.6,0.6,0.4,1,0,,,,,,,,,,,,,,,,,,,,,,,,,,,,,,,,,,,,
,,60fc06a551733182cbfee788,66fc995842b801f3398f5640,2024-10-02_02h54.07.671,mdp,2024.2.1,Win32,60.24096386,66fa4ebf79326e780c390304,,,,,,,,,,,,,,,,,,,,,280.7254,280.7254,280.7281,281.5718,0,1,left,0.3145,,281.5732,281.5741,,1,,281.5754,281.576,,1,,0,281.576,281.576,281.5766,283.0726,0,43,43,43,1,0.4,0.6,0.6,0.4,1,0,,,,,,,,,,,,,,,,,,,,,,,,,,,,,,,,,,,,
,,60fc06a551733182cbfee788,66fc995842b801f3398f5640,2024-10-02_02h54.07.671,mdp,2024.2.1,Win32,60.24096386,66fa4ebf79326e780c390304,,,,,,,,,,,,,,,,,,,,,283.0732,283.0732,283.076,283.8896,0,1,left,0.2912,,283.892,283.8939,,0,,283.8953,283.8967,,0,,0,283.8968,283.8968,283.8982,285.3868,0,44,44,44,1,0.4,0.6,0.6,0.4,1,0,,,,,,,,,,,,,,,,,,,,,,,,,,,,,,,,,,,,
,,60fc06a551733182cbfee788,66fc995842b801f3398f5640,2024-10-02_02h54.07.671,mdp,2024.2.1,Win32,60.24096386,66fa4ebf79326e780c390304,,,,,,,,,,,,,,,,,,,,,285.3874,285.3874,285.3902,286.2033,1,0,right,0.2863,,286.2061,286.2074,,0,,286.2088,286.21,,1,,1,286.2101,286.2101,286.2114,287.7009,0,45,45,45,1,0.4,0.6,0.6,0.4,1,0,,,,,,,,,,,,,,,,,,,,,,,,,,,,,,,,,,,,
,,60fc06a551733182cbfee788,66fc995842b801f3398f5640,2024-10-02_02h54.07.671,mdp,2024.2.1,Win32,60.24096386,66fa4ebf79326e780c390304,,,,,,,,,,,,,,,,,,,,,287.7015,287.7016,287.7046,289.802,0,1,left,1.578,,289.8054,289.8067,,1,,289.8081,289.8092,,1,,0,289.8093,289.8093,289.8104,291.2975,0,46,46,46,1,0.4,0.6,0.6,0.4,1,0,,,,,,,,,,,,,,,,,,,,,,,,,,,,,,,,,,,,
,,60fc06a551733182cbfee788,66fc995842b801f3398f5640,2024-10-02_02h54.07.671,mdp,2024.2.1,Win32,60.24096386,66fa4ebf79326e780c390304,,,,,,,,,,,,,,,,,,,,,291.2981,291.2982,291.3008,292.2633,1,1,right,0.4343,,292.2659,292.2675,,1,,292.2692,292.2704,,0,,0,292.2704,292.2705,292.2717,293.7619,0,47,47,47,1,0.4,0.6,0.6,0.4,1,0,,,,,,,,,,,,,,,,,,,,,,,,,,,,,,,,,,,,
,,60fc06a551733182cbfee788,66fc995842b801f3398f5640,2024-10-02_02h54.07.671,mdp,2024.2.1,Win32,60.24096386,66fa4ebf79326e780c390304,,,,,,,,,,,,,,,,,,,,,293.7624,293.7625,293.7651,294.5948,0,1,left,0.3007,,294.5972,294.599,,1,,294.6006,294.6023,,1,,0,294.6024,294.6024,294.6039,296.0986,0,48,48,48,1,0.4,0.6,0.6,0.4,1,0,,,,,,,,,,,,,,,,,,,,,,,,,,,,,,,,,,,,
,,60fc06a551733182cbfee788,66fc995842b801f3398f5640,2024-10-02_02h54.07.671,mdp,2024.2.1,Win32,60.24096386,66fa4ebf79326e780c390304,,,,,,,,,,,,,,,,,,,,,296.0997,296.0997,296.1017,297.1652,1,1,right,0.5337,,297.1673,297.1688,,0,,297.1704,297.1723,,0,,0,297.1724,297.1724,297.1761,298.6625,0,49,49,49,1,0.4,0.6,0.6,0.4,1,0,,,,,,,,,,,,,,,,,,,,,,,,,,,,,,,,,,,,
,,60fc06a551733182cbfee788,66fc995842b801f3398f5640,2024-10-02_02h54.07.671,mdp,2024.2.1,Win32,60.24096386,66fa4ebf79326e780c390304,,,,,,,,,,,,,,,,,,,,,,,,,,,,,,,,,,,,,,,,,,,,,,,,,,,,,,,,298.664,357.1836,0,0,0,6,1,imgs/goat.png,imgs/pig.png,imgs/squirrel.png,imgs/dog.png,imgs/cat.png,,,,,,,,,,,,,,,,,,,,,,,,
,,60fc06a551733182cbfee788,66fc995842b801f3398f5640,2024-10-02_02h54.07.671,mdp,2024.2.1,Win32,60.24096386,66fa4ebf79326e780c390304,,,,,,,,,,,,,,2,seqs/st2seq35.csv,357.209,364.9287,space,7.2022,,364.9517,364.9517,364.9529,366.3401,0,1,left,0.8526,,366.3435,367.4743,1,0,right,367.4773,367.4788,,0,,1,367.4789,367.4789,367.4806,368.9774,0,0,0,0,1,0.8,0.2,0.2,0.8,,,,,,,,,,,,,,,0.5923,,0.2,0.8,0.6,0.4,0.6,0.4,0.8,0.2,1,0,,,,,,,,,,,,
,,60fc06a551733182cbfee788,66fc995842b801f3398f5640,2024-10-02_02h54.07.671,mdp,2024.2.1,Win32,60.24096386,66fa4ebf79326e780c390304,,,,,,,,,,,,,,,,,,,,,368.9793,368.9793,368.9814,369.9425,0,0,left,0.4334,,369.9451,370.8266,1,0,right,370.8296,370.831,,1,,1,370.8311,370.8311,370.8339,372.3399,0,1,1,1,1,0.8,0.2,0.2,0.8,,,,,,,,,,,,,,,0.3435,,0.2,0.8,0.6,0.4,0.6,0.4,0.8,0.2,1,0,,,,,,,,,,,,
,,60fc06a551733182cbfee788,66fc995842b801f3398f5640,2024-10-02_02h54.07.671,mdp,2024.2.1,Win32,60.24096386,66fa4ebf79326e780c390304,,,,,,,,,,,,,,,,,,,,,372.3416,372.3417,372.3442,373.2401,0,0,left,0.3702,,373.2437,374.0374,1,1,right,374.0392,374.04,,1,,0,374.0401,374.0401,374.0409,375.5353,0,2,2,2,1,0.8,0.2,0.2,0.8,,,,,,,,,,,,,,,0.2664,,0.4,0.6,0.4,0.6,0.6,0.4,0.8,0.2,1,0,,,,,,,,,,,,
,,60fc06a551733182cbfee788,66fc995842b801f3398f5640,2024-10-02_02h54.07.671,mdp,2024.2.1,Win32,60.24096386,66fa4ebf79326e780c390304,,,,,,,,,,,,,,,,,,,,,375.5362,375.5362,375.5379,376.4211,0,0,left,0.352,,376.4248,377.4692,1,0,right,377.4726,377.4743,,1,,1,377.4744,377.4744,377.4776,378.9836,0,3,3,3,1,0.8,0.2,0.2,0.8,,,,,,,,,,,,,,,0.5187,,0.4,0.6,0.4,0.6,0.6,0.4,0.8,0.2,1,0,,,,,,,,,,,,
,,60fc06a551733182cbfee788,66fc995842b801f3398f5640,2024-10-02_02h54.07.671,mdp,2024.2.1,Win32,60.24096386,66fa4ebf79326e780c390304,,,,,,,,,,,,,,,,,,,,,378.9849,378.9853,378.988,379.8998,0,0,left,0.3837,,379.904,380.8462,0,1,left,380.8498,380.8514,,0,,0,380.8515,380.8515,380.853,382.3392,0,4,4,4,1,0.8,0.2,0.2,0.8,,,,,,,,,,,,,,,0.4146,,0.4,0.6,0.4,0.6,0.6,0.4,0.8,0.2,1,0,,,,,,,,,,,,
,,60fc06a551733182cbfee788,66fc995842b801f3398f5640,2024-10-02_02h54.07.671,mdp,2024.2.1,Win32,60.24096386,66fa4ebf79326e780c390304,,,,,,,,,,,,,,,,,,,,,382.3403,382.3403,382.3417,384.08,0,0,left,1.2259,,384.0823,384.8802,1,1,right,384.8832,384.885,,1,,0,384.8851,384.8851,384.8877,386.3739,0,5,5,5,1,0.8,0.2,0.2,0.8,,,,,,,,,,,,,,,0.2716,,0.4,0.6,0.4,0.6,0.6,0.4,0.8,0.2,1,0,,,,,,,,,,,,
,,60fc06a551733182cbfee788,66fc995842b801f3398f5640,2024-10-02_02h54.07.671,mdp,2024.2.1,Win32,60.24096386,66fa4ebf79326e780c390304,,,,,,,,,,,,,,,,,,,,,386.3762,386.3762,386.3784,387.2432,0,1,left,0.3364,,387.2462,388.3517,1,0,right,388.3547,388.3562,,0,,1,388.3564,388.3564,388.3584,389.8497,0,6,6,6,1,0.8,0.2,0.2,0.8,,,,,,,,,,,,,,,0.5622,,0.4,0.6,0.4,0.6,0.6,0.4,0.8,0.2,1,0,,,,,,,,,,,,
,,60fc06a551733182cbfee788,66fc995842b801f3398f5640,2024-10-02_02h54.07.671,mdp,2024.2.1,Win32,60.24096386,66fa4ebf79326e780c390304,,,,,,,,,,,,,,,,,,,,,389.8513,389.8513,389.8542,390.783,0,0,left,0.4006,,390.7863,391.9816,0,1,left,391.9859,391.9873,,0,,0,391.9874,391.9874,391.989,393.4796,0,7,7,7,1,0.8,0.2,0.2,0.8,,,,,,,,,,,,,,,0.662,,0.4,0.6,0.4,0.6,0.6,0.4,0.8,0.2,1,0,,,,,,,,,,,,
,,60fc06a551733182cbfee788,66fc995842b801f3398f5640,2024-10-02_02h54.07.671,mdp,2024.2.1,Win32,60.24096386,66fa4ebf79326e780c390304,,,,,,,,,,,,,,,,,,,,,393.4816,393.4816,393.484,394.3122,0,1,left,0.305,,394.3154,395.7429,1,0,right,395.7445,395.7452,,1,,1,395.7453,395.7453,395.7463,397.2429,0,8,8,8,1,0.8,0.2,0.2,0.8,,,,,,,,,,,,,,,0.9019,,0.4,0.6,0.4,0.6,0.8,0.2,0.2,0.8,1,0,,,,,,,,,,,,
,,60fc06a551733182cbfee788,66fc995842b801f3398f5640,2024-10-02_02h54.07.671,mdp,2024.2.1,Win32,60.24096386,66fa4ebf79326e780c390304,,,,,,,,,,,,,,,,,,,,,397.2448,397.2448,397.2469,398.0905,0,0,left,0.3185,,398.0921,399.8404,0,1,left,399.8444,399.8465,,0,,0,399.8466,399.8466,399.8482,401.3381,0,9,9,9,1,0.8,0.2,0.2,0.8,,,,,,,,,,,,,,,1.2259,,0.4,0.6,0.4,0.6,0.8,0.2,0.2,0.8,1,0,,,,,,,,,,,,
,,60fc06a551733182cbfee788,66fc995842b801f3398f5640,2024-10-02_02h54.07.671,mdp,2024.2.1,Win32,60.24096386,66fa4ebf79326e780c390304,,,,,,,,,,,,,,,,,,,,,401.3399,401.3399,401.3419,402.1383,0,0,left,0.2695,,402.1417,403.4556,1,0,right,403.4589,403.4607,,1,,1,403.4609,403.4609,403.462,404.9517,0,10,10,10,1,0.8,0.2,0.2,0.8,,,,,,,,,,,,,,,0.7843,,0.4,0.6,0.4,0.6,0.8,0.2,0.2,0.8,1,0,,,,,,,,,,,,
,,60fc06a551733182cbfee788,66fc995842b801f3398f5640,2024-10-02_02h54.07.671,mdp,2024.2.1,Win32,60.24096386,66fa4ebf79326e780c390304,,,,,,,,,,,,,,,,,,,,,404.9536,404.9536,404.9564,405.801,0,0,left,0.3213,,405.8048,406.9002,1,1,right,406.9036,406.9052,,1,,0,406.9055,406.9059,406.9074,408.398,0,11,11,11,1,0.8,0.2,0.2,0.8,,,,,,,,,,,,,,,0.5671,,0.4,0.6,0.4,0.6,0.8,0.2,0.2,0.8,1,0,,,,,,,,,,,,
,,60fc06a551733182cbfee788,66fc995842b801f3398f5640,2024-10-02_02h54.07.671,mdp,2024.2.1,Win32,60.24096386,66fa4ebf79326e780c390304,,,,,,,,,,,,,,,,,,,,,408.3999,408.4,408.4032,410.2867,0,0,left,1.3622,,410.2902,411.5858,0,0,left,411.5888,411.5906,,0,,1,411.5908,411.5909,411.5934,413.0841,0,12,12,12,1,0.8,0.2,0.2,0.8,,,,,,,,,,,,,,,0.7681,,0.4,0.6,0.4,0.6,0.8,0.2,0.2,0.8,1,0,,,,,,,,,,,,
,,60fc06a551733182cbfee788,66fc995842b801f3398f5640,2024-10-02_02h54.07.671,mdp,2024.2.1,Win32,60.24096386,66fa4ebf79326e780c390304,,,,,,,,,,,,,,,,,,,,,413.0852,413.0852,413.0882,414.383,0,0,left,0.7664,,414.3862,415.3655,1,1,right,415.3688,415.3704,,1,,0,415.3704,415.3704,415.3721,416.8628,0,13,13,13,1,0.8,0.2,0.2,0.8,,,,,,,,,,,,,,,0.4519,,0.4,0.6,0.4,0.6,0.8,0.2,0.2,0.8,1,0,,,,,,,,,,,,
,,60fc06a551733182cbfee788,66fc995842b801f3398f5640,2024-10-02_02h54.07.671,mdp,2024.2.1,Win32,60.24096386,66fa4ebf79326e780c390304,,,,,,,,,,,,,,,,,,,,,416.8638,416.8639,416.8673,417.7734,0,0,left,0.3868,,417.7772,418.7619,1,0,right,418.7653,418.7667,,1,,1,418.7668,418.7668,418.7683,420.2764,0,14,14,14,1,0.8,0.2,0.2,0.8,,,,,,,,,,,,,,,0.4598,,0.4,0.6,0.4,0.6,0.8,0.2,0.2,0.8,1,0,,,,,,,,,,,,
,,60fc06a551733182cbfee788,66fc995842b801f3398f5640,2024-10-02_02h54.07.671,mdp,2024.2.1,Win32,60.24096386,66fa4ebf79326e780c390304,,,,,,,,,,,,,,,,,,,,,420.2781,420.2782,420.2807,421.211,0,0,left,0.4118,,421.2137,422.3086,1,1,right,422.3117,422.3133,,1,,0,422.3135,422.3135,422.3151,423.8226,0,15,15,15,1,0.8,0.2,0.2,0.8,,,,,,,,,,,,,,,0.5769,,0.4,0.6,0.4,0.6,0.8,0.2,0.2,0.8,1,0,,,,,,,,,,,,
,,60fc06a551733182cbfee788,66fc995842b801f3398f5640,2024-10-02_02h54.07.671,mdp,2024.2.1,Win32,60.24096386,66fa4ebf79326e780c390304,,,,,,,,,,,,,,,,,,,,,423.8243,423.8243,423.8269,424.7388,0,0,left,0.3834,,424.7414,426.0214,1,1,right,426.0244,426.0263,,0,,0,426.0263,426.0263,426.028,427.518,0,16,16,16,1,0.8,0.2,0.2,0.8,,,,,,,,,,,,,,,0.7509,,0.4,0.6,0.4,0.6,0.8,0.2,0.2,0.8,1,0,,,,,,,,,,,,
,,60fc06a551733182cbfee788,66fc995842b801f3398f5640,2024-10-02_02h54.07.671,mdp,2024.2.1,Win32,60.24096386,66fa4ebf79326e780c390304,,,,,,,,,,,,,,,,,,,,,427.5189,427.519,427.522,430.484,0,0,left,2.4427,,430.5088,431.568,1,1,right,431.5705,431.5718,,1,,0,431.5719,431.572,431.575,433.0627,0,17,17,17,1,0.8,0.2,0.2,0.8,,,,,,,,,,,,,,,0.5526,,0.4,0.6,0.4,0.6,0.8,0.2,0.2,0.8,1,0,,,,,,,,,,,,
,,60fc06a551733182cbfee788,66fc995842b801f3398f5640,2024-10-02_02h54.07.671,mdp,2024.2.1,Win32,60.24096386,66fa4ebf79326e780c390304,,,,,,,,,,,,,,,,,,,,,433.0645,433.0645,433.067,434.0613,0,0,left,0.4747,,434.0646,434.9484,1,0,right,434.9508,434.9521,,1,,1,434.9521,434.9522,434.955,436.4433,0,18,18,18,1,0.8,0.2,0.2,0.8,,,,,,,,,,,,,,,0.3515,,0.4,0.6,0.4,0.6,0.4,0.6,0.8,0.2,1,0,,,,,,,,,,,,
,,60fc06a551733182cbfee788,66fc995842b801f3398f5640,2024-10-02_02h54.07.671,mdp,2024.2.1,Win32,60.24096386,66fa4ebf79326e780c390304,,,,,,,,,,,,,,,,,,,,,436.444,436.444,436.4467,437.6113,0,0,left,0.6366,,437.6146,438.5249,1,1,right,438.5287,438.53,,0,,0,438.5301,438.5301,438.5315,440.0341,0,19,19,19,1,0.8,0.2,0.2,0.8,,,,,,,,,,,,,,,0.3849,,0.4,0.6,0.4,0.6,0.6,0.4,0.4,0.6,1,0,,,,,,,,,,,,
,,60fc06a551733182cbfee788,66fc995842b801f3398f5640,2024-10-02_02h54.07.671,mdp,2024.2.1,Win32,60.24096386,66fa4ebf79326e780c390304,,,,,,,,,,,,,,,,,,,,,440.035,440.035,440.0384,441.4328,0,0,left,0.8573,,441.436,442.3732,1,1,right,442.3757,442.3772,,1,,0,442.3772,442.3772,442.3789,443.8702,0,20,20,20,1,0.8,0.2,0.2,0.8,,,,,,,,,,,,,,,0.4014,,0.4,0.6,0.4,0.6,0.6,0.4,0.4,0.6,1,0,,,,,,,,,,,,
,,60fc06a551733182cbfee788,66fc995842b801f3398f5640,2024-10-02_02h54.07.671,mdp,2024.2.1,Win32,60.24096386,66fa4ebf79326e780c390304,,,,,,,,,,,,,,,,,,,,,443.8719,443.8719,443.8744,444.9138,0,0,left,0.504,,444.9173,445.9634,1,0,right,445.9662,445.9677,,0,,1,445.9677,445.9678,445.9694,447.4666,0,21,21,21,1,0.8,0.2,0.2,0.8,,,,,,,,,,,,,,,0.5369,,0.4,0.6,0.4,0.6,0.6,0.4,0.4,0.6,1,0,,,,,,,,,,,,
,,60fc06a551733182cbfee788,66fc995842b801f3398f5640,2024-10-02_02h54.07.671,mdp,2024.2.1,Win32,60.24096386,66fa4ebf79326e780c390304,,,,,,,,,,,,,,,,,,,,,447.4682,447.4682,447.4705,450.9477,0,0,left,2.9582,,450.9748,451.8461,1,1,right,451.8495,451.8513,,0,,0,451.8514,451.8514,451.8528,453.343,0,22,22,22,1,0.8,0.2,0.2,0.8,,,,,,,,,,,,,,,0.3668,,0.4,0.6,0.4,0.6,0.6,0.4,0.4,0.6,1,0,,,,,,,,,,,,
,,60fc06a551733182cbfee788,66fc995842b801f3398f5640,2024-10-02_02h54.07.671,mdp,2024.2.1,Win32,60.24096386,66fa4ebf79326e780c390304,,,,,,,,,,,,,,,,,,,,,453.344,453.344,453.3454,454.3126,0,1,left,0.4375,,454.3147,455.2363,1,0,right,455.2404,455.2417,,1,,1,455.2419,455.2419,455.2434,456.7407,0,23,23,23,1,0.8,0.2,0.2,0.8,,,,,,,,,,,,,,,0.3921,,0.4,0.6,0.4,0.6,0.6,0.4,0.4,0.6,1,0,,,,,,,,,,,,
,,60fc06a551733182cbfee788,66fc995842b801f3398f5640,2024-10-02_02h54.07.671,mdp,2024.2.1,Win32,60.24096386,66fa4ebf79326e780c390304,,,,,,,,,,,,,,,,,,,,,456.7424,456.7424,456.745,457.7566,0,0,left,0.4957,,457.7592,458.7396,1,0,right,458.7426,458.7444,,0,,1,458.7447,458.7447,458.7464,460.2375,0,24,24,24,1,0.8,0.2,0.2,0.8,,,,,,,,,,,,,,,0.4503,,0.2,0.8,0.8,0.2,0.6,0.4,0.4,0.6,1,0,,,,,,,,,,,,
,,60fc06a551733182cbfee788,66fc995842b801f3398f5640,2024-10-02_02h54.07.671,mdp,2024.2.1,Win32,60.24096386,66fa4ebf79326e780c390304,,,,,,,,,,,,,,,,,,,,,460.2391,460.2391,460.2415,461.2543,0,1,left,0.4936,,461.2578,462.1861,1,0,right,462.1893,462.191,,0,,1,462.1911,462.1911,462.1925,463.6844,0,25,25,25,1,0.8,0.2,0.2,0.8,,,,,,,,,,,,,,,0.3999,,0.2,0.8,0.8,0.2,0.6,0.4,0.4,0.6,1,0,,,,,,,,,,,,
,,60fc06a551733182cbfee788,66fc995842b801f3398f5640,2024-10-02_02h54.07.671,mdp,2024.2.1,Win32,60.24096386,66fa4ebf79326e780c390304,,,,,,,,,,,,,,,,,,,,,463.686,463.686,463.6885,464.6439,0,1,left,0.4191,,464.6476,465.6999,1,1,right,465.7023,465.7037,,1,,0,465.7039,465.7039,465.7058,467.1944,0,26,26,26,1,0.8,0.2,0.2,0.8,,,,,,,,,,,,,,,0.546,,0.2,0.8,0.8,0.2,0.6,0.4,0.4,0.6,1,0,,,,,,,,,,,,
,,60fc06a551733182cbfee788,66fc995842b801f3398f5640,2024-10-02_02h54.07.671,mdp,2024.2.1,Win32,60.24096386,66fa4ebf79326e780c390304,,,,,,,,,,,,,,,,,,,,,467.196,467.196,467.1984,468.0472,0,0,left,0.3366,,468.0508,468.8809,1,0,right,468.8842,468.8862,,0,,1,468.8871,468.8871,468.8899,470.394,0,27,27,27,1,0.8,0.2,0.2,0.8,,,,,,,,,,,,,,,0.3017,,0.2,0.8,0.8,0.2,0.8,0.2,0.2,0.8,1,0,,,,,,,,,,,,
,,60fc06a551733182cbfee788,66fc995842b801f3398f5640,2024-10-02_02h54.07.671,mdp,2024.2.1,Win32,60.24096386,66fa4ebf79326e780c390304,,,,,,,,,,,,,,,,,,,,,470.3956,470.3957,470.3981,471.4723,0,1,left,0.5515,,471.4747,472.4216,1,1,right,472.4233,472.4242,,1,,0,472.4242,472.4242,472.425,473.9179,0,28,28,28,1,0.8,0.2,0.2,0.8,,,,,,,,,,,,,,,0.4295,,0.2,0.8,0.8,0.2,0.8,0.2,0.2,0.8,1,0,,,,,,,,,,,,
,,60fc06a551733182cbfee788,66fc995842b801f3398f5640,2024-10-02_02h54.07.671,mdp,2024.2.1,Win32,60.24096386,66fa4ebf79326e780c390304,,,,,,,,,,,,,,,,,,,,,473.9203,473.9203,473.9225,475.1411,0,0,left,0.7013,,475.1443,475.906,1,1,right,475.9093,475.911,,0,,0,475.911,475.911,475.9125,477.4036,0,29,29,29,1,0.8,0.2,0.2,0.8,,,,,,,,,,,,,,,0.2333,,0.2,0.8,0.8,0.2,0.8,0.2,0.2,0.8,1,0,,,,,,,,,,,,
,,60fc06a551733182cbfee788,66fc995842b801f3398f5640,2024-10-02_02h54.07.671,mdp,2024.2.1,Win32,60.24096386,66fa4ebf79326e780c390304,,,,,,,,,,,,,,,,,,,,,477.4057,477.4057,477.4082,478.2538,0,1,left,0.3185,,478.2572,479.088,1,1,right,479.0903,479.0917,,1,,0,479.0919,479.0919,479.0949,480.5838,0,30,30,30,1,0.8,0.2,0.2,0.8,,,,,,,,,,,,,,,0.3002,,0.8,0.2,0.4,0.6,0.8,0.2,0.2,0.8,1,0,,,,,,,,,,,,
,,60fc06a551733182cbfee788,66fc995842b801f3398f5640,2024-10-02_02h54.07.671,mdp,2024.2.1,Win32,60.24096386,66fa4ebf79326e780c390304,,,,,,,,,,,,,,,,,,,,,480.5855,480.5855,480.5879,481.4677,0,1,left,0.352,,481.4711,482.4335,1,0,right,482.437,482.4384,,1,,1,482.4385,482.4385,482.4411,483.9307,0,31,31,31,1,0.8,0.2,0.2,0.8,,,,,,,,,,,,,,,0.4451,,0.8,0.2,0.4,0.6,0.8,0.2,0.2,0.8,1,0,,,,,,,,,,,,
,,60fc06a551733182cbfee788,66fc995842b801f3398f5640,2024-10-02_02h54.07.671,mdp,2024.2.1,Win32,60.24096386,66fa4ebf79326e780c390304,,,,,,,,,,,,,,,,,,,,,483.9326,483.9326,483.9351,484.8141,0,0,left,0.3509,,484.8181,485.9669,1,0,right,485.969,485.9709,,1,,1,485.971,485.971,485.9732,487.4774,0,32,32,32,1,0.8,0.2,0.2,0.8,,,,,,,,,,,,,,,0.6207,,0.8,0.2,0.4,0.6,0.8,0.2,0.2,0.8,1,0,,,,,,,,,,,,
,,60fc06a551733182cbfee788,66fc995842b801f3398f5640,2024-10-02_02h54.07.671,mdp,2024.2.1,Win32,60.24096386,66fa4ebf79326e780c390304,,,,,,,,,,,,,,,,,,,,,487.479,487.479,487.4816,488.4938,0,0,left,0.4866,,488.497,489.3428,1,0,right,489.3466,489.348,,1,,1,489.3481,489.3481,489.3495,490.8406,0,33,33,33,1,0.8,0.2,0.2,0.8,,,,,,,,,,,,,,,0.3267,,0.8,0.2,0.4,0.6,0.8,0.2,0.2,0.8,1,0,,,,,,,,,,,,
,,60fc06a551733182cbfee788,66fc995842b801f3398f5640,2024-10-02_02h54.07.671,mdp,2024.2.1,Win32,60.24096386,66fa4ebf79326e780c390304,,,,,,,,,,,,,,,,,,,,,490.8423,490.8423,490.8448,491.6919,0,0,left,0.319,,491.6947,492.4903,1,1,right,492.4938,492.4952,,0,,0,492.4953,492.4954,492.4994,494.0043,0,34,34,34,1,0.8,0.2,0.2,0.8,,,,,,,,,,,,,,,0.2795,,0.8,0.2,0.4,0.6,0.8,0.2,0.2,0.8,1,0,,,,,,,,,,,,
,,60fc06a551733182cbfee788,66fc995842b801f3398f5640,2024-10-02_02h54.07.671,mdp,2024.2.1,Win32,60.24096386,66fa4ebf79326e780c390304,,,,,,,,,,,,,,,,,,,,,494.006,494.006,494.0083,495.2539,0,0,left,0.7168,,495.2575,496.1694,1,1,right,496.1726,496.1743,,0,,0,496.1743,496.1744,496.1761,497.6671,0,35,35,35,1,0.8,0.2,0.2,0.8,,,,,,,,,,,,,,,0.3962,,0.8,0.2,0.4,0.6,0.2,0.8,0.4,0.6,1,0,,,,,,,,,,,,
,,60fc06a551733182cbfee788,66fc995842b801f3398f5640,2024-10-02_02h54.07.671,mdp,2024.2.1,Win32,60.24096386,66fa4ebf79326e780c390304,,,,,,,,,,,,,,,,,,,,,497.6689,497.6689,497.6713,498.551,0,0,left,0.3533,,498.555,499.3987,1,0,right,499.4023,499.4036,,1,,1,499.4037,499.4037,499.4061,500.8978,0,36,36,36,1,0.8,0.2,0.2,0.8,,,,,,,,,,,,,,,0.3167,,0.8,0.2,0.4,0.6,0.2,0.8,0.4,0.6,1,0,,,,,,,,,,,,
,,60fc06a551733182cbfee788,66fc995842b801f3398f5640,2024-10-02_02h54.07.671,mdp,2024.2.1,Win32,60.24096386,66fa4ebf79326e780c390304,,,,,,,,,,,,,,,,,,,,,500.8994,500.8994,500.9019,501.8797,0,0,left,0.4609,,501.8831,502.7466,1,0,right,502.75,502.7516,,1,,1,502.7517,502.7517,502.7532,504.244,0,37,37,37,1,0.8,0.2,0.2,0.8,,,,,,,,,,,,,,,0.3342,,0.8,0.2,0.4,0.6,0.2,0.8,0.4,0.6,1,0,,,,,,,,,,,,
,,60fc06a551733182cbfee788,66fc995842b801f3398f5640,2024-10-02_02h54.07.671,mdp,2024.2.1,Win32,60.24096386,66fa4ebf79326e780c390304,,,,,,,,,,,,,,,,,,,,,504.2462,504.2463,504.2484,505.1887,0,0,left,0.408,,505.1914,506.0598,1,1,right,506.0639,506.0653,,1,,0,506.0654,506.0655,506.068,507.5748,0,38,38,38,1,0.8,0.2,0.2,0.8,,,,,,,,,,,,,,,0.3605,,0.8,0.2,0.4,0.6,0.2,0.8,0.4,0.6,1,0,,,,,,,,,,,,
,,60fc06a551733182cbfee788,66fc995842b801f3398f5640,2024-10-02_02h54.07.671,mdp,2024.2.1,Win32,60.24096386,66fa4ebf79326e780c390304,,,,,,,,,,,,,,,,,,,,,507.5764,507.5764,507.579,508.5827,0,0,left,0.4718,,508.5843,509.4231,1,1,right,509.4264,509.4281,,0,,0,509.4281,509.4282,509.4298,510.9194,0,39,39,39,1,0.8,0.2,0.2,0.8,,,,,,,,,,,,,,,0.32,,0.8,0.2,0.4,0.6,0.2,0.8,0.4,0.6,1,0,,,,,,,,,,,,
,,60fc06a551733182cbfee788,66fc995842b801f3398f5640,2024-10-02_02h54.07.671,mdp,2024.2.1,Win32,60.24096386,66fa4ebf79326e780c390304,,,,,,,,,,,,,,,,,,,,,510.9203,510.9203,510.9215,511.7525,0,0,left,0.3003,,511.7545,512.5518,1,0,right,512.5535,512.5542,,0,,1,512.5542,512.5542,512.555,514.0499,0,40,40,40,1,0.8,0.2,0.2,0.8,,,,,,,,,,,,,,,0.267,,0.8,0.2,0.4,0.6,0.2,0.8,0.4,0.6,1,0,,,,,,,,,,,,
,,60fc06a551733182cbfee788,66fc995842b801f3398f5640,2024-10-02_02h54.07.671,mdp,2024.2.1,Win32,60.24096386,66fa4ebf79326e780c390304,,,,,,,,,,,,,,,,,,,,,514.0506,514.0506,514.052,515.0111,0,0,left,0.4345,,515.0145,515.7842,1,0,right,515.7875,515.7889,,1,,1,515.7889,515.7889,515.7902,517.2812,0,41,41,41,1,0.8,0.2,0.2,0.8,,,,,,,,,,,,,,,0.247,,0.8,0.2,0.4,0.6,0.2,0.8,0.4,0.6,1,0,,,,,,,,,,,,
,,60fc06a551733182cbfee788,66fc995842b801f3398f5640,2024-10-02_02h54.07.671,mdp,2024.2.1,Win32,60.24096386,66fa4ebf79326e780c390304,,,,,,,,,,,,,,,,,,,,,517.2828,517.2828,517.2853,518.1284,0,1,left,0.3245,,518.1301,518.9448,1,1,right,518.9475,518.9489,,1,,0,518.949,518.949,518.9503,520.4427,0,42,42,42,1,0.8,0.2,0.2,0.8,,,,,,,,,,,,,,,0.2905,,0.8,0.2,0.4,0.6,0.2,0.8,0.4,0.6,1,0,,,,,,,,,,,,
,,60fc06a551733182cbfee788,66fc995842b801f3398f5640,2024-10-02_02h54.07.671,mdp,2024.2.1,Win32,60.24096386,66fa4ebf79326e780c390304,,,,,,,,,,,,,,,,,,,,,520.4445,520.4445,520.4468,521.2404,0,0,left,0.2641,,521.2433,522.0433,1,1,right,522.0467,522.0485,,0,,0,522.0485,522.0485,522.0502,523.5404,0,43,43,43,1,0.8,0.2,0.2,0.8,,,,,,,,,,,,,,,0.2757,,0.8,0.2,0.4,0.6,0.2,0.8,0.4,0.6,1,0,,,,,,,,,,,,
,,60fc06a551733182cbfee788,66fc995842b801f3398f5640,2024-10-02_02h54.07.671,mdp,2024.2.1,Win32,60.24096386,66fa4ebf79326e780c390304,,,,,,,,,,,,,,,,,,,,,523.542,523.5421,523.5444,524.4758,0,0,left,0.4005,,524.4788,525.3385,1,1,right,525.342,525.3434,,1,,0,525.3435,525.3435,525.345,526.8373,0,44,44,44,1,0.8,0.2,0.2,0.8,,,,,,,,,,,,,,,0.3322,,0.8,0.2,0.4,0.6,0.2,0.8,0.4,0.6,1,0,,,,,,,,,,,,
,,60fc06a551733182cbfee788,66fc995842b801f3398f5640,2024-10-02_02h54.07.671,mdp,2024.2.1,Win32,60.24096386,66fa4ebf79326e780c390304,,,,,,,,,,,,,,,,,,,,,526.8382,526.8383,526.8395,527.6888,0,0,left,0.3262,,527.6918,528.5147,1,1,right,528.5182,528.5196,,0,,0,528.5197,528.5197,528.5212,530.0191,0,45,45,45,1,0.8,0.2,0.2,0.8,,,,,,,,,,,,,,,0.2901,,0.8,0.2,0.4,0.6,0.2,0.8,0.4,0.6,1,0,,,,,,,,,,,,
,,60fc06a551733182cbfee788,66fc995842b801f3398f5640,2024-10-02_02h54.07.671,mdp,2024.2.1,Win32,60.24096386,66fa4ebf79326e780c390304,,,,,,,,,,,,,,,,,,,,,530.0218,530.0218,530.0239,530.7897,0,0,left,0.2382,,530.7916,531.585,0,0,left,531.5886,531.5901,,0,,1,531.5901,531.5901,531.5997,533.0829,0,46,46,46,1,0.8,0.2,0.2,0.8,,,,,,,,,,,,,,,0.2767,,0.8,0.2,0.4,0.6,0.2,0.8,0.4,0.6,1,0,,,,,,,,,,,,
,,60fc06a551733182cbfee788,66fc995842b801f3398f5640,2024-10-02_02h54.07.671,mdp,2024.2.1,Win32,60.24096386,66fa4ebf79326e780c390304,,,,,,,,,,,,,,,,,,,,,533.0843,533.0843,533.0863,534.282,0,0,left,0.6661,,534.2847,535.25,0,1,left,535.2518,535.2533,,0,,0,535.2533,535.2534,535.2546,536.7624,0,47,47,47,1,0.8,0.2,0.2,0.8,,,,,,,,,,,,,,,0.4349,,0.2,0.8,0.8,0.2,0.2,0.8,0.4,0.6,1,0,,,,,,,,,,,,
,,60fc06a551733182cbfee788,66fc995842b801f3398f5640,2024-10-02_02h54.07.671,mdp,2024.2.1,Win32,60.24096386,66fa4ebf79326e780c390304,,,,,,,,,,,,,,,,,,,,,536.7642,536.7642,536.7666,537.5626,0,0,left,0.2668,,537.5659,538.3434,1,1,right,538.3469,538.3485,,0,,0,538.3486,538.3486,538.3503,539.8587,0,48,48,48,1,0.8,0.2,0.2,0.8,,,,,,,,,,,,,,,0.2587,,0.2,0.8,0.8,0.2,0.2,0.8,0.4,0.6,1,0,,,,,,,,,,,,
,,60fc06a551733182cbfee788,66fc995842b801f3398f5640,2024-10-02_02h54.07.671,mdp,2024.2.1,Win32,60.24096386,66fa4ebf79326e780c390304,,,,,,,,,,,,,,,,,,,,,539.8596,539.8596,539.8607,540.9031,0,1,left,0.5068,,540.9063,541.773,0,1,left,541.7754,541.7762,,1,,0,541.7762,541.7762,541.7773,543.2714,0,49,49,49,1,0.8,0.2,0.2,0.8,,,,,,,,,,,,,,,0.3498,,0.2,0.8,0.8,0.2,0.2,0.8,0.4,0.6,1,0,,,,,,,,,,,,
,,60fc06a551733182cbfee788,66fc995842b801f3398f5640,2024-10-02_02h54.07.671,mdp,2024.2.1,Win32,60.24096386,66fa4ebf79326e780c390304,,,,,,,,,,,,,,,,,,,,,,,,,,,,,,,,,,,,,,,,,,,,,,,,,,,,,,,,543.2716,601.7818,0,1,1,4,1,imgs/kangaroo.png,imgs/giraffe.png,imgs/cat.png,imgs/goat.png,imgs/pig.png,,,,,,,,,,,,,,,,,,,,,,,,
,,60fc06a551733182cbfee788,66fc995842b801f3398f5640,2024-10-02_02h54.07.671,mdp,2024.2.1,Win32,60.24096386,66fa4ebf79326e780c390304,,,,,,,,,,,,,,3,seqs/st3seq21.csv,601.804,610.9158,space,8.5894,,610.932,610.9321,610.933,612.167,0,1,left,0.6926,,612.1699,613.1167,0,1,left,613.1191,614.1961,1,1,right,0,614.1962,614.1963,614.1972,615.6963,0,0,0,0,1,0.4,0.6,0.4,0.6,,,,,,,,,,,,,,,0.4078,,0.2,0.8,0.4,0.6,0.2,0.8,0.8,0.2,,,0.5339,,0.4,0.6,0.8,0.2,0.8,0.2,0.2,0.8,1,0
,,60fc06a551733182cbfee788,66fc995842b801f3398f5640,2024-10-02_02h54.07.671,mdp,2024.2.1,Win32,60.24096386,66fa4ebf79326e780c390304,,,,,,,,,,,,,,,,,,,,,615.6973,615.6974,615.7,617.5455,0,1,left,1.3185,,617.5483,618.3927,1,0,right,618.3938,619.1438,0,0,left,1,619.1441,619.1441,619.1467,620.6414,0,1,1,1,1,0.4,0.6,0.4,0.6,,,,,,,,,,,,,,,0.3191,,0.2,0.8,0.4,0.6,0.2,0.8,0.8,0.2,,,0.214,,0.4,0.6,0.8,0.2,0.8,0.2,0.2,0.8,1,0
,,60fc06a551733182cbfee788,66fc995842b801f3398f5640,2024-10-02_02h54.07.671,mdp,2024.2.1,Win32,60.24096386,66fa4ebf79326e780c390304,,,,,,,,,,,,,,,,,,,,,620.6423,620.6423,620.645,621.4787,0,1,left,0.3115,,621.4815,622.3411,1,0,right,622.3436,623.1572,0,1,left,0,623.1573,623.1573,623.1599,624.6529,0,2,2,2,1,0.4,0.6,0.4,0.6,,,,,,,,,,,,,,,0.3342,,0.2,0.8,0.4,0.6,0.2,0.8,0.8,0.2,,,0.2847,,0.4,0.6,0.8,0.2,0.8,0.2,0.2,0.8,1,0
,,60fc06a551733182cbfee788,66fc995842b801f3398f5640,2024-10-02_02h54.07.671,mdp,2024.2.1,Win32,60.24096386,66fa4ebf79326e780c390304,,,,,,,,,,,,,,,,,,,,,624.6533,624.6533,624.6544,625.4919,0,0,left,0.331,,625.4928,626.3021,1,1,right,626.3057,627.1252,0,1,left,0,627.1253,627.1254,627.1308,628.6162,0,3,3,3,1,0.4,0.6,0.4,0.6,,,,,,,,,,,,,,,0.2747,,0.2,0.8,0.4,0.6,0.2,0.8,0.8,0.2,,,0.2995,,0.4,0.6,0.8,0.2,0.8,0.2,0.2,0.8,1,0
,,60fc06a551733182cbfee788,66fc995842b801f3398f5640,2024-10-02_02h54.07.671,mdp,2024.2.1,Win32,60.24096386,66fa4ebf79326e780c390304,,,,,,,,,,,,,,,,,,,,,628.6185,628.6185,628.6206,629.6225,0,0,left,0.4942,,629.6255,630.3864,1,0,right,630.388,631.1706,0,0,left,1,631.171,631.171,631.1742,632.6674,0,4,4,4,1,0.4,0.6,0.4,0.6,,,,,,,,,,,,,,,0.2496,,0.2,0.8,0.4,0.6,0.2,0.8,0.8,0.2,,,0.2509,,0.4,0.6,0.8,0.2,0.8,0.2,0.2,0.8,1,0
,,60fc06a551733182cbfee788,66fc995842b801f3398f5640,2024-10-02_02h54.07.671,mdp,2024.2.1,Win32,60.24096386,66fa4ebf79326e780c390304,,,,,,,,,,,,,,,,,,,,,632.6694,632.6694,632.6715,633.514,0,0,left,0.313,,633.5179,634.3614,1,0,right,634.3644,635.2166,0,1,left,0,635.2167,635.2168,635.2204,636.7145,0,5,5,5,1,0.4,0.6,0.4,0.6,,,,,,,,,,,,,,,0.3358,,0.2,0.8,0.4,0.6,0.2,0.8,0.8,0.2,,,0.3352,,0.4,0.6,0.8,0.2,0.8,0.2,0.2,0.8,1,0
,,60fc06a551733182cbfee788,66fc995842b801f3398f5640,2024-10-02_02h54.07.671,mdp,2024.2.1,Win32,60.24096386,66fa4ebf79326e780c390304,,,,,,,,,,,,,,,,,,,,,636.7168,636.7168,636.7191,637.5616,0,1,left,0.3159,,637.5632,638.3978,1,0,right,638.4009,639.2958,0,1,left,0,639.2959,639.2959,639.2992,640.7938,0,6,6,6,1,0.4,0.6,0.4,0.6,,,,,,,,,,,,,,,0.3126,,0.2,0.8,0.4,0.6,0.2,0.8,0.8,0.2,,,0.3682,,0.4,0.6,0.8,0.2,0.8,0.2,0.2,0.8,1,0
,,60fc06a551733182cbfee788,66fc995842b801f3398f5640,2024-10-02_02h54.07.671,mdp,2024.2.1,Win32,60.24096386,66fa4ebf79326e780c390304,,,,,,,,,,,,,,,,,,,,,640.7959,640.7959,640.7983,641.6433,0,1,left,0.3296,,641.646,642.4711,1,0,right,642.4732,643.3412,0,1,left,0,643.3413,643.3413,643.3438,644.8398,0,7,7,7,1,0.4,0.6,0.4,0.6,,,,,,,,,,,,,,,0.2916,,0.6,0.4,0.6,0.4,0.2,0.8,0.8,0.2,,,0.3528,,0.4,0.6,0.8,0.2,0.8,0.2,0.2,0.8,1,0
,,60fc06a551733182cbfee788,66fc995842b801f3398f5640,2024-10-02_02h54.07.671,mdp,2024.2.1,Win32,60.24096386,66fa4ebf79326e780c390304,,,,,,,,,,,,,,,,,,,,,644.8417,644.8417,644.8445,645.387,0,0,left,0.0143,,645.391,646.2727,0,0,left,646.276,647.4883,0,1,left,0,647.4884,647.4884,647.4915,648.9869,0,8,8,8,1,0.4,0.6,0.4,0.6,,,,,,,,,,,,,,,0.367,,0.6,0.4,0.6,0.4,0.2,0.8,0.8,0.2,,,0.684,,0.4,0.6,0.8,0.2,0.8,0.2,0.2,0.8,1,0
,,60fc06a551733182cbfee788,66fc995842b801f3398f5640,2024-10-02_02h54.07.671,mdp,2024.2.1,Win32,60.24096386,66fa4ebf79326e780c390304,,,,,,,,,,,,,,,,,,,,,648.9891,648.9891,648.991,649.8794,0,1,left,0.3698,,649.8833,650.6682,1,0,right,650.6727,651.4494,0,1,left,0,651.4496,651.4496,651.4531,652.9486,0,9,9,9,1,0.4,0.6,0.4,0.6,,,,,,,,,,,,,,,0.2672,,0.6,0.4,0.6,0.4,0.2,0.8,0.8,0.2,,,0.252,,0.4,0.6,0.8,0.2,0.8,0.2,0.2,0.8,1,0
,,60fc06a551733182cbfee788,66fc995842b801f3398f5640,2024-10-02_02h54.07.671,mdp,2024.2.1,Win32,60.24096386,66fa4ebf79326e780c390304,,,,,,,,,,,,,,,,,,,,,652.9508,652.9508,652.9533,653.7983,0,1,left,0.3171,,653.8019,654.6154,1,0,right,654.6183,655.7098,1,0,right,1,655.7098,655.7098,655.7128,657.2044,0,10,10,10,1,0.4,0.6,0.4,0.6,,,,,,,,,,,,,,,0.2858,,0.6,0.4,0.6,0.4,0.2,0.8,0.8,0.2,,,0.5686,,0.4,0.6,0.8,0.2,0.8,0.2,0.2,0.8,1,0
,,60fc06a551733182cbfee788,66fc995842b801f3398f5640,2024-10-02_02h54.07.671,mdp,2024.2.1,Win32,60.24096386,66fa4ebf79326e780c390304,,,,,,,,,,,,,,,,,,,,,657.2054,657.2054,657.208,658.0544,0,1,left,0.333,,658.0577,658.8447,1,0,right,658.8476,659.6386,1,0,right,1,659.6386,659.6386,659.6401,661.1406,0,11,11,11,1,0.4,0.6,0.4,0.6,,,,,,,,,,,,,,,0.2516,,0.6,0.4,0.6,0.4,0.2,0.8,0.8,0.2,,,0.2635,,0.4,0.6,0.8,0.2,0.8,0.2,0.2,0.8,1,0
,,60fc06a551733182cbfee788,66fc995842b801f3398f5640,2024-10-02_02h54.07.671,mdp,2024.2.1,Win32,60.24096386,66fa4ebf79326e780c390304,,,,,,,,,,,,,,,,,,,,,661.1428,661.1428,661.1449,661.9724,0,1,left,0.3028,,661.976,662.823,1,0,right,662.8263,663.8011,1,0,right,1,663.8012,663.8012,663.8038,665.3034,0,12,12,12,1,0.4,0.6,0.4,0.6,,,,,,,,,,,,,,,0.3173,,0.6,0.4,0.6,0.4,0.2,0.8,0.8,0.2,,,0.4544,,0.4,0.6,0.8,0.2,0.8,0.2,0.2,0.8,1,0
,,60fc06a551733182cbfee788,66fc995842b801f3398f5640,2024-10-02_02h54.07.671,mdp,2024.2.1,Win32,60.24096386,66fa4ebf79326e780c390304,,,,,,,,,,,,,,,,,,,,,665.3051,665.3052,665.3076,666.2028,0,1,left,0.3682,,666.2058,667.0691,1,0,right,667.0732,667.9017,1,0,right,1,667.9019,667.9019,667.9053,669.3991,0,13,13,13,1,0.2,0.8,0.2,0.8,,,,,,,,,,,,,,,0.3341,,0.6,0.4,0.6,0.4,0.2,0.8,0.8,0.2,,,0.3102,,0.4,0.6,0.8,0.2,0.8,0.2,0.2,0.8,1,0
,,60fc06a551733182cbfee788,66fc995842b801f3398f5640,2024-10-02_02h54.07.671,mdp,2024.2.1,Win32,60.24096386,66fa4ebf79326e780c390304,,,,,,,,,,,,,,,,,,,,,669.4011,669.4011,669.4034,670.2324,0,0,left,0.3118,,670.2359,671.0108,1,0,right,671.0133,672.1627,1,0,right,1,672.1628,672.1628,672.1664,673.6619,0,14,14,14,1,0.2,0.8,0.2,0.8,,,,,,,,,,,,,,,0.245,,0.6,0.4,0.6,0.4,0.2,0.8,0.8,0.2,,,0.6422,,0.4,0.6,0.8,0.2,0.8,0.2,0.2,0.8,1,0
,,60fc06a551733182cbfee788,66fc995842b801f3398f5640,2024-10-02_02h54.07.671,mdp,2024.2.1,Win32,60.24096386,66fa4ebf79326e780c390304,,,,,,,,,,,,,,,,,,,,,673.6637,673.6637,673.6663,674.6942,0,0,left,0.4991,,674.6974,675.4607,1,1,right,675.4643,676.8618,0,0,left,1,676.8619,676.8619,676.8639,678.3506,0,15,15,15,1,0.2,0.8,0.2,0.8,,,,,,,,,,,,,,,0.2452,,0.6,0.4,0.6,0.4,0.2,0.8,0.8,0.2,,,0.8694,,0.4,0.6,0.8,0.2,0.8,0.2,0.2,0.8,1,0
,,60fc06a551733182cbfee788,66fc995842b801f3398f5640,2024-10-02_02h54.07.671,mdp,2024.2.1,Win32,60.24096386,66fa4ebf79326e780c390304,,,,,,,,,,,,,,,,,,,,,678.353,678.3531,678.3552,679.8678,0,0,left,0.9921,,679.8705,680.7819,1,1,right,680.7855,682.1211,0,0,left,1,682.1212,682.1212,682.1247,683.6186,0,16,16,16,1,0.2,0.8,0.2,0.8,,,,,,,,,,,,,,,0.3915,,0.6,0.4,0.6,0.4,0.2,0.8,0.8,0.2,,,0.8096,,0.4,0.6,0.8,0.2,0.8,0.2,0.2,0.8,1,0
,,60fc06a551733182cbfee788,66fc995842b801f3398f5640,2024-10-02_02h54.07.671,mdp,2024.2.1,Win32,60.24096386,66fa4ebf79326e780c390304,,,,,,,,,,,,,,,,,,,,,683.6202,683.6202,683.623,684.5352,0,1,left,0.3939,,684.5387,685.6342,1,0,right,685.6379,686.6998,1,0,right,1,686.7,686.7,686.7034,688.1964,0,17,17,17,1,0.2,0.8,0.2,0.8,,,,,,,,,,,,,,,0.5666,,0.6,0.4,0.6,0.4,0.2,0.8,0.8,0.2,,,0.5336,,0.4,0.6,0.8,0.2,0.8,0.2,0.2,0.8,1,0
,,60fc06a551733182cbfee788,66fc995842b801f3398f5640,2024-10-02_02h54.07.671,mdp,2024.2.1,Win32,60.24096386,66fa4ebf79326e780c390304,,,,,,,,,,,,,,,,,,,,,688.1974,688.1975,688.2,689.0307,0,0,left,0.3008,,689.0345,690.3132,1,0,right,690.3166,691.5119,1,0,right,1,691.5122,691.5122,691.5157,693.0096,0,18,18,18,1,0.2,0.8,0.2,0.8,,,,,,,,,,,,,,,0.7504,,0.6,0.4,0.6,0.4,0.2,0.8,0.8,0.2,,,0.6685,,0.6,0.4,0.6,0.4,0.8,0.2,0.2,0.8,1,0
,,60fc06a551733182cbfee788,66fc995842b801f3398f5640,2024-10-02_02h54.07.671,mdp,2024.2.1,Win32,60.24096386,66fa4ebf79326e780c390304,,,,,,,,,,,,,,,,,,,,,693.0117,693.0117,693.014,694.4396,0,0,left,0.8971,,694.4429,695.2578,1,1,right,695.2616,696.7062,0,0,left,1,696.7064,696.7064,696.71,698.198,0,19,19,19,1,0.2,0.8,0.2,0.8,,,,,,,,,,,,,,,0.3033,,0.6,0.4,0.6,0.4,0.2,0.8,0.8,0.2,,,0.9159,,0.6,0.4,0.6,0.4,0.8,0.2,0.2,0.8,1,0
,,60fc06a551733182cbfee788,66fc995842b801f3398f5640,2024-10-02_02h54.07.671,mdp,2024.2.1,Win32,60.24096386,66fa4ebf79326e780c390304,,,,,,,,,,,,,,,,,,,,,698.2004,698.2004,698.2024,699.1053,0,1,left,0.3766,,699.1084,699.9804,1,0,right,699.9839,701.1202,1,1,right,0,701.1204,701.1205,701.1233,702.6107,0,20,20,20,1,0.2,0.8,0.2,0.8,,,,,,,,,,,,,,,0.3409,,0.6,0.4,0.6,0.4,0.2,0.8,0.8,0.2,,,0.6171,,0.6,0.4,0.6,0.4,0.8,0.2,0.2,0.8,1,0
,,60fc06a551733182cbfee788,66fc995842b801f3398f5640,2024-10-02_02h54.07.671,mdp,2024.2.1,Win32,60.24096386,66fa4ebf79326e780c390304,,,,,,,,,,,,,,,,,,,,,702.6127,702.6128,702.6146,703.6683,0,1,left,0.5446,,703.6709,704.4988,1,0,right,704.5019,705.4482,0,1,left,0,705.4483,705.4483,705.4514,706.9458,0,21,21,21,1,0.2,0.8,0.2,0.8,,,,,,,,,,,,,,,0.3001,,0.6,0.4,0.6,0.4,0.2,0.8,0.8,0.2,,,0.4299,,0.2,0.8,0.8,0.2,0.8,0.2,0.2,0.8,1,0
,,60fc06a551733182cbfee788,66fc995842b801f3398f5640,2024-10-02_02h54.07.671,mdp,2024.2.1,Win32,60.24096386,66fa4ebf79326e780c390304,,,,,,,,,,,,,,,,,,,,,706.9475,706.9476,706.9504,707.8962,0,1,left,0.4264,,707.8995,708.779,1,0,right,708.7812,709.9085,1,1,right,0,709.9087,709.9087,709.9103,711.4005,0,22,22,22,1,0.2,0.8,0.2,0.8,,,,,,,,,,,,,,,0.361,,0.6,0.4,0.6,0.4,0.2,0.8,0.8,0.2,,,0.5994,,0.2,0.8,0.8,0.2,0.8,0.2,0.2,0.8,1,0
,,60fc06a551733182cbfee788,66fc995842b801f3398f5640,2024-10-02_02h54.07.671,mdp,2024.2.1,Win32,60.24096386,66fa4ebf79326e780c390304,,,,,,,,,,,,,,,,,,,,,711.401,711.401,711.4024,712.3882,0,1,left,0.4773,,712.39,713.2738,1,0,right,713.277,714.2401,1,1,right,0,714.2402,714.2402,714.2435,715.7372,0,23,23,23,1,0.2,0.8,0.2,0.8,,,,,,,,,,,,,,,0.3675,,0.6,0.4,0.6,0.4,0.2,0.8,0.8,0.2,,,0.4361,,0.2,0.8,0.8,0.2,0.4,0.6,0.4,0.6,1,0
,,60fc06a551733182cbfee788,66fc995842b801f3398f5640,2024-10-02_02h54.07.671,mdp,2024.2.1,Win32,60.24096386,66fa4ebf79326e780c390304,,,,,,,,,,,,,,,,,,,,,715.739,715.739,715.7416,716.8138,0,0,left,0.5367,,716.8177,717.7694,1,1,right,717.773,718.9185,1,1,right,0,718.9186,718.9186,718.9224,720.4159,0,24,24,24,1,0.2,0.8,0.2,0.8,,,,,,,,,,,,,,,0.417,,0.6,0.4,0.6,0.4,0.2,0.8,0.8,0.2,,,0.6168,,0.2,0.8,0.8,0.2,0.4,0.6,0.4,0.6,1,0
,,60fc06a551733182cbfee788,66fc995842b801f3398f5640,2024-10-02_02h54.07.671,mdp,2024.2.1,Win32,60.24096386,66fa4ebf79326e780c390304,,,,,,,,,,,,,,,,,,,,,720.4178,720.4178,720.4204,721.2292,0,0,left,0.2796,,721.2326,722.0321,1,0,right,722.0357,723.1906,1,0,right,1,723.1909,723.1909,723.1943,724.6949,0,25,25,25,1,0.2,0.8,0.2,0.8,,,,,,,,,,,,,,,0.2673,,0.6,0.4,0.6,0.4,0.2,0.8,0.8,0.2,,,0.6231,,0.2,0.8,0.8,0.2,0.8,0.2,0.2,0.8,1,0
,,60fc06a551733182cbfee788,66fc995842b801f3398f5640,2024-10-02_02h54.07.671,mdp,2024.2.1,Win32,60.24096386,66fa4ebf79326e780c390304,,,,,,,,,,,,,,,,,,,,,724.6968,724.6968,724.6994,725.7434,0,1,left,0.5161,,725.7453,726.7391,1,0,right,726.7416,727.9263,1,0,right,1,727.9264,727.9264,727.9303,729.4236,0,26,26,26,1,0.2,0.8,0.2,0.8,,,,,,,,,,,,,,,0.4595,,0.6,0.4,0.6,0.4,0.2,0.8,0.8,0.2,,,0.6504,,0.2,0.8,0.8,0.2,0.8,0.2,0.2,0.8,1,0
,,60fc06a551733182cbfee788,66fc995842b801f3398f5640,2024-10-02_02h54.07.671,mdp,2024.2.1,Win32,60.24096386,66fa4ebf79326e780c390304,,,,,,,,,,,,,,,,,,,,,729.4258,729.4258,729.4281,730.4889,0,1,left,0.5446,,730.4926,731.4224,1,1,right,731.4257,732.6845,0,0,left,1,732.6846,732.6846,732.6874,734.1782,0,27,27,27,1,0.2,0.8,0.2,0.8,,,,,,,,,,,,,,,0.402,,0.6,0.4,0.6,0.4,0.2,0.8,0.8,0.2,,,0.7243,,0.2,0.8,0.8,0.2,0.8,0.2,0.2,0.8,1,0
,,60fc06a551733182cbfee788,66fc995842b801f3398f5640,2024-10-02_02h54.07.671,mdp,2024.2.1,Win32,60.24096386,66fa4ebf79326e780c390304,,,,,,,,,,,,,,,,,,,,,734.1786,734.1786,734.1801,735.3358,0,1,left,0.6341,,735.3376,736.351,1,0,right,736.3544,738.1497,1,0,right,1,738.1501,738.1501,738.1534,739.6444,0,28,28,28,1,0.2,0.8,0.2,0.8,,,,,,,,,,,,,,,0.4836,,0.6,0.4,0.6,0.4,0.2,0.8,0.8,0.2,,,1.2666,,0.2,0.8,0.8,0.2,0.8,0.2,0.2,0.8,1,0
,,60fc06a551733182cbfee788,66fc995842b801f3398f5640,2024-10-02_02h54.07.671,mdp,2024.2.1,Win32,60.24096386,66fa4ebf79326e780c390304,,,,,,,,,,,,,,,,,,,,,739.646,739.6461,739.6485,741.9294,0,0,left,1.7497,,741.9504,743.0542,1,0,right,743.0575,744.3363,1,0,right,1,744.3366,744.3366,744.3394,745.8343,0,29,29,29,1,0.2,0.8,0.2,0.8,,,,,,,,,,,,,,,0.5943,,0.6,0.4,0.6,0.4,0.2,0.8,0.8,0.2,,,0.7504,,0.2,0.8,0.8,0.2,0.8,0.2,0.2,0.8,1,0
,,60fc06a551733182cbfee788,66fc995842b801f3398f5640,2024-10-02_02h54.07.671,mdp,2024.2.1,Win32,60.24096386,66fa4ebf79326e780c390304,,,,,,,,,,,,,,,,,,,,,745.8364,745.8364,745.8388,748.4987,0,1,left,2.1353,,748.5017,749.5146,1,0,right,749.5178,750.6309,1,1,right,0,750.631,750.631,750.6336,752.1282,0,30,30,30,1,0.6,0.4,0.4,0.6,,,,,,,,,,,,,,,0.4775,,0.6,0.4,0.6,0.4,0.2,0.8,0.8,0.2,,,0.5832,,0.2,0.8,0.8,0.2,0.8,0.2,0.2,0.8,1,0
,,60fc06a551733182cbfee788,66fc995842b801f3398f5640,2024-10-02_02h54.07.671,mdp,2024.2.1,Win32,60.24096386,66fa4ebf79326e780c390304,,,,,,,,,,,,,,,,,,,,,752.1309,752.1309,752.1328,754.2776,0,1,left,1.6157,,754.2798,755.6087,1,0,right,755.6125,756.8419,1,1,right,0,756.842,756.8421,756.8443,758.3388,0,31,31,31,1,0.6,0.4,0.4,0.6,,,,,,,,,,,,,,,0.8033,,0.6,0.4,0.6,0.4,0.2,0.8,0.8,0.2,,,0.7007,,0.2,0.8,0.8,0.2,0.8,0.2,0.2,0.8,1,0
,,60fc06a551733182cbfee788,66fc995842b801f3398f5640,2024-10-02_02h54.07.671,mdp,2024.2.1,Win32,60.24096386,66fa4ebf79326e780c390304,,,,,,,,,,,,,,,,,,,,,758.3408,758.3408,758.3433,760.404,0,1,left,1.5326,,760.4073,761.4864,1,0,right,761.4891,762.9692,1,0,right,1,762.9693,762.9693,762.9718,764.4666,0,32,32,32,1,0.6,0.4,0.4,0.6,,,,,,,,,,,,,,,0.5529,,0.6,0.4,0.6,0.4,0.2,0.8,0.8,0.2,,,0.9523,,0.2,0.8,0.8,0.2,0.8,0.2,0.2,0.8,1,0
,,60fc06a551733182cbfee788,66fc995842b801f3398f5640,2024-10-02_02h54.07.671,mdp,2024.2.1,Win32,60.24096386,66fa4ebf79326e780c390304,,,,,,,,,,,,,,,,,,,,,764.4675,764.4675,764.4701,765.4331,0,1,left,0.4403,,765.4362,766.4646,1,0,right,766.4679,767.6469,1,0,right,1,767.647,767.6471,767.6505,769.1516,0,33,33,33,1,0.6,0.4,0.4,0.6,,,,,,,,,,,,,,,0.5003,,0.6,0.4,0.6,0.4,0.2,0.8,0.8,0.2,,,0.6493,,0.2,0.8,0.8,0.2,0.8,0.2,0.2,0.8,1,0
,,60fc06a551733182cbfee788,66fc995842b801f3398f5640,2024-10-02_02h54.07.671,mdp,2024.2.1,Win32,60.24096386,66fa4ebf79326e780c390304,,,,,,,,,,,,,,,,,,,,,769.1539,769.1539,769.156,770.2179,0,0,left,0.5338,,770.2214,771.4473,1,1,right,771.4505,772.799,0,0,left,1,772.7991,772.7991,772.802,774.2905,0,34,34,34,1,0.6,0.4,0.4,0.6,,,,,,,,,,,,,,,0.6968,,0.6,0.4,0.6,0.4,0.2,0.8,0.8,0.2,,,0.8335,,0.2,0.8,0.8,0.2,0.8,0.2,0.2,0.8,1,0
,,60fc06a551733182cbfee788,66fc995842b801f3398f5640,2024-10-02_02h54.07.671,mdp,2024.2.1,Win32,60.24096386,66fa4ebf79326e780c390304,,,,,,,,,,,,,,,,,,,,,774.2931,774.2931,774.2948,775.1963,0,0,left,0.3672,,775.2002,776.2124,1,1,right,776.2154,777.311,0,0,left,1,777.3114,777.3114,777.3147,778.8038,0,35,35,35,1,0.6,0.4,0.4,0.6,,,,,,,,,,,,,,,0.4835,,0.6,0.4,0.6,0.4,0.2,0.8,0.8,0.2,,,0.5766,,0.2,0.8,0.8,0.2,0.8,0.2,0.2,0.8,1,0
,,60fc06a551733182cbfee788,66fc995842b801f3398f5640,2024-10-02_02h54.07.671,mdp,2024.2.1,Win32,60.24096386,66fa4ebf79326e780c390304,,,,,,,,,,,,,,,,,,,,,778.8067,778.8067,778.809,779.8084,0,0,left,0.4935,,779.8118,780.8925,1,0,right,780.8953,782.5396,1,0,right,1,782.5398,782.5398,782.5434,784.036,0,36,36,36,1,0.6,0.4,0.4,0.6,,,,,,,,,,,,,,,0.5532,,0.6,0.4,0.6,0.4,0.2,0.8,0.8,0.2,,,1.1162,,0.2,0.8,0.8,0.2,0.8,0.2,0.2,0.8,1,0
,,60fc06a551733182cbfee788,66fc995842b801f3398f5640,2024-10-02_02h54.07.671,mdp,2024.2.1,Win32,60.24096386,66fa4ebf79326e780c390304,,,,,,,,,,,,,,,,,,,,,784.0371,784.0373,784.0385,785.6689,0,1,left,1.0987,,785.6721,787.4663,1,0,right,787.4682,788.7499,1,0,right,1,788.7501,788.7501,788.7529,790.2465,0,37,37,37,1,0.6,0.4,0.4,0.6,,,,,,,,,,,,,,,1.265,,0.6,0.4,0.6,0.4,0.2,0.8,0.8,0.2,,,0.7602,,0.2,0.8,0.8,0.2,0.8,0.2,0.2,0.8,1,0
,,60fc06a551733182cbfee788,66fc995842b801f3398f5640,2024-10-02_02h54.07.671,mdp,2024.2.1,Win32,60.24096386,66fa4ebf79326e780c390304,,,,,,,,,,,,,,,,,,,,,790.2472,790.2472,790.2488,791.7019,0,0,left,0.9283,,791.7038,792.69,1,0,right,792.6933,793.7949,1,0,right,1,793.7954,793.7957,793.7987,795.2912,0,38,38,38,1,0.6,0.4,0.4,0.6,,,,,,,,,,,,,,,0.4517,,0.6,0.4,0.6,0.4,0.2,0.8,0.8,0.2,,,0.5852,,0.2,0.8,0.8,0.2,0.8,0.2,0.2,0.8,1,0
,,60fc06a551733182cbfee788,66fc995842b801f3398f5640,2024-10-02_02h54.07.671,mdp,2024.2.1,Win32,60.24096386,66fa4ebf79326e780c390304,,,,,,,,,,,,,,,,,,,,,795.293,795.293,795.2955,796.2924,0,1,left,0.4672,,796.2956,797.2089,1,0,right,797.212,798.4722,1,0,right,1,798.4724,798.4724,798.4757,799.9711,0,39,39,39,1,0.6,0.4,0.4,0.6,,,,,,,,,,,,,,,0.3837,,0.6,0.4,0.6,0.4,0.2,0.8,0.8,0.2,,,0.735,,0.2,0.8,0.8,0.2,0.8,0.2,0.2,0.8,1,0
,,60fc06a551733182cbfee788,66fc995842b801f3398f5640,2024-10-02_02h54.07.671,mdp,2024.2.1,Win32,60.24096386,66fa4ebf79326e780c390304,,,,,,,,,,,,,,,,,,,,,799.973,799.973,799.9754,800.921,0,0,left,0.4264,,800.9238,801.9868,1,1,right,801.9909,803.2275,0,0,left,1,803.2276,803.2276,803.2292,804.7169,0,40,40,40,1,0.6,0.4,0.4,0.6,,,,,,,,,,,,,,,0.5332,,0.6,0.4,0.6,0.4,0.2,0.8,0.8,0.2,,,0.7036,,0.2,0.8,0.8,0.2,0.8,0.2,0.2,0.8,1,0
,,60fc06a551733182cbfee788,66fc995842b801f3398f5640,2024-10-02_02h54.07.671,mdp,2024.2.1,Win32,60.24096386,66fa4ebf79326e780c390304,,,,,,,,,,,,,,,,,,,,,804.7178,804.7178,804.7209,805.917,0,1,left,0.6703,,805.9193,807.0828,1,0,right,807.0857,808.1983,1,1,right,0,808.1986,808.1986,808.2015,809.6952,0,41,41,41,1,0.6,0.4,0.4,0.6,,,,,,,,,,,,,,,0.6334,,0.4,0.6,0.4,0.6,0.2,0.8,0.8,0.2,,,0.5841,,0.2,0.8,0.8,0.2,0.8,0.2,0.2,0.8,1,0
,,60fc06a551733182cbfee788,66fc995842b801f3398f5640,2024-10-02_02h54.07.671,mdp,2024.2.1,Win32,60.24096386,66fa4ebf79326e780c390304,,,,,,,,,,,,,,,,,,,,,809.697,809.697,809.6996,810.6814,0,1,left,0.4628,,810.6839,812.8199,1,1,right,812.824,813.8575,0,0,left,1,813.8578,813.8578,813.8611,815.3497,0,42,42,42,1,0.6,0.4,0.4,0.6,,,,,,,,,,,,,,,1.617,,0.4,0.6,0.4,0.6,0.2,0.8,0.8,0.2,,,0.516,,0.2,0.8,0.8,0.2,0.8,0.2,0.2,0.8,1,0
,,60fc06a551733182cbfee788,66fc995842b801f3398f5640,2024-10-02_02h54.07.671,mdp,2024.2.1,Win32,60.24096386,66fa4ebf79326e780c390304,,,,,,,,,,,,,,,,,,,,,815.3506,815.3507,815.3539,816.4829,0,0,left,0.6203,,816.4861,817.3382,1,0,right,817.3414,818.3055,0,1,left,0,818.3058,818.3059,818.3091,819.8019,0,43,43,43,1,0.6,0.4,0.4,0.6,,,,,,,,,,,,,,,0.3334,,0.4,0.6,0.4,0.6,0.2,0.8,0.8,0.2,,,0.4337,,0.2,0.8,0.8,0.2,0.8,0.2,0.2,0.8,1,0
,,60fc06a551733182cbfee788,66fc995842b801f3398f5640,2024-10-02_02h54.07.671,mdp,2024.2.1,Win32,60.24096386,66fa4ebf79326e780c390304,,,,,,,,,,,,,,,,,,,,,819.8039,819.8039,819.8062,820.6349,0,1,left,0.3001,,820.6379,821.636,1,0,right,821.639,822.6482,1,0,right,1,822.6482,822.6483,822.6498,824.1464,0,44,44,44,1,0.6,0.4,0.4,0.6,,,,,,,,,,,,,,,0.4675,,0.4,0.6,0.4,0.6,0.2,0.8,0.8,0.2,,,0.4923,,0.2,0.8,0.8,0.2,0.8,0.2,0.2,0.8,1,0
,,60fc06a551733182cbfee788,66fc995842b801f3398f5640,2024-10-02_02h54.07.671,mdp,2024.2.1,Win32,60.24096386,66fa4ebf79326e780c390304,,,,,,,,,,,,,,,,,,,,,824.1474,824.1474,824.1484,825.0642,0,0,left,0.3866,,825.0677,826.3128,1,1,right,826.3164,827.5581,1,1,right,0,827.5583,827.5583,827.5604,829.0584,0,45,45,45,1,0.6,0.4,0.4,0.6,,,,,,,,,,,,,,,0.7166,,0.4,0.6,0.4,0.6,0.2,0.8,0.8,0.2,,,0.711,,0.2,0.8,0.8,0.2,0.8,0.2,0.2,0.8,1,0
,,60fc06a551733182cbfee788,66fc995842b801f3398f5640,2024-10-02_02h54.07.671,mdp,2024.2.1,Win32,60.24096386,66fa4ebf79326e780c390304,,,,,,,,,,,,,,,,,,,,,829.0594,829.0594,829.0608,830.0879,0,1,left,0.5087,,830.0906,831.0671,1,1,right,831.0685,832.3726,0,1,left,0,832.3726,832.3726,832.3736,833.8701,0,46,46,46,1,0.6,0.4,0.4,0.6,,,,,,,,,,,,,,,0.4539,,0.4,0.6,0.4,0.6,0.2,0.8,0.8,0.2,,,0.795,,0.2,0.8,0.8,0.2,0.8,0.2,0.2,0.8,1,0
,,60fc06a551733182cbfee788,66fc995842b801f3398f5640,2024-10-02_02h54.07.671,mdp,2024.2.1,Win32,60.24096386,66fa4ebf79326e780c390304,,,,,,,,,,,,,,,,,,,,,833.8717,833.8717,833.8742,834.7374,0,0,left,0.3337,,834.7406,836.3533,1,0,right,836.357,837.502,1,1,right,0,837.5021,837.5021,837.5056,838.9997,0,47,47,47,1,0.6,0.4,0.4,0.6,,,,,,,,,,,,,,,1.0836,,0.4,0.6,0.4,0.6,0.2,0.8,0.8,0.2,,,0.6169,,0.4,0.6,0.2,0.8,0.8,0.2,0.2,0.8,1,0
,,60fc06a551733182cbfee788,66fc995842b801f3398f5640,2024-10-02_02h54.07.671,mdp,2024.2.1,Win32,60.24096386,66fa4ebf79326e780c390304,,,,,,,,,,,,,,,,,,,,,839.0016,839.0016,839.0042,839.8765,0,0,left,0.3351,,839.8801,840.8332,1,1,right,840.8364,842.1281,0,0,left,1,842.1282,842.1282,842.1321,843.6244,0,48,48,48,1,0.6,0.4,0.4,0.6,,,,,,,,,,,,,,,0.4179,,0.8,0.2,0.6,0.4,0.2,0.8,0.8,0.2,,,0.7639,,0.4,0.6,0.2,0.8,0.8,0.2,0.2,0.8,1,0
,,60fc06a551733182cbfee788,66fc995842b801f3398f5640,2024-10-02_02h54.07.671,mdp,2024.2.1,Win32,60.24096386,66fa4ebf79326e780c390304,,,,,,,,,,,,,,,,,,,,,843.6248,843.6248,843.6264,847.0098,0,1,left,2.867,,847.0207,847.99,1,1,right,847.9918,849.1841,0,0,left,1,849.1851,849.1852,849.1878,850.6818,0,49,49,49,1,0.6,0.4,0.4,0.6,,,,,,,,,,,,,,,0.4496,,0.8,0.2,0.6,0.4,0.2,0.8,0.8,0.2,,,0.6688,,0.4,0.6,0.2,0.8,0.8,0.2,0.2,0.8,1,0
,,60fc06a551733182cbfee788,66fc995842b801f3398f5640,2024-10-02_02h54.07.671,mdp,2024.2.1,Win32,60.24096386,66fa4ebf79326e780c390304,,,,,,,,,,,,,,,,,,,,,,,,,,,,,,,,,,,,,,,,,,,,,,,,,,,,,,,,850.6822,909.1912,0,2,2,3,1,imgs/goat.png,imgs/kangaroo.png,imgs/rabbit.png,imgs/lion.png,imgs/horse.png,,,,,,,,,,,,,,,,,,,,,,,,
,,60fc06a551733182cbfee788,66fc995842b801f3398f5640,2024-10-02_02h54.07.671,mdp,2024.2.1,Win32,60.24096386,66fa4ebf79326e780c390304,,,,,,,,,,,,,,3,seqs/st3seq3.csv,909.2128,924.9334,space,15.213,,924.9642,924.9642,924.9656,926.758,0,1,left,1.2589,,926.7616,927.8139,1,1,right,927.8168,928.7461,0,1,left,0,928.7462,928.7462,928.7495,930.2373,0,0,0,0,1,0.8,0.2,0.2,0.8,,,,,,,,,,,,,,,0.5157,,0.8,0.2,0.2,0.8,0.4,0.6,0.6,0.4,,,0.4002,,0.4,0.6,0.2,0.8,0.6,0.4,0.4,0.6,1,0
,,60fc06a551733182cbfee788,66fc995842b801f3398f5640,2024-10-02_02h54.07.671,mdp,2024.2.1,Win32,60.24096386,66fa4ebf79326e780c390304,,,,,,,,,,,,,,,,,,,,,930.2383,930.2384,930.2414,931.1235,0,0,left,0.3733,,931.1261,931.9432,1,0,right,931.9469,933.3902,0,1,left,0,933.3904,933.3905,933.3937,934.883,0,1,1,1,1,0.8,0.2,0.2,0.8,,,,,,,,,,,,,,,0.2842,,0.8,0.2,0.2,0.8,0.4,0.6,0.6,0.4,,,0.9084,,0.4,0.6,0.2,0.8,0.6,0.4,0.4,0.6,1,0
,,60fc06a551733182cbfee788,66fc995842b801f3398f5640,2024-10-02_02h54.07.671,mdp,2024.2.1,Win32,60.24096386,66fa4ebf79326e780c390304,,,,,,,,,,,,,,,,,,,,,934.8856,934.8857,934.8877,935.7394,0,0,left,0.3351,,935.7427,936.5373,1,1,right,936.5405,937.3181,1,0,right,1,937.3183,937.3184,937.3219,938.8189,0,2,2,2,1,0.8,0.2,0.2,0.8,,,,,,,,,,,,,,,0.2688,,0.8,0.2,0.2,0.8,0.4,0.6,0.6,0.4,,,0.2474,,0.4,0.6,0.2,0.8,0.6,0.4,0.4,0.6,1,0
,,60fc06a551733182cbfee788,66fc995842b801f3398f5640,2024-10-02_02h54.07.671,mdp,2024.2.1,Win32,60.24096386,66fa4ebf79326e780c390304,,,,,,,,,,,,,,,,,,,,,938.8206,938.8206,938.8231,939.6122,0,0,left,0.2681,,939.6154,940.3932,1,1,right,940.3948,941.1274,1,0,right,1,941.1275,941.1275,941.1305,942.6251,0,3,3,3,1,0.8,0.2,0.2,0.8,,,,,,,,,,,,,,,0.2498,,0.8,0.2,0.2,0.8,0.4,0.6,0.6,0.4,,,0.2173,,0.4,0.6,0.2,0.8,0.6,0.4,0.4,0.6,1,0
,,60fc06a551733182cbfee788,66fc995842b801f3398f5640,2024-10-02_02h54.07.671,mdp,2024.2.1,Win32,60.24096386,66fa4ebf79326e780c390304,,,,,,,,,,,,,,,,,,,,,942.6271,942.6271,942.6296,943.4251,0,0,left,0.2695,,943.4284,944.2751,1,0,right,944.279,944.9067,1,1,right,0,944.907,944.907,944.9097,946.4049,0,4,4,4,1,0.8,0.2,0.2,0.8,,,,,,,,,,,,,,,0.3272,,0.8,0.2,0.2,0.8,0.4,0.6,0.6,0.4,,,0.0934,,0.4,0.6,0.2,0.8,0.6,0.4,0.4,0.6,1,0
,,60fc06a551733182cbfee788,66fc995842b801f3398f5640,2024-10-02_02h54.07.671,mdp,2024.2.1,Win32,60.24096386,66fa4ebf79326e780c390304,,,,,,,,,,,,,,,,,,,,,946.4064,946.4064,946.4091,947.208,0,0,left,0.2769,,947.2115,947.9874,1,1,right,947.9904,949.2542,1,1,right,0,949.2543,949.2543,949.2569,950.7506,0,5,5,5,1,0.8,0.2,0.2,0.8,,,,,,,,,,,,,,,0.251,,0.8,0.2,0.2,0.8,0.4,0.6,0.6,0.4,,,0.7339,,0.4,0.6,0.2,0.8,0.6,0.4,0.4,0.6,1,0
,,60fc06a551733182cbfee788,66fc995842b801f3398f5640,2024-10-02_02h54.07.671,mdp,2024.2.1,Win32,60.24096386,66fa4ebf79326e780c390304,,,,,,,,,,,,,,,,,,,,,950.7526,950.7526,950.7556,951.6174,0,0,left,0.339,,951.6209,952.4814,1,1,right,952.4831,953.2651,1,1,right,0,953.2653,953.2653,953.2688,954.7637,0,6,6,6,1,0.8,0.2,0.2,0.8,,,,,,,,,,,,,,,0.3306,,0.8,0.2,0.2,0.8,0.4,0.6,0.6,0.4,,,0.2682,,0.4,0.6,0.2,0.8,0.6,0.4,0.4,0.6,1,0
,,60fc06a551733182cbfee788,66fc995842b801f3398f5640,2024-10-02_02h54.07.671,mdp,2024.2.1,Win32,60.24096386,66fa4ebf79326e780c390304,,,,,,,,,,,,,,,,,,,,,954.7659,954.7659,954.7685,955.6963,0,1,left,0.3988,,955.7,956.7792,1,0,right,956.7822,957.696,0,0,left,1,957.6961,957.6961,957.6989,959.1919,0,7,7,7,1,0.8,0.2,0.2,0.8,,,,,,,,,,,,,,,0.5432,,0.8,0.2,0.2,0.8,0.4,0.6,0.6,0.4,,,0.3849,,0.4,0.6,0.2,0.8,0.6,0.4,0.4,0.6,1,0
,,60fc06a551733182cbfee788,66fc995842b801f3398f5640,2024-10-02_02h54.07.671,mdp,2024.2.1,Win32,60.24096386,66fa4ebf79326e780c390304,,,,,,,,,,,,,,,,,,,,,959.1942,959.1942,959.1964,960.1252,0,0,left,0.4013,,960.1285,960.8916,1,1,right,960.8951,961.7238,0,0,left,1,961.724,961.724,961.727,963.2217,0,8,8,8,1,0.8,0.2,0.2,0.8,,,,,,,,,,,,,,,0.2323,,0.8,0.2,0.2,0.8,0.4,0.6,0.6,0.4,,,0.2936,,0.4,0.6,0.2,0.8,0.8,0.2,0.8,0.2,1,0
,,60fc06a551733182cbfee788,66fc995842b801f3398f5640,2024-10-02_02h54.07.671,mdp,2024.2.1,Win32,60.24096386,66fa4ebf79326e780c390304,,,,,,,,,,,,,,,,,,,,,963.2238,963.2238,963.2261,964.0549,0,0,left,0.3004,,964.058,964.9049,1,1,right,964.9079,965.7538,0,1,left,0,965.754,965.754,965.7566,967.2514,0,9,9,9,1,0.8,0.2,0.2,0.8,,,,,,,,,,,,,,,0.3263,,0.8,0.2,0.2,0.8,0.4,0.6,0.6,0.4,,,0.3194,,0.4,0.6,0.2,0.8,0.8,0.2,0.8,0.2,1,0
,,60fc06a551733182cbfee788,66fc995842b801f3398f5640,2024-10-02_02h54.07.671,mdp,2024.2.1,Win32,60.24096386,66fa4ebf79326e780c390304,,,,,,,,,,,,,,,,,,,,,967.2535,967.2535,967.2555,968.1028,0,0,left,0.3179,,968.1046,968.9001,1,1,right,968.903,969.6663,0,0,left,1,969.6665,969.6665,969.6691,971.1706,0,10,10,10,1,0.8,0.2,0.2,0.8,,,,,,,,,,,,,,,0.2674,,0.8,0.2,0.2,0.8,0.4,0.6,0.6,0.4,,,0.2309,,0.4,0.6,0.2,0.8,0.8,0.2,0.8,0.2,1,0
,,60fc06a551733182cbfee788,66fc995842b801f3398f5640,2024-10-02_02h54.07.671,mdp,2024.2.1,Win32,60.24096386,66fa4ebf79326e780c390304,,,,,,,,,,,,,,,,,,,,,971.1717,971.1717,971.1743,972.0489,0,0,left,0.3467,,972.0508,972.898,1,1,right,972.9016,973.7837,0,0,left,1,973.7838,973.7838,973.786,975.2799,0,11,11,11,1,0.8,0.2,0.2,0.8,,,,,,,,,,,,,,,0.3316,,0.8,0.2,0.2,0.8,0.4,0.6,0.6,0.4,,,0.3761,,0.4,0.6,0.2,0.8,0.8,0.2,0.8,0.2,1,0
,,60fc06a551733182cbfee788,66fc995842b801f3398f5640,2024-10-02_02h54.07.671,mdp,2024.2.1,Win32,60.24096386,66fa4ebf79326e780c390304,,,,,,,,,,,,,,,,,,,,,975.2818,975.2818,975.2844,976.1663,0,0,left,0.3689,,976.1699,977.0003,1,1,right,977.0036,977.8475,0,0,left,1,977.8476,977.8476,977.8489,979.3457,0,12,12,12,1,0.8,0.2,0.2,0.8,,,,,,,,,,,,,,,0.301,,0.8,0.2,0.2,0.8,0.4,0.6,0.6,0.4,,,0.3183,,0.4,0.6,0.2,0.8,0.8,0.2,0.8,0.2,1,0
,,60fc06a551733182cbfee788,66fc995842b801f3398f5640,2024-10-02_02h54.07.671,mdp,2024.2.1,Win32,60.24096386,66fa4ebf79326e780c390304,,,,,,,,,,,,,,,,,,,,,979.3478,979.3478,979.3503,980.8588,0,0,left,0.9905,,980.8632,981.6443,1,1,right,981.6482,982.4437,0,1,left,0,982.4439,982.4439,982.4472,983.9414,0,13,13,13,1,0.8,0.2,0.2,0.8,,,,,,,,,,,,,,,0.2673,,0.8,0.2,0.2,0.8,0.4,0.6,0.6,0.4,,,0.2674,,0.4,0.6,0.2,0.8,0.8,0.2,0.8,0.2,1,0
,,60fc06a551733182cbfee788,66fc995842b801f3398f5640,2024-10-02_02h54.07.671,mdp,2024.2.1,Win32,60.24096386,66fa4ebf79326e780c390304,,,,,,,,,,,,,,,,,,,,,983.9431,983.9431,983.9455,984.8362,0,0,left,0.3625,,984.8393,985.7071,1,1,right,985.7102,986.556,0,0,left,1,986.5561,986.5561,986.5598,988.0529,0,14,14,14,1,0.8,0.2,0.2,0.8,,,,,,,,,,,,,,,0.3538,,0.8,0.2,0.2,0.8,0.4,0.6,0.6,0.4,,,0.3203,,0.4,0.6,0.2,0.8,0.8,0.2,0.8,0.2,1,0
,,60fc06a551733182cbfee788,66fc995842b801f3398f5640,2024-10-02_02h54.07.671,mdp,2024.2.1,Win32,60.24096386,66fa4ebf79326e780c390304,,,,,,,,,,,,,,,,,,,,,988.0547,988.0548,988.0571,988.9327,0,0,left,0.3452,,988.9359,989.7536,1,0,right,989.7565,990.6354,0,0,left,1,990.6358,990.6358,990.6391,992.1268,0,15,15,15,1,0.8,0.2,0.2,0.8,,,,,,,,,,,,,,,0.3102,,0.8,0.2,0.2,0.8,0.4,0.6,0.6,0.4,,,0.3504,,0.4,0.6,0.2,0.8,0.8,0.2,0.8,0.2,1,0
,,60fc06a551733182cbfee788,66fc995842b801f3398f5640,2024-10-02_02h54.07.671,mdp,2024.2.1,Win32,60.24096386,66fa4ebf79326e780c390304,,,,,,,,,,,,,,,,,,,,,992.1278,992.1282,992.1311,992.9999,0,0,left,0.3506,,993.0037,993.7941,1,1,right,993.7965,994.6407,0,0,left,1,994.6407,994.6407,994.643,996.1449,0,16,16,16,1,0.8,0.2,0.2,0.8,,,,,,,,,,,,,,,0.258,,0.8,0.2,0.2,0.8,0.4,0.6,0.6,0.4,,,0.3096,,0.4,0.6,0.2,0.8,0.8,0.2,0.8,0.2,1,0
,,60fc06a551733182cbfee788,66fc995842b801f3398f5640,2024-10-02_02h54.07.671,mdp,2024.2.1,Win32,60.24096386,66fa4ebf79326e780c390304,,,,,,,,,,,,,,,,,,,,,996.1457,996.1457,996.147,997.0045,0,0,left,0.3253,,997.0061,997.8267,1,1,right,997.8284,998.6258,0,0,left,1,998.6258,998.6258,998.6277,1000.1191,0,17,17,17,1,0.8,0.2,0.2,0.8,,,,,,,,,,,,,,,0.3121,,0.2,0.8,0.6,0.4,0.4,0.6,0.6,0.4,,,0.2669,,0.4,0.6,0.2,0.8,0.8,0.2,0.8,0.2,1,0
,,60fc06a551733182cbfee788,66fc995842b801f3398f5640,2024-10-02_02h54.07.671,mdp,2024.2.1,Win32,60.24096386,66fa4ebf79326e780c390304,,,,,,,,,,,,,,,,,,,,,1000.1215,1000.1215,1000.1237,1000.7092,0,0,left,0.0611,,1000.7118,1001.5858,1,0,right,1001.589,1002.4073,0,1,left,0,1002.4077,1002.4077,1002.411,1003.9038,0,18,18,18,1,0.8,0.2,0.2,0.8,,,,,,,,,,,,,,,0.3563,,0.2,0.8,0.6,0.4,0.4,0.6,0.6,0.4,,,0.2835,,0.4,0.6,0.2,0.8,0.8,0.2,0.8,0.2,1,0
,,60fc06a551733182cbfee788,66fc995842b801f3398f5640,2024-10-02_02h54.07.671,mdp,2024.2.1,Win32,60.24096386,66fa4ebf79326e780c390304,,,,,,,,,,,,,,,,,,,,,1003.9056,1003.9056,1003.9083,1004.8331,0,0,left,0.3951,,1004.8355,1005.7035,1,1,right,1005.7068,1006.6032,0,1,left,0,1006.6033,1006.6033,1006.6061,1008.1012,0,19,19,19,1,0.8,0.2,0.2,0.8,,,,,,,,,,,,,,,0.3423,,0.2,0.8,0.6,0.4,0.4,0.6,0.6,0.4,,,0.3667,,0.4,0.6,0.2,0.8,0.8,0.2,0.8,0.2,1,0
,,60fc06a551733182cbfee788,66fc995842b801f3398f5640,2024-10-02_02h54.07.671,mdp,2024.2.1,Win32,60.24096386,66fa4ebf79326e780c390304,,,,,,,,,,,,,,,,,,,,,1008.1031,1008.1031,1008.1057,1008.8681,0,1,left,0.2373,,1008.8717,1009.7002,1,1,right,1009.705,1010.5257,0,0,left,1,1010.5259,1010.5259,1010.5293,1012.014,0,20,20,20,1,0.8,0.2,0.2,0.8,,,,,,,,,,,,,,,0.3005,,0.2,0.8,0.6,0.4,0.4,0.6,0.6,0.4,,,0.2919,,0.4,0.6,0.2,0.8,0.8,0.2,0.8,0.2,1,0
,,60fc06a551733182cbfee788,66fc995842b801f3398f5640,2024-10-02_02h54.07.671,mdp,2024.2.1,Win32,60.24096386,66fa4ebf79326e780c390304,,,,,,,,,,,,,,,,,,,,,1012.0161,1012.0161,1012.0184,1012.8297,0,0,left,0.2925,,1012.8327,1013.6415,1,0,right,1013.6441,1014.5738,0,0,left,1,1014.5739,1014.5739,1014.5765,1016.0763,0,21,21,21,1,0.8,0.2,0.2,0.8,,,,,,,,,,,,,,,0.2777,,0.2,0.8,0.6,0.4,0.4,0.6,0.6,0.4,,,0.3892,,0.4,0.6,0.2,0.8,0.8,0.2,0.8,0.2,1,0
,,60fc06a551733182cbfee788,66fc995842b801f3398f5640,2024-10-02_02h54.07.671,mdp,2024.2.1,Win32,60.24096386,66fa4ebf79326e780c390304,,,,,,,,,,,,,,,,,,,,,1016.0781,1016.0781,1016.0804,1016.9236,0,1,left,0.3162,,1016.9252,1017.7395,1,1,right,1017.7427,1018.6397,0,0,left,1,1018.6399,1018.6399,1018.6416,1020.1391,0,22,22,22,1,0.8,0.2,0.2,0.8,,,,,,,,,,,,,,,0.2975,,0.2,0.8,0.6,0.4,0.4,0.6,0.6,0.4,,,0.3824,,0.4,0.6,0.2,0.8,0.8,0.2,0.8,0.2,1,0
,,60fc06a551733182cbfee788,66fc995842b801f3398f5640,2024-10-02_02h54.07.671,mdp,2024.2.1,Win32,60.24096386,66fa4ebf79326e780c390304,,,,,,,,,,,,,,,,,,,,,1020.141,1020.141,1020.1434,1021.0818,0,0,left,0.4168,,1021.0858,1022.5183,1,1,right,1022.5217,1023.6504,0,0,left,1,1023.6504,1023.6505,1023.6537,1025.1481,0,23,23,23,1,0.8,0.2,0.2,0.8,,,,,,,,,,,,,,,0.9137,,0.2,0.8,0.6,0.4,0.4,0.6,0.6,0.4,,,0.5976,,0.4,0.6,0.2,0.8,0.8,0.2,0.8,0.2,1,0
,,60fc06a551733182cbfee788,66fc995842b801f3398f5640,2024-10-02_02h54.07.671,mdp,2024.2.1,Win32,60.24096386,66fa4ebf79326e780c390304,,,,,,,,,,,,,,,,,,,,,1025.1498,1025.1499,1025.1526,1026.2655,0,0,left,0.5824,,1026.2671,1027.1313,1,0,right,1027.1328,1027.9811,0,0,left,1,1027.9812,1027.9812,1027.9831,1029.4738,0,24,24,24,1,0.8,0.2,0.2,0.8,,,,,,,,,,,,,,,0.3539,,0.2,0.8,0.6,0.4,0.4,0.6,0.6,0.4,,,0.3165,,0.4,0.6,0.2,0.8,0.8,0.2,0.8,0.2,1,0
,,60fc06a551733182cbfee788,66fc995842b801f3398f5640,2024-10-02_02h54.07.671,mdp,2024.2.1,Win32,60.24096386,66fa4ebf79326e780c390304,,,,,,,,,,,,,,,,,,,,,1029.4758,1029.4759,1029.4783,1030.38,0,0,left,0.3855,,1030.383,1031.2291,1,0,right,1031.2325,1032.1585,0,0,left,1,1032.1586,1032.1586,1032.1619,1033.6579,0,25,25,25,1,0.8,0.2,0.2,0.8,,,,,,,,,,,,,,,0.327,,0.2,0.8,0.6,0.4,0.4,0.6,0.6,0.4,,,0.3979,,0.4,0.6,0.2,0.8,0.8,0.2,0.8,0.2,1,0
,,60fc06a551733182cbfee788,66fc995842b801f3398f5640,2024-10-02_02h54.07.671,mdp,2024.2.1,Win32,60.24096386,66fa4ebf79326e780c390304,,,,,,,,,,,,,,,,,,,,,1033.6593,1033.6593,1033.6614,1034.5097,0,0,left,0.3194,,1034.5133,1035.6017,1,1,right,1035.6048,1036.4556,0,1,left,0,1036.4557,1036.4557,1036.4573,1037.955,0,26,26,26,1,0.8,0.2,0.2,0.8,,,,,,,,,,,,,,,0.5554,,0.2,0.8,0.6,0.4,0.4,0.6,0.6,0.4,,,0.3321,,0.4,0.6,0.2,0.8,0.8,0.2,0.8,0.2,1,0
,,60fc06a551733182cbfee788,66fc995842b801f3398f5640,2024-10-02_02h54.07.671,mdp,2024.2.1,Win32,60.24096386,66fa4ebf79326e780c390304,,,,,,,,,,,,,,,,,,,,,1037.9567,1037.9567,1037.9592,1038.9036,0,0,left,0.4158,,1038.9066,1040.3982,1,0,right,1040.4014,1041.1532,0,1,left,0,1041.1533,1041.1533,1041.1554,1042.6547,0,27,27,27,1,0.8,0.2,0.2,0.8,,,,,,,,,,,,,,,0.9598,,0.8,0.2,0.8,0.2,0.4,0.6,0.6,0.4,,,0.2341,,0.4,0.6,0.2,0.8,0.8,0.2,0.8,0.2,1,0
,,60fc06a551733182cbfee788,66fc995842b801f3398f5640,2024-10-02_02h54.07.671,mdp,2024.2.1,Win32,60.24096386,66fa4ebf79326e780c390304,,,,,,,,,,,,,,,,,,,,,1042.6561,1042.6561,1042.6597,1043.6518,1,0,right,0.4771,,1043.6548,1044.4336,0,1,left,1044.4364,1045.8983,0,0,left,1,1045.8984,1045.8984,1045.9013,1047.3958,0,28,28,28,1,0.8,0.2,0.2,0.8,,,,,,,,,,,,,,,0.2509,,0.8,0.2,0.8,0.2,0.4,0.6,0.6,0.4,,,0.9333,,0.4,0.6,0.2,0.8,0.8,0.2,0.8,0.2,1,0
,,60fc06a551733182cbfee788,66fc995842b801f3398f5640,2024-10-02_02h54.07.671,mdp,2024.2.1,Win32,60.24096386,66fa4ebf79326e780c390304,,,,,,,,,,,,,,,,,,,,,1047.3976,1047.3977,1047.4003,1048.2558,0,0,left,0.3348,,1048.2594,1049.0283,1,0,right,1049.0321,1049.9054,0,0,left,1,1049.9055,1049.9055,1049.9083,1051.4079,0,29,29,29,1,0.8,0.2,0.2,0.8,,,,,,,,,,,,,,,0.2367,,0.8,0.2,0.8,0.2,0.4,0.6,0.6,0.4,,,0.3437,,0.4,0.6,0.2,0.8,0.8,0.2,0.8,0.2,1,0
,,60fc06a551733182cbfee788,66fc995842b801f3398f5640,2024-10-02_02h54.07.671,mdp,2024.2.1,Win32,60.24096386,66fa4ebf79326e780c390304,,,,,,,,,,,,,,,,,,,,,1051.4096,1051.4096,1051.4113,1052.2584,0,0,left,0.3185,,1052.262,1053.1064,1,0,right,1053.1082,1053.8854,0,1,left,0,1053.8855,1053.8855,1053.8881,1055.3892,0,30,30,30,1,0.8,0.2,0.2,0.8,,,,,,,,,,,,,,,0.3254,,0.8,0.2,0.8,0.2,0.4,0.6,0.6,0.4,,,0.2564,,0.4,0.6,0.2,0.8,0.8,0.2,0.8,0.2,1,0
,,60fc06a551733182cbfee788,66fc995842b801f3398f5640,2024-10-02_02h54.07.671,mdp,2024.2.1,Win32,60.24096386,66fa4ebf79326e780c390304,,,,,,,,,,,,,,,,,,,,,1055.3911,1055.3912,1055.394,1056.421,0,0,left,0.5016,,1056.4242,1057.2305,1,0,right,1057.2339,1058.1015,0,1,left,0,1058.1016,1058.1016,1058.1035,1059.6007,0,31,31,31,1,0.8,0.2,0.2,0.8,,,,,,,,,,,,,,,0.2842,,0.8,0.2,0.8,0.2,0.4,0.6,0.6,0.4,,,0.3589,,0.4,0.6,0.2,0.8,0.8,0.2,0.8,0.2,1,0
,,60fc06a551733182cbfee788,66fc995842b801f3398f5640,2024-10-02_02h54.07.671,mdp,2024.2.1,Win32,60.24096386,66fa4ebf79326e780c390304,,,,,,,,,,,,,,,,,,,,,1059.6016,1059.6017,1059.6049,1060.4498,0,0,left,0.3193,,1060.454,1061.2983,1,1,right,1061.302,1062.3933,0,0,left,1,1062.3935,1062.3935,1062.3965,1063.8896,0,32,32,32,1,0.8,0.2,0.2,0.8,,,,,,,,,,,,,,,0.316,,0.8,0.2,0.8,0.2,0.4,0.6,0.6,0.4,,,0.5594,,0.4,0.6,0.2,0.8,0.8,0.2,0.8,0.2,1,0
,,60fc06a551733182cbfee788,66fc995842b801f3398f5640,2024-10-02_02h54.07.671,mdp,2024.2.1,Win32,60.24096386,66fa4ebf79326e780c390304,,,,,,,,,,,,,,,,,,,,,1063.8907,1063.8907,1063.8933,1064.7132,0,1,left,0.2966,,1064.7164,1065.4925,1,0,right,1065.4941,1066.5267,0,1,left,0,1066.5271,1066.5272,1066.5303,1068.0256,0,33,33,33,1,0.8,0.2,0.2,0.8,,,,,,,,,,,,,,,0.2478,,0.8,0.2,0.8,0.2,0.4,0.6,0.6,0.4,,,0.5162,,0.4,0.6,0.2,0.8,0.8,0.2,0.8,0.2,1,0
,,60fc06a551733182cbfee788,66fc995842b801f3398f5640,2024-10-02_02h54.07.671,mdp,2024.2.1,Win32,60.24096386,66fa4ebf79326e780c390304,,,,,,,,,,,,,,,,,,,,,1068.0273,1068.0273,1068.03,1068.9071,0,0,left,0.3492,,1068.9089,1069.9217,1,1,right,1069.9232,1070.6906,0,0,left,1,1070.6912,1070.6912,1070.6943,1072.1806,0,34,34,34,1,0.8,0.2,0.2,0.8,,,,,,,,,,,,,,,0.4813,,0.8,0.2,0.8,0.2,0.4,0.6,0.6,0.4,,,0.2508,,0.4,0.6,0.2,0.8,0.8,0.2,0.8,0.2,1,0
,,60fc06a551733182cbfee788,66fc995842b801f3398f5640,2024-10-02_02h54.07.671,mdp,2024.2.1,Win32,60.24096386,66fa4ebf79326e780c390304,,,,,,,,,,,,,,,,,,,,,1072.1818,1072.1818,1072.1832,1073.2709,0,0,left,0.5662,,1073.274,1074.0705,1,0,right,1074.0739,1074.9378,0,1,left,0,1074.9379,1074.9379,1074.9406,1076.433,0,35,35,35,1,0.8,0.2,0.2,0.8,,,,,,,,,,,,,,,0.2767,,0.8,0.2,0.8,0.2,0.4,0.6,0.6,0.4,,,0.3347,,0.4,0.6,0.2,0.8,0.8,0.2,0.8,0.2,1,0
,,60fc06a551733182cbfee788,66fc995842b801f3398f5640,2024-10-02_02h54.07.671,mdp,2024.2.1,Win32,60.24096386,66fa4ebf79326e780c390304,,,,,,,,,,,,,,,,,,,,,1076.4347,1076.4347,1076.4373,1077.3158,0,0,left,0.3494,,1077.3176,1078.1168,1,0,right,1078.1199,1078.9148,0,0,left,1,1078.9148,1078.9148,1078.917,1080.4072,0,36,36,36,1,0.8,0.2,0.2,0.8,,,,,,,,,,,,,,,0.2674,,0.8,0.2,0.8,0.2,0.4,0.6,0.6,0.4,,,0.2666,,0.8,0.2,0.4,0.6,0.8,0.2,0.8,0.2,1,0
,,60fc06a551733182cbfee788,66fc995842b801f3398f5640,2024-10-02_02h54.07.671,mdp,2024.2.1,Win32,60.24096386,66fa4ebf79326e780c390304,,,,,,,,,,,,,,,,,,,,,1080.4094,1080.4095,1080.4117,1081.2652,0,0,left,0.3358,,1081.2668,1082.2597,1,0,right,1082.2626,1083.1785,0,0,left,1,1083.1787,1083.1787,1083.1821,1084.6763,0,37,37,37,1,0.8,0.2,0.2,0.8,,,,,,,,,,,,,,,0.4643,,0.8,0.2,0.8,0.2,0.4,0.6,0.6,0.4,,,0.3852,,0.8,0.2,0.4,0.6,0.8,0.2,0.8,0.2,1,0
,,60fc06a551733182cbfee788,66fc995842b801f3398f5640,2024-10-02_02h54.07.671,mdp,2024.2.1,Win32,60.24096386,66fa4ebf79326e780c390304,,,,,,,,,,,,,,,,,,,,,1084.6781,1084.6782,1084.6808,1085.5282,0,0,left,0.3188,,1085.5307,1086.3586,1,1,right,1086.3621,1087.4078,0,0,left,1,1087.408,1087.408,1087.4114,1088.9041,0,38,38,38,1,0.8,0.2,0.2,0.8,,,,,,,,,,,,,,,0.3001,,0.8,0.2,0.8,0.2,0.4,0.6,0.6,0.4,,,0.5174,,0.8,0.2,0.4,0.6,0.8,0.2,0.8,0.2,1,0
,,60fc06a551733182cbfee788,66fc995842b801f3398f5640,2024-10-02_02h54.07.671,mdp,2024.2.1,Win32,60.24096386,66fa4ebf79326e780c390304,,,,,,,,,,,,,,,,,,,,,1088.9048,1088.9048,1088.9063,1089.6563,0,0,left,0.2181,,1089.6594,1091.3518,0,0,left,1091.3535,1092.1177,1,1,right,0,1092.1177,1092.1177,1092.1193,1093.6159,0,39,39,39,1,0.8,0.2,0.2,0.8,,,,,,,,,,,,,,,1.1803,,0.8,0.2,0.8,0.2,0.4,0.6,0.6,0.4,,,0.2329,,0.8,0.2,0.4,0.6,0.8,0.2,0.8,0.2,1,0
,,60fc06a551733182cbfee788,66fc995842b801f3398f5640,2024-10-02_02h54.07.671,mdp,2024.2.1,Win32,60.24096386,66fa4ebf79326e780c390304,,,,,,,,,,,,,,,,,,,,,1093.6168,1093.6168,1093.6181,1094.4258,0,1,left,0.273,,1094.4274,1095.2428,1,0,right,1095.2471,1096.2157,0,1,left,0,1096.216,1096.216,1096.2194,1097.7069,0,40,40,40,1,0.8,0.2,0.2,0.8,,,,,,,,,,,,,,,0.2905,,0.8,0.2,0.8,0.2,0.4,0.6,0.6,0.4,,,0.4603,,0.8,0.2,0.4,0.6,0.8,0.2,0.8,0.2,1,0
,,60fc06a551733182cbfee788,66fc995842b801f3398f5640,2024-10-02_02h54.07.671,mdp,2024.2.1,Win32,60.24096386,66fa4ebf79326e780c390304,,,,,,,,,,,,,,,,,,,,,1097.7097,1097.7097,1097.7117,1098.38,0,0,left,0.1354,,1098.3836,1099.039,0,1,left,1099.0416,1100.1201,0,0,left,1,1100.1202,1100.1202,1100.1217,1101.6195,0,41,41,41,1,0.8,0.2,0.2,0.8,,,,,,,,,,,,,,,0.1253,,0.8,0.2,0.8,0.2,0.4,0.6,0.6,0.4,,,0.5451,,0.8,0.2,0.4,0.6,0.8,0.2,0.8,0.2,1,0
,,60fc06a551733182cbfee788,66fc995842b801f3398f5640,2024-10-02_02h54.07.671,mdp,2024.2.1,Win32,60.24096386,66fa4ebf79326e780c390304,,,,,,,,,,,,,,,,,,,,,1101.6216,1101.6216,1101.6237,1102.5025,0,0,left,0.3529,,1102.5058,1103.2527,0,0,left,1103.2552,1104.1344,0,0,left,1,1104.1347,1104.1347,1104.1376,1105.6327,0,42,42,42,1,0.8,0.2,0.2,0.8,,,,,,,,,,,,,,,0.217,,0.8,0.2,0.8,0.2,0.4,0.6,0.6,0.4,,,0.3439,,0.8,0.2,0.4,0.6,0.2,0.8,0.6,0.4,1,0
,,60fc06a551733182cbfee788,66fc995842b801f3398f5640,2024-10-02_02h54.07.671,mdp,2024.2.1,Win32,60.24096386,66fa4ebf79326e780c390304,,,,,,,,,,,,,,,,,,,,,1105.6351,1105.6351,1105.6372,1106.6042,0,1,left,0.4597,,1106.6082,1107.4554,0,1,left,1107.4585,1108.2704,0,1,left,0,1108.2705,1108.2705,1108.2745,1109.7617,0,43,43,43,1,0.8,0.2,0.2,0.8,,,,,,,,,,,,,,,0.3173,,0.8,0.2,0.8,0.2,0.4,0.6,0.6,0.4,,,0.2833,,0.8,0.2,0.4,0.6,0.2,0.8,0.6,0.4,1,0
,,60fc06a551733182cbfee788,66fc995842b801f3398f5640,2024-10-02_02h54.07.671,mdp,2024.2.1,Win32,60.24096386,66fa4ebf79326e780c390304,,,,,,,,,,,,,,,,,,,,,1109.7632,1109.7632,1109.7656,1110.801,0,1,left,0.5095,,1110.8045,1111.6338,1,0,right,1111.6371,1112.5328,1,0,right,1,1112.533,1112.533,1112.5361,1114.0296,0,44,44,44,1,0.8,0.2,0.2,0.8,,,,,,,,,,,,,,,0.3005,,0.8,0.2,0.8,0.2,0.4,0.6,0.6,0.4,,,0.3671,,0.8,0.2,0.4,0.6,0.2,0.8,0.6,0.4,1,0
,,60fc06a551733182cbfee788,66fc995842b801f3398f5640,2024-10-02_02h54.07.671,mdp,2024.2.1,Win32,60.24096386,66fa4ebf79326e780c390304,,,,,,,,,,,,,,,,,,,,,1114.0313,1114.0313,1114.0339,1114.8905,0,0,left,0.325,,1114.8942,1115.8297,0,0,left,1115.8329,1116.5952,1,0,right,1,1116.596,1116.596,1116.599,1118.0866,0,45,45,45,1,0.8,0.2,0.2,0.8,,,,,,,,,,,,,,,0.4171,,0.8,0.2,0.8,0.2,0.4,0.6,0.6,0.4,,,0.2458,,0.8,0.2,0.4,0.6,0.2,0.8,0.6,0.4,1,0
,,60fc06a551733182cbfee788,66fc995842b801f3398f5640,2024-10-02_02h54.07.671,mdp,2024.2.1,Win32,60.24096386,66fa4ebf79326e780c390304,,,,,,,,,,,,,,,,,,,,,1118.089,1118.089,1118.0913,1118.9429,0,0,left,0.3165,,1118.9455,1119.9546,1,0,right,1119.9563,1120.7231,1,1,right,0,1120.7231,1120.7231,1120.725,1122.2162,0,46,46,46,1,0.8,0.2,0.2,0.8,,,,,,,,,,,,,,,0.4807,,0.8,0.2,0.8,0.2,0.4,0.6,0.6,0.4,,,0.2336,,0.8,0.2,0.4,0.6,0.2,0.8,0.6,0.4,1,0
,,60fc06a551733182cbfee788,66fc995842b801f3398f5640,2024-10-02_02h54.07.671,mdp,2024.2.1,Win32,60.24096386,66fa4ebf79326e780c390304,,,,,,,,,,,,,,,,,,,,,1122.2191,1122.2191,1122.2211,1123.1202,0,0,left,0.3665,,1123.1233,1124.1482,1,0,right,1124.1506,1124.921,0,0,left,1,1124.9211,1124.9211,1124.9242,1126.4185,0,47,47,47,1,0.8,0.2,0.2,0.8,,,,,,,,,,,,,,,0.4926,,0.8,0.2,0.8,0.2,0.4,0.6,0.6,0.4,,,0.2356,,0.8,0.2,0.4,0.6,0.2,0.8,0.6,0.4,1,0
,,60fc06a551733182cbfee788,66fc995842b801f3398f5640,2024-10-02_02h54.07.671,mdp,2024.2.1,Win32,60.24096386,66fa4ebf79326e780c390304,,,,,,,,,,,,,,,,,,,,,1126.4203,1126.4203,1126.4228,1127.0854,0,0,left,0.1358,,1127.0884,1127.9192,1,0,right,1127.9217,1129.1334,0,0,left,1,1129.1335,1129.1335,1129.1369,1130.6251,0,48,48,48,1,0.8,0.2,0.2,0.8,,,,,,,,,,,,,,,0.303,,0.8,0.2,0.8,0.2,0.4,0.6,0.6,0.4,,,0.6852,,0.8,0.2,0.4,0.6,0.2,0.8,0.6,0.4,1,0
,,60fc06a551733182cbfee788,66fc995842b801f3398f5640,2024-10-02_02h54.07.671,mdp,2024.2.1,Win32,60.24096386,66fa4ebf79326e780c390304,,,,,,,,,,,,,,,,,,,,,1130.6267,1130.6268,1130.629,1138.3077,0,0,left,7.1619,,1138.3336,1139.0556,0,0,left,1139.0587,1139.805,0,0,left,1,1139.8051,1139.8051,1139.8087,1141.3041,0,49,49,49,1,0.8,0.2,0.2,0.8,,,,,,,,,,,,,,,0.219,,0.8,0.2,0.8,0.2,0.4,0.6,0.6,0.4,,,0.2182,,0.8,0.2,0.4,0.6,0.2,0.8,0.6,0.4,1,0
,,60fc06a551733182cbfee788,66fc995842b801f3398f5640,2024-10-02_02h54.07.671,mdp,2024.2.1,Win32,60.24096386,66fa4ebf79326e780c390304,,,,,,,,,,,,,,,,,,,,,,,,,,,,,,,,,,,,,,,,,,,,,,,,,,,,,,,,1141.3044,1199.8065,0,3,3,1,1,imgs/lion.png,imgs/dog.png,imgs/elephant.png,imgs/giraffe.png,imgs/kangaroo.png,,,,,,,,,,,,,,,,,,,,,,,,
,,60fc06a551733182cbfee788,66fc995842b801f3398f5640,2024-10-02_02h54.07.671,mdp,2024.2.1,Win32,60.24096386,66fa4ebf79326e780c390304,,,,,,,,,,,,,,1,seqs/st1seq29.csv,1199.8205,1206.4537,space,6.1056,,1206.4767,1206.4768,1206.4778,1207.9825,0,1,left,0.982,,1207.9862,1207.9878,0,1,,1207.9897,1207.9918,0,0,,0,1207.9919,1207.9919,1207.9934,1209.481,0,0,0,0,1,0.4,0.6,0.6,0.4,1,0,,,,,,,,,,,,,,,,,,,,,,,,,,,,,,,,,,,,
,,60fc06a551733182cbfee788,66fc995842b801f3398f5640,2024-10-02_02h54.07.671,mdp,2024.2.1,Win32,60.24096386,66fa4ebf79326e780c390304,,,,,,,,,,,,,,,,,,,,,1209.4829,1209.483,1209.4854,1210.5965,1,1,right,0.5878,,1210.5998,1210.6013,0,0,,1210.6037,1210.6051,0,1,,0,1210.6052,1210.6052,1210.6066,1212.0948,0,1,1,1,1,0.4,0.6,0.6,0.4,1,0,,,,,,,,,,,,,,,,,,,,,,,,,,,,,,,,,,,,
,,60fc06a551733182cbfee788,66fc995842b801f3398f5640,2024-10-02_02h54.07.671,mdp,2024.2.1,Win32,60.24096386,66fa4ebf79326e780c390304,,,,,,,,,,,,,,,,,,,,,1212.0966,1212.0966,1212.099,1212.9444,0,0,left,0.3172,,1212.9478,1212.9498,0,1,,1212.9513,1212.9526,0,1,,1,1212.9528,1212.9528,1212.954,1214.4426,0,2,2,2,1,0.4,0.6,0.6,0.4,1,0,,,,,,,,,,,,,,,,,,,,,,,,,,,,,,,,,,,,
,,60fc06a551733182cbfee788,66fc995842b801f3398f5640,2024-10-02_02h54.07.671,mdp,2024.2.1,Win32,60.24096386,66fa4ebf79326e780c390304,,,,,,,,,,,,,,,,,,,,,1214.4445,1214.4445,1214.4468,1215.3751,0,1,left,0.401,,1215.3784,1215.3798,0,1,,1215.3817,1215.3835,0,1,,0,1215.3835,1215.3836,1215.3849,1216.8787,0,3,3,3,1,0.2,0.8,0.8,0.2,1,0,,,,,,,,,,,,,,,,,,,,,,,,,,,,,,,,,,,,
,,60fc06a551733182cbfee788,66fc995842b801f3398f5640,2024-10-02_02h54.07.671,mdp,2024.2.1,Win32,60.24096386,66fa4ebf79326e780c390304,,,,,,,,,,,,,,,,,,,,,1216.8801,1216.8801,1216.8825,1217.6842,0,1,left,0.2738,,1217.6861,1217.6882,0,1,,1217.691,1217.6925,0,1,,0,1217.6926,1217.6926,1217.6938,1219.1892,0,4,4,4,1,0.2,0.8,0.8,0.2,1,0,,,,,,,,,,,,,,,,,,,,,,,,,,,,,,,,,,,,
,,60fc06a551733182cbfee788,66fc995842b801f3398f5640,2024-10-02_02h54.07.671,mdp,2024.2.1,Win32,60.24096386,66fa4ebf79326e780c390304,,,,,,,,,,,,,,,,,,,,,1219.1899,1219.1899,1219.1925,1219.9735,1,0,right,0.2601,,1219.9761,1219.9776,0,0,,1219.9792,1219.9804,0,0,,1,1219.9805,1219.9805,1219.9817,1221.4706,0,5,5,5,1,0.6,0.4,0.2,0.8,1,0,,,,,,,,,,,,,,,,,,,,,,,,,,,,,,,,,,,,
,,60fc06a551733182cbfee788,66fc995842b801f3398f5640,2024-10-02_02h54.07.671,mdp,2024.2.1,Win32,60.24096386,66fa4ebf79326e780c390304,,,,,,,,,,,,,,,,,,,,,1221.4712,1221.4712,1221.4737,1222.3193,1,1,right,0.3181,,1222.3219,1222.3234,0,1,,1222.325,1222.3263,0,1,,0,1222.3264,1222.3264,1222.3276,1223.818,0,6,6,6,1,0.6,0.4,0.2,0.8,1,0,,,,,,,,,,,,,,,,,,,,,,,,,,,,,,,,,,,,
,,60fc06a551733182cbfee788,66fc995842b801f3398f5640,2024-10-02_02h54.07.671,mdp,2024.2.1,Win32,60.24096386,66fa4ebf79326e780c390304,,,,,,,,,,,,,,,,,,,,,1223.8188,1223.8188,1223.8214,1224.6673,0,0,left,0.321,,1224.6701,1224.6714,0,0,,1224.6729,1224.6741,0,1,,1,1224.6741,1224.6741,1224.6754,1226.1661,0,7,7,7,1,0.6,0.4,0.2,0.8,1,0,,,,,,,,,,,,,,,,,,,,,,,,,,,,,,,,,,,,
,,60fc06a551733182cbfee788,66fc995842b801f3398f5640,2024-10-02_02h54.07.671,mdp,2024.2.1,Win32,60.24096386,66fa4ebf79326e780c390304,,,,,,,,,,,,,,,,,,,,,1226.1667,1226.1667,1226.1693,1227.1303,0,0,left,0.4326,,1227.1313,1227.1323,0,0,,1227.1337,1227.1346,0,0,,1,1227.1346,1227.1346,1227.1355,1228.6301,0,8,8,8,1,0.8,0.2,0.8,0.2,1,0,,,,,,,,,,,,,,,,,,,,,,,,,,,,,,,,,,,,
,,60fc06a551733182cbfee788,66fc995842b801f3398f5640,2024-10-02_02h54.07.671,mdp,2024.2.1,Win32,60.24096386,66fa4ebf79326e780c390304,,,,,,,,,,,,,,,,,,,,,1228.6308,1228.6308,1228.6336,1229.5297,0,0,left,0.3705,,1229.5322,1229.5332,0,1,,1229.5344,1229.5357,0,0,,1,1229.5357,1229.5357,1229.5372,1231.0256,0,9,9,9,1,0.6,0.4,0.4,0.6,1,0,,,,,,,,,,,,,,,,,,,,,,,,,,,,,,,,,,,,
,,60fc06a551733182cbfee788,66fc995842b801f3398f5640,2024-10-02_02h54.07.671,mdp,2024.2.1,Win32,60.24096386,66fa4ebf79326e780c390304,,,,,,,,,,,,,,,,,,,,,1231.026,1231.026,1231.027,1232.0105,0,1,left,0.4696,,1232.0131,1232.0146,0,1,,1232.0161,1232.0172,0,1,,0,1232.0173,1232.0173,1232.0185,1233.5085,0,10,10,10,1,0.2,0.8,0.8,0.2,1,0,,,,,,,,,,,,,,,,,,,,,,,,,,,,,,,,,,,,
,,60fc06a551733182cbfee788,66fc995842b801f3398f5640,2024-10-02_02h54.07.671,mdp,2024.2.1,Win32,60.24096386,66fa4ebf79326e780c390304,,,,,,,,,,,,,,,,,,,,,1233.5092,1233.5093,1233.512,1234.5917,0,1,left,0.5518,,1234.5942,1234.5955,0,1,,1234.5971,1234.5984,0,0,,0,1234.5985,1234.5985,1234.5998,1236.0898,0,11,11,11,1,0.2,0.8,0.8,0.2,1,0,,,,,,,,,,,,,,,,,,,,,,,,,,,,,,,,,,,,
,,60fc06a551733182cbfee788,66fc995842b801f3398f5640,2024-10-02_02h54.07.671,mdp,2024.2.1,Win32,60.24096386,66fa4ebf79326e780c390304,,,,,,,,,,,,,,,,,,,,,1236.0904,1236.0905,1236.0931,1237.0723,0,1,left,0.4511,,1237.0746,1237.0761,0,1,,1237.0776,1237.0788,0,1,,0,1237.0789,1237.0789,1237.08,1238.5702,0,12,12,12,1,0.2,0.8,0.8,0.2,1,0,,,,,,,,,,,,,,,,,,,,,,,,,,,,,,,,,,,,
,,60fc06a551733182cbfee788,66fc995842b801f3398f5640,2024-10-02_02h54.07.671,mdp,2024.2.1,Win32,60.24096386,66fa4ebf79326e780c390304,,,,,,,,,,,,,,,,,,,,,1238.5709,1238.5709,1238.5737,1239.7696,0,0,left,0.6704,,1239.7733,1239.7748,0,1,,1239.7762,1239.7772,0,1,,1,1239.7772,1239.7772,1239.7782,1241.2672,0,13,13,13,1,0.2,0.8,0.8,0.2,1,0,,,,,,,,,,,,,,,,,,,,,,,,,,,,,,,,,,,,
,,60fc06a551733182cbfee788,66fc995842b801f3398f5640,2024-10-02_02h54.07.671,mdp,2024.2.1,Win32,60.24096386,66fa4ebf79326e780c390304,,,,,,,,,,,,,,,,,,,,,1241.2679,1241.2679,1241.2703,1244.3314,0,1,left,2.5368,,1244.3526,1244.3535,0,0,,1244.3544,1244.3551,0,0,,0,1244.3551,1244.3552,1244.3557,1245.8453,0,14,14,14,1,0.8,0.2,0.6,0.4,1,0,,,,,,,,,,,,,,,,,,,,,,,,,,,,,,,,,,,,
,,60fc06a551733182cbfee788,66fc995842b801f3398f5640,2024-10-02_02h54.07.671,mdp,2024.2.1,Win32,60.24096386,66fa4ebf79326e780c390304,,,,,,,,,,,,,,,,,,,,,1245.8462,1245.8462,1245.849,1246.7288,0,0,left,0.3522,,1246.7312,1246.7325,0,0,,1246.7345,1246.7356,0,0,,1,1246.7356,1246.7356,1246.7366,1248.226,0,15,15,15,1,0.8,0.2,0.6,0.4,1,0,,,,,,,,,,,,,,,,,,,,,,,,,,,,,,,,,,,,
,,60fc06a551733182cbfee788,66fc995842b801f3398f5640,2024-10-02_02h54.07.671,mdp,2024.2.1,Win32,60.24096386,66fa4ebf79326e780c390304,,,,,,,,,,,,,,,,,,,,,1248.228,1248.228,1248.2303,1249.0254,0,0,left,0.2674,,1249.0283,1249.0304,0,0,,1249.0321,1249.0334,0,0,,1,1249.0334,1249.0334,1249.0346,1250.524,0,16,16,16,1,0.8,0.2,0.6,0.4,1,0,,,,,,,,,,,,,,,,,,,,,,,,,,,,,,,,,,,,
,,60fc06a551733182cbfee788,66fc995842b801f3398f5640,2024-10-02_02h54.07.671,mdp,2024.2.1,Win32,60.24096386,66fa4ebf79326e780c390304,,,,,,,,,,,,,,,,,,,,,1250.5247,1250.5248,1250.5275,1251.3242,0,0,left,0.2678,,1251.3274,1251.3292,0,1,,1251.331,1251.3323,0,0,,1,1251.3323,1251.3323,1251.3335,1252.8208,0,17,17,17,1,0.8,0.2,0.6,0.4,1,0,,,,,,,,,,,,,,,,,,,,,,,,,,,,,,,,,,,,
,,60fc06a551733182cbfee788,66fc995842b801f3398f5640,2024-10-02_02h54.07.671,mdp,2024.2.1,Win32,60.24096386,66fa4ebf79326e780c390304,,,,,,,,,,,,,,,,,,,,,1252.8216,1252.8216,1252.8226,1253.6386,0,0,left,0.2843,,1253.6416,1253.6436,0,0,,1253.6451,1253.6464,0,1,,1,1253.6464,1253.6464,1253.6475,1255.136,0,18,18,18,1,0.6,0.4,0.8,0.2,1,0,,,,,,,,,,,,,,,,,,,,,,,,,,,,,,,,,,,,
,,60fc06a551733182cbfee788,66fc995842b801f3398f5640,2024-10-02_02h54.07.671,mdp,2024.2.1,Win32,60.24096386,66fa4ebf79326e780c390304,,,,,,,,,,,,,,,,,,,,,1255.1379,1255.1379,1255.1401,1257.9503,0,0,left,2.2851,,1257.9532,1257.9552,0,1,,1257.9569,1257.9581,0,0,,1,1257.9582,1257.9582,1257.9594,1259.4484,0,19,19,19,1,0.6,0.4,0.8,0.2,1,0,,,,,,,,,,,,,,,,,,,,,,,,,,,,,,,,,,,,
,,60fc06a551733182cbfee788,66fc995842b801f3398f5640,2024-10-02_02h54.07.671,mdp,2024.2.1,Win32,60.24096386,66fa4ebf79326e780c390304,,,,,,,,,,,,,,,,,,,,,1259.45,1259.45,1259.4525,1260.2644,0,1,left,0.2892,,1260.2666,1260.2678,0,0,,1260.2689,1260.2697,0,0,,0,1260.2697,1260.2697,1260.271,1261.7634,0,20,20,20,1,0.6,0.4,0.8,0.2,1,0,,,,,,,,,,,,,,,,,,,,,,,,,,,,,,,,,,,,
,,60fc06a551733182cbfee788,66fc995842b801f3398f5640,2024-10-02_02h54.07.671,mdp,2024.2.1,Win32,60.24096386,66fa4ebf79326e780c390304,,,,,,,,,,,,,,,,,,,,,1261.7642,1261.7642,1261.7667,1263.1951,0,0,left,0.9063,,1263.1981,1263.1999,0,0,,1263.2019,1263.2031,0,1,,1,1263.2032,1263.2032,1263.2044,1264.6935,0,21,21,21,1,0.8,0.2,0.6,0.4,1,0,,,,,,,,,,,,,,,,,,,,,,,,,,,,,,,,,,,,
,,60fc06a551733182cbfee788,66fc995842b801f3398f5640,2024-10-02_02h54.07.671,mdp,2024.2.1,Win32,60.24096386,66fa4ebf79326e780c390304,,,,,,,,,,,,,,,,,,,,,1264.6943,1264.6943,1264.6973,1265.5269,0,1,left,0.3071,,1265.5304,1265.5318,0,1,,1265.534,1265.5353,0,0,,0,1265.5353,1265.5353,1265.5365,1267.0242,0,22,22,22,1,0.8,0.2,0.6,0.4,1,0,,,,,,,,,,,,,,,,,,,,,,,,,,,,,,,,,,,,
,,60fc06a551733182cbfee788,66fc995842b801f3398f5640,2024-10-02_02h54.07.671,mdp,2024.2.1,Win32,60.24096386,66fa4ebf79326e780c390304,,,,,,,,,,,,,,,,,,,,,1267.025,1267.025,1267.0276,1267.8074,0,0,left,0.2419,,1267.8109,1267.8126,0,0,,1267.8138,1267.8146,0,0,,1,1267.8146,1267.8146,1267.8155,1269.3118,0,23,23,23,1,0.8,0.2,0.6,0.4,1,0,,,,,,,,,,,,,,,,,,,,,,,,,,,,,,,,,,,,
,,60fc06a551733182cbfee788,66fc995842b801f3398f5640,2024-10-02_02h54.07.671,mdp,2024.2.1,Win32,60.24096386,66fa4ebf79326e780c390304,,,,,,,,,,,,,,,,,,,,,1269.3135,1269.3135,1269.316,1271.1608,0,1,left,1.3153,,1271.1638,1271.1653,0,0,,1271.1668,1271.1686,0,0,,0,1271.1686,1271.1687,1271.171,1272.6738,0,24,24,24,1,0.8,0.2,0.6,0.4,1,0,,,,,,,,,,,,,,,,,,,,,,,,,,,,,,,,,,,,
,,60fc06a551733182cbfee788,66fc995842b801f3398f5640,2024-10-02_02h54.07.671,mdp,2024.2.1,Win32,60.24096386,66fa4ebf79326e780c390304,,,,,,,,,,,,,,,,,,,,,1272.6747,1272.6747,1272.6759,1273.5085,0,0,left,0.3019,,1273.5121,1273.5134,0,0,,1273.5148,1273.5168,0,0,,1,1273.5169,1273.5169,1273.5193,1275.0227,0,25,25,25,1,0.8,0.2,0.6,0.4,1,0,,,,,,,,,,,,,,,,,,,,,,,,,,,,,,,,,,,,
,,60fc06a551733182cbfee788,66fc995842b801f3398f5640,2024-10-02_02h54.07.671,mdp,2024.2.1,Win32,60.24096386,66fa4ebf79326e780c390304,,,,,,,,,,,,,,,,,,,,,1275.0235,1275.0236,1275.0265,1275.8734,0,0,left,0.3169,,1275.8775,1275.8789,0,1,,1275.8816,1275.8832,0,0,,1,1275.8833,1275.8833,1275.8852,1277.3878,0,26,26,26,1,0.6,0.4,0.4,0.6,1,0,,,,,,,,,,,,,,,,,,,,,,,,,,,,,,,,,,,,
,,60fc06a551733182cbfee788,66fc995842b801f3398f5640,2024-10-02_02h54.07.671,mdp,2024.2.1,Win32,60.24096386,66fa4ebf79326e780c390304,,,,,,,,,,,,,,,,,,,,,1277.3895,1277.3895,1277.3918,1278.2191,0,1,left,0.2999,,1278.2212,1278.2219,0,0,,1278.2227,1278.2232,0,1,,0,1278.2232,1278.2232,1278.2238,1279.7184,0,27,27,27,1,0.6,0.4,0.4,0.6,1,0,,,,,,,,,,,,,,,,,,,,,,,,,,,,,,,,,,,,
,,60fc06a551733182cbfee788,66fc995842b801f3398f5640,2024-10-02_02h54.07.671,mdp,2024.2.1,Win32,60.24096386,66fa4ebf79326e780c390304,,,,,,,,,,,,,,,,,,,,,1279.7193,1279.7194,1279.7225,1280.5631,0,0,left,0.3134,,1280.5663,1280.5676,0,1,,1280.569,1280.5702,0,0,,1,1280.5703,1280.5703,1280.5715,1282.0604,0,28,28,28,1,0.6,0.4,0.4,0.6,1,0,,,,,,,,,,,,,,,,,,,,,,,,,,,,,,,,,,,,
,,60fc06a551733182cbfee788,66fc995842b801f3398f5640,2024-10-02_02h54.07.671,mdp,2024.2.1,Win32,60.24096386,66fa4ebf79326e780c390304,,,,,,,,,,,,,,,,,,,,,1282.0628,1282.0628,1282.0647,1282.96,0,1,left,0.3584,,1282.9634,1282.9648,0,0,,1282.9663,1282.968,0,0,,0,1282.9681,1282.9681,1282.9696,1284.4578,0,29,29,29,1,0.6,0.4,0.4,0.6,1,0,,,,,,,,,,,,,,,,,,,,,,,,,,,,,,,,,,,,
,,60fc06a551733182cbfee788,66fc995842b801f3398f5640,2024-10-02_02h54.07.671,mdp,2024.2.1,Win32,60.24096386,66fa4ebf79326e780c390304,,,,,,,,,,,,,,,,,,,,,1284.4601,1284.4601,1284.4621,1285.297,0,0,left,0.3023,,1285.3,1285.3013,0,0,,1285.3028,1285.3044,0,0,,1,1285.3045,1285.3046,1285.307,1286.7935,0,30,30,30,1,0.6,0.4,0.4,0.6,1,0,,,,,,,,,,,,,,,,,,,,,,,,,,,,,,,,,,,,
,,60fc06a551733182cbfee788,66fc995842b801f3398f5640,2024-10-02_02h54.07.671,mdp,2024.2.1,Win32,60.24096386,66fa4ebf79326e780c390304,,,,,,,,,,,,,,,,,,,,,1286.7944,1286.7944,1286.7977,1287.7947,0,0,left,0.4667,,1287.7987,1287.8,0,0,,1287.8014,1287.8043,0,0,,1,1287.8044,1287.8045,1287.8065,1289.309,0,31,31,31,1,0.6,0.4,0.4,0.6,1,0,,,,,,,,,,,,,,,,,,,,,,,,,,,,,,,,,,,,
,,60fc06a551733182cbfee788,66fc995842b801f3398f5640,2024-10-02_02h54.07.671,mdp,2024.2.1,Win32,60.24096386,66fa4ebf79326e780c390304,,,,,,,,,,,,,,,,,,,,,1289.3107,1289.3107,1289.313,1290.2247,0,1,left,0.3919,,1290.228,1290.2297,0,1,,1290.2313,1290.2331,0,0,,0,1290.2332,1290.2332,1290.2354,1291.7401,0,32,32,32,1,0.6,0.4,0.4,0.6,1,0,,,,,,,,,,,,,,,,,,,,,,,,,,,,,,,,,,,,
,,60fc06a551733182cbfee788,66fc995842b801f3398f5640,2024-10-02_02h54.07.671,mdp,2024.2.1,Win32,60.24096386,66fa4ebf79326e780c390304,,,,,,,,,,,,,,,,,,,,,1291.7416,1291.7416,1291.7441,1292.6727,0,1,left,0.4003,,1292.675,1292.6768,0,0,,1292.6782,1292.6789,0,1,,0,1292.679,1292.679,1292.6798,1294.171,0,33,33,33,1,0.6,0.4,0.4,0.6,1,0,,,,,,,,,,,,,,,,,,,,,,,,,,,,,,,,,,,,
,,60fc06a551733182cbfee788,66fc995842b801f3398f5640,2024-10-02_02h54.07.671,mdp,2024.2.1,Win32,60.24096386,66fa4ebf79326e780c390304,,,,,,,,,,,,,,,,,,,,,1294.1726,1294.1726,1294.1751,1294.932,0,1,left,0.2294,,1294.9354,1294.9373,0,0,,1294.9389,1294.9401,0,0,,0,1294.9402,1294.9402,1294.9414,1296.4352,0,34,34,34,1,0.6,0.4,0.4,0.6,1,0,,,,,,,,,,,,,,,,,,,,,,,,,,,,,,,,,,,,
,,60fc06a551733182cbfee788,66fc995842b801f3398f5640,2024-10-02_02h54.07.671,mdp,2024.2.1,Win32,60.24096386,66fa4ebf79326e780c390304,,,,,,,,,,,,,,,,,,,,,1296.437,1296.437,1296.4396,1297.2371,0,0,left,0.2702,,1297.2394,1297.2407,0,0,,1297.2422,1297.2452,0,0,,1,1297.2452,1297.2452,1297.2474,1298.7436,0,35,35,35,1,0.8,0.2,0.2,0.8,1,0,,,,,,,,,,,,,,,,,,,,,,,,,,,,,,,,,,,,
,,60fc06a551733182cbfee788,66fc995842b801f3398f5640,2024-10-02_02h54.07.671,mdp,2024.2.1,Win32,60.24096386,66fa4ebf79326e780c390304,,,,,,,,,,,,,,,,,,,,,1298.7457,1298.7457,1298.748,1299.5831,0,0,left,0.3187,,1299.5865,1299.588,0,1,,1299.5896,1299.5923,0,0,,1,1299.5924,1299.5924,1299.5946,1301.0974,0,36,36,36,1,0.8,0.2,0.2,0.8,1,0,,,,,,,,,,,,,,,,,,,,,,,,,,,,,,,,,,,,
,,60fc06a551733182cbfee788,66fc995842b801f3398f5640,2024-10-02_02h54.07.671,mdp,2024.2.1,Win32,60.24096386,66fa4ebf79326e780c390304,,,,,,,,,,,,,,,,,,,,,1301.0982,1301.0982,1301.1012,1302.1236,0,0,left,0.4937,,1302.1263,1302.1277,0,0,,1302.1296,1302.131,0,0,,1,1302.131,1302.131,1302.1325,1303.6209,0,37,37,37,1,0.8,0.2,0.2,0.8,1,0,,,,,,,,,,,,,,,,,,,,,,,,,,,,,,,,,,,,
,,60fc06a551733182cbfee788,66fc995842b801f3398f5640,2024-10-02_02h54.07.671,mdp,2024.2.1,Win32,60.24096386,66fa4ebf79326e780c390304,,,,,,,,,,,,,,,,,,,,,1303.6213,1303.6213,1303.6226,1304.8429,0,1,left,0.6998,,1304.8446,1304.8455,0,0,,1304.8462,1304.8467,0,0,,0,1304.8467,1304.8467,1304.8473,1306.3409,0,38,38,38,1,0.8,0.2,0.2,0.8,1,0,,,,,,,,,,,,,,,,,,,,,,,,,,,,,,,,,,,,
,,60fc06a551733182cbfee788,66fc995842b801f3398f5640,2024-10-02_02h54.07.671,mdp,2024.2.1,Win32,60.24096386,66fa4ebf79326e780c390304,,,,,,,,,,,,,,,,,,,,,1306.3417,1306.3417,1306.3448,1307.8779,0,1,left,1.0155,,1307.8812,1307.8848,0,0,,1307.887,1307.8881,0,0,,0,1307.8881,1307.8881,1307.8893,1309.3895,0,39,39,39,1,0.8,0.2,0.2,0.8,1,0,,,,,,,,,,,,,,,,,,,,,,,,,,,,,,,,,,,,
,,60fc06a551733182cbfee788,66fc995842b801f3398f5640,2024-10-02_02h54.07.671,mdp,2024.2.1,Win32,60.24096386,66fa4ebf79326e780c390304,,,,,,,,,,,,,,,,,,,,,1309.3911,1309.3911,1309.3936,1310.2018,0,0,left,0.2768,,1310.2041,1310.2053,0,0,,1310.2069,1310.2081,0,0,,1,1310.2081,1310.2081,1310.2093,1311.7037,0,40,40,40,1,0.8,0.2,0.2,0.8,1,0,,,,,,,,,,,,,,,,,,,,,,,,,,,,,,,,,,,,
