init_exp.started,init_exp.stopped,participant,session,date,expName,psychopyVersion,OS,frameRate,study_id,disp_instruction.started,disp_instruction.stopped,instruction.thisRepN,instruction.thisTrialN,instruction.thisN,instruction.thisIndex,instruction.ran,instimg_path,consent.started,consent.stopped,key_resp_3.keys,key_resp_3.rt,key_resp_3.duration,n_steps,sequence_path,init_block.started,init_block.stopped,key_resp.keys,key_resp.rt,key_resp.duration,init_trials.started,init_trials.stopped,step0.started,step0.stopped,act0,s1,res0.keys,res0.rt,res0.duration,step1.started,step1.stopped,act1,s2,res1.keys,step2.started,step2.stopped,act2,s3,res2.keys,rew,reward_comp.started,reward_comp.stopped,reward_disp.started,reward_disp.stopped,trials.thisRepN,trials.thisTrialN,trials.thisN,trials.thisIndex,trials.ran,s00a0s10,s00a0s11,s00a1s10,s00a1s11,rew10,rew11,break_block.started,break_block.stopped,block.thisRepN,block.thisTrialN,block.thisN,block.thisIndex,block.ran,s00path,s10path,s11path,s20path,s21path,res1.rt,res1.duration,s10a0s20,s10a0s21,s10a1s20,s10a1s21,s11a0s20,s11a0s21,s11a1s20,s11a1s21,rew20,rew21,res2.rt,res2.duration,s20a0s30,s20a0s31,s20a1s30,s20a1s31,s21a0s30,s21a0s31,s21a1s30,s21a1s31,rew30,rew31
0.0012,0.0052,60fc60249c2c3912c3b084af,66fce1e9856208184f6af1ef,2024-10-02_08h04.17.701,mdp,2024.2.1,Win32,59.17159763,66fa4ebf79326e780c390304,,,,,,,,,,,,,,,,,,,,,,,,,,,,,,,,,,,,,,,,,,,,,,,,,,,,,,,,,,,,,,,,,,,,,,,,,,,,,,,,,,,,,,,,,,,
,,60fc60249c2c3912c3b084af,66fce1e9856208184f6af1ef,2024-10-02_08h04.17.701,mdp,2024.2.1,Win32,59.17159763,66fa4ebf79326e780c390304,0.0188,12.3027,0,0,0,0,1,rlnn_exp/rlnn_exp.001.png,,,,,,,,,,,,,,,,,,,,,,,,,,,,,,,,,,,,,,,,,,,,,,,,,,,,,,,,,,,,,,,,,,,,,,,,,,,,,,,,,,,
,,60fc60249c2c3912c3b084af,66fce1e9856208184f6af1ef,2024-10-02_08h04.17.701,mdp,2024.2.1,Win32,59.17159763,66fa4ebf79326e780c390304,12.3043,24.0993,0,1,1,1,1,rlnn_exp/rlnn_exp.002.png,,,,,,,,,,,,,,,,,,,,,,,,,,,,,,,,,,,,,,,,,,,,,,,,,,,,,,,,,,,,,,,,,,,,,,,,,,,,,,,,,,,
,,60fc60249c2c3912c3b084af,66fce1e9856208184f6af1ef,2024-10-02_08h04.17.701,mdp,2024.2.1,Win32,59.17159763,66fa4ebf79326e780c390304,24.1161,39.0492,0,2,2,2,1,rlnn_exp/rlnn_exp.003.png,,,,,,,,,,,,,,,,,,,,,,,,,,,,,,,,,,,,,,,,,,,,,,,,,,,,,,,,,,,,,,,,,,,,,,,,,,,,,,,,,,,
,,60fc60249c2c3912c3b084af,66fce1e9856208184f6af1ef,2024-10-02_08h04.17.701,mdp,2024.2.1,Win32,59.17159763,66fa4ebf79326e780c390304,39.0652,50.4491,0,3,3,3,1,rlnn_exp/rlnn_exp.004.png,,,,,,,,,,,,,,,,,,,,,,,,,,,,,,,,,,,,,,,,,,,,,,,,,,,,,,,,,,,,,,,,,,,,,,,,,,,,,,,,,,,
,,60fc60249c2c3912c3b084af,66fce1e9856208184f6af1ef,2024-10-02_08h04.17.701,mdp,2024.2.1,Win32,59.17159763,66fa4ebf79326e780c390304,,,,,,,,,50.4635,82.5998,y,22.1137,,,,,,,,,,,,,,,,,,,,,,,,,,,,,,,,,,,,,,,,,,,,,,,,,,,,,,,,,,,,,,,,,,,,,,,,,,,,,,,
,,60fc60249c2c3912c3b084af,66fce1e9856208184f6af1ef,2024-10-02_08h04.17.701,mdp,2024.2.1,Win32,59.17159763,66fa4ebf79326e780c390304,,,,,,,,,,,,,,1,seqs/st1seq21.csv,82.6226,86.6166,space,3.4679,,86.6359,86.6361,86.6371,129.8708,1,1,right,42.6974,0.0004,129.8873,129.8911,,0,,129.8921,129.896,,1,,0,129.8963,129.8964,129.8973,131.3972,0,0,0,0,1,0.8,0.2,0.4,0.6,1,0,,,,,,,,,,,,,,,,,,,,,,,,,,,,,,,,,,,,
,,60fc60249c2c3912c3b084af,66fce1e9856208184f6af1ef,2024-10-02_08h04.17.701,mdp,2024.2.1,Win32,59.17159763,66fa4ebf79326e780c390304,,,,,,,,,,,,,,,,,,,,,131.3989,131.3989,131.4009,132.4636,0,0,left,0.5354,,132.4668,132.4685,,0,,132.4708,132.4729,,0,,1,132.4731,132.4731,132.4749,133.9644,0,1,1,1,1,0.8,0.2,0.4,0.6,1,0,,,,,,,,,,,,,,,,,,,,,,,,,,,,,,,,,,,,
,,60fc60249c2c3912c3b084af,66fce1e9856208184f6af1ef,2024-10-02_08h04.17.701,mdp,2024.2.1,Win32,59.17159763,66fa4ebf79326e780c390304,,,,,,,,,,,,,,,,,,,,,133.9659,133.966,133.969,135.664,0,0,left,1.1669,,135.6669,135.669,,0,,135.6711,135.6735,,0,,1,135.6735,135.6736,135.675,137.1657,0,2,2,2,1,0.8,0.2,0.4,0.6,1,0,,,,,,,,,,,,,,,,,,,,,,,,,,,,,,,,,,,,
,,60fc60249c2c3912c3b084af,66fce1e9856208184f6af1ef,2024-10-02_08h04.17.701,mdp,2024.2.1,Win32,59.17159763,66fa4ebf79326e780c390304,,,,,,,,,,,,,,,,,,,,,137.1663,137.1663,137.1696,139.1995,1,1,right,1.5029,,139.202,139.2041,,1,,139.2058,139.2077,,1,,0,139.2078,139.2078,139.2093,140.6991,0,3,3,3,1,0.6,0.4,0.2,0.8,1,0,,,,,,,,,,,,,,,,,,,,,,,,,,,,,,,,,,,,
,,60fc60249c2c3912c3b084af,66fce1e9856208184f6af1ef,2024-10-02_08h04.17.701,mdp,2024.2.1,Win32,59.17159763,66fa4ebf79326e780c390304,,,,,,,,,,,,,,,,,,,,,140.6998,140.6999,140.702,142.3515,0,1,left,1.1186,,142.3549,142.3567,,0,,142.3585,142.3602,,0,,0,142.3604,142.3604,142.3619,143.8633,0,4,4,4,1,0.6,0.4,0.2,0.8,1,0,,,,,,,,,,,,,,,,,,,,,,,,,,,,,,,,,,,,
,,60fc60249c2c3912c3b084af,66fce1e9856208184f6af1ef,2024-10-02_08h04.17.701,mdp,2024.2.1,Win32,59.17159763,66fa4ebf79326e780c390304,,,,,,,,,,,,,,,,,,,,,143.8646,143.8646,143.8674,146.3147,1,1,right,1.9187,,146.3322,146.334,,1,,146.3359,146.3375,,1,,0,146.3376,146.3376,146.3391,147.8325,0,5,5,5,1,0.6,0.4,0.2,0.8,1,0,,,,,,,,,,,,,,,,,,,,,,,,,,,,,,,,,,,,
,,60fc60249c2c3912c3b084af,66fce1e9856208184f6af1ef,2024-10-02_08h04.17.701,mdp,2024.2.1,Win32,59.17159763,66fa4ebf79326e780c390304,,,,,,,,,,,,,,,,,,,,,147.8332,147.8332,147.8357,150.2161,0,0,left,1.8513,,150.2318,150.2341,,0,,150.2358,150.2379,,0,,1,150.238,150.238,150.2394,151.7322,0,6,6,6,1,0.6,0.4,0.2,0.8,1,0,,,,,,,,,,,,,,,,,,,,,,,,,,,,,,,,,,,,
,,60fc60249c2c3912c3b084af,66fce1e9856208184f6af1ef,2024-10-02_08h04.17.701,mdp,2024.2.1,Win32,59.17159763,66fa4ebf79326e780c390304,,,,,,,,,,,,,,,,,,,,,151.734,151.734,151.7365,155.7145,1,0,right,3.4509,,155.732,155.7341,,0,,155.7358,155.7374,,0,,1,155.7375,155.7375,155.739,157.2329,0,7,7,7,1,0.8,0.2,0.6,0.4,1,0,,,,,,,,,,,,,,,,,,,,,,,,,,,,,,,,,,,,
,,60fc60249c2c3912c3b084af,66fce1e9856208184f6af1ef,2024-10-02_08h04.17.701,mdp,2024.2.1,Win32,59.17159763,66fa4ebf79326e780c390304,,,,,,,,,,,,,,,,,,,,,157.2337,157.2338,157.236,159.8838,1,0,right,2.1166,,159.8858,159.8882,,0,,159.8902,159.8918,,0,,1,159.8919,159.892,159.8935,161.3827,0,8,8,8,1,0.4,0.6,0.8,0.2,1,0,,,,,,,,,,,,,,,,,,,,,,,,,,,,,,,,,,,,
,,60fc60249c2c3912c3b084af,66fce1e9856208184f6af1ef,2024-10-02_08h04.17.701,mdp,2024.2.1,Win32,59.17159763,66fa4ebf79326e780c390304,,,,,,,,,,,,,,,,,,,,,161.3834,161.3837,161.3857,163.7995,0,1,left,1.8868,,163.8019,163.8038,,1,,163.8056,163.8074,,1,,0,163.8074,163.8074,163.8088,165.2995,0,9,9,9,1,0.4,0.6,0.8,0.2,1,0,,,,,,,,,,,,,,,,,,,,,,,,,,,,,,,,,,,,
,,60fc60249c2c3912c3b084af,66fce1e9856208184f6af1ef,2024-10-02_08h04.17.701,mdp,2024.2.1,Win32,59.17159763,66fa4ebf79326e780c390304,,,,,,,,,,,,,,,,,,,,,165.3001,165.3002,165.3021,167.2329,1,0,right,1.4016,,167.2353,167.2374,,0,,167.239,167.2407,,1,,1,167.2408,167.2408,167.2422,168.7329,0,10,10,10,1,0.4,0.6,0.8,0.2,1,0,,,,,,,,,,,,,,,,,,,,,,,,,,,,,,,,,,,,
,,60fc60249c2c3912c3b084af,66fce1e9856208184f6af1ef,2024-10-02_08h04.17.701,mdp,2024.2.1,Win32,59.17159763,66fa4ebf79326e780c390304,,,,,,,,,,,,,,,,,,,,,168.7336,168.7337,168.7358,170.9004,1,0,right,1.6421,,170.9026,170.9049,,0,,170.9066,170.9085,,0,,1,170.9086,170.9086,170.91,172.3993,0,11,11,11,1,0.4,0.6,0.8,0.2,1,0,,,,,,,,,,,,,,,,,,,,,,,,,,,,,,,,,,,,
,,60fc60249c2c3912c3b084af,66fce1e9856208184f6af1ef,2024-10-02_08h04.17.701,mdp,2024.2.1,Win32,59.17159763,66fa4ebf79326e780c390304,,,,,,,,,,,,,,,,,,,,,172.3999,172.4,172.4019,173.9997,0,1,left,1.0675,,174.0017,174.0035,,0,,174.0053,174.0069,,1,,0,174.0069,174.007,174.0087,175.4992,0,12,12,12,1,0.4,0.6,0.8,0.2,1,0,,,,,,,,,,,,,,,,,,,,,,,,,,,,,,,,,,,,
,,60fc60249c2c3912c3b084af,66fce1e9856208184f6af1ef,2024-10-02_08h04.17.701,mdp,2024.2.1,Win32,59.17159763,66fa4ebf79326e780c390304,,,,,,,,,,,,,,,,,,,,,175.4999,175.4999,175.5033,177.5843,0,1,left,1.5588,,177.5861,177.5882,,1,,177.59,177.5917,,1,,0,177.5919,177.5919,177.5933,179.0829,0,13,13,13,1,0.4,0.6,0.8,0.2,1,0,,,,,,,,,,,,,,,,,,,,,,,,,,,,,,,,,,,,
,,60fc60249c2c3912c3b084af,66fce1e9856208184f6af1ef,2024-10-02_08h04.17.701,mdp,2024.2.1,Win32,59.17159763,66fa4ebf79326e780c390304,,,,,,,,,,,,,,,,,,,,,179.0836,179.0837,179.0859,180.8829,1,0,right,1.2677,,180.8852,180.8869,,0,,180.889,180.8906,,0,,1,180.8907,180.8907,180.8923,182.3828,0,14,14,14,1,0.4,0.6,0.8,0.2,1,0,,,,,,,,,,,,,,,,,,,,,,,,,,,,,,,,,,,,
,,60fc60249c2c3912c3b084af,66fce1e9856208184f6af1ef,2024-10-02_08h04.17.701,mdp,2024.2.1,Win32,59.17159763,66fa4ebf79326e780c390304,,,,,,,,,,,,,,,,,,,,,182.3834,182.3835,182.3857,184.3998,1,0,right,1.4841,,184.4019,184.4036,,0,,184.4054,184.4072,,1,,1,184.4072,184.4073,184.4087,185.8993,0,15,15,15,1,0.8,0.2,0.6,0.4,1,0,,,,,,,,,,,,,,,,,,,,,,,,,,,,,,,,,,,,
,,60fc60249c2c3912c3b084af,66fce1e9856208184f6af1ef,2024-10-02_08h04.17.701,mdp,2024.2.1,Win32,59.17159763,66fa4ebf79326e780c390304,,,,,,,,,,,,,,,,,,,,,185.8998,185.8998,185.9018,188.0497,0,0,left,1.6184,,188.0654,188.0676,,1,,188.0692,188.0709,,0,,1,188.0709,188.0709,188.0724,189.5683,0,16,16,16,1,0.8,0.2,0.6,0.4,1,0,,,,,,,,,,,,,,,,,,,,,,,,,,,,,,,,,,,,
,,60fc60249c2c3912c3b084af,66fce1e9856208184f6af1ef,2024-10-02_08h04.17.701,mdp,2024.2.1,Win32,59.17159763,66fa4ebf79326e780c390304,,,,,,,,,,,,,,,,,,,,,189.5693,189.5693,189.5715,191.3999,1,0,right,1.301,,191.4021,191.4037,,0,,191.4056,191.4074,,0,,1,191.4075,191.4075,191.4091,192.8995,0,17,17,17,1,0.4,0.6,0.8,0.2,1,0,,,,,,,,,,,,,,,,,,,,,,,,,,,,,,,,,,,,
,,60fc60249c2c3912c3b084af,66fce1e9856208184f6af1ef,2024-10-02_08h04.17.701,mdp,2024.2.1,Win32,59.17159763,66fa4ebf79326e780c390304,,,,,,,,,,,,,,,,,,,,,192.9001,192.9001,192.9024,194.8497,1,1,right,1.4173,,194.8521,194.8541,,0,,194.8558,194.8574,,0,,0,194.8575,194.8576,194.8594,196.3495,0,18,18,18,1,0.4,0.6,0.8,0.2,1,0,,,,,,,,,,,,,,,,,,,,,,,,,,,,,,,,,,,,
,,60fc60249c2c3912c3b084af,66fce1e9856208184f6af1ef,2024-10-02_08h04.17.701,mdp,2024.2.1,Win32,59.17159763,66fa4ebf79326e780c390304,,,,,,,,,,,,,,,,,,,,,196.3501,196.3506,196.3531,198.2663,0,1,left,1.3846,,198.2687,198.2706,,1,,198.2725,198.2743,,1,,0,198.2743,198.2743,198.2757,199.7663,0,19,19,19,1,0.4,0.6,0.8,0.2,1,0,,,,,,,,,,,,,,,,,,,,,,,,,,,,,,,,,,,,
,,60fc60249c2c3912c3b084af,66fce1e9856208184f6af1ef,2024-10-02_08h04.17.701,mdp,2024.2.1,Win32,59.17159763,66fa4ebf79326e780c390304,,,,,,,,,,,,,,,,,,,,,199.7668,199.7669,199.7688,201.4644,0,1,left,1.1672,,201.4679,201.4697,,1,,201.4714,201.4734,,0,,0,201.4734,201.4734,201.4748,202.9661,0,20,20,20,1,0.4,0.6,0.8,0.2,1,0,,,,,,,,,,,,,,,,,,,,,,,,,,,,,,,,,,,,
,,60fc60249c2c3912c3b084af,66fce1e9856208184f6af1ef,2024-10-02_08h04.17.701,mdp,2024.2.1,Win32,59.17159763,66fa4ebf79326e780c390304,,,,,,,,,,,,,,,,,,,,,202.9667,202.9667,202.9691,204.5506,1,0,right,1.0589,,204.5532,204.5551,,1,,204.5567,204.5584,,1,,1,204.5585,204.5585,204.56,206.0495,0,21,21,21,1,0.6,0.4,0.6,0.4,1,0,,,,,,,,,,,,,,,,,,,,,,,,,,,,,,,,,,,,
,,60fc60249c2c3912c3b084af,66fce1e9856208184f6af1ef,2024-10-02_08h04.17.701,mdp,2024.2.1,Win32,59.17159763,66fa4ebf79326e780c390304,,,,,,,,,,,,,,,,,,,,,206.05,206.0501,206.052,207.8143,1,0,right,1.2376,,207.8177,207.8194,,0,,207.8214,207.8232,,1,,1,207.8232,207.8232,207.8246,209.316,0,22,22,22,1,0.6,0.4,0.6,0.4,1,0,,,,,,,,,,,,,,,,,,,,,,,,,,,,,,,,,,,,
,,60fc60249c2c3912c3b084af,66fce1e9856208184f6af1ef,2024-10-02_08h04.17.701,mdp,2024.2.1,Win32,59.17159763,66fa4ebf79326e780c390304,,,,,,,,,,,,,,,,,,,,,209.3165,209.3166,209.3188,211.183,0,1,left,1.3342,,211.1856,211.1873,,0,,211.1891,211.1907,,1,,0,211.1907,211.1907,211.1923,212.6829,0,23,23,23,1,0.6,0.4,0.6,0.4,1,0,,,,,,,,,,,,,,,,,,,,,,,,,,,,,,,,,,,,
,,60fc60249c2c3912c3b084af,66fce1e9856208184f6af1ef,2024-10-02_08h04.17.701,mdp,2024.2.1,Win32,59.17159763,66fa4ebf79326e780c390304,,,,,,,,,,,,,,,,,,,,,212.6834,212.6834,212.6858,214.183,1,1,right,0.968,,214.1856,214.1873,,0,,214.1893,214.1908,,0,,0,214.1908,214.1909,214.1924,215.6831,0,24,24,24,1,0.6,0.4,0.6,0.4,1,0,,,,,,,,,,,,,,,,,,,,,,,,,,,,,,,,,,,,
,,60fc60249c2c3912c3b084af,66fce1e9856208184f6af1ef,2024-10-02_08h04.17.701,mdp,2024.2.1,Win32,59.17159763,66fa4ebf79326e780c390304,,,,,,,,,,,,,,,,,,,,,215.6842,215.6843,215.6863,217.0334,1,0,right,0.8174,,217.0358,217.0375,,0,,217.0393,217.0411,,1,,1,217.0411,217.0411,217.0431,218.5328,0,25,25,25,1,0.6,0.4,0.6,0.4,1,0,,,,,,,,,,,,,,,,,,,,,,,,,,,,,,,,,,,,
,,60fc60249c2c3912c3b084af,66fce1e9856208184f6af1ef,2024-10-02_08h04.17.701,mdp,2024.2.1,Win32,59.17159763,66fa4ebf79326e780c390304,,,,,,,,,,,,,,,,,,,,,218.5334,218.5335,218.5358,220.2498,1,0,right,1.184,,220.2521,220.2538,,1,,220.2558,220.2579,,0,,1,220.258,220.258,220.2595,221.7496,0,26,26,26,1,0.6,0.4,0.6,0.4,1,0,,,,,,,,,,,,,,,,,,,,,,,,,,,,,,,,,,,,
,,60fc60249c2c3912c3b084af,66fce1e9856208184f6af1ef,2024-10-02_08h04.17.701,mdp,2024.2.1,Win32,59.17159763,66fa4ebf79326e780c390304,,,,,,,,,,,,,,,,,,,,,221.7511,221.7511,221.7536,223.5331,0,0,left,1.2511,,223.5352,223.5371,,1,,223.5389,223.5404,,0,,1,223.5405,223.5405,223.5423,225.0327,0,27,27,27,1,0.6,0.4,0.6,0.4,1,0,,,,,,,,,,,,,,,,,,,,,,,,,,,,,,,,,,,,
,,60fc60249c2c3912c3b084af,66fce1e9856208184f6af1ef,2024-10-02_08h04.17.701,mdp,2024.2.1,Win32,59.17159763,66fa4ebf79326e780c390304,,,,,,,,,,,,,,,,,,,,,225.0333,225.0334,225.0358,226.7833,1,1,right,1.2204,,226.7853,226.7869,,0,,226.7887,226.7903,,1,,0,226.7904,226.7904,226.7918,228.2831,0,28,28,28,1,0.6,0.4,0.6,0.4,1,0,,,,,,,,,,,,,,,,,,,,,,,,,,,,,,,,,,,,
,,60fc60249c2c3912c3b084af,66fce1e9856208184f6af1ef,2024-10-02_08h04.17.701,mdp,2024.2.1,Win32,59.17159763,66fa4ebf79326e780c390304,,,,,,,,,,,,,,,,,,,,,228.2838,228.2838,228.2862,229.4352,1,1,right,0.6266,,229.4371,229.439,,1,,229.4408,229.4425,,0,,0,229.4426,229.4426,229.4441,230.933,0,29,29,29,1,0.6,0.4,0.6,0.4,1,0,,,,,,,,,,,,,,,,,,,,,,,,,,,,,,,,,,,,
,,60fc60249c2c3912c3b084af,66fce1e9856208184f6af1ef,2024-10-02_08h04.17.701,mdp,2024.2.1,Win32,59.17159763,66fa4ebf79326e780c390304,,,,,,,,,,,,,,,,,,,,,230.9336,230.9337,230.9356,232.3665,1,0,right,0.9011,,232.3687,232.3703,,1,,232.3722,232.3739,,1,,1,232.374,232.374,232.3755,233.8661,0,30,30,30,1,0.6,0.4,0.6,0.4,1,0,,,,,,,,,,,,,,,,,,,,,,,,,,,,,,,,,,,,
,,60fc60249c2c3912c3b084af,66fce1e9856208184f6af1ef,2024-10-02_08h04.17.701,mdp,2024.2.1,Win32,59.17159763,66fa4ebf79326e780c390304,,,,,,,,,,,,,,,,,,,,,233.8668,233.8668,233.8688,235.4498,1,0,right,1.0529,,235.4519,235.4538,,0,,235.4555,235.4571,,0,,1,235.4572,235.4572,235.4589,236.9498,0,31,31,31,1,0.6,0.4,0.6,0.4,1,0,,,,,,,,,,,,,,,,,,,,,,,,,,,,,,,,,,,,
,,60fc60249c2c3912c3b084af,66fce1e9856208184f6af1ef,2024-10-02_08h04.17.701,mdp,2024.2.1,Win32,59.17159763,66fa4ebf79326e780c390304,,,,,,,,,,,,,,,,,,,,,236.9508,236.9508,236.9526,238.6997,0,1,left,1.2179,,238.7021,238.7036,,0,,238.7055,238.7072,,0,,0,238.7072,238.7072,238.7086,240.1998,0,32,32,32,1,0.6,0.4,0.6,0.4,1,0,,,,,,,,,,,,,,,,,,,,,,,,,,,,,,,,,,,,
,,60fc60249c2c3912c3b084af,66fce1e9856208184f6af1ef,2024-10-02_08h04.17.701,mdp,2024.2.1,Win32,59.17159763,66fa4ebf79326e780c390304,,,,,,,,,,,,,,,,,,,,,240.2004,240.2005,240.2026,241.8165,1,0,right,1.088,,241.8187,241.8202,,0,,241.8221,241.8237,,0,,1,241.8237,241.8237,241.8254,243.3144,0,33,33,33,1,0.4,0.6,0.8,0.2,1,0,,,,,,,,,,,,,,,,,,,,,,,,,,,,,,,,,,,,
,,60fc60249c2c3912c3b084af,66fce1e9856208184f6af1ef,2024-10-02_08h04.17.701,mdp,2024.2.1,Win32,59.17159763,66fa4ebf79326e780c390304,,,,,,,,,,,,,,,,,,,,,243.3157,243.3157,243.3184,244.95,1,0,right,1.1167,,244.9523,244.954,,0,,244.9558,244.9572,,0,,1,244.9573,244.9574,244.9588,246.4498,0,34,34,34,1,0.4,0.6,0.8,0.2,1,0,,,,,,,,,,,,,,,,,,,,,,,,,,,,,,,,,,,,
,,60fc60249c2c3912c3b084af,66fce1e9856208184f6af1ef,2024-10-02_08h04.17.701,mdp,2024.2.1,Win32,59.17159763,66fa4ebf79326e780c390304,,,,,,,,,,,,,,,,,,,,,246.4503,246.4504,246.4528,249.0013,1,0,right,2.0262,,249.0035,249.0053,,0,,249.007,249.0087,,0,,1,249.0088,249.0088,249.0101,250.4997,0,35,35,35,1,0.6,0.4,0.6,0.4,1,0,,,,,,,,,,,,,,,,,,,,,,,,,,,,,,,,,,,,
,,60fc60249c2c3912c3b084af,66fce1e9856208184f6af1ef,2024-10-02_08h04.17.701,mdp,2024.2.1,Win32,59.17159763,66fa4ebf79326e780c390304,,,,,,,,,,,,,,,,,,,,,250.5003,250.5004,250.5031,253.1501,1,0,right,2.1181,,253.1522,253.1541,,0,,253.156,253.1576,,0,,1,253.1577,253.1577,253.1591,254.6496,0,36,36,36,1,0.6,0.4,0.6,0.4,1,0,,,,,,,,,,,,,,,,,,,,,,,,,,,,,,,,,,,,
,,60fc60249c2c3912c3b084af,66fce1e9856208184f6af1ef,2024-10-02_08h04.17.701,mdp,2024.2.1,Win32,59.17159763,66fa4ebf79326e780c390304,,,,,,,,,,,,,,,,,,,,,254.6502,254.6502,254.6526,256.8831,0,0,left,1.7041,,256.8851,256.8869,,1,,256.8885,256.8902,,1,,1,256.8903,256.8903,256.8921,258.3828,0,37,37,37,1,0.4,0.6,0.8,0.2,1,0,,,,,,,,,,,,,,,,,,,,,,,,,,,,,,,,,,,,
,,60fc60249c2c3912c3b084af,66fce1e9856208184f6af1ef,2024-10-02_08h04.17.701,mdp,2024.2.1,Win32,59.17159763,66fa4ebf79326e780c390304,,,,,,,,,,,,,,,,,,,,,258.3837,258.3837,258.3857,259.5334,1,0,right,0.6174,,259.5358,259.5373,,0,,259.5392,259.5408,,0,,1,259.5409,259.5409,259.5423,261.033,0,38,38,38,1,0.4,0.6,0.8,0.2,1,0,,,,,,,,,,,,,,,,,,,,,,,,,,,,,,,,,,,,
,,60fc60249c2c3912c3b084af,66fce1e9856208184f6af1ef,2024-10-02_08h04.17.701,mdp,2024.2.1,Win32,59.17159763,66fa4ebf79326e780c390304,,,,,,,,,,,,,,,,,,,,,261.0335,261.0336,261.0358,264.1499,1,0,right,2.5846,,264.1647,264.1666,,0,,264.1686,264.1701,,0,,1,264.1702,264.1702,264.1717,265.6639,0,39,39,39,1,0.4,0.6,0.8,0.2,1,0,,,,,,,,,,,,,,,,,,,,,,,,,,,,,,,,,,,,
,,60fc60249c2c3912c3b084af,66fce1e9856208184f6af1ef,2024-10-02_08h04.17.701,mdp,2024.2.1,Win32,59.17159763,66fa4ebf79326e780c390304,,,,,,,,,,,,,,,,,,,,,265.6649,265.6649,265.6733,268.3665,1,1,right,2.1832,,268.3819,268.3836,,1,,268.3856,268.3872,,1,,0,268.3873,268.3873,268.3886,269.8831,0,40,40,40,1,0.6,0.4,0.2,0.8,1,0,,,,,,,,,,,,,,,,,,,,,,,,,,,,,,,,,,,,
,,60fc60249c2c3912c3b084af,66fce1e9856208184f6af1ef,2024-10-02_08h04.17.701,mdp,2024.2.1,Win32,59.17159763,66fa4ebf79326e780c390304,,,,,,,,,,,,,,,,,,,,,269.8844,269.8844,269.8864,271.2001,1,1,right,0.7848,,271.2024,271.204,,1,,271.2057,271.2074,,1,,0,271.2074,271.2075,271.2088,272.6995,0,41,41,41,1,0.6,0.4,0.2,0.8,1,0,,,,,,,,,,,,,,,,,,,,,,,,,,,,,,,,,,,,
,,60fc60249c2c3912c3b084af,66fce1e9856208184f6af1ef,2024-10-02_08h04.17.701,mdp,2024.2.1,Win32,59.17159763,66fa4ebf79326e780c390304,,,,,,,,,,,,,,,,,,,,,272.7007,272.7007,272.7028,274.2982,1,1,right,1.0686,,274.3012,274.3029,,1,,274.305,274.3064,,1,,0,274.3065,274.3066,274.3079,275.7997,0,42,42,42,1,0.6,0.4,0.2,0.8,1,0,,,,,,,,,,,,,,,,,,,,,,,,,,,,,,,,,,,,
,,60fc60249c2c3912c3b084af,66fce1e9856208184f6af1ef,2024-10-02_08h04.17.701,mdp,2024.2.1,Win32,59.17159763,66fa4ebf79326e780c390304,,,,,,,,,,,,,,,,,,,,,275.8004,275.8004,275.8026,277.1336,0,1,left,0.8006,,277.1356,277.1373,,1,,277.1389,277.1405,,1,,0,277.1406,277.1406,277.1421,278.6338,0,43,43,43,1,0.6,0.4,0.2,0.8,1,0,,,,,,,,,,,,,,,,,,,,,,,,,,,,,,,,,,,,
,,60fc60249c2c3912c3b084af,66fce1e9856208184f6af1ef,2024-10-02_08h04.17.701,mdp,2024.2.1,Win32,59.17159763,66fa4ebf79326e780c390304,,,,,,,,,,,,,,,,,,,,,278.6347,278.6347,278.6366,279.7827,1,0,right,0.6178,,279.7866,279.7886,,1,,279.7908,279.7924,,0,,1,279.7925,279.7925,279.7941,281.2862,0,44,44,44,1,0.6,0.4,0.2,0.8,1,0,,,,,,,,,,,,,,,,,,,,,,,,,,,,,,,,,,,,
,,60fc60249c2c3912c3b084af,66fce1e9856208184f6af1ef,2024-10-02_08h04.17.701,mdp,2024.2.1,Win32,59.17159763,66fa4ebf79326e780c390304,,,,,,,,,,,,,,,,,,,,,281.2869,281.2869,281.2887,282.616,1,1,right,0.806,,282.6189,282.6206,,0,,282.6224,282.6241,,0,,0,282.6241,282.6242,282.6256,284.1164,0,45,45,45,1,0.8,0.2,0.8,0.2,1,0,,,,,,,,,,,,,,,,,,,,,,,,,,,,,,,,,,,,
,,60fc60249c2c3912c3b084af,66fce1e9856208184f6af1ef,2024-10-02_08h04.17.701,mdp,2024.2.1,Win32,59.17159763,66fa4ebf79326e780c390304,,,,,,,,,,,,,,,,,,,,,284.1171,284.1171,284.1191,289.2686,0,0,left,4.6265,,289.284,289.2856,,0,,289.2872,289.2888,,1,,1,289.2889,289.2889,289.2903,290.7829,0,46,46,46,1,0.8,0.2,0.8,0.2,1,0,,,,,,,,,,,,,,,,,,,,,,,,,,,,,,,,,,,,
,,60fc60249c2c3912c3b084af,66fce1e9856208184f6af1ef,2024-10-02_08h04.17.701,mdp,2024.2.1,Win32,59.17159763,66fa4ebf79326e780c390304,,,,,,,,,,,,,,,,,,,,,290.7834,290.7835,290.7859,292.0338,0,0,left,0.7175,,292.0356,292.0374,,0,,292.039,292.0406,,1,,1,292.0406,292.0406,292.0421,293.5334,0,47,47,47,1,0.8,0.2,0.8,0.2,1,0,,,,,,,,,,,,,,,,,,,,,,,,,,,,,,,,,,,,
,,60fc60249c2c3912c3b084af,66fce1e9856208184f6af1ef,2024-10-02_08h04.17.701,mdp,2024.2.1,Win32,59.17159763,66fa4ebf79326e780c390304,,,,,,,,,,,,,,,,,,,,,293.5341,293.5341,293.536,295.6166,0,1,left,1.5686,,295.6189,295.6206,,1,,295.6226,295.6241,,1,,0,295.6242,295.6242,295.6257,297.1163,0,48,48,48,1,0.6,0.4,0.4,0.6,1,0,,,,,,,,,,,,,,,,,,,,,,,,,,,,,,,,,,,,
,,60fc60249c2c3912c3b084af,66fce1e9856208184f6af1ef,2024-10-02_08h04.17.701,mdp,2024.2.1,Win32,59.17159763,66fa4ebf79326e780c390304,,,,,,,,,,,,,,,,,,,,,297.1168,297.117,297.1189,298.6873,1,0,right,1.0343,,298.6896,298.6915,,1,,298.6934,298.6949,,1,,1,298.6951,298.6951,298.6974,300.1998,0,49,49,49,1,0.6,0.4,0.4,0.6,1,0,,,,,,,,,,,,,,,,,,,,,,,,,,,,,,,,,,,,
,,60fc60249c2c3912c3b084af,66fce1e9856208184f6af1ef,2024-10-02_08h04.17.701,mdp,2024.2.1,Win32,59.17159763,66fa4ebf79326e780c390304,,,,,,,,,,,,,,,,,,,,,,,,,,,,,,,,,,,,,,,,,,,,,,,,,,,,,,,,300.2007,358.7013,0,0,0,7,1,imgs/giraffe.png,imgs/bear.png,imgs/pig.png,imgs/horse.png,imgs/kangaroo.png,,,,,,,,,,,,,,,,,,,,,,,,
,,60fc60249c2c3912c3b084af,66fce1e9856208184f6af1ef,2024-10-02_08h04.17.701,mdp,2024.2.1,Win32,59.17159763,66fa4ebf79326e780c390304,,,,,,,,,,,,,,2,seqs/st2seq33.csv,358.7181,362.0837,space,2.833,,362.0925,362.0926,362.0948,364.3336,1,0,right,1.7075,,364.3361,368.3513,1,0,right,368.369,368.3708,,0,,1,368.371,368.371,368.3732,369.8666,0,0,0,0,1,0.2,0.8,0.6,0.4,,,,,,,,,,,,,,,3.4803,,0.2,0.8,0.4,0.6,0.8,0.2,0.2,0.8,1,0,,,,,,,,,,,,
,,60fc60249c2c3912c3b084af,66fce1e9856208184f6af1ef,2024-10-02_08h04.17.701,mdp,2024.2.1,Win32,59.17159763,66fa4ebf79326e780c390304,,,,,,,,,,,,,,,,,,,,,369.8674,369.8677,369.8696,372.317,0,1,left,1.9215,,372.3193,376.0835,1,1,right,376.0993,376.1014,,1,,0,376.1014,376.1014,376.103,377.5978,0,1,1,1,1,0.2,0.8,0.6,0.4,,,,,,,,,,,,,,,3.2297,,0.2,0.8,0.4,0.6,0.8,0.2,0.2,0.8,1,0,,,,,,,,,,,,
,,60fc60249c2c3912c3b084af,66fce1e9856208184f6af1ef,2024-10-02_08h04.17.701,mdp,2024.2.1,Win32,59.17159763,66fa4ebf79326e780c390304,,,,,,,,,,,,,,,,,,,,,377.5993,377.5993,377.6015,379.7478,1,0,right,1.6184,,379.7509,382.4979,0,1,left,382.501,382.5027,,1,,0,382.5027,382.5027,382.505,383.9977,0,2,2,2,1,0.4,0.6,0.4,0.6,,,,,,,,,,,,,,,2.2155,,0.2,0.8,0.4,0.6,0.8,0.2,0.2,0.8,1,0,,,,,,,,,,,,
,,60fc60249c2c3912c3b084af,66fce1e9856208184f6af1ef,2024-10-02_08h04.17.701,mdp,2024.2.1,Win32,59.17159763,66fa4ebf79326e780c390304,,,,,,,,,,,,,,,,,,,,,383.999,383.9991,384.0012,385.2477,1,1,right,0.719,,385.2506,387.2982,1,1,right,387.3007,387.3025,,0,,0,387.3025,387.3026,387.3047,388.8001,0,3,3,3,1,0.4,0.6,0.4,0.6,,,,,,,,,,,,,,,1.5259,,0.2,0.8,0.4,0.6,0.8,0.2,0.2,0.8,1,0,,,,,,,,,,,,
,,60fc60249c2c3912c3b084af,66fce1e9856208184f6af1ef,2024-10-02_08h04.17.701,mdp,2024.2.1,Win32,59.17159763,66fa4ebf79326e780c390304,,,,,,,,,,,,,,,,,,,,,388.8013,388.8013,388.8034,392.1202,0,0,left,2.7939,,392.1259,394.9346,0,1,left,394.9495,394.9514,,1,,0,394.9515,394.9515,394.9531,396.4475,0,4,4,4,1,0.4,0.6,0.4,0.6,,,,,,,,,,,,,,,2.2775,,0.2,0.8,0.4,0.6,0.8,0.2,0.2,0.8,1,0,,,,,,,,,,,,
,,60fc60249c2c3912c3b084af,66fce1e9856208184f6af1ef,2024-10-02_08h04.17.701,mdp,2024.2.1,Win32,59.17159763,66fa4ebf79326e780c390304,,,,,,,,,,,,,,,,,,,,,396.4488,396.4488,396.4509,398.1313,0,1,left,1.1514,,398.1342,399.6316,1,1,right,399.6342,399.636,,1,,0,399.636,399.636,399.6383,401.131,0,5,5,5,1,0.4,0.6,0.4,0.6,,,,,,,,,,,,,,,0.9794,,0.2,0.8,0.4,0.6,0.8,0.2,0.2,0.8,1,0,,,,,,,,,,,,
,,60fc60249c2c3912c3b084af,66fce1e9856208184f6af1ef,2024-10-02_08h04.17.701,mdp,2024.2.1,Win32,59.17159763,66fa4ebf79326e780c390304,,,,,,,,,,,,,,,,,,,,,401.1324,401.1325,401.1348,402.5004,0,0,left,0.8347,,402.5026,404.75,1,0,right,404.7527,404.7543,,1,,1,404.7544,404.7545,404.7571,406.2503,0,6,6,6,1,0.4,0.6,0.4,0.6,,,,,,,,,,,,,,,1.7155,,0.2,0.8,0.4,0.6,0.8,0.2,0.2,0.8,1,0,,,,,,,,,,,,
,,60fc60249c2c3912c3b084af,66fce1e9856208184f6af1ef,2024-10-02_08h04.17.701,mdp,2024.2.1,Win32,59.17159763,66fa4ebf79326e780c390304,,,,,,,,,,,,,,,,,,,,,406.251,406.2512,406.2532,409.2006,1,0,right,2.4211,,409.2157,410.9505,1,1,right,410.9541,410.9559,,1,,0,410.9559,410.9559,410.9583,412.4501,0,7,7,7,1,0.4,0.6,0.4,0.6,,,,,,,,,,,,,,,1.2165,,0.2,0.8,0.4,0.6,0.8,0.2,0.2,0.8,1,0,,,,,,,,,,,,
,,60fc60249c2c3912c3b084af,66fce1e9856208184f6af1ef,2024-10-02_08h04.17.701,mdp,2024.2.1,Win32,59.17159763,66fa4ebf79326e780c390304,,,,,,,,,,,,,,,,,,,,,412.4507,412.4507,412.4528,414.1013,1,0,right,1.1226,,414.1034,417.7182,0,0,left,417.7372,417.7386,,1,,1,417.7387,417.7387,417.7408,419.2339,0,8,8,8,1,0.4,0.6,0.4,0.6,,,,,,,,,,,,,,,3.0922,,0.2,0.8,0.4,0.6,0.8,0.2,0.2,0.8,1,0,,,,,,,,,,,,
,,60fc60249c2c3912c3b084af,66fce1e9856208184f6af1ef,2024-10-02_08h04.17.701,mdp,2024.2.1,Win32,59.17159763,66fa4ebf79326e780c390304,,,,,,,,,,,,,,,,,,,,,419.2345,419.2345,419.2365,420.4841,0,1,left,0.7175,,420.4864,422.3677,0,1,left,422.3698,422.3713,,1,,0,422.3714,422.3714,422.3732,423.8669,0,9,9,9,1,0.4,0.6,0.4,0.6,,,,,,,,,,,,,,,1.3474,,0.2,0.8,0.4,0.6,0.2,0.8,0.8,0.2,1,0,,,,,,,,,,,,
,,60fc60249c2c3912c3b084af,66fce1e9856208184f6af1ef,2024-10-02_08h04.17.701,mdp,2024.2.1,Win32,59.17159763,66fa4ebf79326e780c390304,,,,,,,,,,,,,,,,,,,,,423.8675,423.8675,423.8694,424.684,1,0,right,0.2994,,424.6862,426.5839,1,1,right,426.5861,426.5879,,0,,0,426.588,426.588,426.5897,428.084,0,10,10,10,1,0.4,0.6,0.4,0.6,,,,,,,,,,,,,,,1.3658,,0.2,0.8,0.4,0.6,0.2,0.8,0.8,0.2,1,0,,,,,,,,,,,,
,,60fc60249c2c3912c3b084af,66fce1e9856208184f6af1ef,2024-10-02_08h04.17.701,mdp,2024.2.1,Win32,59.17159763,66fa4ebf79326e780c390304,,,,,,,,,,,,,,,,,,,,,428.0852,428.0852,428.0882,429.0171,1,0,right,0.401,,429.0193,430.234,0,1,left,430.2362,430.2379,,1,,0,430.2379,430.2379,430.2397,431.7336,0,11,11,11,1,0.2,0.8,0.6,0.4,,,,,,,,,,,,,,,0.6838,,0.2,0.8,0.4,0.6,0.2,0.8,0.8,0.2,1,0,,,,,,,,,,,,
,,60fc60249c2c3912c3b084af,66fce1e9856208184f6af1ef,2024-10-02_08h04.17.701,mdp,2024.2.1,Win32,59.17159763,66fa4ebf79326e780c390304,,,,,,,,,,,,,,,,,,,,,431.735,431.7351,431.7377,433.1507,1,0,right,0.884,,433.153,434.3005,1,1,right,434.3031,434.3051,,0,,0,434.3053,434.3053,434.3068,435.8005,0,12,12,12,1,0.2,0.8,0.6,0.4,,,,,,,,,,,,,,,0.6188,,0.2,0.8,0.4,0.6,0.2,0.8,0.8,0.2,1,0,,,,,,,,,,,,
,,60fc60249c2c3912c3b084af,66fce1e9856208184f6af1ef,2024-10-02_08h04.17.701,mdp,2024.2.1,Win32,59.17159763,66fa4ebf79326e780c390304,,,,,,,,,,,,,,,,,,,,,435.8011,435.8012,435.804,437.2505,0,0,left,0.919,,437.2527,438.4841,0,1,left,438.4863,438.4881,,1,,0,438.4881,438.4881,438.4899,439.9837,0,13,13,13,1,0.6,0.4,0.4,0.6,,,,,,,,,,,,,,,0.7018,,0.2,0.8,0.4,0.6,0.2,0.8,0.8,0.2,1,0,,,,,,,,,,,,
,,60fc60249c2c3912c3b084af,66fce1e9856208184f6af1ef,2024-10-02_08h04.17.701,mdp,2024.2.1,Win32,59.17159763,66fa4ebf79326e780c390304,,,,,,,,,,,,,,,,,,,,,439.9842,439.9843,439.9873,441.1007,1,0,right,0.5851,,441.103,442.6673,1,1,right,442.6695,442.6711,,0,,0,442.6711,442.6711,442.6731,444.167,0,14,14,14,1,0.6,0.4,0.4,0.6,,,,,,,,,,,,,,,1.035,,0.2,0.8,0.4,0.6,0.2,0.8,0.8,0.2,1,0,,,,,,,,,,,,
,,60fc60249c2c3912c3b084af,66fce1e9856208184f6af1ef,2024-10-02_08h04.17.701,mdp,2024.2.1,Win32,59.17159763,66fa4ebf79326e780c390304,,,,,,,,,,,,,,,,,,,,,444.1677,444.1677,444.1695,445.7336,1,1,right,1.0354,,445.7361,446.7672,1,0,right,446.7693,446.7708,,1,,1,446.771,446.771,446.7727,448.2671,0,15,15,15,1,0.6,0.4,0.4,0.6,,,,,,,,,,,,,,,0.4973,,0.2,0.8,0.4,0.6,0.4,0.6,0.6,0.4,1,0,,,,,,,,,,,,
,,60fc60249c2c3912c3b084af,66fce1e9856208184f6af1ef,2024-10-02_08h04.17.701,mdp,2024.2.1,Win32,59.17159763,66fa4ebf79326e780c390304,,,,,,,,,,,,,,,,,,,,,448.2682,448.2683,448.2704,450.1849,0,0,left,1.392,,450.1868,451.5005,0,1,left,451.5026,451.5042,,1,,0,451.5043,451.5043,451.5062,453.0003,0,16,16,16,1,0.6,0.4,0.4,0.6,,,,,,,,,,,,,,,0.7801,,0.2,0.8,0.4,0.6,0.4,0.6,0.6,0.4,1,0,,,,,,,,,,,,
,,60fc60249c2c3912c3b084af,66fce1e9856208184f6af1ef,2024-10-02_08h04.17.701,mdp,2024.2.1,Win32,59.17159763,66fa4ebf79326e780c390304,,,,,,,,,,,,,,,,,,,,,453.001,453.001,453.0029,454.019,0,1,left,0.4928,,454.0211,455.7337,0,1,left,455.736,455.7381,,1,,0,455.7382,455.7382,455.7399,457.2338,0,17,17,17,1,0.6,0.4,0.4,0.6,,,,,,,,,,,,,,,1.1817,,0.2,0.8,0.4,0.6,0.4,0.6,0.6,0.4,1,0,,,,,,,,,,,,
,,60fc60249c2c3912c3b084af,66fce1e9856208184f6af1ef,2024-10-02_08h04.17.701,mdp,2024.2.1,Win32,59.17159763,66fa4ebf79326e780c390304,,,,,,,,,,,,,,,,,,,,,457.2345,457.2345,457.2365,458.9349,0,0,left,1.1754,,458.9373,460.1006,1,1,right,460.1029,460.1045,,0,,0,460.1045,460.1046,460.1062,461.6004,0,18,18,18,1,0.6,0.4,0.4,0.6,,,,,,,,,,,,,,,0.633,,0.2,0.8,0.4,0.6,0.4,0.6,0.6,0.4,1,0,,,,,,,,,,,,
,,60fc60249c2c3912c3b084af,66fce1e9856208184f6af1ef,2024-10-02_08h04.17.701,mdp,2024.2.1,Win32,59.17159763,66fa4ebf79326e780c390304,,,,,,,,,,,,,,,,,,,,,461.6009,461.601,461.6031,463.6009,0,0,left,1.4678,,463.6034,464.8339,0,0,left,464.8366,464.8381,,0,,1,464.8382,464.8382,464.8399,466.3339,0,19,19,19,1,0.6,0.4,0.4,0.6,,,,,,,,,,,,,,,0.7008,,0.2,0.8,0.4,0.6,0.4,0.6,0.6,0.4,1,0,,,,,,,,,,,,
,,60fc60249c2c3912c3b084af,66fce1e9856208184f6af1ef,2024-10-02_08h04.17.701,mdp,2024.2.1,Win32,59.17159763,66fa4ebf79326e780c390304,,,,,,,,,,,,,,,,,,,,,466.3346,466.335,466.3368,468.4342,1,0,right,1.5682,,468.4368,470.2518,1,1,right,470.2541,470.2557,,0,,0,470.256,470.2561,470.2577,471.7508,0,20,20,20,1,0.6,0.4,0.4,0.6,,,,,,,,,,,,,,,1.2915,,0.2,0.8,0.4,0.6,0.4,0.6,0.6,0.4,1,0,,,,,,,,,,,,
,,60fc60249c2c3912c3b084af,66fce1e9856208184f6af1ef,2024-10-02_08h04.17.701,mdp,2024.2.1,Win32,59.17159763,66fa4ebf79326e780c390304,,,,,,,,,,,,,,,,,,,,,471.7515,471.7515,471.7534,473.234,0,0,left,0.9508,,473.2363,474.4173,0,1,left,474.4196,474.4214,,1,,0,474.4217,474.4218,474.4234,475.9156,0,21,21,21,1,0.6,0.4,0.4,0.6,,,,,,,,,,,,,,,0.6512,,0.2,0.8,0.4,0.6,0.4,0.6,0.6,0.4,1,0,,,,,,,,,,,,
,,60fc60249c2c3912c3b084af,66fce1e9856208184f6af1ef,2024-10-02_08h04.17.701,mdp,2024.2.1,Win32,59.17159763,66fa4ebf79326e780c390304,,,,,,,,,,,,,,,,,,,,,475.9163,475.9163,475.9182,478.1981,1,0,right,1.7506,,478.2004,480.9496,1,1,right,480.9655,480.9672,,1,,0,480.9673,480.9673,480.9689,482.4647,0,22,22,22,1,0.6,0.4,0.4,0.6,,,,,,,,,,,,,,,2.2344,,0.6,0.4,0.6,0.4,0.4,0.6,0.6,0.4,1,0,,,,,,,,,,,,
,,60fc60249c2c3912c3b084af,66fce1e9856208184f6af1ef,2024-10-02_08h04.17.701,mdp,2024.2.1,Win32,59.17159763,66fa4ebf79326e780c390304,,,,,,,,,,,,,,,,,,,,,482.466,482.466,482.4681,484.315,0,0,left,1.3184,,484.3169,485.5671,0,0,left,485.5691,485.5712,,1,,1,485.5713,485.5713,485.5734,487.0669,0,23,23,23,1,0.6,0.4,0.4,0.6,,,,,,,,,,,,,,,0.7351,,0.6,0.4,0.6,0.4,0.4,0.6,0.6,0.4,1,0,,,,,,,,,,,,
,,60fc60249c2c3912c3b084af,66fce1e9856208184f6af1ef,2024-10-02_08h04.17.701,mdp,2024.2.1,Win32,59.17159763,66fa4ebf79326e780c390304,,,,,,,,,,,,,,,,,,,,,487.0679,487.0679,487.0702,488.8516,1,1,right,1.2525,,488.8537,490.2342,1,0,right,490.2363,490.238,,1,,1,490.2383,490.2383,490.24,491.7336,0,24,24,24,1,0.8,0.2,0.8,0.2,,,,,,,,,,,,,,,0.8408,,0.6,0.4,0.6,0.4,0.4,0.6,0.6,0.4,1,0,,,,,,,,,,,,
,,60fc60249c2c3912c3b084af,66fce1e9856208184f6af1ef,2024-10-02_08h04.17.701,mdp,2024.2.1,Win32,59.17159763,66fa4ebf79326e780c390304,,,,,,,,,,,,,,,,,,,,,491.7342,491.7344,491.7365,493.3858,1,1,right,1.1267,,493.3877,494.4007,1,0,right,494.403,494.4048,,0,,1,494.4048,494.4048,494.4064,495.9005,0,25,25,25,1,0.6,0.4,0.6,0.4,,,,,,,,,,,,,,,0.4842,,0.6,0.4,0.6,0.4,0.4,0.6,0.6,0.4,1,0,,,,,,,,,,,,
,,60fc60249c2c3912c3b084af,66fce1e9856208184f6af1ef,2024-10-02_08h04.17.701,mdp,2024.2.1,Win32,59.17159763,66fa4ebf79326e780c390304,,,,,,,,,,,,,,,,,,,,,495.9013,495.9013,495.9037,497.534,1,0,right,1.1048,,497.536,499.2353,0,0,left,499.2372,499.2393,,1,,1,499.2393,499.2394,499.2409,500.7338,0,26,26,26,1,0.6,0.4,0.6,0.4,,,,,,,,,,,,,,,1.1718,,0.6,0.4,0.6,0.4,0.4,0.6,0.6,0.4,1,0,,,,,,,,,,,,
,,60fc60249c2c3912c3b084af,66fce1e9856208184f6af1ef,2024-10-02_08h04.17.701,mdp,2024.2.1,Win32,59.17159763,66fa4ebf79326e780c390304,,,,,,,,,,,,,,,,,,,,,500.7346,500.7346,500.7369,502.6345,1,1,right,1.3747,,502.6374,503.8671,1,0,right,503.8691,503.8715,,1,,1,503.8716,503.8716,503.8732,505.3671,0,27,27,27,1,0.6,0.4,0.6,0.4,,,,,,,,,,,,,,,0.6967,,0.6,0.4,0.6,0.4,0.4,0.6,0.6,0.4,1,0,,,,,,,,,,,,
,,60fc60249c2c3912c3b084af,66fce1e9856208184f6af1ef,2024-10-02_08h04.17.701,mdp,2024.2.1,Win32,59.17159763,66fa4ebf79326e780c390304,,,,,,,,,,,,,,,,,,,,,505.3678,505.3679,505.3702,507.6673,0,0,left,1.7683,,507.6698,509.134,0,1,left,509.1371,509.1387,,1,,0,509.1388,509.1388,509.1405,510.634,0,28,28,28,1,0.6,0.4,0.6,0.4,,,,,,,,,,,,,,,0.9302,,0.6,0.4,0.6,0.4,0.4,0.6,0.6,0.4,1,0,,,,,,,,,,,,
,,60fc60249c2c3912c3b084af,66fce1e9856208184f6af1ef,2024-10-02_08h04.17.701,mdp,2024.2.1,Win32,59.17159763,66fa4ebf79326e780c390304,,,,,,,,,,,,,,,,,,,,,510.6345,510.6346,510.6373,512.5696,1,0,right,1.4101,,512.5722,513.9506,0,0,left,513.9525,513.9544,,1,,1,513.9545,513.9545,513.9562,515.4505,0,29,29,29,1,0.6,0.4,0.6,0.4,,,,,,,,,,,,,,,0.8513,,0.6,0.4,0.6,0.4,0.4,0.6,0.6,0.4,1,0,,,,,,,,,,,,
,,60fc60249c2c3912c3b084af,66fce1e9856208184f6af1ef,2024-10-02_08h04.17.701,mdp,2024.2.1,Win32,59.17159763,66fa4ebf79326e780c390304,,,,,,,,,,,,,,,,,,,,,515.4512,515.4513,515.4534,517.0356,1,0,right,1.0592,,517.0375,518.2562,0,1,left,518.2595,518.2611,,0,,0,518.2612,518.2612,518.2632,519.7505,0,30,30,30,1,0.6,0.4,0.6,0.4,,,,,,,,,,,,,,,0.7015,,0.6,0.4,0.6,0.4,0.4,0.6,0.6,0.4,1,0,,,,,,,,,,,,
,,60fc60249c2c3912c3b084af,66fce1e9856208184f6af1ef,2024-10-02_08h04.17.701,mdp,2024.2.1,Win32,59.17159763,66fa4ebf79326e780c390304,,,,,,,,,,,,,,,,,,,,,519.7513,519.7514,519.7534,521.4174,1,0,right,1.1346,,521.4197,522.7674,0,0,left,522.7699,522.7716,,1,,1,522.7716,522.7716,522.7737,524.2671,0,31,31,31,1,0.6,0.4,0.6,0.4,,,,,,,,,,,,,,,0.8178,,0.6,0.4,0.6,0.4,0.4,0.6,0.6,0.4,1,0,,,,,,,,,,,,
,,60fc60249c2c3912c3b084af,66fce1e9856208184f6af1ef,2024-10-02_08h04.17.701,mdp,2024.2.1,Win32,59.17159763,66fa4ebf79326e780c390304,,,,,,,,,,,,,,,,,,,,,524.2679,524.2679,524.2701,525.4674,1,1,right,0.6674,,525.4695,526.6339,1,0,right,526.636,526.6379,,0,,1,526.638,526.638,526.6396,528.1343,0,32,32,32,1,0.6,0.4,0.6,0.4,,,,,,,,,,,,,,,0.63,,0.8,0.2,0.4,0.6,0.4,0.6,0.6,0.4,1,0,,,,,,,,,,,,
,,60fc60249c2c3912c3b084af,66fce1e9856208184f6af1ef,2024-10-02_08h04.17.701,mdp,2024.2.1,Win32,59.17159763,66fa4ebf79326e780c390304,,,,,,,,,,,,,,,,,,,,,528.1348,528.1349,528.1372,529.8173,1,1,right,1.1507,,529.8204,530.884,1,0,right,530.8862,530.8881,,0,,1,530.8882,530.8882,530.8901,532.3842,0,33,33,33,1,0.6,0.4,0.6,0.4,,,,,,,,,,,,,,,0.5342,,0.8,0.2,0.4,0.6,0.4,0.6,0.6,0.4,1,0,,,,,,,,,,,,
,,60fc60249c2c3912c3b084af,66fce1e9856208184f6af1ef,2024-10-02_08h04.17.701,mdp,2024.2.1,Win32,59.17159763,66fa4ebf79326e780c390304,,,,,,,,,,,,,,,,,,,,,532.3849,532.3849,532.3872,533.7346,1,1,right,0.818,,533.737,534.8173,1,1,right,534.8196,534.8218,,0,,0,534.8219,534.8219,534.8239,536.3174,0,34,34,34,1,0.6,0.4,0.6,0.4,,,,,,,,,,,,,,,0.5501,,0.8,0.2,0.4,0.6,0.4,0.6,0.6,0.4,1,0,,,,,,,,,,,,
,,60fc60249c2c3912c3b084af,66fce1e9856208184f6af1ef,2024-10-02_08h04.17.701,mdp,2024.2.1,Win32,59.17159763,66fa4ebf79326e780c390304,,,,,,,,,,,,,,,,,,,,,536.3179,536.3179,536.3202,538.1512,1,1,right,1.3019,,538.1538,540.1007,1,0,right,540.1027,540.1046,,1,,1,540.1047,540.1047,540.1063,541.6009,0,35,35,35,1,0.6,0.4,0.6,0.4,,,,,,,,,,,,,,,1.4181,,0.4,0.6,0.6,0.4,0.4,0.6,0.6,0.4,1,0,,,,,,,,,,,,
,,60fc60249c2c3912c3b084af,66fce1e9856208184f6af1ef,2024-10-02_08h04.17.701,mdp,2024.2.1,Win32,59.17159763,66fa4ebf79326e780c390304,,,,,,,,,,,,,,,,,,,,,541.6014,541.6014,541.6037,543.0175,1,0,right,0.886,,543.0199,544.3345,0,0,left,544.3366,544.3386,,0,,1,544.3386,544.3386,544.3404,545.8342,0,36,36,36,1,0.6,0.4,0.6,0.4,,,,,,,,,,,,,,,0.7805,,0.4,0.6,0.6,0.4,0.4,0.6,0.6,0.4,1,0,,,,,,,,,,,,
,,60fc60249c2c3912c3b084af,66fce1e9856208184f6af1ef,2024-10-02_08h04.17.701,mdp,2024.2.1,Win32,59.17159763,66fa4ebf79326e780c390304,,,,,,,,,,,,,,,,,,,,,545.8349,545.835,545.8374,547.5019,1,0,right,1.1417,,547.5039,549.0841,0,0,left,549.0864,549.088,,0,,1,549.0881,549.0881,549.0896,550.5853,0,37,37,37,1,0.6,0.4,0.6,0.4,,,,,,,,,,,,,,,1.0513,,0.8,0.2,0.2,0.8,0.4,0.6,0.6,0.4,1,0,,,,,,,,,,,,
,,60fc60249c2c3912c3b084af,66fce1e9856208184f6af1ef,2024-10-02_08h04.17.701,mdp,2024.2.1,Win32,59.17159763,66fa4ebf79326e780c390304,,,,,,,,,,,,,,,,,,,,,550.5861,550.5861,550.5886,552.0033,1,1,right,0.8934,,552.0052,553.1851,1,1,right,553.1881,553.1899,,1,,0,553.19,553.19,553.1923,554.6839,0,38,38,38,1,0.6,0.4,0.6,0.4,,,,,,,,,,,,,,,0.6471,,0.8,0.2,0.2,0.8,0.6,0.4,0.4,0.6,1,0,,,,,,,,,,,,
,,60fc60249c2c3912c3b084af,66fce1e9856208184f6af1ef,2024-10-02_08h04.17.701,mdp,2024.2.1,Win32,59.17159763,66fa4ebf79326e780c390304,,,,,,,,,,,,,,,,,,,,,554.6846,554.6846,554.6869,555.8843,1,0,right,0.6677,,555.8869,557.2844,0,0,left,557.2869,557.2885,,0,,1,557.2885,557.2885,557.2904,558.7841,0,39,39,39,1,0.6,0.4,0.6,0.4,,,,,,,,,,,,,,,0.864,,0.8,0.2,0.2,0.8,0.6,0.4,0.4,0.6,1,0,,,,,,,,,,,,
,,60fc60249c2c3912c3b084af,66fce1e9856208184f6af1ef,2024-10-02_08h04.17.701,mdp,2024.2.1,Win32,59.17159763,66fa4ebf79326e780c390304,,,,,,,,,,,,,,,,,,,,,558.7856,558.7857,558.7876,560.0522,1,1,right,0.7424,,560.0543,561.1684,1,1,right,561.1705,561.1725,,1,,0,561.1725,561.1725,561.1741,562.6674,0,40,40,40,1,0.6,0.4,0.6,0.4,,,,,,,,,,,,,,,0.5807,,0.6,0.4,0.8,0.2,0.6,0.4,0.4,0.6,1,0,,,,,,,,,,,,
,,60fc60249c2c3912c3b084af,66fce1e9856208184f6af1ef,2024-10-02_08h04.17.701,mdp,2024.2.1,Win32,59.17159763,66fa4ebf79326e780c390304,,,,,,,,,,,,,,,,,,,,,562.668,562.6681,562.6703,563.953,1,1,right,0.7597,,563.9549,565.0868,1,1,right,565.0886,565.0905,,1,,0,565.0905,565.0905,565.0921,566.5843,0,41,41,41,1,0.6,0.4,0.6,0.4,,,,,,,,,,,,,,,0.6103,,0.6,0.4,0.8,0.2,0.6,0.4,0.4,0.6,1,0,,,,,,,,,,,,
,,60fc60249c2c3912c3b084af,66fce1e9856208184f6af1ef,2024-10-02_08h04.17.701,mdp,2024.2.1,Win32,59.17159763,66fa4ebf79326e780c390304,,,,,,,,,,,,,,,,,,,,,566.5849,566.5849,566.5871,567.9179,1,1,right,0.8007,,567.9204,569.0178,1,1,right,569.0201,569.0217,,1,,0,569.0217,569.0217,569.0236,570.5174,0,42,42,42,1,0.6,0.4,0.6,0.4,,,,,,,,,,,,,,,0.5683,,0.6,0.4,0.8,0.2,0.6,0.4,0.4,0.6,1,0,,,,,,,,,,,,
,,60fc60249c2c3912c3b084af,66fce1e9856208184f6af1ef,2024-10-02_08h04.17.701,mdp,2024.2.1,Win32,59.17159763,66fa4ebf79326e780c390304,,,,,,,,,,,,,,,,,,,,,570.518,570.5181,570.5202,572.3677,1,1,right,1.3175,,572.3698,573.8678,0,1,left,573.8715,573.8744,,1,,0,573.8745,573.8745,573.8761,575.3674,0,43,43,43,1,0.6,0.4,0.6,0.4,,,,,,,,,,,,,,,0.9682,,0.6,0.4,0.8,0.2,0.6,0.4,0.4,0.6,1,0,,,,,,,,,,,,
,,60fc60249c2c3912c3b084af,66fce1e9856208184f6af1ef,2024-10-02_08h04.17.701,mdp,2024.2.1,Win32,59.17159763,66fa4ebf79326e780c390304,,,,,,,,,,,,,,,,,,,,,575.368,575.368,575.3702,576.7177,1,0,right,0.8179,,576.72,577.8678,0,0,left,577.8699,577.8714,,1,,1,577.8715,577.8716,577.8734,579.3676,0,44,44,44,1,0.6,0.4,0.6,0.4,,,,,,,,,,,,,,,0.6162,,0.6,0.4,0.8,0.2,0.6,0.4,0.4,0.6,1,0,,,,,,,,,,,,
,,60fc60249c2c3912c3b084af,66fce1e9856208184f6af1ef,2024-10-02_08h04.17.701,mdp,2024.2.1,Win32,59.17159763,66fa4ebf79326e780c390304,,,,,,,,,,,,,,,,,,,,,579.3681,579.3681,579.3702,581.1689,0,0,left,1.2709,,581.1712,582.5509,0,1,left,582.5533,582.5549,,0,,0,582.555,582.555,582.5569,584.0545,0,45,45,45,1,0.6,0.4,0.6,0.4,,,,,,,,,,,,,,,0.8511,,0.6,0.4,0.8,0.2,0.6,0.4,0.4,0.6,1,0,,,,,,,,,,,,
,,60fc60249c2c3912c3b084af,66fce1e9856208184f6af1ef,2024-10-02_08h04.17.701,mdp,2024.2.1,Win32,59.17159763,66fa4ebf79326e780c390304,,,,,,,,,,,,,,,,,,,,,584.0556,584.0556,584.0582,587.2514,1,0,right,2.6679,,587.2671,588.7683,1,0,right,588.7702,588.7719,,0,,1,588.7719,588.7719,588.7736,590.2682,0,46,46,46,1,0.6,0.4,0.6,0.4,,,,,,,,,,,,,,,0.9833,,0.6,0.4,0.8,0.2,0.6,0.4,0.4,0.6,1,0,,,,,,,,,,,,
,,60fc60249c2c3912c3b084af,66fce1e9856208184f6af1ef,2024-10-02_08h04.17.701,mdp,2024.2.1,Win32,59.17159763,66fa4ebf79326e780c390304,,,,,,,,,,,,,,,,,,,,,590.2687,590.2687,590.2707,593.3678,1,0,right,2.5674,,593.3835,594.3844,1,0,right,594.3867,594.3884,,0,,1,594.3885,594.3885,594.3909,595.8846,0,47,47,47,1,0.6,0.4,0.6,0.4,,,,,,,,,,,,,,,0.4675,,0.6,0.4,0.8,0.2,0.6,0.4,0.4,0.6,1,0,,,,,,,,,,,,
,,60fc60249c2c3912c3b084af,66fce1e9856208184f6af1ef,2024-10-02_08h04.17.701,mdp,2024.2.1,Win32,59.17159763,66fa4ebf79326e780c390304,,,,,,,,,,,,,,,,,,,,,595.8857,595.8857,595.8876,600.8353,1,1,right,4.4249,,600.851,601.9984,1,1,right,602.0014,602.0029,,0,,0,602.003,602.003,602.0054,603.4986,0,48,48,48,1,0.6,0.4,0.6,0.4,,,,,,,,,,,,,,,0.6308,,0.6,0.4,0.8,0.2,0.2,0.8,0.2,0.8,1,0,,,,,,,,,,,,
,,60fc60249c2c3912c3b084af,66fce1e9856208184f6af1ef,2024-10-02_08h04.17.701,mdp,2024.2.1,Win32,59.17159763,66fa4ebf79326e780c390304,,,,,,,,,,,,,,,,,,,,,603.5,603.5,603.502,606.3485,1,1,right,2.3186,,606.3516,608.6986,1,1,right,608.7015,608.7031,,1,,0,608.7032,608.7032,608.7056,610.1983,0,49,49,49,1,0.6,0.4,0.6,0.4,,,,,,,,,,,,,,,1.818,,0.6,0.4,0.8,0.2,0.2,0.8,0.2,0.8,1,0,,,,,,,,,,,,
,,60fc60249c2c3912c3b084af,66fce1e9856208184f6af1ef,2024-10-02_08h04.17.701,mdp,2024.2.1,Win32,59.17159763,66fa4ebf79326e780c390304,,,,,,,,,,,,,,,,,,,,,,,,,,,,,,,,,,,,,,,,,,,,,,,,,,,,,,,,610.1985,668.718,0,1,1,6,1,imgs/rabbit.png,imgs/elephant.png,imgs/kangaroo.png,imgs/horse.png,imgs/goat.png,,,,,,,,,,,,,,,,,,,,,,,,
,,60fc60249c2c3912c3b084af,66fce1e9856208184f6af1ef,2024-10-02_08h04.17.701,mdp,2024.2.1,Win32,59.17159763,66fa4ebf79326e780c390304,,,,,,,,,,,,,,3,seqs/st3seq19.csv,668.7342,683.9848,space,14.7219,,684.0121,684.0122,684.0144,685.7848,1,1,right,1.2479,,685.7872,687.0681,1,0,right,687.0703,688.4852,1,1,right,0,688.4852,688.4852,688.4874,689.9848,0,0,0,0,1,0.8,0.2,0.4,0.6,,,,,,,,,,,,,,,0.7482,,0.4,0.6,0.6,0.4,0.8,0.2,0.4,0.6,,,0.876,,0.6,0.4,0.2,0.8,0.8,0.2,0.8,0.2,1,0
,,60fc60249c2c3912c3b084af,66fce1e9856208184f6af1ef,2024-10-02_08h04.17.701,mdp,2024.2.1,Win32,59.17159763,66fa4ebf79326e780c390304,,,,,,,,,,,,,,,,,,,,,689.9861,689.9861,689.9881,692.2015,1,1,right,1.6843,,692.2174,693.4198,1,0,right,693.4218,694.9848,0,1,left,0,694.985,694.985,694.9871,696.4847,0,1,1,1,1,0.8,0.2,0.4,0.6,,,,,,,,,,,,,,,0.6914,,0.4,0.6,0.6,0.4,0.8,0.2,0.4,0.6,,,1.0349,,0.6,0.4,0.2,0.8,0.8,0.2,0.8,0.2,1,0
,,60fc60249c2c3912c3b084af,66fce1e9856208184f6af1ef,2024-10-02_08h04.17.701,mdp,2024.2.1,Win32,59.17159763,66fa4ebf79326e780c390304,,,,,,,,,,,,,,,,,,,,,696.4857,696.4857,696.4876,698.1351,0,1,left,1.1185,,698.1372,699.2518,0,0,left,699.2543,700.2681,0,0,left,1,700.2683,700.2684,700.2703,701.7682,0,2,2,2,1,0.8,0.2,0.4,0.6,,,,,,,,,,,,,,,0.5845,,0.4,0.6,0.6,0.4,0.8,0.2,0.4,0.6,,,0.4842,,0.6,0.4,0.2,0.8,0.8,0.2,0.8,0.2,1,0
,,60fc60249c2c3912c3b084af,66fce1e9856208184f6af1ef,2024-10-02_08h04.17.701,mdp,2024.2.1,Win32,59.17159763,66fa4ebf79326e780c390304,,,,,,,,,,,,,,,,,,,,,701.7689,701.769,701.7709,702.9348,0,0,left,0.6346,,702.9371,704.768,1,0,right,704.7706,706.035,0,1,left,0,706.0351,706.0351,706.0371,707.5347,0,3,3,3,1,0.8,0.2,0.4,0.6,,,,,,,,,,,,,,,1.2965,,0.4,0.6,0.6,0.4,0.8,0.2,0.4,0.6,,,0.7347,,0.6,0.4,0.2,0.8,0.8,0.2,0.8,0.2,1,0
,,60fc60249c2c3912c3b084af,66fce1e9856208184f6af1ef,2024-10-02_08h04.17.701,mdp,2024.2.1,Win32,59.17159763,66fa4ebf79326e780c390304,,,,,,,,,,,,,,,,,,,,,707.5353,707.5354,707.5373,709.0682,1,1,right,1.001,,709.0704,710.736,1,1,right,710.7385,712.1682,1,0,right,1,712.1683,712.1683,712.1706,713.6684,0,4,4,4,1,0.8,0.2,0.4,0.6,,,,,,,,,,,,,,,1.1381,,0.4,0.6,0.6,0.4,0.8,0.2,0.4,0.6,,,0.894,,0.6,0.4,0.2,0.8,0.8,0.2,0.8,0.2,1,0
,,60fc60249c2c3912c3b084af,66fce1e9856208184f6af1ef,2024-10-02_08h04.17.701,mdp,2024.2.1,Win32,59.17159763,66fa4ebf79326e780c390304,,,,,,,,,,,,,,,,,,,,,713.6693,713.6693,713.6712,714.8167,1,1,right,0.6176,,714.8187,716.5834,1,0,right,716.5854,718.2669,0,1,left,0,718.2669,718.267,718.2688,719.7666,0,5,5,5,1,0.8,0.2,0.4,0.6,,,,,,,,,,,,,,,1.2342,,0.4,0.6,0.6,0.4,0.8,0.2,0.4,0.6,,,1.1484,,0.2,0.8,0.6,0.4,0.8,0.2,0.8,0.2,1,0
,,60fc60249c2c3912c3b084af,66fce1e9856208184f6af1ef,2024-10-02_08h04.17.701,mdp,2024.2.1,Win32,59.17159763,66fa4ebf79326e780c390304,,,,,,,,,,,,,,,,,,,,,719.7673,719.7673,719.7692,721.5686,0,0,left,1.2683,,721.5712,723.2685,1,0,right,723.2703,724.4669,1,1,right,0,724.467,724.467,724.469,725.9667,0,6,6,6,1,0.8,0.2,0.4,0.6,,,,,,,,,,,,,,,1.1719,,0.4,0.6,0.6,0.4,0.8,0.2,0.4,0.6,,,0.6677,,0.2,0.8,0.6,0.4,0.8,0.2,0.8,0.2,1,0
,,60fc60249c2c3912c3b084af,66fce1e9856208184f6af1ef,2024-10-02_08h04.17.701,mdp,2024.2.1,Win32,59.17159763,66fa4ebf79326e780c390304,,,,,,,,,,,,,,,,,,,,,725.9673,725.9674,725.9692,727.7836,0,0,left,1.2846,,727.7857,729.2994,0,0,left,729.3018,730.5004,0,1,left,0,730.5005,730.5005,730.5024,732,0,7,7,7,1,0.8,0.2,0.4,0.6,,,,,,,,,,,,,,,0.9841,,0.4,0.6,0.6,0.4,0.8,0.2,0.4,0.6,,,0.6846,,0.2,0.8,0.6,0.4,0.8,0.2,0.8,0.2,1,0
,,60fc60249c2c3912c3b084af,66fce1e9856208184f6af1ef,2024-10-02_08h04.17.701,mdp,2024.2.1,Win32,59.17159763,66fa4ebf79326e780c390304,,,,,,,,,,,,,,,,,,,,,732.0006,732.0007,732.0028,733.2002,1,1,right,0.6693,,733.2025,734.5676,1,0,right,734.5696,735.6688,1,0,right,1,735.6688,735.6689,735.6717,737.1679,0,8,8,8,1,0.8,0.2,0.4,0.6,,,,,,,,,,,,,,,0.8345,,0.4,0.6,0.6,0.4,0.8,0.2,0.4,0.6,,,0.5747,,0.2,0.8,0.6,0.4,0.8,0.2,0.8,0.2,1,0
,,60fc60249c2c3912c3b084af,66fce1e9856208184f6af1ef,2024-10-02_08h04.17.701,mdp,2024.2.1,Win32,59.17159763,66fa4ebf79326e780c390304,,,,,,,,,,,,,,,,,,,,,737.1693,737.1694,737.1713,738.2023,0,0,left,0.5084,,738.2053,739.5367,0,0,left,739.5385,740.7183,0,1,left,0,740.7185,740.7185,740.721,742.218,0,9,9,9,1,0.8,0.2,0.4,0.6,,,,,,,,,,,,,,,0.8012,,0.4,0.6,0.6,0.4,0.8,0.2,0.4,0.6,,,0.6519,,0.2,0.8,0.6,0.4,0.8,0.2,0.8,0.2,1,0
,,60fc60249c2c3912c3b084af,66fce1e9856208184f6af1ef,2024-10-02_08h04.17.701,mdp,2024.2.1,Win32,59.17159763,66fa4ebf79326e780c390304,,,,,,,,,,,,,,,,,,,,,742.2194,742.2195,742.2213,743.9184,1,1,right,1.1676,,743.9207,745.0351,1,1,right,745.0374,746.2351,1,0,right,1,746.2352,746.2352,746.2375,747.7348,0,10,10,10,1,0.8,0.2,0.4,0.6,,,,,,,,,,,,,,,0.5809,,0.4,0.6,0.6,0.4,0.4,0.6,0.6,0.4,,,0.6796,,0.2,0.8,0.6,0.4,0.8,0.2,0.8,0.2,1,0
,,60fc60249c2c3912c3b084af,66fce1e9856208184f6af1ef,2024-10-02_08h04.17.701,mdp,2024.2.1,Win32,59.17159763,66fa4ebf79326e780c390304,,,,,,,,,,,,,,,,,,,,,747.7354,747.7356,747.7374,749.1185,0,1,left,0.8531,,749.1206,750.2719,0,0,left,750.2738,751.7185,0,1,left,0,751.7185,751.7185,751.7208,753.2183,0,11,11,11,1,0.8,0.2,0.4,0.6,,,,,,,,,,,,,,,0.6177,,0.4,0.6,0.6,0.4,0.4,0.6,0.6,0.4,,,0.9139,,0.2,0.8,0.6,0.4,0.8,0.2,0.8,0.2,1,0
,,60fc60249c2c3912c3b084af,66fce1e9856208184f6af1ef,2024-10-02_08h04.17.701,mdp,2024.2.1,Win32,59.17159763,66fa4ebf79326e780c390304,,,,,,,,,,,,,,,,,,,,,753.219,753.2191,753.221,756.4515,1,1,right,2.7057,,756.4669,757.4863,1,0,right,757.4882,758.4351,1,1,right,0,758.4353,758.4353,758.4372,759.9352,0,12,12,12,1,0.8,0.2,0.4,0.6,,,,,,,,,,,,,,,0.5086,,0.4,0.6,0.6,0.4,0.4,0.6,0.6,0.4,,,0.4198,,0.2,0.8,0.6,0.4,0.2,0.8,0.4,0.6,1,0
,,60fc60249c2c3912c3b084af,66fce1e9856208184f6af1ef,2024-10-02_08h04.17.701,mdp,2024.2.1,Win32,59.17159763,66fa4ebf79326e780c390304,,,,,,,,,,,,,,,,,,,,,759.9363,759.9363,759.9382,761.4522,0,0,left,0.9838,,761.4545,762.5018,0,1,left,762.504,763.6702,0,1,left,0,763.6703,763.6703,763.6721,765.1683,0,13,13,13,1,0.8,0.2,0.4,0.6,,,,,,,,,,,,,,,0.5171,,0.4,0.6,0.6,0.4,0.4,0.6,0.6,0.4,,,0.6389,,0.2,0.8,0.6,0.4,0.2,0.8,0.4,0.6,1,0
,,60fc60249c2c3912c3b084af,66fce1e9856208184f6af1ef,2024-10-02_08h04.17.701,mdp,2024.2.1,Win32,59.17159763,66fa4ebf79326e780c390304,,,,,,,,,,,,,,,,,,,,,765.1694,765.1694,765.1712,767.2351,1,1,right,1.5345,,767.2374,768.185,1,0,right,768.1876,769.0683,1,0,right,1,769.0684,769.0684,769.0708,770.5687,0,14,14,14,1,0.8,0.2,0.4,0.6,,,,,,,,,,,,,,,0.4148,,0.4,0.6,0.6,0.4,0.4,0.6,0.6,0.4,,,0.3475,,0.2,0.8,0.6,0.4,0.2,0.8,0.4,0.6,1,0
,,60fc60249c2c3912c3b084af,66fce1e9856208184f6af1ef,2024-10-02_08h04.17.701,mdp,2024.2.1,Win32,59.17159763,66fa4ebf79326e780c390304,,,,,,,,,,,,,,,,,,,,,770.5694,770.5695,770.5715,771.6353,1,1,right,0.5346,,771.6374,772.6685,1,1,right,772.671,773.852,1,1,right,0,773.8523,773.8523,773.8544,775.3515,0,15,15,15,1,0.8,0.2,0.4,0.6,,,,,,,,,,,,,,,0.5018,,0.4,0.6,0.6,0.4,0.4,0.6,0.6,0.4,,,0.6477,,0.2,0.8,0.6,0.4,0.2,0.8,0.4,0.6,1,0
,,60fc60249c2c3912c3b084af,66fce1e9856208184f6af1ef,2024-10-02_08h04.17.701,mdp,2024.2.1,Win32,59.17159763,66fa4ebf79326e780c390304,,,,,,,,,,,,,,,,,,,,,775.3521,775.3522,775.3544,776.802,0,0,left,0.9175,,776.8042,777.8185,0,0,left,777.8208,779.3704,0,1,left,0,779.3704,779.3704,779.3723,780.8685,0,16,16,16,1,0.8,0.2,0.4,0.6,,,,,,,,,,,,,,,0.4808,,0.4,0.6,0.6,0.4,0.2,0.8,0.8,0.2,,,1.0221,,0.2,0.8,0.6,0.4,0.2,0.8,0.4,0.6,1,0
,,60fc60249c2c3912c3b084af,66fce1e9856208184f6af1ef,2024-10-02_08h04.17.701,mdp,2024.2.1,Win32,59.17159763,66fa4ebf79326e780c390304,,,,,,,,,,,,,,,,,,,,,780.8692,780.8692,780.8711,783.0686,1,1,right,1.6691,,783.0707,783.9532,1,0,right,783.9555,784.8185,1,1,right,0,784.8186,784.8187,784.821,786.3185,0,17,17,17,1,0.8,0.2,0.4,0.6,,,,,,,,,,,,,,,0.3551,,0.4,0.6,0.6,0.4,0.2,0.8,0.8,0.2,,,0.3341,,0.2,0.8,0.6,0.4,0.2,0.8,0.4,0.6,1,0
,,60fc60249c2c3912c3b084af,66fce1e9856208184f6af1ef,2024-10-02_08h04.17.701,mdp,2024.2.1,Win32,59.17159763,66fa4ebf79326e780c390304,,,,,,,,,,,,,,,,,,,,,786.3193,786.3194,786.3214,790.6518,0,1,left,3.8008,,790.6738,791.5159,0,1,left,791.5187,792.3853,0,1,left,0,792.3856,792.3856,792.3875,793.8833,0,18,18,18,1,0.4,0.6,0.8,0.2,,,,,,,,,,,,,,,0.3366,,0.4,0.6,0.6,0.4,0.2,0.8,0.8,0.2,,,0.3486,,0.2,0.8,0.6,0.4,0.2,0.8,0.4,0.6,1,0
,,60fc60249c2c3912c3b084af,66fce1e9856208184f6af1ef,2024-10-02_08h04.17.701,mdp,2024.2.1,Win32,59.17159763,66fa4ebf79326e780c390304,,,,,,,,,,,,,,,,,,,,,793.885,793.885,793.8877,794.8684,1,0,right,0.451,,794.8713,795.9851,1,1,right,795.9875,796.8028,1,0,right,1,796.803,796.803,796.8062,798.3017,0,19,19,19,1,0.4,0.6,0.8,0.2,,,,,,,,,,,,,,,0.5997,,0.4,0.6,0.6,0.4,0.4,0.6,0.4,0.6,,,0.308,,0.2,0.8,0.6,0.4,0.2,0.8,0.4,0.6,1,0
,,60fc60249c2c3912c3b084af,66fce1e9856208184f6af1ef,2024-10-02_08h04.17.701,mdp,2024.2.1,Win32,59.17159763,66fa4ebf79326e780c390304,,,,,,,,,,,,,,,,,,,,,798.3025,798.3026,798.3044,799.5186,1,0,right,0.684,,799.5208,800.6522,1,0,right,800.6552,801.6853,1,1,right,0,801.6854,801.6854,801.6874,803.1858,0,20,20,20,1,0.4,0.6,0.8,0.2,,,,,,,,,,,,,,,0.601,,0.4,0.6,0.6,0.4,0.6,0.4,0.8,0.2,,,0.496,,0.2,0.8,0.6,0.4,0.2,0.8,0.4,0.6,1,0
,,60fc60249c2c3912c3b084af,66fce1e9856208184f6af1ef,2024-10-02_08h04.17.701,mdp,2024.2.1,Win32,59.17159763,66fa4ebf79326e780c390304,,,,,,,,,,,,,,,,,,,,,803.1871,803.1871,803.1896,805.9684,1,0,right,2.251,,805.9707,806.8522,1,0,right,806.8541,807.6686,1,0,right,1,807.6689,807.6689,807.6712,809.1684,0,21,21,21,1,0.4,0.6,0.8,0.2,,,,,,,,,,,,,,,0.3507,,0.4,0.6,0.6,0.4,0.6,0.4,0.8,0.2,,,0.2876,,0.2,0.8,0.6,0.4,0.2,0.8,0.4,0.6,1,0
,,60fc60249c2c3912c3b084af,66fce1e9856208184f6af1ef,2024-10-02_08h04.17.701,mdp,2024.2.1,Win32,59.17159763,66fa4ebf79326e780c390304,,,,,,,,,,,,,,,,,,,,,809.1691,809.1692,809.171,811.7356,1,1,right,2.0349,,811.7379,812.6668,1,0,right,812.6703,813.6686,1,1,right,0,813.6689,813.6689,813.6713,815.1683,0,22,22,22,1,0.4,0.6,0.8,0.2,,,,,,,,,,,,,,,0.3975,,0.4,0.6,0.6,0.4,0.6,0.4,0.8,0.2,,,0.4885,,0.2,0.8,0.6,0.4,0.2,0.8,0.4,0.6,1,0
,,60fc60249c2c3912c3b084af,66fce1e9856208184f6af1ef,2024-10-02_08h04.17.701,mdp,2024.2.1,Win32,59.17159763,66fa4ebf79326e780c390304,,,,,,,,,,,,,,,,,,,,,815.1689,815.169,815.1713,816.202,1,0,right,0.5026,,816.2044,817.1187,1,0,right,817.1209,818.0521,1,0,right,1,818.0523,818.0523,818.0553,819.5523,0,23,23,23,1,0.4,0.6,0.8,0.2,,,,,,,,,,,,,,,0.381,,0.4,0.6,0.6,0.4,0.6,0.4,0.8,0.2,,,0.4006,,0.2,0.8,0.6,0.4,0.2,0.8,0.4,0.6,1,0
,,60fc60249c2c3912c3b084af,66fce1e9856208184f6af1ef,2024-10-02_08h04.17.701,mdp,2024.2.1,Win32,59.17159763,66fa4ebf79326e780c390304,,,,,,,,,,,,,,,,,,,,,819.5535,819.5535,819.5555,820.6034,0,0,left,0.5256,,820.6057,821.7356,0,1,left,821.7377,822.6522,0,1,left,0,822.6525,822.6525,822.6547,824.1517,0,24,24,24,1,0.4,0.6,0.8,0.2,,,,,,,,,,,,,,,0.6019,,0.4,0.6,0.6,0.4,0.6,0.4,0.8,0.2,,,0.3807,,0.2,0.8,0.6,0.4,0.2,0.8,0.4,0.6,1,0
,,60fc60249c2c3912c3b084af,66fce1e9856208184f6af1ef,2024-10-02_08h04.17.701,mdp,2024.2.1,Win32,59.17159763,66fa4ebf79326e780c390304,,,,,,,,,,,,,,,,,,,,,824.1529,824.1529,824.1549,825.252,1,1,right,0.5674,,825.2541,826.1385,1,0,right,826.1406,827.0019,1,0,right,1,827.0019,827.0019,827.0042,828.5019,0,25,25,25,1,0.2,0.8,0.4,0.6,,,,,,,,,,,,,,,0.3573,,0.4,0.6,0.6,0.4,0.6,0.4,0.8,0.2,,,0.3316,,0.2,0.8,0.6,0.4,0.2,0.8,0.4,0.6,1,0
,,60fc60249c2c3912c3b084af,66fce1e9856208184f6af1ef,2024-10-02_08h04.17.701,mdp,2024.2.1,Win32,59.17159763,66fa4ebf79326e780c390304,,,,,,,,,,,,,,,,,,,,,828.5026,828.5026,828.5046,829.3686,0,1,left,0.3366,,829.3707,830.2522,0,0,left,830.2544,831.5521,1,0,right,1,831.5522,831.5522,831.5546,833.0517,0,26,26,26,1,0.2,0.8,0.4,0.6,,,,,,,,,,,,,,,0.3508,,0.4,0.6,0.6,0.4,0.6,0.4,0.8,0.2,,,0.7691,,0.2,0.8,0.6,0.4,0.2,0.8,0.4,0.6,1,0
,,60fc60249c2c3912c3b084af,66fce1e9856208184f6af1ef,2024-10-02_08h04.17.701,mdp,2024.2.1,Win32,59.17159763,66fa4ebf79326e780c390304,,,,,,,,,,,,,,,,,,,,,833.0524,833.0524,833.0546,834.302,1,0,right,0.7204,,834.3046,836.5688,0,1,left,836.571,837.7853,1,1,right,0,837.7855,837.7855,837.7875,839.2853,0,27,27,27,1,0.2,0.8,0.4,0.6,,,,,,,,,,,,,,,1.7307,,0.4,0.6,0.6,0.4,0.6,0.4,0.8,0.2,,,0.6805,,0.2,0.8,0.6,0.4,0.2,0.8,0.4,0.6,1,0
,,60fc60249c2c3912c3b084af,66fce1e9856208184f6af1ef,2024-10-02_08h04.17.701,mdp,2024.2.1,Win32,59.17159763,66fa4ebf79326e780c390304,,,,,,,,,,,,,,,,,,,,,839.2863,839.2863,839.2884,843.3335,1,0,right,3.5171,,843.35,844.2186,1,0,right,844.2208,845.0355,1,1,right,0,845.0356,845.0356,845.0376,846.5352,0,28,28,28,1,0.2,0.8,0.4,0.6,,,,,,,,,,,,,,,0.3688,,0.4,0.6,0.6,0.4,0.6,0.4,0.8,0.2,,,0.2802,,0.2,0.8,0.6,0.4,0.2,0.8,0.4,0.6,1,0
,,60fc60249c2c3912c3b084af,66fce1e9856208184f6af1ef,2024-10-02_08h04.17.701,mdp,2024.2.1,Win32,59.17159763,66fa4ebf79326e780c390304,,,,,,,,,,,,,,,,,,,,,846.5362,846.5362,846.5382,848.5518,0,0,left,1.4898,,848.5547,849.4037,0,0,left,849.4056,850.152,0,1,left,0,850.1522,850.1522,850.1545,851.6522,0,29,29,29,1,0.2,0.8,0.4,0.6,,,,,,,,,,,,,,,0.3253,,0.4,0.6,0.6,0.4,0.6,0.4,0.8,0.2,,,0.218,,0.2,0.8,0.6,0.4,0.2,0.8,0.4,0.6,1,0
,,60fc60249c2c3912c3b084af,66fce1e9856208184f6af1ef,2024-10-02_08h04.17.701,mdp,2024.2.1,Win32,59.17159763,66fa4ebf79326e780c390304,,,,,,,,,,,,,,,,,,,,,851.653,851.6531,851.6548,852.9206,1,0,right,0.7368,,852.9235,854.0687,1,0,right,854.0712,854.7206,1,1,right,0,854.7207,854.7207,854.7226,856.2187,0,30,30,30,1,0.2,0.8,0.4,0.6,,,,,,,,,,,,,,,0.6186,,0.4,0.6,0.6,0.4,0.6,0.4,0.8,0.2,,,0.1261,,0.2,0.8,0.6,0.4,0.2,0.8,0.4,0.6,1,0
,,60fc60249c2c3912c3b084af,66fce1e9856208184f6af1ef,2024-10-02_08h04.17.701,mdp,2024.2.1,Win32,59.17159763,66fa4ebf79326e780c390304,,,,,,,,,,,,,,,,,,,,,856.2193,856.2194,856.2215,859.802,1,1,right,3.0512,,859.8042,860.7021,1,0,right,860.7041,861.5356,1,0,right,1,861.5356,861.5356,861.5379,863.0353,0,31,31,31,1,0.2,0.8,0.4,0.6,,,,,,,,,,,,,,,0.3639,,0.4,0.6,0.6,0.4,0.6,0.4,0.8,0.2,,,0.3046,,0.2,0.8,0.6,0.4,0.2,0.8,0.4,0.6,1,0
,,60fc60249c2c3912c3b084af,66fce1e9856208184f6af1ef,2024-10-02_08h04.17.701,mdp,2024.2.1,Win32,59.17159763,66fa4ebf79326e780c390304,,,,,,,,,,,,,,,,,,,,,863.0359,863.0359,863.0379,864.0687,1,1,right,0.5009,,864.0715,865.0024,1,1,right,865.0047,866.4189,0,1,left,0,866.419,866.419,866.4214,867.9186,0,32,32,32,1,0.2,0.8,0.4,0.6,,,,,,,,,,,,,,,0.4008,,0.4,0.6,0.6,0.4,0.8,0.2,0.6,0.4,,,0.884,,0.2,0.8,0.6,0.4,0.2,0.8,0.4,0.6,1,0
,,60fc60249c2c3912c3b084af,66fce1e9856208184f6af1ef,2024-10-02_08h04.17.701,mdp,2024.2.1,Win32,59.17159763,66fa4ebf79326e780c390304,,,,,,,,,,,,,,,,,,,,,867.9193,867.9194,867.9213,872.1872,1,1,right,3.7422,,872.2022,873.0191,1,0,right,873.021,873.8677,1,0,right,1,873.8678,873.8678,873.8698,875.3674,0,33,33,33,1,0.2,0.8,0.4,0.6,,,,,,,,,,,,,,,0.3078,,0.4,0.6,0.6,0.4,0.8,0.2,0.6,0.4,,,0.3147,,0.2,0.8,0.6,0.4,0.2,0.8,0.4,0.6,1,0
,,60fc60249c2c3912c3b084af,66fce1e9856208184f6af1ef,2024-10-02_08h04.17.701,mdp,2024.2.1,Win32,59.17159763,66fa4ebf79326e780c390304,,,,,,,,,,,,,,,,,,,,,875.3682,875.3683,875.3703,877.3351,0,0,left,1.4404,,877.337,878.1688,0,0,left,878.1707,879.0676,1,0,right,1,879.0677,879.0677,879.0694,880.5666,0,34,34,34,1,0.2,0.8,0.4,0.6,,,,,,,,,,,,,,,0.305,,0.4,0.6,0.6,0.4,0.8,0.2,0.6,0.4,,,0.3718,,0.2,0.8,0.6,0.4,0.2,0.8,0.4,0.6,1,0
,,60fc60249c2c3912c3b084af,66fce1e9856208184f6af1ef,2024-10-02_08h04.17.701,mdp,2024.2.1,Win32,59.17159763,66fa4ebf79326e780c390304,,,,,,,,,,,,,,,,,,,,,880.5676,880.5677,880.5698,882.6852,1,0,right,1.584,,882.6874,884.4727,0,1,left,884.4755,885.6372,1,1,right,0,885.6375,885.6375,885.6397,887.1354,0,35,35,35,1,0.2,0.8,0.4,0.6,,,,,,,,,,,,,,,1.255,,0.4,0.6,0.6,0.4,0.8,0.2,0.6,0.4,,,0.6388,,0.2,0.8,0.6,0.4,0.2,0.8,0.4,0.6,1,0
,,60fc60249c2c3912c3b084af,66fce1e9856208184f6af1ef,2024-10-02_08h04.17.701,mdp,2024.2.1,Win32,59.17159763,66fa4ebf79326e780c390304,,,,,,,,,,,,,,,,,,,,,887.1363,887.1364,887.1387,888.2525,1,1,right,0.5858,,888.2552,889.2521,1,1,right,889.2544,890.6205,0,1,left,0,890.6206,890.6206,890.6229,892.1187,0,36,36,36,1,0.2,0.8,0.4,0.6,,,,,,,,,,,,,,,0.4614,,0.4,0.6,0.6,0.4,0.8,0.2,0.6,0.4,,,0.8429,,0.2,0.8,0.6,0.4,0.2,0.8,0.4,0.6,1,0
,,60fc60249c2c3912c3b084af,66fce1e9856208184f6af1ef,2024-10-02_08h04.17.701,mdp,2024.2.1,Win32,59.17159763,66fa4ebf79326e780c390304,,,,,,,,,,,,,,,,,,,,,892.1193,892.1193,892.1214,895.6862,1,0,right,3.0355,,895.7023,896.587,1,0,right,896.5903,897.4356,0,1,left,0,897.4358,897.4358,897.438,898.9339,0,37,37,37,1,0.2,0.8,0.4,0.6,,,,,,,,,,,,,,,0.3722,,0.4,0.6,0.6,0.4,0.8,0.2,0.6,0.4,,,0.314,,0.2,0.8,0.6,0.4,0.2,0.8,0.4,0.6,1,0
,,60fc60249c2c3912c3b084af,66fce1e9856208184f6af1ef,2024-10-02_08h04.17.701,mdp,2024.2.1,Win32,59.17159763,66fa4ebf79326e780c390304,,,,,,,,,,,,,,,,,,,,,898.9355,898.9356,898.938,900.7497,0,1,left,1.2841,,900.7528,901.9665,1,0,right,901.9693,902.9166,1,0,right,1,902.9168,902.9168,902.9194,904.4161,0,38,38,38,1,0.2,0.8,0.4,0.6,,,,,,,,,,,,,,,0.682,,0.4,0.6,0.6,0.4,0.8,0.2,0.6,0.4,,,0.4202,,0.2,0.8,0.6,0.4,0.2,0.8,0.4,0.6,1,0
,,60fc60249c2c3912c3b084af,66fce1e9856208184f6af1ef,2024-10-02_08h04.17.701,mdp,2024.2.1,Win32,59.17159763,66fa4ebf79326e780c390304,,,,,,,,,,,,,,,,,,,,,904.4177,904.4177,904.4199,906.5164,0,1,left,1.5614,,906.5193,907.62,1,1,right,907.6221,909.0367,0,1,left,0,909.0369,909.0369,909.0389,910.5336,0,39,39,39,1,0.2,0.8,0.4,0.6,,,,,,,,,,,,,,,0.5924,,0.4,0.6,0.6,0.4,0.8,0.2,0.6,0.4,,,0.8827,,0.2,0.8,0.6,0.4,0.2,0.8,0.4,0.6,1,0
,,60fc60249c2c3912c3b084af,66fce1e9856208184f6af1ef,2024-10-02_08h04.17.701,mdp,2024.2.1,Win32,59.17159763,66fa4ebf79326e780c390304,,,,,,,,,,,,,,,,,,,,,910.5352,910.5352,910.538,912.236,0,1,left,1.1848,,912.2379,913.2523,1,1,right,913.2548,914.6696,1,0,right,1,914.6698,914.6698,914.6724,916.1689,0,40,40,40,1,0.2,0.8,0.4,0.6,,,,,,,,,,,,,,,0.4853,,0.4,0.6,0.6,0.4,0.8,0.2,0.6,0.4,,,0.892,,0.2,0.8,0.6,0.4,0.2,0.8,0.4,0.6,1,0
,,60fc60249c2c3912c3b084af,66fce1e9856208184f6af1ef,2024-10-02_08h04.17.701,mdp,2024.2.1,Win32,59.17159763,66fa4ebf79326e780c390304,,,,,,,,,,,,,,,,,,,,,916.1699,916.1699,916.1717,917.3024,1,1,right,0.6008,,917.3046,918.4204,0,0,left,918.4226,919.6358,1,1,right,0,919.6359,919.636,919.6381,921.1356,0,41,41,41,1,0.2,0.8,0.4,0.6,,,,,,,,,,,,,,,0.5923,,0.4,0.6,0.6,0.4,0.8,0.2,0.6,0.4,,,0.681,,0.2,0.8,0.6,0.4,0.2,0.8,0.4,0.6,1,0
,,60fc60249c2c3912c3b084af,66fce1e9856208184f6af1ef,2024-10-02_08h04.17.701,mdp,2024.2.1,Win32,59.17159763,66fa4ebf79326e780c390304,,,,,,,,,,,,,,,,,,,,,921.1368,921.1368,921.1387,923.4359,1,1,right,1.7713,,923.4379,924.4525,1,0,right,924.4547,925.521,1,0,right,1,925.5211,925.5211,925.5231,927.0186,0,42,42,42,1,0.2,0.8,0.4,0.6,,,,,,,,,,,,,,,0.4859,,0.4,0.6,0.6,0.4,0.8,0.2,0.6,0.4,,,0.5427,,0.4,0.6,0.8,0.2,0.2,0.8,0.4,0.6,1,0
,,60fc60249c2c3912c3b084af,66fce1e9856208184f6af1ef,2024-10-02_08h04.17.701,mdp,2024.2.1,Win32,59.17159763,66fa4ebf79326e780c390304,,,,,,,,,,,,,,,,,,,,,927.0194,927.0195,927.0215,928.669,0,1,left,1.118,,928.6713,930.0021,1,1,right,930.0047,931.4543,1,1,right,0,931.4544,931.4544,931.4564,932.9522,0,43,43,43,1,0.2,0.8,0.4,0.6,,,,,,,,,,,,,,,0.818,,0.4,0.6,0.6,0.4,0.8,0.2,0.6,0.4,,,0.9226,,0.4,0.6,0.8,0.2,0.2,0.8,0.4,0.6,1,0
,,60fc60249c2c3912c3b084af,66fce1e9856208184f6af1ef,2024-10-02_08h04.17.701,mdp,2024.2.1,Win32,59.17159763,66fa4ebf79326e780c390304,,,,,,,,,,,,,,,,,,,,,932.9529,932.9529,932.9548,934.3359,1,1,right,0.8535,,934.3381,935.5034,1,0,right,935.5055,936.5034,1,0,right,1,936.5035,936.5035,936.5062,938.0021,0,44,44,44,1,0.2,0.8,0.4,0.6,,,,,,,,,,,,,,,0.6421,,0.4,0.6,0.6,0.4,0.8,0.2,0.6,0.4,,,0.4712,,0.4,0.6,0.8,0.2,0.2,0.8,0.4,0.6,1,0
,,60fc60249c2c3912c3b084af,66fce1e9856208184f6af1ef,2024-10-02_08h04.17.701,mdp,2024.2.1,Win32,59.17159763,66fa4ebf79326e780c390304,,,,,,,,,,,,,,,,,,,,,938.0029,938.0029,938.0048,939.1338,1,0,right,0.6029,,939.1372,940.4034,0,0,left,940.4057,941.4691,1,0,right,1,941.4692,941.4692,941.4713,942.9691,0,45,45,45,1,0.2,0.8,0.4,0.6,,,,,,,,,,,,,,,0.7558,,0.4,0.6,0.6,0.4,0.8,0.2,0.6,0.4,,,0.5375,,0.4,0.6,0.8,0.2,0.2,0.8,0.4,0.6,1,0
,,60fc60249c2c3912c3b084af,66fce1e9856208184f6af1ef,2024-10-02_08h04.17.701,mdp,2024.2.1,Win32,59.17159763,66fa4ebf79326e780c390304,,,,,,,,,,,,,,,,,,,,,942.9698,942.9699,942.9718,944.919,1,0,right,1.4175,,944.9213,946.9857,0,0,left,946.9879,948.004,1,0,right,1,948.0041,948.0041,948.0062,949.5023,0,46,46,46,1,0.2,0.8,0.4,0.6,,,,,,,,,,,,,,,1.535,,0.4,0.6,0.6,0.4,0.8,0.2,0.6,0.4,,,0.4924,,0.4,0.6,0.8,0.2,0.2,0.8,0.4,0.6,1,0
,,60fc60249c2c3912c3b084af,66fce1e9856208184f6af1ef,2024-10-02_08h04.17.701,mdp,2024.2.1,Win32,59.17159763,66fa4ebf79326e780c390304,,,,,,,,,,,,,,,,,,,,,949.5029,949.5029,949.505,951.4191,1,1,right,1.3844,,951.4213,953.1861,1,1,right,953.1883,954.8854,0,1,left,0,954.8855,954.8856,954.8885,956.3856,0,47,47,47,1,0.2,0.8,0.4,0.6,,,,,,,,,,,,,,,1.2313,,0.4,0.6,0.6,0.4,0.8,0.2,0.6,0.4,,,1.164,,0.4,0.6,0.8,0.2,0.2,0.8,0.4,0.6,1,0
,,60fc60249c2c3912c3b084af,66fce1e9856208184f6af1ef,2024-10-02_08h04.17.701,mdp,2024.2.1,Win32,59.17159763,66fa4ebf79326e780c390304,,,,,,,,,,,,,,,,,,,,,956.3862,956.3863,956.3884,957.4863,1,1,right,0.5662,,957.4884,958.6026,1,1,right,958.6048,959.8535,0,1,left,0,959.8536,959.8536,959.8554,961.3523,0,48,48,48,1,0.2,0.8,0.4,0.6,,,,,,,,,,,,,,,0.5842,,0.4,0.6,0.6,0.4,0.8,0.2,0.6,0.4,,,0.7256,,0.4,0.6,0.8,0.2,0.2,0.8,0.4,0.6,1,0
,,60fc60249c2c3912c3b084af,66fce1e9856208184f6af1ef,2024-10-02_08h04.17.701,mdp,2024.2.1,Win32,59.17159763,66fa4ebf79326e780c390304,,,,,,,,,,,,,,,,,,,,,961.353,961.353,961.3549,962.8861,1,0,right,1.0013,,962.8884,964.3694,0,1,left,964.3715,966.1192,1,1,right,0,966.1193,966.1193,966.1213,967.6186,0,49,49,49,1,0.2,0.8,0.4,0.6,,,,,,,,,,,,,,,0.9475,,0.4,0.6,0.6,0.4,0.8,0.2,0.6,0.4,,,1.2229,,0.4,0.6,0.8,0.2,0.2,0.8,0.4,0.6,1,0
,,60fc60249c2c3912c3b084af,66fce1e9856208184f6af1ef,2024-10-02_08h04.17.701,mdp,2024.2.1,Win32,59.17159763,66fa4ebf79326e780c390304,,,,,,,,,,,,,,,,,,,,,,,,,,,,,,,,,,,,,,,,,,,,,,,,,,,,,,,,967.6188,1026.1358,0,2,2,1,1,imgs/kangaroo.png,imgs/goat.png,imgs/rabbit.png,imgs/horse.png,imgs/pig.png,,,,,,,,,,,,,,,,,,,,,,,,
,,60fc60249c2c3912c3b084af,66fce1e9856208184f6af1ef,2024-10-02_08h04.17.701,mdp,2024.2.1,Win32,59.17159763,66fa4ebf79326e780c390304,,,,,,,,,,,,,,3,seqs/st3seq38.csv,1026.1541,1039.4695,space,12.7849,,1039.4959,1039.496,1039.4978,1040.9361,1,1,right,0.9145,,1040.9384,1042.506,0,0,left,1042.5082,1044.0195,0,1,left,0,1044.0195,1044.0196,1044.022,1045.5196,0,0,0,0,1,0.2,0.8,0.6,0.4,,,,,,,,,,,,,,,1.03,,0.2,0.8,0.4,0.6,0.6,0.4,0.4,0.6,,,0.976,,0.2,0.8,0.6,0.4,0.6,0.4,0.2,0.8,1,0
,,60fc60249c2c3912c3b084af,66fce1e9856208184f6af1ef,2024-10-02_08h04.17.701,mdp,2024.2.1,Win32,59.17159763,66fa4ebf79326e780c390304,,,,,,,,,,,,,,,,,,,,,1045.5206,1045.5207,1045.5227,1047.0038,1,0,right,0.959,,1047.0061,1048.4198,1,0,right,1048.4219,1049.8208,0,1,left,0,1049.8211,1049.8212,1049.823,1051.3193,0,1,1,1,1,0.2,0.8,0.6,0.4,,,,,,,,,,,,,,,0.8766,,0.2,0.8,0.4,0.6,0.6,0.4,0.4,0.6,,,0.8751,,0.2,0.8,0.6,0.4,0.6,0.4,0.2,0.8,1,0
,,60fc60249c2c3912c3b084af,66fce1e9856208184f6af1ef,2024-10-02_08h04.17.701,mdp,2024.2.1,Win32,59.17159763,66fa4ebf79326e780c390304,,,,,,,,,,,,,,,,,,,,,1051.3198,1051.3199,1051.322,1052.5362,1,1,right,0.6844,,1052.5387,1053.9197,1,0,right,1053.9217,1055.0697,1,1,right,0,1055.0697,1055.0697,1055.0717,1056.5692,0,2,2,2,1,0.2,0.8,0.6,0.4,,,,,,,,,,,,,,,0.8475,,0.2,0.8,0.4,0.6,0.6,0.4,0.4,0.6,,,0.6212,,0.2,0.8,0.6,0.4,0.6,0.4,0.2,0.8,1,0
,,60fc60249c2c3912c3b084af,66fce1e9856208184f6af1ef,2024-10-02_08h04.17.701,mdp,2024.2.1,Win32,59.17159763,66fa4ebf79326e780c390304,,,,,,,,,,,,,,,,,,,,,1056.5701,1056.5702,1056.572,1057.9698,1,0,right,0.8679,,1057.9719,1059.4876,1,0,right,1059.4904,1060.7028,1,0,right,1,1060.7029,1060.7029,1060.7058,1062.2031,0,3,3,3,1,0.2,0.8,0.6,0.4,,,,,,,,,,,,,,,0.9814,,0.2,0.8,0.4,0.6,0.6,0.4,0.4,0.6,,,0.6851,,0.2,0.8,0.6,0.4,0.6,0.4,0.2,0.8,1,0
,,60fc60249c2c3912c3b084af,66fce1e9856208184f6af1ef,2024-10-02_08h04.17.701,mdp,2024.2.1,Win32,59.17159763,66fa4ebf79326e780c390304,,,,,,,,,,,,,,,,,,,,,1062.2039,1062.2039,1062.2057,1063.4196,1,1,right,0.685,,1063.4217,1065.0529,0,0,left,1065.0549,1067.5697,1,0,right,1,1067.5698,1067.5698,1067.5843,1069.0695,0,4,4,4,1,0.2,0.8,0.6,0.4,,,,,,,,,,,,,,,1.098,,0.2,0.8,0.4,0.6,0.6,0.4,0.4,0.6,,,1.9858,,0.2,0.8,0.6,0.4,0.6,0.4,0.2,0.8,1,0
,,60fc60249c2c3912c3b084af,66fce1e9856208184f6af1ef,2024-10-02_08h04.17.701,mdp,2024.2.1,Win32,59.17159763,66fa4ebf79326e780c390304,,,,,,,,,,,,,,,,,,,,,1069.0702,1069.0703,1069.0723,1070.4201,1,0,right,0.8181,,1070.422,1071.9527,0,0,left,1071.9552,1073.0871,1,1,right,0,1073.0873,1073.0873,1073.0896,1074.586,0,5,5,5,1,0.2,0.8,0.6,0.4,,,,,,,,,,,,,,,1.0016,,0.2,0.8,0.4,0.6,0.6,0.4,0.4,0.6,,,0.6089,,0.2,0.8,0.6,0.4,0.6,0.4,0.2,0.8,1,0
,,60fc60249c2c3912c3b084af,66fce1e9856208184f6af1ef,2024-10-02_08h04.17.701,mdp,2024.2.1,Win32,59.17159763,66fa4ebf79326e780c390304,,,,,,,,,,,,,,,,,,,,,1074.5867,1074.5868,1074.5887,1077.686,1,1,right,2.568,,1077.7045,1079.1183,0,0,left,1079.1201,1080.2024,1,0,right,1,1080.2025,1080.2026,1080.2046,1081.7016,0,6,6,6,1,0.2,0.8,0.6,0.4,,,,,,,,,,,,,,,0.9017,,0.2,0.8,0.4,0.6,0.6,0.4,0.4,0.6,,,0.5719,,0.2,0.8,0.6,0.4,0.6,0.4,0.2,0.8,1,0
,,60fc60249c2c3912c3b084af,66fce1e9856208184f6af1ef,2024-10-02_08h04.17.701,mdp,2024.2.1,Win32,59.17159763,66fa4ebf79326e780c390304,,,,,,,,,,,,,,,,,,,,,1081.7022,1081.7022,1081.7042,1083.0849,1,0,right,0.8513,,1083.0868,1084.5204,1,1,right,1084.5235,1086.2381,0,0,left,1,1086.2382,1086.2382,1086.2399,1087.7361,0,7,7,7,1,0.2,0.8,0.6,0.4,,,,,,,,,,,,,,,0.8998,,0.2,0.8,0.4,0.6,0.6,0.4,0.4,0.6,,,1.1761,,0.2,0.8,0.6,0.4,0.6,0.4,0.2,0.8,1,0
,,60fc60249c2c3912c3b084af,66fce1e9856208184f6af1ef,2024-10-02_08h04.17.701,mdp,2024.2.1,Win32,59.17159763,66fa4ebf79326e780c390304,,,,,,,,,,,,,,,,,,,,,1087.7367,1087.7368,1087.7391,1089.1196,1,0,right,0.8508,,1089.1217,1090.9027,0,1,left,1090.9054,1092.136,1,0,right,1,1092.1361,1092.1362,1092.1381,1093.636,0,8,8,8,1,0.2,0.8,0.6,0.4,,,,,,,,,,,,,,,1.2511,,0.2,0.8,0.4,0.6,0.6,0.4,0.4,0.6,,,0.7018,,0.2,0.8,0.6,0.4,0.6,0.4,0.2,0.8,1,0
,,60fc60249c2c3912c3b084af,66fce1e9856208184f6af1ef,2024-10-02_08h04.17.701,mdp,2024.2.1,Win32,59.17159763,66fa4ebf79326e780c390304,,,,,,,,,,,,,,,,,,,,,1093.6368,1093.6368,1093.6405,1094.9709,1,0,right,0.8098,,1094.973,1096.4877,0,1,left,1096.4901,1097.5362,1,1,right,0,1097.5364,1097.5364,1097.5382,1099.0357,0,9,9,9,1,0.2,0.8,0.6,0.4,,,,,,,,,,,,,,,0.9867,,0.2,0.8,0.4,0.6,0.6,0.4,0.4,0.6,,,0.518,,0.2,0.8,0.6,0.4,0.6,0.4,0.2,0.8,1,0
,,60fc60249c2c3912c3b084af,66fce1e9856208184f6af1ef,2024-10-02_08h04.17.701,mdp,2024.2.1,Win32,59.17159763,66fa4ebf79326e780c390304,,,,,,,,,,,,,,,,,,,,,1099.0367,1099.0368,1099.039,1100.1213,1,0,right,0.5589,,1100.1235,1101.4864,0,1,left,1101.4883,1102.5527,1,1,right,0,1102.5528,1102.5529,1102.5554,1104.0526,0,10,10,10,1,0.2,0.8,0.6,0.4,,,,,,,,,,,,,,,0.8355,,0.2,0.8,0.4,0.6,0.6,0.4,0.4,0.6,,,0.5343,,0.2,0.8,0.6,0.4,0.6,0.4,0.2,0.8,1,0
,,60fc60249c2c3912c3b084af,66fce1e9856208184f6af1ef,2024-10-02_08h04.17.701,mdp,2024.2.1,Win32,59.17159763,66fa4ebf79326e780c390304,,,,,,,,,,,,,,,,,,,,,1104.0535,1104.0536,1104.0559,1109.8195,1,1,right,5.2342,,1109.8359,1111.4361,0,0,left,1111.4383,1112.6028,1,1,right,0,1112.6029,1112.6031,1112.605,1114.1026,0,11,11,11,1,0.2,0.8,0.6,0.4,,,,,,,,,,,,,,,1.081,,0.2,0.8,0.4,0.6,0.6,0.4,0.4,0.6,,,0.6298,,0.2,0.8,0.6,0.4,0.6,0.4,0.2,0.8,1,0
,,60fc60249c2c3912c3b084af,66fce1e9856208184f6af1ef,2024-10-02_08h04.17.701,mdp,2024.2.1,Win32,59.17159763,66fa4ebf79326e780c390304,,,,,,,,,,,,,,,,,,,,,1114.1036,1114.1036,1114.1056,1122.4366,1,1,right,7.8009,,1122.4538,1123.7695,1,1,right,1123.7719,1125.0035,1,1,right,0,1125.0036,1125.0037,1125.0059,1126.5032,0,12,12,12,1,0.2,0.8,0.6,0.4,,,,,,,,,,,,,,,0.8005,,0.2,0.8,0.4,0.6,0.6,0.4,0.4,0.6,,,0.6975,,0.2,0.8,0.6,0.4,0.6,0.4,0.2,0.8,1,0
,,60fc60249c2c3912c3b084af,66fce1e9856208184f6af1ef,2024-10-02_08h04.17.701,mdp,2024.2.1,Win32,59.17159763,66fa4ebf79326e780c390304,,,,,,,,,,,,,,,,,,,,,1126.5041,1126.5042,1126.5064,1130.2862,1,0,right,3.2516,,1130.3026,1131.6717,0,1,left,1131.6737,1132.9862,1,1,right,0,1132.9863,1132.9863,1132.9888,1134.4859,0,13,13,13,1,0.2,0.8,0.6,0.4,,,,,,,,,,,,,,,0.856,,0.2,0.8,0.4,0.6,0.6,0.4,0.4,0.6,,,0.7843,,0.2,0.8,0.6,0.4,0.6,0.4,0.2,0.8,1,0
,,60fc60249c2c3912c3b084af,66fce1e9856208184f6af1ef,2024-10-02_08h04.17.701,mdp,2024.2.1,Win32,59.17159763,66fa4ebf79326e780c390304,,,,,,,,,,,,,,,,,,,,,1134.4869,1134.487,1134.4893,1139.355,1,0,right,4.3348,,1139.3732,1140.9535,1,1,right,1140.9554,1141.7534,1,1,right,0,1141.7537,1141.7537,1141.7558,1143.2522,0,14,14,14,1,0.2,0.8,0.6,0.4,,,,,,,,,,,,,,,1.0676,,0.2,0.8,0.4,0.6,0.6,0.4,0.4,0.6,,,0.2673,,0.2,0.8,0.6,0.4,0.6,0.4,0.2,0.8,1,0
,,60fc60249c2c3912c3b084af,66fce1e9856208184f6af1ef,2024-10-02_08h04.17.701,mdp,2024.2.1,Win32,59.17159763,66fa4ebf79326e780c390304,,,,,,,,,,,,,,,,,,,,,1143.2532,1143.2532,1143.2564,1147.9041,1,1,right,4.1244,,1147.9189,1149.2879,0,0,left,1149.29,1150.2037,1,0,right,1,1150.2038,1150.2038,1150.2059,1151.7046,0,15,15,15,1,0.2,0.8,0.6,0.4,,,,,,,,,,,,,,,0.8556,,0.2,0.8,0.4,0.6,0.6,0.4,0.4,0.6,,,0.3811,,0.2,0.8,0.6,0.4,0.6,0.4,0.2,0.8,1,0
,,60fc60249c2c3912c3b084af,66fce1e9856208184f6af1ef,2024-10-02_08h04.17.701,mdp,2024.2.1,Win32,59.17159763,66fa4ebf79326e780c390304,,,,,,,,,,,,,,,,,,,,,1151.7063,1151.7064,1151.7083,1155.2696,1,0,right,3.039,,1155.2727,1156.6036,0,1,left,1156.606,1157.8367,1,1,right,0,1157.8369,1157.8369,1157.8391,1159.3344,0,16,16,16,1,0.2,0.8,0.6,0.4,,,,,,,,,,,,,,,0.8128,,0.2,0.8,0.4,0.6,0.6,0.4,0.4,0.6,,,0.6981,,0.2,0.8,0.6,0.4,0.6,0.4,0.2,0.8,1,0
,,60fc60249c2c3912c3b084af,66fce1e9856208184f6af1ef,2024-10-02_08h04.17.701,mdp,2024.2.1,Win32,59.17159763,66fa4ebf79326e780c390304,,,,,,,,,,,,,,,,,,,,,1159.336,1159.336,1159.3388,1162.0034,1,1,right,2.1342,,1162.019,1163.8868,1,1,right,1163.889,1165.0702,1,1,right,0,1165.0703,1165.0703,1165.0724,1166.5699,0,17,17,17,1,0.2,0.8,0.6,0.4,,,,,,,,,,,,,,,1.3493,,0.2,0.8,0.4,0.6,0.6,0.4,0.4,0.6,,,0.6494,,0.2,0.8,0.6,0.4,0.6,0.4,0.2,0.8,1,0
,,60fc60249c2c3912c3b084af,66fce1e9856208184f6af1ef,2024-10-02_08h04.17.701,mdp,2024.2.1,Win32,59.17159763,66fa4ebf79326e780c390304,,,,,,,,,,,,,,,,,,,,,1166.5711,1166.5711,1166.5729,1171.1867,1,0,right,4.0843,,1171.2018,1172.4035,0,1,left,1172.4057,1173.4366,1,1,right,0,1173.4368,1173.4369,1173.439,1174.9353,0,18,18,18,1,0.2,0.8,0.6,0.4,,,,,,,,,,,,,,,0.6798,,0.2,0.8,0.4,0.6,0.6,0.4,0.4,0.6,,,0.5005,,0.8,0.2,0.8,0.2,0.6,0.4,0.2,0.8,1,0
,,60fc60249c2c3912c3b084af,66fce1e9856208184f6af1ef,2024-10-02_08h04.17.701,mdp,2024.2.1,Win32,59.17159763,66fa4ebf79326e780c390304,,,,,,,,,,,,,,,,,,,,,1174.9369,1174.9369,1174.9391,1184.9701,1,0,right,9.5033,,1184.9724,1186.1537,0,1,left,1186.1559,1186.9036,1,0,right,1,1186.9037,1186.9037,1186.9061,1188.4028,0,19,19,19,1,0.2,0.8,0.6,0.4,,,,,,,,,,,,,,,0.6507,,0.2,0.8,0.4,0.6,0.6,0.4,0.4,0.6,,,0.2178,,0.8,0.2,0.8,0.2,0.6,0.4,0.2,0.8,1,0
,,60fc60249c2c3912c3b084af,66fce1e9856208184f6af1ef,2024-10-02_08h04.17.701,mdp,2024.2.1,Win32,59.17159763,66fa4ebf79326e780c390304,,,,,,,,,,,,,,,,,,,,,1188.4042,1188.4043,1188.4061,1189.4703,1,1,right,0.5343,,1189.4724,1190.8869,1,0,right,1190.8889,1191.7713,1,0,right,1,1191.7714,1191.7714,1191.7732,1193.27,0,20,20,20,1,0.2,0.8,0.6,0.4,,,,,,,,,,,,,,,0.8801,,0.2,0.8,0.4,0.6,0.6,0.4,0.4,0.6,,,0.3552,,0.8,0.2,0.8,0.2,0.6,0.4,0.2,0.8,1,0
,,60fc60249c2c3912c3b084af,66fce1e9856208184f6af1ef,2024-10-02_08h04.17.701,mdp,2024.2.1,Win32,59.17159763,66fa4ebf79326e780c390304,,,,,,,,,,,,,,,,,,,,,1193.2707,1193.2707,1193.2727,1196.5369,1,1,right,2.7351,,1196.5526,1197.57,1,1,right,1197.5722,1198.4379,1,1,right,0,1198.438,1198.4381,1198.4401,1199.9365,0,21,21,21,1,0.2,0.8,0.6,0.4,,,,,,,,,,,,,,,0.5016,,0.2,0.8,0.4,0.6,0.2,0.8,0.6,0.4,,,0.3553,,0.8,0.2,0.8,0.2,0.6,0.4,0.2,0.8,1,0
,,60fc60249c2c3912c3b084af,66fce1e9856208184f6af1ef,2024-10-02_08h04.17.701,mdp,2024.2.1,Win32,59.17159763,66fa4ebf79326e780c390304,,,,,,,,,,,,,,,,,,,,,1199.9373,1199.9376,1199.9395,1201.5902,1,1,right,1.1262,,1201.5927,1202.7876,1,0,right,1202.7918,1203.87,0,0,left,1,1203.8701,1203.8701,1203.8722,1205.3709,0,22,22,22,1,0.2,0.8,0.6,0.4,,,,,,,,,,,,,,,0.6744,,0.2,0.8,0.4,0.6,0.2,0.8,0.6,0.4,,,0.5387,,0.8,0.2,0.8,0.2,0.6,0.4,0.2,0.8,1,0
,,60fc60249c2c3912c3b084af,66fce1e9856208184f6af1ef,2024-10-02_08h04.17.701,mdp,2024.2.1,Win32,59.17159763,66fa4ebf79326e780c390304,,,,,,,,,,,,,,,,,,,,,1205.3717,1205.3717,1205.3742,1206.6722,1,0,right,0.7762,,1206.6754,1208.2694,0,0,left,1208.2718,1209.2356,1,0,right,1,1209.2357,1209.2357,1209.2375,1210.7364,0,23,23,23,1,0.2,0.8,0.6,0.4,,,,,,,,,,,,,,,1.0632,,0.2,0.8,0.4,0.6,0.2,0.8,0.6,0.4,,,0.4507,,0.8,0.2,0.8,0.2,0.8,0.2,0.8,0.2,1,0
,,60fc60249c2c3912c3b084af,66fce1e9856208184f6af1ef,2024-10-02_08h04.17.701,mdp,2024.2.1,Win32,59.17159763,66fa4ebf79326e780c390304,,,,,,,,,,,,,,,,,,,,,1210.7376,1210.7376,1210.7396,1212.0378,1,1,right,0.7701,,1212.0401,1213.3384,1,0,right,1213.3415,1214.4198,1,0,right,1,1214.4202,1214.4202,1214.4226,1215.92,0,24,24,24,1,0.2,0.8,0.6,0.4,,,,,,,,,,,,,,,0.7684,,0.2,0.8,0.4,0.6,0.2,0.8,0.6,0.4,,,0.5523,,0.8,0.2,0.8,0.2,0.8,0.2,0.8,0.2,1,0
,,60fc60249c2c3912c3b084af,66fce1e9856208184f6af1ef,2024-10-02_08h04.17.701,mdp,2024.2.1,Win32,59.17159763,66fa4ebf79326e780c390304,,,,,,,,,,,,,,,,,,,,,1215.9213,1215.9213,1215.9234,1219.187,1,1,right,2.7346,,1219.1893,1220.3536,1,1,right,1220.3561,1221.7201,1,0,right,1,1221.7203,1221.7203,1221.7225,1223.22,0,25,25,25,1,0.2,0.8,0.6,0.4,,,,,,,,,,,,,,,0.6344,,0.2,0.8,0.4,0.6,0.2,0.8,0.6,0.4,,,0.8303,,0.8,0.2,0.8,0.2,0.8,0.2,0.8,0.2,1,0
,,60fc60249c2c3912c3b084af,66fce1e9856208184f6af1ef,2024-10-02_08h04.17.701,mdp,2024.2.1,Win32,59.17159763,66fa4ebf79326e780c390304,,,,,,,,,,,,,,,,,,,,,1223.2206,1223.2207,1223.2226,1224.6702,1,0,right,0.9161,,1224.6723,1226.0702,0,1,left,1226.0724,1227.104,1,1,right,0,1227.104,1227.104,1227.1061,1228.6038,0,26,26,26,1,0.2,0.8,0.6,0.4,,,,,,,,,,,,,,,0.8568,,0.2,0.8,0.4,0.6,0.2,0.8,0.6,0.4,,,0.5011,,0.8,0.2,0.8,0.2,0.8,0.2,0.8,0.2,1,0
,,60fc60249c2c3912c3b084af,66fce1e9856208184f6af1ef,2024-10-02_08h04.17.701,mdp,2024.2.1,Win32,59.17159763,66fa4ebf79326e780c390304,,,,,,,,,,,,,,,,,,,,,1228.6045,1228.6045,1228.6065,1230.4368,1,1,right,1.3049,,1230.4391,1231.537,1,1,right,1231.5392,1232.6869,1,0,right,1,1232.687,1232.687,1232.6895,1234.1867,0,27,27,27,1,0.2,0.8,0.6,0.4,,,,,,,,,,,,,,,0.5796,,0.2,0.8,0.4,0.6,0.2,0.8,0.6,0.4,,,0.6214,,0.8,0.2,0.8,0.2,0.8,0.2,0.8,0.2,1,0
,,60fc60249c2c3912c3b084af,66fce1e9856208184f6af1ef,2024-10-02_08h04.17.701,mdp,2024.2.1,Win32,59.17159763,66fa4ebf79326e780c390304,,,,,,,,,,,,,,,,,,,,,1234.1874,1234.1875,1234.1896,1237.0038,1,0,right,2.286,,1237.006,1238.6218,1,1,right,1238.6241,1239.2537,1,0,right,1,1239.2538,1239.2538,1239.2558,1240.7532,0,28,28,28,1,0.2,0.8,0.6,0.4,,,,,,,,,,,,,,,1.0887,,0.2,0.8,0.4,0.6,0.2,0.8,0.6,0.4,,,0.1048,,0.8,0.2,0.8,0.2,0.8,0.2,0.8,0.2,1,0
,,60fc60249c2c3912c3b084af,66fce1e9856208184f6af1ef,2024-10-02_08h04.17.701,mdp,2024.2.1,Win32,59.17159763,66fa4ebf79326e780c390304,,,,,,,,,,,,,,,,,,,,,1240.7546,1240.7546,1240.7564,1242.2038,1,1,right,0.9202,,1242.206,1244.2036,1,1,right,1244.2062,1245.3368,1,0,right,1,1245.3368,1245.3368,1245.3396,1246.8351,0,29,29,29,1,0.2,0.8,0.6,0.4,,,,,,,,,,,,,,,1.4611,,0.2,0.8,0.4,0.6,0.2,0.8,0.6,0.4,,,0.6007,,0.8,0.2,0.8,0.2,0.8,0.2,0.8,0.2,1,0
,,60fc60249c2c3912c3b084af,66fce1e9856208184f6af1ef,2024-10-02_08h04.17.701,mdp,2024.2.1,Win32,59.17159763,66fa4ebf79326e780c390304,,,,,,,,,,,,,,,,,,,,,1246.8358,1246.8359,1246.8379,1247.8853,1,0,right,0.5174,,1247.8873,1249.2188,1,0,right,1249.2215,1250.0519,1,1,right,0,1250.0522,1250.0523,1250.0541,1251.5521,0,30,30,30,1,0.2,0.8,0.6,0.4,,,,,,,,,,,,,,,0.7964,,0.2,0.8,0.4,0.6,0.2,0.8,0.6,0.4,,,0.2972,,0.8,0.2,0.8,0.2,0.8,0.2,0.8,0.2,1,0
,,60fc60249c2c3912c3b084af,66fce1e9856208184f6af1ef,2024-10-02_08h04.17.701,mdp,2024.2.1,Win32,59.17159763,66fa4ebf79326e780c390304,,,,,,,,,,,,,,,,,,,,,1251.5529,1251.553,1251.555,1257.5032,1,0,right,5.4183,0.0002,1257.5258,1258.8206,1,1,right,1258.8236,1259.9205,1,0,right,1,1259.9205,1259.9206,1259.9227,1261.4202,0,31,31,31,1,0.2,0.8,0.6,0.4,,,,,,,,,,,,,,,0.8078,,0.2,0.8,0.4,0.6,0.2,0.8,0.6,0.4,,,0.5631,,0.8,0.2,0.8,0.2,0.8,0.2,0.8,0.2,1,0
,,60fc60249c2c3912c3b084af,66fce1e9856208184f6af1ef,2024-10-02_08h04.17.701,mdp,2024.2.1,Win32,59.17159763,66fa4ebf79326e780c390304,,,,,,,,,,,,,,,,,,,,,1261.4212,1261.4212,1261.4232,1263.4371,1,0,right,1.4847,,1263.4394,1264.8887,1,0,right,1264.8911,1266.0206,1,1,right,0,1266.0207,1266.0207,1266.0227,1267.5203,0,32,32,32,1,0.2,0.8,0.6,0.4,,,,,,,,,,,,,,,0.9259,,0.2,0.8,0.4,0.6,0.2,0.8,0.6,0.4,,,0.5981,,0.2,0.8,0.4,0.6,0.8,0.2,0.8,0.2,1,0
,,60fc60249c2c3912c3b084af,66fce1e9856208184f6af1ef,2024-10-02_08h04.17.701,mdp,2024.2.1,Win32,59.17159763,66fa4ebf79326e780c390304,,,,,,,,,,,,,,,,,,,,,1267.5209,1267.521,1267.5232,1269.0208,1,1,right,0.9678,,1269.0231,1270.237,1,1,right,1270.2392,1271.3555,1,0,right,1,1271.3557,1271.3557,1271.358,1272.8538,0,33,33,33,1,0.2,0.8,0.6,0.4,,,,,,,,,,,,,,,0.6808,,0.2,0.8,0.4,0.6,0.2,0.8,0.6,0.4,,,0.588,,0.2,0.8,0.4,0.6,0.8,0.2,0.8,0.2,1,0
,,60fc60249c2c3912c3b084af,66fce1e9856208184f6af1ef,2024-10-02_08h04.17.701,mdp,2024.2.1,Win32,59.17159763,66fa4ebf79326e780c390304,,,,,,,,,,,,,,,,,,,,,1272.8547,1272.8547,1272.8565,1275.0204,1,1,right,1.6341,,1275.0225,1276.1541,1,1,right,1276.1561,1277.187,1,0,right,1,1277.1871,1277.1871,1277.1891,1278.6868,0,34,34,34,1,0.2,0.8,0.6,0.4,,,,,,,,,,,,,,,0.601,,0.2,0.8,0.4,0.6,0.2,0.8,0.6,0.4,,,0.5033,,0.2,0.8,0.4,0.6,0.8,0.2,0.8,0.2,1,0
,,60fc60249c2c3912c3b084af,66fce1e9856208184f6af1ef,2024-10-02_08h04.17.701,mdp,2024.2.1,Win32,59.17159763,66fa4ebf79326e780c390304,,,,,,,,,,,,,,,,,,,,,1278.6877,1278.6878,1278.6897,1279.7538,1,0,right,0.5363,,1279.7558,1281.0372,0,1,left,1281.0391,1281.9871,1,0,right,1,1281.9872,1281.9872,1281.9892,1283.4869,0,35,35,35,1,0.2,0.8,0.6,0.4,,,,,,,,,,,,,,,0.7504,,0.2,0.8,0.4,0.6,0.2,0.8,0.6,0.4,,,0.4205,,0.2,0.8,0.4,0.6,0.8,0.2,0.8,0.2,1,0
,,60fc60249c2c3912c3b084af,66fce1e9856208184f6af1ef,2024-10-02_08h04.17.701,mdp,2024.2.1,Win32,59.17159763,66fa4ebf79326e780c390304,,,,,,,,,,,,,,,,,,,,,1283.4877,1283.4877,1283.4896,1284.6869,1,0,right,0.6678,,1284.6893,1285.9371,0,0,left,1285.9394,1287.4369,1,0,right,1,1287.437,1287.4371,1287.4393,1288.937,0,36,36,36,1,0.2,0.8,0.6,0.4,,,,,,,,,,,,,,,0.7198,,0.2,0.8,0.4,0.6,0.2,0.8,0.6,0.4,,,0.9667,,0.2,0.8,0.4,0.6,0.8,0.2,0.8,0.2,1,0
,,60fc60249c2c3912c3b084af,66fce1e9856208184f6af1ef,2024-10-02_08h04.17.701,mdp,2024.2.1,Win32,59.17159763,66fa4ebf79326e780c390304,,,,,,,,,,,,,,,,,,,,,1288.938,1288.938,1288.9399,1290.4015,1,0,right,0.936,,1290.4043,1291.7177,0,1,left,1291.7207,1292.7681,1,0,right,1,1292.7682,1292.7682,1292.7711,1294.2678,0,37,37,37,1,0.2,0.8,0.6,0.4,,,,,,,,,,,,,,,0.7853,,0.2,0.8,0.4,0.6,0.2,0.8,0.6,0.4,,,0.513,,0.2,0.8,0.4,0.6,0.8,0.2,0.8,0.2,1,0
,,60fc60249c2c3912c3b084af,66fce1e9856208184f6af1ef,2024-10-02_08h04.17.701,mdp,2024.2.1,Win32,59.17159763,66fa4ebf79326e780c390304,,,,,,,,,,,,,,,,,,,,,1294.2691,1294.2692,1294.2714,1295.6057,1,1,right,0.8263,,1295.6077,1297.5204,1,0,right,1297.5226,1298.9705,1,0,right,1,1298.9706,1298.9706,1298.9727,1300.4703,0,38,38,38,1,0.2,0.8,0.6,0.4,,,,,,,,,,,,,,,1.3803,,0.2,0.8,0.4,0.6,0.2,0.8,0.6,0.4,,,0.9146,,0.2,0.8,0.4,0.6,0.8,0.2,0.8,0.2,1,0
,,60fc60249c2c3912c3b084af,66fce1e9856208184f6af1ef,2024-10-02_08h04.17.701,mdp,2024.2.1,Win32,59.17159763,66fa4ebf79326e780c390304,,,,,,,,,,,,,,,,,,,,,1300.471,1300.4711,1300.4733,1303.9205,1,0,right,2.918,,1303.9365,1305.5539,0,1,left,1305.5565,1306.5537,1,0,right,1,1306.5542,1306.5542,1306.5564,1308.0537,0,39,39,39,1,0.2,0.8,0.6,0.4,,,,,,,,,,,,,,,1.0973,,0.2,0.8,0.4,0.6,0.2,0.8,0.6,0.4,,,0.4646,,0.2,0.8,0.4,0.6,0.8,0.2,0.8,0.2,1,0
,,60fc60249c2c3912c3b084af,66fce1e9856208184f6af1ef,2024-10-02_08h04.17.701,mdp,2024.2.1,Win32,59.17159763,66fa4ebf79326e780c390304,,,,,,,,,,,,,,,,,,,,,1308.0544,1308.0547,1308.0565,1309.8541,1,1,right,1.2677,,1309.8563,1310.9705,1,0,right,1310.9727,1312.0547,1,1,right,0,1312.0547,1312.0547,1312.0573,1313.5536,0,40,40,40,1,0.2,0.8,0.6,0.4,,,,,,,,,,,,,,,0.5805,,0.2,0.8,0.4,0.6,0.2,0.8,0.6,0.4,,,0.555,,0.2,0.8,0.4,0.6,0.8,0.2,0.8,0.2,1,0
,,60fc60249c2c3912c3b084af,66fce1e9856208184f6af1ef,2024-10-02_08h04.17.701,mdp,2024.2.1,Win32,59.17159763,66fa4ebf79326e780c390304,,,,,,,,,,,,,,,,,,,,,1313.5542,1313.5543,1313.5565,1316.9205,1,0,right,2.8375,,1316.9355,1318.1541,0,1,left,1318.1563,1319.1041,1,0,right,1,1319.1043,1319.1044,1319.1066,1320.6035,0,41,41,41,1,0.2,0.8,0.6,0.4,,,,,,,,,,,,,,,0.6884,,0.2,0.8,0.4,0.6,0.2,0.8,0.6,0.4,,,0.426,,0.2,0.8,0.4,0.6,0.8,0.2,0.8,0.2,1,0
,,60fc60249c2c3912c3b084af,66fce1e9856208184f6af1ef,2024-10-02_08h04.17.701,mdp,2024.2.1,Win32,59.17159763,66fa4ebf79326e780c390304,,,,,,,,,,,,,,,,,,,,,1320.6045,1320.6045,1320.6071,1321.8705,1,0,right,0.7337,,1321.8728,1323.887,0,0,left,1323.8896,1325.0393,1,0,right,1,1325.0394,1325.0394,1325.0413,1326.5371,0,42,42,42,1,0.2,0.8,0.6,0.4,,,,,,,,,,,,,,,1.4895,,0.2,0.8,0.4,0.6,0.2,0.8,0.6,0.4,,,0.6229,,0.2,0.8,0.4,0.6,0.8,0.2,0.8,0.2,1,0
,,60fc60249c2c3912c3b084af,66fce1e9856208184f6af1ef,2024-10-02_08h04.17.701,mdp,2024.2.1,Win32,59.17159763,66fa4ebf79326e780c390304,,,,,,,,,,,,,,,,,,,,,1326.5382,1326.5382,1326.5401,1327.6205,1,1,right,0.5562,,1327.6229,1329.0541,1,1,right,1329.0565,1330.1206,1,0,right,1,1330.1207,1330.1207,1330.1232,1331.6207,0,43,43,43,1,0.2,0.8,0.6,0.4,,,,,,,,,,,,,,,0.897,,0.2,0.8,0.4,0.6,0.2,0.8,0.6,0.4,,,0.5302,,0.2,0.8,0.4,0.6,0.8,0.2,0.8,0.2,1,0
,,60fc60249c2c3912c3b084af,66fce1e9856208184f6af1ef,2024-10-02_08h04.17.701,mdp,2024.2.1,Win32,59.17159763,66fa4ebf79326e780c390304,,,,,,,,,,,,,,,,,,,,,1331.622,1331.6221,1331.624,1333.1538,1,1,right,1.0065,,1333.1568,1334.6208,1,0,right,1334.623,1335.6888,1,1,right,0,1335.6889,1335.6889,1335.6909,1337.187,0,44,44,44,1,0.2,0.8,0.6,0.4,,,,,,,,,,,,,,,0.9358,,0.2,0.8,0.4,0.6,0.2,0.8,0.6,0.4,,,0.539,,0.2,0.8,0.4,0.6,0.8,0.2,0.8,0.2,1,0
,,60fc60249c2c3912c3b084af,66fce1e9856208184f6af1ef,2024-10-02_08h04.17.701,mdp,2024.2.1,Win32,59.17159763,66fa4ebf79326e780c390304,,,,,,,,,,,,,,,,,,,,,1337.1876,1337.1877,1337.1901,1346.4208,1,1,right,8.7014,,1346.4363,1347.4065,1,0,right,1347.4085,1348.8375,1,0,right,1,1348.8376,1348.8376,1348.8398,1350.3372,0,45,45,45,1,0.2,0.8,0.6,0.4,,,,,,,,,,,,,,,0.4605,,0.2,0.8,0.4,0.6,0.2,0.8,0.6,0.4,,,0.9009,,0.2,0.8,0.4,0.6,0.8,0.2,0.8,0.2,1,0
,,60fc60249c2c3912c3b084af,66fce1e9856208184f6af1ef,2024-10-02_08h04.17.701,mdp,2024.2.1,Win32,59.17159763,66fa4ebf79326e780c390304,,,,,,,,,,,,,,,,,,,,,1350.3378,1350.3379,1350.3401,1352.7717,1,0,right,1.9089,,1352.7865,1354.0373,0,1,left,1354.0395,1355.5708,1,1,right,0,1355.5708,1355.5708,1355.5733,1357.0707,0,46,46,46,1,0.2,0.8,0.6,0.4,,,,,,,,,,,,,,,0.7307,,0.2,0.8,0.4,0.6,0.2,0.8,0.6,0.4,,,0.9972,,0.2,0.8,0.4,0.6,0.8,0.2,0.8,0.2,1,0
,,60fc60249c2c3912c3b084af,66fce1e9856208184f6af1ef,2024-10-02_08h04.17.701,mdp,2024.2.1,Win32,59.17159763,66fa4ebf79326e780c390304,,,,,,,,,,,,,,,,,,,,,1357.0714,1357.0714,1357.0737,1359.6706,1,1,right,2.0695,,1359.6732,1360.9207,1,1,right,1360.923,1361.9374,1,0,right,1,1361.9375,1361.9375,1361.9397,1363.4372,0,47,47,47,1,0.2,0.8,0.6,0.4,,,,,,,,,,,,,,,0.7305,,0.2,0.8,0.4,0.6,0.2,0.8,0.6,0.4,,,0.4843,,0.2,0.8,0.4,0.6,0.8,0.2,0.8,0.2,1,0
,,60fc60249c2c3912c3b084af,66fce1e9856208184f6af1ef,2024-10-02_08h04.17.701,mdp,2024.2.1,Win32,59.17159763,66fa4ebf79326e780c390304,,,,,,,,,,,,,,,,,,,,,1363.4379,1363.4379,1363.4398,1364.9709,1,0,right,1.0007,,1364.9732,1366.2874,0,1,left,1366.2895,1367.4392,1,0,right,1,1367.4393,1367.4393,1367.441,1368.9371,0,48,48,48,1,0.2,0.8,0.6,0.4,,,,,,,,,,,,,,,0.7807,,0.2,0.8,0.4,0.6,0.2,0.8,0.6,0.4,,,0.6258,,0.2,0.8,0.4,0.6,0.8,0.2,0.8,0.2,1,0
,,60fc60249c2c3912c3b084af,66fce1e9856208184f6af1ef,2024-10-02_08h04.17.701,mdp,2024.2.1,Win32,59.17159763,66fa4ebf79326e780c390304,,,,,,,,,,,,,,,,,,,,,1368.9377,1368.9377,1368.94,1370.2523,1,0,right,0.7896,,1370.2559,1371.4043,0,1,left,1371.4065,1372.4094,1,0,right,1,1372.4095,1372.4095,1372.4123,1373.9042,0,49,49,49,1,0.2,0.8,0.6,0.4,,,,,,,,,,,,,,,0.6341,,0.2,0.8,0.4,0.6,0.2,0.8,0.6,0.4,,,0.4769,,0.2,0.8,0.4,0.6,0.8,0.2,0.8,0.2,1,0
,,60fc60249c2c3912c3b084af,66fce1e9856208184f6af1ef,2024-10-02_08h04.17.701,mdp,2024.2.1,Win32,59.17159763,66fa4ebf79326e780c390304,,,,,,,,,,,,,,,,,,,,,,,,,,,,,,,,,,,,,,,,,,,,,,,,,,,,,,,,1373.9044,1432.4208,0,3,3,0,1,imgs/rabbit.png,imgs/cat.png,imgs/bear.png,imgs/goat.png,imgs/dog.png,,,,,,,,,,,,,,,,,,,,,,,,
,,60fc60249c2c3912c3b084af,66fce1e9856208184f6af1ef,2024-10-02_08h04.17.701,mdp,2024.2.1,Win32,59.17159763,66fa4ebf79326e780c390304,,,,,,,,,,,,,,1,seqs/st1seq18.csv,1432.4389,1441.7061,space,8.7355,,1441.7251,1441.7252,1441.7276,1443.7878,1,0,right,1.5275,,1443.7899,1443.7916,0,1,,1443.7936,1443.795,1,0,,1,1443.795,1443.795,1443.7965,1445.2878,0,0,0,0,1,0.2,0.8,0.8,0.2,1,0,,,,,,,,,,,,,,,,,,,,,,,,,,,,,,,,,,,,
,,60fc60249c2c3912c3b084af,66fce1e9856208184f6af1ef,2024-10-02_08h04.17.701,mdp,2024.2.1,Win32,59.17159763,66fa4ebf79326e780c390304,,,,,,,,,,,,,,,,,,,,,1445.2885,1445.2885,1445.291,1446.5211,1,0,right,0.7022,,1446.5234,1446.525,0,0,,1446.5269,1446.5284,1,0,,1,1446.5285,1446.5285,1446.53,1448.021,0,1,1,1,1,0.2,0.8,0.8,0.2,1,0,,,,,,,,,,,,,,,,,,,,,,,,,,,,,,,,,,,,
,,60fc60249c2c3912c3b084af,66fce1e9856208184f6af1ef,2024-10-02_08h04.17.701,mdp,2024.2.1,Win32,59.17159763,66fa4ebf79326e780c390304,,,,,,,,,,,,,,,,,,,,,1448.0216,1448.0216,1448.0238,1449.0231,1,0,right,0.4764,,1449.0249,1449.0267,0,0,,1449.0282,1449.0296,1,0,,1,1449.0297,1449.0297,1449.0311,1450.5212,0,2,2,2,1,0.2,0.8,0.8,0.2,1,0,,,,,,,,,,,,,,,,,,,,,,,,,,,,,,,,,,,,
,,60fc60249c2c3912c3b084af,66fce1e9856208184f6af1ef,2024-10-02_08h04.17.701,mdp,2024.2.1,Win32,59.17159763,66fa4ebf79326e780c390304,,,,,,,,,,,,,,,,,,,,,1450.5218,1450.5218,1450.5242,1451.554,1,0,right,0.5011,,1451.5566,1451.558,0,0,,1451.5599,1451.5614,1,0,,1,1451.5615,1451.5615,1451.5628,1453.0543,0,3,3,3,1,0.2,0.8,0.8,0.2,1,0,,,,,,,,,,,,,,,,,,,,,,,,,,,,,,,,,,,,
,,60fc60249c2c3912c3b084af,66fce1e9856208184f6af1ef,2024-10-02_08h04.17.701,mdp,2024.2.1,Win32,59.17159763,66fa4ebf79326e780c390304,,,,,,,,,,,,,,,,,,,,,1453.0548,1453.0549,1453.0568,1454.2878,1,1,right,0.7011,,1454.29,1454.2917,0,0,,1454.2936,1454.2952,1,0,,0,1454.2953,1454.2953,1454.2966,1455.7877,0,4,4,4,1,0.2,0.8,0.8,0.2,1,0,,,,,,,,,,,,,,,,,,,,,,,,,,,,,,,,,,,,
,,60fc60249c2c3912c3b084af,66fce1e9856208184f6af1ef,2024-10-02_08h04.17.701,mdp,2024.2.1,Win32,59.17159763,66fa4ebf79326e780c390304,,,,,,,,,,,,,,,,,,,,,1455.7882,1455.7883,1455.7901,1456.9211,0,1,left,0.601,,1456.9232,1456.9248,0,1,,1456.9267,1456.928,1,1,,0,1456.9282,1456.9282,1456.9296,1458.4207,0,5,5,5,1,0.2,0.8,0.8,0.2,1,0,,,,,,,,,,,,,,,,,,,,,,,,,,,,,,,,,,,,
,,60fc60249c2c3912c3b084af,66fce1e9856208184f6af1ef,2024-10-02_08h04.17.701,mdp,2024.2.1,Win32,59.17159763,66fa4ebf79326e780c390304,,,,,,,,,,,,,,,,,,,,,1458.4213,1458.4213,1458.4233,1459.5555,1,0,right,0.6015,,1459.5574,1459.5592,0,1,,1459.5608,1459.5623,1,0,,1,1459.5624,1459.5624,1459.5638,1461.0545,0,6,6,6,1,0.2,0.8,0.8,0.2,1,0,,,,,,,,,,,,,,,,,,,,,,,,,,,,,,,,,,,,
,,60fc60249c2c3912c3b084af,66fce1e9856208184f6af1ef,2024-10-02_08h04.17.701,mdp,2024.2.1,Win32,59.17159763,66fa4ebf79326e780c390304,,,,,,,,,,,,,,,,,,,,,1461.055,1461.055,1461.0569,1462.4546,1,0,right,0.8826,,1462.4568,1462.4584,0,0,,1462.4604,1462.4618,1,0,,1,1462.4619,1462.4619,1462.4634,1463.9541,0,7,7,7,1,0.2,0.8,0.8,0.2,1,0,,,,,,,,,,,,,,,,,,,,,,,,,,,,,,,,,,,,
,,60fc60249c2c3912c3b084af,66fce1e9856208184f6af1ef,2024-10-02_08h04.17.701,mdp,2024.2.1,Win32,59.17159763,66fa4ebf79326e780c390304,,,,,,,,,,,,,,,,,,,,,1463.9551,1463.9551,1463.9571,1465.2705,1,0,right,0.7892,,1465.2733,1465.2749,0,0,,1465.2767,1465.2782,1,0,,1,1465.2782,1465.2782,1465.2796,1466.771,0,8,8,8,1,0.2,0.8,0.8,0.2,1,0,,,,,,,,,,,,,,,,,,,,,,,,,,,,,,,,,,,,
,,60fc60249c2c3912c3b084af,66fce1e9856208184f6af1ef,2024-10-02_08h04.17.701,mdp,2024.2.1,Win32,59.17159763,66fa4ebf79326e780c390304,,,,,,,,,,,,,,,,,,,,,1466.7723,1466.7723,1466.7743,1467.8375,1,1,right,0.5391,,1467.8403,1467.8418,0,0,,1467.8435,1467.845,1,1,,0,1467.845,1467.845,1467.8465,1469.3378,0,9,9,9,1,0.2,0.8,0.8,0.2,1,0,,,,,,,,,,,,,,,,,,,,,,,,,,,,,,,,,,,,
,,60fc60249c2c3912c3b084af,66fce1e9856208184f6af1ef,2024-10-02_08h04.17.701,mdp,2024.2.1,Win32,59.17159763,66fa4ebf79326e780c390304,,,,,,,,,,,,,,,,,,,,,1469.3382,1469.3383,1469.3405,1470.4546,0,1,left,0.5842,,1470.4568,1470.4586,0,1,,1470.4603,1470.462,1,1,,0,1470.462,1470.4621,1470.4635,1471.9543,0,10,10,10,1,0.2,0.8,0.8,0.2,1,0,,,,,,,,,,,,,,,,,,,,,,,,,,,,,,,,,,,,
,,60fc60249c2c3912c3b084af,66fce1e9856208184f6af1ef,2024-10-02_08h04.17.701,mdp,2024.2.1,Win32,59.17159763,66fa4ebf79326e780c390304,,,,,,,,,,,,,,,,,,,,,1471.9556,1471.9556,1471.9574,1472.9547,0,1,left,0.4705,,1472.9567,1472.9583,0,0,,1472.9603,1472.9617,1,0,,0,1472.9618,1472.9618,1472.9632,1474.4541,0,11,11,11,1,0.8,0.2,0.2,0.8,1,0,,,,,,,,,,,,,,,,,,,,,,,,,,,,,,,,,,,,
,,60fc60249c2c3912c3b084af,66fce1e9856208184f6af1ef,2024-10-02_08h04.17.701,mdp,2024.2.1,Win32,59.17159763,66fa4ebf79326e780c390304,,,,,,,,,,,,,,,,,,,,,1474.455,1474.4551,1474.4571,1475.4212,0,1,left,0.4359,,1475.4236,1475.4252,0,0,,1475.4268,1475.4284,1,1,,0,1475.4284,1475.4284,1475.4301,1476.9213,0,12,12,12,1,0.6,0.4,0.4,0.6,1,0,,,,,,,,,,,,,,,,,,,,,,,,,,,,,,,,,,,,
,,60fc60249c2c3912c3b084af,66fce1e9856208184f6af1ef,2024-10-02_08h04.17.701,mdp,2024.2.1,Win32,59.17159763,66fa4ebf79326e780c390304,,,,,,,,,,,,,,,,,,,,,1476.9221,1476.9221,1476.9239,1477.9049,1,0,right,0.4506,,1477.907,1477.9086,0,0,,1477.9103,1477.9119,1,0,,1,1477.912,1477.912,1477.9133,1479.4044,0,13,13,13,1,0.6,0.4,0.4,0.6,1,0,,,,,,,,,,,,,,,,,,,,,,,,,,,,,,,,,,,,
,,60fc60249c2c3912c3b084af,66fce1e9856208184f6af1ef,2024-10-02_08h04.17.701,mdp,2024.2.1,Win32,59.17159763,66fa4ebf79326e780c390304,,,,,,,,,,,,,,,,,,,,,1479.4056,1479.4058,1479.4079,1480.6379,1,1,right,0.7008,,1480.6401,1480.6415,0,1,,1480.6434,1480.6449,1,1,,0,1480.6449,1480.6449,1480.6463,1482.1382,0,14,14,14,1,0.6,0.4,0.4,0.6,1,0,,,,,,,,,,,,,,,,,,,,,,,,,,,,,,,,,,,,
,,60fc60249c2c3912c3b084af,66fce1e9856208184f6af1ef,2024-10-02_08h04.17.701,mdp,2024.2.1,Win32,59.17159763,66fa4ebf79326e780c390304,,,,,,,,,,,,,,,,,,,,,1482.1387,1482.1387,1482.1406,1483.2214,1,1,right,0.551,,1483.2236,1483.225,0,1,,1483.2269,1483.2284,1,1,,0,1483.2285,1483.2285,1483.2298,1484.7208,0,15,15,15,1,0.6,0.4,0.4,0.6,1,0,,,,,,,,,,,,,,,,,,,,,,,,,,,,,,,,,,,,
,,60fc60249c2c3912c3b084af,66fce1e9856208184f6af1ef,2024-10-02_08h04.17.701,mdp,2024.2.1,Win32,59.17159763,66fa4ebf79326e780c390304,,,,,,,,,,,,,,,,,,,,,1484.7214,1484.7215,1484.7238,1485.8712,1,0,right,0.6186,,1485.8738,1485.8754,0,0,,1485.8771,1485.8785,1,0,,1,1485.8786,1485.8786,1485.8799,1487.3713,0,16,16,16,1,0.8,0.2,0.6,0.4,1,0,,,,,,,,,,,,,,,,,,,,,,,,,,,,,,,,,,,,
,,60fc60249c2c3912c3b084af,66fce1e9856208184f6af1ef,2024-10-02_08h04.17.701,mdp,2024.2.1,Win32,59.17159763,66fa4ebf79326e780c390304,,,,,,,,,,,,,,,,,,,,,1487.3718,1487.3719,1487.3741,1488.4214,1,0,right,0.5176,,1488.4236,1488.4251,0,0,,1488.427,1488.4285,1,1,,1,1488.4285,1488.4286,1488.4299,1489.9213,0,17,17,17,1,0.8,0.2,0.6,0.4,1,0,,,,,,,,,,,,,,,,,,,,,,,,,,,,,,,,,,,,
,,60fc60249c2c3912c3b084af,66fce1e9856208184f6af1ef,2024-10-02_08h04.17.701,mdp,2024.2.1,Win32,59.17159763,66fa4ebf79326e780c390304,,,,,,,,,,,,,,,,,,,,,1489.9219,1489.9219,1489.9242,1491.1887,1,1,right,0.7379,,1491.1919,1491.1938,0,1,,1491.1964,1491.1979,1,0,,0,1491.1979,1491.198,1491.1999,1492.6877,0,18,18,18,1,0.6,0.4,0.8,0.2,1,0,,,,,,,,,,,,,,,,,,,,,,,,,,,,,,,,,,,,
,,60fc60249c2c3912c3b084af,66fce1e9856208184f6af1ef,2024-10-02_08h04.17.701,mdp,2024.2.1,Win32,59.17159763,66fa4ebf79326e780c390304,,,,,,,,,,,,,,,,,,,,,1492.6882,1492.6883,1492.6901,1493.8712,1,0,right,0.651,,1493.8734,1493.8749,0,0,,1493.8767,1493.8782,1,1,,1,1493.8783,1493.8783,1493.8797,1495.3711,0,19,19,19,1,0.6,0.4,0.8,0.2,1,0,,,,,,,,,,,,,,,,,,,,,,,,,,,,,,,,,,,,
,,60fc60249c2c3912c3b084af,66fce1e9856208184f6af1ef,2024-10-02_08h04.17.701,mdp,2024.2.1,Win32,59.17159763,66fa4ebf79326e780c390304,,,,,,,,,,,,,,,,,,,,,1495.3717,1495.3717,1495.3736,1496.406,1,0,right,0.509,,1496.4081,1496.4097,0,0,,1496.4112,1496.4127,1,0,,1,1496.4128,1496.4128,1496.4142,1497.9044,0,20,20,20,1,0.6,0.4,0.8,0.2,1,0,,,,,,,,,,,,,,,,,,,,,,,,,,,,,,,,,,,,
,,60fc60249c2c3912c3b084af,66fce1e9856208184f6af1ef,2024-10-02_08h04.17.701,mdp,2024.2.1,Win32,59.17159763,66fa4ebf79326e780c390304,,,,,,,,,,,,,,,,,,,,,1497.9056,1497.9057,1497.9075,1498.9881,0,1,left,0.5583,,1498.991,1498.9925,0,0,,1498.9944,1498.996,1,0,,0,1498.996,1498.996,1498.9974,1500.4878,0,21,21,21,1,0.6,0.4,0.8,0.2,1,0,,,,,,,,,,,,,,,,,,,,,,,,,,,,,,,,,,,,
,,60fc60249c2c3912c3b084af,66fce1e9856208184f6af1ef,2024-10-02_08h04.17.701,mdp,2024.2.1,Win32,59.17159763,66fa4ebf79326e780c390304,,,,,,,,,,,,,,,,,,,,,1500.4884,1500.4884,1500.4903,1501.5722,1,0,right,0.5513,,1501.5754,1501.5772,0,0,,1501.5796,1501.5811,1,1,,1,1501.5812,1501.5812,1501.5826,1503.0707,0,22,22,22,1,0.6,0.4,0.8,0.2,1,0,,,,,,,,,,,,,,,,,,,,,,,,,,,,,,,,,,,,
,,60fc60249c2c3912c3b084af,66fce1e9856208184f6af1ef,2024-10-02_08h04.17.701,mdp,2024.2.1,Win32,59.17159763,66fa4ebf79326e780c390304,,,,,,,,,,,,,,,,,,,,,1503.0719,1503.072,1503.0738,1504.4567,1,1,right,0.8745,,1504.4587,1504.4603,0,1,,1504.4621,1504.4635,1,0,,0,1504.4637,1504.4637,1504.465,1505.9549,0,23,23,23,1,0.6,0.4,0.8,0.2,1,0,,,,,,,,,,,,,,,,,,,,,,,,,,,,,,,,,,,,
,,60fc60249c2c3912c3b084af,66fce1e9856208184f6af1ef,2024-10-02_08h04.17.701,mdp,2024.2.1,Win32,59.17159763,66fa4ebf79326e780c390304,,,,,,,,,,,,,,,,,,,,,1505.9558,1505.9559,1505.9576,1507.3381,1,1,right,0.8488,,1507.3403,1507.3418,0,0,,1507.3435,1507.3456,1,0,,0,1507.3456,1507.3456,1507.3473,1508.8352,0,24,24,24,1,0.4,0.6,0.6,0.4,1,0,,,,,,,,,,,,,,,,,,,,,,,,,,,,,,,,,,,,
,,60fc60249c2c3912c3b084af,66fce1e9856208184f6af1ef,2024-10-02_08h04.17.701,mdp,2024.2.1,Win32,59.17159763,66fa4ebf79326e780c390304,,,,,,,,,,,,,,,,,,,,,1508.8357,1508.8358,1508.8384,1510.0214,1,0,right,0.6684,,1510.0237,1510.0252,0,1,,1510.0271,1510.0285,1,1,,1,1510.0286,1510.0286,1510.03,1511.5213,0,25,25,25,1,0.8,0.2,0.4,0.6,1,0,,,,,,,,,,,,,,,,,,,,,,,,,,,,,,,,,,,,
,,60fc60249c2c3912c3b084af,66fce1e9856208184f6af1ef,2024-10-02_08h04.17.701,mdp,2024.2.1,Win32,59.17159763,66fa4ebf79326e780c390304,,,,,,,,,,,,,,,,,,,,,1511.5223,1511.5223,1511.5241,1513.3881,1,1,right,1.3347,,1513.3905,1513.3919,0,0,,1513.3939,1513.3954,1,0,,0,1513.3954,1513.3955,1513.3968,1514.8879,0,26,26,26,1,0.8,0.2,0.4,0.6,1,0,,,,,,,,,,,,,,,,,,,,,,,,,,,,,,,,,,,,
,,60fc60249c2c3912c3b084af,66fce1e9856208184f6af1ef,2024-10-02_08h04.17.701,mdp,2024.2.1,Win32,59.17159763,66fa4ebf79326e780c390304,,,,,,,,,,,,,,,,,,,,,1514.8885,1514.8885,1514.8903,1515.7712,1,0,right,0.3506,,1515.7735,1515.775,0,0,,1515.7768,1515.7783,1,0,,1,1515.7784,1515.7784,1515.7807,1517.2713,0,27,27,27,1,0.2,0.8,0.8,0.2,1,0,,,,,,,,,,,,,,,,,,,,,,,,,,,,,,,,,,,,
,,60fc60249c2c3912c3b084af,66fce1e9856208184f6af1ef,2024-10-02_08h04.17.701,mdp,2024.2.1,Win32,59.17159763,66fa4ebf79326e780c390304,,,,,,,,,,,,,,,,,,,,,1517.2719,1517.2719,1517.274,1518.4891,1,0,right,0.6926,,1518.4911,1518.4929,0,0,,1518.4945,1518.496,1,0,,1,1518.4961,1518.4961,1518.4974,1519.9878,0,28,28,28,1,0.2,0.8,0.8,0.2,1,0,,,,,,,,,,,,,,,,,,,,,,,,,,,,,,,,,,,,
,,60fc60249c2c3912c3b084af,66fce1e9856208184f6af1ef,2024-10-02_08h04.17.701,mdp,2024.2.1,Win32,59.17159763,66fa4ebf79326e780c390304,,,,,,,,,,,,,,,,,,,,,1519.9884,1519.9884,1519.9904,1521.1379,1,0,right,0.6206,,1521.1416,1521.1435,0,0,,1521.1456,1521.1471,1,0,,1,1521.1472,1521.1472,1521.1485,1522.6378,0,29,29,29,1,0.2,0.8,0.8,0.2,1,0,,,,,,,,,,,,,,,,,,,,,,,,,,,,,,,,,,,,
,,60fc60249c2c3912c3b084af,66fce1e9856208184f6af1ef,2024-10-02_08h04.17.701,mdp,2024.2.1,Win32,59.17159763,66fa4ebf79326e780c390304,,,,,,,,,,,,,,,,,,,,,1522.6383,1522.6384,1522.6405,1524.9879,1,1,right,1.82,,1524.9902,1524.9917,0,1,,1524.9937,1524.9952,1,0,,0,1524.9952,1524.9953,1524.9968,1526.4878,0,30,30,30,1,0.6,0.4,0.2,0.8,1,0,,,,,,,,,,,,,,,,,,,,,,,,,,,,,,,,,,,,
,,60fc60249c2c3912c3b084af,66fce1e9856208184f6af1ef,2024-10-02_08h04.17.701,mdp,2024.2.1,Win32,59.17159763,66fa4ebf79326e780c390304,,,,,,,,,,,,,,,,,,,,,1526.4884,1526.4885,1526.4906,1528.5879,1,1,right,1.5676,,1528.6095,1528.6111,0,0,,1528.6128,1528.6142,1,1,,0,1528.6142,1528.6143,1528.6157,1530.1045,0,31,31,31,1,0.6,0.4,0.2,0.8,1,0,,,,,,,,,,,,,,,,,,,,,,,,,,,,,,,,,,,,
,,60fc60249c2c3912c3b084af,66fce1e9856208184f6af1ef,2024-10-02_08h04.17.701,mdp,2024.2.1,Win32,59.17159763,66fa4ebf79326e780c390304,,,,,,,,,,,,,,,,,,,,,1530.105,1530.1052,1530.107,1533.2214,1,1,right,2.5847,,1533.2362,1533.238,0,0,,1533.2398,1533.2413,1,1,,0,1533.2414,1533.2414,1533.2429,1534.7379,0,32,32,32,1,0.6,0.4,0.2,0.8,1,0,,,,,,,,,,,,,,,,,,,,,,,,,,,,,,,,,,,,
,,60fc60249c2c3912c3b084af,66fce1e9856208184f6af1ef,2024-10-02_08h04.17.701,mdp,2024.2.1,Win32,59.17159763,66fa4ebf79326e780c390304,,,,,,,,,,,,,,,,,,,,,1534.7385,1534.7385,1534.7403,1535.9051,1,0,right,0.6348,,1535.9074,1535.909,0,0,,1535.9109,1535.9126,1,1,,1,1535.9127,1535.9127,1535.9146,1537.4046,0,33,33,33,1,0.6,0.4,0.2,0.8,1,0,,,,,,,,,,,,,,,,,,,,,,,,,,,,,,,,,,,,
,,60fc60249c2c3912c3b084af,66fce1e9856208184f6af1ef,2024-10-02_08h04.17.701,mdp,2024.2.1,Win32,59.17159763,66fa4ebf79326e780c390304,,,,,,,,,,,,,,,,,,,,,1537.4056,1537.4057,1537.4074,1541.4881,1,0,right,3.5546,,1541.5033,1541.505,0,0,,1541.5068,1541.5083,1,0,,1,1541.5083,1541.5083,1541.5097,1543.0046,0,34,34,34,1,0.8,0.2,0.8,0.2,1,0,,,,,,,,,,,,,,,,,,,,,,,,,,,,,,,,,,,,
,,60fc60249c2c3912c3b084af,66fce1e9856208184f6af1ef,2024-10-02_08h04.17.701,mdp,2024.2.1,Win32,59.17159763,66fa4ebf79326e780c390304,,,,,,,,,,,,,,,,,,,,,1543.0055,1543.0056,1543.0075,1544.0884,1,0,right,0.5509,,1544.0904,1544.0919,0,1,,1544.0938,1544.0954,1,0,,1,1544.0954,1544.0954,1544.0968,1545.5879,0,35,35,35,1,0.8,0.2,0.8,0.2,1,0,,,,,,,,,,,,,,,,,,,,,,,,,,,,,,,,,,,,
,,60fc60249c2c3912c3b084af,66fce1e9856208184f6af1ef,2024-10-02_08h04.17.701,mdp,2024.2.1,Win32,59.17159763,66fa4ebf79326e780c390304,,,,,,,,,,,,,,,,,,,,,1545.5885,1545.5885,1545.5907,1546.2217,1,1,right,0.1014,,1546.2236,1546.2251,0,0,,1546.2268,1546.2283,1,0,,0,1546.2283,1546.2283,1546.2298,1547.7211,0,36,36,36,1,0.8,0.2,0.8,0.2,1,0,,,,,,,,,,,,,,,,,,,,,,,,,,,,,,,,,,,,
,,60fc60249c2c3912c3b084af,66fce1e9856208184f6af1ef,2024-10-02_08h04.17.701,mdp,2024.2.1,Win32,59.17159763,66fa4ebf79326e780c390304,,,,,,,,,,,,,,,,,,,,,1547.7223,1547.7223,1547.7566,1548.9855,1,1,right,0.737,,1548.9884,1548.99,0,0,,1548.9922,1548.994,1,0,,0,1548.9942,1548.9942,1548.9956,1550.4879,0,37,37,37,1,0.6,0.4,0.4,0.6,1,0,,,,,,,,,,,,,,,,,,,,,,,,,,,,,,,,,,,,
,,60fc60249c2c3912c3b084af,66fce1e9856208184f6af1ef,2024-10-02_08h04.17.701,mdp,2024.2.1,Win32,59.17159763,66fa4ebf79326e780c390304,,,,,,,,,,,,,,,,,,,,,1550.4884,1550.4884,1550.4907,1551.5049,1,0,right,0.4838,,1551.5071,1551.5086,0,1,,1551.5105,1551.512,1,0,,1,1551.512,1551.512,1551.5135,1553.0045,0,38,38,38,1,0.6,0.4,0.4,0.6,1,0,,,,,,,,,,,,,,,,,,,,,,,,,,,,,,,,,,,,
,,60fc60249c2c3912c3b084af,66fce1e9856208184f6af1ef,2024-10-02_08h04.17.701,mdp,2024.2.1,Win32,59.17159763,66fa4ebf79326e780c390304,,,,,,,,,,,,,,,,,,,,,1553.005,1553.005,1553.007,1554.1398,1,1,right,0.6097,,1554.1416,1554.1434,0,0,,1554.1449,1554.1465,1,1,,0,1554.1465,1554.1466,1554.1479,1555.6376,0,39,39,39,1,0.6,0.4,0.4,0.6,1,0,,,,,,,,,,,,,,,,,,,,,,,,,,,,,,,,,,,,
