init_exp.started,init_exp.stopped,participant,session,date,expName,psychopyVersion,OS,frameRate,study_id,disp_instruction.started,disp_instruction.stopped,instruction.thisRepN,instruction.thisTrialN,instruction.thisN,instruction.thisIndex,instruction.ran,instimg_path,consent.started,consent.stopped,key_resp_3.keys,key_resp_3.rt,key_resp_3.duration,n_steps,sequence_path,init_block.started,init_block.stopped,key_resp.keys,key_resp.rt,key_resp.duration,init_trials.started,init_trials.stopped,step0.started,step0.stopped,act0,s1,res0.keys,res0.rt,res0.duration,step1.started,step1.stopped,act1,s2,res1.keys,step2.started,step2.stopped,act2,s3,res2.keys,rew,reward_comp.started,reward_comp.stopped,reward_disp.started,reward_disp.stopped,trials.thisRepN,trials.thisTrialN,trials.thisN,trials.thisIndex,trials.ran,s00a0s10,s00a0s11,s00a1s10,s00a1s11,rew10,rew11,break_block.started,break_block.stopped,block.thisRepN,block.thisTrialN,block.thisN,block.thisIndex,block.ran,s00path,s10path,s11path,s20path,s21path,res1.rt,res1.duration,s10a0s20,s10a0s21,s10a1s20,s10a1s21,s11a0s20,s11a0s21,s11a1s20,s11a1s21,rew20,rew21,res2.rt,res2.duration,s20a0s30,s20a0s31,s20a1s30,s20a1s31,s21a0s30,s21a0s31,s21a1s30,s21a1s31,rew30,rew31
0.0002,0.0014,6103b565e6171b4849b8ed7b,66daf5c3b9f3c0e71701ece6,2024-09-06_14h31.01.854,mdp,2024.2.1,Win32,16.14569879,66d7945b1baad48e845df3ce,,,,,,,,,,,,,,,,,,,,,,,,,,,,,,,,,,,,,,,,,,,,,,,,,,,,,,,,,,,,,,,,,,,,,,,,,,,,,,,,,,,,,,,,,,,
,,6103b565e6171b4849b8ed7b,66daf5c3b9f3c0e71701ece6,2024-09-06_14h31.01.854,mdp,2024.2.1,Win32,16.14569879,66d7945b1baad48e845df3ce,0.0048,48.9245,0,0,0,0,1,rlnn_exp/rlnn_exp.001.png,,,,,,,,,,,,,,,,,,,,,,,,,,,,,,,,,,,,,,,,,,,,,,,,,,,,,,,,,,,,,,,,,,,,,,,,,,,,,,,,,,,
,,6103b565e6171b4849b8ed7b,66daf5c3b9f3c0e71701ece6,2024-09-06_14h31.01.854,mdp,2024.2.1,Win32,16.14569879,66d7945b1baad48e845df3ce,48.9249,171.3703,0,1,1,1,1,rlnn_exp/rlnn_exp.002.png,,,,,,,,,,,,,,,,,,,,,,,,,,,,,,,,,,,,,,,,,,,,,,,,,,,,,,,,,,,,,,,,,,,,,,,,,,,,,,,,,,,
,,6103b565e6171b4849b8ed7b,66daf5c3b9f3c0e71701ece6,2024-09-06_14h31.01.854,mdp,2024.2.1,Win32,16.14569879,66d7945b1baad48e845df3ce,171.3782,194.4594,0,2,2,2,1,rlnn_exp/rlnn_exp.003.png,,,,,,,,,,,,,,,,,,,,,,,,,,,,,,,,,,,,,,,,,,,,,,,,,,,,,,,,,,,,,,,,,,,,,,,,,,,,,,,,,,,
,,6103b565e6171b4849b8ed7b,66daf5c3b9f3c0e71701ece6,2024-09-06_14h31.01.854,mdp,2024.2.1,Win32,16.14569879,66d7945b1baad48e845df3ce,194.467,239.7931,0,3,3,3,1,rlnn_exp/rlnn_exp.004.png,,,,,,,,,,,,,,,,,,,,,,,,,,,,,,,,,,,,,,,,,,,,,,,,,,,,,,,,,,,,,,,,,,,,,,,,,,,,,,,,,,,
,,6103b565e6171b4849b8ed7b,66daf5c3b9f3c0e71701ece6,2024-09-06_14h31.01.854,mdp,2024.2.1,Win32,16.14569879,66d7945b1baad48e845df3ce,,,,,,,,,239.8013,453.3353,y,203.4829,,,,,,,,,,,,,,,,,,,,,,,,,,,,,,,,,,,,,,,,,,,,,,,,,,,,,,,,,,,,,,,,,,,,,,,,,,,,,,,
,,6103b565e6171b4849b8ed7b,66daf5c3b9f3c0e71701ece6,2024-09-06_14h31.01.854,mdp,2024.2.1,Win32,16.14569879,66d7945b1baad48e845df3ce,,,,,,,,,,,,,,1,seqs/st1seq42.csv,453.346,456.2294,space,2.3216,,456.2327,456.2329,456.2331,458.3809,1,0,right,1.603,,458.3813,458.3823,,1,,458.3826,458.3835,,1,,1,458.3836,458.3837,458.3839,459.888,0,0,0,0,1,0.2,0.8,0.6,0.4,1,0,,,,,,,,,,,,,,,,,,,,,,,,,,,,,,,,,,,,
,,6103b565e6171b4849b8ed7b,66daf5c3b9f3c0e71701ece6,2024-09-06_14h31.01.854,mdp,2024.2.1,Win32,16.14569879,66d7945b1baad48e845df3ce,,,,,,,,,,,,,,,,,,,,,459.8883,459.8883,459.8889,462.4648,1,0,right,2.0115,,462.4654,462.4658,,1,,462.4662,462.4666,,1,,1,462.4667,462.4667,462.4671,463.964,0,1,1,1,1,0.8,0.2,0.4,0.6,1,0,,,,,,,,,,,,,,,,,,,,,,,,,,,,,,,,,,,,
,,6103b565e6171b4849b8ed7b,66daf5c3b9f3c0e71701ece6,2024-09-06_14h31.01.854,mdp,2024.2.1,Win32,16.14569879,66d7945b1baad48e845df3ce,,,,,,,,,,,,,,,,,,,,,463.9641,463.9641,463.9651,466.0242,0,0,left,1.5035,,466.0248,466.0253,,0,,466.0257,466.0264,,0,,1,466.0264,466.0265,466.0269,467.5389,0,2,2,2,1,0.8,0.2,0.4,0.6,1,0,,,,,,,,,,,,,,,,,,,,,,,,,,,,,,,,,,,,
,,6103b565e6171b4849b8ed7b,66daf5c3b9f3c0e71701ece6,2024-09-06_14h31.01.854,mdp,2024.2.1,Win32,16.14569879,66d7945b1baad48e845df3ce,,,,,,,,,,,,,,,,,,,,,467.5392,467.5393,467.5403,470.0157,1,1,right,1.9086,,470.0231,470.0236,,0,,470.0241,470.0244,,0,,0,470.0244,470.0244,470.0247,471.5034,0,3,3,3,1,0.8,0.2,0.4,0.6,1,0,,,,,,,,,,,,,,,,,,,,,,,,,,,,,,,,,,,,
,,6103b565e6171b4849b8ed7b,66daf5c3b9f3c0e71701ece6,2024-09-06_14h31.01.854,mdp,2024.2.1,Win32,16.14569879,66d7945b1baad48e845df3ce,,,,,,,,,,,,,,,,,,,,,471.5036,471.5036,471.5042,473.6254,1,1,right,1.5478,,473.6263,473.627,,0,,473.6274,473.6278,,1,,0,473.6278,473.6279,473.6282,475.131,0,4,4,4,1,0.8,0.2,0.4,0.6,1,0,,,,,,,,,,,,,,,,,,,,,,,,,,,,,,,,,,,,
,,6103b565e6171b4849b8ed7b,66daf5c3b9f3c0e71701ece6,2024-09-06_14h31.01.854,mdp,2024.2.1,Win32,16.14569879,66d7945b1baad48e845df3ce,,,,,,,,,,,,,,,,,,,,,475.1312,475.1312,475.1322,476.5405,1,1,right,0.8571,,476.5412,476.5416,,0,,476.542,476.5424,,1,,0,476.5424,476.5424,476.5429,477.9969,0,5,5,5,1,0.2,0.8,0.6,0.4,1,0,,,,,,,,,,,,,,,,,,,,,,,,,,,,,,,,,,,,
,,6103b565e6171b4849b8ed7b,66daf5c3b9f3c0e71701ece6,2024-09-06_14h31.01.854,mdp,2024.2.1,Win32,16.14569879,66d7945b1baad48e845df3ce,,,,,,,,,,,,,,,,,,,,,477.9972,477.9973,477.9982,479.0659,0,1,left,0.5288,,479.0665,479.0669,,1,,479.0674,479.0677,,1,,0,479.0678,479.0678,479.0681,480.5814,0,6,6,6,1,0.2,0.8,0.6,0.4,1,0,,,,,,,,,,,,,,,,,,,,,,,,,,,,,,,,,,,,
,,6103b565e6171b4849b8ed7b,66daf5c3b9f3c0e71701ece6,2024-09-06_14h31.01.854,mdp,2024.2.1,Win32,16.14569879,66d7945b1baad48e845df3ce,,,,,,,,,,,,,,,,,,,,,480.5816,480.5816,480.5825,481.6453,1,1,right,0.5019,,481.646,481.6465,,0,,481.6468,481.6471,,1,,0,481.6472,481.6472,481.6476,483.1543,0,7,7,7,1,0.2,0.8,0.6,0.4,1,0,,,,,,,,,,,,,,,,,,,,,,,,,,,,,,,,,,,,
,,6103b565e6171b4849b8ed7b,66daf5c3b9f3c0e71701ece6,2024-09-06_14h31.01.854,mdp,2024.2.1,Win32,16.14569879,66d7945b1baad48e845df3ce,,,,,,,,,,,,,,,,,,,,,483.1548,483.1549,483.1555,484.3073,1,0,right,0.5855,,484.3078,484.3083,,0,,484.3086,484.309,,0,,1,484.309,484.309,484.3093,485.7655,0,8,8,8,1,0.2,0.8,0.6,0.4,1,0,,,,,,,,,,,,,,,,,,,,,,,,,,,,,,,,,,,,
,,6103b565e6171b4849b8ed7b,66daf5c3b9f3c0e71701ece6,2024-09-06_14h31.01.854,mdp,2024.2.1,Win32,16.14569879,66d7945b1baad48e845df3ce,,,,,,,,,,,,,,,,,,,,,485.7658,485.7658,485.7664,487.9414,1,0,right,1.6106,,487.942,487.9425,,0,,487.943,487.9434,,0,,1,487.9434,487.9435,487.9438,489.4319,0,9,9,9,1,0.2,0.8,0.6,0.4,1,0,,,,,,,,,,,,,,,,,,,,,,,,,,,,,,,,,,,,
,,6103b565e6171b4849b8ed7b,66daf5c3b9f3c0e71701ece6,2024-09-06_14h31.01.854,mdp,2024.2.1,Win32,16.14569879,66d7945b1baad48e845df3ce,,,,,,,,,,,,,,,,,,,,,489.4322,489.4322,489.4327,490.9747,1,0,right,0.9709,,490.9754,490.9759,,0,,490.9764,490.9769,,0,,1,490.9769,490.977,490.9773,492.4656,0,10,10,10,1,0.2,0.8,0.6,0.4,1,0,,,,,,,,,,,,,,,,,,,,,,,,,,,,,,,,,,,,
,,6103b565e6171b4849b8ed7b,66daf5c3b9f3c0e71701ece6,2024-09-06_14h31.01.854,mdp,2024.2.1,Win32,16.14569879,66d7945b1baad48e845df3ce,,,,,,,,,,,,,,,,,,,,,492.4658,492.4658,492.4665,493.6549,1,0,right,0.6179,,493.6554,493.6559,,0,,493.6563,493.6566,,0,,1,493.6566,493.6566,493.657,495.1444,0,11,11,11,1,0.2,0.8,0.6,0.4,1,0,,,,,,,,,,,,,,,,,,,,,,,,,,,,,,,,,,,,
,,6103b565e6171b4849b8ed7b,66daf5c3b9f3c0e71701ece6,2024-09-06_14h31.01.854,mdp,2024.2.1,Win32,16.14569879,66d7945b1baad48e845df3ce,,,,,,,,,,,,,,,,,,,,,495.1447,495.1447,495.1452,497.3975,1,0,right,1.6859,,497.3981,497.3987,,0,,497.399,497.3994,,0,,1,497.3994,497.3994,497.3999,498.8826,0,12,12,12,1,0.6,0.4,0.8,0.2,1,0,,,,,,,,,,,,,,,,,,,,,,,,,,,,,,,,,,,,
,,6103b565e6171b4849b8ed7b,66daf5c3b9f3c0e71701ece6,2024-09-06_14h31.01.854,mdp,2024.2.1,Win32,16.14569879,66d7945b1baad48e845df3ce,,,,,,,,,,,,,,,,,,,,,498.8829,498.8829,498.8836,500.8714,1,1,right,1.4432,,500.872,500.8726,,0,,500.8732,500.8736,,0,,0,500.8736,500.8736,500.8741,502.3558,0,13,13,13,1,0.6,0.4,0.8,0.2,1,0,,,,,,,,,,,,,,,,,,,,,,,,,,,,,,,,,,,,
,,6103b565e6171b4849b8ed7b,66daf5c3b9f3c0e71701ece6,2024-09-06_14h31.01.854,mdp,2024.2.1,Win32,16.14569879,66d7945b1baad48e845df3ce,,,,,,,,,,,,,,,,,,,,,502.3561,502.3561,502.3567,533.1003,1,0,right,30.1943,,533.108,533.1086,,0,,533.109,533.1095,,0,,1,533.1095,533.1096,533.1099,534.5756,0,14,14,14,1,0.6,0.4,0.8,0.2,1,0,,,,,,,,,,,,,,,,,,,,,,,,,,,,,,,,,,,,
,,6103b565e6171b4849b8ed7b,66daf5c3b9f3c0e71701ece6,2024-09-06_14h31.01.854,mdp,2024.2.1,Win32,16.14569879,66d7945b1baad48e845df3ce,,,,,,,,,,,,,,,,,,,,,534.5758,534.5758,534.5764,538.5305,1,0,right,3.3873,,538.5378,538.5385,,0,,538.5389,538.5392,,0,,1,538.5392,538.5393,538.5397,540.0225,0,15,15,15,1,0.8,0.2,0.6,0.4,1,0,,,,,,,,,,,,,,,,,,,,,,,,,,,,,,,,,,,,
,,6103b565e6171b4849b8ed7b,66daf5c3b9f3c0e71701ece6,2024-09-06_14h31.01.854,mdp,2024.2.1,Win32,16.14569879,66d7945b1baad48e845df3ce,,,,,,,,,,,,,,,,,,,,,540.0228,540.0228,540.0235,540.623,1,0,right,0.0421,,540.6236,540.624,,1,,540.6243,540.6247,,1,,1,540.6247,540.6247,540.6251,542.1279,0,16,16,16,1,0.8,0.2,0.6,0.4,1,0,,,,,,,,,,,,,,,,,,,,,,,,,,,,,,,,,,,,
,,6103b565e6171b4849b8ed7b,66daf5c3b9f3c0e71701ece6,2024-09-06_14h31.01.854,mdp,2024.2.1,Win32,16.14569879,66d7945b1baad48e845df3ce,,,,,,,,,,,,,,,,,,,,,542.1281,542.1281,542.1287,559.0384,1,0,right,16.3542,,559.0461,559.0467,,0,,559.0471,559.0475,,0,,1,559.0475,559.0475,559.048,560.5321,0,17,17,17,1,0.8,0.2,0.6,0.4,1,0,,,,,,,,,,,,,,,,,,,,,,,,,,,,,,,,,,,,
,,6103b565e6171b4849b8ed7b,66daf5c3b9f3c0e71701ece6,2024-09-06_14h31.01.854,mdp,2024.2.1,Win32,16.14569879,66d7945b1baad48e845df3ce,,,,,,,,,,,,,,,,,,,,,560.5325,560.5326,560.5331,561.849,1,0,right,0.752,,561.8497,561.8502,,0,,561.8507,561.851,,0,,1,561.851,561.8511,561.8514,563.355,0,18,18,18,1,0.8,0.2,0.6,0.4,1,0,,,,,,,,,,,,,,,,,,,,,,,,,,,,,,,,,,,,
,,6103b565e6171b4849b8ed7b,66daf5c3b9f3c0e71701ece6,2024-09-06_14h31.01.854,mdp,2024.2.1,Win32,16.14569879,66d7945b1baad48e845df3ce,,,,,,,,,,,,,,,,,,,,,563.3553,563.3554,563.3559,566.1744,1,1,right,2.2602,,566.1751,566.1755,,1,,566.176,566.1763,,1,,0,566.1764,566.1764,566.1767,567.6589,0,19,19,19,1,0.8,0.2,0.6,0.4,1,0,,,,,,,,,,,,,,,,,,,,,,,,,,,,,,,,,,,,
,,6103b565e6171b4849b8ed7b,66daf5c3b9f3c0e71701ece6,2024-09-06_14h31.01.854,mdp,2024.2.1,Win32,16.14569879,66d7945b1baad48e845df3ce,,,,,,,,,,,,,,,,,,,,,567.6591,567.6591,567.6597,568.9023,0,1,left,0.6823,,568.9028,568.9034,,0,,568.9037,568.9041,,0,,0,568.9041,568.9041,568.9044,570.4081,0,20,20,20,1,0.6,0.4,0.4,0.6,1,0,,,,,,,,,,,,,,,,,,,,,,,,,,,,,,,,,,,,
,,6103b565e6171b4849b8ed7b,66daf5c3b9f3c0e71701ece6,2024-09-06_14h31.01.854,mdp,2024.2.1,Win32,16.14569879,66d7945b1baad48e845df3ce,,,,,,,,,,,,,,,,,,,,,570.4083,570.4083,570.4088,571.408,0,0,left,0.4584,,571.4085,571.4089,,0,,571.4093,571.4096,,0,,1,571.4096,571.4096,571.4099,572.8723,0,21,21,21,1,0.6,0.4,0.4,0.6,1,0,,,,,,,,,,,,,,,,,,,,,,,,,,,,,,,,,,,,
,,6103b565e6171b4849b8ed7b,66daf5c3b9f3c0e71701ece6,2024-09-06_14h31.01.854,mdp,2024.2.1,Win32,16.14569879,66d7945b1baad48e845df3ce,,,,,,,,,,,,,,,,,,,,,572.8726,572.8726,572.8732,575.0099,1,1,right,1.5866,,575.0106,575.0112,,0,,575.0116,575.012,,1,,0,575.012,575.012,575.0124,576.5144,0,22,22,22,1,0.6,0.4,0.4,0.6,1,0,,,,,,,,,,,,,,,,,,,,,,,,,,,,,,,,,,,,
,,6103b565e6171b4849b8ed7b,66daf5c3b9f3c0e71701ece6,2024-09-06_14h31.01.854,mdp,2024.2.1,Win32,16.14569879,66d7945b1baad48e845df3ce,,,,,,,,,,,,,,,,,,,,,576.5146,576.5146,576.5151,596.1216,1,1,right,19.0656,,596.1293,596.1299,,1,,596.1303,596.1306,,1,,0,596.1306,596.1306,596.131,597.6386,0,23,23,23,1,0.6,0.4,0.4,0.6,1,0,,,,,,,,,,,,,,,,,,,,,,,,,,,,,,,,,,,,
,,6103b565e6171b4849b8ed7b,66daf5c3b9f3c0e71701ece6,2024-09-06_14h31.01.854,mdp,2024.2.1,Win32,16.14569879,66d7945b1baad48e845df3ce,,,,,,,,,,,,,,,,,,,,,597.6388,597.6388,597.6393,598.4217,1,0,right,0.2278,,598.4222,598.4227,,1,,598.4231,598.4235,,0,,1,598.4235,598.4235,598.4239,599.9316,0,24,24,24,1,0.2,0.8,0.6,0.4,1,0,,,,,,,,,,,,,,,,,,,,,,,,,,,,,,,,,,,,
,,6103b565e6171b4849b8ed7b,66daf5c3b9f3c0e71701ece6,2024-09-06_14h31.01.854,mdp,2024.2.1,Win32,16.14569879,66d7945b1baad48e845df3ce,,,,,,,,,,,,,,,,,,,,,599.9318,599.9318,599.9324,605.0293,1,0,right,4.544,,605.0371,605.0378,,0,,605.0384,605.0389,,1,,1,605.039,605.039,605.0394,606.5209,0,25,25,25,1,0.2,0.8,0.6,0.4,1,0,,,,,,,,,,,,,,,,,,,,,,,,,,,,,,,,,,,,
,,6103b565e6171b4849b8ed7b,66daf5c3b9f3c0e71701ece6,2024-09-06_14h31.01.854,mdp,2024.2.1,Win32,16.14569879,66d7945b1baad48e845df3ce,,,,,,,,,,,,,,,,,,,,,606.5211,606.5211,606.5217,611.3903,1,0,right,4.3116,,611.3982,611.3988,,1,,611.3994,611.3999,,0,,1,611.3999,611.3999,611.4002,612.9101,0,26,26,26,1,0.2,0.8,0.6,0.4,1,0,,,,,,,,,,,,,,,,,,,,,,,,,,,,,,,,,,,,
,,6103b565e6171b4849b8ed7b,66daf5c3b9f3c0e71701ece6,2024-09-06_14h31.01.854,mdp,2024.2.1,Win32,16.14569879,66d7945b1baad48e845df3ce,,,,,,,,,,,,,,,,,,,,,612.9103,612.9103,612.9109,622.2761,1,1,right,8.8037,,622.2843,622.2848,,0,,622.2852,622.2856,,1,,0,622.2856,622.2856,622.2859,623.7965,0,27,27,27,1,0.2,0.8,0.6,0.4,1,0,,,,,,,,,,,,,,,,,,,,,,,,,,,,,,,,,,,,
,,6103b565e6171b4849b8ed7b,66daf5c3b9f3c0e71701ece6,2024-09-06_14h31.01.854,mdp,2024.2.1,Win32,16.14569879,66d7945b1baad48e845df3ce,,,,,,,,,,,,,,,,,,,,,623.7966,623.7966,623.7972,624.5921,1,0,right,0.2265,,624.5927,624.5931,,0,,624.5935,624.5938,,1,,1,624.5939,624.5939,624.5942,626.1036,0,28,28,28,1,0.2,0.8,0.6,0.4,1,0,,,,,,,,,,,,,,,,,,,,,,,,,,,,,,,,,,,,
,,6103b565e6171b4849b8ed7b,66daf5c3b9f3c0e71701ece6,2024-09-06_14h31.01.854,mdp,2024.2.1,Win32,16.14569879,66d7945b1baad48e845df3ce,,,,,,,,,,,,,,,,,,,,,626.1038,626.1038,626.1043,627.2704,1,1,right,0.6052,,627.2709,627.2714,,1,,627.2718,627.272,,0,,0,627.272,627.272,627.2724,628.7705,0,29,29,29,1,0.2,0.8,0.6,0.4,1,0,,,,,,,,,,,,,,,,,,,,,,,,,,,,,,,,,,,,
,,6103b565e6171b4849b8ed7b,66daf5c3b9f3c0e71701ece6,2024-09-06_14h31.01.854,mdp,2024.2.1,Win32,16.14569879,66d7945b1baad48e845df3ce,,,,,,,,,,,,,,,,,,,,,628.7707,628.7708,628.7713,629.3822,1,1,right,0.0395,,629.3829,629.3833,,0,,629.3836,629.3841,,1,,0,629.3841,629.3841,629.3843,630.8636,0,30,30,30,1,0.6,0.4,0.4,0.6,1,0,,,,,,,,,,,,,,,,,,,,,,,,,,,,,,,,,,,,
,,6103b565e6171b4849b8ed7b,66daf5c3b9f3c0e71701ece6,2024-09-06_14h31.01.854,mdp,2024.2.1,Win32,16.14569879,66d7945b1baad48e845df3ce,,,,,,,,,,,,,,,,,,,,,630.8638,630.8638,630.8646,631.473,1,0,right,0.0432,,631.4735,631.4739,,1,,631.4743,631.4748,,1,,1,631.4748,631.4748,631.4752,632.9728,0,31,31,31,1,0.6,0.4,0.4,0.6,1,0,,,,,,,,,,,,,,,,,,,,,,,,,,,,,,,,,,,,
,,6103b565e6171b4849b8ed7b,66daf5c3b9f3c0e71701ece6,2024-09-06_14h31.01.854,mdp,2024.2.1,Win32,16.14569879,66d7945b1baad48e845df3ce,,,,,,,,,,,,,,,,,,,,,632.9731,632.9731,632.9738,635.6093,0,0,left,2.0865,,635.6098,635.6103,,0,,635.6109,635.6112,,1,,1,635.6112,635.6112,635.6115,637.1264,0,32,32,32,1,0.6,0.4,0.4,0.6,1,0,,,,,,,,,,,,,,,,,,,,,,,,,,,,,,,,,,,,
,,6103b565e6171b4849b8ed7b,66daf5c3b9f3c0e71701ece6,2024-09-06_14h31.01.854,mdp,2024.2.1,Win32,16.14569879,66d7945b1baad48e845df3ce,,,,,,,,,,,,,,,,,,,,,637.1266,637.1266,637.1272,638.8683,1,0,right,1.175,,638.8689,638.8692,,1,,638.8697,638.8699,,1,,1,638.87,638.87,638.8702,640.3601,0,33,33,33,1,0.6,0.4,0.4,0.6,1,0,,,,,,,,,,,,,,,,,,,,,,,,,,,,,,,,,,,,
,,6103b565e6171b4849b8ed7b,66daf5c3b9f3c0e71701ece6,2024-09-06_14h31.01.854,mdp,2024.2.1,Win32,16.14569879,66d7945b1baad48e845df3ce,,,,,,,,,,,,,,,,,,,,,640.3602,640.3602,640.3609,642.0037,0,1,left,1.0906,,642.0044,642.0048,,1,,642.0053,642.0057,,1,,0,642.0057,642.0057,642.0061,643.4963,0,34,34,34,1,0.6,0.4,0.4,0.6,1,0,,,,,,,,,,,,,,,,,,,,,,,,,,,,,,,,,,,,
,,6103b565e6171b4849b8ed7b,66daf5c3b9f3c0e71701ece6,2024-09-06_14h31.01.854,mdp,2024.2.1,Win32,16.14569879,66d7945b1baad48e845df3ce,,,,,,,,,,,,,,,,,,,,,643.4965,643.4965,643.4971,644.5616,0,0,left,0.4932,,644.5622,644.5627,,0,,644.5632,644.5635,,1,,1,644.5635,644.5635,644.5639,646.0657,0,35,35,35,1,0.6,0.4,0.4,0.6,1,0,,,,,,,,,,,,,,,,,,,,,,,,,,,,,,,,,,,,
,,6103b565e6171b4849b8ed7b,66daf5c3b9f3c0e71701ece6,2024-09-06_14h31.01.854,mdp,2024.2.1,Win32,16.14569879,66d7945b1baad48e845df3ce,,,,,,,,,,,,,,,,,,,,,646.0659,646.0659,646.0664,647.3731,0,0,left,0.7424,,647.3737,647.3741,,1,,647.3745,647.3748,,0,,1,647.3748,647.3748,647.3751,648.8772,0,36,36,36,1,0.6,0.4,0.4,0.6,1,0,,,,,,,,,,,,,,,,,,,,,,,,,,,,,,,,,,,,
,,6103b565e6171b4849b8ed7b,66daf5c3b9f3c0e71701ece6,2024-09-06_14h31.01.854,mdp,2024.2.1,Win32,16.14569879,66d7945b1baad48e845df3ce,,,,,,,,,,,,,,,,,,,,,648.8773,648.8773,648.878,649.9159,0,0,left,0.4785,,649.9165,649.9169,,0,,649.9173,649.9176,,1,,1,649.9177,649.9177,649.918,651.3967,0,37,37,37,1,0.6,0.4,0.4,0.6,1,0,,,,,,,,,,,,,,,,,,,,,,,,,,,,,,,,,,,,
,,6103b565e6171b4849b8ed7b,66daf5c3b9f3c0e71701ece6,2024-09-06_14h31.01.854,mdp,2024.2.1,Win32,16.14569879,66d7945b1baad48e845df3ce,,,,,,,,,,,,,,,,,,,,,651.3969,651.3969,651.3975,652.6352,0,0,left,0.6833,,652.6358,652.6363,,1,,652.6366,652.6369,,0,,1,652.6369,652.6369,652.6372,654.1309,0,38,38,38,1,0.6,0.4,0.4,0.6,1,0,,,,,,,,,,,,,,,,,,,,,,,,,,,,,,,,,,,,
,,6103b565e6171b4849b8ed7b,66daf5c3b9f3c0e71701ece6,2024-09-06_14h31.01.854,mdp,2024.2.1,Win32,16.14569879,66d7945b1baad48e845df3ce,,,,,,,,,,,,,,,,,,,,,654.1312,654.1312,654.1317,655.335,0,0,left,0.6386,,655.3355,655.336,,0,,655.3365,655.3368,,0,,1,655.3368,655.3368,655.3371,656.8197,0,39,39,39,1,0.6,0.4,0.4,0.6,1,0,,,,,,,,,,,,,,,,,,,,,,,,,,,,,,,,,,,,
,,6103b565e6171b4849b8ed7b,66daf5c3b9f3c0e71701ece6,2024-09-06_14h31.01.854,mdp,2024.2.1,Win32,16.14569879,66d7945b1baad48e845df3ce,,,,,,,,,,,,,,,,,,,,,656.8199,656.8199,656.8205,659.2185,0,0,left,1.8297,,659.219,659.2195,,1,,659.2199,659.2202,,1,,1,659.2202,659.2202,659.2206,660.72,0,40,40,40,1,0.4,0.6,0.8,0.2,1,0,,,,,,,,,,,,,,,,,,,,,,,,,,,,,,,,,,,,
,,6103b565e6171b4849b8ed7b,66daf5c3b9f3c0e71701ece6,2024-09-06_14h31.01.854,mdp,2024.2.1,Win32,16.14569879,66d7945b1baad48e845df3ce,,,,,,,,,,,,,,,,,,,,,660.7203,660.7203,660.7207,662.5174,0,1,left,1.2564,,662.518,662.5185,,0,,662.5189,662.5192,,1,,0,662.5192,662.5192,662.5195,664.0016,0,41,41,41,1,0.6,0.4,0.4,0.6,1,0,,,,,,,,,,,,,,,,,,,,,,,,,,,,,,,,,,,,
,,6103b565e6171b4849b8ed7b,66daf5c3b9f3c0e71701ece6,2024-09-06_14h31.01.854,mdp,2024.2.1,Win32,16.14569879,66d7945b1baad48e845df3ce,,,,,,,,,,,,,,,,,,,,,664.0018,664.0018,664.0024,664.9469,1,0,right,0.3835,,664.9474,664.9478,,1,,664.9482,664.9485,,0,,1,664.9485,664.9485,664.9489,666.4412,0,42,42,42,1,0.8,0.2,0.8,0.2,1,0,,,,,,,,,,,,,,,,,,,,,,,,,,,,,,,,,,,,
,,6103b565e6171b4849b8ed7b,66daf5c3b9f3c0e71701ece6,2024-09-06_14h31.01.854,mdp,2024.2.1,Win32,16.14569879,66d7945b1baad48e845df3ce,,,,,,,,,,,,,,,,,,,,,666.4414,666.4414,666.442,669.9017,1,0,right,2.8959,,669.9113,669.9119,,0,,669.9124,669.9127,,1,,1,669.9127,669.9127,669.913,671.3845,0,43,43,43,1,0.8,0.2,0.8,0.2,1,0,,,,,,,,,,,,,,,,,,,,,,,,,,,,,,,,,,,,
,,6103b565e6171b4849b8ed7b,66daf5c3b9f3c0e71701ece6,2024-09-06_14h31.01.854,mdp,2024.2.1,Win32,16.14569879,66d7945b1baad48e845df3ce,,,,,,,,,,,,,,,,,,,,,671.3847,671.3847,671.3854,672.4648,1,0,right,0.5344,,672.4655,672.466,,0,,672.4664,672.4667,,1,,1,672.4667,672.4667,672.4674,673.9539,0,44,44,44,1,0.2,0.8,0.6,0.4,1,0,,,,,,,,,,,,,,,,,,,,,,,,,,,,,,,,,,,,
,,6103b565e6171b4849b8ed7b,66daf5c3b9f3c0e71701ece6,2024-09-06_14h31.01.854,mdp,2024.2.1,Win32,16.14569879,66d7945b1baad48e845df3ce,,,,,,,,,,,,,,,,,,,,,673.954,673.954,673.9549,675.9584,1,0,right,1.4433,,675.959,675.9594,,0,,675.9597,675.96,,0,,1,675.96,675.96,675.9604,677.437,0,45,45,45,1,0.2,0.8,0.6,0.4,1,0,,,,,,,,,,,,,,,,,,,,,,,,,,,,,,,,,,,,
,,6103b565e6171b4849b8ed7b,66daf5c3b9f3c0e71701ece6,2024-09-06_14h31.01.854,mdp,2024.2.1,Win32,16.14569879,66d7945b1baad48e845df3ce,,,,,,,,,,,,,,,,,,,,,677.4372,677.4372,677.4377,679.0966,1,1,right,1.0885,,679.0975,679.0981,,0,,679.0987,679.0992,,0,,0,679.0993,679.0993,679.0996,680.5793,0,46,46,46,1,0.2,0.8,0.6,0.4,1,0,,,,,,,,,,,,,,,,,,,,,,,,,,,,,,,,,,,,
,,6103b565e6171b4849b8ed7b,66daf5c3b9f3c0e71701ece6,2024-09-06_14h31.01.854,mdp,2024.2.1,Win32,16.14569879,66d7945b1baad48e845df3ce,,,,,,,,,,,,,,,,,,,,,680.5797,680.5797,680.5803,682.4307,0,1,left,1.2871,,682.4314,682.4319,,1,,682.4326,682.4329,,0,,0,682.4329,682.4329,682.4333,683.9075,0,47,47,47,1,0.2,0.8,0.6,0.4,1,0,,,,,,,,,,,,,,,,,,,,,,,,,,,,,,,,,,,,
,,6103b565e6171b4849b8ed7b,66daf5c3b9f3c0e71701ece6,2024-09-06_14h31.01.854,mdp,2024.2.1,Win32,16.14569879,66d7945b1baad48e845df3ce,,,,,,,,,,,,,,,,,,,,,683.9078,683.9078,683.9084,687.2308,1,1,right,2.7634,,687.2381,687.2385,,0,,687.2392,687.2395,,1,,0,687.2396,687.2396,687.2401,688.7262,0,48,48,48,1,0.2,0.8,0.6,0.4,1,0,,,,,,,,,,,,,,,,,,,,,,,,,,,,,,,,,,,,
,,6103b565e6171b4849b8ed7b,66daf5c3b9f3c0e71701ece6,2024-09-06_14h31.01.854,mdp,2024.2.1,Win32,16.14569879,66d7945b1baad48e845df3ce,,,,,,,,,,,,,,,,,,,,,688.7265,688.7265,688.7271,690.7472,0,0,left,1.4507,,690.7478,690.7482,,0,,690.7486,690.749,,0,,1,690.749,690.749,690.7495,692.2417,0,49,49,49,1,0.8,0.2,0.4,0.6,1,0,,,,,,,,,,,,,,,,,,,,,,,,,,,,,,,,,,,,
,,6103b565e6171b4849b8ed7b,66daf5c3b9f3c0e71701ece6,2024-09-06_14h31.01.854,mdp,2024.2.1,Win32,16.14569879,66d7945b1baad48e845df3ce,,,,,,,,,,,,,,,,,,,,,,,,,,,,,,,,,,,,,,,,,,,,,,,,,,,,,,,,692.2422,750.7524,0,0,0,4,1,imgs/kangaroo.png,imgs/giraffe.png,imgs/pig.png,imgs/lion.png,imgs/cat.png,,,,,,,,,,,,,,,,,,,,,,,,
,,6103b565e6171b4849b8ed7b,66daf5c3b9f3c0e71701ece6,2024-09-06_14h31.01.854,mdp,2024.2.1,Win32,16.14569879,66d7945b1baad48e845df3ce,,,,,,,,,,,,,,2,seqs/st2seq1.csv,750.7602,755.3411,space,4.0434,,755.3512,755.3513,755.3527,757.3617,0,0,left,1.4452,,757.3623,760.1239,0,0,left,760.1245,760.125,,0,,1,760.125,760.125,760.1255,761.6099,0,0,0,0,1,0.6,0.4,0.4,0.6,,,,,,,,,,,,,,,2.2035,,0.6,0.4,0.2,0.8,0.8,0.2,0.8,0.2,1,0,,,,,,,,,,,,
,,6103b565e6171b4849b8ed7b,66daf5c3b9f3c0e71701ece6,2024-09-06_14h31.01.854,mdp,2024.2.1,Win32,16.14569879,66d7945b1baad48e845df3ce,,,,,,,,,,,,,,,,,,,,,761.6102,761.6102,761.6108,763.9972,0,0,left,1.8252,,763.9981,765.8606,0,0,left,765.8614,765.8619,,0,,1,765.862,765.862,765.8624,767.3631,0,1,1,1,1,0.2,0.8,0.6,0.4,,,,,,,,,,,,,,,1.3181,,0.6,0.4,0.2,0.8,0.8,0.2,0.8,0.2,1,0,,,,,,,,,,,,
,,6103b565e6171b4849b8ed7b,66daf5c3b9f3c0e71701ece6,2024-09-06_14h31.01.854,mdp,2024.2.1,Win32,16.14569879,66d7945b1baad48e845df3ce,,,,,,,,,,,,,,,,,,,,,767.3633,767.3634,767.364,769.5674,0,0,left,1.6644,,769.568,770.8331,0,0,left,770.8336,770.8342,,1,,1,770.8342,770.8342,770.8346,772.3334,0,2,2,2,1,0.2,0.8,0.6,0.4,,,,,,,,,,,,,,,0.7157,,0.6,0.4,0.2,0.8,0.8,0.2,0.8,0.2,1,0,,,,,,,,,,,,
,,6103b565e6171b4849b8ed7b,66daf5c3b9f3c0e71701ece6,2024-09-06_14h31.01.854,mdp,2024.2.1,Win32,16.14569879,66d7945b1baad48e845df3ce,,,,,,,,,,,,,,,,,,,,,772.3337,772.3337,772.3342,774.2881,1,0,right,1.3964,,774.2889,775.7943,1,1,right,775.7948,775.7952,,1,,0,775.7953,775.7953,775.7956,777.2687,0,3,3,3,1,0.4,0.6,0.8,0.2,,,,,,,,,,,,,,,0.9642,,0.6,0.4,0.2,0.8,0.8,0.2,0.8,0.2,1,0,,,,,,,,,,,,
,,6103b565e6171b4849b8ed7b,66daf5c3b9f3c0e71701ece6,2024-09-06_14h31.01.854,mdp,2024.2.1,Win32,16.14569879,66d7945b1baad48e845df3ce,,,,,,,,,,,,,,,,,,,,,777.2689,777.2689,777.2695,778.8881,1,0,right,1.0801,,778.8886,780.582,1,0,right,780.5825,780.583,,1,,1,780.583,780.583,780.5833,782.0769,0,4,4,4,1,0.4,0.6,0.8,0.2,,,,,,,,,,,,,,,1.1376,,0.6,0.4,0.2,0.8,0.8,0.2,0.8,0.2,1,0,,,,,,,,,,,,
,,6103b565e6171b4849b8ed7b,66daf5c3b9f3c0e71701ece6,2024-09-06_14h31.01.854,mdp,2024.2.1,Win32,16.14569879,66d7945b1baad48e845df3ce,,,,,,,,,,,,,,,,,,,,,782.0772,782.0772,782.0776,783.895,1,0,right,1.2718,,783.8956,785.2805,1,1,right,785.2812,785.2817,,1,,0,785.2817,785.2818,785.2822,786.7704,0,5,5,5,1,0.4,0.6,0.8,0.2,,,,,,,,,,,,,,,0.8443,,0.6,0.4,0.2,0.8,0.8,0.2,0.8,0.2,1,0,,,,,,,,,,,,
,,6103b565e6171b4849b8ed7b,66daf5c3b9f3c0e71701ece6,2024-09-06_14h31.01.854,mdp,2024.2.1,Win32,16.14569879,66d7945b1baad48e845df3ce,,,,,,,,,,,,,,,,,,,,,786.7706,786.7707,786.7712,788.1251,1,1,right,0.8041,,788.1257,789.5781,1,0,right,789.5786,789.5791,,0,,1,789.5791,789.5791,789.5796,791.072,0,6,6,6,1,0.4,0.6,0.8,0.2,,,,,,,,,,,,,,,0.9093,,0.6,0.4,0.2,0.8,0.8,0.2,0.8,0.2,1,0,,,,,,,,,,,,
,,6103b565e6171b4849b8ed7b,66daf5c3b9f3c0e71701ece6,2024-09-06_14h31.01.854,mdp,2024.2.1,Win32,16.14569879,66d7945b1baad48e845df3ce,,,,,,,,,,,,,,,,,,,,,791.0722,791.0722,791.0728,805.2421,1,0,right,13.6048,,805.2503,807.0131,1,1,right,807.0137,807.0141,,0,,0,807.0141,807.0141,807.0146,808.5121,0,7,7,7,1,0.4,0.6,0.8,0.2,,,,,,,,,,,,,,,1.1972,,0.8,0.2,0.8,0.2,0.8,0.2,0.8,0.2,1,0,,,,,,,,,,,,
,,6103b565e6171b4849b8ed7b,66daf5c3b9f3c0e71701ece6,2024-09-06_14h31.01.854,mdp,2024.2.1,Win32,16.14569879,66d7945b1baad48e845df3ce,,,,,,,,,,,,,,,,,,,,,808.5122,808.5122,808.5128,836.9546,1,0,right,27.8831,,836.9622,838.0712,1,0,right,838.0718,838.0723,,0,,1,838.0723,838.0723,838.0727,839.5758,0,8,8,8,1,0.4,0.6,0.8,0.2,,,,,,,,,,,,,,,0.5622,,0.8,0.2,0.8,0.2,0.6,0.4,0.6,0.4,1,0,,,,,,,,,,,,
,,6103b565e6171b4849b8ed7b,66daf5c3b9f3c0e71701ece6,2024-09-06_14h31.01.854,mdp,2024.2.1,Win32,16.14569879,66d7945b1baad48e845df3ce,,,,,,,,,,,,,,,,,,,,,839.576,839.576,839.5765,845.61,1,0,right,5.4817,,845.6177,846.669,1,0,right,846.6695,846.6699,,0,,1,846.6699,846.6699,846.6703,848.1328,0,9,9,9,1,0.4,0.6,0.8,0.2,,,,,,,,,,,,,,,0.5229,,0.8,0.2,0.8,0.2,0.6,0.4,0.6,0.4,1,0,,,,,,,,,,,,
,,6103b565e6171b4849b8ed7b,66daf5c3b9f3c0e71701ece6,2024-09-06_14h31.01.854,mdp,2024.2.1,Win32,16.14569879,66d7945b1baad48e845df3ce,,,,,,,,,,,,,,,,,,,,,848.133,848.133,848.1336,848.9102,1,0,right,0.2273,,848.9107,849.952,1,0,right,849.9526,849.953,,0,,1,849.953,849.953,849.9535,851.4666,0,10,10,10,1,0.4,0.6,0.8,0.2,,,,,,,,,,,,,,,0.4871,,0.8,0.2,0.8,0.2,0.6,0.4,0.6,0.4,1,0,,,,,,,,,,,,
,,6103b565e6171b4849b8ed7b,66daf5c3b9f3c0e71701ece6,2024-09-06_14h31.01.854,mdp,2024.2.1,Win32,16.14569879,66d7945b1baad48e845df3ce,,,,,,,,,,,,,,,,,,,,,851.4668,851.4668,851.4673,852.5615,1,0,right,0.5275,,852.562,856.0488,1,0,right,856.0559,856.0563,,0,,1,856.0563,856.0563,856.0567,857.558,0,11,11,11,1,0.4,0.6,0.8,0.2,,,,,,,,,,,,,,,2.9385,,0.8,0.2,0.8,0.2,0.6,0.4,0.6,0.4,1,0,,,,,,,,,,,,
,,6103b565e6171b4849b8ed7b,66daf5c3b9f3c0e71701ece6,2024-09-06_14h31.01.854,mdp,2024.2.1,Win32,16.14569879,66d7945b1baad48e845df3ce,,,,,,,,,,,,,,,,,,,,,857.5582,857.5582,857.5587,865.7668,1,0,right,7.6475,,865.7746,866.72,1,0,right,866.7205,866.7211,,1,,1,866.7211,866.7211,866.7214,868.2297,0,12,12,12,1,0.4,0.6,0.8,0.2,,,,,,,,,,,,,,,0.3839,,0.8,0.2,0.8,0.2,0.6,0.4,0.6,0.4,1,0,,,,,,,,,,,,
,,6103b565e6171b4849b8ed7b,66daf5c3b9f3c0e71701ece6,2024-09-06_14h31.01.854,mdp,2024.2.1,Win32,16.14569879,66d7945b1baad48e845df3ce,,,,,,,,,,,,,,,,,,,,,868.2299,868.2299,868.2304,870.1316,0,0,left,1.3322,,870.1321,871.1917,0,0,left,871.1922,871.1926,,0,,1,871.1927,871.1927,871.1931,872.6781,0,13,13,13,1,0.4,0.6,0.8,0.2,,,,,,,,,,,,,,,0.4937,,0.8,0.2,0.8,0.2,0.6,0.4,0.6,0.4,1,0,,,,,,,,,,,,
,,6103b565e6171b4849b8ed7b,66daf5c3b9f3c0e71701ece6,2024-09-06_14h31.01.854,mdp,2024.2.1,Win32,16.14569879,66d7945b1baad48e845df3ce,,,,,,,,,,,,,,,,,,,,,872.6786,872.6786,872.6794,875.3312,0,1,left,2.0909,,875.3317,876.5342,0,1,left,876.5348,876.5352,,1,,0,876.5352,876.5352,876.5356,878.0221,0,14,14,14,1,0.4,0.6,0.8,0.2,,,,,,,,,,,,,,,0.631,,0.8,0.2,0.8,0.2,0.6,0.4,0.6,0.4,1,0,,,,,,,,,,,,
,,6103b565e6171b4849b8ed7b,66daf5c3b9f3c0e71701ece6,2024-09-06_14h31.01.854,mdp,2024.2.1,Win32,16.14569879,66d7945b1baad48e845df3ce,,,,,,,,,,,,,,,,,,,,,878.0223,878.0223,878.0229,879.1516,0,1,left,0.5647,,879.1523,880.2177,0,1,left,880.2184,880.2188,,1,,0,880.2188,880.2188,880.2192,881.7335,0,15,15,15,1,0.4,0.6,0.8,0.2,,,,,,,,,,,,,,,0.5092,,0.8,0.2,0.8,0.2,0.6,0.4,0.6,0.4,1,0,,,,,,,,,,,,
,,6103b565e6171b4849b8ed7b,66daf5c3b9f3c0e71701ece6,2024-09-06_14h31.01.854,mdp,2024.2.1,Win32,16.14569879,66d7945b1baad48e845df3ce,,,,,,,,,,,,,,,,,,,,,881.7337,881.7337,881.7343,886.0871,1,0,right,3.7863,,886.0945,887.1421,1,0,right,887.1427,887.1432,,0,,1,887.1432,887.1432,887.1436,888.6539,0,16,16,16,1,0.4,0.6,0.8,0.2,,,,,,,,,,,,,,,0.4848,,0.8,0.2,0.8,0.2,0.8,0.2,0.2,0.8,1,0,,,,,,,,,,,,
,,6103b565e6171b4849b8ed7b,66daf5c3b9f3c0e71701ece6,2024-09-06_14h31.01.854,mdp,2024.2.1,Win32,16.14569879,66d7945b1baad48e845df3ce,,,,,,,,,,,,,,,,,,,,,888.6542,888.6542,888.6547,894.7744,1,0,right,5.5601,,894.7817,896.3646,1,0,right,896.3655,896.366,,0,,1,896.366,896.366,896.3664,897.8228,0,17,17,17,1,0.4,0.6,0.8,0.2,,,,,,,,,,,,,,,1.0326,,0.8,0.2,0.8,0.2,0.8,0.2,0.2,0.8,1,0,,,,,,,,,,,,
,,6103b565e6171b4849b8ed7b,66daf5c3b9f3c0e71701ece6,2024-09-06_14h31.01.854,mdp,2024.2.1,Win32,16.14569879,66d7945b1baad48e845df3ce,,,,,,,,,,,,,,,,,,,,,897.823,897.823,897.8236,904.4412,1,0,right,6.052,,904.4483,906.2798,1,0,right,906.2804,906.2808,,0,,1,906.2808,906.2808,906.2812,907.7425,0,18,18,18,1,0.4,0.6,0.8,0.2,,,,,,,,,,,,,,,1.2928,,0.8,0.2,0.8,0.2,0.8,0.2,0.2,0.8,1,0,,,,,,,,,,,,
,,6103b565e6171b4849b8ed7b,66daf5c3b9f3c0e71701ece6,2024-09-06_14h31.01.854,mdp,2024.2.1,Win32,16.14569879,66d7945b1baad48e845df3ce,,,,,,,,,,,,,,,,,,,,,907.7427,907.7427,907.7432,913.6456,1,0,right,5.3382,,913.6529,914.6245,1,0,right,914.625,914.6254,,0,,1,914.6255,914.6255,914.6257,916.1303,0,19,19,19,1,0.4,0.6,0.8,0.2,,,,,,,,,,,,,,,0.4138,,0.8,0.2,0.8,0.2,0.8,0.2,0.2,0.8,1,0,,,,,,,,,,,,
,,6103b565e6171b4849b8ed7b,66daf5c3b9f3c0e71701ece6,2024-09-06_14h31.01.854,mdp,2024.2.1,Win32,16.14569879,66d7945b1baad48e845df3ce,,,,,,,,,,,,,,,,,,,,,916.1307,916.1307,916.1314,917.5805,1,1,right,0.9014,,917.5811,918.9,1,1,right,918.9006,918.901,,1,,0,918.9011,918.9011,918.9014,920.4016,0,20,20,20,1,0.4,0.6,0.8,0.2,,,,,,,,,,,,,,,0.7615,,0.8,0.2,0.8,0.2,0.8,0.2,0.2,0.8,1,0,,,,,,,,,,,,
,,6103b565e6171b4849b8ed7b,66daf5c3b9f3c0e71701ece6,2024-09-06_14h31.01.854,mdp,2024.2.1,Win32,16.14569879,66d7945b1baad48e845df3ce,,,,,,,,,,,,,,,,,,,,,920.4019,920.4019,920.4023,925.0768,1,0,right,4.1186,,925.0848,926.03,1,0,right,926.0305,926.0309,,0,,1,926.0309,926.0309,926.0313,927.5402,0,21,21,21,1,0.4,0.6,0.8,0.2,,,,,,,,,,,,,,,0.3811,,0.8,0.2,0.8,0.2,0.8,0.2,0.2,0.8,1,0,,,,,,,,,,,,
,,6103b565e6171b4849b8ed7b,66daf5c3b9f3c0e71701ece6,2024-09-06_14h31.01.854,mdp,2024.2.1,Win32,16.14569879,66d7945b1baad48e845df3ce,,,,,,,,,,,,,,,,,,,,,927.5404,927.5404,927.5409,931.4089,1,1,right,3.3159,,931.4169,932.4279,1,1,right,932.4288,932.4295,,0,,0,932.4295,932.4295,932.43,933.9334,0,22,22,22,1,0.8,0.2,0.2,0.8,,,,,,,,,,,,,,,0.4435,,0.8,0.2,0.8,0.2,0.8,0.2,0.2,0.8,1,0,,,,,,,,,,,,
,,6103b565e6171b4849b8ed7b,66daf5c3b9f3c0e71701ece6,2024-09-06_14h31.01.854,mdp,2024.2.1,Win32,16.14569879,66d7945b1baad48e845df3ce,,,,,,,,,,,,,,,,,,,,,933.9337,933.9337,933.9342,937.9664,0,0,left,3.4784,,937.9741,939.2512,0,0,left,939.2518,939.2522,,0,,1,939.2523,939.2523,939.2532,940.7439,0,23,23,23,1,0.8,0.2,0.2,0.8,,,,,,,,,,,,,,,0.7428,,0.8,0.2,0.8,0.2,0.8,0.2,0.2,0.8,1,0,,,,,,,,,,,,
,,6103b565e6171b4849b8ed7b,66daf5c3b9f3c0e71701ece6,2024-09-06_14h31.01.854,mdp,2024.2.1,Win32,16.14569879,66d7945b1baad48e845df3ce,,,,,,,,,,,,,,,,,,,,,940.7441,940.7442,940.7447,953.5016,0,0,left,12.214,,953.5095,955.0545,1,0,right,955.0551,955.0555,,1,,1,955.0555,955.0556,955.056,956.5515,0,24,24,24,1,0.8,0.2,0.2,0.8,,,,,,,,,,,,,,,0.9989,,0.2,0.8,0.2,0.8,0.8,0.2,0.2,0.8,1,0,,,,,,,,,,,,
,,6103b565e6171b4849b8ed7b,66daf5c3b9f3c0e71701ece6,2024-09-06_14h31.01.854,mdp,2024.2.1,Win32,16.14569879,66d7945b1baad48e845df3ce,,,,,,,,,,,,,,,,,,,,,956.5518,956.5518,956.5523,969.4632,0,1,left,12.3512,,969.4712,970.7062,0,1,left,970.707,970.7075,,0,,0,970.7075,970.7075,970.7079,972.2156,0,25,25,25,1,0.8,0.2,0.2,0.8,,,,,,,,,,,,,,,0.6705,,0.2,0.8,0.2,0.8,0.8,0.2,0.2,0.8,1,0,,,,,,,,,,,,
,,6103b565e6171b4849b8ed7b,66daf5c3b9f3c0e71701ece6,2024-09-06_14h31.01.854,mdp,2024.2.1,Win32,16.14569879,66d7945b1baad48e845df3ce,,,,,,,,,,,,,,,,,,,,,972.2159,972.2159,972.2164,973.6965,1,1,right,0.9123,,973.697,975.0906,0,0,left,975.0912,975.0916,,1,,1,975.0916,975.0916,975.092,976.5791,0,26,26,26,1,0.8,0.2,0.2,0.8,,,,,,,,,,,,,,,0.8432,,0.2,0.8,0.2,0.8,0.8,0.2,0.2,0.8,1,0,,,,,,,,,,,,
,,6103b565e6171b4849b8ed7b,66daf5c3b9f3c0e71701ece6,2024-09-06_14h31.01.854,mdp,2024.2.1,Win32,16.14569879,66d7945b1baad48e845df3ce,,,,,,,,,,,,,,,,,,,,,976.5794,976.5794,976.58,977.9999,1,0,right,0.8659,,978.0004,978.9489,0,1,left,978.9494,978.9498,,1,,0,978.9498,978.9498,978.9502,980.4045,0,27,27,27,1,0.4,0.6,0.4,0.6,,,,,,,,,,,,,,,0.3841,,0.2,0.8,0.2,0.8,0.8,0.2,0.2,0.8,1,0,,,,,,,,,,,,
,,6103b565e6171b4849b8ed7b,66daf5c3b9f3c0e71701ece6,2024-09-06_14h31.01.854,mdp,2024.2.1,Win32,16.14569879,66d7945b1baad48e845df3ce,,,,,,,,,,,,,,,,,,,,,980.4047,980.4048,980.4053,987.814,1,1,right,6.8526,,987.8215,989.7317,0,0,left,989.7322,989.7326,,1,,1,989.7327,989.7327,989.733,991.2108,0,28,28,28,1,0.4,0.6,0.4,0.6,,,,,,,,,,,,,,,1.3562,,0.2,0.8,0.2,0.8,0.8,0.2,0.2,0.8,1,0,,,,,,,,,,,,
,,6103b565e6171b4849b8ed7b,66daf5c3b9f3c0e71701ece6,2024-09-06_14h31.01.854,mdp,2024.2.1,Win32,16.14569879,66d7945b1baad48e845df3ce,,,,,,,,,,,,,,,,,,,,,991.2112,991.2112,991.2119,993.4257,1,1,right,1.6614,,993.4262,996.3582,1,1,right,996.3656,996.3663,,1,,0,996.3663,996.3663,996.3667,997.8713,0,29,29,29,1,0.4,0.6,0.4,0.6,,,,,,,,,,,,,,,2.3705,,0.2,0.8,0.2,0.8,0.8,0.2,0.2,0.8,1,0,,,,,,,,,,,,
,,6103b565e6171b4849b8ed7b,66daf5c3b9f3c0e71701ece6,2024-09-06_14h31.01.854,mdp,2024.2.1,Win32,16.14569879,66d7945b1baad48e845df3ce,,,,,,,,,,,,,,,,,,,,,997.8717,997.8717,997.8723,1003.262,0,1,left,4.849,,1003.2693,1004.4716,0,1,left,1004.4722,1004.4726,,1,,0,1004.4727,1004.4727,1004.4731,1005.9454,0,30,30,30,1,0.4,0.6,0.4,0.6,,,,,,,,,,,,,,,0.6568,,0.2,0.8,0.2,0.8,0.4,0.6,0.6,0.4,1,0,,,,,,,,,,,,
,,6103b565e6171b4849b8ed7b,66daf5c3b9f3c0e71701ece6,2024-09-06_14h31.01.854,mdp,2024.2.1,Win32,16.14569879,66d7945b1baad48e845df3ce,,,,,,,,,,,,,,,,,,,,,1005.9457,1005.9457,1005.9462,1007.4772,0,1,left,0.9729,,1007.4777,1008.6883,1,0,right,1008.6891,1008.6896,,0,,1,1008.6896,1008.6896,1008.69,1010.1914,0,31,31,31,1,0.4,0.6,0.4,0.6,,,,,,,,,,,,,,,0.6335,,0.2,0.8,0.2,0.8,0.4,0.6,0.6,0.4,1,0,,,,,,,,,,,,
,,6103b565e6171b4849b8ed7b,66daf5c3b9f3c0e71701ece6,2024-09-06_14h31.01.854,mdp,2024.2.1,Win32,16.14569879,66d7945b1baad48e845df3ce,,,,,,,,,,,,,,,,,,,,,1010.1916,1010.1916,1010.1921,1011.9014,0,1,left,1.1643,,1011.902,1012.8443,1,0,right,1012.8449,1012.8453,,0,,1,1012.8453,1012.8454,1012.8458,1014.3249,0,32,32,32,1,0.2,0.8,0.6,0.4,,,,,,,,,,,,,,,0.3777,,0.2,0.8,0.2,0.8,0.4,0.6,0.6,0.4,1,0,,,,,,,,,,,,
,,6103b565e6171b4849b8ed7b,66daf5c3b9f3c0e71701ece6,2024-09-06_14h31.01.854,mdp,2024.2.1,Win32,16.14569879,66d7945b1baad48e845df3ce,,,,,,,,,,,,,,,,,,,,,1014.3252,1014.3252,1014.3256,1015.8582,0,1,left,0.9712,,1015.8589,1016.9814,1,0,right,1016.982,1016.9826,,1,,1,1016.9826,1016.9826,1016.9831,1018.473,0,33,33,33,1,0.2,0.8,0.6,0.4,,,,,,,,,,,,,,,0.5494,,0.2,0.8,0.2,0.8,0.4,0.6,0.6,0.4,1,0,,,,,,,,,,,,
,,6103b565e6171b4849b8ed7b,66daf5c3b9f3c0e71701ece6,2024-09-06_14h31.01.854,mdp,2024.2.1,Win32,16.14569879,66d7945b1baad48e845df3ce,,,,,,,,,,,,,,,,,,,,,1018.4734,1018.4734,1018.474,1019.6924,0,1,left,0.6804,,1019.6929,1020.5712,0,1,left,1020.5717,1020.5724,,0,,0,1020.5724,1020.5724,1020.5728,1022.0752,0,34,34,34,1,0.2,0.8,0.6,0.4,,,,,,,,,,,,,,,0.3373,,0.2,0.8,0.2,0.8,0.4,0.6,0.6,0.4,1,0,,,,,,,,,,,,
,,6103b565e6171b4849b8ed7b,66daf5c3b9f3c0e71701ece6,2024-09-06_14h31.01.854,mdp,2024.2.1,Win32,16.14569879,66d7945b1baad48e845df3ce,,,,,,,,,,,,,,,,,,,,,1022.0754,1022.0754,1022.076,1023.0995,1,0,right,0.4572,,1023.1002,1023.9587,1,1,right,1023.9593,1023.9598,,1,,0,1023.9598,1023.9598,1023.9601,1025.4555,0,35,35,35,1,0.2,0.8,0.6,0.4,,,,,,,,,,,,,,,0.2843,,0.2,0.8,0.2,0.8,0.4,0.6,0.6,0.4,1,0,,,,,,,,,,,,
,,6103b565e6171b4849b8ed7b,66daf5c3b9f3c0e71701ece6,2024-09-06_14h31.01.854,mdp,2024.2.1,Win32,16.14569879,66d7945b1baad48e845df3ce,,,,,,,,,,,,,,,,,,,,,1025.4558,1025.4558,1025.4563,1026.5375,0,1,left,0.5107,,1026.538,1027.9541,0,1,left,1027.9549,1027.9554,,0,,0,1027.9554,1027.9554,1027.9559,1029.4489,0,36,36,36,1,0.2,0.8,0.6,0.4,,,,,,,,,,,,,,,0.8493,,0.2,0.8,0.2,0.8,0.4,0.6,0.6,0.4,1,0,,,,,,,,,,,,
,,6103b565e6171b4849b8ed7b,66daf5c3b9f3c0e71701ece6,2024-09-06_14h31.01.854,mdp,2024.2.1,Win32,16.14569879,66d7945b1baad48e845df3ce,,,,,,,,,,,,,,,,,,,,,1029.4492,1029.4492,1029.4496,1030.7845,0,1,left,0.7843,,1030.7851,1031.3561,1,1,right,1031.3567,1031.3572,,0,,0,1031.3573,1031.3573,1031.3577,1032.8447,0,37,37,37,1,0.2,0.8,0.6,0.4,,,,,,,,,,,,,,,0.0032,,0.2,0.8,0.2,0.8,0.4,0.6,0.6,0.4,1,0,,,,,,,,,,,,
,,6103b565e6171b4849b8ed7b,66daf5c3b9f3c0e71701ece6,2024-09-06_14h31.01.854,mdp,2024.2.1,Win32,16.14569879,66d7945b1baad48e845df3ce,,,,,,,,,,,,,,,,,,,,,1032.8451,1032.8451,1032.8455,1034.5831,1,0,right,1.1687,,1034.5837,1036.5734,1,1,right,1036.574,1036.5744,,1,,0,1036.5744,1036.5744,1036.5748,1038.0575,0,38,38,38,1,0.2,0.8,0.6,0.4,,,,,,,,,,,,,,,1.4141,,0.2,0.8,0.2,0.8,0.6,0.4,0.4,0.6,1,0,,,,,,,,,,,,
,,6103b565e6171b4849b8ed7b,66daf5c3b9f3c0e71701ece6,2024-09-06_14h31.01.854,mdp,2024.2.1,Win32,16.14569879,66d7945b1baad48e845df3ce,,,,,,,,,,,,,,,,,,,,,1038.0578,1038.0578,1038.0583,1039.5358,0,1,left,0.9134,,1039.5364,1040.839,0,0,left,1040.8395,1040.8399,,0,,1,1040.84,1040.84,1040.8403,1042.3337,0,39,39,39,1,0.2,0.8,0.6,0.4,,,,,,,,,,,,,,,0.7409,,0.2,0.8,0.2,0.8,0.6,0.4,0.4,0.6,1,0,,,,,,,,,,,,
,,6103b565e6171b4849b8ed7b,66daf5c3b9f3c0e71701ece6,2024-09-06_14h31.01.854,mdp,2024.2.1,Win32,16.14569879,66d7945b1baad48e845df3ce,,,,,,,,,,,,,,,,,,,,,1042.334,1042.334,1042.3344,1044.8514,0,1,left,1.9643,,1044.852,1046.0187,0,1,left,1046.0193,1046.0197,,0,,0,1046.0197,1046.0197,1046.0201,1047.5288,0,40,40,40,1,0.2,0.8,0.6,0.4,,,,,,,,,,,,,,,0.6066,,0.6,0.4,0.6,0.4,0.6,0.4,0.4,0.6,1,0,,,,,,,,,,,,
,,6103b565e6171b4849b8ed7b,66daf5c3b9f3c0e71701ece6,2024-09-06_14h31.01.854,mdp,2024.2.1,Win32,16.14569879,66d7945b1baad48e845df3ce,,,,,,,,,,,,,,,,,,,,,1047.5291,1047.5291,1047.5295,1048.4225,1,0,right,0.3397,,1048.4231,1053.3308,1,0,right,1053.3405,1053.3411,,1,,1,1053.3411,1053.3412,1053.3415,1054.8251,0,41,41,41,1,0.2,0.8,0.6,0.4,,,,,,,,,,,,,,,4.3528,,0.6,0.4,0.6,0.4,0.6,0.4,0.4,0.6,1,0,,,,,,,,,,,,
,,6103b565e6171b4849b8ed7b,66daf5c3b9f3c0e71701ece6,2024-09-06_14h31.01.854,mdp,2024.2.1,Win32,16.14569879,66d7945b1baad48e845df3ce,,,,,,,,,,,,,,,,,,,,,1054.8254,1054.8254,1054.8258,1058.4871,0,1,left,3.1046,,1058.4941,1059.639,0,0,left,1059.6396,1059.64,,0,,1,1059.64,1059.64,1059.6404,1061.1314,0,42,42,42,1,0.2,0.8,0.6,0.4,,,,,,,,,,,,,,,0.5764,,0.6,0.4,0.6,0.4,0.6,0.4,0.4,0.6,1,0,,,,,,,,,,,,
,,6103b565e6171b4849b8ed7b,66daf5c3b9f3c0e71701ece6,2024-09-06_14h31.01.854,mdp,2024.2.1,Win32,16.14569879,66d7945b1baad48e845df3ce,,,,,,,,,,,,,,,,,,,,,1061.1316,1061.1317,1061.1321,1065.8934,1,1,right,4.1896,,1065.9009,1068.1895,0,1,left,1068.1902,1068.1906,,1,,0,1068.1906,1068.1906,1068.191,1069.6933,0,43,43,43,1,0.2,0.8,0.6,0.4,,,,,,,,,,,,,,,1.7413,,0.6,0.4,0.6,0.4,0.6,0.4,0.4,0.6,1,0,,,,,,,,,,,,
,,6103b565e6171b4849b8ed7b,66daf5c3b9f3c0e71701ece6,2024-09-06_14h31.01.854,mdp,2024.2.1,Win32,16.14569879,66d7945b1baad48e845df3ce,,,,,,,,,,,,,,,,,,,,,1069.6935,1069.6935,1069.6941,1074.3696,1,0,right,4.1031,,1074.3772,1075.3375,1,0,right,1075.3381,1075.3386,,0,,1,1075.3386,1075.3386,1075.3391,1076.8245,0,44,44,44,1,0.2,0.8,0.6,0.4,,,,,,,,,,,,,,,0.4254,,0.6,0.4,0.6,0.4,0.6,0.4,0.4,0.6,1,0,,,,,,,,,,,,
,,6103b565e6171b4849b8ed7b,66daf5c3b9f3c0e71701ece6,2024-09-06_14h31.01.854,mdp,2024.2.1,Win32,16.14569879,66d7945b1baad48e845df3ce,,,,,,,,,,,,,,,,,,,,,1076.8247,1076.8248,1076.8253,1079.7301,0,1,left,2.3448,,1079.7307,1080.9668,1,1,right,1080.9673,1080.9678,,1,,0,1080.9678,1080.9678,1080.9682,1082.4294,0,45,45,45,1,0.2,0.8,0.6,0.4,,,,,,,,,,,,,,,0.6713,,0.6,0.4,0.6,0.4,0.6,0.4,0.4,0.6,1,0,,,,,,,,,,,,
,,6103b565e6171b4849b8ed7b,66daf5c3b9f3c0e71701ece6,2024-09-06_14h31.01.854,mdp,2024.2.1,Win32,16.14569879,66d7945b1baad48e845df3ce,,,,,,,,,,,,,,,,,,,,,1082.4297,1082.4297,1082.4302,1083.8381,0,1,left,0.8547,,1083.8386,1085.0494,0,1,left,1085.0501,1085.0504,,0,,0,1085.0505,1085.0505,1085.0509,1086.5562,0,46,46,46,1,0.2,0.8,0.6,0.4,,,,,,,,,,,,,,,0.6488,,0.6,0.4,0.6,0.4,0.6,0.4,0.4,0.6,1,0,,,,,,,,,,,,
,,6103b565e6171b4849b8ed7b,66daf5c3b9f3c0e71701ece6,2024-09-06_14h31.01.854,mdp,2024.2.1,Win32,16.14569879,66d7945b1baad48e845df3ce,,,,,,,,,,,,,,,,,,,,,1086.5564,1086.5564,1086.557,1087.9406,1,1,right,0.8246,,1087.9412,1089.7071,1,0,right,1089.7076,1089.708,,0,,1,1089.7081,1089.7081,1089.7084,1091.191,0,47,47,47,1,0.2,0.8,0.6,0.4,,,,,,,,,,,,,,,1.2125,1E-04,0.6,0.4,0.6,0.4,0.6,0.4,0.4,0.6,1,0,,,,,,,,,,,,
,,6103b565e6171b4849b8ed7b,66daf5c3b9f3c0e71701ece6,2024-09-06_14h31.01.854,mdp,2024.2.1,Win32,16.14569879,66d7945b1baad48e845df3ce,,,,,,,,,,,,,,,,,,,,,1091.1913,1091.1913,1091.1917,1093.4904,0,1,left,1.7476,,1093.4908,1096.2966,1,0,right,1096.2971,1096.2976,,0,,1,1096.2976,1096.2976,1096.298,1097.7522,0,48,48,48,1,0.2,0.8,0.6,0.4,,,,,,,,,,,,,,,2.2444,,0.4,0.6,0.4,0.6,0.6,0.4,0.4,0.6,1,0,,,,,,,,,,,,
,,6103b565e6171b4849b8ed7b,66daf5c3b9f3c0e71701ece6,2024-09-06_14h31.01.854,mdp,2024.2.1,Win32,16.14569879,66d7945b1baad48e845df3ce,,,,,,,,,,,,,,,,,,,,,1097.7524,1097.7524,1097.753,1099.5816,0,0,left,1.27,,1099.5822,1101.5098,1,1,right,1101.5104,1101.5108,,1,,0,1101.5108,1101.5108,1101.5111,1103.0228,0,49,49,49,1,0.2,0.8,0.6,0.4,,,,,,,,,,,,,,,1.3866,,0.4,0.6,0.4,0.6,0.2,0.8,0.8,0.2,1,0,,,,,,,,,,,,
,,6103b565e6171b4849b8ed7b,66daf5c3b9f3c0e71701ece6,2024-09-06_14h31.01.854,mdp,2024.2.1,Win32,16.14569879,66d7945b1baad48e845df3ce,,,,,,,,,,,,,,,,,,,,,,,,,,,,,,,,,,,,,,,,,,,,,,,,,,,,,,,,1103.0228,1161.546,0,1,1,5,1,imgs/kangaroo.png,imgs/goat.png,imgs/rabbit.png,imgs/horse.png,imgs/pig.png,,,,,,,,,,,,,,,,,,,,,,,,
,,6103b565e6171b4849b8ed7b,66daf5c3b9f3c0e71701ece6,2024-09-06_14h31.01.854,mdp,2024.2.1,Win32,16.14569879,66d7945b1baad48e845df3ce,,,,,,,,,,,,,,3,seqs/st3seq35.csv,1161.5538,1163.6513,space,1.5156,,1163.6564,1163.6564,1163.657,1166.6577,0,1,left,2.4546,,1166.6583,1169.9079,0,0,left,1169.9154,1173.8149,0,0,left,1,1173.8149,1173.8149,1173.8155,1175.3273,0,0,0,0,1,0.2,0.8,0.6,0.4,,,,,,,,,,,,,,,2.6837,,0.8,0.2,0.4,0.6,0.8,0.2,0.8,0.2,,,3.3594,,0.4,0.6,0.8,0.2,0.4,0.6,0.4,0.6,1,0
,,6103b565e6171b4849b8ed7b,66daf5c3b9f3c0e71701ece6,2024-09-06_14h31.01.854,mdp,2024.2.1,Win32,16.14569879,66d7945b1baad48e845df3ce,,,,,,,,,,,,,,,,,,,,,1175.3276,1175.3276,1175.3281,1177.2091,0,0,left,1.321,,1177.2101,1178.6909,0,0,left,1178.6915,1180.2453,0,0,left,1,1180.2453,1180.2453,1180.2461,1181.7414,0,1,1,1,1,0.2,0.8,0.6,0.4,,,,,,,,,,,,,,,0.8993,,0.8,0.2,0.4,0.6,0.8,0.2,0.8,0.2,,,0.9858,,0.4,0.6,0.8,0.2,0.4,0.6,0.4,0.6,1,0
,,6103b565e6171b4849b8ed7b,66daf5c3b9f3c0e71701ece6,2024-09-06_14h31.01.854,mdp,2024.2.1,Win32,16.14569879,66d7945b1baad48e845df3ce,,,,,,,,,,,,,,,,,,,,,1181.7416,1181.7417,1181.7422,1183.7588,0,1,left,1.443,,1183.7593,1184.8547,0,1,left,1184.8554,1185.6782,1,1,right,0,1185.6783,1185.6783,1185.6789,1187.1689,0,2,2,2,1,0.2,0.8,0.6,0.4,,,,,,,,,,,,,,,0.5337,,0.8,0.2,0.4,0.6,0.8,0.2,0.8,0.2,,,0.2764,,0.4,0.6,0.8,0.2,0.4,0.6,0.4,0.6,1,0
,,6103b565e6171b4849b8ed7b,66daf5c3b9f3c0e71701ece6,2024-09-06_14h31.01.854,mdp,2024.2.1,Win32,16.14569879,66d7945b1baad48e845df3ce,,,,,,,,,,,,,,,,,,,,,1187.1691,1187.1691,1187.1697,1188.3095,0,1,left,0.5823,,1188.3101,1189.8642,0,0,left,1189.8647,1191.0484,0,1,left,0,1191.0485,1191.0485,1191.0489,1192.5368,0,3,3,3,1,0.2,0.8,0.6,0.4,,,,,,,,,,,,,,,0.9923,,0.8,0.2,0.4,0.6,0.8,0.2,0.8,0.2,,,0.6357,,0.4,0.6,0.8,0.2,0.4,0.6,0.4,0.6,1,0
,,6103b565e6171b4849b8ed7b,66daf5c3b9f3c0e71701ece6,2024-09-06_14h31.01.854,mdp,2024.2.1,Win32,16.14569879,66d7945b1baad48e845df3ce,,,,,,,,,,,,,,,,,,,,,1192.5371,1192.5371,1192.5377,1193.7225,0,1,left,0.6284,,1193.723,1194.8957,0,1,left,1194.8965,1196.1778,1,1,right,0,1196.1778,1196.1778,1196.1784,1197.6785,0,4,4,4,1,0.2,0.8,0.6,0.4,,,,,,,,,,,,,,,0.6116,,0.8,0.2,0.4,0.6,0.8,0.2,0.8,0.2,,,0.7107,,0.4,0.6,0.8,0.2,0.4,0.6,0.4,0.6,1,0
,,6103b565e6171b4849b8ed7b,66daf5c3b9f3c0e71701ece6,2024-09-06_14h31.01.854,mdp,2024.2.1,Win32,16.14569879,66d7945b1baad48e845df3ce,,,,,,,,,,,,,,,,,,,,,1197.6788,1197.6788,1197.6793,1198.5727,1,0,right,0.3465,,1198.5733,1199.4367,1,1,right,1199.4372,1200.2464,1,0,right,1,1200.2464,1200.2464,1200.2471,1201.7553,0,5,5,5,1,0.2,0.8,0.6,0.4,,,,,,,,,,,,,,,0.3057,,0.8,0.2,0.4,0.6,0.8,0.2,0.8,0.2,,,0.2351,,0.4,0.6,0.8,0.2,0.4,0.6,0.4,0.6,1,0
,,6103b565e6171b4849b8ed7b,66daf5c3b9f3c0e71701ece6,2024-09-06_14h31.01.854,mdp,2024.2.1,Win32,16.14569879,66d7945b1baad48e845df3ce,,,,,,,,,,,,,,,,,,,,,1201.7556,1201.7556,1201.756,1202.7332,1,0,right,0.4152,,1202.7337,1203.6172,1,0,right,1203.6178,1204.8986,1,1,right,0,1204.8987,1204.8987,1204.8992,1206.4089,0,6,6,6,1,0.2,0.8,0.6,0.4,,,,,,,,,,,,,,,0.3128,,0.8,0.2,0.4,0.6,0.8,0.2,0.8,0.2,,,0.717,,0.6,0.4,0.4,0.6,0.4,0.6,0.4,0.6,1,0
,,6103b565e6171b4849b8ed7b,66daf5c3b9f3c0e71701ece6,2024-09-06_14h31.01.854,mdp,2024.2.1,Win32,16.14569879,66d7945b1baad48e845df3ce,,,,,,,,,,,,,,,,,,,,,1206.4092,1206.4092,1206.4097,1207.3615,1,0,right,0.3912,,1207.3621,1208.2697,1,1,right,1208.2703,1209.19,1,1,right,0,1209.19,1209.19,1209.1906,1210.6501,0,7,7,7,1,0.2,0.8,0.6,0.4,,,,,,,,,,,,,,,0.349,,0.6,0.4,0.2,0.8,0.8,0.2,0.8,0.2,,,0.38,,0.6,0.4,0.4,0.6,0.4,0.6,0.4,0.6,1,0
,,6103b565e6171b4849b8ed7b,66daf5c3b9f3c0e71701ece6,2024-09-06_14h31.01.854,mdp,2024.2.1,Win32,16.14569879,66d7945b1baad48e845df3ce,,,,,,,,,,,,,,,,,,,,,1210.6505,1210.6505,1210.651,1211.2574,1,0,right,0.0392,,1211.258,1211.9323,0,0,left,1211.933,1213.4836,0,1,left,0,1213.4836,1213.4836,1213.4842,1214.9681,0,8,8,8,1,0.2,0.8,0.6,0.4,,,,,,,,,,,,,,,0.1163,,0.6,0.4,0.2,0.8,0.8,0.2,0.8,0.2,,,0.9841,,0.6,0.4,0.4,0.6,0.4,0.6,0.4,0.6,1,0
,,6103b565e6171b4849b8ed7b,66daf5c3b9f3c0e71701ece6,2024-09-06_14h31.01.854,mdp,2024.2.1,Win32,16.14569879,66d7945b1baad48e845df3ce,,,,,,,,,,,,,,,,,,,,,1214.9683,1214.9683,1214.9688,1216.3226,1,0,right,0.7924,,1216.3231,1217.3976,1,0,right,1217.3981,1218.9244,0,1,left,0,1218.9244,1218.9244,1218.9249,1220.4111,0,9,9,9,1,0.2,0.8,0.6,0.4,,,,,,,,,,,,,,,0.5028,,0.6,0.4,0.2,0.8,0.8,0.2,0.8,0.2,,,0.9693,,0.6,0.4,0.4,0.6,0.4,0.6,0.4,0.6,1,0
,,6103b565e6171b4849b8ed7b,66daf5c3b9f3c0e71701ece6,2024-09-06_14h31.01.854,mdp,2024.2.1,Win32,16.14569879,66d7945b1baad48e845df3ce,,,,,,,,,,,,,,,,,,,,,1220.4114,1220.4114,1220.4119,1221.2709,1,0,right,0.3074,,1221.2715,1222.3808,1,1,right,1222.3814,1223.6956,1,0,right,1,1223.6957,1223.6957,1223.6963,1225.1797,0,10,10,10,1,0.2,0.8,0.6,0.4,,,,,,,,,,,,,,,0.5615,,0.6,0.4,0.2,0.8,0.8,0.2,0.8,0.2,,,0.758,,0.6,0.4,0.4,0.6,0.4,0.6,0.4,0.6,1,0
,,6103b565e6171b4849b8ed7b,66daf5c3b9f3c0e71701ece6,2024-09-06_14h31.01.854,mdp,2024.2.1,Win32,16.14569879,66d7945b1baad48e845df3ce,,,,,,,,,,,,,,,,,,,,,1225.18,1225.18,1225.1807,1227.8699,1,0,right,2.1245,,1227.8778,1231.6144,1,1,right,1231.6223,1233.2571,1,0,right,1,1233.2571,1233.2571,1233.2577,1234.7677,0,11,11,11,1,0.2,0.8,0.6,0.4,,,,,,,,,,,,,,,3.1815,,0.6,0.4,0.2,0.8,0.8,0.2,0.8,0.2,,,1.084,,0.6,0.4,0.4,0.6,0.4,0.6,0.4,0.6,1,0
,,6103b565e6171b4849b8ed7b,66daf5c3b9f3c0e71701ece6,2024-09-06_14h31.01.854,mdp,2024.2.1,Win32,16.14569879,66d7945b1baad48e845df3ce,,,,,,,,,,,,,,,,,,,,,1234.768,1234.768,1234.7686,1242.8985,1,1,right,7.5741,,1242.9065,1243.8969,1,0,right,1243.8974,1245.1917,0,1,left,0,1245.1917,1245.1917,1245.1923,1246.6795,0,12,12,12,1,0.2,0.8,0.6,0.4,,,,,,,,,,,,,,,0.4573,,0.6,0.4,0.2,0.8,0.8,0.2,0.8,0.2,,,0.7334,,0.6,0.4,0.4,0.6,0.4,0.6,0.4,0.6,1,0
,,6103b565e6171b4849b8ed7b,66daf5c3b9f3c0e71701ece6,2024-09-06_14h31.01.854,mdp,2024.2.1,Win32,16.14569879,66d7945b1baad48e845df3ce,,,,,,,,,,,,,,,,,,,,,1246.6799,1246.6799,1246.6804,1247.4929,1,1,right,0.2753,,1247.4935,1248.1732,1,1,right,1248.1738,1248.7707,1,1,right,0,1248.7707,1248.7707,1248.7714,1250.2546,0,13,13,13,1,0.2,0.8,0.6,0.4,,,,,,,,,,,,,,,0.1133,,0.6,0.4,0.2,0.8,0.8,0.2,0.8,0.2,,,0.0408,,0.6,0.4,0.4,0.6,0.4,0.6,0.4,0.6,1,0
,,6103b565e6171b4849b8ed7b,66daf5c3b9f3c0e71701ece6,2024-09-06_14h31.01.854,mdp,2024.2.1,Win32,16.14569879,66d7945b1baad48e845df3ce,,,,,,,,,,,,,,,,,,,,,1250.2548,1250.2548,1250.2554,1251.6739,0,1,left,0.8473,,1251.6746,1252.9723,1,0,right,1252.973,1253.8304,0,0,left,1,1253.8304,1253.8304,1253.831,1255.3268,0,14,14,14,1,0.2,0.8,0.6,0.4,,,,,,,,,,,,,,,0.7294,,0.6,0.4,0.2,0.8,0.8,0.2,0.8,0.2,,,0.3181,,0.6,0.4,0.4,0.6,0.4,0.6,0.4,0.6,1,0
,,6103b565e6171b4849b8ed7b,66daf5c3b9f3c0e71701ece6,2024-09-06_14h31.01.854,mdp,2024.2.1,Win32,16.14569879,66d7945b1baad48e845df3ce,,,,,,,,,,,,,,,,,,,,,1255.3271,1255.3272,1255.3276,1257.3358,0,1,left,1.4571,,1257.3364,1258.6485,0,0,left,1258.6491,1259.5875,1,0,right,1,1259.5875,1259.5875,1259.5881,1261.0716,0,15,15,15,1,0.2,0.8,0.6,0.4,,,,,,,,,,,,,,,0.7675,,0.6,0.4,0.2,0.8,0.8,0.2,0.8,0.2,,,0.3833,,0.6,0.4,0.4,0.6,0.4,0.6,0.4,0.6,1,0
,,6103b565e6171b4849b8ed7b,66daf5c3b9f3c0e71701ece6,2024-09-06_14h31.01.854,mdp,2024.2.1,Win32,16.14569879,66d7945b1baad48e845df3ce,,,,,,,,,,,,,,,,,,,,,1261.0719,1261.0719,1261.0724,1267.317,1,0,right,5.6834,,1267.3243,1268.8122,1,0,right,1268.8128,1269.5728,0,1,left,0,1269.5729,1269.5729,1269.5735,1271.0273,0,16,16,16,1,0.2,0.8,0.6,0.4,,,,,,,,,,,,,,,0.9492,,0.6,0.4,0.2,0.8,0.8,0.2,0.8,0.2,,,0.1988,,0.6,0.4,0.4,0.6,0.8,0.2,0.8,0.2,1,0
,,6103b565e6171b4849b8ed7b,66daf5c3b9f3c0e71701ece6,2024-09-06_14h31.01.854,mdp,2024.2.1,Win32,16.14569879,66d7945b1baad48e845df3ce,,,,,,,,,,,,,,,,,,,,,1271.0275,1271.0275,1271.028,1272.3879,1,1,right,0.7942,,1272.3884,1274.288,1,0,right,1274.2885,1275.3511,0,1,left,0,1275.3511,1275.3511,1275.3516,1276.8202,0,17,17,17,1,0.2,0.8,0.6,0.4,,,,,,,,,,,,,,,1.345,,0.6,0.4,0.2,0.8,0.8,0.2,0.8,0.2,,,0.4918,,0.4,0.6,0.8,0.2,0.8,0.2,0.8,0.2,1,0
,,6103b565e6171b4849b8ed7b,66daf5c3b9f3c0e71701ece6,2024-09-06_14h31.01.854,mdp,2024.2.1,Win32,16.14569879,66d7945b1baad48e845df3ce,,,,,,,,,,,,,,,,,,,,,1276.8205,1276.8205,1276.821,1277.7429,0,1,left,0.376,,1277.7435,1278.6427,0,0,left,1278.6432,1279.4305,1,0,right,1,1279.4305,1279.4305,1279.431,1280.934,0,18,18,18,1,0.2,0.8,0.6,0.4,,,,,,,,,,,,,,,0.3434,,0.6,0.4,0.2,0.8,0.8,0.2,0.8,0.2,,,0.2334,,0.4,0.6,0.8,0.2,0.8,0.2,0.8,0.2,1,0
,,6103b565e6171b4849b8ed7b,66daf5c3b9f3c0e71701ece6,2024-09-06_14h31.01.854,mdp,2024.2.1,Win32,16.14569879,66d7945b1baad48e845df3ce,,,,,,,,,,,,,,,,,,,,,1280.9342,1280.9342,1280.9347,1282.7761,0,1,left,1.2877,,1282.7766,1283.7554,0,1,left,1283.756,1284.7423,1,0,right,1,1284.7423,1284.7423,1284.7431,1286.2343,0,19,19,19,1,0.2,0.8,0.6,0.4,,,,,,,,,,,,,,,0.4139,,0.6,0.4,0.2,0.8,0.8,0.2,0.8,0.2,,,0.4297,,0.4,0.6,0.8,0.2,0.8,0.2,0.8,0.2,1,0
,,6103b565e6171b4849b8ed7b,66daf5c3b9f3c0e71701ece6,2024-09-06_14h31.01.854,mdp,2024.2.1,Win32,16.14569879,66d7945b1baad48e845df3ce,,,,,,,,,,,,,,,,,,,,,1286.2345,1286.2346,1286.2351,1287.1028,0,1,left,0.3032,,1287.1033,1287.905,0,0,left,1287.9055,1288.5917,1,0,right,1,1288.5917,1288.5917,1288.5924,1290.0715,0,20,20,20,1,0.2,0.8,0.6,0.4,,,,,,,,,,,,,,,0.2345,,0.6,0.4,0.2,0.8,0.8,0.2,0.8,0.2,,,0.1195,,0.4,0.6,0.8,0.2,0.8,0.2,0.8,0.2,1,0
,,6103b565e6171b4849b8ed7b,66daf5c3b9f3c0e71701ece6,2024-09-06_14h31.01.854,mdp,2024.2.1,Win32,16.14569879,66d7945b1baad48e845df3ce,,,,,,,,,,,,,,,,,,,,,1290.0717,1290.0717,1290.0722,1291.7618,0,1,left,1.116,,1291.7623,1292.7048,0,0,left,1292.7053,1293.6461,1,0,right,1,1293.6461,1293.6461,1293.6469,1295.1178,0,21,21,21,1,0.2,0.8,0.6,0.4,,,,,,,,,,,,,,,0.3859,,0.6,0.4,0.2,0.8,0.8,0.2,0.8,0.2,,,0.3821,,0.4,0.6,0.8,0.2,0.8,0.2,0.8,0.2,1,0
,,6103b565e6171b4849b8ed7b,66daf5c3b9f3c0e71701ece6,2024-09-06_14h31.01.854,mdp,2024.2.1,Win32,16.14569879,66d7945b1baad48e845df3ce,,,,,,,,,,,,,,,,,,,,,1295.1183,1295.1183,1295.1189,1296.3937,0,1,left,0.7059,,1296.3942,1297.3025,0,0,left,1297.3031,1298.1521,1,1,right,0,1298.1522,1298.1522,1298.1527,1299.6563,0,22,22,22,1,0.2,0.8,0.6,0.4,,,,,,,,,,,,,,,0.3723,,0.6,0.4,0.2,0.8,0.8,0.2,0.8,0.2,,,0.3018,,0.6,0.4,0.4,0.6,0.8,0.2,0.8,0.2,1,0
,,6103b565e6171b4849b8ed7b,66daf5c3b9f3c0e71701ece6,2024-09-06_14h31.01.854,mdp,2024.2.1,Win32,16.14569879,66d7945b1baad48e845df3ce,,,,,,,,,,,,,,,,,,,,,1299.6566,1299.6566,1299.6572,1300.2494,0,1,left,0.0407,,1300.25,1301.1216,1,1,right,1301.1222,1301.8345,0,0,left,1,1301.8346,1301.8346,1301.8353,1303.3407,0,23,23,23,1,0.2,0.8,0.6,0.4,,,,,,,,,,,,,,,0.3145,,0.6,0.4,0.2,0.8,0.8,0.2,0.8,0.2,,,0.15,,0.6,0.4,0.4,0.6,0.8,0.2,0.8,0.2,1,0
,,6103b565e6171b4849b8ed7b,66daf5c3b9f3c0e71701ece6,2024-09-06_14h31.01.854,mdp,2024.2.1,Win32,16.14569879,66d7945b1baad48e845df3ce,,,,,,,,,,,,,,,,,,,,,1303.3411,1303.3411,1303.3415,1303.9848,0,1,left,0.0778,,1303.9854,1305.0031,1,0,right,1305.0038,1305.8732,0,1,left,0,1305.8732,1305.8732,1305.8738,1307.3866,0,24,24,24,1,0.2,0.8,0.6,0.4,,,,,,,,,,,,,,,0.4607,,0.6,0.4,0.2,0.8,0.8,0.2,0.8,0.2,,,0.2958,,0.6,0.4,0.4,0.6,0.8,0.2,0.8,0.2,1,0
,,6103b565e6171b4849b8ed7b,66daf5c3b9f3c0e71701ece6,2024-09-06_14h31.01.854,mdp,2024.2.1,Win32,16.14569879,66d7945b1baad48e845df3ce,,,,,,,,,,,,,,,,,,,,,1307.387,1307.387,1307.3875,1308.487,0,1,left,0.5502,,1308.4875,1309.7246,0,1,left,1309.7252,1310.6615,0,0,left,1,1310.6615,1310.6616,1310.6621,1312.1692,0,25,25,25,1,0.2,0.8,0.6,0.4,,,,,,,,,,,,,,,0.698,,0.6,0.4,0.2,0.8,0.8,0.2,0.8,0.2,,,0.3824,,0.6,0.4,0.4,0.6,0.8,0.2,0.8,0.2,1,0
,,6103b565e6171b4849b8ed7b,66daf5c3b9f3c0e71701ece6,2024-09-06_14h31.01.854,mdp,2024.2.1,Win32,16.14569879,66d7945b1baad48e845df3ce,,,,,,,,,,,,,,,,,,,,,1312.1695,1312.1695,1312.1699,1313.9215,0,1,left,1.2018,,1313.9221,1314.9625,0,0,left,1314.963,1316.1776,1,1,right,0,1316.1777,1316.1777,1316.1784,1317.6747,0,26,26,26,1,0.2,0.8,0.6,0.4,,,,,,,,,,,,,,,0.4843,,0.6,0.4,0.2,0.8,0.8,0.2,0.8,0.2,,,0.6483,,0.6,0.4,0.4,0.6,0.8,0.2,0.8,0.2,1,0
,,6103b565e6171b4849b8ed7b,66daf5c3b9f3c0e71701ece6,2024-09-06_14h31.01.854,mdp,2024.2.1,Win32,16.14569879,66d7945b1baad48e845df3ce,,,,,,,,,,,,,,,,,,,,,1317.6751,1317.6751,1317.6755,1318.5405,0,1,left,0.3038,,1318.541,1319.6653,1,0,right,1319.6659,1320.5894,1,1,right,0,1320.5894,1320.5894,1320.59,1322.0703,0,27,27,27,1,0.2,0.8,0.6,0.4,,,,,,,,,,,,,,,0.5713,,0.6,0.4,0.2,0.8,0.8,0.2,0.8,0.2,,,0.3526,,0.6,0.4,0.4,0.6,0.8,0.2,0.8,0.2,1,0
,,6103b565e6171b4849b8ed7b,66daf5c3b9f3c0e71701ece6,2024-09-06_14h31.01.854,mdp,2024.2.1,Win32,16.14569879,66d7945b1baad48e845df3ce,,,,,,,,,,,,,,,,,,,,,1322.0706,1322.0706,1322.0712,1322.9351,1,0,right,0.2985,,1322.9356,1323.7957,1,1,right,1323.7963,1325.195,0,1,left,0,1325.1951,1325.1951,1325.1956,1326.7043,0,28,28,28,1,0.2,0.8,0.6,0.4,,,,,,,,,,,,,,,0.3079,,0.6,0.4,0.2,0.8,0.8,0.2,0.8,0.2,,,0.8298,,0.6,0.4,0.4,0.6,0.8,0.2,0.8,0.2,1,0
,,6103b565e6171b4849b8ed7b,66daf5c3b9f3c0e71701ece6,2024-09-06_14h31.01.854,mdp,2024.2.1,Win32,16.14569879,66d7945b1baad48e845df3ce,,,,,,,,,,,,,,,,,,,,,1326.7045,1326.7045,1326.7051,1328.0537,1,1,right,0.7999,,1328.0543,1329.0121,1,1,right,1329.0127,1330.1075,1,0,right,1,1330.1075,1330.1075,1330.108,1331.6138,0,29,29,29,1,0.2,0.8,0.6,0.4,,,,,,,,,,,,,,,0.3862,,0.6,0.4,0.2,0.8,0.8,0.2,0.8,0.2,,,0.5475,,0.6,0.4,0.4,0.6,0.8,0.2,0.8,0.2,1,0
,,6103b565e6171b4849b8ed7b,66daf5c3b9f3c0e71701ece6,2024-09-06_14h31.01.854,mdp,2024.2.1,Win32,16.14569879,66d7945b1baad48e845df3ce,,,,,,,,,,,,,,,,,,,,,1331.6142,1331.6142,1331.6146,1332.7324,1,1,right,0.57,,1332.7329,1333.7468,1,1,right,1333.7474,1334.5133,1,0,right,1,1334.5133,1334.5133,1334.5139,1336.004,0,30,30,30,1,0.2,0.8,0.6,0.4,,,,,,,,,,,,,,,0.4442,,0.2,0.8,0.8,0.2,0.8,0.2,0.8,0.2,,,0.2057,,0.6,0.4,0.4,0.6,0.8,0.2,0.8,0.2,1,0
,,6103b565e6171b4849b8ed7b,66daf5c3b9f3c0e71701ece6,2024-09-06_14h31.01.854,mdp,2024.2.1,Win32,16.14569879,66d7945b1baad48e845df3ce,,,,,,,,,,,,,,,,,,,,,1336.0043,1336.0043,1336.0048,1337.2271,1,0,right,0.6819,,1337.2277,1338.1034,1,0,right,1338.1039,1339.0484,1,1,right,0,1339.0484,1339.0484,1339.0489,1340.559,0,31,31,31,1,0.2,0.8,0.6,0.4,,,,,,,,,,,,,,,0.3058,,0.2,0.8,0.8,0.2,0.8,0.2,0.8,0.2,,,0.3796,,0.6,0.4,0.4,0.6,0.8,0.2,0.8,0.2,1,0
,,6103b565e6171b4849b8ed7b,66daf5c3b9f3c0e71701ece6,2024-09-06_14h31.01.854,mdp,2024.2.1,Win32,16.14569879,66d7945b1baad48e845df3ce,,,,,,,,,,,,,,,,,,,,,1340.5592,1340.5592,1340.5597,1341.8226,1,0,right,0.7205,,1341.8233,1343.3109,1,0,right,1343.3115,1344.0784,0,1,left,0,1344.0784,1344.0784,1344.079,1345.576,0,32,32,32,1,0.2,0.8,0.6,0.4,,,,,,,,,,,,,,,0.9507,,0.2,0.8,0.8,0.2,0.8,0.2,0.8,0.2,,,0.199,,0.6,0.4,0.4,0.6,0.6,0.4,0.6,0.4,1,0
,,6103b565e6171b4849b8ed7b,66daf5c3b9f3c0e71701ece6,2024-09-06_14h31.01.854,mdp,2024.2.1,Win32,16.14569879,66d7945b1baad48e845df3ce,,,,,,,,,,,,,,,,,,,,,1345.5762,1345.5762,1345.5768,1346.7137,0,1,left,0.6005,,1346.7144,1347.6399,0,0,left,1347.6404,1348.4955,0,1,left,0,1348.4956,1348.4956,1348.4963,1349.9946,0,33,33,33,1,0.2,0.8,0.6,0.4,,,,,,,,,,,,,,,0.3549,,0.2,0.8,0.8,0.2,0.8,0.2,0.8,0.2,,,0.2995,,0.6,0.4,0.4,0.6,0.6,0.4,0.6,0.4,1,0
,,6103b565e6171b4849b8ed7b,66daf5c3b9f3c0e71701ece6,2024-09-06_14h31.01.854,mdp,2024.2.1,Win32,16.14569879,66d7945b1baad48e845df3ce,,,,,,,,,,,,,,,,,,,,,1349.9949,1349.9949,1349.9954,1351.4372,0,1,left,0.8957,,1351.4379,1352.6298,1,0,right,1352.6304,1353.4851,0,1,left,0,1353.4851,1353.4851,1353.4858,1354.9641,0,34,34,34,1,0.2,0.8,0.6,0.4,,,,,,,,,,,,,,,0.6267,,0.2,0.8,0.8,0.2,0.8,0.2,0.8,0.2,,,0.303,,0.6,0.4,0.4,0.6,0.6,0.4,0.6,0.4,1,0
,,6103b565e6171b4849b8ed7b,66daf5c3b9f3c0e71701ece6,2024-09-06_14h31.01.854,mdp,2024.2.1,Win32,16.14569879,66d7945b1baad48e845df3ce,,,,,,,,,,,,,,,,,,,,,1354.9645,1354.9645,1354.9652,1359.5333,1,0,right,4.0073,,1359.5407,1360.9133,1,0,right,1360.9138,1361.938,0,1,left,0,1361.938,1361.938,1361.9385,1363.4284,0,35,35,35,1,0.2,0.8,0.6,0.4,,,,,,,,,,,,,,,0.7886,,0.2,0.8,0.8,0.2,0.8,0.2,0.8,0.2,,,0.4789,,0.6,0.4,0.4,0.6,0.6,0.4,0.6,0.4,1,0
,,6103b565e6171b4849b8ed7b,66daf5c3b9f3c0e71701ece6,2024-09-06_14h31.01.854,mdp,2024.2.1,Win32,16.14569879,66d7945b1baad48e845df3ce,,,,,,,,,,,,,,,,,,,,,1363.4287,1363.4287,1363.4292,1364.8825,0,1,left,0.8915,,1364.8833,1366.129,0,1,left,1366.1299,1367.6099,1,0,right,1,1367.61,1367.61,1367.6104,1369.0747,0,36,36,36,1,0.2,0.8,0.6,0.4,,,,,,,,,,,,,,,0.6689,,0.2,0.8,0.8,0.2,0.8,0.2,0.8,0.2,,,0.886,,0.6,0.4,0.4,0.6,0.6,0.4,0.6,0.4,1,0
,,6103b565e6171b4849b8ed7b,66daf5c3b9f3c0e71701ece6,2024-09-06_14h31.01.854,mdp,2024.2.1,Win32,16.14569879,66d7945b1baad48e845df3ce,,,,,,,,,,,,,,,,,,,,,1369.0749,1369.075,1369.0756,1370.0384,0,1,left,0.3959,,1370.0389,1371.2651,0,1,left,1371.2657,1372.2207,1,1,right,0,1372.2208,1372.2208,1372.2213,1373.6964,0,37,37,37,1,0.2,0.8,0.6,0.4,,,,,,,,,,,,,,,0.6726,,0.2,0.8,0.8,0.2,0.8,0.2,0.8,0.2,,,0.4105,,0.6,0.4,0.4,0.6,0.6,0.4,0.6,0.4,1,0
,,6103b565e6171b4849b8ed7b,66daf5c3b9f3c0e71701ece6,2024-09-06_14h31.01.854,mdp,2024.2.1,Win32,16.14569879,66d7945b1baad48e845df3ce,,,,,,,,,,,,,,,,,,,,,1373.6967,1373.6967,1373.6973,1375.0189,1,0,right,0.7798,,1375.0195,1375.9306,1,0,right,1375.9313,1376.882,0,1,left,0,1376.882,1376.8821,1376.8827,1378.3663,0,38,38,38,1,0.2,0.8,0.6,0.4,,,,,,,,,,,,,,,0.3593,,0.2,0.8,0.8,0.2,0.8,0.2,0.8,0.2,,,0.3982,,0.6,0.4,0.4,0.6,0.6,0.4,0.6,0.4,1,0
,,6103b565e6171b4849b8ed7b,66daf5c3b9f3c0e71701ece6,2024-09-06_14h31.01.854,mdp,2024.2.1,Win32,16.14569879,66d7945b1baad48e845df3ce,,,,,,,,,,,,,,,,,,,,,1378.3667,1378.3668,1378.3675,1379.5653,0,0,left,0.6269,,1379.5658,1380.6033,0,0,left,1380.6038,1381.7542,1,1,right,0,1381.7543,1381.7543,1381.7549,1383.2643,0,39,39,39,1,0.2,0.8,0.6,0.4,,,,,,,,,,,,,,,0.4779,,0.2,0.8,0.8,0.2,0.8,0.2,0.8,0.2,,,0.5826,,0.6,0.4,0.4,0.6,0.6,0.4,0.6,0.4,1,0
,,6103b565e6171b4849b8ed7b,66daf5c3b9f3c0e71701ece6,2024-09-06_14h31.01.854,mdp,2024.2.1,Win32,16.14569879,66d7945b1baad48e845df3ce,,,,,,,,,,,,,,,,,,,,,1383.2646,1383.2646,1383.2651,1385.1412,1,0,right,1.3297,,1385.1419,1386.0986,1,0,right,1386.0993,1386.9407,1,1,right,0,1386.9407,1386.9407,1386.9413,1388.4382,0,40,40,40,1,0.2,0.8,0.6,0.4,,,,,,,,,,,,,,,0.3914,,0.2,0.8,0.8,0.2,0.8,0.2,0.8,0.2,,,0.2695,,0.6,0.4,0.4,0.6,0.6,0.4,0.6,0.4,1,0
,,6103b565e6171b4849b8ed7b,66daf5c3b9f3c0e71701ece6,2024-09-06_14h31.01.854,mdp,2024.2.1,Win32,16.14569879,66d7945b1baad48e845df3ce,,,,,,,,,,,,,,,,,,,,,1388.4385,1388.4385,1388.4391,1389.1506,1,1,right,0.1609,,1389.1512,1390.228,1,0,right,1390.2286,1391.1657,0,0,left,1,1391.1658,1391.1658,1391.1664,1392.659,0,41,41,41,1,0.2,0.8,0.6,0.4,,,,,,,,,,,,,,,0.5297,,0.4,0.6,0.6,0.4,0.8,0.2,0.8,0.2,,,0.3812,,0.6,0.4,0.4,0.6,0.6,0.4,0.6,0.4,1,0
,,6103b565e6171b4849b8ed7b,66daf5c3b9f3c0e71701ece6,2024-09-06_14h31.01.854,mdp,2024.2.1,Win32,16.14569879,66d7945b1baad48e845df3ce,,,,,,,,,,,,,,,,,,,,,1392.6594,1392.6594,1392.6598,1393.4178,1,1,right,0.1943,,1393.4183,1394.466,1,1,right,1394.4665,1395.4214,0,1,left,0,1395.4215,1395.4215,1395.422,1396.921,0,42,42,42,1,0.2,0.8,0.6,0.4,,,,,,,,,,,,,,,0.4902,,0.4,0.6,0.6,0.4,0.8,0.2,0.8,0.2,,,0.415,,0.6,0.4,0.4,0.6,0.6,0.4,0.6,0.4,1,0
,,6103b565e6171b4849b8ed7b,66daf5c3b9f3c0e71701ece6,2024-09-06_14h31.01.854,mdp,2024.2.1,Win32,16.14569879,66d7945b1baad48e845df3ce,,,,,,,,,,,,,,,,,,,,,1396.9213,1396.9213,1396.9218,1399.7716,0,1,left,2.2877,,1399.7796,1400.6405,0,0,left,1400.6411,1401.3517,1,0,right,1,1401.3517,1401.3517,1401.3524,1402.8428,0,43,43,43,1,0.2,0.8,0.6,0.4,,,,,,,,,,,,,,,0.3042,,0.4,0.6,0.6,0.4,0.8,0.2,0.8,0.2,,,0.1522,,0.6,0.4,0.4,0.6,0.6,0.4,0.6,0.4,1,0
,,6103b565e6171b4849b8ed7b,66daf5c3b9f3c0e71701ece6,2024-09-06_14h31.01.854,mdp,2024.2.1,Win32,16.14569879,66d7945b1baad48e845df3ce,,,,,,,,,,,,,,,,,,,,,1402.843,1402.843,1402.8435,1404.7696,0,1,left,1.3604,,1404.7701,1405.4665,0,0,left,1405.4671,1406.2019,1,1,right,0,1406.2019,1406.202,1406.2024,1407.68,0,44,44,44,1,0.2,0.8,0.6,0.4,,,,,,,,,,,,,,,0.1511,,0.4,0.6,0.6,0.4,0.8,0.2,0.8,0.2,,,0.1891,,0.6,0.4,0.4,0.6,0.6,0.4,0.6,0.4,1,0
,,6103b565e6171b4849b8ed7b,66daf5c3b9f3c0e71701ece6,2024-09-06_14h31.01.854,mdp,2024.2.1,Win32,16.14569879,66d7945b1baad48e845df3ce,,,,,,,,,,,,,,,,,,,,,1407.6804,1407.6804,1407.6808,1408.6472,1,0,right,0.4149,,1408.6477,1409.9425,1,0,right,1409.9431,1410.7701,0,0,left,1,1410.7702,1410.7702,1410.7708,1412.2515,0,45,45,45,1,0.2,0.8,0.6,0.4,,,,,,,,,,,,,,,0.7331,,0.4,0.6,0.6,0.4,0.8,0.2,0.8,0.2,,,0.2714,,0.6,0.4,0.4,0.6,0.6,0.4,0.6,0.4,1,0
,,6103b565e6171b4849b8ed7b,66daf5c3b9f3c0e71701ece6,2024-09-06_14h31.01.854,mdp,2024.2.1,Win32,16.14569879,66d7945b1baad48e845df3ce,,,,,,,,,,,,,,,,,,,,,1412.2519,1412.2519,1412.2528,1413.2662,1,0,right,0.4716,,1413.2667,1414.5275,1,1,right,1414.5282,1415.373,0,0,left,1,1415.373,1415.373,1415.3736,1416.8577,0,46,46,46,1,0.2,0.8,0.6,0.4,,,,,,,,,,,,,,,0.691,,0.4,0.6,0.6,0.4,0.8,0.2,0.8,0.2,,,0.2976,,0.6,0.4,0.4,0.6,0.6,0.4,0.6,0.4,1,0
,,6103b565e6171b4849b8ed7b,66daf5c3b9f3c0e71701ece6,2024-09-06_14h31.01.854,mdp,2024.2.1,Win32,16.14569879,66d7945b1baad48e845df3ce,,,,,,,,,,,,,,,,,,,,,1416.8581,1416.8581,1416.8585,1418.2251,1,1,right,0.8287,,1418.2256,1419.3531,1,0,right,1419.3536,1420.5055,0,0,left,1,1420.5055,1420.5055,1420.506,1422.0105,0,47,47,47,1,0.2,0.8,0.6,0.4,,,,,,,,,,,,,,,0.5651,,0.4,0.6,0.6,0.4,0.8,0.2,0.8,0.2,,,0.5761,,0.8,0.2,0.2,0.8,0.6,0.4,0.6,0.4,1,0
,,6103b565e6171b4849b8ed7b,66daf5c3b9f3c0e71701ece6,2024-09-06_14h31.01.854,mdp,2024.2.1,Win32,16.14569879,66d7945b1baad48e845df3ce,,,,,,,,,,,,,,,,,,,,,1422.0108,1422.0108,1422.0113,1422.7828,1,1,right,0.2346,,1422.7834,1424.1316,1,0,right,1424.1323,1425.7812,0,0,left,1,1425.7813,1425.7813,1425.782,1427.2686,0,48,48,48,1,0.2,0.8,0.6,0.4,,,,,,,,,,,,,,,0.779,,0.4,0.6,0.6,0.4,0.8,0.2,0.8,0.2,,,1.0977,,0.8,0.2,0.2,0.8,0.6,0.4,0.6,0.4,1,0
,,6103b565e6171b4849b8ed7b,66daf5c3b9f3c0e71701ece6,2024-09-06_14h31.01.854,mdp,2024.2.1,Win32,16.14569879,66d7945b1baad48e845df3ce,,,,,,,,,,,,,,,,,,,,,1427.2689,1427.2689,1427.2694,1428.3809,1,1,right,0.5432,,1428.3819,1429.5499,1,0,right,1429.5503,1430.4844,0,0,left,1,1430.4844,1430.4844,1430.485,1431.9616,0,49,49,49,1,0.2,0.8,0.6,0.4,,,,,,,,,,,,,,,0.6002,,0.4,0.6,0.6,0.4,0.8,0.2,0.8,0.2,,,0.3922,,0.8,0.2,0.2,0.8,0.6,0.4,0.6,0.4,1,0
,,6103b565e6171b4849b8ed7b,66daf5c3b9f3c0e71701ece6,2024-09-06_14h31.01.854,mdp,2024.2.1,Win32,16.14569879,66d7945b1baad48e845df3ce,,,,,,,,,,,,,,,,,,,,,,,,,,,,,,,,,,,,,,,,,,,,,,,,,,,,,,,,1431.9616,1490.5079,0,2,2,6,1,imgs/cat.png,imgs/bear.png,imgs/elephant.png,imgs/kangaroo.png,imgs/squirrel.png,,,,,,,,,,,,,,,,,,,,,,,,
,,6103b565e6171b4849b8ed7b,66daf5c3b9f3c0e71701ece6,2024-09-06_14h31.01.854,mdp,2024.2.1,Win32,16.14569879,66d7945b1baad48e845df3ce,,,,,,,,,,,,,,3,seqs/st3seq35.csv,1490.5152,1500.0304,space,8.9465,,1500.0457,1500.0457,1500.0496,1505.1245,1,0,right,4.5183,,1505.1322,1506.8732,1,1,right,1506.8737,1507.9525,1,1,right,0,1507.9526,1507.9526,1507.953,1509.4594,0,0,0,0,1,0.2,0.8,0.6,0.4,,,,,,,,,,,,,,,1.1763,,0.8,0.2,0.4,0.6,0.8,0.2,0.8,0.2,,,0.5056,,0.4,0.6,0.8,0.2,0.4,0.6,0.4,0.6,1,0
,,6103b565e6171b4849b8ed7b,66daf5c3b9f3c0e71701ece6,2024-09-06_14h31.01.854,mdp,2024.2.1,Win32,16.14569879,66d7945b1baad48e845df3ce,,,,,,,,,,,,,,,,,,,,,1509.4597,1509.4597,1509.4602,1510.0959,0,1,left,0.0766,,1510.0964,1511.0328,0,0,left,1511.0333,1512.0302,0,0,left,1,1512.0302,1512.0302,1512.0309,1513.4877,0,1,1,1,1,0.2,0.8,0.6,0.4,,,,,,,,,,,,,,,0.3653,,0.8,0.2,0.4,0.6,0.8,0.2,0.8,0.2,,,0.4544,,0.4,0.6,0.8,0.2,0.4,0.6,0.4,0.6,1,0
,,6103b565e6171b4849b8ed7b,66daf5c3b9f3c0e71701ece6,2024-09-06_14h31.01.854,mdp,2024.2.1,Win32,16.14569879,66d7945b1baad48e845df3ce,,,,,,,,,,,,,,,,,,,,,1513.488,1513.488,1513.4886,1514.2273,0,1,left,0.1687,,1514.2279,1515.006,0,0,left,1515.0068,1515.8779,0,1,left,0,1515.878,1515.878,1515.8788,1517.383,0,2,2,2,1,0.2,0.8,0.6,0.4,,,,,,,,,,,,,,,0.2352,,0.8,0.2,0.4,0.6,0.8,0.2,0.8,0.2,,,0.3304,,0.4,0.6,0.8,0.2,0.4,0.6,0.4,0.6,1,0
,,6103b565e6171b4849b8ed7b,66daf5c3b9f3c0e71701ece6,2024-09-06_14h31.01.854,mdp,2024.2.1,Win32,16.14569879,66d7945b1baad48e845df3ce,,,,,,,,,,,,,,,,,,,,,1517.3833,1517.3833,1517.3837,1519.3116,0,1,left,1.3454,,1519.3122,1520.0703,1,0,right,1520.0708,1520.8508,0,0,left,1,1520.8508,1520.8508,1520.8513,1522.3128,0,3,3,3,1,0.2,0.8,0.6,0.4,,,,,,,,,,,,,,,0.2117,,0.8,0.2,0.4,0.6,0.8,0.2,0.8,0.2,,,0.1883,,0.4,0.6,0.8,0.2,0.4,0.6,0.4,0.6,1,0
,,6103b565e6171b4849b8ed7b,66daf5c3b9f3c0e71701ece6,2024-09-06_14h31.01.854,mdp,2024.2.1,Win32,16.14569879,66d7945b1baad48e845df3ce,,,,,,,,,,,,,,,,,,,,,1522.3131,1522.3131,1522.3137,1523.5841,1,0,right,0.7218,,1523.5848,1524.4729,1,1,right,1524.4734,1525.1282,0,0,left,1,1525.1283,1525.1283,1525.1288,1526.6146,0,4,4,4,1,0.2,0.8,0.6,0.4,,,,,,,,,,,,,,,0.3128,,0.8,0.2,0.4,0.6,0.8,0.2,0.8,0.2,,,0.0817,,0.4,0.6,0.8,0.2,0.4,0.6,0.4,0.6,1,0
,,6103b565e6171b4849b8ed7b,66daf5c3b9f3c0e71701ece6,2024-09-06_14h31.01.854,mdp,2024.2.1,Win32,16.14569879,66d7945b1baad48e845df3ce,,,,,,,,,,,,,,,,,,,,,1526.615,1526.615,1526.6155,1528.9427,0,1,left,1.7894,,1528.95,1529.5507,1,0,right,1529.5513,1530.2064,1,0,right,1,1530.2064,1530.2064,1530.2069,1531.688,0,5,5,5,1,0.2,0.8,0.6,0.4,,,,,,,,,,,,,,,0.0436,,0.8,0.2,0.4,0.6,0.8,0.2,0.8,0.2,,,0.1166,,0.4,0.6,0.8,0.2,0.4,0.6,0.4,0.6,1,0
,,6103b565e6171b4849b8ed7b,66daf5c3b9f3c0e71701ece6,2024-09-06_14h31.01.854,mdp,2024.2.1,Win32,16.14569879,66d7945b1baad48e845df3ce,,,,,,,,,,,,,,,,,,,,,1531.6882,1531.6883,1531.6889,1532.8831,1,0,right,0.6514,,1532.8837,1534.7997,1,1,right,1534.8003,1536.0418,0,1,left,0,1536.0419,1536.0419,1536.0424,1537.5217,0,6,6,6,1,0.2,0.8,0.6,0.4,,,,,,,,,,,,,,,1.3421,,0.8,0.2,0.4,0.6,0.8,0.2,0.8,0.2,,,0.6713,,0.6,0.4,0.4,0.6,0.4,0.6,0.4,0.6,1,0
,,6103b565e6171b4849b8ed7b,66daf5c3b9f3c0e71701ece6,2024-09-06_14h31.01.854,mdp,2024.2.1,Win32,16.14569879,66d7945b1baad48e845df3ce,,,,,,,,,,,,,,,,,,,,,1537.5221,1537.5221,1537.5226,1538.2709,1,1,right,0.2087,,1538.2716,1539.013,0,0,left,1539.0136,1539.6446,1,1,right,0,1539.6446,1539.6446,1539.6451,1541.1101,0,7,7,7,1,0.2,0.8,0.6,0.4,,,,,,,,,,,,,,,0.173,,0.6,0.4,0.2,0.8,0.8,0.2,0.8,0.2,,,0.0862,,0.6,0.4,0.4,0.6,0.4,0.6,0.4,0.6,1,0
,,6103b565e6171b4849b8ed7b,66daf5c3b9f3c0e71701ece6,2024-09-06_14h31.01.854,mdp,2024.2.1,Win32,16.14569879,66d7945b1baad48e845df3ce,,,,,,,,,,,,,,,,,,,,,1541.1104,1541.1104,1541.1109,1541.8975,0,0,left,0.2401,,1541.8981,1542.5673,0,0,left,1542.5678,1543.5028,0,0,left,1,1543.5029,1543.5029,1543.5035,1544.9567,0,8,8,8,1,0.2,0.8,0.6,0.4,,,,,,,,,,,,,,,0.1246,,0.6,0.4,0.2,0.8,0.8,0.2,0.8,0.2,,,0.3901,,0.6,0.4,0.4,0.6,0.4,0.6,0.4,0.6,1,0
,,6103b565e6171b4849b8ed7b,66daf5c3b9f3c0e71701ece6,2024-09-06_14h31.01.854,mdp,2024.2.1,Win32,16.14569879,66d7945b1baad48e845df3ce,,,,,,,,,,,,,,,,,,,,,1544.9571,1544.9572,1544.958,1545.9966,0,1,left,0.4729,,1545.9971,1546.7506,0,0,left,1546.7512,1547.4984,0,0,left,1,1547.4985,1547.4985,1547.4991,1548.966,0,9,9,9,1,0.2,0.8,0.6,0.4,,,,,,,,,,,,,,,0.1952,,0.6,0.4,0.2,0.8,0.8,0.2,0.8,0.2,,,0.1771,,0.6,0.4,0.4,0.6,0.4,0.6,0.4,0.6,1,0
,,6103b565e6171b4849b8ed7b,66daf5c3b9f3c0e71701ece6,2024-09-06_14h31.01.854,mdp,2024.2.1,Win32,16.14569879,66d7945b1baad48e845df3ce,,,,,,,,,,,,,,,,,,,,,1548.9663,1548.9663,1548.9669,1550.0273,0,1,left,0.5025,,1550.0279,1552.7238,0,0,left,1552.7243,1553.5596,1,0,right,1,1553.5597,1553.5597,1553.5603,1555.0564,0,10,10,10,1,0.2,0.8,0.6,0.4,,,,,,,,,,,,,,,2.126,,0.6,0.4,0.2,0.8,0.8,0.2,0.8,0.2,,,0.282,,0.6,0.4,0.4,0.6,0.4,0.6,0.4,0.6,1,0
,,6103b565e6171b4849b8ed7b,66daf5c3b9f3c0e71701ece6,2024-09-06_14h31.01.854,mdp,2024.2.1,Win32,16.14569879,66d7945b1baad48e845df3ce,,,,,,,,,,,,,,,,,,,,,1555.0567,1555.0567,1555.0572,1555.996,0,1,left,0.4044,,1555.9965,1556.628,0,0,left,1556.6286,1557.8581,0,0,left,1,1557.8581,1557.8581,1557.8587,1559.3426,0,11,11,11,1,0.2,0.8,0.6,0.4,,,,,,,,,,,,,,,0.0885,,0.6,0.4,0.2,0.8,0.8,0.2,0.8,0.2,,,0.6879,,0.6,0.4,0.4,0.6,0.4,0.6,0.4,0.6,1,0
,,6103b565e6171b4849b8ed7b,66daf5c3b9f3c0e71701ece6,2024-09-06_14h31.01.854,mdp,2024.2.1,Win32,16.14569879,66d7945b1baad48e845df3ce,,,,,,,,,,,,,,,,,,,,,1559.3429,1559.3429,1559.3433,1560.3643,0,1,left,0.483,,1560.3649,1561.0792,0,0,left,1561.0798,1561.6817,1,1,right,0,1561.6817,1561.6817,1561.6823,1563.1905,0,12,12,12,1,0.2,0.8,0.6,0.4,,,,,,,,,,,,,,,0.174,,0.6,0.4,0.2,0.8,0.8,0.2,0.8,0.2,,,0.0514,,0.6,0.4,0.4,0.6,0.4,0.6,0.4,0.6,1,0
,,6103b565e6171b4849b8ed7b,66daf5c3b9f3c0e71701ece6,2024-09-06_14h31.01.854,mdp,2024.2.1,Win32,16.14569879,66d7945b1baad48e845df3ce,,,,,,,,,,,,,,,,,,,,,1563.1908,1563.1908,1563.1914,1564.2687,0,1,left,0.5432,,1564.2694,1565.0157,0,0,left,1565.0162,1565.7801,0,0,left,1,1565.7802,1565.7802,1565.7806,1567.2382,0,13,13,13,1,0.2,0.8,0.6,0.4,,,,,,,,,,,,,,,0.2028,,0.6,0.4,0.2,0.8,0.8,0.2,0.8,0.2,,,0.2113,,0.6,0.4,0.4,0.6,0.4,0.6,0.4,0.6,1,0
,,6103b565e6171b4849b8ed7b,66daf5c3b9f3c0e71701ece6,2024-09-06_14h31.01.854,mdp,2024.2.1,Win32,16.14569879,66d7945b1baad48e845df3ce,,,,,,,,,,,,,,,,,,,,,1567.2385,1567.2385,1567.2392,1568.2999,0,1,left,0.4912,,1568.3004,1568.9111,0,1,left,1568.9117,1569.8934,0,1,left,0,1569.8934,1569.8935,1569.8939,1571.4077,0,14,14,14,1,0.2,0.8,0.6,0.4,,,,,,,,,,,,,,,0.0456,,0.6,0.4,0.2,0.8,0.8,0.2,0.8,0.2,,,0.4074,,0.6,0.4,0.4,0.6,0.4,0.6,0.4,0.6,1,0
,,6103b565e6171b4849b8ed7b,66daf5c3b9f3c0e71701ece6,2024-09-06_14h31.01.854,mdp,2024.2.1,Win32,16.14569879,66d7945b1baad48e845df3ce,,,,,,,,,,,,,,,,,,,,,1571.4083,1571.4083,1571.4087,1572.2276,0,1,left,0.2815,,1572.2283,1572.7878,1,0,right,1572.7884,1573.4118,1,1,right,0,1573.4119,1573.4119,1573.4124,1574.8905,0,15,15,15,1,0.2,0.8,0.6,0.4,,,,,,,,,,,,,,,0.0032,,0.6,0.4,0.2,0.8,0.8,0.2,0.8,0.2,,,0.0447,,0.6,0.4,0.4,0.6,0.4,0.6,0.4,0.6,1,0
,,6103b565e6171b4849b8ed7b,66daf5c3b9f3c0e71701ece6,2024-09-06_14h31.01.854,mdp,2024.2.1,Win32,16.14569879,66d7945b1baad48e845df3ce,,,,,,,,,,,,,,,,,,,,,1574.8907,1574.8907,1574.8912,1575.6899,1,0,right,0.2504,,1575.6905,1576.2879,0,0,left,1576.2885,1578.0123,1,0,right,1,1578.0123,1578.0124,1578.0128,1579.518,0,16,16,16,1,0.2,0.8,0.6,0.4,,,,,,,,,,,,,,,0.042,,0.6,0.4,0.2,0.8,0.8,0.2,0.8,0.2,,,1.1554,,0.6,0.4,0.4,0.6,0.8,0.2,0.8,0.2,1,0
,,6103b565e6171b4849b8ed7b,66daf5c3b9f3c0e71701ece6,2024-09-06_14h31.01.854,mdp,2024.2.1,Win32,16.14569879,66d7945b1baad48e845df3ce,,,,,,,,,,,,,,,,,,,,,1579.5183,1579.5183,1579.5188,1617.0646,1,0,right,37.007,,1617.0726,1618.0415,1,1,right,1618.0421,1618.8035,0,0,left,1,1618.8036,1618.8036,1618.804,1620.3063,0,17,17,17,1,0.2,0.8,0.6,0.4,,,,,,,,,,,,,,,0.4187,,0.6,0.4,0.2,0.8,0.8,0.2,0.8,0.2,,,0.1941,,0.4,0.6,0.8,0.2,0.8,0.2,0.8,0.2,1,0
,,6103b565e6171b4849b8ed7b,66daf5c3b9f3c0e71701ece6,2024-09-06_14h31.01.854,mdp,2024.2.1,Win32,16.14569879,66d7945b1baad48e845df3ce,,,,,,,,,,,,,,,,,,,,,1620.3066,1620.3066,1620.3071,1622.5118,0,1,left,1.6567,,1622.5123,1623.1116,0,0,left,1623.1123,1624.7806,0,1,left,0,1624.7807,1624.7807,1624.7812,1626.2673,0,18,18,18,1,0.2,0.8,0.6,0.4,,,,,,,,,,,,,,,0.0416,,0.6,0.4,0.2,0.8,0.8,0.2,0.8,0.2,,,1.1032,,0.4,0.6,0.8,0.2,0.8,0.2,0.8,0.2,1,0
,,6103b565e6171b4849b8ed7b,66daf5c3b9f3c0e71701ece6,2024-09-06_14h31.01.854,mdp,2024.2.1,Win32,16.14569879,66d7945b1baad48e845df3ce,,,,,,,,,,,,,,,,,,,,,1626.2676,1626.2676,1626.2681,1627.2362,1,0,right,0.4145,,1627.2367,1627.9453,1,1,right,1627.9458,1628.9769,0,0,left,1,1628.977,1628.977,1628.9775,1630.4832,0,19,19,19,1,0.2,0.8,0.6,0.4,,,,,,,,,,,,,,,0.1526,,0.6,0.4,0.2,0.8,0.8,0.2,0.8,0.2,,,0.4635,,0.4,0.6,0.8,0.2,0.8,0.2,0.8,0.2,1,0
,,6103b565e6171b4849b8ed7b,66daf5c3b9f3c0e71701ece6,2024-09-06_14h31.01.854,mdp,2024.2.1,Win32,16.14569879,66d7945b1baad48e845df3ce,,,,,,,,,,,,,,,,,,,,,1630.4834,1630.4834,1630.4838,1632.1078,1,1,right,1.0591,,1632.1084,1633.25,1,0,right,1633.2506,1633.9329,0,0,left,1,1633.933,1633.933,1633.9336,1635.4266,0,20,20,20,1,0.2,0.8,0.6,0.4,,,,,,,,,,,,,,,0.5725,,0.6,0.4,0.2,0.8,0.8,0.2,0.8,0.2,,,0.1165,,0.4,0.6,0.8,0.2,0.8,0.2,0.8,0.2,1,0
,,6103b565e6171b4849b8ed7b,66daf5c3b9f3c0e71701ece6,2024-09-06_14h31.01.854,mdp,2024.2.1,Win32,16.14569879,66d7945b1baad48e845df3ce,,,,,,,,,,,,,,,,,,,,,1635.4269,1635.4269,1635.4276,1641.1331,0,1,left,5.1393,,1641.1404,1641.8184,0,0,left,1641.819,1643.3075,0,0,left,1,1643.3075,1643.3075,1643.3081,1644.7933,0,21,21,21,1,0.2,0.8,0.6,0.4,,,,,,,,,,,,,,,0.1161,,0.6,0.4,0.2,0.8,0.8,0.2,0.8,0.2,,,0.9292,,0.4,0.6,0.8,0.2,0.8,0.2,0.8,0.2,1,0
,,6103b565e6171b4849b8ed7b,66daf5c3b9f3c0e71701ece6,2024-09-06_14h31.01.854,mdp,2024.2.1,Win32,16.14569879,66d7945b1baad48e845df3ce,,,,,,,,,,,,,,,,,,,,,1644.7936,1644.7936,1644.7941,1661.578,1,0,right,16.232,,1661.5858,1662.2207,1,1,right,1662.2213,1663.0862,1,0,right,1,1663.0862,1663.0862,1663.0866,1664.5975,0,22,22,22,1,0.2,0.8,0.6,0.4,,,,,,,,,,,,,,,0.0784,,0.6,0.4,0.2,0.8,0.8,0.2,0.8,0.2,,,0.3083,,0.6,0.4,0.4,0.6,0.8,0.2,0.8,0.2,1,0
,,6103b565e6171b4849b8ed7b,66daf5c3b9f3c0e71701ece6,2024-09-06_14h31.01.854,mdp,2024.2.1,Win32,16.14569879,66d7945b1baad48e845df3ce,,,,,,,,,,,,,,,,,,,,,1664.5978,1664.5978,1664.5982,1673.1525,1,1,right,7.9991,,1673.1606,1673.8289,1,0,right,1673.8294,1674.7302,1,1,right,0,1674.7302,1674.7302,1674.7307,1676.2178,0,23,23,23,1,0.2,0.8,0.6,0.4,,,,,,,,,,,,,,,0.118,,0.6,0.4,0.2,0.8,0.8,0.2,0.8,0.2,,,0.3464,,0.6,0.4,0.4,0.6,0.8,0.2,0.8,0.2,1,0
,,6103b565e6171b4849b8ed7b,66daf5c3b9f3c0e71701ece6,2024-09-06_14h31.01.854,mdp,2024.2.1,Win32,16.14569879,66d7945b1baad48e845df3ce,,,,,,,,,,,,,,,,,,,,,1676.2181,1676.2181,1676.2186,1677.3293,0,1,left,0.5663,,1677.3299,1679.4714,0,0,left,1679.4719,1680.5281,0,0,left,1,1680.5281,1680.5281,1680.5288,1682.0076,0,24,24,24,1,0.2,0.8,0.6,0.4,,,,,,,,,,,,,,,1.5792,,0.6,0.4,0.2,0.8,0.8,0.2,0.8,0.2,,,0.5119,,0.6,0.4,0.4,0.6,0.8,0.2,0.8,0.2,1,0
,,6103b565e6171b4849b8ed7b,66daf5c3b9f3c0e71701ece6,2024-09-06_14h31.01.854,mdp,2024.2.1,Win32,16.14569879,66d7945b1baad48e845df3ce,,,,,,,,,,,,,,,,,,,,,1682.0079,1682.0079,1682.0083,1683.1694,0,1,left,0.6054,,1683.17,1683.9177,0,0,left,1683.9184,1685.1597,1,0,right,1,1685.1598,1685.1598,1685.1602,1686.6624,0,25,25,25,1,0.2,0.8,0.6,0.4,,,,,,,,,,,,,,,0.1795,,0.6,0.4,0.2,0.8,0.8,0.2,0.8,0.2,,,0.6535,,0.6,0.4,0.4,0.6,0.8,0.2,0.8,0.2,1,0
,,6103b565e6171b4849b8ed7b,66daf5c3b9f3c0e71701ece6,2024-09-06_14h31.01.854,mdp,2024.2.1,Win32,16.14569879,66d7945b1baad48e845df3ce,,,,,,,,,,,,,,,,,,,,,1686.6627,1686.6627,1686.6634,1688.1577,0,1,left,0.9285,,1688.1582,1688.8811,1,0,right,1688.8816,1689.837,0,1,left,0,1689.837,1689.837,1689.8376,1691.3277,0,26,26,26,1,0.2,0.8,0.6,0.4,,,,,,,,,,,,,,,0.1395,,0.6,0.4,0.2,0.8,0.8,0.2,0.8,0.2,,,0.3933,,0.6,0.4,0.4,0.6,0.8,0.2,0.8,0.2,1,0
,,6103b565e6171b4849b8ed7b,66daf5c3b9f3c0e71701ece6,2024-09-06_14h31.01.854,mdp,2024.2.1,Win32,16.14569879,66d7945b1baad48e845df3ce,,,,,,,,,,,,,,,,,,,,,1691.328,1691.328,1691.3284,1692.154,0,1,left,0.2742,,1692.1545,1692.924,0,1,left,1692.9246,1693.8271,0,0,left,1,1693.8272,1693.8272,1693.8277,1695.31,0,27,27,27,1,0.2,0.8,0.6,0.4,,,,,,,,,,,,,,,0.2268,,0.6,0.4,0.2,0.8,0.8,0.2,0.8,0.2,,,0.3352,,0.6,0.4,0.4,0.6,0.8,0.2,0.8,0.2,1,0
,,6103b565e6171b4849b8ed7b,66daf5c3b9f3c0e71701ece6,2024-09-06_14h31.01.854,mdp,2024.2.1,Win32,16.14569879,66d7945b1baad48e845df3ce,,,,,,,,,,,,,,,,,,,,,1695.3102,1695.3102,1695.3107,1713.2572,1,0,right,17.3824,,1713.2653,1713.9101,1,1,right,1713.9105,1714.8594,0,0,left,1,1714.8595,1714.8595,1714.8602,1716.3566,0,28,28,28,1,0.2,0.8,0.6,0.4,,,,,,,,,,,,,,,0.0813,,0.6,0.4,0.2,0.8,0.8,0.2,0.8,0.2,,,0.3878,,0.6,0.4,0.4,0.6,0.8,0.2,0.8,0.2,1,0
,,6103b565e6171b4849b8ed7b,66daf5c3b9f3c0e71701ece6,2024-09-06_14h31.01.854,mdp,2024.2.1,Win32,16.14569879,66d7945b1baad48e845df3ce,,,,,,,,,,,,,,,,,,,,,1716.3569,1716.3569,1716.3573,1729.1158,0,1,left,12.1936,,1729.1236,1729.7733,0,0,left,1729.774,1731.2503,1,1,right,0,1731.2504,1731.2504,1731.2509,1732.7582,0,29,29,29,1,0.2,0.8,0.6,0.4,,,,,,,,,,,,,,,0.0899,,0.6,0.4,0.2,0.8,0.8,0.2,0.8,0.2,,,0.8907,,0.6,0.4,0.4,0.6,0.8,0.2,0.8,0.2,1,0
,,6103b565e6171b4849b8ed7b,66daf5c3b9f3c0e71701ece6,2024-09-06_14h31.01.854,mdp,2024.2.1,Win32,16.14569879,66d7945b1baad48e845df3ce,,,,,,,,,,,,,,,,,,,,,1732.7588,1732.7588,1732.7594,1733.6473,0,1,left,0.3465,,1733.6478,1734.6185,0,0,left,1734.6191,1735.5479,0,0,left,1,1735.5479,1735.5479,1735.5485,1737.0271,0,30,30,30,1,0.2,0.8,0.6,0.4,,,,,,,,,,,,,,,0.4241,,0.2,0.8,0.8,0.2,0.8,0.2,0.8,0.2,,,0.3878,,0.6,0.4,0.4,0.6,0.8,0.2,0.8,0.2,1,0
,,6103b565e6171b4849b8ed7b,66daf5c3b9f3c0e71701ece6,2024-09-06_14h31.01.854,mdp,2024.2.1,Win32,16.14569879,66d7945b1baad48e845df3ce,,,,,,,,,,,,,,,,,,,,,1737.0273,1737.0273,1737.0278,1775.7023,0,1,left,38.126,,1775.7102,1776.3827,0,0,left,1776.3834,1777.3226,0,0,left,1,1777.3226,1777.3226,1777.3231,1778.8016,0,31,31,31,1,0.2,0.8,0.6,0.4,,,,,,,,,,,,,,,0.1166,,0.2,0.8,0.8,0.2,0.8,0.2,0.8,0.2,,,0.3804,,0.6,0.4,0.4,0.6,0.8,0.2,0.8,0.2,1,0
,,6103b565e6171b4849b8ed7b,66daf5c3b9f3c0e71701ece6,2024-09-06_14h31.01.854,mdp,2024.2.1,Win32,16.14569879,66d7945b1baad48e845df3ce,,,,,,,,,,,,,,,,,,,,,1778.8018,1778.8018,1778.8023,1780.909,1,0,right,1.5643,,1780.9094,1781.6333,1,0,right,1781.6338,1783.1508,0,1,left,0,1783.1508,1783.1508,1783.1514,1784.6467,0,32,32,32,1,0.2,0.8,0.6,0.4,,,,,,,,,,,,,,,0.1567,,0.2,0.8,0.8,0.2,0.8,0.2,0.8,0.2,,,0.9518,,0.6,0.4,0.4,0.6,0.6,0.4,0.6,0.4,1,0
,,6103b565e6171b4849b8ed7b,66daf5c3b9f3c0e71701ece6,2024-09-06_14h31.01.854,mdp,2024.2.1,Win32,16.14569879,66d7945b1baad48e845df3ce,,,,,,,,,,,,,,,,,,,,,1784.647,1784.647,1784.6476,1785.2596,1,0,right,0.0775,,1785.2602,1785.945,1,1,right,1785.9458,1786.5007,1,0,right,1,1786.5007,1786.5007,1786.5013,1787.9683,0,33,33,33,1,0.2,0.8,0.6,0.4,,,,,,,,,,,,,,,0.1231,,0.2,0.8,0.8,0.2,0.8,0.2,0.8,0.2,,,0.0031,,0.6,0.4,0.4,0.6,0.6,0.4,0.6,0.4,1,0
,,6103b565e6171b4849b8ed7b,66daf5c3b9f3c0e71701ece6,2024-09-06_14h31.01.854,mdp,2024.2.1,Win32,16.14569879,66d7945b1baad48e845df3ce,,,,,,,,,,,,,,,,,,,,,1787.9685,1787.9685,1787.969,1790.6887,0,1,left,2.1583,,1790.696,1791.4992,0,0,left,1791.5,1792.5195,0,0,left,1,1792.5195,1792.5196,1792.5202,1794.0126,0,34,34,34,1,0.2,0.8,0.6,0.4,,,,,,,,,,,,,,,0.2492,,0.2,0.8,0.8,0.2,0.8,0.2,0.8,0.2,,,0.4457,,0.6,0.4,0.4,0.6,0.6,0.4,0.6,0.4,1,0
,,6103b565e6171b4849b8ed7b,66daf5c3b9f3c0e71701ece6,2024-09-06_14h31.01.854,mdp,2024.2.1,Win32,16.14569879,66d7945b1baad48e845df3ce,,,,,,,,,,,,,,,,,,,,,1794.0129,1794.0129,1794.0134,1802.7405,0,1,left,8.1768,,1802.7483,1803.7247,0,1,left,1803.7252,1804.7653,0,1,left,0,1804.7654,1804.7654,1804.7659,1806.2354,0,35,35,35,1,0.2,0.8,0.6,0.4,,,,,,,,,,,,,,,0.4133,,0.2,0.8,0.8,0.2,0.8,0.2,0.8,0.2,,,0.4694,,0.6,0.4,0.4,0.6,0.6,0.4,0.6,0.4,1,0
,,6103b565e6171b4849b8ed7b,66daf5c3b9f3c0e71701ece6,2024-09-06_14h31.01.854,mdp,2024.2.1,Win32,16.14569879,66d7945b1baad48e845df3ce,,,,,,,,,,,,,,,,,,,,,1806.2357,1806.2357,1806.2362,1807.8275,0,0,left,1.0258,,1807.8281,1808.7101,0,1,left,1808.7106,1809.4108,1,1,right,0,1809.4108,1809.4109,1809.4114,1810.8893,0,36,36,36,1,0.2,0.8,0.6,0.4,,,,,,,,,,,,,,,0.3417,,0.2,0.8,0.8,0.2,0.8,0.2,0.8,0.2,,,0.1269,,0.6,0.4,0.4,0.6,0.6,0.4,0.6,0.4,1,0
,,6103b565e6171b4849b8ed7b,66daf5c3b9f3c0e71701ece6,2024-09-06_14h31.01.854,mdp,2024.2.1,Win32,16.14569879,66d7945b1baad48e845df3ce,,,,,,,,,,,,,,,,,,,,,1810.8896,1810.8896,1810.8901,1811.6516,1,0,right,0.1918,,1811.6521,1812.9691,0,1,left,1812.9697,1813.749,1,0,right,1,1813.7491,1813.7491,1813.7496,1815.2427,0,37,37,37,1,0.2,0.8,0.6,0.4,,,,,,,,,,,,,,,0.7684,,0.2,0.8,0.8,0.2,0.8,0.2,0.8,0.2,,,0.2422,,0.6,0.4,0.4,0.6,0.6,0.4,0.6,0.4,1,0
,,6103b565e6171b4849b8ed7b,66daf5c3b9f3c0e71701ece6,2024-09-06_14h31.01.854,mdp,2024.2.1,Win32,16.14569879,66d7945b1baad48e845df3ce,,,,,,,,,,,,,,,,,,,,,1815.243,1815.243,1815.2434,1816.3737,1,1,right,0.5722,,1816.3744,1817.5017,1,0,right,1817.5022,1818.6748,1,0,right,1,1818.6749,1818.6749,1818.6754,1820.1333,0,38,38,38,1,0.2,0.8,0.6,0.4,,,,,,,,,,,,,,,0.5738,,0.2,0.8,0.8,0.2,0.8,0.2,0.8,0.2,,,0.6174,,0.6,0.4,0.4,0.6,0.6,0.4,0.6,0.4,1,0
,,6103b565e6171b4849b8ed7b,66daf5c3b9f3c0e71701ece6,2024-09-06_14h31.01.854,mdp,2024.2.1,Win32,16.14569879,66d7945b1baad48e845df3ce,,,,,,,,,,,,,,,,,,,,,1820.1336,1820.1336,1820.1341,1833.7309,0,1,left,13.0369,,1833.7392,1835.2923,0,0,left,1835.2927,1836.2094,0,0,left,1,1836.2095,1836.2095,1836.21,1837.7149,0,39,39,39,1,0.2,0.8,0.6,0.4,,,,,,,,,,,,,,,0.9819,,0.2,0.8,0.8,0.2,0.8,0.2,0.8,0.2,,,0.355,,0.6,0.4,0.4,0.6,0.6,0.4,0.6,0.4,1,0
,,6103b565e6171b4849b8ed7b,66daf5c3b9f3c0e71701ece6,2024-09-06_14h31.01.854,mdp,2024.2.1,Win32,16.14569879,66d7945b1baad48e845df3ce,,,,,,,,,,,,,,,,,,,,,1837.7151,1837.7151,1837.7156,1849.0597,1,0,right,10.7793,,1849.0699,1849.8474,1,0,right,1849.8479,1850.4369,1,1,right,0,1850.437,1850.437,1850.4376,1851.95,0,40,40,40,1,0.2,0.8,0.6,0.4,,,,,,,,,,,,,,,0.2433,,0.2,0.8,0.8,0.2,0.8,0.2,0.8,0.2,,,0.0432,,0.6,0.4,0.4,0.6,0.6,0.4,0.6,0.4,1,0
,,6103b565e6171b4849b8ed7b,66daf5c3b9f3c0e71701ece6,2024-09-06_14h31.01.854,mdp,2024.2.1,Win32,16.14569879,66d7945b1baad48e845df3ce,,,,,,,,,,,,,,,,,,,,,1851.9503,1851.9503,1851.9509,1860.0001,0,1,left,7.4937,,1860.01,1871.4117,0,0,left,1871.4194,1872.206,0,0,left,1,1872.206,1872.206,1872.2065,1873.6935,0,41,41,41,1,0.2,0.8,0.6,0.4,,,,,,,,,,,,,,,10.8475,,0.4,0.6,0.6,0.4,0.8,0.2,0.8,0.2,,,0.2394,,0.6,0.4,0.4,0.6,0.6,0.4,0.6,0.4,1,0
,,6103b565e6171b4849b8ed7b,66daf5c3b9f3c0e71701ece6,2024-09-06_14h31.01.854,mdp,2024.2.1,Win32,16.14569879,66d7945b1baad48e845df3ce,,,,,,,,,,,,,,,,,,,,,1873.6939,1873.6939,1873.6943,1888.1947,1,1,right,13.9621,,1888.2026,1889.3991,1,1,right,1889.3998,1890.3505,1,1,right,0,1890.3505,1890.3505,1890.3511,1891.8449,0,42,42,42,1,0.2,0.8,0.6,0.4,,,,,,,,,,,,,,,0.6403,,0.4,0.6,0.6,0.4,0.8,0.2,0.8,0.2,,,0.3996,,0.6,0.4,0.4,0.6,0.6,0.4,0.6,0.4,1,0
,,6103b565e6171b4849b8ed7b,66daf5c3b9f3c0e71701ece6,2024-09-06_14h31.01.854,mdp,2024.2.1,Win32,16.14569879,66d7945b1baad48e845df3ce,,,,,,,,,,,,,,,,,,,,,1891.8451,1891.8451,1891.8457,1893.5467,0,1,left,1.1579,,1893.5472,1894.4539,1,1,right,1894.4545,1895.2884,0,1,left,0,1895.2885,1895.2885,1895.289,1896.7847,0,43,43,43,1,0.2,0.8,0.6,0.4,,,,,,,,,,,,,,,0.3643,,0.4,0.6,0.6,0.4,0.8,0.2,0.8,0.2,,,0.283,,0.6,0.4,0.4,0.6,0.6,0.4,0.6,0.4,1,0
,,6103b565e6171b4849b8ed7b,66daf5c3b9f3c0e71701ece6,2024-09-06_14h31.01.854,mdp,2024.2.1,Win32,16.14569879,66d7945b1baad48e845df3ce,,,,,,,,,,,,,,,,,,,,,1896.785,1896.7851,1896.7857,1897.4445,0,1,left,0.0855,,1897.4453,1898.8451,0,0,left,1898.8459,1899.5164,1,1,right,0,1899.5165,1899.5165,1899.5171,1901.0041,0,44,44,44,1,0.2,0.8,0.6,0.4,,,,,,,,,,,,,,,0.8376,,0.4,0.6,0.6,0.4,0.8,0.2,0.8,0.2,,,0.0891,,0.6,0.4,0.4,0.6,0.6,0.4,0.6,0.4,1,0
,,6103b565e6171b4849b8ed7b,66daf5c3b9f3c0e71701ece6,2024-09-06_14h31.01.854,mdp,2024.2.1,Win32,16.14569879,66d7945b1baad48e845df3ce,,,,,,,,,,,,,,,,,,,,,1901.0043,1901.0043,1901.0048,1901.9998,1,0,right,0.4539,,1902.0003,1903.328,1,0,right,1903.3286,1903.8793,0,0,left,1,1903.8793,1903.8793,1903.8799,1905.3931,0,45,45,45,1,0.2,0.8,0.6,0.4,,,,,,,,,,,,,,,0.7754,,0.4,0.6,0.6,0.4,0.8,0.2,0.8,0.2,,,0.0033,,0.6,0.4,0.4,0.6,0.6,0.4,0.6,0.4,1,0
,,6103b565e6171b4849b8ed7b,66daf5c3b9f3c0e71701ece6,2024-09-06_14h31.01.854,mdp,2024.2.1,Win32,16.14569879,66d7945b1baad48e845df3ce,,,,,,,,,,,,,,,,,,,,,1905.3934,1905.3934,1905.3938,1916.9508,0,1,left,10.9801,,1916.9586,1918.0942,0,1,left,1918.0948,1919.478,0,0,left,1,1919.4781,1919.4781,1919.4786,1920.9528,0,46,46,46,1,0.2,0.8,0.6,0.4,,,,,,,,,,,,,,,0.5793,,0.4,0.6,0.6,0.4,0.8,0.2,0.8,0.2,,,0.8304,,0.6,0.4,0.4,0.6,0.6,0.4,0.6,0.4,1,0
,,6103b565e6171b4849b8ed7b,66daf5c3b9f3c0e71701ece6,2024-09-06_14h31.01.854,mdp,2024.2.1,Win32,16.14569879,66d7945b1baad48e845df3ce,,,,,,,,,,,,,,,,,,,,,1920.9531,1920.9532,1920.9538,1933.245,1,0,right,11.7359,,1933.2526,1934.2879,1,0,right,1934.2885,1935.7225,1,0,right,1,1935.7226,1935.7226,1935.7231,1937.2394,0,47,47,47,1,0.2,0.8,0.6,0.4,,,,,,,,,,,,,,,0.4645,,0.4,0.6,0.6,0.4,0.8,0.2,0.8,0.2,,,0.8633,,0.8,0.2,0.2,0.8,0.6,0.4,0.6,0.4,1,0
,,6103b565e6171b4849b8ed7b,66daf5c3b9f3c0e71701ece6,2024-09-06_14h31.01.854,mdp,2024.2.1,Win32,16.14569879,66d7945b1baad48e845df3ce,,,,,,,,,,,,,,,,,,,,,1937.2398,1937.2398,1937.2407,1946.8127,0,1,left,9.0095,,1946.821,1947.6565,0,0,left,1947.6571,1948.7932,0,0,left,1,1948.7932,1948.7932,1948.7937,1950.2967,0,48,48,48,1,0.2,0.8,0.6,0.4,,,,,,,,,,,,,,,0.2835,,0.4,0.6,0.6,0.4,0.8,0.2,0.8,0.2,,,0.5763,,0.8,0.2,0.2,0.8,0.6,0.4,0.6,0.4,1,0
,,6103b565e6171b4849b8ed7b,66daf5c3b9f3c0e71701ece6,2024-09-06_14h31.01.854,mdp,2024.2.1,Win32,16.14569879,66d7945b1baad48e845df3ce,,,,,,,,,,,,,,,,,,,,,1950.2969,1950.2969,1950.2975,1958.736,1,0,right,7.8819,,1958.7453,1959.5316,1,0,right,1959.5321,1961.4242,1,0,right,1,1961.4243,1961.4243,1961.4248,1962.9021,0,49,49,49,1,0.2,0.8,0.6,0.4,,,,,,,,,,,,,,,0.2379,,0.4,0.6,0.6,0.4,0.8,0.2,0.8,0.2,,,1.3268,,0.8,0.2,0.2,0.8,0.6,0.4,0.6,0.4,1,0
,,6103b565e6171b4849b8ed7b,66daf5c3b9f3c0e71701ece6,2024-09-06_14h31.01.854,mdp,2024.2.1,Win32,16.14569879,66d7945b1baad48e845df3ce,,,,,,,,,,,,,,,,,,,,,,,,,,,,,,,,,,,,,,,,,,,,,,,,,,,,,,,,1962.9022,2021.4516,0,3,3,1,1,imgs/cat.png,imgs/elephant.png,imgs/squirrel.png,imgs/pig.png,imgs/horse.png,,,,,,,,,,,,,,,,,,,,,,,,
,,6103b565e6171b4849b8ed7b,66daf5c3b9f3c0e71701ece6,2024-09-06_14h31.01.854,mdp,2024.2.1,Win32,16.14569879,66d7945b1baad48e845df3ce,,,,,,,,,,,,,,1,seqs/st1seq37.csv,2021.4594,2079.2925,space,57.2836,,2079.3034,2079.3034,2079.3041,2089.0955,0,1,left,9.2481,,2089.1035,2089.1039,1,1,,2089.1044,2089.1047,1,0,,0,2089.1047,2089.1047,2089.1051,2090.6092,0,0,0,0,1,0.2,0.8,0.6,0.4,1,0,,,,,,,,,,,,,,,,,,,,,,,,,,,,,,,,,,,,
,,6103b565e6171b4849b8ed7b,66daf5c3b9f3c0e71701ece6,2024-09-06_14h31.01.854,mdp,2024.2.1,Win32,16.14569879,66d7945b1baad48e845df3ce,,,,,,,,,,,,,,,,,,,,,2090.6095,2090.6095,2090.6101,2111.1136,1,1,right,19.9657,,2111.1213,2111.1217,1,0,,2111.1222,2111.1224,1,0,,0,2111.1224,2111.1224,2111.1227,2112.6032,0,1,1,1,1,0.2,0.8,0.6,0.4,1,0,,,,,,,,,,,,,,,,,,,,,,,,,,,,,,,,,,,,
,,6103b565e6171b4849b8ed7b,66daf5c3b9f3c0e71701ece6,2024-09-06_14h31.01.854,mdp,2024.2.1,Win32,16.14569879,66d7945b1baad48e845df3ce,,,,,,,,,,,,,,,,,,,,,2112.6034,2112.6034,2112.604,2113.6428,1,0,right,0.4703,,2113.6434,2113.6439,1,1,,2113.6442,2113.6445,1,1,,1,2113.6445,2113.6445,2113.6448,2115.1233,0,2,2,2,1,0.6,0.4,0.4,0.6,1,0,,,,,,,,,,,,,,,,,,,,,,,,,,,,,,,,,,,,
,,6103b565e6171b4849b8ed7b,66daf5c3b9f3c0e71701ece6,2024-09-06_14h31.01.854,mdp,2024.2.1,Win32,16.14569879,66d7945b1baad48e845df3ce,,,,,,,,,,,,,,,,,,,,,2115.1236,2115.1236,2115.124,2116.7916,1,1,right,1.0924,,2116.792,2116.7924,1,1,,2116.7927,2116.7931,1,1,,0,2116.7931,2116.7932,2116.7935,2118.2871,0,3,3,3,1,0.6,0.4,0.4,0.6,1,0,,,,,,,,,,,,,,,,,,,,,,,,,,,,,,,,,,,,
,,6103b565e6171b4849b8ed7b,66daf5c3b9f3c0e71701ece6,2024-09-06_14h31.01.854,mdp,2024.2.1,Win32,16.14569879,66d7945b1baad48e845df3ce,,,,,,,,,,,,,,,,,,,,,2118.2874,2118.2874,2118.288,2119.4423,0,0,left,0.5753,,2119.4431,2119.4436,1,0,,2119.4442,2119.4446,1,0,,1,2119.4446,2119.4446,2119.4451,2120.9385,0,4,4,4,1,0.6,0.4,0.4,0.6,1,0,,,,,,,,,,,,,,,,,,,,,,,,,,,,,,,,,,,,
,,6103b565e6171b4849b8ed7b,66daf5c3b9f3c0e71701ece6,2024-09-06_14h31.01.854,mdp,2024.2.1,Win32,16.14569879,66d7945b1baad48e845df3ce,,,,,,,,,,,,,,,,,,,,,2120.9391,2120.9391,2120.9396,2122.1654,0,0,left,0.683,,2122.1659,2122.1664,1,1,,2122.1668,2122.1671,1,0,,1,2122.1671,2122.1671,2122.1676,2123.652,0,5,5,5,1,0.6,0.4,0.4,0.6,1,0,,,,,,,,,,,,,,,,,,,,,,,,,,,,,,,,,,,,
,,6103b565e6171b4849b8ed7b,66daf5c3b9f3c0e71701ece6,2024-09-06_14h31.01.854,mdp,2024.2.1,Win32,16.14569879,66d7945b1baad48e845df3ce,,,,,,,,,,,,,,,,,,,,,2123.6522,2123.6522,2123.6526,2125.1918,0,0,left,0.969,,2125.1924,2125.1926,1,0,,2125.193,2125.1935,1,1,,1,2125.1935,2125.1935,2125.1939,2126.6964,0,6,6,6,1,0.6,0.4,0.4,0.6,1,0,,,,,,,,,,,,,,,,,,,,,,,,,,,,,,,,,,,,
,,6103b565e6171b4849b8ed7b,66daf5c3b9f3c0e71701ece6,2024-09-06_14h31.01.854,mdp,2024.2.1,Win32,16.14569879,66d7945b1baad48e845df3ce,,,,,,,,,,,,,,,,,,,,,2126.6966,2126.6966,2126.697,2127.5787,0,0,left,0.324,,2127.5793,2127.5796,1,1,,2127.5801,2127.5806,1,0,,1,2127.5806,2127.5806,2127.581,2129.088,0,7,7,7,1,0.6,0.4,0.4,0.6,1,0,,,,,,,,,,,,,,,,,,,,,,,,,,,,,,,,,,,,
,,6103b565e6171b4849b8ed7b,66daf5c3b9f3c0e71701ece6,2024-09-06_14h31.01.854,mdp,2024.2.1,Win32,16.14569879,66d7945b1baad48e845df3ce,,,,,,,,,,,,,,,,,,,,,2129.0883,2129.0883,2129.0891,2130.3341,0,1,left,0.6891,,2130.3346,2130.335,1,0,,2130.3355,2130.3357,1,0,,0,2130.3357,2130.3357,2130.3361,2131.8169,0,8,8,8,1,0.6,0.4,0.4,0.6,1,0,,,,,,,,,,,,,,,,,,,,,,,,,,,,,,,,,,,,
,,6103b565e6171b4849b8ed7b,66daf5c3b9f3c0e71701ece6,2024-09-06_14h31.01.854,mdp,2024.2.1,Win32,16.14569879,66d7945b1baad48e845df3ce,,,,,,,,,,,,,,,,,,,,,2131.8172,2131.8172,2131.8177,2133.1175,0,0,left,0.7547,,2133.1181,2133.1186,1,1,,2133.1189,2133.1192,1,1,,1,2133.1192,2133.1192,2133.1195,2134.633,0,9,9,9,1,0.6,0.4,0.4,0.6,1,0,,,,,,,,,,,,,,,,,,,,,,,,,,,,,,,,,,,,
,,6103b565e6171b4849b8ed7b,66daf5c3b9f3c0e71701ece6,2024-09-06_14h31.01.854,mdp,2024.2.1,Win32,16.14569879,66d7945b1baad48e845df3ce,,,,,,,,,,,,,,,,,,,,,2134.6333,2134.6333,2134.6337,2135.482,0,0,left,0.2905,,2135.4825,2135.4831,1,0,,2135.4835,2135.4839,1,0,,1,2135.4839,2135.4839,2135.4842,2136.9391,0,10,10,10,1,0.6,0.4,0.4,0.6,1,0,,,,,,,,,,,,,,,,,,,,,,,,,,,,,,,,,,,,
,,6103b565e6171b4849b8ed7b,66daf5c3b9f3c0e71701ece6,2024-09-06_14h31.01.854,mdp,2024.2.1,Win32,16.14569879,66d7945b1baad48e845df3ce,,,,,,,,,,,,,,,,,,,,,2136.9393,2136.9393,2136.94,2141.0469,0,1,left,3.5516,,2141.0543,2141.0551,1,0,,2141.0557,2141.057,1,0,,0,2141.057,2141.0577,2141.0584,2142.5369,0,11,11,11,1,0.8,0.2,0.2,0.8,1,0,,,,,,,,,,,,,,,,,,,,,,,,,,,,,,,,,,,,
,,6103b565e6171b4849b8ed7b,66daf5c3b9f3c0e71701ece6,2024-09-06_14h31.01.854,mdp,2024.2.1,Win32,16.14569879,66d7945b1baad48e845df3ce,,,,,,,,,,,,,,,,,,,,,2142.5371,2142.5371,2142.5377,2143.8815,1,1,right,0.771,,2143.8821,2143.8824,1,1,,2143.8829,2143.8831,1,1,,0,2143.8832,2143.8832,2143.8834,2145.3749,0,12,12,12,1,0.8,0.2,0.2,0.8,1,0,,,,,,,,,,,,,,,,,,,,,,,,,,,,,,,,,,,,
,,6103b565e6171b4849b8ed7b,66daf5c3b9f3c0e71701ece6,2024-09-06_14h31.01.854,mdp,2024.2.1,Win32,16.14569879,66d7945b1baad48e845df3ce,,,,,,,,,,,,,,,,,,,,,2145.3751,2145.3752,2145.3757,2146.5472,1,1,right,0.593,,2146.5478,2146.5482,1,1,,2146.5486,2146.5489,1,1,,0,2146.5489,2146.5489,2146.5492,2148.0361,0,13,13,13,1,0.8,0.2,0.2,0.8,1,0,,,,,,,,,,,,,,,,,,,,,,,,,,,,,,,,,,,,
,,6103b565e6171b4849b8ed7b,66daf5c3b9f3c0e71701ece6,2024-09-06_14h31.01.854,mdp,2024.2.1,Win32,16.14569879,66d7945b1baad48e845df3ce,,,,,,,,,,,,,,,,,,,,,2148.0365,2148.0365,2148.0371,2184.334,1,1,right,35.7313,,2184.342,2184.3425,1,1,,2184.3429,2184.3433,1,1,,0,2184.3433,2184.3433,2184.3435,2185.8232,0,14,14,14,1,0.8,0.2,0.2,0.8,1,0,,,,,,,,,,,,,,,,,,,,,,,,,,,,,,,,,,,,
,,6103b565e6171b4849b8ed7b,66daf5c3b9f3c0e71701ece6,2024-09-06_14h31.01.854,mdp,2024.2.1,Win32,16.14569879,66d7945b1baad48e845df3ce,,,,,,,,,,,,,,,,,,,,,2185.8234,2185.8234,2185.824,2186.5417,0,0,left,0.1526,,2186.5422,2186.5426,1,0,,2186.543,2186.5433,1,0,,1,2186.5433,2186.5433,2186.5436,2188.0486,0,15,15,15,1,0.8,0.2,0.2,0.8,1,0,,,,,,,,,,,,,,,,,,,,,,,,,,,,,,,,,,,,
,,6103b565e6171b4849b8ed7b,66daf5c3b9f3c0e71701ece6,2024-09-06_14h31.01.854,mdp,2024.2.1,Win32,16.14569879,66d7945b1baad48e845df3ce,,,,,,,,,,,,,,,,,,,,,2188.0488,2188.0488,2188.0494,2192.8842,0,0,left,4.272,,2192.8916,2192.8921,1,1,,2192.8925,2192.8928,1,1,,1,2192.8929,2192.8929,2192.8931,2194.3847,0,16,16,16,1,0.4,0.6,0.6,0.4,1,0,,,,,,,,,,,,,,,,,,,,,,,,,,,,,,,,,,,,
,,6103b565e6171b4849b8ed7b,66daf5c3b9f3c0e71701ece6,2024-09-06_14h31.01.854,mdp,2024.2.1,Win32,16.14569879,66d7945b1baad48e845df3ce,,,,,,,,,,,,,,,,,,,,,2194.3848,2194.3848,2194.3854,2200.4921,0,0,left,5.5674,,2200.4995,2200.5001,1,0,,2200.5005,2200.5009,1,0,,1,2200.5009,2200.5009,2200.5012,2202.018,0,17,17,17,1,0.8,0.2,0.2,0.8,1,0,,,,,,,,,,,,,,,,,,,,,,,,,,,,,,,,,,,,
,,6103b565e6171b4849b8ed7b,66daf5c3b9f3c0e71701ece6,2024-09-06_14h31.01.854,mdp,2024.2.1,Win32,16.14569879,66d7945b1baad48e845df3ce,,,,,,,,,,,,,,,,,,,,,2202.0182,2202.0182,2202.0188,2203.3988,0,1,left,0.8264,,2203.3993,2203.3997,1,1,,2203.4001,2203.4004,1,1,,0,2203.4004,2203.4004,2203.4007,2204.9032,0,18,18,18,1,0.2,0.8,0.6,0.4,1,0,,,,,,,,,,,,,,,,,,,,,,,,,,,,,,,,,,,,
,,6103b565e6171b4849b8ed7b,66daf5c3b9f3c0e71701ece6,2024-09-06_14h31.01.854,mdp,2024.2.1,Win32,16.14569879,66d7945b1baad48e845df3ce,,,,,,,,,,,,,,,,,,,,,2204.9034,2204.9034,2204.904,2205.6252,1,1,right,0.1635,,2205.6257,2205.6262,1,1,,2205.6266,2205.6269,1,1,,0,2205.6269,2205.6269,2205.6273,2207.1218,0,19,19,19,1,0.8,0.2,0.2,0.8,1,0,,,,,,,,,,,,,,,,,,,,,,,,,,,,,,,,,,,,
,,6103b565e6171b4849b8ed7b,66daf5c3b9f3c0e71701ece6,2024-09-06_14h31.01.854,mdp,2024.2.1,Win32,16.14569879,66d7945b1baad48e845df3ce,,,,,,,,,,,,,,,,,,,,,2207.1221,2207.1221,2207.1227,2208.2634,1,1,right,0.5749,,2208.2639,2208.2643,1,0,,2208.2646,2208.2649,1,1,,0,2208.2649,2208.2649,2208.2652,2209.7692,0,20,20,20,1,0.8,0.2,0.2,0.8,1,0,,,,,,,,,,,,,,,,,,,,,,,,,,,,,,,,,,,,
,,6103b565e6171b4849b8ed7b,66daf5c3b9f3c0e71701ece6,2024-09-06_14h31.01.854,mdp,2024.2.1,Win32,16.14569879,66d7945b1baad48e845df3ce,,,,,,,,,,,,,,,,,,,,,2209.7694,2209.7694,2209.7698,2210.5008,1,0,right,0.1607,,2210.5013,2210.5017,1,1,,2210.5021,2210.5023,1,0,,1,2210.5024,2210.5024,2210.5026,2211.9808,0,21,21,21,1,0.4,0.6,0.8,0.2,1,0,,,,,,,,,,,,,,,,,,,,,,,,,,,,,,,,,,,,
,,6103b565e6171b4849b8ed7b,66daf5c3b9f3c0e71701ece6,2024-09-06_14h31.01.854,mdp,2024.2.1,Win32,16.14569879,66d7945b1baad48e845df3ce,,,,,,,,,,,,,,,,,,,,,2211.981,2211.981,2211.9815,2212.715,1,0,right,0.1595,,2212.7158,2212.7162,1,0,,2212.7167,2212.7171,1,0,,1,2212.7172,2212.7172,2212.7176,2214.2293,0,22,22,22,1,0.4,0.6,0.8,0.2,1,0,,,,,,,,,,,,,,,,,,,,,,,,,,,,,,,,,,,,
,,6103b565e6171b4849b8ed7b,66daf5c3b9f3c0e71701ece6,2024-09-06_14h31.01.854,mdp,2024.2.1,Win32,16.14569879,66d7945b1baad48e845df3ce,,,,,,,,,,,,,,,,,,,,,2214.2295,2214.2295,2214.23,2215.7713,0,1,left,0.9945,,2215.7718,2215.7722,1,0,,2215.7725,2215.7728,1,0,,0,2215.7728,2215.7728,2215.7731,2217.2548,0,23,23,23,1,0.4,0.6,0.8,0.2,1,0,,,,,,,,,,,,,,,,,,,,,,,,,,,,,,,,,,,,
,,6103b565e6171b4849b8ed7b,66daf5c3b9f3c0e71701ece6,2024-09-06_14h31.01.854,mdp,2024.2.1,Win32,16.14569879,66d7945b1baad48e845df3ce,,,,,,,,,,,,,,,,,,,,,2217.255,2217.255,2217.2555,2218.7027,0,0,left,0.8883,,2218.7032,2218.7036,1,0,,2218.7039,2218.7042,1,1,,1,2218.7042,2218.7042,2218.7045,2220.198,0,24,24,24,1,0.6,0.4,0.2,0.8,1,0,,,,,,,,,,,,,,,,,,,,,,,,,,,,,,,,,,,,
,,6103b565e6171b4849b8ed7b,66daf5c3b9f3c0e71701ece6,2024-09-06_14h31.01.854,mdp,2024.2.1,Win32,16.14569879,66d7945b1baad48e845df3ce,,,,,,,,,,,,,,,,,,,,,2220.1983,2220.1983,2220.1988,2221.7401,0,0,left,0.9779,,2221.7405,2221.7409,1,1,,2221.7413,2221.7416,1,0,,1,2221.7416,2221.7416,2221.7418,2223.2264,0,25,25,25,1,0.6,0.4,0.2,0.8,1,0,,,,,,,,,,,,,,,,,,,,,,,,,,,,,,,,,,,,
,,6103b565e6171b4849b8ed7b,66daf5c3b9f3c0e71701ece6,2024-09-06_14h31.01.854,mdp,2024.2.1,Win32,16.14569879,66d7945b1baad48e845df3ce,,,,,,,,,,,,,,,,,,,,,2223.2266,2223.2266,2223.2271,2224.11,0,0,left,0.3115,,2224.1105,2224.1109,1,0,,2224.1113,2224.1115,1,0,,1,2224.1115,2224.1115,2224.1118,2225.6115,0,26,26,26,1,0.6,0.4,0.2,0.8,1,0,,,,,,,,,,,,,,,,,,,,,,,,,,,,,,,,,,,,
,,6103b565e6171b4849b8ed7b,66daf5c3b9f3c0e71701ece6,2024-09-06_14h31.01.854,mdp,2024.2.1,Win32,16.14569879,66d7945b1baad48e845df3ce,,,,,,,,,,,,,,,,,,,,,2225.6116,2225.6116,2225.6122,2226.5681,0,0,left,0.4109,,2226.5687,2226.5691,1,1,,2226.5696,2226.5699,1,0,,1,2226.57,2226.57,2226.5702,2228.0641,0,27,27,27,1,0.6,0.4,0.2,0.8,1,0,,,,,,,,,,,,,,,,,,,,,,,,,,,,,,,,,,,,
,,6103b565e6171b4849b8ed7b,66daf5c3b9f3c0e71701ece6,2024-09-06_14h31.01.854,mdp,2024.2.1,Win32,16.14569879,66d7945b1baad48e845df3ce,,,,,,,,,,,,,,,,,,,,,2228.0644,2228.0644,2228.0648,2229.1195,0,1,left,0.4803,,2229.1199,2229.1203,1,1,,2229.1207,2229.1209,1,1,,0,2229.1209,2229.121,2229.1213,2230.633,0,28,28,28,1,0.2,0.8,0.8,0.2,1,0,,,,,,,,,,,,,,,,,,,,,,,,,,,,,,,,,,,,
,,6103b565e6171b4849b8ed7b,66daf5c3b9f3c0e71701ece6,2024-09-06_14h31.01.854,mdp,2024.2.1,Win32,16.14569879,66d7945b1baad48e845df3ce,,,,,,,,,,,,,,,,,,,,,2230.6333,2230.6333,2230.6338,2231.4156,1,0,right,0.2396,,2231.4162,2231.4165,1,0,,2231.4169,2231.4171,1,0,,1,2231.4171,2231.4171,2231.4174,2232.912,0,29,29,29,1,0.2,0.8,0.8,0.2,1,0,,,,,,,,,,,,,,,,,,,,,,,,,,,,,,,,,,,,
,,6103b565e6171b4849b8ed7b,66daf5c3b9f3c0e71701ece6,2024-09-06_14h31.01.854,mdp,2024.2.1,Win32,16.14569879,66d7945b1baad48e845df3ce,,,,,,,,,,,,,,,,,,,,,2232.9123,2232.9123,2232.9128,2261.0303,1,0,right,27.5382,,2261.0382,2261.0387,1,0,,2261.0393,2261.0396,1,0,,1,2261.0396,2261.0396,2261.04,2262.5386,0,30,30,30,1,0.2,0.8,0.8,0.2,1,0,,,,,,,,,,,,,,,,,,,,,,,,,,,,,,,,,,,,
,,6103b565e6171b4849b8ed7b,66daf5c3b9f3c0e71701ece6,2024-09-06_14h31.01.854,mdp,2024.2.1,Win32,16.14569879,66d7945b1baad48e845df3ce,,,,,,,,,,,,,,,,,,,,,2262.5389,2262.5389,2262.5394,2266.5509,1,1,right,3.4467,,2266.5586,2266.5593,1,0,,2266.5597,2266.56,1,0,,0,2266.56,2266.56,2266.5604,2268.0514,0,31,31,31,1,0.2,0.8,0.8,0.2,1,0,,,,,,,,,,,,,,,,,,,,,,,,,,,,,,,,,,,,
,,6103b565e6171b4849b8ed7b,66daf5c3b9f3c0e71701ece6,2024-09-06_14h31.01.854,mdp,2024.2.1,Win32,16.14569879,66d7945b1baad48e845df3ce,,,,,,,,,,,,,,,,,,,,,2268.0516,2268.0517,2268.0522,2269.0988,1,0,right,0.4973,,2269.0993,2269.0998,1,0,,2269.1003,2269.1007,1,0,,1,2269.1007,2269.1007,2269.1011,2270.5909,0,32,32,32,1,0.2,0.8,0.8,0.2,1,0,,,,,,,,,,,,,,,,,,,,,,,,,,,,,,,,,,,,
,,6103b565e6171b4849b8ed7b,66daf5c3b9f3c0e71701ece6,2024-09-06_14h31.01.854,mdp,2024.2.1,Win32,16.14569879,66d7945b1baad48e845df3ce,,,,,,,,,,,,,,,,,,,,,2270.5912,2270.5912,2270.5916,2274.0592,1,0,right,2.9313,,2274.0665,2274.067,1,0,,2274.0673,2274.0677,1,1,,1,2274.0677,2274.0677,2274.0681,2275.5995,0,33,33,33,1,0.2,0.8,0.8,0.2,1,0,,,,,,,,,,,,,,,,,,,,,,,,,,,,,,,,,,,,
,,6103b565e6171b4849b8ed7b,66daf5c3b9f3c0e71701ece6,2024-09-06_14h31.01.854,mdp,2024.2.1,Win32,16.14569879,66d7945b1baad48e845df3ce,,,,,,,,,,,,,,,,,,,,,2275.5998,2275.5998,2275.6003,2289.0815,0,0,left,12.9056,,2289.09,2289.0909,1,0,,2289.0917,2289.092,1,0,,1,2289.0921,2289.0921,2289.0924,2290.61,0,34,34,34,1,0.8,0.2,0.2,0.8,1,0,,,,,,,,,,,,,,,,,,,,,,,,,,,,,,,,,,,,
,,6103b565e6171b4849b8ed7b,66daf5c3b9f3c0e71701ece6,2024-09-06_14h31.01.854,mdp,2024.2.1,Win32,16.14569879,66d7945b1baad48e845df3ce,,,,,,,,,,,,,,,,,,,,,2290.6102,2290.6102,2290.6108,2292.4431,0,0,left,1.2563,,2292.4437,2292.4441,1,0,,2292.4446,2292.445,1,0,,1,2292.445,2292.445,2292.4453,2293.9448,0,35,35,35,1,0.8,0.2,0.2,0.8,1,0,,,,,,,,,,,,,,,,,,,,,,,,,,,,,,,,,,,,
,,6103b565e6171b4849b8ed7b,66daf5c3b9f3c0e71701ece6,2024-09-06_14h31.01.854,mdp,2024.2.1,Win32,16.14569879,66d7945b1baad48e845df3ce,,,,,,,,,,,,,,,,,,,,,2293.945,2293.945,2293.9457,2300.5196,0,0,left,6.0251,,2300.5268,2300.5271,1,0,,2300.5276,2300.5278,1,1,,1,2300.5278,2300.5278,2300.5281,2302.013,0,36,36,36,1,0.8,0.2,0.2,0.8,1,0,,,,,,,,,,,,,,,,,,,,,,,,,,,,,,,,,,,,
,,6103b565e6171b4849b8ed7b,66daf5c3b9f3c0e71701ece6,2024-09-06_14h31.01.854,mdp,2024.2.1,Win32,16.14569879,66d7945b1baad48e845df3ce,,,,,,,,,,,,,,,,,,,,,2302.0133,2302.0133,2302.0137,2318.9286,0,1,left,16.3396,,2318.9364,2318.9368,1,1,,2318.9374,2318.9376,1,0,,0,2318.9377,2318.9377,2318.938,2320.4175,0,37,37,37,1,0.2,0.8,0.8,0.2,1,0,,,,,,,,,,,,,,,,,,,,,,,,,,,,,,,,,,,,
