init_exp.started,init_exp.stopped,participant,session,date,expName,psychopyVersion,OS,frameRate,study_id,disp_instruction.started,disp_instruction.stopped,instruction.thisRepN,instruction.thisTrialN,instruction.thisN,instruction.thisIndex,instruction.ran,instimg_path,consent.started,consent.stopped,key_resp_3.keys,key_resp_3.rt,key_resp_3.duration,n_steps,sequence_path,init_block.started,init_block.stopped,key_resp.keys,key_resp.rt,key_resp.duration,init_trials.started,init_trials.stopped,step0.started,step0.stopped,act0,s1,res0.keys,res0.rt,res0.duration,step1.started,step1.stopped,act1,s2,res1.keys,step2.started,step2.stopped,act2,s3,res2.keys,rew,reward_comp.started,reward_comp.stopped,reward_disp.started,reward_disp.stopped,trials.thisRepN,trials.thisTrialN,trials.thisN,trials.thisIndex,trials.ran,s00a0s10,s00a0s11,s00a1s10,s00a1s11,rew10,rew11,break_block.started,break_block.stopped,block.thisRepN,block.thisTrialN,block.thisN,block.thisIndex,block.ran,s00path,s10path,s11path,s20path,s21path,res1.rt,res1.duration,s10a0s20,s10a0s21,s10a1s20,s10a1s21,s11a0s20,s11a0s21,s11a1s20,s11a1s21,rew20,rew21,res2.rt,res2.duration,s20a0s30,s20a0s31,s20a1s30,s20a1s31,s21a0s30,s21a0s31,s21a1s30,s21a1s31,rew30,rew31
9.99999E-05,0.0007,61190367632a534f9e11b013,66daf5cf898dc162a3d006cf,2024-09-06_14h32.19.217,mdp,2024.2.1,Win32,60.24096386,66d7945b1baad48e845df3ce,,,,,,,,,,,,,,,,,,,,,,,,,,,,,,,,,,,,,,,,,,,,,,,,,,,,,,,,,,,,,,,,,,,,,,,,,,,,,,,,,,,,,,,,,,,
,,61190367632a534f9e11b013,66daf5cf898dc162a3d006cf,2024-09-06_14h32.19.217,mdp,2024.2.1,Win32,60.24096386,66d7945b1baad48e845df3ce,0.0031,52.6018,0,0,0,0,1,rlnn_exp/rlnn_exp.001.png,,,,,,,,,,,,,,,,,,,,,,,,,,,,,,,,,,,,,,,,,,,,,,,,,,,,,,,,,,,,,,,,,,,,,,,,,,,,,,,,,,,
,,61190367632a534f9e11b013,66daf5cf898dc162a3d006cf,2024-09-06_14h32.19.217,mdp,2024.2.1,Win32,60.24096386,66d7945b1baad48e845df3ce,52.6021,88.9391,0,1,1,1,1,rlnn_exp/rlnn_exp.002.png,,,,,,,,,,,,,,,,,,,,,,,,,,,,,,,,,,,,,,,,,,,,,,,,,,,,,,,,,,,,,,,,,,,,,,,,,,,,,,,,,,,
,,61190367632a534f9e11b013,66daf5cf898dc162a3d006cf,2024-09-06_14h32.19.217,mdp,2024.2.1,Win32,60.24096386,66d7945b1baad48e845df3ce,88.9455,149.3853,0,2,2,2,1,rlnn_exp/rlnn_exp.003.png,,,,,,,,,,,,,,,,,,,,,,,,,,,,,,,,,,,,,,,,,,,,,,,,,,,,,,,,,,,,,,,,,,,,,,,,,,,,,,,,,,,
,,61190367632a534f9e11b013,66daf5cf898dc162a3d006cf,2024-09-06_14h32.19.217,mdp,2024.2.1,Win32,60.24096386,66d7945b1baad48e845df3ce,149.393,180.2924,0,3,3,3,1,rlnn_exp/rlnn_exp.004.png,,,,,,,,,,,,,,,,,,,,,,,,,,,,,,,,,,,,,,,,,,,,,,,,,,,,,,,,,,,,,,,,,,,,,,,,,,,,,,,,,,,
,,61190367632a534f9e11b013,66daf5cf898dc162a3d006cf,2024-09-06_14h32.19.217,mdp,2024.2.1,Win32,60.24096386,66d7945b1baad48e845df3ce,,,,,,,,,180.2997,220.0123,y,29.6837,,,,,,,,,,,,,,,,,,,,,,,,,,,,,,,,,,,,,,,,,,,,,,,,,,,,,,,,,,,,,,,,,,,,,,,,,,,,,,,
,,61190367632a534f9e11b013,66daf5cf898dc162a3d006cf,2024-09-06_14h32.19.217,mdp,2024.2.1,Win32,60.24096386,66d7945b1baad48e845df3ce,,,,,,,,,,,,,,1,seqs/st1seq4.csv,220.0148,225.8104,space,5.2649,,225.8173,225.8173,225.8175,231.9407,1,1,right,5.5881,,231.9463,231.9472,,1,,231.9474,231.9479,,0,,0,231.9479,231.9479,231.948,233.4412,0,0,0,0,1,0.6,0.4,0.4,0.6,1,0,,,,,,,,,,,,,,,,,,,,,,,,,,,,,,,,,,,,
,,61190367632a534f9e11b013,66daf5cf898dc162a3d006cf,2024-09-06_14h32.19.217,mdp,2024.2.1,Win32,60.24096386,66d7945b1baad48e845df3ce,,,,,,,,,,,,,,,,,,,,,233.4418,233.4418,233.4425,235.0396,0,0,left,1.0685,,235.0408,235.0413,,0,,235.0417,235.0419,,0,,1,235.0419,235.0419,235.0421,236.539,0,1,1,1,1,0.6,0.4,0.4,0.6,1,0,,,,,,,,,,,,,,,,,,,,,,,,,,,,,,,,,,,,
,,61190367632a534f9e11b013,66daf5cf898dc162a3d006cf,2024-09-06_14h32.19.217,mdp,2024.2.1,Win32,60.24096386,66d7945b1baad48e845df3ce,,,,,,,,,,,,,,,,,,,,,236.5396,236.5397,236.5407,238.0056,0,1,left,0.9352,,238.0076,238.0086,,0,,238.0098,238.0104,,0,,0,238.0105,238.0105,238.0107,239.5051,0,2,2,2,1,0.6,0.4,0.4,0.6,1,0,,,,,,,,,,,,,,,,,,,,,,,,,,,,,,,,,,,,
,,61190367632a534f9e11b013,66daf5cf898dc162a3d006cf,2024-09-06_14h32.19.217,mdp,2024.2.1,Win32,60.24096386,66d7945b1baad48e845df3ce,,,,,,,,,,,,,,,,,,,,,239.5058,239.5058,239.5068,242.2876,1,1,right,2.2612,,242.2941,242.2946,,0,,242.2951,242.2953,,0,,0,242.2953,242.2953,242.2954,243.7861,0,3,3,3,1,0.6,0.4,0.4,0.6,1,0,,,,,,,,,,,,,,,,,,,,,,,,,,,,,,,,,,,,
,,61190367632a534f9e11b013,66daf5cf898dc162a3d006cf,2024-09-06_14h32.19.217,mdp,2024.2.1,Win32,60.24096386,66d7945b1baad48e845df3ce,,,,,,,,,,,,,,,,,,,,,243.7863,243.7863,243.7869,246.5189,0,1,left,2.222,,246.528,246.5286,,1,,246.529,246.5293,,1,,0,246.5293,246.5293,246.5295,248.0183,0,4,4,4,1,0.6,0.4,0.4,0.6,1,0,,,,,,,,,,,,,,,,,,,,,,,,,,,,,,,,,,,,
,,61190367632a534f9e11b013,66daf5cf898dc162a3d006cf,2024-09-06_14h32.19.217,mdp,2024.2.1,Win32,60.24096386,66d7945b1baad48e845df3ce,,,,,,,,,,,,,,,,,,,,,248.0192,248.0192,248.0205,249.1685,0,0,left,0.6166,,249.1697,249.1704,,0,,249.171,249.1712,,0,,1,249.1713,249.1713,249.1715,250.6678,0,5,5,5,1,0.6,0.4,0.4,0.6,1,0,,,,,,,,,,,,,,,,,,,,,,,,,,,,,,,,,,,,
,,61190367632a534f9e11b013,66daf5cf898dc162a3d006cf,2024-09-06_14h32.19.217,mdp,2024.2.1,Win32,60.24096386,66d7945b1baad48e845df3ce,,,,,,,,,,,,,,,,,,,,,250.6687,250.6687,250.6697,253.3171,0,0,left,2.1181,,253.3181,253.3185,,0,,253.3189,253.3192,,1,,1,253.3192,253.3192,253.3194,254.8196,0,6,6,6,1,0.6,0.4,0.4,0.6,1,0,,,,,,,,,,,,,,,,,,,,,,,,,,,,,,,,,,,,
,,61190367632a534f9e11b013,66daf5cf898dc162a3d006cf,2024-09-06_14h32.19.217,mdp,2024.2.1,Win32,60.24096386,66d7945b1baad48e845df3ce,,,,,,,,,,,,,,,,,,,,,254.8198,254.8198,254.8209,256.3495,0,1,left,1.005,,256.3504,256.3506,,0,,256.3509,256.3511,,0,,0,256.3511,256.3511,256.3513,257.8485,0,7,7,7,1,0.6,0.4,0.4,0.6,1,0,,,,,,,,,,,,,,,,,,,,,,,,,,,,,,,,,,,,
,,61190367632a534f9e11b013,66daf5cf898dc162a3d006cf,2024-09-06_14h32.19.217,mdp,2024.2.1,Win32,60.24096386,66d7945b1baad48e845df3ce,,,,,,,,,,,,,,,,,,,,,257.8491,257.8491,257.8512,258.9651,1,1,right,0.5893,,258.9668,258.9677,,0,,258.9686,258.9693,,0,,0,258.9694,258.9694,258.9698,260.4636,0,8,8,8,1,0.8,0.2,0.6,0.4,1,0,,,,,,,,,,,,,,,,,,,,,,,,,,,,,,,,,,,,
,,61190367632a534f9e11b013,66daf5cf898dc162a3d006cf,2024-09-06_14h32.19.217,mdp,2024.2.1,Win32,60.24096386,66d7945b1baad48e845df3ce,,,,,,,,,,,,,,,,,,,,,260.4643,260.4643,260.4652,262.7639,0,0,left,1.7719,,262.7649,262.7653,,0,,262.7655,262.7658,,0,,1,262.7658,262.7658,262.766,264.2631,0,9,9,9,1,0.8,0.2,0.6,0.4,1,0,,,,,,,,,,,,,,,,,,,,,,,,,,,,,,,,,,,,
,,61190367632a534f9e11b013,66daf5cf898dc162a3d006cf,2024-09-06_14h32.19.217,mdp,2024.2.1,Win32,60.24096386,66d7945b1baad48e845df3ce,,,,,,,,,,,,,,,,,,,,,264.2638,264.2638,264.2644,265.6126,1,0,right,0.817,,265.6138,265.6142,,0,,265.6148,265.615,,1,,1,265.615,265.615,265.6153,267.1121,0,10,10,10,1,0.8,0.2,0.6,0.4,1,0,,,,,,,,,,,,,,,,,,,,,,,,,,,,,,,,,,,,
,,61190367632a534f9e11b013,66daf5cf898dc162a3d006cf,2024-09-06_14h32.19.217,mdp,2024.2.1,Win32,60.24096386,66d7945b1baad48e845df3ce,,,,,,,,,,,,,,,,,,,,,267.1126,267.1126,267.1133,268.1615,1,0,right,0.5223,,268.1625,268.1628,,0,,268.1631,268.1633,,1,,1,268.1634,268.1634,268.1636,269.6607,0,11,11,11,1,0.6,0.4,0.8,0.2,1,0,,,,,,,,,,,,,,,,,,,,,,,,,,,,,,,,,,,,
,,61190367632a534f9e11b013,66daf5cf898dc162a3d006cf,2024-09-06_14h32.19.217,mdp,2024.2.1,Win32,60.24096386,66d7945b1baad48e845df3ce,,,,,,,,,,,,,,,,,,,,,269.6609,269.6609,269.6619,270.3935,0,0,left,0.2009,,270.3943,270.3952,,0,,270.3959,270.3961,,1,,1,270.3961,270.3961,270.3965,271.8939,0,12,12,12,1,0.6,0.4,0.8,0.2,1,0,,,,,,,,,,,,,,,,,,,,,,,,,,,,,,,,,,,,
,,61190367632a534f9e11b013,66daf5cf898dc162a3d006cf,2024-09-06_14h32.19.217,mdp,2024.2.1,Win32,60.24096386,66d7945b1baad48e845df3ce,,,,,,,,,,,,,,,,,,,,,271.8946,271.8946,271.8952,272.8436,0,0,left,0.4246,,272.8446,272.8449,,0,,272.8453,272.8455,,0,,1,272.8455,272.8455,272.8457,274.3434,0,13,13,13,1,0.6,0.4,0.8,0.2,1,0,,,,,,,,,,,,,,,,,,,,,,,,,,,,,,,,,,,,
,,61190367632a534f9e11b013,66daf5cf898dc162a3d006cf,2024-09-06_14h32.19.217,mdp,2024.2.1,Win32,60.24096386,66d7945b1baad48e845df3ce,,,,,,,,,,,,,,,,,,,,,274.344,274.344,274.345,276.4416,1,0,right,1.5762,,276.443,276.4436,,0,,276.444,276.4443,,0,,1,276.4443,276.4443,276.4445,277.9418,0,14,14,14,1,0.6,0.4,0.8,0.2,1,0,,,,,,,,,,,,,,,,,,,,,,,,,,,,,,,,,,,,
,,61190367632a534f9e11b013,66daf5cf898dc162a3d006cf,2024-09-06_14h32.19.217,mdp,2024.2.1,Win32,60.24096386,66d7945b1baad48e845df3ce,,,,,,,,,,,,,,,,,,,,,277.9425,277.9425,277.943,279.1415,0,0,left,0.6783,,279.1422,279.1425,,1,,279.1427,279.1429,,0,,1,279.1429,279.1429,279.1431,280.6408,0,15,15,15,1,0.8,0.2,0.4,0.6,1,0,,,,,,,,,,,,,,,,,,,,,,,,,,,,,,,,,,,,
,,61190367632a534f9e11b013,66daf5cf898dc162a3d006cf,2024-09-06_14h32.19.217,mdp,2024.2.1,Win32,60.24096386,66d7945b1baad48e845df3ce,,,,,,,,,,,,,,,,,,,,,280.6416,280.6416,280.6428,281.8571,0,1,left,0.6887,,281.8584,281.8587,,1,,281.8589,281.8592,,0,,0,281.8592,281.8592,281.8594,283.3563,0,16,16,16,1,0.8,0.2,0.4,0.6,1,0,,,,,,,,,,,,,,,,,,,,,,,,,,,,,,,,,,,,
,,61190367632a534f9e11b013,66daf5cf898dc162a3d006cf,2024-09-06_14h32.19.217,mdp,2024.2.1,Win32,60.24096386,66d7945b1baad48e845df3ce,,,,,,,,,,,,,,,,,,,,,283.3569,283.3569,283.3579,284.2896,1,1,right,0.4004,,284.2904,284.2908,,0,,284.2913,284.2915,,0,,0,284.2916,284.2916,284.2917,285.7892,0,17,17,17,1,0.8,0.2,0.4,0.6,1,0,,,,,,,,,,,,,,,,,,,,,,,,,,,,,,,,,,,,
,,61190367632a534f9e11b013,66daf5cf898dc162a3d006cf,2024-09-06_14h32.19.217,mdp,2024.2.1,Win32,60.24096386,66d7945b1baad48e845df3ce,,,,,,,,,,,,,,,,,,,,,285.7896,285.7896,285.7904,286.838,1,1,right,0.5134,,286.8395,286.8399,,0,,286.8403,286.8408,,1,,0,286.8408,286.8408,286.8428,288.3381,0,18,18,18,1,0.8,0.2,0.4,0.6,1,0,,,,,,,,,,,,,,,,,,,,,,,,,,,,,,,,,,,,
,,61190367632a534f9e11b013,66daf5cf898dc162a3d006cf,2024-09-06_14h32.19.217,mdp,2024.2.1,Win32,60.24096386,66d7945b1baad48e845df3ce,,,,,,,,,,,,,,,,,,,,,288.3387,288.3387,288.3394,289.3539,0,0,left,0.4841,,289.3551,289.3554,,0,,289.3558,289.3562,,0,,1,289.3562,289.3562,289.3564,290.8537,0,19,19,19,1,0.8,0.2,0.4,0.6,1,0,,,,,,,,,,,,,,,,,,,,,,,,,,,,,,,,,,,,
,,61190367632a534f9e11b013,66daf5cf898dc162a3d006cf,2024-09-06_14h32.19.217,mdp,2024.2.1,Win32,60.24096386,66d7945b1baad48e845df3ce,,,,,,,,,,,,,,,,,,,,,290.8544,290.8544,290.855,291.8368,0,0,left,0.4513,,291.8378,291.8382,,0,,291.8384,291.8387,,0,,1,291.8387,291.8387,291.8388,293.3369,0,20,20,20,1,0.8,0.2,0.4,0.6,1,0,,,,,,,,,,,,,,,,,,,,,,,,,,,,,,,,,,,,
,,61190367632a534f9e11b013,66daf5cf898dc162a3d006cf,2024-09-06_14h32.19.217,mdp,2024.2.1,Win32,60.24096386,66d7945b1baad48e845df3ce,,,,,,,,,,,,,,,,,,,,,293.3374,293.3374,293.3379,296.4353,1,1,right,2.5722,,296.4414,296.4419,,1,,296.4424,296.4426,,1,,0,296.4426,296.4426,296.4429,297.9345,0,21,21,21,1,0.8,0.2,0.4,0.6,1,0,,,,,,,,,,,,,,,,,,,,,,,,,,,,,,,,,,,,
,,61190367632a534f9e11b013,66daf5cf898dc162a3d006cf,2024-09-06_14h32.19.217,mdp,2024.2.1,Win32,60.24096386,66d7945b1baad48e845df3ce,,,,,,,,,,,,,,,,,,,,,297.9347,297.9347,297.9359,298.884,1,0,right,0.4218,,298.885,298.8857,,1,,298.886,298.8862,,1,,1,298.8863,298.8863,298.8864,300.3836,0,22,22,22,1,0.8,0.2,0.4,0.6,1,0,,,,,,,,,,,,,,,,,,,,,,,,,,,,,,,,,,,,
,,61190367632a534f9e11b013,66daf5cf898dc162a3d006cf,2024-09-06_14h32.19.217,mdp,2024.2.1,Win32,60.24096386,66d7945b1baad48e845df3ce,,,,,,,,,,,,,,,,,,,,,300.3842,300.3842,300.3849,301.2004,1,0,right,0.2868,,301.2014,301.2021,,1,,301.2026,301.2028,,0,,1,301.2028,301.2028,301.203,302.7002,0,23,23,23,1,0.8,0.2,0.4,0.6,1,0,,,,,,,,,,,,,,,,,,,,,,,,,,,,,,,,,,,,
,,61190367632a534f9e11b013,66daf5cf898dc162a3d006cf,2024-09-06_14h32.19.217,mdp,2024.2.1,Win32,60.24096386,66d7945b1baad48e845df3ce,,,,,,,,,,,,,,,,,,,,,302.7007,302.7007,302.7016,303.2993,0,0,left,0.0747,,303.3005,303.3009,,0,,303.3013,303.3016,,1,,1,303.3016,303.3016,303.3018,304.7988,0,24,24,24,1,0.8,0.2,0.4,0.6,1,0,,,,,,,,,,,,,,,,,,,,,,,,,,,,,,,,,,,,
,,61190367632a534f9e11b013,66daf5cf898dc162a3d006cf,2024-09-06_14h32.19.217,mdp,2024.2.1,Win32,60.24096386,66d7945b1baad48e845df3ce,,,,,,,,,,,,,,,,,,,,,304.799,304.799,304.8005,305.9154,0,0,left,0.6015,,305.9165,305.9169,,1,,305.9173,305.9176,,0,,1,305.9176,305.9176,305.9177,307.4152,0,25,25,25,1,0.8,0.2,0.4,0.6,1,0,,,,,,,,,,,,,,,,,,,,,,,,,,,,,,,,,,,,
,,61190367632a534f9e11b013,66daf5cf898dc162a3d006cf,2024-09-06_14h32.19.217,mdp,2024.2.1,Win32,60.24096386,66d7945b1baad48e845df3ce,,,,,,,,,,,,,,,,,,,,,307.4158,307.4158,307.4163,308.0147,1,1,right,0.0656,,308.0158,308.0164,,0,,308.017,308.0172,,0,,0,308.0172,308.0172,308.0175,309.5137,0,26,26,26,1,0.8,0.2,0.4,0.6,1,0,,,,,,,,,,,,,,,,,,,,,,,,,,,,,,,,,,,,
,,61190367632a534f9e11b013,66daf5cf898dc162a3d006cf,2024-09-06_14h32.19.217,mdp,2024.2.1,Win32,60.24096386,66d7945b1baad48e845df3ce,,,,,,,,,,,,,,,,,,,,,309.514,309.514,309.5149,311.9304,1,0,right,1.9016,,311.9324,311.9331,,0,,311.9335,311.9338,,1,,1,311.9339,311.9339,311.9341,313.4295,0,27,27,27,1,0.8,0.2,0.4,0.6,1,0,,,,,,,,,,,,,,,,,,,,,,,,,,,,,,,,,,,,
,,61190367632a534f9e11b013,66daf5cf898dc162a3d006cf,2024-09-06_14h32.19.217,mdp,2024.2.1,Win32,60.24096386,66d7945b1baad48e845df3ce,,,,,,,,,,,,,,,,,,,,,313.4302,313.4302,313.4314,314.0622,1,1,right,0.1053,,314.0633,314.0636,,0,,314.0638,314.0641,,1,,0,314.0641,314.0641,314.0642,315.5621,0,28,28,28,1,0.8,0.2,0.4,0.6,1,0,,,,,,,,,,,,,,,,,,,,,,,,,,,,,,,,,,,,
,,61190367632a534f9e11b013,66daf5cf898dc162a3d006cf,2024-09-06_14h32.19.217,mdp,2024.2.1,Win32,60.24096386,66d7945b1baad48e845df3ce,,,,,,,,,,,,,,,,,,,,,315.5627,315.5627,315.5634,316.2617,0,0,left,0.1668,,316.2628,316.2631,,1,,316.2634,316.2636,,0,,1,316.2636,316.2636,316.2638,317.7612,0,29,29,29,1,0.8,0.2,0.4,0.6,1,0,,,,,,,,,,,,,,,,,,,,,,,,,,,,,,,,,,,,
,,61190367632a534f9e11b013,66daf5cf898dc162a3d006cf,2024-09-06_14h32.19.217,mdp,2024.2.1,Win32,60.24096386,66d7945b1baad48e845df3ce,,,,,,,,,,,,,,,,,,,,,317.7617,317.7617,317.7624,318.4938,0,0,left,0.2041,,318.4946,318.4957,,0,,318.4961,318.4963,,0,,1,318.4963,318.4963,318.4965,319.9939,0,30,30,30,1,0.8,0.2,0.4,0.6,1,0,,,,,,,,,,,,,,,,,,,,,,,,,,,,,,,,,,,,
,,61190367632a534f9e11b013,66daf5cf898dc162a3d006cf,2024-09-06_14h32.19.217,mdp,2024.2.1,Win32,60.24096386,66d7945b1baad48e845df3ce,,,,,,,,,,,,,,,,,,,,,319.9947,319.9948,319.9953,320.7439,0,1,left,0.2158,,320.7458,320.7468,,0,,320.7472,320.7474,,0,,0,320.7474,320.7474,320.7477,322.2434,0,31,31,31,1,0.8,0.2,0.4,0.6,1,0,,,,,,,,,,,,,,,,,,,,,,,,,,,,,,,,,,,,
,,61190367632a534f9e11b013,66daf5cf898dc162a3d006cf,2024-09-06_14h32.19.217,mdp,2024.2.1,Win32,60.24096386,66d7945b1baad48e845df3ce,,,,,,,,,,,,,,,,,,,,,322.2443,322.2443,322.245,323.5423,1,1,right,0.7758,,323.5435,323.5438,,1,,323.5441,323.5443,,1,,0,323.5443,323.5443,323.5445,325.0419,0,32,32,32,1,0.8,0.2,0.4,0.6,1,0,,,,,,,,,,,,,,,,,,,,,,,,,,,,,,,,,,,,
,,61190367632a534f9e11b013,66daf5cf898dc162a3d006cf,2024-09-06_14h32.19.217,mdp,2024.2.1,Win32,60.24096386,66d7945b1baad48e845df3ce,,,,,,,,,,,,,,,,,,,,,325.0424,325.0424,325.0438,325.7591,1,1,right,0.1955,,325.7597,325.76,,1,,325.7604,325.7606,,1,,0,325.7606,325.7606,325.7608,327.2577,0,33,33,33,1,0.8,0.2,0.4,0.6,1,0,,,,,,,,,,,,,,,,,,,,,,,,,,,,,,,,,,,,
,,61190367632a534f9e11b013,66daf5cf898dc162a3d006cf,2024-09-06_14h32.19.217,mdp,2024.2.1,Win32,60.24096386,66d7945b1baad48e845df3ce,,,,,,,,,,,,,,,,,,,,,327.2581,327.2581,327.2593,328.1578,0,0,left,0.3745,,328.1592,328.1605,,0,,328.1609,328.1611,,1,,1,328.1611,328.1611,328.1613,329.6575,0,34,34,34,1,0.6,0.4,0.2,0.8,1,0,,,,,,,,,,,,,,,,,,,,,,,,,,,,,,,,,,,,
,,61190367632a534f9e11b013,66daf5cf898dc162a3d006cf,2024-09-06_14h32.19.217,mdp,2024.2.1,Win32,60.24096386,66d7945b1baad48e845df3ce,,,,,,,,,,,,,,,,,,,,,329.6582,329.6582,329.6586,330.44,0,1,left,0.2547,,330.4415,330.4418,,0,,330.442,330.4421,,1,,0,330.4422,330.4422,330.4424,331.9394,0,35,35,35,1,0.4,0.6,0.6,0.4,1,0,,,,,,,,,,,,,,,,,,,,,,,,,,,,,,,,,,,,
,,61190367632a534f9e11b013,66daf5cf898dc162a3d006cf,2024-09-06_14h32.19.217,mdp,2024.2.1,Win32,60.24096386,66d7945b1baad48e845df3ce,,,,,,,,,,,,,,,,,,,,,331.9401,331.9401,331.9412,336.1378,1,1,right,3.6666,,336.1438,336.1442,,0,,336.1445,336.1448,,1,,0,336.1448,336.1448,336.145,337.6376,0,36,36,36,1,0.4,0.6,0.6,0.4,1,0,,,,,,,,,,,,,,,,,,,,,,,,,,,,,,,,,,,,
,,61190367632a534f9e11b013,66daf5cf898dc162a3d006cf,2024-09-06_14h32.19.217,mdp,2024.2.1,Win32,60.24096386,66d7945b1baad48e845df3ce,,,,,,,,,,,,,,,,,,,,,337.6378,337.6378,337.6384,338.8372,0,1,left,0.6662,,338.8384,338.8389,,0,,338.8392,338.8393,,1,,0,338.8394,338.8394,338.8396,340.3371,0,37,37,37,1,0.2,0.8,0.8,0.2,1,0,,,,,,,,,,,,,,,,,,,,,,,,,,,,,,,,,,,,
,,61190367632a534f9e11b013,66daf5cf898dc162a3d006cf,2024-09-06_14h32.19.217,mdp,2024.2.1,Win32,60.24096386,66d7945b1baad48e845df3ce,,,,,,,,,,,,,,,,,,,,,340.3377,340.3377,340.3385,341.2041,0,1,left,0.3343,,341.2049,341.2052,,1,,341.2056,341.2059,,0,,0,341.2059,341.2059,341.2061,342.703,0,38,38,38,1,0.2,0.8,0.8,0.2,1,0,,,,,,,,,,,,,,,,,,,,,,,,,,,,,,,,,,,,
,,61190367632a534f9e11b013,66daf5cf898dc162a3d006cf,2024-09-06_14h32.19.217,mdp,2024.2.1,Win32,60.24096386,66d7945b1baad48e845df3ce,,,,,,,,,,,,,,,,,,,,,342.7036,342.7036,342.7041,343.7361,0,1,left,0.5175,,343.737,343.7377,,1,,343.7382,343.7387,,0,,0,343.7388,343.7388,343.7391,345.2353,0,39,39,39,1,0.2,0.8,0.8,0.2,1,0,,,,,,,,,,,,,,,,,,,,,,,,,,,,,,,,,,,,
,,61190367632a534f9e11b013,66daf5cf898dc162a3d006cf,2024-09-06_14h32.19.217,mdp,2024.2.1,Win32,60.24096386,66d7945b1baad48e845df3ce,,,,,,,,,,,,,,,,,,,,,345.2359,345.2359,345.2376,346.1852,1,1,right,0.4175,,346.1862,346.1865,,0,,346.1868,346.1869,,1,,0,346.1869,346.1869,346.187,347.684,0,40,40,40,1,0.8,0.2,0.2,0.8,1,0,,,,,,,,,,,,,,,,,,,,,,,,,,,,,,,,,,,,
,,61190367632a534f9e11b013,66daf5cf898dc162a3d006cf,2024-09-06_14h32.19.217,mdp,2024.2.1,Win32,60.24096386,66d7945b1baad48e845df3ce,,,,,,,,,,,,,,,,,,,,,347.6846,347.6846,347.6858,348.9174,0,0,left,0.7024,,348.9186,348.9189,,0,,348.9194,348.9196,,0,,1,348.9196,348.9196,348.9198,350.4166,0,41,41,41,1,0.8,0.2,0.2,0.8,1,0,,,,,,,,,,,,,,,,,,,,,,,,,,,,,,,,,,,,
,,61190367632a534f9e11b013,66daf5cf898dc162a3d006cf,2024-09-06_14h32.19.217,mdp,2024.2.1,Win32,60.24096386,66d7945b1baad48e845df3ce,,,,,,,,,,,,,,,,,,,,,350.4171,350.4171,350.4181,351.3005,0,0,left,0.3499,,351.3013,351.3018,,0,,351.3022,351.3025,,0,,1,351.3025,351.3025,351.3029,352.7998,0,42,42,42,1,0.8,0.2,0.2,0.8,1,0,,,,,,,,,,,,,,,,,,,,,,,,,,,,,,,,,,,,
,,61190367632a534f9e11b013,66daf5cf898dc162a3d006cf,2024-09-06_14h32.19.217,mdp,2024.2.1,Win32,60.24096386,66d7945b1baad48e845df3ce,,,,,,,,,,,,,,,,,,,,,352.8004,352.8004,352.8014,353.7324,0,0,left,0.401,,353.7335,353.7338,,0,,353.7341,353.7343,,1,,1,353.7343,353.7343,353.7344,355.2325,0,43,43,43,1,0.8,0.2,0.2,0.8,1,0,,,,,,,,,,,,,,,,,,,,,,,,,,,,,,,,,,,,
,,61190367632a534f9e11b013,66daf5cf898dc162a3d006cf,2024-09-06_14h32.19.217,mdp,2024.2.1,Win32,60.24096386,66d7945b1baad48e845df3ce,,,,,,,,,,,,,,,,,,,,,355.2331,355.2331,355.2343,356.0816,0,0,left,0.3201,,356.0825,356.0829,,0,,356.0832,356.0835,,0,,1,356.0835,356.0835,356.0836,357.5811,0,44,44,44,1,0.8,0.2,0.2,0.8,1,0,,,,,,,,,,,,,,,,,,,,,,,,,,,,,,,,,,,,
,,61190367632a534f9e11b013,66daf5cf898dc162a3d006cf,2024-09-06_14h32.19.217,mdp,2024.2.1,Win32,60.24096386,66d7945b1baad48e845df3ce,,,,,,,,,,,,,,,,,,,,,357.5818,357.5818,357.5824,358.4302,0,0,left,0.322,,358.4318,358.4324,,0,,358.4329,358.4331,,1,,1,358.4331,358.4331,358.4337,359.9302,0,45,45,45,1,0.8,0.2,0.2,0.8,1,0,,,,,,,,,,,,,,,,,,,,,,,,,,,,,,,,,,,,
,,61190367632a534f9e11b013,66daf5cf898dc162a3d006cf,2024-09-06_14h32.19.217,mdp,2024.2.1,Win32,60.24096386,66d7945b1baad48e845df3ce,,,,,,,,,,,,,,,,,,,,,359.9313,359.9313,359.9324,360.7636,0,0,left,0.3027,,360.7645,360.7649,,1,,360.7653,360.7655,,0,,1,360.7656,360.7656,360.7657,362.2626,0,46,46,46,1,0.8,0.2,0.2,0.8,1,0,,,,,,,,,,,,,,,,,,,,,,,,,,,,,,,,,,,,
,,61190367632a534f9e11b013,66daf5cf898dc162a3d006cf,2024-09-06_14h32.19.217,mdp,2024.2.1,Win32,60.24096386,66d7945b1baad48e845df3ce,,,,,,,,,,,,,,,,,,,,,362.2635,362.2635,362.2649,362.9625,0,1,left,0.168,,362.9636,362.9641,,1,,362.965,362.9654,,0,,0,362.9654,362.9654,362.9656,364.4621,0,47,47,47,1,0.2,0.8,0.8,0.2,1,0,,,,,,,,,,,,,,,,,,,,,,,,,,,,,,,,,,,,
,,61190367632a534f9e11b013,66daf5cf898dc162a3d006cf,2024-09-06_14h32.19.217,mdp,2024.2.1,Win32,60.24096386,66d7945b1baad48e845df3ce,,,,,,,,,,,,,,,,,,,,,364.4628,364.4628,364.4634,365.928,1,0,right,0.9364,,365.9295,365.9306,,0,,365.9316,365.9322,,0,,1,365.9323,365.9323,365.9329,367.427,0,48,48,48,1,0.2,0.8,0.8,0.2,1,0,,,,,,,,,,,,,,,,,,,,,,,,,,,,,,,,,,,,
,,61190367632a534f9e11b013,66daf5cf898dc162a3d006cf,2024-09-06_14h32.19.217,mdp,2024.2.1,Win32,60.24096386,66d7945b1baad48e845df3ce,,,,,,,,,,,,,,,,,,,,,367.4276,367.4276,367.4293,369.0599,1,0,right,1.102,,369.0603,369.0613,,1,,369.0621,369.0627,,0,,1,369.0627,369.0628,369.0633,370.5605,0,49,49,49,1,0.2,0.8,0.8,0.2,1,0,,,,,,,,,,,,,,,,,,,,,,,,,,,,,,,,,,,,
,,61190367632a534f9e11b013,66daf5cf898dc162a3d006cf,2024-09-06_14h32.19.217,mdp,2024.2.1,Win32,60.24096386,66d7945b1baad48e845df3ce,,,,,,,,,,,,,,,,,,,,,,,,,,,,,,,,,,,,,,,,,,,,,,,,,,,,,,,,370.5611,429.0737,0,0,0,1,1,imgs/goat.png,imgs/pig.png,imgs/squirrel.png,imgs/dog.png,imgs/cat.png,,,,,,,,,,,,,,,,,,,,,,,,
,,61190367632a534f9e11b013,66daf5cf898dc162a3d006cf,2024-09-06_14h32.19.217,mdp,2024.2.1,Win32,60.24096386,66d7945b1baad48e845df3ce,,,,,,,,,,,,,,2,seqs/st2seq7.csv,429.08,432.3062,space,2.7108,,432.3088,432.3088,432.3093,435.637,0,1,left,2.7926,,435.6431,439.2529,1,1,right,439.2584,439.2587,,0,,0,439.2588,439.2588,439.259,440.7524,0,0,0,0,1,0.8,0.2,0.2,0.8,,,,,,,,,,,,,,,3.0682,,0.2,0.8,0.8,0.2,0.8,0.2,0.4,0.6,1,0,,,,,,,,,,,,
,,61190367632a534f9e11b013,66daf5cf898dc162a3d006cf,2024-09-06_14h32.19.217,mdp,2024.2.1,Win32,60.24096386,66d7945b1baad48e845df3ce,,,,,,,,,,,,,,,,,,,,,440.753,440.753,440.7538,442.6178,0,1,left,1.3342,,442.6191,443.8686,0,0,left,443.8703,443.8711,,0,,1,443.8712,443.8712,443.8716,445.3676,0,1,1,1,1,0.4,0.6,0.6,0.4,,,,,,,,,,,,,,,0.7332,,0.2,0.8,0.8,0.2,0.8,0.2,0.4,0.6,1,0,,,,,,,,,,,,
,,61190367632a534f9e11b013,66daf5cf898dc162a3d006cf,2024-09-06_14h32.19.217,mdp,2024.2.1,Win32,60.24096386,66d7945b1baad48e845df3ce,,,,,,,,,,,,,,,,,,,,,445.3683,445.3683,445.3689,446.5177,0,1,left,0.6172,,446.5184,447.7338,0,0,left,447.7353,447.736,,1,,1,447.736,447.736,447.7366,449.2333,0,2,2,2,1,0.4,0.6,0.6,0.4,,,,,,,,,,,,,,,0.6837,,0.2,0.8,0.8,0.2,0.8,0.2,0.4,0.6,1,0,,,,,,,,,,,,
,,61190367632a534f9e11b013,66daf5cf898dc162a3d006cf,2024-09-06_14h32.19.217,mdp,2024.2.1,Win32,60.24096386,66d7945b1baad48e845df3ce,,,,,,,,,,,,,,,,,,,,,449.234,449.234,449.2345,450.3996,0,0,left,0.6425,,450.4006,451.3158,0,1,left,451.317,451.3173,,1,,0,451.3173,451.3173,451.3177,452.816,0,3,3,3,1,0.4,0.6,0.6,0.4,,,,,,,,,,,,,,,0.3671,,0.2,0.8,0.8,0.2,0.8,0.2,0.4,0.6,1,0,,,,,,,,,,,,
,,61190367632a534f9e11b013,66daf5cf898dc162a3d006cf,2024-09-06_14h32.19.217,mdp,2024.2.1,Win32,60.24096386,66d7945b1baad48e845df3ce,,,,,,,,,,,,,,,,,,,,,452.8166,452.8166,452.8175,454.5646,0,1,left,1.2217,,454.566,455.9974,0,0,left,455.9985,455.9987,,0,,1,455.9988,455.9988,455.999,457.497,0,4,4,4,1,0.4,0.6,0.6,0.4,,,,,,,,,,,,,,,0.8842,,0.2,0.8,0.8,0.2,0.8,0.2,0.4,0.6,1,0,,,,,,,,,,,,
,,61190367632a534f9e11b013,66daf5cf898dc162a3d006cf,2024-09-06_14h32.19.217,mdp,2024.2.1,Win32,60.24096386,66d7945b1baad48e845df3ce,,,,,,,,,,,,,,,,,,,,,457.4978,457.4978,457.4996,458.38,0,0,left,0.3571,,458.381,459.4624,1,0,right,459.4639,459.4646,,0,,1,459.4647,459.4647,459.465,460.9621,0,5,5,5,1,0.4,0.6,0.6,0.4,,,,,,,,,,,,,,,0.5367,,0.2,0.8,0.8,0.2,0.8,0.2,0.4,0.6,1,0,,,,,,,,,,,,
,,61190367632a534f9e11b013,66daf5cf898dc162a3d006cf,2024-09-06_14h32.19.217,mdp,2024.2.1,Win32,60.24096386,66d7945b1baad48e845df3ce,,,,,,,,,,,,,,,,,,,,,460.9623,460.9623,460.9631,461.9618,0,1,left,0.4689,,461.9629,463.2618,0,0,left,463.2628,463.2634,,0,,1,463.2634,463.2634,463.2638,464.7613,0,6,6,6,1,0.4,0.6,0.6,0.4,,,,,,,,,,,,,,,0.7515,,0.2,0.8,0.8,0.2,0.8,0.2,0.4,0.6,1,0,,,,,,,,,,,,
,,61190367632a534f9e11b013,66daf5cf898dc162a3d006cf,2024-09-06_14h32.19.217,mdp,2024.2.1,Win32,60.24096386,66d7945b1baad48e845df3ce,,,,,,,,,,,,,,,,,,,,,464.7618,464.7618,464.7624,465.7444,0,1,left,0.4497,,465.7454,467.0767,0,0,left,467.0781,467.0786,,0,,1,467.0787,467.0787,467.079,468.5763,0,7,7,7,1,0.2,0.8,0.8,0.2,,,,,,,,,,,,,,,0.7995,,0.2,0.8,0.8,0.2,0.8,0.2,0.4,0.6,1,0,,,,,,,,,,,,
,,61190367632a534f9e11b013,66daf5cf898dc162a3d006cf,2024-09-06_14h32.19.217,mdp,2024.2.1,Win32,60.24096386,66d7945b1baad48e845df3ce,,,,,,,,,,,,,,,,,,,,,468.577,468.577,468.5776,469.4928,0,0,left,0.3899,,469.4939,470.5591,1,0,right,470.5605,470.5612,,0,,1,470.5613,470.5613,470.5618,472.0584,0,8,8,8,1,0.2,0.8,0.8,0.2,,,,,,,,,,,,,,,0.5228,,0.2,0.8,0.8,0.2,0.8,0.2,0.4,0.6,1,0,,,,,,,,,,,,
,,61190367632a534f9e11b013,66daf5cf898dc162a3d006cf,2024-09-06_14h32.19.217,mdp,2024.2.1,Win32,60.24096386,66d7945b1baad48e845df3ce,,,,,,,,,,,,,,,,,,,,,472.0587,472.0587,472.0598,473.0245,0,0,left,0.4328,,473.0256,474.1074,1,0,right,474.1087,474.109,,0,,1,474.109,474.109,474.1092,475.6077,0,9,9,9,1,0.2,0.8,0.8,0.2,,,,,,,,,,,,,,,0.5598,,0.2,0.8,0.8,0.2,0.8,0.2,0.4,0.6,1,0,,,,,,,,,,,,
,,61190367632a534f9e11b013,66daf5cf898dc162a3d006cf,2024-09-06_14h32.19.217,mdp,2024.2.1,Win32,60.24096386,66d7945b1baad48e845df3ce,,,,,,,,,,,,,,,,,,,,,475.6085,475.6085,475.61,476.6067,0,0,left,0.4698,,476.6081,477.5396,1,1,right,477.5419,477.5429,,0,,0,477.5429,477.5429,477.5436,479.04,0,10,10,10,1,0.2,0.8,0.8,0.2,,,,,,,,,,,,,,,0.411,,0.2,0.8,0.8,0.2,0.8,0.2,0.4,0.6,1,0,,,,,,,,,,,,
,,61190367632a534f9e11b013,66daf5cf898dc162a3d006cf,2024-09-06_14h32.19.217,mdp,2024.2.1,Win32,60.24096386,66d7945b1baad48e845df3ce,,,,,,,,,,,,,,,,,,,,,479.0405,479.0405,479.0412,480.0889,0,1,left,0.5202,,480.0905,481.1882,0,0,left,481.1897,481.1899,,0,,1,481.19,481.19,481.1902,482.6887,0,11,11,11,1,0.2,0.8,0.8,0.2,,,,,,,,,,,,,,,0.5602,,0.4,0.6,0.6,0.4,0.8,0.2,0.4,0.6,1,0,,,,,,,,,,,,
,,61190367632a534f9e11b013,66daf5cf898dc162a3d006cf,2024-09-06_14h32.19.217,mdp,2024.2.1,Win32,60.24096386,66d7945b1baad48e845df3ce,,,,,,,,,,,,,,,,,,,,,482.6895,482.6895,482.6912,483.638,0,0,left,0.419,,483.6391,484.8044,1,0,right,484.8053,484.8058,,0,,1,484.8059,484.8059,484.8064,486.3034,0,12,12,12,1,0.2,0.8,0.8,0.2,,,,,,,,,,,,,,,0.616,,0.4,0.6,0.6,0.4,0.8,0.2,0.4,0.6,1,0,,,,,,,,,,,,
,,61190367632a534f9e11b013,66daf5cf898dc162a3d006cf,2024-09-06_14h32.19.217,mdp,2024.2.1,Win32,60.24096386,66d7945b1baad48e845df3ce,,,,,,,,,,,,,,,,,,,,,486.304,486.3041,486.305,487.3202,0,1,left,0.4832,,487.3217,488.6358,0,0,left,488.6367,488.6375,,0,,1,488.6375,488.6375,488.6378,490.1358,0,13,13,13,1,0.2,0.8,0.8,0.2,,,,,,,,,,,,,,,0.7734,,0.4,0.6,0.6,0.4,0.8,0.2,0.4,0.6,1,0,,,,,,,,,,,,
,,61190367632a534f9e11b013,66daf5cf898dc162a3d006cf,2024-09-06_14h32.19.217,mdp,2024.2.1,Win32,60.24096386,66d7945b1baad48e845df3ce,,,,,,,,,,,,,,,,,,,,,490.1368,490.1369,490.1382,491.1352,0,1,left,0.467,,491.1369,492.3516,0,0,left,492.3529,492.3532,,0,,1,492.3532,492.3532,492.3535,493.8507,0,14,14,14,1,0.2,0.8,0.8,0.2,,,,,,,,,,,,,,,0.6851,,0.4,0.6,0.6,0.4,0.8,0.2,0.4,0.6,1,0,,,,,,,,,,,,
,,61190367632a534f9e11b013,66daf5cf898dc162a3d006cf,2024-09-06_14h32.19.217,mdp,2024.2.1,Win32,60.24096386,66d7945b1baad48e845df3ce,,,,,,,,,,,,,,,,,,,,,493.8508,493.8508,493.8516,494.7841,0,0,left,0.4163,,494.7853,495.7665,1,1,right,495.7679,495.7682,,1,,0,495.7683,495.7683,495.7686,497.2668,0,15,15,15,1,0.2,0.8,0.8,0.2,,,,,,,,,,,,,,,0.4433,,0.4,0.6,0.6,0.4,0.8,0.2,0.4,0.6,1,0,,,,,,,,,,,,
,,61190367632a534f9e11b013,66daf5cf898dc162a3d006cf,2024-09-06_14h32.19.217,mdp,2024.2.1,Win32,60.24096386,66d7945b1baad48e845df3ce,,,,,,,,,,,,,,,,,,,,,497.2674,497.2675,497.2683,498.1155,0,1,left,0.3262,,498.1164,499.1997,0,0,left,499.2011,499.2019,,0,,1,499.2019,499.2019,499.2026,500.6985,0,16,16,16,1,0.2,0.8,0.8,0.2,,,,,,,,,,,,,,,0.5512,,0.4,0.6,0.6,0.4,0.8,0.2,0.4,0.6,1,0,,,,,,,,,,,,
,,61190367632a534f9e11b013,66daf5cf898dc162a3d006cf,2024-09-06_14h32.19.217,mdp,2024.2.1,Win32,60.24096386,66d7945b1baad48e845df3ce,,,,,,,,,,,,,,,,,,,,,500.699,500.699,500.6999,501.6153,0,1,left,0.3876,,501.6168,502.6481,0,0,left,502.6492,502.65,,1,,1,502.6501,502.6501,502.6506,504.1475,0,17,17,17,1,0.2,0.8,0.8,0.2,,,,,,,,,,,,,,,0.5091,,0.4,0.6,0.6,0.4,0.8,0.2,0.4,0.6,1,0,,,,,,,,,,,,
,,61190367632a534f9e11b013,66daf5cf898dc162a3d006cf,2024-09-06_14h32.19.217,mdp,2024.2.1,Win32,60.24096386,66d7945b1baad48e845df3ce,,,,,,,,,,,,,,,,,,,,,504.1481,504.1481,504.1493,504.9978,0,1,left,0.3164,,504.9988,506.0629,0,0,left,506.0642,506.0646,,0,,1,506.0646,506.0646,506.0648,507.5636,0,18,18,18,1,0.2,0.8,0.8,0.2,,,,,,,,,,,,,,,0.542,,0.4,0.6,0.6,0.4,0.8,0.2,0.4,0.6,1,0,,,,,,,,,,,,
,,61190367632a534f9e11b013,66daf5cf898dc162a3d006cf,2024-09-06_14h32.19.217,mdp,2024.2.1,Win32,60.24096386,66d7945b1baad48e845df3ce,,,,,,,,,,,,,,,,,,,,,507.5643,507.5643,507.5653,508.4127,0,0,left,0.326,,508.4138,509.9451,1,0,right,509.9465,509.9467,,1,,1,509.9468,509.9468,509.9469,511.4451,0,19,19,19,1,0.2,0.8,0.8,0.2,,,,,,,,,,,,,,,0.9896,,0.4,0.6,0.6,0.4,0.8,0.2,0.4,0.6,1,0,,,,,,,,,,,,
,,61190367632a534f9e11b013,66daf5cf898dc162a3d006cf,2024-09-06_14h32.19.217,mdp,2024.2.1,Win32,60.24096386,66d7945b1baad48e845df3ce,,,,,,,,,,,,,,,,,,,,,511.4455,511.4455,511.4461,512.261,0,0,left,0.2883,,512.2622,513.4605,0,0,left,513.4615,513.4624,,1,,1,513.4624,513.4624,513.4627,514.9607,0,20,20,20,1,0.8,0.2,0.2,0.8,,,,,,,,,,,,,,,0.6788,,0.4,0.6,0.6,0.4,0.8,0.2,0.4,0.6,1,0,,,,,,,,,,,,
,,61190367632a534f9e11b013,66daf5cf898dc162a3d006cf,2024-09-06_14h32.19.217,mdp,2024.2.1,Win32,60.24096386,66d7945b1baad48e845df3ce,,,,,,,,,,,,,,,,,,,,,514.9613,514.9613,514.9618,515.81,0,0,left,0.319,,515.8112,517.3096,0,1,left,517.3112,517.3116,,1,,0,517.3116,517.3117,517.3122,518.8095,0,21,21,21,1,0.8,0.2,0.2,0.8,,,,,,,,,,,,,,,0.9667,,0.4,0.6,0.6,0.4,0.8,0.2,0.4,0.6,1,0,,,,,,,,,,,,
,,61190367632a534f9e11b013,66daf5cf898dc162a3d006cf,2024-09-06_14h32.19.217,mdp,2024.2.1,Win32,60.24096386,66d7945b1baad48e845df3ce,,,,,,,,,,,,,,,,,,,,,518.8102,518.8102,518.8107,519.9757,0,0,left,0.6369,,519.9765,521.6245,1,0,right,521.6259,521.6262,,0,,1,521.6262,521.6262,521.6266,523.1239,0,22,22,22,1,0.8,0.2,0.2,0.8,,,,,,,,,,,,,,,1.1239,,0.4,0.6,0.6,0.4,0.8,0.2,0.4,0.6,1,0,,,,,,,,,,,,
,,61190367632a534f9e11b013,66daf5cf898dc162a3d006cf,2024-09-06_14h32.19.217,mdp,2024.2.1,Win32,60.24096386,66d7945b1baad48e845df3ce,,,,,,,,,,,,,,,,,,,,,523.124,523.124,523.1245,523.9572,0,0,left,0.3262,,523.9583,525.0068,1,0,right,525.0082,525.0088,,0,,1,525.0088,525.0088,525.0091,526.5068,0,23,23,23,1,0.8,0.2,0.2,0.8,,,,,,,,,,,,,,,0.5183,,0.4,0.6,0.6,0.4,0.8,0.2,0.4,0.6,1,0,,,,,,,,,,,,
,,61190367632a534f9e11b013,66daf5cf898dc162a3d006cf,2024-09-06_14h32.19.217,mdp,2024.2.1,Win32,60.24096386,66d7945b1baad48e845df3ce,,,,,,,,,,,,,,,,,,,,,526.5074,526.5074,526.5082,527.3391,0,0,left,0.3057,,527.3395,528.3728,0,1,left,528.3742,528.3748,,1,,0,528.3749,528.3749,528.3754,529.8717,0,24,24,24,1,0.8,0.2,0.2,0.8,,,,,,,,,,,,,,,0.516,,0.4,0.6,0.6,0.4,0.8,0.2,0.4,0.6,1,0,,,,,,,,,,,,
,,61190367632a534f9e11b013,66daf5cf898dc162a3d006cf,2024-09-06_14h32.19.217,mdp,2024.2.1,Win32,60.24096386,66d7945b1baad48e845df3ce,,,,,,,,,,,,,,,,,,,,,529.8723,529.8723,529.8731,530.7887,0,0,left,0.3877,,530.79,531.7877,1,0,right,531.7894,531.7903,,0,,1,531.7904,531.7904,531.7908,533.2876,0,25,25,25,1,0.8,0.2,0.2,0.8,,,,,,,,,,,,,,,0.4758,,0.4,0.6,0.6,0.4,0.2,0.8,0.2,0.8,1,0,,,,,,,,,,,,
,,61190367632a534f9e11b013,66daf5cf898dc162a3d006cf,2024-09-06_14h32.19.217,mdp,2024.2.1,Win32,60.24096386,66d7945b1baad48e845df3ce,,,,,,,,,,,,,,,,,,,,,533.288,533.288,533.2886,534.0871,0,0,left,0.2694,,534.0882,535.7869,1,1,right,535.7883,535.7889,,0,,0,535.7889,535.7889,535.7891,537.2866,0,26,26,26,1,0.8,0.2,0.2,0.8,,,,,,,,,,,,,,,1.1506,,0.4,0.6,0.6,0.4,0.2,0.8,0.2,0.8,1,0,,,,,,,,,,,,
,,61190367632a534f9e11b013,66daf5cf898dc162a3d006cf,2024-09-06_14h32.19.217,mdp,2024.2.1,Win32,60.24096386,66d7945b1baad48e845df3ce,,,,,,,,,,,,,,,,,,,,,537.2871,537.2871,537.2877,538.3023,0,0,left,0.4834,,538.3036,541.4013,0,0,left,541.4084,541.4087,,1,,1,541.4088,541.4088,541.409,542.9012,0,27,27,27,1,0.8,0.2,0.2,0.8,,,,,,,,,,,,,,,2.5641,,0.4,0.6,0.6,0.4,0.2,0.8,0.2,0.8,1,0,,,,,,,,,,,,
,,61190367632a534f9e11b013,66daf5cf898dc162a3d006cf,2024-09-06_14h32.19.217,mdp,2024.2.1,Win32,60.24096386,66d7945b1baad48e845df3ce,,,,,,,,,,,,,,,,,,,,,542.902,542.902,542.9026,543.7505,0,1,left,0.3259,,543.7517,544.7997,0,0,left,544.8005,544.8017,,1,,1,544.8017,544.8017,544.8019,546.3,0,28,28,28,1,0.8,0.2,0.2,0.8,,,,,,,,,,,,,,,0.5006,,0.4,0.6,0.6,0.4,0.2,0.8,0.2,0.8,1,0,,,,,,,,,,,,
,,61190367632a534f9e11b013,66daf5cf898dc162a3d006cf,2024-09-06_14h32.19.217,mdp,2024.2.1,Win32,60.24096386,66d7945b1baad48e845df3ce,,,,,,,,,,,,,,,,,,,,,546.3008,546.3008,546.3021,547.1331,0,0,left,0.3017,,547.1344,548.2153,1,0,right,548.2167,548.2171,,0,,1,548.2171,548.2171,548.2174,549.7155,0,29,29,29,1,0.8,0.2,0.2,0.8,,,,,,,,,,,,,,,0.5416,,0.4,0.6,0.6,0.4,0.2,0.8,0.2,0.8,1,0,,,,,,,,,,,,
,,61190367632a534f9e11b013,66daf5cf898dc162a3d006cf,2024-09-06_14h32.19.217,mdp,2024.2.1,Win32,60.24096386,66d7945b1baad48e845df3ce,,,,,,,,,,,,,,,,,,,,,549.7162,549.7162,549.717,552.0972,0,0,left,1.8346,,552.0989,554.7303,1,0,right,554.7332,554.7343,,0,,1,554.7344,554.7344,554.7352,556.2298,0,30,30,30,1,0.8,0.2,0.2,0.8,,,,,,,,,,,,,,,2.124,,0.4,0.6,0.6,0.4,0.2,0.8,0.2,0.8,1,0,,,,,,,,,,,,
,,61190367632a534f9e11b013,66daf5cf898dc162a3d006cf,2024-09-06_14h32.19.217,mdp,2024.2.1,Win32,60.24096386,66d7945b1baad48e845df3ce,,,,,,,,,,,,,,,,,,,,,556.2304,556.2304,556.2312,557.1127,0,0,left,0.3507,,557.1139,558.3453,1,1,right,558.3467,558.347,,0,,0,558.347,558.347,558.3473,559.8451,0,31,31,31,1,0.8,0.2,0.2,0.8,,,,,,,,,,,,,,,0.7081,,0.4,0.6,0.6,0.4,0.2,0.8,0.2,0.8,1,0,,,,,,,,,,,,
,,61190367632a534f9e11b013,66daf5cf898dc162a3d006cf,2024-09-06_14h32.19.217,mdp,2024.2.1,Win32,60.24096386,66d7945b1baad48e845df3ce,,,,,,,,,,,,,,,,,,,,,559.8459,559.8459,559.8473,560.7777,0,0,left,0.4055,,560.7786,563.227,0,1,left,563.2337,563.2341,,1,,0,563.2341,563.2341,563.2343,564.7271,0,32,32,32,1,0.8,0.2,0.2,0.8,,,,,,,,,,,,,,,1.9158,,0.4,0.6,0.6,0.4,0.2,0.8,0.2,0.8,1,0,,,,,,,,,,,,
,,61190367632a534f9e11b013,66daf5cf898dc162a3d006cf,2024-09-06_14h32.19.217,mdp,2024.2.1,Win32,60.24096386,66d7945b1baad48e845df3ce,,,,,,,,,,,,,,,,,,,,,564.728,564.728,564.7285,565.6593,0,1,left,0.4092,,565.6607,566.7931,0,1,left,566.7943,566.7946,,1,,0,566.7946,566.7946,566.795,568.2923,0,33,33,33,1,0.8,0.2,0.2,0.8,,,,,,,,,,,,,,,0.6032,,0.4,0.6,0.6,0.4,0.2,0.8,0.2,0.8,1,0,,,,,,,,,,,,
,,61190367632a534f9e11b013,66daf5cf898dc162a3d006cf,2024-09-06_14h32.19.217,mdp,2024.2.1,Win32,60.24096386,66d7945b1baad48e845df3ce,,,,,,,,,,,,,,,,,,,,,568.2929,568.2929,568.2935,569.2915,0,0,left,0.4674,,569.292,570.7409,0,0,left,570.7422,570.7426,,0,,1,570.7426,570.7426,570.7428,572.241,0,34,34,34,1,0.8,0.2,0.2,0.8,,,,,,,,,,,,,,,0.9108,,0.4,0.6,0.6,0.4,0.2,0.8,0.2,0.8,1,0,,,,,,,,,,,,
,,61190367632a534f9e11b013,66daf5cf898dc162a3d006cf,2024-09-06_14h32.19.217,mdp,2024.2.1,Win32,60.24096386,66d7945b1baad48e845df3ce,,,,,,,,,,,,,,,,,,,,,572.2419,572.2419,572.2427,573.2579,0,0,left,0.4831,,573.2593,574.6896,0,1,left,574.691,574.6914,,0,,0,574.6914,574.6914,574.6916,576.1896,0,35,35,35,1,0.8,0.2,0.2,0.8,,,,,,,,,,,,,,,0.9044,,0.4,0.6,0.6,0.4,0.2,0.8,0.2,0.8,1,0,,,,,,,,,,,,
,,61190367632a534f9e11b013,66daf5cf898dc162a3d006cf,2024-09-06_14h32.19.217,mdp,2024.2.1,Win32,60.24096386,66d7945b1baad48e845df3ce,,,,,,,,,,,,,,,,,,,,,576.1904,576.1904,576.1909,577.272,0,0,left,0.5576,,577.2732,578.2217,1,0,right,578.2224,578.2232,,1,,1,578.2232,578.2232,578.2236,579.7222,0,36,36,36,1,0.8,0.2,0.2,0.8,,,,,,,,,,,,,,,0.4377,,0.4,0.6,0.6,0.4,0.2,0.8,0.2,0.8,1,0,,,,,,,,,,,,
,,61190367632a534f9e11b013,66daf5cf898dc162a3d006cf,2024-09-06_14h32.19.217,mdp,2024.2.1,Win32,60.24096386,66d7945b1baad48e845df3ce,,,,,,,,,,,,,,,,,,,,,579.7226,579.7226,579.723,580.7048,0,1,left,0.4566,,580.7059,582.1375,0,1,left,582.1389,582.1395,,1,,0,582.1395,582.1395,582.1399,583.6368,0,37,37,37,1,0.8,0.2,0.2,0.8,,,,,,,,,,,,,,,0.892,,0.4,0.6,0.6,0.4,0.2,0.8,0.2,0.8,1,0,,,,,,,,,,,,
,,61190367632a534f9e11b013,66daf5cf898dc162a3d006cf,2024-09-06_14h32.19.217,mdp,2024.2.1,Win32,60.24096386,66d7945b1baad48e845df3ce,,,,,,,,,,,,,,,,,,,,,583.6375,583.6375,583.6387,584.6529,0,0,left,0.4874,,584.6543,585.8693,1,0,right,585.8707,585.8711,,1,,1,585.8711,585.8711,585.8714,587.3693,0,38,38,38,1,0.8,0.2,0.2,0.8,,,,,,,,,,,,,,,0.6847,,0.4,0.6,0.6,0.4,0.2,0.8,0.2,0.8,1,0,,,,,,,,,,,,
,,61190367632a534f9e11b013,66daf5cf898dc162a3d006cf,2024-09-06_14h32.19.217,mdp,2024.2.1,Win32,60.24096386,66d7945b1baad48e845df3ce,,,,,,,,,,,,,,,,,,,,,587.37,587.37,587.3712,588.0853,0,0,left,0.1925,,588.0865,589.3846,1,1,right,589.3854,589.3864,,0,,0,589.3864,589.3865,589.3867,590.8848,0,39,39,39,1,0.8,0.2,0.2,0.8,,,,,,,,,,,,,,,0.7734,,0.4,0.6,0.6,0.4,0.2,0.8,0.2,0.8,1,0,,,,,,,,,,,,
,,61190367632a534f9e11b013,66daf5cf898dc162a3d006cf,2024-09-06_14h32.19.217,mdp,2024.2.1,Win32,60.24096386,66d7945b1baad48e845df3ce,,,,,,,,,,,,,,,,,,,,,590.8853,590.8853,590.8859,591.6506,0,1,left,0.234,,591.6514,592.7168,1,0,right,592.7173,592.7182,,1,,1,592.7182,592.7182,592.7186,594.2165,0,40,40,40,1,0.8,0.2,0.2,0.8,,,,,,,,,,,,,,,0.5255,,0.4,0.6,0.6,0.4,0.2,0.8,0.2,0.8,1,0,,,,,,,,,,,,
,,61190367632a534f9e11b013,66daf5cf898dc162a3d006cf,2024-09-06_14h32.19.217,mdp,2024.2.1,Win32,60.24096386,66d7945b1baad48e845df3ce,,,,,,,,,,,,,,,,,,,,,594.217,594.217,594.2185,595.0498,0,1,left,0.2998,,595.0508,596.216,1,1,right,596.2172,596.2175,,0,,0,596.2175,596.2176,596.218,597.7157,0,41,41,41,1,0.8,0.2,0.2,0.8,,,,,,,,,,,,,,,0.6329,,0.4,0.6,0.6,0.4,0.2,0.8,0.2,0.8,1,0,,,,,,,,,,,,
,,61190367632a534f9e11b013,66daf5cf898dc162a3d006cf,2024-09-06_14h32.19.217,mdp,2024.2.1,Win32,60.24096386,66d7945b1baad48e845df3ce,,,,,,,,,,,,,,,,,,,,,597.7162,597.7162,597.7172,598.6319,0,0,left,0.3836,,598.6329,599.7146,0,1,left,599.7157,599.7164,,0,,0,599.7165,599.7165,599.7167,601.2144,0,42,42,42,1,0.8,0.2,0.2,0.8,,,,,,,,,,,,,,,0.542,,0.4,0.6,0.6,0.4,0.4,0.6,0.8,0.2,1,0,,,,,,,,,,,,
,,61190367632a534f9e11b013,66daf5cf898dc162a3d006cf,2024-09-06_14h32.19.217,mdp,2024.2.1,Win32,60.24096386,66d7945b1baad48e845df3ce,,,,,,,,,,,,,,,,,,,,,601.2151,601.2152,601.2156,602.0641,0,0,left,0.322,,602.0651,603.1799,1,1,right,603.1811,603.1819,,0,,0,603.1819,603.1819,603.1823,604.6793,0,43,43,43,1,0.8,0.2,0.2,0.8,,,,,,,,,,,,,,,0.5878,,0.4,0.6,0.6,0.4,0.4,0.6,0.8,0.2,1,0,,,,,,,,,,,,
,,61190367632a534f9e11b013,66daf5cf898dc162a3d006cf,2024-09-06_14h32.19.217,mdp,2024.2.1,Win32,60.24096386,66d7945b1baad48e845df3ce,,,,,,,,,,,,,,,,,,,,,604.6797,604.6797,604.6809,605.496,0,0,left,0.2899,,605.4975,607.0451,1,1,right,607.0467,607.0475,,1,,0,607.0475,607.0475,607.0482,608.5455,0,44,44,44,1,0.8,0.2,0.2,0.8,,,,,,,,,,,,,,,1.0353,,0.4,0.6,0.6,0.4,0.4,0.6,0.8,0.2,1,0,,,,,,,,,,,,
,,61190367632a534f9e11b013,66daf5cf898dc162a3d006cf,2024-09-06_14h32.19.217,mdp,2024.2.1,Win32,60.24096386,66d7945b1baad48e845df3ce,,,,,,,,,,,,,,,,,,,,,608.5462,608.5462,608.5468,609.3951,0,0,left,0.317,,609.396,610.445,0,1,left,610.446,610.4462,,1,,0,610.4463,610.4463,610.4466,611.9448,0,45,45,45,1,0.8,0.2,0.2,0.8,,,,,,,,,,,,,,,0.5196,,0.4,0.6,0.6,0.4,0.4,0.6,0.8,0.2,1,0,,,,,,,,,,,,
,,61190367632a534f9e11b013,66daf5cf898dc162a3d006cf,2024-09-06_14h32.19.217,mdp,2024.2.1,Win32,60.24096386,66d7945b1baad48e845df3ce,,,,,,,,,,,,,,,,,,,,,611.9455,611.9455,611.9468,612.727,0,0,left,0.2543,,612.728,614.0598,1,0,right,614.061,614.0616,,1,,1,614.0617,614.0617,614.0626,615.5595,0,46,46,46,1,0.8,0.2,0.2,0.8,,,,,,,,,,,,,,,0.7995,,0.4,0.6,0.6,0.4,0.4,0.6,0.8,0.2,1,0,,,,,,,,,,,,
,,61190367632a534f9e11b013,66daf5cf898dc162a3d006cf,2024-09-06_14h32.19.217,mdp,2024.2.1,Win32,60.24096386,66d7945b1baad48e845df3ce,,,,,,,,,,,,,,,,,,,,,615.56,615.56,615.5607,616.3256,0,0,left,0.2438,,616.3268,617.8586,1,0,right,617.8596,617.8599,,1,,1,617.8599,617.8599,617.8601,619.3578,0,47,47,47,1,0.8,0.2,0.2,0.8,,,,,,,,,,,,,,,1.0023,,0.2,0.8,0.4,0.6,0.4,0.6,0.8,0.2,1,0,,,,,,,,,,,,
,,61190367632a534f9e11b013,66daf5cf898dc162a3d006cf,2024-09-06_14h32.19.217,mdp,2024.2.1,Win32,60.24096386,66d7945b1baad48e845df3ce,,,,,,,,,,,,,,,,,,,,,619.358,619.358,619.3591,620.6406,0,0,left,0.7567,,620.6415,621.7903,1,0,right,621.7914,621.7922,,0,,1,621.7922,621.7922,621.7924,623.2898,0,48,48,48,1,0.8,0.2,0.2,0.8,,,,,,,,,,,,,,,0.6361,,0.2,0.8,0.4,0.6,0.4,0.6,0.8,0.2,1,0,,,,,,,,,,,,
,,61190367632a534f9e11b013,66daf5cf898dc162a3d006cf,2024-09-06_14h32.19.217,mdp,2024.2.1,Win32,60.24096386,66d7945b1baad48e845df3ce,,,,,,,,,,,,,,,,,,,,,623.2902,623.2902,623.291,624.4898,0,0,left,0.6713,,624.4907,625.6392,1,0,right,625.6404,625.6408,,1,,1,625.6408,625.6408,625.641,627.1393,0,49,49,49,1,0.8,0.2,0.2,0.8,,,,,,,,,,,,,,,0.6261,,0.2,0.8,0.4,0.6,0.4,0.6,0.8,0.2,1,0,,,,,,,,,,,,
,,61190367632a534f9e11b013,66daf5cf898dc162a3d006cf,2024-09-06_14h32.19.217,mdp,2024.2.1,Win32,60.24096386,66d7945b1baad48e845df3ce,,,,,,,,,,,,,,,,,,,,,,,,,,,,,,,,,,,,,,,,,,,,,,,,,,,,,,,,627.1394,685.6519,0,1,1,5,1,imgs/kangaroo.png,imgs/goat.png,imgs/rabbit.png,imgs/horse.png,imgs/pig.png,,,,,,,,,,,,,,,,,,,,,,,,
,,61190367632a534f9e11b013,66daf5cf898dc162a3d006cf,2024-09-06_14h32.19.217,mdp,2024.2.1,Win32,60.24096386,66d7945b1baad48e845df3ce,,,,,,,,,,,,,,3,seqs/st3seq35.csv,685.6581,687.1847,space,1.0011,,687.1888,687.1888,687.1892,689.9003,0,1,left,2.1825,,689.9065,692.1829,0,0,left,692.1835,693.9987,1,0,right,1,693.9987,693.9987,693.9993,695.4986,0,0,0,0,1,0.2,0.8,0.6,0.4,,,,,,,,,,,,,,,1.7641,,0.8,0.2,0.4,0.6,0.8,0.2,0.8,0.2,,,1.288,,0.4,0.6,0.8,0.2,0.4,0.6,0.4,0.6,1,0
,,61190367632a534f9e11b013,66daf5cf898dc162a3d006cf,2024-09-06_14h32.19.217,mdp,2024.2.1,Win32,60.24096386,66d7945b1baad48e845df3ce,,,,,,,,,,,,,,,,,,,,,695.499,695.499,695.4996,696.5313,0,1,left,0.5045,,696.5321,697.7645,0,0,left,697.7651,699.2972,1,0,right,1,699.2973,699.2973,699.298,700.7967,0,1,1,1,1,0.2,0.8,0.6,0.4,,,,,,,,,,,,,,,0.7166,,0.8,0.2,0.4,0.6,0.8,0.2,0.8,0.2,,,1.0019,,0.4,0.6,0.8,0.2,0.4,0.6,0.4,0.6,1,0
,,61190367632a534f9e11b013,66daf5cf898dc162a3d006cf,2024-09-06_14h32.19.217,mdp,2024.2.1,Win32,60.24096386,66d7945b1baad48e845df3ce,,,,,,,,,,,,,,,,,,,,,700.797,700.797,700.7976,701.6463,0,1,left,0.3245,,701.6468,702.5128,0,0,left,702.5133,703.6788,1,0,right,1,703.6788,703.6789,703.6797,705.1786,0,2,2,2,1,0.2,0.8,0.6,0.4,,,,,,,,,,,,,,,0.3379,,0.8,0.2,0.4,0.6,0.8,0.2,0.8,0.2,,,0.6394,,0.4,0.6,0.8,0.2,0.4,0.6,0.4,0.6,1,0
,,61190367632a534f9e11b013,66daf5cf898dc162a3d006cf,2024-09-06_14h32.19.217,mdp,2024.2.1,Win32,60.24096386,66d7945b1baad48e845df3ce,,,,,,,,,,,,,,,,,,,,,705.1789,705.1789,705.1794,705.9948,0,1,left,0.2841,,705.9953,706.8611,0,0,left,706.8616,707.944,1,1,right,0,707.9441,707.9441,707.9445,709.4434,0,3,3,3,1,0.2,0.8,0.6,0.4,,,,,,,,,,,,,,,0.3405,,0.8,0.2,0.4,0.6,0.8,0.2,0.8,0.2,,,0.5586,,0.4,0.6,0.8,0.2,0.4,0.6,0.4,0.6,1,0
,,61190367632a534f9e11b013,66daf5cf898dc162a3d006cf,2024-09-06_14h32.19.217,mdp,2024.2.1,Win32,60.24096386,66d7945b1baad48e845df3ce,,,,,,,,,,,,,,,,,,,,,709.4438,709.4438,709.4443,710.2264,0,1,left,0.2751,,710.2267,711.1596,0,0,left,711.1604,712.0097,0,1,left,0,712.0097,712.0097,712.0102,713.5087,0,4,4,4,1,0.2,0.8,0.6,0.4,,,,,,,,,,,,,,,0.4035,,0.8,0.2,0.4,0.6,0.8,0.2,0.8,0.2,,,0.3168,,0.4,0.6,0.8,0.2,0.4,0.6,0.4,0.6,1,0
,,61190367632a534f9e11b013,66daf5cf898dc162a3d006cf,2024-09-06_14h32.19.217,mdp,2024.2.1,Win32,60.24096386,66d7945b1baad48e845df3ce,,,,,,,,,,,,,,,,,,,,,713.5091,713.5091,713.5098,714.1752,0,0,left,0.1403,,714.1758,714.9584,0,1,left,714.9589,716.5411,0,1,left,0,716.5411,716.5411,716.5417,718.0408,0,5,5,5,1,0.2,0.8,0.6,0.4,,,,,,,,,,,,,,,0.2664,,0.8,0.2,0.4,0.6,0.8,0.2,0.8,0.2,,,1.0516,,0.4,0.6,0.8,0.2,0.4,0.6,0.4,0.6,1,0
,,61190367632a534f9e11b013,66daf5cf898dc162a3d006cf,2024-09-06_14h32.19.217,mdp,2024.2.1,Win32,60.24096386,66d7945b1baad48e845df3ce,,,,,,,,,,,,,,,,,,,,,718.0412,718.0412,718.0417,718.8069,0,0,left,0.2394,,718.8076,719.5901,0,0,left,719.5908,720.6063,1,1,right,0,720.6064,720.6064,720.6069,722.1058,0,6,6,6,1,0.2,0.8,0.6,0.4,,,,,,,,,,,,,,,0.2547,,0.8,0.2,0.4,0.6,0.8,0.2,0.8,0.2,,,0.489,,0.6,0.4,0.4,0.6,0.4,0.6,0.4,0.6,1,0
,,61190367632a534f9e11b013,66daf5cf898dc162a3d006cf,2024-09-06_14h32.19.217,mdp,2024.2.1,Win32,60.24096386,66d7945b1baad48e845df3ce,,,,,,,,,,,,,,,,,,,,,722.106,722.106,722.1064,722.8725,0,1,left,0.2338,,722.8732,723.6556,0,0,left,723.6562,724.9555,0,0,left,1,724.9556,724.9556,724.9571,726.4546,0,7,7,7,1,0.2,0.8,0.6,0.4,,,,,,,,,,,,,,,0.2464,,0.6,0.4,0.2,0.8,0.8,0.2,0.8,0.2,,,0.7676,,0.6,0.4,0.4,0.6,0.4,0.6,0.4,0.6,1,0
,,61190367632a534f9e11b013,66daf5cf898dc162a3d006cf,2024-09-06_14h32.19.217,mdp,2024.2.1,Win32,60.24096386,66d7945b1baad48e845df3ce,,,,,,,,,,,,,,,,,,,,,726.455,726.455,726.4558,727.2378,0,1,left,0.2486,,727.2387,728.0542,0,0,left,728.055,729.1869,0,1,left,0,729.1869,729.1869,729.1875,730.6864,0,8,8,8,1,0.2,0.8,0.6,0.4,,,,,,,,,,,,,,,0.2836,,0.6,0.4,0.2,0.8,0.8,0.2,0.8,0.2,,,0.6073,,0.6,0.4,0.4,0.6,0.4,0.6,0.4,0.6,1,0
,,61190367632a534f9e11b013,66daf5cf898dc162a3d006cf,2024-09-06_14h32.19.217,mdp,2024.2.1,Win32,60.24096386,66d7945b1baad48e845df3ce,,,,,,,,,,,,,,,,,,,,,730.6871,730.6871,730.6886,731.6525,0,1,left,0.4396,,731.6531,733.0022,0,0,left,733.0026,734.4189,1,0,right,1,734.4189,734.4189,734.4195,735.9184,0,9,9,9,1,0.2,0.8,0.6,0.4,,,,,,,,,,,,,,,0.838,,0.6,0.4,0.2,0.8,0.8,0.2,0.8,0.2,,,0.8986,,0.6,0.4,0.4,0.6,0.4,0.6,0.4,0.6,1,0
,,61190367632a534f9e11b013,66daf5cf898dc162a3d006cf,2024-09-06_14h32.19.217,mdp,2024.2.1,Win32,60.24096386,66d7945b1baad48e845df3ce,,,,,,,,,,,,,,,,,,,,,735.9191,735.9191,735.9202,736.701,0,0,left,0.2495,,736.7014,737.5006,0,1,left,737.5013,738.5002,1,0,right,1,738.5003,738.5003,738.5008,739.9997,0,10,10,10,1,0.2,0.8,0.6,0.4,,,,,,,,,,,,,,,0.27,,0.6,0.4,0.2,0.8,0.8,0.2,0.8,0.2,,,0.4739,,0.6,0.4,0.4,0.6,0.4,0.6,0.4,0.6,1,0
,,61190367632a534f9e11b013,66daf5cf898dc162a3d006cf,2024-09-06_14h32.19.217,mdp,2024.2.1,Win32,60.24096386,66d7945b1baad48e845df3ce,,,,,,,,,,,,,,,,,,,,,740,740,740.0003,741.0663,0,1,left,0.5368,,741.0669,742.1157,0,0,left,742.1162,743.9982,1,0,right,1,743.9982,743.9982,743.9987,745.4984,0,11,11,11,1,0.2,0.8,0.6,0.4,,,,,,,,,,,,,,,0.5161,,0.6,0.4,0.2,0.8,0.8,0.2,0.8,0.2,,,1.372,,0.6,0.4,0.4,0.6,0.4,0.6,0.4,0.6,1,0
,,61190367632a534f9e11b013,66daf5cf898dc162a3d006cf,2024-09-06_14h32.19.217,mdp,2024.2.1,Win32,60.24096386,66d7945b1baad48e845df3ce,,,,,,,,,,,,,,,,,,,,,745.4987,745.4987,745.4996,746.2975,0,0,left,0.2761,,746.298,747.0972,0,0,left,747.0976,750.7794,1,1,right,0,750.7795,750.7795,750.7869,752.2787,0,12,12,12,1,0.2,0.8,0.6,0.4,,,,,,,,,,,,,,,0.2701,,0.6,0.4,0.2,0.8,0.8,0.2,0.8,0.2,,,3.157,,0.6,0.4,0.4,0.6,0.4,0.6,0.4,0.6,1,0
,,61190367632a534f9e11b013,66daf5cf898dc162a3d006cf,2024-09-06_14h32.19.217,mdp,2024.2.1,Win32,60.24096386,66d7945b1baad48e845df3ce,,,,,,,,,,,,,,,,,,,,,752.279,752.279,752.2794,753.2121,0,1,left,0.4026,,753.2128,754.0284,0,0,left,754.0289,759.8432,0,0,left,1,759.8433,759.8433,759.8504,761.3429,0,13,13,13,1,0.2,0.8,0.6,0.4,,,,,,,,,,,,,,,0.291,,0.6,0.4,0.2,0.8,0.8,0.2,0.8,0.2,,,5.2986,,0.6,0.4,0.4,0.6,0.4,0.6,0.4,0.6,1,0
,,61190367632a534f9e11b013,66daf5cf898dc162a3d006cf,2024-09-06_14h32.19.217,mdp,2024.2.1,Win32,60.24096386,66d7945b1baad48e845df3ce,,,,,,,,,,,,,,,,,,,,,761.3433,761.3433,761.344,762.3589,0,1,left,0.487,,762.3596,763.5586,0,1,left,763.5593,766.857,0,1,left,0,766.8571,766.8571,766.8637,768.3569,0,14,14,14,1,0.2,0.8,0.6,0.4,,,,,,,,,,,,,,,0.6666,,0.6,0.4,0.2,0.8,0.8,0.2,0.8,0.2,,,2.7876,,0.6,0.4,0.4,0.6,0.4,0.6,0.4,0.6,1,0
,,61190367632a534f9e11b013,66daf5cf898dc162a3d006cf,2024-09-06_14h32.19.217,mdp,2024.2.1,Win32,60.24096386,66d7945b1baad48e845df3ce,,,,,,,,,,,,,,,,,,,,,768.3571,768.3571,768.3575,769.3396,0,1,left,0.4554,,769.3401,770.3561,0,0,left,770.3565,772.0386,1,0,right,1,772.0386,772.0386,772.0392,773.5387,0,15,15,15,1,0.2,0.8,0.6,0.4,,,,,,,,,,,,,,,0.5092,,0.6,0.4,0.2,0.8,0.8,0.2,0.8,0.2,,,1.1552,,0.6,0.4,0.4,0.6,0.4,0.6,0.4,0.6,1,0
,,61190367632a534f9e11b013,66daf5cf898dc162a3d006cf,2024-09-06_14h32.19.217,mdp,2024.2.1,Win32,60.24096386,66d7945b1baad48e845df3ce,,,,,,,,,,,,,,,,,,,,,773.539,773.539,773.5396,774.5887,0,0,left,0.5162,,774.5893,777.2538,0,1,left,777.2545,778.4536,1,1,right,0,778.4537,778.4537,778.4545,779.9533,0,16,16,16,1,0.2,0.8,0.6,0.4,,,,,,,,,,,,,,,2.131,,0.6,0.4,0.2,0.8,0.8,0.2,0.8,0.2,,,0.6638,,0.6,0.4,0.4,0.6,0.8,0.2,0.8,0.2,1,0
,,61190367632a534f9e11b013,66daf5cf898dc162a3d006cf,2024-09-06_14h32.19.217,mdp,2024.2.1,Win32,60.24096386,66d7945b1baad48e845df3ce,,,,,,,,,,,,,,,,,,,,,779.9535,779.9535,779.9542,780.9857,0,0,left,0.5067,,780.9863,783.0684,0,1,left,783.0689,784.6181,0,0,left,1,784.6183,784.6183,784.6195,786.1176,0,17,17,17,1,0.2,0.8,0.6,0.4,,,,,,,,,,,,,,,1.5725,,0.6,0.4,0.2,0.8,0.8,0.2,0.8,0.2,,,1.0356,,0.4,0.6,0.8,0.2,0.8,0.2,0.8,0.2,1,0
,,61190367632a534f9e11b013,66daf5cf898dc162a3d006cf,2024-09-06_14h32.19.217,mdp,2024.2.1,Win32,60.24096386,66d7945b1baad48e845df3ce,,,,,,,,,,,,,,,,,,,,,786.118,786.118,786.1187,787.0671,0,1,left,0.4189,,787.0679,788.9664,0,0,left,788.9669,790.3327,1,0,right,1,790.3328,790.3328,790.3335,791.8321,0,18,18,18,1,0.2,0.8,0.6,0.4,,,,,,,,,,,,,,,1.3831,,0.6,0.4,0.2,0.8,0.8,0.2,0.8,0.2,,,0.8354,,0.4,0.6,0.8,0.2,0.8,0.2,0.8,0.2,1,0
,,61190367632a534f9e11b013,66daf5cf898dc162a3d006cf,2024-09-06_14h32.19.217,mdp,2024.2.1,Win32,60.24096386,66d7945b1baad48e845df3ce,,,,,,,,,,,,,,,,,,,,,791.8323,791.8323,791.8327,792.8649,0,0,left,0.5074,,792.8659,794.698,1,1,right,794.6988,796.5138,1,0,right,1,796.5139,796.5139,796.5143,798.0132,0,19,19,19,1,0.2,0.8,0.6,0.4,,,,,,,,,,,,,,,1.2997,,0.6,0.4,0.2,0.8,0.8,0.2,0.8,0.2,,,1.284,,0.4,0.6,0.8,0.2,0.8,0.2,0.8,0.2,1,0
,,61190367632a534f9e11b013,66daf5cf898dc162a3d006cf,2024-09-06_14h32.19.217,mdp,2024.2.1,Win32,60.24096386,66d7945b1baad48e845df3ce,,,,,,,,,,,,,,,,,,,,,798.0134,798.0134,798.0138,799.2794,0,1,left,0.7381,,799.2802,801.2457,0,0,left,801.2463,802.8116,1,0,right,1,802.8117,802.8117,802.8124,804.3113,0,20,20,20,1,0.2,0.8,0.6,0.4,,,,,,,,,,,,,,,1.4298,,0.6,0.4,0.2,0.8,0.8,0.2,0.8,0.2,,,1.0381,,0.4,0.6,0.8,0.2,0.8,0.2,0.8,0.2,1,0
,,61190367632a534f9e11b013,66daf5cf898dc162a3d006cf,2024-09-06_14h32.19.217,mdp,2024.2.1,Win32,60.24096386,66d7945b1baad48e845df3ce,,,,,,,,,,,,,,,,,,,,,804.3117,804.3117,804.3125,805.6105,0,1,left,0.7706,,805.6108,808.2268,0,0,left,808.2331,809.4926,1,0,right,1,809.4926,809.4926,809.493,810.9921,0,21,21,21,1,0.2,0.8,0.6,0.4,,,,,,,,,,,,,,,2.0856,,0.6,0.4,0.2,0.8,0.8,0.2,0.8,0.2,,,0.7415,,0.4,0.6,0.8,0.2,0.8,0.2,0.8,0.2,1,0
,,61190367632a534f9e11b013,66daf5cf898dc162a3d006cf,2024-09-06_14h32.19.217,mdp,2024.2.1,Win32,60.24096386,66d7945b1baad48e845df3ce,,,,,,,,,,,,,,,,,,,,,810.9924,810.9924,810.9927,812.2417,0,1,left,0.7188,,812.2423,813.9577,0,0,left,813.9581,815.1745,1,0,right,1,815.1746,815.1746,815.1754,816.6736,0,22,22,22,1,0.2,0.8,0.6,0.4,,,,,,,,,,,,,,,1.1889,,0.6,0.4,0.2,0.8,0.8,0.2,0.8,0.2,,,0.7022,,0.6,0.4,0.4,0.6,0.8,0.2,0.8,0.2,1,0
,,61190367632a534f9e11b013,66daf5cf898dc162a3d006cf,2024-09-06_14h32.19.217,mdp,2024.2.1,Win32,60.24096386,66d7945b1baad48e845df3ce,,,,,,,,,,,,,,,,,,,,,816.6739,816.6739,816.6745,818.1062,0,0,left,0.9111,,818.1067,819.8064,1,1,right,819.8075,821.2219,1,0,right,1,821.222,821.222,821.2224,822.722,0,23,23,23,1,0.2,0.8,0.6,0.4,,,,,,,,,,,,,,,1.1807,,0.6,0.4,0.2,0.8,0.8,0.2,0.8,0.2,,,0.8865,,0.6,0.4,0.4,0.6,0.8,0.2,0.8,0.2,1,0
,,61190367632a534f9e11b013,66daf5cf898dc162a3d006cf,2024-09-06_14h32.19.217,mdp,2024.2.1,Win32,60.24096386,66d7945b1baad48e845df3ce,,,,,,,,,,,,,,,,,,,,,822.7225,822.7225,822.7233,823.788,0,1,left,0.5317,,823.7886,825.3708,0,0,left,825.3714,826.5866,1,0,right,1,826.5867,826.5867,826.5871,828.0867,0,24,24,24,1,0.2,0.8,0.6,0.4,,,,,,,,,,,,,,,1.0501,,0.6,0.4,0.2,0.8,0.8,0.2,0.8,0.2,,,0.6841,,0.6,0.4,0.4,0.6,0.8,0.2,0.8,0.2,1,0
,,61190367632a534f9e11b013,66daf5cf898dc162a3d006cf,2024-09-06_14h32.19.217,mdp,2024.2.1,Win32,60.24096386,66d7945b1baad48e845df3ce,,,,,,,,,,,,,,,,,,,,,828.087,828.087,828.0877,829.1027,0,1,left,0.4866,,829.1038,830.7523,0,0,left,830.7529,831.8518,1,1,right,0,831.8519,831.8519,831.8523,833.3512,0,25,25,25,1,0.2,0.8,0.6,0.4,,,,,,,,,,,,,,,1.1179,,0.6,0.4,0.2,0.8,0.8,0.2,0.8,0.2,,,0.5781,,0.6,0.4,0.4,0.6,0.8,0.2,0.8,0.2,1,0
,,61190367632a534f9e11b013,66daf5cf898dc162a3d006cf,2024-09-06_14h32.19.217,mdp,2024.2.1,Win32,60.24096386,66d7945b1baad48e845df3ce,,,,,,,,,,,,,,,,,,,,,833.3515,833.3515,833.3518,834.5174,0,1,left,0.6339,,834.518,836.3832,1,0,right,836.3837,837.3498,1,1,right,0,837.3498,837.3498,837.3503,838.8492,0,26,26,26,1,0.2,0.8,0.6,0.4,,,,,,,,,,,,,,,1.3425,,0.6,0.4,0.2,0.8,0.8,0.2,0.8,0.2,,,0.4435,,0.6,0.4,0.4,0.6,0.8,0.2,0.8,0.2,1,0
,,61190367632a534f9e11b013,66daf5cf898dc162a3d006cf,2024-09-06_14h32.19.217,mdp,2024.2.1,Win32,60.24096386,66d7945b1baad48e845df3ce,,,,,,,,,,,,,,,,,,,,,838.8497,838.8497,838.8505,839.7661,0,0,left,0.3835,,839.7668,841.782,0,1,left,841.7887,842.9145,1,0,right,1,842.9145,842.9145,842.915,844.4143,0,27,27,27,1,0.2,0.8,0.6,0.4,,,,,,,,,,,,,,,1.4849,,0.6,0.4,0.2,0.8,0.8,0.2,0.8,0.2,,,0.6041,,0.6,0.4,0.4,0.6,0.8,0.2,0.8,0.2,1,0
,,61190367632a534f9e11b013,66daf5cf898dc162a3d006cf,2024-09-06_14h32.19.217,mdp,2024.2.1,Win32,60.24096386,66d7945b1baad48e845df3ce,,,,,,,,,,,,,,,,,,,,,844.4147,844.4147,844.4153,845.6635,0,1,left,0.722,,845.6641,847.0801,0,0,left,847.0806,848.696,1,1,right,0,848.696,848.696,848.6966,850.1959,0,28,28,28,1,0.2,0.8,0.6,0.4,,,,,,,,,,,,,,,0.8949,,0.6,0.4,0.2,0.8,0.8,0.2,0.8,0.2,,,1.0876,,0.6,0.4,0.4,0.6,0.8,0.2,0.8,0.2,1,0
,,61190367632a534f9e11b013,66daf5cf898dc162a3d006cf,2024-09-06_14h32.19.217,mdp,2024.2.1,Win32,60.24096386,66d7945b1baad48e845df3ce,,,,,,,,,,,,,,,,,,,,,850.196,850.1961,850.1963,851.3117,0,1,left,0.5902,,851.3125,852.6279,0,0,left,852.6284,853.744,0,1,left,0,853.744,853.7441,853.7452,855.2439,0,29,29,29,1,0.2,0.8,0.6,0.4,,,,,,,,,,,,,,,0.809,,0.6,0.4,0.2,0.8,0.8,0.2,0.8,0.2,,,0.589,,0.6,0.4,0.4,0.6,0.8,0.2,0.8,0.2,1,0
,,61190367632a534f9e11b013,66daf5cf898dc162a3d006cf,2024-09-06_14h32.19.217,mdp,2024.2.1,Win32,60.24096386,66d7945b1baad48e845df3ce,,,,,,,,,,,,,,,,,,,,,855.2443,855.2443,855.2458,856.2266,0,1,left,0.4488,,856.2274,857.3097,0,0,left,857.3102,858.2928,1,1,right,0,858.2928,858.2928,858.2932,859.7922,0,30,30,30,1,0.2,0.8,0.6,0.4,,,,,,,,,,,,,,,0.5521,,0.2,0.8,0.8,0.2,0.8,0.2,0.8,0.2,,,0.4546,,0.6,0.4,0.4,0.6,0.8,0.2,0.8,0.2,1,0
,,61190367632a534f9e11b013,66daf5cf898dc162a3d006cf,2024-09-06_14h32.19.217,mdp,2024.2.1,Win32,60.24096386,66d7945b1baad48e845df3ce,,,,,,,,,,,,,,,,,,,,,859.7926,859.7926,859.7931,861.5917,0,1,left,1.272,,861.5924,863.3076,1,0,right,863.3082,864.3575,1,1,right,0,864.3575,864.3575,864.3581,865.8569,0,31,31,31,1,0.2,0.8,0.6,0.4,,,,,,,,,,,,,,,1.1903,,0.2,0.8,0.8,0.2,0.8,0.2,0.8,0.2,,,0.5172,,0.6,0.4,0.4,0.6,0.8,0.2,0.8,0.2,1,0
,,61190367632a534f9e11b013,66daf5cf898dc162a3d006cf,2024-09-06_14h32.19.217,mdp,2024.2.1,Win32,60.24096386,66d7945b1baad48e845df3ce,,,,,,,,,,,,,,,,,,,,,865.8575,865.8575,865.8584,866.8729,0,1,left,0.4842,,866.8735,867.9227,0,0,left,867.9241,868.8061,0,0,left,1,868.8062,868.8062,868.8066,870.3056,0,32,32,32,1,0.2,0.8,0.6,0.4,,,,,,,,,,,,,,,0.5432,,0.2,0.8,0.8,0.2,0.8,0.2,0.8,0.2,,,0.3499,,0.6,0.4,0.4,0.6,0.6,0.4,0.6,0.4,1,0
,,61190367632a534f9e11b013,66daf5cf898dc162a3d006cf,2024-09-06_14h32.19.217,mdp,2024.2.1,Win32,60.24096386,66d7945b1baad48e845df3ce,,,,,,,,,,,,,,,,,,,,,870.306,870.306,870.3065,871.188,0,1,left,0.3574,,871.1885,872.0878,0,1,left,872.0882,873.0208,0,1,left,0,873.0208,873.0208,873.0213,874.5204,0,33,33,33,1,0.2,0.8,0.6,0.4,,,,,,,,,,,,,,,0.3922,,0.2,0.8,0.8,0.2,0.8,0.2,0.8,0.2,,,0.4197,,0.6,0.4,0.4,0.6,0.6,0.4,0.6,0.4,1,0
,,61190367632a534f9e11b013,66daf5cf898dc162a3d006cf,2024-09-06_14h32.19.217,mdp,2024.2.1,Win32,60.24096386,66d7945b1baad48e845df3ce,,,,,,,,,,,,,,,,,,,,,874.5206,874.5206,874.5211,875.337,0,1,left,0.2823,,875.3375,876.1698,0,0,left,876.1702,876.9029,1,1,right,0,876.903,876.903,876.9036,878.4027,0,34,34,34,1,0.2,0.8,0.6,0.4,,,,,,,,,,,,,,,0.2992,,0.2,0.8,0.8,0.2,0.8,0.2,0.8,0.2,,,0.2187,,0.6,0.4,0.4,0.6,0.6,0.4,0.6,0.4,1,0
,,61190367632a534f9e11b013,66daf5cf898dc162a3d006cf,2024-09-06_14h32.19.217,mdp,2024.2.1,Win32,60.24096386,66d7945b1baad48e845df3ce,,,,,,,,,,,,,,,,,,,,,878.4029,878.4029,878.404,879.2188,0,1,left,0.2874,,879.2192,880.0352,0,0,left,880.0358,881.0515,0,0,left,1,881.0515,881.0515,881.0521,882.5511,0,35,35,35,1,0.2,0.8,0.6,0.4,,,,,,,,,,,,,,,0.2939,,0.2,0.8,0.8,0.2,0.8,0.2,0.8,0.2,,,0.5077,,0.6,0.4,0.4,0.6,0.6,0.4,0.6,0.4,1,0
,,61190367632a534f9e11b013,66daf5cf898dc162a3d006cf,2024-09-06_14h32.19.217,mdp,2024.2.1,Win32,60.24096386,66d7945b1baad48e845df3ce,,,,,,,,,,,,,,,,,,,,,882.5515,882.5515,882.5527,883.3673,0,1,left,0.2948,,883.368,884.4004,0,0,left,884.4011,885.3836,0,0,left,1,885.3836,885.3836,885.3842,886.8831,0,36,36,36,1,0.2,0.8,0.6,0.4,,,,,,,,,,,,,,,0.5054,,0.2,0.8,0.8,0.2,0.8,0.2,0.8,0.2,,,0.4661,,0.6,0.4,0.4,0.6,0.6,0.4,0.6,0.4,1,0
,,61190367632a534f9e11b013,66daf5cf898dc162a3d006cf,2024-09-06_14h32.19.217,mdp,2024.2.1,Win32,60.24096386,66d7945b1baad48e845df3ce,,,,,,,,,,,,,,,,,,,,,886.8836,886.8836,886.8846,887.6665,0,1,left,0.2523,,887.6672,888.5156,0,0,left,888.5161,889.4324,0,0,left,1,889.4325,889.4325,889.4331,890.9315,0,37,37,37,1,0.2,0.8,0.6,0.4,,,,,,,,,,,,,,,0.3242,,0.2,0.8,0.8,0.2,0.8,0.2,0.8,0.2,,,0.4056,,0.6,0.4,0.4,0.6,0.6,0.4,0.6,0.4,1,0
,,61190367632a534f9e11b013,66daf5cf898dc162a3d006cf,2024-09-06_14h32.19.217,mdp,2024.2.1,Win32,60.24096386,66d7945b1baad48e845df3ce,,,,,,,,,,,,,,,,,,,,,890.9318,890.9318,890.9322,892.0646,0,0,left,0.6185,,892.0652,893.8307,1,0,right,893.8312,894.7804,1,1,right,0,894.7805,894.7805,894.781,896.2796,0,38,38,38,1,0.2,0.8,0.6,0.4,,,,,,,,,,,,,,,1.23,,0.2,0.8,0.8,0.2,0.8,0.2,0.8,0.2,,,0.416,,0.6,0.4,0.4,0.6,0.6,0.4,0.6,0.4,1,0
,,61190367632a534f9e11b013,66daf5cf898dc162a3d006cf,2024-09-06_14h32.19.217,mdp,2024.2.1,Win32,60.24096386,66d7945b1baad48e845df3ce,,,,,,,,,,,,,,,,,,,,,896.2798,896.2798,896.2802,896.8795,0,0,left,0.0913,,896.8801,898.2459,0,1,left,898.2466,899.2287,0,1,left,0,899.2287,899.2287,899.2295,900.728,0,39,39,39,1,0.2,0.8,0.6,0.4,,,,,,,,,,,,,,,0.8546,,0.2,0.8,0.8,0.2,0.8,0.2,0.8,0.2,,,0.448,,0.6,0.4,0.4,0.6,0.6,0.4,0.6,0.4,1,0
,,61190367632a534f9e11b013,66daf5cf898dc162a3d006cf,2024-09-06_14h32.19.217,mdp,2024.2.1,Win32,60.24096386,66d7945b1baad48e845df3ce,,,,,,,,,,,,,,,,,,,,,900.7282,900.7282,900.7285,901.5113,0,1,left,0.2517,,901.5118,902.2945,0,0,left,902.2956,903.177,1,0,right,1,903.1771,903.1771,903.1776,904.6769,0,40,40,40,1,0.2,0.8,0.6,0.4,,,,,,,,,,,,,,,0.2461,,0.2,0.8,0.8,0.2,0.8,0.2,0.8,0.2,,,0.3587,,0.6,0.4,0.4,0.6,0.6,0.4,0.6,0.4,1,0
,,61190367632a534f9e11b013,66daf5cf898dc162a3d006cf,2024-09-06_14h32.19.217,mdp,2024.2.1,Win32,60.24096386,66d7945b1baad48e845df3ce,,,,,,,,,,,,,,,,,,,,,904.6771,904.6771,904.6777,905.5098,0,1,left,0.3042,,905.5103,906.526,0,0,left,906.5266,907.4757,1,1,right,0,907.4758,907.4758,907.4765,908.9757,0,41,41,41,1,0.2,0.8,0.6,0.4,,,,,,,,,,,,,,,0.5047,,0.4,0.6,0.6,0.4,0.8,0.2,0.8,0.2,,,0.4365,,0.6,0.4,0.4,0.6,0.6,0.4,0.6,0.4,1,0
,,61190367632a534f9e11b013,66daf5cf898dc162a3d006cf,2024-09-06_14h32.19.217,mdp,2024.2.1,Win32,60.24096386,66d7945b1baad48e845df3ce,,,,,,,,,,,,,,,,,,,,,908.9759,908.9759,908.9763,909.9415,0,1,left,0.438,,909.942,910.7413,0,0,left,910.7417,911.6245,0,0,left,1,911.6245,911.6246,911.625,913.124,0,42,42,42,1,0.2,0.8,0.6,0.4,,,,,,,,,,,,,,,0.267,,0.4,0.6,0.6,0.4,0.8,0.2,0.8,0.2,,,0.3657,,0.6,0.4,0.4,0.6,0.6,0.4,0.6,0.4,1,0
,,61190367632a534f9e11b013,66daf5cf898dc162a3d006cf,2024-09-06_14h32.19.217,mdp,2024.2.1,Win32,60.24096386,66d7945b1baad48e845df3ce,,,,,,,,,,,,,,,,,,,,,913.1244,913.1244,913.125,913.9236,0,1,left,0.267,,913.924,914.9235,0,0,left,914.9241,916.1063,0,1,left,0,916.1063,916.1063,916.1069,917.606,0,43,43,43,1,0.2,0.8,0.6,0.4,,,,,,,,,,,,,,,0.4828,,0.4,0.6,0.6,0.4,0.8,0.2,0.8,0.2,,,0.6505,,0.6,0.4,0.4,0.6,0.6,0.4,0.6,0.4,1,0
,,61190367632a534f9e11b013,66daf5cf898dc162a3d006cf,2024-09-06_14h32.19.217,mdp,2024.2.1,Win32,60.24096386,66d7945b1baad48e845df3ce,,,,,,,,,,,,,,,,,,,,,917.6064,917.6064,917.6072,918.4221,0,0,left,0.288,,918.4227,919.2216,0,0,left,919.2222,920.0549,1,1,right,0,920.0549,920.0549,920.0554,921.5544,0,44,44,44,1,0.2,0.8,0.6,0.4,,,,,,,,,,,,,,,0.2681,,0.4,0.6,0.6,0.4,0.8,0.2,0.8,0.2,,,0.3245,,0.6,0.4,0.4,0.6,0.6,0.4,0.6,0.4,1,0
,,61190367632a534f9e11b013,66daf5cf898dc162a3d006cf,2024-09-06_14h32.19.217,mdp,2024.2.1,Win32,60.24096386,66d7945b1baad48e845df3ce,,,,,,,,,,,,,,,,,,,,,921.5546,921.5546,921.5549,922.5375,0,1,left,0.4548,,922.5381,923.3372,0,0,left,923.3378,924.6367,0,1,left,0,924.6368,924.6368,924.6372,926.136,0,45,45,45,1,0.2,0.8,0.6,0.4,,,,,,,,,,,,,,,0.2687,,0.4,0.6,0.6,0.4,0.8,0.2,0.8,0.2,,,0.7671,,0.6,0.4,0.4,0.6,0.6,0.4,0.6,0.4,1,0
,,61190367632a534f9e11b013,66daf5cf898dc162a3d006cf,2024-09-06_14h32.19.217,mdp,2024.2.1,Win32,60.24096386,66d7945b1baad48e845df3ce,,,,,,,,,,,,,,,,,,,,,926.1363,926.1363,926.1366,927.2357,1,0,right,0.573,,927.2361,928.0856,1,0,right,928.0864,929.2015,1,1,right,0,929.2016,929.2016,929.2024,930.7017,0,46,46,46,1,0.2,0.8,0.6,0.4,,,,,,,,,,,,,,,0.3189,,0.4,0.6,0.6,0.4,0.8,0.2,0.8,0.2,,,0.5875,,0.6,0.4,0.4,0.6,0.6,0.4,0.6,0.4,1,0
,,61190367632a534f9e11b013,66daf5cf898dc162a3d006cf,2024-09-06_14h32.19.217,mdp,2024.2.1,Win32,60.24096386,66d7945b1baad48e845df3ce,,,,,,,,,,,,,,,,,,,,,930.702,930.702,930.7026,931.8009,0,1,left,0.5748,,931.8014,933.0005,0,1,left,933.0011,934.3668,1,1,right,0,934.3668,934.3668,934.3674,935.8663,0,47,47,47,1,0.2,0.8,0.6,0.4,,,,,,,,,,,,,,,0.6676,,0.4,0.6,0.6,0.4,0.8,0.2,0.8,0.2,,,0.8459,,0.8,0.2,0.2,0.8,0.6,0.4,0.6,0.4,1,0
,,61190367632a534f9e11b013,66daf5cf898dc162a3d006cf,2024-09-06_14h32.19.217,mdp,2024.2.1,Win32,60.24096386,66d7945b1baad48e845df3ce,,,,,,,,,,,,,,,,,,,,,935.8666,935.8666,935.8671,936.6659,0,1,left,0.27,,936.6664,937.4659,0,0,left,937.467,938.282,0,0,left,1,938.2821,938.2821,938.2829,939.7818,0,48,48,48,1,0.2,0.8,0.6,0.4,,,,,,,,,,,,,,,0.2819,,0.4,0.6,0.6,0.4,0.8,0.2,0.8,0.2,,,0.28,,0.8,0.2,0.2,0.8,0.6,0.4,0.6,0.4,1,0
,,61190367632a534f9e11b013,66daf5cf898dc162a3d006cf,2024-09-06_14h32.19.217,mdp,2024.2.1,Win32,60.24096386,66d7945b1baad48e845df3ce,,,,,,,,,,,,,,,,,,,,,939.7824,939.7824,939.7839,940.6815,0,1,left,0.367,,940.6822,942.4971,0,0,left,942.4976,943.5633,0,0,left,1,943.5633,943.5633,943.5637,945.0632,0,49,49,49,1,0.2,0.8,0.6,0.4,,,,,,,,,,,,,,,1.2919,,0.4,0.6,0.6,0.4,0.8,0.2,0.8,0.2,,,0.5599,,0.8,0.2,0.2,0.8,0.6,0.4,0.6,0.4,1,0
,,61190367632a534f9e11b013,66daf5cf898dc162a3d006cf,2024-09-06_14h32.19.217,mdp,2024.2.1,Win32,60.24096386,66d7945b1baad48e845df3ce,,,,,,,,,,,,,,,,,,,,,,,,,,,,,,,,,,,,,,,,,,,,,,,,,,,,,,,,945.0635,1003.5768,0,2,2,7,1,imgs/goat.png,imgs/kangaroo.png,imgs/rabbit.png,imgs/lion.png,imgs/horse.png,,,,,,,,,,,,,,,,,,,,,,,,
,,61190367632a534f9e11b013,66daf5cf898dc162a3d006cf,2024-09-06_14h32.19.217,mdp,2024.2.1,Win32,60.24096386,66d7945b1baad48e845df3ce,,,,,,,,,,,,,,3,seqs/st3seq5.csv,1003.5875,1006.3587,space,2.2561,,1006.3633,1006.3633,1006.3637,1008.7244,0,1,left,1.8396,,1008.725,1010.3239,1,0,right,1010.3245,1011.5901,1,1,right,0,1011.5901,1011.5901,1011.5907,1013.0899,0,0,0,0,1,0.6,0.4,0.2,0.8,,,,,,,,,,,,,,,1.0871,,0.8,0.2,0.4,0.6,0.8,0.2,0.8,0.2,,,0.7323,,0.2,0.8,0.4,0.6,0.6,0.4,0.8,0.2,1,0
,,61190367632a534f9e11b013,66daf5cf898dc162a3d006cf,2024-09-06_14h32.19.217,mdp,2024.2.1,Win32,60.24096386,66d7945b1baad48e845df3ce,,,,,,,,,,,,,,,,,,,,,1013.0902,1013.0902,1013.0909,1013.9229,0,1,left,0.305,,1013.9234,1015.3721,0,0,left,1015.3725,1016.3389,0,1,left,0,1016.3389,1016.3389,1016.3396,1017.8378,0,1,1,1,1,0.6,0.4,0.2,0.8,,,,,,,,,,,,,,,0.9316,,0.8,0.2,0.4,0.6,0.8,0.2,0.8,0.2,,,0.4492,,0.2,0.8,0.4,0.6,0.6,0.4,0.8,0.2,1,0
,,61190367632a534f9e11b013,66daf5cf898dc162a3d006cf,2024-09-06_14h32.19.217,mdp,2024.2.1,Win32,60.24096386,66d7945b1baad48e845df3ce,,,,,,,,,,,,,,,,,,,,,1017.838,1017.838,1017.8384,1019.0543,0,0,left,0.6849,,1019.0548,1020.4872,1,1,right,1020.4879,1021.3204,0,0,left,1,1021.3205,1021.3205,1021.3213,1022.8201,0,2,2,2,1,0.6,0.4,0.2,0.8,,,,,,,,,,,,,,,0.894,,0.8,0.2,0.4,0.6,0.8,0.2,0.8,0.2,,,0.2977,,0.2,0.8,0.4,0.6,0.6,0.4,0.8,0.2,1,0
,,61190367632a534f9e11b013,66daf5cf898dc162a3d006cf,2024-09-06_14h32.19.217,mdp,2024.2.1,Win32,60.24096386,66d7945b1baad48e845df3ce,,,,,,,,,,,,,,,,,,,,,1022.8204,1022.8204,1022.821,1023.9193,0,1,left,0.5734,,1023.9198,1024.9524,0,0,left,1024.9529,1025.8856,0,1,left,0,1025.8857,1025.8857,1025.8863,1027.3853,0,3,3,3,1,0.6,0.4,0.2,0.8,,,,,,,,,,,,,,,0.5156,,0.8,0.2,0.4,0.6,0.8,0.2,0.8,0.2,,,0.3993,,0.2,0.8,0.4,0.6,0.6,0.4,0.8,0.2,1,0
,,61190367632a534f9e11b013,66daf5cf898dc162a3d006cf,2024-09-06_14h32.19.217,mdp,2024.2.1,Win32,60.24096386,66d7945b1baad48e845df3ce,,,,,,,,,,,,,,,,,,,,,1027.386,1027.386,1027.3867,1028.2846,0,1,left,0.3773,,1028.2851,1029.1176,1,1,right,1029.1182,1030.3172,1,0,right,1,1030.3173,1030.3173,1030.318,1031.8172,0,4,4,4,1,0.6,0.4,0.2,0.8,,,,,,,,,,,,,,,0.3277,,0.8,0.2,0.4,0.6,0.8,0.2,0.8,0.2,,,0.6677,,0.2,0.8,0.4,0.6,0.6,0.4,0.8,0.2,1,0
,,61190367632a534f9e11b013,66daf5cf898dc162a3d006cf,2024-09-06_14h32.19.217,mdp,2024.2.1,Win32,60.24096386,66d7945b1baad48e845df3ce,,,,,,,,,,,,,,,,,,,,,1031.8174,1031.8174,1031.8179,1032.6164,0,0,left,0.275,,1032.6169,1033.6327,1,0,right,1033.6333,1034.7328,1,1,right,0,1034.7328,1034.7328,1034.7336,1036.2323,0,5,5,5,1,0.6,0.4,0.2,0.8,,,,,,,,,,,,,,,0.4996,,0.8,0.2,0.4,0.6,0.8,0.2,0.8,0.2,,,0.5621,,0.2,0.8,0.4,0.6,0.6,0.4,0.8,0.2,1,0
,,61190367632a534f9e11b013,66daf5cf898dc162a3d006cf,2024-09-06_14h32.19.217,mdp,2024.2.1,Win32,60.24096386,66d7945b1baad48e845df3ce,,,,,,,,,,,,,,,,,,,,,1036.2326,1036.2326,1036.2334,1037.3646,0,1,left,0.5996,,1037.3653,1038.8311,0,0,left,1038.832,1040.2971,1,0,right,1,1040.2972,1040.2972,1040.2978,1041.7968,0,6,6,6,1,0.6,0.4,0.2,0.8,,,,,,,,,,,,,,,0.9498,,0.8,0.2,0.4,0.6,0.8,0.2,0.8,0.2,,,0.9346,,0.2,0.8,0.4,0.6,0.6,0.4,0.8,0.2,1,0
,,61190367632a534f9e11b013,66daf5cf898dc162a3d006cf,2024-09-06_14h32.19.217,mdp,2024.2.1,Win32,60.24096386,66d7945b1baad48e845df3ce,,,,,,,,,,,,,,,,,,,,,1041.7972,1041.7972,1041.7981,1042.8463,0,0,left,0.5244,,1042.847,1044.8454,1,0,right,1044.8459,1046.3283,0,1,left,0,1046.3284,1046.3284,1046.3289,1047.8281,0,7,7,7,1,0.6,0.4,0.2,0.8,,,,,,,,,,,,,,,1.4728,,0.8,0.2,0.4,0.6,0.8,0.2,0.8,0.2,,,0.9776,,0.2,0.8,0.4,0.6,0.6,0.4,0.8,0.2,1,0
,,61190367632a534f9e11b013,66daf5cf898dc162a3d006cf,2024-09-06_14h32.19.217,mdp,2024.2.1,Win32,60.24096386,66d7945b1baad48e845df3ce,,,,,,,,,,,,,,,,,,,,,1047.8285,1047.8285,1047.8291,1048.711,0,0,left,0.3537,,1048.7115,1049.5774,0,0,left,1049.578,1050.3269,1,1,right,0,1050.3269,1050.3269,1050.3274,1051.8268,0,8,8,8,1,0.6,0.4,0.2,0.8,,,,,,,,,,,,,,,0.3522,,0.8,0.2,0.4,0.6,0.8,0.2,0.8,0.2,,,0.2445,,0.2,0.8,0.4,0.6,0.6,0.4,0.8,0.2,1,0
,,61190367632a534f9e11b013,66daf5cf898dc162a3d006cf,2024-09-06_14h32.19.217,mdp,2024.2.1,Win32,60.24096386,66d7945b1baad48e845df3ce,,,,,,,,,,,,,,,,,,,,,1051.8271,1051.8271,1051.8279,1053.2258,0,1,left,0.8744,,1053.2262,1054.1091,0,0,left,1054.1097,1055.0922,0,1,left,0,1055.0922,1055.0922,1055.0927,1056.5918,0,9,9,9,1,0.6,0.4,0.2,0.8,,,,,,,,,,,,,,,0.3701,,0.8,0.2,0.4,0.6,0.8,0.2,0.8,0.2,,,0.4522,,0.2,0.8,0.4,0.6,0.6,0.4,0.8,0.2,1,0
,,61190367632a534f9e11b013,66daf5cf898dc162a3d006cf,2024-09-06_14h32.19.217,mdp,2024.2.1,Win32,60.24096386,66d7945b1baad48e845df3ce,,,,,,,,,,,,,,,,,,,,,1056.5921,1056.5921,1056.5926,1057.4583,0,0,left,0.3352,,1057.4591,1058.6576,1,1,right,1058.6593,1059.9235,0,0,left,1,1059.9235,1059.9235,1059.924,1061.4231,0,10,10,10,1,0.6,0.4,0.2,0.8,,,,,,,,,,,,,,,0.6659,,0.8,0.2,0.4,0.6,0.8,0.2,0.8,0.2,,,0.7339,,0.2,0.8,0.4,0.6,0.6,0.4,0.8,0.2,1,0
,,61190367632a534f9e11b013,66daf5cf898dc162a3d006cf,2024-09-06_14h32.19.217,mdp,2024.2.1,Win32,60.24096386,66d7945b1baad48e845df3ce,,,,,,,,,,,,,,,,,,,,,1061.4234,1061.4234,1061.424,1062.4228,0,0,left,0.4721,,1062.4234,1063.306,0,0,left,1063.3065,1064.1393,1,1,right,0,1064.1394,1064.1394,1064.1406,1065.6386,0,11,11,11,1,0.6,0.4,0.2,0.8,,,,,,,,,,,,,,,0.3654,,0.8,0.2,0.4,0.6,0.8,0.2,0.8,0.2,,,0.3001,,0.2,0.8,0.4,0.6,0.6,0.4,0.8,0.2,1,0
,,61190367632a534f9e11b013,66daf5cf898dc162a3d006cf,2024-09-06_14h32.19.217,mdp,2024.2.1,Win32,60.24096386,66d7945b1baad48e845df3ce,,,,,,,,,,,,,,,,,,,,,1065.6388,1065.6388,1065.6392,1066.2884,0,0,left,0.117,,1066.289,1067.1046,0,0,left,1067.1053,1068.1374,0,1,left,0,1068.1375,1068.1375,1068.1379,1069.6369,0,12,12,12,1,0.6,0.4,0.2,0.8,,,,,,,,,,,,,,,0.2847,,0.8,0.2,0.4,0.6,0.8,0.2,0.8,0.2,,,0.5076,,0.2,0.8,0.4,0.6,0.6,0.4,0.8,0.2,1,0
,,61190367632a534f9e11b013,66daf5cf898dc162a3d006cf,2024-09-06_14h32.19.217,mdp,2024.2.1,Win32,60.24096386,66d7945b1baad48e845df3ce,,,,,,,,,,,,,,,,,,,,,1069.6372,1069.6372,1069.6375,1070.8365,1,1,right,0.6776,,1070.837,1072.0364,1,0,right,1072.0368,1072.8028,0,1,left,0,1072.8029,1072.8029,1072.8042,1074.3023,0,13,13,13,1,0.6,0.4,0.2,0.8,,,,,,,,,,,,,,,0.6788,,0.8,0.2,0.4,0.6,0.8,0.2,0.8,0.2,,,0.2364,,0.2,0.8,0.4,0.6,0.6,0.4,0.8,0.2,1,0
,,61190367632a534f9e11b013,66daf5cf898dc162a3d006cf,2024-09-06_14h32.19.217,mdp,2024.2.1,Win32,60.24096386,66d7945b1baad48e845df3ce,,,,,,,,,,,,,,,,,,,,,1074.3026,1074.3026,1074.3032,1075.0852,0,1,left,0.2568,,1075.0856,1078.5506,0,0,left,1078.5596,1079.9499,1,1,right,0,1079.9499,1079.9499,1079.9503,1081.4499,0,14,14,14,1,0.2,0.8,0.8,0.2,,,,,,,,,,,,,,,2.9439,,0.8,0.2,0.4,0.6,0.8,0.2,0.8,0.2,,,0.8937,,0.2,0.8,0.4,0.6,0.6,0.4,0.8,0.2,1,0
,,61190367632a534f9e11b013,66daf5cf898dc162a3d006cf,2024-09-06_14h32.19.217,mdp,2024.2.1,Win32,60.24096386,66d7945b1baad48e845df3ce,,,,,,,,,,,,,,,,,,,,,1081.45,1081.45,1081.4504,1082.3328,0,1,left,0.3558,,1082.3332,1083.2823,1,0,right,1083.2832,1084.0321,1,1,right,0,1084.0321,1084.0321,1084.0327,1085.532,0,15,15,15,1,0.2,0.8,0.8,0.2,,,,,,,,,,,,,,,0.4152,,0.8,0.2,0.4,0.6,0.8,0.2,0.8,0.2,,,0.2209,,0.2,0.8,0.4,0.6,0.6,0.4,0.8,0.2,1,0
,,61190367632a534f9e11b013,66daf5cf898dc162a3d006cf,2024-09-06_14h32.19.217,mdp,2024.2.1,Win32,60.24096386,66d7945b1baad48e845df3ce,,,,,,,,,,,,,,,,,,,,,1085.5323,1085.5323,1085.533,1086.3656,0,0,left,0.3005,,1086.3664,1087.1978,0,0,left,1087.1984,1088.1306,0,1,left,0,1088.1308,1088.1308,1088.1311,1089.6301,0,16,16,16,1,0.2,0.8,0.8,0.2,,,,,,,,,,,,,,,0.2989,,0.8,0.2,0.4,0.6,0.8,0.2,0.8,0.2,,,0.4006,,0.2,0.8,0.4,0.6,0.6,0.4,0.8,0.2,1,0
,,61190367632a534f9e11b013,66daf5cf898dc162a3d006cf,2024-09-06_14h32.19.217,mdp,2024.2.1,Win32,60.24096386,66d7945b1baad48e845df3ce,,,,,,,,,,,,,,,,,,,,,1089.6303,1089.6303,1089.631,1090.4138,0,1,left,0.2669,,1090.4144,1091.2632,1,0,right,1091.2638,1092.4626,0,0,left,1,1092.4626,1092.4626,1092.4632,1093.9625,0,17,17,17,1,0.2,0.8,0.8,0.2,,,,,,,,,,,,,,,0.3149,,0.8,0.2,0.4,0.6,0.8,0.2,0.8,0.2,,,0.6729,,0.6,0.4,0.2,0.8,0.6,0.4,0.8,0.2,1,0
,,61190367632a534f9e11b013,66daf5cf898dc162a3d006cf,2024-09-06_14h32.19.217,mdp,2024.2.1,Win32,60.24096386,66d7945b1baad48e845df3ce,,,,,,,,,,,,,,,,,,,,,1093.9629,1093.9629,1093.9647,1094.8288,0,1,left,0.3373,,1094.8294,1095.9282,0,0,left,1095.9286,1097.4441,1,0,right,1,1097.4443,1097.4443,1097.4452,1098.9438,0,18,18,18,1,0.2,0.8,0.8,0.2,,,,,,,,,,,,,,,0.5778,,0.8,0.2,0.4,0.6,0.8,0.2,0.8,0.2,,,0.992,,0.4,0.6,0.8,0.2,0.6,0.4,0.8,0.2,1,0
,,61190367632a534f9e11b013,66daf5cf898dc162a3d006cf,2024-09-06_14h32.19.217,mdp,2024.2.1,Win32,60.24096386,66d7945b1baad48e845df3ce,,,,,,,,,,,,,,,,,,,,,1098.944,1098.944,1098.9444,1099.9268,0,1,left,0.4507,,1099.9275,1101.1596,1,0,right,1101.1602,1102.2593,1,0,right,1,1102.2593,1102.2593,1102.2598,1103.759,0,19,19,19,1,0.6,0.4,0.2,0.8,,,,,,,,,,,,,,,0.7043,,0.8,0.2,0.4,0.6,0.8,0.2,0.8,0.2,,,0.5726,,0.4,0.6,0.8,0.2,0.6,0.4,0.8,0.2,1,0
,,61190367632a534f9e11b013,66daf5cf898dc162a3d006cf,2024-09-06_14h32.19.217,mdp,2024.2.1,Win32,60.24096386,66d7945b1baad48e845df3ce,,,,,,,,,,,,,,,,,,,,,1103.7593,1103.7593,1103.7599,1104.5417,0,1,left,0.2603,,1104.5422,1107.0909,1,1,right,1107.0914,1109.0235,0,1,left,0,1109.0236,1109.0236,1109.024,1110.5235,0,20,20,20,1,0.6,0.4,0.2,0.8,,,,,,,,,,,,,,,2.0364,,0.2,0.8,0.6,0.4,0.8,0.2,0.8,0.2,,,1.4002,,0.4,0.6,0.8,0.2,0.6,0.4,0.8,0.2,1,0
,,61190367632a534f9e11b013,66daf5cf898dc162a3d006cf,2024-09-06_14h32.19.217,mdp,2024.2.1,Win32,60.24096386,66d7945b1baad48e845df3ce,,,,,,,,,,,,,,,,,,,,,1110.5239,1110.5239,1110.5245,1111.5228,0,0,left,0.4715,,1111.5233,1113.8054,0,1,left,1113.8119,1115.255,0,0,left,1,1115.2552,1115.2552,1115.2557,1116.7545,0,21,21,21,1,0.6,0.4,0.2,0.8,,,,,,,,,,,,,,,1.7582,,0.2,0.8,0.6,0.4,0.8,0.2,0.8,0.2,,,0.9161,,0.2,0.8,0.6,0.4,0.6,0.4,0.8,0.2,1,0
,,61190367632a534f9e11b013,66daf5cf898dc162a3d006cf,2024-09-06_14h32.19.217,mdp,2024.2.1,Win32,60.24096386,66d7945b1baad48e845df3ce,,,,,,,,,,,,,,,,,,,,,1116.755,1116.755,1116.7562,1117.8542,0,1,left,0.5666,,1117.8548,1119.4199,1,0,right,1119.4204,1120.9029,0,1,left,0,1120.903,1120.903,1120.9036,1122.4027,0,22,22,22,1,0.6,0.4,0.2,0.8,,,,,,,,,,,,,,,1.0366,,0.2,0.8,0.6,0.4,0.8,0.2,0.8,0.2,,,0.9623,,0.2,0.8,0.6,0.4,0.6,0.4,0.8,0.2,1,0
,,61190367632a534f9e11b013,66daf5cf898dc162a3d006cf,2024-09-06_14h32.19.217,mdp,2024.2.1,Win32,60.24096386,66d7945b1baad48e845df3ce,,,,,,,,,,,,,,,,,,,,,1122.4031,1122.4031,1122.4039,1123.2022,0,1,left,0.2716,,1123.203,1124.6015,0,0,left,1124.602,1125.901,0,1,left,0,1125.9011,1125.9011,1125.9016,1127.4012,0,23,23,23,1,0.6,0.4,0.2,0.8,,,,,,,,,,,,,,,0.8778,,0.2,0.8,0.6,0.4,0.8,0.2,0.8,0.2,,,0.7779,,0.2,0.8,0.6,0.4,0.4,0.6,0.6,0.4,1,0
,,61190367632a534f9e11b013,66daf5cf898dc162a3d006cf,2024-09-06_14h32.19.217,mdp,2024.2.1,Win32,60.24096386,66d7945b1baad48e845df3ce,,,,,,,,,,,,,,,,,,,,,1127.4015,1127.4015,1127.4021,1128.2501,0,1,left,0.3216,,1128.2509,1129.3336,1,0,right,1129.335,1130.7328,1,0,right,1,1130.7328,1130.7328,1130.7334,1132.2326,0,24,24,24,1,0.6,0.4,0.2,0.8,,,,,,,,,,,,,,,0.5758,,0.2,0.8,0.6,0.4,0.8,0.2,0.8,0.2,,,0.8688,,0.2,0.8,0.6,0.4,0.4,0.6,0.6,0.4,1,0
,,61190367632a534f9e11b013,66daf5cf898dc162a3d006cf,2024-09-06_14h32.19.217,mdp,2024.2.1,Win32,60.24096386,66d7945b1baad48e845df3ce,,,,,,,,,,,,,,,,,,,,,1132.2329,1132.2329,1132.2336,1133.7487,0,0,left,0.9847,,1133.7494,1135.6976,0,1,left,1135.6981,1136.8974,1,1,right,0,1136.8974,1136.8974,1136.8978,1138.3971,0,25,25,25,1,0.6,0.4,0.2,0.8,,,,,,,,,,,,,,,1.4156,,0.4,0.6,0.8,0.2,0.8,0.2,0.8,0.2,,,0.6847,,0.2,0.8,0.6,0.4,0.4,0.6,0.6,0.4,1,0
,,61190367632a534f9e11b013,66daf5cf898dc162a3d006cf,2024-09-06_14h32.19.217,mdp,2024.2.1,Win32,60.24096386,66d7945b1baad48e845df3ce,,,,,,,,,,,,,,,,,,,,,1138.3975,1138.3975,1138.3982,1139.2299,0,1,left,0.3036,,1139.2307,1140.4296,1,0,right,1140.43,1141.5289,1,1,right,0,1141.529,1141.529,1141.5297,1143.0288,0,26,26,26,1,0.6,0.4,0.2,0.8,,,,,,,,,,,,,,,0.6642,,0.4,0.6,0.8,0.2,0.8,0.2,0.8,0.2,,,0.5679,,0.2,0.8,0.6,0.4,0.4,0.6,0.6,0.4,1,0
,,61190367632a534f9e11b013,66daf5cf898dc162a3d006cf,2024-09-06_14h32.19.217,mdp,2024.2.1,Win32,60.24096386,66d7945b1baad48e845df3ce,,,,,,,,,,,,,,,,,,,,,1143.0291,1143.0291,1143.0297,1143.7949,0,1,left,0.2377,,1143.7957,1144.6781,0,0,left,1144.6785,1145.5446,0,1,left,0,1145.5446,1145.5446,1145.545,1147.044,0,27,27,27,1,0.6,0.4,0.2,0.8,,,,,,,,,,,,,,,0.3679,,0.4,0.6,0.8,0.2,0.8,0.2,0.8,0.2,,,0.338,,0.2,0.8,0.6,0.4,0.2,0.8,0.8,0.2,1,0
,,61190367632a534f9e11b013,66daf5cf898dc162a3d006cf,2024-09-06_14h32.19.217,mdp,2024.2.1,Win32,60.24096386,66d7945b1baad48e845df3ce,,,,,,,,,,,,,,,,,,,,,1147.0441,1147.0441,1147.0445,1147.8103,0,1,left,0.236,,1147.8109,1148.5768,1,0,right,1148.5773,1149.3265,1,0,right,1,1149.3265,1149.3265,1149.3271,1150.8261,0,28,28,28,1,0.6,0.4,0.2,0.8,,,,,,,,,,,,,,,0.2342,,0.4,0.6,0.8,0.2,0.8,0.2,0.8,0.2,,,0.2201,,0.2,0.8,0.6,0.4,0.2,0.8,0.8,0.2,1,0
,,61190367632a534f9e11b013,66daf5cf898dc162a3d006cf,2024-09-06_14h32.19.217,mdp,2024.2.1,Win32,60.24096386,66d7945b1baad48e845df3ce,,,,,,,,,,,,,,,,,,,,,1150.8264,1150.8264,1150.8273,1152.7422,1,1,right,1.3847,,1152.7428,1154.3081,0,0,left,1154.3085,1155.6409,1,0,right,1,1155.6409,1155.6409,1155.6414,1157.1405,0,29,29,29,1,0.6,0.4,0.2,0.8,,,,,,,,,,,,,,,1.0343,,0.4,0.6,0.8,0.2,0.8,0.2,0.8,0.2,,,0.8076,,0.2,0.8,0.6,0.4,0.2,0.8,0.8,0.2,1,0
,,61190367632a534f9e11b013,66daf5cf898dc162a3d006cf,2024-09-06_14h32.19.217,mdp,2024.2.1,Win32,60.24096386,66d7945b1baad48e845df3ce,,,,,,,,,,,,,,,,,,,,,1157.1409,1157.1409,1157.1416,1158.407,1,1,right,0.7336,,1158.4077,1159.9231,0,0,left,1159.9237,1160.9391,1,1,right,0,1160.9391,1160.9391,1160.9397,1162.4388,0,30,30,30,1,0.6,0.4,0.2,0.8,,,,,,,,,,,,,,,0.9837,,0.4,0.6,0.8,0.2,0.8,0.2,0.8,0.2,,,0.4929,,0.2,0.8,0.6,0.4,0.2,0.8,0.8,0.2,1,0
,,61190367632a534f9e11b013,66daf5cf898dc162a3d006cf,2024-09-06_14h32.19.217,mdp,2024.2.1,Win32,60.24096386,66d7945b1baad48e845df3ce,,,,,,,,,,,,,,,,,,,,,1162.439,1162.439,1162.4395,1163.2384,0,0,left,0.2724,,1163.2394,1164.2548,0,1,left,1164.2554,1165.071,1,0,right,1,1165.071,1165.071,1165.0716,1166.5705,0,31,31,31,1,0.6,0.4,0.2,0.8,,,,,,,,,,,,,,,0.4958,,0.4,0.6,0.8,0.2,0.8,0.2,0.8,0.2,,,0.3021,,0.2,0.8,0.6,0.4,0.2,0.8,0.8,0.2,1,0
,,61190367632a534f9e11b013,66daf5cf898dc162a3d006cf,2024-09-06_14h32.19.217,mdp,2024.2.1,Win32,60.24096386,66d7945b1baad48e845df3ce,,,,,,,,,,,,,,,,,,,,,1166.5708,1166.5708,1166.5712,1167.1871,0,1,left,0.0898,,1167.1876,1168.47,1,0,right,1168.4706,1169.2365,0,1,left,0,1169.2365,1169.2365,1169.2371,1170.7357,0,32,32,32,1,0.6,0.4,0.2,0.8,,,,,,,,,,,,,,,0.7483,,0.8,0.2,0.4,0.6,0.8,0.2,0.8,0.2,,,0.2332,,0.2,0.8,0.6,0.4,0.2,0.8,0.8,0.2,1,0
,,61190367632a534f9e11b013,66daf5cf898dc162a3d006cf,2024-09-06_14h32.19.217,mdp,2024.2.1,Win32,60.24096386,66d7945b1baad48e845df3ce,,,,,,,,,,,,,,,,,,,,,1170.7361,1170.7361,1170.7369,1171.9356,0,1,left,0.6749,,1171.9362,1173.1186,1,0,right,1173.1191,1174.6347,1,0,right,1,1174.6348,1174.6348,1174.6351,1176.1343,0,33,33,33,1,0.6,0.4,0.2,0.8,,,,,,,,,,,,,,,0.6492,,0.8,0.2,0.4,0.6,0.8,0.2,0.8,0.2,,,0.9938,,0.2,0.8,0.6,0.4,0.2,0.8,0.8,0.2,1,0
,,61190367632a534f9e11b013,66daf5cf898dc162a3d006cf,2024-09-06_14h32.19.217,mdp,2024.2.1,Win32,60.24096386,66d7945b1baad48e845df3ce,,,,,,,,,,,,,,,,,,,,,1176.1349,1176.1349,1176.1362,1177.6667,0,1,left,1.0019,,1177.6672,1178.9832,1,0,right,1178.9838,1180.0326,0,0,left,1,1180.0326,1180.0326,1180.0331,1181.5324,0,34,34,34,1,0.6,0.4,0.2,0.8,,,,,,,,,,,,,,,0.7895,,0.8,0.2,0.4,0.6,0.8,0.2,0.8,0.2,,,0.5255,,0.2,0.8,0.6,0.4,0.2,0.8,0.8,0.2,1,0
,,61190367632a534f9e11b013,66daf5cf898dc162a3d006cf,2024-09-06_14h32.19.217,mdp,2024.2.1,Win32,60.24096386,66d7945b1baad48e845df3ce,,,,,,,,,,,,,,,,,,,,,1181.5327,1181.5327,1181.5334,1182.5819,0,0,left,0.5226,,1182.5823,1183.9481,0,0,left,1183.9488,1184.9975,1,0,right,1,1184.9977,1184.9977,1184.9989,1186.4975,0,35,35,35,1,0.6,0.4,0.2,0.8,,,,,,,,,,,,,,,0.8458,,0.2,0.8,0.8,0.2,0.8,0.2,0.8,0.2,,,0.5233,,0.2,0.8,0.6,0.4,0.2,0.8,0.8,0.2,1,0
,,61190367632a534f9e11b013,66daf5cf898dc162a3d006cf,2024-09-06_14h32.19.217,mdp,2024.2.1,Win32,60.24096386,66d7945b1baad48e845df3ce,,,,,,,,,,,,,,,,,,,,,1186.4978,1186.4978,1186.4983,1187.3632,0,0,left,0.343,,1187.3636,1188.3631,0,1,left,1188.3637,1190.0129,0,1,left,0,1190.0129,1190.0129,1190.0137,1191.5124,0,36,36,36,1,0.6,0.4,0.2,0.8,,,,,,,,,,,,,,,0.4892,,0.2,0.8,0.8,0.2,0.8,0.2,0.8,0.2,,,1.1149,,0.2,0.8,0.6,0.4,0.2,0.8,0.8,0.2,1,0
,,61190367632a534f9e11b013,66daf5cf898dc162a3d006cf,2024-09-06_14h32.19.217,mdp,2024.2.1,Win32,60.24096386,66d7945b1baad48e845df3ce,,,,,,,,,,,,,,,,,,,,,1191.5128,1191.5128,1191.5132,1192.3619,0,1,left,0.3235,,1192.3624,1193.2452,0,0,left,1193.2458,1194.1449,1,0,right,1,1194.145,1194.145,1194.1456,1195.644,0,37,37,37,1,0.6,0.4,0.2,0.8,,,,,,,,,,,,,,,0.3654,,0.2,0.8,0.8,0.2,0.8,0.2,0.8,0.2,,,0.3625,,0.2,0.8,0.6,0.4,0.2,0.8,0.8,0.2,1,0
,,61190367632a534f9e11b013,66daf5cf898dc162a3d006cf,2024-09-06_14h32.19.217,mdp,2024.2.1,Win32,60.24096386,66d7945b1baad48e845df3ce,,,,,,,,,,,,,,,,,,,,,1195.6445,1195.6445,1195.6452,1196.4437,0,1,left,0.2772,,1196.4443,1197.31,0,0,left,1197.3105,1198.0929,1,0,right,1,1198.093,1198.093,1198.0934,1199.5924,0,38,38,38,1,0.6,0.4,0.2,0.8,,,,,,,,,,,,,,,0.3334,,0.2,0.8,0.8,0.2,0.8,0.2,0.8,0.2,,,0.2685,,0.2,0.8,0.6,0.4,0.2,0.8,0.8,0.2,1,0
,,61190367632a534f9e11b013,66daf5cf898dc162a3d006cf,2024-09-06_14h32.19.217,mdp,2024.2.1,Win32,60.24096386,66d7945b1baad48e845df3ce,,,,,,,,,,,,,,,,,,,,,1199.5928,1199.5928,1199.5932,1200.7758,0,1,left,0.6491,,1200.7763,1202.3584,0,0,left,1202.3588,1203.3582,0,0,left,1,1203.3583,1203.3583,1203.3589,1204.8579,0,39,39,39,1,0.6,0.4,0.2,0.8,,,,,,,,,,,,,,,1.0484,,0.2,0.8,0.8,0.2,0.8,0.2,0.8,0.2,,,0.47,,0.6,0.4,0.8,0.2,0.2,0.8,0.8,0.2,1,0
,,61190367632a534f9e11b013,66daf5cf898dc162a3d006cf,2024-09-06_14h32.19.217,mdp,2024.2.1,Win32,60.24096386,66d7945b1baad48e845df3ce,,,,,,,,,,,,,,,,,,,,,1204.8584,1204.8584,1204.8592,1205.8574,0,0,left,0.468,,1205.8581,1208.6734,0,1,left,1208.6743,1209.9723,1,0,right,1,1209.9724,1209.9724,1209.9729,1211.4717,0,40,40,40,1,0.6,0.4,0.2,0.8,,,,,,,,,,,,,,,2.2795,,0.2,0.8,0.8,0.2,0.8,0.2,0.8,0.2,,,0.7634,,0.6,0.4,0.8,0.2,0.2,0.8,0.8,0.2,1,0
,,61190367632a534f9e11b013,66daf5cf898dc162a3d006cf,2024-09-06_14h32.19.217,mdp,2024.2.1,Win32,60.24096386,66d7945b1baad48e845df3ce,,,,,,,,,,,,,,,,,,,,,1211.4719,1211.4719,1211.4723,1212.7051,0,0,left,0.7013,,1212.7056,1214.2212,0,1,left,1214.2218,1216.2873,1,0,right,1,1216.2874,1216.2874,1216.2885,1217.7864,0,41,41,41,1,0.6,0.4,0.2,0.8,,,,,,,,,,,,,,,0.984,,0.2,0.8,0.8,0.2,0.8,0.2,0.8,0.2,,,1.5433,,0.6,0.4,0.8,0.2,0.2,0.8,0.8,0.2,1,0
,,61190367632a534f9e11b013,66daf5cf898dc162a3d006cf,2024-09-06_14h32.19.217,mdp,2024.2.1,Win32,60.24096386,66d7945b1baad48e845df3ce,,,,,,,,,,,,,,,,,,,,,1217.787,1217.787,1217.7878,1218.6694,0,0,left,0.3496,,1218.6709,1219.4361,0,1,left,1219.4373,1220.4353,1,0,right,1,1220.4354,1220.4354,1220.4369,1221.9359,0,42,42,42,1,0.6,0.4,0.2,0.8,,,,,,,,,,,,,,,0.2604,,0.2,0.8,0.8,0.2,0.8,0.2,0.8,0.2,,,0.4715,,0.8,0.2,0.4,0.6,0.2,0.8,0.8,0.2,1,0
,,61190367632a534f9e11b013,66daf5cf898dc162a3d006cf,2024-09-06_14h32.19.217,mdp,2024.2.1,Win32,60.24096386,66d7945b1baad48e845df3ce,,,,,,,,,,,,,,,,,,,,,1221.9363,1221.9363,1221.9369,1223.0009,0,0,left,0.5337,,1223.0021,1223.9515,0,1,left,1223.9526,1225.1839,1,1,right,0,1225.1841,1225.1841,1225.1854,1226.6834,0,43,43,43,1,0.8,0.2,0.8,0.2,,,,,,,,,,,,,,,0.4413,,0.2,0.8,0.8,0.2,0.8,0.2,0.8,0.2,,,0.7089,,0.8,0.2,0.4,0.6,0.2,0.8,0.8,0.2,1,0
,,61190367632a534f9e11b013,66daf5cf898dc162a3d006cf,2024-09-06_14h32.19.217,mdp,2024.2.1,Win32,60.24096386,66d7945b1baad48e845df3ce,,,,,,,,,,,,,,,,,,,,,1226.6836,1226.6836,1226.6846,1227.683,0,0,left,0.4832,,1227.6838,1228.6166,0,1,left,1228.6178,1229.7323,0,1,left,0,1229.7324,1229.7324,1229.7329,1231.232,0,44,44,44,1,0.8,0.2,0.8,0.2,,,,,,,,,,,,,,,0.4189,,0.2,0.8,0.8,0.2,0.8,0.2,0.8,0.2,,,0.5903,,0.8,0.2,0.4,0.6,0.2,0.8,0.8,0.2,1,0
,,61190367632a534f9e11b013,66daf5cf898dc162a3d006cf,2024-09-06_14h32.19.217,mdp,2024.2.1,Win32,60.24096386,66d7945b1baad48e845df3ce,,,,,,,,,,,,,,,,,,,,,1231.233,1231.2331,1231.2341,1232.0486,0,0,left,0.2901,,1232.0497,1233.1651,1,1,right,1233.1661,1234.115,1,0,right,1,1234.1151,1234.1151,1234.1159,1235.6144,0,45,45,45,1,0.8,0.2,0.8,0.2,,,,,,,,,,,,,,,0.5918,,0.2,0.8,0.8,0.2,0.8,0.2,0.8,0.2,,,0.4389,,0.8,0.2,0.4,0.6,0.2,0.8,0.8,0.2,1,0
,,61190367632a534f9e11b013,66daf5cf898dc162a3d006cf,2024-09-06_14h32.19.217,mdp,2024.2.1,Win32,60.24096386,66d7945b1baad48e845df3ce,,,,,,,,,,,,,,,,,,,,,1235.6157,1235.6157,1235.6173,1236.4803,0,0,left,0.3371,,1236.4812,1237.5629,1,0,right,1237.5643,1238.7624,0,1,left,0,1238.7624,1238.7624,1238.7635,1240.263,0,46,46,46,1,0.8,0.2,0.8,0.2,,,,,,,,,,,,,,,0.553,,0.2,0.8,0.8,0.2,0.8,0.2,0.8,0.2,,,0.6516,,0.8,0.2,0.4,0.6,0.2,0.8,0.8,0.2,1,0
,,61190367632a534f9e11b013,66daf5cf898dc162a3d006cf,2024-09-06_14h32.19.217,mdp,2024.2.1,Win32,60.24096386,66d7945b1baad48e845df3ce,,,,,,,,,,,,,,,,,,,,,1240.2637,1240.2637,1240.2645,1241.0793,0,0,left,0.2835,,1241.0804,1241.9452,0,1,left,1241.9463,1242.9113,0,1,left,0,1242.9114,1242.9114,1242.9128,1244.4115,0,47,47,47,1,0.6,0.4,0.4,0.6,,,,,,,,,,,,,,,0.3337,,0.2,0.8,0.8,0.2,0.8,0.2,0.8,0.2,,,0.4336,,0.8,0.2,0.4,0.6,0.2,0.8,0.8,0.2,1,0
,,61190367632a534f9e11b013,66daf5cf898dc162a3d006cf,2024-09-06_14h32.19.217,mdp,2024.2.1,Win32,60.24096386,66d7945b1baad48e845df3ce,,,,,,,,,,,,,,,,,,,,,1244.4121,1244.4121,1244.4126,1245.1441,0,0,left,0.2004,,1245.1452,1246.0436,0,1,left,1246.0454,1247.0598,1,0,right,1,1247.0599,1247.0599,1247.061,1248.5597,0,48,48,48,1,0.6,0.4,0.4,0.6,,,,,,,,,,,,,,,0.3659,,0.2,0.8,0.8,0.2,0.8,0.2,0.8,0.2,,,0.4934,,0.8,0.2,0.4,0.6,0.2,0.8,0.8,0.2,1,0
,,61190367632a534f9e11b013,66daf5cf898dc162a3d006cf,2024-09-06_14h32.19.217,mdp,2024.2.1,Win32,60.24096386,66d7945b1baad48e845df3ce,,,,,,,,,,,,,,,,,,,,,1248.5604,1248.5605,1248.5612,1249.56,0,1,left,0.4686,,1249.5612,1250.6425,0,1,left,1250.6434,1251.9252,1,1,right,0,1251.9253,1251.9253,1251.9261,1253.4253,0,49,49,49,1,0.6,0.4,0.4,0.6,,,,,,,,,,,,,,,0.5358,,0.2,0.8,0.8,0.2,0.8,0.2,0.8,0.2,,,0.7516,,0.8,0.2,0.4,0.6,0.2,0.8,0.8,0.2,1,0
,,61190367632a534f9e11b013,66daf5cf898dc162a3d006cf,2024-09-06_14h32.19.217,mdp,2024.2.1,Win32,60.24096386,66d7945b1baad48e845df3ce,,,,,,,,,,,,,,,,,,,,,,,,,,,,,,,,,,,,,,,,,,,,,,,,,,,,,,,,1253.4255,1311.9381,0,3,3,4,1,imgs/giraffe.png,imgs/rabbit.png,imgs/dog.png,imgs/squirrel.png,imgs/pig.png,,,,,,,,,,,,,,,,,,,,,,,,
,,61190367632a534f9e11b013,66daf5cf898dc162a3d006cf,2024-09-06_14h32.19.217,mdp,2024.2.1,Win32,60.24096386,66d7945b1baad48e845df3ce,,,,,,,,,,,,,,1,seqs/st1seq2.csv,1311.9457,1318.7525,space,6.2903,,1318.7597,1318.7597,1318.7601,1322.8343,0,1,left,3.5395,,1322.8405,1322.8408,0,1,,1322.8411,1322.8413,1,1,,0,1322.8413,1322.8413,1322.8414,1324.3339,0,0,0,0,1,0.2,0.8,0.6,0.4,1,0,,,,,,,,,,,,,,,,,,,,,,,,,,,,,,,,,,,,
,,61190367632a534f9e11b013,66daf5cf898dc162a3d006cf,2024-09-06_14h32.19.217,mdp,2024.2.1,Win32,60.24096386,66d7945b1baad48e845df3ce,,,,,,,,,,,,,,,,,,,,,1324.3348,1324.3348,1324.3353,1326.649,1,1,right,1.7859,,1326.6501,1326.6511,0,0,,1326.6518,1326.6523,1,0,,0,1326.6523,1326.6523,1326.653,1328.1487,0,1,1,1,1,0.2,0.8,0.6,0.4,1,0,,,,,,,,,,,,,,,,,,,,,,,,,,,,,,,,,,,,
,,61190367632a534f9e11b013,66daf5cf898dc162a3d006cf,2024-09-06_14h32.19.217,mdp,2024.2.1,Win32,60.24096386,66d7945b1baad48e845df3ce,,,,,,,,,,,,,,,,,,,,,1328.1489,1328.1489,1328.1498,1329.3149,0,0,left,0.6431,,1329.3153,1329.3158,0,0,,1329.3165,1329.3169,1,0,,1,1329.3169,1329.317,1329.3171,1330.8146,0,2,2,2,1,0.8,0.2,0.8,0.2,1,0,,,,,,,,,,,,,,,,,,,,,,,,,,,,,,,,,,,,
,,61190367632a534f9e11b013,66daf5cf898dc162a3d006cf,2024-09-06_14h32.19.217,mdp,2024.2.1,Win32,60.24096386,66d7945b1baad48e845df3ce,,,,,,,,,,,,,,,,,,,,,1330.8152,1330.8153,1330.8161,1331.8981,0,1,left,0.5514,,1331.8991,1331.8997,0,0,,1331.9,1331.9003,1,0,,0,1331.9003,1331.9003,1331.9004,1333.3974,0,3,3,3,1,0.8,0.2,0.8,0.2,1,0,,,,,,,,,,,,,,,,,,,,,,,,,,,,,,,,,,,,
,,61190367632a534f9e11b013,66daf5cf898dc162a3d006cf,2024-09-06_14h32.19.217,mdp,2024.2.1,Win32,60.24096386,66d7945b1baad48e845df3ce,,,,,,,,,,,,,,,,,,,,,1333.3981,1333.3981,1333.3986,1334.3132,1,1,right,0.3847,,1334.3144,1334.3147,0,1,,1334.315,1334.3151,1,1,,0,1334.3151,1334.3151,1334.3152,1335.813,0,4,4,4,1,0.6,0.4,0.2,0.8,1,0,,,,,,,,,,,,,,,,,,,,,,,,,,,,,,,,,,,,
,,61190367632a534f9e11b013,66daf5cf898dc162a3d006cf,2024-09-06_14h32.19.217,mdp,2024.2.1,Win32,60.24096386,66d7945b1baad48e845df3ce,,,,,,,,,,,,,,,,,,,,,1335.8135,1335.8135,1335.8145,1337.0462,1,0,right,0.7098,,1337.047,1337.0473,0,1,,1337.0475,1337.0477,1,1,,1,1337.0477,1337.0477,1337.0478,1338.5457,0,5,5,5,1,0.6,0.4,0.2,0.8,1,0,,,,,,,,,,,,,,,,,,,,,,,,,,,,,,,,,,,,
,,61190367632a534f9e11b013,66daf5cf898dc162a3d006cf,2024-09-06_14h32.19.217,mdp,2024.2.1,Win32,60.24096386,66d7945b1baad48e845df3ce,,,,,,,,,,,,,,,,,,,,,1338.5464,1338.5464,1338.5473,1339.4119,0,0,left,0.3334,,1339.4129,1339.4132,0,1,,1339.4137,1339.4144,1,1,,1,1339.4145,1339.4145,1339.4148,1340.9115,0,6,6,6,1,0.6,0.4,0.2,0.8,1,0,,,,,,,,,,,,,,,,,,,,,,,,,,,,,,,,,,,,
,,61190367632a534f9e11b013,66daf5cf898dc162a3d006cf,2024-09-06_14h32.19.217,mdp,2024.2.1,Win32,60.24096386,66d7945b1baad48e845df3ce,,,,,,,,,,,,,,,,,,,,,1340.9121,1340.9122,1340.9128,1341.7111,1,1,right,0.2671,,1341.7121,1341.7123,0,1,,1341.7125,1341.7128,1,1,,0,1341.7128,1341.7128,1341.713,1343.2111,0,7,7,7,1,0.6,0.4,0.2,0.8,1,0,,,,,,,,,,,,,,,,,,,,,,,,,,,,,,,,,,,,
,,61190367632a534f9e11b013,66daf5cf898dc162a3d006cf,2024-09-06_14h32.19.217,mdp,2024.2.1,Win32,60.24096386,66d7945b1baad48e845df3ce,,,,,,,,,,,,,,,,,,,,,1343.2117,1343.2117,1343.2123,1344.294,0,1,left,0.554,,1344.2948,1344.2954,0,0,,1344.2959,1344.2961,1,0,,0,1344.2961,1344.2961,1344.2963,1345.7929,0,8,8,8,1,0.6,0.4,0.2,0.8,1,0,,,,,,,,,,,,,,,,,,,,,,,,,,,,,,,,,,,,
,,61190367632a534f9e11b013,66daf5cf898dc162a3d006cf,2024-09-06_14h32.19.217,mdp,2024.2.1,Win32,60.24096386,66d7945b1baad48e845df3ce,,,,,,,,,,,,,,,,,,,,,1345.7935,1345.7935,1345.7943,1348.375,0,0,left,2.0559,,1348.3812,1348.3816,0,1,,1348.3818,1348.3821,1,0,,1,1348.3821,1348.3821,1348.3822,1349.8747,0,9,9,9,1,0.6,0.4,0.2,0.8,1,0,,,,,,,,,,,,,,,,,,,,,,,,,,,,,,,,,,,,
,,61190367632a534f9e11b013,66daf5cf898dc162a3d006cf,2024-09-06_14h32.19.217,mdp,2024.2.1,Win32,60.24096386,66d7945b1baad48e845df3ce,,,,,,,,,,,,,,,,,,,,,1349.8753,1349.8753,1349.876,1351.0911,0,1,left,0.6853,,1351.0924,1351.0929,0,1,,1351.0933,1351.0936,1,1,,0,1351.0936,1351.0936,1351.0941,1352.5905,0,10,10,10,1,0.6,0.4,0.2,0.8,1,0,,,,,,,,,,,,,,,,,,,,,,,,,,,,,,,,,,,,
,,61190367632a534f9e11b013,66daf5cf898dc162a3d006cf,2024-09-06_14h32.19.217,mdp,2024.2.1,Win32,60.24096386,66d7945b1baad48e845df3ce,,,,,,,,,,,,,,,,,,,,,1352.5907,1352.5907,1352.5919,1354.9896,1,0,right,1.8926,,1354.9908,1354.9911,0,1,,1354.9913,1354.9914,1,0,,1,1354.9914,1354.9914,1354.9916,1356.4895,0,11,11,11,1,0.4,0.6,0.8,0.2,1,0,,,,,,,,,,,,,,,,,,,,,,,,,,,,,,,,,,,,
,,61190367632a534f9e11b013,66daf5cf898dc162a3d006cf,2024-09-06_14h32.19.217,mdp,2024.2.1,Win32,60.24096386,66d7945b1baad48e845df3ce,,,,,,,,,,,,,,,,,,,,,1356.4902,1356.4902,1356.4913,1357.4054,1,0,right,0.3907,,1357.4069,1357.4073,0,1,,1357.4078,1357.4081,1,0,,1,1357.4081,1357.4081,1357.4084,1358.9057,0,12,12,12,1,0.6,0.4,0.4,0.6,1,0,,,,,,,,,,,,,,,,,,,,,,,,,,,,,,,,,,,,
,,61190367632a534f9e11b013,66daf5cf898dc162a3d006cf,2024-09-06_14h32.19.217,mdp,2024.2.1,Win32,60.24096386,66d7945b1baad48e845df3ce,,,,,,,,,,,,,,,,,,,,,1358.9062,1358.9062,1358.9068,1359.8049,0,1,left,0.3684,,1359.806,1359.8063,0,0,,1359.8067,1359.8071,1,0,,0,1359.8071,1359.8071,1359.8074,1361.3049,0,13,13,13,1,0.6,0.4,0.4,0.6,1,0,,,,,,,,,,,,,,,,,,,,,,,,,,,,,,,,,,,,
,,61190367632a534f9e11b013,66daf5cf898dc162a3d006cf,2024-09-06_14h32.19.217,mdp,2024.2.1,Win32,60.24096386,66d7945b1baad48e845df3ce,,,,,,,,,,,,,,,,,,,,,1361.3053,1361.3053,1361.3057,1362.4544,0,0,left,0.618,,1362.4553,1362.4555,0,0,,1362.4558,1362.4561,1,1,,1,1362.4562,1362.4562,1362.4568,1363.9561,0,14,14,14,1,0.6,0.4,0.4,0.6,1,0,,,,,,,,,,,,,,,,,,,,,,,,,,,,,,,,,,,,
,,61190367632a534f9e11b013,66daf5cf898dc162a3d006cf,2024-09-06_14h32.19.217,mdp,2024.2.1,Win32,60.24096386,66d7945b1baad48e845df3ce,,,,,,,,,,,,,,,,,,,,,1363.9563,1363.9563,1363.9567,1364.9534,0,0,left,0.474,,1364.9544,1364.9546,0,0,,1364.9548,1364.955,1,0,,1,1364.955,1364.955,1364.9552,1366.4526,0,15,15,15,1,0.6,0.4,0.4,0.6,1,0,,,,,,,,,,,,,,,,,,,,,,,,,,,,,,,,,,,,
,,61190367632a534f9e11b013,66daf5cf898dc162a3d006cf,2024-09-06_14h32.19.217,mdp,2024.2.1,Win32,60.24096386,66d7945b1baad48e845df3ce,,,,,,,,,,,,,,,,,,,,,1366.4532,1366.4532,1366.454,1366.9856,1,0,right,0.0013,,1366.9868,1366.987,0,0,,1366.9875,1366.9878,1,1,,1,1366.9878,1366.9878,1366.988,1368.4856,0,16,16,16,1,0.4,0.6,0.8,0.2,1,0,,,,,,,,,,,,,,,,,,,,,,,,,,,,,,,,,,,,
,,61190367632a534f9e11b013,66daf5cf898dc162a3d006cf,2024-09-06_14h32.19.217,mdp,2024.2.1,Win32,60.24096386,66d7945b1baad48e845df3ce,,,,,,,,,,,,,,,,,,,,,1368.4861,1368.4861,1368.4866,1370.3009,1,0,right,1.2934,,1370.3012,1370.3022,0,1,,1370.3028,1370.303,1,0,,1,1370.303,1370.303,1370.3033,1371.8014,0,17,17,17,1,0.4,0.6,0.8,0.2,1,0,,,,,,,,,,,,,,,,,,,,,,,,,,,,,,,,,,,,
,,61190367632a534f9e11b013,66daf5cf898dc162a3d006cf,2024-09-06_14h32.19.217,mdp,2024.2.1,Win32,60.24096386,66d7945b1baad48e845df3ce,,,,,,,,,,,,,,,,,,,,,1371.8019,1371.8019,1371.8027,1372.6334,0,0,left,0.3015,,1372.635,1372.6354,0,0,,1372.6359,1372.6361,1,1,,1,1372.6361,1372.6361,1372.6363,1374.1338,0,18,18,18,1,0.4,0.6,0.8,0.2,1,0,,,,,,,,,,,,,,,,,,,,,,,,,,,,,,,,,,,,
,,61190367632a534f9e11b013,66daf5cf898dc162a3d006cf,2024-09-06_14h32.19.217,mdp,2024.2.1,Win32,60.24096386,66d7945b1baad48e845df3ce,,,,,,,,,,,,,,,,,,,,,1374.1345,1374.1346,1374.1359,1375.1331,0,0,left,0.4741,,1375.1342,1375.1345,0,0,,1375.1347,1375.1348,1,1,,1,1375.1349,1375.1349,1375.135,1376.6322,0,19,19,19,1,0.4,0.6,0.8,0.2,1,0,,,,,,,,,,,,,,,,,,,,,,,,,,,,,,,,,,,,
,,61190367632a534f9e11b013,66daf5cf898dc162a3d006cf,2024-09-06_14h32.19.217,mdp,2024.2.1,Win32,60.24096386,66d7945b1baad48e845df3ce,,,,,,,,,,,,,,,,,,,,,1376.6331,1376.6332,1376.6344,1377.5824,1,0,right,0.4167,,1377.5833,1377.5836,0,1,,1377.5839,1377.584,1,0,,1,1377.584,1377.584,1377.5842,1379.0817,0,20,20,20,1,0.6,0.4,0.6,0.4,1,0,,,,,,,,,,,,,,,,,,,,,,,,,,,,,,,,,,,,
,,61190367632a534f9e11b013,66daf5cf898dc162a3d006cf,2024-09-06_14h32.19.217,mdp,2024.2.1,Win32,60.24096386,66d7945b1baad48e845df3ce,,,,,,,,,,,,,,,,,,,,,1379.0823,1379.0823,1379.0835,1379.9148,1,1,right,0.2998,,1379.9159,1379.9172,0,0,,1379.9181,1379.9184,1,0,,0,1379.9184,1379.9184,1379.9185,1381.4145,0,21,21,21,1,0.6,0.4,0.6,0.4,1,0,,,,,,,,,,,,,,,,,,,,,,,,,,,,,,,,,,,,
,,61190367632a534f9e11b013,66daf5cf898dc162a3d006cf,2024-09-06_14h32.19.217,mdp,2024.2.1,Win32,60.24096386,66d7945b1baad48e845df3ce,,,,,,,,,,,,,,,,,,,,,1381.4153,1381.4153,1381.4169,1382.2467,0,1,left,0.3062,,1382.2479,1382.2484,0,1,,1382.2487,1382.2488,1,0,,0,1382.2488,1382.2488,1382.2489,1383.7467,0,22,22,22,1,0.6,0.4,0.6,0.4,1,0,,,,,,,,,,,,,,,,,,,,,,,,,,,,,,,,,,,,
,,61190367632a534f9e11b013,66daf5cf898dc162a3d006cf,2024-09-06_14h32.19.217,mdp,2024.2.1,Win32,60.24096386,66d7945b1baad48e845df3ce,,,,,,,,,,,,,,,,,,,,,1383.7472,1383.7473,1383.7478,1384.5801,0,1,left,0.3004,,1384.5812,1384.5815,0,1,,1384.5819,1384.5821,1,0,,0,1384.5821,1384.5821,1384.5823,1386.0792,0,23,23,23,1,0.4,0.6,0.8,0.2,1,0,,,,,,,,,,,,,,,,,,,,,,,,,,,,,,,,,,,,
,,61190367632a534f9e11b013,66daf5cf898dc162a3d006cf,2024-09-06_14h32.19.217,mdp,2024.2.1,Win32,60.24096386,66d7945b1baad48e845df3ce,,,,,,,,,,,,,,,,,,,,,1386.0797,1386.0797,1386.0809,1386.9293,1,0,right,0.3205,,1386.9307,1386.9311,0,0,,1386.9315,1386.9317,1,0,,1,1386.9317,1386.9317,1386.9319,1388.4286,0,24,24,24,1,0.4,0.6,0.8,0.2,1,0,,,,,,,,,,,,,,,,,,,,,,,,,,,,,,,,,,,,
,,61190367632a534f9e11b013,66daf5cf898dc162a3d006cf,2024-09-06_14h32.19.217,mdp,2024.2.1,Win32,60.24096386,66d7945b1baad48e845df3ce,,,,,,,,,,,,,,,,,,,,,1388.4291,1388.4292,1388.4299,1389.2449,1,0,right,0.2873,,1389.2458,1389.2466,0,1,,1389.2471,1389.2474,1,0,,1,1389.2474,1389.2474,1389.2475,1390.744,0,25,25,25,1,0.4,0.6,0.8,0.2,1,0,,,,,,,,,,,,,,,,,,,,,,,,,,,,,,,,,,,,
,,61190367632a534f9e11b013,66daf5cf898dc162a3d006cf,2024-09-06_14h32.19.217,mdp,2024.2.1,Win32,60.24096386,66d7945b1baad48e845df3ce,,,,,,,,,,,,,,,,,,,,,1390.7443,1390.7443,1390.7453,1391.5609,1,1,right,0.2951,,1391.5619,1391.5625,0,0,,1391.563,1391.5634,1,1,,0,1391.5634,1391.5634,1391.564,1393.0605,0,26,26,26,1,0.8,0.2,0.2,0.8,1,0,,,,,,,,,,,,,,,,,,,,,,,,,,,,,,,,,,,,
,,61190367632a534f9e11b013,66daf5cf898dc162a3d006cf,2024-09-06_14h32.19.217,mdp,2024.2.1,Win32,60.24096386,66d7945b1baad48e845df3ce,,,,,,,,,,,,,,,,,,,,,1393.0612,1393.0612,1393.0622,1393.91,0,0,left,0.3166,,1393.9111,1393.9114,0,0,,1393.9118,1393.9119,1,0,,1,1393.9119,1393.9119,1393.9121,1395.4094,0,27,27,27,1,0.8,0.2,0.2,0.8,1,0,,,,,,,,,,,,,,,,,,,,,,,,,,,,,,,,,,,,
,,61190367632a534f9e11b013,66daf5cf898dc162a3d006cf,2024-09-06_14h32.19.217,mdp,2024.2.1,Win32,60.24096386,66d7945b1baad48e845df3ce,,,,,,,,,,,,,,,,,,,,,1395.4101,1395.4101,1395.4116,1396.2255,0,0,left,0.2853,,1396.2265,1396.2272,0,0,,1396.2275,1396.2277,1,0,,1,1396.2278,1396.2278,1396.2282,1397.7269,0,28,28,28,1,0.8,0.2,0.2,0.8,1,0,,,,,,,,,,,,,,,,,,,,,,,,,,,,,,,,,,,,
,,61190367632a534f9e11b013,66daf5cf898dc162a3d006cf,2024-09-06_14h32.19.217,mdp,2024.2.1,Win32,60.24096386,66d7945b1baad48e845df3ce,,,,,,,,,,,,,,,,,,,,,1397.727,1397.7271,1397.7274,1398.5747,0,0,left,0.3209,,1398.5755,1398.5766,0,0,,1398.5772,1398.5777,1,0,,1,1398.5777,1398.5777,1398.5782,1400.0749,0,29,29,29,1,0.8,0.2,0.2,0.8,1,0,,,,,,,,,,,,,,,,,,,,,,,,,,,,,,,,,,,,
,,61190367632a534f9e11b013,66daf5cf898dc162a3d006cf,2024-09-06_14h32.19.217,mdp,2024.2.1,Win32,60.24096386,66d7945b1baad48e845df3ce,,,,,,,,,,,,,,,,,,,,,1400.0754,1400.0754,1400.0758,1401.0413,0,0,left,0.4193,,1401.0425,1401.043,0,1,,1401.0438,1401.0442,1,1,,1,1401.0444,1401.0444,1401.0448,1402.5409,0,30,30,30,1,0.4,0.6,0.6,0.4,1,0,,,,,,,,,,,,,,,,,,,,,,,,,,,,,,,,,,,,
,,61190367632a534f9e11b013,66daf5cf898dc162a3d006cf,2024-09-06_14h32.19.217,mdp,2024.2.1,Win32,60.24096386,66d7945b1baad48e845df3ce,,,,,,,,,,,,,,,,,,,,,1402.5414,1402.5414,1402.5421,1403.4064,0,1,left,0.3406,,1403.4077,1403.4078,0,0,,1403.4081,1403.4083,1,0,,0,1403.4083,1403.4083,1403.4084,1404.9064,0,31,31,31,1,0.4,0.6,0.6,0.4,1,0,,,,,,,,,,,,,,,,,,,,,,,,,,,,,,,,,,,,
,,61190367632a534f9e11b013,66daf5cf898dc162a3d006cf,2024-09-06_14h32.19.217,mdp,2024.2.1,Win32,60.24096386,66d7945b1baad48e845df3ce,,,,,,,,,,,,,,,,,,,,,1404.9071,1404.9071,1404.9079,1405.7221,1,1,right,0.2834,,1405.723,1405.724,0,0,,1405.7246,1405.7249,1,1,,0,1405.725,1405.725,1405.7253,1407.2216,0,32,32,32,1,0.6,0.4,0.4,0.6,1,0,,,,,,,,,,,,,,,,,,,,,,,,,,,,,,,,,,,,
,,61190367632a534f9e11b013,66daf5cf898dc162a3d006cf,2024-09-06_14h32.19.217,mdp,2024.2.1,Win32,60.24096386,66d7945b1baad48e845df3ce,,,,,,,,,,,,,,,,,,,,,1407.2218,1407.2218,1407.2226,1408.0547,1,0,right,0.3029,,1408.0559,1408.0562,0,1,,1408.0564,1408.0566,1,0,,1,1408.0566,1408.0566,1408.0567,1409.5546,0,33,33,33,1,0.6,0.4,0.4,0.6,1,0,,,,,,,,,,,,,,,,,,,,,,,,,,,,,,,,,,,,
,,61190367632a534f9e11b013,66daf5cf898dc162a3d006cf,2024-09-06_14h32.19.217,mdp,2024.2.1,Win32,60.24096386,66d7945b1baad48e845df3ce,,,,,,,,,,,,,,,,,,,,,1409.5552,1409.5552,1409.5558,1410.4707,0,1,left,0.3856,,1410.4719,1410.4722,0,0,,1410.4726,1410.4727,1,0,,0,1410.4727,1410.4727,1410.473,1411.9706,0,34,34,34,1,0.6,0.4,0.4,0.6,1,0,,,,,,,,,,,,,,,,,,,,,,,,,,,,,,,,,,,,
,,61190367632a534f9e11b013,66daf5cf898dc162a3d006cf,2024-09-06_14h32.19.217,mdp,2024.2.1,Win32,60.24096386,66d7945b1baad48e845df3ce,,,,,,,,,,,,,,,,,,,,,1411.9714,1411.9714,1411.9723,1412.8195,1,1,right,0.318,,1412.8209,1412.8213,0,1,,1412.8214,1412.8217,1,1,,0,1412.8217,1412.8217,1412.8218,1414.3194,0,35,35,35,1,0.6,0.4,0.4,0.6,1,0,,,,,,,,,,,,,,,,,,,,,,,,,,,,,,,,,,,,
,,61190367632a534f9e11b013,66daf5cf898dc162a3d006cf,2024-09-06_14h32.19.217,mdp,2024.2.1,Win32,60.24096386,66d7945b1baad48e845df3ce,,,,,,,,,,,,,,,,,,,,,1414.3203,1414.3203,1414.3215,1414.9196,0,0,left,0.0695,,1414.9205,1414.9208,0,0,,1414.9211,1414.9213,1,0,,1,1414.9213,1414.9213,1414.9215,1416.4187,0,36,36,36,1,0.6,0.4,0.4,0.6,1,0,,,,,,,,,,,,,,,,,,,,,,,,,,,,,,,,,,,,
,,61190367632a534f9e11b013,66daf5cf898dc162a3d006cf,2024-09-06_14h32.19.217,mdp,2024.2.1,Win32,60.24096386,66d7945b1baad48e845df3ce,,,,,,,,,,,,,,,,,,,,,1416.4189,1416.4189,1416.4204,1417.0556,0,0,left,0.1315,,1417.056,1417.0563,0,0,,1417.0566,1417.0567,1,0,,1,1417.0567,1417.0567,1417.0569,1418.5521,0,37,37,37,1,0.6,0.4,0.4,0.6,1,0,,,,,,,,,,,,,,,,,,,,,,,,,,,,,,,,,,,,
,,61190367632a534f9e11b013,66daf5cf898dc162a3d006cf,2024-09-06_14h32.19.217,mdp,2024.2.1,Win32,60.24096386,66d7945b1baad48e845df3ce,,,,,,,,,,,,,,,,,,,,,1418.5528,1418.5528,1418.5532,1419.3847,0,1,left,0.3021,,1419.3856,1419.386,0,0,,1419.3866,1419.387,1,0,,0,1419.387,1419.387,1419.3874,1420.8835,0,38,38,38,1,0.6,0.4,0.4,0.6,1,0,,,,,,,,,,,,,,,,,,,,,,,,,,,,,,,,,,,,
,,61190367632a534f9e11b013,66daf5cf898dc162a3d006cf,2024-09-06_14h32.19.217,mdp,2024.2.1,Win32,60.24096386,66d7945b1baad48e845df3ce,,,,,,,,,,,,,,,,,,,,,1420.8837,1420.8837,1420.8843,1421.7691,0,0,left,0.3719,,1421.7695,1421.7697,0,1,,1421.77,1421.7702,1,0,,1,1421.7702,1421.7703,1421.7704,1423.2669,0,39,39,39,1,0.6,0.4,0.4,0.6,1,0,,,,,,,,,,,,,,,,,,,,,,,,,,,,,,,,,,,,
,,61190367632a534f9e11b013,66daf5cf898dc162a3d006cf,2024-09-06_14h32.19.217,mdp,2024.2.1,Win32,60.24096386,66d7945b1baad48e845df3ce,,,,,,,,,,,,,,,,,,,,,1423.2676,1423.2676,1423.2683,1424.633,0,1,left,0.8344,,1424.634,1424.6342,0,0,,1424.6345,1424.6346,1,0,,0,1424.6346,1424.6346,1424.6348,1426.1319,0,40,40,40,1,0.6,0.4,0.4,0.6,1,0,,,,,,,,,,,,,,,,,,,,,,,,,,,,,,,,,,,,
