init_exp.started,init_exp.stopped,participant,session,date,expName,psychopyVersion,OS,frameRate,study_id,disp_instruction.started,disp_instruction.stopped,instruction.thisRepN,instruction.thisTrialN,instruction.thisN,instruction.thisIndex,instruction.ran,instimg_path,consent.started,consent.stopped,key_resp_3.keys,key_resp_3.rt,key_resp_3.duration,n_steps,sequence_path,init_block.started,init_block.stopped,key_resp.keys,key_resp.rt,key_resp.duration,init_trials.started,init_trials.stopped,step0.started,step0.stopped,act0,s1,res0.keys,res0.rt,res0.duration,step1.started,step1.stopped,act1,s2,res1.keys,step2.started,step2.stopped,act2,s3,res2.keys,rew,reward_comp.started,reward_comp.stopped,reward_disp.started,reward_disp.stopped,trials.thisRepN,trials.thisTrialN,trials.thisN,trials.thisIndex,trials.ran,s00a0s10,s00a0s11,s00a1s10,s00a1s11,rew10,rew11,break_block.started,break_block.stopped,block.thisRepN,block.thisTrialN,block.thisN,block.thisIndex,block.ran,s00path,s10path,s11path,s20path,s21path,res1.rt,res1.duration,s10a0s20,s10a0s21,s10a1s20,s10a1s21,s11a0s20,s11a0s21,s11a1s20,s11a1s21,rew20,rew21,res2.rt,res2.duration,s20a0s30,s20a0s31,s20a1s30,s20a1s31,s21a0s30,s21a0s31,s21a1s30,s21a1s31,rew30,rew31
0.0002,0.0021,6122f17c5f84f0f57feca3e6,66fc989d536b0676f95af6e8,2024-10-01_21h52.24.822,mdp,2024.2.1,MacIntel,59.84082341,66fa4ebf79326e780c390304,,,,,,,,,,,,,,,,,,,,,,,,,,,,,,,,,,,,,,,,,,,,,,,,,,,,,,,,,,,,,,,,,,,,,,,,,,,,,,,,,,,,,,,,,,,
,,6122f17c5f84f0f57feca3e6,66fc989d536b0676f95af6e8,2024-10-01_21h52.24.822,mdp,2024.2.1,MacIntel,59.84082341,66fa4ebf79326e780c390304,0.0074,34.2655,0,0,0,0,1,rlnn_exp/rlnn_exp.001.png,,,,,,,,,,,,,,,,,,,,,,,,,,,,,,,,,,,,,,,,,,,,,,,,,,,,,,,,,,,,,,,,,,,,,,,,,,,,,,,,,,,
,,6122f17c5f84f0f57feca3e6,66fc989d536b0676f95af6e8,2024-10-01_21h52.24.822,mdp,2024.2.1,MacIntel,59.84082341,66fa4ebf79326e780c390304,34.2672,86.389,0,1,1,1,1,rlnn_exp/rlnn_exp.002.png,,,,,,,,,,,,,,,,,,,,,,,,,,,,,,,,,,,,,,,,,,,,,,,,,,,,,,,,,,,,,,,,,,,,,,,,,,,,,,,,,,,
,,6122f17c5f84f0f57feca3e6,66fc989d536b0676f95af6e8,2024-10-01_21h52.24.822,mdp,2024.2.1,MacIntel,59.84082341,66fa4ebf79326e780c390304,86.3908,112.6753,0,2,2,2,1,rlnn_exp/rlnn_exp.003.png,,,,,,,,,,,,,,,,,,,,,,,,,,,,,,,,,,,,,,,,,,,,,,,,,,,,,,,,,,,,,,,,,,,,,,,,,,,,,,,,,,,
,,6122f17c5f84f0f57feca3e6,66fc989d536b0676f95af6e8,2024-10-01_21h52.24.822,mdp,2024.2.1,MacIntel,59.84082341,66fa4ebf79326e780c390304,112.6773,124.2048,0,3,3,3,1,rlnn_exp/rlnn_exp.004.png,,,,,,,,,,,,,,,,,,,,,,,,,,,,,,,,,,,,,,,,,,,,,,,,,,,,,,,,,,,,,,,,,,,,,,,,,,,,,,,,,,,
,,6122f17c5f84f0f57feca3e6,66fc989d536b0676f95af6e8,2024-10-01_21h52.24.822,mdp,2024.2.1,MacIntel,59.84082341,66fa4ebf79326e780c390304,,,,,,,,,124.2066,168.5265,y,34.2869,,,,,,,,,,,,,,,,,,,,,,,,,,,,,,,,,,,,,,,,,,,,,,,,,,,,,,,,,,,,,,,,,,,,,,,,,,,,,,,
,,6122f17c5f84f0f57feca3e6,66fc989d536b0676f95af6e8,2024-10-01_21h52.24.822,mdp,2024.2.1,MacIntel,59.84082341,66fa4ebf79326e780c390304,,,,,,,,,,,,,,1,seqs/st1seq16.csv,168.5337,171.515,space,2.4629,,171.5212,171.5214,171.5223,184.4004,1,0,right,12.3408,,184.401,184.4058,,0,,184.4062,184.4103,,1,,1,184.4104,184.4105,184.4108,185.9069,0,0,0,0,1,0.8,0.2,0.2,0.8,1,0,,,,,,,,,,,,,,,,,,,,,,,,,,,,,,,,,,,,
,,6122f17c5f84f0f57feca3e6,66fc989d536b0676f95af6e8,2024-10-01_21h52.24.822,mdp,2024.2.1,MacIntel,59.84082341,66fa4ebf79326e780c390304,,,,,,,,,,,,,,,,,,,,,185.9074,185.9074,185.9087,190.5812,0,0,left,4.1479,,190.5829,190.5873,,0,,190.5883,190.5918,,0,,1,190.592,190.592,190.5929,192.086,0,1,1,1,1,0.8,0.2,0.2,0.8,1,0,,,,,,,,,,,,,,,,,,,,,,,,,,,,,,,,,,,,
,,6122f17c5f84f0f57feca3e6,66fc989d536b0676f95af6e8,2024-10-01_21h52.24.822,mdp,2024.2.1,MacIntel,59.84082341,66fa4ebf79326e780c390304,,,,,,,,,,,,,,,,,,,,,192.0866,192.0867,192.089,195.8467,1,0,right,3.2501,,195.8495,195.8526,,0,,195.8535,195.856,,0,,1,195.8561,195.8561,195.8567,197.3518,0,2,2,2,1,0.6,0.4,0.4,0.6,1,0,,,,,,,,,,,,,,,,,,,,,,,,,,,,,,,,,,,,
,,6122f17c5f84f0f57feca3e6,66fc989d536b0676f95af6e8,2024-10-01_21h52.24.822,mdp,2024.2.1,MacIntel,59.84082341,66fa4ebf79326e780c390304,,,,,,,,,,,,,,,,,,,,,197.3525,197.3527,197.3545,199.4221,0,1,left,1.5407,,199.4242,199.4282,,0,,199.4293,199.4326,,0,,0,199.4327,199.4327,199.4339,200.928,0,3,3,3,1,0.6,0.4,0.4,0.6,1,0,,,,,,,,,,,,,,,,,,,,,,,,,,,,,,,,,,,,
,,6122f17c5f84f0f57feca3e6,66fc989d536b0676f95af6e8,2024-10-01_21h52.24.822,mdp,2024.2.1,MacIntel,59.84082341,66fa4ebf79326e780c390304,,,,,,,,,,,,,,,,,,,,,200.9292,200.9292,200.9309,202.0474,0,0,left,0.5857,,202.0493,202.0528,,1,,202.0539,202.0571,,0,,1,202.0572,202.0572,202.0582,203.5502,0,4,4,4,1,0.6,0.4,0.4,0.6,1,0,,,,,,,,,,,,,,,,,,,,,,,,,,,,,,,,,,,,
,,6122f17c5f84f0f57feca3e6,66fc989d536b0676f95af6e8,2024-10-01_21h52.24.822,mdp,2024.2.1,MacIntel,59.84082341,66fa4ebf79326e780c390304,,,,,,,,,,,,,,,,,,,,,203.5508,203.5509,203.5538,204.7887,0,1,left,0.7191,,204.7906,204.794,,0,,204.7951,204.7985,,0,,0,204.7985,204.7986,204.7996,206.2923,0,5,5,5,1,0.6,0.4,0.4,0.6,1,0,,,,,,,,,,,,,,,,,,,,,,,,,,,,,,,,,,,,
,,6122f17c5f84f0f57feca3e6,66fc989d536b0676f95af6e8,2024-10-01_21h52.24.822,mdp,2024.2.1,MacIntel,59.84082341,66fa4ebf79326e780c390304,,,,,,,,,,,,,,,,,,,,,206.2932,206.2932,206.295,206.8924,1,1,right,0.0695,,206.8945,206.8984,,1,,206.8995,206.9029,,0,,0,206.903,206.903,206.904,208.3982,0,6,6,6,1,0.6,0.4,0.4,0.6,1,0,,,,,,,,,,,,,,,,,,,,,,,,,,,,,,,,,,,,
,,6122f17c5f84f0f57feca3e6,66fc989d536b0676f95af6e8,2024-10-01_21h52.24.822,mdp,2024.2.1,MacIntel,59.84082341,66fa4ebf79326e780c390304,,,,,,,,,,,,,,,,,,,,,208.3991,208.3991,208.4008,209.182,1,0,right,0.252,,209.1837,209.1866,,1,,209.1873,209.1893,,1,,1,209.1894,209.1895,209.19,210.6877,0,7,7,7,1,0.6,0.4,0.4,0.6,1,0,,,,,,,,,,,,,,,,,,,,,,,,,,,,,,,,,,,,
,,6122f17c5f84f0f57feca3e6,66fc989d536b0676f95af6e8,2024-10-01_21h52.24.822,mdp,2024.2.1,MacIntel,59.84082341,66fa4ebf79326e780c390304,,,,,,,,,,,,,,,,,,,,,210.6886,210.6887,210.6907,211.523,1,1,right,0.3091,,211.5251,211.5284,,1,,211.5296,211.5329,,0,,0,211.533,211.533,211.5341,213.0272,0,8,8,8,1,0.6,0.4,0.4,0.6,1,0,,,,,,,,,,,,,,,,,,,,,,,,,,,,,,,,,,,,
,,6122f17c5f84f0f57feca3e6,66fc989d536b0676f95af6e8,2024-10-01_21h52.24.822,mdp,2024.2.1,MacIntel,59.84082341,66fa4ebf79326e780c390304,,,,,,,,,,,,,,,,,,,,,213.0279,213.028,213.0298,213.9437,1,0,right,0.3849,,213.9454,213.9496,,1,,213.9506,213.9539,,0,,1,213.9541,213.9541,213.9552,215.4483,0,9,9,9,1,0.2,0.8,0.6,0.4,1,0,,,,,,,,,,,,,,,,,,,,,,,,,,,,,,,,,,,,
,,6122f17c5f84f0f57feca3e6,66fc989d536b0676f95af6e8,2024-10-01_21h52.24.822,mdp,2024.2.1,MacIntel,59.84082341,66fa4ebf79326e780c390304,,,,,,,,,,,,,,,,,,,,,215.4489,215.4489,215.451,216.2511,1,0,right,0.2851,,216.2531,216.2569,,1,,216.2579,216.2612,,1,,1,216.2612,216.2612,216.2622,217.7535,0,10,10,10,1,0.2,0.8,0.6,0.4,1,0,,,,,,,,,,,,,,,,,,,,,,,,,,,,,,,,,,,,
,,6122f17c5f84f0f57feca3e6,66fc989d536b0676f95af6e8,2024-10-01_21h52.24.822,mdp,2024.2.1,MacIntel,59.84082341,66fa4ebf79326e780c390304,,,,,,,,,,,,,,,,,,,,,217.754,217.754,217.7558,218.5569,1,1,right,0.2851,,218.5588,218.5626,,1,,218.5638,218.5676,,0,,0,218.5677,218.5677,218.5687,220.0625,0,11,11,11,1,0.8,0.2,0.4,0.6,1,0,,,,,,,,,,,,,,,,,,,,,,,,,,,,,,,,,,,,
,,6122f17c5f84f0f57feca3e6,66fc989d536b0676f95af6e8,2024-10-01_21h52.24.822,mdp,2024.2.1,MacIntel,59.84082341,66fa4ebf79326e780c390304,,,,,,,,,,,,,,,,,,,,,220.0634,220.0634,220.0664,220.9131,0,0,left,0.3403,,220.9155,220.9189,,1,,220.9199,220.9226,,1,,1,220.9226,220.9226,220.9233,222.4188,0,12,12,12,1,0.4,0.6,0.8,0.2,1,0,,,,,,,,,,,,,,,,,,,,,,,,,,,,,,,,,,,,
,,6122f17c5f84f0f57feca3e6,66fc989d536b0676f95af6e8,2024-10-01_21h52.24.822,mdp,2024.2.1,MacIntel,59.84082341,66fa4ebf79326e780c390304,,,,,,,,,,,,,,,,,,,,,222.4202,222.4202,222.4216,223.2016,0,0,left,0.2525,,223.2031,223.2077,,0,,223.2089,223.2123,,0,,1,223.2124,223.2124,223.2134,224.7084,0,13,13,13,1,0.8,0.2,0.4,0.6,1,0,,,,,,,,,,,,,,,,,,,,,,,,,,,,,,,,,,,,
,,6122f17c5f84f0f57feca3e6,66fc989d536b0676f95af6e8,2024-10-01_21h52.24.822,mdp,2024.2.1,MacIntel,59.84082341,66fa4ebf79326e780c390304,,,,,,,,,,,,,,,,,,,,,224.7094,224.7095,224.7111,225.5415,1,0,right,0.3071,,225.5432,225.5475,,1,,225.5486,225.5525,,1,,1,225.5526,225.5526,225.5537,227.045,0,14,14,14,1,0.8,0.2,0.4,0.6,1,0,,,,,,,,,,,,,,,,,,,,,,,,,,,,,,,,,,,,
,,6122f17c5f84f0f57feca3e6,66fc989d536b0676f95af6e8,2024-10-01_21h52.24.822,mdp,2024.2.1,MacIntel,59.84082341,66fa4ebf79326e780c390304,,,,,,,,,,,,,,,,,,,,,227.0455,227.0455,227.0474,227.6496,0,0,left,0.0848,,227.6516,227.6549,,0,,227.656,227.6593,,0,,1,227.6594,227.6594,227.6604,229.1537,0,15,15,15,1,0.8,0.2,0.4,0.6,1,0,,,,,,,,,,,,,,,,,,,,,,,,,,,,,,,,,,,,
,,6122f17c5f84f0f57feca3e6,66fc989d536b0676f95af6e8,2024-10-01_21h52.24.822,mdp,2024.2.1,MacIntel,59.84082341,66fa4ebf79326e780c390304,,,,,,,,,,,,,,,,,,,,,229.1548,229.1548,229.1565,230.4375,0,1,left,0.7531,,230.4391,230.4435,,0,,230.4445,230.4479,,1,,0,230.448,230.448,230.4493,231.9441,0,16,16,16,1,0.2,0.8,0.6,0.4,1,0,,,,,,,,,,,,,,,,,,,,,,,,,,,,,,,,,,,,
,,6122f17c5f84f0f57feca3e6,66fc989d536b0676f95af6e8,2024-10-01_21h52.24.822,mdp,2024.2.1,MacIntel,59.84082341,66fa4ebf79326e780c390304,,,,,,,,,,,,,,,,,,,,,231.9448,231.9449,231.9467,232.628,1,1,right,0.1694,,232.6299,232.6338,,1,,232.6349,232.6384,,0,,0,232.6384,232.6384,232.6395,234.1334,0,17,17,17,1,0.6,0.4,0.4,0.6,1,0,,,,,,,,,,,,,,,,,,,,,,,,,,,,,,,,,,,,
,,6122f17c5f84f0f57feca3e6,66fc989d536b0676f95af6e8,2024-10-01_21h52.24.822,mdp,2024.2.1,MacIntel,59.84082341,66fa4ebf79326e780c390304,,,,,,,,,,,,,,,,,,,,,234.1342,234.1343,234.136,234.9845,1,1,right,0.3268,,234.9863,234.9902,,1,,234.991,234.9938,,0,,0,234.9938,234.9939,234.9945,236.4883,0,18,18,18,1,0.6,0.4,0.4,0.6,1,0,,,,,,,,,,,,,,,,,,,,,,,,,,,,,,,,,,,,
,,6122f17c5f84f0f57feca3e6,66fc989d536b0676f95af6e8,2024-10-01_21h52.24.822,mdp,2024.2.1,MacIntel,59.84082341,66fa4ebf79326e780c390304,,,,,,,,,,,,,,,,,,,,,236.4894,236.4895,236.4917,237.1899,1,1,right,0.1891,,237.1923,237.1962,,0,,237.1973,237.201,,1,,0,237.2011,237.2011,237.2022,238.6954,0,19,19,19,1,0.6,0.4,0.4,0.6,1,0,,,,,,,,,,,,,,,,,,,,,,,,,,,,,,,,,,,,
,,6122f17c5f84f0f57feca3e6,66fc989d536b0676f95af6e8,2024-10-01_21h52.24.822,mdp,2024.2.1,MacIntel,59.84082341,66fa4ebf79326e780c390304,,,,,,,,,,,,,,,,,,,,,238.696,238.696,238.6979,239.5131,0,0,left,0.3029,,239.5156,239.5194,,0,,239.5205,239.5241,,0,,1,239.5243,239.5243,239.5254,241.0184,0,20,20,20,1,0.6,0.4,0.4,0.6,1,0,,,,,,,,,,,,,,,,,,,,,,,,,,,,,,,,,,,,
,,6122f17c5f84f0f57feca3e6,66fc989d536b0676f95af6e8,2024-10-01_21h52.24.822,mdp,2024.2.1,MacIntel,59.84082341,66fa4ebf79326e780c390304,,,,,,,,,,,,,,,,,,,,,241.0191,241.0192,241.021,241.7858,0,0,left,0.2523,,241.7879,241.7918,,0,,241.7928,241.7961,,0,,1,241.7962,241.7962,241.7972,243.2897,0,21,21,21,1,0.8,0.2,0.6,0.4,1,0,,,,,,,,,,,,,,,,,,,,,,,,,,,,,,,,,,,,
,,6122f17c5f84f0f57feca3e6,66fc989d536b0676f95af6e8,2024-10-01_21h52.24.822,mdp,2024.2.1,MacIntel,59.84082341,66fa4ebf79326e780c390304,,,,,,,,,,,,,,,,,,,,,243.2903,243.2903,243.2925,244.0768,0,0,left,0.2696,,244.0787,244.082,,0,,244.083,244.0865,,0,,1,244.0865,244.0865,244.0875,245.579,0,22,22,22,1,0.8,0.2,0.6,0.4,1,0,,,,,,,,,,,,,,,,,,,,,,,,,,,,,,,,,,,,
,,6122f17c5f84f0f57feca3e6,66fc989d536b0676f95af6e8,2024-10-01_21h52.24.822,mdp,2024.2.1,MacIntel,59.84082341,66fa4ebf79326e780c390304,,,,,,,,,,,,,,,,,,,,,245.5795,245.5795,245.5818,246.3634,0,0,left,0.2695,,246.3654,246.3693,,0,,246.3703,246.3736,,0,,1,246.3736,246.3736,246.3748,247.87,0,23,23,23,1,0.8,0.2,0.6,0.4,1,0,,,,,,,,,,,,,,,,,,,,,,,,,,,,,,,,,,,,
,,6122f17c5f84f0f57feca3e6,66fc989d536b0676f95af6e8,2024-10-01_21h52.24.822,mdp,2024.2.1,MacIntel,59.84082341,66fa4ebf79326e780c390304,,,,,,,,,,,,,,,,,,,,,247.8707,247.8707,247.8727,248.672,0,0,left,0.2693,,248.6745,248.6782,,0,,248.6791,248.6819,,0,,1,248.682,248.682,248.6828,250.1748,0,24,24,24,1,0.8,0.2,0.6,0.4,1,0,,,,,,,,,,,,,,,,,,,,,,,,,,,,,,,,,,,,
,,6122f17c5f84f0f57feca3e6,66fc989d536b0676f95af6e8,2024-10-01_21h52.24.822,mdp,2024.2.1,MacIntel,59.84082341,66fa4ebf79326e780c390304,,,,,,,,,,,,,,,,,,,,,250.1753,250.1753,250.1776,250.9759,0,1,left,0.2855,,250.9776,250.982,,0,,250.983,250.9864,,0,,0,250.9864,250.9864,250.9877,252.4817,0,25,25,25,1,0.8,0.2,0.6,0.4,1,0,,,,,,,,,,,,,,,,,,,,,,,,,,,,,,,,,,,,
,,6122f17c5f84f0f57feca3e6,66fc989d536b0676f95af6e8,2024-10-01_21h52.24.822,mdp,2024.2.1,MacIntel,59.84082341,66fa4ebf79326e780c390304,,,,,,,,,,,,,,,,,,,,,252.4825,252.4826,252.4842,253.282,1,1,right,0.2888,,253.2836,253.2878,,1,,253.2888,253.292,,1,,0,253.292,253.2921,253.293,254.7888,0,26,26,26,1,0.8,0.2,0.6,0.4,1,0,,,,,,,,,,,,,,,,,,,,,,,,,,,,,,,,,,,,
,,6122f17c5f84f0f57feca3e6,66fc989d536b0676f95af6e8,2024-10-01_21h52.24.822,mdp,2024.2.1,MacIntel,59.84082341,66fa4ebf79326e780c390304,,,,,,,,,,,,,,,,,,,,,254.7896,254.7897,254.7913,255.9238,0,0,left,0.6052,,255.9259,255.9297,,0,,255.9308,255.9341,,0,,1,255.9341,255.9341,255.9352,257.4282,0,27,27,27,1,0.8,0.2,0.6,0.4,1,0,,,,,,,,,,,,,,,,,,,,,,,,,,,,,,,,,,,,
,,6122f17c5f84f0f57feca3e6,66fc989d536b0676f95af6e8,2024-10-01_21h52.24.822,mdp,2024.2.1,MacIntel,59.84082341,66fa4ebf79326e780c390304,,,,,,,,,,,,,,,,,,,,,257.429,257.4291,257.4314,258.2619,0,1,left,0.3027,,258.2636,258.2682,,0,,258.2692,258.2728,,1,,0,258.2728,258.2728,258.274,259.7674,0,28,28,28,1,0.8,0.2,0.6,0.4,1,0,,,,,,,,,,,,,,,,,,,,,,,,,,,,,,,,,,,,
,,6122f17c5f84f0f57feca3e6,66fc989d536b0676f95af6e8,2024-10-01_21h52.24.822,mdp,2024.2.1,MacIntel,59.84082341,66fa4ebf79326e780c390304,,,,,,,,,,,,,,,,,,,,,259.7685,259.7685,259.7704,260.5707,0,1,left,0.2681,,260.5726,260.5762,,1,,260.5774,260.5806,,0,,0,260.5807,260.5807,260.5817,262.0737,0,29,29,29,1,0.4,0.6,0.8,0.2,1,0,,,,,,,,,,,,,,,,,,,,,,,,,,,,,,,,,,,,
,,6122f17c5f84f0f57feca3e6,66fc989d536b0676f95af6e8,2024-10-01_21h52.24.822,mdp,2024.2.1,MacIntel,59.84082341,66fa4ebf79326e780c390304,,,,,,,,,,,,,,,,,,,,,262.0747,262.0747,262.0767,262.6254,0,0,left,0.0369,,262.6275,262.631,,0,,262.6321,262.6356,,1,,1,262.6357,262.6357,262.6367,264.1288,0,30,30,30,1,0.4,0.6,0.8,0.2,1,0,,,,,,,,,,,,,,,,,,,,,,,,,,,,,,,,,,,,
,,6122f17c5f84f0f57feca3e6,66fc989d536b0676f95af6e8,2024-10-01_21h52.24.822,mdp,2024.2.1,MacIntel,59.84082341,66fa4ebf79326e780c390304,,,,,,,,,,,,,,,,,,,,,264.1294,264.1295,264.1315,264.8975,1,1,right,0.2511,,264.8995,264.9033,,0,,264.9044,264.9077,,1,,0,264.9079,264.9079,264.9089,266.4027,0,31,31,31,1,0.6,0.4,0.4,0.6,1,0,,,,,,,,,,,,,,,,,,,,,,,,,,,,,,,,,,,,
,,6122f17c5f84f0f57feca3e6,66fc989d536b0676f95af6e8,2024-10-01_21h52.24.822,mdp,2024.2.1,MacIntel,59.84082341,66fa4ebf79326e780c390304,,,,,,,,,,,,,,,,,,,,,266.4035,266.4035,266.4054,267.1537,0,1,left,0.234,,267.1555,267.1594,,0,,267.1607,267.1643,,0,,0,267.1644,267.1644,267.1655,268.6588,0,32,32,32,1,0.6,0.4,0.4,0.6,1,0,,,,,,,,,,,,,,,,,,,,,,,,,,,,,,,,,,,,
,,6122f17c5f84f0f57feca3e6,66fc989d536b0676f95af6e8,2024-10-01_21h52.24.822,mdp,2024.2.1,MacIntel,59.84082341,66fa4ebf79326e780c390304,,,,,,,,,,,,,,,,,,,,,268.6595,268.6596,268.6613,269.4111,0,0,left,0.2193,,269.4131,269.4165,,1,,269.4176,269.4209,,1,,1,269.4209,269.4209,269.4219,270.9122,0,33,33,33,1,0.6,0.4,0.4,0.6,1,0,,,,,,,,,,,,,,,,,,,,,,,,,,,,,,,,,,,,
,,6122f17c5f84f0f57feca3e6,66fc989d536b0676f95af6e8,2024-10-01_21h52.24.822,mdp,2024.2.1,MacIntel,59.84082341,66fa4ebf79326e780c390304,,,,,,,,,,,,,,,,,,,,,270.9127,270.9127,270.9143,271.7508,1,1,right,0.3195,,271.7528,271.7561,,0,,271.7571,271.7604,,1,,0,271.7605,271.7605,271.7616,273.2529,0,34,34,34,1,0.6,0.4,0.4,0.6,1,0,,,,,,,,,,,,,,,,,,,,,,,,,,,,,,,,,,,,
,,6122f17c5f84f0f57feca3e6,66fc989d536b0676f95af6e8,2024-10-01_21h52.24.822,mdp,2024.2.1,MacIntel,59.84082341,66fa4ebf79326e780c390304,,,,,,,,,,,,,,,,,,,,,273.2534,273.2534,273.2567,274.0393,1,1,right,0.2684,,274.0415,274.0449,,0,,274.0458,274.0491,,0,,0,274.0491,274.0491,274.0501,275.5413,0,35,35,35,1,0.6,0.4,0.4,0.6,1,0,,,,,,,,,,,,,,,,,,,,,,,,,,,,,,,,,,,,
,,6122f17c5f84f0f57feca3e6,66fc989d536b0676f95af6e8,2024-10-01_21h52.24.822,mdp,2024.2.1,MacIntel,59.84082341,66fa4ebf79326e780c390304,,,,,,,,,,,,,,,,,,,,,275.5418,275.5418,275.5438,276.1776,1,1,right,0.1179,,276.1795,276.1833,,1,,276.1843,276.1875,,1,,0,276.1875,276.1876,276.1886,277.6817,0,36,36,36,1,0.6,0.4,0.4,0.6,1,0,,,,,,,,,,,,,,,,,,,,,,,,,,,,,,,,,,,,
,,6122f17c5f84f0f57feca3e6,66fc989d536b0676f95af6e8,2024-10-01_21h52.24.822,mdp,2024.2.1,MacIntel,59.84082341,66fa4ebf79326e780c390304,,,,,,,,,,,,,,,,,,,,,277.6824,277.6824,277.6848,278.2319,0,0,left,0.0359,,278.2336,278.2383,,0,,278.2393,278.2422,,0,,1,278.2422,278.2423,278.2431,279.7359,0,37,37,37,1,0.6,0.4,0.4,0.6,1,0,,,,,,,,,,,,,,,,,,,,,,,,,,,,,,,,,,,,
,,6122f17c5f84f0f57feca3e6,66fc989d536b0676f95af6e8,2024-10-01_21h52.24.822,mdp,2024.2.1,MacIntel,59.84082341,66fa4ebf79326e780c390304,,,,,,,,,,,,,,,,,,,,,279.7363,279.7363,279.7379,280.3724,0,0,left,0.1206,,280.3744,280.3782,,0,,280.3792,280.3827,,1,,1,280.3828,280.3828,280.3839,281.8777,0,38,38,38,1,0.6,0.4,0.4,0.6,1,0,,,,,,,,,,,,,,,,,,,,,,,,,,,,,,,,,,,,
,,6122f17c5f84f0f57feca3e6,66fc989d536b0676f95af6e8,2024-10-01_21h52.24.822,mdp,2024.2.1,MacIntel,59.84082341,66fa4ebf79326e780c390304,,,,,,,,,,,,,,,,,,,,,281.8785,281.8786,281.8802,282.6777,0,0,left,0.274,,282.6797,282.6836,,1,,282.6848,282.6886,,1,,1,282.6886,282.6886,282.6898,284.1823,0,39,39,39,1,0.2,0.8,0.8,0.2,1,0,,,,,,,,,,,,,,,,,,,,,,,,,,,,,,,,,,,,
,,6122f17c5f84f0f57feca3e6,66fc989d536b0676f95af6e8,2024-10-01_21h52.24.822,mdp,2024.2.1,MacIntel,59.84082341,66fa4ebf79326e780c390304,,,,,,,,,,,,,,,,,,,,,284.1828,284.1829,284.1849,284.9507,0,1,left,0.2389,,284.9529,284.9569,,1,,284.9581,284.9615,,1,,0,284.9615,284.9615,284.9626,286.455,0,40,40,40,1,0.2,0.8,0.8,0.2,1,0,,,,,,,,,,,,,,,,,,,,,,,,,,,,,,,,,,,,
,,6122f17c5f84f0f57feca3e6,66fc989d536b0676f95af6e8,2024-10-01_21h52.24.822,mdp,2024.2.1,MacIntel,59.84082341,66fa4ebf79326e780c390304,,,,,,,,,,,,,,,,,,,,,286.4558,286.4558,286.458,287.4234,0,1,left,0.4581,,287.4251,287.4296,,1,,287.4306,287.4334,,1,,0,287.4334,287.4334,287.4341,288.9283,0,41,41,41,1,0.2,0.8,0.8,0.2,1,0,,,,,,,,,,,,,,,,,,,,,,,,,,,,,,,,,,,,
,,6122f17c5f84f0f57feca3e6,66fc989d536b0676f95af6e8,2024-10-01_21h52.24.822,mdp,2024.2.1,MacIntel,59.84082341,66fa4ebf79326e780c390304,,,,,,,,,,,,,,,,,,,,,288.9289,288.9289,288.9311,289.6791,1,0,right,0.2369,,289.6807,289.6851,,0,,289.6861,289.6895,,0,,1,289.6896,289.6896,289.6906,291.1852,0,42,42,42,1,0.2,0.8,0.8,0.2,1,0,,,,,,,,,,,,,,,,,,,,,,,,,,,,,,,,,,,,
,,6122f17c5f84f0f57feca3e6,66fc989d536b0676f95af6e8,2024-10-01_21h52.24.822,mdp,2024.2.1,MacIntel,59.84082341,66fa4ebf79326e780c390304,,,,,,,,,,,,,,,,,,,,,291.186,291.1861,291.1877,291.9691,0,1,left,0.2568,,291.971,291.975,,1,,291.9759,291.9788,,1,,0,291.9789,291.9789,291.9798,293.4738,0,43,43,43,1,0.2,0.8,0.8,0.2,1,0,,,,,,,,,,,,,,,,,,,,,,,,,,,,,,,,,,,,
,,6122f17c5f84f0f57feca3e6,66fc989d536b0676f95af6e8,2024-10-01_21h52.24.822,mdp,2024.2.1,MacIntel,59.84082341,66fa4ebf79326e780c390304,,,,,,,,,,,,,,,,,,,,,293.4743,293.4743,293.4765,294.1926,1,0,right,0.2007,,294.1948,294.1984,,1,,294.1995,294.2029,,0,,1,294.2029,294.2029,294.204,295.6979,0,44,44,44,1,0.2,0.8,0.8,0.2,1,0,,,,,,,,,,,,,,,,,,,,,,,,,,,,,,,,,,,,
,,6122f17c5f84f0f57feca3e6,66fc989d536b0676f95af6e8,2024-10-01_21h52.24.822,mdp,2024.2.1,MacIntel,59.84082341,66fa4ebf79326e780c390304,,,,,,,,,,,,,,,,,,,,,295.6988,295.6989,295.7006,296.5336,1,0,right,0.3064,,296.5355,296.5389,,0,,296.54,296.5432,,0,,1,296.5433,296.5433,296.5444,298.0371,0,45,45,45,1,0.2,0.8,0.8,0.2,1,0,,,,,,,,,,,,,,,,,,,,,,,,,,,,,,,,,,,,
,,6122f17c5f84f0f57feca3e6,66fc989d536b0676f95af6e8,2024-10-01_21h52.24.822,mdp,2024.2.1,MacIntel,59.84082341,66fa4ebf79326e780c390304,,,,,,,,,,,,,,,,,,,,,298.0377,298.0377,298.0396,298.8033,1,1,right,0.2425,,298.8057,298.8094,,0,,298.8105,298.8142,,0,,0,298.8143,298.8143,298.8154,300.3084,0,46,46,46,1,0.2,0.8,0.8,0.2,1,0,,,,,,,,,,,,,,,,,,,,,,,,,,,,,,,,,,,,
,,6122f17c5f84f0f57feca3e6,66fc989d536b0676f95af6e8,2024-10-01_21h52.24.822,mdp,2024.2.1,MacIntel,59.84082341,66fa4ebf79326e780c390304,,,,,,,,,,,,,,,,,,,,,300.309,300.309,300.3111,300.9282,0,1,left,0.1008,,300.9302,300.9335,,1,,300.9346,300.9378,,1,,0,300.9379,300.9379,300.9389,302.4311,0,47,47,47,1,0.2,0.8,0.8,0.2,1,0,,,,,,,,,,,,,,,,,,,,,,,,,,,,,,,,,,,,
,,6122f17c5f84f0f57feca3e6,66fc989d536b0676f95af6e8,2024-10-01_21h52.24.822,mdp,2024.2.1,MacIntel,59.84082341,66fa4ebf79326e780c390304,,,,,,,,,,,,,,,,,,,,,302.4317,302.4318,302.434,303.1657,1,0,right,0.2169,,303.1674,303.1704,,0,,303.1711,303.1735,,1,,1,303.1736,303.1736,303.1743,304.6719,0,48,48,48,1,0.2,0.8,0.8,0.2,1,0,,,,,,,,,,,,,,,,,,,,,,,,,,,,,,,,,,,,
,,6122f17c5f84f0f57feca3e6,66fc989d536b0676f95af6e8,2024-10-01_21h52.24.822,mdp,2024.2.1,MacIntel,59.84082341,66fa4ebf79326e780c390304,,,,,,,,,,,,,,,,,,,,,304.6728,304.6728,304.6745,305.6909,0,1,left,0.4903,,305.6929,305.6963,,1,,305.6973,305.7004,,1,,0,305.7006,305.7006,305.7015,307.1943,0,49,49,49,1,0.2,0.8,0.8,0.2,1,0,,,,,,,,,,,,,,,,,,,,,,,,,,,,,,,,,,,,
,,6122f17c5f84f0f57feca3e6,66fc989d536b0676f95af6e8,2024-10-01_21h52.24.822,mdp,2024.2.1,MacIntel,59.84082341,66fa4ebf79326e780c390304,,,,,,,,,,,,,,,,,,,,,,,,,,,,,,,,,,,,,,,,,,,,,,,,,,,,,,,,307.1957,365.7026,0,0,0,3,1,imgs/elephant.png,imgs/goat.png,imgs/horse.png,imgs/bear.png,imgs/cat.png,,,,,,,,,,,,,,,,,,,,,,,,
,,6122f17c5f84f0f57feca3e6,66fc989d536b0676f95af6e8,2024-10-01_21h52.24.822,mdp,2024.2.1,MacIntel,59.84082341,66fa4ebf79326e780c390304,,,,,,,,,,,,,,2,seqs/st2seq28.csv,365.7047,390.7854,space,24.5544,,390.7922,390.7922,390.7931,392.7558,0,1,left,1.4309,,392.7579,395.3123,0,1,left,395.3143,395.3182,,1,,0,395.3183,395.3183,395.3195,396.8164,0,0,0,0,1,0.8,0.2,0.4,0.6,,,,,,,,,,,,,,,2.0333,,0.4,0.6,0.4,0.6,0.4,0.6,0.8,0.2,1,0,,,,,,,,,,,,
,,6122f17c5f84f0f57feca3e6,66fc989d536b0676f95af6e8,2024-10-01_21h52.24.822,mdp,2024.2.1,MacIntel,59.84082341,66fa4ebf79326e780c390304,,,,,,,,,,,,,,,,,,,,,396.8172,396.8172,396.8194,397.9517,1,1,right,0.6195,,397.9531,400.2578,1,0,right,400.2594,400.2637,,1,,1,400.2638,400.2639,400.2649,401.763,0,1,1,1,1,0.8,0.2,0.4,0.6,,,,,,,,,,,,,,,1.7896,,0.4,0.6,0.4,0.6,0.4,0.6,0.8,0.2,1,0,,,,,,,,,,,,
,,6122f17c5f84f0f57feca3e6,66fc989d536b0676f95af6e8,2024-10-01_21h52.24.822,mdp,2024.2.1,MacIntel,59.84082341,66fa4ebf79326e780c390304,,,,,,,,,,,,,,,,,,,,,401.7636,401.7636,401.7657,403.5675,1,0,right,1.2709,,403.5697,412.8247,1,0,right,412.8263,412.8311,,1,,1,412.8312,412.8312,412.8322,414.3298,0,2,2,2,1,0.8,0.2,0.4,0.6,,,,,,,,,,,,,,,8.7314,,0.4,0.6,0.4,0.6,0.4,0.6,0.8,0.2,1,0,,,,,,,,,,,,
,,6122f17c5f84f0f57feca3e6,66fc989d536b0676f95af6e8,2024-10-01_21h52.24.822,mdp,2024.2.1,MacIntel,59.84082341,66fa4ebf79326e780c390304,,,,,,,,,,,,,,,,,,,,,414.3304,414.3304,414.3325,416.5178,1,0,right,1.6728,,416.5195,418.1055,1,1,right,418.1071,418.1116,,1,,0,418.1117,418.1117,418.1128,419.6106,0,3,3,3,1,0.8,0.2,0.4,0.6,,,,,,,,,,,,,,,1.07,,0.4,0.6,0.4,0.6,0.4,0.6,0.8,0.2,1,0,,,,,,,,,,,,
,,6122f17c5f84f0f57feca3e6,66fc989d536b0676f95af6e8,2024-10-01_21h52.24.822,mdp,2024.2.1,MacIntel,59.84082341,66fa4ebf79326e780c390304,,,,,,,,,,,,,,,,,,,,,419.6112,419.6112,419.6132,420.9144,1,0,right,0.7701,,420.9164,421.7832,0,1,left,421.7853,421.789,,0,,0,421.789,421.789,421.7899,423.2857,0,4,4,4,1,0.8,0.2,0.4,0.6,,,,,,,,,,,,,,,0.3526,,0.6,0.4,0.6,0.4,0.4,0.6,0.8,0.2,1,0,,,,,,,,,,,,
,,6122f17c5f84f0f57feca3e6,66fc989d536b0676f95af6e8,2024-10-01_21h52.24.822,mdp,2024.2.1,MacIntel,59.84082341,66fa4ebf79326e780c390304,,,,,,,,,,,,,,,,,,,,,423.2864,423.2864,423.2879,424.1899,0,1,left,0.3847,,424.1921,426.2453,1,1,right,426.2475,426.2512,,0,,0,426.2513,426.2513,426.2523,427.7493,0,5,5,5,1,0.8,0.2,0.4,0.6,,,,,,,,,,,,,,,1.5313,,0.6,0.4,0.6,0.4,0.4,0.6,0.8,0.2,1,0,,,,,,,,,,,,
,,6122f17c5f84f0f57feca3e6,66fc989d536b0676f95af6e8,2024-10-01_21h52.24.822,mdp,2024.2.1,MacIntel,59.84082341,66fa4ebf79326e780c390304,,,,,,,,,,,,,,,,,,,,,427.7502,427.7503,427.7521,428.5847,0,1,left,0.3205,,428.5868,429.5872,0,0,left,429.5891,429.5926,,1,,1,429.5926,429.5926,429.5933,431.0906,0,6,6,6,1,0.8,0.2,0.4,0.6,,,,,,,,,,,,,,,0.4856,,0.6,0.4,0.6,0.4,0.4,0.6,0.8,0.2,1,0,,,,,,,,,,,,
,,6122f17c5f84f0f57feca3e6,66fc989d536b0676f95af6e8,2024-10-01_21h52.24.822,mdp,2024.2.1,MacIntel,59.84082341,66fa4ebf79326e780c390304,,,,,,,,,,,,,,,,,,,,,431.0913,431.0913,431.0932,432.2949,0,0,left,0.6848,,432.2969,433.3139,1,1,right,433.3158,433.3195,,1,,0,433.3196,433.3196,433.3205,434.818,0,7,7,7,1,0.8,0.2,0.4,0.6,,,,,,,,,,,,,,,0.4972,,0.6,0.4,0.6,0.4,0.4,0.6,0.8,0.2,1,0,,,,,,,,,,,,
,,6122f17c5f84f0f57feca3e6,66fc989d536b0676f95af6e8,2024-10-01_21h52.24.822,mdp,2024.2.1,MacIntel,59.84082341,66fa4ebf79326e780c390304,,,,,,,,,,,,,,,,,,,,,434.8186,434.8186,434.8206,435.6709,0,0,left,0.3358,,435.6732,436.5562,0,1,left,436.5582,436.5619,,1,,0,436.562,436.562,436.563,438.0587,0,8,8,8,1,0.8,0.2,0.4,0.6,,,,,,,,,,,,,,,0.3702,,0.6,0.4,0.6,0.4,0.4,0.6,0.8,0.2,1,0,,,,,,,,,,,,
,,6122f17c5f84f0f57feca3e6,66fc989d536b0676f95af6e8,2024-10-01_21h52.24.822,mdp,2024.2.1,MacIntel,59.84082341,66fa4ebf79326e780c390304,,,,,,,,,,,,,,,,,,,,,438.0592,438.0592,438.0611,438.847,1,1,right,0.2694,,438.849,439.6973,1,1,right,439.6992,439.7033,,0,,0,439.7034,439.7034,439.7044,441.2028,0,9,9,9,1,0.8,0.2,0.4,0.6,,,,,,,,,,,,,,,0.3162,,0.6,0.4,0.6,0.4,0.4,0.6,0.8,0.2,1,0,,,,,,,,,,,,
,,6122f17c5f84f0f57feca3e6,66fc989d536b0676f95af6e8,2024-10-01_21h52.24.822,mdp,2024.2.1,MacIntel,59.84082341,66fa4ebf79326e780c390304,,,,,,,,,,,,,,,,,,,,,441.2037,441.2037,441.2052,442.3216,1,1,right,0.5856,,442.3236,443.2421,0,1,left,443.244,443.2477,,0,,0,443.2477,443.2477,443.2487,444.7431,0,10,10,10,1,0.8,0.2,0.4,0.6,,,,,,,,,,,,,,,0.4032,,0.6,0.4,0.6,0.4,0.4,0.6,0.8,0.2,1,0,,,,,,,,,,,,
,,6122f17c5f84f0f57feca3e6,66fc989d536b0676f95af6e8,2024-10-01_21h52.24.822,mdp,2024.2.1,MacIntel,59.84082341,66fa4ebf79326e780c390304,,,,,,,,,,,,,,,,,,,,,444.7437,444.7437,444.746,445.5817,0,0,left,0.319,,445.584,446.5166,0,1,left,446.5199,446.5235,,0,,0,446.5236,446.5236,446.5246,448.02,0,11,11,11,1,0.8,0.2,0.4,0.6,,,,,,,,,,,,,,,0.395,,0.6,0.4,0.6,0.4,0.4,0.6,0.8,0.2,1,0,,,,,,,,,,,,
,,6122f17c5f84f0f57feca3e6,66fc989d536b0676f95af6e8,2024-10-01_21h52.24.822,mdp,2024.2.1,MacIntel,59.84082341,66fa4ebf79326e780c390304,,,,,,,,,,,,,,,,,,,,,448.0206,448.0206,448.0227,449.0562,0,0,left,0.5191,,449.0582,450.0079,1,1,right,450.0101,450.0141,,0,,0,450.0141,450.0141,450.0151,451.5137,0,12,12,12,1,0.8,0.2,0.4,0.6,,,,,,,,,,,,,,,0.42,,0.6,0.4,0.6,0.4,0.4,0.6,0.8,0.2,1,0,,,,,,,,,,,,
,,6122f17c5f84f0f57feca3e6,66fc989d536b0676f95af6e8,2024-10-01_21h52.24.822,mdp,2024.2.1,MacIntel,59.84082341,66fa4ebf79326e780c390304,,,,,,,,,,,,,,,,,,,,,451.5143,451.5144,451.5162,452.3317,0,1,left,0.2916,,452.3351,453.5348,0,0,left,453.5368,453.5404,,0,,1,453.5404,453.5404,453.5414,455.0385,0,13,13,13,1,0.8,0.2,0.4,0.6,,,,,,,,,,,,,,,0.6813,,0.6,0.4,0.6,0.4,0.8,0.2,0.6,0.4,1,0,,,,,,,,,,,,
,,6122f17c5f84f0f57feca3e6,66fc989d536b0676f95af6e8,2024-10-01_21h52.24.822,mdp,2024.2.1,MacIntel,59.84082341,66fa4ebf79326e780c390304,,,,,,,,,,,,,,,,,,,,,455.0391,455.0392,455.0414,456.0917,0,0,left,0.5439,,456.0943,456.9606,0,1,left,456.9627,456.9668,,0,,0,456.9669,456.9669,456.9682,458.4659,0,14,14,14,1,0.8,0.2,0.4,0.6,,,,,,,,,,,,,,,0.3424,,0.6,0.4,0.6,0.4,0.8,0.2,0.6,0.4,1,0,,,,,,,,,,,,
,,6122f17c5f84f0f57feca3e6,66fc989d536b0676f95af6e8,2024-10-01_21h52.24.822,mdp,2024.2.1,MacIntel,59.84082341,66fa4ebf79326e780c390304,,,,,,,,,,,,,,,,,,,,,458.4666,458.4666,458.4683,459.2821,0,1,left,0.3031,,459.2836,460.1862,1,0,right,460.1884,460.1917,,1,,1,460.1918,460.1918,460.1927,461.6911,0,15,15,15,1,0.2,0.8,0.2,0.8,,,,,,,,,,,,,,,0.3787,,0.6,0.4,0.6,0.4,0.8,0.2,0.6,0.4,1,0,,,,,,,,,,,,
,,6122f17c5f84f0f57feca3e6,66fc989d536b0676f95af6e8,2024-10-01_21h52.24.822,mdp,2024.2.1,MacIntel,59.84082341,66fa4ebf79326e780c390304,,,,,,,,,,,,,,,,,,,,,461.6918,461.6919,461.6935,462.5773,1,1,right,0.3507,,462.5793,463.4606,0,0,left,463.4623,463.4666,,0,,1,463.4667,463.4667,463.4677,464.9652,0,16,16,16,1,0.2,0.8,0.2,0.8,,,,,,,,,,,,,,,0.3549,,0.6,0.4,0.6,0.4,0.8,0.2,0.6,0.4,1,0,,,,,,,,,,,,
,,6122f17c5f84f0f57feca3e6,66fc989d536b0676f95af6e8,2024-10-01_21h52.24.822,mdp,2024.2.1,MacIntel,59.84082341,66fa4ebf79326e780c390304,,,,,,,,,,,,,,,,,,,,,464.9657,464.9657,464.9678,465.6,1,1,right,0.122,,465.602,466.5028,0,0,left,466.5047,466.5086,,0,,1,466.5087,466.5087,466.5097,468.0062,0,17,17,17,1,0.2,0.8,0.2,0.8,,,,,,,,,,,,,,,0.3859,,0.6,0.4,0.6,0.4,0.8,0.2,0.6,0.4,1,0,,,,,,,,,,,,
,,6122f17c5f84f0f57feca3e6,66fc989d536b0676f95af6e8,2024-10-01_21h52.24.822,mdp,2024.2.1,MacIntel,59.84082341,66fa4ebf79326e780c390304,,,,,,,,,,,,,,,,,,,,,468.0069,468.0069,468.0089,468.7748,1,1,right,0.2513,,468.7775,469.6289,0,0,left,469.6308,469.6341,,0,,1,469.6342,469.6342,469.6352,471.1331,0,18,18,18,1,0.2,0.8,0.2,0.8,,,,,,,,,,,,,,,0.3432,,0.6,0.4,0.6,0.4,0.8,0.2,0.6,0.4,1,0,,,,,,,,,,,,
,,6122f17c5f84f0f57feca3e6,66fc989d536b0676f95af6e8,2024-10-01_21h52.24.822,mdp,2024.2.1,MacIntel,59.84082341,66fa4ebf79326e780c390304,,,,,,,,,,,,,,,,,,,,,471.1339,471.1339,471.1355,471.9352,1,1,right,0.2675,,471.9371,472.7182,0,0,left,472.7208,472.7242,,0,,1,472.7243,472.7243,472.7251,474.2229,0,19,19,19,1,0.4,0.6,0.4,0.6,,,,,,,,,,,,,,,0.2735,,0.6,0.4,0.6,0.4,0.8,0.2,0.6,0.4,1,0,,,,,,,,,,,,
,,6122f17c5f84f0f57feca3e6,66fc989d536b0676f95af6e8,2024-10-01_21h52.24.822,mdp,2024.2.1,MacIntel,59.84082341,66fa4ebf79326e780c390304,,,,,,,,,,,,,,,,,,,,,474.2235,474.2235,474.2254,475.125,1,0,right,0.3861,,475.1277,475.9126,0,1,left,475.9144,475.9177,,1,,0,475.9178,475.9178,475.9188,477.4166,0,20,20,20,1,0.4,0.6,0.4,0.6,,,,,,,,,,,,,,,0.2601,,0.6,0.4,0.6,0.4,0.8,0.2,0.6,0.4,1,0,,,,,,,,,,,,
,,6122f17c5f84f0f57feca3e6,66fc989d536b0676f95af6e8,2024-10-01_21h52.24.822,mdp,2024.2.1,MacIntel,59.84082341,66fa4ebf79326e780c390304,,,,,,,,,,,,,,,,,,,,,477.4174,477.4175,477.4188,478.8871,1,1,right,0.9387,,478.8889,479.8721,1,0,right,479.874,479.8777,,1,,1,479.8777,479.8777,479.8788,481.3756,0,21,21,21,1,0.4,0.6,0.4,0.6,,,,,,,,,,,,,,,0.4432,,0.6,0.4,0.6,0.4,0.8,0.2,0.6,0.4,1,0,,,,,,,,,,,,
,,6122f17c5f84f0f57feca3e6,66fc989d536b0676f95af6e8,2024-10-01_21h52.24.822,mdp,2024.2.1,MacIntel,59.84082341,66fa4ebf79326e780c390304,,,,,,,,,,,,,,,,,,,,,481.3763,481.3763,481.3781,482.1775,1,1,right,0.2922,,482.1795,483.1136,1,0,right,483.1156,483.1196,,0,,1,483.1196,483.1196,483.1206,484.6175,0,22,22,22,1,0.4,0.6,0.4,0.6,,,,,,,,,,,,,,,0.4225,,0.6,0.4,0.6,0.4,0.8,0.2,0.6,0.4,1,0,,,,,,,,,,,,
,,6122f17c5f84f0f57feca3e6,66fc989d536b0676f95af6e8,2024-10-01_21h52.24.822,mdp,2024.2.1,MacIntel,59.84082341,66fa4ebf79326e780c390304,,,,,,,,,,,,,,,,,,,,,484.6181,484.6181,484.6201,485.4048,1,1,right,0.268,,485.4067,486.573,0,1,left,486.5748,486.5786,,0,,0,486.5786,486.5786,486.5796,488.0755,0,23,23,23,1,0.4,0.6,0.4,0.6,,,,,,,,,,,,,,,0.6543,,0.6,0.4,0.6,0.4,0.8,0.2,0.6,0.4,1,0,,,,,,,,,,,,
,,6122f17c5f84f0f57feca3e6,66fc989d536b0676f95af6e8,2024-10-01_21h52.24.822,mdp,2024.2.1,MacIntel,59.84082341,66fa4ebf79326e780c390304,,,,,,,,,,,,,,,,,,,,,488.0761,488.0761,488.0774,488.8641,1,0,right,0.2688,,488.866,489.6987,1,0,right,489.7014,489.7048,,0,,1,489.7049,489.7049,489.7058,491.2021,0,24,24,24,1,0.4,0.6,0.4,0.6,,,,,,,,,,,,,,,0.294,,0.6,0.4,0.6,0.4,0.8,0.2,0.6,0.4,1,0,,,,,,,,,,,,
,,6122f17c5f84f0f57feca3e6,66fc989d536b0676f95af6e8,2024-10-01_21h52.24.822,mdp,2024.2.1,MacIntel,59.84082341,66fa4ebf79326e780c390304,,,,,,,,,,,,,,,,,,,,,491.2028,491.2028,491.2047,492.0375,1,1,right,0.3204,,492.0398,492.8747,1,1,right,492.8767,492.88,,1,,0,492.88,492.88,492.881,494.3774,0,25,25,25,1,0.4,0.6,0.4,0.6,,,,,,,,,,,,,,,0.3147,,0.6,0.4,0.6,0.4,0.8,0.2,0.6,0.4,1,0,,,,,,,,,,,,
,,6122f17c5f84f0f57feca3e6,66fc989d536b0676f95af6e8,2024-10-01_21h52.24.822,mdp,2024.2.1,MacIntel,59.84082341,66fa4ebf79326e780c390304,,,,,,,,,,,,,,,,,,,,,494.3784,494.3784,494.3802,495.1625,0,1,left,0.2579,,495.1644,496.0497,1,0,right,496.0517,496.055,,0,,1,496.0551,496.0551,496.0561,497.5537,0,26,26,26,1,0.4,0.6,0.4,0.6,,,,,,,,,,,,,,,0.3687,,0.4,0.6,0.2,0.8,0.8,0.2,0.6,0.4,1,0,,,,,,,,,,,,
,,6122f17c5f84f0f57feca3e6,66fc989d536b0676f95af6e8,2024-10-01_21h52.24.822,mdp,2024.2.1,MacIntel,59.84082341,66fa4ebf79326e780c390304,,,,,,,,,,,,,,,,,,,,,497.5545,497.5546,497.5561,498.6226,0,1,left,0.5367,,498.6245,499.6762,1,1,right,499.6781,499.6813,,0,,0,499.6814,499.6814,499.6824,501.1797,0,27,27,27,1,0.4,0.6,0.4,0.6,,,,,,,,,,,,,,,0.5404,,0.4,0.6,0.2,0.8,0.8,0.2,0.6,0.4,1,0,,,,,,,,,,,,
,,6122f17c5f84f0f57feca3e6,66fc989d536b0676f95af6e8,2024-10-01_21h52.24.822,mdp,2024.2.1,MacIntel,59.84082341,66fa4ebf79326e780c390304,,,,,,,,,,,,,,,,,,,,,501.1807,501.1807,501.1823,502.1813,1,0,right,0.4869,,502.1833,503.1856,1,1,right,503.1885,503.1921,,1,,0,503.1922,503.1923,503.1933,504.6878,0,28,28,28,1,0.4,0.6,0.4,0.6,,,,,,,,,,,,,,,0.4792,,0.4,0.6,0.2,0.8,0.8,0.2,0.6,0.4,1,0,,,,,,,,,,,,
,,6122f17c5f84f0f57feca3e6,66fc989d536b0676f95af6e8,2024-10-01_21h52.24.822,mdp,2024.2.1,MacIntel,59.84082341,66fa4ebf79326e780c390304,,,,,,,,,,,,,,,,,,,,,504.6883,504.6883,504.6902,505.3394,0,0,left,0.1424,,505.3408,506.2599,1,1,right,506.2614,506.2638,,1,,0,506.2638,506.2638,506.2644,507.7642,0,29,29,29,1,0.4,0.6,0.4,0.6,,,,,,,,,,,,,,,0.4025,,0.4,0.6,0.2,0.8,0.8,0.2,0.6,0.4,1,0,,,,,,,,,,,,
,,6122f17c5f84f0f57feca3e6,66fc989d536b0676f95af6e8,2024-10-01_21h52.24.822,mdp,2024.2.1,MacIntel,59.84082341,66fa4ebf79326e780c390304,,,,,,,,,,,,,,,,,,,,,507.765,507.765,507.7663,508.5818,0,0,left,0.2898,,508.5837,509.3499,0,1,left,509.3522,509.3564,,1,,0,509.3564,509.3564,509.3577,510.8558,0,30,30,30,1,0.4,0.6,0.4,0.6,,,,,,,,,,,,,,,0.2593,,0.4,0.6,0.2,0.8,0.8,0.2,0.6,0.4,1,0,,,,,,,,,,,,
,,6122f17c5f84f0f57feca3e6,66fc989d536b0676f95af6e8,2024-10-01_21h52.24.822,mdp,2024.2.1,MacIntel,59.84082341,66fa4ebf79326e780c390304,,,,,,,,,,,,,,,,,,,,,510.8568,510.8569,510.8585,511.6559,1,1,right,0.2753,,511.6585,512.5101,1,0,right,512.5118,512.5141,,0,,1,512.5142,512.5142,512.5148,514.0116,0,31,31,31,1,0.4,0.6,0.4,0.6,,,,,,,,,,,,,,,0.3278,,0.4,0.6,0.2,0.8,0.8,0.2,0.6,0.4,1,0,,,,,,,,,,,,
,,6122f17c5f84f0f57feca3e6,66fc989d536b0676f95af6e8,2024-10-01_21h52.24.822,mdp,2024.2.1,MacIntel,59.84082341,66fa4ebf79326e780c390304,,,,,,,,,,,,,,,,,,,,,514.0121,514.0122,514.014,514.7817,1,0,right,0.2545,,514.7841,515.7664,1,1,right,515.7681,515.7725,,1,,0,515.7727,515.7727,515.7737,517.2702,0,32,32,32,1,0.4,0.6,0.4,0.6,,,,,,,,,,,,,,,0.4634,,0.4,0.6,0.2,0.8,0.8,0.2,0.6,0.4,1,0,,,,,,,,,,,,
,,6122f17c5f84f0f57feca3e6,66fc989d536b0676f95af6e8,2024-10-01_21h52.24.822,mdp,2024.2.1,MacIntel,59.84082341,66fa4ebf79326e780c390304,,,,,,,,,,,,,,,,,,,,,517.2708,517.2708,517.2721,518.0256,1,1,right,0.2395,,518.0274,518.8412,0,0,left,518.8427,518.8466,,0,,1,518.8467,518.8467,518.8475,520.3476,0,33,33,33,1,0.6,0.4,0.2,0.8,,,,,,,,,,,,,,,0.2954,,0.4,0.6,0.2,0.8,0.8,0.2,0.6,0.4,1,0,,,,,,,,,,,,
,,6122f17c5f84f0f57feca3e6,66fc989d536b0676f95af6e8,2024-10-01_21h52.24.822,mdp,2024.2.1,MacIntel,59.84082341,66fa4ebf79326e780c390304,,,,,,,,,,,,,,,,,,,,,520.3487,520.3487,520.3501,521.1989,1,1,right,0.3214,,521.2009,522.0009,0,0,left,522.0028,522.0067,,0,,1,522.0068,522.0068,522.0078,523.5065,0,34,34,34,1,0.6,0.4,0.2,0.8,,,,,,,,,,,,,,,0.2696,,0.4,0.6,0.2,0.8,0.8,0.2,0.6,0.4,1,0,,,,,,,,,,,,
,,6122f17c5f84f0f57feca3e6,66fc989d536b0676f95af6e8,2024-10-01_21h52.24.822,mdp,2024.2.1,MacIntel,59.84082341,66fa4ebf79326e780c390304,,,,,,,,,,,,,,,,,,,,,523.5075,523.5075,523.5088,524.2919,1,1,right,0.2557,,524.2938,525.3084,0,0,left,525.3099,525.3142,,0,,1,525.3143,525.3143,525.3153,526.8148,0,35,35,35,1,0.6,0.4,0.2,0.8,,,,,,,,,,,,,,,0.5007,,0.4,0.6,0.2,0.8,0.8,0.2,0.6,0.4,1,0,,,,,,,,,,,,
,,6122f17c5f84f0f57feca3e6,66fc989d536b0676f95af6e8,2024-10-01_21h52.24.822,mdp,2024.2.1,MacIntel,59.84082341,66fa4ebf79326e780c390304,,,,,,,,,,,,,,,,,,,,,526.8156,526.8156,526.8172,527.8179,0,1,left,0.4888,,527.8197,528.9866,0,0,left,528.9897,528.9935,,0,,1,528.9936,528.9936,528.9946,530.4909,0,36,36,36,1,0.6,0.4,0.2,0.8,,,,,,,,,,,,,,,0.6362,,0.4,0.6,0.2,0.8,0.8,0.2,0.6,0.4,1,0,,,,,,,,,,,,
,,6122f17c5f84f0f57feca3e6,66fc989d536b0676f95af6e8,2024-10-01_21h52.24.822,mdp,2024.2.1,MacIntel,59.84082341,66fa4ebf79326e780c390304,,,,,,,,,,,,,,,,,,,,,530.4919,530.4919,530.4938,531.5586,0,1,left,0.5384,,531.5602,532.4444,0,0,left,532.4457,532.4494,,0,,1,532.4494,532.4494,532.4506,533.948,0,37,37,37,1,0.6,0.4,0.2,0.8,,,,,,,,,,,,,,,0.3744,,0.4,0.6,0.2,0.8,0.8,0.2,0.6,0.4,1,0,,,,,,,,,,,,
,,6122f17c5f84f0f57feca3e6,66fc989d536b0676f95af6e8,2024-10-01_21h52.24.822,mdp,2024.2.1,MacIntel,59.84082341,66fa4ebf79326e780c390304,,,,,,,,,,,,,,,,,,,,,533.9485,533.9485,533.9496,534.8028,1,1,right,0.3401,,534.8051,535.6369,0,0,left,535.6388,535.643,,1,,1,535.643,535.643,535.644,537.1427,0,38,38,38,1,0.6,0.4,0.2,0.8,,,,,,,,,,,,,,,0.3196,,0.4,0.6,0.2,0.8,0.8,0.2,0.6,0.4,1,0,,,,,,,,,,,,
,,6122f17c5f84f0f57feca3e6,66fc989d536b0676f95af6e8,2024-10-01_21h52.24.822,mdp,2024.2.1,MacIntel,59.84082341,66fa4ebf79326e780c390304,,,,,,,,,,,,,,,,,,,,,537.1435,537.1436,537.1451,537.7432,0,1,left,0.0894,,537.7448,538.5607,1,1,right,538.5625,538.5659,,0,,0,538.566,538.566,538.5668,540.0655,0,39,39,39,1,0.6,0.4,0.2,0.8,,,,,,,,,,,,,,,0.3088,,0.6,0.4,0.6,0.4,0.8,0.2,0.6,0.4,1,0,,,,,,,,,,,,
,,6122f17c5f84f0f57feca3e6,66fc989d536b0676f95af6e8,2024-10-01_21h52.24.822,mdp,2024.2.1,MacIntel,59.84082341,66fa4ebf79326e780c390304,,,,,,,,,,,,,,,,,,,,,540.0662,540.0662,540.0686,540.9526,0,1,left,0.3595,,540.9542,541.8204,0,1,left,541.8229,541.8268,,0,,0,541.8268,541.8268,541.828,543.3258,0,40,40,40,1,0.2,0.8,0.8,0.2,,,,,,,,,,,,,,,0.3385,,0.6,0.4,0.6,0.4,0.8,0.2,0.6,0.4,1,0,,,,,,,,,,,,
,,6122f17c5f84f0f57feca3e6,66fc989d536b0676f95af6e8,2024-10-01_21h52.24.822,mdp,2024.2.1,MacIntel,59.84082341,66fa4ebf79326e780c390304,,,,,,,,,,,,,,,,,,,,,543.3266,543.3266,543.3283,544.1601,1,0,right,0.3014,,544.1626,544.9978,0,0,left,544.9993,545.0026,,1,,1,545.0026,545.0026,545.0036,546.5011,0,41,41,41,1,0.2,0.8,0.8,0.2,,,,,,,,,,,,,,,0.3105,,0.6,0.4,0.6,0.4,0.8,0.2,0.6,0.4,1,0,,,,,,,,,,,,
,,6122f17c5f84f0f57feca3e6,66fc989d536b0676f95af6e8,2024-10-01_21h52.24.822,mdp,2024.2.1,MacIntel,59.84082341,66fa4ebf79326e780c390304,,,,,,,,,,,,,,,,,,,,,546.5019,546.5019,546.5034,547.2355,1,0,right,0.2101,,547.2384,548.0023,1,1,right,548.004,548.008,,1,,0,548.0081,548.0081,548.009,549.5062,0,42,42,42,1,0.2,0.8,0.8,0.2,,,,,,,,,,,,,,,0.251,,0.6,0.4,0.6,0.4,0.8,0.2,0.6,0.4,1,0,,,,,,,,,,,,
,,6122f17c5f84f0f57feca3e6,66fc989d536b0676f95af6e8,2024-10-01_21h52.24.822,mdp,2024.2.1,MacIntel,59.84082341,66fa4ebf79326e780c390304,,,,,,,,,,,,,,,,,,,,,549.5068,549.5068,549.5089,550.3273,1,0,right,0.3069,,550.3288,551.1634,1,1,right,551.1657,551.1692,,0,,0,551.1693,551.1693,551.1704,552.6659,0,43,43,43,1,0.2,0.8,0.8,0.2,,,,,,,,,,,,,,,0.2966,,0.6,0.4,0.6,0.4,0.8,0.2,0.6,0.4,1,0,,,,,,,,,,,,
,,6122f17c5f84f0f57feca3e6,66fc989d536b0676f95af6e8,2024-10-01_21h52.24.822,mdp,2024.2.1,MacIntel,59.84082341,66fa4ebf79326e780c390304,,,,,,,,,,,,,,,,,,,,,552.6664,552.6665,552.6692,553.5512,0,1,left,0.3515,,553.5533,554.4363,1,0,right,554.438,554.4416,,1,,1,554.4416,554.4416,554.4425,555.9414,0,44,44,44,1,0.2,0.8,0.8,0.2,,,,,,,,,,,,,,,0.3598,,0.6,0.4,0.6,0.4,0.8,0.2,0.6,0.4,1,0,,,,,,,,,,,,
,,6122f17c5f84f0f57feca3e6,66fc989d536b0676f95af6e8,2024-10-01_21h52.24.822,mdp,2024.2.1,MacIntel,59.84082341,66fa4ebf79326e780c390304,,,,,,,,,,,,,,,,,,,,,555.942,555.942,555.944,556.7926,0,1,left,0.3325,,556.7942,557.7118,1,0,right,557.7139,557.718,,0,,1,557.7181,557.7181,557.719,559.2166,0,45,45,45,1,0.2,0.8,0.8,0.2,,,,,,,,,,,,,,,0.4013,,0.6,0.4,0.6,0.4,0.8,0.2,0.6,0.4,1,0,,,,,,,,,,,,
,,6122f17c5f84f0f57feca3e6,66fc989d536b0676f95af6e8,2024-10-01_21h52.24.822,mdp,2024.2.1,MacIntel,59.84082341,66fa4ebf79326e780c390304,,,,,,,,,,,,,,,,,,,,,559.2172,559.2172,559.219,560.0522,0,0,left,0.3038,,560.0549,561.4564,1,1,right,561.4585,561.4625,,1,,0,561.4625,561.4625,561.4634,562.9616,0,46,46,46,1,0.2,0.8,0.8,0.2,,,,,,,,,,,,,,,0.8789,,0.6,0.4,0.6,0.4,0.8,0.2,0.6,0.4,1,0,,,,,,,,,,,,
,,6122f17c5f84f0f57feca3e6,66fc989d536b0676f95af6e8,2024-10-01_21h52.24.822,mdp,2024.2.1,MacIntel,59.84082341,66fa4ebf79326e780c390304,,,,,,,,,,,,,,,,,,,,,562.9624,562.9625,562.964,563.7805,0,0,left,0.3044,,563.7825,564.9336,0,1,left,564.9355,564.9389,,0,,0,564.9389,564.9389,564.9399,566.4377,0,47,47,47,1,0.6,0.4,0.4,0.6,,,,,,,,,,,,,,,0.6359,,0.6,0.4,0.6,0.4,0.8,0.2,0.6,0.4,1,0,,,,,,,,,,,,
,,6122f17c5f84f0f57feca3e6,66fc989d536b0676f95af6e8,2024-10-01_21h52.24.822,mdp,2024.2.1,MacIntel,59.84082341,66fa4ebf79326e780c390304,,,,,,,,,,,,,,,,,,,,,566.4385,566.4385,566.4401,567.273,1,0,right,0.3064,,567.275,568.7078,1,1,right,568.7094,568.7143,,1,,0,568.7143,568.7143,568.7154,570.2125,0,48,48,48,1,0.6,0.4,0.4,0.6,,,,,,,,,,,,,,,0.9189,,0.6,0.4,0.6,0.4,0.8,0.2,0.6,0.4,1,0,,,,,,,,,,,,
,,6122f17c5f84f0f57feca3e6,66fc989d536b0676f95af6e8,2024-10-01_21h52.24.822,mdp,2024.2.1,MacIntel,59.84082341,66fa4ebf79326e780c390304,,,,,,,,,,,,,,,,,,,,,570.2131,570.2131,570.2155,571.0151,0,1,left,0.2673,,571.0174,572.0528,1,0,right,572.0548,572.0581,,0,,1,572.0582,572.0582,572.0593,573.5563,0,49,49,49,1,0.6,0.4,0.4,0.6,,,,,,,,,,,,,,,0.5114,,0.6,0.4,0.6,0.4,0.8,0.2,0.6,0.4,1,0,,,,,,,,,,,,
,,6122f17c5f84f0f57feca3e6,66fc989d536b0676f95af6e8,2024-10-01_21h52.24.822,mdp,2024.2.1,MacIntel,59.84082341,66fa4ebf79326e780c390304,,,,,,,,,,,,,,,,,,,,,,,,,,,,,,,,,,,,,,,,,,,,,,,,,,,,,,,,573.5565,632.0615,0,1,1,7,1,imgs/squirrel.png,imgs/cat.png,imgs/rabbit.png,imgs/horse.png,imgs/giraffe.png,,,,,,,,,,,,,,,,,,,,,,,,
,,6122f17c5f84f0f57feca3e6,66fc989d536b0676f95af6e8,2024-10-01_21h52.24.822,mdp,2024.2.1,MacIntel,59.84082341,66fa4ebf79326e780c390304,,,,,,,,,,,,,,3,seqs/st3seq34.csv,632.0636,633.4152,space,0.836,,633.4274,633.4275,633.4288,635.8383,0,1,left,1.8802,,635.8403,637.66,0,0,left,637.6622,639.3499,1,0,right,1,639.3502,639.3502,639.3517,640.8528,0,0,0,0,1,0.2,0.8,0.6,0.4,,,,,,,,,,,,,,,1.277,,0.8,0.2,0.4,0.6,0.8,0.2,0.2,0.8,,,1.1649,,0.8,0.2,0.4,0.6,0.6,0.4,0.8,0.2,1,0
,,6122f17c5f84f0f57feca3e6,66fc989d536b0676f95af6e8,2024-10-01_21h52.24.822,mdp,2024.2.1,MacIntel,59.84082341,66fa4ebf79326e780c390304,,,,,,,,,,,,,,,,,,,,,640.8542,640.8542,640.856,642.2732,1,0,right,0.8904,,642.2753,644.9463,1,0,right,644.9486,646.017,0,1,left,0,646.0172,646.0173,646.0189,647.5207,0,1,1,1,1,0.2,0.8,0.6,0.4,,,,,,,,,,,,,,,2.1273,,0.8,0.2,0.4,0.6,0.8,0.2,0.2,0.8,,,0.553,,0.8,0.2,0.4,0.6,0.6,0.4,0.8,0.2,1,0
,,6122f17c5f84f0f57feca3e6,66fc989d536b0676f95af6e8,2024-10-01_21h52.24.822,mdp,2024.2.1,MacIntel,59.84082341,66fa4ebf79326e780c390304,,,,,,,,,,,,,,,,,,,,,647.5216,647.5217,647.5232,648.4373,1,1,right,0.387,,648.4389,649.4923,1,1,right,649.4946,650.5597,1,1,right,0,650.5599,650.5599,650.5617,652.0482,0,2,2,2,1,0.2,0.8,0.6,0.4,,,,,,,,,,,,,,,0.53,,0.8,0.2,0.4,0.6,0.8,0.2,0.2,0.8,,,0.524,,0.8,0.2,0.4,0.6,0.6,0.4,0.8,0.2,1,0
,,6122f17c5f84f0f57feca3e6,66fc989d536b0676f95af6e8,2024-10-01_21h52.24.822,mdp,2024.2.1,MacIntel,59.84082341,66fa4ebf79326e780c390304,,,,,,,,,,,,,,,,,,,,,652.049,652.0494,652.0509,652.9019,1,1,right,0.3222,,652.9038,653.8198,1,1,right,653.822,654.6556,0,0,left,1,654.6557,654.6558,654.6576,656.1607,0,3,3,3,1,0.2,0.8,0.6,0.4,,,,,,,,,,,,,,,0.3893,,0.8,0.2,0.4,0.6,0.8,0.2,0.2,0.8,,,0.317,,0.8,0.2,0.4,0.6,0.6,0.4,0.8,0.2,1,0
,,6122f17c5f84f0f57feca3e6,66fc989d536b0676f95af6e8,2024-10-01_21h52.24.822,mdp,2024.2.1,MacIntel,59.84082341,66fa4ebf79326e780c390304,,,,,,,,,,,,,,,,,,,,,656.1618,656.1619,656.1632,657.295,0,0,left,0.6039,,657.2965,658.9821,0,0,left,658.9848,660.2034,1,1,right,0,660.2036,660.2036,660.2057,661.692,0,4,4,4,1,0.2,0.8,0.6,0.4,,,,,,,,,,,,,,,1.165,,0.8,0.2,0.4,0.6,0.8,0.2,0.2,0.8,,,0.6975,,0.8,0.2,0.4,0.6,0.6,0.4,0.8,0.2,1,0
,,6122f17c5f84f0f57feca3e6,66fc989d536b0676f95af6e8,2024-10-01_21h52.24.822,mdp,2024.2.1,MacIntel,59.84082341,66fa4ebf79326e780c390304,,,,,,,,,,,,,,,,,,,,,661.693,661.6932,661.6949,662.4437,0,1,left,0.2227,,662.4457,663.2281,0,1,left,663.2303,664.0806,0,0,left,1,664.0808,664.0808,664.0832,665.5858,0,5,5,5,1,0.2,0.8,0.6,0.4,,,,,,,,,,,,,,,0.2624,,0.8,0.2,0.4,0.6,0.8,0.2,0.2,0.8,,,0.3277,,0.8,0.2,0.4,0.6,0.6,0.4,0.8,0.2,1,0
,,6122f17c5f84f0f57feca3e6,66fc989d536b0676f95af6e8,2024-10-01_21h52.24.822,mdp,2024.2.1,MacIntel,59.84082341,66fa4ebf79326e780c390304,,,,,,,,,,,,,,,,,,,,,665.5867,665.5867,665.5882,666.6371,1,1,right,0.5347,,666.6392,667.5397,0,1,left,667.5424,669.2432,1,0,right,1,669.2434,669.2434,669.2455,670.7315,0,6,6,6,1,0.8,0.2,0.4,0.6,,,,,,,,,,,,,,,0.3847,,0.8,0.2,0.4,0.6,0.8,0.2,0.2,0.8,,,1.1862,,0.8,0.2,0.4,0.6,0.6,0.4,0.8,0.2,1,0
,,6122f17c5f84f0f57feca3e6,66fc989d536b0676f95af6e8,2024-10-01_21h52.24.822,mdp,2024.2.1,MacIntel,59.84082341,66fa4ebf79326e780c390304,,,,,,,,,,,,,,,,,,,,,670.7321,670.7321,670.7343,671.566,0,0,left,0.3171,,671.5683,673.5382,0,0,left,673.54,674.7605,1,1,right,0,674.7607,674.7607,674.7625,676.2614,0,7,7,7,1,0.8,0.2,0.4,0.6,,,,,,,,,,,,,,,1.4491,,0.8,0.2,0.4,0.6,0.8,0.2,0.2,0.8,,,0.7002,,0.8,0.2,0.4,0.6,0.6,0.4,0.8,0.2,1,0
,,6122f17c5f84f0f57feca3e6,66fc989d536b0676f95af6e8,2024-10-01_21h52.24.822,mdp,2024.2.1,MacIntel,59.84082341,66fa4ebf79326e780c390304,,,,,,,,,,,,,,,,,,,,,676.2621,676.2621,676.2635,677.0485,1,0,right,0.2656,,677.0508,677.9015,1,0,right,677.9034,678.7516,0,0,left,1,678.7517,678.7517,678.7531,680.2416,0,8,8,8,1,0.8,0.2,0.4,0.6,,,,,,,,,,,,,,,0.3406,,0.8,0.2,0.4,0.6,0.8,0.2,0.2,0.8,,,0.3216,,0.8,0.2,0.4,0.6,0.6,0.4,0.8,0.2,1,0
,,6122f17c5f84f0f57feca3e6,66fc989d536b0676f95af6e8,2024-10-01_21h52.24.822,mdp,2024.2.1,MacIntel,59.84082341,66fa4ebf79326e780c390304,,,,,,,,,,,,,,,,,,,,,680.2426,680.2426,680.2441,681.0578,0,0,left,0.2838,,681.0593,682.5797,0,0,left,682.5816,683.9517,0,1,left,0,683.952,683.952,683.9537,685.4553,0,9,9,9,1,0.8,0.2,0.4,0.6,,,,,,,,,,,,,,,1.007,,0.8,0.2,0.4,0.6,0.8,0.2,0.2,0.8,,,0.8555,,0.8,0.2,0.4,0.6,0.6,0.4,0.8,0.2,1,0
,,6122f17c5f84f0f57feca3e6,66fc989d536b0676f95af6e8,2024-10-01_21h52.24.822,mdp,2024.2.1,MacIntel,59.84082341,66fa4ebf79326e780c390304,,,,,,,,,,,,,,,,,,,,,685.4564,685.4565,685.4579,686.2242,1,1,right,0.2416,,686.226,687.0414,0,0,left,687.0435,687.9435,1,0,right,1,687.9437,687.9437,687.9456,689.4327,0,10,10,10,1,0.8,0.2,0.4,0.6,,,,,,,,,,,,,,,0.285,,0.8,0.2,0.4,0.6,0.8,0.2,0.2,0.8,,,0.388,,0.8,0.2,0.4,0.6,0.6,0.4,0.8,0.2,1,0
,,6122f17c5f84f0f57feca3e6,66fc989d536b0676f95af6e8,2024-10-01_21h52.24.822,mdp,2024.2.1,MacIntel,59.84082341,66fa4ebf79326e780c390304,,,,,,,,,,,,,,,,,,,,,689.4336,689.4337,689.4352,690.1836,0,0,left,0.2177,,690.1855,690.985,1,1,right,690.9872,691.7876,1,1,right,0,691.7877,691.7878,691.7907,693.2924,0,11,11,11,1,0.8,0.2,0.4,0.6,,,,,,,,,,,,,,,0.2885,,0.8,0.2,0.4,0.6,0.8,0.2,0.2,0.8,,,0.2811,,0.8,0.2,0.4,0.6,0.6,0.4,0.8,0.2,1,0
,,6122f17c5f84f0f57feca3e6,66fc989d536b0676f95af6e8,2024-10-01_21h52.24.822,mdp,2024.2.1,MacIntel,59.84082341,66fa4ebf79326e780c390304,,,,,,,,,,,,,,,,,,,,,693.2934,693.2934,693.2952,694.1109,0,0,left,0.2878,,694.1136,694.896,0,0,left,694.8984,695.7151,0,0,left,1,695.7153,695.7153,695.7171,697.2185,0,12,12,12,1,0.8,0.2,0.4,0.6,,,,,,,,,,,,,,,0.2679,,0.8,0.2,0.4,0.6,0.8,0.2,0.2,0.8,,,0.2756,,0.8,0.2,0.4,0.6,0.6,0.4,0.8,0.2,1,0
,,6122f17c5f84f0f57feca3e6,66fc989d536b0676f95af6e8,2024-10-01_21h52.24.822,mdp,2024.2.1,MacIntel,59.84082341,66fa4ebf79326e780c390304,,,,,,,,,,,,,,,,,,,,,697.2192,697.2193,697.2215,698.6549,0,0,left,0.9199,,698.6565,699.4917,0,0,left,699.4935,700.3103,1,0,right,1,700.3104,700.3105,700.3131,701.8158,0,13,13,13,1,0.8,0.2,0.4,0.6,,,,,,,,,,,,,,,0.3225,,0.8,0.2,0.4,0.6,0.8,0.2,0.2,0.8,,,0.3001,,0.8,0.2,0.4,0.6,0.2,0.8,0.4,0.6,1,0
,,6122f17c5f84f0f57feca3e6,66fc989d536b0676f95af6e8,2024-10-01_21h52.24.822,mdp,2024.2.1,MacIntel,59.84082341,66fa4ebf79326e780c390304,,,,,,,,,,,,,,,,,,,,,701.8169,701.8169,701.8183,703.6376,0,0,left,1.3033,,703.6394,704.9244,0,0,left,704.9262,705.8421,1,0,right,1,705.8423,705.8424,705.8452,707.3444,0,14,14,14,1,0.8,0.2,0.4,0.6,,,,,,,,,,,,,,,0.7712,,0.8,0.2,0.4,0.6,0.8,0.2,0.2,0.8,,,0.3902,,0.8,0.2,0.4,0.6,0.2,0.8,0.4,0.6,1,0
,,6122f17c5f84f0f57feca3e6,66fc989d536b0676f95af6e8,2024-10-01_21h52.24.822,mdp,2024.2.1,MacIntel,59.84082341,66fa4ebf79326e780c390304,,,,,,,,,,,,,,,,,,,,,707.345,707.3451,707.3468,708.1808,0,0,left,0.3248,,708.1829,709.0681,0,0,left,709.07,709.9348,1,1,right,0,709.9351,709.9352,709.9369,711.4401,0,15,15,15,1,0.8,0.2,0.4,0.6,,,,,,,,,,,,,,,0.3744,,0.8,0.2,0.4,0.6,0.8,0.2,0.2,0.8,,,0.3532,,0.8,0.2,0.4,0.6,0.2,0.8,0.4,0.6,1,0
,,6122f17c5f84f0f57feca3e6,66fc989d536b0676f95af6e8,2024-10-01_21h52.24.822,mdp,2024.2.1,MacIntel,59.84082341,66fa4ebf79326e780c390304,,,,,,,,,,,,,,,,,,,,,711.4408,711.4409,711.4428,712.2926,1,0,right,0.32,,712.2945,713.046,1,0,right,713.0481,713.5951,0,1,left,0,713.5954,713.5954,713.5967,715.0846,0,16,16,16,1,0.8,0.2,0.4,0.6,,,,,,,,,,,,,,,0.2336,,0.8,0.2,0.4,0.6,0.8,0.2,0.2,0.8,,,0.0195,,0.8,0.2,0.4,0.6,0.2,0.8,0.4,0.6,1,0
,,6122f17c5f84f0f57feca3e6,66fc989d536b0676f95af6e8,2024-10-01_21h52.24.822,mdp,2024.2.1,MacIntel,59.84082341,66fa4ebf79326e780c390304,,,,,,,,,,,,,,,,,,,,,715.0854,715.0854,715.0869,716.2044,0,0,left,0.5868,,716.2063,717.5051,1,0,right,717.5069,718.7263,0,0,left,1,718.7265,718.7266,718.7284,720.2289,0,17,17,17,1,0.8,0.2,0.4,0.6,,,,,,,,,,,,,,,0.7706,,0.8,0.2,0.4,0.6,0.8,0.2,0.2,0.8,,,0.701,,0.8,0.2,0.4,0.6,0.2,0.8,0.4,0.6,1,0
,,6122f17c5f84f0f57feca3e6,66fc989d536b0676f95af6e8,2024-10-01_21h52.24.822,mdp,2024.2.1,MacIntel,59.84082341,66fa4ebf79326e780c390304,,,,,,,,,,,,,,,,,,,,,720.2295,720.2296,720.2314,720.7825,0,0,left,0.0328,,720.7844,721.917,1,1,right,721.9186,722.9865,1,1,right,0,722.9865,722.9865,722.9883,724.4749,0,18,18,18,1,0.8,0.2,0.4,0.6,,,,,,,,,,,,,,,0.6202,,0.8,0.2,0.4,0.6,0.4,0.6,0.4,0.6,,,0.5453,,0.8,0.2,0.4,0.6,0.2,0.8,0.4,0.6,1,0
,,6122f17c5f84f0f57feca3e6,66fc989d536b0676f95af6e8,2024-10-01_21h52.24.822,mdp,2024.2.1,MacIntel,59.84082341,66fa4ebf79326e780c390304,,,,,,,,,,,,,,,,,,,,,724.4757,724.4757,724.4778,725.2438,0,0,left,0.2528,,725.2458,726.0459,0,0,left,726.048,726.8489,0,0,left,1,726.8491,726.8491,726.8512,728.3527,0,19,19,19,1,0.8,0.2,0.4,0.6,,,,,,,,,,,,,,,0.2841,,0.8,0.2,0.4,0.6,0.4,0.6,0.4,0.6,,,0.2608,,0.8,0.2,0.4,0.6,0.2,0.8,0.4,0.6,1,0
,,6122f17c5f84f0f57feca3e6,66fc989d536b0676f95af6e8,2024-10-01_21h52.24.822,mdp,2024.2.1,MacIntel,59.84082341,66fa4ebf79326e780c390304,,,,,,,,,,,,,,,,,,,,,728.3538,728.3539,728.3553,729.32,0,0,left,0.4517,,729.3219,730.14,0,1,left,730.1419,730.977,0,1,left,0,730.9773,730.9773,730.9794,732.4797,0,20,20,20,1,0.8,0.2,0.4,0.6,,,,,,,,,,,,,,,0.3113,,0.8,0.2,0.4,0.6,0.4,0.6,0.4,0.6,,,0.2971,,0.8,0.2,0.4,0.6,0.2,0.8,0.4,0.6,1,0
,,6122f17c5f84f0f57feca3e6,66fc989d536b0676f95af6e8,2024-10-01_21h52.24.822,mdp,2024.2.1,MacIntel,59.84082341,66fa4ebf79326e780c390304,,,,,,,,,,,,,,,,,,,,,732.4804,732.4804,732.4826,733.5165,0,0,left,0.5278,,733.5192,734.3671,0,0,left,734.3689,735.1383,1,1,right,0,735.1386,735.1386,735.1404,736.6405,0,21,21,21,1,0.8,0.2,0.4,0.6,,,,,,,,,,,,,,,0.3344,,0.8,0.2,0.4,0.6,0.4,0.6,0.4,0.6,,,0.2437,,0.8,0.2,0.4,0.6,0.2,0.8,0.4,0.6,1,0
,,6122f17c5f84f0f57feca3e6,66fc989d536b0676f95af6e8,2024-10-01_21h52.24.822,mdp,2024.2.1,MacIntel,59.84082341,66fa4ebf79326e780c390304,,,,,,,,,,,,,,,,,,,,,736.6411,736.6412,736.6429,737.3592,0,0,left,0.2016,,737.3611,738.1448,0,0,left,738.1473,738.8982,0,1,left,0,738.8984,738.8984,738.9001,740.3996,0,22,22,22,1,0.8,0.2,0.4,0.6,,,,,,,,,,,,,,,0.2699,,0.8,0.2,0.4,0.6,0.4,0.6,0.4,0.6,,,0.2399,,0.8,0.2,0.4,0.6,0.2,0.8,0.4,0.6,1,0
,,6122f17c5f84f0f57feca3e6,66fc989d536b0676f95af6e8,2024-10-01_21h52.24.822,mdp,2024.2.1,MacIntel,59.84082341,66fa4ebf79326e780c390304,,,,,,,,,,,,,,,,,,,,,740.4007,740.4007,740.4024,741.1377,1,1,right,0.2184,,741.1394,741.9564,1,1,right,741.9584,742.7564,0,1,left,0,742.7566,742.7567,742.7588,744.2456,0,23,23,23,1,0.8,0.2,0.4,0.6,,,,,,,,,,,,,,,0.2924,,0.8,0.2,0.4,0.6,0.4,0.6,0.4,0.6,,,0.2762,,0.4,0.6,0.8,0.2,0.2,0.8,0.4,0.6,1,0
,,6122f17c5f84f0f57feca3e6,66fc989d536b0676f95af6e8,2024-10-01_21h52.24.822,mdp,2024.2.1,MacIntel,59.84082341,66fa4ebf79326e780c390304,,,,,,,,,,,,,,,,,,,,,744.2466,744.2467,744.2481,745.0293,1,1,right,0.2717,,745.0323,745.7813,1,0,right,745.7832,746.5857,1,0,right,1,746.5861,746.5861,746.5881,748.0898,0,24,24,24,1,0.8,0.2,0.4,0.6,,,,,,,,,,,,,,,0.2414,,0.8,0.2,0.4,0.6,0.4,0.6,0.4,0.6,,,0.2772,,0.4,0.6,0.8,0.2,0.2,0.8,0.4,0.6,1,0
,,6122f17c5f84f0f57feca3e6,66fc989d536b0676f95af6e8,2024-10-01_21h52.24.822,mdp,2024.2.1,MacIntel,59.84082341,66fa4ebf79326e780c390304,,,,,,,,,,,,,,,,,,,,,748.0908,748.0909,748.0923,748.9391,1,1,right,0.318,,748.9406,749.7578,1,1,right,749.7594,750.6294,1,1,right,0,750.6295,750.6296,750.6315,752.1322,0,25,25,25,1,0.8,0.2,0.4,0.6,,,,,,,,,,,,,,,0.3042,,0.8,0.2,0.4,0.6,0.4,0.6,0.4,0.6,,,0.3462,,0.4,0.6,0.8,0.2,0.2,0.8,0.4,0.6,1,0
,,6122f17c5f84f0f57feca3e6,66fc989d536b0676f95af6e8,2024-10-01_21h52.24.822,mdp,2024.2.1,MacIntel,59.84082341,66fa4ebf79326e780c390304,,,,,,,,,,,,,,,,,,,,,752.133,752.133,752.1351,752.9845,1,1,right,0.3383,,752.9874,754.1215,1,0,right,754.1229,755.4579,1,0,right,1,755.458,755.458,755.4607,756.9613,0,26,26,26,1,0.8,0.2,0.4,0.6,,,,,,,,,,,,,,,0.6194,,0.8,0.2,0.4,0.6,0.4,0.6,0.4,0.6,,,0.814,,0.4,0.6,0.8,0.2,0.2,0.8,0.4,0.6,1,0
,,6122f17c5f84f0f57feca3e6,66fc989d536b0676f95af6e8,2024-10-01_21h52.24.822,mdp,2024.2.1,MacIntel,59.84082341,66fa4ebf79326e780c390304,,,,,,,,,,,,,,,,,,,,,756.962,756.962,756.964,757.748,1,0,right,0.2755,,757.7501,759.1998,0,1,left,759.2016,760.57,1,1,right,0,760.57,760.57,760.5719,762.0601,0,27,27,27,1,0.8,0.2,0.4,0.6,,,,,,,,,,,,,,,0.9288,,0.8,0.2,0.4,0.6,0.4,0.6,0.4,0.6,,,0.8507,,0.4,0.6,0.8,0.2,0.6,0.4,0.2,0.8,1,0
,,6122f17c5f84f0f57feca3e6,66fc989d536b0676f95af6e8,2024-10-01_21h52.24.822,mdp,2024.2.1,MacIntel,59.84082341,66fa4ebf79326e780c390304,,,,,,,,,,,,,,,,,,,,,762.061,762.061,762.0628,762.8792,0,0,left,0.3051,,762.8811,763.713,1,0,right,763.716,764.5657,1,0,right,1,764.5658,764.5659,764.5678,766.0693,0,28,28,28,1,0.8,0.2,0.4,0.6,,,,,,,,,,,,,,,0.318,,0.8,0.2,0.4,0.6,0.4,0.6,0.4,0.6,,,0.3255,,0.4,0.6,0.8,0.2,0.6,0.4,0.2,0.8,1,0
,,6122f17c5f84f0f57feca3e6,66fc989d536b0676f95af6e8,2024-10-01_21h52.24.822,mdp,2024.2.1,MacIntel,59.84082341,66fa4ebf79326e780c390304,,,,,,,,,,,,,,,,,,,,,766.07,766.0701,766.0725,766.9036,1,0,right,0.3014,,766.9054,767.7073,1,0,right,767.7094,769.5471,1,1,right,0,769.5473,769.5473,769.5491,771.0507,0,29,29,29,1,0.8,0.2,0.4,0.6,,,,,,,,,,,,,,,0.2905,,0.8,0.2,0.4,0.6,0.4,0.6,0.4,0.6,,,1.3246,,0.4,0.6,0.8,0.2,0.6,0.4,0.2,0.8,1,0
,,6122f17c5f84f0f57feca3e6,66fc989d536b0676f95af6e8,2024-10-01_21h52.24.822,mdp,2024.2.1,MacIntel,59.84082341,66fa4ebf79326e780c390304,,,,,,,,,,,,,,,,,,,,,771.0519,771.052,771.0536,771.951,0,0,left,0.367,,771.9521,772.7366,0,0,left,772.7387,773.5229,1,0,right,1,773.523,773.5231,773.525,775.0265,0,30,30,30,1,0.8,0.2,0.4,0.6,,,,,,,,,,,,,,,0.2746,,0.8,0.2,0.4,0.6,0.4,0.6,0.4,0.6,,,0.2689,,0.4,0.6,0.8,0.2,0.6,0.4,0.2,0.8,1,0
,,6122f17c5f84f0f57feca3e6,66fc989d536b0676f95af6e8,2024-10-01_21h52.24.822,mdp,2024.2.1,MacIntel,59.84082341,66fa4ebf79326e780c390304,,,,,,,,,,,,,,,,,,,,,775.0271,775.0272,775.029,776.0127,0,0,left,0.4574,,776.0147,776.7985,0,0,left,776.8005,777.5681,1,0,right,1,777.5683,777.5683,777.5703,779.0706,0,31,31,31,1,0.8,0.2,0.4,0.6,,,,,,,,,,,,,,,0.2772,,0.8,0.2,0.4,0.6,0.4,0.6,0.4,0.6,,,0.251,,0.4,0.6,0.8,0.2,0.6,0.4,0.2,0.8,1,0
,,6122f17c5f84f0f57feca3e6,66fc989d536b0676f95af6e8,2024-10-01_21h52.24.822,mdp,2024.2.1,MacIntel,59.84082341,66fa4ebf79326e780c390304,,,,,,,,,,,,,,,,,,,,,779.0715,779.0716,779.0738,779.6725,0,0,left,0.0867,,779.6744,780.3899,0,0,left,780.3914,781.3619,1,0,right,1,781.362,781.3621,781.364,782.8656,0,32,32,32,1,0.8,0.2,0.4,0.6,,,,,,,,,,,,,,,0.2027,,0.8,0.2,0.4,0.6,0.4,0.6,0.4,0.6,,,0.4541,,0.4,0.6,0.8,0.2,0.6,0.4,0.2,0.8,1,0
,,6122f17c5f84f0f57feca3e6,66fc989d536b0676f95af6e8,2024-10-01_21h52.24.822,mdp,2024.2.1,MacIntel,59.84082341,66fa4ebf79326e780c390304,,,,,,,,,,,,,,,,,,,,,782.8666,782.8667,782.8681,783.8337,0,0,left,0.4392,,783.836,784.7378,1,0,right,784.7402,786.2751,1,0,right,1,786.2753,786.2753,786.2772,787.7771,0,33,33,33,1,0.8,0.2,0.4,0.6,,,,,,,,,,,,,,,0.3872,,0.8,0.2,0.4,0.6,0.4,0.6,0.4,0.6,,,1.0076,,0.4,0.6,0.8,0.2,0.6,0.4,0.2,0.8,1,0
,,6122f17c5f84f0f57feca3e6,66fc989d536b0676f95af6e8,2024-10-01_21h52.24.822,mdp,2024.2.1,MacIntel,59.84082341,66fa4ebf79326e780c390304,,,,,,,,,,,,,,,,,,,,,787.7778,787.7778,787.7798,788.5464,0,0,left,0.2529,,788.5488,789.3482,0,0,left,789.3503,790.1658,1,0,right,1,790.166,790.166,790.1675,791.6551,0,34,34,34,1,0.8,0.2,0.4,0.6,,,,,,,,,,,,,,,0.2891,,0.8,0.2,0.4,0.6,0.4,0.6,0.4,0.6,,,0.3012,,0.4,0.6,0.8,0.2,0.6,0.4,0.2,0.8,1,0
,,6122f17c5f84f0f57feca3e6,66fc989d536b0676f95af6e8,2024-10-01_21h52.24.822,mdp,2024.2.1,MacIntel,59.84082341,66fa4ebf79326e780c390304,,,,,,,,,,,,,,,,,,,,,791.6565,791.6565,791.6581,792.4077,0,0,left,0.2233,,792.4098,793.042,0,0,left,793.0439,793.5761,1,0,right,1,793.5763,793.5763,793.578,795.0799,0,35,35,35,1,0.8,0.2,0.4,0.6,,,,,,,,,,,,,,,0.1009,,0.8,0.2,0.4,0.6,0.4,0.6,0.4,0.6,,,0.024,,0.4,0.6,0.8,0.2,0.4,0.6,0.4,0.6,1,0
,,6122f17c5f84f0f57feca3e6,66fc989d536b0676f95af6e8,2024-10-01_21h52.24.822,mdp,2024.2.1,MacIntel,59.84082341,66fa4ebf79326e780c390304,,,,,,,,,,,,,,,,,,,,,795.0806,795.0807,795.0826,795.8992,1,1,right,0.3049,,795.9013,796.5512,1,1,right,796.5534,797.286,0,1,left,0,797.2862,797.2862,797.2887,798.7914,0,36,36,36,1,0.8,0.2,0.4,0.6,,,,,,,,,,,,,,,0.1284,,0.8,0.2,0.4,0.6,0.4,0.6,0.4,0.6,,,0.2174,,0.4,0.6,0.8,0.2,0.4,0.6,0.4,0.6,1,0
,,6122f17c5f84f0f57feca3e6,66fc989d536b0676f95af6e8,2024-10-01_21h52.24.822,mdp,2024.2.1,MacIntel,59.84082341,66fa4ebf79326e780c390304,,,,,,,,,,,,,,,,,,,,,798.7925,798.7925,798.794,799.5764,1,0,right,0.2607,,799.5792,800.3766,0,0,left,800.3784,801.1953,1,1,right,0,801.1955,801.1955,801.197,802.6846,0,37,37,37,1,0.8,0.2,0.4,0.6,,,,,,,,,,,,,,,0.2583,,0.8,0.2,0.4,0.6,0.4,0.6,0.4,0.6,,,0.292,,0.4,0.6,0.8,0.2,0.4,0.6,0.4,0.6,1,0
,,6122f17c5f84f0f57feca3e6,66fc989d536b0676f95af6e8,2024-10-01_21h52.24.822,mdp,2024.2.1,MacIntel,59.84082341,66fa4ebf79326e780c390304,,,,,,,,,,,,,,,,,,,,,802.6855,802.6855,802.6872,803.521,0,0,left,0.322,,803.5229,804.3207,0,0,left,804.3222,805.2897,1,0,right,1,805.2898,805.2898,805.2913,806.7781,0,38,38,38,1,0.8,0.2,0.4,0.6,,,,,,,,,,,,,,,0.2923,,0.8,0.2,0.4,0.6,0.4,0.6,0.4,0.6,,,0.4538,,0.4,0.6,0.8,0.2,0.4,0.6,0.4,0.6,1,0
,,6122f17c5f84f0f57feca3e6,66fc989d536b0676f95af6e8,2024-10-01_21h52.24.822,mdp,2024.2.1,MacIntel,59.84082341,66fa4ebf79326e780c390304,,,,,,,,,,,,,,,,,,,,,806.7789,806.7789,806.7812,807.5319,0,1,left,0.2376,,807.5338,808.2976,1,0,right,808.2991,809.0499,0,0,left,1,809.05,809.05,809.0516,810.5394,0,39,39,39,1,0.8,0.2,0.4,0.6,,,,,,,,,,,,,,,0.2277,,0.8,0.2,0.4,0.6,0.6,0.4,0.6,0.4,,,0.2438,,0.4,0.6,0.8,0.2,0.4,0.6,0.4,0.6,1,0
,,6122f17c5f84f0f57feca3e6,66fc989d536b0676f95af6e8,2024-10-01_21h52.24.822,mdp,2024.2.1,MacIntel,59.84082341,66fa4ebf79326e780c390304,,,,,,,,,,,,,,,,,,,,,810.5402,810.5402,810.5421,811.2394,0,1,left,0.1853,,811.2409,812.0086,0,1,left,812.0107,812.9268,1,1,right,0,812.9269,812.9269,812.9284,814.4168,0,40,40,40,1,0.2,0.8,0.6,0.4,,,,,,,,,,,,,,,0.2533,,0.8,0.2,0.4,0.6,0.6,0.4,0.6,0.4,,,0.3971,,0.4,0.6,0.8,0.2,0.4,0.6,0.4,0.6,1,0
,,6122f17c5f84f0f57feca3e6,66fc989d536b0676f95af6e8,2024-10-01_21h52.24.822,mdp,2024.2.1,MacIntel,59.84082341,66fa4ebf79326e780c390304,,,,,,,,,,,,,,,,,,,,,814.418,814.418,814.4197,815.9191,1,1,right,0.9726,,815.9209,816.9394,0,0,left,816.9415,818.6266,0,1,left,0,818.6268,818.6268,818.6288,820.1317,0,41,41,41,1,0.2,0.8,0.6,0.4,,,,,,,,,,,,,,,0.4859,,0.8,0.2,0.4,0.6,0.6,0.4,0.6,0.4,,,1.1625,,0.4,0.6,0.8,0.2,0.4,0.6,0.4,0.6,1,0
,,6122f17c5f84f0f57feca3e6,66fc989d536b0676f95af6e8,2024-10-01_21h52.24.822,mdp,2024.2.1,MacIntel,59.84082341,66fa4ebf79326e780c390304,,,,,,,,,,,,,,,,,,,,,820.1326,820.1326,820.1344,820.6986,0,1,left,0.0339,,820.7007,821.7511,1,0,right,821.7532,822.5364,0,0,left,1,822.5366,822.5366,822.5387,824.0408,0,42,42,42,1,0.2,0.8,0.6,0.4,,,,,,,,,,,,,,,0.543,,0.8,0.2,0.4,0.6,0.6,0.4,0.6,0.4,,,0.273,,0.4,0.6,0.8,0.2,0.4,0.6,0.4,0.6,1,0
,,6122f17c5f84f0f57feca3e6,66fc989d536b0676f95af6e8,2024-10-01_21h52.24.822,mdp,2024.2.1,MacIntel,59.84082341,66fa4ebf79326e780c390304,,,,,,,,,,,,,,,,,,,,,824.0415,824.0416,824.0435,827.3987,1,0,right,2.8428,,827.4003,828.068,0,0,left,828.0698,828.9889,1,0,right,1,828.989,828.989,828.9912,830.4915,0,43,43,43,1,0.2,0.8,0.6,0.4,,,,,,,,,,,,,,,0.1484,,0.8,0.2,0.4,0.6,0.6,0.4,0.6,0.4,,,0.4032,,0.4,0.6,0.8,0.2,0.4,0.6,0.4,0.6,1,0
,,6122f17c5f84f0f57feca3e6,66fc989d536b0676f95af6e8,2024-10-01_21h52.24.822,mdp,2024.2.1,MacIntel,59.84082341,66fa4ebf79326e780c390304,,,,,,,,,,,,,,,,,,,,,830.4921,830.4921,830.4942,831.811,1,0,right,0.7913,,831.8131,833.2819,0,0,left,833.2843,835.0882,1,0,right,1,835.0883,835.0884,835.0902,836.591,0,44,44,44,1,0.2,0.8,0.6,0.4,,,,,,,,,,,,,,,0.9646,,0.8,0.2,0.4,0.6,0.8,0.2,0.8,0.2,,,1.2928,,0.4,0.6,0.8,0.2,0.4,0.6,0.4,0.6,1,0
,,6122f17c5f84f0f57feca3e6,66fc989d536b0676f95af6e8,2024-10-01_21h52.24.822,mdp,2024.2.1,MacIntel,59.84082341,66fa4ebf79326e780c390304,,,,,,,,,,,,,,,,,,,,,836.5917,836.5917,836.5936,837.2596,0,1,left,0.1506,,837.2624,838.0282,1,0,right,838.0305,839.7335,0,0,left,1,839.7346,839.7346,839.7361,841.2373,0,45,45,45,1,0.2,0.8,0.6,0.4,,,,,,,,,,,,,,,0.2483,,0.8,0.2,0.4,0.6,0.8,0.2,0.8,0.2,,,1.1923,,0.4,0.6,0.8,0.2,0.4,0.6,0.4,0.6,1,0
,,6122f17c5f84f0f57feca3e6,66fc989d536b0676f95af6e8,2024-10-01_21h52.24.822,mdp,2024.2.1,MacIntel,59.84082341,66fa4ebf79326e780c390304,,,,,,,,,,,,,,,,,,,,,841.2384,841.2385,841.2401,842.106,0,1,left,0.3402,,842.1066,843.2767,1,1,right,843.2776,844.145,0,1,left,0,844.1451,844.1451,844.1469,845.6335,0,46,46,46,1,0.2,0.8,0.6,0.4,,,,,,,,,,,,,,,0.6527,,0.8,0.2,0.4,0.6,0.8,0.2,0.8,0.2,,,0.3285,,0.4,0.6,0.8,0.2,0.4,0.6,0.4,0.6,1,0
,,6122f17c5f84f0f57feca3e6,66fc989d536b0676f95af6e8,2024-10-01_21h52.24.822,mdp,2024.2.1,MacIntel,59.84082341,66fa4ebf79326e780c390304,,,,,,,,,,,,,,,,,,,,,845.6348,845.6348,845.6358,846.6336,1,0,right,0.4684,,846.635,847.8383,1,0,right,847.8409,848.8739,0,1,left,0,848.8741,848.8741,848.876,850.3629,0,47,47,47,1,0.2,0.8,0.6,0.4,,,,,,,,,,,,,,,0.6878,,0.8,0.2,0.4,0.6,0.8,0.2,0.8,0.2,,,0.516,,0.4,0.6,0.8,0.2,0.4,0.6,0.4,0.6,1,0
,,6122f17c5f84f0f57feca3e6,66fc989d536b0676f95af6e8,2024-10-01_21h52.24.822,mdp,2024.2.1,MacIntel,59.84082341,66fa4ebf79326e780c390304,,,,,,,,,,,,,,,,,,,,,850.3644,850.3644,850.3654,852.3504,0,0,left,1.4591,,852.3518,853.4228,1,1,right,853.4241,854.3054,0,1,left,0,854.3055,854.3055,854.3072,855.8127,0,48,48,48,1,0.2,0.8,0.6,0.4,,,,,,,,,,,,,,,0.5533,,0.8,0.2,0.4,0.6,0.8,0.2,0.8,0.2,,,0.3424,,0.4,0.6,0.8,0.2,0.4,0.6,0.4,0.6,1,0
,,6122f17c5f84f0f57feca3e6,66fc989d536b0676f95af6e8,2024-10-01_21h52.24.822,mdp,2024.2.1,MacIntel,59.84082341,66fa4ebf79326e780c390304,,,,,,,,,,,,,,,,,,,,,855.8135,855.8136,855.8146,856.6114,1,0,right,0.2688,,856.6138,857.7814,1,0,right,857.7832,858.5666,1,0,right,1,858.5669,858.5669,858.568,860.0707,0,49,49,49,1,0.2,0.8,0.6,0.4,,,,,,,,,,,,,,,0.6404,,0.8,0.2,0.4,0.6,0.8,0.2,0.8,0.2,,,0.2632,,0.4,0.6,0.8,0.2,0.4,0.6,0.4,0.6,1,0
,,6122f17c5f84f0f57feca3e6,66fc989d536b0676f95af6e8,2024-10-01_21h52.24.822,mdp,2024.2.1,MacIntel,59.84082341,66fa4ebf79326e780c390304,,,,,,,,,,,,,,,,,,,,,,,,,,,,,,,,,,,,,,,,,,,,,,,,,,,,,,,,860.071,918.5783,0,2,2,1,1,imgs/lion.png,imgs/bear.png,imgs/dog.png,imgs/cat.png,imgs/kangaroo.png,,,,,,,,,,,,,,,,,,,,,,,,
,,6122f17c5f84f0f57feca3e6,66fc989d536b0676f95af6e8,2024-10-01_21h52.24.822,mdp,2024.2.1,MacIntel,59.84082341,66fa4ebf79326e780c390304,,,,,,,,,,,,,,3,seqs/st3seq15.csv,918.5797,921.8372,space,2.7323,,921.8486,921.8486,921.8496,924.0934,0,1,left,1.7158,,924.0951,924.9617,0,1,left,924.9636,925.7794,0,0,left,1,925.7795,925.7795,925.7812,927.2682,0,0,0,0,1,0.2,0.8,0.6,0.4,,,,,,,,,,,,,,,0.3297,,0.2,0.8,0.8,0.2,0.2,0.8,0.8,0.2,,,0.2932,,0.8,0.2,0.2,0.8,0.8,0.2,0.2,0.8,1,0
,,6122f17c5f84f0f57feca3e6,66fc989d536b0676f95af6e8,2024-10-01_21h52.24.822,mdp,2024.2.1,MacIntel,59.84082341,66fa4ebf79326e780c390304,,,,,,,,,,,,,,,,,,,,,927.2694,927.2694,927.2705,928.1047,0,1,left,0.3029,,928.1059,929.2386,0,0,left,929.2406,930.1916,1,1,right,0,930.1919,930.192,930.1937,931.6979,0,1,1,1,1,0.2,0.8,0.6,0.4,,,,,,,,,,,,,,,0.6049,,0.2,0.8,0.8,0.2,0.2,0.8,0.8,0.2,,,0.4258,,0.8,0.2,0.2,0.8,0.8,0.2,0.2,0.8,1,0
,,6122f17c5f84f0f57feca3e6,66fc989d536b0676f95af6e8,2024-10-01_21h52.24.822,mdp,2024.2.1,MacIntel,59.84082341,66fa4ebf79326e780c390304,,,,,,,,,,,,,,,,,,,,,931.6986,931.6986,931.6997,932.3303,1,1,right,0.1015,,932.3322,933.2675,1,0,right,933.2694,934.1188,0,0,left,1,934.1189,934.1189,934.1206,935.609,0,2,2,2,1,0.2,0.8,0.6,0.4,,,,,,,,,,,,,,,0.4185,,0.2,0.8,0.8,0.2,0.2,0.8,0.8,0.2,,,0.3353,,0.8,0.2,0.2,0.8,0.8,0.2,0.2,0.8,1,0
,,6122f17c5f84f0f57feca3e6,66fc989d536b0676f95af6e8,2024-10-01_21h52.24.822,mdp,2024.2.1,MacIntel,59.84082341,66fa4ebf79326e780c390304,,,,,,,,,,,,,,,,,,,,,935.6097,935.6097,935.6107,936.3426,1,0,right,0.2043,,936.3443,937.161,1,0,right,937.1625,938.3961,0,1,left,0,938.3964,938.3964,938.3979,939.8855,0,3,3,3,1,0.2,0.8,0.6,0.4,,,,,,,,,,,,,,,0.2743,,0.2,0.8,0.8,0.2,0.8,0.2,0.6,0.4,,,0.7209,,0.8,0.2,0.2,0.8,0.8,0.2,0.2,0.8,1,0
,,6122f17c5f84f0f57feca3e6,66fc989d536b0676f95af6e8,2024-10-01_21h52.24.822,mdp,2024.2.1,MacIntel,59.84082341,66fa4ebf79326e780c390304,,,,,,,,,,,,,,,,,,,,,939.8862,939.8862,939.8873,940.5872,1,1,right,0.1694,,940.589,941.4049,1,1,right,941.4066,942.1585,1,1,right,0,942.1588,942.1588,942.1599,943.662,0,4,4,4,1,0.2,0.8,0.6,0.4,,,,,,,,,,,,,,,0.2925,,0.2,0.8,0.8,0.2,0.8,0.2,0.6,0.4,,,0.2269,,0.8,0.2,0.2,0.8,0.8,0.2,0.2,0.8,1,0
,,6122f17c5f84f0f57feca3e6,66fc989d536b0676f95af6e8,2024-10-01_21h52.24.822,mdp,2024.2.1,MacIntel,59.84082341,66fa4ebf79326e780c390304,,,,,,,,,,,,,,,,,,,,,943.6632,943.6632,943.6643,944.5785,1,0,right,0.3895,,944.582,945.4676,0,1,left,945.4692,946.3027,1,1,right,0,946.3035,946.3035,946.3046,947.8062,0,5,5,5,1,0.2,0.8,0.6,0.4,,,,,,,,,,,,,,,0.3591,,0.2,0.8,0.8,0.2,0.8,0.2,0.6,0.4,,,0.3015,,0.8,0.2,0.2,0.8,0.2,0.8,0.8,0.2,1,0
,,6122f17c5f84f0f57feca3e6,66fc989d536b0676f95af6e8,2024-10-01_21h52.24.822,mdp,2024.2.1,MacIntel,59.84082341,66fa4ebf79326e780c390304,,,,,,,,,,,,,,,,,,,,,947.8075,947.8075,947.8087,948.4916,0,0,left,0.157,,948.4932,949.2757,0,1,left,949.277,950.0458,0,0,left,1,950.0461,950.0461,950.0477,951.5495,0,6,6,6,1,0.8,0.2,0.2,0.8,,,,,,,,,,,,,,,0.2508,,0.2,0.8,0.8,0.2,0.8,0.2,0.6,0.4,,,0.25,,0.8,0.2,0.2,0.8,0.2,0.8,0.8,0.2,1,0
,,6122f17c5f84f0f57feca3e6,66fc989d536b0676f95af6e8,2024-10-01_21h52.24.822,mdp,2024.2.1,MacIntel,59.84082341,66fa4ebf79326e780c390304,,,,,,,,,,,,,,,,,,,,,951.5509,951.551,951.5519,952.2674,0,0,left,0.1848,,952.269,952.9853,0,1,left,952.988,953.7056,0,1,left,0,953.7059,953.7059,953.7075,955.2098,0,7,7,7,1,0.8,0.2,0.2,0.8,,,,,,,,,,,,,,,0.2038,,0.2,0.8,0.8,0.2,0.8,0.2,0.6,0.4,,,0.2081,,0.8,0.2,0.2,0.8,0.2,0.8,0.8,0.2,1,0
,,6122f17c5f84f0f57feca3e6,66fc989d536b0676f95af6e8,2024-10-01_21h52.24.822,mdp,2024.2.1,MacIntel,59.84082341,66fa4ebf79326e780c390304,,,,,,,,,,,,,,,,,,,,,955.2111,955.2111,955.2125,956.2972,1,1,right,0.5758,,956.2984,957.0651,0,0,left,957.0666,958.0826,1,1,right,0,958.0828,958.0828,958.0845,959.5851,0,8,8,8,1,0.4,0.6,0.6,0.4,,,,,,,,,,,,,,,0.2307,,0.2,0.8,0.8,0.2,0.8,0.2,0.6,0.4,,,0.4821,,0.8,0.2,0.2,0.8,0.2,0.8,0.8,0.2,1,0
,,6122f17c5f84f0f57feca3e6,66fc989d536b0676f95af6e8,2024-10-01_21h52.24.822,mdp,2024.2.1,MacIntel,59.84082341,66fa4ebf79326e780c390304,,,,,,,,,,,,,,,,,,,,,959.5864,959.5864,959.588,960.273,1,1,right,0.1531,,960.2748,961.2917,1,1,right,961.2938,962.3128,0,1,left,0,962.313,962.313,962.3141,963.8162,0,9,9,9,1,0.4,0.6,0.6,0.4,,,,,,,,,,,,,,,0.5077,,0.2,0.8,0.8,0.2,0.8,0.2,0.6,0.4,,,0.4797,,0.8,0.2,0.2,0.8,0.2,0.8,0.8,0.2,1,0
,,6122f17c5f84f0f57feca3e6,66fc989d536b0676f95af6e8,2024-10-01_21h52.24.822,mdp,2024.2.1,MacIntel,59.84082341,66fa4ebf79326e780c390304,,,,,,,,,,,,,,,,,,,,,963.8173,963.8173,963.8183,964.803,1,0,right,0.4537,,964.8041,966.0369,1,0,right,966.0387,967.4261,1,0,right,1,967.4263,967.4263,967.4275,968.9281,0,10,10,10,1,0.4,0.6,0.6,0.4,,,,,,,,,,,,,,,0.695,,0.2,0.8,0.8,0.2,0.8,0.2,0.6,0.4,,,0.8628,,0.8,0.2,0.2,0.8,0.2,0.8,0.8,0.2,1,0
,,6122f17c5f84f0f57feca3e6,66fc989d536b0676f95af6e8,2024-10-01_21h52.24.822,mdp,2024.2.1,MacIntel,59.84082341,66fa4ebf79326e780c390304,,,,,,,,,,,,,,,,,,,,,968.929,968.929,968.9306,969.7638,1,0,right,0.319,,969.7656,970.483,1,1,right,970.485,971.3182,1,1,right,0,971.3184,971.3185,971.3207,972.8217,0,11,11,11,1,0.4,0.6,0.6,0.4,,,,,,,,,,,,,,,0.2067,,0.2,0.8,0.8,0.2,0.8,0.2,0.6,0.4,,,0.3177,,0.8,0.2,0.2,0.8,0.2,0.8,0.8,0.2,1,0
,,6122f17c5f84f0f57feca3e6,66fc989d536b0676f95af6e8,2024-10-01_21h52.24.822,mdp,2024.2.1,MacIntel,59.84082341,66fa4ebf79326e780c390304,,,,,,,,,,,,,,,,,,,,,972.8227,972.8228,972.8253,973.3736,1,1,right,0.0327,,973.3752,974.1441,0,0,left,974.1454,974.8614,1,0,right,1,974.8616,974.8618,974.8633,976.3495,0,12,12,12,1,0.4,0.6,0.6,0.4,,,,,,,,,,,,,,,0.2464,,0.2,0.8,0.8,0.2,0.8,0.2,0.6,0.4,,,0.1836,,0.8,0.2,0.2,0.8,0.2,0.8,0.8,0.2,1,0
,,6122f17c5f84f0f57feca3e6,66fc989d536b0676f95af6e8,2024-10-01_21h52.24.822,mdp,2024.2.1,MacIntel,59.84082341,66fa4ebf79326e780c390304,,,,,,,,,,,,,,,,,,,,,976.3508,976.3508,976.352,977.6532,1,1,right,0.775,,977.6552,978.9381,0,1,left,978.9396,980.076,0,1,left,0,980.0762,980.0763,980.0778,981.5798,0,13,13,13,1,0.4,0.6,0.6,0.4,,,,,,,,,,,,,,,0.7566,,0.2,0.8,0.8,0.2,0.8,0.2,0.6,0.4,,,0.6097,,0.8,0.2,0.2,0.8,0.2,0.8,0.8,0.2,1,0
,,6122f17c5f84f0f57feca3e6,66fc989d536b0676f95af6e8,2024-10-01_21h52.24.822,mdp,2024.2.1,MacIntel,59.84082341,66fa4ebf79326e780c390304,,,,,,,,,,,,,,,,,,,,,981.581,981.581,981.582,982.5982,1,0,right,0.4856,,982.5997,983.2828,1,0,right,983.2845,983.9026,1,1,right,0,983.9028,983.9029,983.9045,985.4067,0,14,14,14,1,0.4,0.6,0.6,0.4,,,,,,,,,,,,,,,0.1627,,0.2,0.8,0.8,0.2,0.8,0.2,0.6,0.4,,,0.0926,,0.8,0.2,0.2,0.8,0.2,0.8,0.8,0.2,1,0
,,6122f17c5f84f0f57feca3e6,66fc989d536b0676f95af6e8,2024-10-01_21h52.24.822,mdp,2024.2.1,MacIntel,59.84082341,66fa4ebf79326e780c390304,,,,,,,,,,,,,,,,,,,,,985.4078,985.4078,985.4089,986.1904,0,1,left,0.2734,,986.1923,987.2604,1,1,right,987.2621,988.0963,0,1,left,0,988.0965,988.0966,988.0982,989.5846,0,15,15,15,1,0.4,0.6,0.6,0.4,,,,,,,,,,,,,,,0.5453,,0.2,0.8,0.8,0.2,0.6,0.4,0.4,0.6,,,0.2949,,0.8,0.2,0.2,0.8,0.2,0.8,0.8,0.2,1,0
,,6122f17c5f84f0f57feca3e6,66fc989d536b0676f95af6e8,2024-10-01_21h52.24.822,mdp,2024.2.1,MacIntel,59.84082341,66fa4ebf79326e780c390304,,,,,,,,,,,,,,,,,,,,,989.586,989.586,989.587,990.7853,0,1,left,0.6772,,990.7868,991.6558,0,0,left,991.6575,992.7781,1,1,right,0,992.7783,992.7784,992.7795,994.2803,0,16,16,16,1,0.4,0.6,0.6,0.4,,,,,,,,,,,,,,,0.3517,,0.2,0.8,0.8,0.2,0.6,0.4,0.4,0.6,,,0.5984,,0.8,0.2,0.2,0.8,0.2,0.8,0.8,0.2,1,0
,,6122f17c5f84f0f57feca3e6,66fc989d536b0676f95af6e8,2024-10-01_21h52.24.822,mdp,2024.2.1,MacIntel,59.84082341,66fa4ebf79326e780c390304,,,,,,,,,,,,,,,,,,,,,994.2815,994.2816,994.2827,995.131,1,1,right,0.3222,,995.1327,995.9342,0,0,left,995.9363,996.719,1,1,right,0,996.7191,996.7191,996.7208,998.2238,0,17,17,17,1,0.4,0.6,0.6,0.4,,,,,,,,,,,,,,,0.294,,0.2,0.8,0.8,0.2,0.6,0.4,0.4,0.6,,,0.2705,,0.8,0.2,0.2,0.8,0.2,0.8,0.8,0.2,1,0
,,6122f17c5f84f0f57feca3e6,66fc989d536b0676f95af6e8,2024-10-01_21h52.24.822,mdp,2024.2.1,MacIntel,59.84082341,66fa4ebf79326e780c390304,,,,,,,,,,,,,,,,,,,,,998.2247,998.2247,998.2262,999.0406,1,1,right,0.286,,999.0424,999.6254,1,1,right,999.6267,1000.245,1,0,right,1,1000.2451,1000.2451,1000.2467,1001.7524,0,18,18,18,1,0.4,0.6,0.6,0.4,,,,,,,,,,,,,,,0.0671,,0.2,0.8,0.8,0.2,0.6,0.4,0.4,0.6,,,0.094,,0.8,0.2,0.2,0.8,0.2,0.8,0.8,0.2,1,0
,,6122f17c5f84f0f57feca3e6,66fc989d536b0676f95af6e8,2024-10-01_21h52.24.822,mdp,2024.2.1,MacIntel,59.84082341,66fa4ebf79326e780c390304,,,,,,,,,,,,,,,,,,,,,1001.753,1001.753,1001.7539,1002.3511,1,1,right,0.0692,,1002.353,1003.3368,1,0,right,1003.3386,1004.2398,0,0,left,1,1004.2401,1004.2401,1004.2428,1005.7415,0,19,19,19,1,0.4,0.6,0.6,0.4,,,,,,,,,,,,,,,0.4695,,0.2,0.8,0.8,0.2,0.6,0.4,0.4,0.6,,,0.3859,,0.8,0.2,0.2,0.8,0.2,0.8,0.8,0.2,1,0
,,6122f17c5f84f0f57feca3e6,66fc989d536b0676f95af6e8,2024-10-01_21h52.24.822,mdp,2024.2.1,MacIntel,59.84082341,66fa4ebf79326e780c390304,,,,,,,,,,,,,,,,,,,,,1005.7423,1005.7423,1005.7438,1006.8459,0,1,left,0.5869,,1006.8479,1007.4298,0,0,left,1007.4312,1010.9417,1,1,right,0,1010.9421,1010.9422,1010.9436,1012.4456,0,20,20,20,1,0.4,0.6,0.6,0.4,,,,,,,,,,,,,,,0.0705,,0.8,0.2,0.2,0.8,0.6,0.4,0.4,0.6,,,2.9934,,0.8,0.2,0.2,0.8,0.2,0.8,0.8,0.2,1,0
,,6122f17c5f84f0f57feca3e6,66fc989d536b0676f95af6e8,2024-10-01_21h52.24.822,mdp,2024.2.1,MacIntel,59.84082341,66fa4ebf79326e780c390304,,,,,,,,,,,,,,,,,,,,,1012.4468,1012.4469,1012.4479,1013.3802,0,1,left,0.3995,,1013.3821,1014.0816,0,1,left,1014.0832,1014.9358,1,0,right,1,1014.936,1014.936,1014.9377,1016.437,0,21,21,21,1,0.4,0.6,0.6,0.4,,,,,,,,,,,,,,,0.1903,,0.8,0.2,0.2,0.8,0.6,0.4,0.4,0.6,,,0.3265,,0.8,0.2,0.2,0.8,0.2,0.8,0.8,0.2,1,0
,,6122f17c5f84f0f57feca3e6,66fc989d536b0676f95af6e8,2024-10-01_21h52.24.822,mdp,2024.2.1,MacIntel,59.84082341,66fa4ebf79326e780c390304,,,,,,,,,,,,,,,,,,,,,1016.438,1016.438,1016.4397,1017.7097,0,0,left,0.7529,,1017.711,1018.6799,1,1,right,1018.6817,1019.513,0,1,left,0,1019.5132,1019.5132,1019.5149,1021.0017,0,22,22,22,1,0.4,0.6,0.6,0.4,,,,,,,,,,,,,,,0.4376,,0.8,0.2,0.2,0.8,0.6,0.4,0.4,0.6,,,0.3005,,0.8,0.2,0.2,0.8,0.2,0.8,0.8,0.2,1,0
,,6122f17c5f84f0f57feca3e6,66fc989d536b0676f95af6e8,2024-10-01_21h52.24.822,mdp,2024.2.1,MacIntel,59.84082341,66fa4ebf79326e780c390304,,,,,,,,,,,,,,,,,,,,,1021.003,1021.003,1021.004,1021.9881,0,1,left,0.4568,,1021.9899,1022.6045,0,1,left,1022.6063,1023.392,0,1,left,0,1023.3926,1023.3926,1023.3939,1024.8953,0,23,23,23,1,0.4,0.6,0.6,0.4,,,,,,,,,,,,,,,0.0762,,0.8,0.2,0.2,0.8,0.6,0.4,0.4,0.6,,,0.269,,0.8,0.2,0.2,0.8,0.2,0.8,0.8,0.2,1,0
,,6122f17c5f84f0f57feca3e6,66fc989d536b0676f95af6e8,2024-10-01_21h52.24.822,mdp,2024.2.1,MacIntel,59.84082341,66fa4ebf79326e780c390304,,,,,,,,,,,,,,,,,,,,,1024.8968,1024.8968,1024.8978,1025.698,1,0,right,0.2727,,1025.6997,1026.8183,1,1,right,1026.8195,1027.7706,1,0,right,1,1027.7708,1027.7708,1027.7722,1029.2725,0,24,24,24,1,0.4,0.6,0.6,0.4,,,,,,,,,,,,,,,0.5864,,0.8,0.2,0.2,0.8,0.6,0.4,0.4,0.6,,,0.4267,,0.8,0.2,0.2,0.8,0.2,0.8,0.8,0.2,1,0
,,6122f17c5f84f0f57feca3e6,66fc989d536b0676f95af6e8,2024-10-01_21h52.24.822,mdp,2024.2.1,MacIntel,59.84082341,66fa4ebf79326e780c390304,,,,,,,,,,,,,,,,,,,,,1029.2742,1029.2743,1029.2755,1030.277,1,0,right,0.4709,,1030.2783,1031.3307,1,1,right,1031.3322,1032.6639,1,0,right,1,1032.6641,1032.6642,1032.6654,1034.1551,0,25,25,25,1,0.4,0.6,0.6,0.4,,,,,,,,,,,,,,,0.5302,,0.8,0.2,0.2,0.8,0.6,0.4,0.4,0.6,,,0.8021,,0.4,0.6,0.8,0.2,0.2,0.8,0.8,0.2,1,0
,,6122f17c5f84f0f57feca3e6,66fc989d536b0676f95af6e8,2024-10-01_21h52.24.822,mdp,2024.2.1,MacIntel,59.84082341,66fa4ebf79326e780c390304,,,,,,,,,,,,,,,,,,,,,1034.1558,1034.1558,1034.157,1034.8543,1,1,right,0.1691,,1034.8555,1035.8585,1,0,right,1035.8603,1036.8931,1,1,right,0,1036.8932,1036.8932,1036.8949,1038.3819,0,26,26,26,1,0.4,0.6,0.6,0.4,,,,,,,,,,,,,,,0.4781,,0.8,0.2,0.2,0.8,0.6,0.4,0.4,0.6,,,0.5001,,0.4,0.6,0.8,0.2,0.2,0.8,0.8,0.2,1,0
,,6122f17c5f84f0f57feca3e6,66fc989d536b0676f95af6e8,2024-10-01_21h52.24.822,mdp,2024.2.1,MacIntel,59.84082341,66fa4ebf79326e780c390304,,,,,,,,,,,,,,,,,,,,,1038.3833,1038.3833,1038.3847,1039.3685,0,0,left,0.4553,,1039.3699,1040.1678,1,1,right,1040.17,1041.1389,0,1,left,0,1041.1391,1041.1391,1041.1407,1042.642,0,27,27,27,1,0.4,0.6,0.6,0.4,,,,,,,,,,,,,,,0.2622,,0.8,0.2,0.2,0.8,0.6,0.4,0.4,0.6,,,0.4449,,0.4,0.6,0.8,0.2,0.2,0.8,0.8,0.2,1,0
,,6122f17c5f84f0f57feca3e6,66fc989d536b0676f95af6e8,2024-10-01_21h52.24.822,mdp,2024.2.1,MacIntel,59.84082341,66fa4ebf79326e780c390304,,,,,,,,,,,,,,,,,,,,,1042.6431,1042.6431,1042.6447,1043.5952,1,1,right,0.4207,,1043.5967,1044.4484,1,0,right,1044.4497,1045.1665,0,1,left,0,1045.1669,1045.167,1045.1687,1046.669,0,28,28,28,1,0.4,0.6,0.6,0.4,,,,,,,,,,,,,,,0.33,,0.8,0.2,0.2,0.8,0.6,0.4,0.4,0.6,,,0.1929,,0.4,0.6,0.8,0.2,0.2,0.8,0.8,0.2,1,0
,,6122f17c5f84f0f57feca3e6,66fc989d536b0676f95af6e8,2024-10-01_21h52.24.822,mdp,2024.2.1,MacIntel,59.84082341,66fa4ebf79326e780c390304,,,,,,,,,,,,,,,,,,,,,1046.6698,1046.6699,1046.6715,1047.3563,1,1,right,0.1509,,1047.3581,1048.1387,1,1,right,1048.1403,1048.6908,1,1,right,0,1048.6909,1048.6909,1048.6922,1050.1952,0,29,29,29,1,0.4,0.6,0.6,0.4,,,,,,,,,,,,,,,0.2617,,0.8,0.2,0.2,0.8,0.6,0.4,0.4,0.6,,,0.0267,,0.4,0.6,0.8,0.2,0.2,0.8,0.8,0.2,1,0
,,6122f17c5f84f0f57feca3e6,66fc989d536b0676f95af6e8,2024-10-01_21h52.24.822,mdp,2024.2.1,MacIntel,59.84082341,66fa4ebf79326e780c390304,,,,,,,,,,,,,,,,,,,,,1050.1959,1050.1959,1050.1968,1050.8622,0,1,left,0.1504,,1050.8635,1051.7649,1,1,right,1051.7662,1052.7701,0,0,left,1,1052.7702,1052.7702,1052.7716,1054.273,0,30,30,30,1,0.4,0.6,0.6,0.4,,,,,,,,,,,,,,,0.3862,,0.8,0.2,0.2,0.8,0.6,0.4,0.4,0.6,,,0.488,,0.4,0.6,0.8,0.2,0.2,0.8,0.8,0.2,1,0
,,6122f17c5f84f0f57feca3e6,66fc989d536b0676f95af6e8,2024-10-01_21h52.24.822,mdp,2024.2.1,MacIntel,59.84082341,66fa4ebf79326e780c390304,,,,,,,,,,,,,,,,,,,,,1054.2741,1054.2742,1054.2756,1055.2779,0,0,left,0.4851,,1055.279,1056.1456,0,0,left,1056.1475,1057.2151,0,1,left,0,1057.2152,1057.2152,1057.2173,1058.7178,0,31,31,31,1,0.4,0.6,0.6,0.4,,,,,,,,,,,,,,,0.3443,,0.8,0.2,0.2,0.8,0.2,0.8,0.8,0.2,,,0.5522,,0.4,0.6,0.8,0.2,0.2,0.8,0.8,0.2,1,0
,,6122f17c5f84f0f57feca3e6,66fc989d536b0676f95af6e8,2024-10-01_21h52.24.822,mdp,2024.2.1,MacIntel,59.84082341,66fa4ebf79326e780c390304,,,,,,,,,,,,,,,,,,,,,1058.7188,1058.7189,1058.7203,1059.5212,0,0,left,0.2843,,1059.5229,1060.422,1,1,right,1060.4238,1061.3754,0,0,left,1,1061.3755,1061.3755,1061.3775,1062.8784,0,32,32,32,1,0.4,0.6,0.6,0.4,,,,,,,,,,,,,,,0.3849,,0.8,0.2,0.2,0.8,0.2,0.8,0.8,0.2,,,0.4345,,0.4,0.6,0.8,0.2,0.2,0.8,0.8,0.2,1,0
,,6122f17c5f84f0f57feca3e6,66fc989d536b0676f95af6e8,2024-10-01_21h52.24.822,mdp,2024.2.1,MacIntel,59.84082341,66fa4ebf79326e780c390304,,,,,,,,,,,,,,,,,,,,,1062.879,1062.879,1062.8802,1063.7819,0,1,left,0.3905,,1063.7836,1064.6673,0,1,left,1064.669,1065.4868,0,1,left,0,1065.487,1065.4871,1065.4893,1066.9917,0,33,33,33,1,0.4,0.6,0.6,0.4,,,,,,,,,,,,,,,0.3615,,0.8,0.2,0.2,0.8,0.2,0.8,0.8,0.2,,,0.3105,,0.4,0.6,0.8,0.2,0.2,0.8,0.8,0.2,1,0
,,6122f17c5f84f0f57feca3e6,66fc989d536b0676f95af6e8,2024-10-01_21h52.24.822,mdp,2024.2.1,MacIntel,59.84082341,66fa4ebf79326e780c390304,,,,,,,,,,,,,,,,,,,,,1066.9929,1066.9929,1066.9938,1068.2422,0,1,left,0.7204,,1068.2437,1069.0803,1,0,right,1069.0817,1069.9329,0,1,left,0,1069.9331,1069.9331,1069.9345,1071.4354,0,34,34,34,1,0.4,0.6,0.6,0.4,,,,,,,,,,,,,,,0.3234,,0.8,0.2,0.2,0.8,0.2,0.8,0.8,0.2,,,0.3309,,0.4,0.6,0.8,0.2,0.2,0.8,0.8,0.2,1,0
,,6122f17c5f84f0f57feca3e6,66fc989d536b0676f95af6e8,2024-10-01_21h52.24.822,mdp,2024.2.1,MacIntel,59.84082341,66fa4ebf79326e780c390304,,,,,,,,,,,,,,,,,,,,,1071.4366,1071.4366,1071.4391,1072.1377,0,1,left,0.1913,,1072.1399,1072.989,0,1,left,1072.9906,1074.3617,0,1,left,0,1074.3621,1074.3621,1074.3632,1075.8647,0,35,35,35,1,0.4,0.6,0.6,0.4,,,,,,,,,,,,,,,0.3374,,0.8,0.2,0.2,0.8,0.2,0.8,0.8,0.2,,,0.851,,0.4,0.6,0.8,0.2,0.2,0.8,0.8,0.2,1,0
,,6122f17c5f84f0f57feca3e6,66fc989d536b0676f95af6e8,2024-10-01_21h52.24.822,mdp,2024.2.1,MacIntel,59.84082341,66fa4ebf79326e780c390304,,,,,,,,,,,,,,,,,,,,,1075.866,1075.866,1075.8672,1076.3982,1,0,right,0.0173,,1076.4001,1077.2525,0,0,left,1077.2544,1078.7879,1,0,right,1,1078.7883,1078.7884,1078.7903,1080.2767,0,36,36,36,1,0.4,0.6,0.6,0.4,,,,,,,,,,,,,,,0.3278,,0.8,0.2,0.2,0.8,0.2,0.8,0.8,0.2,,,0.9988,,0.4,0.6,0.8,0.2,0.2,0.8,0.8,0.2,1,0
,,6122f17c5f84f0f57feca3e6,66fc989d536b0676f95af6e8,2024-10-01_21h52.24.822,mdp,2024.2.1,MacIntel,59.84082341,66fa4ebf79326e780c390304,,,,,,,,,,,,,,,,,,,,,1080.2777,1080.2777,1080.279,1081.6625,1,0,right,0.8764,,1081.6636,1082.9842,1,0,right,1082.9854,1083.9873,0,1,left,0,1083.9875,1083.9875,1083.9884,1085.488,0,37,37,37,1,0.4,0.6,0.6,0.4,,,,,,,,,,,,,,,0.7918,,0.8,0.2,0.2,0.8,0.2,0.8,0.8,0.2,,,0.4784,,0.4,0.6,0.8,0.2,0.2,0.8,0.8,0.2,1,0
,,6122f17c5f84f0f57feca3e6,66fc989d536b0676f95af6e8,2024-10-01_21h52.24.822,mdp,2024.2.1,MacIntel,59.84082341,66fa4ebf79326e780c390304,,,,,,,,,,,,,,,,,,,,,1085.4889,1085.4889,1085.4905,1086.1064,1,1,right,0.103,,1086.1077,1086.6786,1,0,right,1086.68,1087.6472,1,0,right,1,1087.6474,1087.6474,1087.6493,1089.1476,0,38,38,38,1,0.4,0.6,0.6,0.4,,,,,,,,,,,,,,,0.0469,,0.8,0.2,0.2,0.8,0.2,0.8,0.8,0.2,,,0.4338,,0.4,0.6,0.8,0.2,0.2,0.8,0.8,0.2,1,0
,,6122f17c5f84f0f57feca3e6,66fc989d536b0676f95af6e8,2024-10-01_21h52.24.822,mdp,2024.2.1,MacIntel,59.84082341,66fa4ebf79326e780c390304,,,,,,,,,,,,,,,,,,,,,1089.1484,1089.1484,1089.1498,1089.7173,1,0,right,0.0542,,1089.7192,1090.4016,1,1,right,1090.4029,1091.1046,1,0,right,1,1091.1047,1091.1047,1091.1067,1092.5928,0,39,39,39,1,0.4,0.6,0.6,0.4,,,,,,,,,,,,,,,0.1639,,0.8,0.2,0.2,0.8,0.2,0.8,0.8,0.2,,,0.1831,,0.4,0.6,0.8,0.2,0.2,0.8,0.8,0.2,1,0
,,6122f17c5f84f0f57feca3e6,66fc989d536b0676f95af6e8,2024-10-01_21h52.24.822,mdp,2024.2.1,MacIntel,59.84082341,66fa4ebf79326e780c390304,,,,,,,,,,,,,,,,,,,,,1092.594,1092.5941,1092.5952,1093.2771,1,0,right,0.1685,,1093.2788,1093.9817,1,1,right,1093.9828,1094.5299,1,0,right,1,1094.53,1094.53,1094.5318,1096.0189,0,40,40,40,1,0.4,0.6,0.6,0.4,,,,,,,,,,,,,,,0.187,,0.8,0.2,0.2,0.8,0.2,0.8,0.8,0.2,,,0.0232,,0.4,0.6,0.8,0.2,0.2,0.8,0.8,0.2,1,0
,,6122f17c5f84f0f57feca3e6,66fc989d536b0676f95af6e8,2024-10-01_21h52.24.822,mdp,2024.2.1,MacIntel,59.84082341,66fa4ebf79326e780c390304,,,,,,,,,,,,,,,,,,,,,1096.0202,1096.0202,1096.0213,1096.6876,1,0,right,0.1383,,1096.6893,1097.2904,1,1,right,1097.2921,1097.988,1,0,right,1,1097.9882,1097.9882,1097.9896,1099.478,0,41,41,41,1,0.4,0.6,0.6,0.4,,,,,,,,,,,,,,,0.0761,,0.8,0.2,0.2,0.8,0.2,0.8,0.8,0.2,,,0.1695,,0.4,0.6,0.8,0.2,0.2,0.8,0.8,0.2,1,0
,,6122f17c5f84f0f57feca3e6,66fc989d536b0676f95af6e8,2024-10-01_21h52.24.822,mdp,2024.2.1,MacIntel,59.84082341,66fa4ebf79326e780c390304,,,,,,,,,,,,,,,,,,,,,1099.4793,1099.4793,1099.4805,1100.0617,1,0,right,0.0577,,1100.0634,1100.7135,1,0,right,1100.7153,1101.3837,0,0,left,1,1101.384,1101.384,1101.3851,1102.8873,0,42,42,42,1,0.4,0.6,0.6,0.4,,,,,,,,,,,,,,,0.1401,,0.8,0.2,0.2,0.8,0.2,0.8,0.8,0.2,,,0.1454,,0.4,0.6,0.8,0.2,0.4,0.6,0.2,0.8,1,0
,,6122f17c5f84f0f57feca3e6,66fc989d536b0676f95af6e8,2024-10-01_21h52.24.822,mdp,2024.2.1,MacIntel,59.84082341,66fa4ebf79326e780c390304,,,,,,,,,,,,,,,,,,,,,1102.8885,1102.8885,1102.8895,1103.6559,1,1,right,0.2393,,1103.6578,1104.2076,1,0,right,1104.2093,1104.9764,1,0,right,1,1104.9768,1104.977,1104.9782,1106.4803,0,43,43,43,1,0.4,0.6,0.6,0.4,,,,,,,,,,,,,,,0.0246,,0.8,0.2,0.2,0.8,0.2,0.8,0.8,0.2,,,0.2509,,0.4,0.6,0.8,0.2,0.4,0.6,0.2,0.8,1,0
,,6122f17c5f84f0f57feca3e6,66fc989d536b0676f95af6e8,2024-10-01_21h52.24.822,mdp,2024.2.1,MacIntel,59.84082341,66fa4ebf79326e780c390304,,,,,,,,,,,,,,,,,,,,,1106.4817,1106.4817,1106.4828,1107.1487,1,1,right,0.1374,,1107.1503,1107.7839,1,0,right,1107.7862,1108.5364,1,0,right,1,1108.5365,1108.5365,1108.5376,1110.0386,0,44,44,44,1,0.4,0.6,0.6,0.4,,,,,,,,,,,,,,,0.1204,,0.8,0.2,0.2,0.8,0.2,0.8,0.8,0.2,,,0.2167,,0.4,0.6,0.8,0.2,0.4,0.6,0.2,0.8,1,0
,,6122f17c5f84f0f57feca3e6,66fc989d536b0676f95af6e8,2024-10-01_21h52.24.822,mdp,2024.2.1,MacIntel,59.84082341,66fa4ebf79326e780c390304,,,,,,,,,,,,,,,,,,,,,1110.0397,1110.0398,1110.0418,1110.6231,1,1,right,0.0666,,1110.6244,1111.16,1,0,right,1111.1615,1111.7777,1,0,right,1,1111.778,1111.778,1111.7794,1113.2813,0,45,45,45,1,0.4,0.6,0.6,0.4,,,,,,,,,,,,,,,0.0029,,0.8,0.2,0.2,0.8,0.2,0.8,0.8,0.2,,,0.1002,,0.4,0.6,0.8,0.2,0.4,0.6,0.2,0.8,1,0
,,6122f17c5f84f0f57feca3e6,66fc989d536b0676f95af6e8,2024-10-01_21h52.24.822,mdp,2024.2.1,MacIntel,59.84082341,66fa4ebf79326e780c390304,,,,,,,,,,,,,,,,,,,,,1113.2824,1113.2824,1113.2838,1113.8652,1,1,right,0.0706,,1113.867,1114.5006,1,0,right,1114.5017,1115.2016,1,1,right,0,1115.2016,1115.2016,1115.2029,1116.6909,0,46,46,46,1,0.4,0.6,0.6,0.4,,,,,,,,,,,,,,,0.1007,,0.8,0.2,0.2,0.8,0.2,0.8,0.8,0.2,,,0.1923,,0.4,0.6,0.8,0.2,0.4,0.6,0.2,0.8,1,0
,,6122f17c5f84f0f57feca3e6,66fc989d536b0676f95af6e8,2024-10-01_21h52.24.822,mdp,2024.2.1,MacIntel,59.84082341,66fa4ebf79326e780c390304,,,,,,,,,,,,,,,,,,,,,1116.6921,1116.6921,1116.6933,1117.2593,1,0,right,0.0356,,1117.261,1117.9775,1,1,right,1117.9799,1118.6615,1,1,right,0,1118.6617,1118.6617,1118.6634,1120.1506,0,47,47,47,1,0.4,0.6,0.6,0.4,,,,,,,,,,,,,,,0.1978,,0.8,0.2,0.2,0.8,0.2,0.8,0.8,0.2,,,0.1663,,0.4,0.6,0.8,0.2,0.4,0.6,0.2,0.8,1,0
,,6122f17c5f84f0f57feca3e6,66fc989d536b0676f95af6e8,2024-10-01_21h52.24.822,mdp,2024.2.1,MacIntel,59.84082341,66fa4ebf79326e780c390304,,,,,,,,,,,,,,,,,,,,,1120.1516,1120.1517,1120.1527,1120.816,1,1,right,0.1383,,1120.8174,1121.4867,1,0,right,1121.4883,1122.2208,0,0,left,1,1122.221,1122.221,1122.2221,1123.7111,0,48,48,48,1,0.4,0.6,0.6,0.4,,,,,,,,,,,,,,,0.1458,,0.8,0.2,0.2,0.8,0.2,0.8,0.8,0.2,,,0.2085,,0.4,0.6,0.8,0.2,0.8,0.2,0.6,0.4,1,0
,,6122f17c5f84f0f57feca3e6,66fc989d536b0676f95af6e8,2024-10-01_21h52.24.822,mdp,2024.2.1,MacIntel,59.84082341,66fa4ebf79326e780c390304,,,,,,,,,,,,,,,,,,,,,1123.7119,1123.7119,1123.7131,1124.4427,0,0,left,0.2091,,1124.4443,1125.2455,1,1,right,1125.2472,1126.0489,1,0,right,1,1126.0492,1126.0492,1126.0506,1127.5524,0,49,49,49,1,0.4,0.6,0.6,0.4,,,,,,,,,,,,,,,0.284,,0.8,0.2,0.2,0.8,0.2,0.8,0.8,0.2,,,0.2818,,0.4,0.6,0.8,0.2,0.8,0.2,0.6,0.4,1,0
,,6122f17c5f84f0f57feca3e6,66fc989d536b0676f95af6e8,2024-10-01_21h52.24.822,mdp,2024.2.1,MacIntel,59.84082341,66fa4ebf79326e780c390304,,,,,,,,,,,,,,,,,,,,,,,,,,,,,,,,,,,,,,,,,,,,,,,,,,,,,,,,1127.5527,1186.0572,0,3,3,8,1,imgs/elephant.png,imgs/giraffe.png,imgs/bear.png,imgs/kangaroo.png,imgs/goat.png,,,,,,,,,,,,,,,,,,,,,,,,
,,6122f17c5f84f0f57feca3e6,66fc989d536b0676f95af6e8,2024-10-01_21h52.24.822,mdp,2024.2.1,MacIntel,59.84082341,66fa4ebf79326e780c390304,,,,,,,,,,,,,,1,seqs/st1seq18.csv,1186.0591,1187.3456,space,0.7686,,1187.3495,1187.3495,1187.3504,1188.0785,0,1,left,0.1962,,1188.0795,1188.0833,1,1,,1188.0842,1188.0869,1,1,,0,1188.0869,1188.0869,1188.0877,1189.5836,0,0,0,0,1,0.2,0.8,0.8,0.2,1,0,,,,,,,,,,,,,,,,,,,,,,,,,,,,,,,,,,,,
,,6122f17c5f84f0f57feca3e6,66fc989d536b0676f95af6e8,2024-10-01_21h52.24.822,mdp,2024.2.1,MacIntel,59.84082341,66fa4ebf79326e780c390304,,,,,,,,,,,,,,,,,,,,,1189.5843,1189.5843,1189.5858,1190.4016,1,0,right,0.3056,,1190.4029,1190.4063,1,0,,1190.4073,1190.4099,1,0,,1,1190.4101,1190.4101,1190.4109,1191.907,0,1,1,1,1,0.2,0.8,0.8,0.2,1,0,,,,,,,,,,,,,,,,,,,,,,,,,,,,,,,,,,,,
,,6122f17c5f84f0f57feca3e6,66fc989d536b0676f95af6e8,2024-10-01_21h52.24.822,mdp,2024.2.1,MacIntel,59.84082341,66fa4ebf79326e780c390304,,,,,,,,,,,,,,,,,,,,,1191.9078,1191.9079,1191.9096,1192.7938,1,0,right,0.3519,,1192.7955,1192.7985,1,0,,1192.7994,1192.8017,1,1,,1,1192.8017,1192.8017,1192.8026,1194.2983,0,2,2,2,1,0.2,0.8,0.8,0.2,1,0,,,,,,,,,,,,,,,,,,,,,,,,,,,,,,,,,,,,
,,6122f17c5f84f0f57feca3e6,66fc989d536b0676f95af6e8,2024-10-01_21h52.24.822,mdp,2024.2.1,MacIntel,59.84082341,66fa4ebf79326e780c390304,,,,,,,,,,,,,,,,,,,,,1194.299,1194.299,1194.3002,1195.1342,1,0,right,0.2984,,1195.1357,1195.1386,1,0,,1195.1394,1195.1415,1,0,,1,1195.1416,1195.1417,1195.1422,1196.6359,0,3,3,3,1,0.2,0.8,0.8,0.2,1,0,,,,,,,,,,,,,,,,,,,,,,,,,,,,,,,,,,,,
,,6122f17c5f84f0f57feca3e6,66fc989d536b0676f95af6e8,2024-10-01_21h52.24.822,mdp,2024.2.1,MacIntel,59.84082341,66fa4ebf79326e780c390304,,,,,,,,,,,,,,,,,,,,,1196.6365,1196.6366,1196.6386,1197.3385,1,1,right,0.1914,,1197.34,1197.3431,1,0,,1197.3439,1197.3467,1,0,,0,1197.3468,1197.3468,1197.3478,1198.8416,0,4,4,4,1,0.2,0.8,0.8,0.2,1,0,,,,,,,,,,,,,,,,,,,,,,,,,,,,,,,,,,,,
,,6122f17c5f84f0f57feca3e6,66fc989d536b0676f95af6e8,2024-10-01_21h52.24.822,mdp,2024.2.1,MacIntel,59.84082341,66fa4ebf79326e780c390304,,,,,,,,,,,,,,,,,,,,,1198.8419,1198.8419,1198.8432,1199.6615,0,1,left,0.3096,,1199.6635,1199.6663,1,1,,1199.6669,1199.6689,1,1,,0,1199.669,1199.669,1199.6696,1201.1644,0,5,5,5,1,0.2,0.8,0.8,0.2,1,0,,,,,,,,,,,,,,,,,,,,,,,,,,,,,,,,,,,,
,,6122f17c5f84f0f57feca3e6,66fc989d536b0676f95af6e8,2024-10-01_21h52.24.822,mdp,2024.2.1,MacIntel,59.84082341,66fa4ebf79326e780c390304,,,,,,,,,,,,,,,,,,,,,1201.1653,1201.1654,1201.1667,1201.9837,1,1,right,0.2853,,1201.9855,1201.9887,1,1,,1201.9894,1201.9917,1,0,,0,1201.9919,1201.9919,1201.9928,1203.4872,0,6,6,6,1,0.2,0.8,0.8,0.2,1,0,,,,,,,,,,,,,,,,,,,,,,,,,,,,,,,,,,,,
,,6122f17c5f84f0f57feca3e6,66fc989d536b0676f95af6e8,2024-10-01_21h52.24.822,mdp,2024.2.1,MacIntel,59.84082341,66fa4ebf79326e780c390304,,,,,,,,,,,,,,,,,,,,,1203.4876,1203.4876,1203.4891,1204.172,1,0,right,0.169,,1204.1729,1204.1761,1,0,,1204.1771,1204.1794,1,1,,1,1204.1795,1204.1795,1204.1804,1205.6782,0,7,7,7,1,0.2,0.8,0.8,0.2,1,0,,,,,,,,,,,,,,,,,,,,,,,,,,,,,,,,,,,,
,,6122f17c5f84f0f57feca3e6,66fc989d536b0676f95af6e8,2024-10-01_21h52.24.822,mdp,2024.2.1,MacIntel,59.84082341,66fa4ebf79326e780c390304,,,,,,,,,,,,,,,,,,,,,1205.6797,1205.6797,1205.6811,1206.4126,0,1,left,0.2041,,1206.4147,1206.4185,1,1,,1206.4198,1206.4232,1,1,,0,1206.4233,1206.4233,1206.4245,1207.9162,0,8,8,8,1,0.2,0.8,0.8,0.2,1,0,,,,,,,,,,,,,,,,,,,,,,,,,,,,,,,,,,,,
,,6122f17c5f84f0f57feca3e6,66fc989d536b0676f95af6e8,2024-10-01_21h52.24.822,mdp,2024.2.1,MacIntel,59.84082341,66fa4ebf79326e780c390304,,,,,,,,,,,,,,,,,,,,,1207.9168,1207.9169,1207.9183,1208.6669,0,1,left,0.2355,,1208.6684,1208.6729,1,0,,1208.6756,1208.679,1,1,,0,1208.679,1208.679,1208.6801,1210.1721,0,9,9,9,1,0.2,0.8,0.8,0.2,1,0,,,,,,,,,,,,,,,,,,,,,,,,,,,,,,,,,,,,
,,6122f17c5f84f0f57feca3e6,66fc989d536b0676f95af6e8,2024-10-01_21h52.24.822,mdp,2024.2.1,MacIntel,59.84082341,66fa4ebf79326e780c390304,,,,,,,,,,,,,,,,,,,,,1210.1728,1210.1728,1210.1757,1210.8737,0,1,left,0.1917,,1210.8746,1210.8778,1,1,,1210.8784,1210.8805,1,1,,0,1210.8806,1210.8806,1210.8813,1212.3803,0,10,10,10,1,0.2,0.8,0.8,0.2,1,0,,,,,,,,,,,,,,,,,,,,,,,,,,,,,,,,,,,,
,,6122f17c5f84f0f57feca3e6,66fc989d536b0676f95af6e8,2024-10-01_21h52.24.822,mdp,2024.2.1,MacIntel,59.84082341,66fa4ebf79326e780c390304,,,,,,,,,,,,,,,,,,,,,1212.3807,1212.3807,1212.3818,1213.1961,1,1,right,0.2859,,1213.1978,1213.2006,1,0,,1213.2012,1213.2036,1,1,,0,1213.2036,1213.2036,1213.2045,1214.7023,0,11,11,11,1,0.8,0.2,0.2,0.8,1,0,,,,,,,,,,,,,,,,,,,,,,,,,,,,,,,,,,,,
,,6122f17c5f84f0f57feca3e6,66fc989d536b0676f95af6e8,2024-10-01_21h52.24.822,mdp,2024.2.1,MacIntel,59.84082341,66fa4ebf79326e780c390304,,,,,,,,,,,,,,,,,,,,,1214.7031,1214.7032,1214.7043,1215.2528,1,1,right,0.0262,,1215.2543,1215.2567,1,1,,1215.2575,1215.2598,1,1,,0,1215.2599,1215.2599,1215.2605,1216.7577,0,12,12,12,1,0.6,0.4,0.4,0.6,1,0,,,,,,,,,,,,,,,,,,,,,,,,,,,,,,,,,,,,
,,6122f17c5f84f0f57feca3e6,66fc989d536b0676f95af6e8,2024-10-01_21h52.24.822,mdp,2024.2.1,MacIntel,59.84082341,66fa4ebf79326e780c390304,,,,,,,,,,,,,,,,,,,,,1216.7582,1216.7582,1216.7596,1217.6093,0,1,left,0.3183,,1217.6112,1217.6139,1,0,,1217.6147,1217.6171,1,1,,0,1217.6172,1217.6172,1217.6178,1219.1121,0,13,13,13,1,0.6,0.4,0.4,0.6,1,0,,,,,,,,,,,,,,,,,,,,,,,,,,,,,,,,,,,,
,,6122f17c5f84f0f57feca3e6,66fc989d536b0676f95af6e8,2024-10-01_21h52.24.822,mdp,2024.2.1,MacIntel,59.84082341,66fa4ebf79326e780c390304,,,,,,,,,,,,,,,,,,,,,1219.1126,1219.1127,1219.1144,1219.8311,0,0,left,0.1914,,1219.8323,1219.8353,1,1,,1219.8361,1219.8384,1,0,,1,1219.8384,1219.8384,1219.8391,1221.3338,0,14,14,14,1,0.6,0.4,0.4,0.6,1,0,,,,,,,,,,,,,,,,,,,,,,,,,,,,,,,,,,,,
,,6122f17c5f84f0f57feca3e6,66fc989d536b0676f95af6e8,2024-10-01_21h52.24.822,mdp,2024.2.1,MacIntel,59.84082341,66fa4ebf79326e780c390304,,,,,,,,,,,,,,,,,,,,,1221.3343,1221.3343,1221.3354,1222.0705,1,0,right,0.2257,,1222.0718,1222.075,1,0,,1222.0756,1222.0781,1,1,,1,1222.0782,1222.0782,1222.079,1223.5769,0,15,15,15,1,0.6,0.4,0.4,0.6,1,0,,,,,,,,,,,,,,,,,,,,,,,,,,,,,,,,,,,,
,,6122f17c5f84f0f57feca3e6,66fc989d536b0676f95af6e8,2024-10-01_21h52.24.822,mdp,2024.2.1,MacIntel,59.84082341,66fa4ebf79326e780c390304,,,,,,,,,,,,,,,,,,,,,1223.5774,1223.5774,1223.5786,1224.3433,1,0,right,0.2371,,1224.3448,1224.3477,1,1,,1224.3485,1224.3505,1,0,,1,1224.3506,1224.3506,1224.3513,1225.8485,0,16,16,16,1,0.8,0.2,0.6,0.4,1,0,,,,,,,,,,,,,,,,,,,,,,,,,,,,,,,,,,,,
,,6122f17c5f84f0f57feca3e6,66fc989d536b0676f95af6e8,2024-10-01_21h52.24.822,mdp,2024.2.1,MacIntel,59.84082341,66fa4ebf79326e780c390304,,,,,,,,,,,,,,,,,,,,,1225.8491,1225.8492,1225.8506,1226.6333,1,0,right,0.2524,,1226.6354,1226.6388,1,0,,1226.6398,1226.6432,1,0,,1,1226.6432,1226.6433,1226.6441,1228.137,0,17,17,17,1,0.8,0.2,0.6,0.4,1,0,,,,,,,,,,,,,,,,,,,,,,,,,,,,,,,,,,,,
,,6122f17c5f84f0f57feca3e6,66fc989d536b0676f95af6e8,2024-10-01_21h52.24.822,mdp,2024.2.1,MacIntel,59.84082341,66fa4ebf79326e780c390304,,,,,,,,,,,,,,,,,,,,,1228.1375,1228.1375,1228.1394,1228.9378,0,0,left,0.2885,,1228.9398,1228.9435,1,0,,1228.9445,1228.9478,1,0,,1,1228.9479,1228.9479,1228.949,1230.4416,0,18,18,18,1,0.6,0.4,0.8,0.2,1,0,,,,,,,,,,,,,,,,,,,,,,,,,,,,,,,,,,,,
,,6122f17c5f84f0f57feca3e6,66fc989d536b0676f95af6e8,2024-10-01_21h52.24.822,mdp,2024.2.1,MacIntel,59.84082341,66fa4ebf79326e780c390304,,,,,,,,,,,,,,,,,,,,,1230.4421,1230.4421,1230.4442,1231.1947,1,1,right,0.234,,1231.1968,1231.2003,1,0,,1231.2014,1231.205,1,0,,0,1231.2051,1231.2051,1231.2063,1232.7004,0,19,19,19,1,0.6,0.4,0.8,0.2,1,0,,,,,,,,,,,,,,,,,,,,,,,,,,,,,,,,,,,,
,,6122f17c5f84f0f57feca3e6,66fc989d536b0676f95af6e8,2024-10-01_21h52.24.822,mdp,2024.2.1,MacIntel,59.84082341,66fa4ebf79326e780c390304,,,,,,,,,,,,,,,,,,,,,1232.7012,1232.7013,1232.7028,1233.3836,0,0,left,0.1522,,1233.3856,1233.3894,1,0,,1233.3905,1233.3937,1,0,,1,1233.3938,1233.3938,1233.3948,1234.888,0,20,20,20,1,0.6,0.4,0.8,0.2,1,0,,,,,,,,,,,,,,,,,,,,,,,,,,,,,,,,,,,,
,,6122f17c5f84f0f57feca3e6,66fc989d536b0676f95af6e8,2024-10-01_21h52.24.822,mdp,2024.2.1,MacIntel,59.84082341,66fa4ebf79326e780c390304,,,,,,,,,,,,,,,,,,,,,1234.8887,1234.8887,1234.892,1235.641,0,0,left,0.2399,,1235.6426,1235.6449,1,1,,1235.6454,1235.6475,1,0,,1,1235.6475,1235.6475,1235.6482,1237.144,0,21,21,21,1,0.6,0.4,0.8,0.2,1,0,,,,,,,,,,,,,,,,,,,,,,,,,,,,,,,,,,,,
,,6122f17c5f84f0f57feca3e6,66fc989d536b0676f95af6e8,2024-10-01_21h52.24.822,mdp,2024.2.1,MacIntel,59.84082341,66fa4ebf79326e780c390304,,,,,,,,,,,,,,,,,,,,,1237.1445,1237.1446,1237.1464,1237.7975,0,0,left,0.1215,,1237.7994,1237.8026,1,1,,1237.8036,1237.8069,1,1,,1,1237.807,1237.807,1237.808,1239.3014,0,22,22,22,1,0.6,0.4,0.8,0.2,1,0,,,,,,,,,,,,,,,,,,,,,,,,,,,,,,,,,,,,
,,6122f17c5f84f0f57feca3e6,66fc989d536b0676f95af6e8,2024-10-01_21h52.24.822,mdp,2024.2.1,MacIntel,59.84082341,66fa4ebf79326e780c390304,,,,,,,,,,,,,,,,,,,,,1239.3021,1239.3022,1239.3038,1239.9864,0,1,left,0.1685,,1239.9882,1239.9916,1,0,,1239.9928,1239.9964,1,0,,0,1239.9965,1239.9965,1239.9975,1241.4893,0,23,23,23,1,0.6,0.4,0.8,0.2,1,0,,,,,,,,,,,,,,,,,,,,,,,,,,,,,,,,,,,,
,,6122f17c5f84f0f57feca3e6,66fc989d536b0676f95af6e8,2024-10-01_21h52.24.822,mdp,2024.2.1,MacIntel,59.84082341,66fa4ebf79326e780c390304,,,,,,,,,,,,,,,,,,,,,1241.4898,1241.4898,1241.4917,1242.2401,0,1,left,0.2177,,1242.2418,1242.2462,1,1,,1242.2472,1242.2507,1,0,,0,1242.2507,1242.2507,1242.2517,1243.745,0,24,24,24,1,0.4,0.6,0.6,0.4,1,0,,,,,,,,,,,,,,,,,,,,,,,,,,,,,,,,,,,,
,,6122f17c5f84f0f57feca3e6,66fc989d536b0676f95af6e8,2024-10-01_21h52.24.822,mdp,2024.2.1,MacIntel,59.84082341,66fa4ebf79326e780c390304,,,,,,,,,,,,,,,,,,,,,1243.7456,1243.7456,1243.7479,1244.6477,0,0,left,0.3876,,1244.6499,1244.6536,1,0,,1244.6545,1244.658,1,0,,1,1244.6581,1244.6581,1244.6591,1246.153,0,25,25,25,1,0.8,0.2,0.4,0.6,1,0,,,,,,,,,,,,,,,,,,,,,,,,,,,,,,,,,,,,
,,6122f17c5f84f0f57feca3e6,66fc989d536b0676f95af6e8,2024-10-01_21h52.24.822,mdp,2024.2.1,MacIntel,59.84082341,66fa4ebf79326e780c390304,,,,,,,,,,,,,,,,,,,,,1246.1539,1246.1541,1246.1558,1246.7382,0,1,left,0.0508,,1246.7402,1246.7435,1,0,,1246.7444,1246.7478,1,0,,0,1246.7478,1246.7479,1246.7489,1248.2404,0,26,26,26,1,0.8,0.2,0.4,0.6,1,0,,,,,,,,,,,,,,,,,,,,,,,,,,,,,,,,,,,,
,,6122f17c5f84f0f57feca3e6,66fc989d536b0676f95af6e8,2024-10-01_21h52.24.822,mdp,2024.2.1,MacIntel,59.84082341,66fa4ebf79326e780c390304,,,,,,,,,,,,,,,,,,,,,1248.2413,1248.2413,1248.243,1248.9256,1,1,right,0.1759,,1248.9283,1248.932,1,0,,1248.933,1248.9363,1,0,,0,1248.9364,1248.9364,1248.9373,1250.4282,0,27,27,27,1,0.2,0.8,0.8,0.2,1,0,,,,,,,,,,,,,,,,,,,,,,,,,,,,,,,,,,,,
,,6122f17c5f84f0f57feca3e6,66fc989d536b0676f95af6e8,2024-10-01_21h52.24.822,mdp,2024.2.1,MacIntel,59.84082341,66fa4ebf79326e780c390304,,,,,,,,,,,,,,,,,,,,,1250.4287,1250.4288,1250.4303,1251.1483,1,0,right,0.2032,,1251.1506,1251.1545,1,0,,1251.1556,1251.1589,1,0,,1,1251.159,1251.159,1251.16,1252.6537,0,28,28,28,1,0.2,0.8,0.8,0.2,1,0,,,,,,,,,,,,,,,,,,,,,,,,,,,,,,,,,,,,
,,6122f17c5f84f0f57feca3e6,66fc989d536b0676f95af6e8,2024-10-01_21h52.24.822,mdp,2024.2.1,MacIntel,59.84082341,66fa4ebf79326e780c390304,,,,,,,,,,,,,,,,,,,,,1252.6546,1252.6546,1252.6563,1253.4871,1,0,right,0.3228,,1253.489,1253.4927,1,0,,1253.4935,1253.4959,1,0,,1,1253.4959,1253.496,1253.4967,1254.9929,0,29,29,29,1,0.2,0.8,0.8,0.2,1,0,,,,,,,,,,,,,,,,,,,,,,,,,,,,,,,,,,,,
,,6122f17c5f84f0f57feca3e6,66fc989d536b0676f95af6e8,2024-10-01_21h52.24.822,mdp,2024.2.1,MacIntel,59.84082341,66fa4ebf79326e780c390304,,,,,,,,,,,,,,,,,,,,,1254.9937,1254.9938,1254.9953,1255.7951,1,0,right,0.2918,,1255.797,1255.8002,1,1,,1255.8013,1255.8046,1,1,,1,1255.8047,1255.8047,1255.8057,1257.2993,0,30,30,30,1,0.6,0.4,0.2,0.8,1,0,,,,,,,,,,,,,,,,,,,,,,,,,,,,,,,,,,,,
,,6122f17c5f84f0f57feca3e6,66fc989d536b0676f95af6e8,2024-10-01_21h52.24.822,mdp,2024.2.1,MacIntel,59.84082341,66fa4ebf79326e780c390304,,,,,,,,,,,,,,,,,,,,,1257.3,1257.3,1257.3017,1258.1013,1,1,right,0.2893,,1258.1032,1258.1068,1,0,,1258.1079,1258.1112,1,0,,0,1258.1112,1258.1113,1258.1123,1259.6044,0,31,31,31,1,0.6,0.4,0.2,0.8,1,0,,,,,,,,,,,,,,,,,,,,,,,,,,,,,,,,,,,,
,,6122f17c5f84f0f57feca3e6,66fc989d536b0676f95af6e8,2024-10-01_21h52.24.822,mdp,2024.2.1,MacIntel,59.84082341,66fa4ebf79326e780c390304,,,,,,,,,,,,,,,,,,,,,1259.6049,1259.605,1259.6071,1260.5081,1,1,right,0.3821,,1260.5101,1260.5134,1,0,,1260.5143,1260.5175,1,1,,0,1260.5176,1260.5176,1260.5187,1262.0105,0,32,32,32,1,0.6,0.4,0.2,0.8,1,0,,,,,,,,,,,,,,,,,,,,,,,,,,,,,,,,,,,,
,,6122f17c5f84f0f57feca3e6,66fc989d536b0676f95af6e8,2024-10-01_21h52.24.822,mdp,2024.2.1,MacIntel,59.84082341,66fa4ebf79326e780c390304,,,,,,,,,,,,,,,,,,,,,1262.0111,1262.0112,1262.0133,1262.7306,1,1,right,0.2045,,1262.7326,1262.7359,1,1,,1262.737,1262.7405,1,0,,0,1262.7407,1262.7407,1262.7416,1264.2346,0,33,33,33,1,0.6,0.4,0.2,0.8,1,0,,,,,,,,,,,,,,,,,,,,,,,,,,,,,,,,,,,,
,,6122f17c5f84f0f57feca3e6,66fc989d536b0676f95af6e8,2024-10-01_21h52.24.822,mdp,2024.2.1,MacIntel,59.84082341,66fa4ebf79326e780c390304,,,,,,,,,,,,,,,,,,,,,1264.2353,1264.2354,1264.237,1265.6886,1,0,right,0.9212,,1265.6905,1265.6938,1,0,,1265.6951,1265.6985,1,1,,1,1265.6985,1265.6985,1265.6996,1267.1913,0,34,34,34,1,0.8,0.2,0.8,0.2,1,0,,,,,,,,,,,,,,,,,,,,,,,,,,,,,,,,,,,,
,,6122f17c5f84f0f57feca3e6,66fc989d536b0676f95af6e8,2024-10-01_21h52.24.822,mdp,2024.2.1,MacIntel,59.84082341,66fa4ebf79326e780c390304,,,,,,,,,,,,,,,,,,,,,1267.1921,1267.1921,1267.1941,1268.3608,1,0,right,0.656,,1268.3629,1268.3666,1,0,,1268.3676,1268.3709,1,0,,1,1268.371,1268.371,1268.372,1269.8637,0,35,35,35,1,0.8,0.2,0.8,0.2,1,0,,,,,,,,,,,,,,,,,,,,,,,,,,,,,,,,,,,,
,,6122f17c5f84f0f57feca3e6,66fc989d536b0676f95af6e8,2024-10-01_21h52.24.822,mdp,2024.2.1,MacIntel,59.84082341,66fa4ebf79326e780c390304,,,,,,,,,,,,,,,,,,,,,1269.8642,1269.8643,1269.8658,1274.912,0,0,left,4.5287,,1274.9138,1274.9175,1,0,,1274.9185,1274.9235,1,0,,1,1274.9235,1274.9235,1274.9245,1276.4171,0,36,36,36,1,0.8,0.2,0.8,0.2,1,0,,,,,,,,,,,,,,,,,,,,,,,,,,,,,,,,,,,,
,,6122f17c5f84f0f57feca3e6,66fc989d536b0676f95af6e8,2024-10-01_21h52.24.822,mdp,2024.2.1,MacIntel,59.84082341,66fa4ebf79326e780c390304,,,,,,,,,,,,,,,,,,,,,1276.4178,1276.4179,1276.4194,1277.8546,0,1,left,0.9046,,1277.8565,1277.8597,1,0,,1277.8607,1277.8641,1,0,,0,1277.8642,1277.8642,1277.8651,1279.3583,0,37,37,37,1,0.6,0.4,0.4,0.6,1,0,,,,,,,,,,,,,,,,,,,,,,,,,,,,,,,,,,,,
,,6122f17c5f84f0f57feca3e6,66fc989d536b0676f95af6e8,2024-10-01_21h52.24.822,mdp,2024.2.1,MacIntel,59.84082341,66fa4ebf79326e780c390304,,,,,,,,,,,,,,,,,,,,,1279.359,1279.359,1279.3606,1280.46,1,1,right,0.5938,,1280.462,1280.466,1,0,,1280.467,1280.4695,1,1,,0,1280.4696,1280.4696,1280.4703,1281.9625,0,38,38,38,1,0.6,0.4,0.4,0.6,1,0,,,,,,,,,,,,,,,,,,,,,,,,,,,,,,,,,,,,
