init_exp.started,init_exp.stopped,participant,session,date,expName,psychopyVersion,OS,frameRate,study_id,disp_instruction.started,disp_instruction.stopped,instruction.thisRepN,instruction.thisTrialN,instruction.thisN,instruction.thisIndex,instruction.ran,instimg_path,consent.started,consent.stopped,key_resp_3.keys,key_resp_3.rt,key_resp_3.duration,n_steps,sequence_path,init_block.started,init_block.stopped,key_resp.keys,key_resp.rt,key_resp.duration,init_trials.started,init_trials.stopped,step0.started,step0.stopped,act0,s1,res0.keys,res0.rt,res0.duration,step1.started,step1.stopped,act1,s2,res1.keys,step2.started,step2.stopped,act2,s3,res2.keys,rew,reward_comp.started,reward_comp.stopped,reward_disp.started,reward_disp.stopped,trials.thisRepN,trials.thisTrialN,trials.thisN,trials.thisIndex,trials.ran,s00a0s10,s00a0s11,s00a1s10,s00a1s11,rew10,rew11,break_block.started,break_block.stopped,block.thisRepN,block.thisTrialN,block.thisN,block.thisIndex,block.ran,s00path,s10path,s11path,s20path,s21path,res1.rt,res1.duration,s10a0s20,s10a0s21,s10a1s20,s10a1s21,s11a0s20,s11a0s21,s11a1s20,s11a1s21,rew20,rew21,res2.rt,res2.duration,s20a0s30,s20a0s31,s20a1s30,s20a1s31,s21a0s30,s21a0s31,s21a1s30,s21a1s31,rew30,rew31
0.0003,0.0023,61232b43bd4b37c8d76a7b37,66fc98e64be4c7bfa7ae9960,2024-10-02_02h51.46.753,mdp,2024.2.1,Win32,60.24096386,66fa4ebf79326e780c390304,,,,,,,,,,,,,,,,,,,,,,,,,,,,,,,,,,,,,,,,,,,,,,,,,,,,,,,,,,,,,,,,,,,,,,,,,,,,,,,,,,,,,,,,,,,
,,61232b43bd4b37c8d76a7b37,66fc98e64be4c7bfa7ae9960,2024-10-02_02h51.46.753,mdp,2024.2.1,Win32,60.24096386,66fa4ebf79326e780c390304,0.0067,23.4633,0,0,0,0,1,rlnn_exp/rlnn_exp.001.png,,,,,,,,,,,,,,,,,,,,,,,,,,,,,,,,,,,,,,,,,,,,,,,,,,,,,,,,,,,,,,,,,,,,,,,,,,,,,,,,,,,
,,61232b43bd4b37c8d76a7b37,66fc98e64be4c7bfa7ae9960,2024-10-02_02h51.46.753,mdp,2024.2.1,Win32,60.24096386,66fa4ebf79326e780c390304,23.464,43.4629,0,1,1,1,1,rlnn_exp/rlnn_exp.002.png,,,,,,,,,,,,,,,,,,,,,,,,,,,,,,,,,,,,,,,,,,,,,,,,,,,,,,,,,,,,,,,,,,,,,,,,,,,,,,,,,,,
,,61232b43bd4b37c8d76a7b37,66fc98e64be4c7bfa7ae9960,2024-10-02_02h51.46.753,mdp,2024.2.1,Win32,60.24096386,66fa4ebf79326e780c390304,43.4727,58.1777,0,2,2,2,1,rlnn_exp/rlnn_exp.003.png,,,,,,,,,,,,,,,,,,,,,,,,,,,,,,,,,,,,,,,,,,,,,,,,,,,,,,,,,,,,,,,,,,,,,,,,,,,,,,,,,,,
,,61232b43bd4b37c8d76a7b37,66fc98e64be4c7bfa7ae9960,2024-10-02_02h51.46.753,mdp,2024.2.1,Win32,60.24096386,66fa4ebf79326e780c390304,58.1883,140.1412,0,3,3,3,1,rlnn_exp/rlnn_exp.004.png,,,,,,,,,,,,,,,,,,,,,,,,,,,,,,,,,,,,,,,,,,,,,,,,,,,,,,,,,,,,,,,,,,,,,,,,,,,,,,,,,,,
,,61232b43bd4b37c8d76a7b37,66fc98e64be4c7bfa7ae9960,2024-10-02_02h51.46.753,mdp,2024.2.1,Win32,60.24096386,66fa4ebf79326e780c390304,,,,,,,,,140.151,179.657,y,29.4857,,,,,,,,,,,,,,,,,,,,,,,,,,,,,,,,,,,,,,,,,,,,,,,,,,,,,,,,,,,,,,,,,,,,,,,,,,,,,,,
,,61232b43bd4b37c8d76a7b37,66fc98e64be4c7bfa7ae9960,2024-10-02_02h51.46.753,mdp,2024.2.1,Win32,60.24096386,66fa4ebf79326e780c390304,,,,,,,,,,,,,,1,seqs/st1seq22.csv,179.6705,202.9225,space,22.7348,,202.9344,202.9346,202.9349,247.654,1,1,right,44.203,,247.6639,247.6653,,1,,247.6656,247.6665,,1,,0,247.6666,247.6667,247.6669,249.1701,0,0,0,0,1,0.4,0.6,0.6,0.4,1,0,,,,,,,,,,,,,,,,,,,,,,,,,,,,,,,,,,,,
,,61232b43bd4b37c8d76a7b37,66fc98e64be4c7bfa7ae9960,2024-10-02_02h51.46.753,mdp,2024.2.1,Win32,60.24096386,66fa4ebf79326e780c390304,,,,,,,,,,,,,,,,,,,,,249.1707,249.1707,249.1717,251.2369,0,1,left,1.5488,,251.2383,251.2391,,1,,251.2398,251.2404,,1,,0,251.2404,251.2405,251.241,252.7366,0,1,1,1,1,0.4,0.6,0.6,0.4,1,0,,,,,,,,,,,,,,,,,,,,,,,,,,,,,,,,,,,,
,,61232b43bd4b37c8d76a7b37,66fc98e64be4c7bfa7ae9960,2024-10-02_02h51.46.753,mdp,2024.2.1,Win32,60.24096386,66fa4ebf79326e780c390304,,,,,,,,,,,,,,,,,,,,,252.7369,252.7369,252.7384,253.6532,0,1,left,0.3944,,253.6552,253.6559,,1,,253.6567,253.6573,,1,,0,253.6574,253.6574,253.6579,255.1532,0,2,2,2,1,0.4,0.6,0.6,0.4,1,0,,,,,,,,,,,,,,,,,,,,,,,,,,,,,,,,,,,,
,,61232b43bd4b37c8d76a7b37,66fc98e64be4c7bfa7ae9960,2024-10-02_02h51.46.753,mdp,2024.2.1,Win32,60.24096386,66fa4ebf79326e780c390304,,,,,,,,,,,,,,,,,,,,,255.1537,255.1537,255.1549,256.3698,0,0,left,0.6928,,256.3713,256.3721,,0,,256.3728,256.3735,,0,,1,256.3735,256.3735,256.3741,257.8696,0,3,3,3,1,0.8,0.2,0.8,0.2,1,0,,,,,,,,,,,,,,,,,,,,,,,,,,,,,,,,,,,,
,,61232b43bd4b37c8d76a7b37,66fc98e64be4c7bfa7ae9960,2024-10-02_02h51.46.753,mdp,2024.2.1,Win32,60.24096386,66fa4ebf79326e780c390304,,,,,,,,,,,,,,,,,,,,,257.8699,257.87,257.871,258.9364,0,0,left,0.5441,,258.9374,258.9381,,0,,258.9389,258.9396,,1,,1,258.9396,258.9396,258.9405,260.4362,0,4,4,4,1,0.8,0.2,0.8,0.2,1,0,,,,,,,,,,,,,,,,,,,,,,,,,,,,,,,,,,,,
,,61232b43bd4b37c8d76a7b37,66fc98e64be4c7bfa7ae9960,2024-10-02_02h51.46.753,mdp,2024.2.1,Win32,60.24096386,66fa4ebf79326e780c390304,,,,,,,,,,,,,,,,,,,,,260.4368,260.4368,260.4383,261.3362,1,0,right,0.3583,,261.3374,261.3381,,0,,261.3388,261.3395,,0,,1,261.3395,261.3396,261.3401,262.8362,0,5,5,5,1,0.8,0.2,0.8,0.2,1,0,,,,,,,,,,,,,,,,,,,,,,,,,,,,,,,,,,,,
,,61232b43bd4b37c8d76a7b37,66fc98e64be4c7bfa7ae9960,2024-10-02_02h51.46.753,mdp,2024.2.1,Win32,60.24096386,66fa4ebf79326e780c390304,,,,,,,,,,,,,,,,,,,,,262.8369,262.8369,262.838,263.6362,0,1,left,0.2678,,263.6377,263.6385,,0,,263.6398,263.6404,,0,,0,263.6404,263.6404,263.641,265.136,0,6,6,6,1,0.8,0.2,0.8,0.2,1,0,,,,,,,,,,,,,,,,,,,,,,,,,,,,,,,,,,,,
,,61232b43bd4b37c8d76a7b37,66fc98e64be4c7bfa7ae9960,2024-10-02_02h51.46.753,mdp,2024.2.1,Win32,60.24096386,66fa4ebf79326e780c390304,,,,,,,,,,,,,,,,,,,,,265.1372,265.1373,265.1387,266.636,1,1,right,0.9652,,266.6371,266.6377,,1,,266.6386,266.6393,,0,,0,266.6393,266.6393,266.6398,268.1359,0,7,7,7,1,0.8,0.2,0.8,0.2,1,0,,,,,,,,,,,,,,,,,,,,,,,,,,,,,,,,,,,,
,,61232b43bd4b37c8d76a7b37,66fc98e64be4c7bfa7ae9960,2024-10-02_02h51.46.753,mdp,2024.2.1,Win32,60.24096386,66fa4ebf79326e780c390304,,,,,,,,,,,,,,,,,,,,,268.1363,268.1365,268.1376,268.7193,1,0,right,0.0534,,268.7204,268.721,,0,,268.7219,268.7225,,0,,1,268.7225,268.7226,268.7232,270.2192,0,8,8,8,1,0.8,0.2,0.8,0.2,1,0,,,,,,,,,,,,,,,,,,,,,,,,,,,,,,,,,,,,
,,61232b43bd4b37c8d76a7b37,66fc98e64be4c7bfa7ae9960,2024-10-02_02h51.46.753,mdp,2024.2.1,Win32,60.24096386,66fa4ebf79326e780c390304,,,,,,,,,,,,,,,,,,,,,270.2197,270.2197,270.2212,271.2032,1,0,right,0.4499,,271.2043,271.2049,,0,,271.2056,271.2062,,0,,1,271.2063,271.2063,271.2068,272.7024,0,9,9,9,1,0.8,0.2,0.8,0.2,1,0,,,,,,,,,,,,,,,,,,,,,,,,,,,,,,,,,,,,
,,61232b43bd4b37c8d76a7b37,66fc98e64be4c7bfa7ae9960,2024-10-02_02h51.46.753,mdp,2024.2.1,Win32,60.24096386,66fa4ebf79326e780c390304,,,,,,,,,,,,,,,,,,,,,272.7027,272.7027,272.704,273.4527,0,1,left,0.2305,,273.4541,273.4549,,1,,273.4558,273.4564,,0,,0,273.4565,273.4565,273.457,274.9522,0,10,10,10,1,0.8,0.2,0.8,0.2,1,0,,,,,,,,,,,,,,,,,,,,,,,,,,,,,,,,,,,,
,,61232b43bd4b37c8d76a7b37,66fc98e64be4c7bfa7ae9960,2024-10-02_02h51.46.753,mdp,2024.2.1,Win32,60.24096386,66fa4ebf79326e780c390304,,,,,,,,,,,,,,,,,,,,,274.9529,274.9529,274.9539,275.519,1,0,right,0.0448,,275.5201,275.5207,,0,,275.5217,275.5223,,0,,1,275.5223,275.5223,275.523,277.0189,0,11,11,11,1,0.8,0.2,0.8,0.2,1,0,,,,,,,,,,,,,,,,,,,,,,,,,,,,,,,,,,,,
,,61232b43bd4b37c8d76a7b37,66fc98e64be4c7bfa7ae9960,2024-10-02_02h51.46.753,mdp,2024.2.1,Win32,60.24096386,66fa4ebf79326e780c390304,,,,,,,,,,,,,,,,,,,,,277.0193,277.0194,277.0204,277.7857,1,0,right,0.2294,,277.7868,277.7873,,0,,277.7881,277.7887,,0,,1,277.7887,277.7887,277.7891,279.2855,0,12,12,12,1,0.2,0.8,0.6,0.4,1,0,,,,,,,,,,,,,,,,,,,,,,,,,,,,,,,,,,,,
,,61232b43bd4b37c8d76a7b37,66fc98e64be4c7bfa7ae9960,2024-10-02_02h51.46.753,mdp,2024.2.1,Win32,60.24096386,66fa4ebf79326e780c390304,,,,,,,,,,,,,,,,,,,,,279.286,279.286,279.2874,280.0687,1,0,right,0.2549,,280.0699,280.0705,,1,,280.0714,280.072,,0,,1,280.072,280.072,280.0725,281.5688,0,13,13,13,1,0.2,0.8,0.6,0.4,1,0,,,,,,,,,,,,,,,,,,,,,,,,,,,,,,,,,,,,
,,61232b43bd4b37c8d76a7b37,66fc98e64be4c7bfa7ae9960,2024-10-02_02h51.46.753,mdp,2024.2.1,Win32,60.24096386,66fa4ebf79326e780c390304,,,,,,,,,,,,,,,,,,,,,281.5694,281.5694,281.5706,282.1021,0,1,left,0.0126,,282.1036,282.1042,,1,,282.1049,282.1054,,1,,0,282.1054,282.1054,282.1059,283.6021,0,14,14,14,1,0.2,0.8,0.6,0.4,1,0,,,,,,,,,,,,,,,,,,,,,,,,,,,,,,,,,,,,
,,61232b43bd4b37c8d76a7b37,66fc98e64be4c7bfa7ae9960,2024-10-02_02h51.46.753,mdp,2024.2.1,Win32,60.24096386,66fa4ebf79326e780c390304,,,,,,,,,,,,,,,,,,,,,283.6023,283.6023,283.6034,284.5354,0,0,left,0.4126,,284.5363,284.537,,0,,284.5378,284.5383,,1,,1,284.5383,284.5383,284.5387,286.0353,0,15,15,15,1,0.2,0.8,0.6,0.4,1,0,,,,,,,,,,,,,,,,,,,,,,,,,,,,,,,,,,,,
,,61232b43bd4b37c8d76a7b37,66fc98e64be4c7bfa7ae9960,2024-10-02_02h51.46.753,mdp,2024.2.1,Win32,60.24096386,66fa4ebf79326e780c390304,,,,,,,,,,,,,,,,,,,,,286.0356,286.0356,286.0366,286.8376,0,1,left,0.2822,,286.8387,286.8392,,1,,286.8399,286.8404,,1,,0,286.8404,286.8404,286.8408,288.3352,0,16,16,16,1,0.2,0.8,0.6,0.4,1,0,,,,,,,,,,,,,,,,,,,,,,,,,,,,,,,,,,,,
,,61232b43bd4b37c8d76a7b37,66fc98e64be4c7bfa7ae9960,2024-10-02_02h51.46.753,mdp,2024.2.1,Win32,60.24096386,66fa4ebf79326e780c390304,,,,,,,,,,,,,,,,,,,,,288.3354,288.3354,288.3366,288.9184,1,0,right,0.0554,,288.9199,288.9212,,0,,288.9219,288.9225,,1,,1,288.9227,288.9227,288.9233,290.4183,0,17,17,17,1,0.6,0.4,0.8,0.2,1,0,,,,,,,,,,,,,,,,,,,,,,,,,,,,,,,,,,,,
,,61232b43bd4b37c8d76a7b37,66fc98e64be4c7bfa7ae9960,2024-10-02_02h51.46.753,mdp,2024.2.1,Win32,60.24096386,66fa4ebf79326e780c390304,,,,,,,,,,,,,,,,,,,,,290.4186,290.4186,290.4196,291.0682,1,0,right,0.1285,,291.0694,291.0704,,0,,291.0712,291.0716,,1,,1,291.0717,291.0717,291.0724,292.5683,0,18,18,18,1,0.6,0.4,0.8,0.2,1,0,,,,,,,,,,,,,,,,,,,,,,,,,,,,,,,,,,,,
,,61232b43bd4b37c8d76a7b37,66fc98e64be4c7bfa7ae9960,2024-10-02_02h51.46.753,mdp,2024.2.1,Win32,60.24096386,66fa4ebf79326e780c390304,,,,,,,,,,,,,,,,,,,,,292.5687,292.5687,292.57,293.4684,0,0,left,0.3801,,293.4695,293.4702,,0,,293.4709,293.4714,,0,,1,293.4714,293.4714,293.4719,294.9683,0,19,19,19,1,0.6,0.4,0.8,0.2,1,0,,,,,,,,,,,,,,,,,,,,,,,,,,,,,,,,,,,,
,,61232b43bd4b37c8d76a7b37,66fc98e64be4c7bfa7ae9960,2024-10-02_02h51.46.753,mdp,2024.2.1,Win32,60.24096386,66fa4ebf79326e780c390304,,,,,,,,,,,,,,,,,,,,,294.9687,294.9687,294.9696,295.6182,0,0,left,0.1219,,295.6192,295.6198,,1,,295.6205,295.6209,,0,,1,295.621,295.621,295.6215,297.118,0,20,20,20,1,0.6,0.4,0.8,0.2,1,0,,,,,,,,,,,,,,,,,,,,,,,,,,,,,,,,,,,,
,,61232b43bd4b37c8d76a7b37,66fc98e64be4c7bfa7ae9960,2024-10-02_02h51.46.753,mdp,2024.2.1,Win32,60.24096386,66fa4ebf79326e780c390304,,,,,,,,,,,,,,,,,,,,,297.1184,297.1184,297.1196,298.1182,1,0,right,0.4695,,298.1193,298.12,,0,,298.1206,298.1212,,0,,1,298.1212,298.1212,298.1218,299.618,0,21,21,21,1,0.6,0.4,0.8,0.2,1,0,,,,,,,,,,,,,,,,,,,,,,,,,,,,,,,,,,,,
,,61232b43bd4b37c8d76a7b37,66fc98e64be4c7bfa7ae9960,2024-10-02_02h51.46.753,mdp,2024.2.1,Win32,60.24096386,66fa4ebf79326e780c390304,,,,,,,,,,,,,,,,,,,,,299.6184,299.6184,299.6194,300.2514,0,0,left,0.1051,,300.2529,300.2536,,1,,300.2545,300.255,,1,,1,300.255,300.255,300.2555,301.7512,0,22,22,22,1,0.6,0.4,0.8,0.2,1,0,,,,,,,,,,,,,,,,,,,,,,,,,,,,,,,,,,,,
,,61232b43bd4b37c8d76a7b37,66fc98e64be4c7bfa7ae9960,2024-10-02_02h51.46.753,mdp,2024.2.1,Win32,60.24096386,66fa4ebf79326e780c390304,,,,,,,,,,,,,,,,,,,,,301.7518,301.7518,301.7528,302.2846,1,0,right,0.0004,,302.2858,302.2864,,0,,302.287,302.2875,,0,,1,302.2875,302.2876,302.288,303.7844,0,23,23,23,1,0.6,0.4,0.8,0.2,1,0,,,,,,,,,,,,,,,,,,,,,,,,,,,,,,,,,,,,
,,61232b43bd4b37c8d76a7b37,66fc98e64be4c7bfa7ae9960,2024-10-02_02h51.46.753,mdp,2024.2.1,Win32,60.24096386,66fa4ebf79326e780c390304,,,,,,,,,,,,,,,,,,,,,303.7849,303.7849,303.786,304.9345,1,1,right,0.6214,,304.9355,304.9366,,1,,304.9374,304.938,,0,,0,304.938,304.9381,304.9386,306.4344,0,24,24,24,1,0.8,0.2,0.2,0.8,1,0,,,,,,,,,,,,,,,,,,,,,,,,,,,,,,,,,,,,
,,61232b43bd4b37c8d76a7b37,66fc98e64be4c7bfa7ae9960,2024-10-02_02h51.46.753,mdp,2024.2.1,Win32,60.24096386,66fa4ebf79326e780c390304,,,,,,,,,,,,,,,,,,,,,306.4348,306.4348,306.436,307.4178,1,1,right,0.4586,,307.419,307.4195,,0,,307.4202,307.4207,,1,,0,307.4208,307.4208,307.4212,308.9175,0,25,25,25,1,0.8,0.2,0.2,0.8,1,0,,,,,,,,,,,,,,,,,,,,,,,,,,,,,,,,,,,,
,,61232b43bd4b37c8d76a7b37,66fc98e64be4c7bfa7ae9960,2024-10-02_02h51.46.753,mdp,2024.2.1,Win32,60.24096386,66fa4ebf79326e780c390304,,,,,,,,,,,,,,,,,,,,,308.9182,308.9182,308.9201,309.5342,1,1,right,0.0846,,309.5354,309.5359,,1,,309.5365,309.5372,,1,,0,309.5372,309.5372,309.5378,311.0343,0,26,26,26,1,0.8,0.2,0.2,0.8,1,0,,,,,,,,,,,,,,,,,,,,,,,,,,,,,,,,,,,,
,,61232b43bd4b37c8d76a7b37,66fc98e64be4c7bfa7ae9960,2024-10-02_02h51.46.753,mdp,2024.2.1,Win32,60.24096386,66fa4ebf79326e780c390304,,,,,,,,,,,,,,,,,,,,,311.0348,311.0348,311.0359,311.9009,0,0,left,0.3431,,311.902,311.9025,,0,,311.9032,311.9037,,0,,1,311.9038,311.9038,311.9042,313.4008,0,27,27,27,1,0.8,0.2,0.2,0.8,1,0,,,,,,,,,,,,,,,,,,,,,,,,,,,,,,,,,,,,
,,61232b43bd4b37c8d76a7b37,66fc98e64be4c7bfa7ae9960,2024-10-02_02h51.46.753,mdp,2024.2.1,Win32,60.24096386,66fa4ebf79326e780c390304,,,,,,,,,,,,,,,,,,,,,313.4011,313.4011,313.4021,313.9341,1,1,right,0.0056,,313.9354,313.936,,1,,313.9367,313.9371,,1,,0,313.9372,313.9372,313.9377,315.434,0,28,28,28,1,0.8,0.2,0.2,0.8,1,0,,,,,,,,,,,,,,,,,,,,,,,,,,,,,,,,,,,,
,,61232b43bd4b37c8d76a7b37,66fc98e64be4c7bfa7ae9960,2024-10-02_02h51.46.753,mdp,2024.2.1,Win32,60.24096386,66fa4ebf79326e780c390304,,,,,,,,,,,,,,,,,,,,,315.4343,315.4343,315.4355,316.3007,1,1,right,0.339,,316.3018,316.3028,,1,,316.3038,316.3044,,1,,0,316.3044,316.3044,316.305,317.8007,0,29,29,29,1,0.8,0.2,0.2,0.8,1,0,,,,,,,,,,,,,,,,,,,,,,,,,,,,,,,,,,,,
,,61232b43bd4b37c8d76a7b37,66fc98e64be4c7bfa7ae9960,2024-10-02_02h51.46.753,mdp,2024.2.1,Win32,60.24096386,66fa4ebf79326e780c390304,,,,,,,,,,,,,,,,,,,,,317.8011,317.8011,317.8022,318.6506,0,0,left,0.3173,,318.6523,318.6529,,0,,318.6539,318.6545,,0,,1,318.6545,318.6545,318.6553,320.1505,0,30,30,30,1,0.8,0.2,0.2,0.8,1,0,,,,,,,,,,,,,,,,,,,,,,,,,,,,,,,,,,,,
,,61232b43bd4b37c8d76a7b37,66fc98e64be4c7bfa7ae9960,2024-10-02_02h51.46.753,mdp,2024.2.1,Win32,60.24096386,66fa4ebf79326e780c390304,,,,,,,,,,,,,,,,,,,,,320.1508,320.1508,320.1518,321.1838,0,1,left,0.5106,,321.185,321.1855,,0,,321.1863,321.1868,,0,,0,321.1868,321.1868,321.1874,322.684,0,31,31,31,1,0.8,0.2,0.2,0.8,1,0,,,,,,,,,,,,,,,,,,,,,,,,,,,,,,,,,,,,
,,61232b43bd4b37c8d76a7b37,66fc98e64be4c7bfa7ae9960,2024-10-02_02h51.46.753,mdp,2024.2.1,Win32,60.24096386,66fa4ebf79326e780c390304,,,,,,,,,,,,,,,,,,,,,322.6845,322.6845,322.6857,323.6337,1,0,right,0.4148,,323.6351,323.6361,,1,,323.6368,323.6375,,0,,1,323.6375,323.6375,323.638,325.1338,0,32,32,32,1,0.8,0.2,0.2,0.8,1,0,,,,,,,,,,,,,,,,,,,,,,,,,,,,,,,,,,,,
,,61232b43bd4b37c8d76a7b37,66fc98e64be4c7bfa7ae9960,2024-10-02_02h51.46.753,mdp,2024.2.1,Win32,60.24096386,66fa4ebf79326e780c390304,,,,,,,,,,,,,,,,,,,,,325.134,325.134,325.1359,326.0003,1,1,right,0.3446,,326.0015,326.0021,,1,,326.0028,326.0034,,1,,0,326.0034,326.0034,326.0039,327.5002,0,33,33,33,1,0.8,0.2,0.2,0.8,1,0,,,,,,,,,,,,,,,,,,,,,,,,,,,,,,,,,,,,
,,61232b43bd4b37c8d76a7b37,66fc98e64be4c7bfa7ae9960,2024-10-02_02h51.46.753,mdp,2024.2.1,Win32,60.24096386,66fa4ebf79326e780c390304,,,,,,,,,,,,,,,,,,,,,327.5005,327.5005,327.5016,329.0004,0,0,left,0.9689,,329.002,329.0026,,0,,329.0034,329.0039,,1,,1,329.0039,329.0039,329.0044,330.5001,0,34,34,34,1,0.8,0.2,0.2,0.8,1,0,,,,,,,,,,,,,,,,,,,,,,,,,,,,,,,,,,,,
,,61232b43bd4b37c8d76a7b37,66fc98e64be4c7bfa7ae9960,2024-10-02_02h51.46.753,mdp,2024.2.1,Win32,60.24096386,66fa4ebf79326e780c390304,,,,,,,,,,,,,,,,,,,,,330.5004,330.5004,330.5014,357.5825,0,0,left,26.5744,,357.5934,357.594,,0,,357.5945,357.5948,,0,,1,357.5948,357.5948,357.5951,359.0989,0,35,35,35,1,0.8,0.2,0.2,0.8,1,0,,,,,,,,,,,,,,,,,,,,,,,,,,,,,,,,,,,,
,,61232b43bd4b37c8d76a7b37,66fc98e64be4c7bfa7ae9960,2024-10-02_02h51.46.753,mdp,2024.2.1,Win32,60.24096386,66fa4ebf79326e780c390304,,,,,,,,,,,,,,,,,,,,,359.0992,359.0992,359.1002,360.0157,0,0,left,0.3839,,360.0168,360.0177,,1,,360.0183,360.0188,,0,,1,360.0189,360.0189,360.0194,361.5156,0,36,36,36,1,0.4,0.6,0.6,0.4,1,0,,,,,,,,,,,,,,,,,,,,,,,,,,,,,,,,,,,,
,,61232b43bd4b37c8d76a7b37,66fc98e64be4c7bfa7ae9960,2024-10-02_02h51.46.753,mdp,2024.2.1,Win32,60.24096386,66fa4ebf79326e780c390304,,,,,,,,,,,,,,,,,,,,,361.5161,361.5161,361.5172,362.399,0,1,left,0.3606,,362.4006,362.4015,,0,,362.4022,362.4028,,1,,0,362.4028,362.4029,362.4033,363.8989,0,37,37,37,1,0.4,0.6,0.6,0.4,1,0,,,,,,,,,,,,,,,,,,,,,,,,,,,,,,,,,,,,
,,61232b43bd4b37c8d76a7b37,66fc98e64be4c7bfa7ae9960,2024-10-02_02h51.46.753,mdp,2024.2.1,Win32,60.24096386,66fa4ebf79326e780c390304,,,,,,,,,,,,,,,,,,,,,363.8991,363.8991,363.9002,364.5325,1,1,right,0.0945,,364.5341,364.5348,,1,,364.5355,364.536,,0,,0,364.5361,364.5361,364.5365,366.0321,0,38,38,38,1,0.4,0.6,0.6,0.4,1,0,,,,,,,,,,,,,,,,,,,,,,,,,,,,,,,,,,,,
,,61232b43bd4b37c8d76a7b37,66fc98e64be4c7bfa7ae9960,2024-10-02_02h51.46.753,mdp,2024.2.1,Win32,60.24096386,66fa4ebf79326e780c390304,,,,,,,,,,,,,,,,,,,,,366.033,366.033,366.0342,366.5655,0,0,left,0.0054,,366.5666,366.5673,,0,,366.5685,366.5691,,0,,1,366.5691,366.5691,366.5697,368.0654,0,39,39,39,1,0.8,0.2,0.2,0.8,1,0,,,,,,,,,,,,,,,,,,,,,,,,,,,,,,,,,,,,
,,61232b43bd4b37c8d76a7b37,66fc98e64be4c7bfa7ae9960,2024-10-02_02h51.46.753,mdp,2024.2.1,Win32,60.24096386,66fa4ebf79326e780c390304,,,,,,,,,,,,,,,,,,,,,368.0657,368.0657,368.0676,368.9988,1,1,right,0.4105,,368.9999,369.0005,,1,,369.0012,369.0018,,0,,0,369.0019,369.0019,369.0028,370.4984,0,40,40,40,1,0.8,0.2,0.2,0.8,1,0,,,,,,,,,,,,,,,,,,,,,,,,,,,,,,,,,,,,
,,61232b43bd4b37c8d76a7b37,66fc98e64be4c7bfa7ae9960,2024-10-02_02h51.46.753,mdp,2024.2.1,Win32,60.24096386,66fa4ebf79326e780c390304,,,,,,,,,,,,,,,,,,,,,370.4987,370.4987,370.4997,371.2652,0,0,left,0.2323,,371.2662,371.2671,,1,,371.268,371.2685,,0,,1,371.2686,371.2686,371.269,372.765,0,41,41,41,1,0.8,0.2,0.2,0.8,1,0,,,,,,,,,,,,,,,,,,,,,,,,,,,,,,,,,,,,
,,61232b43bd4b37c8d76a7b37,66fc98e64be4c7bfa7ae9960,2024-10-02_02h51.46.753,mdp,2024.2.1,Win32,60.24096386,66fa4ebf79326e780c390304,,,,,,,,,,,,,,,,,,,,,372.7653,372.7654,372.7665,373.4484,0,0,left,0.1471,,373.4493,373.4499,,1,,373.4507,373.4512,,1,,1,373.4512,373.4512,373.4517,374.9484,0,42,42,42,1,0.8,0.2,0.2,0.8,1,0,,,,,,,,,,,,,,,,,,,,,,,,,,,,,,,,,,,,
,,61232b43bd4b37c8d76a7b37,66fc98e64be4c7bfa7ae9960,2024-10-02_02h51.46.753,mdp,2024.2.1,Win32,60.24096386,66fa4ebf79326e780c390304,,,,,,,,,,,,,,,,,,,,,374.9487,374.9487,374.9499,375.7816,0,1,left,0.3138,,375.7827,375.7832,,1,,375.7839,375.7845,,1,,0,375.7845,375.7845,375.785,377.2815,0,43,43,43,1,0.2,0.8,0.8,0.2,1,0,,,,,,,,,,,,,,,,,,,,,,,,,,,,,,,,,,,,
,,61232b43bd4b37c8d76a7b37,66fc98e64be4c7bfa7ae9960,2024-10-02_02h51.46.753,mdp,2024.2.1,Win32,60.24096386,66fa4ebf79326e780c390304,,,,,,,,,,,,,,,,,,,,,377.2818,377.2818,377.283,377.8483,0,1,left,0.0445,,377.8491,377.8496,,1,,377.8503,377.8509,,0,,0,377.8509,377.8509,377.8513,379.3481,0,44,44,44,1,0.2,0.8,0.8,0.2,1,0,,,,,,,,,,,,,,,,,,,,,,,,,,,,,,,,,,,,
,,61232b43bd4b37c8d76a7b37,66fc98e64be4c7bfa7ae9960,2024-10-02_02h51.46.753,mdp,2024.2.1,Win32,60.24096386,66fa4ebf79326e780c390304,,,,,,,,,,,,,,,,,,,,,379.3485,379.3485,379.3499,380.0315,1,1,right,0.1536,,380.0325,380.0331,,0,,380.034,380.0346,,0,,0,380.0346,380.0347,380.0354,381.5313,0,45,45,45,1,0.2,0.8,0.8,0.2,1,0,,,,,,,,,,,,,,,,,,,,,,,,,,,,,,,,,,,,
,,61232b43bd4b37c8d76a7b37,66fc98e64be4c7bfa7ae9960,2024-10-02_02h51.46.753,mdp,2024.2.1,Win32,60.24096386,66fa4ebf79326e780c390304,,,,,,,,,,,,,,,,,,,,,381.5317,381.5317,381.5328,382.1648,1,0,right,0.1131,,382.1658,382.1664,,0,,382.167,382.1674,,0,,1,382.1675,382.1675,382.168,383.6646,0,46,46,46,1,0.2,0.8,0.8,0.2,1,0,,,,,,,,,,,,,,,,,,,,,,,,,,,,,,,,,,,,
,,61232b43bd4b37c8d76a7b37,66fc98e64be4c7bfa7ae9960,2024-10-02_02h51.46.753,mdp,2024.2.1,Win32,60.24096386,66fa4ebf79326e780c390304,,,,,,,,,,,,,,,,,,,,,383.6649,383.6649,383.6662,384.3645,0,1,left,0.1766,,384.3657,384.3665,,0,,384.3673,384.3678,,1,,0,384.3678,384.3678,384.3682,385.8646,0,47,47,47,1,0.2,0.8,0.8,0.2,1,0,,,,,,,,,,,,,,,,,,,,,,,,,,,,,,,,,,,,
,,61232b43bd4b37c8d76a7b37,66fc98e64be4c7bfa7ae9960,2024-10-02_02h51.46.753,mdp,2024.2.1,Win32,60.24096386,66fa4ebf79326e780c390304,,,,,,,,,,,,,,,,,,,,,385.8649,385.8649,385.8659,386.4146,1,0,right,0.0284,,386.4157,386.4165,,0,,386.4173,386.4177,,0,,1,386.4178,386.4178,386.4183,387.9144,0,48,48,48,1,0.2,0.8,0.8,0.2,1,0,,,,,,,,,,,,,,,,,,,,,,,,,,,,,,,,,,,,
,,61232b43bd4b37c8d76a7b37,66fc98e64be4c7bfa7ae9960,2024-10-02_02h51.46.753,mdp,2024.2.1,Win32,60.24096386,66fa4ebf79326e780c390304,,,,,,,,,,,,,,,,,,,,,387.9148,387.9148,387.9158,388.9478,1,1,right,0.5065,,388.9487,388.9494,,1,,388.95,388.9506,,0,,0,388.9506,388.9506,388.9511,390.4477,0,49,49,49,1,0.2,0.8,0.8,0.2,1,0,,,,,,,,,,,,,,,,,,,,,,,,,,,,,,,,,,,,
,,61232b43bd4b37c8d76a7b37,66fc98e64be4c7bfa7ae9960,2024-10-02_02h51.46.753,mdp,2024.2.1,Win32,60.24096386,66fa4ebf79326e780c390304,,,,,,,,,,,,,,,,,,,,,,,,,,,,,,,,,,,,,,,,,,,,,,,,,,,,,,,,390.4483,448.9626,0,0,0,8,1,imgs/cat.png,imgs/lion.png,imgs/goat.png,imgs/rabbit.png,imgs/horse.png,,,,,,,,,,,,,,,,,,,,,,,,
,,61232b43bd4b37c8d76a7b37,66fc98e64be4c7bfa7ae9960,2024-10-02_02h51.46.753,mdp,2024.2.1,Win32,60.24096386,66fa4ebf79326e780c390304,,,,,,,,,,,,,,2,seqs/st2seq0.csv,448.973,451.2287,space,1.7397,,451.2331,451.2332,451.234,454.9286,0,1,left,3.1609,,454.9296,458.9616,1,1,right,458.9711,458.9718,,0,,0,458.9719,458.9719,458.9724,460.4615,0,0,0,0,1,0.2,0.8,0.6,0.4,,,,,,,,,,,,,,,3.5021,,0.2,0.8,0.6,0.4,0.2,0.8,0.2,0.8,1,0,,,,,,,,,,,,
,,61232b43bd4b37c8d76a7b37,66fc98e64be4c7bfa7ae9960,2024-10-02_02h51.46.753,mdp,2024.2.1,Win32,60.24096386,66fa4ebf79326e780c390304,,,,,,,,,,,,,,,,,,,,,460.4619,460.4619,460.4631,461.5783,0,0,left,0.5826,,461.5793,463.4116,1,0,right,463.4128,463.4134,,1,,1,463.4135,463.4136,463.4143,464.9114,0,1,1,1,1,0.2,0.8,0.6,0.4,,,,,,,,,,,,,,,1.295,,0.2,0.8,0.6,0.4,0.2,0.8,0.2,0.8,1,0,,,,,,,,,,,,
,,61232b43bd4b37c8d76a7b37,66fc98e64be4c7bfa7ae9960,2024-10-02_02h51.46.753,mdp,2024.2.1,Win32,60.24096386,66fa4ebf79326e780c390304,,,,,,,,,,,,,,,,,,,,,464.9116,464.9116,464.9127,466.0115,0,0,left,0.5672,,466.0125,467.428,0,1,left,467.429,467.4302,,1,,0,467.4302,467.4303,467.431,468.9279,0,2,2,2,1,0.2,0.8,0.6,0.4,,,,,,,,,,,,,,,0.8885,,0.2,0.8,0.6,0.4,0.2,0.8,0.2,0.8,1,0,,,,,,,,,,,,
,,61232b43bd4b37c8d76a7b37,66fc98e64be4c7bfa7ae9960,2024-10-02_02h51.46.753,mdp,2024.2.1,Win32,60.24096386,66fa4ebf79326e780c390304,,,,,,,,,,,,,,,,,,,,,468.9282,468.9282,468.9292,469.9946,0,1,left,0.5402,,469.9955,471.3278,1,1,right,471.3288,471.3294,,1,,0,471.3295,471.3295,471.33,472.8278,0,3,3,3,1,0.2,0.8,0.6,0.4,,,,,,,,,,,,,,,0.801,,0.2,0.8,0.6,0.4,0.2,0.8,0.2,0.8,1,0,,,,,,,,,,,,
,,61232b43bd4b37c8d76a7b37,66fc98e64be4c7bfa7ae9960,2024-10-02_02h51.46.753,mdp,2024.2.1,Win32,60.24096386,66fa4ebf79326e780c390304,,,,,,,,,,,,,,,,,,,,,472.8281,472.8281,472.829,473.4277,0,0,left,0.0751,,473.429,474.3444,0,1,left,474.3455,474.346,,1,,0,474.346,474.346,474.3468,475.8443,0,4,4,4,1,0.2,0.8,0.6,0.4,,,,,,,,,,,,,,,0.3723,,0.2,0.8,0.6,0.4,0.2,0.8,0.2,0.8,1,0,,,,,,,,,,,,
,,61232b43bd4b37c8d76a7b37,66fc98e64be4c7bfa7ae9960,2024-10-02_02h51.46.753,mdp,2024.2.1,Win32,60.24096386,66fa4ebf79326e780c390304,,,,,,,,,,,,,,,,,,,,,475.8446,475.8446,475.8457,476.9443,0,1,left,0.5682,,476.9455,477.861,1,1,right,477.8619,477.863,,1,,0,477.863,477.863,477.8637,479.3608,0,5,5,5,1,0.2,0.8,0.6,0.4,,,,,,,,,,,,,,,0.3795,,0.2,0.8,0.6,0.4,0.2,0.8,0.2,0.8,1,0,,,,,,,,,,,,
,,61232b43bd4b37c8d76a7b37,66fc98e64be4c7bfa7ae9960,2024-10-02_02h51.46.753,mdp,2024.2.1,Win32,60.24096386,66fa4ebf79326e780c390304,,,,,,,,,,,,,,,,,,,,,479.3611,479.3611,479.362,479.9608,0,1,left,0.0753,,479.9618,480.8114,0,1,left,480.8125,480.813,,1,,0,480.813,480.813,480.8136,482.3108,0,6,6,6,1,0.2,0.8,0.6,0.4,,,,,,,,,,,,,,,0.3229,,0.2,0.8,0.6,0.4,0.2,0.8,0.2,0.8,1,0,,,,,,,,,,,,
,,61232b43bd4b37c8d76a7b37,66fc98e64be4c7bfa7ae9960,2024-10-02_02h51.46.753,mdp,2024.2.1,Win32,60.24096386,66fa4ebf79326e780c390304,,,,,,,,,,,,,,,,,,,,,482.3113,482.3113,482.3126,483.1776,0,1,left,0.3234,,483.1786,484.0109,0,1,left,484.0118,484.0124,,1,,0,484.0124,484.0124,484.0132,485.5107,0,7,7,7,1,0.2,0.8,0.6,0.4,,,,,,,,,,,,,,,0.2959,,0.2,0.8,0.6,0.4,0.2,0.8,0.2,0.8,1,0,,,,,,,,,,,,
,,61232b43bd4b37c8d76a7b37,66fc98e64be4c7bfa7ae9960,2024-10-02_02h51.46.753,mdp,2024.2.1,Win32,60.24096386,66fa4ebf79326e780c390304,,,,,,,,,,,,,,,,,,,,,485.5112,485.5113,485.512,486.0608,0,1,left,0.0293,,486.0618,486.8112,1,1,right,486.8122,486.8127,,1,,0,486.8128,486.8128,486.8137,488.3106,0,8,8,8,1,0.2,0.8,0.6,0.4,,,,,,,,,,,,,,,0.2234,,0.2,0.8,0.6,0.4,0.2,0.8,0.2,0.8,1,0,,,,,,,,,,,,
,,61232b43bd4b37c8d76a7b37,66fc98e64be4c7bfa7ae9960,2024-10-02_02h51.46.753,mdp,2024.2.1,Win32,60.24096386,66fa4ebf79326e780c390304,,,,,,,,,,,,,,,,,,,,,488.311,488.311,488.3119,489.0272,0,1,left,0.1895,,489.0282,489.8606,0,0,left,489.8616,489.8627,,1,,1,489.8629,489.8629,489.8637,491.3605,0,9,9,9,1,0.2,0.8,0.6,0.4,,,,,,,,,,,,,,,0.3049,,0.2,0.8,0.6,0.4,0.2,0.8,0.2,0.8,1,0,,,,,,,,,,,,
,,61232b43bd4b37c8d76a7b37,66fc98e64be4c7bfa7ae9960,2024-10-02_02h51.46.753,mdp,2024.2.1,Win32,60.24096386,66fa4ebf79326e780c390304,,,,,,,,,,,,,,,,,,,,,491.3609,491.3609,491.3618,492.4135,0,1,left,0.517,,492.4143,493.2271,1,0,right,493.2281,493.2287,,0,,1,493.2288,493.2288,493.2295,494.7275,0,10,10,10,1,0.2,0.8,0.6,0.4,,,,,,,,,,,,,,,0.2838,,0.2,0.8,0.6,0.4,0.2,0.8,0.2,0.8,1,0,,,,,,,,,,,,
,,61232b43bd4b37c8d76a7b37,66fc98e64be4c7bfa7ae9960,2024-10-02_02h51.46.753,mdp,2024.2.1,Win32,60.24096386,66fa4ebf79326e780c390304,,,,,,,,,,,,,,,,,,,,,494.7278,494.7278,494.7288,495.5436,1,0,right,0.2929,,495.5445,496.4769,0,1,left,496.4781,496.4788,,1,,0,496.4788,496.4788,496.4795,497.9769,0,11,11,11,1,0.2,0.8,0.6,0.4,,,,,,,,,,,,,,,0.4045,,0.2,0.8,0.6,0.4,0.2,0.8,0.2,0.8,1,0,,,,,,,,,,,,
,,61232b43bd4b37c8d76a7b37,66fc98e64be4c7bfa7ae9960,2024-10-02_02h51.46.753,mdp,2024.2.1,Win32,60.24096386,66fa4ebf79326e780c390304,,,,,,,,,,,,,,,,,,,,,497.9773,497.9773,497.9782,498.877,1,0,right,0.3691,,498.8778,499.8298,0,1,left,499.8306,499.8311,,1,,0,499.8312,499.8312,499.8318,501.3267,0,12,12,12,1,0.2,0.8,0.6,0.4,,,,,,,,,,,,,,,0.4358,,0.2,0.8,0.6,0.4,0.2,0.8,0.2,0.8,1,0,,,,,,,,,,,,
,,61232b43bd4b37c8d76a7b37,66fc98e64be4c7bfa7ae9960,2024-10-02_02h51.46.753,mdp,2024.2.1,Win32,60.24096386,66fa4ebf79326e780c390304,,,,,,,,,,,,,,,,,,,,,501.3272,501.3272,501.328,502.1769,1,1,right,0.3244,,502.1779,502.9768,0,1,left,502.9781,502.9787,,1,,0,502.9788,502.9788,502.9798,504.4765,0,13,13,13,1,0.2,0.8,0.6,0.4,,,,,,,,,,,,,,,0.2565,,0.2,0.8,0.6,0.4,0.2,0.8,0.2,0.8,1,0,,,,,,,,,,,,
,,61232b43bd4b37c8d76a7b37,66fc98e64be4c7bfa7ae9960,2024-10-02_02h51.46.753,mdp,2024.2.1,Win32,60.24096386,66fa4ebf79326e780c390304,,,,,,,,,,,,,,,,,,,,,504.477,504.4771,504.4779,505.6265,1,0,right,0.6235,,505.6276,506.3266,1,0,right,506.3276,506.3285,,0,,1,506.3285,506.3285,506.3296,507.8263,0,14,14,14,1,0.2,0.8,0.6,0.4,,,,,,,,,,,,,,,0.1695,,0.2,0.8,0.6,0.4,0.2,0.8,0.2,0.8,1,0,,,,,,,,,,,,
,,61232b43bd4b37c8d76a7b37,66fc98e64be4c7bfa7ae9960,2024-10-02_02h51.46.753,mdp,2024.2.1,Win32,60.24096386,66fa4ebf79326e780c390304,,,,,,,,,,,,,,,,,,,,,507.8269,507.8269,507.8279,508.4431,1,0,right,0.0863,,508.444,508.9932,0,1,left,508.9947,508.9955,,0,,0,508.9956,508.9956,508.9964,510.493,0,15,15,15,1,0.2,0.8,0.6,0.4,,,,,,,,,,,,,,,0.0137,,0.2,0.8,0.6,0.4,0.2,0.8,0.2,0.8,1,0,,,,,,,,,,,,
,,61232b43bd4b37c8d76a7b37,66fc98e64be4c7bfa7ae9960,2024-10-02_02h51.46.753,mdp,2024.2.1,Win32,60.24096386,66fa4ebf79326e780c390304,,,,,,,,,,,,,,,,,,,,,510.4935,510.4935,510.4942,511.0265,1,1,right,0.0006,,511.0276,511.7264,1,1,right,511.7274,511.7281,,1,,0,511.7281,511.7281,511.7288,513.2263,0,16,16,16,1,0.2,0.8,0.6,0.4,,,,,,,,,,,,,,,0.1659,,0.2,0.8,0.6,0.4,0.2,0.8,0.2,0.8,1,0,,,,,,,,,,,,
,,61232b43bd4b37c8d76a7b37,66fc98e64be4c7bfa7ae9960,2024-10-02_02h51.46.753,mdp,2024.2.1,Win32,60.24096386,66fa4ebf79326e780c390304,,,,,,,,,,,,,,,,,,,,,513.2268,513.2268,513.2277,514.143,0,1,left,0.3915,,514.1438,514.6762,1,0,right,514.677,514.6778,,1,,1,514.6778,514.6778,514.6789,516.1771,0,17,17,17,1,0.2,0.8,0.6,0.4,,,,,,,,,,,,,,,0.0135,,0.2,0.8,0.6,0.4,0.2,0.8,0.2,0.8,1,0,,,,,,,,,,,,
,,61232b43bd4b37c8d76a7b37,66fc98e64be4c7bfa7ae9960,2024-10-02_02h51.46.753,mdp,2024.2.1,Win32,60.24096386,66fa4ebf79326e780c390304,,,,,,,,,,,,,,,,,,,,,516.1773,516.1773,516.1779,517.0761,0,1,left,0.3694,,517.0772,518.0428,1,1,right,518.0438,518.0443,,1,,0,518.0443,518.0443,518.045,519.5427,0,18,18,18,1,0.2,0.8,0.6,0.4,,,,,,,,,,,,,,,0.4338,,0.2,0.8,0.6,0.4,0.2,0.8,0.2,0.8,1,0,,,,,,,,,,,,
,,61232b43bd4b37c8d76a7b37,66fc98e64be4c7bfa7ae9960,2024-10-02_02h51.46.753,mdp,2024.2.1,Win32,60.24096386,66fa4ebf79326e780c390304,,,,,,,,,,,,,,,,,,,,,519.5432,519.5433,519.5439,520.5093,1,1,right,0.4263,,520.5102,521.0928,0,1,left,521.0938,521.0943,,1,,0,521.0944,521.0945,521.0954,522.593,0,19,19,19,1,0.2,0.8,0.6,0.4,,,,,,,,,,,,,,,0.0629,,0.2,0.8,0.6,0.4,0.2,0.8,0.2,0.8,1,0,,,,,,,,,,,,
,,61232b43bd4b37c8d76a7b37,66fc98e64be4c7bfa7ae9960,2024-10-02_02h51.46.753,mdp,2024.2.1,Win32,60.24096386,66fa4ebf79326e780c390304,,,,,,,,,,,,,,,,,,,,,522.5935,522.5935,522.5946,523.4055,0,0,left,0.2914,,523.4066,524.2758,1,0,right,524.2768,524.2773,,0,,1,524.2773,524.2773,524.2781,525.7758,0,20,20,20,1,0.2,0.8,0.6,0.4,,,,,,,,,,,,,,,0.3514,,0.2,0.8,0.6,0.4,0.2,0.8,0.2,0.8,1,0,,,,,,,,,,,,
,,61232b43bd4b37c8d76a7b37,66fc98e64be4c7bfa7ae9960,2024-10-02_02h51.46.753,mdp,2024.2.1,Win32,60.24096386,66fa4ebf79326e780c390304,,,,,,,,,,,,,,,,,,,,,525.7763,525.7763,525.777,526.6758,0,1,left,0.38,,526.677,527.5591,0,1,left,527.5609,527.5616,,1,,0,527.5616,527.5616,527.5624,529.0589,0,21,21,21,1,0.2,0.8,0.6,0.4,,,,,,,,,,,,,,,0.344,,0.2,0.8,0.6,0.4,0.2,0.8,0.2,0.8,1,0,,,,,,,,,,,,
,,61232b43bd4b37c8d76a7b37,66fc98e64be4c7bfa7ae9960,2024-10-02_02h51.46.753,mdp,2024.2.1,Win32,60.24096386,66fa4ebf79326e780c390304,,,,,,,,,,,,,,,,,,,,,529.0594,529.0594,529.0603,529.9422,1,1,right,0.3534,,529.9433,530.7595,1,1,right,530.7603,530.7609,,1,,0,530.761,530.761,530.7618,532.2588,0,22,22,22,1,0.6,0.4,0.8,0.2,,,,,,,,,,,,,,,0.293,,0.2,0.8,0.6,0.4,0.2,0.8,0.2,0.8,1,0,,,,,,,,,,,,
,,61232b43bd4b37c8d76a7b37,66fc98e64be4c7bfa7ae9960,2024-10-02_02h51.46.753,mdp,2024.2.1,Win32,60.24096386,66fa4ebf79326e780c390304,,,,,,,,,,,,,,,,,,,,,532.2593,532.2593,532.2602,533.1255,0,0,left,0.3448,,533.1263,533.8922,1,0,right,533.8932,533.8938,,0,,1,533.8939,533.8939,533.8945,535.3875,0,23,23,23,1,0.6,0.4,0.8,0.2,,,,,,,,,,,,,,,0.242,,0.2,0.8,0.6,0.4,0.2,0.8,0.2,0.8,1,0,,,,,,,,,,,,
,,61232b43bd4b37c8d76a7b37,66fc98e64be4c7bfa7ae9960,2024-10-02_02h51.46.753,mdp,2024.2.1,Win32,60.24096386,66fa4ebf79326e780c390304,,,,,,,,,,,,,,,,,,,,,535.3878,535.3878,535.3886,536.1763,0,0,left,0.2689,,536.1772,537.5419,0,1,left,537.5431,537.5437,,1,,0,537.5438,537.5438,537.5444,539.0421,0,24,24,24,1,0.6,0.4,0.8,0.2,,,,,,,,,,,,,,,0.8447,,0.2,0.8,0.6,0.4,0.4,0.6,0.6,0.4,1,0,,,,,,,,,,,,
,,61232b43bd4b37c8d76a7b37,66fc98e64be4c7bfa7ae9960,2024-10-02_02h51.46.753,mdp,2024.2.1,Win32,60.24096386,66fa4ebf79326e780c390304,,,,,,,,,,,,,,,,,,,,,539.0427,539.0427,539.0434,539.8586,0,0,left,0.2841,,539.8596,540.6752,1,0,right,540.676,540.677,,0,,1,540.677,540.6771,540.6778,542.1751,0,25,25,25,1,0.6,0.4,0.8,0.2,,,,,,,,,,,,,,,0.2896,,0.2,0.8,0.6,0.4,0.4,0.6,0.6,0.4,1,0,,,,,,,,,,,,
,,61232b43bd4b37c8d76a7b37,66fc98e64be4c7bfa7ae9960,2024-10-02_02h51.46.753,mdp,2024.2.1,Win32,60.24096386,66fa4ebf79326e780c390304,,,,,,,,,,,,,,,,,,,,,542.1757,542.1757,542.1763,542.9751,1,1,right,0.2744,,542.9761,543.8084,0,1,left,543.8095,543.8099,,1,,0,543.81,543.81,543.8107,545.3082,0,26,26,26,1,0.6,0.4,0.8,0.2,,,,,,,,,,,,,,,0.2974,,0.2,0.8,0.6,0.4,0.2,0.8,0.4,0.6,1,0,,,,,,,,,,,,
,,61232b43bd4b37c8d76a7b37,66fc98e64be4c7bfa7ae9960,2024-10-02_02h51.46.753,mdp,2024.2.1,Win32,60.24096386,66fa4ebf79326e780c390304,,,,,,,,,,,,,,,,,,,,,545.3087,545.3087,545.3095,546.1757,0,0,left,0.3431,,546.1766,547.0083,1,1,right,547.0091,547.0098,,0,,0,547.0099,547.0099,547.0106,548.5081,0,27,27,27,1,0.6,0.4,0.8,0.2,,,,,,,,,,,,,,,0.3022,,0.2,0.8,0.6,0.4,0.2,0.8,0.4,0.6,1,0,,,,,,,,,,,,
,,61232b43bd4b37c8d76a7b37,66fc98e64be4c7bfa7ae9960,2024-10-02_02h51.46.753,mdp,2024.2.1,Win32,60.24096386,66fa4ebf79326e780c390304,,,,,,,,,,,,,,,,,,,,,548.5086,548.5086,548.5096,549.192,1,0,right,0.1494,,549.193,549.7581,1,1,right,549.759,549.7598,,1,,0,549.7598,549.7598,549.7605,551.258,0,28,28,28,1,0.8,0.2,0.2,0.8,,,,,,,,,,,,,,,0.0436,,0.2,0.8,0.6,0.4,0.2,0.8,0.4,0.6,1,0,,,,,,,,,,,,
,,61232b43bd4b37c8d76a7b37,66fc98e64be4c7bfa7ae9960,2024-10-02_02h51.46.753,mdp,2024.2.1,Win32,60.24096386,66fa4ebf79326e780c390304,,,,,,,,,,,,,,,,,,,,,551.2586,551.2586,551.2595,552.0086,0,0,left,0.2264,,552.0094,552.708,0,1,left,552.709,552.7095,,1,,0,552.7095,552.7096,552.7101,554.2083,0,29,29,29,1,0.8,0.2,0.2,0.8,,,,,,,,,,,,,,,0.18,,0.2,0.8,0.6,0.4,0.2,0.8,0.4,0.6,1,0,,,,,,,,,,,,
,,61232b43bd4b37c8d76a7b37,66fc98e64be4c7bfa7ae9960,2024-10-02_02h51.46.753,mdp,2024.2.1,Win32,60.24096386,66fa4ebf79326e780c390304,,,,,,,,,,,,,,,,,,,,,554.2086,554.2086,554.2093,555.1579,0,0,left,0.4189,,555.1589,555.758,1,0,right,555.759,555.7596,,0,,1,555.7597,555.7597,555.7604,557.2577,0,30,30,30,1,0.8,0.2,0.2,0.8,,,,,,,,,,,,,,,0.0697,,0.2,0.8,0.6,0.4,0.2,0.8,0.4,0.6,1,0,,,,,,,,,,,,
,,61232b43bd4b37c8d76a7b37,66fc98e64be4c7bfa7ae9960,2024-10-02_02h51.46.753,mdp,2024.2.1,Win32,60.24096386,66fa4ebf79326e780c390304,,,,,,,,,,,,,,,,,,,,,557.2583,557.2583,557.2589,558.0912,1,1,right,0.2919,,558.0926,558.7244,0,1,left,558.7254,558.7261,,1,,0,558.7261,558.7261,558.7269,560.2244,0,31,31,31,1,0.8,0.2,0.2,0.8,,,,,,,,,,,,,,,0.1013,,0.4,0.6,0.8,0.2,0.2,0.8,0.4,0.6,1,0,,,,,,,,,,,,
,,61232b43bd4b37c8d76a7b37,66fc98e64be4c7bfa7ae9960,2024-10-02_02h51.46.753,mdp,2024.2.1,Win32,60.24096386,66fa4ebf79326e780c390304,,,,,,,,,,,,,,,,,,,,,560.2248,560.2248,560.2257,560.891,1,1,right,0.1474,,560.8924,561.6911,0,1,left,561.692,561.6926,,1,,0,561.6927,561.6927,561.6933,563.191,0,32,32,32,1,0.6,0.4,0.4,0.6,,,,,,,,,,,,,,,0.2773,,0.4,0.6,0.8,0.2,0.2,0.8,0.4,0.6,1,0,,,,,,,,,,,,
,,61232b43bd4b37c8d76a7b37,66fc98e64be4c7bfa7ae9960,2024-10-02_02h51.46.753,mdp,2024.2.1,Win32,60.24096386,66fa4ebf79326e780c390304,,,,,,,,,,,,,,,,,,,,,563.1915,563.1915,563.1924,563.891,1,0,right,0.1784,,563.8923,564.4742,0,1,left,564.4751,564.4758,,1,,0,564.4759,564.4759,564.4766,565.9743,0,33,33,33,1,0.6,0.4,0.4,0.6,,,,,,,,,,,,,,,0.0729,,0.4,0.6,0.8,0.2,0.6,0.4,0.2,0.8,1,0,,,,,,,,,,,,
,,61232b43bd4b37c8d76a7b37,66fc98e64be4c7bfa7ae9960,2024-10-02_02h51.46.753,mdp,2024.2.1,Win32,60.24096386,66fa4ebf79326e780c390304,,,,,,,,,,,,,,,,,,,,,565.9747,565.9747,565.9758,566.991,0,1,left,0.4861,,566.9924,568.1741,1,1,right,568.1753,568.1769,,1,,0,568.177,568.177,568.1782,569.6739,0,34,34,34,1,0.6,0.4,0.4,0.6,,,,,,,,,,,,,,,0.6498,,0.4,0.6,0.8,0.2,0.6,0.4,0.2,0.8,1,0,,,,,,,,,,,,
,,61232b43bd4b37c8d76a7b37,66fc98e64be4c7bfa7ae9960,2024-10-02_02h51.46.753,mdp,2024.2.1,Win32,60.24096386,66fa4ebf79326e780c390304,,,,,,,,,,,,,,,,,,,,,569.6744,569.6744,569.6752,570.8073,1,0,right,0.61,,570.8083,571.6086,1,0,right,571.6097,571.6104,,0,,1,571.6104,571.6104,571.6116,573.1073,0,35,35,35,1,0.6,0.4,0.4,0.6,,,,,,,,,,,,,,,0.2808,,0.4,0.6,0.8,0.2,0.6,0.4,0.2,0.8,1,0,,,,,,,,,,,,
,,61232b43bd4b37c8d76a7b37,66fc98e64be4c7bfa7ae9960,2024-10-02_02h51.46.753,mdp,2024.2.1,Win32,60.24096386,66fa4ebf79326e780c390304,,,,,,,,,,,,,,,,,,,,,573.1077,573.1077,573.1084,573.7075,1,1,right,0.0967,,573.7084,574.4741,1,0,right,574.475,574.4761,,1,,1,574.4762,574.4762,574.4768,575.9741,0,36,36,36,1,0.6,0.4,0.4,0.6,,,,,,,,,,,,,,,0.2424,,0.6,0.4,0.2,0.8,0.6,0.4,0.2,0.8,1,0,,,,,,,,,,,,
,,61232b43bd4b37c8d76a7b37,66fc98e64be4c7bfa7ae9960,2024-10-02_02h51.46.753,mdp,2024.2.1,Win32,60.24096386,66fa4ebf79326e780c390304,,,,,,,,,,,,,,,,,,,,,575.9743,575.9744,575.9753,576.8748,1,1,right,0.3789,,576.8768,577.6749,1,0,right,577.6758,577.6765,,1,,1,577.6765,577.6766,577.6772,579.1737,0,37,37,37,1,0.6,0.4,0.4,0.6,,,,,,,,,,,,,,,0.2649,,0.6,0.4,0.2,0.8,0.6,0.4,0.2,0.8,1,0,,,,,,,,,,,,
,,61232b43bd4b37c8d76a7b37,66fc98e64be4c7bfa7ae9960,2024-10-02_02h51.46.753,mdp,2024.2.1,Win32,60.24096386,66fa4ebf79326e780c390304,,,,,,,,,,,,,,,,,,,,,579.1742,579.1742,579.1751,580.0571,1,1,right,0.3666,,580.0581,580.6573,1,1,right,580.6588,580.6593,,1,,0,580.6594,580.6594,580.66,582.1574,0,38,38,38,1,0.6,0.4,0.4,0.6,,,,,,,,,,,,,,,0.0672,,0.6,0.4,0.2,0.8,0.6,0.4,0.2,0.8,1,0,,,,,,,,,,,,
,,61232b43bd4b37c8d76a7b37,66fc98e64be4c7bfa7ae9960,2024-10-02_02h51.46.753,mdp,2024.2.1,Win32,60.24096386,66fa4ebf79326e780c390304,,,,,,,,,,,,,,,,,,,,,582.1578,582.1579,582.1587,582.7403,1,0,right,0.061,,582.7414,583.4402,1,0,right,583.4413,583.4418,,1,,1,583.4418,583.4418,583.4425,584.9404,0,39,39,39,1,0.6,0.4,0.4,0.6,,,,,,,,,,,,,,,0.1662,,0.6,0.4,0.2,0.8,0.6,0.4,0.2,0.8,1,0,,,,,,,,,,,,
,,61232b43bd4b37c8d76a7b37,66fc98e64be4c7bfa7ae9960,2024-10-02_02h51.46.753,mdp,2024.2.1,Win32,60.24096386,66fa4ebf79326e780c390304,,,,,,,,,,,,,,,,,,,,,584.9408,584.9408,584.9417,585.7577,1,0,right,0.287,,585.7589,586.3759,1,1,right,586.3772,586.3777,,1,,0,586.3778,586.3778,586.3784,587.8775,0,40,40,40,1,0.6,0.4,0.4,0.6,,,,,,,,,,,,,,,0.0861,,0.6,0.4,0.2,0.8,0.6,0.4,0.2,0.8,1,0,,,,,,,,,,,,
,,61232b43bd4b37c8d76a7b37,66fc98e64be4c7bfa7ae9960,2024-10-02_02h51.46.753,mdp,2024.2.1,Win32,60.24096386,66fa4ebf79326e780c390304,,,,,,,,,,,,,,,,,,,,,587.8778,587.8778,587.8786,588.691,1,1,right,0.2956,,588.6926,589.2567,0,0,left,589.2579,589.2585,,0,,1,589.2585,589.2585,589.2592,590.7574,0,41,41,41,1,0.6,0.4,0.4,0.6,,,,,,,,,,,,,,,0.0372,,0.6,0.4,0.2,0.8,0.6,0.4,0.2,0.8,1,0,,,,,,,,,,,,
,,61232b43bd4b37c8d76a7b37,66fc98e64be4c7bfa7ae9960,2024-10-02_02h51.46.753,mdp,2024.2.1,Win32,60.24096386,66fa4ebf79326e780c390304,,,,,,,,,,,,,,,,,,,,,590.758,590.758,590.7589,591.49,1,0,right,0.2099,,591.4909,592.4404,0,0,left,592.4414,592.4421,,0,,1,592.4421,592.4421,592.4427,593.9399,0,42,42,42,1,0.6,0.4,0.4,0.6,,,,,,,,,,,,,,,0.4214,,0.6,0.4,0.2,0.8,0.6,0.4,0.2,0.8,1,0,,,,,,,,,,,,
,,61232b43bd4b37c8d76a7b37,66fc98e64be4c7bfa7ae9960,2024-10-02_02h51.46.753,mdp,2024.2.1,Win32,60.24096386,66fa4ebf79326e780c390304,,,,,,,,,,,,,,,,,,,,,593.9404,593.9404,593.9412,594.7738,1,1,right,0.3027,,594.7749,595.3974,0,0,left,595.3985,595.3989,,1,,1,595.399,595.399,595.3994,596.8905,0,43,43,43,1,0.6,0.4,0.4,0.6,,,,,,,,,,,,,,,0.0821,,0.6,0.4,0.2,0.8,0.6,0.4,0.2,0.8,1,0,,,,,,,,,,,,
,,61232b43bd4b37c8d76a7b37,66fc98e64be4c7bfa7ae9960,2024-10-02_02h51.46.753,mdp,2024.2.1,Win32,60.24096386,66fa4ebf79326e780c390304,,,,,,,,,,,,,,,,,,,,,596.8912,596.8912,596.8925,597.7231,1,0,right,0.3256,,597.7247,598.5897,0,0,left,598.5907,598.5912,,0,,1,598.5913,598.5913,598.592,600.0896,0,44,44,44,1,0.6,0.4,0.4,0.6,,,,,,,,,,,,,,,0.3359,,0.6,0.4,0.2,0.8,0.6,0.4,0.2,0.8,1,0,,,,,,,,,,,,
,,61232b43bd4b37c8d76a7b37,66fc98e64be4c7bfa7ae9960,2024-10-02_02h51.46.753,mdp,2024.2.1,Win32,60.24096386,66fa4ebf79326e780c390304,,,,,,,,,,,,,,,,,,,,,600.0901,600.0901,600.0909,600.8896,1,1,right,0.2678,,600.8906,601.8737,0,1,left,601.8746,601.8752,,1,,0,601.8752,601.8752,601.8758,603.3742,0,45,45,45,1,0.6,0.4,0.4,0.6,,,,,,,,,,,,,,,0.4597,,0.6,0.4,0.2,0.8,0.6,0.4,0.2,0.8,1,0,,,,,,,,,,,,
,,61232b43bd4b37c8d76a7b37,66fc98e64be4c7bfa7ae9960,2024-10-02_02h51.46.753,mdp,2024.2.1,Win32,60.24096386,66fa4ebf79326e780c390304,,,,,,,,,,,,,,,,,,,,,603.3745,603.3745,603.3753,604.2395,1,1,right,0.3429,,604.2407,605.0061,0,0,left,605.0073,605.0078,,0,,1,605.0079,605.0079,605.0086,606.5065,0,46,46,46,1,0.6,0.4,0.4,0.6,,,,,,,,,,,,,,,0.2526,,0.6,0.4,0.2,0.8,0.6,0.4,0.2,0.8,1,0,,,,,,,,,,,,
,,61232b43bd4b37c8d76a7b37,66fc98e64be4c7bfa7ae9960,2024-10-02_02h51.46.753,mdp,2024.2.1,Win32,60.24096386,66fa4ebf79326e780c390304,,,,,,,,,,,,,,,,,,,,,606.507,606.507,606.5082,607.2727,1,1,right,0.2441,,607.2736,607.9727,0,1,left,607.9739,607.9744,,1,,0,607.9746,607.9746,607.9753,609.4731,0,47,47,47,1,0.6,0.4,0.4,0.6,,,,,,,,,,,,,,,0.1651,,0.6,0.4,0.2,0.8,0.6,0.4,0.2,0.8,1,0,,,,,,,,,,,,
,,61232b43bd4b37c8d76a7b37,66fc98e64be4c7bfa7ae9960,2024-10-02_02h51.46.753,mdp,2024.2.1,Win32,60.24096386,66fa4ebf79326e780c390304,,,,,,,,,,,,,,,,,,,,,609.4737,609.4738,609.475,610.206,1,0,right,0.2027,,610.207,610.7892,1,1,right,610.7906,610.7914,,1,,0,610.7914,610.7914,610.7921,612.2891,0,48,48,48,1,0.6,0.4,0.4,0.6,,,,,,,,,,,,,,,0.0504,,0.6,0.4,0.2,0.8,0.6,0.4,0.2,0.8,1,0,,,,,,,,,,,,
,,61232b43bd4b37c8d76a7b37,66fc98e64be4c7bfa7ae9960,2024-10-02_02h51.46.753,mdp,2024.2.1,Win32,60.24096386,66fa4ebf79326e780c390304,,,,,,,,,,,,,,,,,,,,,612.2895,612.2895,612.2904,613.0729,1,1,right,0.2744,,613.0739,613.69,0,0,left,613.6912,613.6918,,0,,1,613.6919,613.6919,613.6924,615.1891,0,49,49,49,1,0.6,0.4,0.4,0.6,,,,,,,,,,,,,,,0.075,,0.6,0.4,0.2,0.8,0.8,0.2,0.8,0.2,1,0,,,,,,,,,,,,
,,61232b43bd4b37c8d76a7b37,66fc98e64be4c7bfa7ae9960,2024-10-02_02h51.46.753,mdp,2024.2.1,Win32,60.24096386,66fa4ebf79326e780c390304,,,,,,,,,,,,,,,,,,,,,,,,,,,,,,,,,,,,,,,,,,,,,,,,,,,,,,,,615.1893,673.7033,0,1,1,3,1,imgs/goat.png,imgs/kangaroo.png,imgs/rabbit.png,imgs/lion.png,imgs/horse.png,,,,,,,,,,,,,,,,,,,,,,,,
,,61232b43bd4b37c8d76a7b37,66fc98e64be4c7bfa7ae9960,2024-10-02_02h51.46.753,mdp,2024.2.1,Win32,60.24096386,66fa4ebf79326e780c390304,,,,,,,,,,,,,,3,seqs/st3seq15.csv,673.7137,678.903,space,4.6607,,678.9168,678.9168,678.9174,681.203,0,1,left,1.7803,,681.2043,682.1861,1,0,right,682.1873,683.4528,1,1,right,0,683.4528,683.4528,683.454,684.9526,0,0,0,0,1,0.2,0.8,0.6,0.4,,,,,,,,,,,,,,,0.4418,,0.2,0.8,0.8,0.2,0.2,0.8,0.8,0.2,,,0.7307,,0.8,0.2,0.2,0.8,0.8,0.2,0.2,0.8,1,0
,,61232b43bd4b37c8d76a7b37,66fc98e64be4c7bfa7ae9960,2024-10-02_02h51.46.753,mdp,2024.2.1,Win32,60.24096386,66fa4ebf79326e780c390304,,,,,,,,,,,,,,,,,,,,,684.9535,684.9535,684.9544,685.8193,0,1,left,0.3448,,685.8203,686.5694,0,1,left,686.5709,687.3714,0,0,left,1,687.3716,687.3716,687.3724,688.8696,0,1,1,1,1,0.2,0.8,0.6,0.4,,,,,,,,,,,,,,,0.224,,0.2,0.8,0.8,0.2,0.2,0.8,0.8,0.2,,,0.2761,,0.8,0.2,0.2,0.8,0.8,0.2,0.2,0.8,1,0
,,61232b43bd4b37c8d76a7b37,66fc98e64be4c7bfa7ae9960,2024-10-02_02h51.46.753,mdp,2024.2.1,Win32,60.24096386,66fa4ebf79326e780c390304,,,,,,,,,,,,,,,,,,,,,688.8702,688.8702,688.8709,689.7026,1,1,right,0.3071,,689.7038,690.3693,0,0,left,690.3708,691.0191,0,0,left,1,691.0191,691.0192,691.02,692.519,0,2,2,2,1,0.2,0.8,0.6,0.4,,,,,,,,,,,,,,,0.1464,,0.2,0.8,0.8,0.2,0.2,0.8,0.8,0.2,,,0.1104,,0.8,0.2,0.2,0.8,0.8,0.2,0.2,0.8,1,0
,,61232b43bd4b37c8d76a7b37,66fc98e64be4c7bfa7ae9960,2024-10-02_02h51.46.753,mdp,2024.2.1,Win32,60.24096386,66fa4ebf79326e780c390304,,,,,,,,,,,,,,,,,,,,,692.5201,692.5202,692.5213,693.1357,1,0,right,0.0906,,693.1368,693.7024,0,0,left,693.704,694.2689,0,0,left,1,694.269,694.269,694.2699,695.769,0,3,3,3,1,0.2,0.8,0.6,0.4,,,,,,,,,,,,,,,0.0268,,0.2,0.8,0.8,0.2,0.8,0.2,0.6,0.4,,,0.0308,,0.8,0.2,0.2,0.8,0.8,0.2,0.2,0.8,1,0
,,61232b43bd4b37c8d76a7b37,66fc98e64be4c7bfa7ae9960,2024-10-02_02h51.46.753,mdp,2024.2.1,Win32,60.24096386,66fa4ebf79326e780c390304,,,,,,,,,,,,,,,,,,,,,695.7699,695.7699,695.7708,696.5021,1,1,right,0.2032,,696.5036,697.1189,0,0,left,697.121,697.719,0,0,left,1,697.7191,697.7191,697.7206,699.2188,0,4,4,4,1,0.2,0.8,0.6,0.4,,,,,,,,,,,,,,,0.0852,,0.2,0.8,0.8,0.2,0.8,0.2,0.6,0.4,,,0.0681,,0.8,0.2,0.2,0.8,0.8,0.2,0.2,0.8,1,0
,,61232b43bd4b37c8d76a7b37,66fc98e64be4c7bfa7ae9960,2024-10-02_02h51.46.753,mdp,2024.2.1,Win32,60.24096386,66fa4ebf79326e780c390304,,,,,,,,,,,,,,,,,,,,,699.2194,699.2194,699.2209,700.2687,0,0,left,0.5084,,700.2698,701.002,0,0,left,701.0033,702.2021,0,0,left,1,702.2021,702.2021,702.2032,703.702,0,5,5,5,1,0.2,0.8,0.6,0.4,,,,,,,,,,,,,,,0.1945,,0.2,0.8,0.8,0.2,0.8,0.2,0.6,0.4,,,0.6708,,0.8,0.2,0.2,0.8,0.2,0.8,0.8,0.2,1,0
,,61232b43bd4b37c8d76a7b37,66fc98e64be4c7bfa7ae9960,2024-10-02_02h51.46.753,mdp,2024.2.1,Win32,60.24096386,66fa4ebf79326e780c390304,,,,,,,,,,,,,,,,,,,,,703.703,703.703,703.7041,704.502,1,1,right,0.2765,,704.5035,705.1685,0,0,left,705.1697,705.9854,0,1,left,0,705.9857,705.9857,705.9872,707.485,0,6,6,6,1,0.8,0.2,0.2,0.8,,,,,,,,,,,,,,,0.1242,,0.2,0.8,0.8,0.2,0.8,0.2,0.6,0.4,,,0.2854,,0.8,0.2,0.2,0.8,0.2,0.8,0.8,0.2,1,0
,,61232b43bd4b37c8d76a7b37,66fc98e64be4c7bfa7ae9960,2024-10-02_02h51.46.753,mdp,2024.2.1,Win32,60.24096386,66fa4ebf79326e780c390304,,,,,,,,,,,,,,,,,,,,,707.4858,707.4858,707.4869,708.035,1,0,right,0.0228,,708.0361,708.6185,0,1,left,708.6202,709.2183,1,0,right,1,709.2185,709.2185,709.2197,710.7186,0,7,7,7,1,0.8,0.2,0.2,0.8,,,,,,,,,,,,,,,0.0396,,0.2,0.8,0.8,0.2,0.8,0.2,0.6,0.4,,,0.0766,,0.8,0.2,0.2,0.8,0.2,0.8,0.8,0.2,1,0
,,61232b43bd4b37c8d76a7b37,66fc98e64be4c7bfa7ae9960,2024-10-02_02h51.46.753,mdp,2024.2.1,Win32,60.24096386,66fa4ebf79326e780c390304,,,,,,,,,,,,,,,,,,,,,710.7194,710.7194,710.7204,711.3015,0,1,left,0.0522,,711.3026,712.5194,1,0,right,712.5207,713.2848,1,1,right,0,713.2849,713.2849,713.2858,714.7847,0,8,8,8,1,0.4,0.6,0.6,0.4,,,,,,,,,,,,,,,0.698,,0.2,0.8,0.8,0.2,0.8,0.2,0.6,0.4,,,0.2387,,0.8,0.2,0.2,0.8,0.2,0.8,0.8,0.2,1,0
,,61232b43bd4b37c8d76a7b37,66fc98e64be4c7bfa7ae9960,2024-10-02_02h51.46.753,mdp,2024.2.1,Win32,60.24096386,66fa4ebf79326e780c390304,,,,,,,,,,,,,,,,,,,,,714.7854,714.7855,714.7862,716.0179,0,1,left,0.6983,,716.0189,716.6846,1,0,right,716.6855,717.3347,0,0,left,1,717.3347,717.3347,717.3358,718.8348,0,9,9,9,1,0.4,0.6,0.6,0.4,,,,,,,,,,,,,,,0.1532,,0.2,0.8,0.8,0.2,0.8,0.2,0.6,0.4,,,0.1261,,0.8,0.2,0.2,0.8,0.2,0.8,0.8,0.2,1,0
,,61232b43bd4b37c8d76a7b37,66fc98e64be4c7bfa7ae9960,2024-10-02_02h51.46.753,mdp,2024.2.1,Win32,60.24096386,66fa4ebf79326e780c390304,,,,,,,,,,,,,,,,,,,,,718.8352,718.8352,718.8366,719.6345,0,1,left,0.2784,,719.6357,720.2011,1,1,right,720.2022,721.1511,0,1,left,0,721.1512,721.1512,721.1524,722.651,0,10,10,10,1,0.4,0.6,0.6,0.4,,,,,,,,,,,,,,,0.0333,,0.2,0.8,0.8,0.2,0.8,0.2,0.6,0.4,,,0.4174,,0.8,0.2,0.2,0.8,0.2,0.8,0.8,0.2,1,0
,,61232b43bd4b37c8d76a7b37,66fc98e64be4c7bfa7ae9960,2024-10-02_02h51.46.753,mdp,2024.2.1,Win32,60.24096386,66fa4ebf79326e780c390304,,,,,,,,,,,,,,,,,,,,,722.6516,722.6516,722.653,723.6844,0,1,left,0.5112,,723.6853,724.2343,1,0,right,724.2356,725.2176,0,0,left,1,725.2177,725.2177,725.2187,726.7177,0,11,11,11,1,0.4,0.6,0.6,0.4,,,,,,,,,,,,,,,0.0235,,0.2,0.8,0.8,0.2,0.8,0.2,0.6,0.4,,,0.4477,,0.8,0.2,0.2,0.8,0.2,0.8,0.8,0.2,1,0
,,61232b43bd4b37c8d76a7b37,66fc98e64be4c7bfa7ae9960,2024-10-02_02h51.46.753,mdp,2024.2.1,Win32,60.24096386,66fa4ebf79326e780c390304,,,,,,,,,,,,,,,,,,,,,726.7181,726.7181,726.7189,727.4844,0,1,left,0.2357,,727.4853,728.3342,1,1,right,728.3354,729.1177,0,1,left,0,729.1178,729.1178,729.1186,730.6175,0,12,12,12,1,0.4,0.6,0.6,0.4,,,,,,,,,,,,,,,0.3267,,0.2,0.8,0.8,0.2,0.8,0.2,0.6,0.4,,,0.2527,,0.8,0.2,0.2,0.8,0.2,0.8,0.8,0.2,1,0
,,61232b43bd4b37c8d76a7b37,66fc98e64be4c7bfa7ae9960,2024-10-02_02h51.46.753,mdp,2024.2.1,Win32,60.24096386,66fa4ebf79326e780c390304,,,,,,,,,,,,,,,,,,,,,730.6179,730.618,730.6188,731.2676,0,1,left,0.1201,,731.2685,732.0508,1,1,right,732.052,732.9675,1,0,right,1,732.9676,732.9676,732.9686,734.4674,0,13,13,13,1,0.4,0.6,0.6,0.4,,,,,,,,,,,,,,,0.2543,,0.2,0.8,0.8,0.2,0.8,0.2,0.6,0.4,,,0.3815,,0.8,0.2,0.2,0.8,0.2,0.8,0.8,0.2,1,0
,,61232b43bd4b37c8d76a7b37,66fc98e64be4c7bfa7ae9960,2024-10-02_02h51.46.753,mdp,2024.2.1,Win32,60.24096386,66fa4ebf79326e780c390304,,,,,,,,,,,,,,,,,,,,,734.468,734.468,734.4687,735.2673,0,0,left,0.2714,,735.2684,736.084,1,0,right,736.085,736.9006,1,1,right,0,736.9007,736.9007,736.9018,738.3894,0,14,14,14,1,0.4,0.6,0.6,0.4,,,,,,,,,,,,,,,0.2872,,0.2,0.8,0.8,0.2,0.8,0.2,0.6,0.4,,,0.2838,,0.8,0.2,0.2,0.8,0.2,0.8,0.8,0.2,1,0
,,61232b43bd4b37c8d76a7b37,66fc98e64be4c7bfa7ae9960,2024-10-02_02h51.46.753,mdp,2024.2.1,Win32,60.24096386,66fa4ebf79326e780c390304,,,,,,,,,,,,,,,,,,,,,738.3897,738.3897,738.3909,738.9674,0,1,left,0.0515,,738.9683,739.6839,1,0,right,739.6848,740.3006,0,0,left,1,740.3006,740.3006,740.3017,741.8004,0,15,15,15,1,0.4,0.6,0.6,0.4,,,,,,,,,,,,,,,0.1796,,0.2,0.8,0.8,0.2,0.6,0.4,0.4,0.6,,,0.0889,,0.8,0.2,0.2,0.8,0.2,0.8,0.8,0.2,1,0
,,61232b43bd4b37c8d76a7b37,66fc98e64be4c7bfa7ae9960,2024-10-02_02h51.46.753,mdp,2024.2.1,Win32,60.24096386,66fa4ebf79326e780c390304,,,,,,,,,,,,,,,,,,,,,741.8009,741.801,741.8019,742.6338,0,1,left,0.3138,,742.6348,743.517,1,0,right,743.518,744.2502,0,0,left,1,744.2503,744.2503,744.2514,745.7501,0,16,16,16,1,0.4,0.6,0.6,0.4,,,,,,,,,,,,,,,0.3607,,0.2,0.8,0.8,0.2,0.6,0.4,0.4,0.6,,,0.2133,,0.8,0.2,0.2,0.8,0.2,0.8,0.8,0.2,1,0
,,61232b43bd4b37c8d76a7b37,66fc98e64be4c7bfa7ae9960,2024-10-02_02h51.46.753,mdp,2024.2.1,Win32,60.24096386,66fa4ebf79326e780c390304,,,,,,,,,,,,,,,,,,,,,745.7508,745.7508,745.7518,746.3944,0,1,left,0.09,,746.3951,747.0834,0,0,left,747.0844,747.7835,1,1,right,0,747.7837,747.7837,747.7845,749.2833,0,17,17,17,1,0.4,0.6,0.6,0.4,,,,,,,,,,,,,,,0.1792,,0.2,0.8,0.8,0.2,0.6,0.4,0.4,0.6,,,0.1565,,0.8,0.2,0.2,0.8,0.2,0.8,0.8,0.2,1,0
,,61232b43bd4b37c8d76a7b37,66fc98e64be4c7bfa7ae9960,2024-10-02_02h51.46.753,mdp,2024.2.1,Win32,60.24096386,66fa4ebf79326e780c390304,,,,,,,,,,,,,,,,,,,,,749.2837,749.2838,749.2847,750.8166,0,1,left,0.9982,,750.8176,752.3666,1,1,right,752.3683,753.2832,0,0,left,1,753.2832,753.2832,753.2841,754.7832,0,18,18,18,1,0.4,0.6,0.6,0.4,,,,,,,,,,,,,,,1.0182,,0.2,0.8,0.8,0.2,0.6,0.4,0.4,0.6,,,0.3794,,0.8,0.2,0.2,0.8,0.2,0.8,0.8,0.2,1,0
,,61232b43bd4b37c8d76a7b37,66fc98e64be4c7bfa7ae9960,2024-10-02_02h51.46.753,mdp,2024.2.1,Win32,60.24096386,66fa4ebf79326e780c390304,,,,,,,,,,,,,,,,,,,,,754.7836,754.7836,754.7847,759.8163,1,0,right,4.5073,,759.8261,760.583,0,1,left,760.5841,761.5998,1,0,right,1,761.5998,761.5998,761.6008,763.0995,0,19,19,19,1,0.4,0.6,0.6,0.4,,,,,,,,,,,,,,,0.2391,,0.2,0.8,0.8,0.2,0.6,0.4,0.4,0.6,,,0.4732,,0.8,0.2,0.2,0.8,0.2,0.8,0.8,0.2,1,0
,,61232b43bd4b37c8d76a7b37,66fc98e64be4c7bfa7ae9960,2024-10-02_02h51.46.753,mdp,2024.2.1,Win32,60.24096386,66fa4ebf79326e780c390304,,,,,,,,,,,,,,,,,,,,,763.0998,763.0998,763.1012,766.1494,1,0,right,2.5203,,766.159,766.816,1,1,right,766.8169,767.4326,0,1,left,0,767.4327,767.4327,767.4335,768.9325,0,20,20,20,1,0.4,0.6,0.6,0.4,,,,,,,,,,,,,,,0.1372,,0.8,0.2,0.2,0.8,0.6,0.4,0.4,0.6,,,0.0911,,0.8,0.2,0.2,0.8,0.2,0.8,0.8,0.2,1,0
,,61232b43bd4b37c8d76a7b37,66fc98e64be4c7bfa7ae9960,2024-10-02_02h51.46.753,mdp,2024.2.1,Win32,60.24096386,66fa4ebf79326e780c390304,,,,,,,,,,,,,,,,,,,,,768.933,768.933,768.934,776.1823,1,1,right,6.7193,,776.1921,776.7823,1,1,right,776.7836,777.5656,0,1,left,0,777.5657,777.5657,777.5667,779.0655,0,21,21,21,1,0.4,0.6,0.6,0.4,,,,,,,,,,,,,,,0.0674,,0.8,0.2,0.2,0.8,0.6,0.4,0.4,0.6,,,0.2655,,0.8,0.2,0.2,0.8,0.2,0.8,0.8,0.2,1,0
,,61232b43bd4b37c8d76a7b37,66fc98e64be4c7bfa7ae9960,2024-10-02_02h51.46.753,mdp,2024.2.1,Win32,60.24096386,66fa4ebf79326e780c390304,,,,,,,,,,,,,,,,,,,,,779.0659,779.066,779.0669,785.6655,1,0,right,6.0932,,785.6752,786.3986,0,0,left,786.3994,787.1485,1,0,right,1,787.1486,787.1486,787.1496,788.6485,0,22,22,22,1,0.4,0.6,0.6,0.4,,,,,,,,,,,,,,,0.2001,,0.8,0.2,0.2,0.8,0.6,0.4,0.4,0.6,,,0.2094,,0.8,0.2,0.2,0.8,0.2,0.8,0.8,0.2,1,0
,,61232b43bd4b37c8d76a7b37,66fc98e64be4c7bfa7ae9960,2024-10-02_02h51.46.753,mdp,2024.2.1,Win32,60.24096386,66fa4ebf79326e780c390304,,,,,,,,,,,,,,,,,,,,,788.6488,788.6488,788.6499,789.3484,0,0,left,0.1699,,789.3499,790.265,1,1,right,790.2662,791.0484,0,1,left,0,791.0485,791.0485,791.0494,792.5484,0,23,23,23,1,0.4,0.6,0.6,0.4,,,,,,,,,,,,,,,0.3906,,0.8,0.2,0.2,0.8,0.6,0.4,0.4,0.6,,,0.2479,,0.8,0.2,0.2,0.8,0.2,0.8,0.8,0.2,1,0
,,61232b43bd4b37c8d76a7b37,66fc98e64be4c7bfa7ae9960,2024-10-02_02h51.46.753,mdp,2024.2.1,Win32,60.24096386,66fa4ebf79326e780c390304,,,,,,,,,,,,,,,,,,,,,792.5488,792.5488,792.5498,801.3314,0,1,left,8.2628,,801.3416,801.8646,0,0,left,801.8656,802.7646,1,1,right,0,802.7646,802.7647,802.7659,804.2644,0,24,24,24,1,0.4,0.6,0.6,0.4,,,,,,,,,,,,,,,0.0004,,0.8,0.2,0.2,0.8,0.6,0.4,0.4,0.6,,,0.365,,0.8,0.2,0.2,0.8,0.2,0.8,0.8,0.2,1,0
,,61232b43bd4b37c8d76a7b37,66fc98e64be4c7bfa7ae9960,2024-10-02_02h51.46.753,mdp,2024.2.1,Win32,60.24096386,66fa4ebf79326e780c390304,,,,,,,,,,,,,,,,,,,,,804.2648,804.2648,804.2659,806.3644,1,0,right,1.571,,806.3654,807.0645,0,0,left,807.0655,808.1476,1,1,right,0,808.1477,808.1477,808.1487,809.6476,0,25,25,25,1,0.4,0.6,0.6,0.4,,,,,,,,,,,,,,,0.1635,,0.8,0.2,0.2,0.8,0.6,0.4,0.4,0.6,,,0.555,,0.4,0.6,0.8,0.2,0.2,0.8,0.8,0.2,1,0
,,61232b43bd4b37c8d76a7b37,66fc98e64be4c7bfa7ae9960,2024-10-02_02h51.46.753,mdp,2024.2.1,Win32,60.24096386,66fa4ebf79326e780c390304,,,,,,,,,,,,,,,,,,,,,809.6481,809.6481,809.649,810.4476,0,1,left,0.2678,,810.4486,811.1975,0,0,left,811.1985,812.0975,0,1,left,0,812.0975,812.0975,812.0985,813.5975,0,26,26,26,1,0.4,0.6,0.6,0.4,,,,,,,,,,,,,,,0.215,,0.8,0.2,0.2,0.8,0.6,0.4,0.4,0.6,,,0.374,,0.4,0.6,0.8,0.2,0.2,0.8,0.8,0.2,1,0
,,61232b43bd4b37c8d76a7b37,66fc98e64be4c7bfa7ae9960,2024-10-02_02h51.46.753,mdp,2024.2.1,Win32,60.24096386,66fa4ebf79326e780c390304,,,,,,,,,,,,,,,,,,,,,813.5979,813.5979,813.5991,814.2642,1,1,right,0.1342,,814.265,815.0141,0,0,left,815.0151,815.7641,1,0,right,1,815.7642,815.7642,815.7652,817.264,0,27,27,27,1,0.4,0.6,0.6,0.4,,,,,,,,,,,,,,,0.2173,,0.8,0.2,0.2,0.8,0.6,0.4,0.4,0.6,,,0.2257,,0.4,0.6,0.8,0.2,0.2,0.8,0.8,0.2,1,0
,,61232b43bd4b37c8d76a7b37,66fc98e64be4c7bfa7ae9960,2024-10-02_02h51.46.753,mdp,2024.2.1,Win32,60.24096386,66fa4ebf79326e780c390304,,,,,,,,,,,,,,,,,,,,,817.2644,817.2644,817.2652,818.2249,0,0,left,0.4343,,818.2257,818.7471,1,1,right,818.748,820.5639,0,0,left,1,820.564,820.564,820.5649,822.0639,0,28,28,28,1,0.4,0.6,0.6,0.4,,,,,,,,,,,,,,,0.001,,0.8,0.2,0.2,0.8,0.6,0.4,0.4,0.6,,,1.2925,,0.4,0.6,0.8,0.2,0.2,0.8,0.8,0.2,1,0
,,61232b43bd4b37c8d76a7b37,66fc98e64be4c7bfa7ae9960,2024-10-02_02h51.46.753,mdp,2024.2.1,Win32,60.24096386,66fa4ebf79326e780c390304,,,,,,,,,,,,,,,,,,,,,822.0641,822.0643,822.066,822.7471,0,1,left,0.1617,,822.748,823.2803,1,1,right,823.2817,823.9138,0,0,left,1,823.9138,823.9138,823.9148,825.4137,0,29,29,29,1,0.4,0.6,0.6,0.4,,,,,,,,,,,,,,,0.0003,,0.8,0.2,0.2,0.8,0.6,0.4,0.4,0.6,,,0.1176,,0.4,0.6,0.8,0.2,0.2,0.8,0.8,0.2,1,0
,,61232b43bd4b37c8d76a7b37,66fc98e64be4c7bfa7ae9960,2024-10-02_02h51.46.753,mdp,2024.2.1,Win32,60.24096386,66fa4ebf79326e780c390304,,,,,,,,,,,,,,,,,,,,,825.4141,825.4141,825.4152,826.1803,1,1,right,0.2218,,826.1813,826.9468,0,1,left,826.9479,827.7135,1,0,right,1,827.7136,827.7136,827.7145,829.2136,0,30,30,30,1,0.4,0.6,0.6,0.4,,,,,,,,,,,,,,,0.245,,0.8,0.2,0.2,0.8,0.6,0.4,0.4,0.6,,,0.2471,,0.4,0.6,0.8,0.2,0.2,0.8,0.8,0.2,1,0
,,61232b43bd4b37c8d76a7b37,66fc98e64be4c7bfa7ae9960,2024-10-02_02h51.46.753,mdp,2024.2.1,Win32,60.24096386,66fa4ebf79326e780c390304,,,,,,,,,,,,,,,,,,,,,829.2139,829.2139,829.2147,830.0634,0,1,left,0.3168,,830.0644,830.6634,1,0,right,830.6645,831.3635,0,1,left,0,831.3636,831.3636,831.3645,832.8634,0,31,31,31,1,0.4,0.6,0.6,0.4,,,,,,,,,,,,,,,0.0683,,0.8,0.2,0.2,0.8,0.2,0.8,0.8,0.2,,,0.1698,,0.4,0.6,0.8,0.2,0.2,0.8,0.8,0.2,1,0
,,61232b43bd4b37c8d76a7b37,66fc98e64be4c7bfa7ae9960,2024-10-02_02h51.46.753,mdp,2024.2.1,Win32,60.24096386,66fa4ebf79326e780c390304,,,,,,,,,,,,,,,,,,,,,832.8637,832.8637,832.8651,833.7468,0,1,left,0.3622,,833.7478,834.33,0,1,left,834.331,835.08,1,0,right,1,835.0801,835.0801,835.0811,836.5799,0,32,32,32,1,0.4,0.6,0.6,0.4,,,,,,,,,,,,,,,0.0527,,0.8,0.2,0.2,0.8,0.2,0.8,0.8,0.2,,,0.212,,0.4,0.6,0.8,0.2,0.2,0.8,0.8,0.2,1,0
,,61232b43bd4b37c8d76a7b37,66fc98e64be4c7bfa7ae9960,2024-10-02_02h51.46.753,mdp,2024.2.1,Win32,60.24096386,66fa4ebf79326e780c390304,,,,,,,,,,,,,,,,,,,,,836.5803,836.5803,836.5814,837.6632,0,1,left,0.5481,,837.6641,838.2465,1,0,right,838.2475,839.3131,1,0,right,1,839.3131,839.3131,839.3143,840.813,0,33,33,33,1,0.4,0.6,0.6,0.4,,,,,,,,,,,,,,,0.0503,,0.8,0.2,0.2,0.8,0.2,0.8,0.8,0.2,,,0.531,,0.4,0.6,0.8,0.2,0.2,0.8,0.8,0.2,1,0
,,61232b43bd4b37c8d76a7b37,66fc98e64be4c7bfa7ae9960,2024-10-02_02h51.46.753,mdp,2024.2.1,Win32,60.24096386,66fa4ebf79326e780c390304,,,,,,,,,,,,,,,,,,,,,840.8133,840.8133,840.8142,841.6299,0,0,left,0.2903,,841.6311,842.6464,0,0,left,842.6474,843.4297,1,0,right,1,843.4298,843.4298,843.4304,844.9296,0,34,34,34,1,0.4,0.6,0.6,0.4,,,,,,,,,,,,,,,0.4892,,0.8,0.2,0.2,0.8,0.2,0.8,0.8,0.2,,,0.2581,,0.4,0.6,0.8,0.2,0.2,0.8,0.8,0.2,1,0
,,61232b43bd4b37c8d76a7b37,66fc98e64be4c7bfa7ae9960,2024-10-02_02h51.46.753,mdp,2024.2.1,Win32,60.24096386,66fa4ebf79326e780c390304,,,,,,,,,,,,,,,,,,,,,844.93,844.93,844.9309,845.9128,0,1,left,0.4558,,845.9138,846.7961,0,1,left,846.7973,847.5795,1,0,right,1,847.5796,847.5796,847.5808,849.0794,0,35,35,35,1,0.4,0.6,0.6,0.4,,,,,,,,,,,,,,,0.3497,,0.8,0.2,0.2,0.8,0.2,0.8,0.8,0.2,,,0.2527,,0.4,0.6,0.8,0.2,0.2,0.8,0.8,0.2,1,0
,,61232b43bd4b37c8d76a7b37,66fc98e64be4c7bfa7ae9960,2024-10-02_02h51.46.753,mdp,2024.2.1,Win32,60.24096386,66fa4ebf79326e780c390304,,,,,,,,,,,,,,,,,,,,,849.0798,849.0798,849.0808,850.9792,0,0,left,1.3783,,850.9802,851.8793,0,0,left,851.8803,852.5793,1,0,right,1,852.5794,852.5794,852.5804,854.0792,0,36,36,36,1,0.4,0.6,0.6,0.4,,,,,,,,,,,,,,,0.3707,,0.8,0.2,0.2,0.8,0.2,0.8,0.8,0.2,,,0.1677,,0.4,0.6,0.8,0.2,0.2,0.8,0.8,0.2,1,0
,,61232b43bd4b37c8d76a7b37,66fc98e64be4c7bfa7ae9960,2024-10-02_02h51.46.753,mdp,2024.2.1,Win32,60.24096386,66fa4ebf79326e780c390304,,,,,,,,,,,,,,,,,,,,,854.0796,854.0796,854.0807,855.1957,0,1,left,0.5946,,855.1966,855.9291,0,1,left,855.9299,856.5625,1,0,right,1,856.5625,856.5625,856.5635,858.0629,0,37,37,37,1,0.4,0.6,0.6,0.4,,,,,,,,,,,,,,,0.2084,,0.8,0.2,0.2,0.8,0.2,0.8,0.8,0.2,,,0.0904,,0.4,0.6,0.8,0.2,0.2,0.8,0.8,0.2,1,0
,,61232b43bd4b37c8d76a7b37,66fc98e64be4c7bfa7ae9960,2024-10-02_02h51.46.753,mdp,2024.2.1,Win32,60.24096386,66fa4ebf79326e780c390304,,,,,,,,,,,,,,,,,,,,,858.0632,858.0632,858.0641,858.8124,0,0,left,0.2194,,858.8135,859.6123,0,0,left,859.6141,860.4126,1,0,right,1,860.4127,860.4127,860.4137,861.9121,0,38,38,38,1,0.4,0.6,0.6,0.4,,,,,,,,,,,,,,,0.2582,,0.8,0.2,0.2,0.8,0.2,0.8,0.8,0.2,,,0.2884,,0.4,0.6,0.8,0.2,0.2,0.8,0.8,0.2,1,0
,,61232b43bd4b37c8d76a7b37,66fc98e64be4c7bfa7ae9960,2024-10-02_02h51.46.753,mdp,2024.2.1,Win32,60.24096386,66fa4ebf79326e780c390304,,,,,,,,,,,,,,,,,,,,,861.9125,861.9125,861.9135,862.5287,0,1,left,0.0942,,862.5296,863.1788,0,1,left,863.18,863.9788,1,0,right,1,863.9788,863.9788,863.9798,865.4787,0,39,39,39,1,0.4,0.6,0.6,0.4,,,,,,,,,,,,,,,0.1204,,0.8,0.2,0.2,0.8,0.2,0.8,0.8,0.2,,,0.2711,,0.4,0.6,0.8,0.2,0.2,0.8,0.8,0.2,1,0
,,61232b43bd4b37c8d76a7b37,66fc98e64be4c7bfa7ae9960,2024-10-02_02h51.46.753,mdp,2024.2.1,Win32,60.24096386,66fa4ebf79326e780c390304,,,,,,,,,,,,,,,,,,,,,865.4791,865.4791,865.4806,866.162,0,0,left,0.1624,,866.163,868.0619,1,1,right,868.0631,868.8952,1,1,right,0,868.8954,868.8954,868.8962,870.3952,0,40,40,40,1,0.4,0.6,0.6,0.4,,,,,,,,,,,,,,,1.389,,0.8,0.2,0.2,0.8,0.2,0.8,0.8,0.2,,,0.3124,,0.4,0.6,0.8,0.2,0.2,0.8,0.8,0.2,1,0
,,61232b43bd4b37c8d76a7b37,66fc98e64be4c7bfa7ae9960,2024-10-02_02h51.46.753,mdp,2024.2.1,Win32,60.24096386,66fa4ebf79326e780c390304,,,,,,,,,,,,,,,,,,,,,870.3958,870.3958,870.3969,870.9955,0,1,left,0.0634,,870.9974,871.9287,0,1,left,871.9299,872.745,1,0,right,1,872.7451,872.7451,872.7461,874.2452,0,41,41,41,1,0.4,0.6,0.6,0.4,,,,,,,,,,,,,,,0.3975,,0.8,0.2,0.2,0.8,0.2,0.8,0.8,0.2,,,0.2844,,0.4,0.6,0.8,0.2,0.2,0.8,0.8,0.2,1,0
,,61232b43bd4b37c8d76a7b37,66fc98e64be4c7bfa7ae9960,2024-10-02_02h51.46.753,mdp,2024.2.1,Win32,60.24096386,66fa4ebf79326e780c390304,,,,,,,,,,,,,,,,,,,,,874.2456,874.2456,874.2474,875.3956,0,0,left,0.6309,,875.397,876.2284,1,1,right,876.2297,877.7615,0,1,left,0,877.7617,877.7617,877.7628,879.2616,0,42,42,42,1,0.4,0.6,0.6,0.4,,,,,,,,,,,,,,,0.2985,,0.8,0.2,0.2,0.8,0.2,0.8,0.8,0.2,,,1.0146,,0.4,0.6,0.8,0.2,0.4,0.6,0.2,0.8,1,0
,,61232b43bd4b37c8d76a7b37,66fc98e64be4c7bfa7ae9960,2024-10-02_02h51.46.753,mdp,2024.2.1,Win32,60.24096386,66fa4ebf79326e780c390304,,,,,,,,,,,,,,,,,,,,,879.262,879.262,879.2631,880.5114,0,1,left,0.7234,,880.5126,881.3448,0,1,left,881.3457,882.1946,1,1,right,0,882.1948,882.1948,882.1957,883.6948,0,43,43,43,1,0.4,0.6,0.6,0.4,,,,,,,,,,,,,,,0.2978,,0.8,0.2,0.2,0.8,0.2,0.8,0.8,0.2,,,0.3296,,0.4,0.6,0.8,0.2,0.4,0.6,0.2,0.8,1,0
,,61232b43bd4b37c8d76a7b37,66fc98e64be4c7bfa7ae9960,2024-10-02_02h51.46.753,mdp,2024.2.1,Win32,60.24096386,66fa4ebf79326e780c390304,,,,,,,,,,,,,,,,,,,,,883.6952,883.6952,883.696,884.5947,0,1,left,0.3783,,884.5956,885.2279,1,0,right,885.2289,885.8445,1,0,right,1,885.8445,885.8446,885.8455,887.3445,0,44,44,44,1,0.4,0.6,0.6,0.4,,,,,,,,,,,,,,,0.1096,,0.8,0.2,0.2,0.8,0.2,0.8,0.8,0.2,,,0.0776,,0.4,0.6,0.8,0.2,0.4,0.6,0.2,0.8,1,0
,,61232b43bd4b37c8d76a7b37,66fc98e64be4c7bfa7ae9960,2024-10-02_02h51.46.753,mdp,2024.2.1,Win32,60.24096386,66fa4ebf79326e780c390304,,,,,,,,,,,,,,,,,,,,,887.3448,887.3448,887.3456,887.9445,0,1,left,0.0685,,887.9455,888.8111,1,0,right,888.8124,889.661,1,0,right,1,889.6611,889.6611,889.6622,891.1611,0,45,45,45,1,0.4,0.6,0.6,0.4,,,,,,,,,,,,,,,0.3385,,0.8,0.2,0.2,0.8,0.2,0.8,0.8,0.2,,,0.3278,,0.4,0.6,0.8,0.2,0.4,0.6,0.2,0.8,1,0
,,61232b43bd4b37c8d76a7b37,66fc98e64be4c7bfa7ae9960,2024-10-02_02h51.46.753,mdp,2024.2.1,Win32,60.24096386,66fa4ebf79326e780c390304,,,,,,,,,,,,,,,,,,,,,891.1615,891.1615,891.1625,891.811,0,1,left,0.1179,,891.8118,892.8109,1,1,right,892.8119,893.5776,1,0,right,1,893.5776,893.5776,893.5786,895.0775,0,46,46,46,1,0.4,0.6,0.6,0.4,,,,,,,,,,,,,,,0.4674,,0.8,0.2,0.2,0.8,0.2,0.8,0.8,0.2,,,0.2328,,0.4,0.6,0.8,0.2,0.4,0.6,0.2,0.8,1,0
,,61232b43bd4b37c8d76a7b37,66fc98e64be4c7bfa7ae9960,2024-10-02_02h51.46.753,mdp,2024.2.1,Win32,60.24096386,66fa4ebf79326e780c390304,,,,,,,,,,,,,,,,,,,,,895.0778,895.0778,895.0789,895.9611,0,1,left,0.3616,,895.9621,896.6774,1,0,right,896.6784,897.3607,1,0,right,1,897.3608,897.3608,897.3619,898.8608,0,47,47,47,1,0.4,0.6,0.6,0.4,,,,,,,,,,,,,,,0.1933,,0.8,0.2,0.2,0.8,0.2,0.8,0.8,0.2,,,0.1687,,0.4,0.6,0.8,0.2,0.4,0.6,0.2,0.8,1,0
,,61232b43bd4b37c8d76a7b37,66fc98e64be4c7bfa7ae9960,2024-10-02_02h51.46.753,mdp,2024.2.1,Win32,60.24096386,66fa4ebf79326e780c390304,,,,,,,,,,,,,,,,,,,,,898.8611,898.8611,898.8623,899.5106,0,1,left,0.1249,,899.5117,900.2607,0,1,left,900.2616,901.0439,1,1,right,0,901.044,901.044,901.0451,902.544,0,48,48,48,1,0.4,0.6,0.6,0.4,,,,,,,,,,,,,,,0.2247,,0.8,0.2,0.2,0.8,0.2,0.8,0.8,0.2,,,0.2414,,0.4,0.6,0.8,0.2,0.8,0.2,0.6,0.4,1,0
,,61232b43bd4b37c8d76a7b37,66fc98e64be4c7bfa7ae9960,2024-10-02_02h51.46.753,mdp,2024.2.1,Win32,60.24096386,66fa4ebf79326e780c390304,,,,,,,,,,,,,,,,,,,,,902.5445,902.5445,902.5453,903.5439,0,0,left,0.4732,,903.5448,904.2439,1,0,right,904.2449,904.7938,0,1,left,0,904.7939,904.7939,904.7947,906.2938,0,49,49,49,1,0.4,0.6,0.6,0.4,,,,,,,,,,,,,,,0.1583,,0.8,0.2,0.2,0.8,0.2,0.8,0.8,0.2,,,0.02,,0.4,0.6,0.8,0.2,0.8,0.2,0.6,0.4,1,0
,,61232b43bd4b37c8d76a7b37,66fc98e64be4c7bfa7ae9960,2024-10-02_02h51.46.753,mdp,2024.2.1,Win32,60.24096386,66fa4ebf79326e780c390304,,,,,,,,,,,,,,,,,,,,,,,,,,,,,,,,,,,,,,,,,,,,,,,,,,,,,,,,906.2939,964.8082,0,2,2,0,1,imgs/goat.png,imgs/bear.png,imgs/pig.png,imgs/dog.png,imgs/cat.png,,,,,,,,,,,,,,,,,,,,,,,,
,,61232b43bd4b37c8d76a7b37,66fc98e64be4c7bfa7ae9960,2024-10-02_02h51.46.753,mdp,2024.2.1,Win32,60.24096386,66fa4ebf79326e780c390304,,,,,,,,,,,,,,3,seqs/st3seq13.csv,964.8181,965.9083,space,0.5668,,965.9148,965.9148,965.9296,967.4584,0,1,left,1.001,,967.46,968.5248,0,0,left,968.5262,969.8582,1,1,right,0,969.8582,969.8582,969.8593,971.358,0,0,0,0,1,0.2,0.8,0.2,0.8,,,,,,,,,,,,,,,0.5341,,0.8,0.2,0.8,0.2,0.6,0.4,0.2,0.8,,,0.7928,,0.2,0.8,0.2,0.8,0.8,0.2,0.6,0.4,1,0
,,61232b43bd4b37c8d76a7b37,66fc98e64be4c7bfa7ae9960,2024-10-02_02h51.46.753,mdp,2024.2.1,Win32,60.24096386,66fa4ebf79326e780c390304,,,,,,,,,,,,,,,,,,,,,971.3585,971.3586,971.3601,972.4913,0,1,left,0.6024,,972.4926,973.3246,0,0,left,973.3263,974.1415,0,0,left,1,974.1415,974.1417,974.1429,975.6412,0,1,1,1,1,0.2,0.8,0.2,0.8,,,,,,,,,,,,,,,0.3259,,0.8,0.2,0.8,0.2,0.6,0.4,0.2,0.8,,,0.2761,,0.2,0.8,0.2,0.8,0.8,0.2,0.6,0.4,1,0
,,61232b43bd4b37c8d76a7b37,66fc98e64be4c7bfa7ae9960,2024-10-02_02h51.46.753,mdp,2024.2.1,Win32,60.24096386,66fa4ebf79326e780c390304,,,,,,,,,,,,,,,,,,,,,975.6417,975.6417,975.6431,976.5246,0,1,left,0.3598,,976.5259,977.2077,0,1,left,977.2087,977.8245,0,1,left,0,977.8246,977.8246,977.8259,979.3243,0,2,2,2,1,0.2,0.8,0.2,0.8,,,,,,,,,,,,,,,0.1511,,0.8,0.2,0.8,0.2,0.6,0.4,0.2,0.8,,,0.0714,,0.2,0.8,0.2,0.8,0.8,0.2,0.6,0.4,1,0
,,61232b43bd4b37c8d76a7b37,66fc98e64be4c7bfa7ae9960,2024-10-02_02h51.46.753,mdp,2024.2.1,Win32,60.24096386,66fa4ebf79326e780c390304,,,,,,,,,,,,,,,,,,,,,979.3249,979.3249,979.3261,979.8911,0,1,left,0.0445,,979.8926,980.4911,0,1,left,980.4922,981.0578,0,0,left,1,981.0578,981.0578,981.0589,982.5576,0,3,3,3,1,0.2,0.8,0.2,0.8,,,,,,,,,,,,,,,0.0789,,0.8,0.2,0.8,0.2,0.6,0.4,0.2,0.8,,,0.0549,,0.4,0.6,0.6,0.4,0.8,0.2,0.6,0.4,1,0
,,61232b43bd4b37c8d76a7b37,66fc98e64be4c7bfa7ae9960,2024-10-02_02h51.46.753,mdp,2024.2.1,Win32,60.24096386,66fa4ebf79326e780c390304,,,,,,,,,,,,,,,,,,,,,982.5582,982.5582,982.5593,983.375,0,1,left,0.2913,,983.3759,983.9409,0,0,left,983.942,984.5245,0,0,left,1,984.5245,984.5245,984.5258,986.024,0,4,4,4,1,0.2,0.8,0.2,0.8,,,,,,,,,,,,,,,0.0559,,0.8,0.2,0.8,0.2,0.6,0.4,0.2,0.8,,,0.0415,,0.4,0.6,0.6,0.4,0.8,0.2,0.6,0.4,1,0
,,61232b43bd4b37c8d76a7b37,66fc98e64be4c7bfa7ae9960,2024-10-02_02h51.46.753,mdp,2024.2.1,Win32,60.24096386,66fa4ebf79326e780c390304,,,,,,,,,,,,,,,,,,,,,986.0245,986.0245,986.0257,986.6751,0,1,left,0.1278,,986.6764,987.6077,0,0,left,987.6088,988.2574,0,1,left,0,988.2575,988.2575,988.2583,989.7573,0,5,5,5,1,0.2,0.8,0.2,0.8,,,,,,,,,,,,,,,0.3924,,0.8,0.2,0.8,0.2,0.6,0.4,0.2,0.8,,,0.1197,,0.4,0.6,0.6,0.4,0.8,0.2,0.6,0.4,1,0
,,61232b43bd4b37c8d76a7b37,66fc98e64be4c7bfa7ae9960,2024-10-02_02h51.46.753,mdp,2024.2.1,Win32,60.24096386,66fa4ebf79326e780c390304,,,,,,,,,,,,,,,,,,,,,989.7578,989.7578,989.7592,990.6408,1,1,right,0.3516,,990.6419,991.2739,0,0,left,991.2747,991.8239,1,1,right,0,991.8239,991.8239,991.8249,993.3238,0,6,6,6,1,0.2,0.8,0.2,0.8,,,,,,,,,,,,,,,0.104,,0.8,0.2,0.8,0.2,0.6,0.4,0.2,0.8,,,0.025,,0.6,0.4,0.2,0.8,0.8,0.2,0.6,0.4,1,0
,,61232b43bd4b37c8d76a7b37,66fc98e64be4c7bfa7ae9960,2024-10-02_02h51.46.753,mdp,2024.2.1,Win32,60.24096386,66fa4ebf79326e780c390304,,,,,,,,,,,,,,,,,,,,,993.3242,993.3243,993.3278,993.8911,0,1,left,0.0378,,993.8923,994.7738,0,0,left,994.7748,995.357,1,1,right,0,995.3571,995.3571,995.3586,996.8568,0,7,7,7,1,0.2,0.8,0.2,0.8,,,,,,,,,,,,,,,0.3581,,0.8,0.2,0.8,0.2,0.6,0.4,0.2,0.8,,,0.051,,0.6,0.4,0.2,0.8,0.8,0.2,0.6,0.4,1,0
,,61232b43bd4b37c8d76a7b37,66fc98e64be4c7bfa7ae9960,2024-10-02_02h51.46.753,mdp,2024.2.1,Win32,60.24096386,66fa4ebf79326e780c390304,,,,,,,,,,,,,,,,,,,,,996.8574,996.8574,996.8588,997.8401,0,1,left,0.4552,,997.8414,998.3735,0,0,left,998.3748,999.1734,1,1,right,0,999.1735,999.1735,999.1749,1000.6736,0,8,8,8,1,0.2,0.8,0.2,0.8,,,,,,,,,,,,,,,0.0004,,0.8,0.2,0.8,0.2,0.6,0.4,0.2,0.8,,,0.2773,,0.6,0.4,0.2,0.8,0.8,0.2,0.6,0.4,1,0
,,61232b43bd4b37c8d76a7b37,66fc98e64be4c7bfa7ae9960,2024-10-02_02h51.46.753,mdp,2024.2.1,Win32,60.24096386,66fa4ebf79326e780c390304,,,,,,,,,,,,,,,,,,,,,1000.6742,1000.6742,1000.6753,1001.4074,0,1,left,0.197,,1001.4086,1002.2743,0,0,left,1002.2755,1002.9234,1,1,right,0,1002.9235,1002.9235,1002.9246,1004.4234,0,9,9,9,1,0.2,0.8,0.2,0.8,,,,,,,,,,,,,,,0.3621,,0.8,0.2,0.8,0.2,0.6,0.4,0.2,0.8,,,0.1274,,0.6,0.4,0.2,0.8,0.8,0.2,0.6,0.4,1,0
,,61232b43bd4b37c8d76a7b37,66fc98e64be4c7bfa7ae9960,2024-10-02_02h51.46.753,mdp,2024.2.1,Win32,60.24096386,66fa4ebf79326e780c390304,,,,,,,,,,,,,,,,,,,,,1004.4247,1004.4247,1004.4256,1005.4567,0,1,left,0.5033,,1005.4576,1006.0573,0,0,left,1006.0582,1006.6733,0,1,left,0,1006.6733,1006.6733,1006.6743,1008.1731,0,10,10,10,1,0.2,0.8,0.2,0.8,,,,,,,,,,,,,,,0.0677,,0.8,0.2,0.8,0.2,0.6,0.4,0.2,0.8,,,0.0879,,0.6,0.4,0.2,0.8,0.8,0.2,0.6,0.4,1,0
,,61232b43bd4b37c8d76a7b37,66fc98e64be4c7bfa7ae9960,2024-10-02_02h51.46.753,mdp,2024.2.1,Win32,60.24096386,66fa4ebf79326e780c390304,,,,,,,,,,,,,,,,,,,,,1008.1735,1008.1735,1008.1746,1008.8565,0,0,left,0.1446,,1008.8592,1009.7735,0,1,left,1009.775,1010.3737,0,1,left,0,1010.3738,1010.3738,1010.3749,1011.873,0,11,11,11,1,0.2,0.8,0.2,0.8,,,,,,,,,,,,,,,0.3844,,0.8,0.2,0.8,0.2,0.6,0.4,0.2,0.8,,,0.0674,,0.6,0.4,0.2,0.8,0.8,0.2,0.6,0.4,1,0
,,61232b43bd4b37c8d76a7b37,66fc98e64be4c7bfa7ae9960,2024-10-02_02h51.46.753,mdp,2024.2.1,Win32,60.24096386,66fa4ebf79326e780c390304,,,,,,,,,,,,,,,,,,,,,1011.8735,1011.8735,1011.8746,1012.8399,1,1,right,0.4339,,1012.841,1013.4066,0,1,left,1013.4078,1014.3401,1,0,right,1,1014.3402,1014.3402,1014.3416,1015.8399,0,12,12,12,1,0.2,0.8,0.2,0.8,,,,,,,,,,,,,,,0.0299,,0.8,0.2,0.8,0.2,0.6,0.4,0.2,0.8,,,0.4115,,0.6,0.4,0.2,0.8,0.8,0.2,0.6,0.4,1,0
,,61232b43bd4b37c8d76a7b37,66fc98e64be4c7bfa7ae9960,2024-10-02_02h51.46.753,mdp,2024.2.1,Win32,60.24096386,66fa4ebf79326e780c390304,,,,,,,,,,,,,,,,,,,,,1015.8405,1015.8405,1015.8415,1016.4394,0,1,left,0.0672,,1016.4409,1017.4229,1,1,right,1017.4238,1018.2727,0,0,left,1,1018.2728,1018.2728,1018.2738,1019.7727,0,13,13,13,1,0.2,0.8,0.2,0.8,,,,,,,,,,,,,,,0.4553,,0.8,0.2,0.8,0.2,0.6,0.4,0.2,0.8,,,0.3186,,0.6,0.4,0.2,0.8,0.8,0.2,0.6,0.4,1,0
,,61232b43bd4b37c8d76a7b37,66fc98e64be4c7bfa7ae9960,2024-10-02_02h51.46.753,mdp,2024.2.1,Win32,60.24096386,66fa4ebf79326e780c390304,,,,,,,,,,,,,,,,,,,,,1019.773,1019.7731,1019.7741,1020.3229,1,1,right,0.0212,,1020.3242,1021.0732,1,1,right,1021.0742,1021.8061,0,0,left,1,1021.8061,1021.8061,1021.8072,1023.306,0,14,14,14,1,0.2,0.8,0.2,0.8,,,,,,,,,,,,,,,0.2052,,0.4,0.6,0.4,0.6,0.6,0.4,0.2,0.8,,,0.2091,,0.6,0.4,0.2,0.8,0.8,0.2,0.6,0.4,1,0
,,61232b43bd4b37c8d76a7b37,66fc98e64be4c7bfa7ae9960,2024-10-02_02h51.46.753,mdp,2024.2.1,Win32,60.24096386,66fa4ebf79326e780c390304,,,,,,,,,,,,,,,,,,,,,1023.3067,1023.3067,1023.3076,1024.3727,1,1,right,0.5423,,1024.3741,1025.1058,1,1,right,1025.1072,1025.9058,0,0,left,1,1025.9059,1025.9059,1025.9071,1027.4061,0,15,15,15,1,0.2,0.8,0.2,0.8,,,,,,,,,,,,,,,0.2046,,0.4,0.6,0.4,0.6,0.6,0.4,0.2,0.8,,,0.2688,,0.6,0.4,0.2,0.8,0.8,0.2,0.6,0.4,1,0
,,61232b43bd4b37c8d76a7b37,66fc98e64be4c7bfa7ae9960,2024-10-02_02h51.46.753,mdp,2024.2.1,Win32,60.24096386,66fa4ebf79326e780c390304,,,,,,,,,,,,,,,,,,,,,1027.4067,1027.4068,1027.4079,1028.2728,1,1,right,0.339,,1028.2738,1028.9725,1,0,right,1028.9745,1029.7061,0,0,left,1,1029.7061,1029.7061,1029.7073,1031.2055,0,16,16,16,1,0.2,0.8,0.2,0.8,,,,,,,,,,,,,,,0.167,,0.4,0.6,0.4,0.6,0.6,0.4,0.2,0.8,,,0.2006,,0.6,0.4,0.2,0.8,0.8,0.2,0.6,0.4,1,0
,,61232b43bd4b37c8d76a7b37,66fc98e64be4c7bfa7ae9960,2024-10-02_02h51.46.753,mdp,2024.2.1,Win32,60.24096386,66fa4ebf79326e780c390304,,,,,,,,,,,,,,,,,,,,,1031.206,1031.206,1031.2072,1032.2893,1,1,right,0.544,,1032.2905,1033.0225,1,1,right,1033.0236,1033.8223,0,0,left,1,1033.8224,1033.8224,1033.8234,1035.3222,0,17,17,17,1,0.2,0.8,0.2,0.8,,,,,,,,,,,,,,,0.2008,,0.4,0.6,0.4,0.6,0.6,0.4,0.2,0.8,,,0.2588,,0.6,0.4,0.2,0.8,0.8,0.2,0.6,0.4,1,0
,,61232b43bd4b37c8d76a7b37,66fc98e64be4c7bfa7ae9960,2024-10-02_02h51.46.753,mdp,2024.2.1,Win32,60.24096386,66fa4ebf79326e780c390304,,,,,,,,,,,,,,,,,,,,,1035.3227,1035.3227,1035.3238,1036.1556,1,1,right,0.3101,,1036.1569,1036.9553,1,1,right,1036.9564,1037.7726,0,0,left,1,1037.7728,1037.7728,1037.7738,1039.2719,0,18,18,18,1,0.2,0.8,0.2,0.8,,,,,,,,,,,,,,,0.2638,,0.4,0.6,0.4,0.6,0.6,0.4,0.2,0.8,,,0.2853,,0.6,0.4,0.2,0.8,0.8,0.2,0.6,0.4,1,0
,,61232b43bd4b37c8d76a7b37,66fc98e64be4c7bfa7ae9960,2024-10-02_02h51.46.753,mdp,2024.2.1,Win32,60.24096386,66fa4ebf79326e780c390304,,,,,,,,,,,,,,,,,,,,,1039.2724,1039.2724,1039.2734,1039.8219,1,1,right,0.0171,,1039.8228,1040.4224,1,1,right,1040.4235,1041.7218,1,0,right,1,1041.7219,1041.7219,1041.7229,1043.2222,0,19,19,19,1,0.2,0.8,0.2,0.8,,,,,,,,,,,,,,,0.0749,,0.4,0.6,0.4,0.6,0.6,0.4,0.2,0.8,,,0.7669,,0.4,0.6,0.8,0.2,0.8,0.2,0.6,0.4,1,0
,,61232b43bd4b37c8d76a7b37,66fc98e64be4c7bfa7ae9960,2024-10-02_02h51.46.753,mdp,2024.2.1,Win32,60.24096386,66fa4ebf79326e780c390304,,,,,,,,,,,,,,,,,,,,,1043.2226,1043.2226,1043.2234,1044.105,1,0,right,0.3482,,1044.106,1044.7717,1,0,right,1044.7727,1045.4072,1,1,right,0,1045.4073,1045.4073,1045.408,1046.9049,0,20,20,20,1,0.2,0.8,0.2,0.8,,,,,,,,,,,,,,,0.1518,,0.4,0.6,0.4,0.6,0.6,0.4,0.2,0.8,,,0.1076,,0.4,0.6,0.8,0.2,0.8,0.2,0.6,0.4,1,0
,,61232b43bd4b37c8d76a7b37,66fc98e64be4c7bfa7ae9960,2024-10-02_02h51.46.753,mdp,2024.2.1,Win32,60.24096386,66fa4ebf79326e780c390304,,,,,,,,,,,,,,,,,,,,,1046.9053,1046.9053,1046.9066,1047.705,1,1,right,0.2801,,1047.706,1048.3884,1,0,right,1048.3897,1049.2882,0,1,left,0,1049.2883,1049.2883,1049.2898,1050.7882,0,21,21,21,1,0.2,0.8,0.2,0.8,,,,,,,,,,,,,,,0.1481,,0.4,0.6,0.4,0.6,0.6,0.4,0.2,0.8,,,0.3805,,0.4,0.6,0.8,0.2,0.8,0.2,0.6,0.4,1,0
,,61232b43bd4b37c8d76a7b37,66fc98e64be4c7bfa7ae9960,2024-10-02_02h51.46.753,mdp,2024.2.1,Win32,60.24096386,66fa4ebf79326e780c390304,,,,,,,,,,,,,,,,,,,,,1050.7888,1050.7888,1050.7898,1051.9048,0,1,left,0.5852,,1051.9065,1052.5547,0,0,left,1052.556,1053.4053,1,0,right,1,1053.4053,1053.4053,1053.4064,1054.9048,0,22,22,22,1,0.2,0.8,0.2,0.8,,,,,,,,,,,,,,,0.128,,0.4,0.6,0.4,0.6,0.6,0.4,0.2,0.8,,,0.3199,,0.4,0.6,0.8,0.2,0.8,0.2,0.6,0.4,1,0
,,61232b43bd4b37c8d76a7b37,66fc98e64be4c7bfa7ae9960,2024-10-02_02h51.46.753,mdp,2024.2.1,Win32,60.24096386,66fa4ebf79326e780c390304,,,,,,,,,,,,,,,,,,,,,1054.9056,1054.9056,1054.9067,1055.8546,0,1,left,0.4257,,1055.8558,1056.5213,0,0,left,1056.5223,1057.1046,1,0,right,1,1057.1046,1057.1046,1057.1055,1058.6044,0,23,23,23,1,0.2,0.8,0.2,0.8,,,,,,,,,,,,,,,0.1385,,0.4,0.6,0.4,0.6,0.6,0.4,0.2,0.8,,,0.0481,,0.2,0.8,0.4,0.6,0.8,0.2,0.6,0.4,1,0
,,61232b43bd4b37c8d76a7b37,66fc98e64be4c7bfa7ae9960,2024-10-02_02h51.46.753,mdp,2024.2.1,Win32,60.24096386,66fa4ebf79326e780c390304,,,,,,,,,,,,,,,,,,,,,1058.6049,1058.605,1058.6061,1059.1879,0,1,left,0.0524,,1059.1893,1059.8217,0,0,left,1059.8233,1060.8377,1,1,right,0,1060.8378,1060.8378,1060.839,1062.3377,0,24,24,24,1,0.2,0.8,0.2,0.8,,,,,,,,,,,,,,,0.1001,,0.4,0.6,0.4,0.6,0.6,0.4,0.2,0.8,,,0.4957,,0.4,0.6,0.6,0.4,0.8,0.2,0.6,0.4,1,0
,,61232b43bd4b37c8d76a7b37,66fc98e64be4c7bfa7ae9960,2024-10-02_02h51.46.753,mdp,2024.2.1,Win32,60.24096386,66fa4ebf79326e780c390304,,,,,,,,,,,,,,,,,,,,,1062.338,1062.338,1062.339,1063.3044,0,1,left,0.4304,,1063.3057,1063.821,0,0,left,1063.8221,1064.3876,0,0,left,1,1064.3876,1064.3876,1064.3888,1065.8875,0,25,25,25,1,0.2,0.8,0.2,0.8,,,,,,,,,,,,,,,0.0065,,0.4,0.6,0.4,0.6,0.6,0.4,0.2,0.8,,,0.0355,,0.4,0.6,0.6,0.4,0.8,0.2,0.6,0.4,1,0
,,61232b43bd4b37c8d76a7b37,66fc98e64be4c7bfa7ae9960,2024-10-02_02h51.46.753,mdp,2024.2.1,Win32,60.24096386,66fa4ebf79326e780c390304,,,,,,,,,,,,,,,,,,,,,1065.888,1065.8881,1065.8892,1066.7381,0,0,left,0.3344,,1066.7394,1067.4874,0,1,left,1067.4884,1068.3711,0,0,left,1,1068.3712,1068.3712,1068.3725,1069.8706,0,26,26,26,1,0.2,0.8,0.2,0.8,,,,,,,,,,,,,,,0.2197,,0.4,0.6,0.4,0.6,0.6,0.4,0.2,0.8,,,0.3408,,0.4,0.6,0.6,0.4,0.8,0.2,0.6,0.4,1,0
,,61232b43bd4b37c8d76a7b37,66fc98e64be4c7bfa7ae9960,2024-10-02_02h51.46.753,mdp,2024.2.1,Win32,60.24096386,66fa4ebf79326e780c390304,,,,,,,,,,,,,,,,,,,,,1069.8712,1069.8712,1069.8719,1073.0706,0,1,left,2.6659,,1073.0801,1074.7041,0,0,left,1074.7059,1075.3543,0,0,left,1,1075.3544,1075.3544,1075.3554,1076.8536,0,27,27,27,1,0.2,0.8,0.2,0.8,,,,,,,,,,,,,,,1.1101,,0.4,0.6,0.4,0.6,0.6,0.4,0.2,0.8,,,0.1094,,0.4,0.6,0.6,0.4,0.8,0.2,0.6,0.4,1,0
,,61232b43bd4b37c8d76a7b37,66fc98e64be4c7bfa7ae9960,2024-10-02_02h51.46.753,mdp,2024.2.1,Win32,60.24096386,66fa4ebf79326e780c390304,,,,,,,,,,,,,,,,,,,,,1076.8543,1076.8543,1076.8552,1078.8376,0,1,left,1.4512,,1078.8384,1079.687,0,0,left,1079.6882,1080.2536,0,1,left,0,1080.2537,1080.2537,1080.2549,1081.7534,0,28,28,28,1,0.2,0.8,0.2,0.8,,,,,,,,,,,,,,,0.3118,,0.4,0.6,0.4,0.6,0.6,0.4,0.2,0.8,,,0.0269,,0.4,0.6,0.6,0.4,0.8,0.2,0.6,0.4,1,0
,,61232b43bd4b37c8d76a7b37,66fc98e64be4c7bfa7ae9960,2024-10-02_02h51.46.753,mdp,2024.2.1,Win32,60.24096386,66fa4ebf79326e780c390304,,,,,,,,,,,,,,,,,,,,,1081.754,1081.754,1081.755,1082.5702,0,1,left,0.2918,,1082.5713,1083.1202,1,1,right,1083.1212,1083.9536,1,0,right,1,1083.9537,1083.9537,1083.9553,1085.4533,0,29,29,29,1,0.2,0.8,0.2,0.8,,,,,,,,,,,,,,,0.0237,,0.4,0.6,0.4,0.6,0.6,0.4,0.2,0.8,,,0.2924,,0.4,0.6,0.6,0.4,0.8,0.2,0.6,0.4,1,0
,,61232b43bd4b37c8d76a7b37,66fc98e64be4c7bfa7ae9960,2024-10-02_02h51.46.753,mdp,2024.2.1,Win32,60.24096386,66fa4ebf79326e780c390304,,,,,,,,,,,,,,,,,,,,,1085.454,1085.454,1085.455,1086.8535,0,1,left,0.8729,,1086.8548,1087.6366,1,1,right,1087.6379,1088.32,1,0,right,1,1088.3201,1088.3201,1088.3209,1089.8198,0,30,30,30,1,0.2,0.8,0.2,0.8,,,,,,,,,,,,,,,0.2499,,0.4,0.6,0.4,0.6,0.6,0.4,0.2,0.8,,,0.155,,0.8,0.2,0.4,0.6,0.8,0.2,0.6,0.4,1,0
,,61232b43bd4b37c8d76a7b37,66fc98e64be4c7bfa7ae9960,2024-10-02_02h51.46.753,mdp,2024.2.1,Win32,60.24096386,66fa4ebf79326e780c390304,,,,,,,,,,,,,,,,,,,,,1089.8203,1089.8203,1089.8212,1090.7366,0,1,left,0.394,,1090.7378,1091.4198,1,1,right,1091.421,1092.1707,1,0,right,1,1092.1708,1092.1709,1092.1716,1093.6698,0,31,31,31,1,0.2,0.8,0.2,0.8,,,,,,,,,,,,,,,0.1595,,0.4,0.6,0.4,0.6,0.6,0.4,0.2,0.8,,,0.2202,,0.8,0.2,0.4,0.6,0.8,0.2,0.6,0.4,1,0
,,61232b43bd4b37c8d76a7b37,66fc98e64be4c7bfa7ae9960,2024-10-02_02h51.46.753,mdp,2024.2.1,Win32,60.24096386,66fa4ebf79326e780c390304,,,,,,,,,,,,,,,,,,,,,1093.6706,1093.6706,1093.6716,1094.3864,0,1,left,0.1892,,1094.3876,1095.0367,1,0,right,1095.0379,1095.6196,1,0,right,1,1095.6198,1095.6198,1095.6211,1097.1196,0,32,32,32,1,0.2,0.8,0.2,0.8,,,,,,,,,,,,,,,0.1164,,0.4,0.6,0.4,0.6,0.2,0.8,0.8,0.2,,,0.0525,,0.8,0.2,0.4,0.6,0.8,0.2,0.6,0.4,1,0
,,61232b43bd4b37c8d76a7b37,66fc98e64be4c7bfa7ae9960,2024-10-02_02h51.46.753,mdp,2024.2.1,Win32,60.24096386,66fa4ebf79326e780c390304,,,,,,,,,,,,,,,,,,,,,1097.1205,1097.1205,1097.1215,1097.8029,0,0,left,0.1574,,1097.8042,1098.5362,1,0,right,1098.5371,1099.1195,1,0,right,1,1099.1198,1099.1198,1099.1209,1100.6194,0,33,33,33,1,0.2,0.8,0.2,0.8,,,,,,,,,,,,,,,0.2263,,0.4,0.6,0.4,0.6,0.2,0.8,0.8,0.2,,,0.0551,,0.8,0.2,0.4,0.6,0.8,0.2,0.6,0.4,1,0
,,61232b43bd4b37c8d76a7b37,66fc98e64be4c7bfa7ae9960,2024-10-02_02h51.46.753,mdp,2024.2.1,Win32,60.24096386,66fa4ebf79326e780c390304,,,,,,,,,,,,,,,,,,,,,1100.62,1100.62,1100.6211,1101.2363,0,0,left,0.0929,,1101.2372,1101.9539,0,0,left,1101.9554,1102.6542,1,0,right,1,1102.6542,1102.6542,1102.655,1104.1528,0,34,34,34,1,0.2,0.8,0.2,0.8,,,,,,,,,,,,,,,0.195,,0.4,0.6,0.4,0.6,0.2,0.8,0.8,0.2,,,0.1574,,0.6,0.4,0.8,0.2,0.8,0.2,0.6,0.4,1,0
,,61232b43bd4b37c8d76a7b37,66fc98e64be4c7bfa7ae9960,2024-10-02_02h51.46.753,mdp,2024.2.1,Win32,60.24096386,66fa4ebf79326e780c390304,,,,,,,,,,,,,,,,,,,,,1104.1532,1104.1532,1104.1547,1105.036,0,0,left,0.3486,,1105.0375,1105.7527,0,1,left,1105.7538,1106.7035,1,0,right,1,1106.7036,1106.7036,1106.7047,1108.2043,0,35,35,35,1,0.2,0.8,0.2,0.8,,,,,,,,,,,,,,,0.19,,0.4,0.6,0.4,0.6,0.2,0.8,0.8,0.2,,,0.4196,,0.6,0.4,0.8,0.2,0.8,0.2,0.6,0.4,1,0
,,61232b43bd4b37c8d76a7b37,66fc98e64be4c7bfa7ae9960,2024-10-02_02h51.46.753,mdp,2024.2.1,Win32,60.24096386,66fa4ebf79326e780c390304,,,,,,,,,,,,,,,,,,,,,1108.2049,1108.2049,1108.2061,1109.2192,0,0,left,0.4873,,1109.2205,1110.0359,0,1,left,1110.0368,1110.7358,1,1,right,0,1110.7358,1110.7358,1110.7369,1112.2356,0,36,36,36,1,0.2,0.8,0.2,0.8,,,,,,,,,,,,,,,0.2747,,0.4,0.6,0.4,0.6,0.2,0.8,0.8,0.2,,,0.182,,0.6,0.4,0.8,0.2,0.8,0.2,0.6,0.4,1,0
,,61232b43bd4b37c8d76a7b37,66fc98e64be4c7bfa7ae9960,2024-10-02_02h51.46.753,mdp,2024.2.1,Win32,60.24096386,66fa4ebf79326e780c390304,,,,,,,,,,,,,,,,,,,,,1112.2362,1112.2362,1112.237,1113.3693,1,1,right,0.6068,,1113.3703,1114.1023,0,1,left,1114.1033,1114.6689,0,0,left,1,1114.6689,1114.6689,1114.67,1116.1688,0,37,37,37,1,0.2,0.8,0.2,0.8,,,,,,,,,,,,,,,0.1934,,0.4,0.6,0.4,0.6,0.2,0.8,0.8,0.2,,,0.034,,0.6,0.4,0.8,0.2,0.8,0.2,0.6,0.4,1,0
,,61232b43bd4b37c8d76a7b37,66fc98e64be4c7bfa7ae9960,2024-10-02_02h51.46.753,mdp,2024.2.1,Win32,60.24096386,66fa4ebf79326e780c390304,,,,,,,,,,,,,,,,,,,,,1116.1692,1116.1692,1116.1704,1116.9357,1,0,right,0.2408,,1116.9366,1117.6693,0,1,left,1117.6702,1118.4693,0,0,left,1,1118.4693,1118.4693,1118.4704,1119.9687,0,38,38,38,1,0.2,0.8,0.2,0.8,,,,,,,,,,,,,,,0.2091,,0.4,0.6,0.4,0.6,0.2,0.8,0.8,0.2,,,0.2728,,0.6,0.4,0.8,0.2,0.8,0.2,0.6,0.4,1,0
,,61232b43bd4b37c8d76a7b37,66fc98e64be4c7bfa7ae9960,2024-10-02_02h51.46.753,mdp,2024.2.1,Win32,60.24096386,66fa4ebf79326e780c390304,,,,,,,,,,,,,,,,,,,,,1119.9693,1119.9693,1119.9711,1121.0022,1,1,right,0.5031,,1121.0037,1121.8853,0,1,left,1121.8864,1122.6692,0,0,left,1,1122.6694,1122.6694,1122.6706,1124.1685,0,39,39,39,1,0.2,0.8,0.2,0.8,,,,,,,,,,,,,,,0.3469,,0.6,0.4,0.2,0.8,0.2,0.8,0.8,0.2,,,0.2441,,0.6,0.4,0.8,0.2,0.8,0.2,0.6,0.4,1,0
,,61232b43bd4b37c8d76a7b37,66fc98e64be4c7bfa7ae9960,2024-10-02_02h51.46.753,mdp,2024.2.1,Win32,60.24096386,66fa4ebf79326e780c390304,,,,,,,,,,,,,,,,,,,,,1124.1691,1124.1691,1124.1707,1124.9857,1,0,right,0.2954,,1124.9884,1125.802,0,0,left,1125.8032,1126.5519,0,0,left,1,1126.552,1126.552,1126.5535,1128.0519,0,40,40,40,1,0.2,0.8,0.2,0.8,,,,,,,,,,,,,,,0.2864,,0.6,0.4,0.2,0.8,0.2,0.8,0.8,0.2,,,0.2109,,0.6,0.4,0.8,0.2,0.8,0.2,0.6,0.4,1,0
,,61232b43bd4b37c8d76a7b37,66fc98e64be4c7bfa7ae9960,2024-10-02_02h51.46.753,mdp,2024.2.1,Win32,60.24096386,66fa4ebf79326e780c390304,,,,,,,,,,,,,,,,,,,,,1128.0529,1128.0529,1128.0542,1128.8684,1,1,right,0.2912,,1128.8694,1129.6018,0,1,left,1129.6029,1130.385,0,0,left,1,1130.3851,1130.3851,1130.3859,1131.8849,0,41,41,41,1,0.2,0.8,0.2,0.8,,,,,,,,,,,,,,,0.2,,0.6,0.4,0.2,0.8,0.2,0.8,0.8,0.2,,,0.2516,,0.6,0.4,0.8,0.2,0.8,0.2,0.6,0.4,1,0
,,61232b43bd4b37c8d76a7b37,66fc98e64be4c7bfa7ae9960,2024-10-02_02h51.46.753,mdp,2024.2.1,Win32,60.24096386,66fa4ebf79326e780c390304,,,,,,,,,,,,,,,,,,,,,1131.8852,1131.8853,1131.8865,1132.7018,1,1,right,0.2799,,1132.703,1133.3518,0,1,left,1133.353,1133.9683,0,0,left,1,1133.9683,1133.9683,1133.9699,1135.4682,0,42,42,42,1,0.2,0.8,0.2,0.8,,,,,,,,,,,,,,,0.14,,0.6,0.4,0.2,0.8,0.2,0.8,0.8,0.2,,,0.0878,,0.6,0.4,0.8,0.2,0.8,0.2,0.6,0.4,1,0
,,61232b43bd4b37c8d76a7b37,66fc98e64be4c7bfa7ae9960,2024-10-02_02h51.46.753,mdp,2024.2.1,Win32,60.24096386,66fa4ebf79326e780c390304,,,,,,,,,,,,,,,,,,,,,1135.4687,1135.4687,1135.4695,1136.118,1,1,right,0.1225,,1136.1191,1136.8346,0,1,left,1136.8359,1137.4519,0,0,left,1,1137.4521,1137.4521,1137.4529,1138.952,0,43,43,43,1,0.2,0.8,0.2,0.8,,,,,,,,,,,,,,,0.2065,,0.6,0.4,0.2,0.8,0.2,0.8,0.8,0.2,,,0.0852,,0.6,0.4,0.8,0.2,0.8,0.2,0.6,0.4,1,0
,,61232b43bd4b37c8d76a7b37,66fc98e64be4c7bfa7ae9960,2024-10-02_02h51.46.753,mdp,2024.2.1,Win32,60.24096386,66fa4ebf79326e780c390304,,,,,,,,,,,,,,,,,,,,,1138.9524,1138.9525,1138.9534,1139.5846,1,0,right,0.1124,,1139.5858,1140.2681,0,1,left,1140.2691,1140.9846,0,0,left,1,1140.9847,1140.9847,1140.986,1142.4846,0,44,44,44,1,0.2,0.8,0.2,0.8,,,,,,,,,,,,,,,0.156,,0.6,0.4,0.2,0.8,0.2,0.8,0.8,0.2,,,0.1958,,0.6,0.4,0.8,0.2,0.8,0.2,0.6,0.4,1,0
,,61232b43bd4b37c8d76a7b37,66fc98e64be4c7bfa7ae9960,2024-10-02_02h51.46.753,mdp,2024.2.1,Win32,60.24096386,66fa4ebf79326e780c390304,,,,,,,,,,,,,,,,,,,,,1142.4856,1142.4856,1142.4865,1143.3686,1,1,right,0.3602,,1143.3704,1143.9345,0,1,left,1143.9361,1144.5511,0,0,left,1,1144.5511,1144.5511,1144.5527,1146.0509,0,45,45,45,1,0.2,0.8,0.2,0.8,,,,,,,,,,,,,,,0.0273,,0.6,0.4,0.2,0.8,0.2,0.8,0.8,0.2,,,0.0918,,0.6,0.4,0.8,0.2,0.8,0.2,0.6,0.4,1,0
,,61232b43bd4b37c8d76a7b37,66fc98e64be4c7bfa7ae9960,2024-10-02_02h51.46.753,mdp,2024.2.1,Win32,60.24096386,66fa4ebf79326e780c390304,,,,,,,,,,,,,,,,,,,,,1146.0515,1146.0515,1146.0526,1147.0176,1,1,right,0.4315,,1147.0187,1147.6509,0,1,left,1147.6518,1148.3684,0,1,left,0,1148.3685,1148.3685,1148.3694,1149.8675,0,46,46,46,1,0.2,0.8,0.2,0.8,,,,,,,,,,,,,,,0.1002,,0.6,0.4,0.2,0.8,0.2,0.8,0.8,0.2,,,0.1809,,0.6,0.4,0.8,0.2,0.8,0.2,0.6,0.4,1,0
,,61232b43bd4b37c8d76a7b37,66fc98e64be4c7bfa7ae9960,2024-10-02_02h51.46.753,mdp,2024.2.1,Win32,60.24096386,66fa4ebf79326e780c390304,,,,,,,,,,,,,,,,,,,,,1149.8681,1149.8681,1149.869,1150.718,1,0,right,0.3248,,1150.7188,1151.4342,1,1,right,1151.4353,1152.2006,1,0,right,1,1152.2007,1152.2007,1152.2016,1153.7006,0,47,47,47,1,0.2,0.8,0.2,0.8,,,,,,,,,,,,,,,0.1911,,0.6,0.4,0.2,0.8,0.2,0.8,0.8,0.2,,,0.2456,,0.6,0.4,0.8,0.2,0.8,0.2,0.6,0.4,1,0
,,61232b43bd4b37c8d76a7b37,66fc98e64be4c7bfa7ae9960,2024-10-02_02h51.46.753,mdp,2024.2.1,Win32,60.24096386,66fa4ebf79326e780c390304,,,,,,,,,,,,,,,,,,,,,1153.7013,1153.7013,1153.702,1154.634,1,1,right,0.4119,,1154.6351,1155.3007,1,0,right,1155.3019,1155.8341,1,1,right,0,1155.8341,1155.8341,1155.8352,1157.3337,0,48,48,48,1,0.2,0.8,0.2,0.8,,,,,,,,,,,,,,,0.1221,,0.6,0.4,0.2,0.8,0.2,0.8,0.8,0.2,,,0.0031,,0.6,0.4,0.8,0.2,0.2,0.8,0.8,0.2,1,0
,,61232b43bd4b37c8d76a7b37,66fc98e64be4c7bfa7ae9960,2024-10-02_02h51.46.753,mdp,2024.2.1,Win32,60.24096386,66fa4ebf79326e780c390304,,,,,,,,,,,,,,,,,,,,,1157.3342,1157.3342,1157.3354,1157.9672,1,1,right,0.1061,,1157.9691,1158.9338,0,1,left,1158.9352,1159.5338,0,0,left,1,1159.5342,1159.5343,1159.5358,1161.0336,0,49,49,49,1,0.2,0.8,0.2,0.8,,,,,,,,,,,,,,,0.4281,,0.6,0.4,0.2,0.8,0.2,0.8,0.8,0.2,,,0.0551,,0.6,0.4,0.8,0.2,0.2,0.8,0.8,0.2,1,0
,,61232b43bd4b37c8d76a7b37,66fc98e64be4c7bfa7ae9960,2024-10-02_02h51.46.753,mdp,2024.2.1,Win32,60.24096386,66fa4ebf79326e780c390304,,,,,,,,,,,,,,,,,,,,,,,,,,,,,,,,,,,,,,,,,,,,,,,,,,,,,,,,1161.0338,1219.5481,0,3,3,7,1,imgs/kangaroo.png,imgs/lion.png,imgs/horse.png,imgs/rabbit.png,imgs/bear.png,,,,,,,,,,,,,,,,,,,,,,,,
,,61232b43bd4b37c8d76a7b37,66fc98e64be4c7bfa7ae9960,2024-10-02_02h51.46.753,mdp,2024.2.1,Win32,60.24096386,66fa4ebf79326e780c390304,,,,,,,,,,,,,,1,seqs/st1seq21.csv,1219.5591,1224.2646,space,4.1879,,1224.277,1224.2771,1224.2777,1228.5978,1,0,right,3.801,,1228.6076,1228.6083,0,0,,1228.6088,1228.6092,0,0,,1,1228.6092,1228.6092,1228.6096,1230.0977,0,0,0,0,1,0.8,0.2,0.4,0.6,1,0,,,,,,,,,,,,,,,,,,,,,,,,,,,,,,,,,,,,
,,61232b43bd4b37c8d76a7b37,66fc98e64be4c7bfa7ae9960,2024-10-02_02h51.46.753,mdp,2024.2.1,Win32,60.24096386,66fa4ebf79326e780c390304,,,,,,,,,,,,,,,,,,,,,1230.0982,1230.0982,1230.0989,1231.0142,1,0,right,0.3871,,1231.0155,1231.0165,0,0,,1231.0172,1231.0176,0,1,,1,1231.0177,1231.0178,1231.0183,1232.5143,0,1,1,1,1,0.8,0.2,0.4,0.6,1,0,,,,,,,,,,,,,,,,,,,,,,,,,,,,,,,,,,,,
,,61232b43bd4b37c8d76a7b37,66fc98e64be4c7bfa7ae9960,2024-10-02_02h51.46.753,mdp,2024.2.1,Win32,60.24096386,66fa4ebf79326e780c390304,,,,,,,,,,,,,,,,,,,,,1232.5147,1232.5147,1232.5156,1233.5477,1,1,right,0.5071,,1233.5491,1233.5497,0,1,,1233.5505,1233.5509,0,0,,0,1233.5509,1233.551,1233.5514,1235.0476,0,2,2,2,1,0.8,0.2,0.4,0.6,1,0,,,,,,,,,,,,,,,,,,,,,,,,,,,,,,,,,,,,
,,61232b43bd4b37c8d76a7b37,66fc98e64be4c7bfa7ae9960,2024-10-02_02h51.46.753,mdp,2024.2.1,Win32,60.24096386,66fa4ebf79326e780c390304,,,,,,,,,,,,,,,,,,,,,1235.048,1235.048,1235.0492,1235.6308,0,0,left,0.0547,,1235.6322,1235.6326,0,0,,1235.6334,1235.6339,0,1,,1,1235.6339,1235.6339,1235.6345,1237.1308,0,3,3,3,1,0.6,0.4,0.2,0.8,1,0,,,,,,,,,,,,,,,,,,,,,,,,,,,,,,,,,,,,
,,61232b43bd4b37c8d76a7b37,66fc98e64be4c7bfa7ae9960,2024-10-02_02h51.46.753,mdp,2024.2.1,Win32,60.24096386,66fa4ebf79326e780c390304,,,,,,,,,,,,,,,,,,,,,1237.1313,1237.1313,1237.1325,1238.3309,1,1,right,0.6662,,1238.3324,1238.3331,0,1,,1238.3338,1238.3343,0,1,,0,1238.3343,1238.3343,1238.3347,1239.8305,0,4,4,4,1,0.6,0.4,0.2,0.8,1,0,,,,,,,,,,,,,,,,,,,,,,,,,,,,,,,,,,,,
,,61232b43bd4b37c8d76a7b37,66fc98e64be4c7bfa7ae9960,2024-10-02_02h51.46.753,mdp,2024.2.1,Win32,60.24096386,66fa4ebf79326e780c390304,,,,,,,,,,,,,,,,,,,,,1239.831,1239.831,1239.8331,1242.8472,1,1,right,2.4889,,1242.8483,1242.8489,0,0,,1242.8496,1242.8502,0,1,,0,1242.8502,1242.8502,1242.8507,1244.3471,0,5,5,5,1,0.6,0.4,0.2,0.8,1,0,,,,,,,,,,,,,,,,,,,,,,,,,,,,,,,,,,,,
,,61232b43bd4b37c8d76a7b37,66fc98e64be4c7bfa7ae9960,2024-10-02_02h51.46.753,mdp,2024.2.1,Win32,60.24096386,66fa4ebf79326e780c390304,,,,,,,,,,,,,,,,,,,,,1244.3475,1244.3475,1244.3486,1246.1811,1,1,right,1.3086,,1246.1818,1246.1824,0,1,,1246.1829,1246.1833,0,1,,0,1246.1833,1246.1833,1246.1838,1247.6805,0,6,6,6,1,0.6,0.4,0.2,0.8,1,0,,,,,,,,,,,,,,,,,,,,,,,,,,,,,,,,,,,,
,,61232b43bd4b37c8d76a7b37,66fc98e64be4c7bfa7ae9960,2024-10-02_02h51.46.753,mdp,2024.2.1,Win32,60.24096386,66fa4ebf79326e780c390304,,,,,,,,,,,,,,,,,,,,,1247.6812,1247.6813,1247.6823,1250.6305,0,0,left,2.4101,,1250.6313,1250.6323,0,0,,1250.633,1250.6336,0,1,,1,1250.6337,1250.6337,1250.6342,1252.1301,0,7,7,7,1,0.8,0.2,0.6,0.4,1,0,,,,,,,,,,,,,,,,,,,,,,,,,,,,,,,,,,,,
,,61232b43bd4b37c8d76a7b37,66fc98e64be4c7bfa7ae9960,2024-10-02_02h51.46.753,mdp,2024.2.1,Win32,60.24096386,66fa4ebf79326e780c390304,,,,,,,,,,,,,,,,,,,,,1252.1307,1252.1308,1252.1318,1252.6973,0,0,left,0.0421,,1252.6988,1252.6994,0,1,,1252.7001,1252.7007,0,1,,1,1252.7007,1252.7007,1252.7013,1254.1967,0,8,8,8,1,0.4,0.6,0.8,0.2,1,0,,,,,,,,,,,,,,,,,,,,,,,,,,,,,,,,,,,,
,,61232b43bd4b37c8d76a7b37,66fc98e64be4c7bfa7ae9960,2024-10-02_02h51.46.753,mdp,2024.2.1,Win32,60.24096386,66fa4ebf79326e780c390304,,,,,,,,,,,,,,,,,,,,,1254.1972,1254.1972,1254.1988,1255.0468,0,0,left,0.3244,,1255.0478,1255.0487,0,1,,1255.0495,1255.0499,0,0,,1,1255.05,1255.05,1255.0504,1256.5466,0,9,9,9,1,0.4,0.6,0.8,0.2,1,0,,,,,,,,,,,,,,,,,,,,,,,,,,,,,,,,,,,,
,,61232b43bd4b37c8d76a7b37,66fc98e64be4c7bfa7ae9960,2024-10-02_02h51.46.753,mdp,2024.2.1,Win32,60.24096386,66fa4ebf79326e780c390304,,,,,,,,,,,,,,,,,,,,,1256.5473,1256.5473,1256.5485,1257.5802,0,0,left,0.5009,,1257.5812,1257.5819,0,1,,1257.5826,1257.583,0,0,,1,1257.583,1257.583,1257.5836,1259.0797,0,10,10,10,1,0.4,0.6,0.8,0.2,1,0,,,,,,,,,,,,,,,,,,,,,,,,,,,,,,,,,,,,
,,61232b43bd4b37c8d76a7b37,66fc98e64be4c7bfa7ae9960,2024-10-02_02h51.46.753,mdp,2024.2.1,Win32,60.24096386,66fa4ebf79326e780c390304,,,,,,,,,,,,,,,,,,,,,1259.0803,1259.0803,1259.0812,1260.0131,0,1,left,0.3983,,1260.0147,1260.0152,0,1,,1260.016,1260.0165,0,0,,0,1260.0166,1260.0166,1260.017,1261.5132,0,11,11,11,1,0.4,0.6,0.8,0.2,1,0,,,,,,,,,,,,,,,,,,,,,,,,,,,,,,,,,,,,
,,61232b43bd4b37c8d76a7b37,66fc98e64be4c7bfa7ae9960,2024-10-02_02h51.46.753,mdp,2024.2.1,Win32,60.24096386,66fa4ebf79326e780c390304,,,,,,,,,,,,,,,,,,,,,1261.5137,1261.5137,1261.5154,1262.5464,0,0,left,0.503,,1262.5476,1262.5482,0,1,,1262.5488,1262.5493,0,1,,1,1262.5493,1262.5493,1262.5499,1264.0463,0,12,12,12,1,0.4,0.6,0.8,0.2,1,0,,,,,,,,,,,,,,,,,,,,,,,,,,,,,,,,,,,,
,,61232b43bd4b37c8d76a7b37,66fc98e64be4c7bfa7ae9960,2024-10-02_02h51.46.753,mdp,2024.2.1,Win32,60.24096386,66fa4ebf79326e780c390304,,,,,,,,,,,,,,,,,,,,,1264.0465,1264.0465,1264.0477,1266.063,0,1,left,1.4837,,1266.0642,1266.065,0,0,,1266.0658,1266.0663,0,1,,0,1266.0663,1266.0663,1266.0669,1267.5634,0,13,13,13,1,0.4,0.6,0.8,0.2,1,0,,,,,,,,,,,,,,,,,,,,,,,,,,,,,,,,,,,,
,,61232b43bd4b37c8d76a7b37,66fc98e64be4c7bfa7ae9960,2024-10-02_02h51.46.753,mdp,2024.2.1,Win32,60.24096386,66fa4ebf79326e780c390304,,,,,,,,,,,,,,,,,,,,,1267.5637,1267.5637,1267.5649,1268.2631,0,0,left,0.1801,,1268.2641,1268.2647,0,0,,1268.2656,1268.2662,0,1,,1,1268.2662,1268.2662,1268.2668,1269.7626,0,14,14,14,1,0.4,0.6,0.8,0.2,1,0,,,,,,,,,,,,,,,,,,,,,,,,,,,,,,,,,,,,
,,61232b43bd4b37c8d76a7b37,66fc98e64be4c7bfa7ae9960,2024-10-02_02h51.46.753,mdp,2024.2.1,Win32,60.24096386,66fa4ebf79326e780c390304,,,,,,,,,,,,,,,,,,,,,1269.763,1269.7631,1269.7639,1270.6627,0,0,left,0.3716,,1270.6639,1270.6645,0,0,,1270.6653,1270.6658,0,0,,1,1270.6659,1270.6659,1270.6663,1272.1656,0,15,15,15,1,0.8,0.2,0.6,0.4,1,0,,,,,,,,,,,,,,,,,,,,,,,,,,,,,,,,,,,,
,,61232b43bd4b37c8d76a7b37,66fc98e64be4c7bfa7ae9960,2024-10-02_02h51.46.753,mdp,2024.2.1,Win32,60.24096386,66fa4ebf79326e780c390304,,,,,,,,,,,,,,,,,,,,,1272.1658,1272.1659,1272.1669,1272.7627,0,0,left,0.0793,,1272.7639,1272.7643,0,0,,1272.765,1272.7657,0,0,,1,1272.7657,1272.7657,1272.7663,1274.2626,0,16,16,16,1,0.8,0.2,0.6,0.4,1,0,,,,,,,,,,,,,,,,,,,,,,,,,,,,,,,,,,,,
,,61232b43bd4b37c8d76a7b37,66fc98e64be4c7bfa7ae9960,2024-10-02_02h51.46.753,mdp,2024.2.1,Win32,60.24096386,66fa4ebf79326e780c390304,,,,,,,,,,,,,,,,,,,,,1274.2631,1274.2631,1274.2641,1275.1291,0,1,left,0.3399,,1275.1305,1275.131,0,1,,1275.1318,1275.1323,0,1,,0,1275.1323,1275.1323,1275.1328,1276.6292,0,17,17,17,1,0.4,0.6,0.8,0.2,1,0,,,,,,,,,,,,,,,,,,,,,,,,,,,,,,,,,,,,
,,61232b43bd4b37c8d76a7b37,66fc98e64be4c7bfa7ae9960,2024-10-02_02h51.46.753,mdp,2024.2.1,Win32,60.24096386,66fa4ebf79326e780c390304,,,,,,,,,,,,,,,,,,,,,1276.6303,1276.6304,1276.6315,1277.163,1,0,right,0.0023,,1277.164,1277.1645,0,0,,1277.1653,1277.1658,0,0,,1,1277.1658,1277.1658,1277.1664,1278.6625,0,18,18,18,1,0.4,0.6,0.8,0.2,1,0,,,,,,,,,,,,,,,,,,,,,,,,,,,,,,,,,,,,
,,61232b43bd4b37c8d76a7b37,66fc98e64be4c7bfa7ae9960,2024-10-02_02h51.46.753,mdp,2024.2.1,Win32,60.24096386,66fa4ebf79326e780c390304,,,,,,,,,,,,,,,,,,,,,1278.6632,1278.6632,1278.6646,1279.3123,1,0,right,0.1284,,1279.3136,1279.3142,0,0,,1279.3148,1279.3153,0,0,,1,1279.3154,1279.3154,1279.316,1280.8123,0,19,19,19,1,0.4,0.6,0.8,0.2,1,0,,,,,,,,,,,,,,,,,,,,,,,,,,,,,,,,,,,,
,,61232b43bd4b37c8d76a7b37,66fc98e64be4c7bfa7ae9960,2024-10-02_02h51.46.753,mdp,2024.2.1,Win32,60.24096386,66fa4ebf79326e780c390304,,,,,,,,,,,,,,,,,,,,,1280.8125,1280.8125,1280.8137,1281.4788,1,0,right,0.1283,,1281.4798,1281.4803,0,1,,1281.481,1281.4815,0,0,,1,1281.4816,1281.4816,1281.4821,1282.9789,0,20,20,20,1,0.4,0.6,0.8,0.2,1,0,,,,,,,,,,,,,,,,,,,,,,,,,,,,,,,,,,,,
,,61232b43bd4b37c8d76a7b37,66fc98e64be4c7bfa7ae9960,2024-10-02_02h51.46.753,mdp,2024.2.1,Win32,60.24096386,66fa4ebf79326e780c390304,,,,,,,,,,,,,,,,,,,,,1282.9791,1282.9791,1282.9802,1283.5456,1,0,right,0.0346,,1283.547,1283.5478,0,0,,1283.5487,1283.5493,0,1,,1,1283.5493,1283.5493,1283.5497,1285.0456,0,21,21,21,1,0.6,0.4,0.6,0.4,1,0,,,,,,,,,,,,,,,,,,,,,,,,,,,,,,,,,,,,
,,61232b43bd4b37c8d76a7b37,66fc98e64be4c7bfa7ae9960,2024-10-02_02h51.46.753,mdp,2024.2.1,Win32,60.24096386,66fa4ebf79326e780c390304,,,,,,,,,,,,,,,,,,,,,1285.046,1285.046,1285.0471,1285.5788,1,1,right,0.0026,,1285.5799,1285.5806,0,1,,1285.5814,1285.5819,0,0,,0,1285.582,1285.582,1285.5826,1287.0793,0,22,22,22,1,0.6,0.4,0.6,0.4,1,0,,,,,,,,,,,,,,,,,,,,,,,,,,,,,,,,,,,,
,,61232b43bd4b37c8d76a7b37,66fc98e64be4c7bfa7ae9960,2024-10-02_02h51.46.753,mdp,2024.2.1,Win32,60.24096386,66fa4ebf79326e780c390304,,,,,,,,,,,,,,,,,,,,,1287.0798,1287.0799,1287.0807,1287.9954,0,1,left,0.391,,1287.9964,1287.9975,0,0,,1287.9982,1287.9987,0,0,,0,1287.9988,1287.9988,1287.9992,1289.4952,0,23,23,23,1,0.6,0.4,0.6,0.4,1,0,,,,,,,,,,,,,,,,,,,,,,,,,,,,,,,,,,,,
,,61232b43bd4b37c8d76a7b37,66fc98e64be4c7bfa7ae9960,2024-10-02_02h51.46.753,mdp,2024.2.1,Win32,60.24096386,66fa4ebf79326e780c390304,,,,,,,,,,,,,,,,,,,,,1289.4956,1289.4956,1289.4964,1290.7121,0,0,left,0.6947,,1290.7133,1290.7141,0,0,,1290.7157,1290.7169,0,0,,1,1290.717,1290.717,1290.7176,1292.2119,0,24,24,24,1,0.6,0.4,0.6,0.4,1,0,,,,,,,,,,,,,,,,,,,,,,,,,,,,,,,,,,,,
,,61232b43bd4b37c8d76a7b37,66fc98e64be4c7bfa7ae9960,2024-10-02_02h51.46.753,mdp,2024.2.1,Win32,60.24096386,66fa4ebf79326e780c390304,,,,,,,,,,,,,,,,,,,,,1292.2122,1292.2122,1292.2132,1292.9451,0,1,left,0.2024,,1292.9463,1292.9471,0,0,,1292.9478,1292.9485,0,0,,0,1292.9486,1292.9486,1292.9493,1294.4451,0,25,25,25,1,0.6,0.4,0.6,0.4,1,0,,,,,,,,,,,,,,,,,,,,,,,,,,,,,,,,,,,,
,,61232b43bd4b37c8d76a7b37,66fc98e64be4c7bfa7ae9960,2024-10-02_02h51.46.753,mdp,2024.2.1,Win32,60.24096386,66fa4ebf79326e780c390304,,,,,,,,,,,,,,,,,,,,,1294.4455,1294.4455,1294.4464,1297.212,0,0,left,2.2398,,1297.2133,1297.2139,0,1,,1297.2144,1297.2166,0,0,,1,1297.2166,1297.2166,1297.2173,1298.7116,0,26,26,26,1,0.6,0.4,0.6,0.4,1,0,,,,,,,,,,,,,,,,,,,,,,,,,,,,,,,,,,,,
,,61232b43bd4b37c8d76a7b37,66fc98e64be4c7bfa7ae9960,2024-10-02_02h51.46.753,mdp,2024.2.1,Win32,60.24096386,66fa4ebf79326e780c390304,,,,,,,,,,,,,,,,,,,,,1298.7126,1298.7126,1298.7134,1299.4449,0,1,left,0.1921,,1299.4463,1299.4469,0,0,,1299.4476,1299.4481,0,1,,0,1299.4482,1299.4482,1299.4487,1300.9451,0,27,27,27,1,0.6,0.4,0.6,0.4,1,0,,,,,,,,,,,,,,,,,,,,,,,,,,,,,,,,,,,,
,,61232b43bd4b37c8d76a7b37,66fc98e64be4c7bfa7ae9960,2024-10-02_02h51.46.753,mdp,2024.2.1,Win32,60.24096386,66fa4ebf79326e780c390304,,,,,,,,,,,,,,,,,,,,,1300.9454,1300.9454,1300.9464,1301.4948,1,0,right,0.0263,,1301.4959,1301.4966,0,0,,1301.4972,1301.4979,0,0,,1,1301.4979,1301.4979,1301.4983,1302.9948,0,28,28,28,1,0.6,0.4,0.6,0.4,1,0,,,,,,,,,,,,,,,,,,,,,,,,,,,,,,,,,,,,
,,61232b43bd4b37c8d76a7b37,66fc98e64be4c7bfa7ae9960,2024-10-02_02h51.46.753,mdp,2024.2.1,Win32,60.24096386,66fa4ebf79326e780c390304,,,,,,,,,,,,,,,,,,,,,1302.9951,1302.9951,1302.9962,1304.2781,1,0,right,0.7505,,1304.2793,1304.2798,0,1,,1304.2805,1304.281,0,0,,1,1304.281,1304.281,1304.2816,1305.7778,0,29,29,29,1,0.6,0.4,0.6,0.4,1,0,,,,,,,,,,,,,,,,,,,,,,,,,,,,,,,,,,,,
,,61232b43bd4b37c8d76a7b37,66fc98e64be4c7bfa7ae9960,2024-10-02_02h51.46.753,mdp,2024.2.1,Win32,60.24096386,66fa4ebf79326e780c390304,,,,,,,,,,,,,,,,,,,,,1305.7784,1305.7784,1305.7796,1306.3113,1,0,right,0.0004,,1306.3125,1306.3135,0,1,,1306.3141,1306.3145,0,1,,1,1306.3145,1306.3145,1306.3151,1307.8111,0,30,30,30,1,0.6,0.4,0.6,0.4,1,0,,,,,,,,,,,,,,,,,,,,,,,,,,,,,,,,,,,,
,,61232b43bd4b37c8d76a7b37,66fc98e64be4c7bfa7ae9960,2024-10-02_02h51.46.753,mdp,2024.2.1,Win32,60.24096386,66fa4ebf79326e780c390304,,,,,,,,,,,,,,,,,,,,,1307.8115,1307.8115,1307.8124,1308.4789,1,1,right,0.1445,,1308.4801,1308.4808,0,0,,1308.4813,1308.4818,0,1,,0,1308.4818,1308.4818,1308.4822,1309.9778,0,31,31,31,1,0.6,0.4,0.6,0.4,1,0,,,,,,,,,,,,,,,,,,,,,,,,,,,,,,,,,,,,
,,61232b43bd4b37c8d76a7b37,66fc98e64be4c7bfa7ae9960,2024-10-02_02h51.46.753,mdp,2024.2.1,Win32,60.24096386,66fa4ebf79326e780c390304,,,,,,,,,,,,,,,,,,,,,1309.9781,1309.9781,1309.9793,1310.6783,1,0,right,0.1731,,1310.6795,1310.68,0,0,,1310.6806,1310.6811,0,1,,1,1310.6812,1310.6812,1310.6818,1312.1782,0,32,32,32,1,0.6,0.4,0.6,0.4,1,0,,,,,,,,,,,,,,,,,,,,,,,,,,,,,,,,,,,,
,,61232b43bd4b37c8d76a7b37,66fc98e64be4c7bfa7ae9960,2024-10-02_02h51.46.753,mdp,2024.2.1,Win32,60.24096386,66fa4ebf79326e780c390304,,,,,,,,,,,,,,,,,,,,,1312.1787,1312.1787,1312.1796,1312.7944,1,0,right,0.0778,,1312.7952,1312.7961,0,0,,1312.7969,1312.7974,0,0,,1,1312.7974,1312.7974,1312.798,1314.2942,0,33,33,33,1,0.4,0.6,0.8,0.2,1,0,,,,,,,,,,,,,,,,,,,,,,,,,,,,,,,,,,,,
,,61232b43bd4b37c8d76a7b37,66fc98e64be4c7bfa7ae9960,2024-10-02_02h51.46.753,mdp,2024.2.1,Win32,60.24096386,66fa4ebf79326e780c390304,,,,,,,,,,,,,,,,,,,,,1314.2945,1314.2946,1314.2957,1314.9608,1,0,right,0.136,,1314.9618,1314.9625,0,0,,1314.9632,1314.9639,0,0,,1,1314.9639,1314.9639,1314.9646,1316.4612,0,34,34,34,1,0.4,0.6,0.8,0.2,1,0,,,,,,,,,,,,,,,,,,,,,,,,,,,,,,,,,,,,
,,61232b43bd4b37c8d76a7b37,66fc98e64be4c7bfa7ae9960,2024-10-02_02h51.46.753,mdp,2024.2.1,Win32,60.24096386,66fa4ebf79326e780c390304,,,,,,,,,,,,,,,,,,,,,1316.4617,1316.4617,1316.4627,1318.2943,1,1,right,1.3024,,1318.2959,1318.2965,0,0,,1318.2976,1318.2982,0,0,,0,1318.2983,1318.2983,1318.2988,1319.7939,0,35,35,35,1,0.6,0.4,0.6,0.4,1,0,,,,,,,,,,,,,,,,,,,,,,,,,,,,,,,,,,,,
,,61232b43bd4b37c8d76a7b37,66fc98e64be4c7bfa7ae9960,2024-10-02_02h51.46.753,mdp,2024.2.1,Win32,60.24096386,66fa4ebf79326e780c390304,,,,,,,,,,,,,,,,,,,,,1319.7945,1319.7945,1319.7956,1320.4106,1,1,right,0.0935,,1320.4115,1320.4121,0,0,,1320.4126,1320.4131,0,0,,0,1320.4133,1320.4133,1320.4138,1321.9106,0,36,36,36,1,0.6,0.4,0.6,0.4,1,0,,,,,,,,,,,,,,,,,,,,,,,,,,,,,,,,,,,,
,,61232b43bd4b37c8d76a7b37,66fc98e64be4c7bfa7ae9960,2024-10-02_02h51.46.753,mdp,2024.2.1,Win32,60.24096386,66fa4ebf79326e780c390304,,,,,,,,,,,,,,,,,,,,,1321.9108,1321.9108,1321.9117,1322.5609,0,1,left,0.1273,,1322.5622,1322.5628,0,1,,1322.5635,1322.564,0,1,,0,1322.564,1322.564,1322.5645,1324.0605,0,37,37,37,1,0.4,0.6,0.8,0.2,1,0,,,,,,,,,,,,,,,,,,,,,,,,,,,,,,,,,,,,
,,61232b43bd4b37c8d76a7b37,66fc98e64be4c7bfa7ae9960,2024-10-02_02h51.46.753,mdp,2024.2.1,Win32,60.24096386,66fa4ebf79326e780c390304,,,,,,,,,,,,,,,,,,,,,1324.0608,1324.0608,1324.0621,1325.0273,1,0,right,0.4343,,1325.0283,1325.029,0,0,,1325.0297,1325.0303,0,0,,1,1325.0303,1325.0304,1325.0311,1326.5271,0,38,38,38,1,0.4,0.6,0.8,0.2,1,0,,,,,,,,,,,,,,,,,,,,,,,,,,,,,,,,,,,,
,,61232b43bd4b37c8d76a7b37,66fc98e64be4c7bfa7ae9960,2024-10-02_02h51.46.753,mdp,2024.2.1,Win32,60.24096386,66fa4ebf79326e780c390304,,,,,,,,,,,,,,,,,,,,,1326.5275,1326.5275,1326.5284,1328.0273,1,0,right,0.9672,,1328.0283,1328.029,0,0,,1328.0298,1328.0303,0,1,,1,1328.0303,1328.0303,1328.0308,1329.5269,0,39,39,39,1,0.4,0.6,0.8,0.2,1,0,,,,,,,,,,,,,,,,,,,,,,,,,,,,,,,,,,,,
,,61232b43bd4b37c8d76a7b37,66fc98e64be4c7bfa7ae9960,2024-10-02_02h51.46.753,mdp,2024.2.1,Win32,60.24096386,66fa4ebf79326e780c390304,,,,,,,,,,,,,,,,,,,,,1329.5273,1329.5273,1329.5282,1330.1606,1,1,right,0.1033,,1330.1615,1330.162,0,1,,1330.1627,1330.1634,0,0,,0,1330.1635,1330.1635,1330.1641,1331.6602,0,40,40,40,1,0.6,0.4,0.2,0.8,1,0,,,,,,,,,,,,,,,,,,,,,,,,,,,,,,,,,,,,
