init_exp.started,init_exp.stopped,participant,session,date,expName,psychopyVersion,OS,frameRate,study_id,disp_instruction.started,disp_instruction.stopped,instruction.thisRepN,instruction.thisTrialN,instruction.thisN,instruction.thisIndex,instruction.ran,instimg_path,consent.started,consent.stopped,key_resp_3.keys,key_resp_3.rt,key_resp_3.duration,n_steps,sequence_path,init_block.started,init_block.stopped,key_resp.keys,key_resp.rt,key_resp.duration,init_trials.started,init_trials.stopped,step0.started,step0.stopped,act0,s1,res0.keys,res0.rt,res0.duration,step1.started,step1.stopped,act1,s2,res1.keys,step2.started,step2.stopped,act2,s3,res2.keys,rew,reward_comp.started,reward_comp.stopped,reward_disp.started,reward_disp.stopped,trials.thisRepN,trials.thisTrialN,trials.thisN,trials.thisIndex,trials.ran,s00a0s10,s00a0s11,s00a1s10,s00a1s11,rew10,rew11,break_block.started,break_block.stopped,block.thisRepN,block.thisTrialN,block.thisN,block.thisIndex,block.ran,s00path,s10path,s11path,s20path,s21path,res1.rt,res1.duration,s10a0s20,s10a0s21,s10a1s20,s10a1s21,s11a0s20,s11a0s21,s11a1s20,s11a1s21,rew20,rew21,res2.rt,res2.duration,s20a0s30,s20a0s31,s20a1s30,s20a1s31,s21a0s30,s21a0s31,s21a1s30,s21a1s31,rew30,rew31
0.0002,0.0011,61251c2fc253fd0b4be31eef,66daf5b564b74c84df79a6ec,2024-09-06_14h38.38.744,mdp,2024.2.1,Win32,60.60606061,66d7945b1baad48e845df3ce,,,,,,,,,,,,,,,,,,,,,,,,,,,,,,,,,,,,,,,,,,,,,,,,,,,,,,,,,,,,,,,,,,,,,,,,,,,,,,,,,,,,,,,,,,,
,,61251c2fc253fd0b4be31eef,66daf5b564b74c84df79a6ec,2024-09-06_14h38.38.744,mdp,2024.2.1,Win32,60.60606061,66d7945b1baad48e845df3ce,0.0041,132.4278,0,0,0,0,1,rlnn_exp/rlnn_exp.001.png,,,,,,,,,,,,,,,,,,,,,,,,,,,,,,,,,,,,,,,,,,,,,,,,,,,,,,,,,,,,,,,,,,,,,,,,,,,,,,,,,,,
,,61251c2fc253fd0b4be31eef,66daf5b564b74c84df79a6ec,2024-09-06_14h38.38.744,mdp,2024.2.1,Win32,60.60606061,66d7945b1baad48e845df3ce,132.4286,151.4594,0,1,1,1,1,rlnn_exp/rlnn_exp.002.png,,,,,,,,,,,,,,,,,,,,,,,,,,,,,,,,,,,,,,,,,,,,,,,,,,,,,,,,,,,,,,,,,,,,,,,,,,,,,,,,,,,
,,61251c2fc253fd0b4be31eef,66daf5b564b74c84df79a6ec,2024-09-06_14h38.38.744,mdp,2024.2.1,Win32,60.60606061,66d7945b1baad48e845df3ce,151.4695,171.9081,0,2,2,2,1,rlnn_exp/rlnn_exp.003.png,,,,,,,,,,,,,,,,,,,,,,,,,,,,,,,,,,,,,,,,,,,,,,,,,,,,,,,,,,,,,,,,,,,,,,,,,,,,,,,,,,,
,,61251c2fc253fd0b4be31eef,66daf5b564b74c84df79a6ec,2024-09-06_14h38.38.744,mdp,2024.2.1,Win32,60.60606061,66d7945b1baad48e845df3ce,171.917,193.9221,0,3,3,3,1,rlnn_exp/rlnn_exp.004.png,,,,,,,,,,,,,,,,,,,,,,,,,,,,,,,,,,,,,,,,,,,,,,,,,,,,,,,,,,,,,,,,,,,,,,,,,,,,,,,,,,,
,,61251c2fc253fd0b4be31eef,66daf5b564b74c84df79a6ec,2024-09-06_14h38.38.744,mdp,2024.2.1,Win32,60.60606061,66d7945b1baad48e845df3ce,,,,,,,,,193.9315,217.1026,y,13.1428,,,,,,,,,,,,,,,,,,,,,,,,,,,,,,,,,,,,,,,,,,,,,,,,,,,,,,,,,,,,,,,,,,,,,,,,,,,,,,,
,,61251c2fc253fd0b4be31eef,66daf5b564b74c84df79a6ec,2024-09-06_14h38.38.744,mdp,2024.2.1,Win32,60.60606061,66d7945b1baad48e845df3ce,,,,,,,,,,,,,,1,seqs/st1seq30.csv,217.114,222.514,space,4.8891,,222.525,222.5251,222.5253,225.512,1,0,right,2.4621,,225.5208,225.5218,,0,,225.522,225.5227,,0,,1,225.5228,225.5228,225.523,227.0266,0,0,0,0,1,0.6,0.4,0.4,0.6,1,0,,,,,,,,,,,,,,,,,,,,,,,,,,,,,,,,,,,,
,,61251c2fc253fd0b4be31eef,66daf5b564b74c84df79a6ec,2024-09-06_14h38.38.744,mdp,2024.2.1,Win32,60.60606061,66d7945b1baad48e845df3ce,,,,,,,,,,,,,,,,,,,,,227.027,227.0271,227.0279,228.7421,1,0,right,1.1901,,228.743,228.7437,,0,,228.7451,228.7459,,0,,1,228.746,228.746,228.7463,230.2408,0,1,1,1,1,0.6,0.4,0.4,0.6,1,0,,,,,,,,,,,,,,,,,,,,,,,,,,,,,,,,,,,,
,,61251c2fc253fd0b4be31eef,66daf5b564b74c84df79a6ec,2024-09-06_14h38.38.744,mdp,2024.2.1,Win32,60.60606061,66d7945b1baad48e845df3ce,,,,,,,,,,,,,,,,,,,,,230.241,230.241,230.2423,231.7727,1,1,right,1.0104,,231.7735,231.7742,,0,,231.7758,231.7765,,0,,0,231.7766,231.7766,231.7769,233.2715,0,2,2,2,1,0.8,0.2,0.6,0.4,1,0,,,,,,,,,,,,,,,,,,,,,,,,,,,,,,,,,,,,
,,61251c2fc253fd0b4be31eef,66daf5b564b74c84df79a6ec,2024-09-06_14h38.38.744,mdp,2024.2.1,Win32,60.60606061,66d7945b1baad48e845df3ce,,,,,,,,,,,,,,,,,,,,,233.2718,233.2718,233.2727,234.9527,1,0,right,1.1608,,234.9533,234.9542,,0,,234.9563,234.9567,,1,,1,234.9567,234.9567,234.957,236.4521,0,3,3,3,1,0.8,0.2,0.6,0.4,1,0,,,,,,,,,,,,,,,,,,,,,,,,,,,,,,,,,,,,
,,61251c2fc253fd0b4be31eef,66daf5b564b74c84df79a6ec,2024-09-06_14h38.38.744,mdp,2024.2.1,Win32,60.60606061,66d7945b1baad48e845df3ce,,,,,,,,,,,,,,,,,,,,,236.4524,236.4525,236.4531,238.1007,1,0,right,1.1229,,238.1016,238.1024,,1,,238.1039,238.1045,,0,,1,238.1045,238.1045,238.1048,239.5992,0,4,4,4,1,0.8,0.2,0.6,0.4,1,0,,,,,,,,,,,,,,,,,,,,,,,,,,,,,,,,,,,,
,,61251c2fc253fd0b4be31eef,66daf5b564b74c84df79a6ec,2024-09-06_14h38.38.744,mdp,2024.2.1,Win32,60.60606061,66d7945b1baad48e845df3ce,,,,,,,,,,,,,,,,,,,,,239.5994,239.5995,239.6005,241.5808,1,0,right,1.4485,,241.5816,241.5822,,1,,241.5837,241.5845,,0,,1,241.5845,241.5845,241.5849,243.0795,0,5,5,5,1,0.8,0.2,0.6,0.4,1,0,,,,,,,,,,,,,,,,,,,,,,,,,,,,,,,,,,,,
,,61251c2fc253fd0b4be31eef,66daf5b564b74c84df79a6ec,2024-09-06_14h38.38.744,mdp,2024.2.1,Win32,60.60606061,66d7945b1baad48e845df3ce,,,,,,,,,,,,,,,,,,,,,243.0798,243.0798,243.0808,245.1273,1,0,right,1.527,,245.1362,245.1366,,1,,245.1369,245.1372,,0,,1,245.1373,245.1373,245.1376,246.6265,0,6,6,6,1,0.8,0.2,0.6,0.4,1,0,,,,,,,,,,,,,,,,,,,,,,,,,,,,,,,,,,,,
,,61251c2fc253fd0b4be31eef,66daf5b564b74c84df79a6ec,2024-09-06_14h38.38.744,mdp,2024.2.1,Win32,60.60606061,66d7945b1baad48e845df3ce,,,,,,,,,,,,,,,,,,,,,246.6267,246.6267,246.6277,248.5078,1,1,right,1.3491,,248.5088,248.5097,,1,,248.511,248.5117,,0,,0,248.5117,248.5117,248.5121,250.0065,0,7,7,7,1,0.8,0.2,0.6,0.4,1,0,,,,,,,,,,,,,,,,,,,,,,,,,,,,,,,,,,,,
,,61251c2fc253fd0b4be31eef,66daf5b564b74c84df79a6ec,2024-09-06_14h38.38.744,mdp,2024.2.1,Win32,60.60606061,66d7945b1baad48e845df3ce,,,,,,,,,,,,,,,,,,,,,250.0067,250.0067,250.0074,251.5221,0,0,left,0.9885,,251.523,251.5239,,0,,251.5255,251.5261,,0,,1,251.5261,251.5261,251.5265,253.0209,0,8,8,8,1,0.8,0.2,0.6,0.4,1,0,,,,,,,,,,,,,,,,,,,,,,,,,,,,,,,,,,,,
,,61251c2fc253fd0b4be31eef,66daf5b564b74c84df79a6ec,2024-09-06_14h38.38.744,mdp,2024.2.1,Win32,60.60606061,66d7945b1baad48e845df3ce,,,,,,,,,,,,,,,,,,,,,253.0212,253.0212,253.0218,254.5193,0,0,left,0.9759,,254.5199,254.5204,,1,,254.5219,254.5232,,0,,1,254.5232,254.5232,254.5236,256.018,0,9,9,9,1,0.8,0.2,0.6,0.4,1,0,,,,,,,,,,,,,,,,,,,,,,,,,,,,,,,,,,,,
,,61251c2fc253fd0b4be31eef,66daf5b564b74c84df79a6ec,2024-09-06_14h38.38.744,mdp,2024.2.1,Win32,60.60606061,66d7945b1baad48e845df3ce,,,,,,,,,,,,,,,,,,,,,256.0182,256.0182,256.0189,257.9499,1,0,right,1.4042,,257.9509,257.9513,,0,,257.9526,257.9536,,1,,1,257.9536,257.9536,257.954,259.4485,0,10,10,10,1,0.8,0.2,0.6,0.4,1,0,,,,,,,,,,,,,,,,,,,,,,,,,,,,,,,,,,,,
,,61251c2fc253fd0b4be31eef,66daf5b564b74c84df79a6ec,2024-09-06_14h38.38.744,mdp,2024.2.1,Win32,60.60606061,66d7945b1baad48e845df3ce,,,,,,,,,,,,,,,,,,,,,259.4488,259.4488,259.4495,261.1802,1,1,right,1.2088,,261.1808,261.1813,,0,,261.1833,261.1841,,0,,0,261.1842,261.1842,261.1845,262.6791,0,11,11,11,1,0.8,0.2,0.6,0.4,1,0,,,,,,,,,,,,,,,,,,,,,,,,,,,,,,,,,,,,
,,61251c2fc253fd0b4be31eef,66daf5b564b74c84df79a6ec,2024-09-06_14h38.38.744,mdp,2024.2.1,Win32,60.60606061,66d7945b1baad48e845df3ce,,,,,,,,,,,,,,,,,,,,,262.6793,262.6793,262.68,264.1112,0,0,left,0.9086,,264.1121,264.1126,,0,,264.1139,264.115,,1,,1,264.115,264.115,264.1154,265.6098,0,12,12,12,1,0.8,0.2,0.6,0.4,1,0,,,,,,,,,,,,,,,,,,,,,,,,,,,,,,,,,,,,
,,61251c2fc253fd0b4be31eef,66daf5b564b74c84df79a6ec,2024-09-06_14h38.38.744,mdp,2024.2.1,Win32,60.60606061,66d7945b1baad48e845df3ce,,,,,,,,,,,,,,,,,,,,,265.6101,265.6101,265.6108,267.5418,0,0,left,1.406,,267.5426,267.543,,0,,267.5452,267.5457,,0,,1,267.5457,267.5457,267.546,269.0403,0,13,13,13,1,0.8,0.2,0.6,0.4,1,0,,,,,,,,,,,,,,,,,,,,,,,,,,,,,,,,,,,,
,,61251c2fc253fd0b4be31eef,66daf5b564b74c84df79a6ec,2024-09-06_14h38.38.744,mdp,2024.2.1,Win32,60.60606061,66d7945b1baad48e845df3ce,,,,,,,,,,,,,,,,,,,,,269.0406,269.0406,269.0414,270.972,0,0,left,1.3993,,270.9729,270.9737,,0,,270.9757,270.9762,,0,,1,270.9762,270.9762,270.9765,272.4706,0,14,14,14,1,0.8,0.2,0.6,0.4,1,0,,,,,,,,,,,,,,,,,,,,,,,,,,,,,,,,,,,,
,,61251c2fc253fd0b4be31eef,66daf5b564b74c84df79a6ec,2024-09-06_14h38.38.744,mdp,2024.2.1,Win32,60.60606061,66d7945b1baad48e845df3ce,,,,,,,,,,,,,,,,,,,,,272.4708,272.4708,272.4716,274.3523,1,0,right,1.359,,274.3534,274.355,,0,,274.3564,274.3568,,1,,1,274.3568,274.3569,274.3572,275.851,0,15,15,15,1,0.8,0.2,0.6,0.4,1,0,,,,,,,,,,,,,,,,,,,,,,,,,,,,,,,,,,,,
,,61251c2fc253fd0b4be31eef,66daf5b564b74c84df79a6ec,2024-09-06_14h38.38.744,mdp,2024.2.1,Win32,60.60606061,66d7945b1baad48e845df3ce,,,,,,,,,,,,,,,,,,,,,275.8512,275.8512,275.8519,277.633,1,0,right,1.2493,,277.6339,277.6347,,0,,277.6363,277.6369,,0,,1,277.6369,277.6369,277.6373,279.1313,0,16,16,16,1,0.4,0.6,0.8,0.2,1,0,,,,,,,,,,,,,,,,,,,,,,,,,,,,,,,,,,,,
,,61251c2fc253fd0b4be31eef,66daf5b564b74c84df79a6ec,2024-09-06_14h38.38.744,mdp,2024.2.1,Win32,60.60606061,66d7945b1baad48e845df3ce,,,,,,,,,,,,,,,,,,,,,279.1315,279.1315,279.1323,281.0964,1,0,right,1.4369,,281.0972,281.0976,,0,,281.0989,281.1001,,0,,1,281.1001,281.1001,281.1004,282.5953,0,17,17,17,1,0.4,0.6,0.8,0.2,1,0,,,,,,,,,,,,,,,,,,,,,,,,,,,,,,,,,,,,
,,61251c2fc253fd0b4be31eef,66daf5b564b74c84df79a6ec,2024-09-06_14h38.38.744,mdp,2024.2.1,Win32,60.60606061,66d7945b1baad48e845df3ce,,,,,,,,,,,,,,,,,,,,,282.5957,282.5957,282.5964,284.3436,1,0,right,1.2205,,284.3445,284.345,,0,,284.3466,284.3474,,0,,1,284.3474,284.3474,284.348,285.8424,0,18,18,18,1,0.4,0.6,0.8,0.2,1,0,,,,,,,,,,,,,,,,,,,,,,,,,,,,,,,,,,,,
,,61251c2fc253fd0b4be31eef,66daf5b564b74c84df79a6ec,2024-09-06_14h38.38.744,mdp,2024.2.1,Win32,60.60606061,66d7945b1baad48e845df3ce,,,,,,,,,,,,,,,,,,,,,285.8426,285.8426,285.8433,287.224,0,1,left,0.8606,,287.2247,287.2253,,1,,287.2271,287.2278,,0,,0,287.2278,287.2278,287.2281,288.723,0,19,19,19,1,0.4,0.6,0.8,0.2,1,0,,,,,,,,,,,,,,,,,,,,,,,,,,,,,,,,,,,,
,,61251c2fc253fd0b4be31eef,66daf5b564b74c84df79a6ec,2024-09-06_14h38.38.744,mdp,2024.2.1,Win32,60.60606061,66d7945b1baad48e845df3ce,,,,,,,,,,,,,,,,,,,,,288.7232,288.7232,288.724,289.6223,1,0,right,0.3722,,289.6232,289.624,,0,,289.6255,289.6264,,1,,1,289.6264,289.6264,289.6267,291.121,0,20,20,20,1,0.4,0.6,0.8,0.2,1,0,,,,,,,,,,,,,,,,,,,,,,,,,,,,,,,,,,,,
,,61251c2fc253fd0b4be31eef,66daf5b564b74c84df79a6ec,2024-09-06_14h38.38.744,mdp,2024.2.1,Win32,60.60606061,66d7945b1baad48e845df3ce,,,,,,,,,,,,,,,,,,,,,291.1212,291.1212,291.122,293.1023,1,0,right,1.4561,,293.1031,293.1036,,0,,293.1047,293.1062,,0,,1,293.1062,293.1062,293.1067,294.6013,0,21,21,21,1,0.4,0.6,0.8,0.2,1,0,,,,,,,,,,,,,,,,,,,,,,,,,,,,,,,,,,,,
,,61251c2fc253fd0b4be31eef,66daf5b564b74c84df79a6ec,2024-09-06_14h38.38.744,mdp,2024.2.1,Win32,60.60606061,66d7945b1baad48e845df3ce,,,,,,,,,,,,,,,,,,,,,294.6016,294.6016,294.6023,296.4494,1,0,right,1.324,,296.4502,296.4506,,0,,296.4517,296.4528,,0,,1,296.4529,296.4529,296.4534,297.9483,0,22,22,22,1,0.4,0.6,0.8,0.2,1,0,,,,,,,,,,,,,,,,,,,,,,,,,,,,,,,,,,,,
,,61251c2fc253fd0b4be31eef,66daf5b564b74c84df79a6ec,2024-09-06_14h38.38.744,mdp,2024.2.1,Win32,60.60606061,66d7945b1baad48e845df3ce,,,,,,,,,,,,,,,,,,,,,297.9486,297.9486,297.9493,299.4969,1,0,right,1.024,,299.4976,299.498,,0,,299.499,299.5003,,0,,1,299.5004,299.5004,299.5007,300.9958,0,23,23,23,1,0.4,0.6,0.8,0.2,1,0,,,,,,,,,,,,,,,,,,,,,,,,,,,,,,,,,,,,
,,61251c2fc253fd0b4be31eef,66daf5b564b74c84df79a6ec,2024-09-06_14h38.38.744,mdp,2024.2.1,Win32,60.60606061,66d7945b1baad48e845df3ce,,,,,,,,,,,,,,,,,,,,,300.9961,300.9961,300.9969,302.6275,1,1,right,1.0994,,302.6283,302.6287,,1,,302.6297,302.6309,,0,,0,302.6309,302.6309,302.6313,304.1263,0,24,24,24,1,0.8,0.2,0.4,0.6,1,0,,,,,,,,,,,,,,,,,,,,,,,,,,,,,,,,,,,,
,,61251c2fc253fd0b4be31eef,66daf5b564b74c84df79a6ec,2024-09-06_14h38.38.744,mdp,2024.2.1,Win32,60.60606061,66d7945b1baad48e845df3ce,,,,,,,,,,,,,,,,,,,,,304.1265,304.1265,304.1272,305.7911,1,1,right,1.1404,,305.792,305.7941,,1,,305.7953,305.7957,,0,,0,305.7957,305.7957,305.7961,307.2902,0,25,25,25,1,0.8,0.2,0.4,0.6,1,0,,,,,,,,,,,,,,,,,,,,,,,,,,,,,,,,,,,,
,,61251c2fc253fd0b4be31eef,66daf5b564b74c84df79a6ec,2024-09-06_14h38.38.744,mdp,2024.2.1,Win32,60.60606061,66d7945b1baad48e845df3ce,,,,,,,,,,,,,,,,,,,,,307.2905,307.2905,307.2912,308.2727,0,1,left,0.4585,,308.2735,308.2739,,0,,308.2755,308.2766,,0,,0,308.2767,308.2767,308.277,309.7714,0,26,26,26,1,0.8,0.2,0.4,0.6,1,0,,,,,,,,,,,,,,,,,,,,,,,,,,,,,,,,,,,,
,,61251c2fc253fd0b4be31eef,66daf5b564b74c84df79a6ec,2024-09-06_14h38.38.744,mdp,2024.2.1,Win32,60.60606061,66d7945b1baad48e845df3ce,,,,,,,,,,,,,,,,,,,,,309.7717,309.7718,309.7724,311.1203,1,1,right,0.8229,,311.1211,311.1218,,1,,311.1232,311.124,,1,,0,311.1241,311.1241,311.1245,312.6188,0,27,27,27,1,0.8,0.2,0.4,0.6,1,0,,,,,,,,,,,,,,,,,,,,,,,,,,,,,,,,,,,,
,,61251c2fc253fd0b4be31eef,66daf5b564b74c84df79a6ec,2024-09-06_14h38.38.744,mdp,2024.2.1,Win32,60.60606061,66d7945b1baad48e845df3ce,,,,,,,,,,,,,,,,,,,,,312.6191,312.6191,312.6198,314.4007,0,1,left,1.2505,,314.4014,314.4018,,0,,314.4028,314.4042,,0,,0,314.4042,314.4042,314.4046,315.8993,0,28,28,28,1,0.8,0.2,0.4,0.6,1,0,,,,,,,,,,,,,,,,,,,,,,,,,,,,,,,,,,,,
,,61251c2fc253fd0b4be31eef,66daf5b564b74c84df79a6ec,2024-09-06_14h38.38.744,mdp,2024.2.1,Win32,60.60606061,66d7945b1baad48e845df3ce,,,,,,,,,,,,,,,,,,,,,315.8995,315.8996,315.9003,317.1312,1,1,right,0.702,,317.1321,317.1332,,0,,317.135,317.1355,,1,,0,317.1355,317.1355,317.1358,318.6303,0,29,29,29,1,0.8,0.2,0.4,0.6,1,0,,,,,,,,,,,,,,,,,,,,,,,,,,,,,,,,,,,,
,,61251c2fc253fd0b4be31eef,66daf5b564b74c84df79a6ec,2024-09-06_14h38.38.744,mdp,2024.2.1,Win32,60.60606061,66d7945b1baad48e845df3ce,,,,,,,,,,,,,,,,,,,,,318.6305,318.6305,318.6313,320.0958,1,1,right,0.937,,320.0967,320.0971,,1,,320.0981,320.0992,,0,,0,320.0994,320.0994,320.0997,321.5944,0,30,30,30,1,0.8,0.2,0.4,0.6,1,0,,,,,,,,,,,,,,,,,,,,,,,,,,,,,,,,,,,,
,,61251c2fc253fd0b4be31eef,66daf5b564b74c84df79a6ec,2024-09-06_14h38.38.744,mdp,2024.2.1,Win32,60.60606061,66d7945b1baad48e845df3ce,,,,,,,,,,,,,,,,,,,,,321.5946,321.5946,321.5953,322.9933,1,0,right,0.8662,,322.9942,322.9947,,1,,322.996,322.997,,1,,1,322.997,322.997,322.9975,324.4917,0,31,31,31,1,0.8,0.2,0.4,0.6,1,0,,,,,,,,,,,,,,,,,,,,,,,,,,,,,,,,,,,,
,,61251c2fc253fd0b4be31eef,66daf5b564b74c84df79a6ec,2024-09-06_14h38.38.744,mdp,2024.2.1,Win32,60.60606061,66d7945b1baad48e845df3ce,,,,,,,,,,,,,,,,,,,,,324.492,324.492,324.4927,325.9572,1,1,right,0.9332,,325.9579,325.9584,,1,,325.9596,325.9609,,0,,0,325.9609,325.9609,325.9613,327.456,0,32,32,32,1,0.8,0.2,0.4,0.6,1,0,,,,,,,,,,,,,,,,,,,,,,,,,,,,,,,,,,,,
,,61251c2fc253fd0b4be31eef,66daf5b564b74c84df79a6ec,2024-09-06_14h38.38.744,mdp,2024.2.1,Win32,60.60606061,66d7945b1baad48e845df3ce,,,,,,,,,,,,,,,,,,,,,327.4564,327.4564,327.457,329.304,0,0,left,1.3161,,329.3046,329.3051,,0,,329.3063,329.3076,,0,,1,329.3076,329.3076,329.308,330.8031,0,33,33,33,1,0.8,0.2,0.4,0.6,1,0,,,,,,,,,,,,,,,,,,,,,,,,,,,,,,,,,,,,
,,61251c2fc253fd0b4be31eef,66daf5b564b74c84df79a6ec,2024-09-06_14h38.38.744,mdp,2024.2.1,Win32,60.60606061,66d7945b1baad48e845df3ce,,,,,,,,,,,,,,,,,,,,,330.8033,330.8034,330.804,332.5016,0,0,left,1.1661,,332.5023,332.5027,,1,,332.5038,332.505,,1,,1,332.505,332.5051,332.5054,334.0002,0,34,34,34,1,0.8,0.2,0.4,0.6,1,0,,,,,,,,,,,,,,,,,,,,,,,,,,,,,,,,,,,,
,,61251c2fc253fd0b4be31eef,66daf5b564b74c84df79a6ec,2024-09-06_14h38.38.744,mdp,2024.2.1,Win32,60.60606061,66d7945b1baad48e845df3ce,,,,,,,,,,,,,,,,,,,,,334.0005,334.0005,334.0011,336.4976,0,0,left,1.977,,336.4983,336.4987,,0,,336.5001,336.5011,,0,,1,336.5011,336.5011,336.5014,337.9965,0,35,35,35,1,0.8,0.2,0.4,0.6,1,0,,,,,,,,,,,,,,,,,,,,,,,,,,,,,,,,,,,,
,,61251c2fc253fd0b4be31eef,66daf5b564b74c84df79a6ec,2024-09-06_14h38.38.744,mdp,2024.2.1,Win32,60.60606061,66d7945b1baad48e845df3ce,,,,,,,,,,,,,,,,,,,,,337.9968,337.9968,337.9975,339.3622,0,0,left,0.841,,339.3632,339.3648,,1,,339.3667,339.367,,0,,1,339.367,339.367,339.3673,340.861,0,36,36,36,1,0.8,0.2,0.4,0.6,1,0,,,,,,,,,,,,,,,,,,,,,,,,,,,,,,,,,,,,
,,61251c2fc253fd0b4be31eef,66daf5b564b74c84df79a6ec,2024-09-06_14h38.38.744,mdp,2024.2.1,Win32,60.60606061,66d7945b1baad48e845df3ce,,,,,,,,,,,,,,,,,,,,,340.8612,340.8612,340.8618,342.3097,0,0,left,0.9193,,342.3105,342.3109,,0,,342.312,342.3132,,1,,1,342.3132,342.3132,342.3136,343.8083,0,37,37,37,1,0.8,0.2,0.4,0.6,1,0,,,,,,,,,,,,,,,,,,,,,,,,,,,,,,,,,,,,
,,61251c2fc253fd0b4be31eef,66daf5b564b74c84df79a6ec,2024-09-06_14h38.38.744,mdp,2024.2.1,Win32,60.60606061,66d7945b1baad48e845df3ce,,,,,,,,,,,,,,,,,,,,,343.8086,343.8086,343.8093,345.3069,0,0,left,0.9657,,345.3077,345.308,,0,,345.3091,345.3104,,0,,1,345.3105,345.3105,345.3108,346.8058,0,38,38,38,1,0.8,0.2,0.4,0.6,1,0,,,,,,,,,,,,,,,,,,,,,,,,,,,,,,,,,,,,
,,61251c2fc253fd0b4be31eef,66daf5b564b74c84df79a6ec,2024-09-06_14h38.38.744,mdp,2024.2.1,Win32,60.60606061,66d7945b1baad48e845df3ce,,,,,,,,,,,,,,,,,,,,,346.8061,346.8061,346.8067,348.0544,0,0,left,0.7278,,348.0552,348.0556,,1,,348.0575,348.0583,,0,,1,348.0583,348.0583,348.0586,349.5529,0,39,39,39,1,0.8,0.2,0.4,0.6,1,0,,,,,,,,,,,,,,,,,,,,,,,,,,,,,,,,,,,,
,,61251c2fc253fd0b4be31eef,66daf5b564b74c84df79a6ec,2024-09-06_14h38.38.744,mdp,2024.2.1,Win32,60.60606061,66d7945b1baad48e845df3ce,,,,,,,,,,,,,,,,,,,,,349.5531,349.5531,349.5562,351.1019,0,0,left,1.0135,,351.1028,351.1032,,1,,351.1043,351.1055,,0,,1,351.1055,351.1055,351.1059,352.6002,0,40,40,40,1,0.8,0.2,0.4,0.6,1,0,,,,,,,,,,,,,,,,,,,,,,,,,,,,,,,,,,,,
,,61251c2fc253fd0b4be31eef,66daf5b564b74c84df79a6ec,2024-09-06_14h38.38.744,mdp,2024.2.1,Win32,60.60606061,66d7945b1baad48e845df3ce,,,,,,,,,,,,,,,,,,,,,352.6006,352.6006,352.6013,354.1658,0,1,left,1.0386,,354.1667,354.1671,,0,,354.1681,354.1693,,0,,0,354.1694,354.1694,354.1698,355.6647,0,41,41,41,1,0.8,0.2,0.4,0.6,1,0,,,,,,,,,,,,,,,,,,,,,,,,,,,,,,,,,,,,
,,61251c2fc253fd0b4be31eef,66daf5b564b74c84df79a6ec,2024-09-06_14h38.38.744,mdp,2024.2.1,Win32,60.60606061,66d7945b1baad48e845df3ce,,,,,,,,,,,,,,,,,,,,,355.665,355.665,355.666,357.2134,1,0,right,1.0158,,357.2142,357.2146,,0,,357.2156,357.217,,0,,1,357.217,357.217,357.2174,358.712,0,42,42,42,1,0.4,0.6,0.6,0.4,1,0,,,,,,,,,,,,,,,,,,,,,,,,,,,,,,,,,,,,
,,61251c2fc253fd0b4be31eef,66daf5b564b74c84df79a6ec,2024-09-06_14h38.38.744,mdp,2024.2.1,Win32,60.60606061,66d7945b1baad48e845df3ce,,,,,,,,,,,,,,,,,,,,,358.7123,358.7123,358.7129,360.6767,1,1,right,1.4325,,360.6772,360.6776,,0,,360.6787,360.68,,1,,0,360.68,360.68,360.6804,362.1758,0,43,43,43,1,0.4,0.6,0.6,0.4,1,0,,,,,,,,,,,,,,,,,,,,,,,,,,,,,,,,,,,,
,,61251c2fc253fd0b4be31eef,66daf5b564b74c84df79a6ec,2024-09-06_14h38.38.744,mdp,2024.2.1,Win32,60.60606061,66d7945b1baad48e845df3ce,,,,,,,,,,,,,,,,,,,,,362.1761,362.1761,362.1767,363.0749,0,1,left,0.3766,,363.0757,363.0762,,1,,363.077,363.0784,,1,,0,363.0784,363.0784,363.079,364.5736,0,44,44,44,1,0.4,0.6,0.6,0.4,1,0,,,,,,,,,,,,,,,,,,,,,,,,,,,,,,,,,,,,
,,61251c2fc253fd0b4be31eef,66daf5b564b74c84df79a6ec,2024-09-06_14h38.38.744,mdp,2024.2.1,Win32,60.60606061,66d7945b1baad48e845df3ce,,,,,,,,,,,,,,,,,,,,,364.5739,364.5739,364.5747,365.4729,1,1,right,0.3699,,365.4736,365.474,,0,,365.4753,365.4765,,0,,0,365.4765,365.4765,365.4769,366.9716,0,45,45,45,1,0.4,0.6,0.6,0.4,1,0,,,,,,,,,,,,,,,,,,,,,,,,,,,,,,,,,,,,
,,61251c2fc253fd0b4be31eef,66daf5b564b74c84df79a6ec,2024-09-06_14h38.38.744,mdp,2024.2.1,Win32,60.60606061,66d7945b1baad48e845df3ce,,,,,,,,,,,,,,,,,,,,,366.9718,366.9719,366.9727,367.7043,0,0,left,0.2001,,367.7052,367.7064,,0,,367.7079,367.7084,,0,,1,367.7084,367.7084,367.7087,369.2029,0,46,46,46,1,0.4,0.6,0.6,0.4,1,0,,,,,,,,,,,,,,,,,,,,,,,,,,,,,,,,,,,,
,,61251c2fc253fd0b4be31eef,66daf5b564b74c84df79a6ec,2024-09-06_14h38.38.744,mdp,2024.2.1,Win32,60.60606061,66d7945b1baad48e845df3ce,,,,,,,,,,,,,,,,,,,,,369.2032,369.2032,369.2039,369.869,0,1,left,0.1364,,369.8698,369.8702,,0,,369.8714,369.8726,,1,,0,369.8726,369.8726,369.873,371.3675,0,47,47,47,1,0.4,0.6,0.6,0.4,1,0,,,,,,,,,,,,,,,,,,,,,,,,,,,,,,,,,,,,
,,61251c2fc253fd0b4be31eef,66daf5b564b74c84df79a6ec,2024-09-06_14h38.38.744,mdp,2024.2.1,Win32,60.60606061,66d7945b1baad48e845df3ce,,,,,,,,,,,,,,,,,,,,,371.3677,371.3677,371.3685,372.7997,1,1,right,0.9072,,372.8008,372.8017,,1,,372.8033,372.8038,,0,,0,372.8038,372.8038,372.8042,374.2984,0,48,48,48,1,0.4,0.6,0.6,0.4,1,0,,,,,,,,,,,,,,,,,,,,,,,,,,,,,,,,,,,,
,,61251c2fc253fd0b4be31eef,66daf5b564b74c84df79a6ec,2024-09-06_14h38.38.744,mdp,2024.2.1,Win32,60.60606061,66d7945b1baad48e845df3ce,,,,,,,,,,,,,,,,,,,,,374.2987,374.2987,374.2994,375.3142,0,0,left,0.4828,,375.315,375.3154,,0,,375.3167,375.3179,,0,,1,375.318,375.318,375.3184,376.8131,0,49,49,49,1,0.4,0.6,0.6,0.4,1,0,,,,,,,,,,,,,,,,,,,,,,,,,,,,,,,,,,,,
,,61251c2fc253fd0b4be31eef,66daf5b564b74c84df79a6ec,2024-09-06_14h38.38.744,mdp,2024.2.1,Win32,60.60606061,66d7945b1baad48e845df3ce,,,,,,,,,,,,,,,,,,,,,,,,,,,,,,,,,,,,,,,,,,,,,,,,,,,,,,,,376.8136,435.3289,0,0,0,5,1,imgs/giraffe.png,imgs/squirrel.png,imgs/rabbit.png,imgs/goat.png,imgs/lion.png,,,,,,,,,,,,,,,,,,,,,,,,
,,61251c2fc253fd0b4be31eef,66daf5b564b74c84df79a6ec,2024-09-06_14h38.38.744,mdp,2024.2.1,Win32,60.60606061,66d7945b1baad48e845df3ce,,,,,,,,,,,,,,2,seqs/st2seq15.csv,435.3381,439.3583,space,3.4963,,439.3698,439.3698,439.3703,442.1892,0,1,left,2.296,,442.1901,445.2699,0,0,left,445.2707,445.2711,,1,,1,445.2712,445.2712,445.2724,446.7687,0,0,0,0,1,0.2,0.8,0.8,0.2,,,,,,,,,,,,,,,2.552,,0.6,0.4,0.2,0.8,0.6,0.4,0.8,0.2,1,0,,,,,,,,,,,,
,,61251c2fc253fd0b4be31eef,66daf5b564b74c84df79a6ec,2024-09-06_14h38.38.744,mdp,2024.2.1,Win32,60.60606061,66d7945b1baad48e845df3ce,,,,,,,,,,,,,,,,,,,,,446.769,446.769,446.7697,449.5994,0,1,left,2.3014,,449.6086,450.9981,0,0,left,450.9989,450.9993,,0,,1,450.9995,450.9995,451.0006,452.4969,0,1,1,1,1,0.2,0.8,0.8,0.2,,,,,,,,,,,,,,,0.8694,,0.4,0.6,0.8,0.2,0.6,0.4,0.8,0.2,1,0,,,,,,,,,,,,
,,61251c2fc253fd0b4be31eef,66daf5b564b74c84df79a6ec,2024-09-06_14h38.38.744,mdp,2024.2.1,Win32,60.60606061,66d7945b1baad48e845df3ce,,,,,,,,,,,,,,,,,,,,,452.4971,452.4971,452.4978,454.4284,0,1,left,1.4078,,454.4291,455.7108,0,0,left,455.7116,455.7122,,1,,1,455.7122,455.7122,455.7136,457.2095,0,2,2,2,1,0.2,0.8,0.8,0.2,,,,,,,,,,,,,,,0.7558,,0.4,0.6,0.8,0.2,0.6,0.4,0.8,0.2,1,0,,,,,,,,,,,,
,,61251c2fc253fd0b4be31eef,66daf5b564b74c84df79a6ec,2024-09-06_14h38.38.744,mdp,2024.2.1,Win32,60.60606061,66d7945b1baad48e845df3ce,,,,,,,,,,,,,,,,,,,,,457.2097,457.2097,457.2104,458.958,0,0,left,1.2234,,458.9588,462.4213,1,0,right,462.4303,462.4307,,0,,1,462.4307,462.4307,462.4311,463.9203,0,3,3,3,1,0.2,0.8,0.8,0.2,,,,,,,,,,,,,,,2.9311,,0.4,0.6,0.8,0.2,0.6,0.4,0.8,0.2,1,0,,,,,,,,,,,,
,,61251c2fc253fd0b4be31eef,66daf5b564b74c84df79a6ec,2024-09-06_14h38.38.744,mdp,2024.2.1,Win32,60.60606061,66d7945b1baad48e845df3ce,,,,,,,,,,,,,,,,,,,,,463.9205,463.9205,463.9212,466.3514,0,1,left,1.9036,,466.3522,467.7004,0,1,left,467.7012,467.7017,,1,,0,467.7017,467.7017,467.703,469.1991,0,4,4,4,1,0.2,0.8,0.8,0.2,,,,,,,,,,,,,,,0.8168,,0.4,0.6,0.8,0.2,0.6,0.4,0.8,0.2,1,0,,,,,,,,,,,,
,,61251c2fc253fd0b4be31eef,66daf5b564b74c84df79a6ec,2024-09-06_14h38.38.744,mdp,2024.2.1,Win32,60.60606061,66d7945b1baad48e845df3ce,,,,,,,,,,,,,,,,,,,,,469.1994,469.1994,469.2,470.5977,0,0,left,0.8721,,470.5984,472.7626,1,0,right,472.7635,472.7641,,0,,1,472.7642,472.7642,472.7655,474.2608,0,5,5,5,1,0.8,0.2,0.6,0.4,,,,,,,,,,,,,,,1.6311,,0.4,0.6,0.8,0.2,0.6,0.4,0.8,0.2,1,0,,,,,,,,,,,,
,,61251c2fc253fd0b4be31eef,66daf5b564b74c84df79a6ec,2024-09-06_14h38.38.744,mdp,2024.2.1,Win32,60.60606061,66d7945b1baad48e845df3ce,,,,,,,,,,,,,,,,,,,,,474.261,474.261,474.2616,475.9933,0,1,left,1.1975,,475.9941,477.1086,0,1,left,477.1095,477.1098,,0,,0,477.1099,477.1099,477.111,478.6074,0,6,6,6,1,0.8,0.2,0.6,0.4,,,,,,,,,,,,,,,0.5858,,0.4,0.6,0.8,0.2,0.6,0.4,0.8,0.2,1,0,,,,,,,,,,,,
,,61251c2fc253fd0b4be31eef,66daf5b564b74c84df79a6ec,2024-09-06_14h38.38.744,mdp,2024.2.1,Win32,60.60606061,66d7945b1baad48e845df3ce,,,,,,,,,,,,,,,,,,,,,478.6076,478.6076,478.6083,480.0891,0,0,left,0.9591,,480.0897,481.6548,1,0,right,481.6556,481.6561,,0,,1,481.6561,481.6561,481.6571,483.1535,0,7,7,7,1,0.8,0.2,0.6,0.4,,,,,,,,,,,,,,,1.0376,,0.4,0.6,0.8,0.2,0.6,0.4,0.8,0.2,1,0,,,,,,,,,,,,
,,61251c2fc253fd0b4be31eef,66daf5b564b74c84df79a6ec,2024-09-06_14h38.38.744,mdp,2024.2.1,Win32,60.60606061,66d7945b1baad48e845df3ce,,,,,,,,,,,,,,,,,,,,,483.1539,483.1539,483.1546,484.7188,0,0,left,1.0378,,484.7196,486.1341,1,0,right,486.135,486.1354,,0,,1,486.1354,486.1354,486.1365,487.633,0,8,8,8,1,0.8,0.2,0.6,0.4,,,,,,,,,,,,,,,0.8906,,0.4,0.6,0.8,0.2,0.6,0.4,0.8,0.2,1,0,,,,,,,,,,,,
,,61251c2fc253fd0b4be31eef,66daf5b564b74c84df79a6ec,2024-09-06_14h38.38.744,mdp,2024.2.1,Win32,60.60606061,66d7945b1baad48e845df3ce,,,,,,,,,,,,,,,,,,,,,487.6333,487.6333,487.634,489.1815,0,0,left,1.0262,,489.1823,490.5467,1,0,right,490.5473,490.5478,,0,,1,490.5478,490.5478,490.5497,492.0458,0,9,9,9,1,0.8,0.2,0.6,0.4,,,,,,,,,,,,,,,0.8447,,0.4,0.6,0.8,0.2,0.6,0.4,0.8,0.2,1,0,,,,,,,,,,,,
,,61251c2fc253fd0b4be31eef,66daf5b564b74c84df79a6ec,2024-09-06_14h38.38.744,mdp,2024.2.1,Win32,60.60606061,66d7945b1baad48e845df3ce,,,,,,,,,,,,,,,,,,,,,492.0461,492.0461,492.0467,493.7774,0,0,left,1.1989,,493.7783,495.093,1,0,right,495.0937,495.0942,,0,,1,495.0943,495.0943,495.0954,496.5917,0,10,10,10,1,0.8,0.2,0.6,0.4,,,,,,,,,,,,,,,0.7862,,0.4,0.6,0.8,0.2,0.4,0.6,0.4,0.6,1,0,,,,,,,,,,,,
,,61251c2fc253fd0b4be31eef,66daf5b564b74c84df79a6ec,2024-09-06_14h38.38.744,mdp,2024.2.1,Win32,60.60606061,66d7945b1baad48e845df3ce,,,,,,,,,,,,,,,,,,,,,496.5919,496.5919,496.5925,498.1737,0,1,left,1.0534,,498.1746,499.9218,1,0,right,499.9223,499.9227,,1,,1,499.9227,499.9227,499.9239,501.4204,0,11,11,11,1,0.8,0.2,0.6,0.4,,,,,,,,,,,,,,,1.2225,,0.4,0.6,0.8,0.2,0.4,0.6,0.4,0.6,1,0,,,,,,,,,,,,
,,61251c2fc253fd0b4be31eef,66daf5b564b74c84df79a6ec,2024-09-06_14h38.38.744,mdp,2024.2.1,Win32,60.60606061,66d7945b1baad48e845df3ce,,,,,,,,,,,,,,,,,,,,,501.4206,501.4206,501.4217,503.003,0,0,left,1.0531,,503.0038,504.4516,1,1,right,504.4525,504.4528,,0,,0,504.4529,504.4529,504.4541,505.9503,0,12,12,12,1,0.8,0.2,0.6,0.4,,,,,,,,,,,,,,,0.9121,,0.4,0.6,0.8,0.2,0.4,0.6,0.4,0.6,1,0,,,,,,,,,,,,
,,61251c2fc253fd0b4be31eef,66daf5b564b74c84df79a6ec,2024-09-06_14h38.38.744,mdp,2024.2.1,Win32,60.60606061,66d7945b1baad48e845df3ce,,,,,,,,,,,,,,,,,,,,,505.9505,505.9505,505.9512,507.7317,0,1,left,1.2535,,507.7325,509.6138,1,0,right,509.6146,509.615,,1,,1,509.615,509.615,509.6163,511.1121,0,13,13,13,1,0.8,0.2,0.6,0.4,,,,,,,,,,,,,,,1.346,,0.4,0.6,0.8,0.2,0.8,0.2,0.6,0.4,1,0,,,,,,,,,,,,
,,61251c2fc253fd0b4be31eef,66daf5b564b74c84df79a6ec,2024-09-06_14h38.38.744,mdp,2024.2.1,Win32,60.60606061,66d7945b1baad48e845df3ce,,,,,,,,,,,,,,,,,,,,,511.1123,511.1123,511.1129,512.4942,0,0,left,0.8514,,512.4948,514.493,0,1,left,514.4938,514.4945,,1,,0,514.4946,514.4946,514.4964,515.9914,0,14,14,14,1,0.8,0.2,0.6,0.4,,,,,,,,,,,,,,,1.4648,,0.4,0.6,0.8,0.2,0.8,0.2,0.6,0.4,1,0,,,,,,,,,,,,
,,61251c2fc253fd0b4be31eef,66daf5b564b74c84df79a6ec,2024-09-06_14h38.38.744,mdp,2024.2.1,Win32,60.60606061,66d7945b1baad48e845df3ce,,,,,,,,,,,,,,,,,,,,,515.9916,515.9916,515.9923,517.5065,0,0,left,0.9902,,517.5071,519.0388,1,1,right,519.0396,519.0401,,1,,0,519.0402,519.0402,519.0412,520.5374,0,15,15,15,1,0.8,0.2,0.6,0.4,,,,,,,,,,,,,,,1.0063,,0.4,0.6,0.8,0.2,0.8,0.2,0.6,0.4,1,0,,,,,,,,,,,,
,,61251c2fc253fd0b4be31eef,66daf5b564b74c84df79a6ec,2024-09-06_14h38.38.744,mdp,2024.2.1,Win32,60.60606061,66d7945b1baad48e845df3ce,,,,,,,,,,,,,,,,,,,,,520.5376,520.5377,520.5384,521.8033,0,0,left,0.7367,,521.804,523.2518,1,0,right,523.2526,523.2532,,0,,1,523.2534,523.2534,523.2546,524.7505,0,16,16,16,1,0.8,0.2,0.6,0.4,,,,,,,,,,,,,,,0.9163,,0.4,0.6,0.8,0.2,0.8,0.2,0.6,0.4,1,0,,,,,,,,,,,,
,,61251c2fc253fd0b4be31eef,66daf5b564b74c84df79a6ec,2024-09-06_14h38.38.744,mdp,2024.2.1,Win32,60.60606061,66d7945b1baad48e845df3ce,,,,,,,,,,,,,,,,,,,,,524.7507,524.7508,524.7514,526.2659,0,0,left,0.9908,,526.2668,527.6146,1,0,right,527.6154,527.616,,0,,1,527.6161,527.6161,527.6177,529.1131,0,17,17,17,1,0.8,0.2,0.6,0.4,,,,,,,,,,,,,,,0.8197,,0.4,0.6,0.8,0.2,0.8,0.2,0.6,0.4,1,0,,,,,,,,,,,,
,,61251c2fc253fd0b4be31eef,66daf5b564b74c84df79a6ec,2024-09-06_14h38.38.744,mdp,2024.2.1,Win32,60.60606061,66d7945b1baad48e845df3ce,,,,,,,,,,,,,,,,,,,,,529.1137,529.1137,529.1163,530.7296,0,0,left,1.0931,,530.7317,531.9945,0,0,left,531.9971,531.9975,,1,,1,531.9975,531.9976,531.9978,533.493,0,18,18,18,1,0.8,0.2,0.6,0.4,,,,,,,,,,,,,,,0.7326,,0.4,0.6,0.8,0.2,0.8,0.2,0.6,0.4,1,0,,,,,,,,,,,,
,,61251c2fc253fd0b4be31eef,66daf5b564b74c84df79a6ec,2024-09-06_14h38.38.744,mdp,2024.2.1,Win32,60.60606061,66d7945b1baad48e845df3ce,,,,,,,,,,,,,,,,,,,,,533.4938,533.4939,533.4958,534.9248,0,0,left,0.9085,,534.9275,536.1911,0,1,left,536.1935,536.1941,,1,,0,536.1941,536.1941,536.1944,537.6898,0,19,19,19,1,0.8,0.2,0.6,0.4,,,,,,,,,,,,,,,0.7397,,0.4,0.6,0.8,0.2,0.8,0.2,0.6,0.4,1,0,,,,,,,,,,,,
,,61251c2fc253fd0b4be31eef,66daf5b564b74c84df79a6ec,2024-09-06_14h38.38.744,mdp,2024.2.1,Win32,60.60606061,66d7945b1baad48e845df3ce,,,,,,,,,,,,,,,,,,,,,537.6912,537.6912,537.6924,539.9545,0,0,left,1.7354,,539.957,541.0529,1,0,right,541.0556,541.056,,0,,1,541.056,541.056,541.0564,542.5517,0,20,20,20,1,0.8,0.2,0.6,0.4,,,,,,,,,,,,,,,0.5694,,0.4,0.6,0.8,0.2,0.8,0.2,0.6,0.4,1,0,,,,,,,,,,,,
,,61251c2fc253fd0b4be31eef,66daf5b564b74c84df79a6ec,2024-09-06_14h38.38.744,mdp,2024.2.1,Win32,60.60606061,66d7945b1baad48e845df3ce,,,,,,,,,,,,,,,,,,,,,542.5526,542.5526,542.5548,543.8506,0,0,left,0.7756,,543.8533,545.0882,1,1,right,545.0891,545.0896,,1,,0,545.0897,545.0897,545.0901,546.5815,0,21,21,21,1,0.8,0.2,0.6,0.4,,,,,,,,,,,,,,,0.716,,0.4,0.6,0.8,0.2,0.8,0.2,0.6,0.4,1,0,,,,,,,,,,,,
,,61251c2fc253fd0b4be31eef,66daf5b564b74c84df79a6ec,2024-09-06_14h38.38.744,mdp,2024.2.1,Win32,60.60606061,66d7945b1baad48e845df3ce,,,,,,,,,,,,,,,,,,,,,546.582,546.582,546.5844,548.0963,0,0,left,0.9899,,548.099,549.4125,1,0,right,549.4154,549.4157,,0,,1,549.4159,549.4159,549.4162,550.911,0,22,22,22,1,0.8,0.2,0.6,0.4,,,,,,,,,,,,,,,0.7854,,0.4,0.6,0.8,0.2,0.4,0.6,0.2,0.8,1,0,,,,,,,,,,,,
,,61251c2fc253fd0b4be31eef,66daf5b564b74c84df79a6ec,2024-09-06_14h38.38.744,mdp,2024.2.1,Win32,60.60606061,66d7945b1baad48e845df3ce,,,,,,,,,,,,,,,,,,,,,550.9118,550.9118,550.914,552.3429,0,0,left,0.8996,,552.3455,553.5587,1,0,right,553.5612,553.5617,,1,,1,553.5617,553.5617,553.5621,555.0574,0,23,23,23,1,0.8,0.2,0.6,0.4,,,,,,,,,,,,,,,0.6876,,0.2,0.8,0.6,0.4,0.4,0.6,0.2,0.8,1,0,,,,,,,,,,,,
,,61251c2fc253fd0b4be31eef,66daf5b564b74c84df79a6ec,2024-09-06_14h38.38.744,mdp,2024.2.1,Win32,60.60606061,66d7945b1baad48e845df3ce,,,,,,,,,,,,,,,,,,,,,555.0586,555.0586,555.0604,556.5728,0,0,left,0.9826,,556.5754,557.9052,1,0,right,557.9082,557.9088,,0,,1,557.9088,557.9088,557.9094,559.4037,0,24,24,24,1,0.8,0.2,0.6,0.4,,,,,,,,,,,,,,,0.7995,,0.2,0.8,0.6,0.4,0.4,0.6,0.2,0.8,1,0,,,,,,,,,,,,
,,61251c2fc253fd0b4be31eef,66daf5b564b74c84df79a6ec,2024-09-06_14h38.38.744,mdp,2024.2.1,Win32,60.60606061,66d7945b1baad48e845df3ce,,,,,,,,,,,,,,,,,,,,,559.4043,559.4044,559.4067,560.8523,0,0,left,0.9207,,560.8551,562.2352,1,1,right,562.2377,562.2382,,0,,0,562.2383,562.2383,562.2391,563.7329,0,25,25,25,1,0.8,0.2,0.6,0.4,,,,,,,,,,,,,,,0.8502,,0.2,0.8,0.6,0.4,0.2,0.8,0.4,0.6,1,0,,,,,,,,,,,,
,,61251c2fc253fd0b4be31eef,66daf5b564b74c84df79a6ec,2024-09-06_14h38.38.744,mdp,2024.2.1,Win32,60.60606061,66d7945b1baad48e845df3ce,,,,,,,,,,,,,,,,,,,,,563.7335,563.7335,563.7359,565.1651,0,0,left,0.8998,,565.1676,566.7526,0,1,left,566.7533,566.7536,,1,,0,566.7536,566.7536,566.7539,568.2457,0,26,26,26,1,0.8,0.2,0.6,0.4,,,,,,,,,,,,,,,1.0651,,0.2,0.8,0.6,0.4,0.2,0.8,0.4,0.6,1,0,,,,,,,,,,,,
,,61251c2fc253fd0b4be31eef,66daf5b564b74c84df79a6ec,2024-09-06_14h38.38.744,mdp,2024.2.1,Win32,60.60606061,66d7945b1baad48e845df3ce,,,,,,,,,,,,,,,,,,,,,568.2462,568.2463,568.2485,569.328,0,0,left,0.5591,,569.3306,570.6606,1,1,right,570.6632,570.6637,,0,,0,570.6637,570.6637,570.6641,572.1591,0,27,27,27,1,0.8,0.2,0.6,0.4,,,,,,,,,,,,,,,0.8012,,0.2,0.8,0.6,0.4,0.2,0.8,0.4,0.6,1,0,,,,,,,,,,,,
,,61251c2fc253fd0b4be31eef,66daf5b564b74c84df79a6ec,2024-09-06_14h38.38.744,mdp,2024.2.1,Win32,60.60606061,66d7945b1baad48e845df3ce,,,,,,,,,,,,,,,,,,,,,572.1598,572.1598,572.1619,573.1756,0,0,left,0.492,,573.1779,574.2907,1,0,right,574.2935,574.294,,0,,1,574.294,574.294,574.2943,575.7893,0,28,28,28,1,0.8,0.2,0.6,0.4,,,,,,,,,,,,,,,0.5825,,0.2,0.8,0.6,0.4,0.2,0.8,0.4,0.6,1,0,,,,,,,,,,,,
,,61251c2fc253fd0b4be31eef,66daf5b564b74c84df79a6ec,2024-09-06_14h38.38.744,mdp,2024.2.1,Win32,60.60606061,66d7945b1baad48e845df3ce,,,,,,,,,,,,,,,,,,,,,575.79,575.7901,575.7921,576.8214,0,0,left,0.5066,,576.8238,578.0704,1,1,right,578.0728,578.0734,,0,,0,578.0734,578.0734,578.0738,579.5694,0,29,29,29,1,0.8,0.2,0.6,0.4,,,,,,,,,,,,,,,0.7232,,0.2,0.8,0.6,0.4,0.2,0.8,0.4,0.6,1,0,,,,,,,,,,,,
,,61251c2fc253fd0b4be31eef,66daf5b564b74c84df79a6ec,2024-09-06_14h38.38.744,mdp,2024.2.1,Win32,60.60606061,66d7945b1baad48e845df3ce,,,,,,,,,,,,,,,,,,,,,579.5698,579.5699,579.5722,580.2522,0,0,left,0.151,,580.2548,582.1174,1,1,right,582.1199,582.1202,,0,,0,582.1203,582.1203,582.1207,583.6156,0,30,30,30,1,0.8,0.2,0.6,0.4,,,,,,,,,,,,,,,1.3328,,0.2,0.8,0.6,0.4,0.2,0.8,0.4,0.6,1,0,,,,,,,,,,,,
,,61251c2fc253fd0b4be31eef,66daf5b564b74c84df79a6ec,2024-09-06_14h38.38.744,mdp,2024.2.1,Win32,60.60606061,66d7945b1baad48e845df3ce,,,,,,,,,,,,,,,,,,,,,583.6159,583.616,583.6185,584.5487,0,0,left,0.4008,,584.5511,585.9808,1,1,right,585.9834,585.9839,,0,,0,585.9839,585.9839,585.9843,587.4794,0,31,31,31,1,0.8,0.2,0.6,0.4,,,,,,,,,,,,,,,0.9001,,0.2,0.8,0.6,0.4,0.2,0.8,0.4,0.6,1,0,,,,,,,,,,,,
,,61251c2fc253fd0b4be31eef,66daf5b564b74c84df79a6ec,2024-09-06_14h38.38.744,mdp,2024.2.1,Win32,60.60606061,66d7945b1baad48e845df3ce,,,,,,,,,,,,,,,,,,,,,587.4807,587.4807,587.4822,588.328,0,0,left,0.3218,,588.3305,589.7767,1,1,right,589.7791,589.7797,,1,,0,589.7798,589.7798,589.7802,591.2754,0,32,32,32,1,0.8,0.2,0.6,0.4,,,,,,,,,,,,,,,0.9162,,0.2,0.8,0.6,0.4,0.2,0.8,0.4,0.6,1,0,,,,,,,,,,,,
,,61251c2fc253fd0b4be31eef,66daf5b564b74c84df79a6ec,2024-09-06_14h38.38.744,mdp,2024.2.1,Win32,60.60606061,66d7945b1baad48e845df3ce,,,,,,,,,,,,,,,,,,,,,591.2764,591.2764,591.2783,592.1914,0,0,left,0.3913,,592.1942,593.0749,1,1,right,593.0769,593.0772,,0,,0,593.0773,593.0773,593.0775,594.5737,0,33,33,33,1,0.8,0.2,0.6,0.4,,,,,,,,,,,,,,,0.3505,,0.2,0.8,0.6,0.4,0.2,0.8,0.4,0.6,1,0,,,,,,,,,,,,
,,61251c2fc253fd0b4be31eef,66daf5b564b74c84df79a6ec,2024-09-06_14h38.38.744,mdp,2024.2.1,Win32,60.60606061,66d7945b1baad48e845df3ce,,,,,,,,,,,,,,,,,,,,,594.5753,594.5753,594.5762,596.0557,0,1,left,0.9526,,596.0583,596.609,0,1,left,596.6096,596.6099,,1,,0,596.6099,596.6099,596.6103,598.1027,0,34,34,34,1,0.8,0.2,0.6,0.4,,,,,,,,,,,,,,,0.0173,,0.2,0.8,0.6,0.4,0.2,0.8,0.4,0.6,1,0,,,,,,,,,,,,
,,61251c2fc253fd0b4be31eef,66daf5b564b74c84df79a6ec,2024-09-06_14h38.38.744,mdp,2024.2.1,Win32,60.60606061,66d7945b1baad48e845df3ce,,,,,,,,,,,,,,,,,,,,,598.1036,598.1036,598.106,599.0528,0,0,left,0.4274,,599.055,600.5681,1,0,right,600.5705,600.571,,0,,1,600.571,600.571,600.5713,602.066,0,35,35,35,1,0.8,0.2,0.6,0.4,,,,,,,,,,,,,,,0.9734,,0.2,0.8,0.6,0.4,0.2,0.8,0.4,0.6,1,0,,,,,,,,,,,,
,,61251c2fc253fd0b4be31eef,66daf5b564b74c84df79a6ec,2024-09-06_14h38.38.744,mdp,2024.2.1,Win32,60.60606061,66d7945b1baad48e845df3ce,,,,,,,,,,,,,,,,,,,,,602.0666,602.0666,602.0692,603.2661,0,1,left,0.6685,,603.2683,604.3975,1,1,right,604.4001,604.4004,,0,,0,604.4004,604.4004,604.4008,605.8963,0,36,36,36,1,0.8,0.2,0.6,0.4,,,,,,,,,,,,,,,0.5903,,0.2,0.8,0.6,0.4,0.2,0.8,0.4,0.6,1,0,,,,,,,,,,,,
,,61251c2fc253fd0b4be31eef,66daf5b564b74c84df79a6ec,2024-09-06_14h38.38.744,mdp,2024.2.1,Win32,60.60606061,66d7945b1baad48e845df3ce,,,,,,,,,,,,,,,,,,,,,605.8971,605.8971,605.8991,607.3952,0,0,left,0.9676,,607.3977,608.577,1,1,right,608.5799,608.5803,,1,,0,608.5803,608.5803,608.5806,610.0762,0,37,37,37,1,0.8,0.2,0.6,0.4,,,,,,,,,,,,,,,0.633,,0.2,0.8,0.6,0.4,0.2,0.8,0.4,0.6,1,0,,,,,,,,,,,,
,,61251c2fc253fd0b4be31eef,66daf5b564b74c84df79a6ec,2024-09-06_14h38.38.744,mdp,2024.2.1,Win32,60.60606061,66d7945b1baad48e845df3ce,,,,,,,,,,,,,,,,,,,,,610.0772,610.0772,610.0791,611.0087,0,0,left,0.4006,,611.0113,611.9074,0,0,left,611.91,611.9104,,1,,1,611.9104,611.9104,611.9109,613.4064,0,38,38,38,1,0.8,0.2,0.6,0.4,,,,,,,,,,,,,,,0.3732,,0.2,0.8,0.6,0.4,0.2,0.8,0.4,0.6,1,0,,,,,,,,,,,,
,,61251c2fc253fd0b4be31eef,66daf5b564b74c84df79a6ec,2024-09-06_14h38.38.744,mdp,2024.2.1,Win32,60.60606061,66d7945b1baad48e845df3ce,,,,,,,,,,,,,,,,,,,,,613.4074,613.4074,613.4093,614.3053,0,0,left,0.3767,,614.3079,615.3383,0,1,left,615.3409,615.3414,,1,,0,615.3414,615.3414,615.3418,616.8365,0,39,39,39,1,0.8,0.2,0.6,0.4,,,,,,,,,,,,,,,0.5049,,0.2,0.8,0.6,0.4,0.2,0.8,0.4,0.6,1,0,,,,,,,,,,,,
,,61251c2fc253fd0b4be31eef,66daf5b564b74c84df79a6ec,2024-09-06_14h38.38.744,mdp,2024.2.1,Win32,60.60606061,66d7945b1baad48e845df3ce,,,,,,,,,,,,,,,,,,,,,616.8372,616.8373,616.8394,617.9028,0,0,left,0.5386,,617.9053,619.1017,1,0,right,619.1045,619.1049,,1,,1,619.1049,619.1049,619.1053,620.6002,0,40,40,40,1,0.8,0.2,0.6,0.4,,,,,,,,,,,,,,,0.6682,,0.8,0.2,0.2,0.8,0.2,0.8,0.4,0.6,1,0,,,,,,,,,,,,
,,61251c2fc253fd0b4be31eef,66daf5b564b74c84df79a6ec,2024-09-06_14h38.38.744,mdp,2024.2.1,Win32,60.60606061,66d7945b1baad48e845df3ce,,,,,,,,,,,,,,,,,,,,,620.6009,620.6009,620.6031,621.5171,0,0,left,0.3858,,621.5189,622.6323,1,1,right,622.6346,622.6349,,1,,0,622.635,622.635,622.6353,624.1305,0,41,41,41,1,0.8,0.2,0.6,0.4,,,,,,,,,,,,,,,0.5872,,0.8,0.2,0.2,0.8,0.2,0.8,0.4,0.6,1,0,,,,,,,,,,,,
,,61251c2fc253fd0b4be31eef,66daf5b564b74c84df79a6ec,2024-09-06_14h38.38.744,mdp,2024.2.1,Win32,60.60606061,66d7945b1baad48e845df3ce,,,,,,,,,,,,,,,,,,,,,624.1309,624.1309,624.1335,625.013,0,0,left,0.3583,,625.0157,626.1459,1,1,right,626.1484,626.1489,,1,,0,626.1489,626.1489,626.1493,627.6441,0,42,42,42,1,0.8,0.2,0.6,0.4,,,,,,,,,,,,,,,0.6054,,0.8,0.2,0.2,0.8,0.2,0.8,0.4,0.6,1,0,,,,,,,,,,,,
,,61251c2fc253fd0b4be31eef,66daf5b564b74c84df79a6ec,2024-09-06_14h38.38.744,mdp,2024.2.1,Win32,60.60606061,66d7945b1baad48e845df3ce,,,,,,,,,,,,,,,,,,,,,627.6446,627.6446,627.647,628.7098,0,0,left,0.5381,,628.7131,629.6924,0,0,left,629.6949,629.6953,,0,,1,629.6953,629.6953,629.6957,631.1905,0,43,43,43,1,0.8,0.2,0.6,0.4,,,,,,,,,,,,,,,0.45,,0.8,0.2,0.2,0.8,0.2,0.8,0.4,0.6,1,0,,,,,,,,,,,,
,,61251c2fc253fd0b4be31eef,66daf5b564b74c84df79a6ec,2024-09-06_14h38.38.744,mdp,2024.2.1,Win32,60.60606061,66d7945b1baad48e845df3ce,,,,,,,,,,,,,,,,,,,,,631.1912,631.1913,631.1934,632.1231,0,1,left,0.4102,,632.1263,633.1888,0,1,left,633.1914,633.1919,,1,,0,633.1919,633.1919,633.1923,634.6878,0,44,44,44,1,0.8,0.2,0.6,0.4,,,,,,,,,,,,,,,0.5207,,0.8,0.2,0.2,0.8,0.2,0.8,0.4,0.6,1,0,,,,,,,,,,,,
,,61251c2fc253fd0b4be31eef,66daf5b564b74c84df79a6ec,2024-09-06_14h38.38.744,mdp,2024.2.1,Win32,60.60606061,66d7945b1baad48e845df3ce,,,,,,,,,,,,,,,,,,,,,634.6885,634.6885,634.6907,635.521,0,0,left,0.3071,,635.5235,636.753,1,1,right,636.7555,636.756,,1,,0,636.7561,636.7561,636.7564,638.2515,0,45,45,45,1,0.8,0.2,0.6,0.4,,,,,,,,,,,,,,,0.6832,,0.8,0.2,0.2,0.8,0.2,0.8,0.4,0.6,1,0,,,,,,,,,,,,
,,61251c2fc253fd0b4be31eef,66daf5b564b74c84df79a6ec,2024-09-06_14h38.38.744,mdp,2024.2.1,Win32,60.60606061,66d7945b1baad48e845df3ce,,,,,,,,,,,,,,,,,,,,,638.2523,638.2523,638.2546,639.1171,0,0,left,0.3331,,639.1197,640.0164,0,1,left,640.0189,640.0193,,0,,0,640.0194,640.0194,640.0198,641.5153,0,46,46,46,1,0.8,0.2,0.6,0.4,,,,,,,,,,,,,,,0.3678,,0.8,0.2,0.2,0.8,0.2,0.8,0.4,0.6,1,0,,,,,,,,,,,,
,,61251c2fc253fd0b4be31eef,66daf5b564b74c84df79a6ec,2024-09-06_14h38.38.744,mdp,2024.2.1,Win32,60.60606061,66d7945b1baad48e845df3ce,,,,,,,,,,,,,,,,,,,,,641.5161,641.5161,641.5183,642.3146,0,0,left,0.2749,,642.3174,643.1145,0,0,left,643.1169,643.1172,,0,,1,643.1172,643.1172,643.1176,644.6126,0,47,47,47,1,0.8,0.2,0.6,0.4,,,,,,,,,,,,,,,0.273,,0.8,0.2,0.2,0.8,0.2,0.8,0.4,0.6,1,0,,,,,,,,,,,,
,,61251c2fc253fd0b4be31eef,66daf5b564b74c84df79a6ec,2024-09-06_14h38.38.744,mdp,2024.2.1,Win32,60.60606061,66d7945b1baad48e845df3ce,,,,,,,,,,,,,,,,,,,,,644.6138,644.6139,644.6155,645.4783,0,0,left,0.3397,,645.4807,646.3618,0,0,left,646.3641,646.3645,,0,,1,646.3645,646.3645,646.3648,647.8598,0,48,48,48,1,0.8,0.2,0.6,0.4,,,,,,,,,,,,,,,0.3496,,0.8,0.2,0.2,0.8,0.2,0.8,0.4,0.6,1,0,,,,,,,,,,,,
,,61251c2fc253fd0b4be31eef,66daf5b564b74c84df79a6ec,2024-09-06_14h38.38.744,mdp,2024.2.1,Win32,60.60606061,66d7945b1baad48e845df3ce,,,,,,,,,,,,,,,,,,,,,647.8603,647.8604,647.8627,649.1758,0,0,left,0.7837,,649.1782,650.0242,0,1,left,650.0271,650.0276,,0,,0,650.0276,650.0276,650.028,651.5234,0,49,49,49,1,0.8,0.2,0.6,0.4,,,,,,,,,,,,,,,0.3217,,0.8,0.2,0.2,0.8,0.2,0.8,0.4,0.6,1,0,,,,,,,,,,,,
,,61251c2fc253fd0b4be31eef,66daf5b564b74c84df79a6ec,2024-09-06_14h38.38.744,mdp,2024.2.1,Win32,60.60606061,66d7945b1baad48e845df3ce,,,,,,,,,,,,,,,,,,,,,,,,,,,,,,,,,,,,,,,,,,,,,,,,,,,,,,,,651.5234,710.039,0,1,1,3,1,imgs/goat.png,imgs/elephant.png,imgs/kangaroo.png,imgs/bear.png,imgs/lion.png,,,,,,,,,,,,,,,,,,,,,,,,
,,61251c2fc253fd0b4be31eef,66daf5b564b74c84df79a6ec,2024-09-06_14h38.38.744,mdp,2024.2.1,Win32,60.60606061,66d7945b1baad48e845df3ce,,,,,,,,,,,,,,3,seqs/st3seq6.csv,710.0491,889.5824,space,179.0121,,889.5968,889.5968,889.5973,893.3624,1,1,right,3.2413,,893.3649,895.0445,1,0,right,895.0472,896.393,1,0,right,1,896.3931,896.3931,896.3956,897.8917,0,0,0,0,1,0.6,0.4,0.4,0.6,,,,,,,,,,,,,,,1.1324,,0.2,0.8,0.8,0.2,0.8,0.2,0.8,0.2,,,0.8039,,0.8,0.2,0.4,0.6,0.2,0.8,0.8,0.2,1,0
,,61251c2fc253fd0b4be31eef,66daf5b564b74c84df79a6ec,2024-09-06_14h38.38.744,mdp,2024.2.1,Win32,60.60606061,66d7945b1baad48e845df3ce,,,,,,,,,,,,,,,,,,,,,897.8926,897.8926,897.8946,899.3739,1,0,right,0.956,,899.3767,902.4543,0,1,left,902.464,904.0029,0,1,left,0,904.0029,904.0029,904.0055,905.5018,0,1,1,1,1,0.6,0.4,0.4,0.6,,,,,,,,,,,,,,,2.5319,,0.2,0.8,0.8,0.2,0.8,0.2,0.8,0.2,,,1.0055,,0.8,0.2,0.4,0.6,0.2,0.8,0.8,0.2,1,0
,,61251c2fc253fd0b4be31eef,66daf5b564b74c84df79a6ec,2024-09-06_14h38.38.744,mdp,2024.2.1,Win32,60.60606061,66d7945b1baad48e845df3ce,,,,,,,,,,,,,,,,,,,,,905.5028,905.5028,905.5046,908.0496,1,1,right,2.0217,,908.0592,909.4817,1,0,right,909.4845,910.8806,1,1,right,0,910.8808,910.8808,910.8832,912.379,0,2,2,2,1,0.6,0.4,0.4,0.6,,,,,,,,,,,,,,,0.8843,,0.2,0.8,0.8,0.2,0.8,0.2,0.8,0.2,,,0.8503,,0.8,0.2,0.4,0.6,0.2,0.8,0.8,0.2,1,0
,,61251c2fc253fd0b4be31eef,66daf5b564b74c84df79a6ec,2024-09-06_14h38.38.744,mdp,2024.2.1,Win32,60.60606061,66d7945b1baad48e845df3ce,,,,,,,,,,,,,,,,,,,,,912.3798,912.3798,912.3818,914.078,1,0,right,1.1677,,914.0804,916.1759,0,0,left,916.1785,917.5248,1,1,right,0,917.525,917.5251,917.5274,919.0234,0,3,3,3,1,0.6,0.4,0.4,0.6,,,,,,,,,,,,,,,1.5499,,0.2,0.8,0.8,0.2,0.8,0.2,0.8,0.2,,,0.8238,,0.8,0.2,0.4,0.6,0.2,0.8,0.8,0.2,1,0
,,61251c2fc253fd0b4be31eef,66daf5b564b74c84df79a6ec,2024-09-06_14h38.38.744,mdp,2024.2.1,Win32,60.60606061,66d7945b1baad48e845df3ce,,,,,,,,,,,,,,,,,,,,,919.0245,919.0245,919.0263,920.5054,1,0,right,0.956,,920.508,925.3845,1,0,right,925.394,926.5165,1,0,right,1,926.5166,926.5167,926.5193,928.0155,0,4,4,4,1,0.6,0.4,0.4,0.6,,,,,,,,,,,,,,,4.3508,,0.2,0.8,0.8,0.2,0.8,0.2,0.8,0.2,,,0.6066,,0.8,0.2,0.4,0.6,0.2,0.8,0.8,0.2,1,0
,,61251c2fc253fd0b4be31eef,66daf5b564b74c84df79a6ec,2024-09-06_14h38.38.744,mdp,2024.2.1,Win32,60.60606061,66d7945b1baad48e845df3ce,,,,,,,,,,,,,,,,,,,,,928.0166,928.0167,928.0185,929.1816,1,0,right,0.6327,,929.1842,930.5463,1,0,right,930.5489,931.5957,1,1,right,0,931.5957,931.5957,931.5984,933.0944,0,5,5,5,1,0.6,0.4,0.4,0.6,,,,,,,,,,,,,,,0.8334,,0.2,0.8,0.8,0.2,0.8,0.2,0.8,0.2,,,0.5171,,0.8,0.2,0.4,0.6,0.2,0.8,0.8,0.2,1,0
,,61251c2fc253fd0b4be31eef,66daf5b564b74c84df79a6ec,2024-09-06_14h38.38.744,mdp,2024.2.1,Win32,60.60606061,66d7945b1baad48e845df3ce,,,,,,,,,,,,,,,,,,,,,933.0953,933.0953,933.0973,934.4935,1,0,right,0.8663,,934.4959,935.892,1,0,right,935.8944,936.8911,1,1,right,0,936.8912,936.8912,936.8937,938.3897,0,6,6,6,1,0.6,0.4,0.4,0.6,,,,,,,,,,,,,,,0.8707,,0.2,0.8,0.8,0.2,0.8,0.2,0.8,0.2,,,0.4665,,0.8,0.2,0.4,0.6,0.2,0.8,0.8,0.2,1,0
,,61251c2fc253fd0b4be31eef,66daf5b564b74c84df79a6ec,2024-09-06_14h38.38.744,mdp,2024.2.1,Win32,60.60606061,66d7945b1baad48e845df3ce,,,,,,,,,,,,,,,,,,,,,938.3904,938.3904,938.3927,942.4361,1,1,right,3.5161,,942.4459,943.685,1,0,right,943.6875,945.0838,0,1,left,0,945.0839,945.0839,945.0864,946.5821,0,7,7,7,1,0.6,0.4,0.4,0.6,,,,,,,,,,,,,,,0.6998,,0.2,0.8,0.8,0.2,0.8,0.2,0.8,0.2,,,0.871,,0.4,0.6,0.2,0.8,0.2,0.8,0.8,0.2,1,0
,,61251c2fc253fd0b4be31eef,66daf5b564b74c84df79a6ec,2024-09-06_14h38.38.744,mdp,2024.2.1,Win32,60.60606061,66d7945b1baad48e845df3ce,,,,,,,,,,,,,,,,,,,,,946.583,946.5832,946.5852,947.8482,1,1,right,0.7335,,947.8508,948.864,1,0,right,948.8668,949.8964,1,1,right,0,949.8965,949.8966,949.8992,951.3946,0,8,8,8,1,0.6,0.4,0.4,0.6,,,,,,,,,,,,,,,0.4871,,0.2,0.8,0.8,0.2,0.2,0.8,0.2,0.8,,,0.4994,,0.4,0.6,0.2,0.8,0.2,0.8,0.8,0.2,1,0
,,61251c2fc253fd0b4be31eef,66daf5b564b74c84df79a6ec,2024-09-06_14h38.38.744,mdp,2024.2.1,Win32,60.60606061,66d7945b1baad48e845df3ce,,,,,,,,,,,,,,,,,,,,,951.3954,951.3955,951.3975,952.7271,1,0,right,0.8021,,952.7298,953.9258,1,0,right,953.9283,954.9253,1,0,right,1,954.9254,954.9254,954.928,956.424,0,9,9,9,1,0.6,0.4,0.4,0.6,,,,,,,,,,,,,,,0.6599,,0.2,0.8,0.8,0.2,0.2,0.8,0.2,0.8,,,0.4665,,0.4,0.6,0.2,0.8,0.2,0.8,0.8,0.2,1,0
,,61251c2fc253fd0b4be31eef,66daf5b564b74c84df79a6ec,2024-09-06_14h38.38.744,mdp,2024.2.1,Win32,60.60606061,66d7945b1baad48e845df3ce,,,,,,,,,,,,,,,,,,,,,956.4247,956.4247,956.4269,957.6402,1,1,right,0.6895,,957.6426,958.7554,1,1,right,958.758,959.788,1,0,right,1,959.7882,959.7882,959.7904,961.2863,0,10,10,10,1,0.6,0.4,0.4,0.6,,,,,,,,,,,,,,,0.5667,,0.2,0.8,0.8,0.2,0.2,0.8,0.2,0.8,,,0.4838,,0.4,0.6,0.2,0.8,0.2,0.8,0.8,0.2,1,0
,,61251c2fc253fd0b4be31eef,66daf5b564b74c84df79a6ec,2024-09-06_14h38.38.744,mdp,2024.2.1,Win32,60.60606061,66d7945b1baad48e845df3ce,,,,,,,,,,,,,,,,,,,,,961.2868,961.2869,961.2892,962.9019,1,1,right,1.0901,,962.9044,964.0511,1,1,right,964.0536,965.133,1,0,right,1,965.1331,965.1331,965.1356,966.6318,0,11,11,11,1,0.6,0.4,0.4,0.6,,,,,,,,,,,,,,,0.6198,,0.2,0.8,0.8,0.2,0.2,0.8,0.2,0.8,,,0.5598,,0.4,0.6,0.2,0.8,0.2,0.8,0.8,0.2,1,0
,,61251c2fc253fd0b4be31eef,66daf5b564b74c84df79a6ec,2024-09-06_14h38.38.744,mdp,2024.2.1,Win32,60.60606061,66d7945b1baad48e845df3ce,,,,,,,,,,,,,,,,,,,,,966.6324,966.6324,966.6347,968.1467,1,0,right,0.983,,968.1494,969.1962,1,0,right,969.1988,970.2615,1,0,right,1,970.2616,970.2616,970.2643,971.7602,0,12,12,12,1,0.6,0.4,0.4,0.6,,,,,,,,,,,,,,,0.4999,,0.2,0.8,0.8,0.2,0.2,0.8,0.2,0.8,,,0.5171,,0.4,0.6,0.2,0.8,0.2,0.8,0.8,0.2,1,0
,,61251c2fc253fd0b4be31eef,66daf5b564b74c84df79a6ec,2024-09-06_14h38.38.744,mdp,2024.2.1,Win32,60.60606061,66d7945b1baad48e845df3ce,,,,,,,,,,,,,,,,,,,,,971.7607,971.7607,971.763,973.0766,1,1,right,0.7834,,973.0792,974.1921,1,1,right,974.1947,975.1575,1,0,right,1,975.1576,975.1576,975.1604,976.6563,0,13,13,13,1,0.6,0.4,0.4,0.6,,,,,,,,,,,,,,,0.5727,,0.2,0.8,0.8,0.2,0.2,0.8,0.2,0.8,,,0.4196,,0.6,0.4,0.8,0.2,0.2,0.8,0.8,0.2,1,0
,,61251c2fc253fd0b4be31eef,66daf5b564b74c84df79a6ec,2024-09-06_14h38.38.744,mdp,2024.2.1,Win32,60.60606061,66d7945b1baad48e845df3ce,,,,,,,,,,,,,,,,,,,,,976.6571,976.6571,976.6591,977.672,1,1,right,0.4914,,977.6747,978.7043,1,1,right,978.707,979.7041,1,0,right,1,979.7042,979.7042,979.7064,981.2025,0,14,14,14,1,0.6,0.4,0.4,0.6,,,,,,,,,,,,,,,0.503,,0.8,0.2,0.6,0.4,0.2,0.8,0.2,0.8,,,0.467,,0.6,0.4,0.8,0.2,0.2,0.8,0.8,0.2,1,0
,,61251c2fc253fd0b4be31eef,66daf5b564b74c84df79a6ec,2024-09-06_14h38.38.744,mdp,2024.2.1,Win32,60.60606061,66d7945b1baad48e845df3ce,,,,,,,,,,,,,,,,,,,,,981.2033,981.2033,981.2054,982.3181,1,0,right,0.5833,,982.3206,983.3168,1,0,right,983.3194,984.3325,1,0,right,1,984.3326,984.3326,984.3351,985.8317,0,15,15,15,1,0.6,0.4,0.4,0.6,,,,,,,,,,,,,,,0.4541,,0.8,0.2,0.6,0.4,0.2,0.8,0.2,0.8,,,0.4774,,0.6,0.4,0.8,0.2,0.2,0.8,0.8,0.2,1,0
,,61251c2fc253fd0b4be31eef,66daf5b564b74c84df79a6ec,2024-09-06_14h38.38.744,mdp,2024.2.1,Win32,60.60606061,66d7945b1baad48e845df3ce,,,,,,,,,,,,,,,,,,,,,985.8325,985.8325,985.8346,986.8311,1,0,right,0.4727,,986.8337,987.7799,1,0,right,987.7826,988.9123,1,0,right,1,988.9124,988.9124,988.9148,990.411,0,16,16,16,1,0.6,0.4,0.4,0.6,,,,,,,,,,,,,,,0.4234,,0.8,0.2,0.6,0.4,0.2,0.8,0.2,0.8,,,0.6076,,0.6,0.4,0.8,0.2,0.2,0.8,0.8,0.2,1,0
,,61251c2fc253fd0b4be31eef,66daf5b564b74c84df79a6ec,2024-09-06_14h38.38.744,mdp,2024.2.1,Win32,60.60606061,66d7945b1baad48e845df3ce,,,,,,,,,,,,,,,,,,,,,990.412,990.412,990.414,991.5438,1,1,right,0.6002,,991.5462,992.7424,1,0,right,992.7451,993.9415,1,0,right,1,993.9416,993.9416,993.9441,995.44,0,17,17,17,1,0.6,0.4,0.4,0.6,,,,,,,,,,,,,,,0.6578,,0.8,0.2,0.6,0.4,0.2,0.8,0.2,0.8,,,0.6722,,0.6,0.4,0.8,0.2,0.2,0.8,0.8,0.2,1,0
,,61251c2fc253fd0b4be31eef,66daf5b564b74c84df79a6ec,2024-09-06_14h38.38.744,mdp,2024.2.1,Win32,60.60606061,66d7945b1baad48e845df3ce,,,,,,,,,,,,,,,,,,,,,995.441,995.441,995.4429,996.489,1,0,right,0.5164,,996.4918,997.4883,1,0,right,997.4909,998.5377,1,1,right,0,998.5379,998.5379,998.54,1000.0357,0,18,18,18,1,0.6,0.4,0.4,0.6,,,,,,,,,,,,,,,0.4501,,0.8,0.2,0.6,0.4,0.2,0.8,0.2,0.8,,,0.5234,,0.6,0.4,0.8,0.2,0.2,0.8,0.8,0.2,1,0
,,61251c2fc253fd0b4be31eef,66daf5b564b74c84df79a6ec,2024-09-06_14h38.38.744,mdp,2024.2.1,Win32,60.60606061,66d7945b1baad48e845df3ce,,,,,,,,,,,,,,,,,,,,,1000.0366,1000.0366,1000.0385,1001.0351,1,1,right,0.4742,,1001.0379,1002.0512,1,0,right,1002.0537,1003.0163,1,0,right,1,1003.0163,1003.0163,1003.0189,1004.5155,0,19,19,19,1,0.6,0.4,0.4,0.6,,,,,,,,,,,,,,,0.4666,,0.8,0.2,0.6,0.4,0.2,0.8,0.2,0.8,,,0.4439,,0.6,0.4,0.8,0.2,0.2,0.8,0.8,0.2,1,0
,,61251c2fc253fd0b4be31eef,66daf5b564b74c84df79a6ec,2024-09-06_14h38.38.744,mdp,2024.2.1,Win32,60.60606061,66d7945b1baad48e845df3ce,,,,,,,,,,,,,,,,,,,,,1004.5164,1004.5165,1004.5185,1005.3982,1,0,right,0.3503,,1005.4007,1006.5143,1,0,right,1006.5165,1007.4124,1,0,right,1,1007.4124,1007.4124,1007.415,1008.9116,0,20,20,20,1,0.6,0.4,0.4,0.6,,,,,,,,,,,,,,,0.567,,0.8,0.2,0.6,0.4,0.8,0.2,0.4,0.6,,,0.3768,,0.6,0.4,0.8,0.2,0.2,0.8,0.8,0.2,1,0
,,61251c2fc253fd0b4be31eef,66daf5b564b74c84df79a6ec,2024-09-06_14h38.38.744,mdp,2024.2.1,Win32,60.60606061,66d7945b1baad48e845df3ce,,,,,,,,,,,,,,,,,,,,,1008.9124,1008.9124,1008.9146,1009.8444,1,0,right,0.4003,,1009.847,1011.2095,1,0,right,1011.2124,1012.2087,1,0,right,1,1012.2089,1012.209,1012.2114,1013.7072,0,21,21,21,1,0.6,0.4,0.4,0.6,,,,,,,,,,,,,,,0.8398,,0.8,0.2,0.6,0.4,0.8,0.2,0.4,0.6,,,0.4667,,0.6,0.4,0.8,0.2,0.2,0.8,0.8,0.2,1,0
,,61251c2fc253fd0b4be31eef,66daf5b564b74c84df79a6ec,2024-09-06_14h38.38.744,mdp,2024.2.1,Win32,60.60606061,66d7945b1baad48e845df3ce,,,,,,,,,,,,,,,,,,,,,1013.7082,1013.7082,1013.7099,1014.7897,1,0,right,0.5586,,1014.7924,1015.8387,1,0,right,1015.8418,1017.0212,1,1,right,0,1017.0213,1017.0213,1017.0239,1018.5199,0,22,22,22,1,0.6,0.4,0.4,0.6,,,,,,,,,,,,,,,0.5211,,0.8,0.2,0.6,0.4,0.8,0.2,0.4,0.6,,,0.6492,,0.6,0.4,0.8,0.2,0.2,0.8,0.8,0.2,1,0
,,61251c2fc253fd0b4be31eef,66daf5b564b74c84df79a6ec,2024-09-06_14h38.38.744,mdp,2024.2.1,Win32,60.60606061,66d7945b1baad48e845df3ce,,,,,,,,,,,,,,,,,,,,,1018.5208,1018.5208,1018.5228,1019.6855,1,0,right,0.6379,,1019.6884,1020.5677,1,1,right,1020.5704,1021.5173,1,0,right,1,1021.5175,1021.5175,1021.52,1023.0158,0,23,23,23,1,0.6,0.4,0.4,0.6,,,,,,,,,,,,,,,0.3595,,0.8,0.2,0.6,0.4,0.8,0.2,0.4,0.6,,,0.4048,,0.4,0.6,0.6,0.4,0.2,0.8,0.8,0.2,1,0
,,61251c2fc253fd0b4be31eef,66daf5b564b74c84df79a6ec,2024-09-06_14h38.38.744,mdp,2024.2.1,Win32,60.60606061,66d7945b1baad48e845df3ce,,,,,,,,,,,,,,,,,,,,,1023.0166,1023.0167,1023.0186,1024.0318,1,1,right,0.4883,,1024.0346,1025.2141,1,1,right,1025.2169,1026.13,1,0,right,1,1026.1302,1026.1302,1026.1326,1027.6285,0,24,24,24,1,0.6,0.4,0.4,0.6,,,,,,,,,,,,,,,0.6373,,0.8,0.2,0.6,0.4,0.8,0.2,0.4,0.6,,,0.3839,,0.4,0.6,0.6,0.4,0.2,0.8,0.8,0.2,1,0
,,61251c2fc253fd0b4be31eef,66daf5b564b74c84df79a6ec,2024-09-06_14h38.38.744,mdp,2024.2.1,Win32,60.60606061,66d7945b1baad48e845df3ce,,,,,,,,,,,,,,,,,,,,,1027.6294,1027.6294,1027.6316,1028.4116,1,1,right,0.2539,,1028.4138,1029.3266,1,1,right,1029.329,1030.2262,1,1,right,0,1030.2262,1030.2262,1030.2287,1031.725,0,25,25,25,1,0.6,0.4,0.4,0.6,,,,,,,,,,,,,,,0.3836,,0.8,0.2,0.6,0.4,0.8,0.2,0.4,0.6,,,0.3747,,0.4,0.6,0.6,0.4,0.2,0.8,0.8,0.2,1,0
,,61251c2fc253fd0b4be31eef,66daf5b564b74c84df79a6ec,2024-09-06_14h38.38.744,mdp,2024.2.1,Win32,60.60606061,66d7945b1baad48e845df3ce,,,,,,,,,,,,,,,,,,,,,1031.7261,1031.7261,1031.7279,1032.9407,1,1,right,0.6871,,1032.9431,1033.8065,1,1,right,1033.809,1034.6892,1,0,right,1,1034.6894,1034.6894,1034.6919,1036.1878,0,26,26,26,1,0.6,0.4,0.4,0.6,,,,,,,,,,,,,,,0.3334,,0.8,0.2,0.6,0.4,0.8,0.2,0.4,0.6,,,0.3509,,0.4,0.6,0.6,0.4,0.2,0.8,0.8,0.2,1,0
,,61251c2fc253fd0b4be31eef,66daf5b564b74c84df79a6ec,2024-09-06_14h38.38.744,mdp,2024.2.1,Win32,60.60606061,66d7945b1baad48e845df3ce,,,,,,,,,,,,,,,,,,,,,1036.1887,1036.1887,1036.1906,1037.1867,1,1,right,0.4759,,1037.1892,1038.1357,1,0,right,1038.1377,1039.052,1,1,right,0,1039.0522,1039.0522,1039.0547,1040.5506,0,27,27,27,1,0.6,0.4,0.4,0.6,,,,,,,,,,,,,,,0.4167,,0.8,0.2,0.6,0.4,0.8,0.2,0.4,0.6,,,0.3667,,0.2,0.8,0.2,0.8,0.2,0.8,0.8,0.2,1,0
,,61251c2fc253fd0b4be31eef,66daf5b564b74c84df79a6ec,2024-09-06_14h38.38.744,mdp,2024.2.1,Win32,60.60606061,66d7945b1baad48e845df3ce,,,,,,,,,,,,,,,,,,,,,1040.5516,1040.5516,1040.5536,1041.566,1,1,right,0.488,,1041.5689,1042.5322,1,1,right,1042.5347,1043.5318,1,0,right,1,1043.532,1043.532,1043.5338,1045.0301,0,28,28,28,1,0.6,0.4,0.4,0.6,,,,,,,,,,,,,,,0.4375,,0.8,0.2,0.6,0.4,0.8,0.2,0.4,0.6,,,0.4608,,0.2,0.8,0.2,0.8,0.2,0.8,0.8,0.2,1,0
,,61251c2fc253fd0b4be31eef,66daf5b564b74c84df79a6ec,2024-09-06_14h38.38.744,mdp,2024.2.1,Win32,60.60606061,66d7945b1baad48e845df3ce,,,,,,,,,,,,,,,,,,,,,1045.0311,1045.0311,1045.033,1046.0626,1,1,right,0.5003,,1046.065,1046.9779,1,1,right,1046.9805,1047.9441,1,0,right,1,1047.9441,1047.9441,1047.9467,1049.4431,0,29,29,29,1,0.6,0.4,0.4,0.6,,,,,,,,,,,,,,,0.3932,,0.8,0.2,0.6,0.4,0.8,0.2,0.4,0.6,,,0.4407,,0.2,0.8,0.2,0.8,0.2,0.8,0.8,0.2,1,0
,,61251c2fc253fd0b4be31eef,66daf5b564b74c84df79a6ec,2024-09-06_14h38.38.744,mdp,2024.2.1,Win32,60.60606061,66d7945b1baad48e845df3ce,,,,,,,,,,,,,,,,,,,,,1049.4441,1049.4441,1049.4458,1050.7921,1,0,right,0.8167,,1050.7945,1051.7575,1,1,right,1051.7601,1052.7566,1,0,right,1,1052.7566,1052.7567,1052.7592,1054.2553,0,30,30,30,1,0.6,0.4,0.4,0.6,,,,,,,,,,,,,,,0.4217,,0.8,0.2,0.6,0.4,0.8,0.2,0.4,0.6,,,0.4757,,0.2,0.8,0.2,0.8,0.2,0.8,0.8,0.2,1,0
,,61251c2fc253fd0b4be31eef,66daf5b564b74c84df79a6ec,2024-09-06_14h38.38.744,mdp,2024.2.1,Win32,60.60606061,66d7945b1baad48e845df3ce,,,,,,,,,,,,,,,,,,,,,1054.2561,1054.2561,1054.258,1056.7369,1,1,right,1.9488,,1056.7391,1057.9522,1,1,right,1057.955,1058.7011,1,0,right,1,1058.7012,1058.7012,1058.704,1060.2002,0,31,31,31,1,0.6,0.4,0.4,0.6,,,,,,,,,,,,,,,0.6714,,0.8,0.2,0.6,0.4,0.8,0.2,0.4,0.6,,,0.2266,,0.2,0.8,0.2,0.8,0.2,0.8,0.8,0.2,1,0
,,61251c2fc253fd0b4be31eef,66daf5b564b74c84df79a6ec,2024-09-06_14h38.38.744,mdp,2024.2.1,Win32,60.60606061,66d7945b1baad48e845df3ce,,,,,,,,,,,,,,,,,,,,,1060.2012,1060.2012,1060.2031,1061.2329,1,1,right,0.5,,1061.2353,1062.0149,1,0,right,1062.0176,1063.0477,1,0,right,1,1063.0477,1063.0477,1063.0504,1064.5459,0,32,32,32,1,0.6,0.4,0.4,0.6,,,,,,,,,,,,,,,0.2597,,0.8,0.2,0.6,0.4,0.8,0.2,0.4,0.6,,,0.4845,,0.2,0.8,0.2,0.8,0.2,0.8,0.8,0.2,1,0
,,61251c2fc253fd0b4be31eef,66daf5b564b74c84df79a6ec,2024-09-06_14h38.38.744,mdp,2024.2.1,Win32,60.60606061,66d7945b1baad48e845df3ce,,,,,,,,,,,,,,,,,,,,,1064.5464,1064.5465,1064.5487,1065.762,1,0,right,0.683,,1065.7645,1066.6279,1,0,right,1066.6304,1070.5911,1,0,right,1,1070.5911,1070.5911,1070.6007,1072.0899,0,33,33,33,1,0.6,0.4,0.4,0.6,,,,,,,,,,,,,,,0.3168,,0.8,0.2,0.6,0.4,0.8,0.2,0.4,0.6,,,3.4354,,0.4,0.6,0.6,0.4,0.2,0.8,0.8,0.2,1,0
,,61251c2fc253fd0b4be31eef,66daf5b564b74c84df79a6ec,2024-09-06_14h38.38.744,mdp,2024.2.1,Win32,60.60606061,66d7945b1baad48e845df3ce,,,,,,,,,,,,,,,,,,,,,1072.0909,1072.0909,1072.0927,1072.7726,1,0,right,0.1502,,1072.7753,1073.855,1,1,right,1073.8578,1074.6546,1,1,right,0,1074.6547,1074.6547,1074.657,1076.153,0,34,34,34,1,0.6,0.4,0.4,0.6,,,,,,,,,,,,,,,0.5502,,0.8,0.2,0.6,0.4,0.8,0.2,0.4,0.6,,,0.2508,,0.4,0.6,0.6,0.4,0.6,0.4,0.2,0.8,1,0
,,61251c2fc253fd0b4be31eef,66daf5b564b74c84df79a6ec,2024-09-06_14h38.38.744,mdp,2024.2.1,Win32,60.60606061,66d7945b1baad48e845df3ce,,,,,,,,,,,,,,,,,,,,,1076.1535,1076.1535,1076.1559,1077.135,1,1,right,0.4596,,1077.1376,1077.9012,1,0,right,1077.9038,1078.9,1,1,right,0,1078.9001,1078.9001,1078.9026,1080.3991,0,35,35,35,1,0.6,0.4,0.4,0.6,,,,,,,,,,,,,,,0.2214,,0.8,0.2,0.6,0.4,0.8,0.2,0.4,0.6,,,0.4604,,0.4,0.6,0.6,0.4,0.6,0.4,0.2,0.8,1,0
,,61251c2fc253fd0b4be31eef,66daf5b564b74c84df79a6ec,2024-09-06_14h38.38.744,mdp,2024.2.1,Win32,60.60606061,66d7945b1baad48e845df3ce,,,,,,,,,,,,,,,,,,,,,1080.4,1080.4,1080.402,1081.3156,1,0,right,0.3833,,1081.3179,1081.8977,1,1,right,1081.9003,1082.7637,1,1,right,0,1082.7638,1082.7638,1082.7663,1084.2624,0,36,36,36,1,0.6,0.4,0.4,0.6,,,,,,,,,,,,,,,0.0431,,0.8,0.2,0.6,0.4,0.8,0.2,0.4,0.6,,,0.3251,,0.4,0.6,0.6,0.4,0.6,0.4,0.2,0.8,1,0
,,61251c2fc253fd0b4be31eef,66daf5b564b74c84df79a6ec,2024-09-06_14h38.38.744,mdp,2024.2.1,Win32,60.60606061,66d7945b1baad48e845df3ce,,,,,,,,,,,,,,,,,,,,,1084.2633,1084.2633,1084.2654,1085.711,1,0,right,0.9197,,1085.7138,1086.6107,1,0,right,1086.6133,1087.4097,1,1,right,0,1087.4098,1087.4098,1087.4124,1088.9084,0,37,37,37,1,0.6,0.4,0.4,0.6,,,,,,,,,,,,,,,0.3724,,0.8,0.2,0.6,0.4,0.8,0.2,0.4,0.6,,,0.2501,,0.4,0.6,0.6,0.4,0.6,0.4,0.2,0.8,1,0
,,61251c2fc253fd0b4be31eef,66daf5b564b74c84df79a6ec,2024-09-06_14h38.38.744,mdp,2024.2.1,Win32,60.60606061,66d7945b1baad48e845df3ce,,,,,,,,,,,,,,,,,,,,,1088.9094,1088.9094,1088.9112,1090.0076,1,0,right,0.5669,,1090.0101,1090.8237,1,1,right,1090.8262,1091.7056,1,0,right,1,1091.7056,1091.7056,1091.7082,1093.205,0,38,38,38,1,0.6,0.4,0.4,0.6,,,,,,,,,,,,,,,0.2846,,0.8,0.2,0.6,0.4,0.8,0.2,0.4,0.6,,,0.3427,,0.6,0.4,0.8,0.2,0.6,0.4,0.2,0.8,1,0
,,61251c2fc253fd0b4be31eef,66daf5b564b74c84df79a6ec,2024-09-06_14h38.38.744,mdp,2024.2.1,Win32,60.60606061,66d7945b1baad48e845df3ce,,,,,,,,,,,,,,,,,,,,,1093.206,1093.206,1093.2079,1094.0042,1,1,right,0.273,,1094.0067,1094.7035,1,1,right,1094.7061,1095.5022,1,1,right,0,1095.5022,1095.5022,1095.5047,1097.001,0,39,39,39,1,0.6,0.4,0.4,0.6,,,,,,,,,,,,,,,0.1506,,0.8,0.2,0.6,0.4,0.8,0.2,0.4,0.6,,,0.2752,,0.6,0.4,0.8,0.2,0.6,0.4,0.2,0.8,1,0
,,61251c2fc253fd0b4be31eef,66daf5b564b74c84df79a6ec,2024-09-06_14h38.38.744,mdp,2024.2.1,Win32,60.60606061,66d7945b1baad48e845df3ce,,,,,,,,,,,,,,,,,,,,,1097.0023,1097.0023,1097.0041,1097.8172,1,0,right,0.2906,,1097.8197,1098.5663,1,1,right,1098.5689,1099.6825,1,1,right,0,1099.6826,1099.6826,1099.6852,1101.181,0,40,40,40,1,0.6,0.4,0.4,0.6,,,,,,,,,,,,,,,0.2021,,0.8,0.2,0.6,0.4,0.8,0.2,0.4,0.6,,,0.5838,,0.6,0.4,0.8,0.2,0.6,0.4,0.2,0.8,1,0
,,61251c2fc253fd0b4be31eef,66daf5b564b74c84df79a6ec,2024-09-06_14h38.38.744,mdp,2024.2.1,Win32,60.60606061,66d7945b1baad48e845df3ce,,,,,,,,,,,,,,,,,,,,,1101.1818,1101.1818,1101.184,1101.9471,1,0,right,0.2341,,1101.9498,1102.7805,1,1,right,1102.7825,1103.579,1,1,right,0,1103.5792,1103.5792,1103.5815,1105.0776,0,41,41,41,1,0.6,0.4,0.4,0.6,,,,,,,,,,,,,,,0.3072,,0.8,0.2,0.6,0.4,0.8,0.2,0.4,0.6,,,0.2681,,0.6,0.4,0.8,0.2,0.6,0.4,0.2,0.8,1,0
,,61251c2fc253fd0b4be31eef,66daf5b564b74c84df79a6ec,2024-09-06_14h38.38.744,mdp,2024.2.1,Win32,60.60606061,66d7945b1baad48e845df3ce,,,,,,,,,,,,,,,,,,,,,1105.0784,1105.0785,1105.0804,1106.1102,0,1,left,0.5001,,1106.1128,1106.7925,0,1,left,1106.7952,1107.9753,0,0,left,1,1107.9754,1107.9754,1107.9779,1109.4737,0,42,42,42,1,0.6,0.4,0.4,0.6,,,,,,,,,,,,,,,0.144,,0.8,0.2,0.6,0.4,0.8,0.2,0.4,0.6,,,0.6502,,0.6,0.4,0.8,0.2,0.6,0.4,0.2,0.8,1,0
,,61251c2fc253fd0b4be31eef,66daf5b564b74c84df79a6ec,2024-09-06_14h38.38.744,mdp,2024.2.1,Win32,60.60606061,66d7945b1baad48e845df3ce,,,,,,,,,,,,,,,,,,,,,1109.4744,1109.4744,1109.4767,1111.1059,0,1,left,1.0994,,1111.1086,1111.8058,0,0,left,1111.8079,1112.5713,0,1,left,0,1112.5715,1112.5715,1112.5739,1114.0698,0,43,43,43,1,0.6,0.4,0.4,0.6,,,,,,,,,,,,,,,0.1668,,0.8,0.2,0.6,0.4,0.8,0.2,0.4,0.6,,,0.2176,,0.6,0.4,0.8,0.2,0.6,0.4,0.2,0.8,1,0
,,61251c2fc253fd0b4be31eef,66daf5b564b74c84df79a6ec,2024-09-06_14h38.38.744,mdp,2024.2.1,Win32,60.60606061,66d7945b1baad48e845df3ce,,,,,,,,,,,,,,,,,,,,,1114.0705,1114.0705,1114.0727,1114.9358,1,1,right,0.3341,,1114.9382,1115.6353,1,1,right,1115.6378,1116.2346,1,1,right,0,1116.2348,1116.2349,1116.2371,1117.7334,0,44,44,44,1,0.6,0.4,0.4,0.6,,,,,,,,,,,,,,,0.1664,,0.8,0.2,0.6,0.4,0.8,0.2,0.4,0.6,,,0.0501,,0.6,0.4,0.8,0.2,0.6,0.4,0.2,0.8,1,0
,,61251c2fc253fd0b4be31eef,66daf5b564b74c84df79a6ec,2024-09-06_14h38.38.744,mdp,2024.2.1,Win32,60.60606061,66d7945b1baad48e845df3ce,,,,,,,,,,,,,,,,,,,,,1117.7343,1117.7343,1117.7363,1118.4327,0,0,left,0.1668,,1118.4353,1119.1157,0,0,left,1119.1181,1119.7481,0,0,left,1,1119.7482,1119.7482,1119.7508,1121.2466,0,45,45,45,1,0.6,0.4,0.4,0.6,,,,,,,,,,,,,,,0.1344,,0.8,0.2,0.6,0.4,0.8,0.2,0.4,0.6,,,0.091,,0.6,0.4,0.8,0.2,0.6,0.4,0.2,0.8,1,0
,,61251c2fc253fd0b4be31eef,66daf5b564b74c84df79a6ec,2024-09-06_14h38.38.744,mdp,2024.2.1,Win32,60.60606061,66d7945b1baad48e845df3ce,,,,,,,,,,,,,,,,,,,,,1121.2473,1121.2474,1121.2495,1121.8796,0,0,left,0.1016,,1121.8823,1122.513,0,0,left,1122.5155,1123.212,0,1,left,0,1123.2122,1123.2122,1123.2146,1124.7105,0,46,46,46,1,0.6,0.4,0.4,0.6,,,,,,,,,,,,,,,0.0998,,0.8,0.2,0.6,0.4,0.8,0.2,0.4,0.6,,,0.1698,,0.6,0.4,0.8,0.2,0.6,0.4,0.2,0.8,1,0
,,61251c2fc253fd0b4be31eef,66daf5b564b74c84df79a6ec,2024-09-06_14h38.38.744,mdp,2024.2.1,Win32,60.60606061,66d7945b1baad48e845df3ce,,,,,,,,,,,,,,,,,,,,,1124.7115,1124.7116,1124.7136,1126.5752,0,1,left,1.3376,,1126.5779,1127.2416,0,1,left,1127.2442,1127.8243,0,0,left,1,1127.8244,1127.8244,1127.8271,1129.3233,0,47,47,47,1,0.6,0.4,0.4,0.6,,,,,,,,,,,,,,,0.1176,,0.8,0.2,0.6,0.4,0.8,0.2,0.4,0.6,,,0.0426,,0.6,0.4,0.8,0.2,0.6,0.4,0.2,0.8,1,0
,,61251c2fc253fd0b4be31eef,66daf5b564b74c84df79a6ec,2024-09-06_14h38.38.744,mdp,2024.2.1,Win32,60.60606061,66d7945b1baad48e845df3ce,,,,,,,,,,,,,,,,,,,,,1129.3237,1129.3238,1129.3263,1130.0392,0,0,left,0.1849,,1130.0419,1130.7552,0,1,left,1130.7579,1131.7043,0,1,left,0,1131.7043,1131.7044,1131.7069,1133.2032,0,48,48,48,1,0.6,0.4,0.4,0.6,,,,,,,,,,,,,,,0.168,,0.2,0.8,0.2,0.8,0.8,0.2,0.4,0.6,,,0.4245,,0.6,0.4,0.8,0.2,0.6,0.4,0.2,0.8,1,0
,,61251c2fc253fd0b4be31eef,66daf5b564b74c84df79a6ec,2024-09-06_14h38.38.744,mdp,2024.2.1,Win32,60.60606061,66d7945b1baad48e845df3ce,,,,,,,,,,,,,,,,,,,,,1133.2042,1133.2042,1133.2061,1136.2668,1,1,right,2.5314,,1136.2765,1136.9831,1,0,right,1136.9856,1137.6323,1,0,right,1,1137.6323,1137.6323,1137.6352,1139.1313,0,49,49,49,1,0.6,0.4,0.4,0.6,,,,,,,,,,,,,,,0.1762,,0.2,0.8,0.2,0.8,0.8,0.2,0.4,0.6,,,0.1046,,0.6,0.4,0.8,0.2,0.6,0.4,0.2,0.8,1,0
,,61251c2fc253fd0b4be31eef,66daf5b564b74c84df79a6ec,2024-09-06_14h38.38.744,mdp,2024.2.1,Win32,60.60606061,66d7945b1baad48e845df3ce,,,,,,,,,,,,,,,,,,,,,,,,,,,,,,,,,,,,,,,,,,,,,,,,,,,,,,,,1139.132,1202.7574,0,2,2,8,1,imgs/dog.png,imgs/goat.png,imgs/elephant.png,imgs/rabbit.png,imgs/kangaroo.png,,,,,,,,,,,,,,,,,,,,,,,,
,,61251c2fc253fd0b4be31eef,66daf5b564b74c84df79a6ec,2024-09-06_14h38.38.744,mdp,2024.2.1,Win32,60.60606061,66d7945b1baad48e845df3ce,,,,,,,,,,,,,,3,seqs/st3seq17.csv,1202.766,1209.8192,space,6.5322,,1209.8251,1209.8251,1209.8258,1212.1679,0,1,left,1.8016,,1212.1702,1213.4334,0,0,left,1213.4359,1214.665,0,1,left,0,1214.6651,1214.6651,1214.6681,1216.164,0,0,0,0,1,0.4,0.6,0.6,0.4,,,,,,,,,,,,,,,0.7231,,0.6,0.4,0.2,0.8,0.6,0.4,0.2,0.8,,,0.6868,,0.2,0.8,0.6,0.4,0.8,0.2,0.6,0.4,1,0
,,61251c2fc253fd0b4be31eef,66daf5b564b74c84df79a6ec,2024-09-06_14h38.38.744,mdp,2024.2.1,Win32,60.60606061,66d7945b1baad48e845df3ce,,,,,,,,,,,,,,,,,,,,,1216.1649,1216.165,1216.1669,1217.6135,1,0,right,0.9164,,1217.6157,1218.5628,1,1,right,1218.5649,1219.6112,1,0,right,1,1219.6114,1219.6114,1219.614,1221.1097,0,1,1,1,1,0.4,0.6,0.6,0.4,,,,,,,,,,,,,,,0.4003,,0.6,0.4,0.2,0.8,0.6,0.4,0.2,0.8,,,0.5042,,0.2,0.8,0.6,0.4,0.8,0.2,0.6,0.4,1,0
,,61251c2fc253fd0b4be31eef,66daf5b564b74c84df79a6ec,2024-09-06_14h38.38.744,mdp,2024.2.1,Win32,60.60606061,66d7945b1baad48e845df3ce,,,,,,,,,,,,,,,,,,,,,1221.1104,1221.1105,1221.1126,1222.0258,1,1,right,0.384,,1222.0284,1223.9241,1,1,right,1223.9267,1224.8899,1,0,right,1,1224.89,1224.89,1224.8923,1226.3885,0,2,2,2,1,0.4,0.6,0.6,0.4,,,,,,,,,,,,,,,1.353,,0.6,0.4,0.2,0.8,0.6,0.4,0.2,0.8,,,0.4343,,0.2,0.8,0.6,0.4,0.4,0.6,0.8,0.2,1,0
,,61251c2fc253fd0b4be31eef,66daf5b564b74c84df79a6ec,2024-09-06_14h38.38.744,mdp,2024.2.1,Win32,60.60606061,66d7945b1baad48e845df3ce,,,,,,,,,,,,,,,,,,,,,1226.389,1226.389,1226.3914,1227.2881,1,1,right,0.3663,,1227.2904,1228.2866,1,0,right,1228.289,1229.3694,1,0,right,1,1229.3696,1229.3696,1229.3721,1230.8678,0,3,3,3,1,0.4,0.6,0.6,0.4,,,,,,,,,,,,,,,0.4724,,0.6,0.4,0.2,0.8,0.6,0.4,0.2,0.8,,,0.5331,,0.2,0.8,0.6,0.4,0.4,0.6,0.8,0.2,1,0
,,61251c2fc253fd0b4be31eef,66daf5b564b74c84df79a6ec,2024-09-06_14h38.38.744,mdp,2024.2.1,Win32,60.60606061,66d7945b1baad48e845df3ce,,,,,,,,,,,,,,,,,,,,,1230.8684,1230.8684,1230.8707,1231.9334,1,0,right,0.534,,1231.9362,1233.1328,1,1,right,1233.1353,1234.0821,1,0,right,1,1234.0822,1234.0823,1234.0846,1235.5806,0,4,4,4,1,0.4,0.6,0.6,0.4,,,,,,,,,,,,,,,0.6503,,0.6,0.4,0.2,0.8,0.6,0.4,0.2,0.8,,,0.4026,,0.2,0.8,0.6,0.4,0.4,0.6,0.8,0.2,1,0
,,61251c2fc253fd0b4be31eef,66daf5b564b74c84df79a6ec,2024-09-06_14h38.38.744,mdp,2024.2.1,Win32,60.60606061,66d7945b1baad48e845df3ce,,,,,,,,,,,,,,,,,,,,,1235.5813,1235.5813,1235.5834,1236.6962,1,1,right,0.5829,,1236.6986,1237.8287,1,1,right,1237.831,1238.7944,1,0,right,1,1238.7944,1238.7944,1238.7971,1240.2932,0,5,5,5,1,0.4,0.6,0.6,0.4,,,,,,,,,,,,,,,0.5864,,0.6,0.4,0.2,0.8,0.6,0.4,0.2,0.8,,,0.4343,,0.2,0.8,0.6,0.4,0.4,0.6,0.8,0.2,1,0
,,61251c2fc253fd0b4be31eef,66daf5b564b74c84df79a6ec,2024-09-06_14h38.38.744,mdp,2024.2.1,Win32,60.60606061,66d7945b1baad48e845df3ce,,,,,,,,,,,,,,,,,,,,,1240.2942,1240.2942,1240.2961,1241.1261,1,1,right,0.3014,,1241.1286,1242.2411,1,1,right,1242.2437,1243.3067,1,1,right,0,1243.3067,1243.3067,1243.3093,1244.8059,0,6,6,6,1,0.4,0.6,0.6,0.4,,,,,,,,,,,,,,,0.5889,,0.6,0.4,0.2,0.8,0.6,0.4,0.2,0.8,,,0.5328,,0.2,0.8,0.6,0.4,0.4,0.6,0.8,0.2,1,0
,,61251c2fc253fd0b4be31eef,66daf5b564b74c84df79a6ec,2024-09-06_14h38.38.744,mdp,2024.2.1,Win32,60.60606061,66d7945b1baad48e845df3ce,,,,,,,,,,,,,,,,,,,,,1244.8063,1244.8063,1244.8087,1246.0884,1,0,right,0.7576,,1246.0909,1247.1042,1,1,right,1247.1066,1248.6689,0,1,left,0,1248.6691,1248.6691,1248.6716,1250.1677,0,7,7,7,1,0.4,0.6,0.6,0.4,,,,,,,,,,,,,,,0.4662,,0.6,0.4,0.2,0.8,0.6,0.4,0.2,0.8,,,1.0427,,0.2,0.8,0.6,0.4,0.4,0.6,0.8,0.2,1,0
,,61251c2fc253fd0b4be31eef,66daf5b564b74c84df79a6ec,2024-09-06_14h38.38.744,mdp,2024.2.1,Win32,60.60606061,66d7945b1baad48e845df3ce,,,,,,,,,,,,,,,,,,,,,1250.1686,1250.1686,1250.1705,1251.5498,1,0,right,0.8581,,1251.5524,1252.8318,1,1,right,1252.8343,1253.7314,1,0,right,1,1253.7314,1253.7314,1253.7339,1255.2301,0,8,8,8,1,0.6,0.4,0.2,0.8,,,,,,,,,,,,,,,0.7582,,0.6,0.4,0.2,0.8,0.6,0.4,0.2,0.8,,,0.3667,,0.2,0.8,0.6,0.4,0.4,0.6,0.8,0.2,1,0
,,61251c2fc253fd0b4be31eef,66daf5b564b74c84df79a6ec,2024-09-06_14h38.38.744,mdp,2024.2.1,Win32,60.60606061,66d7945b1baad48e845df3ce,,,,,,,,,,,,,,,,,,,,,1255.2311,1255.2311,1255.2329,1256.3625,1,1,right,0.5999,,1256.3652,1257.4282,1,1,right,1257.4308,1258.6269,1,1,right,0,1258.6271,1258.6271,1258.6294,1260.1257,0,9,9,9,1,0.6,0.4,0.2,0.8,,,,,,,,,,,,,,,0.5169,,0.6,0.4,0.2,0.8,0.6,0.4,0.2,0.8,,,0.6739,,0.2,0.8,0.6,0.4,0.4,0.6,0.8,0.2,1,0
,,61251c2fc253fd0b4be31eef,66daf5b564b74c84df79a6ec,2024-09-06_14h38.38.744,mdp,2024.2.1,Win32,60.60606061,66d7945b1baad48e845df3ce,,,,,,,,,,,,,,,,,,,,,1260.1265,1260.1266,1260.1285,1261.375,1,1,right,0.7173,,1261.3775,1262.5241,1,0,right,1262.5265,1263.5563,1,1,right,0,1263.5565,1263.5565,1263.5589,1265.0547,0,10,10,10,1,0.6,0.4,0.2,0.8,,,,,,,,,,,,,,,0.6169,,0.6,0.4,0.2,0.8,0.6,0.4,0.2,0.8,,,0.4851,,0.2,0.8,0.6,0.4,0.4,0.6,0.8,0.2,1,0
,,61251c2fc253fd0b4be31eef,66daf5b564b74c84df79a6ec,2024-09-06_14h38.38.744,mdp,2024.2.1,Win32,60.60606061,66d7945b1baad48e845df3ce,,,,,,,,,,,,,,,,,,,,,1265.0552,1265.0552,1265.0575,1266.2707,1,1,right,0.6827,,1266.2731,1267.5526,1,1,right,1267.5551,1268.6184,1,1,right,0,1268.6184,1268.6184,1268.621,1270.1167,0,11,11,11,1,0.6,0.4,0.2,0.8,,,,,,,,,,,,,,,0.7604,,0.6,0.4,0.2,0.8,0.6,0.4,0.2,0.8,,,0.5221,,0.2,0.8,0.6,0.4,0.2,0.8,0.4,0.6,1,0
,,61251c2fc253fd0b4be31eef,66daf5b564b74c84df79a6ec,2024-09-06_14h38.38.744,mdp,2024.2.1,Win32,60.60606061,66d7945b1baad48e845df3ce,,,,,,,,,,,,,,,,,,,,,1270.1176,1270.1177,1270.1195,1270.9995,0,0,left,0.3502,,1271.0021,1271.9327,0,0,left,1271.935,1272.8819,0,1,left,0,1272.8821,1272.8821,1272.8841,1274.38,0,12,12,12,1,0.6,0.4,0.2,0.8,,,,,,,,,,,,,,,0.3837,,0.6,0.4,0.2,0.8,0.6,0.4,0.2,0.8,,,0.4004,,0.2,0.8,0.6,0.4,0.2,0.8,0.4,0.6,1,0
,,61251c2fc253fd0b4be31eef,66daf5b564b74c84df79a6ec,2024-09-06_14h38.38.744,mdp,2024.2.1,Win32,60.60606061,66d7945b1baad48e845df3ce,,,,,,,,,,,,,,,,,,,,,1274.3806,1274.3806,1274.3829,1275.1126,1,1,right,0.2067,,1275.1151,1276.2618,1,1,right,1276.2645,1277.1941,1,1,right,0,1277.1942,1277.1943,1277.1966,1278.693,0,13,13,13,1,0.6,0.4,0.2,0.8,,,,,,,,,,,,,,,0.6024,,0.6,0.4,0.2,0.8,0.6,0.4,0.2,0.8,,,0.3928,,0.2,0.8,0.6,0.4,0.2,0.8,0.4,0.6,1,0
,,61251c2fc253fd0b4be31eef,66daf5b564b74c84df79a6ec,2024-09-06_14h38.38.744,mdp,2024.2.1,Win32,60.60606061,66d7945b1baad48e845df3ce,,,,,,,,,,,,,,,,,,,,,1278.6935,1278.6935,1278.6959,1279.4758,1,0,right,0.2512,,1279.4785,1280.8081,1,1,right,1280.8104,1281.8565,1,1,right,0,1281.8567,1281.8568,1281.8595,1283.3558,0,14,14,14,1,0.6,0.4,0.2,0.8,,,,,,,,,,,,,,,0.7836,,0.6,0.4,0.2,0.8,0.6,0.4,0.2,0.8,,,0.5196,,0.2,0.8,0.6,0.4,0.2,0.8,0.4,0.6,1,0
,,61251c2fc253fd0b4be31eef,66daf5b564b74c84df79a6ec,2024-09-06_14h38.38.744,mdp,2024.2.1,Win32,60.60606061,66d7945b1baad48e845df3ce,,,,,,,,,,,,,,,,,,,,,1283.3567,1283.3567,1283.3586,1284.2882,0,1,left,0.4009,,1284.2907,1285.4203,1,1,right,1285.4229,1286.3199,1,1,right,0,1286.3199,1286.32,1286.3224,1287.8182,0,15,15,15,1,0.6,0.4,0.2,0.8,,,,,,,,,,,,,,,0.5921,,0.2,0.8,0.6,0.4,0.6,0.4,0.2,0.8,,,0.3674,,0.2,0.8,0.6,0.4,0.2,0.8,0.4,0.6,1,0
,,61251c2fc253fd0b4be31eef,66daf5b564b74c84df79a6ec,2024-09-06_14h38.38.744,mdp,2024.2.1,Win32,60.60606061,66d7945b1baad48e845df3ce,,,,,,,,,,,,,,,,,,,,,1287.8187,1287.8187,1287.8211,1289.4003,1,1,right,1.0573,,1289.4028,1290.4491,1,1,right,1290.4522,1291.4326,1,0,right,1,1291.433,1291.433,1291.4347,1292.9303,0,16,16,16,1,0.6,0.4,0.2,0.8,,,,,,,,,,,,,,,0.5245,,0.2,0.8,0.6,0.4,0.6,0.4,0.2,0.8,,,0.4509,,0.2,0.8,0.6,0.4,0.2,0.8,0.4,0.6,1,0
,,61251c2fc253fd0b4be31eef,66daf5b564b74c84df79a6ec,2024-09-06_14h38.38.744,mdp,2024.2.1,Win32,60.60606061,66d7945b1baad48e845df3ce,,,,,,,,,,,,,,,,,,,,,1292.9313,1292.9313,1292.9335,1293.8465,1,1,right,0.386,,1293.8495,1294.8953,1,0,right,1294.8982,1295.9608,1,1,right,0,1295.9608,1295.9608,1295.9632,1297.4601,0,17,17,17,1,0.6,0.4,0.2,0.8,,,,,,,,,,,,,,,0.5259,,0.2,0.8,0.6,0.4,0.6,0.4,0.2,0.8,,,0.5281,,0.2,0.8,0.6,0.4,0.2,0.8,0.4,0.6,1,0
,,61251c2fc253fd0b4be31eef,66daf5b564b74c84df79a6ec,2024-09-06_14h38.38.744,mdp,2024.2.1,Win32,60.60606061,66d7945b1baad48e845df3ce,,,,,,,,,,,,,,,,,,,,,1297.4612,1297.4612,1297.4628,1298.5262,1,0,right,0.5373,,1298.5284,1299.6243,1,0,right,1299.6271,1300.5741,1,1,right,0,1300.5745,1300.5745,1300.577,1302.0726,0,18,18,18,1,0.6,0.4,0.2,0.8,,,,,,,,,,,,,,,0.5601,,0.2,0.8,0.6,0.4,0.6,0.4,0.2,0.8,,,0.4161,,0.2,0.8,0.6,0.4,0.2,0.8,0.4,0.6,1,0
,,61251c2fc253fd0b4be31eef,66daf5b564b74c84df79a6ec,2024-09-06_14h38.38.744,mdp,2024.2.1,Win32,60.60606061,66d7945b1baad48e845df3ce,,,,,,,,,,,,,,,,,,,,,1302.0732,1302.0733,1302.0755,1303.1882,1,1,right,0.5858,,1303.1909,1312.2639,1,1,right,1312.2745,1313.2134,1,0,right,1,1313.2136,1313.2137,1313.2158,1314.7114,0,19,19,19,1,0.6,0.4,0.2,0.8,,,,,,,,,,,,,,,8.5283,,0.2,0.8,0.6,0.4,0.6,0.4,0.2,0.8,,,0.4003,,0.2,0.8,0.6,0.4,0.2,0.8,0.4,0.6,1,0
,,61251c2fc253fd0b4be31eef,66daf5b564b74c84df79a6ec,2024-09-06_14h38.38.744,mdp,2024.2.1,Win32,60.60606061,66d7945b1baad48e845df3ce,,,,,,,,,,,,,,,,,,,,,1314.7119,1314.712,1314.7143,1317.0098,1,1,right,1.7655,,1317.0124,1318.2088,1,1,right,1318.2112,1318.9414,1,1,right,0,1318.9416,1318.9416,1318.944,1320.4399,0,20,20,20,1,0.6,0.4,0.2,0.8,,,,,,,,,,,,,,,0.6747,,0.2,0.8,0.6,0.4,0.6,0.4,0.2,0.8,,,0.2026,,0.2,0.8,0.6,0.4,0.2,0.8,0.4,0.6,1,0
,,61251c2fc253fd0b4be31eef,66daf5b564b74c84df79a6ec,2024-09-06_14h38.38.744,mdp,2024.2.1,Win32,60.60606061,66d7945b1baad48e845df3ce,,,,,,,,,,,,,,,,,,,,,1320.4405,1320.4405,1320.4428,1322.338,1,0,right,1.3746,,1322.3407,1323.1709,1,1,right,1323.1738,1324.4029,0,0,left,1,1324.403,1324.403,1324.4055,1325.9018,0,21,21,21,1,0.8,0.2,0.8,0.2,,,,,,,,,,,,,,,0.2842,,0.2,0.8,0.6,0.4,0.6,0.4,0.2,0.8,,,0.7001,,0.2,0.8,0.6,0.4,0.2,0.8,0.4,0.6,1,0
,,61251c2fc253fd0b4be31eef,66daf5b564b74c84df79a6ec,2024-09-06_14h38.38.744,mdp,2024.2.1,Win32,60.60606061,66d7945b1baad48e845df3ce,,,,,,,,,,,,,,,,,,,,,1325.9028,1325.9029,1325.9048,1326.851,1,1,right,0.419,,1326.8537,1327.8833,1,1,right,1327.8861,1329.2988,0,1,left,0,1329.299,1329.2991,1329.3016,1330.7973,0,22,22,22,1,0.8,0.2,0.8,0.2,,,,,,,,,,,,,,,0.4903,,0.2,0.8,0.6,0.4,0.6,0.4,0.2,0.8,,,0.8832,,0.2,0.8,0.6,0.4,0.2,0.8,0.4,0.6,1,0
,,61251c2fc253fd0b4be31eef,66daf5b564b74c84df79a6ec,2024-09-06_14h38.38.744,mdp,2024.2.1,Win32,60.60606061,66d7945b1baad48e845df3ce,,,,,,,,,,,,,,,,,,,,,1330.7981,1330.7981,1330.8004,1331.3635,1,0,right,0.0338,,1331.366,1332.4128,1,0,right,1332.4155,1334.128,0,1,left,0,1334.1282,1334.1283,1334.1306,1335.6262,0,23,23,23,1,0.8,0.2,0.8,0.2,,,,,,,,,,,,,,,0.4998,,0.2,0.8,0.6,0.4,0.6,0.4,0.2,0.8,,,1.175,,0.2,0.8,0.6,0.4,0.4,0.6,0.2,0.8,1,0
,,61251c2fc253fd0b4be31eef,66daf5b564b74c84df79a6ec,2024-09-06_14h38.38.744,mdp,2024.2.1,Win32,60.60606061,66d7945b1baad48e845df3ce,,,,,,,,,,,,,,,,,,,,,1335.627,1335.627,1335.6291,1336.1757,1,0,right,0.0202,,1336.1783,1337.4085,1,0,right,1337.411,1338.4409,0,1,left,0,1338.4409,1338.4409,1338.4434,1339.9395,0,24,24,24,1,0.8,0.2,0.8,0.2,,,,,,,,,,,,,,,0.7051,,0.2,0.8,0.6,0.4,0.6,0.4,0.2,0.8,,,0.5002,,0.2,0.8,0.6,0.4,0.4,0.6,0.2,0.8,1,0
,,61251c2fc253fd0b4be31eef,66daf5b564b74c84df79a6ec,2024-09-06_14h38.38.744,mdp,2024.2.1,Win32,60.60606061,66d7945b1baad48e845df3ce,,,,,,,,,,,,,,,,,,,,,1339.9402,1339.9402,1339.9424,1340.9217,1,0,right,0.4556,,1340.9242,1341.9545,1,1,right,1341.9571,1342.9038,1,1,right,0,1342.904,1342.904,1342.9065,1344.4022,0,25,25,25,1,0.8,0.2,0.8,0.2,,,,,,,,,,,,,,,0.5056,,0.2,0.8,0.6,0.4,0.6,0.4,0.2,0.8,,,0.402,,0.2,0.8,0.6,0.4,0.4,0.6,0.2,0.8,1,0
,,61251c2fc253fd0b4be31eef,66daf5b564b74c84df79a6ec,2024-09-06_14h38.38.744,mdp,2024.2.1,Win32,60.60606061,66d7945b1baad48e845df3ce,,,,,,,,,,,,,,,,,,,,,1344.4029,1344.4029,1344.4052,1345.8845,1,0,right,0.9542,,1345.8872,1347.1165,1,0,right,1347.119,1348.0655,1,1,right,0,1348.0656,1348.0656,1348.0679,1349.5643,0,26,26,26,1,0.8,0.2,0.8,0.2,,,,,,,,,,,,,,,0.6999,,0.2,0.8,0.6,0.4,0.6,0.4,0.2,0.8,,,0.4058,,0.2,0.8,0.6,0.4,0.4,0.6,0.2,0.8,1,0
,,61251c2fc253fd0b4be31eef,66daf5b564b74c84df79a6ec,2024-09-06_14h38.38.744,mdp,2024.2.1,Win32,60.60606061,66d7945b1baad48e845df3ce,,,,,,,,,,,,,,,,,,,,,1349.5654,1349.5654,1349.5673,1350.7465,1,0,right,0.6528,,1350.749,1351.8291,1,1,right,1351.8319,1352.8282,1,0,right,1,1352.8282,1352.8282,1352.831,1354.3269,0,27,27,27,1,0.8,0.2,0.8,0.2,,,,,,,,,,,,,,,0.5508,,0.2,0.8,0.6,0.4,0.6,0.4,0.2,0.8,,,0.4558,,0.2,0.8,0.6,0.4,0.8,0.2,0.8,0.2,1,0
,,61251c2fc253fd0b4be31eef,66daf5b564b74c84df79a6ec,2024-09-06_14h38.38.744,mdp,2024.2.1,Win32,60.60606061,66d7945b1baad48e845df3ce,,,,,,,,,,,,,,,,,,,,,1354.3278,1354.3278,1354.3297,1355.4422,1,0,right,0.5914,,1355.4448,1357.0746,1,0,right,1357.0774,1358.3397,1,0,right,1,1358.3397,1358.3397,1358.3426,1359.8387,0,28,28,28,1,0.8,0.2,0.8,0.2,,,,,,,,,,,,,,,1.0995,,0.2,0.8,0.6,0.4,0.4,0.6,0.6,0.4,,,0.7221,,0.2,0.8,0.6,0.4,0.8,0.2,0.8,0.2,1,0
,,61251c2fc253fd0b4be31eef,66daf5b564b74c84df79a6ec,2024-09-06_14h38.38.744,mdp,2024.2.1,Win32,60.60606061,66d7945b1baad48e845df3ce,,,,,,,,,,,,,,,,,,,,,1359.8399,1359.8399,1359.8417,1360.8382,1,0,right,0.4751,,1360.8407,1362.0203,1,0,right,1362.023,1363.0029,1,0,right,1,1363.003,1363.003,1363.0055,1364.5011,0,29,29,29,1,0.8,0.2,0.8,0.2,,,,,,,,,,,,,,,0.6508,,0.2,0.8,0.6,0.4,0.4,0.6,0.6,0.4,,,0.4528,,0.2,0.8,0.6,0.4,0.8,0.2,0.8,0.2,1,0
,,61251c2fc253fd0b4be31eef,66daf5b564b74c84df79a6ec,2024-09-06_14h38.38.744,mdp,2024.2.1,Win32,60.60606061,66d7945b1baad48e845df3ce,,,,,,,,,,,,,,,,,,,,,1364.5018,1364.5018,1364.5042,1365.6508,1,1,right,0.6213,,1365.6532,1366.7331,1,0,right,1366.7356,1367.6818,1,0,right,1,1367.6819,1367.6819,1367.6845,1369.1807,0,30,30,30,1,0.8,0.2,0.8,0.2,,,,,,,,,,,,,,,0.5355,,0.2,0.8,0.6,0.4,0.4,0.6,0.6,0.4,,,0.4166,,0.2,0.8,0.6,0.4,0.8,0.2,0.8,0.2,1,0
,,61251c2fc253fd0b4be31eef,66daf5b564b74c84df79a6ec,2024-09-06_14h38.38.744,mdp,2024.2.1,Win32,60.60606061,66d7945b1baad48e845df3ce,,,,,,,,,,,,,,,,,,,,,1369.1817,1369.1817,1369.1836,1370.0136,1,0,right,0.3004,,1370.016,1371.2459,1,1,right,1371.2485,1372.2445,1,0,right,1,1372.2445,1372.2445,1372.247,1373.7434,0,31,31,31,1,0.8,0.2,0.8,0.2,,,,,,,,,,,,,,,0.6894,,0.6,0.4,0.2,0.8,0.4,0.6,0.6,0.4,,,0.4577,,0.2,0.8,0.6,0.4,0.8,0.2,0.8,0.2,1,0
,,61251c2fc253fd0b4be31eef,66daf5b564b74c84df79a6ec,2024-09-06_14h38.38.744,mdp,2024.2.1,Win32,60.60606061,66d7945b1baad48e845df3ce,,,,,,,,,,,,,,,,,,,,,1373.7441,1373.7442,1373.7463,1374.6924,1,0,right,0.422,,1374.6951,1375.9083,1,1,right,1375.9108,1376.8911,1,0,right,1,1376.8913,1376.8913,1376.8934,1378.3893,0,32,32,32,1,0.8,0.2,0.8,0.2,,,,,,,,,,,,,,,0.6839,,0.6,0.4,0.2,0.8,0.4,0.6,0.6,0.4,,,0.4535,,0.2,0.8,0.6,0.4,0.8,0.2,0.8,0.2,1,0
,,61251c2fc253fd0b4be31eef,66daf5b564b74c84df79a6ec,2024-09-06_14h38.38.744,mdp,2024.2.1,Win32,60.60606061,66d7945b1baad48e845df3ce,,,,,,,,,,,,,,,,,,,,,1378.3902,1378.3903,1378.3922,1379.0556,1,0,right,0.1333,,1379.0583,1380.1544,1,1,right,1380.1573,1381.3699,1,0,right,1,1381.3701,1381.3701,1381.3727,1382.8687,0,33,33,33,1,0.8,0.2,0.8,0.2,,,,,,,,,,,,,,,0.5735,,0.6,0.4,0.2,0.8,0.4,0.6,0.6,0.4,,,0.6876,,0.2,0.8,0.6,0.4,0.8,0.2,0.8,0.2,1,0
,,61251c2fc253fd0b4be31eef,66daf5b564b74c84df79a6ec,2024-09-06_14h38.38.744,mdp,2024.2.1,Win32,60.60606061,66d7945b1baad48e845df3ce,,,,,,,,,,,,,,,,,,,,,1382.8694,1382.8694,1382.8716,1384.1175,1,1,right,0.7253,,1384.1201,1385.283,1,0,right,1385.2857,1386.3825,1,0,right,1,1386.3826,1386.3826,1386.3854,1387.881,0,34,34,34,1,0.8,0.2,0.8,0.2,,,,,,,,,,,,,,,0.624,,0.6,0.4,0.2,0.8,0.4,0.6,0.6,0.4,,,0.5706,,0.2,0.8,0.6,0.4,0.8,0.2,0.8,0.2,1,0
,,61251c2fc253fd0b4be31eef,66daf5b564b74c84df79a6ec,2024-09-06_14h38.38.744,mdp,2024.2.1,Win32,60.60606061,66d7945b1baad48e845df3ce,,,,,,,,,,,,,,,,,,,,,1387.882,1387.882,1387.8838,1389.1462,1,0,right,0.7339,,1389.1488,1390.2791,1,1,right,1390.2817,1391.4784,1,0,right,1,1391.4785,1391.4785,1391.4808,1392.9767,0,35,35,35,1,0.8,0.2,0.8,0.2,,,,,,,,,,,,,,,0.5997,,0.6,0.4,0.2,0.8,0.4,0.6,0.6,0.4,,,0.6527,,0.2,0.8,0.6,0.4,0.8,0.2,0.8,0.2,1,0
,,61251c2fc253fd0b4be31eef,66daf5b564b74c84df79a6ec,2024-09-06_14h38.38.744,mdp,2024.2.1,Win32,60.60606061,66d7945b1baad48e845df3ce,,,,,,,,,,,,,,,,,,,,,1392.9776,1392.9776,1392.9793,1393.9924,1,0,right,0.4836,,1393.9949,1394.9749,1,1,right,1394.9777,1396.0242,1,0,right,1,1396.0243,1396.0243,1396.0268,1397.5226,0,36,36,36,1,0.8,0.2,0.8,0.2,,,,,,,,,,,,,,,0.4555,,0.6,0.4,0.2,0.8,0.4,0.6,0.6,0.4,,,0.5246,,0.2,0.8,0.6,0.4,0.8,0.2,0.8,0.2,1,0
,,61251c2fc253fd0b4be31eef,66daf5b564b74c84df79a6ec,2024-09-06_14h38.38.744,mdp,2024.2.1,Win32,60.60606061,66d7945b1baad48e845df3ce,,,,,,,,,,,,,,,,,,,,,1397.5237,1397.5237,1397.5256,1398.5052,1,0,right,0.4505,,1398.5077,1399.871,1,1,right,1399.8733,1400.9031,1,1,right,0,1400.9031,1400.9031,1400.9057,1402.4017,0,37,37,37,1,0.8,0.2,0.8,0.2,,,,,,,,,,,,,,,0.8343,,0.6,0.4,0.2,0.8,0.4,0.6,0.6,0.4,,,0.506,,0.2,0.8,0.6,0.4,0.8,0.2,0.8,0.2,1,0
,,61251c2fc253fd0b4be31eef,66daf5b564b74c84df79a6ec,2024-09-06_14h38.38.744,mdp,2024.2.1,Win32,60.60606061,66d7945b1baad48e845df3ce,,,,,,,,,,,,,,,,,,,,,1402.4025,1402.4026,1402.4046,1403.4172,1,0,right,0.4843,,1403.4199,1404.4666,1,0,right,1404.4693,1405.4325,1,0,right,1,1405.4326,1405.4326,1405.4355,1406.931,0,38,38,38,1,0.8,0.2,0.8,0.2,,,,,,,,,,,,,,,0.5164,,0.6,0.4,0.2,0.8,0.4,0.6,0.6,0.4,,,0.4172,,0.2,0.8,0.6,0.4,0.8,0.2,0.8,0.2,1,0
,,61251c2fc253fd0b4be31eef,66daf5b564b74c84df79a6ec,2024-09-06_14h38.38.744,mdp,2024.2.1,Win32,60.60606061,66d7945b1baad48e845df3ce,,,,,,,,,,,,,,,,,,,,,1406.9315,1406.9315,1406.9339,1407.8804,1,0,right,0.417,,1407.883,1408.9293,1,0,right,1408.9319,1409.9949,1,0,right,1,1409.995,1409.995,1409.9976,1411.4938,0,39,39,39,1,0.8,0.2,0.8,0.2,,,,,,,,,,,,,,,0.52,,0.6,0.4,0.2,0.8,0.4,0.6,0.6,0.4,,,0.5413,,0.2,0.8,0.6,0.4,0.8,0.2,0.8,0.2,1,0
,,61251c2fc253fd0b4be31eef,66daf5b564b74c84df79a6ec,2024-09-06_14h38.38.744,mdp,2024.2.1,Win32,60.60606061,66d7945b1baad48e845df3ce,,,,,,,,,,,,,,,,,,,,,1411.4946,1411.4946,1411.4969,1412.6426,1,1,right,0.623,,1412.6454,1413.6421,1,0,right,1413.6447,1414.5743,1,0,right,1,1414.5744,1414.5744,1414.577,1416.0733,0,40,40,40,1,0.8,0.2,0.8,0.2,,,,,,,,,,,,,,,0.4531,,0.6,0.4,0.2,0.8,0.4,0.6,0.6,0.4,,,0.4061,,0.2,0.8,0.6,0.4,0.8,0.2,0.8,0.2,1,0
,,61251c2fc253fd0b4be31eef,66daf5b564b74c84df79a6ec,2024-09-06_14h38.38.744,mdp,2024.2.1,Win32,60.60606061,66d7945b1baad48e845df3ce,,,,,,,,,,,,,,,,,,,,,1416.0743,1416.0743,1416.0759,1417.022,1,0,right,0.425,,1417.0248,1418.0379,1,1,right,1418.0406,1419.0202,1,0,right,1,1419.0204,1419.0204,1419.0228,1420.5192,0,41,41,41,1,0.8,0.2,0.8,0.2,,,,,,,,,,,,,,,0.4686,,0.6,0.4,0.2,0.8,0.4,0.6,0.6,0.4,,,0.4338,,0.2,0.8,0.6,0.4,0.8,0.2,0.8,0.2,1,0
,,61251c2fc253fd0b4be31eef,66daf5b564b74c84df79a6ec,2024-09-06_14h38.38.744,mdp,2024.2.1,Win32,60.60606061,66d7945b1baad48e845df3ce,,,,,,,,,,,,,,,,,,,,,1420.5202,1420.5202,1420.5222,1421.6514,1,0,right,0.605,,1421.6541,1422.617,1,0,right,1422.6196,1423.4996,1,0,right,1,1423.4998,1423.4998,1423.5023,1424.9986,0,42,42,42,1,0.8,0.2,0.8,0.2,,,,,,,,,,,,,,,0.4437,,0.6,0.4,0.2,0.8,0.4,0.6,0.6,0.4,,,0.3434,,0.2,0.8,0.6,0.4,0.8,0.2,0.8,0.2,1,0
,,61251c2fc253fd0b4be31eef,66daf5b564b74c84df79a6ec,2024-09-06_14h38.38.744,mdp,2024.2.1,Win32,60.60606061,66d7945b1baad48e845df3ce,,,,,,,,,,,,,,,,,,,,,1424.9993,1424.9993,1425.0015,1426.4473,1,0,right,0.9041,,1426.4497,1427.3472,1,0,right,1427.3491,1428.2961,1,0,right,1,1428.2962,1428.2963,1428.2984,1429.7944,0,43,43,43,1,0.8,0.2,0.8,0.2,,,,,,,,,,,,,,,0.377,,0.2,0.8,0.4,0.6,0.4,0.6,0.6,0.4,,,0.4242,,0.2,0.8,0.6,0.4,0.8,0.2,0.8,0.2,1,0
,,61251c2fc253fd0b4be31eef,66daf5b564b74c84df79a6ec,2024-09-06_14h38.38.744,mdp,2024.2.1,Win32,60.60606061,66d7945b1baad48e845df3ce,,,,,,,,,,,,,,,,,,,,,1429.7952,1429.7952,1429.7973,1430.9271,1,1,right,0.6003,,1430.9295,1431.9093,1,1,right,1431.9119,1432.7752,1,0,right,1,1432.7758,1432.7758,1432.778,1434.274,0,44,44,44,1,0.4,0.6,0.6,0.4,,,,,,,,,,,,,,,0.4335,,0.2,0.8,0.4,0.6,0.4,0.6,0.6,0.4,,,0.3265,,0.2,0.8,0.6,0.4,0.8,0.2,0.8,0.2,1,0
,,61251c2fc253fd0b4be31eef,66daf5b564b74c84df79a6ec,2024-09-06_14h38.38.744,mdp,2024.2.1,Win32,60.60606061,66d7945b1baad48e845df3ce,,,,,,,,,,,,,,,,,,,,,1434.2746,1434.2746,1434.2769,1435.1896,1,0,right,0.3928,,1435.1922,1436.0223,1,1,right,1436.025,1436.9549,1,0,right,1,1436.955,1436.955,1436.9579,1438.4536,0,45,45,45,1,0.8,0.2,0.8,0.2,,,,,,,,,,,,,,,0.2908,,0.2,0.8,0.4,0.6,0.4,0.6,0.6,0.4,,,0.4074,,0.2,0.8,0.6,0.4,0.8,0.2,0.8,0.2,1,0
,,61251c2fc253fd0b4be31eef,66daf5b564b74c84df79a6ec,2024-09-06_14h38.38.744,mdp,2024.2.1,Win32,60.60606061,66d7945b1baad48e845df3ce,,,,,,,,,,,,,,,,,,,,,1438.4541,1438.4542,1438.4565,1439.4194,1,0,right,0.4336,,1439.422,1440.5349,1,1,right,1440.5376,1441.4512,1,1,right,0,1441.4513,1441.4513,1441.4538,1442.9495,0,46,46,46,1,0.8,0.2,0.8,0.2,,,,,,,,,,,,,,,0.584,,0.2,0.8,0.4,0.6,0.4,0.6,0.6,0.4,,,0.3854,,0.2,0.8,0.6,0.4,0.8,0.2,0.8,0.2,1,0
,,61251c2fc253fd0b4be31eef,66daf5b564b74c84df79a6ec,2024-09-06_14h38.38.744,mdp,2024.2.1,Win32,60.60606061,66d7945b1baad48e845df3ce,,,,,,,,,,,,,,,,,,,,,1442.9499,1442.9499,1442.9523,1443.6819,1,0,right,0.2105,,1443.6845,1444.5482,1,0,right,1444.5508,1445.4811,1,1,right,0,1445.4812,1445.4812,1445.4836,1446.9794,0,47,47,47,1,0.8,0.2,0.8,0.2,,,,,,,,,,,,,,,0.3405,,0.2,0.8,0.4,0.6,0.6,0.4,0.4,0.6,,,0.391,,0.2,0.8,0.6,0.4,0.8,0.2,0.8,0.2,1,0
,,61251c2fc253fd0b4be31eef,66daf5b564b74c84df79a6ec,2024-09-06_14h38.38.744,mdp,2024.2.1,Win32,60.60606061,66d7945b1baad48e845df3ce,,,,,,,,,,,,,,,,,,,,,1446.9801,1446.9801,1446.9823,1447.8952,1,0,right,0.3919,,1447.8979,1448.7448,1,0,right,1448.7473,1449.6105,1,1,right,0,1449.6105,1449.6105,1449.6133,1451.1093,0,48,48,48,1,0.8,0.2,0.8,0.2,,,,,,,,,,,,,,,0.3233,,0.2,0.8,0.4,0.6,0.6,0.4,0.4,0.6,,,0.3368,,0.2,0.8,0.6,0.4,0.8,0.2,0.8,0.2,1,0
,,61251c2fc253fd0b4be31eef,66daf5b564b74c84df79a6ec,2024-09-06_14h38.38.744,mdp,2024.2.1,Win32,60.60606061,66d7945b1baad48e845df3ce,,,,,,,,,,,,,,,,,,,,,1451.1103,1451.1103,1451.112,1452.1245,1,0,right,0.486,,1452.1273,1452.9241,1,0,right,1452.9265,1453.7403,1,1,right,0,1453.7403,1453.7403,1453.7429,1455.2389,0,49,49,49,1,0.8,0.2,0.8,0.2,,,,,,,,,,,,,,,0.2929,,0.2,0.8,0.4,0.6,0.6,0.4,0.4,0.6,,,0.2835,,0.6,0.4,0.2,0.8,0.8,0.2,0.8,0.2,1,0
,,61251c2fc253fd0b4be31eef,66daf5b564b74c84df79a6ec,2024-09-06_14h38.38.744,mdp,2024.2.1,Win32,60.60606061,66d7945b1baad48e845df3ce,,,,,,,,,,,,,,,,,,,,,,,,,,,,,,,,,,,,,,,,,,,,,,,,,,,,,,,,1455.2392,1513.7547,0,3,3,7,1,imgs/lion.png,imgs/bear.png,imgs/dog.png,imgs/cat.png,imgs/kangaroo.png,,,,,,,,,,,,,,,,,,,,,,,,
,,61251c2fc253fd0b4be31eef,66daf5b564b74c84df79a6ec,2024-09-06_14h38.38.744,mdp,2024.2.1,Win32,60.60606061,66d7945b1baad48e845df3ce,,,,,,,,,,,,,,1,seqs/st1seq39.csv,1513.7652,1759.557,space,245.2777,,1759.5691,1759.5691,1759.5696,1761.8881,1,0,right,1.7827,,1761.8907,1761.8912,1,0,,1761.8915,1761.8917,1,0,,1,1761.8917,1761.8917,1761.892,1763.3866,0,0,0,0,1,0.2,0.8,0.8,0.2,1,0,,,,,,,,,,,,,,,,,,,,,,,,,,,,,,,,,,,,
,,61251c2fc253fd0b4be31eef,66daf5b564b74c84df79a6ec,2024-09-06_14h38.38.744,mdp,2024.2.1,Win32,60.60606061,66d7945b1baad48e845df3ce,,,,,,,,,,,,,,,,,,,,,1763.3875,1763.3876,1763.3895,1764.5695,1,0,right,0.6493,,1764.572,1764.5723,1,0,,1764.5727,1764.573,1,0,,1,1764.573,1764.573,1764.5732,1766.0683,0,1,1,1,1,0.2,0.8,0.8,0.2,1,0,,,,,,,,,,,,,,,,,,,,,,,,,,,,,,,,,,,,
,,61251c2fc253fd0b4be31eef,66daf5b564b74c84df79a6ec,2024-09-06_14h38.38.744,mdp,2024.2.1,Win32,60.60606061,66d7945b1baad48e845df3ce,,,,,,,,,,,,,,,,,,,,,1766.0699,1766.07,1766.071,1767.2836,1,0,right,0.6931,,1767.2863,1767.2869,1,0,,1767.2872,1767.2876,1,0,,1,1767.2876,1767.2876,1767.2881,1768.7822,0,2,2,2,1,0.2,0.8,0.8,0.2,1,0,,,,,,,,,,,,,,,,,,,,,,,,,,,,,,,,,,,,
,,61251c2fc253fd0b4be31eef,66daf5b564b74c84df79a6ec,2024-09-06_14h38.38.744,mdp,2024.2.1,Win32,60.60606061,66d7945b1baad48e845df3ce,,,,,,,,,,,,,,,,,,,,,1768.7832,1768.7833,1768.7854,1769.8984,1,0,right,0.5904,,1769.9008,1769.9012,1,0,,1769.9015,1769.9017,1,1,,1,1769.9017,1769.9018,1769.9019,1771.3961,0,3,3,3,1,0.2,0.8,0.8,0.2,1,0,,,,,,,,,,,,,,,,,,,,,,,,,,,,,,,,,,,,
,,61251c2fc253fd0b4be31eef,66daf5b564b74c84df79a6ec,2024-09-06_14h38.38.744,mdp,2024.2.1,Win32,60.60606061,66d7945b1baad48e845df3ce,,,,,,,,,,,,,,,,,,,,,1771.3972,1771.3973,1771.3994,1772.8953,1,0,right,0.9688,,1772.8977,1772.8981,1,1,,1772.8984,1772.8987,1,1,,1,1772.8987,1772.8987,1772.8989,1774.3938,0,4,4,4,1,0.4,0.6,0.6,0.4,1,0,,,,,,,,,,,,,,,,,,,,,,,,,,,,,,,,,,,,
,,61251c2fc253fd0b4be31eef,66daf5b564b74c84df79a6ec,2024-09-06_14h38.38.744,mdp,2024.2.1,Win32,60.60606061,66d7945b1baad48e845df3ce,,,,,,,,,,,,,,,,,,,,,1774.3943,1774.3943,1774.3967,1775.6929,1,0,right,0.7658,,1775.6955,1775.6959,1,0,,1775.6963,1775.6965,1,0,,1,1775.6965,1775.6965,1775.6968,1777.1915,0,5,5,5,1,0.4,0.6,0.6,0.4,1,0,,,,,,,,,,,,,,,,,,,,,,,,,,,,,,,,,,,,
,,61251c2fc253fd0b4be31eef,66daf5b564b74c84df79a6ec,2024-09-06_14h38.38.744,mdp,2024.2.1,Win32,60.60606061,66d7945b1baad48e845df3ce,,,,,,,,,,,,,,,,,,,,,1777.1923,1777.1924,1777.1944,1778.5739,1,0,right,0.8496,,1778.5763,1778.5767,1,1,,1778.577,1778.5773,1,0,,1,1778.5773,1778.5773,1778.5775,1780.0723,0,6,6,6,1,0.6,0.4,0.8,0.2,1,0,,,,,,,,,,,,,,,,,,,,,,,,,,,,,,,,,,,,
,,61251c2fc253fd0b4be31eef,66daf5b564b74c84df79a6ec,2024-09-06_14h38.38.744,mdp,2024.2.1,Win32,60.60606061,66d7945b1baad48e845df3ce,,,,,,,,,,,,,,,,,,,,,1780.0729,1780.073,1780.0752,1781.3209,1,1,right,0.7232,,1781.3236,1781.3241,1,0,,1781.3244,1781.3246,1,0,,0,1781.3246,1781.3246,1781.3249,1782.8198,0,7,7,7,1,0.6,0.4,0.8,0.2,1,0,,,,,,,,,,,,,,,,,,,,,,,,,,,,,,,,,,,,
,,61251c2fc253fd0b4be31eef,66daf5b564b74c84df79a6ec,2024-09-06_14h38.38.744,mdp,2024.2.1,Win32,60.60606061,66d7945b1baad48e845df3ce,,,,,,,,,,,,,,,,,,,,,1782.8203,1782.8203,1782.8227,1783.8858,0,1,left,0.5332,,1783.8884,1783.8888,1,1,,1783.8893,1783.8894,1,0,,0,1783.8894,1783.8894,1783.8897,1785.3842,0,8,8,8,1,0.4,0.6,0.6,0.4,1,0,,,,,,,,,,,,,,,,,,,,,,,,,,,,,,,,,,,,
,,61251c2fc253fd0b4be31eef,66daf5b564b74c84df79a6ec,2024-09-06_14h38.38.744,mdp,2024.2.1,Win32,60.60606061,66d7945b1baad48e845df3ce,,,,,,,,,,,,,,,,,,,,,1785.3846,1785.3846,1785.3871,1786.2503,1,0,right,0.3336,,1786.253,1786.2534,1,1,,1786.2538,1786.2539,1,1,,1,1786.254,1786.254,1786.2542,1787.7489,0,9,9,9,1,0.4,0.6,0.6,0.4,1,0,,,,,,,,,,,,,,,,,,,,,,,,,,,,,,,,,,,,
,,61251c2fc253fd0b4be31eef,66daf5b564b74c84df79a6ec,2024-09-06_14h38.38.744,mdp,2024.2.1,Win32,60.60606061,66d7945b1baad48e845df3ce,,,,,,,,,,,,,,,,,,,,,1787.7497,1787.7497,1787.7518,1788.9145,1,0,right,0.6333,,1788.9173,1788.9176,1,0,,1788.918,1788.9183,1,0,,1,1788.9184,1788.9184,1788.9186,1790.4132,0,10,10,10,1,0.4,0.6,0.6,0.4,1,0,,,,,,,,,,,,,,,,,,,,,,,,,,,,,,,,,,,,
,,61251c2fc253fd0b4be31eef,66daf5b564b74c84df79a6ec,2024-09-06_14h38.38.744,mdp,2024.2.1,Win32,60.60606061,66d7945b1baad48e845df3ce,,,,,,,,,,,,,,,,,,,,,1790.4138,1790.4138,1790.4162,1791.5123,1,0,right,0.5705,,1791.5149,1791.5154,1,0,,1791.5157,1791.516,1,0,,1,1791.516,1791.516,1791.5163,1793.011,0,11,11,11,1,0.4,0.6,0.6,0.4,1,0,,,,,,,,,,,,,,,,,,,,,,,,,,,,,,,,,,,,
,,61251c2fc253fd0b4be31eef,66daf5b564b74c84df79a6ec,2024-09-06_14h38.38.744,mdp,2024.2.1,Win32,60.60606061,66d7945b1baad48e845df3ce,,,,,,,,,,,,,,,,,,,,,1793.0114,1793.0114,1793.0139,1794.2932,1,1,right,0.7505,,1794.2959,1794.2964,1,1,,1794.2967,1794.297,1,0,,0,1794.297,1794.297,1794.2972,1795.792,0,12,12,12,1,0.4,0.6,0.6,0.4,1,0,,,,,,,,,,,,,,,,,,,,,,,,,,,,,,,,,,,,
,,61251c2fc253fd0b4be31eef,66daf5b564b74c84df79a6ec,2024-09-06_14h38.38.744,mdp,2024.2.1,Win32,60.60606061,66d7945b1baad48e845df3ce,,,,,,,,,,,,,,,,,,,,,1795.7929,1795.7929,1795.7947,1796.6578,1,0,right,0.3338,,1796.6603,1796.6608,1,1,,1796.6611,1796.6613,1,1,,1,1796.6613,1796.6613,1796.6616,1798.1564,0,13,13,13,1,0.4,0.6,0.6,0.4,1,0,,,,,,,,,,,,,,,,,,,,,,,,,,,,,,,,,,,,
,,61251c2fc253fd0b4be31eef,66daf5b564b74c84df79a6ec,2024-09-06_14h38.38.744,mdp,2024.2.1,Win32,60.60606061,66d7945b1baad48e845df3ce,,,,,,,,,,,,,,,,,,,,,1798.1571,1798.1571,1798.1593,1799.3557,1,1,right,0.6674,,1799.3586,1799.3589,1,1,,1799.3593,1799.3595,1,0,,0,1799.3595,1799.3595,1799.3598,1800.8544,0,14,14,14,1,0.4,0.6,0.6,0.4,1,0,,,,,,,,,,,,,,,,,,,,,,,,,,,,,,,,,,,,
,,61251c2fc253fd0b4be31eef,66daf5b564b74c84df79a6ec,2024-09-06_14h38.38.744,mdp,2024.2.1,Win32,60.60606061,66d7945b1baad48e845df3ce,,,,,,,,,,,,,,,,,,,,,1800.8554,1800.8555,1800.8573,1801.9033,1,0,right,0.5236,,1801.906,1801.9064,1,0,,1801.9068,1801.907,1,0,,1,1801.907,1801.907,1801.9073,1803.402,0,15,15,15,1,0.4,0.6,0.6,0.4,1,0,,,,,,,,,,,,,,,,,,,,,,,,,,,,,,,,,,,,
,,61251c2fc253fd0b4be31eef,66daf5b564b74c84df79a6ec,2024-09-06_14h38.38.744,mdp,2024.2.1,Win32,60.60606061,66d7945b1baad48e845df3ce,,,,,,,,,,,,,,,,,,,,,1803.4026,1803.4027,1803.4049,1804.7346,1,0,right,0.7999,,1804.7371,1804.7375,1,0,,1804.7378,1804.7381,1,1,,1,1804.7381,1804.7381,1804.7383,1806.2328,0,16,16,16,1,0.4,0.6,0.6,0.4,1,0,,,,,,,,,,,,,,,,,,,,,,,,,,,,,,,,,,,,
,,61251c2fc253fd0b4be31eef,66daf5b564b74c84df79a6ec,2024-09-06_14h38.38.744,mdp,2024.2.1,Win32,60.60606061,66d7945b1baad48e845df3ce,,,,,,,,,,,,,,,,,,,,,1806.2332,1806.2332,1806.2358,1807.465,1,0,right,0.6996,,1807.4676,1807.4681,1,0,,1807.4684,1807.4686,1,0,,1,1807.4686,1807.4686,1807.4688,1808.964,0,17,17,17,1,0.4,0.6,0.6,0.4,1,0,,,,,,,,,,,,,,,,,,,,,,,,,,,,,,,,,,,,
,,61251c2fc253fd0b4be31eef,66daf5b564b74c84df79a6ec,2024-09-06_14h38.38.744,mdp,2024.2.1,Win32,60.60606061,66d7945b1baad48e845df3ce,,,,,,,,,,,,,,,,,,,,,1808.965,1808.965,1808.9668,1810.2793,1,1,right,0.7827,,1810.2819,1810.2823,1,0,,1810.2826,1810.2828,1,0,,0,1810.2828,1810.2829,1810.2831,1811.7778,0,18,18,18,1,0.4,0.6,0.6,0.4,1,0,,,,,,,,,,,,,,,,,,,,,,,,,,,,,,,,,,,,
,,61251c2fc253fd0b4be31eef,66daf5b564b74c84df79a6ec,2024-09-06_14h38.38.744,mdp,2024.2.1,Win32,60.60606061,66d7945b1baad48e845df3ce,,,,,,,,,,,,,,,,,,,,,1811.7783,1811.7783,1811.7807,1813.5095,1,1,right,1.2004,,1813.5119,1813.5125,1,1,,1813.513,1813.5131,1,0,,0,1813.5132,1813.5132,1813.5134,1815.0088,0,19,19,19,1,0.4,0.6,0.6,0.4,1,0,,,,,,,,,,,,,,,,,,,,,,,,,,,,,,,,,,,,
,,61251c2fc253fd0b4be31eef,66daf5b564b74c84df79a6ec,2024-09-06_14h38.38.744,mdp,2024.2.1,Win32,60.60606061,66d7945b1baad48e845df3ce,,,,,,,,,,,,,,,,,,,,,1815.0097,1815.0097,1815.0113,1816.1737,1,1,right,0.6427,,1816.1763,1816.1768,1,1,,1816.1771,1816.1773,1,1,,0,1816.1773,1816.1773,1816.1776,1817.6729,0,20,20,20,1,0.6,0.4,0.4,0.6,1,0,,,,,,,,,,,,,,,,,,,,,,,,,,,,,,,,,,,,
,,61251c2fc253fd0b4be31eef,66daf5b564b74c84df79a6ec,2024-09-06_14h38.38.744,mdp,2024.2.1,Win32,60.60606061,66d7945b1baad48e845df3ce,,,,,,,,,,,,,,,,,,,,,1817.6734,1817.6735,1817.6758,1818.7385,1,0,right,0.5389,,1818.7411,1818.7415,1,0,,1818.7419,1818.7421,1,1,,1,1818.7421,1818.7422,1818.7425,1820.2369,0,21,21,21,1,0.4,0.6,0.6,0.4,1,0,,,,,,,,,,,,,,,,,,,,,,,,,,,,,,,,,,,,
,,61251c2fc253fd0b4be31eef,66daf5b564b74c84df79a6ec,2024-09-06_14h38.38.744,mdp,2024.2.1,Win32,60.60606061,66d7945b1baad48e845df3ce,,,,,,,,,,,,,,,,,,,,,1820.2375,1820.2375,1820.2397,1821.3863,1,1,right,0.6159,,1821.3888,1821.3892,1,0,,1821.3895,1821.3897,1,1,,0,1821.3897,1821.3897,1821.39,1822.8852,0,22,22,22,1,0.4,0.6,0.6,0.4,1,0,,,,,,,,,,,,,,,,,,,,,,,,,,,,,,,,,,,,
,,61251c2fc253fd0b4be31eef,66daf5b564b74c84df79a6ec,2024-09-06_14h38.38.744,mdp,2024.2.1,Win32,60.60606061,66d7945b1baad48e845df3ce,,,,,,,,,,,,,,,,,,,,,1822.886,1822.886,1822.888,1824.2168,1,0,right,0.7996,,1824.2195,1824.2199,1,0,,1824.2202,1824.2204,1,0,,1,1824.2204,1824.2204,1824.2207,1825.7157,0,23,23,23,1,0.4,0.6,0.6,0.4,1,0,,,,,,,,,,,,,,,,,,,,,,,,,,,,,,,,,,,,
,,61251c2fc253fd0b4be31eef,66daf5b564b74c84df79a6ec,2024-09-06_14h38.38.744,mdp,2024.2.1,Win32,60.60606061,66d7945b1baad48e845df3ce,,,,,,,,,,,,,,,,,,,,,1825.7164,1825.7165,1825.7186,1826.9314,1,1,right,0.6907,,1826.934,1826.9344,1,0,,1826.9348,1826.935,1,0,,0,1826.935,1826.935,1826.9353,1828.43,0,24,24,24,1,0.4,0.6,0.6,0.4,1,0,,,,,,,,,,,,,,,,,,,,,,,,,,,,,,,,,,,,
,,61251c2fc253fd0b4be31eef,66daf5b564b74c84df79a6ec,2024-09-06_14h38.38.744,mdp,2024.2.1,Win32,60.60606061,66d7945b1baad48e845df3ce,,,,,,,,,,,,,,,,,,,,,1828.4304,1828.4304,1828.433,1829.8955,1,0,right,0.935,,1829.8982,1829.8986,1,0,,1829.899,1829.8992,1,0,,1,1829.8993,1829.8993,1829.8995,1831.3943,0,25,25,25,1,0.6,0.4,0.8,0.2,1,0,,,,,,,,,,,,,,,,,,,,,,,,,,,,,,,,,,,,
,,61251c2fc253fd0b4be31eef,66daf5b564b74c84df79a6ec,2024-09-06_14h38.38.744,mdp,2024.2.1,Win32,60.60606061,66d7945b1baad48e845df3ce,,,,,,,,,,,,,,,,,,,,,1831.3952,1831.3952,1831.3972,1832.6431,1,0,right,0.7254,,1832.6457,1832.6461,1,0,,1832.6465,1832.6467,1,0,,1,1832.6467,1832.6467,1832.647,1834.1418,0,26,26,26,1,0.6,0.4,0.8,0.2,1,0,,,,,,,,,,,,,,,,,,,,,,,,,,,,,,,,,,,,
,,61251c2fc253fd0b4be31eef,66daf5b564b74c84df79a6ec,2024-09-06_14h38.38.744,mdp,2024.2.1,Win32,60.60606061,66d7945b1baad48e845df3ce,,,,,,,,,,,,,,,,,,,,,1834.1422,1834.1423,1834.1446,1835.3411,1,0,right,0.6661,,1835.3435,1835.3439,1,0,,1835.3443,1835.3445,1,0,,1,1835.3445,1835.3445,1835.3447,1836.8394,0,27,27,27,1,0.6,0.4,0.8,0.2,1,0,,,,,,,,,,,,,,,,,,,,,,,,,,,,,,,,,,,,
,,61251c2fc253fd0b4be31eef,66daf5b564b74c84df79a6ec,2024-09-06_14h38.38.744,mdp,2024.2.1,Win32,60.60606061,66d7945b1baad48e845df3ce,,,,,,,,,,,,,,,,,,,,,1836.8401,1836.8401,1836.8423,1838.4383,1,0,right,1.0666,,1838.4407,1838.441,1,0,,1838.4414,1838.4416,1,1,,1,1838.4416,1838.4416,1838.4418,1839.9365,0,28,28,28,1,0.6,0.4,0.8,0.2,1,0,,,,,,,,,,,,,,,,,,,,,,,,,,,,,,,,,,,,
,,61251c2fc253fd0b4be31eef,66daf5b564b74c84df79a6ec,2024-09-06_14h38.38.744,mdp,2024.2.1,Win32,60.60606061,66d7945b1baad48e845df3ce,,,,,,,,,,,,,,,,,,,,,1839.937,1839.9371,1839.9394,1841.4025,1,0,right,0.933,,1841.4049,1841.4053,1,0,,1841.4057,1841.4059,1,0,,1,1841.4059,1841.4059,1841.4062,1842.901,0,29,29,29,1,0.6,0.4,0.8,0.2,1,0,,,,,,,,,,,,,,,,,,,,,,,,,,,,,,,,,,,,
,,61251c2fc253fd0b4be31eef,66daf5b564b74c84df79a6ec,2024-09-06_14h38.38.744,mdp,2024.2.1,Win32,60.60606061,66d7945b1baad48e845df3ce,,,,,,,,,,,,,,,,,,,,,1842.9019,1842.9019,1842.9038,1844.2497,1,1,right,0.82,,1844.2522,1844.2527,1,0,,1844.2531,1844.2533,1,0,,0,1844.2534,1844.2534,1844.2536,1845.7483,0,30,30,30,1,0.6,0.4,0.8,0.2,1,0,,,,,,,,,,,,,,,,,,,,,,,,,,,,,,,,,,,,
,,61251c2fc253fd0b4be31eef,66daf5b564b74c84df79a6ec,2024-09-06_14h38.38.744,mdp,2024.2.1,Win32,60.60606061,66d7945b1baad48e845df3ce,,,,,,,,,,,,,,,,,,,,,1845.749,1845.749,1845.7511,1846.8305,1,0,right,0.5567,,1846.8328,1846.8335,1,1,,1846.8339,1846.8341,1,0,,1,1846.8341,1846.8341,1846.8344,1848.3293,0,31,31,31,1,0.8,0.2,0.4,0.6,1,0,,,,,,,,,,,,,,,,,,,,,,,,,,,,,,,,,,,,
,,61251c2fc253fd0b4be31eef,66daf5b564b74c84df79a6ec,2024-09-06_14h38.38.744,mdp,2024.2.1,Win32,60.60606061,66d7945b1baad48e845df3ce,,,,,,,,,,,,,,,,,,,,,1848.3298,1848.3298,1848.3322,1849.6126,1,1,right,0.7531,,1849.6145,1849.6148,1,0,,1849.6151,1849.6153,1,1,,0,1849.6154,1849.6154,1849.6156,1851.1104,0,32,32,32,1,0.8,0.2,0.4,0.6,1,0,,,,,,,,,,,,,,,,,,,,,,,,,,,,,,,,,,,,
,,61251c2fc253fd0b4be31eef,66daf5b564b74c84df79a6ec,2024-09-06_14h38.38.744,mdp,2024.2.1,Win32,60.60606061,66d7945b1baad48e845df3ce,,,,,,,,,,,,,,,,,,,,,1851.1111,1851.1111,1851.1132,1852.5428,1,0,right,0.9002,,1852.5452,1852.5456,1,1,,1852.5459,1852.5461,1,1,,1,1852.5461,1852.5461,1852.5464,1854.0411,0,33,33,33,1,0.8,0.2,0.4,0.6,1,0,,,,,,,,,,,,,,,,,,,,,,,,,,,,,,,,,,,,
,,61251c2fc253fd0b4be31eef,66daf5b564b74c84df79a6ec,2024-09-06_14h38.38.744,mdp,2024.2.1,Win32,60.60606061,66d7945b1baad48e845df3ce,,,,,,,,,,,,,,,,,,,,,1854.0416,1854.0417,1854.044,1855.5568,1,1,right,0.9836,,1855.5593,1855.5596,1,0,,1855.56,1855.5602,1,1,,0,1855.5602,1855.5602,1855.5604,1857.0552,0,34,34,34,1,0.6,0.4,0.8,0.2,1,0,,,,,,,,,,,,,,,,,,,,,,,,,,,,,,,,,,,,
,,61251c2fc253fd0b4be31eef,66daf5b564b74c84df79a6ec,2024-09-06_14h38.38.744,mdp,2024.2.1,Win32,60.60606061,66d7945b1baad48e845df3ce,,,,,,,,,,,,,,,,,,,,,1857.0556,1857.0556,1857.0581,1866.6964,1,0,right,9.097,,1866.7064,1866.7067,1,0,,1866.707,1866.7073,1,0,,1,1866.7073,1866.7073,1866.7076,1868.1954,0,35,35,35,1,0.6,0.4,0.8,0.2,1,0,,,,,,,,,,,,,,,,,,,,,,,,,,,,,,,,,,,,
,,61251c2fc253fd0b4be31eef,66daf5b564b74c84df79a6ec,2024-09-06_14h38.38.744,mdp,2024.2.1,Win32,60.60606061,66d7945b1baad48e845df3ce,,,,,,,,,,,,,,,,,,,,,1868.1959,1868.1959,1868.1983,1869.245,1,0,right,0.5219,,1869.2474,1869.2477,1,0,,1869.248,1869.2482,1,1,,1,1869.2482,1869.2482,1869.2485,1870.7432,0,36,36,36,1,0.6,0.4,0.8,0.2,1,0,,,,,,,,,,,,,,,,,,,,,,,,,,,,,,,,,,,,
,,61251c2fc253fd0b4be31eef,66daf5b564b74c84df79a6ec,2024-09-06_14h38.38.744,mdp,2024.2.1,Win32,60.60606061,66d7945b1baad48e845df3ce,,,,,,,,,,,,,,,,,,,,,1870.744,1870.744,1870.7461,1871.7257,1,0,right,0.4503,,1871.7282,1871.7288,1,0,,1871.7292,1871.7294,1,0,,1,1871.7295,1871.7295,1871.7297,1873.2244,0,37,37,37,1,0.6,0.4,0.8,0.2,1,0,,,,,,,,,,,,,,,,,,,,,,,,,,,,,,,,,,,,
,,61251c2fc253fd0b4be31eef,66daf5b564b74c84df79a6ec,2024-09-06_14h38.38.744,mdp,2024.2.1,Win32,60.60606061,66d7945b1baad48e845df3ce,,,,,,,,,,,,,,,,,,,,,1873.2251,1873.2252,1873.2272,1874.3235,1,0,right,0.5668,,1874.326,1874.3265,1,0,,1874.3268,1874.3269,1,0,,1,1874.327,1874.327,1874.3272,1875.8221,0,38,38,38,1,0.6,0.4,0.8,0.2,1,0,,,,,,,,,,,,,,,,,,,,,,,,,,,,,,,,,,,,
