init_exp.started,init_exp.stopped,participant,session,date,expName,psychopyVersion,OS,frameRate,study_id,disp_instruction.started,disp_instruction.stopped,instruction.thisRepN,instruction.thisTrialN,instruction.thisN,instruction.thisIndex,instruction.ran,instimg_path,consent.started,consent.stopped,key_resp_3.keys,key_resp_3.rt,key_resp_3.duration,n_steps,sequence_path,init_block.started,init_block.stopped,key_resp.keys,key_resp.rt,key_resp.duration,init_trials.started,init_trials.stopped,step0.started,step0.stopped,act0,s1,res0.keys,res0.rt,res0.duration,step1.started,step1.stopped,act1,s2,res1.keys,step2.started,step2.stopped,act2,s3,res2.keys,rew,reward_comp.started,reward_comp.stopped,reward_disp.started,reward_disp.stopped,trials.thisRepN,trials.thisTrialN,trials.thisN,trials.thisIndex,trials.ran,s00a0s10,s00a0s11,s00a1s10,s00a1s11,rew10,rew11,break_block.started,break_block.stopped,block.thisRepN,block.thisTrialN,block.thisN,block.thisIndex,block.ran,s00path,s10path,s11path,s20path,s21path,res1.rt,res1.duration,s10a0s20,s10a0s21,s10a1s20,s10a1s21,s11a0s20,s11a0s21,s11a1s20,s11a1s21,rew20,rew21,res2.rt,res2.duration,s20a0s30,s20a0s31,s20a1s30,s20a1s31,s21a0s30,s21a0s31,s21a1s30,s21a1s31,rew30,rew31
0.0004,0.0019,612520bd6605794b27e6a0fd,66fc9797e42fae7a97d1f072,2024-10-02_01h45.39.324,mdp,2024.2.1,Win32,59.88023952,66fa4ebf79326e780c390304,,,,,,,,,,,,,,,,,,,,,,,,,,,,,,,,,,,,,,,,,,,,,,,,,,,,,,,,,,,,,,,,,,,,,,,,,,,,,,,,,,,,,,,,,,,
,,612520bd6605794b27e6a0fd,66fc9797e42fae7a97d1f072,2024-10-02_01h45.39.324,mdp,2024.2.1,Win32,59.88023952,66fa4ebf79326e780c390304,0.0072,99.9224,0,0,0,0,1,rlnn_exp/rlnn_exp.001.png,,,,,,,,,,,,,,,,,,,,,,,,,,,,,,,,,,,,,,,,,,,,,,,,,,,,,,,,,,,,,,,,,,,,,,,,,,,,,,,,,,,
,,612520bd6605794b27e6a0fd,66fc9797e42fae7a97d1f072,2024-10-02_01h45.39.324,mdp,2024.2.1,Win32,59.88023952,66fa4ebf79326e780c390304,99.9237,148.3302,0,1,1,1,1,rlnn_exp/rlnn_exp.002.png,,,,,,,,,,,,,,,,,,,,,,,,,,,,,,,,,,,,,,,,,,,,,,,,,,,,,,,,,,,,,,,,,,,,,,,,,,,,,,,,,,,
,,612520bd6605794b27e6a0fd,66fc9797e42fae7a97d1f072,2024-10-02_01h45.39.324,mdp,2024.2.1,Win32,59.88023952,66fa4ebf79326e780c390304,148.332,235.3057,0,2,2,2,1,rlnn_exp/rlnn_exp.003.png,,,,,,,,,,,,,,,,,,,,,,,,,,,,,,,,,,,,,,,,,,,,,,,,,,,,,,,,,,,,,,,,,,,,,,,,,,,,,,,,,,,
,,612520bd6605794b27e6a0fd,66fc9797e42fae7a97d1f072,2024-10-02_01h45.39.324,mdp,2024.2.1,Win32,59.88023952,66fa4ebf79326e780c390304,235.3071,319.4116,0,3,3,3,1,rlnn_exp/rlnn_exp.004.png,,,,,,,,,,,,,,,,,,,,,,,,,,,,,,,,,,,,,,,,,,,,,,,,,,,,,,,,,,,,,,,,,,,,,,,,,,,,,,,,,,,
,,612520bd6605794b27e6a0fd,66fc9797e42fae7a97d1f072,2024-10-02_01h45.39.324,mdp,2024.2.1,Win32,59.88023952,66fa4ebf79326e780c390304,,,,,,,,,319.4122,358.429,y,28.9887,,,,,,,,,,,,,,,,,,,,,,,,,,,,,,,,,,,,,,,,,,,,,,,,,,,,,,,,,,,,,,,,,,,,,,,,,,,,,,,
,,612520bd6605794b27e6a0fd,66fc9797e42fae7a97d1f072,2024-10-02_01h45.39.324,mdp,2024.2.1,Win32,59.88023952,66fa4ebf79326e780c390304,,,,,,,,,,,,,,1,seqs/st1seq30.csv,358.441,361.1312,space,2.173,,361.1365,361.1367,361.1373,362.2323,0,0,left,0.564,,362.233,362.2359,,1,,362.2364,362.2382,,0,,1,362.2384,362.2386,362.2391,363.733,0,0,0,0,1,0.6,0.4,0.4,0.6,1,0,,,,,,,,,,,,,,,,,,,,,,,,,,,,,,,,,,,,
,,612520bd6605794b27e6a0fd,66fc9797e42fae7a97d1f072,2024-10-02_01h45.39.324,mdp,2024.2.1,Win32,59.88023952,66fa4ebf79326e780c390304,,,,,,,,,,,,,,,,,,,,,363.7335,363.7335,363.7344,364.7838,0,0,left,0.5244,,364.785,364.7856,,0,,364.7863,364.7868,,0,,1,364.7869,364.7869,364.7873,366.2852,0,1,1,1,1,0.6,0.4,0.4,0.6,1,0,,,,,,,,,,,,,,,,,,,,,,,,,,,,,,,,,,,,
,,612520bd6605794b27e6a0fd,66fc9797e42fae7a97d1f072,2024-10-02_01h45.39.324,mdp,2024.2.1,Win32,59.88023952,66fa4ebf79326e780c390304,,,,,,,,,,,,,,,,,,,,,366.2857,366.2858,366.2881,367.4365,0,0,left,0.6176,,367.4382,367.4393,,0,,367.4402,367.441,,0,,1,367.4411,367.4411,367.4417,368.9375,0,2,2,2,1,0.8,0.2,0.6,0.4,1,0,,,,,,,,,,,,,,,,,,,,,,,,,,,,,,,,,,,,
,,612520bd6605794b27e6a0fd,66fc9797e42fae7a97d1f072,2024-10-02_01h45.39.324,mdp,2024.2.1,Win32,59.88023952,66fa4ebf79326e780c390304,,,,,,,,,,,,,,,,,,,,,368.938,368.938,368.9401,369.8717,0,1,left,0.4074,,369.8728,369.8736,,1,,369.8744,369.8749,,0,,0,369.8749,369.8749,369.8754,371.373,0,3,3,3,1,0.8,0.2,0.6,0.4,1,0,,,,,,,,,,,,,,,,,,,,,,,,,,,,,,,,,,,,
,,612520bd6605794b27e6a0fd,66fc9797e42fae7a97d1f072,2024-10-02_01h45.39.324,mdp,2024.2.1,Win32,59.88023952,66fa4ebf79326e780c390304,,,,,,,,,,,,,,,,,,,,,371.3734,371.3734,371.3751,372.4905,1,0,right,0.5877,,372.4914,372.4921,,1,,372.4927,372.4933,,0,,1,372.4933,372.4933,372.4938,373.9916,0,4,4,4,1,0.8,0.2,0.6,0.4,1,0,,,,,,,,,,,,,,,,,,,,,,,,,,,,,,,,,,,,
,,612520bd6605794b27e6a0fd,66fc9797e42fae7a97d1f072,2024-10-02_01h45.39.324,mdp,2024.2.1,Win32,59.88023952,66fa4ebf79326e780c390304,,,,,,,,,,,,,,,,,,,,,373.992,373.992,373.9938,375.0262,1,1,right,0.5175,,375.0272,375.0278,,0,,375.0283,375.0289,,1,,0,375.0289,375.0289,375.0293,376.5272,0,5,5,5,1,0.8,0.2,0.6,0.4,1,0,,,,,,,,,,,,,,,,,,,,,,,,,,,,,,,,,,,,
,,612520bd6605794b27e6a0fd,66fc9797e42fae7a97d1f072,2024-10-02_01h45.39.324,mdp,2024.2.1,Win32,59.88023952,66fa4ebf79326e780c390304,,,,,,,,,,,,,,,,,,,,,376.5275,376.5275,376.5288,377.4616,0,0,left,0.4174,,377.4626,377.4633,,0,,377.464,377.4647,,0,,1,377.4647,377.4648,377.4653,378.963,0,6,6,6,1,0.8,0.2,0.6,0.4,1,0,,,,,,,,,,,,,,,,,,,,,,,,,,,,,,,,,,,,
,,612520bd6605794b27e6a0fd,66fc9797e42fae7a97d1f072,2024-10-02_01h45.39.324,mdp,2024.2.1,Win32,59.88023952,66fa4ebf79326e780c390304,,,,,,,,,,,,,,,,,,,,,378.9634,378.9635,378.9655,379.9804,0,0,left,0.4844,,379.9813,379.982,,0,,379.9827,379.9833,,1,,1,379.9833,379.9833,379.9839,381.4816,0,7,7,7,1,0.8,0.2,0.6,0.4,1,0,,,,,,,,,,,,,,,,,,,,,,,,,,,,,,,,,,,,
,,612520bd6605794b27e6a0fd,66fc9797e42fae7a97d1f072,2024-10-02_01h45.39.324,mdp,2024.2.1,Win32,59.88023952,66fa4ebf79326e780c390304,,,,,,,,,,,,,,,,,,,,,381.4822,381.4824,381.4838,382.4827,0,0,left,0.4677,,382.4841,382.4854,,0,,382.4867,382.4874,,0,,1,382.4875,382.4875,382.4882,383.9838,0,8,8,8,1,0.8,0.2,0.6,0.4,1,0,,,,,,,,,,,,,,,,,,,,,,,,,,,,,,,,,,,,
,,612520bd6605794b27e6a0fd,66fc9797e42fae7a97d1f072,2024-10-02_01h45.39.324,mdp,2024.2.1,Win32,59.88023952,66fa4ebf79326e780c390304,,,,,,,,,,,,,,,,,,,,,383.9843,383.9844,383.9859,384.9515,0,0,left,0.4338,,384.9526,384.9532,,0,,384.9538,384.9543,,0,,1,384.9543,384.9543,384.9548,386.4526,0,9,9,9,1,0.8,0.2,0.6,0.4,1,0,,,,,,,,,,,,,,,,,,,,,,,,,,,,,,,,,,,,
,,612520bd6605794b27e6a0fd,66fc9797e42fae7a97d1f072,2024-10-02_01h45.39.324,mdp,2024.2.1,Win32,59.88023952,66fa4ebf79326e780c390304,,,,,,,,,,,,,,,,,,,,,386.4531,386.4532,386.4549,387.3704,0,0,left,0.3891,,387.372,387.373,,1,,387.3739,387.3747,,0,,1,387.3747,387.3747,387.3754,388.8715,0,10,10,10,1,0.8,0.2,0.6,0.4,1,0,,,,,,,,,,,,,,,,,,,,,,,,,,,,,,,,,,,,
,,612520bd6605794b27e6a0fd,66fc9797e42fae7a97d1f072,2024-10-02_01h45.39.324,mdp,2024.2.1,Win32,59.88023952,66fa4ebf79326e780c390304,,,,,,,,,,,,,,,,,,,,,388.8719,388.8719,388.8735,389.7558,0,0,left,0.3537,,389.7579,389.7593,,0,,389.7604,389.7612,,0,,1,389.7613,389.7613,389.762,391.2568,0,11,11,11,1,0.8,0.2,0.6,0.4,1,0,,,,,,,,,,,,,,,,,,,,,,,,,,,,,,,,,,,,
,,612520bd6605794b27e6a0fd,66fc9797e42fae7a97d1f072,2024-10-02_01h45.39.324,mdp,2024.2.1,Win32,59.88023952,66fa4ebf79326e780c390304,,,,,,,,,,,,,,,,,,,,,391.2572,391.2572,391.2589,392.1079,0,0,left,0.3172,,392.1094,392.1106,,0,,392.1116,392.1124,,0,,1,392.1124,392.1124,392.1131,393.609,0,12,12,12,1,0.8,0.2,0.6,0.4,1,0,,,,,,,,,,,,,,,,,,,,,,,,,,,,,,,,,,,,
,,612520bd6605794b27e6a0fd,66fc9797e42fae7a97d1f072,2024-10-02_01h45.39.324,mdp,2024.2.1,Win32,59.88023952,66fa4ebf79326e780c390304,,,,,,,,,,,,,,,,,,,,,393.6095,393.6095,393.611,394.5264,0,0,left,0.3847,,394.5281,394.5291,,1,,394.5303,394.5312,,0,,1,394.5312,394.5312,394.532,396.0277,0,13,13,13,1,0.8,0.2,0.6,0.4,1,0,,,,,,,,,,,,,,,,,,,,,,,,,,,,,,,,,,,,
,,612520bd6605794b27e6a0fd,66fc9797e42fae7a97d1f072,2024-10-02_01h45.39.324,mdp,2024.2.1,Win32,59.88023952,66fa4ebf79326e780c390304,,,,,,,,,,,,,,,,,,,,,396.0282,396.0282,396.0298,397.1454,0,0,left,0.5846,,397.147,397.1478,,0,,397.1488,397.1495,,0,,1,397.1495,397.1495,397.1504,398.6464,0,14,14,14,1,0.8,0.2,0.6,0.4,1,0,,,,,,,,,,,,,,,,,,,,,,,,,,,,,,,,,,,,
,,612520bd6605794b27e6a0fd,66fc9797e42fae7a97d1f072,2024-10-02_01h45.39.324,mdp,2024.2.1,Win32,59.88023952,66fa4ebf79326e780c390304,,,,,,,,,,,,,,,,,,,,,398.6469,398.6469,398.6485,399.6811,0,0,left,0.5021,,399.6827,399.6835,,0,,399.6844,399.685,,0,,1,399.6851,399.6851,399.6857,401.1819,0,15,15,15,1,0.8,0.2,0.6,0.4,1,0,,,,,,,,,,,,,,,,,,,,,,,,,,,,,,,,,,,,
,,612520bd6605794b27e6a0fd,66fc9797e42fae7a97d1f072,2024-10-02_01h45.39.324,mdp,2024.2.1,Win32,59.88023952,66fa4ebf79326e780c390304,,,,,,,,,,,,,,,,,,,,,401.1822,401.1822,401.1832,402.2832,0,1,left,0.5846,,402.2849,402.2858,,1,,402.2867,402.2873,,1,,0,402.2873,402.2874,402.2881,403.7844,0,16,16,16,1,0.4,0.6,0.8,0.2,1,0,,,,,,,,,,,,,,,,,,,,,,,,,,,,,,,,,,,,
,,612520bd6605794b27e6a0fd,66fc9797e42fae7a97d1f072,2024-10-02_01h45.39.324,mdp,2024.2.1,Win32,59.88023952,66fa4ebf79326e780c390304,,,,,,,,,,,,,,,,,,,,,403.7848,403.7849,403.7864,405.1523,0,1,left,0.8411,,405.1538,405.1547,,1,,405.1556,405.1563,,1,,0,405.1564,405.1564,405.1572,406.6535,0,17,17,17,1,0.4,0.6,0.8,0.2,1,0,,,,,,,,,,,,,,,,,,,,,,,,,,,,,,,,,,,,
,,612520bd6605794b27e6a0fd,66fc9797e42fae7a97d1f072,2024-10-02_01h45.39.324,mdp,2024.2.1,Win32,59.88023952,66fa4ebf79326e780c390304,,,,,,,,,,,,,,,,,,,,,406.6539,406.6539,406.6554,407.7047,1,1,right,0.5239,,407.7066,407.7078,,0,,407.7087,407.7095,,1,,0,407.7095,407.7096,407.7108,409.2057,0,18,18,18,1,0.4,0.6,0.8,0.2,1,0,,,,,,,,,,,,,,,,,,,,,,,,,,,,,,,,,,,,
,,612520bd6605794b27e6a0fd,66fc9797e42fae7a97d1f072,2024-10-02_01h45.39.324,mdp,2024.2.1,Win32,59.88023952,66fa4ebf79326e780c390304,,,,,,,,,,,,,,,,,,,,,409.2061,409.2062,409.2078,410.3571,0,1,left,0.6191,,410.3586,410.3595,,0,,410.3604,410.3612,,1,,0,410.3612,410.3612,410.3618,411.8581,0,19,19,19,1,0.4,0.6,0.8,0.2,1,0,,,,,,,,,,,,,,,,,,,,,,,,,,,,,,,,,,,,
,,612520bd6605794b27e6a0fd,66fc9797e42fae7a97d1f072,2024-10-02_01h45.39.324,mdp,2024.2.1,Win32,59.88023952,66fa4ebf79326e780c390304,,,,,,,,,,,,,,,,,,,,,411.8586,411.8586,411.8602,412.8425,0,0,left,0.4551,,412.844,412.845,,1,,412.8459,412.8466,,1,,1,412.8467,412.8467,412.8474,414.3435,0,20,20,20,1,0.4,0.6,0.8,0.2,1,0,,,,,,,,,,,,,,,,,,,,,,,,,,,,,,,,,,,,
,,612520bd6605794b27e6a0fd,66fc9797e42fae7a97d1f072,2024-10-02_01h45.39.324,mdp,2024.2.1,Win32,59.88023952,66fa4ebf79326e780c390304,,,,,,,,,,,,,,,,,,,,,414.344,414.344,414.3456,415.3942,0,1,left,0.5168,,415.3952,415.3958,,0,,415.3963,415.3969,,0,,0,415.397,415.397,415.3977,416.8955,0,21,21,21,1,0.4,0.6,0.8,0.2,1,0,,,,,,,,,,,,,,,,,,,,,,,,,,,,,,,,,,,,
,,612520bd6605794b27e6a0fd,66fc9797e42fae7a97d1f072,2024-10-02_01h45.39.324,mdp,2024.2.1,Win32,59.88023952,66fa4ebf79326e780c390304,,,,,,,,,,,,,,,,,,,,,416.896,416.896,416.8971,417.8133,0,0,left,0.3855,,417.8142,417.8148,,1,,417.8154,417.8158,,1,,1,417.8159,417.8159,417.8163,419.3144,0,22,22,22,1,0.4,0.6,0.8,0.2,1,0,,,,,,,,,,,,,,,,,,,,,,,,,,,,,,,,,,,,
,,612520bd6605794b27e6a0fd,66fc9797e42fae7a97d1f072,2024-10-02_01h45.39.324,mdp,2024.2.1,Win32,59.88023952,66fa4ebf79326e780c390304,,,,,,,,,,,,,,,,,,,,,419.3147,419.3147,419.3156,420.1319,1,0,right,0.2841,,420.1329,420.1335,,0,,420.134,420.1344,,0,,1,420.1344,420.1344,420.1348,421.633,0,23,23,23,1,0.4,0.6,0.8,0.2,1,0,,,,,,,,,,,,,,,,,,,,,,,,,,,,,,,,,,,,
,,612520bd6605794b27e6a0fd,66fc9797e42fae7a97d1f072,2024-10-02_01h45.39.324,mdp,2024.2.1,Win32,59.88023952,66fa4ebf79326e780c390304,,,,,,,,,,,,,,,,,,,,,421.6333,421.6333,421.6343,422.5004,0,0,left,0.3524,,422.5012,422.5019,,0,,422.5023,422.5027,,0,,1,422.5027,422.5027,422.5031,424.0016,0,24,24,24,1,0.8,0.2,0.4,0.6,1,0,,,,,,,,,,,,,,,,,,,,,,,,,,,,,,,,,,,,
,,612520bd6605794b27e6a0fd,66fc9797e42fae7a97d1f072,2024-10-02_01h45.39.324,mdp,2024.2.1,Win32,59.88023952,66fa4ebf79326e780c390304,,,,,,,,,,,,,,,,,,,,,424.002,424.002,424.0029,424.8526,1,1,right,0.337,,424.8541,424.8552,,1,,424.8561,424.8569,,0,,0,424.8569,424.8569,424.8576,426.3538,0,25,25,25,1,0.8,0.2,0.4,0.6,1,0,,,,,,,,,,,,,,,,,,,,,,,,,,,,,,,,,,,,
,,612520bd6605794b27e6a0fd,66fc9797e42fae7a97d1f072,2024-10-02_01h45.39.324,mdp,2024.2.1,Win32,59.88023952,66fa4ebf79326e780c390304,,,,,,,,,,,,,,,,,,,,,426.3543,426.3543,426.356,427.4384,0,0,left,0.5511,,427.44,427.4409,,0,,427.4418,427.4424,,0,,1,427.4425,427.4425,427.4431,428.9395,0,26,26,26,1,0.8,0.2,0.4,0.6,1,0,,,,,,,,,,,,,,,,,,,,,,,,,,,,,,,,,,,,
,,612520bd6605794b27e6a0fd,66fc9797e42fae7a97d1f072,2024-10-02_01h45.39.324,mdp,2024.2.1,Win32,59.88023952,66fa4ebf79326e780c390304,,,,,,,,,,,,,,,,,,,,,428.94,428.94,428.9415,430.174,0,0,left,0.7015,,430.176,430.177,,0,,430.1779,430.1786,,0,,1,430.1787,430.1787,430.1794,431.6752,0,27,27,27,1,0.8,0.2,0.4,0.6,1,0,,,,,,,,,,,,,,,,,,,,,,,,,,,,,,,,,,,,
,,612520bd6605794b27e6a0fd,66fc9797e42fae7a97d1f072,2024-10-02_01h45.39.324,mdp,2024.2.1,Win32,59.88023952,66fa4ebf79326e780c390304,,,,,,,,,,,,,,,,,,,,,431.6755,431.6756,431.6772,432.6595,0,0,left,0.4542,,432.6611,432.6619,,1,,432.6629,432.6634,,1,,1,432.6635,432.6635,432.6642,434.1605,0,28,28,28,1,0.8,0.2,0.4,0.6,1,0,,,,,,,,,,,,,,,,,,,,,,,,,,,,,,,,,,,,
,,612520bd6605794b27e6a0fd,66fc9797e42fae7a97d1f072,2024-10-02_01h45.39.324,mdp,2024.2.1,Win32,59.88023952,66fa4ebf79326e780c390304,,,,,,,,,,,,,,,,,,,,,434.1608,434.1608,434.1619,435.1451,0,1,left,0.4677,,435.1467,435.1476,,0,,435.1487,435.1494,,0,,0,435.1494,435.1494,435.1501,436.646,0,29,29,29,1,0.8,0.2,0.4,0.6,1,0,,,,,,,,,,,,,,,,,,,,,,,,,,,,,,,,,,,,
,,612520bd6605794b27e6a0fd,66fc9797e42fae7a97d1f072,2024-10-02_01h45.39.324,mdp,2024.2.1,Win32,59.88023952,66fa4ebf79326e780c390304,,,,,,,,,,,,,,,,,,,,,436.6463,436.6464,436.6474,437.8308,0,1,left,0.6653,,437.8328,437.8336,,1,,437.8344,437.8351,,0,,0,437.8352,437.8352,437.8359,439.3318,0,30,30,30,1,0.8,0.2,0.4,0.6,1,0,,,,,,,,,,,,,,,,,,,,,,,,,,,,,,,,,,,,
,,612520bd6605794b27e6a0fd,66fc9797e42fae7a97d1f072,2024-10-02_01h45.39.324,mdp,2024.2.1,Win32,59.88023952,66fa4ebf79326e780c390304,,,,,,,,,,,,,,,,,,,,,439.3323,439.3323,439.3338,440.4496,0,1,left,0.5894,,440.4513,440.452,,0,,440.4529,440.4535,,0,,0,440.4536,440.4536,440.4543,441.9507,0,31,31,31,1,0.8,0.2,0.4,0.6,1,0,,,,,,,,,,,,,,,,,,,,,,,,,,,,,,,,,,,,
,,612520bd6605794b27e6a0fd,66fc9797e42fae7a97d1f072,2024-10-02_01h45.39.324,mdp,2024.2.1,Win32,59.88023952,66fa4ebf79326e780c390304,,,,,,,,,,,,,,,,,,,,,441.9511,441.9511,441.9528,442.9184,1,1,right,0.4421,,442.9201,442.9212,,0,,442.9221,442.9227,,1,,0,442.9228,442.9228,442.9234,444.4196,0,32,32,32,1,0.8,0.2,0.4,0.6,1,0,,,,,,,,,,,,,,,,,,,,,,,,,,,,,,,,,,,,
,,612520bd6605794b27e6a0fd,66fc9797e42fae7a97d1f072,2024-10-02_01h45.39.324,mdp,2024.2.1,Win32,59.88023952,66fa4ebf79326e780c390304,,,,,,,,,,,,,,,,,,,,,444.42,444.4201,444.4216,445.4372,0,0,left,0.4843,,445.4389,445.4398,,0,,445.4408,445.4415,,0,,1,445.4416,445.4416,445.4423,446.9384,0,33,33,33,1,0.8,0.2,0.4,0.6,1,0,,,,,,,,,,,,,,,,,,,,,,,,,,,,,,,,,,,,
,,612520bd6605794b27e6a0fd,66fc9797e42fae7a97d1f072,2024-10-02_01h45.39.324,mdp,2024.2.1,Win32,59.88023952,66fa4ebf79326e780c390304,,,,,,,,,,,,,,,,,,,,,446.9388,446.9388,446.9404,447.9061,0,0,left,0.4347,,447.9077,447.9085,,0,,447.9094,447.91,,0,,1,447.9101,447.9101,447.9107,449.4072,0,34,34,34,1,0.8,0.2,0.4,0.6,1,0,,,,,,,,,,,,,,,,,,,,,,,,,,,,,,,,,,,,
,,612520bd6605794b27e6a0fd,66fc9797e42fae7a97d1f072,2024-10-02_01h45.39.324,mdp,2024.2.1,Win32,59.88023952,66fa4ebf79326e780c390304,,,,,,,,,,,,,,,,,,,,,449.4077,449.4077,449.4096,450.4582,0,0,left,0.5224,,450.4598,450.4606,,0,,450.4614,450.462,,0,,1,450.4621,450.4621,450.4627,451.9593,0,35,35,35,1,0.8,0.2,0.4,0.6,1,0,,,,,,,,,,,,,,,,,,,,,,,,,,,,,,,,,,,,
,,612520bd6605794b27e6a0fd,66fc9797e42fae7a97d1f072,2024-10-02_01h45.39.324,mdp,2024.2.1,Win32,59.88023952,66fa4ebf79326e780c390304,,,,,,,,,,,,,,,,,,,,,451.9598,451.9598,451.9613,453.244,0,0,left,0.7533,,453.2458,453.2469,,0,,453.2478,453.2484,,1,,1,453.2485,453.2485,453.2492,454.7451,0,36,36,36,1,0.8,0.2,0.4,0.6,1,0,,,,,,,,,,,,,,,,,,,,,,,,,,,,,,,,,,,,
,,612520bd6605794b27e6a0fd,66fc9797e42fae7a97d1f072,2024-10-02_01h45.39.324,mdp,2024.2.1,Win32,59.88023952,66fa4ebf79326e780c390304,,,,,,,,,,,,,,,,,,,,,454.7455,454.7455,454.7471,456.2466,0,0,left,0.9681,,456.2483,456.2494,,0,,456.2505,456.2511,,0,,1,456.2512,456.2512,456.2518,457.7477,0,37,37,37,1,0.8,0.2,0.4,0.6,1,0,,,,,,,,,,,,,,,,,,,,,,,,,,,,,,,,,,,,
,,612520bd6605794b27e6a0fd,66fc9797e42fae7a97d1f072,2024-10-02_01h45.39.324,mdp,2024.2.1,Win32,59.88023952,66fa4ebf79326e780c390304,,,,,,,,,,,,,,,,,,,,,457.7481,457.7482,457.7496,459.3661,0,0,left,1.085,,459.3676,459.3687,,0,,459.3698,459.3704,,0,,1,459.3704,459.3704,459.3711,460.8671,0,38,38,38,1,0.8,0.2,0.4,0.6,1,0,,,,,,,,,,,,,,,,,,,,,,,,,,,,,,,,,,,,
,,612520bd6605794b27e6a0fd,66fc9797e42fae7a97d1f072,2024-10-02_01h45.39.324,mdp,2024.2.1,Win32,59.88023952,66fa4ebf79326e780c390304,,,,,,,,,,,,,,,,,,,,,460.8677,460.8677,460.8692,462.2685,0,0,left,0.8682,,462.27,462.2712,,0,,462.2724,462.273,,0,,1,462.273,462.273,462.2737,463.7695,0,39,39,39,1,0.8,0.2,0.4,0.6,1,0,,,,,,,,,,,,,,,,,,,,,,,,,,,,,,,,,,,,
,,612520bd6605794b27e6a0fd,66fc9797e42fae7a97d1f072,2024-10-02_01h45.39.324,mdp,2024.2.1,Win32,59.88023952,66fa4ebf79326e780c390304,,,,,,,,,,,,,,,,,,,,,463.77,463.77,463.7732,465.0212,0,0,left,0.719,,465.0227,465.0237,,0,,465.0246,465.0252,,0,,1,465.0252,465.0253,465.0259,466.522,0,40,40,40,1,0.8,0.2,0.4,0.6,1,0,,,,,,,,,,,,,,,,,,,,,,,,,,,,,,,,,,,,
,,612520bd6605794b27e6a0fd,66fc9797e42fae7a97d1f072,2024-10-02_01h45.39.324,mdp,2024.2.1,Win32,59.88023952,66fa4ebf79326e780c390304,,,,,,,,,,,,,,,,,,,,,466.5225,466.5225,466.5242,467.6398,0,0,left,0.5906,,467.6415,467.6426,,0,,467.6436,467.6442,,0,,1,467.6442,467.6442,467.6448,469.1408,0,41,41,41,1,0.8,0.2,0.4,0.6,1,0,,,,,,,,,,,,,,,,,,,,,,,,,,,,,,,,,,,,
,,612520bd6605794b27e6a0fd,66fc9797e42fae7a97d1f072,2024-10-02_01h45.39.324,mdp,2024.2.1,Win32,59.88023952,66fa4ebf79326e780c390304,,,,,,,,,,,,,,,,,,,,,469.1412,469.1412,469.1429,470.0252,0,1,left,0.351,,470.0268,470.0276,,1,,470.0284,470.0291,,1,,0,470.0291,470.0291,470.0298,471.5263,0,42,42,42,1,0.4,0.6,0.6,0.4,1,0,,,,,,,,,,,,,,,,,,,,,,,,,,,,,,,,,,,,
,,612520bd6605794b27e6a0fd,66fc9797e42fae7a97d1f072,2024-10-02_01h45.39.324,mdp,2024.2.1,Win32,59.88023952,66fa4ebf79326e780c390304,,,,,,,,,,,,,,,,,,,,,471.5267,471.5267,471.5283,472.444,0,0,left,0.3869,,472.4456,472.4464,,1,,472.4472,472.4478,,0,,1,472.4479,472.4479,472.4485,473.945,0,43,43,43,1,0.4,0.6,0.6,0.4,1,0,,,,,,,,,,,,,,,,,,,,,,,,,,,,,,,,,,,,
,,612520bd6605794b27e6a0fd,66fc9797e42fae7a97d1f072,2024-10-02_01h45.39.324,mdp,2024.2.1,Win32,59.88023952,66fa4ebf79326e780c390304,,,,,,,,,,,,,,,,,,,,,473.9455,473.9455,473.9471,474.9796,0,0,left,0.5016,,474.9812,474.9822,,0,,474.9831,474.9838,,1,,1,474.9839,474.9839,474.9845,476.4806,0,44,44,44,1,0.4,0.6,0.6,0.4,1,0,,,,,,,,,,,,,,,,,,,,,,,,,,,,,,,,,,,,
,,612520bd6605794b27e6a0fd,66fc9797e42fae7a97d1f072,2024-10-02_01h45.39.324,mdp,2024.2.1,Win32,59.88023952,66fa4ebf79326e780c390304,,,,,,,,,,,,,,,,,,,,,476.481,476.481,476.4825,477.3483,0,0,left,0.3367,,477.3499,477.3508,,1,,477.3517,477.3524,,0,,1,477.3524,477.3524,477.353,478.8492,0,45,45,45,1,0.4,0.6,0.6,0.4,1,0,,,,,,,,,,,,,,,,,,,,,,,,,,,,,,,,,,,,
,,612520bd6605794b27e6a0fd,66fc9797e42fae7a97d1f072,2024-10-02_01h45.39.324,mdp,2024.2.1,Win32,59.88023952,66fa4ebf79326e780c390304,,,,,,,,,,,,,,,,,,,,,478.8498,478.8498,478.8514,479.8503,0,0,left,0.4712,,479.852,479.8529,,1,,479.8537,479.8543,,1,,1,479.8543,479.8543,479.8549,481.3515,0,46,46,46,1,0.4,0.6,0.6,0.4,1,0,,,,,,,,,,,,,,,,,,,,,,,,,,,,,,,,,,,,
,,612520bd6605794b27e6a0fd,66fc9797e42fae7a97d1f072,2024-10-02_01h45.39.324,mdp,2024.2.1,Win32,59.88023952,66fa4ebf79326e780c390304,,,,,,,,,,,,,,,,,,,,,481.3519,481.3519,481.3535,482.4025,0,1,left,0.5178,,482.404,482.4048,,1,,482.4057,482.4063,,1,,0,482.4063,482.4064,482.407,483.9035,0,47,47,47,1,0.4,0.6,0.6,0.4,1,0,,,,,,,,,,,,,,,,,,,,,,,,,,,,,,,,,,,,
,,612520bd6605794b27e6a0fd,66fc9797e42fae7a97d1f072,2024-10-02_01h45.39.324,mdp,2024.2.1,Win32,59.88023952,66fa4ebf79326e780c390304,,,,,,,,,,,,,,,,,,,,,483.9038,483.9038,483.9048,484.8713,0,0,left,0.458,,484.8728,484.8738,,0,,484.8747,484.8755,,1,,1,484.8755,484.8755,484.8762,486.3724,0,48,48,48,1,0.4,0.6,0.6,0.4,1,0,,,,,,,,,,,,,,,,,,,,,,,,,,,,,,,,,,,,
,,612520bd6605794b27e6a0fd,66fc9797e42fae7a97d1f072,2024-10-02_01h45.39.324,mdp,2024.2.1,Win32,59.88023952,66fa4ebf79326e780c390304,,,,,,,,,,,,,,,,,,,,,486.3728,486.3728,486.3744,487.2901,0,0,left,0.4053,,487.2916,487.2925,,0,,487.2935,487.2942,,1,,1,487.2942,487.2942,487.2949,488.7914,0,49,49,49,1,0.4,0.6,0.6,0.4,1,0,,,,,,,,,,,,,,,,,,,,,,,,,,,,,,,,,,,,
,,612520bd6605794b27e6a0fd,66fc9797e42fae7a97d1f072,2024-10-02_01h45.39.324,mdp,2024.2.1,Win32,59.88023952,66fa4ebf79326e780c390304,,,,,,,,,,,,,,,,,,,,,,,,,,,,,,,,,,,,,,,,,,,,,,,,,,,,,,,,488.792,547.3089,0,0,0,3,1,imgs/dog.png,imgs/goat.png,imgs/elephant.png,imgs/rabbit.png,imgs/kangaroo.png,,,,,,,,,,,,,,,,,,,,,,,,
,,612520bd6605794b27e6a0fd,66fc9797e42fae7a97d1f072,2024-10-02_01h45.39.324,mdp,2024.2.1,Win32,59.88023952,66fa4ebf79326e780c390304,,,,,,,,,,,,,,2,seqs/st2seq8.csv,547.3107,552.1463,space,4.308,,552.1539,552.1539,552.1549,553.2972,0,1,left,0.6136,,553.299,554.515,1,0,right,554.5167,554.5174,,0,,1,554.5174,554.5174,554.5183,556.016,0,0,0,0,1,0.8,0.2,0.2,0.8,,,,,,,,,,,,,,,0.6983,,0.4,0.6,0.8,0.2,0.4,0.6,0.8,0.2,1,0,,,,,,,,,,,,
,,612520bd6605794b27e6a0fd,66fc9797e42fae7a97d1f072,2024-10-02_01h45.39.324,mdp,2024.2.1,Win32,59.88023952,66fa4ebf79326e780c390304,,,,,,,,,,,,,,,,,,,,,556.0166,556.0166,556.018,557.0338,0,0,left,0.4844,,557.0355,558.3684,1,0,right,558.3701,558.371,,0,,1,558.371,558.371,558.3718,559.8694,0,1,1,1,1,0.8,0.2,0.2,0.8,,,,,,,,,,,,,,,0.8092,,0.4,0.6,0.8,0.2,0.4,0.6,0.8,0.2,1,0,,,,,,,,,,,,
,,612520bd6605794b27e6a0fd,66fc9797e42fae7a97d1f072,2024-10-02_01h45.39.324,mdp,2024.2.1,Win32,59.88023952,66fa4ebf79326e780c390304,,,,,,,,,,,,,,,,,,,,,559.8698,559.8699,559.8716,560.9702,0,0,left,0.5702,,560.9712,562.1049,1,0,right,562.1065,562.1075,,0,,1,562.1075,562.1075,562.1083,563.6061,0,2,2,2,1,0.8,0.2,0.2,0.8,,,,,,,,,,,,,,,0.6236,,0.4,0.6,0.8,0.2,0.4,0.6,0.8,0.2,1,0,,,,,,,,,,,,
,,612520bd6605794b27e6a0fd,66fc9797e42fae7a97d1f072,2024-10-02_01h45.39.324,mdp,2024.2.1,Win32,59.88023952,66fa4ebf79326e780c390304,,,,,,,,,,,,,,,,,,,,,563.6065,563.6065,563.608,564.7572,0,0,left,0.6259,,564.7587,565.8414,1,0,right,565.8429,565.8441,,0,,1,565.8441,565.8441,565.8452,567.3426,0,3,3,3,1,0.8,0.2,0.2,0.8,,,,,,,,,,,,,,,0.5716,,0.4,0.6,0.8,0.2,0.6,0.4,0.4,0.6,1,0,,,,,,,,,,,,
,,612520bd6605794b27e6a0fd,66fc9797e42fae7a97d1f072,2024-10-02_01h45.39.324,mdp,2024.2.1,Win32,59.88023952,66fa4ebf79326e780c390304,,,,,,,,,,,,,,,,,,,,,567.3431,567.3431,567.3447,568.5104,0,0,left,0.6412,,568.5119,569.528,1,1,right,569.5296,569.5306,,0,,0,569.5306,569.5306,569.5316,571.029,0,4,4,4,1,0.8,0.2,0.2,0.8,,,,,,,,,,,,,,,0.501,,0.4,0.6,0.8,0.2,0.6,0.4,0.4,0.6,1,0,,,,,,,,,,,,
,,612520bd6605794b27e6a0fd,66fc9797e42fae7a97d1f072,2024-10-02_01h45.39.324,mdp,2024.2.1,Win32,59.88023952,66fa4ebf79326e780c390304,,,,,,,,,,,,,,,,,,,,,571.0293,571.0293,571.0303,572.1468,0,0,left,0.585,,572.1478,573.1645,1,0,right,573.1655,573.166,,0,,1,573.166,573.166,573.1669,574.6653,0,5,5,5,1,0.8,0.2,0.2,0.8,,,,,,,,,,,,,,,0.5017,,0.4,0.6,0.8,0.2,0.6,0.4,0.4,0.6,1,0,,,,,,,,,,,,
,,612520bd6605794b27e6a0fd,66fc9797e42fae7a97d1f072,2024-10-02_01h45.39.324,mdp,2024.2.1,Win32,59.88023952,66fa4ebf79326e780c390304,,,,,,,,,,,,,,,,,,,,,574.6657,574.6657,574.6666,575.6331,0,1,left,0.4549,,575.6341,576.7008,1,1,right,576.7024,576.7037,,1,,0,576.7038,576.7038,576.7048,578.2017,0,6,6,6,1,0.8,0.2,0.2,0.8,,,,,,,,,,,,,,,0.5492,,0.4,0.6,0.8,0.2,0.6,0.4,0.4,0.6,1,0,,,,,,,,,,,,
,,612520bd6605794b27e6a0fd,66fc9797e42fae7a97d1f072,2024-10-02_01h45.39.324,mdp,2024.2.1,Win32,59.88023952,66fa4ebf79326e780c390304,,,,,,,,,,,,,,,,,,,,,578.2021,578.2021,578.2031,579.2531,0,0,left,0.5347,,579.2546,580.3373,1,1,right,580.339,580.34,,0,,0,580.34,580.34,580.341,581.8384,0,7,7,7,1,0.8,0.2,0.2,0.8,,,,,,,,,,,,,,,0.5485,,0.4,0.6,0.8,0.2,0.6,0.4,0.4,0.6,1,0,,,,,,,,,,,,
,,612520bd6605794b27e6a0fd,66fc9797e42fae7a97d1f072,2024-10-02_01h45.39.324,mdp,2024.2.1,Win32,59.88023952,66fa4ebf79326e780c390304,,,,,,,,,,,,,,,,,,,,,581.8388,581.8388,581.8404,582.9896,0,0,left,0.6172,,582.9911,584.0071,0,0,left,584.0085,584.0095,,1,,1,584.0095,584.0095,584.0106,585.5084,0,8,8,8,1,0.8,0.2,0.2,0.8,,,,,,,,,,,,,,,0.5069,,0.4,0.6,0.8,0.2,0.8,0.2,0.2,0.8,1,0,,,,,,,,,,,,
,,612520bd6605794b27e6a0fd,66fc9797e42fae7a97d1f072,2024-10-02_01h45.39.324,mdp,2024.2.1,Win32,59.88023952,66fa4ebf79326e780c390304,,,,,,,,,,,,,,,,,,,,,585.509,585.509,585.5104,586.6262,0,0,left,0.5845,,586.6278,588.0106,0,1,left,588.012,588.0129,,0,,0,588.0129,588.013,588.0141,589.5117,0,9,9,9,1,0.8,0.2,0.2,0.8,,,,,,,,,,,,,,,0.852,,0.4,0.6,0.8,0.2,0.8,0.2,0.2,0.8,1,0,,,,,,,,,,,,
,,612520bd6605794b27e6a0fd,66fc9797e42fae7a97d1f072,2024-10-02_01h45.39.324,mdp,2024.2.1,Win32,59.88023952,66fa4ebf79326e780c390304,,,,,,,,,,,,,,,,,,,,,589.5122,589.5122,589.5139,590.5463,0,0,left,0.5038,,590.5479,591.6471,1,0,right,591.6486,591.6494,,1,,1,591.6495,591.6495,591.6503,593.1482,0,10,10,10,1,0.8,0.2,0.2,0.8,,,,,,,,,,,,,,,0.5679,,0.4,0.6,0.8,0.2,0.8,0.2,0.2,0.8,1,0,,,,,,,,,,,,
,,612520bd6605794b27e6a0fd,66fc9797e42fae7a97d1f072,2024-10-02_01h45.39.324,mdp,2024.2.1,Win32,59.88023952,66fa4ebf79326e780c390304,,,,,,,,,,,,,,,,,,,,,593.1486,593.1486,593.1506,594.1993,0,0,left,0.5343,,594.201,595.2335,1,0,right,595.2351,595.2363,,0,,1,595.2364,595.2364,595.2374,596.7346,0,11,11,11,1,0.8,0.2,0.2,0.8,,,,,,,,,,,,,,,0.5218,,0.4,0.6,0.8,0.2,0.8,0.2,0.2,0.8,1,0,,,,,,,,,,,,
,,612520bd6605794b27e6a0fd,66fc9797e42fae7a97d1f072,2024-10-02_01h45.39.324,mdp,2024.2.1,Win32,59.88023952,66fa4ebf79326e780c390304,,,,,,,,,,,,,,,,,,,,,596.7349,596.7349,596.736,597.8856,0,0,left,0.6417,,597.8866,598.8701,1,0,right,598.8716,598.8724,,0,,1,598.8725,598.8725,598.8732,600.371,0,12,12,12,1,0.2,0.8,0.8,0.2,,,,,,,,,,,,,,,0.4689,,0.4,0.6,0.8,0.2,0.8,0.2,0.2,0.8,1,0,,,,,,,,,,,,
,,612520bd6605794b27e6a0fd,66fc9797e42fae7a97d1f072,2024-10-02_01h45.39.324,mdp,2024.2.1,Win32,59.88023952,66fa4ebf79326e780c390304,,,,,,,,,,,,,,,,,,,,,600.3713,600.3714,600.3724,601.4053,0,1,left,0.5082,,601.4063,602.3728,1,0,right,602.3738,602.3745,,1,,1,602.3745,602.3745,602.375,603.8739,0,13,13,13,1,0.2,0.8,0.8,0.2,,,,,,,,,,,,,,,0.448,,0.4,0.6,0.8,0.2,0.2,0.8,0.8,0.2,1,0,,,,,,,,,,,,
,,612520bd6605794b27e6a0fd,66fc9797e42fae7a97d1f072,2024-10-02_01h45.39.324,mdp,2024.2.1,Win32,59.88023952,66fa4ebf79326e780c390304,,,,,,,,,,,,,,,,,,,,,603.8743,603.8743,603.8754,604.9086,0,0,left,0.5259,,604.9102,605.8927,1,0,right,605.8938,605.8945,,0,,1,605.8946,605.8946,605.8952,607.3937,0,14,14,14,1,0.2,0.8,0.8,0.2,,,,,,,,,,,,,,,0.456,,0.4,0.6,0.8,0.2,0.2,0.8,0.8,0.2,1,0,,,,,,,,,,,,
,,612520bd6605794b27e6a0fd,66fc9797e42fae7a97d1f072,2024-10-02_01h45.39.324,mdp,2024.2.1,Win32,59.88023952,66fa4ebf79326e780c390304,,,,,,,,,,,,,,,,,,,,,607.394,607.394,607.395,608.4617,0,1,left,0.5591,,608.4632,609.3791,1,1,right,609.3807,609.3815,,1,,0,609.3815,609.3815,609.3824,610.8802,0,15,15,15,1,0.2,0.8,0.8,0.2,,,,,,,,,,,,,,,0.3833,,0.4,0.6,0.8,0.2,0.4,0.6,0.4,0.6,1,0,,,,,,,,,,,,
,,612520bd6605794b27e6a0fd,66fc9797e42fae7a97d1f072,2024-10-02_01h45.39.324,mdp,2024.2.1,Win32,59.88023952,66fa4ebf79326e780c390304,,,,,,,,,,,,,,,,,,,,,610.8809,610.8811,610.8825,612.0147,0,1,left,0.6012,,612.0163,612.9154,1,0,right,612.9171,612.918,,1,,1,612.918,612.9181,612.919,614.4165,0,16,16,16,1,0.2,0.8,0.8,0.2,,,,,,,,,,,,,,,0.3854,,0.4,0.6,0.8,0.2,0.4,0.6,0.4,0.6,1,0,,,,,,,,,,,,
,,612520bd6605794b27e6a0fd,66fc9797e42fae7a97d1f072,2024-10-02_01h45.39.324,mdp,2024.2.1,Win32,59.88023952,66fa4ebf79326e780c390304,,,,,,,,,,,,,,,,,,,,,614.417,614.4171,614.4187,615.4843,0,1,left,0.536,,615.4857,616.4018,1,1,right,616.4034,616.4042,,1,,0,616.4043,616.4043,616.4051,617.9029,0,17,17,17,1,0.2,0.8,0.8,0.2,,,,,,,,,,,,,,,0.4043,,0.4,0.6,0.8,0.2,0.4,0.6,0.4,0.6,1,0,,,,,,,,,,,,
,,612520bd6605794b27e6a0fd,66fc9797e42fae7a97d1f072,2024-10-02_01h45.39.324,mdp,2024.2.1,Win32,59.88023952,66fa4ebf79326e780c390304,,,,,,,,,,,,,,,,,,,,,617.9035,617.9035,617.9051,619.0874,0,1,left,0.6567,,619.0891,620.0384,1,1,right,620.04,620.0407,,0,,0,620.0408,620.0408,620.0416,621.5394,0,18,18,18,1,0.2,0.8,0.8,0.2,,,,,,,,,,,,,,,0.4344,,0.4,0.6,0.8,0.2,0.4,0.6,0.4,0.6,1,0,,,,,,,,,,,,
,,612520bd6605794b27e6a0fd,66fc9797e42fae7a97d1f072,2024-10-02_01h45.39.324,mdp,2024.2.1,Win32,59.88023952,66fa4ebf79326e780c390304,,,,,,,,,,,,,,,,,,,,,621.5399,621.5399,621.5414,622.4571,0,1,left,0.3889,,622.4587,623.4914,0,1,left,623.4929,623.494,,1,,0,623.4941,623.4941,623.495,624.9925,0,19,19,19,1,0.2,0.8,0.8,0.2,,,,,,,,,,,,,,,0.5176,,0.4,0.6,0.8,0.2,0.4,0.6,0.4,0.6,1,0,,,,,,,,,,,,
,,612520bd6605794b27e6a0fd,66fc9797e42fae7a97d1f072,2024-10-02_01h45.39.324,mdp,2024.2.1,Win32,59.88023952,66fa4ebf79326e780c390304,,,,,,,,,,,,,,,,,,,,,624.993,624.993,624.9945,626.1102,0,0,left,0.5923,,626.1117,627.2279,1,0,right,627.2293,627.2302,,0,,1,627.2302,627.2302,627.2311,628.729,0,20,20,20,1,0.2,0.8,0.8,0.2,,,,,,,,,,,,,,,0.582,,0.4,0.6,0.8,0.2,0.4,0.6,0.4,0.6,1,0,,,,,,,,,,,,
,,612520bd6605794b27e6a0fd,66fc9797e42fae7a97d1f072,2024-10-02_01h45.39.324,mdp,2024.2.1,Win32,59.88023952,66fa4ebf79326e780c390304,,,,,,,,,,,,,,,,,,,,,628.7295,628.7296,628.731,629.8134,0,1,left,0.559,,629.8151,631.1485,1,1,right,631.1497,631.1505,,0,,0,631.1506,631.1506,631.1513,632.649,0,21,21,21,1,0.2,0.8,0.8,0.2,,,,,,,,,,,,,,,0.8238,,0.4,0.6,0.8,0.2,0.4,0.6,0.4,0.6,1,0,,,,,,,,,,,,
,,612520bd6605794b27e6a0fd,66fc9797e42fae7a97d1f072,2024-10-02_01h45.39.324,mdp,2024.2.1,Win32,59.88023952,66fa4ebf79326e780c390304,,,,,,,,,,,,,,,,,,,,,632.6495,632.6496,632.6512,633.767,1,0,right,0.5845,,633.7688,635.068,1,1,right,635.0701,635.0713,,1,,0,635.0714,635.0714,635.0722,636.569,0,22,22,22,1,0.2,0.8,0.8,0.2,,,,,,,,,,,,,,,0.7636,,0.4,0.6,0.8,0.2,0.2,0.8,0.8,0.2,1,0,,,,,,,,,,,,
,,612520bd6605794b27e6a0fd,66fc9797e42fae7a97d1f072,2024-10-02_01h45.39.324,mdp,2024.2.1,Win32,59.88023952,66fa4ebf79326e780c390304,,,,,,,,,,,,,,,,,,,,,636.5695,636.5696,636.572,637.6871,0,1,left,0.5906,,637.6886,639.0215,0,1,left,639.0232,639.0244,,1,,0,639.0244,639.0245,639.0254,640.5227,0,23,23,23,1,0.2,0.8,0.8,0.2,,,,,,,,,,,,,,,0.8138,,0.4,0.6,0.8,0.2,0.2,0.8,0.8,0.2,1,0,,,,,,,,,,,,
,,612520bd6605794b27e6a0fd,66fc9797e42fae7a97d1f072,2024-10-02_01h45.39.324,mdp,2024.2.1,Win32,59.88023952,66fa4ebf79326e780c390304,,,,,,,,,,,,,,,,,,,,,640.5231,640.5232,640.5248,641.6905,0,0,left,0.6369,,641.692,642.7247,1,0,right,642.7262,642.7273,,0,,1,642.7273,642.7274,642.7283,644.2257,0,24,24,24,1,0.2,0.8,0.8,0.2,,,,,,,,,,,,,,,0.5052,,0.4,0.6,0.8,0.2,0.2,0.8,0.8,0.2,1,0,,,,,,,,,,,,
,,612520bd6605794b27e6a0fd,66fc9797e42fae7a97d1f072,2024-10-02_01h45.39.324,mdp,2024.2.1,Win32,59.88023952,66fa4ebf79326e780c390304,,,,,,,,,,,,,,,,,,,,,644.2262,644.2263,644.2278,645.2101,1,1,right,0.4511,,645.2117,646.5109,0,1,left,646.512,646.5126,,1,,0,646.5126,646.5126,646.5131,648.0124,0,25,25,25,1,0.8,0.2,0.2,0.8,,,,,,,,,,,,,,,0.7707,,0.4,0.6,0.8,0.2,0.2,0.8,0.8,0.2,1,0,,,,,,,,,,,,
,,612520bd6605794b27e6a0fd,66fc9797e42fae7a97d1f072,2024-10-02_01h45.39.324,mdp,2024.2.1,Win32,59.88023952,66fa4ebf79326e780c390304,,,,,,,,,,,,,,,,,,,,,648.0129,648.0129,648.0144,649.1137,0,0,left,0.5713,,649.1152,650.0977,1,0,right,650.0993,650.1002,,0,,1,650.1002,650.1002,650.1012,651.5989,0,26,26,26,1,0.8,0.2,0.2,0.8,,,,,,,,,,,,,,,0.4518,,0.4,0.6,0.8,0.2,0.2,0.8,0.8,0.2,1,0,,,,,,,,,,,,
,,612520bd6605794b27e6a0fd,66fc9797e42fae7a97d1f072,2024-10-02_01h45.39.324,mdp,2024.2.1,Win32,59.88023952,66fa4ebf79326e780c390304,,,,,,,,,,,,,,,,,,,,,651.5993,651.5993,651.601,652.5665,1,1,right,0.4407,,652.5683,653.5841,1,0,right,653.5857,653.5866,,0,,1,653.5866,653.5866,653.5874,655.0851,0,27,27,27,1,0.8,0.2,0.2,0.8,,,,,,,,,,,,,,,0.4979,,0.4,0.6,0.8,0.2,0.2,0.8,0.8,0.2,1,0,,,,,,,,,,,,
,,612520bd6605794b27e6a0fd,66fc9797e42fae7a97d1f072,2024-10-02_01h45.39.324,mdp,2024.2.1,Win32,59.88023952,66fa4ebf79326e780c390304,,,,,,,,,,,,,,,,,,,,,655.0855,655.0857,655.0872,656.2363,0,0,left,0.6187,,656.238,657.187,1,0,right,657.1879,657.1885,,0,,1,657.1885,657.1885,657.189,658.6884,0,28,28,28,1,0.8,0.2,0.2,0.8,,,,,,,,,,,,,,,0.417,,0.4,0.6,0.8,0.2,0.2,0.8,0.8,0.2,1,0,,,,,,,,,,,,
,,612520bd6605794b27e6a0fd,66fc9797e42fae7a97d1f072,2024-10-02_01h45.39.324,mdp,2024.2.1,Win32,59.88023952,66fa4ebf79326e780c390304,,,,,,,,,,,,,,,,,,,,,658.6888,658.6888,658.6898,659.7894,1,0,right,0.5678,,659.7909,661.8409,0,1,left,661.8419,661.8424,,1,,0,661.8424,661.8424,661.8429,663.3423,0,29,29,29,1,0.8,0.2,0.2,0.8,,,,,,,,,,,,,,,1.5345,,0.4,0.6,0.8,0.2,0.2,0.8,0.8,0.2,1,0,,,,,,,,,,,,
,,612520bd6605794b27e6a0fd,66fc9797e42fae7a97d1f072,2024-10-02_01h45.39.324,mdp,2024.2.1,Win32,59.88023952,66fa4ebf79326e780c390304,,,,,,,,,,,,,,,,,,,,,663.3427,663.3428,663.3444,664.7935,0,1,left,0.9173,,664.7946,666.1116,0,1,left,666.1131,666.114,,1,,0,666.1141,666.1141,666.1149,667.6125,0,30,30,30,1,0.2,0.8,0.8,0.2,,,,,,,,,,,,,,,0.7981,,0.4,0.6,0.8,0.2,0.2,0.8,0.8,0.2,1,0,,,,,,,,,,,,
,,612520bd6605794b27e6a0fd,66fc9797e42fae7a97d1f072,2024-10-02_01h45.39.324,mdp,2024.2.1,Win32,59.88023952,66fa4ebf79326e780c390304,,,,,,,,,,,,,,,,,,,,,667.613,667.613,667.6147,668.6136,0,1,left,0.4682,,668.6152,669.9481,1,0,right,669.9498,669.9506,,0,,1,669.9507,669.9507,669.9516,671.4493,0,31,31,31,1,0.2,0.8,0.8,0.2,,,,,,,,,,,,,,,0.8263,,0.6,0.4,0.6,0.4,0.2,0.8,0.8,0.2,1,0,,,,,,,,,,,,
,,612520bd6605794b27e6a0fd,66fc9797e42fae7a97d1f072,2024-10-02_01h45.39.324,mdp,2024.2.1,Win32,59.88023952,66fa4ebf79326e780c390304,,,,,,,,,,,,,,,,,,,,,671.4499,671.4499,671.4514,672.5338,0,1,left,0.5584,,672.5352,673.5679,1,1,right,673.5694,673.5702,,1,,0,673.5703,673.5703,673.5711,675.069,0,32,32,32,1,0.2,0.8,0.8,0.2,,,,,,,,,,,,,,,0.5177,,0.6,0.4,0.6,0.4,0.2,0.8,0.8,0.2,1,0,,,,,,,,,,,,
,,612520bd6605794b27e6a0fd,66fc9797e42fae7a97d1f072,2024-10-02_01h45.39.324,mdp,2024.2.1,Win32,59.88023952,66fa4ebf79326e780c390304,,,,,,,,,,,,,,,,,,,,,675.0694,675.0694,675.0711,676.1366,0,1,left,0.5329,,676.1375,677.5213,0,1,left,677.5229,677.5238,,1,,0,677.5239,677.5239,677.5247,679.0226,0,33,33,33,1,0.2,0.8,0.8,0.2,,,,,,,,,,,,,,,0.871,,0.6,0.4,0.6,0.4,0.2,0.8,0.8,0.2,1,0,,,,,,,,,,,,
,,612520bd6605794b27e6a0fd,66fc9797e42fae7a97d1f072,2024-10-02_01h45.39.324,mdp,2024.2.1,Win32,59.88023952,66fa4ebf79326e780c390304,,,,,,,,,,,,,,,,,,,,,679.0231,679.0231,679.0246,680.257,1,0,right,0.7044,,680.2587,681.8752,1,0,right,681.8769,681.8779,,0,,1,681.878,681.878,681.8789,683.3763,0,34,34,34,1,0.2,0.8,0.8,0.2,,,,,,,,,,,,,,,1.083,,0.6,0.4,0.6,0.4,0.2,0.8,0.8,0.2,1,0,,,,,,,,,,,,
,,612520bd6605794b27e6a0fd,66fc9797e42fae7a97d1f072,2024-10-02_01h45.39.324,mdp,2024.2.1,Win32,59.88023952,66fa4ebf79326e780c390304,,,,,,,,,,,,,,,,,,,,,683.3769,683.3769,683.3786,684.4275,1,1,right,0.5201,,684.429,685.5283,1,0,right,685.53,685.5308,,1,,1,685.5309,685.5309,685.5318,687.0292,0,35,35,35,1,0.6,0.4,0.2,0.8,,,,,,,,,,,,,,,0.5805,,0.6,0.4,0.6,0.4,0.2,0.8,0.8,0.2,1,0,,,,,,,,,,,,
,,612520bd6605794b27e6a0fd,66fc9797e42fae7a97d1f072,2024-10-02_01h45.39.324,mdp,2024.2.1,Win32,59.88023952,66fa4ebf79326e780c390304,,,,,,,,,,,,,,,,,,,,,687.0295,687.0295,687.0304,687.8802,1,0,right,0.3379,,687.8812,688.8644,1,0,right,688.8654,688.8659,,0,,1,688.8659,688.8659,688.8664,690.3656,0,36,36,36,1,0.6,0.4,0.2,0.8,,,,,,,,,,,,,,,0.4645,,0.6,0.4,0.6,0.4,0.2,0.8,0.8,0.2,1,0,,,,,,,,,,,,
,,612520bd6605794b27e6a0fd,66fc9797e42fae7a97d1f072,2024-10-02_01h45.39.324,mdp,2024.2.1,Win32,59.88023952,66fa4ebf79326e780c390304,,,,,,,,,,,,,,,,,,,,,690.3659,690.3659,690.3668,691.3666,1,0,right,0.4674,,691.3675,692.3844,1,0,right,692.386,692.3872,,1,,1,692.3874,692.3874,692.3884,693.8852,0,37,37,37,1,0.6,0.4,0.2,0.8,,,,,,,,,,,,,,,0.5015,,0.6,0.4,0.6,0.4,0.2,0.8,0.8,0.2,1,0,,,,,,,,,,,,
,,612520bd6605794b27e6a0fd,66fc9797e42fae7a97d1f072,2024-10-02_01h45.39.324,mdp,2024.2.1,Win32,59.88023952,66fa4ebf79326e780c390304,,,,,,,,,,,,,,,,,,,,,693.8857,693.8858,693.8873,694.7528,1,0,right,0.3333,,694.7537,695.8373,1,0,right,695.8388,695.8397,,0,,1,695.8398,695.8398,695.8406,697.3383,0,38,38,38,1,0.6,0.4,0.2,0.8,,,,,,,,,,,,,,,0.5749,,0.8,0.2,0.8,0.2,0.2,0.8,0.8,0.2,1,0,,,,,,,,,,,,
,,612520bd6605794b27e6a0fd,66fc9797e42fae7a97d1f072,2024-10-02_01h45.39.324,mdp,2024.2.1,Win32,59.88023952,66fa4ebf79326e780c390304,,,,,,,,,,,,,,,,,,,,,697.3387,697.3387,697.3403,698.306,1,1,right,0.4531,,698.3075,699.3236,1,1,right,699.3252,699.3259,,0,,0,699.326,699.326,699.3268,700.8248,0,39,39,39,1,0.6,0.4,0.2,0.8,,,,,,,,,,,,,,,0.4984,,0.8,0.2,0.8,0.2,0.2,0.8,0.8,0.2,1,0,,,,,,,,,,,,
,,612520bd6605794b27e6a0fd,66fc9797e42fae7a97d1f072,2024-10-02_01h45.39.324,mdp,2024.2.1,Win32,59.88023952,66fa4ebf79326e780c390304,,,,,,,,,,,,,,,,,,,,,700.8253,700.8253,700.8269,701.7091,0,0,left,0.3583,,701.7105,702.6432,1,0,right,702.6447,702.6455,,0,,1,702.6456,702.6456,702.6464,704.1442,0,40,40,40,1,0.6,0.4,0.2,0.8,,,,,,,,,,,,,,,0.3993,,0.8,0.2,0.8,0.2,0.2,0.8,0.8,0.2,1,0,,,,,,,,,,,,
,,612520bd6605794b27e6a0fd,66fc9797e42fae7a97d1f072,2024-10-02_01h45.39.324,mdp,2024.2.1,Win32,59.88023952,66fa4ebf79326e780c390304,,,,,,,,,,,,,,,,,,,,,704.1446,704.1446,704.1463,705.1453,0,1,left,0.4713,,705.1468,706.0126,1,1,right,706.0144,706.0152,,0,,0,706.0152,706.0152,706.016,707.5138,0,41,41,41,1,0.6,0.4,0.2,0.8,,,,,,,,,,,,,,,0.347,,0.8,0.2,0.8,0.2,0.2,0.8,0.8,0.2,1,0,,,,,,,,,,,,
,,612520bd6605794b27e6a0fd,66fc9797e42fae7a97d1f072,2024-10-02_01h45.39.324,mdp,2024.2.1,Win32,59.88023952,66fa4ebf79326e780c390304,,,,,,,,,,,,,,,,,,,,,707.5143,707.5143,707.5158,708.3813,0,0,left,0.3345,,708.383,709.399,1,0,right,709.4006,709.4014,,0,,1,709.4015,709.4015,709.4023,710.9001,0,42,42,42,1,0.6,0.4,0.2,0.8,,,,,,,,,,,,,,,0.4979,,0.8,0.2,0.8,0.2,0.2,0.8,0.8,0.2,1,0,,,,,,,,,,,,
,,612520bd6605794b27e6a0fd,66fc9797e42fae7a97d1f072,2024-10-02_01h45.39.324,mdp,2024.2.1,Win32,59.88023952,66fa4ebf79326e780c390304,,,,,,,,,,,,,,,,,,,,,710.9006,710.9006,710.9022,711.7678,1,1,right,0.3349,,711.7694,712.6852,1,0,right,712.6867,712.6875,,0,,1,712.6876,712.6876,712.6883,714.1863,0,43,43,43,1,0.6,0.4,0.2,0.8,,,,,,,,,,,,,,,0.4032,,0.8,0.2,0.8,0.2,0.2,0.8,0.8,0.2,1,0,,,,,,,,,,,,
,,612520bd6605794b27e6a0fd,66fc9797e42fae7a97d1f072,2024-10-02_01h45.39.324,mdp,2024.2.1,Win32,59.88023952,66fa4ebf79326e780c390304,,,,,,,,,,,,,,,,,,,,,714.1867,714.1867,714.1882,715.0706,0,1,left,0.3564,,715.072,716.6219,0,1,left,716.6235,716.6245,,0,,0,716.6246,716.6246,716.6256,718.123,0,44,44,44,1,0.6,0.4,0.2,0.8,,,,,,,,,,,,,,,1.0356,,0.8,0.2,0.8,0.2,0.2,0.8,0.8,0.2,1,0,,,,,,,,,,,,
,,612520bd6605794b27e6a0fd,66fc9797e42fae7a97d1f072,2024-10-02_01h45.39.324,mdp,2024.2.1,Win32,59.88023952,66fa4ebf79326e780c390304,,,,,,,,,,,,,,,,,,,,,718.1235,718.1235,718.1249,719.1243,0,1,left,0.4763,,719.1258,720.2083,1,0,right,720.21,720.2109,,1,,1,720.211,720.211,720.2117,721.7094,0,45,45,45,1,0.6,0.4,0.2,0.8,,,,,,,,,,,,,,,0.5551,,0.8,0.2,0.8,0.2,0.2,0.8,0.8,0.2,1,0,,,,,,,,,,,,
,,612520bd6605794b27e6a0fd,66fc9797e42fae7a97d1f072,2024-10-02_01h45.39.324,mdp,2024.2.1,Win32,59.88023952,66fa4ebf79326e780c390304,,,,,,,,,,,,,,,,,,,,,721.71,721.71,721.7115,723.1109,0,1,left,0.8735,,723.1126,724.095,1,0,right,724.0967,724.0977,,0,,1,724.0978,724.0978,724.0987,725.5964,0,46,46,46,1,0.6,0.4,0.2,0.8,,,,,,,,,,,,,,,0.4728,,0.8,0.2,0.8,0.2,0.2,0.8,0.8,0.2,1,0,,,,,,,,,,,,
,,612520bd6605794b27e6a0fd,66fc9797e42fae7a97d1f072,2024-10-02_01h45.39.324,mdp,2024.2.1,Win32,59.88023952,66fa4ebf79326e780c390304,,,,,,,,,,,,,,,,,,,,,725.5969,725.5969,725.5985,726.4804,0,0,left,0.355,,726.482,727.4646,1,0,right,727.4662,727.4669,,1,,1,727.467,727.4671,727.4678,728.9657,0,47,47,47,1,0.6,0.4,0.2,0.8,,,,,,,,,,,,,,,0.4682,,0.8,0.2,0.8,0.2,0.2,0.8,0.8,0.2,1,0,,,,,,,,,,,,
,,612520bd6605794b27e6a0fd,66fc9797e42fae7a97d1f072,2024-10-02_01h45.39.324,mdp,2024.2.1,Win32,59.88023952,66fa4ebf79326e780c390304,,,,,,,,,,,,,,,,,,,,,728.9663,728.9663,728.9678,729.8835,0,0,left,0.3932,,729.8845,730.9176,1,0,right,730.9193,730.9202,,0,,1,730.9202,730.9202,730.921,732.4187,0,48,48,48,1,0.6,0.4,0.2,0.8,,,,,,,,,,,,,,,0.5008,,0.8,0.2,0.8,0.2,0.2,0.8,0.8,0.2,1,0,,,,,,,,,,,,
,,612520bd6605794b27e6a0fd,66fc9797e42fae7a97d1f072,2024-10-02_01h45.39.324,mdp,2024.2.1,Win32,59.88023952,66fa4ebf79326e780c390304,,,,,,,,,,,,,,,,,,,,,732.4191,732.4191,732.4206,733.3196,0,0,left,0.372,,733.3211,734.2873,1,1,right,734.289,734.29,,0,,0,734.29,734.29,734.2909,735.7884,0,49,49,49,1,0.6,0.4,0.2,0.8,,,,,,,,,,,,,,,0.4514,,0.8,0.2,0.8,0.2,0.2,0.8,0.8,0.2,1,0,,,,,,,,,,,,
,,612520bd6605794b27e6a0fd,66fc9797e42fae7a97d1f072,2024-10-02_01h45.39.324,mdp,2024.2.1,Win32,59.88023952,66fa4ebf79326e780c390304,,,,,,,,,,,,,,,,,,,,,,,,,,,,,,,,,,,,,,,,,,,,,,,,,,,,,,,,735.7885,794.3056,0,1,1,0,1,imgs/giraffe.png,imgs/rabbit.png,imgs/dog.png,imgs/squirrel.png,imgs/pig.png,,,,,,,,,,,,,,,,,,,,,,,,
,,612520bd6605794b27e6a0fd,66fc9797e42fae7a97d1f072,2024-10-02_01h45.39.324,mdp,2024.2.1,Win32,59.88023952,66fa4ebf79326e780c390304,,,,,,,,,,,,,,3,seqs/st3seq49.csv,794.3073,803.2299,space,8.3903,,803.236,803.236,803.2368,804.3309,0,0,left,0.5645,,804.3319,805.3652,0,1,left,805.3661,806.2993,1,1,right,0,806.2994,806.2994,806.3003,807.8004,0,0,0,0,1,0.2,0.8,0.6,0.4,,,,,,,,,,,,,,,0.514,,0.6,0.4,0.6,0.4,0.2,0.8,0.6,0.4,,,0.4138,,0.2,0.8,0.2,0.8,0.6,0.4,0.2,0.8,1,0
,,612520bd6605794b27e6a0fd,66fc9797e42fae7a97d1f072,2024-10-02_01h45.39.324,mdp,2024.2.1,Win32,59.88023952,66fa4ebf79326e780c390304,,,,,,,,,,,,,,,,,,,,,807.8009,807.8009,807.8019,809.2017,0,1,left,0.8867,,809.2028,810.5199,1,0,right,810.5215,812.0878,1,1,right,0,812.0879,812.0879,812.0892,813.5887,0,1,1,1,1,0.2,0.8,0.6,0.4,,,,,,,,,,,,,,,0.8021,,0.6,0.4,0.6,0.4,0.2,0.8,0.6,0.4,,,1.0291,,0.2,0.8,0.2,0.8,0.6,0.4,0.2,0.8,1,0
,,612520bd6605794b27e6a0fd,66fc9797e42fae7a97d1f072,2024-10-02_01h45.39.324,mdp,2024.2.1,Win32,59.88023952,66fa4ebf79326e780c390304,,,,,,,,,,,,,,,,,,,,,813.5892,813.5892,813.5901,814.8068,1,0,right,0.7002,,814.8077,815.9245,1,1,right,815.9262,817.0922,0,0,left,1,817.0922,817.0922,817.0938,818.5933,0,2,2,2,1,0.2,0.8,0.6,0.4,,,,,,,,,,,,,,,0.6033,,0.6,0.4,0.6,0.4,0.4,0.6,0.2,0.8,,,0.6309,,0.2,0.8,0.2,0.8,0.6,0.4,0.2,0.8,1,0
,,612520bd6605794b27e6a0fd,66fc9797e42fae7a97d1f072,2024-10-02_01h45.39.324,mdp,2024.2.1,Win32,59.88023952,66fa4ebf79326e780c390304,,,,,,,,,,,,,,,,,,,,,818.5938,818.5939,818.5953,819.861,1,1,right,0.7406,,819.8623,821.2791,0,1,left,821.2808,822.6638,1,1,right,0,822.6638,822.6638,822.6653,824.1647,0,3,3,3,1,0.2,0.8,0.6,0.4,,,,,,,,,,,,,,,0.9028,,0.6,0.4,0.6,0.4,0.4,0.6,0.2,0.8,,,0.8549,,0.2,0.8,0.2,0.8,0.6,0.4,0.2,0.8,1,0
,,612520bd6605794b27e6a0fd,66fc9797e42fae7a97d1f072,2024-10-02_01h45.39.324,mdp,2024.2.1,Win32,59.88023952,66fa4ebf79326e780c390304,,,,,,,,,,,,,,,,,,,,,824.1652,824.1653,824.1668,825.1658,1,0,right,0.4735,,825.1673,826.2334,1,0,right,826.2348,827.518,0,1,left,0,827.5181,827.5181,827.5196,829.0188,0,4,4,4,1,0.2,0.8,0.6,0.4,,,,,,,,,,,,,,,0.5503,,0.6,0.4,0.6,0.4,0.4,0.6,0.2,0.8,,,0.7648,,0.2,0.8,0.2,0.8,0.6,0.4,0.2,0.8,1,0
,,612520bd6605794b27e6a0fd,66fc9797e42fae7a97d1f072,2024-10-02_01h45.39.324,mdp,2024.2.1,Win32,59.88023952,66fa4ebf79326e780c390304,,,,,,,,,,,,,,,,,,,,,829.0195,829.0195,829.021,829.8699,1,0,right,0.3228,,829.8715,830.7873,1,1,right,830.7888,831.7215,1,1,right,0,831.7216,831.7216,831.7233,833.2226,0,5,5,5,1,0.2,0.8,0.6,0.4,,,,,,,,,,,,,,,0.409,,0.6,0.4,0.6,0.4,0.4,0.6,0.2,0.8,,,0.4135,,0.2,0.8,0.2,0.8,0.6,0.4,0.2,0.8,1,0
,,612520bd6605794b27e6a0fd,66fc9797e42fae7a97d1f072,2024-10-02_01h45.39.324,mdp,2024.2.1,Win32,59.88023952,66fa4ebf79326e780c390304,,,,,,,,,,,,,,,,,,,,,833.2232,833.2232,833.2248,834.1736,1,1,right,0.4235,,834.1751,835.6416,1,1,right,835.6431,836.6424,1,1,right,0,836.6425,836.6425,836.6439,838.1434,0,6,6,6,1,0.2,0.8,0.6,0.4,,,,,,,,,,,,,,,0.9495,,0.6,0.4,0.6,0.4,0.4,0.6,0.2,0.8,,,0.4677,,0.2,0.8,0.2,0.8,0.6,0.4,0.2,0.8,1,0
,,612520bd6605794b27e6a0fd,66fc9797e42fae7a97d1f072,2024-10-02_01h45.39.324,mdp,2024.2.1,Win32,59.88023952,66fa4ebf79326e780c390304,,,,,,,,,,,,,,,,,,,,,838.1438,838.1438,838.1448,839.0275,0,1,left,0.3581,,839.0284,840.2953,0,0,left,840.2963,841.3796,1,0,right,1,841.3797,841.3797,841.3807,842.8808,0,7,7,7,1,0.2,0.8,0.6,0.4,,,,,,,,,,,,,,,0.7511,,0.6,0.4,0.6,0.4,0.4,0.6,0.2,0.8,,,0.5643,,0.2,0.8,0.2,0.8,0.6,0.4,0.2,0.8,1,0
,,612520bd6605794b27e6a0fd,66fc9797e42fae7a97d1f072,2024-10-02_01h45.39.324,mdp,2024.2.1,Win32,59.88023952,66fa4ebf79326e780c390304,,,,,,,,,,,,,,,,,,,,,842.8813,842.8813,842.8822,843.8651,0,1,left,0.4525,,843.8661,844.9329,0,1,left,844.9343,846.1503,0,0,left,1,846.1504,846.1504,846.1513,847.6518,0,8,8,8,1,0.2,0.8,0.6,0.4,,,,,,,,,,,,,,,0.5575,,0.6,0.4,0.6,0.4,0.4,0.6,0.2,0.8,,,0.6956,,0.2,0.8,0.2,0.8,0.6,0.4,0.2,0.8,1,0
,,612520bd6605794b27e6a0fd,66fc9797e42fae7a97d1f072,2024-10-02_01h45.39.324,mdp,2024.2.1,Win32,59.88023952,66fa4ebf79326e780c390304,,,,,,,,,,,,,,,,,,,,,847.6524,847.6524,847.654,849.0032,0,1,left,0.8181,,849.0046,850.0874,0,1,left,850.089,851.3887,0,0,left,1,851.3887,851.3887,851.3903,852.8898,0,9,9,9,1,0.2,0.8,0.6,0.4,,,,,,,,,,,,,,,0.5714,,0.6,0.4,0.6,0.4,0.4,0.6,0.2,0.8,,,0.7846,,0.2,0.8,0.2,0.8,0.6,0.4,0.2,0.8,1,0
,,612520bd6605794b27e6a0fd,66fc9797e42fae7a97d1f072,2024-10-02_01h45.39.324,mdp,2024.2.1,Win32,59.88023952,66fa4ebf79326e780c390304,,,,,,,,,,,,,,,,,,,,,852.8904,852.8905,852.8922,854.0409,0,1,left,0.6179,,854.0426,855.1084,0,1,left,855.11,856.1593,0,1,left,0,856.1594,856.1595,856.1609,857.661,0,10,10,10,1,0.2,0.8,0.6,0.4,,,,,,,,,,,,,,,0.5411,,0.6,0.4,0.6,0.4,0.4,0.6,0.2,0.8,,,0.5346,,0.2,0.8,0.2,0.8,0.6,0.4,0.2,0.8,1,0
,,612520bd6605794b27e6a0fd,66fc9797e42fae7a97d1f072,2024-10-02_01h45.39.324,mdp,2024.2.1,Win32,59.88023952,66fa4ebf79326e780c390304,,,,,,,,,,,,,,,,,,,,,857.6617,857.6617,857.663,858.6447,0,1,left,0.4578,,858.6462,859.7291,0,0,left,859.7307,861.0637,1,1,right,0,861.0638,861.0638,861.0653,862.5646,0,11,11,11,1,0.2,0.8,0.6,0.4,,,,,,,,,,,,,,,0.5703,,0.6,0.4,0.6,0.4,0.4,0.6,0.2,0.8,,,0.8135,,0.2,0.8,0.2,0.8,0.6,0.4,0.2,0.8,1,0
,,612520bd6605794b27e6a0fd,66fc9797e42fae7a97d1f072,2024-10-02_01h45.39.324,mdp,2024.2.1,Win32,59.88023952,66fa4ebf79326e780c390304,,,,,,,,,,,,,,,,,,,,,862.5649,862.565,862.566,864.1495,1,0,right,1.0681,,864.151,866.2678,1,1,right,866.2688,867.5358,0,1,left,0,867.5359,867.5359,867.5375,869.0368,0,12,12,12,1,0.2,0.8,0.6,0.4,,,,,,,,,,,,,,,1.5806,,0.6,0.4,0.6,0.4,0.8,0.2,0.4,0.6,,,0.7459,,0.2,0.8,0.2,0.8,0.6,0.4,0.2,0.8,1,0
,,612520bd6605794b27e6a0fd,66fc9797e42fae7a97d1f072,2024-10-02_01h45.39.324,mdp,2024.2.1,Win32,59.88023952,66fa4ebf79326e780c390304,,,,,,,,,,,,,,,,,,,,,869.0374,869.0374,869.0389,870.2215,1,0,right,0.6568,,870.2231,871.7728,0,1,left,871.7745,873.0073,1,1,right,0,873.0073,873.0073,873.0087,874.5083,0,13,13,13,1,0.2,0.8,0.6,0.4,,,,,,,,,,,,,,,1.0348,,0.6,0.4,0.6,0.4,0.8,0.2,0.4,0.6,,,0.7182,,0.2,0.8,0.2,0.8,0.6,0.4,0.2,0.8,1,0
,,612520bd6605794b27e6a0fd,66fc9797e42fae7a97d1f072,2024-10-02_01h45.39.324,mdp,2024.2.1,Win32,59.88023952,66fa4ebf79326e780c390304,,,,,,,,,,,,,,,,,,,,,874.5089,874.5089,874.5104,875.4594,0,1,left,0.4177,,875.461,876.8605,1,0,right,876.8621,878.3786,1,0,right,1,878.3787,878.3787,878.3803,879.8797,0,14,14,14,1,0.2,0.8,0.6,0.4,,,,,,,,,,,,,,,0.887,,0.6,0.4,0.6,0.4,0.8,0.2,0.4,0.6,,,1.0074,,0.2,0.8,0.2,0.8,0.4,0.6,0.6,0.4,1,0
,,612520bd6605794b27e6a0fd,66fc9797e42fae7a97d1f072,2024-10-02_01h45.39.324,mdp,2024.2.1,Win32,59.88023952,66fa4ebf79326e780c390304,,,,,,,,,,,,,,,,,,,,,879.8803,879.8806,879.8819,881.1145,0,1,left,0.71,,881.116,882.1985,1,0,right,882.2002,883.3829,1,1,right,0,883.383,883.383,883.3845,884.884,0,15,15,15,1,0.2,0.8,0.6,0.4,,,,,,,,,,,,,,,0.5512,,0.6,0.4,0.6,0.4,0.8,0.2,0.4,0.6,,,0.6519,,0.2,0.8,0.2,0.8,0.4,0.6,0.6,0.4,1,0
,,612520bd6605794b27e6a0fd,66fc9797e42fae7a97d1f072,2024-10-02_01h45.39.324,mdp,2024.2.1,Win32,59.88023952,66fa4ebf79326e780c390304,,,,,,,,,,,,,,,,,,,,,884.8845,884.8846,884.8861,886.4355,0,1,left,1.0182,,886.4371,887.6199,0,1,left,887.6217,888.9544,0,1,left,0,888.9544,888.9544,888.9559,890.4555,0,16,16,16,1,0.2,0.8,0.6,0.4,,,,,,,,,,,,,,,0.6583,,0.6,0.4,0.6,0.4,0.8,0.2,0.4,0.6,,,0.7977,,0.2,0.8,0.2,0.8,0.4,0.6,0.6,0.4,1,0
,,612520bd6605794b27e6a0fd,66fc9797e42fae7a97d1f072,2024-10-02_01h45.39.324,mdp,2024.2.1,Win32,59.88023952,66fa4ebf79326e780c390304,,,,,,,,,,,,,,,,,,,,,890.4561,890.4561,890.4577,891.5568,0,1,left,0.5679,,891.5583,892.8075,0,0,left,892.8087,893.875,1,1,right,0,893.8751,893.8751,893.876,895.3762,0,17,17,17,1,0.2,0.8,0.6,0.4,,,,,,,,,,,,,,,0.7206,,0.6,0.4,0.6,0.4,0.8,0.2,0.4,0.6,,,0.5459,,0.2,0.8,0.2,0.8,0.4,0.6,0.6,0.4,1,0
,,612520bd6605794b27e6a0fd,66fc9797e42fae7a97d1f072,2024-10-02_01h45.39.324,mdp,2024.2.1,Win32,59.88023952,66fa4ebf79326e780c390304,,,,,,,,,,,,,,,,,,,,,895.3766,895.3768,895.3779,896.8112,1,0,right,0.9016,,896.8128,898.4461,0,0,left,898.4476,899.4968,1,1,right,0,899.4969,899.497,899.4984,900.9979,0,18,18,18,1,0.2,0.8,0.6,0.4,,,,,,,,,,,,,,,1.1153,,0.6,0.4,0.6,0.4,0.8,0.2,0.4,0.6,,,0.5202,,0.2,0.8,0.2,0.8,0.4,0.6,0.6,0.4,1,0
,,612520bd6605794b27e6a0fd,66fc9797e42fae7a97d1f072,2024-10-02_01h45.39.324,mdp,2024.2.1,Win32,59.88023952,66fa4ebf79326e780c390304,,,,,,,,,,,,,,,,,,,,,900.9986,900.9986,901.0001,902.2158,0,1,left,0.6847,,902.2174,903.6172,0,0,left,903.6187,904.6177,1,1,right,0,904.6177,904.6177,904.6187,906.1191,0,19,19,19,1,0.2,0.8,0.6,0.4,,,,,,,,,,,,,,,0.8832,,0.6,0.4,0.6,0.4,0.8,0.2,0.4,0.6,,,0.468,,0.2,0.8,0.2,0.8,0.4,0.6,0.6,0.4,1,0
,,612520bd6605794b27e6a0fd,66fc9797e42fae7a97d1f072,2024-10-02_01h45.39.324,mdp,2024.2.1,Win32,59.88023952,66fa4ebf79326e780c390304,,,,,,,,,,,,,,,,,,,,,906.1197,906.1197,906.1212,907.1036,0,1,left,0.451,,907.1054,908.1708,1,1,right,908.1717,909.9389,1,1,right,0,909.939,909.939,909.9399,911.4403,0,20,20,20,1,0.2,0.8,0.6,0.4,,,,,,,,,,,,,,,0.5334,,0.6,0.4,0.6,0.4,0.8,0.2,0.4,0.6,,,1.2559,,0.2,0.8,0.2,0.8,0.4,0.6,0.6,0.4,1,0
,,612520bd6605794b27e6a0fd,66fc9797e42fae7a97d1f072,2024-10-02_01h45.39.324,mdp,2024.2.1,Win32,59.88023952,66fa4ebf79326e780c390304,,,,,,,,,,,,,,,,,,,,,911.4409,911.4409,911.4426,912.5414,1,0,right,0.573,,912.5428,913.8426,0,1,left,913.8442,915.1604,0,1,left,0,915.1605,915.1605,915.1619,916.6614,0,21,21,21,1,0.2,0.8,0.6,0.4,,,,,,,,,,,,,,,0.7881,,0.6,0.4,0.6,0.4,0.6,0.4,0.2,0.8,,,0.8015,,0.2,0.8,0.2,0.8,0.4,0.6,0.6,0.4,1,0
,,612520bd6605794b27e6a0fd,66fc9797e42fae7a97d1f072,2024-10-02_01h45.39.324,mdp,2024.2.1,Win32,59.88023952,66fa4ebf79326e780c390304,,,,,,,,,,,,,,,,,,,,,916.6621,916.6621,916.6635,917.7625,1,0,right,0.5772,,917.7641,918.8967,1,0,right,918.8978,920.5318,0,1,left,0,920.532,920.532,920.5337,922.0328,0,22,22,22,1,0.2,0.8,0.6,0.4,,,,,,,,,,,,,,,0.6174,,0.6,0.4,0.6,0.4,0.6,0.4,0.2,0.8,,,1.1145,,0.2,0.8,0.2,0.8,0.8,0.2,0.2,0.8,1,0
,,612520bd6605794b27e6a0fd,66fc9797e42fae7a97d1f072,2024-10-02_01h45.39.324,mdp,2024.2.1,Win32,59.88023952,66fa4ebf79326e780c390304,,,,,,,,,,,,,,,,,,,,,922.0334,922.0335,922.035,922.9839,0,1,left,0.4184,,922.9857,925.169,1,1,right,925.1705,926.9373,0,0,left,1,926.9374,926.9374,926.9389,928.4383,0,23,23,23,1,0.2,0.8,0.6,0.4,,,,,,,,,,,,,,,1.6492,,0.6,0.4,0.6,0.4,0.6,0.4,0.2,0.8,,,1.2484,,0.2,0.8,0.2,0.8,0.8,0.2,0.2,0.8,1,0
,,612520bd6605794b27e6a0fd,66fc9797e42fae7a97d1f072,2024-10-02_01h45.39.324,mdp,2024.2.1,Win32,59.88023952,66fa4ebf79326e780c390304,,,,,,,,,,,,,,,,,,,,,928.4389,928.4389,928.4405,929.4395,0,1,left,0.4676,,929.4411,930.5237,1,1,right,930.5254,931.7246,0,0,left,1,931.7247,931.7247,931.7263,933.2258,0,24,24,24,1,0.2,0.8,0.6,0.4,,,,,,,,,,,,,,,0.5678,,0.6,0.4,0.6,0.4,0.6,0.4,0.2,0.8,,,0.6739,,0.2,0.8,0.2,0.8,0.8,0.2,0.2,0.8,1,0
,,612520bd6605794b27e6a0fd,66fc9797e42fae7a97d1f072,2024-10-02_01h45.39.324,mdp,2024.2.1,Win32,59.88023952,66fa4ebf79326e780c390304,,,,,,,,,,,,,,,,,,,,,933.2268,933.2268,933.2282,934.3437,0,1,left,0.5845,,934.3451,935.3618,1,0,right,935.3635,936.4452,1,1,right,0,936.4453,936.4453,936.4462,937.9465,0,25,25,25,1,0.2,0.8,0.6,0.4,,,,,,,,,,,,,,,0.5103,,0.6,0.4,0.6,0.4,0.6,0.4,0.2,0.8,,,0.5526,,0.2,0.8,0.2,0.8,0.8,0.2,0.2,0.8,1,0
,,612520bd6605794b27e6a0fd,66fc9797e42fae7a97d1f072,2024-10-02_01h45.39.324,mdp,2024.2.1,Win32,59.88023952,66fa4ebf79326e780c390304,,,,,,,,,,,,,,,,,,,,,937.9472,937.9472,937.9487,939.2313,0,0,left,0.7544,,939.2329,941.1996,0,1,left,941.2012,942.3673,0,1,left,0,942.3674,942.3674,942.3691,943.8684,0,26,26,26,1,0.2,0.8,0.6,0.4,,,,,,,,,,,,,,,1.4471,,0.6,0.4,0.6,0.4,0.6,0.4,0.2,0.8,,,0.6461,,0.2,0.8,0.2,0.8,0.8,0.2,0.2,0.8,1,0
,,612520bd6605794b27e6a0fd,66fc9797e42fae7a97d1f072,2024-10-02_01h45.39.324,mdp,2024.2.1,Win32,59.88023952,66fa4ebf79326e780c390304,,,,,,,,,,,,,,,,,,,,,943.8689,943.869,943.8704,944.836,0,1,left,0.4418,,944.8375,946.0039,1,1,right,946.0053,946.9546,0,0,left,1,946.9547,946.9547,946.956,948.4557,0,27,27,27,1,0.2,0.8,0.6,0.4,,,,,,,,,,,,,,,0.6472,,0.6,0.4,0.6,0.4,0.6,0.4,0.2,0.8,,,0.4176,,0.2,0.8,0.2,0.8,0.8,0.2,0.2,0.8,1,0
,,612520bd6605794b27e6a0fd,66fc9797e42fae7a97d1f072,2024-10-02_01h45.39.324,mdp,2024.2.1,Win32,59.88023952,66fa4ebf79326e780c390304,,,,,,,,,,,,,,,,,,,,,948.4563,948.4563,948.4577,949.3566,0,1,left,0.3742,,949.358,950.3407,1,1,right,950.342,951.425,0,0,left,1,951.4251,951.4251,951.4265,952.9259,0,28,28,28,1,0.2,0.8,0.6,0.4,,,,,,,,,,,,,,,0.4676,,0.6,0.4,0.6,0.4,0.6,0.4,0.2,0.8,,,0.5677,,0.2,0.8,0.2,0.8,0.8,0.2,0.2,0.8,1,0
,,612520bd6605794b27e6a0fd,66fc9797e42fae7a97d1f072,2024-10-02_01h45.39.324,mdp,2024.2.1,Win32,59.88023952,66fa4ebf79326e780c390304,,,,,,,,,,,,,,,,,,,,,952.9263,952.9263,952.9272,953.8605,0,1,left,0.4177,,953.8621,954.8782,1,1,right,954.8798,955.8956,0,0,left,1,955.8957,955.8957,955.8974,957.3967,0,29,29,29,1,0.2,0.8,0.6,0.4,,,,,,,,,,,,,,,0.5012,,0.6,0.4,0.6,0.4,0.2,0.8,0.4,0.6,,,0.4843,,0.2,0.8,0.2,0.8,0.8,0.2,0.2,0.8,1,0
,,612520bd6605794b27e6a0fd,66fc9797e42fae7a97d1f072,2024-10-02_01h45.39.324,mdp,2024.2.1,Win32,59.88023952,66fa4ebf79326e780c390304,,,,,,,,,,,,,,,,,,,,,957.3973,957.3973,957.3991,958.2979,0,0,left,0.3762,,958.2994,959.9826,1,1,right,959.9842,960.9501,0,0,left,1,960.9501,960.9502,960.9516,962.4512,0,30,30,30,1,0.8,0.2,0.2,0.8,,,,,,,,,,,,,,,1.1473,,0.6,0.4,0.6,0.4,0.2,0.8,0.4,0.6,,,0.4348,,0.2,0.8,0.2,0.8,0.8,0.2,0.2,0.8,1,0
,,612520bd6605794b27e6a0fd,66fc9797e42fae7a97d1f072,2024-10-02_01h45.39.324,mdp,2024.2.1,Win32,59.88023952,66fa4ebf79326e780c390304,,,,,,,,,,,,,,,,,,,,,962.4517,962.4518,962.4532,963.5523,0,1,left,0.5678,,963.5539,964.5529,1,1,right,964.554,965.5373,0,0,left,1,965.5375,965.5375,965.539,967.0383,0,31,31,31,1,0.8,0.2,0.2,0.8,,,,,,,,,,,,,,,0.4819,,0.6,0.4,0.6,0.4,0.2,0.8,0.4,0.6,,,0.4689,,0.2,0.8,0.2,0.8,0.8,0.2,0.2,0.8,1,0
,,612520bd6605794b27e6a0fd,66fc9797e42fae7a97d1f072,2024-10-02_01h45.39.324,mdp,2024.2.1,Win32,59.88023952,66fa4ebf79326e780c390304,,,,,,,,,,,,,,,,,,,,,967.0388,967.0389,967.0404,967.9394,0,0,left,0.3741,,967.941,969.1234,1,0,right,969.1243,971.0252,0,1,left,0,971.0252,971.0253,971.0262,972.5264,0,32,32,32,1,0.8,0.2,0.2,0.8,,,,,,,,,,,,,,,0.6631,,0.6,0.4,0.6,0.4,0.2,0.8,0.4,0.6,,,1.3826,,0.2,0.8,0.2,0.8,0.8,0.2,0.2,0.8,1,0
,,612520bd6605794b27e6a0fd,66fc9797e42fae7a97d1f072,2024-10-02_01h45.39.324,mdp,2024.2.1,Win32,59.88023952,66fa4ebf79326e780c390304,,,,,,,,,,,,,,,,,,,,,972.5272,972.5273,972.5288,973.444,0,0,left,0.383,,973.4449,974.5615,1,0,right,974.5624,975.6127,1,1,right,0,975.6128,975.6128,975.6142,977.1137,0,33,33,33,1,0.8,0.2,0.2,0.8,,,,,,,,,,,,,,,0.6101,,0.6,0.4,0.6,0.4,0.2,0.8,0.4,0.6,,,0.5405,,0.2,0.8,0.2,0.8,0.8,0.2,0.2,0.8,1,0
,,612520bd6605794b27e6a0fd,66fc9797e42fae7a97d1f072,2024-10-02_01h45.39.324,mdp,2024.2.1,Win32,59.88023952,66fa4ebf79326e780c390304,,,,,,,,,,,,,,,,,,,,,977.1143,977.1144,977.1159,978.0647,0,0,left,0.4188,,978.0658,979.0654,0,0,left,979.0663,980.1332,1,1,right,0,980.1333,980.1334,980.1348,981.6345,0,34,34,34,1,0.4,0.6,0.6,0.4,,,,,,,,,,,,,,,0.4841,,0.6,0.4,0.6,0.4,0.2,0.8,0.4,0.6,,,0.557,,0.2,0.8,0.2,0.8,0.8,0.2,0.2,0.8,1,0
,,612520bd6605794b27e6a0fd,66fc9797e42fae7a97d1f072,2024-10-02_01h45.39.324,mdp,2024.2.1,Win32,59.88023952,66fa4ebf79326e780c390304,,,,,,,,,,,,,,,,,,,,,981.635,981.635,981.6368,982.752,1,1,right,0.5869,,982.7531,984.1367,0,1,left,984.1381,985.1043,0,0,left,1,985.1045,985.1045,985.106,986.6054,0,35,35,35,1,0.4,0.6,0.6,0.4,,,,,,,,,,,,,,,0.8663,,0.6,0.4,0.6,0.4,0.2,0.8,0.4,0.6,,,0.4508,,0.2,0.8,0.2,0.8,0.8,0.2,0.2,0.8,1,0
,,612520bd6605794b27e6a0fd,66fc9797e42fae7a97d1f072,2024-10-02_01h45.39.324,mdp,2024.2.1,Win32,59.88023952,66fa4ebf79326e780c390304,,,,,,,,,,,,,,,,,,,,,986.6059,986.6059,986.6076,987.6898,1,0,right,0.551,,987.6915,990.2087,1,0,right,990.2104,991.2261,1,1,right,0,991.2263,991.2263,991.2278,992.7271,0,36,36,36,1,0.6,0.4,0.2,0.8,,,,,,,,,,,,,,,2.0005,,0.6,0.4,0.6,0.4,0.2,0.8,0.4,0.6,,,0.4978,,0.2,0.8,0.2,0.8,0.8,0.2,0.2,0.8,1,0
,,612520bd6605794b27e6a0fd,66fc9797e42fae7a97d1f072,2024-10-02_01h45.39.324,mdp,2024.2.1,Win32,59.88023952,66fa4ebf79326e780c390304,,,,,,,,,,,,,,,,,,,,,992.7275,992.7276,992.7285,993.8285,1,1,right,0.5677,,993.8301,994.8961,0,1,left,994.8978,995.8967,0,0,left,1,995.8967,995.8967,995.8979,997.398,0,37,37,37,1,0.6,0.4,0.2,0.8,,,,,,,,,,,,,,,0.5499,,0.6,0.4,0.6,0.4,0.2,0.8,0.4,0.6,,,0.4651,,0.2,0.8,0.2,0.8,0.8,0.2,0.2,0.8,1,0
,,612520bd6605794b27e6a0fd,66fc9797e42fae7a97d1f072,2024-10-02_01h45.39.324,mdp,2024.2.1,Win32,59.88023952,66fa4ebf79326e780c390304,,,,,,,,,,,,,,,,,,,,,997.3986,997.3986,997.4003,998.4326,1,1,right,0.5011,,998.4341,999.4999,0,0,left,999.5015,1001.5185,0,1,left,0,1001.5185,1001.5185,1001.5201,1003.0195,0,38,38,38,1,0.6,0.4,0.2,0.8,,,,,,,,,,,,,,,0.5418,,0.6,0.4,0.6,0.4,0.2,0.8,0.4,0.6,,,1.5019,,0.2,0.8,0.2,0.8,0.8,0.2,0.2,0.8,1,0
,,612520bd6605794b27e6a0fd,66fc9797e42fae7a97d1f072,2024-10-02_01h45.39.324,mdp,2024.2.1,Win32,59.88023952,66fa4ebf79326e780c390304,,,,,,,,,,,,,,,,,,,,,1003.0201,1003.0201,1003.0217,1004.0541,1,1,right,0.5011,,1004.0556,1005.0713,0,1,left,1005.0723,1006.106,0,1,left,0,1006.1061,1006.1061,1006.1077,1007.6068,0,39,39,39,1,0.6,0.4,0.2,0.8,,,,,,,,,,,,,,,0.5002,,0.6,0.4,0.6,0.4,0.2,0.8,0.4,0.6,,,0.5149,,0.2,0.8,0.2,0.8,0.8,0.2,0.2,0.8,1,0
,,612520bd6605794b27e6a0fd,66fc9797e42fae7a97d1f072,2024-10-02_01h45.39.324,mdp,2024.2.1,Win32,59.88023952,66fa4ebf79326e780c390304,,,,,,,,,,,,,,,,,,,,,1007.6075,1007.6078,1007.609,1008.708,1,0,right,0.574,,1008.7096,1010.4594,0,0,left,1010.4609,1012.0276,1,1,right,0,1012.0277,1012.0277,1012.0292,1013.5285,0,40,40,40,1,0.6,0.4,0.2,0.8,,,,,,,,,,,,,,,1.2378,,0.6,0.4,0.6,0.4,0.2,0.8,0.4,0.6,,,1.0547,,0.2,0.8,0.2,0.8,0.8,0.2,0.2,0.8,1,0
,,612520bd6605794b27e6a0fd,66fc9797e42fae7a97d1f072,2024-10-02_01h45.39.324,mdp,2024.2.1,Win32,59.88023952,66fa4ebf79326e780c390304,,,,,,,,,,,,,,,,,,,,,1013.5288,1013.5289,1013.53,1014.73,1,1,right,0.6926,,1014.7315,1015.7309,0,0,left,1015.7324,1017.0318,1,1,right,0,1017.0318,1017.0318,1017.0332,1018.533,0,41,41,41,1,0.6,0.4,0.2,0.8,,,,,,,,,,,,,,,0.4723,,0.6,0.4,0.6,0.4,0.2,0.8,0.4,0.6,,,0.787,,0.2,0.8,0.2,0.8,0.8,0.2,0.2,0.8,1,0
,,612520bd6605794b27e6a0fd,66fc9797e42fae7a97d1f072,2024-10-02_01h45.39.324,mdp,2024.2.1,Win32,59.88023952,66fa4ebf79326e780c390304,,,,,,,,,,,,,,,,,,,,,1018.5336,1018.5336,1018.5349,1019.5008,0,0,left,0.4395,,1019.5024,1021.8694,0,0,left,1021.871,1023.1375,0,1,left,0,1023.1375,1023.1375,1023.139,1024.6383,0,42,42,42,1,0.6,0.4,0.2,0.8,,,,,,,,,,,,,,,1.8321,,0.6,0.4,0.6,0.4,0.2,0.8,0.4,0.6,,,0.7607,,0.2,0.8,0.2,0.8,0.8,0.2,0.2,0.8,1,0
,,612520bd6605794b27e6a0fd,66fc9797e42fae7a97d1f072,2024-10-02_01h45.39.324,mdp,2024.2.1,Win32,59.88023952,66fa4ebf79326e780c390304,,,,,,,,,,,,,,,,,,,,,1024.6389,1024.6389,1024.6404,1025.7725,0,0,left,0.606,,1025.7734,1027.3074,1,0,right,1027.309,1029.2258,1,1,right,0,1029.2258,1029.2258,1029.2274,1030.7268,0,43,43,43,1,0.6,0.4,0.2,0.8,,,,,,,,,,,,,,,1.0249,,0.6,0.4,0.6,0.4,0.2,0.8,0.4,0.6,,,1.4016,,0.2,0.8,0.2,0.8,0.8,0.2,0.2,0.8,1,0
,,612520bd6605794b27e6a0fd,66fc9797e42fae7a97d1f072,2024-10-02_01h45.39.324,mdp,2024.2.1,Win32,59.88023952,66fa4ebf79326e780c390304,,,,,,,,,,,,,,,,,,,,,1030.7274,1030.7274,1030.7289,1031.6612,1,1,right,0.4055,,1031.6626,1032.8955,0,1,left,1032.8973,1033.8132,0,0,left,1,1033.8132,1033.8132,1033.8148,1035.3141,0,44,44,44,1,0.6,0.4,0.2,0.8,,,,,,,,,,,,,,,0.7149,,0.6,0.4,0.6,0.4,0.2,0.8,0.4,0.6,,,0.4013,,0.4,0.6,0.8,0.2,0.8,0.2,0.2,0.8,1,0
,,612520bd6605794b27e6a0fd,66fc9797e42fae7a97d1f072,2024-10-02_01h45.39.324,mdp,2024.2.1,Win32,59.88023952,66fa4ebf79326e780c390304,,,,,,,,,,,,,,,,,,,,,1035.3145,1035.3145,1035.3154,1036.2317,1,1,right,0.3835,,1036.2329,1037.1658,0,0,left,1037.1667,1038.7341,1,1,right,0,1038.7341,1038.7341,1038.7357,1040.2351,0,45,45,45,1,0.6,0.4,0.2,0.8,,,,,,,,,,,,,,,0.4208,,0.6,0.4,0.6,0.4,0.2,0.8,0.4,0.6,,,1.0492,,0.4,0.6,0.8,0.2,0.8,0.2,0.2,0.8,1,0
,,612520bd6605794b27e6a0fd,66fc9797e42fae7a97d1f072,2024-10-02_01h45.39.324,mdp,2024.2.1,Win32,59.88023952,66fa4ebf79326e780c390304,,,,,,,,,,,,,,,,,,,,,1040.2357,1040.2358,1040.2374,1042.1035,1,1,right,1.3386,,1042.1052,1043.021,0,0,left,1043.0225,1044.072,0,1,left,0,1044.0721,1044.0721,1044.0736,1045.573,0,46,46,46,1,0.6,0.4,0.2,0.8,,,,,,,,,,,,,,,0.4058,,0.6,0.4,0.6,0.4,0.2,0.8,0.4,0.6,,,0.5344,,0.4,0.6,0.8,0.2,0.4,0.6,0.6,0.4,1,0
,,612520bd6605794b27e6a0fd,66fc9797e42fae7a97d1f072,2024-10-02_01h45.39.324,mdp,2024.2.1,Win32,59.88023952,66fa4ebf79326e780c390304,,,,,,,,,,,,,,,,,,,,,1045.5736,1045.5736,1045.5751,1046.4741,0,1,left,0.3672,,1046.4755,1047.8085,0,1,left,1047.8101,1048.8428,0,1,left,0,1048.8429,1048.8429,1048.8444,1050.3439,0,47,47,47,1,0.6,0.4,0.2,0.8,,,,,,,,,,,,,,,0.8025,,0.6,0.4,0.6,0.4,0.2,0.8,0.4,0.6,,,0.5136,,0.4,0.6,0.8,0.2,0.4,0.6,0.6,0.4,1,0
,,612520bd6605794b27e6a0fd,66fc9797e42fae7a97d1f072,2024-10-02_01h45.39.324,mdp,2024.2.1,Win32,59.88023952,66fa4ebf79326e780c390304,,,,,,,,,,,,,,,,,,,,,1050.3445,1050.3445,1050.3461,1051.3282,0,0,left,0.4523,,1051.3298,1053.0631,1,1,right,1053.0647,1053.9638,0,1,left,0,1053.9639,1053.9639,1053.9655,1055.465,0,48,48,48,1,0.6,0.4,0.2,0.8,,,,,,,,,,,,,,,1.2178,,0.6,0.4,0.6,0.4,0.4,0.6,0.8,0.2,,,0.3847,,0.4,0.6,0.8,0.2,0.4,0.6,0.6,0.4,1,0
,,612520bd6605794b27e6a0fd,66fc9797e42fae7a97d1f072,2024-10-02_01h45.39.324,mdp,2024.2.1,Win32,59.88023952,66fa4ebf79326e780c390304,,,,,,,,,,,,,,,,,,,,,1055.4656,1055.4656,1055.4672,1056.2992,0,0,left,0.3072,,1056.3008,1057.6337,0,0,left,1057.6351,1059.2183,0,0,left,1,1059.2185,1059.2185,1059.2201,1060.7195,0,49,49,49,1,0.6,0.4,0.2,0.8,,,,,,,,,,,,,,,0.8182,,0.6,0.4,0.6,0.4,0.4,0.6,0.8,0.2,,,1.0557,,0.4,0.6,0.8,0.2,0.4,0.6,0.6,0.4,1,0
,,612520bd6605794b27e6a0fd,66fc9797e42fae7a97d1f072,2024-10-02_01h45.39.324,mdp,2024.2.1,Win32,59.88023952,66fa4ebf79326e780c390304,,,,,,,,,,,,,,,,,,,,,,,,,,,,,,,,,,,,,,,,,,,,,,,,,,,,,,,,1060.7196,1119.2201,0,2,2,8,1,imgs/elephant.png,imgs/dog.png,imgs/goat.png,imgs/lion.png,imgs/pig.png,,,,,,,,,,,,,,,,,,,,,,,,
,,612520bd6605794b27e6a0fd,66fc9797e42fae7a97d1f072,2024-10-02_01h45.39.324,mdp,2024.2.1,Win32,59.88023952,66fa4ebf79326e780c390304,,,,,,,,,,,,,,3,seqs/st3seq17.csv,1119.2211,1129.2121,space,9.4583,,1129.2168,1129.2168,1129.2176,1130.5302,0,0,left,0.7822,,1130.5317,1131.9644,1,1,right,1131.9654,1133.3659,0,1,left,0,1133.366,1133.366,1133.3675,1134.8669,0,0,0,0,1,0.4,0.6,0.6,0.4,,,,,,,,,,,,,,,0.9029,,0.6,0.4,0.2,0.8,0.6,0.4,0.2,0.8,,,0.8785,,0.2,0.8,0.6,0.4,0.8,0.2,0.6,0.4,1,0
,,612520bd6605794b27e6a0fd,66fc9797e42fae7a97d1f072,2024-10-02_01h45.39.324,mdp,2024.2.1,Win32,59.88023952,66fa4ebf79326e780c390304,,,,,,,,,,,,,,,,,,,,,1134.8674,1134.8674,1134.8682,1135.9682,0,1,left,0.5672,,1135.9696,1137.286,0,1,left,1137.2876,1138.2869,0,1,left,0,1138.287,1138.287,1138.2883,1139.7879,0,1,1,1,1,0.4,0.6,0.6,0.4,,,,,,,,,,,,,,,0.7951,,0.6,0.4,0.2,0.8,0.6,0.4,0.2,0.8,,,0.4697,,0.2,0.8,0.6,0.4,0.8,0.2,0.6,0.4,1,0
,,612520bd6605794b27e6a0fd,66fc9797e42fae7a97d1f072,2024-10-02_01h45.39.324,mdp,2024.2.1,Win32,59.88023952,66fa4ebf79326e780c390304,,,,,,,,,,,,,,,,,,,,,1139.7885,1139.7885,1139.79,1140.8722,1,1,right,0.5506,,1140.8733,1142.3735,1,1,right,1142.3745,1143.4746,0,1,left,0,1143.4747,1143.4747,1143.4761,1144.9756,0,2,2,2,1,0.4,0.6,0.6,0.4,,,,,,,,,,,,,,,0.9875,,0.6,0.4,0.2,0.8,0.6,0.4,0.2,0.8,,,0.5907,,0.2,0.8,0.6,0.4,0.4,0.6,0.8,0.2,1,0
,,612520bd6605794b27e6a0fd,66fc9797e42fae7a97d1f072,2024-10-02_01h45.39.324,mdp,2024.2.1,Win32,59.88023952,66fa4ebf79326e780c390304,,,,,,,,,,,,,,,,,,,,,1144.9763,1144.9763,1144.9779,1145.9934,1,1,right,0.4844,,1145.9949,1147.6282,0,0,left,1147.6298,1148.8793,1,1,right,0,1148.8793,1148.8794,1148.881,1150.3804,0,3,3,3,1,0.4,0.6,0.6,0.4,,,,,,,,,,,,,,,1.1062,,0.6,0.4,0.2,0.8,0.6,0.4,0.2,0.8,,,0.7319,,0.2,0.8,0.6,0.4,0.4,0.6,0.8,0.2,1,0
,,612520bd6605794b27e6a0fd,66fc9797e42fae7a97d1f072,2024-10-02_01h45.39.324,mdp,2024.2.1,Win32,59.88023952,66fa4ebf79326e780c390304,,,,,,,,,,,,,,,,,,,,,1150.381,1150.381,1150.3824,1151.982,1,1,right,1.0681,,1151.9836,1153.5333,0,0,left,1153.535,1154.9847,0,1,left,0,1154.9847,1154.9847,1154.9862,1156.4856,0,4,4,4,1,0.4,0.6,0.6,0.4,,,,,,,,,,,,,,,1.0348,,0.6,0.4,0.2,0.8,0.6,0.4,0.2,0.8,,,0.9181,,0.2,0.8,0.6,0.4,0.4,0.6,0.8,0.2,1,0
,,612520bd6605794b27e6a0fd,66fc9797e42fae7a97d1f072,2024-10-02_01h45.39.324,mdp,2024.2.1,Win32,59.88023952,66fa4ebf79326e780c390304,,,,,,,,,,,,,,,,,,,,,1156.4862,1156.4862,1156.4876,1158.0871,0,0,left,1.0688,,1158.088,1159.5385,1,0,right,1159.5402,1160.7227,0,1,left,0,1160.7227,1160.7227,1160.7236,1162.224,0,5,5,5,1,0.4,0.6,0.6,0.4,,,,,,,,,,,,,,,0.9322,,0.6,0.4,0.2,0.8,0.6,0.4,0.2,0.8,,,0.6512,,0.2,0.8,0.6,0.4,0.4,0.6,0.8,0.2,1,0
,,612520bd6605794b27e6a0fd,66fc9797e42fae7a97d1f072,2024-10-02_01h45.39.324,mdp,2024.2.1,Win32,59.88023952,66fa4ebf79326e780c390304,,,,,,,,,,,,,,,,,,,,,1162.2246,1162.2247,1162.2261,1163.425,0,1,left,0.6752,,1163.4258,1164.743,0,1,left,1164.7446,1166.1442,0,0,left,1,1166.1443,1166.1443,1166.1458,1167.6452,0,6,6,6,1,0.4,0.6,0.6,0.4,,,,,,,,,,,,,,,0.8003,,0.6,0.4,0.2,0.8,0.6,0.4,0.2,0.8,,,0.8655,,0.2,0.8,0.6,0.4,0.4,0.6,0.8,0.2,1,0
,,612520bd6605794b27e6a0fd,66fc9797e42fae7a97d1f072,2024-10-02_01h45.39.324,mdp,2024.2.1,Win32,59.88023952,66fa4ebf79326e780c390304,,,,,,,,,,,,,,,,,,,,,1167.6456,1167.6456,1167.6466,1168.8632,0,1,left,0.7022,,1168.8649,1169.8475,0,0,left,1169.8489,1171.3317,1,0,right,1,1171.3318,1171.3318,1171.3327,1172.8329,0,7,7,7,1,0.4,0.6,0.6,0.4,,,,,,,,,,,,,,,0.4677,,0.6,0.4,0.2,0.8,0.6,0.4,0.2,0.8,,,0.9641,,0.2,0.8,0.6,0.4,0.4,0.6,0.8,0.2,1,0
,,612520bd6605794b27e6a0fd,66fc9797e42fae7a97d1f072,2024-10-02_01h45.39.324,mdp,2024.2.1,Win32,59.88023952,66fa4ebf79326e780c390304,,,,,,,,,,,,,,,,,,,,,1172.8332,1172.8332,1172.8342,1174.0509,0,1,left,0.7012,,1174.0518,1175.1019,0,1,left,1175.1029,1176.3362,0,0,left,1,1176.3363,1176.3363,1176.3373,1177.8374,0,8,8,8,1,0.6,0.4,0.2,0.8,,,,,,,,,,,,,,,0.5344,,0.6,0.4,0.2,0.8,0.6,0.4,0.2,0.8,,,0.6982,,0.2,0.8,0.6,0.4,0.4,0.6,0.8,0.2,1,0
,,612520bd6605794b27e6a0fd,66fc9797e42fae7a97d1f072,2024-10-02_01h45.39.324,mdp,2024.2.1,Win32,59.88023952,66fa4ebf79326e780c390304,,,,,,,,,,,,,,,,,,,,,1177.838,1177.838,1177.8397,1179.1219,0,0,left,0.7573,,1179.1228,1180.7569,1,1,right,1180.7585,1182.058,0,0,left,1,1182.0581,1182.0581,1182.0597,1183.559,0,9,9,9,1,0.6,0.4,0.2,0.8,,,,,,,,,,,,,,,1.1194,,0.6,0.4,0.2,0.8,0.6,0.4,0.2,0.8,,,0.7846,,0.2,0.8,0.6,0.4,0.4,0.6,0.8,0.2,1,0
,,612520bd6605794b27e6a0fd,66fc9797e42fae7a97d1f072,2024-10-02_01h45.39.324,mdp,2024.2.1,Win32,59.88023952,66fa4ebf79326e780c390304,,,,,,,,,,,,,,,,,,,,,1183.5594,1183.5595,1183.5605,1184.7271,0,0,left,0.636,,1184.7286,1186.3453,1,0,right,1186.3469,1187.8463,1,0,right,1,1187.8464,1187.8464,1187.8479,1189.3474,0,10,10,10,1,0.6,0.4,0.2,0.8,,,,,,,,,,,,,,,1.0938,,0.6,0.4,0.2,0.8,0.6,0.4,0.2,0.8,,,0.9663,,0.2,0.8,0.6,0.4,0.4,0.6,0.8,0.2,1,0
,,612520bd6605794b27e6a0fd,66fc9797e42fae7a97d1f072,2024-10-02_01h45.39.324,mdp,2024.2.1,Win32,59.88023952,66fa4ebf79326e780c390304,,,,,,,,,,,,,,,,,,,,,1189.3479,1189.348,1189.3495,1190.4987,0,0,left,0.6238,,1190.5003,1191.8665,1,1,right,1191.868,1193.168,0,1,left,0,1193.168,1193.168,1193.1695,1194.6686,0,11,11,11,1,0.6,0.4,0.2,0.8,,,,,,,,,,,,,,,0.8516,,0.6,0.4,0.2,0.8,0.6,0.4,0.2,0.8,,,0.7904,,0.2,0.8,0.6,0.4,0.2,0.8,0.4,0.6,1,0
,,612520bd6605794b27e6a0fd,66fc9797e42fae7a97d1f072,2024-10-02_01h45.39.324,mdp,2024.2.1,Win32,59.88023952,66fa4ebf79326e780c390304,,,,,,,,,,,,,,,,,,,,,1194.6689,1194.6689,1194.6699,1195.7532,0,1,left,0.5679,,1195.7548,1196.9711,1,1,right,1196.973,1198.0219,0,0,left,1,1198.0221,1198.0221,1198.0235,1199.5229,0,12,12,12,1,0.6,0.4,0.2,0.8,,,,,,,,,,,,,,,0.7031,,0.6,0.4,0.2,0.8,0.6,0.4,0.2,0.8,,,0.518,,0.2,0.8,0.6,0.4,0.2,0.8,0.4,0.6,1,0
,,612520bd6605794b27e6a0fd,66fc9797e42fae7a97d1f072,2024-10-02_01h45.39.324,mdp,2024.2.1,Win32,59.88023952,66fa4ebf79326e780c390304,,,,,,,,,,,,,,,,,,,,,1199.5234,1199.5234,1199.5249,1200.891,0,1,left,0.8402,,1200.8926,1202.1253,1,1,right,1202.1269,1203.3598,0,1,left,0,1203.3599,1203.3599,1203.3614,1204.8608,0,13,13,13,1,0.6,0.4,0.2,0.8,,,,,,,,,,,,,,,0.7215,,0.6,0.4,0.2,0.8,0.6,0.4,0.2,0.8,,,0.7181,,0.2,0.8,0.6,0.4,0.2,0.8,0.4,0.6,1,0
,,612520bd6605794b27e6a0fd,66fc9797e42fae7a97d1f072,2024-10-02_01h45.39.324,mdp,2024.2.1,Win32,59.88023952,66fa4ebf79326e780c390304,,,,,,,,,,,,,,,,,,,,,1204.8614,1204.8614,1204.863,1206.1622,0,0,left,0.7743,,1206.1637,1208.1307,1,0,right,1208.1323,1209.5318,1,0,right,1,1209.5319,1209.5319,1209.5334,1211.033,0,14,14,14,1,0.6,0.4,0.2,0.8,,,,,,,,,,,,,,,1.4489,,0.6,0.4,0.2,0.8,0.6,0.4,0.2,0.8,,,0.8649,,0.2,0.8,0.6,0.4,0.2,0.8,0.4,0.6,1,0
,,612520bd6605794b27e6a0fd,66fc9797e42fae7a97d1f072,2024-10-02_01h45.39.324,mdp,2024.2.1,Win32,59.88023952,66fa4ebf79326e780c390304,,,,,,,,,,,,,,,,,,,,,1211.0336,1211.0336,1211.0352,1212.4845,0,0,left,0.9181,,1212.4858,1213.9524,1,1,right,1213.954,1215.0866,0,1,left,0,1215.0867,1215.0867,1215.0881,1216.5878,0,15,15,15,1,0.6,0.4,0.2,0.8,,,,,,,,,,,,,,,0.9349,,0.2,0.8,0.6,0.4,0.6,0.4,0.2,0.8,,,0.6151,,0.2,0.8,0.6,0.4,0.2,0.8,0.4,0.6,1,0
,,612520bd6605794b27e6a0fd,66fc9797e42fae7a97d1f072,2024-10-02_01h45.39.324,mdp,2024.2.1,Win32,59.88023952,66fa4ebf79326e780c390304,,,,,,,,,,,,,,,,,,,,,1216.5886,1216.5887,1216.59,1217.9055,0,0,left,0.7841,,1217.9065,1219.4404,0,0,left,1219.442,1221.025,1,0,right,1,1221.0251,1221.0251,1221.0266,1222.5262,0,16,16,16,1,0.6,0.4,0.2,0.8,,,,,,,,,,,,,,,1.0261,,0.2,0.8,0.6,0.4,0.6,0.4,0.2,0.8,,,1.057,,0.2,0.8,0.6,0.4,0.2,0.8,0.4,0.6,1,0
,,612520bd6605794b27e6a0fd,66fc9797e42fae7a97d1f072,2024-10-02_01h45.39.324,mdp,2024.2.1,Win32,59.88023952,66fa4ebf79326e780c390304,,,,,,,,,,,,,,,,,,,,,1222.5268,1222.5268,1222.5284,1223.6106,0,1,left,0.5511,,1223.6123,1225.0785,1,0,right,1225.0801,1226.3463,1,1,right,0,1226.3464,1226.3464,1226.3481,1227.8474,0,17,17,17,1,0.6,0.4,0.2,0.8,,,,,,,,,,,,,,,0.932,,0.2,0.8,0.6,0.4,0.6,0.4,0.2,0.8,,,0.7571,,0.2,0.8,0.6,0.4,0.2,0.8,0.4,0.6,1,0
,,612520bd6605794b27e6a0fd,66fc9797e42fae7a97d1f072,2024-10-02_01h45.39.324,mdp,2024.2.1,Win32,59.88023952,66fa4ebf79326e780c390304,,,,,,,,,,,,,,,,,,,,,1227.848,1227.848,1227.8498,1229.0487,0,1,left,0.6679,,1229.0501,1230.233,1,0,right,1230.2346,1231.6176,0,1,left,0,1231.6178,1231.6178,1231.6194,1233.1187,0,18,18,18,1,0.6,0.4,0.2,0.8,,,,,,,,,,,,,,,0.659,,0.2,0.8,0.6,0.4,0.6,0.4,0.2,0.8,,,0.8748,,0.2,0.8,0.6,0.4,0.2,0.8,0.4,0.6,1,0
,,612520bd6605794b27e6a0fd,66fc9797e42fae7a97d1f072,2024-10-02_01h45.39.324,mdp,2024.2.1,Win32,59.88023952,66fa4ebf79326e780c390304,,,,,,,,,,,,,,,,,,,,,1233.1192,1233.1193,1233.1207,1234.3366,0,1,left,0.6919,,1234.338,1235.471,0,0,left,1235.4725,1236.6553,1,0,right,1,1236.6555,1236.6555,1236.6569,1238.1563,0,19,19,19,1,0.6,0.4,0.2,0.8,,,,,,,,,,,,,,,0.6186,,0.2,0.8,0.6,0.4,0.6,0.4,0.2,0.8,,,0.6511,,0.2,0.8,0.6,0.4,0.2,0.8,0.4,0.6,1,0
,,612520bd6605794b27e6a0fd,66fc9797e42fae7a97d1f072,2024-10-02_01h45.39.324,mdp,2024.2.1,Win32,59.88023952,66fa4ebf79326e780c390304,,,,,,,,,,,,,,,,,,,,,1238.1568,1238.1568,1238.1576,1239.1741,0,1,left,0.4867,,1239.1757,1240.2083,0,1,left,1240.2098,1241.3093,0,1,left,0,1241.3094,1241.3094,1241.3107,1242.8104,0,20,20,20,1,0.6,0.4,0.2,0.8,,,,,,,,,,,,,,,0.5253,,0.2,0.8,0.6,0.4,0.6,0.4,0.2,0.8,,,0.5814,,0.2,0.8,0.6,0.4,0.2,0.8,0.4,0.6,1,0
,,612520bd6605794b27e6a0fd,66fc9797e42fae7a97d1f072,2024-10-02_01h45.39.324,mdp,2024.2.1,Win32,59.88023952,66fa4ebf79326e780c390304,,,,,,,,,,,,,,,,,,,,,1242.8109,1242.811,1242.8127,1243.7948,0,1,left,0.4509,,1243.7964,1245.0459,0,0,left,1245.0474,1246.3468,1,1,right,0,1246.3468,1246.3468,1246.3479,1247.848,0,21,21,21,1,0.8,0.2,0.8,0.2,,,,,,,,,,,,,,,0.7373,,0.2,0.8,0.6,0.4,0.6,0.4,0.2,0.8,,,0.7633,,0.2,0.8,0.6,0.4,0.2,0.8,0.4,0.6,1,0
,,612520bd6605794b27e6a0fd,66fc9797e42fae7a97d1f072,2024-10-02_01h45.39.324,mdp,2024.2.1,Win32,59.88023952,66fa4ebf79326e780c390304,,,,,,,,,,,,,,,,,,,,,1247.8486,1247.8486,1247.85,1249.1493,0,1,left,0.7711,,1249.1509,1250.2506,1,1,right,1250.2522,1251.4511,0,1,left,0,1251.4512,1251.4512,1251.4521,1252.9524,0,22,22,22,1,0.8,0.2,0.8,0.2,,,,,,,,,,,,,,,0.5904,,0.2,0.8,0.6,0.4,0.6,0.4,0.2,0.8,,,0.662,,0.2,0.8,0.6,0.4,0.2,0.8,0.4,0.6,1,0
,,612520bd6605794b27e6a0fd,66fc9797e42fae7a97d1f072,2024-10-02_01h45.39.324,mdp,2024.2.1,Win32,59.88023952,66fa4ebf79326e780c390304,,,,,,,,,,,,,,,,,,,,,1252.953,1252.953,1252.9544,1254.1038,1,0,right,0.6173,,1254.1053,1256.0388,0,1,left,1256.0405,1257.1897,1,1,right,0,1257.1898,1257.1898,1257.1912,1258.6909,0,23,23,23,1,0.8,0.2,0.8,0.2,,,,,,,,,,,,,,,1.4137,,0.2,0.8,0.6,0.4,0.6,0.4,0.2,0.8,,,0.6206,,0.2,0.8,0.6,0.4,0.4,0.6,0.2,0.8,1,0
,,612520bd6605794b27e6a0fd,66fc9797e42fae7a97d1f072,2024-10-02_01h45.39.324,mdp,2024.2.1,Win32,59.88023952,66fa4ebf79326e780c390304,,,,,,,,,,,,,,,,,,,,,1258.6915,1258.6915,1258.6929,1260.1089,1,1,right,0.888,,1260.1105,1261.3432,0,0,left,1261.3449,1262.8279,0,1,left,0,1262.828,1262.828,1262.8295,1264.329,0,24,24,24,1,0.8,0.2,0.8,0.2,,,,,,,,,,,,,,,0.6964,,0.2,0.8,0.6,0.4,0.6,0.4,0.2,0.8,,,0.9688,,0.2,0.8,0.6,0.4,0.4,0.6,0.2,0.8,1,0
,,612520bd6605794b27e6a0fd,66fc9797e42fae7a97d1f072,2024-10-02_01h45.39.324,mdp,2024.2.1,Win32,59.88023952,66fa4ebf79326e780c390304,,,,,,,,,,,,,,,,,,,,,1264.3296,1264.3296,1264.331,1265.4469,0,0,left,0.5869,,1265.4485,1267.2318,0,1,left,1267.2333,1268.2661,0,1,left,0,1268.2661,1268.2662,1268.2676,1269.7673,0,25,25,25,1,0.8,0.2,0.8,0.2,,,,,,,,,,,,,,,1.2736,,0.2,0.8,0.6,0.4,0.6,0.4,0.2,0.8,,,0.5044,,0.2,0.8,0.6,0.4,0.4,0.6,0.2,0.8,1,0
,,612520bd6605794b27e6a0fd,66fc9797e42fae7a97d1f072,2024-10-02_01h45.39.324,mdp,2024.2.1,Win32,59.88023952,66fa4ebf79326e780c390304,,,,,,,,,,,,,,,,,,,,,1269.7681,1269.7681,1269.7701,1270.668,0,1,left,0.372,,1270.6695,1271.7689,1,0,right,1271.7705,1272.9368,1,0,right,1,1272.9368,1272.9368,1272.9383,1274.4378,0,26,26,26,1,0.8,0.2,0.8,0.2,,,,,,,,,,,,,,,0.5865,,0.2,0.8,0.6,0.4,0.6,0.4,0.2,0.8,,,0.6483,,0.2,0.8,0.6,0.4,0.4,0.6,0.2,0.8,1,0
,,612520bd6605794b27e6a0fd,66fc9797e42fae7a97d1f072,2024-10-02_01h45.39.324,mdp,2024.2.1,Win32,59.88023952,66fa4ebf79326e780c390304,,,,,,,,,,,,,,,,,,,,,1274.4383,1274.4384,1274.4399,1275.6558,0,0,left,0.6846,,1275.6574,1277.8073,1,0,right,1277.8084,1278.9919,1,0,right,1,1278.9919,1278.992,1278.9935,1280.493,0,27,27,27,1,0.8,0.2,0.8,0.2,,,,,,,,,,,,,,,1.6151,,0.2,0.8,0.6,0.4,0.6,0.4,0.2,0.8,,,0.6675,,0.2,0.8,0.6,0.4,0.8,0.2,0.8,0.2,1,0
,,612520bd6605794b27e6a0fd,66fc9797e42fae7a97d1f072,2024-10-02_01h45.39.324,mdp,2024.2.1,Win32,59.88023952,66fa4ebf79326e780c390304,,,,,,,,,,,,,,,,,,,,,1280.4933,1280.4933,1280.4942,1281.6108,0,1,left,0.5898,,1281.6124,1282.8117,1,1,right,1282.8127,1283.9296,0,0,left,1,1283.9296,1283.9297,1283.9312,1285.4306,0,28,28,28,1,0.8,0.2,0.8,0.2,,,,,,,,,,,,,,,0.6838,,0.2,0.8,0.6,0.4,0.4,0.6,0.6,0.4,,,0.6044,,0.2,0.8,0.6,0.4,0.8,0.2,0.8,0.2,1,0
,,612520bd6605794b27e6a0fd,66fc9797e42fae7a97d1f072,2024-10-02_01h45.39.324,mdp,2024.2.1,Win32,59.88023952,66fa4ebf79326e780c390304,,,,,,,,,,,,,,,,,,,,,1285.4311,1285.4311,1285.4327,1286.6986,0,1,left,0.7403,,1286.7001,1287.7825,1,0,right,1287.7835,1288.8002,1,0,right,1,1288.8003,1288.8003,1288.8012,1290.3012,0,29,29,29,1,0.8,0.2,0.8,0.2,,,,,,,,,,,,,,,0.5668,,0.2,0.8,0.6,0.4,0.4,0.6,0.6,0.4,,,0.5055,,0.2,0.8,0.6,0.4,0.8,0.2,0.8,0.2,1,0
,,612520bd6605794b27e6a0fd,66fc9797e42fae7a97d1f072,2024-10-02_01h45.39.324,mdp,2024.2.1,Win32,59.88023952,66fa4ebf79326e780c390304,,,,,,,,,,,,,,,,,,,,,1290.3015,1290.3015,1290.3025,1291.4524,0,0,left,0.634,,1291.4534,1293.3207,1,1,right,1293.3215,1294.4054,0,0,left,1,1294.4054,1294.4054,1294.407,1295.9064,0,30,30,30,1,0.8,0.2,0.8,0.2,,,,,,,,,,,,,,,1.3559,,0.2,0.8,0.6,0.4,0.4,0.6,0.6,0.4,,,0.5635,,0.2,0.8,0.6,0.4,0.8,0.2,0.8,0.2,1,0
,,612520bd6605794b27e6a0fd,66fc9797e42fae7a97d1f072,2024-10-02_01h45.39.324,mdp,2024.2.1,Win32,59.88023952,66fa4ebf79326e780c390304,,,,,,,,,,,,,,,,,,,,,1295.9069,1295.9071,1295.9085,1296.9913,0,0,left,0.5602,,1296.9927,1298.4755,1,1,right,1298.4771,1299.6265,0,1,left,0,1299.6266,1299.6266,1299.6281,1301.1274,0,31,31,31,1,0.8,0.2,0.8,0.2,,,,,,,,,,,,,,,0.9559,,0.6,0.4,0.2,0.8,0.4,0.6,0.6,0.4,,,0.6185,,0.2,0.8,0.6,0.4,0.8,0.2,0.8,0.2,1,0
,,612520bd6605794b27e6a0fd,66fc9797e42fae7a97d1f072,2024-10-02_01h45.39.324,mdp,2024.2.1,Win32,59.88023952,66fa4ebf79326e780c390304,,,,,,,,,,,,,,,,,,,,,1301.1277,1301.1278,1301.1288,1302.4789,0,0,left,0.8339,,1302.4804,1303.6799,1,0,right,1303.6815,1304.9979,1,0,right,1,1304.9979,1304.9979,1304.9994,1306.4987,0,32,32,32,1,0.8,0.2,0.8,0.2,,,,,,,,,,,,,,,0.6841,,0.6,0.4,0.2,0.8,0.4,0.6,0.6,0.4,,,0.798,,0.2,0.8,0.6,0.4,0.8,0.2,0.8,0.2,1,0
,,612520bd6605794b27e6a0fd,66fc9797e42fae7a97d1f072,2024-10-02_01h45.39.324,mdp,2024.2.1,Win32,59.88023952,66fa4ebf79326e780c390304,,,,,,,,,,,,,,,,,,,,,1306.4991,1306.4991,1306.5001,1307.8336,0,1,left,0.8013,,1307.8351,1308.9012,1,0,right,1308.9029,1310.0354,1,0,right,1,1310.0355,1310.0355,1310.037,1311.5365,0,33,33,33,1,0.8,0.2,0.8,0.2,,,,,,,,,,,,,,,0.5302,,0.6,0.4,0.2,0.8,0.4,0.6,0.6,0.4,,,0.6221,,0.2,0.8,0.6,0.4,0.8,0.2,0.8,0.2,1,0
,,612520bd6605794b27e6a0fd,66fc9797e42fae7a97d1f072,2024-10-02_01h45.39.324,mdp,2024.2.1,Win32,59.88023952,66fa4ebf79326e780c390304,,,,,,,,,,,,,,,,,,,,,1311.5371,1311.5371,1311.5385,1312.6877,0,0,left,0.6175,,1312.6893,1314.1391,1,1,right,1314.1406,1315.29,0,0,left,1,1315.2901,1315.2901,1315.2914,1316.791,0,34,34,34,1,0.8,0.2,0.8,0.2,,,,,,,,,,,,,,,0.9149,,0.6,0.4,0.2,0.8,0.4,0.6,0.6,0.4,,,0.6144,,0.2,0.8,0.6,0.4,0.8,0.2,0.8,0.2,1,0
,,612520bd6605794b27e6a0fd,66fc9797e42fae7a97d1f072,2024-10-02_01h45.39.324,mdp,2024.2.1,Win32,59.88023952,66fa4ebf79326e780c390304,,,,,,,,,,,,,,,,,,,,,1316.7917,1316.7918,1316.7933,1317.9089,0,0,left,0.5883,,1317.9102,1319.0931,1,1,right,1319.0948,1320.2275,0,0,left,1,1320.2275,1320.2275,1320.2284,1321.7287,0,35,35,35,1,0.8,0.2,0.8,0.2,,,,,,,,,,,,,,,0.6701,,0.6,0.4,0.2,0.8,0.4,0.6,0.6,0.4,,,0.6216,,0.2,0.8,0.6,0.4,0.8,0.2,0.8,0.2,1,0
,,612520bd6605794b27e6a0fd,66fc9797e42fae7a97d1f072,2024-10-02_01h45.39.324,mdp,2024.2.1,Win32,59.88023952,66fa4ebf79326e780c390304,,,,,,,,,,,,,,,,,,,,,1321.7292,1321.7293,1321.7309,1322.8631,0,0,left,0.6011,,1322.8645,1324.0142,1,1,right,1324.0158,1325.1318,0,0,left,1,1325.1318,1325.1319,1325.1334,1326.6329,0,36,36,36,1,0.8,0.2,0.8,0.2,,,,,,,,,,,,,,,0.6352,,0.6,0.4,0.2,0.8,0.4,0.6,0.6,0.4,,,0.605,,0.2,0.8,0.6,0.4,0.8,0.2,0.8,0.2,1,0
,,612520bd6605794b27e6a0fd,66fc9797e42fae7a97d1f072,2024-10-02_01h45.39.324,mdp,2024.2.1,Win32,59.88023952,66fa4ebf79326e780c390304,,,,,,,,,,,,,,,,,,,,,1326.6335,1326.6335,1326.6351,1327.9009,0,0,left,0.7343,,1327.9026,1328.9518,1,1,right,1328.9531,1330.0027,0,0,left,1,1330.0028,1330.0028,1330.0042,1331.5038,0,37,37,37,1,0.8,0.2,0.8,0.2,,,,,,,,,,,,,,,0.5341,,0.6,0.4,0.2,0.8,0.4,0.6,0.6,0.4,,,0.535,,0.2,0.8,0.6,0.4,0.8,0.2,0.8,0.2,1,0
,,612520bd6605794b27e6a0fd,66fc9797e42fae7a97d1f072,2024-10-02_01h45.39.324,mdp,2024.2.1,Win32,59.88023952,66fa4ebf79326e780c390304,,,,,,,,,,,,,,,,,,,,,1331.5044,1331.5044,1331.5059,1332.605,0,0,left,0.5681,,1332.6066,1333.7225,1,1,right,1333.7239,1334.7234,0,1,left,0,1334.7236,1334.7236,1334.7251,1336.2245,0,38,38,38,1,0.8,0.2,0.8,0.2,,,,,,,,,,,,,,,0.5899,,0.6,0.4,0.2,0.8,0.4,0.6,0.6,0.4,,,0.4844,,0.2,0.8,0.6,0.4,0.8,0.2,0.8,0.2,1,0
,,612520bd6605794b27e6a0fd,66fc9797e42fae7a97d1f072,2024-10-02_01h45.39.324,mdp,2024.2.1,Win32,59.88023952,66fa4ebf79326e780c390304,,,,,,,,,,,,,,,,,,,,,1336.2251,1336.2252,1336.2267,1337.2923,0,0,left,0.5346,,1337.294,1338.4598,1,1,right,1338.4609,1339.5277,0,1,left,0,1339.5278,1339.5278,1339.5293,1341.0288,0,39,39,39,1,0.8,0.2,0.8,0.2,,,,,,,,,,,,,,,0.6356,,0.6,0.4,0.2,0.8,0.4,0.6,0.6,0.4,,,0.5516,,0.2,0.8,0.6,0.4,0.8,0.2,0.8,0.2,1,0
,,612520bd6605794b27e6a0fd,66fc9797e42fae7a97d1f072,2024-10-02_01h45.39.324,mdp,2024.2.1,Win32,59.88023952,66fa4ebf79326e780c390304,,,,,,,,,,,,,,,,,,,,,1341.0294,1341.0295,1341.0309,1342.4133,0,0,left,0.8533,,1342.4143,1343.4808,0,0,left,1343.4819,1345.1992,0,1,left,0,1345.1993,1345.1993,1345.2008,1346.7002,0,40,40,40,1,0.8,0.2,0.8,0.2,,,,,,,,,,,,,,,0.551,,0.6,0.4,0.2,0.8,0.4,0.6,0.6,0.4,,,1.2066,,0.2,0.8,0.6,0.4,0.8,0.2,0.8,0.2,1,0
,,612520bd6605794b27e6a0fd,66fc9797e42fae7a97d1f072,2024-10-02_01h45.39.324,mdp,2024.2.1,Win32,59.88023952,66fa4ebf79326e780c390304,,,,,,,,,,,,,,,,,,,,,1346.7009,1346.7009,1346.7024,1347.7514,0,0,left,0.5181,,1347.7528,1348.9691,1,1,right,1348.9707,1350.1201,0,0,left,1,1350.1202,1350.1202,1350.1217,1351.6212,0,41,41,41,1,0.8,0.2,0.8,0.2,,,,,,,,,,,,,,,0.7075,,0.6,0.4,0.2,0.8,0.4,0.6,0.6,0.4,,,0.6388,,0.2,0.8,0.6,0.4,0.8,0.2,0.8,0.2,1,0
,,612520bd6605794b27e6a0fd,66fc9797e42fae7a97d1f072,2024-10-02_01h45.39.324,mdp,2024.2.1,Win32,59.88023952,66fa4ebf79326e780c390304,,,,,,,,,,,,,,,,,,,,,1351.6218,1351.6218,1351.6234,1352.9393,0,0,left,0.7848,,1352.9407,1354.0069,1,1,right,1354.0084,1355.1244,0,0,left,1,1355.1246,1355.1246,1355.126,1356.6255,0,42,42,42,1,0.8,0.2,0.8,0.2,,,,,,,,,,,,,,,0.5599,,0.6,0.4,0.2,0.8,0.4,0.6,0.6,0.4,,,0.5871,,0.2,0.8,0.6,0.4,0.8,0.2,0.8,0.2,1,0
,,612520bd6605794b27e6a0fd,66fc9797e42fae7a97d1f072,2024-10-02_01h45.39.324,mdp,2024.2.1,Win32,59.88023952,66fa4ebf79326e780c390304,,,,,,,,,,,,,,,,,,,,,1356.6261,1356.6262,1356.6285,1357.8767,0,1,left,0.7209,,1357.8784,1359.0112,1,1,right,1359.0128,1360.1289,0,1,left,0,1360.129,1360.129,1360.1305,1361.6299,0,43,43,43,1,0.8,0.2,0.8,0.2,,,,,,,,,,,,,,,0.619,,0.2,0.8,0.4,0.6,0.4,0.6,0.6,0.4,,,0.6076,,0.2,0.8,0.6,0.4,0.8,0.2,0.8,0.2,1,0
,,612520bd6605794b27e6a0fd,66fc9797e42fae7a97d1f072,2024-10-02_01h45.39.324,mdp,2024.2.1,Win32,59.88023952,66fa4ebf79326e780c390304,,,,,,,,,,,,,,,,,,,,,1361.6305,1361.6305,1361.632,1362.8812,0,0,left,0.7186,,1362.8828,1364.0154,1,1,right,1364.017,1365.1164,0,0,left,1,1365.1166,1365.1166,1365.118,1366.6174,0,44,44,44,1,0.4,0.6,0.6,0.4,,,,,,,,,,,,,,,0.6054,,0.2,0.8,0.4,0.6,0.4,0.6,0.6,0.4,,,0.5876,,0.2,0.8,0.6,0.4,0.8,0.2,0.8,0.2,1,0
,,612520bd6605794b27e6a0fd,66fc9797e42fae7a97d1f072,2024-10-02_01h45.39.324,mdp,2024.2.1,Win32,59.88023952,66fa4ebf79326e780c390304,,,,,,,,,,,,,,,,,,,,,1366.6179,1366.6179,1366.6187,1367.7186,0,0,left,0.5663,,1367.7202,1369.0198,1,1,right,1369.0214,1370.0374,0,0,left,1,1370.0374,1370.0374,1370.039,1371.5385,0,45,45,45,1,0.8,0.2,0.8,0.2,,,,,,,,,,,,,,,0.7847,,0.2,0.8,0.4,0.6,0.4,0.6,0.6,0.4,,,0.5037,,0.2,0.8,0.6,0.4,0.8,0.2,0.8,0.2,1,0
,,612520bd6605794b27e6a0fd,66fc9797e42fae7a97d1f072,2024-10-02_01h45.39.324,mdp,2024.2.1,Win32,59.88023952,66fa4ebf79326e780c390304,,,,,,,,,,,,,,,,,,,,,1371.539,1371.5391,1371.5406,1372.6397,0,0,left,0.5753,,1372.6412,1373.7405,1,0,right,1373.742,1375.1253,1,0,right,1,1375.1253,1375.1254,1375.1268,1376.6261,0,46,46,46,1,0.8,0.2,0.8,0.2,,,,,,,,,,,,,,,0.587,,0.2,0.8,0.4,0.6,0.4,0.6,0.6,0.4,,,0.8676,,0.2,0.8,0.6,0.4,0.8,0.2,0.8,0.2,1,0
,,612520bd6605794b27e6a0fd,66fc9797e42fae7a97d1f072,2024-10-02_01h45.39.324,mdp,2024.2.1,Win32,59.88023952,66fa4ebf79326e780c390304,,,,,,,,,,,,,,,,,,,,,1376.6267,1376.6267,1376.6281,1377.744,0,0,left,0.5846,,1377.7456,1378.9118,1,1,right,1378.9134,1380.0293,0,0,left,1,1380.0294,1380.0294,1380.0309,1381.5304,0,47,47,47,1,0.8,0.2,0.8,0.2,,,,,,,,,,,,,,,0.6514,,0.2,0.8,0.4,0.6,0.6,0.4,0.4,0.6,,,0.5839,,0.2,0.8,0.6,0.4,0.8,0.2,0.8,0.2,1,0
,,612520bd6605794b27e6a0fd,66fc9797e42fae7a97d1f072,2024-10-02_01h45.39.324,mdp,2024.2.1,Win32,59.88023952,66fa4ebf79326e780c390304,,,,,,,,,,,,,,,,,,,,,1381.531,1381.531,1381.5325,1382.6317,0,0,left,0.5678,,1382.6332,1383.6491,1,1,right,1383.6507,1384.7834,0,0,left,1,1384.7836,1384.7836,1384.7851,1386.2845,0,48,48,48,1,0.8,0.2,0.8,0.2,,,,,,,,,,,,,,,0.507,,0.2,0.8,0.4,0.6,0.6,0.4,0.4,0.6,,,0.6174,,0.2,0.8,0.6,0.4,0.8,0.2,0.8,0.2,1,0
,,612520bd6605794b27e6a0fd,66fc9797e42fae7a97d1f072,2024-10-02_01h45.39.324,mdp,2024.2.1,Win32,59.88023952,66fa4ebf79326e780c390304,,,,,,,,,,,,,,,,,,,,,1386.2851,1386.2851,1386.2866,1387.4524,0,0,left,0.6372,,1387.4539,1388.4867,1,1,right,1388.4883,1389.5208,0,1,left,0,1389.5209,1389.5209,1389.5224,1391.0219,0,49,49,49,1,0.8,0.2,0.8,0.2,,,,,,,,,,,,,,,0.5184,,0.2,0.8,0.4,0.6,0.6,0.4,0.4,0.6,,,0.5012,,0.6,0.4,0.2,0.8,0.8,0.2,0.8,0.2,1,0
,,612520bd6605794b27e6a0fd,66fc9797e42fae7a97d1f072,2024-10-02_01h45.39.324,mdp,2024.2.1,Win32,59.88023952,66fa4ebf79326e780c390304,,,,,,,,,,,,,,,,,,,,,,,,,,,,,,,,,,,,,,,,,,,,,,,,,,,,,,,,1391.0221,1449.5227,0,3,3,1,1,imgs/kangaroo.png,imgs/lion.png,imgs/giraffe.png,imgs/pig.png,imgs/rabbit.png,,,,,,,,,,,,,,,,,,,,,,,,
,,612520bd6605794b27e6a0fd,66fc9797e42fae7a97d1f072,2024-10-02_01h45.39.324,mdp,2024.2.1,Win32,59.88023952,66fa4ebf79326e780c390304,,,,,,,,,,,,,,1,seqs/st1seq10.csv,1449.5245,1454.5271,space,4.479,,1454.5312,1454.5312,1454.5323,1455.9448,0,1,left,0.8867,,1455.9458,1455.9464,1,1,,1455.9469,1455.9472,0,1,,0,1455.9473,1455.9473,1455.9476,1457.4461,0,0,0,0,1,0.2,0.8,0.8,0.2,1,0,,,,,,,,,,,,,,,,,,,,,,,,,,,,,,,,,,,,
,,612520bd6605794b27e6a0fd,66fc9797e42fae7a97d1f072,2024-10-02_01h45.39.324,mdp,2024.2.1,Win32,59.88023952,66fa4ebf79326e780c390304,,,,,,,,,,,,,,,,,,,,,1457.4466,1457.4467,1457.4481,1458.5307,1,0,right,0.5547,,1458.5324,1458.5331,1,1,,1458.5339,1458.5345,0,0,,1,1458.5345,1458.5345,1458.5351,1460.0317,0,1,1,1,1,0.2,0.8,0.8,0.2,1,0,,,,,,,,,,,,,,,,,,,,,,,,,,,,,,,,,,,,
,,612520bd6605794b27e6a0fd,66fc9797e42fae7a97d1f072,2024-10-02_01h45.39.324,mdp,2024.2.1,Win32,59.88023952,66fa4ebf79326e780c390304,,,,,,,,,,,,,,,,,,,,,1460.0321,1460.0321,1460.0338,1461.0661,1,1,right,0.5011,,1461.0676,1461.0684,1,1,,1461.0692,1461.0698,0,0,,0,1461.0699,1461.0699,1461.0704,1462.5672,0,2,2,2,1,0.2,0.8,0.8,0.2,1,0,,,,,,,,,,,,,,,,,,,,,,,,,,,,,,,,,,,,
,,612520bd6605794b27e6a0fd,66fc9797e42fae7a97d1f072,2024-10-02_01h45.39.324,mdp,2024.2.1,Win32,59.88023952,66fa4ebf79326e780c390304,,,,,,,,,,,,,,,,,,,,,1462.5677,1462.5677,1462.5693,1463.5017,1,0,right,0.4009,,1463.5034,1463.5046,1,0,,1463.5054,1463.506,0,0,,1,1463.506,1463.5061,1463.5067,1465.0027,0,3,3,3,1,0.2,0.8,0.8,0.2,1,0,,,,,,,,,,,,,,,,,,,,,,,,,,,,,,,,,,,,
,,612520bd6605794b27e6a0fd,66fc9797e42fae7a97d1f072,2024-10-02_01h45.39.324,mdp,2024.2.1,Win32,59.88023952,66fa4ebf79326e780c390304,,,,,,,,,,,,,,,,,,,,,1465.0031,1465.0031,1465.0046,1465.8708,0,1,left,0.3432,,1465.8721,1465.8728,1,1,,1465.8735,1465.8741,0,1,,0,1465.8741,1465.8741,1465.8747,1467.3714,0,4,4,4,1,0.2,0.8,0.8,0.2,1,0,,,,,,,,,,,,,,,,,,,,,,,,,,,,,,,,,,,,
,,612520bd6605794b27e6a0fd,66fc9797e42fae7a97d1f072,2024-10-02_01h45.39.324,mdp,2024.2.1,Win32,59.88023952,66fa4ebf79326e780c390304,,,,,,,,,,,,,,,,,,,,,1467.3719,1467.3719,1467.3734,1468.2224,1,0,right,0.3176,,1468.2241,1468.225,1,0,,1468.2261,1468.2266,0,0,,1,1468.2267,1468.2267,1468.2273,1469.7234,0,5,5,5,1,0.2,0.8,0.8,0.2,1,0,,,,,,,,,,,,,,,,,,,,,,,,,,,,,,,,,,,,
,,612520bd6605794b27e6a0fd,66fc9797e42fae7a97d1f072,2024-10-02_01h45.39.324,mdp,2024.2.1,Win32,59.88023952,66fa4ebf79326e780c390304,,,,,,,,,,,,,,,,,,,,,1469.7238,1469.7238,1469.7254,1470.5581,1,0,right,0.3098,,1470.5595,1470.5602,1,1,,1470.561,1470.5616,0,0,,1,1470.5616,1470.5616,1470.5622,1472.0588,0,6,6,6,1,0.2,0.8,0.8,0.2,1,0,,,,,,,,,,,,,,,,,,,,,,,,,,,,,,,,,,,,
,,612520bd6605794b27e6a0fd,66fc9797e42fae7a97d1f072,2024-10-02_01h45.39.324,mdp,2024.2.1,Win32,59.88023952,66fa4ebf79326e780c390304,,,,,,,,,,,,,,,,,,,,,1472.0592,1472.0592,1472.0607,1473.2099,1,1,right,0.6178,,1473.2115,1473.2124,1,0,,1473.2133,1473.2138,0,0,,0,1473.2139,1473.2139,1473.2146,1474.7112,0,7,7,7,1,0.2,0.8,0.8,0.2,1,0,,,,,,,,,,,,,,,,,,,,,,,,,,,,,,,,,,,,
,,612520bd6605794b27e6a0fd,66fc9797e42fae7a97d1f072,2024-10-02_01h45.39.324,mdp,2024.2.1,Win32,59.88023952,66fa4ebf79326e780c390304,,,,,,,,,,,,,,,,,,,,,1474.7116,1474.7116,1474.7132,1475.645,1,0,right,0.4094,,1475.6458,1475.6464,1,1,,1475.6469,1475.6472,0,1,,1,1475.6472,1475.6472,1475.6476,1477.1464,0,8,8,8,1,0.2,0.8,0.8,0.2,1,0,,,,,,,,,,,,,,,,,,,,,,,,,,,,,,,,,,,,
,,612520bd6605794b27e6a0fd,66fc9797e42fae7a97d1f072,2024-10-02_01h45.39.324,mdp,2024.2.1,Win32,59.88023952,66fa4ebf79326e780c390304,,,,,,,,,,,,,,,,,,,,,1477.1467,1477.1468,1477.1477,1478.114,1,0,right,0.4383,,1478.1149,1478.1155,1,0,,1478.1159,1478.1164,0,0,,1,1478.1164,1478.1164,1478.1167,1479.6151,0,9,9,9,1,0.2,0.8,0.8,0.2,1,0,,,,,,,,,,,,,,,,,,,,,,,,,,,,,,,,,,,,
,,612520bd6605794b27e6a0fd,66fc9797e42fae7a97d1f072,2024-10-02_01h45.39.324,mdp,2024.2.1,Win32,59.88023952,66fa4ebf79326e780c390304,,,,,,,,,,,,,,,,,,,,,1479.6154,1479.6155,1479.6164,1480.5162,1,1,right,0.3842,,1480.5171,1480.5176,1,0,,1480.5181,1480.5184,0,1,,0,1480.5184,1480.5184,1480.5187,1482.0174,0,10,10,10,1,0.6,0.4,0.4,0.6,1,0,,,,,,,,,,,,,,,,,,,,,,,,,,,,,,,,,,,,
,,612520bd6605794b27e6a0fd,66fc9797e42fae7a97d1f072,2024-10-02_01h45.39.324,mdp,2024.2.1,Win32,59.88023952,66fa4ebf79326e780c390304,,,,,,,,,,,,,,,,,,,,,1482.0179,1482.0179,1482.0194,1482.9685,1,0,right,0.4248,,1482.9702,1482.9709,1,1,,1482.9716,1482.9722,0,0,,1,1482.9722,1482.9722,1482.9728,1484.4695,0,11,11,11,1,0.6,0.4,0.4,0.6,1,0,,,,,,,,,,,,,,,,,,,,,,,,,,,,,,,,,,,,
,,612520bd6605794b27e6a0fd,66fc9797e42fae7a97d1f072,2024-10-02_01h45.39.324,mdp,2024.2.1,Win32,59.88023952,66fa4ebf79326e780c390304,,,,,,,,,,,,,,,,,,,,,1484.4698,1484.4699,1484.4715,1485.2869,1,1,right,0.283,,1485.2879,1485.2883,1,0,,1485.2888,1485.2893,0,1,,0,1485.2893,1485.2893,1485.2897,1486.788,0,12,12,12,1,0.6,0.4,0.4,0.6,1,0,,,,,,,,,,,,,,,,,,,,,,,,,,,,,,,,,,,,
,,612520bd6605794b27e6a0fd,66fc9797e42fae7a97d1f072,2024-10-02_01h45.39.324,mdp,2024.2.1,Win32,59.88023952,66fa4ebf79326e780c390304,,,,,,,,,,,,,,,,,,,,,1486.7883,1486.7883,1486.7892,1487.6391,1,1,right,0.3423,,1487.6406,1487.6414,1,0,,1487.6425,1487.6431,0,1,,0,1487.6431,1487.6432,1487.6437,1489.1401,0,13,13,13,1,0.6,0.4,0.4,0.6,1,0,,,,,,,,,,,,,,,,,,,,,,,,,,,,,,,,,,,,
,,612520bd6605794b27e6a0fd,66fc9797e42fae7a97d1f072,2024-10-02_01h45.39.324,mdp,2024.2.1,Win32,59.88023952,66fa4ebf79326e780c390304,,,,,,,,,,,,,,,,,,,,,1489.1406,1489.1406,1489.1423,1490.2413,1,0,right,0.5678,,1490.2427,1490.2437,1,1,,1490.2447,1490.2452,0,0,,1,1490.2453,1490.2453,1490.2459,1491.7424,0,14,14,14,1,0.6,0.4,0.4,0.6,1,0,,,,,,,,,,,,,,,,,,,,,,,,,,,,,,,,,,,,
,,612520bd6605794b27e6a0fd,66fc9797e42fae7a97d1f072,2024-10-02_01h45.39.324,mdp,2024.2.1,Win32,59.88023952,66fa4ebf79326e780c390304,,,,,,,,,,,,,,,,,,,,,1491.7429,1491.7429,1491.7445,1492.7937,1,1,right,0.5182,,1492.7951,1492.7959,1,1,,1492.7968,1492.7972,0,1,,0,1492.7973,1492.7973,1492.798,1494.2945,0,15,15,15,1,0.6,0.4,0.4,0.6,1,0,,,,,,,,,,,,,,,,,,,,,,,,,,,,,,,,,,,,
,,612520bd6605794b27e6a0fd,66fc9797e42fae7a97d1f072,2024-10-02_01h45.39.324,mdp,2024.2.1,Win32,59.88023952,66fa4ebf79326e780c390304,,,,,,,,,,,,,,,,,,,,,1494.2951,1494.2951,1494.2966,1495.3291,1,0,right,0.5034,,1495.3308,1495.3314,1,1,,1495.3323,1495.3329,0,0,,1,1495.3329,1495.3329,1495.3335,1496.8302,0,16,16,16,1,0.6,0.4,0.4,0.6,1,0,,,,,,,,,,,,,,,,,,,,,,,,,,,,,,,,,,,,
,,612520bd6605794b27e6a0fd,66fc9797e42fae7a97d1f072,2024-10-02_01h45.39.324,mdp,2024.2.1,Win32,59.88023952,66fa4ebf79326e780c390304,,,,,,,,,,,,,,,,,,,,,1496.8307,1496.8307,1496.8321,1497.7145,0,0,left,0.351,,1497.7161,1497.7169,1,0,,1497.7178,1497.7183,0,1,,1,1497.7183,1497.7183,1497.7189,1499.2156,0,17,17,17,1,0.6,0.4,0.4,0.6,1,0,,,,,,,,,,,,,,,,,,,,,,,,,,,,,,,,,,,,
,,612520bd6605794b27e6a0fd,66fc9797e42fae7a97d1f072,2024-10-02_01h45.39.324,mdp,2024.2.1,Win32,59.88023952,66fa4ebf79326e780c390304,,,,,,,,,,,,,,,,,,,,,1499.2161,1499.2161,1499.2177,1500.1834,1,0,right,0.4344,,1500.185,1500.1858,1,1,,1500.1867,1500.1873,0,1,,1,1500.1873,1500.1873,1500.188,1501.6844,0,18,18,18,1,0.6,0.4,0.4,0.6,1,0,,,,,,,,,,,,,,,,,,,,,,,,,,,,,,,,,,,,
,,612520bd6605794b27e6a0fd,66fc9797e42fae7a97d1f072,2024-10-02_01h45.39.324,mdp,2024.2.1,Win32,59.88023952,66fa4ebf79326e780c390304,,,,,,,,,,,,,,,,,,,,,1501.6849,1501.6849,1501.6864,1502.8188,0,0,left,0.6045,,1502.8202,1502.8211,1,0,,1502.8219,1502.8225,0,0,,1,1502.8226,1502.8226,1502.8231,1504.3199,0,19,19,19,1,0.6,0.4,0.4,0.6,1,0,,,,,,,,,,,,,,,,,,,,,,,,,,,,,,,,,,,,
,,612520bd6605794b27e6a0fd,66fc9797e42fae7a97d1f072,2024-10-02_01h45.39.324,mdp,2024.2.1,Win32,59.88023952,66fa4ebf79326e780c390304,,,,,,,,,,,,,,,,,,,,,1504.3204,1504.3204,1504.3221,1505.5545,1,0,right,0.7005,,1505.5554,1505.5561,1,0,,1505.5567,1505.557,0,1,,1,1505.557,1505.557,1505.5574,1507.0557,0,20,20,20,1,0.6,0.4,0.4,0.6,1,0,,,,,,,,,,,,,,,,,,,,,,,,,,,,,,,,,,,,
,,612520bd6605794b27e6a0fd,66fc9797e42fae7a97d1f072,2024-10-02_01h45.39.324,mdp,2024.2.1,Win32,59.88023952,66fa4ebf79326e780c390304,,,,,,,,,,,,,,,,,,,,,1507.0561,1507.0561,1507.0579,1508.1904,0,1,left,0.609,,1508.1919,1508.1927,1,1,,1508.1935,1508.1941,0,0,,0,1508.1941,1508.1941,1508.1949,1509.6912,0,21,21,21,1,0.6,0.4,0.4,0.6,1,0,,,,,,,,,,,,,,,,,,,,,,,,,,,,,,,,,,,,
,,612520bd6605794b27e6a0fd,66fc9797e42fae7a97d1f072,2024-10-02_01h45.39.324,mdp,2024.2.1,Win32,59.88023952,66fa4ebf79326e780c390304,,,,,,,,,,,,,,,,,,,,,1509.6915,1509.6915,1509.6924,1510.8593,0,0,left,0.6512,,1510.8609,1510.8617,1,0,,1510.8625,1510.8631,0,0,,1,1510.8631,1510.8631,1510.8636,1512.3604,0,22,22,22,1,0.8,0.2,0.6,0.4,1,0,,,,,,,,,,,,,,,,,,,,,,,,,,,,,,,,,,,,
,,612520bd6605794b27e6a0fd,66fc9797e42fae7a97d1f072,2024-10-02_01h45.39.324,mdp,2024.2.1,Win32,59.88023952,66fa4ebf79326e780c390304,,,,,,,,,,,,,,,,,,,,,1512.3609,1512.3609,1512.3625,1513.3614,1,0,right,0.4677,,1513.3628,1513.364,1,0,,1513.365,1513.3655,0,0,,1,1513.3656,1513.3656,1513.3662,1514.8625,0,23,23,23,1,0.4,0.6,0.8,0.2,1,0,,,,,,,,,,,,,,,,,,,,,,,,,,,,,,,,,,,,
,,612520bd6605794b27e6a0fd,66fc9797e42fae7a97d1f072,2024-10-02_01h45.39.324,mdp,2024.2.1,Win32,59.88023952,66fa4ebf79326e780c390304,,,,,,,,,,,,,,,,,,,,,1514.8629,1514.863,1514.8645,1515.9303,0,0,left,0.5381,,1515.932,1515.9329,1,1,,1515.9339,1515.9345,0,1,,1,1515.9345,1515.9345,1515.9351,1517.4314,0,24,24,24,1,0.4,0.6,0.8,0.2,1,0,,,,,,,,,,,,,,,,,,,,,,,,,,,,,,,,,,,,
,,612520bd6605794b27e6a0fd,66fc9797e42fae7a97d1f072,2024-10-02_01h45.39.324,mdp,2024.2.1,Win32,59.88023952,66fa4ebf79326e780c390304,,,,,,,,,,,,,,,,,,,,,1517.4319,1517.4319,1517.4335,1518.5826,1,1,right,0.6172,,1518.5842,1518.5849,1,0,,1518.5858,1518.5863,0,0,,0,1518.5863,1518.5864,1518.5869,1520.0836,0,25,25,25,1,0.4,0.6,0.8,0.2,1,0,,,,,,,,,,,,,,,,,,,,,,,,,,,,,,,,,,,,
,,612520bd6605794b27e6a0fd,66fc9797e42fae7a97d1f072,2024-10-02_01h45.39.324,mdp,2024.2.1,Win32,59.88023952,66fa4ebf79326e780c390304,,,,,,,,,,,,,,,,,,,,,1520.084,1520.0841,1520.0856,1521.1515,1,0,right,0.5339,,1521.1531,1521.154,1,0,,1521.1548,1521.1553,0,1,,1,1521.1553,1521.1553,1521.156,1522.6525,0,26,26,26,1,0.4,0.6,0.8,0.2,1,0,,,,,,,,,,,,,,,,,,,,,,,,,,,,,,,,,,,,
,,612520bd6605794b27e6a0fd,66fc9797e42fae7a97d1f072,2024-10-02_01h45.39.324,mdp,2024.2.1,Win32,59.88023952,66fa4ebf79326e780c390304,,,,,,,,,,,,,,,,,,,,,1522.6532,1522.6532,1522.6546,1523.8871,0,0,left,0.7081,,1523.8887,1523.8894,1,0,,1523.8903,1523.8908,0,0,,1,1523.8908,1523.8909,1523.8915,1525.3882,0,27,27,27,1,0.4,0.6,0.8,0.2,1,0,,,,,,,,,,,,,,,,,,,,,,,,,,,,,,,,,,,,
,,612520bd6605794b27e6a0fd,66fc9797e42fae7a97d1f072,2024-10-02_01h45.39.324,mdp,2024.2.1,Win32,59.88023952,66fa4ebf79326e780c390304,,,,,,,,,,,,,,,,,,,,,1525.3885,1525.3885,1525.3895,1526.5896,1,0,right,0.6686,,1526.5911,1526.5922,1,0,,1526.5931,1526.5937,0,0,,1,1526.5937,1526.5937,1526.5943,1528.0907,0,28,28,28,1,0.4,0.6,0.8,0.2,1,0,,,,,,,,,,,,,,,,,,,,,,,,,,,,,,,,,,,,
,,612520bd6605794b27e6a0fd,66fc9797e42fae7a97d1f072,2024-10-02_01h45.39.324,mdp,2024.2.1,Win32,59.88023952,66fa4ebf79326e780c390304,,,,,,,,,,,,,,,,,,,,,1528.091,1528.091,1528.0926,1529.2418,0,1,left,0.6182,,1529.2433,1529.2441,1,0,,1529.2452,1529.2459,0,1,,0,1529.2459,1529.2459,1529.2465,1530.7429,0,29,29,29,1,0.4,0.6,0.8,0.2,1,0,,,,,,,,,,,,,,,,,,,,,,,,,,,,,,,,,,,,
,,612520bd6605794b27e6a0fd,66fc9797e42fae7a97d1f072,2024-10-02_01h45.39.324,mdp,2024.2.1,Win32,59.88023952,66fa4ebf79326e780c390304,,,,,,,,,,,,,,,,,,,,,1530.7434,1530.7434,1530.7448,1531.8605,0,0,left,0.5852,,1531.8616,1531.8622,1,1,,1531.8629,1531.8634,0,1,,1,1531.8634,1531.8634,1531.8638,1533.3618,0,30,30,30,1,0.4,0.6,0.8,0.2,1,0,,,,,,,,,,,,,,,,,,,,,,,,,,,,,,,,,,,,
,,612520bd6605794b27e6a0fd,66fc9797e42fae7a97d1f072,2024-10-02_01h45.39.324,mdp,2024.2.1,Win32,59.88023952,66fa4ebf79326e780c390304,,,,,,,,,,,,,,,,,,,,,1533.3623,1533.3623,1533.3639,1534.7132,1,0,right,0.8191,,1534.7145,1534.7155,1,0,,1534.7167,1534.7173,0,0,,1,1534.7174,1534.7174,1534.718,1536.2143,0,31,31,31,1,0.4,0.6,0.8,0.2,1,0,,,,,,,,,,,,,,,,,,,,,,,,,,,,,,,,,,,,
,,612520bd6605794b27e6a0fd,66fc9797e42fae7a97d1f072,2024-10-02_01h45.39.324,mdp,2024.2.1,Win32,59.88023952,66fa4ebf79326e780c390304,,,,,,,,,,,,,,,,,,,,,1536.2148,1536.2148,1536.2164,1537.4823,0,1,left,0.7347,,1537.4839,1537.485,1,1,,1537.4859,1537.4865,0,1,,0,1537.4865,1537.4865,1537.4871,1538.9834,0,32,32,32,1,0.4,0.6,0.8,0.2,1,0,,,,,,,,,,,,,,,,,,,,,,,,,,,,,,,,,,,,
,,612520bd6605794b27e6a0fd,66fc9797e42fae7a97d1f072,2024-10-02_01h45.39.324,mdp,2024.2.1,Win32,59.88023952,66fa4ebf79326e780c390304,,,,,,,,,,,,,,,,,,,,,1538.9838,1538.9838,1538.9853,1540.0845,0,1,left,0.568,,1540.0859,1540.0868,1,0,,1540.0876,1540.0881,0,1,,0,1540.0881,1540.0881,1540.0887,1541.5855,0,33,33,33,1,0.4,0.6,0.8,0.2,1,0,,,,,,,,,,,,,,,,,,,,,,,,,,,,,,,,,,,,
,,612520bd6605794b27e6a0fd,66fc9797e42fae7a97d1f072,2024-10-02_01h45.39.324,mdp,2024.2.1,Win32,59.88023952,66fa4ebf79326e780c390304,,,,,,,,,,,,,,,,,,,,,1541.5861,1541.5861,1541.5878,1542.7369,0,1,left,0.6226,,1542.7384,1542.7391,1,1,,1542.7403,1542.7409,0,1,,0,1542.7409,1542.7409,1542.7415,1544.238,0,34,34,34,1,0.4,0.6,0.8,0.2,1,0,,,,,,,,,,,,,,,,,,,,,,,,,,,,,,,,,,,,
,,612520bd6605794b27e6a0fd,66fc9797e42fae7a97d1f072,2024-10-02_01h45.39.324,mdp,2024.2.1,Win32,59.88023952,66fa4ebf79326e780c390304,,,,,,,,,,,,,,,,,,,,,1544.2384,1544.2384,1544.2399,1545.2724,1,0,right,0.5068,,1545.2739,1545.2746,1,1,,1545.2758,1545.2763,0,0,,1,1545.2764,1545.2764,1545.2771,1546.7732,0,35,35,35,1,0.4,0.6,0.8,0.2,1,0,,,,,,,,,,,,,,,,,,,,,,,,,,,,,,,,,,,,
,,612520bd6605794b27e6a0fd,66fc9797e42fae7a97d1f072,2024-10-02_01h45.39.324,mdp,2024.2.1,Win32,59.88023952,66fa4ebf79326e780c390304,,,,,,,,,,,,,,,,,,,,,1546.7736,1546.7736,1546.7746,1547.8079,1,1,right,0.5069,,1547.8095,1547.8102,1,0,,1547.8114,1547.8119,0,1,,0,1547.812,1547.8121,1547.8126,1549.309,0,36,36,36,1,0.4,0.6,0.8,0.2,1,0,,,,,,,,,,,,,,,,,,,,,,,,,,,,,,,,,,,,
,,612520bd6605794b27e6a0fd,66fc9797e42fae7a97d1f072,2024-10-02_01h45.39.324,mdp,2024.2.1,Win32,59.88023952,66fa4ebf79326e780c390304,,,,,,,,,,,,,,,,,,,,,1549.3095,1549.3095,1549.311,1550.3934,1,1,right,0.5553,,1550.3949,1550.3958,1,0,,1550.3966,1550.3972,0,0,,0,1550.3972,1550.3972,1550.3978,1551.8944,0,37,37,37,1,0.4,0.6,0.8,0.2,1,0,,,,,,,,,,,,,,,,,,,,,,,,,,,,,,,,,,,,
,,612520bd6605794b27e6a0fd,66fc9797e42fae7a97d1f072,2024-10-02_01h45.39.324,mdp,2024.2.1,Win32,59.88023952,66fa4ebf79326e780c390304,,,,,,,,,,,,,,,,,,,,,1551.8947,1551.8947,1551.8957,1552.9456,1,0,right,0.5387,,1552.9472,1552.9481,1,1,,1552.9489,1552.9494,0,0,,1,1552.9495,1552.9495,1552.95,1554.4467,0,38,38,38,1,0.4,0.6,0.8,0.2,1,0,,,,,,,,,,,,,,,,,,,,,,,,,,,,,,,,,,,,
,,612520bd6605794b27e6a0fd,66fc9797e42fae7a97d1f072,2024-10-02_01h45.39.324,mdp,2024.2.1,Win32,59.88023952,66fa4ebf79326e780c390304,,,,,,,,,,,,,,,,,,,,,1554.4472,1554.4472,1554.4487,1555.4811,0,1,left,0.501,,1555.4826,1555.4835,1,1,,1555.4846,1555.4852,0,1,,0,1555.4852,1555.4852,1555.4858,1556.9823,0,39,39,39,1,0.4,0.6,0.8,0.2,1,0,,,,,,,,,,,,,,,,,,,,,,,,,,,,,,,,,,,,
