init_exp.started,init_exp.stopped,participant,session,date,expName,psychopyVersion,OS,frameRate,study_id,disp_instruction.started,disp_instruction.stopped,instruction.thisRepN,instruction.thisTrialN,instruction.thisN,instruction.thisIndex,instruction.ran,instimg_path,consent.started,consent.stopped,key_resp_3.keys,key_resp_3.rt,key_resp_3.duration,n_steps,sequence_path,init_block.started,init_block.stopped,key_resp.keys,key_resp.rt,key_resp.duration,init_trials.started,init_trials.stopped,step0.started,step0.stopped,act0,s1,res0.keys,res0.rt,res0.duration,step1.started,step1.stopped,act1,s2,res1.keys,step2.started,step2.stopped,act2,s3,res2.keys,rew,reward_comp.started,reward_comp.stopped,reward_disp.started,reward_disp.stopped,trials.thisRepN,trials.thisTrialN,trials.thisN,trials.thisIndex,trials.ran,s00a0s10,s00a0s11,s00a1s10,s00a1s11,rew10,rew11,break_block.started,break_block.stopped,block.thisRepN,block.thisTrialN,block.thisN,block.thisIndex,block.ran,s00path,s10path,s11path,s20path,s21path,res1.rt,res1.duration,s10a0s20,s10a0s21,s10a1s20,s10a1s21,s11a0s20,s11a0s21,s11a1s20,s11a1s21,rew20,rew21,res2.rt,res2.duration,s20a0s30,s20a0s31,s20a1s30,s20a1s31,s21a0s30,s21a0s31,s21a1s30,s21a1s31,rew30,rew31
0.0002,0.0019,612512862963825fa66941bf,66fc97edc19adc597a67640e,2024-10-01_18h47.17.787,mdp,2024.2.1,Win32,60.97560976,66fa4ebf79326e780c390304,,,,,,,,,,,,,,,,,,,,,,,,,,,,,,,,,,,,,,,,,,,,,,,,,,,,,,,,,,,,,,,,,,,,,,,,,,,,,,,,,,,,,,,,,,,
,,612512862963825fa66941bf,66fc97edc19adc597a67640e,2024-10-01_18h47.17.787,mdp,2024.2.1,Win32,60.97560976,66fa4ebf79326e780c390304,0.0047,41.3433,0,0,0,0,1,rlnn_exp/rlnn_exp.001.png,,,,,,,,,,,,,,,,,,,,,,,,,,,,,,,,,,,,,,,,,,,,,,,,,,,,,,,,,,,,,,,,,,,,,,,,,,,,,,,,,,,
,,612512862963825fa66941bf,66fc97edc19adc597a67640e,2024-10-01_18h47.17.787,mdp,2024.2.1,Win32,60.97560976,66fa4ebf79326e780c390304,41.3438,101.579,0,1,1,1,1,rlnn_exp/rlnn_exp.002.png,,,,,,,,,,,,,,,,,,,,,,,,,,,,,,,,,,,,,,,,,,,,,,,,,,,,,,,,,,,,,,,,,,,,,,,,,,,,,,,,,,,
,,612512862963825fa66941bf,66fc97edc19adc597a67640e,2024-10-01_18h47.17.787,mdp,2024.2.1,Win32,60.97560976,66fa4ebf79326e780c390304,101.5795,130.7893,0,2,2,2,1,rlnn_exp/rlnn_exp.003.png,,,,,,,,,,,,,,,,,,,,,,,,,,,,,,,,,,,,,,,,,,,,,,,,,,,,,,,,,,,,,,,,,,,,,,,,,,,,,,,,,,,
,,612512862963825fa66941bf,66fc97edc19adc597a67640e,2024-10-01_18h47.17.787,mdp,2024.2.1,Win32,60.97560976,66fa4ebf79326e780c390304,130.7898,181.6986,0,3,3,3,1,rlnn_exp/rlnn_exp.004.png,,,,,,,,,,,,,,,,,,,,,,,,,,,,,,,,,,,,,,,,,,,,,,,,,,,,,,,,,,,,,,,,,,,,,,,,,,,,,,,,,,,
,,612512862963825fa66941bf,66fc97edc19adc597a67640e,2024-10-01_18h47.17.787,mdp,2024.2.1,Win32,60.97560976,66fa4ebf79326e780c390304,,,,,,,,,181.6989,218.1365,y,26.4184,,,,,,,,,,,,,,,,,,,,,,,,,,,,,,,,,,,,,,,,,,,,,,,,,,,,,,,,,,,,,,,,,,,,,,,,,,,,,,,
,,612512862963825fa66941bf,66fc97edc19adc597a67640e,2024-10-01_18h47.17.787,mdp,2024.2.1,Win32,60.97560976,66fa4ebf79326e780c390304,,,,,,,,,,,,,,1,seqs/st1seq37.csv,218.1398,220.2184,space,1.556,,220.2214,220.2215,220.2217,223.4828,0,1,left,2.7319,,223.4831,223.4846,,1,,223.4849,223.4857,,1,,0,223.4858,223.4859,223.4861,224.9813,0,0,0,0,1,0.2,0.8,0.6,0.4,1,0,,,,,,,,,,,,,,,,,,,,,,,,,,,,,,,,,,,,
,,612512862963825fa66941bf,66fc97edc19adc597a67640e,2024-10-01_18h47.17.787,mdp,2024.2.1,Win32,60.97560976,66fa4ebf79326e780c390304,,,,,,,,,,,,,,,,,,,,,224.9816,224.9816,224.9823,226.3803,1,0,right,0.871,,226.3813,226.382,,0,,226.3826,226.383,,1,,1,226.383,226.383,226.3834,227.8793,0,1,1,1,1,0.2,0.8,0.6,0.4,1,0,,,,,,,,,,,,,,,,,,,,,,,,,,,,,,,,,,,,
,,612512862963825fa66941bf,66fc97edc19adc597a67640e,2024-10-01_18h47.17.787,mdp,2024.2.1,Win32,60.97560976,66fa4ebf79326e780c390304,,,,,,,,,,,,,,,,,,,,,227.8797,227.8798,227.8807,229.1951,1,1,right,0.7905,,229.1963,229.1968,,0,,229.1976,229.198,,0,,0,229.198,229.198,229.1985,230.693,0,2,2,2,1,0.6,0.4,0.4,0.6,1,0,,,,,,,,,,,,,,,,,,,,,,,,,,,,,,,,,,,,
,,612512862963825fa66941bf,66fc97edc19adc597a67640e,2024-10-01_18h47.17.787,mdp,2024.2.1,Win32,60.97560976,66fa4ebf79326e780c390304,,,,,,,,,,,,,,,,,,,,,230.6934,230.6934,230.6945,231.9755,1,0,right,0.7607,,231.9764,231.9771,,1,,231.9776,231.9779,,1,,1,231.978,231.978,231.9784,233.4742,0,3,3,3,1,0.6,0.4,0.4,0.6,1,0,,,,,,,,,,,,,,,,,,,,,,,,,,,,,,,,,,,,
,,612512862963825fa66941bf,66fc97edc19adc597a67640e,2024-10-01_18h47.17.787,mdp,2024.2.1,Win32,60.97560976,66fa4ebf79326e780c390304,,,,,,,,,,,,,,,,,,,,,233.4745,233.4745,233.4753,234.9902,0,0,left,0.9826,,234.9912,234.9916,,1,,234.9921,234.9926,,0,,1,234.9926,234.9926,234.9929,236.4889,0,4,4,4,1,0.6,0.4,0.4,0.6,1,0,,,,,,,,,,,,,,,,,,,,,,,,,,,,,,,,,,,,
,,612512862963825fa66941bf,66fc97edc19adc597a67640e,2024-10-01_18h47.17.787,mdp,2024.2.1,Win32,60.97560976,66fa4ebf79326e780c390304,,,,,,,,,,,,,,,,,,,,,236.4891,236.4891,236.49,237.5213,1,0,right,0.4997,,237.5222,237.5227,,0,,237.5233,237.5238,,1,,1,237.5238,237.5238,237.5241,239.02,0,5,5,5,1,0.6,0.4,0.4,0.6,1,0,,,,,,,,,,,,,,,,,,,,,,,,,,,,,,,,,,,,
,,612512862963825fa66941bf,66fc97edc19adc597a67640e,2024-10-01_18h47.17.787,mdp,2024.2.1,Win32,60.97560976,66fa4ebf79326e780c390304,,,,,,,,,,,,,,,,,,,,,239.0204,239.0204,239.0213,239.9528,0,0,left,0.4007,,239.9535,239.954,,0,,239.9547,239.9552,,0,,1,239.9552,239.9552,239.9556,241.4516,0,6,6,6,1,0.6,0.4,0.4,0.6,1,0,,,,,,,,,,,,,,,,,,,,,,,,,,,,,,,,,,,,
,,612512862963825fa66941bf,66fc97edc19adc597a67640e,2024-10-01_18h47.17.787,mdp,2024.2.1,Win32,60.97560976,66fa4ebf79326e780c390304,,,,,,,,,,,,,,,,,,,,,241.4519,241.4519,241.453,242.2673,1,1,right,0.288,,242.2681,242.2685,,0,,242.2692,242.2697,,1,,0,242.2697,242.2697,242.2701,243.7663,0,7,7,7,1,0.6,0.4,0.4,0.6,1,0,,,,,,,,,,,,,,,,,,,,,,,,,,,,,,,,,,,,
,,612512862963825fa66941bf,66fc97edc19adc597a67640e,2024-10-01_18h47.17.787,mdp,2024.2.1,Win32,60.97560976,66fa4ebf79326e780c390304,,,,,,,,,,,,,,,,,,,,,243.7666,243.7666,243.7672,244.8156,0,0,left,0.5174,,244.8164,244.8169,,1,,244.8173,244.8179,,0,,1,244.8179,244.818,244.8183,246.3141,0,8,8,8,1,0.6,0.4,0.4,0.6,1,0,,,,,,,,,,,,,,,,,,,,,,,,,,,,,,,,,,,,
,,612512862963825fa66941bf,66fc97edc19adc597a67640e,2024-10-01_18h47.17.787,mdp,2024.2.1,Win32,60.97560976,66fa4ebf79326e780c390304,,,,,,,,,,,,,,,,,,,,,246.3144,246.3144,246.315,247.713,1,0,right,0.8662,,247.7138,247.7144,,1,,247.7149,247.7155,,1,,1,247.7155,247.7155,247.716,249.2117,0,9,9,9,1,0.6,0.4,0.4,0.6,1,0,,,,,,,,,,,,,,,,,,,,,,,,,,,,,,,,,,,,
,,612512862963825fa66941bf,66fc97edc19adc597a67640e,2024-10-01_18h47.17.787,mdp,2024.2.1,Win32,60.97560976,66fa4ebf79326e780c390304,,,,,,,,,,,,,,,,,,,,,249.212,249.2121,249.2129,250.3109,0,1,left,0.5781,,250.3115,250.312,,0,,250.3129,250.3134,,0,,0,250.3134,250.3134,250.3139,251.81,0,10,10,10,1,0.6,0.4,0.4,0.6,1,0,,,,,,,,,,,,,,,,,,,,,,,,,,,,,,,,,,,,
,,612512862963825fa66941bf,66fc97edc19adc597a67640e,2024-10-01_18h47.17.787,mdp,2024.2.1,Win32,60.97560976,66fa4ebf79326e780c390304,,,,,,,,,,,,,,,,,,,,,251.8104,251.8104,251.8111,253.1754,1,1,right,0.8365,,253.1761,253.1766,,1,,253.1773,253.1778,,1,,0,253.1778,253.1778,253.1782,254.6741,0,11,11,11,1,0.8,0.2,0.2,0.8,1,0,,,,,,,,,,,,,,,,,,,,,,,,,,,,,,,,,,,,
,,612512862963825fa66941bf,66fc97edc19adc597a67640e,2024-10-01_18h47.17.787,mdp,2024.2.1,Win32,60.97560976,66fa4ebf79326e780c390304,,,,,,,,,,,,,,,,,,,,,254.6744,254.6744,254.675,255.7569,0,0,left,0.558,,255.7575,255.758,,0,,255.7584,255.7589,,0,,1,255.759,255.759,255.7593,257.2557,0,12,12,12,1,0.8,0.2,0.2,0.8,1,0,,,,,,,,,,,,,,,,,,,,,,,,,,,,,,,,,,,,
,,612512862963825fa66941bf,66fc97edc19adc597a67640e,2024-10-01_18h47.17.787,mdp,2024.2.1,Win32,60.97560976,66fa4ebf79326e780c390304,,,,,,,,,,,,,,,,,,,,,257.2559,257.2559,257.2566,258.9379,1,1,right,1.1583,,258.9387,258.9392,,1,,258.9398,258.9401,,1,,0,258.9401,258.9401,258.9406,260.4364,0,13,13,13,1,0.8,0.2,0.2,0.8,1,0,,,,,,,,,,,,,,,,,,,,,,,,,,,,,,,,,,,,
,,612512862963825fa66941bf,66fc97edc19adc597a67640e,2024-10-01_18h47.17.787,mdp,2024.2.1,Win32,60.97560976,66fa4ebf79326e780c390304,,,,,,,,,,,,,,,,,,,,,260.4367,260.4367,260.4374,261.3687,0,0,left,0.4111,,261.3696,261.3702,,0,,261.3709,261.3713,,0,,1,261.3713,261.3713,261.3717,262.8677,0,14,14,14,1,0.8,0.2,0.2,0.8,1,0,,,,,,,,,,,,,,,,,,,,,,,,,,,,,,,,,,,,
,,612512862963825fa66941bf,66fc97edc19adc597a67640e,2024-10-01_18h47.17.787,mdp,2024.2.1,Win32,60.97560976,66fa4ebf79326e780c390304,,,,,,,,,,,,,,,,,,,,,262.8678,262.8678,262.8684,264.017,1,0,right,0.6247,,264.0179,264.0185,,1,,264.0189,264.0193,,1,,1,264.0193,264.0193,264.0197,265.5158,0,15,15,15,1,0.8,0.2,0.2,0.8,1,0,,,,,,,,,,,,,,,,,,,,,,,,,,,,,,,,,,,,
,,612512862963825fa66941bf,66fc97edc19adc597a67640e,2024-10-01_18h47.17.787,mdp,2024.2.1,Win32,60.97560976,66fa4ebf79326e780c390304,,,,,,,,,,,,,,,,,,,,,265.5161,265.5161,265.5168,267.0478,0,0,left,1.0041,,267.0487,267.0493,,1,,267.05,267.0504,,1,,1,267.0504,267.0504,267.0508,268.5465,0,16,16,16,1,0.4,0.6,0.6,0.4,1,0,,,,,,,,,,,,,,,,,,,,,,,,,,,,,,,,,,,,
,,612512862963825fa66941bf,66fc97edc19adc597a67640e,2024-10-01_18h47.17.787,mdp,2024.2.1,Win32,60.97560976,66fa4ebf79326e780c390304,,,,,,,,,,,,,,,,,,,,,268.5467,268.5467,268.5476,269.7955,0,1,left,0.7265,,269.7963,269.7967,,1,,269.7972,269.7977,,0,,0,269.7977,269.7977,269.7981,271.2944,0,17,17,17,1,0.8,0.2,0.2,0.8,1,0,,,,,,,,,,,,,,,,,,,,,,,,,,,,,,,,,,,,
,,612512862963825fa66941bf,66fc97edc19adc597a67640e,2024-10-01_18h47.17.787,mdp,2024.2.1,Win32,60.97560976,66fa4ebf79326e780c390304,,,,,,,,,,,,,,,,,,,,,271.2947,271.2947,271.2954,272.4267,0,1,left,0.6116,,272.4276,272.428,,0,,272.4287,272.4292,,1,,0,272.4292,272.4292,272.4299,273.9257,0,18,18,18,1,0.2,0.8,0.6,0.4,1,0,,,,,,,,,,,,,,,,,,,,,,,,,,,,,,,,,,,,
,,612512862963825fa66941bf,66fc97edc19adc597a67640e,2024-10-01_18h47.17.787,mdp,2024.2.1,Win32,60.97560976,66fa4ebf79326e780c390304,,,,,,,,,,,,,,,,,,,,,273.926,273.926,273.9266,274.8749,0,0,left,0.4173,,274.8757,274.8762,,1,,274.8767,274.8773,,1,,1,274.8773,274.8773,274.8777,276.3737,0,19,19,19,1,0.8,0.2,0.2,0.8,1,0,,,,,,,,,,,,,,,,,,,,,,,,,,,,,,,,,,,,
,,612512862963825fa66941bf,66fc97edc19adc597a67640e,2024-10-01_18h47.17.787,mdp,2024.2.1,Win32,60.97560976,66fa4ebf79326e780c390304,,,,,,,,,,,,,,,,,,,,,276.374,276.374,276.3746,277.2895,1,1,right,0.3961,,277.2901,277.2907,,1,,277.2917,277.2923,,0,,0,277.2923,277.2923,277.2928,278.7884,0,20,20,20,1,0.8,0.2,0.2,0.8,1,0,,,,,,,,,,,,,,,,,,,,,,,,,,,,,,,,,,,,
,,612512862963825fa66941bf,66fc97edc19adc597a67640e,2024-10-01_18h47.17.787,mdp,2024.2.1,Win32,60.97560976,66fa4ebf79326e780c390304,,,,,,,,,,,,,,,,,,,,,278.7888,278.7888,278.79,279.6543,0,1,left,0.3456,,279.655,279.6556,,1,,279.6563,279.6568,,0,,0,279.6569,279.6569,279.6574,281.1532,0,21,21,21,1,0.4,0.6,0.8,0.2,1,0,,,,,,,,,,,,,,,,,,,,,,,,,,,,,,,,,,,,
,,612512862963825fa66941bf,66fc97edc19adc597a67640e,2024-10-01_18h47.17.787,mdp,2024.2.1,Win32,60.97560976,66fa4ebf79326e780c390304,,,,,,,,,,,,,,,,,,,,,281.1535,281.1535,281.1542,281.9363,0,0,left,0.2524,,281.9371,281.9376,,1,,281.9383,281.9386,,1,,1,281.9386,281.9386,281.939,283.4348,0,22,22,22,1,0.4,0.6,0.8,0.2,1,0,,,,,,,,,,,,,,,,,,,,,,,,,,,,,,,,,,,,
,,612512862963825fa66941bf,66fc97edc19adc597a67640e,2024-10-01_18h47.17.787,mdp,2024.2.1,Win32,60.97560976,66fa4ebf79326e780c390304,,,,,,,,,,,,,,,,,,,,,283.435,283.435,283.4356,285.0334,1,1,right,1.0734,,285.0344,285.0349,,0,,285.0355,285.0358,,0,,0,285.0359,285.0359,285.0362,286.5325,0,23,23,23,1,0.4,0.6,0.8,0.2,1,0,,,,,,,,,,,,,,,,,,,,,,,,,,,,,,,,,,,,
,,612512862963825fa66941bf,66fc97edc19adc597a67640e,2024-10-01_18h47.17.787,mdp,2024.2.1,Win32,60.97560976,66fa4ebf79326e780c390304,,,,,,,,,,,,,,,,,,,,,286.5327,286.5327,286.5333,287.365,0,0,left,0.309,,287.3656,287.3661,,0,,287.3666,287.367,,0,,1,287.367,287.367,287.3673,288.864,0,24,24,24,1,0.6,0.4,0.2,0.8,1,0,,,,,,,,,,,,,,,,,,,,,,,,,,,,,,,,,,,,
,,612512862963825fa66941bf,66fc97edc19adc597a67640e,2024-10-01_18h47.17.787,mdp,2024.2.1,Win32,60.97560976,66fa4ebf79326e780c390304,,,,,,,,,,,,,,,,,,,,,288.8645,288.8645,288.8654,289.8963,1,1,right,0.5036,,289.8972,289.8977,,1,,289.8983,289.8986,,1,,0,289.8987,289.8987,289.8991,291.395,0,25,25,25,1,0.6,0.4,0.2,0.8,1,0,,,,,,,,,,,,,,,,,,,,,,,,,,,,,,,,,,,,
,,612512862963825fa66941bf,66fc97edc19adc597a67640e,2024-10-01_18h47.17.787,mdp,2024.2.1,Win32,60.97560976,66fa4ebf79326e780c390304,,,,,,,,,,,,,,,,,,,,,291.3954,291.3954,291.3961,292.2443,0,1,left,0.3169,,292.2451,292.2455,,1,,292.2459,292.2463,,0,,0,292.2463,292.2463,292.2467,293.7431,0,26,26,26,1,0.6,0.4,0.2,0.8,1,0,,,,,,,,,,,,,,,,,,,,,,,,,,,,,,,,,,,,
,,612512862963825fa66941bf,66fc97edc19adc597a67640e,2024-10-01_18h47.17.787,mdp,2024.2.1,Win32,60.97560976,66fa4ebf79326e780c390304,,,,,,,,,,,,,,,,,,,,,293.7434,293.7435,293.7441,294.4763,0,1,left,0.2031,,294.477,294.4775,,0,,294.4779,294.4784,,0,,0,294.4784,294.4784,294.4787,295.9748,0,27,27,27,1,0.6,0.4,0.2,0.8,1,0,,,,,,,,,,,,,,,,,,,,,,,,,,,,,,,,,,,,
,,612512862963825fa66941bf,66fc97edc19adc597a67640e,2024-10-01_18h47.17.787,mdp,2024.2.1,Win32,60.97560976,66fa4ebf79326e780c390304,,,,,,,,,,,,,,,,,,,,,295.975,295.975,295.9756,296.7416,0,1,left,0.2337,,296.7424,296.7428,,1,,296.7434,296.7437,,1,,0,296.7437,296.7437,296.744,298.2395,0,28,28,28,1,0.2,0.8,0.8,0.2,1,0,,,,,,,,,,,,,,,,,,,,,,,,,,,,,,,,,,,,
,,612512862963825fa66941bf,66fc97edc19adc597a67640e,2024-10-01_18h47.17.787,mdp,2024.2.1,Win32,60.97560976,66fa4ebf79326e780c390304,,,,,,,,,,,,,,,,,,,,,298.2397,298.2397,298.2403,299.106,0,1,left,0.3409,,299.1068,299.1074,,1,,299.108,299.1083,,1,,0,299.1083,299.1083,299.1086,300.6046,0,29,29,29,1,0.2,0.8,0.8,0.2,1,0,,,,,,,,,,,,,,,,,,,,,,,,,,,,,,,,,,,,
,,612512862963825fa66941bf,66fc97edc19adc597a67640e,2024-10-01_18h47.17.787,mdp,2024.2.1,Win32,60.97560976,66fa4ebf79326e780c390304,,,,,,,,,,,,,,,,,,,,,300.6049,300.6049,300.6055,301.5372,0,1,left,0.4064,,301.5379,301.5384,,1,,301.5388,301.5394,,0,,0,301.5394,301.5394,301.5398,303.0359,0,30,30,30,1,0.2,0.8,0.8,0.2,1,0,,,,,,,,,,,,,,,,,,,,,,,,,,,,,,,,,,,,
,,612512862963825fa66941bf,66fc97edc19adc597a67640e,2024-10-01_18h47.17.787,mdp,2024.2.1,Win32,60.97560976,66fa4ebf79326e780c390304,,,,,,,,,,,,,,,,,,,,,303.0363,303.0363,303.0372,303.7189,1,0,right,0.1535,,303.7196,303.72,,0,,303.7208,303.7211,,0,,1,303.7212,303.7212,303.7216,305.2177,0,31,31,31,1,0.2,0.8,0.8,0.2,1,0,,,,,,,,,,,,,,,,,,,,,,,,,,,,,,,,,,,,
,,612512862963825fa66941bf,66fc97edc19adc597a67640e,2024-10-01_18h47.17.787,mdp,2024.2.1,Win32,60.97560976,66fa4ebf79326e780c390304,,,,,,,,,,,,,,,,,,,,,305.218,305.218,305.2186,305.9173,1,0,right,0.1776,,305.9181,305.9188,,0,,305.9193,305.9196,,1,,1,305.9196,305.9196,305.9199,307.4159,0,32,32,32,1,0.2,0.8,0.8,0.2,1,0,,,,,,,,,,,,,,,,,,,,,,,,,,,,,,,,,,,,
,,612512862963825fa66941bf,66fc97edc19adc597a67640e,2024-10-01_18h47.17.787,mdp,2024.2.1,Win32,60.97560976,66fa4ebf79326e780c390304,,,,,,,,,,,,,,,,,,,,,307.4164,307.4164,307.4175,308.2151,1,0,right,0.271,,308.2159,308.2164,,1,,308.2168,308.2174,,0,,1,308.2175,308.2175,308.2178,309.7139,0,33,33,33,1,0.2,0.8,0.8,0.2,1,0,,,,,,,,,,,,,,,,,,,,,,,,,,,,,,,,,,,,
,,612512862963825fa66941bf,66fc97edc19adc597a67640e,2024-10-01_18h47.17.787,mdp,2024.2.1,Win32,60.97560976,66fa4ebf79326e780c390304,,,,,,,,,,,,,,,,,,,,,309.7141,309.7141,309.7148,310.5132,1,1,right,0.2794,,310.5138,310.5143,,1,,310.5149,310.5153,,1,,0,310.5153,310.5153,310.5157,312.0121,0,34,34,34,1,0.8,0.2,0.2,0.8,1,0,,,,,,,,,,,,,,,,,,,,,,,,,,,,,,,,,,,,
,,612512862963825fa66941bf,66fc97edc19adc597a67640e,2024-10-01_18h47.17.787,mdp,2024.2.1,Win32,60.97560976,66fa4ebf79326e780c390304,,,,,,,,,,,,,,,,,,,,,312.0123,312.0123,312.0131,312.6285,1,1,right,0.0913,,312.6295,312.63,,1,,312.6304,312.631,,0,,0,312.631,312.631,312.6314,314.127,0,35,35,35,1,0.8,0.2,0.2,0.8,1,0,,,,,,,,,,,,,,,,,,,,,,,,,,,,,,,,,,,,
,,612512862963825fa66941bf,66fc97edc19adc597a67640e,2024-10-01_18h47.17.787,mdp,2024.2.1,Win32,60.97560976,66fa4ebf79326e780c390304,,,,,,,,,,,,,,,,,,,,,314.1272,314.1272,314.1281,314.8101,0,0,left,0.1503,,314.811,314.8115,,0,,314.8121,314.8125,,1,,1,314.8126,314.8126,314.813,316.3088,0,36,36,36,1,0.8,0.2,0.2,0.8,1,0,,,,,,,,,,,,,,,,,,,,,,,,,,,,,,,,,,,,
,,612512862963825fa66941bf,66fc97edc19adc597a67640e,2024-10-01_18h47.17.787,mdp,2024.2.1,Win32,60.97560976,66fa4ebf79326e780c390304,,,,,,,,,,,,,,,,,,,,,316.3092,316.3092,316.3098,317.0247,0,0,left,0.1826,,317.0255,317.0261,,0,,317.0266,317.0269,,1,,1,317.0269,317.0269,317.0273,318.5238,0,37,37,37,1,0.2,0.8,0.8,0.2,1,0,,,,,,,,,,,,,,,,,,,,,,,,,,,,,,,,,,,,
,,612512862963825fa66941bf,66fc97edc19adc597a67640e,2024-10-01_18h47.17.787,mdp,2024.2.1,Win32,60.97560976,66fa4ebf79326e780c390304,,,,,,,,,,,,,,,,,,,,,318.5241,318.5241,318.5248,319.3066,1,1,right,0.2531,,319.3074,319.3079,,0,,319.3084,319.3089,,1,,0,319.3089,319.3089,319.3093,320.8053,0,38,38,38,1,0.2,0.8,0.8,0.2,1,0,,,,,,,,,,,,,,,,,,,,,,,,,,,,,,,,,,,,
,,612512862963825fa66941bf,66fc97edc19adc597a67640e,2024-10-01_18h47.17.787,mdp,2024.2.1,Win32,60.97560976,66fa4ebf79326e780c390304,,,,,,,,,,,,,,,,,,,,,320.8055,320.8055,320.8062,321.4546,0,0,left,0.1282,,321.4553,321.4558,,1,,321.4566,321.457,,1,,1,321.457,321.457,321.4574,322.9533,0,39,39,39,1,0.2,0.8,0.8,0.2,1,0,,,,,,,,,,,,,,,,,,,,,,,,,,,,,,,,,,,,
,,612512862963825fa66941bf,66fc97edc19adc597a67640e,2024-10-01_18h47.17.787,mdp,2024.2.1,Win32,60.97560976,66fa4ebf79326e780c390304,,,,,,,,,,,,,,,,,,,,,322.9537,322.9537,322.9557,323.7363,0,1,left,0.2566,,323.7372,323.7377,,1,,323.738,323.7385,,1,,0,323.7386,323.7386,323.739,325.2351,0,40,40,40,1,0.2,0.8,0.8,0.2,1,0,,,,,,,,,,,,,,,,,,,,,,,,,,,,,,,,,,,,
,,612512862963825fa66941bf,66fc97edc19adc597a67640e,2024-10-01_18h47.17.787,mdp,2024.2.1,Win32,60.97560976,66fa4ebf79326e780c390304,,,,,,,,,,,,,,,,,,,,,325.2355,325.2355,325.2363,326.1176,0,1,left,0.3622,,326.1183,326.1187,,1,,326.1193,326.1196,,1,,0,326.1197,326.1197,326.12,327.6165,0,41,41,41,1,0.2,0.8,0.8,0.2,1,0,,,,,,,,,,,,,,,,,,,,,,,,,,,,,,,,,,,,
,,612512862963825fa66941bf,66fc97edc19adc597a67640e,2024-10-01_18h47.17.787,mdp,2024.2.1,Win32,60.97560976,66fa4ebf79326e780c390304,,,,,,,,,,,,,,,,,,,,,327.6168,327.6168,327.6174,328.7828,0,1,left,0.6332,,328.7835,328.7839,,1,,328.7844,328.7849,,1,,0,328.7849,328.7849,328.7851,330.2812,0,42,42,42,1,0.2,0.8,0.8,0.2,1,0,,,,,,,,,,,,,,,,,,,,,,,,,,,,,,,,,,,,
,,612512862963825fa66941bf,66fc97edc19adc597a67640e,2024-10-01_18h47.17.787,mdp,2024.2.1,Win32,60.97560976,66fa4ebf79326e780c390304,,,,,,,,,,,,,,,,,,,,,330.2815,330.2815,330.2822,331.1136,1,1,right,0.3077,,331.1144,331.1149,,0,,331.1154,331.1158,,1,,0,331.1158,331.1158,331.1162,332.6123,0,43,43,43,1,0.8,0.2,0.4,0.6,1,0,,,,,,,,,,,,,,,,,,,,,,,,,,,,,,,,,,,,
,,612512862963825fa66941bf,66fc97edc19adc597a67640e,2024-10-01_18h47.17.787,mdp,2024.2.1,Win32,60.97560976,66fa4ebf79326e780c390304,,,,,,,,,,,,,,,,,,,,,332.6126,332.6126,332.6134,333.3953,0,0,left,0.2506,,333.3961,333.3965,,0,,333.3969,333.3975,,0,,1,333.3976,333.3976,333.398,334.8938,0,44,44,44,1,0.8,0.2,0.4,0.6,1,0,,,,,,,,,,,,,,,,,,,,,,,,,,,,,,,,,,,,
,,612512862963825fa66941bf,66fc97edc19adc597a67640e,2024-10-01_18h47.17.787,mdp,2024.2.1,Win32,60.97560976,66fa4ebf79326e780c390304,,,,,,,,,,,,,,,,,,,,,334.8941,334.8941,334.8947,335.7608,1,1,right,0.3423,,335.7618,335.7623,,1,,335.7629,335.7634,,0,,0,335.7634,335.7634,335.7638,337.2589,0,45,45,45,1,0.6,0.4,0.8,0.2,1,0,,,,,,,,,,,,,,,,,,,,,,,,,,,,,,,,,,,,
,,612512862963825fa66941bf,66fc97edc19adc597a67640e,2024-10-01_18h47.17.787,mdp,2024.2.1,Win32,60.97560976,66fa4ebf79326e780c390304,,,,,,,,,,,,,,,,,,,,,337.2592,337.2592,337.2599,338.0914,0,0,left,0.3113,,338.0922,338.0927,,0,,338.0932,338.0937,,0,,1,338.0937,338.0937,338.0941,339.5903,0,46,46,46,1,0.6,0.4,0.8,0.2,1,0,,,,,,,,,,,,,,,,,,,,,,,,,,,,,,,,,,,,
,,612512862963825fa66941bf,66fc97edc19adc597a67640e,2024-10-01_18h47.17.787,mdp,2024.2.1,Win32,60.97560976,66fa4ebf79326e780c390304,,,,,,,,,,,,,,,,,,,,,339.5906,339.5906,339.5913,340.3734,0,1,left,0.2505,,340.374,340.3745,,0,,340.3752,340.3757,,0,,0,340.3757,340.3757,340.3761,341.8718,0,47,47,47,1,0.6,0.4,0.8,0.2,1,0,,,,,,,,,,,,,,,,,,,,,,,,,,,,,,,,,,,,
,,612512862963825fa66941bf,66fc97edc19adc597a67640e,2024-10-01_18h47.17.787,mdp,2024.2.1,Win32,60.97560976,66fa4ebf79326e780c390304,,,,,,,,,,,,,,,,,,,,,341.8719,341.8719,341.8725,342.6378,0,0,left,0.2373,,342.6386,342.6393,,1,,342.6397,342.64,,1,,1,342.6401,342.6401,342.6405,344.1368,0,48,48,48,1,0.6,0.4,0.8,0.2,1,0,,,,,,,,,,,,,,,,,,,,,,,,,,,,,,,,,,,,
,,612512862963825fa66941bf,66fc97edc19adc597a67640e,2024-10-01_18h47.17.787,mdp,2024.2.1,Win32,60.97560976,66fa4ebf79326e780c390304,,,,,,,,,,,,,,,,,,,,,344.1372,344.1372,344.1378,345.086,0,1,left,0.4176,,345.0868,345.0873,,0,,345.0877,345.0882,,0,,0,345.0883,345.0883,345.0886,346.5848,0,49,49,49,1,0.6,0.4,0.8,0.2,1,0,,,,,,,,,,,,,,,,,,,,,,,,,,,,,,,,,,,,
,,612512862963825fa66941bf,66fc97edc19adc597a67640e,2024-10-01_18h47.17.787,mdp,2024.2.1,Win32,60.97560976,66fa4ebf79326e780c390304,,,,,,,,,,,,,,,,,,,,,,,,,,,,,,,,,,,,,,,,,,,,,,,,,,,,,,,,346.5852,405.1052,0,0,0,4,1,imgs/dog.png,imgs/cat.png,imgs/lion.png,imgs/elephant.png,imgs/goat.png,,,,,,,,,,,,,,,,,,,,,,,,
,,612512862963825fa66941bf,66fc97edc19adc597a67640e,2024-10-01_18h47.17.787,mdp,2024.2.1,Win32,60.97560976,66fa4ebf79326e780c390304,,,,,,,,,,,,,,2,seqs/st2seq33.csv,405.1059,412.6825,space,7.0443,,412.6855,412.6855,412.6861,416.2802,0,1,left,3.0585,,416.281,417.6788,1,1,right,417.6797,417.6802,,1,,0,417.6802,417.6802,417.6809,419.1772,0,0,0,0,1,0.2,0.8,0.6,0.4,,,,,,,,,,,,,,,0.8613,,0.2,0.8,0.4,0.6,0.8,0.2,0.2,0.8,1,0,,,,,,,,,,,,
,,612512862963825fa66941bf,66fc97edc19adc597a67640e,2024-10-01_18h47.17.787,mdp,2024.2.1,Win32,60.97560976,66fa4ebf79326e780c390304,,,,,,,,,,,,,,,,,,,,,419.1775,419.1775,419.1782,421.0594,0,1,left,1.3495,,421.0602,422.3915,0,0,left,422.3922,422.3926,,0,,1,422.3927,422.3927,422.3931,423.8904,0,1,1,1,1,0.2,0.8,0.6,0.4,,,,,,,,,,,,,,,0.8024,,0.2,0.8,0.4,0.6,0.8,0.2,0.2,0.8,1,0,,,,,,,,,,,,
,,612512862963825fa66941bf,66fc97edc19adc597a67640e,2024-10-01_18h47.17.787,mdp,2024.2.1,Win32,60.97560976,66fa4ebf79326e780c390304,,,,,,,,,,,,,,,,,,,,,423.8908,423.8908,423.8914,424.8562,0,1,left,0.4401,,424.8569,426.4548,0,0,left,426.4556,426.4561,,0,,1,426.4562,426.4562,426.4568,427.954,0,2,2,2,1,0.4,0.6,0.4,0.6,,,,,,,,,,,,,,,1.0784,,0.2,0.8,0.4,0.6,0.8,0.2,0.2,0.8,1,0,,,,,,,,,,,,
,,612512862963825fa66941bf,66fc97edc19adc597a67640e,2024-10-01_18h47.17.787,mdp,2024.2.1,Win32,60.97560976,66fa4ebf79326e780c390304,,,,,,,,,,,,,,,,,,,,,427.9545,427.9545,427.9553,429.0029,0,1,left,0.5266,,429.0038,430.0019,0,0,left,430.0027,430.0032,,0,,1,430.0032,430.0032,430.0039,431.501,0,3,3,3,1,0.4,0.6,0.4,0.6,,,,,,,,,,,,,,,0.4794,,0.2,0.8,0.4,0.6,0.8,0.2,0.2,0.8,1,0,,,,,,,,,,,,
,,612512862963825fa66941bf,66fc97edc19adc597a67640e,2024-10-01_18h47.17.787,mdp,2024.2.1,Win32,60.97560976,66fa4ebf79326e780c390304,,,,,,,,,,,,,,,,,,,,,431.5013,431.5013,431.5021,432.417,0,0,left,0.3837,,432.4178,433.2333,0,1,left,433.2339,433.2344,,1,,0,433.2344,433.2344,433.2349,434.7319,0,4,4,4,1,0.4,0.6,0.4,0.6,,,,,,,,,,,,,,,0.287,,0.2,0.8,0.4,0.6,0.8,0.2,0.2,0.8,1,0,,,,,,,,,,,,
,,612512862963825fa66941bf,66fc97edc19adc597a67640e,2024-10-01_18h47.17.787,mdp,2024.2.1,Win32,60.97560976,66fa4ebf79326e780c390304,,,,,,,,,,,,,,,,,,,,,434.7322,434.7322,434.7328,435.7977,0,1,left,0.5335,,435.7985,436.9302,0,0,left,436.9312,436.9317,,0,,1,436.9317,436.9317,436.9323,438.4289,0,5,5,5,1,0.4,0.6,0.4,0.6,,,,,,,,,,,,,,,0.6076,,0.2,0.8,0.4,0.6,0.8,0.2,0.2,0.8,1,0,,,,,,,,,,,,
,,612512862963825fa66941bf,66fc97edc19adc597a67640e,2024-10-01_18h47.17.787,mdp,2024.2.1,Win32,60.97560976,66fa4ebf79326e780c390304,,,,,,,,,,,,,,,,,,,,,438.4293,438.4293,438.4301,439.9777,0,1,left,1.024,,439.9783,441.21,0,1,left,441.2107,441.2112,,0,,0,441.2113,441.2113,441.2118,442.7088,0,6,6,6,1,0.4,0.6,0.4,0.6,,,,,,,,,,,,,,,0.706,,0.2,0.8,0.4,0.6,0.8,0.2,0.2,0.8,1,0,,,,,,,,,,,,
,,612512862963825fa66941bf,66fc97edc19adc597a67640e,2024-10-01_18h47.17.787,mdp,2024.2.1,Win32,60.97560976,66fa4ebf79326e780c390304,,,,,,,,,,,,,,,,,,,,,442.7092,442.7092,442.7098,443.6748,0,1,left,0.4337,,443.6758,444.6243,0,1,left,444.6251,444.6256,,1,,0,444.6256,444.6256,444.6265,446.1229,0,7,7,7,1,0.4,0.6,0.4,0.6,,,,,,,,,,,,,,,0.4233,,0.2,0.8,0.4,0.6,0.8,0.2,0.2,0.8,1,0,,,,,,,,,,,,
,,612512862963825fa66941bf,66fc97edc19adc597a67640e,2024-10-01_18h47.17.787,mdp,2024.2.1,Win32,60.97560976,66fa4ebf79326e780c390304,,,,,,,,,,,,,,,,,,,,,446.1231,446.1231,446.1238,447.1217,0,1,left,0.476,,447.1226,448.3379,0,0,left,448.3389,448.3393,,0,,1,448.3394,448.3394,448.3399,449.8368,0,8,8,8,1,0.4,0.6,0.4,0.6,,,,,,,,,,,,,,,0.6831,,0.2,0.8,0.4,0.6,0.8,0.2,0.2,0.8,1,0,,,,,,,,,,,,
,,612512862963825fa66941bf,66fc97edc19adc597a67640e,2024-10-01_18h47.17.787,mdp,2024.2.1,Win32,60.97560976,66fa4ebf79326e780c390304,,,,,,,,,,,,,,,,,,,,,449.8371,449.8371,449.8378,451.4689,0,1,left,1.1008,,451.4695,452.5347,0,1,left,452.5354,452.5358,,1,,0,452.5358,452.5358,452.5364,454.0333,0,9,9,9,1,0.4,0.6,0.4,0.6,,,,,,,,,,,,,,,0.5326,,0.2,0.8,0.4,0.6,0.2,0.8,0.8,0.2,1,0,,,,,,,,,,,,
,,612512862963825fa66941bf,66fc97edc19adc597a67640e,2024-10-01_18h47.17.787,mdp,2024.2.1,Win32,60.97560976,66fa4ebf79326e780c390304,,,,,,,,,,,,,,,,,,,,,454.0335,454.0335,454.0341,455.1155,0,0,left,0.562,,455.1163,456.5646,1,0,right,456.5654,456.5659,,0,,1,456.5659,456.5659,456.5667,458.0634,0,10,10,10,1,0.4,0.6,0.4,0.6,,,,,,,,,,,,,,,0.9201,,0.2,0.8,0.4,0.6,0.2,0.8,0.8,0.2,1,0,,,,,,,,,,,,
,,612512862963825fa66941bf,66fc97edc19adc597a67640e,2024-10-01_18h47.17.787,mdp,2024.2.1,Win32,60.97560976,66fa4ebf79326e780c390304,,,,,,,,,,,,,,,,,,,,,458.0637,458.0637,458.0645,459.2961,0,1,left,0.7039,,459.2969,460.6777,0,1,left,460.6785,460.6791,,1,,0,460.6792,460.6792,460.6799,462.1767,0,11,11,11,1,0.2,0.8,0.6,0.4,,,,,,,,,,,,,,,0.8487,,0.2,0.8,0.4,0.6,0.2,0.8,0.8,0.2,1,0,,,,,,,,,,,,
,,612512862963825fa66941bf,66fc97edc19adc597a67640e,2024-10-01_18h47.17.787,mdp,2024.2.1,Win32,60.97560976,66fa4ebf79326e780c390304,,,,,,,,,,,,,,,,,,,,,462.1771,462.1771,462.1779,463.026,0,1,left,0.3192,,463.0268,464.1582,0,1,left,464.1588,464.1592,,1,,0,464.1593,464.1593,464.1597,465.6573,0,12,12,12,1,0.2,0.8,0.6,0.4,,,,,,,,,,,,,,,0.6115,,0.2,0.8,0.4,0.6,0.2,0.8,0.8,0.2,1,0,,,,,,,,,,,,
,,612512862963825fa66941bf,66fc97edc19adc597a67640e,2024-10-01_18h47.17.787,mdp,2024.2.1,Win32,60.97560976,66fa4ebf79326e780c390304,,,,,,,,,,,,,,,,,,,,,465.6577,465.6577,465.6585,466.4565,0,1,left,0.2783,,466.4573,467.6393,0,1,left,467.64,467.6404,,1,,0,467.6404,467.6404,467.641,469.1375,0,13,13,13,1,0.6,0.4,0.4,0.6,,,,,,,,,,,,,,,0.6508,,0.2,0.8,0.4,0.6,0.2,0.8,0.8,0.2,1,0,,,,,,,,,,,,
,,612512862963825fa66941bf,66fc97edc19adc597a67640e,2024-10-01_18h47.17.787,mdp,2024.2.1,Win32,60.97560976,66fa4ebf79326e780c390304,,,,,,,,,,,,,,,,,,,,,469.1377,469.1377,469.1384,470.0372,0,1,left,0.3667,,470.0378,471.2359,1,0,right,471.2366,471.2371,,0,,1,471.2371,471.2371,471.2375,472.7349,0,14,14,14,1,0.6,0.4,0.4,0.6,,,,,,,,,,,,,,,0.6792,,0.2,0.8,0.4,0.6,0.2,0.8,0.8,0.2,1,0,,,,,,,,,,,,
,,612512862963825fa66941bf,66fc97edc19adc597a67640e,2024-10-01_18h47.17.787,mdp,2024.2.1,Win32,60.97560976,66fa4ebf79326e780c390304,,,,,,,,,,,,,,,,,,,,,472.7352,472.7352,472.7357,474.034,0,1,left,0.7696,,474.0348,475.1168,1,0,right,475.1176,475.1181,,0,,1,475.1181,475.1182,475.1187,476.6156,0,15,15,15,1,0.6,0.4,0.4,0.6,,,,,,,,,,,,,,,0.5513,,0.2,0.8,0.4,0.6,0.4,0.6,0.6,0.4,1,0,,,,,,,,,,,,
,,612512862963825fa66941bf,66fc97edc19adc597a67640e,2024-10-01_18h47.17.787,mdp,2024.2.1,Win32,60.97560976,66fa4ebf79326e780c390304,,,,,,,,,,,,,,,,,,,,,476.6158,476.6158,476.6167,477.6147,0,0,left,0.472,,477.6152,479.0468,0,0,left,479.0474,479.048,,0,,1,479.0481,479.0481,479.0487,480.5454,0,16,16,16,1,0.6,0.4,0.4,0.6,,,,,,,,,,,,,,,0.8987,,0.2,0.8,0.4,0.6,0.4,0.6,0.6,0.4,1,0,,,,,,,,,,,,
,,612512862963825fa66941bf,66fc97edc19adc597a67640e,2024-10-01_18h47.17.787,mdp,2024.2.1,Win32,60.97560976,66fa4ebf79326e780c390304,,,,,,,,,,,,,,,,,,,,,480.5457,480.5457,480.5463,481.6781,0,0,left,0.6103,,481.6788,483.01,0,1,left,483.0108,483.0114,,1,,0,483.0114,483.0114,483.0121,484.5091,0,17,17,17,1,0.6,0.4,0.4,0.6,,,,,,,,,,,,,,,0.8039,,0.2,0.8,0.4,0.6,0.4,0.6,0.6,0.4,1,0,,,,,,,,,,,,
,,612512862963825fa66941bf,66fc97edc19adc597a67640e,2024-10-01_18h47.17.787,mdp,2024.2.1,Win32,60.97560976,66fa4ebf79326e780c390304,,,,,,,,,,,,,,,,,,,,,484.5094,484.5094,484.5102,485.4917,0,1,left,0.4626,,485.4922,486.9739,1,0,right,486.9747,486.9752,,1,,1,486.9753,486.9753,486.9758,488.4721,0,18,18,18,1,0.6,0.4,0.4,0.6,,,,,,,,,,,,,,,0.9505,,0.2,0.8,0.4,0.6,0.4,0.6,0.6,0.4,1,0,,,,,,,,,,,,
,,612512862963825fa66941bf,66fc97edc19adc597a67640e,2024-10-01_18h47.17.787,mdp,2024.2.1,Win32,60.97560976,66fa4ebf79326e780c390304,,,,,,,,,,,,,,,,,,,,,488.4724,488.4725,488.4732,489.5217,0,1,left,0.5169,,489.5224,490.4546,1,0,right,490.4555,490.456,,1,,1,490.4561,490.4561,490.4565,491.9529,0,19,19,19,1,0.6,0.4,0.4,0.6,,,,,,,,,,,,,,,0.4133,,0.2,0.8,0.4,0.6,0.4,0.6,0.6,0.4,1,0,,,,,,,,,,,,
,,612512862963825fa66941bf,66fc97edc19adc597a67640e,2024-10-01_18h47.17.787,mdp,2024.2.1,Win32,60.97560976,66fa4ebf79326e780c390304,,,,,,,,,,,,,,,,,,,,,491.9532,491.9533,491.9539,492.8192,0,1,left,0.3464,,492.8198,494.0018,1,0,right,494.0026,494.0031,,1,,1,494.0032,494.0032,494.0036,495.5004,0,20,20,20,1,0.6,0.4,0.4,0.6,,,,,,,,,,,,,,,0.6575,,0.2,0.8,0.4,0.6,0.4,0.6,0.6,0.4,1,0,,,,,,,,,,,,
,,612512862963825fa66941bf,66fc97edc19adc597a67640e,2024-10-01_18h47.17.787,mdp,2024.2.1,Win32,60.97560976,66fa4ebf79326e780c390304,,,,,,,,,,,,,,,,,,,,,495.5007,495.5007,495.5015,496.4495,0,0,left,0.4178,,496.4504,498.1479,1,1,right,498.1487,498.1492,,1,,0,498.1492,498.1492,498.1497,499.6471,0,21,21,21,1,0.6,0.4,0.4,0.6,,,,,,,,,,,,,,,1.1741,,0.2,0.8,0.4,0.6,0.4,0.6,0.6,0.4,1,0,,,,,,,,,,,,
,,612512862963825fa66941bf,66fc97edc19adc597a67640e,2024-10-01_18h47.17.787,mdp,2024.2.1,Win32,60.97560976,66fa4ebf79326e780c390304,,,,,,,,,,,,,,,,,,,,,499.6474,499.6474,499.648,500.5462,0,0,left,0.3698,,500.547,501.8619,0,0,left,501.8629,501.8635,,1,,1,501.8636,501.8636,501.8641,503.3609,0,22,22,22,1,0.6,0.4,0.4,0.6,,,,,,,,,,,,,,,0.7899,,0.6,0.4,0.6,0.4,0.4,0.6,0.6,0.4,1,0,,,,,,,,,,,,
,,612512862963825fa66941bf,66fc97edc19adc597a67640e,2024-10-01_18h47.17.787,mdp,2024.2.1,Win32,60.97560976,66fa4ebf79326e780c390304,,,,,,,,,,,,,,,,,,,,,503.3612,503.3612,503.362,504.3769,0,1,left,0.4927,,504.3778,505.5591,1,0,right,505.56,505.5605,,0,,1,505.5606,505.5606,505.5611,507.0577,0,23,23,23,1,0.6,0.4,0.4,0.6,,,,,,,,,,,,,,,0.6562,,0.6,0.4,0.6,0.4,0.4,0.6,0.6,0.4,1,0,,,,,,,,,,,,
,,612512862963825fa66941bf,66fc97edc19adc597a67640e,2024-10-01_18h47.17.787,mdp,2024.2.1,Win32,60.97560976,66fa4ebf79326e780c390304,,,,,,,,,,,,,,,,,,,,,507.058,507.058,507.0589,508.2237,0,0,left,0.6386,,508.2244,509.9392,0,0,left,509.9401,509.9405,,0,,1,509.9405,509.9405,509.9409,511.4376,0,24,24,24,1,0.8,0.2,0.8,0.2,,,,,,,,,,,,,,,1.1851,,0.6,0.4,0.6,0.4,0.4,0.6,0.6,0.4,1,0,,,,,,,,,,,,
,,612512862963825fa66941bf,66fc97edc19adc597a67640e,2024-10-01_18h47.17.787,mdp,2024.2.1,Win32,60.97560976,66fa4ebf79326e780c390304,,,,,,,,,,,,,,,,,,,,,511.4379,511.4379,511.4385,512.3205,0,0,left,0.3498,,512.3216,513.7029,0,0,left,513.7037,513.7041,,1,,1,513.7041,513.7042,513.7047,515.2014,0,25,25,25,1,0.6,0.4,0.6,0.4,,,,,,,,,,,,,,,0.8588,,0.6,0.4,0.6,0.4,0.4,0.6,0.6,0.4,1,0,,,,,,,,,,,,
,,612512862963825fa66941bf,66fc97edc19adc597a67640e,2024-10-01_18h47.17.787,mdp,2024.2.1,Win32,60.97560976,66fa4ebf79326e780c390304,,,,,,,,,,,,,,,,,,,,,515.2016,515.2016,515.2024,516.1343,0,1,left,0.4088,,516.135,517.3498,1,1,right,517.3506,517.351,,0,,0,517.351,517.351,517.3516,518.8483,0,26,26,26,1,0.6,0.4,0.6,0.4,,,,,,,,,,,,,,,0.6844,,0.6,0.4,0.6,0.4,0.4,0.6,0.6,0.4,1,0,,,,,,,,,,,,
,,612512862963825fa66941bf,66fc97edc19adc597a67640e,2024-10-01_18h47.17.787,mdp,2024.2.1,Win32,60.97560976,66fa4ebf79326e780c390304,,,,,,,,,,,,,,,,,,,,,518.8486,518.8486,518.8496,519.7145,0,1,left,0.3337,,519.7153,520.8968,0,0,left,520.8975,520.898,,1,,1,520.8981,520.8981,520.8987,522.3957,0,27,27,27,1,0.6,0.4,0.6,0.4,,,,,,,,,,,,,,,0.6581,,0.6,0.4,0.6,0.4,0.4,0.6,0.6,0.4,1,0,,,,,,,,,,,,
,,612512862963825fa66941bf,66fc97edc19adc597a67640e,2024-10-01_18h47.17.787,mdp,2024.2.1,Win32,60.97560976,66fa4ebf79326e780c390304,,,,,,,,,,,,,,,,,,,,,522.396,522.396,522.397,523.3954,0,0,left,0.4729,,523.3961,525.4432,1,1,right,525.444,525.4447,,0,,0,525.4447,525.4447,525.4454,526.9421,0,28,28,28,1,0.6,0.4,0.6,0.4,,,,,,,,,,,,,,,1.5128,,0.6,0.4,0.6,0.4,0.4,0.6,0.6,0.4,1,0,,,,,,,,,,,,
,,612512862963825fa66941bf,66fc97edc19adc597a67640e,2024-10-01_18h47.17.787,mdp,2024.2.1,Win32,60.97560976,66fa4ebf79326e780c390304,,,,,,,,,,,,,,,,,,,,,526.9425,526.9425,526.9432,527.7749,0,1,left,0.2995,,527.7756,529.7732,0,0,left,529.774,529.7744,,1,,1,529.7744,529.7744,529.7751,531.2718,0,29,29,29,1,0.6,0.4,0.6,0.4,,,,,,,,,,,,,,,1.4638,,0.6,0.4,0.6,0.4,0.4,0.6,0.6,0.4,1,0,,,,,,,,,,,,
,,612512862963825fa66941bf,66fc97edc19adc597a67640e,2024-10-01_18h47.17.787,mdp,2024.2.1,Win32,60.97560976,66fa4ebf79326e780c390304,,,,,,,,,,,,,,,,,,,,,531.2722,531.2722,531.2729,532.5211,0,0,left,0.7242,,532.522,533.97,1,0,right,533.9708,533.9712,,0,,1,533.9712,533.9712,533.9719,535.4687,0,30,30,30,1,0.6,0.4,0.6,0.4,,,,,,,,,,,,,,,0.9156,,0.6,0.4,0.6,0.4,0.4,0.6,0.6,0.4,1,0,,,,,,,,,,,,
,,612512862963825fa66941bf,66fc97edc19adc597a67640e,2024-10-01_18h47.17.787,mdp,2024.2.1,Win32,60.97560976,66fa4ebf79326e780c390304,,,,,,,,,,,,,,,,,,,,,535.469,535.469,535.4696,536.3683,0,1,left,0.3682,,536.369,538.3664,1,0,right,538.3672,538.3677,,1,,1,538.3677,538.3677,538.3682,539.865,0,31,31,31,1,0.6,0.4,0.6,0.4,,,,,,,,,,,,,,,1.4706,,0.6,0.4,0.6,0.4,0.4,0.6,0.6,0.4,1,0,,,,,,,,,,,,
,,612512862963825fa66941bf,66fc97edc19adc597a67640e,2024-10-01_18h47.17.787,mdp,2024.2.1,Win32,60.97560976,66fa4ebf79326e780c390304,,,,,,,,,,,,,,,,,,,,,539.8654,539.8654,539.8662,540.8311,0,1,left,0.4417,,540.8318,541.7137,1,0,right,541.7146,541.715,,1,,1,541.715,541.715,541.7155,543.2125,0,32,32,32,1,0.6,0.4,0.6,0.4,,,,,,,,,,,,,,,0.3555,,0.8,0.2,0.4,0.6,0.4,0.6,0.6,0.4,1,0,,,,,,,,,,,,
,,612512862963825fa66941bf,66fc97edc19adc597a67640e,2024-10-01_18h47.17.787,mdp,2024.2.1,Win32,60.97560976,66fa4ebf79326e780c390304,,,,,,,,,,,,,,,,,,,,,543.2129,543.2129,543.2135,544.2948,0,1,left,0.5621,,544.2954,545.461,1,1,right,545.4618,545.4623,,0,,0,545.4623,545.4623,545.4629,546.9593,0,33,33,33,1,0.6,0.4,0.6,0.4,,,,,,,,,,,,,,,0.644,,0.8,0.2,0.4,0.6,0.4,0.6,0.6,0.4,1,0,,,,,,,,,,,,
,,612512862963825fa66941bf,66fc97edc19adc597a67640e,2024-10-01_18h47.17.787,mdp,2024.2.1,Win32,60.97560976,66fa4ebf79326e780c390304,,,,,,,,,,,,,,,,,,,,,546.9596,546.9596,546.9602,547.8256,0,1,left,0.3407,,547.8263,549.1078,0,1,left,549.1086,549.1092,,0,,0,549.1092,549.1092,549.1099,550.6068,0,34,34,34,1,0.6,0.4,0.6,0.4,,,,,,,,,,,,,,,0.758,,0.8,0.2,0.4,0.6,0.4,0.6,0.6,0.4,1,0,,,,,,,,,,,,
,,612512862963825fa66941bf,66fc97edc19adc597a67640e,2024-10-01_18h47.17.787,mdp,2024.2.1,Win32,60.97560976,66fa4ebf79326e780c390304,,,,,,,,,,,,,,,,,,,,,550.6071,550.6071,550.608,551.9392,0,1,left,0.8102,,551.9399,555.2529,1,1,right,555.2535,555.2539,,0,,0,555.2539,555.2539,555.2543,556.7515,0,35,35,35,1,0.6,0.4,0.6,0.4,,,,,,,,,,,,,,,2.7817,,0.4,0.6,0.6,0.4,0.4,0.6,0.6,0.4,1,0,,,,,,,,,,,,
,,612512862963825fa66941bf,66fc97edc19adc597a67640e,2024-10-01_18h47.17.787,mdp,2024.2.1,Win32,60.97560976,66fa4ebf79326e780c390304,,,,,,,,,,,,,,,,,,,,,556.7519,556.7519,556.7524,557.6179,0,0,left,0.3448,,557.6185,559.2002,1,0,right,559.2009,559.2012,,0,,1,559.2014,559.2014,559.2017,560.699,0,36,36,36,1,0.6,0.4,0.6,0.4,,,,,,,,,,,,,,,1.0473,,0.4,0.6,0.6,0.4,0.4,0.6,0.6,0.4,1,0,,,,,,,,,,,,
,,612512862963825fa66941bf,66fc97edc19adc597a67640e,2024-10-01_18h47.17.787,mdp,2024.2.1,Win32,60.97560976,66fa4ebf79326e780c390304,,,,,,,,,,,,,,,,,,,,,560.6995,560.6995,560.7002,561.7479,0,1,left,0.516,,561.7487,563.1804,0,1,left,563.1811,563.1815,,1,,0,563.1815,563.1815,563.182,564.6795,0,37,37,37,1,0.6,0.4,0.6,0.4,,,,,,,,,,,,,,,0.8949,,0.8,0.2,0.2,0.8,0.4,0.6,0.6,0.4,1,0,,,,,,,,,,,,
,,612512862963825fa66941bf,66fc97edc19adc597a67640e,2024-10-01_18h47.17.787,mdp,2024.2.1,Win32,60.97560976,66fa4ebf79326e780c390304,,,,,,,,,,,,,,,,,,,,,564.6797,564.6797,564.6804,565.2455,0,1,left,0.0343,,565.2463,566.0444,1,1,right,566.0454,566.0458,,0,,0,566.0458,566.0458,566.0465,567.543,0,38,38,38,1,0.6,0.4,0.6,0.4,,,,,,,,,,,,,,,0.2689,,0.8,0.2,0.2,0.8,0.6,0.4,0.4,0.6,1,0,,,,,,,,,,,,
,,612512862963825fa66941bf,66fc97edc19adc597a67640e,2024-10-01_18h47.17.787,mdp,2024.2.1,Win32,60.97560976,66fa4ebf79326e780c390304,,,,,,,,,,,,,,,,,,,,,567.5433,567.5433,567.5441,568.3924,0,0,left,0.3152,,568.3931,569.3757,0,0,left,569.3764,569.3769,,0,,1,569.3769,569.3769,569.3773,570.8741,0,39,39,39,1,0.6,0.4,0.6,0.4,,,,,,,,,,,,,,,0.4474,,0.8,0.2,0.2,0.8,0.6,0.4,0.4,0.6,1,0,,,,,,,,,,,,
,,612512862963825fa66941bf,66fc97edc19adc597a67640e,2024-10-01_18h47.17.787,mdp,2024.2.1,Win32,60.97560976,66fa4ebf79326e780c390304,,,,,,,,,,,,,,,,,,,,,570.8744,570.8744,570.8752,571.8896,1,1,right,0.4886,,571.8904,573.0391,1,1,right,573.04,573.0405,,0,,0,573.0406,573.0406,573.0411,574.5374,0,40,40,40,1,0.6,0.4,0.6,0.4,,,,,,,,,,,,,,,0.6181,,0.6,0.4,0.8,0.2,0.6,0.4,0.4,0.6,1,0,,,,,,,,,,,,
,,612512862963825fa66941bf,66fc97edc19adc597a67640e,2024-10-01_18h47.17.787,mdp,2024.2.1,Win32,60.97560976,66fa4ebf79326e780c390304,,,,,,,,,,,,,,,,,,,,,574.5377,574.5377,574.5383,575.587,1,0,right,0.5237,,575.5878,576.5696,0,0,left,576.5704,576.5711,,1,,1,576.5712,576.5712,576.5717,578.0682,0,41,41,41,1,0.6,0.4,0.6,0.4,,,,,,,,,,,,,,,0.4476,,0.6,0.4,0.8,0.2,0.6,0.4,0.4,0.6,1,0,,,,,,,,,,,,
,,612512862963825fa66941bf,66fc97edc19adc597a67640e,2024-10-01_18h47.17.787,mdp,2024.2.1,Win32,60.97560976,66fa4ebf79326e780c390304,,,,,,,,,,,,,,,,,,,,,578.0685,578.0685,578.069,579.084,1,1,right,0.4948,,579.0845,580.3663,1,0,right,580.3672,580.3678,,0,,1,580.3678,580.3678,580.3686,581.8651,0,42,42,42,1,0.6,0.4,0.6,0.4,,,,,,,,,,,,,,,0.7544,,0.6,0.4,0.8,0.2,0.6,0.4,0.4,0.6,1,0,,,,,,,,,,,,
,,612512862963825fa66941bf,66fc97edc19adc597a67640e,2024-10-01_18h47.17.787,mdp,2024.2.1,Win32,60.97560976,66fa4ebf79326e780c390304,,,,,,,,,,,,,,,,,,,,,581.8654,581.8654,581.8663,582.9811,1,1,right,0.5859,,582.9818,584.1803,1,1,right,584.1809,584.1813,,0,,0,584.1813,584.1813,584.182,585.679,0,43,43,43,1,0.6,0.4,0.6,0.4,,,,,,,,,,,,,,,0.6766,,0.6,0.4,0.8,0.2,0.6,0.4,0.4,0.6,1,0,,,,,,,,,,,,
,,612512862963825fa66941bf,66fc97edc19adc597a67640e,2024-10-01_18h47.17.787,mdp,2024.2.1,Win32,60.97560976,66fa4ebf79326e780c390304,,,,,,,,,,,,,,,,,,,,,585.6793,585.6793,585.6801,586.9114,0,0,left,0.7027,,586.9122,588.1767,1,0,right,588.1775,588.1779,,0,,1,588.1779,588.1779,588.1784,589.6759,0,44,44,44,1,0.6,0.4,0.6,0.4,,,,,,,,,,,,,,,0.7416,,0.6,0.4,0.8,0.2,0.6,0.4,0.4,0.6,1,0,,,,,,,,,,,,
,,612512862963825fa66941bf,66fc97edc19adc597a67640e,2024-10-01_18h47.17.787,mdp,2024.2.1,Win32,60.97560976,66fa4ebf79326e780c390304,,,,,,,,,,,,,,,,,,,,,589.6761,589.6761,589.6769,590.5914,0,1,left,0.3953,,590.5922,591.6407,0,1,left,591.6416,591.6421,,0,,0,591.6422,591.6422,591.6427,593.14,0,45,45,45,1,0.6,0.4,0.6,0.4,,,,,,,,,,,,,,,0.5318,,0.6,0.4,0.8,0.2,0.6,0.4,0.4,0.6,1,0,,,,,,,,,,,,
,,612512862963825fa66941bf,66fc97edc19adc597a67640e,2024-10-01_18h47.17.787,mdp,2024.2.1,Win32,60.97560976,66fa4ebf79326e780c390304,,,,,,,,,,,,,,,,,,,,,593.1403,593.1404,593.1411,594.0056,0,0,left,0.3438,,594.0062,595.1384,0,0,left,595.1393,595.1398,,1,,1,595.1398,595.1398,595.1404,596.6366,0,46,46,46,1,0.6,0.4,0.6,0.4,,,,,,,,,,,,,,,0.6052,,0.6,0.4,0.8,0.2,0.6,0.4,0.4,0.6,1,0,,,,,,,,,,,,
,,612512862963825fa66941bf,66fc97edc19adc597a67640e,2024-10-01_18h47.17.787,mdp,2024.2.1,Win32,60.97560976,66fa4ebf79326e780c390304,,,,,,,,,,,,,,,,,,,,,596.637,596.637,596.6377,597.5196,0,1,left,0.3533,,597.5204,598.5855,1,1,right,598.5864,598.5871,,1,,0,598.5871,598.5871,598.5875,600.0843,0,47,47,47,1,0.6,0.4,0.6,0.4,,,,,,,,,,,,,,,0.5372,,0.6,0.4,0.8,0.2,0.6,0.4,0.4,0.6,1,0,,,,,,,,,,,,
,,612512862963825fa66941bf,66fc97edc19adc597a67640e,2024-10-01_18h47.17.787,mdp,2024.2.1,Win32,60.97560976,66fa4ebf79326e780c390304,,,,,,,,,,,,,,,,,,,,,600.0845,600.0845,600.0852,600.9008,0,0,left,0.286,,600.9016,602.0326,0,1,left,602.0333,602.0337,,1,,0,602.0337,602.0337,602.0341,603.5312,0,48,48,48,1,0.6,0.4,0.6,0.4,,,,,,,,,,,,,,,0.5975,,0.6,0.4,0.8,0.2,0.2,0.8,0.2,0.8,1,0,,,,,,,,,,,,
,,612512862963825fa66941bf,66fc97edc19adc597a67640e,2024-10-01_18h47.17.787,mdp,2024.2.1,Win32,60.97560976,66fa4ebf79326e780c390304,,,,,,,,,,,,,,,,,,,,,603.5314,603.5314,603.5322,607.7282,0,1,left,3.6662,,607.7291,608.661,0,1,left,608.6617,608.6622,,0,,0,608.6622,608.6622,608.6628,610.1594,0,49,49,49,1,0.6,0.4,0.6,0.4,,,,,,,,,,,,,,,0.3973,,0.6,0.4,0.8,0.2,0.2,0.8,0.2,0.8,1,0,,,,,,,,,,,,
,,612512862963825fa66941bf,66fc97edc19adc597a67640e,2024-10-01_18h47.17.787,mdp,2024.2.1,Win32,60.97560976,66fa4ebf79326e780c390304,,,,,,,,,,,,,,,,,,,,,,,,,,,,,,,,,,,,,,,,,,,,,,,,,,,,,,,,610.1595,656.924,0,1,1,2,1,imgs/kangaroo.png,imgs/giraffe.png,imgs/cat.png,imgs/goat.png,imgs/pig.png,,,,,,,,,,,,,,,,,,,,,,,,
,,612512862963825fa66941bf,66fc97edc19adc597a67640e,2024-10-01_18h47.17.787,mdp,2024.2.1,Win32,60.97560976,66fa4ebf79326e780c390304,,,,,,,,,,,,,,3,seqs/st3seq47.csv,656.9251,658.3047,space,0.8465,,658.3087,658.3087,658.3092,660.4695,0,0,left,1.6266,,660.4704,662.0017,0,0,left,662.0027,663.3176,0,1,left,0,663.3177,663.3177,663.3187,664.8164,0,0,0,0,1,0.6,0.4,0.4,0.6,,,,,,,,,,,,,,,0.9838,,0.8,0.2,0.4,0.6,0.8,0.2,0.2,0.8,,,0.7683,,0.6,0.4,0.4,0.6,0.6,0.4,0.8,0.2,1,0
,,612512862963825fa66941bf,66fc97edc19adc597a67640e,2024-10-01_18h47.17.787,mdp,2024.2.1,Win32,60.97560976,66fa4ebf79326e780c390304,,,,,,,,,,,,,,,,,,,,,664.8169,664.817,664.8181,665.8319,0,0,left,0.4966,,665.8327,667.4475,0,0,left,667.4484,668.3301,1,1,right,0,668.3302,668.3302,668.3311,669.8287,0,1,1,1,1,0.6,0.4,0.4,0.6,,,,,,,,,,,,,,,1.0846,,0.8,0.2,0.4,0.6,0.8,0.2,0.2,0.8,,,0.3576,,0.6,0.4,0.4,0.6,0.6,0.4,0.8,0.2,1,0
,,612512862963825fa66941bf,66fc97edc19adc597a67640e,2024-10-01_18h47.17.787,mdp,2024.2.1,Win32,60.97560976,66fa4ebf79326e780c390304,,,,,,,,,,,,,,,,,,,,,669.8291,669.8291,669.8301,671.9277,0,1,left,1.5728,,671.929,673.7097,0,0,left,673.7107,675.0417,1,1,right,0,675.0418,675.0418,675.0428,676.5403,0,2,2,2,1,0.6,0.4,0.4,0.6,,,,,,,,,,,,,,,1.2376,,0.8,0.2,0.4,0.6,0.8,0.2,0.2,0.8,,,0.7995,,0.6,0.4,0.4,0.6,0.6,0.4,0.8,0.2,1,0
,,612512862963825fa66941bf,66fc97edc19adc597a67640e,2024-10-01_18h47.17.787,mdp,2024.2.1,Win32,60.97560976,66fa4ebf79326e780c390304,,,,,,,,,,,,,,,,,,,,,676.5406,676.5406,676.5415,677.506,0,1,left,0.4444,,677.5071,678.3719,1,1,right,678.3726,679.2382,0,0,left,1,679.2383,679.2383,679.2393,680.7368,0,3,3,3,1,0.6,0.4,0.4,0.6,,,,,,,,,,,,,,,0.3458,,0.8,0.2,0.4,0.6,0.8,0.2,0.2,0.8,,,0.317,,0.6,0.4,0.4,0.6,0.6,0.4,0.8,0.2,1,0
,,612512862963825fa66941bf,66fc97edc19adc597a67640e,2024-10-01_18h47.17.787,mdp,2024.2.1,Win32,60.97560976,66fa4ebf79326e780c390304,,,,,,,,,,,,,,,,,,,,,680.7373,680.7373,680.7383,681.7862,0,1,left,0.5239,,681.7871,682.8853,1,1,right,682.8867,683.7012,0,0,left,1,683.7013,683.7013,683.7018,685.2003,0,4,4,4,1,0.6,0.4,0.4,0.6,,,,,,,,,,,,,,,0.5672,,0.8,0.2,0.4,0.6,0.8,0.2,0.2,0.8,,,0.2896,,0.4,0.6,0.6,0.4,0.6,0.4,0.8,0.2,1,0
,,612512862963825fa66941bf,66fc97edc19adc597a67640e,2024-10-01_18h47.17.787,mdp,2024.2.1,Win32,60.97560976,66fa4ebf79326e780c390304,,,,,,,,,,,,,,,,,,,,,685.2011,685.2011,685.2019,686.1829,0,0,left,0.4517,,686.1844,688.0311,0,0,left,688.032,689.0136,1,0,right,1,689.0137,689.0137,689.0145,690.5126,0,5,5,5,1,0.6,0.4,0.4,0.6,,,,,,,,,,,,,,,1.3115,,0.8,0.2,0.4,0.6,0.8,0.2,0.2,0.8,,,0.4445,,0.4,0.6,0.6,0.4,0.6,0.4,0.8,0.2,1,0
,,612512862963825fa66941bf,66fc97edc19adc597a67640e,2024-10-01_18h47.17.787,mdp,2024.2.1,Win32,60.97560976,66fa4ebf79326e780c390304,,,,,,,,,,,,,,,,,,,,,690.513,690.513,690.5139,691.5119,0,0,left,0.4736,,691.5128,693.0108,0,1,left,693.0116,694.776,0,0,left,1,694.776,694.776,694.7768,696.2748,0,6,6,6,1,0.6,0.4,0.4,0.6,,,,,,,,,,,,,,,0.9745,,0.8,0.2,0.4,0.6,0.8,0.2,0.2,0.8,,,1.2215,,0.4,0.6,0.6,0.4,0.6,0.4,0.8,0.2,1,0
,,612512862963825fa66941bf,66fc97edc19adc597a67640e,2024-10-01_18h47.17.787,mdp,2024.2.1,Win32,60.97560976,66fa4ebf79326e780c390304,,,,,,,,,,,,,,,,,,,,,696.2751,696.2751,696.276,697.2236,0,1,left,0.4299,,697.2243,698.8559,0,0,left,698.8567,699.8884,1,1,right,0,699.8886,699.8886,699.8896,701.3872,0,7,7,7,1,0.6,0.4,0.4,0.6,,,,,,,,,,,,,,,1.0856,,0.8,0.2,0.4,0.6,0.8,0.2,0.2,0.8,,,0.484,,0.4,0.6,0.6,0.4,0.6,0.4,0.8,0.2,1,0
,,612512862963825fa66941bf,66fc97edc19adc597a67640e,2024-10-01_18h47.17.787,mdp,2024.2.1,Win32,60.97560976,66fa4ebf79326e780c390304,,,,,,,,,,,,,,,,,,,,,701.3875,701.3875,701.3884,702.57,0,0,left,0.6494,,702.5713,703.9018,0,0,left,703.9025,705.1013,1,0,right,1,705.1014,705.1014,705.1027,706.6002,0,8,8,8,1,0.6,0.4,0.4,0.6,,,,,,,,,,,,,,,0.7945,,0.8,0.2,0.4,0.6,0.8,0.2,0.2,0.8,,,0.6724,,0.4,0.6,0.6,0.4,0.6,0.4,0.8,0.2,1,0
,,612512862963825fa66941bf,66fc97edc19adc597a67640e,2024-10-01_18h47.17.787,mdp,2024.2.1,Win32,60.97560976,66fa4ebf79326e780c390304,,,,,,,,,,,,,,,,,,,,,706.6007,706.6007,706.6016,707.4823,0,0,left,0.354,,707.4832,709.4811,0,0,left,709.4822,710.6305,1,0,right,1,710.6305,710.6305,710.6317,712.129,0,9,9,9,1,0.6,0.4,0.4,0.6,,,,,,,,,,,,,,,1.466,,0.8,0.2,0.4,0.6,0.8,0.2,0.2,0.8,,,0.6222,,0.4,0.6,0.6,0.4,0.6,0.4,0.8,0.2,1,0
,,612512862963825fa66941bf,66fc97edc19adc597a67640e,2024-10-01_18h47.17.787,mdp,2024.2.1,Win32,60.97560976,66fa4ebf79326e780c390304,,,,,,,,,,,,,,,,,,,,,712.1295,712.1295,712.1305,712.9612,0,1,left,0.3126,,712.9619,714.5936,0,1,left,714.5944,716.5252,0,1,left,0,716.5252,716.5252,716.526,718.0242,0,10,10,10,1,0.6,0.4,0.4,0.6,,,,,,,,,,,,,,,1.0958,,0.8,0.2,0.4,0.6,0.2,0.8,0.8,0.2,,,1.3959,,0.4,0.6,0.6,0.4,0.6,0.4,0.8,0.2,1,0
,,612512862963825fa66941bf,66fc97edc19adc597a67640e,2024-10-01_18h47.17.787,mdp,2024.2.1,Win32,60.97560976,66fa4ebf79326e780c390304,,,,,,,,,,,,,,,,,,,,,718.0246,718.0246,718.0254,719.7064,0,0,left,1.154,,719.7073,721.2384,0,0,left,721.2394,722.3875,1,0,right,1,722.3876,722.3876,722.3886,723.8864,0,11,11,11,1,0.6,0.4,0.4,0.6,,,,,,,,,,,,,,,0.9905,,0.8,0.2,0.4,0.6,0.2,0.8,0.8,0.2,,,0.6117,,0.4,0.6,0.6,0.4,0.6,0.4,0.8,0.2,1,0
,,612512862963825fa66941bf,66fc97edc19adc597a67640e,2024-10-01_18h47.17.787,mdp,2024.2.1,Win32,60.97560976,66fa4ebf79326e780c390304,,,,,,,,,,,,,,,,,,,,,723.8867,723.8867,723.8875,724.7855,0,1,left,0.3749,,724.7864,726.2344,0,1,left,726.2354,728.8321,0,1,left,0,728.8322,728.8322,728.8331,730.3308,0,12,12,12,1,0.6,0.4,0.4,0.6,,,,,,,,,,,,,,,0.9037,,0.8,0.2,0.4,0.6,0.2,0.8,0.8,0.2,,,2.0516,,0.4,0.6,0.6,0.4,0.6,0.4,0.8,0.2,1,0
,,612512862963825fa66941bf,66fc97edc19adc597a67640e,2024-10-01_18h47.17.787,mdp,2024.2.1,Win32,60.97560976,66fa4ebf79326e780c390304,,,,,,,,,,,,,,,,,,,,,730.3313,730.3313,730.3322,731.2967,0,0,left,0.4467,,731.2977,732.4126,0,1,left,732.4136,733.7283,1,1,right,0,733.7284,733.7284,733.7292,735.2269,0,13,13,13,1,0.6,0.4,0.4,0.6,,,,,,,,,,,,,,,0.5682,,0.8,0.2,0.4,0.6,0.2,0.8,0.8,0.2,,,0.7899,,0.4,0.6,0.6,0.4,0.2,0.8,0.6,0.4,1,0
,,612512862963825fa66941bf,66fc97edc19adc597a67640e,2024-10-01_18h47.17.787,mdp,2024.2.1,Win32,60.97560976,66fa4ebf79326e780c390304,,,,,,,,,,,,,,,,,,,,,735.2273,735.2273,735.2283,736.0597,0,1,left,0.3135,,736.0607,737.0255,0,1,left,737.0262,738.0252,0,1,left,0,738.0252,738.0252,738.026,739.5239,0,14,14,14,1,0.6,0.4,0.4,0.6,,,,,,,,,,,,,,,0.4302,,0.8,0.2,0.4,0.6,0.2,0.8,0.8,0.2,,,0.4681,,0.4,0.6,0.6,0.4,0.2,0.8,0.6,0.4,1,0
,,612512862963825fa66941bf,66fc97edc19adc597a67640e,2024-10-01_18h47.17.787,mdp,2024.2.1,Win32,60.97560976,66fa4ebf79326e780c390304,,,,,,,,,,,,,,,,,,,,,739.5242,739.5242,739.5249,740.8896,1,1,right,0.8329,,740.8908,743.354,1,0,right,743.355,744.703,0,0,left,1,744.7031,744.7031,744.7042,746.2019,0,15,15,15,1,0.6,0.4,0.4,0.6,,,,,,,,,,,,,,,1.9337,,0.8,0.2,0.4,0.6,0.2,0.8,0.8,0.2,,,0.8115,,0.4,0.6,0.6,0.4,0.2,0.8,0.6,0.4,1,0
,,612512862963825fa66941bf,66fc97edc19adc597a67640e,2024-10-01_18h47.17.787,mdp,2024.2.1,Win32,60.97560976,66fa4ebf79326e780c390304,,,,,,,,,,,,,,,,,,,,,746.2022,746.2022,746.203,747.0014,1,0,right,0.276,,747.0022,748.0506,0,0,left,748.052,749.2495,0,0,left,1,749.2496,749.2496,749.2506,750.7486,0,16,16,16,1,0.6,0.4,0.4,0.6,,,,,,,,,,,,,,,0.5047,,0.8,0.2,0.4,0.6,0.6,0.4,0.4,0.6,,,0.6658,,0.4,0.6,0.6,0.4,0.2,0.8,0.6,0.4,1,0
,,612512862963825fa66941bf,66fc97edc19adc597a67640e,2024-10-01_18h47.17.787,mdp,2024.2.1,Win32,60.97560976,66fa4ebf79326e780c390304,,,,,,,,,,,,,,,,,,,,,750.749,750.749,750.7501,751.5477,1,0,right,0.2692,,751.5489,752.4305,0,0,left,752.4315,753.3627,0,1,left,0,753.3627,753.3627,753.3637,754.8614,0,17,17,17,1,0.6,0.4,0.4,0.6,,,,,,,,,,,,,,,0.35,,0.8,0.2,0.4,0.6,0.6,0.4,0.4,0.6,,,0.4117,,0.4,0.6,0.6,0.4,0.2,0.8,0.6,0.4,1,0
,,612512862963825fa66941bf,66fc97edc19adc597a67640e,2024-10-01_18h47.17.787,mdp,2024.2.1,Win32,60.97560976,66fa4ebf79326e780c390304,,,,,,,,,,,,,,,,,,,,,754.8618,754.8618,754.8626,755.7609,1,0,right,0.3712,,755.7618,757.11,1,1,right,757.111,758.4422,0,1,left,0,758.4422,758.4423,758.4432,759.9407,0,18,18,18,1,0.6,0.4,0.4,0.6,,,,,,,,,,,,,,,0.8191,,0.8,0.2,0.4,0.6,0.6,0.4,0.4,0.6,,,0.7903,,0.4,0.6,0.6,0.4,0.2,0.8,0.6,0.4,1,0
,,612512862963825fa66941bf,66fc97edc19adc597a67640e,2024-10-01_18h47.17.787,mdp,2024.2.1,Win32,60.97560976,66fa4ebf79326e780c390304,,,,,,,,,,,,,,,,,,,,,759.9411,759.9411,759.9422,760.5738,1,1,right,0.1004,,760.5746,761.3896,1,1,right,761.3903,762.2556,1,0,right,1,762.2557,762.2557,762.2565,763.7546,0,19,19,19,1,0.6,0.4,0.4,0.6,,,,,,,,,,,,,,,0.2713,,0.8,0.2,0.4,0.6,0.6,0.4,0.4,0.6,,,0.3454,,0.4,0.6,0.6,0.4,0.2,0.8,0.6,0.4,1,0
,,612512862963825fa66941bf,66fc97edc19adc597a67640e,2024-10-01_18h47.17.787,mdp,2024.2.1,Win32,60.97560976,66fa4ebf79326e780c390304,,,,,,,,,,,,,,,,,,,,,763.755,763.755,763.7558,764.7211,1,1,right,0.4329,,764.722,765.5868,1,0,right,765.5878,766.7858,0,1,left,0,766.7859,766.7859,766.7869,768.2848,0,20,20,20,1,0.6,0.4,0.4,0.6,,,,,,,,,,,,,,,0.3337,,0.8,0.2,0.4,0.6,0.6,0.4,0.4,0.6,,,0.6483,,0.4,0.6,0.6,0.4,0.2,0.8,0.6,0.4,1,0
,,612512862963825fa66941bf,66fc97edc19adc597a67640e,2024-10-01_18h47.17.787,mdp,2024.2.1,Win32,60.97560976,66fa4ebf79326e780c390304,,,,,,,,,,,,,,,,,,,,,768.2853,768.2853,768.2863,769.0839,1,0,right,0.2697,,769.0848,770.1996,1,0,right,770.2006,771.4652,0,1,left,0,771.4653,771.4653,771.4662,772.9641,0,21,21,21,1,0.6,0.4,0.4,0.6,,,,,,,,,,,,,,,0.5657,,0.8,0.2,0.4,0.6,0.6,0.4,0.4,0.6,,,0.7448,,0.4,0.6,0.6,0.4,0.2,0.8,0.6,0.4,1,0
,,612512862963825fa66941bf,66fc97edc19adc597a67640e,2024-10-01_18h47.17.787,mdp,2024.2.1,Win32,60.97560976,66fa4ebf79326e780c390304,,,,,,,,,,,,,,,,,,,,,772.9645,772.9645,772.9653,773.7466,1,1,right,0.2614,,773.7475,775.0454,1,1,right,775.0462,776.4779,0,1,left,0,776.478,776.478,776.479,777.977,0,22,22,22,1,0.6,0.4,0.4,0.6,,,,,,,,,,,,,,,0.7625,,0.8,0.2,0.4,0.6,0.6,0.4,0.4,0.6,,,0.8831,,0.4,0.6,0.6,0.4,0.2,0.8,0.6,0.4,1,0
,,612512862963825fa66941bf,66fc97edc19adc597a67640e,2024-10-01_18h47.17.787,mdp,2024.2.1,Win32,60.97560976,66fa4ebf79326e780c390304,,,,,,,,,,,,,,,,,,,,,777.9774,777.9774,777.9784,778.7262,0,0,left,0.2286,,778.7273,779.542,0,0,left,779.5428,780.3746,0,0,left,1,780.3747,780.3747,780.3755,781.8733,0,23,23,23,1,0.6,0.4,0.4,0.6,,,,,,,,,,,,,,,0.2768,,0.8,0.2,0.4,0.6,0.6,0.4,0.4,0.6,,,0.29,,0.4,0.6,0.6,0.4,0.2,0.8,0.6,0.4,1,0
,,612512862963825fa66941bf,66fc97edc19adc597a67640e,2024-10-01_18h47.17.787,mdp,2024.2.1,Win32,60.97560976,66fa4ebf79326e780c390304,,,,,,,,,,,,,,,,,,,,,781.8737,781.8737,781.8745,789.9509,0,0,left,7.5451,,789.952,790.783,0,0,left,790.7841,791.5829,1,1,right,0,791.583,791.583,791.5838,793.0813,0,24,24,24,1,0.8,0.2,0.8,0.2,,,,,,,,,,,,,,,0.3131,,0.8,0.2,0.4,0.6,0.6,0.4,0.4,0.6,,,0.2741,,0.4,0.6,0.6,0.4,0.2,0.8,0.6,0.4,1,0
,,612512862963825fa66941bf,66fc97edc19adc597a67640e,2024-10-01_18h47.17.787,mdp,2024.2.1,Win32,60.97560976,66fa4ebf79326e780c390304,,,,,,,,,,,,,,,,,,,,,793.0819,793.0819,793.0833,812.6658,0,0,left,19.054,,812.6667,813.5987,0,0,left,813.5995,814.6313,1,0,right,1,814.6314,814.6314,814.6326,816.1301,0,25,25,25,1,0.8,0.2,0.8,0.2,,,,,,,,,,,,,,,0.4083,,0.8,0.2,0.4,0.6,0.6,0.4,0.4,0.6,,,0.5039,,0.8,0.2,0.8,0.2,0.2,0.8,0.6,0.4,1,0
,,612512862963825fa66941bf,66fc97edc19adc597a67640e,2024-10-01_18h47.17.787,mdp,2024.2.1,Win32,60.97560976,66fa4ebf79326e780c390304,,,,,,,,,,,,,,,,,,,,,816.1309,816.1309,816.1317,816.9624,0,0,left,0.2998,,816.9633,818.095,0,0,left,818.096,819.3604,0,0,left,1,819.3604,819.3604,819.3614,820.8592,0,26,26,26,1,0.8,0.2,0.8,0.2,,,,,,,,,,,,,,,0.6054,,0.8,0.2,0.4,0.6,0.6,0.4,0.4,0.6,,,0.7406,,0.8,0.2,0.8,0.2,0.2,0.8,0.6,0.4,1,0
,,612512862963825fa66941bf,66fc97edc19adc597a67640e,2024-10-01_18h47.17.787,mdp,2024.2.1,Win32,60.97560976,66fa4ebf79326e780c390304,,,,,,,,,,,,,,,,,,,,,820.8596,820.8596,820.8606,821.6256,0,0,left,0.2463,,821.6265,822.4915,0,0,left,822.4924,823.4575,0,0,left,1,823.4576,823.4576,823.4585,824.9562,0,27,27,27,1,0.8,0.2,0.8,0.2,,,,,,,,,,,,,,,0.3421,,0.8,0.2,0.4,0.6,0.6,0.4,0.4,0.6,,,0.4451,,0.8,0.2,0.8,0.2,0.2,0.8,0.6,0.4,1,0
,,612512862963825fa66941bf,66fc97edc19adc597a67640e,2024-10-01_18h47.17.787,mdp,2024.2.1,Win32,60.97560976,66fa4ebf79326e780c390304,,,,,,,,,,,,,,,,,,,,,824.9565,824.9565,824.9572,825.7392,0,0,left,0.2593,,825.7401,827.0213,0,0,left,827.0226,828.1704,0,0,left,1,828.1704,828.1704,828.1713,829.6692,0,28,28,28,1,0.8,0.2,0.8,0.2,,,,,,,,,,,,,,,0.7565,,0.8,0.2,0.4,0.6,0.6,0.4,0.4,0.6,,,0.6273,,0.8,0.2,0.8,0.2,0.2,0.8,0.6,0.4,1,0
,,612512862963825fa66941bf,66fc97edc19adc597a67640e,2024-10-01_18h47.17.787,mdp,2024.2.1,Win32,60.97560976,66fa4ebf79326e780c390304,,,,,,,,,,,,,,,,,,,,,829.6697,829.6697,829.6705,834.1822,0,0,left,3.985,,834.1832,835.0646,0,0,left,835.0652,836.1813,1,0,right,1,836.1813,836.1814,836.1823,837.6795,0,29,29,29,1,0.8,0.2,0.8,0.2,,,,,,,,,,,,,,,0.3622,,0.8,0.2,0.4,0.6,0.6,0.4,0.4,0.6,,,0.59,,0.2,0.8,0.4,0.6,0.2,0.8,0.6,0.4,1,0
,,612512862963825fa66941bf,66fc97edc19adc597a67640e,2024-10-01_18h47.17.787,mdp,2024.2.1,Win32,60.97560976,66fa4ebf79326e780c390304,,,,,,,,,,,,,,,,,,,,,837.6798,837.6798,837.6807,838.4787,0,0,left,0.2668,,838.4794,839.4446,0,0,left,839.4456,840.5276,1,1,right,0,840.5277,840.5277,840.5286,842.0258,0,30,30,30,1,0.8,0.2,0.8,0.2,,,,,,,,,,,,,,,0.4458,,0.8,0.2,0.4,0.6,0.6,0.4,0.4,0.6,,,0.5587,,0.2,0.8,0.4,0.6,0.2,0.8,0.6,0.4,1,0
,,612512862963825fa66941bf,66fc97edc19adc597a67640e,2024-10-01_18h47.17.787,mdp,2024.2.1,Win32,60.97560976,66fa4ebf79326e780c390304,,,,,,,,,,,,,,,,,,,,,842.0261,842.0261,842.0267,842.7755,0,0,left,0.2267,,842.7764,843.6745,0,0,left,843.6754,845.623,0,0,left,1,845.623,845.6231,845.624,847.122,0,31,31,31,1,0.8,0.2,0.8,0.2,,,,,,,,,,,,,,,0.3748,,0.8,0.2,0.4,0.6,0.6,0.4,0.4,0.6,,,1.4218,,0.2,0.8,0.4,0.6,0.2,0.8,0.6,0.4,1,0
,,612512862963825fa66941bf,66fc97edc19adc597a67640e,2024-10-01_18h47.17.787,mdp,2024.2.1,Win32,60.97560976,66fa4ebf79326e780c390304,,,,,,,,,,,,,,,,,,,,,847.1224,847.1224,847.1232,852.5344,0,0,left,4.8872,,852.5354,853.5171,0,1,left,853.5182,854.6826,1,0,right,1,854.6826,854.6826,854.6832,856.1812,0,32,32,32,1,0.8,0.2,0.8,0.2,,,,,,,,,,,,,,,0.449,,0.8,0.2,0.4,0.6,0.6,0.4,0.4,0.6,,,0.6179,,0.2,0.8,0.4,0.6,0.2,0.8,0.6,0.4,1,0
,,612512862963825fa66941bf,66fc97edc19adc597a67640e,2024-10-01_18h47.17.787,mdp,2024.2.1,Win32,60.97560976,66fa4ebf79326e780c390304,,,,,,,,,,,,,,,,,,,,,856.1816,856.1816,856.1826,857.0642,0,0,left,0.3513,,857.0652,857.8304,0,1,left,857.8314,859.0627,1,1,right,0,859.0628,859.0628,859.0636,860.5611,0,33,33,33,1,0.8,0.2,0.8,0.2,,,,,,,,,,,,,,,0.2382,,0.2,0.8,0.6,0.4,0.6,0.4,0.4,0.6,,,0.7057,,0.2,0.8,0.4,0.6,0.2,0.8,0.6,0.4,1,0
,,612512862963825fa66941bf,66fc97edc19adc597a67640e,2024-10-01_18h47.17.787,mdp,2024.2.1,Win32,60.97560976,66fa4ebf79326e780c390304,,,,,,,,,,,,,,,,,,,,,860.5615,860.5615,860.5624,861.3438,0,1,left,0.2638,,861.3447,862.2601,0,0,left,862.2613,863.3425,0,0,left,1,863.3425,863.3425,863.3432,864.8413,0,34,34,34,1,0.8,0.2,0.8,0.2,,,,,,,,,,,,,,,0.3671,,0.2,0.8,0.6,0.4,0.6,0.4,0.4,0.6,,,0.5338,,0.4,0.6,0.6,0.4,0.2,0.8,0.6,0.4,1,0
,,612512862963825fa66941bf,66fc97edc19adc597a67640e,2024-10-01_18h47.17.787,mdp,2024.2.1,Win32,60.97560976,66fa4ebf79326e780c390304,,,,,,,,,,,,,,,,,,,,,864.8416,864.8416,864.8422,865.6074,0,1,left,0.2445,,865.6083,866.4571,1,0,right,866.4581,867.4224,0,1,left,0,867.4225,867.4225,867.4235,868.9213,0,35,35,35,1,0.8,0.2,0.8,0.2,,,,,,,,,,,,,,,0.3173,,0.2,0.8,0.6,0.4,0.6,0.4,0.4,0.6,,,0.4439,,0.4,0.6,0.6,0.4,0.2,0.8,0.6,0.4,1,0
,,612512862963825fa66941bf,66fc97edc19adc597a67640e,2024-10-01_18h47.17.787,mdp,2024.2.1,Win32,60.97560976,66fa4ebf79326e780c390304,,,,,,,,,,,,,,,,,,,,,868.9217,868.9217,868.9226,869.538,0,1,left,0.0921,,869.5388,870.4536,1,0,right,870.4545,871.3027,1,0,right,1,871.3028,871.3028,871.3035,872.8016,0,36,36,36,1,0.8,0.2,0.8,0.2,,,,,,,,,,,,,,,0.3833,,0.4,0.6,0.8,0.2,0.6,0.4,0.4,0.6,,,0.3205,,0.4,0.6,0.6,0.4,0.2,0.8,0.6,0.4,1,0
,,612512862963825fa66941bf,66fc97edc19adc597a67640e,2024-10-01_18h47.17.787,mdp,2024.2.1,Win32,60.97560976,66fa4ebf79326e780c390304,,,,,,,,,,,,,,,,,,,,,872.8019,872.8019,872.8025,876.9652,0,0,left,3.633,,876.9659,877.7814,1,0,right,877.7823,878.7136,1,0,right,1,878.7137,878.7138,878.7145,880.2124,0,37,37,37,1,0.8,0.2,0.8,0.2,,,,,,,,,,,,,,,0.2679,,0.4,0.6,0.8,0.2,0.6,0.4,0.4,0.6,,,0.4104,,0.4,0.6,0.6,0.4,0.2,0.8,0.6,0.4,1,0
,,612512862963825fa66941bf,66fc97edc19adc597a67640e,2024-10-01_18h47.17.787,mdp,2024.2.1,Win32,60.97560976,66fa4ebf79326e780c390304,,,,,,,,,,,,,,,,,,,,,880.2128,880.2128,880.2139,890.6041,0,1,left,9.8662,,890.605,891.2206,0,0,left,891.2214,892.0699,0,1,left,0,892.07,892.07,892.0708,893.5686,0,38,38,38,1,0.8,0.2,0.8,0.2,,,,,,,,,,,,,,,0.0684,,0.4,0.6,0.8,0.2,0.6,0.4,0.4,0.6,,,0.3221,,0.4,0.6,0.6,0.4,0.2,0.8,0.6,0.4,1,0
,,612512862963825fa66941bf,66fc97edc19adc597a67640e,2024-10-01_18h47.17.787,mdp,2024.2.1,Win32,60.97560976,66fa4ebf79326e780c390304,,,,,,,,,,,,,,,,,,,,,893.569,893.569,893.5699,894.4177,0,1,left,0.3292,,894.4184,895.2341,1,1,right,895.2351,896.0664,0,1,left,0,896.0664,896.0664,896.0674,897.5652,0,39,39,39,1,0.8,0.2,0.8,0.2,,,,,,,,,,,,,,,0.2936,,0.8,0.2,0.2,0.8,0.6,0.4,0.4,0.6,,,0.2942,,0.4,0.6,0.6,0.4,0.2,0.8,0.6,0.4,1,0
,,612512862963825fa66941bf,66fc97edc19adc597a67640e,2024-10-01_18h47.17.787,mdp,2024.2.1,Win32,60.97560976,66fa4ebf79326e780c390304,,,,,,,,,,,,,,,,,,,,,897.5656,897.5656,897.5664,898.515,0,0,left,0.421,,898.516,899.5639,1,1,right,899.5651,900.6294,1,0,right,1,900.6295,900.6295,900.6305,902.1286,0,40,40,40,1,0.8,0.2,0.8,0.2,,,,,,,,,,,,,,,0.5001,,0.8,0.2,0.2,0.8,0.6,0.4,0.4,0.6,,,0.5354,,0.4,0.6,0.6,0.4,0.2,0.8,0.6,0.4,1,0
,,612512862963825fa66941bf,66fc97edc19adc597a67640e,2024-10-01_18h47.17.787,mdp,2024.2.1,Win32,60.97560976,66fa4ebf79326e780c390304,,,,,,,,,,,,,,,,,,,,,902.1289,902.1289,902.1297,902.9941,0,0,left,0.347,,902.9951,903.8605,1,1,right,903.8618,904.7767,1,1,right,0,904.7767,904.7767,904.7775,906.2754,0,41,41,41,1,0.8,0.2,0.8,0.2,,,,,,,,,,,,,,,0.3331,,0.8,0.2,0.2,0.8,0.6,0.4,0.4,0.6,,,0.3941,,0.4,0.6,0.6,0.4,0.6,0.4,0.2,0.8,1,0
,,612512862963825fa66941bf,66fc97edc19adc597a67640e,2024-10-01_18h47.17.787,mdp,2024.2.1,Win32,60.97560976,66fa4ebf79326e780c390304,,,,,,,,,,,,,,,,,,,,,906.2759,906.2759,906.2768,907.1243,0,1,left,0.3195,,907.1254,908.1238,1,0,right,908.1247,909.5894,1,0,right,1,909.5894,909.5895,909.5901,911.0879,0,42,42,42,1,0.8,0.2,0.8,0.2,,,,,,,,,,,,,,,0.4532,,0.8,0.2,0.2,0.8,0.6,0.4,0.4,0.6,,,0.9164,,0.4,0.6,0.6,0.4,0.6,0.4,0.2,0.8,1,0
,,612512862963825fa66941bf,66fc97edc19adc597a67640e,2024-10-01_18h47.17.787,mdp,2024.2.1,Win32,60.97560976,66fa4ebf79326e780c390304,,,,,,,,,,,,,,,,,,,,,911.0882,911.0882,911.089,911.9375,0,0,left,0.3253,,911.9384,912.8367,1,0,right,912.8376,914.0358,1,1,right,0,914.0359,914.0359,914.0367,915.5342,0,43,43,43,1,0.8,0.2,0.8,0.2,,,,,,,,,,,,,,,0.3522,,0.8,0.2,0.2,0.8,0.6,0.4,0.4,0.6,,,0.6757,,0.4,0.6,0.6,0.4,0.6,0.4,0.2,0.8,1,0
,,612512862963825fa66941bf,66fc97edc19adc597a67640e,2024-10-01_18h47.17.787,mdp,2024.2.1,Win32,60.97560976,66fa4ebf79326e780c390304,,,,,,,,,,,,,,,,,,,,,915.5346,915.5347,915.5354,922.8621,0,0,left,6.7992,,922.8632,923.5447,1,1,right,923.5456,924.2107,0,1,left,0,924.2107,924.2107,924.2114,925.7097,0,44,44,44,1,0.8,0.2,0.8,0.2,,,,,,,,,,,,,,,0.1605,,0.8,0.2,0.2,0.8,0.6,0.4,0.4,0.6,,,0.1277,,0.4,0.6,0.6,0.4,0.2,0.8,0.6,0.4,1,0
,,612512862963825fa66941bf,66fc97edc19adc597a67640e,2024-10-01_18h47.17.787,mdp,2024.2.1,Win32,60.97560976,66fa4ebf79326e780c390304,,,,,,,,,,,,,,,,,,,,,925.7101,925.7101,925.7108,926.509,0,0,left,0.2712,,926.51,927.2749,1,1,right,927.2757,928.0578,1,1,right,0,928.0579,928.0579,928.0588,929.5568,0,45,45,45,1,0.8,0.2,0.8,0.2,,,,,,,,,,,,,,,0.2631,,0.8,0.2,0.2,0.8,0.6,0.4,0.4,0.6,,,0.2514,,0.4,0.6,0.6,0.4,0.2,0.8,0.6,0.4,1,0
,,612512862963825fa66941bf,66fc97edc19adc597a67640e,2024-10-01_18h47.17.787,mdp,2024.2.1,Win32,60.97560976,66fa4ebf79326e780c390304,,,,,,,,,,,,,,,,,,,,,929.5571,929.5571,929.5579,940.4479,0,0,left,10.3638,,940.4489,941.0144,1,0,right,941.0154,941.947,0,0,left,1,941.9472,941.9472,941.9483,943.4457,0,46,46,46,1,0.8,0.2,0.8,0.2,,,,,,,,,,,,,,,0.0423,,0.8,0.2,0.2,0.8,0.6,0.4,0.4,0.6,,,0.3836,,0.4,0.6,0.6,0.4,0.2,0.8,0.6,0.4,1,0
,,612512862963825fa66941bf,66fc97edc19adc597a67640e,2024-10-01_18h47.17.787,mdp,2024.2.1,Win32,60.97560976,66fa4ebf79326e780c390304,,,,,,,,,,,,,,,,,,,,,943.4461,943.4462,943.4469,949.5243,0,0,left,5.5503,,949.5253,950.2907,1,1,right,950.2916,951.0062,1,1,right,0,951.0062,951.0062,951.0071,952.5051,0,47,47,47,1,0.8,0.2,0.8,0.2,,,,,,,,,,,,,,,0.243,,0.8,0.2,0.2,0.8,0.6,0.4,0.4,0.6,,,0.18,,0.4,0.6,0.6,0.4,0.2,0.8,0.6,0.4,1,0
,,612512862963825fa66941bf,66fc97edc19adc597a67640e,2024-10-01_18h47.17.787,mdp,2024.2.1,Win32,60.97560976,66fa4ebf79326e780c390304,,,,,,,,,,,,,,,,,,,,,952.5055,952.5055,952.5064,953.3045,1,0,right,0.2666,,953.3054,954.1371,1,1,right,954.1379,954.9035,1,1,right,0,954.9036,954.9036,954.9044,956.4021,0,48,48,48,1,0.8,0.2,0.8,0.2,,,,,,,,,,,,,,,0.3005,,0.8,0.2,0.2,0.8,0.6,0.4,0.4,0.6,,,0.2389,,0.4,0.6,0.6,0.4,0.2,0.8,0.6,0.4,1,0
,,612512862963825fa66941bf,66fc97edc19adc597a67640e,2024-10-01_18h47.17.787,mdp,2024.2.1,Win32,60.97560976,66fa4ebf79326e780c390304,,,,,,,,,,,,,,,,,,,,,956.4025,956.4025,956.4034,957.1847,1,0,right,0.252,,957.1857,958.0011,1,0,right,958.0024,959.35,1,0,right,1,959.35,959.35,959.3509,960.8485,0,49,49,49,1,0.8,0.2,0.8,0.2,,,,,,,,,,,,,,,0.2842,,0.8,0.2,0.2,0.8,0.6,0.4,0.4,0.6,,,0.8122,,0.4,0.6,0.6,0.4,0.2,0.8,0.6,0.4,1,0
,,612512862963825fa66941bf,66fc97edc19adc597a67640e,2024-10-01_18h47.17.787,mdp,2024.2.1,Win32,60.97560976,66fa4ebf79326e780c390304,,,,,,,,,,,,,,,,,,,,,,,,,,,,,,,,,,,,,,,,,,,,,,,,,,,,,,,,960.8486,1019.3523,0,2,2,3,1,imgs/giraffe.png,imgs/squirrel.png,imgs/rabbit.png,imgs/goat.png,imgs/lion.png,,,,,,,,,,,,,,,,,,,,,,,,
,,612512862963825fa66941bf,66fc97edc19adc597a67640e,2024-10-01_18h47.17.787,mdp,2024.2.1,Win32,60.97560976,66fa4ebf79326e780c390304,,,,,,,,,,,,,,3,seqs/st3seq0.csv,1019.3527,1025.4475,space,5.5625,,1025.4514,1025.4514,1025.4521,1027.579,0,1,left,1.6122,,1027.58,1028.5115,0,1,left,1028.5126,1029.461,1,1,right,0,1029.461,1029.461,1029.462,1030.9596,0,0,0,0,1,0.2,0.8,0.8,0.2,,,,,,,,,,,,,,,0.3882,,0.6,0.4,0.4,0.6,0.2,0.8,0.6,0.4,,,0.4004,,0.8,0.2,0.2,0.8,0.4,0.6,0.2,0.8,1,0
,,612512862963825fa66941bf,66fc97edc19adc597a67640e,2024-10-01_18h47.17.787,mdp,2024.2.1,Win32,60.97560976,66fa4ebf79326e780c390304,,,,,,,,,,,,,,,,,,,,,1030.9601,1030.9601,1030.9609,1031.7423,0,1,left,0.2626,,1031.7431,1032.8581,0,1,left,1032.859,1033.874,0,1,left,0,1033.8741,1033.8741,1033.8749,1035.3728,0,1,1,1,1,0.2,0.8,0.8,0.2,,,,,,,,,,,,,,,0.5961,,0.6,0.4,0.4,0.6,0.2,0.8,0.6,0.4,,,0.4858,,0.8,0.2,0.2,0.8,0.4,0.6,0.2,0.8,1,0
,,612512862963825fa66941bf,66fc97edc19adc597a67640e,2024-10-01_18h47.17.787,mdp,2024.2.1,Win32,60.97560976,66fa4ebf79326e780c390304,,,,,,,,,,,,,,,,,,,,,1035.3732,1035.3732,1035.3742,1036.1891,0,1,left,0.2861,,1036.1899,1037.0214,0,1,left,1037.0222,1037.9213,1,1,right,0,1037.9214,1037.9214,1037.9221,1039.4202,0,2,2,2,1,0.2,0.8,0.8,0.2,,,,,,,,,,,,,,,0.3135,,0.6,0.4,0.4,0.6,0.2,0.8,0.6,0.4,,,0.3676,,0.8,0.2,0.2,0.8,0.4,0.6,0.2,0.8,1,0
,,612512862963825fa66941bf,66fc97edc19adc597a67640e,2024-10-01_18h47.17.787,mdp,2024.2.1,Win32,60.97560976,66fa4ebf79326e780c390304,,,,,,,,,,,,,,,,,,,,,1039.4206,1039.4206,1039.4215,1040.2522,1,0,right,0.3007,,1040.2532,1041.1018,0,1,left,1041.1028,1042.0511,0,1,left,0,1042.0512,1042.0512,1042.0522,1043.5498,0,3,3,3,1,0.2,0.8,0.8,0.2,,,,,,,,,,,,,,,0.3262,,0.2,0.8,0.8,0.2,0.2,0.8,0.6,0.4,,,0.4223,,0.8,0.2,0.2,0.8,0.4,0.6,0.2,0.8,1,0
,,612512862963825fa66941bf,66fc97edc19adc597a67640e,2024-10-01_18h47.17.787,mdp,2024.2.1,Win32,60.97560976,66fa4ebf79326e780c390304,,,,,,,,,,,,,,,,,,,,,1043.5502,1043.5502,1043.5513,1044.116,1,0,right,0.0424,,1044.1172,1045.0821,1,1,right,1045.0833,1045.9979,0,0,left,1,1045.9979,1045.9979,1045.999,1047.4966,0,4,4,4,1,0.2,0.8,0.8,0.2,,,,,,,,,,,,,,,0.4369,,0.2,0.8,0.8,0.2,0.2,0.8,0.6,0.4,,,0.385,,0.8,0.2,0.2,0.8,0.4,0.6,0.2,0.8,1,0
,,612512862963825fa66941bf,66fc97edc19adc597a67640e,2024-10-01_18h47.17.787,mdp,2024.2.1,Win32,60.97560976,66fa4ebf79326e780c390304,,,,,,,,,,,,,,,,,,,,,1047.4971,1047.4971,1047.4979,1052.4592,1,0,right,4.4435,,1052.4601,1053.242,1,1,right,1053.2428,1053.9081,0,0,left,1,1053.9081,1053.9081,1053.909,1055.4071,0,5,5,5,1,0.2,0.8,0.8,0.2,,,,,,,,,,,,,,,0.2606,,0.2,0.8,0.8,0.2,0.2,0.8,0.6,0.4,,,0.1469,,0.8,0.2,0.2,0.8,0.4,0.6,0.2,0.8,1,0
,,612512862963825fa66941bf,66fc97edc19adc597a67640e,2024-10-01_18h47.17.787,mdp,2024.2.1,Win32,60.97560976,66fa4ebf79326e780c390304,,,,,,,,,,,,,,,,,,,,,1055.4075,1055.4075,1055.4083,1062.0691,1,0,right,6.1336,,1062.07,1062.9014,1,0,right,1062.9024,1063.6673,0,0,left,1,1063.6673,1063.6673,1063.6681,1065.1665,0,6,6,6,1,0.2,0.8,0.8,0.2,,,,,,,,,,,,,,,0.3069,,0.2,0.8,0.8,0.2,0.2,0.8,0.6,0.4,,,0.2241,,0.8,0.2,0.2,0.8,0.4,0.6,0.2,0.8,1,0
,,612512862963825fa66941bf,66fc97edc19adc597a67640e,2024-10-01_18h47.17.787,mdp,2024.2.1,Win32,60.97560976,66fa4ebf79326e780c390304,,,,,,,,,,,,,,,,,,,,,1065.1671,1065.1671,1065.1679,1065.8323,1,0,right,0.1378,,1065.8332,1066.582,1,0,right,1066.5828,1067.3642,0,1,left,0,1067.3642,1067.3642,1067.365,1068.8631,0,7,7,7,1,0.2,0.8,0.8,0.2,,,,,,,,,,,,,,,0.2284,,0.2,0.8,0.8,0.2,0.2,0.8,0.6,0.4,,,0.2547,,0.8,0.2,0.2,0.8,0.4,0.6,0.2,0.8,1,0
,,612512862963825fa66941bf,66fc97edc19adc597a67640e,2024-10-01_18h47.17.787,mdp,2024.2.1,Win32,60.97560976,66fa4ebf79326e780c390304,,,,,,,,,,,,,,,,,,,,,1068.8635,1068.8635,1068.8648,1069.5126,1,0,right,0.1283,,1069.5134,1070.2784,1,1,right,1070.2792,1071.3447,0,0,left,1,1071.3447,1071.3447,1071.3456,1072.8434,0,8,8,8,1,0.2,0.8,0.8,0.2,,,,,,,,,,,,,,,0.2334,,0.6,0.4,0.2,0.8,0.2,0.8,0.6,0.4,,,0.525,,0.8,0.2,0.2,0.8,0.4,0.6,0.2,0.8,1,0
,,612512862963825fa66941bf,66fc97edc19adc597a67640e,2024-10-01_18h47.17.787,mdp,2024.2.1,Win32,60.97560976,66fa4ebf79326e780c390304,,,,,,,,,,,,,,,,,,,,,1072.8437,1072.8437,1072.8447,1073.7258,1,0,right,0.3495,,1073.7265,1074.642,0,1,left,1074.643,1075.5746,1,1,right,0,1075.5747,1075.5747,1075.5757,1077.0732,0,9,9,9,1,0.2,0.8,0.8,0.2,,,,,,,,,,,,,,,0.3911,,0.6,0.4,0.2,0.8,0.2,0.8,0.6,0.4,,,0.4004,,0.8,0.2,0.2,0.8,0.4,0.6,0.2,0.8,1,0
,,612512862963825fa66941bf,66fc97edc19adc597a67640e,2024-10-01_18h47.17.787,mdp,2024.2.1,Win32,60.97560976,66fa4ebf79326e780c390304,,,,,,,,,,,,,,,,,,,,,1077.0735,1077.0735,1077.0744,1077.9227,1,0,right,0.3211,,1077.9237,1078.7218,0,1,left,1078.7224,1079.4883,0,0,left,1,1079.4883,1079.4884,1079.4892,1080.9866,0,10,10,10,1,0.2,0.8,0.8,0.2,,,,,,,,,,,,,,,0.2796,,0.6,0.4,0.2,0.8,0.2,0.8,0.6,0.4,,,0.2449,,0.8,0.2,0.2,0.8,0.4,0.6,0.2,0.8,1,0
,,612512862963825fa66941bf,66fc97edc19adc597a67640e,2024-10-01_18h47.17.787,mdp,2024.2.1,Win32,60.97560976,66fa4ebf79326e780c390304,,,,,,,,,,,,,,,,,,,,,1080.9869,1080.9869,1080.9879,1081.8198,1,0,right,0.3003,,1081.8207,1082.6191,0,0,left,1082.6199,1083.5183,0,0,left,1,1083.5183,1083.5183,1083.5192,1085.017,0,11,11,11,1,0.4,0.6,0.6,0.4,,,,,,,,,,,,,,,0.2672,,0.6,0.4,0.2,0.8,0.2,0.8,0.6,0.4,,,0.3554,,0.8,0.2,0.2,0.8,0.4,0.6,0.2,0.8,1,0
,,612512862963825fa66941bf,66fc97edc19adc597a67640e,2024-10-01_18h47.17.787,mdp,2024.2.1,Win32,60.97560976,66fa4ebf79326e780c390304,,,,,,,,,,,,,,,,,,,,,1085.0173,1085.0173,1085.0182,1085.8665,1,1,right,0.3218,,1085.8674,1086.6491,0,1,left,1086.6499,1087.6814,1,1,right,0,1087.6814,1087.6814,1087.6823,1089.1802,0,12,12,12,1,0.4,0.6,0.6,0.4,,,,,,,,,,,,,,,0.239,,0.6,0.4,0.2,0.8,0.2,0.8,0.6,0.4,,,0.4952,,0.8,0.2,0.2,0.8,0.4,0.6,0.2,0.8,1,0
,,612512862963825fa66941bf,66fc97edc19adc597a67640e,2024-10-01_18h47.17.787,mdp,2024.2.1,Win32,60.97560976,66fa4ebf79326e780c390304,,,,,,,,,,,,,,,,,,,,,1089.1805,1089.1805,1089.1814,1090.013,0,1,left,0.3032,,1090.0137,1090.9125,1,0,right,1090.9133,1091.5952,0,0,left,1,1091.5953,1091.5954,1091.5965,1093.0937,0,13,13,13,1,0.2,0.8,0.8,0.2,,,,,,,,,,,,,,,0.3665,,0.6,0.4,0.2,0.8,0.2,0.8,0.6,0.4,,,0.1358,,0.8,0.2,0.2,0.8,0.4,0.6,0.2,0.8,1,0
,,612512862963825fa66941bf,66fc97edc19adc597a67640e,2024-10-01_18h47.17.787,mdp,2024.2.1,Win32,60.97560976,66fa4ebf79326e780c390304,,,,,,,,,,,,,,,,,,,,,1093.094,1093.0941,1093.0949,1094.2096,0,1,left,0.595,,1094.2106,1094.9921,1,0,right,1094.9928,1096.0585,0,0,left,1,1096.0585,1096.0586,1096.0594,1097.5571,0,14,14,14,1,0.2,0.8,0.8,0.2,,,,,,,,,,,,,,,0.264,,0.6,0.4,0.2,0.8,0.2,0.8,0.6,0.4,,,0.5494,,0.8,0.2,0.2,0.8,0.4,0.6,0.2,0.8,1,0
,,612512862963825fa66941bf,66fc97edc19adc597a67640e,2024-10-01_18h47.17.787,mdp,2024.2.1,Win32,60.97560976,66fa4ebf79326e780c390304,,,,,,,,,,,,,,,,,,,,,1097.5574,1097.5574,1097.5582,1098.6397,1,1,right,0.5503,,1098.6405,1099.4221,0,1,left,1099.423,1100.305,0,1,left,0,1100.3051,1100.3051,1100.3059,1101.8034,0,15,15,15,1,0.2,0.8,0.8,0.2,,,,,,,,,,,,,,,0.2633,,0.6,0.4,0.2,0.8,0.2,0.8,0.6,0.4,,,0.3446,,0.8,0.2,0.2,0.8,0.4,0.6,0.2,0.8,1,0
,,612512862963825fa66941bf,66fc97edc19adc597a67640e,2024-10-01_18h47.17.787,mdp,2024.2.1,Win32,60.97560976,66fa4ebf79326e780c390304,,,,,,,,,,,,,,,,,,,,,1101.8037,1101.8037,1101.8046,1104.3018,1,0,right,1.971,,1104.3027,1105.118,0,0,left,1105.119,1105.8837,0,0,left,1,1105.8837,1105.8837,1105.8843,1107.3827,0,16,16,16,1,0.2,0.8,0.8,0.2,,,,,,,,,,,,,,,0.2731,,0.6,0.4,0.2,0.8,0.2,0.8,0.6,0.4,,,0.23,,0.8,0.2,0.2,0.8,0.4,0.6,0.2,0.8,1,0
,,612512862963825fa66941bf,66fc97edc19adc597a67640e,2024-10-01_18h47.17.787,mdp,2024.2.1,Win32,60.97560976,66fa4ebf79326e780c390304,,,,,,,,,,,,,,,,,,,,,1107.383,1107.383,1107.3836,1108.2151,1,0,right,0.3088,,1108.216,1109.0318,0,1,left,1109.0328,1109.8471,0,1,left,0,1109.8472,1109.8472,1109.8482,1111.346,0,17,17,17,1,0.2,0.8,0.8,0.2,,,,,,,,,,,,,,,0.2845,,0.6,0.4,0.2,0.8,0.4,0.6,0.2,0.8,,,0.2754,,0.8,0.2,0.2,0.8,0.4,0.6,0.2,0.8,1,0
,,612512862963825fa66941bf,66fc97edc19adc597a67640e,2024-10-01_18h47.17.787,mdp,2024.2.1,Win32,60.97560976,66fa4ebf79326e780c390304,,,,,,,,,,,,,,,,,,,,,1111.3463,1111.3464,1111.3471,1120.7555,0,1,left,8.8774,,1120.7568,1121.5048,0,0,left,1121.5058,1122.3209,0,1,left,0,1122.3211,1122.3211,1122.3219,1123.8199,0,18,18,18,1,0.2,0.8,0.8,0.2,,,,,,,,,,,,,,,0.204,,0.6,0.4,0.2,0.8,0.4,0.6,0.2,0.8,,,0.2675,,0.8,0.2,0.2,0.8,0.4,0.6,0.2,0.8,1,0
,,612512862963825fa66941bf,66fc97edc19adc597a67640e,2024-10-01_18h47.17.787,mdp,2024.2.1,Win32,60.97560976,66fa4ebf79326e780c390304,,,,,,,,,,,,,,,,,,,,,1123.8203,1123.8203,1123.8211,1137.6418,1,0,right,13.2956,,1137.6428,1138.3415,1,1,right,1138.3426,1139.0576,0,0,left,1,1139.0577,1139.0577,1139.0587,1140.5565,0,19,19,19,1,0.2,0.8,0.8,0.2,,,,,,,,,,,,,,,0.1597,,0.6,0.4,0.2,0.8,0.4,0.6,0.2,0.8,,,0.1701,,0.8,0.2,0.2,0.8,0.6,0.4,0.6,0.4,1,0
,,612512862963825fa66941bf,66fc97edc19adc597a67640e,2024-10-01_18h47.17.787,mdp,2024.2.1,Win32,60.97560976,66fa4ebf79326e780c390304,,,,,,,,,,,,,,,,,,,,,1140.5567,1140.5567,1140.5573,1141.3556,1,1,right,0.2672,,1141.3565,1142.2051,1,1,right,1142.2059,1143.0212,0,1,left,0,1143.0213,1143.0213,1143.0224,1144.5199,0,20,20,20,1,0.2,0.8,0.8,0.2,,,,,,,,,,,,,,,0.304,,0.6,0.4,0.2,0.8,0.4,0.6,0.2,0.8,,,0.2915,,0.8,0.2,0.2,0.8,0.6,0.4,0.6,0.4,1,0
,,612512862963825fa66941bf,66fc97edc19adc597a67640e,2024-10-01_18h47.17.787,mdp,2024.2.1,Win32,60.97560976,66fa4ebf79326e780c390304,,,,,,,,,,,,,,,,,,,,,1144.5202,1144.5203,1144.5211,1150.2318,0,1,left,5.1794,,1150.2328,1150.9314,1,1,right,1150.9323,1151.6312,0,1,left,0,1151.6313,1151.6313,1151.6323,1153.1296,0,21,21,21,1,0.2,0.8,0.8,0.2,,,,,,,,,,,,,,,0.1759,,0.6,0.4,0.2,0.8,0.4,0.6,0.2,0.8,,,0.1785,,0.8,0.2,0.2,0.8,0.6,0.4,0.6,0.4,1,0
,,612512862963825fa66941bf,66fc97edc19adc597a67640e,2024-10-01_18h47.17.787,mdp,2024.2.1,Win32,60.97560976,66fa4ebf79326e780c390304,,,,,,,,,,,,,,,,,,,,,1153.13,1153.13,1153.1308,1153.9294,0,0,left,0.273,,1153.9302,1154.6617,1,1,right,1154.6624,1155.4778,0,1,left,0,1155.4779,1155.4779,1155.4787,1156.9768,0,22,22,22,1,0.2,0.8,0.8,0.2,,,,,,,,,,,,,,,0.1906,,0.6,0.4,0.2,0.8,0.4,0.6,0.2,0.8,,,0.286,,0.8,0.2,0.2,0.8,0.6,0.4,0.6,0.4,1,0
,,612512862963825fa66941bf,66fc97edc19adc597a67640e,2024-10-01_18h47.17.787,mdp,2024.2.1,Win32,60.97560976,66fa4ebf79326e780c390304,,,,,,,,,,,,,,,,,,,,,1156.9771,1156.9771,1156.9779,1157.8431,1,0,right,0.3336,,1157.8439,1158.7587,1,1,right,1158.7595,1159.4249,1,0,right,1,1159.4249,1159.4249,1159.4257,1160.9234,0,23,23,23,1,0.2,0.8,0.8,0.2,,,,,,,,,,,,,,,0.3976,,0.6,0.4,0.2,0.8,0.4,0.6,0.2,0.8,,,0.1432,,0.8,0.2,0.2,0.8,0.6,0.4,0.6,0.4,1,0
,,612512862963825fa66941bf,66fc97edc19adc597a67640e,2024-10-01_18h47.17.787,mdp,2024.2.1,Win32,60.97560976,66fa4ebf79326e780c390304,,,,,,,,,,,,,,,,,,,,,1160.9237,1160.9237,1160.9246,1165.8531,1,1,right,4.401,,1165.854,1166.4049,0,0,left,1166.4055,1167.0519,0,0,left,1,1167.0519,1167.0519,1167.0526,1168.551,0,24,24,24,1,0.2,0.8,0.8,0.2,,,,,,,,,,,,,,,0.0167,,0.6,0.4,0.2,0.8,0.4,0.6,0.2,0.8,,,0.1051,,0.8,0.2,0.2,0.8,0.6,0.4,0.6,0.4,1,0
,,612512862963825fa66941bf,66fc97edc19adc597a67640e,2024-10-01_18h47.17.787,mdp,2024.2.1,Win32,60.97560976,66fa4ebf79326e780c390304,,,,,,,,,,,,,,,,,,,,,1168.5515,1168.5515,1168.5521,1169.3501,1,0,right,0.2785,,1169.3511,1170.0998,0,0,left,1170.1007,1171.0321,0,1,left,0,1171.0322,1171.0322,1171.0333,1172.5313,0,25,25,25,1,0.2,0.8,0.8,0.2,,,,,,,,,,,,,,,0.2054,,0.6,0.4,0.2,0.8,0.4,0.6,0.2,0.8,,,0.4137,,0.8,0.2,0.2,0.8,0.6,0.4,0.6,0.4,1,0
,,612512862963825fa66941bf,66fc97edc19adc597a67640e,2024-10-01_18h47.17.787,mdp,2024.2.1,Win32,60.97560976,66fa4ebf79326e780c390304,,,,,,,,,,,,,,,,,,,,,1172.5318,1172.5318,1172.5326,1173.4968,1,1,right,0.4333,,1173.4979,1174.2796,0,1,left,1174.2805,1175.2122,1,1,right,0,1175.2124,1175.2124,1175.2132,1176.7112,0,26,26,26,1,0.2,0.8,0.8,0.2,,,,,,,,,,,,,,,0.2373,,0.6,0.4,0.2,0.8,0.4,0.6,0.2,0.8,,,0.3863,,0.8,0.2,0.2,0.8,0.6,0.4,0.6,0.4,1,0
,,612512862963825fa66941bf,66fc97edc19adc597a67640e,2024-10-01_18h47.17.787,mdp,2024.2.1,Win32,60.97560976,66fa4ebf79326e780c390304,,,,,,,,,,,,,,,,,,,,,1176.7116,1176.7116,1176.7123,1177.4603,1,0,right,0.23,,1177.4612,1178.2934,0,0,left,1178.2947,1179.0424,0,1,left,0,1179.0425,1179.0425,1179.0434,1180.5411,0,27,27,27,1,0.2,0.8,0.8,0.2,,,,,,,,,,,,,,,0.2833,,0.6,0.4,0.2,0.8,0.4,0.6,0.2,0.8,,,0.2087,,0.8,0.2,0.2,0.8,0.6,0.4,0.6,0.4,1,0
,,612512862963825fa66941bf,66fc97edc19adc597a67640e,2024-10-01_18h47.17.787,mdp,2024.2.1,Win32,60.97560976,66fa4ebf79326e780c390304,,,,,,,,,,,,,,,,,,,,,1180.5415,1180.5415,1180.5425,1181.1577,0,0,left,0.0915,,1181.1585,1181.9235,0,0,left,1181.9244,1182.7232,1,1,right,0,1182.7232,1182.7232,1182.7244,1184.2216,0,28,28,28,1,0.2,0.8,0.8,0.2,,,,,,,,,,,,,,,0.2373,,0.6,0.4,0.2,0.8,0.4,0.6,0.2,0.8,,,0.287,,0.8,0.2,0.2,0.8,0.6,0.4,0.6,0.4,1,0
,,612512862963825fa66941bf,66fc97edc19adc597a67640e,2024-10-01_18h47.17.787,mdp,2024.2.1,Win32,60.97560976,66fa4ebf79326e780c390304,,,,,,,,,,,,,,,,,,,,,1184.222,1184.222,1184.2228,1185.1709,0,0,left,0.4274,,1185.1718,1186.0873,0,1,left,1186.0881,1187.2199,0,0,left,1,1187.22,1187.22,1187.221,1188.7183,0,29,29,29,1,0.2,0.8,0.8,0.2,,,,,,,,,,,,,,,0.3864,,0.6,0.4,0.2,0.8,0.4,0.6,0.2,0.8,,,0.5847,,0.8,0.2,0.2,0.8,0.6,0.4,0.6,0.4,1,0
,,612512862963825fa66941bf,66fc97edc19adc597a67640e,2024-10-01_18h47.17.787,mdp,2024.2.1,Win32,60.97560976,66fa4ebf79326e780c390304,,,,,,,,,,,,,,,,,,,,,1188.7186,1188.7186,1188.7195,1189.5014,0,0,left,0.2524,,1189.5025,1190.3335,0,1,left,1190.3345,1191.316,0,0,left,1,1191.316,1191.316,1191.3168,1192.8149,0,30,30,30,1,0.2,0.8,0.8,0.2,,,,,,,,,,,,,,,0.3061,,0.4,0.6,0.8,0.2,0.4,0.6,0.2,0.8,,,0.4623,,0.8,0.2,0.2,0.8,0.6,0.4,0.6,0.4,1,0
,,612512862963825fa66941bf,66fc97edc19adc597a67640e,2024-10-01_18h47.17.787,mdp,2024.2.1,Win32,60.97560976,66fa4ebf79326e780c390304,,,,,,,,,,,,,,,,,,,,,1192.8152,1192.8152,1192.8159,1193.6642,0,0,left,0.3167,,1193.6652,1196.4623,0,1,left,1196.4633,1197.1616,1,0,right,1,1197.1617,1197.1617,1197.1627,1198.6606,0,31,31,31,1,0.2,0.8,0.8,0.2,,,,,,,,,,,,,,,2.265,,0.4,0.6,0.8,0.2,0.4,0.6,0.2,0.8,,,0.173,,0.8,0.2,0.2,0.8,0.6,0.4,0.6,0.4,1,0
,,612512862963825fa66941bf,66fc97edc19adc597a67640e,2024-10-01_18h47.17.787,mdp,2024.2.1,Win32,60.97560976,66fa4ebf79326e780c390304,,,,,,,,,,,,,,,,,,,,,1198.661,1198.661,1198.6618,1199.4598,0,0,left,0.2766,,1199.4607,1200.176,1,0,right,1200.1773,1200.9587,1,1,right,0,1200.9588,1200.9588,1200.9597,1202.4574,0,32,32,32,1,0.2,0.8,0.8,0.2,,,,,,,,,,,,,,,0.1879,,0.8,0.2,0.6,0.4,0.4,0.6,0.2,0.8,,,0.244,,0.8,0.2,0.2,0.8,0.6,0.4,0.6,0.4,1,0
,,612512862963825fa66941bf,66fc97edc19adc597a67640e,2024-10-01_18h47.17.787,mdp,2024.2.1,Win32,60.97560976,66fa4ebf79326e780c390304,,,,,,,,,,,,,,,,,,,,,1202.4577,1202.4577,1202.4586,1203.0901,0,1,left,0.1089,,1203.091,1203.8563,1,1,right,1203.8571,1204.5891,0,0,left,1,1204.5892,1204.5892,1204.59,1206.0876,0,33,33,33,1,0.2,0.8,0.8,0.2,,,,,,,,,,,,,,,0.2195,,0.8,0.2,0.6,0.4,0.4,0.6,0.2,0.8,,,0.1901,,0.8,0.2,0.2,0.8,0.6,0.4,0.6,0.4,1,0
,,612512862963825fa66941bf,66fc97edc19adc597a67640e,2024-10-01_18h47.17.787,mdp,2024.2.1,Win32,60.97560976,66fa4ebf79326e780c390304,,,,,,,,,,,,,,,,,,,,,1206.0879,1206.0879,1206.0891,1206.804,0,1,left,0.1845,,1206.8049,1207.5705,1,0,right,1207.5714,1208.3526,0,0,left,1,1208.3526,1208.3526,1208.3535,1209.8513,0,34,34,34,1,0.2,0.8,0.8,0.2,,,,,,,,,,,,,,,0.2385,,0.8,0.2,0.6,0.4,0.4,0.6,0.2,0.8,,,0.2351,,0.8,0.2,0.2,0.8,0.6,0.4,0.6,0.4,1,0
,,612512862963825fa66941bf,66fc97edc19adc597a67640e,2024-10-01_18h47.17.787,mdp,2024.2.1,Win32,60.97560976,66fa4ebf79326e780c390304,,,,,,,,,,,,,,,,,,,,,1209.8518,1209.8518,1209.8526,1210.6677,0,1,left,0.2911,,1210.6687,1211.4169,0,0,left,1211.4179,1212.0829,1,1,right,0,1212.083,1212.083,1212.0839,1213.5819,0,35,35,35,1,0.2,0.8,0.8,0.2,,,,,,,,,,,,,,,0.2163,,0.8,0.2,0.6,0.4,0.6,0.4,0.4,0.6,,,0.1454,,0.8,0.2,0.2,0.8,0.6,0.4,0.6,0.4,1,0
,,612512862963825fa66941bf,66fc97edc19adc597a67640e,2024-10-01_18h47.17.787,mdp,2024.2.1,Win32,60.97560976,66fa4ebf79326e780c390304,,,,,,,,,,,,,,,,,,,,,1213.5823,1213.5823,1213.583,1214.4145,0,1,left,0.3046,,1214.4153,1215.1806,0,1,left,1215.1814,1215.9465,1,0,right,1,1215.9465,1215.9465,1215.9475,1217.4457,0,36,36,36,1,0.2,0.8,0.8,0.2,,,,,,,,,,,,,,,0.238,,0.8,0.2,0.6,0.4,0.6,0.4,0.4,0.6,,,0.2305,,0.8,0.2,0.2,0.8,0.6,0.4,0.6,0.4,1,0
,,612512862963825fa66941bf,66fc97edc19adc597a67640e,2024-10-01_18h47.17.787,mdp,2024.2.1,Win32,60.97560976,66fa4ebf79326e780c390304,,,,,,,,,,,,,,,,,,,,,1217.446,1217.446,1217.4469,1218.1282,0,0,left,0.1504,,1218.1288,1218.8941,0,0,left,1218.8949,1219.6437,0,1,left,0,1219.6438,1219.6438,1219.6447,1221.1428,0,37,37,37,1,0.2,0.8,0.8,0.2,,,,,,,,,,,,,,,0.2291,,0.8,0.2,0.6,0.4,0.4,0.6,0.6,0.4,,,0.2017,,0.8,0.2,0.2,0.8,0.6,0.4,0.6,0.4,1,0
,,612512862963825fa66941bf,66fc97edc19adc597a67640e,2024-10-01_18h47.17.787,mdp,2024.2.1,Win32,60.97560976,66fa4ebf79326e780c390304,,,,,,,,,,,,,,,,,,,,,1221.1431,1221.1431,1221.144,1221.9755,0,1,left,0.308,,1221.9764,1222.8747,1,0,right,1222.8755,1223.641,1,1,right,0,1223.6411,1223.6411,1223.6423,1225.1394,0,38,38,38,1,0.2,0.8,0.8,0.2,,,,,,,,,,,,,,,0.3504,,0.8,0.2,0.6,0.4,0.4,0.6,0.6,0.4,,,0.2418,,0.8,0.2,0.2,0.8,0.6,0.4,0.6,0.4,1,0
,,612512862963825fa66941bf,66fc97edc19adc597a67640e,2024-10-01_18h47.17.787,mdp,2024.2.1,Win32,60.97560976,66fa4ebf79326e780c390304,,,,,,,,,,,,,,,,,,,,,1225.1398,1225.1398,1225.1406,1225.8723,0,1,left,0.2118,,1225.8732,1226.5885,1,0,right,1226.5893,1227.3544,1,1,right,0,1227.3544,1227.3544,1227.3554,1228.853,0,39,39,39,1,0.2,0.8,0.8,0.2,,,,,,,,,,,,,,,0.1844,,0.8,0.2,0.6,0.4,0.4,0.6,0.6,0.4,,,0.2426,,0.8,0.2,0.2,0.8,0.6,0.4,0.6,0.4,1,0
,,612512862963825fa66941bf,66fc97edc19adc597a67640e,2024-10-01_18h47.17.787,mdp,2024.2.1,Win32,60.97560976,66fa4ebf79326e780c390304,,,,,,,,,,,,,,,,,,,,,1228.8533,1228.8533,1228.8541,1229.5861,0,0,left,0.2067,,1229.5869,1230.3684,0,0,left,1230.3693,1231.1013,1,1,right,0,1231.1013,1231.1013,1231.1024,1232.6002,0,40,40,40,1,0.2,0.8,0.8,0.2,,,,,,,,,,,,,,,0.2451,,0.8,0.2,0.6,0.4,0.4,0.6,0.6,0.4,,,0.2049,,0.8,0.2,0.2,0.8,0.6,0.4,0.6,0.4,1,0
,,612512862963825fa66941bf,66fc97edc19adc597a67640e,2024-10-01_18h47.17.787,mdp,2024.2.1,Win32,60.97560976,66fa4ebf79326e780c390304,,,,,,,,,,,,,,,,,,,,,1232.6005,1232.6005,1232.6016,1233.433,1,0,right,0.3001,,1233.4341,1234.2654,1,0,right,1234.2664,1235.015,0,0,left,1,1235.0151,1235.0151,1235.0161,1236.5137,0,41,41,41,1,0.2,0.8,0.8,0.2,,,,,,,,,,,,,,,0.3005,,0.8,0.2,0.6,0.4,0.4,0.6,0.6,0.4,,,0.2371,,0.8,0.2,0.2,0.8,0.6,0.4,0.6,0.4,1,0
,,612512862963825fa66941bf,66fc97edc19adc597a67640e,2024-10-01_18h47.17.787,mdp,2024.2.1,Win32,60.97560976,66fa4ebf79326e780c390304,,,,,,,,,,,,,,,,,,,,,1236.514,1236.514,1236.5152,1237.3462,1,0,right,0.312,,1237.347,1238.1456,0,0,left,1238.1464,1238.9617,0,0,left,1,1238.9618,1238.9618,1238.963,1240.4603,0,42,42,42,1,0.2,0.8,0.8,0.2,,,,,,,,,,,,,,,0.274,,0.8,0.2,0.6,0.4,0.4,0.6,0.6,0.4,,,0.2879,,0.8,0.2,0.2,0.8,0.6,0.4,0.6,0.4,1,0
,,612512862963825fa66941bf,66fc97edc19adc597a67640e,2024-10-01_18h47.17.787,mdp,2024.2.1,Win32,60.97560976,66fa4ebf79326e780c390304,,,,,,,,,,,,,,,,,,,,,1240.4607,1240.4608,1240.4617,1241.0436,0,0,left,0.0568,,1241.0446,1241.8596,0,1,left,1241.8605,1242.659,1,0,right,1,1242.659,1242.6591,1242.6599,1244.1575,0,43,43,43,1,0.2,0.8,0.8,0.2,,,,,,,,,,,,,,,0.2841,,0.8,0.2,0.6,0.4,0.4,0.6,0.6,0.4,,,0.2568,,0.8,0.2,0.2,0.8,0.6,0.4,0.6,0.4,1,0
,,612512862963825fa66941bf,66fc97edc19adc597a67640e,2024-10-01_18h47.17.787,mdp,2024.2.1,Win32,60.97560976,66fa4ebf79326e780c390304,,,,,,,,,,,,,,,,,,,,,1244.1578,1244.1578,1244.1586,1244.7073,1,1,right,0.0167,,1244.708,1245.4902,1,0,right,1245.4911,1246.2562,0,0,left,1,1246.2563,1246.2563,1246.2571,1247.7547,0,44,44,44,1,0.2,0.8,0.8,0.2,,,,,,,,,,,,,,,0.2394,,0.8,0.2,0.6,0.4,0.4,0.6,0.6,0.4,,,0.2169,,0.8,0.2,0.2,0.8,0.6,0.4,0.6,0.4,1,0
,,612512862963825fa66941bf,66fc97edc19adc597a67640e,2024-10-01_18h47.17.787,mdp,2024.2.1,Win32,60.97560976,66fa4ebf79326e780c390304,,,,,,,,,,,,,,,,,,,,,1247.7551,1247.7551,1247.7561,1248.3542,0,1,left,0.0717,,1248.3551,1249.1204,1,1,right,1249.1213,1249.9029,0,0,left,1,1249.9029,1249.9029,1249.9038,1251.4022,0,45,45,45,1,0.2,0.8,0.8,0.2,,,,,,,,,,,,,,,0.241,,0.8,0.2,0.6,0.4,0.4,0.6,0.6,0.4,,,0.2476,,0.8,0.2,0.2,0.8,0.6,0.4,0.6,0.4,1,0
,,612512862963825fa66941bf,66fc97edc19adc597a67640e,2024-10-01_18h47.17.787,mdp,2024.2.1,Win32,60.97560976,66fa4ebf79326e780c390304,,,,,,,,,,,,,,,,,,,,,1251.4025,1251.4025,1251.4034,1252.1845,1,0,right,0.2614,,1252.1852,1252.9673,0,0,left,1252.9679,1253.8168,1,0,right,1,1253.8168,1253.8168,1253.8177,1255.3155,0,46,46,46,1,0.2,0.8,0.8,0.2,,,,,,,,,,,,,,,0.2478,,0.8,0.2,0.6,0.4,0.4,0.6,0.6,0.4,,,0.3043,,0.8,0.2,0.2,0.8,0.6,0.4,0.6,0.4,1,0
,,612512862963825fa66941bf,66fc97edc19adc597a67640e,2024-10-01_18h47.17.787,mdp,2024.2.1,Win32,60.97560976,66fa4ebf79326e780c390304,,,,,,,,,,,,,,,,,,,,,1255.316,1255.316,1255.3168,1256.0315,0,1,left,0.1853,,1256.0325,1256.8476,0,1,left,1256.8484,1257.664,1,0,right,1,1257.664,1257.664,1257.6649,1259.1622,0,47,47,47,1,0.2,0.8,0.8,0.2,,,,,,,,,,,,,,,0.2676,,0.8,0.2,0.6,0.4,0.4,0.6,0.6,0.4,,,0.2724,,0.8,0.2,0.2,0.8,0.6,0.4,0.6,0.4,1,0
,,612512862963825fa66941bf,66fc97edc19adc597a67640e,2024-10-01_18h47.17.787,mdp,2024.2.1,Win32,60.97560976,66fa4ebf79326e780c390304,,,,,,,,,,,,,,,,,,,,,1259.1626,1259.1627,1259.1634,1259.9287,1,1,right,0.2435,,1259.9301,1260.7281,1,1,right,1260.729,1261.5109,0,1,left,0,1261.5109,1261.5109,1261.5117,1263.0096,0,48,48,48,1,0.2,0.8,0.8,0.2,,,,,,,,,,,,,,,0.2677,,0.2,0.8,0.8,0.2,0.4,0.6,0.6,0.4,,,0.2611,,0.8,0.2,0.2,0.8,0.6,0.4,0.6,0.4,1,0
,,612512862963825fa66941bf,66fc97edc19adc597a67640e,2024-10-01_18h47.17.787,mdp,2024.2.1,Win32,60.97560976,66fa4ebf79326e780c390304,,,,,,,,,,,,,,,,,,,,,1263.0099,1263.01,1263.0109,1263.9253,0,1,left,0.3886,,1263.9264,1264.6918,1,1,right,1264.6926,1265.5076,0,0,left,1,1265.5077,1265.5077,1265.5084,1267.0063,0,49,49,49,1,0.2,0.8,0.8,0.2,,,,,,,,,,,,,,,0.2404,,0.2,0.8,0.8,0.2,0.6,0.4,0.2,0.8,,,0.2924,,0.8,0.2,0.2,0.8,0.6,0.4,0.6,0.4,1,0
,,612512862963825fa66941bf,66fc97edc19adc597a67640e,2024-10-01_18h47.17.787,mdp,2024.2.1,Win32,60.97560976,66fa4ebf79326e780c390304,,,,,,,,,,,,,,,,,,,,,,,,,,,,,,,,,,,,,,,,,,,,,,,,,,,,,,,,1267.0064,1325.5101,0,3,3,7,1,imgs/giraffe.png,imgs/cat.png,imgs/squirrel.png,imgs/lion.png,imgs/rabbit.png,,,,,,,,,,,,,,,,,,,,,,,,
,,612512862963825fa66941bf,66fc97edc19adc597a67640e,2024-10-01_18h47.17.787,mdp,2024.2.1,Win32,60.97560976,66fa4ebf79326e780c390304,,,,,,,,,,,,,,1,seqs/st1seq9.csv,1325.5112,1333.2704,space,7.2283,,1333.2729,1333.2729,1333.2735,1334.3532,0,0,left,0.5368,,1334.354,1334.3544,1,0,,1334.355,1334.3553,0,0,,1,1334.3553,1334.3553,1334.3556,1335.8516,0,0,0,0,1,0.8,0.2,0.2,0.8,1,0,,,,,,,,,,,,,,,,,,,,,,,,,,,,,,,,,,,,
,,612512862963825fa66941bf,66fc97edc19adc597a67640e,2024-10-01_18h47.17.787,mdp,2024.2.1,Win32,60.97560976,66fa4ebf79326e780c390304,,,,,,,,,,,,,,,,,,,,,1335.8519,1335.8519,1335.8528,1336.668,0,0,left,0.2839,,1336.6694,1336.6698,1,0,,1336.6703,1336.6706,0,0,,1,1336.6706,1336.6706,1336.671,1338.1665,0,1,1,1,1,0.8,0.2,0.2,0.8,1,0,,,,,,,,,,,,,,,,,,,,,,,,,,,,,,,,,,,,
,,612512862963825fa66941bf,66fc97edc19adc597a67640e,2024-10-01_18h47.17.787,mdp,2024.2.1,Win32,60.97560976,66fa4ebf79326e780c390304,,,,,,,,,,,,,,,,,,,,,1338.1667,1338.1667,1338.1673,1338.8659,0,1,left,0.1666,,1338.8669,1338.8672,1,1,,1338.8676,1338.868,0,1,,0,1338.868,1338.868,1338.8683,1340.3645,0,2,2,2,1,0.2,0.8,0.6,0.4,1,0,,,,,,,,,,,,,,,,,,,,,,,,,,,,,,,,,,,,
,,612512862963825fa66941bf,66fc97edc19adc597a67640e,2024-10-01_18h47.17.787,mdp,2024.2.1,Win32,60.97560976,66fa4ebf79326e780c390304,,,,,,,,,,,,,,,,,,,,,1340.3649,1340.3649,1340.3657,1341.2478,0,0,left,0.3574,,1341.2487,1341.2492,1,1,,1341.2497,1341.25,0,1,,1,1341.25,1341.25,1341.2504,1342.7462,0,3,3,3,1,0.2,0.8,0.6,0.4,1,0,,,,,,,,,,,,,,,,,,,,,,,,,,,,,,,,,,,,
,,612512862963825fa66941bf,66fc97edc19adc597a67640e,2024-10-01_18h47.17.787,mdp,2024.2.1,Win32,60.97560976,66fa4ebf79326e780c390304,,,,,,,,,,,,,,,,,,,,,1342.7466,1342.7466,1342.7479,1343.4957,0,1,left,0.2177,,1343.4967,1343.4973,1,1,,1343.4977,1343.498,0,1,,0,1343.498,1343.498,1343.4984,1344.9946,0,4,4,4,1,0.2,0.8,0.6,0.4,1,0,,,,,,,,,,,,,,,,,,,,,,,,,,,,,,,,,,,,
,,612512862963825fa66941bf,66fc97edc19adc597a67640e,2024-10-01_18h47.17.787,mdp,2024.2.1,Win32,60.97560976,66fa4ebf79326e780c390304,,,,,,,,,,,,,,,,,,,,,1344.9949,1344.9949,1344.9957,1346.2936,0,1,left,0.7665,,1346.2947,1346.2951,1,0,,1346.2956,1346.2958,0,1,,0,1346.2958,1346.2958,1346.2962,1347.7921,0,5,5,5,1,0.2,0.8,0.6,0.4,1,0,,,,,,,,,,,,,,,,,,,,,,,,,,,,,,,,,,,,
,,612512862963825fa66941bf,66fc97edc19adc597a67640e,2024-10-01_18h47.17.787,mdp,2024.2.1,Win32,60.97560976,66fa4ebf79326e780c390304,,,,,,,,,,,,,,,,,,,,,1347.7924,1347.7924,1347.7936,1348.6085,0,1,left,0.2965,,1348.6094,1348.6099,1,1,,1348.6104,1348.6107,0,1,,0,1348.6107,1348.6107,1348.611,1350.1072,0,6,6,6,1,0.2,0.8,0.6,0.4,1,0,,,,,,,,,,,,,,,,,,,,,,,,,,,,,,,,,,,,
,,612512862963825fa66941bf,66fc97edc19adc597a67640e,2024-10-01_18h47.17.787,mdp,2024.2.1,Win32,60.97560976,66fa4ebf79326e780c390304,,,,,,,,,,,,,,,,,,,,,1350.1075,1350.1075,1350.1081,1350.8234,0,1,left,0.1914,,1350.8243,1350.8248,1,1,,1350.8251,1350.8256,0,1,,0,1350.8256,1350.8256,1350.8259,1352.3219,0,7,7,7,1,0.2,0.8,0.6,0.4,1,0,,,,,,,,,,,,,,,,,,,,,,,,,,,,,,,,,,,,
,,612512862963825fa66941bf,66fc97edc19adc597a67640e,2024-10-01_18h47.17.787,mdp,2024.2.1,Win32,60.97560976,66fa4ebf79326e780c390304,,,,,,,,,,,,,,,,,,,,,1352.3221,1352.3222,1352.323,1352.8715,1,1,right,0.0207,,1352.8726,1352.8729,1,0,,1352.8734,1352.8737,0,0,,0,1352.8737,1352.8737,1352.8741,1354.3703,0,8,8,8,1,0.2,0.8,0.6,0.4,1,0,,,,,,,,,,,,,,,,,,,,,,,,,,,,,,,,,,,,
,,612512862963825fa66941bf,66fc97edc19adc597a67640e,2024-10-01_18h47.17.787,mdp,2024.2.1,Win32,60.97560976,66fa4ebf79326e780c390304,,,,,,,,,,,,,,,,,,,,,1354.3706,1354.3706,1354.3715,1355.3198,0,0,left,0.4204,,1355.3208,1355.3212,1,1,,1355.3218,1355.3221,0,1,,1,1355.3221,1355.3221,1355.3225,1356.8185,0,9,9,9,1,0.2,0.8,0.6,0.4,1,0,,,,,,,,,,,,,,,,,,,,,,,,,,,,,,,,,,,,
,,612512862963825fa66941bf,66fc97edc19adc597a67640e,2024-10-01_18h47.17.787,mdp,2024.2.1,Win32,60.97560976,66fa4ebf79326e780c390304,,,,,,,,,,,,,,,,,,,,,1356.8188,1356.8188,1356.8196,1357.6179,0,1,left,0.2668,,1357.619,1357.6194,1,0,,1357.6198,1357.6202,0,1,,0,1357.6202,1357.6202,1357.6205,1359.1166,0,10,10,10,1,0.2,0.8,0.6,0.4,1,0,,,,,,,,,,,,,,,,,,,,,,,,,,,,,,,,,,,,
,,612512862963825fa66941bf,66fc97edc19adc597a67640e,2024-10-01_18h47.17.787,mdp,2024.2.1,Win32,60.97560976,66fa4ebf79326e780c390304,,,,,,,,,,,,,,,,,,,,,1359.1168,1359.1168,1359.1177,1359.883,1,0,right,0.2426,,1359.8843,1359.8849,1,0,,1359.8856,1359.886,0,0,,1,1359.886,1359.886,1359.8865,1361.3817,0,11,11,11,1,0.4,0.6,0.8,0.2,1,0,,,,,,,,,,,,,,,,,,,,,,,,,,,,,,,,,,,,
,,612512862963825fa66941bf,66fc97edc19adc597a67640e,2024-10-01_18h47.17.787,mdp,2024.2.1,Win32,60.97560976,66fa4ebf79326e780c390304,,,,,,,,,,,,,,,,,,,,,1361.3821,1361.3821,1361.3833,1362.1644,0,1,left,0.2511,,1362.1654,1362.166,1,1,,1362.1664,1362.1667,0,0,,0,1362.1667,1362.1667,1362.1672,1363.6629,0,12,12,12,1,0.4,0.6,0.8,0.2,1,0,,,,,,,,,,,,,,,,,,,,,,,,,,,,,,,,,,,,
,,612512862963825fa66941bf,66fc97edc19adc597a67640e,2024-10-01_18h47.17.787,mdp,2024.2.1,Win32,60.97560976,66fa4ebf79326e780c390304,,,,,,,,,,,,,,,,,,,,,1363.6633,1363.6633,1363.6641,1364.2625,0,1,left,0.0737,,1364.2635,1364.2639,1,1,,1364.2642,1364.2645,0,1,,0,1364.2645,1364.2645,1364.2649,1365.7617,0,13,13,13,1,0.4,0.6,0.8,0.2,1,0,,,,,,,,,,,,,,,,,,,,,,,,,,,,,,,,,,,,
,,612512862963825fa66941bf,66fc97edc19adc597a67640e,2024-10-01_18h47.17.787,mdp,2024.2.1,Win32,60.97560976,66fa4ebf79326e780c390304,,,,,,,,,,,,,,,,,,,,,1365.7621,1365.7621,1365.7632,1366.3777,0,0,left,0.0908,,1366.3785,1366.3789,1,1,,1366.3794,1366.3796,0,1,,1,1366.3796,1366.3796,1366.3799,1367.8765,0,14,14,14,1,0.4,0.6,0.8,0.2,1,0,,,,,,,,,,,,,,,,,,,,,,,,,,,,,,,,,,,,
,,612512862963825fa66941bf,66fc97edc19adc597a67640e,2024-10-01_18h47.17.787,mdp,2024.2.1,Win32,60.97560976,66fa4ebf79326e780c390304,,,,,,,,,,,,,,,,,,,,,1367.8768,1367.8768,1367.8777,1368.6422,0,1,left,0.2459,,1368.6431,1368.6437,1,1,,1368.6441,1368.6445,0,1,,0,1368.6445,1368.6445,1368.6448,1370.141,0,15,15,15,1,0.4,0.6,0.8,0.2,1,0,,,,,,,,,,,,,,,,,,,,,,,,,,,,,,,,,,,,
,,612512862963825fa66941bf,66fc97edc19adc597a67640e,2024-10-01_18h47.17.787,mdp,2024.2.1,Win32,60.97560976,66fa4ebf79326e780c390304,,,,,,,,,,,,,,,,,,,,,1370.1414,1370.1414,1370.1425,1370.8239,0,0,left,0.1548,,1370.8249,1370.8254,1,0,,1370.8258,1370.8262,0,0,,1,1370.8262,1370.8262,1370.8266,1372.3228,0,16,16,16,1,0.8,0.2,0.6,0.4,1,0,,,,,,,,,,,,,,,,,,,,,,,,,,,,,,,,,,,,
,,612512862963825fa66941bf,66fc97edc19adc597a67640e,2024-10-01_18h47.17.787,mdp,2024.2.1,Win32,60.97560976,66fa4ebf79326e780c390304,,,,,,,,,,,,,,,,,,,,,1372.3231,1372.3231,1372.324,1372.9056,1,0,right,0.0503,,1372.9064,1372.907,1,0,,1372.9074,1372.9077,0,1,,1,1372.9077,1372.9077,1372.908,1374.4043,0,17,17,17,1,0.8,0.2,0.6,0.4,1,0,,,,,,,,,,,,,,,,,,,,,,,,,,,,,,,,,,,,
,,612512862963825fa66941bf,66fc97edc19adc597a67640e,2024-10-01_18h47.17.787,mdp,2024.2.1,Win32,60.97560976,66fa4ebf79326e780c390304,,,,,,,,,,,,,,,,,,,,,1374.4046,1374.4046,1374.4056,1375.1541,0,1,left,0.2296,,1375.1549,1375.1555,1,0,,1375.156,1375.1563,0,0,,0,1375.1563,1375.1563,1375.1567,1376.6526,0,18,18,18,1,0.4,0.6,0.8,0.2,1,0,,,,,,,,,,,,,,,,,,,,,,,,,,,,,,,,,,,,
,,612512862963825fa66941bf,66fc97edc19adc597a67640e,2024-10-01_18h47.17.787,mdp,2024.2.1,Win32,60.97560976,66fa4ebf79326e780c390304,,,,,,,,,,,,,,,,,,,,,1376.6529,1376.6529,1376.654,1377.4023,1,1,right,0.223,,1377.4031,1377.4035,1,0,,1377.404,1377.4043,0,0,,0,1377.4043,1377.4043,1377.4047,1378.9011,0,19,19,19,1,0.4,0.6,0.8,0.2,1,0,,,,,,,,,,,,,,,,,,,,,,,,,,,,,,,,,,,,
,,612512862963825fa66941bf,66fc97edc19adc597a67640e,2024-10-01_18h47.17.787,mdp,2024.2.1,Win32,60.97560976,66fa4ebf79326e780c390304,,,,,,,,,,,,,,,,,,,,,1378.9014,1378.9014,1378.9022,1379.7673,1,0,right,0.345,,1379.7682,1379.7687,1,1,,1379.7692,1379.7695,0,0,,1,1379.7695,1379.7695,1379.7698,1381.2657,0,20,20,20,1,0.4,0.6,0.8,0.2,1,0,,,,,,,,,,,,,,,,,,,,,,,,,,,,,,,,,,,,
,,612512862963825fa66941bf,66fc97edc19adc597a67640e,2024-10-01_18h47.17.787,mdp,2024.2.1,Win32,60.97560976,66fa4ebf79326e780c390304,,,,,,,,,,,,,,,,,,,,,1381.266,1381.266,1381.267,1381.9985,0,1,left,0.2007,,1381.9991,1381.9998,1,0,,1382.0003,1382.0005,0,0,,0,1382.0006,1382.0006,1382.0009,1383.4972,0,21,21,21,1,0.8,0.2,0.2,0.8,1,0,,,,,,,,,,,,,,,,,,,,,,,,,,,,,,,,,,,,
,,612512862963825fa66941bf,66fc97edc19adc597a67640e,2024-10-01_18h47.17.787,mdp,2024.2.1,Win32,60.97560976,66fa4ebf79326e780c390304,,,,,,,,,,,,,,,,,,,,,1383.4974,1383.4974,1383.4981,1384.2303,1,0,right,0.2091,,1384.2312,1384.2316,1,1,,1384.232,1384.2322,0,1,,1,1384.2322,1384.2323,1384.2326,1385.7291,0,22,22,22,1,0.8,0.2,0.2,0.8,1,0,,,,,,,,,,,,,,,,,,,,,,,,,,,,,,,,,,,,
,,612512862963825fa66941bf,66fc97edc19adc597a67640e,2024-10-01_18h47.17.787,mdp,2024.2.1,Win32,60.97560976,66fa4ebf79326e780c390304,,,,,,,,,,,,,,,,,,,,,1385.7295,1385.7295,1385.7303,1386.5784,0,0,left,0.3215,,1386.5793,1386.5798,1,0,,1386.5804,1386.5808,0,1,,1,1386.5808,1386.5808,1386.5811,1388.077,0,23,23,23,1,0.8,0.2,0.2,0.8,1,0,,,,,,,,,,,,,,,,,,,,,,,,,,,,,,,,,,,,
,,612512862963825fa66941bf,66fc97edc19adc597a67640e,2024-10-01_18h47.17.787,mdp,2024.2.1,Win32,60.97560976,66fa4ebf79326e780c390304,,,,,,,,,,,,,,,,,,,,,1388.0773,1388.0773,1388.0782,1388.8431,0,0,left,0.2334,,1388.8446,1388.8452,1,1,,1388.8456,1388.846,0,1,,1,1388.846,1388.846,1388.8464,1390.3417,0,24,24,24,1,0.8,0.2,0.2,0.8,1,0,,,,,,,,,,,,,,,,,,,,,,,,,,,,,,,,,,,,
,,612512862963825fa66941bf,66fc97edc19adc597a67640e,2024-10-01_18h47.17.787,mdp,2024.2.1,Win32,60.97560976,66fa4ebf79326e780c390304,,,,,,,,,,,,,,,,,,,,,1390.3419,1390.3419,1390.3428,1390.958,1,1,right,0.097,,1390.9589,1390.9595,1,1,,1390.96,1390.9603,0,1,,0,1390.9603,1390.9603,1390.9607,1392.457,0,25,25,25,1,0.8,0.2,0.2,0.8,1,0,,,,,,,,,,,,,,,,,,,,,,,,,,,,,,,,,,,,
,,612512862963825fa66941bf,66fc97edc19adc597a67640e,2024-10-01_18h47.17.787,mdp,2024.2.1,Win32,60.97560976,66fa4ebf79326e780c390304,,,,,,,,,,,,,,,,,,,,,1392.4574,1392.4574,1392.4584,1393.0902,1,0,right,0.1044,,1393.0915,1393.0919,1,0,,1393.0924,1393.0927,0,1,,1,1393.0927,1393.0927,1393.0931,1394.5886,0,26,26,26,1,0.4,0.6,0.6,0.4,1,0,,,,,,,,,,,,,,,,,,,,,,,,,,,,,,,,,,,,
,,612512862963825fa66941bf,66fc97edc19adc597a67640e,2024-10-01_18h47.17.787,mdp,2024.2.1,Win32,60.97560976,66fa4ebf79326e780c390304,,,,,,,,,,,,,,,,,,,,,1394.5889,1394.5889,1394.5897,1395.1381,0,1,left,0.0197,,1395.1388,1395.1395,1,1,,1395.14,1395.1404,0,0,,0,1395.1404,1395.1404,1395.1409,1396.6369,0,27,27,27,1,0.4,0.6,0.6,0.4,1,0,,,,,,,,,,,,,,,,,,,,,,,,,,,,,,,,,,,,
,,612512862963825fa66941bf,66fc97edc19adc597a67640e,2024-10-01_18h47.17.787,mdp,2024.2.1,Win32,60.97560976,66fa4ebf79326e780c390304,,,,,,,,,,,,,,,,,,,,,1396.6371,1396.6372,1396.6378,1398.0695,0,0,left,0.9117,,1398.0705,1398.0709,1,1,,1398.0714,1398.0717,0,1,,1,1398.0717,1398.0717,1398.0721,1399.5681,0,28,28,28,1,0.4,0.6,0.6,0.4,1,0,,,,,,,,,,,,,,,,,,,,,,,,,,,,,,,,,,,,
,,612512862963825fa66941bf,66fc97edc19adc597a67640e,2024-10-01_18h47.17.787,mdp,2024.2.1,Win32,60.97560976,66fa4ebf79326e780c390304,,,,,,,,,,,,,,,,,,,,,1399.5683,1399.5683,1399.5691,1400.2845,0,0,left,0.1955,,1400.2854,1400.2859,1,1,,1400.2865,1400.2868,0,0,,1,1400.2868,1400.2868,1400.2872,1401.7829,0,29,29,29,1,0.4,0.6,0.6,0.4,1,0,,,,,,,,,,,,,,,,,,,,,,,,,,,,,,,,,,,,
,,612512862963825fa66941bf,66fc97edc19adc597a67640e,2024-10-01_18h47.17.787,mdp,2024.2.1,Win32,60.97560976,66fa4ebf79326e780c390304,,,,,,,,,,,,,,,,,,,,,1401.7831,1401.7831,1401.784,1402.5823,0,0,left,0.2693,,1402.5833,1402.5838,1,1,,1402.5844,1402.5846,0,0,,1,1402.5846,1402.5846,1402.585,1404.0809,0,30,30,30,1,0.4,0.6,0.6,0.4,1,0,,,,,,,,,,,,,,,,,,,,,,,,,,,,,,,,,,,,
,,612512862963825fa66941bf,66fc97edc19adc597a67640e,2024-10-01_18h47.17.787,mdp,2024.2.1,Win32,60.97560976,66fa4ebf79326e780c390304,,,,,,,,,,,,,,,,,,,,,1404.0813,1404.0813,1404.0823,1404.8305,0,1,left,0.2293,,1404.8314,1404.8317,1,0,,1404.8323,1404.8326,0,1,,0,1404.8326,1404.8326,1404.8329,1406.3293,0,31,31,31,1,0.4,0.6,0.6,0.4,1,0,,,,,,,,,,,,,,,,,,,,,,,,,,,,,,,,,,,,
,,612512862963825fa66941bf,66fc97edc19adc597a67640e,2024-10-01_18h47.17.787,mdp,2024.2.1,Win32,60.97560976,66fa4ebf79326e780c390304,,,,,,,,,,,,,,,,,,,,,1406.3296,1406.3296,1406.3305,1407.2117,1,0,right,0.3631,,1407.2124,1407.213,1,1,,1407.2134,1407.2137,0,0,,1,1407.2137,1407.2137,1407.2141,1408.7107,0,32,32,32,1,0.4,0.6,0.6,0.4,1,0,,,,,,,,,,,,,,,,,,,,,,,,,,,,,,,,,,,,
,,612512862963825fa66941bf,66fc97edc19adc597a67640e,2024-10-01_18h47.17.787,mdp,2024.2.1,Win32,60.97560976,66fa4ebf79326e780c390304,,,,,,,,,,,,,,,,,,,,,1408.711,1408.711,1408.712,1409.5102,0,0,left,0.2795,,1409.511,1409.5116,1,0,,1409.512,1409.5123,0,0,,1,1409.5123,1409.5123,1409.5126,1411.009,0,33,33,33,1,0.4,0.6,0.6,0.4,1,0,,,,,,,,,,,,,,,,,,,,,,,,,,,,,,,,,,,,
,,612512862963825fa66941bf,66fc97edc19adc597a67640e,2024-10-01_18h47.17.787,mdp,2024.2.1,Win32,60.97560976,66fa4ebf79326e780c390304,,,,,,,,,,,,,,,,,,,,,1411.0093,1411.0093,1411.0101,1411.6421,1,0,right,0.1091,,1411.6431,1411.6435,1,1,,1411.6439,1411.6443,0,1,,1,1411.6443,1411.6443,1411.6447,1413.141,0,34,34,34,1,0.4,0.6,0.6,0.4,1,0,,,,,,,,,,,,,,,,,,,,,,,,,,,,,,,,,,,,
,,612512862963825fa66941bf,66fc97edc19adc597a67640e,2024-10-01_18h47.17.787,mdp,2024.2.1,Win32,60.97560976,66fa4ebf79326e780c390304,,,,,,,,,,,,,,,,,,,,,1413.1415,1413.1415,1413.1424,1413.907,0,1,left,0.2364,,1413.908,1413.9086,1,0,,1413.9091,1413.9094,0,1,,0,1413.9094,1413.9094,1413.9097,1415.4055,0,35,35,35,1,0.4,0.6,0.6,0.4,1,0,,,,,,,,,,,,,,,,,,,,,,,,,,,,,,,,,,,,
,,612512862963825fa66941bf,66fc97edc19adc597a67640e,2024-10-01_18h47.17.787,mdp,2024.2.1,Win32,60.97560976,66fa4ebf79326e780c390304,,,,,,,,,,,,,,,,,,,,,1415.4058,1415.4058,1415.4069,1416.2214,1,0,right,0.2836,,1416.2224,1416.223,1,0,,1416.2233,1416.2237,0,1,,1,1416.2237,1416.2237,1416.2241,1417.7207,0,36,36,36,1,0.4,0.6,0.6,0.4,1,0,,,,,,,,,,,,,,,,,,,,,,,,,,,,,,,,,,,,
,,612512862963825fa66941bf,66fc97edc19adc597a67640e,2024-10-01_18h47.17.787,mdp,2024.2.1,Win32,60.97560976,66fa4ebf79326e780c390304,,,,,,,,,,,,,,,,,,,,,1417.7212,1417.7213,1417.722,1418.5362,0,0,left,0.2839,,1418.5371,1418.5376,1,1,,1418.5381,1418.5384,0,0,,1,1418.5385,1418.5385,1418.5389,1420.0351,0,37,37,37,1,0.6,0.4,0.4,0.6,1,0,,,,,,,,,,,,,,,,,,,,,,,,,,,,,,,,,,,,
,,612512862963825fa66941bf,66fc97edc19adc597a67640e,2024-10-01_18h47.17.787,mdp,2024.2.1,Win32,60.97560976,66fa4ebf79326e780c390304,,,,,,,,,,,,,,,,,,,,,1420.0355,1420.0355,1420.0363,1420.6345,0,0,left,0.0666,,1420.6355,1420.6359,1,0,,1420.6363,1420.6365,0,0,,1,1420.6365,1420.6365,1420.6369,1422.1335,0,38,38,38,1,0.6,0.4,0.4,0.6,1,0,,,,,,,,,,,,,,,,,,,,,,,,,,,,,,,,,,,,
,,612512862963825fa66941bf,66fc97edc19adc597a67640e,2024-10-01_18h47.17.787,mdp,2024.2.1,Win32,60.97560976,66fa4ebf79326e780c390304,,,,,,,,,,,,,,,,,,,,,1422.1338,1422.1338,1422.1345,1422.9827,0,1,left,0.3307,,1422.9833,1422.9842,1,1,,1422.9846,1422.9848,0,0,,0,1422.9849,1422.9849,1422.9852,1424.4815,0,39,39,39,1,0.6,0.4,0.4,0.6,1,0,,,,,,,,,,,,,,,,,,,,,,,,,,,,,,,,,,,,
,,612512862963825fa66941bf,66fc97edc19adc597a67640e,2024-10-01_18h47.17.787,mdp,2024.2.1,Win32,60.97560976,66fa4ebf79326e780c390304,,,,,,,,,,,,,,,,,,,,,1424.4819,1424.4819,1424.483,1425.3313,1,1,right,0.3198,,1425.3322,1425.3328,1,0,,1425.3333,1425.3337,0,0,,0,1425.3338,1425.3338,1425.3341,1426.8297,0,40,40,40,1,0.2,0.8,0.6,0.4,1,0,,,,,,,,,,,,,,,,,,,,,,,,,,,,,,,,,,,,
