init_exp.started,init_exp.stopped,participant,session,date,expName,psychopyVersion,OS,frameRate,study_id,disp_instruction.started,disp_instruction.stopped,instruction.thisRepN,instruction.thisTrialN,instruction.thisN,instruction.thisIndex,instruction.ran,instimg_path,consent.started,consent.stopped,key_resp_3.keys,key_resp_3.rt,key_resp_3.duration,n_steps,sequence_path,init_block.started,init_block.stopped,key_resp.keys,key_resp.rt,key_resp.duration,init_trials.started,init_trials.stopped,step0.started,step0.stopped,act0,s1,res0.keys,res0.rt,res0.duration,step1.started,step1.stopped,act1,s2,res1.keys,step2.started,step2.stopped,act2,s3,res2.keys,rew,reward_comp.started,reward_comp.stopped,reward_disp.started,reward_disp.stopped,trials.thisRepN,trials.thisTrialN,trials.thisN,trials.thisIndex,trials.ran,s00a0s10,s00a0s11,s00a1s10,s00a1s11,rew10,rew11,break_block.started,break_block.stopped,block.thisRepN,block.thisTrialN,block.thisN,block.thisIndex,block.ran,s00path,s10path,s11path,s20path,s21path,res1.rt,res1.duration,s10a0s20,s10a0s21,s10a1s20,s10a1s21,s11a0s20,s11a0s21,s11a1s20,s11a1s21,rew20,rew21,res2.rt,res2.duration,s20a0s30,s20a0s31,s20a1s30,s20a1s31,s21a0s30,s21a0s31,s21a1s30,s21a1s31,rew30,rew31
0.0003,0.0015,61267b828ead584bcf092e35,66fc9847ad32e9cdf33b34dc,2024-10-02_02h50.38.495,mdp,2024.2.1,Win32,59.88023952,66fa4ebf79326e780c390304,,,,,,,,,,,,,,,,,,,,,,,,,,,,,,,,,,,,,,,,,,,,,,,,,,,,,,,,,,,,,,,,,,,,,,,,,,,,,,,,,,,,,,,,,,,
,,61267b828ead584bcf092e35,66fc9847ad32e9cdf33b34dc,2024-10-02_02h50.38.495,mdp,2024.2.1,Win32,59.88023952,66fa4ebf79326e780c390304,0.0046,77.5214,0,0,0,0,1,rlnn_exp/rlnn_exp.001.png,,,,,,,,,,,,,,,,,,,,,,,,,,,,,,,,,,,,,,,,,,,,,,,,,,,,,,,,,,,,,,,,,,,,,,,,,,,,,,,,,,,
,,61267b828ead584bcf092e35,66fc9847ad32e9cdf33b34dc,2024-10-02_02h50.38.495,mdp,2024.2.1,Win32,59.88023952,66fa4ebf79326e780c390304,77.5224,348.5486,0,1,1,1,1,rlnn_exp/rlnn_exp.002.png,,,,,,,,,,,,,,,,,,,,,,,,,,,,,,,,,,,,,,,,,,,,,,,,,,,,,,,,,,,,,,,,,,,,,,,,,,,,,,,,,,,
,,61267b828ead584bcf092e35,66fc9847ad32e9cdf33b34dc,2024-10-02_02h50.38.495,mdp,2024.2.1,Win32,59.88023952,66fa4ebf79326e780c390304,348.5496,453.4962,0,2,2,2,1,rlnn_exp/rlnn_exp.003.png,,,,,,,,,,,,,,,,,,,,,,,,,,,,,,,,,,,,,,,,,,,,,,,,,,,,,,,,,,,,,,,,,,,,,,,,,,,,,,,,,,,
,,61267b828ead584bcf092e35,66fc9847ad32e9cdf33b34dc,2024-10-02_02h50.38.495,mdp,2024.2.1,Win32,59.88023952,66fa4ebf79326e780c390304,453.4972,518.1615,0,3,3,3,1,rlnn_exp/rlnn_exp.004.png,,,,,,,,,,,,,,,,,,,,,,,,,,,,,,,,,,,,,,,,,,,,,,,,,,,,,,,,,,,,,,,,,,,,,,,,,,,,,,,,,,,
,,61267b828ead584bcf092e35,66fc9847ad32e9cdf33b34dc,2024-10-02_02h50.38.495,mdp,2024.2.1,Win32,59.88023952,66fa4ebf79326e780c390304,,,,,,,,,518.1621,553.2441,y,25.0511,,,,,,,,,,,,,,,,,,,,,,,,,,,,,,,,,,,,,,,,,,,,,,,,,,,,,,,,,,,,,,,,,,,,,,,,,,,,,,,
,,61267b828ead584bcf092e35,66fc9847ad32e9cdf33b34dc,2024-10-02_02h50.38.495,mdp,2024.2.1,Win32,59.88023952,66fa4ebf79326e780c390304,,,,,,,,,,,,,,1,seqs/st1seq21.csv,553.2503,568.8604,space,15.0857,,568.8638,568.864,568.8643,579.777,0,0,left,10.3788,,579.7778,579.7795,,0,,579.7798,579.781,,0,,1,579.7811,579.7812,579.7815,581.2766,0,0,0,0,1,0.8,0.2,0.4,0.6,1,0,,,,,,,,,,,,,,,,,,,,,,,,,,,,,,,,,,,,
,,61267b828ead584bcf092e35,66fc9847ad32e9cdf33b34dc,2024-10-02_02h50.38.495,mdp,2024.2.1,Win32,59.88023952,66fa4ebf79326e780c390304,,,,,,,,,,,,,,,,,,,,,581.2771,581.2773,581.2783,584.1098,0,1,left,2.3007,,584.1113,584.112,,0,,584.1126,584.1132,,0,,0,584.1132,584.1132,584.1138,585.6097,0,1,1,1,1,0.8,0.2,0.4,0.6,1,0,,,,,,,,,,,,,,,,,,,,,,,,,,,,,,,,,,,,
,,61267b828ead584bcf092e35,66fc9847ad32e9cdf33b34dc,2024-10-02_02h50.38.495,mdp,2024.2.1,Win32,59.88023952,66fa4ebf79326e780c390304,,,,,,,,,,,,,,,,,,,,,585.6102,585.6102,585.6117,589.3265,0,0,left,3.184,,589.3278,589.3286,,0,,589.3292,589.3296,,0,,1,589.3298,589.3298,589.3303,590.8263,0,2,2,2,1,0.8,0.2,0.4,0.6,1,0,,,,,,,,,,,,,,,,,,,,,,,,,,,,,,,,,,,,
,,61267b828ead584bcf092e35,66fc9847ad32e9cdf33b34dc,2024-10-02_02h50.38.495,mdp,2024.2.1,Win32,59.88023952,66fa4ebf79326e780c390304,,,,,,,,,,,,,,,,,,,,,590.8267,590.8267,590.8282,593.4765,0,0,left,2.121,,593.4776,593.4783,,0,,593.479,593.4796,,0,,1,593.4796,593.4796,593.4801,594.9761,0,3,3,3,1,0.6,0.4,0.2,0.8,1,0,,,,,,,,,,,,,,,,,,,,,,,,,,,,,,,,,,,,
,,61267b828ead584bcf092e35,66fc9847ad32e9cdf33b34dc,2024-10-02_02h50.38.495,mdp,2024.2.1,Win32,59.88023952,66fa4ebf79326e780c390304,,,,,,,,,,,,,,,,,,,,,594.9766,594.9766,594.978,596.9763,0,0,left,1.4682,,596.9776,596.9783,,1,,596.9791,596.98,,1,,1,596.98,596.98,596.9805,598.4761,0,4,4,4,1,0.6,0.4,0.2,0.8,1,0,,,,,,,,,,,,,,,,,,,,,,,,,,,,,,,,,,,,
,,61267b828ead584bcf092e35,66fc9847ad32e9cdf33b34dc,2024-10-02_02h50.38.495,mdp,2024.2.1,Win32,59.88023952,66fa4ebf79326e780c390304,,,,,,,,,,,,,,,,,,,,,598.4765,598.4765,598.478,600.2761,0,1,left,1.2671,,600.2775,600.2782,,0,,600.2788,600.2794,,0,,0,600.2794,600.2794,600.2799,601.7761,0,5,5,5,1,0.6,0.4,0.2,0.8,1,0,,,,,,,,,,,,,,,,,,,,,,,,,,,,,,,,,,,,
,,61267b828ead584bcf092e35,66fc9847ad32e9cdf33b34dc,2024-10-02_02h50.38.495,mdp,2024.2.1,Win32,59.88023952,66fa4ebf79326e780c390304,,,,,,,,,,,,,,,,,,,,,601.7765,601.7766,601.7779,603.6761,0,0,left,1.3676,,603.6775,603.6782,,0,,603.679,603.6796,,0,,1,603.6796,603.6796,603.6802,605.176,0,6,6,6,1,0.6,0.4,0.2,0.8,1,0,,,,,,,,,,,,,,,,,,,,,,,,,,,,,,,,,,,,
,,61267b828ead584bcf092e35,66fc9847ad32e9cdf33b34dc,2024-10-02_02h50.38.495,mdp,2024.2.1,Win32,59.88023952,66fa4ebf79326e780c390304,,,,,,,,,,,,,,,,,,,,,605.1765,605.1765,605.1778,606.8093,0,0,left,1.1004,,606.8107,606.8113,,0,,606.8121,606.8128,,1,,1,606.8128,606.8128,606.8132,608.3091,0,7,7,7,1,0.8,0.2,0.6,0.4,1,0,,,,,,,,,,,,,,,,,,,,,,,,,,,,,,,,,,,,
,,61267b828ead584bcf092e35,66fc9847ad32e9cdf33b34dc,2024-10-02_02h50.38.495,mdp,2024.2.1,Win32,59.88023952,66fa4ebf79326e780c390304,,,,,,,,,,,,,,,,,,,,,608.3096,608.3097,608.3109,609.876,0,0,left,1.042,,609.8771,609.8779,,0,,609.8786,609.8792,,0,,1,609.8792,609.8792,609.8798,611.3757,0,8,8,8,1,0.4,0.6,0.8,0.2,1,0,,,,,,,,,,,,,,,,,,,,,,,,,,,,,,,,,,,,
,,61267b828ead584bcf092e35,66fc9847ad32e9cdf33b34dc,2024-10-02_02h50.38.495,mdp,2024.2.1,Win32,59.88023952,66fa4ebf79326e780c390304,,,,,,,,,,,,,,,,,,,,,611.3762,611.3762,611.3774,612.9259,0,1,left,1.0209,,612.9272,612.9279,,0,,612.9286,612.9297,,0,,0,612.9297,612.9297,612.9302,614.4257,0,9,9,9,1,0.4,0.6,0.8,0.2,1,0,,,,,,,,,,,,,,,,,,,,,,,,,,,,,,,,,,,,
,,61267b828ead584bcf092e35,66fc9847ad32e9cdf33b34dc,2024-10-02_02h50.38.495,mdp,2024.2.1,Win32,59.88023952,66fa4ebf79326e780c390304,,,,,,,,,,,,,,,,,,,,,614.4262,614.4262,614.4274,616.0258,0,0,left,1.0693,,616.0271,616.0279,,1,,616.0286,616.0292,,0,,1,616.0293,616.0293,616.0298,617.5258,0,10,10,10,1,0.4,0.6,0.8,0.2,1,0,,,,,,,,,,,,,,,,,,,,,,,,,,,,,,,,,,,,
,,61267b828ead584bcf092e35,66fc9847ad32e9cdf33b34dc,2024-10-02_02h50.38.495,mdp,2024.2.1,Win32,59.88023952,66fa4ebf79326e780c390304,,,,,,,,,,,,,,,,,,,,,617.5261,617.5262,617.5275,619.0258,0,1,left,0.9689,,619.0272,619.0279,,0,,619.0288,619.0294,,1,,0,619.0294,619.0294,619.0298,620.5256,0,11,11,11,1,0.4,0.6,0.8,0.2,1,0,,,,,,,,,,,,,,,,,,,,,,,,,,,,,,,,,,,,
,,61267b828ead584bcf092e35,66fc9847ad32e9cdf33b34dc,2024-10-02_02h50.38.495,mdp,2024.2.1,Win32,59.88023952,66fa4ebf79326e780c390304,,,,,,,,,,,,,,,,,,,,,620.5261,620.5261,620.5271,622.0424,0,1,left,0.9938,,622.044,622.0452,,0,,622.0458,622.0464,,1,,0,622.0465,622.0465,622.0469,623.5423,0,12,12,12,1,0.4,0.6,0.8,0.2,1,0,,,,,,,,,,,,,,,,,,,,,,,,,,,,,,,,,,,,
,,61267b828ead584bcf092e35,66fc9847ad32e9cdf33b34dc,2024-10-02_02h50.38.495,mdp,2024.2.1,Win32,59.88023952,66fa4ebf79326e780c390304,,,,,,,,,,,,,,,,,,,,,623.5428,623.5428,623.5441,624.8422,1,0,right,0.7742,,624.8436,624.8443,,1,,624.8452,624.8457,,0,,1,624.8458,624.8458,624.8462,626.3423,0,13,13,13,1,0.4,0.6,0.8,0.2,1,0,,,,,,,,,,,,,,,,,,,,,,,,,,,,,,,,,,,,
,,61267b828ead584bcf092e35,66fc9847ad32e9cdf33b34dc,2024-10-02_02h50.38.495,mdp,2024.2.1,Win32,59.88023952,66fa4ebf79326e780c390304,,,,,,,,,,,,,,,,,,,,,626.3427,626.3428,626.3439,627.8589,1,1,right,0.9841,,627.8602,627.8608,,0,,627.8614,627.8618,,0,,0,627.8618,627.8618,627.8623,629.3587,0,14,14,14,1,0.4,0.6,0.8,0.2,1,0,,,,,,,,,,,,,,,,,,,,,,,,,,,,,,,,,,,,
,,61267b828ead584bcf092e35,66fc9847ad32e9cdf33b34dc,2024-10-02_02h50.38.495,mdp,2024.2.1,Win32,59.88023952,66fa4ebf79326e780c390304,,,,,,,,,,,,,,,,,,,,,629.3591,629.3591,629.3602,630.8755,1,0,right,0.9868,,630.8771,630.8777,,0,,630.8783,630.8788,,0,,1,630.8789,630.8789,630.8793,632.3753,0,15,15,15,1,0.8,0.2,0.6,0.4,1,0,,,,,,,,,,,,,,,,,,,,,,,,,,,,,,,,,,,,
,,61267b828ead584bcf092e35,66fc9847ad32e9cdf33b34dc,2024-10-02_02h50.38.495,mdp,2024.2.1,Win32,59.88023952,66fa4ebf79326e780c390304,,,,,,,,,,,,,,,,,,,,,632.3757,632.3758,632.377,633.8421,1,1,right,0.935,,633.8437,633.8444,,0,,633.8449,633.8455,,0,,0,633.8455,633.8455,633.8461,635.3419,0,16,16,16,1,0.8,0.2,0.6,0.4,1,0,,,,,,,,,,,,,,,,,,,,,,,,,,,,,,,,,,,,
,,61267b828ead584bcf092e35,66fc9847ad32e9cdf33b34dc,2024-10-02_02h50.38.495,mdp,2024.2.1,Win32,59.88023952,66fa4ebf79326e780c390304,,,,,,,,,,,,,,,,,,,,,635.3424,635.3424,635.3436,636.8585,0,1,left,0.9875,,636.8599,636.8606,,1,,636.8611,636.8616,,1,,0,636.8617,636.8617,636.8622,638.3585,0,17,17,17,1,0.4,0.6,0.8,0.2,1,0,,,,,,,,,,,,,,,,,,,,,,,,,,,,,,,,,,,,
,,61267b828ead584bcf092e35,66fc9847ad32e9cdf33b34dc,2024-10-02_02h50.38.495,mdp,2024.2.1,Win32,59.88023952,66fa4ebf79326e780c390304,,,,,,,,,,,,,,,,,,,,,638.3589,638.3589,638.3602,639.8587,0,0,left,0.9756,,639.8604,639.861,,0,,639.8619,639.8626,,1,,1,639.8626,639.8626,639.8636,641.3585,0,18,18,18,1,0.4,0.6,0.8,0.2,1,0,,,,,,,,,,,,,,,,,,,,,,,,,,,,,,,,,,,,
,,61267b828ead584bcf092e35,66fc9847ad32e9cdf33b34dc,2024-10-02_02h50.38.495,mdp,2024.2.1,Win32,59.88023952,66fa4ebf79326e780c390304,,,,,,,,,,,,,,,,,,,,,641.3589,641.3589,641.36,642.7919,0,1,left,0.9005,,642.7932,642.7938,,0,,642.7944,642.7949,,0,,0,642.7949,642.7949,642.7954,644.2917,0,19,19,19,1,0.4,0.6,0.8,0.2,1,0,,,,,,,,,,,,,,,,,,,,,,,,,,,,,,,,,,,,
,,61267b828ead584bcf092e35,66fc9847ad32e9cdf33b34dc,2024-10-02_02h50.38.495,mdp,2024.2.1,Win32,59.88023952,66fa4ebf79326e780c390304,,,,,,,,,,,,,,,,,,,,,644.2922,644.2923,644.2937,646.1751,0,0,left,1.3595,,646.1764,646.1772,,0,,646.178,646.1786,,1,,1,646.1787,646.1787,646.1792,647.675,0,20,20,20,1,0.4,0.6,0.8,0.2,1,0,,,,,,,,,,,,,,,,,,,,,,,,,,,,,,,,,,,,
,,61267b828ead584bcf092e35,66fc9847ad32e9cdf33b34dc,2024-10-02_02h50.38.495,mdp,2024.2.1,Win32,59.88023952,66fa4ebf79326e780c390304,,,,,,,,,,,,,,,,,,,,,647.6754,647.6755,647.6766,649.2083,1,0,right,0.9983,,649.2096,649.2104,,0,,649.2111,649.2115,,1,,1,649.2116,649.2116,649.2121,650.7082,0,21,21,21,1,0.6,0.4,0.6,0.4,1,0,,,,,,,,,,,,,,,,,,,,,,,,,,,,,,,,,,,,
,,61267b828ead584bcf092e35,66fc9847ad32e9cdf33b34dc,2024-10-02_02h50.38.495,mdp,2024.2.1,Win32,59.88023952,66fa4ebf79326e780c390304,,,,,,,,,,,,,,,,,,,,,650.7087,650.7087,650.7101,652.2916,0,0,left,1.052,,652.2928,652.2935,,0,,652.2941,652.2946,,1,,1,652.2946,652.2946,652.2952,653.7915,0,22,22,22,1,0.6,0.4,0.6,0.4,1,0,,,,,,,,,,,,,,,,,,,,,,,,,,,,,,,,,,,,
,,61267b828ead584bcf092e35,66fc9847ad32e9cdf33b34dc,2024-10-02_02h50.38.495,mdp,2024.2.1,Win32,59.88023952,66fa4ebf79326e780c390304,,,,,,,,,,,,,,,,,,,,,653.7919,653.7919,653.7931,655.3916,1,0,right,1.0777,,655.3928,655.3935,,1,,655.394,655.3946,,1,,1,655.3946,655.3946,655.3951,656.8914,0,23,23,23,1,0.6,0.4,0.6,0.4,1,0,,,,,,,,,,,,,,,,,,,,,,,,,,,,,,,,,,,,
,,61267b828ead584bcf092e35,66fc9847ad32e9cdf33b34dc,2024-10-02_02h50.38.495,mdp,2024.2.1,Win32,59.88023952,66fa4ebf79326e780c390304,,,,,,,,,,,,,,,,,,,,,656.8919,656.8919,656.8931,658.3748,0,1,left,0.9526,,658.3761,658.3768,,0,,658.3774,658.378,,0,,0,658.378,658.378,658.3785,659.8747,0,24,24,24,1,0.6,0.4,0.6,0.4,1,0,,,,,,,,,,,,,,,,,,,,,,,,,,,,,,,,,,,,
,,61267b828ead584bcf092e35,66fc9847ad32e9cdf33b34dc,2024-10-02_02h50.38.495,mdp,2024.2.1,Win32,59.88023952,66fa4ebf79326e780c390304,,,,,,,,,,,,,,,,,,,,,659.8751,659.8751,659.8763,661.508,1,0,right,1.1005,,661.5093,661.51,,1,,661.5107,661.5111,,0,,1,661.5111,661.5111,661.5117,663.0081,0,25,25,25,1,0.6,0.4,0.6,0.4,1,0,,,,,,,,,,,,,,,,,,,,,,,,,,,,,,,,,,,,
,,61267b828ead584bcf092e35,66fc9847ad32e9cdf33b34dc,2024-10-02_02h50.38.495,mdp,2024.2.1,Win32,59.88023952,66fa4ebf79326e780c390304,,,,,,,,,,,,,,,,,,,,,663.0084,663.0085,663.0098,664.6579,0,1,left,1.1198,,664.6592,664.66,,0,,664.6606,664.661,,1,,0,664.6611,664.6611,664.6616,666.1579,0,26,26,26,1,0.6,0.4,0.6,0.4,1,0,,,,,,,,,,,,,,,,,,,,,,,,,,,,,,,,,,,,
,,61267b828ead584bcf092e35,66fc9847ad32e9cdf33b34dc,2024-10-02_02h50.38.495,mdp,2024.2.1,Win32,59.88023952,66fa4ebf79326e780c390304,,,,,,,,,,,,,,,,,,,,,666.1584,666.1584,666.1595,667.7912,1,0,right,1.1031,,667.7926,667.7933,,0,,667.7938,667.7943,,1,,1,667.7943,667.7943,667.7948,669.2912,0,27,27,27,1,0.6,0.4,0.6,0.4,1,0,,,,,,,,,,,,,,,,,,,,,,,,,,,,,,,,,,,,
,,61267b828ead584bcf092e35,66fc9847ad32e9cdf33b34dc,2024-10-02_02h50.38.495,mdp,2024.2.1,Win32,59.88023952,66fa4ebf79326e780c390304,,,,,,,,,,,,,,,,,,,,,669.2917,669.2919,669.293,670.8079,1,0,right,0.9813,,670.8092,670.8098,,1,,670.8104,670.811,,1,,1,670.811,670.811,670.8115,672.3078,0,28,28,28,1,0.6,0.4,0.6,0.4,1,0,,,,,,,,,,,,,,,,,,,,,,,,,,,,,,,,,,,,
,,61267b828ead584bcf092e35,66fc9847ad32e9cdf33b34dc,2024-10-02_02h50.38.495,mdp,2024.2.1,Win32,59.88023952,66fa4ebf79326e780c390304,,,,,,,,,,,,,,,,,,,,,672.3083,672.3083,672.3094,673.9078,1,0,right,1.0674,,673.9093,673.9099,,1,,673.9105,673.911,,1,,1,673.911,673.911,673.9115,675.4078,0,29,29,29,1,0.6,0.4,0.6,0.4,1,0,,,,,,,,,,,,,,,,,,,,,,,,,,,,,,,,,,,,
,,61267b828ead584bcf092e35,66fc9847ad32e9cdf33b34dc,2024-10-02_02h50.38.495,mdp,2024.2.1,Win32,59.88023952,66fa4ebf79326e780c390304,,,,,,,,,,,,,,,,,,,,,675.4082,675.4082,675.4096,676.9246,1,0,right,0.9838,,676.9257,676.9265,,0,,676.9272,676.9278,,0,,1,676.9278,676.9278,676.9283,678.4244,0,30,30,30,1,0.6,0.4,0.6,0.4,1,0,,,,,,,,,,,,,,,,,,,,,,,,,,,,,,,,,,,,
,,61267b828ead584bcf092e35,66fc9847ad32e9cdf33b34dc,2024-10-02_02h50.38.495,mdp,2024.2.1,Win32,59.88023952,66fa4ebf79326e780c390304,,,,,,,,,,,,,,,,,,,,,678.4247,678.4248,678.4259,679.9744,1,1,right,1.0171,,679.9758,679.9764,,0,,679.977,679.9777,,1,,0,679.9777,679.9777,679.9782,681.4745,0,31,31,31,1,0.6,0.4,0.6,0.4,1,0,,,,,,,,,,,,,,,,,,,,,,,,,,,,,,,,,,,,
,,61267b828ead584bcf092e35,66fc9847ad32e9cdf33b34dc,2024-10-02_02h50.38.495,mdp,2024.2.1,Win32,59.88023952,66fa4ebf79326e780c390304,,,,,,,,,,,,,,,,,,,,,681.4749,681.475,681.4764,683.4909,1,1,right,1.4914,,683.4923,683.4929,,0,,683.4935,683.494,,0,,0,683.494,683.494,683.4946,684.9909,0,32,32,32,1,0.6,0.4,0.6,0.4,1,0,,,,,,,,,,,,,,,,,,,,,,,,,,,,,,,,,,,,
,,61267b828ead584bcf092e35,66fc9847ad32e9cdf33b34dc,2024-10-02_02h50.38.495,mdp,2024.2.1,Win32,59.88023952,66fa4ebf79326e780c390304,,,,,,,,,,,,,,,,,,,,,684.9913,684.9914,684.9925,686.4574,0,0,left,0.9396,,686.4587,686.4594,,0,,686.4599,686.4605,,0,,1,686.4605,686.4605,686.4609,687.9574,0,33,33,33,1,0.4,0.6,0.8,0.2,1,0,,,,,,,,,,,,,,,,,,,,,,,,,,,,,,,,,,,,
,,61267b828ead584bcf092e35,66fc9847ad32e9cdf33b34dc,2024-10-02_02h50.38.495,mdp,2024.2.1,Win32,59.88023952,66fa4ebf79326e780c390304,,,,,,,,,,,,,,,,,,,,,687.9579,687.9579,687.9591,689.4076,0,1,left,0.923,,689.4088,689.4095,,1,,689.4102,689.4108,,1,,0,689.4108,689.4108,689.4114,690.9073,0,34,34,34,1,0.4,0.6,0.8,0.2,1,0,,,,,,,,,,,,,,,,,,,,,,,,,,,,,,,,,,,,
,,61267b828ead584bcf092e35,66fc9847ad32e9cdf33b34dc,2024-10-02_02h50.38.495,mdp,2024.2.1,Win32,59.88023952,66fa4ebf79326e780c390304,,,,,,,,,,,,,,,,,,,,,690.9079,690.908,690.9091,692.4408,0,1,left,1.0074,,692.4421,692.4428,,1,,692.4434,692.4441,,1,,0,692.4442,692.4443,692.4449,693.9407,0,35,35,35,1,0.6,0.4,0.6,0.4,1,0,,,,,,,,,,,,,,,,,,,,,,,,,,,,,,,,,,,,
,,61267b828ead584bcf092e35,66fc9847ad32e9cdf33b34dc,2024-10-02_02h50.38.495,mdp,2024.2.1,Win32,59.88023952,66fa4ebf79326e780c390304,,,,,,,,,,,,,,,,,,,,,693.9411,693.9412,693.9424,695.3573,1,1,right,0.8838,,695.3585,695.3591,,0,,695.3597,695.3602,,0,,0,695.3602,695.3602,695.3607,696.8572,0,36,36,36,1,0.6,0.4,0.6,0.4,1,0,,,,,,,,,,,,,,,,,,,,,,,,,,,,,,,,,,,,
,,61267b828ead584bcf092e35,66fc9847ad32e9cdf33b34dc,2024-10-02_02h50.38.495,mdp,2024.2.1,Win32,59.88023952,66fa4ebf79326e780c390304,,,,,,,,,,,,,,,,,,,,,696.8577,696.8578,696.8588,698.4405,0,0,left,1.0558,,698.4422,698.4429,,0,,698.4434,698.4439,,1,,1,698.444,698.444,698.4446,699.9405,0,37,37,37,1,0.4,0.6,0.8,0.2,1,0,,,,,,,,,,,,,,,,,,,,,,,,,,,,,,,,,,,,
,,61267b828ead584bcf092e35,66fc9847ad32e9cdf33b34dc,2024-10-02_02h50.38.495,mdp,2024.2.1,Win32,59.88023952,66fa4ebf79326e780c390304,,,,,,,,,,,,,,,,,,,,,699.9409,699.9409,699.9421,701.4407,0,1,left,0.9673,,701.442,701.4426,,1,,701.4432,701.4437,,1,,0,701.4438,701.4438,701.4443,702.9404,0,38,38,38,1,0.4,0.6,0.8,0.2,1,0,,,,,,,,,,,,,,,,,,,,,,,,,,,,,,,,,,,,
,,61267b828ead584bcf092e35,66fc9847ad32e9cdf33b34dc,2024-10-02_02h50.38.495,mdp,2024.2.1,Win32,59.88023952,66fa4ebf79326e780c390304,,,,,,,,,,,,,,,,,,,,,702.941,702.941,702.9421,704.5239,0,1,left,1.0515,,704.5255,704.5262,,0,,704.5276,704.5286,,0,,0,704.5286,704.5286,704.5291,706.0238,0,39,39,39,1,0.4,0.6,0.8,0.2,1,0,,,,,,,,,,,,,,,,,,,,,,,,,,,,,,,,,,,,
,,61267b828ead584bcf092e35,66fc9847ad32e9cdf33b34dc,2024-10-02_02h50.38.495,mdp,2024.2.1,Win32,59.88023952,66fa4ebf79326e780c390304,,,,,,,,,,,,,,,,,,,,,706.0242,706.0242,706.0261,707.4903,1,1,right,0.943,,707.4913,707.4921,,1,,707.4929,707.4936,,1,,0,707.4936,707.4936,707.494,708.9903,0,40,40,40,1,0.6,0.4,0.2,0.8,1,0,,,,,,,,,,,,,,,,,,,,,,,,,,,,,,,,,,,,
,,61267b828ead584bcf092e35,66fc9847ad32e9cdf33b34dc,2024-10-02_02h50.38.495,mdp,2024.2.1,Win32,59.88023952,66fa4ebf79326e780c390304,,,,,,,,,,,,,,,,,,,,,708.9906,708.9907,708.992,710.357,0,0,left,0.8337,,710.3583,710.359,,0,,710.3596,710.3601,,0,,1,710.3601,710.3601,710.3606,711.8569,0,41,41,41,1,0.6,0.4,0.2,0.8,1,0,,,,,,,,,,,,,,,,,,,,,,,,,,,,,,,,,,,,
,,61267b828ead584bcf092e35,66fc9847ad32e9cdf33b34dc,2024-10-02_02h50.38.495,mdp,2024.2.1,Win32,59.88023952,66fa4ebf79326e780c390304,,,,,,,,,,,,,,,,,,,,,711.8574,711.8574,711.8585,713.3236,0,0,left,0.9338,,713.3251,713.3257,,1,,713.3265,713.3269,,0,,1,713.3269,713.3269,713.3274,714.8236,0,42,42,42,1,0.6,0.4,0.2,0.8,1,0,,,,,,,,,,,,,,,,,,,,,,,,,,,,,,,,,,,,
,,61267b828ead584bcf092e35,66fc9847ad32e9cdf33b34dc,2024-10-02_02h50.38.495,mdp,2024.2.1,Win32,59.88023952,66fa4ebf79326e780c390304,,,,,,,,,,,,,,,,,,,,,714.824,714.824,714.8251,716.1902,0,0,left,0.8344,,716.1915,716.1921,,0,,716.1926,716.1931,,0,,1,716.1932,716.1932,716.1936,717.6901,0,43,43,43,1,0.6,0.4,0.2,0.8,1,0,,,,,,,,,,,,,,,,,,,,,,,,,,,,,,,,,,,,
,,61267b828ead584bcf092e35,66fc9847ad32e9cdf33b34dc,2024-10-02_02h50.38.495,mdp,2024.2.1,Win32,59.88023952,66fa4ebf79326e780c390304,,,,,,,,,,,,,,,,,,,,,717.6904,717.6904,717.6917,719.0903,0,0,left,0.8664,,719.0916,719.0923,,0,,719.0928,719.0935,,0,,1,719.0935,719.0935,719.0943,720.5901,0,44,44,44,1,0.6,0.4,0.2,0.8,1,0,,,,,,,,,,,,,,,,,,,,,,,,,,,,,,,,,,,,
,,61267b828ead584bcf092e35,66fc9847ad32e9cdf33b34dc,2024-10-02_02h50.38.495,mdp,2024.2.1,Win32,59.88023952,66fa4ebf79326e780c390304,,,,,,,,,,,,,,,,,,,,,720.5905,720.5905,720.5919,721.8735,0,0,left,0.7542,,721.8748,721.8754,,0,,721.876,721.8766,,0,,1,721.8767,721.8767,721.8772,723.3734,0,45,45,45,1,0.8,0.2,0.8,0.2,1,0,,,,,,,,,,,,,,,,,,,,,,,,,,,,,,,,,,,,
,,61267b828ead584bcf092e35,66fc9847ad32e9cdf33b34dc,2024-10-02_02h50.38.495,mdp,2024.2.1,Win32,59.88023952,66fa4ebf79326e780c390304,,,,,,,,,,,,,,,,,,,,,723.3738,723.3738,723.3751,724.8235,0,0,left,0.9262,,724.8248,724.8256,,0,,724.8261,724.8266,,0,,1,724.8266,724.8266,724.8271,726.3232,0,46,46,46,1,0.8,0.2,0.8,0.2,1,0,,,,,,,,,,,,,,,,,,,,,,,,,,,,,,,,,,,,
,,61267b828ead584bcf092e35,66fc9847ad32e9cdf33b34dc,2024-10-02_02h50.38.495,mdp,2024.2.1,Win32,59.88023952,66fa4ebf79326e780c390304,,,,,,,,,,,,,,,,,,,,,726.3237,726.3237,726.325,727.6734,0,0,left,0.8174,,727.6747,727.6753,,0,,727.676,727.6765,,1,,1,727.6765,727.6765,727.6769,729.1731,0,47,47,47,1,0.8,0.2,0.8,0.2,1,0,,,,,,,,,,,,,,,,,,,,,,,,,,,,,,,,,,,,
,,61267b828ead584bcf092e35,66fc9847ad32e9cdf33b34dc,2024-10-02_02h50.38.495,mdp,2024.2.1,Win32,59.88023952,66fa4ebf79326e780c390304,,,,,,,,,,,,,,,,,,,,,729.1736,729.1737,729.1748,730.5066,0,1,left,0.8075,,730.5079,730.5088,,1,,730.5097,730.5102,,1,,0,730.5102,730.5102,730.5108,732.0065,0,48,48,48,1,0.6,0.4,0.4,0.6,1,0,,,,,,,,,,,,,,,,,,,,,,,,,,,,,,,,,,,,
,,61267b828ead584bcf092e35,66fc9847ad32e9cdf33b34dc,2024-10-02_02h50.38.495,mdp,2024.2.1,Win32,59.88023952,66fa4ebf79326e780c390304,,,,,,,,,,,,,,,,,,,,,732.0069,732.0069,732.0081,733.3733,0,1,left,0.8399,,733.3744,733.3751,,1,,733.3756,733.3764,,0,,0,733.3764,733.3764,733.377,734.8731,0,49,49,49,1,0.6,0.4,0.4,0.6,1,0,,,,,,,,,,,,,,,,,,,,,,,,,,,,,,,,,,,,
,,61267b828ead584bcf092e35,66fc9847ad32e9cdf33b34dc,2024-10-02_02h50.38.495,mdp,2024.2.1,Win32,59.88023952,66fa4ebf79326e780c390304,,,,,,,,,,,,,,,,,,,,,,,,,,,,,,,,,,,,,,,,,,,,,,,,,,,,,,,,734.8735,793.3888,0,0,0,0,1,imgs/kangaroo.png,imgs/giraffe.png,imgs/cat.png,imgs/goat.png,imgs/pig.png,,,,,,,,,,,,,,,,,,,,,,,,
,,61267b828ead584bcf092e35,66fc9847ad32e9cdf33b34dc,2024-10-02_02h50.38.495,mdp,2024.2.1,Win32,59.88023952,66fa4ebf79326e780c390304,,,,,,,,,,,,,,2,seqs/st2seq12.csv,793.3902,797.7718,space,3.8479,,797.7768,797.7768,797.7776,802.4051,0,0,left,4.0977,,802.4067,809.3216,0,1,left,809.3229,809.3235,,1,,0,809.3235,809.3236,809.324,810.8215,0,0,0,0,1,0.8,0.2,0.2,0.8,,,,,,,,,,,,,,,6.3807,,0.2,0.8,0.4,0.6,0.2,0.8,0.6,0.4,1,0,,,,,,,,,,,,
,,61267b828ead584bcf092e35,66fc9847ad32e9cdf33b34dc,2024-10-02_02h50.38.495,mdp,2024.2.1,Win32,59.88023952,66fa4ebf79326e780c390304,,,,,,,,,,,,,,,,,,,,,810.822,810.822,810.8233,813.3547,1,0,right,2.0006,,813.356,814.8715,1,1,right,814.873,814.8736,,1,,0,814.8737,814.8737,814.8743,816.3713,0,1,1,1,1,0.4,0.6,0.6,0.4,,,,,,,,,,,,,,,0.9915,,0.2,0.8,0.4,0.6,0.2,0.8,0.6,0.4,1,0,,,,,,,,,,,,
,,61267b828ead584bcf092e35,66fc9847ad32e9cdf33b34dc,2024-10-02_02h50.38.495,mdp,2024.2.1,Win32,59.88023952,66fa4ebf79326e780c390304,,,,,,,,,,,,,,,,,,,,,816.3718,816.3718,816.3729,819.2712,0,1,left,2.3751,,819.2724,821.688,0,1,left,821.6892,821.6899,,1,,0,821.6899,821.6899,821.6904,823.1878,0,2,2,2,1,0.4,0.6,0.6,0.4,,,,,,,,,,,,,,,1.878,,0.2,0.8,0.4,0.6,0.2,0.8,0.6,0.4,1,0,,,,,,,,,,,,
,,61267b828ead584bcf092e35,66fc9847ad32e9cdf33b34dc,2024-10-02_02h50.38.495,mdp,2024.2.1,Win32,59.88023952,66fa4ebf79326e780c390304,,,,,,,,,,,,,,,,,,,,,823.1882,823.1882,823.1896,826.2544,1,0,right,2.5414,,826.2557,827.5379,1,0,right,827.5391,827.5398,,0,,1,827.5399,827.5399,827.5406,829.0376,0,3,3,3,1,0.4,0.6,0.6,0.4,,,,,,,,,,,,,,,0.7632,,0.2,0.8,0.4,0.6,0.2,0.8,0.6,0.4,1,0,,,,,,,,,,,,
,,61267b828ead584bcf092e35,66fc9847ad32e9cdf33b34dc,2024-10-02_02h50.38.495,mdp,2024.2.1,Win32,59.88023952,66fa4ebf79326e780c390304,,,,,,,,,,,,,,,,,,,,,829.0381,829.0382,829.0393,830.6381,1,1,right,1.072,,830.6396,831.9877,1,1,right,831.9889,831.9896,,1,,0,831.9896,831.9896,831.9903,833.4876,0,4,4,4,1,0.4,0.6,0.6,0.4,,,,,,,,,,,,,,,0.8152,,0.4,0.6,0.2,0.8,0.2,0.8,0.6,0.4,1,0,,,,,,,,,,,,
,,61267b828ead584bcf092e35,66fc9847ad32e9cdf33b34dc,2024-10-02_02h50.38.495,mdp,2024.2.1,Win32,59.88023952,66fa4ebf79326e780c390304,,,,,,,,,,,,,,,,,,,,,833.488,833.488,833.4892,836.2377,1,0,right,2.2192,,836.2392,837.3709,1,1,right,837.3721,837.3728,,1,,0,837.3728,837.3728,837.3734,838.8709,0,5,5,5,1,0.4,0.6,0.6,0.4,,,,,,,,,,,,,,,0.5972,,0.4,0.6,0.2,0.8,0.2,0.8,0.6,0.4,1,0,,,,,,,,,,,,
,,61267b828ead584bcf092e35,66fc9847ad32e9cdf33b34dc,2024-10-02_02h50.38.495,mdp,2024.2.1,Win32,59.88023952,66fa4ebf79326e780c390304,,,,,,,,,,,,,,,,,,,,,838.8716,838.8716,838.8726,840.6709,1,0,right,1.2672,,840.6724,841.7208,1,1,right,841.722,841.7226,,1,,0,841.7226,841.7226,841.7232,843.2208,0,6,6,6,1,0.4,0.6,0.6,0.4,,,,,,,,,,,,,,,0.5242,,0.4,0.6,0.2,0.8,0.2,0.8,0.6,0.4,1,0,,,,,,,,,,,,
,,61267b828ead584bcf092e35,66fc9847ad32e9cdf33b34dc,2024-10-02_02h50.38.495,mdp,2024.2.1,Win32,59.88023952,66fa4ebf79326e780c390304,,,,,,,,,,,,,,,,,,,,,843.2211,843.2211,843.2223,844.5707,0,0,left,0.8149,,844.572,845.6541,0,1,left,845.6555,845.656,,1,,0,845.6561,845.6561,845.6566,847.154,0,7,7,7,1,0.4,0.6,0.6,0.4,,,,,,,,,,,,,,,0.5527,,0.4,0.6,0.2,0.8,0.2,0.8,0.6,0.4,1,0,,,,,,,,,,,,
,,61267b828ead584bcf092e35,66fc9847ad32e9cdf33b34dc,2024-10-02_02h50.38.495,mdp,2024.2.1,Win32,59.88023952,66fa4ebf79326e780c390304,,,,,,,,,,,,,,,,,,,,,847.1545,847.1545,847.1557,848.4375,0,0,left,0.7505,,848.4387,849.6374,0,1,left,849.6385,849.6393,,1,,0,849.6393,849.6393,849.6399,851.1372,0,8,8,8,1,0.4,0.6,0.6,0.4,,,,,,,,,,,,,,,0.6694,,0.4,0.6,0.2,0.8,0.2,0.8,0.6,0.4,1,0,,,,,,,,,,,,
,,61267b828ead584bcf092e35,66fc9847ad32e9cdf33b34dc,2024-10-02_02h50.38.495,mdp,2024.2.1,Win32,59.88023952,66fa4ebf79326e780c390304,,,,,,,,,,,,,,,,,,,,,851.1377,851.1377,851.139,852.1372,1,0,right,0.4676,,852.1384,853.0873,1,1,right,853.0889,853.0895,,1,,0,853.0895,853.0896,853.0902,854.5871,0,9,9,9,1,0.4,0.6,0.6,0.4,,,,,,,,,,,,,,,0.4338,,0.4,0.6,0.2,0.8,0.2,0.8,0.6,0.4,1,0,,,,,,,,,,,,
,,61267b828ead584bcf092e35,66fc9847ad32e9cdf33b34dc,2024-10-02_02h50.38.495,mdp,2024.2.1,Win32,59.88023952,66fa4ebf79326e780c390304,,,,,,,,,,,,,,,,,,,,,854.5876,854.5876,854.589,855.6206,1,0,right,0.5006,,855.6217,856.4872,1,0,right,856.4884,856.489,,0,,1,856.4891,856.4891,856.4897,857.987,0,10,10,10,1,0.4,0.6,0.6,0.4,,,,,,,,,,,,,,,0.3314,,0.6,0.4,0.6,0.4,0.2,0.8,0.6,0.4,1,0,,,,,,,,,,,,
,,61267b828ead584bcf092e35,66fc9847ad32e9cdf33b34dc,2024-10-02_02h50.38.495,mdp,2024.2.1,Win32,59.88023952,66fa4ebf79326e780c390304,,,,,,,,,,,,,,,,,,,,,857.9876,857.9876,857.9887,859.1372,1,0,right,0.618,,859.1385,860.0705,1,0,right,860.0716,860.0723,,1,,1,860.0724,860.0724,860.0729,861.5703,0,11,11,11,1,0.4,0.6,0.6,0.4,,,,,,,,,,,,,,,0.4036,,0.6,0.4,0.6,0.4,0.2,0.8,0.6,0.4,1,0,,,,,,,,,,,,
,,61267b828ead584bcf092e35,66fc9847ad32e9cdf33b34dc,2024-10-02_02h50.38.495,mdp,2024.2.1,Win32,59.88023952,66fa4ebf79326e780c390304,,,,,,,,,,,,,,,,,,,,,861.5708,861.5708,861.5719,862.6204,1,0,right,0.5178,,862.6218,863.5537,1,1,right,863.5551,863.5558,,1,,0,863.5559,863.5559,863.5564,865.0536,0,12,12,12,1,0.4,0.6,0.6,0.4,,,,,,,,,,,,,,,0.4021,,0.6,0.4,0.6,0.4,0.2,0.8,0.6,0.4,1,0,,,,,,,,,,,,
,,61267b828ead584bcf092e35,66fc9847ad32e9cdf33b34dc,2024-10-02_02h50.38.495,mdp,2024.2.1,Win32,59.88023952,66fa4ebf79326e780c390304,,,,,,,,,,,,,,,,,,,,,865.054,865.054,865.0551,866.0037,1,1,right,0.4177,,866.0049,866.8536,1,0,right,866.8549,866.8555,,1,,1,866.8556,866.8556,866.8561,868.3535,0,13,13,13,1,0.6,0.4,0.2,0.8,,,,,,,,,,,,,,,0.3185,,0.6,0.4,0.6,0.4,0.2,0.8,0.6,0.4,1,0,,,,,,,,,,,,
,,61267b828ead584bcf092e35,66fc9847ad32e9cdf33b34dc,2024-10-02_02h50.38.495,mdp,2024.2.1,Win32,59.88023952,66fa4ebf79326e780c390304,,,,,,,,,,,,,,,,,,,,,868.3539,868.3539,868.3552,869.4536,1,1,right,0.5738,,869.4548,870.3202,1,0,right,870.3216,870.3222,,1,,1,870.3223,870.3223,870.3231,871.8201,0,14,14,14,1,0.6,0.4,0.2,0.8,,,,,,,,,,,,,,,0.3503,,0.6,0.4,0.6,0.4,0.2,0.8,0.6,0.4,1,0,,,,,,,,,,,,
,,61267b828ead584bcf092e35,66fc9847ad32e9cdf33b34dc,2024-10-02_02h50.38.495,mdp,2024.2.1,Win32,59.88023952,66fa4ebf79326e780c390304,,,,,,,,,,,,,,,,,,,,,871.8206,871.8206,871.8216,872.7369,1,1,right,0.3816,,872.7381,873.5869,1,1,right,873.5881,873.5887,,0,,0,873.5888,873.5888,873.5894,875.0867,0,15,15,15,1,0.6,0.4,0.2,0.8,,,,,,,,,,,,,,,0.3179,,0.6,0.4,0.6,0.4,0.2,0.8,0.6,0.4,1,0,,,,,,,,,,,,
,,61267b828ead584bcf092e35,66fc9847ad32e9cdf33b34dc,2024-10-02_02h50.38.495,mdp,2024.2.1,Win32,59.88023952,66fa4ebf79326e780c390304,,,,,,,,,,,,,,,,,,,,,875.0872,875.0873,875.0884,876.1035,1,1,right,0.4911,,876.1048,876.9701,1,0,right,876.9714,876.9724,,1,,1,876.9724,876.9724,876.9734,878.4699,0,16,16,16,1,0.6,0.4,0.2,0.8,,,,,,,,,,,,,,,0.3362,,0.6,0.4,0.6,0.4,0.2,0.8,0.6,0.4,1,0,,,,,,,,,,,,
,,61267b828ead584bcf092e35,66fc9847ad32e9cdf33b34dc,2024-10-02_02h50.38.495,mdp,2024.2.1,Win32,59.88023952,66fa4ebf79326e780c390304,,,,,,,,,,,,,,,,,,,,,878.4704,878.4704,878.4714,879.4033,1,0,right,0.4054,,879.4046,880.287,1,1,right,880.2885,880.2893,,0,,0,880.2893,880.2893,880.2902,881.7867,0,17,17,17,1,0.6,0.4,0.2,0.8,,,,,,,,,,,,,,,0.3499,,0.6,0.4,0.6,0.4,0.4,0.6,0.4,0.6,1,0,,,,,,,,,,,,
,,61267b828ead584bcf092e35,66fc9847ad32e9cdf33b34dc,2024-10-02_02h50.38.495,mdp,2024.2.1,Win32,59.88023952,66fa4ebf79326e780c390304,,,,,,,,,,,,,,,,,,,,,881.7877,881.7877,881.7886,882.6868,1,1,right,0.3692,,882.6883,883.5201,1,0,right,883.5217,883.5223,,0,,1,883.5223,883.5223,883.5231,885.02,0,18,18,18,1,0.6,0.4,0.2,0.8,,,,,,,,,,,,,,,0.2973,,0.6,0.4,0.6,0.4,0.4,0.6,0.4,0.6,1,0,,,,,,,,,,,,
,,61267b828ead584bcf092e35,66fc9847ad32e9cdf33b34dc,2024-10-02_02h50.38.495,mdp,2024.2.1,Win32,59.88023952,66fa4ebf79326e780c390304,,,,,,,,,,,,,,,,,,,,,885.0204,885.0206,885.0218,886.2867,0,1,left,0.7313,,886.2882,887.1369,0,0,left,887.1383,887.139,,0,,1,887.1391,887.1391,887.14,888.6368,0,19,19,19,1,0.6,0.4,0.2,0.8,,,,,,,,,,,,,,,0.3176,,0.6,0.4,0.6,0.4,0.4,0.6,0.4,0.6,1,0,,,,,,,,,,,,
,,61267b828ead584bcf092e35,66fc9847ad32e9cdf33b34dc,2024-10-02_02h50.38.495,mdp,2024.2.1,Win32,59.88023952,66fa4ebf79326e780c390304,,,,,,,,,,,,,,,,,,,,,888.6372,888.6372,888.6386,889.6033,1,0,right,0.4313,,889.605,890.6369,1,1,right,890.6387,890.6396,,0,,0,890.6397,890.6397,890.6411,892.1364,0,20,20,20,1,0.6,0.4,0.2,0.8,,,,,,,,,,,,,,,0.4968,,0.6,0.4,0.6,0.4,0.4,0.6,0.4,0.6,1,0,,,,,,,,,,,,
,,61267b828ead584bcf092e35,66fc9847ad32e9cdf33b34dc,2024-10-02_02h50.38.495,mdp,2024.2.1,Win32,59.88023952,66fa4ebf79326e780c390304,,,,,,,,,,,,,,,,,,,,,892.1369,892.1369,892.1379,893.0864,1,1,right,0.4172,,893.0877,894.0365,1,0,right,894.0377,894.0383,,0,,1,894.0383,894.0383,894.0389,895.5362,0,21,21,21,1,0.6,0.4,0.2,0.8,,,,,,,,,,,,,,,0.4175,,0.6,0.4,0.6,0.4,0.8,0.2,0.6,0.4,1,0,,,,,,,,,,,,
,,61267b828ead584bcf092e35,66fc9847ad32e9cdf33b34dc,2024-10-02_02h50.38.495,mdp,2024.2.1,Win32,59.88023952,66fa4ebf79326e780c390304,,,,,,,,,,,,,,,,,,,,,895.5367,895.5367,895.5381,896.5197,1,1,right,0.4503,,896.5209,897.3696,1,0,right,897.371,897.3717,,0,,1,897.3717,897.3717,897.3724,898.8696,0,22,22,22,1,0.6,0.4,0.2,0.8,,,,,,,,,,,,,,,0.3149,,0.6,0.4,0.6,0.4,0.8,0.2,0.6,0.4,1,0,,,,,,,,,,,,
,,61267b828ead584bcf092e35,66fc9847ad32e9cdf33b34dc,2024-10-02_02h50.38.495,mdp,2024.2.1,Win32,59.88023952,66fa4ebf79326e780c390304,,,,,,,,,,,,,,,,,,,,,898.87,898.87,898.8712,900.003,1,1,right,0.6031,,900.0042,901.0863,1,0,right,901.0879,901.0887,,1,,1,901.0887,901.0887,901.0892,902.5861,0,23,23,23,1,0.6,0.4,0.2,0.8,,,,,,,,,,,,,,,0.557,,0.6,0.4,0.6,0.4,0.8,0.2,0.6,0.4,1,0,,,,,,,,,,,,
,,61267b828ead584bcf092e35,66fc9847ad32e9cdf33b34dc,2024-10-02_02h50.38.495,mdp,2024.2.1,Win32,59.88023952,66fa4ebf79326e780c390304,,,,,,,,,,,,,,,,,,,,,902.5865,902.5865,902.5876,903.5862,1,1,right,0.4696,,903.5874,904.6196,1,0,right,904.6207,904.6213,,1,,1,904.6214,904.6214,904.6219,906.1193,0,24,24,24,1,0.6,0.4,0.2,0.8,,,,,,,,,,,,,,,0.505,,0.6,0.4,0.6,0.4,0.8,0.2,0.6,0.4,1,0,,,,,,,,,,,,
,,61267b828ead584bcf092e35,66fc9847ad32e9cdf33b34dc,2024-10-02_02h50.38.495,mdp,2024.2.1,Win32,59.88023952,66fa4ebf79326e780c390304,,,,,,,,,,,,,,,,,,,,,906.1198,906.1198,906.1209,907.1362,1,0,right,0.4839,,907.1374,908.3193,0,0,left,908.3205,908.3212,,0,,1,908.3212,908.3212,908.3217,909.8193,0,25,25,25,1,0.6,0.4,0.2,0.8,,,,,,,,,,,,,,,0.6475,,0.6,0.4,0.6,0.4,0.8,0.2,0.6,0.4,1,0,,,,,,,,,,,,
,,61267b828ead584bcf092e35,66fc9847ad32e9cdf33b34dc,2024-10-02_02h50.38.495,mdp,2024.2.1,Win32,59.88023952,66fa4ebf79326e780c390304,,,,,,,,,,,,,,,,,,,,,909.8197,909.8197,909.8209,912.6525,1,1,right,2.3005,,912.6538,913.9693,1,1,right,913.9707,913.9713,,1,,0,913.9713,913.9714,913.9719,915.4692,0,26,26,26,1,0.6,0.4,0.2,0.8,,,,,,,,,,,,,,,0.7807,,0.6,0.4,0.6,0.4,0.8,0.2,0.6,0.4,1,0,,,,,,,,,,,,
,,61267b828ead584bcf092e35,66fc9847ad32e9cdf33b34dc,2024-10-02_02h50.38.495,mdp,2024.2.1,Win32,59.88023952,66fa4ebf79326e780c390304,,,,,,,,,,,,,,,,,,,,,915.4696,915.4696,915.4708,916.8026,1,1,right,0.8103,,916.8039,917.9359,1,0,right,917.9371,917.9378,,0,,1,917.9378,917.9378,917.9384,919.4359,0,27,27,27,1,0.6,0.4,0.2,0.8,,,,,,,,,,,,,,,0.6102,,0.8,0.2,0.2,0.8,0.8,0.2,0.6,0.4,1,0,,,,,,,,,,,,
,,61267b828ead584bcf092e35,66fc9847ad32e9cdf33b34dc,2024-10-02_02h50.38.495,mdp,2024.2.1,Win32,59.88023952,66fa4ebf79326e780c390304,,,,,,,,,,,,,,,,,,,,,919.4363,919.4363,919.4376,920.5525,1,1,right,0.5863,,920.5537,921.7194,1,0,right,921.7212,921.7222,,0,,1,921.7223,921.7223,921.7232,923.219,0,28,28,28,1,0.6,0.4,0.2,0.8,,,,,,,,,,,,,,,0.6441,,0.8,0.2,0.2,0.8,0.8,0.2,0.6,0.4,1,0,,,,,,,,,,,,
,,61267b828ead584bcf092e35,66fc9847ad32e9cdf33b34dc,2024-10-02_02h50.38.495,mdp,2024.2.1,Win32,59.88023952,66fa4ebf79326e780c390304,,,,,,,,,,,,,,,,,,,,,923.2193,923.2193,923.2205,924.2857,1,1,right,0.5376,,924.287,925.2358,1,0,right,925.2369,925.2376,,1,,1,925.2376,925.2376,925.2383,926.7355,0,29,29,29,1,0.6,0.4,0.2,0.8,,,,,,,,,,,,,,,0.417,,0.8,0.2,0.2,0.8,0.8,0.2,0.6,0.4,1,0,,,,,,,,,,,,
,,61267b828ead584bcf092e35,66fc9847ad32e9cdf33b34dc,2024-10-02_02h50.38.495,mdp,2024.2.1,Win32,59.88023952,66fa4ebf79326e780c390304,,,,,,,,,,,,,,,,,,,,,926.736,926.7361,926.7371,927.9024,1,0,right,0.6417,,927.9036,929.3188,0,1,left,929.3201,929.3208,,0,,0,929.3209,929.3209,929.3216,930.8188,0,30,30,30,1,0.6,0.4,0.2,0.8,,,,,,,,,,,,,,,0.8887,,0.8,0.2,0.2,0.8,0.8,0.2,0.6,0.4,1,0,,,,,,,,,,,,
,,61267b828ead584bcf092e35,66fc9847ad32e9cdf33b34dc,2024-10-02_02h50.38.495,mdp,2024.2.1,Win32,59.88023952,66fa4ebf79326e780c390304,,,,,,,,,,,,,,,,,,,,,930.8193,930.8193,930.8204,933.3855,0,1,left,2.0434,,933.3868,934.7854,1,1,right,934.7867,934.7875,,1,,0,934.7875,934.7875,934.788,936.2854,0,31,31,31,1,0.6,0.4,0.2,0.8,,,,,,,,,,,,,,,0.8639,,0.8,0.2,0.2,0.8,0.8,0.2,0.6,0.4,1,0,,,,,,,,,,,,
,,61267b828ead584bcf092e35,66fc9847ad32e9cdf33b34dc,2024-10-02_02h50.38.495,mdp,2024.2.1,Win32,59.88023952,66fa4ebf79326e780c390304,,,,,,,,,,,,,,,,,,,,,936.2858,936.2858,936.2871,937.7021,1,1,right,0.8838,,937.7034,938.7521,1,1,right,938.7536,938.7542,,1,,0,938.7543,938.7543,938.7548,940.2519,0,32,32,32,1,0.6,0.4,0.2,0.8,,,,,,,,,,,,,,,0.5251,,0.8,0.2,0.2,0.8,0.8,0.2,0.6,0.4,1,0,,,,,,,,,,,,
,,61267b828ead584bcf092e35,66fc9847ad32e9cdf33b34dc,2024-10-02_02h50.38.495,mdp,2024.2.1,Win32,59.88023952,66fa4ebf79326e780c390304,,,,,,,,,,,,,,,,,,,,,940.2525,940.2525,940.2537,941.1854,1,1,right,0.4002,,941.1867,941.9854,1,0,right,941.9865,941.9872,,0,,1,941.9872,941.9872,941.9877,943.4852,0,33,33,33,1,0.6,0.4,0.2,0.8,,,,,,,,,,,,,,,0.2688,,0.8,0.2,0.2,0.8,0.8,0.2,0.6,0.4,1,0,,,,,,,,,,,,
,,61267b828ead584bcf092e35,66fc9847ad32e9cdf33b34dc,2024-10-02_02h50.38.495,mdp,2024.2.1,Win32,59.88023952,66fa4ebf79326e780c390304,,,,,,,,,,,,,,,,,,,,,943.4856,943.4856,943.4867,944.5019,1,1,right,0.4872,,944.5032,945.5019,1,1,right,945.5032,945.5039,,1,,0,945.5039,945.5039,945.5044,947.0017,0,34,34,34,1,0.6,0.4,0.2,0.8,,,,,,,,,,,,,,,0.469,,0.8,0.2,0.2,0.8,0.8,0.2,0.6,0.4,1,0,,,,,,,,,,,,
,,61267b828ead584bcf092e35,66fc9847ad32e9cdf33b34dc,2024-10-02_02h50.38.495,mdp,2024.2.1,Win32,59.88023952,66fa4ebf79326e780c390304,,,,,,,,,,,,,,,,,,,,,947.0022,947.0022,947.0033,947.8685,1,1,right,0.3407,,947.8696,948.8187,1,0,right,948.82,948.8207,,1,,1,948.8207,948.8207,948.8213,950.3184,0,35,35,35,1,0.6,0.4,0.2,0.8,,,,,,,,,,,,,,,0.417,,0.8,0.2,0.2,0.8,0.2,0.8,0.2,0.8,1,0,,,,,,,,,,,,
,,61267b828ead584bcf092e35,66fc9847ad32e9cdf33b34dc,2024-10-02_02h50.38.495,mdp,2024.2.1,Win32,59.88023952,66fa4ebf79326e780c390304,,,,,,,,,,,,,,,,,,,,,950.3188,950.3188,950.3201,951.4019,1,1,right,0.5524,,951.4033,952.4184,1,0,right,952.4196,952.4202,,1,,1,952.4203,952.4203,952.4208,953.9183,0,36,36,36,1,0.6,0.4,0.2,0.8,,,,,,,,,,,,,,,0.4849,,0.8,0.2,0.2,0.8,0.2,0.8,0.2,0.8,1,0,,,,,,,,,,,,
,,61267b828ead584bcf092e35,66fc9847ad32e9cdf33b34dc,2024-10-02_02h50.38.495,mdp,2024.2.1,Win32,59.88023952,66fa4ebf79326e780c390304,,,,,,,,,,,,,,,,,,,,,953.9188,953.9188,953.9198,954.9684,1,1,right,0.5182,,954.9697,956.0183,1,1,right,956.0196,956.0203,,1,,0,956.0203,956.0203,956.0208,957.5183,0,37,37,37,1,0.6,0.4,0.2,0.8,,,,,,,,,,,,,,,0.5211,,0.8,0.2,0.2,0.8,0.2,0.8,0.2,0.8,1,0,,,,,,,,,,,,
,,61267b828ead584bcf092e35,66fc9847ad32e9cdf33b34dc,2024-10-02_02h50.38.495,mdp,2024.2.1,Win32,59.88023952,66fa4ebf79326e780c390304,,,,,,,,,,,,,,,,,,,,,957.5187,957.5188,957.5198,958.5183,1,1,right,0.467,,958.5196,959.385,1,1,right,959.3862,959.3869,,1,,0,959.3869,959.387,959.3877,960.8849,0,38,38,38,1,0.6,0.4,0.2,0.8,,,,,,,,,,,,,,,0.3383,,0.8,0.2,0.2,0.8,0.2,0.8,0.2,0.8,1,0,,,,,,,,,,,,
,,61267b828ead584bcf092e35,66fc9847ad32e9cdf33b34dc,2024-10-02_02h50.38.495,mdp,2024.2.1,Win32,59.88023952,66fa4ebf79326e780c390304,,,,,,,,,,,,,,,,,,,,,960.8854,960.8854,960.8864,961.9349,1,0,right,0.517,,961.9361,964.7348,1,1,right,964.7361,964.7368,,1,,0,964.7368,964.7368,964.7374,966.2347,0,39,39,39,1,0.6,0.4,0.2,0.8,,,,,,,,,,,,,,,2.2639,,0.8,0.2,0.2,0.8,0.2,0.8,0.2,0.8,1,0,,,,,,,,,,,,
,,61267b828ead584bcf092e35,66fc9847ad32e9cdf33b34dc,2024-10-02_02h50.38.495,mdp,2024.2.1,Win32,59.88023952,66fa4ebf79326e780c390304,,,,,,,,,,,,,,,,,,,,,966.2352,966.2352,966.2363,967.9347,1,1,right,1.1695,,967.936,969.2514,1,1,right,969.2526,969.2532,,0,,0,969.2532,969.2532,969.2537,970.7512,0,40,40,40,1,0.6,0.4,0.2,0.8,,,,,,,,,,,,,,,0.78,,0.8,0.2,0.2,0.8,0.2,0.8,0.2,0.8,1,0,,,,,,,,,,,,
,,61267b828ead584bcf092e35,66fc9847ad32e9cdf33b34dc,2024-10-02_02h50.38.495,mdp,2024.2.1,Win32,59.88023952,66fa4ebf79326e780c390304,,,,,,,,,,,,,,,,,,,,,970.7516,970.7517,970.7528,971.8851,1,0,right,0.6114,,971.886,973.5345,0,0,left,973.5358,973.5365,,0,,1,973.5365,973.5365,973.537,975.0345,0,41,41,41,1,0.6,0.4,0.2,0.8,,,,,,,,,,,,,,,1.1149,,0.8,0.2,0.2,0.8,0.2,0.8,0.2,0.8,1,0,,,,,,,,,,,,
,,61267b828ead584bcf092e35,66fc9847ad32e9cdf33b34dc,2024-10-02_02h50.38.495,mdp,2024.2.1,Win32,59.88023952,66fa4ebf79326e780c390304,,,,,,,,,,,,,,,,,,,,,975.0349,975.035,975.0361,977.0178,1,0,right,1.4501,,977.019,978.1345,0,0,left,978.1357,978.1364,,0,,1,978.1364,978.1364,978.1369,979.6344,0,42,42,42,1,0.6,0.4,0.2,0.8,,,,,,,,,,,,,,,0.5836,,0.8,0.2,0.2,0.8,0.2,0.8,0.2,0.8,1,0,,,,,,,,,,,,
,,61267b828ead584bcf092e35,66fc9847ad32e9cdf33b34dc,2024-10-02_02h50.38.495,mdp,2024.2.1,Win32,59.88023952,66fa4ebf79326e780c390304,,,,,,,,,,,,,,,,,,,,,979.635,979.635,979.6363,980.7178,1,1,right,0.5583,,980.719,982.451,0,1,left,982.4523,982.4529,,1,,0,982.4529,982.4529,982.4534,983.951,0,43,43,43,1,0.6,0.4,0.2,0.8,,,,,,,,,,,,,,,1.2055,,0.8,0.2,0.2,0.8,0.2,0.8,0.2,0.8,1,0,,,,,,,,,,,,
,,61267b828ead584bcf092e35,66fc9847ad32e9cdf33b34dc,2024-10-02_02h50.38.495,mdp,2024.2.1,Win32,59.88023952,66fa4ebf79326e780c390304,,,,,,,,,,,,,,,,,,,,,983.9515,983.9515,983.9526,985.4844,1,1,right,1.0111,,985.4857,986.5843,1,1,right,986.5855,986.5862,,1,,0,986.5862,986.5862,986.587,988.0842,0,44,44,44,1,0.6,0.4,0.2,0.8,,,,,,,,,,,,,,,0.5688,,0.8,0.2,0.2,0.8,0.2,0.8,0.2,0.8,1,0,,,,,,,,,,,,
,,61267b828ead584bcf092e35,66fc9847ad32e9cdf33b34dc,2024-10-02_02h50.38.495,mdp,2024.2.1,Win32,59.88023952,66fa4ebf79326e780c390304,,,,,,,,,,,,,,,,,,,,,988.0846,988.0847,988.0861,989.0676,1,1,right,0.4483,,989.0688,990.0009,1,1,right,990.0022,990.0028,,1,,0,990.0028,990.0028,990.0034,991.5009,0,45,45,45,1,0.6,0.4,0.2,0.8,,,,,,,,,,,,,,,0.4005,,0.8,0.2,0.2,0.8,0.2,0.8,0.2,0.8,1,0,,,,,,,,,,,,
,,61267b828ead584bcf092e35,66fc9847ad32e9cdf33b34dc,2024-10-02_02h50.38.495,mdp,2024.2.1,Win32,59.88023952,66fa4ebf79326e780c390304,,,,,,,,,,,,,,,,,,,,,991.5012,991.5012,991.5028,992.6008,0,0,left,0.5766,,992.602,994.2175,0,1,left,994.2191,994.2198,,0,,0,994.2198,994.2198,994.2205,995.7173,0,46,46,46,1,0.6,0.4,0.2,0.8,,,,,,,,,,,,,,,1.0807,,0.8,0.2,0.2,0.8,0.2,0.8,0.2,0.8,1,0,,,,,,,,,,,,
,,61267b828ead584bcf092e35,66fc9847ad32e9cdf33b34dc,2024-10-02_02h50.38.495,mdp,2024.2.1,Win32,59.88023952,66fa4ebf79326e780c390304,,,,,,,,,,,,,,,,,,,,,995.7179,995.7179,995.719,997.2341,1,1,right,0.9943,,997.2354,998.734,0,1,left,998.7353,998.7359,,1,,0,998.7359,998.7359,998.7364,1000.234,0,47,47,47,1,0.6,0.4,0.2,0.8,,,,,,,,,,,,,,,0.9738,,0.8,0.2,0.2,0.8,0.2,0.8,0.2,0.8,1,0,,,,,,,,,,,,
,,61267b828ead584bcf092e35,66fc9847ad32e9cdf33b34dc,2024-10-02_02h50.38.495,mdp,2024.2.1,Win32,59.88023952,66fa4ebf79326e780c390304,,,,,,,,,,,,,,,,,,,,,1000.2345,1000.2345,1000.2357,1003.4176,1,0,right,2.6611,,1003.419,1004.7339,0,1,left,1004.7351,1004.7357,,0,,0,1004.7358,1004.7358,1004.7363,1006.2338,0,48,48,48,1,0.2,0.8,0.8,0.2,,,,,,,,,,,,,,,0.7813,,0.8,0.2,0.2,0.8,0.2,0.8,0.2,0.8,1,0,,,,,,,,,,,,
,,61267b828ead584bcf092e35,66fc9847ad32e9cdf33b34dc,2024-10-02_02h50.38.495,mdp,2024.2.1,Win32,59.88023952,66fa4ebf79326e780c390304,,,,,,,,,,,,,,,,,,,,,1006.2343,1006.2343,1006.2354,1007.8005,1,1,right,1.0375,,1007.8018,1009.6005,1,1,right,1009.6018,1009.6025,,0,,0,1009.6025,1009.6025,1009.603,1011.1003,0,49,49,49,1,0.2,0.8,0.8,0.2,,,,,,,,,,,,,,,1.2651,,0.8,0.2,0.2,0.8,0.2,0.8,0.2,0.8,1,0,,,,,,,,,,,,
,,61267b828ead584bcf092e35,66fc9847ad32e9cdf33b34dc,2024-10-02_02h50.38.495,mdp,2024.2.1,Win32,59.88023952,66fa4ebf79326e780c390304,,,,,,,,,,,,,,,,,,,,,,,,,,,,,,,,,,,,,,,,,,,,,,,,,,,,,,,,1011.1005,1069.6157,0,1,1,1,1,imgs/goat.png,imgs/kangaroo.png,imgs/rabbit.png,imgs/lion.png,imgs/horse.png,,,,,,,,,,,,,,,,,,,,,,,,
,,61267b828ead584bcf092e35,66fc9847ad32e9cdf33b34dc,2024-10-02_02h50.38.495,mdp,2024.2.1,Win32,59.88023952,66fa4ebf79326e780c390304,,,,,,,,,,,,,,3,seqs/st3seq48.csv,1069.6174,1071.9493,space,1.807,,1071.9554,1071.9554,1071.9562,1075.149,0,0,left,2.6679,,1075.1502,1076.149,0,0,left,1076.1502,1077.6492,0,1,left,0,1077.6494,1077.6494,1077.6507,1079.1488,0,0,0,0,1,0.8,0.2,0.8,0.2,,,,,,,,,,,,,,,0.4676,,0.8,0.2,0.2,0.8,0.6,0.4,0.4,0.6,,,0.9697,,0.4,0.6,0.6,0.4,0.2,0.8,0.6,0.4,1,0
,,61267b828ead584bcf092e35,66fc9847ad32e9cdf33b34dc,2024-10-02_02h50.38.495,mdp,2024.2.1,Win32,59.88023952,66fa4ebf79326e780c390304,,,,,,,,,,,,,,,,,,,,,1079.1494,1079.1494,1079.1506,1080.699,1,1,right,1.0244,,1080.7005,1082.4657,1,1,right,1082.4671,1083.4656,1,0,right,1,1083.4658,1083.4658,1083.4669,1084.9654,0,1,1,1,1,0.8,0.2,0.8,0.2,,,,,,,,,,,,,,,1.2322,,0.6,0.4,0.6,0.4,0.6,0.4,0.4,0.6,,,0.4684,,0.4,0.6,0.6,0.4,0.2,0.8,0.6,0.4,1,0
,,61267b828ead584bcf092e35,66fc9847ad32e9cdf33b34dc,2024-10-02_02h50.38.495,mdp,2024.2.1,Win32,59.88023952,66fa4ebf79326e780c390304,,,,,,,,,,,,,,,,,,,,,1084.966,1084.966,1084.9671,1086.0322,1,0,right,0.5364,,1086.0338,1086.9488,1,0,right,1086.9502,1087.8323,1,0,right,1,1087.8324,1087.8324,1087.8334,1089.332,0,2,2,2,1,0.8,0.2,0.8,0.2,,,,,,,,,,,,,,,0.3853,,0.6,0.4,0.6,0.4,0.6,0.4,0.4,0.6,,,0.3527,,0.4,0.6,0.6,0.4,0.2,0.8,0.6,0.4,1,0
,,61267b828ead584bcf092e35,66fc9847ad32e9cdf33b34dc,2024-10-02_02h50.38.495,mdp,2024.2.1,Win32,59.88023952,66fa4ebf79326e780c390304,,,,,,,,,,,,,,,,,,,,,1089.3326,1089.3326,1089.3337,1090.3655,1,0,right,0.5031,,1090.3666,1091.2323,1,0,right,1091.2337,1092.0987,1,0,right,1,1092.0988,1092.0988,1092.1003,1093.5986,0,3,3,3,1,0.8,0.2,0.8,0.2,,,,,,,,,,,,,,,0.3336,,0.6,0.4,0.6,0.4,0.6,0.4,0.4,0.6,,,0.3363,,0.4,0.6,0.6,0.4,0.2,0.8,0.6,0.4,1,0
,,61267b828ead584bcf092e35,66fc9847ad32e9cdf33b34dc,2024-10-02_02h50.38.495,mdp,2024.2.1,Win32,59.88023952,66fa4ebf79326e780c390304,,,,,,,,,,,,,,,,,,,,,1093.5991,1093.5991,1093.6008,1094.5487,1,0,right,0.4255,,1094.5499,1095.4653,1,0,right,1095.4665,1096.2652,1,0,right,1,1096.2654,1096.2654,1096.2665,1097.7651,0,4,4,4,1,0.8,0.2,0.8,0.2,,,,,,,,,,,,,,,0.3814,,0.6,0.4,0.6,0.4,0.6,0.4,0.4,0.6,,,0.2671,,0.4,0.6,0.6,0.4,0.2,0.8,0.6,0.4,1,0
,,61267b828ead584bcf092e35,66fc9847ad32e9cdf33b34dc,2024-10-02_02h50.38.495,mdp,2024.2.1,Win32,59.88023952,66fa4ebf79326e780c390304,,,,,,,,,,,,,,,,,,,,,1097.7656,1097.7656,1097.7667,1098.732,1,0,right,0.4405,,1098.7331,1099.5986,1,1,right,1099.5999,1100.3652,1,0,right,1,1100.3653,1100.3654,1100.3667,1101.8651,0,5,5,5,1,0.8,0.2,0.8,0.2,,,,,,,,,,,,,,,0.3378,,0.6,0.4,0.6,0.4,0.6,0.4,0.4,0.6,,,0.2376,,0.4,0.6,0.6,0.4,0.2,0.8,0.6,0.4,1,0
,,61267b828ead584bcf092e35,66fc9847ad32e9cdf33b34dc,2024-10-02_02h50.38.495,mdp,2024.2.1,Win32,59.88023952,66fa4ebf79326e780c390304,,,,,,,,,,,,,,,,,,,,,1101.8655,1101.8656,1101.8666,1102.8652,1,0,right,0.4674,,1102.8665,1103.6656,1,0,right,1103.6668,1104.5151,1,0,right,1,1104.5151,1104.5152,1104.5164,1106.0151,0,6,6,6,1,0.8,0.2,0.8,0.2,,,,,,,,,,,,,,,0.2779,,0.6,0.4,0.6,0.4,0.6,0.4,0.4,0.6,,,0.3226,,0.4,0.6,0.6,0.4,0.2,0.8,0.6,0.4,1,0
,,61267b828ead584bcf092e35,66fc9847ad32e9cdf33b34dc,2024-10-02_02h50.38.495,mdp,2024.2.1,Win32,59.88023952,66fa4ebf79326e780c390304,,,,,,,,,,,,,,,,,,,,,1106.0155,1106.0156,1106.0167,1106.9151,1,0,right,0.3672,,1106.9163,1107.7318,1,1,right,1107.733,1108.6484,1,1,right,0,1108.6485,1108.6485,1108.6496,1110.1482,0,7,7,7,1,0.2,0.8,0.6,0.4,,,,,,,,,,,,,,,0.2896,,0.6,0.4,0.6,0.4,0.6,0.4,0.4,0.6,,,0.3837,,0.4,0.6,0.6,0.4,0.2,0.8,0.6,0.4,1,0
,,61267b828ead584bcf092e35,66fc9847ad32e9cdf33b34dc,2024-10-02_02h50.38.495,mdp,2024.2.1,Win32,59.88023952,66fa4ebf79326e780c390304,,,,,,,,,,,,,,,,,,,,,1110.1487,1110.1488,1110.1499,1111.2484,1,0,right,0.5675,,1111.2498,1112.115,1,0,right,1112.1162,1113.3486,1,1,right,0,1113.3487,1113.3487,1113.3498,1114.8482,0,8,8,8,1,0.2,0.8,0.6,0.4,,,,,,,,,,,,,,,0.3411,,0.6,0.4,0.6,0.4,0.6,0.4,0.4,0.6,,,0.7073,,0.4,0.6,0.6,0.4,0.2,0.8,0.6,0.4,1,0
,,61267b828ead584bcf092e35,66fc9847ad32e9cdf33b34dc,2024-10-02_02h50.38.495,mdp,2024.2.1,Win32,59.88023952,66fa4ebf79326e780c390304,,,,,,,,,,,,,,,,,,,,,1114.8486,1114.8486,1114.8498,1115.8483,1,1,right,0.4735,,1115.8496,1116.6648,1,0,right,1116.666,1117.5648,1,0,right,1,1117.5648,1117.5648,1117.5661,1119.0647,0,9,9,9,1,0.2,0.8,0.6,0.4,,,,,,,,,,,,,,,0.2822,,0.6,0.4,0.6,0.4,0.6,0.4,0.4,0.6,,,0.3685,,0.4,0.6,0.6,0.4,0.2,0.8,0.6,0.4,1,0
,,61267b828ead584bcf092e35,66fc9847ad32e9cdf33b34dc,2024-10-02_02h50.38.495,mdp,2024.2.1,Win32,59.88023952,66fa4ebf79326e780c390304,,,,,,,,,,,,,,,,,,,,,1119.0652,1119.0653,1119.0663,1119.9983,1,0,right,0.4012,,1119.9999,1120.6648,1,1,right,1120.666,1121.5315,1,0,right,1,1121.5315,1121.5315,1121.5328,1123.0313,0,10,10,10,1,0.2,0.8,0.6,0.4,,,,,,,,,,,,,,,0.1347,,0.6,0.4,0.6,0.4,0.6,0.4,0.4,0.6,,,0.3384,,0.4,0.6,0.6,0.4,0.2,0.8,0.6,0.4,1,0
,,61267b828ead584bcf092e35,66fc9847ad32e9cdf33b34dc,2024-10-02_02h50.38.495,mdp,2024.2.1,Win32,59.88023952,66fa4ebf79326e780c390304,,,,,,,,,,,,,,,,,,,,,1123.0318,1123.0318,1123.0329,1124.0648,1,1,right,0.5007,,1124.066,1124.7314,1,1,right,1124.7327,1125.648,1,0,right,1,1125.6481,1125.6481,1125.6492,1127.1479,0,11,11,11,1,0.2,0.8,0.6,0.4,,,,,,,,,,,,,,,0.1357,,0.6,0.4,0.6,0.4,0.6,0.4,0.4,0.6,,,0.3858,,0.4,0.6,0.6,0.4,0.2,0.8,0.6,0.4,1,0
,,61267b828ead584bcf092e35,66fc9847ad32e9cdf33b34dc,2024-10-02_02h50.38.495,mdp,2024.2.1,Win32,59.88023952,66fa4ebf79326e780c390304,,,,,,,,,,,,,,,,,,,,,1127.1484,1127.1484,1127.1495,1128.0813,1,0,right,0.4026,,1128.0827,1128.8646,1,1,right,1128.8662,1129.6811,1,1,right,0,1129.6813,1129.6813,1129.6825,1131.1812,0,12,12,12,1,0.2,0.8,0.6,0.4,,,,,,,,,,,,,,,0.2504,,0.6,0.4,0.6,0.4,0.6,0.4,0.4,0.6,,,0.2815,,0.4,0.6,0.6,0.4,0.2,0.8,0.6,0.4,1,0
,,61267b828ead584bcf092e35,66fc9847ad32e9cdf33b34dc,2024-10-02_02h50.38.495,mdp,2024.2.1,Win32,59.88023952,66fa4ebf79326e780c390304,,,,,,,,,,,,,,,,,,,,,1131.1818,1131.1818,1131.1828,1132.5479,1,0,right,0.834,,1132.5491,1133.4979,1,1,right,1133.4993,1134.6477,0,0,left,1,1134.6477,1134.6477,1134.6494,1136.1476,0,13,13,13,1,0.2,0.8,0.6,0.4,,,,,,,,,,,,,,,0.4207,,0.6,0.4,0.6,0.4,0.6,0.4,0.4,0.6,,,0.6172,,0.4,0.6,0.6,0.4,0.2,0.8,0.6,0.4,1,0
,,61267b828ead584bcf092e35,66fc9847ad32e9cdf33b34dc,2024-10-02_02h50.38.495,mdp,2024.2.1,Win32,59.88023952,66fa4ebf79326e780c390304,,,,,,,,,,,,,,,,,,,,,1136.1481,1136.1482,1136.1494,1137.0977,1,1,right,0.4262,,1137.0989,1137.9978,1,1,right,1137.999,1142.5643,1,0,right,1,1142.5644,1142.5644,1142.5656,1144.0642,0,14,14,14,1,0.2,0.8,0.6,0.4,,,,,,,,,,,,,,,0.3635,,0.6,0.4,0.6,0.4,0.6,0.4,0.4,0.6,,,4.0372,,0.4,0.6,0.6,0.4,0.2,0.8,0.6,0.4,1,0
,,61267b828ead584bcf092e35,66fc9847ad32e9cdf33b34dc,2024-10-02_02h50.38.495,mdp,2024.2.1,Win32,59.88023952,66fa4ebf79326e780c390304,,,,,,,,,,,,,,,,,,,,,1144.0648,1144.0648,1144.0659,1145.1142,1,1,right,0.5205,,1145.1155,1146.2642,1,1,right,1146.2654,1147.2477,1,1,right,0,1147.2479,1147.2479,1147.2492,1148.7474,0,15,15,15,1,0.2,0.8,0.6,0.4,,,,,,,,,,,,,,,0.6337,,0.6,0.4,0.6,0.4,0.2,0.8,0.2,0.8,,,0.4507,,0.4,0.6,0.6,0.4,0.2,0.8,0.6,0.4,1,0
,,61267b828ead584bcf092e35,66fc9847ad32e9cdf33b34dc,2024-10-02_02h50.38.495,mdp,2024.2.1,Win32,59.88023952,66fa4ebf79326e780c390304,,,,,,,,,,,,,,,,,,,,,1148.7478,1148.7478,1148.749,1149.7308,1,0,right,0.4505,,1149.732,1151.0808,1,0,right,1151.0821,1151.9474,1,1,right,0,1151.9474,1151.9475,1151.9487,1153.4473,0,16,16,16,1,0.2,0.8,0.6,0.4,,,,,,,,,,,,,,,0.8201,,0.6,0.4,0.6,0.4,0.2,0.8,0.2,0.8,,,0.3393,,0.4,0.6,0.6,0.4,0.2,0.8,0.6,0.4,1,0
,,61267b828ead584bcf092e35,66fc9847ad32e9cdf33b34dc,2024-10-02_02h50.38.495,mdp,2024.2.1,Win32,59.88023952,66fa4ebf79326e780c390304,,,,,,,,,,,,,,,,,,,,,1153.4478,1153.4478,1153.4488,1154.3808,1,0,right,0.4004,,1154.3821,1155.2306,1,1,right,1155.2323,1156.2474,1,0,right,1,1156.2477,1156.2477,1156.249,1157.7472,0,17,17,17,1,0.2,0.8,0.6,0.4,,,,,,,,,,,,,,,0.3172,,0.6,0.4,0.6,0.4,0.2,0.8,0.2,0.8,,,0.481,,0.4,0.6,0.6,0.4,0.4,0.6,0.4,0.6,1,0
,,61267b828ead584bcf092e35,66fc9847ad32e9cdf33b34dc,2024-10-02_02h50.38.495,mdp,2024.2.1,Win32,59.88023952,66fa4ebf79326e780c390304,,,,,,,,,,,,,,,,,,,,,1157.7477,1157.7477,1157.7488,1158.6641,1,1,right,0.3858,,1158.6652,1159.4806,1,1,right,1159.4818,1160.3473,1,0,right,1,1160.3473,1160.3473,1160.3485,1161.8472,0,18,18,18,1,0.2,0.8,0.6,0.4,,,,,,,,,,,,,,,0.2807,,0.6,0.4,0.6,0.4,0.2,0.8,0.2,0.8,,,0.3336,,0.4,0.6,0.6,0.4,0.2,0.8,0.6,0.4,1,0
,,61267b828ead584bcf092e35,66fc9847ad32e9cdf33b34dc,2024-10-02_02h50.38.495,mdp,2024.2.1,Win32,59.88023952,66fa4ebf79326e780c390304,,,,,,,,,,,,,,,,,,,,,1161.8477,1161.8477,1161.8489,1162.5806,1,1,right,0.2006,,1162.5819,1163.5139,1,1,right,1163.5151,1164.4138,1,0,right,1,1164.4139,1164.4139,1164.4151,1165.9137,0,19,19,19,1,0.2,0.8,0.6,0.4,,,,,,,,,,,,,,,0.4026,,0.6,0.4,0.6,0.4,0.2,0.8,0.2,0.8,,,0.3733,,0.4,0.6,0.6,0.4,0.2,0.8,0.6,0.4,1,0
,,61267b828ead584bcf092e35,66fc9847ad32e9cdf33b34dc,2024-10-02_02h50.38.495,mdp,2024.2.1,Win32,59.88023952,66fa4ebf79326e780c390304,,,,,,,,,,,,,,,,,,,,,1165.9143,1165.9143,1165.9155,1166.8472,1,0,right,0.4089,,1166.8483,1167.7971,1,0,right,1167.7982,1168.6638,1,1,right,0,1168.6639,1168.6639,1168.6651,1170.1636,0,20,20,20,1,0.2,0.8,0.6,0.4,,,,,,,,,,,,,,,0.4135,,0.6,0.4,0.6,0.4,0.2,0.8,0.2,0.8,,,0.3402,,0.4,0.6,0.6,0.4,0.2,0.8,0.6,0.4,1,0
,,61267b828ead584bcf092e35,66fc9847ad32e9cdf33b34dc,2024-10-02_02h50.38.495,mdp,2024.2.1,Win32,59.88023952,66fa4ebf79326e780c390304,,,,,,,,,,,,,,,,,,,,,1170.1641,1170.1641,1170.1652,1171.2137,1,1,right,0.5253,,1171.2152,1172.297,1,1,right,1172.2986,1173.2636,1,1,right,0,1173.2636,1173.2637,1173.2649,1174.7637,0,21,21,21,1,0.2,0.8,0.6,0.4,,,,,,,,,,,,,,,0.5542,,0.6,0.4,0.6,0.4,0.2,0.8,0.2,0.8,,,0.4391,,0.4,0.6,0.6,0.4,0.8,0.2,0.4,0.6,1,0
,,61267b828ead584bcf092e35,66fc9847ad32e9cdf33b34dc,2024-10-02_02h50.38.495,mdp,2024.2.1,Win32,59.88023952,66fa4ebf79326e780c390304,,,,,,,,,,,,,,,,,,,,,1174.7643,1174.7643,1174.7654,1175.8136,1,0,right,0.5171,,1175.8149,1176.6302,1,0,right,1176.6314,1177.3802,1,0,right,1,1177.3804,1177.3804,1177.3816,1178.8801,0,22,22,22,1,0.2,0.8,0.6,0.4,,,,,,,,,,,,,,,0.2808,,0.6,0.4,0.6,0.4,0.2,0.8,0.2,0.8,,,0.2176,,0.4,0.6,0.6,0.4,0.6,0.4,0.2,0.8,1,0
,,61267b828ead584bcf092e35,66fc9847ad32e9cdf33b34dc,2024-10-02_02h50.38.495,mdp,2024.2.1,Win32,59.88023952,66fa4ebf79326e780c390304,,,,,,,,,,,,,,,,,,,,,1178.8805,1178.8806,1178.8818,1179.8468,1,1,right,0.4321,,1179.8483,1180.6469,1,1,right,1180.6482,1181.5802,1,1,right,0,1181.5803,1181.5804,1181.5817,1183.0801,0,23,23,23,1,0.2,0.8,0.6,0.4,,,,,,,,,,,,,,,0.2695,,0.6,0.4,0.6,0.4,0.2,0.8,0.2,0.8,,,0.3979,,0.4,0.6,0.6,0.4,0.6,0.4,0.2,0.8,1,0
,,61267b828ead584bcf092e35,66fc9847ad32e9cdf33b34dc,2024-10-02_02h50.38.495,mdp,2024.2.1,Win32,59.88023952,66fa4ebf79326e780c390304,,,,,,,,,,,,,,,,,,,,,1183.0804,1183.0805,1183.0816,1183.9801,1,0,right,0.3673,,1183.9816,1184.7969,1,0,right,1184.7984,1185.5799,1,1,right,0,1185.5801,1185.5801,1185.5812,1187.0799,0,24,24,24,1,0.2,0.8,0.6,0.4,,,,,,,,,,,,,,,0.281,,0.6,0.4,0.6,0.4,0.2,0.8,0.2,0.8,,,0.256,,0.4,0.6,0.6,0.4,0.4,0.6,0.8,0.2,1,0
,,61267b828ead584bcf092e35,66fc9847ad32e9cdf33b34dc,2024-10-02_02h50.38.495,mdp,2024.2.1,Win32,59.88023952,66fa4ebf79326e780c390304,,,,,,,,,,,,,,,,,,,,,1187.0803,1187.0804,1187.0816,1187.83,1,0,right,0.2194,,1187.8312,1188.63,1,0,right,1188.6314,1189.6469,1,1,right,0,1189.6471,1189.6471,1189.6482,1191.1465,0,25,25,25,1,0.2,0.8,0.6,0.4,,,,,,,,,,,,,,,0.2756,,0.6,0.4,0.6,0.4,0.2,0.8,0.2,0.8,,,0.4886,,0.4,0.6,0.6,0.4,0.4,0.6,0.8,0.2,1,0
,,61267b828ead584bcf092e35,66fc9847ad32e9cdf33b34dc,2024-10-02_02h50.38.495,mdp,2024.2.1,Win32,59.88023952,66fa4ebf79326e780c390304,,,,,,,,,,,,,,,,,,,,,1191.147,1191.147,1191.148,1192.0637,1,0,right,0.3835,,1192.0649,1194.3798,0,1,left,1194.3811,1195.4131,0,1,left,0,1195.4132,1195.4132,1195.4145,1196.913,0,26,26,26,1,0.2,0.8,0.6,0.4,,,,,,,,,,,,,,,1.7882,,0.6,0.4,0.6,0.4,0.2,0.8,0.2,0.8,,,0.4969,,0.4,0.6,0.6,0.4,0.4,0.6,0.8,0.2,1,0
,,61267b828ead584bcf092e35,66fc9847ad32e9cdf33b34dc,2024-10-02_02h50.38.495,mdp,2024.2.1,Win32,59.88023952,66fa4ebf79326e780c390304,,,,,,,,,,,,,,,,,,,,,1196.9135,1196.9135,1196.9147,1197.9964,1,1,right,0.5505,,1197.9975,1199.3631,1,1,right,1199.3643,1200.2297,1,0,right,1,1200.2298,1200.2298,1200.2309,1201.7296,0,27,27,27,1,0.2,0.8,0.6,0.4,,,,,,,,,,,,,,,0.8334,,0.6,0.4,0.6,0.4,0.2,0.8,0.2,0.8,,,0.3388,,0.4,0.6,0.6,0.4,0.4,0.6,0.8,0.2,1,0
,,61267b828ead584bcf092e35,66fc9847ad32e9cdf33b34dc,2024-10-02_02h50.38.495,mdp,2024.2.1,Win32,59.88023952,66fa4ebf79326e780c390304,,,,,,,,,,,,,,,,,,,,,1201.7302,1201.7302,1201.7314,1202.6797,1,1,right,0.4203,,1202.6809,1203.6297,1,1,right,1203.6309,1204.5796,1,0,right,1,1204.5797,1204.5797,1204.5809,1206.0794,0,28,28,28,1,0.2,0.8,0.6,0.4,,,,,,,,,,,,,,,0.4241,,0.6,0.4,0.6,0.4,0.2,0.8,0.2,0.8,,,0.4226,,0.4,0.6,0.6,0.4,0.4,0.6,0.8,0.2,1,0
,,61267b828ead584bcf092e35,66fc9847ad32e9cdf33b34dc,2024-10-02_02h50.38.495,mdp,2024.2.1,Win32,59.88023952,66fa4ebf79326e780c390304,,,,,,,,,,,,,,,,,,,,,1206.0801,1206.0801,1206.0813,1206.8963,1,1,right,0.2928,,1206.8974,1208.0296,1,1,right,1208.0309,1208.9795,1,0,right,1,1208.9796,1208.9796,1208.9808,1210.4795,0,29,29,29,1,0.2,0.8,0.6,0.4,,,,,,,,,,,,,,,0.6077,,0.6,0.4,0.6,0.4,0.2,0.8,0.2,0.8,,,0.4204,,0.4,0.6,0.6,0.4,0.4,0.6,0.8,0.2,1,0
,,61267b828ead584bcf092e35,66fc9847ad32e9cdf33b34dc,2024-10-02_02h50.38.495,mdp,2024.2.1,Win32,59.88023952,66fa4ebf79326e780c390304,,,,,,,,,,,,,,,,,,,,,1210.4799,1210.4799,1210.4811,1211.5462,1,0,right,0.5357,,1211.5476,1213.6294,1,0,right,1213.6307,1214.5129,1,1,right,0,1214.5131,1214.5131,1214.5144,1216.0126,0,30,30,30,1,0.2,0.8,0.6,0.4,,,,,,,,,,,,,,,1.556,,0.6,0.4,0.6,0.4,0.8,0.2,0.4,0.6,,,0.3529,,0.4,0.6,0.6,0.4,0.4,0.6,0.8,0.2,1,0
,,61267b828ead584bcf092e35,66fc9847ad32e9cdf33b34dc,2024-10-02_02h50.38.495,mdp,2024.2.1,Win32,59.88023952,66fa4ebf79326e780c390304,,,,,,,,,,,,,,,,,,,,,1216.013,1216.0131,1216.0142,1217.1127,1,0,right,0.5748,,1217.1138,1219.896,1,0,right,1219.8971,1220.8625,0,1,left,0,1220.8625,1220.8626,1220.8637,1222.3625,0,31,31,31,1,0.2,0.8,0.6,0.4,,,,,,,,,,,,,,,2.2504,,0.6,0.4,0.6,0.4,0.8,0.2,0.4,0.6,,,0.4398,,0.4,0.6,0.6,0.4,0.4,0.6,0.8,0.2,1,0
,,61267b828ead584bcf092e35,66fc9847ad32e9cdf33b34dc,2024-10-02_02h50.38.495,mdp,2024.2.1,Win32,59.88023952,66fa4ebf79326e780c390304,,,,,,,,,,,,,,,,,,,,,1222.363,1222.363,1222.364,1223.8957,1,1,right,1.0042,,1223.897,1225.2625,1,1,right,1225.2638,1226.1962,1,0,right,1,1226.1964,1226.1964,1226.1977,1227.6958,0,32,32,32,1,0.2,0.8,0.6,0.4,,,,,,,,,,,,,,,0.8383,,0.6,0.4,0.6,0.4,0.8,0.2,0.4,0.6,,,0.4056,,0.4,0.6,0.6,0.4,0.4,0.6,0.8,0.2,1,0
,,61267b828ead584bcf092e35,66fc9847ad32e9cdf33b34dc,2024-10-02_02h50.38.495,mdp,2024.2.1,Win32,59.88023952,66fa4ebf79326e780c390304,,,,,,,,,,,,,,,,,,,,,1227.6965,1227.6965,1227.6975,1228.7625,1,1,right,0.534,,1228.7637,1229.8125,1,0,right,1229.8137,1232.3957,1,0,right,1,1232.3957,1232.3958,1232.3971,1233.8956,0,33,33,33,1,0.2,0.8,0.6,0.4,,,,,,,,,,,,,,,0.5172,,0.6,0.4,0.6,0.4,0.8,0.2,0.4,0.6,,,2.0491,,0.6,0.4,0.8,0.2,0.4,0.6,0.8,0.2,1,0
,,61267b828ead584bcf092e35,66fc9847ad32e9cdf33b34dc,2024-10-02_02h50.38.495,mdp,2024.2.1,Win32,59.88023952,66fa4ebf79326e780c390304,,,,,,,,,,,,,,,,,,,,,1233.896,1233.8961,1233.8972,1234.8956,1,0,right,0.4672,,1234.897,1236.329,1,0,right,1236.3302,1237.6289,1,0,right,1,1237.6289,1237.629,1237.6303,1239.1288,0,34,34,34,1,0.2,0.8,0.6,0.4,,,,,,,,,,,,,,,0.9038,,0.6,0.4,0.6,0.4,0.8,0.2,0.4,0.6,,,0.7751,,0.6,0.4,0.8,0.2,0.6,0.4,0.2,0.8,1,0
,,61267b828ead584bcf092e35,66fc9847ad32e9cdf33b34dc,2024-10-02_02h50.38.495,mdp,2024.2.1,Win32,59.88023952,66fa4ebf79326e780c390304,,,,,,,,,,,,,,,,,,,,,1239.1293,1239.1293,1239.1304,1240.2956,1,0,right,0.6316,,1240.2967,1241.2121,1,1,right,1241.2137,1242.8122,1,1,right,0,1242.8124,1242.8124,1242.8135,1244.3121,0,35,35,35,1,0.2,0.8,0.6,0.4,,,,,,,,,,,,,,,0.3836,,0.6,0.4,0.6,0.4,0.8,0.2,0.4,0.6,,,1.0638,,0.6,0.4,0.8,0.2,0.6,0.4,0.2,0.8,1,0
,,61267b828ead584bcf092e35,66fc9847ad32e9cdf33b34dc,2024-10-02_02h50.38.495,mdp,2024.2.1,Win32,59.88023952,66fa4ebf79326e780c390304,,,,,,,,,,,,,,,,,,,,,1244.3126,1244.3126,1244.3136,1245.3787,1,0,right,0.5391,,1245.3795,1246.7453,1,0,right,1246.7466,1248.2453,1,0,right,1,1248.2454,1248.2454,1248.2468,1249.7452,0,36,36,36,1,0.2,0.8,0.6,0.4,,,,,,,,,,,,,,,0.8594,,0.6,0.4,0.6,0.4,0.8,0.2,0.4,0.6,,,0.9724,,0.6,0.4,0.8,0.2,0.6,0.4,0.2,0.8,1,0
,,61267b828ead584bcf092e35,66fc9847ad32e9cdf33b34dc,2024-10-02_02h50.38.495,mdp,2024.2.1,Win32,59.88023952,66fa4ebf79326e780c390304,,,,,,,,,,,,,,,,,,,,,1249.7457,1249.7457,1249.7468,1250.7287,1,0,right,0.4595,,1250.7299,1251.6619,1,0,right,1251.6632,1252.6953,1,1,right,0,1252.6953,1252.6953,1252.6966,1254.1951,0,37,37,37,1,0.2,0.8,0.6,0.4,,,,,,,,,,,,,,,0.4056,,0.6,0.4,0.6,0.4,0.2,0.8,0.6,0.4,,,0.5094,,0.6,0.4,0.8,0.2,0.6,0.4,0.2,0.8,1,0
,,61267b828ead584bcf092e35,66fc9847ad32e9cdf33b34dc,2024-10-02_02h50.38.495,mdp,2024.2.1,Win32,59.88023952,66fa4ebf79326e780c390304,,,,,,,,,,,,,,,,,,,,,1254.1956,1254.1956,1254.1966,1255.312,1,1,right,0.5935,,1255.3132,1256.2785,1,0,right,1256.2799,1257.1952,1,1,right,0,1257.1952,1257.1952,1257.1966,1258.695,0,38,38,38,1,0.2,0.8,0.6,0.4,,,,,,,,,,,,,,,0.4332,,0.6,0.4,0.6,0.4,0.2,0.8,0.6,0.4,,,0.3837,,0.6,0.4,0.8,0.2,0.6,0.4,0.2,0.8,1,0
,,61267b828ead584bcf092e35,66fc9847ad32e9cdf33b34dc,2024-10-02_02h50.38.495,mdp,2024.2.1,Win32,59.88023952,66fa4ebf79326e780c390304,,,,,,,,,,,,,,,,,,,,,1258.6955,1258.6955,1258.6966,1259.8785,1,0,right,0.6504,,1259.8798,1260.8617,1,0,right,1260.8632,1261.9284,1,0,right,1,1261.9286,1261.9286,1261.9296,1263.4283,0,39,39,39,1,0.2,0.8,0.6,0.4,,,,,,,,,,,,,,,0.4473,,0.6,0.4,0.6,0.4,0.2,0.8,0.6,0.4,,,0.5417,,0.6,0.4,0.8,0.2,0.6,0.4,0.2,0.8,1,0
,,61267b828ead584bcf092e35,66fc9847ad32e9cdf33b34dc,2024-10-02_02h50.38.495,mdp,2024.2.1,Win32,59.88023952,66fa4ebf79326e780c390304,,,,,,,,,,,,,,,,,,,,,1263.4287,1263.4287,1263.4298,1264.7619,1,1,right,0.8008,,1264.7633,1265.9783,1,0,right,1265.9796,1266.8948,1,0,right,1,1266.8949,1266.895,1266.8962,1268.3949,0,40,40,40,1,0.2,0.8,0.6,0.4,,,,,,,,,,,,,,,0.6811,,0.6,0.4,0.6,0.4,0.2,0.8,0.6,0.4,,,0.3839,,0.6,0.4,0.8,0.2,0.6,0.4,0.2,0.8,1,0
,,61267b828ead584bcf092e35,66fc9847ad32e9cdf33b34dc,2024-10-02_02h50.38.495,mdp,2024.2.1,Win32,59.88023952,66fa4ebf79326e780c390304,,,,,,,,,,,,,,,,,,,,,1268.3954,1268.3956,1268.3966,1269.3282,1,0,right,0.4032,,1269.3293,1270.2449,1,1,right,1270.246,1271.2282,1,0,right,1,1271.2283,1271.2283,1271.2295,1272.7281,0,41,41,41,1,0.2,0.8,0.6,0.4,,,,,,,,,,,,,,,0.3857,,0.6,0.4,0.6,0.4,0.2,0.8,0.6,0.4,,,0.45,,0.6,0.4,0.8,0.2,0.6,0.4,0.2,0.8,1,0
,,61267b828ead584bcf092e35,66fc9847ad32e9cdf33b34dc,2024-10-02_02h50.38.495,mdp,2024.2.1,Win32,59.88023952,66fa4ebf79326e780c390304,,,,,,,,,,,,,,,,,,,,,1272.7285,1272.7287,1272.7298,1273.6281,1,0,right,0.3673,,1273.6295,1274.7781,1,1,right,1274.7793,1275.8116,1,0,right,1,1275.8116,1275.8116,1275.8127,1277.3114,0,42,42,42,1,0.2,0.8,0.6,0.4,,,,,,,,,,,,,,,0.6178,,0.6,0.4,0.6,0.4,0.2,0.8,0.6,0.4,,,0.5007,,0.6,0.4,0.8,0.2,0.6,0.4,0.2,0.8,1,0
,,61267b828ead584bcf092e35,66fc9847ad32e9cdf33b34dc,2024-10-02_02h50.38.495,mdp,2024.2.1,Win32,59.88023952,66fa4ebf79326e780c390304,,,,,,,,,,,,,,,,,,,,,1277.3119,1277.3119,1277.3129,1278.3614,1,1,right,0.518,,1278.3629,1279.2613,1,0,right,1279.2626,1280.428,1,0,right,1,1280.4281,1280.4281,1280.4292,1281.9278,0,43,43,43,1,0.2,0.8,0.6,0.4,,,,,,,,,,,,,,,0.3656,,0.6,0.4,0.6,0.4,0.2,0.8,0.6,0.4,,,0.634,,0.6,0.4,0.8,0.2,0.6,0.4,0.2,0.8,1,0
,,61267b828ead584bcf092e35,66fc9847ad32e9cdf33b34dc,2024-10-02_02h50.38.495,mdp,2024.2.1,Win32,59.88023952,66fa4ebf79326e780c390304,,,,,,,,,,,,,,,,,,,,,1281.9284,1281.9284,1281.9294,1282.828,1,1,right,0.3729,,1282.8292,1283.7447,1,0,right,1283.7462,1284.5947,1,0,right,1,1284.5948,1284.5948,1284.5961,1286.0944,0,44,44,44,1,0.2,0.8,0.6,0.4,,,,,,,,,,,,,,,0.3867,,0.6,0.4,0.6,0.4,0.2,0.8,0.6,0.4,,,0.3242,,0.6,0.4,0.8,0.2,0.6,0.4,0.2,0.8,1,0
,,61267b828ead584bcf092e35,66fc9847ad32e9cdf33b34dc,2024-10-02_02h50.38.495,mdp,2024.2.1,Win32,59.88023952,66fa4ebf79326e780c390304,,,,,,,,,,,,,,,,,,,,,1286.0949,1286.095,1286.0959,1287.0944,1,0,right,0.4774,,1287.0957,1288.0616,1,1,right,1288.0627,1288.9779,1,1,right,0,1288.9779,1288.9779,1288.9794,1290.4777,0,45,45,45,1,0.2,0.8,0.6,0.4,,,,,,,,,,,,,,,0.433,,0.6,0.4,0.6,0.4,0.2,0.8,0.6,0.4,,,0.381,,0.6,0.4,0.8,0.2,0.6,0.4,0.2,0.8,1,0
,,61267b828ead584bcf092e35,66fc9847ad32e9cdf33b34dc,2024-10-02_02h50.38.495,mdp,2024.2.1,Win32,59.88023952,66fa4ebf79326e780c390304,,,,,,,,,,,,,,,,,,,,,1290.4783,1290.4784,1290.4794,1291.5777,1,0,right,0.5687,,1291.5789,1292.5111,1,0,right,1292.5125,1293.4444,1,0,right,1,1293.4445,1293.4445,1293.4457,1294.9442,0,46,46,46,1,0.2,0.8,0.6,0.4,,,,,,,,,,,,,,,0.4024,,0.6,0.4,0.6,0.4,0.2,0.8,0.6,0.4,,,0.3979,,0.6,0.4,0.8,0.2,0.6,0.4,0.2,0.8,1,0
,,61267b828ead584bcf092e35,66fc9847ad32e9cdf33b34dc,2024-10-02_02h50.38.495,mdp,2024.2.1,Win32,59.88023952,66fa4ebf79326e780c390304,,,,,,,,,,,,,,,,,,,,,1294.9448,1294.9448,1294.9461,1295.8444,1,0,right,0.3672,,1295.8455,1296.6276,1,1,right,1296.629,1297.5776,1,1,right,0,1297.5776,1297.5776,1297.5789,1299.0775,0,47,47,47,1,0.2,0.8,0.6,0.4,,,,,,,,,,,,,,,0.2502,,0.6,0.4,0.6,0.4,0.2,0.8,0.6,0.4,,,0.4196,,0.6,0.4,0.8,0.2,0.6,0.4,0.2,0.8,1,0
,,61267b828ead584bcf092e35,66fc9847ad32e9cdf33b34dc,2024-10-02_02h50.38.495,mdp,2024.2.1,Win32,59.88023952,66fa4ebf79326e780c390304,,,,,,,,,,,,,,,,,,,,,1299.0779,1299.0779,1299.0792,1300.8943,1,1,right,1.2857,,1300.8954,1301.7775,1,0,right,1301.779,1302.6108,1,0,right,1,1302.6109,1302.6109,1302.612,1304.1106,0,48,48,48,1,0.2,0.8,0.6,0.4,,,,,,,,,,,,,,,0.3496,,0.6,0.4,0.6,0.4,0.2,0.8,0.6,0.4,,,0.2974,,0.6,0.4,0.8,0.2,0.6,0.4,0.2,0.8,1,0
,,61267b828ead584bcf092e35,66fc9847ad32e9cdf33b34dc,2024-10-02_02h50.38.495,mdp,2024.2.1,Win32,59.88023952,66fa4ebf79326e780c390304,,,,,,,,,,,,,,,,,,,,,1304.1112,1304.1112,1304.1123,1305.1942,1,0,right,0.5579,,1305.1953,1306.1107,1,0,right,1306.112,1306.9775,1,0,right,1,1306.9776,1306.9776,1306.9786,1308.4773,0,49,49,49,1,0.2,0.8,0.6,0.4,,,,,,,,,,,,,,,0.3808,,0.6,0.4,0.6,0.4,0.2,0.8,0.6,0.4,,,0.3317,,0.6,0.4,0.8,0.2,0.6,0.4,0.2,0.8,1,0
,,61267b828ead584bcf092e35,66fc9847ad32e9cdf33b34dc,2024-10-02_02h50.38.495,mdp,2024.2.1,Win32,59.88023952,66fa4ebf79326e780c390304,,,,,,,,,,,,,,,,,,,,,,,,,,,,,,,,,,,,,,,,,,,,,,,,,,,,,,,,1308.4774,1366.9927,0,2,2,7,1,imgs/kangaroo.png,imgs/rabbit.png,imgs/pig.png,imgs/squirrel.png,imgs/bear.png,,,,,,,,,,,,,,,,,,,,,,,,
,,61267b828ead584bcf092e35,66fc9847ad32e9cdf33b34dc,2024-10-02_02h50.38.495,mdp,2024.2.1,Win32,59.88023952,66fa4ebf79326e780c390304,,,,,,,,,,,,,,3,seqs/st3seq31.csv,1366.9934,1370.3594,space,2.8336,,1370.3647,1370.3647,1370.3654,1378.3925,1,0,right,7.5013,,1378.3938,1379.3259,1,1,right,1379.3271,1381.2591,1,1,right,0,1381.2592,1381.2592,1381.2604,1382.759,0,0,0,0,1,0.6,0.4,0.8,0.2,,,,,,,,,,,,,,,0.3952,,0.8,0.2,0.2,0.8,0.8,0.2,0.8,0.2,,,1.4009,,0.8,0.2,0.6,0.4,0.6,0.4,0.4,0.6,1,0
,,61267b828ead584bcf092e35,66fc9847ad32e9cdf33b34dc,2024-10-02_02h50.38.495,mdp,2024.2.1,Win32,59.88023952,66fa4ebf79326e780c390304,,,,,,,,,,,,,,,,,,,,,1382.7593,1382.7594,1382.7605,1385.1756,1,0,right,1.8839,,1385.1768,1387.659,1,0,right,1387.6603,1389.6589,1,0,right,1,1389.659,1389.6591,1389.6602,1391.1589,0,1,1,1,1,0.6,0.4,0.8,0.2,,,,,,,,,,,,,,,1.9588,,0.8,0.2,0.2,0.8,0.8,0.2,0.8,0.2,,,1.4614,,0.8,0.2,0.6,0.4,0.4,0.6,0.6,0.4,1,0
,,61267b828ead584bcf092e35,66fc9847ad32e9cdf33b34dc,2024-10-02_02h50.38.495,mdp,2024.2.1,Win32,59.88023952,66fa4ebf79326e780c390304,,,,,,,,,,,,,,,,,,,,,1391.1595,1391.1595,1391.1606,1392.8754,0,0,left,1.1881,,1392.8766,1393.9589,0,1,left,1393.9603,1395.2088,0,0,left,1,1395.2088,1395.2089,1395.2099,1396.7088,0,2,2,2,1,0.6,0.4,0.8,0.2,,,,,,,,,,,,,,,0.5507,,0.8,0.2,0.2,0.8,0.8,0.2,0.8,0.2,,,0.7148,,0.8,0.2,0.6,0.4,0.4,0.6,0.6,0.4,1,0
,,61267b828ead584bcf092e35,66fc9847ad32e9cdf33b34dc,2024-10-02_02h50.38.495,mdp,2024.2.1,Win32,59.88023952,66fa4ebf79326e780c390304,,,,,,,,,,,,,,,,,,,,,1396.7091,1396.7092,1396.7104,1397.7921,0,0,left,0.5507,,1397.7935,1398.8421,0,0,left,1398.8433,1400.9753,0,0,left,1,1400.9753,1400.9754,1400.9765,1402.4752,0,3,3,3,1,0.6,0.4,0.8,0.2,,,,,,,,,,,,,,,0.517,,0.8,0.2,0.2,0.8,0.8,0.2,0.8,0.2,,,1.5994,,0.8,0.2,0.6,0.4,0.4,0.6,0.6,0.4,1,0
,,61267b828ead584bcf092e35,66fc9847ad32e9cdf33b34dc,2024-10-02_02h50.38.495,mdp,2024.2.1,Win32,59.88023952,66fa4ebf79326e780c390304,,,,,,,,,,,,,,,,,,,,,1402.4758,1402.4758,1402.4771,1403.7919,0,0,left,0.7814,,1403.7934,1404.7586,0,0,left,1404.7598,1406.192,0,0,left,1,1406.192,1406.192,1406.1933,1407.6917,0,4,4,4,1,0.6,0.4,0.8,0.2,,,,,,,,,,,,,,,0.4339,,0.8,0.2,0.2,0.8,0.8,0.2,0.8,0.2,,,0.908,,0.8,0.2,0.6,0.4,0.4,0.6,0.6,0.4,1,0
,,61267b828ead584bcf092e35,66fc9847ad32e9cdf33b34dc,2024-10-02_02h50.38.495,mdp,2024.2.1,Win32,59.88023952,66fa4ebf79326e780c390304,,,,,,,,,,,,,,,,,,,,,1407.6922,1407.6922,1407.6934,1408.7421,0,0,left,0.5222,,1408.7434,1409.7752,0,1,left,1409.7763,1411.0418,0,1,left,0,1411.0419,1411.0419,1411.0432,1412.5416,0,5,5,5,1,0.6,0.4,0.8,0.2,,,,,,,,,,,,,,,0.5005,,0.8,0.2,0.2,0.8,0.8,0.2,0.8,0.2,,,0.7348,,0.8,0.2,0.6,0.4,0.4,0.6,0.6,0.4,1,0
,,61267b828ead584bcf092e35,66fc9847ad32e9cdf33b34dc,2024-10-02_02h50.38.495,mdp,2024.2.1,Win32,59.88023952,66fa4ebf79326e780c390304,,,,,,,,,,,,,,,,,,,,,1412.5421,1412.5422,1412.5432,1413.725,0,0,left,0.6534,,1413.7262,1414.8751,0,1,left,1414.8762,1416.5916,1,1,right,0,1416.5916,1416.5917,1416.5928,1418.0916,0,6,6,6,1,0.6,0.4,0.8,0.2,,,,,,,,,,,,,,,0.6176,,0.8,0.2,0.2,0.8,0.8,0.2,0.8,0.2,,,1.1811,,0.8,0.2,0.6,0.4,0.4,0.6,0.6,0.4,1,0
,,61267b828ead584bcf092e35,66fc9847ad32e9cdf33b34dc,2024-10-02_02h50.38.495,mdp,2024.2.1,Win32,59.88023952,66fa4ebf79326e780c390304,,,,,,,,,,,,,,,,,,,,,1418.0921,1418.0922,1418.0933,1419.2248,0,1,left,0.6003,,1419.226,1420.125,0,0,left,1420.1262,1421.2582,0,1,left,0,1421.2583,1421.2583,1421.2595,1422.7581,0,7,7,7,1,0.6,0.4,0.8,0.2,,,,,,,,,,,,,,,0.3724,,0.8,0.2,0.2,0.8,0.8,0.2,0.8,0.2,,,0.5992,,0.8,0.2,0.6,0.4,0.4,0.6,0.6,0.4,1,0
,,61267b828ead584bcf092e35,66fc9847ad32e9cdf33b34dc,2024-10-02_02h50.38.495,mdp,2024.2.1,Win32,59.88023952,66fa4ebf79326e780c390304,,,,,,,,,,,,,,,,,,,,,1422.7585,1422.7585,1422.7598,1424.6586,0,0,left,1.3779,,1424.6596,1425.6248,0,0,left,1425.626,1427.1748,0,0,left,1,1427.1749,1427.1749,1427.1761,1428.6746,0,8,8,8,1,0.6,0.4,0.8,0.2,,,,,,,,,,,,,,,0.431,,0.8,0.2,0.2,0.8,0.8,0.2,0.8,0.2,,,1.0239,,0.8,0.2,0.6,0.4,0.4,0.6,0.6,0.4,1,0
,,61267b828ead584bcf092e35,66fc9847ad32e9cdf33b34dc,2024-10-02_02h50.38.495,mdp,2024.2.1,Win32,59.88023952,66fa4ebf79326e780c390304,,,,,,,,,,,,,,,,,,,,,1428.6751,1428.6751,1428.6763,1429.9581,0,0,left,0.755,,1429.9594,1430.9913,0,1,left,1430.9928,1433.0748,0,1,left,0,1433.0749,1433.0749,1433.076,1434.5745,0,9,9,9,1,0.6,0.4,0.8,0.2,,,,,,,,,,,,,,,0.5004,,0.8,0.2,0.2,0.8,0.8,0.2,0.8,0.2,,,1.5499,,0.8,0.2,0.6,0.4,0.4,0.6,0.6,0.4,1,0
,,61267b828ead584bcf092e35,66fc9847ad32e9cdf33b34dc,2024-10-02_02h50.38.495,mdp,2024.2.1,Win32,59.88023952,66fa4ebf79326e780c390304,,,,,,,,,,,,,,,,,,,,,1434.575,1434.575,1434.5761,1436.0413,0,1,left,0.9388,,1436.0424,1438.7412,0,0,left,1438.7424,1439.8078,0,0,left,1,1439.8079,1439.808,1439.8096,1441.3076,0,10,10,10,1,0.6,0.4,0.8,0.2,,,,,,,,,,,,,,,2.1662,,0.8,0.2,0.2,0.8,0.8,0.2,0.8,0.2,,,0.5309,,0.8,0.2,0.6,0.4,0.4,0.6,0.6,0.4,1,0
,,61267b828ead584bcf092e35,66fc9847ad32e9cdf33b34dc,2024-10-02_02h50.38.495,mdp,2024.2.1,Win32,59.88023952,66fa4ebf79326e780c390304,,,,,,,,,,,,,,,,,,,,,1441.3081,1441.3082,1441.3093,1444.2578,0,1,left,2.417,,1444.2591,1445.9743,0,0,left,1445.9756,1447.7082,0,0,left,1,1447.7082,1447.7083,1447.7093,1449.2075,0,11,11,11,1,0.6,0.4,0.8,0.2,,,,,,,,,,,,,,,1.1929,,0.8,0.2,0.2,0.8,0.8,0.2,0.8,0.2,,,1.2004,,0.8,0.2,0.6,0.4,0.4,0.6,0.6,0.4,1,0
,,61267b828ead584bcf092e35,66fc9847ad32e9cdf33b34dc,2024-10-02_02h50.38.495,mdp,2024.2.1,Win32,59.88023952,66fa4ebf79326e780c390304,,,,,,,,,,,,,,,,,,,,,1449.2081,1449.2081,1449.2092,1450.3245,0,1,left,0.5944,,1450.3256,1451.4243,0,0,left,1451.4254,1452.4076,0,0,left,1,1452.4077,1452.4077,1452.4092,1453.9074,0,12,12,12,1,0.6,0.4,0.8,0.2,,,,,,,,,,,,,,,0.5695,,0.8,0.2,0.2,0.8,0.8,0.2,0.8,0.2,,,0.4581,,0.8,0.2,0.6,0.4,0.4,0.6,0.6,0.4,1,0
,,61267b828ead584bcf092e35,66fc9847ad32e9cdf33b34dc,2024-10-02_02h50.38.495,mdp,2024.2.1,Win32,59.88023952,66fa4ebf79326e780c390304,,,,,,,,,,,,,,,,,,,,,1453.9078,1453.9079,1453.909,1455.3748,0,0,left,0.9449,,1455.3759,1456.6576,0,0,left,1456.6587,1457.8574,0,0,left,1,1457.8575,1457.8575,1457.8587,1459.3574,0,13,13,13,1,0.6,0.4,0.8,0.2,,,,,,,,,,,,,,,0.7555,,0.8,0.2,0.2,0.8,0.8,0.2,0.8,0.2,,,0.6774,,0.8,0.2,0.6,0.4,0.4,0.6,0.6,0.4,1,0
,,61267b828ead584bcf092e35,66fc9847ad32e9cdf33b34dc,2024-10-02_02h50.38.495,mdp,2024.2.1,Win32,59.88023952,66fa4ebf79326e780c390304,,,,,,,,,,,,,,,,,,,,,1459.3578,1459.3578,1459.3589,1460.5575,0,1,left,0.6672,,1460.5585,1461.6074,0,0,left,1461.6091,1462.6574,0,0,left,1,1462.6575,1462.6575,1462.6586,1464.1572,0,14,14,14,1,0.6,0.4,0.8,0.2,,,,,,,,,,,,,,,0.5186,,0.8,0.2,0.2,0.8,0.8,0.2,0.8,0.2,,,0.5245,,0.8,0.2,0.6,0.4,0.4,0.6,0.6,0.4,1,0
,,61267b828ead584bcf092e35,66fc9847ad32e9cdf33b34dc,2024-10-02_02h50.38.495,mdp,2024.2.1,Win32,59.88023952,66fa4ebf79326e780c390304,,,,,,,,,,,,,,,,,,,,,1464.1577,1464.1578,1464.1587,1465.3407,0,1,left,0.6563,,1465.3419,1466.3406,0,0,left,1466.3419,1467.424,0,0,left,1,1467.424,1467.424,1467.4254,1468.9238,0,15,15,15,1,0.6,0.4,0.8,0.2,,,,,,,,,,,,,,,0.4761,,0.8,0.2,0.2,0.8,0.8,0.2,0.8,0.2,,,0.5504,,0.8,0.2,0.6,0.4,0.4,0.6,0.6,0.4,1,0
,,61267b828ead584bcf092e35,66fc9847ad32e9cdf33b34dc,2024-10-02_02h50.38.495,mdp,2024.2.1,Win32,59.88023952,66fa4ebf79326e780c390304,,,,,,,,,,,,,,,,,,,,,1468.9242,1468.9243,1468.9254,1470.274,0,1,left,0.8172,,1470.2753,1471.2905,0,1,left,1471.2916,1472.3572,0,1,left,0,1472.3573,1472.3573,1472.3584,1473.857,0,16,16,16,1,0.6,0.4,0.8,0.2,,,,,,,,,,,,,,,0.484,,0.8,0.2,0.2,0.8,0.2,0.8,0.2,0.8,,,0.5304,,0.8,0.2,0.6,0.4,0.4,0.6,0.6,0.4,1,0
,,61267b828ead584bcf092e35,66fc9847ad32e9cdf33b34dc,2024-10-02_02h50.38.495,mdp,2024.2.1,Win32,59.88023952,66fa4ebf79326e780c390304,,,,,,,,,,,,,,,,,,,,,1473.8574,1473.8574,1473.8587,1474.8571,0,0,left,0.4745,,1474.8583,1475.857,0,1,left,1475.8582,1478.0902,1,0,right,1,1478.0903,1478.0903,1478.0916,1479.5902,0,17,17,17,1,0.6,0.4,0.8,0.2,,,,,,,,,,,,,,,0.4673,,0.8,0.2,0.2,0.8,0.2,0.8,0.2,0.8,,,1.7004,,0.6,0.4,0.2,0.8,0.4,0.6,0.6,0.4,1,0
,,61267b828ead584bcf092e35,66fc9847ad32e9cdf33b34dc,2024-10-02_02h50.38.495,mdp,2024.2.1,Win32,59.88023952,66fa4ebf79326e780c390304,,,,,,,,,,,,,,,,,,,,,1479.5906,1479.5906,1479.5918,1480.8069,0,0,left,0.6865,,1480.8083,1481.7903,0,0,left,1481.7915,1483.0736,0,1,left,0,1483.0737,1483.0737,1483.075,1484.5734,0,18,18,18,1,0.6,0.4,0.8,0.2,,,,,,,,,,,,,,,0.4528,,0.8,0.2,0.2,0.8,0.2,0.8,0.2,0.8,,,0.7506,,0.6,0.4,0.2,0.8,0.4,0.6,0.6,0.4,1,0
,,61267b828ead584bcf092e35,66fc9847ad32e9cdf33b34dc,2024-10-02_02h50.38.495,mdp,2024.2.1,Win32,59.88023952,66fa4ebf79326e780c390304,,,,,,,,,,,,,,,,,,,,,1484.5739,1484.5739,1484.5751,1485.6235,0,0,left,0.5171,,1485.6248,1486.4568,0,1,left,1486.458,1487.9067,1,1,right,0,1487.9067,1487.9067,1487.9081,1489.4066,0,19,19,19,1,0.6,0.4,0.8,0.2,,,,,,,,,,,,,,,0.3014,,0.8,0.2,0.2,0.8,0.2,0.8,0.2,0.8,,,0.9152,,0.6,0.4,0.2,0.8,0.4,0.6,0.6,0.4,1,0
,,61267b828ead584bcf092e35,66fc9847ad32e9cdf33b34dc,2024-10-02_02h50.38.495,mdp,2024.2.1,Win32,59.88023952,66fa4ebf79326e780c390304,,,,,,,,,,,,,,,,,,,,,1489.4071,1489.4071,1489.408,1490.4732,0,0,left,0.5337,,1490.4745,1491.3901,0,0,left,1491.3914,1492.7567,0,0,left,1,1492.7568,1492.7568,1492.7579,1494.2566,0,20,20,20,1,0.6,0.4,0.8,0.2,,,,,,,,,,,,,,,0.4094,,0.8,0.2,0.2,0.8,0.2,0.8,0.2,0.8,,,0.8338,,0.6,0.4,0.2,0.8,0.4,0.6,0.6,0.4,1,0
,,61267b828ead584bcf092e35,66fc9847ad32e9cdf33b34dc,2024-10-02_02h50.38.495,mdp,2024.2.1,Win32,59.88023952,66fa4ebf79326e780c390304,,,,,,,,,,,,,,,,,,,,,1494.257,1494.257,1494.2582,1495.24,0,0,left,0.4533,,1495.2413,1496.14,0,0,left,1496.1412,1497.19,0,0,left,1,1497.19,1497.19,1497.1913,1498.6898,0,21,21,21,1,0.6,0.4,0.8,0.2,,,,,,,,,,,,,,,0.3672,,0.8,0.2,0.2,0.8,0.2,0.8,0.2,0.8,,,0.5171,,0.6,0.4,0.2,0.8,0.4,0.6,0.6,0.4,1,0
,,61267b828ead584bcf092e35,66fc9847ad32e9cdf33b34dc,2024-10-02_02h50.38.495,mdp,2024.2.1,Win32,59.88023952,66fa4ebf79326e780c390304,,,,,,,,,,,,,,,,,,,,,1498.6903,1498.6903,1498.6915,1499.7565,0,1,left,0.5344,,1499.7575,1502.2565,0,1,left,1502.2578,1503.3565,0,0,left,1,1503.3565,1503.3565,1503.3578,1504.8564,0,22,22,22,1,0.6,0.4,0.8,0.2,,,,,,,,,,,,,,,1.9674,,0.8,0.2,0.2,0.8,0.2,0.8,0.2,0.8,,,0.5654,,0.6,0.4,0.2,0.8,0.4,0.6,0.6,0.4,1,0
,,61267b828ead584bcf092e35,66fc9847ad32e9cdf33b34dc,2024-10-02_02h50.38.495,mdp,2024.2.1,Win32,59.88023952,66fa4ebf79326e780c390304,,,,,,,,,,,,,,,,,,,,,1504.8569,1504.8569,1504.8581,1506.0564,0,0,left,0.6706,,1506.0576,1507.2565,0,1,left,1507.2576,1509.023,1,0,right,1,1509.023,1509.023,1509.0242,1510.5229,0,23,23,23,1,0.6,0.4,0.8,0.2,,,,,,,,,,,,,,,0.6693,,0.8,0.2,0.2,0.8,0.2,0.8,0.2,0.8,,,1.234,,0.6,0.4,0.2,0.8,0.4,0.6,0.6,0.4,1,0
,,61267b828ead584bcf092e35,66fc9847ad32e9cdf33b34dc,2024-10-02_02h50.38.495,mdp,2024.2.1,Win32,59.88023952,66fa4ebf79326e780c390304,,,,,,,,,,,,,,,,,,,,,1510.5234,1510.5234,1510.5245,1511.6062,0,1,left,0.5511,,1511.6075,1513.3063,0,1,left,1513.3076,1514.3728,0,1,left,0,1514.373,1514.373,1514.3743,1515.8727,0,24,24,24,1,0.6,0.4,0.8,0.2,,,,,,,,,,,,,,,1.1684,,0.8,0.2,0.2,0.8,0.2,0.8,0.2,0.8,,,0.5338,,0.6,0.4,0.2,0.8,0.4,0.6,0.6,0.4,1,0
,,61267b828ead584bcf092e35,66fc9847ad32e9cdf33b34dc,2024-10-02_02h50.38.495,mdp,2024.2.1,Win32,59.88023952,66fa4ebf79326e780c390304,,,,,,,,,,,,,,,,,,,,,1515.8734,1515.8734,1515.8745,1516.9395,0,1,left,0.5348,,1516.9407,1518.1728,0,1,left,1518.174,1519.3728,0,0,left,1,1519.373,1519.373,1519.3742,1520.8726,0,25,25,25,1,0.6,0.4,0.8,0.2,,,,,,,,,,,,,,,0.7007,,0.8,0.2,0.2,0.8,0.2,0.8,0.2,0.8,,,0.6669,,0.6,0.4,0.2,0.8,0.4,0.6,0.6,0.4,1,0
,,61267b828ead584bcf092e35,66fc9847ad32e9cdf33b34dc,2024-10-02_02h50.38.495,mdp,2024.2.1,Win32,59.88023952,66fa4ebf79326e780c390304,,,,,,,,,,,,,,,,,,,,,1520.8731,1520.8732,1520.8742,1522.0394,0,0,left,0.6377,,1522.0406,1523.1893,0,1,left,1523.1906,1525.1893,1,0,right,1,1525.1893,1525.1893,1525.1906,1526.6892,0,26,26,26,1,0.6,0.4,0.8,0.2,,,,,,,,,,,,,,,0.6138,,0.8,0.2,0.2,0.8,0.2,0.8,0.2,0.8,,,1.4697,,0.6,0.4,0.2,0.8,0.4,0.6,0.6,0.4,1,0
,,61267b828ead584bcf092e35,66fc9847ad32e9cdf33b34dc,2024-10-02_02h50.38.495,mdp,2024.2.1,Win32,59.88023952,66fa4ebf79326e780c390304,,,,,,,,,,,,,,,,,,,,,1526.6896,1526.6896,1526.6907,1527.8557,0,1,left,0.6339,,1527.8569,1528.7725,0,1,left,1528.7737,1530.1225,0,0,left,1,1530.1226,1530.1226,1530.1239,1531.6224,0,27,27,27,1,0.6,0.4,0.8,0.2,,,,,,,,,,,,,,,0.3804,,0.8,0.2,0.2,0.8,0.2,0.8,0.2,0.8,,,0.8202,,0.6,0.4,0.2,0.8,0.4,0.6,0.6,0.4,1,0
,,61267b828ead584bcf092e35,66fc9847ad32e9cdf33b34dc,2024-10-02_02h50.38.495,mdp,2024.2.1,Win32,59.88023952,66fa4ebf79326e780c390304,,,,,,,,,,,,,,,,,,,,,1531.623,1531.623,1531.6241,1532.6891,0,0,left,0.5337,,1532.6903,1533.8896,0,1,left,1533.8909,1534.9557,1,0,right,1,1534.9557,1534.9557,1534.957,1536.4556,0,28,28,28,1,0.6,0.4,0.8,0.2,,,,,,,,,,,,,,,0.6747,,0.8,0.2,0.2,0.8,0.2,0.8,0.2,0.8,,,0.5356,,0.6,0.4,0.2,0.8,0.4,0.6,0.6,0.4,1,0
,,61267b828ead584bcf092e35,66fc9847ad32e9cdf33b34dc,2024-10-02_02h50.38.495,mdp,2024.2.1,Win32,59.88023952,66fa4ebf79326e780c390304,,,,,,,,,,,,,,,,,,,,,1536.4562,1536.4562,1536.4572,1537.6056,0,0,left,0.6173,,1537.6069,1538.6723,0,0,left,1538.6736,1540.3389,0,0,left,1,1540.3391,1540.3391,1540.3402,1541.8388,0,29,29,29,1,0.6,0.4,0.8,0.2,,,,,,,,,,,,,,,0.5347,,0.8,0.2,0.2,0.8,0.2,0.8,0.2,0.8,,,1.1306,,0.6,0.4,0.2,0.8,0.4,0.6,0.6,0.4,1,0
,,61267b828ead584bcf092e35,66fc9847ad32e9cdf33b34dc,2024-10-02_02h50.38.495,mdp,2024.2.1,Win32,59.88023952,66fa4ebf79326e780c390304,,,,,,,,,,,,,,,,,,,,,1541.8392,1541.8393,1541.8407,1543.0057,0,0,left,0.6339,,1543.007,1544.0056,0,1,left,1544.0069,1545.6055,1,1,right,0,1545.6055,1545.6055,1545.6069,1547.1054,0,30,30,30,1,0.6,0.4,0.8,0.2,,,,,,,,,,,,,,,0.4725,,0.8,0.2,0.2,0.8,0.2,0.8,0.2,0.8,,,1.0696,,0.6,0.4,0.2,0.8,0.4,0.6,0.6,0.4,1,0
,,61267b828ead584bcf092e35,66fc9847ad32e9cdf33b34dc,2024-10-02_02h50.38.495,mdp,2024.2.1,Win32,59.88023952,66fa4ebf79326e780c390304,,,,,,,,,,,,,,,,,,,,,1547.1061,1547.1061,1547.1072,1548.4387,0,0,left,0.8028,,1548.44,1549.4387,0,0,left,1549.4403,1550.6055,0,0,left,1,1550.6055,1550.6056,1550.607,1552.1054,0,31,31,31,1,0.8,0.2,0.4,0.6,,,,,,,,,,,,,,,0.4699,,0.8,0.2,0.2,0.8,0.2,0.8,0.2,0.8,,,0.6328,,0.6,0.4,0.2,0.8,0.4,0.6,0.6,0.4,1,0
,,61267b828ead584bcf092e35,66fc9847ad32e9cdf33b34dc,2024-10-02_02h50.38.495,mdp,2024.2.1,Win32,59.88023952,66fa4ebf79326e780c390304,,,,,,,,,,,,,,,,,,,,,1552.106,1552.106,1552.1071,1553.522,0,1,left,0.8841,,1553.5232,1555.072,0,1,left,1555.0732,1556.0387,0,0,left,1,1556.0388,1556.0388,1556.0399,1557.5384,0,32,32,32,1,0.8,0.2,0.4,0.6,,,,,,,,,,,,,,,1.023,,0.8,0.2,0.2,0.8,0.2,0.8,0.2,0.8,,,0.4365,,0.6,0.4,0.2,0.8,0.4,0.6,0.6,0.4,1,0
,,61267b828ead584bcf092e35,66fc9847ad32e9cdf33b34dc,2024-10-02_02h50.38.495,mdp,2024.2.1,Win32,59.88023952,66fa4ebf79326e780c390304,,,,,,,,,,,,,,,,,,,,,1557.5389,1557.5389,1557.5401,1558.8552,0,0,left,0.7864,,1558.8565,1559.9219,0,0,left,1559.9233,1561.2053,0,0,left,1,1561.2053,1561.2053,1561.2065,1562.7051,0,33,33,33,1,0.8,0.2,0.4,0.6,,,,,,,,,,,,,,,0.5319,,0.8,0.2,0.2,0.8,0.2,0.8,0.2,0.8,,,0.7564,,0.6,0.4,0.2,0.8,0.4,0.6,0.6,0.4,1,0
,,61267b828ead584bcf092e35,66fc9847ad32e9cdf33b34dc,2024-10-02_02h50.38.495,mdp,2024.2.1,Win32,59.88023952,66fa4ebf79326e780c390304,,,,,,,,,,,,,,,,,,,,,1562.7055,1562.7055,1562.7066,1563.6386,0,0,left,0.4095,,1563.6397,1564.5551,0,0,left,1564.5565,1565.6217,0,0,left,1,1565.6218,1565.6218,1565.6229,1567.1217,0,34,34,34,1,0.8,0.2,0.4,0.6,,,,,,,,,,,,,,,0.3859,,0.8,0.2,0.2,0.8,0.2,0.8,0.2,0.8,,,0.5362,,0.6,0.4,0.2,0.8,0.4,0.6,0.6,0.4,1,0
,,61267b828ead584bcf092e35,66fc9847ad32e9cdf33b34dc,2024-10-02_02h50.38.495,mdp,2024.2.1,Win32,59.88023952,66fa4ebf79326e780c390304,,,,,,,,,,,,,,,,,,,,,1567.1223,1567.1223,1567.1234,1568.4051,0,0,left,0.7555,,1568.4065,1569.3716,0,0,left,1569.3728,1570.7883,0,1,left,0,1570.7884,1570.7884,1570.7895,1572.2882,0,35,35,35,1,0.8,0.2,0.4,0.6,,,,,,,,,,,,,,,0.4339,,0.8,0.2,0.2,0.8,0.2,0.8,0.2,0.8,,,0.8842,,0.6,0.4,0.2,0.8,0.4,0.6,0.6,0.4,1,0
,,61267b828ead584bcf092e35,66fc9847ad32e9cdf33b34dc,2024-10-02_02h50.38.495,mdp,2024.2.1,Win32,59.88023952,66fa4ebf79326e780c390304,,,,,,,,,,,,,,,,,,,,,1572.2887,1572.2887,1572.2898,1573.1549,0,0,left,0.3346,,1573.1561,1574.1551,0,0,left,1574.1563,1575.6883,0,0,left,1,1575.6884,1575.6884,1575.6897,1577.1881,0,36,36,36,1,0.8,0.2,0.4,0.6,,,,,,,,,,,,,,,0.4733,,0.8,0.2,0.2,0.8,0.6,0.4,0.8,0.2,,,1.0055,,0.6,0.4,0.2,0.8,0.4,0.6,0.6,0.4,1,0
,,61267b828ead584bcf092e35,66fc9847ad32e9cdf33b34dc,2024-10-02_02h50.38.495,mdp,2024.2.1,Win32,59.88023952,66fa4ebf79326e780c390304,,,,,,,,,,,,,,,,,,,,,1577.1886,1577.1886,1577.1897,1578.1881,0,0,left,0.4676,,1578.1894,1579.2215,0,1,left,1579.2229,1580.5714,1,1,right,0,1580.5714,1580.5714,1580.5727,1582.0713,0,37,37,37,1,0.8,0.2,0.4,0.6,,,,,,,,,,,,,,,0.5004,,0.8,0.2,0.2,0.8,0.6,0.4,0.8,0.2,,,0.8194,,0.6,0.4,0.2,0.8,0.4,0.6,0.6,0.4,1,0
,,61267b828ead584bcf092e35,66fc9847ad32e9cdf33b34dc,2024-10-02_02h50.38.495,mdp,2024.2.1,Win32,59.88023952,66fa4ebf79326e780c390304,,,,,,,,,,,,,,,,,,,,,1582.0718,1582.0718,1582.0731,1583.0213,0,0,left,0.4261,,1583.0226,1583.9046,0,0,left,1583.9058,1585.2381,0,0,left,1,1585.2381,1585.2381,1585.2393,1586.738,0,38,38,38,1,0.8,0.2,0.4,0.6,,,,,,,,,,,,,,,0.3579,,0.8,0.2,0.2,0.8,0.6,0.4,0.8,0.2,,,0.8002,,0.6,0.4,0.2,0.8,0.4,0.6,0.6,0.4,1,0
,,61267b828ead584bcf092e35,66fc9847ad32e9cdf33b34dc,2024-10-02_02h50.38.495,mdp,2024.2.1,Win32,59.88023952,66fa4ebf79326e780c390304,,,,,,,,,,,,,,,,,,,,,1586.7386,1586.7386,1586.7397,1587.6383,0,0,left,0.3685,,1587.6398,1588.7879,0,0,left,1588.7891,1589.8546,0,0,left,1,1589.8547,1589.8547,1589.8558,1591.3544,0,39,39,39,1,0.8,0.2,0.4,0.6,,,,,,,,,,,,,,,0.6168,,0.8,0.2,0.2,0.8,0.6,0.4,0.8,0.2,,,0.5383,,0.6,0.4,0.2,0.8,0.4,0.6,0.6,0.4,1,0
,,61267b828ead584bcf092e35,66fc9847ad32e9cdf33b34dc,2024-10-02_02h50.38.495,mdp,2024.2.1,Win32,59.88023952,66fa4ebf79326e780c390304,,,,,,,,,,,,,,,,,,,,,1591.3549,1591.3549,1591.356,1592.4711,0,0,left,0.594,,1592.4724,1593.4712,0,0,left,1593.4728,1594.5545,0,0,left,1,1594.5546,1594.5546,1594.5557,1596.0544,0,40,40,40,1,0.8,0.2,0.4,0.6,,,,,,,,,,,,,,,0.4703,,0.8,0.2,0.2,0.8,0.6,0.4,0.8,0.2,,,0.5502,,0.6,0.4,0.2,0.8,0.4,0.6,0.6,0.4,1,0
,,61267b828ead584bcf092e35,66fc9847ad32e9cdf33b34dc,2024-10-02_02h50.38.495,mdp,2024.2.1,Win32,59.88023952,66fa4ebf79326e780c390304,,,,,,,,,,,,,,,,,,,,,1596.0549,1596.0549,1596.0561,1597.2045,0,1,left,0.6172,,1597.2057,1598.7877,0,0,left,1598.7889,1600.4044,0,0,left,1,1600.4044,1600.4044,1600.4057,1601.9041,0,41,41,41,1,0.8,0.2,0.4,0.6,,,,,,,,,,,,,,,1.0519,,0.8,0.2,0.2,0.8,0.6,0.4,0.8,0.2,,,1.0863,,0.6,0.4,0.2,0.8,0.4,0.6,0.6,0.4,1,0
,,61267b828ead584bcf092e35,66fc9847ad32e9cdf33b34dc,2024-10-02_02h50.38.495,mdp,2024.2.1,Win32,59.88023952,66fa4ebf79326e780c390304,,,,,,,,,,,,,,,,,,,,,1601.9046,1601.9046,1601.9058,1602.971,0,1,left,0.5339,,1602.9721,1604.1212,0,0,left,1604.1221,1605.0709,0,1,left,0,1605.071,1605.071,1605.072,1606.5708,0,42,42,42,1,0.8,0.2,0.4,0.6,,,,,,,,,,,,,,,0.6276,,0.8,0.2,0.2,0.8,0.6,0.4,0.8,0.2,,,0.426,,0.6,0.4,0.2,0.8,0.4,0.6,0.6,0.4,1,0
,,61267b828ead584bcf092e35,66fc9847ad32e9cdf33b34dc,2024-10-02_02h50.38.495,mdp,2024.2.1,Win32,59.88023952,66fa4ebf79326e780c390304,,,,,,,,,,,,,,,,,,,,,1606.5713,1606.5713,1606.5725,1607.4542,0,0,left,0.3525,,1607.4554,1608.6708,0,1,left,1608.672,1609.9711,1,0,right,1,1609.9711,1609.9711,1609.9725,1611.4707,0,43,43,43,1,0.8,0.2,0.4,0.6,,,,,,,,,,,,,,,0.6903,,0.8,0.2,0.2,0.8,0.6,0.4,0.8,0.2,,,0.7747,,0.6,0.4,0.2,0.8,0.4,0.6,0.6,0.4,1,0
,,61267b828ead584bcf092e35,66fc9847ad32e9cdf33b34dc,2024-10-02_02h50.38.495,mdp,2024.2.1,Win32,59.88023952,66fa4ebf79326e780c390304,,,,,,,,,,,,,,,,,,,,,1611.4713,1611.4713,1611.4725,1612.5207,0,1,left,0.5206,,1612.522,1613.8707,0,0,left,1613.8718,1615.1708,0,0,left,1,1615.1708,1615.1708,1615.1719,1616.6705,0,44,44,44,1,0.8,0.2,0.4,0.6,,,,,,,,,,,,,,,0.8145,,0.8,0.2,0.2,0.8,0.6,0.4,0.8,0.2,,,0.7654,,0.6,0.4,0.2,0.8,0.4,0.6,0.6,0.4,1,0
,,61267b828ead584bcf092e35,66fc9847ad32e9cdf33b34dc,2024-10-02_02h50.38.495,mdp,2024.2.1,Win32,59.88023952,66fa4ebf79326e780c390304,,,,,,,,,,,,,,,,,,,,,1616.671,1616.671,1616.6721,1617.704,0,0,left,0.5007,,1617.7051,1618.9373,0,1,left,1618.9385,1620.1204,1,0,right,1,1620.1205,1620.1205,1620.1216,1621.6204,0,45,45,45,1,0.8,0.2,0.4,0.6,,,,,,,,,,,,,,,0.7054,,0.2,0.8,0.8,0.2,0.6,0.4,0.8,0.2,,,0.6465,,0.6,0.4,0.2,0.8,0.4,0.6,0.6,0.4,1,0
,,61267b828ead584bcf092e35,66fc9847ad32e9cdf33b34dc,2024-10-02_02h50.38.495,mdp,2024.2.1,Win32,59.88023952,66fa4ebf79326e780c390304,,,,,,,,,,,,,,,,,,,,,1621.6209,1621.6209,1621.6219,1622.6039,0,0,left,0.4568,,1622.605,1623.5205,0,1,left,1623.5217,1624.8037,1,1,right,0,1624.8038,1624.8038,1624.8048,1626.3043,0,46,46,46,1,0.8,0.2,0.4,0.6,,,,,,,,,,,,,,,0.3873,,0.2,0.8,0.8,0.2,0.6,0.4,0.8,0.2,,,0.7503,,0.6,0.4,0.2,0.8,0.4,0.6,0.6,0.4,1,0
,,61267b828ead584bcf092e35,66fc9847ad32e9cdf33b34dc,2024-10-02_02h50.38.495,mdp,2024.2.1,Win32,59.88023952,66fa4ebf79326e780c390304,,,,,,,,,,,,,,,,,,,,,1626.3051,1626.3051,1626.3063,1627.237,0,1,left,0.3993,,1627.2382,1628.5203,0,0,left,1628.5221,1629.537,0,0,left,1,1629.5372,1629.5372,1629.5383,1631.0369,0,47,47,47,1,0.8,0.2,0.4,0.6,,,,,,,,,,,,,,,0.7728,,0.2,0.8,0.8,0.2,0.6,0.4,0.8,0.2,,,0.4794,,0.6,0.4,0.2,0.8,0.4,0.6,0.6,0.4,1,0
,,61267b828ead584bcf092e35,66fc9847ad32e9cdf33b34dc,2024-10-02_02h50.38.495,mdp,2024.2.1,Win32,59.88023952,66fa4ebf79326e780c390304,,,,,,,,,,,,,,,,,,,,,1631.0373,1631.0374,1631.0386,1632.0703,0,0,left,0.5015,,1632.0718,1633.0037,0,1,left,1633.0049,1634.0368,1,0,right,1,1634.0368,1634.0369,1634.0381,1635.5368,0,48,48,48,1,0.8,0.2,0.4,0.6,,,,,,,,,,,,,,,0.3973,,0.2,0.8,0.8,0.2,0.6,0.4,0.8,0.2,,,0.4983,,0.6,0.4,0.2,0.8,0.4,0.6,0.6,0.4,1,0
,,61267b828ead584bcf092e35,66fc9847ad32e9cdf33b34dc,2024-10-02_02h50.38.495,mdp,2024.2.1,Win32,59.88023952,66fa4ebf79326e780c390304,,,,,,,,,,,,,,,,,,,,,1635.5373,1635.5373,1635.5385,1636.5534,0,0,left,0.4837,,1636.5547,1637.9368,0,1,left,1637.9379,1639.4367,1,1,right,0,1639.4367,1639.4367,1639.4379,1640.9367,0,49,49,49,1,0.8,0.2,0.4,0.6,,,,,,,,,,,,,,,0.8506,,0.2,0.8,0.8,0.2,0.6,0.4,0.8,0.2,,,0.9751,,0.6,0.4,0.2,0.8,0.4,0.6,0.6,0.4,1,0
,,61267b828ead584bcf092e35,66fc9847ad32e9cdf33b34dc,2024-10-02_02h50.38.495,mdp,2024.2.1,Win32,59.88023952,66fa4ebf79326e780c390304,,,,,,,,,,,,,,,,,,,,,,,,,,,,,,,,,,,,,,,,,,,,,,,,,,,,,,,,1640.9368,1699.4521,0,3,3,2,1,imgs/cat.png,imgs/dog.png,imgs/kangaroo.png,imgs/goat.png,imgs/giraffe.png,,,,,,,,,,,,,,,,,,,,,,,,
,,61267b828ead584bcf092e35,66fc9847ad32e9cdf33b34dc,2024-10-02_02h50.38.495,mdp,2024.2.1,Win32,59.88023952,66fa4ebf79326e780c390304,,,,,,,,,,,,,,1,seqs/st1seq32.csv,1699.4536,1701.7855,space,1.8065,,1701.7879,1701.7879,1701.7886,1706.0019,0,0,left,3.6807,,1706.0034,1706.004,0,1,,1706.0044,1706.005,1,0,,1,1706.005,1706.005,1706.0054,1707.5019,0,0,0,0,1,0.6,0.4,0.2,0.8,1,0,,,,,,,,,,,,,,,,,,,,,,,,,,,,,,,,,,,,
,,61267b828ead584bcf092e35,66fc9847ad32e9cdf33b34dc,2024-10-02_02h50.38.495,mdp,2024.2.1,Win32,59.88023952,66fa4ebf79326e780c390304,,,,,,,,,,,,,,,,,,,,,1707.5023,1707.5023,1707.5036,1708.9686,0,0,left,0.9372,,1708.9702,1708.9708,0,0,,1708.9712,1708.9718,1,0,,1,1708.9718,1708.9718,1708.9722,1710.4685,0,1,1,1,1,0.6,0.4,0.2,0.8,1,0,,,,,,,,,,,,,,,,,,,,,,,,,,,,,,,,,,,,
,,61267b828ead584bcf092e35,66fc9847ad32e9cdf33b34dc,2024-10-02_02h50.38.495,mdp,2024.2.1,Win32,59.88023952,66fa4ebf79326e780c390304,,,,,,,,,,,,,,,,,,,,,1710.4688,1710.4689,1710.4702,1711.5353,0,1,left,0.5384,,1711.5364,1711.5369,0,0,,1711.5376,1711.538,1,1,,0,1711.538,1711.538,1711.5384,1713.0352,0,2,2,2,1,0.6,0.4,0.2,0.8,1,0,,,,,,,,,,,,,,,,,,,,,,,,,,,,,,,,,,,,
,,61267b828ead584bcf092e35,66fc9847ad32e9cdf33b34dc,2024-10-02_02h50.38.495,mdp,2024.2.1,Win32,59.88023952,66fa4ebf79326e780c390304,,,,,,,,,,,,,,,,,,,,,1713.0355,1713.0355,1713.0366,1713.852,0,0,left,0.2907,,1713.8534,1713.8539,0,1,,1713.8545,1713.8549,1,0,,1,1713.855,1713.855,1713.8553,1715.3517,0,3,3,3,1,0.6,0.4,0.2,0.8,1,0,,,,,,,,,,,,,,,,,,,,,,,,,,,,,,,,,,,,
,,61267b828ead584bcf092e35,66fc9847ad32e9cdf33b34dc,2024-10-02_02h50.38.495,mdp,2024.2.1,Win32,59.88023952,66fa4ebf79326e780c390304,,,,,,,,,,,,,,,,,,,,,1715.3521,1715.3522,1715.3532,1716.2353,0,1,left,0.3574,,1716.2366,1716.2372,0,1,,1716.2378,1716.2382,1,0,,0,1716.2382,1716.2382,1716.2386,1717.735,0,4,4,4,1,0.6,0.4,0.2,0.8,1,0,,,,,,,,,,,,,,,,,,,,,,,,,,,,,,,,,,,,
,,61267b828ead584bcf092e35,66fc9847ad32e9cdf33b34dc,2024-10-02_02h50.38.495,mdp,2024.2.1,Win32,59.88023952,66fa4ebf79326e780c390304,,,,,,,,,,,,,,,,,,,,,1717.7353,1717.7354,1717.7365,1718.6017,0,0,left,0.3377,,1718.603,1718.6036,0,1,,1718.6041,1718.6047,1,0,,1,1718.6047,1718.6047,1718.6051,1720.1017,0,5,5,5,1,0.6,0.4,0.2,0.8,1,0,,,,,,,,,,,,,,,,,,,,,,,,,,,,,,,,,,,,
,,61267b828ead584bcf092e35,66fc9847ad32e9cdf33b34dc,2024-10-02_02h50.38.495,mdp,2024.2.1,Win32,59.88023952,66fa4ebf79326e780c390304,,,,,,,,,,,,,,,,,,,,,1720.1022,1720.1022,1720.1033,1721.1349,1,1,right,0.5002,,1721.1362,1721.1368,0,1,,1721.1372,1721.1379,1,1,,0,1721.1379,1721.1379,1721.1383,1722.6349,0,6,6,6,1,0.6,0.4,0.2,0.8,1,0,,,,,,,,,,,,,,,,,,,,,,,,,,,,,,,,,,,,
,,61267b828ead584bcf092e35,66fc9847ad32e9cdf33b34dc,2024-10-02_02h50.38.495,mdp,2024.2.1,Win32,59.88023952,66fa4ebf79326e780c390304,,,,,,,,,,,,,,,,,,,,,1722.6353,1722.6354,1722.6365,1723.5016,0,0,left,0.3345,,1723.5027,1723.5033,0,0,,1723.5038,1723.5042,1,1,,1,1723.5043,1723.5043,1723.5046,1725.0016,0,7,7,7,1,0.8,0.2,0.8,0.2,1,0,,,,,,,,,,,,,,,,,,,,,,,,,,,,,,,,,,,,
,,61267b828ead584bcf092e35,66fc9847ad32e9cdf33b34dc,2024-10-02_02h50.38.495,mdp,2024.2.1,Win32,59.88023952,66fa4ebf79326e780c390304,,,,,,,,,,,,,,,,,,,,,1725.0019,1725.002,1725.0032,1725.9183,0,1,left,0.3862,,1725.9194,1725.9201,0,1,,1725.9207,1725.9213,1,1,,0,1725.9213,1725.9213,1725.9218,1727.4182,0,8,8,8,1,0.6,0.4,0.6,0.4,1,0,,,,,,,,,,,,,,,,,,,,,,,,,,,,,,,,,,,,
,,61267b828ead584bcf092e35,66fc9847ad32e9cdf33b34dc,2024-10-02_02h50.38.495,mdp,2024.2.1,Win32,59.88023952,66fa4ebf79326e780c390304,,,,,,,,,,,,,,,,,,,,,1727.4186,1727.4186,1727.4199,1728.3849,0,1,left,0.434,,1728.3863,1728.3869,0,1,,1728.3873,1728.3878,1,0,,0,1728.3878,1728.3878,1728.3883,1729.8848,0,9,9,9,1,0.6,0.4,0.6,0.4,1,0,,,,,,,,,,,,,,,,,,,,,,,,,,,,,,,,,,,,
,,61267b828ead584bcf092e35,66fc9847ad32e9cdf33b34dc,2024-10-02_02h50.38.495,mdp,2024.2.1,Win32,59.88023952,66fa4ebf79326e780c390304,,,,,,,,,,,,,,,,,,,,,1729.8851,1729.8851,1729.8863,1730.9015,0,1,left,0.4916,,1730.9027,1730.9033,0,0,,1730.9039,1730.9044,1,1,,0,1730.9044,1730.9044,1730.9048,1732.4014,0,10,10,10,1,0.6,0.4,0.6,0.4,1,0,,,,,,,,,,,,,,,,,,,,,,,,,,,,,,,,,,,,
,,61267b828ead584bcf092e35,66fc9847ad32e9cdf33b34dc,2024-10-02_02h50.38.495,mdp,2024.2.1,Win32,59.88023952,66fa4ebf79326e780c390304,,,,,,,,,,,,,,,,,,,,,1732.4018,1732.4018,1732.4032,1733.4847,1,1,right,0.5523,,1733.4859,1733.4865,0,0,,1733.487,1733.4875,1,0,,0,1733.4875,1733.4876,1733.4879,1734.9847,0,11,11,11,1,0.6,0.4,0.6,0.4,1,0,,,,,,,,,,,,,,,,,,,,,,,,,,,,,,,,,,,,
,,61267b828ead584bcf092e35,66fc9847ad32e9cdf33b34dc,2024-10-02_02h50.38.495,mdp,2024.2.1,Win32,59.88023952,66fa4ebf79326e780c390304,,,,,,,,,,,,,,,,,,,,,1734.9851,1734.9851,1734.9864,1736.1513,1,0,right,0.6386,,1736.1525,1736.1532,0,0,,1736.1537,1736.1542,1,0,,1,1736.1542,1736.1542,1736.155,1737.6512,0,12,12,12,1,0.6,0.4,0.6,0.4,1,0,,,,,,,,,,,,,,,,,,,,,,,,,,,,,,,,,,,,
,,61267b828ead584bcf092e35,66fc9847ad32e9cdf33b34dc,2024-10-02_02h50.38.495,mdp,2024.2.1,Win32,59.88023952,66fa4ebf79326e780c390304,,,,,,,,,,,,,,,,,,,,,1737.6517,1737.6517,1737.6528,1738.5514,1,0,right,0.3704,,1738.5527,1738.5533,0,0,,1738.554,1738.5545,1,0,,1,1738.5545,1738.5545,1738.5549,1740.0511,0,13,13,13,1,0.4,0.6,0.8,0.2,1,0,,,,,,,,,,,,,,,,,,,,,,,,,,,,,,,,,,,,
,,61267b828ead584bcf092e35,66fc9847ad32e9cdf33b34dc,2024-10-02_02h50.38.495,mdp,2024.2.1,Win32,59.88023952,66fa4ebf79326e780c390304,,,,,,,,,,,,,,,,,,,,,1740.0516,1740.0516,1740.0527,1741.0346,1,0,right,0.4537,,1741.0358,1741.0364,0,1,,1741.0369,1741.0374,1,0,,1,1741.0375,1741.0375,1741.0379,1742.5345,0,14,14,14,1,0.2,0.8,0.6,0.4,1,0,,,,,,,,,,,,,,,,,,,,,,,,,,,,,,,,,,,,
,,61267b828ead584bcf092e35,66fc9847ad32e9cdf33b34dc,2024-10-02_02h50.38.495,mdp,2024.2.1,Win32,59.88023952,66fa4ebf79326e780c390304,,,,,,,,,,,,,,,,,,,,,1742.5349,1742.5349,1742.536,1743.4013,1,1,right,0.3441,,1743.4025,1743.4031,0,0,,1743.4036,1743.4043,1,0,,0,1743.4043,1743.4043,1743.4047,1744.9011,0,15,15,15,1,0.8,0.2,0.8,0.2,1,0,,,,,,,,,,,,,,,,,,,,,,,,,,,,,,,,,,,,
,,61267b828ead584bcf092e35,66fc9847ad32e9cdf33b34dc,2024-10-02_02h50.38.495,mdp,2024.2.1,Win32,59.88023952,66fa4ebf79326e780c390304,,,,,,,,,,,,,,,,,,,,,1744.9015,1744.9015,1744.9028,1745.7514,1,0,right,0.3169,,1745.7527,1745.7533,0,1,,1745.754,1745.7546,1,0,,1,1745.7546,1745.7546,1745.7551,1747.251,0,16,16,16,1,0.8,0.2,0.8,0.2,1,0,,,,,,,,,,,,,,,,,,,,,,,,,,,,,,,,,,,,
,,61267b828ead584bcf092e35,66fc9847ad32e9cdf33b34dc,2024-10-02_02h50.38.495,mdp,2024.2.1,Win32,59.88023952,66fa4ebf79326e780c390304,,,,,,,,,,,,,,,,,,,,,1747.2515,1747.2515,1747.2525,1748.0845,1,0,right,0.3104,,1748.0857,1748.0862,0,0,,1748.0868,1748.0873,1,0,,1,1748.0873,1748.0873,1748.0877,1749.5843,0,17,17,17,1,0.8,0.2,0.8,0.2,1,0,,,,,,,,,,,,,,,,,,,,,,,,,,,,,,,,,,,,
,,61267b828ead584bcf092e35,66fc9847ad32e9cdf33b34dc,2024-10-02_02h50.38.495,mdp,2024.2.1,Win32,59.88023952,66fa4ebf79326e780c390304,,,,,,,,,,,,,,,,,,,,,1749.5848,1749.5848,1749.5858,1750.451,1,1,right,0.3331,,1750.4522,1750.4529,0,0,,1750.4534,1750.4542,1,1,,0,1750.4542,1750.4542,1750.4547,1751.9509,0,18,18,18,1,0.8,0.2,0.8,0.2,1,0,,,,,,,,,,,,,,,,,,,,,,,,,,,,,,,,,,,,
,,61267b828ead584bcf092e35,66fc9847ad32e9cdf33b34dc,2024-10-02_02h50.38.495,mdp,2024.2.1,Win32,59.88023952,66fa4ebf79326e780c390304,,,,,,,,,,,,,,,,,,,,,1751.9514,1751.9515,1751.9525,1752.8015,1,0,right,0.3279,,1752.8026,1752.8032,0,0,,1752.8039,1752.8044,1,1,,1,1752.8044,1752.8044,1752.8049,1754.3009,0,19,19,19,1,0.6,0.4,0.6,0.4,1,0,,,,,,,,,,,,,,,,,,,,,,,,,,,,,,,,,,,,
,,61267b828ead584bcf092e35,66fc9847ad32e9cdf33b34dc,2024-10-02_02h50.38.495,mdp,2024.2.1,Win32,59.88023952,66fa4ebf79326e780c390304,,,,,,,,,,,,,,,,,,,,,1754.3013,1754.3013,1754.3025,1755.1677,1,0,right,0.3338,,1755.1689,1755.1694,0,1,,1755.1699,1755.1705,1,0,,1,1755.1705,1755.1705,1755.171,1756.6676,0,20,20,20,1,0.4,0.6,0.8,0.2,1,0,,,,,,,,,,,,,,,,,,,,,,,,,,,,,,,,,,,,
,,61267b828ead584bcf092e35,66fc9847ad32e9cdf33b34dc,2024-10-02_02h50.38.495,mdp,2024.2.1,Win32,59.88023952,66fa4ebf79326e780c390304,,,,,,,,,,,,,,,,,,,,,1756.6679,1756.6679,1756.6692,1757.551,1,0,right,0.3536,,1757.5522,1757.5528,0,0,,1757.5532,1757.5538,1,0,,1,1757.5538,1757.5538,1757.5542,1759.0508,0,21,21,21,1,0.4,0.6,0.8,0.2,1,0,,,,,,,,,,,,,,,,,,,,,,,,,,,,,,,,,,,,
,,61267b828ead584bcf092e35,66fc9847ad32e9cdf33b34dc,2024-10-02_02h50.38.495,mdp,2024.2.1,Win32,59.88023952,66fa4ebf79326e780c390304,,,,,,,,,,,,,,,,,,,,,1759.0513,1759.0513,1759.0523,1759.8842,1,0,right,0.3072,,1759.8853,1759.886,0,1,,1759.8865,1759.8869,1,0,,1,1759.8869,1759.8869,1759.8874,1761.384,0,22,22,22,1,0.4,0.6,0.8,0.2,1,0,,,,,,,,,,,,,,,,,,,,,,,,,,,,,,,,,,,,
,,61267b828ead584bcf092e35,66fc9847ad32e9cdf33b34dc,2024-10-02_02h50.38.495,mdp,2024.2.1,Win32,59.88023952,66fa4ebf79326e780c390304,,,,,,,,,,,,,,,,,,,,,1761.3845,1761.3845,1761.3858,1762.1841,1,0,right,0.2763,,1762.1853,1762.1859,0,1,,1762.1864,1762.1868,1,1,,1,1762.1868,1762.1868,1762.1872,1763.684,0,23,23,23,1,0.4,0.6,0.8,0.2,1,0,,,,,,,,,,,,,,,,,,,,,,,,,,,,,,,,,,,,
,,61267b828ead584bcf092e35,66fc9847ad32e9cdf33b34dc,2024-10-02_02h50.38.495,mdp,2024.2.1,Win32,59.88023952,66fa4ebf79326e780c390304,,,,,,,,,,,,,,,,,,,,,1763.6845,1763.6845,1763.6855,1764.7341,1,0,right,0.5193,,1764.7353,1764.7359,0,0,,1764.7364,1764.7367,1,0,,1,1764.7367,1764.7368,1764.7372,1766.234,0,24,24,24,1,0.4,0.6,0.8,0.2,1,0,,,,,,,,,,,,,,,,,,,,,,,,,,,,,,,,,,,,
,,61267b828ead584bcf092e35,66fc9847ad32e9cdf33b34dc,2024-10-02_02h50.38.495,mdp,2024.2.1,Win32,59.88023952,66fa4ebf79326e780c390304,,,,,,,,,,,,,,,,,,,,,1766.2344,1766.2344,1766.2354,1767.334,1,0,right,0.5673,,1767.3351,1767.3358,0,0,,1767.3363,1767.3368,1,1,,1,1767.3368,1767.3368,1767.3372,1768.834,0,25,25,25,1,0.4,0.6,0.8,0.2,1,0,,,,,,,,,,,,,,,,,,,,,,,,,,,,,,,,,,,,
,,61267b828ead584bcf092e35,66fc9847ad32e9cdf33b34dc,2024-10-02_02h50.38.495,mdp,2024.2.1,Win32,59.88023952,66fa4ebf79326e780c390304,,,,,,,,,,,,,,,,,,,,,1768.8343,1768.8343,1768.8356,1769.7173,1,0,right,0.3536,,1769.7189,1769.7195,0,0,,1769.7202,1769.7207,1,0,,1,1769.7207,1769.7207,1769.7211,1771.2172,0,26,26,26,1,0.4,0.6,0.8,0.2,1,0,,,,,,,,,,,,,,,,,,,,,,,,,,,,,,,,,,,,
,,61267b828ead584bcf092e35,66fc9847ad32e9cdf33b34dc,2024-10-02_02h50.38.495,mdp,2024.2.1,Win32,59.88023952,66fa4ebf79326e780c390304,,,,,,,,,,,,,,,,,,,,,1771.2176,1771.2176,1771.2187,1772.1339,1,0,right,0.385,,1772.1354,1772.136,0,0,,1772.1365,1772.137,1,0,,1,1772.1371,1772.1371,1772.1374,1773.6338,0,27,27,27,1,0.4,0.6,0.8,0.2,1,0,,,,,,,,,,,,,,,,,,,,,,,,,,,,,,,,,,,,
,,61267b828ead584bcf092e35,66fc9847ad32e9cdf33b34dc,2024-10-02_02h50.38.495,mdp,2024.2.1,Win32,59.88023952,66fa4ebf79326e780c390304,,,,,,,,,,,,,,,,,,,,,1773.634,1773.6341,1773.6347,1775.1174,1,0,right,0.953,,1775.1187,1775.1193,0,0,,1775.1198,1775.1203,1,0,,1,1775.1203,1775.1203,1775.1207,1776.6171,0,28,28,28,1,0.4,0.6,0.8,0.2,1,0,,,,,,,,,,,,,,,,,,,,,,,,,,,,,,,,,,,,
,,61267b828ead584bcf092e35,66fc9847ad32e9cdf33b34dc,2024-10-02_02h50.38.495,mdp,2024.2.1,Win32,59.88023952,66fa4ebf79326e780c390304,,,,,,,,,,,,,,,,,,,,,1776.6175,1776.6175,1776.6185,1777.4838,1,0,right,0.3373,,1777.4852,1777.4858,0,1,,1777.4864,1777.4869,1,0,,1,1777.4869,1777.4869,1777.4873,1778.9836,0,29,29,29,1,0.4,0.6,0.8,0.2,1,0,,,,,,,,,,,,,,,,,,,,,,,,,,,,,,,,,,,,
,,61267b828ead584bcf092e35,66fc9847ad32e9cdf33b34dc,2024-10-02_02h50.38.495,mdp,2024.2.1,Win32,59.88023952,66fa4ebf79326e780c390304,,,,,,,,,,,,,,,,,,,,,1778.984,1778.984,1778.9853,1779.8171,1,1,right,0.3048,,1779.8183,1779.8189,0,0,,1779.8194,1779.82,1,0,,0,1779.82,1779.82,1779.8205,1781.317,0,30,30,30,1,0.4,0.6,0.8,0.2,1,0,,,,,,,,,,,,,,,,,,,,,,,,,,,,,,,,,,,,
,,61267b828ead584bcf092e35,66fc9847ad32e9cdf33b34dc,2024-10-02_02h50.38.495,mdp,2024.2.1,Win32,59.88023952,66fa4ebf79326e780c390304,,,,,,,,,,,,,,,,,,,,,1781.3175,1781.3175,1781.3186,1782.3671,1,0,right,0.5191,,1782.3685,1782.3691,0,1,,1782.3695,1782.37,1,0,,1,1782.37,1782.37,1782.3705,1783.8669,0,31,31,31,1,0.4,0.6,0.8,0.2,1,0,,,,,,,,,,,,,,,,,,,,,,,,,,,,,,,,,,,,
,,61267b828ead584bcf092e35,66fc9847ad32e9cdf33b34dc,2024-10-02_02h50.38.495,mdp,2024.2.1,Win32,59.88023952,66fa4ebf79326e780c390304,,,,,,,,,,,,,,,,,,,,,1783.8674,1783.8674,1783.8686,1784.7171,1,1,right,0.3166,,1784.7183,1784.7189,0,1,,1784.7194,1784.7199,1,0,,0,1784.72,1784.72,1784.7205,1786.2168,0,32,32,32,1,0.4,0.6,0.8,0.2,1,0,,,,,,,,,,,,,,,,,,,,,,,,,,,,,,,,,,,,
,,61267b828ead584bcf092e35,66fc9847ad32e9cdf33b34dc,2024-10-02_02h50.38.495,mdp,2024.2.1,Win32,59.88023952,66fa4ebf79326e780c390304,,,,,,,,,,,,,,,,,,,,,1786.2172,1786.2172,1786.2185,1787.2836,1,0,right,0.5402,,1787.2848,1787.2854,0,1,,1787.2859,1787.2862,1,0,,1,1787.2863,1787.2863,1787.2867,1788.7834,0,33,33,33,1,0.4,0.6,0.8,0.2,1,0,,,,,,,,,,,,,,,,,,,,,,,,,,,,,,,,,,,,
,,61267b828ead584bcf092e35,66fc9847ad32e9cdf33b34dc,2024-10-02_02h50.38.495,mdp,2024.2.1,Win32,59.88023952,66fa4ebf79326e780c390304,,,,,,,,,,,,,,,,,,,,,1788.7839,1788.7839,1788.7849,1789.6836,1,1,right,0.3774,,1789.6848,1789.6853,0,1,,1789.6858,1789.6865,1,0,,0,1789.6865,1789.6865,1789.6868,1791.1834,0,34,34,34,1,0.4,0.6,0.8,0.2,1,0,,,,,,,,,,,,,,,,,,,,,,,,,,,,,,,,,,,,
,,61267b828ead584bcf092e35,66fc9847ad32e9cdf33b34dc,2024-10-02_02h50.38.495,mdp,2024.2.1,Win32,59.88023952,66fa4ebf79326e780c390304,,,,,,,,,,,,,,,,,,,,,1791.1838,1791.1838,1791.185,1792.2336,1,0,right,0.5201,,1792.2349,1792.2354,0,0,,1792.236,1792.2366,1,0,,1,1792.2366,1792.2366,1792.237,1793.7334,0,35,35,35,1,0.4,0.6,0.8,0.2,1,0,,,,,,,,,,,,,,,,,,,,,,,,,,,,,,,,,,,,
,,61267b828ead584bcf092e35,66fc9847ad32e9cdf33b34dc,2024-10-02_02h50.38.495,mdp,2024.2.1,Win32,59.88023952,66fa4ebf79326e780c390304,,,,,,,,,,,,,,,,,,,,,1793.7337,1793.7338,1793.7349,1794.7501,1,0,right,0.4882,,1794.7513,1794.7518,0,1,,1794.7523,1794.7527,1,0,,1,1794.7527,1794.7527,1794.7532,1796.2499,0,36,36,36,1,0.4,0.6,0.8,0.2,1,0,,,,,,,,,,,,,,,,,,,,,,,,,,,,,,,,,,,,
,,61267b828ead584bcf092e35,66fc9847ad32e9cdf33b34dc,2024-10-02_02h50.38.495,mdp,2024.2.1,Win32,59.88023952,66fa4ebf79326e780c390304,,,,,,,,,,,,,,,,,,,,,1796.2504,1796.2504,1796.2515,1797.0834,1,0,right,0.3028,,1797.0847,1797.0852,0,0,,1797.0856,1797.086,1,0,,1,1797.0861,1797.0861,1797.0865,1798.5833,0,37,37,37,1,0.2,0.8,0.6,0.4,1,0,,,,,,,,,,,,,,,,,,,,,,,,,,,,,,,,,,,,
,,61267b828ead584bcf092e35,66fc9847ad32e9cdf33b34dc,2024-10-02_02h50.38.495,mdp,2024.2.1,Win32,59.88023952,66fa4ebf79326e780c390304,,,,,,,,,,,,,,,,,,,,,1798.5837,1798.5837,1798.5848,1799.3666,1,1,right,0.2565,,1799.3678,1799.3685,0,0,,1799.369,1799.3695,1,1,,0,1799.3695,1799.3695,1799.3699,1800.8665,0,38,38,38,1,0.8,0.2,0.2,0.8,1,0,,,,,,,,,,,,,,,,,,,,,,,,,,,,,,,,,,,,
