init_exp.started,init_exp.stopped,participant,session,date,expName,psychopyVersion,OS,frameRate,study_id,disp_instruction.started,disp_instruction.stopped,instruction.thisRepN,instruction.thisTrialN,instruction.thisN,instruction.thisIndex,instruction.ran,instimg_path,consent.started,consent.stopped,key_resp_3.keys,key_resp_3.rt,key_resp_3.duration,n_steps,sequence_path,init_block.started,init_block.stopped,key_resp.keys,key_resp.rt,key_resp.duration,init_trials.started,init_trials.stopped,step0.started,step0.stopped,act0,s1,res0.keys,res0.rt,res0.duration,step1.started,step1.stopped,act1,s2,res1.keys,step2.started,step2.stopped,act2,s3,res2.keys,rew,reward_comp.started,reward_comp.stopped,reward_disp.started,reward_disp.stopped,trials.thisRepN,trials.thisTrialN,trials.thisN,trials.thisIndex,trials.ran,s00a0s10,s00a0s11,s00a1s10,s00a1s11,rew10,rew11,break_block.started,break_block.stopped,block.thisRepN,block.thisTrialN,block.thisN,block.thisIndex,block.ran,s00path,s10path,s11path,s20path,s21path,res1.rt,res1.duration,s10a0s20,s10a0s21,s10a1s20,s10a1s21,s11a0s20,s11a0s21,s11a1s20,s11a1s21,rew20,rew21,res2.rt,res2.duration,s20a0s30,s20a0s31,s20a1s30,s20a1s31,s21a0s30,s21a0s31,s21a1s30,s21a1s31,rew30,rew31
0.0015,0.0083,612f7826436df8fb008c4f0d,66daf5b9d426239ab21a7a3a,2024-09-06_14h36.50.116,mdp,2024.2.1,Win32,59.88023952,66d7945b1baad48e845df3ce,,,,,,,,,,,,,,,,,,,,,,,,,,,,,,,,,,,,,,,,,,,,,,,,,,,,,,,,,,,,,,,,,,,,,,,,,,,,,,,,,,,,,,,,,,,
,,612f7826436df8fb008c4f0d,66daf5b9d426239ab21a7a3a,2024-09-06_14h36.50.116,mdp,2024.2.1,Win32,59.88023952,66d7945b1baad48e845df3ce,0.0197,174.4172,0,0,0,0,1,rlnn_exp/rlnn_exp.001.png,,,,,,,,,,,,,,,,,,,,,,,,,,,,,,,,,,,,,,,,,,,,,,,,,,,,,,,,,,,,,,,,,,,,,,,,,,,,,,,,,,,
,,612f7826436df8fb008c4f0d,66daf5b9d426239ab21a7a3a,2024-09-06_14h36.50.116,mdp,2024.2.1,Win32,59.88023952,66d7945b1baad48e845df3ce,174.4198,271.1481,0,1,1,1,1,rlnn_exp/rlnn_exp.002.png,,,,,,,,,,,,,,,,,,,,,,,,,,,,,,,,,,,,,,,,,,,,,,,,,,,,,,,,,,,,,,,,,,,,,,,,,,,,,,,,,,,
,,612f7826436df8fb008c4f0d,66daf5b9d426239ab21a7a3a,2024-09-06_14h36.50.116,mdp,2024.2.1,Win32,59.88023952,66d7945b1baad48e845df3ce,271.1636,360.1553,0,2,2,2,1,rlnn_exp/rlnn_exp.003.png,,,,,,,,,,,,,,,,,,,,,,,,,,,,,,,,,,,,,,,,,,,,,,,,,,,,,,,,,,,,,,,,,,,,,,,,,,,,,,,,,,,
,,612f7826436df8fb008c4f0d,66daf5b9d426239ab21a7a3a,2024-09-06_14h36.50.116,mdp,2024.2.1,Win32,59.88023952,66d7945b1baad48e845df3ce,360.1724,372.0276,0,3,3,3,1,rlnn_exp/rlnn_exp.004.png,,,,,,,,,,,,,,,,,,,,,,,,,,,,,,,,,,,,,,,,,,,,,,,,,,,,,,,,,,,,,,,,,,,,,,,,,,,,,,,,,,,
,,612f7826436df8fb008c4f0d,66daf5b9d426239ab21a7a3a,2024-09-06_14h36.50.116,mdp,2024.2.1,Win32,59.88023952,66d7945b1baad48e845df3ce,,,,,,,,,372.0425,404.526,y,22.4204,,,,,,,,,,,,,,,,,,,,,,,,,,,,,,,,,,,,,,,,,,,,,,,,,,,,,,,,,,,,,,,,,,,,,,,,,,,,,,,
,,612f7826436df8fb008c4f0d,66daf5b9d426239ab21a7a3a,2024-09-06_14h36.50.116,mdp,2024.2.1,Win32,59.88023952,66d7945b1baad48e845df3ce,,,,,,,,,,,,,,1,seqs/st1seq29.csv,404.5454,408.2438,space,3.1754,,408.2496,408.2498,408.2505,418.5832,1,0,right,9.8024,,418.5971,418.6003,,0,,418.6009,418.6036,,0,,1,418.6037,418.6039,418.6044,420.0986,0,0,0,0,1,0.4,0.6,0.6,0.4,1,0,,,,,,,,,,,,,,,,,,,,,,,,,,,,,,,,,,,,
,,612f7826436df8fb008c4f0d,66daf5b9d426239ab21a7a3a,2024-09-06_14h36.50.116,mdp,2024.2.1,Win32,59.88023952,66d7945b1baad48e845df3ce,,,,,,,,,,,,,,,,,,,,,420.1,420.1,420.1017,421.5999,1,0,right,0.9789,,421.6032,421.6049,,0,,421.6066,421.6085,,1,,1,421.6086,421.6086,421.6099,423.0977,0,1,1,1,1,0.4,0.6,0.6,0.4,1,0,,,,,,,,,,,,,,,,,,,,,,,,,,,,,,,,,,,,
,,612f7826436df8fb008c4f0d,66daf5b9d426239ab21a7a3a,2024-09-06_14h36.50.116,mdp,2024.2.1,Win32,59.88023952,66d7945b1baad48e845df3ce,,,,,,,,,,,,,,,,,,,,,423.0998,423.0999,423.1031,425.0171,1,0,right,1.3831,,425.0198,425.0212,,0,,425.0226,425.024,,0,,1,425.024,425.0241,425.0254,426.5169,0,2,2,2,1,0.4,0.6,0.6,0.4,1,0,,,,,,,,,,,,,,,,,,,,,,,,,,,,,,,,,,,,
,,612f7826436df8fb008c4f0d,66daf5b9d426239ab21a7a3a,2024-09-06_14h36.50.116,mdp,2024.2.1,Win32,59.88023952,66d7945b1baad48e845df3ce,,,,,,,,,,,,,,,,,,,,,426.5181,426.5181,426.5205,428.9688,1,0,right,1.923,,428.9836,428.9857,,0,,428.988,428.9904,,0,,1,428.9905,428.9905,428.9917,430.486,0,3,3,3,1,0.2,0.8,0.8,0.2,1,0,,,,,,,,,,,,,,,,,,,,,,,,,,,,,,,,,,,,
,,612f7826436df8fb008c4f0d,66daf5b9d426239ab21a7a3a,2024-09-06_14h36.50.116,mdp,2024.2.1,Win32,59.88023952,66d7945b1baad48e845df3ce,,,,,,,,,,,,,,,,,,,,,430.4874,430.4874,430.4896,432.3195,1,0,right,1.3096,,432.3232,432.3246,,0,,432.326,432.3274,,0,,1,432.3275,432.3275,432.3289,433.8206,0,4,4,4,1,0.2,0.8,0.8,0.2,1,0,,,,,,,,,,,,,,,,,,,,,,,,,,,,,,,,,,,,
,,612f7826436df8fb008c4f0d,66daf5b9d426239ab21a7a3a,2024-09-06_14h36.50.116,mdp,2024.2.1,Win32,59.88023952,66d7945b1baad48e845df3ce,,,,,,,,,,,,,,,,,,,,,433.822,433.8221,433.8243,436.5556,1,1,right,2.2037,,436.5584,436.5597,,1,,436.5611,436.5624,,1,,0,436.5625,436.5625,436.5637,438.0561,0,5,5,5,1,0.6,0.4,0.2,0.8,1,0,,,,,,,,,,,,,,,,,,,,,,,,,,,,,,,,,,,,
,,612f7826436df8fb008c4f0d,66daf5b9d426239ab21a7a3a,2024-09-06_14h36.50.116,mdp,2024.2.1,Win32,59.88023952,66d7945b1baad48e845df3ce,,,,,,,,,,,,,,,,,,,,,438.0575,438.0575,438.0598,442.5748,0,0,left,3.9879,,442.5897,442.5914,,0,,442.5929,442.5947,,1,,1,442.5948,442.5949,442.5964,444.0902,0,6,6,6,1,0.6,0.4,0.2,0.8,1,0,,,,,,,,,,,,,,,,,,,,,,,,,,,,,,,,,,,,
,,612f7826436df8fb008c4f0d,66daf5b9d426239ab21a7a3a,2024-09-06_14h36.50.116,mdp,2024.2.1,Win32,59.88023952,66d7945b1baad48e845df3ce,,,,,,,,,,,,,,,,,,,,,444.092,444.092,444.0955,445.5766,0,0,left,0.9616,,445.5802,445.582,,1,,445.5837,445.5852,,0,,1,445.5853,445.5853,445.5868,447.0761,0,7,7,7,1,0.6,0.4,0.2,0.8,1,0,,,,,,,,,,,,,,,,,,,,,,,,,,,,,,,,,,,,
,,612f7826436df8fb008c4f0d,66daf5b9d426239ab21a7a3a,2024-09-06_14h36.50.116,mdp,2024.2.1,Win32,59.88023952,66d7945b1baad48e845df3ce,,,,,,,,,,,,,,,,,,,,,447.0782,447.0784,447.0802,448.5769,1,0,right,0.9757,,448.5801,448.5815,,0,,448.5831,448.5844,,1,,1,448.5845,448.5845,448.5858,450.0775,0,8,8,8,1,0.8,0.2,0.8,0.2,1,0,,,,,,,,,,,,,,,,,,,,,,,,,,,,,,,,,,,,
,,612f7826436df8fb008c4f0d,66daf5b9d426239ab21a7a3a,2024-09-06_14h36.50.116,mdp,2024.2.1,Win32,59.88023952,66d7945b1baad48e845df3ce,,,,,,,,,,,,,,,,,,,,,450.0791,450.0792,450.0815,454.6632,1,1,right,4.0537,,454.6782,454.6802,,1,,454.6817,454.6829,,0,,0,454.6831,454.6831,454.6841,456.1785,0,9,9,9,1,0.6,0.4,0.4,0.6,1,0,,,,,,,,,,,,,,,,,,,,,,,,,,,,,,,,,,,,
,,612f7826436df8fb008c4f0d,66daf5b9d426239ab21a7a3a,2024-09-06_14h36.50.116,mdp,2024.2.1,Win32,59.88023952,66d7945b1baad48e845df3ce,,,,,,,,,,,,,,,,,,,,,456.1807,456.1807,456.1836,457.2479,0,1,left,0.5352,,457.251,457.2523,,1,,457.2536,457.255,,1,,0,457.255,457.255,457.2562,458.7477,0,10,10,10,1,0.2,0.8,0.8,0.2,1,0,,,,,,,,,,,,,,,,,,,,,,,,,,,,,,,,,,,,
,,612f7826436df8fb008c4f0d,66daf5b9d426239ab21a7a3a,2024-09-06_14h36.50.116,mdp,2024.2.1,Win32,59.88023952,66d7945b1baad48e845df3ce,,,,,,,,,,,,,,,,,,,,,458.7486,458.7486,458.7515,459.7823,0,1,left,0.5048,,459.7851,459.7865,,1,,459.788,459.7896,,1,,0,459.7896,459.7896,459.7908,461.2824,0,11,11,11,1,0.2,0.8,0.8,0.2,1,0,,,,,,,,,,,,,,,,,,,,,,,,,,,,,,,,,,,,
,,612f7826436df8fb008c4f0d,66daf5b9d426239ab21a7a3a,2024-09-06_14h36.50.116,mdp,2024.2.1,Win32,59.88023952,66d7945b1baad48e845df3ce,,,,,,,,,,,,,,,,,,,,,461.2841,461.2842,461.2861,462.2832,0,0,left,0.4724,,462.2861,462.2874,,1,,462.2888,462.2904,,1,,1,462.2905,462.2905,462.2918,463.7839,0,12,12,12,1,0.2,0.8,0.8,0.2,1,0,,,,,,,,,,,,,,,,,,,,,,,,,,,,,,,,,,,,
,,612f7826436df8fb008c4f0d,66daf5b9d426239ab21a7a3a,2024-09-06_14h36.50.116,mdp,2024.2.1,Win32,59.88023952,66d7945b1baad48e845df3ce,,,,,,,,,,,,,,,,,,,,,463.7854,463.7854,463.7876,464.9342,1,0,right,0.6193,,464.9371,464.9385,,0,,464.94,464.9418,,0,,1,464.9419,464.9419,464.9431,466.4344,0,13,13,13,1,0.2,0.8,0.8,0.2,1,0,,,,,,,,,,,,,,,,,,,,,,,,,,,,,,,,,,,,
,,612f7826436df8fb008c4f0d,66daf5b9d426239ab21a7a3a,2024-09-06_14h36.50.116,mdp,2024.2.1,Win32,59.88023952,66d7945b1baad48e845df3ce,,,,,,,,,,,,,,,,,,,,,466.4368,466.4369,466.4388,467.6356,1,1,right,0.669,,467.6384,467.6397,,0,,467.641,467.6421,,0,,0,467.6422,467.6422,467.6433,469.1355,0,14,14,14,1,0.8,0.2,0.6,0.4,1,0,,,,,,,,,,,,,,,,,,,,,,,,,,,,,,,,,,,,
,,612f7826436df8fb008c4f0d,66daf5b9d426239ab21a7a3a,2024-09-06_14h36.50.116,mdp,2024.2.1,Win32,59.88023952,66d7945b1baad48e845df3ce,,,,,,,,,,,,,,,,,,,,,469.1373,469.1374,469.1394,506.6728,0,1,left,37.0116,,506.6889,506.6915,,0,,506.6931,506.6945,,0,,0,506.6946,506.6946,506.6961,508.1866,0,15,15,15,1,0.8,0.2,0.6,0.4,1,0,,,,,,,,,,,,,,,,,,,,,,,,,,,,,,,,,,,,
,,612f7826436df8fb008c4f0d,66daf5b9d426239ab21a7a3a,2024-09-06_14h36.50.116,mdp,2024.2.1,Win32,59.88023952,66d7945b1baad48e845df3ce,,,,,,,,,,,,,,,,,,,,,508.1884,508.1884,508.1904,509.1874,0,0,left,0.4708,,509.1905,509.1918,,0,,509.1931,509.1942,,0,,1,509.1943,509.1943,509.1955,510.6878,0,16,16,16,1,0.8,0.2,0.6,0.4,1,0,,,,,,,,,,,,,,,,,,,,,,,,,,,,,,,,,,,,
,,612f7826436df8fb008c4f0d,66daf5b9d426239ab21a7a3a,2024-09-06_14h36.50.116,mdp,2024.2.1,Win32,59.88023952,66d7945b1baad48e845df3ce,,,,,,,,,,,,,,,,,,,,,510.6895,510.6895,510.6918,511.9555,0,1,left,0.7374,,511.9584,511.9599,,0,,511.9614,511.9626,,0,,0,511.9626,511.9626,511.9638,513.4557,0,17,17,17,1,0.8,0.2,0.6,0.4,1,0,,,,,,,,,,,,,,,,,,,,,,,,,,,,,,,,,,,,
,,612f7826436df8fb008c4f0d,66daf5b9d426239ab21a7a3a,2024-09-06_14h36.50.116,mdp,2024.2.1,Win32,59.88023952,66d7945b1baad48e845df3ce,,,,,,,,,,,,,,,,,,,,,513.4574,513.4575,513.4598,514.3738,1,0,right,0.3948,,514.3768,514.3785,,0,,514.38,514.3822,,0,,1,514.3823,514.3823,514.3841,515.8731,0,18,18,18,1,0.6,0.4,0.8,0.2,1,0,,,,,,,,,,,,,,,,,,,,,,,,,,,,,,,,,,,,
,,612f7826436df8fb008c4f0d,66daf5b9d426239ab21a7a3a,2024-09-06_14h36.50.116,mdp,2024.2.1,Win32,59.88023952,66d7945b1baad48e845df3ce,,,,,,,,,,,,,,,,,,,,,515.8751,515.8752,515.877,517.4081,1,1,right,1.0072,,517.411,517.4123,,0,,517.4137,517.4154,,0,,0,517.4155,517.4155,517.4166,518.9093,0,19,19,19,1,0.6,0.4,0.8,0.2,1,0,,,,,,,,,,,,,,,,,,,,,,,,,,,,,,,,,,,,
,,612f7826436df8fb008c4f0d,66daf5b9d426239ab21a7a3a,2024-09-06_14h36.50.116,mdp,2024.2.1,Win32,59.88023952,66d7945b1baad48e845df3ce,,,,,,,,,,,,,,,,,,,,,518.91,518.9101,518.9116,521.2776,1,0,right,1.8389,,521.2791,521.2807,,0,,521.2819,521.2835,,0,,1,521.2835,521.2835,521.2847,522.7764,0,20,20,20,1,0.6,0.4,0.8,0.2,1,0,,,,,,,,,,,,,,,,,,,,,,,,,,,,,,,,,,,,
,,612f7826436df8fb008c4f0d,66daf5b9d426239ab21a7a3a,2024-09-06_14h36.50.116,mdp,2024.2.1,Win32,59.88023952,66d7945b1baad48e845df3ce,,,,,,,,,,,,,,,,,,,,,522.7783,522.7784,522.7802,525.7277,1,0,right,2.4287,,525.7316,525.733,,1,,525.7344,525.736,,0,,1,525.736,525.736,525.7375,527.2283,0,21,21,21,1,0.8,0.2,0.6,0.4,1,0,,,,,,,,,,,,,,,,,,,,,,,,,,,,,,,,,,,,
,,612f7826436df8fb008c4f0d,66daf5b9d426239ab21a7a3a,2024-09-06_14h36.50.116,mdp,2024.2.1,Win32,59.88023952,66d7945b1baad48e845df3ce,,,,,,,,,,,,,,,,,,,,,527.2294,527.2294,527.2323,529.1632,0,0,left,1.4023,,529.166,529.1674,,0,,529.1687,529.1699,,0,,1,529.17,529.17,529.171,530.6635,0,22,22,22,1,0.8,0.2,0.6,0.4,1,0,,,,,,,,,,,,,,,,,,,,,,,,,,,,,,,,,,,,
,,612f7826436df8fb008c4f0d,66daf5b9d426239ab21a7a3a,2024-09-06_14h36.50.116,mdp,2024.2.1,Win32,59.88023952,66d7945b1baad48e845df3ce,,,,,,,,,,,,,,,,,,,,,530.6652,530.6652,530.6671,532.1478,0,0,left,0.9546,,532.1507,532.1523,,0,,532.1536,532.1549,,1,,1,532.1549,532.1549,532.156,533.6478,0,23,23,23,1,0.8,0.2,0.6,0.4,1,0,,,,,,,,,,,,,,,,,,,,,,,,,,,,,,,,,,,,
,,612f7826436df8fb008c4f0d,66daf5b9d426239ab21a7a3a,2024-09-06_14h36.50.116,mdp,2024.2.1,Win32,59.88023952,66d7945b1baad48e845df3ce,,,,,,,,,,,,,,,,,,,,,533.6487,533.6487,533.6518,534.883,1,0,right,0.7118,,534.8862,534.8876,,1,,534.8889,534.8902,,0,,1,534.8902,534.8902,534.8913,536.3826,0,24,24,24,1,0.8,0.2,0.6,0.4,1,0,,,,,,,,,,,,,,,,,,,,,,,,,,,,,,,,,,,,
,,612f7826436df8fb008c4f0d,66daf5b9d426239ab21a7a3a,2024-09-06_14h36.50.116,mdp,2024.2.1,Win32,59.88023952,66d7945b1baad48e845df3ce,,,,,,,,,,,,,,,,,,,,,536.3844,536.3844,536.3864,537.3667,0,0,left,0.4525,,537.3699,537.3713,,0,,537.3726,537.3738,,0,,1,537.3739,537.3739,537.375,538.8666,0,25,25,25,1,0.8,0.2,0.6,0.4,1,0,,,,,,,,,,,,,,,,,,,,,,,,,,,,,,,,,,,,
,,612f7826436df8fb008c4f0d,66daf5b9d426239ab21a7a3a,2024-09-06_14h36.50.116,mdp,2024.2.1,Win32,59.88023952,66d7945b1baad48e845df3ce,,,,,,,,,,,,,,,,,,,,,538.8686,538.8686,538.8705,539.9511,1,1,right,0.5523,,539.954,539.9551,,0,,539.9566,539.958,,1,,0,539.958,539.958,539.9593,541.4516,0,26,26,26,1,0.6,0.4,0.4,0.6,1,0,,,,,,,,,,,,,,,,,,,,,,,,,,,,,,,,,,,,
,,612f7826436df8fb008c4f0d,66daf5b9d426239ab21a7a3a,2024-09-06_14h36.50.116,mdp,2024.2.1,Win32,59.88023952,66d7945b1baad48e845df3ce,,,,,,,,,,,,,,,,,,,,,541.4534,541.4534,541.4553,542.5855,0,1,left,0.6014,,542.5887,542.5904,,0,,542.5919,542.5931,,1,,0,542.5932,542.5932,542.5942,544.0858,0,27,27,27,1,0.6,0.4,0.4,0.6,1,0,,,,,,,,,,,,,,,,,,,,,,,,,,,,,,,,,,,,
,,612f7826436df8fb008c4f0d,66daf5b9d426239ab21a7a3a,2024-09-06_14h36.50.116,mdp,2024.2.1,Win32,59.88023952,66d7945b1baad48e845df3ce,,,,,,,,,,,,,,,,,,,,,544.088,544.088,544.09,545.2404,1,0,right,0.6314,,545.2419,545.2434,,1,,545.2447,545.246,,1,,1,545.2462,545.2462,545.2473,546.7373,0,28,28,28,1,0.6,0.4,0.4,0.6,1,0,,,,,,,,,,,,,,,,,,,,,,,,,,,,,,,,,,,,
,,612f7826436df8fb008c4f0d,66daf5b9d426239ab21a7a3a,2024-09-06_14h36.50.116,mdp,2024.2.1,Win32,59.88023952,66d7945b1baad48e845df3ce,,,,,,,,,,,,,,,,,,,,,546.739,546.7391,546.741,547.8884,1,1,right,0.6204,,547.8914,547.8926,,1,,547.8942,547.8955,,1,,0,547.8955,547.8955,547.8966,549.3884,0,29,29,29,1,0.6,0.4,0.4,0.6,1,0,,,,,,,,,,,,,,,,,,,,,,,,,,,,,,,,,,,,
,,612f7826436df8fb008c4f0d,66daf5b9d426239ab21a7a3a,2024-09-06_14h36.50.116,mdp,2024.2.1,Win32,59.88023952,66d7945b1baad48e845df3ce,,,,,,,,,,,,,,,,,,,,,549.3901,549.3901,549.3921,551.4399,0,1,left,1.5199,,551.4427,551.4439,,0,,551.4452,551.4466,,0,,0,551.4466,551.4466,551.4481,552.94,0,30,30,30,1,0.6,0.4,0.4,0.6,1,0,,,,,,,,,,,,,,,,,,,,,,,,,,,,,,,,,,,,
,,612f7826436df8fb008c4f0d,66daf5b9d426239ab21a7a3a,2024-09-06_14h36.50.116,mdp,2024.2.1,Win32,59.88023952,66d7945b1baad48e845df3ce,,,,,,,,,,,,,,,,,,,,,552.9418,552.9418,552.9437,569.8476,1,0,right,16.3719,,569.8637,569.8662,,0,,569.8675,569.8687,,1,,1,569.8687,569.8687,569.8702,571.3646,0,31,31,31,1,0.6,0.4,0.4,0.6,1,0,,,,,,,,,,,,,,,,,,,,,,,,,,,,,,,,,,,,
,,612f7826436df8fb008c4f0d,66daf5b9d426239ab21a7a3a,2024-09-06_14h36.50.116,mdp,2024.2.1,Win32,59.88023952,66d7945b1baad48e845df3ce,,,,,,,,,,,,,,,,,,,,,571.3667,571.3667,571.3691,572.5327,1,1,right,0.6355,,572.5355,572.5367,,1,,572.5382,572.5398,,0,,0,572.5399,572.5399,572.541,574.031,0,32,32,32,1,0.6,0.4,0.4,0.6,1,0,,,,,,,,,,,,,,,,,,,,,,,,,,,,,,,,,,,,
,,612f7826436df8fb008c4f0d,66daf5b9d426239ab21a7a3a,2024-09-06_14h36.50.116,mdp,2024.2.1,Win32,59.88023952,66d7945b1baad48e845df3ce,,,,,,,,,,,,,,,,,,,,,574.0332,574.0334,574.0368,574.9835,0,0,left,0.4231,,574.9864,574.9877,,0,,574.9891,574.9905,,1,,1,574.9906,574.9906,574.992,576.4843,0,33,33,33,1,0.6,0.4,0.4,0.6,1,0,,,,,,,,,,,,,,,,,,,,,,,,,,,,,,,,,,,,
,,612f7826436df8fb008c4f0d,66daf5b9d426239ab21a7a3a,2024-09-06_14h36.50.116,mdp,2024.2.1,Win32,59.88023952,66d7945b1baad48e845df3ce,,,,,,,,,,,,,,,,,,,,,576.4857,576.4857,576.4876,578.0019,0,0,left,0.9853,,578.0047,578.006,,1,,578.0074,578.0086,,1,,1,578.0086,578.0087,578.0097,579.5021,0,34,34,34,1,0.6,0.4,0.4,0.6,1,0,,,,,,,,,,,,,,,,,,,,,,,,,,,,,,,,,,,,
,,612f7826436df8fb008c4f0d,66daf5b9d426239ab21a7a3a,2024-09-06_14h36.50.116,mdp,2024.2.1,Win32,59.88023952,66d7945b1baad48e845df3ce,,,,,,,,,,,,,,,,,,,,,579.5045,579.5046,579.5059,581.5529,0,0,left,1.5198,,581.5561,581.5578,,0,,581.5595,581.561,,0,,1,581.5612,581.5612,581.5627,583.0534,0,35,35,35,1,0.8,0.2,0.2,0.8,1,0,,,,,,,,,,,,,,,,,,,,,,,,,,,,,,,,,,,,
,,612f7826436df8fb008c4f0d,66daf5b9d426239ab21a7a3a,2024-09-06_14h36.50.116,mdp,2024.2.1,Win32,59.88023952,66d7945b1baad48e845df3ce,,,,,,,,,,,,,,,,,,,,,583.0549,583.0549,583.0572,584.3545,1,1,right,0.7695,,584.3575,584.3591,,1,,584.3606,584.3617,,0,,0,584.3618,584.3618,584.3629,585.8549,0,36,36,36,1,0.8,0.2,0.2,0.8,1,0,,,,,,,,,,,,,,,,,,,,,,,,,,,,,,,,,,,,
,,612f7826436df8fb008c4f0d,66daf5b9d426239ab21a7a3a,2024-09-06_14h36.50.116,mdp,2024.2.1,Win32,59.88023952,66d7945b1baad48e845df3ce,,,,,,,,,,,,,,,,,,,,,585.8562,585.8563,585.8582,587.2718,1,1,right,0.8859,,587.275,587.2765,,0,,587.2777,587.279,,1,,0,587.279,587.279,587.2803,588.7728,0,37,37,37,1,0.8,0.2,0.2,0.8,1,0,,,,,,,,,,,,,,,,,,,,,,,,,,,,,,,,,,,,
,,612f7826436df8fb008c4f0d,66daf5b9d426239ab21a7a3a,2024-09-06_14h36.50.116,mdp,2024.2.1,Win32,59.88023952,66d7945b1baad48e845df3ce,,,,,,,,,,,,,,,,,,,,,588.7745,588.7745,588.7765,590.8907,1,1,right,1.5854,,590.8936,590.8951,,1,,590.8967,590.8983,,1,,0,590.8983,590.8983,590.9007,592.3907,0,38,38,38,1,0.8,0.2,0.2,0.8,1,0,,,,,,,,,,,,,,,,,,,,,,,,,,,,,,,,,,,,
,,612f7826436df8fb008c4f0d,66daf5b9d426239ab21a7a3a,2024-09-06_14h36.50.116,mdp,2024.2.1,Win32,59.88023952,66d7945b1baad48e845df3ce,,,,,,,,,,,,,,,,,,,,,592.3925,592.3925,592.3945,593.2583,0,0,left,0.3427,,593.2612,593.2628,,0,,593.2645,593.2658,,1,,1,593.2658,593.2658,593.267,594.7585,0,39,39,39,1,0.8,0.2,0.2,0.8,1,0,,,,,,,,,,,,,,,,,,,,,,,,,,,,,,,,,,,,
,,612f7826436df8fb008c4f0d,66daf5b9d426239ab21a7a3a,2024-09-06_14h36.50.116,mdp,2024.2.1,Win32,59.88023952,66d7945b1baad48e845df3ce,,,,,,,,,,,,,,,,,,,,,594.7606,594.7606,594.7641,596.5098,1,1,right,1.2249,,596.5127,596.5139,,1,,596.5151,596.5163,,1,,0,596.5163,596.5163,596.5174,598.0097,0,40,40,40,1,0.8,0.2,0.2,0.8,1,0,,,,,,,,,,,,,,,,,,,,,,,,,,,,,,,,,,,,
,,612f7826436df8fb008c4f0d,66daf5b9d426239ab21a7a3a,2024-09-06_14h36.50.116,mdp,2024.2.1,Win32,59.88023952,66d7945b1baad48e845df3ce,,,,,,,,,,,,,,,,,,,,,598.0117,598.0117,598.0136,599.0769,1,1,right,0.5369,,599.08,599.0813,,1,,599.0826,599.0839,,1,,0,599.0839,599.0839,599.0851,600.577,0,41,41,41,1,0.8,0.2,0.2,0.8,1,0,,,,,,,,,,,,,,,,,,,,,,,,,,,,,,,,,,,,
,,612f7826436df8fb008c4f0d,66daf5b9d426239ab21a7a3a,2024-09-06_14h36.50.116,mdp,2024.2.1,Win32,59.88023952,66d7945b1baad48e845df3ce,,,,,,,,,,,,,,,,,,,,,600.578,600.578,600.5807,601.4787,0,0,left,0.3697,,601.4817,601.4828,,1,,601.4841,601.4853,,0,,1,601.4853,601.4854,601.4865,602.9786,0,42,42,42,1,0.4,0.6,0.8,0.2,1,0,,,,,,,,,,,,,,,,,,,,,,,,,,,,,,,,,,,,
,,612f7826436df8fb008c4f0d,66daf5b9d426239ab21a7a3a,2024-09-06_14h36.50.116,mdp,2024.2.1,Win32,59.88023952,66d7945b1baad48e845df3ce,,,,,,,,,,,,,,,,,,,,,602.9805,602.9806,602.9825,604.1465,0,1,left,0.6349,,604.1495,604.1507,,0,,604.1521,604.1532,,1,,0,604.1533,604.1533,604.1544,605.6472,0,43,43,43,1,0.4,0.6,0.8,0.2,1,0,,,,,,,,,,,,,,,,,,,,,,,,,,,,,,,,,,,,
,,612f7826436df8fb008c4f0d,66daf5b9d426239ab21a7a3a,2024-09-06_14h36.50.116,mdp,2024.2.1,Win32,59.88023952,66d7945b1baad48e845df3ce,,,,,,,,,,,,,,,,,,,,,605.649,605.649,605.6509,606.8311,0,0,left,0.6521,,606.834,606.8352,,1,,606.8365,606.8378,,1,,1,606.8379,606.8379,606.8395,608.3312,0,44,44,44,1,0.4,0.6,0.8,0.2,1,0,,,,,,,,,,,,,,,,,,,,,,,,,,,,,,,,,,,,
,,612f7826436df8fb008c4f0d,66daf5b9d426239ab21a7a3a,2024-09-06_14h36.50.116,mdp,2024.2.1,Win32,59.88023952,66d7945b1baad48e845df3ce,,,,,,,,,,,,,,,,,,,,,608.333,608.3331,608.3349,609.6981,1,0,right,0.8412,,609.7013,609.7029,,0,,609.7044,609.7057,,0,,1,609.7058,609.7058,609.7071,611.1991,0,45,45,45,1,0.4,0.6,0.8,0.2,1,0,,,,,,,,,,,,,,,,,,,,,,,,,,,,,,,,,,,,
,,612f7826436df8fb008c4f0d,66daf5b9d426239ab21a7a3a,2024-09-06_14h36.50.116,mdp,2024.2.1,Win32,59.88023952,66d7945b1baad48e845df3ce,,,,,,,,,,,,,,,,,,,,,611.2001,611.2001,611.203,612.5014,1,0,right,0.7707,,612.5035,612.5047,,0,,612.5059,612.5071,,1,,1,612.5071,612.5071,612.5085,614.0001,0,46,46,46,1,0.4,0.6,0.8,0.2,1,0,,,,,,,,,,,,,,,,,,,,,,,,,,,,,,,,,,,,
,,612f7826436df8fb008c4f0d,66daf5b9d426239ab21a7a3a,2024-09-06_14h36.50.116,mdp,2024.2.1,Win32,59.88023952,66d7945b1baad48e845df3ce,,,,,,,,,,,,,,,,,,,,,614.0024,614.0024,614.0041,615.3347,1,1,right,0.8072,,615.3381,615.3397,,0,,615.3415,615.343,,0,,0,615.343,615.343,615.3464,616.8346,0,47,47,47,1,0.4,0.6,0.8,0.2,1,0,,,,,,,,,,,,,,,,,,,,,,,,,,,,,,,,,,,,
,,612f7826436df8fb008c4f0d,66daf5b9d426239ab21a7a3a,2024-09-06_14h36.50.116,mdp,2024.2.1,Win32,59.88023952,66d7945b1baad48e845df3ce,,,,,,,,,,,,,,,,,,,,,616.8355,616.8356,616.8383,617.9694,0,1,left,0.6019,,617.9723,617.9734,,0,,617.9752,617.9768,,1,,0,617.9768,617.9768,617.9786,619.4696,0,48,48,48,1,0.4,0.6,0.8,0.2,1,0,,,,,,,,,,,,,,,,,,,,,,,,,,,,,,,,,,,,
,,612f7826436df8fb008c4f0d,66daf5b9d426239ab21a7a3a,2024-09-06_14h36.50.116,mdp,2024.2.1,Win32,59.88023952,66d7945b1baad48e845df3ce,,,,,,,,,,,,,,,,,,,,,619.4713,619.4713,619.4733,621.9719,0,0,left,1.9703,,621.9893,621.9906,,0,,621.9918,621.993,,0,,1,621.993,621.993,621.9942,623.4886,0,49,49,49,1,0.6,0.4,0.4,0.6,1,0,,,,,,,,,,,,,,,,,,,,,,,,,,,,,,,,,,,,
,,612f7826436df8fb008c4f0d,66daf5b9d426239ab21a7a3a,2024-09-06_14h36.50.116,mdp,2024.2.1,Win32,59.88023952,66d7945b1baad48e845df3ce,,,,,,,,,,,,,,,,,,,,,,,,,,,,,,,,,,,,,,,,,,,,,,,,,,,,,,,,623.4904,672.1805,0,0,0,3,1,imgs/cat.png,imgs/dog.png,imgs/kangaroo.png,imgs/goat.png,imgs/giraffe.png,,,,,,,,,,,,,,,,,,,,,,,,
,,612f7826436df8fb008c4f0d,66daf5b9d426239ab21a7a3a,2024-09-06_14h36.50.116,mdp,2024.2.1,Win32,59.88023952,66d7945b1baad48e845df3ce,,,,,,,,,,,,,,2,seqs/st2seq23.csv,672.2108,674.4279,space,1.7033,,674.4375,674.4375,674.4393,677.6494,0,0,left,2.6603,,677.6509,684.3493,0,1,left,684.3647,684.3661,,1,,0,684.3662,684.3662,684.3679,685.8668,0,0,0,0,1,0.6,0.4,0.4,0.6,,,,,,,,,,,,,,,6.1309,,0.2,0.8,0.6,0.4,0.6,0.4,0.8,0.2,1,0,,,,,,,,,,,,
,,612f7826436df8fb008c4f0d,66daf5b9d426239ab21a7a3a,2024-09-06_14h36.50.116,mdp,2024.2.1,Win32,59.88023952,66d7945b1baad48e845df3ce,,,,,,,,,,,,,,,,,,,,,685.8679,685.868,685.8696,686.4844,1,1,right,0.0891,,686.4859,689.7859,1,0,right,689.7874,689.7889,,1,,1,689.7889,689.7889,689.7901,691.2859,0,1,1,1,1,0.6,0.4,0.4,0.6,,,,,,,,,,,,,,,2.7563,,0.2,0.8,0.6,0.4,0.4,0.6,0.2,0.8,1,0,,,,,,,,,,,,
,,612f7826436df8fb008c4f0d,66daf5b9d426239ab21a7a3a,2024-09-06_14h36.50.116,mdp,2024.2.1,Win32,59.88023952,66d7945b1baad48e845df3ce,,,,,,,,,,,,,,,,,,,,,691.2867,691.2868,691.2882,693.7053,1,0,right,1.8981,,693.7069,696.4226,0,1,left,696.4375,696.439,,1,,0,696.439,696.439,696.4403,697.9386,0,2,2,2,1,0.6,0.4,0.4,0.6,,,,,,,,,,,,,,,2.1831,,0.2,0.8,0.6,0.4,0.4,0.6,0.2,0.8,1,0,,,,,,,,,,,,
,,612f7826436df8fb008c4f0d,66daf5b9d426239ab21a7a3a,2024-09-06_14h36.50.116,mdp,2024.2.1,Win32,59.88023952,66d7945b1baad48e845df3ce,,,,,,,,,,,,,,,,,,,,,697.9404,697.9404,697.9421,699.4904,1,1,right,1.0288,,699.4933,701.907,0,0,left,701.9105,701.9125,,0,,1,701.9126,701.9126,701.9141,703.4067,0,3,3,3,1,0.6,0.4,0.4,0.6,,,,,,,,,,,,,,,1.8873,,0.2,0.8,0.6,0.4,0.2,0.8,0.6,0.4,1,0,,,,,,,,,,,,
,,612f7826436df8fb008c4f0d,66daf5b9d426239ab21a7a3a,2024-09-06_14h36.50.116,mdp,2024.2.1,Win32,59.88023952,66d7945b1baad48e845df3ce,,,,,,,,,,,,,,,,,,,,,703.4087,703.4087,703.4107,705.2417,1,0,right,1.302,,705.2446,707.7431,0,1,left,707.746,707.7471,,1,,0,707.7472,707.7472,707.7485,709.2432,0,4,4,4,1,0.6,0.4,0.4,0.6,,,,,,,,,,,,,,,1.9593,,0.2,0.8,0.6,0.4,0.2,0.8,0.6,0.4,1,0,,,,,,,,,,,,
,,612f7826436df8fb008c4f0d,66daf5b9d426239ab21a7a3a,2024-09-06_14h36.50.116,mdp,2024.2.1,Win32,59.88023952,66d7945b1baad48e845df3ce,,,,,,,,,,,,,,,,,,,,,709.2446,709.2447,709.2468,710.1299,1,1,right,0.3644,,710.1316,711.2775,1,0,right,711.2806,711.2821,,0,,1,711.2822,711.2822,711.2836,712.7786,0,5,5,5,1,0.6,0.4,0.4,0.6,,,,,,,,,,,,,,,0.6116,,0.2,0.8,0.6,0.4,0.2,0.8,0.6,0.4,1,0,,,,,,,,,,,,
,,612f7826436df8fb008c4f0d,66daf5b9d426239ab21a7a3a,2024-09-06_14h36.50.116,mdp,2024.2.1,Win32,59.88023952,66d7945b1baad48e845df3ce,,,,,,,,,,,,,,,,,,,,,712.7802,712.7803,712.7822,714.0466,0,0,left,0.7449,,714.0496,715.2127,1,0,right,715.2154,715.2167,,1,,1,715.2167,715.2167,715.2181,716.7122,0,6,6,6,1,0.6,0.4,0.4,0.6,,,,,,,,,,,,,,,0.6229,,0.2,0.8,0.6,0.4,0.2,0.8,0.6,0.4,1,0,,,,,,,,,,,,
,,612f7826436df8fb008c4f0d,66daf5b9d426239ab21a7a3a,2024-09-06_14h36.50.116,mdp,2024.2.1,Win32,59.88023952,66d7945b1baad48e845df3ce,,,,,,,,,,,,,,,,,,,,,716.7142,716.7143,716.7162,717.9976,0,0,left,0.7544,,718.0004,719.0146,1,0,right,719.0174,719.0186,,0,,1,719.0187,719.0187,719.0199,720.5146,0,7,7,7,1,0.6,0.4,0.4,0.6,,,,,,,,,,,,,,,0.49,,0.2,0.8,0.6,0.4,0.2,0.8,0.6,0.4,1,0,,,,,,,,,,,,
,,612f7826436df8fb008c4f0d,66daf5b9d426239ab21a7a3a,2024-09-06_14h36.50.116,mdp,2024.2.1,Win32,59.88023952,66d7945b1baad48e845df3ce,,,,,,,,,,,,,,,,,,,,,720.5166,720.5166,720.5185,721.4486,0,0,left,0.4009,,721.4518,723.1163,0,1,left,723.1192,723.1203,,0,,0,723.1204,723.1204,723.1216,724.6167,0,8,8,8,1,0.6,0.4,0.4,0.6,,,,,,,,,,,,,,,1.1412,,0.2,0.8,0.6,0.4,0.2,0.8,0.6,0.4,1,0,,,,,,,,,,,,
,,612f7826436df8fb008c4f0d,66daf5b9d426239ab21a7a3a,2024-09-06_14h36.50.116,mdp,2024.2.1,Win32,59.88023952,66d7945b1baad48e845df3ce,,,,,,,,,,,,,,,,,,,,,724.6188,724.6188,724.6207,725.3676,1,0,right,0.2187,,725.3704,726.267,1,1,right,726.2702,726.2716,,1,,0,726.2717,726.2717,726.2735,727.7688,0,9,9,9,1,0.6,0.4,0.4,0.6,,,,,,,,,,,,,,,0.3733,,0.2,0.8,0.6,0.4,0.2,0.8,0.6,0.4,1,0,,,,,,,,,,,,
,,612f7826436df8fb008c4f0d,66daf5b9d426239ab21a7a3a,2024-09-06_14h36.50.116,mdp,2024.2.1,Win32,59.88023952,66d7945b1baad48e845df3ce,,,,,,,,,,,,,,,,,,,,,727.7702,727.7702,727.7721,728.6857,1,0,right,0.3869,,728.6884,729.6191,0,1,left,729.6222,729.6236,,1,,0,729.6238,729.6238,729.6249,731.1435,0,10,10,10,1,0.6,0.4,0.4,0.6,,,,,,,,,,,,,,,0.4021,,0.2,0.8,0.6,0.4,0.2,0.8,0.6,0.4,1,0,,,,,,,,,,,,
,,612f7826436df8fb008c4f0d,66daf5b9d426239ab21a7a3a,2024-09-06_14h36.50.116,mdp,2024.2.1,Win32,59.88023952,66d7945b1baad48e845df3ce,,,,,,,,,,,,,,,,,,,,,731.1446,731.1446,731.1569,769.2205,0,0,left,1.5132,,769.2359,770.7046,0,1,left,770.7075,770.7087,,1,,0,770.7087,770.7087,770.71,772.2117,0,11,11,11,1,0.6,0.4,0.4,0.6,,,,,,,,,,,,,,,0.9527,,0.2,0.8,0.6,0.4,0.2,0.8,0.6,0.4,1,0,,,,,,,,,,,,
,,612f7826436df8fb008c4f0d,66daf5b9d426239ab21a7a3a,2024-09-06_14h36.50.116,mdp,2024.2.1,Win32,59.88023952,66d7945b1baad48e845df3ce,,,,,,,,,,,,,,,,,,,,,772.2128,772.2128,772.2155,772.9052,1,1,right,0.171,,772.9082,773.722,1,0,right,773.7252,773.7264,,1,,1,773.7264,773.7264,773.7277,775.221,0,12,12,12,1,0.6,0.4,0.4,0.6,,,,,,,,,,,,,,,0.2733,,0.2,0.8,0.6,0.4,0.2,0.8,0.6,0.4,1,0,,,,,,,,,,,,
,,612f7826436df8fb008c4f0d,66daf5b9d426239ab21a7a3a,2024-09-06_14h36.50.116,mdp,2024.2.1,Win32,59.88023952,66d7945b1baad48e845df3ce,,,,,,,,,,,,,,,,,,,,,775.2237,775.2237,775.2265,776.7736,1,0,right,1.0192,,776.7769,778.2434,1,1,right,778.2459,778.2478,,0,,0,778.2479,778.2479,778.2506,779.741,0,13,13,13,1,0.6,0.4,0.4,0.6,,,,,,,,,,,,,,,0.908,,0.2,0.8,0.6,0.4,0.2,0.8,0.6,0.4,1,0,,,,,,,,,,,,
,,612f7826436df8fb008c4f0d,66daf5b9d426239ab21a7a3a,2024-09-06_14h36.50.116,mdp,2024.2.1,Win32,59.88023952,66d7945b1baad48e845df3ce,,,,,,,,,,,,,,,,,,,,,779.743,779.743,779.7449,780.8601,1,0,right,0.5906,,780.8621,781.9093,0,1,left,781.9121,781.9132,,1,,0,781.9133,781.9133,781.9148,783.4092,0,14,14,14,1,0.6,0.4,0.4,0.6,,,,,,,,,,,,,,,0.5173,,0.2,0.8,0.6,0.4,0.2,0.8,0.6,0.4,1,0,,,,,,,,,,,,
,,612f7826436df8fb008c4f0d,66daf5b9d426239ab21a7a3a,2024-09-06_14h36.50.116,mdp,2024.2.1,Win32,59.88023952,66d7945b1baad48e845df3ce,,,,,,,,,,,,,,,,,,,,,783.4101,783.4102,783.413,784.299,1,1,right,0.3353,,784.301,785.2272,1,0,right,785.2303,785.2315,,1,,1,785.2316,785.2316,785.2327,786.7277,0,15,15,15,1,0.6,0.4,0.4,0.6,,,,,,,,,,,,,,,0.4,,0.2,0.8,0.6,0.4,0.2,0.8,0.6,0.4,1,0,,,,,,,,,,,,
,,612f7826436df8fb008c4f0d,66daf5b9d426239ab21a7a3a,2024-09-06_14h36.50.116,mdp,2024.2.1,Win32,59.88023952,66d7945b1baad48e845df3ce,,,,,,,,,,,,,,,,,,,,,786.7297,786.7297,786.7316,787.7443,0,1,left,0.492,,787.7475,788.6957,1,0,right,788.6985,788.6997,,0,,1,788.6997,788.6997,788.701,790.196,0,16,16,16,1,0.6,0.4,0.4,0.6,,,,,,,,,,,,,,,0.4187,,0.2,0.8,0.6,0.4,0.2,0.8,0.6,0.4,1,0,,,,,,,,,,,,
,,612f7826436df8fb008c4f0d,66daf5b9d426239ab21a7a3a,2024-09-06_14h36.50.116,mdp,2024.2.1,Win32,59.88023952,66d7945b1baad48e845df3ce,,,,,,,,,,,,,,,,,,,,,790.1977,790.1977,790.1997,791.7469,0,0,left,1.0208,,791.7503,792.6807,1,0,right,792.6834,792.6845,,0,,1,792.6846,792.6846,792.6858,794.1814,0,17,17,17,1,0.6,0.4,0.4,0.6,,,,,,,,,,,,,,,0.3967,,0.2,0.8,0.6,0.4,0.2,0.8,0.6,0.4,1,0,,,,,,,,,,,,
,,612f7826436df8fb008c4f0d,66daf5b9d426239ab21a7a3a,2024-09-06_14h36.50.116,mdp,2024.2.1,Win32,59.88023952,66d7945b1baad48e845df3ce,,,,,,,,,,,,,,,,,,,,,794.1828,794.1828,794.1847,794.9147,0,0,left,0.2113,,794.9182,795.7653,1,0,right,795.7681,795.7695,,0,,1,795.7695,795.7695,795.771,797.2661,0,18,18,18,1,0.6,0.4,0.4,0.6,,,,,,,,,,,,,,,0.3175,,0.2,0.8,0.6,0.4,0.2,0.8,0.6,0.4,1,0,,,,,,,,,,,,
,,612f7826436df8fb008c4f0d,66daf5b9d426239ab21a7a3a,2024-09-06_14h36.50.116,mdp,2024.2.1,Win32,59.88023952,66d7945b1baad48e845df3ce,,,,,,,,,,,,,,,,,,,,,797.2675,797.2675,797.2695,798.0853,0,0,left,0.2894,,798.0876,798.9002,1,0,right,798.9031,798.9044,,1,,1,798.9044,798.9044,798.9056,800.4004,0,19,19,19,1,0.6,0.4,0.4,0.6,,,,,,,,,,,,,,,0.2886,,0.2,0.8,0.6,0.4,0.2,0.8,0.6,0.4,1,0,,,,,,,,,,,,
,,612f7826436df8fb008c4f0d,66daf5b9d426239ab21a7a3a,2024-09-06_14h36.50.116,mdp,2024.2.1,Win32,59.88023952,66d7945b1baad48e845df3ce,,,,,,,,,,,,,,,,,,,,,800.4022,800.4022,800.4043,801.6182,1,1,right,0.6846,,801.621,802.4682,0,1,left,802.471,802.4724,,1,,0,802.4725,802.4725,802.4737,803.9685,0,20,20,20,1,0.6,0.4,0.4,0.6,,,,,,,,,,,,,,,0.3141,,0.2,0.8,0.6,0.4,0.4,0.6,0.8,0.2,1,0,,,,,,,,,,,,
,,612f7826436df8fb008c4f0d,66daf5b9d426239ab21a7a3a,2024-09-06_14h36.50.116,mdp,2024.2.1,Win32,59.88023952,66d7945b1baad48e845df3ce,,,,,,,,,,,,,,,,,,,,,803.9706,803.9706,803.9726,804.656,1,1,right,0.1645,,804.6577,805.5699,1,0,right,805.5729,805.5742,,0,,1,805.5742,805.5742,805.5754,807.0698,0,21,21,21,1,0.6,0.4,0.4,0.6,,,,,,,,,,,,,,,0.39,,0.2,0.8,0.6,0.4,0.4,0.6,0.8,0.2,1,0,,,,,,,,,,,,
,,612f7826436df8fb008c4f0d,66daf5b9d426239ab21a7a3a,2024-09-06_14h36.50.116,mdp,2024.2.1,Win32,59.88023952,66d7945b1baad48e845df3ce,,,,,,,,,,,,,,,,,,,,,807.0717,807.0717,807.0738,807.6882,1,1,right,0.0879,,807.6908,808.8882,0,1,left,808.8914,808.8926,,0,,0,808.8926,808.8927,808.894,810.3879,0,22,22,22,1,0.6,0.4,0.4,0.6,,,,,,,,,,,,,,,0.6695,,0.2,0.8,0.6,0.4,0.4,0.6,0.8,0.2,1,0,,,,,,,,,,,,
,,612f7826436df8fb008c4f0d,66daf5b9d426239ab21a7a3a,2024-09-06_14h36.50.116,mdp,2024.2.1,Win32,59.88023952,66d7945b1baad48e845df3ce,,,,,,,,,,,,,,,,,,,,,810.3898,810.3898,810.3919,811.3558,0,1,left,0.4358,,811.3586,812.2395,0,1,left,812.2424,812.2435,,1,,0,812.2437,812.2437,812.2449,813.7395,0,23,23,23,1,0.6,0.4,0.4,0.6,,,,,,,,,,,,,,,0.353,,0.2,0.8,0.6,0.4,0.4,0.6,0.8,0.2,1,0,,,,,,,,,,,,
,,612f7826436df8fb008c4f0d,66daf5b9d426239ab21a7a3a,2024-09-06_14h36.50.116,mdp,2024.2.1,Win32,59.88023952,66d7945b1baad48e845df3ce,,,,,,,,,,,,,,,,,,,,,813.7413,813.7413,813.7432,814.3905,1,1,right,0.1248,,814.3933,815.2741,1,1,right,815.2769,815.2781,,0,,0,815.2782,815.2782,815.2795,816.7741,0,24,24,24,1,0.6,0.4,0.4,0.6,,,,,,,,,,,,,,,0.3558,,0.2,0.8,0.6,0.4,0.4,0.6,0.8,0.2,1,0,,,,,,,,,,,,
,,612f7826436df8fb008c4f0d,66daf5b9d426239ab21a7a3a,2024-09-06_14h36.50.116,mdp,2024.2.1,Win32,59.88023952,66d7945b1baad48e845df3ce,,,,,,,,,,,,,,,,,,,,,816.7763,816.7763,816.7783,817.4752,1,1,right,0.169,,817.4779,818.0419,1,0,right,818.0448,818.046,,0,,1,818.046,818.0461,818.0473,819.5428,0,25,25,25,1,0.6,0.4,0.4,0.6,,,,,,,,,,,,,,,0.0389,,0.2,0.8,0.6,0.4,0.4,0.6,0.8,0.2,1,0,,,,,,,,,,,,
,,612f7826436df8fb008c4f0d,66daf5b9d426239ab21a7a3a,2024-09-06_14h36.50.116,mdp,2024.2.1,Win32,59.88023952,66d7945b1baad48e845df3ce,,,,,,,,,,,,,,,,,,,,,819.5443,819.5443,819.5462,820.2095,1,0,right,0.1382,,820.2126,821.6938,1,0,right,821.6967,821.6986,,1,,1,821.6987,821.6987,821.6999,823.1937,0,26,26,26,1,0.6,0.4,0.4,0.6,,,,,,,,,,,,,,,0.944,,0.2,0.8,0.6,0.4,0.4,0.6,0.8,0.2,1,0,,,,,,,,,,,,
,,612f7826436df8fb008c4f0d,66daf5b9d426239ab21a7a3a,2024-09-06_14h36.50.116,mdp,2024.2.1,Win32,59.88023952,66d7945b1baad48e845df3ce,,,,,,,,,,,,,,,,,,,,,823.1952,823.1954,823.1976,824.0947,1,1,right,0.3685,,824.098,824.9613,1,0,right,824.9643,824.9656,,0,,1,824.9657,824.9657,824.9671,826.4619,0,27,27,27,1,0.6,0.4,0.4,0.6,,,,,,,,,,,,,,,0.3282,,0.2,0.8,0.6,0.4,0.4,0.6,0.8,0.2,1,0,,,,,,,,,,,,
,,612f7826436df8fb008c4f0d,66daf5b9d426239ab21a7a3a,2024-09-06_14h36.50.116,mdp,2024.2.1,Win32,59.88023952,66d7945b1baad48e845df3ce,,,,,,,,,,,,,,,,,,,,,826.4633,826.4634,826.4659,826.9961,1,1,right,0.001,,826.999,827.8302,0,1,left,827.8331,827.8343,,1,,0,827.8344,827.8344,827.8356,829.3306,0,28,28,28,1,0.6,0.4,0.4,0.6,,,,,,,,,,,,,,,0.3018,,0.2,0.8,0.6,0.4,0.4,0.6,0.8,0.2,1,0,,,,,,,,,,,,
,,612f7826436df8fb008c4f0d,66daf5b9d426239ab21a7a3a,2024-09-06_14h36.50.116,mdp,2024.2.1,Win32,59.88023952,66d7945b1baad48e845df3ce,,,,,,,,,,,,,,,,,,,,,829.3319,829.332,829.3338,830.5153,1,0,right,0.6625,,830.519,831.8655,0,1,left,831.8682,831.8694,,1,,0,831.8695,831.8695,831.8708,833.3723,0,29,29,29,1,0.6,0.4,0.4,0.6,,,,,,,,,,,,,,,0.8101,,0.2,0.8,0.6,0.4,0.4,0.6,0.8,0.2,1,0,,,,,,,,,,,,
,,612f7826436df8fb008c4f0d,66daf5b9d426239ab21a7a3a,2024-09-06_14h36.50.116,mdp,2024.2.1,Win32,59.88023952,66d7945b1baad48e845df3ce,,,,,,,,,,,,,,,,,,,,,833.3826,833.3827,833.3851,846.5748,0,1,left,12.6696,,846.5934,848.7886,0,0,left,848.7921,848.7935,,1,,1,848.7935,848.7935,848.795,850.2898,0,30,30,30,1,0.6,0.4,0.4,0.6,,,,,,,,,,,,,,,1.6768,,0.2,0.8,0.6,0.4,0.4,0.6,0.8,0.2,1,0,,,,,,,,,,,,
,,612f7826436df8fb008c4f0d,66daf5b9d426239ab21a7a3a,2024-09-06_14h36.50.116,mdp,2024.2.1,Win32,59.88023952,66d7945b1baad48e845df3ce,,,,,,,,,,,,,,,,,,,,,850.2912,850.2913,850.2932,851.4941,0,1,left,0.6903,,851.4956,852.7751,0,1,left,852.7774,852.782,,0,,0,852.7821,852.7821,852.7839,854.2746,0,31,31,31,1,0.6,0.4,0.4,0.6,,,,,,,,,,,,,,,0.7628,,0.2,0.8,0.6,0.4,0.4,0.6,0.8,0.2,1,0,,,,,,,,,,,,
,,612f7826436df8fb008c4f0d,66daf5b9d426239ab21a7a3a,2024-09-06_14h36.50.116,mdp,2024.2.1,Win32,59.88023952,66d7945b1baad48e845df3ce,,,,,,,,,,,,,,,,,,,,,854.2763,854.2764,854.2786,855.3081,0,1,left,0.5091,,855.311,856.1758,1,0,right,856.1787,856.1799,,1,,1,856.18,856.18,856.1811,857.676,0,32,32,32,1,0.6,0.4,0.4,0.6,,,,,,,,,,,,,,,0.3355,,0.2,0.8,0.6,0.4,0.2,0.8,0.6,0.4,1,0,,,,,,,,,,,,
,,612f7826436df8fb008c4f0d,66daf5b9d426239ab21a7a3a,2024-09-06_14h36.50.116,mdp,2024.2.1,Win32,59.88023952,66d7945b1baad48e845df3ce,,,,,,,,,,,,,,,,,,,,,857.678,857.678,857.6802,858.6435,0,1,left,0.4406,,858.6465,859.4773,1,0,right,859.48,859.4812,,0,,1,859.4812,859.4812,859.4825,860.9774,0,33,33,33,1,0.4,0.6,0.6,0.4,,,,,,,,,,,,,,,0.3054,,0.2,0.8,0.6,0.4,0.2,0.8,0.6,0.4,1,0,,,,,,,,,,,,
,,612f7826436df8fb008c4f0d,66daf5b9d426239ab21a7a3a,2024-09-06_14h36.50.116,mdp,2024.2.1,Win32,59.88023952,66d7945b1baad48e845df3ce,,,,,,,,,,,,,,,,,,,,,860.9792,860.9792,860.9814,862.4459,0,1,left,0.9287,,862.4486,863.6623,1,0,right,863.6653,863.6666,,0,,1,863.6667,863.6667,863.6679,865.1624,0,34,34,34,1,0.6,0.4,0.4,0.6,,,,,,,,,,,,,,,0.686,,0.2,0.8,0.6,0.4,0.2,0.8,0.6,0.4,1,0,,,,,,,,,,,,
,,612f7826436df8fb008c4f0d,66daf5b9d426239ab21a7a3a,2024-09-06_14h36.50.116,mdp,2024.2.1,Win32,59.88023952,66d7945b1baad48e845df3ce,,,,,,,,,,,,,,,,,,,,,865.1644,865.1644,865.1665,866.8808,0,0,left,1.1919,,866.8837,867.9136,1,1,right,867.9165,867.9182,,1,,0,867.9184,867.9184,867.9195,869.4149,0,35,35,35,1,0.6,0.4,0.4,0.6,,,,,,,,,,,,,,,0.5008,,0.2,0.8,0.6,0.4,0.2,0.8,0.6,0.4,1,0,,,,,,,,,,,,
,,612f7826436df8fb008c4f0d,66daf5b9d426239ab21a7a3a,2024-09-06_14h36.50.116,mdp,2024.2.1,Win32,59.88023952,66d7945b1baad48e845df3ce,,,,,,,,,,,,,,,,,,,,,869.4164,869.4164,869.4183,870.6823,0,1,left,0.7387,,870.6852,871.516,0,1,left,871.5189,871.52,,1,,0,871.5201,871.5201,871.5213,873.0159,0,36,36,36,1,0.6,0.4,0.4,0.6,,,,,,,,,,,,,,,0.2924,,0.2,0.8,0.6,0.4,0.2,0.8,0.6,0.4,1,0,,,,,,,,,,,,
,,612f7826436df8fb008c4f0d,66daf5b9d426239ab21a7a3a,2024-09-06_14h36.50.116,mdp,2024.2.1,Win32,59.88023952,66d7945b1baad48e845df3ce,,,,,,,,,,,,,,,,,,,,,873.0179,873.0179,873.0197,874.0338,0,0,left,0.4857,,874.0367,874.8842,1,1,right,874.8868,874.888,,0,,0,874.8881,874.8881,874.8894,876.3842,0,37,37,37,1,0.6,0.4,0.4,0.6,,,,,,,,,,,,,,,0.3104,,0.2,0.8,0.6,0.4,0.2,0.8,0.6,0.4,1,0,,,,,,,,,,,,
,,612f7826436df8fb008c4f0d,66daf5b9d426239ab21a7a3a,2024-09-06_14h36.50.116,mdp,2024.2.1,Win32,59.88023952,66d7945b1baad48e845df3ce,,,,,,,,,,,,,,,,,,,,,876.3861,876.3862,876.3881,877.985,0,0,left,1.0748,,877.9883,879.0018,0,1,left,879.0051,879.0062,,1,,0,879.0063,879.0063,879.0075,880.502,0,38,38,38,1,0.6,0.4,0.4,0.6,,,,,,,,,,,,,,,0.4915,,0.2,0.8,0.6,0.4,0.2,0.8,0.6,0.4,1,0,,,,,,,,,,,,
,,612f7826436df8fb008c4f0d,66daf5b9d426239ab21a7a3a,2024-09-06_14h36.50.116,mdp,2024.2.1,Win32,59.88023952,66d7945b1baad48e845df3ce,,,,,,,,,,,,,,,,,,,,,880.5039,880.5041,880.5062,881.637,0,1,left,0.6032,,881.6401,882.3708,1,0,right,882.3739,882.3754,,1,,1,882.3755,882.3755,882.377,883.8707,0,39,39,39,1,0.6,0.4,0.4,0.6,,,,,,,,,,,,,,,0.1966,,0.2,0.8,0.6,0.4,0.2,0.8,0.6,0.4,1,0,,,,,,,,,,,,
,,612f7826436df8fb008c4f0d,66daf5b9d426239ab21a7a3a,2024-09-06_14h36.50.116,mdp,2024.2.1,Win32,59.88023952,66d7945b1baad48e845df3ce,,,,,,,,,,,,,,,,,,,,,883.8725,883.8725,883.8744,885.4389,1,0,right,1.0459,,885.4426,886.6394,1,1,right,886.6422,886.6434,,0,,0,886.6435,886.6435,886.6447,888.1394,0,40,40,40,1,0.6,0.4,0.4,0.6,,,,,,,,,,,,,,,0.6577,,0.2,0.8,0.6,0.4,0.2,0.8,0.6,0.4,1,0,,,,,,,,,,,,
,,612f7826436df8fb008c4f0d,66daf5b9d426239ab21a7a3a,2024-09-06_14h36.50.116,mdp,2024.2.1,Win32,59.88023952,66d7945b1baad48e845df3ce,,,,,,,,,,,,,,,,,,,,,888.1414,888.1414,888.1433,889.0071,0,0,left,0.335,,889.0099,889.9583,0,1,left,889.9605,889.9617,,1,,0,889.9617,889.9617,889.9629,891.4591,0,41,41,41,1,0.6,0.4,0.4,0.6,,,,,,,,,,,,,,,0.4184,,0.2,0.8,0.6,0.4,0.2,0.8,0.6,0.4,1,0,,,,,,,,,,,,
,,612f7826436df8fb008c4f0d,66daf5b9d426239ab21a7a3a,2024-09-06_14h36.50.116,mdp,2024.2.1,Win32,59.88023952,66d7945b1baad48e845df3ce,,,,,,,,,,,,,,,,,,,,,891.4602,891.4602,891.4625,892.4253,1,0,right,0.4352,,892.4281,893.2758,1,0,right,893.2787,893.2798,,0,,1,893.2799,893.2799,893.2811,894.7759,0,42,42,42,1,0.6,0.4,0.4,0.6,,,,,,,,,,,,,,,0.3175,,0.2,0.8,0.6,0.4,0.2,0.8,0.6,0.4,1,0,,,,,,,,,,,,
,,612f7826436df8fb008c4f0d,66daf5b9d426239ab21a7a3a,2024-09-06_14h36.50.116,mdp,2024.2.1,Win32,59.88023952,66d7945b1baad48e845df3ce,,,,,,,,,,,,,,,,,,,,,894.7768,894.7769,894.7795,896.1772,1,1,right,0.8685,,896.1799,897.1941,1,0,right,897.1971,897.1984,,0,,1,897.1985,897.1985,897.1999,898.6934,0,43,43,43,1,0.6,0.4,0.4,0.6,,,,,,,,,,,,,,,0.4804,,0.2,0.8,0.6,0.4,0.2,0.8,0.6,0.4,1,0,,,,,,,,,,,,
,,612f7826436df8fb008c4f0d,66daf5b9d426239ab21a7a3a,2024-09-06_14h36.50.116,mdp,2024.2.1,Win32,59.88023952,66d7945b1baad48e845df3ce,,,,,,,,,,,,,,,,,,,,,898.6954,898.6954,898.6973,900.3446,1,1,right,1.1187,,900.3478,901.7619,1,1,right,901.7659,901.7672,,0,,0,901.7672,901.7672,901.7687,903.2631,0,44,44,44,1,0.6,0.4,0.4,0.6,,,,,,,,,,,,,,,0.9052,,0.2,0.8,0.6,0.4,0.2,0.8,0.6,0.4,1,0,,,,,,,,,,,,
,,612f7826436df8fb008c4f0d,66daf5b9d426239ab21a7a3a,2024-09-06_14h36.50.116,mdp,2024.2.1,Win32,59.88023952,66d7945b1baad48e845df3ce,,,,,,,,,,,,,,,,,,,,,903.2649,903.265,903.267,904.33,1,1,right,0.5418,,904.3332,905.2311,0,0,left,905.2338,905.2356,,1,,1,905.2356,905.2356,905.2369,906.7315,0,45,45,45,1,0.6,0.4,0.4,0.6,,,,,,,,,,,,,,,0.3683,,0.2,0.8,0.6,0.4,0.2,0.8,0.6,0.4,1,0,,,,,,,,,,,,
,,612f7826436df8fb008c4f0d,66daf5b9d426239ab21a7a3a,2024-09-06_14h36.50.116,mdp,2024.2.1,Win32,59.88023952,66d7945b1baad48e845df3ce,,,,,,,,,,,,,,,,,,,,,906.7332,906.7332,906.7351,907.6813,0,0,left,0.4244,,907.6844,908.9167,1,1,right,908.9197,908.9212,,0,,0,908.9212,908.9212,908.9225,910.4165,0,46,46,46,1,0.6,0.4,0.4,0.6,,,,,,,,,,,,,,,0.7208,,0.2,0.8,0.6,0.4,0.2,0.8,0.6,0.4,1,0,,,,,,,,,,,,
,,612f7826436df8fb008c4f0d,66daf5b9d426239ab21a7a3a,2024-09-06_14h36.50.116,mdp,2024.2.1,Win32,59.88023952,66d7945b1baad48e845df3ce,,,,,,,,,,,,,,,,,,,,,910.4182,910.4182,910.4202,911.1703,0,1,left,0.2308,,911.1718,912.1011,0,0,left,912.1038,912.105,,1,,1,912.105,912.105,912.1062,913.6016,0,47,47,47,1,0.6,0.4,0.4,0.6,,,,,,,,,,,,,,,0.3932,,0.2,0.8,0.6,0.4,0.2,0.8,0.6,0.4,1,0,,,,,,,,,,,,
,,612f7826436df8fb008c4f0d,66daf5b9d426239ab21a7a3a,2024-09-06_14h36.50.116,mdp,2024.2.1,Win32,59.88023952,66d7945b1baad48e845df3ce,,,,,,,,,,,,,,,,,,,,,913.603,913.603,913.6049,914.6181,1,1,right,0.4936,,914.6213,915.5357,1,1,right,915.5387,915.5401,,0,,0,915.5401,915.5401,915.5414,917.0395,0,48,48,48,1,0.6,0.4,0.4,0.6,,,,,,,,,,,,,,,0.4045,,0.2,0.8,0.6,0.4,0.2,0.8,0.6,0.4,1,0,,,,,,,,,,,,
,,612f7826436df8fb008c4f0d,66daf5b9d426239ab21a7a3a,2024-09-06_14h36.50.116,mdp,2024.2.1,Win32,59.88023952,66d7945b1baad48e845df3ce,,,,,,,,,,,,,,,,,,,,,917.0404,917.0405,917.042,918.5037,0,1,left,0.9358,,918.5069,919.3874,0,1,left,919.3904,919.3917,,1,,0,919.3918,919.3918,919.3932,920.8879,0,49,49,49,1,0.6,0.4,0.4,0.6,,,,,,,,,,,,,,,0.3573,,0.2,0.8,0.6,0.4,0.2,0.8,0.6,0.4,1,0,,,,,,,,,,,,
,,612f7826436df8fb008c4f0d,66daf5b9d426239ab21a7a3a,2024-09-06_14h36.50.116,mdp,2024.2.1,Win32,59.88023952,66d7945b1baad48e845df3ce,,,,,,,,,,,,,,,,,,,,,,,,,,,,,,,,,,,,,,,,,,,,,,,,,,,,,,,,920.888,1064.9962,0,1,1,7,1,imgs/kangaroo.png,imgs/lion.png,imgs/giraffe.png,imgs/pig.png,imgs/rabbit.png,,,,,,,,,,,,,,,,,,,,,,,,
,,612f7826436df8fb008c4f0d,66daf5b9d426239ab21a7a3a,2024-09-06_14h36.50.116,mdp,2024.2.1,Win32,59.88023952,66d7945b1baad48e845df3ce,,,,,,,,,,,,,,3,seqs/st3seq38.csv,1065.0447,1066.3883,space,0.8195,,1066.3993,1066.3993,1066.4048,1067.6707,0,1,left,0.7571,,1067.6725,1068.5535,0,0,left,1068.5566,1072.089,0,1,left,0,1072.0891,1072.0892,1072.1039,1073.5888,0,0,0,0,1,0.2,0.8,0.6,0.4,,,,,,,,,,,,,,,0.324,,0.2,0.8,0.4,0.6,0.6,0.4,0.4,0.6,,,2.9896,,0.2,0.8,0.6,0.4,0.6,0.4,0.2,0.8,1,0
,,612f7826436df8fb008c4f0d,66daf5b9d426239ab21a7a3a,2024-09-06_14h36.50.116,mdp,2024.2.1,Win32,59.88023952,66d7945b1baad48e845df3ce,,,,,,,,,,,,,,,,,,,,,1073.5907,1073.5908,1073.5928,1075.9396,1,0,right,1.8201,,1075.9431,1077.0589,1,0,right,1077.0612,1079.4586,1,1,right,0,1079.4587,1079.4587,1079.4619,1080.959,0,1,1,1,1,0.2,0.8,0.6,0.4,,,,,,,,,,,,,,,0.5426,,0.2,0.8,0.4,0.6,0.6,0.4,0.4,0.6,,,1.8773,,0.2,0.8,0.6,0.4,0.6,0.4,0.2,0.8,1,0
,,612f7826436df8fb008c4f0d,66daf5b9d426239ab21a7a3a,2024-09-06_14h36.50.116,mdp,2024.2.1,Win32,59.88023952,66d7945b1baad48e845df3ce,,,,,,,,,,,,,,,,,,,,,1080.9597,1080.9597,1080.9633,1083.7104,0,1,left,2.2202,,1083.7268,1084.2455,0,0,left,1084.2487,1085.2447,0,1,left,0,1085.2447,1085.2447,1085.2474,1086.7447,0,2,2,2,1,0.2,0.8,0.6,0.4,,,,,,,,,,,,,,,0.0015,,0.2,0.8,0.4,0.6,0.6,0.4,0.4,0.6,,,0.4689,,0.2,0.8,0.6,0.4,0.6,0.4,0.2,0.8,1,0
,,612f7826436df8fb008c4f0d,66daf5b9d426239ab21a7a3a,2024-09-06_14h36.50.116,mdp,2024.2.1,Win32,59.88023952,66d7945b1baad48e845df3ce,,,,,,,,,,,,,,,,,,,,,1086.7457,1086.7457,1086.7487,1087.4789,0,1,left,0.2008,,1087.482,1088.3455,1,1,right,1088.349,1089.1987,1,1,right,0,1089.1999,1089.1999,1089.2016,1090.697,0,3,3,3,1,0.2,0.8,0.6,0.4,,,,,,,,,,,,,,,0.3379,,0.2,0.8,0.4,0.6,0.6,0.4,0.4,0.6,,,0.2937,,0.2,0.8,0.6,0.4,0.6,0.4,0.2,0.8,1,0
,,612f7826436df8fb008c4f0d,66daf5b9d426239ab21a7a3a,2024-09-06_14h36.50.116,mdp,2024.2.1,Win32,59.88023952,66d7945b1baad48e845df3ce,,,,,,,,,,,,,,,,,,,,,1090.6987,1090.6987,1090.7006,1091.6674,0,1,left,0.4477,,1091.6691,1092.616,0,1,left,1092.6174,1093.599,0,0,left,1,1093.5992,1093.5992,1093.6008,1095.1001,0,4,4,4,1,0.2,0.8,0.6,0.4,,,,,,,,,,,,,,,0.4171,,0.2,0.8,0.4,0.6,0.6,0.4,0.4,0.6,,,0.4503,,0.2,0.8,0.6,0.4,0.6,0.4,0.2,0.8,1,0
,,612f7826436df8fb008c4f0d,66daf5b9d426239ab21a7a3a,2024-09-06_14h36.50.116,mdp,2024.2.1,Win32,59.88023952,66d7945b1baad48e845df3ce,,,,,,,,,,,,,,,,,,,,,1095.1007,1095.1008,1095.1022,1095.6499,0,1,left,0.0244,,1095.6516,1096.9515,0,0,left,1096.9532,1098.2334,0,0,left,1,1098.2337,1098.2337,1098.2359,1099.7357,0,5,5,5,1,0.2,0.8,0.6,0.4,,,,,,,,,,,,,,,0.7967,,0.2,0.8,0.4,0.6,0.6,0.4,0.4,0.6,,,0.7456,,0.2,0.8,0.6,0.4,0.6,0.4,0.2,0.8,1,0
,,612f7826436df8fb008c4f0d,66daf5b9d426239ab21a7a3a,2024-09-06_14h36.50.116,mdp,2024.2.1,Win32,59.88023952,66d7945b1baad48e845df3ce,,,,,,,,,,,,,,,,,,,,,1099.7364,1099.7365,1099.7379,1100.8858,0,1,left,0.6195,,1100.8877,1101.7865,0,1,left,1101.788,1105.0377,1,1,right,0,1105.0378,1105.0378,1105.0393,1106.5382,0,6,6,6,1,0.2,0.8,0.6,0.4,,,,,,,,,,,,,,,0.3907,,0.2,0.8,0.4,0.6,0.6,0.4,0.4,0.6,,,2.7147,,0.2,0.8,0.6,0.4,0.6,0.4,0.2,0.8,1,0
,,612f7826436df8fb008c4f0d,66daf5b9d426239ab21a7a3a,2024-09-06_14h36.50.116,mdp,2024.2.1,Win32,59.88023952,66d7945b1baad48e845df3ce,,,,,,,,,,,,,,,,,,,,,1106.5393,1106.5393,1106.541,1156.2776,0,0,left,49.2128,,1156.2943,1158.0618,0,1,left,1158.0634,1159.129,0,0,left,1,1159.1291,1159.1291,1159.1306,1160.6292,0,7,7,7,1,0.2,0.8,0.6,0.4,,,,,,,,,,,,,,,1.2395,,0.2,0.8,0.4,0.6,0.6,0.4,0.4,0.6,,,0.5349,,0.2,0.8,0.6,0.4,0.6,0.4,0.2,0.8,1,0
,,612f7826436df8fb008c4f0d,66daf5b9d426239ab21a7a3a,2024-09-06_14h36.50.116,mdp,2024.2.1,Win32,59.88023952,66d7945b1baad48e845df3ce,,,,,,,,,,,,,,,,,,,,,1160.63,1160.63,1160.6316,1161.5633,0,0,left,0.4008,,1161.5648,1162.3977,0,1,left,1162.3991,1163.2809,0,1,left,0,1163.281,1163.281,1163.2826,1164.7813,0,8,8,8,1,0.2,0.8,0.6,0.4,,,,,,,,,,,,,,,0.3136,,0.2,0.8,0.4,0.6,0.6,0.4,0.4,0.6,,,0.3529,,0.2,0.8,0.6,0.4,0.6,0.4,0.2,0.8,1,0
,,612f7826436df8fb008c4f0d,66daf5b9d426239ab21a7a3a,2024-09-06_14h36.50.116,mdp,2024.2.1,Win32,59.88023952,66d7945b1baad48e845df3ce,,,,,,,,,,,,,,,,,,,,,1164.782,1164.7821,1164.7838,1165.7499,0,1,left,0.448,,1165.7513,1167.4826,1,1,right,1167.4841,1168.5242,1,1,right,0,1168.5244,1168.5244,1168.5262,1170.0164,0,9,9,9,1,0.2,0.8,0.6,0.4,,,,,,,,,,,,,,,1.1936,,0.2,0.8,0.4,0.6,0.6,0.4,0.4,0.6,,,0.533,,0.2,0.8,0.6,0.4,0.6,0.4,0.2,0.8,1,0
,,612f7826436df8fb008c4f0d,66daf5b9d426239ab21a7a3a,2024-09-06_14h36.50.116,mdp,2024.2.1,Win32,59.88023952,66d7945b1baad48e845df3ce,,,,,,,,,,,,,,,,,,,,,1170.0172,1170.0172,1170.0187,1170.9336,0,1,left,0.3897,,1170.9358,1171.8535,0,1,left,1171.855,1172.7679,0,0,left,1,1172.7679,1172.7679,1172.7699,1174.269,0,10,10,10,1,0.2,0.8,0.6,0.4,,,,,,,,,,,,,,,0.3986,,0.2,0.8,0.4,0.6,0.6,0.4,0.4,0.6,,,0.3852,,0.2,0.8,0.6,0.4,0.6,0.4,0.2,0.8,1,0
,,612f7826436df8fb008c4f0d,66daf5b9d426239ab21a7a3a,2024-09-06_14h36.50.116,mdp,2024.2.1,Win32,59.88023952,66d7945b1baad48e845df3ce,,,,,,,,,,,,,,,,,,,,,1174.2698,1174.2698,1174.2716,1175.2191,0,1,left,0.4195,,1175.2214,1176.1695,0,0,left,1176.1715,1177.0789,0,1,left,0,1177.0791,1177.0791,1177.0807,1178.5704,0,11,11,11,1,0.2,0.8,0.6,0.4,,,,,,,,,,,,,,,0.4184,,0.2,0.8,0.4,0.6,0.6,0.4,0.4,0.6,,,0.3751,,0.2,0.8,0.6,0.4,0.6,0.4,0.2,0.8,1,0
,,612f7826436df8fb008c4f0d,66daf5b9d426239ab21a7a3a,2024-09-06_14h36.50.116,mdp,2024.2.1,Win32,59.88023952,66d7945b1baad48e845df3ce,,,,,,,,,,,,,,,,,,,,,1178.5709,1178.5709,1178.5724,1179.755,0,1,left,0.6527,,1179.7566,1180.7548,0,1,left,1180.7564,1182.2217,1,0,right,1,1182.2221,1182.2221,1182.2241,1183.7249,0,12,12,12,1,0.2,0.8,0.6,0.4,,,,,,,,,,,,,,,0.4701,,0.2,0.8,0.4,0.6,0.6,0.4,0.4,0.6,,,0.9251,,0.2,0.8,0.6,0.4,0.6,0.4,0.2,0.8,1,0
,,612f7826436df8fb008c4f0d,66daf5b9d426239ab21a7a3a,2024-09-06_14h36.50.116,mdp,2024.2.1,Win32,59.88023952,66d7945b1baad48e845df3ce,,,,,,,,,,,,,,,,,,,,,1183.7269,1183.7269,1183.7288,1185.1734,1,1,right,0.926,,1185.1755,1185.9899,1,0,right,1185.9919,1187.0758,1,1,right,0,1187.0759,1187.0759,1187.0779,1188.5749,0,13,13,13,1,0.2,0.8,0.6,0.4,,,,,,,,,,,,,,,0.3039,,0.2,0.8,0.4,0.6,0.6,0.4,0.4,0.6,,,0.5528,,0.2,0.8,0.6,0.4,0.6,0.4,0.2,0.8,1,0
,,612f7826436df8fb008c4f0d,66daf5b9d426239ab21a7a3a,2024-09-06_14h36.50.116,mdp,2024.2.1,Win32,59.88023952,66d7945b1baad48e845df3ce,,,,,,,,,,,,,,,,,,,,,1188.5757,1188.5757,1188.5772,1189.8922,1,1,right,0.7925,,1189.8937,1190.776,1,0,right,1190.7777,1191.7434,0,1,left,0,1191.7435,1191.7435,1191.7449,1193.244,0,14,14,14,1,0.2,0.8,0.6,0.4,,,,,,,,,,,,,,,0.3519,,0.2,0.8,0.4,0.6,0.6,0.4,0.4,0.6,,,0.4403,,0.2,0.8,0.6,0.4,0.6,0.4,0.2,0.8,1,0
,,612f7826436df8fb008c4f0d,66daf5b9d426239ab21a7a3a,2024-09-06_14h36.50.116,mdp,2024.2.1,Win32,59.88023952,66d7945b1baad48e845df3ce,,,,,,,,,,,,,,,,,,,,,1193.2445,1193.2446,1193.2461,1194.2121,1,1,right,0.447,,1194.2135,1195.0611,1,1,right,1195.0632,1196.412,1,0,right,1,1196.4121,1196.4121,1196.4138,1197.9127,0,15,15,15,1,0.2,0.8,0.6,0.4,,,,,,,,,,,,,,,0.3256,,0.2,0.8,0.4,0.6,0.6,0.4,0.4,0.6,,,0.8139,,0.2,0.8,0.6,0.4,0.6,0.4,0.2,0.8,1,0
,,612f7826436df8fb008c4f0d,66daf5b9d426239ab21a7a3a,2024-09-06_14h36.50.116,mdp,2024.2.1,Win32,59.88023952,66d7945b1baad48e845df3ce,,,,,,,,,,,,,,,,,,,,,1197.9132,1197.9133,1197.9147,1199.2155,1,0,right,0.7817,,1199.2169,1200.2634,1,1,right,1200.2651,1201.6809,0,0,left,1,1201.6809,1201.6809,1201.6824,1203.1816,0,16,16,16,1,0.2,0.8,0.6,0.4,,,,,,,,,,,,,,,0.5098,,0.2,0.8,0.4,0.6,0.6,0.4,0.4,0.6,,,0.8846,,0.2,0.8,0.6,0.4,0.6,0.4,0.2,0.8,1,0
,,612f7826436df8fb008c4f0d,66daf5b9d426239ab21a7a3a,2024-09-06_14h36.50.116,mdp,2024.2.1,Win32,59.88023952,66d7945b1baad48e845df3ce,,,,,,,,,,,,,,,,,,,,,1203.1825,1203.1825,1203.1839,1204.1175,1,0,right,0.4134,,1204.1195,1204.9843,1,1,right,1204.9862,1206.0328,1,0,right,1,1206.0329,1206.0329,1206.0347,1207.5335,0,17,17,17,1,0.2,0.8,0.6,0.4,,,,,,,,,,,,,,,0.3479,,0.2,0.8,0.4,0.6,0.6,0.4,0.4,0.6,,,0.5207,,0.2,0.8,0.6,0.4,0.6,0.4,0.2,0.8,1,0
,,612f7826436df8fb008c4f0d,66daf5b9d426239ab21a7a3a,2024-09-06_14h36.50.116,mdp,2024.2.1,Win32,59.88023952,66d7945b1baad48e845df3ce,,,,,,,,,,,,,,,,,,,,,1207.5347,1207.5347,1207.5361,1208.384,1,1,right,0.3233,,1208.3862,1209.3018,1,0,right,1209.3037,1210.6847,1,0,right,1,1210.6849,1210.6849,1210.6865,1212.1858,0,18,18,18,1,0.2,0.8,0.6,0.4,,,,,,,,,,,,,,,0.3732,,0.2,0.8,0.4,0.6,0.6,0.4,0.4,0.6,,,0.8485,,0.8,0.2,0.8,0.2,0.6,0.4,0.2,0.8,1,0
,,612f7826436df8fb008c4f0d,66daf5b9d426239ab21a7a3a,2024-09-06_14h36.50.116,mdp,2024.2.1,Win32,59.88023952,66d7945b1baad48e845df3ce,,,,,,,,,,,,,,,,,,,,,1212.1864,1212.1864,1212.1879,1213.0694,1,0,right,0.3562,,1213.0713,1214.0871,1,0,right,1214.0886,1214.9866,0,0,left,1,1214.9866,1214.9866,1214.9885,1216.4869,0,19,19,19,1,0.2,0.8,0.6,0.4,,,,,,,,,,,,,,,0.4946,,0.2,0.8,0.4,0.6,0.6,0.4,0.4,0.6,,,0.3683,,0.8,0.2,0.8,0.2,0.6,0.4,0.2,0.8,1,0
,,612f7826436df8fb008c4f0d,66daf5b9d426239ab21a7a3a,2024-09-06_14h36.50.116,mdp,2024.2.1,Win32,59.88023952,66d7945b1baad48e845df3ce,,,,,,,,,,,,,,,,,,,,,1216.4879,1216.4879,1216.4897,1217.8316,1,0,right,0.8226,,1217.8365,1218.6719,1,1,right,1218.6738,1219.5724,0,0,left,1,1219.5725,1219.5725,1219.5743,1221.0729,0,20,20,20,1,0.2,0.8,0.6,0.4,,,,,,,,,,,,,,,0.3219,,0.2,0.8,0.4,0.6,0.6,0.4,0.4,0.6,,,0.3592,,0.8,0.2,0.8,0.2,0.6,0.4,0.2,0.8,1,0
,,612f7826436df8fb008c4f0d,66daf5b9d426239ab21a7a3a,2024-09-06_14h36.50.116,mdp,2024.2.1,Win32,59.88023952,66d7945b1baad48e845df3ce,,,,,,,,,,,,,,,,,,,,,1221.074,1221.074,1221.0762,1221.9734,1,1,right,0.3675,,1221.9753,1222.7919,1,0,right,1222.7936,1223.7904,0,0,left,1,1223.7906,1223.7906,1223.7923,1225.2908,0,21,21,21,1,0.2,0.8,0.6,0.4,,,,,,,,,,,,,,,0.2849,,0.2,0.8,0.4,0.6,0.2,0.8,0.6,0.4,,,0.4549,,0.8,0.2,0.8,0.2,0.6,0.4,0.2,0.8,1,0
,,612f7826436df8fb008c4f0d,66daf5b9d426239ab21a7a3a,2024-09-06_14h36.50.116,mdp,2024.2.1,Win32,59.88023952,66d7945b1baad48e845df3ce,,,,,,,,,,,,,,,,,,,,,1225.2916,1225.2916,1225.2934,1226.1101,1,1,right,0.3122,,1226.1119,1226.9612,1,1,right,1226.9635,1228.0594,1,1,right,0,1228.0596,1228.0596,1228.0613,1229.5626,0,22,22,22,1,0.2,0.8,0.6,0.4,,,,,,,,,,,,,,,0.3252,,0.2,0.8,0.4,0.6,0.2,0.8,0.6,0.4,,,0.5562,,0.8,0.2,0.8,0.2,0.6,0.4,0.2,0.8,1,0
,,612f7826436df8fb008c4f0d,66daf5b9d426239ab21a7a3a,2024-09-06_14h36.50.116,mdp,2024.2.1,Win32,59.88023952,66d7945b1baad48e845df3ce,,,,,,,,,,,,,,,,,,,,,1229.5636,1229.5636,1229.5659,1230.646,0,1,left,0.5633,,1230.6484,1231.5943,0,1,left,1231.5958,1232.6954,0,1,left,0,1232.6954,1232.6955,1232.6969,1234.1953,0,23,23,23,1,0.2,0.8,0.6,0.4,,,,,,,,,,,,,,,0.4196,,0.2,0.8,0.4,0.6,0.2,0.8,0.6,0.4,,,0.5708,,0.8,0.2,0.8,0.2,0.8,0.2,0.8,0.2,1,0
,,612f7826436df8fb008c4f0d,66daf5b9d426239ab21a7a3a,2024-09-06_14h36.50.116,mdp,2024.2.1,Win32,59.88023952,66d7945b1baad48e845df3ce,,,,,,,,,,,,,,,,,,,,,1234.1977,1234.1977,1234.1995,1254.255,1,1,right,19.5405,,1254.2721,1255.0201,1,0,right,1255.0233,1255.7904,1,0,right,1,1255.7905,1255.7905,1255.7923,1257.2877,0,24,24,24,1,0.2,0.8,0.6,0.4,,,,,,,,,,,,,,,0.2339,,0.2,0.8,0.4,0.6,0.2,0.8,0.6,0.4,,,0.235,,0.8,0.2,0.8,0.2,0.8,0.2,0.8,0.2,1,0
,,612f7826436df8fb008c4f0d,66daf5b9d426239ab21a7a3a,2024-09-06_14h36.50.116,mdp,2024.2.1,Win32,59.88023952,66d7945b1baad48e845df3ce,,,,,,,,,,,,,,,,,,,,,1257.2896,1257.2897,1257.292,1258.0554,1,1,right,0.2399,,1258.0582,1258.8723,1,1,right,1258.8753,1259.9405,0,0,left,1,1259.9405,1259.9405,1259.9437,1261.4397,0,25,25,25,1,0.2,0.8,0.6,0.4,,,,,,,,,,,,,,,0.2885,,0.2,0.8,0.4,0.6,0.2,0.8,0.6,0.4,,,0.532,,0.8,0.2,0.8,0.2,0.8,0.2,0.8,0.2,1,0
,,612f7826436df8fb008c4f0d,66daf5b9d426239ab21a7a3a,2024-09-06_14h36.50.116,mdp,2024.2.1,Win32,59.88023952,66d7945b1baad48e845df3ce,,,,,,,,,,,,,,,,,,,,,1261.4418,1261.4419,1261.4439,1262.4238,1,0,right,0.4558,,1262.4267,1263.3238,1,1,right,1263.3268,1264.2413,0,0,left,1,1264.2416,1264.2416,1264.2447,1265.7415,0,26,26,26,1,0.2,0.8,0.6,0.4,,,,,,,,,,,,,,,0.3659,,0.2,0.8,0.4,0.6,0.2,0.8,0.6,0.4,,,0.4095,,0.8,0.2,0.8,0.2,0.8,0.2,0.8,0.2,1,0
,,612f7826436df8fb008c4f0d,66daf5b9d426239ab21a7a3a,2024-09-06_14h36.50.116,mdp,2024.2.1,Win32,59.88023952,66d7945b1baad48e845df3ce,,,,,,,,,,,,,,,,,,,,,1265.7435,1265.7436,1265.7455,1266.6097,1,1,right,0.3383,,1266.6127,1267.476,1,0,right,1267.4793,1268.394,1,0,right,1,1268.3941,1268.3943,1268.398,1269.8933,0,27,27,27,1,0.2,0.8,0.6,0.4,,,,,,,,,,,,,,,0.3269,,0.2,0.8,0.4,0.6,0.2,0.8,0.6,0.4,,,0.3876,,0.8,0.2,0.8,0.2,0.8,0.2,0.8,0.2,1,0
,,612f7826436df8fb008c4f0d,66daf5b9d426239ab21a7a3a,2024-09-06_14h36.50.116,mdp,2024.2.1,Win32,59.88023952,66d7945b1baad48e845df3ce,,,,,,,,,,,,,,,,,,,,,1269.8953,1269.8954,1269.8975,1270.8445,1,0,right,0.4174,,1270.8475,1271.8443,1,1,right,1271.8473,1273.5293,1,0,right,1,1273.5294,1273.5294,1273.5321,1275.0289,0,28,28,28,1,0.2,0.8,0.6,0.4,,,,,,,,,,,,,,,0.4393,,0.2,0.8,0.4,0.6,0.2,0.8,0.6,0.4,,,1.1441,,0.8,0.2,0.8,0.2,0.8,0.2,0.8,0.2,1,0
,,612f7826436df8fb008c4f0d,66daf5b9d426239ab21a7a3a,2024-09-06_14h36.50.116,mdp,2024.2.1,Win32,59.88023952,66d7945b1baad48e845df3ce,,,,,,,,,,,,,,,,,,,,,1275.0304,1275.0304,1275.0325,1275.9297,1,1,right,0.3719,,1275.9323,1276.9135,0,1,left,1276.9167,1277.7477,1,1,right,0,1277.7478,1277.7478,1277.7506,1279.2475,0,29,29,29,1,0.2,0.8,0.6,0.4,,,,,,,,,,,,,,,0.4682,,0.2,0.8,0.4,0.6,0.2,0.8,0.6,0.4,,,0.3012,,0.8,0.2,0.8,0.2,0.8,0.2,0.8,0.2,1,0
,,612f7826436df8fb008c4f0d,66daf5b9d426239ab21a7a3a,2024-09-06_14h36.50.116,mdp,2024.2.1,Win32,59.88023952,66d7945b1baad48e845df3ce,,,,,,,,,,,,,,,,,,,,,1279.2494,1279.2494,1279.2515,1279.8309,1,0,right,0.0573,,1279.8341,1280.6988,0,1,left,1280.7015,1281.5481,1,0,right,1,1281.5482,1281.5483,1281.5517,1283.0493,0,30,30,30,1,0.2,0.8,0.6,0.4,,,,,,,,,,,,,,,0.3299,,0.2,0.8,0.4,0.6,0.2,0.8,0.6,0.4,,,0.3184,,0.8,0.2,0.8,0.2,0.8,0.2,0.8,0.2,1,0
,,612f7826436df8fb008c4f0d,66daf5b9d426239ab21a7a3a,2024-09-06_14h36.50.116,mdp,2024.2.1,Win32,59.88023952,66d7945b1baad48e845df3ce,,,,,,,,,,,,,,,,,,,,,1283.0512,1283.0512,1283.0531,1291.071,0,1,left,7.4983,,1291.0874,1291.7707,0,1,left,1291.7734,1292.6868,0,1,left,0,1292.6869,1292.6869,1292.6901,1294.1881,0,31,31,31,1,0.2,0.8,0.6,0.4,,,,,,,,,,,,,,,0.1607,,0.2,0.8,0.4,0.6,0.2,0.8,0.6,0.4,,,0.3918,,0.8,0.2,0.8,0.2,0.8,0.2,0.8,0.2,1,0
,,612f7826436df8fb008c4f0d,66daf5b9d426239ab21a7a3a,2024-09-06_14h36.50.116,mdp,2024.2.1,Win32,59.88023952,66d7945b1baad48e845df3ce,,,,,,,,,,,,,,,,,,,,,1294.1896,1294.1897,1294.1913,1301.6082,0,1,left,6.8881,,1301.6239,1302.1258,0,1,left,1302.1276,1303.2607,0,0,left,1,1303.2608,1303.2608,1303.2625,1304.7601,0,32,32,32,1,0.2,0.8,0.6,0.4,,,,,,,,,,,,,,,0.0013,,0.2,0.8,0.4,0.6,0.2,0.8,0.6,0.4,,,0.6131,,0.2,0.8,0.4,0.6,0.8,0.2,0.8,0.2,1,0
,,612f7826436df8fb008c4f0d,66daf5b9d426239ab21a7a3a,2024-09-06_14h36.50.116,mdp,2024.2.1,Win32,59.88023952,66d7945b1baad48e845df3ce,,,,,,,,,,,,,,,,,,,,,1304.7612,1304.7612,1304.7626,1324.7187,1,1,right,19.4303,,1324.736,1325.6534,1,0,right,1325.6549,1326.4863,1,1,right,0,1326.4863,1326.4863,1326.4882,1327.9876,0,33,33,33,1,0.2,0.8,0.6,0.4,,,,,,,,,,,,,,,0.4192,,0.2,0.8,0.4,0.6,0.2,0.8,0.6,0.4,,,0.3004,,0.2,0.8,0.4,0.6,0.8,0.2,0.8,0.2,1,0
,,612f7826436df8fb008c4f0d,66daf5b9d426239ab21a7a3a,2024-09-06_14h36.50.116,mdp,2024.2.1,Win32,59.88023952,66d7945b1baad48e845df3ce,,,,,,,,,,,,,,,,,,,,,1327.9882,1327.9882,1327.9898,1328.6205,1,0,right,0.1026,,1328.6234,1329.7709,0,1,left,1329.7734,1330.941,0,0,left,1,1330.941,1330.941,1330.9425,1332.4391,0,34,34,34,1,0.2,0.8,0.6,0.4,,,,,,,,,,,,,,,0.6133,,0.2,0.8,0.4,0.6,0.2,0.8,0.6,0.4,,,0.6392,,0.2,0.8,0.4,0.6,0.8,0.2,0.8,0.2,1,0
,,612f7826436df8fb008c4f0d,66daf5b9d426239ab21a7a3a,2024-09-06_14h36.50.116,mdp,2024.2.1,Win32,59.88023952,66d7945b1baad48e845df3ce,,,,,,,,,,,,,,,,,,,,,1332.4402,1332.4402,1332.4446,1354.0492,1,0,right,21.0785,,1354.0712,1354.8818,1,0,right,1354.8846,1355.6652,1,1,right,0,1355.6658,1355.6658,1355.6688,1357.1656,0,35,35,35,1,0.2,0.8,0.6,0.4,,,,,,,,,,,,,,,0.3075,,0.2,0.8,0.4,0.6,0.2,0.8,0.6,0.4,,,0.2405,,0.2,0.8,0.4,0.6,0.8,0.2,0.8,0.2,1,0
,,612f7826436df8fb008c4f0d,66daf5b9d426239ab21a7a3a,2024-09-06_14h36.50.116,mdp,2024.2.1,Win32,59.88023952,66d7945b1baad48e845df3ce,,,,,,,,,,,,,,,,,,,,,1357.167,1357.167,1357.1696,1358.0001,0,1,left,0.3014,,1358.0029,1359.001,0,1,left,1359.0032,1360.2168,0,0,left,1,1360.2169,1360.217,1360.2203,1361.7177,0,36,36,36,1,0.2,0.8,0.6,0.4,,,,,,,,,,,,,,,0.4664,,0.2,0.8,0.4,0.6,0.2,0.8,0.6,0.4,,,0.6827,,0.2,0.8,0.4,0.6,0.8,0.2,0.8,0.2,1,0
,,612f7826436df8fb008c4f0d,66daf5b9d426239ab21a7a3a,2024-09-06_14h36.50.116,mdp,2024.2.1,Win32,59.88023952,66d7945b1baad48e845df3ce,,,,,,,,,,,,,,,,,,,,,1361.7195,1361.7196,1361.7215,1363.0023,0,0,left,0.7562,,1363.0053,1363.9029,0,1,left,1363.9057,1364.9698,0,1,left,0,1364.9699,1364.9699,1364.9729,1366.4704,0,37,37,37,1,0.2,0.8,0.6,0.4,,,,,,,,,,,,,,,0.3586,,0.2,0.8,0.4,0.6,0.2,0.8,0.6,0.4,,,0.5371,,0.2,0.8,0.4,0.6,0.8,0.2,0.8,0.2,1,0
,,612f7826436df8fb008c4f0d,66daf5b9d426239ab21a7a3a,2024-09-06_14h36.50.116,mdp,2024.2.1,Win32,59.88023952,66d7945b1baad48e845df3ce,,,,,,,,,,,,,,,,,,,,,1366.4719,1366.4719,1366.4737,1367.137,1,1,right,0.1356,,1367.1408,1367.989,1,1,right,1367.9921,1368.8217,1,0,right,1,1368.8217,1368.8217,1368.8243,1370.3214,0,38,38,38,1,0.2,0.8,0.6,0.4,,,,,,,,,,,,,,,0.319,,0.2,0.8,0.4,0.6,0.2,0.8,0.6,0.4,,,0.3011,,0.2,0.8,0.4,0.6,0.8,0.2,0.8,0.2,1,0
,,612f7826436df8fb008c4f0d,66daf5b9d426239ab21a7a3a,2024-09-06_14h36.50.116,mdp,2024.2.1,Win32,59.88023952,66d7945b1baad48e845df3ce,,,,,,,,,,,,,,,,,,,,,1370.3235,1370.3235,1370.3253,1401.8057,1,0,right,30.9579,,1401.8286,1402.6695,1,0,right,1402.6727,1403.6203,1,0,right,1,1403.6205,1403.6205,1403.6232,1405.1201,0,39,39,39,1,0.2,0.8,0.6,0.4,,,,,,,,,,,,,,,0.3225,,0.2,0.8,0.4,0.6,0.2,0.8,0.6,0.4,,,0.412,,0.2,0.8,0.4,0.6,0.8,0.2,0.8,0.2,1,0
,,612f7826436df8fb008c4f0d,66daf5b9d426239ab21a7a3a,2024-09-06_14h36.50.116,mdp,2024.2.1,Win32,59.88023952,66d7945b1baad48e845df3ce,,,,,,,,,,,,,,,,,,,,,1405.1221,1405.1222,1405.124,1405.8713,1,0,right,0.2235,,1405.8741,1406.6713,1,0,right,1406.6745,1407.9053,0,1,left,0,1407.9059,1407.9059,1407.9087,1409.4055,0,40,40,40,1,0.2,0.8,0.6,0.4,,,,,,,,,,,,,,,0.2717,,0.2,0.8,0.4,0.6,0.2,0.8,0.6,0.4,,,0.702,,0.2,0.8,0.4,0.6,0.8,0.2,0.8,0.2,1,0
,,612f7826436df8fb008c4f0d,66daf5b9d426239ab21a7a3a,2024-09-06_14h36.50.116,mdp,2024.2.1,Win32,59.88023952,66d7945b1baad48e845df3ce,,,,,,,,,,,,,,,,,,,,,1409.408,1409.408,1409.4099,1410.289,1,0,right,0.3588,,1410.2923,1411.2566,1,1,right,1411.2598,1412.524,1,0,right,1,1412.5241,1412.5241,1412.5269,1414.0236,0,41,41,41,1,0.2,0.8,0.6,0.4,,,,,,,,,,,,,,,0.4344,,0.2,0.8,0.4,0.6,0.2,0.8,0.6,0.4,,,0.7266,,0.2,0.8,0.4,0.6,0.8,0.2,0.8,0.2,1,0
,,612f7826436df8fb008c4f0d,66daf5b9d426239ab21a7a3a,2024-09-06_14h36.50.116,mdp,2024.2.1,Win32,59.88023952,66d7945b1baad48e845df3ce,,,,,,,,,,,,,,,,,,,,,1414.0258,1414.0258,1414.0279,1414.8767,1,0,right,0.3296,,1414.8791,1415.6589,1,0,right,1415.6619,1416.5086,1,1,right,0,1416.5089,1416.5089,1416.512,1418.0095,0,42,42,42,1,0.2,0.8,0.6,0.4,,,,,,,,,,,,,,,0.2646,,0.2,0.8,0.4,0.6,0.2,0.8,0.6,0.4,,,0.3124,,0.2,0.8,0.4,0.6,0.8,0.2,0.8,0.2,1,0
,,612f7826436df8fb008c4f0d,66daf5b9d426239ab21a7a3a,2024-09-06_14h36.50.116,mdp,2024.2.1,Win32,59.88023952,66d7945b1baad48e845df3ce,,,,,,,,,,,,,,,,,,,,,1418.0113,1418.0113,1418.0132,1418.6104,0,1,left,0.0708,,1418.6133,1419.6773,0,1,left,1419.6802,1420.5606,0,0,left,1,1420.5608,1420.5608,1420.5639,1422.0613,0,43,43,43,1,0.2,0.8,0.6,0.4,,,,,,,,,,,,,,,0.5254,,0.2,0.8,0.4,0.6,0.2,0.8,0.6,0.4,,,0.3454,,0.2,0.8,0.4,0.6,0.8,0.2,0.8,0.2,1,0
,,612f7826436df8fb008c4f0d,66daf5b9d426239ab21a7a3a,2024-09-06_14h36.50.116,mdp,2024.2.1,Win32,59.88023952,66d7945b1baad48e845df3ce,,,,,,,,,,,,,,,,,,,,,1422.0632,1422.0632,1422.065,1422.8956,1,1,right,0.3043,,1422.8987,1424.0963,1,0,right,1424.0993,1425.3131,1,0,right,1,1425.3132,1425.3132,1425.3159,1426.8132,0,44,44,44,1,0.2,0.8,0.6,0.4,,,,,,,,,,,,,,,0.6714,,0.2,0.8,0.4,0.6,0.2,0.8,0.6,0.4,,,0.677,,0.2,0.8,0.4,0.6,0.8,0.2,0.8,0.2,1,0
,,612f7826436df8fb008c4f0d,66daf5b9d426239ab21a7a3a,2024-09-06_14h36.50.116,mdp,2024.2.1,Win32,59.88023952,66d7945b1baad48e845df3ce,,,,,,,,,,,,,,,,,,,,,1426.8154,1426.8154,1426.8173,1429.8318,1,0,right,2.4889,,1429.8349,1430.8325,0,0,left,1430.8353,1431.7824,0,1,left,0,1431.7825,1431.7825,1431.7854,1433.2835,0,45,45,45,1,0.2,0.8,0.6,0.4,,,,,,,,,,,,,,,0.4566,,0.2,0.8,0.4,0.6,0.2,0.8,0.6,0.4,,,0.4183,,0.2,0.8,0.4,0.6,0.8,0.2,0.8,0.2,1,0
,,612f7826436df8fb008c4f0d,66daf5b9d426239ab21a7a3a,2024-09-06_14h36.50.116,mdp,2024.2.1,Win32,59.88023952,66d7945b1baad48e845df3ce,,,,,,,,,,,,,,,,,,,,,1433.285,1433.285,1433.287,1434.2346,1,0,right,0.4169,,1434.2367,1435.1673,1,0,right,1435.1702,1436.1379,1,0,right,1,1436.138,1436.138,1436.1394,1437.6352,0,46,46,46,1,0.2,0.8,0.6,0.4,,,,,,,,,,,,,,,0.4016,,0.2,0.8,0.4,0.6,0.2,0.8,0.6,0.4,,,0.4485,,0.2,0.8,0.4,0.6,0.8,0.2,0.8,0.2,1,0
,,612f7826436df8fb008c4f0d,66daf5b9d426239ab21a7a3a,2024-09-06_14h36.50.116,mdp,2024.2.1,Win32,59.88023952,66d7945b1baad48e845df3ce,,,,,,,,,,,,,,,,,,,,,1437.6367,1437.6367,1437.6388,1438.5038,1,0,right,0.3462,,1438.5069,1439.503,1,1,right,1439.5057,1440.1689,1,0,right,1,1440.1695,1440.1695,1440.1726,1441.6701,0,47,47,47,1,0.2,0.8,0.6,0.4,,,,,,,,,,,,,,,0.4682,,0.2,0.8,0.4,0.6,0.2,0.8,0.6,0.4,,,0.127,,0.2,0.8,0.4,0.6,0.8,0.2,0.8,0.2,1,0
,,612f7826436df8fb008c4f0d,66daf5b9d426239ab21a7a3a,2024-09-06_14h36.50.116,mdp,2024.2.1,Win32,59.88023952,66d7945b1baad48e845df3ce,,,,,,,,,,,,,,,,,,,,,1441.6719,1441.672,1441.6739,1442.9379,1,0,right,0.7393,,1442.9408,1443.9042,1,1,right,1443.9074,1444.7885,0,0,left,1,1444.7886,1444.7886,1444.7916,1446.2886,0,48,48,48,1,0.2,0.8,0.6,0.4,,,,,,,,,,,,,,,0.4413,,0.2,0.8,0.4,0.6,0.2,0.8,0.6,0.4,,,0.372,,0.2,0.8,0.4,0.6,0.8,0.2,0.8,0.2,1,0
,,612f7826436df8fb008c4f0d,66daf5b9d426239ab21a7a3a,2024-09-06_14h36.50.116,mdp,2024.2.1,Win32,59.88023952,66d7945b1baad48e845df3ce,,,,,,,,,,,,,,,,,,,,,1446.2907,1446.2907,1446.2932,1447.1892,0,1,left,0.3766,,1447.1926,1448.0068,0,1,left,1448.0094,1448.8073,0,0,left,1,1448.8073,1448.8073,1448.8101,1450.3076,0,49,49,49,1,0.2,0.8,0.6,0.4,,,,,,,,,,,,,,,0.2743,,0.2,0.8,0.4,0.6,0.2,0.8,0.6,0.4,,,0.2699,,0.2,0.8,0.4,0.6,0.8,0.2,0.8,0.2,1,0
,,612f7826436df8fb008c4f0d,66daf5b9d426239ab21a7a3a,2024-09-06_14h36.50.116,mdp,2024.2.1,Win32,59.88023952,66d7945b1baad48e845df3ce,,,,,,,,,,,,,,,,,,,,,,,,,,,,,,,,,,,,,,,,,,,,,,,,,,,,,,,,1450.3079,1580.5075,0,2,2,6,1,imgs/kangaroo.png,imgs/rabbit.png,imgs/pig.png,imgs/squirrel.png,imgs/bear.png,,,,,,,,,,,,,,,,,,,,,,,,
,,612f7826436df8fb008c4f0d,66daf5b9d426239ab21a7a3a,2024-09-06_14h36.50.116,mdp,2024.2.1,Win32,59.88023952,66d7945b1baad48e845df3ce,,,,,,,,,,,,,,3,seqs/st3seq47.csv,1580.5248,1581.8326,space,0.7901,,1581.845,1581.8451,1581.8482,1583.6501,1,1,right,1.271,,1583.653,1584.5504,1,0,right,1584.5535,1585.4342,1,1,right,0,1585.4344,1585.4344,1585.4374,1586.9343,0,0,0,0,1,0.6,0.4,0.4,0.6,,,,,,,,,,,,,,,0.3363,,0.8,0.2,0.4,0.6,0.8,0.2,0.2,0.8,,,0.3453,,0.6,0.4,0.4,0.6,0.6,0.4,0.8,0.2,1,0
,,612f7826436df8fb008c4f0d,66daf5b9d426239ab21a7a3a,2024-09-06_14h36.50.116,mdp,2024.2.1,Win32,59.88023952,66d7945b1baad48e845df3ce,,,,,,,,,,,,,,,,,,,,,1586.9366,1586.9366,1586.939,1587.9524,1,1,right,0.4847,,1587.9554,1589.303,1,1,right,1589.306,1590.2368,0,0,left,1,1590.2369,1590.2369,1590.2397,1591.7365,0,1,1,1,1,0.6,0.4,0.4,0.6,,,,,,,,,,,,,,,0.8164,,0.8,0.2,0.4,0.6,0.8,0.2,0.2,0.8,,,0.3905,,0.6,0.4,0.4,0.6,0.6,0.4,0.8,0.2,1,0
,,612f7826436df8fb008c4f0d,66daf5b9d426239ab21a7a3a,2024-09-06_14h36.50.116,mdp,2024.2.1,Win32,59.88023952,66d7945b1baad48e845df3ce,,,,,,,,,,,,,,,,,,,,,1591.7387,1591.7387,1591.7409,1593.7057,0,0,left,1.4439,,1593.7081,1594.8225,0,0,left,1594.8253,1596.4231,1,1,right,0,1596.4232,1596.4232,1596.426,1597.9228,0,2,2,2,1,0.6,0.4,0.4,0.6,,,,,,,,,,,,,,,0.5801,,0.8,0.2,0.4,0.6,0.8,0.2,0.2,0.8,,,1.065,,0.6,0.4,0.4,0.6,0.6,0.4,0.8,0.2,1,0
,,612f7826436df8fb008c4f0d,66daf5b9d426239ab21a7a3a,2024-09-06_14h36.50.116,mdp,2024.2.1,Win32,59.88023952,66d7945b1baad48e845df3ce,,,,,,,,,,,,,,,,,,,,,1597.925,1597.925,1597.9269,1599.9744,0,1,left,1.52,,1599.9778,1600.8107,0,0,left,1600.813,1602.0256,0,1,left,0,1602.0257,1602.0257,1602.0288,1603.5255,0,3,3,3,1,0.6,0.4,0.4,0.6,,,,,,,,,,,,,,,0.3204,,0.8,0.2,0.4,0.6,0.8,0.2,0.2,0.8,,,0.6856,,0.6,0.4,0.4,0.6,0.6,0.4,0.8,0.2,1,0
,,612f7826436df8fb008c4f0d,66daf5b9d426239ab21a7a3a,2024-09-06_14h36.50.116,mdp,2024.2.1,Win32,59.88023952,66d7945b1baad48e845df3ce,,,,,,,,,,,,,,,,,,,,,1603.5277,1603.5277,1603.5296,1604.3765,0,1,left,0.3183,,1604.38,1605.1769,1,1,right,1605.1797,1606.0491,1,0,right,1,1606.0491,1606.0492,1606.0513,1607.5547,0,4,4,4,1,0.6,0.4,0.4,0.6,,,,,,,,,,,,,,,0.2671,,0.8,0.2,0.4,0.6,0.8,0.2,0.2,0.8,,,0.3416,,0.4,0.6,0.6,0.4,0.6,0.4,0.8,0.2,1,0
,,612f7826436df8fb008c4f0d,66daf5b9d426239ab21a7a3a,2024-09-06_14h36.50.116,mdp,2024.2.1,Win32,59.88023952,66d7945b1baad48e845df3ce,,,,,,,,,,,,,,,,,,,,,1607.5552,1607.5552,1607.5574,1609.6964,0,0,left,1.6199,,1609.6981,1610.8307,1,1,right,1610.8329,1612.0146,1,0,right,1,1612.0147,1612.0147,1612.0164,1613.5152,0,5,5,5,1,0.6,0.4,0.4,0.6,,,,,,,,,,,,,,,0.6135,,0.8,0.2,0.4,0.6,0.8,0.2,0.2,0.8,,,0.6516,,0.4,0.6,0.6,0.4,0.6,0.4,0.8,0.2,1,0
,,612f7826436df8fb008c4f0d,66daf5b9d426239ab21a7a3a,2024-09-06_14h36.50.116,mdp,2024.2.1,Win32,59.88023952,66d7945b1baad48e845df3ce,,,,,,,,,,,,,,,,,,,,,1613.5158,1613.5158,1613.5178,1614.7345,0,0,left,0.6979,,1614.7359,1615.6498,0,1,left,1615.6512,1616.5673,0,1,left,0,1616.5673,1616.5673,1616.5687,1618.0673,0,6,6,6,1,0.6,0.4,0.4,0.6,,,,,,,,,,,,,,,0.3905,,0.8,0.2,0.4,0.6,0.8,0.2,0.2,0.8,,,0.3853,,0.4,0.6,0.6,0.4,0.6,0.4,0.8,0.2,1,0
,,612f7826436df8fb008c4f0d,66daf5b9d426239ab21a7a3a,2024-09-06_14h36.50.116,mdp,2024.2.1,Win32,59.88023952,66d7945b1baad48e845df3ce,,,,,,,,,,,,,,,,,,,,,1618.0682,1618.0682,1618.0699,1619.1361,0,1,left,0.5475,,1619.138,1620.3192,0,0,left,1620.3206,1622.2377,1,1,right,0,1622.2378,1622.2378,1622.2393,1623.7368,0,7,7,7,1,0.6,0.4,0.4,0.6,,,,,,,,,,,,,,,0.6524,,0.8,0.2,0.4,0.6,0.8,0.2,0.2,0.8,,,1.39,,0.4,0.6,0.6,0.4,0.6,0.4,0.8,0.2,1,0
,,612f7826436df8fb008c4f0d,66daf5b9d426239ab21a7a3a,2024-09-06_14h36.50.116,mdp,2024.2.1,Win32,59.88023952,66d7945b1baad48e845df3ce,,,,,,,,,,,,,,,,,,,,,1623.7377,1623.7377,1623.7391,1634.5909,0,1,left,10.3285,,1634.5926,1635.5258,0,0,left,1635.5273,1637.5593,1,0,right,1,1637.5596,1637.5596,1637.5611,1639.0599,0,8,8,8,1,0.6,0.4,0.4,0.6,,,,,,,,,,,,,,,0.4191,,0.8,0.2,0.4,0.6,0.8,0.2,0.2,0.8,,,1.5046,,0.4,0.6,0.6,0.4,0.6,0.4,0.8,0.2,1,0
,,612f7826436df8fb008c4f0d,66daf5b9d426239ab21a7a3a,2024-09-06_14h36.50.116,mdp,2024.2.1,Win32,59.88023952,66d7945b1baad48e845df3ce,,,,,,,,,,,,,,,,,,,,,1639.0609,1639.0609,1639.0623,1639.9281,0,1,left,0.3432,,1639.9299,1640.7768,1,0,right,1640.7788,1641.977,1,0,right,1,1641.9774,1641.9774,1641.9804,1643.4787,0,9,9,9,1,0.6,0.4,0.4,0.6,,,,,,,,,,,,,,,0.324,,0.8,0.2,0.4,0.6,0.8,0.2,0.2,0.8,,,0.684,,0.4,0.6,0.6,0.4,0.6,0.4,0.8,0.2,1,0
,,612f7826436df8fb008c4f0d,66daf5b9d426239ab21a7a3a,2024-09-06_14h36.50.116,mdp,2024.2.1,Win32,59.88023952,66d7945b1baad48e845df3ce,,,,,,,,,,,,,,,,,,,,,1643.4794,1643.4795,1643.4809,1644.6625,0,0,left,0.6448,,1644.6646,1645.5294,0,0,left,1645.5313,1646.4649,1,0,right,1,1646.465,1646.4651,1646.4671,1647.9635,0,10,10,10,1,0.6,0.4,0.4,0.6,,,,,,,,,,,,,,,0.3237,,0.8,0.2,0.4,0.6,0.2,0.8,0.8,0.2,,,0.431,,0.4,0.6,0.6,0.4,0.6,0.4,0.8,0.2,1,0
,,612f7826436df8fb008c4f0d,66daf5b9d426239ab21a7a3a,2024-09-06_14h36.50.116,mdp,2024.2.1,Win32,59.88023952,66d7945b1baad48e845df3ce,,,,,,,,,,,,,,,,,,,,,1647.9645,1647.9646,1647.9664,1648.8644,0,0,left,0.3677,,1648.8664,1649.8146,0,1,left,1649.8169,1650.8155,1,0,right,1,1650.8156,1650.8156,1650.8172,1652.3149,0,11,11,11,1,0.6,0.4,0.4,0.6,,,,,,,,,,,,,,,0.4186,,0.8,0.2,0.4,0.6,0.2,0.8,0.8,0.2,,,0.461,,0.4,0.6,0.6,0.4,0.6,0.4,0.8,0.2,1,0
,,612f7826436df8fb008c4f0d,66daf5b9d426239ab21a7a3a,2024-09-06_14h36.50.116,mdp,2024.2.1,Win32,59.88023952,66d7945b1baad48e845df3ce,,,,,,,,,,,,,,,,,,,,,1652.3164,1652.3165,1652.3185,1653.4183,0,0,left,0.5795,,1653.4198,1654.2687,0,0,left,1654.2704,1655.37,1,1,right,0,1655.3701,1655.3701,1655.3717,1656.8682,0,12,12,12,1,0.6,0.4,0.4,0.6,,,,,,,,,,,,,,,0.3306,,0.8,0.2,0.4,0.6,0.2,0.8,0.8,0.2,,,0.5707,,0.4,0.6,0.6,0.4,0.6,0.4,0.8,0.2,1,0
,,612f7826436df8fb008c4f0d,66daf5b9d426239ab21a7a3a,2024-09-06_14h36.50.116,mdp,2024.2.1,Win32,59.88023952,66d7945b1baad48e845df3ce,,,,,,,,,,,,,,,,,,,,,1656.8691,1656.8691,1656.871,1657.8011,0,1,left,0.4027,,1657.8033,1658.7187,0,0,left,1658.721,1659.4692,0,1,left,0,1659.4693,1659.4693,1659.471,1660.9693,0,13,13,13,1,0.6,0.4,0.4,0.6,,,,,,,,,,,,,,,0.3997,,0.8,0.2,0.4,0.6,0.2,0.8,0.8,0.2,,,0.2401,,0.4,0.6,0.6,0.4,0.2,0.8,0.6,0.4,1,0
,,612f7826436df8fb008c4f0d,66daf5b9d426239ab21a7a3a,2024-09-06_14h36.50.116,mdp,2024.2.1,Win32,59.88023952,66d7945b1baad48e845df3ce,,,,,,,,,,,,,,,,,,,,,1660.9703,1660.9703,1660.9722,1662.1192,0,0,left,0.6223,,1662.1212,1662.9721,0,0,left,1662.9739,1663.9214,0,1,left,0,1663.9214,1663.9214,1663.9228,1665.4211,0,14,14,14,1,0.6,0.4,0.4,0.6,,,,,,,,,,,,,,,0.3347,,0.8,0.2,0.4,0.6,0.2,0.8,0.8,0.2,,,0.4232,,0.4,0.6,0.6,0.4,0.2,0.8,0.6,0.4,1,0
,,612f7826436df8fb008c4f0d,66daf5b9d426239ab21a7a3a,2024-09-06_14h36.50.116,mdp,2024.2.1,Win32,59.88023952,66d7945b1baad48e845df3ce,,,,,,,,,,,,,,,,,,,,,1665.4219,1665.422,1665.424,1666.3886,0,0,left,0.4362,,1666.3907,1667.3387,0,1,left,1667.3405,1668.3391,0,1,left,0,1668.3396,1668.3397,1668.3419,1669.8402,0,15,15,15,1,0.6,0.4,0.4,0.6,,,,,,,,,,,,,,,0.435,,0.8,0.2,0.4,0.6,0.2,0.8,0.8,0.2,,,0.4756,,0.4,0.6,0.6,0.4,0.2,0.8,0.6,0.4,1,0
,,612f7826436df8fb008c4f0d,66daf5b9d426239ab21a7a3a,2024-09-06_14h36.50.116,mdp,2024.2.1,Win32,59.88023952,66d7945b1baad48e845df3ce,,,,,,,,,,,,,,,,,,,,,1669.8415,1669.8415,1669.8433,1671.0929,0,1,left,0.7318,,1671.0946,1671.9088,1,0,right,1671.9106,1672.7944,1,0,right,1,1672.7944,1672.7944,1672.796,1674.2915,0,16,16,16,1,0.6,0.4,0.4,0.6,,,,,,,,,,,,,,,0.2855,,0.8,0.2,0.4,0.6,0.6,0.4,0.4,0.6,,,0.353,,0.4,0.6,0.6,0.4,0.2,0.8,0.6,0.4,1,0
,,612f7826436df8fb008c4f0d,66daf5b9d426239ab21a7a3a,2024-09-06_14h36.50.116,mdp,2024.2.1,Win32,59.88023952,66d7945b1baad48e845df3ce,,,,,,,,,,,,,,,,,,,,,1674.2926,1674.2926,1674.2947,1675.4097,1,1,right,0.5832,,1675.4114,1676.5263,0,1,left,1676.5286,1677.4433,1,1,right,0,1677.4433,1677.4433,1677.4449,1678.9443,0,17,17,17,1,0.6,0.4,0.4,0.6,,,,,,,,,,,,,,,0.5861,,0.8,0.2,0.4,0.6,0.6,0.4,0.4,0.6,,,0.3935,,0.4,0.6,0.6,0.4,0.2,0.8,0.6,0.4,1,0
,,612f7826436df8fb008c4f0d,66daf5b9d426239ab21a7a3a,2024-09-06_14h36.50.116,mdp,2024.2.1,Win32,59.88023952,66d7945b1baad48e845df3ce,,,,,,,,,,,,,,,,,,,,,1678.9457,1678.9458,1678.9472,1679.7607,0,0,left,0.2868,,1679.763,1680.7311,1,0,right,1680.7329,1681.8952,0,1,left,0,1681.8956,1681.8956,1681.8972,1683.3965,0,18,18,18,1,0.6,0.4,0.4,0.6,,,,,,,,,,,,,,,0.4522,,0.8,0.2,0.4,0.6,0.6,0.4,0.4,0.6,,,0.6284,,0.4,0.6,0.6,0.4,0.2,0.8,0.6,0.4,1,0
,,612f7826436df8fb008c4f0d,66daf5b9d426239ab21a7a3a,2024-09-06_14h36.50.116,mdp,2024.2.1,Win32,59.88023952,66d7945b1baad48e845df3ce,,,,,,,,,,,,,,,,,,,,,1683.3972,1683.3972,1683.3986,1684.5966,1,0,right,0.6746,,1684.5988,1685.5831,1,1,right,1685.585,1686.7332,0,1,left,0,1686.7335,1686.7335,1686.7349,1688.231,0,19,19,19,1,0.6,0.4,0.4,0.6,,,,,,,,,,,,,,,0.4683,,0.8,0.2,0.4,0.6,0.6,0.4,0.4,0.6,,,0.6227,,0.4,0.6,0.6,0.4,0.2,0.8,0.6,0.4,1,0
,,612f7826436df8fb008c4f0d,66daf5b9d426239ab21a7a3a,2024-09-06_14h36.50.116,mdp,2024.2.1,Win32,59.88023952,66d7945b1baad48e845df3ce,,,,,,,,,,,,,,,,,,,,,1688.232,1688.232,1688.2338,1688.7845,0,0,left,0.0317,,1688.7862,1689.5323,1,0,right,1689.534,1690.3354,1,0,right,1,1690.3355,1690.3355,1690.3373,1691.8335,0,20,20,20,1,0.6,0.4,0.4,0.6,,,,,,,,,,,,,,,0.2227,,0.8,0.2,0.4,0.6,0.6,0.4,0.4,0.6,,,0.2706,,0.4,0.6,0.6,0.4,0.2,0.8,0.6,0.4,1,0
,,612f7826436df8fb008c4f0d,66daf5b9d426239ab21a7a3a,2024-09-06_14h36.50.116,mdp,2024.2.1,Win32,59.88023952,66d7945b1baad48e845df3ce,,,,,,,,,,,,,,,,,,,,,1691.8343,1691.8343,1691.836,1692.8364,0,0,left,0.4813,,1692.8379,1693.7682,0,0,left,1693.7697,1694.6676,1,1,right,0,1694.6676,1694.6677,1694.6698,1696.1682,0,21,21,21,1,0.6,0.4,0.4,0.6,,,,,,,,,,,,,,,0.4056,,0.8,0.2,0.4,0.6,0.6,0.4,0.4,0.6,,,0.3685,,0.4,0.6,0.6,0.4,0.2,0.8,0.6,0.4,1,0
,,612f7826436df8fb008c4f0d,66daf5b9d426239ab21a7a3a,2024-09-06_14h36.50.116,mdp,2024.2.1,Win32,59.88023952,66d7945b1baad48e845df3ce,,,,,,,,,,,,,,,,,,,,,1696.1694,1696.1695,1696.171,1697.2193,0,0,left,0.5216,,1697.221,1698.2189,1,0,right,1698.2219,1699.3867,1,0,right,1,1699.3869,1699.3869,1699.3885,1700.8873,0,22,22,22,1,0.6,0.4,0.4,0.6,,,,,,,,,,,,,,,0.4695,,0.8,0.2,0.4,0.6,0.6,0.4,0.4,0.6,,,0.6527,,0.4,0.6,0.6,0.4,0.2,0.8,0.6,0.4,1,0
,,612f7826436df8fb008c4f0d,66daf5b9d426239ab21a7a3a,2024-09-06_14h36.50.116,mdp,2024.2.1,Win32,59.88023952,66d7945b1baad48e845df3ce,,,,,,,,,,,,,,,,,,,,,1700.8878,1700.8878,1700.8898,1701.7237,0,0,left,0.3142,,1701.7256,1702.6049,1,1,right,1702.6066,1703.4885,0,1,left,0,1703.4886,1703.4886,1703.4901,1704.9894,0,23,23,23,1,0.6,0.4,0.4,0.6,,,,,,,,,,,,,,,0.331,,0.8,0.2,0.4,0.6,0.6,0.4,0.4,0.6,,,0.3664,,0.4,0.6,0.6,0.4,0.2,0.8,0.6,0.4,1,0
,,612f7826436df8fb008c4f0d,66daf5b9d426239ab21a7a3a,2024-09-06_14h36.50.116,mdp,2024.2.1,Win32,59.88023952,66d7945b1baad48e845df3ce,,,,,,,,,,,,,,,,,,,,,1704.99,1704.99,1704.9916,1705.8226,0,0,left,0.3041,,1705.825,1706.6401,1,1,right,1706.6417,1707.4574,1,1,right,0,1707.4575,1707.4575,1707.4589,1708.9581,0,24,24,24,1,0.8,0.2,0.8,0.2,,,,,,,,,,,,,,,0.3046,,0.8,0.2,0.4,0.6,0.6,0.4,0.4,0.6,,,0.2878,,0.4,0.6,0.6,0.4,0.2,0.8,0.6,0.4,1,0
,,612f7826436df8fb008c4f0d,66daf5b9d426239ab21a7a3a,2024-09-06_14h36.50.116,mdp,2024.2.1,Win32,59.88023952,66d7945b1baad48e845df3ce,,,,,,,,,,,,,,,,,,,,,1708.9589,1708.9589,1708.9606,1710.0584,0,0,left,0.5703,,1710.0603,1710.9104,1,1,right,1710.9138,1711.8091,1,0,right,1,1711.8093,1711.8093,1711.8108,1713.31,0,25,25,25,1,0.8,0.2,0.8,0.2,,,,,,,,,,,,,,,0.3284,,0.8,0.2,0.4,0.6,0.6,0.4,0.4,0.6,,,0.3742,,0.8,0.2,0.8,0.2,0.2,0.8,0.6,0.4,1,0
,,612f7826436df8fb008c4f0d,66daf5b9d426239ab21a7a3a,2024-09-06_14h36.50.116,mdp,2024.2.1,Win32,59.88023952,66d7945b1baad48e845df3ce,,,,,,,,,,,,,,,,,,,,,1713.3111,1713.3112,1713.3127,1714.3934,1,0,right,0.5572,,1714.395,1715.4625,0,0,left,1715.4645,1716.6612,0,1,left,0,1716.6615,1716.6616,1716.6635,1718.1613,0,26,26,26,1,0.8,0.2,0.8,0.2,,,,,,,,,,,,,,,0.5465,,0.8,0.2,0.4,0.6,0.6,0.4,0.4,0.6,,,0.6569,,0.8,0.2,0.8,0.2,0.2,0.8,0.6,0.4,1,0
,,612f7826436df8fb008c4f0d,66daf5b9d426239ab21a7a3a,2024-09-06_14h36.50.116,mdp,2024.2.1,Win32,59.88023952,66d7945b1baad48e845df3ce,,,,,,,,,,,,,,,,,,,,,1718.1624,1718.1625,1718.1643,1783.2605,0,0,left,64.5931,,1783.2797,1784.1268,0,0,left,1784.1284,1784.9073,1,0,right,1,1784.9073,1784.9073,1784.9101,1786.4071,0,27,27,27,1,0.8,0.2,0.8,0.2,,,,,,,,,,,,,,,0.3475,,0.8,0.2,0.4,0.6,0.6,0.4,0.4,0.6,,,0.2509,,0.8,0.2,0.8,0.2,0.2,0.8,0.6,0.4,1,0
,,612f7826436df8fb008c4f0d,66daf5b9d426239ab21a7a3a,2024-09-06_14h36.50.116,mdp,2024.2.1,Win32,59.88023952,66d7945b1baad48e845df3ce,,,,,,,,,,,,,,,,,,,,,1786.4082,1786.4082,1786.4109,1787.3087,0,0,left,0.3779,,1787.3117,1788.1585,1,1,right,1788.1613,1788.9754,1,0,right,1,1788.9758,1788.9758,1788.9787,1790.476,0,28,28,28,1,0.8,0.2,0.8,0.2,,,,,,,,,,,,,,,0.3208,,0.8,0.2,0.4,0.6,0.6,0.4,0.4,0.6,,,0.2812,,0.8,0.2,0.8,0.2,0.2,0.8,0.6,0.4,1,0
,,612f7826436df8fb008c4f0d,66daf5b9d426239ab21a7a3a,2024-09-06_14h36.50.116,mdp,2024.2.1,Win32,59.88023952,66d7945b1baad48e845df3ce,,,,,,,,,,,,,,,,,,,,,1790.4785,1790.4785,1790.4802,1791.4094,0,0,left,0.4073,,1791.4128,1792.1274,1,1,right,1792.1307,1792.9937,0,0,left,1,1792.9937,1792.9937,1792.9967,1794.4946,0,29,29,29,1,0.8,0.2,0.8,0.2,,,,,,,,,,,,,,,0.2119,,0.8,0.2,0.4,0.6,0.6,0.4,0.4,0.6,,,0.3353,,0.2,0.8,0.4,0.6,0.2,0.8,0.6,0.4,1,0
,,612f7826436df8fb008c4f0d,66daf5b9d426239ab21a7a3a,2024-09-06_14h36.50.116,mdp,2024.2.1,Win32,59.88023952,66d7945b1baad48e845df3ce,,,,,,,,,,,,,,,,,,,,,1794.4962,1794.4963,1794.4979,1795.4959,0,0,left,0.4718,,1795.4983,1796.362,1,0,right,1796.3652,1797.1626,0,1,left,0,1797.1628,1797.1628,1797.1653,1798.6625,0,30,30,30,1,0.8,0.2,0.8,0.2,,,,,,,,,,,,,,,0.3386,,0.8,0.2,0.4,0.6,0.6,0.4,0.4,0.6,,,0.2593,,0.2,0.8,0.4,0.6,0.2,0.8,0.6,0.4,1,0
,,612f7826436df8fb008c4f0d,66daf5b9d426239ab21a7a3a,2024-09-06_14h36.50.116,mdp,2024.2.1,Win32,59.88023952,66d7945b1baad48e845df3ce,,,,,,,,,,,,,,,,,,,,,1798.6635,1798.6637,1798.6663,1799.7132,1,0,right,0.5225,,1799.7169,1800.5139,1,0,right,1800.5171,1801.5337,1,1,right,0,1801.5338,1801.5338,1801.5355,1803.0313,0,31,31,31,1,0.8,0.2,0.8,0.2,,,,,,,,,,,,,,,0.2847,,0.8,0.2,0.4,0.6,0.6,0.4,0.4,0.6,,,0.4977,,0.2,0.8,0.4,0.6,0.2,0.8,0.6,0.4,1,0
,,612f7826436df8fb008c4f0d,66daf5b9d426239ab21a7a3a,2024-09-06_14h36.50.116,mdp,2024.2.1,Win32,59.88023952,66d7945b1baad48e845df3ce,,,,,,,,,,,,,,,,,,,,,1803.0334,1803.0334,1803.0352,1803.5814,0,0,left,0.0154,,1803.5847,1804.3815,0,1,left,1804.385,1805.1497,1,1,right,0,1805.1497,1805.1497,1805.1529,1806.6494,0,32,32,32,1,0.8,0.2,0.8,0.2,,,,,,,,,,,,,,,0.2713,,0.8,0.2,0.4,0.6,0.6,0.4,0.4,0.6,,,0.2403,,0.2,0.8,0.4,0.6,0.2,0.8,0.6,0.4,1,0
,,612f7826436df8fb008c4f0d,66daf5b9d426239ab21a7a3a,2024-09-06_14h36.50.116,mdp,2024.2.1,Win32,59.88023952,66d7945b1baad48e845df3ce,,,,,,,,,,,,,,,,,,,,,1806.6504,1806.6504,1806.6531,1807.3508,0,1,left,0.1673,,1807.3538,1807.9843,0,1,left,1807.9883,1809.0847,0,1,left,0,1809.0848,1809.0848,1809.0876,1810.5845,0,33,33,33,1,0.8,0.2,0.8,0.2,,,,,,,,,,,,,,,0.1035,,0.2,0.8,0.6,0.4,0.6,0.4,0.4,0.6,,,0.5708,,0.2,0.8,0.4,0.6,0.2,0.8,0.6,0.4,1,0
,,612f7826436df8fb008c4f0d,66daf5b9d426239ab21a7a3a,2024-09-06_14h36.50.116,mdp,2024.2.1,Win32,59.88023952,66d7945b1baad48e845df3ce,,,,,,,,,,,,,,,,,,,,,1810.5872,1810.5872,1810.5891,1811.452,1,0,right,0.3421,,1811.455,1812.2197,1,1,right,1812.2227,1813.1196,1,1,right,0,1813.1196,1813.1197,1813.1226,1814.6202,0,34,34,34,1,0.8,0.2,0.8,0.2,,,,,,,,,,,,,,,0.2335,,0.2,0.8,0.6,0.4,0.6,0.4,0.4,0.6,,,0.3688,,0.4,0.6,0.6,0.4,0.2,0.8,0.6,0.4,1,0
,,612f7826436df8fb008c4f0d,66daf5b9d426239ab21a7a3a,2024-09-06_14h36.50.116,mdp,2024.2.1,Win32,59.88023952,66d7945b1baad48e845df3ce,,,,,,,,,,,,,,,,,,,,,1814.6217,1814.6217,1814.6234,1815.5049,0,0,left,0.3536,,1815.5079,1816.5052,0,1,left,1816.509,1817.8716,1,0,right,1,1817.8722,1817.8723,1817.8752,1819.3724,0,35,35,35,1,0.8,0.2,0.8,0.2,,,,,,,,,,,,,,,0.4785,,0.2,0.8,0.6,0.4,0.6,0.4,0.4,0.6,,,0.8349,,0.4,0.6,0.6,0.4,0.2,0.8,0.6,0.4,1,0
,,612f7826436df8fb008c4f0d,66daf5b9d426239ab21a7a3a,2024-09-06_14h36.50.116,mdp,2024.2.1,Win32,59.88023952,66d7945b1baad48e845df3ce,,,,,,,,,,,,,,,,,,,,,1819.3741,1819.3741,1819.376,1820.3396,0,0,left,0.4345,,1820.3424,1821.24,1,0,right,1821.2433,1822.3235,1,1,right,0,1822.3237,1822.3237,1822.327,1823.8238,0,36,36,36,1,0.8,0.2,0.8,0.2,,,,,,,,,,,,,,,0.3708,,0.4,0.6,0.8,0.2,0.6,0.4,0.4,0.6,,,0.5414,,0.4,0.6,0.6,0.4,0.2,0.8,0.6,0.4,1,0
,,612f7826436df8fb008c4f0d,66daf5b9d426239ab21a7a3a,2024-09-06_14h36.50.116,mdp,2024.2.1,Win32,59.88023952,66d7945b1baad48e845df3ce,,,,,,,,,,,,,,,,,,,,,1823.8258,1823.8258,1823.8277,1824.6576,0,0,left,0.3015,,1824.6606,1825.3585,0,1,left,1825.3621,1826.092,0,1,left,0,1826.0921,1826.0921,1826.095,1827.5924,0,37,37,37,1,0.8,0.2,0.8,0.2,,,,,,,,,,,,,,,0.1771,,0.4,0.6,0.8,0.2,0.6,0.4,0.4,0.6,,,0.1923,,0.4,0.6,0.6,0.4,0.2,0.8,0.6,0.4,1,0
,,612f7826436df8fb008c4f0d,66daf5b9d426239ab21a7a3a,2024-09-06_14h36.50.116,mdp,2024.2.1,Win32,59.88023952,66d7945b1baad48e845df3ce,,,,,,,,,,,,,,,,,,,,,1827.594,1827.594,1827.5969,1828.8269,1,0,right,0.7022,,1828.8299,1829.7112,1,0,right,1829.7142,1831.0944,1,0,right,1,1831.0946,1831.0947,1831.0974,1832.5948,0,38,38,38,1,0.8,0.2,0.8,0.2,,,,,,,,,,,,,,,0.3635,,0.4,0.6,0.8,0.2,0.6,0.4,0.4,0.6,,,0.8441,,0.4,0.6,0.6,0.4,0.2,0.8,0.6,0.4,1,0
,,612f7826436df8fb008c4f0d,66daf5b9d426239ab21a7a3a,2024-09-06_14h36.50.116,mdp,2024.2.1,Win32,59.88023952,66d7945b1baad48e845df3ce,,,,,,,,,,,,,,,,,,,,,1832.5971,1832.5971,1832.5987,1833.1285,0,0,left,0.0009,,1833.1319,1834.0625,0,0,left,1834.0655,1835.2462,0,0,left,1,1835.2463,1835.2463,1835.2499,1836.7462,0,39,39,39,1,0.8,0.2,0.8,0.2,,,,,,,,,,,,,,,0.4011,,0.8,0.2,0.2,0.8,0.6,0.4,0.4,0.6,,,0.6588,,0.4,0.6,0.6,0.4,0.2,0.8,0.6,0.4,1,0
,,612f7826436df8fb008c4f0d,66daf5b9d426239ab21a7a3a,2024-09-06_14h36.50.116,mdp,2024.2.1,Win32,59.88023952,66d7945b1baad48e845df3ce,,,,,,,,,,,,,,,,,,,,,1836.7482,1836.7482,1836.7501,1837.8154,0,0,left,0.5354,,1837.8174,1838.7846,0,1,left,1838.7862,1839.9481,0,1,left,0,1839.9482,1839.9482,1839.9511,1841.4487,0,40,40,40,1,0.8,0.2,0.8,0.2,,,,,,,,,,,,,,,0.4479,,0.8,0.2,0.2,0.8,0.6,0.4,0.4,0.6,,,0.6257,,0.4,0.6,0.6,0.4,0.2,0.8,0.6,0.4,1,0
,,612f7826436df8fb008c4f0d,66daf5b9d426239ab21a7a3a,2024-09-06_14h36.50.116,mdp,2024.2.1,Win32,59.88023952,66d7945b1baad48e845df3ce,,,,,,,,,,,,,,,,,,,,,1841.4509,1841.4509,1841.4526,1842.4492,0,0,left,0.4682,,1842.452,1843.2858,1,1,right,1843.2875,1844.3666,1,0,right,1,1844.3667,1844.3667,1844.3699,1845.8674,0,41,41,41,1,0.8,0.2,0.8,0.2,,,,,,,,,,,,,,,0.3133,,0.8,0.2,0.2,0.8,0.6,0.4,0.4,0.6,,,0.5522,,0.4,0.6,0.6,0.4,0.6,0.4,0.2,0.8,1,0
,,612f7826436df8fb008c4f0d,66daf5b9d426239ab21a7a3a,2024-09-06_14h36.50.116,mdp,2024.2.1,Win32,59.88023952,66d7945b1baad48e845df3ce,,,,,,,,,,,,,,,,,,,,,1845.8697,1845.8698,1845.8716,1846.854,0,0,left,0.4621,,1846.856,1847.8189,1,1,right,1847.8219,1848.6699,0,0,left,1,1848.6701,1848.6701,1848.6729,1850.1691,0,42,42,42,1,0.8,0.2,0.8,0.2,,,,,,,,,,,,,,,0.4375,,0.8,0.2,0.2,0.8,0.6,0.4,0.4,0.6,,,0.3379,,0.4,0.6,0.6,0.4,0.6,0.4,0.2,0.8,1,0
,,612f7826436df8fb008c4f0d,66daf5b9d426239ab21a7a3a,2024-09-06_14h36.50.116,mdp,2024.2.1,Win32,59.88023952,66d7945b1baad48e845df3ce,,,,,,,,,,,,,,,,,,,,,1850.1709,1850.1722,1850.1741,1853.7225,1,1,right,3.0245,,1853.7374,1854.6039,1,1,right,1854.6074,1855.5546,1,1,right,0,1855.5547,1855.5547,1855.5581,1857.0566,0,43,43,43,1,0.8,0.2,0.8,0.2,,,,,,,,,,,,,,,0.3411,,0.8,0.2,0.2,0.8,0.6,0.4,0.4,0.6,,,0.4413,,0.4,0.6,0.6,0.4,0.6,0.4,0.2,0.8,1,0
,,612f7826436df8fb008c4f0d,66daf5b9d426239ab21a7a3a,2024-09-06_14h36.50.116,mdp,2024.2.1,Win32,59.88023952,66d7945b1baad48e845df3ce,,,,,,,,,,,,,,,,,,,,,1857.058,1857.058,1857.0598,1857.9071,0,0,left,0.3187,,1857.9102,1858.7404,0,0,left,1858.7438,1859.7914,0,1,left,0,1859.792,1859.7921,1859.7941,1861.2905,0,44,44,44,1,0.8,0.2,0.8,0.2,,,,,,,,,,,,,,,0.3015,,0.8,0.2,0.2,0.8,0.6,0.4,0.4,0.6,,,0.5083,,0.4,0.6,0.6,0.4,0.2,0.8,0.6,0.4,1,0
,,612f7826436df8fb008c4f0d,66daf5b9d426239ab21a7a3a,2024-09-06_14h36.50.116,mdp,2024.2.1,Win32,59.88023952,66d7945b1baad48e845df3ce,,,,,,,,,,,,,,,,,,,,,1861.2932,1861.2934,1861.2949,1862.1087,1,0,right,0.2971,,1862.1118,1862.9754,1,0,right,1862.9787,1863.9416,1,1,right,0,1863.9419,1863.9419,1863.9453,1865.4422,0,45,45,45,1,0.8,0.2,0.8,0.2,,,,,,,,,,,,,,,0.3407,,0.8,0.2,0.2,0.8,0.6,0.4,0.4,0.6,,,0.4401,,0.4,0.6,0.6,0.4,0.2,0.8,0.6,0.4,1,0
,,612f7826436df8fb008c4f0d,66daf5b9d426239ab21a7a3a,2024-09-06_14h36.50.116,mdp,2024.2.1,Win32,59.88023952,66d7945b1baad48e845df3ce,,,,,,,,,,,,,,,,,,,,,1865.444,1865.4441,1865.4467,1866.3471,0,1,left,0.3689,,1866.3499,1867.8436,0,1,left,1867.8471,1868.8295,1,1,right,0,1868.8296,1868.8296,1868.8325,1870.3277,0,46,46,46,1,0.8,0.2,0.8,0.2,,,,,,,,,,,,,,,0.9631,,0.8,0.2,0.2,0.8,0.6,0.4,0.4,0.6,,,0.4657,,0.4,0.6,0.6,0.4,0.2,0.8,0.6,0.4,1,0
,,612f7826436df8fb008c4f0d,66daf5b9d426239ab21a7a3a,2024-09-06_14h36.50.116,mdp,2024.2.1,Win32,59.88023952,66d7945b1baad48e845df3ce,,,,,,,,,,,,,,,,,,,,,1870.3297,1870.3297,1870.3316,1873.4627,0,1,left,2.6098,,1873.4781,1875.431,1,0,right,1875.4339,1876.7483,0,0,left,1,1876.7484,1876.7484,1876.7513,1878.2481,0,47,47,47,1,0.8,0.2,0.8,0.2,,,,,,,,,,,,,,,1.4355,,0.8,0.2,0.2,0.8,0.6,0.4,0.4,0.6,,,0.7744,,0.4,0.6,0.6,0.4,0.2,0.8,0.6,0.4,1,0
,,612f7826436df8fb008c4f0d,66daf5b9d426239ab21a7a3a,2024-09-06_14h36.50.116,mdp,2024.2.1,Win32,59.88023952,66d7945b1baad48e845df3ce,,,,,,,,,,,,,,,,,,,,,1878.2503,1878.2503,1878.2521,1882.7175,0,0,left,3.9372,,1882.7324,1883.8695,1,1,right,1883.8712,1885.104,1,0,right,1,1885.1041,1885.1041,1885.1055,1886.6036,0,48,48,48,1,0.8,0.2,0.8,0.2,,,,,,,,,,,,,,,0.6235,,0.8,0.2,0.2,0.8,0.6,0.4,0.4,0.6,,,0.703,,0.4,0.6,0.6,0.4,0.2,0.8,0.6,0.4,1,0
,,612f7826436df8fb008c4f0d,66daf5b9d426239ab21a7a3a,2024-09-06_14h36.50.116,mdp,2024.2.1,Win32,59.88023952,66d7945b1baad48e845df3ce,,,,,,,,,,,,,,,,,,,,,1886.6042,1886.6042,1886.6056,1908.5301,0,0,left,21.3961,,1908.5467,1910.0327,1,1,right,1910.0347,1911.1632,0,1,left,0,1911.1633,1911.1633,1911.1662,1912.6635,0,49,49,49,1,0.8,0.2,0.8,0.2,,,,,,,,,,,,,,,0.9808,,0.8,0.2,0.2,0.8,0.6,0.4,0.4,0.6,,,0.6054,,0.4,0.6,0.6,0.4,0.2,0.8,0.6,0.4,1,0
,,612f7826436df8fb008c4f0d,66daf5b9d426239ab21a7a3a,2024-09-06_14h36.50.116,mdp,2024.2.1,Win32,59.88023952,66d7945b1baad48e845df3ce,,,,,,,,,,,,,,,,,,,,,,,,,,,,,,,,,,,,,,,,,,,,,,,,,,,,,,,,1912.6642,2062.4092,0,3,3,4,1,imgs/giraffe.png,imgs/rabbit.png,imgs/dog.png,imgs/squirrel.png,imgs/pig.png,,,,,,,,,,,,,,,,,,,,,,,,
,,612f7826436df8fb008c4f0d,66daf5b9d426239ab21a7a3a,2024-09-06_14h36.50.116,mdp,2024.2.1,Win32,59.88023952,66d7945b1baad48e845df3ce,,,,,,,,,,,,,,1,seqs/st1seq25.csv,2062.4502,2063.5388,space,0.5583,,2063.5504,2063.5505,2063.5524,2065.5327,0,0,left,1.453,0.0003,2065.5359,2065.5372,1,0,,2065.5386,2065.54,0,0,,1,2065.54,2065.54,2065.5412,2067.0327,0,0,0,0,1,0.6,0.4,0.4,0.6,1,0,,,,,,,,,,,,,,,,,,,,,,,,,,,,,,,,,,,,
,,612f7826436df8fb008c4f0d,66daf5b9d426239ab21a7a3a,2024-09-06_14h36.50.116,mdp,2024.2.1,Win32,59.88023952,66d7945b1baad48e845df3ce,,,,,,,,,,,,,,,,,,,,,2067.0344,2067.0344,2067.0368,2070.267,0,1,left,2.7028,,2070.2704,2070.2718,1,1,,2070.2732,2070.2742,0,1,,0,2070.2743,2070.2743,2070.2755,2071.7678,0,1,1,1,1,0.4,0.6,0.8,0.2,1,0,,,,,,,,,,,,,,,,,,,,,,,,,,,,,,,,,,,,
,,612f7826436df8fb008c4f0d,66daf5b9d426239ab21a7a3a,2024-09-06_14h36.50.116,mdp,2024.2.1,Win32,59.88023952,66d7945b1baad48e845df3ce,,,,,,,,,,,,,,,,,,,,,2071.7698,2071.7698,2071.772,2074.3365,0,1,left,2.0363,,2074.3393,2074.3406,1,1,,2074.3417,2074.3428,0,1,,0,2074.3428,2074.3429,2074.344,2075.8365,0,2,2,2,1,0.4,0.6,0.8,0.2,1,0,,,,,,,,,,,,,,,,,,,,,,,,,,,,,,,,,,,,
,,612f7826436df8fb008c4f0d,66daf5b9d426239ab21a7a3a,2024-09-06_14h36.50.116,mdp,2024.2.1,Win32,59.88023952,66d7945b1baad48e845df3ce,,,,,,,,,,,,,,,,,,,,,2075.8374,2075.8374,2075.8403,2077.3203,1,1,right,0.9512,,2077.3235,2077.3247,1,0,,2077.3261,2077.3274,0,1,,0,2077.3274,2077.3274,2077.3289,2078.8215,0,3,3,3,1,0.4,0.6,0.8,0.2,1,0,,,,,,,,,,,,,,,,,,,,,,,,,,,,,,,,,,,,
,,612f7826436df8fb008c4f0d,66daf5b9d426239ab21a7a3a,2024-09-06_14h36.50.116,mdp,2024.2.1,Win32,59.88023952,66d7945b1baad48e845df3ce,,,,,,,,,,,,,,,,,,,,,2078.8229,2078.8229,2078.8247,2082.0741,1,0,right,2.7187,,2082.0766,2082.0782,1,0,,2082.0798,2082.0812,0,0,,1,2082.0813,2082.0813,2082.0827,2083.5725,0,4,4,4,1,0.4,0.6,0.8,0.2,1,0,,,,,,,,,,,,,,,,,,,,,,,,,,,,,,,,,,,,
,,612f7826436df8fb008c4f0d,66daf5b9d426239ab21a7a3a,2024-09-06_14h36.50.116,mdp,2024.2.1,Win32,59.88023952,66d7945b1baad48e845df3ce,,,,,,,,,,,,,,,,,,,,,2083.5738,2083.5739,2083.5766,2084.6589,0,0,left,0.5631,,2084.662,2084.6631,1,1,,2084.6644,2084.6656,0,0,,1,2084.6657,2084.6657,2084.6669,2086.1575,0,5,5,5,1,0.4,0.6,0.8,0.2,1,0,,,,,,,,,,,,,,,,,,,,,,,,,,,,,,,,,,,,
,,612f7826436df8fb008c4f0d,66daf5b9d426239ab21a7a3a,2024-09-06_14h36.50.116,mdp,2024.2.1,Win32,59.88023952,66d7945b1baad48e845df3ce,,,,,,,,,,,,,,,,,,,,,2086.1589,2086.1589,2086.1614,2086.8591,1,0,right,0.1789,,2086.8624,2086.8638,1,0,,2086.865,2086.8662,0,0,,1,2086.8662,2086.8662,2086.8674,2088.3586,0,6,6,6,1,0.4,0.6,0.8,0.2,1,0,,,,,,,,,,,,,,,,,,,,,,,,,,,,,,,,,,,,
,,612f7826436df8fb008c4f0d,66daf5b9d426239ab21a7a3a,2024-09-06_14h36.50.116,mdp,2024.2.1,Win32,59.88023952,66d7945b1baad48e845df3ce,,,,,,,,,,,,,,,,,,,,,2088.3603,2088.3604,2088.3624,2089.2264,0,0,left,0.3364,,2089.2294,2089.2307,1,0,,2089.2318,2089.2329,0,1,,1,2089.233,2089.233,2089.2341,2090.7272,0,7,7,7,1,0.4,0.6,0.8,0.2,1,0,,,,,,,,,,,,,,,,,,,,,,,,,,,,,,,,,,,,
,,612f7826436df8fb008c4f0d,66daf5b9d426239ab21a7a3a,2024-09-06_14h36.50.116,mdp,2024.2.1,Win32,59.88023952,66d7945b1baad48e845df3ce,,,,,,,,,,,,,,,,,,,,,2090.7283,2090.7284,2090.7302,2091.7629,1,0,right,0.5139,,2091.7645,2091.7655,1,1,,2091.7668,2091.768,0,0,,1,2091.768,2091.768,2091.7691,2093.2625,0,8,8,8,1,0.8,0.2,0.6,0.4,1,0,,,,,,,,,,,,,,,,,,,,,,,,,,,,,,,,,,,,
,,612f7826436df8fb008c4f0d,66daf5b9d426239ab21a7a3a,2024-09-06_14h36.50.116,mdp,2024.2.1,Win32,59.88023952,66d7945b1baad48e845df3ce,,,,,,,,,,,,,,,,,,,,,2093.263,2093.263,2093.2644,2095.6469,0,1,left,1.8534,,2095.6487,2095.6498,1,0,,2095.651,2095.6521,0,1,,0,2095.6521,2095.6521,2095.6532,2097.1477,0,9,9,9,1,0.8,0.2,0.6,0.4,1,0,,,,,,,,,,,,,,,,,,,,,,,,,,,,,,,,,,,,
,,612f7826436df8fb008c4f0d,66daf5b9d426239ab21a7a3a,2024-09-06_14h36.50.116,mdp,2024.2.1,Win32,59.88023952,66d7945b1baad48e845df3ce,,,,,,,,,,,,,,,,,,,,,2097.1482,2097.1482,2097.1497,2098.0981,1,0,right,0.4187,,2098.0998,2098.1011,1,0,,2098.1027,2098.1048,0,1,,1,2098.1049,2098.1049,2098.1066,2099.5983,0,10,10,10,1,0.8,0.2,0.6,0.4,1,0,,,,,,,,,,,,,,,,,,,,,,,,,,,,,,,,,,,,
,,612f7826436df8fb008c4f0d,66daf5b9d426239ab21a7a3a,2024-09-06_14h36.50.116,mdp,2024.2.1,Win32,59.88023952,66d7945b1baad48e845df3ce,,,,,,,,,,,,,,,,,,,,,2099.5993,2099.5993,2099.6008,2100.4993,0,0,left,0.3722,,2100.5008,2100.503,1,0,,2100.5042,2100.5054,0,0,,1,2100.5054,2100.5054,2100.5064,2101.9992,0,11,11,11,1,0.8,0.2,0.6,0.4,1,0,,,,,,,,,,,,,,,,,,,,,,,,,,,,,,,,,,,,
,,612f7826436df8fb008c4f0d,66daf5b9d426239ab21a7a3a,2024-09-06_14h36.50.116,mdp,2024.2.1,Win32,59.88023952,66d7945b1baad48e845df3ce,,,,,,,,,,,,,,,,,,,,,2101.9996,2101.9997,2102.0015,2103.4505,0,0,left,0.9201,,2103.4521,2103.4534,1,0,,2103.4548,2103.4559,0,0,,1,2103.4559,2103.456,2103.4571,2104.9509,0,12,12,12,1,0.8,0.2,0.6,0.4,1,0,,,,,,,,,,,,,,,,,,,,,,,,,,,,,,,,,,,,
,,612f7826436df8fb008c4f0d,66daf5b9d426239ab21a7a3a,2024-09-06_14h36.50.116,mdp,2024.2.1,Win32,59.88023952,66d7945b1baad48e845df3ce,,,,,,,,,,,,,,,,,,,,,2104.9516,2104.9516,2104.9532,2105.8343,1,0,right,0.3582,,2105.8363,2105.8376,1,0,,2105.8388,2105.84,0,1,,1,2105.84,2105.84,2105.8412,2107.335,0,13,13,13,1,0.8,0.2,0.6,0.4,1,0,,,,,,,,,,,,,,,,,,,,,,,,,,,,,,,,,,,,
,,612f7826436df8fb008c4f0d,66daf5b9d426239ab21a7a3a,2024-09-06_14h36.50.116,mdp,2024.2.1,Win32,59.88023952,66d7945b1baad48e845df3ce,,,,,,,,,,,,,,,,,,,,,2107.3359,2107.3359,2107.3373,2108.186,1,0,right,0.3193,,2108.1875,2108.1887,1,1,,2108.1899,2108.191,0,0,,1,2108.191,2108.191,2108.1921,2109.6859,0,14,14,14,1,0.8,0.2,0.6,0.4,1,0,,,,,,,,,,,,,,,,,,,,,,,,,,,,,,,,,,,,
,,612f7826436df8fb008c4f0d,66daf5b9d426239ab21a7a3a,2024-09-06_14h36.50.116,mdp,2024.2.1,Win32,59.88023952,66d7945b1baad48e845df3ce,,,,,,,,,,,,,,,,,,,,,2109.6865,2109.6865,2109.6888,2110.9539,0,0,left,0.7526,,2110.9553,2110.9565,1,1,,2110.9577,2110.9587,0,1,,1,2110.9588,2110.9588,2110.9601,2112.4538,0,15,15,15,1,0.8,0.2,0.6,0.4,1,0,,,,,,,,,,,,,,,,,,,,,,,,,,,,,,,,,,,,
,,612f7826436df8fb008c4f0d,66daf5b9d426239ab21a7a3a,2024-09-06_14h36.50.116,mdp,2024.2.1,Win32,59.88023952,66d7945b1baad48e845df3ce,,,,,,,,,,,,,,,,,,,,,2112.455,2112.4551,2112.4565,2113.355,1,0,right,0.3679,,2113.3565,2113.3576,1,1,,2113.3589,2113.36,0,0,,1,2113.36,2113.36,2113.3613,2114.8552,0,16,16,16,1,0.8,0.2,0.6,0.4,1,0,,,,,,,,,,,,,,,,,,,,,,,,,,,,,,,,,,,,
,,612f7826436df8fb008c4f0d,66daf5b9d426239ab21a7a3a,2024-09-06_14h36.50.116,mdp,2024.2.1,Win32,59.88023952,66d7945b1baad48e845df3ce,,,,,,,,,,,,,,,,,,,,,2114.8563,2114.8563,2114.8581,2115.9053,0,0,left,0.5183,,2115.9074,2115.9086,1,0,,2115.9101,2115.9113,0,0,,1,2115.9113,2115.9113,2115.9126,2117.4057,0,17,17,17,1,0.8,0.2,0.6,0.4,1,0,,,,,,,,,,,,,,,,,,,,,,,,,,,,,,,,,,,,
,,612f7826436df8fb008c4f0d,66daf5b9d426239ab21a7a3a,2024-09-06_14h36.50.116,mdp,2024.2.1,Win32,59.88023952,66d7945b1baad48e845df3ce,,,,,,,,,,,,,,,,,,,,,2117.4071,2117.4071,2117.409,2118.1735,0,0,left,0.2357,,2118.1754,2118.1772,1,0,,2118.1787,2118.1801,0,0,,1,2118.1802,2118.1802,2118.1817,2119.6736,0,18,18,18,1,0.8,0.2,0.6,0.4,1,0,,,,,,,,,,,,,,,,,,,,,,,,,,,,,,,,,,,,
,,612f7826436df8fb008c4f0d,66daf5b9d426239ab21a7a3a,2024-09-06_14h36.50.116,mdp,2024.2.1,Win32,59.88023952,66d7945b1baad48e845df3ce,,,,,,,,,,,,,,,,,,,,,2119.6745,2119.6746,2119.6764,2120.7744,1,0,right,0.5706,,2120.7767,2120.7791,1,0,,2120.7807,2120.7822,0,0,,1,2120.7823,2120.7823,2120.7837,2122.2735,0,19,19,19,1,0.2,0.8,0.8,0.2,1,0,,,,,,,,,,,,,,,,,,,,,,,,,,,,,,,,,,,,
,,612f7826436df8fb008c4f0d,66daf5b9d426239ab21a7a3a,2024-09-06_14h36.50.116,mdp,2024.2.1,Win32,59.88023952,66d7945b1baad48e845df3ce,,,,,,,,,,,,,,,,,,,,,2122.2752,2122.2752,2122.2775,2123.1572,1,0,right,0.352,,2123.1607,2123.162,1,0,,2123.1635,2123.1647,0,0,,1,2123.1648,2123.1648,2123.1661,2124.6575,0,20,20,20,1,0.2,0.8,0.8,0.2,1,0,,,,,,,,,,,,,,,,,,,,,,,,,,,,,,,,,,,,
,,612f7826436df8fb008c4f0d,66daf5b9d426239ab21a7a3a,2024-09-06_14h36.50.116,mdp,2024.2.1,Win32,59.88023952,66d7945b1baad48e845df3ce,,,,,,,,,,,,,,,,,,,,,2124.6595,2124.6596,2124.6616,2125.4441,1,0,right,0.2625,,2125.4463,2125.4476,1,0,,2125.4489,2125.4501,0,0,,1,2125.4502,2125.4502,2125.4515,2126.9428,0,21,21,21,1,0.8,0.2,0.4,0.6,1,0,,,,,,,,,,,,,,,,,,,,,,,,,,,,,,,,,,,,
,,612f7826436df8fb008c4f0d,66daf5b9d426239ab21a7a3a,2024-09-06_14h36.50.116,mdp,2024.2.1,Win32,59.88023952,66d7945b1baad48e845df3ce,,,,,,,,,,,,,,,,,,,,,2126.9433,2126.9433,2126.9454,2128.0597,0,0,left,0.5879,,2128.0629,2128.0641,1,0,,2128.0656,2128.0668,0,0,,1,2128.0669,2128.0669,2128.068,2129.5606,0,22,22,22,1,0.8,0.2,0.4,0.6,1,0,,,,,,,,,,,,,,,,,,,,,,,,,,,,,,,,,,,,
,,612f7826436df8fb008c4f0d,66daf5b9d426239ab21a7a3a,2024-09-06_14h36.50.116,mdp,2024.2.1,Win32,59.88023952,66d7945b1baad48e845df3ce,,,,,,,,,,,,,,,,,,,,,2129.5625,2129.5625,2129.5644,2130.1476,1,0,right,0.0635,,2130.1495,2130.1506,1,1,,2130.1518,2130.1529,0,1,,1,2130.1529,2130.1529,2130.1542,2131.6449,0,23,23,23,1,0.8,0.2,0.4,0.6,1,0,,,,,,,,,,,,,,,,,,,,,,,,,,,,,,,,,,,,
,,612f7826436df8fb008c4f0d,66daf5b9d426239ab21a7a3a,2024-09-06_14h36.50.116,mdp,2024.2.1,Win32,59.88023952,66d7945b1baad48e845df3ce,,,,,,,,,,,,,,,,,,,,,2131.6463,2131.6466,2131.6486,2132.2957,1,0,right,0.1221,,2132.2986,2132.2997,1,0,,2132.301,2132.3022,0,1,,1,2132.3023,2132.3023,2132.3033,2133.7959,0,24,24,24,1,0.8,0.2,0.4,0.6,1,0,,,,,,,,,,,,,,,,,,,,,,,,,,,,,,,,,,,,
,,612f7826436df8fb008c4f0d,66daf5b9d426239ab21a7a3a,2024-09-06_14h36.50.116,mdp,2024.2.1,Win32,59.88023952,66d7945b1baad48e845df3ce,,,,,,,,,,,,,,,,,,,,,2133.7972,2133.7979,2133.7998,2134.9304,0,0,left,0.6019,,2134.9332,2134.9344,1,0,,2134.936,2134.9373,0,0,,1,2134.9375,2134.9375,2134.9389,2136.4305,0,25,25,25,1,0.8,0.2,0.4,0.6,1,0,,,,,,,,,,,,,,,,,,,,,,,,,,,,,,,,,,,,
,,612f7826436df8fb008c4f0d,66daf5b9d426239ab21a7a3a,2024-09-06_14h36.50.116,mdp,2024.2.1,Win32,59.88023952,66d7945b1baad48e845df3ce,,,,,,,,,,,,,,,,,,,,,2136.4323,2136.4323,2136.4341,2137.0978,1,0,right,0.136,,2137.1006,2137.1017,1,1,,2137.1028,2137.1039,0,0,,1,2137.1039,2137.1039,2137.1059,2138.5978,0,26,26,26,1,0.6,0.4,0.6,0.4,1,0,,,,,,,,,,,,,,,,,,,,,,,,,,,,,,,,,,,,
,,612f7826436df8fb008c4f0d,66daf5b9d426239ab21a7a3a,2024-09-06_14h36.50.116,mdp,2024.2.1,Win32,59.88023952,66d7945b1baad48e845df3ce,,,,,,,,,,,,,,,,,,,,,2138.6005,2138.6005,2138.6021,2139.3825,0,0,left,0.2624,,2139.3854,2139.3865,1,0,,2139.3877,2139.3889,0,0,,1,2139.389,2139.389,2139.39,2140.8821,0,27,27,27,1,0.6,0.4,0.6,0.4,1,0,,,,,,,,,,,,,,,,,,,,,,,,,,,,,,,,,,,,
,,612f7826436df8fb008c4f0d,66daf5b9d426239ab21a7a3a,2024-09-06_14h36.50.116,mdp,2024.2.1,Win32,59.88023952,66d7945b1baad48e845df3ce,,,,,,,,,,,,,,,,,,,,,2140.884,2140.8842,2140.8861,2141.6331,0,1,left,0.2188,,2141.6359,2141.637,1,0,,2141.6382,2141.6393,0,1,,0,2141.6394,2141.6395,2141.6405,2143.1331,0,28,28,28,1,0.6,0.4,0.6,0.4,1,0,,,,,,,,,,,,,,,,,,,,,,,,,,,,,,,,,,,,
,,612f7826436df8fb008c4f0d,66daf5b9d426239ab21a7a3a,2024-09-06_14h36.50.116,mdp,2024.2.1,Win32,59.88023952,66d7945b1baad48e845df3ce,,,,,,,,,,,,,,,,,,,,,2143.1352,2143.1352,2143.1375,2144.0176,1,0,right,0.352,,2144.0206,2144.0217,1,0,,2144.0229,2144.0239,0,1,,1,2144.0239,2144.0239,2144.025,2145.5176,0,29,29,29,1,0.8,0.2,0.4,0.6,1,0,,,,,,,,,,,,,,,,,,,,,,,,,,,,,,,,,,,,
,,612f7826436df8fb008c4f0d,66daf5b9d426239ab21a7a3a,2024-09-06_14h36.50.116,mdp,2024.2.1,Win32,59.88023952,66d7945b1baad48e845df3ce,,,,,,,,,,,,,,,,,,,,,2145.5191,2145.5192,2145.5213,2146.5844,1,1,right,0.535,,2146.5876,2146.5888,1,1,,2146.5907,2146.5941,0,1,,0,2146.5941,2146.5942,2146.5954,2148.086,0,30,30,30,1,0.6,0.4,0.2,0.8,1,0,,,,,,,,,,,,,,,,,,,,,,,,,,,,,,,,,,,,
,,612f7826436df8fb008c4f0d,66daf5b9d426239ab21a7a3a,2024-09-06_14h36.50.116,mdp,2024.2.1,Win32,59.88023952,66d7945b1baad48e845df3ce,,,,,,,,,,,,,,,,,,,,,2148.0874,2148.0874,2148.0892,2148.7694,1,1,right,0.1577,,2148.7724,2148.7735,1,1,,2148.7747,2148.7758,0,1,,0,2148.7759,2148.7759,2148.7773,2150.2698,0,31,31,31,1,0.6,0.4,0.2,0.8,1,0,,,,,,,,,,,,,,,,,,,,,,,,,,,,,,,,,,,,
,,612f7826436df8fb008c4f0d,66daf5b9d426239ab21a7a3a,2024-09-06_14h36.50.116,mdp,2024.2.1,Win32,59.88023952,66d7945b1baad48e845df3ce,,,,,,,,,,,,,,,,,,,,,2150.2712,2150.2713,2150.2744,2151.2071,1,1,right,0.4144,,2151.2085,2151.2097,1,0,,2151.2109,2151.212,0,0,,0,2151.212,2151.212,2151.2131,2152.7046,0,32,32,32,1,0.6,0.4,0.2,0.8,1,0,,,,,,,,,,,,,,,,,,,,,,,,,,,,,,,,,,,,
,,612f7826436df8fb008c4f0d,66daf5b9d426239ab21a7a3a,2024-09-06_14h36.50.116,mdp,2024.2.1,Win32,59.88023952,66d7945b1baad48e845df3ce,,,,,,,,,,,,,,,,,,,,,2152.7062,2152.7062,2152.7081,2153.5548,1,1,right,0.317,,2153.5579,2153.5591,1,1,,2153.5604,2153.5614,0,1,,0,2153.5615,2153.5615,2153.5626,2155.0556,0,33,33,33,1,0.6,0.4,0.2,0.8,1,0,,,,,,,,,,,,,,,,,,,,,,,,,,,,,,,,,,,,
,,612f7826436df8fb008c4f0d,66daf5b9d426239ab21a7a3a,2024-09-06_14h36.50.116,mdp,2024.2.1,Win32,59.88023952,66d7945b1baad48e845df3ce,,,,,,,,,,,,,,,,,,,,,2155.0569,2155.0572,2155.0592,2156.0062,1,0,right,0.4189,,2156.0091,2156.0102,1,0,,2156.0114,2156.0125,0,1,,1,2156.0125,2156.0125,2156.0136,2157.5063,0,34,34,34,1,0.6,0.4,0.2,0.8,1,0,,,,,,,,,,,,,,,,,,,,,,,,,,,,,,,,,,,,
,,612f7826436df8fb008c4f0d,66daf5b9d426239ab21a7a3a,2024-09-06_14h36.50.116,mdp,2024.2.1,Win32,59.88023952,66d7945b1baad48e845df3ce,,,,,,,,,,,,,,,,,,,,,2157.5082,2157.5083,2157.5102,2158.3906,1,1,right,0.3673,,2158.3935,2158.3946,1,1,,2158.3958,2158.3969,0,1,,0,2158.3969,2158.397,2158.398,2159.8905,0,35,35,35,1,0.6,0.4,0.2,0.8,1,0,,,,,,,,,,,,,,,,,,,,,,,,,,,,,,,,,,,,
,,612f7826436df8fb008c4f0d,66daf5b9d426239ab21a7a3a,2024-09-06_14h36.50.116,mdp,2024.2.1,Win32,59.88023952,66d7945b1baad48e845df3ce,,,,,,,,,,,,,,,,,,,,,2159.8921,2159.8922,2159.8945,2160.5244,1,1,right,0.1026,,2160.5273,2160.5287,1,1,,2160.5302,2160.5315,0,0,,0,2160.5315,2160.5315,2160.5327,2162.0245,0,36,36,36,1,0.6,0.4,0.2,0.8,1,0,,,,,,,,,,,,,,,,,,,,,,,,,,,,,,,,,,,,
,,612f7826436df8fb008c4f0d,66daf5b9d426239ab21a7a3a,2024-09-06_14h36.50.116,mdp,2024.2.1,Win32,59.88023952,66d7945b1baad48e845df3ce,,,,,,,,,,,,,,,,,,,,,2162.0262,2162.0263,2162.0291,2162.7765,1,0,right,0.219,,2162.7802,2162.7815,1,0,,2162.7839,2162.7857,0,1,,1,2162.7859,2162.7859,2162.7884,2164.2754,0,37,37,37,1,0.6,0.4,0.2,0.8,1,0,,,,,,,,,,,,,,,,,,,,,,,,,,,,,,,,,,,,
,,612f7826436df8fb008c4f0d,66daf5b9d426239ab21a7a3a,2024-09-06_14h36.50.116,mdp,2024.2.1,Win32,59.88023952,66d7945b1baad48e845df3ce,,,,,,,,,,,,,,,,,,,,,2164.2778,2164.2779,2164.2802,2165.1602,1,0,right,0.3507,,2165.1631,2165.1644,1,1,,2165.1658,2165.167,0,1,,1,2165.1671,2165.1671,2165.1683,2166.6596,0,38,38,38,1,0.2,0.8,0.6,0.4,1,0,,,,,,,,,,,,,,,,,,,,,,,,,,,,,,,,,,,,
