init_exp.started,init_exp.stopped,participant,session,date,expName,psychopyVersion,OS,frameRate,study_id,disp_instruction.started,disp_instruction.stopped,instruction.thisRepN,instruction.thisTrialN,instruction.thisN,instruction.thisIndex,instruction.ran,instimg_path,consent.started,consent.stopped,key_resp_3.keys,key_resp_3.rt,key_resp_3.duration,n_steps,sequence_path,init_block.started,init_block.stopped,key_resp.keys,key_resp.rt,key_resp.duration,init_trials.started,init_trials.stopped,step0.started,step0.stopped,act0,s1,res0.keys,res0.rt,res0.duration,step1.started,step1.stopped,act1,s2,res1.keys,step2.started,step2.stopped,act2,s3,res2.keys,rew,reward_comp.started,reward_comp.stopped,reward_disp.started,reward_disp.stopped,trials.thisRepN,trials.thisTrialN,trials.thisN,trials.thisIndex,trials.ran,s00a0s10,s00a0s11,s00a1s10,s00a1s11,rew10,rew11,break_block.started,break_block.stopped,block.thisRepN,block.thisTrialN,block.thisN,block.thisIndex,block.ran,s00path,s10path,s11path,s20path,s21path,res1.rt,res1.duration,s10a0s20,s10a0s21,s10a1s20,s10a1s21,s11a0s20,s11a0s21,s11a1s20,s11a1s21,rew20,rew21,res2.rt,res2.duration,s20a0s30,s20a0s31,s20a1s30,s20a1s31,s21a0s30,s21a0s31,s21a1s30,s21a1s31,rew30,rew31
0.0002,0.0014,6138d26ce6302b626fcf805c,66fc98d7dbd7fd4b0b632ea4,2024-10-01_19h15.41.268,mdp,2024.2.1,Win32,60.24096386,66fa4ebf79326e780c390304,,,,,,,,,,,,,,,,,,,,,,,,,,,,,,,,,,,,,,,,,,,,,,,,,,,,,,,,,,,,,,,,,,,,,,,,,,,,,,,,,,,,,,,,,,,
,,6138d26ce6302b626fcf805c,66fc98d7dbd7fd4b0b632ea4,2024-10-01_19h15.41.268,mdp,2024.2.1,Win32,60.24096386,66fa4ebf79326e780c390304,0.0044,39.5942,0,0,0,0,1,rlnn_exp/rlnn_exp.001.png,,,,,,,,,,,,,,,,,,,,,,,,,,,,,,,,,,,,,,,,,,,,,,,,,,,,,,,,,,,,,,,,,,,,,,,,,,,,,,,,,,,
,,6138d26ce6302b626fcf805c,66fc98d7dbd7fd4b0b632ea4,2024-10-01_19h15.41.268,mdp,2024.2.1,Win32,60.24096386,66fa4ebf79326e780c390304,39.5975,50.6561,0,1,1,1,1,rlnn_exp/rlnn_exp.002.png,,,,,,,,,,,,,,,,,,,,,,,,,,,,,,,,,,,,,,,,,,,,,,,,,,,,,,,,,,,,,,,,,,,,,,,,,,,,,,,,,,,
,,6138d26ce6302b626fcf805c,66fc98d7dbd7fd4b0b632ea4,2024-10-01_19h15.41.268,mdp,2024.2.1,Win32,60.24096386,66fa4ebf79326e780c390304,50.6584,88.7624,0,2,2,2,1,rlnn_exp/rlnn_exp.003.png,,,,,,,,,,,,,,,,,,,,,,,,,,,,,,,,,,,,,,,,,,,,,,,,,,,,,,,,,,,,,,,,,,,,,,,,,,,,,,,,,,,
,,6138d26ce6302b626fcf805c,66fc98d7dbd7fd4b0b632ea4,2024-10-01_19h15.41.268,mdp,2024.2.1,Win32,60.24096386,66fa4ebf79326e780c390304,88.7632,106.8664,0,3,3,3,1,rlnn_exp/rlnn_exp.004.png,,,,,,,,,,,,,,,,,,,,,,,,,,,,,,,,,,,,,,,,,,,,,,,,,,,,,,,,,,,,,,,,,,,,,,,,,,,,,,,,,,,
,,6138d26ce6302b626fcf805c,66fc98d7dbd7fd4b0b632ea4,2024-10-01_19h15.41.268,mdp,2024.2.1,Win32,60.24096386,66fa4ebf79326e780c390304,,,,,,,,,106.8676,149.1187,y,32.2267,,,,,,,,,,,,,,,,,,,,,,,,,,,,,,,,,,,,,,,,,,,,,,,,,,,,,,,,,,,,,,,,,,,,,,,,,,,,,,,
,,6138d26ce6302b626fcf805c,66fc98d7dbd7fd4b0b632ea4,2024-10-01_19h15.41.268,mdp,2024.2.1,Win32,60.24096386,66fa4ebf79326e780c390304,,,,,,,,,,,,,,1,seqs/st1seq19.csv,149.1353,152.6656,space,3.0022,,152.6745,152.675,152.6762,155.4019,1,0,right,2.1947,,155.403,155.4066,,1,,155.4077,155.4106,,0,,1,155.4109,155.4112,155.4119,156.914,0,0,0,0,1,0.8,0.2,0.8,0.2,1,0,,,,,,,,,,,,,,,,,,,,,,,,,,,,,,,,,,,,
,,6138d26ce6302b626fcf805c,66fc98d7dbd7fd4b0b632ea4,2024-10-01_19h15.41.268,mdp,2024.2.1,Win32,60.24096386,66fa4ebf79326e780c390304,,,,,,,,,,,,,,,,,,,,,156.9158,156.9158,156.9189,160.6462,1,0,right,3.207,,160.649,160.6506,,0,,160.6521,160.6532,,1,,1,160.6533,160.6533,160.6544,162.1455,0,1,1,1,1,0.8,0.2,0.8,0.2,1,0,,,,,,,,,,,,,,,,,,,,,,,,,,,,,,,,,,,,
,,6138d26ce6302b626fcf805c,66fc98d7dbd7fd4b0b632ea4,2024-10-01_19h15.41.268,mdp,2024.2.1,Win32,60.24096386,66fa4ebf79326e780c390304,,,,,,,,,,,,,,,,,,,,,162.1464,162.1466,162.1497,163.3791,1,0,right,0.7007,,163.3817,163.3836,,0,,163.3851,163.3862,,1,,1,163.3863,163.3864,163.3875,164.8773,0,2,2,2,1,0.8,0.2,0.8,0.2,1,0,,,,,,,,,,,,,,,,,,,,,,,,,,,,,,,,,,,,
,,6138d26ce6302b626fcf805c,66fc98d7dbd7fd4b0b632ea4,2024-10-01_19h15.41.268,mdp,2024.2.1,Win32,60.24096386,66fa4ebf79326e780c390304,,,,,,,,,,,,,,,,,,,,,164.8777,164.8778,164.8802,165.8116,1,0,right,0.4046,,165.8134,165.8149,,0,,165.8164,165.8176,,0,,1,165.8176,165.8176,165.8186,167.31,0,3,3,3,1,0.8,0.2,0.8,0.2,1,0,,,,,,,,,,,,,,,,,,,,,,,,,,,,,,,,,,,,
,,6138d26ce6302b626fcf805c,66fc98d7dbd7fd4b0b632ea4,2024-10-01_19h15.41.268,mdp,2024.2.1,Win32,60.24096386,66fa4ebf79326e780c390304,,,,,,,,,,,,,,,,,,,,,167.3103,167.3104,167.3111,168.2598,1,1,right,0.4238,,168.2608,168.2614,,0,,168.2624,168.2631,,0,,0,168.2631,168.2631,168.2637,169.7603,0,4,4,4,1,0.8,0.2,0.8,0.2,1,0,,,,,,,,,,,,,,,,,,,,,,,,,,,,,,,,,,,,
,,6138d26ce6302b626fcf805c,66fc98d7dbd7fd4b0b632ea4,2024-10-01_19h15.41.268,mdp,2024.2.1,Win32,60.24096386,66fa4ebf79326e780c390304,,,,,,,,,,,,,,,,,,,,,169.7616,169.7617,169.7656,170.8758,1,0,right,0.5928,,170.8769,170.8775,,0,,170.8782,170.879,,0,,1,170.879,170.879,170.8795,172.3764,0,5,5,5,1,0.8,0.2,0.8,0.2,1,0,,,,,,,,,,,,,,,,,,,,,,,,,,,,,,,,,,,,
,,6138d26ce6302b626fcf805c,66fc98d7dbd7fd4b0b632ea4,2024-10-01_19h15.41.268,mdp,2024.2.1,Win32,60.24096386,66fa4ebf79326e780c390304,,,,,,,,,,,,,,,,,,,,,172.3777,172.3778,172.3812,173.3934,1,0,right,0.49,,173.3965,173.3984,,0,,173.3999,173.4014,,0,,1,173.4015,173.4015,173.4031,174.8925,0,6,6,6,1,0.8,0.2,0.8,0.2,1,0,,,,,,,,,,,,,,,,,,,,,,,,,,,,,,,,,,,,
,,6138d26ce6302b626fcf805c,66fc98d7dbd7fd4b0b632ea4,2024-10-01_19h15.41.268,mdp,2024.2.1,Win32,60.24096386,66fa4ebf79326e780c390304,,,,,,,,,,,,,,,,,,,,,174.8937,174.8937,174.8965,175.8413,1,0,right,0.4267,,175.8422,175.8428,,0,,175.8434,175.8442,,0,,1,175.8443,175.8443,175.8448,177.3416,0,7,7,7,1,0.8,0.2,0.8,0.2,1,0,,,,,,,,,,,,,,,,,,,,,,,,,,,,,,,,,,,,
,,6138d26ce6302b626fcf805c,66fc98d7dbd7fd4b0b632ea4,2024-10-01_19h15.41.268,mdp,2024.2.1,Win32,60.24096386,66fa4ebf79326e780c390304,,,,,,,,,,,,,,,,,,,,,177.343,177.3431,177.3452,178.2753,1,0,right,0.4086,,178.2782,178.2802,,1,,178.2814,178.2827,,0,,1,178.2827,178.2828,178.2839,179.775,0,8,8,8,1,0.8,0.2,0.8,0.2,1,0,,,,,,,,,,,,,,,,,,,,,,,,,,,,,,,,,,,,
,,6138d26ce6302b626fcf805c,66fc98d7dbd7fd4b0b632ea4,2024-10-01_19h15.41.268,mdp,2024.2.1,Win32,60.24096386,66fa4ebf79326e780c390304,,,,,,,,,,,,,,,,,,,,,179.7763,179.7763,179.7787,180.7577,1,1,right,0.4566,,180.7607,180.7624,,1,,180.7639,180.7652,,1,,0,180.7653,180.7654,180.7668,182.2576,0,9,9,9,1,0.6,0.4,0.2,0.8,1,0,,,,,,,,,,,,,,,,,,,,,,,,,,,,,,,,,,,,
,,6138d26ce6302b626fcf805c,66fc98d7dbd7fd4b0b632ea4,2024-10-01_19h15.41.268,mdp,2024.2.1,Win32,60.24096386,66fa4ebf79326e780c390304,,,,,,,,,,,,,,,,,,,,,182.2588,182.2588,182.2609,183.1075,1,1,right,0.3202,,183.1107,183.1123,,1,,183.1139,183.1152,,1,,0,183.1153,183.1153,183.1165,184.6066,0,10,10,10,1,0.6,0.4,0.2,0.8,1,0,,,,,,,,,,,,,,,,,,,,,,,,,,,,,,,,,,,,
,,6138d26ce6302b626fcf805c,66fc98d7dbd7fd4b0b632ea4,2024-10-01_19h15.41.268,mdp,2024.2.1,Win32,60.24096386,66fa4ebf79326e780c390304,,,,,,,,,,,,,,,,,,,,,184.6081,184.6081,184.6107,185.4234,1,1,right,0.282,,185.4272,185.429,,1,,185.4306,185.432,,1,,0,185.4322,185.4322,185.4334,186.922,0,11,11,11,1,0.6,0.4,0.2,0.8,1,0,,,,,,,,,,,,,,,,,,,,,,,,,,,,,,,,,,,,
,,6138d26ce6302b626fcf805c,66fc98d7dbd7fd4b0b632ea4,2024-10-01_19h15.41.268,mdp,2024.2.1,Win32,60.24096386,66fa4ebf79326e780c390304,,,,,,,,,,,,,,,,,,,,,186.9225,186.9225,186.9233,187.806,0,0,left,0.3566,,187.8085,187.8098,,0,,187.8114,187.8124,,1,,1,187.8124,187.8124,187.8134,189.306,0,12,12,12,1,0.8,0.2,0.4,0.6,1,0,,,,,,,,,,,,,,,,,,,,,,,,,,,,,,,,,,,,
,,6138d26ce6302b626fcf805c,66fc98d7dbd7fd4b0b632ea4,2024-10-01_19h15.41.268,mdp,2024.2.1,Win32,60.24096386,66fa4ebf79326e780c390304,,,,,,,,,,,,,,,,,,,,,189.3066,189.3066,189.3086,190.2057,0,0,left,0.3698,,190.2084,190.2103,,0,,190.212,190.2131,,0,,1,190.2132,190.2132,190.2142,191.7058,0,13,13,13,1,0.8,0.2,0.4,0.6,1,0,,,,,,,,,,,,,,,,,,,,,,,,,,,,,,,,,,,,
,,6138d26ce6302b626fcf805c,66fc98d7dbd7fd4b0b632ea4,2024-10-01_19h15.41.268,mdp,2024.2.1,Win32,60.24096386,66fa4ebf79326e780c390304,,,,,,,,,,,,,,,,,,,,,191.7071,191.7072,191.7099,192.5888,0,0,left,0.3513,,192.5927,192.5943,,0,,192.5958,192.597,,0,,1,192.5971,192.5972,192.5983,194.0879,0,14,14,14,1,0.8,0.2,0.4,0.6,1,0,,,,,,,,,,,,,,,,,,,,,,,,,,,,,,,,,,,,
,,6138d26ce6302b626fcf805c,66fc98d7dbd7fd4b0b632ea4,2024-10-01_19h15.41.268,mdp,2024.2.1,Win32,60.24096386,66fa4ebf79326e780c390304,,,,,,,,,,,,,,,,,,,,,194.0893,194.0893,194.0919,195.0046,0,0,left,0.3867,,195.008,195.0101,,0,,195.0117,195.0129,,0,,1,195.0131,195.0131,195.0143,196.5042,0,15,15,15,1,0.8,0.2,0.4,0.6,1,0,,,,,,,,,,,,,,,,,,,,,,,,,,,,,,,,,,,,
,,6138d26ce6302b626fcf805c,66fc98d7dbd7fd4b0b632ea4,2024-10-01_19h15.41.268,mdp,2024.2.1,Win32,60.24096386,66fa4ebf79326e780c390304,,,,,,,,,,,,,,,,,,,,,196.5052,196.5052,196.5073,197.4361,0,0,left,0.407,,197.4372,197.4377,,0,,197.4384,197.439,,0,,1,197.4391,197.4392,197.4396,198.9365,0,16,16,16,1,0.8,0.2,0.4,0.6,1,0,,,,,,,,,,,,,,,,,,,,,,,,,,,,,,,,,,,,
,,6138d26ce6302b626fcf805c,66fc98d7dbd7fd4b0b632ea4,2024-10-01_19h15.41.268,mdp,2024.2.1,Win32,60.24096386,66fa4ebf79326e780c390304,,,,,,,,,,,,,,,,,,,,,198.9376,198.9379,198.9401,199.82,0,1,left,0.359,,199.8225,199.8238,,1,,199.8263,199.8277,,1,,0,199.8278,199.8279,199.8292,201.3199,0,17,17,17,1,0.4,0.6,0.8,0.2,1,0,,,,,,,,,,,,,,,,,,,,,,,,,,,,,,,,,,,,
,,6138d26ce6302b626fcf805c,66fc98d7dbd7fd4b0b632ea4,2024-10-01_19h15.41.268,mdp,2024.2.1,Win32,60.24096386,66fa4ebf79326e780c390304,,,,,,,,,,,,,,,,,,,,,201.3209,201.321,201.3242,203.3525,0,0,left,1.5001,,203.3559,203.3582,,1,,203.36,203.3611,,0,,1,203.3613,203.3613,203.3638,204.8569,0,18,18,18,1,0.4,0.6,0.8,0.2,1,0,,,,,,,,,,,,,,,,,,,,,,,,,,,,,,,,,,,,
,,6138d26ce6302b626fcf805c,66fc98d7dbd7fd4b0b632ea4,2024-10-01_19h15.41.268,mdp,2024.2.1,Win32,60.24096386,66fa4ebf79326e780c390304,,,,,,,,,,,,,,,,,,,,,204.8578,204.8579,204.8604,205.6909,0,1,left,0.3175,,205.6931,205.6942,,1,,205.6959,205.697,,1,,0,205.6971,205.6971,205.6983,207.1896,0,19,19,19,1,0.4,0.6,0.8,0.2,1,0,,,,,,,,,,,,,,,,,,,,,,,,,,,,,,,,,,,,
,,6138d26ce6302b626fcf805c,66fc98d7dbd7fd4b0b632ea4,2024-10-01_19h15.41.268,mdp,2024.2.1,Win32,60.24096386,66fa4ebf79326e780c390304,,,,,,,,,,,,,,,,,,,,,207.1903,207.1904,207.1927,208.1502,0,1,left,0.4422,,208.1515,208.1522,,1,,208.1526,208.1531,,1,,0,208.1531,208.1531,208.1534,209.6504,0,20,20,20,1,0.4,0.6,0.8,0.2,1,0,,,,,,,,,,,,,,,,,,,,,,,,,,,,,,,,,,,,
,,6138d26ce6302b626fcf805c,66fc98d7dbd7fd4b0b632ea4,2024-10-01_19h15.41.268,mdp,2024.2.1,Win32,60.24096386,66fa4ebf79326e780c390304,,,,,,,,,,,,,,,,,,,,,209.6521,209.6521,209.6539,210.7564,0,1,left,0.5944,,210.7589,210.7604,,1,,210.7619,210.7633,,0,,0,210.7634,210.7634,210.7648,212.2663,0,21,21,21,1,0.4,0.6,0.8,0.2,1,0,,,,,,,,,,,,,,,,,,,,,,,,,,,,,,,,,,,,
,,6138d26ce6302b626fcf805c,66fc98d7dbd7fd4b0b632ea4,2024-10-01_19h15.41.268,mdp,2024.2.1,Win32,60.24096386,66fa4ebf79326e780c390304,,,,,,,,,,,,,,,,,,,,,212.2668,212.2668,212.2675,213.1005,1,0,right,0.3008,,213.1031,213.1047,,0,,213.1063,213.1075,,0,,1,213.1076,213.1076,213.1085,214.6002,0,22,22,22,1,0.4,0.6,0.8,0.2,1,0,,,,,,,,,,,,,,,,,,,,,,,,,,,,,,,,,,,,
,,6138d26ce6302b626fcf805c,66fc98d7dbd7fd4b0b632ea4,2024-10-01_19h15.41.268,mdp,2024.2.1,Win32,60.24096386,66fa4ebf79326e780c390304,,,,,,,,,,,,,,,,,,,,,214.6014,214.6014,214.6038,215.4836,1,0,right,0.3516,,215.4864,215.4878,,1,,215.4892,215.4904,,0,,1,215.4905,215.4905,215.4917,216.9831,0,23,23,23,1,0.4,0.6,0.8,0.2,1,0,,,,,,,,,,,,,,,,,,,,,,,,,,,,,,,,,,,,
,,6138d26ce6302b626fcf805c,66fc98d7dbd7fd4b0b632ea4,2024-10-01_19h15.41.268,mdp,2024.2.1,Win32,60.24096386,66fa4ebf79326e780c390304,,,,,,,,,,,,,,,,,,,,,216.9843,216.9843,216.9878,218.0005,1,0,right,0.4855,,218.0047,218.0069,,0,,218.0096,218.0113,,1,,1,218.0115,218.0115,218.0131,219.5143,0,24,24,24,1,0.4,0.6,0.8,0.2,1,0,,,,,,,,,,,,,,,,,,,,,,,,,,,,,,,,,,,,
,,6138d26ce6302b626fcf805c,66fc98d7dbd7fd4b0b632ea4,2024-10-01_19h15.41.268,mdp,2024.2.1,Win32,60.24096386,66fa4ebf79326e780c390304,,,,,,,,,,,,,,,,,,,,,219.5146,219.5146,219.5159,220.4835,1,0,right,0.4399,,220.4858,220.487,,0,,220.4884,220.4895,,0,,1,220.4895,220.4895,220.4909,221.9812,0,25,25,25,1,0.4,0.6,0.8,0.2,1,0,,,,,,,,,,,,,,,,,,,,,,,,,,,,,,,,,,,,
,,6138d26ce6302b626fcf805c,66fc98d7dbd7fd4b0b632ea4,2024-10-01_19h15.41.268,mdp,2024.2.1,Win32,60.24096386,66fa4ebf79326e780c390304,,,,,,,,,,,,,,,,,,,,,221.9819,221.9819,221.9832,222.9653,1,1,right,0.4564,,222.9681,222.9696,,0,,222.9715,222.9734,,0,,0,222.9735,222.9736,222.9756,224.4643,0,26,26,26,1,0.4,0.6,0.8,0.2,1,0,,,,,,,,,,,,,,,,,,,,,,,,,,,,,,,,,,,,
,,6138d26ce6302b626fcf805c,66fc98d7dbd7fd4b0b632ea4,2024-10-01_19h15.41.268,mdp,2024.2.1,Win32,60.24096386,66fa4ebf79326e780c390304,,,,,,,,,,,,,,,,,,,,,224.4655,224.4656,224.4681,225.3149,1,0,right,0.3235,,225.3181,225.3203,,1,,225.3225,225.3242,,0,,1,225.3243,225.3243,225.3262,226.8139,0,27,27,27,1,0.4,0.6,0.8,0.2,1,0,,,,,,,,,,,,,,,,,,,,,,,,,,,,,,,,,,,,
,,6138d26ce6302b626fcf805c,66fc98d7dbd7fd4b0b632ea4,2024-10-01_19h15.41.268,mdp,2024.2.1,Win32,60.24096386,66fa4ebf79326e780c390304,,,,,,,,,,,,,,,,,,,,,226.8151,226.8151,226.8173,227.664,1,0,right,0.325,,227.6664,227.6683,,0,,227.6699,227.6711,,0,,1,227.6712,227.6712,227.6724,229.1631,0,28,28,28,1,0.4,0.6,0.8,0.2,1,0,,,,,,,,,,,,,,,,,,,,,,,,,,,,,,,,,,,,
,,6138d26ce6302b626fcf805c,66fc98d7dbd7fd4b0b632ea4,2024-10-01_19h15.41.268,mdp,2024.2.1,Win32,60.24096386,66fa4ebf79326e780c390304,,,,,,,,,,,,,,,,,,,,,229.1645,229.1646,229.167,229.9951,1,1,right,0.308,,229.9959,229.9964,,0,,229.9972,229.9977,,0,,0,229.9978,229.9978,229.9982,231.4962,0,29,29,29,1,0.4,0.6,0.8,0.2,1,0,,,,,,,,,,,,,,,,,,,,,,,,,,,,,,,,,,,,
,,6138d26ce6302b626fcf805c,66fc98d7dbd7fd4b0b632ea4,2024-10-01_19h15.41.268,mdp,2024.2.1,Win32,60.24096386,66fa4ebf79326e780c390304,,,,,,,,,,,,,,,,,,,,,231.4974,231.4975,231.4996,232.2794,1,0,right,0.2557,,232.2821,232.2837,,1,,232.2852,232.2868,,0,,1,232.2868,232.2868,232.2881,233.7796,0,30,30,30,1,0.4,0.6,0.8,0.2,1,0,,,,,,,,,,,,,,,,,,,,,,,,,,,,,,,,,,,,
,,6138d26ce6302b626fcf805c,66fc98d7dbd7fd4b0b632ea4,2024-10-01_19h15.41.268,mdp,2024.2.1,Win32,60.24096386,66fa4ebf79326e780c390304,,,,,,,,,,,,,,,,,,,,,233.7808,233.7809,233.7834,234.6122,1,0,right,0.3011,,234.6151,234.6168,,1,,234.6191,234.6205,,1,,1,234.6205,234.6205,234.6218,236.1113,0,31,31,31,1,0.6,0.4,0.6,0.4,1,0,,,,,,,,,,,,,,,,,,,,,,,,,,,,,,,,,,,,
,,6138d26ce6302b626fcf805c,66fc98d7dbd7fd4b0b632ea4,2024-10-01_19h15.41.268,mdp,2024.2.1,Win32,60.24096386,66fa4ebf79326e780c390304,,,,,,,,,,,,,,,,,,,,,236.1129,236.1129,236.1159,237.0125,1,1,right,0.3703,,237.0154,237.0167,,0,,237.0181,237.0196,,0,,0,237.0196,237.0197,237.0209,238.5099,0,32,32,32,1,0.6,0.4,0.6,0.4,1,0,,,,,,,,,,,,,,,,,,,,,,,,,,,,,,,,,,,,
,,6138d26ce6302b626fcf805c,66fc98d7dbd7fd4b0b632ea4,2024-10-01_19h15.41.268,mdp,2024.2.1,Win32,60.24096386,66fa4ebf79326e780c390304,,,,,,,,,,,,,,,,,,,,,238.5102,238.5102,238.5109,239.0597,1,0,right,0.0171,,239.0606,239.0611,,0,,239.0621,239.0625,,1,,1,239.0626,239.0626,239.0631,240.5605,0,33,33,33,1,0.8,0.2,0.8,0.2,1,0,,,,,,,,,,,,,,,,,,,,,,,,,,,,,,,,,,,,
,,6138d26ce6302b626fcf805c,66fc98d7dbd7fd4b0b632ea4,2024-10-01_19h15.41.268,mdp,2024.2.1,Win32,60.24096386,66fa4ebf79326e780c390304,,,,,,,,,,,,,,,,,,,,,240.5618,240.5618,240.5639,241.2592,1,1,right,0.1709,,241.26,241.2608,,0,,241.2615,241.2618,,0,,0,241.2619,241.2619,241.2623,242.7609,0,34,34,34,1,0.8,0.2,0.8,0.2,1,0,,,,,,,,,,,,,,,,,,,,,,,,,,,,,,,,,,,,
,,6138d26ce6302b626fcf805c,66fc98d7dbd7fd4b0b632ea4,2024-10-01_19h15.41.268,mdp,2024.2.1,Win32,60.24096386,66fa4ebf79326e780c390304,,,,,,,,,,,,,,,,,,,,,242.7618,242.7618,242.7646,243.6267,1,0,right,0.3339,,243.6303,243.6315,,0,,243.6329,243.6339,,1,,1,243.6341,243.6341,243.6352,245.126,0,35,35,35,1,0.8,0.2,0.8,0.2,1,0,,,,,,,,,,,,,,,,,,,,,,,,,,,,,,,,,,,,
,,6138d26ce6302b626fcf805c,66fc98d7dbd7fd4b0b632ea4,2024-10-01_19h15.41.268,mdp,2024.2.1,Win32,60.24096386,66fa4ebf79326e780c390304,,,,,,,,,,,,,,,,,,,,,245.1275,245.1275,245.1309,245.9597,1,1,right,0.3006,,245.9621,245.9635,,0,,245.965,245.9662,,0,,0,245.9663,245.9663,245.9677,247.4592,0,36,36,36,1,0.6,0.4,0.6,0.4,1,0,,,,,,,,,,,,,,,,,,,,,,,,,,,,,,,,,,,,
,,6138d26ce6302b626fcf805c,66fc98d7dbd7fd4b0b632ea4,2024-10-01_19h15.41.268,mdp,2024.2.1,Win32,60.24096386,66fa4ebf79326e780c390304,,,,,,,,,,,,,,,,,,,,,247.4603,247.4603,247.4623,248.2593,1,1,right,0.2727,,248.2619,248.2633,,0,,248.2657,248.2674,,0,,0,248.2674,248.2675,248.2692,249.7584,0,37,37,37,1,0.6,0.4,0.6,0.4,1,0,,,,,,,,,,,,,,,,,,,,,,,,,,,,,,,,,,,,
,,6138d26ce6302b626fcf805c,66fc98d7dbd7fd4b0b632ea4,2024-10-01_19h15.41.268,mdp,2024.2.1,Win32,60.24096386,66fa4ebf79326e780c390304,,,,,,,,,,,,,,,,,,,,,249.7596,249.7596,249.7622,250.8068,1,1,right,0.5152,,250.8075,250.808,,1,,250.8086,250.8093,,1,,0,250.8093,250.8093,250.8097,252.3089,0,38,38,38,1,0.8,0.2,0.2,0.8,1,0,,,,,,,,,,,,,,,,,,,,,,,,,,,,,,,,,,,,
,,6138d26ce6302b626fcf805c,66fc98d7dbd7fd4b0b632ea4,2024-10-01_19h15.41.268,mdp,2024.2.1,Win32,60.24096386,66fa4ebf79326e780c390304,,,,,,,,,,,,,,,,,,,,,252.3098,252.3098,252.3127,253.0742,0,0,left,0.2341,,253.0771,253.0783,,0,,253.0802,253.0815,,1,,1,253.0816,253.0816,253.0829,254.5747,0,39,39,39,1,0.8,0.2,0.2,0.8,1,0,,,,,,,,,,,,,,,,,,,,,,,,,,,,,,,,,,,,
,,6138d26ce6302b626fcf805c,66fc98d7dbd7fd4b0b632ea4,2024-10-01_19h15.41.268,mdp,2024.2.1,Win32,60.24096386,66fa4ebf79326e780c390304,,,,,,,,,,,,,,,,,,,,,254.5759,254.5759,254.5813,255.4239,0,0,left,0.3192,,255.4268,255.4284,,0,,255.4298,255.431,,0,,1,255.4311,255.4311,255.4323,256.9231,0,40,40,40,1,0.8,0.2,0.2,0.8,1,0,,,,,,,,,,,,,,,,,,,,,,,,,,,,,,,,,,,,
,,6138d26ce6302b626fcf805c,66fc98d7dbd7fd4b0b632ea4,2024-10-01_19h15.41.268,mdp,2024.2.1,Win32,60.24096386,66fa4ebf79326e780c390304,,,,,,,,,,,,,,,,,,,,,256.9246,256.9246,256.9273,257.7891,0,0,left,0.3318,,257.7904,257.7912,,0,,257.7921,257.7927,,0,,1,257.7927,257.7927,257.7932,259.2896,0,41,41,41,1,0.8,0.2,0.2,0.8,1,0,,,,,,,,,,,,,,,,,,,,,,,,,,,,,,,,,,,,
,,6138d26ce6302b626fcf805c,66fc98d7dbd7fd4b0b632ea4,2024-10-01_19h15.41.268,mdp,2024.2.1,Win32,60.24096386,66fa4ebf79326e780c390304,,,,,,,,,,,,,,,,,,,,,259.2908,259.2908,259.2928,260.3727,0,1,left,0.5569,,260.3752,260.3767,,0,,260.378,260.379,,0,,0,260.3791,260.3791,260.3803,261.8708,0,42,42,42,1,0.8,0.2,0.2,0.8,1,0,,,,,,,,,,,,,,,,,,,,,,,,,,,,,,,,,,,,
,,6138d26ce6302b626fcf805c,66fc98d7dbd7fd4b0b632ea4,2024-10-01_19h15.41.268,mdp,2024.2.1,Win32,60.24096386,66fa4ebf79326e780c390304,,,,,,,,,,,,,,,,,,,,,261.8711,261.8711,261.8718,262.7051,0,0,left,0.3221,,262.7078,262.7088,,1,,262.7099,262.7108,,0,,1,262.7108,262.7108,262.7117,264.2049,0,43,43,43,1,0.8,0.2,0.2,0.8,1,0,,,,,,,,,,,,,,,,,,,,,,,,,,,,,,,,,,,,
,,6138d26ce6302b626fcf805c,66fc98d7dbd7fd4b0b632ea4,2024-10-01_19h15.41.268,mdp,2024.2.1,Win32,60.24096386,66fa4ebf79326e780c390304,,,,,,,,,,,,,,,,,,,,,264.2061,264.2061,264.2086,265.0717,0,1,left,0.3356,,265.074,265.0756,,0,,265.0769,265.0781,,0,,0,265.0782,265.0782,265.0798,266.5708,0,44,44,44,1,0.8,0.2,0.2,0.8,1,0,,,,,,,,,,,,,,,,,,,,,,,,,,,,,,,,,,,,
,,6138d26ce6302b626fcf805c,66fc98d7dbd7fd4b0b632ea4,2024-10-01_19h15.41.268,mdp,2024.2.1,Win32,60.24096386,66fa4ebf79326e780c390304,,,,,,,,,,,,,,,,,,,,,266.5723,266.5723,266.5742,267.6873,0,0,left,0.5888,,267.6901,267.6916,,0,,267.6931,267.6945,,0,,1,267.6946,267.6947,267.6961,269.1881,0,45,45,45,1,0.8,0.2,0.2,0.8,1,0,,,,,,,,,,,,,,,,,,,,,,,,,,,,,,,,,,,,
,,6138d26ce6302b626fcf805c,66fc98d7dbd7fd4b0b632ea4,2024-10-01_19h15.41.268,mdp,2024.2.1,Win32,60.24096386,66fa4ebf79326e780c390304,,,,,,,,,,,,,,,,,,,,,269.1891,269.1891,269.1917,270.1376,0,0,left,0.4234,,270.1403,270.1421,,1,,270.1436,270.1448,,0,,1,270.1449,270.1449,270.1461,271.6367,0,46,46,46,1,0.8,0.2,0.2,0.8,1,0,,,,,,,,,,,,,,,,,,,,,,,,,,,,,,,,,,,,
,,6138d26ce6302b626fcf805c,66fc98d7dbd7fd4b0b632ea4,2024-10-01_19h15.41.268,mdp,2024.2.1,Win32,60.24096386,66fa4ebf79326e780c390304,,,,,,,,,,,,,,,,,,,,,271.6378,271.6379,271.6407,272.2023,0,0,left,0.045,,272.203,272.2041,,0,,272.2047,272.205,,0,,1,272.2051,272.2051,272.2055,273.7021,0,47,47,47,1,0.8,0.2,0.2,0.8,1,0,,,,,,,,,,,,,,,,,,,,,,,,,,,,,,,,,,,,
,,6138d26ce6302b626fcf805c,66fc98d7dbd7fd4b0b632ea4,2024-10-01_19h15.41.268,mdp,2024.2.1,Win32,60.24096386,66fa4ebf79326e780c390304,,,,,,,,,,,,,,,,,,,,,273.7032,273.7032,273.7048,274.8199,0,1,left,0.5873,,274.822,274.8239,,1,,274.8259,274.8273,,1,,0,274.8274,274.8274,274.8287,276.3185,0,48,48,48,1,0.2,0.8,0.6,0.4,1,0,,,,,,,,,,,,,,,,,,,,,,,,,,,,,,,,,,,,
,,6138d26ce6302b626fcf805c,66fc98d7dbd7fd4b0b632ea4,2024-10-01_19h15.41.268,mdp,2024.2.1,Win32,60.24096386,66fa4ebf79326e780c390304,,,,,,,,,,,,,,,,,,,,,276.3198,276.3198,276.3233,277.6686,0,0,left,0.8183,,277.6721,277.6742,,1,,277.6771,277.6787,,0,,1,277.6788,277.6788,277.6801,279.1699,0,49,49,49,1,0.6,0.4,0.4,0.6,1,0,,,,,,,,,,,,,,,,,,,,,,,,,,,,,,,,,,,,
,,6138d26ce6302b626fcf805c,66fc98d7dbd7fd4b0b632ea4,2024-10-01_19h15.41.268,mdp,2024.2.1,Win32,60.24096386,66fa4ebf79326e780c390304,,,,,,,,,,,,,,,,,,,,,,,,,,,,,,,,,,,,,,,,,,,,,,,,,,,,,,,,279.1716,337.6859,0,0,0,7,1,imgs/lion.png,imgs/dog.png,imgs/elephant.png,imgs/giraffe.png,imgs/kangaroo.png,,,,,,,,,,,,,,,,,,,,,,,,
,,6138d26ce6302b626fcf805c,66fc98d7dbd7fd4b0b632ea4,2024-10-01_19h15.41.268,mdp,2024.2.1,Win32,60.24096386,66fa4ebf79326e780c390304,,,,,,,,,,,,,,2,seqs/st2seq38.csv,337.6873,341.1419,space,2.9183,,341.1623,341.1624,341.1643,343.036,1,1,right,1.3384,,343.0395,345.1077,1,1,right,345.1104,345.1117,,0,,0,345.1118,345.1118,345.1131,346.6008,0,0,0,0,1,0.4,0.6,0.4,0.6,,,,,,,,,,,,,,,1.5333,,0.2,0.8,0.2,0.8,0.4,0.6,0.8,0.2,1,0,,,,,,,,,,,,
,,6138d26ce6302b626fcf805c,66fc98d7dbd7fd4b0b632ea4,2024-10-01_19h15.41.268,mdp,2024.2.1,Win32,60.24096386,66fa4ebf79326e780c390304,,,,,,,,,,,,,,,,,,,,,346.6019,346.6019,346.6034,348.2002,0,0,left,1.0679,,348.2016,351.2499,0,0,left,351.2517,351.2523,,1,,1,351.2524,351.2524,351.253,352.7498,0,1,1,1,1,0.4,0.6,0.4,0.6,,,,,,,,,,,,,,,2.5006,,0.2,0.8,0.2,0.8,0.4,0.6,0.8,0.2,1,0,,,,,,,,,,,,
,,6138d26ce6302b626fcf805c,66fc98d7dbd7fd4b0b632ea4,2024-10-01_19h15.41.268,mdp,2024.2.1,Win32,60.24096386,66fa4ebf79326e780c390304,,,,,,,,,,,,,,,,,,,,,352.7516,352.7518,352.754,355.0651,0,1,left,1.7839,,355.067,356.6986,1,0,right,356.7011,356.7019,,0,,1,356.702,356.702,356.7027,358.2033,0,2,2,2,1,0.4,0.6,0.4,0.6,,,,,,,,,,,,,,,1.0997,,0.2,0.8,0.2,0.8,0.4,0.6,0.8,0.2,1,0,,,,,,,,,,,,
,,6138d26ce6302b626fcf805c,66fc98d7dbd7fd4b0b632ea4,2024-10-01_19h15.41.268,mdp,2024.2.1,Win32,60.24096386,66fa4ebf79326e780c390304,,,,,,,,,,,,,,,,,,,,,358.2043,358.2043,358.2066,359.3357,0,1,left,0.6003,,359.3363,360.4809,1,0,right,360.4831,360.4839,,0,,1,360.4839,360.4839,360.4848,361.981,0,3,3,3,1,0.4,0.6,0.4,0.6,,,,,,,,,,,,,,,0.6111,,0.2,0.8,0.2,0.8,0.4,0.6,0.8,0.2,1,0,,,,,,,,,,,,
,,6138d26ce6302b626fcf805c,66fc98d7dbd7fd4b0b632ea4,2024-10-01_19h15.41.268,mdp,2024.2.1,Win32,60.24096386,66fa4ebf79326e780c390304,,,,,,,,,,,,,,,,,,,,,361.9834,361.9834,361.9868,363.0974,0,1,left,0.5817,,363.1003,364.137,1,0,right,364.1393,364.1407,,0,,1,364.1407,364.1407,364.142,365.6301,0,4,4,4,1,0.4,0.6,0.4,0.6,,,,,,,,,,,,,,,0.5287,,0.2,0.8,0.2,0.8,0.4,0.6,0.8,0.2,1,0,,,,,,,,,,,,
,,6138d26ce6302b626fcf805c,66fc98d7dbd7fd4b0b632ea4,2024-10-01_19h15.41.268,mdp,2024.2.1,Win32,60.24096386,66fa4ebf79326e780c390304,,,,,,,,,,,,,,,,,,,,,365.6317,365.632,365.6341,366.7799,0,1,left,0.6349,,366.7833,367.8364,1,0,right,367.8394,367.8409,,0,,1,367.841,367.8411,367.8424,369.3342,0,5,5,5,1,0.4,0.6,0.4,0.6,,,,,,,,,,,,,,,0.5188,,0.2,0.8,0.2,0.8,0.4,0.6,0.8,0.2,1,0,,,,,,,,,,,,
,,6138d26ce6302b626fcf805c,66fc98d7dbd7fd4b0b632ea4,2024-10-01_19h15.41.268,mdp,2024.2.1,Win32,60.24096386,66fa4ebf79326e780c390304,,,,,,,,,,,,,,,,,,,,,369.3351,369.3351,369.3374,370.3827,0,1,left,0.5167,,370.3833,371.5453,1,0,right,371.5485,371.5496,,0,,1,371.5497,371.5497,371.5509,373.0447,0,6,6,6,1,0.4,0.6,0.4,0.6,,,,,,,,,,,,,,,0.6386,,0.6,0.4,0.4,0.6,0.4,0.6,0.8,0.2,1,0,,,,,,,,,,,,
,,6138d26ce6302b626fcf805c,66fc98d7dbd7fd4b0b632ea4,2024-10-01_19h15.41.268,mdp,2024.2.1,Win32,60.24096386,66fa4ebf79326e780c390304,,,,,,,,,,,,,,,,,,,,,373.0467,373.0467,373.0489,374.0176,0,1,left,0.4616,,374.02,374.9963,1,1,right,374.999,375.0001,,1,,0,375.0003,375.0003,375.0016,376.4988,0,7,7,7,1,0.4,0.6,0.4,0.6,,,,,,,,,,,,,,,0.4602,,0.6,0.4,0.4,0.6,0.8,0.2,0.2,0.8,1,0,,,,,,,,,,,,
,,6138d26ce6302b626fcf805c,66fc98d7dbd7fd4b0b632ea4,2024-10-01_19h15.41.268,mdp,2024.2.1,Win32,60.24096386,66fa4ebf79326e780c390304,,,,,,,,,,,,,,,,,,,,,376.4998,376.4998,376.5028,377.8939,0,1,left,0.8679,,377.8976,378.8431,1,1,right,378.845,378.8457,,1,,0,378.8458,378.8458,378.8467,380.3478,0,8,8,8,1,0.4,0.6,0.4,0.6,,,,,,,,,,,,,,,0.4154,,0.6,0.4,0.4,0.6,0.8,0.2,0.2,0.8,1,0,,,,,,,,,,,,
,,6138d26ce6302b626fcf805c,66fc98d7dbd7fd4b0b632ea4,2024-10-01_19h15.41.268,mdp,2024.2.1,Win32,60.24096386,66fa4ebf79326e780c390304,,,,,,,,,,,,,,,,,,,,,380.3487,380.3488,380.3512,381.7759,0,0,left,0.9032,,381.7777,384.3256,0,1,left,384.3294,384.3311,,1,,0,384.3312,384.3313,384.3326,385.8252,0,9,9,9,1,0.4,0.6,0.4,0.6,,,,,,,,,,,,,,,2.0084,,0.2,0.8,0.2,0.8,0.8,0.2,0.2,0.8,1,0,,,,,,,,,,,,
,,6138d26ce6302b626fcf805c,66fc98d7dbd7fd4b0b632ea4,2024-10-01_19h15.41.268,mdp,2024.2.1,Win32,60.24096386,66fa4ebf79326e780c390304,,,,,,,,,,,,,,,,,,,,,385.8268,385.827,385.8294,386.9252,0,0,left,0.5849,,386.9282,388.3754,1,1,right,388.3782,388.3794,,0,,0,388.3795,388.3795,388.3808,389.8772,0,10,10,10,1,0.4,0.6,0.4,0.6,,,,,,,,,,,,,,,0.9203,,0.2,0.8,0.2,0.8,0.8,0.2,0.2,0.8,1,0,,,,,,,,,,,,
,,6138d26ce6302b626fcf805c,66fc98d7dbd7fd4b0b632ea4,2024-10-01_19h15.41.268,mdp,2024.2.1,Win32,60.24096386,66fa4ebf79326e780c390304,,,,,,,,,,,,,,,,,,,,,389.878,389.8781,389.8811,391.4782,1,0,right,1.0929,,391.4806,392.8279,1,1,right,392.8289,392.8296,,0,,0,392.8296,392.8296,392.8302,394.3287,0,11,11,11,1,0.4,0.6,0.4,0.6,,,,,,,,,,,,,,,0.8338,,0.2,0.8,0.2,0.8,0.8,0.2,0.2,0.8,1,0,,,,,,,,,,,,
,,6138d26ce6302b626fcf805c,66fc98d7dbd7fd4b0b632ea4,2024-10-01_19h15.41.268,mdp,2024.2.1,Win32,60.24096386,66fa4ebf79326e780c390304,,,,,,,,,,,,,,,,,,,,,394.3305,394.3306,394.3334,395.3058,1,1,right,0.4478,,395.3077,397.7058,1,1,right,397.7092,397.7107,,1,,0,397.7108,397.7108,397.7122,399.2105,0,12,12,12,1,0.4,0.6,0.4,0.6,,,,,,,,,,,,,,,1.8581,,0.2,0.8,0.2,0.8,0.8,0.2,0.2,0.8,1,0,,,,,,,,,,,,
,,6138d26ce6302b626fcf805c,66fc98d7dbd7fd4b0b632ea4,2024-10-01_19h15.41.268,mdp,2024.2.1,Win32,60.24096386,66fa4ebf79326e780c390304,,,,,,,,,,,,,,,,,,,,,399.2117,399.2117,399.2149,400.0775,1,1,right,0.3338,,400.0798,401.3114,0,0,left,401.3144,401.3161,,0,,1,401.3162,401.3162,401.3185,402.8059,0,13,13,13,1,0.4,0.6,0.4,0.6,,,,,,,,,,,,,,,0.7187,,0.2,0.8,0.2,0.8,0.6,0.4,0.8,0.2,1,0,,,,,,,,,,,,
,,6138d26ce6302b626fcf805c,66fc98d7dbd7fd4b0b632ea4,2024-10-01_19h15.41.268,mdp,2024.2.1,Win32,60.24096386,66fa4ebf79326e780c390304,,,,,,,,,,,,,,,,,,,,,402.8061,402.8061,402.8068,403.9921,1,1,right,0.6641,,403.9934,405.7768,0,0,left,405.7791,405.7803,,1,,1,405.7804,405.7804,405.7817,407.2696,0,14,14,14,1,0.4,0.6,0.4,0.6,,,,,,,,,,,,,,,1.2662,,0.2,0.8,0.2,0.8,0.6,0.4,0.8,0.2,1,0,,,,,,,,,,,,
,,6138d26ce6302b626fcf805c,66fc98d7dbd7fd4b0b632ea4,2024-10-01_19h15.41.268,mdp,2024.2.1,Win32,60.24096386,66fa4ebf79326e780c390304,,,,,,,,,,,,,,,,,,,,,407.2712,407.2712,407.2729,408.1089,1,1,right,0.3108,,408.1106,409.0905,0,0,left,409.0931,409.0944,,0,,1,409.0945,409.0946,409.0958,410.5905,0,15,15,15,1,0.4,0.6,0.4,0.6,,,,,,,,,,,,,,,0.4498,,0.2,0.8,0.2,0.8,0.6,0.4,0.8,0.2,1,0,,,,,,,,,,,,
,,6138d26ce6302b626fcf805c,66fc98d7dbd7fd4b0b632ea4,2024-10-01_19h15.41.268,mdp,2024.2.1,Win32,60.24096386,66fa4ebf79326e780c390304,,,,,,,,,,,,,,,,,,,,,410.5921,410.5922,410.5947,411.8356,1,0,right,0.7243,,411.8391,413.5678,0,1,left,413.5699,413.5711,,1,,0,413.5711,413.5712,413.5725,415.0681,0,16,16,16,1,0.4,0.6,0.4,0.6,,,,,,,,,,,,,,,1.1922,,0.2,0.8,0.2,0.8,0.6,0.4,0.8,0.2,1,0,,,,,,,,,,,,
,,6138d26ce6302b626fcf805c,66fc98d7dbd7fd4b0b632ea4,2024-10-01_19h15.41.268,mdp,2024.2.1,Win32,60.24096386,66fa4ebf79326e780c390304,,,,,,,,,,,,,,,,,,,,,415.0696,415.0697,415.0726,416.253,1,0,right,0.6656,,416.2564,417.5234,1,1,right,417.5261,417.5273,,1,,0,417.5273,417.5274,417.5286,419.0169,0,17,17,17,1,0.4,0.6,0.4,0.6,,,,,,,,,,,,,,,0.7628,,0.2,0.8,0.2,0.8,0.6,0.4,0.8,0.2,1,0,,,,,,,,,,,,
,,6138d26ce6302b626fcf805c,66fc98d7dbd7fd4b0b632ea4,2024-10-01_19h15.41.268,mdp,2024.2.1,Win32,60.24096386,66fa4ebf79326e780c390304,,,,,,,,,,,,,,,,,,,,,419.0189,419.0189,419.0212,422.7343,0,1,left,3.1865,,422.7374,424.1658,1,0,right,424.1694,424.1705,,0,,1,424.1706,424.1706,424.172,425.665,0,18,18,18,1,0.4,0.6,0.4,0.6,,,,,,,,,,,,,,,0.8932,,0.4,0.6,0.6,0.4,0.6,0.4,0.8,0.2,1,0,,,,,,,,,,,,
,,6138d26ce6302b626fcf805c,66fc98d7dbd7fd4b0b632ea4,2024-10-01_19h15.41.268,mdp,2024.2.1,Win32,60.24096386,66fa4ebf79326e780c390304,,,,,,,,,,,,,,,,,,,,,425.6661,425.6662,425.6678,426.7382,0,0,left,0.5614,,426.7405,429.3138,0,1,left,429.3151,429.3157,,1,,0,429.3157,429.3157,429.3163,430.8133,0,19,19,19,1,0.4,0.6,0.4,0.6,,,,,,,,,,,,,,,2.0373,,0.4,0.6,0.6,0.4,0.6,0.4,0.8,0.2,1,0,,,,,,,,,,,,
,,6138d26ce6302b626fcf805c,66fc98d7dbd7fd4b0b632ea4,2024-10-01_19h15.41.268,mdp,2024.2.1,Win32,60.24096386,66fa4ebf79326e780c390304,,,,,,,,,,,,,,,,,,,,,430.8137,430.8137,430.8149,432.7638,1,0,right,1.4207,,432.767,434.4697,1,0,right,434.4722,434.4734,,0,,1,434.4734,434.4734,434.4747,435.9622,0,20,20,20,1,0.4,0.6,0.4,0.6,,,,,,,,,,,,,,,1.1942,,0.6,0.4,0.4,0.6,0.6,0.4,0.8,0.2,1,0,,,,,,,,,,,,
,,6138d26ce6302b626fcf805c,66fc98d7dbd7fd4b0b632ea4,2024-10-01_19h15.41.268,mdp,2024.2.1,Win32,60.24096386,66fa4ebf79326e780c390304,,,,,,,,,,,,,,,,,,,,,435.9631,435.9631,435.9646,438.352,1,0,right,1.853,,438.3544,440.7518,0,0,left,440.7539,440.7558,,0,,1,440.756,440.756,440.758,442.2448,0,21,21,21,1,0.4,0.6,0.4,0.6,,,,,,,,,,,,,,,1.8844,,0.6,0.4,0.4,0.6,0.6,0.4,0.8,0.2,1,0,,,,,,,,,,,,
,,6138d26ce6302b626fcf805c,66fc98d7dbd7fd4b0b632ea4,2024-10-01_19h15.41.268,mdp,2024.2.1,Win32,60.24096386,66fa4ebf79326e780c390304,,,,,,,,,,,,,,,,,,,,,442.2466,442.2467,442.2489,444.2176,0,1,left,1.4341,,444.2199,446.7641,1,0,right,446.7648,446.7652,,1,,1,446.7652,446.7652,446.7656,448.26,0,22,22,22,1,0.4,0.6,0.4,0.6,,,,,,,,,,,,,,,2.0154,,0.6,0.4,0.4,0.6,0.8,0.2,0.2,0.8,1,0,,,,,,,,,,,,
,,6138d26ce6302b626fcf805c,66fc98d7dbd7fd4b0b632ea4,2024-10-01_19h15.41.268,mdp,2024.2.1,Win32,60.24096386,66fa4ebf79326e780c390304,,,,,,,,,,,,,,,,,,,,,448.2612,448.2612,448.2647,449.5267,0,1,left,0.7384,,449.5298,451.2134,1,0,right,451.2144,451.215,,0,,1,451.2151,451.2151,451.2157,452.7089,0,23,23,23,1,0.4,0.6,0.4,0.6,,,,,,,,,,,,,,,1.1613,,0.6,0.4,0.4,0.6,0.8,0.2,0.2,0.8,1,0,,,,,,,,,,,,
,,6138d26ce6302b626fcf805c,66fc98d7dbd7fd4b0b632ea4,2024-10-01_19h15.41.268,mdp,2024.2.1,Win32,60.24096386,66fa4ebf79326e780c390304,,,,,,,,,,,,,,,,,,,,,452.7102,452.7103,452.7132,453.7481,0,1,left,0.5282,,453.7504,454.8648,1,0,right,454.8671,454.8683,,0,,1,454.8683,454.8684,454.8697,456.363,0,24,24,24,1,0.2,0.8,0.2,0.8,,,,,,,,,,,,,,,0.5842,,0.6,0.4,0.4,0.6,0.8,0.2,0.2,0.8,1,0,,,,,,,,,,,,
,,6138d26ce6302b626fcf805c,66fc98d7dbd7fd4b0b632ea4,2024-10-01_19h15.41.268,mdp,2024.2.1,Win32,60.24096386,66fa4ebf79326e780c390304,,,,,,,,,,,,,,,,,,,,,456.3638,456.3639,456.3662,457.3407,0,1,left,0.4472,,457.342,458.4414,1,1,right,458.444,458.4454,,1,,0,458.4455,458.4455,458.4469,459.9447,0,25,25,25,1,0.2,0.8,0.2,0.8,,,,,,,,,,,,,,,0.5762,,0.6,0.4,0.4,0.6,0.8,0.2,0.2,0.8,1,0,,,,,,,,,,,,
,,6138d26ce6302b626fcf805c,66fc98d7dbd7fd4b0b632ea4,2024-10-01_19h15.41.268,mdp,2024.2.1,Win32,60.24096386,66fa4ebf79326e780c390304,,,,,,,,,,,,,,,,,,,,,459.9458,459.9458,459.9483,461.8952,0,0,left,1.429,,461.8973,464.6234,1,0,right,464.6271,464.6288,,0,,1,464.629,464.629,464.6312,466.1224,0,26,26,26,1,0.2,0.8,0.2,0.8,,,,,,,,,,,,,,,2.1865,,0.6,0.4,0.4,0.6,0.8,0.2,0.2,0.8,1,0,,,,,,,,,,,,
,,6138d26ce6302b626fcf805c,66fc98d7dbd7fd4b0b632ea4,2024-10-01_19h15.41.268,mdp,2024.2.1,Win32,60.24096386,66fa4ebf79326e780c390304,,,,,,,,,,,,,,,,,,,,,466.1252,466.1252,466.1271,467.7385,1,1,right,1.0993,,467.7413,469.5946,0,0,left,469.5966,469.5976,,0,,1,469.5977,469.5977,469.5991,471.088,0,27,27,27,1,0.2,0.8,0.2,0.8,,,,,,,,,,,,,,,1.3183,,0.6,0.4,0.4,0.6,0.8,0.2,0.2,0.8,1,0,,,,,,,,,,,,
,,6138d26ce6302b626fcf805c,66fc98d7dbd7fd4b0b632ea4,2024-10-01_19h15.41.268,mdp,2024.2.1,Win32,60.24096386,66fa4ebf79326e780c390304,,,,,,,,,,,,,,,,,,,,,471.0895,471.09,471.0923,472.7367,1,0,right,1.1001,,472.738,474.3529,1,0,right,474.3542,474.3549,,0,,1,474.3549,474.3549,474.3554,475.8532,0,28,28,28,1,0.2,0.8,0.2,0.8,,,,,,,,,,,,,,,1.0848,,0.6,0.4,0.4,0.6,0.8,0.2,0.2,0.8,1,0,,,,,,,,,,,,
,,6138d26ce6302b626fcf805c,66fc98d7dbd7fd4b0b632ea4,2024-10-01_19h15.41.268,mdp,2024.2.1,Win32,60.24096386,66fa4ebf79326e780c390304,,,,,,,,,,,,,,,,,,,,,475.8545,475.8546,475.8571,477.5864,0,1,left,1.1907,,477.5904,479.6217,0,0,left,479.6224,479.6229,,0,,1,479.6229,479.6229,479.6234,481.1187,0,29,29,29,1,0.2,0.8,0.2,0.8,,,,,,,,,,,,,,,1.5142,,0.6,0.4,0.4,0.6,0.8,0.2,0.2,0.8,1,0,,,,,,,,,,,,
,,6138d26ce6302b626fcf805c,66fc98d7dbd7fd4b0b632ea4,2024-10-01_19h15.41.268,mdp,2024.2.1,Win32,60.24096386,66fa4ebf79326e780c390304,,,,,,,,,,,,,,,,,,,,,481.1209,481.1209,481.1235,482.5853,0,1,left,0.9273,,482.5892,484.0517,0,0,left,484.0551,484.0563,,0,,1,484.0564,484.0564,484.058,485.551,0,30,30,30,1,0.2,0.8,0.2,0.8,,,,,,,,,,,,,,,0.9508,,0.6,0.4,0.4,0.6,0.8,0.2,0.2,0.8,1,0,,,,,,,,,,,,
,,6138d26ce6302b626fcf805c,66fc98d7dbd7fd4b0b632ea4,2024-10-01_19h15.41.268,mdp,2024.2.1,Win32,60.24096386,66fa4ebf79326e780c390304,,,,,,,,,,,,,,,,,,,,,485.5526,485.5526,485.5546,486.5031,0,1,left,0.4184,,486.5061,487.9693,0,0,left,487.9711,487.9722,,0,,1,487.9723,487.9723,487.9736,489.466,0,31,31,31,1,0.2,0.8,0.2,0.8,,,,,,,,,,,,,,,0.9439,,0.6,0.4,0.4,0.6,0.8,0.2,0.2,0.8,1,0,,,,,,,,,,,,
,,6138d26ce6302b626fcf805c,66fc98d7dbd7fd4b0b632ea4,2024-10-01_19h15.41.268,mdp,2024.2.1,Win32,60.24096386,66fa4ebf79326e780c390304,,,,,,,,,,,,,,,,,,,,,489.4669,489.467,489.4686,491.0331,0,0,left,1.0434,,491.0362,492.7993,1,0,right,492.8006,492.8012,,1,,1,492.8012,492.8012,492.8018,494.3002,0,32,32,32,1,0.2,0.8,0.2,0.8,,,,,,,,,,,,,,,1.2456,,0.6,0.4,0.4,0.6,0.8,0.2,0.2,0.8,1,0,,,,,,,,,,,,
,,6138d26ce6302b626fcf805c,66fc98d7dbd7fd4b0b632ea4,2024-10-01_19h15.41.268,mdp,2024.2.1,Win32,60.24096386,66fa4ebf79326e780c390304,,,,,,,,,,,,,,,,,,,,,494.3018,494.3018,494.3045,495.8322,0,1,left,0.9968,,495.836,498.2817,0,1,left,498.2855,498.2868,,0,,0,498.2868,498.2869,498.2885,499.781,0,33,33,33,1,0.2,0.8,0.2,0.8,,,,,,,,,,,,,,,1.9032,,0.6,0.4,0.4,0.6,0.8,0.2,0.2,0.8,1,0,,,,,,,,,,,,
,,6138d26ce6302b626fcf805c,66fc98d7dbd7fd4b0b632ea4,2024-10-01_19h15.41.268,mdp,2024.2.1,Win32,60.24096386,66fa4ebf79326e780c390304,,,,,,,,,,,,,,,,,,,,,499.7825,499.7825,499.7858,500.6466,1,1,right,0.326,,500.6479,502.2681,0,0,left,502.2687,502.2691,,0,,1,502.2691,502.2691,502.2694,503.7633,0,34,34,34,1,0.2,0.8,0.2,0.8,,,,,,,,,,,,,,,1.1126,,0.6,0.4,0.4,0.6,0.8,0.2,0.2,0.8,1,0,,,,,,,,,,,,
,,6138d26ce6302b626fcf805c,66fc98d7dbd7fd4b0b632ea4,2024-10-01_19h15.41.268,mdp,2024.2.1,Win32,60.24096386,66fa4ebf79326e780c390304,,,,,,,,,,,,,,,,,,,,,503.7656,503.7656,503.7684,504.935,1,1,right,0.6596,,504.9373,505.9298,0,0,left,505.9326,505.9338,,0,,1,505.9338,505.9338,505.9352,507.429,0,35,35,35,1,0.2,0.8,0.2,0.8,,,,,,,,,,,,,,,0.4633,,0.6,0.4,0.4,0.6,0.8,0.2,0.2,0.8,1,0,,,,,,,,,,,,
,,6138d26ce6302b626fcf805c,66fc98d7dbd7fd4b0b632ea4,2024-10-01_19h15.41.268,mdp,2024.2.1,Win32,60.24096386,66fa4ebf79326e780c390304,,,,,,,,,,,,,,,,,,,,,507.4308,507.4309,507.4332,508.4121,1,0,right,0.4634,,508.4147,509.985,1,1,right,509.987,509.9883,,1,,0,509.9883,509.9883,509.99,511.4774,0,36,36,36,1,0.2,0.8,0.2,0.8,,,,,,,,,,,,,,,1.052,,0.6,0.4,0.4,0.6,0.8,0.2,0.2,0.8,1,0,,,,,,,,,,,,
,,6138d26ce6302b626fcf805c,66fc98d7dbd7fd4b0b632ea4,2024-10-01_19h15.41.268,mdp,2024.2.1,Win32,60.24096386,66fa4ebf79326e780c390304,,,,,,,,,,,,,,,,,,,,,511.4783,511.4784,511.4801,514.2946,0,1,left,2.2764,,514.2984,515.9335,1,1,right,515.937,515.9385,,1,,0,515.9386,515.9386,515.9399,517.4297,0,37,37,37,1,0.2,0.8,0.2,0.8,,,,,,,,,,,,,,,1.101,,0.6,0.4,0.4,0.6,0.8,0.2,0.2,0.8,1,0,,,,,,,,,,,,
,,6138d26ce6302b626fcf805c,66fc98d7dbd7fd4b0b632ea4,2024-10-01_19h15.41.268,mdp,2024.2.1,Win32,60.24096386,66fa4ebf79326e780c390304,,,,,,,,,,,,,,,,,,,,,517.4307,517.4307,517.4332,518.3973,0,1,left,0.443,,518.3982,519.2153,0,0,left,519.2173,519.2184,,0,,1,519.2184,519.2184,519.2198,520.7091,0,38,38,38,1,0.2,0.8,0.2,0.8,,,,,,,,,,,,,,,0.3011,,0.6,0.4,0.4,0.6,0.8,0.2,0.2,0.8,1,0,,,,,,,,,,,,
,,6138d26ce6302b626fcf805c,66fc98d7dbd7fd4b0b632ea4,2024-10-01_19h15.41.268,mdp,2024.2.1,Win32,60.24096386,66fa4ebf79326e780c390304,,,,,,,,,,,,,,,,,,,,,520.7107,520.7108,520.7124,521.8593,0,1,left,0.6251,,521.8638,524.3914,0,0,left,524.3927,524.3932,,1,,1,524.3933,524.3933,524.3937,525.8912,0,39,39,39,1,0.2,0.8,0.2,0.8,,,,,,,,,,,,,,,2.0003,,0.6,0.4,0.4,0.6,0.8,0.2,0.2,0.8,1,0,,,,,,,,,,,,
,,6138d26ce6302b626fcf805c,66fc98d7dbd7fd4b0b632ea4,2024-10-01_19h15.41.268,mdp,2024.2.1,Win32,60.24096386,66fa4ebf79326e780c390304,,,,,,,,,,,,,,,,,,,,,525.8931,525.8931,525.8953,526.9581,0,1,left,0.5397,,526.9618,528.1427,0,1,left,528.1434,528.1439,,0,,0,528.1439,528.1439,528.1444,529.6453,0,40,40,40,1,0.2,0.8,0.2,0.8,,,,,,,,,,,,,,,0.6651,,0.6,0.4,0.4,0.6,0.8,0.2,0.2,0.8,1,0,,,,,,,,,,,,
,,6138d26ce6302b626fcf805c,66fc98d7dbd7fd4b0b632ea4,2024-10-01_19h15.41.268,mdp,2024.2.1,Win32,60.24096386,66fa4ebf79326e780c390304,,,,,,,,,,,,,,,,,,,,,529.6461,529.6462,529.6483,533.7448,0,1,left,3.5814,,533.746,534.8404,0,0,left,534.8442,534.8463,,0,,1,534.8465,534.8466,534.8483,536.3438,0,41,41,41,1,0.2,0.8,0.2,0.8,,,,,,,,,,,,,,,0.5773,,0.6,0.4,0.4,0.6,0.8,0.2,0.2,0.8,1,0,,,,,,,,,,,,
,,6138d26ce6302b626fcf805c,66fc98d7dbd7fd4b0b632ea4,2024-10-01_19h15.41.268,mdp,2024.2.1,Win32,60.24096386,66fa4ebf79326e780c390304,,,,,,,,,,,,,,,,,,,,,536.3448,536.3448,536.3471,537.7597,0,0,left,0.8846,,537.7622,540.2096,0,1,left,540.211,540.2117,,0,,0,540.2118,540.2119,540.2126,541.7042,0,42,42,42,1,0.2,0.8,0.2,0.8,,,,,,,,,,,,,,,1.9163,,0.6,0.4,0.4,0.6,0.8,0.2,0.2,0.8,1,0,,,,,,,,,,,,
,,6138d26ce6302b626fcf805c,66fc98d7dbd7fd4b0b632ea4,2024-10-01_19h15.41.268,mdp,2024.2.1,Win32,60.24096386,66fa4ebf79326e780c390304,,,,,,,,,,,,,,,,,,,,,541.7056,541.7058,541.7081,543.21,1,1,right,0.9825,,543.2125,545.409,0,0,left,545.4104,545.4112,,0,,1,545.4112,545.4112,545.4121,546.9031,0,43,43,43,1,0.2,0.8,0.2,0.8,,,,,,,,,,,,,,,1.6676,,0.6,0.4,0.4,0.6,0.8,0.2,0.2,0.8,1,0,,,,,,,,,,,,
,,6138d26ce6302b626fcf805c,66fc98d7dbd7fd4b0b632ea4,2024-10-01_19h15.41.268,mdp,2024.2.1,Win32,60.24096386,66fa4ebf79326e780c390304,,,,,,,,,,,,,,,,,,,,,546.9047,546.9048,546.9072,547.8755,1,1,right,0.4627,,547.8773,548.886,0,1,left,548.8896,548.8907,,0,,0,548.8908,548.8908,548.8921,550.3884,0,44,44,44,1,0.2,0.8,0.2,0.8,,,,,,,,,,,,,,,0.4753,,0.6,0.4,0.4,0.6,0.8,0.2,0.2,0.8,1,0,,,,,,,,,,,,
,,6138d26ce6302b626fcf805c,66fc98d7dbd7fd4b0b632ea4,2024-10-01_19h15.41.268,mdp,2024.2.1,Win32,60.24096386,66fa4ebf79326e780c390304,,,,,,,,,,,,,,,,,,,,,550.3894,550.3895,550.392,551.6072,1,1,right,0.7105,,551.6094,552.7906,0,0,left,552.7922,552.7931,,0,,1,552.7932,552.7932,552.7942,554.2846,0,45,45,45,1,0.2,0.8,0.2,0.8,,,,,,,,,,,,,,,0.6506,,0.6,0.4,0.4,0.6,0.8,0.2,0.2,0.8,1,0,,,,,,,,,,,,
,,6138d26ce6302b626fcf805c,66fc98d7dbd7fd4b0b632ea4,2024-10-01_19h15.41.268,mdp,2024.2.1,Win32,60.24096386,66fa4ebf79326e780c390304,,,,,,,,,,,,,,,,,,,,,554.2863,554.2864,554.2886,555.4536,1,1,right,0.6487,,555.4548,557.5856,0,0,left,557.5863,557.5867,,0,,1,557.5867,557.5868,557.5872,559.0833,0,46,46,46,1,0.2,0.8,0.2,0.8,,,,,,,,,,,,,,,1.6253,,0.2,0.8,0.2,0.8,0.8,0.2,0.2,0.8,1,0,,,,,,,,,,,,
,,6138d26ce6302b626fcf805c,66fc98d7dbd7fd4b0b632ea4,2024-10-01_19h15.41.268,mdp,2024.2.1,Win32,60.24096386,66fa4ebf79326e780c390304,,,,,,,,,,,,,,,,,,,,,559.0853,559.0853,559.088,559.9559,1,0,right,0.3437,,559.9582,561.7332,1,1,right,561.7369,561.7384,,1,,0,561.7384,561.7384,561.7399,563.2373,0,47,47,47,1,0.2,0.8,0.2,0.8,,,,,,,,,,,,,,,1.2365,,0.2,0.8,0.2,0.8,0.8,0.2,0.2,0.8,1,0,,,,,,,,,,,,
,,6138d26ce6302b626fcf805c,66fc98d7dbd7fd4b0b632ea4,2024-10-01_19h15.41.268,mdp,2024.2.1,Win32,60.24096386,66fa4ebf79326e780c390304,,,,,,,,,,,,,,,,,,,,,563.2382,563.2383,563.2412,567.1333,0,1,left,3.376,,567.1355,568.9813,1,1,right,568.9849,568.9862,,1,,0,568.9862,568.9862,568.9876,570.4812,0,48,48,48,1,0.2,0.8,0.2,0.8,,,,,,,,,,,,,,,1.3246,,0.2,0.8,0.2,0.8,0.8,0.2,0.2,0.8,1,0,,,,,,,,,,,,
,,6138d26ce6302b626fcf805c,66fc98d7dbd7fd4b0b632ea4,2024-10-01_19h15.41.268,mdp,2024.2.1,Win32,60.24096386,66fa4ebf79326e780c390304,,,,,,,,,,,,,,,,,,,,,570.4827,570.483,570.4862,571.2363,0,1,left,0.2447,,571.2383,572.1529,1,1,right,572.155,572.1562,,1,,0,572.1563,572.1563,572.1578,573.6464,0,49,49,49,1,0.2,0.8,0.2,0.8,,,,,,,,,,,,,,,0.3861,,0.2,0.8,0.2,0.8,0.8,0.2,0.2,0.8,1,0,,,,,,,,,,,,
,,6138d26ce6302b626fcf805c,66fc98d7dbd7fd4b0b632ea4,2024-10-01_19h15.41.268,mdp,2024.2.1,Win32,60.24096386,66fa4ebf79326e780c390304,,,,,,,,,,,,,,,,,,,,,,,,,,,,,,,,,,,,,,,,,,,,,,,,,,,,,,,,573.6468,632.1715,0,1,1,6,1,imgs/rabbit.png,imgs/squirrel.png,imgs/lion.png,imgs/goat.png,imgs/cat.png,,,,,,,,,,,,,,,,,,,,,,,,
,,6138d26ce6302b626fcf805c,66fc98d7dbd7fd4b0b632ea4,2024-10-01_19h15.41.268,mdp,2024.2.1,Win32,60.24096386,66fa4ebf79326e780c390304,,,,,,,,,,,,,,3,seqs/st3seq45.csv,632.1722,674.3899,space,41.6757,,674.402,674.402,674.4033,677.571,0,1,left,2.6392,,677.5722,679.3442,0,0,left,679.3467,680.7543,0,1,left,0,680.7546,680.7546,680.7578,682.254,0,0,0,0,1,0.2,0.8,0.2,0.8,,,,,,,,,,,,,,,1.2437,,0.8,0.2,0.6,0.4,0.6,0.4,0.2,0.8,,,0.8708,,0.2,0.8,0.4,0.6,0.2,0.8,0.8,0.2,1,0
,,6138d26ce6302b626fcf805c,66fc98d7dbd7fd4b0b632ea4,2024-10-01_19h15.41.268,mdp,2024.2.1,Win32,60.24096386,66fa4ebf79326e780c390304,,,,,,,,,,,,,,,,,,,,,682.2561,682.2562,682.2585,683.3704,1,1,right,0.5722,,683.3739,684.6253,1,1,right,684.6275,686.6521,1,0,right,1,686.6522,686.6522,686.6541,688.1574,0,1,1,1,1,0.2,0.8,0.2,0.8,,,,,,,,,,,,,,,0.7291,,0.8,0.2,0.6,0.4,0.6,0.4,0.2,0.8,,,1.483,,0.2,0.8,0.4,0.6,0.2,0.8,0.8,0.2,1,0
,,6138d26ce6302b626fcf805c,66fc98d7dbd7fd4b0b632ea4,2024-10-01_19h15.41.268,mdp,2024.2.1,Win32,60.24096386,66fa4ebf79326e780c390304,,,,,,,,,,,,,,,,,,,,,688.1585,688.1585,688.1606,690.3021,1,1,right,1.6077,,690.3065,691.6582,1,1,right,691.6602,692.8411,1,1,right,0,692.8415,692.8418,692.8467,694.3394,0,2,2,2,1,0.2,0.8,0.2,0.8,,,,,,,,,,,,,,,0.8278,,0.8,0.2,0.6,0.4,0.4,0.6,0.4,0.6,,,0.6532,,0.2,0.8,0.4,0.6,0.2,0.8,0.8,0.2,1,0
,,6138d26ce6302b626fcf805c,66fc98d7dbd7fd4b0b632ea4,2024-10-01_19h15.41.268,mdp,2024.2.1,Win32,60.24096386,66fa4ebf79326e780c390304,,,,,,,,,,,,,,,,,,,,,694.3406,694.3406,694.3427,696.2721,1,1,right,1.4,,696.2735,697.4397,1,1,right,697.4419,698.6336,1,1,right,0,698.6338,698.6339,698.6372,700.1327,0,3,3,3,1,0.2,0.8,0.2,0.8,,,,,,,,,,,,,,,0.6351,,0.8,0.2,0.6,0.4,0.6,0.4,0.2,0.8,,,0.6635,,0.2,0.8,0.4,0.6,0.2,0.8,0.8,0.2,1,0
,,6138d26ce6302b626fcf805c,66fc98d7dbd7fd4b0b632ea4,2024-10-01_19h15.41.268,mdp,2024.2.1,Win32,60.24096386,66fa4ebf79326e780c390304,,,,,,,,,,,,,,,,,,,,,700.1348,700.1349,700.137,703.2057,1,0,right,2.5364,,703.2079,705.5652,1,0,right,705.5687,707.3136,0,0,left,1,707.3138,707.3138,707.315,708.8013,0,4,4,4,1,0.2,0.8,0.2,0.8,,,,,,,,,,,,,,,1.822,,0.8,0.2,0.6,0.4,0.6,0.4,0.2,0.8,,,1.2087,,0.2,0.8,0.4,0.6,0.2,0.8,0.8,0.2,1,0
,,6138d26ce6302b626fcf805c,66fc98d7dbd7fd4b0b632ea4,2024-10-01_19h15.41.268,mdp,2024.2.1,Win32,60.24096386,66fa4ebf79326e780c390304,,,,,,,,,,,,,,,,,,,,,708.802,708.8021,708.803,710.164,1,1,right,0.8454,,710.1675,712.2135,1,1,right,712.2172,713.8855,0,0,left,1,713.8857,713.8857,713.8885,715.3795,0,5,5,5,1,0.2,0.8,0.2,0.8,,,,,,,,,,,,,,,1.5031,,0.8,0.2,0.6,0.4,0.6,0.4,0.2,0.8,,,1.1338,,0.2,0.8,0.4,0.6,0.2,0.8,0.8,0.2,1,0
,,6138d26ce6302b626fcf805c,66fc98d7dbd7fd4b0b632ea4,2024-10-01_19h15.41.268,mdp,2024.2.1,Win32,60.24096386,66fa4ebf79326e780c390304,,,,,,,,,,,,,,,,,,,,,715.3829,715.383,715.385,730.2087,1,1,right,14.3019,,730.2106,731.376,1,1,right,731.3792,732.7112,0,0,left,1,732.7113,732.7113,732.714,734.2113,0,6,6,6,1,0.2,0.8,0.2,0.8,,,,,,,,,,,,,,,0.6395,,0.8,0.2,0.6,0.4,0.6,0.4,0.2,0.8,,,0.8116,,0.2,0.8,0.4,0.6,0.2,0.8,0.8,0.2,1,0
,,6138d26ce6302b626fcf805c,66fc98d7dbd7fd4b0b632ea4,2024-10-01_19h15.41.268,mdp,2024.2.1,Win32,60.24096386,66fa4ebf79326e780c390304,,,,,,,,,,,,,,,,,,,,,734.2116,734.2116,734.2123,736.34,1,1,right,1.6033,,736.3414,737.3741,1,1,right,737.3779,738.5741,0,0,left,1,738.5746,738.5746,738.5781,740.0723,0,7,7,7,1,0.2,0.8,0.2,0.8,,,,,,,,,,,,,,,0.5205,,0.8,0.2,0.6,0.4,0.6,0.4,0.2,0.8,,,0.6578,,0.2,0.8,0.4,0.6,0.2,0.8,0.8,0.2,1,0
,,6138d26ce6302b626fcf805c,66fc98d7dbd7fd4b0b632ea4,2024-10-01_19h15.41.268,mdp,2024.2.1,Win32,60.24096386,66fa4ebf79326e780c390304,,,,,,,,,,,,,,,,,,,,,740.0734,740.0734,740.0753,741.2289,1,0,right,0.6328,,741.231,742.1125,1,0,right,742.1147,743.0553,0,1,left,0,743.0555,743.0555,743.0574,744.5608,0,8,8,8,1,0.2,0.8,0.2,0.8,,,,,,,,,,,,,,,0.3511,,0.8,0.2,0.6,0.4,0.6,0.4,0.2,0.8,,,0.406,,0.2,0.8,0.4,0.6,0.2,0.8,0.8,0.2,1,0
,,6138d26ce6302b626fcf805c,66fc98d7dbd7fd4b0b632ea4,2024-10-01_19h15.41.268,mdp,2024.2.1,Win32,60.24096386,66fa4ebf79326e780c390304,,,,,,,,,,,,,,,,,,,,,744.562,744.5622,744.5646,749.3442,1,1,right,4.2655,,749.3469,750.2775,1,1,right,750.2797,751.3757,0,0,left,1,751.3758,751.3758,751.3775,752.8698,0,9,9,9,1,0.2,0.8,0.2,0.8,,,,,,,,,,,,,,,0.402,,0.8,0.2,0.6,0.4,0.6,0.4,0.2,0.8,,,0.5679,,0.2,0.8,0.4,0.6,0.2,0.8,0.8,0.2,1,0
,,6138d26ce6302b626fcf805c,66fc98d7dbd7fd4b0b632ea4,2024-10-01_19h15.41.268,mdp,2024.2.1,Win32,60.24096386,66fa4ebf79326e780c390304,,,,,,,,,,,,,,,,,,,,,752.8717,752.8717,752.8733,753.7028,1,1,right,0.302,,753.7041,754.477,1,0,right,754.4792,755.4546,0,1,left,0,755.4549,755.455,755.4577,756.9576,0,10,10,10,1,0.2,0.8,0.2,0.8,,,,,,,,,,,,,,,0.2623,,0.8,0.2,0.6,0.4,0.6,0.4,0.2,0.8,,,0.4407,,0.2,0.8,0.4,0.6,0.2,0.8,0.8,0.2,1,0
,,6138d26ce6302b626fcf805c,66fc98d7dbd7fd4b0b632ea4,2024-10-01_19h15.41.268,mdp,2024.2.1,Win32,60.24096386,66fa4ebf79326e780c390304,,,,,,,,,,,,,,,,,,,,,756.9588,756.9591,756.9614,757.7875,1,0,right,0.3059,,757.7907,758.575,1,0,right,758.5774,759.8852,1,1,right,0,759.8859,759.886,759.8885,761.3841,0,11,11,11,1,0.2,0.8,0.2,0.8,,,,,,,,,,,,,,,0.2508,,0.8,0.2,0.6,0.4,0.6,0.4,0.2,0.8,,,0.7736,,0.2,0.8,0.4,0.6,0.2,0.8,0.8,0.2,1,0
,,6138d26ce6302b626fcf805c,66fc98d7dbd7fd4b0b632ea4,2024-10-01_19h15.41.268,mdp,2024.2.1,Win32,60.24096386,66fa4ebf79326e780c390304,,,,,,,,,,,,,,,,,,,,,761.3857,761.3857,761.3867,762.1672,1,1,right,0.2751,,762.1689,763.3847,1,1,right,763.3882,764.657,0,1,left,0,764.6573,764.6574,764.6602,766.1502,0,12,12,12,1,0.2,0.8,0.2,0.8,,,,,,,,,,,,,,,0.6868,,0.8,0.2,0.6,0.4,0.6,0.4,0.2,0.8,,,0.7508,,0.2,0.8,0.4,0.6,0.2,0.8,0.8,0.2,1,0
,,6138d26ce6302b626fcf805c,66fc98d7dbd7fd4b0b632ea4,2024-10-01_19h15.41.268,mdp,2024.2.1,Win32,60.24096386,66fa4ebf79326e780c390304,,,,,,,,,,,,,,,,,,,,,766.1525,766.1525,766.1546,766.8231,1,1,right,0.1347,,766.8252,767.5897,1,1,right,767.5922,768.5504,0,1,left,0,768.5513,768.5513,768.5538,770.0492,0,13,13,13,1,0.2,0.8,0.2,0.8,,,,,,,,,,,,,,,0.2345,,0.8,0.2,0.6,0.4,0.6,0.4,0.2,0.8,,,0.4288,,0.2,0.8,0.4,0.6,0.2,0.8,0.8,0.2,1,0
,,6138d26ce6302b626fcf805c,66fc98d7dbd7fd4b0b632ea4,2024-10-01_19h15.41.268,mdp,2024.2.1,Win32,60.24096386,66fa4ebf79326e780c390304,,,,,,,,,,,,,,,,,,,,,770.0513,770.0514,770.0535,1564.6249,1,1,right,794.0398,,1564.6266,1566.691,1,0,right,1566.6926,1568.0119,1,0,right,1,1568.012,1568.012,1568.0128,1569.5163,0,14,14,14,1,0.2,0.8,0.2,0.8,,,,,,,,,,,,,,,1.5341,,0.8,0.2,0.6,0.4,0.6,0.4,0.2,0.8,,,0.7999,,0.2,0.8,0.4,0.6,0.2,0.8,0.8,0.2,1,0
,,6138d26ce6302b626fcf805c,66fc98d7dbd7fd4b0b632ea4,2024-10-01_19h15.41.268,mdp,2024.2.1,Win32,60.24096386,66fa4ebf79326e780c390304,,,,,,,,,,,,,,,,,,,,,1569.518,1569.518,1569.5206,1570.4403,1,1,right,0.4008,,1570.4428,1571.3233,1,1,right,1571.3246,1572.2905,0,1,left,0,1572.2908,1572.2908,1572.294,1573.7897,0,15,15,15,1,0.2,0.8,0.2,0.8,,,,,,,,,,,,,,,0.3616,,0.8,0.2,0.6,0.4,0.6,0.4,0.2,0.8,,,0.4428,,0.2,0.8,0.4,0.6,0.2,0.8,0.8,0.2,1,0
,,6138d26ce6302b626fcf805c,66fc98d7dbd7fd4b0b632ea4,2024-10-01_19h15.41.268,mdp,2024.2.1,Win32,60.24096386,66fa4ebf79326e780c390304,,,,,,,,,,,,,,,,,,,,,1573.7914,1573.7914,1573.7928,1574.7901,1,1,right,0.4848,,1574.7939,1575.6938,1,1,right,1575.696,1576.8783,1,0,right,1,1576.8785,1576.8785,1576.8821,1578.3726,0,16,16,16,1,0.2,0.8,0.2,0.8,,,,,,,,,,,,,,,0.3753,,0.8,0.2,0.6,0.4,0.6,0.4,0.2,0.8,,,0.668,,0.2,0.8,0.4,0.6,0.2,0.8,0.8,0.2,1,0
,,6138d26ce6302b626fcf805c,66fc98d7dbd7fd4b0b632ea4,2024-10-01_19h15.41.268,mdp,2024.2.1,Win32,60.24096386,66fa4ebf79326e780c390304,,,,,,,,,,,,,,,,,,,,,1578.3747,1578.3748,1578.3777,1579.3724,1,1,right,0.4615,,1579.376,1580.4448,1,1,right,1580.4479,1582.0105,1,0,right,1,1582.0107,1582.0107,1582.0132,1583.5045,0,17,17,17,1,0.2,0.8,0.2,0.8,,,,,,,,,,,,,,,0.5445,,0.8,0.2,0.6,0.4,0.6,0.4,0.2,0.8,,,1.0444,,0.2,0.8,0.4,0.6,0.2,0.8,0.8,0.2,1,0
,,6138d26ce6302b626fcf805c,66fc98d7dbd7fd4b0b632ea4,2024-10-01_19h15.41.268,mdp,2024.2.1,Win32,60.24096386,66fa4ebf79326e780c390304,,,,,,,,,,,,,,,,,,,,,1583.5066,1583.5066,1583.5095,1584.4918,1,0,right,0.4764,,1584.4942,1585.32,1,1,right,1585.3217,1586.793,1,1,right,0,1586.7932,1586.7932,1586.7952,1588.2883,0,18,18,18,1,0.2,0.8,0.2,0.8,,,,,,,,,,,,,,,0.2836,,0.8,0.2,0.6,0.4,0.6,0.4,0.2,0.8,,,0.951,,0.2,0.8,0.4,0.6,0.6,0.4,0.2,0.8,1,0
,,6138d26ce6302b626fcf805c,66fc98d7dbd7fd4b0b632ea4,2024-10-01_19h15.41.268,mdp,2024.2.1,Win32,60.24096386,66fa4ebf79326e780c390304,,,,,,,,,,,,,,,,,,,,,1588.2886,1588.2886,1588.2893,1589.2756,1,0,right,0.4683,,1589.2779,1590.5402,0,0,left,1590.5422,1591.8025,1,1,right,0,1591.8028,1591.8029,1591.8064,1593.3024,0,19,19,19,1,0.2,0.8,0.2,0.8,,,,,,,,,,,,,,,0.7472,,0.8,0.2,0.6,0.4,0.6,0.4,0.2,0.8,,,0.7247,,0.2,0.8,0.4,0.6,0.6,0.4,0.2,0.8,1,0
,,6138d26ce6302b626fcf805c,66fc98d7dbd7fd4b0b632ea4,2024-10-01_19h15.41.268,mdp,2024.2.1,Win32,60.24096386,66fa4ebf79326e780c390304,,,,,,,,,,,,,,,,,,,,,1593.3044,1593.3045,1593.3066,1594.2253,1,1,right,0.4026,,1594.228,1595.7405,1,1,right,1595.7429,1597.4234,1,1,right,0,1597.4237,1597.4237,1597.4264,1598.9208,0,20,20,20,1,0.2,0.8,0.2,0.8,,,,,,,,,,,,,,,0.9836,,0.8,0.2,0.6,0.4,0.6,0.4,0.2,0.8,,,1.1502,,0.2,0.8,0.4,0.6,0.6,0.4,0.2,0.8,1,0
,,6138d26ce6302b626fcf805c,66fc98d7dbd7fd4b0b632ea4,2024-10-01_19h15.41.268,mdp,2024.2.1,Win32,60.24096386,66fa4ebf79326e780c390304,,,,,,,,,,,,,,,,,,,,,1598.9213,1598.9213,1598.9221,1599.8868,1,1,right,0.4451,,1599.8886,1600.9545,1,1,right,1600.9569,1601.8728,1,1,right,0,1601.8729,1601.8732,1601.8764,1603.3656,0,21,21,21,1,0.2,0.8,0.2,0.8,,,,,,,,,,,,,,,0.5326,,0.8,0.2,0.6,0.4,0.6,0.4,0.2,0.8,,,0.4113,,0.2,0.8,0.4,0.6,0.6,0.4,0.2,0.8,1,0
,,6138d26ce6302b626fcf805c,66fc98d7dbd7fd4b0b632ea4,2024-10-01_19h15.41.268,mdp,2024.2.1,Win32,60.24096386,66fa4ebf79326e780c390304,,,,,,,,,,,,,,,,,,,,,1603.3662,1603.3662,1603.3674,1604.3496,1,1,right,0.4499,,1604.3527,1605.6326,1,1,right,1605.6361,1606.6317,0,1,left,0,1606.6318,1606.6319,1606.6336,1608.1311,0,22,22,22,1,0.2,0.8,0.2,0.8,,,,,,,,,,,,,,,0.7639,,0.8,0.2,0.6,0.4,0.6,0.4,0.2,0.8,,,0.4697,,0.2,0.8,0.4,0.6,0.6,0.4,0.2,0.8,1,0
,,6138d26ce6302b626fcf805c,66fc98d7dbd7fd4b0b632ea4,2024-10-01_19h15.41.268,mdp,2024.2.1,Win32,60.24096386,66fa4ebf79326e780c390304,,,,,,,,,,,,,,,,,,,,,1608.1315,1608.1316,1608.133,1612.7535,0,1,left,4.0866,,1612.7563,1613.8339,0,1,left,1613.8358,1615.7133,1,1,right,0,1615.7134,1615.7135,1615.7164,1617.2126,0,23,23,23,1,0.2,0.8,0.2,0.8,,,,,,,,,,,,,,,0.5506,,0.8,0.2,0.6,0.4,0.6,0.4,0.2,0.8,,,1.3724,,0.2,0.8,0.4,0.6,0.6,0.4,0.2,0.8,1,0
,,6138d26ce6302b626fcf805c,66fc98d7dbd7fd4b0b632ea4,2024-10-01_19h15.41.268,mdp,2024.2.1,Win32,60.24096386,66fa4ebf79326e780c390304,,,,,,,,,,,,,,,,,,,,,1617.2136,1617.2137,1617.2154,1618.2296,1,1,right,0.502,,1618.2335,1619.7137,1,0,right,1619.7174,1621.1452,1,0,right,1,1621.1454,1621.1454,1621.1477,1622.6496,0,24,24,24,1,0.2,0.8,0.2,0.8,,,,,,,,,,,,,,,0.9727,,0.8,0.2,0.6,0.4,0.6,0.4,0.2,0.8,,,0.8854,,0.2,0.8,0.4,0.6,0.6,0.4,0.2,0.8,1,0
,,6138d26ce6302b626fcf805c,66fc98d7dbd7fd4b0b632ea4,2024-10-01_19h15.41.268,mdp,2024.2.1,Win32,60.24096386,66fa4ebf79326e780c390304,,,,,,,,,,,,,,,,,,,,,1622.6509,1622.651,1622.6537,1623.7008,1,0,right,0.5289,,1623.7028,1625.3505,0,0,left,1625.3529,1627.4336,1,1,right,0,1627.4339,1627.4339,1627.4361,1628.9272,0,25,25,25,1,0.2,0.8,0.2,0.8,,,,,,,,,,,,,,,1.1175,,0.8,0.2,0.6,0.4,0.2,0.8,0.4,0.6,,,1.5513,,0.2,0.8,0.4,0.6,0.6,0.4,0.2,0.8,1,0
,,6138d26ce6302b626fcf805c,66fc98d7dbd7fd4b0b632ea4,2024-10-01_19h15.41.268,mdp,2024.2.1,Win32,60.24096386,66fa4ebf79326e780c390304,,,,,,,,,,,,,,,,,,,,,1628.9294,1628.9294,1628.9316,1630.5655,1,1,right,1.1288,,1630.5677,1632.8258,1,1,right,1632.8295,1635.1816,0,0,left,1,1635.1818,1635.1818,1635.1844,1636.6752,0,26,26,26,1,0.2,0.8,0.2,0.8,,,,,,,,,,,,,,,1.7275,,0.8,0.2,0.6,0.4,0.2,0.8,0.4,0.6,,,1.8177,,0.2,0.8,0.4,0.6,0.6,0.4,0.2,0.8,1,0
,,6138d26ce6302b626fcf805c,66fc98d7dbd7fd4b0b632ea4,2024-10-01_19h15.41.268,mdp,2024.2.1,Win32,60.24096386,66fa4ebf79326e780c390304,,,,,,,,,,,,,,,,,,,,,1636.6774,1636.6775,1636.6796,1637.6637,1,1,right,0.4774,,1637.6665,1638.8576,1,1,right,1638.8603,1640.2243,0,1,left,0,1640.2247,1640.2247,1640.2277,1641.724,0,27,27,27,1,0.2,0.8,0.2,0.8,,,,,,,,,,,,,,,0.6581,,0.8,0.2,0.6,0.4,0.2,0.8,0.4,0.6,,,0.8366,,0.2,0.8,0.4,0.6,0.8,0.2,0.6,0.4,1,0
,,6138d26ce6302b626fcf805c,66fc98d7dbd7fd4b0b632ea4,2024-10-01_19h15.41.268,mdp,2024.2.1,Win32,60.24096386,66fa4ebf79326e780c390304,,,,,,,,,,,,,,,,,,,,,1641.7261,1641.7262,1641.7284,1642.5561,1,1,right,0.3001,,1642.5574,1643.5235,1,1,right,1643.5268,1645.5957,0,0,left,1,1645.5959,1645.5959,1645.5979,1647.0884,0,28,28,28,1,0.2,0.8,0.2,0.8,,,,,,,,,,,,,,,0.4449,,0.8,0.2,0.6,0.4,0.2,0.8,0.4,0.6,,,1.5613,,0.2,0.8,0.4,0.6,0.8,0.2,0.6,0.4,1,0
,,6138d26ce6302b626fcf805c,66fc98d7dbd7fd4b0b632ea4,2024-10-01_19h15.41.268,mdp,2024.2.1,Win32,60.24096386,66fa4ebf79326e780c390304,,,,,,,,,,,,,,,,,,,,,1647.089,1647.089,1647.0903,1647.9381,1,1,right,0.3063,,1647.9394,1648.8715,1,1,right,1648.8734,1650.0585,0,0,left,1,1650.0586,1650.0587,1650.0604,1651.5548,0,29,29,29,1,0.2,0.8,0.2,0.8,,,,,,,,,,,,,,,0.403,,0.8,0.2,0.6,0.4,0.2,0.8,0.4,0.6,,,0.649,,0.2,0.8,0.4,0.6,0.8,0.2,0.6,0.4,1,0
,,6138d26ce6302b626fcf805c,66fc98d7dbd7fd4b0b632ea4,2024-10-01_19h15.41.268,mdp,2024.2.1,Win32,60.24096386,66fa4ebf79326e780c390304,,,,,,,,,,,,,,,,,,,,,1651.5567,1651.5568,1651.5589,1652.3604,1,1,right,0.267,,1652.3628,1653.2702,1,0,right,1653.2716,1655.2036,1,1,right,0,1655.2037,1655.2037,1655.2062,1656.7055,0,30,30,30,1,0.2,0.8,0.2,0.8,,,,,,,,,,,,,,,0.3701,,0.8,0.2,0.6,0.4,0.2,0.8,0.4,0.6,,,1.408,,0.2,0.8,0.4,0.6,0.8,0.2,0.6,0.4,1,0
,,6138d26ce6302b626fcf805c,66fc98d7dbd7fd4b0b632ea4,2024-10-01_19h15.41.268,mdp,2024.2.1,Win32,60.24096386,66fa4ebf79326e780c390304,,,,,,,,,,,,,,,,,,,,,1656.706,1656.706,1656.7069,1657.5735,1,1,right,0.3612,,1657.5753,1658.4694,1,1,right,1658.471,1659.7566,0,0,left,1,1659.7568,1659.7568,1659.7573,1661.2541,0,31,31,31,1,0.2,0.8,0.2,0.8,,,,,,,,,,,,,,,0.3903,,0.8,0.2,0.6,0.4,0.2,0.8,0.4,0.6,,,0.7659,,0.2,0.8,0.4,0.6,0.8,0.2,0.6,0.4,1,0
,,6138d26ce6302b626fcf805c,66fc98d7dbd7fd4b0b632ea4,2024-10-01_19h15.41.268,mdp,2024.2.1,Win32,60.24096386,66fa4ebf79326e780c390304,,,,,,,,,,,,,,,,,,,,,1661.2544,1661.2544,1661.255,1662.2524,1,1,right,0.457,,1662.2555,1663.3067,1,1,right,1663.3078,1664.8011,0,0,left,1,1664.8011,1664.8011,1664.8022,1666.3008,0,32,32,32,1,0.2,0.8,0.2,0.8,,,,,,,,,,,,,,,0.5333,,0.8,0.2,0.6,0.4,0.2,0.8,0.4,0.6,,,0.9776,,0.4,0.6,0.6,0.4,0.8,0.2,0.6,0.4,1,0
,,6138d26ce6302b626fcf805c,66fc98d7dbd7fd4b0b632ea4,2024-10-01_19h15.41.268,mdp,2024.2.1,Win32,60.24096386,66fa4ebf79326e780c390304,,,,,,,,,,,,,,,,,,,,,1666.3018,1666.3018,1666.3033,1667.1051,1,0,right,0.2817,,1667.106,1667.9226,1,1,right,1667.9238,1669.2165,0,0,left,1,1669.2165,1669.2165,1669.2184,1670.7182,0,33,33,33,1,0.8,0.2,0.4,0.6,,,,,,,,,,,,,,,0.2838,,0.8,0.2,0.6,0.4,0.2,0.8,0.4,0.6,,,0.7669,,0.4,0.6,0.6,0.4,0.8,0.2,0.6,0.4,1,0
,,6138d26ce6302b626fcf805c,66fc98d7dbd7fd4b0b632ea4,2024-10-01_19h15.41.268,mdp,2024.2.1,Win32,60.24096386,66fa4ebf79326e780c390304,,,,,,,,,,,,,,,,,,,,,1670.7185,1670.7185,1670.7192,1673.8682,1,0,right,2.6167,,1673.8688,1675.7814,0,1,left,1675.7827,1677.2026,1,1,right,0,1677.2026,1677.2026,1677.2033,1678.7033,0,34,34,34,1,0.8,0.2,0.4,0.6,,,,,,,,,,,,,,,1.3784,,0.8,0.2,0.6,0.4,0.2,0.8,0.4,0.6,,,0.8997,,0.4,0.6,0.6,0.4,0.8,0.2,0.6,0.4,1,0
,,6138d26ce6302b626fcf805c,66fc98d7dbd7fd4b0b632ea4,2024-10-01_19h15.41.268,mdp,2024.2.1,Win32,60.24096386,66fa4ebf79326e780c390304,,,,,,,,,,,,,,,,,,,,,1678.7044,1678.7044,1678.7068,1679.7371,1,1,right,0.5007,,1679.7395,1680.852,1,1,right,1680.8541,1682.2204,0,0,left,1,1682.2208,1682.2208,1682.2227,1683.7168,0,35,35,35,1,0.8,0.2,0.4,0.6,,,,,,,,,,,,,,,0.5824,,0.8,0.2,0.6,0.4,0.2,0.8,0.4,0.6,,,0.8346,,0.4,0.6,0.6,0.4,0.8,0.2,0.6,0.4,1,0
,,6138d26ce6302b626fcf805c,66fc98d7dbd7fd4b0b632ea4,2024-10-01_19h15.41.268,mdp,2024.2.1,Win32,60.24096386,66fa4ebf79326e780c390304,,,,,,,,,,,,,,,,,,,,,1683.7178,1683.7178,1683.72,1684.5846,1,0,right,0.3601,,1684.5856,1688.1955,1,1,right,1688.1974,1689.8128,1,1,right,0,1689.813,1689.813,1689.8159,1691.3119,0,36,36,36,1,0.8,0.2,0.4,0.6,,,,,,,,,,,,,,,3.0863,,0.8,0.2,0.6,0.4,0.2,0.8,0.4,0.6,,,1.102,,0.4,0.6,0.6,0.4,0.8,0.2,0.6,0.4,1,0
,,6138d26ce6302b626fcf805c,66fc98d7dbd7fd4b0b632ea4,2024-10-01_19h15.41.268,mdp,2024.2.1,Win32,60.24096386,66fa4ebf79326e780c390304,,,,,,,,,,,,,,,,,,,,,1691.3143,1691.3144,1691.3166,1692.2344,1,1,right,0.4114,,1692.2366,1693.0616,1,0,right,1693.0652,1694.4439,1,0,right,1,1694.4441,1694.4441,1694.4459,1695.9487,0,37,37,37,1,0.8,0.2,0.4,0.6,,,,,,,,,,,,,,,0.2912,,0.8,0.2,0.6,0.4,0.2,0.8,0.4,0.6,,,0.8404,,0.4,0.6,0.6,0.4,0.8,0.2,0.6,0.4,1,0
,,6138d26ce6302b626fcf805c,66fc98d7dbd7fd4b0b632ea4,2024-10-01_19h15.41.268,mdp,2024.2.1,Win32,60.24096386,66fa4ebf79326e780c390304,,,,,,,,,,,,,,,,,,,,,1695.9502,1695.9503,1695.9527,1696.7764,1,0,right,0.3017,,1696.7777,1698.0265,0,0,left,1698.0279,1699.944,0,0,left,1,1699.9443,1699.9443,1699.9474,1701.443,0,38,38,38,1,0.8,0.2,0.4,0.6,,,,,,,,,,,,,,,0.718,,0.8,0.2,0.6,0.4,0.2,0.8,0.4,0.6,,,1.4065,,0.4,0.6,0.6,0.4,0.8,0.2,0.6,0.4,1,0
,,6138d26ce6302b626fcf805c,66fc98d7dbd7fd4b0b632ea4,2024-10-01_19h15.41.268,mdp,2024.2.1,Win32,60.24096386,66fa4ebf79326e780c390304,,,,,,,,,,,,,,,,,,,,,1701.4451,1701.4452,1701.4473,1702.7092,1,1,right,0.7302,,1702.7128,1703.8427,1,1,right,1703.8464,1705.4086,0,0,left,1,1705.4088,1705.4088,1705.4128,1706.9081,0,39,39,39,1,0.8,0.2,0.4,0.6,,,,,,,,,,,,,,,0.5895,,0.8,0.2,0.6,0.4,0.2,0.8,0.4,0.6,,,1.0238,,0.4,0.6,0.6,0.4,0.8,0.2,0.6,0.4,1,0
,,6138d26ce6302b626fcf805c,66fc98d7dbd7fd4b0b632ea4,2024-10-01_19h15.41.268,mdp,2024.2.1,Win32,60.24096386,66fa4ebf79326e780c390304,,,,,,,,,,,,,,,,,,,,,1706.9099,1706.91,1706.9118,1707.7627,1,1,right,0.3328,,1707.7645,1708.7745,1,1,right,1708.7778,1709.8974,0,0,left,1,1709.8975,1709.8975,1709.8999,1711.3904,0,40,40,40,1,0.8,0.2,0.4,0.6,,,,,,,,,,,,,,,0.4925,,0.8,0.2,0.6,0.4,0.2,0.8,0.4,0.6,,,0.595,,0.4,0.6,0.6,0.4,0.8,0.2,0.6,0.4,1,0
,,6138d26ce6302b626fcf805c,66fc98d7dbd7fd4b0b632ea4,2024-10-01_19h15.41.268,mdp,2024.2.1,Win32,60.24096386,66fa4ebf79326e780c390304,,,,,,,,,,,,,,,,,,,,,1711.3927,1711.3927,1711.3953,1712.3239,1,1,right,0.4035,,1712.328,1713.4573,1,1,right,1713.4608,1714.6797,0,0,left,1,1714.6799,1714.6799,1714.6828,1716.1735,0,41,41,41,1,0.8,0.2,0.4,0.6,,,,,,,,,,,,,,,0.6016,,0.8,0.2,0.6,0.4,0.2,0.8,0.4,0.6,,,0.6959,,0.6,0.4,0.4,0.6,0.8,0.2,0.6,0.4,1,0
,,6138d26ce6302b626fcf805c,66fc98d7dbd7fd4b0b632ea4,2024-10-01_19h15.41.268,mdp,2024.2.1,Win32,60.24096386,66fa4ebf79326e780c390304,,,,,,,,,,,,,,,,,,,,,1716.1755,1716.1756,1716.178,1717.0393,1,1,right,0.3489,,1717.043,1717.9714,1,0,right,1717.9737,1719.0711,1,0,right,1,1719.0712,1719.0712,1719.0728,1720.576,0,42,42,42,1,0.8,0.2,0.4,0.6,,,,,,,,,,,,,,,0.4156,,0.8,0.2,0.6,0.4,0.2,0.8,0.4,0.6,,,0.5559,,0.6,0.4,0.4,0.6,0.8,0.2,0.6,0.4,1,0
,,6138d26ce6302b626fcf805c,66fc98d7dbd7fd4b0b632ea4,2024-10-01_19h15.41.268,mdp,2024.2.1,Win32,60.24096386,66fa4ebf79326e780c390304,,,,,,,,,,,,,,,,,,,,,1720.577,1720.5771,1720.58,1721.4438,1,1,right,0.3444,,1721.4457,1722.5044,1,0,right,1722.508,1723.7045,1,0,right,1,1723.7046,1723.7047,1723.708,1725.2093,0,43,43,43,1,0.8,0.2,0.4,0.6,,,,,,,,,,,,,,,0.5246,,0.8,0.2,0.6,0.4,0.2,0.8,0.4,0.6,,,0.6637,,0.6,0.4,0.4,0.6,0.8,0.2,0.6,0.4,1,0
,,6138d26ce6302b626fcf805c,66fc98d7dbd7fd4b0b632ea4,2024-10-01_19h15.41.268,mdp,2024.2.1,Win32,60.24096386,66fa4ebf79326e780c390304,,,,,,,,,,,,,,,,,,,,,1725.2104,1725.2104,1725.2131,1726.089,1,1,right,0.3466,,1726.0913,1727.0548,1,1,right,1727.0573,1728.2031,0,0,left,1,1728.2032,1728.2033,1728.2067,1729.7023,0,44,44,44,1,0.8,0.2,0.4,0.6,,,,,,,,,,,,,,,0.4292,,0.8,0.2,0.6,0.4,0.2,0.8,0.4,0.6,,,0.606,,0.6,0.4,0.4,0.6,0.8,0.2,0.6,0.4,1,0
,,6138d26ce6302b626fcf805c,66fc98d7dbd7fd4b0b632ea4,2024-10-01_19h15.41.268,mdp,2024.2.1,Win32,60.24096386,66fa4ebf79326e780c390304,,,,,,,,,,,,,,,,,,,,,1729.7035,1729.7035,1729.7051,1730.6858,1,1,right,0.4688,,1730.6892,1731.7416,1,1,right,1731.7436,1732.8368,0,0,left,1,1732.837,1732.8372,1732.8398,1734.3391,0,45,45,45,1,0.8,0.2,0.4,0.6,,,,,,,,,,,,,,,0.5279,,0.8,0.2,0.6,0.4,0.2,0.8,0.4,0.6,,,0.5606,,0.6,0.4,0.4,0.6,0.8,0.2,0.6,0.4,1,0
,,6138d26ce6302b626fcf805c,66fc98d7dbd7fd4b0b632ea4,2024-10-01_19h15.41.268,mdp,2024.2.1,Win32,60.24096386,66fa4ebf79326e780c390304,,,,,,,,,,,,,,,,,,,,,1734.34,1734.3401,1734.3419,1735.3017,1,0,right,0.4408,,1735.3057,1736.7846,0,1,left,1736.7877,1739.4688,0,0,left,1,1739.4688,1739.4688,1739.4695,1740.967,0,46,46,46,1,0.8,0.2,0.4,0.6,,,,,,,,,,,,,,,0.9429,,0.8,0.2,0.6,0.4,0.2,0.8,0.4,0.6,,,2.175,,0.6,0.4,0.4,0.6,0.8,0.2,0.6,0.4,1,0
,,6138d26ce6302b626fcf805c,66fc98d7dbd7fd4b0b632ea4,2024-10-01_19h15.41.268,mdp,2024.2.1,Win32,60.24096386,66fa4ebf79326e780c390304,,,,,,,,,,,,,,,,,,,,,1740.9693,1740.9693,1740.972,1742.2219,1,0,right,0.729,,1742.2239,1743.5057,0,0,left,1743.508,1744.8156,0,1,left,0,1744.8159,1744.8159,1744.8192,1746.3038,0,47,47,47,1,0.8,0.2,0.4,0.6,,,,,,,,,,,,,,,0.766,,0.8,0.2,0.6,0.4,0.2,0.8,0.4,0.6,,,0.7747,,0.6,0.4,0.4,0.6,0.8,0.2,0.6,0.4,1,0
,,6138d26ce6302b626fcf805c,66fc98d7dbd7fd4b0b632ea4,2024-10-01_19h15.41.268,mdp,2024.2.1,Win32,60.24096386,66fa4ebf79326e780c390304,,,,,,,,,,,,,,,,,,,,,1746.3048,1746.3048,1746.3069,1747.248,1,1,right,0.421,,1747.2499,1748.4203,1,1,right,1748.4233,1749.5814,0,0,left,1,1749.5815,1749.5817,1749.5851,1751.0804,0,48,48,48,1,0.8,0.2,0.4,0.6,,,,,,,,,,,,,,,0.6497,,0.8,0.2,0.6,0.4,0.8,0.2,0.2,0.8,,,0.6211,,0.6,0.4,0.4,0.6,0.8,0.2,0.6,0.4,1,0
,,6138d26ce6302b626fcf805c,66fc98d7dbd7fd4b0b632ea4,2024-10-01_19h15.41.268,mdp,2024.2.1,Win32,60.24096386,66fa4ebf79326e780c390304,,,,,,,,,,,,,,,,,,,,,1751.0819,1751.0819,1751.0834,1752.0973,1,0,right,0.4905,,1752.1017,1753.281,0,0,left,1753.2846,1754.5031,1,1,right,0,1754.5031,1754.5031,1754.5051,1755.9955,0,49,49,49,1,0.4,0.6,0.6,0.4,,,,,,,,,,,,,,,0.6412,,0.8,0.2,0.6,0.4,0.8,0.2,0.2,0.8,,,0.6846,,0.6,0.4,0.4,0.6,0.8,0.2,0.6,0.4,1,0
,,6138d26ce6302b626fcf805c,66fc98d7dbd7fd4b0b632ea4,2024-10-01_19h15.41.268,mdp,2024.2.1,Win32,60.24096386,66fa4ebf79326e780c390304,,,,,,,,,,,,,,,,,,,,,,,,,,,,,,,,,,,,,,,,,,,,,,,,,,,,,,,,1755.9957,1814.504,0,2,2,4,1,imgs/dog.png,imgs/cat.png,imgs/kangaroo.png,imgs/bear.png,imgs/pig.png,,,,,,,,,,,,,,,,,,,,,,,,
,,6138d26ce6302b626fcf805c,66fc98d7dbd7fd4b0b632ea4,2024-10-01_19h15.41.268,mdp,2024.2.1,Win32,60.24096386,66fa4ebf79326e780c390304,,,,,,,,,,,,,,3,seqs/st3seq42.csv,1814.5056,1878.6495,space,63.6249,,1878.6583,1878.6584,1878.659,1880.8822,0,1,left,1.6901,,1880.8835,1883.4828,0,0,left,1883.4864,1885.5216,0,1,left,0,1885.5216,1885.5218,1885.5236,1887.019,0,0,0,0,1,0.8,0.2,0.8,0.2,,,,,,,,,,,,,,,2.0756,,0.2,0.8,0.8,0.2,0.8,0.2,0.4,0.6,,,1.5011,,0.6,0.4,0.4,0.6,0.4,0.6,0.4,0.6,1,0
,,6138d26ce6302b626fcf805c,66fc98d7dbd7fd4b0b632ea4,2024-10-01_19h15.41.268,mdp,2024.2.1,Win32,60.24096386,66fa4ebf79326e780c390304,,,,,,,,,,,,,,,,,,,,,1887.0201,1887.0201,1887.0217,1889.2853,0,1,left,1.7328,,1889.2863,1890.5369,0,0,left,1890.5389,1891.5154,0,1,left,0,1891.5155,1891.5155,1891.5162,1893.0134,0,1,1,1,1,0.8,0.2,0.8,0.2,,,,,,,,,,,,,,,0.7455,,0.2,0.8,0.8,0.2,0.8,0.2,0.4,0.6,,,0.4575,,0.6,0.4,0.4,0.6,0.4,0.6,0.4,0.6,1,0
,,6138d26ce6302b626fcf805c,66fc98d7dbd7fd4b0b632ea4,2024-10-01_19h15.41.268,mdp,2024.2.1,Win32,60.24096386,66fa4ebf79326e780c390304,,,,,,,,,,,,,,,,,,,,,1893.0152,1893.0153,1893.0175,1895.696,0,1,left,2.1481,,1895.6997,1896.8459,0,0,left,1896.8492,1898.9831,1,1,right,0,1898.9833,1898.9833,1898.9862,1900.4834,0,2,2,2,1,0.8,0.2,0.8,0.2,,,,,,,,,,,,,,,0.6233,,0.2,0.8,0.8,0.2,0.8,0.2,0.4,0.6,,,1.5997,,0.6,0.4,0.4,0.6,0.4,0.6,0.4,0.6,1,0
,,6138d26ce6302b626fcf805c,66fc98d7dbd7fd4b0b632ea4,2024-10-01_19h15.41.268,mdp,2024.2.1,Win32,60.24096386,66fa4ebf79326e780c390304,,,,,,,,,,,,,,,,,,,,,1900.4847,1900.4848,1900.487,1901.5776,0,0,left,0.575,,1901.5796,1902.427,0,1,left,1902.4284,1904.2941,0,1,left,0,1904.2944,1904.2944,1904.298,1905.7934,0,3,3,3,1,0.8,0.2,0.8,0.2,,,,,,,,,,,,,,,0.3011,,0.2,0.8,0.8,0.2,0.4,0.6,0.2,0.8,,,1.3199,,0.6,0.4,0.4,0.6,0.4,0.6,0.4,0.6,1,0
,,6138d26ce6302b626fcf805c,66fc98d7dbd7fd4b0b632ea4,2024-10-01_19h15.41.268,mdp,2024.2.1,Win32,60.24096386,66fa4ebf79326e780c390304,,,,,,,,,,,,,,,,,,,,,1905.7951,1905.7953,1905.7965,1907.8257,0,0,left,1.5204,,1907.8274,1909.7823,1,0,right,1909.7844,1911.3633,1,0,right,1,1911.3634,1911.3634,1911.3658,1912.8587,0,4,4,4,1,0.8,0.2,0.8,0.2,,,,,,,,,,,,,,,1.4341,,0.2,0.8,0.8,0.2,0.4,0.6,0.2,0.8,,,1.049,,0.6,0.4,0.4,0.6,0.4,0.6,0.4,0.6,1,0
,,6138d26ce6302b626fcf805c,66fc98d7dbd7fd4b0b632ea4,2024-10-01_19h15.41.268,mdp,2024.2.1,Win32,60.24096386,66fa4ebf79326e780c390304,,,,,,,,,,,,,,,,,,,,,1912.8609,1912.861,1912.8635,1914.4459,0,1,left,1.0636,,1914.4465,1916.6974,0,1,left,1916.6995,1919.5235,0,0,left,1,1919.5237,1919.5237,1919.526,1921.0287,0,5,5,5,1,0.6,0.4,0.4,0.6,,,,,,,,,,,,,,,1.7344,,0.2,0.8,0.8,0.2,0.4,0.6,0.2,0.8,,,2.2883,,0.6,0.4,0.4,0.6,0.4,0.6,0.4,0.6,1,0
,,6138d26ce6302b626fcf805c,66fc98d7dbd7fd4b0b632ea4,2024-10-01_19h15.41.268,mdp,2024.2.1,Win32,60.24096386,66fa4ebf79326e780c390304,,,,,,,,,,,,,,,,,,,,,1921.0301,1921.0301,1921.0327,1922.5939,0,0,left,1.0471,,1922.5965,1924.1718,1,0,right,1924.173,1925.5721,1,0,right,1,1925.5723,1925.5724,1925.5752,1927.0778,0,6,6,6,1,0.6,0.4,0.4,0.6,,,,,,,,,,,,,,,1.0431,,0.2,0.8,0.8,0.2,0.4,0.6,0.2,0.8,,,0.8695,,0.6,0.4,0.4,0.6,0.4,0.6,0.4,0.6,1,0
,,6138d26ce6302b626fcf805c,66fc98d7dbd7fd4b0b632ea4,2024-10-01_19h15.41.268,mdp,2024.2.1,Win32,60.24096386,66fa4ebf79326e780c390304,,,,,,,,,,,,,,,,,,,,,1927.0792,1927.0792,1927.0817,1928.105,0,0,left,0.4996,,1928.1079,1932.1706,0,1,left,1932.1732,1933.6204,0,0,left,1,1933.6206,1933.6206,1933.6236,1935.1192,0,7,7,7,1,0.6,0.4,0.4,0.6,,,,,,,,,,,,,,,3.5328,,0.2,0.8,0.8,0.2,0.4,0.6,0.2,0.8,,,0.9066,,0.6,0.4,0.4,0.6,0.4,0.6,0.4,0.6,1,0
,,6138d26ce6302b626fcf805c,66fc98d7dbd7fd4b0b632ea4,2024-10-01_19h15.41.268,mdp,2024.2.1,Win32,60.24096386,66fa4ebf79326e780c390304,,,,,,,,,,,,,,,,,,,,,1935.1196,1935.1196,1935.1205,1936.3864,0,0,left,0.7379,,1936.3893,1937.7195,0,1,left,1937.7225,1938.986,0,1,left,0,1938.9861,1938.9862,1938.9891,1940.4856,0,8,8,8,1,0.6,0.4,0.4,0.6,,,,,,,,,,,,,,,0.8052,,0.2,0.8,0.8,0.2,0.4,0.6,0.2,0.8,,,0.7372,,0.4,0.6,0.6,0.4,0.4,0.6,0.4,0.6,1,0
,,6138d26ce6302b626fcf805c,66fc98d7dbd7fd4b0b632ea4,2024-10-01_19h15.41.268,mdp,2024.2.1,Win32,60.24096386,66fa4ebf79326e780c390304,,,,,,,,,,,,,,,,,,,,,1940.4872,1940.4873,1940.4903,1941.6685,0,0,left,0.657,,1941.6724,1942.9185,0,1,left,1942.9212,1944.1345,0,0,left,1,1944.1348,1944.1348,1944.1378,1945.6333,0,9,9,9,1,0.6,0.4,0.4,0.6,,,,,,,,,,,,,,,0.7182,,0.2,0.8,0.8,0.2,0.4,0.6,0.2,0.8,,,0.6879,,0.4,0.6,0.6,0.4,0.4,0.6,0.4,0.6,1,0
,,6138d26ce6302b626fcf805c,66fc98d7dbd7fd4b0b632ea4,2024-10-01_19h15.41.268,mdp,2024.2.1,Win32,60.24096386,66fa4ebf79326e780c390304,,,,,,,,,,,,,,,,,,,,,1945.6338,1945.6338,1945.6348,1946.5501,0,1,left,0.387,,1946.5519,1948.6343,1,0,right,1948.6367,1949.7333,1,0,right,1,1949.7336,1949.7336,1949.7369,1951.2322,0,10,10,10,1,0.6,0.4,0.4,0.6,,,,,,,,,,,,,,,1.5595,,0.2,0.8,0.8,0.2,0.4,0.6,0.2,0.8,,,0.5621,,0.4,0.6,0.6,0.4,0.4,0.6,0.4,0.6,1,0
,,6138d26ce6302b626fcf805c,66fc98d7dbd7fd4b0b632ea4,2024-10-01_19h15.41.268,mdp,2024.2.1,Win32,60.24096386,66fa4ebf79326e780c390304,,,,,,,,,,,,,,,,,,,,,1951.2328,1951.2328,1951.2335,1952.2489,0,1,left,0.4843,,1952.2515,1953.7157,1,0,right,1953.7187,1954.8654,1,1,right,0,1954.8656,1954.8656,1954.869,1956.3641,0,11,11,11,1,0.6,0.4,0.4,0.6,,,,,,,,,,,,,,,0.9357,,0.2,0.8,0.8,0.2,0.4,0.6,0.2,0.8,,,0.6189,,0.4,0.6,0.6,0.4,0.4,0.6,0.4,0.6,1,0
,,6138d26ce6302b626fcf805c,66fc98d7dbd7fd4b0b632ea4,2024-10-01_19h15.41.268,mdp,2024.2.1,Win32,60.24096386,66fa4ebf79326e780c390304,,,,,,,,,,,,,,,,,,,,,1956.3644,1956.3645,1956.3653,1957.1641,0,0,left,0.2692,,1957.1653,1958.3308,0,1,left,1958.3329,1959.4639,0,1,left,0,1959.4642,1959.4643,1959.4671,1960.9643,0,12,12,12,1,0.6,0.4,0.4,0.6,,,,,,,,,,,,,,,0.6451,,0.2,0.8,0.8,0.2,0.4,0.6,0.2,0.8,,,0.5997,,0.4,0.6,0.6,0.4,0.4,0.6,0.4,0.6,1,0
,,6138d26ce6302b626fcf805c,66fc98d7dbd7fd4b0b632ea4,2024-10-01_19h15.41.268,mdp,2024.2.1,Win32,60.24096386,66fa4ebf79326e780c390304,,,,,,,,,,,,,,,,,,,,,1960.9661,1960.9661,1960.9687,1961.7972,0,0,left,0.302,,1961.8007,1962.9134,0,1,left,1962.9164,1964.0801,0,1,left,0,1964.0804,1964.0804,1964.0831,1965.5796,0,13,13,13,1,0.6,0.4,0.4,0.6,,,,,,,,,,,,,,,0.5867,,0.2,0.8,0.8,0.2,0.4,0.6,0.2,0.8,,,0.6359,,0.4,0.6,0.6,0.4,0.4,0.6,0.4,0.6,1,0
,,6138d26ce6302b626fcf805c,66fc98d7dbd7fd4b0b632ea4,2024-10-01_19h15.41.268,mdp,2024.2.1,Win32,60.24096386,66fa4ebf79326e780c390304,,,,,,,,,,,,,,,,,,,,,1965.5817,1965.5817,1965.5843,1968.0784,1,0,right,1.9694,,1968.0804,1969.5788,1,0,right,1969.5816,1970.9113,0,0,left,1,1970.9115,1970.9117,1970.9143,1972.4112,0,14,14,14,1,0.6,0.4,0.4,0.6,,,,,,,,,,,,,,,0.9842,,0.2,0.8,0.8,0.2,0.4,0.6,0.2,0.8,,,0.7959,,0.4,0.6,0.6,0.4,0.4,0.6,0.4,0.6,1,0
,,6138d26ce6302b626fcf805c,66fc98d7dbd7fd4b0b632ea4,2024-10-01_19h15.41.268,mdp,2024.2.1,Win32,60.24096386,66fa4ebf79326e780c390304,,,,,,,,,,,,,,,,,,,,,1972.4125,1972.4125,1972.4143,1973.9269,1,1,right,0.9891,,1973.9286,1979.6261,0,0,left,1979.6291,1981.1092,0,1,left,0,1981.1095,1981.1096,1981.1124,1982.6091,0,15,15,15,1,0.6,0.4,0.4,0.6,,,,,,,,,,,,,,,5.1724,,0.2,0.8,0.8,0.2,0.4,0.6,0.2,0.8,,,0.9527,,0.4,0.6,0.6,0.4,0.4,0.6,0.4,0.6,1,0
,,6138d26ce6302b626fcf805c,66fc98d7dbd7fd4b0b632ea4,2024-10-01_19h15.41.268,mdp,2024.2.1,Win32,60.24096386,66fa4ebf79326e780c390304,,,,,,,,,,,,,,,,,,,,,1982.6103,1982.6103,1982.6129,1983.8921,1,1,right,0.753,,1983.8952,1986.2246,1,1,right,1986.2276,1987.424,0,1,left,0,1987.4242,1987.4243,1987.427,1988.923,0,16,16,16,1,0.6,0.4,0.4,0.6,,,,,,,,,,,,,,,1.8071,,0.2,0.8,0.8,0.2,0.4,0.6,0.2,0.8,,,0.6751,,0.4,0.6,0.6,0.4,0.4,0.6,0.4,0.6,1,0
,,6138d26ce6302b626fcf805c,66fc98d7dbd7fd4b0b632ea4,2024-10-01_19h15.41.268,mdp,2024.2.1,Win32,60.24096386,66fa4ebf79326e780c390304,,,,,,,,,,,,,,,,,,,,,1988.9234,1988.9234,1988.9246,1989.823,0,0,left,0.3723,,1989.8247,1991.823,0,1,left,1991.8263,1992.9229,0,1,left,0,1992.9232,1992.9232,1992.926,1994.4227,0,17,17,17,1,0.6,0.4,0.4,0.6,,,,,,,,,,,,,,,1.4816,,0.2,0.8,0.8,0.2,0.4,0.6,0.2,0.8,,,0.5676,,0.4,0.6,0.6,0.4,0.4,0.6,0.4,0.6,1,0
,,6138d26ce6302b626fcf805c,66fc98d7dbd7fd4b0b632ea4,2024-10-01_19h15.41.268,mdp,2024.2.1,Win32,60.24096386,66fa4ebf79326e780c390304,,,,,,,,,,,,,,,,,,,,,1994.4243,1994.4245,1994.4268,1996.5219,0,1,left,1.567,,1996.5247,1997.7215,1,0,right,1997.7246,1998.9715,1,1,right,0,1998.972,1998.972,1998.9747,2000.4705,0,18,18,18,1,0.6,0.4,0.4,0.6,,,,,,,,,,,,,,,0.6662,,0.2,0.8,0.8,0.2,0.4,0.6,0.2,0.8,,,0.7127,,0.4,0.6,0.6,0.4,0.4,0.6,0.4,0.6,1,0
,,6138d26ce6302b626fcf805c,66fc98d7dbd7fd4b0b632ea4,2024-10-01_19h15.41.268,mdp,2024.2.1,Win32,60.24096386,66fa4ebf79326e780c390304,,,,,,,,,,,,,,,,,,,,,2000.4717,2000.4717,2000.4731,2001.654,1,0,right,0.6513,,2001.6571,2003.8531,1,0,right,2003.8547,2005.1199,0,1,left,0,2005.1202,2005.1202,2005.1232,2006.6196,0,19,19,19,1,0.6,0.4,0.4,0.6,,,,,,,,,,,,,,,1.657,,0.2,0.8,0.8,0.2,0.4,0.6,0.2,0.8,,,0.7359,,0.4,0.6,0.6,0.4,0.4,0.6,0.4,0.6,1,0
,,6138d26ce6302b626fcf805c,66fc98d7dbd7fd4b0b632ea4,2024-10-01_19h15.41.268,mdp,2024.2.1,Win32,60.24096386,66fa4ebf79326e780c390304,,,,,,,,,,,,,,,,,,,,,2006.6216,2006.6217,2006.6238,2007.8927,0,0,left,0.7356,,2007.8951,2009.2066,0,0,left,2009.2091,2010.5011,1,0,right,1,2010.5012,2010.5012,2010.5023,2011.9891,0,20,20,20,1,0.6,0.4,0.4,0.6,,,,,,,,,,,,,,,0.7932,,0.2,0.8,0.8,0.2,0.4,0.6,0.2,0.8,,,0.749,,0.4,0.6,0.6,0.4,0.4,0.6,0.4,0.6,1,0
,,6138d26ce6302b626fcf805c,66fc98d7dbd7fd4b0b632ea4,2024-10-01_19h15.41.268,mdp,2024.2.1,Win32,60.24096386,66fa4ebf79326e780c390304,,,,,,,,,,,,,,,,,,,,,2011.9902,2011.9903,2011.993,2013.8011,0,1,left,1.2834,,2013.8046,2015.6342,1,1,right,2015.6355,2016.8893,0,1,left,0,2016.8896,2016.8896,2016.8923,2018.3836,0,21,21,21,1,0.6,0.4,0.4,0.6,,,,,,,,,,,,,,,1.2949,,0.2,0.8,0.8,0.2,0.4,0.6,0.2,0.8,,,0.7172,,0.4,0.6,0.6,0.4,0.4,0.6,0.4,0.6,1,0
,,6138d26ce6302b626fcf805c,66fc98d7dbd7fd4b0b632ea4,2024-10-01_19h15.41.268,mdp,2024.2.1,Win32,60.24096386,66fa4ebf79326e780c390304,,,,,,,,,,,,,,,,,,,,,2018.3858,2018.3858,2018.3879,2019.7164,0,0,left,0.8022,,2019.7197,2021.4317,0,1,left,2021.433,2022.6488,0,1,left,0,2022.6489,2022.6489,2022.651,2024.1534,0,22,22,22,1,0.6,0.4,0.4,0.6,,,,,,,,,,,,,,,1.1657,,0.2,0.8,0.8,0.2,0.4,0.6,0.2,0.8,,,0.6928,,0.4,0.6,0.6,0.4,0.4,0.6,0.4,0.6,1,0
,,6138d26ce6302b626fcf805c,66fc98d7dbd7fd4b0b632ea4,2024-10-01_19h15.41.268,mdp,2024.2.1,Win32,60.24096386,66fa4ebf79326e780c390304,,,,,,,,,,,,,,,,,,,,,2024.1546,2024.1547,2024.1569,2025.0985,0,0,left,0.4032,,2025.1022,2026.1534,1,0,right,2026.1555,2027.3806,1,0,right,1,2027.3809,2027.3809,2027.3826,2028.8809,0,23,23,23,1,0.6,0.4,0.4,0.6,,,,,,,,,,,,,,,0.532,,0.2,0.8,0.8,0.2,0.4,0.6,0.2,0.8,,,0.6898,,0.4,0.6,0.6,0.4,0.4,0.6,0.4,0.6,1,0
,,6138d26ce6302b626fcf805c,66fc98d7dbd7fd4b0b632ea4,2024-10-01_19h15.41.268,mdp,2024.2.1,Win32,60.24096386,66fa4ebf79326e780c390304,,,,,,,,,,,,,,,,,,,,,2028.8831,2028.8832,2028.8851,2030.0034,0,0,left,0.6118,,2030.006,2031.2034,1,0,right,2031.2062,2032.3791,1,0,right,1,2032.3792,2032.3792,2032.3804,2033.8795,0,24,24,24,1,0.6,0.4,0.4,0.6,,,,,,,,,,,,,,,0.6683,,0.2,0.8,0.8,0.2,0.4,0.6,0.2,0.8,,,0.638,,0.4,0.6,0.6,0.4,0.4,0.6,0.4,0.6,1,0
,,6138d26ce6302b626fcf805c,66fc98d7dbd7fd4b0b632ea4,2024-10-01_19h15.41.268,mdp,2024.2.1,Win32,60.24096386,66fa4ebf79326e780c390304,,,,,,,,,,,,,,,,,,,,,2033.8817,2033.8817,2033.884,2035.1517,0,0,left,0.7487,,2035.154,2036.2954,1,0,right,2036.2981,2037.5121,1,0,right,1,2037.5124,2037.5124,2037.5154,2039.0169,0,25,25,25,1,0.6,0.4,0.4,0.6,,,,,,,,,,,,,,,0.6259,,0.2,0.8,0.8,0.2,0.4,0.6,0.2,0.8,,,0.6873,,0.4,0.6,0.6,0.4,0.4,0.6,0.4,0.6,1,0
,,6138d26ce6302b626fcf805c,66fc98d7dbd7fd4b0b632ea4,2024-10-01_19h15.41.268,mdp,2024.2.1,Win32,60.24096386,66fa4ebf79326e780c390304,,,,,,,,,,,,,,,,,,,,,2039.018,2039.018,2039.02,2040.0844,0,1,left,0.5345,,2040.0867,2042.0671,0,0,left,2042.0694,2043.2765,1,0,right,1,2043.2765,2043.2765,2043.2779,2044.78,0,26,26,26,1,0.6,0.4,0.4,0.6,,,,,,,,,,,,,,,1.4503,,0.2,0.8,0.8,0.2,0.4,0.6,0.2,0.8,,,0.673,,0.4,0.6,0.6,0.4,0.4,0.6,0.4,0.6,1,0
,,6138d26ce6302b626fcf805c,66fc98d7dbd7fd4b0b632ea4,2024-10-01_19h15.41.268,mdp,2024.2.1,Win32,60.24096386,66fa4ebf79326e780c390304,,,,,,,,,,,,,,,,,,,,,2044.7811,2044.7811,2044.7832,2045.6601,0,0,left,0.3428,,2045.664,2047.5991,1,0,right,2047.6022,2048.8988,1,0,right,1,2048.899,2048.899,2048.9008,2050.3924,0,27,27,27,1,0.6,0.4,0.4,0.6,,,,,,,,,,,,,,,1.4008,,0.2,0.8,0.8,0.2,0.4,0.6,0.2,0.8,,,0.7677,,0.4,0.6,0.6,0.4,0.4,0.6,0.4,0.6,1,0
,,6138d26ce6302b626fcf805c,66fc98d7dbd7fd4b0b632ea4,2024-10-01_19h15.41.268,mdp,2024.2.1,Win32,60.24096386,66fa4ebf79326e780c390304,,,,,,,,,,,,,,,,,,,,,2050.3938,2050.3939,2050.3964,2051.5088,0,0,left,0.5856,,2051.5124,2052.8083,1,0,right,2052.8117,2053.9784,1,1,right,0,2053.9784,2053.9784,2053.9791,2055.4763,0,28,28,28,1,0.6,0.4,0.4,0.6,,,,,,,,,,,,,,,0.7882,,0.2,0.8,0.8,0.2,0.4,0.6,0.2,0.8,,,0.6433,,0.4,0.6,0.6,0.4,0.4,0.6,0.4,0.6,1,0
,,6138d26ce6302b626fcf805c,66fc98d7dbd7fd4b0b632ea4,2024-10-01_19h15.41.268,mdp,2024.2.1,Win32,60.24096386,66fa4ebf79326e780c390304,,,,,,,,,,,,,,,,,,,,,2055.4766,2055.4766,2055.4774,2056.3242,0,0,left,0.3379,,2056.3286,2057.6801,1,0,right,2057.6826,2058.7233,1,1,right,0,2058.7235,2058.7235,2058.727,2060.2232,0,29,29,29,1,0.6,0.4,0.4,0.6,,,,,,,,,,,,,,,0.8202,,0.2,0.8,0.8,0.2,0.4,0.6,0.2,0.8,,,0.5251,,0.4,0.6,0.6,0.4,0.4,0.6,0.4,0.6,1,0
,,6138d26ce6302b626fcf805c,66fc98d7dbd7fd4b0b632ea4,2024-10-01_19h15.41.268,mdp,2024.2.1,Win32,60.24096386,66fa4ebf79326e780c390304,,,,,,,,,,,,,,,,,,,,,2060.2256,2060.2258,2060.2276,2062.3889,0,0,left,1.6383,,2062.3905,2063.7786,1,0,right,2063.7806,2064.8556,1,1,right,0,2064.8559,2064.8559,2064.8572,2066.3549,0,30,30,30,1,0.6,0.4,0.4,0.6,,,,,,,,,,,,,,,0.8825,,0.2,0.8,0.8,0.2,0.4,0.6,0.2,0.8,,,0.5471,,0.4,0.6,0.6,0.4,0.4,0.6,0.4,0.6,1,0
,,6138d26ce6302b626fcf805c,66fc98d7dbd7fd4b0b632ea4,2024-10-01_19h15.41.268,mdp,2024.2.1,Win32,60.24096386,66fa4ebf79326e780c390304,,,,,,,,,,,,,,,,,,,,,2066.3566,2066.3566,2066.3585,2067.1425,0,0,left,0.2591,,2067.1453,2068.1545,0,1,left,2068.1577,2069.2769,0,0,left,1,2069.2771,2069.2772,2069.2799,2070.7701,0,31,31,31,1,0.6,0.4,0.4,0.6,,,,,,,,,,,,,,,0.4742,,0.2,0.8,0.8,0.2,0.4,0.6,0.2,0.8,,,0.5844,,0.4,0.6,0.6,0.4,0.6,0.4,0.2,0.8,1,0
,,6138d26ce6302b626fcf805c,66fc98d7dbd7fd4b0b632ea4,2024-10-01_19h15.41.268,mdp,2024.2.1,Win32,60.24096386,66fa4ebf79326e780c390304,,,,,,,,,,,,,,,,,,,,,2070.7711,2070.7712,2070.7725,2071.7756,0,1,left,0.482,,2071.7774,2075.2092,1,1,right,2075.2111,2076.6578,0,0,left,1,2076.658,2076.658,2076.6598,2078.1521,0,32,32,32,1,0.6,0.4,0.4,0.6,,,,,,,,,,,,,,,2.9004,,0.2,0.8,0.8,0.2,0.4,0.6,0.2,0.8,,,0.9197,,0.4,0.6,0.6,0.4,0.6,0.4,0.2,0.8,1,0
,,6138d26ce6302b626fcf805c,66fc98d7dbd7fd4b0b632ea4,2024-10-01_19h15.41.268,mdp,2024.2.1,Win32,60.24096386,66fa4ebf79326e780c390304,,,,,,,,,,,,,,,,,,,,,2078.1535,2078.1537,2078.1553,2079.0914,0,0,left,0.4114,,2079.0933,2079.9749,0,1,left,2079.977,2081.0734,0,0,left,1,2081.0735,2081.0735,2081.0762,2082.5702,0,33,33,33,1,0.6,0.4,0.4,0.6,,,,,,,,,,,,,,,0.3509,,0.2,0.8,0.8,0.2,0.4,0.6,0.2,0.8,,,0.5815,,0.4,0.6,0.6,0.4,0.6,0.4,0.2,0.8,1,0
,,6138d26ce6302b626fcf805c,66fc98d7dbd7fd4b0b632ea4,2024-10-01_19h15.41.268,mdp,2024.2.1,Win32,60.24096386,66fa4ebf79326e780c390304,,,,,,,,,,,,,,,,,,,,,2082.5708,2082.5708,2082.5722,2083.8241,0,1,left,0.7179,,2083.8269,2085.3228,1,1,right,2085.3247,2086.4161,0,1,left,0,2086.4161,2086.4162,2086.4174,2087.9163,0,34,34,34,1,0.6,0.4,0.4,0.6,,,,,,,,,,,,,,,0.9671,,0.2,0.8,0.8,0.2,0.4,0.6,0.2,0.8,,,0.5611,,0.4,0.6,0.6,0.4,0.6,0.4,0.2,0.8,1,0
,,6138d26ce6302b626fcf805c,66fc98d7dbd7fd4b0b632ea4,2024-10-01_19h15.41.268,mdp,2024.2.1,Win32,60.24096386,66fa4ebf79326e780c390304,,,,,,,,,,,,,,,,,,,,,2087.9181,2087.9181,2087.9199,2088.7335,0,0,left,0.2888,,2088.7366,2090.1002,1,1,right,2090.1033,2092.6164,0,0,left,1,2092.6166,2092.6166,2092.6199,2094.1148,0,35,35,35,1,0.8,0.2,0.8,0.2,,,,,,,,,,,,,,,0.8303,,0.2,0.8,0.8,0.2,0.4,0.6,0.2,0.8,,,1.9883,,0.4,0.6,0.6,0.4,0.6,0.4,0.2,0.8,1,0
,,6138d26ce6302b626fcf805c,66fc98d7dbd7fd4b0b632ea4,2024-10-01_19h15.41.268,mdp,2024.2.1,Win32,60.24096386,66fa4ebf79326e780c390304,,,,,,,,,,,,,,,,,,,,,2094.1154,2094.1155,2094.1173,2095.3211,0,1,left,0.6826,,2095.3227,2096.9874,0,0,left,2096.9894,2098.4356,1,0,right,1,2098.4356,2098.4356,2098.4365,2099.9342,0,36,36,36,1,0.8,0.2,0.8,0.2,,,,,,,,,,,,,,,1.1342,,0.2,0.8,0.8,0.2,0.4,0.6,0.2,0.8,,,0.9176,,0.4,0.6,0.6,0.4,0.6,0.4,0.2,0.8,1,0
,,6138d26ce6302b626fcf805c,66fc98d7dbd7fd4b0b632ea4,2024-10-01_19h15.41.268,mdp,2024.2.1,Win32,60.24096386,66fa4ebf79326e780c390304,,,,,,,,,,,,,,,,,,,,,2099.9345,2099.9345,2099.9352,2101.1861,0,1,left,0.7181,,2101.1875,2102.7695,0,1,left,2102.7712,2104.0685,0,1,left,0,2104.0687,2104.0687,2104.0703,2105.5674,0,37,37,37,1,0.4,0.6,0.6,0.4,,,,,,,,,,,,,,,1.0514,,0.2,0.8,0.8,0.2,0.4,0.6,0.2,0.8,,,0.7673,,0.4,0.6,0.6,0.4,0.6,0.4,0.2,0.8,1,0
,,6138d26ce6302b626fcf805c,66fc98d7dbd7fd4b0b632ea4,2024-10-01_19h15.41.268,mdp,2024.2.1,Win32,60.24096386,66fa4ebf79326e780c390304,,,,,,,,,,,,,,,,,,,,,2105.5684,2105.5685,2105.5702,2106.4189,0,0,left,0.3186,,2106.4206,2107.6348,0,0,left,2107.6365,2108.9492,1,0,right,1,2108.9492,2108.9492,2108.9499,2110.4499,0,38,38,38,1,0.4,0.6,0.6,0.4,,,,,,,,,,,,,,,0.6846,,0.2,0.8,0.8,0.2,0.4,0.6,0.2,0.8,,,0.784,,0.4,0.6,0.6,0.4,0.6,0.4,0.2,0.8,1,0
,,6138d26ce6302b626fcf805c,66fc98d7dbd7fd4b0b632ea4,2024-10-01_19h15.41.268,mdp,2024.2.1,Win32,60.24096386,66fa4ebf79326e780c390304,,,,,,,,,,,,,,,,,,,,,2110.4508,2110.4508,2110.4529,2111.4014,0,0,left,0.4186,,2111.4032,2112.7004,0,1,left,2112.702,2113.7503,0,0,left,1,2113.7505,2113.7505,2113.7524,2115.2476,0,39,39,39,1,0.4,0.6,0.6,0.4,,,,,,,,,,,,,,,0.768,,0.2,0.8,0.8,0.2,0.4,0.6,0.2,0.8,,,0.5184,,0.4,0.6,0.6,0.4,0.6,0.4,0.2,0.8,1,0
,,6138d26ce6302b626fcf805c,66fc98d7dbd7fd4b0b632ea4,2024-10-01_19h15.41.268,mdp,2024.2.1,Win32,60.24096386,66fa4ebf79326e780c390304,,,,,,,,,,,,,,,,,,,,,2115.2479,2115.248,2115.2486,2116.1814,0,0,left,0.4009,,2116.1824,2118.7632,0,0,left,2118.7638,2120.0293,1,0,right,1,2120.0293,2120.0293,2120.03,2121.5285,0,40,40,40,1,0.4,0.6,0.6,0.4,,,,,,,,,,,,,,,2.0658,,0.2,0.8,0.8,0.2,0.4,0.6,0.2,0.8,,,0.7335,,0.4,0.6,0.6,0.4,0.6,0.4,0.2,0.8,1,0
,,6138d26ce6302b626fcf805c,66fc98d7dbd7fd4b0b632ea4,2024-10-01_19h15.41.268,mdp,2024.2.1,Win32,60.24096386,66fa4ebf79326e780c390304,,,,,,,,,,,,,,,,,,,,,2121.5289,2121.5289,2121.5295,2122.5301,0,1,left,0.4681,,2122.5312,2125.6909,1,1,right,2125.6949,2126.8745,0,0,left,1,2126.8747,2126.8748,2126.8782,2128.3732,0,41,41,41,1,0.4,0.6,0.6,0.4,,,,,,,,,,,,,,,2.6255,,0.2,0.8,0.8,0.2,0.4,0.6,0.2,0.8,,,0.6576,,0.4,0.6,0.6,0.4,0.6,0.4,0.2,0.8,1,0
,,6138d26ce6302b626fcf805c,66fc98d7dbd7fd4b0b632ea4,2024-10-01_19h15.41.268,mdp,2024.2.1,Win32,60.24096386,66fa4ebf79326e780c390304,,,,,,,,,,,,,,,,,,,,,2128.3753,2128.3753,2128.377,2129.2725,0,1,left,0.3649,,2129.2737,2130.206,1,1,right,2130.2085,2131.3555,0,0,left,1,2131.3555,2131.3555,2131.3567,2132.8558,0,42,42,42,1,0.4,0.6,0.6,0.4,,,,,,,,,,,,,,,0.3854,,0.2,0.8,0.8,0.2,0.4,0.6,0.2,0.8,,,0.625,,0.4,0.6,0.6,0.4,0.6,0.4,0.2,0.8,1,0
,,6138d26ce6302b626fcf805c,66fc98d7dbd7fd4b0b632ea4,2024-10-01_19h15.41.268,mdp,2024.2.1,Win32,60.24096386,66fa4ebf79326e780c390304,,,,,,,,,,,,,,,,,,,,,2132.8584,2132.8584,2132.8606,2133.7597,0,1,left,0.3935,,2133.7618,2134.794,1,1,right,2134.7967,2135.8439,0,0,left,1,2135.8441,2135.8441,2135.8461,2137.3381,0,43,43,43,1,0.4,0.6,0.6,0.4,,,,,,,,,,,,,,,0.5004,,0.2,0.8,0.8,0.2,0.6,0.4,0.4,0.6,,,0.5282,,0.4,0.6,0.6,0.4,0.6,0.4,0.2,0.8,1,0
,,6138d26ce6302b626fcf805c,66fc98d7dbd7fd4b0b632ea4,2024-10-01_19h15.41.268,mdp,2024.2.1,Win32,60.24096386,66fa4ebf79326e780c390304,,,,,,,,,,,,,,,,,,,,,2137.3406,2137.3406,2137.3427,2138.14,0,0,left,0.2896,,2138.143,2139.7533,0,1,left,2139.7545,2140.8395,0,0,left,1,2140.8395,2140.8395,2140.84,2142.3369,0,44,44,44,1,0.4,0.6,0.6,0.4,,,,,,,,,,,,,,,1.0724,,0.2,0.8,0.8,0.2,0.6,0.4,0.4,0.6,,,0.5652,,0.8,0.2,0.4,0.6,0.6,0.4,0.2,0.8,1,0
,,6138d26ce6302b626fcf805c,66fc98d7dbd7fd4b0b632ea4,2024-10-01_19h15.41.268,mdp,2024.2.1,Win32,60.24096386,66fa4ebf79326e780c390304,,,,,,,,,,,,,,,,,,,,,2142.3386,2142.3387,2142.3409,2143.1198,0,1,left,0.2612,,2143.1237,2144.236,1,1,right,2144.238,2145.3261,0,0,left,1,2145.3262,2145.3262,2145.3284,2146.8221,0,45,45,45,1,0.4,0.6,0.6,0.4,,,,,,,,,,,,,,,0.5946,,0.2,0.8,0.8,0.2,0.6,0.4,0.4,0.6,,,0.5788,,0.8,0.2,0.4,0.6,0.6,0.4,0.2,0.8,1,0
,,6138d26ce6302b626fcf805c,66fc98d7dbd7fd4b0b632ea4,2024-10-01_19h15.41.268,mdp,2024.2.1,Win32,60.24096386,66fa4ebf79326e780c390304,,,,,,,,,,,,,,,,,,,,,2146.8232,2146.8232,2146.8252,2147.6522,0,1,left,0.3209,,2147.6556,2148.8014,1,1,right,2148.8024,2149.8904,0,0,left,1,2149.8906,2149.8906,2149.8926,2151.384,0,46,46,46,1,0.4,0.6,0.6,0.4,,,,,,,,,,,,,,,0.6148,,0.2,0.8,0.8,0.2,0.6,0.4,0.4,0.6,,,0.5781,,0.8,0.2,0.4,0.6,0.6,0.4,0.2,0.8,1,0
,,6138d26ce6302b626fcf805c,66fc98d7dbd7fd4b0b632ea4,2024-10-01_19h15.41.268,mdp,2024.2.1,Win32,60.24096386,66fa4ebf79326e780c390304,,,,,,,,,,,,,,,,,,,,,2151.3844,2151.3845,2151.3856,2152.4071,0,1,left,0.4973,,2152.4091,2153.4172,1,0,right,2153.4199,2154.4333,1,0,right,1,2154.4335,2154.4335,2154.4364,2155.934,0,47,47,47,1,0.4,0.6,0.6,0.4,,,,,,,,,,,,,,,0.4876,,0.2,0.8,0.8,0.2,0.6,0.4,0.4,0.6,,,0.4669,,0.8,0.2,0.4,0.6,0.6,0.4,0.2,0.8,1,0
,,6138d26ce6302b626fcf805c,66fc98d7dbd7fd4b0b632ea4,2024-10-01_19h15.41.268,mdp,2024.2.1,Win32,60.24096386,66fa4ebf79326e780c390304,,,,,,,,,,,,,,,,,,,,,2155.9358,2155.9358,2155.9385,2156.8042,0,0,left,0.3429,,2156.8061,2157.9166,0,1,left,2157.92,2158.906,0,1,left,0,2158.9062,2158.9063,2158.9082,2160.3993,0,48,48,48,1,0.6,0.4,0.4,0.6,,,,,,,,,,,,,,,0.5749,,0.2,0.8,0.8,0.2,0.6,0.4,0.4,0.6,,,0.4514,,0.8,0.2,0.4,0.6,0.6,0.4,0.2,0.8,1,0
,,6138d26ce6302b626fcf805c,66fc98d7dbd7fd4b0b632ea4,2024-10-01_19h15.41.268,mdp,2024.2.1,Win32,60.24096386,66fa4ebf79326e780c390304,,,,,,,,,,,,,,,,,,,,,2160.4015,2160.4015,2160.4036,2161.5008,0,1,left,0.575,,2161.5016,2163.1979,0,0,left,2163.1993,2164.7877,1,0,right,1,2164.7878,2164.7878,2164.7898,2166.2817,0,49,49,49,1,0.6,0.4,0.4,0.6,,,,,,,,,,,,,,,1.1588,,0.2,0.8,0.8,0.2,0.6,0.4,0.4,0.6,,,1.0676,,0.8,0.2,0.4,0.6,0.6,0.4,0.2,0.8,1,0
,,6138d26ce6302b626fcf805c,66fc98d7dbd7fd4b0b632ea4,2024-10-01_19h15.41.268,mdp,2024.2.1,Win32,60.24096386,66fa4ebf79326e780c390304,,,,,,,,,,,,,,,,,,,,,,,,,,,,,,,,,,,,,,,,,,,,,,,,,,,,,,,,2166.2821,2224.8008,0,3,3,2,1,imgs/elephant.png,imgs/goat.png,imgs/horse.png,imgs/bear.png,imgs/cat.png,,,,,,,,,,,,,,,,,,,,,,,,
,,6138d26ce6302b626fcf805c,66fc98d7dbd7fd4b0b632ea4,2024-10-01_19h15.41.268,mdp,2024.2.1,Win32,60.24096386,66fa4ebf79326e780c390304,,,,,,,,,,,,,,1,seqs/st1seq18.csv,2224.8043,2307.6206,space,82.2843,,2307.6306,2307.6307,2307.6339,2309.3135,0,1,left,1.1387,,2309.3167,2309.318,0,1,,2309.3195,2309.3207,1,1,,0,2309.3207,2309.3207,2309.3221,2310.8127,0,0,0,0,1,0.2,0.8,0.8,0.2,1,0,,,,,,,,,,,,,,,,,,,,,,,,,,,,,,,,,,,,
,,6138d26ce6302b626fcf805c,66fc98d7dbd7fd4b0b632ea4,2024-10-01_19h15.41.268,mdp,2024.2.1,Win32,60.24096386,66fa4ebf79326e780c390304,,,,,,,,,,,,,,,,,,,,,2310.8143,2310.8144,2310.8162,2312.3128,1,0,right,0.9752,,2312.3153,2312.3165,0,0,,2312.3183,2312.3192,1,0,,1,2312.3192,2312.3193,2312.3209,2313.812,0,1,1,1,1,0.2,0.8,0.8,0.2,1,0,,,,,,,,,,,,,,,,,,,,,,,,,,,,,,,,,,,,
,,6138d26ce6302b626fcf805c,66fc98d7dbd7fd4b0b632ea4,2024-10-01_19h15.41.268,mdp,2024.2.1,Win32,60.24096386,66fa4ebf79326e780c390304,,,,,,,,,,,,,,,,,,,,,2313.813,2313.813,2313.8143,2314.9121,1,0,right,0.5738,,2314.9148,2314.9163,0,0,,2314.9184,2314.9195,1,0,,1,2314.9196,2314.9196,2314.9208,2316.4115,0,2,2,2,1,0.2,0.8,0.8,0.2,1,0,,,,,,,,,,,,,,,,,,,,,,,,,,,,,,,,,,,,
,,6138d26ce6302b626fcf805c,66fc98d7dbd7fd4b0b632ea4,2024-10-01_19h15.41.268,mdp,2024.2.1,Win32,60.24096386,66fa4ebf79326e780c390304,,,,,,,,,,,,,,,,,,,,,2316.4128,2316.4128,2316.4151,2317.2451,1,0,right,0.3012,,2317.2481,2317.2499,0,0,,2317.2513,2317.2521,1,0,,1,2317.2522,2317.2522,2317.2531,2318.7444,0,3,3,3,1,0.2,0.8,0.8,0.2,1,0,,,,,,,,,,,,,,,,,,,,,,,,,,,,,,,,,,,,
,,6138d26ce6302b626fcf805c,66fc98d7dbd7fd4b0b632ea4,2024-10-01_19h15.41.268,mdp,2024.2.1,Win32,60.24096386,66fa4ebf79326e780c390304,,,,,,,,,,,,,,,,,,,,,2318.7457,2318.7458,2318.7478,2319.5609,1,0,right,0.2833,,2319.5642,2319.566,0,0,,2319.5674,2319.5682,1,0,,1,2319.5683,2319.5683,2319.5693,2321.0604,0,4,4,4,1,0.2,0.8,0.8,0.2,1,0,,,,,,,,,,,,,,,,,,,,,,,,,,,,,,,,,,,,
,,6138d26ce6302b626fcf805c,66fc98d7dbd7fd4b0b632ea4,2024-10-01_19h15.41.268,mdp,2024.2.1,Win32,60.24096386,66fa4ebf79326e780c390304,,,,,,,,,,,,,,,,,,,,,2321.0616,2321.0617,2321.0642,2321.8938,1,1,right,0.2996,,2321.8964,2321.8974,0,0,,2321.899,2321.9001,1,0,,0,2321.9002,2321.9002,2321.9013,2323.3934,0,5,5,5,1,0.2,0.8,0.8,0.2,1,0,,,,,,,,,,,,,,,,,,,,,,,,,,,,,,,,,,,,
,,6138d26ce6302b626fcf805c,66fc98d7dbd7fd4b0b632ea4,2024-10-01_19h15.41.268,mdp,2024.2.1,Win32,60.24096386,66fa4ebf79326e780c390304,,,,,,,,,,,,,,,,,,,,,2323.3947,2323.3947,2323.3968,2324.159,1,0,right,0.243,,2324.1598,2324.1603,0,0,,2324.1609,2324.1615,1,0,,1,2324.1616,2324.1616,2324.162,2325.6589,0,6,6,6,1,0.2,0.8,0.8,0.2,1,0,,,,,,,,,,,,,,,,,,,,,,,,,,,,,,,,,,,,
,,6138d26ce6302b626fcf805c,66fc98d7dbd7fd4b0b632ea4,2024-10-01_19h15.41.268,mdp,2024.2.1,Win32,60.24096386,66fa4ebf79326e780c390304,,,,,,,,,,,,,,,,,,,,,2325.6597,2325.6599,2325.6614,2326.4757,1,0,right,0.2842,,2326.4788,2326.4805,0,0,,2326.4824,2326.4838,1,0,,1,2326.4839,2326.4839,2326.4854,2327.9752,0,7,7,7,1,0.2,0.8,0.8,0.2,1,0,,,,,,,,,,,,,,,,,,,,,,,,,,,,,,,,,,,,
,,6138d26ce6302b626fcf805c,66fc98d7dbd7fd4b0b632ea4,2024-10-01_19h15.41.268,mdp,2024.2.1,Win32,60.24096386,66fa4ebf79326e780c390304,,,,,,,,,,,,,,,,,,,,,2327.9766,2327.9767,2327.9789,2328.7589,1,0,right,0.2506,,2328.7616,2328.7628,0,1,,2328.7648,2328.7658,1,0,,1,2328.7659,2328.7659,2328.767,2330.2581,0,8,8,8,1,0.2,0.8,0.8,0.2,1,0,,,,,,,,,,,,,,,,,,,,,,,,,,,,,,,,,,,,
,,6138d26ce6302b626fcf805c,66fc98d7dbd7fd4b0b632ea4,2024-10-01_19h15.41.268,mdp,2024.2.1,Win32,60.24096386,66fa4ebf79326e780c390304,,,,,,,,,,,,,,,,,,,,,2330.2591,2330.2592,2330.2616,2331.2249,1,0,right,0.436,,2331.2279,2331.2293,0,1,,2331.2305,2331.2311,1,0,,1,2331.2312,2331.2313,2331.2321,2332.7246,0,9,9,9,1,0.2,0.8,0.8,0.2,1,0,,,,,,,,,,,,,,,,,,,,,,,,,,,,,,,,,,,,
,,6138d26ce6302b626fcf805c,66fc98d7dbd7fd4b0b632ea4,2024-10-01_19h15.41.268,mdp,2024.2.1,Win32,60.24096386,66fa4ebf79326e780c390304,,,,,,,,,,,,,,,,,,,,,2332.726,2332.726,2332.7282,2333.5242,1,0,right,0.271,,2333.5272,2333.5287,0,0,,2333.5301,2333.531,1,0,,1,2333.5311,2333.5311,2333.532,2335.023,0,10,10,10,1,0.2,0.8,0.8,0.2,1,0,,,,,,,,,,,,,,,,,,,,,,,,,,,,,,,,,,,,
,,6138d26ce6302b626fcf805c,66fc98d7dbd7fd4b0b632ea4,2024-10-01_19h15.41.268,mdp,2024.2.1,Win32,60.24096386,66fa4ebf79326e780c390304,,,,,,,,,,,,,,,,,,,,,2335.0234,2335.0234,2335.0241,2336.1231,1,0,right,0.5742,,2336.1244,2336.125,0,0,,2336.1257,2336.1267,1,1,,1,2336.1268,2336.1268,2336.1275,2337.6232,0,11,11,11,1,0.8,0.2,0.2,0.8,1,0,,,,,,,,,,,,,,,,,,,,,,,,,,,,,,,,,,,,
,,6138d26ce6302b626fcf805c,66fc98d7dbd7fd4b0b632ea4,2024-10-01_19h15.41.268,mdp,2024.2.1,Win32,60.24096386,66fa4ebf79326e780c390304,,,,,,,,,,,,,,,,,,,,,2337.6243,2337.6243,2337.6265,2338.7915,1,0,right,0.644,,2338.7936,2338.7951,0,1,,2338.7964,2338.7973,1,1,,1,2338.7973,2338.7974,2338.7987,2340.2892,0,12,12,12,1,0.6,0.4,0.4,0.6,1,0,,,,,,,,,,,,,,,,,,,,,,,,,,,,,,,,,,,,
,,6138d26ce6302b626fcf805c,66fc98d7dbd7fd4b0b632ea4,2024-10-01_19h15.41.268,mdp,2024.2.1,Win32,60.24096386,66fa4ebf79326e780c390304,,,,,,,,,,,,,,,,,,,,,2340.2902,2340.2903,2340.2928,2341.7394,1,1,right,0.921,,2341.7426,2341.7439,0,0,,2341.7453,2341.7462,1,0,,0,2341.7462,2341.7463,2341.7474,2343.2383,0,13,13,13,1,0.6,0.4,0.4,0.6,1,0,,,,,,,,,,,,,,,,,,,,,,,,,,,,,,,,,,,,
,,6138d26ce6302b626fcf805c,66fc98d7dbd7fd4b0b632ea4,2024-10-01_19h15.41.268,mdp,2024.2.1,Win32,60.24096386,66fa4ebf79326e780c390304,,,,,,,,,,,,,,,,,,,,,2343.2396,2343.2397,2343.2419,2344.1051,1,1,right,0.3359,,2344.108,2344.1092,0,0,,2344.1112,2344.1128,1,1,,0,2344.113,2344.113,2344.115,2345.6038,0,14,14,14,1,0.6,0.4,0.4,0.6,1,0,,,,,,,,,,,,,,,,,,,,,,,,,,,,,,,,,,,,
,,6138d26ce6302b626fcf805c,66fc98d7dbd7fd4b0b632ea4,2024-10-01_19h15.41.268,mdp,2024.2.1,Win32,60.24096386,66fa4ebf79326e780c390304,,,,,,,,,,,,,,,,,,,,,2345.6042,2345.6043,2345.6051,2346.5206,1,1,right,0.3925,,2346.5223,2346.5228,0,1,,2346.5237,2346.5243,1,1,,0,2346.5244,2346.5244,2346.525,2348.0211,0,15,15,15,1,0.6,0.4,0.4,0.6,1,0,,,,,,,,,,,,,,,,,,,,,,,,,,,,,,,,,,,,
,,6138d26ce6302b626fcf805c,66fc98d7dbd7fd4b0b632ea4,2024-10-01_19h15.41.268,mdp,2024.2.1,Win32,60.24096386,66fa4ebf79326e780c390304,,,,,,,,,,,,,,,,,,,,,2348.0225,2348.0225,2348.025,2348.8045,0,0,left,0.2526,,2348.8074,2348.809,0,0,,2348.8103,2348.8113,1,0,,1,2348.8113,2348.8114,2348.8124,2350.303,0,16,16,16,1,0.8,0.2,0.6,0.4,1,0,,,,,,,,,,,,,,,,,,,,,,,,,,,,,,,,,,,,
,,6138d26ce6302b626fcf805c,66fc98d7dbd7fd4b0b632ea4,2024-10-01_19h15.41.268,mdp,2024.2.1,Win32,60.24096386,66fa4ebf79326e780c390304,,,,,,,,,,,,,,,,,,,,,2350.3038,2350.3039,2350.3049,2351.0866,0,0,left,0.2515,,2351.0892,2351.0902,0,1,,2351.0918,2351.0928,1,0,,1,2351.0928,2351.0928,2351.0939,2352.5861,0,17,17,17,1,0.8,0.2,0.6,0.4,1,0,,,,,,,,,,,,,,,,,,,,,,,,,,,,,,,,,,,,
,,6138d26ce6302b626fcf805c,66fc98d7dbd7fd4b0b632ea4,2024-10-01_19h15.41.268,mdp,2024.2.1,Win32,60.24096386,66fa4ebf79326e780c390304,,,,,,,,,,,,,,,,,,,,,2352.5871,2352.5872,2352.5899,2353.3358,0,1,left,0.2251,,2353.3372,2353.3378,0,1,,2353.3387,2353.3393,1,1,,0,2353.3393,2353.3393,2353.3399,2354.8358,0,18,18,18,1,0.6,0.4,0.8,0.2,1,0,,,,,,,,,,,,,,,,,,,,,,,,,,,,,,,,,,,,
,,6138d26ce6302b626fcf805c,66fc98d7dbd7fd4b0b632ea4,2024-10-01_19h15.41.268,mdp,2024.2.1,Win32,60.24096386,66fa4ebf79326e780c390304,,,,,,,,,,,,,,,,,,,,,2354.8372,2354.8373,2354.84,2355.602,0,1,left,0.2345,,2355.6041,2355.6049,0,0,,2355.6065,2355.6072,1,0,,0,2355.6072,2355.6072,2355.6079,2357.1014,0,19,19,19,1,0.6,0.4,0.8,0.2,1,0,,,,,,,,,,,,,,,,,,,,,,,,,,,,,,,,,,,,
,,6138d26ce6302b626fcf805c,66fc98d7dbd7fd4b0b632ea4,2024-10-01_19h15.41.268,mdp,2024.2.1,Win32,60.24096386,66fa4ebf79326e780c390304,,,,,,,,,,,,,,,,,,,,,2357.102,2357.102,2357.1029,2357.8511,0,0,left,0.2177,,2357.8525,2357.853,0,0,,2357.8535,2357.854,1,0,,1,2357.8541,2357.8541,2357.8548,2359.3515,0,20,20,20,1,0.6,0.4,0.8,0.2,1,0,,,,,,,,,,,,,,,,,,,,,,,,,,,,,,,,,,,,
,,6138d26ce6302b626fcf805c,66fc98d7dbd7fd4b0b632ea4,2024-10-01_19h15.41.268,mdp,2024.2.1,Win32,60.24096386,66fa4ebf79326e780c390304,,,,,,,,,,,,,,,,,,,,,2359.3524,2359.3524,2359.3551,2360.1181,0,0,left,0.2363,,2360.1211,2360.1224,0,0,,2360.1237,2360.1246,1,1,,1,2360.1247,2360.1247,2360.1256,2361.6174,0,21,21,21,1,0.6,0.4,0.8,0.2,1,0,,,,,,,,,,,,,,,,,,,,,,,,,,,,,,,,,,,,
,,6138d26ce6302b626fcf805c,66fc98d7dbd7fd4b0b632ea4,2024-10-01_19h15.41.268,mdp,2024.2.1,Win32,60.24096386,66fa4ebf79326e780c390304,,,,,,,,,,,,,,,,,,,,,2361.6185,2361.6185,2361.6209,2362.4001,0,1,left,0.2539,,2362.402,2362.4028,0,1,,2362.404,2362.4046,1,0,,0,2362.4048,2362.4048,2362.4055,2363.9003,0,22,22,22,1,0.6,0.4,0.8,0.2,1,0,,,,,,,,,,,,,,,,,,,,,,,,,,,,,,,,,,,,
,,6138d26ce6302b626fcf805c,66fc98d7dbd7fd4b0b632ea4,2024-10-01_19h15.41.268,mdp,2024.2.1,Win32,60.24096386,66fa4ebf79326e780c390304,,,,,,,,,,,,,,,,,,,,,2363.9017,2363.9018,2363.9036,2364.7335,0,1,left,0.3002,,2364.7361,2364.7376,0,1,,2364.7391,2364.7403,1,0,,0,2364.7403,2364.7403,2364.7416,2366.2332,0,23,23,23,1,0.6,0.4,0.8,0.2,1,0,,,,,,,,,,,,,,,,,,,,,,,,,,,,,,,,,,,,
,,6138d26ce6302b626fcf805c,66fc98d7dbd7fd4b0b632ea4,2024-10-01_19h15.41.268,mdp,2024.2.1,Win32,60.24096386,66fa4ebf79326e780c390304,,,,,,,,,,,,,,,,,,,,,2366.2356,2366.2356,2366.2376,2367.032,1,0,right,0.2602,,2367.0334,2367.034,0,1,,2367.0345,2367.0348,1,0,,1,2367.0348,2367.0349,2367.0353,2368.5322,0,24,24,24,1,0.4,0.6,0.6,0.4,1,0,,,,,,,,,,,,,,,,,,,,,,,,,,,,,,,,,,,,
,,6138d26ce6302b626fcf805c,66fc98d7dbd7fd4b0b632ea4,2024-10-01_19h15.41.268,mdp,2024.2.1,Win32,60.24096386,66fa4ebf79326e780c390304,,,,,,,,,,,,,,,,,,,,,2368.5339,2368.5339,2368.5356,2369.4867,1,0,right,0.4333,,2369.4889,2369.4902,0,1,,2369.4916,2369.4927,1,1,,1,2369.4927,2369.4927,2369.4939,2370.9818,0,25,25,25,1,0.8,0.2,0.4,0.6,1,0,,,,,,,,,,,,,,,,,,,,,,,,,,,,,,,,,,,,
,,6138d26ce6302b626fcf805c,66fc98d7dbd7fd4b0b632ea4,2024-10-01_19h15.41.268,mdp,2024.2.1,Win32,60.24096386,66fa4ebf79326e780c390304,,,,,,,,,,,,,,,,,,,,,2370.9838,2370.9839,2370.9866,2371.6987,1,1,right,0.1893,,2371.7025,2371.7038,0,0,,2371.7052,2371.7061,1,0,,0,2371.7061,2371.7061,2371.7073,2373.1984,0,26,26,26,1,0.8,0.2,0.4,0.6,1,0,,,,,,,,,,,,,,,,,,,,,,,,,,,,,,,,,,,,
,,6138d26ce6302b626fcf805c,66fc98d7dbd7fd4b0b632ea4,2024-10-01_19h15.41.268,mdp,2024.2.1,Win32,60.24096386,66fa4ebf79326e780c390304,,,,,,,,,,,,,,,,,,,,,2373.1998,2373.1999,2373.2021,2373.7644,1,0,right,0.042,,2373.7684,2373.77,0,0,,2373.7718,2373.7735,1,1,,1,2373.7736,2373.7737,2373.7754,2375.2641,0,27,27,27,1,0.2,0.8,0.8,0.2,1,0,,,,,,,,,,,,,,,,,,,,,,,,,,,,,,,,,,,,
,,6138d26ce6302b626fcf805c,66fc98d7dbd7fd4b0b632ea4,2024-10-01_19h15.41.268,mdp,2024.2.1,Win32,60.24096386,66fa4ebf79326e780c390304,,,,,,,,,,,,,,,,,,,,,2375.266,2375.266,2375.2678,2375.97,1,1,right,0.1819,,2375.9724,2375.9734,0,1,,2375.9746,2375.9756,1,0,,0,2375.9756,2375.9756,2375.9766,2377.4799,0,28,28,28,1,0.2,0.8,0.8,0.2,1,0,,,,,,,,,,,,,,,,,,,,,,,,,,,,,,,,,,,,
,,6138d26ce6302b626fcf805c,66fc98d7dbd7fd4b0b632ea4,2024-10-01_19h15.41.268,mdp,2024.2.1,Win32,60.24096386,66fa4ebf79326e780c390304,,,,,,,,,,,,,,,,,,,,,2377.4806,2377.4806,2377.482,2378.3465,1,0,right,0.3458,,2378.3479,2378.3483,0,0,,2378.3488,2378.3491,1,0,,1,2378.3491,2378.3491,2378.3495,2379.8459,0,29,29,29,1,0.2,0.8,0.8,0.2,1,0,,,,,,,,,,,,,,,,,,,,,,,,,,,,,,,,,,,,
,,6138d26ce6302b626fcf805c,66fc98d7dbd7fd4b0b632ea4,2024-10-01_19h15.41.268,mdp,2024.2.1,Win32,60.24096386,66fa4ebf79326e780c390304,,,,,,,,,,,,,,,,,,,,,2379.8471,2379.8472,2379.8489,2380.6624,1,1,right,0.2771,,2380.6646,2380.6652,0,1,,2380.6659,2380.6664,1,0,,0,2380.6664,2380.6665,2380.667,2382.162,0,30,30,30,1,0.6,0.4,0.2,0.8,1,0,,,,,,,,,,,,,,,,,,,,,,,,,,,,,,,,,,,,
,,6138d26ce6302b626fcf805c,66fc98d7dbd7fd4b0b632ea4,2024-10-01_19h15.41.268,mdp,2024.2.1,Win32,60.24096386,66fa4ebf79326e780c390304,,,,,,,,,,,,,,,,,,,,,2382.1627,2382.1627,2382.1648,2382.9351,0,1,left,0.2615,,2382.9372,2382.9391,0,0,,2382.9407,2382.9416,1,1,,0,2382.9416,2382.9416,2382.9428,2384.4502,0,31,31,31,1,0.6,0.4,0.2,0.8,1,0,,,,,,,,,,,,,,,,,,,,,,,,,,,,,,,,,,,,
,,6138d26ce6302b626fcf805c,66fc98d7dbd7fd4b0b632ea4,2024-10-01_19h15.41.268,mdp,2024.2.1,Win32,60.24096386,66fa4ebf79326e780c390304,,,,,,,,,,,,,,,,,,,,,2384.451,2384.4511,2384.4532,2385.7178,1,1,right,0.7348,,2385.7198,2385.7216,0,1,,2385.7231,2385.7242,1,1,,0,2385.7243,2385.7243,2385.7254,2387.2321,0,32,32,32,1,0.6,0.4,0.2,0.8,1,0,,,,,,,,,,,,,,,,,,,,,,,,,,,,,,,,,,,,
,,6138d26ce6302b626fcf805c,66fc98d7dbd7fd4b0b632ea4,2024-10-01_19h15.41.268,mdp,2024.2.1,Win32,60.24096386,66fa4ebf79326e780c390304,,,,,,,,,,,,,,,,,,,,,2387.2326,2387.2326,2387.234,2388.0014,0,1,left,0.2458,,2388.0037,2388.0049,0,0,,2388.0063,2388.0074,1,0,,0,2388.0075,2388.0075,2388.0086,2389.4966,0,33,33,33,1,0.6,0.4,0.2,0.8,1,0,,,,,,,,,,,,,,,,,,,,,,,,,,,,,,,,,,,,
,,6138d26ce6302b626fcf805c,66fc98d7dbd7fd4b0b632ea4,2024-10-01_19h15.41.268,mdp,2024.2.1,Win32,60.24096386,66fa4ebf79326e780c390304,,,,,,,,,,,,,,,,,,,,,2389.4973,2389.4973,2389.4991,2390.2608,0,0,left,0.2493,,2390.2633,2390.264,0,0,,2390.2649,2390.2656,1,0,,1,2390.2657,2390.2657,2390.2666,2391.7601,0,34,34,34,1,0.8,0.2,0.8,0.2,1,0,,,,,,,,,,,,,,,,,,,,,,,,,,,,,,,,,,,,
,,6138d26ce6302b626fcf805c,66fc98d7dbd7fd4b0b632ea4,2024-10-01_19h15.41.268,mdp,2024.2.1,Win32,60.24096386,66fa4ebf79326e780c390304,,,,,,,,,,,,,,,,,,,,,2391.7615,2391.7619,2391.7649,2392.5835,0,0,left,0.3118,,2392.5865,2392.5886,0,0,,2392.5909,2392.592,1,0,,1,2392.592,2392.592,2392.5938,2394.0935,0,35,35,35,1,0.8,0.2,0.8,0.2,1,0,,,,,,,,,,,,,,,,,,,,,,,,,,,,,,,,,,,,
,,6138d26ce6302b626fcf805c,66fc98d7dbd7fd4b0b632ea4,2024-10-01_19h15.41.268,mdp,2024.2.1,Win32,60.24096386,66fa4ebf79326e780c390304,,,,,,,,,,,,,,,,,,,,,2394.0946,2394.0947,2394.0972,2394.8597,0,0,left,0.233,,2394.8623,2394.8636,0,1,,2394.8652,2394.8663,1,0,,1,2394.8664,2394.8664,2394.8673,2396.3596,0,36,36,36,1,0.8,0.2,0.8,0.2,1,0,,,,,,,,,,,,,,,,,,,,,,,,,,,,,,,,,,,,
,,6138d26ce6302b626fcf805c,66fc98d7dbd7fd4b0b632ea4,2024-10-01_19h15.41.268,mdp,2024.2.1,Win32,60.24096386,66fa4ebf79326e780c390304,,,,,,,,,,,,,,,,,,,,,2396.361,2396.361,2396.3637,2397.1588,0,0,left,0.2761,,2397.1617,2397.1628,0,1,,2397.1646,2397.1658,1,0,,1,2397.1659,2397.1659,2397.1676,2398.6578,0,37,37,37,1,0.6,0.4,0.4,0.6,1,0,,,,,,,,,,,,,,,,,,,,,,,,,,,,,,,,,,,,
,,6138d26ce6302b626fcf805c,66fc98d7dbd7fd4b0b632ea4,2024-10-01_19h15.41.268,mdp,2024.2.1,Win32,60.24096386,66fa4ebf79326e780c390304,,,,,,,,,,,,,,,,,,,,,2398.6582,2398.6582,2398.6591,2399.4576,0,1,left,0.2761,,2399.4585,2399.4589,0,0,,2399.4594,2399.46,1,1,,0,2399.4601,2399.4601,2399.4605,2400.9579,0,38,38,38,1,0.6,0.4,0.4,0.6,1,0,,,,,,,,,,,,,,,,,,,,,,,,,,,,,,,,,,,,
