init_exp.started,init_exp.stopped,participant,session,date,expName,psychopyVersion,OS,frameRate,study_id,disp_instruction.started,disp_instruction.stopped,instruction.thisRepN,instruction.thisTrialN,instruction.thisN,instruction.thisIndex,instruction.ran,instimg_path,consent.started,consent.stopped,key_resp_3.keys,key_resp_3.rt,key_resp_3.duration,n_steps,sequence_path,init_block.started,init_block.stopped,key_resp.keys,key_resp.rt,key_resp.duration,init_trials.started,init_trials.stopped,step0.started,step0.stopped,act0,s1,res0.keys,res0.rt,res0.duration,step1.started,step1.stopped,act1,s2,res1.keys,step2.started,step2.stopped,act2,s3,res2.keys,rew,reward_comp.started,reward_comp.stopped,reward_disp.started,reward_disp.stopped,trials.thisRepN,trials.thisTrialN,trials.thisN,trials.thisIndex,trials.ran,s00a0s10,s00a0s11,s00a1s10,s00a1s11,rew10,rew11,break_block.started,break_block.stopped,block.thisRepN,block.thisTrialN,block.thisN,block.thisIndex,block.ran,s00path,s10path,s11path,s20path,s21path,res1.rt,res1.duration,s10a0s20,s10a0s21,s10a1s20,s10a1s21,s11a0s20,s11a0s21,s11a1s20,s11a1s21,rew20,rew21,res2.rt,res2.duration,s20a0s30,s20a0s31,s20a1s30,s20a1s31,s21a0s30,s21a0s31,s21a1s30,s21a1s31,rew30,rew31
0.0002,0.0017,614f11b6fe832a304632a860,66daf5c51881c2a6aa220734,2024-09-06_15h30.31.838,mdp,2024.2.1,Win32,59.88023952,66d7945b1baad48e845df3ce,,,,,,,,,,,,,,,,,,,,,,,,,,,,,,,,,,,,,,,,,,,,,,,,,,,,,,,,,,,,,,,,,,,,,,,,,,,,,,,,,,,,,,,,,,,
,,614f11b6fe832a304632a860,66daf5c51881c2a6aa220734,2024-09-06_15h30.31.838,mdp,2024.2.1,Win32,59.88023952,66d7945b1baad48e845df3ce,0.0073,157.1414,0,0,0,0,1,rlnn_exp/rlnn_exp.001.png,,,,,,,,,,,,,,,,,,,,,,,,,,,,,,,,,,,,,,,,,,,,,,,,,,,,,,,,,,,,,,,,,,,,,,,,,,,,,,,,,,,
,,614f11b6fe832a304632a860,66daf5c51881c2a6aa220734,2024-09-06_15h30.31.838,mdp,2024.2.1,Win32,59.88023952,66d7945b1baad48e845df3ce,157.1419,235.9651,0,1,1,1,1,rlnn_exp/rlnn_exp.002.png,,,,,,,,,,,,,,,,,,,,,,,,,,,,,,,,,,,,,,,,,,,,,,,,,,,,,,,,,,,,,,,,,,,,,,,,,,,,,,,,,,,
,,614f11b6fe832a304632a860,66daf5c51881c2a6aa220734,2024-09-06_15h30.31.838,mdp,2024.2.1,Win32,59.88023952,66d7945b1baad48e845df3ce,235.9727,293.8793,0,2,2,2,1,rlnn_exp/rlnn_exp.003.png,,,,,,,,,,,,,,,,,,,,,,,,,,,,,,,,,,,,,,,,,,,,,,,,,,,,,,,,,,,,,,,,,,,,,,,,,,,,,,,,,,,
,,614f11b6fe832a304632a860,66daf5c51881c2a6aa220734,2024-09-06_15h30.31.838,mdp,2024.2.1,Win32,59.88023952,66d7945b1baad48e845df3ce,293.8871,342.4359,0,3,3,3,1,rlnn_exp/rlnn_exp.004.png,,,,,,,,,,,,,,,,,,,,,,,,,,,,,,,,,,,,,,,,,,,,,,,,,,,,,,,,,,,,,,,,,,,,,,,,,,,,,,,,,,,
,,614f11b6fe832a304632a860,66daf5c51881c2a6aa220734,2024-09-06_15h30.31.838,mdp,2024.2.1,Win32,59.88023952,66d7945b1baad48e845df3ce,,,,,,,,,342.4429,427.2061,y,42.8703,,,,,,,,,,,,,,,,,,,,,,,,,,,,,,,,,,,,,,,,,,,,,,,,,,,,,,,,,,,,,,,,,,,,,,,,,,,,,,,
,,614f11b6fe832a304632a860,66daf5c51881c2a6aa220734,2024-09-06_15h30.31.838,mdp,2024.2.1,Win32,59.88023952,66d7945b1baad48e845df3ce,,,,,,,,,,,,,,1,seqs/st1seq34.csv,427.2188,431.3929,space,3.6534,,431.4025,431.4026,431.4029,478.6653,1,1,right,46.7384,,478.6727,478.6743,,0,,478.6746,478.6758,,0,,0,478.6759,478.676,478.6763,480.1662,0,0,0,0,1,0.6,0.4,0.2,0.8,1,0,,,,,,,,,,,,,,,,,,,,,,,,,,,,,,,,,,,,
,,614f11b6fe832a304632a860,66daf5c51881c2a6aa220734,2024-09-06_15h30.31.838,mdp,2024.2.1,Win32,59.88023952,66d7945b1baad48e845df3ce,,,,,,,,,,,,,,,,,,,,,480.1667,480.1667,480.1679,486.7548,1,1,right,6.0587,,486.7623,486.7629,,0,,486.7636,486.7641,,1,,0,486.7641,486.7641,486.7645,488.256,0,1,1,1,1,0.6,0.4,0.2,0.8,1,0,,,,,,,,,,,,,,,,,,,,,,,,,,,,,,,,,,,,
,,614f11b6fe832a304632a860,66daf5c51881c2a6aa220734,2024-09-06_15h30.31.838,mdp,2024.2.1,Win32,59.88023952,66d7945b1baad48e845df3ce,,,,,,,,,,,,,,,,,,,,,488.2563,488.2563,488.258,490.041,0,1,left,1.2513,,490.0422,490.043,,1,,490.0437,490.0444,,0,,0,490.0444,490.0444,490.0449,491.542,0,2,2,2,1,0.6,0.4,0.2,0.8,1,0,,,,,,,,,,,,,,,,,,,,,,,,,,,,,,,,,,,,
,,614f11b6fe832a304632a860,66daf5c51881c2a6aa220734,2024-09-06_15h30.31.838,mdp,2024.2.1,Win32,59.88023952,66d7945b1baad48e845df3ce,,,,,,,,,,,,,,,,,,,,,491.5423,491.5423,491.5435,497.7472,1,1,right,5.6915,,497.7546,497.7551,,1,,497.7558,497.7563,,1,,0,497.7563,497.7563,497.7567,499.2484,0,3,3,3,1,0.6,0.4,0.2,0.8,1,0,,,,,,,,,,,,,,,,,,,,,,,,,,,,,,,,,,,,
,,614f11b6fe832a304632a860,66daf5c51881c2a6aa220734,2024-09-06_15h30.31.838,mdp,2024.2.1,Win32,59.88023952,66d7945b1baad48e845df3ce,,,,,,,,,,,,,,,,,,,,,499.2488,499.2489,499.25,502.0006,1,1,right,2.2192,,502.0016,502.0023,,1,,502.0028,502.0034,,1,,0,502.0034,502.0034,502.0039,503.5019,0,4,4,4,1,0.6,0.4,0.2,0.8,1,0,,,,,,,,,,,,,,,,,,,,,,,,,,,,,,,,,,,,
,,614f11b6fe832a304632a860,66daf5c51881c2a6aa220734,2024-09-06_15h30.31.838,mdp,2024.2.1,Win32,59.88023952,66d7945b1baad48e845df3ce,,,,,,,,,,,,,,,,,,,,,503.5024,503.5024,503.5039,506.838,0,0,left,2.8031,,506.8452,506.8458,,0,,506.8464,506.8468,,0,,1,506.8469,506.8469,506.8473,508.3392,0,5,5,5,1,0.6,0.4,0.2,0.8,1,0,,,,,,,,,,,,,,,,,,,,,,,,,,,,,,,,,,,,
,,614f11b6fe832a304632a860,66daf5c51881c2a6aa220734,2024-09-06_15h30.31.838,mdp,2024.2.1,Win32,59.88023952,66d7945b1baad48e845df3ce,,,,,,,,,,,,,,,,,,,,,508.3396,508.3396,508.3411,510.1578,0,0,left,1.2938,,510.159,510.1597,,0,,510.1605,510.1611,,0,,1,510.1612,510.1612,510.1618,511.6586,0,6,6,6,1,0.6,0.4,0.2,0.8,1,0,,,,,,,,,,,,,,,,,,,,,,,,,,,,,,,,,,,,
,,614f11b6fe832a304632a860,66daf5c51881c2a6aa220734,2024-09-06_15h30.31.838,mdp,2024.2.1,Win32,59.88023952,66d7945b1baad48e845df3ce,,,,,,,,,,,,,,,,,,,,,511.659,511.659,511.6605,513.3434,1,1,right,1.1584,,513.3444,513.3449,,1,,513.3456,513.3461,,1,,0,513.3461,513.3462,513.3467,514.8446,0,7,7,7,1,0.6,0.4,0.2,0.8,1,0,,,,,,,,,,,,,,,,,,,,,,,,,,,,,,,,,,,,
,,614f11b6fe832a304632a860,66daf5c51881c2a6aa220734,2024-09-06_15h30.31.838,mdp,2024.2.1,Win32,59.88023952,66d7945b1baad48e845df3ce,,,,,,,,,,,,,,,,,,,,,514.845,514.8451,514.8462,516.8631,0,0,left,1.4925,,516.8642,516.8651,,0,,516.8658,516.8664,,0,,1,516.8664,516.8664,516.8669,518.3641,0,8,8,8,1,0.2,0.8,0.8,0.2,1,0,,,,,,,,,,,,,,,,,,,,,,,,,,,,,,,,,,,,
,,614f11b6fe832a304632a860,66daf5c51881c2a6aa220734,2024-09-06_15h30.31.838,mdp,2024.2.1,Win32,59.88023952,66d7945b1baad48e845df3ce,,,,,,,,,,,,,,,,,,,,,518.3646,518.3647,518.3659,520.7161,0,0,left,1.8185,,520.7232,520.7237,,1,,520.7243,520.7247,,1,,1,520.7248,520.7248,520.7252,522.2172,0,9,9,9,1,0.2,0.8,0.8,0.2,1,0,,,,,,,,,,,,,,,,,,,,,,,,,,,,,,,,,,,,
,,614f11b6fe832a304632a860,66daf5c51881c2a6aa220734,2024-09-06_15h30.31.838,mdp,2024.2.1,Win32,59.88023952,66d7945b1baad48e845df3ce,,,,,,,,,,,,,,,,,,,,,522.2175,522.2176,522.2186,524.2859,0,1,left,1.56,,524.2872,524.2879,,1,,524.2886,524.2894,,0,,0,524.2895,524.2895,524.2901,525.787,0,10,10,10,1,0.2,0.8,0.8,0.2,1,0,,,,,,,,,,,,,,,,,,,,,,,,,,,,,,,,,,,,
,,614f11b6fe832a304632a860,66daf5c51881c2a6aa220734,2024-09-06_15h30.31.838,mdp,2024.2.1,Win32,59.88023952,66d7945b1baad48e845df3ce,,,,,,,,,,,,,,,,,,,,,525.7873,525.7874,525.7885,527.455,1,0,right,1.1348,,527.4559,527.4567,,0,,527.4575,527.4581,,0,,1,527.4581,527.4581,527.4587,528.9562,0,11,11,11,1,0.2,0.8,0.8,0.2,1,0,,,,,,,,,,,,,,,,,,,,,,,,,,,,,,,,,,,,
,,614f11b6fe832a304632a860,66daf5c51881c2a6aa220734,2024-09-06_15h30.31.838,mdp,2024.2.1,Win32,59.88023952,66d7945b1baad48e845df3ce,,,,,,,,,,,,,,,,,,,,,528.9566,528.9566,528.9577,530.5576,1,0,right,1.0677,,530.5587,530.5596,,0,,530.5604,530.5612,,0,,1,530.5612,530.5612,530.5619,532.0587,0,12,12,12,1,0.2,0.8,0.8,0.2,1,0,,,,,,,,,,,,,,,,,,,,,,,,,,,,,,,,,,,,
,,614f11b6fe832a304632a860,66daf5c51881c2a6aa220734,2024-09-06_15h30.31.838,mdp,2024.2.1,Win32,59.88023952,66d7945b1baad48e845df3ce,,,,,,,,,,,,,,,,,,,,,532.0591,532.0591,532.0602,533.8936,1,0,right,1.3272,,533.8946,533.8951,,1,,533.8957,533.8962,,0,,1,533.8962,533.8962,533.8966,535.395,0,13,13,13,1,0.2,0.8,0.8,0.2,1,0,,,,,,,,,,,,,,,,,,,,,,,,,,,,,,,,,,,,
,,614f11b6fe832a304632a860,66daf5c51881c2a6aa220734,2024-09-06_15h30.31.838,mdp,2024.2.1,Win32,59.88023952,66d7945b1baad48e845df3ce,,,,,,,,,,,,,,,,,,,,,535.3953,535.3953,535.3965,536.5293,0,0,left,0.6011,,536.5304,536.5312,,1,,536.5317,536.5322,,1,,1,536.5323,536.5323,536.5327,538.0304,0,14,14,14,1,0.2,0.8,0.8,0.2,1,0,,,,,,,,,,,,,,,,,,,,,,,,,,,,,,,,,,,,
,,614f11b6fe832a304632a860,66daf5c51881c2a6aa220734,2024-09-06_15h30.31.838,mdp,2024.2.1,Win32,59.88023952,66d7945b1baad48e845df3ce,,,,,,,,,,,,,,,,,,,,,538.0307,538.0307,538.032,539.3983,0,0,left,0.843,,539.3995,539.4003,,1,,539.4011,539.4016,,0,,1,539.4016,539.4017,539.4023,540.8993,0,15,15,15,1,0.6,0.4,0.4,0.6,1,0,,,,,,,,,,,,,,,,,,,,,,,,,,,,,,,,,,,,
,,614f11b6fe832a304632a860,66daf5c51881c2a6aa220734,2024-09-06_15h30.31.838,mdp,2024.2.1,Win32,59.88023952,66d7945b1baad48e845df3ce,,,,,,,,,,,,,,,,,,,,,540.8997,540.8997,540.9009,542.1505,0,1,left,0.7425,,542.1518,542.1524,,1,,542.153,542.1536,,1,,0,542.1537,542.1537,542.1542,543.6517,0,16,16,16,1,0.6,0.4,0.4,0.6,1,0,,,,,,,,,,,,,,,,,,,,,,,,,,,,,,,,,,,,
,,614f11b6fe832a304632a860,66daf5c51881c2a6aa220734,2024-09-06_15h30.31.838,mdp,2024.2.1,Win32,59.88023952,66d7945b1baad48e845df3ce,,,,,,,,,,,,,,,,,,,,,543.652,543.652,543.6533,545.0864,1,1,right,0.9017,,545.0873,545.0879,,0,,545.0886,545.0894,,0,,0,545.0894,545.0894,545.09,546.5875,0,17,17,17,1,0.2,0.8,0.8,0.2,1,0,,,,,,,,,,,,,,,,,,,,,,,,,,,,,,,,,,,,
,,614f11b6fe832a304632a860,66daf5c51881c2a6aa220734,2024-09-06_15h30.31.838,mdp,2024.2.1,Win32,59.88023952,66d7945b1baad48e845df3ce,,,,,,,,,,,,,,,,,,,,,546.5878,546.5878,546.589,547.8385,1,0,right,0.7178,,547.8398,547.8405,,0,,547.8411,547.8416,,0,,1,547.8416,547.8416,547.8423,549.3397,0,18,18,18,1,0.2,0.8,0.8,0.2,1,0,,,,,,,,,,,,,,,,,,,,,,,,,,,,,,,,,,,,
,,614f11b6fe832a304632a860,66daf5c51881c2a6aa220734,2024-09-06_15h30.31.838,mdp,2024.2.1,Win32,59.88023952,66d7945b1baad48e845df3ce,,,,,,,,,,,,,,,,,,,,,549.3401,549.3401,549.3413,550.4408,0,1,left,0.5673,,550.4419,550.4426,,1,,550.4434,550.4438,,1,,0,550.4439,550.4439,550.4443,551.9424,0,19,19,19,1,0.2,0.8,0.8,0.2,1,0,,,,,,,,,,,,,,,,,,,,,,,,,,,,,,,,,,,,
,,614f11b6fe832a304632a860,66daf5c51881c2a6aa220734,2024-09-06_15h30.31.838,mdp,2024.2.1,Win32,59.88023952,66d7945b1baad48e845df3ce,,,,,,,,,,,,,,,,,,,,,551.9428,551.9428,551.9439,553.0426,1,1,right,0.5716,,553.0437,553.0446,,0,,553.0452,553.0458,,0,,0,553.0459,553.0459,553.0464,554.5438,0,20,20,20,1,0.8,0.2,0.4,0.6,1,0,,,,,,,,,,,,,,,,,,,,,,,,,,,,,,,,,,,,
,,614f11b6fe832a304632a860,66daf5c51881c2a6aa220734,2024-09-06_15h30.31.838,mdp,2024.2.1,Win32,59.88023952,66d7945b1baad48e845df3ce,,,,,,,,,,,,,,,,,,,,,554.5442,554.5442,554.5451,555.845,1,1,right,0.7862,,555.8459,555.8467,,1,,555.8473,555.8479,,1,,0,555.8479,555.8479,555.8483,557.3463,0,21,21,21,1,0.8,0.2,0.4,0.6,1,0,,,,,,,,,,,,,,,,,,,,,,,,,,,,,,,,,,,,
,,614f11b6fe832a304632a860,66daf5c51881c2a6aa220734,2024-09-06_15h30.31.838,mdp,2024.2.1,Win32,59.88023952,66d7945b1baad48e845df3ce,,,,,,,,,,,,,,,,,,,,,557.3465,557.3465,557.3474,559.5315,0,1,left,1.6723,,559.5324,559.5329,,0,,559.5336,559.5341,,0,,0,559.5341,559.5341,559.5347,561.0326,0,22,22,22,1,0.8,0.2,0.4,0.6,1,0,,,,,,,,,,,,,,,,,,,,,,,,,,,,,,,,,,,,
,,614f11b6fe832a304632a860,66daf5c51881c2a6aa220734,2024-09-06_15h30.31.838,mdp,2024.2.1,Win32,59.88023952,66d7945b1baad48e845df3ce,,,,,,,,,,,,,,,,,,,,,561.0329,561.0329,561.0337,562.2338,1,1,right,0.6844,,562.2349,562.2356,,1,,562.2363,562.2367,,1,,0,562.2367,562.2367,562.2373,563.7348,0,23,23,23,1,0.8,0.2,0.4,0.6,1,0,,,,,,,,,,,,,,,,,,,,,,,,,,,,,,,,,,,,
,,614f11b6fe832a304632a860,66daf5c51881c2a6aa220734,2024-09-06_15h30.31.838,mdp,2024.2.1,Win32,59.88023952,66d7945b1baad48e845df3ce,,,,,,,,,,,,,,,,,,,,,563.7352,563.7353,563.7363,564.7525,1,0,right,0.4906,,564.7537,564.7544,,0,,564.755,564.7555,,0,,1,564.7555,564.7555,564.756,566.2536,0,24,24,24,1,0.6,0.4,0.8,0.2,1,0,,,,,,,,,,,,,,,,,,,,,,,,,,,,,,,,,,,,
,,614f11b6fe832a304632a860,66daf5c51881c2a6aa220734,2024-09-06_15h30.31.838,mdp,2024.2.1,Win32,59.88023952,66d7945b1baad48e845df3ce,,,,,,,,,,,,,,,,,,,,,566.254,566.254,566.2552,567.9884,0,0,left,1.2014,,567.9894,567.9902,,1,,567.9908,567.9913,,1,,1,567.9913,567.9913,567.9918,569.4896,0,25,25,25,1,0.6,0.4,0.8,0.2,1,0,,,,,,,,,,,,,,,,,,,,,,,,,,,,,,,,,,,,
,,614f11b6fe832a304632a860,66daf5c51881c2a6aa220734,2024-09-06_15h30.31.838,mdp,2024.2.1,Win32,59.88023952,66d7945b1baad48e845df3ce,,,,,,,,,,,,,,,,,,,,,569.49,569.49,569.4911,570.5572,1,0,right,0.5361,,570.5581,570.5587,,0,,570.5593,570.5598,,0,,1,570.5598,570.5598,570.5602,572.0584,0,26,26,26,1,0.6,0.4,0.8,0.2,1,0,,,,,,,,,,,,,,,,,,,,,,,,,,,,,,,,,,,,
,,614f11b6fe832a304632a860,66daf5c51881c2a6aa220734,2024-09-06_15h30.31.838,mdp,2024.2.1,Win32,59.88023952,66d7945b1baad48e845df3ce,,,,,,,,,,,,,,,,,,,,,572.0588,572.0588,572.0599,573.4763,0,0,left,0.8872,,573.4772,573.4779,,0,,573.4784,573.4789,,0,,1,573.4789,573.4789,573.4794,574.9775,0,27,27,27,1,0.6,0.4,0.8,0.2,1,0,,,,,,,,,,,,,,,,,,,,,,,,,,,,,,,,,,,,
,,614f11b6fe832a304632a860,66daf5c51881c2a6aa220734,2024-09-06_15h30.31.838,mdp,2024.2.1,Win32,59.88023952,66d7945b1baad48e845df3ce,,,,,,,,,,,,,,,,,,,,,574.9778,574.9778,574.9791,576.0451,0,0,left,0.5343,,576.0463,576.047,,0,,576.0477,576.0482,,1,,1,576.0482,576.0482,576.0487,577.5463,0,28,28,28,1,0.6,0.4,0.8,0.2,1,0,,,,,,,,,,,,,,,,,,,,,,,,,,,,,,,,,,,,
,,614f11b6fe832a304632a860,66daf5c51881c2a6aa220734,2024-09-06_15h30.31.838,mdp,2024.2.1,Win32,59.88023952,66d7945b1baad48e845df3ce,,,,,,,,,,,,,,,,,,,,,577.5466,577.5466,577.5478,578.6471,1,0,right,0.5841,,578.6481,578.6486,,1,,578.6494,578.65,,0,,1,578.65,578.65,578.6505,580.1484,0,29,29,29,1,0.6,0.4,0.8,0.2,1,0,,,,,,,,,,,,,,,,,,,,,,,,,,,,,,,,,,,,
,,614f11b6fe832a304632a860,66daf5c51881c2a6aa220734,2024-09-06_15h30.31.838,mdp,2024.2.1,Win32,59.88023952,66d7945b1baad48e845df3ce,,,,,,,,,,,,,,,,,,,,,580.1488,580.1488,580.1499,581.2827,1,1,right,0.6055,,581.2836,581.2842,,0,,581.2848,581.2853,,0,,0,581.2853,581.2853,581.2858,582.784,0,30,30,30,1,0.6,0.4,0.8,0.2,1,0,,,,,,,,,,,,,,,,,,,,,,,,,,,,,,,,,,,,
,,614f11b6fe832a304632a860,66daf5c51881c2a6aa220734,2024-09-06_15h30.31.838,mdp,2024.2.1,Win32,59.88023952,66d7945b1baad48e845df3ce,,,,,,,,,,,,,,,,,,,,,582.7844,582.7844,582.7855,583.7349,1,0,right,0.4177,,583.7361,583.7368,,0,,583.7375,583.7381,,0,,1,583.7382,583.7382,583.7388,585.2359,0,31,31,31,1,0.6,0.4,0.8,0.2,1,0,,,,,,,,,,,,,,,,,,,,,,,,,,,,,,,,,,,,
,,614f11b6fe832a304632a860,66daf5c51881c2a6aa220734,2024-09-06_15h30.31.838,mdp,2024.2.1,Win32,59.88023952,66d7945b1baad48e845df3ce,,,,,,,,,,,,,,,,,,,,,585.2363,585.2363,585.2375,586.2701,1,0,right,0.502,,586.271,586.2716,,0,,586.2722,586.2727,,1,,1,586.2727,586.2727,586.2732,587.7714,0,32,32,32,1,0.6,0.4,0.8,0.2,1,0,,,,,,,,,,,,,,,,,,,,,,,,,,,,,,,,,,,,
,,614f11b6fe832a304632a860,66daf5c51881c2a6aa220734,2024-09-06_15h30.31.838,mdp,2024.2.1,Win32,59.88023952,66d7945b1baad48e845df3ce,,,,,,,,,,,,,,,,,,,,,587.7718,587.7718,587.773,588.8557,0,1,left,0.5587,,588.8571,588.858,,0,,588.8587,588.8593,,1,,0,588.8593,588.8593,588.8598,590.3568,0,33,33,33,1,0.6,0.4,0.8,0.2,1,0,,,,,,,,,,,,,,,,,,,,,,,,,,,,,,,,,,,,
,,614f11b6fe832a304632a860,66daf5c51881c2a6aa220734,2024-09-06_15h30.31.838,mdp,2024.2.1,Win32,59.88023952,66d7945b1baad48e845df3ce,,,,,,,,,,,,,,,,,,,,,590.3572,590.3572,590.3583,592.225,1,0,right,1.3348,,592.226,592.2269,,0,,592.2276,592.2281,,0,,1,592.2281,592.2281,592.2287,593.7262,0,34,34,34,1,0.6,0.4,0.8,0.2,1,0,,,,,,,,,,,,,,,,,,,,,,,,,,,,,,,,,,,,
,,614f11b6fe832a304632a860,66daf5c51881c2a6aa220734,2024-09-06_15h30.31.838,mdp,2024.2.1,Win32,59.88023952,66d7945b1baad48e845df3ce,,,,,,,,,,,,,,,,,,,,,593.7266,593.7267,593.728,594.8773,1,1,right,0.6195,,594.8784,594.879,,0,,594.8795,594.88,,0,,0,594.88,594.88,594.8805,596.3784,0,35,35,35,1,0.6,0.4,0.8,0.2,1,0,,,,,,,,,,,,,,,,,,,,,,,,,,,,,,,,,,,,
,,614f11b6fe832a304632a860,66daf5c51881c2a6aa220734,2024-09-06_15h30.31.838,mdp,2024.2.1,Win32,59.88023952,66d7945b1baad48e845df3ce,,,,,,,,,,,,,,,,,,,,,596.3788,596.3788,596.3799,597.4294,0,0,left,0.5175,,597.4305,597.4313,,0,,597.4319,597.4323,,1,,1,597.4323,597.4323,597.4328,598.9305,0,36,36,36,1,0.8,0.2,0.6,0.4,1,0,,,,,,,,,,,,,,,,,,,,,,,,,,,,,,,,,,,,
,,614f11b6fe832a304632a860,66daf5c51881c2a6aa220734,2024-09-06_15h30.31.838,mdp,2024.2.1,Win32,59.88023952,66d7945b1baad48e845df3ce,,,,,,,,,,,,,,,,,,,,,598.9309,598.931,598.9321,599.9981,0,0,left,0.5332,,599.9991,599.9996,,0,,600.0001,600.0005,,0,,1,600.0006,600.0006,600.001,601.4993,0,37,37,37,1,0.8,0.2,0.6,0.4,1,0,,,,,,,,,,,,,,,,,,,,,,,,,,,,,,,,,,,,
,,614f11b6fe832a304632a860,66daf5c51881c2a6aa220734,2024-09-06_15h30.31.838,mdp,2024.2.1,Win32,59.88023952,66d7945b1baad48e845df3ce,,,,,,,,,,,,,,,,,,,,,601.4997,601.4997,601.5009,603.3842,0,1,left,1.3752,,603.3851,603.3857,,0,,603.3863,603.3868,,0,,0,603.3868,603.3868,603.3874,604.8854,0,38,38,38,1,0.8,0.2,0.6,0.4,1,0,,,,,,,,,,,,,,,,,,,,,,,,,,,,,,,,,,,,
,,614f11b6fe832a304632a860,66daf5c51881c2a6aa220734,2024-09-06_15h30.31.838,mdp,2024.2.1,Win32,59.88023952,66d7945b1baad48e845df3ce,,,,,,,,,,,,,,,,,,,,,604.8858,604.8858,604.887,606.6535,1,1,right,1.2349,,606.6544,606.655,,0,,606.6558,606.6563,,1,,0,606.6563,606.6564,606.6568,608.1548,0,39,39,39,1,0.8,0.2,0.6,0.4,1,0,,,,,,,,,,,,,,,,,,,,,,,,,,,,,,,,,,,,
,,614f11b6fe832a304632a860,66daf5c51881c2a6aa220734,2024-09-06_15h30.31.838,mdp,2024.2.1,Win32,59.88023952,66d7945b1baad48e845df3ce,,,,,,,,,,,,,,,,,,,,,608.1552,608.1552,608.1575,609.4059,1,1,right,0.7192,,609.4068,609.4073,,1,,609.4078,609.4083,,1,,0,609.4084,609.4084,609.4087,610.9071,0,40,40,40,1,0.8,0.2,0.6,0.4,1,0,,,,,,,,,,,,,,,,,,,,,,,,,,,,,,,,,,,,
,,614f11b6fe832a304632a860,66daf5c51881c2a6aa220734,2024-09-06_15h30.31.838,mdp,2024.2.1,Win32,59.88023952,66d7945b1baad48e845df3ce,,,,,,,,,,,,,,,,,,,,,610.9074,610.9074,610.9086,611.7578,1,0,right,0.334,,611.7589,611.7595,,1,,611.7601,611.7606,,0,,1,611.7606,611.7606,611.7613,613.259,0,41,41,41,1,0.8,0.2,0.6,0.4,1,0,,,,,,,,,,,,,,,,,,,,,,,,,,,,,,,,,,,,
,,614f11b6fe832a304632a860,66daf5c51881c2a6aa220734,2024-09-06_15h30.31.838,mdp,2024.2.1,Win32,59.88023952,66d7945b1baad48e845df3ce,,,,,,,,,,,,,,,,,,,,,613.2594,613.2594,613.2605,614.4435,1,0,right,0.6509,,614.4446,614.4453,,0,,614.4458,614.4463,,0,,1,614.4464,614.4464,614.4474,615.9446,0,42,42,42,1,0.8,0.2,0.6,0.4,1,0,,,,,,,,,,,,,,,,,,,,,,,,,,,,,,,,,,,,
,,614f11b6fe832a304632a860,66daf5c51881c2a6aa220734,2024-09-06_15h30.31.838,mdp,2024.2.1,Win32,59.88023952,66d7945b1baad48e845df3ce,,,,,,,,,,,,,,,,,,,,,615.9449,615.9449,615.9461,616.7119,0,1,left,0.2337,,616.7128,616.7133,,0,,616.7139,616.7143,,0,,0,616.7143,616.7143,616.7149,618.2131,0,43,43,43,1,0.6,0.4,0.2,0.8,1,0,,,,,,,,,,,,,,,,,,,,,,,,,,,,,,,,,,,,
,,614f11b6fe832a304632a860,66daf5c51881c2a6aa220734,2024-09-06_15h30.31.838,mdp,2024.2.1,Win32,59.88023952,66d7945b1baad48e845df3ce,,,,,,,,,,,,,,,,,,,,,618.2134,618.2134,618.2146,619.0807,0,0,left,0.3409,,619.0818,619.0825,,0,,619.0832,619.0837,,1,,1,619.0838,619.0838,619.0843,620.5817,0,44,44,44,1,0.8,0.2,0.8,0.2,1,0,,,,,,,,,,,,,,,,,,,,,,,,,,,,,,,,,,,,
,,614f11b6fe832a304632a860,66daf5c51881c2a6aa220734,2024-09-06_15h30.31.838,mdp,2024.2.1,Win32,59.88023952,66d7945b1baad48e845df3ce,,,,,,,,,,,,,,,,,,,,,620.5821,620.5821,620.5832,621.5158,0,0,left,0.401,,621.5169,621.5177,,0,,621.5183,621.5188,,1,,1,621.5189,621.5189,621.5194,623.0171,0,45,45,45,1,0.8,0.2,0.8,0.2,1,0,,,,,,,,,,,,,,,,,,,,,,,,,,,,,,,,,,,,
,,614f11b6fe832a304632a860,66daf5c51881c2a6aa220734,2024-09-06_15h30.31.838,mdp,2024.2.1,Win32,59.88023952,66d7945b1baad48e845df3ce,,,,,,,,,,,,,,,,,,,,,623.0176,623.0176,623.0189,624.1847,0,0,left,0.6342,,624.1856,624.1864,,1,,624.187,624.1875,,0,,1,624.1875,624.1875,624.1879,625.6859,0,46,46,46,1,0.6,0.4,0.4,0.6,1,0,,,,,,,,,,,,,,,,,,,,,,,,,,,,,,,,,,,,
,,614f11b6fe832a304632a860,66daf5c51881c2a6aa220734,2024-09-06_15h30.31.838,mdp,2024.2.1,Win32,59.88023952,66d7945b1baad48e845df3ce,,,,,,,,,,,,,,,,,,,,,625.6863,625.6863,625.6874,626.5867,1,1,right,0.3889,,626.5876,626.5881,,1,,626.5887,626.5892,,1,,0,626.5892,626.5892,626.5897,628.0879,0,47,47,47,1,0.6,0.4,0.4,0.6,1,0,,,,,,,,,,,,,,,,,,,,,,,,,,,,,,,,,,,,
,,614f11b6fe832a304632a860,66daf5c51881c2a6aa220734,2024-09-06_15h30.31.838,mdp,2024.2.1,Win32,59.88023952,66d7945b1baad48e845df3ce,,,,,,,,,,,,,,,,,,,,,628.0883,628.0883,628.0894,629.806,0,0,left,1.1847,,629.8072,629.808,,1,,629.809,629.8095,,1,,1,629.8095,629.8095,629.81,631.3073,0,48,48,48,1,0.2,0.8,0.8,0.2,1,0,,,,,,,,,,,,,,,,,,,,,,,,,,,,,,,,,,,,
,,614f11b6fe832a304632a860,66daf5c51881c2a6aa220734,2024-09-06_15h30.31.838,mdp,2024.2.1,Win32,59.88023952,66d7945b1baad48e845df3ce,,,,,,,,,,,,,,,,,,,,,631.3076,631.3076,631.3087,632.3081,0,0,left,0.4674,,632.3091,632.3098,,0,,632.3105,632.3112,,0,,1,632.3113,632.3113,632.3118,633.8093,0,49,49,49,1,0.6,0.4,0.6,0.4,1,0,,,,,,,,,,,,,,,,,,,,,,,,,,,,,,,,,,,,
,,614f11b6fe832a304632a860,66daf5c51881c2a6aa220734,2024-09-06_15h30.31.838,mdp,2024.2.1,Win32,59.88023952,66d7945b1baad48e845df3ce,,,,,,,,,,,,,,,,,,,,,,,,,,,,,,,,,,,,,,,,,,,,,,,,,,,,,,,,633.8099,692.3247,0,0,0,6,1,imgs/lion.png,imgs/bear.png,imgs/dog.png,imgs/cat.png,imgs/kangaroo.png,,,,,,,,,,,,,,,,,,,,,,,,
,,614f11b6fe832a304632a860,66daf5c51881c2a6aa220734,2024-09-06_15h30.31.838,mdp,2024.2.1,Win32,59.88023952,66d7945b1baad48e845df3ce,,,,,,,,,,,,,,2,seqs/st2seq25.csv,692.3331,696.2942,space,3.4363,,696.2989,696.2989,696.2997,699.5969,0,1,left,2.7646,,699.6042,703.717,1,0,right,703.7246,703.7251,,0,,1,703.7251,703.7251,703.7256,705.2182,0,0,0,0,1,0.6,0.4,0.4,0.6,,,,,,,,,,,,,,,3.602,,0.2,0.8,0.8,0.2,0.4,0.6,0.8,0.2,1,0,,,,,,,,,,,,
,,614f11b6fe832a304632a860,66daf5c51881c2a6aa220734,2024-09-06_15h30.31.838,mdp,2024.2.1,Win32,59.88023952,66d7945b1baad48e845df3ce,,,,,,,,,,,,,,,,,,,,,705.2186,705.2187,705.2197,707.3867,0,0,left,1.6352,,707.388,709.4218,1,0,right,709.4229,709.4238,,1,,1,709.4238,709.4238,709.4245,710.9229,0,1,1,1,1,0.6,0.4,0.4,0.6,,,,,,,,,,,,,,,1.514,,0.2,0.8,0.8,0.2,0.4,0.6,0.8,0.2,1,0,,,,,,,,,,,,
,,614f11b6fe832a304632a860,66daf5c51881c2a6aa220734,2024-09-06_15h30.31.838,mdp,2024.2.1,Win32,59.88023952,66d7945b1baad48e845df3ce,,,,,,,,,,,,,,,,,,,,,710.9233,710.9233,710.9244,712.6578,0,0,left,1.2015,,712.6589,715.1264,1,1,right,715.1275,715.1283,,0,,0,715.1283,715.1283,715.1289,716.6276,0,2,2,2,1,0.8,0.2,0.8,0.2,,,,,,,,,,,,,,,1.9542,,0.2,0.8,0.8,0.2,0.4,0.6,0.8,0.2,1,0,,,,,,,,,,,,
,,614f11b6fe832a304632a860,66daf5c51881c2a6aa220734,2024-09-06_15h30.31.838,mdp,2024.2.1,Win32,59.88023952,66d7945b1baad48e845df3ce,,,,,,,,,,,,,,,,,,,,,716.6279,716.6279,716.629,718.0788,0,0,left,0.9365,,718.0798,720.1639,1,0,right,720.1651,720.1658,,0,,1,720.1658,720.1658,720.1663,721.665,0,3,3,3,1,0.8,0.2,0.8,0.2,,,,,,,,,,,,,,,1.5683,,0.2,0.8,0.8,0.2,0.4,0.6,0.8,0.2,1,0,,,,,,,,,,,,
,,614f11b6fe832a304632a860,66daf5c51881c2a6aa220734,2024-09-06_15h30.31.838,mdp,2024.2.1,Win32,59.88023952,66d7945b1baad48e845df3ce,,,,,,,,,,,,,,,,,,,,,721.6655,721.6655,721.6666,722.7827,0,0,left,0.5843,,722.7839,725.5515,1,0,right,725.5525,725.5531,,0,,1,725.5531,725.5531,725.5536,727.0528,0,4,4,4,1,0.8,0.2,0.8,0.2,,,,,,,,,,,,,,,2.2531,,0.2,0.8,0.8,0.2,0.4,0.6,0.8,0.2,1,0,,,,,,,,,,,,
,,614f11b6fe832a304632a860,66daf5c51881c2a6aa220734,2024-09-06_15h30.31.838,mdp,2024.2.1,Win32,59.88023952,66d7945b1baad48e845df3ce,,,,,,,,,,,,,,,,,,,,,727.0532,727.0532,727.0544,728.0875,0,1,left,0.5174,,728.0885,729.872,0,1,left,729.8732,729.874,,1,,0,729.8741,729.8741,729.8747,731.3731,0,5,5,5,1,0.8,0.2,0.8,0.2,,,,,,,,,,,,,,,1.2556,,0.2,0.8,0.8,0.2,0.4,0.6,0.8,0.2,1,0,,,,,,,,,,,,
,,614f11b6fe832a304632a860,66daf5c51881c2a6aa220734,2024-09-06_15h30.31.838,mdp,2024.2.1,Win32,59.88023952,66d7945b1baad48e845df3ce,,,,,,,,,,,,,,,,,,,,,731.3735,731.3735,731.3746,732.3739,0,0,left,0.4701,,732.3749,734.8761,0,1,left,734.8773,734.8779,,1,,0,734.878,734.878,734.8786,736.3772,0,6,6,6,1,0.8,0.2,0.8,0.2,,,,,,,,,,,,,,,1.9852,,0.2,0.8,0.8,0.2,0.4,0.6,0.8,0.2,1,0,,,,,,,,,,,,
,,614f11b6fe832a304632a860,66daf5c51881c2a6aa220734,2024-09-06_15h30.31.838,mdp,2024.2.1,Win32,59.88023952,66d7945b1baad48e845df3ce,,,,,,,,,,,,,,,,,,,,,736.3776,736.3776,736.3787,737.4114,0,0,left,0.5011,,737.4123,739.313,1,0,right,739.3139,739.3144,,0,,1,739.3144,739.3144,739.315,740.8142,0,7,7,7,1,0.8,0.2,0.8,0.2,,,,,,,,,,,,,,,1.3847,,0.2,0.8,0.8,0.2,0.4,0.6,0.8,0.2,1,0,,,,,,,,,,,,
,,614f11b6fe832a304632a860,66daf5c51881c2a6aa220734,2024-09-06_15h30.31.838,mdp,2024.2.1,Win32,59.88023952,66d7945b1baad48e845df3ce,,,,,,,,,,,,,,,,,,,,,740.8145,740.8146,740.8157,742.2488,0,0,left,0.9013,,742.2496,745.0677,1,0,right,745.0756,745.0761,,0,,1,745.0761,745.0761,745.0766,746.569,0,8,8,8,1,0.8,0.2,0.8,0.2,,,,,,,,,,,,,,,2.3024,,0.2,0.8,0.8,0.2,0.4,0.6,0.8,0.2,1,0,,,,,,,,,,,,
,,614f11b6fe832a304632a860,66daf5c51881c2a6aa220734,2024-09-06_15h30.31.838,mdp,2024.2.1,Win32,59.88023952,66d7945b1baad48e845df3ce,,,,,,,,,,,,,,,,,,,,,746.5693,746.5693,746.5705,747.9536,0,0,left,0.8751,,747.9548,750.2388,1,0,right,750.24,750.2408,,0,,1,750.2409,750.2409,750.2414,751.7399,0,9,9,9,1,0.8,0.2,0.8,0.2,,,,,,,,,,,,,,,1.7686,,0.2,0.8,0.8,0.2,0.4,0.6,0.8,0.2,1,0,,,,,,,,,,,,
,,614f11b6fe832a304632a860,66daf5c51881c2a6aa220734,2024-09-06_15h30.31.838,mdp,2024.2.1,Win32,59.88023952,66d7945b1baad48e845df3ce,,,,,,,,,,,,,,,,,,,,,751.7403,751.7403,751.7414,752.9575,0,0,left,0.6876,,752.9587,756.0101,1,0,right,756.0112,756.0119,,0,,1,756.0119,756.0119,756.0126,757.5113,0,10,10,10,1,0.8,0.2,0.8,0.2,,,,,,,,,,,,,,,2.5358,,0.2,0.8,0.8,0.2,0.4,0.6,0.8,0.2,1,0,,,,,,,,,,,,
,,614f11b6fe832a304632a860,66daf5c51881c2a6aa220734,2024-09-06_15h30.31.838,mdp,2024.2.1,Win32,59.88023952,66d7945b1baad48e845df3ce,,,,,,,,,,,,,,,,,,,,,757.5117,757.5117,757.5128,758.5457,0,1,left,0.5081,,758.5469,761.8983,0,0,left,761.8994,761.9001,,1,,1,761.9002,761.9002,761.9009,763.3994,0,11,11,11,1,0.8,0.2,0.8,0.2,,,,,,,,,,,,,,,2.8315,,0.2,0.8,0.8,0.2,0.4,0.6,0.8,0.2,1,0,,,,,,,,,,,,
,,614f11b6fe832a304632a860,66daf5c51881c2a6aa220734,2024-09-06_15h30.31.838,mdp,2024.2.1,Win32,59.88023952,66d7945b1baad48e845df3ce,,,,,,,,,,,,,,,,,,,,,763.3998,763.3998,763.401,765.7682,0,1,left,1.8363,,765.7693,769.0208,0,1,left,769.0286,769.029,,1,,0,769.0291,769.0291,769.0295,770.522,0,12,12,12,1,0.2,0.8,0.6,0.4,,,,,,,,,,,,,,,2.7403,,0.2,0.8,0.8,0.2,0.4,0.6,0.8,0.2,1,0,,,,,,,,,,,,
,,614f11b6fe832a304632a860,66daf5c51881c2a6aa220734,2024-09-06_15h30.31.838,mdp,2024.2.1,Win32,59.88023952,66d7945b1baad48e845df3ce,,,,,,,,,,,,,,,,,,,,,770.5224,770.5224,770.5235,771.5229,1,0,right,0.4673,,771.5238,773.3912,0,1,left,773.3922,773.393,,1,,0,773.393,773.393,773.3937,774.8923,0,13,13,13,1,0.2,0.8,0.6,0.4,,,,,,,,,,,,,,,1.347,,0.2,0.8,0.8,0.2,0.4,0.6,0.8,0.2,1,0,,,,,,,,,,,,
,,614f11b6fe832a304632a860,66daf5c51881c2a6aa220734,2024-09-06_15h30.31.838,mdp,2024.2.1,Win32,59.88023952,66d7945b1baad48e845df3ce,,,,,,,,,,,,,,,,,,,,,774.8927,774.8927,774.8938,776.3436,0,1,left,0.9198,,776.3446,778.6955,1,0,right,778.7033,778.7038,,0,,1,778.7038,778.7038,778.7043,780.1966,0,14,14,14,1,0.2,0.8,0.6,0.4,,,,,,,,,,,,,,,1.8307,,0.2,0.8,0.8,0.2,0.4,0.6,0.8,0.2,1,0,,,,,,,,,,,,
,,614f11b6fe832a304632a860,66daf5c51881c2a6aa220734,2024-09-06_15h30.31.838,mdp,2024.2.1,Win32,59.88023952,66d7945b1baad48e845df3ce,,,,,,,,,,,,,,,,,,,,,780.1971,780.1971,780.1982,781.5145,0,0,left,0.7846,,781.5157,783.4827,1,0,right,783.4835,783.4841,,0,,1,783.4841,783.4841,783.4847,784.984,0,15,15,15,1,0.2,0.8,0.6,0.4,,,,,,,,,,,,,,,1.4469,,0.2,0.8,0.8,0.2,0.4,0.6,0.8,0.2,1,0,,,,,,,,,,,,
,,614f11b6fe832a304632a860,66daf5c51881c2a6aa220734,2024-09-06_15h30.31.838,mdp,2024.2.1,Win32,59.88023952,66d7945b1baad48e845df3ce,,,,,,,,,,,,,,,,,,,,,784.9844,784.9844,784.9856,786.8522,0,1,left,1.3351,,786.8535,789.838,1,0,right,789.8391,789.8399,,0,,1,789.8399,789.8399,789.8405,791.3392,0,16,16,16,1,0.2,0.8,0.6,0.4,,,,,,,,,,,,,,,2.468,,0.2,0.8,0.8,0.2,0.4,0.6,0.8,0.2,1,0,,,,,,,,,,,,
,,614f11b6fe832a304632a860,66daf5c51881c2a6aa220734,2024-09-06_15h30.31.838,mdp,2024.2.1,Win32,59.88023952,66d7945b1baad48e845df3ce,,,,,,,,,,,,,,,,,,,,,791.3395,791.3396,791.3407,792.3067,0,0,left,0.4341,,792.3078,794.1083,1,0,right,794.1094,794.1101,,0,,1,794.1101,794.1101,794.1108,795.6093,0,17,17,17,1,0.2,0.8,0.6,0.4,,,,,,,,,,,,,,,1.2796,,0.2,0.8,0.8,0.2,0.4,0.6,0.8,0.2,1,0,,,,,,,,,,,,
,,614f11b6fe832a304632a860,66daf5c51881c2a6aa220734,2024-09-06_15h30.31.838,mdp,2024.2.1,Win32,59.88023952,66d7945b1baad48e845df3ce,,,,,,,,,,,,,,,,,,,,,795.6098,795.6098,795.6109,796.5602,0,1,left,0.4185,,796.5611,798.3618,1,0,right,798.3627,798.3633,,0,,1,798.3633,798.3633,798.3639,799.8629,0,18,18,18,1,0.2,0.8,0.6,0.4,,,,,,,,,,,,,,,1.2882,,0.2,0.8,0.8,0.2,0.4,0.6,0.8,0.2,1,0,,,,,,,,,,,,
,,614f11b6fe832a304632a860,66daf5c51881c2a6aa220734,2024-09-06_15h30.31.838,mdp,2024.2.1,Win32,59.88023952,66d7945b1baad48e845df3ce,,,,,,,,,,,,,,,,,,,,,799.8633,799.8633,799.8644,800.8638,0,1,left,0.4673,,800.865,802.0647,1,0,right,802.0659,802.0667,,0,,1,802.0667,802.0667,802.0673,803.566,0,19,19,19,1,0.2,0.8,0.6,0.4,,,,,,,,,,,,,,,0.6845,,0.2,0.8,0.8,0.2,0.4,0.6,0.8,0.2,1,0,,,,,,,,,,,,
,,614f11b6fe832a304632a860,66daf5c51881c2a6aa220734,2024-09-06_15h30.31.838,mdp,2024.2.1,Win32,59.88023952,66d7945b1baad48e845df3ce,,,,,,,,,,,,,,,,,,,,,803.5664,803.5664,803.5675,804.4834,0,0,left,0.3838,,804.4843,805.9179,1,1,right,805.9191,805.9198,,0,,0,805.9198,805.9198,805.9205,807.4191,0,20,20,20,1,0.2,0.8,0.6,0.4,,,,,,,,,,,,,,,0.9132,,0.2,0.8,0.8,0.2,0.4,0.6,0.8,0.2,1,0,,,,,,,,,,,,
,,614f11b6fe832a304632a860,66daf5c51881c2a6aa220734,2024-09-06_15h30.31.838,mdp,2024.2.1,Win32,59.88023952,66d7945b1baad48e845df3ce,,,,,,,,,,,,,,,,,,,,,807.4195,807.4195,807.4207,808.3532,0,1,left,0.4008,,808.3541,809.5209,1,0,right,809.522,809.5229,,0,,1,809.5229,809.5229,809.5238,811.0221,0,21,21,21,1,0.2,0.8,0.6,0.4,,,,,,,,,,,,,,,0.6553,,0.2,0.8,0.8,0.2,0.4,0.6,0.8,0.2,1,0,,,,,,,,,,,,
,,614f11b6fe832a304632a860,66daf5c51881c2a6aa220734,2024-09-06_15h30.31.838,mdp,2024.2.1,Win32,59.88023952,66d7945b1baad48e845df3ce,,,,,,,,,,,,,,,,,,,,,811.0225,811.0225,811.0237,811.7059,0,1,left,0.1579,,811.7069,813.374,1,0,right,813.3751,813.3756,,0,,1,813.3756,813.3757,813.3764,814.8752,0,22,22,22,1,0.2,0.8,0.6,0.4,,,,,,,,,,,,,,,1.1552,,0.4,0.6,0.2,0.8,0.4,0.6,0.8,0.2,1,0,,,,,,,,,,,,
,,614f11b6fe832a304632a860,66daf5c51881c2a6aa220734,2024-09-06_15h30.31.838,mdp,2024.2.1,Win32,59.88023952,66d7945b1baad48e845df3ce,,,,,,,,,,,,,,,,,,,,,814.8757,814.8757,814.8767,815.7593,0,1,left,0.3508,,815.7602,817.2272,1,0,right,817.2281,817.2286,,0,,1,817.2287,817.2287,817.2292,818.7284,0,23,23,23,1,0.2,0.8,0.6,0.4,,,,,,,,,,,,,,,0.9512,,0.4,0.6,0.2,0.8,0.4,0.6,0.8,0.2,1,0,,,,,,,,,,,,
,,614f11b6fe832a304632a860,66daf5c51881c2a6aa220734,2024-09-06_15h30.31.838,mdp,2024.2.1,Win32,59.88023952,66d7945b1baad48e845df3ce,,,,,,,,,,,,,,,,,,,,,818.7288,818.7288,818.7299,819.8794,0,1,left,0.6343,,819.8803,821.314,1,0,right,821.3151,821.3157,,0,,1,821.3157,821.3157,821.3163,822.8152,0,24,24,24,1,0.2,0.8,0.6,0.4,,,,,,,,,,,,,,,0.9254,,0.4,0.6,0.2,0.8,0.4,0.6,0.8,0.2,1,0,,,,,,,,,,,,
,,614f11b6fe832a304632a860,66daf5c51881c2a6aa220734,2024-09-06_15h30.31.838,mdp,2024.2.1,Win32,59.88023952,66d7945b1baad48e845df3ce,,,,,,,,,,,,,,,,,,,,,822.8155,822.8155,822.8167,823.5825,0,1,left,0.2541,,823.5836,824.8669,1,0,right,824.8682,824.8688,,0,,1,824.8688,824.8688,824.8694,826.3681,0,25,25,25,1,0.2,0.8,0.6,0.4,,,,,,,,,,,,,,,0.7743,,0.4,0.6,0.2,0.8,0.4,0.6,0.8,0.2,1,0,,,,,,,,,,,,
,,614f11b6fe832a304632a860,66daf5c51881c2a6aa220734,2024-09-06_15h30.31.838,mdp,2024.2.1,Win32,59.88023952,66d7945b1baad48e845df3ce,,,,,,,,,,,,,,,,,,,,,826.3685,826.3685,826.3696,827.886,1,0,right,1.005,,827.8869,830.5215,1,1,right,830.5295,830.5299,,1,,0,830.53,830.53,830.5305,832.0227,0,26,26,26,1,0.2,0.8,0.6,0.4,,,,,,,,,,,,,,,2.1147,,0.4,0.6,0.2,0.8,0.4,0.6,0.8,0.2,1,0,,,,,,,,,,,,
,,614f11b6fe832a304632a860,66daf5c51881c2a6aa220734,2024-09-06_15h30.31.838,mdp,2024.2.1,Win32,59.88023952,66d7945b1baad48e845df3ce,,,,,,,,,,,,,,,,,,,,,832.0232,832.0232,832.0243,832.9402,0,1,left,0.3836,,832.9416,834.5415,1,0,right,834.5425,834.543,,0,,1,834.5431,834.5431,834.5436,836.0428,0,27,27,27,1,0.2,0.8,0.6,0.4,,,,,,,,,,,,,,,1.0842,,0.4,0.6,0.2,0.8,0.4,0.6,0.8,0.2,1,0,,,,,,,,,,,,
,,614f11b6fe832a304632a860,66daf5c51881c2a6aa220734,2024-09-06_15h30.31.838,mdp,2024.2.1,Win32,59.88023952,66d7945b1baad48e845df3ce,,,,,,,,,,,,,,,,,,,,,836.0432,836.0432,836.0443,837.0435,0,1,left,0.4673,,837.0445,838.3446,1,0,right,838.3458,838.3463,,0,,1,838.3463,838.3463,838.3468,839.8459,0,28,28,28,1,0.2,0.8,0.6,0.4,,,,,,,,,,,,,,,0.7855,,0.4,0.6,0.2,0.8,0.4,0.6,0.8,0.2,1,0,,,,,,,,,,,,
,,614f11b6fe832a304632a860,66daf5c51881c2a6aa220734,2024-09-06_15h30.31.838,mdp,2024.2.1,Win32,59.88023952,66d7945b1baad48e845df3ce,,,,,,,,,,,,,,,,,,,,,839.8462,839.8463,839.8474,840.9135,0,1,left,0.5346,,840.9147,842.1977,1,0,right,842.1987,842.1993,,0,,1,842.1993,842.1993,842.1998,843.699,0,29,29,29,1,0.2,0.8,0.6,0.4,,,,,,,,,,,,,,,0.7718,,0.4,0.6,0.2,0.8,0.4,0.6,0.8,0.2,1,0,,,,,,,,,,,,
,,614f11b6fe832a304632a860,66daf5c51881c2a6aa220734,2024-09-06_15h30.31.838,mdp,2024.2.1,Win32,59.88023952,66d7945b1baad48e845df3ce,,,,,,,,,,,,,,,,,,,,,843.6994,843.6994,843.7006,844.6999,0,1,left,0.4676,,844.7012,846.2179,1,0,right,846.2191,846.2198,,0,,1,846.2198,846.2199,846.2207,847.719,0,30,30,30,1,0.2,0.8,0.6,0.4,,,,,,,,,,,,,,,1.0094,,0.4,0.6,0.2,0.8,0.4,0.6,0.8,0.2,1,0,,,,,,,,,,,,
,,614f11b6fe832a304632a860,66daf5c51881c2a6aa220734,2024-09-06_15h30.31.838,mdp,2024.2.1,Win32,59.88023952,66d7945b1baad48e845df3ce,,,,,,,,,,,,,,,,,,,,,847.7194,847.7194,847.7205,848.6365,0,1,left,0.3841,,848.6377,849.8707,1,1,right,849.8717,849.8722,,1,,0,849.8723,849.8723,849.8728,851.372,0,31,31,31,1,0.2,0.8,0.6,0.4,,,,,,,,,,,,,,,0.7177,,0.4,0.6,0.2,0.8,0.4,0.6,0.8,0.2,1,0,,,,,,,,,,,,
,,614f11b6fe832a304632a860,66daf5c51881c2a6aa220734,2024-09-06_15h30.31.838,mdp,2024.2.1,Win32,59.88023952,66d7945b1baad48e845df3ce,,,,,,,,,,,,,,,,,,,,,851.3724,851.3724,851.3735,853.774,1,1,right,1.8686,,853.7752,855.6757,0,1,left,855.6768,855.6775,,0,,0,855.6776,855.6776,855.6782,857.1768,0,32,32,32,1,0.6,0.4,0.4,0.6,,,,,,,,,,,,,,,1.3848,,0.4,0.6,0.2,0.8,0.4,0.6,0.8,0.2,1,0,,,,,,,,,,,,
,,614f11b6fe832a304632a860,66daf5c51881c2a6aa220734,2024-09-06_15h30.31.838,mdp,2024.2.1,Win32,59.88023952,66d7945b1baad48e845df3ce,,,,,,,,,,,,,,,,,,,,,857.1772,857.1772,857.1782,858.311,0,0,left,0.6007,,858.3123,861.5472,0,0,left,861.5549,861.5553,,0,,1,861.5554,861.5554,861.5558,863.0483,0,33,33,33,1,0.6,0.4,0.4,0.6,,,,,,,,,,,,,,,2.7215,,0.8,0.2,0.6,0.4,0.4,0.6,0.8,0.2,1,0,,,,,,,,,,,,
,,614f11b6fe832a304632a860,66daf5c51881c2a6aa220734,2024-09-06_15h30.31.838,mdp,2024.2.1,Win32,59.88023952,66d7945b1baad48e845df3ce,,,,,,,,,,,,,,,,,,,,,863.0486,863.0486,863.0498,864.1158,1,0,right,0.5571,,864.1168,867.5687,1,0,right,867.5763,867.5768,,0,,1,867.5768,867.5768,867.5773,869.07,0,34,34,34,1,0.6,0.4,0.4,0.6,,,,,,,,,,,,,,,2.9362,,0.8,0.2,0.6,0.4,0.4,0.6,0.8,0.2,1,0,,,,,,,,,,,,
,,614f11b6fe832a304632a860,66daf5c51881c2a6aa220734,2024-09-06_15h30.31.838,mdp,2024.2.1,Win32,59.88023952,66d7945b1baad48e845df3ce,,,,,,,,,,,,,,,,,,,,,869.0704,869.0704,869.0715,870.1376,1,0,right,0.5427,,870.1388,871.5888,1,0,right,871.59,871.591,,0,,1,871.591,871.591,871.5916,873.0899,0,35,35,35,1,0.6,0.4,0.4,0.6,,,,,,,,,,,,,,,0.9346,,0.8,0.2,0.6,0.4,0.4,0.6,0.8,0.2,1,0,,,,,,,,,,,,
,,614f11b6fe832a304632a860,66daf5c51881c2a6aa220734,2024-09-06_15h30.31.838,mdp,2024.2.1,Win32,59.88023952,66d7945b1baad48e845df3ce,,,,,,,,,,,,,,,,,,,,,873.0903,873.0903,873.0914,874.2075,1,1,right,0.5868,,874.2084,876.0424,0,0,left,876.0432,876.0438,,1,,1,876.0438,876.0438,876.0443,877.5436,0,36,36,36,1,0.6,0.4,0.4,0.6,,,,,,,,,,,,,,,1.3134,,0.8,0.2,0.6,0.4,0.4,0.6,0.8,0.2,1,0,,,,,,,,,,,,
,,614f11b6fe832a304632a860,66daf5c51881c2a6aa220734,2024-09-06_15h30.31.838,mdp,2024.2.1,Win32,59.88023952,66d7945b1baad48e845df3ce,,,,,,,,,,,,,,,,,,,,,877.544,877.544,877.5451,878.5612,1,1,right,0.4841,,878.5624,879.9956,0,1,left,879.9969,879.9975,,0,,0,879.9976,879.9976,879.9981,881.4968,0,37,37,37,1,0.6,0.4,0.4,0.6,,,,,,,,,,,,,,,0.9178,,0.8,0.2,0.6,0.4,0.4,0.6,0.8,0.2,1,0,,,,,,,,,,,,
,,614f11b6fe832a304632a860,66daf5c51881c2a6aa220734,2024-09-06_15h30.31.838,mdp,2024.2.1,Win32,59.88023952,66d7945b1baad48e845df3ce,,,,,,,,,,,,,,,,,,,,,881.4972,881.4972,881.4983,882.3644,1,1,right,0.3565,,882.3655,883.6821,1,1,right,883.6831,883.6837,,0,,0,883.6838,883.6838,883.6844,885.1833,0,38,38,38,1,0.6,0.4,0.4,0.6,,,,,,,,,,,,,,,0.8014,,0.8,0.2,0.6,0.4,0.4,0.6,0.8,0.2,1,0,,,,,,,,,,,,
,,614f11b6fe832a304632a860,66daf5c51881c2a6aa220734,2024-09-06_15h30.31.838,mdp,2024.2.1,Win32,59.88023952,66d7945b1baad48e845df3ce,,,,,,,,,,,,,,,,,,,,,885.1837,885.1837,885.1849,886.0674,1,0,right,0.3507,,886.0685,887.7353,0,0,left,887.7364,887.7371,,0,,1,887.7372,887.7372,887.7377,889.2365,0,39,39,39,1,0.6,0.4,0.4,0.6,,,,,,,,,,,,,,,1.1469,,0.8,0.2,0.6,0.4,0.4,0.6,0.8,0.2,1,0,,,,,,,,,,,,
,,614f11b6fe832a304632a860,66daf5c51881c2a6aa220734,2024-09-06_15h30.31.838,mdp,2024.2.1,Win32,59.88023952,66d7945b1baad48e845df3ce,,,,,,,,,,,,,,,,,,,,,889.237,889.237,889.2381,890.2041,0,1,left,0.44,,890.2049,892.039,0,0,left,892.0402,892.0408,,0,,1,892.0408,892.0408,892.0415,893.5402,0,40,40,40,1,0.6,0.4,0.4,0.6,,,,,,,,,,,,,,,1.3136,,0.8,0.2,0.6,0.4,0.4,0.6,0.8,0.2,1,0,,,,,,,,,,,,
,,614f11b6fe832a304632a860,66daf5c51881c2a6aa220734,2024-09-06_15h30.31.838,mdp,2024.2.1,Win32,59.88023952,66d7945b1baad48e845df3ce,,,,,,,,,,,,,,,,,,,,,893.5406,893.5406,893.5416,894.908,0,1,left,0.8345,,894.9092,898.5442,1,0,right,898.5514,898.5519,,0,,1,898.5519,898.5519,898.5524,900.0455,0,41,41,41,1,0.8,0.2,0.6,0.4,,,,,,,,,,,,,,,3.1218,,0.8,0.2,0.6,0.4,0.4,0.6,0.8,0.2,1,0,,,,,,,,,,,,
,,614f11b6fe832a304632a860,66daf5c51881c2a6aa220734,2024-09-06_15h30.31.838,mdp,2024.2.1,Win32,59.88023952,66d7945b1baad48e845df3ce,,,,,,,,,,,,,,,,,,,,,900.0458,900.0459,900.0469,901.1131,0,0,left,0.5357,,901.114,903.2983,1,0,right,903.2996,903.3003,,1,,1,903.3004,903.3005,903.3011,904.7994,0,42,42,42,1,0.8,0.2,0.6,0.4,,,,,,,,,,,,,,,1.6719,,0.8,0.2,0.6,0.4,0.4,0.6,0.8,0.2,1,0,,,,,,,,,,,,
,,614f11b6fe832a304632a860,66daf5c51881c2a6aa220734,2024-09-06_15h30.31.838,mdp,2024.2.1,Win32,59.88023952,66d7945b1baad48e845df3ce,,,,,,,,,,,,,,,,,,,,,904.7998,904.7998,904.801,905.9504,0,0,left,0.6172,,905.9515,908.1356,1,0,right,908.1367,908.1373,,0,,1,908.1374,908.1374,908.138,909.6367,0,43,43,43,1,0.8,0.2,0.6,0.4,,,,,,,,,,,,,,,1.6684,,0.8,0.2,0.6,0.4,0.4,0.6,0.8,0.2,1,0,,,,,,,,,,,,
,,614f11b6fe832a304632a860,66daf5c51881c2a6aa220734,2024-09-06_15h30.31.838,mdp,2024.2.1,Win32,59.88023952,66d7945b1baad48e845df3ce,,,,,,,,,,,,,,,,,,,,,909.6371,909.6371,909.6383,910.8544,0,0,left,0.701,,910.8553,912.756,1,0,right,912.7573,912.758,,0,,1,912.7581,912.7581,912.7587,914.2572,0,44,44,44,1,0.8,0.2,0.6,0.4,,,,,,,,,,,,,,,1.385,,0.8,0.2,0.6,0.4,0.4,0.6,0.8,0.2,1,0,,,,,,,,,,,,
,,614f11b6fe832a304632a860,66daf5c51881c2a6aa220734,2024-09-06_15h30.31.838,mdp,2024.2.1,Win32,59.88023952,66d7945b1baad48e845df3ce,,,,,,,,,,,,,,,,,,,,,914.2576,914.2576,914.2588,915.2418,0,0,left,0.4599,,915.243,917.3098,0,0,left,917.3109,917.3116,,1,,1,917.3116,917.3116,917.3122,918.8109,0,45,45,45,1,0.8,0.2,0.6,0.4,,,,,,,,,,,,,,,1.535,,0.4,0.6,0.8,0.2,0.4,0.6,0.8,0.2,1,0,,,,,,,,,,,,
,,614f11b6fe832a304632a860,66daf5c51881c2a6aa220734,2024-09-06_15h30.31.838,mdp,2024.2.1,Win32,59.88023952,66d7945b1baad48e845df3ce,,,,,,,,,,,,,,,,,,,,,918.8113,918.8113,918.8125,919.8119,0,1,left,0.4842,,919.8131,921.6134,1,0,right,921.6145,921.6151,,0,,1,921.6153,921.6153,921.6159,923.1146,0,46,46,46,1,0.8,0.2,0.6,0.4,,,,,,,,,,,,,,,1.2796,,0.4,0.6,0.8,0.2,0.4,0.6,0.8,0.2,1,0,,,,,,,,,,,,
,,614f11b6fe832a304632a860,66daf5c51881c2a6aa220734,2024-09-06_15h30.31.838,mdp,2024.2.1,Win32,59.88023952,66d7945b1baad48e845df3ce,,,,,,,,,,,,,,,,,,,,,923.1149,923.1149,923.116,924.1322,0,0,left,0.5073,,924.1332,926.017,0,1,left,926.0179,926.0184,,1,,0,926.0184,926.0184,926.0189,927.5181,0,47,47,47,1,0.8,0.2,0.6,0.4,,,,,,,,,,,,,,,1.3656,,0.4,0.6,0.8,0.2,0.4,0.6,0.8,0.2,1,0,,,,,,,,,,,,
,,614f11b6fe832a304632a860,66daf5c51881c2a6aa220734,2024-09-06_15h30.31.838,mdp,2024.2.1,Win32,59.88023952,66d7945b1baad48e845df3ce,,,,,,,,,,,,,,,,,,,,,927.5185,927.5185,927.5195,928.7025,0,0,left,0.655,,928.7035,931.0045,1,1,right,931.0055,931.0061,,0,,0,931.0062,931.0062,931.0067,932.5056,0,48,48,48,1,0.8,0.2,0.6,0.4,,,,,,,,,,,,,,,1.7851,,0.4,0.6,0.8,0.2,0.4,0.6,0.8,0.2,1,0,,,,,,,,,,,,
,,614f11b6fe832a304632a860,66daf5c51881c2a6aa220734,2024-09-06_15h30.31.838,mdp,2024.2.1,Win32,59.88023952,66d7945b1baad48e845df3ce,,,,,,,,,,,,,,,,,,,,,932.5059,932.5059,932.5071,933.6566,0,0,left,0.6366,,933.6575,935.4582,0,1,left,935.4594,935.4602,,0,,0,935.4602,935.4602,935.4608,936.9593,0,49,49,49,1,0.8,0.2,0.6,0.4,,,,,,,,,,,,,,,1.2854,,0.4,0.6,0.8,0.2,0.4,0.6,0.8,0.2,1,0,,,,,,,,,,,,
,,614f11b6fe832a304632a860,66daf5c51881c2a6aa220734,2024-09-06_15h30.31.838,mdp,2024.2.1,Win32,59.88023952,66d7945b1baad48e845df3ce,,,,,,,,,,,,,,,,,,,,,,,,,,,,,,,,,,,,,,,,,,,,,,,,,,,,,,,,936.9594,995.4741,0,1,1,2,1,imgs/giraffe.png,imgs/squirrel.png,imgs/rabbit.png,imgs/goat.png,imgs/lion.png,,,,,,,,,,,,,,,,,,,,,,,,
,,614f11b6fe832a304632a860,66daf5c51881c2a6aa220734,2024-09-06_15h30.31.838,mdp,2024.2.1,Win32,59.88023952,66d7945b1baad48e845df3ce,,,,,,,,,,,,,,3,seqs/st3seq9.csv,995.4823,1002.0796,space,6.0721,,1002.0918,1002.0918,1002.0925,1005.7661,1,1,right,3.1529,,1005.7742,1007.4508,1,0,right,1007.4517,1010.57,0,0,left,1,1010.57,1010.57,1010.5775,1012.0712,0,0,0,0,1,0.2,0.8,0.6,0.4,,,,,,,,,,,,,,,1.1645,,0.4,0.6,0.4,0.6,0.2,0.8,0.6,0.4,,,2.5994,,0.4,0.6,0.6,0.4,0.6,0.4,0.8,0.2,1,0
,,614f11b6fe832a304632a860,66daf5c51881c2a6aa220734,2024-09-06_15h30.31.838,mdp,2024.2.1,Win32,59.88023952,66d7945b1baad48e845df3ce,,,,,,,,,,,,,,,,,,,,,1012.0717,1012.0717,1012.0728,1014.0896,1,1,right,1.4849,,1014.0907,1016.1247,1,1,right,1016.1259,1018.3931,1,0,right,1,1018.3932,1018.3932,1018.394,1019.8944,0,1,1,1,1,0.2,0.8,0.6,0.4,,,,,,,,,,,,,,,1.5184,,0.4,0.6,0.4,0.6,0.6,0.4,0.2,0.8,,,1.75,,0.4,0.6,0.6,0.4,0.6,0.4,0.8,0.2,1,0
,,614f11b6fe832a304632a860,66daf5c51881c2a6aa220734,2024-09-06_15h30.31.838,mdp,2024.2.1,Win32,59.88023952,66d7945b1baad48e845df3ce,,,,,,,,,,,,,,,,,,,,,1019.8947,1019.8947,1019.8958,1021.529,1,1,right,1.1039,,1021.5298,1023.9978,1,0,right,1023.9989,1026.6332,0,1,left,0,1026.6333,1026.6333,1026.6341,1028.1345,0,2,2,2,1,0.2,0.8,0.6,0.4,,,,,,,,,,,,,,,1.9521,,0.4,0.6,0.4,0.6,0.6,0.4,0.2,0.8,,,2.1166,,0.4,0.6,0.6,0.4,0.6,0.4,0.8,0.2,1,0
,,614f11b6fe832a304632a860,66daf5c51881c2a6aa220734,2024-09-06_15h30.31.838,mdp,2024.2.1,Win32,59.88023952,66d7945b1baad48e845df3ce,,,,,,,,,,,,,,,,,,,,,1028.1348,1028.1348,1028.1359,1029.1352,1,0,right,0.4717,,1029.1362,1031.1536,1,0,right,1031.1545,1033.1554,1,0,right,1,1033.1555,1033.1555,1033.1565,1034.6564,0,3,3,3,1,0.2,0.8,0.6,0.4,,,,,,,,,,,,,,,1.497,,0.4,0.6,0.4,0.6,0.6,0.4,0.2,0.8,,,1.4933,,0.4,0.6,0.6,0.4,0.6,0.4,0.8,0.2,1,0
,,614f11b6fe832a304632a860,66daf5c51881c2a6aa220734,2024-09-06_15h30.31.838,mdp,2024.2.1,Win32,59.88023952,66d7945b1baad48e845df3ce,,,,,,,,,,,,,,,,,,,,,1034.6569,1034.6569,1034.658,1035.7575,1,0,right,0.5676,,1035.7586,1037.242,1,0,right,1037.2427,1038.4098,1,0,right,1,1038.4098,1038.4098,1038.4109,1039.9108,0,4,4,4,1,0.2,0.8,0.6,0.4,,,,,,,,,,,,,,,0.9674,,0.4,0.6,0.4,0.6,0.6,0.4,0.2,0.8,,,0.651,,0.4,0.6,0.6,0.4,0.6,0.4,0.8,0.2,1,0
,,614f11b6fe832a304632a860,66daf5c51881c2a6aa220734,2024-09-06_15h30.31.838,mdp,2024.2.1,Win32,59.88023952,66d7945b1baad48e845df3ce,,,,,,,,,,,,,,,,,,,,,1039.9113,1039.9114,1039.9123,1040.5279,1,0,right,0.0838,,1040.5287,1041.8124,1,1,right,1041.8132,1043.5639,1,0,right,1,1043.5639,1043.5639,1043.5647,1045.065,0,5,5,5,1,0.2,0.8,0.6,0.4,,,,,,,,,,,,,,,0.7678,,0.4,0.6,0.4,0.6,0.6,0.4,0.2,0.8,,,1.2297,,0.4,0.6,0.6,0.4,0.6,0.4,0.8,0.2,1,0
,,614f11b6fe832a304632a860,66daf5c51881c2a6aa220734,2024-09-06_15h30.31.838,mdp,2024.2.1,Win32,59.88023952,66d7945b1baad48e845df3ce,,,,,,,,,,,,,,,,,,,,,1045.0655,1045.0655,1045.0665,1045.9992,1,1,right,0.4006,,1046.0005,1047.7006,1,0,right,1047.7015,1050.0692,0,0,left,1,1050.0693,1050.0694,1050.0705,1051.5704,0,6,6,6,1,0.2,0.8,0.6,0.4,,,,,,,,,,,,,,,1.18,,0.4,0.6,0.4,0.6,0.6,0.4,0.2,0.8,,,1.8472,,0.4,0.6,0.6,0.4,0.6,0.4,0.8,0.2,1,0
,,614f11b6fe832a304632a860,66daf5c51881c2a6aa220734,2024-09-06_15h30.31.838,mdp,2024.2.1,Win32,59.88023952,66d7945b1baad48e845df3ce,,,,,,,,,,,,,,,,,,,,,1051.5709,1051.5709,1051.572,1052.6547,1,1,right,0.5558,,1052.6555,1053.9392,1,1,right,1053.9404,1055.3069,1,0,right,1,1055.3071,1055.3071,1055.3079,1056.808,0,7,7,7,1,0.2,0.8,0.6,0.4,,,,,,,,,,,,,,,0.7679,,0.4,0.6,0.4,0.6,0.6,0.4,0.2,0.8,,,0.8553,,0.4,0.6,0.6,0.4,0.6,0.4,0.8,0.2,1,0
,,614f11b6fe832a304632a860,66daf5c51881c2a6aa220734,2024-09-06_15h30.31.838,mdp,2024.2.1,Win32,59.88023952,66d7945b1baad48e845df3ce,,,,,,,,,,,,,,,,,,,,,1056.8084,1056.8084,1056.8092,1057.8923,1,0,right,0.5507,,1057.8932,1059.1101,1,0,right,1059.1112,1060.361,0,0,left,1,1060.3611,1060.3611,1060.3619,1061.8622,0,8,8,8,1,0.2,0.8,0.6,0.4,,,,,,,,,,,,,,,0.7029,,0.4,0.6,0.4,0.6,0.6,0.4,0.2,0.8,,,0.73,,0.4,0.6,0.6,0.4,0.6,0.4,0.8,0.2,1,0
,,614f11b6fe832a304632a860,66daf5c51881c2a6aa220734,2024-09-06_15h30.31.838,mdp,2024.2.1,Win32,59.88023952,66d7945b1baad48e845df3ce,,,,,,,,,,,,,,,,,,,,,1061.8627,1061.8627,1061.8637,1063.3468,1,0,right,0.9512,,1063.3477,1064.5479,1,1,right,1064.5491,1065.7821,1,0,right,1,1065.7822,1065.7822,1065.7831,1067.2833,0,9,9,9,1,0.2,0.8,0.6,0.4,,,,,,,,,,,,,,,0.6924,,0.4,0.6,0.4,0.6,0.6,0.4,0.2,0.8,,,0.7127,,0.4,0.6,0.6,0.4,0.6,0.4,0.8,0.2,1,0
,,614f11b6fe832a304632a860,66daf5c51881c2a6aa220734,2024-09-06_15h30.31.838,mdp,2024.2.1,Win32,59.88023952,66d7945b1baad48e845df3ce,,,,,,,,,,,,,,,,,,,,,1067.2838,1067.2838,1067.2849,1068.6345,1,1,right,0.8196,,1068.6357,1069.8688,1,1,right,1069.8697,1071.0366,1,0,right,1,1071.0366,1071.0366,1071.0377,1072.5376,0,10,10,10,1,0.2,0.8,0.6,0.4,,,,,,,,,,,,,,,0.7132,,0.4,0.6,0.4,0.6,0.6,0.4,0.2,0.8,,,0.6512,,0.4,0.6,0.6,0.4,0.2,0.8,0.6,0.4,1,0
,,614f11b6fe832a304632a860,66daf5c51881c2a6aa220734,2024-09-06_15h30.31.838,mdp,2024.2.1,Win32,59.88023952,66d7945b1baad48e845df3ce,,,,,,,,,,,,,,,,,,,,,1072.538,1072.538,1072.5388,1073.4719,1,1,right,0.4174,,1073.473,1074.456,1,1,right,1074.4568,1075.5401,1,0,right,1,1075.5402,1075.5402,1075.5411,1077.0414,0,11,11,11,1,0.2,0.8,0.6,0.4,,,,,,,,,,,,,,,0.4716,,0.4,0.6,0.4,0.6,0.6,0.4,0.2,0.8,,,0.5676,,0.4,0.6,0.6,0.4,0.2,0.8,0.6,0.4,1,0
,,614f11b6fe832a304632a860,66daf5c51881c2a6aa220734,2024-09-06_15h30.31.838,mdp,2024.2.1,Win32,59.88023952,66d7945b1baad48e845df3ce,,,,,,,,,,,,,,,,,,,,,1077.0419,1077.0419,1077.0429,1078.0256,1,1,right,0.4509,,1078.0266,1079.0264,1,1,right,1079.0274,1080.1274,1,1,right,0,1080.1274,1080.1274,1080.1285,1081.6285,0,12,12,12,1,0.2,0.8,0.6,0.4,,,,,,,,,,,,,,,0.4863,,0.4,0.6,0.4,0.6,0.6,0.4,0.2,0.8,,,0.584,,0.4,0.6,0.6,0.4,0.2,0.8,0.6,0.4,1,0
,,614f11b6fe832a304632a860,66daf5c51881c2a6aa220734,2024-09-06_15h30.31.838,mdp,2024.2.1,Win32,59.88023952,66d7945b1baad48e845df3ce,,,,,,,,,,,,,,,,,,,,,1081.629,1081.629,1081.6301,1082.596,1,1,right,0.4345,,1082.5971,1083.7637,1,0,right,1083.7646,1085.9155,0,0,left,1,1085.9156,1085.9156,1085.9167,1087.4166,0,13,13,13,1,0.2,0.8,0.6,0.4,,,,,,,,,,,,,,,0.651,,0.6,0.4,0.6,0.4,0.6,0.4,0.2,0.8,,,1.6392,,0.4,0.6,0.6,0.4,0.2,0.8,0.6,0.4,1,0
,,614f11b6fe832a304632a860,66daf5c51881c2a6aa220734,2024-09-06_15h30.31.838,mdp,2024.2.1,Win32,59.88023952,66d7945b1baad48e845df3ce,,,,,,,,,,,,,,,,,,,,,1087.417,1087.417,1087.4182,1088.3674,1,0,right,0.422,,1088.3683,1089.7519,1,0,right,1089.7529,1091.4366,0,0,left,1,1091.4367,1091.4367,1091.4375,1092.9378,0,14,14,14,1,0.2,0.8,0.6,0.4,,,,,,,,,,,,,,,0.8683,,0.6,0.4,0.6,0.4,0.6,0.4,0.2,0.8,,,1.168,,0.4,0.6,0.6,0.4,0.2,0.8,0.6,0.4,1,0
,,614f11b6fe832a304632a860,66daf5c51881c2a6aa220734,2024-09-06_15h30.31.838,mdp,2024.2.1,Win32,59.88023952,66d7945b1baad48e845df3ce,,,,,,,,,,,,,,,,,,,,,1092.9383,1092.9383,1092.9393,1093.972,1,0,right,0.5012,,1093.973,1095.1398,1,0,right,1095.141,1097.6585,0,1,left,0,1097.6585,1097.6585,1097.6662,1099.1595,0,15,15,15,1,0.2,0.8,0.6,0.4,,,,,,,,,,,,,,,0.651,,0.6,0.4,0.6,0.4,0.6,0.4,0.2,0.8,,,2.0017,,0.4,0.6,0.6,0.4,0.6,0.4,0.8,0.2,1,0
,,614f11b6fe832a304632a860,66daf5c51881c2a6aa220734,2024-09-06_15h30.31.838,mdp,2024.2.1,Win32,59.88023952,66d7945b1baad48e845df3ce,,,,,,,,,,,,,,,,,,,,,1099.1599,1099.16,1099.1608,1101.6117,1,0,right,1.9364,,1101.6193,1102.7626,1,0,right,1102.7638,1104.4807,1,0,right,1,1104.4808,1104.4808,1104.4819,1105.9819,0,16,16,16,1,0.2,0.8,0.6,0.4,,,,,,,,,,,,,,,0.6361,,0.6,0.4,0.6,0.4,0.6,0.4,0.2,0.8,,,1.2049,,0.4,0.6,0.6,0.4,0.6,0.4,0.8,0.2,1,0
,,614f11b6fe832a304632a860,66daf5c51881c2a6aa220734,2024-09-06_15h30.31.838,mdp,2024.2.1,Win32,59.88023952,66d7945b1baad48e845df3ce,,,,,,,,,,,,,,,,,,,,,1105.9824,1105.9824,1105.9834,1107.0997,1,1,right,0.5844,,1107.1008,1108.6843,1,1,right,1108.6854,1110.3356,0,1,left,0,1110.3357,1110.3357,1110.3369,1111.8367,0,17,17,17,1,0.2,0.8,0.6,0.4,,,,,,,,,,,,,,,1.0715,,0.6,0.4,0.6,0.4,0.6,0.4,0.2,0.8,,,1.1302,,0.4,0.6,0.6,0.4,0.6,0.4,0.8,0.2,1,0
,,614f11b6fe832a304632a860,66daf5c51881c2a6aa220734,2024-09-06_15h30.31.838,mdp,2024.2.1,Win32,59.88023952,66d7945b1baad48e845df3ce,,,,,,,,,,,,,,,,,,,,,1111.8372,1111.8372,1111.8383,1112.788,1,1,right,0.4264,,1112.7891,1114.2055,1,1,right,1114.2067,1115.4733,1,0,right,1,1115.4733,1115.4733,1115.4745,1116.9743,0,18,18,18,1,0.2,0.8,0.6,0.4,,,,,,,,,,,,,,,0.8914,,0.6,0.4,0.6,0.4,0.6,0.4,0.2,0.8,,,0.7544,,0.4,0.6,0.6,0.4,0.6,0.4,0.8,0.2,1,0
,,614f11b6fe832a304632a860,66daf5c51881c2a6aa220734,2024-09-06_15h30.31.838,mdp,2024.2.1,Win32,59.88023952,66d7945b1baad48e845df3ce,,,,,,,,,,,,,,,,,,,,,1116.9748,1116.9748,1116.9759,1117.9752,1,0,right,0.4729,,1117.9761,1119.0428,1,1,right,1119.044,1120.077,1,0,right,1,1120.0771,1120.0771,1120.0781,1121.5781,0,19,19,19,1,0.2,0.8,0.6,0.4,,,,,,,,,,,,,,,0.5467,,0.6,0.4,0.6,0.4,0.6,0.4,0.2,0.8,,,0.5175,,0.4,0.6,0.6,0.4,0.4,0.6,0.2,0.8,1,0
,,614f11b6fe832a304632a860,66daf5c51881c2a6aa220734,2024-09-06_15h30.31.838,mdp,2024.2.1,Win32,59.88023952,66d7945b1baad48e845df3ce,,,,,,,,,,,,,,,,,,,,,1121.5786,1121.5786,1121.5797,1122.5957,1,0,right,0.4849,,1122.5965,1124.2971,1,0,right,1124.298,1126.2319,1,1,right,0,1126.2321,1126.2321,1126.2329,1127.7332,0,20,20,20,1,0.2,0.8,0.6,0.4,,,,,,,,,,,,,,,1.1848,,0.6,0.4,0.6,0.4,0.6,0.4,0.2,0.8,,,1.4181,,0.4,0.6,0.6,0.4,0.4,0.6,0.2,0.8,1,0
,,614f11b6fe832a304632a860,66daf5c51881c2a6aa220734,2024-09-06_15h30.31.838,mdp,2024.2.1,Win32,59.88023952,66d7945b1baad48e845df3ce,,,,,,,,,,,,,,,,,,,,,1127.7334,1127.7334,1127.7344,1128.634,1,1,right,0.3842,,1128.6352,1129.568,1,1,right,1129.569,1130.519,1,1,right,0,1130.519,1130.519,1130.5201,1132.02,0,21,21,21,1,0.2,0.8,0.6,0.4,,,,,,,,,,,,,,,0.4171,,0.6,0.4,0.6,0.4,0.6,0.4,0.2,0.8,,,0.4355,,0.4,0.6,0.6,0.4,0.4,0.6,0.2,0.8,1,0
,,614f11b6fe832a304632a860,66daf5c51881c2a6aa220734,2024-09-06_15h30.31.838,mdp,2024.2.1,Win32,59.88023952,66d7945b1baad48e845df3ce,,,,,,,,,,,,,,,,,,,,,1132.0205,1132.0205,1132.0216,1132.9208,0,1,left,0.3673,,1132.9219,1134.372,0,1,left,1134.3729,1136.457,0,1,left,0,1136.4572,1136.4573,1136.4585,1137.9583,0,22,22,22,1,0.2,0.8,0.6,0.4,,,,,,,,,,,,,,,0.9354,,0.6,0.4,0.6,0.4,0.6,0.4,0.2,0.8,,,1.5683,,0.6,0.4,0.8,0.2,0.4,0.6,0.2,0.8,1,0
,,614f11b6fe832a304632a860,66daf5c51881c2a6aa220734,2024-09-06_15h30.31.838,mdp,2024.2.1,Win32,59.88023952,66d7945b1baad48e845df3ce,,,,,,,,,,,,,,,,,,,,,1137.9587,1137.9588,1137.96,1138.8758,0,1,left,0.3842,,1138.877,1140.8107,0,0,left,1140.8118,1142.2119,1,1,right,0,1142.2119,1142.2119,1142.2128,1143.713,0,23,23,23,1,0.2,0.8,0.6,0.4,,,,,,,,,,,,,,,1.4203,,0.6,0.4,0.6,0.4,0.6,0.4,0.2,0.8,,,0.88,,0.6,0.4,0.8,0.2,0.4,0.6,0.2,0.8,1,0
,,614f11b6fe832a304632a860,66daf5c51881c2a6aa220734,2024-09-06_15h30.31.838,mdp,2024.2.1,Win32,59.88023952,66d7945b1baad48e845df3ce,,,,,,,,,,,,,,,,,,,,,1143.7134,1143.7134,1143.7143,1144.7138,1,0,right,0.4842,,1144.7148,1146.1984,1,0,right,1146.1995,1148.0166,0,0,left,1,1148.0167,1148.0167,1148.0177,1149.5179,0,24,24,24,1,0.2,0.8,0.6,0.4,,,,,,,,,,,,,,,0.9628,,0.6,0.4,0.6,0.4,0.6,0.4,0.2,0.8,,,1.3015,,0.6,0.4,0.8,0.2,0.4,0.6,0.2,0.8,1,0
,,614f11b6fe832a304632a860,66daf5c51881c2a6aa220734,2024-09-06_15h30.31.838,mdp,2024.2.1,Win32,59.88023952,66d7945b1baad48e845df3ce,,,,,,,,,,,,,,,,,,,,,1149.5183,1149.5183,1149.5196,1150.7023,1,1,right,0.6575,,1150.7035,1153.5545,0,0,left,1153.5554,1157.0241,1,1,right,0,1157.0241,1157.0241,1157.0314,1158.5253,0,25,25,25,1,0.2,0.8,0.6,0.4,,,,,,,,,,,,,,,2.333,,0.6,0.4,0.6,0.4,0.6,0.4,0.2,0.8,,,2.9577,,0.6,0.4,0.8,0.2,0.4,0.6,0.2,0.8,1,0
,,614f11b6fe832a304632a860,66daf5c51881c2a6aa220734,2024-09-06_15h30.31.838,mdp,2024.2.1,Win32,59.88023952,66d7945b1baad48e845df3ce,,,,,,,,,,,,,,,,,,,,,1158.5259,1158.5259,1158.527,1160.0267,0,0,left,0.9679,,1160.0278,1161.461,1,0,right,1161.462,1163.7463,0,1,left,0,1163.7464,1163.7464,1163.754,1165.2474,0,26,26,26,1,0.2,0.8,0.6,0.4,,,,,,,,,,,,,,,0.9138,,0.6,0.4,0.6,0.4,0.6,0.4,0.2,0.8,,,1.7683,,0.6,0.4,0.8,0.2,0.4,0.6,0.2,0.8,1,0
,,614f11b6fe832a304632a860,66daf5c51881c2a6aa220734,2024-09-06_15h30.31.838,mdp,2024.2.1,Win32,59.88023952,66d7945b1baad48e845df3ce,,,,,,,,,,,,,,,,,,,,,1165.2479,1165.2479,1165.2489,1166.8655,0,1,left,1.0883,,1166.8664,1168.1166,0,1,left,1168.1177,1169.2508,0,0,left,1,1169.2509,1169.2509,1169.2519,1170.752,0,27,27,27,1,0.2,0.8,0.6,0.4,,,,,,,,,,,,,,,0.729,,0.6,0.4,0.6,0.4,0.6,0.4,0.2,0.8,,,0.6133,,0.4,0.6,0.6,0.4,0.4,0.6,0.2,0.8,1,0
,,614f11b6fe832a304632a860,66daf5c51881c2a6aa220734,2024-09-06_15h30.31.838,mdp,2024.2.1,Win32,59.88023952,66d7945b1baad48e845df3ce,,,,,,,,,,,,,,,,,,,,,1170.7525,1170.7525,1170.7535,1171.9031,1,1,right,0.6234,,1171.9042,1173.0039,1,1,right,1173.005,1174.038,1,1,right,0,1174.0381,1174.0381,1174.039,1175.5392,0,28,28,28,1,0.2,0.8,0.6,0.4,,,,,,,,,,,,,,,0.5842,,0.6,0.4,0.6,0.4,0.6,0.4,0.2,0.8,,,0.5174,,0.4,0.6,0.6,0.4,0.4,0.6,0.2,0.8,1,0
,,614f11b6fe832a304632a860,66daf5c51881c2a6aa220734,2024-09-06_15h30.31.838,mdp,2024.2.1,Win32,59.88023952,66d7945b1baad48e845df3ce,,,,,,,,,,,,,,,,,,,,,1175.5396,1175.5396,1175.5404,1176.3065,1,0,right,0.2532,,1176.3076,1177.6076,1,0,right,1177.6086,1178.8754,0,1,left,0,1178.8754,1178.8754,1178.8765,1180.3766,0,29,29,29,1,0.2,0.8,0.6,0.4,,,,,,,,,,,,,,,0.7797,,0.6,0.4,0.6,0.4,0.6,0.4,0.2,0.8,,,0.7482,,0.4,0.6,0.6,0.4,0.4,0.6,0.2,0.8,1,0
,,614f11b6fe832a304632a860,66daf5c51881c2a6aa220734,2024-09-06_15h30.31.838,mdp,2024.2.1,Win32,59.88023952,66d7945b1baad48e845df3ce,,,,,,,,,,,,,,,,,,,,,1180.377,1180.377,1180.3781,1181.6443,1,1,right,0.7351,,1181.6452,1182.9455,1,1,right,1182.9466,1183.8963,1,1,right,0,1183.8964,1183.8964,1183.8973,1185.3974,0,30,30,30,1,0.2,0.8,0.6,0.4,,,,,,,,,,,,,,,0.7837,,0.6,0.4,0.6,0.4,0.6,0.4,0.2,0.8,,,0.4298,,0.4,0.6,0.6,0.4,0.4,0.6,0.2,0.8,1,0
,,614f11b6fe832a304632a860,66daf5c51881c2a6aa220734,2024-09-06_15h30.31.838,mdp,2024.2.1,Win32,59.88023952,66d7945b1baad48e845df3ce,,,,,,,,,,,,,,,,,,,,,1185.3979,1185.3979,1185.3989,1186.3315,1,0,right,0.4026,,1186.3324,1187.6326,1,0,right,1187.6336,1189.284,0,1,left,0,1189.2841,1189.2841,1189.2848,1190.7852,0,31,31,31,1,0.2,0.8,0.6,0.4,,,,,,,,,,,,,,,0.7798,,0.6,0.4,0.6,0.4,0.6,0.4,0.2,0.8,,,1.1302,,0.6,0.4,0.2,0.8,0.4,0.6,0.2,0.8,1,0
,,614f11b6fe832a304632a860,66daf5c51881c2a6aa220734,2024-09-06_15h30.31.838,mdp,2024.2.1,Win32,59.88023952,66d7945b1baad48e845df3ce,,,,,,,,,,,,,,,,,,,,,1190.7854,1190.7854,1190.7863,1191.6693,1,1,right,0.3755,,1191.6705,1192.6702,1,1,right,1192.6714,1193.621,1,1,right,0,1193.6211,1193.6211,1193.6221,1195.1221,0,32,32,32,1,0.2,0.8,0.6,0.4,,,,,,,,,,,,,,,0.4871,,0.6,0.4,0.6,0.4,0.6,0.4,0.2,0.8,,,0.4382,,0.6,0.4,0.2,0.8,0.4,0.6,0.2,0.8,1,0
,,614f11b6fe832a304632a860,66daf5c51881c2a6aa220734,2024-09-06_15h30.31.838,mdp,2024.2.1,Win32,59.88023952,66d7945b1baad48e845df3ce,,,,,,,,,,,,,,,,,,,,,1195.1225,1195.1225,1195.1236,1195.9895,1,1,right,0.3418,,1195.9905,1197.1404,1,1,right,1197.1414,1198.6917,0,0,left,1,1198.6918,1198.6918,1198.6929,1200.1929,0,33,33,33,1,0.2,0.8,0.6,0.4,,,,,,,,,,,,,,,0.6351,,0.6,0.4,0.6,0.4,0.6,0.4,0.2,0.8,,,1.0345,,0.6,0.4,0.2,0.8,0.2,0.8,0.6,0.4,1,0
,,614f11b6fe832a304632a860,66daf5c51881c2a6aa220734,2024-09-06_15h30.31.838,mdp,2024.2.1,Win32,59.88023952,66d7945b1baad48e845df3ce,,,,,,,,,,,,,,,,,,,,,1200.1934,1200.1934,1200.1945,1201.1771,1,0,right,0.4509,,1201.1781,1202.4782,1,0,right,1202.4794,1203.5624,0,1,left,0,1203.5625,1203.5625,1203.5635,1205.0636,0,34,34,34,1,0.2,0.8,0.6,0.4,,,,,,,,,,,,,,,0.787,,0.6,0.4,0.6,0.4,0.6,0.4,0.2,0.8,,,0.5632,,0.6,0.4,0.2,0.8,0.2,0.8,0.6,0.4,1,0
,,614f11b6fe832a304632a860,66daf5c51881c2a6aa220734,2024-09-06_15h30.31.838,mdp,2024.2.1,Win32,59.88023952,66d7945b1baad48e845df3ce,,,,,,,,,,,,,,,,,,,,,1205.0641,1205.0641,1205.0651,1206.4648,1,1,right,0.8676,,1206.4657,1207.6824,1,1,right,1207.6834,1209.4673,1,0,right,1,1209.4674,1209.4674,1209.4685,1210.9685,0,35,35,35,1,0.2,0.8,0.6,0.4,,,,,,,,,,,,,,,0.6966,,0.6,0.4,0.6,0.4,0.6,0.4,0.2,0.8,,,1.2639,,0.6,0.4,0.2,0.8,0.2,0.8,0.6,0.4,1,0
,,614f11b6fe832a304632a860,66daf5c51881c2a6aa220734,2024-09-06_15h30.31.838,mdp,2024.2.1,Win32,59.88023952,66d7945b1baad48e845df3ce,,,,,,,,,,,,,,,,,,,,,1210.969,1210.969,1210.9702,1211.8693,1,0,right,0.3757,,1211.8704,1212.9201,1,0,right,1212.921,1213.871,1,0,right,1,1213.871,1213.871,1213.8721,1215.3721,0,36,36,36,1,0.8,0.2,0.4,0.6,,,,,,,,,,,,,,,0.53,,0.6,0.4,0.6,0.4,0.6,0.4,0.2,0.8,,,0.4291,,0.6,0.4,0.2,0.8,0.2,0.8,0.6,0.4,1,0
,,614f11b6fe832a304632a860,66daf5c51881c2a6aa220734,2024-09-06_15h30.31.838,mdp,2024.2.1,Win32,59.88023952,66d7945b1baad48e845df3ce,,,,,,,,,,,,,,,,,,,,,1215.3726,1215.3726,1215.3737,1215.9227,1,0,right,0.02,,1215.9236,1217.107,1,0,right,1217.1081,1218.5081,1,1,right,0,1218.5082,1218.5082,1218.5092,1220.0093,0,37,37,37,1,0.8,0.2,0.4,0.6,,,,,,,,,,,,,,,0.6674,,0.6,0.4,0.6,0.4,0.6,0.4,0.2,0.8,,,0.8847,,0.6,0.4,0.2,0.8,0.2,0.8,0.6,0.4,1,0
,,614f11b6fe832a304632a860,66daf5c51881c2a6aa220734,2024-09-06_15h30.31.838,mdp,2024.2.1,Win32,59.88023952,66d7945b1baad48e845df3ce,,,,,,,,,,,,,,,,,,,,,1220.0097,1220.0097,1220.0108,1220.6432,1,1,right,0.1028,,1220.6444,1221.6607,1,0,right,1221.6619,1222.7282,0,1,left,0,1222.7282,1222.7282,1222.7292,1224.2295,0,38,38,38,1,0.8,0.2,0.4,0.6,,,,,,,,,,,,,,,0.4969,,0.6,0.4,0.6,0.4,0.6,0.4,0.2,0.8,,,0.5562,,0.6,0.4,0.2,0.8,0.2,0.8,0.6,0.4,1,0
,,614f11b6fe832a304632a860,66daf5c51881c2a6aa220734,2024-09-06_15h30.31.838,mdp,2024.2.1,Win32,59.88023952,66d7945b1baad48e845df3ce,,,,,,,,,,,,,,,,,,,,,1224.2299,1224.2299,1224.2309,1225.2471,1,1,right,0.4908,,1225.2483,1226.9985,1,1,right,1226.9997,1228.3997,1,1,right,0,1228.3998,1228.3998,1228.4008,1229.9008,0,39,39,39,1,0.8,0.2,0.4,0.6,,,,,,,,,,,,,,,1.2348,,0.6,0.4,0.6,0.4,0.6,0.4,0.2,0.8,,,0.88,,0.6,0.4,0.2,0.8,0.2,0.8,0.6,0.4,1,0
,,614f11b6fe832a304632a860,66daf5c51881c2a6aa220734,2024-09-06_15h30.31.838,mdp,2024.2.1,Win32,59.88023952,66d7945b1baad48e845df3ce,,,,,,,,,,,,,,,,,,,,,1229.9012,1229.9012,1229.9023,1231.5189,1,0,right,1.0914,,1231.5198,1233.1535,0,0,left,1233.1544,1235.7725,0,0,left,1,1235.7726,1235.7726,1235.7804,1237.2735,0,40,40,40,1,0.8,0.2,0.4,0.6,,,,,,,,,,,,,,,1.1133,,0.6,0.4,0.6,0.4,0.6,0.4,0.2,0.8,,,2.0988,,0.6,0.4,0.2,0.8,0.2,0.8,0.6,0.4,1,0
,,614f11b6fe832a304632a860,66daf5c51881c2a6aa220734,2024-09-06_15h30.31.838,mdp,2024.2.1,Win32,59.88023952,66d7945b1baad48e845df3ce,,,,,,,,,,,,,,,,,,,,,1237.2741,1237.2741,1237.2753,1238.2743,1,1,right,0.4708,,1238.2754,1240.5597,1,1,right,1240.5609,1241.9441,1,1,right,0,1241.9442,1241.9442,1241.9452,1243.4452,0,41,41,41,1,0.8,0.2,0.4,0.6,,,,,,,,,,,,,,,1.7705,,0.2,0.8,0.8,0.2,0.6,0.4,0.2,0.8,,,0.8634,,0.6,0.4,0.2,0.8,0.2,0.8,0.6,0.4,1,0
,,614f11b6fe832a304632a860,66daf5c51881c2a6aa220734,2024-09-06_15h30.31.838,mdp,2024.2.1,Win32,59.88023952,66d7945b1baad48e845df3ce,,,,,,,,,,,,,,,,,,,,,1243.4455,1243.4455,1243.4464,1244.2628,0,0,left,0.3081,,1244.2639,1245.4471,0,1,left,1245.4482,1246.5812,0,1,left,0,1246.5813,1246.5813,1246.5821,1248.0825,0,42,42,42,1,0.8,0.2,0.4,0.6,,,,,,,,,,,,,,,0.6697,,0.4,0.6,0.4,0.6,0.6,0.4,0.2,0.8,,,0.6177,,0.6,0.4,0.2,0.8,0.2,0.8,0.6,0.4,1,0
,,614f11b6fe832a304632a860,66daf5c51881c2a6aa220734,2024-09-06_15h30.31.838,mdp,2024.2.1,Win32,59.88023952,66d7945b1baad48e845df3ce,,,,,,,,,,,,,,,,,,,,,1248.0829,1248.0829,1248.0839,1249.2168,0,0,left,0.6058,,1249.2179,1250.1676,0,1,left,1250.1688,1251.1351,1,0,right,1,1251.1351,1251.1351,1251.1362,1252.6362,0,43,43,43,1,0.8,0.2,0.4,0.6,,,,,,,,,,,,,,,0.4344,,0.4,0.6,0.4,0.6,0.6,0.4,0.2,0.8,,,0.4575,,0.6,0.4,0.2,0.8,0.2,0.8,0.6,0.4,1,0
,,614f11b6fe832a304632a860,66daf5c51881c2a6aa220734,2024-09-06_15h30.31.838,mdp,2024.2.1,Win32,59.88023952,66d7945b1baad48e845df3ce,,,,,,,,,,,,,,,,,,,,,1252.6366,1252.6366,1252.6377,1253.6705,0,0,left,0.5082,,1253.6716,1254.6546,0,1,left,1254.6558,1255.6054,1,1,right,0,1255.6055,1255.6055,1255.6065,1257.1066,0,44,44,44,1,0.8,0.2,0.4,0.6,,,,,,,,,,,,,,,0.4674,,0.4,0.6,0.4,0.6,0.6,0.4,0.2,0.8,,,0.4425,,0.6,0.4,0.2,0.8,0.2,0.8,0.6,0.4,1,0
,,614f11b6fe832a304632a860,66daf5c51881c2a6aa220734,2024-09-06_15h30.31.838,mdp,2024.2.1,Win32,59.88023952,66d7945b1baad48e845df3ce,,,,,,,,,,,,,,,,,,,,,1257.1069,1257.1069,1257.1081,1257.9739,0,0,left,0.334,,1257.9748,1258.8748,0,0,left,1258.8759,1259.8755,0,1,left,0,1259.8756,1259.8756,1259.8767,1261.3767,0,45,45,45,1,0.8,0.2,0.4,0.6,,,,,,,,,,,,,,,0.3841,,0.4,0.6,0.4,0.6,0.6,0.4,0.2,0.8,,,0.4794,,0.6,0.4,0.2,0.8,0.2,0.8,0.6,0.4,1,0
,,614f11b6fe832a304632a860,66daf5c51881c2a6aa220734,2024-09-06_15h30.31.838,mdp,2024.2.1,Win32,59.88023952,66d7945b1baad48e845df3ce,,,,,,,,,,,,,,,,,,,,,1261.3772,1261.3772,1261.3783,1261.9272,1,0,right,0.0171,,1261.9281,1262.8614,1,0,right,1262.8625,1264.2124,1,1,right,0,1264.2125,1264.2125,1264.2133,1265.7136,0,46,46,46,1,0.8,0.2,0.4,0.6,,,,,,,,,,,,,,,0.4175,,0.4,0.6,0.4,0.6,0.6,0.4,0.2,0.8,,,0.8362,,0.6,0.4,0.2,0.8,0.2,0.8,0.6,0.4,1,0
,,614f11b6fe832a304632a860,66daf5c51881c2a6aa220734,2024-09-06_15h30.31.838,mdp,2024.2.1,Win32,59.88023952,66d7945b1baad48e845df3ce,,,,,,,,,,,,,,,,,,,,,1265.7139,1265.7139,1265.7147,1266.8646,1,1,right,0.6342,,1266.8657,1267.8988,0,0,left,1267.8999,1269.7003,1,1,right,0,1269.7003,1269.7003,1269.7014,1271.2015,0,47,47,47,1,0.8,0.2,0.4,0.6,,,,,,,,,,,,,,,0.5166,,0.8,0.2,0.2,0.8,0.6,0.4,0.2,0.8,,,1.2865,,0.6,0.4,0.2,0.8,0.2,0.8,0.6,0.4,1,0
,,614f11b6fe832a304632a860,66daf5c51881c2a6aa220734,2024-09-06_15h30.31.838,mdp,2024.2.1,Win32,59.88023952,66d7945b1baad48e845df3ce,,,,,,,,,,,,,,,,,,,,,1271.2019,1271.2019,1271.2031,1271.8188,1,1,right,0.0838,,1271.8198,1272.6862,1,1,right,1272.6874,1273.9872,1,1,right,0,1273.9872,1273.9872,1273.9881,1275.4883,0,48,48,48,1,0.8,0.2,0.4,0.6,,,,,,,,,,,,,,,0.3586,,0.8,0.2,0.2,0.8,0.4,0.6,0.4,0.6,,,0.7826,,0.6,0.4,0.2,0.8,0.2,0.8,0.6,0.4,1,0
,,614f11b6fe832a304632a860,66daf5c51881c2a6aa220734,2024-09-06_15h30.31.838,mdp,2024.2.1,Win32,59.88023952,66d7945b1baad48e845df3ce,,,,,,,,,,,,,,,,,,,,,1275.4887,1275.4888,1275.4899,1277.4401,1,1,right,1.4138,,1277.4412,1278.4743,1,0,right,1278.4753,1280.1923,0,0,left,1,1280.1923,1280.1924,1280.1935,1281.6935,0,49,49,49,1,0.8,0.2,0.4,0.6,,,,,,,,,,,,,,,0.5175,,0.8,0.2,0.2,0.8,0.4,0.6,0.4,0.6,,,1.1969,,0.6,0.4,0.2,0.8,0.2,0.8,0.6,0.4,1,0
,,614f11b6fe832a304632a860,66daf5c51881c2a6aa220734,2024-09-06_15h30.31.838,mdp,2024.2.1,Win32,59.88023952,66d7945b1baad48e845df3ce,,,,,,,,,,,,,,,,,,,,,,,,,,,,,,,,,,,,,,,,,,,,,,,,,,,,,,,,1281.6936,1339.7366,0,2,2,0,1,imgs/giraffe.png,imgs/elephant.png,imgs/rabbit.png,imgs/dog.png,imgs/goat.png,,,,,,,,,,,,,,,,,,,,,,,,
,,614f11b6fe832a304632a860,66daf5c51881c2a6aa220734,2024-09-06_15h30.31.838,mdp,2024.2.1,Win32,59.88023952,66d7945b1baad48e845df3ce,,,,,,,,,,,,,,3,seqs/st3seq35.csv,1339.7446,1353.236,space,12.961,,1353.2481,1353.2481,1353.249,1358.0261,0,1,left,4.2562,,1358.0332,1361.1757,0,0,left,1361.1769,1364.1281,1,0,right,1,1364.1282,1364.1282,1364.1364,1365.6293,0,0,0,0,1,0.2,0.8,0.6,0.4,,,,,,,,,,,,,,,2.6187,,0.8,0.2,0.4,0.6,0.8,0.2,0.8,0.2,,,2.435,,0.4,0.6,0.8,0.2,0.4,0.6,0.4,0.6,1,0
,,614f11b6fe832a304632a860,66daf5c51881c2a6aa220734,2024-09-06_15h30.31.838,mdp,2024.2.1,Win32,59.88023952,66d7945b1baad48e845df3ce,,,,,,,,,,,,,,,,,,,,,1365.6298,1365.6298,1365.6308,1367.1473,0,1,left,0.9845,,1367.1484,1368.2649,0,0,left,1368.266,1369.4659,1,0,right,1,1369.466,1369.466,1369.4669,1370.9672,0,1,1,1,1,0.2,0.8,0.6,0.4,,,,,,,,,,,,,,,0.6008,,0.8,0.2,0.4,0.6,0.8,0.2,0.8,0.2,,,0.6849,,0.4,0.6,0.8,0.2,0.4,0.6,0.4,0.6,1,0
,,614f11b6fe832a304632a860,66daf5c51881c2a6aa220734,2024-09-06_15h30.31.838,mdp,2024.2.1,Win32,59.88023952,66d7945b1baad48e845df3ce,,,,,,,,,,,,,,,,,,,,,1370.9675,1370.9676,1370.9685,1372.2014,0,1,left,0.702,,1372.2025,1373.4024,0,0,left,1373.4035,1375.5542,1,1,right,0,1375.5543,1375.5544,1375.5553,1377.0555,0,2,2,2,1,0.2,0.8,0.6,0.4,,,,,,,,,,,,,,,0.6844,,0.8,0.2,0.4,0.6,0.8,0.2,0.8,0.2,,,1.6353,,0.4,0.6,0.8,0.2,0.4,0.6,0.4,0.6,1,0
,,614f11b6fe832a304632a860,66daf5c51881c2a6aa220734,2024-09-06_15h30.31.838,mdp,2024.2.1,Win32,59.88023952,66d7945b1baad48e845df3ce,,,,,,,,,,,,,,,,,,,,,1377.0559,1377.0559,1377.0568,1378.2898,0,1,left,0.7018,,1378.2909,1379.424,0,0,left,1379.4251,1380.3415,0,1,left,0,1380.3417,1380.3417,1380.3426,1381.8427,0,3,3,3,1,0.2,0.8,0.6,0.4,,,,,,,,,,,,,,,0.6202,,0.8,0.2,0.4,0.6,0.8,0.2,0.8,0.2,,,0.4006,,0.4,0.6,0.8,0.2,0.4,0.6,0.4,0.6,1,0
,,614f11b6fe832a304632a860,66daf5c51881c2a6aa220734,2024-09-06_15h30.31.838,mdp,2024.2.1,Win32,59.88023952,66d7945b1baad48e845df3ce,,,,,,,,,,,,,,,,,,,,,1381.8432,1381.8432,1381.8442,1382.7769,0,0,left,0.4007,,1382.778,1384.9453,1,0,right,1384.9465,1386.897,1,0,right,1,1386.897,1386.897,1386.8981,1388.3981,0,4,4,4,1,0.2,0.8,0.6,0.4,,,,,,,,,,,,,,,1.6524,,0.8,0.2,0.4,0.6,0.8,0.2,0.8,0.2,,,1.4366,,0.4,0.6,0.8,0.2,0.4,0.6,0.4,0.6,1,0
,,614f11b6fe832a304632a860,66daf5c51881c2a6aa220734,2024-09-06_15h30.31.838,mdp,2024.2.1,Win32,59.88023952,66d7945b1baad48e845df3ce,,,,,,,,,,,,,,,,,,,,,1388.3986,1388.3986,1388.3995,1391.3839,1,0,right,2.4553,,1391.3919,1393.4357,0,0,left,1393.4368,1395.1371,0,1,left,0,1395.1371,1395.1371,1395.1382,1396.6383,0,5,5,5,1,0.2,0.8,0.6,0.4,,,,,,,,,,,,,,,1.5347,,0.8,0.2,0.4,0.6,0.8,0.2,0.8,0.2,,,1.1846,,0.4,0.6,0.8,0.2,0.4,0.6,0.4,0.6,1,0
,,614f11b6fe832a304632a860,66daf5c51881c2a6aa220734,2024-09-06_15h30.31.838,mdp,2024.2.1,Win32,59.88023952,66d7945b1baad48e845df3ce,,,,,,,,,,,,,,,,,,,,,1396.6387,1396.6387,1396.6397,1397.9561,0,1,left,0.7844,,1397.9571,1399.1237,1,0,right,1399.1248,1400.6083,0,0,left,1,1400.6083,1400.6083,1400.6094,1402.1096,0,6,6,6,1,0.2,0.8,0.6,0.4,,,,,,,,,,,,,,,0.6503,,0.8,0.2,0.4,0.6,0.8,0.2,0.8,0.2,,,0.9678,,0.6,0.4,0.4,0.6,0.4,0.6,0.4,0.6,1,0
,,614f11b6fe832a304632a860,66daf5c51881c2a6aa220734,2024-09-06_15h30.31.838,mdp,2024.2.1,Win32,59.88023952,66d7945b1baad48e845df3ce,,,,,,,,,,,,,,,,,,,,,1402.1102,1402.1102,1402.1111,1404.0945,1,1,right,1.456,,1404.0957,1407.0803,1,0,right,1407.0813,1408.2644,0,1,left,0,1408.2644,1408.2644,1408.2652,1409.7657,0,7,7,7,1,0.2,0.8,0.6,0.4,,,,,,,,,,,,,,,2.4716,,0.6,0.4,0.2,0.8,0.8,0.2,0.8,0.2,,,0.6701,,0.6,0.4,0.4,0.6,0.4,0.6,0.4,0.6,1,0
,,614f11b6fe832a304632a860,66daf5c51881c2a6aa220734,2024-09-06_15h30.31.838,mdp,2024.2.1,Win32,59.88023952,66d7945b1baad48e845df3ce,,,,,,,,,,,,,,,,,,,,,1409.7662,1409.7662,1409.7672,1411.167,1,1,right,0.8677,,1411.1681,1412.0343,1,0,right,1412.0354,1412.9519,1,1,right,0,1412.952,1412.952,1412.9529,1414.453,0,8,8,8,1,0.2,0.8,0.6,0.4,,,,,,,,,,,,,,,0.3506,,0.6,0.4,0.2,0.8,0.8,0.2,0.8,0.2,,,0.4005,,0.6,0.4,0.4,0.6,0.4,0.6,0.4,0.6,1,0
,,614f11b6fe832a304632a860,66daf5c51881c2a6aa220734,2024-09-06_15h30.31.838,mdp,2024.2.1,Win32,59.88023952,66d7945b1baad48e845df3ce,,,,,,,,,,,,,,,,,,,,,1414.4535,1414.4535,1414.4544,1416.3546,1,0,right,1.3679,,1416.3557,1418.0059,1,1,right,1418.0069,1419.9408,1,1,right,0,1419.941,1419.941,1419.942,1421.4421,0,9,9,9,1,0.2,0.8,0.6,0.4,,,,,,,,,,,,,,,1.1337,,0.6,0.4,0.2,0.8,0.8,0.2,0.8,0.2,,,1.4171,,0.6,0.4,0.4,0.6,0.4,0.6,0.4,0.6,1,0
,,614f11b6fe832a304632a860,66daf5c51881c2a6aa220734,2024-09-06_15h30.31.838,mdp,2024.2.1,Win32,59.88023952,66d7945b1baad48e845df3ce,,,,,,,,,,,,,,,,,,,,,1421.4425,1421.4425,1421.4436,1422.6598,1,0,right,0.6842,,1422.6609,1423.5104,1,1,right,1423.5115,1424.4613,0,1,left,0,1424.4613,1424.4613,1424.4623,1425.9625,0,10,10,10,1,0.2,0.8,0.6,0.4,,,,,,,,,,,,,,,0.3339,,0.6,0.4,0.2,0.8,0.8,0.2,0.8,0.2,,,0.434,,0.6,0.4,0.4,0.6,0.4,0.6,0.4,0.6,1,0
,,614f11b6fe832a304632a860,66daf5c51881c2a6aa220734,2024-09-06_15h30.31.838,mdp,2024.2.1,Win32,59.88023952,66d7945b1baad48e845df3ce,,,,,,,,,,,,,,,,,,,,,1425.9629,1425.9629,1425.9639,1427.4303,1,0,right,0.9342,,1427.4313,1428.3978,0,0,left,1428.3988,1430.8665,1,0,right,1,1430.8666,1430.8666,1430.8675,1432.3678,0,11,11,11,1,0.2,0.8,0.6,0.4,,,,,,,,,,,,,,,0.4508,,0.6,0.4,0.2,0.8,0.8,0.2,0.8,0.2,,,1.9523,,0.6,0.4,0.4,0.6,0.4,0.6,0.4,0.6,1,0
,,614f11b6fe832a304632a860,66daf5c51881c2a6aa220734,2024-09-06_15h30.31.838,mdp,2024.2.1,Win32,59.88023952,66d7945b1baad48e845df3ce,,,,,,,,,,,,,,,,,,,,,1432.3681,1432.3681,1432.3692,1433.6187,0,0,left,0.7341,,1433.6198,1436.1042,1,0,right,1436.1053,1437.472,0,0,left,1,1437.4721,1437.4721,1437.4731,1438.9732,0,12,12,12,1,0.2,0.8,0.6,0.4,,,,,,,,,,,,,,,1.9687,,0.6,0.4,0.2,0.8,0.8,0.2,0.8,0.2,,,0.8511,,0.6,0.4,0.4,0.6,0.4,0.6,0.4,0.6,1,0
,,614f11b6fe832a304632a860,66daf5c51881c2a6aa220734,2024-09-06_15h30.31.838,mdp,2024.2.1,Win32,59.88023952,66d7945b1baad48e845df3ce,,,,,,,,,,,,,,,,,,,,,1438.9737,1438.9737,1438.9746,1440.1074,0,1,left,0.6008,,1440.1085,1441.7088,0,0,left,1441.7098,1443.527,1,0,right,1,1443.5271,1443.5271,1443.5282,1445.0282,0,13,13,13,1,0.2,0.8,0.6,0.4,,,,,,,,,,,,,,,1.0838,,0.6,0.4,0.2,0.8,0.8,0.2,0.8,0.2,,,1.3059,,0.6,0.4,0.4,0.6,0.4,0.6,0.4,0.6,1,0
,,614f11b6fe832a304632a860,66daf5c51881c2a6aa220734,2024-09-06_15h30.31.838,mdp,2024.2.1,Win32,59.88023952,66d7945b1baad48e845df3ce,,,,,,,,,,,,,,,,,,,,,1445.0285,1445.0286,1445.0296,1446.2458,0,1,left,0.6844,,1446.2469,1447.6471,1,0,right,1447.6482,1449.3818,0,0,left,1,1449.3819,1449.3819,1449.3828,1450.883,0,14,14,14,1,0.2,0.8,0.6,0.4,,,,,,,,,,,,,,,0.8889,,0.6,0.4,0.2,0.8,0.8,0.2,0.8,0.2,,,1.2181,,0.6,0.4,0.4,0.6,0.4,0.6,0.4,0.6,1,0
,,614f11b6fe832a304632a860,66daf5c51881c2a6aa220734,2024-09-06_15h30.31.838,mdp,2024.2.1,Win32,59.88023952,66d7945b1baad48e845df3ce,,,,,,,,,,,,,,,,,,,,,1450.8834,1450.8834,1450.8844,1452.134,1,0,right,0.7175,,1452.1352,1455.1699,1,1,right,1455.171,1456.7379,0,0,left,1,1456.738,1456.738,1456.739,1458.2392,0,15,15,15,1,0.2,0.8,0.6,0.4,,,,,,,,,,,,,,,2.5199,,0.6,0.4,0.2,0.8,0.8,0.2,0.8,0.2,,,1.0506,,0.6,0.4,0.4,0.6,0.4,0.6,0.4,0.6,1,0
,,614f11b6fe832a304632a860,66daf5c51881c2a6aa220734,2024-09-06_15h30.31.838,mdp,2024.2.1,Win32,59.88023952,66d7945b1baad48e845df3ce,,,,,,,,,,,,,,,,,,,,,1458.2395,1458.2395,1458.2406,1459.857,1,0,right,1.0845,,1459.8582,1462.6594,1,0,right,1462.6606,1464.4776,1,1,right,0,1464.4776,1464.4777,1464.4787,1465.9788,0,16,16,16,1,0.2,0.8,0.6,0.4,,,,,,,,,,,,,,,2.2858,,0.6,0.4,0.2,0.8,0.8,0.2,0.8,0.2,,,1.3005,,0.6,0.4,0.4,0.6,0.8,0.2,0.8,0.2,1,0
,,614f11b6fe832a304632a860,66daf5c51881c2a6aa220734,2024-09-06_15h30.31.838,mdp,2024.2.1,Win32,59.88023952,66d7945b1baad48e845df3ce,,,,,,,,,,,,,,,,,,,,,1465.9792,1465.9792,1465.9802,1467.2632,1,0,right,0.7511,,1467.2644,1468.5143,0,1,left,1468.5154,1469.8487,1,1,right,0,1469.8487,1469.8487,1469.8498,1471.3499,0,17,17,17,1,0.2,0.8,0.6,0.4,,,,,,,,,,,,,,,0.7342,,0.6,0.4,0.2,0.8,0.8,0.2,0.8,0.2,,,0.8201,,0.4,0.6,0.8,0.2,0.8,0.2,0.8,0.2,1,0
,,614f11b6fe832a304632a860,66daf5c51881c2a6aa220734,2024-09-06_15h30.31.838,mdp,2024.2.1,Win32,59.88023952,66d7945b1baad48e845df3ce,,,,,,,,,,,,,,,,,,,,,1471.3503,1471.3503,1471.3514,1472.7844,0,1,left,0.9044,,1472.7856,1474.7193,0,0,left,1474.7205,1476.4708,0,1,left,0,1476.471,1476.471,1476.472,1477.972,0,18,18,18,1,0.2,0.8,0.6,0.4,,,,,,,,,,,,,,,1.4175,,0.6,0.4,0.2,0.8,0.8,0.2,0.8,0.2,,,1.2341,,0.4,0.6,0.8,0.2,0.8,0.2,0.8,0.2,1,0
,,614f11b6fe832a304632a860,66daf5c51881c2a6aa220734,2024-09-06_15h30.31.838,mdp,2024.2.1,Win32,59.88023952,66d7945b1baad48e845df3ce,,,,,,,,,,,,,,,,,,,,,1477.9724,1477.9725,1477.9734,1478.7392,1,0,right,0.2337,,1478.7404,1479.8569,1,1,right,1479.858,1481.1581,0,0,left,1,1481.1581,1481.1581,1481.1592,1482.6593,0,19,19,19,1,0.2,0.8,0.6,0.4,,,,,,,,,,,,,,,0.6003,,0.6,0.4,0.2,0.8,0.8,0.2,0.8,0.2,,,0.7836,,0.4,0.6,0.8,0.2,0.8,0.2,0.8,0.2,1,0
,,614f11b6fe832a304632a860,66daf5c51881c2a6aa220734,2024-09-06_15h30.31.838,mdp,2024.2.1,Win32,59.88023952,66d7945b1baad48e845df3ce,,,,,,,,,,,,,,,,,,,,,1482.6597,1482.6597,1482.6606,1484.3773,0,1,left,1.1872,,1484.3784,1486.8293,0,1,left,1486.8304,1488.3973,1,0,right,1,1488.3974,1488.3974,1488.3984,1489.8985,0,20,20,20,1,0.2,0.8,0.6,0.4,,,,,,,,,,,,,,,1.9344,,0.6,0.4,0.2,0.8,0.8,0.2,0.8,0.2,,,1.0514,,0.4,0.6,0.8,0.2,0.8,0.2,0.8,0.2,1,0
,,614f11b6fe832a304632a860,66daf5c51881c2a6aa220734,2024-09-06_15h30.31.838,mdp,2024.2.1,Win32,59.88023952,66d7945b1baad48e845df3ce,,,,,,,,,,,,,,,,,,,,,1489.8989,1489.899,1489.8999,1491.1661,0,0,left,0.734,,1491.1672,1493.0344,0,1,left,1493.0354,1495.5032,1,0,right,1,1495.5032,1495.5032,1495.511,1497.0043,0,21,21,21,1,0.2,0.8,0.6,0.4,,,,,,,,,,,,,,,1.3508,,0.6,0.4,0.2,0.8,0.8,0.2,0.8,0.2,,,1.9521,,0.4,0.6,0.8,0.2,0.8,0.2,0.8,0.2,1,0
,,614f11b6fe832a304632a860,66daf5c51881c2a6aa220734,2024-09-06_15h30.31.838,mdp,2024.2.1,Win32,59.88023952,66d7945b1baad48e845df3ce,,,,,,,,,,,,,,,,,,,,,1497.0048,1497.0048,1497.0058,1497.9051,1,1,right,0.3672,,1497.9062,1499.3063,1,1,right,1499.3074,1501.4414,1,0,right,1,1501.4414,1501.4414,1501.4495,1502.9426,0,22,22,22,1,0.2,0.8,0.6,0.4,,,,,,,,,,,,,,,0.8837,,0.6,0.4,0.2,0.8,0.8,0.2,0.8,0.2,,,1.6183,,0.6,0.4,0.4,0.6,0.8,0.2,0.8,0.2,1,0
,,614f11b6fe832a304632a860,66daf5c51881c2a6aa220734,2024-09-06_15h30.31.838,mdp,2024.2.1,Win32,59.88023952,66d7945b1baad48e845df3ce,,,,,,,,,,,,,,,,,,,,,1502.943,1502.943,1502.944,1504.0269,1,0,right,0.552,,1504.0279,1505.5118,1,1,right,1505.5128,1506.6791,0,0,left,1,1506.6791,1506.6791,1506.6801,1508.1802,0,23,23,23,1,0.2,0.8,0.6,0.4,,,,,,,,,,,,,,,0.9721,,0.6,0.4,0.2,0.8,0.8,0.2,0.8,0.2,,,0.6343,,0.6,0.4,0.4,0.6,0.8,0.2,0.8,0.2,1,0
,,614f11b6fe832a304632a860,66daf5c51881c2a6aa220734,2024-09-06_15h30.31.838,mdp,2024.2.1,Win32,59.88023952,66d7945b1baad48e845df3ce,,,,,,,,,,,,,,,,,,,,,1508.1806,1508.1806,1508.1816,1509.1811,1,0,right,0.4842,,1509.1821,1510.2486,0,0,left,1510.2497,1512.2837,1,1,right,0,1512.2837,1512.2837,1512.2848,1513.7848,0,24,24,24,1,0.2,0.8,0.6,0.4,,,,,,,,,,,,,,,0.5543,,0.6,0.4,0.2,0.8,0.8,0.2,0.8,0.2,,,1.5176,,0.6,0.4,0.4,0.6,0.8,0.2,0.8,0.2,1,0
,,614f11b6fe832a304632a860,66daf5c51881c2a6aa220734,2024-09-06_15h30.31.838,mdp,2024.2.1,Win32,59.88023952,66d7945b1baad48e845df3ce,,,,,,,,,,,,,,,,,,,,,1513.7853,1513.7853,1513.7863,1514.7524,0,0,left,0.4339,,1514.7535,1515.7532,1,1,right,1515.7543,1518.3053,0,0,left,1,1518.3054,1518.3054,1518.3065,1519.8065,0,25,25,25,1,0.2,0.8,0.6,0.4,,,,,,,,,,,,,,,0.4841,,0.6,0.4,0.2,0.8,0.8,0.2,0.8,0.2,,,2.0346,,0.6,0.4,0.4,0.6,0.8,0.2,0.8,0.2,1,0
,,614f11b6fe832a304632a860,66daf5c51881c2a6aa220734,2024-09-06_15h30.31.838,mdp,2024.2.1,Win32,59.88023952,66d7945b1baad48e845df3ce,,,,,,,,,,,,,,,,,,,,,1519.8069,1519.8069,1519.8079,1520.7572,1,0,right,0.4172,,1520.758,1522.1418,0,1,left,1522.1429,1524.7106,0,1,left,0,1524.7107,1524.7107,1524.7117,1526.2118,0,26,26,26,1,0.2,0.8,0.6,0.4,,,,,,,,,,,,,,,0.8677,,0.6,0.4,0.2,0.8,0.8,0.2,0.8,0.2,,,2.0518,,0.6,0.4,0.4,0.6,0.8,0.2,0.8,0.2,1,0
,,614f11b6fe832a304632a860,66daf5c51881c2a6aa220734,2024-09-06_15h30.31.838,mdp,2024.2.1,Win32,59.88023952,66d7945b1baad48e845df3ce,,,,,,,,,,,,,,,,,,,,,1526.2122,1526.2123,1526.2132,1527.0959,0,0,left,0.3552,,1527.0969,1528.2467,0,0,left,1528.2475,1529.9816,0,0,left,1,1529.9816,1529.9816,1529.9827,1531.4828,0,27,27,27,1,0.2,0.8,0.6,0.4,,,,,,,,,,,,,,,0.6338,,0.6,0.4,0.2,0.8,0.8,0.2,0.8,0.2,,,1.2179,,0.6,0.4,0.4,0.6,0.8,0.2,0.8,0.2,1,0
,,614f11b6fe832a304632a860,66daf5c51881c2a6aa220734,2024-09-06_15h30.31.838,mdp,2024.2.1,Win32,59.88023952,66d7945b1baad48e845df3ce,,,,,,,,,,,,,,,,,,,,,1531.4832,1531.4832,1531.4842,1532.4002,0,1,left,0.3881,,1532.4013,1533.768,1,0,right,1533.7691,1536.3202,0,0,left,1,1536.3203,1536.3203,1536.3212,1537.8214,0,28,28,28,1,0.2,0.8,0.6,0.4,,,,,,,,,,,,,,,0.8502,,0.6,0.4,0.2,0.8,0.8,0.2,0.8,0.2,,,2.0354,,0.6,0.4,0.4,0.6,0.8,0.2,0.8,0.2,1,0
,,614f11b6fe832a304632a860,66daf5c51881c2a6aa220734,2024-09-06_15h30.31.838,mdp,2024.2.1,Win32,59.88023952,66d7945b1baad48e845df3ce,,,,,,,,,,,,,,,,,,,,,1537.8218,1537.8218,1537.8227,1538.7222,1,0,right,0.3696,,1538.7235,1539.9398,1,1,right,1539.9409,1541.0575,1,0,right,1,1541.0575,1541.0575,1541.0585,1542.5587,0,29,29,29,1,0.2,0.8,0.6,0.4,,,,,,,,,,,,,,,0.7003,,0.6,0.4,0.2,0.8,0.8,0.2,0.8,0.2,,,0.6002,,0.6,0.4,0.4,0.6,0.8,0.2,0.8,0.2,1,0
,,614f11b6fe832a304632a860,66daf5c51881c2a6aa220734,2024-09-06_15h30.31.838,mdp,2024.2.1,Win32,59.88023952,66d7945b1baad48e845df3ce,,,,,,,,,,,,,,,,,,,,,1542.5591,1542.5591,1542.56,1543.4427,1,1,right,0.3522,,1543.4437,1544.7271,1,0,right,1544.7281,1545.928,0,0,left,1,1545.9282,1545.9282,1545.9291,1547.4294,0,30,30,30,1,0.2,0.8,0.6,0.4,,,,,,,,,,,,,,,0.7667,,0.2,0.8,0.8,0.2,0.8,0.2,0.8,0.2,,,0.6838,,0.6,0.4,0.4,0.6,0.8,0.2,0.8,0.2,1,0
,,614f11b6fe832a304632a860,66daf5c51881c2a6aa220734,2024-09-06_15h30.31.838,mdp,2024.2.1,Win32,59.88023952,66d7945b1baad48e845df3ce,,,,,,,,,,,,,,,,,,,,,1547.4297,1547.4297,1547.4305,1548.1965,1,1,right,0.2341,,1548.1974,1549.2807,1,0,right,1549.2815,1552.6336,0,0,left,1,1552.6337,1552.6337,1552.6416,1554.1348,0,31,31,31,1,0.2,0.8,0.6,0.4,,,,,,,,,,,,,,,0.5712,,0.2,0.8,0.8,0.2,0.8,0.2,0.8,0.2,,,2.839,,0.6,0.4,0.4,0.6,0.8,0.2,0.8,0.2,1,0
,,614f11b6fe832a304632a860,66daf5c51881c2a6aa220734,2024-09-06_15h30.31.838,mdp,2024.2.1,Win32,59.88023952,66d7945b1baad48e845df3ce,,,,,,,,,,,,,,,,,,,,,1554.1352,1554.1352,1554.1362,1555.1023,1,0,right,0.4341,,1555.1034,1556.2699,0,1,left,1556.271,1558.2715,1,1,right,0,1558.2717,1558.2717,1558.2727,1559.7728,0,32,32,32,1,0.2,0.8,0.6,0.4,,,,,,,,,,,,,,,0.6502,,0.2,0.8,0.8,0.2,0.8,0.2,0.8,0.2,,,1.4842,,0.6,0.4,0.4,0.6,0.6,0.4,0.6,0.4,1,0
,,614f11b6fe832a304632a860,66daf5c51881c2a6aa220734,2024-09-06_15h30.31.838,mdp,2024.2.1,Win32,59.88023952,66d7945b1baad48e845df3ce,,,,,,,,,,,,,,,,,,,,,1559.7732,1559.7733,1559.7742,1560.5902,0,1,left,0.284,,1560.5915,1561.541,1,0,right,1561.5422,1562.4583,1,1,right,0,1562.4584,1562.4584,1562.4594,1563.9595,0,33,33,33,1,0.2,0.8,0.6,0.4,,,,,,,,,,,,,,,0.4333,,0.2,0.8,0.8,0.2,0.8,0.2,0.8,0.2,,,0.4024,,0.6,0.4,0.4,0.6,0.6,0.4,0.6,0.4,1,0
,,614f11b6fe832a304632a860,66daf5c51881c2a6aa220734,2024-09-06_15h30.31.838,mdp,2024.2.1,Win32,59.88023952,66d7945b1baad48e845df3ce,,,,,,,,,,,,,,,,,,,,,1563.96,1563.96,1563.9611,1565.2273,0,1,left,0.7341,,1565.2283,1567.3458,0,1,left,1567.3468,1568.7135,0,0,left,1,1568.7136,1568.7136,1568.7146,1570.2148,0,34,34,34,1,0.2,0.8,0.6,0.4,,,,,,,,,,,,,,,1.6019,,0.2,0.8,0.8,0.2,0.8,0.2,0.8,0.2,,,0.8535,,0.6,0.4,0.4,0.6,0.6,0.4,0.6,0.4,1,0
,,614f11b6fe832a304632a860,66daf5c51881c2a6aa220734,2024-09-06_15h30.31.838,mdp,2024.2.1,Win32,59.88023952,66d7945b1baad48e845df3ce,,,,,,,,,,,,,,,,,,,,,1570.2153,1570.2153,1570.2163,1571.349,1,1,right,0.6008,,1571.35,1573.2506,1,0,right,1573.2517,1575.9529,0,0,left,1,1575.9529,1575.9529,1575.9611,1577.454,0,35,35,35,1,0.2,0.8,0.6,0.4,,,,,,,,,,,,,,,1.3868,,0.2,0.8,0.8,0.2,0.8,0.2,0.8,0.2,,,2.1848,,0.6,0.4,0.4,0.6,0.6,0.4,0.6,0.4,1,0
,,614f11b6fe832a304632a860,66daf5c51881c2a6aa220734,2024-09-06_15h30.31.838,mdp,2024.2.1,Win32,59.88023952,66d7945b1baad48e845df3ce,,,,,,,,,,,,,,,,,,,,,1577.4544,1577.4544,1577.4554,1578.4549,1,1,right,0.4676,,1578.4559,1579.9727,0,0,left,1579.9739,1582.258,0,0,left,1,1582.2581,1582.2581,1582.2591,1583.7592,0,36,36,36,1,0.2,0.8,0.6,0.4,,,,,,,,,,,,,,,1.0012,,0.2,0.8,0.8,0.2,0.8,0.2,0.8,0.2,,,1.7712,,0.6,0.4,0.4,0.6,0.6,0.4,0.6,0.4,1,0
,,614f11b6fe832a304632a860,66daf5c51881c2a6aa220734,2024-09-06_15h30.31.838,mdp,2024.2.1,Win32,59.88023952,66d7945b1baad48e845df3ce,,,,,,,,,,,,,,,,,,,,,1583.7597,1583.7597,1583.7607,1584.7101,1,1,right,0.4175,,1584.7111,1586.3281,1,0,right,1586.3291,1587.9461,1,1,right,0,1587.9461,1587.9462,1587.9472,1589.4473,0,37,37,37,1,0.2,0.8,0.6,0.4,,,,,,,,,,,,,,,1.1013,,0.2,0.8,0.8,0.2,0.8,0.2,0.8,0.2,,,1.1011,,0.6,0.4,0.4,0.6,0.6,0.4,0.6,0.4,1,0
,,614f11b6fe832a304632a860,66daf5c51881c2a6aa220734,2024-09-06_15h30.31.838,mdp,2024.2.1,Win32,59.88023952,66d7945b1baad48e845df3ce,,,,,,,,,,,,,,,,,,,,,1589.4477,1589.4477,1589.4487,1589.981,1,0,right,0.0004,,1589.9821,1591.1654,0,1,left,1591.1664,1592.6832,1,0,right,1,1592.6833,1592.6833,1592.6841,1594.1845,0,38,38,38,1,0.2,0.8,0.6,0.4,,,,,,,,,,,,,,,0.6669,,0.2,0.8,0.8,0.2,0.8,0.2,0.8,0.2,,,1.0004,,0.6,0.4,0.4,0.6,0.6,0.4,0.6,0.4,1,0
,,614f11b6fe832a304632a860,66daf5c51881c2a6aa220734,2024-09-06_15h30.31.838,mdp,2024.2.1,Win32,59.88023952,66d7945b1baad48e845df3ce,,,,,,,,,,,,,,,,,,,,,1594.1848,1594.1848,1594.1855,1595.7691,1,0,right,1.0715,,1595.77,1597.1703,1,0,right,1597.1713,1600.423,1,1,right,0,1600.4231,1600.4231,1600.4308,1601.9242,0,39,39,39,1,0.2,0.8,0.6,0.4,,,,,,,,,,,,,,,0.8843,,0.2,0.8,0.8,0.2,0.8,0.2,0.8,0.2,,,2.735,,0.6,0.4,0.4,0.6,0.6,0.4,0.6,0.4,1,0
,,614f11b6fe832a304632a860,66daf5c51881c2a6aa220734,2024-09-06_15h30.31.838,mdp,2024.2.1,Win32,59.88023952,66d7945b1baad48e845df3ce,,,,,,,,,,,,,,,,,,,,,1601.9246,1601.9246,1601.9256,1602.7582,1,0,right,0.3005,,1602.7593,1603.7925,0,1,left,1603.7937,1604.6765,0,0,left,1,1604.6766,1604.6766,1604.6776,1606.1777,0,40,40,40,1,0.2,0.8,0.6,0.4,,,,,,,,,,,,,,,0.5221,,0.2,0.8,0.8,0.2,0.8,0.2,0.8,0.2,,,0.3669,,0.6,0.4,0.4,0.6,0.6,0.4,0.6,0.4,1,0
,,614f11b6fe832a304632a860,66daf5c51881c2a6aa220734,2024-09-06_15h30.31.838,mdp,2024.2.1,Win32,59.88023952,66d7945b1baad48e845df3ce,,,,,,,,,,,,,,,,,,,,,1606.1781,1606.1781,1606.1791,1607.1619,0,0,left,0.4504,,1607.1629,1608.2128,0,0,left,1608.2139,1609.4472,0,0,left,1,1609.4472,1609.4472,1609.4482,1610.9483,0,41,41,41,1,0.2,0.8,0.6,0.4,,,,,,,,,,,,,,,0.5342,,0.4,0.6,0.6,0.4,0.8,0.2,0.8,0.2,,,0.717,,0.6,0.4,0.4,0.6,0.6,0.4,0.6,0.4,1,0
,,614f11b6fe832a304632a860,66daf5c51881c2a6aa220734,2024-09-06_15h30.31.838,mdp,2024.2.1,Win32,59.88023952,66d7945b1baad48e845df3ce,,,,,,,,,,,,,,,,,,,,,1610.9488,1610.9488,1610.9498,1611.8824,0,0,left,0.4033,,1611.8835,1613.0167,0,1,left,1613.0177,1614.2844,0,0,left,1,1614.2845,1614.2845,1614.2855,1615.7856,0,42,42,42,1,0.2,0.8,0.6,0.4,,,,,,,,,,,,,,,0.6175,,0.4,0.6,0.6,0.4,0.8,0.2,0.8,0.2,,,0.7511,,0.6,0.4,0.4,0.6,0.6,0.4,0.6,0.4,1,0
,,614f11b6fe832a304632a860,66daf5c51881c2a6aa220734,2024-09-06_15h30.31.838,mdp,2024.2.1,Win32,59.88023952,66d7945b1baad48e845df3ce,,,,,,,,,,,,,,,,,,,,,1615.7861,1615.7861,1615.7871,1617.3703,1,0,right,1.0539,,1617.3714,1618.271,1,1,right,1618.272,1619.2886,1,0,right,1,1619.2887,1619.2888,1619.2897,1620.7898,0,43,43,43,1,0.2,0.8,0.6,0.4,,,,,,,,,,,,,,,0.3838,,0.4,0.6,0.6,0.4,0.8,0.2,0.8,0.2,,,0.5007,,0.6,0.4,0.4,0.6,0.6,0.4,0.6,0.4,1,0
,,614f11b6fe832a304632a860,66daf5c51881c2a6aa220734,2024-09-06_15h30.31.838,mdp,2024.2.1,Win32,59.88023952,66d7945b1baad48e845df3ce,,,,,,,,,,,,,,,,,,,,,1620.7901,1620.7902,1620.7912,1622.0742,1,0,right,0.7509,,1622.0753,1623.3586,1,1,right,1623.3596,1624.3593,1,0,right,1,1624.3595,1624.3595,1624.3604,1625.8606,0,44,44,44,1,0.2,0.8,0.6,0.4,,,,,,,,,,,,,,,0.7678,,0.4,0.6,0.6,0.4,0.8,0.2,0.8,0.2,,,0.4841,,0.6,0.4,0.4,0.6,0.6,0.4,0.6,0.4,1,0
,,614f11b6fe832a304632a860,66daf5c51881c2a6aa220734,2024-09-06_15h30.31.838,mdp,2024.2.1,Win32,59.88023952,66d7945b1baad48e845df3ce,,,,,,,,,,,,,,,,,,,,,1625.8611,1625.8611,1625.8621,1626.3944,0,1,left,0.0031,,1626.3954,1627.4621,0,1,left,1627.4631,1628.5295,0,1,left,0,1628.5296,1628.5296,1628.5307,1630.0307,0,45,45,45,1,0.2,0.8,0.6,0.4,,,,,,,,,,,,,,,0.5502,,0.4,0.6,0.6,0.4,0.8,0.2,0.8,0.2,,,0.5506,,0.6,0.4,0.4,0.6,0.6,0.4,0.6,0.4,1,0
,,614f11b6fe832a304632a860,66daf5c51881c2a6aa220734,2024-09-06_15h30.31.838,mdp,2024.2.1,Win32,59.88023952,66d7945b1baad48e845df3ce,,,,,,,,,,,,,,,,,,,,,1630.0312,1630.0312,1630.0322,1631.265,1,0,right,0.7012,,1631.2661,1632.2993,1,1,right,1632.3004,1633.5503,1,1,right,0,1633.5504,1633.5504,1633.5514,1635.0515,0,46,46,46,1,0.2,0.8,0.6,0.4,,,,,,,,,,,,,,,0.5168,,0.4,0.6,0.6,0.4,0.8,0.2,0.8,0.2,,,0.7342,,0.6,0.4,0.4,0.6,0.6,0.4,0.6,0.4,1,0
,,614f11b6fe832a304632a860,66daf5c51881c2a6aa220734,2024-09-06_15h30.31.838,mdp,2024.2.1,Win32,59.88023952,66d7945b1baad48e845df3ce,,,,,,,,,,,,,,,,,,,,,1635.052,1635.052,1635.053,1636.5194,1,0,right,0.9345,,1636.5205,1637.6536,1,1,right,1637.6548,1639.5052,1,1,right,0,1639.5053,1639.5053,1639.5063,1641.0063,0,47,47,47,1,0.2,0.8,0.6,0.4,,,,,,,,,,,,,,,0.6176,,0.4,0.6,0.6,0.4,0.8,0.2,0.8,0.2,,,1.3388,,0.8,0.2,0.2,0.8,0.6,0.4,0.6,0.4,1,0
,,614f11b6fe832a304632a860,66daf5c51881c2a6aa220734,2024-09-06_15h30.31.838,mdp,2024.2.1,Win32,59.88023952,66d7945b1baad48e845df3ce,,,,,,,,,,,,,,,,,,,,,1641.0067,1641.0067,1641.0074,1642.3743,1,0,right,0.8514,,1642.3752,1643.2083,1,1,right,1643.2092,1644.0756,1,0,right,1,1644.0757,1644.0757,1644.0768,1645.5768,0,48,48,48,1,0.2,0.8,0.6,0.4,,,,,,,,,,,,,,,0.3172,,0.4,0.6,0.6,0.4,0.8,0.2,0.8,0.2,,,0.3506,,0.8,0.2,0.2,0.8,0.6,0.4,0.6,0.4,1,0
,,614f11b6fe832a304632a860,66daf5c51881c2a6aa220734,2024-09-06_15h30.31.838,mdp,2024.2.1,Win32,59.88023952,66d7945b1baad48e845df3ce,,,,,,,,,,,,,,,,,,,,,1645.5773,1645.5773,1645.5783,1646.9947,0,1,left,0.887,,1646.9958,1647.8955,0,0,left,1647.8966,1649.0631,0,0,left,1,1649.0631,1649.0632,1649.0642,1650.5642,0,49,49,49,1,0.2,0.8,0.6,0.4,,,,,,,,,,,,,,,0.3833,,0.4,0.6,0.6,0.4,0.8,0.2,0.8,0.2,,,0.6501,,0.8,0.2,0.2,0.8,0.6,0.4,0.6,0.4,1,0
,,614f11b6fe832a304632a860,66daf5c51881c2a6aa220734,2024-09-06_15h30.31.838,mdp,2024.2.1,Win32,59.88023952,66d7945b1baad48e845df3ce,,,,,,,,,,,,,,,,,,,,,,,,,,,,,,,,,,,,,,,,,,,,,,,,,,,,,,,,1650.5644,1709.0793,0,3,3,3,1,imgs/kangaroo.png,imgs/goat.png,imgs/rabbit.png,imgs/horse.png,imgs/pig.png,,,,,,,,,,,,,,,,,,,,,,,,
,,614f11b6fe832a304632a860,66daf5c51881c2a6aa220734,2024-09-06_15h30.31.838,mdp,2024.2.1,Win32,59.88023952,66d7945b1baad48e845df3ce,,,,,,,,,,,,,,1,seqs/st1seq3.csv,1709.0872,1721.5563,space,11.9458,,1721.5657,1721.5658,1721.5663,1725.6262,1,0,right,3.5403,,1725.6344,1725.6351,0,0,,1725.6356,1725.6361,0,1,,1,1725.6361,1725.6361,1725.6365,1727.1274,0,0,0,0,1,0.6,0.4,0.6,0.4,1,0,,,,,,,,,,,,,,,,,,,,,,,,,,,,,,,,,,,,
,,614f11b6fe832a304632a860,66daf5c51881c2a6aa220734,2024-09-06_15h30.31.838,mdp,2024.2.1,Win32,59.88023952,66d7945b1baad48e845df3ce,,,,,,,,,,,,,,,,,,,,,1727.1277,1727.1277,1727.1285,1728.662,1,1,right,1.0013,,1728.6628,1728.6634,0,1,,1728.6639,1728.6644,0,0,,0,1728.6644,1728.6644,1728.6648,1730.1633,0,1,1,1,1,0.6,0.4,0.6,0.4,1,0,,,,,,,,,,,,,,,,,,,,,,,,,,,,,,,,,,,,
,,614f11b6fe832a304632a860,66daf5c51881c2a6aa220734,2024-09-06_15h30.31.838,mdp,2024.2.1,Win32,59.88023952,66d7945b1baad48e845df3ce,,,,,,,,,,,,,,,,,,,,,1730.1637,1730.1637,1730.1647,1732.2984,1,0,right,1.602,,1732.2994,1732.3001,0,1,,1732.3008,1732.3013,0,0,,1,1732.3013,1732.3013,1732.3018,1733.7996,0,2,2,2,1,0.6,0.4,0.6,0.4,1,0,,,,,,,,,,,,,,,,,,,,,,,,,,,,,,,,,,,,
,,614f11b6fe832a304632a860,66daf5c51881c2a6aa220734,2024-09-06_15h30.31.838,mdp,2024.2.1,Win32,59.88023952,66d7945b1baad48e845df3ce,,,,,,,,,,,,,,,,,,,,,1733.7999,1733.7999,1733.801,1734.8339,0,1,left,0.5008,,1734.8349,1734.8356,0,0,,1734.8362,1734.8368,0,1,,0,1734.8368,1734.8368,1734.8373,1736.3351,0,3,3,3,1,0.6,0.4,0.6,0.4,1,0,,,,,,,,,,,,,,,,,,,,,,,,,,,,,,,,,,,,
,,614f11b6fe832a304632a860,66daf5c51881c2a6aa220734,2024-09-06_15h30.31.838,mdp,2024.2.1,Win32,59.88023952,66d7945b1baad48e845df3ce,,,,,,,,,,,,,,,,,,,,,1736.3354,1736.3354,1736.3365,1737.386,1,0,right,0.5219,,1737.387,1737.3876,0,0,,1737.3883,1737.3888,0,0,,1,1737.3888,1737.3888,1737.3894,1738.8872,0,4,4,4,1,0.6,0.4,0.6,0.4,1,0,,,,,,,,,,,,,,,,,,,,,,,,,,,,,,,,,,,,
,,614f11b6fe832a304632a860,66daf5c51881c2a6aa220734,2024-09-06_15h30.31.838,mdp,2024.2.1,Win32,59.88023952,66d7945b1baad48e845df3ce,,,,,,,,,,,,,,,,,,,,,1738.8875,1738.8875,1738.8884,1739.8379,0,0,left,0.4345,,1739.8389,1739.8396,0,0,,1739.8402,1739.8407,0,0,,1,1739.8408,1739.8408,1739.8413,1741.3391,0,5,5,5,1,0.8,0.2,0.2,0.8,1,0,,,,,,,,,,,,,,,,,,,,,,,,,,,,,,,,,,,,
,,614f11b6fe832a304632a860,66daf5c51881c2a6aa220734,2024-09-06_15h30.31.838,mdp,2024.2.1,Win32,59.88023952,66d7945b1baad48e845df3ce,,,,,,,,,,,,,,,,,,,,,1741.3395,1741.3395,1741.3404,1742.2899,0,0,left,0.4171,,1742.2909,1742.2916,0,0,,1742.2923,1742.293,0,1,,1,1742.293,1742.2931,1742.2938,1743.7911,0,6,6,6,1,0.8,0.2,0.2,0.8,1,0,,,,,,,,,,,,,,,,,,,,,,,,,,,,,,,,,,,,
,,614f11b6fe832a304632a860,66daf5c51881c2a6aa220734,2024-09-06_15h30.31.838,mdp,2024.2.1,Win32,59.88023952,66d7945b1baad48e845df3ce,,,,,,,,,,,,,,,,,,,,,1743.7915,1743.7916,1743.7926,1744.9421,0,0,left,0.6173,,1744.9432,1744.9438,0,0,,1744.9444,1744.945,0,0,,1,1744.945,1744.945,1744.9455,1746.4434,0,7,7,7,1,0.8,0.2,0.2,0.8,1,0,,,,,,,,,,,,,,,,,,,,,,,,,,,,,,,,,,,,
,,614f11b6fe832a304632a860,66daf5c51881c2a6aa220734,2024-09-06_15h30.31.838,mdp,2024.2.1,Win32,59.88023952,66d7945b1baad48e845df3ce,,,,,,,,,,,,,,,,,,,,,1746.4437,1746.4437,1746.4448,1747.4443,1,1,right,0.484,,1747.4453,1747.4459,0,1,,1747.4466,1747.4471,0,1,,0,1747.4471,1747.4471,1747.4477,1748.9455,0,8,8,8,1,0.8,0.2,0.2,0.8,1,0,,,,,,,,,,,,,,,,,,,,,,,,,,,,,,,,,,,,
,,614f11b6fe832a304632a860,66daf5c51881c2a6aa220734,2024-09-06_15h30.31.838,mdp,2024.2.1,Win32,59.88023952,66d7945b1baad48e845df3ce,,,,,,,,,,,,,,,,,,,,,1748.9458,1748.9458,1748.9468,1749.8963,1,1,right,0.434,,1749.8973,1749.8979,0,1,,1749.8986,1749.8991,0,0,,0,1749.8991,1749.8991,1749.8996,1751.3974,0,9,9,9,1,0.8,0.2,0.2,0.8,1,0,,,,,,,,,,,,,,,,,,,,,,,,,,,,,,,,,,,,
,,614f11b6fe832a304632a860,66daf5c51881c2a6aa220734,2024-09-06_15h30.31.838,mdp,2024.2.1,Win32,59.88023952,66d7945b1baad48e845df3ce,,,,,,,,,,,,,,,,,,,,,1751.3978,1751.3978,1751.3988,1752.2648,1,1,right,0.3506,,1752.2659,1752.2665,0,1,,1752.2671,1752.2678,0,1,,0,1752.2678,1752.2678,1752.2684,1753.766,0,10,10,10,1,0.8,0.2,0.2,0.8,1,0,,,,,,,,,,,,,,,,,,,,,,,,,,,,,,,,,,,,
,,614f11b6fe832a304632a860,66daf5c51881c2a6aa220734,2024-09-06_15h30.31.838,mdp,2024.2.1,Win32,59.88023952,66d7945b1baad48e845df3ce,,,,,,,,,,,,,,,,,,,,,1753.7664,1753.7664,1753.7674,1755.0005,1,1,right,0.701,,1755.0015,1755.0021,0,0,,1755.0027,1755.0033,0,1,,0,1755.0033,1755.0033,1755.0039,1756.5016,0,11,11,11,1,0.8,0.2,0.2,0.8,1,0,,,,,,,,,,,,,,,,,,,,,,,,,,,,,,,,,,,,
,,614f11b6fe832a304632a860,66daf5c51881c2a6aa220734,2024-09-06_15h30.31.838,mdp,2024.2.1,Win32,59.88023952,66d7945b1baad48e845df3ce,,,,,,,,,,,,,,,,,,,,,1756.502,1756.502,1756.503,1758.2197,0,1,left,1.1846,,1758.2208,1758.2214,0,1,,1758.2221,1758.2228,0,1,,0,1758.2228,1758.2229,1758.2233,1759.7209,0,12,12,12,1,0.4,0.6,0.8,0.2,1,0,,,,,,,,,,,,,,,,,,,,,,,,,,,,,,,,,,,,
,,614f11b6fe832a304632a860,66daf5c51881c2a6aa220734,2024-09-06_15h30.31.838,mdp,2024.2.1,Win32,59.88023952,66d7945b1baad48e845df3ce,,,,,,,,,,,,,,,,,,,,,1759.7214,1759.7214,1759.7223,1760.5884,1,0,right,0.3361,,1760.5895,1760.59,0,0,,1760.5907,1760.5912,0,0,,1,1760.5913,1760.5913,1760.5918,1762.0895,0,13,13,13,1,0.4,0.6,0.8,0.2,1,0,,,,,,,,,,,,,,,,,,,,,,,,,,,,,,,,,,,,
,,614f11b6fe832a304632a860,66daf5c51881c2a6aa220734,2024-09-06_15h30.31.838,mdp,2024.2.1,Win32,59.88023952,66d7945b1baad48e845df3ce,,,,,,,,,,,,,,,,,,,,,1762.0898,1762.0898,1762.0908,1762.907,1,0,right,0.3042,,1762.908,1762.9086,0,0,,1762.9092,1762.9098,0,0,,1,1762.9098,1762.9098,1762.9104,1764.4082,0,14,14,14,1,0.4,0.6,0.8,0.2,1,0,,,,,,,,,,,,,,,,,,,,,,,,,,,,,,,,,,,,
,,614f11b6fe832a304632a860,66daf5c51881c2a6aa220734,2024-09-06_15h30.31.838,mdp,2024.2.1,Win32,59.88023952,66d7945b1baad48e845df3ce,,,,,,,,,,,,,,,,,,,,,1764.4086,1764.4086,1764.4095,1765.3423,1,1,right,0.4169,,1765.3434,1765.3439,0,1,,1765.3446,1765.3451,0,1,,0,1765.3452,1765.3452,1765.3457,1766.8435,0,15,15,15,1,0.6,0.4,0.2,0.8,1,0,,,,,,,,,,,,,,,,,,,,,,,,,,,,,,,,,,,,
,,614f11b6fe832a304632a860,66daf5c51881c2a6aa220734,2024-09-06_15h30.31.838,mdp,2024.2.1,Win32,59.88023952,66d7945b1baad48e845df3ce,,,,,,,,,,,,,,,,,,,,,1766.8439,1766.8439,1766.8448,1767.5275,0,0,left,0.1503,,1767.5285,1767.5293,0,1,,1767.53,1767.5305,0,1,,1,1767.5306,1767.5306,1767.5311,1769.0287,0,16,16,16,1,0.6,0.4,0.2,0.8,1,0,,,,,,,,,,,,,,,,,,,,,,,,,,,,,,,,,,,,
,,614f11b6fe832a304632a860,66daf5c51881c2a6aa220734,2024-09-06_15h30.31.838,mdp,2024.2.1,Win32,59.88023952,66d7945b1baad48e845df3ce,,,,,,,,,,,,,,,,,,,,,1769.029,1769.029,1769.03,1769.8125,1,1,right,0.2672,,1769.8136,1769.8142,0,1,,1769.8148,1769.8153,0,1,,0,1769.8153,1769.8153,1769.8159,1771.3138,0,17,17,17,1,0.6,0.4,0.2,0.8,1,0,,,,,,,,,,,,,,,,,,,,,,,,,,,,,,,,,,,,
,,614f11b6fe832a304632a860,66daf5c51881c2a6aa220734,2024-09-06_15h30.31.838,mdp,2024.2.1,Win32,59.88023952,66d7945b1baad48e845df3ce,,,,,,,,,,,,,,,,,,,,,1771.3141,1771.3141,1771.315,1772.2313,0,0,left,0.4006,,1772.2323,1772.2331,0,0,,1772.2337,1772.2342,0,0,,1,1772.2343,1772.2343,1772.2349,1773.7325,0,18,18,18,1,0.6,0.4,0.2,0.8,1,0,,,,,,,,,,,,,,,,,,,,,,,,,,,,,,,,,,,,
,,614f11b6fe832a304632a860,66daf5c51881c2a6aa220734,2024-09-06_15h30.31.838,mdp,2024.2.1,Win32,59.88023952,66d7945b1baad48e845df3ce,,,,,,,,,,,,,,,,,,,,,1773.7328,1773.7328,1773.7338,1774.6332,0,0,left,0.3843,,1774.6341,1774.6346,0,0,,1774.6351,1774.6355,0,1,,1,1774.6355,1774.6355,1774.636,1776.1345,0,19,19,19,1,0.6,0.4,0.2,0.8,1,0,,,,,,,,,,,,,,,,,,,,,,,,,,,,,,,,,,,,
,,614f11b6fe832a304632a860,66daf5c51881c2a6aa220734,2024-09-06_15h30.31.838,mdp,2024.2.1,Win32,59.88023952,66d7945b1baad48e845df3ce,,,,,,,,,,,,,,,,,,,,,1776.1349,1776.1349,1776.1358,1777.0686,0,0,left,0.4007,,1777.0696,1777.0703,0,0,,1777.071,1777.0715,0,0,,1,1777.0715,1777.0715,1777.0721,1778.5698,0,20,20,20,1,0.6,0.4,0.2,0.8,1,0,,,,,,,,,,,,,,,,,,,,,,,,,,,,,,,,,,,,
,,614f11b6fe832a304632a860,66daf5c51881c2a6aa220734,2024-09-06_15h30.31.838,mdp,2024.2.1,Win32,59.88023952,66d7945b1baad48e845df3ce,,,,,,,,,,,,,,,,,,,,,1778.5701,1778.5701,1778.5711,1780.1378,0,0,left,1.0508,,1780.1388,1780.1394,0,1,,1780.1401,1780.1406,0,0,,1,1780.1407,1780.1407,1780.1412,1781.639,0,21,21,21,1,0.6,0.4,0.2,0.8,1,0,,,,,,,,,,,,,,,,,,,,,,,,,,,,,,,,,,,,
,,614f11b6fe832a304632a860,66daf5c51881c2a6aa220734,2024-09-06_15h30.31.838,mdp,2024.2.1,Win32,59.88023952,66d7945b1baad48e845df3ce,,,,,,,,,,,,,,,,,,,,,1781.6394,1781.6394,1781.6403,1783.0569,0,1,left,0.8845,,1783.058,1783.0586,0,1,,1783.0593,1783.0599,0,1,,0,1783.0599,1783.0599,1783.0604,1784.5581,0,22,22,22,1,0.6,0.4,0.2,0.8,1,0,,,,,,,,,,,,,,,,,,,,,,,,,,,,,,,,,,,,
,,614f11b6fe832a304632a860,66daf5c51881c2a6aa220734,2024-09-06_15h30.31.838,mdp,2024.2.1,Win32,59.88023952,66d7945b1baad48e845df3ce,,,,,,,,,,,,,,,,,,,,,1784.5585,1784.5585,1784.5594,1785.5257,0,0,left,0.4506,,1785.5267,1785.5274,0,0,,1785.5279,1785.5285,0,1,,1,1785.5286,1785.5286,1785.5291,1787.0269,0,23,23,23,1,0.6,0.4,0.2,0.8,1,0,,,,,,,,,,,,,,,,,,,,,,,,,,,,,,,,,,,,
,,614f11b6fe832a304632a860,66daf5c51881c2a6aa220734,2024-09-06_15h30.31.838,mdp,2024.2.1,Win32,59.88023952,66d7945b1baad48e845df3ce,,,,,,,,,,,,,,,,,,,,,1787.0271,1787.0271,1787.0282,1787.9277,0,0,left,0.3841,,1787.9287,1787.9292,0,0,,1787.9299,1787.9305,0,0,,1,1787.9305,1787.9305,1787.9309,1789.4289,0,24,24,24,1,0.6,0.4,0.2,0.8,1,0,,,,,,,,,,,,,,,,,,,,,,,,,,,,,,,,,,,,
,,614f11b6fe832a304632a860,66daf5c51881c2a6aa220734,2024-09-06_15h30.31.838,mdp,2024.2.1,Win32,59.88023952,66d7945b1baad48e845df3ce,,,,,,,,,,,,,,,,,,,,,1789.4292,1789.4292,1789.4302,1790.7799,1,1,right,0.8344,,1790.7812,1790.782,0,1,,1790.7829,1790.7834,0,1,,0,1790.7835,1790.7835,1790.7842,1792.2811,0,25,25,25,1,0.8,0.2,0.4,0.6,1,0,,,,,,,,,,,,,,,,,,,,,,,,,,,,,,,,,,,,
,,614f11b6fe832a304632a860,66daf5c51881c2a6aa220734,2024-09-06_15h30.31.838,mdp,2024.2.1,Win32,59.88023952,66d7945b1baad48e845df3ce,,,,,,,,,,,,,,,,,,,,,1792.2815,1792.2815,1792.2825,1792.9318,1,1,right,0.117,,1792.9328,1792.9335,0,0,,1792.9341,1792.9348,0,1,,0,1792.9349,1792.9349,1792.9357,1794.433,0,26,26,26,1,0.8,0.2,0.4,0.6,1,0,,,,,,,,,,,,,,,,,,,,,,,,,,,,,,,,,,,,
,,614f11b6fe832a304632a860,66daf5c51881c2a6aa220734,2024-09-06_15h30.31.838,mdp,2024.2.1,Win32,59.88023952,66d7945b1baad48e845df3ce,,,,,,,,,,,,,,,,,,,,,1794.4333,1794.4333,1794.4343,1795.0168,1,0,right,0.0672,,1795.0179,1795.0186,0,1,,1795.0195,1795.0203,0,1,,1,1795.0203,1795.0203,1795.0209,1796.518,0,27,27,27,1,0.8,0.2,0.4,0.6,1,0,,,,,,,,,,,,,,,,,,,,,,,,,,,,,,,,,,,,
,,614f11b6fe832a304632a860,66daf5c51881c2a6aa220734,2024-09-06_15h30.31.838,mdp,2024.2.1,Win32,59.88023952,66d7945b1baad48e845df3ce,,,,,,,,,,,,,,,,,,,,,1796.5183,1796.5183,1796.5193,1797.6023,0,0,left,0.5507,,1797.6033,1797.6039,0,0,,1797.6046,1797.6051,0,0,,1,1797.6051,1797.6051,1797.6056,1799.1035,0,28,28,28,1,0.8,0.2,0.4,0.6,1,0,,,,,,,,,,,,,,,,,,,,,,,,,,,,,,,,,,,,
,,614f11b6fe832a304632a860,66daf5c51881c2a6aa220734,2024-09-06_15h30.31.838,mdp,2024.2.1,Win32,59.88023952,66d7945b1baad48e845df3ce,,,,,,,,,,,,,,,,,,,,,1799.1039,1799.1039,1799.1048,1800.0709,1,1,right,0.4343,,1800.0719,1800.0726,0,1,,1800.0732,1800.0738,0,1,,0,1800.0738,1800.0738,1800.0743,1801.5721,0,29,29,29,1,0.8,0.2,0.4,0.6,1,0,,,,,,,,,,,,,,,,,,,,,,,,,,,,,,,,,,,,
,,614f11b6fe832a304632a860,66daf5c51881c2a6aa220734,2024-09-06_15h30.31.838,mdp,2024.2.1,Win32,59.88023952,66d7945b1baad48e845df3ce,,,,,,,,,,,,,,,,,,,,,1801.5725,1801.5725,1801.5735,1802.3895,0,1,left,0.3019,,1802.3905,1802.3911,0,0,,1802.392,1802.3927,0,1,,0,1802.3927,1802.3927,1802.3934,1803.8908,0,30,30,30,1,0.4,0.6,0.8,0.2,1,0,,,,,,,,,,,,,,,,,,,,,,,,,,,,,,,,,,,,
,,614f11b6fe832a304632a860,66daf5c51881c2a6aa220734,2024-09-06_15h30.31.838,mdp,2024.2.1,Win32,59.88023952,66d7945b1baad48e845df3ce,,,,,,,,,,,,,,,,,,,,,1803.8911,1803.8911,1803.8923,1804.8248,0,1,left,0.4007,,1804.8259,1804.8265,0,1,,1804.8272,1804.8276,0,1,,0,1804.8277,1804.8277,1804.8282,1806.3261,0,31,31,31,1,0.4,0.6,0.8,0.2,1,0,,,,,,,,,,,,,,,,,,,,,,,,,,,,,,,,,,,,
,,614f11b6fe832a304632a860,66daf5c51881c2a6aa220734,2024-09-06_15h30.31.838,mdp,2024.2.1,Win32,59.88023952,66d7945b1baad48e845df3ce,,,,,,,,,,,,,,,,,,,,,1806.3264,1806.3264,1806.3274,1808.7948,0,1,left,1.952,,1808.7958,1808.7964,0,1,,1808.7971,1808.7975,0,0,,0,1808.7975,1808.7976,1808.798,1810.296,0,32,32,32,1,0.4,0.6,0.8,0.2,1,0,,,,,,,,,,,,,,,,,,,,,,,,,,,,,,,,,,,,
,,614f11b6fe832a304632a860,66daf5c51881c2a6aa220734,2024-09-06_15h30.31.838,mdp,2024.2.1,Win32,59.88023952,66d7945b1baad48e845df3ce,,,,,,,,,,,,,,,,,,,,,1810.2964,1810.2964,1810.2973,1812.0307,1,0,right,1.2013,,1812.0318,1812.0324,0,0,,1812.033,1812.0336,0,1,,1,1812.0336,1812.0336,1812.0341,1813.532,0,33,33,33,1,0.4,0.6,0.8,0.2,1,0,,,,,,,,,,,,,,,,,,,,,,,,,,,,,,,,,,,,
,,614f11b6fe832a304632a860,66daf5c51881c2a6aa220734,2024-09-06_15h30.31.838,mdp,2024.2.1,Win32,59.88023952,66d7945b1baad48e845df3ce,,,,,,,,,,,,,,,,,,,,,1813.5323,1813.5323,1813.5333,1814.4995,1,1,right,0.434,,1814.5006,1814.5012,0,0,,1814.5019,1814.5024,0,0,,0,1814.5024,1814.5024,1814.5029,1816.0007,0,34,34,34,1,0.4,0.6,0.8,0.2,1,0,,,,,,,,,,,,,,,,,,,,,,,,,,,,,,,,,,,,
,,614f11b6fe832a304632a860,66daf5c51881c2a6aa220734,2024-09-06_15h30.31.838,mdp,2024.2.1,Win32,59.88023952,66d7945b1baad48e845df3ce,,,,,,,,,,,,,,,,,,,,,1816.0011,1816.0011,1816.002,1816.9682,0,1,left,0.4339,,1816.9693,1816.9699,0,0,,1816.9705,1816.971,0,1,,0,1816.9711,1816.9711,1816.9716,1818.4693,0,35,35,35,1,0.4,0.6,0.8,0.2,1,0,,,,,,,,,,,,,,,,,,,,,,,,,,,,,,,,,,,,
,,614f11b6fe832a304632a860,66daf5c51881c2a6aa220734,2024-09-06_15h30.31.838,mdp,2024.2.1,Win32,59.88023952,66d7945b1baad48e845df3ce,,,,,,,,,,,,,,,,,,,,,1818.4697,1818.4697,1818.4707,1819.0699,1,0,right,0.085,,1819.071,1819.0716,0,0,,1819.0722,1819.0728,0,0,,1,1819.0729,1819.0729,1819.0734,1820.5711,0,36,36,36,1,0.4,0.6,0.8,0.2,1,0,,,,,,,,,,,,,,,,,,,,,,,,,,,,,,,,,,,,
,,614f11b6fe832a304632a860,66daf5c51881c2a6aa220734,2024-09-06_15h30.31.838,mdp,2024.2.1,Win32,59.88023952,66d7945b1baad48e845df3ce,,,,,,,,,,,,,,,,,,,,,1820.5715,1820.5715,1820.5725,1821.4718,1,0,right,0.384,,1821.4727,1821.4734,0,0,,1821.4741,1821.4746,0,0,,1,1821.4746,1821.4746,1821.475,1822.9731,0,37,37,37,1,0.4,0.6,0.8,0.2,1,0,,,,,,,,,,,,,,,,,,,,,,,,,,,,,,,,,,,,
,,614f11b6fe832a304632a860,66daf5c51881c2a6aa220734,2024-09-06_15h30.31.838,mdp,2024.2.1,Win32,59.88023952,66d7945b1baad48e845df3ce,,,,,,,,,,,,,,,,,,,,,1822.9735,1822.9735,1822.9745,1824.0573,1,0,right,0.5504,,1824.0584,1824.0589,0,0,,1824.0596,1824.06,0,0,,1,1824.0601,1824.0601,1824.0606,1825.5586,0,38,38,38,1,0.4,0.6,0.8,0.2,1,0,,,,,,,,,,,,,,,,,,,,,,,,,,,,,,,,,,,,
