init_exp.started,init_exp.stopped,participant,session,date,expName,psychopyVersion,OS,frameRate,study_id,disp_instruction.started,disp_instruction.stopped,instruction.thisRepN,instruction.thisTrialN,instruction.thisN,instruction.thisIndex,instruction.ran,instimg_path,consent.started,consent.stopped,key_resp_3.keys,key_resp_3.rt,key_resp_3.duration,n_steps,sequence_path,init_block.started,init_block.stopped,key_resp.keys,key_resp.rt,key_resp.duration,init_trials.started,init_trials.stopped,step0.started,step0.stopped,act0,s1,res0.keys,res0.rt,res0.duration,step1.started,step1.stopped,act1,s2,res1.keys,step2.started,step2.stopped,act2,s3,res2.keys,rew,reward_comp.started,reward_comp.stopped,reward_disp.started,reward_disp.stopped,trials.thisRepN,trials.thisTrialN,trials.thisN,trials.thisIndex,trials.ran,s00a0s10,s00a0s11,s00a1s10,s00a1s11,rew10,rew11,break_block.started,break_block.stopped,block.thisRepN,block.thisTrialN,block.thisN,block.thisIndex,block.ran,s00path,s10path,s11path,s20path,s21path,res1.rt,res1.duration,s10a0s20,s10a0s21,s10a1s20,s10a1s21,s11a0s20,s11a0s21,s11a1s20,s11a1s21,rew20,rew21,res2.rt,res2.duration,s20a0s30,s20a0s31,s20a1s30,s20a1s31,s21a0s30,s21a0s31,s21a1s30,s21a1s31,rew30,rew31
0.0017,0.0054,615e056d45156d8d481b5856,66fc997ecceec9a89d6af203,2024-10-02_03h14.01.024,mdp,2024.2.1,Win32,30.21148036,66fa4ebf79326e780c390304,,,,,,,,,,,,,,,,,,,,,,,,,,,,,,,,,,,,,,,,,,,,,,,,,,,,,,,,,,,,,,,,,,,,,,,,,,,,,,,,,,,,,,,,,,,
,,615e056d45156d8d481b5856,66fc997ecceec9a89d6af203,2024-10-02_03h14.01.024,mdp,2024.2.1,Win32,30.21148036,66fa4ebf79326e780c390304,0.0163,47.0771,0,0,0,0,1,rlnn_exp/rlnn_exp.001.png,,,,,,,,,,,,,,,,,,,,,,,,,,,,,,,,,,,,,,,,,,,,,,,,,,,,,,,,,,,,,,,,,,,,,,,,,,,,,,,,,,,
,,615e056d45156d8d481b5856,66fc997ecceec9a89d6af203,2024-10-02_03h14.01.024,mdp,2024.2.1,Win32,30.21148036,66fa4ebf79326e780c390304,47.0802,67.7041,0,1,1,1,1,rlnn_exp/rlnn_exp.002.png,,,,,,,,,,,,,,,,,,,,,,,,,,,,,,,,,,,,,,,,,,,,,,,,,,,,,,,,,,,,,,,,,,,,,,,,,,,,,,,,,,,
,,615e056d45156d8d481b5856,66fc997ecceec9a89d6af203,2024-10-02_03h14.01.024,mdp,2024.2.1,Win32,30.21148036,66fa4ebf79326e780c390304,67.7069,89.3169,0,2,2,2,1,rlnn_exp/rlnn_exp.003.png,,,,,,,,,,,,,,,,,,,,,,,,,,,,,,,,,,,,,,,,,,,,,,,,,,,,,,,,,,,,,,,,,,,,,,,,,,,,,,,,,,,
,,615e056d45156d8d481b5856,66fc997ecceec9a89d6af203,2024-10-02_03h14.01.024,mdp,2024.2.1,Win32,30.21148036,66fa4ebf79326e780c390304,89.3192,111.3953,0,3,3,3,1,rlnn_exp/rlnn_exp.004.png,,,,,,,,,,,,,,,,,,,,,,,,,,,,,,,,,,,,,,,,,,,,,,,,,,,,,,,,,,,,,,,,,,,,,,,,,,,,,,,,,,,
,,615e056d45156d8d481b5856,66fc997ecceec9a89d6af203,2024-10-02_03h14.01.024,mdp,2024.2.1,Win32,30.21148036,66fa4ebf79326e780c390304,,,,,,,,,111.421,153.3549,y,31.8221,,,,,,,,,,,,,,,,,,,,,,,,,,,,,,,,,,,,,,,,,,,,,,,,,,,,,,,,,,,,,,,,,,,,,,,,,,,,,,,
,,615e056d45156d8d481b5856,66fc997ecceec9a89d6af203,2024-10-02_03h14.01.024,mdp,2024.2.1,Win32,30.21148036,66fa4ebf79326e780c390304,,,,,,,,,,,,,,1,seqs/st1seq26.csv,153.3659,155.5875,space,1.6936,,155.645,155.6452,155.6463,156.8518,0,0,left,0.63,,156.8534,156.8568,,1,,156.8575,156.8601,,0,,1,156.8603,156.8605,156.861,158.3513,0,0,0,0,1,0.6,0.4,0.8,0.2,1,0,,,,,,,,,,,,,,,,,,,,,,,,,,,,,,,,,,,,
,,615e056d45156d8d481b5856,66fc997ecceec9a89d6af203,2024-10-02_03h14.01.024,mdp,2024.2.1,Win32,30.21148036,66fa4ebf79326e780c390304,,,,,,,,,,,,,,,,,,,,,158.3526,158.3526,158.354,159.4494,0,0,left,0.5555,,159.4523,159.4537,,1,,159.4548,159.4557,,1,,1,159.4559,159.4559,159.4567,160.9479,0,1,1,1,1,0.8,0.2,0.6,0.4,1,0,,,,,,,,,,,,,,,,,,,,,,,,,,,,,,,,,,,,
,,615e056d45156d8d481b5856,66fc997ecceec9a89d6af203,2024-10-02_03h14.01.024,mdp,2024.2.1,Win32,30.21148036,66fa4ebf79326e780c390304,,,,,,,,,,,,,,,,,,,,,160.949,160.949,160.952,161.9132,0,0,left,0.4143,,161.9155,161.9171,,0,,161.9185,161.9198,,0,,1,161.9199,161.9199,161.9209,163.4112,0,2,2,2,1,0.6,0.4,0.2,0.8,1,0,,,,,,,,,,,,,,,,,,,,,,,,,,,,,,,,,,,,
,,615e056d45156d8d481b5856,66fc997ecceec9a89d6af203,2024-10-02_03h14.01.024,mdp,2024.2.1,Win32,30.21148036,66fa4ebf79326e780c390304,,,,,,,,,,,,,,,,,,,,,163.4124,163.4124,163.4148,164.2772,0,1,left,0.3157,,164.2803,164.2817,,1,,164.2832,164.2844,,1,,0,164.2844,164.2844,164.2854,165.7758,0,3,3,3,1,0.2,0.8,0.8,0.2,1,0,,,,,,,,,,,,,,,,,,,,,,,,,,,,,,,,,,,,
,,615e056d45156d8d481b5856,66fc997ecceec9a89d6af203,2024-10-02_03h14.01.024,mdp,2024.2.1,Win32,30.21148036,66fa4ebf79326e780c390304,,,,,,,,,,,,,,,,,,,,,165.7766,165.7769,165.7791,166.9914,0,0,left,0.6521,,166.994,166.9954,,0,,166.9966,166.9981,,0,,1,166.9981,166.9981,166.9992,168.4738,0,4,4,4,1,0.6,0.4,0.2,0.8,1,0,,,,,,,,,,,,,,,,,,,,,,,,,,,,,,,,,,,,
,,615e056d45156d8d481b5856,66fc997ecceec9a89d6af203,2024-10-02_03h14.01.024,mdp,2024.2.1,Win32,30.21148036,66fa4ebf79326e780c390304,,,,,,,,,,,,,,,,,,,,,168.475,168.4751,168.4776,169.5725,0,0,left,0.5347,,169.5752,169.5769,,0,,169.5781,169.5792,,0,,1,169.5793,169.5793,169.5802,171.0711,0,5,5,5,1,0.8,0.2,0.4,0.6,1,0,,,,,,,,,,,,,,,,,,,,,,,,,,,,,,,,,,,,
,,615e056d45156d8d481b5856,66fc997ecceec9a89d6af203,2024-10-02_03h14.01.024,mdp,2024.2.1,Win32,30.21148036,66fa4ebf79326e780c390304,,,,,,,,,,,,,,,,,,,,,171.072,171.072,171.0752,172.1032,1,0,right,0.4881,,172.1058,172.1072,,0,,172.1085,172.1096,,1,,1,172.1097,172.1097,172.1107,173.6015,0,6,6,6,1,0.8,0.2,0.4,0.6,1,0,,,,,,,,,,,,,,,,,,,,,,,,,,,,,,,,,,,,
,,615e056d45156d8d481b5856,66fc997ecceec9a89d6af203,2024-10-02_03h14.01.024,mdp,2024.2.1,Win32,30.21148036,66fa4ebf79326e780c390304,,,,,,,,,,,,,,,,,,,,,173.6027,173.6028,173.6052,174.5343,0,1,left,0.3879,,174.537,174.5385,,0,,174.5399,174.541,,1,,0,174.5411,174.5411,174.5422,176.0329,0,7,7,7,1,0.8,0.2,0.4,0.6,1,0,,,,,,,,,,,,,,,,,,,,,,,,,,,,,,,,,,,,
,,615e056d45156d8d481b5856,66fc997ecceec9a89d6af203,2024-10-02_03h14.01.024,mdp,2024.2.1,Win32,30.21148036,66fa4ebf79326e780c390304,,,,,,,,,,,,,,,,,,,,,176.0337,176.0339,176.0358,176.899,1,1,right,0.3196,,176.9018,176.9031,,1,,176.9047,176.906,,1,,0,176.9061,176.9062,176.9078,178.3966,0,8,8,8,1,0.8,0.2,0.4,0.6,1,0,,,,,,,,,,,,,,,,,,,,,,,,,,,,,,,,,,,,
,,615e056d45156d8d481b5856,66fc997ecceec9a89d6af203,2024-10-02_03h14.01.024,mdp,2024.2.1,Win32,30.21148036,66fa4ebf79326e780c390304,,,,,,,,,,,,,,,,,,,,,178.3975,178.3975,178.3996,179.2962,0,1,left,0.3477,,179.2988,179.3002,,1,,179.3014,179.3024,,0,,0,179.3025,179.3025,179.3035,180.7946,0,9,9,9,1,0.8,0.2,0.4,0.6,1,0,,,,,,,,,,,,,,,,,,,,,,,,,,,,,,,,,,,,
,,615e056d45156d8d481b5856,66fc997ecceec9a89d6af203,2024-10-02_03h14.01.024,mdp,2024.2.1,Win32,30.21148036,66fa4ebf79326e780c390304,,,,,,,,,,,,,,,,,,,,,180.7957,180.7957,180.7979,181.6945,0,0,left,0.3576,,181.6975,181.6991,,1,,181.7005,181.7016,,0,,1,181.7017,181.7017,181.7032,183.1925,0,10,10,10,1,0.8,0.2,0.4,0.6,1,0,,,,,,,,,,,,,,,,,,,,,,,,,,,,,,,,,,,,
,,615e056d45156d8d481b5856,66fc997ecceec9a89d6af203,2024-10-02_03h14.01.024,mdp,2024.2.1,Win32,30.21148036,66fa4ebf79326e780c390304,,,,,,,,,,,,,,,,,,,,,183.1937,183.1937,183.1955,184.2248,0,0,left,0.4818,,184.2272,184.2285,,1,,184.2294,184.2306,,0,,1,184.2307,184.2307,184.2315,185.7233,0,11,11,11,1,0.8,0.2,0.4,0.6,1,0,,,,,,,,,,,,,,,,,,,,,,,,,,,,,,,,,,,,
,,615e056d45156d8d481b5856,66fc997ecceec9a89d6af203,2024-10-02_03h14.01.024,mdp,2024.2.1,Win32,30.21148036,66fa4ebf79326e780c390304,,,,,,,,,,,,,,,,,,,,,185.7248,185.7248,185.7272,186.6225,0,0,left,0.3432,,186.625,186.6263,,0,,186.6277,186.6288,,0,,1,186.6289,186.6289,186.6298,188.1208,0,12,12,12,1,0.8,0.2,0.4,0.6,1,0,,,,,,,,,,,,,,,,,,,,,,,,,,,,,,,,,,,,
,,615e056d45156d8d481b5856,66fc997ecceec9a89d6af203,2024-10-02_03h14.01.024,mdp,2024.2.1,Win32,30.21148036,66fa4ebf79326e780c390304,,,,,,,,,,,,,,,,,,,,,188.1219,188.1222,188.1242,188.9869,0,0,left,0.3214,,188.9895,188.9913,,0,,188.9926,188.9938,,0,,1,188.9938,188.9938,188.9948,190.4855,0,13,13,13,1,0.8,0.2,0.4,0.6,1,0,,,,,,,,,,,,,,,,,,,,,,,,,,,,,,,,,,,,
,,615e056d45156d8d481b5856,66fc997ecceec9a89d6af203,2024-10-02_03h14.01.024,mdp,2024.2.1,Win32,30.21148036,66fa4ebf79326e780c390304,,,,,,,,,,,,,,,,,,,,,190.4863,190.4863,190.4889,191.4524,0,0,left,0.401,,191.4548,191.4562,,1,,191.4573,191.4585,,1,,1,191.4587,191.4587,191.4597,192.9924,0,14,14,14,1,0.2,0.8,0.6,0.4,1,0,,,,,,,,,,,,,,,,,,,,,,,,,,,,,,,,,,,,
,,615e056d45156d8d481b5856,66fc997ecceec9a89d6af203,2024-10-02_03h14.01.024,mdp,2024.2.1,Win32,30.21148036,66fa4ebf79326e780c390304,,,,,,,,,,,,,,,,,,,,,192.993,192.993,192.9944,194.1155,0,1,left,0.5831,,194.1186,194.1204,,1,,194.1217,194.1227,,1,,0,194.1227,194.1227,194.1237,195.6141,0,15,15,15,1,0.2,0.8,0.6,0.4,1,0,,,,,,,,,,,,,,,,,,,,,,,,,,,,,,,,,,,,
,,615e056d45156d8d481b5856,66fc997ecceec9a89d6af203,2024-10-02_03h14.01.024,mdp,2024.2.1,Win32,30.21148036,66fa4ebf79326e780c390304,,,,,,,,,,,,,,,,,,,,,195.6151,195.6155,195.6175,196.7463,0,1,left,0.5885,,196.7492,196.7505,,1,,196.7518,196.7529,,1,,0,196.753,196.753,196.754,198.2444,0,16,16,16,1,0.2,0.8,0.6,0.4,1,0,,,,,,,,,,,,,,,,,,,,,,,,,,,,,,,,,,,,
,,615e056d45156d8d481b5856,66fc997ecceec9a89d6af203,2024-10-02_03h14.01.024,mdp,2024.2.1,Win32,30.21148036,66fa4ebf79326e780c390304,,,,,,,,,,,,,,,,,,,,,198.2456,198.2456,198.2477,199.2437,0,1,left,0.4457,,199.2471,199.2485,,1,,199.2498,199.2509,,1,,0,199.2509,199.2509,199.2519,200.7426,0,17,17,17,1,0.2,0.8,0.6,0.4,1,0,,,,,,,,,,,,,,,,,,,,,,,,,,,,,,,,,,,,
,,615e056d45156d8d481b5856,66fc997ecceec9a89d6af203,2024-10-02_03h14.01.024,mdp,2024.2.1,Win32,30.21148036,66fa4ebf79326e780c390304,,,,,,,,,,,,,,,,,,,,,200.7434,200.7434,200.7457,201.608,0,1,left,0.3139,,201.6109,201.6123,,0,,201.6134,201.6143,,0,,0,201.6143,201.6143,201.6164,203.1065,0,18,18,18,1,0.2,0.8,0.6,0.4,1,0,,,,,,,,,,,,,,,,,,,,,,,,,,,,,,,,,,,,
,,615e056d45156d8d481b5856,66fc997ecceec9a89d6af203,2024-10-02_03h14.01.024,mdp,2024.2.1,Win32,30.21148036,66fa4ebf79326e780c390304,,,,,,,,,,,,,,,,,,,,,203.1075,203.1075,203.11,204.0727,1,1,right,0.4235,,204.0754,204.0765,,0,,204.0778,204.0787,,0,,0,204.0787,204.0787,204.0795,205.5707,0,19,19,19,1,0.2,0.8,0.6,0.4,1,0,,,,,,,,,,,,,,,,,,,,,,,,,,,,,,,,,,,,
,,615e056d45156d8d481b5856,66fc997ecceec9a89d6af203,2024-10-02_03h14.01.024,mdp,2024.2.1,Win32,30.21148036,66fa4ebf79326e780c390304,,,,,,,,,,,,,,,,,,,,,205.5718,205.5719,205.574,206.7032,0,1,left,0.5709,,206.7057,206.7076,,1,,206.7089,206.7102,,1,,0,206.7102,206.7102,206.7113,208.2016,0,20,20,20,1,0.2,0.8,0.6,0.4,1,0,,,,,,,,,,,,,,,,,,,,,,,,,,,,,,,,,,,,
,,615e056d45156d8d481b5856,66fc997ecceec9a89d6af203,2024-10-02_03h14.01.024,mdp,2024.2.1,Win32,30.21148036,66fa4ebf79326e780c390304,,,,,,,,,,,,,,,,,,,,,208.2024,208.2027,208.2047,209.0013,1,0,right,0.2515,,209.0048,209.0062,,0,,209.0072,209.0083,,0,,1,209.0084,209.0084,209.0102,210.4991,0,21,21,21,1,0.2,0.8,0.6,0.4,1,0,,,,,,,,,,,,,,,,,,,,,,,,,,,,,,,,,,,,
,,615e056d45156d8d481b5856,66fc997ecceec9a89d6af203,2024-10-02_03h14.01.024,mdp,2024.2.1,Win32,30.21148036,66fa4ebf79326e780c390304,,,,,,,,,,,,,,,,,,,,,210.4997,210.4997,210.5015,211.4986,1,0,right,0.4351,,211.5012,211.5025,,0,,211.5036,211.5047,,0,,1,211.5047,211.5047,211.5056,212.9971,0,22,22,22,1,0.2,0.8,0.6,0.4,1,0,,,,,,,,,,,,,,,,,,,,,,,,,,,,,,,,,,,,
,,615e056d45156d8d481b5856,66fc997ecceec9a89d6af203,2024-10-02_03h14.01.024,mdp,2024.2.1,Win32,30.21148036,66fa4ebf79326e780c390304,,,,,,,,,,,,,,,,,,,,,212.9979,212.998,213.0003,213.8631,1,0,right,0.3016,,213.8657,213.867,,1,,213.868,213.8689,,0,,1,213.8691,213.8692,213.8701,215.361,0,23,23,23,1,0.2,0.8,0.6,0.4,1,0,,,,,,,,,,,,,,,,,,,,,,,,,,,,,,,,,,,,
,,615e056d45156d8d481b5856,66fc997ecceec9a89d6af203,2024-10-02_03h14.01.024,mdp,2024.2.1,Win32,30.21148036,66fa4ebf79326e780c390304,,,,,,,,,,,,,,,,,,,,,215.3619,215.3622,215.3645,216.2609,1,0,right,0.3349,,216.2638,216.2652,,0,,216.2662,216.2673,,1,,1,216.2673,216.2673,216.2684,217.7593,0,24,24,24,1,0.2,0.8,0.6,0.4,1,0,,,,,,,,,,,,,,,,,,,,,,,,,,,,,,,,,,,,
,,615e056d45156d8d481b5856,66fc997ecceec9a89d6af203,2024-10-02_03h14.01.024,mdp,2024.2.1,Win32,30.21148036,66fa4ebf79326e780c390304,,,,,,,,,,,,,,,,,,,,,217.7605,217.7605,217.7626,218.5588,1,0,right,0.2488,,218.5611,218.5622,,1,,218.5634,218.5643,,1,,1,218.5644,218.5644,218.5652,220.0573,0,25,25,25,1,0.2,0.8,0.6,0.4,1,0,,,,,,,,,,,,,,,,,,,,,,,,,,,,,,,,,,,,
,,615e056d45156d8d481b5856,66fc997ecceec9a89d6af203,2024-10-02_03h14.01.024,mdp,2024.2.1,Win32,30.21148036,66fa4ebf79326e780c390304,,,,,,,,,,,,,,,,,,,,,220.058,220.0581,220.0612,220.8236,1,1,right,0.213,,220.8264,220.8277,,1,,220.8286,220.8303,,1,,0,220.8304,220.8304,220.8313,222.3212,0,26,26,26,1,0.8,0.2,0.2,0.8,1,0,,,,,,,,,,,,,,,,,,,,,,,,,,,,,,,,,,,,
,,615e056d45156d8d481b5856,66fc997ecceec9a89d6af203,2024-10-02_03h14.01.024,mdp,2024.2.1,Win32,30.21148036,66fa4ebf79326e780c390304,,,,,,,,,,,,,,,,,,,,,222.322,222.3221,222.3244,222.8879,0,1,left,0.0059,,222.8903,222.8918,,1,,222.8933,222.8946,,0,,0,222.8947,222.8947,222.8959,224.3856,0,27,27,27,1,0.8,0.2,0.2,0.8,1,0,,,,,,,,,,,,,,,,,,,,,,,,,,,,,,,,,,,,
,,615e056d45156d8d481b5856,66fc997ecceec9a89d6af203,2024-10-02_03h14.01.024,mdp,2024.2.1,Win32,30.21148036,66fa4ebf79326e780c390304,,,,,,,,,,,,,,,,,,,,,224.3864,224.3865,224.389,225.5523,1,1,right,0.6135,,225.5548,225.5562,,0,,225.5574,225.5585,,1,,0,225.5585,225.5585,225.5596,227.0499,0,28,28,28,1,0.2,0.8,0.6,0.4,1,0,,,,,,,,,,,,,,,,,,,,,,,,,,,,,,,,,,,,
,,615e056d45156d8d481b5856,66fc997ecceec9a89d6af203,2024-10-02_03h14.01.024,mdp,2024.2.1,Win32,30.21148036,66fa4ebf79326e780c390304,,,,,,,,,,,,,,,,,,,,,227.051,227.051,227.0529,227.766,1,1,right,0.1756,,227.7687,227.7704,,1,,227.7722,227.7732,,1,,0,227.7733,227.7733,227.7742,229.2651,0,29,29,29,1,0.2,0.8,0.6,0.4,1,0,,,,,,,,,,,,,,,,,,,,,,,,,,,,,,,,,,,,
,,615e056d45156d8d481b5856,66fc997ecceec9a89d6af203,2024-10-02_03h14.01.024,mdp,2024.2.1,Win32,30.21148036,66fa4ebf79326e780c390304,,,,,,,,,,,,,,,,,,,,,229.2656,229.2657,229.2682,230.2638,0,1,left,0.46,,230.2665,230.2679,,1,,230.2689,230.2698,,0,,0,230.2698,230.2698,230.2707,231.7622,0,30,30,30,1,0.2,0.8,0.6,0.4,1,0,,,,,,,,,,,,,,,,,,,,,,,,,,,,,,,,,,,,
,,615e056d45156d8d481b5856,66fc997ecceec9a89d6af203,2024-10-02_03h14.01.024,mdp,2024.2.1,Win32,30.21148036,66fa4ebf79326e780c390304,,,,,,,,,,,,,,,,,,,,,231.7636,231.7637,231.7655,232.5948,1,0,right,0.2779,,232.597,232.5985,,1,,232.5994,232.6004,,0,,1,232.6004,232.6004,232.6015,234.093,0,31,31,31,1,0.2,0.8,0.6,0.4,1,0,,,,,,,,,,,,,,,,,,,,,,,,,,,,,,,,,,,,
,,615e056d45156d8d481b5856,66fc997ecceec9a89d6af203,2024-10-02_03h14.01.024,mdp,2024.2.1,Win32,30.21148036,66fa4ebf79326e780c390304,,,,,,,,,,,,,,,,,,,,,234.0944,234.0945,234.0964,234.8922,1,1,right,0.2532,,234.895,234.896,,1,,234.8971,234.8983,,1,,0,234.8984,234.8984,234.9004,236.3916,0,32,32,32,1,0.2,0.8,0.6,0.4,1,0,,,,,,,,,,,,,,,,,,,,,,,,,,,,,,,,,,,,
,,615e056d45156d8d481b5856,66fc997ecceec9a89d6af203,2024-10-02_03h14.01.024,mdp,2024.2.1,Win32,30.21148036,66fa4ebf79326e780c390304,,,,,,,,,,,,,,,,,,,,,236.3927,236.3927,236.3948,237.3914,1,0,right,0.462,,237.3935,237.3946,,0,,237.3959,237.397,,1,,1,237.3971,237.3971,237.3982,238.888,0,33,33,33,1,0.2,0.8,0.6,0.4,1,0,,,,,,,,,,,,,,,,,,,,,,,,,,,,,,,,,,,,
,,615e056d45156d8d481b5856,66fc997ecceec9a89d6af203,2024-10-02_03h14.01.024,mdp,2024.2.1,Win32,30.21148036,66fa4ebf79326e780c390304,,,,,,,,,,,,,,,,,,,,,238.8889,238.8889,238.8908,239.6548,1,1,right,0.2076,,239.6574,239.6584,,0,,239.6595,239.6615,,1,,0,239.6615,239.6615,239.6625,241.1531,0,34,34,34,1,0.2,0.8,0.6,0.4,1,0,,,,,,,,,,,,,,,,,,,,,,,,,,,,,,,,,,,,
,,615e056d45156d8d481b5856,66fc997ecceec9a89d6af203,2024-10-02_03h14.01.024,mdp,2024.2.1,Win32,30.21148036,66fa4ebf79326e780c390304,,,,,,,,,,,,,,,,,,,,,241.1539,241.1542,241.1569,242.1189,1,0,right,0.4023,,242.1217,242.123,,1,,242.1241,242.1251,,1,,1,242.1251,242.1251,242.1262,243.6177,0,35,35,35,1,0.6,0.4,0.4,0.6,1,0,,,,,,,,,,,,,,,,,,,,,,,,,,,,,,,,,,,,
,,615e056d45156d8d481b5856,66fc997ecceec9a89d6af203,2024-10-02_03h14.01.024,mdp,2024.2.1,Win32,30.21148036,66fa4ebf79326e780c390304,,,,,,,,,,,,,,,,,,,,,243.6194,243.6194,243.6212,244.784,1,1,right,0.6147,,244.7863,244.7875,,0,,244.7885,244.7893,,0,,0,244.79,244.79,244.791,246.2817,0,36,36,36,1,0.4,0.6,0.8,0.2,1,0,,,,,,,,,,,,,,,,,,,,,,,,,,,,,,,,,,,,
,,615e056d45156d8d481b5856,66fc997ecceec9a89d6af203,2024-10-02_03h14.01.024,mdp,2024.2.1,Win32,30.21148036,66fa4ebf79326e780c390304,,,,,,,,,,,,,,,,,,,,,246.2826,246.2827,246.285,247.0471,0,1,left,0.2141,,247.0495,247.0507,,0,,247.0526,247.0536,,1,,0,247.0536,247.0536,247.0546,248.5456,0,37,37,37,1,0.4,0.6,0.8,0.2,1,0,,,,,,,,,,,,,,,,,,,,,,,,,,,,,,,,,,,,
,,615e056d45156d8d481b5856,66fc997ecceec9a89d6af203,2024-10-02_03h14.01.024,mdp,2024.2.1,Win32,30.21148036,66fa4ebf79326e780c390304,,,,,,,,,,,,,,,,,,,,,248.5467,248.5469,248.549,249.1787,1,0,right,0.0748,,249.1815,249.1831,,0,,249.1842,249.1853,,0,,1,249.1853,249.1854,249.1864,250.6769,0,38,38,38,1,0.4,0.6,0.8,0.2,1,0,,,,,,,,,,,,,,,,,,,,,,,,,,,,,,,,,,,,
,,615e056d45156d8d481b5856,66fc997ecceec9a89d6af203,2024-10-02_03h14.01.024,mdp,2024.2.1,Win32,30.21148036,66fa4ebf79326e780c390304,,,,,,,,,,,,,,,,,,,,,250.6782,250.6782,250.6805,251.6434,1,1,right,0.4226,,251.6454,251.6474,,1,,251.6492,251.65,,1,,0,251.6501,251.6502,251.651,253.1416,0,39,39,39,1,0.6,0.4,0.2,0.8,1,0,,,,,,,,,,,,,,,,,,,,,,,,,,,,,,,,,,,,
,,615e056d45156d8d481b5856,66fc997ecceec9a89d6af203,2024-10-02_03h14.01.024,mdp,2024.2.1,Win32,30.21148036,66fa4ebf79326e780c390304,,,,,,,,,,,,,,,,,,,,,253.1426,253.1427,253.2026,254.1077,1,1,right,0.418,,254.1094,254.1109,,1,,254.1122,254.1133,,1,,0,254.1134,254.1134,254.1143,255.606,0,40,40,40,1,0.6,0.4,0.2,0.8,1,0,,,,,,,,,,,,,,,,,,,,,,,,,,,,,,,,,,,,
,,615e056d45156d8d481b5856,66fc997ecceec9a89d6af203,2024-10-02_03h14.01.024,mdp,2024.2.1,Win32,30.21148036,66fa4ebf79326e780c390304,,,,,,,,,,,,,,,,,,,,,255.6069,255.6069,255.609,256.7383,1,1,right,0.5695,,256.7411,256.7434,,1,,256.7445,256.7457,,1,,0,256.7457,256.7458,256.7468,258.2364,0,41,41,41,1,0.6,0.4,0.2,0.8,1,0,,,,,,,,,,,,,,,,,,,,,,,,,,,,,,,,,,,,
,,615e056d45156d8d481b5856,66fc997ecceec9a89d6af203,2024-10-02_03h14.01.024,mdp,2024.2.1,Win32,30.21148036,66fa4ebf79326e780c390304,,,,,,,,,,,,,,,,,,,,,258.2373,258.2373,258.2396,259.036,1,0,right,0.2539,,259.0393,259.0405,,1,,259.0416,259.0426,,1,,1,259.0427,259.0427,259.0436,260.5346,0,42,42,42,1,0.6,0.4,0.2,0.8,1,0,,,,,,,,,,,,,,,,,,,,,,,,,,,,,,,,,,,,
,,615e056d45156d8d481b5856,66fc997ecceec9a89d6af203,2024-10-02_03h14.01.024,mdp,2024.2.1,Win32,30.21148036,66fa4ebf79326e780c390304,,,,,,,,,,,,,,,,,,,,,260.5358,260.5358,260.538,261.1671,1,1,right,0.0818,,261.1696,261.1709,,1,,261.1718,261.1729,,1,,0,261.1729,261.173,261.1742,262.6657,0,43,43,43,1,0.4,0.6,0.6,0.4,1,0,,,,,,,,,,,,,,,,,,,,,,,,,,,,,,,,,,,,
,,615e056d45156d8d481b5856,66fc997ecceec9a89d6af203,2024-10-02_03h14.01.024,mdp,2024.2.1,Win32,30.21148036,66fa4ebf79326e780c390304,,,,,,,,,,,,,,,,,,,,,262.6668,262.6668,262.6688,263.4988,0,1,left,0.2687,,263.5014,263.5026,,1,,263.5035,263.5045,,1,,0,263.5045,263.5045,263.5056,264.9966,0,44,44,44,1,0.4,0.6,0.6,0.4,1,0,,,,,,,,,,,,,,,,,,,,,,,,,,,,,,,,,,,,
,,615e056d45156d8d481b5856,66fc997ecceec9a89d6af203,2024-10-02_03h14.01.024,mdp,2024.2.1,Win32,30.21148036,66fa4ebf79326e780c390304,,,,,,,,,,,,,,,,,,,,,264.9983,264.9983,264.9999,265.8303,0,0,left,0.282,,265.8324,265.8337,,1,,265.8348,265.8358,,0,,1,265.836,265.836,265.8369,267.3283,0,45,45,45,1,0.4,0.6,0.6,0.4,1,0,,,,,,,,,,,,,,,,,,,,,,,,,,,,,,,,,,,,
,,615e056d45156d8d481b5856,66fc997ecceec9a89d6af203,2024-10-02_03h14.01.024,mdp,2024.2.1,Win32,30.21148036,66fa4ebf79326e780c390304,,,,,,,,,,,,,,,,,,,,,267.329,267.3298,267.3319,268.1935,0,0,left,0.3261,,268.196,268.1972,,1,,268.1989,268.2001,,1,,1,268.2003,268.2003,268.2012,269.6923,0,46,46,46,1,0.4,0.6,0.6,0.4,1,0,,,,,,,,,,,,,,,,,,,,,,,,,,,,,,,,,,,,
,,615e056d45156d8d481b5856,66fc997ecceec9a89d6af203,2024-10-02_03h14.01.024,mdp,2024.2.1,Win32,30.21148036,66fa4ebf79326e780c390304,,,,,,,,,,,,,,,,,,,,,269.6936,269.6937,269.6957,270.4583,0,0,left,0.1986,,270.461,270.4626,,0,,270.4648,270.4659,,0,,1,270.466,270.466,270.4673,271.9567,0,47,47,47,1,0.6,0.4,0.4,0.6,1,0,,,,,,,,,,,,,,,,,,,,,,,,,,,,,,,,,,,,
,,615e056d45156d8d481b5856,66fc997ecceec9a89d6af203,2024-10-02_03h14.01.024,mdp,2024.2.1,Win32,30.21148036,66fa4ebf79326e780c390304,,,,,,,,,,,,,,,,,,,,,271.9572,271.9572,271.9589,272.9558,0,0,left,0.4475,,272.9574,272.9585,,1,,272.9596,272.9604,,1,,1,272.9605,272.9605,272.9613,274.4545,0,48,48,48,1,0.6,0.4,0.4,0.6,1,0,,,,,,,,,,,,,,,,,,,,,,,,,,,,,,,,,,,,
,,615e056d45156d8d481b5856,66fc997ecceec9a89d6af203,2024-10-02_03h14.01.024,mdp,2024.2.1,Win32,30.21148036,66fa4ebf79326e780c390304,,,,,,,,,,,,,,,,,,,,,274.456,274.456,274.4581,275.6533,0,0,left,0.6347,,275.6562,275.6574,,1,,275.6584,275.6594,,1,,1,275.6595,275.6595,275.6604,277.1535,0,49,49,49,1,0.6,0.4,0.4,0.6,1,0,,,,,,,,,,,,,,,,,,,,,,,,,,,,,,,,,,,,
,,615e056d45156d8d481b5856,66fc997ecceec9a89d6af203,2024-10-02_03h14.01.024,mdp,2024.2.1,Win32,30.21148036,66fa4ebf79326e780c390304,,,,,,,,,,,,,,,,,,,,,,,,,,,,,,,,,,,,,,,,,,,,,,,,,,,,,,,,277.1544,335.663,0,0,0,8,1,imgs/cat.png,imgs/bear.png,imgs/elephant.png,imgs/kangaroo.png,imgs/squirrel.png,,,,,,,,,,,,,,,,,,,,,,,,
,,615e056d45156d8d481b5856,66fc997ecceec9a89d6af203,2024-10-02_03h14.01.024,mdp,2024.2.1,Win32,30.21148036,66fa4ebf79326e780c390304,,,,,,,,,,,,,,2,seqs/st2seq35.csv,335.6655,338.6925,space,2.4664,,338.7594,338.7594,338.7609,340.1245,0,1,left,0.7493,,340.1272,341.4904,1,0,right,341.4924,341.494,,0,,1,341.494,341.494,341.4957,342.9882,0,0,0,0,1,0.8,0.2,0.2,0.8,,,,,,,,,,,,,,,0.7971,,0.2,0.8,0.6,0.4,0.6,0.4,0.8,0.2,1,0,,,,,,,,,,,,
,,615e056d45156d8d481b5856,66fc997ecceec9a89d6af203,2024-10-02_03h14.01.024,mdp,2024.2.1,Win32,30.21148036,66fa4ebf79326e780c390304,,,,,,,,,,,,,,,,,,,,,342.9889,342.9889,342.9908,343.9207,1,0,right,0.3698,,343.9233,345.2531,0,0,left,345.2555,345.2567,,1,,1,345.2568,345.2568,345.2578,346.7514,0,1,1,1,1,0.8,0.2,0.2,0.8,,,,,,,,,,,,,,,0.6943,,0.2,0.8,0.6,0.4,0.6,0.4,0.8,0.2,1,0,,,,,,,,,,,,
,,615e056d45156d8d481b5856,66fc997ecceec9a89d6af203,2024-10-02_03h14.01.024,mdp,2024.2.1,Win32,30.21148036,66fa4ebf79326e780c390304,,,,,,,,,,,,,,,,,,,,,346.7523,346.7523,346.7545,348.517,0,0,left,1.2181,,348.5198,349.5148,0,1,left,349.5169,349.5178,,0,,0,349.5178,349.5178,349.5186,351.0141,0,2,2,2,1,0.8,0.2,0.2,0.8,,,,,,,,,,,,,,,0.4461,,0.4,0.6,0.4,0.6,0.6,0.4,0.8,0.2,1,0,,,,,,,,,,,,
,,615e056d45156d8d481b5856,66fc997ecceec9a89d6af203,2024-10-02_03h14.01.024,mdp,2024.2.1,Win32,30.21148036,66fa4ebf79326e780c390304,,,,,,,,,,,,,,,,,,,,,351.0155,351.0155,351.0173,353.4451,1,0,right,1.8885,,353.4478,354.4273,1,0,right,354.4299,354.4316,,0,,1,354.4317,354.4317,354.4327,355.9254,0,3,3,3,1,0.8,0.2,0.2,0.8,,,,,,,,,,,,,,,0.4578,,0.4,0.6,0.4,0.6,0.6,0.4,0.8,0.2,1,0,,,,,,,,,,,,
,,615e056d45156d8d481b5856,66fc997ecceec9a89d6af203,2024-10-02_03h14.01.024,mdp,2024.2.1,Win32,30.21148036,66fa4ebf79326e780c390304,,,,,,,,,,,,,,,,,,,,,355.9261,355.9262,355.9276,356.5924,0,1,left,0.1106,,356.595,357.5912,1,0,right,357.5938,357.5951,,0,,1,357.5951,357.5951,357.5961,359.0896,0,4,4,4,1,0.8,0.2,0.2,0.8,,,,,,,,,,,,,,,0.424,,0.4,0.6,0.4,0.6,0.6,0.4,0.8,0.2,1,0,,,,,,,,,,,,
,,615e056d45156d8d481b5856,66fc997ecceec9a89d6af203,2024-10-02_03h14.01.024,mdp,2024.2.1,Win32,30.21148036,66fa4ebf79326e780c390304,,,,,,,,,,,,,,,,,,,,,359.0908,359.0908,359.0928,360.1221,0,0,left,0.4668,,360.1245,361.0217,1,1,right,361.0252,361.0271,,0,,0,361.0271,361.0271,361.0286,362.5193,0,5,5,5,1,0.8,0.2,0.2,0.8,,,,,,,,,,,,,,,0.3402,,0.4,0.6,0.4,0.6,0.6,0.4,0.8,0.2,1,0,,,,,,,,,,,,
,,615e056d45156d8d481b5856,66fc997ecceec9a89d6af203,2024-10-02_03h14.01.024,mdp,2024.2.1,Win32,30.21148036,66fa4ebf79326e780c390304,,,,,,,,,,,,,,,,,,,,,362.5201,362.5201,362.5221,363.5017,0,0,left,0.4373,,363.5051,364.3009,1,1,right,364.3034,364.3046,,1,,0,364.3046,364.3046,364.3057,365.7993,0,6,6,6,1,0.8,0.2,0.2,0.8,,,,,,,,,,,,,,,0.252,,0.4,0.6,0.4,0.6,0.6,0.4,0.8,0.2,1,0,,,,,,,,,,,,
,,615e056d45156d8d481b5856,66fc997ecceec9a89d6af203,2024-10-02_03h14.01.024,mdp,2024.2.1,Win32,30.21148036,66fa4ebf79326e780c390304,,,,,,,,,,,,,,,,,,,,,365.8004,365.8004,365.8023,366.8319,0,0,left,0.4819,,366.8348,367.8974,1,1,right,367.9004,367.9019,,1,,0,367.9021,367.9021,367.9031,369.3961,0,7,7,7,1,0.8,0.2,0.2,0.8,,,,,,,,,,,,,,,0.5062,,0.4,0.6,0.4,0.6,0.6,0.4,0.8,0.2,1,0,,,,,,,,,,,,
,,615e056d45156d8d481b5856,66fc997ecceec9a89d6af203,2024-10-02_03h14.01.024,mdp,2024.2.1,Win32,30.21148036,66fa4ebf79326e780c390304,,,,,,,,,,,,,,,,,,,,,369.3972,369.3973,369.3992,370.3625,0,0,left,0.4155,,370.3661,371.2618,0,1,left,371.2644,371.2659,,1,,0,371.266,371.2661,371.2673,372.7593,0,8,8,8,1,0.8,0.2,0.2,0.8,,,,,,,,,,,,,,,0.3535,,0.4,0.6,0.4,0.6,0.8,0.2,0.2,0.8,1,0,,,,,,,,,,,,
,,615e056d45156d8d481b5856,66fc997ecceec9a89d6af203,2024-10-02_03h14.01.024,mdp,2024.2.1,Win32,30.21148036,66fa4ebf79326e780c390304,,,,,,,,,,,,,,,,,,,,,372.7602,372.7602,372.7623,373.9584,0,0,left,0.6356,,373.9613,374.8247,1,1,right,374.8274,374.8285,,1,,0,374.8286,374.8286,374.8295,376.3228,0,9,9,9,1,0.8,0.2,0.2,0.8,,,,,,,,,,,,,,,0.309,,0.4,0.6,0.4,0.6,0.8,0.2,0.2,0.8,1,0,,,,,,,,,,,,
,,615e056d45156d8d481b5856,66fc997ecceec9a89d6af203,2024-10-02_03h14.01.024,mdp,2024.2.1,Win32,30.21148036,66fa4ebf79326e780c390304,,,,,,,,,,,,,,,,,,,,,376.3242,376.3242,376.3261,377.3218,0,0,left,0.4382,,377.325,377.9544,1,0,right,377.9566,377.9575,,1,,1,377.9576,377.9576,377.9586,379.4527,0,10,10,10,1,0.8,0.2,0.2,0.8,,,,,,,,,,,,,,,0.0664,,0.4,0.6,0.4,0.6,0.8,0.2,0.2,0.8,1,0,,,,,,,,,,,,
,,615e056d45156d8d481b5856,66fc997ecceec9a89d6af203,2024-10-02_03h14.01.024,mdp,2024.2.1,Win32,30.21148036,66fa4ebf79326e780c390304,,,,,,,,,,,,,,,,,,,,,379.4538,379.4538,379.4568,381.5514,0,1,left,1.5482,,381.5541,382.3836,1,0,right,382.3861,382.3875,,0,,1,382.3875,382.3875,382.3886,383.8821,0,11,11,11,1,0.8,0.2,0.2,0.8,,,,,,,,,,,,,,,0.2743,,0.4,0.6,0.4,0.6,0.8,0.2,0.2,0.8,1,0,,,,,,,,,,,,
,,615e056d45156d8d481b5856,66fc997ecceec9a89d6af203,2024-10-02_03h14.01.024,mdp,2024.2.1,Win32,30.21148036,66fa4ebf79326e780c390304,,,,,,,,,,,,,,,,,,,,,383.8834,383.8834,383.8852,384.848,0,1,left,0.4102,,384.8496,385.5806,1,1,right,385.5834,385.5847,,1,,0,385.5848,385.5848,385.5858,387.0787,0,12,12,12,1,0.8,0.2,0.2,0.8,,,,,,,,,,,,,,,0.1674,,0.4,0.6,0.4,0.6,0.8,0.2,0.2,0.8,1,0,,,,,,,,,,,,
,,615e056d45156d8d481b5856,66fc997ecceec9a89d6af203,2024-10-02_03h14.01.024,mdp,2024.2.1,Win32,30.21148036,66fa4ebf79326e780c390304,,,,,,,,,,,,,,,,,,,,,387.0801,387.0801,387.082,387.8456,0,0,left,0.2006,,387.8482,388.5448,1,1,right,388.5478,388.5491,,0,,0,388.5491,388.5491,388.5501,390.0426,0,13,13,13,1,0.8,0.2,0.2,0.8,,,,,,,,,,,,,,,0.1267,,0.4,0.6,0.4,0.6,0.8,0.2,0.2,0.8,1,0,,,,,,,,,,,,
,,615e056d45156d8d481b5856,66fc997ecceec9a89d6af203,2024-10-02_03h14.01.024,mdp,2024.2.1,Win32,30.21148036,66fa4ebf79326e780c390304,,,,,,,,,,,,,,,,,,,,,390.0434,390.0438,390.0457,391.2421,0,0,left,0.6406,,391.2451,392.0742,1,1,right,392.0765,392.0776,,1,,0,392.0777,392.0777,392.0787,393.5561,0,14,14,14,1,0.8,0.2,0.2,0.8,,,,,,,,,,,,,,,0.2668,,0.4,0.6,0.4,0.6,0.8,0.2,0.2,0.8,1,0,,,,,,,,,,,,
,,615e056d45156d8d481b5856,66fc997ecceec9a89d6af203,2024-10-02_03h14.01.024,mdp,2024.2.1,Win32,30.21148036,66fa4ebf79326e780c390304,,,,,,,,,,,,,,,,,,,,,393.5572,393.5575,393.5603,394.4894,0,0,left,0.3699,,394.4921,395.1882,1,0,right,395.1912,395.1924,,0,,1,395.1926,395.1926,395.1937,396.6871,0,15,15,15,1,0.8,0.2,0.2,0.8,,,,,,,,,,,,,,,0.133,,0.4,0.6,0.4,0.6,0.8,0.2,0.2,0.8,1,0,,,,,,,,,,,,
,,615e056d45156d8d481b5856,66fc997ecceec9a89d6af203,2024-10-02_03h14.01.024,mdp,2024.2.1,Win32,30.21148036,66fa4ebf79326e780c390304,,,,,,,,,,,,,,,,,,,,,396.6881,396.6881,396.6906,397.3191,0,0,left,0.0829,,397.3217,398.0515,1,1,right,398.0541,398.0554,,1,,0,398.0554,398.0554,398.0563,399.5503,0,16,16,16,1,0.8,0.2,0.2,0.8,,,,,,,,,,,,,,,0.1819,,0.4,0.6,0.4,0.6,0.8,0.2,0.2,0.8,1,0,,,,,,,,,,,,
,,615e056d45156d8d481b5856,66fc997ecceec9a89d6af203,2024-10-02_03h14.01.024,mdp,2024.2.1,Win32,30.21148036,66fa4ebf79326e780c390304,,,,,,,,,,,,,,,,,,,,,399.5514,399.5514,399.5536,400.3165,0,1,left,0.2179,,400.3195,401.0155,1,1,right,401.0181,401.0193,,1,,0,401.0193,401.0193,401.0205,402.5139,0,17,17,17,1,0.8,0.2,0.2,0.8,,,,,,,,,,,,,,,0.1274,,0.4,0.6,0.4,0.6,0.8,0.2,0.2,0.8,1,0,,,,,,,,,,,,
,,615e056d45156d8d481b5856,66fc997ecceec9a89d6af203,2024-10-02_03h14.01.024,mdp,2024.2.1,Win32,30.21148036,66fa4ebf79326e780c390304,,,,,,,,,,,,,,,,,,,,,402.5149,402.515,402.517,403.3802,0,1,left,0.3015,,403.3827,404.0464,0,0,left,404.0491,404.0502,,1,,1,404.0504,404.0504,404.0515,405.5443,0,18,18,18,1,0.8,0.2,0.2,0.8,,,,,,,,,,,,,,,0.1021,,0.4,0.6,0.4,0.6,0.4,0.6,0.8,0.2,1,0,,,,,,,,,,,,
,,615e056d45156d8d481b5856,66fc997ecceec9a89d6af203,2024-10-02_03h14.01.024,mdp,2024.2.1,Win32,30.21148036,66fa4ebf79326e780c390304,,,,,,,,,,,,,,,,,,,,,405.5453,405.5453,405.5471,406.1107,0,0,left,0.0134,,406.1134,407.044,0,1,left,407.0467,407.0478,,0,,0,407.0479,407.0479,407.0488,408.5413,0,19,19,19,1,0.8,0.2,0.2,0.8,,,,,,,,,,,,,,,0.3571,,0.4,0.6,0.4,0.6,0.6,0.4,0.4,0.6,1,0,,,,,,,,,,,,
,,615e056d45156d8d481b5856,66fc997ecceec9a89d6af203,2024-10-02_03h14.01.024,mdp,2024.2.1,Win32,30.21148036,66fa4ebf79326e780c390304,,,,,,,,,,,,,,,,,,,,,408.5417,408.5417,408.5433,409.3076,1,1,right,0.2081,,409.3103,409.9404,1,0,right,409.943,409.9441,,0,,1,409.9442,409.9442,409.9452,411.4225,0,20,20,20,1,0.8,0.2,0.2,0.8,,,,,,,,,,,,,,,0.0633,,0.4,0.6,0.4,0.6,0.6,0.4,0.4,0.6,1,0,,,,,,,,,,,,
,,615e056d45156d8d481b5856,66fc997ecceec9a89d6af203,2024-10-02_03h14.01.024,mdp,2024.2.1,Win32,30.21148036,66fa4ebf79326e780c390304,,,,,,,,,,,,,,,,,,,,,411.4237,411.4237,411.4258,412.6886,0,0,left,0.6965,,412.6914,413.7206,0,1,left,413.7233,413.7243,,0,,0,413.7243,413.7243,413.7254,415.2185,0,21,21,21,1,0.8,0.2,0.2,0.8,,,,,,,,,,,,,,,0.4497,,0.4,0.6,0.4,0.6,0.6,0.4,0.4,0.6,1,0,,,,,,,,,,,,
,,615e056d45156d8d481b5856,66fc997ecceec9a89d6af203,2024-10-02_03h14.01.024,mdp,2024.2.1,Win32,30.21148036,66fa4ebf79326e780c390304,,,,,,,,,,,,,,,,,,,,,415.2198,415.2198,415.2219,416.0509,1,1,right,0.276,,416.0532,416.8172,1,1,right,416.8199,416.821,,1,,0,416.8212,416.8212,416.822,418.3155,0,22,22,22,1,0.8,0.2,0.2,0.8,,,,,,,,,,,,,,,0.1953,,0.4,0.6,0.4,0.6,0.6,0.4,0.4,0.6,1,0,,,,,,,,,,,,
,,615e056d45156d8d481b5856,66fc997ecceec9a89d6af203,2024-10-02_03h14.01.024,mdp,2024.2.1,Win32,30.21148036,66fa4ebf79326e780c390304,,,,,,,,,,,,,,,,,,,,,418.317,418.317,418.3189,419.3482,1,1,right,0.4676,,419.3508,420.5143,1,0,right,420.517,420.5182,,1,,1,420.5183,420.5183,420.5195,422.0121,0,23,23,23,1,0.8,0.2,0.2,0.8,,,,,,,,,,,,,,,0.6111,,0.4,0.6,0.4,0.6,0.6,0.4,0.4,0.6,1,0,,,,,,,,,,,,
,,615e056d45156d8d481b5856,66fc997ecceec9a89d6af203,2024-10-02_03h14.01.024,mdp,2024.2.1,Win32,30.21148036,66fa4ebf79326e780c390304,,,,,,,,,,,,,,,,,,,,,422.0133,422.0133,422.0154,423.4107,1,1,right,0.8334,,423.4135,424.2439,1,1,right,424.246,424.2472,,1,,0,424.2472,424.2473,424.2483,425.7415,0,24,24,24,1,0.8,0.2,0.2,0.8,,,,,,,,,,,,,,,0.2863,,0.2,0.8,0.8,0.2,0.6,0.4,0.4,0.6,1,0,,,,,,,,,,,,
,,615e056d45156d8d481b5856,66fc997ecceec9a89d6af203,2024-10-02_03h14.01.024,mdp,2024.2.1,Win32,30.21148036,66fa4ebf79326e780c390304,,,,,,,,,,,,,,,,,,,,,425.7425,425.7429,425.7451,426.4411,0,0,left,0.1358,,426.4438,427.4069,1,0,right,427.4098,427.4114,,0,,1,427.4115,427.4115,427.4129,428.9053,0,25,25,25,1,0.8,0.2,0.2,0.8,,,,,,,,,,,,,,,0.3808,,0.2,0.8,0.8,0.2,0.6,0.4,0.4,0.6,1,0,,,,,,,,,,,,
,,615e056d45156d8d481b5856,66fc997ecceec9a89d6af203,2024-10-02_03h14.01.024,mdp,2024.2.1,Win32,30.21148036,66fa4ebf79326e780c390304,,,,,,,,,,,,,,,,,,,,,428.9072,428.9073,428.9093,429.4716,0,0,left,0.0236,,429.4742,430.4042,1,0,right,430.4075,430.4088,,0,,1,430.4088,430.4088,430.4099,431.9022,0,26,26,26,1,0.8,0.2,0.2,0.8,,,,,,,,,,,,,,,0.3878,,0.2,0.8,0.8,0.2,0.6,0.4,0.4,0.6,1,0,,,,,,,,,,,,
,,615e056d45156d8d481b5856,66fc997ecceec9a89d6af203,2024-10-02_03h14.01.024,mdp,2024.2.1,Win32,30.21148036,66fa4ebf79326e780c390304,,,,,,,,,,,,,,,,,,,,,431.9032,431.9032,431.9053,432.8684,0,1,left,0.4408,,432.8715,434.0336,1,1,right,434.0359,434.0372,,1,,0,434.0372,434.0372,434.0381,435.5327,0,27,27,27,1,0.8,0.2,0.2,0.8,,,,,,,,,,,,,,,0.5878,,0.2,0.8,0.8,0.2,0.8,0.2,0.2,0.8,1,0,,,,,,,,,,,,
,,615e056d45156d8d481b5856,66fc997ecceec9a89d6af203,2024-10-02_03h14.01.024,mdp,2024.2.1,Win32,30.21148036,66fa4ebf79326e780c390304,,,,,,,,,,,,,,,,,,,,,435.5336,435.5336,435.5352,436.165,0,0,left,0.0893,,436.1679,436.832,1,0,right,436.8352,436.8367,,0,,1,436.8369,436.8369,436.8379,438.3297,0,28,28,28,1,0.8,0.2,0.2,0.8,,,,,,,,,,,,,,,0.0949,,0.2,0.8,0.8,0.2,0.8,0.2,0.2,0.8,1,0,,,,,,,,,,,,
,,615e056d45156d8d481b5856,66fc997ecceec9a89d6af203,2024-10-02_03h14.01.024,mdp,2024.2.1,Win32,30.21148036,66fa4ebf79326e780c390304,,,,,,,,,,,,,,,,,,,,,438.3313,438.3313,438.3335,439.096,0,1,left,0.2022,,439.0987,439.6618,1,1,right,439.6646,439.6658,,1,,0,439.6658,439.6659,439.6668,441.1604,0,29,29,29,1,0.8,0.2,0.2,0.8,,,,,,,,,,,,,,,0.0007,,0.2,0.8,0.8,0.2,0.8,0.2,0.2,0.8,1,0,,,,,,,,,,,,
,,615e056d45156d8d481b5856,66fc997ecceec9a89d6af203,2024-10-02_03h14.01.024,mdp,2024.2.1,Win32,30.21148036,66fa4ebf79326e780c390304,,,,,,,,,,,,,,,,,,,,,441.1619,441.1619,441.1636,442.1594,0,0,left,0.4374,0.0229,442.1624,443.6917,1,1,right,443.6939,443.6951,,1,,0,443.6951,443.6951,443.6963,445.1899,0,30,30,30,1,0.8,0.2,0.2,0.8,,,,,,,,,,,,,,,0.9648,,0.8,0.2,0.4,0.6,0.8,0.2,0.2,0.8,1,0,,,,,,,,,,,,
,,615e056d45156d8d481b5856,66fc997ecceec9a89d6af203,2024-10-02_03h14.01.024,mdp,2024.2.1,Win32,30.21148036,66fa4ebf79326e780c390304,,,,,,,,,,,,,,,,,,,,,445.1913,445.1913,445.1934,446.3555,1,1,right,0.5999,,446.4097,447.6539,0,1,left,447.6566,447.6579,,0,,0,447.658,447.658,447.6591,449.1527,0,31,31,31,1,0.8,0.2,0.2,0.8,,,,,,,,,,,,,,,0.7359,,0.8,0.2,0.4,0.6,0.8,0.2,0.2,0.8,1,0,,,,,,,,,,,,
,,615e056d45156d8d481b5856,66fc997ecceec9a89d6af203,2024-10-02_03h14.01.024,mdp,2024.2.1,Win32,30.21148036,66fa4ebf79326e780c390304,,,,,,,,,,,,,,,,,,,,,449.1541,449.1541,449.1562,450.0185,1,1,right,0.3037,,450.0213,450.7181,1,0,right,450.7213,450.7226,,1,,1,450.7226,450.7227,450.7238,452.2163,0,32,32,32,1,0.8,0.2,0.2,0.8,,,,,,,,,,,,,,,0.1478,,0.8,0.2,0.4,0.6,0.8,0.2,0.2,0.8,1,0,,,,,,,,,,,,
,,615e056d45156d8d481b5856,66fc997ecceec9a89d6af203,2024-10-02_03h14.01.024,mdp,2024.2.1,Win32,30.21148036,66fa4ebf79326e780c390304,,,,,,,,,,,,,,,,,,,,,452.2176,452.2176,452.2195,453.5821,1,1,right,0.82,,453.5849,454.381,0,0,left,454.3836,454.3852,,0,,1,454.3853,454.3853,454.3866,455.8797,0,33,33,33,1,0.8,0.2,0.2,0.8,,,,,,,,,,,,,,,0.2448,,0.8,0.2,0.4,0.6,0.8,0.2,0.2,0.8,1,0,,,,,,,,,,,,
,,615e056d45156d8d481b5856,66fc997ecceec9a89d6af203,2024-10-02_03h14.01.024,mdp,2024.2.1,Win32,30.21148036,66fa4ebf79326e780c390304,,,,,,,,,,,,,,,,,,,,,455.8812,455.8813,455.8833,456.4456,1,1,right,0.0269,,456.4484,457.178,0,0,left,457.1802,457.1821,,1,,1,457.1821,457.1822,457.1839,458.6765,0,34,34,34,1,0.8,0.2,0.2,0.8,,,,,,,,,,,,,,,0.1703,,0.8,0.2,0.4,0.6,0.8,0.2,0.2,0.8,1,0,,,,,,,,,,,,
,,615e056d45156d8d481b5856,66fc997ecceec9a89d6af203,2024-10-02_03h14.01.024,mdp,2024.2.1,Win32,30.21148036,66fa4ebf79326e780c390304,,,,,,,,,,,,,,,,,,,,,458.6776,458.6776,458.6798,459.6095,1,0,right,0.3806,,459.6112,460.8415,0,0,left,460.8443,460.8455,,1,,1,460.8455,460.8455,460.8466,462.34,0,35,35,35,1,0.8,0.2,0.2,0.8,,,,,,,,,,,,,,,0.6575,,0.8,0.2,0.4,0.6,0.2,0.8,0.4,0.6,1,0,,,,,,,,,,,,
,,615e056d45156d8d481b5856,66fc997ecceec9a89d6af203,2024-10-02_03h14.01.024,mdp,2024.2.1,Win32,30.21148036,66fa4ebf79326e780c390304,,,,,,,,,,,,,,,,,,,,,462.3407,462.3408,462.3431,463.3554,1,0,right,0.4625,,463.3581,464.3212,0,0,left,464.324,464.3253,,0,,1,464.3253,464.3253,464.3264,465.8195,0,36,36,36,1,0.8,0.2,0.2,0.8,,,,,,,,,,,,,,,0.4082,,0.8,0.2,0.4,0.6,0.2,0.8,0.4,0.6,1,0,,,,,,,,,,,,
,,615e056d45156d8d481b5856,66fc997ecceec9a89d6af203,2024-10-02_03h14.01.024,mdp,2024.2.1,Win32,30.21148036,66fa4ebf79326e780c390304,,,,,,,,,,,,,,,,,,,,,465.8204,465.8205,465.8231,466.6192,1,0,right,0.2563,,466.622,467.6851,0,0,left,467.6877,467.6888,,0,,1,467.6889,467.6889,467.6899,469.1831,0,37,37,37,1,0.8,0.2,0.2,0.8,,,,,,,,,,,,,,,0.5025,,0.8,0.2,0.4,0.6,0.2,0.8,0.4,0.6,1,0,,,,,,,,,,,,
,,615e056d45156d8d481b5856,66fc997ecceec9a89d6af203,2024-10-02_03h14.01.024,mdp,2024.2.1,Win32,30.21148036,66fa4ebf79326e780c390304,,,,,,,,,,,,,,,,,,,,,469.1842,469.1842,469.1863,470.1488,1,1,right,0.4,,470.1513,470.9814,0,1,left,470.9841,470.9851,,1,,0,470.9852,470.9852,470.9864,472.4803,0,38,38,38,1,0.8,0.2,0.2,0.8,,,,,,,,,,,,,,,0.2475,,0.8,0.2,0.4,0.6,0.2,0.8,0.4,0.6,1,0,,,,,,,,,,,,
,,615e056d45156d8d481b5856,66fc997ecceec9a89d6af203,2024-10-02_03h14.01.024,mdp,2024.2.1,Win32,30.21148036,66fa4ebf79326e780c390304,,,,,,,,,,,,,,,,,,,,,472.4817,472.4817,472.4835,473.0462,1,1,right,0.012,,473.0487,473.8458,0,1,left,473.8486,473.8498,,1,,0,473.8499,473.8499,473.8506,475.344,0,39,39,39,1,0.8,0.2,0.2,0.8,,,,,,,,,,,,,,,0.2321,,0.8,0.2,0.4,0.6,0.2,0.8,0.4,0.6,1,0,,,,,,,,,,,,
,,615e056d45156d8d481b5856,66fc997ecceec9a89d6af203,2024-10-02_03h14.01.024,mdp,2024.2.1,Win32,30.21148036,66fa4ebf79326e780c390304,,,,,,,,,,,,,,,,,,,,,475.3453,475.3454,475.3473,476.7432,1,1,right,0.8386,,476.7462,477.8763,1,1,right,477.879,477.8805,,0,,0,477.8806,477.8806,477.8822,479.3732,0,40,40,40,1,0.8,0.2,0.2,0.8,,,,,,,,,,,,,,,0.5751,,0.8,0.2,0.4,0.6,0.2,0.8,0.4,0.6,1,0,,,,,,,,,,,,
,,615e056d45156d8d481b5856,66fc997ecceec9a89d6af203,2024-10-02_03h14.01.024,mdp,2024.2.1,Win32,30.21148036,66fa4ebf79326e780c390304,,,,,,,,,,,,,,,,,,,,,479.3749,479.375,479.3769,479.9735,1,1,right,0.0555,,479.9766,481.1388,1,1,right,481.1415,481.1426,,1,,0,481.1427,481.1427,481.1437,482.6372,0,41,41,41,1,0.8,0.2,0.2,0.8,,,,,,,,,,,,,,,0.6054,,0.8,0.2,0.4,0.6,0.2,0.8,0.4,0.6,1,0,,,,,,,,,,,,
,,615e056d45156d8d481b5856,66fc997ecceec9a89d6af203,2024-10-02_03h14.01.024,mdp,2024.2.1,Win32,30.21148036,66fa4ebf79326e780c390304,,,,,,,,,,,,,,,,,,,,,482.6386,482.6386,482.6406,483.3363,1,1,right,0.1561,,483.3389,484.1687,0,1,left,484.1713,484.1725,,1,,0,484.1725,484.1725,484.1734,485.667,0,42,42,42,1,0.8,0.2,0.2,0.8,,,,,,,,,,,,,,,0.2891,,0.8,0.2,0.4,0.6,0.2,0.8,0.4,0.6,1,0,,,,,,,,,,,,
,,615e056d45156d8d481b5856,66fc997ecceec9a89d6af203,2024-10-02_03h14.01.024,mdp,2024.2.1,Win32,30.21148036,66fa4ebf79326e780c390304,,,,,,,,,,,,,,,,,,,,,485.668,485.6683,485.6708,486.3339,1,1,right,0.1028,,486.3366,486.9657,0,1,left,486.9675,486.9688,,1,,0,486.9688,486.9689,486.97,488.4645,0,43,43,43,1,0.8,0.2,0.2,0.8,,,,,,,,,,,,,,,0.091,,0.8,0.2,0.4,0.6,0.2,0.8,0.4,0.6,1,0,,,,,,,,,,,,
,,615e056d45156d8d481b5856,66fc997ecceec9a89d6af203,2024-10-02_03h14.01.024,mdp,2024.2.1,Win32,30.21148036,66fa4ebf79326e780c390304,,,,,,,,,,,,,,,,,,,,,488.4656,488.4657,488.4876,489.2307,1,1,right,0.225,,489.2332,490.1641,1,1,right,490.1672,490.1685,,1,,0,490.1686,490.1686,490.1696,491.6612,0,44,44,44,1,0.8,0.2,0.2,0.8,,,,,,,,,,,,,,,0.3872,,0.8,0.2,0.4,0.6,0.2,0.8,0.4,0.6,1,0,,,,,,,,,,,,
,,615e056d45156d8d481b5856,66fc997ecceec9a89d6af203,2024-10-02_03h14.01.024,mdp,2024.2.1,Win32,30.21148036,66fa4ebf79326e780c390304,,,,,,,,,,,,,,,,,,,,,491.6626,491.6626,491.6647,492.2943,0,0,left,0.0792,,492.297,493.2267,0,1,left,493.2293,493.2305,,0,,0,493.2305,493.2306,493.2318,494.7251,0,45,45,45,1,0.8,0.2,0.2,0.8,,,,,,,,,,,,,,,0.3479,,0.8,0.2,0.4,0.6,0.2,0.8,0.4,0.6,1,0,,,,,,,,,,,,
,,615e056d45156d8d481b5856,66fc997ecceec9a89d6af203,2024-10-02_03h14.01.024,mdp,2024.2.1,Win32,30.21148036,66fa4ebf79326e780c390304,,,,,,,,,,,,,,,,,,,,,494.726,494.726,494.7284,495.7244,0,0,left,0.4367,,495.7271,496.724,0,0,left,496.7276,496.7286,,0,,1,496.7287,496.7287,496.7298,498.2215,0,46,46,46,1,0.8,0.2,0.2,0.8,,,,,,,,,,,,,,,0.4406,,0.8,0.2,0.4,0.6,0.2,0.8,0.4,0.6,1,0,,,,,,,,,,,,
,,615e056d45156d8d481b5856,66fc997ecceec9a89d6af203,2024-10-02_03h14.01.024,mdp,2024.2.1,Win32,30.21148036,66fa4ebf79326e780c390304,,,,,,,,,,,,,,,,,,,,,498.2226,498.2227,498.2248,498.8882,0,0,left,0.1106,,498.8906,499.7869,0,1,left,499.7888,499.7897,,1,,0,499.7897,499.7897,499.7905,501.2857,0,47,47,47,1,0.8,0.2,0.2,0.8,,,,,,,,,,,,,,,0.3397,,0.2,0.8,0.8,0.2,0.2,0.8,0.4,0.6,1,0,,,,,,,,,,,,
,,615e056d45156d8d481b5856,66fc997ecceec9a89d6af203,2024-10-02_03h14.01.024,mdp,2024.2.1,Win32,30.21148036,66fa4ebf79326e780c390304,,,,,,,,,,,,,,,,,,,,,501.2873,501.2873,501.2895,501.885,0,0,left,0.0587,,501.8875,503.2506,0,1,left,503.2544,503.2557,,1,,0,503.2558,503.2558,503.257,504.7491,0,48,48,48,1,0.8,0.2,0.2,0.8,,,,,,,,,,,,,,,0.803,,0.2,0.8,0.8,0.2,0.2,0.8,0.4,0.6,1,0,,,,,,,,,,,,
,,615e056d45156d8d481b5856,66fc997ecceec9a89d6af203,2024-10-02_03h14.01.024,mdp,2024.2.1,Win32,30.21148036,66fa4ebf79326e780c390304,,,,,,,,,,,,,,,,,,,,,504.7506,504.7506,504.7526,505.848,0,0,left,0.5574,,505.9009,506.614,1,0,right,506.6167,506.618,,0,,1,506.618,506.618,506.6194,508.1121,0,49,49,49,1,0.8,0.2,0.2,0.8,,,,,,,,,,,,,,,0.2078,,0.2,0.8,0.8,0.2,0.2,0.8,0.4,0.6,1,0,,,,,,,,,,,,
,,615e056d45156d8d481b5856,66fc997ecceec9a89d6af203,2024-10-02_03h14.01.024,mdp,2024.2.1,Win32,30.21148036,66fa4ebf79326e780c390304,,,,,,,,,,,,,,,,,,,,,,,,,,,,,,,,,,,,,,,,,,,,,,,,,,,,,,,,508.1123,566.6234,0,1,1,3,1,imgs/giraffe.png,imgs/horse.png,imgs/lion.png,imgs/elephant.png,imgs/rabbit.png,,,,,,,,,,,,,,,,,,,,,,,,
,,615e056d45156d8d481b5856,66fc997ecceec9a89d6af203,2024-10-02_03h14.01.024,mdp,2024.2.1,Win32,30.21148036,66fa4ebf79326e780c390304,,,,,,,,,,,,,,3,seqs/st3seq47.csv,566.6259,1413.1375,space,845.961,,1413.1757,1413.1757,1413.1913,1416.2862,0,0,left,2.5009,,1416.2874,1417.0528,0,0,left,1417.0555,1418.3516,0,0,left,1,1418.3519,1418.352,1418.3541,1419.8501,0,0,0,0,1,0.6,0.4,0.4,0.6,,,,,,,,,,,,,,,0.1842,,0.8,0.2,0.4,0.6,0.8,0.2,0.2,0.8,,,0.6701,,0.6,0.4,0.4,0.6,0.6,0.4,0.8,0.2,1,0
,,615e056d45156d8d481b5856,66fc997ecceec9a89d6af203,2024-10-02_03h14.01.024,mdp,2024.2.1,Win32,30.21148036,66fa4ebf79326e780c390304,,,,,,,,,,,,,,,,,,,,,1419.8521,1419.8523,1419.8539,1420.8821,0,1,left,0.4817,,1420.8849,1421.5481,1,1,right,1421.5543,1422.7135,1,0,right,1,1422.7137,1422.7137,1422.7163,1424.2117,0,1,1,1,1,0.6,0.4,0.4,0.6,,,,,,,,,,,,,,,0.0804,,0.8,0.2,0.4,0.6,0.8,0.2,0.2,0.8,,,0.5816,,0.6,0.4,0.4,0.6,0.6,0.4,0.8,0.2,1,0
,,615e056d45156d8d481b5856,66fc997ecceec9a89d6af203,2024-10-02_03h14.01.024,mdp,2024.2.1,Win32,30.21148036,66fa4ebf79326e780c390304,,,,,,,,,,,,,,,,,,,,,1424.2133,1424.2133,1424.2153,1425.2115,0,0,left,0.4328,,1425.2135,1425.8242,1,0,right,1425.827,1427.0762,0,0,left,1,1427.0766,1427.0766,1427.0789,1428.5753,0,2,2,2,1,0.6,0.4,0.4,0.6,,,,,,,,,,,,,,,0.0011,,0.8,0.2,0.4,0.6,0.8,0.2,0.2,0.8,,,0.6989,,0.6,0.4,0.4,0.6,0.6,0.4,0.8,0.2,1,0
,,615e056d45156d8d481b5856,66fc997ecceec9a89d6af203,2024-10-02_03h14.01.024,mdp,2024.2.1,Win32,30.21148036,66fa4ebf79326e780c390304,,,,,,,,,,,,,,,,,,,,,1428.5769,1428.5769,1428.5791,1429.7407,1,0,right,0.6139,,1429.7434,1430.4062,0,1,left,1430.4093,1431.0393,1,0,right,1,1431.0396,1431.0397,1431.0419,1432.5376,0,3,3,3,1,0.6,0.4,0.4,0.6,,,,,,,,,,,,,,,0.1128,,0.8,0.2,0.4,0.6,0.8,0.2,0.2,0.8,,,0.046,,0.6,0.4,0.4,0.6,0.6,0.4,0.8,0.2,1,0
,,615e056d45156d8d481b5856,66fc997ecceec9a89d6af203,2024-10-02_03h14.01.024,mdp,2024.2.1,Win32,30.21148036,66fa4ebf79326e780c390304,,,,,,,,,,,,,,,,,,,,,1432.5385,1432.5385,1432.5403,1433.2705,0,0,left,0.1731,,1433.2727,1434.0032,1,0,right,1434.006,1434.8018,0,0,left,1,1434.802,1434.802,1434.8046,1436.3004,0,4,4,4,1,0.6,0.4,0.4,0.6,,,,,,,,,,,,,,,0.1681,,0.8,0.2,0.4,0.6,0.8,0.2,0.2,0.8,,,0.212,,0.4,0.6,0.6,0.4,0.6,0.4,0.8,0.2,1,0
,,615e056d45156d8d481b5856,66fc997ecceec9a89d6af203,2024-10-02_03h14.01.024,mdp,2024.2.1,Win32,30.21148036,66fa4ebf79326e780c390304,,,,,,,,,,,,,,,,,,,,,1436.3019,1436.3019,1436.3036,1437.0669,0,1,left,0.2,,1437.069,1437.6655,1,0,right,1437.7199,1438.2994,0,1,left,0,1438.2999,1438.3,1438.3019,1439.7974,0,5,5,5,1,0.6,0.4,0.4,0.6,,,,,,,,,,,,,,,0.0275,,0.8,0.2,0.4,0.6,0.8,0.2,0.2,0.8,,,0.0941,,0.4,0.6,0.6,0.4,0.6,0.4,0.8,0.2,1,0
,,615e056d45156d8d481b5856,66fc997ecceec9a89d6af203,2024-10-02_03h14.01.024,mdp,2024.2.1,Win32,30.21148036,66fa4ebf79326e780c390304,,,,,,,,,,,,,,,,,,,,,1439.7985,1439.7985,1439.8007,1440.6295,0,1,left,0.272,,1440.6324,1441.2962,1,1,right,1441.299,1442.428,0,0,left,1,1442.4284,1442.4285,1442.4308,1443.9268,0,6,6,6,1,0.6,0.4,0.4,0.6,,,,,,,,,,,,,,,0.1109,,0.8,0.2,0.4,0.6,0.8,0.2,0.2,0.8,,,0.563,,0.4,0.6,0.6,0.4,0.6,0.4,0.8,0.2,1,0
,,615e056d45156d8d481b5856,66fc997ecceec9a89d6af203,2024-10-02_03h14.01.024,mdp,2024.2.1,Win32,30.21148036,66fa4ebf79326e780c390304,,,,,,,,,,,,,,,,,,,,,1443.9282,1443.9282,1443.9302,1444.7924,1,0,right,0.3091,,1444.7953,1446.1245,1,1,right,1446.1272,1448.555,0,0,left,1,1448.5551,1448.5552,1448.5576,1450.0541,0,7,7,7,1,0.6,0.4,0.4,0.6,,,,,,,,,,,,,,,0.7709,,0.8,0.2,0.4,0.6,0.8,0.2,0.2,0.8,,,1.8774,,0.4,0.6,0.6,0.4,0.6,0.4,0.8,0.2,1,0
,,615e056d45156d8d481b5856,66fc997ecceec9a89d6af203,2024-10-02_03h14.01.024,mdp,2024.2.1,Win32,30.21148036,66fa4ebf79326e780c390304,,,,,,,,,,,,,,,,,,,,,1450.0552,1450.0552,1450.057,1451.22,0,0,left,0.6152,,1451.2223,1452.6846,0,1,left,1452.688,1453.5849,1,1,right,0,1453.5851,1453.5851,1453.5869,1455.0825,0,8,8,8,1,0.6,0.4,0.4,0.6,,,,,,,,,,,,,,,0.9105,,0.8,0.2,0.4,0.6,0.8,0.2,0.2,0.8,,,0.335,,0.4,0.6,0.6,0.4,0.6,0.4,0.8,0.2,1,0
,,615e056d45156d8d481b5856,66fc997ecceec9a89d6af203,2024-10-02_03h14.01.024,mdp,2024.2.1,Win32,30.21148036,66fa4ebf79326e780c390304,,,,,,,,,,,,,,,,,,,,,1455.0834,1455.0834,1455.0859,1455.9483,0,0,left,0.306,,1455.9507,1456.6142,0,0,left,1456.6174,1457.5142,0,0,left,1,1457.5143,1457.5143,1457.5173,1459.0118,0,9,9,9,1,0.6,0.4,0.4,0.6,,,,,,,,,,,,,,,0.1196,,0.8,0.2,0.4,0.6,0.8,0.2,0.2,0.8,,,0.3451,,0.4,0.6,0.6,0.4,0.6,0.4,0.8,0.2,1,0
,,615e056d45156d8d481b5856,66fc997ecceec9a89d6af203,2024-10-02_03h14.01.024,mdp,2024.2.1,Win32,30.21148036,66fa4ebf79326e780c390304,,,,,,,,,,,,,,,,,,,,,1459.0131,1459.0131,1459.0151,1459.8777,0,1,left,0.3118,,1459.8802,1460.5437,0,1,left,1460.547,1461.1431,0,1,left,0,1461.1436,1461.1436,1461.1458,1462.6415,0,10,10,10,1,0.6,0.4,0.4,0.6,,,,,,,,,,,,,,,0.1035,,0.8,0.2,0.4,0.6,0.2,0.8,0.8,0.2,,,0.0173,,0.4,0.6,0.6,0.4,0.6,0.4,0.8,0.2,1,0
,,615e056d45156d8d481b5856,66fc997ecceec9a89d6af203,2024-10-02_03h14.01.024,mdp,2024.2.1,Win32,30.21148036,66fa4ebf79326e780c390304,,,,,,,,,,,,,,,,,,,,,1462.6428,1462.6429,1462.6448,1463.7086,1,1,right,0.5259,,1463.7106,1464.3064,0,1,left,1464.3082,1465.2396,0,0,left,1,1465.2398,1465.2398,1465.2425,1466.7375,0,11,11,11,1,0.6,0.4,0.4,0.6,,,,,,,,,,,,,,,0.0352,,0.8,0.2,0.4,0.6,0.2,0.8,0.8,0.2,,,0.3674,,0.4,0.6,0.6,0.4,0.6,0.4,0.8,0.2,1,0
,,615e056d45156d8d481b5856,66fc997ecceec9a89d6af203,2024-10-02_03h14.01.024,mdp,2024.2.1,Win32,30.21148036,66fa4ebf79326e780c390304,,,,,,,,,,,,,,,,,,,,,1466.7391,1466.7391,1466.7413,1467.504,0,1,left,0.2077,,1467.507,1468.0699,1,0,right,1468.0725,1468.6359,1,1,right,0,1468.6361,1468.6361,1468.6386,1470.1343,0,12,12,12,1,0.6,0.4,0.4,0.6,,,,,,,,,,,,,,,0.0189,,0.8,0.2,0.4,0.6,0.2,0.8,0.8,0.2,,,0.0009,,0.4,0.6,0.6,0.4,0.6,0.4,0.8,0.2,1,0
,,615e056d45156d8d481b5856,66fc997ecceec9a89d6af203,2024-10-02_03h14.01.024,mdp,2024.2.1,Win32,30.21148036,66fa4ebf79326e780c390304,,,,,,,,,,,,,,,,,,,,,1470.1349,1470.1349,1470.1381,1471.1331,0,0,left,0.4474,,1471.1357,1471.7662,1,1,right,1471.769,1472.3656,0,1,left,0,1472.366,1472.3661,1472.3685,1473.8643,0,13,13,13,1,0.6,0.4,0.4,0.6,,,,,,,,,,,,,,,0.0685,,0.8,0.2,0.4,0.6,0.2,0.8,0.8,0.2,,,0.0346,,0.4,0.6,0.6,0.4,0.2,0.8,0.6,0.4,1,0
,,615e056d45156d8d481b5856,66fc997ecceec9a89d6af203,2024-10-02_03h14.01.024,mdp,2024.2.1,Win32,30.21148036,66fa4ebf79326e780c390304,,,,,,,,,,,,,,,,,,,,,1473.8659,1473.8659,1473.8674,1474.9965,1,1,right,0.5742,,1474.9991,1475.7626,0,0,left,1475.7656,1477.1611,0,1,left,0,1477.1615,1477.1616,1477.1638,1478.6592,0,14,14,14,1,0.6,0.4,0.4,0.6,,,,,,,,,,,,,,,0.1906,,0.8,0.2,0.4,0.6,0.2,0.8,0.8,0.2,,,0.8313,,0.4,0.6,0.6,0.4,0.2,0.8,0.6,0.4,1,0
,,615e056d45156d8d481b5856,66fc997ecceec9a89d6af203,2024-10-02_03h14.01.024,mdp,2024.2.1,Win32,30.21148036,66fa4ebf79326e780c390304,,,,,,,,,,,,,,,,,,,,,1478.6605,1478.6605,1478.6626,1479.5921,0,1,left,0.3786,,1479.5948,1480.2584,1,0,right,1480.2611,1480.9245,0,1,left,0,1480.9248,1480.9248,1480.928,1482.4222,0,15,15,15,1,0.6,0.4,0.4,0.6,,,,,,,,,,,,,,,0.1099,,0.8,0.2,0.4,0.6,0.2,0.8,0.8,0.2,,,0.1098,,0.4,0.6,0.6,0.4,0.2,0.8,0.6,0.4,1,0
,,615e056d45156d8d481b5856,66fc997ecceec9a89d6af203,2024-10-02_03h14.01.024,mdp,2024.2.1,Win32,30.21148036,66fa4ebf79326e780c390304,,,,,,,,,,,,,,,,,,,,,1482.4234,1482.4234,1482.4257,1483.1555,0,0,left,0.1984,,1483.158,1483.9542,0,0,left,1483.9566,1484.6539,1,1,right,0,1484.654,1484.654,1484.7041,1486.1523,0,16,16,16,1,0.6,0.4,0.4,0.6,,,,,,,,,,,,,,,0.2114,,0.8,0.2,0.4,0.6,0.6,0.4,0.4,0.6,,,0.1398,,0.4,0.6,0.6,0.4,0.2,0.8,0.6,0.4,1,0
,,615e056d45156d8d481b5856,66fc997ecceec9a89d6af203,2024-10-02_03h14.01.024,mdp,2024.2.1,Win32,30.21148036,66fa4ebf79326e780c390304,,,,,,,,,,,,,,,,,,,,,1486.1534,1486.1534,1486.1554,1487.1854,0,0,left,0.4937,,1487.1881,1488.1512,0,0,left,1488.1541,1488.9497,0,1,left,0,1488.9499,1488.9499,1488.9524,1490.4312,0,17,17,17,1,0.6,0.4,0.4,0.6,,,,,,,,,,,,,,,0.4184,,0.8,0.2,0.4,0.6,0.6,0.4,0.4,0.6,,,0.2548,,0.4,0.6,0.6,0.4,0.2,0.8,0.6,0.4,1,0
,,615e056d45156d8d481b5856,66fc997ecceec9a89d6af203,2024-10-02_03h14.01.024,mdp,2024.2.1,Win32,30.21148036,66fa4ebf79326e780c390304,,,,,,,,,,,,,,,,,,,,,1490.4324,1490.4325,1490.4343,1491.2975,0,0,left,0.3008,,1491.3,1492.3298,0,0,left,1492.3323,1493.5119,1,0,right,1,1493.5121,1493.5121,1493.5148,1495.0101,0,18,18,18,1,0.6,0.4,0.4,0.6,,,,,,,,,,,,,,,0.4854,,0.8,0.2,0.4,0.6,0.6,0.4,0.4,0.6,,,0.6402,,0.4,0.6,0.6,0.4,0.2,0.8,0.6,0.4,1,0
,,615e056d45156d8d481b5856,66fc997ecceec9a89d6af203,2024-10-02_03h14.01.024,mdp,2024.2.1,Win32,30.21148036,66fa4ebf79326e780c390304,,,,,,,,,,,,,,,,,,,,,1495.0118,1495.0118,1495.0138,1495.6103,1,0,right,0.0594,,1495.6133,1496.3427,0,0,left,1496.3456,1497.3081,1,1,right,0,1497.3083,1497.3083,1497.3107,1498.8071,0,19,19,19,1,0.6,0.4,0.4,0.6,,,,,,,,,,,,,,,0.1668,,0.8,0.2,0.4,0.6,0.6,0.4,0.4,0.6,,,0.4004,,0.4,0.6,0.6,0.4,0.2,0.8,0.6,0.4,1,0
,,615e056d45156d8d481b5856,66fc997ecceec9a89d6af203,2024-10-02_03h14.01.024,mdp,2024.2.1,Win32,30.21148036,66fa4ebf79326e780c390304,,,,,,,,,,,,,,,,,,,,,1498.8084,1498.8084,1498.8102,1500.0059,0,0,left,0.634,,1500.0085,1500.9222,1,1,right,1500.9248,1501.654,1,0,right,1,1501.6542,1501.6542,1501.6569,1503.1524,0,20,20,20,1,0.6,0.4,0.4,0.6,,,,,,,,,,,,,,,0.3691,,0.8,0.2,0.4,0.6,0.6,0.4,0.4,0.6,,,0.1748,,0.4,0.6,0.6,0.4,0.2,0.8,0.6,0.4,1,0
,,615e056d45156d8d481b5856,66fc997ecceec9a89d6af203,2024-10-02_03h14.01.024,mdp,2024.2.1,Win32,30.21148036,66fa4ebf79326e780c390304,,,,,,,,,,,,,,,,,,,,,1503.1537,1503.1537,1503.1556,1503.9189,1,0,right,0.2102,,1503.9212,1504.485,1,0,right,1504.4892,1505.2676,0,0,left,1,1505.2677,1505.2678,1505.2702,1506.7657,0,21,21,21,1,0.6,0.4,0.4,0.6,,,,,,,,,,,,,,,0.0166,,0.8,0.2,0.4,0.6,0.6,0.4,0.4,0.6,,,0.1578,,0.4,0.6,0.6,0.4,0.2,0.8,0.6,0.4,1,0
,,615e056d45156d8d481b5856,66fc997ecceec9a89d6af203,2024-10-02_03h14.01.024,mdp,2024.2.1,Win32,30.21148036,66fa4ebf79326e780c390304,,,,,,,,,,,,,,,,,,,,,1506.7672,1506.7672,1506.7691,1507.798,0,1,left,0.4928,,1507.8007,1509.0968,0,0,left,1509.0996,1510.2629,1,0,right,1,1510.2635,1510.2636,1510.3165,1511.7616,0,22,22,22,1,0.6,0.4,0.4,0.6,,,,,,,,,,,,,,,0.7374,,0.8,0.2,0.4,0.6,0.6,0.4,0.4,0.6,,,0.6024,,0.4,0.6,0.6,0.4,0.2,0.8,0.6,0.4,1,0
,,615e056d45156d8d481b5856,66fc997ecceec9a89d6af203,2024-10-02_03h14.01.024,mdp,2024.2.1,Win32,30.21148036,66fa4ebf79326e780c390304,,,,,,,,,,,,,,,,,,,,,1511.7632,1511.7632,1511.765,1513.7591,0,1,left,1.4512,,1513.7625,1514.6253,1,0,right,1514.6753,1515.6906,0,0,left,1,1515.6908,1515.6909,1515.6925,1517.1889,0,23,23,23,1,0.6,0.4,0.4,0.6,,,,,,,,,,,,,,,0.3255,,0.8,0.2,0.4,0.6,0.6,0.4,0.4,0.6,,,0.4997,,0.4,0.6,0.6,0.4,0.2,0.8,0.6,0.4,1,0
,,615e056d45156d8d481b5856,66fc997ecceec9a89d6af203,2024-10-02_03h14.01.024,mdp,2024.2.1,Win32,30.21148036,66fa4ebf79326e780c390304,,,,,,,,,,,,,,,,,,,,,1517.1901,1517.1901,1517.1922,1518.2215,0,0,left,0.4759,,1518.2242,1518.9207,1,1,right,1518.9236,1519.4868,0,1,left,0,1519.4869,1519.487,1519.4896,1520.9852,0,24,24,24,1,0.8,0.2,0.8,0.2,,,,,,,,,,,,,,,0.1142,,0.8,0.2,0.4,0.6,0.6,0.4,0.4,0.6,,,0.0083,,0.4,0.6,0.6,0.4,0.2,0.8,0.6,0.4,1,0
,,615e056d45156d8d481b5856,66fc997ecceec9a89d6af203,2024-10-02_03h14.01.024,mdp,2024.2.1,Win32,30.21148036,66fa4ebf79326e780c390304,,,,,,,,,,,,,,,,,,,,,1520.9867,1520.9867,1520.9888,1521.685,1,0,right,0.1574,,1521.6869,1522.3841,0,0,left,1522.3868,1523.0835,1,0,right,1,1523.0837,1523.0837,1523.0865,1524.5818,0,25,25,25,1,0.8,0.2,0.8,0.2,,,,,,,,,,,,,,,0.1587,,0.8,0.2,0.4,0.6,0.6,0.4,0.4,0.6,,,0.1165,,0.8,0.2,0.8,0.2,0.2,0.8,0.6,0.4,1,0
,,615e056d45156d8d481b5856,66fc997ecceec9a89d6af203,2024-10-02_03h14.01.024,mdp,2024.2.1,Win32,30.21148036,66fa4ebf79326e780c390304,,,,,,,,,,,,,,,,,,,,,1524.5828,1524.5828,1524.5861,1525.7145,0,0,left,0.5676,,1525.7172,1526.4137,1,1,right,1526.4163,1527.1472,0,0,left,1,1527.1475,1527.1476,1527.15,1528.645,0,26,26,26,1,0.8,0.2,0.8,0.2,,,,,,,,,,,,,,,0.137,,0.8,0.2,0.4,0.6,0.6,0.4,0.4,0.6,,,0.1597,,0.8,0.2,0.8,0.2,0.2,0.8,0.6,0.4,1,0
,,615e056d45156d8d481b5856,66fc997ecceec9a89d6af203,2024-10-02_03h14.01.024,mdp,2024.2.1,Win32,30.21148036,66fa4ebf79326e780c390304,,,,,,,,,,,,,,,,,,,,,1528.6468,1528.6468,1528.6486,1529.8775,1,0,right,0.6703,,1529.8799,1530.5762,0,0,left,1530.5791,1531.6419,0,0,left,1,1531.6423,1531.6423,1531.6451,1533.1403,0,27,27,27,1,0.8,0.2,0.8,0.2,,,,,,,,,,,,,,,0.153,,0.8,0.2,0.4,0.6,0.6,0.4,0.4,0.6,,,0.5045,,0.8,0.2,0.8,0.2,0.2,0.8,0.6,0.4,1,0
,,615e056d45156d8d481b5856,66fc997ecceec9a89d6af203,2024-10-02_03h14.01.024,mdp,2024.2.1,Win32,30.21148036,66fa4ebf79326e780c390304,,,,,,,,,,,,,,,,,,,,,1533.1414,1533.1418,1533.1436,1534.3058,0,1,left,0.6056,,1534.3084,1535.1388,1,0,right,1535.1415,1536.0378,1,0,right,1,1536.0379,1536.038,1536.0406,1537.5375,0,28,28,28,1,0.8,0.2,0.8,0.2,,,,,,,,,,,,,,,0.2505,,0.8,0.2,0.4,0.6,0.6,0.4,0.4,0.6,,,0.3338,,0.8,0.2,0.8,0.2,0.2,0.8,0.6,0.4,1,0
,,615e056d45156d8d481b5856,66fc997ecceec9a89d6af203,2024-10-02_03h14.01.024,mdp,2024.2.1,Win32,30.21148036,66fa4ebf79326e780c390304,,,,,,,,,,,,,,,,,,,,,1537.5392,1537.5392,1537.5412,1538.7016,0,0,left,0.6115,,1538.7047,1539.4343,1,0,right,1539.4369,1540.4005,1,1,right,0,1540.4006,1540.4006,1540.4034,1541.8981,0,29,29,29,1,0.8,0.2,0.8,0.2,,,,,,,,,,,,,,,0.1689,,0.8,0.2,0.4,0.6,0.6,0.4,0.4,0.6,,,0.4058,,0.2,0.8,0.4,0.6,0.2,0.8,0.6,0.4,1,0
,,615e056d45156d8d481b5856,66fc997ecceec9a89d6af203,2024-10-02_03h14.01.024,mdp,2024.2.1,Win32,30.21148036,66fa4ebf79326e780c390304,,,,,,,,,,,,,,,,,,,,,1541.8995,1541.8996,1541.9015,1543.0975,0,0,left,0.6472,,1543.1001,1543.9969,1,1,right,1543.9995,1544.6798,0,1,left,0,1544.6799,1544.6799,1544.6814,1546.1611,0,30,30,30,1,0.8,0.2,0.8,0.2,,,,,,,,,,,,,,,0.3331,,0.8,0.2,0.4,0.6,0.6,0.4,0.4,0.6,,,0.101,,0.2,0.8,0.4,0.6,0.2,0.8,0.6,0.4,1,0
,,615e056d45156d8d481b5856,66fc997ecceec9a89d6af203,2024-10-02_03h14.01.024,mdp,2024.2.1,Win32,30.21148036,66fa4ebf79326e780c390304,,,,,,,,,,,,,,,,,,,,,1546.1625,1546.1626,1546.1649,1547.3932,0,1,left,0.6647,,1547.3958,1548.1924,0,1,left,1548.1949,1548.9583,1,1,right,0,1548.9586,1548.9586,1548.9612,1550.4575,0,31,31,31,1,0.8,0.2,0.8,0.2,,,,,,,,,,,,,,,0.2265,,0.8,0.2,0.4,0.6,0.6,0.4,0.4,0.6,,,0.2,,0.2,0.8,0.4,0.6,0.2,0.8,0.6,0.4,1,0
,,615e056d45156d8d481b5856,66fc997ecceec9a89d6af203,2024-10-02_03h14.01.024,mdp,2024.2.1,Win32,30.21148036,66fa4ebf79326e780c390304,,,,,,,,,,,,,,,,,,,,,1550.4591,1550.4591,1550.4612,1551.3891,0,0,left,0.3671,,1551.3916,1552.1558,1,1,right,1552.1579,1553.3207,1,1,right,0,1553.3208,1553.3208,1553.3229,1554.8199,0,32,32,32,1,0.8,0.2,0.8,0.2,,,,,,,,,,,,,,,0.2038,,0.8,0.2,0.4,0.6,0.6,0.4,0.4,0.6,,,0.6011,,0.2,0.8,0.4,0.6,0.2,0.8,0.6,0.4,1,0
,,615e056d45156d8d481b5856,66fc997ecceec9a89d6af203,2024-10-02_03h14.01.024,mdp,2024.2.1,Win32,30.21148036,66fa4ebf79326e780c390304,,,,,,,,,,,,,,,,,,,,,1554.8213,1554.8213,1554.8232,1555.7856,0,0,left,0.4256,,1555.788,1556.751,0,1,left,1556.754,1557.45,0,1,left,0,1557.4501,1557.4501,1557.4527,1558.9487,0,33,33,33,1,0.8,0.2,0.8,0.2,,,,,,,,,,,,,,,0.4059,,0.2,0.8,0.6,0.4,0.6,0.4,0.4,0.6,,,0.1439,,0.2,0.8,0.4,0.6,0.2,0.8,0.6,0.4,1,0
,,615e056d45156d8d481b5856,66fc997ecceec9a89d6af203,2024-10-02_03h14.01.024,mdp,2024.2.1,Win32,30.21148036,66fa4ebf79326e780c390304,,,,,,,,,,,,,,,,,,,,,1558.9492,1558.9495,1558.952,1559.8146,0,0,left,0.3102,,1559.8171,1560.4471,1,0,right,1560.4498,1561.2799,0,1,left,0,1561.28,1561.2801,1561.2826,1562.7783,0,34,34,34,1,0.8,0.2,0.8,0.2,,,,,,,,,,,,,,,0.0735,,0.2,0.8,0.6,0.4,0.6,0.4,0.4,0.6,,,0.2515,,0.4,0.6,0.6,0.4,0.2,0.8,0.6,0.4,1,0
,,615e056d45156d8d481b5856,66fc997ecceec9a89d6af203,2024-10-02_03h14.01.024,mdp,2024.2.1,Win32,30.21148036,66fa4ebf79326e780c390304,,,,,,,,,,,,,,,,,,,,,1562.78,1562.78,1562.7819,1563.4114,1,1,right,0.0756,,1563.4139,1564.0774,0,0,left,1564.0799,1564.6765,1,0,right,1,1564.6769,1564.6769,1564.6796,1566.175,0,35,35,35,1,0.8,0.2,0.8,0.2,,,,,,,,,,,,,,,0.0788,,0.2,0.8,0.6,0.4,0.6,0.4,0.4,0.6,,,0.0492,,0.4,0.6,0.6,0.4,0.2,0.8,0.6,0.4,1,0
,,615e056d45156d8d481b5856,66fc997ecceec9a89d6af203,2024-10-02_03h14.01.024,mdp,2024.2.1,Win32,30.21148036,66fa4ebf79326e780c390304,,,,,,,,,,,,,,,,,,,,,1566.1763,1566.1763,1566.1785,1567.141,1,0,right,0.4065,,1567.1434,1567.9068,0,1,left,1567.9093,1568.7392,1,0,right,1,1568.7394,1568.7394,1568.7417,1570.2384,0,36,36,36,1,0.8,0.2,0.8,0.2,,,,,,,,,,,,,,,0.1717,,0.4,0.6,0.8,0.2,0.6,0.4,0.4,0.6,,,0.2531,,0.4,0.6,0.6,0.4,0.2,0.8,0.6,0.4,1,0
,,615e056d45156d8d481b5856,66fc997ecceec9a89d6af203,2024-10-02_03h14.01.024,mdp,2024.2.1,Win32,30.21148036,66fa4ebf79326e780c390304,,,,,,,,,,,,,,,,,,,,,1570.2392,1570.2392,1570.242,1571.2372,1,0,right,0.4416,,1571.2402,1572.1369,0,0,left,1572.1392,1573.4686,0,0,left,1,1573.469,1573.469,1573.4711,1574.9666,0,37,37,37,1,0.8,0.2,0.8,0.2,,,,,,,,,,,,,,,0.3478,,0.4,0.6,0.8,0.2,0.6,0.4,0.4,0.6,,,0.7484,,0.4,0.6,0.6,0.4,0.2,0.8,0.6,0.4,1,0
,,615e056d45156d8d481b5856,66fc997ecceec9a89d6af203,2024-10-02_03h14.01.024,mdp,2024.2.1,Win32,30.21148036,66fa4ebf79326e780c390304,,,,,,,,,,,,,,,,,,,,,1574.9681,1574.9681,1574.9702,1575.7992,0,0,left,0.2698,,1575.8018,1576.3655,1,0,right,1576.3689,1576.998,1,0,right,1,1576.9982,1576.9982,1577.0473,1578.4963,0,38,38,38,1,0.8,0.2,0.8,0.2,,,,,,,,,,,,,,,0.0138,,0.4,0.6,0.8,0.2,0.6,0.4,0.4,0.6,,,0.0812,,0.4,0.6,0.6,0.4,0.2,0.8,0.6,0.4,1,0
,,615e056d45156d8d481b5856,66fc997ecceec9a89d6af203,2024-10-02_03h14.01.024,mdp,2024.2.1,Win32,30.21148036,66fa4ebf79326e780c390304,,,,,,,,,,,,,,,,,,,,,1578.4989,1578.4989,1578.5005,1579.9952,0,0,left,0.9337,,1579.9978,1580.6614,1,1,right,1580.6641,1581.327,0,0,left,1,1581.3273,1581.3273,1581.3305,1582.8258,0,39,39,39,1,0.8,0.2,0.8,0.2,,,,,,,,,,,,,,,0.1084,,0.8,0.2,0.2,0.8,0.6,0.4,0.4,0.6,,,0.0671,,0.4,0.6,0.6,0.4,0.2,0.8,0.6,0.4,1,0
,,615e056d45156d8d481b5856,66fc997ecceec9a89d6af203,2024-10-02_03h14.01.024,mdp,2024.2.1,Win32,30.21148036,66fa4ebf79326e780c390304,,,,,,,,,,,,,,,,,,,,,1582.8272,1582.8273,1582.8294,1584.4909,1,1,right,1.1222,,1584.4933,1585.1903,0,1,left,1585.1929,1585.8227,1,0,right,1,1585.8228,1585.8229,1585.825,1587.3212,0,40,40,40,1,0.8,0.2,0.8,0.2,,,,,,,,,,,,,,,0.1188,,0.8,0.2,0.2,0.8,0.6,0.4,0.4,0.6,,,0.0676,,0.4,0.6,0.6,0.4,0.2,0.8,0.6,0.4,1,0
,,615e056d45156d8d481b5856,66fc997ecceec9a89d6af203,2024-10-02_03h14.01.024,mdp,2024.2.1,Win32,30.21148036,66fa4ebf79326e780c390304,,,,,,,,,,,,,,,,,,,,,1587.322,1587.3223,1587.3764,1588.421,1,0,right,0.5494,,1588.4235,1589.1529,0,0,left,1589.204,1589.8193,1,1,right,0,1589.8195,1589.8195,1589.822,1591.3172,0,41,41,41,1,0.8,0.2,0.8,0.2,,,,,,,,,,,,,,,0.1537,,0.8,0.2,0.2,0.8,0.6,0.4,0.4,0.6,,,0.0914,,0.4,0.6,0.6,0.4,0.6,0.4,0.2,0.8,1,0
,,615e056d45156d8d481b5856,66fc997ecceec9a89d6af203,2024-10-02_03h14.01.024,mdp,2024.2.1,Win32,30.21148036,66fa4ebf79326e780c390304,,,,,,,,,,,,,,,,,,,,,1591.3187,1591.3187,1591.3206,1592.0839,0,0,left,0.2169,,1592.0869,1592.7827,1,1,right,1592.7854,1593.5495,0,0,left,1,1593.5496,1593.5496,1593.552,1595.0469,0,42,42,42,1,0.8,0.2,0.8,0.2,,,,,,,,,,,,,,,0.1511,,0.8,0.2,0.2,0.8,0.6,0.4,0.4,0.6,,,0.1834,,0.4,0.6,0.6,0.4,0.6,0.4,0.2,0.8,1,0
,,615e056d45156d8d481b5856,66fc997ecceec9a89d6af203,2024-10-02_03h14.01.024,mdp,2024.2.1,Win32,30.21148036,66fa4ebf79326e780c390304,,,,,,,,,,,,,,,,,,,,,1595.0485,1595.0485,1595.0505,1596.0133,1,0,right,0.4032,,1596.016,1596.7456,0,1,left,1596.7491,1597.3456,1,1,right,0,1597.3456,1597.3456,1597.3486,1598.8441,0,43,43,43,1,0.8,0.2,0.8,0.2,,,,,,,,,,,,,,,0.1917,,0.8,0.2,0.2,0.8,0.6,0.4,0.4,0.6,,,0.0484,,0.4,0.6,0.6,0.4,0.6,0.4,0.2,0.8,1,0
,,615e056d45156d8d481b5856,66fc997ecceec9a89d6af203,2024-10-02_03h14.01.024,mdp,2024.2.1,Win32,30.21148036,66fa4ebf79326e780c390304,,,,,,,,,,,,,,,,,,,,,1598.8455,1598.8455,1598.8477,1599.9759,1,0,right,0.5908,,1599.9784,1600.975,0,0,left,1600.9778,1601.6746,0,1,left,0,1601.6748,1601.6748,1601.6765,1603.1726,0,44,44,44,1,0.8,0.2,0.8,0.2,,,,,,,,,,,,,,,0.4354,,0.8,0.2,0.2,0.8,0.6,0.4,0.4,0.6,,,0.1216,,0.4,0.6,0.6,0.4,0.2,0.8,0.6,0.4,1,0
,,615e056d45156d8d481b5856,66fc997ecceec9a89d6af203,2024-10-02_03h14.01.024,mdp,2024.2.1,Win32,30.21148036,66fa4ebf79326e780c390304,,,,,,,,,,,,,,,,,,,,,1603.1742,1603.1743,1603.1758,1610.9325,0,0,left,7.2065,,1610.9348,1612.9634,1,1,right,1612.966,1613.6305,0,1,left,0,1613.6307,1613.6307,1613.6331,1615.1278,0,45,45,45,1,0.8,0.2,0.8,0.2,,,,,,,,,,,,,,,1.4897,,0.8,0.2,0.2,0.8,0.6,0.4,0.4,0.6,,,0.0864,,0.4,0.6,0.6,0.4,0.2,0.8,0.6,0.4,1,0
,,615e056d45156d8d481b5856,66fc997ecceec9a89d6af203,2024-10-02_03h14.01.024,mdp,2024.2.1,Win32,30.21148036,66fa4ebf79326e780c390304,,,,,,,,,,,,,,,,,,,,,1615.1292,1615.1292,1615.1311,1616.0609,1,0,right,0.3767,,1616.0636,1616.6597,0,0,left,1616.6623,1618.025,1,1,right,0,1618.0252,1618.0252,1618.0277,1619.5241,0,46,46,46,1,0.8,0.2,0.8,0.2,,,,,,,,,,,,,,,0.0349,,0.8,0.2,0.2,0.8,0.6,0.4,0.4,0.6,,,0.7754,,0.4,0.6,0.6,0.4,0.2,0.8,0.6,0.4,1,0
,,615e056d45156d8d481b5856,66fc997ecceec9a89d6af203,2024-10-02_03h14.01.024,mdp,2024.2.1,Win32,30.21148036,66fa4ebf79326e780c390304,,,,,,,,,,,,,,,,,,,,,1619.5252,1619.5252,1619.5271,1620.4561,0,0,left,0.3819,,1620.4587,1621.0892,1,1,right,1621.0918,1621.8551,0,1,left,0,1621.8552,1621.8552,1621.8577,1623.353,0,47,47,47,1,0.8,0.2,0.8,0.2,,,,,,,,,,,,,,,0.0636,,0.8,0.2,0.2,0.8,0.6,0.4,0.4,0.6,,,0.1985,,0.4,0.6,0.6,0.4,0.2,0.8,0.6,0.4,1,0
,,615e056d45156d8d481b5856,66fc997ecceec9a89d6af203,2024-10-02_03h14.01.024,mdp,2024.2.1,Win32,30.21148036,66fa4ebf79326e780c390304,,,,,,,,,,,,,,,,,,,,,1623.3541,1623.3541,1623.3558,1624.2861,0,0,left,0.3827,,1624.2889,1625.0849,0,0,left,1625.0876,1625.684,1,0,right,1,1625.6844,1625.6844,1625.6857,1627.1828,0,48,48,48,1,0.8,0.2,0.8,0.2,,,,,,,,,,,,,,,0.2474,,0.8,0.2,0.2,0.8,0.6,0.4,0.4,0.6,,,0.0089,,0.4,0.6,0.6,0.4,0.2,0.8,0.6,0.4,1,0
,,615e056d45156d8d481b5856,66fc997ecceec9a89d6af203,2024-10-02_03h14.01.024,mdp,2024.2.1,Win32,30.21148036,66fa4ebf79326e780c390304,,,,,,,,,,,,,,,,,,,,,1627.1844,1627.1844,1627.1865,1628.3155,1,0,right,0.5745,,1628.318,1629.0149,0,0,left,1629.0175,1629.8137,1,0,right,1,1629.8139,1629.8139,1629.8163,1631.3119,0,49,49,49,1,0.8,0.2,0.8,0.2,,,,,,,,,,,,,,,0.1534,,0.8,0.2,0.2,0.8,0.6,0.4,0.4,0.6,,,0.2374,,0.4,0.6,0.6,0.4,0.2,0.8,0.6,0.4,1,0
,,615e056d45156d8d481b5856,66fc997ecceec9a89d6af203,2024-10-02_03h14.01.024,mdp,2024.2.1,Win32,30.21148036,66fa4ebf79326e780c390304,,,,,,,,,,,,,,,,,,,,,,,,,,,,,,,,,,,,,,,,,,,,,,,,,,,,,,,,1631.3646,1689.8227,0,2,2,7,1,imgs/goat.png,imgs/bear.png,imgs/pig.png,imgs/dog.png,imgs/cat.png,,,,,,,,,,,,,,,,,,,,,,,,
,,615e056d45156d8d481b5856,66fc997ecceec9a89d6af203,2024-10-02_03h14.01.024,mdp,2024.2.1,Win32,30.21148036,66fa4ebf79326e780c390304,,,,,,,,,,,,,,3,seqs/st3seq26.csv,1689.8243,1710.4361,space,20.0588,,1710.4519,1710.452,1710.4538,1715.5319,1,1,right,4.5182,,1715.5345,1716.4965,0,0,left,1716.4988,1717.1298,1,0,right,1,1717.1299,1717.1299,1717.1326,1718.6283,0,0,0,0,1,0.6,0.4,0.4,0.6,,,,,,,,,,,,,,,0.4032,,0.6,0.4,0.4,0.6,0.4,0.6,0.2,0.8,,,0.0608,,0.8,0.2,0.8,0.2,0.4,0.6,0.4,0.6,1,0
,,615e056d45156d8d481b5856,66fc997ecceec9a89d6af203,2024-10-02_03h14.01.024,mdp,2024.2.1,Win32,30.21148036,66fa4ebf79326e780c390304,,,,,,,,,,,,,,,,,,,,,1718.6297,1718.6298,1718.6318,1719.5943,0,1,left,0.4079,,1719.5969,1720.3933,0,0,left,1720.3961,1721.8249,1,0,right,1,1721.825,1721.825,1721.8276,1723.3237,0,1,1,1,1,0.6,0.4,0.4,0.6,,,,,,,,,,,,,,,0.2358,,0.6,0.4,0.4,0.6,0.4,0.6,0.2,0.8,,,0.869,,0.2,0.8,0.6,0.4,0.4,0.6,0.4,0.6,1,0
,,615e056d45156d8d481b5856,66fc997ecceec9a89d6af203,2024-10-02_03h14.01.024,mdp,2024.2.1,Win32,30.21148036,66fa4ebf79326e780c390304,,,,,,,,,,,,,,,,,,,,,1723.3249,1723.3249,1723.327,1724.0228,0,1,left,0.1584,,1724.0253,1724.8221,1,1,right,1724.8248,1725.5215,0,0,left,1,1725.5216,1725.5216,1725.5239,1727.0193,0,2,2,2,1,0.6,0.4,0.4,0.6,,,,,,,,,,,,,,,0.2337,,0.6,0.4,0.4,0.6,0.8,0.2,0.8,0.2,,,0.0826,,0.2,0.8,0.6,0.4,0.4,0.6,0.4,0.6,1,0
,,615e056d45156d8d481b5856,66fc997ecceec9a89d6af203,2024-10-02_03h14.01.024,mdp,2024.2.1,Win32,30.21148036,66fa4ebf79326e780c390304,,,,,,,,,,,,,,,,,,,,,1727.0201,1727.0201,1727.0217,1727.9197,0,0,left,0.3336,,1727.9222,1728.4853,1,0,right,1728.4882,1729.7844,0,1,left,0,1729.7846,1729.7846,1729.7869,1731.2822,0,3,3,3,1,0.6,0.4,0.4,0.6,,,,,,,,,,,,,,,0.0008,,0.6,0.4,0.4,0.6,0.4,0.6,0.4,0.6,,,0.6678,,0.2,0.8,0.6,0.4,0.4,0.6,0.4,0.6,1,0
,,615e056d45156d8d481b5856,66fc997ecceec9a89d6af203,2024-10-02_03h14.01.024,mdp,2024.2.1,Win32,30.21148036,66fa4ebf79326e780c390304,,,,,,,,,,,,,,,,,,,,,1731.2834,1731.2835,1731.285,1732.2486,0,1,left,0.4051,,1732.2514,1732.9805,1,1,right,1732.9822,1734.1464,0,1,left,0,1734.1468,1734.1468,1734.1487,1735.6448,0,4,4,4,1,0.6,0.4,0.4,0.6,,,,,,,,,,,,,,,0.1682,,0.6,0.4,0.4,0.6,0.4,0.6,0.4,0.6,,,0.5887,,0.2,0.8,0.6,0.4,0.4,0.6,0.4,0.6,1,0
,,615e056d45156d8d481b5856,66fc997ecceec9a89d6af203,2024-10-02_03h14.01.024,mdp,2024.2.1,Win32,30.21148036,66fa4ebf79326e780c390304,,,,,,,,,,,,,,,,,,,,,1735.6462,1735.6462,1735.6956,1736.5778,0,1,left,0.3688,,1736.5804,1737.1767,0,1,left,1737.1794,1738.3088,0,0,left,1,1738.309,1738.309,1738.3114,1739.8075,0,5,5,5,1,0.6,0.4,0.4,0.6,,,,,,,,,,,,,,,0.0487,,0.6,0.4,0.4,0.6,0.4,0.6,0.4,0.6,,,0.5677,,0.2,0.8,0.6,0.4,0.4,0.6,0.4,0.6,1,0
,,615e056d45156d8d481b5856,66fc997ecceec9a89d6af203,2024-10-02_03h14.01.024,mdp,2024.2.1,Win32,30.21148036,66fa4ebf79326e780c390304,,,,,,,,,,,,,,,,,,,,,1739.8088,1739.8088,1739.8107,1740.9066,0,1,left,0.5433,,1740.9089,1741.7064,0,1,left,1741.7087,1742.6055,0,1,left,0,1742.6058,1742.6058,1742.6084,1744.1042,0,6,6,6,1,0.6,0.4,0.4,0.6,,,,,,,,,,,,,,,0.2885,,0.6,0.4,0.4,0.6,0.4,0.6,0.4,0.6,,,0.3547,,0.2,0.8,0.6,0.4,0.4,0.6,0.4,0.6,1,0
,,615e056d45156d8d481b5856,66fc997ecceec9a89d6af203,2024-10-02_03h14.01.024,mdp,2024.2.1,Win32,30.21148036,66fa4ebf79326e780c390304,,,,,,,,,,,,,,,,,,,,,1744.106,1744.106,1744.1078,1745.3019,0,0,left,0.6474,,1745.3035,1746.2181,1,1,right,1746.2206,1747.1509,0,0,left,1,1747.1511,1747.1511,1747.1535,1748.649,0,7,7,7,1,0.8,0.2,0.6,0.4,,,,,,,,,,,,,,,0.3488,,0.6,0.4,0.4,0.6,0.4,0.6,0.4,0.6,,,0.3892,,0.2,0.8,0.6,0.4,0.4,0.6,0.4,0.6,1,0
,,615e056d45156d8d481b5856,66fc997ecceec9a89d6af203,2024-10-02_03h14.01.024,mdp,2024.2.1,Win32,30.21148036,66fa4ebf79326e780c390304,,,,,,,,,,,,,,,,,,,,,1748.6506,1748.6506,1748.7046,1749.7821,1,0,right,0.5836,,1749.7845,1750.6473,0,0,left,1750.65,1752.2791,1,0,right,1,1752.2791,1752.2791,1752.2817,1753.7781,0,8,8,8,1,0.8,0.2,0.6,0.4,,,,,,,,,,,,,,,0.325,,0.6,0.4,0.4,0.6,0.4,0.6,0.4,0.6,,,1.0496,,0.2,0.8,0.6,0.4,0.4,0.6,0.4,0.6,1,0
,,615e056d45156d8d481b5856,66fc997ecceec9a89d6af203,2024-10-02_03h14.01.024,mdp,2024.2.1,Win32,30.21148036,66fa4ebf79326e780c390304,,,,,,,,,,,,,,,,,,,,,1753.7798,1753.7798,1753.7813,1754.6434,0,1,left,0.3008,,1754.646,1755.3429,1,1,right,1755.3452,1755.9753,0,0,left,1,1755.9755,1755.9755,1755.9781,1757.4742,0,9,9,9,1,0.8,0.2,0.6,0.4,,,,,,,,,,,,,,,0.1376,,0.6,0.4,0.4,0.6,0.4,0.6,0.4,0.6,,,0.0681,,0.2,0.8,0.6,0.4,0.4,0.6,0.4,0.6,1,0
,,615e056d45156d8d481b5856,66fc997ecceec9a89d6af203,2024-10-02_03h14.01.024,mdp,2024.2.1,Win32,30.21148036,66fa4ebf79326e780c390304,,,,,,,,,,,,,,,,,,,,,1757.4753,1757.4753,1757.4772,1758.1736,0,0,left,0.1343,,1758.1762,1759.1727,1,0,right,1759.1752,1760.371,0,1,left,0,1760.3712,1760.3712,1760.3747,1761.8702,0,10,10,10,1,0.8,0.2,0.6,0.4,,,,,,,,,,,,,,,0.4217,,0.6,0.4,0.4,0.6,0.4,0.6,0.4,0.6,,,0.6396,,0.2,0.8,0.6,0.4,0.4,0.6,0.4,0.6,1,0
,,615e056d45156d8d481b5856,66fc997ecceec9a89d6af203,2024-10-02_03h14.01.024,mdp,2024.2.1,Win32,30.21148036,66fa4ebf79326e780c390304,,,,,,,,,,,,,,,,,,,,,1761.8712,1761.8716,1761.8735,1762.4358,0,0,left,0.0048,,1762.4384,1763.1023,1,1,right,1763.1053,1763.8345,1,0,right,1,1763.8346,1763.8346,1763.8373,1765.3329,0,11,11,11,1,0.8,0.2,0.6,0.4,,,,,,,,,,,,,,,0.0999,,0.6,0.4,0.4,0.6,0.4,0.6,0.4,0.6,,,0.1532,,0.2,0.8,0.6,0.4,0.4,0.6,0.4,0.6,1,0
,,615e056d45156d8d481b5856,66fc997ecceec9a89d6af203,2024-10-02_03h14.01.024,mdp,2024.2.1,Win32,30.21148036,66fa4ebf79326e780c390304,,,,,,,,,,,,,,,,,,,,,1765.3344,1765.3344,1765.3362,1766.0996,1,1,right,0.2008,,1766.1023,1766.7316,1,1,right,1766.7348,1767.5322,1,0,right,1,1767.5323,1767.5323,1767.5339,1769.0298,0,12,12,12,1,0.8,0.2,0.6,0.4,,,,,,,,,,,,,,,0.0512,,0.6,0.4,0.4,0.6,0.4,0.6,0.4,0.6,,,0.26,,0.2,0.8,0.6,0.4,0.4,0.6,0.4,0.6,1,0
,,615e056d45156d8d481b5856,66fc997ecceec9a89d6af203,2024-10-02_03h14.01.024,mdp,2024.2.1,Win32,30.21148036,66fa4ebf79326e780c390304,,,,,,,,,,,,,,,,,,,,,1769.0314,1769.0314,1769.0332,1770.4288,1,1,right,0.8499,,1770.4314,1771.3608,1,1,right,1771.3633,1771.9932,1,1,right,0,1771.9934,1771.9934,1771.996,1773.4916,0,13,13,13,1,0.8,0.2,0.6,0.4,,,,,,,,,,,,,,,0.3913,,0.6,0.4,0.4,0.6,0.4,0.6,0.4,0.6,,,0.0838,,0.2,0.8,0.6,0.4,0.4,0.6,0.4,0.6,1,0
,,615e056d45156d8d481b5856,66fc997ecceec9a89d6af203,2024-10-02_03h14.01.024,mdp,2024.2.1,Win32,30.21148036,66fa4ebf79326e780c390304,,,,,,,,,,,,,,,,,,,,,1773.4923,1773.4923,1773.4936,1774.7574,0,1,left,0.7087,,1774.7587,1776.6228,0,1,left,1776.6251,1777.388,1,0,right,1,1777.3881,1777.3882,1777.391,1778.8863,0,14,14,14,1,0.8,0.2,0.6,0.4,,,,,,,,,,,,,,,1.3084,,0.6,0.4,0.4,0.6,0.4,0.6,0.4,0.6,,,0.2213,,0.2,0.8,0.6,0.4,0.4,0.6,0.4,0.6,1,0
,,615e056d45156d8d481b5856,66fc997ecceec9a89d6af203,2024-10-02_03h14.01.024,mdp,2024.2.1,Win32,30.21148036,66fa4ebf79326e780c390304,,,,,,,,,,,,,,,,,,,,,1778.8879,1778.888,1778.8901,1779.9191,0,0,left,0.4731,,1779.9219,1780.6521,0,0,left,1780.6548,1781.2525,1,1,right,0,1781.2526,1781.2527,1781.2549,1782.7495,0,15,15,15,1,0.8,0.2,0.6,0.4,,,,,,,,,,,,,,,0.1562,,0.6,0.4,0.4,0.6,0.4,0.6,0.4,0.6,,,0.0167,,0.2,0.8,0.6,0.4,0.4,0.6,0.4,0.6,1,0
,,615e056d45156d8d481b5856,66fc997ecceec9a89d6af203,2024-10-02_03h14.01.024,mdp,2024.2.1,Win32,30.21148036,66fa4ebf79326e780c390304,,,,,,,,,,,,,,,,,,,,,1782.7506,1782.7506,1782.7526,1783.7494,0,0,left,0.436,,1783.7519,1784.5154,1,0,right,1784.5178,1785.7471,0,1,left,0,1785.7474,1785.7474,1785.7496,1787.2456,0,16,16,16,1,0.8,0.2,0.6,0.4,,,,,,,,,,,,,,,0.2019,,0.6,0.4,0.4,0.6,0.2,0.8,0.6,0.4,,,0.6919,,0.2,0.8,0.6,0.4,0.4,0.6,0.4,0.6,1,0
,,615e056d45156d8d481b5856,66fc997ecceec9a89d6af203,2024-10-02_03h14.01.024,mdp,2024.2.1,Win32,30.21148036,66fa4ebf79326e780c390304,,,,,,,,,,,,,,,,,,,,,1787.2469,1787.247,1787.2489,1788.1108,1,0,right,0.313,,1788.1137,1788.7437,0,0,left,1788.7464,1789.3103,1,1,right,0,1789.3108,1789.3108,1789.3128,1790.8081,0,17,17,17,1,0.8,0.2,0.6,0.4,,,,,,,,,,,,,,,0.0929,,0.6,0.4,0.4,0.6,0.2,0.8,0.6,0.4,,,0.0191,,0.2,0.8,0.6,0.4,0.4,0.6,0.4,0.6,1,0
,,615e056d45156d8d481b5856,66fc997ecceec9a89d6af203,2024-10-02_03h14.01.024,mdp,2024.2.1,Win32,30.21148036,66fa4ebf79326e780c390304,,,,,,,,,,,,,,,,,,,,,1790.8094,1790.8095,1790.8114,1791.4412,0,0,left,0.0665,,1791.4437,1792.3408,0,0,left,1792.3432,1793.2397,0,1,left,0,1793.2404,1793.2404,1793.2426,1794.7385,0,18,18,18,1,0.8,0.2,0.6,0.4,,,,,,,,,,,,,,,0.337,,0.6,0.4,0.4,0.6,0.2,0.8,0.6,0.4,,,0.3366,,0.6,0.4,0.8,0.2,0.4,0.6,0.4,0.6,1,0
,,615e056d45156d8d481b5856,66fc997ecceec9a89d6af203,2024-10-02_03h14.01.024,mdp,2024.2.1,Win32,30.21148036,66fa4ebf79326e780c390304,,,,,,,,,,,,,,,,,,,,,1794.7398,1794.7398,1794.7419,1795.4708,1,1,right,0.1883,,1795.4732,1796.2038,0,0,left,1796.2059,1796.7695,0,0,left,1,1796.7697,1796.7697,1796.7723,1798.2683,0,19,19,19,1,0.8,0.2,0.6,0.4,,,,,,,,,,,,,,,0.1596,,0.6,0.4,0.4,0.6,0.2,0.8,0.6,0.4,,,0.0123,,0.6,0.4,0.8,0.2,0.4,0.6,0.4,0.6,1,0
,,615e056d45156d8d481b5856,66fc997ecceec9a89d6af203,2024-10-02_03h14.01.024,mdp,2024.2.1,Win32,30.21148036,66fa4ebf79326e780c390304,,,,,,,,,,,,,,,,,,,,,1798.2689,1798.269,1798.2709,1799.067,0,0,left,0.2348,,1799.0699,1799.7662,1,0,right,1799.7676,1800.6325,0,0,left,1,1800.6329,1800.6329,1800.6352,1802.1309,0,20,20,20,1,0.8,0.2,0.6,0.4,,,,,,,,,,,,,,,0.0669,,0.6,0.4,0.4,0.6,0.2,0.8,0.6,0.4,,,0.3336,,0.6,0.4,0.8,0.2,0.4,0.6,0.4,0.6,1,0
,,615e056d45156d8d481b5856,66fc997ecceec9a89d6af203,2024-10-02_03h14.01.024,mdp,2024.2.1,Win32,30.21148036,66fa4ebf79326e780c390304,,,,,,,,,,,,,,,,,,,,,1802.1326,1802.1329,1802.1343,1814.2192,0,1,left,11.533,,1814.2216,1814.8852,1,1,right,1814.8878,1815.8509,1,1,right,0,1815.8512,1815.8514,1815.8539,1817.3492,0,21,21,21,1,0.8,0.2,0.6,0.4,,,,,,,,,,,,,,,0.0944,,0.6,0.4,0.4,0.6,0.2,0.8,0.6,0.4,,,0.4028,,0.6,0.4,0.8,0.2,0.4,0.6,0.4,0.6,1,0
,,615e056d45156d8d481b5856,66fc997ecceec9a89d6af203,2024-10-02_03h14.01.024,mdp,2024.2.1,Win32,30.21148036,66fa4ebf79326e780c390304,,,,,,,,,,,,,,,,,,,,,1817.3508,1817.3509,1817.3529,1818.482,1,1,right,0.5863,,1818.4844,1819.2809,0,1,left,1819.2829,1819.9811,1,1,right,0,1819.9813,1819.9813,1819.9833,1821.4787,0,22,22,22,1,0.8,0.2,0.6,0.4,,,,,,,,,,,,,,,0.2604,,0.6,0.4,0.4,0.6,0.2,0.8,0.6,0.4,,,0.1617,,0.6,0.4,0.8,0.2,0.4,0.6,0.4,0.6,1,0
,,615e056d45156d8d481b5856,66fc997ecceec9a89d6af203,2024-10-02_03h14.01.024,mdp,2024.2.1,Win32,30.21148036,66fa4ebf79326e780c390304,,,,,,,,,,,,,,,,,,,,,1821.4798,1821.4798,1821.4821,1822.3119,0,0,left,0.2363,,1822.3145,1822.9776,1,1,right,1822.9802,1823.977,1,1,right,0,1823.9773,1823.9774,1823.9798,1825.4751,0,23,23,23,1,0.8,0.2,0.6,0.4,,,,,,,,,,,,,,,0.0875,,0.6,0.4,0.4,0.6,0.2,0.8,0.6,0.4,,,0.4492,,0.6,0.4,0.8,0.2,0.4,0.6,0.4,0.6,1,0
,,615e056d45156d8d481b5856,66fc997ecceec9a89d6af203,2024-10-02_03h14.01.024,mdp,2024.2.1,Win32,30.21148036,66fa4ebf79326e780c390304,,,,,,,,,,,,,,,,,,,,,1825.4763,1825.4763,1825.4781,1826.5077,0,0,left,0.4722,,1826.51,1827.2402,1,1,right,1827.243,1827.8062,0,1,left,0,1827.8065,1827.8065,1827.8091,1829.3041,0,24,24,24,1,0.8,0.2,0.6,0.4,,,,,,,,,,,,,,,0.1679,,0.6,0.4,0.4,0.6,0.2,0.8,0.6,0.4,,,0.0006,,0.6,0.4,0.8,0.2,0.4,0.6,0.4,0.6,1,0
,,615e056d45156d8d481b5856,66fc997ecceec9a89d6af203,2024-10-02_03h14.01.024,mdp,2024.2.1,Win32,30.21148036,66fa4ebf79326e780c390304,,,,,,,,,,,,,,,,,,,,,1829.3047,1829.3047,1829.3064,1830.3715,0,0,left,0.5198,,1830.3736,1831.0366,0,1,left,1831.0391,1831.9027,0,1,left,0,1831.9029,1831.9029,1831.9056,1833.4006,0,25,25,25,1,0.8,0.2,0.6,0.4,,,,,,,,,,,,,,,0.1103,,0.6,0.4,0.4,0.6,0.2,0.8,0.6,0.4,,,0.3268,,0.6,0.4,0.8,0.2,0.4,0.6,0.4,0.6,1,0
,,615e056d45156d8d481b5856,66fc997ecceec9a89d6af203,2024-10-02_03h14.01.024,mdp,2024.2.1,Win32,30.21148036,66fa4ebf79326e780c390304,,,,,,,,,,,,,,,,,,,,,1833.4018,1833.4019,1833.4038,1834.0669,0,0,left,0.1128,,1834.0697,1834.6339,1,0,right,1834.6363,1835.2325,0,0,left,1,1835.2327,1835.2327,1835.2348,1836.7307,0,26,26,26,1,0.8,0.2,0.6,0.4,,,,,,,,,,,,,,,0.0028,,0.6,0.4,0.4,0.6,0.2,0.8,0.6,0.4,,,0.0187,,0.6,0.4,0.8,0.2,0.4,0.6,0.4,0.6,1,0
,,615e056d45156d8d481b5856,66fc997ecceec9a89d6af203,2024-10-02_03h14.01.024,mdp,2024.2.1,Win32,30.21148036,66fa4ebf79326e780c390304,,,,,,,,,,,,,,,,,,,,,1836.7319,1836.7319,1836.786,1837.3969,0,0,left,0.0991,,1837.3994,1838.1962,1,1,right,1838.1987,1838.8287,0,1,left,0,1838.8287,1838.8287,1838.8317,1840.3273,0,27,27,27,1,0.8,0.2,0.6,0.4,,,,,,,,,,,,,,,0.2562,,0.6,0.4,0.4,0.6,0.2,0.8,0.6,0.4,,,0.0689,,0.6,0.4,0.8,0.2,0.4,0.6,0.4,0.6,1,0
,,615e056d45156d8d481b5856,66fc997ecceec9a89d6af203,2024-10-02_03h14.01.024,mdp,2024.2.1,Win32,30.21148036,66fa4ebf79326e780c390304,,,,,,,,,,,,,,,,,,,,,1840.3288,1840.3288,1840.3306,1840.9608,0,0,left,0.066,,1840.9638,1841.5262,1,1,right,1841.5291,1842.5918,0,1,left,0,1842.5922,1842.5922,1842.5945,1844.0902,0,28,28,28,1,0.8,0.2,0.6,0.4,,,,,,,,,,,,,,,0.0071,,0.6,0.4,0.4,0.6,0.2,0.8,0.6,0.4,,,0.5026,,0.6,0.4,0.8,0.2,0.4,0.6,0.4,0.6,1,0
,,615e056d45156d8d481b5856,66fc997ecceec9a89d6af203,2024-10-02_03h14.01.024,mdp,2024.2.1,Win32,30.21148036,66fa4ebf79326e780c390304,,,,,,,,,,,,,,,,,,,,,1844.0911,1844.0912,1844.0933,1844.7568,0,0,left,0.1193,,1844.7596,1845.7223,1,0,right,1845.7249,1846.8546,1,0,right,1,1846.8549,1846.855,1846.8578,1848.3526,0,29,29,29,1,0.8,0.2,0.6,0.4,,,,,,,,,,,,,,,0.4221,,0.6,0.4,0.4,0.6,0.2,0.8,0.6,0.4,,,0.5742,,0.6,0.4,0.8,0.2,0.4,0.6,0.4,0.6,1,0
,,615e056d45156d8d481b5856,66fc997ecceec9a89d6af203,2024-10-02_03h14.01.024,mdp,2024.2.1,Win32,30.21148036,66fa4ebf79326e780c390304,,,,,,,,,,,,,,,,,,,,,1848.3539,1848.3539,1848.3559,1849.7519,1,1,right,0.834,,1849.7544,1850.4841,0,0,left,1850.4868,1851.0841,0,0,left,1,1851.0843,1851.0844,1851.0879,1852.5825,0,30,30,30,1,0.8,0.2,0.6,0.4,,,,,,,,,,,,,,,0.1821,,0.6,0.4,0.4,0.6,0.2,0.8,0.6,0.4,,,0.0591,,0.6,0.4,0.8,0.2,0.4,0.6,0.4,0.6,1,0
,,615e056d45156d8d481b5856,66fc997ecceec9a89d6af203,2024-10-02_03h14.01.024,mdp,2024.2.1,Win32,30.21148036,66fa4ebf79326e780c390304,,,,,,,,,,,,,,,,,,,,,1852.5837,1852.5838,1852.5855,1856.9115,0,1,left,3.7742,,1856.9141,1861.2078,0,1,left,1861.2104,1865.3867,0,0,left,1,1865.3867,1865.3868,1865.3895,1866.8851,0,31,31,31,1,0.8,0.2,0.6,0.4,,,,,,,,,,,,,,,3.7382,,0.6,0.4,0.4,0.6,0.2,0.8,0.6,0.4,,,3.6244,,0.6,0.4,0.8,0.2,0.4,0.6,0.4,0.6,1,0
,,615e056d45156d8d481b5856,66fc997ecceec9a89d6af203,2024-10-02_03h14.01.024,mdp,2024.2.1,Win32,30.21148036,66fa4ebf79326e780c390304,,,,,,,,,,,,,,,,,,,,,1866.8867,1866.8867,1866.8886,1868.0675,1,1,right,0.6559,,1868.0701,1868.667,0,1,left,1868.6698,1869.5994,0,0,left,1,1869.5995,1869.5996,1869.6018,1871.0978,0,32,32,32,1,0.8,0.2,0.6,0.4,,,,,,,,,,,,,,,0.0412,,0.6,0.4,0.4,0.6,0.2,0.8,0.6,0.4,,,0.3709,,0.6,0.4,0.8,0.2,0.4,0.6,0.4,0.6,1,0
,,615e056d45156d8d481b5856,66fc997ecceec9a89d6af203,2024-10-02_03h14.01.024,mdp,2024.2.1,Win32,30.21148036,66fa4ebf79326e780c390304,,,,,,,,,,,,,,,,,,,,,1871.0995,1871.0996,1871.1014,1871.7636,1,1,right,0.1059,,1871.7662,1872.7304,1,0,right,1872.7324,1873.6627,1,0,right,1,1873.6628,1873.6628,1873.6652,1875.1606,0,33,33,33,1,0.8,0.2,0.6,0.4,,,,,,,,,,,,,,,0.406,,0.6,0.4,0.4,0.6,0.2,0.8,0.6,0.4,,,0.3853,,0.6,0.4,0.8,0.2,0.4,0.6,0.4,0.6,1,0
,,615e056d45156d8d481b5856,66fc997ecceec9a89d6af203,2024-10-02_03h14.01.024,mdp,2024.2.1,Win32,30.21148036,66fa4ebf79326e780c390304,,,,,,,,,,,,,,,,,,,,,1875.1621,1875.1621,1875.1638,1876.2263,0,1,left,0.5073,,1876.2289,1876.8588,1,0,right,1876.8613,1877.5582,0,1,left,0,1877.5583,1877.5583,1877.5608,1879.0573,0,34,34,34,1,0.8,0.2,0.6,0.4,,,,,,,,,,,,,,,0.0674,,0.6,0.4,0.4,0.6,0.2,0.8,0.6,0.4,,,0.1488,,0.6,0.4,0.8,0.2,0.4,0.6,0.4,0.6,1,0
,,615e056d45156d8d481b5856,66fc997ecceec9a89d6af203,2024-10-02_03h14.01.024,mdp,2024.2.1,Win32,30.21148036,66fa4ebf79326e780c390304,,,,,,,,,,,,,,,,,,,,,1879.0588,1879.0588,1879.0608,1879.6227,0,0,left,0.0089,,1879.6255,1880.1892,1,1,right,1880.192,1882.853,0,1,left,0,1882.8532,1882.8532,1882.8555,1884.3515,0,35,35,35,1,0.8,0.2,0.6,0.4,,,,,,,,,,,,,,,0.0014,,0.6,0.4,0.4,0.6,0.2,0.8,0.6,0.4,,,2.0879,,0.6,0.4,0.8,0.2,0.4,0.6,0.4,0.6,1,0
,,615e056d45156d8d481b5856,66fc997ecceec9a89d6af203,2024-10-02_03h14.01.024,mdp,2024.2.1,Win32,30.21148036,66fa4ebf79326e780c390304,,,,,,,,,,,,,,,,,,,,,1884.3529,1884.3529,1884.355,1885.5839,0,0,left,0.6678,,1885.5869,1886.283,0,1,left,1886.2857,1886.849,0,1,left,0,1886.8493,1886.8493,1886.8517,1888.3481,0,36,36,36,1,0.8,0.2,0.6,0.4,,,,,,,,,,,,,,,0.148,,0.6,0.4,0.4,0.6,0.2,0.8,0.6,0.4,,,0.0039,,0.6,0.4,0.8,0.2,0.4,0.6,0.4,0.6,1,0
,,615e056d45156d8d481b5856,66fc997ecceec9a89d6af203,2024-10-02_03h14.01.024,mdp,2024.2.1,Win32,30.21148036,66fa4ebf79326e780c390304,,,,,,,,,,,,,,,,,,,,,1888.3496,1888.3497,1888.3519,1889.4134,1,1,right,0.4993,,1889.4168,1890.1132,0,1,left,1890.1162,1891.3454,1,1,right,0,1891.3457,1891.3457,1891.3481,1892.8434,0,37,37,37,1,0.8,0.2,0.6,0.4,,,,,,,,,,,,,,,0.1314,0.0086,0.6,0.4,0.4,0.6,0.2,0.8,0.6,0.4,,,0.6671,,0.6,0.4,0.8,0.2,0.4,0.6,0.4,0.6,1,0
,,615e056d45156d8d481b5856,66fc997ecceec9a89d6af203,2024-10-02_03h14.01.024,mdp,2024.2.1,Win32,30.21148036,66fa4ebf79326e780c390304,,,,,,,,,,,,,,,,,,,,,1892.845,1892.845,1892.8467,1893.9099,1,0,right,0.5255,,1893.9124,1894.9744,0,0,left,1894.9774,1895.9739,1,0,right,1,1895.9739,1895.974,1895.9752,1897.4724,0,38,38,38,1,0.8,0.2,0.6,0.4,,,,,,,,,,,,,,,0.484,,0.4,0.6,0.8,0.2,0.2,0.8,0.6,0.4,,,0.4505,,0.6,0.4,0.8,0.2,0.4,0.6,0.4,0.6,1,0
,,615e056d45156d8d481b5856,66fc997ecceec9a89d6af203,2024-10-02_03h14.01.024,mdp,2024.2.1,Win32,30.21148036,66fa4ebf79326e780c390304,,,,,,,,,,,,,,,,,,,,,1897.4733,1897.4733,1897.4755,1898.6046,1,1,right,0.578,,1898.6077,1899.4703,0,1,left,1899.473,1900.1032,1,1,right,0,1900.1033,1900.1033,1900.1057,1901.6018,0,39,39,39,1,0.8,0.2,0.6,0.4,,,,,,,,,,,,,,,0.2919,,0.4,0.6,0.8,0.2,0.2,0.8,0.6,0.4,,,0.0769,,0.6,0.4,0.8,0.2,0.4,0.6,0.4,0.6,1,0
,,615e056d45156d8d481b5856,66fc997ecceec9a89d6af203,2024-10-02_03h14.01.024,mdp,2024.2.1,Win32,30.21148036,66fa4ebf79326e780c390304,,,,,,,,,,,,,,,,,,,,,1901.6032,1901.6032,1901.6052,1902.6346,0,1,left,0.4762,,1902.6372,1904.3325,1,0,right,1904.3351,1905.1318,1,0,right,1,1905.132,1905.1321,1905.1345,1906.631,0,40,40,40,1,0.8,0.2,0.6,0.4,,,,,,,,,,,,,,,1.1342,,0.4,0.6,0.8,0.2,0.2,0.8,0.6,0.4,,,0.2439,,0.6,0.4,0.8,0.2,0.4,0.6,0.4,0.6,1,0
,,615e056d45156d8d481b5856,66fc997ecceec9a89d6af203,2024-10-02_03h14.01.024,mdp,2024.2.1,Win32,30.21148036,66fa4ebf79326e780c390304,,,,,,,,,,,,,,,,,,,,,1906.6325,1906.6325,1906.6341,1908.595,0,0,left,1.3994,,1908.5977,1909.5937,1,1,right,1909.5964,1910.5601,0,1,left,0,1910.5603,1910.5606,1910.5634,1912.0582,0,41,41,41,1,0.8,0.2,0.6,0.4,,,,,,,,,,,,,,,0.4245,,0.4,0.6,0.8,0.2,0.2,0.8,0.6,0.4,,,0.4016,,0.6,0.4,0.8,0.2,0.4,0.6,0.4,0.6,1,0
,,615e056d45156d8d481b5856,66fc997ecceec9a89d6af203,2024-10-02_03h14.01.024,mdp,2024.2.1,Win32,30.21148036,66fa4ebf79326e780c390304,,,,,,,,,,,,,,,,,,,,,1912.0597,1912.0597,1912.0616,1913.0909,1,1,right,0.4885,,1913.0933,1913.9563,1,0,right,1913.9588,1914.8893,1,0,right,1,1914.8894,1914.8894,1914.8917,1916.3873,0,42,42,42,1,0.8,0.2,0.6,0.4,,,,,,,,,,,,,,,0.3001,,0.4,0.6,0.8,0.2,0.2,0.8,0.6,0.4,,,0.3614,,0.6,0.4,0.8,0.2,0.4,0.6,0.4,0.6,1,0
,,615e056d45156d8d481b5856,66fc997ecceec9a89d6af203,2024-10-02_03h14.01.024,mdp,2024.2.1,Win32,30.21148036,66fa4ebf79326e780c390304,,,,,,,,,,,,,,,,,,,,,1916.3886,1916.3886,1916.391,1917.1535,0,0,left,0.2076,,1917.1564,1917.886,1,0,right,1917.8887,1918.4526,1,0,right,1,1918.4528,1918.4528,1918.4561,1919.9503,0,43,43,43,1,0.8,0.2,0.6,0.4,,,,,,,,,,,,,,,0.1746,,0.4,0.6,0.8,0.2,0.2,0.8,0.6,0.4,,,0.0145,,0.6,0.4,0.8,0.2,0.4,0.6,0.4,0.6,1,0
,,615e056d45156d8d481b5856,66fc997ecceec9a89d6af203,2024-10-02_03h14.01.024,mdp,2024.2.1,Win32,30.21148036,66fa4ebf79326e780c390304,,,,,,,,,,,,,,,,,,,,,1919.9517,1919.9517,1919.9536,1920.7832,0,0,left,0.2697,,1920.7861,1921.6161,0,0,left,1921.6187,1922.282,1,0,right,1,1922.2823,1922.2823,1922.2846,1923.7804,0,44,44,44,1,0.8,0.2,0.6,0.4,,,,,,,,,,,,,,,0.27,,0.4,0.6,0.8,0.2,0.8,0.2,0.2,0.8,,,0.1148,,0.6,0.4,0.8,0.2,0.4,0.6,0.4,0.6,1,0
,,615e056d45156d8d481b5856,66fc997ecceec9a89d6af203,2024-10-02_03h14.01.024,mdp,2024.2.1,Win32,30.21148036,66fa4ebf79326e780c390304,,,,,,,,,,,,,,,,,,,,,1923.7825,1923.7825,1923.7841,1924.5466,1,0,right,0.2014,,1924.5491,1925.4481,0,0,left,1925.4496,1926.2924,1,0,right,1,1926.2925,1926.2925,1926.2948,1927.7766,0,45,45,45,1,0.8,0.2,0.6,0.4,,,,,,,,,,,,,,,0.3549,,0.4,0.6,0.8,0.2,0.8,0.2,0.2,0.8,,,0.2123,,0.6,0.4,0.8,0.2,0.4,0.6,0.4,0.6,1,0
,,615e056d45156d8d481b5856,66fc997ecceec9a89d6af203,2024-10-02_03h14.01.024,mdp,2024.2.1,Win32,30.21148036,66fa4ebf79326e780c390304,,,,,,,,,,,,,,,,,,,,,1927.7784,1927.7784,1927.78,1929.0423,1,0,right,0.7085,,1929.045,1929.9743,1,0,right,1929.9769,1930.9732,1,0,right,1,1930.9733,1930.9733,1930.976,1932.4716,0,46,46,46,1,0.8,0.2,0.6,0.4,,,,,,,,,,,,,,,0.3675,,0.4,0.6,0.8,0.2,0.8,0.2,0.2,0.8,,,0.4356,,0.6,0.4,0.8,0.2,0.4,0.6,0.4,0.6,1,0
,,615e056d45156d8d481b5856,66fc997ecceec9a89d6af203,2024-10-02_03h14.01.024,mdp,2024.2.1,Win32,30.21148036,66fa4ebf79326e780c390304,,,,,,,,,,,,,,,,,,,,,1932.473,1932.473,1932.4749,1933.8705,1,1,right,0.8346,,1933.8736,1934.8364,1,1,right,1934.839,1935.8691,0,1,left,0,1935.8698,1935.8698,1935.872,1937.367,0,47,47,47,1,0.8,0.2,0.6,0.4,,,,,,,,,,,,,,,0.4147,,0.4,0.6,0.8,0.2,0.8,0.2,0.2,0.8,,,0.4589,,0.6,0.4,0.8,0.2,0.4,0.6,0.4,0.6,1,0
,,615e056d45156d8d481b5856,66fc997ecceec9a89d6af203,2024-10-02_03h14.01.024,mdp,2024.2.1,Win32,30.21148036,66fa4ebf79326e780c390304,,,,,,,,,,,,,,,,,,,,,1937.3686,1937.3686,1937.3705,1938.6992,0,0,left,0.7732,,1938.7019,1939.7979,0,1,left,1939.8007,1940.7639,1,0,right,1,1940.7641,1940.7641,1940.7667,1942.2623,0,48,48,48,1,0.8,0.2,0.6,0.4,,,,,,,,,,,,,,,0.5235,,0.4,0.6,0.8,0.2,0.8,0.2,0.2,0.8,,,0.4055,,0.6,0.4,0.8,0.2,0.4,0.6,0.4,0.6,1,0
,,615e056d45156d8d481b5856,66fc997ecceec9a89d6af203,2024-10-02_03h14.01.024,mdp,2024.2.1,Win32,30.21148036,66fa4ebf79326e780c390304,,,,,,,,,,,,,,,,,,,,,1942.2634,1942.2634,1942.2659,1943.3619,0,0,left,0.5501,,1943.3652,1944.527,1,0,right,1944.53,1946.7917,0,0,left,1,1946.7918,1946.7919,1946.7945,1948.2897,0,49,49,49,1,0.8,0.2,0.6,0.4,,,,,,,,,,,,,,,0.6161,,0.4,0.6,0.8,0.2,0.8,0.2,0.2,0.8,,,1.6807,,0.6,0.4,0.8,0.2,0.4,0.6,0.4,0.6,1,0
,,615e056d45156d8d481b5856,66fc997ecceec9a89d6af203,2024-10-02_03h14.01.024,mdp,2024.2.1,Win32,30.21148036,66fa4ebf79326e780c390304,,,,,,,,,,,,,,,,,,,,,,,,,,,,,,,,,,,,,,,,,,,,,,,,,,,,,,,,1948.2902,2013.3729,0,3,3,6,1,imgs/elephant.png,imgs/dog.png,imgs/goat.png,imgs/lion.png,imgs/pig.png,,,,,,,,,,,,,,,,,,,,,,,,
,,615e056d45156d8d481b5856,66fc997ecceec9a89d6af203,2024-10-02_03h14.01.024,mdp,2024.2.1,Win32,30.21148036,66fa4ebf79326e780c390304,,,,,,,,,,,,,,1,seqs/st1seq42.csv,2013.3824,2015.9917,space,2.0651,,2016.0003,2016.0003,2016.0027,2019.9552,0,1,left,3.3463,,2019.9598,2019.961,1,1,,2019.9619,2019.9627,0,1,,0,2019.9628,2019.9628,2019.9636,2021.4533,0,0,0,0,1,0.2,0.8,0.6,0.4,1,0,,,,,,,,,,,,,,,,,,,,,,,,,,,,,,,,,,,,
,,615e056d45156d8d481b5856,66fc997ecceec9a89d6af203,2024-10-02_03h14.01.024,mdp,2024.2.1,Win32,30.21148036,66fa4ebf79326e780c390304,,,,,,,,,,,,,,,,,,,,,2021.4552,2021.4552,2021.4571,2022.3527,1,0,right,0.3328,,2022.3552,2022.3566,1,0,,2022.3587,2022.3599,0,1,,1,2022.36,2022.36,2022.3611,2023.8515,0,1,1,1,1,0.8,0.2,0.4,0.6,1,0,,,,,,,,,,,,,,,,,,,,,,,,,,,,,,,,,,,,
,,615e056d45156d8d481b5856,66fc997ecceec9a89d6af203,2024-10-02_03h14.01.024,mdp,2024.2.1,Win32,30.21148036,66fa4ebf79326e780c390304,,,,,,,,,,,,,,,,,,,,,2023.8532,2023.8532,2023.8557,2024.8824,1,0,right,0.4909,,2024.8843,2024.8856,1,1,,2024.8866,2024.8874,0,1,,1,2024.8874,2024.8874,2024.8879,2026.3821,0,2,2,2,1,0.8,0.2,0.4,0.6,1,0,,,,,,,,,,,,,,,,,,,,,,,,,,,,,,,,,,,,
,,615e056d45156d8d481b5856,66fc997ecceec9a89d6af203,2024-10-02_03h14.01.024,mdp,2024.2.1,Win32,30.21148036,66fa4ebf79326e780c390304,,,,,,,,,,,,,,,,,,,,,2026.3835,2026.3836,2026.3859,2027.2841,1,0,right,0.3358,,2027.2856,2027.2865,1,1,,2027.2874,2027.2882,0,1,,1,2027.2882,2027.2882,2027.289,2028.7801,0,3,3,3,1,0.8,0.2,0.4,0.6,1,0,,,,,,,,,,,,,,,,,,,,,,,,,,,,,,,,,,,,
,,615e056d45156d8d481b5856,66fc997ecceec9a89d6af203,2024-10-02_03h14.01.024,mdp,2024.2.1,Win32,30.21148036,66fa4ebf79326e780c390304,,,,,,,,,,,,,,,,,,,,,2028.7815,2028.7815,2028.8309,2029.346,1,0,right,0.0006,,2029.3485,2029.3497,1,1,,2029.3509,2029.3519,0,1,,1,2029.3519,2029.3519,2029.3528,2030.8441,0,4,4,4,1,0.8,0.2,0.4,0.6,1,0,,,,,,,,,,,,,,,,,,,,,,,,,,,,,,,,,,,,
,,615e056d45156d8d481b5856,66fc997ecceec9a89d6af203,2024-10-02_03h14.01.024,mdp,2024.2.1,Win32,30.21148036,66fa4ebf79326e780c390304,,,,,,,,,,,,,,,,,,,,,2030.8458,2030.8458,2030.8482,2031.6107,1,0,right,0.2209,,2031.6137,2031.6147,1,0,,2031.6155,2031.6163,0,0,,1,2031.6163,2031.6163,2031.6173,2033.1088,0,5,5,5,1,0.2,0.8,0.6,0.4,1,0,,,,,,,,,,,,,,,,,,,,,,,,,,,,,,,,,,,,
,,615e056d45156d8d481b5856,66fc997ecceec9a89d6af203,2024-10-02_03h14.01.024,mdp,2024.2.1,Win32,30.21148036,66fa4ebf79326e780c390304,,,,,,,,,,,,,,,,,,,,,2033.1099,2033.1099,2033.1118,2034.0413,1,1,right,0.3749,,2034.0452,2034.0463,1,1,,2034.0476,2034.0485,0,0,,0,2034.0486,2034.0486,2034.0497,2035.5563,0,6,6,6,1,0.2,0.8,0.6,0.4,1,0,,,,,,,,,,,,,,,,,,,,,,,,,,,,,,,,,,,,
,,615e056d45156d8d481b5856,66fc997ecceec9a89d6af203,2024-10-02_03h14.01.024,mdp,2024.2.1,Win32,30.21148036,66fa4ebf79326e780c390304,,,,,,,,,,,,,,,,,,,,,2035.5582,2035.5582,2035.5609,2036.2565,1,0,right,0.1564,,2036.2595,2036.2606,1,1,,2036.2616,2036.2626,0,1,,1,2036.2628,2036.2628,2036.2637,2037.7541,0,7,7,7,1,0.2,0.8,0.6,0.4,1,0,,,,,,,,,,,,,,,,,,,,,,,,,,,,,,,,,,,,
,,615e056d45156d8d481b5856,66fc997ecceec9a89d6af203,2024-10-02_03h14.01.024,mdp,2024.2.1,Win32,30.21148036,66fa4ebf79326e780c390304,,,,,,,,,,,,,,,,,,,,,2037.756,2037.756,2037.7584,2038.6214,1,0,right,0.3005,,2038.624,2038.6252,1,0,,2038.6261,2038.627,0,0,,1,2038.627,2038.6271,2038.6279,2040.1181,0,8,8,8,1,0.2,0.8,0.6,0.4,1,0,,,,,,,,,,,,,,,,,,,,,,,,,,,,,,,,,,,,
,,615e056d45156d8d481b5856,66fc997ecceec9a89d6af203,2024-10-02_03h14.01.024,mdp,2024.2.1,Win32,30.21148036,66fa4ebf79326e780c390304,,,,,,,,,,,,,,,,,,,,,2040.1198,2040.1198,2040.1214,2041.2846,1,0,right,0.6002,,2041.2877,2041.289,1,1,,2041.2903,2041.2914,0,0,,1,2041.2914,2041.2914,2041.2923,2042.7826,0,9,9,9,1,0.2,0.8,0.6,0.4,1,0,,,,,,,,,,,,,,,,,,,,,,,,,,,,,,,,,,,,
,,615e056d45156d8d481b5856,66fc997ecceec9a89d6af203,2024-10-02_03h14.01.024,mdp,2024.2.1,Win32,30.21148036,66fa4ebf79326e780c390304,,,,,,,,,,,,,,,,,,,,,2042.7834,2042.7835,2042.7868,2043.4495,1,0,right,0.1114,,2043.4522,2043.4538,1,1,,2043.455,2043.4559,0,0,,1,2043.4559,2043.4559,2043.4567,2044.9476,0,10,10,10,1,0.2,0.8,0.6,0.4,1,0,,,,,,,,,,,,,,,,,,,,,,,,,,,,,,,,,,,,
,,615e056d45156d8d481b5856,66fc997ecceec9a89d6af203,2024-10-02_03h14.01.024,mdp,2024.2.1,Win32,30.21148036,66fa4ebf79326e780c390304,,,,,,,,,,,,,,,,,,,,,2044.9494,2044.9494,2044.9519,2045.7467,1,0,right,0.2469,,2045.7501,2045.7513,1,0,,2045.7525,2045.7534,0,1,,1,2045.7535,2045.7535,2045.7543,2047.2455,0,11,11,11,1,0.2,0.8,0.6,0.4,1,0,,,,,,,,,,,,,,,,,,,,,,,,,,,,,,,,,,,,
,,615e056d45156d8d481b5856,66fc997ecceec9a89d6af203,2024-10-02_03h14.01.024,mdp,2024.2.1,Win32,30.21148036,66fa4ebf79326e780c390304,,,,,,,,,,,,,,,,,,,,,2047.2462,2047.2462,2047.248,2048.0107,1,0,right,0.206,,2048.0141,2048.0158,1,0,,2048.0169,2048.0177,0,1,,1,2048.0177,2048.0177,2048.0186,2049.5096,0,12,12,12,1,0.6,0.4,0.8,0.2,1,0,,,,,,,,,,,,,,,,,,,,,,,,,,,,,,,,,,,,
,,615e056d45156d8d481b5856,66fc997ecceec9a89d6af203,2024-10-02_03h14.01.024,mdp,2024.2.1,Win32,30.21148036,66fa4ebf79326e780c390304,,,,,,,,,,,,,,,,,,,,,2049.511,2049.5111,2049.5133,2050.5424,1,0,right,0.487,,2050.5463,2050.5477,1,1,,2050.5487,2050.5495,0,0,,1,2050.5496,2050.5496,2050.6026,2052.04,0,13,13,13,1,0.6,0.4,0.8,0.2,1,0,,,,,,,,,,,,,,,,,,,,,,,,,,,,,,,,,,,,
,,615e056d45156d8d481b5856,66fc997ecceec9a89d6af203,2024-10-02_03h14.01.024,mdp,2024.2.1,Win32,30.21148036,66fa4ebf79326e780c390304,,,,,,,,,,,,,,,,,,,,,2052.0428,2052.043,2052.0451,2052.7408,1,0,right,0.1308,,2052.7427,2052.7443,1,0,,2052.7459,2052.7472,0,1,,1,2052.7472,2052.7472,2052.7481,2054.2381,0,14,14,14,1,0.6,0.4,0.8,0.2,1,0,,,,,,,,,,,,,,,,,,,,,,,,,,,,,,,,,,,,
,,615e056d45156d8d481b5856,66fc997ecceec9a89d6af203,2024-10-02_03h14.01.024,mdp,2024.2.1,Win32,30.21148036,66fa4ebf79326e780c390304,,,,,,,,,,,,,,,,,,,,,2054.2395,2054.2395,2054.2423,2054.9058,1,0,right,0.1333,,2054.9081,2054.9092,1,0,,2054.9102,2054.911,0,0,,1,2054.9111,2054.9111,2054.9119,2056.4203,0,15,15,15,1,0.8,0.2,0.6,0.4,1,0,,,,,,,,,,,,,,,,,,,,,,,,,,,,,,,,,,,,
,,615e056d45156d8d481b5856,66fc997ecceec9a89d6af203,2024-10-02_03h14.01.024,mdp,2024.2.1,Win32,30.21148036,66fa4ebf79326e780c390304,,,,,,,,,,,,,,,,,,,,,2056.4231,2056.4231,2056.4247,2056.9874,1,0,right,0.0077,,2056.9903,2056.9912,1,1,,2056.9925,2056.9934,0,0,,1,2056.9934,2056.9934,2056.9944,2058.4863,0,16,16,16,1,0.8,0.2,0.6,0.4,1,0,,,,,,,,,,,,,,,,,,,,,,,,,,,,,,,,,,,,
,,615e056d45156d8d481b5856,66fc997ecceec9a89d6af203,2024-10-02_03h14.01.024,mdp,2024.2.1,Win32,30.21148036,66fa4ebf79326e780c390304,,,,,,,,,,,,,,,,,,,,,2058.4872,2058.4872,2058.4893,2059.95,1,0,right,0.9169,,2059.9523,2059.954,1,1,,2059.964,2059.9663,0,0,,1,2059.9663,2059.9663,2059.9676,2061.4481,0,17,17,17,1,0.8,0.2,0.6,0.4,1,0,,,,,,,,,,,,,,,,,,,,,,,,,,,,,,,,,,,,
,,615e056d45156d8d481b5856,66fc997ecceec9a89d6af203,2024-10-02_03h14.01.024,mdp,2024.2.1,Win32,30.21148036,66fa4ebf79326e780c390304,,,,,,,,,,,,,,,,,,,,,2061.4497,2061.4497,2061.4516,2062.5489,1,1,right,0.5433,,2062.5525,2062.5536,1,0,,2062.5554,2062.5566,0,0,,0,2062.5567,2062.5568,2062.5582,2064.0458,0,18,18,18,1,0.8,0.2,0.6,0.4,1,0,,,,,,,,,,,,,,,,,,,,,,,,,,,,,,,,,,,,
,,615e056d45156d8d481b5856,66fc997ecceec9a89d6af203,2024-10-02_03h14.01.024,mdp,2024.2.1,Win32,30.21148036,66fa4ebf79326e780c390304,,,,,,,,,,,,,,,,,,,,,2064.0469,2064.0479,2064.0502,2065.0783,1,1,right,0.4883,,2065.0809,2065.0825,1,0,,2065.0838,2065.0851,0,1,,0,2065.0852,2065.0852,2065.0866,2066.5762,0,19,19,19,1,0.8,0.2,0.6,0.4,1,0,,,,,,,,,,,,,,,,,,,,,,,,,,,,,,,,,,,,
,,615e056d45156d8d481b5856,66fc997ecceec9a89d6af203,2024-10-02_03h14.01.024,mdp,2024.2.1,Win32,30.21148036,66fa4ebf79326e780c390304,,,,,,,,,,,,,,,,,,,,,2066.5778,2066.5778,2066.5802,2067.2123,0,0,left,0.0689,,2067.2141,2067.2151,1,0,,2067.2161,2067.2169,0,0,,1,2067.2169,2067.2169,2067.2177,2068.708,0,20,20,20,1,0.6,0.4,0.4,0.6,1,0,,,,,,,,,,,,,,,,,,,,,,,,,,,,,,,,,,,,
,,615e056d45156d8d481b5856,66fc997ecceec9a89d6af203,2024-10-02_03h14.01.024,mdp,2024.2.1,Win32,30.21148036,66fa4ebf79326e780c390304,,,,,,,,,,,,,,,,,,,,,2068.7108,2068.7108,2068.7129,2069.7409,0,0,left,0.4785,,2069.7428,2069.7445,1,1,,2069.7464,2069.7475,0,0,,1,2069.7475,2069.7475,2069.7484,2071.2391,0,21,21,21,1,0.6,0.4,0.4,0.6,1,0,,,,,,,,,,,,,,,,,,,,,,,,,,,,,,,,,,,,
,,615e056d45156d8d481b5856,66fc997ecceec9a89d6af203,2024-10-02_03h14.01.024,mdp,2024.2.1,Win32,30.21148036,66fa4ebf79326e780c390304,,,,,,,,,,,,,,,,,,,,,2071.2405,2071.2405,2071.2428,2071.9401,0,1,left,0.1385,,2071.9419,2071.9426,1,1,,2071.9437,2071.9443,0,1,,0,2071.9444,2071.9444,2071.945,2073.4353,0,22,22,22,1,0.6,0.4,0.4,0.6,1,0,,,,,,,,,,,,,,,,,,,,,,,,,,,,,,,,,,,,
,,615e056d45156d8d481b5856,66fc997ecceec9a89d6af203,2024-10-02_03h14.01.024,mdp,2024.2.1,Win32,30.21148036,66fa4ebf79326e780c390304,,,,,,,,,,,,,,,,,,,,,2073.4361,2073.4361,2073.4374,2074.8018,1,1,right,0.8008,,2074.8052,2074.8063,1,0,,2074.8075,2074.8084,0,1,,0,2074.8085,2074.8085,2074.8094,2076.3002,0,23,23,23,1,0.6,0.4,0.4,0.6,1,0,,,,,,,,,,,,,,,,,,,,,,,,,,,,,,,,,,,,
,,615e056d45156d8d481b5856,66fc997ecceec9a89d6af203,2024-10-02_03h14.01.024,mdp,2024.2.1,Win32,30.21148036,66fa4ebf79326e780c390304,,,,,,,,,,,,,,,,,,,,,2076.3017,2076.3017,2076.3036,2077.5165,0,0,left,0.6522,,2077.5188,2077.5203,1,1,,2077.5217,2077.5228,0,0,,1,2077.5228,2077.5229,2077.524,2079.0308,0,24,24,24,1,0.2,0.8,0.6,0.4,1,0,,,,,,,,,,,,,,,,,,,,,,,,,,,,,,,,,,,,
,,615e056d45156d8d481b5856,66fc997ecceec9a89d6af203,2024-10-02_03h14.01.024,mdp,2024.2.1,Win32,30.21148036,66fa4ebf79326e780c390304,,,,,,,,,,,,,,,,,,,,,2079.0326,2079.0326,2079.0358,2079.9976,0,1,left,0.422,,2080.0006,2080.0017,1,1,,2080.0026,2080.0034,0,1,,0,2080.0034,2080.0034,2080.0041,2081.4964,0,25,25,25,1,0.2,0.8,0.6,0.4,1,0,,,,,,,,,,,,,,,,,,,,,,,,,,,,,,,,,,,,
,,615e056d45156d8d481b5856,66fc997ecceec9a89d6af203,2024-10-02_03h14.01.024,mdp,2024.2.1,Win32,30.21148036,66fa4ebf79326e780c390304,,,,,,,,,,,,,,,,,,,,,2081.4978,2081.4978,2081.499,2082.6608,1,1,right,0.6094,,2082.6636,2082.6648,1,0,,2082.6665,2082.6673,0,1,,0,2082.6673,2082.6673,2082.6681,2084.1597,0,26,26,26,1,0.2,0.8,0.6,0.4,1,0,,,,,,,,,,,,,,,,,,,,,,,,,,,,,,,,,,,,
,,615e056d45156d8d481b5856,66fc997ecceec9a89d6af203,2024-10-02_03h14.01.024,mdp,2024.2.1,Win32,30.21148036,66fa4ebf79326e780c390304,,,,,,,,,,,,,,,,,,,,,2084.1607,2084.1608,2084.1629,2085.092,1,0,right,0.3774,,2085.0961,2085.0975,1,0,,2085.0987,2085.0996,0,1,,1,2085.0997,2085.0997,2085.1006,2086.5916,0,27,27,27,1,0.2,0.8,0.6,0.4,1,0,,,,,,,,,,,,,,,,,,,,,,,,,,,,,,,,,,,,
,,615e056d45156d8d481b5856,66fc997ecceec9a89d6af203,2024-10-02_03h14.01.024,mdp,2024.2.1,Win32,30.21148036,66fa4ebf79326e780c390304,,,,,,,,,,,,,,,,,,,,,2086.5925,2086.5925,2086.5947,2087.4395,0,1,left,0.2899,,2087.4426,2087.4439,1,1,,2087.4452,2087.4462,0,1,,0,2087.4462,2087.4462,2087.4475,2088.9376,0,28,28,28,1,0.2,0.8,0.6,0.4,1,0,,,,,,,,,,,,,,,,,,,,,,,,,,,,,,,,,,,,
,,615e056d45156d8d481b5856,66fc997ecceec9a89d6af203,2024-10-02_03h14.01.024,mdp,2024.2.1,Win32,30.21148036,66fa4ebf79326e780c390304,,,,,,,,,,,,,,,,,,,,,2088.9387,2088.9388,2088.9408,2090.2728,1,1,right,0.7755,,2090.2752,2090.2764,1,0,,2090.3331,2090.334,0,0,,0,2090.3341,2090.3341,2090.3365,2091.8358,0,29,29,29,1,0.2,0.8,0.6,0.4,1,0,,,,,,,,,,,,,,,,,,,,,,,,,,,,,,,,,,,,
,,615e056d45156d8d481b5856,66fc997ecceec9a89d6af203,2024-10-02_03h14.01.024,mdp,2024.2.1,Win32,30.21148036,66fa4ebf79326e780c390304,,,,,,,,,,,,,,,,,,,,,2091.8366,2091.8367,2091.8391,2092.9683,1,1,right,0.5882,,2092.9702,2092.9721,1,0,,2092.9731,2092.9742,0,1,,0,2092.9743,2092.9743,2092.9754,2094.4664,0,30,30,30,1,0.6,0.4,0.4,0.6,1,0,,,,,,,,,,,,,,,,,,,,,,,,,,,,,,,,,,,,
,,615e056d45156d8d481b5856,66fc997ecceec9a89d6af203,2024-10-02_03h14.01.024,mdp,2024.2.1,Win32,30.21148036,66fa4ebf79326e780c390304,,,,,,,,,,,,,,,,,,,,,2094.4693,2094.4693,2094.4716,2095.2321,0,1,left,0.2179,,2095.2349,2095.2366,1,0,,2095.2379,2095.2389,0,1,,0,2095.2389,2095.239,2095.2399,2096.7306,0,31,31,31,1,0.6,0.4,0.4,0.6,1,0,,,,,,,,,,,,,,,,,,,,,,,,,,,,,,,,,,,,
,,615e056d45156d8d481b5856,66fc997ecceec9a89d6af203,2024-10-02_03h14.01.024,mdp,2024.2.1,Win32,30.21148036,66fa4ebf79326e780c390304,,,,,,,,,,,,,,,,,,,,,2096.7317,2096.7319,2096.7857,2097.3632,0,0,left,0.0553,,2097.4183,2097.4193,1,1,,2097.4204,2097.4212,0,1,,1,2097.4213,2097.4213,2097.4223,2098.9281,0,32,32,32,1,0.6,0.4,0.4,0.6,1,0,,,,,,,,,,,,,,,,,,,,,,,,,,,,,,,,,,,,
,,615e056d45156d8d481b5856,66fc997ecceec9a89d6af203,2024-10-02_03h14.01.024,mdp,2024.2.1,Win32,30.21148036,66fa4ebf79326e780c390304,,,,,,,,,,,,,,,,,,,,,2098.9288,2098.9289,2098.93,2099.5617,0,0,left,0.0978,,2099.5643,2099.566,1,0,,2099.5673,2099.5688,0,0,,1,2099.5689,2099.5689,2099.5696,2101.0594,0,33,33,33,1,0.6,0.4,0.4,0.6,1,0,,,,,,,,,,,,,,,,,,,,,,,,,,,,,,,,,,,,
,,615e056d45156d8d481b5856,66fc997ecceec9a89d6af203,2024-10-02_03h14.01.024,mdp,2024.2.1,Win32,30.21148036,66fa4ebf79326e780c390304,,,,,,,,,,,,,,,,,,,,,2101.0602,2101.0602,2101.0616,2101.9955,0,0,left,0.3726,,2101.9984,2101.9995,1,1,,2102.0008,2102.002,0,0,,1,2102.0021,2102.0021,2102.0029,2103.4909,0,34,34,34,1,0.6,0.4,0.4,0.6,1,0,,,,,,,,,,,,,,,,,,,,,,,,,,,,,,,,,,,,
,,615e056d45156d8d481b5856,66fc997ecceec9a89d6af203,2024-10-02_03h14.01.024,mdp,2024.2.1,Win32,30.21148036,66fa4ebf79326e780c390304,,,,,,,,,,,,,,,,,,,,,2103.4919,2103.492,2103.4943,2104.4235,0,0,left,0.3719,,2104.427,2104.4285,1,0,,2104.4299,2104.4309,0,0,,1,2104.431,2104.431,2104.432,2105.9386,0,35,35,35,1,0.6,0.4,0.4,0.6,1,0,,,,,,,,,,,,,,,,,,,,,,,,,,,,,,,,,,,,
,,615e056d45156d8d481b5856,66fc997ecceec9a89d6af203,2024-10-02_03h14.01.024,mdp,2024.2.1,Win32,30.21148036,66fa4ebf79326e780c390304,,,,,,,,,,,,,,,,,,,,,2105.9396,2105.9396,2105.9411,2106.9039,0,1,left,0.4018,,2106.9062,2106.9076,1,1,,2106.9086,2106.9093,0,1,,0,2106.9094,2106.9094,2106.91,2108.3861,0,36,36,36,1,0.6,0.4,0.4,0.6,1,0,,,,,,,,,,,,,,,,,,,,,,,,,,,,,,,,,,,,
,,615e056d45156d8d481b5856,66fc997ecceec9a89d6af203,2024-10-02_03h14.01.024,mdp,2024.2.1,Win32,30.21148036,66fa4ebf79326e780c390304,,,,,,,,,,,,,,,,,,,,,2108.3886,2108.3886,2108.3907,2109.4532,1,0,right,0.4999,,2109.4549,2109.4564,1,0,,2109.4574,2109.4583,0,1,,1,2109.4583,2109.4583,2109.459,2110.9499,0,37,37,37,1,0.6,0.4,0.4,0.6,1,0,,,,,,,,,,,,,,,,,,,,,,,,,,,,,,,,,,,,
,,615e056d45156d8d481b5856,66fc997ecceec9a89d6af203,2024-10-02_03h14.01.024,mdp,2024.2.1,Win32,30.21148036,66fa4ebf79326e780c390304,,,,,,,,,,,,,,,,,,,,,2110.9505,2110.9506,2110.9554,2111.984,1,1,right,0.4809,,2111.9865,2111.9875,1,0,,2111.9883,2111.9891,0,0,,0,2111.9891,2111.9891,2112.0371,2113.4831,0,38,38,38,1,0.6,0.4,0.4,0.6,1,0,,,,,,,,,,,,,,,,,,,,,,,,,,,,,,,,,,,,
