init_exp.started,init_exp.stopped,participant,session,date,expName,psychopyVersion,OS,frameRate,study_id,disp_instruction.started,disp_instruction.stopped,instruction.thisRepN,instruction.thisTrialN,instruction.thisN,instruction.thisIndex,instruction.ran,instimg_path,consent.started,consent.stopped,key_resp_3.keys,key_resp_3.rt,key_resp_3.duration,n_steps,sequence_path,init_block.started,init_block.stopped,key_resp.keys,key_resp.rt,key_resp.duration,init_trials.started,init_trials.stopped,step0.started,step0.stopped,act0,s1,res0.keys,res0.rt,res0.duration,step1.started,step1.stopped,act1,s2,res1.keys,step2.started,step2.stopped,act2,s3,res2.keys,rew,reward_comp.started,reward_comp.stopped,reward_disp.started,reward_disp.stopped,trials.thisRepN,trials.thisTrialN,trials.thisN,trials.thisIndex,trials.ran,s00a0s10,s00a0s11,s00a1s10,s00a1s11,rew10,rew11,break_block.started,break_block.stopped,block.thisRepN,block.thisTrialN,block.thisN,block.thisIndex,block.ran,s00path,s10path,s11path,s20path,s21path,res1.rt,res1.duration,s10a0s20,s10a0s21,s10a1s20,s10a1s21,s11a0s20,s11a0s21,s11a1s20,s11a1s21,rew20,rew21,res2.rt,res2.duration,s20a0s30,s20a0s31,s20a1s30,s20a1s31,s21a0s30,s21a0s31,s21a1s30,s21a1s31,rew30,rew31
1E-04,0.0015,649dba79b97070557ebe3d0b,66fc997124836cbf24a2bac4,2024-10-01_18h54.30.072,mdp,2024.2.1,Win32,59.52380952,66fa4ebf79326e780c390304,,,,,,,,,,,,,,,,,,,,,,,,,,,,,,,,,,,,,,,,,,,,,,,,,,,,,,,,,,,,,,,,,,,,,,,,,,,,,,,,,,,,,,,,,,,
,,649dba79b97070557ebe3d0b,66fc997124836cbf24a2bac4,2024-10-01_18h54.30.072,mdp,2024.2.1,Win32,59.52380952,66fa4ebf79326e780c390304,0.0068,161.8795,0,0,0,0,1,rlnn_exp/rlnn_exp.001.png,,,,,,,,,,,,,,,,,,,,,,,,,,,,,,,,,,,,,,,,,,,,,,,,,,,,,,,,,,,,,,,,,,,,,,,,,,,,,,,,,,,
,,649dba79b97070557ebe3d0b,66fc997124836cbf24a2bac4,2024-10-01_18h54.30.072,mdp,2024.2.1,Win32,59.52380952,66fa4ebf79326e780c390304,161.8815,343.7195,0,1,1,1,1,rlnn_exp/rlnn_exp.002.png,,,,,,,,,,,,,,,,,,,,,,,,,,,,,,,,,,,,,,,,,,,,,,,,,,,,,,,,,,,,,,,,,,,,,,,,,,,,,,,,,,,
,,649dba79b97070557ebe3d0b,66fc997124836cbf24a2bac4,2024-10-01_18h54.30.072,mdp,2024.2.1,Win32,59.52380952,66fa4ebf79326e780c390304,343.7208,366.3511,0,2,2,2,1,rlnn_exp/rlnn_exp.003.png,,,,,,,,,,,,,,,,,,,,,,,,,,,,,,,,,,,,,,,,,,,,,,,,,,,,,,,,,,,,,,,,,,,,,,,,,,,,,,,,,,,
,,649dba79b97070557ebe3d0b,66fc997124836cbf24a2bac4,2024-10-01_18h54.30.072,mdp,2024.2.1,Win32,59.52380952,66fa4ebf79326e780c390304,366.3532,394.9165,0,3,3,3,1,rlnn_exp/rlnn_exp.004.png,,,,,,,,,,,,,,,,,,,,,,,,,,,,,,,,,,,,,,,,,,,,,,,,,,,,,,,,,,,,,,,,,,,,,,,,,,,,,,,,,,,
,,649dba79b97070557ebe3d0b,66fc997124836cbf24a2bac4,2024-10-01_18h54.30.072,mdp,2024.2.1,Win32,59.52380952,66fa4ebf79326e780c390304,,,,,,,,,394.9173,478.8467,y,73.9038,,,,,,,,,,,,,,,,,,,,,,,,,,,,,,,,,,,,,,,,,,,,,,,,,,,,,,,,,,,,,,,,,,,,,,,,,,,,,,,
,,649dba79b97070557ebe3d0b,66fc997124836cbf24a2bac4,2024-10-01_18h54.30.072,mdp,2024.2.1,Win32,59.52380952,66fa4ebf79326e780c390304,,,,,,,,,,,,,,1,seqs/st1seq43.csv,478.8551,580.8418,space,101.452,,580.849,580.8491,580.8498,598.7236,1,0,right,17.3407,,598.7243,598.727,,1,,598.7273,598.7287,,1,,1,598.7288,598.7288,598.7292,600.2278,0,0,0,0,1,0.8,0.2,0.4,0.6,1,0,,,,,,,,,,,,,,,,,,,,,,,,,,,,,,,,,,,,
,,649dba79b97070557ebe3d0b,66fc997124836cbf24a2bac4,2024-10-01_18h54.30.072,mdp,2024.2.1,Win32,59.52380952,66fa4ebf79326e780c390304,,,,,,,,,,,,,,,,,,,,,600.229,600.2291,600.2308,602.6935,1,1,right,1.949,,602.6944,602.6949,,0,,602.6954,602.6959,,0,,0,602.6959,602.6959,602.6962,604.1934,0,1,1,1,1,0.8,0.2,0.4,0.6,1,0,,,,,,,,,,,,,,,,,,,,,,,,,,,,,,,,,,,,
,,649dba79b97070557ebe3d0b,66fc997124836cbf24a2bac4,2024-10-01_18h54.30.072,mdp,2024.2.1,Win32,59.52380952,66fa4ebf79326e780c390304,,,,,,,,,,,,,,,,,,,,,604.1946,604.1948,604.1976,606.0796,0,0,left,1.3531,,606.0817,606.0828,,0,,606.0839,606.0849,,0,,1,606.0849,606.0849,606.0856,607.5727,0,2,2,2,1,0.8,0.2,0.4,0.6,1,0,,,,,,,,,,,,,,,,,,,,,,,,,,,,,,,,,,,,
,,649dba79b97070557ebe3d0b,66fc997124836cbf24a2bac4,2024-10-01_18h54.30.072,mdp,2024.2.1,Win32,59.52380952,66fa4ebf79326e780c390304,,,,,,,,,,,,,,,,,,,,,607.574,607.574,607.5755,609.1138,1,0,right,1.0173,,609.116,609.1172,,1,,609.1184,609.1193,,0,,1,609.1193,609.1193,609.1203,610.6232,0,3,3,3,1,0.8,0.2,0.4,0.6,1,0,,,,,,,,,,,,,,,,,,,,,,,,,,,,,,,,,,,,
,,649dba79b97070557ebe3d0b,66fc997124836cbf24a2bac4,2024-10-01_18h54.30.072,mdp,2024.2.1,Win32,59.52380952,66fa4ebf79326e780c390304,,,,,,,,,,,,,,,,,,,,,610.6241,610.6242,610.6261,612.1768,0,1,left,1.0175,,612.1789,612.1801,,0,,612.1815,612.1828,,0,,0,612.1829,612.1829,612.1838,613.6733,0,4,4,4,1,0.8,0.2,0.4,0.6,1,0,,,,,,,,,,,,,,,,,,,,,,,,,,,,,,,,,,,,
,,649dba79b97070557ebe3d0b,66fc997124836cbf24a2bac4,2024-10-01_18h54.30.072,mdp,2024.2.1,Win32,59.52380952,66fa4ebf79326e780c390304,,,,,,,,,,,,,,,,,,,,,613.6741,613.6741,613.6767,615.077,1,0,right,0.897,,615.0792,615.0804,,0,,615.0815,615.0829,,1,,1,615.0829,615.0829,615.0839,616.5725,0,5,5,5,1,0.8,0.2,0.4,0.6,1,0,,,,,,,,,,,,,,,,,,,,,,,,,,,,,,,,,,,,
,,649dba79b97070557ebe3d0b,66fc997124836cbf24a2bac4,2024-10-01_18h54.30.072,mdp,2024.2.1,Win32,59.52380952,66fa4ebf79326e780c390304,,,,,,,,,,,,,,,,,,,,,616.5734,616.5734,616.5748,617.8555,1,0,right,0.7549,,617.8577,617.859,,1,,617.8601,617.861,,1,,1,617.861,617.861,617.862,619.356,0,6,6,6,1,0.8,0.2,0.4,0.6,1,0,,,,,,,,,,,,,,,,,,,,,,,,,,,,,,,,,,,,
,,649dba79b97070557ebe3d0b,66fc997124836cbf24a2bac4,2024-10-01_18h54.30.072,mdp,2024.2.1,Win32,59.52380952,66fa4ebf79326e780c390304,,,,,,,,,,,,,,,,,,,,,619.3568,619.3568,619.3595,620.7221,1,0,right,0.836,,620.7246,620.7262,,0,,620.7275,620.7287,,1,,1,620.7288,620.7288,620.7299,622.2228,0,7,7,7,1,0.8,0.2,0.4,0.6,1,0,,,,,,,,,,,,,,,,,,,,,,,,,,,,,,,,,,,,
,,649dba79b97070557ebe3d0b,66fc997124836cbf24a2bac4,2024-10-01_18h54.30.072,mdp,2024.2.1,Win32,59.52380952,66fa4ebf79326e780c390304,,,,,,,,,,,,,,,,,,,,,622.2241,622.2243,622.226,623.605,1,0,right,0.8526,,623.6071,623.6081,,0,,623.609,623.6098,,0,,1,623.6099,623.6099,623.6107,625.1078,0,8,8,8,1,0.8,0.2,0.4,0.6,1,0,,,,,,,,,,,,,,,,,,,,,,,,,,,,,,,,,,,,
,,649dba79b97070557ebe3d0b,66fc997124836cbf24a2bac4,2024-10-01_18h54.30.072,mdp,2024.2.1,Win32,59.52380952,66fa4ebf79326e780c390304,,,,,,,,,,,,,,,,,,,,,625.1085,625.1086,625.1103,626.8892,1,1,right,1.2411,,626.8912,626.8923,,1,,626.8933,626.8944,,1,,0,626.8945,626.8945,626.8955,628.3878,0,9,9,9,1,0.8,0.2,0.4,0.6,1,0,,,,,,,,,,,,,,,,,,,,,,,,,,,,,,,,,,,,
,,649dba79b97070557ebe3d0b,66fc997124836cbf24a2bac4,2024-10-01_18h54.30.072,mdp,2024.2.1,Win32,59.52380952,66fa4ebf79326e780c390304,,,,,,,,,,,,,,,,,,,,,628.3892,628.3893,628.3901,629.9106,1,0,right,0.9976,,629.9119,629.9129,,0,,629.914,629.9149,,0,,1,629.915,629.915,629.9155,631.4053,0,10,10,10,1,0.8,0.2,0.4,0.6,1,0,,,,,,,,,,,,,,,,,,,,,,,,,,,,,,,,,,,,
,,649dba79b97070557ebe3d0b,66fc997124836cbf24a2bac4,2024-10-01_18h54.30.072,mdp,2024.2.1,Win32,59.52380952,66fa4ebf79326e780c390304,,,,,,,,,,,,,,,,,,,,,631.4063,631.4063,631.4084,632.6553,1,1,right,0.7044,,632.6579,632.6592,,0,,632.6607,632.6618,,0,,0,632.6618,632.6618,632.6627,634.1594,0,11,11,11,1,0.8,0.2,0.4,0.6,1,0,,,,,,,,,,,,,,,,,,,,,,,,,,,,,,,,,,,,
,,649dba79b97070557ebe3d0b,66fc997124836cbf24a2bac4,2024-10-01_18h54.30.072,mdp,2024.2.1,Win32,59.52380952,66fa4ebf79326e780c390304,,,,,,,,,,,,,,,,,,,,,634.1599,634.1599,634.1616,635.6442,1,1,right,0.9658,,635.6461,635.6472,,0,,635.6482,635.6492,,1,,0,635.6492,635.6492,635.6499,637.1381,0,12,12,12,1,0.8,0.2,0.4,0.6,1,0,,,,,,,,,,,,,,,,,,,,,,,,,,,,,,,,,,,,
,,649dba79b97070557ebe3d0b,66fc997124836cbf24a2bac4,2024-10-01_18h54.30.072,mdp,2024.2.1,Win32,59.52380952,66fa4ebf79326e780c390304,,,,,,,,,,,,,,,,,,,,,637.1393,637.1393,637.1409,638.5585,1,0,right,0.8966,,638.5595,638.5601,,1,,638.5608,638.5614,,0,,1,638.5614,638.5614,638.5619,640.0553,0,13,13,13,1,0.8,0.2,0.4,0.6,1,0,,,,,,,,,,,,,,,,,,,,,,,,,,,,,,,,,,,,
,,649dba79b97070557ebe3d0b,66fc997124836cbf24a2bac4,2024-10-01_18h54.30.072,mdp,2024.2.1,Win32,59.52380952,66fa4ebf79326e780c390304,,,,,,,,,,,,,,,,,,,,,640.0563,640.0563,640.0581,642.6384,1,1,right,2.0744,,642.6405,642.6414,,0,,642.6425,642.6434,,0,,0,642.6434,642.6434,642.6442,644.1399,0,14,14,14,1,0.8,0.2,0.4,0.6,1,0,,,,,,,,,,,,,,,,,,,,,,,,,,,,,,,,,,,,
,,649dba79b97070557ebe3d0b,66fc997124836cbf24a2bac4,2024-10-01_18h54.30.072,mdp,2024.2.1,Win32,59.52380952,66fa4ebf79326e780c390304,,,,,,,,,,,,,,,,,,,,,644.1405,644.1405,644.1428,645.4749,1,0,right,0.8129,,645.4767,645.4779,,0,,645.4789,645.4798,,1,,1,645.4798,645.4798,645.481,646.9718,0,15,15,15,1,0.8,0.2,0.4,0.6,1,0,,,,,,,,,,,,,,,,,,,,,,,,,,,,,,,,,,,,
,,649dba79b97070557ebe3d0b,66fc997124836cbf24a2bac4,2024-10-01_18h54.30.072,mdp,2024.2.1,Win32,59.52380952,66fa4ebf79326e780c390304,,,,,,,,,,,,,,,,,,,,,646.9733,646.9733,646.9752,648.0543,0,1,left,0.5401,,648.0571,648.0581,,0,,648.0592,648.0601,,0,,0,648.0601,648.0601,648.0611,649.5533,0,16,16,16,1,0.8,0.2,0.4,0.6,1,0,,,,,,,,,,,,,,,,,,,,,,,,,,,,,,,,,,,,
,,649dba79b97070557ebe3d0b,66fc997124836cbf24a2bac4,2024-10-01_18h54.30.072,mdp,2024.2.1,Win32,59.52380952,66fa4ebf79326e780c390304,,,,,,,,,,,,,,,,,,,,,649.5545,649.5545,649.5555,651.3443,0,0,left,1.2827,,651.3461,651.3471,,0,,651.348,651.3487,,0,,1,651.3487,651.3487,651.3494,652.8409,0,17,17,17,1,0.8,0.2,0.4,0.6,1,0,,,,,,,,,,,,,,,,,,,,,,,,,,,,,,,,,,,,
,,649dba79b97070557ebe3d0b,66fc997124836cbf24a2bac4,2024-10-01_18h54.30.072,mdp,2024.2.1,Win32,59.52380952,66fa4ebf79326e780c390304,,,,,,,,,,,,,,,,,,,,,652.8415,652.8415,652.843,654.4941,0,0,left,1.1203,,654.4959,654.4968,,1,,654.4979,654.499,,0,,1,654.499,654.499,654.5004,655.9878,0,18,18,18,1,0.8,0.2,0.4,0.6,1,0,,,,,,,,,,,,,,,,,,,,,,,,,,,,,,,,,,,,
,,649dba79b97070557ebe3d0b,66fc997124836cbf24a2bac4,2024-10-01_18h54.30.072,mdp,2024.2.1,Win32,59.52380952,66fa4ebf79326e780c390304,,,,,,,,,,,,,,,,,,,,,655.9889,655.989,655.9906,657.46,1,1,right,0.9493,,657.462,657.4631,,1,,657.4642,657.4651,,1,,0,657.4652,657.4652,657.466,658.9542,0,19,19,19,1,0.4,0.6,0.6,0.4,1,0,,,,,,,,,,,,,,,,,,,,,,,,,,,,,,,,,,,,
,,649dba79b97070557ebe3d0b,66fc997124836cbf24a2bac4,2024-10-01_18h54.30.072,mdp,2024.2.1,Win32,59.52380952,66fa4ebf79326e780c390304,,,,,,,,,,,,,,,,,,,,,658.9555,658.9555,658.9572,660.3916,0,1,left,0.9141,,660.3936,660.3951,,1,,660.3962,660.3974,,0,,0,660.3975,660.3975,660.3983,661.8871,0,20,20,20,1,0.4,0.6,0.6,0.4,1,0,,,,,,,,,,,,,,,,,,,,,,,,,,,,,,,,,,,,
,,649dba79b97070557ebe3d0b,66fc997124836cbf24a2bac4,2024-10-01_18h54.30.072,mdp,2024.2.1,Win32,59.52380952,66fa4ebf79326e780c390304,,,,,,,,,,,,,,,,,,,,,661.8884,661.8884,661.8901,662.8617,0,1,left,0.4519,,662.8635,662.8646,,0,,662.8656,662.8667,,0,,0,662.8668,662.8668,662.8679,664.3698,0,21,21,21,1,0.4,0.6,0.6,0.4,1,0,,,,,,,,,,,,,,,,,,,,,,,,,,,,,,,,,,,,
,,649dba79b97070557ebe3d0b,66fc997124836cbf24a2bac4,2024-10-01_18h54.30.072,mdp,2024.2.1,Win32,59.52380952,66fa4ebf79326e780c390304,,,,,,,,,,,,,,,,,,,,,664.3712,664.3713,664.3729,665.2694,0,0,left,0.3861,,665.272,665.2728,,0,,665.2736,665.2742,,1,,1,665.2743,665.2743,665.275,666.7743,0,22,22,22,1,0.8,0.2,0.2,0.8,1,0,,,,,,,,,,,,,,,,,,,,,,,,,,,,,,,,,,,,
,,649dba79b97070557ebe3d0b,66fc997124836cbf24a2bac4,2024-10-01_18h54.30.072,mdp,2024.2.1,Win32,59.52380952,66fa4ebf79326e780c390304,,,,,,,,,,,,,,,,,,,,,666.775,666.775,666.7767,667.503,0,0,left,0.1922,,667.5062,667.5074,,1,,667.5087,667.5097,,0,,1,667.5098,667.5098,667.511,669.0034,0,23,23,23,1,0.8,0.2,0.2,0.8,1,0,,,,,,,,,,,,,,,,,,,,,,,,,,,,,,,,,,,,
,,649dba79b97070557ebe3d0b,66fc997124836cbf24a2bac4,2024-10-01_18h54.30.072,mdp,2024.2.1,Win32,59.52380952,66fa4ebf79326e780c390304,,,,,,,,,,,,,,,,,,,,,669.0046,669.0046,669.0062,670.0237,0,0,left,0.5134,,670.0257,670.027,,0,,670.0283,670.0293,,0,,1,670.0293,670.0293,670.0301,671.5193,0,24,24,24,1,0.8,0.2,0.2,0.8,1,0,,,,,,,,,,,,,,,,,,,,,,,,,,,,,,,,,,,,
,,649dba79b97070557ebe3d0b,66fc997124836cbf24a2bac4,2024-10-01_18h54.30.072,mdp,2024.2.1,Win32,59.52380952,66fa4ebf79326e780c390304,,,,,,,,,,,,,,,,,,,,,671.5204,671.5205,671.5217,672.6028,0,0,left,0.5528,,672.6047,672.6054,,1,,672.606,672.6065,,0,,1,672.6065,672.6065,672.6072,674.1033,0,25,25,25,1,0.8,0.2,0.2,0.8,1,0,,,,,,,,,,,,,,,,,,,,,,,,,,,,,,,,,,,,
,,649dba79b97070557ebe3d0b,66fc997124836cbf24a2bac4,2024-10-01_18h54.30.072,mdp,2024.2.1,Win32,59.52380952,66fa4ebf79326e780c390304,,,,,,,,,,,,,,,,,,,,,674.1044,674.1045,674.1064,675.0191,0,0,left,0.4072,,675.0217,675.0234,,0,,675.025,675.0263,,1,,1,675.0264,675.0264,675.0276,676.519,0,26,26,26,1,0.8,0.2,0.2,0.8,1,0,,,,,,,,,,,,,,,,,,,,,,,,,,,,,,,,,,,,
,,649dba79b97070557ebe3d0b,66fc997124836cbf24a2bac4,2024-10-01_18h54.30.072,mdp,2024.2.1,Win32,59.52380952,66fa4ebf79326e780c390304,,,,,,,,,,,,,,,,,,,,,676.5205,676.5205,676.5218,677.5522,0,0,left,0.5149,,677.5543,677.555,,0,,677.5556,677.5561,,1,,1,677.5561,677.5561,677.5565,679.0529,0,27,27,27,1,0.8,0.2,0.2,0.8,1,0,,,,,,,,,,,,,,,,,,,,,,,,,,,,,,,,,,,,
,,649dba79b97070557ebe3d0b,66fc997124836cbf24a2bac4,2024-10-01_18h54.30.072,mdp,2024.2.1,Win32,59.52380952,66fa4ebf79326e780c390304,,,,,,,,,,,,,,,,,,,,,679.054,679.054,679.056,680.2026,0,0,left,0.6393,,680.2052,680.2065,,0,,680.2081,680.209,,0,,1,680.2092,680.2092,680.21,681.7052,0,28,28,28,1,0.8,0.2,0.2,0.8,1,0,,,,,,,,,,,,,,,,,,,,,,,,,,,,,,,,,,,,
,,649dba79b97070557ebe3d0b,66fc997124836cbf24a2bac4,2024-10-01_18h54.30.072,mdp,2024.2.1,Win32,59.52380952,66fa4ebf79326e780c390304,,,,,,,,,,,,,,,,,,,,,681.7059,681.7059,681.7076,682.6271,0,1,left,0.3992,,682.6289,682.6299,,0,,682.6317,682.6325,,0,,0,682.6326,682.6326,682.6334,684.1229,0,29,29,29,1,0.8,0.2,0.2,0.8,1,0,,,,,,,,,,,,,,,,,,,,,,,,,,,,,,,,,,,,
,,649dba79b97070557ebe3d0b,66fc997124836cbf24a2bac4,2024-10-01_18h54.30.072,mdp,2024.2.1,Win32,59.52380952,66fa4ebf79326e780c390304,,,,,,,,,,,,,,,,,,,,,684.1238,684.1238,684.1257,685.1364,1,1,right,0.4866,,685.1384,685.1397,,1,,685.1411,685.1421,,1,,0,685.1422,685.1422,685.1433,686.6393,0,30,30,30,1,0.8,0.2,0.2,0.8,1,0,,,,,,,,,,,,,,,,,,,,,,,,,,,,,,,,,,,,
,,649dba79b97070557ebe3d0b,66fc997124836cbf24a2bac4,2024-10-01_18h54.30.072,mdp,2024.2.1,Win32,59.52380952,66fa4ebf79326e780c390304,,,,,,,,,,,,,,,,,,,,,686.64,686.64,686.6417,687.4274,0,0,left,0.2708,,687.4292,687.4303,,0,,687.4314,687.4322,,0,,1,687.4323,687.4323,687.4333,688.9392,0,31,31,31,1,0.8,0.2,0.2,0.8,1,0,,,,,,,,,,,,,,,,,,,,,,,,,,,,,,,,,,,,
,,649dba79b97070557ebe3d0b,66fc997124836cbf24a2bac4,2024-10-01_18h54.30.072,mdp,2024.2.1,Win32,59.52380952,66fa4ebf79326e780c390304,,,,,,,,,,,,,,,,,,,,,688.9398,688.9399,688.9414,690.0272,0,1,left,0.5701,,690.0292,690.0306,,0,,690.0317,690.0327,,0,,0,690.0328,690.0328,690.0353,691.5217,0,32,32,32,1,0.8,0.2,0.2,0.8,1,0,,,,,,,,,,,,,,,,,,,,,,,,,,,,,,,,,,,,
,,649dba79b97070557ebe3d0b,66fc997124836cbf24a2bac4,2024-10-01_18h54.30.072,mdp,2024.2.1,Win32,59.52380952,66fa4ebf79326e780c390304,,,,,,,,,,,,,,,,,,,,,691.5227,691.5227,691.5246,692.4258,0,1,left,0.3857,,692.4277,692.4288,,0,,692.4298,692.4306,,0,,0,692.4307,692.4307,692.4316,693.919,0,33,33,33,1,0.2,0.8,0.8,0.2,1,0,,,,,,,,,,,,,,,,,,,,,,,,,,,,,,,,,,,,
,,649dba79b97070557ebe3d0b,66fc997124836cbf24a2bac4,2024-10-01_18h54.30.072,mdp,2024.2.1,Win32,59.52380952,66fa4ebf79326e780c390304,,,,,,,,,,,,,,,,,,,,,693.9204,693.9205,693.9222,694.5097,1,0,right,0.0826,,694.5114,694.5123,,1,,694.5133,694.5141,,0,,1,694.5141,694.5141,694.5151,696.0032,0,34,34,34,1,0.2,0.8,0.8,0.2,1,0,,,,,,,,,,,,,,,,,,,,,,,,,,,,,,,,,,,,
,,649dba79b97070557ebe3d0b,66fc997124836cbf24a2bac4,2024-10-01_18h54.30.072,mdp,2024.2.1,Win32,59.52380952,66fa4ebf79326e780c390304,,,,,,,,,,,,,,,,,,,,,696.0041,696.0041,696.0061,696.9019,1,0,right,0.3687,,696.9044,696.9055,,1,,696.9065,696.9073,,1,,1,696.9073,696.9073,696.9082,698.4033,0,35,35,35,1,0.2,0.8,0.8,0.2,1,0,,,,,,,,,,,,,,,,,,,,,,,,,,,,,,,,,,,,
,,649dba79b97070557ebe3d0b,66fc997124836cbf24a2bac4,2024-10-01_18h54.30.072,mdp,2024.2.1,Win32,59.52380952,66fa4ebf79326e780c390304,,,,,,,,,,,,,,,,,,,,,698.404,698.404,698.4057,699.2923,1,1,right,0.3665,,699.2941,699.2954,,0,,699.2964,699.2972,,1,,0,699.2973,699.2973,699.2981,700.7875,0,36,36,36,1,0.2,0.8,0.8,0.2,1,0,,,,,,,,,,,,,,,,,,,,,,,,,,,,,,,,,,,,
,,649dba79b97070557ebe3d0b,66fc997124836cbf24a2bac4,2024-10-01_18h54.30.072,mdp,2024.2.1,Win32,59.52380952,66fa4ebf79326e780c390304,,,,,,,,,,,,,,,,,,,,,700.7886,700.7887,700.7904,701.7762,1,0,right,0.4544,,701.778,701.779,,0,,701.7801,701.7809,,0,,1,701.781,701.781,701.7819,703.269,0,37,37,37,1,0.2,0.8,0.8,0.2,1,0,,,,,,,,,,,,,,,,,,,,,,,,,,,,,,,,,,,,
,,649dba79b97070557ebe3d0b,66fc997124836cbf24a2bac4,2024-10-01_18h54.30.072,mdp,2024.2.1,Win32,59.52380952,66fa4ebf79326e780c390304,,,,,,,,,,,,,,,,,,,,,703.2697,703.2697,703.2715,705.6067,1,0,right,1.8189,,705.6079,705.6085,,0,,705.6092,705.6096,,1,,1,705.6097,705.6097,705.6102,707.1018,0,38,38,38,1,0.2,0.8,0.8,0.2,1,0,,,,,,,,,,,,,,,,,,,,,,,,,,,,,,,,,,,,
,,649dba79b97070557ebe3d0b,66fc997124836cbf24a2bac4,2024-10-01_18h54.30.072,mdp,2024.2.1,Win32,59.52380952,66fa4ebf79326e780c390304,,,,,,,,,,,,,,,,,,,,,707.1029,707.1029,707.1048,711.4513,1,0,right,3.8081,,711.4545,711.4558,,0,,711.4574,711.4583,,1,,1,711.4584,711.4584,711.4593,712.9506,0,39,39,39,1,0.2,0.8,0.8,0.2,1,0,,,,,,,,,,,,,,,,,,,,,,,,,,,,,,,,,,,,
,,649dba79b97070557ebe3d0b,66fc997124836cbf24a2bac4,2024-10-01_18h54.30.072,mdp,2024.2.1,Win32,59.52380952,66fa4ebf79326e780c390304,,,,,,,,,,,,,,,,,,,,,712.9523,712.9523,712.9555,714.7012,1,1,right,1.2085,,714.7033,714.7043,,0,,714.7053,714.706,,0,,0,714.706,714.706,714.7068,716.2007,0,40,40,40,1,0.2,0.8,0.8,0.2,1,0,,,,,,,,,,,,,,,,,,,,,,,,,,,,,,,,,,,,
,,649dba79b97070557ebe3d0b,66fc997124836cbf24a2bac4,2024-10-01_18h54.30.072,mdp,2024.2.1,Win32,59.52380952,66fa4ebf79326e780c390304,,,,,,,,,,,,,,,,,,,,,716.202,716.202,716.2037,718.9073,0,0,left,2.1706,,718.9092,718.9102,,0,,718.9113,718.9122,,0,,1,718.9122,718.9122,718.913,720.4021,0,41,41,41,1,0.8,0.2,0.2,0.8,1,0,,,,,,,,,,,,,,,,,,,,,,,,,,,,,,,,,,,,
,,649dba79b97070557ebe3d0b,66fc997124836cbf24a2bac4,2024-10-01_18h54.30.072,mdp,2024.2.1,Win32,59.52380952,66fa4ebf79326e780c390304,,,,,,,,,,,,,,,,,,,,,720.4027,720.4027,720.4043,721.455,0,1,left,0.529,,721.4568,721.458,,0,,721.4593,721.4601,,1,,0,721.4601,721.4601,721.461,722.9507,0,42,42,42,1,0.8,0.2,0.2,0.8,1,0,,,,,,,,,,,,,,,,,,,,,,,,,,,,,,,,,,,,
,,649dba79b97070557ebe3d0b,66fc997124836cbf24a2bac4,2024-10-01_18h54.30.072,mdp,2024.2.1,Win32,59.52380952,66fa4ebf79326e780c390304,,,,,,,,,,,,,,,,,,,,,722.9526,722.9526,722.9543,724.1679,0,1,left,0.6842,,724.1702,724.1715,,0,,724.1727,724.1737,,0,,0,724.1738,724.1738,724.1747,725.6687,0,43,43,43,1,0.8,0.2,0.2,0.8,1,0,,,,,,,,,,,,,,,,,,,,,,,,,,,,,,,,,,,,
,,649dba79b97070557ebe3d0b,66fc997124836cbf24a2bac4,2024-10-01_18h54.30.072,mdp,2024.2.1,Win32,59.52380952,66fa4ebf79326e780c390304,,,,,,,,,,,,,,,,,,,,,725.6693,725.6693,725.6711,726.5856,0,1,left,0.3824,,726.5864,726.587,,1,,726.5874,726.5879,,0,,0,726.5879,726.5879,726.5883,728.0848,0,44,44,44,1,0.4,0.6,0.8,0.2,1,0,,,,,,,,,,,,,,,,,,,,,,,,,,,,,,,,,,,,
,,649dba79b97070557ebe3d0b,66fc997124836cbf24a2bac4,2024-10-01_18h54.30.072,mdp,2024.2.1,Win32,59.52380952,66fa4ebf79326e780c390304,,,,,,,,,,,,,,,,,,,,,728.0856,728.0856,728.0876,728.9708,0,1,left,0.3818,,728.973,728.9744,,0,,728.9759,728.977,,1,,0,728.9771,728.9771,728.9785,730.4695,0,45,45,45,1,0.6,0.4,0.6,0.4,1,0,,,,,,,,,,,,,,,,,,,,,,,,,,,,,,,,,,,,
,,649dba79b97070557ebe3d0b,66fc997124836cbf24a2bac4,2024-10-01_18h54.30.072,mdp,2024.2.1,Win32,59.52380952,66fa4ebf79326e780c390304,,,,,,,,,,,,,,,,,,,,,730.4702,730.4702,730.472,731.1701,1,0,right,0.1784,,731.1719,731.1731,,1,,731.1742,731.1752,,0,,1,731.1752,731.1752,731.1763,732.6687,0,46,46,46,1,0.6,0.4,0.6,0.4,1,0,,,,,,,,,,,,,,,,,,,,,,,,,,,,,,,,,,,,
,,649dba79b97070557ebe3d0b,66fc997124836cbf24a2bac4,2024-10-01_18h54.30.072,mdp,2024.2.1,Win32,59.52380952,66fa4ebf79326e780c390304,,,,,,,,,,,,,,,,,,,,,732.6693,732.6694,732.671,734.3837,1,1,right,1.1935,,734.3864,734.3876,,1,,734.3889,734.3899,,1,,0,734.39,734.39,734.3908,735.8831,0,47,47,47,1,0.6,0.4,0.6,0.4,1,0,,,,,,,,,,,,,,,,,,,,,,,,,,,,,,,,,,,,
,,649dba79b97070557ebe3d0b,66fc997124836cbf24a2bac4,2024-10-01_18h54.30.072,mdp,2024.2.1,Win32,59.52380952,66fa4ebf79326e780c390304,,,,,,,,,,,,,,,,,,,,,735.8848,735.8848,735.8864,737.0334,1,0,right,0.6059,,737.0359,737.037,,0,,737.0381,737.0392,,0,,1,737.0393,737.0393,737.0404,738.5356,0,48,48,48,1,0.6,0.4,0.6,0.4,1,0,,,,,,,,,,,,,,,,,,,,,,,,,,,,,,,,,,,,
,,649dba79b97070557ebe3d0b,66fc997124836cbf24a2bac4,2024-10-01_18h54.30.072,mdp,2024.2.1,Win32,59.52380952,66fa4ebf79326e780c390304,,,,,,,,,,,,,,,,,,,,,738.5368,738.5368,738.5376,739.4742,1,0,right,0.4039,,739.4762,739.4776,,1,,739.4789,739.4798,,1,,1,739.4798,739.4798,739.4806,740.9833,0,49,49,49,1,0.8,0.2,0.2,0.8,1,0,,,,,,,,,,,,,,,,,,,,,,,,,,,,,,,,,,,,
,,649dba79b97070557ebe3d0b,66fc997124836cbf24a2bac4,2024-10-01_18h54.30.072,mdp,2024.2.1,Win32,59.52380952,66fa4ebf79326e780c390304,,,,,,,,,,,,,,,,,,,,,,,,,,,,,,,,,,,,,,,,,,,,,,,,,,,,,,,,740.9842,799.4812,0,0,0,1,1,imgs/kangaroo.png,imgs/giraffe.png,imgs/cat.png,imgs/goat.png,imgs/pig.png,,,,,,,,,,,,,,,,,,,,,,,,
,,649dba79b97070557ebe3d0b,66fc997124836cbf24a2bac4,2024-10-01_18h54.30.072,mdp,2024.2.1,Win32,59.52380952,66fa4ebf79326e780c390304,,,,,,,,,,,,,,2,seqs/st2seq38.csv,799.4834,854.1534,space,54.1503,,854.1666,854.1667,854.1677,855.9993,1,1,right,1.3031,,856.0003,857.9512,0,0,left,857.9531,857.9546,,1,,1,857.9547,857.9547,857.9558,859.4447,0,0,0,0,1,0.4,0.6,0.4,0.6,,,,,,,,,,,,,,,1.4204,,0.2,0.8,0.2,0.8,0.4,0.6,0.8,0.2,1,0,,,,,,,,,,,,
,,649dba79b97070557ebe3d0b,66fc997124836cbf24a2bac4,2024-10-01_18h54.30.072,mdp,2024.2.1,Win32,59.52380952,66fa4ebf79326e780c390304,,,,,,,,,,,,,,,,,,,,,859.4456,859.4456,859.4471,861.401,0,0,left,1.4325,,861.4026,863.6279,0,1,left,863.6301,863.6314,,1,,0,863.6315,863.6315,863.6324,865.1272,0,1,1,1,1,0.4,0.6,0.4,0.6,,,,,,,,,,,,,,,1.6881,,0.2,0.8,0.2,0.8,0.4,0.6,0.8,0.2,1,0,,,,,,,,,,,,
,,649dba79b97070557ebe3d0b,66fc997124836cbf24a2bac4,2024-10-01_18h54.30.072,mdp,2024.2.1,Win32,59.52380952,66fa4ebf79326e780c390304,,,,,,,,,,,,,,,,,,,,,865.1292,865.1292,865.131,866.3943,0,1,left,0.7252,,866.3967,867.8603,1,0,right,867.862,867.8625,,0,,1,867.8626,867.8626,867.863,869.3606,0,2,2,2,1,0.4,0.6,0.4,0.6,,,,,,,,,,,,,,,0.9375,,0.2,0.8,0.2,0.8,0.4,0.6,0.8,0.2,1,0,,,,,,,,,,,,
,,649dba79b97070557ebe3d0b,66fc997124836cbf24a2bac4,2024-10-01_18h54.30.072,mdp,2024.2.1,Win32,59.52380952,66fa4ebf79326e780c390304,,,,,,,,,,,,,,,,,,,,,869.3619,869.3619,869.3636,871.385,0,1,left,1.517,,871.3871,904.5743,1,0,right,904.5761,904.5767,,0,,1,904.5767,904.5767,904.5773,906.0752,0,3,3,3,1,0.4,0.6,0.4,0.6,,,,,,,,,,,,,,,32.6691,,0.2,0.8,0.2,0.8,0.4,0.6,0.8,0.2,1,0,,,,,,,,,,,,
,,649dba79b97070557ebe3d0b,66fc997124836cbf24a2bac4,2024-10-01_18h54.30.072,mdp,2024.2.1,Win32,59.52380952,66fa4ebf79326e780c390304,,,,,,,,,,,,,,,,,,,,,906.0769,906.0769,906.0784,908.192,1,1,right,1.5917,,908.1939,909.6074,0,1,left,909.6093,909.61,,1,,0,909.6101,909.6101,909.6106,911.1106,0,4,4,4,1,0.4,0.6,0.4,0.6,,,,,,,,,,,,,,,0.9022,,0.2,0.8,0.2,0.8,0.4,0.6,0.8,0.2,1,0,,,,,,,,,,,,
,,649dba79b97070557ebe3d0b,66fc997124836cbf24a2bac4,2024-10-01_18h54.30.072,mdp,2024.2.1,Win32,59.52380952,66fa4ebf79326e780c390304,,,,,,,,,,,,,,,,,,,,,911.1114,911.1114,911.1133,912.6317,1,1,right,0.9868,,912.6335,914.6832,0,0,left,914.6853,914.6868,,0,,1,914.6869,914.687,914.6883,916.1744,0,5,5,5,1,0.4,0.6,0.4,0.6,,,,,,,,,,,,,,,1.5333,,0.2,0.8,0.2,0.8,0.4,0.6,0.8,0.2,1,0,,,,,,,,,,,,
,,649dba79b97070557ebe3d0b,66fc997124836cbf24a2bac4,2024-10-01_18h54.30.072,mdp,2024.2.1,Win32,59.52380952,66fa4ebf79326e780c390304,,,,,,,,,,,,,,,,,,,,,916.1757,916.1759,916.1778,917.9497,0,1,left,1.2673,,917.9516,920.0618,1,1,right,920.0639,920.065,,0,,0,920.0651,920.0652,920.0662,921.5597,0,6,6,6,1,0.4,0.6,0.4,0.6,,,,,,,,,,,,,,,1.6,,0.6,0.4,0.4,0.6,0.4,0.6,0.8,0.2,1,0,,,,,,,,,,,,
,,649dba79b97070557ebe3d0b,66fc997124836cbf24a2bac4,2024-10-01_18h54.30.072,mdp,2024.2.1,Win32,59.52380952,66fa4ebf79326e780c390304,,,,,,,,,,,,,,,,,,,,,921.56,921.5601,921.5609,922.8748,0,0,left,0.7865,,922.8774,925.0751,0,0,left,925.077,925.0782,,0,,1,925.0782,925.0782,925.0793,926.5759,0,7,7,7,1,0.4,0.6,0.4,0.6,,,,,,,,,,,,,,,1.6576,,0.6,0.4,0.4,0.6,0.8,0.2,0.2,0.8,1,0,,,,,,,,,,,,
,,649dba79b97070557ebe3d0b,66fc997124836cbf24a2bac4,2024-10-01_18h54.30.072,mdp,2024.2.1,Win32,59.52380952,66fa4ebf79326e780c390304,,,,,,,,,,,,,,,,,,,,,926.5761,926.5762,926.5769,928.2915,0,0,left,1.173,,928.2939,930.1906,0,0,left,930.1928,930.194,,0,,1,930.1941,930.1941,930.1951,931.6901,0,8,8,8,1,0.4,0.6,0.4,0.6,,,,,,,,,,,,,,,1.3565,,0.6,0.4,0.4,0.6,0.8,0.2,0.2,0.8,1,0,,,,,,,,,,,,
,,649dba79b97070557ebe3d0b,66fc997124836cbf24a2bac4,2024-10-01_18h54.30.072,mdp,2024.2.1,Win32,59.52380952,66fa4ebf79326e780c390304,,,,,,,,,,,,,,,,,,,,,931.6916,931.6916,931.6931,933.2746,0,1,left,1.0437,,933.277,934.8411,1,1,right,934.8431,934.8445,,1,,0,934.8445,934.8445,934.8456,936.3412,0,9,9,9,1,0.4,0.6,0.4,0.6,,,,,,,,,,,,,,,1.0441,,0.2,0.8,0.2,0.8,0.8,0.2,0.2,0.8,1,0,,,,,,,,,,,,
,,649dba79b97070557ebe3d0b,66fc997124836cbf24a2bac4,2024-10-01_18h54.30.072,mdp,2024.2.1,Win32,59.52380952,66fa4ebf79326e780c390304,,,,,,,,,,,,,,,,,,,,,936.3424,936.3425,936.3445,937.8623,0,0,left,0.9844,,937.8637,939.5072,0,1,left,939.5097,939.5109,,0,,0,939.511,939.511,939.5125,941.0065,0,10,10,10,1,0.4,0.6,0.4,0.6,,,,,,,,,,,,,,,1.1102,,0.2,0.8,0.2,0.8,0.8,0.2,0.2,0.8,1,0,,,,,,,,,,,,
,,649dba79b97070557ebe3d0b,66fc997124836cbf24a2bac4,2024-10-01_18h54.30.072,mdp,2024.2.1,Win32,59.52380952,66fa4ebf79326e780c390304,,,,,,,,,,,,,,,,,,,,,941.0081,941.0081,941.01,942.0814,0,1,left,0.5554,,942.0833,943.5895,1,0,right,943.591,943.5915,,1,,1,943.5915,943.5915,943.5919,945.0899,0,11,11,11,1,0.4,0.6,0.4,0.6,,,,,,,,,,,,,,,0.9709,,0.2,0.8,0.2,0.8,0.8,0.2,0.2,0.8,1,0,,,,,,,,,,,,
,,649dba79b97070557ebe3d0b,66fc997124836cbf24a2bac4,2024-10-01_18h54.30.072,mdp,2024.2.1,Win32,59.52380952,66fa4ebf79326e780c390304,,,,,,,,,,,,,,,,,,,,,945.0912,945.0912,945.0928,946.2813,0,0,left,0.6548,,946.283,947.9292,0,1,left,947.931,947.9323,,1,,0,947.9324,947.9324,947.9338,949.4231,0,12,12,12,1,0.4,0.6,0.4,0.6,,,,,,,,,,,,,,,1.119,,0.2,0.8,0.2,0.8,0.8,0.2,0.2,0.8,1,0,,,,,,,,,,,,
,,649dba79b97070557ebe3d0b,66fc997124836cbf24a2bac4,2024-10-01_18h54.30.072,mdp,2024.2.1,Win32,59.52380952,66fa4ebf79326e780c390304,,,,,,,,,,,,,,,,,,,,,949.4249,949.4249,949.4265,950.6643,0,1,left,0.7349,,950.6663,952.9303,1,0,right,952.9321,952.9334,,0,,1,952.9334,952.9334,952.9346,954.4268,0,13,13,13,1,0.4,0.6,0.4,0.6,,,,,,,,,,,,,,,1.7366,,0.2,0.8,0.2,0.8,0.6,0.4,0.8,0.2,1,0,,,,,,,,,,,,
,,649dba79b97070557ebe3d0b,66fc997124836cbf24a2bac4,2024-10-01_18h54.30.072,mdp,2024.2.1,Win32,59.52380952,66fa4ebf79326e780c390304,,,,,,,,,,,,,,,,,,,,,954.4274,954.4275,954.4292,956.53,0,0,left,1.5827,,956.5313,958.1471,0,0,left,958.1489,958.1502,,1,,1,958.1504,958.1504,958.1516,959.6392,0,14,14,14,1,0.4,0.6,0.4,0.6,,,,,,,,,,,,,,,1.088,,0.2,0.8,0.2,0.8,0.6,0.4,0.8,0.2,1,0,,,,,,,,,,,,
,,649dba79b97070557ebe3d0b,66fc997124836cbf24a2bac4,2024-10-01_18h54.30.072,mdp,2024.2.1,Win32,59.52380952,66fa4ebf79326e780c390304,,,,,,,,,,,,,,,,,,,,,959.6409,959.641,959.6425,960.8601,0,0,left,0.7122,,960.862,962.7417,0,1,left,962.7437,962.7449,,1,,0,962.745,962.745,962.7461,964.2389,0,15,15,15,1,0.4,0.6,0.4,0.6,,,,,,,,,,,,,,,1.3645,,0.2,0.8,0.2,0.8,0.6,0.4,0.8,0.2,1,0,,,,,,,,,,,,
,,649dba79b97070557ebe3d0b,66fc997124836cbf24a2bac4,2024-10-01_18h54.30.072,mdp,2024.2.1,Win32,59.52380952,66fa4ebf79326e780c390304,,,,,,,,,,,,,,,,,,,,,964.2405,964.2405,964.242,965.4807,0,1,left,0.705,,965.4826,966.8555,1,0,right,966.8571,966.8578,,0,,1,966.8578,966.8578,966.8585,968.3552,0,16,16,16,1,0.4,0.6,0.4,0.6,,,,,,,,,,,,,,,0.8457,,0.2,0.8,0.2,0.8,0.6,0.4,0.8,0.2,1,0,,,,,,,,,,,,
,,649dba79b97070557ebe3d0b,66fc997124836cbf24a2bac4,2024-10-01_18h54.30.072,mdp,2024.2.1,Win32,59.52380952,66fa4ebf79326e780c390304,,,,,,,,,,,,,,,,,,,,,968.3564,968.3564,968.3579,969.8462,0,0,left,0.9822,,969.848,971.6462,0,1,left,971.6481,971.6496,,1,,0,971.6496,971.6496,971.6509,973.1386,0,17,17,17,1,0.4,0.6,0.4,0.6,,,,,,,,,,,,,,,1.2704,,0.2,0.8,0.2,0.8,0.6,0.4,0.8,0.2,1,0,,,,,,,,,,,,
,,649dba79b97070557ebe3d0b,66fc997124836cbf24a2bac4,2024-10-01_18h54.30.072,mdp,2024.2.1,Win32,59.52380952,66fa4ebf79326e780c390304,,,,,,,,,,,,,,,,,,,,,973.1396,973.1396,973.1414,974.392,0,1,left,0.7156,,974.3939,975.6625,1,0,right,975.6645,975.6658,,0,,1,975.6659,975.666,975.6676,977.1589,0,18,18,18,1,0.4,0.6,0.4,0.6,,,,,,,,,,,,,,,0.7366,,0.4,0.6,0.6,0.4,0.6,0.4,0.8,0.2,1,0,,,,,,,,,,,,
,,649dba79b97070557ebe3d0b,66fc997124836cbf24a2bac4,2024-10-01_18h54.30.072,mdp,2024.2.1,Win32,59.52380952,66fa4ebf79326e780c390304,,,,,,,,,,,,,,,,,,,,,977.1596,977.1597,977.1613,978.2881,0,1,left,0.593,,978.2905,979.7564,1,0,right,979.7575,979.7582,,0,,1,979.7583,979.7583,979.7588,981.2548,0,19,19,19,1,0.4,0.6,0.4,0.6,,,,,,,,,,,,,,,0.9538,,0.4,0.6,0.6,0.4,0.6,0.4,0.8,0.2,1,0,,,,,,,,,,,,
,,649dba79b97070557ebe3d0b,66fc997124836cbf24a2bac4,2024-10-01_18h54.30.072,mdp,2024.2.1,Win32,59.52380952,66fa4ebf79326e780c390304,,,,,,,,,,,,,,,,,,,,,981.2561,981.2561,981.2579,983.3227,0,1,left,1.5444,,983.3248,984.6207,1,1,right,984.6226,984.6232,,0,,0,984.6232,984.6232,984.6239,986.1212,0,20,20,20,1,0.4,0.6,0.4,0.6,,,,,,,,,,,,,,,0.7608,,0.6,0.4,0.4,0.6,0.6,0.4,0.8,0.2,1,0,,,,,,,,,,,,
,,649dba79b97070557ebe3d0b,66fc997124836cbf24a2bac4,2024-10-01_18h54.30.072,mdp,2024.2.1,Win32,59.52380952,66fa4ebf79326e780c390304,,,,,,,,,,,,,,,,,,,,,986.1222,986.1223,986.1242,987.3959,0,0,left,0.7547,,987.3976,988.6785,0,1,left,988.6809,988.6821,,1,,0,988.6821,988.6821,988.683,990.1713,0,21,21,21,1,0.4,0.6,0.4,0.6,,,,,,,,,,,,,,,0.7536,,0.6,0.4,0.4,0.6,0.6,0.4,0.8,0.2,1,0,,,,,,,,,,,,
,,649dba79b97070557ebe3d0b,66fc997124836cbf24a2bac4,2024-10-01_18h54.30.072,mdp,2024.2.1,Win32,59.52380952,66fa4ebf79326e780c390304,,,,,,,,,,,,,,,,,,,,,990.1723,990.1723,990.1744,991.4297,0,1,left,0.737,,991.4316,992.5922,1,1,right,992.5932,992.5938,,1,,0,992.5939,992.5939,992.5943,994.0874,0,22,22,22,1,0.4,0.6,0.4,0.6,,,,,,,,,,,,,,,0.6348,,0.6,0.4,0.4,0.6,0.8,0.2,0.2,0.8,1,0,,,,,,,,,,,,
,,649dba79b97070557ebe3d0b,66fc997124836cbf24a2bac4,2024-10-01_18h54.30.072,mdp,2024.2.1,Win32,59.52380952,66fa4ebf79326e780c390304,,,,,,,,,,,,,,,,,,,,,994.0888,994.0888,994.0904,996.5123,0,1,left,1.9049,,996.5142,997.7214,1,1,right,997.7237,997.7257,,1,,0,997.7257,997.7257,997.7273,999.2202,0,23,23,23,1,0.4,0.6,0.4,0.6,,,,,,,,,,,,,,,0.6756,,0.6,0.4,0.4,0.6,0.8,0.2,0.2,0.8,1,0,,,,,,,,,,,,
,,649dba79b97070557ebe3d0b,66fc997124836cbf24a2bac4,2024-10-01_18h54.30.072,mdp,2024.2.1,Win32,59.52380952,66fa4ebf79326e780c390304,,,,,,,,,,,,,,,,,,,,,999.2214,999.2214,999.2232,1000.2372,0,1,left,0.4763,,1000.2398,1001.4417,1,0,right,1001.4434,1001.4445,,1,,1,1001.4445,1001.4446,1001.4456,1002.938,0,24,24,24,1,0.2,0.8,0.2,0.8,,,,,,,,,,,,,,,0.6964,,0.6,0.4,0.4,0.6,0.8,0.2,0.2,0.8,1,0,,,,,,,,,,,,
,,649dba79b97070557ebe3d0b,66fc997124836cbf24a2bac4,2024-10-01_18h54.30.072,mdp,2024.2.1,Win32,59.52380952,66fa4ebf79326e780c390304,,,,,,,,,,,,,,,,,,,,,1002.9391,1002.9391,1002.9407,1004.0786,0,1,left,0.6349,,1004.0805,1005.2567,1,1,right,1005.2585,1005.2595,,1,,0,1005.2595,1005.2595,1005.2605,1006.7594,0,25,25,25,1,0.2,0.8,0.2,0.8,,,,,,,,,,,,,,,0.6494,,0.6,0.4,0.4,0.6,0.8,0.2,0.2,0.8,1,0,,,,,,,,,,,,
,,649dba79b97070557ebe3d0b,66fc997124836cbf24a2bac4,2024-10-01_18h54.30.072,mdp,2024.2.1,Win32,59.52380952,66fa4ebf79326e780c390304,,,,,,,,,,,,,,,,,,,,,1006.7602,1006.7602,1006.7619,1007.9713,0,1,left,0.689,,1007.9733,1008.9539,0,0,left,1008.9561,1008.9571,,1,,1,1008.9572,1008.9572,1008.9581,1010.453,0,26,26,26,1,0.2,0.8,0.2,0.8,,,,,,,,,,,,,,,0.4577,,0.6,0.4,0.4,0.6,0.8,0.2,0.2,0.8,1,0,,,,,,,,,,,,
,,649dba79b97070557ebe3d0b,66fc997124836cbf24a2bac4,2024-10-01_18h54.30.072,mdp,2024.2.1,Win32,59.52380952,66fa4ebf79326e780c390304,,,,,,,,,,,,,,,,,,,,,1010.4547,1010.4548,1010.4564,1011.6078,0,1,left,0.6197,,1011.6086,1012.7362,0,0,left,1012.7384,1012.7396,,0,,1,1012.7397,1012.7397,1012.7407,1014.2362,0,27,27,27,1,0.2,0.8,0.2,0.8,,,,,,,,,,,,,,,0.6039,,0.6,0.4,0.4,0.6,0.8,0.2,0.2,0.8,1,0,,,,,,,,,,,,
,,649dba79b97070557ebe3d0b,66fc997124836cbf24a2bac4,2024-10-01_18h54.30.072,mdp,2024.2.1,Win32,59.52380952,66fa4ebf79326e780c390304,,,,,,,,,,,,,,,,,,,,,1014.2377,1014.2377,1014.2393,1015.2736,0,1,left,0.5,,1015.276,1016.5451,0,0,left,1016.5468,1016.5475,,0,,1,1016.5476,1016.5476,1016.5485,1018.0397,0,28,28,28,1,0.2,0.8,0.2,0.8,,,,,,,,,,,,,,,0.7539,,0.6,0.4,0.4,0.6,0.8,0.2,0.2,0.8,1,0,,,,,,,,,,,,
,,649dba79b97070557ebe3d0b,66fc997124836cbf24a2bac4,2024-10-01_18h54.30.072,mdp,2024.2.1,Win32,59.52380952,66fa4ebf79326e780c390304,,,,,,,,,,,,,,,,,,,,,1018.0403,1018.0403,1018.0419,1019.061,0,1,left,0.5047,,1019.0628,1020.0697,0,0,left,1020.0716,1020.0728,,0,,1,1020.0728,1020.0728,1020.0738,1021.5718,0,29,29,29,1,0.2,0.8,0.2,0.8,,,,,,,,,,,,,,,0.4912,,0.6,0.4,0.4,0.6,0.8,0.2,0.2,0.8,1,0,,,,,,,,,,,,
,,649dba79b97070557ebe3d0b,66fc997124836cbf24a2bac4,2024-10-01_18h54.30.072,mdp,2024.2.1,Win32,59.52380952,66fa4ebf79326e780c390304,,,,,,,,,,,,,,,,,,,,,1021.5726,1021.5727,1021.5733,1022.6559,0,1,left,0.5658,,1022.6574,1023.7604,0,1,left,1023.7622,1023.7634,,0,,0,1023.7634,1023.7635,1023.7649,1025.2529,0,30,30,30,1,0.2,0.8,0.2,0.8,,,,,,,,,,,,,,,0.5723,,0.6,0.4,0.4,0.6,0.8,0.2,0.2,0.8,1,0,,,,,,,,,,,,
,,649dba79b97070557ebe3d0b,66fc997124836cbf24a2bac4,2024-10-01_18h54.30.072,mdp,2024.2.1,Win32,59.52380952,66fa4ebf79326e780c390304,,,,,,,,,,,,,,,,,,,,,1025.2539,1025.254,1025.2558,1026.2766,0,1,left,0.5036,,1026.2786,1027.3536,1,0,right,1027.3564,1027.3575,,1,,1,1027.3575,1027.3575,1027.3584,1028.8522,0,31,31,31,1,0.2,0.8,0.2,0.8,,,,,,,,,,,,,,,0.5549,,0.6,0.4,0.4,0.6,0.8,0.2,0.2,0.8,1,0,,,,,,,,,,,,
,,649dba79b97070557ebe3d0b,66fc997124836cbf24a2bac4,2024-10-01_18h54.30.072,mdp,2024.2.1,Win32,59.52380952,66fa4ebf79326e780c390304,,,,,,,,,,,,,,,,,,,,,1028.8543,1028.8543,1028.8561,1030.3591,0,1,left,0.9704,,1030.3604,1032.1606,1,0,right,1032.1623,1032.1637,,1,,1,1032.1638,1032.1638,1032.1648,1033.6519,0,32,32,32,1,0.2,0.8,0.2,0.8,,,,,,,,,,,,,,,1.2716,,0.6,0.4,0.4,0.6,0.8,0.2,0.2,0.8,1,0,,,,,,,,,,,,
,,649dba79b97070557ebe3d0b,66fc997124836cbf24a2bac4,2024-10-01_18h54.30.072,mdp,2024.2.1,Win32,59.52380952,66fa4ebf79326e780c390304,,,,,,,,,,,,,,,,,,,,,1033.653,1033.653,1033.6544,1034.8609,0,1,left,0.6851,,1034.8627,1035.9903,1,1,right,1035.9914,1035.9921,,0,,0,1035.9922,1035.9922,1035.9927,1037.485,0,33,33,33,1,0.2,0.8,0.2,0.8,,,,,,,,,,,,,,,0.6173,,0.6,0.4,0.4,0.6,0.8,0.2,0.2,0.8,1,0,,,,,,,,,,,,
,,649dba79b97070557ebe3d0b,66fc997124836cbf24a2bac4,2024-10-01_18h54.30.072,mdp,2024.2.1,Win32,59.52380952,66fa4ebf79326e780c390304,,,,,,,,,,,,,,,,,,,,,1037.4862,1037.4863,1037.4879,1038.5736,0,0,left,0.5647,,1038.5745,1039.9758,1,1,right,1039.9778,1039.9789,,1,,0,1039.9791,1039.9791,1039.9801,1041.4715,0,34,34,34,1,0.2,0.8,0.2,0.8,,,,,,,,,,,,,,,0.8706,,0.6,0.4,0.4,0.6,0.8,0.2,0.2,0.8,1,0,,,,,,,,,,,,
,,649dba79b97070557ebe3d0b,66fc997124836cbf24a2bac4,2024-10-01_18h54.30.072,mdp,2024.2.1,Win32,59.52380952,66fa4ebf79326e780c390304,,,,,,,,,,,,,,,,,,,,,1041.472,1041.472,1041.474,1042.3527,0,1,left,0.3587,,1042.3546,1043.477,1,1,right,1043.4788,1043.4798,,1,,0,1043.4798,1043.4798,1043.4808,1044.9723,0,35,35,35,1,0.2,0.8,0.2,0.8,,,,,,,,,,,,,,,0.5878,,0.6,0.4,0.4,0.6,0.8,0.2,0.2,0.8,1,0,,,,,,,,,,,,
,,649dba79b97070557ebe3d0b,66fc997124836cbf24a2bac4,2024-10-01_18h54.30.072,mdp,2024.2.1,Win32,59.52380952,66fa4ebf79326e780c390304,,,,,,,,,,,,,,,,,,,,,1044.9728,1044.9728,1044.9747,1045.8923,0,1,left,0.3995,,1045.8939,1047.0763,0,0,left,1047.0781,1047.0791,,1,,1,1047.0791,1047.0792,1047.0804,1048.5688,0,36,36,36,1,0.2,0.8,0.2,0.8,,,,,,,,,,,,,,,0.6696,,0.6,0.4,0.4,0.6,0.8,0.2,0.2,0.8,1,0,,,,,,,,,,,,
,,649dba79b97070557ebe3d0b,66fc997124836cbf24a2bac4,2024-10-01_18h54.30.072,mdp,2024.2.1,Win32,59.52380952,66fa4ebf79326e780c390304,,,,,,,,,,,,,,,,,,,,,1048.5693,1048.5693,1048.5705,1049.5011,0,1,left,0.4216,,1049.5034,1050.4682,0,0,left,1050.4705,1050.4717,,0,,1,1050.4718,1050.4718,1050.4729,1051.9679,0,37,37,37,1,0.2,0.8,0.2,0.8,,,,,,,,,,,,,,,0.4267,,0.6,0.4,0.4,0.6,0.8,0.2,0.2,0.8,1,0,,,,,,,,,,,,
,,649dba79b97070557ebe3d0b,66fc997124836cbf24a2bac4,2024-10-01_18h54.30.072,mdp,2024.2.1,Win32,59.52380952,66fa4ebf79326e780c390304,,,,,,,,,,,,,,,,,,,,,1051.9693,1051.9693,1051.971,1052.8858,0,1,left,0.3837,,1052.8877,1054.0389,0,0,left,1054.0408,1054.0418,,0,,1,1054.0418,1054.0418,1054.0428,1055.5364,0,38,38,38,1,0.2,0.8,0.2,0.8,,,,,,,,,,,,,,,0.6292,,0.6,0.4,0.4,0.6,0.8,0.2,0.2,0.8,1,0,,,,,,,,,,,,
,,649dba79b97070557ebe3d0b,66fc997124836cbf24a2bac4,2024-10-01_18h54.30.072,mdp,2024.2.1,Win32,59.52380952,66fa4ebf79326e780c390304,,,,,,,,,,,,,,,,,,,,,1055.5373,1055.5373,1055.5397,1056.685,0,1,left,0.6255,,1056.6868,1058.2867,0,0,left,1058.2886,1058.2898,,0,,1,1058.2899,1058.2899,1058.291,1059.7884,0,39,39,39,1,0.2,0.8,0.2,0.8,,,,,,,,,,,,,,,1.0948,,0.6,0.4,0.4,0.6,0.8,0.2,0.2,0.8,1,0,,,,,,,,,,,,
,,649dba79b97070557ebe3d0b,66fc997124836cbf24a2bac4,2024-10-01_18h54.30.072,mdp,2024.2.1,Win32,59.52380952,66fa4ebf79326e780c390304,,,,,,,,,,,,,,,,,,,,,1059.7891,1059.7891,1059.7908,1060.851,0,1,left,0.5392,,1060.8533,1062.1075,0,0,left,1062.1093,1062.1102,,0,,1,1062.1103,1062.1103,1062.1112,1063.6029,0,40,40,40,1,0.2,0.8,0.2,0.8,,,,,,,,,,,,,,,0.7193,,0.6,0.4,0.4,0.6,0.8,0.2,0.2,0.8,1,0,,,,,,,,,,,,
,,649dba79b97070557ebe3d0b,66fc997124836cbf24a2bac4,2024-10-01_18h54.30.072,mdp,2024.2.1,Win32,59.52380952,66fa4ebf79326e780c390304,,,,,,,,,,,,,,,,,,,,,1063.6032,1063.6032,1063.6039,1064.6511,0,1,left,0.5102,,1064.653,1066.5501,0,0,left,1066.5516,1066.5521,,0,,1,1066.5521,1066.5521,1066.5527,1068.0547,0,41,41,41,1,0.2,0.8,0.2,0.8,,,,,,,,,,,,,,,1.3864,,0.6,0.4,0.4,0.6,0.8,0.2,0.2,0.8,1,0,,,,,,,,,,,,
,,649dba79b97070557ebe3d0b,66fc997124836cbf24a2bac4,2024-10-01_18h54.30.072,mdp,2024.2.1,Win32,59.52380952,66fa4ebf79326e780c390304,,,,,,,,,,,,,,,,,,,,,1068.0553,1068.0553,1068.0572,1069.0921,0,1,left,0.52,,1069.0939,1070.2177,0,0,left,1070.22,1070.221,,0,,1,1070.221,1070.221,1070.222,1071.7177,0,42,42,42,1,0.2,0.8,0.2,0.8,,,,,,,,,,,,,,,0.5895,,0.6,0.4,0.4,0.6,0.8,0.2,0.2,0.8,1,0,,,,,,,,,,,,
,,649dba79b97070557ebe3d0b,66fc997124836cbf24a2bac4,2024-10-01_18h54.30.072,mdp,2024.2.1,Win32,59.52380952,66fa4ebf79326e780c390304,,,,,,,,,,,,,,,,,,,,,1071.7185,1071.7187,1071.7205,1072.7246,0,1,left,0.5001,,1072.7264,1073.7841,0,0,left,1073.7859,1073.7868,,0,,1,1073.7868,1073.7868,1073.7877,1075.2861,0,43,43,43,1,0.2,0.8,0.2,0.8,,,,,,,,,,,,,,,0.5291,,0.6,0.4,0.4,0.6,0.8,0.2,0.2,0.8,1,0,,,,,,,,,,,,
,,649dba79b97070557ebe3d0b,66fc997124836cbf24a2bac4,2024-10-01_18h54.30.072,mdp,2024.2.1,Win32,59.52380952,66fa4ebf79326e780c390304,,,,,,,,,,,,,,,,,,,,,1075.2868,1075.2868,1075.2884,1076.209,0,1,left,0.4018,,1076.2109,1077.15,0,0,left,1077.1527,1077.1537,,0,,1,1077.1538,1077.1538,1077.1547,1078.6514,0,44,44,44,1,0.2,0.8,0.2,0.8,,,,,,,,,,,,,,,0.4188,,0.6,0.4,0.4,0.6,0.8,0.2,0.2,0.8,1,0,,,,,,,,,,,,
,,649dba79b97070557ebe3d0b,66fc997124836cbf24a2bac4,2024-10-01_18h54.30.072,mdp,2024.2.1,Win32,59.52380952,66fa4ebf79326e780c390304,,,,,,,,,,,,,,,,,,,,,1078.6521,1078.6521,1078.6534,1079.5403,0,1,left,0.3535,,1079.5417,1080.5167,0,0,left,1080.519,1080.52,,0,,1,1080.5201,1080.5201,1080.521,1082.0165,0,45,45,45,1,0.2,0.8,0.2,0.8,,,,,,,,,,,,,,,0.4368,,0.6,0.4,0.4,0.6,0.8,0.2,0.2,0.8,1,0,,,,,,,,,,,,
,,649dba79b97070557ebe3d0b,66fc997124836cbf24a2bac4,2024-10-01_18h54.30.072,mdp,2024.2.1,Win32,59.52380952,66fa4ebf79326e780c390304,,,,,,,,,,,,,,,,,,,,,1082.0176,1082.0176,1082.0191,1082.8673,0,1,left,0.3397,,1082.8691,1084.0724,0,0,left,1084.0737,1084.0744,,0,,1,1084.0745,1084.0745,1084.0753,1085.5687,0,46,46,46,1,0.2,0.8,0.2,0.8,,,,,,,,,,,,,,,0.6685,,0.2,0.8,0.2,0.8,0.8,0.2,0.2,0.8,1,0,,,,,,,,,,,,
,,649dba79b97070557ebe3d0b,66fc997124836cbf24a2bac4,2024-10-01_18h54.30.072,mdp,2024.2.1,Win32,59.52380952,66fa4ebf79326e780c390304,,,,,,,,,,,,,,,,,,,,,1085.5692,1085.5692,1085.5701,1086.8204,0,1,left,0.7294,,1086.8223,1088.0742,0,0,left,1088.0764,1088.0775,,0,,1,1088.0775,1088.0776,1088.0786,1089.5668,0,47,47,47,1,0.2,0.8,0.2,0.8,,,,,,,,,,,,,,,0.7358,,0.2,0.8,0.2,0.8,0.8,0.2,0.2,0.8,1,0,,,,,,,,,,,,
,,649dba79b97070557ebe3d0b,66fc997124836cbf24a2bac4,2024-10-01_18h54.30.072,mdp,2024.2.1,Win32,59.52380952,66fa4ebf79326e780c390304,,,,,,,,,,,,,,,,,,,,,1089.5673,1089.5673,1089.5688,1090.4164,0,1,left,0.3363,,1090.4191,1091.4577,0,0,left,1091.4597,1091.4609,,0,,1,1091.461,1091.461,1091.462,1092.9496,0,48,48,48,1,0.2,0.8,0.2,0.8,,,,,,,,,,,,,,,0.5047,,0.2,0.8,0.2,0.8,0.8,0.2,0.2,0.8,1,0,,,,,,,,,,,,
,,649dba79b97070557ebe3d0b,66fc997124836cbf24a2bac4,2024-10-01_18h54.30.072,mdp,2024.2.1,Win32,59.52380952,66fa4ebf79326e780c390304,,,,,,,,,,,,,,,,,,,,,1092.951,1092.9511,1092.9526,1093.8566,0,1,left,0.3854,,1093.8584,1094.8168,0,1,left,1094.8185,1094.8195,,0,,0,1094.8196,1094.8196,1094.8206,1096.3153,0,49,49,49,1,0.2,0.8,0.2,0.8,,,,,,,,,,,,,,,0.4356,,0.2,0.8,0.2,0.8,0.8,0.2,0.2,0.8,1,0,,,,,,,,,,,,
,,649dba79b97070557ebe3d0b,66fc997124836cbf24a2bac4,2024-10-01_18h54.30.072,mdp,2024.2.1,Win32,59.52380952,66fa4ebf79326e780c390304,,,,,,,,,,,,,,,,,,,,,,,,,,,,,,,,,,,,,,,,,,,,,,,,,,,,,,,,1096.3158,1154.8306,0,1,1,4,1,imgs/giraffe.png,imgs/elephant.png,imgs/rabbit.png,imgs/dog.png,imgs/goat.png,,,,,,,,,,,,,,,,,,,,,,,,
,,649dba79b97070557ebe3d0b,66fc997124836cbf24a2bac4,2024-10-01_18h54.30.072,mdp,2024.2.1,Win32,59.52380952,66fa4ebf79326e780c390304,,,,,,,,,,,,,,3,seqs/st3seq20.csv,1154.8325,1184.4361,space,29.0841,,1184.45,1184.45,1184.4511,1186.9455,1,1,right,1.9615,,1186.9478,1188.9828,1,0,right,1188.9852,1190.7444,1,1,right,0,1190.745,1190.745,1190.746,1192.2448,0,0,0,0,1,0.2,0.8,0.4,0.6,,,,,,,,,,,,,,,1.5187,,0.4,0.6,0.6,0.4,0.8,0.2,0.6,0.4,,,1.2238,,0.4,0.6,0.8,0.2,0.2,0.8,0.4,0.6,1,0
,,649dba79b97070557ebe3d0b,66fc997124836cbf24a2bac4,2024-10-01_18h54.30.072,mdp,2024.2.1,Win32,59.52380952,66fa4ebf79326e780c390304,,,,,,,,,,,,,,,,,,,,,1192.2463,1192.2463,1192.2479,1193.8108,0,1,left,1.0566,,1193.8132,1195.285,0,0,left,1195.2869,1196.3781,0,0,left,1,1196.3786,1196.3787,1196.3805,1197.8783,0,1,1,1,1,0.2,0.8,0.4,0.6,,,,,,,,,,,,,,,0.9671,,0.4,0.6,0.6,0.4,0.8,0.2,0.6,0.4,,,0.569,,0.4,0.6,0.8,0.2,0.2,0.8,0.4,0.6,1,0
,,649dba79b97070557ebe3d0b,66fc997124836cbf24a2bac4,2024-10-01_18h54.30.072,mdp,2024.2.1,Win32,59.52380952,66fa4ebf79326e780c390304,,,,,,,,,,,,,,,,,,,,,1197.8795,1197.8795,1197.8811,1198.9857,0,1,left,0.5833,,1198.9874,1200.1529,0,0,left,1200.1549,1201.2611,0,1,left,0,1201.2613,1201.2613,1201.2638,1202.7605,0,2,2,2,1,0.2,0.8,0.4,0.6,,,,,,,,,,,,,,,0.6544,,0.4,0.6,0.6,0.4,0.8,0.2,0.6,0.4,,,0.5887,,0.4,0.6,0.8,0.2,0.2,0.8,0.4,0.6,1,0
,,649dba79b97070557ebe3d0b,66fc997124836cbf24a2bac4,2024-10-01_18h54.30.072,mdp,2024.2.1,Win32,59.52380952,66fa4ebf79326e780c390304,,,,,,,,,,,,,,,,,,,,,1202.7618,1202.7618,1202.7632,1204.0597,0,1,left,0.7674,,1204.0619,1205.1268,1,1,right,1205.1291,1206.4596,0,1,left,0,1206.4597,1206.4597,1206.4614,1207.9599,0,3,3,3,1,0.2,0.8,0.4,0.6,,,,,,,,,,,,,,,0.5374,,0.4,0.6,0.6,0.4,0.8,0.2,0.6,0.4,,,0.7848,,0.4,0.6,0.8,0.2,0.2,0.8,0.4,0.6,1,0
,,649dba79b97070557ebe3d0b,66fc997124836cbf24a2bac4,2024-10-01_18h54.30.072,mdp,2024.2.1,Win32,59.52380952,66fa4ebf79326e780c390304,,,,,,,,,,,,,,,,,,,,,1207.9614,1207.9615,1207.9634,1209.3515,0,1,left,0.867,,1209.3533,1210.3933,0,1,left,1210.3953,1211.8935,1,1,right,0,1211.8937,1211.8937,1211.8966,1213.3943,0,4,4,4,1,0.2,0.8,0.4,0.6,,,,,,,,,,,,,,,0.5133,,0.4,0.6,0.6,0.4,0.8,0.2,0.6,0.4,,,0.9884,,0.4,0.6,0.8,0.2,0.2,0.8,0.4,0.6,1,0
,,649dba79b97070557ebe3d0b,66fc997124836cbf24a2bac4,2024-10-01_18h54.30.072,mdp,2024.2.1,Win32,59.52380952,66fa4ebf79326e780c390304,,,,,,,,,,,,,,,,,,,,,1213.3953,1213.3953,1213.3967,1215.1171,0,1,left,1.1879,,1215.1188,1216.7431,0,0,left,1216.7448,1217.7788,0,0,left,1,1217.7788,1217.7788,1217.7804,1219.2765,0,5,5,5,1,0.2,0.8,0.4,0.6,,,,,,,,,,,,,,,1.1054,,0.4,0.6,0.6,0.4,0.8,0.2,0.6,0.4,,,0.5155,,0.4,0.6,0.8,0.2,0.8,0.2,0.2,0.8,1,0
,,649dba79b97070557ebe3d0b,66fc997124836cbf24a2bac4,2024-10-01_18h54.30.072,mdp,2024.2.1,Win32,59.52380952,66fa4ebf79326e780c390304,,,,,,,,,,,,,,,,,,,,,1219.2781,1219.2781,1219.2796,1220.3937,0,1,left,0.6044,,1220.3964,1221.5267,0,0,left,1221.5289,1222.7612,0,0,left,1,1222.7613,1222.7613,1222.7621,1224.2596,0,6,6,6,1,0.2,0.8,0.4,0.6,,,,,,,,,,,,,,,0.6212,,0.4,0.6,0.6,0.4,0.8,0.2,0.6,0.4,,,0.6996,,0.4,0.6,0.8,0.2,0.8,0.2,0.2,0.8,1,0
,,649dba79b97070557ebe3d0b,66fc997124836cbf24a2bac4,2024-10-01_18h54.30.072,mdp,2024.2.1,Win32,59.52380952,66fa4ebf79326e780c390304,,,,,,,,,,,,,,,,,,,,,1224.2613,1224.2614,1224.2631,1225.5334,0,1,left,0.7501,,1225.5353,1227.2304,0,1,left,1227.2313,1229.6148,1,1,right,0,1229.6149,1229.6149,1229.6157,1231.1103,0,7,7,7,1,0.2,0.8,0.4,0.6,,,,,,,,,,,,,,,1.1676,,0.4,0.6,0.6,0.4,0.8,0.2,0.6,0.4,,,1.8525,,0.4,0.6,0.8,0.2,0.8,0.2,0.2,0.8,1,0
,,649dba79b97070557ebe3d0b,66fc997124836cbf24a2bac4,2024-10-01_18h54.30.072,mdp,2024.2.1,Win32,59.52380952,66fa4ebf79326e780c390304,,,,,,,,,,,,,,,,,,,,,1231.1111,1231.1111,1231.1124,1232.5807,0,1,left,0.9361,,1232.5818,1233.9758,0,0,left,1233.9791,1235.3522,0,0,left,1,1235.3523,1235.3523,1235.3539,1236.845,0,8,8,8,1,0.2,0.8,0.4,0.6,,,,,,,,,,,,,,,0.8726,,0.4,0.6,0.6,0.4,0.8,0.2,0.6,0.4,,,0.8391,,0.4,0.6,0.8,0.2,0.8,0.2,0.2,0.8,1,0
,,649dba79b97070557ebe3d0b,66fc997124836cbf24a2bac4,2024-10-01_18h54.30.072,mdp,2024.2.1,Win32,59.52380952,66fa4ebf79326e780c390304,,,,,,,,,,,,,,,,,,,,,1236.8462,1236.8462,1236.8487,1238.476,0,1,left,1.1083,,1238.4781,1239.8335,0,0,left,1239.8357,1241.062,0,1,left,0,1241.0621,1241.0621,1241.0636,1242.5591,0,9,9,9,1,0.2,0.8,0.4,0.6,,,,,,,,,,,,,,,0.8524,,0.4,0.6,0.6,0.4,0.8,0.2,0.6,0.4,,,0.7146,,0.4,0.6,0.8,0.2,0.8,0.2,0.2,0.8,1,0
,,649dba79b97070557ebe3d0b,66fc997124836cbf24a2bac4,2024-10-01_18h54.30.072,mdp,2024.2.1,Win32,59.52380952,66fa4ebf79326e780c390304,,,,,,,,,,,,,,,,,,,,,1242.5607,1242.5607,1242.5624,1243.4413,0,0,left,0.3549,,1243.4432,1245.225,1,0,right,1245.2277,1246.5293,0,0,left,1,1246.5294,1246.5295,1246.5313,1248.0279,0,10,10,10,1,0.2,0.8,0.4,0.6,,,,,,,,,,,,,,,1.2573,,0.2,0.8,0.4,0.6,0.8,0.2,0.6,0.4,,,0.7829,,0.4,0.6,0.8,0.2,0.8,0.2,0.2,0.8,1,0
,,649dba79b97070557ebe3d0b,66fc997124836cbf24a2bac4,2024-10-01_18h54.30.072,mdp,2024.2.1,Win32,59.52380952,66fa4ebf79326e780c390304,,,,,,,,,,,,,,,,,,,,,1248.0286,1248.0286,1248.0301,1249.1622,0,1,left,0.629,,1249.1643,1250.5584,0,1,left,1250.5611,1252.8589,1,1,right,0,1252.859,1252.8591,1252.8611,1254.3585,0,11,11,11,1,0.4,0.6,0.2,0.8,,,,,,,,,,,,,,,0.8552,,0.2,0.8,0.4,0.6,0.8,0.2,0.6,0.4,,,1.7793,,0.4,0.6,0.8,0.2,0.8,0.2,0.2,0.8,1,0
,,649dba79b97070557ebe3d0b,66fc997124836cbf24a2bac4,2024-10-01_18h54.30.072,mdp,2024.2.1,Win32,59.52380952,66fa4ebf79326e780c390304,,,,,,,,,,,,,,,,,,,,,1254.3597,1254.3597,1254.3617,1256.3097,0,0,left,1.4206,,1256.3119,1258.0244,1,1,right,1258.0269,1259.4738,0,0,left,1,1259.474,1259.4741,1259.4761,1260.9762,0,12,12,12,1,0.4,0.6,0.2,0.8,,,,,,,,,,,,,,,1.1731,,0.4,0.6,0.6,0.4,0.8,0.2,0.6,0.4,,,0.9095,,0.4,0.6,0.8,0.2,0.8,0.2,0.2,0.8,1,0
,,649dba79b97070557ebe3d0b,66fc997124836cbf24a2bac4,2024-10-01_18h54.30.072,mdp,2024.2.1,Win32,59.52380952,66fa4ebf79326e780c390304,,,,,,,,,,,,,,,,,,,,,1260.977,1260.9771,1260.9785,1263.7572,0,0,left,2.2488,,1263.7592,1267.0091,1,0,right,1267.01,1268.3918,0,0,left,1,1268.392,1268.392,1268.3942,1269.8909,0,13,13,13,1,0.4,0.6,0.2,0.8,,,,,,,,,,,,,,,2.7464,,0.4,0.6,0.6,0.4,0.8,0.2,0.6,0.4,,,0.8614,,0.4,0.6,0.8,0.2,0.8,0.2,0.2,0.8,1,0
,,649dba79b97070557ebe3d0b,66fc997124836cbf24a2bac4,2024-10-01_18h54.30.072,mdp,2024.2.1,Win32,59.52380952,66fa4ebf79326e780c390304,,,,,,,,,,,,,,,,,,,,,1269.8928,1269.8928,1269.8944,1272.3154,0,0,left,1.8882,,1272.3173,1273.9579,1,0,right,1273.9604,1275.113,0,1,left,0,1275.113,1275.113,1275.1141,1276.6095,0,14,14,14,1,0.4,0.6,0.2,0.8,,,,,,,,,,,,,,,1.1203,,0.4,0.6,0.6,0.4,0.8,0.2,0.6,0.4,,,0.6188,,0.4,0.6,0.8,0.2,0.8,0.2,0.2,0.8,1,0
,,649dba79b97070557ebe3d0b,66fc997124836cbf24a2bac4,2024-10-01_18h54.30.072,mdp,2024.2.1,Win32,59.52380952,66fa4ebf79326e780c390304,,,,,,,,,,,,,,,,,,,,,1276.61,1276.6101,1276.6109,1278.914,1,0,right,1.7853,,1278.9158,1280.2968,0,1,left,1280.2985,1281.4981,1,1,right,0,1281.4982,1281.4982,1281.5001,1282.993,0,15,15,15,1,0.4,0.6,0.2,0.8,,,,,,,,,,,,,,,0.8679,,0.4,0.6,0.6,0.4,0.8,0.2,0.6,0.4,,,0.6718,,0.4,0.6,0.8,0.2,0.8,0.2,0.2,0.8,1,0
,,649dba79b97070557ebe3d0b,66fc997124836cbf24a2bac4,2024-10-01_18h54.30.072,mdp,2024.2.1,Win32,59.52380952,66fa4ebf79326e780c390304,,,,,,,,,,,,,,,,,,,,,1282.9938,1282.9939,1282.9954,1284.0898,0,1,left,0.5755,,1284.0923,1286.1638,1,0,right,1286.1656,1287.3396,1,1,right,0,1287.3399,1287.34,1287.3422,1288.8399,0,16,16,16,1,0.4,0.6,0.2,0.8,,,,,,,,,,,,,,,1.5377,,0.4,0.6,0.6,0.4,0.8,0.2,0.6,0.4,,,0.6399,,0.4,0.6,0.8,0.2,0.8,0.2,0.2,0.8,1,0
,,649dba79b97070557ebe3d0b,66fc997124836cbf24a2bac4,2024-10-01_18h54.30.072,mdp,2024.2.1,Win32,59.52380952,66fa4ebf79326e780c390304,,,,,,,,,,,,,,,,,,,,,1288.8416,1288.8416,1288.8434,1289.8067,0,0,left,0.4517,,1289.8091,1291.2815,1,1,right,1291.2835,1292.8391,0,0,left,1,1292.8395,1292.8396,1292.8417,1294.3423,0,17,17,17,1,0.4,0.6,0.2,0.8,,,,,,,,,,,,,,,0.9377,,0.4,0.6,0.6,0.4,0.8,0.2,0.6,0.4,,,1.0233,,0.4,0.6,0.8,0.2,0.8,0.2,0.2,0.8,1,0
,,649dba79b97070557ebe3d0b,66fc997124836cbf24a2bac4,2024-10-01_18h54.30.072,mdp,2024.2.1,Win32,59.52380952,66fa4ebf79326e780c390304,,,,,,,,,,,,,,,,,,,,,1294.3431,1294.3432,1294.3448,1295.9137,1,1,right,1.0532,,1295.9155,1297.2395,1,1,right,1297.242,1298.6565,0,0,left,1,1298.6566,1298.6566,1298.6577,1300.1558,0,18,18,18,1,0.4,0.6,0.2,0.8,,,,,,,,,,,,,,,0.788,,0.4,0.6,0.6,0.4,0.8,0.2,0.6,0.4,,,0.8825,,0.4,0.6,0.8,0.2,0.8,0.2,0.2,0.8,1,0
,,649dba79b97070557ebe3d0b,66fc997124836cbf24a2bac4,2024-10-01_18h54.30.072,mdp,2024.2.1,Win32,59.52380952,66fa4ebf79326e780c390304,,,,,,,,,,,,,,,,,,,,,1300.1575,1300.1575,1300.1592,1302.4401,1,1,right,1.7546,,1302.4427,1303.6112,1,1,right,1303.6121,1305.7296,0,0,left,1,1305.7297,1305.7297,1305.7322,1307.226,0,19,19,19,1,0.4,0.6,0.2,0.8,,,,,,,,,,,,,,,0.6642,,0.2,0.8,0.4,0.6,0.8,0.2,0.6,0.4,,,1.6029,,0.4,0.6,0.8,0.2,0.8,0.2,0.2,0.8,1,0
,,649dba79b97070557ebe3d0b,66fc997124836cbf24a2bac4,2024-10-01_18h54.30.072,mdp,2024.2.1,Win32,59.52380952,66fa4ebf79326e780c390304,,,,,,,,,,,,,,,,,,,,,1307.227,1307.2271,1307.2286,1308.7046,1,1,right,0.9431,,1308.7063,1310.1457,1,0,right,1310.1476,1311.4466,1,0,right,1,1311.4468,1311.4468,1311.4485,1312.9419,0,20,20,20,1,0.4,0.6,0.2,0.8,,,,,,,,,,,,,,,0.9205,,0.2,0.8,0.4,0.6,0.8,0.2,0.6,0.4,,,0.7715,,0.4,0.6,0.8,0.2,0.8,0.2,0.2,0.8,1,0
,,649dba79b97070557ebe3d0b,66fc997124836cbf24a2bac4,2024-10-01_18h54.30.072,mdp,2024.2.1,Win32,59.52380952,66fa4ebf79326e780c390304,,,,,,,,,,,,,,,,,,,,,1312.9426,1312.9426,1312.9439,1313.8098,1,1,right,0.3353,,1313.8117,1315.0779,1,1,right,1315.0799,1317.6094,0,0,left,1,1317.6094,1317.6094,1317.6106,1319.1049,0,21,21,21,1,0.4,0.6,0.2,0.8,,,,,,,,,,,,,,,0.7476,,0.2,0.8,0.4,0.6,0.8,0.2,0.6,0.4,,,2.0017,,0.4,0.6,0.8,0.2,0.8,0.2,0.2,0.8,1,0
,,649dba79b97070557ebe3d0b,66fc997124836cbf24a2bac4,2024-10-01_18h54.30.072,mdp,2024.2.1,Win32,59.52380952,66fa4ebf79326e780c390304,,,,,,,,,,,,,,,,,,,,,1319.1065,1319.1065,1319.1081,1320.4466,1,1,right,0.8361,,1320.4486,1322.6095,1,1,right,1322.6104,1326.2294,1,1,right,0,1326.2297,1326.2297,1326.2317,1327.725,0,22,22,22,1,0.4,0.6,0.2,0.8,,,,,,,,,,,,,,,1.6474,,0.2,0.8,0.4,0.6,0.8,0.2,0.6,0.4,,,3.0876,,0.4,0.6,0.8,0.2,0.8,0.2,0.2,0.8,1,0
,,649dba79b97070557ebe3d0b,66fc997124836cbf24a2bac4,2024-10-01_18h54.30.072,mdp,2024.2.1,Win32,59.52380952,66fa4ebf79326e780c390304,,,,,,,,,,,,,,,,,,,,,1327.7259,1327.7259,1327.7275,1329.3539,1,1,right,1.1018,,1329.3561,1330.5091,1,0,right,1330.511,1331.722,1,0,right,1,1331.7222,1331.7223,1331.7243,1333.2211,0,23,23,23,1,0.4,0.6,0.2,0.8,,,,,,,,,,,,,,,0.6497,,0.2,0.8,0.4,0.6,0.8,0.2,0.6,0.4,,,0.6727,,0.4,0.6,0.8,0.2,0.8,0.2,0.2,0.8,1,0
,,649dba79b97070557ebe3d0b,66fc997124836cbf24a2bac4,2024-10-01_18h54.30.072,mdp,2024.2.1,Win32,59.52380952,66fa4ebf79326e780c390304,,,,,,,,,,,,,,,,,,,,,1333.2225,1333.2225,1333.2241,1334.4289,1,1,right,0.6868,,1334.431,1335.4421,1,1,right,1335.4443,1336.956,1,1,right,0,1336.956,1336.956,1336.957,1338.4535,0,24,24,24,1,0.4,0.6,0.2,0.8,,,,,,,,,,,,,,,0.4969,,0.2,0.8,0.4,0.6,0.8,0.2,0.6,0.4,,,0.9815,,0.4,0.6,0.8,0.2,0.8,0.2,0.2,0.8,1,0
,,649dba79b97070557ebe3d0b,66fc997124836cbf24a2bac4,2024-10-01_18h54.30.072,mdp,2024.2.1,Win32,59.52380952,66fa4ebf79326e780c390304,,,,,,,,,,,,,,,,,,,,,1338.4551,1338.4551,1338.4561,1342.8622,1,1,right,3.8855,,1342.8631,1344.0639,1,0,right,1344.0654,1345.4295,1,0,right,1,1345.4296,1345.4296,1345.4308,1346.9218,0,25,25,25,1,0.4,0.6,0.2,0.8,,,,,,,,,,,,,,,0.6737,,0.2,0.8,0.4,0.6,0.8,0.2,0.6,0.4,,,0.8401,,0.4,0.6,0.8,0.2,0.8,0.2,0.2,0.8,1,0
,,649dba79b97070557ebe3d0b,66fc997124836cbf24a2bac4,2024-10-01_18h54.30.072,mdp,2024.2.1,Win32,59.52380952,66fa4ebf79326e780c390304,,,,,,,,,,,,,,,,,,,,,1346.9223,1346.9223,1346.9232,1347.892,1,1,right,0.4638,,1347.8928,1349.0044,1,1,right,1349.0063,1350.743,0,1,left,0,1350.7431,1350.7431,1350.7447,1352.237,0,26,26,26,1,0.4,0.6,0.2,0.8,,,,,,,,,,,,,,,0.5862,,0.2,0.8,0.4,0.6,0.8,0.2,0.6,0.4,,,1.2038,,0.4,0.6,0.8,0.2,0.8,0.2,0.2,0.8,1,0
,,649dba79b97070557ebe3d0b,66fc997124836cbf24a2bac4,2024-10-01_18h54.30.072,mdp,2024.2.1,Win32,59.52380952,66fa4ebf79326e780c390304,,,,,,,,,,,,,,,,,,,,,1352.2375,1352.2375,1352.2385,1353.4739,1,1,right,0.7157,,1353.4759,1354.6937,1,0,right,1354.6955,1355.8933,1,0,right,1,1355.8934,1355.8934,1355.8951,1357.387,0,27,27,27,1,0.4,0.6,0.2,0.8,,,,,,,,,,,,,,,0.7022,,0.2,0.8,0.4,0.6,0.8,0.2,0.6,0.4,,,0.67,,0.4,0.6,0.8,0.2,0.8,0.2,0.2,0.8,1,0
,,649dba79b97070557ebe3d0b,66fc997124836cbf24a2bac4,2024-10-01_18h54.30.072,mdp,2024.2.1,Win32,59.52380952,66fa4ebf79326e780c390304,,,,,,,,,,,,,,,,,,,,,1357.3881,1357.3881,1357.3898,1358.3032,1,1,right,0.4023,,1358.3061,1359.5195,1,1,right,1359.5228,1360.7191,0,0,left,1,1360.7195,1360.7197,1360.7219,1362.2188,0,28,28,28,1,0.4,0.6,0.2,0.8,,,,,,,,,,,,,,,0.6864,,0.2,0.8,0.4,0.6,0.8,0.2,0.6,0.4,,,0.6744,,0.4,0.6,0.8,0.2,0.8,0.2,0.2,0.8,1,0
,,649dba79b97070557ebe3d0b,66fc997124836cbf24a2bac4,2024-10-01_18h54.30.072,mdp,2024.2.1,Win32,59.52380952,66fa4ebf79326e780c390304,,,,,,,,,,,,,,,,,,,,,1362.2204,1362.2204,1362.2212,1364.3781,1,1,right,1.6378,,1364.3795,1365.5389,1,0,right,1365.5415,1366.8077,1,1,right,0,1366.8079,1366.8079,1366.8095,1368.3034,0,29,29,29,1,0.4,0.6,0.2,0.8,,,,,,,,,,,,,,,0.6336,,0.2,0.8,0.4,0.6,0.8,0.2,0.6,0.4,,,0.7356,,0.4,0.6,0.8,0.2,0.8,0.2,0.2,0.8,1,0
,,649dba79b97070557ebe3d0b,66fc997124836cbf24a2bac4,2024-10-01_18h54.30.072,mdp,2024.2.1,Win32,59.52380952,66fa4ebf79326e780c390304,,,,,,,,,,,,,,,,,,,,,1368.3045,1368.3045,1368.3066,1371.5532,0,1,left,2.7061,,1371.5556,1372.7718,0,1,left,1372.7739,1373.79,1,1,right,0,1373.7902,1373.7902,1373.7916,1375.2846,0,30,30,30,1,0.4,0.6,0.2,0.8,,,,,,,,,,,,,,,0.6968,,0.2,0.8,0.4,0.6,0.2,0.8,0.8,0.2,,,0.5014,,0.4,0.6,0.8,0.2,0.8,0.2,0.2,0.8,1,0
,,649dba79b97070557ebe3d0b,66fc997124836cbf24a2bac4,2024-10-01_18h54.30.072,mdp,2024.2.1,Win32,59.52380952,66fa4ebf79326e780c390304,,,,,,,,,,,,,,,,,,,,,1375.2859,1375.2859,1375.2866,1376.6014,1,1,right,0.8059,,1376.6033,1377.6568,1,0,right,1377.6576,1378.7511,0,0,left,1,1378.7513,1378.7513,1378.7528,1380.2547,0,31,31,31,1,0.4,0.6,0.2,0.8,,,,,,,,,,,,,,,0.5503,,0.2,0.8,0.4,0.6,0.2,0.8,0.8,0.2,,,0.5528,,0.4,0.6,0.8,0.2,0.8,0.2,0.2,0.8,1,0
,,649dba79b97070557ebe3d0b,66fc997124836cbf24a2bac4,2024-10-01_18h54.30.072,mdp,2024.2.1,Win32,59.52380952,66fa4ebf79326e780c390304,,,,,,,,,,,,,,,,,,,,,1380.2555,1380.2555,1380.2569,1381.195,1,1,right,0.406,,1381.1969,1382.439,1,0,right,1382.4409,1383.6886,1,0,right,1,1383.6888,1383.6888,1383.6903,1385.1854,0,32,32,32,1,0.4,0.6,0.2,0.8,,,,,,,,,,,,,,,0.729,,0.2,0.8,0.4,0.6,0.2,0.8,0.8,0.2,,,0.7325,,0.4,0.6,0.8,0.2,0.8,0.2,0.2,0.8,1,0
,,649dba79b97070557ebe3d0b,66fc997124836cbf24a2bac4,2024-10-01_18h54.30.072,mdp,2024.2.1,Win32,59.52380952,66fa4ebf79326e780c390304,,,,,,,,,,,,,,,,,,,,,1385.1869,1385.187,1385.1886,1386.3902,1,1,right,0.6842,,1386.3922,1387.4888,1,0,right,1387.4906,1388.6217,1,0,right,1,1388.6217,1388.6217,1388.6227,1390.1186,0,33,33,33,1,0.8,0.2,0.4,0.6,,,,,,,,,,,,,,,0.5823,,0.2,0.8,0.4,0.6,0.2,0.8,0.8,0.2,,,0.6015,,0.4,0.6,0.8,0.2,0.8,0.2,0.2,0.8,1,0
,,649dba79b97070557ebe3d0b,66fc997124836cbf24a2bac4,2024-10-01_18h54.30.072,mdp,2024.2.1,Win32,59.52380952,66fa4ebf79326e780c390304,,,,,,,,,,,,,,,,,,,,,1390.1202,1390.1203,1390.1219,1391.0681,1,0,right,0.4082,,1391.0708,1392.0182,1,1,right,1392.0205,1393.16,0,1,left,0,1393.1601,1393.1601,1393.1619,1394.6512,0,34,34,34,1,0.8,0.2,0.4,0.6,,,,,,,,,,,,,,,0.4231,,0.2,0.8,0.4,0.6,0.2,0.8,0.8,0.2,,,0.6213,,0.4,0.6,0.8,0.2,0.8,0.2,0.2,0.8,1,0
,,649dba79b97070557ebe3d0b,66fc997124836cbf24a2bac4,2024-10-01_18h54.30.072,mdp,2024.2.1,Win32,59.52380952,66fa4ebf79326e780c390304,,,,,,,,,,,,,,,,,,,,,1394.6523,1394.6524,1394.6532,1395.9251,1,0,right,0.7516,,1395.9267,1396.9056,0,0,left,1396.9071,1398.0169,1,0,right,1,1398.0173,1398.0173,1398.0188,1399.521,0,35,35,35,1,0.8,0.2,0.4,0.6,,,,,,,,,,,,,,,0.4507,,0.2,0.8,0.4,0.6,0.2,0.8,0.8,0.2,,,0.5759,,0.4,0.6,0.8,0.2,0.8,0.2,0.2,0.8,1,0
,,649dba79b97070557ebe3d0b,66fc997124836cbf24a2bac4,2024-10-01_18h54.30.072,mdp,2024.2.1,Win32,59.52380952,66fa4ebf79326e780c390304,,,,,,,,,,,,,,,,,,,,,1399.5223,1399.5224,1399.5244,1400.7016,1,0,right,0.6399,,1400.7041,1401.8381,0,1,left,1401.8396,1402.8552,1,1,right,0,1402.8553,1402.8553,1402.8576,1404.3548,0,36,36,36,1,0.8,0.2,0.4,0.6,,,,,,,,,,,,,,,0.5995,,0.2,0.8,0.4,0.6,0.2,0.8,0.8,0.2,,,0.4839,,0.4,0.6,0.8,0.2,0.8,0.2,0.2,0.8,1,0
,,649dba79b97070557ebe3d0b,66fc997124836cbf24a2bac4,2024-10-01_18h54.30.072,mdp,2024.2.1,Win32,59.52380952,66fa4ebf79326e780c390304,,,,,,,,,,,,,,,,,,,,,1404.3557,1404.3558,1404.3574,1405.4921,0,0,left,0.6176,,1405.4941,1407.6848,1,0,right,1407.686,1409.0347,0,0,left,1,1409.0349,1409.0349,1409.037,1410.5344,0,37,37,37,1,0.8,0.2,0.4,0.6,,,,,,,,,,,,,,,1.6675,,0.2,0.8,0.4,0.6,0.2,0.8,0.8,0.2,,,0.809,,0.4,0.6,0.8,0.2,0.8,0.2,0.2,0.8,1,0
,,649dba79b97070557ebe3d0b,66fc997124836cbf24a2bac4,2024-10-01_18h54.30.072,mdp,2024.2.1,Win32,59.52380952,66fa4ebf79326e780c390304,,,,,,,,,,,,,,,,,,,,,1410.5353,1410.5353,1410.5367,1412.6732,1,0,right,1.6153,,1412.6745,1413.9055,0,1,left,1413.9081,1415.1866,1,1,right,0,1415.1867,1415.1867,1415.1875,1416.6828,0,38,38,38,1,0.8,0.2,0.4,0.6,,,,,,,,,,,,,,,0.7133,,0.2,0.8,0.4,0.6,0.2,0.8,0.8,0.2,,,0.7497,,0.4,0.6,0.8,0.2,0.8,0.2,0.2,0.8,1,0
,,649dba79b97070557ebe3d0b,66fc997124836cbf24a2bac4,2024-10-01_18h54.30.072,mdp,2024.2.1,Win32,59.52380952,66fa4ebf79326e780c390304,,,,,,,,,,,,,,,,,,,,,1416.6843,1416.6844,1416.6852,1418.0872,1,0,right,0.8778,,1418.0893,1419.3843,0,1,left,1419.3861,1420.6252,1,1,right,0,1420.6255,1420.6255,1420.6273,1422.1167,0,39,39,39,1,0.8,0.2,0.4,0.6,,,,,,,,,,,,,,,0.7586,,0.2,0.8,0.4,0.6,0.2,0.8,0.8,0.2,,,0.7176,,0.4,0.6,0.8,0.2,0.8,0.2,0.2,0.8,1,0
,,649dba79b97070557ebe3d0b,66fc997124836cbf24a2bac4,2024-10-01_18h54.30.072,mdp,2024.2.1,Win32,59.52380952,66fa4ebf79326e780c390304,,,,,,,,,,,,,,,,,,,,,1422.1185,1422.1185,1422.1201,1423.2548,1,1,right,0.6165,,1423.2569,1424.4342,1,0,right,1424.4366,1425.9337,1,0,right,1,1425.9342,1425.9343,1425.9368,1427.4336,0,40,40,40,1,0.2,0.8,0.2,0.8,,,,,,,,,,,,,,,0.6641,,0.2,0.8,0.4,0.6,0.2,0.8,0.8,0.2,,,0.9592,,0.4,0.6,0.8,0.2,0.8,0.2,0.2,0.8,1,0
,,649dba79b97070557ebe3d0b,66fc997124836cbf24a2bac4,2024-10-01_18h54.30.072,mdp,2024.2.1,Win32,59.52380952,66fa4ebf79326e780c390304,,,,,,,,,,,,,,,,,,,,,1427.4348,1427.4349,1427.4365,1428.7987,1,1,right,0.8244,,1428.8006,1430.0157,1,0,right,1430.0183,1431.0899,1,0,right,1,1431.0899,1431.0899,1431.0917,1432.5834,0,41,41,41,1,0.4,0.6,0.4,0.6,,,,,,,,,,,,,,,0.69,,0.2,0.8,0.4,0.6,0.2,0.8,0.8,0.2,,,0.5663,,0.4,0.6,0.8,0.2,0.8,0.2,0.2,0.8,1,0
,,649dba79b97070557ebe3d0b,66fc997124836cbf24a2bac4,2024-10-01_18h54.30.072,mdp,2024.2.1,Win32,59.52380952,66fa4ebf79326e780c390304,,,,,,,,,,,,,,,,,,,,,1432.5845,1432.5845,1432.5862,1433.4996,1,1,right,0.3745,,1433.5023,1434.7821,1,0,right,1434.7846,1435.9889,1,0,right,1,1435.9891,1435.9891,1435.9909,1437.4828,0,42,42,42,1,0.4,0.6,0.4,0.6,,,,,,,,,,,,,,,0.756,,0.2,0.8,0.4,0.6,0.2,0.8,0.8,0.2,,,0.6833,,0.4,0.6,0.8,0.2,0.8,0.2,0.2,0.8,1,0
,,649dba79b97070557ebe3d0b,66fc997124836cbf24a2bac4,2024-10-01_18h54.30.072,mdp,2024.2.1,Win32,59.52380952,66fa4ebf79326e780c390304,,,,,,,,,,,,,,,,,,,,,1437.4844,1437.4846,1437.4862,1438.4061,1,0,right,0.4159,,1438.4078,1439.5659,0,1,left,1439.5684,1440.7484,1,1,right,0,1440.7487,1440.7487,1440.7505,1442.249,0,43,43,43,1,0.4,0.6,0.4,0.6,,,,,,,,,,,,,,,0.6271,,0.2,0.8,0.4,0.6,0.2,0.8,0.8,0.2,,,0.6412,,0.4,0.6,0.8,0.2,0.8,0.2,0.2,0.8,1,0
,,649dba79b97070557ebe3d0b,66fc997124836cbf24a2bac4,2024-10-01_18h54.30.072,mdp,2024.2.1,Win32,59.52380952,66fa4ebf79326e780c390304,,,,,,,,,,,,,,,,,,,,,1442.2506,1442.2506,1442.2522,1443.7484,1,0,right,0.9858,,1443.7506,1444.9068,0,1,left,1444.9086,1445.9984,1,1,right,0,1445.9988,1445.9989,1446.001,1447.4988,0,44,44,44,1,0.4,0.6,0.4,0.6,,,,,,,,,,,,,,,0.6501,,0.2,0.8,0.4,0.6,0.2,0.8,0.8,0.2,,,0.5718,,0.4,0.6,0.8,0.2,0.8,0.2,0.2,0.8,1,0
,,649dba79b97070557ebe3d0b,66fc997124836cbf24a2bac4,2024-10-01_18h54.30.072,mdp,2024.2.1,Win32,59.52380952,66fa4ebf79326e780c390304,,,,,,,,,,,,,,,,,,,,,1447.5003,1447.5003,1447.5018,1448.6323,1,1,right,0.6213,,1448.6347,1449.9818,1,0,right,1449.984,1451.6367,1,0,right,1,1451.6367,1451.6367,1451.6377,1453.1316,0,45,45,45,1,0.4,0.6,0.4,0.6,,,,,,,,,,,,,,,0.8261,,0.2,0.8,0.4,0.6,0.2,0.8,0.8,0.2,,,1.1338,,0.4,0.6,0.8,0.2,0.8,0.2,0.2,0.8,1,0
,,649dba79b97070557ebe3d0b,66fc997124836cbf24a2bac4,2024-10-01_18h54.30.072,mdp,2024.2.1,Win32,59.52380952,66fa4ebf79326e780c390304,,,,,,,,,,,,,,,,,,,,,1453.1334,1453.1334,1453.1353,1454.2559,1,1,right,0.6052,,1454.2578,1455.4647,1,0,right,1455.4672,1456.5818,1,0,right,1,1456.5823,1456.5824,1456.5844,1458.0811,0,46,46,46,1,0.4,0.6,0.4,0.6,,,,,,,,,,,,,,,0.6765,,0.2,0.8,0.4,0.6,0.2,0.8,0.8,0.2,,,0.5872,,0.4,0.6,0.8,0.2,0.8,0.2,0.2,0.8,1,0
,,649dba79b97070557ebe3d0b,66fc997124836cbf24a2bac4,2024-10-01_18h54.30.072,mdp,2024.2.1,Win32,59.52380952,66fa4ebf79326e780c390304,,,,,,,,,,,,,,,,,,,,,1458.0827,1458.0827,1458.0841,1459.2859,1,0,right,0.6828,,1459.2879,1460.5223,0,0,left,1460.5241,1461.5816,1,0,right,1,1461.582,1461.582,1461.5839,1463.0852,0,47,47,47,1,0.4,0.6,0.4,0.6,,,,,,,,,,,,,,,0.7036,,0.2,0.8,0.4,0.6,0.2,0.8,0.8,0.2,,,0.5422,,0.4,0.6,0.8,0.2,0.8,0.2,0.2,0.8,1,0
,,649dba79b97070557ebe3d0b,66fc997124836cbf24a2bac4,2024-10-01_18h54.30.072,mdp,2024.2.1,Win32,59.52380952,66fa4ebf79326e780c390304,,,,,,,,,,,,,,,,,,,,,1463.0859,1463.0859,1463.0875,1464.2823,1,1,right,0.6762,,1464.2835,1465.6059,1,0,right,1465.6075,1466.8544,1,1,right,0,1466.8544,1466.8544,1466.8562,1468.3491,0,48,48,48,1,0.4,0.6,0.4,0.6,,,,,,,,,,,,,,,0.7876,,0.2,0.8,0.4,0.6,0.2,0.8,0.8,0.2,,,0.7194,,0.4,0.6,0.8,0.2,0.8,0.2,0.2,0.8,1,0
,,649dba79b97070557ebe3d0b,66fc997124836cbf24a2bac4,2024-10-01_18h54.30.072,mdp,2024.2.1,Win32,59.52380952,66fa4ebf79326e780c390304,,,,,,,,,,,,,,,,,,,,,1468.35,1468.35,1468.352,1470.3139,1,0,right,1.4554,,1470.3166,1471.5541,0,1,left,1471.5564,1473.0139,1,1,right,0,1473.0142,1473.0143,1473.0164,1474.5139,0,49,49,49,1,0.4,0.6,0.4,0.6,,,,,,,,,,,,,,,0.7199,,0.2,0.8,0.4,0.6,0.2,0.8,0.8,0.2,,,0.9221,,0.4,0.6,0.8,0.2,0.8,0.2,0.2,0.8,1,0
,,649dba79b97070557ebe3d0b,66fc997124836cbf24a2bac4,2024-10-01_18h54.30.072,mdp,2024.2.1,Win32,59.52380952,66fa4ebf79326e780c390304,,,,,,,,,,,,,,,,,,,,,,,,,,,,,,,,,,,,,,,,,,,,,,,,,,,,,,,,1474.5144,1533.0156,0,2,2,8,1,imgs/goat.png,imgs/bear.png,imgs/pig.png,imgs/dog.png,imgs/cat.png,,,,,,,,,,,,,,,,,,,,,,,,
,,649dba79b97070557ebe3d0b,66fc997124836cbf24a2bac4,2024-10-01_18h54.30.072,mdp,2024.2.1,Win32,59.52380952,66fa4ebf79326e780c390304,,,,,,,,,,,,,,3,seqs/st3seq10.csv,1533.0165,1673.6872,space,140.1363,,1673.7011,1673.7011,1673.7021,1675.6042,1,0,right,1.3789,,1675.6065,1676.8205,0,0,left,1676.8232,1678.0374,1,1,right,0,1678.0375,1678.0375,1678.0409,1679.5382,0,0,0,0,1,0.8,0.2,0.4,0.6,,,,,,,,,,,,,,,0.6837,,0.8,0.2,0.2,0.8,0.4,0.6,0.4,0.6,,,0.7003,,0.6,0.4,0.2,0.8,0.4,0.6,0.8,0.2,1,0
,,649dba79b97070557ebe3d0b,66fc997124836cbf24a2bac4,2024-10-01_18h54.30.072,mdp,2024.2.1,Win32,59.52380952,66fa4ebf79326e780c390304,,,,,,,,,,,,,,,,,,,,,1679.5392,1679.5393,1679.5416,1682.3896,1,1,right,2.3291,,1682.3925,1683.5205,0,1,left,1683.5228,1684.7362,0,0,left,1,1684.7362,1684.7362,1684.738,1686.2368,0,1,1,1,1,0.8,0.2,0.4,0.6,,,,,,,,,,,,,,,0.5992,,0.8,0.2,0.2,0.8,0.4,0.6,0.4,0.6,,,0.6776,,0.6,0.4,0.2,0.8,0.4,0.6,0.8,0.2,1,0
,,649dba79b97070557ebe3d0b,66fc997124836cbf24a2bac4,2024-10-01_18h54.30.072,mdp,2024.2.1,Win32,59.52380952,66fa4ebf79326e780c390304,,,,,,,,,,,,,,,,,,,,,1686.2378,1686.2378,1686.2401,1687.6255,0,0,left,0.8658,,1687.6272,1688.7411,1,1,right,1688.7419,1689.9919,1,0,right,1,1689.992,1689.992,1689.9935,1691.4872,0,2,2,2,1,0.8,0.2,0.4,0.6,,,,,,,,,,,,,,,0.5937,,0.8,0.2,0.2,0.8,0.4,0.6,0.4,0.6,,,0.7333,,0.6,0.4,0.2,0.8,0.4,0.6,0.8,0.2,1,0
,,649dba79b97070557ebe3d0b,66fc997124836cbf24a2bac4,2024-10-01_18h54.30.072,mdp,2024.2.1,Win32,59.52380952,66fa4ebf79326e780c390304,,,,,,,,,,,,,,,,,,,,,1691.4885,1691.4886,1691.4911,1692.8027,0,0,left,0.786,,1692.8042,1693.8525,1,0,right,1693.8548,1694.9192,0,1,left,0,1694.9194,1694.9195,1694.9215,1696.4203,0,3,3,3,1,0.8,0.2,0.4,0.6,,,,,,,,,,,,,,,0.5377,,0.8,0.2,0.2,0.8,0.4,0.6,0.4,0.6,,,0.5506,,0.6,0.4,0.2,0.8,0.4,0.6,0.8,0.2,1,0
,,649dba79b97070557ebe3d0b,66fc997124836cbf24a2bac4,2024-10-01_18h54.30.072,mdp,2024.2.1,Win32,59.52380952,66fa4ebf79326e780c390304,,,,,,,,,,,,,,,,,,,,,1696.4214,1696.4214,1696.4242,1698.8029,0,0,left,1.8545,,1698.8045,1700.3199,1,0,right,1700.322,1701.5698,0,0,left,1,1701.5699,1701.5699,1701.5724,1703.0694,0,4,4,4,1,0.8,0.2,0.4,0.6,,,,,,,,,,,,,,,0.9932,,0.4,0.6,0.6,0.4,0.4,0.6,0.4,0.6,,,0.7366,,0.6,0.4,0.2,0.8,0.4,0.6,0.8,0.2,1,0
,,649dba79b97070557ebe3d0b,66fc997124836cbf24a2bac4,2024-10-01_18h54.30.072,mdp,2024.2.1,Win32,59.52380952,66fa4ebf79326e780c390304,,,,,,,,,,,,,,,,,,,,,1703.0703,1703.0703,1703.0725,1704.5704,0,0,left,0.9725,,1704.573,1705.7519,1,0,right,1705.7534,1706.9024,0,0,left,1,1706.9026,1706.9027,1706.9057,1708.403,0,5,5,5,1,0.8,0.2,0.4,0.6,,,,,,,,,,,,,,,0.6504,,0.4,0.6,0.6,0.4,0.2,0.8,0.2,0.8,,,0.6387,,0.6,0.4,0.2,0.8,0.4,0.6,0.8,0.2,1,0
,,649dba79b97070557ebe3d0b,66fc997124836cbf24a2bac4,2024-10-01_18h54.30.072,mdp,2024.2.1,Win32,59.52380952,66fa4ebf79326e780c390304,,,,,,,,,,,,,,,,,,,,,1708.4039,1708.404,1708.4062,1709.553,0,0,left,0.6223,,1709.5559,1710.6021,1,0,right,1710.6043,1711.7032,0,0,left,1,1711.7034,1711.7035,1711.7064,1713.2029,0,6,6,6,1,0.8,0.2,0.4,0.6,,,,,,,,,,,,,,,0.5244,,0.4,0.6,0.6,0.4,0.2,0.8,0.2,0.8,,,0.5945,,0.6,0.4,0.2,0.8,0.4,0.6,0.8,0.2,1,0
,,649dba79b97070557ebe3d0b,66fc997124836cbf24a2bac4,2024-10-01_18h54.30.072,mdp,2024.2.1,Win32,59.52380952,66fa4ebf79326e780c390304,,,,,,,,,,,,,,,,,,,,,1713.2039,1713.204,1713.2068,1714.4348,0,0,left,0.709,,1714.4361,1715.7346,1,0,right,1715.7359,1717.0013,0,1,left,0,1717.0014,1717.0014,1717.0025,1718.5014,0,7,7,7,1,0.8,0.2,0.4,0.6,,,,,,,,,,,,,,,0.7862,,0.4,0.6,0.6,0.4,0.2,0.8,0.2,0.8,,,0.7373,,0.6,0.4,0.2,0.8,0.2,0.8,0.4,0.6,1,0
,,649dba79b97070557ebe3d0b,66fc997124836cbf24a2bac4,2024-10-01_18h54.30.072,mdp,2024.2.1,Win32,59.52380952,66fa4ebf79326e780c390304,,,,,,,,,,,,,,,,,,,,,1718.5025,1718.5025,1718.505,1721.1683,0,1,left,2.1395,,1721.1705,1722.2518,1,0,right,1722.2545,1723.4079,0,0,left,1,1723.408,1723.4081,1723.4099,1724.9026,0,8,8,8,1,0.8,0.2,0.4,0.6,,,,,,,,,,,,,,,0.5527,,0.4,0.6,0.6,0.4,0.2,0.8,0.2,0.8,,,0.6356,,0.6,0.4,0.2,0.8,0.2,0.8,0.4,0.6,1,0
,,649dba79b97070557ebe3d0b,66fc997124836cbf24a2bac4,2024-10-01_18h54.30.072,mdp,2024.2.1,Win32,59.52380952,66fa4ebf79326e780c390304,,,,,,,,,,,,,,,,,,,,,1724.9037,1724.9037,1724.9065,1726.5687,0,0,left,1.1372,,1726.5712,1727.8007,1,0,right,1727.8022,1728.9389,0,1,left,0,1728.9391,1728.9391,1728.941,1730.4348,0,9,9,9,1,0.8,0.2,0.4,0.6,,,,,,,,,,,,,,,0.7003,,0.4,0.6,0.6,0.4,0.2,0.8,0.2,0.8,,,0.6302,,0.6,0.4,0.2,0.8,0.2,0.8,0.4,0.6,1,0
,,649dba79b97070557ebe3d0b,66fc997124836cbf24a2bac4,2024-10-01_18h54.30.072,mdp,2024.2.1,Win32,59.52380952,66fa4ebf79326e780c390304,,,,,,,,,,,,,,,,,,,,,1730.4356,1730.4357,1730.4374,1732.1014,0,0,left,1.1388,,1732.1044,1733.3178,1,0,right,1733.3203,1734.5014,0,1,left,0,1734.5016,1734.5016,1734.5037,1736.0011,0,10,10,10,1,0.8,0.2,0.4,0.6,,,,,,,,,,,,,,,0.6869,,0.4,0.6,0.6,0.4,0.2,0.8,0.2,0.8,,,0.6549,,0.6,0.4,0.2,0.8,0.2,0.8,0.4,0.6,1,0
,,649dba79b97070557ebe3d0b,66fc997124836cbf24a2bac4,2024-10-01_18h54.30.072,mdp,2024.2.1,Win32,59.52380952,66fa4ebf79326e780c390304,,,,,,,,,,,,,,,,,,,,,1736.0021,1736.0021,1736.0046,1737.2508,0,1,left,0.7204,,1737.2529,1738.4677,1,1,right,1738.4699,1739.7854,1,1,right,0,1739.7856,1739.7856,1739.7871,1741.2846,0,11,11,11,1,0.8,0.2,0.4,0.6,,,,,,,,,,,,,,,0.7041,,0.4,0.6,0.6,0.4,0.2,0.8,0.2,0.8,,,0.8055,,0.6,0.4,0.2,0.8,0.2,0.8,0.4,0.6,1,0
,,649dba79b97070557ebe3d0b,66fc997124836cbf24a2bac4,2024-10-01_18h54.30.072,mdp,2024.2.1,Win32,59.52380952,66fa4ebf79326e780c390304,,,,,,,,,,,,,,,,,,,,,1741.2861,1741.2866,1741.2896,1742.8179,0,0,left,1.0052,,1742.8199,1743.951,1,0,right,1743.953,1745.1234,0,0,left,1,1745.1236,1745.1236,1745.1251,1746.6179,0,12,12,12,1,0.8,0.2,0.4,0.6,,,,,,,,,,,,,,,0.6018,,0.4,0.6,0.6,0.4,0.2,0.8,0.2,0.8,,,0.645,,0.2,0.8,0.6,0.4,0.2,0.8,0.4,0.6,1,0
,,649dba79b97070557ebe3d0b,66fc997124836cbf24a2bac4,2024-10-01_18h54.30.072,mdp,2024.2.1,Win32,59.52380952,66fa4ebf79326e780c390304,,,,,,,,,,,,,,,,,,,,,1746.619,1746.6191,1746.6212,1747.7844,0,1,left,0.6438,,1747.7862,1748.9003,1,1,right,1748.9029,1750.1843,1,0,right,1,1750.1845,1750.1846,1750.1866,1751.6835,0,13,13,13,1,0.8,0.2,0.4,0.6,,,,,,,,,,,,,,,0.5829,,0.4,0.6,0.6,0.4,0.2,0.8,0.2,0.8,,,0.7499,,0.2,0.8,0.6,0.4,0.2,0.8,0.4,0.6,1,0
,,649dba79b97070557ebe3d0b,66fc997124836cbf24a2bac4,2024-10-01_18h54.30.072,mdp,2024.2.1,Win32,59.52380952,66fa4ebf79326e780c390304,,,,,,,,,,,,,,,,,,,,,1751.6849,1751.6849,1751.6874,1753.0166,0,0,left,0.8017,,1753.0179,1754.1513,1,0,right,1754.1537,1755.2492,0,1,left,0,1755.2494,1755.2494,1755.2505,1756.7493,0,14,14,14,1,0.8,0.2,0.4,0.6,,,,,,,,,,,,,,,0.6036,,0.8,0.2,0.8,0.2,0.2,0.8,0.2,0.8,,,0.5668,,0.2,0.8,0.6,0.4,0.2,0.8,0.4,0.6,1,0
,,649dba79b97070557ebe3d0b,66fc997124836cbf24a2bac4,2024-10-01_18h54.30.072,mdp,2024.2.1,Win32,59.52380952,66fa4ebf79326e780c390304,,,,,,,,,,,,,,,,,,,,,1756.7502,1756.7502,1756.752,1758.1164,0,0,left,0.8424,,1758.1186,1759.2512,1,0,right,1759.2545,1760.7325,0,1,left,0,1760.7325,1760.7325,1760.734,1762.2335,0,15,15,15,1,0.8,0.2,0.4,0.6,,,,,,,,,,,,,,,0.6286,,0.8,0.2,0.8,0.2,0.2,0.8,0.2,0.8,,,0.9611,,0.2,0.8,0.6,0.4,0.2,0.8,0.4,0.6,1,0
,,649dba79b97070557ebe3d0b,66fc997124836cbf24a2bac4,2024-10-01_18h54.30.072,mdp,2024.2.1,Win32,59.52380952,66fa4ebf79326e780c390304,,,,,,,,,,,,,,,,,,,,,1762.2349,1762.2349,1762.2377,1764.0334,0,1,left,1.2724,,1764.0359,1765.233,1,0,right,1765.2361,1766.4054,0,1,left,0,1766.4055,1766.4055,1766.4075,1767.8994,0,16,16,16,1,0.8,0.2,0.4,0.6,,,,,,,,,,,,,,,0.6706,,0.8,0.2,0.8,0.2,0.2,0.8,0.2,0.8,,,0.6515,,0.2,0.8,0.6,0.4,0.2,0.8,0.4,0.6,1,0
,,649dba79b97070557ebe3d0b,66fc997124836cbf24a2bac4,2024-10-01_18h54.30.072,mdp,2024.2.1,Win32,59.52380952,66fa4ebf79326e780c390304,,,,,,,,,,,,,,,,,,,,,1767.9005,1767.9006,1767.9037,1769.5823,1,0,right,1.1539,,1769.5843,1770.9531,0,1,left,1770.9542,1772.1995,0,1,left,0,1772.1996,1772.1997,1772.2019,1773.6989,0,17,17,17,1,0.8,0.2,0.4,0.6,,,,,,,,,,,,,,,0.8589,,0.8,0.2,0.8,0.2,0.2,0.8,0.2,0.8,,,0.7169,,0.2,0.8,0.6,0.4,0.2,0.8,0.4,0.6,1,0
,,649dba79b97070557ebe3d0b,66fc997124836cbf24a2bac4,2024-10-01_18h54.30.072,mdp,2024.2.1,Win32,59.52380952,66fa4ebf79326e780c390304,,,,,,,,,,,,,,,,,,,,,1773.6998,1773.6998,1773.7019,1775.6053,1,1,right,1.3844,,1775.6072,1776.9376,0,1,left,1776.9394,1778.9322,0,0,left,1,1778.9325,1778.9325,1778.9347,1780.4325,0,18,18,18,1,0.8,0.2,0.4,0.6,,,,,,,,,,,,,,,0.8114,,0.8,0.2,0.8,0.2,0.2,0.8,0.2,0.8,,,1.4716,,0.2,0.8,0.6,0.4,0.2,0.8,0.4,0.6,1,0
,,649dba79b97070557ebe3d0b,66fc997124836cbf24a2bac4,2024-10-01_18h54.30.072,mdp,2024.2.1,Win32,59.52380952,66fa4ebf79326e780c390304,,,,,,,,,,,,,,,,,,,,,1780.4334,1780.4334,1780.435,1784.8153,1,0,right,3.8552,,1784.8177,1787.0233,0,1,left,1787.0252,1788.5717,0,1,left,0,1788.5717,1788.5718,1788.5734,1790.0655,0,19,19,19,1,0.8,0.2,0.4,0.6,,,,,,,,,,,,,,,1.6704,,0.8,0.2,0.8,0.2,0.2,0.8,0.2,0.8,,,1.0203,,0.2,0.8,0.6,0.4,0.2,0.8,0.4,0.6,1,0
,,649dba79b97070557ebe3d0b,66fc997124836cbf24a2bac4,2024-10-01_18h54.30.072,mdp,2024.2.1,Win32,59.52380952,66fa4ebf79326e780c390304,,,,,,,,,,,,,,,,,,,,,1790.0667,1790.0667,1790.0682,1802.4814,1,1,right,11.8889,,1802.4835,1803.7358,0,1,left,1803.7371,1805.0561,0,1,left,0,1805.0562,1805.0562,1805.0582,1806.5484,0,20,20,20,1,0.8,0.2,0.4,0.6,,,,,,,,,,,,,,,0.7172,,0.8,0.2,0.8,0.2,0.2,0.8,0.2,0.8,,,0.7879,,0.4,0.6,0.8,0.2,0.2,0.8,0.4,0.6,1,0
,,649dba79b97070557ebe3d0b,66fc997124836cbf24a2bac4,2024-10-01_18h54.30.072,mdp,2024.2.1,Win32,59.52380952,66fa4ebf79326e780c390304,,,,,,,,,,,,,,,,,,,,,1806.5496,1806.5497,1806.5513,1811.3386,1,1,right,4.2655,,1811.3404,1813.6476,0,1,left,1813.65,1814.9803,0,1,left,0,1814.9804,1814.9804,1814.9821,1816.4814,0,21,21,21,1,0.8,0.2,0.4,0.6,,,,,,,,,,,,,,,1.7882,,0.8,0.2,0.8,0.2,0.2,0.8,0.2,0.8,,,0.8057,,0.4,0.6,0.8,0.2,0.2,0.8,0.4,0.6,1,0
,,649dba79b97070557ebe3d0b,66fc997124836cbf24a2bac4,2024-10-01_18h54.30.072,mdp,2024.2.1,Win32,59.52380952,66fa4ebf79326e780c390304,,,,,,,,,,,,,,,,,,,,,1816.4831,1816.4831,1816.485,1818.0567,1,1,right,1.0669,,1818.0585,1819.1802,0,0,left,1819.1827,1820.423,1,0,right,1,1820.4232,1820.4232,1820.4249,1821.916,0,22,22,22,1,0.8,0.2,0.4,0.6,,,,,,,,,,,,,,,0.5922,,0.2,0.8,0.6,0.4,0.2,0.8,0.2,0.8,,,0.7241,,0.4,0.6,0.8,0.2,0.2,0.8,0.4,0.6,1,0
,,649dba79b97070557ebe3d0b,66fc997124836cbf24a2bac4,2024-10-01_18h54.30.072,mdp,2024.2.1,Win32,59.52380952,66fa4ebf79326e780c390304,,,,,,,,,,,,,,,,,,,,,1821.9168,1821.9168,1821.9185,1826.4843,1,0,right,4.0462,,1826.4857,1828.2305,0,0,left,1828.2331,1830.3493,1,0,right,1,1830.3495,1830.3495,1830.3512,1831.8492,0,23,23,23,1,0.8,0.2,0.4,0.6,,,,,,,,,,,,,,,1.2079,,0.2,0.8,0.6,0.4,0.2,0.8,0.2,0.8,,,1.6004,,0.4,0.6,0.8,0.2,0.2,0.8,0.4,0.6,1,0
,,649dba79b97070557ebe3d0b,66fc997124836cbf24a2bac4,2024-10-01_18h54.30.072,mdp,2024.2.1,Win32,59.52380952,66fa4ebf79326e780c390304,,,,,,,,,,,,,,,,,,,,,1831.8501,1831.8501,1831.8516,1840.2203,1,1,right,7.8524,,1840.2221,1859.5028,0,1,left,1859.5049,1864.5957,0,0,left,1,1864.5959,1864.5959,1864.5981,1866.0951,0,24,24,24,1,0.8,0.2,0.4,0.6,,,,,,,,,,,,,,,18.7536,,0.2,0.8,0.6,0.4,0.2,0.8,0.2,0.8,,,4.5564,,0.4,0.6,0.8,0.2,0.2,0.8,0.4,0.6,1,0
,,649dba79b97070557ebe3d0b,66fc997124836cbf24a2bac4,2024-10-01_18h54.30.072,mdp,2024.2.1,Win32,59.52380952,66fa4ebf79326e780c390304,,,,,,,,,,,,,,,,,,,,,1866.0968,1866.0968,1866.0985,1879.5127,1,1,right,12.886,,1879.5144,1882.2452,0,1,left,1882.2471,1883.5109,0,1,left,0,1883.5112,1883.5112,1883.5132,1885.0105,0,25,25,25,1,0.8,0.2,0.4,0.6,,,,,,,,,,,,,,,2.1894,,0.2,0.8,0.6,0.4,0.2,0.8,0.2,0.8,,,0.7248,,0.4,0.6,0.8,0.2,0.2,0.8,0.4,0.6,1,0
,,649dba79b97070557ebe3d0b,66fc997124836cbf24a2bac4,2024-10-01_18h54.30.072,mdp,2024.2.1,Win32,59.52380952,66fa4ebf79326e780c390304,,,,,,,,,,,,,,,,,,,,,1885.0119,1885.0119,1885.0134,1887.8109,1,0,right,2.27,,1887.8139,1889.06,0,1,left,1889.062,1890.1949,0,1,left,0,1890.195,1890.1951,1890.197,1891.6967,0,26,26,26,1,0.8,0.2,0.4,0.6,,,,,,,,,,,,,,,0.7104,,0.2,0.8,0.6,0.4,0.2,0.8,0.2,0.8,,,0.6255,,0.4,0.6,0.8,0.2,0.2,0.8,0.4,0.6,1,0
,,649dba79b97070557ebe3d0b,66fc997124836cbf24a2bac4,2024-10-01_18h54.30.072,mdp,2024.2.1,Win32,59.52380952,66fa4ebf79326e780c390304,,,,,,,,,,,,,,,,,,,,,1891.6974,1891.6975,1891.6991,1892.7434,0,1,left,0.5228,,1892.7447,1893.6946,1,0,right,1893.6963,1894.668,0,0,left,1,1894.6681,1894.6681,1894.67,1896.1644,0,27,27,27,1,0.8,0.2,0.4,0.6,,,,,,,,,,,,,,,0.4051,,0.2,0.8,0.6,0.4,0.2,0.8,0.2,0.8,,,0.4375,,0.4,0.6,0.8,0.2,0.2,0.8,0.4,0.6,1,0
,,649dba79b97070557ebe3d0b,66fc997124836cbf24a2bac4,2024-10-01_18h54.30.072,mdp,2024.2.1,Win32,59.52380952,66fa4ebf79326e780c390304,,,,,,,,,,,,,,,,,,,,,1896.1655,1896.1656,1896.1671,1897.6108,0,1,left,0.9257,,1897.6126,1898.8434,1,1,right,1898.8458,1899.9373,1,0,right,1,1899.9374,1899.9374,1899.9391,1901.4275,0,28,28,28,1,0.8,0.2,0.4,0.6,,,,,,,,,,,,,,,0.692,,0.2,0.8,0.6,0.4,0.2,0.8,0.2,0.8,,,0.5731,,0.4,0.6,0.8,0.2,0.2,0.8,0.4,0.6,1,0
,,649dba79b97070557ebe3d0b,66fc997124836cbf24a2bac4,2024-10-01_18h54.30.072,mdp,2024.2.1,Win32,59.52380952,66fa4ebf79326e780c390304,,,,,,,,,,,,,,,,,,,,,1901.4284,1901.4285,1901.4302,1903.4101,0,0,left,1.4627,,1903.4125,1904.4649,1,0,right,1904.4667,1905.6007,0,1,left,0,1905.6009,1905.6009,1905.6028,1907.093,0,29,29,29,1,0.8,0.2,0.4,0.6,,,,,,,,,,,,,,,0.5188,,0.2,0.8,0.6,0.4,0.2,0.8,0.2,0.8,,,0.6038,,0.4,0.6,0.8,0.2,0.2,0.8,0.4,0.6,1,0
,,649dba79b97070557ebe3d0b,66fc997124836cbf24a2bac4,2024-10-01_18h54.30.072,mdp,2024.2.1,Win32,59.52380952,66fa4ebf79326e780c390304,,,,,,,,,,,,,,,,,,,,,1907.0943,1907.0943,1907.0961,1908.1674,0,0,left,0.5675,,1908.1692,1909.1803,1,0,right,1909.1825,1910.2767,0,0,left,1,1910.2772,1910.2773,1910.2792,1911.7784,0,30,30,30,1,0.8,0.2,0.4,0.6,,,,,,,,,,,,,,,0.485,,0.2,0.8,0.6,0.4,0.2,0.8,0.2,0.8,,,0.5563,,0.4,0.6,0.8,0.2,0.2,0.8,0.4,0.6,1,0
,,649dba79b97070557ebe3d0b,66fc997124836cbf24a2bac4,2024-10-01_18h54.30.072,mdp,2024.2.1,Win32,59.52380952,66fa4ebf79326e780c390304,,,,,,,,,,,,,,,,,,,,,1911.7789,1911.779,1911.7798,1913.0665,1,0,right,0.7689,,1913.0682,1914.0621,0,1,left,1914.063,1915.1178,0,1,left,0,1915.118,1915.118,1915.1199,1916.6129,0,31,31,31,1,0.8,0.2,0.4,0.6,,,,,,,,,,,,,,,0.4784,,0.2,0.8,0.6,0.4,0.2,0.8,0.2,0.8,,,0.5213,,0.6,0.4,0.2,0.8,0.2,0.8,0.4,0.6,1,0
,,649dba79b97070557ebe3d0b,66fc997124836cbf24a2bac4,2024-10-01_18h54.30.072,mdp,2024.2.1,Win32,59.52380952,66fa4ebf79326e780c390304,,,,,,,,,,,,,,,,,,,,,1916.6139,1916.6139,1916.6157,1917.8427,0,0,left,0.7042,,1917.8452,1918.8457,1,1,right,1918.8473,1919.8827,1,1,right,0,1919.8828,1919.8828,1919.8845,1921.3754,0,32,32,32,1,0.8,0.2,0.4,0.6,,,,,,,,,,,,,,,0.4667,,0.2,0.8,0.6,0.4,0.2,0.8,0.2,0.8,,,0.518,,0.6,0.4,0.2,0.8,0.2,0.8,0.4,0.6,1,0
,,649dba79b97070557ebe3d0b,66fc997124836cbf24a2bac4,2024-10-01_18h54.30.072,mdp,2024.2.1,Win32,59.52380952,66fa4ebf79326e780c390304,,,,,,,,,,,,,,,,,,,,,1921.3774,1921.3774,1921.3792,1922.526,0,0,left,0.6057,,1922.5285,1923.631,1,0,right,1923.633,1924.9135,0,1,left,0,1924.9136,1924.9137,1924.9157,1926.4092,0,33,33,33,1,0.8,0.2,0.4,0.6,,,,,,,,,,,,,,,0.5837,,0.2,0.8,0.6,0.4,0.2,0.8,0.2,0.8,,,0.7499,,0.6,0.4,0.2,0.8,0.2,0.8,0.4,0.6,1,0
,,649dba79b97070557ebe3d0b,66fc997124836cbf24a2bac4,2024-10-01_18h54.30.072,mdp,2024.2.1,Win32,59.52380952,66fa4ebf79326e780c390304,,,,,,,,,,,,,,,,,,,,,1926.4106,1926.4107,1926.4121,1928.1919,1,0,right,1.2396,,1928.1944,1929.1967,0,1,left,1929.1985,1930.2993,0,0,left,1,1930.2993,1930.2993,1930.3011,1931.7952,0,34,34,34,1,0.8,0.2,0.4,0.6,,,,,,,,,,,,,,,0.4969,,0.2,0.8,0.6,0.4,0.2,0.8,0.2,0.8,,,0.5716,,0.6,0.4,0.2,0.8,0.2,0.8,0.4,0.6,1,0
,,649dba79b97070557ebe3d0b,66fc997124836cbf24a2bac4,2024-10-01_18h54.30.072,mdp,2024.2.1,Win32,59.52380952,66fa4ebf79326e780c390304,,,,,,,,,,,,,,,,,,,,,1931.7956,1931.7956,1931.7963,1933.2908,1,1,right,0.9628,,1933.2925,1934.4928,0,1,left,1934.4951,1935.7742,0,0,left,1,1935.7744,1935.7744,1935.7757,1937.2745,0,35,35,35,1,0.8,0.2,0.4,0.6,,,,,,,,,,,,,,,0.6722,,0.2,0.8,0.6,0.4,0.2,0.8,0.2,0.8,,,0.7494,,0.6,0.4,0.2,0.8,0.2,0.8,0.4,0.6,1,0
,,649dba79b97070557ebe3d0b,66fc997124836cbf24a2bac4,2024-10-01_18h54.30.072,mdp,2024.2.1,Win32,59.52380952,66fa4ebf79326e780c390304,,,,,,,,,,,,,,,,,,,,,1937.2756,1937.2756,1937.2775,1938.5107,1,1,right,0.7141,,1938.5128,1939.832,0,1,left,1939.8344,1941.1827,0,1,left,0,1941.1828,1941.1829,1941.1848,1942.6769,0,36,36,36,1,0.8,0.2,0.4,0.6,,,,,,,,,,,,,,,0.7988,,0.2,0.8,0.6,0.4,0.2,0.8,0.2,0.8,,,0.834,,0.6,0.4,0.2,0.8,0.2,0.8,0.4,0.6,1,0
,,649dba79b97070557ebe3d0b,66fc997124836cbf24a2bac4,2024-10-01_18h54.30.072,mdp,2024.2.1,Win32,59.52380952,66fa4ebf79326e780c390304,,,,,,,,,,,,,,,,,,,,,1942.6778,1942.6778,1942.6796,1944.3821,1,0,right,1.1846,,1944.384,1946.0992,0,1,left,1946.1012,1947.4162,0,1,left,0,1947.4164,1947.4164,1947.4181,1948.908,0,37,37,37,1,0.2,0.8,0.8,0.2,,,,,,,,,,,,,,,1.1881,,0.2,0.8,0.6,0.4,0.2,0.8,0.2,0.8,,,0.8032,,0.6,0.4,0.2,0.8,0.2,0.8,0.4,0.6,1,0
,,649dba79b97070557ebe3d0b,66fc997124836cbf24a2bac4,2024-10-01_18h54.30.072,mdp,2024.2.1,Win32,59.52380952,66fa4ebf79326e780c390304,,,,,,,,,,,,,,,,,,,,,1948.9092,1948.9092,1948.911,1949.8406,0,1,left,0.3948,,1949.8426,1950.7767,1,0,right,1950.7774,1951.7125,0,1,left,0,1951.7127,1951.7128,1951.715,1953.209,0,38,38,38,1,0.2,0.8,0.8,0.2,,,,,,,,,,,,,,,0.4154,,0.2,0.8,0.6,0.4,0.2,0.8,0.2,0.8,,,0.4014,,0.6,0.4,0.2,0.8,0.2,0.8,0.4,0.6,1,0
,,649dba79b97070557ebe3d0b,66fc997124836cbf24a2bac4,2024-10-01_18h54.30.072,mdp,2024.2.1,Win32,59.52380952,66fa4ebf79326e780c390304,,,,,,,,,,,,,,,,,,,,,1953.2098,1953.2099,1953.2114,1954.1947,0,1,left,0.467,,1954.1965,1955.3405,1,1,right,1955.3436,1956.3984,1,0,right,1,1956.3984,1956.3984,1956.4003,1957.8903,0,39,39,39,1,0.2,0.8,0.8,0.2,,,,,,,,,,,,,,,0.6341,,0.2,0.8,0.6,0.4,0.2,0.8,0.2,0.8,,,0.5201,,0.6,0.4,0.2,0.8,0.2,0.8,0.4,0.6,1,0
,,649dba79b97070557ebe3d0b,66fc997124836cbf24a2bac4,2024-10-01_18h54.30.072,mdp,2024.2.1,Win32,59.52380952,66fa4ebf79326e780c390304,,,,,,,,,,,,,,,,,,,,,1957.892,1957.8921,1957.8936,1958.9239,0,1,left,0.5205,,1958.9264,1960.0236,1,1,right,1960.0258,1961.027,1,0,right,1,1961.0272,1961.0272,1961.0284,1962.5245,0,40,40,40,1,0.2,0.8,0.8,0.2,,,,,,,,,,,,,,,0.5743,,0.2,0.8,0.6,0.4,0.2,0.8,0.2,0.8,,,0.4942,,0.6,0.4,0.2,0.8,0.2,0.8,0.4,0.6,1,0
,,649dba79b97070557ebe3d0b,66fc997124836cbf24a2bac4,2024-10-01_18h54.30.072,mdp,2024.2.1,Win32,59.52380952,66fa4ebf79326e780c390304,,,,,,,,,,,,,,,,,,,,,1962.5254,1962.5254,1962.527,1963.6404,0,1,left,0.58,,1963.6429,1964.7104,1,1,right,1964.7123,1965.7115,1,1,right,0,1965.7116,1965.7116,1965.7149,1967.2068,0,41,41,41,1,0.2,0.8,0.8,0.2,,,,,,,,,,,,,,,0.5448,,0.8,0.2,0.2,0.8,0.2,0.8,0.2,0.8,,,0.4812,,0.6,0.4,0.2,0.8,0.2,0.8,0.4,0.6,1,0
,,649dba79b97070557ebe3d0b,66fc997124836cbf24a2bac4,2024-10-01_18h54.30.072,mdp,2024.2.1,Win32,59.52380952,66fa4ebf79326e780c390304,,,,,,,,,,,,,,,,,,,,,1967.208,1967.208,1967.2097,1968.2815,0,0,left,0.54,,1968.2836,1969.5479,1,1,right,1969.5497,1970.8445,1,0,right,1,1970.8446,1970.8447,1970.8463,1972.3401,0,42,42,42,1,0.2,0.8,0.8,0.2,,,,,,,,,,,,,,,0.7376,,0.8,0.2,0.2,0.8,0.2,0.8,0.2,0.8,,,0.7807,,0.6,0.4,0.2,0.8,0.2,0.8,0.4,0.6,1,0
,,649dba79b97070557ebe3d0b,66fc997124836cbf24a2bac4,2024-10-01_18h54.30.072,mdp,2024.2.1,Win32,59.52380952,66fa4ebf79326e780c390304,,,,,,,,,,,,,,,,,,,,,1972.3414,1972.3414,1972.3433,1973.3154,0,0,left,0.4518,,1973.3174,1974.2745,1,0,right,1974.2761,1975.3059,0,0,left,1,1975.3062,1975.3065,1975.3083,1976.8092,0,43,43,43,1,0.2,0.8,0.8,0.2,,,,,,,,,,,,,,,0.4362,,0.8,0.2,0.2,0.8,0.2,0.8,0.2,0.8,,,0.493,,0.6,0.4,0.2,0.8,0.2,0.8,0.4,0.6,1,0
,,649dba79b97070557ebe3d0b,66fc997124836cbf24a2bac4,2024-10-01_18h54.30.072,mdp,2024.2.1,Win32,59.52380952,66fa4ebf79326e780c390304,,,,,,,,,,,,,,,,,,,,,1976.8098,1976.8098,1976.8111,1977.7295,0,1,left,0.3989,,1977.7308,1978.7948,1,1,right,1978.7957,1979.9105,1,0,right,1,1979.9106,1979.9106,1979.9124,1981.4063,0,44,44,44,1,0.8,0.2,0.2,0.8,,,,,,,,,,,,,,,0.5348,,0.8,0.2,0.2,0.8,0.2,0.8,0.2,0.8,,,0.5833,,0.6,0.4,0.2,0.8,0.2,0.8,0.4,0.6,1,0
,,649dba79b97070557ebe3d0b,66fc997124836cbf24a2bac4,2024-10-01_18h54.30.072,mdp,2024.2.1,Win32,59.52380952,66fa4ebf79326e780c390304,,,,,,,,,,,,,,,,,,,,,1981.4081,1981.4081,1981.4098,1982.3736,0,0,left,0.4517,,1982.3762,1983.3722,1,1,right,1983.3744,1984.4394,1,1,right,0,1984.4396,1984.4397,1984.4418,1985.9393,0,45,45,45,1,0.8,0.2,0.2,0.8,,,,,,,,,,,,,,,0.453,,0.8,0.2,0.2,0.8,0.2,0.8,0.2,0.8,,,0.527,,0.6,0.4,0.2,0.8,0.2,0.8,0.4,0.6,1,0
,,649dba79b97070557ebe3d0b,66fc997124836cbf24a2bac4,2024-10-01_18h54.30.072,mdp,2024.2.1,Win32,59.52380952,66fa4ebf79326e780c390304,,,,,,,,,,,,,,,,,,,,,1985.9409,1985.9409,1985.9426,1986.9404,1,1,right,0.4725,,1986.9428,1988.0232,0,1,left,1988.0254,1989.0055,0,1,left,0,1989.0059,1989.0059,1989.0082,1990.5054,0,46,46,46,1,0.8,0.2,0.2,0.8,,,,,,,,,,,,,,,0.5432,,0.8,0.2,0.2,0.8,0.2,0.8,0.2,0.8,,,0.4442,,0.6,0.4,0.2,0.8,0.2,0.8,0.4,0.6,1,0
,,649dba79b97070557ebe3d0b,66fc997124836cbf24a2bac4,2024-10-01_18h54.30.072,mdp,2024.2.1,Win32,59.52380952,66fa4ebf79326e780c390304,,,,,,,,,,,,,,,,,,,,,1990.5068,1990.5069,1990.5085,1991.6053,1,0,right,0.5692,,1991.6081,1992.5912,0,0,left,1992.5919,1993.7415,1,1,right,0,1993.7418,1993.7418,1993.7437,1995.2427,0,47,47,47,1,0.8,0.2,0.2,0.8,,,,,,,,,,,,,,,0.4662,,0.8,0.2,0.2,0.8,0.2,0.8,0.2,0.8,,,0.6149,,0.6,0.4,0.2,0.8,0.2,0.8,0.4,0.6,1,0
,,649dba79b97070557ebe3d0b,66fc997124836cbf24a2bac4,2024-10-01_18h54.30.072,mdp,2024.2.1,Win32,59.52380952,66fa4ebf79326e780c390304,,,,,,,,,,,,,,,,,,,,,1995.2435,1995.2436,1995.2452,1996.3892,0,0,left,0.608,,1996.3914,1997.4054,1,1,right,1997.4084,1998.3889,1,1,right,0,1998.3892,1998.3892,1998.391,1999.8887,0,48,48,48,1,0.8,0.2,0.2,0.8,,,,,,,,,,,,,,,0.4737,,0.8,0.2,0.2,0.8,0.2,0.8,0.2,0.8,,,0.4591,,0.6,0.4,0.2,0.8,0.2,0.8,0.4,0.6,1,0
,,649dba79b97070557ebe3d0b,66fc997124836cbf24a2bac4,2024-10-01_18h54.30.072,mdp,2024.2.1,Win32,59.52380952,66fa4ebf79326e780c390304,,,,,,,,,,,,,,,,,,,,,1999.8904,1999.8904,1999.892,2000.8952,0,0,left,0.4991,,2000.8965,2001.9965,1,1,right,2001.9983,2003.0056,1,1,right,0,2003.0058,2003.0058,2003.0078,2004.5093,0,49,49,49,1,0.8,0.2,0.2,0.8,,,,,,,,,,,,,,,0.584,,0.8,0.2,0.2,0.8,0.2,0.8,0.2,0.8,,,0.4833,,0.6,0.4,0.2,0.8,0.2,0.8,0.4,0.6,1,0
,,649dba79b97070557ebe3d0b,66fc997124836cbf24a2bac4,2024-10-01_18h54.30.072,mdp,2024.2.1,Win32,59.52380952,66fa4ebf79326e780c390304,,,,,,,,,,,,,,,,,,,,,,,,,,,,,,,,,,,,,,,,,,,,,,,,,,,,,,,,2004.5095,2063.0192,0,3,3,5,1,imgs/bear.png,imgs/pig.png,imgs/cat.png,imgs/elephant.png,imgs/goat.png,,,,,,,,,,,,,,,,,,,,,,,,
,,649dba79b97070557ebe3d0b,66fc997124836cbf24a2bac4,2024-10-01_18h54.30.072,mdp,2024.2.1,Win32,59.52380952,66fa4ebf79326e780c390304,,,,,,,,,,,,,,1,seqs/st1seq43.csv,2063.022,2466.1159,space,402.5698,,2466.1378,2466.1378,2466.1391,2468.2491,1,1,right,1.5765,,2468.2516,2468.2525,1,1,,2468.2535,2468.2545,1,1,,0,2468.2545,2468.2545,2468.2554,2469.7498,0,0,0,0,1,0.8,0.2,0.4,0.6,1,0,,,,,,,,,,,,,,,,,,,,,,,,,,,,,,,,,,,,
,,649dba79b97070557ebe3d0b,66fc997124836cbf24a2bac4,2024-10-01_18h54.30.072,mdp,2024.2.1,Win32,59.52380952,66fa4ebf79326e780c390304,,,,,,,,,,,,,,,,,,,,,2469.7506,2469.7506,2469.7523,2471.0153,0,0,left,0.7398,,2471.0179,2471.0189,1,0,,2471.0199,2471.0206,1,1,,1,2471.0207,2471.0207,2471.0215,2472.5159,0,1,1,1,1,0.8,0.2,0.4,0.6,1,0,,,,,,,,,,,,,,,,,,,,,,,,,,,,,,,,,,,,
,,649dba79b97070557ebe3d0b,66fc997124836cbf24a2bac4,2024-10-01_18h54.30.072,mdp,2024.2.1,Win32,59.52380952,66fa4ebf79326e780c390304,,,,,,,,,,,,,,,,,,,,,2472.5169,2472.517,2472.519,2493.4521,1,1,right,20.4169,,2493.4539,2493.4548,1,0,,2493.4558,2493.4566,1,0,,0,2493.4566,2493.4566,2493.4575,2494.947,0,2,2,2,1,0.8,0.2,0.4,0.6,1,0,,,,,,,,,,,,,,,,,,,,,,,,,,,,,,,,,,,,
,,649dba79b97070557ebe3d0b,66fc997124836cbf24a2bac4,2024-10-01_18h54.30.072,mdp,2024.2.1,Win32,59.52380952,66fa4ebf79326e780c390304,,,,,,,,,,,,,,,,,,,,,2494.9475,2494.9475,2494.9484,2496.0829,0,0,left,0.6145,,2496.0848,2496.0859,1,1,,2496.0873,2496.0884,1,0,,1,2496.0884,2496.0885,2496.0895,2497.5814,0,3,3,3,1,0.8,0.2,0.4,0.6,1,0,,,,,,,,,,,,,,,,,,,,,,,,,,,,,,,,,,,,
,,649dba79b97070557ebe3d0b,66fc997124836cbf24a2bac4,2024-10-01_18h54.30.072,mdp,2024.2.1,Win32,59.52380952,66fa4ebf79326e780c390304,,,,,,,,,,,,,,,,,,,,,2497.5822,2497.5822,2497.5841,2498.8806,1,1,right,0.771,,2498.8825,2498.8831,1,1,,2498.8838,2498.8843,1,0,,0,2498.8843,2498.8843,2498.8849,2500.3817,0,4,4,4,1,0.8,0.2,0.4,0.6,1,0,,,,,,,,,,,,,,,,,,,,,,,,,,,,,,,,,,,,
,,649dba79b97070557ebe3d0b,66fc997124836cbf24a2bac4,2024-10-01_18h54.30.072,mdp,2024.2.1,Win32,59.52380952,66fa4ebf79326e780c390304,,,,,,,,,,,,,,,,,,,,,2500.3829,2500.383,2500.3844,2501.4536,0,1,left,0.5526,,2501.4556,2501.4569,1,0,,2501.4582,2501.4592,1,0,,0,2501.4592,2501.4592,2501.46,2502.9487,0,5,5,5,1,0.8,0.2,0.4,0.6,1,0,,,,,,,,,,,,,,,,,,,,,,,,,,,,,,,,,,,,
,,649dba79b97070557ebe3d0b,66fc997124836cbf24a2bac4,2024-10-01_18h54.30.072,mdp,2024.2.1,Win32,59.52380952,66fa4ebf79326e780c390304,,,,,,,,,,,,,,,,,,,,,2502.9495,2502.9495,2502.9513,2505.4679,0,0,left,1.9985,,2505.4697,2505.4706,1,0,,2505.4716,2505.4725,1,1,,1,2505.4725,2505.4725,2505.4734,2506.9639,0,6,6,6,1,0.8,0.2,0.4,0.6,1,0,,,,,,,,,,,,,,,,,,,,,,,,,,,,,,,,,,,,
,,649dba79b97070557ebe3d0b,66fc997124836cbf24a2bac4,2024-10-01_18h54.30.072,mdp,2024.2.1,Win32,59.52380952,66fa4ebf79326e780c390304,,,,,,,,,,,,,,,,,,,,,2506.9645,2506.9645,2506.9661,2507.9466,0,1,left,0.4508,,2507.9479,2507.9489,1,0,,2507.9495,2507.9501,1,0,,0,2507.9502,2507.9502,2507.9507,2509.4476,0,7,7,7,1,0.8,0.2,0.4,0.6,1,0,,,,,,,,,,,,,,,,,,,,,,,,,,,,,,,,,,,,
,,649dba79b97070557ebe3d0b,66fc997124836cbf24a2bac4,2024-10-01_18h54.30.072,mdp,2024.2.1,Win32,59.52380952,66fa4ebf79326e780c390304,,,,,,,,,,,,,,,,,,,,,2509.4484,2509.4484,2509.4502,2510.3638,1,1,right,0.3901,,2510.3663,2510.3676,1,0,,2510.3687,2510.3696,1,1,,0,2510.3696,2510.3696,2510.3704,2511.8637,0,8,8,8,1,0.8,0.2,0.4,0.6,1,0,,,,,,,,,,,,,,,,,,,,,,,,,,,,,,,,,,,,
,,649dba79b97070557ebe3d0b,66fc997124836cbf24a2bac4,2024-10-01_18h54.30.072,mdp,2024.2.1,Win32,59.52380952,66fa4ebf79326e780c390304,,,,,,,,,,,,,,,,,,,,,2511.8642,2511.8642,2511.8659,2513.0809,1,1,right,0.688,,2513.0834,2513.0846,1,1,,2513.0856,2513.0863,1,1,,0,2513.0863,2513.0863,2513.087,2514.5804,0,9,9,9,1,0.8,0.2,0.4,0.6,1,0,,,,,,,,,,,,,,,,,,,,,,,,,,,,,,,,,,,,
,,649dba79b97070557ebe3d0b,66fc997124836cbf24a2bac4,2024-10-01_18h54.30.072,mdp,2024.2.1,Win32,59.52380952,66fa4ebf79326e780c390304,,,,,,,,,,,,,,,,,,,,,2514.5813,2514.5813,2514.5837,2515.4466,0,1,left,0.3411,,2515.4487,2515.4495,1,1,,2515.4506,2515.4514,1,0,,0,2515.4514,2515.4514,2515.4523,2516.9466,0,10,10,10,1,0.8,0.2,0.4,0.6,1,0,,,,,,,,,,,,,,,,,,,,,,,,,,,,,,,,,,,,
,,649dba79b97070557ebe3d0b,66fc997124836cbf24a2bac4,2024-10-01_18h54.30.072,mdp,2024.2.1,Win32,59.52380952,66fa4ebf79326e780c390304,,,,,,,,,,,,,,,,,,,,,2516.9474,2516.9474,2516.9487,2517.9975,0,1,left,0.5213,,2517.9995,2518.0004,1,0,,2518.0014,2518.0022,1,1,,0,2518.0022,2518.0023,2518.003,2519.4976,0,11,11,11,1,0.8,0.2,0.4,0.6,1,0,,,,,,,,,,,,,,,,,,,,,,,,,,,,,,,,,,,,
,,649dba79b97070557ebe3d0b,66fc997124836cbf24a2bac4,2024-10-01_18h54.30.072,mdp,2024.2.1,Win32,59.52380952,66fa4ebf79326e780c390304,,,,,,,,,,,,,,,,,,,,,2519.4985,2519.4985,2519.5011,2520.5313,1,1,right,0.5106,,2520.5334,2520.5344,1,1,,2520.5354,2520.5362,1,1,,0,2520.5363,2520.5363,2520.537,2522.0304,0,12,12,12,1,0.8,0.2,0.4,0.6,1,0,,,,,,,,,,,,,,,,,,,,,,,,,,,,,,,,,,,,
,,649dba79b97070557ebe3d0b,66fc997124836cbf24a2bac4,2024-10-01_18h54.30.072,mdp,2024.2.1,Win32,59.52380952,66fa4ebf79326e780c390304,,,,,,,,,,,,,,,,,,,,,2522.0313,2522.0313,2522.0338,2522.9969,1,1,right,0.4344,,2522.9983,2522.9992,1,0,,2522.9998,2523.0004,1,1,,0,2523.0004,2523.0004,2523.0009,2524.4964,0,13,13,13,1,0.8,0.2,0.4,0.6,1,0,,,,,,,,,,,,,,,,,,,,,,,,,,,,,,,,,,,,
,,649dba79b97070557ebe3d0b,66fc997124836cbf24a2bac4,2024-10-01_18h54.30.072,mdp,2024.2.1,Win32,59.52380952,66fa4ebf79326e780c390304,,,,,,,,,,,,,,,,,,,,,2524.4971,2524.4971,2524.499,2525.4347,1,0,right,0.4162,,2525.4365,2525.4376,1,0,,2525.4385,2525.4391,1,0,,1,2525.4392,2525.4392,2525.44,2526.9294,0,14,14,14,1,0.8,0.2,0.4,0.6,1,0,,,,,,,,,,,,,,,,,,,,,,,,,,,,,,,,,,,,
,,649dba79b97070557ebe3d0b,66fc997124836cbf24a2bac4,2024-10-01_18h54.30.072,mdp,2024.2.1,Win32,59.52380952,66fa4ebf79326e780c390304,,,,,,,,,,,,,,,,,,,,,2526.9299,2526.9299,2526.9311,2527.7795,0,0,left,0.3372,,2527.782,2527.7832,1,0,,2527.7841,2527.7848,1,0,,1,2527.7848,2527.7848,2527.7855,2529.2803,0,15,15,15,1,0.8,0.2,0.4,0.6,1,0,,,,,,,,,,,,,,,,,,,,,,,,,,,,,,,,,,,,
,,649dba79b97070557ebe3d0b,66fc997124836cbf24a2bac4,2024-10-01_18h54.30.072,mdp,2024.2.1,Win32,59.52380952,66fa4ebf79326e780c390304,,,,,,,,,,,,,,,,,,,,,2529.2811,2529.2811,2529.2829,2530.0832,1,1,right,0.2836,,2530.0842,2530.0849,1,1,,2530.0862,2530.0869,1,1,,0,2530.0869,2530.0869,2530.0879,2531.5802,0,16,16,16,1,0.8,0.2,0.4,0.6,1,0,,,,,,,,,,,,,,,,,,,,,,,,,,,,,,,,,,,,
,,649dba79b97070557ebe3d0b,66fc997124836cbf24a2bac4,2024-10-01_18h54.30.072,mdp,2024.2.1,Win32,59.52380952,66fa4ebf79326e780c390304,,,,,,,,,,,,,,,,,,,,,2531.5812,2531.5812,2531.5836,2532.1463,0,0,left,0.0372,,2532.1493,2532.1506,1,0,,2532.152,2532.1529,1,0,,1,2532.1529,2532.1529,2532.1537,2533.6456,0,17,17,17,1,0.8,0.2,0.4,0.6,1,0,,,,,,,,,,,,,,,,,,,,,,,,,,,,,,,,,,,,
,,649dba79b97070557ebe3d0b,66fc997124836cbf24a2bac4,2024-10-01_18h54.30.072,mdp,2024.2.1,Win32,59.52380952,66fa4ebf79326e780c390304,,,,,,,,,,,,,,,,,,,,,2533.6463,2533.6463,2533.6481,2534.646,0,0,left,0.471,,2534.6492,2534.6502,1,0,,2534.6515,2534.6525,1,1,,1,2534.6526,2534.6526,2534.6532,2536.1454,0,18,18,18,1,0.8,0.2,0.4,0.6,1,0,,,,,,,,,,,,,,,,,,,,,,,,,,,,,,,,,,,,
,,649dba79b97070557ebe3d0b,66fc997124836cbf24a2bac4,2024-10-01_18h54.30.072,mdp,2024.2.1,Win32,59.52380952,66fa4ebf79326e780c390304,,,,,,,,,,,,,,,,,,,,,2536.1465,2536.1465,2536.1492,2537.3125,0,0,left,0.6378,,2537.3148,2537.3157,1,0,,2537.3167,2537.3173,1,1,,1,2537.3174,2537.3174,2537.3182,2538.8132,0,19,19,19,1,0.4,0.6,0.6,0.4,1,0,,,,,,,,,,,,,,,,,,,,,,,,,,,,,,,,,,,,
,,649dba79b97070557ebe3d0b,66fc997124836cbf24a2bac4,2024-10-01_18h54.30.072,mdp,2024.2.1,Win32,59.52380952,66fa4ebf79326e780c390304,,,,,,,,,,,,,,,,,,,,,2538.8139,2538.814,2538.8157,2539.6484,0,1,left,0.314,,2539.6504,2539.6514,1,1,,2539.6525,2539.6532,1,1,,0,2539.6534,2539.6534,2539.6542,2541.1457,0,20,20,20,1,0.4,0.6,0.6,0.4,1,0,,,,,,,,,,,,,,,,,,,,,,,,,,,,,,,,,,,,
,,649dba79b97070557ebe3d0b,66fc997124836cbf24a2bac4,2024-10-01_18h54.30.072,mdp,2024.2.1,Win32,59.52380952,66fa4ebf79326e780c390304,,,,,,,,,,,,,,,,,,,,,2541.1468,2541.1468,2541.1487,2541.6958,1,0,right,0.0208,,2541.6977,2541.6987,1,1,,2541.6996,2541.7004,1,0,,1,2541.7004,2541.7004,2541.7013,2543.1957,0,21,21,21,1,0.4,0.6,0.6,0.4,1,0,,,,,,,,,,,,,,,,,,,,,,,,,,,,,,,,,,,,
,,649dba79b97070557ebe3d0b,66fc997124836cbf24a2bac4,2024-10-01_18h54.30.072,mdp,2024.2.1,Win32,59.52380952,66fa4ebf79326e780c390304,,,,,,,,,,,,,,,,,,,,,2543.1964,2543.1965,2543.1985,2544.065,1,1,right,0.3489,,2544.0662,2544.0669,1,1,,2544.0675,2544.0681,1,1,,0,2544.0681,2544.0681,2544.0687,2545.5628,0,22,22,22,1,0.8,0.2,0.2,0.8,1,0,,,,,,,,,,,,,,,,,,,,,,,,,,,,,,,,,,,,
,,649dba79b97070557ebe3d0b,66fc997124836cbf24a2bac4,2024-10-01_18h54.30.072,mdp,2024.2.1,Win32,59.52380952,66fa4ebf79326e780c390304,,,,,,,,,,,,,,,,,,,,,2545.5636,2545.5636,2545.5655,2546.5114,1,0,right,0.4331,,2546.5125,2546.5136,1,1,,2546.5141,2546.5145,1,0,,1,2546.5145,2546.5145,2546.5149,2548.0123,0,23,23,23,1,0.8,0.2,0.2,0.8,1,0,,,,,,,,,,,,,,,,,,,,,,,,,,,,,,,,,,,,
,,649dba79b97070557ebe3d0b,66fc997124836cbf24a2bac4,2024-10-01_18h54.30.072,mdp,2024.2.1,Win32,59.52380952,66fa4ebf79326e780c390304,,,,,,,,,,,,,,,,,,,,,2548.013,2548.0132,2548.0151,2549.0454,0,0,left,0.5044,,2549.0473,2549.0481,1,0,,2549.0491,2549.0497,1,0,,1,2549.0498,2549.0498,2549.0504,2550.5455,0,24,24,24,1,0.8,0.2,0.2,0.8,1,0,,,,,,,,,,,,,,,,,,,,,,,,,,,,,,,,,,,,
,,649dba79b97070557ebe3d0b,66fc997124836cbf24a2bac4,2024-10-01_18h54.30.072,mdp,2024.2.1,Win32,59.52380952,66fa4ebf79326e780c390304,,,,,,,,,,,,,,,,,,,,,2550.5463,2550.5463,2550.5482,2551.7282,0,0,left,0.6543,,2551.7299,2551.7308,1,1,,2551.7317,2551.7323,1,0,,1,2551.7323,2551.7323,2551.7328,2553.2287,0,25,25,25,1,0.8,0.2,0.2,0.8,1,0,,,,,,,,,,,,,,,,,,,,,,,,,,,,,,,,,,,,
,,649dba79b97070557ebe3d0b,66fc997124836cbf24a2bac4,2024-10-01_18h54.30.072,mdp,2024.2.1,Win32,59.52380952,66fa4ebf79326e780c390304,,,,,,,,,,,,,,,,,,,,,2553.2294,2553.2294,2553.2312,2554.2301,0,0,left,0.4815,,2554.2323,2554.2335,1,0,,2554.235,2554.236,1,0,,1,2554.2361,2554.2361,2554.2372,2555.7289,0,26,26,26,1,0.8,0.2,0.2,0.8,1,0,,,,,,,,,,,,,,,,,,,,,,,,,,,,,,,,,,,,
,,649dba79b97070557ebe3d0b,66fc997124836cbf24a2bac4,2024-10-01_18h54.30.072,mdp,2024.2.1,Win32,59.52380952,66fa4ebf79326e780c390304,,,,,,,,,,,,,,,,,,,,,2555.7297,2555.7297,2555.7318,2556.6317,0,0,left,0.3817,,2556.6336,2556.6346,1,0,,2556.6357,2556.6366,1,0,,1,2556.6367,2556.6367,2556.6375,2558.1283,0,27,27,27,1,0.8,0.2,0.2,0.8,1,0,,,,,,,,,,,,,,,,,,,,,,,,,,,,,,,,,,,,
,,649dba79b97070557ebe3d0b,66fc997124836cbf24a2bac4,2024-10-01_18h54.30.072,mdp,2024.2.1,Win32,59.52380952,66fa4ebf79326e780c390304,,,,,,,,,,,,,,,,,,,,,2558.1293,2558.1294,2558.1316,2559.1006,0,0,left,0.4508,,2559.1026,2559.1037,1,0,,2559.1048,2559.1056,1,1,,1,2559.1056,2559.1057,2559.1065,2560.5945,0,28,28,28,1,0.8,0.2,0.2,0.8,1,0,,,,,,,,,,,,,,,,,,,,,,,,,,,,,,,,,,,,
,,649dba79b97070557ebe3d0b,66fc997124836cbf24a2bac4,2024-10-01_18h54.30.072,mdp,2024.2.1,Win32,59.52380952,66fa4ebf79326e780c390304,,,,,,,,,,,,,,,,,,,,,2560.5956,2560.5956,2560.5974,2561.4957,0,1,left,0.3763,,2561.4978,2561.499,1,0,,2561.4999,2561.5007,1,1,,0,2561.5008,2561.5008,2561.5016,2562.9942,0,29,29,29,1,0.8,0.2,0.2,0.8,1,0,,,,,,,,,,,,,,,,,,,,,,,,,,,,,,,,,,,,
,,649dba79b97070557ebe3d0b,66fc997124836cbf24a2bac4,2024-10-01_18h54.30.072,mdp,2024.2.1,Win32,59.52380952,66fa4ebf79326e780c390304,,,,,,,,,,,,,,,,,,,,,2562.9949,2562.995,2562.9972,2563.833,1,1,right,0.3324,,2563.8352,2563.8362,1,1,,2563.8372,2563.8379,1,1,,0,2563.838,2563.838,2563.8389,2565.3282,0,30,30,30,1,0.8,0.2,0.2,0.8,1,0,,,,,,,,,,,,,,,,,,,,,,,,,,,,,,,,,,,,
,,649dba79b97070557ebe3d0b,66fc997124836cbf24a2bac4,2024-10-01_18h54.30.072,mdp,2024.2.1,Win32,59.52380952,66fa4ebf79326e780c390304,,,,,,,,,,,,,,,,,,,,,2565.3293,2565.3293,2565.3314,2566.261,1,1,right,0.4034,,2566.2638,2566.2648,1,0,,2566.2658,2566.2665,1,0,,0,2566.2666,2566.2666,2566.2674,2567.7611,0,31,31,31,1,0.8,0.2,0.2,0.8,1,0,,,,,,,,,,,,,,,,,,,,,,,,,,,,,,,,,,,,
,,649dba79b97070557ebe3d0b,66fc997124836cbf24a2bac4,2024-10-01_18h54.30.072,mdp,2024.2.1,Win32,59.52380952,66fa4ebf79326e780c390304,,,,,,,,,,,,,,,,,,,,,2567.7622,2567.7625,2567.7645,2568.6441,0,0,left,0.3564,,2568.6453,2568.6464,1,0,,2568.647,2568.6476,1,0,,1,2568.6476,2568.6476,2568.6481,2570.1446,0,32,32,32,1,0.8,0.2,0.2,0.8,1,0,,,,,,,,,,,,,,,,,,,,,,,,,,,,,,,,,,,,
,,649dba79b97070557ebe3d0b,66fc997124836cbf24a2bac4,2024-10-01_18h54.30.072,mdp,2024.2.1,Win32,59.52380952,66fa4ebf79326e780c390304,,,,,,,,,,,,,,,,,,,,,2570.1452,2570.1453,2570.1474,2570.9995,0,0,left,0.3337,,2571.0011,2571.0022,1,1,,2571.0031,2571.0038,1,1,,1,2571.004,2571.004,2571.0048,2572.4938,0,33,33,33,1,0.2,0.8,0.8,0.2,1,0,,,,,,,,,,,,,,,,,,,,,,,,,,,,,,,,,,,,
,,649dba79b97070557ebe3d0b,66fc997124836cbf24a2bac4,2024-10-01_18h54.30.072,mdp,2024.2.1,Win32,59.52380952,66fa4ebf79326e780c390304,,,,,,,,,,,,,,,,,,,,,2572.4948,2572.4949,2572.4968,2573.4772,0,1,left,0.458,,2573.4787,2573.4795,1,1,,2573.4803,2573.4808,1,0,,0,2573.4809,2573.4809,2573.4814,2574.9778,0,34,34,34,1,0.2,0.8,0.8,0.2,1,0,,,,,,,,,,,,,,,,,,,,,,,,,,,,,,,,,,,,
,,649dba79b97070557ebe3d0b,66fc997124836cbf24a2bac4,2024-10-01_18h54.30.072,mdp,2024.2.1,Win32,59.52380952,66fa4ebf79326e780c390304,,,,,,,,,,,,,,,,,,,,,2574.9786,2574.9786,2574.9806,2575.9432,0,1,left,0.4432,,2575.9453,2575.9458,1,1,,2575.9463,2575.9466,1,1,,0,2575.9466,2575.9466,2575.9469,2577.4447,0,35,35,35,1,0.2,0.8,0.8,0.2,1,0,,,,,,,,,,,,,,,,,,,,,,,,,,,,,,,,,,,,
,,649dba79b97070557ebe3d0b,66fc997124836cbf24a2bac4,2024-10-01_18h54.30.072,mdp,2024.2.1,Win32,59.52380952,66fa4ebf79326e780c390304,,,,,,,,,,,,,,,,,,,,,2577.4456,2577.4456,2577.4477,2578.3268,1,0,right,0.3532,,2578.329,2578.33,1,0,,2578.331,2578.332,1,0,,1,2578.332,2578.332,2578.333,2579.8272,0,36,36,36,1,0.2,0.8,0.8,0.2,1,0,,,,,,,,,,,,,,,,,,,,,,,,,,,,,,,,,,,,
,,649dba79b97070557ebe3d0b,66fc997124836cbf24a2bac4,2024-10-01_18h54.30.072,mdp,2024.2.1,Win32,59.52380952,66fa4ebf79326e780c390304,,,,,,,,,,,,,,,,,,,,,2579.8281,2579.8281,2579.8301,2580.6809,1,0,right,0.3323,,2580.6826,2580.6836,1,0,,2580.6846,2580.6854,1,1,,1,2580.6855,2580.6855,2580.6864,2582.1767,0,37,37,37,1,0.2,0.8,0.8,0.2,1,0,,,,,,,,,,,,,,,,,,,,,,,,,,,,,,,,,,,,
