init_exp.started,init_exp.stopped,participant,session,date,expName,psychopyVersion,OS,frameRate,study_id,disp_instruction.started,disp_instruction.stopped,instruction.thisRepN,instruction.thisTrialN,instruction.thisN,instruction.thisIndex,instruction.ran,instimg_path,consent.started,consent.stopped,key_resp_3.keys,key_resp_3.rt,key_resp_3.duration,n_steps,sequence_path,init_block.started,init_block.stopped,key_resp.keys,key_resp.rt,key_resp.duration,init_trials.started,init_trials.stopped,step0.started,step0.stopped,act0,s1,res0.keys,res0.rt,res0.duration,step1.started,step1.stopped,act1,s2,res1.keys,step2.started,step2.stopped,act2,s3,res2.keys,rew,reward_comp.started,reward_comp.stopped,reward_disp.started,reward_disp.stopped,trials.thisRepN,trials.thisTrialN,trials.thisN,trials.thisIndex,trials.ran,s00a0s10,s00a0s11,s00a1s10,s00a1s11,rew10,rew11,break_block.started,break_block.stopped,block.thisRepN,block.thisTrialN,block.thisN,block.thisIndex,block.ran,s00path,s10path,s11path,s20path,s21path,res1.rt,res1.duration,s10a0s20,s10a0s21,s10a1s20,s10a1s21,s11a0s20,s11a0s21,s11a1s20,s11a1s21,rew20,rew21,res2.rt,res2.duration,s20a0s30,s20a0s31,s20a1s30,s20a1s31,s21a0s30,s21a0s31,s21a1s30,s21a1s31,rew30,rew31
0,0.001,64b6b65f87a443a4963be23a,66fc97e3c1597bde9a128c4b,2024-10-02_02h51.39.104,mdp,2024.2.1,Win32,60.0240096,66fa4ebf79326e780c390304,,,,,,,,,,,,,,,,,,,,,,,,,,,,,,,,,,,,,,,,,,,,,,,,,,,,,,,,,,,,,,,,,,,,,,,,,,,,,,,,,,,,,,,,,,,
,,64b6b65f87a443a4963be23a,66fc97e3c1597bde9a128c4b,2024-10-02_02h51.39.104,mdp,2024.2.1,Win32,60.0240096,66fa4ebf79326e780c390304,0.006,10.965,0,0,0,0,1,rlnn_exp/rlnn_exp.001.png,,,,,,,,,,,,,,,,,,,,,,,,,,,,,,,,,,,,,,,,,,,,,,,,,,,,,,,,,,,,,,,,,,,,,,,,,,,,,,,,,,,
,,64b6b65f87a443a4963be23a,66fc97e3c1597bde9a128c4b,2024-10-02_02h51.39.104,mdp,2024.2.1,Win32,60.0240096,66fa4ebf79326e780c390304,10.966,21.438,0,1,1,1,1,rlnn_exp/rlnn_exp.002.png,,,,,,,,,,,,,,,,,,,,,,,,,,,,,,,,,,,,,,,,,,,,,,,,,,,,,,,,,,,,,,,,,,,,,,,,,,,,,,,,,,,
,,64b6b65f87a443a4963be23a,66fc97e3c1597bde9a128c4b,2024-10-02_02h51.39.104,mdp,2024.2.1,Win32,60.0240096,66fa4ebf79326e780c390304,21.439,31.837,0,2,2,2,1,rlnn_exp/rlnn_exp.003.png,,,,,,,,,,,,,,,,,,,,,,,,,,,,,,,,,,,,,,,,,,,,,,,,,,,,,,,,,,,,,,,,,,,,,,,,,,,,,,,,,,,
,,64b6b65f87a443a4963be23a,66fc97e3c1597bde9a128c4b,2024-10-02_02h51.39.104,mdp,2024.2.1,Win32,60.0240096,66fa4ebf79326e780c390304,31.839,43.521,0,3,3,3,1,rlnn_exp/rlnn_exp.004.png,,,,,,,,,,,,,,,,,,,,,,,,,,,,,,,,,,,,,,,,,,,,,,,,,,,,,,,,,,,,,,,,,,,,,,,,,,,,,,,,,,,
,,64b6b65f87a443a4963be23a,66fc97e3c1597bde9a128c4b,2024-10-02_02h51.39.104,mdp,2024.2.1,Win32,60.0240096,66fa4ebf79326e780c390304,,,,,,,,,43.521,54.671,y,1.116,,,,,,,,,,,,,,,,,,,,,,,,,,,,,,,,,,,,,,,,,,,,,,,,,,,,,,,,,,,,,,,,,,,,,,,,,,,,,,,
,,64b6b65f87a443a4963be23a,66fc97e3c1597bde9a128c4b,2024-10-02_02h51.39.104,mdp,2024.2.1,Win32,60.0240096,66fa4ebf79326e780c390304,,,,,,,,,,,,,,1,seqs/st1seq25.csv,54.682,56.877,space,1.677,,56.888,56.888,56.889,58.919,0,0,left,1.489,,58.92,58.924,,1,,58.925,58.928,,0,,1,58.928,58.928,58.929,60.419,0,0,0,0,1,0.6,0.4,0.4,0.6,1,0,,,,,,,,,,,,,,,,,,,,,,,,,,,,,,,,,,,,
,,64b6b65f87a443a4963be23a,66fc97e3c1597bde9a128c4b,2024-10-02_02h51.39.104,mdp,2024.2.1,Win32,60.0240096,66fa4ebf79326e780c390304,,,,,,,,,,,,,,,,,,,,,60.42,60.42,60.422,62.018,0,0,left,1.067,,62.022,62.025,,1,,62.027,62.028,,1,,1,62.029,62.029,62.03,63.518,0,1,1,1,1,0.4,0.6,0.8,0.2,1,0,,,,,,,,,,,,,,,,,,,,,,,,,,,,,,,,,,,,
,,64b6b65f87a443a4963be23a,66fc97e3c1597bde9a128c4b,2024-10-02_02h51.39.104,mdp,2024.2.1,Win32,60.0240096,66fa4ebf79326e780c390304,,,,,,,,,,,,,,,,,,,,,63.519,63.519,63.522,65.351,0,0,left,1.302,,65.354,65.356,,1,,65.357,65.36,,1,,1,65.36,65.36,65.36,66.851,0,2,2,2,1,0.4,0.6,0.8,0.2,1,0,,,,,,,,,,,,,,,,,,,,,,,,,,,,,,,,,,,,
,,64b6b65f87a443a4963be23a,66fc97e3c1597bde9a128c4b,2024-10-02_02h51.39.104,mdp,2024.2.1,Win32,60.0240096,66fa4ebf79326e780c390304,,,,,,,,,,,,,,,,,,,,,66.857,66.857,66.861,68.434,0,1,left,1.048,,68.436,68.439,,1,,68.44,68.442,,0,,0,68.442,68.442,68.443,69.935,0,3,3,3,1,0.4,0.6,0.8,0.2,1,0,,,,,,,,,,,,,,,,,,,,,,,,,,,,,,,,,,,,
,,64b6b65f87a443a4963be23a,66fc97e3c1597bde9a128c4b,2024-10-02_02h51.39.104,mdp,2024.2.1,Win32,60.0240096,66fa4ebf79326e780c390304,,,,,,,,,,,,,,,,,,,,,69.936,69.936,69.939,70.952,0,1,left,0.501,,70.955,70.957,,1,,70.959,70.96,,0,,0,70.96,70.96,70.963,72.453,0,4,4,4,1,0.4,0.6,0.8,0.2,1,0,,,,,,,,,,,,,,,,,,,,,,,,,,,,,,,,,,,,
,,64b6b65f87a443a4963be23a,66fc97e3c1597bde9a128c4b,2024-10-02_02h51.39.104,mdp,2024.2.1,Win32,60.0240096,66fa4ebf79326e780c390304,,,,,,,,,,,,,,,,,,,,,72.458,72.458,72.463,73.156,1,0,right,0.173,,73.16,73.164,,0,,73.166,73.171,,0,,1,73.171,73.171,73.173,74.667,0,5,5,5,1,0.4,0.6,0.8,0.2,1,0,,,,,,,,,,,,,,,,,,,,,,,,,,,,,,,,,,,,
,,64b6b65f87a443a4963be23a,66fc97e3c1597bde9a128c4b,2024-10-02_02h51.39.104,mdp,2024.2.1,Win32,60.0240096,66fa4ebf79326e780c390304,,,,,,,,,,,,,,,,,,,,,74.669,74.669,74.671,75.568,1,0,right,0.368,,75.572,75.575,,1,,75.578,75.58,,0,,1,75.58,75.58,75.582,77.084,0,6,6,6,1,0.4,0.6,0.8,0.2,1,0,,,,,,,,,,,,,,,,,,,,,,,,,,,,,,,,,,,,
,,64b6b65f87a443a4963be23a,66fc97e3c1597bde9a128c4b,2024-10-02_02h51.39.104,mdp,2024.2.1,Win32,60.0240096,66fa4ebf79326e780c390304,,,,,,,,,,,,,,,,,,,,,77.085,77.085,77.087,77.934,1,0,right,0.318,,77.938,77.941,,0,,77.943,77.945,,0,,1,77.945,77.945,77.947,79.434,0,7,7,7,1,0.4,0.6,0.8,0.2,1,0,,,,,,,,,,,,,,,,,,,,,,,,,,,,,,,,,,,,
,,64b6b65f87a443a4963be23a,66fc97e3c1597bde9a128c4b,2024-10-02_02h51.39.104,mdp,2024.2.1,Win32,60.0240096,66fa4ebf79326e780c390304,,,,,,,,,,,,,,,,,,,,,79.435,79.435,79.438,80.351,1,0,right,0.383,,80.354,80.356,,1,,80.358,80.36,,1,,1,80.36,80.36,80.362,81.85,0,8,8,8,1,0.8,0.2,0.6,0.4,1,0,,,,,,,,,,,,,,,,,,,,,,,,,,,,,,,,,,,,
,,64b6b65f87a443a4963be23a,66fc97e3c1597bde9a128c4b,2024-10-02_02h51.39.104,mdp,2024.2.1,Win32,60.0240096,66fa4ebf79326e780c390304,,,,,,,,,,,,,,,,,,,,,81.851,81.851,81.853,82.767,1,0,right,0.385,,82.77,82.773,,1,,82.775,82.777,,0,,1,82.777,82.777,82.778,84.267,0,9,9,9,1,0.8,0.2,0.6,0.4,1,0,,,,,,,,,,,,,,,,,,,,,,,,,,,,,,,,,,,,
,,64b6b65f87a443a4963be23a,66fc97e3c1597bde9a128c4b,2024-10-02_02h51.39.104,mdp,2024.2.1,Win32,60.0240096,66fa4ebf79326e780c390304,,,,,,,,,,,,,,,,,,,,,84.268,84.268,84.271,85.116,1,1,right,0.316,,85.12,85.123,,0,,85.124,85.126,,0,,0,85.126,85.126,85.128,86.617,0,10,10,10,1,0.8,0.2,0.6,0.4,1,0,,,,,,,,,,,,,,,,,,,,,,,,,,,,,,,,,,,,
,,64b6b65f87a443a4963be23a,66fc97e3c1597bde9a128c4b,2024-10-02_02h51.39.104,mdp,2024.2.1,Win32,60.0240096,66fa4ebf79326e780c390304,,,,,,,,,,,,,,,,,,,,,86.618,86.618,86.621,87.49,1,0,right,0.343,,87.492,87.494,,0,,87.496,87.497,,1,,1,87.497,87.497,87.499,89,0,11,11,11,1,0.8,0.2,0.6,0.4,1,0,,,,,,,,,,,,,,,,,,,,,,,,,,,,,,,,,,,,
,,64b6b65f87a443a4963be23a,66fc97e3c1597bde9a128c4b,2024-10-02_02h51.39.104,mdp,2024.2.1,Win32,60.0240096,66fa4ebf79326e780c390304,,,,,,,,,,,,,,,,,,,,,89.001,89.001,89.007,89.851,1,0,right,0.321,,89.853,89.855,,1,,89.857,89.859,,1,,1,89.859,89.859,89.86,91.35,0,12,12,12,1,0.8,0.2,0.6,0.4,1,0,,,,,,,,,,,,,,,,,,,,,,,,,,,,,,,,,,,,
,,64b6b65f87a443a4963be23a,66fc97e3c1597bde9a128c4b,2024-10-02_02h51.39.104,mdp,2024.2.1,Win32,60.0240096,66fa4ebf79326e780c390304,,,,,,,,,,,,,,,,,,,,,91.351,91.351,91.353,92.283,1,0,right,0.402,,92.286,92.287,,0,,92.289,92.291,,0,,1,92.291,92.291,92.293,93.784,0,13,13,13,1,0.8,0.2,0.6,0.4,1,0,,,,,,,,,,,,,,,,,,,,,,,,,,,,,,,,,,,,
,,64b6b65f87a443a4963be23a,66fc97e3c1597bde9a128c4b,2024-10-02_02h51.39.104,mdp,2024.2.1,Win32,60.0240096,66fa4ebf79326e780c390304,,,,,,,,,,,,,,,,,,,,,93.784,93.784,93.786,94.633,1,1,right,0.318,,94.635,94.638,,0,,94.639,94.642,,0,,0,94.642,94.642,94.643,96.133,0,14,14,14,1,0.8,0.2,0.6,0.4,1,0,,,,,,,,,,,,,,,,,,,,,,,,,,,,,,,,,,,,
,,64b6b65f87a443a4963be23a,66fc97e3c1597bde9a128c4b,2024-10-02_02h51.39.104,mdp,2024.2.1,Win32,60.0240096,66fa4ebf79326e780c390304,,,,,,,,,,,,,,,,,,,,,96.133,96.133,96.135,96.936,1,0,right,0.283,,96.939,96.942,,0,,96.943,96.944,,0,,1,96.944,96.944,96.946,98.433,0,15,15,15,1,0.8,0.2,0.6,0.4,1,0,,,,,,,,,,,,,,,,,,,,,,,,,,,,,,,,,,,,
,,64b6b65f87a443a4963be23a,66fc97e3c1597bde9a128c4b,2024-10-02_02h51.39.104,mdp,2024.2.1,Win32,60.0240096,66fa4ebf79326e780c390304,,,,,,,,,,,,,,,,,,,,,98.434,98.434,98.436,99.249,1,0,right,0.282,,99.251,99.254,,0,,99.255,99.258,,0,,1,99.258,99.258,99.264,100.749,0,16,16,16,1,0.8,0.2,0.6,0.4,1,0,,,,,,,,,,,,,,,,,,,,,,,,,,,,,,,,,,,,
,,64b6b65f87a443a4963be23a,66fc97e3c1597bde9a128c4b,2024-10-02_02h51.39.104,mdp,2024.2.1,Win32,60.0240096,66fa4ebf79326e780c390304,,,,,,,,,,,,,,,,,,,,,100.749,100.749,100.751,101.583,1,1,right,0.318,,101.584,101.587,,1,,101.589,101.591,,0,,0,101.591,101.591,101.593,103.083,0,17,17,17,1,0.8,0.2,0.6,0.4,1,0,,,,,,,,,,,,,,,,,,,,,,,,,,,,,,,,,,,,
,,64b6b65f87a443a4963be23a,66fc97e3c1597bde9a128c4b,2024-10-02_02h51.39.104,mdp,2024.2.1,Win32,60.0240096,66fa4ebf79326e780c390304,,,,,,,,,,,,,,,,,,,,,103.085,103.085,103.088,103.733,1,0,right,0.121,,103.736,103.741,,1,,103.742,103.745,,1,,1,103.745,103.745,103.747,105.237,0,18,18,18,1,0.8,0.2,0.6,0.4,1,0,,,,,,,,,,,,,,,,,,,,,,,,,,,,,,,,,,,,
,,64b6b65f87a443a4963be23a,66fc97e3c1597bde9a128c4b,2024-10-02_02h51.39.104,mdp,2024.2.1,Win32,60.0240096,66fa4ebf79326e780c390304,,,,,,,,,,,,,,,,,,,,,105.238,105.238,105.241,106.05,1,0,right,0.283,,106.052,106.054,,0,,106.056,106.059,,0,,1,106.059,106.059,106.06,107.55,0,19,19,19,1,0.2,0.8,0.8,0.2,1,0,,,,,,,,,,,,,,,,,,,,,,,,,,,,,,,,,,,,
,,64b6b65f87a443a4963be23a,66fc97e3c1597bde9a128c4b,2024-10-02_02h51.39.104,mdp,2024.2.1,Win32,60.0240096,66fa4ebf79326e780c390304,,,,,,,,,,,,,,,,,,,,,107.555,107.555,107.56,108.266,1,0,right,0.183,,108.269,108.272,,1,,108.275,108.277,,0,,1,108.277,108.277,108.278,109.765,0,20,20,20,1,0.2,0.8,0.8,0.2,1,0,,,,,,,,,,,,,,,,,,,,,,,,,,,,,,,,,,,,
,,64b6b65f87a443a4963be23a,66fc97e3c1597bde9a128c4b,2024-10-02_02h51.39.104,mdp,2024.2.1,Win32,60.0240096,66fa4ebf79326e780c390304,,,,,,,,,,,,,,,,,,,,,109.766,109.767,109.772,110.549,1,0,right,0.25,,110.552,110.555,,0,,110.557,110.558,,1,,1,110.559,110.559,110.56,112.049,0,21,21,21,1,0.8,0.2,0.4,0.6,1,0,,,,,,,,,,,,,,,,,,,,,,,,,,,,,,,,,,,,
,,64b6b65f87a443a4963be23a,66fc97e3c1597bde9a128c4b,2024-10-02_02h51.39.104,mdp,2024.2.1,Win32,60.0240096,66fa4ebf79326e780c390304,,,,,,,,,,,,,,,,,,,,,112.05,112.05,112.052,112.799,1,0,right,0.217,,112.802,112.804,,0,,112.806,112.81,,0,,1,112.81,112.81,112.811,114.298,0,22,22,22,1,0.8,0.2,0.4,0.6,1,0,,,,,,,,,,,,,,,,,,,,,,,,,,,,,,,,,,,,
,,64b6b65f87a443a4963be23a,66fc97e3c1597bde9a128c4b,2024-10-02_02h51.39.104,mdp,2024.2.1,Win32,60.0240096,66fa4ebf79326e780c390304,,,,,,,,,,,,,,,,,,,,,114.3,114.3,114.302,114.833,1,1,right,0.003,,114.835,114.837,,1,,114.839,114.842,,1,,0,114.842,114.842,114.843,116.332,0,23,23,23,1,0.8,0.2,0.4,0.6,1,0,,,,,,,,,,,,,,,,,,,,,,,,,,,,,,,,,,,,
,,64b6b65f87a443a4963be23a,66fc97e3c1597bde9a128c4b,2024-10-02_02h51.39.104,mdp,2024.2.1,Win32,60.0240096,66fa4ebf79326e780c390304,,,,,,,,,,,,,,,,,,,,,116.332,116.332,116.334,117.015,1,0,right,0.168,,117.017,117.02,,1,,117.021,117.023,,0,,1,117.024,117.024,117.025,118.515,0,24,24,24,1,0.8,0.2,0.4,0.6,1,0,,,,,,,,,,,,,,,,,,,,,,,,,,,,,,,,,,,,
,,64b6b65f87a443a4963be23a,66fc97e3c1597bde9a128c4b,2024-10-02_02h51.39.104,mdp,2024.2.1,Win32,60.0240096,66fa4ebf79326e780c390304,,,,,,,,,,,,,,,,,,,,,118.516,118.516,118.518,121.065,1,1,right,2.018,,121.067,121.07,,1,,121.071,121.073,,1,,0,121.073,121.073,121.075,122.565,0,25,25,25,1,0.8,0.2,0.4,0.6,1,0,,,,,,,,,,,,,,,,,,,,,,,,,,,,,,,,,,,,
,,64b6b65f87a443a4963be23a,66fc97e3c1597bde9a128c4b,2024-10-02_02h51.39.104,mdp,2024.2.1,Win32,60.0240096,66fa4ebf79326e780c390304,,,,,,,,,,,,,,,,,,,,,122.566,122.566,122.567,123.501,1,1,right,0.407,,123.503,123.505,,0,,123.507,123.51,,1,,0,123.51,123.51,123.511,125.015,0,26,26,26,1,0.6,0.4,0.6,0.4,1,0,,,,,,,,,,,,,,,,,,,,,,,,,,,,,,,,,,,,
,,64b6b65f87a443a4963be23a,66fc97e3c1597bde9a128c4b,2024-10-02_02h51.39.104,mdp,2024.2.1,Win32,60.0240096,66fa4ebf79326e780c390304,,,,,,,,,,,,,,,,,,,,,125.015,125.015,125.017,125.614,0,0,left,0.085,,125.616,125.618,,0,,125.619,125.62,,1,,1,125.621,125.621,125.622,127.115,0,27,27,27,1,0.6,0.4,0.6,0.4,1,0,,,,,,,,,,,,,,,,,,,,,,,,,,,,,,,,,,,,
,,64b6b65f87a443a4963be23a,66fc97e3c1597bde9a128c4b,2024-10-02_02h51.39.104,mdp,2024.2.1,Win32,60.0240096,66fa4ebf79326e780c390304,,,,,,,,,,,,,,,,,,,,,127.117,127.117,127.119,127.665,0,0,left,0.018,,127.667,127.669,,1,,127.671,127.673,,0,,1,127.673,127.673,127.674,129.164,0,28,28,28,1,0.6,0.4,0.6,0.4,1,0,,,,,,,,,,,,,,,,,,,,,,,,,,,,,,,,,,,,
,,64b6b65f87a443a4963be23a,66fc97e3c1597bde9a128c4b,2024-10-02_02h51.39.104,mdp,2024.2.1,Win32,60.0240096,66fa4ebf79326e780c390304,,,,,,,,,,,,,,,,,,,,,129.165,129.165,129.166,130.131,0,0,left,0.432,,130.133,130.135,,1,,130.136,130.137,,0,,1,130.137,130.137,130.138,131.631,0,29,29,29,1,0.8,0.2,0.4,0.6,1,0,,,,,,,,,,,,,,,,,,,,,,,,,,,,,,,,,,,,
,,64b6b65f87a443a4963be23a,66fc97e3c1597bde9a128c4b,2024-10-02_02h51.39.104,mdp,2024.2.1,Win32,60.0240096,66fa4ebf79326e780c390304,,,,,,,,,,,,,,,,,,,,,131.632,131.632,131.634,132.649,0,0,left,0.485,,132.651,132.653,,1,,132.655,132.657,,1,,1,132.657,132.657,132.658,134.147,0,30,30,30,1,0.6,0.4,0.2,0.8,1,0,,,,,,,,,,,,,,,,,,,,,,,,,,,,,,,,,,,,
,,64b6b65f87a443a4963be23a,66fc97e3c1597bde9a128c4b,2024-10-02_02h51.39.104,mdp,2024.2.1,Win32,60.0240096,66fa4ebf79326e780c390304,,,,,,,,,,,,,,,,,,,,,134.149,134.149,134.151,134.986,0,0,left,0.301,,134.988,134.99,,1,,134.992,134.993,,1,,1,134.993,134.993,134.995,136.497,0,31,31,31,1,0.6,0.4,0.2,0.8,1,0,,,,,,,,,,,,,,,,,,,,,,,,,,,,,,,,,,,,
,,64b6b65f87a443a4963be23a,66fc97e3c1597bde9a128c4b,2024-10-02_02h51.39.104,mdp,2024.2.1,Win32,60.0240096,66fa4ebf79326e780c390304,,,,,,,,,,,,,,,,,,,,,136.497,136.498,136.499,137.115,0,0,left,0.1,,137.125,137.131,,0,,137.132,137.135,,0,,1,137.135,137.135,137.137,138.631,0,32,32,32,1,0.6,0.4,0.2,0.8,1,0,,,,,,,,,,,,,,,,,,,,,,,,,,,,,,,,,,,,
,,64b6b65f87a443a4963be23a,66fc97e3c1597bde9a128c4b,2024-10-02_02h51.39.104,mdp,2024.2.1,Win32,60.0240096,66fa4ebf79326e780c390304,,,,,,,,,,,,,,,,,,,,,138.634,138.634,138.637,139.247,0,0,left,0.084,,139.251,139.255,,0,,139.256,139.259,,1,,1,139.259,139.259,139.261,140.749,0,33,33,33,1,0.6,0.4,0.2,0.8,1,0,,,,,,,,,,,,,,,,,,,,,,,,,,,,,,,,,,,,
,,64b6b65f87a443a4963be23a,66fc97e3c1597bde9a128c4b,2024-10-02_02h51.39.104,mdp,2024.2.1,Win32,60.0240096,66fa4ebf79326e780c390304,,,,,,,,,,,,,,,,,,,,,140.75,140.75,140.752,141.58,0,0,left,0.302,,141.583,141.586,,1,,141.589,141.591,,1,,1,141.591,141.591,141.593,143.08,0,34,34,34,1,0.6,0.4,0.2,0.8,1,0,,,,,,,,,,,,,,,,,,,,,,,,,,,,,,,,,,,,
,,64b6b65f87a443a4963be23a,66fc97e3c1597bde9a128c4b,2024-10-02_02h51.39.104,mdp,2024.2.1,Win32,60.0240096,66fa4ebf79326e780c390304,,,,,,,,,,,,,,,,,,,,,143.082,143.082,143.086,143.931,0,0,left,0.317,,143.933,143.936,,0,,143.938,143.94,,0,,1,143.94,143.94,143.942,145.43,0,35,35,35,1,0.6,0.4,0.2,0.8,1,0,,,,,,,,,,,,,,,,,,,,,,,,,,,,,,,,,,,,
,,64b6b65f87a443a4963be23a,66fc97e3c1597bde9a128c4b,2024-10-02_02h51.39.104,mdp,2024.2.1,Win32,60.0240096,66fa4ebf79326e780c390304,,,,,,,,,,,,,,,,,,,,,145.43,145.43,145.432,146.214,0,0,left,0.267,,146.216,146.219,,0,,146.221,146.222,,0,,1,146.223,146.223,146.224,147.713,0,36,36,36,1,0.6,0.4,0.2,0.8,1,0,,,,,,,,,,,,,,,,,,,,,,,,,,,,,,,,,,,,
,,64b6b65f87a443a4963be23a,66fc97e3c1597bde9a128c4b,2024-10-02_02h51.39.104,mdp,2024.2.1,Win32,60.0240096,66fa4ebf79326e780c390304,,,,,,,,,,,,,,,,,,,,,147.714,147.714,147.716,149.513,0,0,left,1.269,,149.515,149.518,,0,,149.52,149.522,,1,,1,149.522,149.522,149.523,151.013,0,37,37,37,1,0.6,0.4,0.2,0.8,1,0,,,,,,,,,,,,,,,,,,,,,,,,,,,,,,,,,,,,
,,64b6b65f87a443a4963be23a,66fc97e3c1597bde9a128c4b,2024-10-02_02h51.39.104,mdp,2024.2.1,Win32,60.0240096,66fa4ebf79326e780c390304,,,,,,,,,,,,,,,,,,,,,151.014,151.014,151.017,152.363,0,1,left,0.817,,152.364,152.367,,1,,152.369,152.37,,1,,0,152.371,152.371,152.373,153.863,0,38,38,38,1,0.2,0.8,0.6,0.4,1,0,,,,,,,,,,,,,,,,,,,,,,,,,,,,,,,,,,,,
,,64b6b65f87a443a4963be23a,66fc97e3c1597bde9a128c4b,2024-10-02_02h51.39.104,mdp,2024.2.1,Win32,60.0240096,66fa4ebf79326e780c390304,,,,,,,,,,,,,,,,,,,,,153.864,153.864,153.865,156.063,0,1,left,1.669,,156.065,156.068,,0,,156.069,156.071,,1,,0,156.071,156.071,156.073,157.563,0,39,39,39,1,0.2,0.8,0.6,0.4,1,0,,,,,,,,,,,,,,,,,,,,,,,,,,,,,,,,,,,,
,,64b6b65f87a443a4963be23a,66fc97e3c1597bde9a128c4b,2024-10-02_02h51.39.104,mdp,2024.2.1,Win32,60.0240096,66fa4ebf79326e780c390304,,,,,,,,,,,,,,,,,,,,,157.563,157.563,157.565,158.53,0,1,left,0.45,,158.532,158.534,,1,,158.535,158.537,,1,,0,158.537,158.537,158.539,160.033,0,40,40,40,1,0.2,0.8,0.6,0.4,1,0,,,,,,,,,,,,,,,,,,,,,,,,,,,,,,,,,,,,
,,64b6b65f87a443a4963be23a,66fc97e3c1597bde9a128c4b,2024-10-02_02h51.39.104,mdp,2024.2.1,Win32,60.0240096,66fa4ebf79326e780c390304,,,,,,,,,,,,,,,,,,,,,160.033,160.033,160.035,160.596,0,1,left,0.033,,160.6,160.602,,1,,160.603,160.605,,1,,0,160.605,160.605,160.606,162.096,0,41,41,41,1,0.2,0.8,0.6,0.4,1,0,,,,,,,,,,,,,,,,,,,,,,,,,,,,,,,,,,,,
,,64b6b65f87a443a4963be23a,66fc97e3c1597bde9a128c4b,2024-10-02_02h51.39.104,mdp,2024.2.1,Win32,60.0240096,66fa4ebf79326e780c390304,,,,,,,,,,,,,,,,,,,,,162.097,162.097,162.1,162.947,1,0,right,0.319,,162.949,162.952,,0,,162.953,162.955,,1,,1,162.955,162.955,162.956,164.447,0,42,42,42,1,0.2,0.8,0.6,0.4,1,0,,,,,,,,,,,,,,,,,,,,,,,,,,,,,,,,,,,,
,,64b6b65f87a443a4963be23a,66fc97e3c1597bde9a128c4b,2024-10-02_02h51.39.104,mdp,2024.2.1,Win32,60.0240096,66fa4ebf79326e780c390304,,,,,,,,,,,,,,,,,,,,,164.447,164.447,164.449,165.181,1,0,right,0.203,,165.182,165.185,,0,,165.186,165.188,,0,,1,165.189,165.189,165.19,166.679,0,43,43,43,1,0.2,0.8,0.6,0.4,1,0,,,,,,,,,,,,,,,,,,,,,,,,,,,,,,,,,,,,
,,64b6b65f87a443a4963be23a,66fc97e3c1597bde9a128c4b,2024-10-02_02h51.39.104,mdp,2024.2.1,Win32,60.0240096,66fa4ebf79326e780c390304,,,,,,,,,,,,,,,,,,,,,166.68,166.68,166.682,167.23,1,1,right,0.017,,167.232,167.234,,1,,167.237,167.238,,0,,0,167.238,167.238,167.239,168.729,0,44,44,44,1,0.2,0.8,0.6,0.4,1,0,,,,,,,,,,,,,,,,,,,,,,,,,,,,,,,,,,,,
,,64b6b65f87a443a4963be23a,66fc97e3c1597bde9a128c4b,2024-10-02_02h51.39.104,mdp,2024.2.1,Win32,60.0240096,66fa4ebf79326e780c390304,,,,,,,,,,,,,,,,,,,,,168.73,168.73,168.732,169.848,1,0,right,0.586,,169.857,169.863,,0,,169.866,169.868,,0,,1,169.868,169.868,169.87,171.363,0,45,45,45,1,0.2,0.8,0.6,0.4,1,0,,,,,,,,,,,,,,,,,,,,,,,,,,,,,,,,,,,,
,,64b6b65f87a443a4963be23a,66fc97e3c1597bde9a128c4b,2024-10-02_02h51.39.104,mdp,2024.2.1,Win32,60.0240096,66fa4ebf79326e780c390304,,,,,,,,,,,,,,,,,,,,,171.366,171.366,171.368,172.131,1,1,right,0.237,,172.134,172.137,,0,,172.139,172.141,,1,,0,172.141,172.141,172.143,173.646,0,46,46,46,1,0.8,0.2,0.4,0.6,1,0,,,,,,,,,,,,,,,,,,,,,,,,,,,,,,,,,,,,
,,64b6b65f87a443a4963be23a,66fc97e3c1597bde9a128c4b,2024-10-02_02h51.39.104,mdp,2024.2.1,Win32,60.0240096,66fa4ebf79326e780c390304,,,,,,,,,,,,,,,,,,,,,173.647,173.647,173.65,174.681,0,0,left,0.502,,174.683,174.687,,0,,174.689,174.691,,1,,1,174.691,174.691,174.693,176.195,0,47,47,47,1,0.8,0.2,0.4,0.6,1,0,,,,,,,,,,,,,,,,,,,,,,,,,,,,,,,,,,,,
,,64b6b65f87a443a4963be23a,66fc97e3c1597bde9a128c4b,2024-10-02_02h51.39.104,mdp,2024.2.1,Win32,60.0240096,66fa4ebf79326e780c390304,,,,,,,,,,,,,,,,,,,,,176.198,176.198,176.201,176.929,1,1,right,0.203,,176.932,176.934,,0,,176.938,176.94,,1,,0,176.94,176.94,176.94,178.428,0,48,48,48,1,0.4,0.6,0.6,0.4,1,0,,,,,,,,,,,,,,,,,,,,,,,,,,,,,,,,,,,,
,,64b6b65f87a443a4963be23a,66fc97e3c1597bde9a128c4b,2024-10-02_02h51.39.104,mdp,2024.2.1,Win32,60.0240096,66fa4ebf79326e780c390304,,,,,,,,,,,,,,,,,,,,,178.43,178.43,178.432,179.462,0,1,left,0.501,,179.464,179.467,,0,,179.468,179.47,,1,,0,179.471,179.471,179.473,180.962,0,49,49,49,1,0.6,0.4,0.8,0.2,1,0,,,,,,,,,,,,,,,,,,,,,,,,,,,,,,,,,,,,
,,64b6b65f87a443a4963be23a,66fc97e3c1597bde9a128c4b,2024-10-02_02h51.39.104,mdp,2024.2.1,Win32,60.0240096,66fa4ebf79326e780c390304,,,,,,,,,,,,,,,,,,,,,,,,,,,,,,,,,,,,,,,,,,,,,,,,,,,,,,,,180.962,239.476,0,0,0,6,1,imgs/cat.png,imgs/elephant.png,imgs/squirrel.png,imgs/pig.png,imgs/horse.png,,,,,,,,,,,,,,,,,,,,,,,,
,,64b6b65f87a443a4963be23a,66fc97e3c1597bde9a128c4b,2024-10-02_02h51.39.104,mdp,2024.2.1,Win32,60.0240096,66fa4ebf79326e780c390304,,,,,,,,,,,,,,2,seqs/st2seq48.csv,239.487,252.527,space,12.518,,252.541,252.541,252.547,254.192,0,1,left,1.123,,254.195,255.557,1,1,right,255.56,255.563,,1,,0,255.564,255.564,255.566,257.057,0,0,0,0,1,0.2,0.8,0.6,0.4,,,,,,,,,,,,,,,0.82,,0.6,0.4,0.4,0.6,0.6,0.4,0.2,0.8,1,0,,,,,,,,,,,,
,,64b6b65f87a443a4963be23a,66fc97e3c1597bde9a128c4b,2024-10-02_02h51.39.104,mdp,2024.2.1,Win32,60.0240096,66fa4ebf79326e780c390304,,,,,,,,,,,,,,,,,,,,,257.06,257.06,257.062,257.991,0,1,left,0.402,,257.993,258.525,1,1,right,258.527,258.53,,1,,0,258.53,258.53,258.532,260.025,0,1,1,1,1,0.2,0.8,0.6,0.4,,,,,,,,,,,,,,,0.017,,0.6,0.4,0.4,0.6,0.6,0.4,0.2,0.8,1,0,,,,,,,,,,,,
,,64b6b65f87a443a4963be23a,66fc97e3c1597bde9a128c4b,2024-10-02_02h51.39.104,mdp,2024.2.1,Win32,60.0240096,66fa4ebf79326e780c390304,,,,,,,,,,,,,,,,,,,,,260.026,260.026,260.029,260.774,0,1,left,0.217,,260.777,261.657,1,1,right,261.66,261.663,,0,,0,261.663,261.663,261.665,263.158,0,2,2,2,1,0.2,0.8,0.6,0.4,,,,,,,,,,,,,,,0.352,,0.6,0.4,0.4,0.6,0.8,0.2,0.8,0.2,1,0,,,,,,,,,,,,
,,64b6b65f87a443a4963be23a,66fc97e3c1597bde9a128c4b,2024-10-02_02h51.39.104,mdp,2024.2.1,Win32,60.0240096,66fa4ebf79326e780c390304,,,,,,,,,,,,,,,,,,,,,263.158,263.158,263.16,264.358,1,1,right,0.669,,264.36,265.907,0,0,left,265.91,265.911,,0,,1,265.912,265.912,265.913,267.407,0,3,3,3,1,0.2,0.8,0.6,0.4,,,,,,,,,,,,,,,1.016,,0.6,0.4,0.4,0.6,0.8,0.2,0.8,0.2,1,0,,,,,,,,,,,,
,,64b6b65f87a443a4963be23a,66fc97e3c1597bde9a128c4b,2024-10-02_02h51.39.104,mdp,2024.2.1,Win32,60.0240096,66fa4ebf79326e780c390304,,,,,,,,,,,,,,,,,,,,,267.408,267.408,267.41,268.157,0,1,left,0.227,,268.16,268.728,1,0,right,268.731,268.734,,0,,1,268.734,268.734,268.735,270.229,0,4,4,4,1,0.2,0.8,0.6,0.4,,,,,,,,,,,,,,,0.056,,0.6,0.4,0.4,0.6,0.8,0.2,0.8,0.2,1,0,,,,,,,,,,,,
,,64b6b65f87a443a4963be23a,66fc97e3c1597bde9a128c4b,2024-10-02_02h51.39.104,mdp,2024.2.1,Win32,60.0240096,66fa4ebf79326e780c390304,,,,,,,,,,,,,,,,,,,,,270.23,270.23,270.231,271.406,1,0,right,0.65,,271.408,272.556,0,1,left,272.56,272.562,,0,,0,272.562,272.562,272.563,274.059,0,5,5,5,1,0.8,0.2,0.2,0.8,,,,,,,,,,,,,,,0.621,,0.6,0.4,0.4,0.6,0.8,0.2,0.8,0.2,1,0,,,,,,,,,,,,
,,64b6b65f87a443a4963be23a,66fc97e3c1597bde9a128c4b,2024-10-02_02h51.39.104,mdp,2024.2.1,Win32,60.0240096,66fa4ebf79326e780c390304,,,,,,,,,,,,,,,,,,,,,274.06,274.06,274.061,274.74,1,1,right,0.152,,274.742,275.706,1,0,right,275.709,275.711,,0,,1,275.711,275.711,275.714,277.207,0,6,6,6,1,0.8,0.2,0.2,0.8,,,,,,,,,,,,,,,0.446,,0.6,0.4,0.4,0.6,0.8,0.2,0.8,0.2,1,0,,,,,,,,,,,,
,,64b6b65f87a443a4963be23a,66fc97e3c1597bde9a128c4b,2024-10-02_02h51.39.104,mdp,2024.2.1,Win32,60.0240096,66fa4ebf79326e780c390304,,,,,,,,,,,,,,,,,,,,,277.207,277.207,277.21,278.624,1,1,right,0.883,,278.632,279.44,1,1,right,279.444,279.447,,0,,0,279.447,279.447,279.449,280.941,0,7,7,7,1,0.8,0.2,0.2,0.8,,,,,,,,,,,,,,,0.282,,0.6,0.4,0.4,0.6,0.8,0.2,0.8,0.2,1,0,,,,,,,,,,,,
,,64b6b65f87a443a4963be23a,66fc97e3c1597bde9a128c4b,2024-10-02_02h51.39.104,mdp,2024.2.1,Win32,60.0240096,66fa4ebf79326e780c390304,,,,,,,,,,,,,,,,,,,,,280.943,280.943,280.945,281.706,0,0,left,0.233,,281.709,282.34,1,0,right,282.342,282.344,,0,,1,282.344,282.344,282.345,283.841,0,8,8,8,1,0.8,0.2,0.2,0.8,,,,,,,,,,,,,,,0.112,,0.6,0.4,0.4,0.6,0.8,0.2,0.8,0.2,1,0,,,,,,,,,,,,
,,64b6b65f87a443a4963be23a,66fc97e3c1597bde9a128c4b,2024-10-02_02h51.39.104,mdp,2024.2.1,Win32,60.0240096,66fa4ebf79326e780c390304,,,,,,,,,,,,,,,,,,,,,283.842,283.842,283.845,284.44,1,1,right,0.068,,284.443,285.656,0,0,left,285.659,285.662,,1,,1,285.662,285.662,285.663,287.156,0,9,9,9,1,0.8,0.2,0.2,0.8,,,,,,,,,,,,,,,0.683,,0.6,0.4,0.4,0.6,0.8,0.2,0.8,0.2,1,0,,,,,,,,,,,,
,,64b6b65f87a443a4963be23a,66fc97e3c1597bde9a128c4b,2024-10-02_02h51.39.104,mdp,2024.2.1,Win32,60.0240096,66fa4ebf79326e780c390304,,,,,,,,,,,,,,,,,,,,,287.157,287.157,287.16,287.939,1,1,right,0.251,,287.942,288.693,1,0,right,288.695,288.698,,0,,1,288.698,288.698,288.699,290.189,0,10,10,10,1,0.8,0.2,0.2,0.8,,,,,,,,,,,,,,,0.239,,0.6,0.4,0.4,0.6,0.8,0.2,0.8,0.2,1,0,,,,,,,,,,,,
,,64b6b65f87a443a4963be23a,66fc97e3c1597bde9a128c4b,2024-10-02_02h51.39.104,mdp,2024.2.1,Win32,60.0240096,66fa4ebf79326e780c390304,,,,,,,,,,,,,,,,,,,,,290.19,290.19,290.192,290.759,0,1,left,0.035,,290.761,291.392,1,0,right,291.394,291.396,,0,,1,291.396,291.396,291.398,292.89,0,11,11,11,1,0.8,0.2,0.2,0.8,,,,,,,,,,,,,,,0.104,,0.6,0.4,0.4,0.6,0.8,0.2,0.8,0.2,1,0,,,,,,,,,,,,
,,64b6b65f87a443a4963be23a,66fc97e3c1597bde9a128c4b,2024-10-02_02h51.39.104,mdp,2024.2.1,Win32,60.0240096,66fa4ebf79326e780c390304,,,,,,,,,,,,,,,,,,,,,292.892,292.892,292.894,294.139,0,1,left,0.718,,294.141,294.673,0,1,left,294.676,294.678,,0,,0,294.678,294.678,294.68,296.172,0,12,12,12,1,0.2,0.8,0.6,0.4,,,,,,,,,,,,,,,0.002,,0.6,0.4,0.4,0.6,0.8,0.2,0.8,0.2,1,0,,,,,,,,,,,,
,,64b6b65f87a443a4963be23a,66fc97e3c1597bde9a128c4b,2024-10-02_02h51.39.104,mdp,2024.2.1,Win32,60.0240096,66fa4ebf79326e780c390304,,,,,,,,,,,,,,,,,,,,,296.173,296.173,296.175,296.691,0,0,left,0.003,,296.693,297.54,0,0,left,297.542,297.545,,0,,1,297.546,297.546,297.547,299.039,0,13,13,13,1,0.2,0.8,0.6,0.4,,,,,,,,,,,,,,,0.304,,0.6,0.4,0.4,0.6,0.8,0.2,0.8,0.2,1,0,,,,,,,,,,,,
,,64b6b65f87a443a4963be23a,66fc97e3c1597bde9a128c4b,2024-10-02_02h51.39.104,mdp,2024.2.1,Win32,60.0240096,66fa4ebf79326e780c390304,,,,,,,,,,,,,,,,,,,,,299.041,299.041,299.042,299.672,0,0,left,0.102,,299.674,300.355,0,0,left,300.358,300.36,,1,,1,300.36,300.36,300.361,301.857,0,14,14,14,1,0.2,0.8,0.6,0.4,,,,,,,,,,,,,,,0.15,,0.6,0.4,0.4,0.6,0.8,0.2,0.8,0.2,1,0,,,,,,,,,,,,
,,64b6b65f87a443a4963be23a,66fc97e3c1597bde9a128c4b,2024-10-02_02h51.39.104,mdp,2024.2.1,Win32,60.0240096,66fa4ebf79326e780c390304,,,,,,,,,,,,,,,,,,,,,301.859,301.859,301.861,302.389,0,1,left,0.006,,302.391,303.072,0,1,left,303.074,303.076,,0,,0,303.076,303.076,303.078,304.573,0,15,15,15,1,0.2,0.8,0.6,0.4,,,,,,,,,,,,,,,0.149,,0.6,0.4,0.4,0.6,0.8,0.2,0.8,0.2,1,0,,,,,,,,,,,,
,,64b6b65f87a443a4963be23a,66fc97e3c1597bde9a128c4b,2024-10-02_02h51.39.104,mdp,2024.2.1,Win32,60.0240096,66fa4ebf79326e780c390304,,,,,,,,,,,,,,,,,,,,,304.574,304.574,304.576,305.488,0,1,left,0.383,,305.49,306.039,0,0,left,306.041,306.043,,0,,1,306.043,306.043,306.044,307.538,0,16,16,16,1,0.2,0.8,0.6,0.4,,,,,,,,,,,,,,,0.034,,0.6,0.4,0.4,0.6,0.8,0.2,0.8,0.2,1,0,,,,,,,,,,,,
,,64b6b65f87a443a4963be23a,66fc97e3c1597bde9a128c4b,2024-10-02_02h51.39.104,mdp,2024.2.1,Win32,60.0240096,66fa4ebf79326e780c390304,,,,,,,,,,,,,,,,,,,,,307.539,307.539,307.541,308.238,0,1,left,0.166,,308.24,308.856,1,0,right,308.865,308.871,,0,,1,308.871,308.871,308.875,310.371,0,17,17,17,1,0.2,0.8,0.6,0.4,,,,,,,,,,,,,,,0.102,,0.6,0.4,0.4,0.6,0.8,0.2,0.8,0.2,1,0,,,,,,,,,,,,
,,64b6b65f87a443a4963be23a,66fc97e3c1597bde9a128c4b,2024-10-02_02h51.39.104,mdp,2024.2.1,Win32,60.0240096,66fa4ebf79326e780c390304,,,,,,,,,,,,,,,,,,,,,310.375,310.375,310.379,311.172,0,1,left,0.267,,311.174,311.854,0,0,left,311.859,311.861,,1,,1,311.861,311.861,311.863,313.355,0,18,18,18,1,0.2,0.8,0.6,0.4,,,,,,,,,,,,,,,0.15,,0.6,0.4,0.4,0.6,0.8,0.2,0.8,0.2,1,0,,,,,,,,,,,,
,,64b6b65f87a443a4963be23a,66fc97e3c1597bde9a128c4b,2024-10-02_02h51.39.104,mdp,2024.2.1,Win32,60.0240096,66fa4ebf79326e780c390304,,,,,,,,,,,,,,,,,,,,,313.356,313.357,313.36,314.055,1,0,right,0.169,,314.057,314.805,0,1,left,314.808,314.811,,0,,0,314.812,314.812,314.814,316.304,0,19,19,19,1,0.2,0.8,0.6,0.4,,,,,,,,,,,,,,,0.216,,0.6,0.4,0.4,0.6,0.8,0.2,0.8,0.2,1,0,,,,,,,,,,,,
,,64b6b65f87a443a4963be23a,66fc97e3c1597bde9a128c4b,2024-10-02_02h51.39.104,mdp,2024.2.1,Win32,60.0240096,66fa4ebf79326e780c390304,,,,,,,,,,,,,,,,,,,,,316.306,316.306,316.309,317.038,0,1,left,0.201,,317.04,317.621,0,0,left,317.624,317.626,,0,,1,317.627,317.627,317.629,319.121,0,20,20,20,1,0.2,0.8,0.6,0.4,,,,,,,,,,,,,,,0.048,,0.6,0.4,0.4,0.6,0.8,0.2,0.8,0.2,1,0,,,,,,,,,,,,
,,64b6b65f87a443a4963be23a,66fc97e3c1597bde9a128c4b,2024-10-02_02h51.39.104,mdp,2024.2.1,Win32,60.0240096,66fa4ebf79326e780c390304,,,,,,,,,,,,,,,,,,,,,319.121,319.121,319.124,319.704,1,0,right,0.067,,319.707,320.322,0,0,left,320.324,320.326,,0,,1,320.326,320.326,320.328,321.82,0,21,21,21,1,0.2,0.8,0.6,0.4,,,,,,,,,,,,,,,0.1,,0.6,0.4,0.4,0.6,0.8,0.2,0.8,0.2,1,0,,,,,,,,,,,,
,,64b6b65f87a443a4963be23a,66fc97e3c1597bde9a128c4b,2024-10-02_02h51.39.104,mdp,2024.2.1,Win32,60.0240096,66fa4ebf79326e780c390304,,,,,,,,,,,,,,,,,,,,,321.821,321.821,321.825,322.495,1,0,right,0.159,,322.496,323.137,1,1,right,323.142,323.143,,0,,0,323.143,323.143,323.145,324.637,0,22,22,22,1,0.2,0.8,0.6,0.4,,,,,,,,,,,,,,,0.117,,0.6,0.4,0.4,0.6,0.8,0.2,0.8,0.2,1,0,,,,,,,,,,,,
,,64b6b65f87a443a4963be23a,66fc97e3c1597bde9a128c4b,2024-10-02_02h51.39.104,mdp,2024.2.1,Win32,60.0240096,66fa4ebf79326e780c390304,,,,,,,,,,,,,,,,,,,,,324.638,324.638,324.641,326.104,0,1,left,0.934,,326.106,326.921,1,0,right,326.924,326.926,,0,,1,326.927,326.927,326.928,328.42,0,23,23,23,1,0.2,0.8,0.6,0.4,,,,,,,,,,,,,,,0.286,,0.6,0.4,0.4,0.6,0.8,0.2,0.8,0.2,1,0,,,,,,,,,,,,
,,64b6b65f87a443a4963be23a,66fc97e3c1597bde9a128c4b,2024-10-02_02h51.39.104,mdp,2024.2.1,Win32,60.0240096,66fa4ebf79326e780c390304,,,,,,,,,,,,,,,,,,,,,328.421,328.421,328.424,329.055,1,0,right,0.1,,329.058,329.766,0,1,left,329.768,329.775,,0,,0,329.775,329.775,329.777,331.27,0,24,24,24,1,0.2,0.8,0.6,0.4,,,,,,,,,,,,,,,0.182,,0.6,0.4,0.4,0.6,0.8,0.2,0.8,0.2,1,0,,,,,,,,,,,,
,,64b6b65f87a443a4963be23a,66fc97e3c1597bde9a128c4b,2024-10-02_02h51.39.104,mdp,2024.2.1,Win32,60.0240096,66fa4ebf79326e780c390304,,,,,,,,,,,,,,,,,,,,,331.271,331.271,331.274,331.939,1,0,right,0.137,,331.941,332.556,1,0,right,332.56,332.562,,1,,1,332.562,332.562,332.565,334.053,0,25,25,25,1,0.6,0.4,0.2,0.8,,,,,,,,,,,,,,,0.103,,0.6,0.4,0.4,0.6,0.8,0.2,0.8,0.2,1,0,,,,,,,,,,,,
,,64b6b65f87a443a4963be23a,66fc97e3c1597bde9a128c4b,2024-10-02_02h51.39.104,mdp,2024.2.1,Win32,60.0240096,66fa4ebf79326e780c390304,,,,,,,,,,,,,,,,,,,,,334.054,334.054,334.056,335.07,1,1,right,0.484,,335.073,336.187,0,0,left,336.187,336.19,,0,,1,336.19,336.19,336.191,337.687,0,26,26,26,1,0.6,0.4,0.2,0.8,,,,,,,,,,,,,,,0.579,,0.6,0.4,0.4,0.6,0.8,0.2,0.8,0.2,1,0,,,,,,,,,,,,
,,64b6b65f87a443a4963be23a,66fc97e3c1597bde9a128c4b,2024-10-02_02h51.39.104,mdp,2024.2.1,Win32,60.0240096,66fa4ebf79326e780c390304,,,,,,,,,,,,,,,,,,,,,337.687,337.687,337.69,338.506,1,1,right,0.288,,338.507,339.07,0,0,left,339.072,339.074,,0,,1,339.074,339.074,339.076,340.571,0,27,27,27,1,0.6,0.4,0.2,0.8,,,,,,,,,,,,,,,0.035,,0.6,0.4,0.4,0.6,0.8,0.2,0.8,0.2,1,0,,,,,,,,,,,,
,,64b6b65f87a443a4963be23a,66fc97e3c1597bde9a128c4b,2024-10-02_02h51.39.104,mdp,2024.2.1,Win32,60.0240096,66fa4ebf79326e780c390304,,,,,,,,,,,,,,,,,,,,,340.575,340.575,340.581,341.987,1,1,right,0.882,,341.992,342.52,0,1,left,342.523,342.526,,0,,0,342.526,342.526,342.528,344.02,0,28,28,28,1,0.6,0.4,0.2,0.8,,,,,,,,,,,,,,,0.001,,0.6,0.4,0.4,0.6,0.8,0.2,0.8,0.2,1,0,,,,,,,,,,,,
,,64b6b65f87a443a4963be23a,66fc97e3c1597bde9a128c4b,2024-10-02_02h51.39.104,mdp,2024.2.1,Win32,60.0240096,66fa4ebf79326e780c390304,,,,,,,,,,,,,,,,,,,,,344.021,344.021,344.024,344.72,1,1,right,0.168,,344.723,345.77,0,0,left,345.773,345.777,,0,,1,345.777,345.777,345.779,347.27,0,29,29,29,1,0.2,0.8,0.4,0.6,,,,,,,,,,,,,,,0.516,,0.6,0.4,0.4,0.6,0.8,0.2,0.8,0.2,1,0,,,,,,,,,,,,
,,64b6b65f87a443a4963be23a,66fc97e3c1597bde9a128c4b,2024-10-02_02h51.39.104,mdp,2024.2.1,Win32,60.0240096,66fa4ebf79326e780c390304,,,,,,,,,,,,,,,,,,,,,347.273,347.273,347.275,347.953,0,1,left,0.151,,347.955,350.67,0,1,left,350.673,350.676,,0,,0,350.676,350.676,350.677,352.17,0,30,30,30,1,0.2,0.8,0.4,0.6,,,,,,,,,,,,,,,2.185,,0.4,0.6,0.2,0.8,0.8,0.2,0.8,0.2,1,0,,,,,,,,,,,,
,,64b6b65f87a443a4963be23a,66fc97e3c1597bde9a128c4b,2024-10-02_02h51.39.104,mdp,2024.2.1,Win32,60.0240096,66fa4ebf79326e780c390304,,,,,,,,,,,,,,,,,,,,,352.171,352.171,352.174,353.203,1,0,right,0.502,,353.205,354.119,1,1,right,354.121,354.124,,0,,0,354.124,354.124,354.124,355.619,0,31,31,31,1,0.2,0.8,0.4,0.6,,,,,,,,,,,,,,,0.381,,0.4,0.6,0.2,0.8,0.8,0.2,0.8,0.2,1,0,,,,,,,,,,,,
,,64b6b65f87a443a4963be23a,66fc97e3c1597bde9a128c4b,2024-10-02_02h51.39.104,mdp,2024.2.1,Win32,60.0240096,66fa4ebf79326e780c390304,,,,,,,,,,,,,,,,,,,,,355.621,355.621,355.622,358.268,1,1,right,2.118,,358.271,358.935,0,0,left,358.937,358.939,,0,,1,358.939,358.939,358.94,360.436,0,32,32,32,1,0.2,0.8,0.4,0.6,,,,,,,,,,,,,,,0.149,,0.4,0.6,0.2,0.8,0.8,0.2,0.8,0.2,1,0,,,,,,,,,,,,
,,64b6b65f87a443a4963be23a,66fc97e3c1597bde9a128c4b,2024-10-02_02h51.39.104,mdp,2024.2.1,Win32,60.0240096,66fa4ebf79326e780c390304,,,,,,,,,,,,,,,,,,,,,360.436,360.436,360.438,360.952,0,1,left,0.001,,360.955,361.468,0,0,left,361.471,361.474,,0,,1,361.474,361.474,361.475,362.969,0,33,33,33,1,0.2,0.8,0.4,0.6,,,,,,,,,,,,,,,0.001,,0.4,0.6,0.2,0.8,0.8,0.2,0.8,0.2,1,0,,,,,,,,,,,,
,,64b6b65f87a443a4963be23a,66fc97e3c1597bde9a128c4b,2024-10-02_02h51.39.104,mdp,2024.2.1,Win32,60.0240096,66fa4ebf79326e780c390304,,,,,,,,,,,,,,,,,,,,,362.97,362.97,362.972,365.47,1,0,right,1.971,,365.472,366.202,0,1,left,366.204,366.206,,0,,0,366.206,366.206,366.208,367.701,0,34,34,34,1,0.2,0.8,0.4,0.6,,,,,,,,,,,,,,,0.2,,0.4,0.6,0.2,0.8,0.8,0.2,0.8,0.2,1,0,,,,,,,,,,,,
,,64b6b65f87a443a4963be23a,66fc97e3c1597bde9a128c4b,2024-10-02_02h51.39.104,mdp,2024.2.1,Win32,60.0240096,66fa4ebf79326e780c390304,,,,,,,,,,,,,,,,,,,,,367.703,367.703,367.705,370.668,1,0,right,2.435,,370.67,371.252,0,1,left,371.253,371.255,,1,,0,371.255,371.255,371.258,372.756,0,35,35,35,1,0.2,0.8,0.4,0.6,,,,,,,,,,,,,,,0.052,,0.4,0.6,0.2,0.8,0.8,0.2,0.8,0.2,1,0,,,,,,,,,,,,
,,64b6b65f87a443a4963be23a,66fc97e3c1597bde9a128c4b,2024-10-02_02h51.39.104,mdp,2024.2.1,Win32,60.0240096,66fa4ebf79326e780c390304,,,,,,,,,,,,,,,,,,,,,372.76,372.76,372.765,373.669,0,1,left,0.383,,373.674,375.768,0,0,left,375.771,375.775,,1,,1,375.775,375.775,375.777,377.269,0,36,36,36,1,0.2,0.8,0.4,0.6,,,,,,,,,,,,,,,1.563,,0.4,0.6,0.2,0.8,0.8,0.2,0.8,0.2,1,0,,,,,,,,,,,,
,,64b6b65f87a443a4963be23a,66fc97e3c1597bde9a128c4b,2024-10-02_02h51.39.104,mdp,2024.2.1,Win32,60.0240096,66fa4ebf79326e780c390304,,,,,,,,,,,,,,,,,,,,,377.27,377.27,377.273,378.385,1,0,right,0.585,,378.387,379.036,1,1,right,379.039,379.041,,0,,0,379.041,379.041,379.044,380.534,0,37,37,37,1,0.2,0.8,0.4,0.6,,,,,,,,,,,,,,,0.115,,0.4,0.6,0.2,0.8,0.8,0.2,0.8,0.2,1,0,,,,,,,,,,,,
,,64b6b65f87a443a4963be23a,66fc97e3c1597bde9a128c4b,2024-10-02_02h51.39.104,mdp,2024.2.1,Win32,60.0240096,66fa4ebf79326e780c390304,,,,,,,,,,,,,,,,,,,,,380.536,380.536,380.539,382.134,0,1,left,1.088,,382.137,382.701,1,0,right,382.705,382.708,,0,,1,382.708,382.708,382.71,384.201,0,38,38,38,1,0.2,0.8,0.4,0.6,,,,,,,,,,,,,,,0.047,,0.4,0.6,0.2,0.8,0.8,0.2,0.8,0.2,1,0,,,,,,,,,,,,
,,64b6b65f87a443a4963be23a,66fc97e3c1597bde9a128c4b,2024-10-02_02h51.39.104,mdp,2024.2.1,Win32,60.0240096,66fa4ebf79326e780c390304,,,,,,,,,,,,,,,,,,,,,384.202,384.202,384.204,384.834,0,1,left,0.101,,384.837,386.067,0,0,left,386.07,386.072,,1,,1,386.072,386.072,386.075,387.567,0,39,39,39,1,0.2,0.8,0.4,0.6,,,,,,,,,,,,,,,0.714,,0.4,0.6,0.2,0.8,0.8,0.2,0.8,0.2,1,0,,,,,,,,,,,,
,,64b6b65f87a443a4963be23a,66fc97e3c1597bde9a128c4b,2024-10-02_02h51.39.104,mdp,2024.2.1,Win32,60.0240096,66fa4ebf79326e780c390304,,,,,,,,,,,,,,,,,,,,,387.568,387.568,387.571,388.234,0,1,left,0.133,,388.236,388.905,1,0,right,388.908,388.913,,0,,1,388.913,388.913,388.916,390.417,0,40,40,40,1,0.2,0.8,0.4,0.6,,,,,,,,,,,,,,,0.154,,0.4,0.6,0.2,0.8,0.8,0.2,0.8,0.2,1,0,,,,,,,,,,,,
,,64b6b65f87a443a4963be23a,66fc97e3c1597bde9a128c4b,2024-10-02_02h51.39.104,mdp,2024.2.1,Win32,60.0240096,66fa4ebf79326e780c390304,,,,,,,,,,,,,,,,,,,,,390.418,390.418,390.42,391.201,0,1,left,0.251,,391.203,393.683,1,0,right,393.685,393.688,,0,,1,393.688,393.688,393.69,395.183,0,41,41,41,1,0.2,0.8,0.4,0.6,,,,,,,,,,,,,,,1.95,,0.4,0.6,0.2,0.8,0.8,0.2,0.8,0.2,1,0,,,,,,,,,,,,
,,64b6b65f87a443a4963be23a,66fc97e3c1597bde9a128c4b,2024-10-02_02h51.39.104,mdp,2024.2.1,Win32,60.0240096,66fa4ebf79326e780c390304,,,,,,,,,,,,,,,,,,,,,395.184,395.184,395.186,395.9,1,1,right,0.186,,395.902,396.833,0,0,left,396.835,396.838,,0,,1,396.838,396.838,396.84,398.333,0,42,42,42,1,0.2,0.8,0.4,0.6,,,,,,,,,,,,,,,0.418,,0.4,0.6,0.2,0.8,0.8,0.2,0.8,0.2,1,0,,,,,,,,,,,,
,,64b6b65f87a443a4963be23a,66fc97e3c1597bde9a128c4b,2024-10-02_02h51.39.104,mdp,2024.2.1,Win32,60.0240096,66fa4ebf79326e780c390304,,,,,,,,,,,,,,,,,,,,,398.335,398.335,398.336,399.417,0,1,left,0.552,,399.419,400.3,1,0,right,400.302,400.304,,0,,1,400.304,400.304,400.306,401.804,0,43,43,43,1,0.2,0.8,0.4,0.6,,,,,,,,,,,,,,,0.35,,0.4,0.6,0.2,0.8,0.8,0.2,0.8,0.2,1,0,,,,,,,,,,,,
,,64b6b65f87a443a4963be23a,66fc97e3c1597bde9a128c4b,2024-10-02_02h51.39.104,mdp,2024.2.1,Win32,60.0240096,66fa4ebf79326e780c390304,,,,,,,,,,,,,,,,,,,,,401.805,401.806,401.809,402.883,1,1,right,0.56,,402.885,406.17,0,1,left,406.179,406.186,,0,,0,406.186,406.186,406.189,407.686,0,44,44,44,1,0.2,0.8,0.4,0.6,,,,,,,,,,,,,,,2.772,,0.4,0.6,0.2,0.8,0.8,0.2,0.8,0.2,1,0,,,,,,,,,,,,
,,64b6b65f87a443a4963be23a,66fc97e3c1597bde9a128c4b,2024-10-02_02h51.39.104,mdp,2024.2.1,Win32,60.0240096,66fa4ebf79326e780c390304,,,,,,,,,,,,,,,,,,,,,407.69,407.69,407.692,408.45,0,1,left,0.236,,408.458,409.05,1,0,right,409.053,409.056,,0,,1,409.056,409.056,409.06,410.55,0,45,45,45,1,0.2,0.8,0.4,0.6,,,,,,,,,,,,,,,0.067,,0.4,0.6,0.2,0.8,0.8,0.2,0.8,0.2,1,0,,,,,,,,,,,,
,,64b6b65f87a443a4963be23a,66fc97e3c1597bde9a128c4b,2024-10-02_02h51.39.104,mdp,2024.2.1,Win32,60.0240096,66fa4ebf79326e780c390304,,,,,,,,,,,,,,,,,,,,,410.551,410.551,410.553,411.488,1,0,right,0.402,,411.49,413.467,0,0,left,413.471,413.474,,0,,1,413.474,413.474,413.476,414.966,0,46,46,46,1,0.2,0.8,0.4,0.6,,,,,,,,,,,,,,,1.443,,0.4,0.6,0.2,0.8,0.8,0.2,0.8,0.2,1,0,,,,,,,,,,,,
,,64b6b65f87a443a4963be23a,66fc97e3c1597bde9a128c4b,2024-10-02_02h51.39.104,mdp,2024.2.1,Win32,60.0240096,66fa4ebf79326e780c390304,,,,,,,,,,,,,,,,,,,,,414.967,414.967,414.97,416.651,1,1,right,1.152,,416.654,418.232,1,0,right,418.234,418.237,,0,,1,418.237,418.237,418.239,419.732,0,47,47,47,1,0.2,0.8,0.4,0.6,,,,,,,,,,,,,,,1.052,,0.4,0.6,0.2,0.8,0.8,0.2,0.8,0.2,1,0,,,,,,,,,,,,
,,64b6b65f87a443a4963be23a,66fc97e3c1597bde9a128c4b,2024-10-02_02h51.39.104,mdp,2024.2.1,Win32,60.0240096,66fa4ebf79326e780c390304,,,,,,,,,,,,,,,,,,,,,419.733,419.733,419.735,420.965,1,1,right,0.701,,420.967,422.465,1,0,right,422.468,422.471,,0,,1,422.471,422.471,422.472,423.965,0,48,48,48,1,0.2,0.8,0.4,0.6,,,,,,,,,,,,,,,0.986,,0.4,0.6,0.2,0.8,0.8,0.2,0.8,0.2,1,0,,,,,,,,,,,,
,,64b6b65f87a443a4963be23a,66fc97e3c1597bde9a128c4b,2024-10-02_02h51.39.104,mdp,2024.2.1,Win32,60.0240096,66fa4ebf79326e780c390304,,,,,,,,,,,,,,,,,,,,,423.966,423.966,423.967,424.933,1,1,right,0.436,,424.934,426.231,1,0,right,426.234,426.236,,1,,1,426.236,426.236,426.237,427.731,0,49,49,49,1,0.2,0.8,0.4,0.6,,,,,,,,,,,,,,,0.767,,0.4,0.6,0.2,0.8,0.8,0.2,0.8,0.2,1,0,,,,,,,,,,,,
,,64b6b65f87a443a4963be23a,66fc97e3c1597bde9a128c4b,2024-10-02_02h51.39.104,mdp,2024.2.1,Win32,60.0240096,66fa4ebf79326e780c390304,,,,,,,,,,,,,,,,,,,,,,,,,,,,,,,,,,,,,,,,,,,,,,,,,,,,,,,,427.732,486.246,0,1,1,5,1,imgs/elephant.png,imgs/dog.png,imgs/squirrel.png,imgs/goat.png,imgs/lion.png,,,,,,,,,,,,,,,,,,,,,,,,
,,64b6b65f87a443a4963be23a,66fc97e3c1597bde9a128c4b,2024-10-02_02h51.39.104,mdp,2024.2.1,Win32,60.0240096,66fa4ebf79326e780c390304,,,,,,,,,,,,,,3,seqs/st3seq10.csv,486.258,524.662,space,37.882,,524.679,524.679,524.687,527.744,1,1,right,2.52,,527.748,529.659,1,1,right,529.661,531.809,1,0,right,1,531.809,531.809,531.812,533.309,0,0,0,0,1,0.8,0.2,0.4,0.6,,,,,,,,,,,,,,,1.364,,0.8,0.2,0.2,0.8,0.4,0.6,0.4,0.6,,,1.62,,0.6,0.4,0.2,0.8,0.4,0.6,0.8,0.2,1,0
,,64b6b65f87a443a4963be23a,66fc97e3c1597bde9a128c4b,2024-10-02_02h51.39.104,mdp,2024.2.1,Win32,60.0240096,66fa4ebf79326e780c390304,,,,,,,,,,,,,,,,,,,,,533.311,533.311,533.313,534.542,1,0,right,0.702,,534.545,536.476,1,1,right,536.479,537.926,1,0,right,1,537.926,537.926,537.928,539.426,0,1,1,1,1,0.8,0.2,0.4,0.6,,,,,,,,,,,,,,,1.389,,0.8,0.2,0.2,0.8,0.4,0.6,0.4,0.6,,,0.918,,0.6,0.4,0.2,0.8,0.4,0.6,0.8,0.2,1,0
,,64b6b65f87a443a4963be23a,66fc97e3c1597bde9a128c4b,2024-10-02_02h51.39.104,mdp,2024.2.1,Win32,60.0240096,66fa4ebf79326e780c390304,,,,,,,,,,,,,,,,,,,,,539.427,539.427,539.429,540.525,1,0,right,0.566,,540.529,541.892,1,1,right,541.894,543.059,1,1,right,0,543.059,543.059,543.062,544.558,0,2,2,2,1,0.8,0.2,0.4,0.6,,,,,,,,,,,,,,,0.851,,0.8,0.2,0.2,0.8,0.4,0.6,0.4,0.6,,,0.634,,0.6,0.4,0.2,0.8,0.4,0.6,0.8,0.2,1,0
,,64b6b65f87a443a4963be23a,66fc97e3c1597bde9a128c4b,2024-10-02_02h51.39.104,mdp,2024.2.1,Win32,60.0240096,66fa4ebf79326e780c390304,,,,,,,,,,,,,,,,,,,,,544.559,544.559,544.561,545.675,1,1,right,0.586,,545.678,547.094,1,0,right,547.103,548.325,1,1,right,0,548.325,548.325,548.328,549.825,0,3,3,3,1,0.8,0.2,0.4,0.6,,,,,,,,,,,,,,,0.899,,0.8,0.2,0.2,0.8,0.4,0.6,0.4,0.6,,,0.69,,0.6,0.4,0.2,0.8,0.4,0.6,0.8,0.2,1,0
,,64b6b65f87a443a4963be23a,66fc97e3c1597bde9a128c4b,2024-10-02_02h51.39.104,mdp,2024.2.1,Win32,60.0240096,66fa4ebf79326e780c390304,,,,,,,,,,,,,,,,,,,,,549.827,549.827,549.829,550.809,1,1,right,0.451,,550.811,552.979,0,1,left,552.983,555.642,0,1,left,0,555.642,555.642,555.644,557.141,0,4,4,4,1,0.8,0.2,0.4,0.6,,,,,,,,,,,,,,,1.636,,0.4,0.6,0.6,0.4,0.4,0.6,0.4,0.6,,,2.132,,0.6,0.4,0.2,0.8,0.4,0.6,0.8,0.2,1,0
,,64b6b65f87a443a4963be23a,66fc97e3c1597bde9a128c4b,2024-10-02_02h51.39.104,mdp,2024.2.1,Win32,60.0240096,66fa4ebf79326e780c390304,,,,,,,,,,,,,,,,,,,,,557.142,557.142,557.145,558.575,1,0,right,0.901,,558.578,560.259,0,0,left,560.261,561.841,1,1,right,0,561.841,561.841,561.843,563.341,0,5,5,5,1,0.8,0.2,0.4,0.6,,,,,,,,,,,,,,,1.146,,0.4,0.6,0.6,0.4,0.2,0.8,0.2,0.8,,,1.063,,0.6,0.4,0.2,0.8,0.4,0.6,0.8,0.2,1,0
,,64b6b65f87a443a4963be23a,66fc97e3c1597bde9a128c4b,2024-10-02_02h51.39.104,mdp,2024.2.1,Win32,60.0240096,66fa4ebf79326e780c390304,,,,,,,,,,,,,,,,,,,,,563.342,563.342,563.345,564.424,0,0,left,0.552,,564.427,565.458,0,0,left,565.46,566.525,0,1,left,0,566.525,566.525,566.528,568.024,0,6,6,6,1,0.8,0.2,0.4,0.6,,,,,,,,,,,,,,,0.517,,0.4,0.6,0.6,0.4,0.2,0.8,0.2,0.8,,,0.537,,0.6,0.4,0.2,0.8,0.4,0.6,0.8,0.2,1,0
,,64b6b65f87a443a4963be23a,66fc97e3c1597bde9a128c4b,2024-10-02_02h51.39.104,mdp,2024.2.1,Win32,60.0240096,66fa4ebf79326e780c390304,,,,,,,,,,,,,,,,,,,,,568.025,568.025,568.027,568.974,0,0,left,0.418,,568.976,570.174,1,1,right,570.176,571.79,1,0,right,1,571.79,571.79,571.792,573.29,0,7,7,7,1,0.8,0.2,0.4,0.6,,,,,,,,,,,,,,,0.669,,0.4,0.6,0.6,0.4,0.2,0.8,0.2,0.8,,,1.08,,0.6,0.4,0.2,0.8,0.2,0.8,0.4,0.6,1,0
,,64b6b65f87a443a4963be23a,66fc97e3c1597bde9a128c4b,2024-10-02_02h51.39.104,mdp,2024.2.1,Win32,60.0240096,66fa4ebf79326e780c390304,,,,,,,,,,,,,,,,,,,,,573.291,573.291,573.294,574.607,1,0,right,0.784,,574.609,575.906,1,0,right,575.909,577.927,0,0,left,1,577.928,577.928,577.936,579.423,0,8,8,8,1,0.8,0.2,0.4,0.6,,,,,,,,,,,,,,,0.768,,0.4,0.6,0.6,0.4,0.2,0.8,0.2,0.8,,,1.499,,0.6,0.4,0.2,0.8,0.2,0.8,0.4,0.6,1,0
,,64b6b65f87a443a4963be23a,66fc97e3c1597bde9a128c4b,2024-10-02_02h51.39.104,mdp,2024.2.1,Win32,60.0240096,66fa4ebf79326e780c390304,,,,,,,,,,,,,,,,,,,,,579.426,579.426,579.429,580.958,1,0,right,1.004,,580.96,582.407,0,1,left,582.409,584.04,0,1,left,0,584.04,584.04,584.042,585.54,0,9,9,9,1,0.8,0.2,0.4,0.6,,,,,,,,,,,,,,,0.918,,0.4,0.6,0.6,0.4,0.2,0.8,0.2,0.8,,,1.099,,0.6,0.4,0.2,0.8,0.2,0.8,0.4,0.6,1,0
,,64b6b65f87a443a4963be23a,66fc97e3c1597bde9a128c4b,2024-10-02_02h51.39.104,mdp,2024.2.1,Win32,60.0240096,66fa4ebf79326e780c390304,,,,,,,,,,,,,,,,,,,,,585.541,585.541,585.543,587.056,1,0,right,0.987,,587.059,588.406,0,0,left,588.408,590.04,1,1,right,0,590.04,590.04,590.043,591.539,0,10,10,10,1,0.8,0.2,0.4,0.6,,,,,,,,,,,,,,,0.815,,0.4,0.6,0.6,0.4,0.2,0.8,0.2,0.8,,,1.112,,0.6,0.4,0.2,0.8,0.2,0.8,0.4,0.6,1,0
,,64b6b65f87a443a4963be23a,66fc97e3c1597bde9a128c4b,2024-10-02_02h51.39.104,mdp,2024.2.1,Win32,60.0240096,66fa4ebf79326e780c390304,,,,,,,,,,,,,,,,,,,,,591.541,591.541,591.543,593.373,1,0,right,1.302,,593.375,595.656,0,1,left,595.659,597.206,1,0,right,1,597.206,597.206,597.208,598.705,0,11,11,11,1,0.8,0.2,0.4,0.6,,,,,,,,,,,,,,,1.753,,0.4,0.6,0.6,0.4,0.2,0.8,0.2,0.8,,,1.014,,0.6,0.4,0.2,0.8,0.2,0.8,0.4,0.6,1,0
,,64b6b65f87a443a4963be23a,66fc97e3c1597bde9a128c4b,2024-10-02_02h51.39.104,mdp,2024.2.1,Win32,60.0240096,66fa4ebf79326e780c390304,,,,,,,,,,,,,,,,,,,,,598.707,598.707,598.709,602.189,1,1,right,2.951,,602.191,604.156,1,0,right,604.159,605.439,1,0,right,1,605.439,605.439,605.441,606.939,0,12,12,12,1,0.8,0.2,0.4,0.6,,,,,,,,,,,,,,,1.433,,0.4,0.6,0.6,0.4,0.2,0.8,0.2,0.8,,,0.749,,0.2,0.8,0.6,0.4,0.2,0.8,0.4,0.6,1,0
,,64b6b65f87a443a4963be23a,66fc97e3c1597bde9a128c4b,2024-10-02_02h51.39.104,mdp,2024.2.1,Win32,60.0240096,66fa4ebf79326e780c390304,,,,,,,,,,,,,,,,,,,,,606.939,606.939,606.941,608.372,1,1,right,0.902,,608.373,610.022,1,1,right,610.024,612.055,1,1,right,0,612.055,612.055,612.057,613.554,0,13,13,13,1,0.8,0.2,0.4,0.6,,,,,,,,,,,,,,,1.136,,0.4,0.6,0.6,0.4,0.2,0.8,0.2,0.8,,,1.499,,0.2,0.8,0.6,0.4,0.2,0.8,0.4,0.6,1,0
,,64b6b65f87a443a4963be23a,66fc97e3c1597bde9a128c4b,2024-10-02_02h51.39.104,mdp,2024.2.1,Win32,60.0240096,66fa4ebf79326e780c390304,,,,,,,,,,,,,,,,,,,,,613.556,613.556,613.558,614.689,1,0,right,0.602,,614.701,616.38,0,0,left,616.384,618.174,1,0,right,1,618.174,618.174,618.177,619.676,0,14,14,14,1,0.8,0.2,0.4,0.6,,,,,,,,,,,,,,,1.157,,0.8,0.2,0.8,0.2,0.2,0.8,0.2,0.8,,,1.25,,0.2,0.8,0.6,0.4,0.2,0.8,0.4,0.6,1,0
,,64b6b65f87a443a4963be23a,66fc97e3c1597bde9a128c4b,2024-10-02_02h51.39.104,mdp,2024.2.1,Win32,60.0240096,66fa4ebf79326e780c390304,,,,,,,,,,,,,,,,,,,,,619.679,619.679,619.681,620.739,1,0,right,0.533,,620.742,622.421,0,0,left,622.423,623.771,1,0,right,1,623.771,623.771,623.773,625.271,0,15,15,15,1,0.8,0.2,0.4,0.6,,,,,,,,,,,,,,,1.151,,0.8,0.2,0.8,0.2,0.2,0.8,0.2,0.8,,,0.833,,0.2,0.8,0.6,0.4,0.2,0.8,0.4,0.6,1,0
,,64b6b65f87a443a4963be23a,66fc97e3c1597bde9a128c4b,2024-10-02_02h51.39.104,mdp,2024.2.1,Win32,60.0240096,66fa4ebf79326e780c390304,,,,,,,,,,,,,,,,,,,,,625.273,625.274,625.276,626.42,1,0,right,0.617,,626.423,628.272,0,0,left,628.274,630.237,1,0,right,1,630.237,630.237,630.241,631.737,0,16,16,16,1,0.8,0.2,0.4,0.6,,,,,,,,,,,,,,,1.318,,0.8,0.2,0.8,0.2,0.2,0.8,0.2,0.8,,,1.433,,0.2,0.8,0.6,0.4,0.2,0.8,0.4,0.6,1,0
,,64b6b65f87a443a4963be23a,66fc97e3c1597bde9a128c4b,2024-10-02_02h51.39.104,mdp,2024.2.1,Win32,60.0240096,66fa4ebf79326e780c390304,,,,,,,,,,,,,,,,,,,,,631.739,631.739,631.74,634.741,1,0,right,2.473,,634.741,636.203,0,0,left,636.205,637.437,1,0,right,1,637.437,637.437,637.439,638.936,0,17,17,17,1,0.8,0.2,0.4,0.6,,,,,,,,,,,,,,,0.934,,0.8,0.2,0.8,0.2,0.2,0.8,0.2,0.8,,,0.717,,0.2,0.8,0.6,0.4,0.2,0.8,0.4,0.6,1,0
,,64b6b65f87a443a4963be23a,66fc97e3c1597bde9a128c4b,2024-10-02_02h51.39.104,mdp,2024.2.1,Win32,60.0240096,66fa4ebf79326e780c390304,,,,,,,,,,,,,,,,,,,,,638.938,638.938,638.942,640.138,1,1,right,0.669,,640.14,641.67,1,1,right,641.672,643.586,0,1,left,0,643.587,643.587,643.589,645.086,0,18,18,18,1,0.8,0.2,0.4,0.6,,,,,,,,,,,,,,,0.997,,0.8,0.2,0.8,0.2,0.2,0.8,0.2,0.8,,,1.398,,0.2,0.8,0.6,0.4,0.2,0.8,0.4,0.6,1,0
,,64b6b65f87a443a4963be23a,66fc97e3c1597bde9a128c4b,2024-10-02_02h51.39.104,mdp,2024.2.1,Win32,60.0240096,66fa4ebf79326e780c390304,,,,,,,,,,,,,,,,,,,,,645.088,645.088,645.09,646.655,1,0,right,1.035,,646.664,647.936,0,0,left,647.94,649.336,1,0,right,1,649.336,649.337,649.34,650.841,0,19,19,19,1,0.8,0.2,0.4,0.6,,,,,,,,,,,,,,,0.746,,0.8,0.2,0.8,0.2,0.2,0.8,0.2,0.8,,,0.863,,0.2,0.8,0.6,0.4,0.2,0.8,0.4,0.6,1,0
,,64b6b65f87a443a4963be23a,66fc97e3c1597bde9a128c4b,2024-10-02_02h51.39.104,mdp,2024.2.1,Win32,60.0240096,66fa4ebf79326e780c390304,,,,,,,,,,,,,,,,,,,,,650.844,650.844,650.845,653.758,1,0,right,2.389,,653.76,655.222,0,1,left,655.225,657.335,0,1,left,0,657.337,657.337,657.339,658.836,0,20,20,20,1,0.8,0.2,0.4,0.6,,,,,,,,,,,,,,,0.938,,0.8,0.2,0.8,0.2,0.2,0.8,0.2,0.8,,,1.568,,0.4,0.6,0.8,0.2,0.2,0.8,0.4,0.6,1,0
,,64b6b65f87a443a4963be23a,66fc97e3c1597bde9a128c4b,2024-10-02_02h51.39.104,mdp,2024.2.1,Win32,60.0240096,66fa4ebf79326e780c390304,,,,,,,,,,,,,,,,,,,,,658.836,658.836,658.839,663.835,1,1,right,4.486,,663.838,665.102,1,0,right,665.104,666.335,1,1,right,0,666.335,666.335,666.339,667.835,0,21,21,21,1,0.8,0.2,0.4,0.6,,,,,,,,,,,,,,,0.75,,0.8,0.2,0.8,0.2,0.2,0.8,0.2,0.8,,,0.699,,0.4,0.6,0.8,0.2,0.2,0.8,0.4,0.6,1,0
,,64b6b65f87a443a4963be23a,66fc97e3c1597bde9a128c4b,2024-10-02_02h51.39.104,mdp,2024.2.1,Win32,60.0240096,66fa4ebf79326e780c390304,,,,,,,,,,,,,,,,,,,,,667.836,667.836,667.838,668.685,1,1,right,0.319,,668.687,669.819,1,1,right,669.821,671.202,0,1,left,0,671.202,671.202,671.204,672.701,0,22,22,22,1,0.8,0.2,0.4,0.6,,,,,,,,,,,,,,,0.601,,0.2,0.8,0.6,0.4,0.2,0.8,0.2,0.8,,,0.849,,0.4,0.6,0.8,0.2,0.2,0.8,0.4,0.6,1,0
,,64b6b65f87a443a4963be23a,66fc97e3c1597bde9a128c4b,2024-10-02_02h51.39.104,mdp,2024.2.1,Win32,60.0240096,66fa4ebf79326e780c390304,,,,,,,,,,,,,,,,,,,,,672.702,672.702,672.704,673.551,1,0,right,0.317,,673.553,674.768,0,1,left,674.77,676.071,1,1,right,0,676.071,676.071,676.073,677.569,0,23,23,23,1,0.8,0.2,0.4,0.6,,,,,,,,,,,,,,,0.7,,0.2,0.8,0.6,0.4,0.2,0.8,0.2,0.8,,,0.785,,0.4,0.6,0.8,0.2,0.2,0.8,0.4,0.6,1,0
,,64b6b65f87a443a4963be23a,66fc97e3c1597bde9a128c4b,2024-10-02_02h51.39.104,mdp,2024.2.1,Win32,60.0240096,66fa4ebf79326e780c390304,,,,,,,,,,,,,,,,,,,,,677.575,677.575,677.581,678.419,1,0,right,0.317,,678.422,679.052,1,0,right,679.059,679.636,0,1,left,0,679.636,679.636,679.639,681.134,0,24,24,24,1,0.8,0.2,0.4,0.6,,,,,,,,,,,,,,,0.102,,0.2,0.8,0.6,0.4,0.2,0.8,0.2,0.8,,,0.048,,0.4,0.6,0.8,0.2,0.2,0.8,0.4,0.6,1,0
,,64b6b65f87a443a4963be23a,66fc97e3c1597bde9a128c4b,2024-10-02_02h51.39.104,mdp,2024.2.1,Win32,60.0240096,66fa4ebf79326e780c390304,,,,,,,,,,,,,,,,,,,,,681.136,681.136,681.139,681.784,1,1,right,0.117,,681.787,682.401,0,1,left,682.404,683.102,0,1,left,0,683.102,683.102,683.105,684.601,0,25,25,25,1,0.8,0.2,0.4,0.6,,,,,,,,,,,,,,,0.097,,0.2,0.8,0.6,0.4,0.2,0.8,0.2,0.8,,,0.166,,0.4,0.6,0.8,0.2,0.2,0.8,0.4,0.6,1,0
,,64b6b65f87a443a4963be23a,66fc97e3c1597bde9a128c4b,2024-10-02_02h51.39.104,mdp,2024.2.1,Win32,60.0240096,66fa4ebf79326e780c390304,,,,,,,,,,,,,,,,,,,,,684.603,684.603,684.605,685.184,0,0,left,0.069,,685.187,685.969,0,1,left,685.973,686.586,1,1,right,0,686.586,686.586,686.588,688.084,0,26,26,26,1,0.8,0.2,0.4,0.6,,,,,,,,,,,,,,,0.252,,0.2,0.8,0.6,0.4,0.2,0.8,0.2,0.8,,,0.087,,0.4,0.6,0.8,0.2,0.2,0.8,0.4,0.6,1,0
,,64b6b65f87a443a4963be23a,66fc97e3c1597bde9a128c4b,2024-10-02_02h51.39.104,mdp,2024.2.1,Win32,60.0240096,66fa4ebf79326e780c390304,,,,,,,,,,,,,,,,,,,,,688.085,688.085,688.086,689.8,1,0,right,1.183,,689.802,690.417,1,0,right,690.419,691.934,1,1,right,0,691.934,691.934,691.937,693.439,0,27,27,27,1,0.8,0.2,0.4,0.6,,,,,,,,,,,,,,,0.101,,0.2,0.8,0.6,0.4,0.2,0.8,0.2,0.8,,,0.999,,0.4,0.6,0.8,0.2,0.2,0.8,0.4,0.6,1,0
,,64b6b65f87a443a4963be23a,66fc97e3c1597bde9a128c4b,2024-10-02_02h51.39.104,mdp,2024.2.1,Win32,60.0240096,66fa4ebf79326e780c390304,,,,,,,,,,,,,,,,,,,,,693.441,693.441,693.443,695.05,1,1,right,1.082,,695.052,696.369,0,1,left,696.373,697.334,1,1,right,0,697.334,697.334,697.335,698.833,0,28,28,28,1,0.8,0.2,0.4,0.6,,,,,,,,,,,,,,,0.798,,0.2,0.8,0.6,0.4,0.2,0.8,0.2,0.8,,,0.432,,0.4,0.6,0.8,0.2,0.2,0.8,0.4,0.6,1,0
,,64b6b65f87a443a4963be23a,66fc97e3c1597bde9a128c4b,2024-10-02_02h51.39.104,mdp,2024.2.1,Win32,60.0240096,66fa4ebf79326e780c390304,,,,,,,,,,,,,,,,,,,,,698.834,698.834,698.837,699.5,0,0,left,0.135,,699.502,700.45,1,1,right,700.452,701.235,0,0,left,1,701.236,701.236,701.238,702.734,0,29,29,29,1,0.8,0.2,0.4,0.6,,,,,,,,,,,,,,,0.435,,0.2,0.8,0.6,0.4,0.2,0.8,0.2,0.8,,,0.272,,0.4,0.6,0.8,0.2,0.2,0.8,0.4,0.6,1,0
,,64b6b65f87a443a4963be23a,66fc97e3c1597bde9a128c4b,2024-10-02_02h51.39.104,mdp,2024.2.1,Win32,60.0240096,66fa4ebf79326e780c390304,,,,,,,,,,,,,,,,,,,,,702.734,702.734,702.736,704.017,1,0,right,0.751,,704.019,705.984,1,1,right,705.986,707.283,0,1,left,0,707.283,707.283,707.285,708.785,0,30,30,30,1,0.8,0.2,0.4,0.6,,,,,,,,,,,,,,,1.436,,0.2,0.8,0.6,0.4,0.2,0.8,0.2,0.8,,,0.768,,0.4,0.6,0.8,0.2,0.2,0.8,0.4,0.6,1,0
,,64b6b65f87a443a4963be23a,66fc97e3c1597bde9a128c4b,2024-10-02_02h51.39.104,mdp,2024.2.1,Win32,60.0240096,66fa4ebf79326e780c390304,,,,,,,,,,,,,,,,,,,,,708.789,708.789,708.795,709.434,0,0,left,0.117,,709.437,710.033,0,1,left,710.036,710.583,0,0,left,1,710.583,710.583,710.585,712.083,0,31,31,31,1,0.8,0.2,0.4,0.6,,,,,,,,,,,,,,,0.066,,0.2,0.8,0.6,0.4,0.2,0.8,0.2,0.8,,,0.034,,0.6,0.4,0.2,0.8,0.2,0.8,0.4,0.6,1,0
,,64b6b65f87a443a4963be23a,66fc97e3c1597bde9a128c4b,2024-10-02_02h51.39.104,mdp,2024.2.1,Win32,60.0240096,66fa4ebf79326e780c390304,,,,,,,,,,,,,,,,,,,,,712.083,712.084,712.086,713.634,1,1,right,1.019,,713.637,714.75,0,1,left,714.752,715.918,0,0,left,1,715.918,715.918,715.92,717.416,0,32,32,32,1,0.8,0.2,0.4,0.6,,,,,,,,,,,,,,,0.583,,0.2,0.8,0.6,0.4,0.2,0.8,0.2,0.8,,,0.634,,0.6,0.4,0.2,0.8,0.2,0.8,0.4,0.6,1,0
,,64b6b65f87a443a4963be23a,66fc97e3c1597bde9a128c4b,2024-10-02_02h51.39.104,mdp,2024.2.1,Win32,60.0240096,66fa4ebf79326e780c390304,,,,,,,,,,,,,,,,,,,,,717.418,717.418,717.42,718.549,0,0,left,0.6,,718.552,719.482,0,1,left,719.486,720.033,1,0,right,1,720.034,720.034,720.036,721.532,0,33,33,33,1,0.8,0.2,0.4,0.6,,,,,,,,,,,,,,,0.398,,0.2,0.8,0.6,0.4,0.2,0.8,0.2,0.8,,,0.035,,0.6,0.4,0.2,0.8,0.2,0.8,0.4,0.6,1,0
,,64b6b65f87a443a4963be23a,66fc97e3c1597bde9a128c4b,2024-10-02_02h51.39.104,mdp,2024.2.1,Win32,60.0240096,66fa4ebf79326e780c390304,,,,,,,,,,,,,,,,,,,,,721.533,721.534,721.535,722.115,0,0,left,0.052,,722.118,722.706,0,1,left,722.708,723.548,1,1,right,0,723.548,723.548,723.55,725.049,0,34,34,34,1,0.8,0.2,0.4,0.6,,,,,,,,,,,,,,,0.075,,0.2,0.8,0.6,0.4,0.2,0.8,0.2,0.8,,,0.316,,0.6,0.4,0.2,0.8,0.2,0.8,0.4,0.6,1,0
,,64b6b65f87a443a4963be23a,66fc97e3c1597bde9a128c4b,2024-10-02_02h51.39.104,mdp,2024.2.1,Win32,60.0240096,66fa4ebf79326e780c390304,,,,,,,,,,,,,,,,,,,,,725.05,725.05,725.052,726.382,1,0,right,0.8,,726.383,727.066,1,0,right,727.068,728.365,1,1,right,0,728.365,728.365,728.367,729.865,0,35,35,35,1,0.8,0.2,0.4,0.6,,,,,,,,,,,,,,,0.168,,0.2,0.8,0.6,0.4,0.2,0.8,0.2,0.8,,,0.767,,0.6,0.4,0.2,0.8,0.2,0.8,0.4,0.6,1,0
,,64b6b65f87a443a4963be23a,66fc97e3c1597bde9a128c4b,2024-10-02_02h51.39.104,mdp,2024.2.1,Win32,60.0240096,66fa4ebf79326e780c390304,,,,,,,,,,,,,,,,,,,,,729.866,729.867,729.869,734.632,0,0,left,4.234,,734.633,735.882,0,1,left,735.884,736.684,1,0,right,1,736.684,736.684,736.688,738.181,0,36,36,36,1,0.8,0.2,0.4,0.6,,,,,,,,,,,,,,,0.735,,0.2,0.8,0.6,0.4,0.2,0.8,0.2,0.8,,,0.252,,0.6,0.4,0.2,0.8,0.2,0.8,0.4,0.6,1,0
,,64b6b65f87a443a4963be23a,66fc97e3c1597bde9a128c4b,2024-10-02_02h51.39.104,mdp,2024.2.1,Win32,60.0240096,66fa4ebf79326e780c390304,,,,,,,,,,,,,,,,,,,,,738.182,738.182,738.185,738.884,0,1,left,0.171,,738.887,739.619,1,1,right,739.631,740.65,1,1,right,0,740.65,740.65,740.654,742.148,0,37,37,37,1,0.2,0.8,0.8,0.2,,,,,,,,,,,,,,,0.205,,0.2,0.8,0.6,0.4,0.2,0.8,0.2,0.8,,,0.501,,0.6,0.4,0.2,0.8,0.2,0.8,0.4,0.6,1,0
,,64b6b65f87a443a4963be23a,66fc97e3c1597bde9a128c4b,2024-10-02_02h51.39.104,mdp,2024.2.1,Win32,60.0240096,66fa4ebf79326e780c390304,,,,,,,,,,,,,,,,,,,,,742.15,742.15,742.153,742.751,1,0,right,0.067,,742.754,744.481,1,0,right,744.483,746.685,1,1,right,0,746.685,746.685,746.687,748.181,0,38,38,38,1,0.2,0.8,0.8,0.2,,,,,,,,,,,,,,,1.201,,0.2,0.8,0.6,0.4,0.2,0.8,0.2,0.8,,,1.681,,0.6,0.4,0.2,0.8,0.2,0.8,0.4,0.6,1,0
,,64b6b65f87a443a4963be23a,66fc97e3c1597bde9a128c4b,2024-10-02_02h51.39.104,mdp,2024.2.1,Win32,60.0240096,66fa4ebf79326e780c390304,,,,,,,,,,,,,,,,,,,,,748.182,748.182,748.185,753.548,0,1,left,4.835,,753.55,754.414,0,1,left,754.417,760.663,1,1,right,0,760.664,760.664,760.666,762.164,0,39,39,39,1,0.2,0.8,0.8,0.2,,,,,,,,,,,,,,,0.331,,0.2,0.8,0.6,0.4,0.2,0.8,0.2,0.8,,,5.715,,0.6,0.4,0.2,0.8,0.2,0.8,0.4,0.6,1,0
,,64b6b65f87a443a4963be23a,66fc97e3c1597bde9a128c4b,2024-10-02_02h51.39.104,mdp,2024.2.1,Win32,60.0240096,66fa4ebf79326e780c390304,,,,,,,,,,,,,,,,,,,,,762.165,762.165,762.168,762.78,0,0,left,0.083,,762.783,763.68,1,1,right,763.682,767.647,1,1,right,0,767.647,767.648,767.65,769.147,0,40,40,40,1,0.2,0.8,0.8,0.2,,,,,,,,,,,,,,,0.382,,0.2,0.8,0.6,0.4,0.2,0.8,0.2,0.8,,,3.451,,0.6,0.4,0.2,0.8,0.2,0.8,0.4,0.6,1,0
,,64b6b65f87a443a4963be23a,66fc97e3c1597bde9a128c4b,2024-10-02_02h51.39.104,mdp,2024.2.1,Win32,60.0240096,66fa4ebf79326e780c390304,,,,,,,,,,,,,,,,,,,,,769.148,769.149,769.15,769.83,0,1,left,0.15,,769.832,777.432,0,1,left,777.442,777.995,0,1,left,0,777.996,777.996,777.998,779.496,0,41,41,41,1,0.2,0.8,0.8,0.2,,,,,,,,,,,,,,,7.065,,0.8,0.2,0.2,0.8,0.2,0.8,0.2,0.8,,,0.033,,0.6,0.4,0.2,0.8,0.2,0.8,0.4,0.6,1,0
,,64b6b65f87a443a4963be23a,66fc97e3c1597bde9a128c4b,2024-10-02_02h51.39.104,mdp,2024.2.1,Win32,60.0240096,66fa4ebf79326e780c390304,,,,,,,,,,,,,,,,,,,,,779.497,779.497,779.5,781.313,0,1,left,1.285,,781.315,783.512,1,0,right,783.515,790.213,1,0,right,1,790.213,790.213,790.216,791.712,0,42,42,42,1,0.2,0.8,0.8,0.2,,,,,,,,,,,,,,,1.683,,0.8,0.2,0.2,0.8,0.2,0.8,0.2,0.8,,,6.18,,0.6,0.4,0.2,0.8,0.2,0.8,0.4,0.6,1,0
,,64b6b65f87a443a4963be23a,66fc97e3c1597bde9a128c4b,2024-10-02_02h51.39.104,mdp,2024.2.1,Win32,60.0240096,66fa4ebf79326e780c390304,,,,,,,,,,,,,,,,,,,,,791.713,791.713,791.716,792.812,0,1,left,0.568,,792.814,794.612,1,1,right,794.616,795.829,0,1,left,0,795.829,795.829,795.831,797.329,0,43,43,43,1,0.2,0.8,0.8,0.2,,,,,,,,,,,,,,,1.266,,0.8,0.2,0.2,0.8,0.2,0.8,0.2,0.8,,,0.68,,0.6,0.4,0.2,0.8,0.2,0.8,0.4,0.6,1,0
,,64b6b65f87a443a4963be23a,66fc97e3c1597bde9a128c4b,2024-10-02_02h51.39.104,mdp,2024.2.1,Win32,60.0240096,66fa4ebf79326e780c390304,,,,,,,,,,,,,,,,,,,,,797.33,797.33,797.332,802.061,1,1,right,4.202,,802.064,803.145,0,0,left,803.147,803.711,1,0,right,1,803.711,803.711,803.713,805.211,0,44,44,44,1,0.8,0.2,0.2,0.8,,,,,,,,,,,,,,,0.567,,0.8,0.2,0.2,0.8,0.2,0.8,0.2,0.8,,,0.028,,0.6,0.4,0.2,0.8,0.2,0.8,0.4,0.6,1,0
,,64b6b65f87a443a4963be23a,66fc97e3c1597bde9a128c4b,2024-10-02_02h51.39.104,mdp,2024.2.1,Win32,60.0240096,66fa4ebf79326e780c390304,,,,,,,,,,,,,,,,,,,,,805.212,805.212,805.214,806.628,1,1,right,0.886,,806.631,807.728,1,1,right,807.73,808.949,0,1,left,0,808.949,808.949,808.956,810.444,0,45,45,45,1,0.8,0.2,0.2,0.8,,,,,,,,,,,,,,,0.566,,0.8,0.2,0.2,0.8,0.2,0.8,0.2,0.8,,,0.696,,0.6,0.4,0.2,0.8,0.2,0.8,0.4,0.6,1,0
,,64b6b65f87a443a4963be23a,66fc97e3c1597bde9a128c4b,2024-10-02_02h51.39.104,mdp,2024.2.1,Win32,60.0240096,66fa4ebf79326e780c390304,,,,,,,,,,,,,,,,,,,,,810.448,810.448,810.452,811.361,1,1,right,0.384,,811.364,812.394,1,1,right,812.397,813.378,1,1,right,0,813.378,813.378,813.381,814.877,0,46,46,46,1,0.8,0.2,0.2,0.8,,,,,,,,,,,,,,,0.519,,0.8,0.2,0.2,0.8,0.2,0.8,0.2,0.8,,,0.468,,0.6,0.4,0.2,0.8,0.2,0.8,0.4,0.6,1,0
,,64b6b65f87a443a4963be23a,66fc97e3c1597bde9a128c4b,2024-10-02_02h51.39.104,mdp,2024.2.1,Win32,60.0240096,66fa4ebf79326e780c390304,,,,,,,,,,,,,,,,,,,,,814.879,814.879,814.881,815.76,1,0,right,0.35,,815.762,816.644,1,0,right,816.646,817.494,0,1,left,0,817.494,817.494,817.497,818.994,0,47,47,47,1,0.8,0.2,0.2,0.8,,,,,,,,,,,,,,,0.364,,0.8,0.2,0.2,0.8,0.2,0.8,0.2,0.8,,,0.331,,0.6,0.4,0.2,0.8,0.2,0.8,0.4,0.6,1,0
,,64b6b65f87a443a4963be23a,66fc97e3c1597bde9a128c4b,2024-10-02_02h51.39.104,mdp,2024.2.1,Win32,60.0240096,66fa4ebf79326e780c390304,,,,,,,,,,,,,,,,,,,,,818.995,818.995,818.997,819.693,1,1,right,0.168,,819.697,820.443,0,1,left,820.445,821.01,1,1,right,0,821.01,821.01,821.013,822.51,0,48,48,48,1,0.8,0.2,0.2,0.8,,,,,,,,,,,,,,,0.231,,0.8,0.2,0.2,0.8,0.2,0.8,0.2,0.8,,,0.03,,0.6,0.4,0.2,0.8,0.2,0.8,0.4,0.6,1,0
,,64b6b65f87a443a4963be23a,66fc97e3c1597bde9a128c4b,2024-10-02_02h51.39.104,mdp,2024.2.1,Win32,60.0240096,66fa4ebf79326e780c390304,,,,,,,,,,,,,,,,,,,,,822.51,822.511,822.513,823.327,1,1,right,0.284,,823.329,824.28,0,1,left,824.282,824.926,1,1,right,0,824.926,824.927,824.93,826.427,0,49,49,49,1,0.8,0.2,0.2,0.8,,,,,,,,,,,,,,,0.418,,0.8,0.2,0.2,0.8,0.2,0.8,0.2,0.8,,,0.118,,0.6,0.4,0.2,0.8,0.2,0.8,0.4,0.6,1,0
,,64b6b65f87a443a4963be23a,66fc97e3c1597bde9a128c4b,2024-10-02_02h51.39.104,mdp,2024.2.1,Win32,60.0240096,66fa4ebf79326e780c390304,,,,,,,,,,,,,,,,,,,,,,,,,,,,,,,,,,,,,,,,,,,,,,,,,,,,,,,,826.427,884.941,0,2,2,8,1,imgs/goat.png,imgs/lion.png,imgs/giraffe.png,imgs/dog.png,imgs/bear.png,,,,,,,,,,,,,,,,,,,,,,,,
,,64b6b65f87a443a4963be23a,66fc97e3c1597bde9a128c4b,2024-10-02_02h51.39.104,mdp,2024.2.1,Win32,60.0240096,66fa4ebf79326e780c390304,,,,,,,,,,,,,,3,seqs/st3seq36.csv,884.948,913.439,space,27.965,,913.46,913.46,913.467,915.339,1,0,right,1.347,,915.342,916.457,1,0,right,916.46,917.738,0,1,left,0,917.739,917.739,917.74,919.24,0,0,0,0,1,0.2,0.8,0.6,0.4,,,,,,,,,,,,,,,0.571,,0.4,0.6,0.6,0.4,0.8,0.2,0.8,0.2,,,0.739,,0.8,0.2,0.2,0.8,0.6,0.4,0.6,0.4,1,0
,,64b6b65f87a443a4963be23a,66fc97e3c1597bde9a128c4b,2024-10-02_02h51.39.104,mdp,2024.2.1,Win32,60.0240096,66fa4ebf79326e780c390304,,,,,,,,,,,,,,,,,,,,,919.247,919.247,919.252,919.824,1,0,right,0.051,,919.827,920.371,1,1,right,920.374,921.905,0,0,left,1,921.906,921.906,921.91,923.406,0,1,1,1,1,0.2,0.8,0.6,0.4,,,,,,,,,,,,,,,0.018,,0.4,0.6,0.6,0.4,0.8,0.2,0.8,0.2,,,1.013,,0.8,0.2,0.2,0.8,0.6,0.4,0.6,0.4,1,0
,,64b6b65f87a443a4963be23a,66fc97e3c1597bde9a128c4b,2024-10-02_02h51.39.104,mdp,2024.2.1,Win32,60.0240096,66fa4ebf79326e780c390304,,,,,,,,,,,,,,,,,,,,,923.407,923.407,923.409,924.774,0,1,left,0.838,,924.777,926.038,1,0,right,926.042,928.192,1,1,right,0,928.192,928.192,928.193,929.689,0,2,2,2,1,0.2,0.8,0.6,0.4,,,,,,,,,,,,,,,0.716,,0.4,0.6,0.6,0.4,0.8,0.2,0.8,0.2,,,1.607,,0.8,0.2,0.2,0.8,0.6,0.4,0.6,0.4,1,0
,,64b6b65f87a443a4963be23a,66fc97e3c1597bde9a128c4b,2024-10-02_02h51.39.104,mdp,2024.2.1,Win32,60.0240096,66fa4ebf79326e780c390304,,,,,,,,,,,,,,,,,,,,,929.691,929.691,929.693,930.772,0,1,left,0.553,,930.774,932.005,1,0,right,932.008,933.777,0,0,left,1,933.777,933.778,933.781,935.271,0,3,3,3,1,0.2,0.8,0.6,0.4,,,,,,,,,,,,,,,0.702,,0.4,0.6,0.6,0.4,0.8,0.2,0.8,0.2,,,1.258,,0.8,0.2,0.2,0.8,0.6,0.4,0.6,0.4,1,0
,,64b6b65f87a443a4963be23a,66fc97e3c1597bde9a128c4b,2024-10-02_02h51.39.104,mdp,2024.2.1,Win32,60.0240096,66fa4ebf79326e780c390304,,,,,,,,,,,,,,,,,,,,,935.271,935.271,935.274,937.237,0,1,left,1.433,,937.24,939.437,1,0,right,939.439,941.937,0,0,left,1,941.937,941.938,941.94,943.436,0,4,4,4,1,0.2,0.8,0.6,0.4,,,,,,,,,,,,,,,1.685,,0.4,0.6,0.6,0.4,0.8,0.2,0.8,0.2,,,1.968,,0.8,0.2,0.2,0.8,0.6,0.4,0.6,0.4,1,0
,,64b6b65f87a443a4963be23a,66fc97e3c1597bde9a128c4b,2024-10-02_02h51.39.104,mdp,2024.2.1,Win32,60.0240096,66fa4ebf79326e780c390304,,,,,,,,,,,,,,,,,,,,,943.438,943.438,943.44,944.871,0,1,left,0.902,,944.872,958.239,1,0,right,958.248,959.053,0,1,left,0,959.053,959.053,959.056,960.553,0,5,5,5,1,0.8,0.2,0.4,0.6,,,,,,,,,,,,,,,12.837,,0.4,0.6,0.6,0.4,0.8,0.2,0.8,0.2,,,0.284,,0.8,0.2,0.2,0.8,0.6,0.4,0.6,0.4,1,0
,,64b6b65f87a443a4963be23a,66fc97e3c1597bde9a128c4b,2024-10-02_02h51.39.104,mdp,2024.2.1,Win32,60.0240096,66fa4ebf79326e780c390304,,,,,,,,,,,,,,,,,,,,,960.556,960.556,960.558,961.319,0,1,left,0.232,,961.322,961.852,1,1,right,961.854,962.653,1,0,right,1,962.653,962.653,962.654,964.153,0,6,6,6,1,0.8,0.2,0.4,0.6,,,,,,,,,,,,,,,0.001,,0.4,0.6,0.6,0.4,0.8,0.2,0.8,0.2,,,0.28,,0.8,0.2,0.2,0.8,0.6,0.4,0.6,0.4,1,0
,,64b6b65f87a443a4963be23a,66fc97e3c1597bde9a128c4b,2024-10-02_02h51.39.104,mdp,2024.2.1,Win32,60.0240096,66fa4ebf79326e780c390304,,,,,,,,,,,,,,,,,,,,,964.154,964.154,964.156,964.802,1,0,right,0.118,,964.805,965.386,0,1,left,965.389,966.069,1,1,right,0,966.069,966.069,966.071,967.569,0,7,7,7,1,0.8,0.2,0.4,0.6,,,,,,,,,,,,,,,0.067,,0.4,0.6,0.6,0.4,0.8,0.2,0.8,0.2,,,0.151,,0.8,0.2,0.2,0.8,0.6,0.4,0.6,0.4,1,0
,,64b6b65f87a443a4963be23a,66fc97e3c1597bde9a128c4b,2024-10-02_02h51.39.104,mdp,2024.2.1,Win32,60.0240096,66fa4ebf79326e780c390304,,,,,,,,,,,,,,,,,,,,,967.57,967.57,967.573,968.452,0,0,left,0.351,,968.454,970.769,0,0,left,970.772,971.485,0,1,left,0,971.486,971.486,971.489,972.985,0,8,8,8,1,0.8,0.2,0.4,0.6,,,,,,,,,,,,,,,1.803,,0.4,0.6,0.6,0.4,0.8,0.2,0.8,0.2,,,0.183,,0.8,0.2,0.2,0.8,0.6,0.4,0.6,0.4,1,0
,,64b6b65f87a443a4963be23a,66fc97e3c1597bde9a128c4b,2024-10-02_02h51.39.104,mdp,2024.2.1,Win32,60.0240096,66fa4ebf79326e780c390304,,,,,,,,,,,,,,,,,,,,,972.986,972.986,972.989,974.885,0,1,left,1.366,,974.887,975.599,0,0,left,975.602,980.706,0,0,left,1,980.707,980.707,980.718,982.202,0,9,9,9,1,0.8,0.2,0.4,0.6,,,,,,,,,,,,,,,0.179,,0.4,0.6,0.6,0.4,0.8,0.2,0.8,0.2,,,4.583,,0.8,0.2,0.2,0.8,0.6,0.4,0.6,0.4,1,0
,,64b6b65f87a443a4963be23a,66fc97e3c1597bde9a128c4b,2024-10-02_02h51.39.104,mdp,2024.2.1,Win32,60.0240096,66fa4ebf79326e780c390304,,,,,,,,,,,,,,,,,,,,,982.206,982.206,982.212,983.384,0,1,left,0.65,,983.388,984.502,0,1,left,984.505,990.352,0,1,left,0,990.352,990.352,990.355,991.851,0,10,10,10,1,0.8,0.2,0.4,0.6,,,,,,,,,,,,,,,0.603,,0.4,0.6,0.6,0.4,0.8,0.2,0.8,0.2,,,5.316,,0.8,0.2,0.2,0.8,0.6,0.4,0.6,0.4,1,0
,,64b6b65f87a443a4963be23a,66fc97e3c1597bde9a128c4b,2024-10-02_02h51.39.104,mdp,2024.2.1,Win32,60.0240096,66fa4ebf79326e780c390304,,,,,,,,,,,,,,,,,,,,,991.852,991.852,991.855,998.984,1,1,right,6.6,,998.987,999.584,0,1,left,999.587,1003.434,1,0,right,1,1003.434,1003.434,1003.438,1004.937,0,11,11,11,1,0.8,0.2,0.4,0.6,,,,,,,,,,,,,,,0.069,,0.4,0.6,0.6,0.4,0.8,0.2,0.8,0.2,,,3.318,,0.8,0.2,0.2,0.8,0.6,0.4,0.6,0.4,1,0
,,64b6b65f87a443a4963be23a,66fc97e3c1597bde9a128c4b,2024-10-02_02h51.39.104,mdp,2024.2.1,Win32,60.0240096,66fa4ebf79326e780c390304,,,,,,,,,,,,,,,,,,,,,1004.937,1004.937,1004.94,1005.534,1,1,right,0.069,,1005.536,1007.616,0,0,left,1007.619,1008.17,0,0,left,1,1008.17,1008.17,1008.173,1009.671,0,12,12,12,1,0.8,0.2,0.4,0.6,,,,,,,,,,,,,,,1.553,,0.6,0.4,0.8,0.2,0.8,0.2,0.8,0.2,,,0.017,,0.8,0.2,0.2,0.8,0.6,0.4,0.6,0.4,1,0
,,64b6b65f87a443a4963be23a,66fc97e3c1597bde9a128c4b,2024-10-02_02h51.39.104,mdp,2024.2.1,Win32,60.0240096,66fa4ebf79326e780c390304,,,,,,,,,,,,,,,,,,,,,1009.673,1009.673,1009.675,1010.816,0,0,left,0.615,,1010.819,1013.15,1,0,right,1013.151,1013.949,0,0,left,1,1013.95,1013.95,1013.952,1015.451,0,13,13,13,1,0.8,0.2,0.4,0.6,,,,,,,,,,,,,,,1.816,,0.6,0.4,0.8,0.2,0.6,0.4,0.2,0.8,,,0.267,,0.8,0.2,0.2,0.8,0.6,0.4,0.6,0.4,1,0
,,64b6b65f87a443a4963be23a,66fc97e3c1597bde9a128c4b,2024-10-02_02h51.39.104,mdp,2024.2.1,Win32,60.0240096,66fa4ebf79326e780c390304,,,,,,,,,,,,,,,,,,,,,1015.456,1015.456,1015.463,1016.317,0,0,left,0.335,,1016.32,1016.966,0,0,left,1016.97,1018.533,1,1,right,0,1018.533,1018.533,1018.535,1020.032,0,14,14,14,1,0.8,0.2,0.4,0.6,,,,,,,,,,,,,,,0.116,,0.6,0.4,0.8,0.2,0.6,0.4,0.2,0.8,,,1.052,,0.8,0.2,0.2,0.8,0.6,0.4,0.6,0.4,1,0
,,64b6b65f87a443a4963be23a,66fc97e3c1597bde9a128c4b,2024-10-02_02h51.39.104,mdp,2024.2.1,Win32,60.0240096,66fa4ebf79326e780c390304,,,,,,,,,,,,,,,,,,,,,1020.034,1020.034,1020.036,1021.633,0,0,left,1.067,,1021.636,1023.799,0,0,left,1023.801,1024.633,1,0,right,1,1024.634,1024.634,1024.637,1026.132,0,15,15,15,1,0.8,0.2,0.4,0.6,,,,,,,,,,,,,,,1.633,,0.6,0.4,0.8,0.2,0.6,0.4,0.2,0.8,,,0.302,,0.8,0.2,0.2,0.8,0.6,0.4,0.6,0.4,1,0
,,64b6b65f87a443a4963be23a,66fc97e3c1597bde9a128c4b,2024-10-02_02h51.39.104,mdp,2024.2.1,Win32,60.0240096,66fa4ebf79326e780c390304,,,,,,,,,,,,,,,,,,,,,1026.133,1026.133,1026.136,1026.666,1,0,right,0.001,,1026.668,1027.483,1,0,right,1027.488,1028.482,0,1,left,0,1028.482,1028.482,1028.486,1029.982,0,16,16,16,1,0.8,0.2,0.4,0.6,,,,,,,,,,,,,,,0.3,,0.6,0.4,0.8,0.2,0.6,0.4,0.2,0.8,,,0.468,,0.2,0.8,0.4,0.6,0.6,0.4,0.6,0.4,1,0
,,64b6b65f87a443a4963be23a,66fc97e3c1597bde9a128c4b,2024-10-02_02h51.39.104,mdp,2024.2.1,Win32,60.0240096,66fa4ebf79326e780c390304,,,,,,,,,,,,,,,,,,,,,1029.984,1029.984,1029.986,1030.699,0,1,left,0.183,,1030.701,1031.582,1,1,right,1031.585,1032.149,1,0,right,1,1032.149,1032.149,1032.151,1033.649,0,17,17,17,1,0.8,0.2,0.4,0.6,,,,,,,,,,,,,,,0.349,,0.8,0.2,0.6,0.4,0.6,0.4,0.2,0.8,,,0.029,,0.2,0.8,0.4,0.6,0.6,0.4,0.6,0.4,1,0
,,64b6b65f87a443a4963be23a,66fc97e3c1597bde9a128c4b,2024-10-02_02h51.39.104,mdp,2024.2.1,Win32,60.0240096,66fa4ebf79326e780c390304,,,,,,,,,,,,,,,,,,,,,1033.65,1033.65,1033.652,1034.183,1,1,right,0.001,,1034.184,1034.998,0,0,left,1035,1035.582,1,0,right,1,1035.582,1035.582,1035.584,1037.082,0,18,18,18,1,0.8,0.2,0.4,0.6,,,,,,,,,,,,,,,0.284,,0.8,0.2,0.6,0.4,0.6,0.4,0.2,0.8,,,0.046,,0.2,0.8,0.4,0.6,0.6,0.4,0.6,0.4,1,0
,,64b6b65f87a443a4963be23a,66fc97e3c1597bde9a128c4b,2024-10-02_02h51.39.104,mdp,2024.2.1,Win32,60.0240096,66fa4ebf79326e780c390304,,,,,,,,,,,,,,,,,,,,,1037.083,1037.083,1037.084,1037.948,1,1,right,0.334,,1037.95,1038.582,1,1,right,1038.584,1041.082,1,1,right,0,1041.082,1041.082,1041.084,1042.582,0,19,19,19,1,0.8,0.2,0.4,0.6,,,,,,,,,,,,,,,0.116,,0.8,0.2,0.6,0.4,0.8,0.2,0.4,0.6,,,1.981,,0.2,0.8,0.4,0.6,0.6,0.4,0.6,0.4,1,0
,,64b6b65f87a443a4963be23a,66fc97e3c1597bde9a128c4b,2024-10-02_02h51.39.104,mdp,2024.2.1,Win32,60.0240096,66fa4ebf79326e780c390304,,,,,,,,,,,,,,,,,,,,,1042.583,1042.583,1042.585,1043.481,1,1,right,0.367,,1043.483,1044.148,0,1,left,1044.149,1044.998,1,0,right,1,1044.999,1044.999,1045,1046.497,0,20,20,20,1,0.8,0.2,0.4,0.6,,,,,,,,,,,,,,,0.131,,0.8,0.2,0.6,0.4,0.8,0.2,0.4,0.6,,,0.333,,0.2,0.8,0.4,0.6,0.6,0.4,0.6,0.4,1,0
,,64b6b65f87a443a4963be23a,66fc97e3c1597bde9a128c4b,2024-10-02_02h51.39.104,mdp,2024.2.1,Win32,60.0240096,66fa4ebf79326e780c390304,,,,,,,,,,,,,,,,,,,,,1046.498,1046.498,1046.501,1047.114,1,1,right,0.101,,1047.116,1047.681,0,0,left,1047.683,1048.318,0,1,left,0,1048.319,1048.319,1048.327,1049.815,0,21,21,21,1,0.8,0.2,0.4,0.6,,,,,,,,,,,,,,,0.054,,0.8,0.2,0.6,0.4,0.8,0.2,0.4,0.6,,,0.118,,0.2,0.8,0.4,0.6,0.6,0.4,0.6,0.4,1,0
,,64b6b65f87a443a4963be23a,66fc97e3c1597bde9a128c4b,2024-10-02_02h51.39.104,mdp,2024.2.1,Win32,60.0240096,66fa4ebf79326e780c390304,,,,,,,,,,,,,,,,,,,,,1049.818,1049.818,1049.822,1050.465,1,1,right,0.118,,1050.468,1051.449,1,0,right,1051.452,1052.015,0,1,left,0,1052.015,1052.015,1052.018,1053.514,0,22,22,22,1,0.8,0.2,0.4,0.6,,,,,,,,,,,,,,,0.453,,0.8,0.2,0.6,0.4,0.8,0.2,0.4,0.6,,,0.034,,0.2,0.8,0.4,0.6,0.6,0.4,0.6,0.4,1,0
,,64b6b65f87a443a4963be23a,66fc97e3c1597bde9a128c4b,2024-10-02_02h51.39.104,mdp,2024.2.1,Win32,60.0240096,66fa4ebf79326e780c390304,,,,,,,,,,,,,,,,,,,,,1053.515,1053.515,1053.519,1054.164,0,0,left,0.118,,1054.167,1055.014,1,0,right,1055.017,1056.698,0,0,left,1,1056.698,1056.698,1056.701,1058.198,0,23,23,23,1,0.8,0.2,0.4,0.6,,,,,,,,,,,,,,,0.315,,0.8,0.2,0.6,0.4,0.8,0.2,0.4,0.6,,,1.166,,0.2,0.8,0.4,0.6,0.6,0.4,0.6,0.4,1,0
,,64b6b65f87a443a4963be23a,66fc97e3c1597bde9a128c4b,2024-10-02_02h51.39.104,mdp,2024.2.1,Win32,60.0240096,66fa4ebf79326e780c390304,,,,,,,,,,,,,,,,,,,,,1058.199,1058.199,1058.202,1058.763,0,1,left,0.037,,1058.767,1059.381,1,0,right,1059.384,1059.98,0,1,left,0,1059.981,1059.981,1059.983,1061.48,0,24,24,24,1,0.2,0.8,0.8,0.2,,,,,,,,,,,,,,,0.081,,0.8,0.2,0.6,0.4,0.8,0.2,0.4,0.6,,,0.084,,0.2,0.8,0.4,0.6,0.6,0.4,0.6,0.4,1,0
,,64b6b65f87a443a4963be23a,66fc97e3c1597bde9a128c4b,2024-10-02_02h51.39.104,mdp,2024.2.1,Win32,60.0240096,66fa4ebf79326e780c390304,,,,,,,,,,,,,,,,,,,,,1061.481,1061.481,1061.484,1062.064,1,0,right,0.05,,1062.066,1063.631,0,0,left,1063.633,1064.213,1,0,right,1,1064.213,1064.213,1064.215,1065.714,0,25,25,25,1,0.2,0.8,0.8,0.2,,,,,,,,,,,,,,,1.05,,0.8,0.2,0.6,0.4,0.8,0.2,0.4,0.6,,,0.051,,0.2,0.8,0.4,0.6,0.6,0.4,0.6,0.4,1,0
,,64b6b65f87a443a4963be23a,66fc97e3c1597bde9a128c4b,2024-10-02_02h51.39.104,mdp,2024.2.1,Win32,60.0240096,66fa4ebf79326e780c390304,,,,,,,,,,,,,,,,,,,,,1065.715,1065.715,1065.716,1066.58,0,0,left,0.332,,1066.582,1067.314,0,0,left,1067.316,1068.097,0,1,left,0,1068.097,1068.097,1068.099,1069.597,0,26,26,26,1,0.2,0.8,0.8,0.2,,,,,,,,,,,,,,,0.219,,0.8,0.2,0.6,0.4,0.8,0.2,0.4,0.6,,,0.252,,0.2,0.8,0.4,0.6,0.6,0.4,0.6,0.4,1,0
,,64b6b65f87a443a4963be23a,66fc97e3c1597bde9a128c4b,2024-10-02_02h51.39.104,mdp,2024.2.1,Win32,60.0240096,66fa4ebf79326e780c390304,,,,,,,,,,,,,,,,,,,,,1069.598,1069.598,1069.6,1070.486,0,1,left,0.356,,1070.489,1071.246,0,0,left,1071.248,1071.897,1,1,right,0,1071.897,1071.897,1071.9,1073.396,0,27,27,27,1,0.2,0.8,0.8,0.2,,,,,,,,,,,,,,,0.229,,0.8,0.2,0.6,0.4,0.8,0.2,0.4,0.6,,,0.137,,0.2,0.8,0.4,0.6,0.6,0.4,0.6,0.4,1,0
,,64b6b65f87a443a4963be23a,66fc97e3c1597bde9a128c4b,2024-10-02_02h51.39.104,mdp,2024.2.1,Win32,60.0240096,66fa4ebf79326e780c390304,,,,,,,,,,,,,,,,,,,,,1073.398,1073.398,1073.4,1074.098,0,1,left,0.171,,1074.1,1074.647,0,0,left,1074.65,1075.263,1,1,right,0,1075.263,1075.263,1075.265,1076.763,0,28,28,28,1,0.2,0.8,0.8,0.2,,,,,,,,,,,,,,,0.019,,0.8,0.2,0.6,0.4,0.8,0.2,0.4,0.6,,,0.086,,0.2,0.8,0.4,0.6,0.6,0.4,0.6,0.4,1,0
,,64b6b65f87a443a4963be23a,66fc97e3c1597bde9a128c4b,2024-10-02_02h51.39.104,mdp,2024.2.1,Win32,60.0240096,66fa4ebf79326e780c390304,,,,,,,,,,,,,,,,,,,,,1076.763,1076.764,1076.766,1077.529,0,0,left,0.235,,1077.531,1078.514,0,0,left,1078.517,1079.081,1,0,right,1,1079.081,1079.081,1079.09,1080.581,0,29,29,29,1,0.2,0.8,0.8,0.2,,,,,,,,,,,,,,,0.465,,0.8,0.2,0.6,0.4,0.8,0.2,0.4,0.6,,,0.035,,0.6,0.4,0.8,0.2,0.6,0.4,0.6,0.4,1,0
,,64b6b65f87a443a4963be23a,66fc97e3c1597bde9a128c4b,2024-10-02_02h51.39.104,mdp,2024.2.1,Win32,60.0240096,66fa4ebf79326e780c390304,,,,,,,,,,,,,,,,,,,,,1080.583,1080.583,1080.586,1081.446,0,0,left,0.332,,1081.449,1082.163,1,1,right,1082.166,1083.462,1,0,right,1,1083.463,1083.463,1083.467,1084.962,0,30,30,30,1,0.2,0.8,0.8,0.2,,,,,,,,,,,,,,,0.201,,0.4,0.6,0.4,0.6,0.8,0.2,0.4,0.6,,,0.766,,0.6,0.4,0.8,0.2,0.6,0.4,0.6,0.4,1,0
,,64b6b65f87a443a4963be23a,66fc97e3c1597bde9a128c4b,2024-10-02_02h51.39.104,mdp,2024.2.1,Win32,60.0240096,66fa4ebf79326e780c390304,,,,,,,,,,,,,,,,,,,,,1084.964,1084.964,1084.966,1085.946,1,0,right,0.452,,1085.95,1087.379,0,0,left,1087.382,1087.946,1,0,right,1,1087.946,1087.947,1087.95,1089.446,0,31,31,31,1,0.2,0.8,0.8,0.2,,,,,,,,,,,,,,,0.902,,0.4,0.6,0.4,0.6,0.8,0.2,0.4,0.6,,,0.047,,0.6,0.4,0.8,0.2,0.6,0.4,0.6,0.4,1,0
,,64b6b65f87a443a4963be23a,66fc97e3c1597bde9a128c4b,2024-10-02_02h51.39.104,mdp,2024.2.1,Win32,60.0240096,66fa4ebf79326e780c390304,,,,,,,,,,,,,,,,,,,,,1089.448,1089.448,1089.45,1090.279,1,1,right,0.301,,1090.282,1095.528,1,1,right,1095.531,1096.545,1,0,right,1,1096.545,1096.545,1096.549,1098.045,0,32,32,32,1,0.2,0.8,0.8,0.2,,,,,,,,,,,,,,,4.727,,0.4,0.6,0.4,0.6,0.8,0.2,0.4,0.6,,,0.496,,0.6,0.4,0.8,0.2,0.6,0.4,0.6,0.4,1,0
,,64b6b65f87a443a4963be23a,66fc97e3c1597bde9a128c4b,2024-10-02_02h51.39.104,mdp,2024.2.1,Win32,60.0240096,66fa4ebf79326e780c390304,,,,,,,,,,,,,,,,,,,,,1098.046,1098.046,1098.048,1099.164,1,0,right,0.588,,1099.166,1099.696,1,0,right,1099.698,1100.463,1,0,right,1,1100.463,1100.463,1100.465,1101.962,0,33,33,33,1,0.2,0.8,0.8,0.2,,,,,,,,,,,,,,,0.001,,0.4,0.6,0.4,0.6,0.8,0.2,0.4,0.6,,,0.235,,0.6,0.4,0.8,0.2,0.6,0.4,0.6,0.4,1,0
,,64b6b65f87a443a4963be23a,66fc97e3c1597bde9a128c4b,2024-10-02_02h51.39.104,mdp,2024.2.1,Win32,60.0240096,66fa4ebf79326e780c390304,,,,,,,,,,,,,,,,,,,,,1101.963,1101.963,1101.964,1102.8,1,0,right,0.3,,1102.802,1103.445,1,1,right,1103.447,1104.247,0,0,left,1,1104.247,1104.247,1104.249,1105.745,0,34,34,34,1,0.2,0.8,0.8,0.2,,,,,,,,,,,,,,,0.12,,0.4,0.6,0.4,0.6,0.8,0.2,0.4,0.6,,,0.277,,0.6,0.4,0.8,0.2,0.6,0.4,0.6,0.4,1,0
,,64b6b65f87a443a4963be23a,66fc97e3c1597bde9a128c4b,2024-10-02_02h51.39.104,mdp,2024.2.1,Win32,60.0240096,66fa4ebf79326e780c390304,,,,,,,,,,,,,,,,,,,,,1105.746,1105.746,1105.748,1106.495,1,0,right,0.217,,1106.497,1107.462,0,1,left,1107.464,1108.395,1,1,right,0,1108.395,1108.395,1108.397,1109.895,0,35,35,35,1,0.2,0.8,0.8,0.2,,,,,,,,,,,,,,,0.434,,0.4,0.6,0.4,0.6,0.8,0.2,0.4,0.6,,,0.399,,0.6,0.4,0.8,0.2,0.4,0.6,0.4,0.6,1,0
,,64b6b65f87a443a4963be23a,66fc97e3c1597bde9a128c4b,2024-10-02_02h51.39.104,mdp,2024.2.1,Win32,60.0240096,66fa4ebf79326e780c390304,,,,,,,,,,,,,,,,,,,,,1109.895,1109.895,1109.897,1110.444,1,0,right,0.018,,1110.445,1110.978,0,1,left,1110.98,1112.015,0,0,left,1,1112.016,1112.016,1112.024,1113.511,0,36,36,36,1,0.2,0.8,0.8,0.2,,,,,,,,,,,,,,,0.022,,0.4,0.6,0.4,0.6,0.8,0.2,0.4,0.6,,,0.518,,0.6,0.4,0.8,0.2,0.4,0.6,0.4,0.6,1,0
,,64b6b65f87a443a4963be23a,66fc97e3c1597bde9a128c4b,2024-10-02_02h51.39.104,mdp,2024.2.1,Win32,60.0240096,66fa4ebf79326e780c390304,,,,,,,,,,,,,,,,,,,,,1113.513,1113.513,1113.516,1114.194,0,1,left,0.151,,1114.198,1114.814,0,0,left,1114.816,1115.878,1,0,right,1,1115.878,1115.878,1115.879,1117.378,0,37,37,37,1,0.2,0.8,0.8,0.2,,,,,,,,,,,,,,,0.101,,0.6,0.4,0.8,0.2,0.8,0.2,0.4,0.6,,,0.532,,0.6,0.4,0.8,0.2,0.4,0.6,0.4,0.6,1,0
,,64b6b65f87a443a4963be23a,66fc97e3c1597bde9a128c4b,2024-10-02_02h51.39.104,mdp,2024.2.1,Win32,60.0240096,66fa4ebf79326e780c390304,,,,,,,,,,,,,,,,,,,,,1117.379,1117.379,1117.382,1118.044,0,0,left,0.134,,1118.046,1118.76,0,0,left,1118.764,1119.428,0,0,left,1,1119.428,1119.428,1119.43,1120.928,0,38,38,38,1,0.8,0.2,0.2,0.8,,,,,,,,,,,,,,,0.181,,0.6,0.4,0.8,0.2,0.8,0.2,0.4,0.6,,,0.148,,0.6,0.4,0.8,0.2,0.4,0.6,0.4,0.6,1,0
,,64b6b65f87a443a4963be23a,66fc97e3c1597bde9a128c4b,2024-10-02_02h51.39.104,mdp,2024.2.1,Win32,60.0240096,66fa4ebf79326e780c390304,,,,,,,,,,,,,,,,,,,,,1120.929,1120.929,1120.932,1121.578,1,0,right,0.118,,1121.58,1122.314,0,1,left,1122.316,1122.848,1,1,right,0,1122.848,1122.848,1122.85,1124.344,0,39,39,39,1,0.8,0.2,0.2,0.8,,,,,,,,,,,,,,,0.206,,0.6,0.4,0.8,0.2,0.8,0.2,0.4,0.6,,,0.011,,0.8,0.2,0.2,0.8,0.4,0.6,0.4,0.6,1,0
,,64b6b65f87a443a4963be23a,66fc97e3c1597bde9a128c4b,2024-10-02_02h51.39.104,mdp,2024.2.1,Win32,60.0240096,66fa4ebf79326e780c390304,,,,,,,,,,,,,,,,,,,,,1124.345,1124.345,1124.347,1125.011,0,1,left,0.137,,1125.014,1125.727,0,0,left,1125.729,1127.029,0,0,left,1,1127.029,1127.029,1127.03,1128.527,0,40,40,40,1,0.8,0.2,0.2,0.8,,,,,,,,,,,,,,,0.183,,0.6,0.4,0.8,0.2,0.8,0.2,0.4,0.6,,,0.769,,0.8,0.2,0.2,0.8,0.4,0.6,0.4,0.6,1,0
,,64b6b65f87a443a4963be23a,66fc97e3c1597bde9a128c4b,2024-10-02_02h51.39.104,mdp,2024.2.1,Win32,60.0240096,66fa4ebf79326e780c390304,,,,,,,,,,,,,,,,,,,,,1128.528,1128.528,1128.53,1129.377,0,0,left,0.319,,1129.379,1130.444,0,0,left,1130.446,1133.01,1,1,right,0,1133.01,1133.01,1133.013,1134.51,0,41,41,41,1,0.8,0.2,0.2,0.8,,,,,,,,,,,,,,,0.533,,0.6,0.4,0.8,0.2,0.8,0.2,0.4,0.6,,,2.035,,0.8,0.2,0.2,0.8,0.2,0.8,0.2,0.8,1,0
,,64b6b65f87a443a4963be23a,66fc97e3c1597bde9a128c4b,2024-10-02_02h51.39.104,mdp,2024.2.1,Win32,60.0240096,66fa4ebf79326e780c390304,,,,,,,,,,,,,,,,,,,,,1134.511,1134.511,1134.513,1135.127,1,0,right,0.083,,1135.128,1135.727,1,0,right,1135.729,1136.459,1,1,right,0,1136.459,1136.459,1136.461,1137.96,0,42,42,42,1,0.8,0.2,0.2,0.8,,,,,,,,,,,,,,,0.069,,0.6,0.4,0.8,0.2,0.8,0.2,0.4,0.6,,,0.201,,0.8,0.2,0.2,0.8,0.2,0.8,0.2,0.8,1,0
,,64b6b65f87a443a4963be23a,66fc97e3c1597bde9a128c4b,2024-10-02_02h51.39.104,mdp,2024.2.1,Win32,60.0240096,66fa4ebf79326e780c390304,,,,,,,,,,,,,,,,,,,,,1137.964,1137.964,1137.965,1139.543,0,0,left,1.051,,1139.546,1140.876,0,0,left,1140.878,1142.26,1,0,right,1,1142.26,1142.26,1142.262,1143.764,0,43,43,43,1,0.8,0.2,0.2,0.8,,,,,,,,,,,,,,,0.799,,0.6,0.4,0.8,0.2,0.8,0.2,0.4,0.6,,,0.867,,0.8,0.2,0.2,0.8,0.2,0.8,0.2,0.8,1,0
,,64b6b65f87a443a4963be23a,66fc97e3c1597bde9a128c4b,2024-10-02_02h51.39.104,mdp,2024.2.1,Win32,60.0240096,66fa4ebf79326e780c390304,,,,,,,,,,,,,,,,,,,,,1143.767,1143.767,1143.772,1144.944,0,0,left,0.651,,1144.949,1146.01,0,0,left,1146.013,1147.177,1,1,right,0,1147.178,1147.178,1147.182,1148.676,0,44,44,44,1,0.8,0.2,0.2,0.8,,,,,,,,,,,,,,,0.535,,0.6,0.4,0.8,0.2,0.8,0.2,0.4,0.6,,,0.634,,0.8,0.2,0.2,0.8,0.2,0.8,0.2,0.8,1,0
,,64b6b65f87a443a4963be23a,66fc97e3c1597bde9a128c4b,2024-10-02_02h51.39.104,mdp,2024.2.1,Win32,60.0240096,66fa4ebf79326e780c390304,,,,,,,,,,,,,,,,,,,,,1148.678,1148.678,1148.68,1150.129,0,0,left,0.915,,1150.131,1151.159,0,1,left,1151.161,1152.525,0,0,left,1,1152.525,1152.525,1152.529,1154.025,0,45,45,45,1,0.8,0.2,0.2,0.8,,,,,,,,,,,,,,,0.5,,0.6,0.4,0.8,0.2,0.4,0.6,0.8,0.2,,,0.848,,0.8,0.2,0.2,0.8,0.2,0.8,0.2,0.8,1,0
,,64b6b65f87a443a4963be23a,66fc97e3c1597bde9a128c4b,2024-10-02_02h51.39.104,mdp,2024.2.1,Win32,60.0240096,66fa4ebf79326e780c390304,,,,,,,,,,,,,,,,,,,,,1154.027,1154.028,1154.03,1155.026,0,1,left,0.465,,1155.028,1156.259,1,0,right,1156.262,1157.759,0,0,left,1,1157.759,1157.759,1157.762,1159.259,0,46,46,46,1,0.8,0.2,0.2,0.8,,,,,,,,,,,,,,,0.698,,0.6,0.4,0.8,0.2,0.4,0.6,0.8,0.2,,,0.965,,0.8,0.2,0.2,0.8,0.2,0.8,0.2,0.8,1,0
,,64b6b65f87a443a4963be23a,66fc97e3c1597bde9a128c4b,2024-10-02_02h51.39.104,mdp,2024.2.1,Win32,60.0240096,66fa4ebf79326e780c390304,,,,,,,,,,,,,,,,,,,,,1159.26,1159.26,1159.263,1160.258,0,0,left,0.467,,1160.26,1161.508,0,0,left,1161.511,1162.626,0,1,left,0,1162.626,1162.626,1162.629,1164.125,0,47,47,47,1,0.8,0.2,0.2,0.8,,,,,,,,,,,,,,,0.732,,0.6,0.4,0.8,0.2,0.4,0.6,0.8,0.2,,,0.605,,0.8,0.2,0.2,0.8,0.2,0.8,0.2,0.8,1,0
,,64b6b65f87a443a4963be23a,66fc97e3c1597bde9a128c4b,2024-10-02_02h51.39.104,mdp,2024.2.1,Win32,60.0240096,66fa4ebf79326e780c390304,,,,,,,,,,,,,,,,,,,,,1164.126,1164.126,1164.129,1165.341,0,0,left,0.684,,1165.344,1166.492,0,1,left,1166.494,1168.142,0,1,left,0,1168.142,1168.142,1168.144,1169.641,0,48,48,48,1,0.8,0.2,0.2,0.8,,,,,,,,,,,,,,,0.634,,0.6,0.4,0.8,0.2,0.4,0.6,0.8,0.2,,,1.115,,0.8,0.2,0.2,0.8,0.2,0.8,0.2,0.8,1,0
,,64b6b65f87a443a4963be23a,66fc97e3c1597bde9a128c4b,2024-10-02_02h51.39.104,mdp,2024.2.1,Win32,60.0240096,66fa4ebf79326e780c390304,,,,,,,,,,,,,,,,,,,,,1169.642,1169.642,1169.645,1170.808,0,0,left,0.636,,1170.81,1171.891,0,1,left,1171.893,1173.124,1,1,right,0,1173.124,1173.124,1173.127,1174.625,0,49,49,49,1,0.8,0.2,0.2,0.8,,,,,,,,,,,,,,,0.551,,0.6,0.4,0.8,0.2,0.4,0.6,0.8,0.2,,,0.7,,0.6,0.4,0.8,0.2,0.2,0.8,0.2,0.8,1,0
,,64b6b65f87a443a4963be23a,66fc97e3c1597bde9a128c4b,2024-10-02_02h51.39.104,mdp,2024.2.1,Win32,60.0240096,66fa4ebf79326e780c390304,,,,,,,,,,,,,,,,,,,,,,,,,,,,,,,,,,,,,,,,,,,,,,,,,,,,,,,,1174.625,1233.138,0,3,3,0,1,imgs/dog.png,imgs/cat.png,imgs/lion.png,imgs/elephant.png,imgs/goat.png,,,,,,,,,,,,,,,,,,,,,,,,
,,64b6b65f87a443a4963be23a,66fc97e3c1597bde9a128c4b,2024-10-02_02h51.39.104,mdp,2024.2.1,Win32,60.0240096,66fa4ebf79326e780c390304,,,,,,,,,,,,,,1,seqs/st1seq23.csv,1233.15,1275.422,space,41.749,,1275.432,1275.432,1275.437,1277.336,0,0,left,1.372,,1277.339,1277.342,0,0,,1277.344,1277.346,1,1,,1,1277.346,1277.346,1277.348,1278.835,0,0,0,0,1,0.2,0.8,0.8,0.2,1,0,,,,,,,,,,,,,,,,,,,,,,,,,,,,,,,,,,,,
,,64b6b65f87a443a4963be23a,66fc97e3c1597bde9a128c4b,2024-10-02_02h51.39.104,mdp,2024.2.1,Win32,60.0240096,66fa4ebf79326e780c390304,,,,,,,,,,,,,,,,,,,,,1278.837,1278.837,1278.84,1279.402,0,1,left,0.034,,1279.407,1279.41,0,1,,1279.412,1279.414,1,1,,0,1279.415,1279.415,1279.416,1280.918,0,1,1,1,1,0.2,0.8,0.8,0.2,1,0,,,,,,,,,,,,,,,,,,,,,,,,,,,,,,,,,,,,
,,64b6b65f87a443a4963be23a,66fc97e3c1597bde9a128c4b,2024-10-02_02h51.39.104,mdp,2024.2.1,Win32,60.0240096,66fa4ebf79326e780c390304,,,,,,,,,,,,,,,,,,,,,1280.919,1280.919,1280.922,1281.468,1,0,right,0.017,,1281.47,1281.472,0,1,,1281.474,1281.477,1,0,,1,1281.477,1281.477,1281.478,1282.975,0,2,2,2,1,0.2,0.8,0.8,0.2,1,0,,,,,,,,,,,,,,,,,,,,,,,,,,,,,,,,,,,,
,,64b6b65f87a443a4963be23a,66fc97e3c1597bde9a128c4b,2024-10-02_02h51.39.104,mdp,2024.2.1,Win32,60.0240096,66fa4ebf79326e780c390304,,,,,,,,,,,,,,,,,,,,,1282.979,1282.979,1282.984,1283.702,0,1,left,0.202,,1283.705,1283.708,0,1,,1283.711,1283.713,1,1,,0,1283.713,1283.713,1283.715,1285.201,0,3,3,3,1,0.2,0.8,0.8,0.2,1,0,,,,,,,,,,,,,,,,,,,,,,,,,,,,,,,,,,,,
,,64b6b65f87a443a4963be23a,66fc97e3c1597bde9a128c4b,2024-10-02_02h51.39.104,mdp,2024.2.1,Win32,60.0240096,66fa4ebf79326e780c390304,,,,,,,,,,,,,,,,,,,,,1285.204,1285.204,1285.208,1286.385,0,1,left,0.65,,1286.389,1286.393,0,1,,1286.394,1286.397,1,1,,0,1286.397,1286.397,1286.398,1287.885,0,4,4,4,1,0.2,0.8,0.8,0.2,1,0,,,,,,,,,,,,,,,,,,,,,,,,,,,,,,,,,,,,
,,64b6b65f87a443a4963be23a,66fc97e3c1597bde9a128c4b,2024-10-02_02h51.39.104,mdp,2024.2.1,Win32,60.0240096,66fa4ebf79326e780c390304,,,,,,,,,,,,,,,,,,,,,1287.886,1287.886,1287.889,1288.968,0,0,left,0.55,,1288.971,1288.976,0,1,,1288.979,1288.982,1,1,,1,1288.982,1288.982,1288.983,1290.484,0,5,5,5,1,0.6,0.4,0.6,0.4,1,0,,,,,,,,,,,,,,,,,,,,,,,,,,,,,,,,,,,,
,,64b6b65f87a443a4963be23a,66fc97e3c1597bde9a128c4b,2024-10-02_02h51.39.104,mdp,2024.2.1,Win32,60.0240096,66fa4ebf79326e780c390304,,,,,,,,,,,,,,,,,,,,,1290.487,1290.487,1290.49,1291.468,0,0,left,0.451,,1291.471,1291.473,0,1,,1291.475,1291.477,1,0,,1,1291.477,1291.477,1291.478,1292.968,0,6,6,6,1,0.8,0.2,0.8,0.2,1,0,,,,,,,,,,,,,,,,,,,,,,,,,,,,,,,,,,,,
,,64b6b65f87a443a4963be23a,66fc97e3c1597bde9a128c4b,2024-10-02_02h51.39.104,mdp,2024.2.1,Win32,60.0240096,66fa4ebf79326e780c390304,,,,,,,,,,,,,,,,,,,,,1292.969,1292.969,1292.971,1293.867,0,0,left,0.366,,1293.869,1293.873,0,0,,1293.873,1293.876,1,0,,1,1293.879,1293.879,1293.88,1295.368,0,7,7,7,1,0.8,0.2,0.8,0.2,1,0,,,,,,,,,,,,,,,,,,,,,,,,,,,,,,,,,,,,
,,64b6b65f87a443a4963be23a,66fc97e3c1597bde9a128c4b,2024-10-02_02h51.39.104,mdp,2024.2.1,Win32,60.0240096,66fa4ebf79326e780c390304,,,,,,,,,,,,,,,,,,,,,1295.369,1295.369,1295.371,1296.068,0,1,left,0.168,,1296.07,1296.073,0,0,,1296.074,1296.076,1,0,,0,1296.076,1296.076,1296.078,1297.567,0,8,8,8,1,0.8,0.2,0.8,0.2,1,0,,,,,,,,,,,,,,,,,,,,,,,,,,,,,,,,,,,,
,,64b6b65f87a443a4963be23a,66fc97e3c1597bde9a128c4b,2024-10-02_02h51.39.104,mdp,2024.2.1,Win32,60.0240096,66fa4ebf79326e780c390304,,,,,,,,,,,,,,,,,,,,,1297.568,1297.568,1297.57,1298.351,1,0,right,0.267,,1298.353,1298.355,0,0,,1298.357,1298.359,1,1,,1,1298.359,1298.359,1298.36,1299.851,0,9,9,9,1,0.8,0.2,0.8,0.2,1,0,,,,,,,,,,,,,,,,,,,,,,,,,,,,,,,,,,,,
,,64b6b65f87a443a4963be23a,66fc97e3c1597bde9a128c4b,2024-10-02_02h51.39.104,mdp,2024.2.1,Win32,60.0240096,66fa4ebf79326e780c390304,,,,,,,,,,,,,,,,,,,,,1299.851,1299.851,1299.853,1300.667,1,0,right,0.301,,1300.669,1300.672,0,0,,1300.674,1300.676,1,0,,1,1300.676,1300.676,1300.677,1302.167,0,10,10,10,1,0.8,0.2,0.8,0.2,1,0,,,,,,,,,,,,,,,,,,,,,,,,,,,,,,,,,,,,
,,64b6b65f87a443a4963be23a,66fc97e3c1597bde9a128c4b,2024-10-02_02h51.39.104,mdp,2024.2.1,Win32,60.0240096,66fa4ebf79326e780c390304,,,,,,,,,,,,,,,,,,,,,1302.168,1302.168,1302.171,1303.251,1,0,right,0.568,,1303.253,1303.255,0,1,,1303.258,1303.262,1,1,,1,1303.262,1303.262,1303.263,1304.751,0,11,11,11,1,0.6,0.4,0.4,0.6,1,0,,,,,,,,,,,,,,,,,,,,,,,,,,,,,,,,,,,,
,,64b6b65f87a443a4963be23a,66fc97e3c1597bde9a128c4b,2024-10-02_02h51.39.104,mdp,2024.2.1,Win32,60.0240096,66fa4ebf79326e780c390304,,,,,,,,,,,,,,,,,,,,,1304.751,1304.751,1304.753,1305.567,1,1,right,0.284,,1305.57,1305.572,0,1,,1305.574,1305.576,1,1,,0,1305.576,1305.576,1305.577,1307.067,0,12,12,12,1,0.6,0.4,0.4,0.6,1,0,,,,,,,,,,,,,,,,,,,,,,,,,,,,,,,,,,,,
,,64b6b65f87a443a4963be23a,66fc97e3c1597bde9a128c4b,2024-10-02_02h51.39.104,mdp,2024.2.1,Win32,60.0240096,66fa4ebf79326e780c390304,,,,,,,,,,,,,,,,,,,,,1307.068,1307.068,1307.07,1307.8,0,0,left,0.2,,1307.802,1307.805,0,1,,1307.807,1307.81,1,0,,1,1307.81,1307.81,1307.811,1309.301,0,13,13,13,1,0.8,0.2,0.6,0.4,1,0,,,,,,,,,,,,,,,,,,,,,,,,,,,,,,,,,,,,
,,64b6b65f87a443a4963be23a,66fc97e3c1597bde9a128c4b,2024-10-02_02h51.39.104,mdp,2024.2.1,Win32,60.0240096,66fa4ebf79326e780c390304,,,,,,,,,,,,,,,,,,,,,1309.301,1309.301,1309.303,1310.133,0,0,left,0.301,,1310.136,1310.139,0,1,,1310.14,1310.142,1,0,,1,1310.142,1310.142,1310.144,1311.634,0,14,14,14,1,0.8,0.2,0.6,0.4,1,0,,,,,,,,,,,,,,,,,,,,,,,,,,,,,,,,,,,,
,,64b6b65f87a443a4963be23a,66fc97e3c1597bde9a128c4b,2024-10-02_02h51.39.104,mdp,2024.2.1,Win32,60.0240096,66fa4ebf79326e780c390304,,,,,,,,,,,,,,,,,,,,,1311.635,1311.635,1311.637,1312.467,0,0,left,0.301,,1312.468,1312.471,0,0,,1312.472,1312.474,1,0,,1,1312.474,1312.474,1312.476,1313.967,0,15,15,15,1,0.8,0.2,0.6,0.4,1,0,,,,,,,,,,,,,,,,,,,,,,,,,,,,,,,,,,,,
,,64b6b65f87a443a4963be23a,66fc97e3c1597bde9a128c4b,2024-10-02_02h51.39.104,mdp,2024.2.1,Win32,60.0240096,66fa4ebf79326e780c390304,,,,,,,,,,,,,,,,,,,,,1313.968,1313.968,1313.97,1314.871,0,0,left,0.374,,1314.873,1314.875,0,0,,1314.877,1314.878,1,0,,1,1314.878,1314.878,1314.879,1316.366,0,16,16,16,1,0.8,0.2,0.6,0.4,1,0,,,,,,,,,,,,,,,,,,,,,,,,,,,,,,,,,,,,
,,64b6b65f87a443a4963be23a,66fc97e3c1597bde9a128c4b,2024-10-02_02h51.39.104,mdp,2024.2.1,Win32,60.0240096,66fa4ebf79326e780c390304,,,,,,,,,,,,,,,,,,,,,1316.368,1316.368,1316.37,1317.017,0,0,left,0.118,,1317.02,1317.022,0,1,,1317.025,1317.027,1,1,,1,1317.027,1317.027,1317.029,1318.517,0,17,17,17,1,0.6,0.4,0.4,0.6,1,0,,,,,,,,,,,,,,,,,,,,,,,,,,,,,,,,,,,,
,,64b6b65f87a443a4963be23a,66fc97e3c1597bde9a128c4b,2024-10-02_02h51.39.104,mdp,2024.2.1,Win32,60.0240096,66fa4ebf79326e780c390304,,,,,,,,,,,,,,,,,,,,,1318.521,1318.521,1318.526,1319.318,0,1,left,0.267,,1319.321,1319.324,0,1,,1319.326,1319.328,1,0,,0,1319.328,1319.328,1319.33,1320.818,0,18,18,18,1,0.6,0.4,0.4,0.6,1,0,,,,,,,,,,,,,,,,,,,,,,,,,,,,,,,,,,,,
,,64b6b65f87a443a4963be23a,66fc97e3c1597bde9a128c4b,2024-10-02_02h51.39.104,mdp,2024.2.1,Win32,60.0240096,66fa4ebf79326e780c390304,,,,,,,,,,,,,,,,,,,,,1320.819,1320.819,1320.821,1321.467,1,0,right,0.118,,1321.469,1321.472,0,0,,1321.478,1321.48,1,1,,1,1321.48,1321.48,1321.482,1322.988,0,19,19,19,1,0.8,0.2,0.8,0.2,1,0,,,,,,,,,,,,,,,,,,,,,,,,,,,,,,,,,,,,
,,64b6b65f87a443a4963be23a,66fc97e3c1597bde9a128c4b,2024-10-02_02h51.39.104,mdp,2024.2.1,Win32,60.0240096,66fa4ebf79326e780c390304,,,,,,,,,,,,,,,,,,,,,1322.989,1322.989,1322.991,1323.833,1,0,right,0.318,,1323.835,1323.839,0,0,,1323.841,1323.844,1,0,,1,1323.844,1323.844,1323.845,1325.333,0,20,20,20,1,0.8,0.2,0.8,0.2,1,0,,,,,,,,,,,,,,,,,,,,,,,,,,,,,,,,,,,,
,,64b6b65f87a443a4963be23a,66fc97e3c1597bde9a128c4b,2024-10-02_02h51.39.104,mdp,2024.2.1,Win32,60.0240096,66fa4ebf79326e780c390304,,,,,,,,,,,,,,,,,,,,,1325.334,1325.334,1325.336,1328.699,1,1,right,2.835,,1328.7,1328.702,0,0,,1328.704,1328.705,1,0,,0,1328.706,1328.706,1328.708,1330.199,0,21,21,21,1,0.8,0.2,0.8,0.2,1,0,,,,,,,,,,,,,,,,,,,,,,,,,,,,,,,,,,,,
,,64b6b65f87a443a4963be23a,66fc97e3c1597bde9a128c4b,2024-10-02_02h51.39.104,mdp,2024.2.1,Win32,60.0240096,66fa4ebf79326e780c390304,,,,,,,,,,,,,,,,,,,,,1330.199,1330.199,1330.202,1331.065,0,0,left,0.35,,1331.068,1331.07,0,1,,1331.072,1331.073,1,0,,1,1331.073,1331.073,1331.075,1332.566,0,22,22,22,1,0.8,0.2,0.8,0.2,1,0,,,,,,,,,,,,,,,,,,,,,,,,,,,,,,,,,,,,
,,64b6b65f87a443a4963be23a,66fc97e3c1597bde9a128c4b,2024-10-02_02h51.39.104,mdp,2024.2.1,Win32,60.0240096,66fa4ebf79326e780c390304,,,,,,,,,,,,,,,,,,,,,1332.567,1332.567,1332.569,1333.599,0,1,left,0.502,,1333.601,1333.604,0,0,,1333.606,1333.609,1,0,,0,1333.609,1333.609,1333.609,1335.099,0,23,23,23,1,0.8,0.2,0.8,0.2,1,0,,,,,,,,,,,,,,,,,,,,,,,,,,,,,,,,,,,,
,,64b6b65f87a443a4963be23a,66fc97e3c1597bde9a128c4b,2024-10-02_02h51.39.104,mdp,2024.2.1,Win32,60.0240096,66fa4ebf79326e780c390304,,,,,,,,,,,,,,,,,,,,,1335.1,1335.1,1335.101,1335.832,1,0,right,0.199,,1335.834,1335.837,0,0,,1335.839,1335.84,1,1,,1,1335.841,1335.841,1335.842,1337.332,0,24,24,24,1,0.8,0.2,0.8,0.2,1,0,,,,,,,,,,,,,,,,,,,,,,,,,,,,,,,,,,,,
,,64b6b65f87a443a4963be23a,66fc97e3c1597bde9a128c4b,2024-10-02_02h51.39.104,mdp,2024.2.1,Win32,60.0240096,66fa4ebf79326e780c390304,,,,,,,,,,,,,,,,,,,,,1337.332,1337.332,1337.334,1338.365,1,0,right,0.517,,1338.367,1338.371,0,0,,1338.374,1338.375,1,0,,1,1338.375,1338.375,1338.376,1339.865,0,25,25,25,1,0.8,0.2,0.8,0.2,1,0,,,,,,,,,,,,,,,,,,,,,,,,,,,,,,,,,,,,
,,64b6b65f87a443a4963be23a,66fc97e3c1597bde9a128c4b,2024-10-02_02h51.39.104,mdp,2024.2.1,Win32,60.0240096,66fa4ebf79326e780c390304,,,,,,,,,,,,,,,,,,,,,1339.866,1339.866,1339.868,1340.7,1,0,right,0.304,,1340.701,1340.704,0,0,,1340.705,1340.708,1,0,,1,1340.708,1340.708,1340.709,1342.198,0,26,26,26,1,0.8,0.2,0.8,0.2,1,0,,,,,,,,,,,,,,,,,,,,,,,,,,,,,,,,,,,,
,,64b6b65f87a443a4963be23a,66fc97e3c1597bde9a128c4b,2024-10-02_02h51.39.104,mdp,2024.2.1,Win32,60.0240096,66fa4ebf79326e780c390304,,,,,,,,,,,,,,,,,,,,,1342.199,1342.199,1342.201,1342.965,1,0,right,0.233,,1342.968,1342.971,0,1,,1342.973,1342.974,1,0,,1,1342.974,1342.974,1342.976,1344.465,0,27,27,27,1,0.8,0.2,0.8,0.2,1,0,,,,,,,,,,,,,,,,,,,,,,,,,,,,,,,,,,,,
,,64b6b65f87a443a4963be23a,66fc97e3c1597bde9a128c4b,2024-10-02_02h51.39.104,mdp,2024.2.1,Win32,60.0240096,66fa4ebf79326e780c390304,,,,,,,,,,,,,,,,,,,,,1344.466,1344.466,1344.468,1345.215,1,0,right,0.216,,1345.217,1345.22,0,0,,1345.221,1345.223,1,0,,1,1345.223,1345.223,1345.224,1346.715,0,28,28,28,1,0.8,0.2,0.8,0.2,1,0,,,,,,,,,,,,,,,,,,,,,,,,,,,,,,,,,,,,
,,64b6b65f87a443a4963be23a,66fc97e3c1597bde9a128c4b,2024-10-02_02h51.39.104,mdp,2024.2.1,Win32,60.0240096,66fa4ebf79326e780c390304,,,,,,,,,,,,,,,,,,,,,1346.716,1346.716,1346.718,1360.1,0,1,left,12.851,,1360.11,1360.117,0,0,,1360.12,1360.122,1,0,,0,1360.122,1360.122,1360.124,1361.614,0,29,29,29,1,0.8,0.2,0.8,0.2,1,0,,,,,,,,,,,,,,,,,,,,,,,,,,,,,,,,,,,,
,,64b6b65f87a443a4963be23a,66fc97e3c1597bde9a128c4b,2024-10-02_02h51.39.104,mdp,2024.2.1,Win32,60.0240096,66fa4ebf79326e780c390304,,,,,,,,,,,,,,,,,,,,,1361.618,1361.618,1361.62,1362.514,1,0,right,0.367,,1362.518,1362.521,0,1,,1362.522,1362.524,1,0,,1,1362.525,1362.525,1362.526,1364.015,0,30,30,30,1,0.8,0.2,0.8,0.2,1,0,,,,,,,,,,,,,,,,,,,,,,,,,,,,,,,,,,,,
,,64b6b65f87a443a4963be23a,66fc97e3c1597bde9a128c4b,2024-10-02_02h51.39.104,mdp,2024.2.1,Win32,60.0240096,66fa4ebf79326e780c390304,,,,,,,,,,,,,,,,,,,,,1364.015,1364.015,1364.018,1364.898,1,0,right,0.353,,1364.907,1364.909,0,1,,1364.911,1364.912,1,1,,1,1364.912,1364.912,1364.914,1366.414,0,31,31,31,1,0.6,0.4,0.6,0.4,1,0,,,,,,,,,,,,,,,,,,,,,,,,,,,,,,,,,,,,
,,64b6b65f87a443a4963be23a,66fc97e3c1597bde9a128c4b,2024-10-02_02h51.39.104,mdp,2024.2.1,Win32,60.0240096,66fa4ebf79326e780c390304,,,,,,,,,,,,,,,,,,,,,1366.415,1366.415,1366.417,1367.364,1,1,right,0.417,,1367.365,1367.368,0,0,,1367.37,1367.372,1,0,,0,1367.372,1367.372,1367.374,1368.864,0,32,32,32,1,0.6,0.4,0.6,0.4,1,0,,,,,,,,,,,,,,,,,,,,,,,,,,,,,,,,,,,,
,,64b6b65f87a443a4963be23a,66fc97e3c1597bde9a128c4b,2024-10-02_02h51.39.104,mdp,2024.2.1,Win32,60.0240096,66fa4ebf79326e780c390304,,,,,,,,,,,,,,,,,,,,,1368.865,1368.865,1368.867,1369.747,0,0,left,0.351,,1369.749,1369.752,0,0,,1369.753,1369.755,1,1,,1,1369.755,1369.755,1369.757,1371.247,0,33,33,33,1,0.6,0.4,0.6,0.4,1,0,,,,,,,,,,,,,,,,,,,,,,,,,,,,,,,,,,,,
,,64b6b65f87a443a4963be23a,66fc97e3c1597bde9a128c4b,2024-10-02_02h51.39.104,mdp,2024.2.1,Win32,60.0240096,66fa4ebf79326e780c390304,,,,,,,,,,,,,,,,,,,,,1371.248,1371.248,1371.25,1373.397,0,1,left,1.618,,1373.399,1373.401,0,0,,1373.403,1373.404,1,0,,0,1373.404,1373.404,1373.406,1374.897,0,34,34,34,1,0.6,0.4,0.6,0.4,1,0,,,,,,,,,,,,,,,,,,,,,,,,,,,,,,,,,,,,
,,64b6b65f87a443a4963be23a,66fc97e3c1597bde9a128c4b,2024-10-02_02h51.39.104,mdp,2024.2.1,Win32,60.0240096,66fa4ebf79326e780c390304,,,,,,,,,,,,,,,,,,,,,1374.898,1374.898,1374.9,1375.963,1,0,right,0.535,,1375.965,1375.968,0,0,,1375.97,1375.972,1,1,,1,1375.973,1375.973,1375.973,1377.463,0,35,35,35,1,0.6,0.4,0.6,0.4,1,0,,,,,,,,,,,,,,,,,,,,,,,,,,,,,,,,,,,,
,,64b6b65f87a443a4963be23a,66fc97e3c1597bde9a128c4b,2024-10-02_02h51.39.104,mdp,2024.2.1,Win32,60.0240096,66fa4ebf79326e780c390304,,,,,,,,,,,,,,,,,,,,,1377.464,1377.464,1377.466,1379.579,1,0,right,1.585,,1379.582,1379.584,0,0,,1379.586,1379.588,1,0,,1,1379.588,1379.588,1379.59,1381.08,0,36,36,36,1,0.6,0.4,0.6,0.4,1,0,,,,,,,,,,,,,,,,,,,,,,,,,,,,,,,,,,,,
,,64b6b65f87a443a4963be23a,66fc97e3c1597bde9a128c4b,2024-10-02_02h51.39.104,mdp,2024.2.1,Win32,60.0240096,66fa4ebf79326e780c390304,,,,,,,,,,,,,,,,,,,,,1381.08,1381.08,1381.082,1382.048,1,0,right,0.434,,1382.058,1382.064,0,0,,1382.066,1382.068,1,0,,1,1382.068,1382.068,1382.071,1383.563,0,37,37,37,1,0.8,0.2,0.8,0.2,1,0,,,,,,,,,,,,,,,,,,,,,,,,,,,,,,,,,,,,
,,64b6b65f87a443a4963be23a,66fc97e3c1597bde9a128c4b,2024-10-02_02h51.39.104,mdp,2024.2.1,Win32,60.0240096,66fa4ebf79326e780c390304,,,,,,,,,,,,,,,,,,,,,1383.565,1383.565,1383.567,1384.313,1,0,right,0.218,,1384.317,1384.319,0,1,,1384.321,1384.324,1,0,,1,1384.324,1384.324,1384.325,1385.813,0,38,38,38,1,0.8,0.2,0.8,0.2,1,0,,,,,,,,,,,,,,,,,,,,,,,,,,,,,,,,,,,,
,,64b6b65f87a443a4963be23a,66fc97e3c1597bde9a128c4b,2024-10-02_02h51.39.104,mdp,2024.2.1,Win32,60.0240096,66fa4ebf79326e780c390304,,,,,,,,,,,,,,,,,,,,,1385.814,1385.814,1385.816,1386.666,1,1,right,0.322,,1386.667,1386.669,0,0,,1386.67,1386.672,1,0,,0,1386.672,1386.672,1386.673,1388.163,0,39,39,39,1,0.8,0.2,0.8,0.2,1,0,,,,,,,,,,,,,,,,,,,,,,,,,,,,,,,,,,,,
,,64b6b65f87a443a4963be23a,66fc97e3c1597bde9a128c4b,2024-10-02_02h51.39.104,mdp,2024.2.1,Win32,60.0240096,66fa4ebf79326e780c390304,,,,,,,,,,,,,,,,,,,,,1388.164,1388.164,1388.166,1388.896,0,0,left,0.201,,1388.898,1388.901,0,0,,1388.902,1388.903,1,1,,1,1388.903,1388.903,1388.905,1390.397,0,40,40,40,1,0.8,0.2,0.8,0.2,1,0,,,,,,,,,,,,,,,,,,,,,,,,,,,,,,,,,,,,
,,64b6b65f87a443a4963be23a,66fc97e3c1597bde9a128c4b,2024-10-02_02h51.39.104,mdp,2024.2.1,Win32,60.0240096,66fa4ebf79326e780c390304,,,,,,,,,,,,,,,,,,,,,1390.398,1390.398,1390.399,1391.147,0,0,left,0.221,,1391.149,1391.152,0,1,,1391.153,1391.155,1,0,,1,1391.155,1391.155,1391.155,1392.645,0,41,41,41,1,0.8,0.2,0.8,0.2,1,0,,,,,,,,,,,,,,,,,,,,,,,,,,,,,,,,,,,,
,,64b6b65f87a443a4963be23a,66fc97e3c1597bde9a128c4b,2024-10-02_02h51.39.104,mdp,2024.2.1,Win32,60.0240096,66fa4ebf79326e780c390304,,,,,,,,,,,,,,,,,,,,,1392.647,1392.647,1392.65,1393.362,0,1,left,0.183,,1393.363,1393.366,0,1,,1393.367,1393.369,1,0,,0,1393.369,1393.369,1393.37,1394.862,0,42,42,42,1,0.8,0.2,0.8,0.2,1,0,,,,,,,,,,,,,,,,,,,,,,,,,,,,,,,,,,,,
,,64b6b65f87a443a4963be23a,66fc97e3c1597bde9a128c4b,2024-10-02_02h51.39.104,mdp,2024.2.1,Win32,60.0240096,66fa4ebf79326e780c390304,,,,,,,,,,,,,,,,,,,,,1394.862,1394.863,1394.866,1396.112,0,0,left,0.719,,1396.114,1396.117,0,0,,1396.119,1396.12,1,0,,1,1396.12,1396.12,1396.122,1397.612,0,43,43,43,1,0.8,0.2,0.8,0.2,1,0,,,,,,,,,,,,,,,,,,,,,,,,,,,,,,,,,,,,
,,64b6b65f87a443a4963be23a,66fc97e3c1597bde9a128c4b,2024-10-02_02h51.39.104,mdp,2024.2.1,Win32,60.0240096,66fa4ebf79326e780c390304,,,,,,,,,,,,,,,,,,,,,1397.612,1397.612,1397.613,1398.663,0,0,left,0.536,,1398.665,1398.668,0,0,,1398.669,1398.671,1,1,,1,1398.671,1398.671,1398.672,1400.162,0,44,44,44,1,0.6,0.4,0.2,0.8,1,0,,,,,,,,,,,,,,,,,,,,,,,,,,,,,,,,,,,,
,,64b6b65f87a443a4963be23a,66fc97e3c1597bde9a128c4b,2024-10-02_02h51.39.104,mdp,2024.2.1,Win32,60.0240096,66fa4ebf79326e780c390304,,,,,,,,,,,,,,,,,,,,,1400.163,1400.163,1400.165,1401.096,0,0,left,0.4,,1401.097,1401.099,0,0,,1401.101,1401.103,1,0,,1,1401.103,1401.103,1401.105,1402.595,0,45,45,45,1,0.6,0.4,0.2,0.8,1,0,,,,,,,,,,,,,,,,,,,,,,,,,,,,,,,,,,,,
,,64b6b65f87a443a4963be23a,66fc97e3c1597bde9a128c4b,2024-10-02_02h51.39.104,mdp,2024.2.1,Win32,60.0240096,66fa4ebf79326e780c390304,,,,,,,,,,,,,,,,,,,,,1402.596,1402.596,1402.597,1409.162,0,0,left,6.034,,1409.165,1409.167,0,0,,1409.169,1409.17,1,0,,1,1409.171,1409.171,1409.172,1410.661,0,46,46,46,1,0.6,0.4,0.2,0.8,1,0,,,,,,,,,,,,,,,,,,,,,,,,,,,,,,,,,,,,
,,64b6b65f87a443a4963be23a,66fc97e3c1597bde9a128c4b,2024-10-02_02h51.39.104,mdp,2024.2.1,Win32,60.0240096,66fa4ebf79326e780c390304,,,,,,,,,,,,,,,,,,,,,1410.662,1410.662,1410.665,1411.411,0,0,left,0.218,,1411.414,1411.416,0,1,,1411.417,1411.418,1,1,,1,1411.418,1411.418,1411.42,1412.911,0,47,47,47,1,0.6,0.4,0.2,0.8,1,0,,,,,,,,,,,,,,,,,,,,,,,,,,,,,,,,,,,,
,,64b6b65f87a443a4963be23a,66fc97e3c1597bde9a128c4b,2024-10-02_02h51.39.104,mdp,2024.2.1,Win32,60.0240096,66fa4ebf79326e780c390304,,,,,,,,,,,,,,,,,,,,,1412.911,1412.912,1412.914,1413.945,0,1,left,0.501,,1413.947,1413.95,0,0,,1413.952,1413.953,1,0,,0,1413.954,1413.954,1413.955,1415.445,0,48,48,48,1,0.6,0.4,0.2,0.8,1,0,,,,,,,,,,,,,,,,,,,,,,,,,,,,,,,,,,,,
,,64b6b65f87a443a4963be23a,66fc97e3c1597bde9a128c4b,2024-10-02_02h51.39.104,mdp,2024.2.1,Win32,60.0240096,66fa4ebf79326e780c390304,,,,,,,,,,,,,,,,,,,,,1415.445,1415.445,1415.448,1416.998,1,1,right,1.02,,1417.007,1417.013,0,1,,1417.016,1417.019,1,1,,0,1417.019,1417.019,1417.021,1418.511,0,49,49,49,1,0.6,0.4,0.2,0.8,1,0,,,,,,,,,,,,,,,,,,,,,,,,,,,,,,,,,,,,
,,64b6b65f87a443a4963be23a,66fc97e3c1597bde9a128c4b,2024-10-02_02h51.39.104,mdp,2024.2.1,Win32,60.0240096,66fa4ebf79326e780c390304,,,,,,,,,,,,,,,,,,,,,,,,,,,,,,,,,,,,,,,,,,,,,,,,,,,,,,,,1418.513,1477.039,0,4,4,1,1,imgs/kangaroo.png,imgs/giraffe.png,imgs/pig.png,imgs/lion.png,imgs/cat.png,,,,,,,,,,,,,,,,,,,,,,,,
,,64b6b65f87a443a4963be23a,66fc97e3c1597bde9a128c4b,2024-10-02_02h51.39.104,mdp,2024.2.1,Win32,60.0240096,66fa4ebf79326e780c390304,,,,,,,,,,,,,,2,seqs/st2seq42.csv,1477.058,1498.778,space,21.2,,1498.792,1498.792,1498.799,1500.193,0,1,left,0.855,,1500.196,1502.123,1,1,right,1502.127,1502.13,1,1,,0,1502.13,1502.13,1502.132,1503.623,0,0,0,0,1,0.2,0.8,0.6,0.4,,,,,,,,,,,,,,,1.39,,0.2,0.8,0.8,0.2,0.6,0.4,0.2,0.8,1,0,,,,,,,,,,,,
