init_exp.started,init_exp.stopped,participant,session,date,expName,psychopyVersion,OS,frameRate,study_id,disp_instruction.started,disp_instruction.stopped,instruction.thisRepN,instruction.thisTrialN,instruction.thisN,instruction.thisIndex,instruction.ran,instimg_path,consent.started,consent.stopped,key_resp_3.keys,key_resp_3.rt,key_resp_3.duration,n_steps,sequence_path,init_block.started,init_block.stopped,key_resp.keys,key_resp.rt,key_resp.duration,init_trials.started,init_trials.stopped,step0.started,step0.stopped,act0,s1,res0.keys,res0.rt,res0.duration,step1.started,step1.stopped,act1,s2,res1.keys,step2.started,step2.stopped,act2,s3,res2.keys,rew,reward_comp.started,reward_comp.stopped,reward_disp.started,reward_disp.stopped,trials.thisRepN,trials.thisTrialN,trials.thisN,trials.thisIndex,trials.ran,s00a0s10,s00a0s11,s00a1s10,s00a1s11,rew10,rew11,break_block.started,break_block.stopped,block.thisRepN,block.thisTrialN,block.thisN,block.thisIndex,block.ran,s00path,s10path,s11path,s20path,s21path,res1.rt,res1.duration,s10a0s20,s10a0s21,s10a1s20,s10a1s21,s11a0s20,s11a0s21,s11a1s20,s11a1s21,rew20,rew21,res2.rt,res2.duration,s20a0s30,s20a0s31,s20a1s30,s20a1s31,s21a0s30,s21a0s31,s21a1s30,s21a1s31,rew30,rew31
0.001,0.0034,64e114532a07493224e3a5a1,66fc995d5bc6dc80a61d5245,2024-10-02_13h55.02.994,mdp,2024.2.1,Linux x86_64,60.24096386,66fa4ebf79326e780c390304,,,,,,,,,,,,,,,,,,,,,,,,,,,,,,,,,,,,,,,,,,,,,,,,,,,,,,,,,,,,,,,,,,,,,,,,,,,,,,,,,,,,,,,,,,,
,,64e114532a07493224e3a5a1,66fc995d5bc6dc80a61d5245,2024-10-02_13h55.02.994,mdp,2024.2.1,Linux x86_64,60.24096386,66fa4ebf79326e780c390304,0.0105,14.1781,0,0,0,0,1,rlnn_exp/rlnn_exp.001.png,,,,,,,,,,,,,,,,,,,,,,,,,,,,,,,,,,,,,,,,,,,,,,,,,,,,,,,,,,,,,,,,,,,,,,,,,,,,,,,,,,,
,,64e114532a07493224e3a5a1,66fc995d5bc6dc80a61d5245,2024-10-02_13h55.02.994,mdp,2024.2.1,Linux x86_64,60.24096386,66fa4ebf79326e780c390304,14.179,24.4321,0,1,1,1,1,rlnn_exp/rlnn_exp.002.png,,,,,,,,,,,,,,,,,,,,,,,,,,,,,,,,,,,,,,,,,,,,,,,,,,,,,,,,,,,,,,,,,,,,,,,,,,,,,,,,,,,
,,64e114532a07493224e3a5a1,66fc995d5bc6dc80a61d5245,2024-10-02_13h55.02.994,mdp,2024.2.1,Linux x86_64,60.24096386,66fa4ebf79326e780c390304,24.4336,35.7537,0,2,2,2,1,rlnn_exp/rlnn_exp.003.png,,,,,,,,,,,,,,,,,,,,,,,,,,,,,,,,,,,,,,,,,,,,,,,,,,,,,,,,,,,,,,,,,,,,,,,,,,,,,,,,,,,
,,64e114532a07493224e3a5a1,66fc995d5bc6dc80a61d5245,2024-10-02_13h55.02.994,mdp,2024.2.1,Linux x86_64,60.24096386,66fa4ebf79326e780c390304,35.7545,47.4597,0,3,3,3,1,rlnn_exp/rlnn_exp.004.png,,,,,,,,,,,,,,,,,,,,,,,,,,,,,,,,,,,,,,,,,,,,,,,,,,,,,,,,,,,,,,,,,,,,,,,,,,,,,,,,,,,
,,64e114532a07493224e3a5a1,66fc995d5bc6dc80a61d5245,2024-10-02_13h55.02.994,mdp,2024.2.1,Linux x86_64,60.24096386,66fa4ebf79326e780c390304,,,,,,,,,47.4612,81.2755,y,23.7855,,,,,,,,,,,,,,,,,,,,,,,,,,,,,,,,,,,,,,,,,,,,,,,,,,,,,,,,,,,,,,,,,,,,,,,,,,,,,,,
,,64e114532a07493224e3a5a1,66fc995d5bc6dc80a61d5245,2024-10-02_13h55.02.994,mdp,2024.2.1,Linux x86_64,60.24096386,66fa4ebf79326e780c390304,,,,,,,,,,,,,,1,seqs/st1seq0.csv,81.2926,82.409,space,0.5896,,82.4214,82.4219,82.4234,84.1767,0,0,left,1.2101,,84.1785,84.1838,,0,,84.1853,84.1898,,0,,1,84.1902,84.1907,84.192,85.6942,0,0,0,0,1,0.8,0.2,0.8,0.2,1,0,,,,,,,,,,,,,,,,,,,,,,,,,,,,,,,,,,,,
,,64e114532a07493224e3a5a1,66fc995d5bc6dc80a61d5245,2024-10-02_13h55.02.994,mdp,2024.2.1,Linux x86_64,60.24096386,66fa4ebf79326e780c390304,,,,,,,,,,,,,,,,,,,,,85.6955,85.6957,85.6986,86.9103,0,0,left,0.6818,,86.912,86.9132,,0,,86.914,86.9149,,1,,1,86.9149,86.9149,86.9165,88.4116,0,1,1,1,1,0.8,0.2,0.8,0.2,1,0,,,,,,,,,,,,,,,,,,,,,,,,,,,,,,,,,,,,
,,64e114532a07493224e3a5a1,66fc995d5bc6dc80a61d5245,2024-10-02_13h55.02.994,mdp,2024.2.1,Linux x86_64,60.24096386,66fa4ebf79326e780c390304,,,,,,,,,,,,,,,,,,,,,88.4125,88.4126,88.4158,89.4278,0,0,left,0.4824,,89.4295,89.4305,,0,,89.4316,89.4331,,0,,1,89.4332,89.4332,89.434,90.929,0,2,2,2,1,0.8,0.2,0.8,0.2,1,0,,,,,,,,,,,,,,,,,,,,,,,,,,,,,,,,,,,,
,,64e114532a07493224e3a5a1,66fc995d5bc6dc80a61d5245,2024-10-02_13h55.02.994,mdp,2024.2.1,Linux x86_64,60.24096386,66fa4ebf79326e780c390304,,,,,,,,,,,,,,,,,,,,,90.9299,90.93,90.933,91.9629,0,1,left,0.5048,,91.9663,91.9688,,0,,91.9715,91.974,,0,,0,91.9742,91.9742,91.9764,93.4635,0,3,3,3,1,0.8,0.2,0.8,0.2,1,0,,,,,,,,,,,,,,,,,,,,,,,,,,,,,,,,,,,,
,,64e114532a07493224e3a5a1,66fc995d5bc6dc80a61d5245,2024-10-02_13h55.02.994,mdp,2024.2.1,Linux x86_64,60.24096386,66fa4ebf79326e780c390304,,,,,,,,,,,,,,,,,,,,,93.4644,93.4645,93.4678,94.7473,1,0,right,0.7549,,94.7504,94.7526,,0,,94.7549,94.7571,,1,,1,94.7572,94.7573,94.7592,96.2485,0,4,4,4,1,0.8,0.2,0.8,0.2,1,0,,,,,,,,,,,,,,,,,,,,,,,,,,,,,,,,,,,,
,,64e114532a07493224e3a5a1,66fc995d5bc6dc80a61d5245,2024-10-02_13h55.02.994,mdp,2024.2.1,Linux x86_64,60.24096386,66fa4ebf79326e780c390304,,,,,,,,,,,,,,,,,,,,,96.2495,96.2495,96.2525,97.4322,1,1,right,0.6542,,97.4353,97.4375,,0,,97.4397,97.4418,,0,,0,97.4419,97.4419,97.4438,98.9325,0,5,5,5,1,0.8,0.2,0.8,0.2,1,0,,,,,,,,,,,,,,,,,,,,,,,,,,,,,,,,,,,,
,,64e114532a07493224e3a5a1,66fc995d5bc6dc80a61d5245,2024-10-02_13h55.02.994,mdp,2024.2.1,Linux x86_64,60.24096386,66fa4ebf79326e780c390304,,,,,,,,,,,,,,,,,,,,,98.9336,98.9336,98.9368,100.05,0,0,left,0.5837,,100.0522,100.0535,,0,,100.0544,100.0553,,0,,1,100.0554,100.0554,100.0563,101.5505,0,6,6,6,1,0.8,0.2,0.8,0.2,1,0,,,,,,,,,,,,,,,,,,,,,,,,,,,,,,,,,,,,
,,64e114532a07493224e3a5a1,66fc995d5bc6dc80a61d5245,2024-10-02_13h55.02.994,mdp,2024.2.1,Linux x86_64,60.24096386,66fa4ebf79326e780c390304,,,,,,,,,,,,,,,,,,,,,101.5511,101.5511,101.5526,102.6005,0,0,left,0.5156,,102.6021,102.6033,,1,,102.6043,102.6054,,1,,1,102.6054,102.6054,102.6064,104.1018,0,7,7,7,1,0.8,0.2,0.8,0.2,1,0,,,,,,,,,,,,,,,,,,,,,,,,,,,,,,,,,,,,
,,64e114532a07493224e3a5a1,66fc995d5bc6dc80a61d5245,2024-10-02_13h55.02.994,mdp,2024.2.1,Linux x86_64,60.24096386,66fa4ebf79326e780c390304,,,,,,,,,,,,,,,,,,,,,104.1027,104.1033,104.1064,105.1527,1,0,right,0.5182,,105.1559,105.1572,,1,,105.1584,105.1593,,0,,1,105.1593,105.1594,105.1603,106.6536,0,8,8,8,1,0.8,0.2,0.8,0.2,1,0,,,,,,,,,,,,,,,,,,,,,,,,,,,,,,,,,,,,
,,64e114532a07493224e3a5a1,66fc995d5bc6dc80a61d5245,2024-10-02_13h55.02.994,mdp,2024.2.1,Linux x86_64,60.24096386,66fa4ebf79326e780c390304,,,,,,,,,,,,,,,,,,,,,106.6547,106.6547,106.6579,107.7373,1,0,right,0.5506,,107.7403,107.7424,,0,,107.7449,107.7466,,0,,1,107.7467,107.7467,107.7484,109.2375,0,9,9,9,1,0.8,0.2,0.8,0.2,1,0,,,,,,,,,,,,,,,,,,,,,,,,,,,,,,,,,,,,
,,64e114532a07493224e3a5a1,66fc995d5bc6dc80a61d5245,2024-10-02_13h55.02.994,mdp,2024.2.1,Linux x86_64,60.24096386,66fa4ebf79326e780c390304,,,,,,,,,,,,,,,,,,,,,109.2386,109.2386,109.2414,110.1379,0,0,left,0.3693,,110.1409,110.1431,,0,,110.1454,110.1477,,0,,1,110.1478,110.1478,110.1496,111.6397,0,10,10,10,1,0.8,0.2,0.8,0.2,1,0,,,,,,,,,,,,,,,,,,,,,,,,,,,,,,,,,,,,
,,64e114532a07493224e3a5a1,66fc995d5bc6dc80a61d5245,2024-10-02_13h55.02.994,mdp,2024.2.1,Linux x86_64,60.24096386,66fa4ebf79326e780c390304,,,,,,,,,,,,,,,,,,,,,111.6407,111.6408,111.6435,112.5219,0,0,left,0.351,,112.5237,112.5249,,1,,112.5261,112.5271,,0,,1,112.5272,112.5272,112.5283,114.0232,0,11,11,11,1,0.6,0.4,0.4,0.6,1,0,,,,,,,,,,,,,,,,,,,,,,,,,,,,,,,,,,,,
,,64e114532a07493224e3a5a1,66fc995d5bc6dc80a61d5245,2024-10-02_13h55.02.994,mdp,2024.2.1,Linux x86_64,60.24096386,66fa4ebf79326e780c390304,,,,,,,,,,,,,,,,,,,,,114.0243,114.0244,114.0272,114.9582,1,0,right,0.41,,114.9599,114.9611,,1,,114.9625,114.9644,,0,,1,114.9644,114.9644,114.9657,116.457,0,12,12,12,1,0.6,0.4,0.4,0.6,1,0,,,,,,,,,,,,,,,,,,,,,,,,,,,,,,,,,,,,
,,64e114532a07493224e3a5a1,66fc995d5bc6dc80a61d5245,2024-10-02_13h55.02.994,mdp,2024.2.1,Linux x86_64,60.24096386,66fa4ebf79326e780c390304,,,,,,,,,,,,,,,,,,,,,116.4574,116.4575,116.4589,117.392,1,0,right,0.4081,,117.3948,117.3972,,0,,117.4001,117.402,,0,,1,117.4021,117.4021,117.4039,118.8912,0,13,13,13,1,0.6,0.4,0.4,0.6,1,0,,,,,,,,,,,,,,,,,,,,,,,,,,,,,,,,,,,,
,,64e114532a07493224e3a5a1,66fc995d5bc6dc80a61d5245,2024-10-02_13h55.02.994,mdp,2024.2.1,Linux x86_64,60.24096386,66fa4ebf79326e780c390304,,,,,,,,,,,,,,,,,,,,,118.8917,118.8917,118.8933,119.7921,0,0,left,0.3884,,119.795,119.7971,,0,,119.7993,119.8012,,1,,1,119.8012,119.8013,119.8033,121.2923,0,14,14,14,1,0.8,0.2,0.2,0.8,1,0,,,,,,,,,,,,,,,,,,,,,,,,,,,,,,,,,,,,
,,64e114532a07493224e3a5a1,66fc995d5bc6dc80a61d5245,2024-10-02_13h55.02.994,mdp,2024.2.1,Linux x86_64,60.24096386,66fa4ebf79326e780c390304,,,,,,,,,,,,,,,,,,,,,121.2929,121.293,121.2944,122.3433,0,0,left,0.5183,,122.3463,122.3487,,0,,122.3511,122.3531,,0,,1,122.3533,122.3533,122.3553,123.8441,0,15,15,15,1,0.8,0.2,0.2,0.8,1,0,,,,,,,,,,,,,,,,,,,,,,,,,,,,,,,,,,,,
,,64e114532a07493224e3a5a1,66fc995d5bc6dc80a61d5245,2024-10-02_13h55.02.994,mdp,2024.2.1,Linux x86_64,60.24096386,66fa4ebf79326e780c390304,,,,,,,,,,,,,,,,,,,,,123.845,123.845,123.848,124.8277,1,0,right,0.4522,,124.8311,124.833,,1,,124.8352,124.837,,1,,1,124.8371,124.8372,124.839,126.3287,0,16,16,16,1,0.8,0.2,0.2,0.8,1,0,,,,,,,,,,,,,,,,,,,,,,,,,,,,,,,,,,,,
,,64e114532a07493224e3a5a1,66fc995d5bc6dc80a61d5245,2024-10-02_13h55.02.994,mdp,2024.2.1,Linux x86_64,60.24096386,66fa4ebf79326e780c390304,,,,,,,,,,,,,,,,,,,,,126.3298,126.3298,126.3325,127.4291,1,1,right,0.5696,,127.4322,127.4342,,1,,127.4364,127.4383,,1,,0,127.4385,127.4385,127.4406,128.9298,0,17,17,17,1,0.8,0.2,0.2,0.8,1,0,,,,,,,,,,,,,,,,,,,,,,,,,,,,,,,,,,,,
,,64e114532a07493224e3a5a1,66fc995d5bc6dc80a61d5245,2024-10-02_13h55.02.994,mdp,2024.2.1,Linux x86_64,60.24096386,66fa4ebf79326e780c390304,,,,,,,,,,,,,,,,,,,,,128.9307,128.9308,128.9335,129.7462,0,0,left,0.2831,,129.7478,129.7488,,0,,129.7497,129.7505,,0,,1,129.7506,129.7506,129.7517,131.2475,0,18,18,18,1,0.8,0.2,0.2,0.8,1,0,,,,,,,,,,,,,,,,,,,,,,,,,,,,,,,,,,,,
,,64e114532a07493224e3a5a1,66fc995d5bc6dc80a61d5245,2024-10-02_13h55.02.994,mdp,2024.2.1,Linux x86_64,60.24096386,66fa4ebf79326e780c390304,,,,,,,,,,,,,,,,,,,,,131.2485,131.2485,131.2513,132.1646,1,1,right,0.3831,,132.1677,132.1697,,1,,132.1721,132.174,,1,,0,132.1741,132.1741,132.176,133.6648,0,19,19,19,1,0.8,0.2,0.2,0.8,1,0,,,,,,,,,,,,,,,,,,,,,,,,,,,,,,,,,,,,
,,64e114532a07493224e3a5a1,66fc995d5bc6dc80a61d5245,2024-10-02_13h55.02.994,mdp,2024.2.1,Linux x86_64,60.24096386,66fa4ebf79326e780c390304,,,,,,,,,,,,,,,,,,,,,133.6653,133.6653,133.6667,134.4984,0,0,left,0.3009,,134.5,134.5011,,0,,134.502,134.503,,0,,1,134.5031,134.5031,134.5039,135.9996,0,20,20,20,1,0.8,0.2,0.2,0.8,1,0,,,,,,,,,,,,,,,,,,,,,,,,,,,,,,,,,,,,
,,64e114532a07493224e3a5a1,66fc995d5bc6dc80a61d5245,2024-10-02_13h55.02.994,mdp,2024.2.1,Linux x86_64,60.24096386,66fa4ebf79326e780c390304,,,,,,,,,,,,,,,,,,,,,136.0005,136.0005,136.0034,136.8667,0,1,left,0.3354,,136.8697,136.8717,,0,,136.8739,136.876,,0,,0,136.876,136.876,136.8782,138.3712,0,21,21,21,1,0.8,0.2,0.2,0.8,1,0,,,,,,,,,,,,,,,,,,,,,,,,,,,,,,,,,,,,
,,64e114532a07493224e3a5a1,66fc995d5bc6dc80a61d5245,2024-10-02_13h55.02.994,mdp,2024.2.1,Linux x86_64,60.24096386,66fa4ebf79326e780c390304,,,,,,,,,,,,,,,,,,,,,138.3721,138.3722,138.3751,140.3014,1,0,right,1.401,,140.3044,140.3064,,1,,140.3089,140.3107,,0,,1,140.3108,140.3108,140.3129,141.8072,0,22,22,22,1,0.6,0.4,0.8,0.2,1,0,,,,,,,,,,,,,,,,,,,,,,,,,,,,,,,,,,,,
,,64e114532a07493224e3a5a1,66fc995d5bc6dc80a61d5245,2024-10-02_13h55.02.994,mdp,2024.2.1,Linux x86_64,60.24096386,66fa4ebf79326e780c390304,,,,,,,,,,,,,,,,,,,,,141.8078,141.8078,141.8097,142.6859,0,0,left,0.3512,,142.6889,142.691,,1,,142.6932,142.6952,,1,,1,142.6953,142.6953,142.6971,144.1866,0,23,23,23,1,0.6,0.4,0.8,0.2,1,0,,,,,,,,,,,,,,,,,,,,,,,,,,,,,,,,,,,,
,,64e114532a07493224e3a5a1,66fc995d5bc6dc80a61d5245,2024-10-02_13h55.02.994,mdp,2024.2.1,Linux x86_64,60.24096386,66fa4ebf79326e780c390304,,,,,,,,,,,,,,,,,,,,,144.1877,144.1877,144.1905,145.037,0,0,left,0.3207,,145.04,145.0422,,0,,145.0445,145.0464,,0,,1,145.0465,145.0465,145.0483,146.5376,0,24,24,24,1,0.6,0.4,0.8,0.2,1,0,,,,,,,,,,,,,,,,,,,,,,,,,,,,,,,,,,,,
,,64e114532a07493224e3a5a1,66fc995d5bc6dc80a61d5245,2024-10-02_13h55.02.994,mdp,2024.2.1,Linux x86_64,60.24096386,66fa4ebf79326e780c390304,,,,,,,,,,,,,,,,,,,,,146.5386,146.5387,146.5415,147.4549,1,1,right,0.3904,,147.4577,147.4598,,0,,147.4623,147.4641,,1,,0,147.4641,147.4642,147.4661,148.9548,0,25,25,25,1,0.8,0.2,0.6,0.4,1,0,,,,,,,,,,,,,,,,,,,,,,,,,,,,,,,,,,,,
,,64e114532a07493224e3a5a1,66fc995d5bc6dc80a61d5245,2024-10-02_13h55.02.994,mdp,2024.2.1,Linux x86_64,60.24096386,66fa4ebf79326e780c390304,,,,,,,,,,,,,,,,,,,,,148.9552,148.9552,148.9567,149.8895,0,0,left,0.4195,,149.8923,149.8933,,0,,149.8942,149.895,,1,,1,149.895,149.895,149.8957,151.3893,0,26,26,26,1,0.8,0.2,0.6,0.4,1,0,,,,,,,,,,,,,,,,,,,,,,,,,,,,,,,,,,,,
,,64e114532a07493224e3a5a1,66fc995d5bc6dc80a61d5245,2024-10-02_13h55.02.994,mdp,2024.2.1,Linux x86_64,60.24096386,66fa4ebf79326e780c390304,,,,,,,,,,,,,,,,,,,,,151.39,151.39,151.3918,152.2736,0,0,left,0.3518,,152.2765,152.2784,,0,,152.2805,152.2824,,0,,1,152.2825,152.2825,152.2843,153.7744,0,27,27,27,1,0.6,0.4,0.4,0.6,1,0,,,,,,,,,,,,,,,,,,,,,,,,,,,,,,,,,,,,
,,64e114532a07493224e3a5a1,66fc995d5bc6dc80a61d5245,2024-10-02_13h55.02.994,mdp,2024.2.1,Linux x86_64,60.24096386,66fa4ebf79326e780c390304,,,,,,,,,,,,,,,,,,,,,153.7753,153.7753,153.7782,154.591,0,0,left,0.2824,,154.5938,154.596,,0,,154.5984,154.6002,,1,,1,154.6003,154.6004,154.6022,156.0922,0,28,28,28,1,0.6,0.4,0.4,0.6,1,0,,,,,,,,,,,,,,,,,,,,,,,,,,,,,,,,,,,,
,,64e114532a07493224e3a5a1,66fc995d5bc6dc80a61d5245,2024-10-02_13h55.02.994,mdp,2024.2.1,Linux x86_64,60.24096386,66fa4ebf79326e780c390304,,,,,,,,,,,,,,,,,,,,,156.0932,156.0932,156.0959,157.0425,1,1,right,0.4189,,157.0456,157.0477,,0,,157.0509,157.053,,0,,0,157.0531,157.0532,157.055,158.5432,0,29,29,29,1,0.6,0.4,0.4,0.6,1,0,,,,,,,,,,,,,,,,,,,,,,,,,,,,,,,,,,,,
,,64e114532a07493224e3a5a1,66fc995d5bc6dc80a61d5245,2024-10-02_13h55.02.994,mdp,2024.2.1,Linux x86_64,60.24096386,66fa4ebf79326e780c390304,,,,,,,,,,,,,,,,,,,,,158.544,158.544,158.5468,159.3934,0,0,left,0.3201,,159.3964,159.3984,,0,,159.4006,159.4025,,1,,1,159.4026,159.4027,159.4046,160.8941,0,30,30,30,1,0.6,0.4,0.4,0.6,1,0,,,,,,,,,,,,,,,,,,,,,,,,,,,,,,,,,,,,
,,64e114532a07493224e3a5a1,66fc995d5bc6dc80a61d5245,2024-10-02_13h55.02.994,mdp,2024.2.1,Linux x86_64,60.24096386,66fa4ebf79326e780c390304,,,,,,,,,,,,,,,,,,,,,160.8951,160.8951,160.8979,161.7613,0,1,left,0.335,,161.7627,161.7637,,0,,161.7647,161.7654,,1,,0,161.7655,161.7655,161.7664,163.2619,0,31,31,31,1,0.4,0.6,0.6,0.4,1,0,,,,,,,,,,,,,,,,,,,,,,,,,,,,,,,,,,,,
,,64e114532a07493224e3a5a1,66fc995d5bc6dc80a61d5245,2024-10-02_13h55.02.994,mdp,2024.2.1,Linux x86_64,60.24096386,66fa4ebf79326e780c390304,,,,,,,,,,,,,,,,,,,,,163.2627,163.2629,163.2656,164.0289,1,0,right,0.2359,,164.0319,164.0341,,0,,164.0364,164.0383,,1,,1,164.0385,164.0385,164.0403,165.5298,0,32,32,32,1,0.8,0.2,0.4,0.6,1,0,,,,,,,,,,,,,,,,,,,,,,,,,,,,,,,,,,,,
,,64e114532a07493224e3a5a1,66fc995d5bc6dc80a61d5245,2024-10-02_13h55.02.994,mdp,2024.2.1,Linux x86_64,60.24096386,66fa4ebf79326e780c390304,,,,,,,,,,,,,,,,,,,,,165.5307,165.5307,165.5334,166.4134,1,1,right,0.3492,,166.4163,166.4184,,0,,166.4206,166.4226,,1,,0,166.4227,166.4227,166.4246,167.9141,0,33,33,33,1,0.8,0.2,0.4,0.6,1,0,,,,,,,,,,,,,,,,,,,,,,,,,,,,,,,,,,,,
,,64e114532a07493224e3a5a1,66fc995d5bc6dc80a61d5245,2024-10-02_13h55.02.994,mdp,2024.2.1,Linux x86_64,60.24096386,66fa4ebf79326e780c390304,,,,,,,,,,,,,,,,,,,,,167.9152,167.9152,167.9179,168.5815,0,0,left,0.1351,,168.5844,168.5864,,0,,168.5887,168.5906,,0,,1,168.5907,168.5908,168.5925,170.0817,0,34,34,34,1,0.8,0.2,0.4,0.6,1,0,,,,,,,,,,,,,,,,,,,,,,,,,,,,,,,,,,,,
,,64e114532a07493224e3a5a1,66fc995d5bc6dc80a61d5245,2024-10-02_13h55.02.994,mdp,2024.2.1,Linux x86_64,60.24096386,66fa4ebf79326e780c390304,,,,,,,,,,,,,,,,,,,,,170.0827,170.0827,170.0858,170.949,0,0,left,0.3332,,170.9524,170.9549,,0,,170.9573,170.9592,,1,,1,170.9594,170.9594,170.9613,172.4494,0,35,35,35,1,0.8,0.2,0.4,0.6,1,0,,,,,,,,,,,,,,,,,,,,,,,,,,,,,,,,,,,,
,,64e114532a07493224e3a5a1,66fc995d5bc6dc80a61d5245,2024-10-02_13h55.02.994,mdp,2024.2.1,Linux x86_64,60.24096386,66fa4ebf79326e780c390304,,,,,,,,,,,,,,,,,,,,,172.4504,172.4506,172.4532,173.4498,0,1,left,0.4694,,173.4528,173.4548,,1,,173.4569,173.4586,,1,,0,173.4587,173.4587,173.4605,174.9506,0,36,36,36,1,0.4,0.6,0.6,0.4,1,0,,,,,,,,,,,,,,,,,,,,,,,,,,,,,,,,,,,,
,,64e114532a07493224e3a5a1,66fc995d5bc6dc80a61d5245,2024-10-02_13h55.02.994,mdp,2024.2.1,Linux x86_64,60.24096386,66fa4ebf79326e780c390304,,,,,,,,,,,,,,,,,,,,,174.9515,174.9515,174.9545,175.951,1,0,right,0.4718,,175.954,175.9559,,0,,175.9579,175.9596,,1,,1,175.9597,175.9598,175.9614,177.4515,0,37,37,37,1,0.4,0.6,0.6,0.4,1,0,,,,,,,,,,,,,,,,,,,,,,,,,,,,,,,,,,,,
,,64e114532a07493224e3a5a1,66fc995d5bc6dc80a61d5245,2024-10-02_13h55.02.994,mdp,2024.2.1,Linux x86_64,60.24096386,66fa4ebf79326e780c390304,,,,,,,,,,,,,,,,,,,,,177.4525,177.4525,177.455,178.369,1,0,right,0.3861,,178.372,178.3738,,0,,178.376,178.3777,,0,,1,178.3778,178.3778,178.3795,179.8695,0,38,38,38,1,0.4,0.6,0.6,0.4,1,0,,,,,,,,,,,,,,,,,,,,,,,,,,,,,,,,,,,,
,,64e114532a07493224e3a5a1,66fc995d5bc6dc80a61d5245,2024-10-02_13h55.02.994,mdp,2024.2.1,Linux x86_64,60.24096386,66fa4ebf79326e780c390304,,,,,,,,,,,,,,,,,,,,,179.8704,179.8704,179.873,180.9198,1,1,right,0.5249,,180.9227,180.9247,,1,,180.9276,180.9295,,0,,0,180.9296,180.9297,180.9315,182.4205,0,39,39,39,1,0.6,0.4,0.4,0.6,1,0,,,,,,,,,,,,,,,,,,,,,,,,,,,,,,,,,,,,
,,64e114532a07493224e3a5a1,66fc995d5bc6dc80a61d5245,2024-10-02_13h55.02.994,mdp,2024.2.1,Linux x86_64,60.24096386,66fa4ebf79326e780c390304,,,,,,,,,,,,,,,,,,,,,182.4215,182.4216,182.4272,183.4538,0,0,left,0.5071,,183.4565,183.4588,,0,,183.4613,183.4631,,1,,1,183.4632,183.4632,183.465,184.9555,0,40,40,40,1,0.6,0.4,0.4,0.6,1,0,,,,,,,,,,,,,,,,,,,,,,,,,,,,,,,,,,,,
,,64e114532a07493224e3a5a1,66fc995d5bc6dc80a61d5245,2024-10-02_13h55.02.994,mdp,2024.2.1,Linux x86_64,60.24096386,66fa4ebf79326e780c390304,,,,,,,,,,,,,,,,,,,,,184.9565,184.9565,184.9591,185.7888,0,0,left,0.3009,,185.7903,185.7912,,1,,185.7921,185.7929,,0,,1,185.793,185.793,185.7937,187.2895,0,41,41,41,1,0.6,0.4,0.4,0.6,1,0,,,,,,,,,,,,,,,,,,,,,,,,,,,,,,,,,,,,
,,64e114532a07493224e3a5a1,66fc995d5bc6dc80a61d5245,2024-10-02_13h55.02.994,mdp,2024.2.1,Linux x86_64,60.24096386,66fa4ebf79326e780c390304,,,,,,,,,,,,,,,,,,,,,187.2904,187.2904,187.2931,188.1564,0,1,left,0.3351,,188.1588,188.1608,,1,,188.1628,188.1645,,1,,0,188.1646,188.1647,188.1664,189.6576,0,42,42,42,1,0.2,0.8,0.6,0.4,1,0,,,,,,,,,,,,,,,,,,,,,,,,,,,,,,,,,,,,
,,64e114532a07493224e3a5a1,66fc995d5bc6dc80a61d5245,2024-10-02_13h55.02.994,mdp,2024.2.1,Linux x86_64,60.24096386,66fa4ebf79326e780c390304,,,,,,,,,,,,,,,,,,,,,189.6585,189.6585,189.6614,190.3078,1,1,right,0.1218,,190.3105,190.3114,,0,,190.3125,190.3132,,0,,0,190.3132,190.3132,190.314,191.8077,0,43,43,43,1,0.2,0.8,0.6,0.4,1,0,,,,,,,,,,,,,,,,,,,,,,,,,,,,,,,,,,,,
,,64e114532a07493224e3a5a1,66fc995d5bc6dc80a61d5245,2024-10-02_13h55.02.994,mdp,2024.2.1,Linux x86_64,60.24096386,66fa4ebf79326e780c390304,,,,,,,,,,,,,,,,,,,,,191.8083,191.8083,191.8097,192.6417,0,1,left,0.2997,,192.6445,192.6465,,0,,192.6486,192.6507,,0,,0,192.6508,192.6508,192.6526,194.1423,0,44,44,44,1,0.2,0.8,0.6,0.4,1,0,,,,,,,,,,,,,,,,,,,,,,,,,,,,,,,,,,,,
,,64e114532a07493224e3a5a1,66fc995d5bc6dc80a61d5245,2024-10-02_13h55.02.994,mdp,2024.2.1,Linux x86_64,60.24096386,66fa4ebf79326e780c390304,,,,,,,,,,,,,,,,,,,,,194.1432,194.1433,194.1462,194.9429,1,1,right,0.2725,,194.9459,194.9477,,1,,194.9498,194.9515,,1,,0,194.9516,194.9516,194.9533,196.4434,0,45,45,45,1,0.8,0.2,0.2,0.8,1,0,,,,,,,,,,,,,,,,,,,,,,,,,,,,,,,,,,,,
,,64e114532a07493224e3a5a1,66fc995d5bc6dc80a61d5245,2024-10-02_13h55.02.994,mdp,2024.2.1,Linux x86_64,60.24096386,66fa4ebf79326e780c390304,,,,,,,,,,,,,,,,,,,,,196.4444,196.4444,196.4473,197.2935,0,0,left,0.3238,,197.295,197.2962,,0,,197.2973,197.298,,0,,1,197.2981,197.2981,197.2988,198.7944,0,46,46,46,1,0.8,0.2,0.2,0.8,1,0,,,,,,,,,,,,,,,,,,,,,,,,,,,,,,,,,,,,
,,64e114532a07493224e3a5a1,66fc995d5bc6dc80a61d5245,2024-10-02_13h55.02.994,mdp,2024.2.1,Linux x86_64,60.24096386,66fa4ebf79326e780c390304,,,,,,,,,,,,,,,,,,,,,198.7953,198.7954,198.7981,199.4614,0,1,left,0.1318,,199.4643,199.4664,,0,,199.468,199.4688,,0,,0,199.4688,199.4688,199.4697,200.9622,0,47,47,47,1,0.8,0.2,0.2,0.8,1,0,,,,,,,,,,,,,,,,,,,,,,,,,,,,,,,,,,,,
,,64e114532a07493224e3a5a1,66fc995d5bc6dc80a61d5245,2024-10-02_13h55.02.994,mdp,2024.2.1,Linux x86_64,60.24096386,66fa4ebf79326e780c390304,,,,,,,,,,,,,,,,,,,,,200.9631,200.9631,200.9659,201.929,0,0,left,0.4332,,201.9303,201.9312,,0,,201.9323,201.9331,,0,,1,201.9332,201.9332,201.9339,203.4299,0,48,48,48,1,0.8,0.2,0.2,0.8,1,0,,,,,,,,,,,,,,,,,,,,,,,,,,,,,,,,,,,,
,,64e114532a07493224e3a5a1,66fc995d5bc6dc80a61d5245,2024-10-02_13h55.02.994,mdp,2024.2.1,Linux x86_64,60.24096386,66fa4ebf79326e780c390304,,,,,,,,,,,,,,,,,,,,,203.4308,203.4308,203.434,205.6646,0,1,left,1.7071,,205.6674,205.6693,,1,,205.6715,205.6733,,1,,0,205.6735,205.6736,205.6753,207.1652,0,49,49,49,1,0.4,0.6,0.8,0.2,1,0,,,,,,,,,,,,,,,,,,,,,,,,,,,,,,,,,,,,
,,64e114532a07493224e3a5a1,66fc995d5bc6dc80a61d5245,2024-10-02_13h55.02.994,mdp,2024.2.1,Linux x86_64,60.24096386,66fa4ebf79326e780c390304,,,,,,,,,,,,,,,,,,,,,,,,,,,,,,,,,,,,,,,,,,,,,,,,,,,,,,,,207.1663,285.5116,0,0,0,5,1,imgs/giraffe.png,imgs/horse.png,imgs/lion.png,imgs/elephant.png,imgs/rabbit.png,,,,,,,,,,,,,,,,,,,,,,,,
,,64e114532a07493224e3a5a1,66fc995d5bc6dc80a61d5245,2024-10-02_13h55.02.994,mdp,2024.2.1,Linux x86_64,60.24096386,66fa4ebf79326e780c390304,,,,,,,,,,,,,,2,seqs/st2seq24.csv,285.5267,286.8506,space,0.806,,286.8612,286.8612,286.8631,288.0012,0,1,left,0.5939,,288.0027,289.8025,0,1,left,289.8063,289.8087,,1,,0,289.8088,289.8088,289.8111,291.3031,0,0,0,0,1,0.6,0.4,0.4,0.6,,,,,,,,,,,,,,,1.2697,,0.2,0.8,0.6,0.4,0.2,0.8,0.6,0.4,1,0,,,,,,,,,,,,
,,64e114532a07493224e3a5a1,66fc995d5bc6dc80a61d5245,2024-10-02_13h55.02.994,mdp,2024.2.1,Linux x86_64,60.24096386,66fa4ebf79326e780c390304,,,,,,,,,,,,,,,,,,,,,291.3042,291.3043,291.3071,292.2196,1,1,right,0.3863,,292.2211,293.3035,0,0,left,293.3051,293.3063,,1,,1,293.3064,293.3064,293.3074,294.8045,0,1,1,1,1,0.6,0.4,0.4,0.6,,,,,,,,,,,,,,,0.5693,,0.2,0.8,0.6,0.4,0.2,0.8,0.6,0.4,1,0,,,,,,,,,,,,
,,64e114532a07493224e3a5a1,66fc995d5bc6dc80a61d5245,2024-10-02_13h55.02.994,mdp,2024.2.1,Linux x86_64,60.24096386,66fa4ebf79326e780c390304,,,,,,,,,,,,,,,,,,,,,294.8055,294.8055,294.8085,295.8051,0,0,left,0.4707,,295.8084,296.7719,1,1,right,296.7733,296.7742,,1,,0,296.7743,296.7743,296.7752,298.2724,0,2,2,2,1,0.6,0.4,0.4,0.6,,,,,,,,,,,,,,,0.4158,,0.2,0.8,0.6,0.4,0.2,0.8,0.6,0.4,1,0,,,,,,,,,,,,
,,64e114532a07493224e3a5a1,66fc995d5bc6dc80a61d5245,2024-10-02_13h55.02.994,mdp,2024.2.1,Linux x86_64,60.24096386,66fa4ebf79326e780c390304,,,,,,,,,,,,,,,,,,,,,298.2734,298.2734,298.2754,299.2733,0,0,left,0.4658,,299.2761,300.2071,0,1,left,300.21,300.2119,,0,,0,300.2121,300.2121,300.2141,301.7074,0,3,3,3,1,0.6,0.4,0.4,0.6,,,,,,,,,,,,,,,0.3999,,0.2,0.8,0.6,0.4,0.2,0.8,0.6,0.4,1,0,,,,,,,,,,,,
,,64e114532a07493224e3a5a1,66fc995d5bc6dc80a61d5245,2024-10-02_13h55.02.994,mdp,2024.2.1,Linux x86_64,60.24096386,66fa4ebf79326e780c390304,,,,,,,,,,,,,,,,,,,,,301.7079,301.7079,301.7093,302.7751,1,0,right,0.5361,,302.7782,303.5916,1,0,right,303.593,303.5939,,0,,1,303.5939,303.594,303.5949,305.0926,0,4,4,4,1,0.6,0.4,0.4,0.6,,,,,,,,,,,,,,,0.2795,,0.2,0.8,0.6,0.4,0.2,0.8,0.6,0.4,1,0,,,,,,,,,,,,
,,64e114532a07493224e3a5a1,66fc995d5bc6dc80a61d5245,2024-10-02_13h55.02.994,mdp,2024.2.1,Linux x86_64,60.24096386,66fa4ebf79326e780c390304,,,,,,,,,,,,,,,,,,,,,305.0934,305.0935,305.0965,307.1268,1,1,right,1.5074,,307.1299,308.5443,0,1,left,308.5472,308.5497,,1,,0,308.5498,308.5498,308.5519,310.0449,0,5,5,5,1,0.6,0.4,0.4,0.6,,,,,,,,,,,,,,,0.8715,,0.2,0.8,0.6,0.4,0.2,0.8,0.6,0.4,1,0,,,,,,,,,,,,
,,64e114532a07493224e3a5a1,66fc995d5bc6dc80a61d5245,2024-10-02_13h55.02.994,mdp,2024.2.1,Linux x86_64,60.24096386,66fa4ebf79326e780c390304,,,,,,,,,,,,,,,,,,,,,310.0458,310.0459,310.0486,310.8952,0,0,left,0.3197,,310.8981,311.7126,0,1,left,311.7156,311.7174,,1,,0,311.7176,311.7176,311.7197,313.2129,0,6,6,6,1,0.6,0.4,0.4,0.6,,,,,,,,,,,,,,,0.2801,,0.2,0.8,0.6,0.4,0.2,0.8,0.6,0.4,1,0,,,,,,,,,,,,
,,64e114532a07493224e3a5a1,66fc995d5bc6dc80a61d5245,2024-10-02_13h55.02.994,mdp,2024.2.1,Linux x86_64,60.24096386,66fa4ebf79326e780c390304,,,,,,,,,,,,,,,,,,,,,313.2137,313.2138,313.2165,314.1633,0,0,left,0.4174,,314.1662,315.0138,1,0,right,315.0166,315.0185,,1,,1,315.0187,315.0187,315.0207,316.5145,0,7,7,7,1,0.6,0.4,0.4,0.6,,,,,,,,,,,,,,,0.3201,,0.2,0.8,0.6,0.4,0.2,0.8,0.6,0.4,1,0,,,,,,,,,,,,
,,64e114532a07493224e3a5a1,66fc995d5bc6dc80a61d5245,2024-10-02_13h55.02.994,mdp,2024.2.1,Linux x86_64,60.24096386,66fa4ebf79326e780c390304,,,,,,,,,,,,,,,,,,,,,316.5154,316.5155,316.5183,317.5649,0,0,left,0.5186,,317.5677,318.9324,1,0,right,318.9353,318.9372,,0,,1,318.9373,318.9374,318.9394,320.4329,0,8,8,8,1,0.6,0.4,0.4,0.6,,,,,,,,,,,,,,,0.8321,,0.2,0.8,0.6,0.4,0.2,0.8,0.6,0.4,1,0,,,,,,,,,,,,
,,64e114532a07493224e3a5a1,66fc995d5bc6dc80a61d5245,2024-10-02_13h55.02.994,mdp,2024.2.1,Linux x86_64,60.24096386,66fa4ebf79326e780c390304,,,,,,,,,,,,,,,,,,,,,320.4338,320.4338,320.4366,321.3665,0,1,left,0.399,,321.3689,323.1174,0,1,left,323.1204,323.1223,,1,,0,323.1225,323.1225,323.1246,324.6181,0,9,9,9,1,0.6,0.4,0.4,0.6,,,,,,,,,,,,,,,1.2186,,0.2,0.8,0.6,0.4,0.2,0.8,0.6,0.4,1,0,,,,,,,,,,,,
,,64e114532a07493224e3a5a1,66fc995d5bc6dc80a61d5245,2024-10-02_13h55.02.994,mdp,2024.2.1,Linux x86_64,60.24096386,66fa4ebf79326e780c390304,,,,,,,,,,,,,,,,,,,,,324.6191,324.6191,324.6218,326.4857,0,0,left,1.3352,,326.4886,329.0034,1,0,right,329.0064,329.0083,,1,,1,329.0084,329.0085,329.0105,330.5041,0,10,10,10,1,0.6,0.4,0.4,0.6,,,,,,,,,,,,,,,1.9697,,0.2,0.8,0.6,0.4,0.8,0.2,0.8,0.2,1,0,,,,,,,,,,,,
,,64e114532a07493224e3a5a1,66fc995d5bc6dc80a61d5245,2024-10-02_13h55.02.994,mdp,2024.2.1,Linux x86_64,60.24096386,66fa4ebf79326e780c390304,,,,,,,,,,,,,,,,,,,,,330.5052,330.5052,330.5084,331.7216,0,0,left,0.6893,,331.7246,333.072,1,0,right,333.0749,333.0769,,1,,1,333.077,333.0771,333.079,334.5726,0,11,11,11,1,0.6,0.4,0.4,0.6,,,,,,,,,,,,,,,0.8154,,0.2,0.8,0.6,0.4,0.8,0.2,0.8,0.2,1,0,,,,,,,,,,,,
,,64e114532a07493224e3a5a1,66fc995d5bc6dc80a61d5245,2024-10-02_13h55.02.994,mdp,2024.2.1,Linux x86_64,60.24096386,66fa4ebf79326e780c390304,,,,,,,,,,,,,,,,,,,,,334.5735,334.5735,334.5765,335.7731,0,1,left,0.6728,,335.7767,338.3743,1,0,right,338.3773,338.3791,,0,,1,338.3792,338.3793,338.3813,339.8751,0,12,12,12,1,0.6,0.4,0.4,0.6,,,,,,,,,,,,,,,2.0625,,0.6,0.4,0.2,0.8,0.8,0.2,0.8,0.2,1,0,,,,,,,,,,,,
,,64e114532a07493224e3a5a1,66fc995d5bc6dc80a61d5245,2024-10-02_13h55.02.994,mdp,2024.2.1,Linux x86_64,60.24096386,66fa4ebf79326e780c390304,,,,,,,,,,,,,,,,,,,,,339.876,339.8761,339.8788,340.7925,0,0,left,0.3861,,340.7953,342.0761,1,1,right,342.079,342.0808,,1,,0,342.081,342.081,342.083,343.5764,0,13,13,13,1,0.6,0.4,0.4,0.6,,,,,,,,,,,,,,,0.7503,,0.6,0.4,0.2,0.8,0.8,0.2,0.8,0.2,1,0,,,,,,,,,,,,
,,64e114532a07493224e3a5a1,66fc995d5bc6dc80a61d5245,2024-10-02_13h55.02.994,mdp,2024.2.1,Linux x86_64,60.24096386,66fa4ebf79326e780c390304,,,,,,,,,,,,,,,,,,,,,343.5771,343.5771,343.5789,344.5774,0,0,left,0.4658,,344.5804,345.9112,0,0,left,345.9141,345.916,,0,,1,345.9161,345.9162,345.9182,347.4118,0,14,14,14,1,0.6,0.4,0.4,0.6,,,,,,,,,,,,,,,0.7986,,0.6,0.4,0.2,0.8,0.8,0.2,0.8,0.2,1,0,,,,,,,,,,,,
,,64e114532a07493224e3a5a1,66fc995d5bc6dc80a61d5245,2024-10-02_13h55.02.994,mdp,2024.2.1,Linux x86_64,60.24096386,66fa4ebf79326e780c390304,,,,,,,,,,,,,,,,,,,,,347.4127,347.4127,347.4156,349.2124,0,0,left,1.2695,,349.2173,350.3626,0,0,left,350.3639,350.3648,,0,,1,350.3649,350.3649,350.3657,351.8637,0,15,15,15,1,0.6,0.4,0.4,0.6,,,,,,,,,,,,,,,0.6362,,0.6,0.4,0.2,0.8,0.8,0.2,0.8,0.2,1,0,,,,,,,,,,,,
,,64e114532a07493224e3a5a1,66fc995d5bc6dc80a61d5245,2024-10-02_13h55.02.994,mdp,2024.2.1,Linux x86_64,60.24096386,66fa4ebf79326e780c390304,,,,,,,,,,,,,,,,,,,,,351.8648,351.8648,351.8679,353.5478,0,0,left,1.1486,,353.5507,354.6151,0,0,left,354.6181,354.62,,0,,1,354.6202,354.6202,354.6221,356.1157,0,16,16,16,1,0.6,0.4,0.4,0.6,,,,,,,,,,,,,,,0.5538,,0.6,0.4,0.2,0.8,0.8,0.2,0.8,0.2,1,0,,,,,,,,,,,,
,,64e114532a07493224e3a5a1,66fc995d5bc6dc80a61d5245,2024-10-02_13h55.02.994,mdp,2024.2.1,Linux x86_64,60.24096386,66fa4ebf79326e780c390304,,,,,,,,,,,,,,,,,,,,,356.1166,356.1166,356.1194,357.9999,0,0,left,1.3552,,358.0027,359.1337,0,1,left,359.1366,359.1385,,1,,0,359.1386,359.1386,359.1407,360.6341,0,17,17,17,1,0.6,0.4,0.4,0.6,,,,,,,,,,,,,,,0.607,,0.6,0.4,0.2,0.8,0.8,0.2,0.8,0.2,1,0,,,,,,,,,,,,
,,64e114532a07493224e3a5a1,66fc995d5bc6dc80a61d5245,2024-10-02_13h55.02.994,mdp,2024.2.1,Linux x86_64,60.24096386,66fa4ebf79326e780c390304,,,,,,,,,,,,,,,,,,,,,360.6348,360.6349,360.637,362.0682,0,1,left,0.9036,,362.0696,363.6691,1,0,right,363.672,363.674,,1,,1,363.6741,363.6741,363.6761,365.1695,0,18,18,18,1,0.6,0.4,0.4,0.6,,,,,,,,,,,,,,,1.0759,,0.6,0.4,0.2,0.8,0.8,0.2,0.8,0.2,1,0,,,,,,,,,,,,
,,64e114532a07493224e3a5a1,66fc995d5bc6dc80a61d5245,2024-10-02_13h55.02.994,mdp,2024.2.1,Linux x86_64,60.24096386,66fa4ebf79326e780c390304,,,,,,,,,,,,,,,,,,,,,365.171,365.171,365.1737,366.6201,0,1,left,0.9197,,366.6219,367.8208,1,0,right,367.8235,367.8252,,0,,1,367.8253,367.8253,367.8271,369.3214,0,19,19,19,1,0.6,0.4,0.4,0.6,,,,,,,,,,,,,,,0.6913,,0.6,0.4,0.2,0.8,0.8,0.2,0.8,0.2,1,0,,,,,,,,,,,,
,,64e114532a07493224e3a5a1,66fc995d5bc6dc80a61d5245,2024-10-02_13h55.02.994,mdp,2024.2.1,Linux x86_64,60.24096386,66fa4ebf79326e780c390304,,,,,,,,,,,,,,,,,,,,,369.322,369.322,369.3234,370.5555,0,0,left,0.6945,,370.557,371.5726,1,0,right,371.5757,371.5778,,1,,1,371.5779,371.578,371.5802,373.0734,0,20,20,20,1,0.6,0.4,0.4,0.6,,,,,,,,,,,,,,,0.4861,,0.6,0.4,0.2,0.8,0.8,0.2,0.8,0.2,1,0,,,,,,,,,,,,
,,64e114532a07493224e3a5a1,66fc995d5bc6dc80a61d5245,2024-10-02_13h55.02.994,mdp,2024.2.1,Linux x86_64,60.24096386,66fa4ebf79326e780c390304,,,,,,,,,,,,,,,,,,,,,373.0744,373.0745,373.0772,373.9405,0,1,left,0.3356,,373.9434,374.7075,1,0,right,374.7106,374.7125,,0,,1,374.7126,374.7126,374.7147,376.2077,0,21,21,21,1,0.6,0.4,0.4,0.6,,,,,,,,,,,,,,,0.2199,,0.6,0.4,0.2,0.8,0.8,0.2,0.8,0.2,1,0,,,,,,,,,,,,
,,64e114532a07493224e3a5a1,66fc995d5bc6dc80a61d5245,2024-10-02_13h55.02.994,mdp,2024.2.1,Linux x86_64,60.24096386,66fa4ebf79326e780c390304,,,,,,,,,,,,,,,,,,,,,376.2085,376.2086,376.2113,377.0751,0,0,left,0.3348,,377.078,377.909,1,0,right,377.912,377.914,,1,,1,377.9141,377.9141,377.9161,379.4097,0,22,22,22,1,0.6,0.4,0.4,0.6,,,,,,,,,,,,,,,0.2891,,0.6,0.4,0.2,0.8,0.2,0.8,0.6,0.4,1,0,,,,,,,,,,,,
,,64e114532a07493224e3a5a1,66fc995d5bc6dc80a61d5245,2024-10-02_13h55.02.994,mdp,2024.2.1,Linux x86_64,60.24096386,66fa4ebf79326e780c390304,,,,,,,,,,,,,,,,,,,,,379.4107,379.4107,379.4136,379.9432,0,0,left,0.0051,,379.9467,380.5436,1,0,right,380.5464,380.5483,,1,,1,380.5484,380.5484,380.5505,382.0441,0,23,23,23,1,0.6,0.4,0.4,0.6,,,,,,,,,,,,,,,0.0666,,0.6,0.4,0.2,0.8,0.2,0.8,0.6,0.4,1,0,,,,,,,,,,,,
,,64e114532a07493224e3a5a1,66fc995d5bc6dc80a61d5245,2024-10-02_13h55.02.994,mdp,2024.2.1,Linux x86_64,60.24096386,66fa4ebf79326e780c390304,,,,,,,,,,,,,,,,,,,,,382.045,382.045,382.0477,382.7945,0,0,left,0.2197,,382.7974,383.7616,1,1,right,383.7645,383.7663,,1,,0,383.7665,383.7665,383.7686,385.2626,0,24,24,24,1,0.6,0.4,0.4,0.6,,,,,,,,,,,,,,,0.4322,,0.6,0.4,0.2,0.8,0.2,0.8,0.6,0.4,1,0,,,,,,,,,,,,
,,64e114532a07493224e3a5a1,66fc995d5bc6dc80a61d5245,2024-10-02_13h55.02.994,mdp,2024.2.1,Linux x86_64,60.24096386,66fa4ebf79326e780c390304,,,,,,,,,,,,,,,,,,,,,385.2635,385.2635,385.2662,386.0626,0,0,left,0.2661,,386.0655,386.8301,0,0,left,386.8331,386.8351,,1,,1,386.8352,386.8352,386.8373,388.3303,0,25,25,25,1,0.6,0.4,0.4,0.6,,,,,,,,,,,,,,,0.2405,,0.6,0.4,0.2,0.8,0.2,0.8,0.6,0.4,1,0,,,,,,,,,,,,
,,64e114532a07493224e3a5a1,66fc995d5bc6dc80a61d5245,2024-10-02_13h55.02.994,mdp,2024.2.1,Linux x86_64,60.24096386,66fa4ebf79326e780c390304,,,,,,,,,,,,,,,,,,,,,388.3312,388.3312,388.3341,388.9305,0,0,left,0.0672,,388.9334,389.6475,0,1,left,389.6504,389.6525,,1,,0,389.6527,389.6527,389.6549,391.1484,0,26,26,26,1,0.6,0.4,0.4,0.6,,,,,,,,,,,,,,,0.2033,,0.6,0.4,0.2,0.8,0.2,0.8,0.6,0.4,1,0,,,,,,,,,,,,
,,64e114532a07493224e3a5a1,66fc995d5bc6dc80a61d5245,2024-10-02_13h55.02.994,mdp,2024.2.1,Linux x86_64,60.24096386,66fa4ebf79326e780c390304,,,,,,,,,,,,,,,,,,,,,391.1493,391.1493,391.1521,391.9653,0,0,left,0.2874,,391.9683,392.8652,1,1,right,392.8674,392.8683,,1,,0,392.8684,392.8684,392.8694,394.3663,0,27,27,27,1,0.6,0.4,0.4,0.6,,,,,,,,,,,,,,,0.3837,,0.6,0.4,0.2,0.8,0.2,0.8,0.6,0.4,1,0,,,,,,,,,,,,
,,64e114532a07493224e3a5a1,66fc995d5bc6dc80a61d5245,2024-10-02_13h55.02.994,mdp,2024.2.1,Linux x86_64,60.24096386,66fa4ebf79326e780c390304,,,,,,,,,,,,,,,,,,,,,394.3673,394.3673,394.3701,395.4502,0,0,left,0.5565,,395.453,396.2505,0,1,left,396.2536,396.2555,,1,,0,396.2556,396.2556,396.2577,397.7514,0,28,28,28,1,0.6,0.4,0.4,0.6,,,,,,,,,,,,,,,0.2724,,0.6,0.4,0.2,0.8,0.2,0.8,0.6,0.4,1,0,,,,,,,,,,,,
,,64e114532a07493224e3a5a1,66fc995d5bc6dc80a61d5245,2024-10-02_13h55.02.994,mdp,2024.2.1,Linux x86_64,60.24096386,66fa4ebf79326e780c390304,,,,,,,,,,,,,,,,,,,,,397.7523,397.7523,397.7552,398.7517,1,1,right,0.4698,,398.7546,400.0027,1,1,right,400.0056,400.0074,,0,,0,400.0075,400.0076,400.0097,401.5033,0,29,29,29,1,0.6,0.4,0.4,0.6,,,,,,,,,,,,,,,0.7053,,0.6,0.4,0.2,0.8,0.2,0.8,0.6,0.4,1,0,,,,,,,,,,,,
,,64e114532a07493224e3a5a1,66fc995d5bc6dc80a61d5245,2024-10-02_13h55.02.994,mdp,2024.2.1,Linux x86_64,60.24096386,66fa4ebf79326e780c390304,,,,,,,,,,,,,,,,,,,,,401.5042,401.5042,401.5063,402.8535,0,0,left,0.8183,,402.8564,403.687,0,1,left,403.6899,403.6919,,0,,0,403.692,403.692,403.6944,405.1876,0,30,30,30,1,0.6,0.4,0.4,0.6,,,,,,,,,,,,,,,0.2936,,0.6,0.4,0.2,0.8,0.2,0.8,0.6,0.4,1,0,,,,,,,,,,,,
,,64e114532a07493224e3a5a1,66fc995d5bc6dc80a61d5245,2024-10-02_13h55.02.994,mdp,2024.2.1,Linux x86_64,60.24096386,66fa4ebf79326e780c390304,,,,,,,,,,,,,,,,,,,,,405.1889,405.1889,405.1907,406.155,1,1,right,0.435,,406.1578,407.0721,0,1,left,407.075,407.0769,,1,,0,407.077,407.077,407.079,408.5727,0,31,31,31,1,0.6,0.4,0.4,0.6,,,,,,,,,,,,,,,0.3672,,0.6,0.4,0.2,0.8,0.2,0.8,0.6,0.4,1,0,,,,,,,,,,,,
,,64e114532a07493224e3a5a1,66fc995d5bc6dc80a61d5245,2024-10-02_13h55.02.994,mdp,2024.2.1,Linux x86_64,60.24096386,66fa4ebf79326e780c390304,,,,,,,,,,,,,,,,,,,,,408.5736,408.5737,408.5764,409.4726,1,0,right,0.3651,,409.474,410.3237,0,1,left,410.3265,410.3284,,0,,0,410.3286,410.3286,410.3306,411.8242,0,32,32,32,1,0.6,0.4,0.4,0.6,,,,,,,,,,,,,,,0.3188,,0.6,0.4,0.2,0.8,0.2,0.8,0.6,0.4,1,0,,,,,,,,,,,,
,,64e114532a07493224e3a5a1,66fc995d5bc6dc80a61d5245,2024-10-02_13h55.02.994,mdp,2024.2.1,Linux x86_64,60.24096386,66fa4ebf79326e780c390304,,,,,,,,,,,,,,,,,,,,,411.8252,411.8253,411.8281,412.5075,1,1,right,0.1532,,412.5096,413.3579,1,0,right,413.3606,413.3624,,1,,1,413.3625,413.3626,413.3644,414.8589,0,33,33,33,1,0.6,0.4,0.4,0.6,,,,,,,,,,,,,,,0.3215,,0.6,0.4,0.2,0.8,0.2,0.8,0.6,0.4,1,0,,,,,,,,,,,,
,,64e114532a07493224e3a5a1,66fc995d5bc6dc80a61d5245,2024-10-02_13h55.02.994,mdp,2024.2.1,Linux x86_64,60.24096386,66fa4ebf79326e780c390304,,,,,,,,,,,,,,,,,,,,,414.8596,414.8596,414.8613,415.676,1,1,right,0.2819,,415.6789,416.4425,1,0,right,416.4439,416.445,,1,,1,416.4452,416.4452,416.4461,417.9433,0,34,34,34,1,0.6,0.4,0.4,0.6,,,,,,,,,,,,,,,0.234,,0.6,0.4,0.2,0.8,0.2,0.8,0.6,0.4,1,0,,,,,,,,,,,,
,,64e114532a07493224e3a5a1,66fc995d5bc6dc80a61d5245,2024-10-02_13h55.02.994,mdp,2024.2.1,Linux x86_64,60.24096386,66fa4ebf79326e780c390304,,,,,,,,,,,,,,,,,,,,,417.9442,417.9443,417.947,418.7114,1,0,right,0.2425,,418.7142,419.4443,1,1,right,419.4473,419.4492,,0,,0,419.4494,419.4494,419.4515,420.9451,0,35,35,35,1,0.6,0.4,0.4,0.6,,,,,,,,,,,,,,,0.1974,,0.6,0.4,0.2,0.8,0.8,0.2,0.2,0.8,1,0,,,,,,,,,,,,
,,64e114532a07493224e3a5a1,66fc995d5bc6dc80a61d5245,2024-10-02_13h55.02.994,mdp,2024.2.1,Linux x86_64,60.24096386,66fa4ebf79326e780c390304,,,,,,,,,,,,,,,,,,,,,420.946,420.946,420.9487,421.6959,0,0,left,0.2206,,421.6993,422.5289,0,1,left,422.5314,422.5331,,1,,0,422.5331,422.5332,422.5349,424.0298,0,36,36,36,1,0.6,0.4,0.4,0.6,,,,,,,,,,,,,,,0.303,,0.6,0.4,0.2,0.8,0.8,0.2,0.2,0.8,1,0,,,,,,,,,,,,
,,64e114532a07493224e3a5a1,66fc995d5bc6dc80a61d5245,2024-10-02_13h55.02.994,mdp,2024.2.1,Linux x86_64,60.24096386,66fa4ebf79326e780c390304,,,,,,,,,,,,,,,,,,,,,424.0307,424.0307,424.0335,424.8801,1,1,right,0.3177,,424.8831,425.6472,1,1,right,425.6505,425.6526,,1,,0,425.6527,425.6527,425.6547,427.1478,0,37,37,37,1,0.6,0.4,0.4,0.6,,,,,,,,,,,,,,,0.2227,,0.6,0.4,0.2,0.8,0.8,0.2,0.2,0.8,1,0,,,,,,,,,,,,
,,64e114532a07493224e3a5a1,66fc995d5bc6dc80a61d5245,2024-10-02_13h55.02.994,mdp,2024.2.1,Linux x86_64,60.24096386,66fa4ebf79326e780c390304,,,,,,,,,,,,,,,,,,,,,427.1488,427.1489,427.1518,427.865,1,0,right,0.1922,,427.8679,428.5986,1,1,right,428.6015,428.6035,,1,,0,428.6035,428.6036,428.6056,430.0993,0,38,38,38,1,0.6,0.4,0.4,0.6,,,,,,,,,,,,,,,0.1862,,0.6,0.4,0.2,0.8,0.4,0.6,0.8,0.2,1,0,,,,,,,,,,,,
,,64e114532a07493224e3a5a1,66fc995d5bc6dc80a61d5245,2024-10-02_13h55.02.994,mdp,2024.2.1,Linux x86_64,60.24096386,66fa4ebf79326e780c390304,,,,,,,,,,,,,,,,,,,,,430.1004,430.1004,430.1031,430.966,0,0,left,0.3341,,430.9674,431.6499,1,1,right,431.6527,431.6547,,1,,0,431.655,431.655,431.6571,433.1505,0,39,39,39,1,0.6,0.4,0.4,0.6,,,,,,,,,,,,,,,0.17,,0.6,0.4,0.2,0.8,0.4,0.6,0.8,0.2,1,0,,,,,,,,,,,,
,,64e114532a07493224e3a5a1,66fc995d5bc6dc80a61d5245,2024-10-02_13h55.02.994,mdp,2024.2.1,Linux x86_64,60.24096386,66fa4ebf79326e780c390304,,,,,,,,,,,,,,,,,,,,,433.1514,433.1515,433.1542,434.4513,1,1,right,0.7676,,434.4542,435.1346,0,0,left,435.138,435.1399,,0,,1,435.14,435.14,435.1422,436.6354,0,40,40,40,1,0.6,0.4,0.4,0.6,,,,,,,,,,,,,,,0.1369,,0.6,0.4,0.2,0.8,0.4,0.6,0.8,0.2,1,0,,,,,,,,,,,,
,,64e114532a07493224e3a5a1,66fc995d5bc6dc80a61d5245,2024-10-02_13h55.02.994,mdp,2024.2.1,Linux x86_64,60.24096386,66fa4ebf79326e780c390304,,,,,,,,,,,,,,,,,,,,,436.6364,436.6364,436.6392,437.5026,1,1,right,0.342,,437.5056,438.1696,0,1,left,438.173,438.1748,,0,,0,438.175,438.175,438.177,439.6703,0,41,41,41,1,0.6,0.4,0.4,0.6,,,,,,,,,,,,,,,0.1316,,0.2,0.8,0.8,0.2,0.4,0.6,0.8,0.2,1,0,,,,,,,,,,,,
,,64e114532a07493224e3a5a1,66fc995d5bc6dc80a61d5245,2024-10-02_13h55.02.994,mdp,2024.2.1,Linux x86_64,60.24096386,66fa4ebf79326e780c390304,,,,,,,,,,,,,,,,,,,,,439.6712,439.6712,439.6741,440.454,0,0,left,0.2516,,440.457,441.1542,0,1,left,441.1573,441.1592,,1,,0,441.1593,441.1593,441.1613,442.6548,0,42,42,42,1,0.6,0.4,0.4,0.6,,,,,,,,,,,,,,,0.153,,0.2,0.8,0.8,0.2,0.4,0.6,0.8,0.2,1,0,,,,,,,,,,,,
,,64e114532a07493224e3a5a1,66fc995d5bc6dc80a61d5245,2024-10-02_13h55.02.994,mdp,2024.2.1,Linux x86_64,60.24096386,66fa4ebf79326e780c390304,,,,,,,,,,,,,,,,,,,,,442.6557,442.6557,442.6585,443.4382,0,1,left,0.2536,,443.4399,444.1055,0,1,left,444.1086,444.1105,,0,,0,444.1106,444.1107,444.1127,445.6062,0,43,43,43,1,0.6,0.4,0.4,0.6,,,,,,,,,,,,,,,0.1372,,0.2,0.8,0.8,0.2,0.4,0.6,0.8,0.2,1,0,,,,,,,,,,,,
,,64e114532a07493224e3a5a1,66fc995d5bc6dc80a61d5245,2024-10-02_13h55.02.994,mdp,2024.2.1,Linux x86_64,60.24096386,66fa4ebf79326e780c390304,,,,,,,,,,,,,,,,,,,,,445.6074,445.6074,445.6101,446.5566,0,0,left,0.4185,,446.5594,447.2905,0,1,left,447.2938,447.2961,,1,,0,447.2962,447.2962,447.2985,448.7911,0,44,44,44,1,0.6,0.4,0.4,0.6,,,,,,,,,,,,,,,0.1866,,0.2,0.8,0.8,0.2,0.4,0.6,0.8,0.2,1,0,,,,,,,,,,,,
,,64e114532a07493224e3a5a1,66fc995d5bc6dc80a61d5245,2024-10-02_13h55.02.994,mdp,2024.2.1,Linux x86_64,60.24096386,66fa4ebf79326e780c390304,,,,,,,,,,,,,,,,,,,,,448.7921,448.7922,448.7951,449.358,0,0,left,0.0367,,449.3609,450.1082,0,1,left,450.111,450.113,,1,,0,450.1131,450.1131,450.1153,451.6089,0,45,45,45,1,0.6,0.4,0.4,0.6,,,,,,,,,,,,,,,0.2153,,0.2,0.8,0.8,0.2,0.4,0.6,0.8,0.2,1,0,,,,,,,,,,,,
,,64e114532a07493224e3a5a1,66fc995d5bc6dc80a61d5245,2024-10-02_13h55.02.994,mdp,2024.2.1,Linux x86_64,60.24096386,66fa4ebf79326e780c390304,,,,,,,,,,,,,,,,,,,,,451.6098,451.6098,451.6126,452.4256,0,0,left,0.284,,452.427,452.9928,0,1,left,452.996,452.9978,,1,,0,452.998,452.998,453.0001,454.4935,0,46,46,46,1,0.6,0.4,0.4,0.6,,,,,,,,,,,,,,,0.0495,,0.2,0.8,0.8,0.2,0.4,0.6,0.8,0.2,1,0,,,,,,,,,,,,
,,64e114532a07493224e3a5a1,66fc995d5bc6dc80a61d5245,2024-10-02_13h55.02.994,mdp,2024.2.1,Linux x86_64,60.24096386,66fa4ebf79326e780c390304,,,,,,,,,,,,,,,,,,,,,454.4945,454.4945,454.4972,455.3271,1,1,right,0.3075,,455.3301,456.1611,0,1,left,456.164,456.1659,,0,,0,456.166,456.166,456.168,457.6617,0,47,47,47,1,0.6,0.4,0.4,0.6,,,,,,,,,,,,,,,0.3062,,0.2,0.8,0.8,0.2,0.4,0.6,0.8,0.2,1,0,,,,,,,,,,,,
,,64e114532a07493224e3a5a1,66fc995d5bc6dc80a61d5245,2024-10-02_13h55.02.994,mdp,2024.2.1,Linux x86_64,60.24096386,66fa4ebf79326e780c390304,,,,,,,,,,,,,,,,,,,,,457.6626,457.6626,457.6653,458.2449,1,1,right,0.0493,,458.2477,458.8956,1,0,right,458.8985,458.9003,,1,,1,458.9004,458.9005,458.9025,460.3964,0,48,48,48,1,0.6,0.4,0.4,0.6,,,,,,,,,,,,,,,0.136,,0.2,0.8,0.8,0.2,0.4,0.6,0.8,0.2,1,0,,,,,,,,,,,,
,,64e114532a07493224e3a5a1,66fc995d5bc6dc80a61d5245,2024-10-02_13h55.02.994,mdp,2024.2.1,Linux x86_64,60.24096386,66fa4ebf79326e780c390304,,,,,,,,,,,,,,,,,,,,,460.3972,460.3973,460.4001,461.2629,1,0,right,0.3327,,461.2656,461.8969,1,0,right,461.8997,461.9016,,0,,1,461.9017,461.9017,461.9037,463.3976,0,49,49,49,1,0.6,0.4,0.4,0.6,,,,,,,,,,,,,,,0.1074,,0.2,0.8,0.8,0.2,0.4,0.6,0.8,0.2,1,0,,,,,,,,,,,,
,,64e114532a07493224e3a5a1,66fc995d5bc6dc80a61d5245,2024-10-02_13h55.02.994,mdp,2024.2.1,Linux x86_64,60.24096386,66fa4ebf79326e780c390304,,,,,,,,,,,,,,,,,,,,,,,,,,,,,,,,,,,,,,,,,,,,,,,,,,,,,,,,463.3978,521.907,0,1,1,7,1,imgs/kangaroo.png,imgs/lion.png,imgs/giraffe.png,imgs/pig.png,imgs/rabbit.png,,,,,,,,,,,,,,,,,,,,,,,,
,,64e114532a07493224e3a5a1,66fc995d5bc6dc80a61d5245,2024-10-02_13h55.02.994,mdp,2024.2.1,Linux x86_64,60.24096386,66fa4ebf79326e780c390304,,,,,,,,,,,,,,3,seqs/st3seq27.csv,521.9086,551.0706,space,28.6318,,551.0907,551.0907,551.0924,552.9556,0,0,left,1.3263,,552.9588,553.8554,0,0,left,553.8584,555.2893,0,1,left,0,555.2895,555.2895,555.2924,556.7899,0,0,0,0,1,0.8,0.2,0.6,0.4,,,,,,,,,,,,,,,0.3459,,0.4,0.6,0.8,0.2,0.8,0.2,0.2,0.8,,,0.8839,,0.6,0.4,0.8,0.2,0.4,0.6,0.4,0.6,1,0
,,64e114532a07493224e3a5a1,66fc995d5bc6dc80a61d5245,2024-10-02_13h55.02.994,mdp,2024.2.1,Linux x86_64,60.24096386,66fa4ebf79326e780c390304,,,,,,,,,,,,,,,,,,,,,556.7913,556.7914,556.7939,557.7407,1,0,right,0.4243,,557.7437,558.691,1,0,right,558.6927,559.5422,1,0,right,1,559.5424,559.5425,559.5452,561.0419,0,1,1,1,1,0.8,0.2,0.6,0.4,,,,,,,,,,,,,,,0.4198,,0.4,0.6,0.8,0.2,0.8,0.2,0.2,0.8,,,0.3248,,0.6,0.4,0.8,0.2,0.4,0.6,0.4,0.6,1,0
,,64e114532a07493224e3a5a1,66fc995d5bc6dc80a61d5245,2024-10-02_13h55.02.994,mdp,2024.2.1,Linux x86_64,60.24096386,66fa4ebf79326e780c390304,,,,,,,,,,,,,,,,,,,,,561.043,561.043,561.0458,562.1586,1,0,right,0.5801,,562.1615,563.1263,1,0,right,563.1294,563.91,1,0,right,1,563.9101,563.9102,563.913,565.4108,0,2,2,2,1,0.8,0.2,0.6,0.4,,,,,,,,,,,,,,,0.451,,0.4,0.6,0.8,0.2,0.8,0.2,0.2,0.8,,,0.2521,,0.6,0.4,0.8,0.2,0.4,0.6,0.4,0.6,1,0
,,64e114532a07493224e3a5a1,66fc995d5bc6dc80a61d5245,2024-10-02_13h55.02.994,mdp,2024.2.1,Linux x86_64,60.24096386,66fa4ebf79326e780c390304,,,,,,,,,,,,,,,,,,,,,565.4122,565.4122,565.4149,566.1943,1,1,right,0.2523,,566.1973,566.9945,1,1,right,566.9976,567.8284,1,0,right,1,567.8287,567.8287,567.8318,569.3292,0,3,3,3,1,0.8,0.2,0.6,0.4,,,,,,,,,,,,,,,0.2529,,0.4,0.6,0.8,0.2,0.8,0.2,0.2,0.8,,,0.2828,,0.6,0.4,0.8,0.2,0.4,0.6,0.4,0.6,1,0
,,64e114532a07493224e3a5a1,66fc995d5bc6dc80a61d5245,2024-10-02_13h55.02.994,mdp,2024.2.1,Linux x86_64,60.24096386,66fa4ebf79326e780c390304,,,,,,,,,,,,,,,,,,,,,569.3305,569.3305,569.3327,570.1461,1,0,right,0.2833,,570.1491,570.8797,1,0,right,570.8826,571.7137,1,0,right,1,571.7139,571.7139,571.7175,573.2137,0,4,4,4,1,0.8,0.2,0.6,0.4,,,,,,,,,,,,,,,0.1895,,0.4,0.6,0.8,0.2,0.8,0.2,0.2,0.8,,,0.2913,,0.6,0.4,0.8,0.2,0.8,0.2,0.2,0.8,1,0
,,64e114532a07493224e3a5a1,66fc995d5bc6dc80a61d5245,2024-10-02_13h55.02.994,mdp,2024.2.1,Linux x86_64,60.24096386,66fa4ebf79326e780c390304,,,,,,,,,,,,,,,,,,,,,573.2143,573.2143,573.2155,573.8977,1,0,right,0.1531,,573.9006,574.6481,1,0,right,574.6511,575.3984,1,0,right,1,575.3986,575.3986,575.4014,576.8992,0,5,5,5,1,0.8,0.2,0.6,0.4,,,,,,,,,,,,,,,0.2177,,0.4,0.6,0.8,0.2,0.8,0.2,0.2,0.8,,,0.2174,,0.6,0.4,0.8,0.2,0.8,0.2,0.2,0.8,1,0
,,64e114532a07493224e3a5a1,66fc995d5bc6dc80a61d5245,2024-10-02_13h55.02.994,mdp,2024.2.1,Linux x86_64,60.24096386,66fa4ebf79326e780c390304,,,,,,,,,,,,,,,,,,,,,576.9005,576.9005,576.9031,577.6327,1,0,right,0.2044,,577.6356,578.3158,1,0,right,578.3172,579.1002,1,1,right,0,579.1004,579.1004,579.1032,580.6006,0,6,6,6,1,0.8,0.2,0.6,0.4,,,,,,,,,,,,,,,0.1507,,0.4,0.6,0.8,0.2,0.8,0.2,0.2,0.8,,,0.2701,,0.6,0.4,0.8,0.2,0.8,0.2,0.2,0.8,1,0
,,64e114532a07493224e3a5a1,66fc995d5bc6dc80a61d5245,2024-10-02_13h55.02.994,mdp,2024.2.1,Linux x86_64,60.24096386,66fa4ebf79326e780c390304,,,,,,,,,,,,,,,,,,,,,580.6017,580.6017,580.6045,581.3839,0,1,left,0.2549,,581.3853,582.2013,0,0,left,582.2044,583.0184,0,0,left,1,583.0186,583.0186,583.0214,584.5192,0,7,7,7,1,0.8,0.2,0.6,0.4,,,,,,,,,,,,,,,0.2896,,0.4,0.6,0.8,0.2,0.8,0.2,0.2,0.8,,,0.288,,0.6,0.4,0.8,0.2,0.8,0.2,0.2,0.8,1,0
,,64e114532a07493224e3a5a1,66fc995d5bc6dc80a61d5245,2024-10-02_13h55.02.994,mdp,2024.2.1,Linux x86_64,60.24096386,66fa4ebf79326e780c390304,,,,,,,,,,,,,,,,,,,,,584.5203,584.5203,584.5233,585.3195,0,1,left,0.2658,,585.3225,586.1032,0,1,left,586.1061,586.8032,0,0,left,1,586.8033,586.8033,586.8046,588.3041,0,8,8,8,1,0.8,0.2,0.6,0.4,,,,,,,,,,,,,,,0.2557,,0.4,0.6,0.8,0.2,0.8,0.2,0.2,0.8,,,0.1518,,0.6,0.4,0.8,0.2,0.8,0.2,0.2,0.8,1,0
,,64e114532a07493224e3a5a1,66fc995d5bc6dc80a61d5245,2024-10-02_13h55.02.994,mdp,2024.2.1,Linux x86_64,60.24096386,66fa4ebf79326e780c390304,,,,,,,,,,,,,,,,,,,,,588.3052,588.3052,588.3081,589.1545,0,0,left,0.3139,,589.1575,589.8048,0,1,left,589.8079,590.4386,0,0,left,1,590.4387,590.4387,590.4415,591.9391,0,9,9,9,1,0.8,0.2,0.6,0.4,,,,,,,,,,,,,,,0.1033,,0.4,0.6,0.8,0.2,0.8,0.2,0.2,0.8,,,0.1041,,0.6,0.4,0.8,0.2,0.8,0.2,0.2,0.8,1,0
,,64e114532a07493224e3a5a1,66fc995d5bc6dc80a61d5245,2024-10-02_13h55.02.994,mdp,2024.2.1,Linux x86_64,60.24096386,66fa4ebf79326e780c390304,,,,,,,,,,,,,,,,,,,,,591.9401,591.9402,591.9431,592.9398,1,0,right,0.4675,,592.943,593.7566,1,0,right,593.7597,594.4229,1,0,right,1,594.423,594.423,594.4244,595.9245,0,10,10,10,1,0.8,0.2,0.6,0.4,,,,,,,,,,,,,,,0.2791,,0.4,0.6,0.8,0.2,0.8,0.2,0.2,0.8,,,0.1266,,0.6,0.4,0.8,0.2,0.8,0.2,0.2,0.8,1,0
,,64e114532a07493224e3a5a1,66fc995d5bc6dc80a61d5245,2024-10-02_13h55.02.994,mdp,2024.2.1,Linux x86_64,60.24096386,66fa4ebf79326e780c390304,,,,,,,,,,,,,,,,,,,,,595.9259,595.926,595.9291,596.7243,1,0,right,0.2683,,596.7258,597.3084,1,1,right,597.3114,598.292,1,1,right,0,598.2922,598.2922,598.2953,599.7924,0,11,11,11,1,0.6,0.4,0.2,0.8,,,,,,,,,,,,,,,0.0683,,0.4,0.6,0.8,0.2,0.8,0.2,0.2,0.8,,,0.4446,,0.6,0.4,0.8,0.2,0.8,0.2,0.2,0.8,1,0
,,64e114532a07493224e3a5a1,66fc995d5bc6dc80a61d5245,2024-10-02_13h55.02.994,mdp,2024.2.1,Linux x86_64,60.24096386,66fa4ebf79326e780c390304,,,,,,,,,,,,,,,,,,,,,599.7929,599.7929,599.7942,600.693,0,0,left,0.368,,600.696,601.2772,0,1,left,601.28,601.8771,0,0,left,1,601.8773,601.8774,601.8802,603.3776,0,12,12,12,1,0.8,0.2,0.6,0.4,,,,,,,,,,,,,,,0.059,,0.4,0.6,0.8,0.2,0.8,0.2,0.2,0.8,,,0.0768,,0.6,0.4,0.8,0.2,0.8,0.2,0.2,0.8,1,0
,,64e114532a07493224e3a5a1,66fc995d5bc6dc80a61d5245,2024-10-02_13h55.02.994,mdp,2024.2.1,Linux x86_64,60.24096386,66fa4ebf79326e780c390304,,,,,,,,,,,,,,,,,,,,,603.3787,603.3788,603.3816,604.0947,0,0,left,0.187,,604.0975,604.9451,0,1,left,604.948,605.6621,0,0,left,1,605.6624,605.6625,605.6655,607.1626,0,13,13,13,1,0.8,0.2,0.6,0.4,,,,,,,,,,,,,,,0.3189,,0.4,0.6,0.8,0.2,0.8,0.2,0.2,0.8,,,0.1836,,0.6,0.4,0.8,0.2,0.8,0.2,0.2,0.8,1,0
,,64e114532a07493224e3a5a1,66fc995d5bc6dc80a61d5245,2024-10-02_13h55.02.994,mdp,2024.2.1,Linux x86_64,60.24096386,66fa4ebf79326e780c390304,,,,,,,,,,,,,,,,,,,,,607.1636,607.1636,607.1665,608.3298,0,0,left,0.6342,,608.3327,608.8968,0,1,left,608.8997,609.4972,0,0,left,1,609.4974,609.4974,609.5002,610.9978,0,14,14,14,1,0.6,0.4,0.2,0.8,,,,,,,,,,,,,,,0.0344,,0.4,0.6,0.8,0.2,0.8,0.2,0.2,0.8,,,0.0699,,0.6,0.4,0.8,0.2,0.8,0.2,0.2,0.8,1,0
,,64e114532a07493224e3a5a1,66fc995d5bc6dc80a61d5245,2024-10-02_13h55.02.994,mdp,2024.2.1,Linux x86_64,60.24096386,66fa4ebf79326e780c390304,,,,,,,,,,,,,,,,,,,,,610.9988,610.9989,611.0016,611.7646,0,0,left,0.2351,,611.7674,612.5483,0,0,left,612.5513,613.0757,0,0,left,1,613.0759,613.076,613.0788,614.566,0,15,15,15,1,0.6,0.4,0.2,0.8,,,,,,,,,,,,,,,0.2671,,0.8,0.2,0.6,0.4,0.8,0.2,0.2,0.8,,,0.0012,,0.6,0.4,0.8,0.2,0.8,0.2,0.2,0.8,1,0
,,64e114532a07493224e3a5a1,66fc995d5bc6dc80a61d5245,2024-10-02_13h55.02.994,mdp,2024.2.1,Linux x86_64,60.24096386,66fa4ebf79326e780c390304,,,,,,,,,,,,,,,,,,,,,614.5671,614.5671,614.5698,615.1329,0,0,left,0.0378,,615.1359,615.7663,0,1,left,615.7681,616.3167,0,0,left,1,616.3169,616.317,616.3198,617.8178,0,16,16,16,1,0.6,0.4,0.2,0.8,,,,,,,,,,,,,,,0.0987,,0.8,0.2,0.6,0.4,0.8,0.2,0.2,0.8,,,0.0195,,0.6,0.4,0.8,0.2,0.8,0.2,0.2,0.8,1,0
,,64e114532a07493224e3a5a1,66fc995d5bc6dc80a61d5245,2024-10-02_13h55.02.994,mdp,2024.2.1,Linux x86_64,60.24096386,66fa4ebf79326e780c390304,,,,,,,,,,,,,,,,,,,,,617.8184,617.8185,617.8197,618.6181,0,1,left,0.267,,618.6211,619.4682,0,0,left,619.4712,620.1354,0,1,left,0,620.1357,620.1357,620.1384,621.6365,0,17,17,17,1,0.6,0.4,0.2,0.8,,,,,,,,,,,,,,,0.3104,,0.8,0.2,0.6,0.4,0.8,0.2,0.2,0.8,,,0.1225,,0.6,0.4,0.8,0.2,0.8,0.2,0.2,0.8,1,0
,,64e114532a07493224e3a5a1,66fc995d5bc6dc80a61d5245,2024-10-02_13h55.02.994,mdp,2024.2.1,Linux x86_64,60.24096386,66fa4ebf79326e780c390304,,,,,,,,,,,,,,,,,,,,,621.6375,621.6376,621.6403,622.2696,1,1,right,0.1077,,622.2724,622.8698,1,1,right,622.8729,623.4536,1,1,right,0,623.4538,623.4539,623.4567,624.9537,0,18,18,18,1,0.6,0.4,0.2,0.8,,,,,,,,,,,,,,,0.069,,0.8,0.2,0.6,0.4,0.8,0.2,0.2,0.8,,,0.0355,,0.6,0.4,0.8,0.2,0.8,0.2,0.2,0.8,1,0
,,64e114532a07493224e3a5a1,66fc995d5bc6dc80a61d5245,2024-10-02_13h55.02.994,mdp,2024.2.1,Linux x86_64,60.24096386,66fa4ebf79326e780c390304,,,,,,,,,,,,,,,,,,,,,624.9542,624.9542,624.9555,625.571,1,1,right,0.0819,,625.5738,626.1879,1,1,right,626.1909,627.1717,1,1,right,0,627.1719,627.1719,627.1747,628.6726,0,19,19,19,1,0.6,0.4,0.2,0.8,,,,,,,,,,,,,,,0.0844,,0.8,0.2,0.6,0.4,0.8,0.2,0.2,0.8,,,0.4514,,0.6,0.4,0.8,0.2,0.8,0.2,0.2,0.8,1,0
,,64e114532a07493224e3a5a1,66fc995d5bc6dc80a61d5245,2024-10-02_13h55.02.994,mdp,2024.2.1,Linux x86_64,60.24096386,66fa4ebf79326e780c390304,,,,,,,,,,,,,,,,,,,,,628.6738,628.6738,628.6765,629.5231,0,0,left,0.3177,,629.5261,630.3564,0,0,left,630.3593,630.9736,0,0,left,1,630.9738,630.9738,630.9767,632.4741,0,20,20,20,1,0.6,0.4,0.2,0.8,,,,,,,,,,,,,,,0.2896,,0.8,0.2,0.6,0.4,0.8,0.2,0.2,0.8,,,0.0699,,0.6,0.4,0.8,0.2,0.8,0.2,0.2,0.8,1,0
,,64e114532a07493224e3a5a1,66fc995d5bc6dc80a61d5245,2024-10-02_13h55.02.994,mdp,2024.2.1,Linux x86_64,60.24096386,66fa4ebf79326e780c390304,,,,,,,,,,,,,,,,,,,,,632.4751,632.4752,632.478,633.2745,0,1,left,0.2676,,633.2775,633.9751,0,0,left,633.978,635.042,0,0,left,1,635.0422,635.0422,635.0451,636.5427,0,21,21,21,1,0.6,0.4,0.2,0.8,,,,,,,,,,,,,,,0.1561,,0.8,0.2,0.6,0.4,0.8,0.2,0.2,0.8,,,0.5348,,0.6,0.4,0.8,0.2,0.8,0.2,0.2,0.8,1,0
,,64e114532a07493224e3a5a1,66fc995d5bc6dc80a61d5245,2024-10-02_13h55.02.994,mdp,2024.2.1,Linux x86_64,60.24096386,66fa4ebf79326e780c390304,,,,,,,,,,,,,,,,,,,,,636.5438,636.5438,636.5465,637.4426,0,0,left,0.3716,,637.4442,638.0429,0,0,left,638.0446,638.6264,0,1,left,0,638.6266,638.6266,638.6281,640.1272,0,22,22,22,1,0.6,0.4,0.2,0.8,,,,,,,,,,,,,,,0.0749,,0.8,0.2,0.6,0.4,0.8,0.2,0.2,0.8,,,0.0671,,0.8,0.2,0.4,0.6,0.8,0.2,0.2,0.8,1,0
,,64e114532a07493224e3a5a1,66fc995d5bc6dc80a61d5245,2024-10-02_13h55.02.994,mdp,2024.2.1,Linux x86_64,60.24096386,66fa4ebf79326e780c390304,,,,,,,,,,,,,,,,,,,,,640.1277,640.1277,640.1292,640.7444,1,0,right,0.0856,,640.7466,641.3614,1,0,right,641.3643,642.2451,1,0,right,1,642.2453,642.2453,642.248,643.7455,0,23,23,23,1,0.6,0.4,0.2,0.8,,,,,,,,,,,,,,,0.0917,,0.8,0.2,0.6,0.4,0.8,0.2,0.2,0.8,,,0.3665,,0.2,0.8,0.8,0.2,0.8,0.2,0.2,0.8,1,0
,,64e114532a07493224e3a5a1,66fc995d5bc6dc80a61d5245,2024-10-02_13h55.02.994,mdp,2024.2.1,Linux x86_64,60.24096386,66fa4ebf79326e780c390304,,,,,,,,,,,,,,,,,,,,,643.746,643.746,643.7473,644.4462,1,1,right,0.1674,,644.4493,645.1633,1,0,right,645.1662,645.9133,1,1,right,0,645.9133,645.9134,645.9152,647.4144,0,24,24,24,1,0.6,0.4,0.2,0.8,,,,,,,,,,,,,,,0.1938,,0.8,0.2,0.6,0.4,0.8,0.2,0.2,0.8,,,0.2186,,0.2,0.8,0.8,0.2,0.8,0.2,0.2,0.8,1,0
,,64e114532a07493224e3a5a1,66fc995d5bc6dc80a61d5245,2024-10-02_13h55.02.994,mdp,2024.2.1,Linux x86_64,60.24096386,66fa4ebf79326e780c390304,,,,,,,,,,,,,,,,,,,,,647.4154,647.4155,647.4186,648.0148,0,0,left,0.0714,,648.0178,648.5979,0,0,left,648.6008,649.4981,0,1,left,0,649.4981,649.4981,649.4999,650.9992,0,25,25,25,1,0.6,0.4,0.2,0.8,,,,,,,,,,,,,,,0.0463,,0.8,0.2,0.6,0.4,0.8,0.2,0.2,0.8,,,0.3685,,0.2,0.8,0.8,0.2,0.4,0.6,0.8,0.2,1,0
,,64e114532a07493224e3a5a1,66fc995d5bc6dc80a61d5245,2024-10-02_13h55.02.994,mdp,2024.2.1,Linux x86_64,60.24096386,66fa4ebf79326e780c390304,,,,,,,,,,,,,,,,,,,,,651.0011,651.0011,651.0039,651.6329,1,0,right,0.1013,,651.6357,652.3832,1,1,right,652.3867,653.2002,1,0,right,1,653.2003,653.2003,653.2033,654.7008,0,26,26,26,1,0.6,0.4,0.2,0.8,,,,,,,,,,,,,,,0.2176,,0.8,0.2,0.6,0.4,0.8,0.2,0.2,0.8,,,0.2862,,0.2,0.8,0.8,0.2,0.4,0.6,0.8,0.2,1,0
,,64e114532a07493224e3a5a1,66fc995d5bc6dc80a61d5245,2024-10-02_13h55.02.994,mdp,2024.2.1,Linux x86_64,60.24096386,66fa4ebf79326e780c390304,,,,,,,,,,,,,,,,,,,,,654.7018,654.7019,654.7046,655.3675,1,1,right,0.1336,,655.3695,656.135,1,1,right,656.1379,656.8352,1,1,right,0,656.8354,656.8355,656.8382,658.3359,0,27,27,27,1,0.6,0.4,0.2,0.8,,,,,,,,,,,,,,,0.2457,,0.8,0.2,0.6,0.4,0.8,0.2,0.2,0.8,,,0.1701,,0.2,0.8,0.8,0.2,0.4,0.6,0.8,0.2,1,0
,,64e114532a07493224e3a5a1,66fc995d5bc6dc80a61d5245,2024-10-02_13h55.02.994,mdp,2024.2.1,Linux x86_64,60.24096386,66fa4ebf79326e780c390304,,,,,,,,,,,,,,,,,,,,,658.337,658.337,658.3398,658.886,0,1,left,0.0178,,658.8888,659.5531,0,0,left,659.5563,660.3534,0,0,left,1,660.3536,660.3536,660.3566,661.8541,0,28,28,28,1,0.6,0.4,0.2,0.8,,,,,,,,,,,,,,,0.1321,,0.8,0.2,0.6,0.4,0.8,0.2,0.2,0.8,,,0.251,,0.2,0.8,0.8,0.2,0.4,0.6,0.8,0.2,1,0
,,64e114532a07493224e3a5a1,66fc995d5bc6dc80a61d5245,2024-10-02_13h55.02.994,mdp,2024.2.1,Linux x86_64,60.24096386,66fa4ebf79326e780c390304,,,,,,,,,,,,,,,,,,,,,661.8553,661.8554,661.8581,662.6879,0,1,left,0.3026,,662.691,663.4877,0,0,left,663.4906,664.3057,0,1,left,0,664.3059,664.3059,664.3086,665.8062,0,29,29,29,1,0.6,0.4,0.2,0.8,,,,,,,,,,,,,,,0.2743,,0.8,0.2,0.6,0.4,0.8,0.2,0.2,0.8,,,0.3011,,0.2,0.8,0.8,0.2,0.4,0.6,0.8,0.2,1,0
,,64e114532a07493224e3a5a1,66fc995d5bc6dc80a61d5245,2024-10-02_13h55.02.994,mdp,2024.2.1,Linux x86_64,60.24096386,66fa4ebf79326e780c390304,,,,,,,,,,,,,,,,,,,,,665.8073,665.8073,665.8101,666.3395,1,0,right,0.0011,,666.3424,666.9559,1,0,right,666.9572,667.5064,1,0,right,1,667.5065,667.5065,667.5077,669.0074,0,30,30,30,1,0.6,0.4,0.2,0.8,,,,,,,,,,,,,,,0.0829,,0.8,0.2,0.6,0.4,0.8,0.2,0.2,0.8,,,0.0382,,0.2,0.8,0.8,0.2,0.4,0.6,0.8,0.2,1,0
,,64e114532a07493224e3a5a1,66fc995d5bc6dc80a61d5245,2024-10-02_13h55.02.994,mdp,2024.2.1,Linux x86_64,60.24096386,66fa4ebf79326e780c390304,,,,,,,,,,,,,,,,,,,,,669.0084,669.0085,669.0111,669.7907,1,0,right,0.2488,,669.7936,670.3408,1,1,right,670.3432,670.9081,1,0,right,1,670.9082,670.9082,670.9107,672.4089,0,31,31,31,1,0.6,0.4,0.2,0.8,,,,,,,,,,,,,,,0.0182,,0.8,0.2,0.6,0.4,0.8,0.2,0.2,0.8,,,0.0351,,0.2,0.8,0.8,0.2,0.4,0.6,0.8,0.2,1,0
,,64e114532a07493224e3a5a1,66fc995d5bc6dc80a61d5245,2024-10-02_13h55.02.994,mdp,2024.2.1,Linux x86_64,60.24096386,66fa4ebf79326e780c390304,,,,,,,,,,,,,,,,,,,,,672.41,672.41,672.4128,673.1426,1,1,right,0.204,,673.1454,673.6858,1,1,right,673.6887,674.3265,1,0,right,1,674.3266,674.3266,674.3294,675.8271,0,32,32,32,1,0.6,0.4,0.2,0.8,,,,,,,,,,,,,,,0.0012,,0.6,0.4,0.8,0.2,0.8,0.2,0.2,0.8,,,0.1156,,0.2,0.8,0.8,0.2,0.4,0.6,0.8,0.2,1,0
,,64e114532a07493224e3a5a1,66fc995d5bc6dc80a61d5245,2024-10-02_13h55.02.994,mdp,2024.2.1,Linux x86_64,60.24096386,66fa4ebf79326e780c390304,,,,,,,,,,,,,,,,,,,,,675.8282,675.8282,675.831,676.5441,1,1,right,0.181,,676.5469,677.3449,1,1,right,677.3477,677.878,1,0,right,1,677.8782,677.8782,677.881,679.3782,0,33,33,33,1,0.6,0.4,0.2,0.8,,,,,,,,,,,,,,,0.2754,,0.6,0.4,0.8,0.2,0.8,0.2,0.2,0.8,,,0.0057,,0.2,0.8,0.8,0.2,0.4,0.6,0.8,0.2,1,0
,,64e114532a07493224e3a5a1,66fc995d5bc6dc80a61d5245,2024-10-02_13h55.02.994,mdp,2024.2.1,Linux x86_64,60.24096386,66fa4ebf79326e780c390304,,,,,,,,,,,,,,,,,,,,,679.3787,679.3788,679.38,680.3125,1,1,right,0.4016,,680.3153,680.846,1,1,right,680.8489,681.3962,1,0,right,1,681.3964,681.3964,681.3991,682.8973,0,34,34,34,1,0.6,0.4,0.2,0.8,,,,,,,,,,,,,,,0.0028,,0.6,0.4,0.8,0.2,0.8,0.2,0.2,0.8,,,0.0174,,0.2,0.8,0.8,0.2,0.4,0.6,0.8,0.2,1,0
,,64e114532a07493224e3a5a1,66fc995d5bc6dc80a61d5245,2024-10-02_13h55.02.994,mdp,2024.2.1,Linux x86_64,60.24096386,66fa4ebf79326e780c390304,,,,,,,,,,,,,,,,,,,,,682.8984,682.8984,682.9011,683.5305,1,0,right,0.1051,,683.5334,684.2808,1,0,right,684.2838,684.8641,1,0,right,1,684.8649,684.8649,684.8662,686.3654,0,35,35,35,1,0.6,0.4,0.2,0.8,,,,,,,,,,,,,,,0.2158,,0.6,0.4,0.8,0.2,0.8,0.2,0.2,0.8,,,0.0473,,0.2,0.8,0.8,0.2,0.4,0.6,0.8,0.2,1,0
,,64e114532a07493224e3a5a1,66fc995d5bc6dc80a61d5245,2024-10-02_13h55.02.994,mdp,2024.2.1,Linux x86_64,60.24096386,66fa4ebf79326e780c390304,,,,,,,,,,,,,,,,,,,,,686.3666,686.3666,686.3693,687.0655,1,0,right,0.1665,,687.0684,687.9157,1,0,right,687.9186,688.9165,1,0,right,1,688.9166,688.9166,688.9194,690.417,0,36,36,36,1,0.6,0.4,0.2,0.8,,,,,,,,,,,,,,,0.3243,,0.6,0.4,0.8,0.2,0.8,0.2,0.2,0.8,,,0.4896,,0.2,0.8,0.8,0.2,0.4,0.6,0.8,0.2,1,0
,,64e114532a07493224e3a5a1,66fc995d5bc6dc80a61d5245,2024-10-02_13h55.02.994,mdp,2024.2.1,Linux x86_64,60.24096386,66fa4ebf79326e780c390304,,,,,,,,,,,,,,,,,,,,,690.4181,690.4181,690.4208,691.1002,1,1,right,0.15,,691.1016,691.7005,1,1,right,691.7019,692.3846,1,0,right,1,692.3847,692.3848,692.3877,693.8855,0,37,37,37,1,0.6,0.4,0.2,0.8,,,,,,,,,,,,,,,0.0779,,0.6,0.4,0.8,0.2,0.8,0.2,0.2,0.8,,,0.1511,,0.4,0.6,0.4,0.6,0.4,0.6,0.8,0.2,1,0
,,64e114532a07493224e3a5a1,66fc995d5bc6dc80a61d5245,2024-10-02_13h55.02.994,mdp,2024.2.1,Linux x86_64,60.24096386,66fa4ebf79326e780c390304,,,,,,,,,,,,,,,,,,,,,693.8865,693.8866,693.8894,694.7859,1,1,right,0.369,,694.7888,695.4029,1,1,right,695.4057,696.003,1,0,right,1,696.0031,696.0031,696.0059,697.5037,0,38,38,38,1,0.6,0.4,0.2,0.8,,,,,,,,,,,,,,,0.088,,0.6,0.4,0.8,0.2,0.8,0.2,0.2,0.8,,,0.0658,,0.4,0.6,0.4,0.6,0.4,0.6,0.8,0.2,1,0
,,64e114532a07493224e3a5a1,66fc995d5bc6dc80a61d5245,2024-10-02_13h55.02.994,mdp,2024.2.1,Linux x86_64,60.24096386,66fa4ebf79326e780c390304,,,,,,,,,,,,,,,,,,,,,697.5044,697.5044,697.5057,698.3035,1,1,right,0.2724,,698.3048,698.8208,1,1,right,698.8236,699.7883,1,1,right,0,699.7885,699.7885,699.7913,701.2881,0,39,39,39,1,0.6,0.4,0.2,0.8,,,,,,,,,,,,,,,0.0012,,0.6,0.4,0.8,0.2,0.8,0.2,0.2,0.8,,,0.4397,,0.4,0.6,0.4,0.6,0.4,0.6,0.8,0.2,1,0
,,64e114532a07493224e3a5a1,66fc995d5bc6dc80a61d5245,2024-10-02_13h55.02.994,mdp,2024.2.1,Linux x86_64,60.24096386,66fa4ebf79326e780c390304,,,,,,,,,,,,,,,,,,,,,701.2886,701.2886,701.29,702.0557,0,0,left,0.2511,,702.0587,702.6057,0,1,left,702.6086,703.1727,0,0,left,1,703.1729,703.1729,703.1757,704.6735,0,40,40,40,1,0.6,0.4,0.2,0.8,,,,,,,,,,,,,,,0.0091,,0.6,0.4,0.8,0.2,0.8,0.2,0.2,0.8,,,0.0515,,0.4,0.6,0.4,0.6,0.4,0.6,0.8,0.2,1,0
,,64e114532a07493224e3a5a1,66fc995d5bc6dc80a61d5245,2024-10-02_13h55.02.994,mdp,2024.2.1,Linux x86_64,60.24096386,66fa4ebf79326e780c390304,,,,,,,,,,,,,,,,,,,,,704.6751,704.6751,704.678,705.2571,0,0,left,0.0511,,705.2596,705.8074,0,1,left,705.8103,706.3912,0,1,left,0,706.3913,706.3914,706.3942,707.8915,0,41,41,41,1,0.4,0.6,0.4,0.6,,,,,,,,,,,,,,,0.0176,,0.6,0.4,0.8,0.2,0.8,0.2,0.2,0.8,,,0.0487,,0.4,0.6,0.4,0.6,0.4,0.6,0.8,0.2,1,0
,,64e114532a07493224e3a5a1,66fc995d5bc6dc80a61d5245,2024-10-02_13h55.02.994,mdp,2024.2.1,Linux x86_64,60.24096386,66fa4ebf79326e780c390304,,,,,,,,,,,,,,,,,,,,,707.8927,707.8927,707.8955,708.5919,1,0,right,0.171,,708.5947,709.1922,1,0,right,709.1952,710.1426,1,0,right,1,710.1427,710.1428,710.1455,711.6435,0,42,42,42,1,0.4,0.6,0.4,0.6,,,,,,,,,,,,,,,0.0706,,0.6,0.4,0.8,0.2,0.8,0.2,0.2,0.8,,,0.421,,0.4,0.6,0.4,0.6,0.4,0.6,0.8,0.2,1,0
,,64e114532a07493224e3a5a1,66fc995d5bc6dc80a61d5245,2024-10-02_13h55.02.994,mdp,2024.2.1,Linux x86_64,60.24096386,66fa4ebf79326e780c390304,,,,,,,,,,,,,,,,,,,,,711.6446,711.6447,711.6474,712.3437,1,1,right,0.1719,,712.3475,713.0608,1,1,right,713.0638,713.911,1,0,right,1,713.9112,713.9112,713.914,715.4114,0,43,43,43,1,0.4,0.6,0.4,0.6,,,,,,,,,,,,,,,0.1702,,0.4,0.6,0.6,0.4,0.8,0.2,0.2,0.8,,,0.316,,0.4,0.6,0.4,0.6,0.4,0.6,0.8,0.2,1,0
,,64e114532a07493224e3a5a1,66fc995d5bc6dc80a61d5245,2024-10-02_13h55.02.994,mdp,2024.2.1,Linux x86_64,60.24096386,66fa4ebf79326e780c390304,,,,,,,,,,,,,,,,,,,,,715.4123,715.4123,715.4136,716.2455,1,1,right,0.3032,,716.2484,716.8623,1,0,right,716.8651,717.4455,1,1,right,0,717.4456,717.4456,717.4469,718.9466,0,44,44,44,1,0.4,0.6,0.4,0.6,,,,,,,,,,,,,,,0.0891,,0.4,0.6,0.6,0.4,0.8,0.2,0.2,0.8,,,0.0403,,0.4,0.6,0.4,0.6,0.4,0.6,0.8,0.2,1,0
,,64e114532a07493224e3a5a1,66fc995d5bc6dc80a61d5245,2024-10-02_13h55.02.994,mdp,2024.2.1,Linux x86_64,60.24096386,66fa4ebf79326e780c390304,,,,,,,,,,,,,,,,,,,,,718.9477,718.9478,718.9504,719.8306,0,1,left,0.3536,,719.8334,720.5142,0,0,left,720.5171,721.3309,0,1,left,0,721.3312,721.3312,721.3339,722.8312,0,45,45,45,1,0.4,0.6,0.4,0.6,,,,,,,,,,,,,,,0.1535,,0.4,0.6,0.6,0.4,0.8,0.2,0.2,0.8,,,0.2834,,0.4,0.6,0.4,0.6,0.4,0.6,0.8,0.2,1,0
,,64e114532a07493224e3a5a1,66fc995d5bc6dc80a61d5245,2024-10-02_13h55.02.994,mdp,2024.2.1,Linux x86_64,60.24096386,66fa4ebf79326e780c390304,,,,,,,,,,,,,,,,,,,,,722.8318,722.8318,722.8333,723.5822,0,0,left,0.2189,,723.5851,724.1489,0,1,left,724.1518,724.7656,0,1,left,0,724.7658,724.7658,724.7672,726.2667,0,46,46,46,1,0.4,0.6,0.4,0.6,,,,,,,,,,,,,,,0.0429,,0.4,0.6,0.6,0.4,0.8,0.2,0.2,0.8,,,0.0673,,0.4,0.6,0.4,0.6,0.4,0.6,0.8,0.2,1,0
,,64e114532a07493224e3a5a1,66fc995d5bc6dc80a61d5245,2024-10-02_13h55.02.994,mdp,2024.2.1,Linux x86_64,60.24096386,66fa4ebf79326e780c390304,,,,,,,,,,,,,,,,,,,,,726.2677,726.2677,726.2705,726.8835,1,1,right,0.0867,,726.887,727.6006,1,0,right,727.6041,728.2175,1,0,right,1,728.2176,728.2177,728.2208,729.7181,0,47,47,47,1,0.4,0.6,0.4,0.6,,,,,,,,,,,,,,,0.1884,,0.4,0.6,0.6,0.4,0.8,0.2,0.2,0.8,,,0.0683,,0.4,0.6,0.4,0.6,0.4,0.6,0.8,0.2,1,0
,,64e114532a07493224e3a5a1,66fc995d5bc6dc80a61d5245,2024-10-02_13h55.02.994,mdp,2024.2.1,Linux x86_64,60.24096386,66fa4ebf79326e780c390304,,,,,,,,,,,,,,,,,,,,,729.7191,729.7192,729.722,730.3014,1,0,right,0.0489,,730.3042,730.9018,1,1,right,730.9032,731.8359,1,0,right,1,731.836,731.836,731.8377,733.3365,0,48,48,48,1,0.4,0.6,0.4,0.6,,,,,,,,,,,,,,,0.0751,,0.4,0.6,0.6,0.4,0.8,0.2,0.2,0.8,,,0.396,,0.4,0.6,0.4,0.6,0.4,0.6,0.8,0.2,1,0
,,64e114532a07493224e3a5a1,66fc995d5bc6dc80a61d5245,2024-10-02_13h55.02.994,mdp,2024.2.1,Linux x86_64,60.24096386,66fa4ebf79326e780c390304,,,,,,,,,,,,,,,,,,,,,733.3375,733.3375,733.3402,734.0364,1,0,right,0.1655,,734.0381,734.6539,1,0,right,734.6571,735.4041,1,1,right,0,735.4043,735.4043,735.4071,736.9048,0,49,49,49,1,0.4,0.6,0.4,0.6,,,,,,,,,,,,,,,0.1066,,0.4,0.6,0.6,0.4,0.8,0.2,0.2,0.8,,,0.2041,,0.4,0.6,0.4,0.6,0.4,0.6,0.8,0.2,1,0
,,64e114532a07493224e3a5a1,66fc995d5bc6dc80a61d5245,2024-10-02_13h55.02.994,mdp,2024.2.1,Linux x86_64,60.24096386,66fa4ebf79326e780c390304,,,,,,,,,,,,,,,,,,,,,,,,,,,,,,,,,,,,,,,,,,,,,,,,,,,,,,,,736.9051,803.6507,0,2,2,0,1,imgs/cat.png,imgs/dog.png,imgs/kangaroo.png,imgs/goat.png,imgs/giraffe.png,,,,,,,,,,,,,,,,,,,,,,,,
,,64e114532a07493224e3a5a1,66fc995d5bc6dc80a61d5245,2024-10-02_13h55.02.994,mdp,2024.2.1,Linux x86_64,60.24096386,66fa4ebf79326e780c390304,,,,,,,,,,,,,,3,seqs/st3seq47.csv,803.6649,805.1855,space,0.6735,,805.1925,805.1925,805.1942,807.0532,0,0,left,1.3238,,807.0562,807.9871,0,0,left,807.99,808.8875,0,1,left,0,808.8876,808.8876,808.8906,810.388,0,0,0,0,1,0.6,0.4,0.4,0.6,,,,,,,,,,,,,,,0.3959,,0.8,0.2,0.4,0.6,0.8,0.2,0.2,0.8,,,0.3548,,0.6,0.4,0.4,0.6,0.6,0.4,0.8,0.2,1,0
,,64e114532a07493224e3a5a1,66fc995d5bc6dc80a61d5245,2024-10-02_13h55.02.994,mdp,2024.2.1,Linux x86_64,60.24096386,66fa4ebf79326e780c390304,,,,,,,,,,,,,,,,,,,,,810.3893,810.3894,810.3921,810.9217,1,0,right,0.0068,,810.9244,811.6386,1,0,right,811.6414,812.2889,1,1,right,0,812.2891,812.2891,812.2919,813.7897,0,1,1,1,1,0.6,0.4,0.4,0.6,,,,,,,,,,,,,,,0.1838,,0.8,0.2,0.4,0.6,0.8,0.2,0.2,0.8,,,0.1348,,0.6,0.4,0.4,0.6,0.6,0.4,0.8,0.2,1,0
,,64e114532a07493224e3a5a1,66fc995d5bc6dc80a61d5245,2024-10-02_13h55.02.994,mdp,2024.2.1,Linux x86_64,60.24096386,66fa4ebf79326e780c390304,,,,,,,,,,,,,,,,,,,,,813.7909,813.7909,813.7936,814.6733,0,0,left,0.3543,,814.6761,815.4071,1,0,right,815.4102,816.1243,0,0,left,1,816.1245,816.1245,816.1274,817.6246,0,2,2,2,1,0.6,0.4,0.4,0.6,,,,,,,,,,,,,,,0.2046,,0.8,0.2,0.4,0.6,0.8,0.2,0.2,0.8,,,0.1845,,0.6,0.4,0.4,0.6,0.6,0.4,0.8,0.2,1,0
,,64e114532a07493224e3a5a1,66fc995d5bc6dc80a61d5245,2024-10-02_13h55.02.994,mdp,2024.2.1,Linux x86_64,60.24096386,66fa4ebf79326e780c390304,,,,,,,,,,,,,,,,,,,,,817.6261,817.6261,817.6289,818.4084,0,1,left,0.2527,,818.4114,819.0919,1,1,right,819.0947,819.7086,0,0,left,1,819.7087,819.7087,819.7101,821.2096,0,3,3,3,1,0.6,0.4,0.4,0.6,,,,,,,,,,,,,,,0.1209,,0.8,0.2,0.4,0.6,0.8,0.2,0.2,0.8,,,0.0762,,0.6,0.4,0.4,0.6,0.6,0.4,0.8,0.2,1,0
,,64e114532a07493224e3a5a1,66fc995d5bc6dc80a61d5245,2024-10-02_13h55.02.994,mdp,2024.2.1,Linux x86_64,60.24096386,66fa4ebf79326e780c390304,,,,,,,,,,,,,,,,,,,,,821.2107,821.2107,821.2134,821.9765,0,1,left,0.2366,,821.9794,822.693,1,1,right,822.6947,823.3937,0,0,left,1,823.3939,823.394,823.3966,824.8946,0,4,4,4,1,0.6,0.4,0.4,0.6,,,,,,,,,,,,,,,0.2036,,0.8,0.2,0.4,0.6,0.8,0.2,0.2,0.8,,,0.1919,,0.4,0.6,0.6,0.4,0.6,0.4,0.8,0.2,1,0
,,64e114532a07493224e3a5a1,66fc995d5bc6dc80a61d5245,2024-10-02_13h55.02.994,mdp,2024.2.1,Linux x86_64,60.24096386,66fa4ebf79326e780c390304,,,,,,,,,,,,,,,,,,,,,824.8957,824.8957,824.8976,825.5114,0,1,left,0.0843,,825.5143,826.5286,1,1,right,826.5315,827.2453,0,0,left,1,827.2454,827.2454,827.2467,828.7461,0,5,5,5,1,0.6,0.4,0.4,0.6,,,,,,,,,,,,,,,0.5086,,0.8,0.2,0.4,0.6,0.8,0.2,0.2,0.8,,,0.19,,0.4,0.6,0.6,0.4,0.6,0.4,0.8,0.2,1,0
,,64e114532a07493224e3a5a1,66fc995d5bc6dc80a61d5245,2024-10-02_13h55.02.994,mdp,2024.2.1,Linux x86_64,60.24096386,66fa4ebf79326e780c390304,,,,,,,,,,,,,,,,,,,,,828.7467,828.7467,828.7481,829.5133,0,0,left,0.235,,829.5164,830.1635,1,1,right,830.1662,831.1138,0,0,left,1,831.1139,831.114,831.1152,832.6149,0,6,6,6,1,0.6,0.4,0.4,0.6,,,,,,,,,,,,,,,0.1154,,0.8,0.2,0.4,0.6,0.8,0.2,0.2,0.8,,,0.4171,,0.4,0.6,0.6,0.4,0.6,0.4,0.8,0.2,1,0
,,64e114532a07493224e3a5a1,66fc995d5bc6dc80a61d5245,2024-10-02_13h55.02.994,mdp,2024.2.1,Linux x86_64,60.24096386,66fa4ebf79326e780c390304,,,,,,,,,,,,,,,,,,,,,832.6159,832.6159,832.6186,833.4481,0,1,left,0.3015,,833.4495,834.0986,1,1,right,834.1016,834.6993,0,1,left,0,834.6994,834.6995,834.7023,836.1996,0,7,7,7,1,0.6,0.4,0.4,0.6,,,,,,,,,,,,,,,0.1205,,0.8,0.2,0.4,0.6,0.8,0.2,0.2,0.8,,,0.0704,,0.4,0.6,0.6,0.4,0.6,0.4,0.8,0.2,1,0
,,64e114532a07493224e3a5a1,66fc995d5bc6dc80a61d5245,2024-10-02_13h55.02.994,mdp,2024.2.1,Linux x86_64,60.24096386,66fa4ebf79326e780c390304,,,,,,,,,,,,,,,,,,,,,836.2007,836.2007,836.2035,836.7668,1,0,right,0.0367,,836.7696,837.367,0,0,left,837.3698,837.9171,1,0,right,1,837.9173,837.9174,837.9201,839.418,0,8,8,8,1,0.6,0.4,0.4,0.6,,,,,,,,,,,,,,,0.055,,0.8,0.2,0.4,0.6,0.8,0.2,0.2,0.8,,,0.011,,0.4,0.6,0.6,0.4,0.6,0.4,0.8,0.2,1,0
,,64e114532a07493224e3a5a1,66fc995d5bc6dc80a61d5245,2024-10-02_13h55.02.994,mdp,2024.2.1,Linux x86_64,60.24096386,66fa4ebf79326e780c390304,,,,,,,,,,,,,,,,,,,,,839.419,839.419,839.4219,840.2679,0,1,left,0.3198,,840.2699,840.9517,1,1,right,840.9551,841.5521,0,0,left,1,841.5523,841.5523,841.5551,843.053,0,9,9,9,1,0.6,0.4,0.4,0.6,,,,,,,,,,,,,,,0.1471,,0.8,0.2,0.4,0.6,0.8,0.2,0.2,0.8,,,0.0701,,0.4,0.6,0.6,0.4,0.6,0.4,0.8,0.2,1,0
,,64e114532a07493224e3a5a1,66fc995d5bc6dc80a61d5245,2024-10-02_13h55.02.994,mdp,2024.2.1,Linux x86_64,60.24096386,66fa4ebf79326e780c390304,,,,,,,,,,,,,,,,,,,,,843.054,843.0541,843.0569,843.8367,1,1,right,0.2539,,843.8396,844.3868,0,1,left,844.3897,844.9537,1,0,right,1,844.9539,844.9539,844.9566,846.4543,0,10,10,10,1,0.6,0.4,0.4,0.6,,,,,,,,,,,,,,,0.0159,,0.8,0.2,0.4,0.6,0.2,0.8,0.8,0.2,,,0.0322,,0.4,0.6,0.6,0.4,0.6,0.4,0.8,0.2,1,0
,,64e114532a07493224e3a5a1,66fc995d5bc6dc80a61d5245,2024-10-02_13h55.02.994,mdp,2024.2.1,Linux x86_64,60.24096386,66fa4ebf79326e780c390304,,,,,,,,,,,,,,,,,,,,,846.4554,846.4554,846.4582,847.3048,0,1,left,0.3167,,847.3076,847.905,1,0,right,847.9079,848.4886,0,1,left,0,848.4888,848.4888,848.4915,849.9894,0,11,11,11,1,0.6,0.4,0.4,0.6,,,,,,,,,,,,,,,0.0714,,0.8,0.2,0.4,0.6,0.2,0.8,0.8,0.2,,,0.0344,,0.4,0.6,0.6,0.4,0.6,0.4,0.8,0.2,1,0
,,64e114532a07493224e3a5a1,66fc995d5bc6dc80a61d5245,2024-10-02_13h55.02.994,mdp,2024.2.1,Linux x86_64,60.24096386,66fa4ebf79326e780c390304,,,,,,,,,,,,,,,,,,,,,849.9904,849.9904,849.9934,850.756,0,1,left,0.2364,,850.7587,851.4229,1,0,right,851.4244,851.9404,0,0,left,1,851.9406,851.9406,851.9434,853.4412,0,12,12,12,1,0.6,0.4,0.4,0.6,,,,,,,,,,,,,,,0.151,,0.8,0.2,0.4,0.6,0.2,0.8,0.8,0.2,,,0.0011,,0.4,0.6,0.6,0.4,0.6,0.4,0.8,0.2,1,0
,,64e114532a07493224e3a5a1,66fc995d5bc6dc80a61d5245,2024-10-02_13h55.02.994,mdp,2024.2.1,Linux x86_64,60.24096386,66fa4ebf79326e780c390304,,,,,,,,,,,,,,,,,,,,,853.4424,853.4424,853.4455,854.0245,1,0,right,0.0472,,854.0275,855.3749,0,0,left,855.3777,856.2427,1,0,right,1,856.2429,856.2429,856.2456,857.7429,0,13,13,13,1,0.6,0.4,0.4,0.6,,,,,,,,,,,,,,,0.8086,,0.8,0.2,0.4,0.6,0.2,0.8,0.8,0.2,,,0.3425,,0.4,0.6,0.6,0.4,0.2,0.8,0.6,0.4,1,0
,,64e114532a07493224e3a5a1,66fc995d5bc6dc80a61d5245,2024-10-02_13h55.02.994,mdp,2024.2.1,Linux x86_64,60.24096386,66fa4ebf79326e780c390304,,,,,,,,,,,,,,,,,,,,,857.744,857.744,857.7467,858.5941,0,1,left,0.3186,,858.5972,859.2105,1,1,right,859.2133,860.244,0,1,left,0,860.2441,860.2442,860.2469,861.7451,0,14,14,14,1,0.6,0.4,0.4,0.6,,,,,,,,,,,,,,,0.0695,,0.8,0.2,0.4,0.6,0.2,0.8,0.8,0.2,,,0.4939,,0.4,0.6,0.6,0.4,0.2,0.8,0.6,0.4,1,0
,,64e114532a07493224e3a5a1,66fc995d5bc6dc80a61d5245,2024-10-02_13h55.02.994,mdp,2024.2.1,Linux x86_64,60.24096386,66fa4ebf79326e780c390304,,,,,,,,,,,,,,,,,,,,,861.7462,861.7462,861.7489,862.8119,1,0,right,0.5328,,862.8148,863.7788,0,0,left,863.7817,864.4287,1,0,right,1,864.4288,864.4288,864.4309,865.9298,0,15,15,15,1,0.6,0.4,0.4,0.6,,,,,,,,,,,,,,,0.421,,0.8,0.2,0.4,0.6,0.2,0.8,0.8,0.2,,,0.1107,,0.4,0.6,0.6,0.4,0.2,0.8,0.6,0.4,1,0
,,64e114532a07493224e3a5a1,66fc995d5bc6dc80a61d5245,2024-10-02_13h55.02.994,mdp,2024.2.1,Linux x86_64,60.24096386,66fa4ebf79326e780c390304,,,,,,,,,,,,,,,,,,,,,865.931,865.931,865.9338,866.8467,1,1,right,0.3889,,866.8496,867.4804,0,1,left,867.4835,868.381,1,0,right,1,868.3812,868.3812,868.384,869.8818,0,16,16,16,1,0.6,0.4,0.4,0.6,,,,,,,,,,,,,,,0.1112,,0.8,0.2,0.4,0.6,0.6,0.4,0.4,0.6,,,0.3532,,0.4,0.6,0.6,0.4,0.2,0.8,0.6,0.4,1,0
,,64e114532a07493224e3a5a1,66fc995d5bc6dc80a61d5245,2024-10-02_13h55.02.994,mdp,2024.2.1,Linux x86_64,60.24096386,66fa4ebf79326e780c390304,,,,,,,,,,,,,,,,,,,,,869.8829,869.883,869.8856,870.5485,0,0,left,0.1357,,870.5515,871.2484,1,1,right,871.2498,871.8654,0,1,left,0,871.8654,871.8654,871.8668,873.3665,0,17,17,17,1,0.6,0.4,0.4,0.6,,,,,,,,,,,,,,,0.1645,,0.8,0.2,0.4,0.6,0.6,0.4,0.4,0.6,,,0.1064,,0.4,0.6,0.6,0.4,0.2,0.8,0.6,0.4,1,0
,,64e114532a07493224e3a5a1,66fc995d5bc6dc80a61d5245,2024-10-02_13h55.02.994,mdp,2024.2.1,Linux x86_64,60.24096386,66fa4ebf79326e780c390304,,,,,,,,,,,,,,,,,,,,,873.3678,873.3678,873.3706,874.5337,1,1,right,0.6377,,874.5366,875.3341,0,0,left,875.337,875.9508,1,0,right,1,875.9511,875.9511,875.9529,877.4514,0,18,18,18,1,0.6,0.4,0.4,0.6,,,,,,,,,,,,,,,0.2587,,0.8,0.2,0.4,0.6,0.6,0.4,0.4,0.6,,,0.0725,,0.4,0.6,0.6,0.4,0.2,0.8,0.6,0.4,1,0
,,64e114532a07493224e3a5a1,66fc995d5bc6dc80a61d5245,2024-10-02_13h55.02.994,mdp,2024.2.1,Linux x86_64,60.24096386,66fa4ebf79326e780c390304,,,,,,,,,,,,,,,,,,,,,877.4518,877.4518,877.4532,878.2021,0,0,left,0.2149,,878.205,878.8525,1,0,right,878.8553,879.4021,0,1,left,0,879.4022,879.4022,879.4047,880.9032,0,19,19,19,1,0.6,0.4,0.4,0.6,,,,,,,,,,,,,,,0.106,,0.8,0.2,0.4,0.6,0.6,0.4,0.4,0.6,,,0.0185,,0.4,0.6,0.6,0.4,0.2,0.8,0.6,0.4,1,0
,,64e114532a07493224e3a5a1,66fc995d5bc6dc80a61d5245,2024-10-02_13h55.02.994,mdp,2024.2.1,Linux x86_64,60.24096386,66fa4ebf79326e780c390304,,,,,,,,,,,,,,,,,,,,,880.9045,880.9046,880.9073,881.6198,1,1,right,0.1843,,881.6212,882.2701,0,1,left,882.2715,883.2876,1,0,right,1,883.2877,883.2878,883.2906,884.7883,0,20,20,20,1,0.6,0.4,0.4,0.6,,,,,,,,,,,,,,,0.1239,,0.8,0.2,0.4,0.6,0.6,0.4,0.4,0.6,,,0.4781,,0.4,0.6,0.6,0.4,0.2,0.8,0.6,0.4,1,0
,,64e114532a07493224e3a5a1,66fc995d5bc6dc80a61d5245,2024-10-02_13h55.02.994,mdp,2024.2.1,Linux x86_64,60.24096386,66fa4ebf79326e780c390304,,,,,,,,,,,,,,,,,,,,,884.7894,884.7895,884.7922,885.7055,0,1,left,0.3823,,885.7086,886.4892,1,1,right,886.4921,887.2228,0,1,left,0,887.223,887.223,887.2258,888.7235,0,21,21,21,1,0.6,0.4,0.4,0.6,,,,,,,,,,,,,,,0.2491,,0.8,0.2,0.4,0.6,0.6,0.4,0.4,0.6,,,0.2042,,0.4,0.6,0.6,0.4,0.2,0.8,0.6,0.4,1,0
,,64e114532a07493224e3a5a1,66fc995d5bc6dc80a61d5245,2024-10-02_13h55.02.994,mdp,2024.2.1,Linux x86_64,60.24096386,66fa4ebf79326e780c390304,,,,,,,,,,,,,,,,,,,,,888.7246,888.7246,888.7274,889.6572,1,1,right,0.4021,,889.6601,890.5743,0,0,left,890.5772,891.3409,1,1,right,0,891.341,891.3411,891.3423,892.8419,0,22,22,22,1,0.6,0.4,0.4,0.6,,,,,,,,,,,,,,,0.3862,,0.8,0.2,0.4,0.6,0.6,0.4,0.4,0.6,,,0.2386,,0.4,0.6,0.6,0.4,0.2,0.8,0.6,0.4,1,0
,,64e114532a07493224e3a5a1,66fc995d5bc6dc80a61d5245,2024-10-02_13h55.02.994,mdp,2024.2.1,Linux x86_64,60.24096386,66fa4ebf79326e780c390304,,,,,,,,,,,,,,,,,,,,,892.843,892.843,892.8455,893.7092,0,0,left,0.3365,,893.7125,894.4264,1,0,right,894.4296,895.0931,0,0,left,1,895.0932,895.0933,895.0962,896.5933,0,23,23,23,1,0.6,0.4,0.4,0.6,,,,,,,,,,,,,,,0.172,,0.8,0.2,0.4,0.6,0.6,0.4,0.4,0.6,,,0.1365,,0.4,0.6,0.6,0.4,0.2,0.8,0.6,0.4,1,0
,,64e114532a07493224e3a5a1,66fc995d5bc6dc80a61d5245,2024-10-02_13h55.02.994,mdp,2024.2.1,Linux x86_64,60.24096386,66fa4ebf79326e780c390304,,,,,,,,,,,,,,,,,,,,,896.5939,896.5939,896.5953,897.4774,1,0,right,0.347,,897.4802,898.2278,0,0,left,898.2306,899.1782,1,0,right,1,899.1784,899.1784,899.1816,900.6789,0,24,24,24,1,0.8,0.2,0.8,0.2,,,,,,,,,,,,,,,0.2381,,0.8,0.2,0.4,0.6,0.6,0.4,0.4,0.6,,,0.4219,,0.4,0.6,0.6,0.4,0.2,0.8,0.6,0.4,1,0
,,64e114532a07493224e3a5a1,66fc995d5bc6dc80a61d5245,2024-10-02_13h55.02.994,mdp,2024.2.1,Linux x86_64,60.24096386,66fa4ebf79326e780c390304,,,,,,,,,,,,,,,,,,,,,900.6799,900.6799,900.6825,904.4141,1,0,right,3.2098,,904.4169,904.9642,0,0,left,904.967,905.8312,1,0,right,1,905.8313,905.8314,905.8341,907.3314,0,25,25,25,1,0.8,0.2,0.8,0.2,,,,,,,,,,,,,,,0.0187,,0.8,0.2,0.4,0.6,0.6,0.4,0.4,0.6,,,0.3542,,0.8,0.2,0.8,0.2,0.2,0.8,0.6,0.4,1,0
,,64e114532a07493224e3a5a1,66fc995d5bc6dc80a61d5245,2024-10-02_13h55.02.994,mdp,2024.2.1,Linux x86_64,60.24096386,66fa4ebf79326e780c390304,,,,,,,,,,,,,,,,,,,,,907.3319,907.3319,907.3332,908.0318,0,0,left,0.1706,,908.0331,908.8492,1,0,right,908.8521,909.4493,0,0,left,1,909.4493,909.4493,909.4506,910.9501,0,26,26,26,1,0.8,0.2,0.8,0.2,,,,,,,,,,,,,,,0.3008,,0.8,0.2,0.4,0.6,0.6,0.4,0.4,0.6,,,0.0654,,0.8,0.2,0.8,0.2,0.2,0.8,0.6,0.4,1,0
,,64e114532a07493224e3a5a1,66fc995d5bc6dc80a61d5245,2024-10-02_13h55.02.994,mdp,2024.2.1,Linux x86_64,60.24096386,66fa4ebf79326e780c390304,,,,,,,,,,,,,,,,,,,,,910.9508,910.9508,910.9525,911.7672,1,0,right,0.2835,,911.7702,912.4676,0,1,left,912.4704,913.0847,1,0,right,1,913.0848,913.0849,913.0876,914.5852,0,27,27,27,1,0.8,0.2,0.8,0.2,,,,,,,,,,,,,,,0.1839,,0.8,0.2,0.4,0.6,0.6,0.4,0.4,0.6,,,0.0734,,0.8,0.2,0.8,0.2,0.2,0.8,0.6,0.4,1,0
,,64e114532a07493224e3a5a1,66fc995d5bc6dc80a61d5245,2024-10-02_13h55.02.994,mdp,2024.2.1,Linux x86_64,60.24096386,66fa4ebf79326e780c390304,,,,,,,,,,,,,,,,,,,,,914.5862,914.5863,914.5893,915.5026,0,0,left,0.3871,,915.5055,916.1192,1,1,right,916.122,916.7524,0,1,left,0,916.7525,916.7525,916.7538,918.2535,0,28,28,28,1,0.8,0.2,0.8,0.2,,,,,,,,,,,,,,,0.0813,,0.8,0.2,0.4,0.6,0.6,0.4,0.4,0.6,,,0.1022,,0.8,0.2,0.8,0.2,0.2,0.8,0.6,0.4,1,0
,,64e114532a07493224e3a5a1,66fc995d5bc6dc80a61d5245,2024-10-02_13h55.02.994,mdp,2024.2.1,Linux x86_64,60.24096386,66fa4ebf79326e780c390304,,,,,,,,,,,,,,,,,,,,,918.2548,918.2548,918.2577,919.0538,1,0,right,0.2702,,919.0567,919.721,0,0,left,919.7238,920.3711,1,0,right,1,920.3712,920.3712,920.3741,921.8716,0,29,29,29,1,0.8,0.2,0.8,0.2,,,,,,,,,,,,,,,0.1376,,0.8,0.2,0.4,0.6,0.6,0.4,0.4,0.6,,,0.1222,,0.2,0.8,0.4,0.6,0.2,0.8,0.6,0.4,1,0
,,64e114532a07493224e3a5a1,66fc995d5bc6dc80a61d5245,2024-10-02_13h55.02.994,mdp,2024.2.1,Linux x86_64,60.24096386,66fa4ebf79326e780c390304,,,,,,,,,,,,,,,,,,,,,921.8722,921.8722,921.8736,922.6721,0,0,left,0.2734,,922.675,923.2891,1,1,right,923.2925,924.3243,0,0,left,1,924.3245,924.3245,924.3272,925.8237,0,30,30,30,1,0.8,0.2,0.8,0.2,,,,,,,,,,,,,,,0.0851,,0.8,0.2,0.4,0.6,0.6,0.4,0.4,0.6,,,0.4874,,0.2,0.8,0.4,0.6,0.2,0.8,0.6,0.4,1,0
,,64e114532a07493224e3a5a1,66fc995d5bc6dc80a61d5245,2024-10-02_13h55.02.994,mdp,2024.2.1,Linux x86_64,60.24096386,66fa4ebf79326e780c390304,,,,,,,,,,,,,,,,,,,,,925.8253,925.8254,925.8279,926.7412,1,1,right,0.3927,,926.7441,927.4078,0,0,left,927.4106,927.9459,1,0,right,1,927.946,927.946,927.9472,929.442,0,31,31,31,1,0.8,0.2,0.8,0.2,,,,,,,,,,,,,,,0.1278,,0.8,0.2,0.4,0.6,0.6,0.4,0.4,0.6,,,0.0007,,0.2,0.8,0.4,0.6,0.2,0.8,0.6,0.4,1,0
,,64e114532a07493224e3a5a1,66fc995d5bc6dc80a61d5245,2024-10-02_13h55.02.994,mdp,2024.2.1,Linux x86_64,60.24096386,66fa4ebf79326e780c390304,,,,,,,,,,,,,,,,,,,,,929.4436,929.4436,929.4462,930.0921,0,1,left,0.1151,,930.095,930.9759,1,0,right,930.9788,931.7932,0,1,left,0,931.7934,931.7934,931.7962,933.294,0,32,32,32,1,0.8,0.2,0.8,0.2,,,,,,,,,,,,,,,0.3518,,0.8,0.2,0.4,0.6,0.6,0.4,0.4,0.6,,,0.3038,,0.2,0.8,0.4,0.6,0.2,0.8,0.6,0.4,1,0
,,64e114532a07493224e3a5a1,66fc995d5bc6dc80a61d5245,2024-10-02_13h55.02.994,mdp,2024.2.1,Linux x86_64,60.24096386,66fa4ebf79326e780c390304,,,,,,,,,,,,,,,,,,,,,933.2951,933.2951,933.2977,934.1437,1,0,right,0.3213,,934.1466,934.7776,0,1,left,934.7805,935.6447,1,1,right,0,935.6449,935.6449,935.6476,937.1451,0,33,33,33,1,0.8,0.2,0.8,0.2,,,,,,,,,,,,,,,0.1094,,0.2,0.8,0.6,0.4,0.6,0.4,0.4,0.6,,,0.3227,,0.2,0.8,0.4,0.6,0.2,0.8,0.6,0.4,1,0
,,64e114532a07493224e3a5a1,66fc995d5bc6dc80a61d5245,2024-10-02_13h55.02.994,mdp,2024.2.1,Linux x86_64,60.24096386,66fa4ebf79326e780c390304,,,,,,,,,,,,,,,,,,,,,937.1456,937.1456,937.1469,938.0292,1,0,right,0.3518,,938.0321,938.7959,0,1,left,938.7988,939.5798,1,1,right,0,939.58,939.58,939.5828,941.0804,0,34,34,34,1,0.8,0.2,0.8,0.2,,,,,,,,,,,,,,,0.2406,,0.2,0.8,0.6,0.4,0.6,0.4,0.4,0.6,,,0.2679,,0.4,0.6,0.6,0.4,0.2,0.8,0.6,0.4,1,0
,,64e114532a07493224e3a5a1,66fc995d5bc6dc80a61d5245,2024-10-02_13h55.02.994,mdp,2024.2.1,Linux x86_64,60.24096386,66fa4ebf79326e780c390304,,,,,,,,,,,,,,,,,,,,,941.0816,941.0816,941.0843,941.7141,0,0,left,0.1001,,941.717,942.2473,1,1,right,942.249,943.0482,0,1,left,0,943.0483,943.0483,943.0512,944.5482,0,35,35,35,1,0.8,0.2,0.8,0.2,,,,,,,,,,,,,,,0.0011,,0.2,0.8,0.6,0.4,0.6,0.4,0.4,0.6,,,0.2819,,0.4,0.6,0.6,0.4,0.2,0.8,0.6,0.4,1,0
,,64e114532a07493224e3a5a1,66fc995d5bc6dc80a61d5245,2024-10-02_13h55.02.994,mdp,2024.2.1,Linux x86_64,60.24096386,66fa4ebf79326e780c390304,,,,,,,,,,,,,,,,,,,,,944.5487,944.5487,944.55,945.4159,1,0,right,0.3519,,945.4187,945.9827,0,1,left,945.9857,946.5161,1,0,right,1,946.5163,946.5163,946.5191,948.0169,0,36,36,36,1,0.8,0.2,0.8,0.2,,,,,,,,,,,,,,,0.0341,,0.4,0.6,0.8,0.2,0.6,0.4,0.4,0.6,,,0.0069,,0.4,0.6,0.6,0.4,0.2,0.8,0.6,0.4,1,0
,,64e114532a07493224e3a5a1,66fc995d5bc6dc80a61d5245,2024-10-02_13h55.02.994,mdp,2024.2.1,Linux x86_64,60.24096386,66fa4ebf79326e780c390304,,,,,,,,,,,,,,,,,,,,,948.0182,948.0182,948.0209,948.6174,1,0,right,0.0705,,948.6202,949.3343,0,0,left,949.3373,949.9014,1,0,right,1,949.9015,949.9016,949.9044,951.4019,0,37,37,37,1,0.8,0.2,0.8,0.2,,,,,,,,,,,,,,,0.1843,,0.4,0.6,0.8,0.2,0.6,0.4,0.4,0.6,,,0.025,,0.4,0.6,0.6,0.4,0.2,0.8,0.6,0.4,1,0
,,64e114532a07493224e3a5a1,66fc995d5bc6dc80a61d5245,2024-10-02_13h55.02.994,mdp,2024.2.1,Linux x86_64,60.24096386,66fa4ebf79326e780c390304,,,,,,,,,,,,,,,,,,,,,951.4029,951.4029,951.4057,952.5023,1,1,right,0.5688,,952.5045,953.186,0,0,left,953.1887,953.8362,1,1,right,0,953.8364,953.8364,953.8393,955.3376,0,38,38,38,1,0.8,0.2,0.8,0.2,,,,,,,,,,,,,,,0.1497,,0.4,0.6,0.8,0.2,0.6,0.4,0.4,0.6,,,0.1223,,0.4,0.6,0.6,0.4,0.2,0.8,0.6,0.4,1,0
,,64e114532a07493224e3a5a1,66fc995d5bc6dc80a61d5245,2024-10-02_13h55.02.994,mdp,2024.2.1,Linux x86_64,60.24096386,66fa4ebf79326e780c390304,,,,,,,,,,,,,,,,,,,,,955.3387,955.3388,955.3413,956.1706,0,0,left,0.3013,,956.1736,956.7542,1,1,right,956.7567,957.3214,0,0,left,1,957.3216,957.3216,957.3245,958.8219,0,39,39,39,1,0.8,0.2,0.8,0.2,,,,,,,,,,,,,,,0.0395,,0.8,0.2,0.2,0.8,0.6,0.4,0.4,0.6,,,0.0217,,0.4,0.6,0.6,0.4,0.2,0.8,0.6,0.4,1,0
,,64e114532a07493224e3a5a1,66fc995d5bc6dc80a61d5245,2024-10-02_13h55.02.994,mdp,2024.2.1,Linux x86_64,60.24096386,66fa4ebf79326e780c390304,,,,,,,,,,,,,,,,,,,,,958.8229,958.8231,958.8257,959.7222,1,0,right,0.3749,,959.7252,960.5561,0,1,left,960.5591,961.2731,1,1,right,0,961.2733,961.2733,961.276,962.7735,0,40,40,40,1,0.8,0.2,0.8,0.2,,,,,,,,,,,,,,,0.2981,,0.8,0.2,0.2,0.8,0.6,0.4,0.4,0.6,,,0.1872,,0.4,0.6,0.6,0.4,0.2,0.8,0.6,0.4,1,0
,,64e114532a07493224e3a5a1,66fc995d5bc6dc80a61d5245,2024-10-02_13h55.02.994,mdp,2024.2.1,Linux x86_64,60.24096386,66fa4ebf79326e780c390304,,,,,,,,,,,,,,,,,,,,,962.7746,962.7747,962.7775,963.5573,0,0,left,0.2543,,963.5601,964.2243,1,1,right,964.2272,964.7745,0,1,left,0,964.7747,964.7747,964.7775,966.2754,0,41,41,41,1,0.8,0.2,0.8,0.2,,,,,,,,,,,,,,,0.1321,,0.8,0.2,0.2,0.8,0.6,0.4,0.4,0.6,,,0.0156,,0.4,0.6,0.6,0.4,0.6,0.4,0.2,0.8,1,0
,,64e114532a07493224e3a5a1,66fc995d5bc6dc80a61d5245,2024-10-02_13h55.02.994,mdp,2024.2.1,Linux x86_64,60.24096386,66fa4ebf79326e780c390304,,,,,,,,,,,,,,,,,,,,,966.2765,966.2766,966.2793,967.0922,1,0,right,0.2816,,967.0952,967.7755,0,0,left,967.7771,968.343,1,0,right,1,968.3431,968.3431,968.3459,969.8436,0,42,42,42,1,0.8,0.2,0.8,0.2,,,,,,,,,,,,,,,0.1485,,0.8,0.2,0.2,0.8,0.6,0.4,0.4,0.6,,,0.0335,,0.4,0.6,0.6,0.4,0.6,0.4,0.2,0.8,1,0
,,64e114532a07493224e3a5a1,66fc995d5bc6dc80a61d5245,2024-10-02_13h55.02.994,mdp,2024.2.1,Linux x86_64,60.24096386,66fa4ebf79326e780c390304,,,,,,,,,,,,,,,,,,,,,969.8447,969.8447,969.8475,970.7773,1,0,right,0.4039,,970.7807,971.6773,0,0,left,971.6791,972.2944,1,0,right,1,972.2945,972.2945,972.2966,973.7953,0,43,43,43,1,0.8,0.2,0.8,0.2,,,,,,,,,,,,,,,0.3701,,0.8,0.2,0.2,0.8,0.6,0.4,0.4,0.6,,,0.0983,,0.4,0.6,0.6,0.4,0.6,0.4,0.2,0.8,1,0
,,64e114532a07493224e3a5a1,66fc995d5bc6dc80a61d5245,2024-10-02_13h55.02.994,mdp,2024.2.1,Linux x86_64,60.24096386,66fa4ebf79326e780c390304,,,,,,,,,,,,,,,,,,,,,973.7965,973.7965,973.7992,974.5957,1,0,right,0.2663,,974.5987,975.196,0,0,left,975.1989,976.0963,1,0,right,1,976.0965,976.0965,976.0992,977.5971,0,44,44,44,1,0.8,0.2,0.8,0.2,,,,,,,,,,,,,,,0.071,,0.8,0.2,0.2,0.8,0.6,0.4,0.4,0.6,,,0.3679,,0.4,0.6,0.6,0.4,0.2,0.8,0.6,0.4,1,0
,,64e114532a07493224e3a5a1,66fc995d5bc6dc80a61d5245,2024-10-02_13h55.02.994,mdp,2024.2.1,Linux x86_64,60.24096386,66fa4ebf79326e780c390304,,,,,,,,,,,,,,,,,,,,,977.5983,977.5983,977.6012,978.3473,1,0,right,0.221,,978.3502,978.881,0,0,left,978.8837,979.8645,1,0,right,1,979.8647,979.8647,979.8674,981.3654,0,45,45,45,1,0.8,0.2,0.8,0.2,,,,,,,,,,,,,,,0.0051,,0.8,0.2,0.2,0.8,0.6,0.4,0.4,0.6,,,0.4732,,0.4,0.6,0.6,0.4,0.2,0.8,0.6,0.4,1,0
,,64e114532a07493224e3a5a1,66fc995d5bc6dc80a61d5245,2024-10-02_13h55.02.994,mdp,2024.2.1,Linux x86_64,60.24096386,66fa4ebf79326e780c390304,,,,,,,,,,,,,,,,,,,,,981.3664,981.3664,981.3692,982.2327,1,1,right,0.336,,982.2355,982.866,0,1,left,982.8689,983.8504,1,1,right,0,983.8506,983.8506,983.8532,985.3506,0,46,46,46,1,0.8,0.2,0.8,0.2,,,,,,,,,,,,,,,0.0918,,0.8,0.2,0.2,0.8,0.6,0.4,0.4,0.6,,,0.4525,,0.4,0.6,0.6,0.4,0.2,0.8,0.6,0.4,1,0
,,64e114532a07493224e3a5a1,66fc995d5bc6dc80a61d5245,2024-10-02_13h55.02.994,mdp,2024.2.1,Linux x86_64,60.24096386,66fa4ebf79326e780c390304,,,,,,,,,,,,,,,,,,,,,985.3517,985.3517,985.3545,985.9674,0,1,left,0.0838,,985.9704,986.9014,1,0,right,986.9043,987.7848,0,0,left,1,987.785,987.785,987.7879,989.2856,0,47,47,47,1,0.8,0.2,0.8,0.2,,,,,,,,,,,,,,,0.4193,,0.8,0.2,0.2,0.8,0.6,0.4,0.4,0.6,,,0.3342,,0.4,0.6,0.6,0.4,0.2,0.8,0.6,0.4,1,0
,,64e114532a07493224e3a5a1,66fc995d5bc6dc80a61d5245,2024-10-02_13h55.02.994,mdp,2024.2.1,Linux x86_64,60.24096386,66fa4ebf79326e780c390304,,,,,,,,,,,,,,,,,,,,,989.2869,989.2869,989.2895,989.8359,1,0,right,0.0199,,989.8387,990.4695,0,0,left,990.4723,991.3866,1,0,right,1,991.3867,991.3868,991.3895,992.8874,0,48,48,48,1,0.8,0.2,0.8,0.2,,,,,,,,,,,,,,,0.0836,,0.8,0.2,0.2,0.8,0.6,0.4,0.4,0.6,,,0.3861,,0.4,0.6,0.6,0.4,0.2,0.8,0.6,0.4,1,0
,,64e114532a07493224e3a5a1,66fc995d5bc6dc80a61d5245,2024-10-02_13h55.02.994,mdp,2024.2.1,Linux x86_64,60.24096386,66fa4ebf79326e780c390304,,,,,,,,,,,,,,,,,,,,,992.8886,992.8886,992.8913,994.0378,1,0,right,0.618,,994.0405,994.7548,0,1,left,994.7578,995.9053,1,0,right,1,995.9054,995.9054,995.9084,997.4056,0,49,49,49,1,0.8,0.2,0.8,0.2,,,,,,,,,,,,,,,0.2011,,0.8,0.2,0.2,0.8,0.6,0.4,0.4,0.6,,,0.6226,,0.4,0.6,0.6,0.4,0.2,0.8,0.6,0.4,1,0
,,64e114532a07493224e3a5a1,66fc995d5bc6dc80a61d5245,2024-10-02_13h55.02.994,mdp,2024.2.1,Linux x86_64,60.24096386,66fa4ebf79326e780c390304,,,,,,,,,,,,,,,,,,,,,,,,,,,,,,,,,,,,,,,,,,,,,,,,,,,,,,,,997.4058,1055.9159,0,3,3,6,1,imgs/goat.png,imgs/pig.png,imgs/squirrel.png,imgs/dog.png,imgs/cat.png,,,,,,,,,,,,,,,,,,,,,,,,
,,64e114532a07493224e3a5a1,66fc995d5bc6dc80a61d5245,2024-10-02_13h55.02.994,mdp,2024.2.1,Linux x86_64,60.24096386,66fa4ebf79326e780c390304,,,,,,,,,,,,,,1,seqs/st1seq11.csv,1055.9192,1406.4889,space,350.042,,1406.5023,1406.5024,1406.5052,1408.3892,0,0,left,1.3405,,1408.3914,1408.3927,0,1,,1408.3942,1408.3952,1,1,,1,1408.3953,1408.3953,1408.3964,1409.8903,0,0,0,0,1,0.8,0.2,0.4,0.6,1,0,,,,,,,,,,,,,,,,,,,,,,,,,,,,,,,,,,,,
,,64e114532a07493224e3a5a1,66fc995d5bc6dc80a61d5245,2024-10-02_13h55.02.994,mdp,2024.2.1,Linux x86_64,60.24096386,66fa4ebf79326e780c390304,,,,,,,,,,,,,,,,,,,,,1409.8913,1409.8913,1409.8939,1410.7739,0,0,left,0.3519,,1410.7767,1410.7785,0,0,,1410.7807,1410.7823,1,0,,1,1410.7824,1410.7825,1410.7844,1412.2747,0,1,1,1,1,0.6,0.4,0.8,0.2,1,0,,,,,,,,,,,,,,,,,,,,,,,,,,,,,,,,,,,,
,,64e114532a07493224e3a5a1,66fc995d5bc6dc80a61d5245,2024-10-02_13h55.02.994,mdp,2024.2.1,Linux x86_64,60.24096386,66fa4ebf79326e780c390304,,,,,,,,,,,,,,,,,,,,,1412.2757,1412.2757,1412.2783,1413.2084,0,1,left,0.3986,,1413.2113,1413.213,0,1,,1413.2151,1413.2171,1,1,,0,1413.2172,1413.2172,1413.2189,1414.7097,0,2,2,2,1,0.2,0.8,0.6,0.4,1,0,,,,,,,,,,,,,,,,,,,,,,,,,,,,,,,,,,,,
,,64e114532a07493224e3a5a1,66fc995d5bc6dc80a61d5245,2024-10-02_13h55.02.994,mdp,2024.2.1,Linux x86_64,60.24096386,66fa4ebf79326e780c390304,,,,,,,,,,,,,,,,,,,,,1414.7105,1414.7105,1414.7133,1415.4429,0,1,left,0.201,,1415.4458,1415.4475,0,1,,1415.4496,1415.4516,1,1,,0,1415.4518,1415.4518,1415.4535,1416.9429,0,3,3,3,1,0.2,0.8,0.6,0.4,1,0,,,,,,,,,,,,,,,,,,,,,,,,,,,,,,,,,,,,
,,64e114532a07493224e3a5a1,66fc995d5bc6dc80a61d5245,2024-10-02_13h55.02.994,mdp,2024.2.1,Linux x86_64,60.24096386,66fa4ebf79326e780c390304,,,,,,,,,,,,,,,,,,,,,1416.9433,1416.9433,1416.945,1417.7934,0,0,left,0.3189,,1417.7947,1417.7956,0,0,,1417.7965,1417.7971,1,1,,1,1417.7972,1417.7972,1417.7978,1419.2941,0,4,4,4,1,0.2,0.8,0.6,0.4,1,0,,,,,,,,,,,,,,,,,,,,,,,,,,,,,,,,,,,,
,,64e114532a07493224e3a5a1,66fc995d5bc6dc80a61d5245,2024-10-02_13h55.02.994,mdp,2024.2.1,Linux x86_64,60.24096386,66fa4ebf79326e780c390304,,,,,,,,,,,,,,,,,,,,,1419.2949,1419.2949,1419.297,1420.2449,0,1,left,0.4181,,1420.2477,1420.2496,0,1,,1420.2515,1420.2535,1,1,,0,1420.2535,1420.2536,1420.2557,1421.7457,0,5,5,5,1,0.2,0.8,0.6,0.4,1,0,,,,,,,,,,,,,,,,,,,,,,,,,,,,,,,,,,,,
,,64e114532a07493224e3a5a1,66fc995d5bc6dc80a61d5245,2024-10-02_13h55.02.994,mdp,2024.2.1,Linux x86_64,60.24096386,66fa4ebf79326e780c390304,,,,,,,,,,,,,,,,,,,,,1421.7466,1421.7467,1421.7494,1422.6288,1,0,right,0.3514,,1422.6302,1422.631,0,0,,1422.6318,1422.6325,1,1,,1,1422.6325,1422.6325,1422.6331,1424.1299,0,6,6,6,1,0.2,0.8,0.6,0.4,1,0,,,,,,,,,,,,,,,,,,,,,,,,,,,,,,,,,,,,
,,64e114532a07493224e3a5a1,66fc995d5bc6dc80a61d5245,2024-10-02_13h55.02.994,mdp,2024.2.1,Linux x86_64,60.24096386,66fa4ebf79326e780c390304,,,,,,,,,,,,,,,,,,,,,1424.1308,1424.1308,1424.1336,1425.0138,1,1,right,0.3483,,1425.0166,1425.0184,0,0,,1425.0204,1425.022,1,0,,0,1425.0221,1425.0221,1425.0237,1426.5145,0,7,7,7,1,0.2,0.8,0.6,0.4,1,0,,,,,,,,,,,,,,,,,,,,,,,,,,,,,,,,,,,,
,,64e114532a07493224e3a5a1,66fc995d5bc6dc80a61d5245,2024-10-02_13h55.02.994,mdp,2024.2.1,Linux x86_64,60.24096386,66fa4ebf79326e780c390304,,,,,,,,,,,,,,,,,,,,,1426.5156,1426.5157,1426.5194,1427.0481,0,1,left,0.0011,,1427.0509,1427.0527,0,1,,1427.0547,1427.0563,1,1,,0,1427.0565,1427.0565,1427.0581,1428.5487,0,8,8,8,1,0.2,0.8,0.6,0.4,1,0,,,,,,,,,,,,,,,,,,,,,,,,,,,,,,,,,,,,
,,64e114532a07493224e3a5a1,66fc995d5bc6dc80a61d5245,2024-10-02_13h55.02.994,mdp,2024.2.1,Linux x86_64,60.24096386,66fa4ebf79326e780c390304,,,,,,,,,,,,,,,,,,,,,1428.5495,1428.5495,1428.5522,1429.3657,1,1,right,0.2876,,1429.3689,1429.3706,0,1,,1429.3726,1429.3742,1,1,,0,1429.3742,1429.3743,1429.3759,1430.8663,0,9,9,9,1,0.6,0.4,0.2,0.8,1,0,,,,,,,,,,,,,,,,,,,,,,,,,,,,,,,,,,,,
,,64e114532a07493224e3a5a1,66fc995d5bc6dc80a61d5245,2024-10-02_13h55.02.994,mdp,2024.2.1,Linux x86_64,60.24096386,66fa4ebf79326e780c390304,,,,,,,,,,,,,,,,,,,,,1430.8671,1430.8672,1430.8699,1431.5668,1,1,right,0.1685,,1431.5697,1431.5715,0,1,,1431.5735,1431.5751,1,1,,0,1431.5753,1431.5753,1431.5769,1433.0676,0,10,10,10,1,0.6,0.4,0.2,0.8,1,0,,,,,,,,,,,,,,,,,,,,,,,,,,,,,,,,,,,,
,,64e114532a07493224e3a5a1,66fc995d5bc6dc80a61d5245,2024-10-02_13h55.02.994,mdp,2024.2.1,Linux x86_64,60.24096386,66fa4ebf79326e780c390304,,,,,,,,,,,,,,,,,,,,,1433.0684,1433.0684,1433.0711,1433.7341,0,0,left,0.139,,1433.7354,1433.7364,0,0,,1433.7373,1433.738,1,0,,1,1433.738,1433.738,1433.7387,1435.2357,0,11,11,11,1,0.8,0.2,0.8,0.2,1,0,,,,,,,,,,,,,,,,,,,,,,,,,,,,,,,,,,,,
,,64e114532a07493224e3a5a1,66fc995d5bc6dc80a61d5245,2024-10-02_13h55.02.994,mdp,2024.2.1,Linux x86_64,60.24096386,66fa4ebf79326e780c390304,,,,,,,,,,,,,,,,,,,,,1435.2366,1435.2366,1435.2395,1436.1354,0,0,left,0.3694,,1436.1382,1436.14,0,0,,1436.142,1436.1436,1,0,,1,1436.1436,1436.1437,1436.1454,1437.6361,0,12,12,12,1,0.8,0.2,0.8,0.2,1,0,,,,,,,,,,,,,,,,,,,,,,,,,,,,,,,,,,,,
,,64e114532a07493224e3a5a1,66fc995d5bc6dc80a61d5245,2024-10-02_13h55.02.994,mdp,2024.2.1,Linux x86_64,60.24096386,66fa4ebf79326e780c390304,,,,,,,,,,,,,,,,,,,,,1437.637,1437.637,1437.6398,1438.5031,1,0,right,0.3343,,1438.5059,1438.5077,0,1,,1438.5097,1438.5114,1,0,,1,1438.5115,1438.5115,1438.5132,1440.0043,0,13,13,13,1,0.2,0.8,0.6,0.4,1,0,,,,,,,,,,,,,,,,,,,,,,,,,,,,,,,,,,,,
,,64e114532a07493224e3a5a1,66fc995d5bc6dc80a61d5245,2024-10-02_13h55.02.994,mdp,2024.2.1,Linux x86_64,60.24096386,66fa4ebf79326e780c390304,,,,,,,,,,,,,,,,,,,,,1440.0052,1440.0053,1440.0079,1440.8209,1,0,right,0.2848,,1440.8236,1440.8254,0,0,,1440.8274,1440.829,1,1,,1,1440.8292,1440.8292,1440.831,1442.3215,0,14,14,14,1,0.2,0.8,0.6,0.4,1,0,,,,,,,,,,,,,,,,,,,,,,,,,,,,,,,,,,,,
,,64e114532a07493224e3a5a1,66fc995d5bc6dc80a61d5245,2024-10-02_13h55.02.994,mdp,2024.2.1,Linux x86_64,60.24096386,66fa4ebf79326e780c390304,,,,,,,,,,,,,,,,,,,,,1442.3225,1442.3225,1442.3253,1443.2886,0,1,left,0.435,,1443.2916,1443.2934,0,1,,1443.2956,1443.2974,1,1,,0,1443.2977,1443.2978,1443.2996,1444.7893,0,15,15,15,1,0.2,0.8,0.6,0.4,1,0,,,,,,,,,,,,,,,,,,,,,,,,,,,,,,,,,,,,
,,64e114532a07493224e3a5a1,66fc995d5bc6dc80a61d5245,2024-10-02_13h55.02.994,mdp,2024.2.1,Linux x86_64,60.24096386,66fa4ebf79326e780c390304,,,,,,,,,,,,,,,,,,,,,1444.7902,1444.7902,1444.7928,1445.6063,1,0,right,0.2793,,1445.6091,1445.6115,0,0,,1445.6138,1445.6155,1,1,,1,1445.6156,1445.6157,1445.6175,1447.107,0,16,16,16,1,0.2,0.8,0.6,0.4,1,0,,,,,,,,,,,,,,,,,,,,,,,,,,,,,,,,,,,,
,,64e114532a07493224e3a5a1,66fc995d5bc6dc80a61d5245,2024-10-02_13h55.02.994,mdp,2024.2.1,Linux x86_64,60.24096386,66fa4ebf79326e780c390304,,,,,,,,,,,,,,,,,,,,,1447.1078,1447.1079,1447.1105,1449.6246,1,0,right,1.9887,,1449.6259,1449.6268,0,1,,1449.6277,1449.6283,1,0,,1,1449.6284,1449.6284,1449.629,1451.1255,0,17,17,17,1,0.2,0.8,0.6,0.4,1,0,,,,,,,,,,,,,,,,,,,,,,,,,,,,,,,,,,,,
,,64e114532a07493224e3a5a1,66fc995d5bc6dc80a61d5245,2024-10-02_13h55.02.994,mdp,2024.2.1,Linux x86_64,60.24096386,66fa4ebf79326e780c390304,,,,,,,,,,,,,,,,,,,,,1451.1264,1451.1265,1451.1292,1451.6923,1,1,right,0.0365,,1451.6951,1451.697,0,1,,1451.6991,1451.7006,1,1,,0,1451.7008,1451.7008,1451.7024,1453.193,0,18,18,18,1,0.2,0.8,0.6,0.4,1,0,,,,,,,,,,,,,,,,,,,,,,,,,,,,,,,,,,,,
,,64e114532a07493224e3a5a1,66fc995d5bc6dc80a61d5245,2024-10-02_13h55.02.994,mdp,2024.2.1,Linux x86_64,60.24096386,66fa4ebf79326e780c390304,,,,,,,,,,,,,,,,,,,,,1453.1934,1453.1934,1453.1948,1454.1602,0,1,left,0.4356,,1454.163,1454.1649,0,0,,1454.1669,1454.1684,1,1,,0,1454.1685,1454.1685,1454.1702,1455.6612,0,19,19,19,1,0.2,0.8,0.6,0.4,1,0,,,,,,,,,,,,,,,,,,,,,,,,,,,,,,,,,,,,
,,64e114532a07493224e3a5a1,66fc995d5bc6dc80a61d5245,2024-10-02_13h55.02.994,mdp,2024.2.1,Linux x86_64,60.24096386,66fa4ebf79326e780c390304,,,,,,,,,,,,,,,,,,,,,1455.662,1455.662,1455.6648,1456.5279,1,0,right,0.336,,1456.5312,1456.5329,0,1,,1456.5351,1456.5366,1,0,,1,1456.5367,1456.5368,1456.5385,1458.0284,0,20,20,20,1,0.4,0.6,0.8,0.2,1,0,,,,,,,,,,,,,,,,,,,,,,,,,,,,,,,,,,,,
,,64e114532a07493224e3a5a1,66fc995d5bc6dc80a61d5245,2024-10-02_13h55.02.994,mdp,2024.2.1,Linux x86_64,60.24096386,66fa4ebf79326e780c390304,,,,,,,,,,,,,,,,,,,,,1458.029,1458.029,1458.0302,1458.5621,1,0,right,0.0012,,1458.565,1458.5667,0,1,,1458.5687,1458.5702,1,0,,1,1458.5703,1458.5703,1458.5719,1460.0629,0,21,21,21,1,0.6,0.4,0.6,0.4,1,0,,,,,,,,,,,,,,,,,,,,,,,,,,,,,,,,,,,,
,,64e114532a07493224e3a5a1,66fc995d5bc6dc80a61d5245,2024-10-02_13h55.02.994,mdp,2024.2.1,Linux x86_64,60.24096386,66fa4ebf79326e780c390304,,,,,,,,,,,,,,,,,,,,,1460.0637,1460.0637,1460.0666,1460.9636,1,0,right,0.3662,,1460.9663,1460.9682,0,1,,1460.9702,1460.9717,1,1,,1,1460.9718,1460.9719,1460.9735,1462.464,0,22,22,22,1,0.6,0.4,0.6,0.4,1,0,,,,,,,,,,,,,,,,,,,,,,,,,,,,,,,,,,,,
,,64e114532a07493224e3a5a1,66fc995d5bc6dc80a61d5245,2024-10-02_13h55.02.994,mdp,2024.2.1,Linux x86_64,60.24096386,66fa4ebf79326e780c390304,,,,,,,,,,,,,,,,,,,,,1462.4649,1462.4649,1462.4676,1463.6476,1,0,right,0.6492,,1463.6496,1463.6508,0,0,,1463.6521,1463.6531,1,0,,1,1463.6531,1463.6531,1463.6543,1465.1484,0,23,23,23,1,0.6,0.4,0.6,0.4,1,0,,,,,,,,,,,,,,,,,,,,,,,,,,,,,,,,,,,,
,,64e114532a07493224e3a5a1,66fc995d5bc6dc80a61d5245,2024-10-02_13h55.02.994,mdp,2024.2.1,Linux x86_64,60.24096386,66fa4ebf79326e780c390304,,,,,,,,,,,,,,,,,,,,,1465.1493,1465.1493,1465.1521,1466.2489,1,0,right,0.5683,,1466.2517,1466.2535,0,0,,1466.2555,1466.2571,1,1,,1,1466.2572,1466.2572,1466.2589,1467.7497,0,24,24,24,1,0.6,0.4,0.6,0.4,1,0,,,,,,,,,,,,,,,,,,,,,,,,,,,,,,,,,,,,
,,64e114532a07493224e3a5a1,66fc995d5bc6dc80a61d5245,2024-10-02_13h55.02.994,mdp,2024.2.1,Linux x86_64,60.24096386,66fa4ebf79326e780c390304,,,,,,,,,,,,,,,,,,,,,1467.7505,1467.7505,1467.7532,1468.7835,1,0,right,0.5016,,1468.7871,1468.7891,0,0,,1468.7912,1468.7928,1,1,,1,1468.7929,1468.793,1468.7946,1470.2842,0,25,25,25,1,0.6,0.4,0.6,0.4,1,0,,,,,,,,,,,,,,,,,,,,,,,,,,,,,,,,,,,,
,,64e114532a07493224e3a5a1,66fc995d5bc6dc80a61d5245,2024-10-02_13h55.02.994,mdp,2024.2.1,Linux x86_64,60.24096386,66fa4ebf79326e780c390304,,,,,,,,,,,,,,,,,,,,,1470.2851,1470.2851,1470.288,1471.6353,1,1,right,0.8185,,1471.6381,1471.64,0,0,,1471.642,1471.6441,1,1,,0,1471.6442,1471.6443,1471.6461,1473.1354,0,26,26,26,1,0.6,0.4,0.6,0.4,1,0,,,,,,,,,,,,,,,,,,,,,,,,,,,,,,,,,,,,
,,64e114532a07493224e3a5a1,66fc995d5bc6dc80a61d5245,2024-10-02_13h55.02.994,mdp,2024.2.1,Linux x86_64,60.24096386,66fa4ebf79326e780c390304,,,,,,,,,,,,,,,,,,,,,1473.1368,1473.1368,1473.1388,1474.1526,0,0,left,0.4921,,1474.1557,1474.1579,0,0,,1474.16,1474.1617,1,0,,1,1474.1619,1474.1619,1474.1636,1475.6533,0,27,27,27,1,0.6,0.4,0.6,0.4,1,0,,,,,,,,,,,,,,,,,,,,,,,,,,,,,,,,,,,,
,,64e114532a07493224e3a5a1,66fc995d5bc6dc80a61d5245,2024-10-02_13h55.02.994,mdp,2024.2.1,Linux x86_64,60.24096386,66fa4ebf79326e780c390304,,,,,,,,,,,,,,,,,,,,,1475.6544,1475.6544,1475.657,1476.6371,0,0,left,0.4538,,1476.6399,1476.6416,0,0,,1476.6435,1476.6451,1,0,,1,1476.6452,1476.6453,1476.6469,1478.1376,0,28,28,28,1,0.6,0.4,0.6,0.4,1,0,,,,,,,,,,,,,,,,,,,,,,,,,,,,,,,,,,,,
,,64e114532a07493224e3a5a1,66fc995d5bc6dc80a61d5245,2024-10-02_13h55.02.994,mdp,2024.2.1,Linux x86_64,60.24096386,66fa4ebf79326e780c390304,,,,,,,,,,,,,,,,,,,,,1478.1386,1478.1386,1478.141,1481.1054,0,0,left,2.4326,,1481.1067,1481.1076,0,0,,1481.1083,1481.109,1,0,,1,1481.1091,1481.1091,1481.1097,1482.6065,0,29,29,29,1,0.6,0.4,0.6,0.4,1,0,,,,,,,,,,,,,,,,,,,,,,,,,,,,,,,,,,,,
,,64e114532a07493224e3a5a1,66fc995d5bc6dc80a61d5245,2024-10-02_13h55.02.994,mdp,2024.2.1,Linux x86_64,60.24096386,66fa4ebf79326e780c390304,,,,,,,,,,,,,,,,,,,,,1482.6073,1482.6073,1482.6101,1483.3733,0,0,left,0.2321,,1483.3758,1483.3775,0,1,,1483.3796,1483.3812,1,0,,1,1483.3814,1483.3814,1483.383,1484.8742,0,30,30,30,1,0.6,0.4,0.6,0.4,1,0,,,,,,,,,,,,,,,,,,,,,,,,,,,,,,,,,,,,
,,64e114532a07493224e3a5a1,66fc995d5bc6dc80a61d5245,2024-10-02_13h55.02.994,mdp,2024.2.1,Linux x86_64,60.24096386,66fa4ebf79326e780c390304,,,,,,,,,,,,,,,,,,,,,1484.8751,1484.8751,1484.8777,1485.8245,0,0,left,0.4215,,1485.8274,1485.8291,0,1,,1485.8311,1485.8328,1,1,,1,1485.8329,1485.8329,1485.8349,1487.3256,0,31,31,31,1,0.6,0.4,0.6,0.4,1,0,,,,,,,,,,,,,,,,,,,,,,,,,,,,,,,,,,,,
,,64e114532a07493224e3a5a1,66fc995d5bc6dc80a61d5245,2024-10-02_13h55.02.994,mdp,2024.2.1,Linux x86_64,60.24096386,66fa4ebf79326e780c390304,,,,,,,,,,,,,,,,,,,,,1487.3265,1487.3265,1487.3292,1487.859,0,1,left,0.0066,,1487.8616,1487.8634,0,0,,1487.8654,1487.8671,1,0,,0,1487.8672,1487.8673,1487.8692,1489.3592,0,32,32,32,1,0.6,0.4,0.6,0.4,1,0,,,,,,,,,,,,,,,,,,,,,,,,,,,,,,,,,,,,
,,64e114532a07493224e3a5a1,66fc995d5bc6dc80a61d5245,2024-10-02_13h55.02.994,mdp,2024.2.1,Linux x86_64,60.24096386,66fa4ebf79326e780c390304,,,,,,,,,,,,,,,,,,,,,1489.3597,1489.3597,1489.3612,1489.9932,1,0,right,0.1036,,1489.9959,1489.9977,0,0,,1489.9997,1490.0013,1,1,,1,1490.0013,1490.0014,1490.003,1491.4937,0,33,33,33,1,0.6,0.4,0.6,0.4,1,0,,,,,,,,,,,,,,,,,,,,,,,,,,,,,,,,,,,,
,,64e114532a07493224e3a5a1,66fc995d5bc6dc80a61d5245,2024-10-02_13h55.02.994,mdp,2024.2.1,Linux x86_64,60.24096386,66fa4ebf79326e780c390304,,,,,,,,,,,,,,,,,,,,,1491.4946,1491.4947,1491.4973,1492.1941,1,0,right,0.1675,,1492.1973,1492.1991,0,1,,1492.201,1492.2026,1,1,,1,1492.2027,1492.2027,1492.2044,1493.6949,0,34,34,34,1,0.6,0.4,0.6,0.4,1,0,,,,,,,,,,,,,,,,,,,,,,,,,,,,,,,,,,,,
,,64e114532a07493224e3a5a1,66fc995d5bc6dc80a61d5245,2024-10-02_13h55.02.994,mdp,2024.2.1,Linux x86_64,60.24096386,66fa4ebf79326e780c390304,,,,,,,,,,,,,,,,,,,,,1493.6958,1493.6958,1493.6985,1494.4118,1,0,right,0.1867,,1494.4145,1494.4164,0,1,,1494.4184,1494.4202,1,0,,1,1494.4204,1494.4204,1494.4221,1495.9125,0,35,35,35,1,0.6,0.4,0.6,0.4,1,0,,,,,,,,,,,,,,,,,,,,,,,,,,,,,,,,,,,,
,,64e114532a07493224e3a5a1,66fc995d5bc6dc80a61d5245,2024-10-02_13h55.02.994,mdp,2024.2.1,Linux x86_64,60.24096386,66fa4ebf79326e780c390304,,,,,,,,,,,,,,,,,,,,,1495.9134,1495.9134,1495.916,1496.6294,1,0,right,0.1863,,1496.6323,1496.6341,0,0,,1496.6361,1496.6375,1,1,,1,1496.6377,1496.6377,1496.6393,1498.1303,0,36,36,36,1,0.6,0.4,0.6,0.4,1,0,,,,,,,,,,,,,,,,,,,,,,,,,,,,,,,,,,,,
,,64e114532a07493224e3a5a1,66fc995d5bc6dc80a61d5245,2024-10-02_13h55.02.994,mdp,2024.2.1,Linux x86_64,60.24096386,66fa4ebf79326e780c390304,,,,,,,,,,,,,,,,,,,,,1498.1311,1498.1312,1498.134,1498.9472,0,0,left,0.2878,,1498.95,1498.9518,0,0,,1498.9537,1498.9553,1,0,,1,1498.9554,1498.9555,1498.9571,1500.4479,0,37,37,37,1,0.8,0.2,0.2,0.8,1,0,,,,,,,,,,,,,,,,,,,,,,,,,,,,,,,,,,,,
