init_exp.started,init_exp.stopped,participant,session,date,expName,psychopyVersion,OS,frameRate,study_id,disp_instruction.started,disp_instruction.stopped,instruction.thisRepN,instruction.thisTrialN,instruction.thisN,instruction.thisIndex,instruction.ran,instimg_path,consent.started,consent.stopped,key_resp_3.keys,key_resp_3.rt,key_resp_3.duration,n_steps,sequence_path,init_block.started,init_block.stopped,key_resp.keys,key_resp.rt,key_resp.duration,init_trials.started,init_trials.stopped,step0.started,step0.stopped,act0,s1,res0.keys,res0.rt,res0.duration,step1.started,step1.stopped,act1,s2,res1.keys,step2.started,step2.stopped,act2,s3,res2.keys,rew,reward_comp.started,reward_comp.stopped,reward_disp.started,reward_disp.stopped,trials.thisRepN,trials.thisTrialN,trials.thisN,trials.thisIndex,trials.ran,s00a0s10,s00a0s11,s00a1s10,s00a1s11,rew10,rew11,break_block.started,break_block.stopped,block.thisRepN,block.thisTrialN,block.thisN,block.thisIndex,block.ran,s00path,s10path,s11path,s20path,s21path,res1.rt,res1.duration,s10a0s20,s10a0s21,s10a1s20,s10a1s21,s11a0s20,s11a0s21,s11a1s20,s11a1s21,rew20,rew21,res2.rt,res2.duration,s20a0s30,s20a0s31,s20a1s30,s20a1s31,s21a0s30,s21a0s31,s21a1s30,s21a1s31,rew30,rew31
0.0001,0.0006,64e7533f36d388e8b31d3309,66fc97fdff9cd954959acd5b,2024-10-02_02h47.51.871,mdp,2024.2.1,Win32,60.24096386,66fa4ebf79326e780c390304,,,,,,,,,,,,,,,,,,,,,,,,,,,,,,,,,,,,,,,,,,,,,,,,,,,,,,,,,,,,,,,,,,,,,,,,,,,,,,,,,,,,,,,,,,,
,,64e7533f36d388e8b31d3309,66fc97fdff9cd954959acd5b,2024-10-02_02h47.51.871,mdp,2024.2.1,Win32,60.24096386,66fa4ebf79326e780c390304,0.0025,33.0802,0,0,0,0,1,rlnn_exp/rlnn_exp.001.png,,,,,,,,,,,,,,,,,,,,,,,,,,,,,,,,,,,,,,,,,,,,,,,,,,,,,,,,,,,,,,,,,,,,,,,,,,,,,,,,,,,
,,64e7533f36d388e8b31d3309,66fc97fdff9cd954959acd5b,2024-10-02_02h47.51.871,mdp,2024.2.1,Win32,60.24096386,66fa4ebf79326e780c390304,33.0807,48.1467,0,1,1,1,1,rlnn_exp/rlnn_exp.002.png,,,,,,,,,,,,,,,,,,,,,,,,,,,,,,,,,,,,,,,,,,,,,,,,,,,,,,,,,,,,,,,,,,,,,,,,,,,,,,,,,,,
,,64e7533f36d388e8b31d3309,66fc97fdff9cd954959acd5b,2024-10-02_02h47.51.871,mdp,2024.2.1,Win32,60.24096386,66fa4ebf79326e780c390304,48.1542,83.6967,0,2,2,2,1,rlnn_exp/rlnn_exp.003.png,,,,,,,,,,,,,,,,,,,,,,,,,,,,,,,,,,,,,,,,,,,,,,,,,,,,,,,,,,,,,,,,,,,,,,,,,,,,,,,,,,,
,,64e7533f36d388e8b31d3309,66fc97fdff9cd954959acd5b,2024-10-02_02h47.51.871,mdp,2024.2.1,Win32,60.24096386,66fa4ebf79326e780c390304,83.7043,95.7634,0,3,3,3,1,rlnn_exp/rlnn_exp.004.png,,,,,,,,,,,,,,,,,,,,,,,,,,,,,,,,,,,,,,,,,,,,,,,,,,,,,,,,,,,,,,,,,,,,,,,,,,,,,,,,,,,
,,64e7533f36d388e8b31d3309,66fc97fdff9cd954959acd5b,2024-10-02_02h47.51.871,mdp,2024.2.1,Win32,60.24096386,66fa4ebf79326e780c390304,,,,,,,,,95.7704,114.4472,y,8.6524,,,,,,,,,,,,,,,,,,,,,,,,,,,,,,,,,,,,,,,,,,,,,,,,,,,,,,,,,,,,,,,,,,,,,,,,,,,,,,,
,,64e7533f36d388e8b31d3309,66fc97fdff9cd954959acd5b,2024-10-02_02h47.51.871,mdp,2024.2.1,Win32,60.24096386,66fa4ebf79326e780c390304,,,,,,,,,,,,,,1,seqs/st1seq45.csv,114.4576,118.3137,space,3.3447,,118.3161,118.3162,118.3164,124.2304,1,0,right,5.3849,,124.2376,124.2387,,0,,124.239,124.2398,,0,,1,124.2399,124.2399,124.2402,125.7303,0,0,0,0,1,0.8,0.2,0.8,0.2,1,0,,,,,,,,,,,,,,,,,,,,,,,,,,,,,,,,,,,,
,,64e7533f36d388e8b31d3309,66fc97fdff9cd954959acd5b,2024-10-02_02h47.51.871,mdp,2024.2.1,Win32,60.24096386,66fa4ebf79326e780c390304,,,,,,,,,,,,,,,,,,,,,125.7307,125.7307,125.7321,130.0967,1,1,right,3.8336,,130.1045,130.1049,,1,,130.1052,130.1054,,0,,0,130.1054,130.1054,130.1055,131.5969,0,1,1,1,1,0.8,0.2,0.8,0.2,1,0,,,,,,,,,,,,,,,,,,,,,,,,,,,,,,,,,,,,
,,64e7533f36d388e8b31d3309,66fc97fdff9cd954959acd5b,2024-10-02_02h47.51.871,mdp,2024.2.1,Win32,60.24096386,66fa4ebf79326e780c390304,,,,,,,,,,,,,,,,,,,,,131.5971,131.5971,131.5986,134.3135,1,0,right,2.1943,,134.3142,134.3152,,1,,134.3158,134.3162,,0,,1,134.3162,134.3162,134.3166,135.8135,0,2,2,2,1,0.8,0.2,0.8,0.2,1,0,,,,,,,,,,,,,,,,,,,,,,,,,,,,,,,,,,,,
,,64e7533f36d388e8b31d3309,66fc97fdff9cd954959acd5b,2024-10-02_02h47.51.871,mdp,2024.2.1,Win32,60.24096386,66fa4ebf79326e780c390304,,,,,,,,,,,,,,,,,,,,,135.8136,135.8136,135.8142,137.8635,1,0,right,1.5172,,137.8645,137.8653,,0,,137.8658,137.8662,,0,,1,137.8662,137.8663,137.8665,139.3635,0,3,3,3,1,0.8,0.2,0.8,0.2,1,0,,,,,,,,,,,,,,,,,,,,,,,,,,,,,,,,,,,,
,,64e7533f36d388e8b31d3309,66fc97fdff9cd954959acd5b,2024-10-02_02h47.51.871,mdp,2024.2.1,Win32,60.24096386,66fa4ebf79326e780c390304,,,,,,,,,,,,,,,,,,,,,139.3638,139.3638,139.3649,140.8634,1,0,right,0.9722,,140.8642,140.8651,,0,,140.8655,140.866,,0,,1,140.866,140.866,140.8664,142.3634,0,4,4,4,1,0.6,0.4,0.6,0.4,1,0,,,,,,,,,,,,,,,,,,,,,,,,,,,,,,,,,,,,
,,64e7533f36d388e8b31d3309,66fc97fdff9cd954959acd5b,2024-10-02_02h47.51.871,mdp,2024.2.1,Win32,60.24096386,66fa4ebf79326e780c390304,,,,,,,,,,,,,,,,,,,,,142.3638,142.3638,142.3651,143.6802,1,1,right,0.7841,,143.681,143.6815,,0,,143.6821,143.6826,,0,,0,143.6826,143.6826,143.6829,145.1801,0,5,5,5,1,0.6,0.4,0.6,0.4,1,0,,,,,,,,,,,,,,,,,,,,,,,,,,,,,,,,,,,,
,,64e7533f36d388e8b31d3309,66fc97fdff9cd954959acd5b,2024-10-02_02h47.51.871,mdp,2024.2.1,Win32,60.24096386,66fa4ebf79326e780c390304,,,,,,,,,,,,,,,,,,,,,145.1804,145.1804,145.1813,146.6966,1,0,right,0.9869,,146.6976,146.6984,,1,,146.6989,146.6994,,1,,1,146.6994,146.6994,146.6997,148.1968,0,6,6,6,1,0.6,0.4,0.6,0.4,1,0,,,,,,,,,,,,,,,,,,,,,,,,,,,,,,,,,,,,
,,64e7533f36d388e8b31d3309,66fc97fdff9cd954959acd5b,2024-10-02_02h47.51.871,mdp,2024.2.1,Win32,60.24096386,66fa4ebf79326e780c390304,,,,,,,,,,,,,,,,,,,,,148.1971,148.1971,148.1986,149.7301,1,0,right,1.0011,,149.7307,149.7313,,1,,149.7317,149.7322,,0,,1,149.7322,149.7323,149.7326,151.2301,0,7,7,7,1,0.6,0.4,0.6,0.4,1,0,,,,,,,,,,,,,,,,,,,,,,,,,,,,,,,,,,,,
,,64e7533f36d388e8b31d3309,66fc97fdff9cd954959acd5b,2024-10-02_02h47.51.871,mdp,2024.2.1,Win32,60.24096386,66fa4ebf79326e780c390304,,,,,,,,,,,,,,,,,,,,,151.2304,151.2304,151.2312,152.8133,1,0,right,1.0559,,152.814,152.8146,,0,,152.8152,152.8156,,0,,1,152.8156,152.8156,152.8159,154.3135,0,8,8,8,1,0.8,0.2,0.8,0.2,1,0,,,,,,,,,,,,,,,,,,,,,,,,,,,,,,,,,,,,
,,64e7533f36d388e8b31d3309,66fc97fdff9cd954959acd5b,2024-10-02_02h47.51.871,mdp,2024.2.1,Win32,60.24096386,66fa4ebf79326e780c390304,,,,,,,,,,,,,,,,,,,,,154.3138,154.3138,154.3147,155.9967,1,0,right,1.1524,,155.9971,155.9973,,0,,155.9976,155.998,,0,,1,155.9981,155.9981,155.9983,157.4968,0,9,9,9,1,0.8,0.2,0.8,0.2,1,0,,,,,,,,,,,,,,,,,,,,,,,,,,,,,,,,,,,,
,,64e7533f36d388e8b31d3309,66fc97fdff9cd954959acd5b,2024-10-02_02h47.51.871,mdp,2024.2.1,Win32,60.24096386,66fa4ebf79326e780c390304,,,,,,,,,,,,,,,,,,,,,157.497,157.497,157.4976,159.1301,1,0,right,1.1023,,159.1308,159.1314,,1,,159.1318,159.1321,,1,,1,159.1322,159.1322,159.1327,160.6301,0,10,10,10,1,0.8,0.2,0.8,0.2,1,0,,,,,,,,,,,,,,,,,,,,,,,,,,,,,,,,,,,,
,,64e7533f36d388e8b31d3309,66fc97fdff9cd954959acd5b,2024-10-02_02h47.51.871,mdp,2024.2.1,Win32,60.24096386,66fa4ebf79326e780c390304,,,,,,,,,,,,,,,,,,,,,160.6304,160.6304,160.631,161.73,1,0,right,0.5678,,161.7307,161.7316,,0,,161.7321,161.7326,,0,,1,161.7326,161.7326,161.733,163.2301,0,11,11,11,1,0.8,0.2,0.8,0.2,1,0,,,,,,,,,,,,,,,,,,,,,,,,,,,,,,,,,,,,
,,64e7533f36d388e8b31d3309,66fc97fdff9cd954959acd5b,2024-10-02_02h47.51.871,mdp,2024.2.1,Win32,60.24096386,66fa4ebf79326e780c390304,,,,,,,,,,,,,,,,,,,,,163.2303,163.2303,163.2312,164.1967,1,0,right,0.4348,,164.1974,164.1982,,0,,164.1987,164.199,,0,,1,164.1991,164.1991,164.1994,165.6967,0,12,12,12,1,0.8,0.2,0.8,0.2,1,0,,,,,,,,,,,,,,,,,,,,,,,,,,,,,,,,,,,,
,,64e7533f36d388e8b31d3309,66fc97fdff9cd954959acd5b,2024-10-02_02h47.51.871,mdp,2024.2.1,Win32,60.24096386,66fa4ebf79326e780c390304,,,,,,,,,,,,,,,,,,,,,165.6969,165.6969,165.6976,166.6134,1,0,right,0.3839,,166.614,166.6147,,0,,166.6152,166.6157,,0,,1,166.6157,166.6157,166.616,168.1135,0,13,13,13,1,0.8,0.2,0.8,0.2,1,0,,,,,,,,,,,,,,,,,,,,,,,,,,,,,,,,,,,,
,,64e7533f36d388e8b31d3309,66fc97fdff9cd954959acd5b,2024-10-02_02h47.51.871,mdp,2024.2.1,Win32,60.24096386,66fa4ebf79326e780c390304,,,,,,,,,,,,,,,,,,,,,168.1137,168.1137,168.1144,168.7467,1,0,right,0.1094,,168.7474,168.7479,,0,,168.7482,168.7484,,0,,1,168.7484,168.7485,168.7487,170.2467,0,14,14,14,1,0.8,0.2,0.8,0.2,1,0,,,,,,,,,,,,,,,,,,,,,,,,,,,,,,,,,,,,
,,64e7533f36d388e8b31d3309,66fc97fdff9cd954959acd5b,2024-10-02_02h47.51.871,mdp,2024.2.1,Win32,60.24096386,66fa4ebf79326e780c390304,,,,,,,,,,,,,,,,,,,,,170.247,170.247,170.2476,171.2467,1,0,right,0.4718,,171.2474,171.2476,,0,,171.2479,171.248,,0,,1,171.248,171.248,171.2482,172.7468,0,15,15,15,1,0.8,0.2,0.8,0.2,1,0,,,,,,,,,,,,,,,,,,,,,,,,,,,,,,,,,,,,
,,64e7533f36d388e8b31d3309,66fc97fdff9cd954959acd5b,2024-10-02_02h47.51.871,mdp,2024.2.1,Win32,60.24096386,66fa4ebf79326e780c390304,,,,,,,,,,,,,,,,,,,,,172.747,172.747,172.7476,173.7634,1,1,right,0.4849,,173.7642,173.765,,0,,173.7654,173.7658,,1,,0,173.7658,173.7658,173.7661,175.2636,0,16,16,16,1,0.6,0.4,0.4,0.6,1,0,,,,,,,,,,,,,,,,,,,,,,,,,,,,,,,,,,,,
,,64e7533f36d388e8b31d3309,66fc97fdff9cd954959acd5b,2024-10-02_02h47.51.871,mdp,2024.2.1,Win32,60.24096386,66fa4ebf79326e780c390304,,,,,,,,,,,,,,,,,,,,,175.2639,175.2639,175.2648,176.2801,1,0,right,0.4875,,176.281,176.2819,,1,,176.2824,176.2827,,1,,1,176.2827,176.2827,176.2831,177.7801,0,17,17,17,1,0.6,0.4,0.4,0.6,1,0,,,,,,,,,,,,,,,,,,,,,,,,,,,,,,,,,,,,
,,64e7533f36d388e8b31d3309,66fc97fdff9cd954959acd5b,2024-10-02_02h47.51.871,mdp,2024.2.1,Win32,60.24096386,66fa4ebf79326e780c390304,,,,,,,,,,,,,,,,,,,,,177.7803,177.7803,177.7811,178.6135,1,0,right,0.3068,,178.6142,178.6148,,1,,178.6152,178.6158,,0,,1,178.6158,178.6158,178.6163,180.1138,0,18,18,18,1,0.6,0.4,0.4,0.6,1,0,,,,,,,,,,,,,,,,,,,,,,,,,,,,,,,,,,,,
,,64e7533f36d388e8b31d3309,66fc97fdff9cd954959acd5b,2024-10-02_02h47.51.871,mdp,2024.2.1,Win32,60.24096386,66fa4ebf79326e780c390304,,,,,,,,,,,,,,,,,,,,,180.114,180.114,180.1147,181.0301,1,1,right,0.3836,,181.0309,181.0313,,1,,181.0316,181.0319,,1,,0,181.032,181.032,181.0322,182.5302,0,19,19,19,1,0.6,0.4,0.4,0.6,1,0,,,,,,,,,,,,,,,,,,,,,,,,,,,,,,,,,,,,
,,64e7533f36d388e8b31d3309,66fc97fdff9cd954959acd5b,2024-10-02_02h47.51.871,mdp,2024.2.1,Win32,60.24096386,66fa4ebf79326e780c390304,,,,,,,,,,,,,,,,,,,,,182.5305,182.5305,182.5315,183.8467,1,1,right,0.7828,,183.8472,183.8476,,0,,183.8479,183.8481,,0,,0,183.8481,183.8481,183.8483,185.3467,0,20,20,20,1,0.2,0.8,0.8,0.2,1,0,,,,,,,,,,,,,,,,,,,,,,,,,,,,,,,,,,,,
,,64e7533f36d388e8b31d3309,66fc97fdff9cd954959acd5b,2024-10-02_02h47.51.871,mdp,2024.2.1,Win32,60.24096386,66fa4ebf79326e780c390304,,,,,,,,,,,,,,,,,,,,,185.347,185.347,185.3477,186.2967,1,0,right,0.4193,,186.2974,186.2979,,0,,186.2983,186.2989,,0,,1,186.2989,186.2989,186.2992,187.7968,0,21,21,21,1,0.2,0.8,0.8,0.2,1,0,,,,,,,,,,,,,,,,,,,,,,,,,,,,,,,,,,,,
,,64e7533f36d388e8b31d3309,66fc97fdff9cd954959acd5b,2024-10-02_02h47.51.871,mdp,2024.2.1,Win32,60.24096386,66fa4ebf79326e780c390304,,,,,,,,,,,,,,,,,,,,,187.797,187.797,187.7977,189.4467,1,0,right,1.1212,,189.4474,189.4482,,0,,189.4489,189.4492,,0,,1,189.4492,189.4492,189.4495,190.9468,0,22,22,22,1,0.2,0.8,0.8,0.2,1,0,,,,,,,,,,,,,,,,,,,,,,,,,,,,,,,,,,,,
,,64e7533f36d388e8b31d3309,66fc97fdff9cd954959acd5b,2024-10-02_02h47.51.871,mdp,2024.2.1,Win32,60.24096386,66fa4ebf79326e780c390304,,,,,,,,,,,,,,,,,,,,,190.947,190.947,190.9478,192.1802,1,0,right,0.708,,192.1809,192.1814,,1,,192.1819,192.1824,,0,,1,192.1824,192.1824,192.1827,193.6801,0,23,23,23,1,0.2,0.8,0.8,0.2,1,0,,,,,,,,,,,,,,,,,,,,,,,,,,,,,,,,,,,,
,,64e7533f36d388e8b31d3309,66fc97fdff9cd954959acd5b,2024-10-02_02h47.51.871,mdp,2024.2.1,Win32,60.24096386,66fa4ebf79326e780c390304,,,,,,,,,,,,,,,,,,,,,193.6804,193.6804,193.6814,195.0801,1,1,right,0.8704,,195.0806,195.081,,0,,195.0813,195.0814,,0,,0,195.0814,195.0814,195.0816,196.5801,0,24,24,24,1,0.2,0.8,0.8,0.2,1,0,,,,,,,,,,,,,,,,,,,,,,,,,,,,,,,,,,,,
,,64e7533f36d388e8b31d3309,66fc97fdff9cd954959acd5b,2024-10-02_02h47.51.871,mdp,2024.2.1,Win32,60.24096386,66fa4ebf79326e780c390304,,,,,,,,,,,,,,,,,,,,,196.5804,196.5804,196.5809,197.6969,1,0,right,0.5875,,197.6977,197.6987,,1,,197.6993,197.6996,,0,,1,197.6996,197.6996,197.7002,199.1968,0,25,25,25,1,0.4,0.6,0.6,0.4,1,0,,,,,,,,,,,,,,,,,,,,,,,,,,,,,,,,,,,,
,,64e7533f36d388e8b31d3309,66fc97fdff9cd954959acd5b,2024-10-02_02h47.51.871,mdp,2024.2.1,Win32,60.24096386,66fa4ebf79326e780c390304,,,,,,,,,,,,,,,,,,,,,199.197,199.197,199.1976,200.83,1,0,right,1.0999,,200.8305,200.8309,,1,,200.8312,200.8313,,1,,1,200.8314,200.8314,200.8315,202.3301,0,26,26,26,1,0.4,0.6,0.6,0.4,1,0,,,,,,,,,,,,,,,,,,,,,,,,,,,,,,,,,,,,
,,64e7533f36d388e8b31d3309,66fc97fdff9cd954959acd5b,2024-10-02_02h47.51.871,mdp,2024.2.1,Win32,60.24096386,66fa4ebf79326e780c390304,,,,,,,,,,,,,,,,,,,,,202.3304,202.3304,202.3314,203.5635,1,1,right,0.7091,,203.5641,203.5647,,1,,203.5652,203.5656,,0,,0,203.5656,203.5656,203.566,205.0633,0,27,27,27,1,0.6,0.4,0.4,0.6,1,0,,,,,,,,,,,,,,,,,,,,,,,,,,,,,,,,,,,,
,,64e7533f36d388e8b31d3309,66fc97fdff9cd954959acd5b,2024-10-02_02h47.51.871,mdp,2024.2.1,Win32,60.24096386,66fa4ebf79326e780c390304,,,,,,,,,,,,,,,,,,,,,205.0636,205.0636,205.0643,206.3301,1,1,right,0.7347,,206.3308,206.3313,,0,,206.3318,206.3322,,0,,0,206.3323,206.3323,206.3326,207.83,0,28,28,28,1,0.4,0.6,0.6,0.4,1,0,,,,,,,,,,,,,,,,,,,,,,,,,,,,,,,,,,,,
,,64e7533f36d388e8b31d3309,66fc97fdff9cd954959acd5b,2024-10-02_02h47.51.871,mdp,2024.2.1,Win32,60.24096386,66fa4ebf79326e780c390304,,,,,,,,,,,,,,,,,,,,,207.8303,207.8303,207.8309,208.9801,1,0,right,0.624,,208.9808,208.9814,,0,,208.9819,208.9825,,0,,1,208.9825,208.9825,208.9828,210.4801,0,29,29,29,1,0.4,0.6,0.6,0.4,1,0,,,,,,,,,,,,,,,,,,,,,,,,,,,,,,,,,,,,
,,64e7533f36d388e8b31d3309,66fc97fdff9cd954959acd5b,2024-10-02_02h47.51.871,mdp,2024.2.1,Win32,60.24096386,66fa4ebf79326e780c390304,,,,,,,,,,,,,,,,,,,,,210.4804,210.4804,210.4809,211.48,1,0,right,0.4675,,211.4807,211.481,,1,,211.4815,211.4817,,1,,1,211.4817,211.4817,211.4819,212.9802,0,30,30,30,1,0.4,0.6,0.6,0.4,1,0,,,,,,,,,,,,,,,,,,,,,,,,,,,,,,,,,,,,
,,64e7533f36d388e8b31d3309,66fc97fdff9cd954959acd5b,2024-10-02_02h47.51.871,mdp,2024.2.1,Win32,60.24096386,66fa4ebf79326e780c390304,,,,,,,,,,,,,,,,,,,,,212.9805,212.9805,212.9817,213.9634,1,0,right,0.4512,,213.9641,213.9647,,1,,213.9652,213.9656,,0,,1,213.9656,213.9656,213.9659,215.4634,0,31,31,31,1,0.4,0.6,0.6,0.4,1,0,,,,,,,,,,,,,,,,,,,,,,,,,,,,,,,,,,,,
,,64e7533f36d388e8b31d3309,66fc97fdff9cd954959acd5b,2024-10-02_02h47.51.871,mdp,2024.2.1,Win32,60.24096386,66fa4ebf79326e780c390304,,,,,,,,,,,,,,,,,,,,,215.4637,215.4637,215.4644,216.7967,1,0,right,0.8013,,216.7974,216.7982,,0,,216.7986,216.7989,,0,,1,216.7989,216.7989,216.7993,218.2969,0,32,32,32,1,0.4,0.6,0.6,0.4,1,0,,,,,,,,,,,,,,,,,,,,,,,,,,,,,,,,,,,,
,,64e7533f36d388e8b31d3309,66fc97fdff9cd954959acd5b,2024-10-02_02h47.51.871,mdp,2024.2.1,Win32,60.24096386,66fa4ebf79326e780c390304,,,,,,,,,,,,,,,,,,,,,218.297,218.297,218.2974,219.5801,1,0,right,0.7506,,219.5809,219.5817,,0,,219.5822,219.5825,,0,,1,219.5825,219.5825,219.583,221.0801,0,33,33,33,1,0.4,0.6,0.6,0.4,1,0,,,,,,,,,,,,,,,,,,,,,,,,,,,,,,,,,,,,
,,64e7533f36d388e8b31d3309,66fc97fdff9cd954959acd5b,2024-10-02_02h47.51.871,mdp,2024.2.1,Win32,60.24096386,66fa4ebf79326e780c390304,,,,,,,,,,,,,,,,,,,,,221.0802,221.0802,221.0809,221.8466,1,1,right,0.2375,,221.8471,221.8474,,0,,221.8476,221.8477,,0,,0,221.8477,221.8477,221.8479,223.3468,0,34,34,34,1,0.4,0.6,0.6,0.4,1,0,,,,,,,,,,,,,,,,,,,,,,,,,,,,,,,,,,,,
,,64e7533f36d388e8b31d3309,66fc97fdff9cd954959acd5b,2024-10-02_02h47.51.871,mdp,2024.2.1,Win32,60.24096386,66fa4ebf79326e780c390304,,,,,,,,,,,,,,,,,,,,,223.3469,223.347,223.3478,224.3802,1,0,right,0.5007,,224.3809,224.3813,,0,,224.3817,224.3823,,1,,1,224.3823,224.3823,224.3827,225.8801,0,35,35,35,1,0.4,0.6,0.6,0.4,1,0,,,,,,,,,,,,,,,,,,,,,,,,,,,,,,,,,,,,
,,64e7533f36d388e8b31d3309,66fc97fdff9cd954959acd5b,2024-10-02_02h47.51.871,mdp,2024.2.1,Win32,60.24096386,66fa4ebf79326e780c390304,,,,,,,,,,,,,,,,,,,,,225.8804,225.8804,225.8815,226.8635,1,0,right,0.4539,,226.8641,226.8647,,1,,226.8651,226.8657,,1,,1,226.8657,226.8657,226.8661,228.3634,0,36,36,36,1,0.4,0.6,0.6,0.4,1,0,,,,,,,,,,,,,,,,,,,,,,,,,,,,,,,,,,,,
,,64e7533f36d388e8b31d3309,66fc97fdff9cd954959acd5b,2024-10-02_02h47.51.871,mdp,2024.2.1,Win32,60.24096386,66fa4ebf79326e780c390304,,,,,,,,,,,,,,,,,,,,,228.3638,228.3638,228.3645,229.3635,1,0,right,0.4666,,229.3645,229.3653,,1,,229.3657,229.3661,,0,,1,229.3661,229.3661,229.3664,230.8635,0,37,37,37,1,0.4,0.6,0.6,0.4,1,0,,,,,,,,,,,,,,,,,,,,,,,,,,,,,,,,,,,,
,,64e7533f36d388e8b31d3309,66fc97fdff9cd954959acd5b,2024-10-02_02h47.51.871,mdp,2024.2.1,Win32,60.24096386,66fa4ebf79326e780c390304,,,,,,,,,,,,,,,,,,,,,230.8637,230.8637,230.8644,231.7635,1,1,right,0.3678,,231.7642,231.7647,,0,,231.7651,231.7657,,0,,0,231.7657,231.7657,231.7662,233.2634,0,38,38,38,1,0.4,0.6,0.6,0.4,1,0,,,,,,,,,,,,,,,,,,,,,,,,,,,,,,,,,,,,
,,64e7533f36d388e8b31d3309,66fc97fdff9cd954959acd5b,2024-10-02_02h47.51.871,mdp,2024.2.1,Win32,60.24096386,66fa4ebf79326e780c390304,,,,,,,,,,,,,,,,,,,,,233.2638,233.2638,233.2646,235.08,1,1,right,1.2954,,235.0807,235.0809,,1,,235.0811,235.0813,,1,,0,235.0813,235.0813,235.0814,236.5802,0,39,39,39,1,0.4,0.6,0.6,0.4,1,0,,,,,,,,,,,,,,,,,,,,,,,,,,,,,,,,,,,,
,,64e7533f36d388e8b31d3309,66fc97fdff9cd954959acd5b,2024-10-02_02h47.51.871,mdp,2024.2.1,Win32,60.24096386,66fa4ebf79326e780c390304,,,,,,,,,,,,,,,,,,,,,236.5804,236.5804,236.5818,237.6301,1,1,right,0.5172,,237.6309,237.6314,,0,,237.6319,237.6324,,1,,0,237.6324,237.6324,237.6327,239.13,0,40,40,40,1,0.4,0.6,0.6,0.4,1,0,,,,,,,,,,,,,,,,,,,,,,,,,,,,,,,,,,,,
,,64e7533f36d388e8b31d3309,66fc97fdff9cd954959acd5b,2024-10-02_02h47.51.871,mdp,2024.2.1,Win32,60.24096386,66fa4ebf79326e780c390304,,,,,,,,,,,,,,,,,,,,,239.1303,239.1303,239.1305,240.3802,0,1,left,0.717,,240.3808,240.3814,,1,,240.3817,240.382,,1,,0,240.3821,240.3821,240.3825,241.88,0,41,41,41,1,0.4,0.6,0.6,0.4,1,0,,,,,,,,,,,,,,,,,,,,,,,,,,,,,,,,,,,,
,,64e7533f36d388e8b31d3309,66fc97fdff9cd954959acd5b,2024-10-02_02h47.51.871,mdp,2024.2.1,Win32,60.24096386,66fa4ebf79326e780c390304,,,,,,,,,,,,,,,,,,,,,241.8802,241.8802,241.8805,243.0135,1,0,right,0.6055,,243.0142,243.0148,,0,,243.0151,243.0153,,0,,1,243.0153,243.0153,243.0155,244.5134,0,42,42,42,1,0.4,0.6,0.6,0.4,1,0,,,,,,,,,,,,,,,,,,,,,,,,,,,,,,,,,,,,
,,64e7533f36d388e8b31d3309,66fc97fdff9cd954959acd5b,2024-10-02_02h47.51.871,mdp,2024.2.1,Win32,60.24096386,66fa4ebf79326e780c390304,,,,,,,,,,,,,,,,,,,,,244.5137,244.5137,244.5143,245.7467,1,0,right,0.7012,,245.7474,245.7478,,1,,245.7483,245.7486,,1,,1,245.7486,245.7486,245.7491,247.2467,0,43,43,43,1,0.4,0.6,0.6,0.4,1,0,,,,,,,,,,,,,,,,,,,,,,,,,,,,,,,,,,,,
,,64e7533f36d388e8b31d3309,66fc97fdff9cd954959acd5b,2024-10-02_02h47.51.871,mdp,2024.2.1,Win32,60.24096386,66fa4ebf79326e780c390304,,,,,,,,,,,,,,,,,,,,,247.2469,247.2469,247.2476,248.3968,1,1,right,0.624,,248.3975,248.398,,1,,248.3983,248.3988,,1,,0,248.3988,248.3988,248.3993,249.8969,0,44,44,44,1,0.4,0.6,0.6,0.4,1,0,,,,,,,,,,,,,,,,,,,,,,,,,,,,,,,,,,,,
,,64e7533f36d388e8b31d3309,66fc97fdff9cd954959acd5b,2024-10-02_02h47.51.871,mdp,2024.2.1,Win32,60.24096386,66fa4ebf79326e780c390304,,,,,,,,,,,,,,,,,,,,,249.8971,249.8971,249.8978,250.4801,0,0,left,0.0507,,250.4808,250.4812,,0,,250.4817,250.4821,,1,,1,250.4822,250.4822,250.4826,251.9802,0,45,45,45,1,0.4,0.6,0.6,0.4,1,0,,,,,,,,,,,,,,,,,,,,,,,,,,,,,,,,,,,,
,,64e7533f36d388e8b31d3309,66fc97fdff9cd954959acd5b,2024-10-02_02h47.51.871,mdp,2024.2.1,Win32,60.24096386,66fa4ebf79326e780c390304,,,,,,,,,,,,,,,,,,,,,251.9806,251.9806,251.9818,253.0299,0,1,left,0.5227,,253.0305,253.031,,0,,253.0314,253.0317,,1,,0,253.0317,253.0317,253.0318,254.5302,0,46,46,46,1,0.4,0.6,0.6,0.4,1,0,,,,,,,,,,,,,,,,,,,,,,,,,,,,,,,,,,,,
,,64e7533f36d388e8b31d3309,66fc97fdff9cd954959acd5b,2024-10-02_02h47.51.871,mdp,2024.2.1,Win32,60.24096386,66fa4ebf79326e780c390304,,,,,,,,,,,,,,,,,,,,,254.5303,254.5304,254.531,256.5634,0,0,left,1.5089,,256.5641,256.5646,,1,,256.565,256.5656,,0,,1,256.5656,256.5656,256.5659,258.0634,0,47,47,47,1,0.4,0.6,0.6,0.4,1,0,,,,,,,,,,,,,,,,,,,,,,,,,,,,,,,,,,,,
,,64e7533f36d388e8b31d3309,66fc97fdff9cd954959acd5b,2024-10-02_02h47.51.871,mdp,2024.2.1,Win32,60.24096386,66fa4ebf79326e780c390304,,,,,,,,,,,,,,,,,,,,,258.0636,258.0636,258.0643,259.1306,0,1,left,0.5358,,259.1313,259.1318,,1,,259.1324,259.1328,,0,,0,259.1328,259.1328,259.1331,260.63,0,48,48,48,1,0.4,0.6,0.6,0.4,1,0,,,,,,,,,,,,,,,,,,,,,,,,,,,,,,,,,,,,
,,64e7533f36d388e8b31d3309,66fc97fdff9cd954959acd5b,2024-10-02_02h47.51.871,mdp,2024.2.1,Win32,60.24096386,66fa4ebf79326e780c390304,,,,,,,,,,,,,,,,,,,,,260.6303,260.6303,260.631,261.6467,1,1,right,0.484,,261.6474,261.648,,0,,261.6485,261.6489,,0,,0,261.6489,261.6489,261.6493,263.1468,0,49,49,49,1,0.4,0.6,0.6,0.4,1,0,,,,,,,,,,,,,,,,,,,,,,,,,,,,,,,,,,,,
,,64e7533f36d388e8b31d3309,66fc97fdff9cd954959acd5b,2024-10-02_02h47.51.871,mdp,2024.2.1,Win32,60.24096386,66fa4ebf79326e780c390304,,,,,,,,,,,,,,,,,,,,,,,,,,,,,,,,,,,,,,,,,,,,,,,,,,,,,,,,263.1473,321.6637,0,0,0,2,1,imgs/lion.png,imgs/elephant.png,imgs/goat.png,imgs/giraffe.png,imgs/squirrel.png,,,,,,,,,,,,,,,,,,,,,,,,
,,64e7533f36d388e8b31d3309,66fc97fdff9cd954959acd5b,2024-10-02_02h47.51.871,mdp,2024.2.1,Win32,60.24096386,66fa4ebf79326e780c390304,,,,,,,,,,,,,,2,seqs/st2seq14.csv,321.6709,345.6134,space,23.4221,,345.6235,345.6235,345.6241,349.0634,0,1,left,2.9184,,349.0642,351.6802,0,1,left,351.6878,351.6882,,0,,0,351.6882,351.6882,351.6886,353.1802,0,0,0,0,1,0.2,0.8,0.8,0.2,,,,,,,,,,,,,,,2.0919,,0.6,0.4,0.4,0.6,0.6,0.4,0.6,0.4,1,0,,,,,,,,,,,,
,,64e7533f36d388e8b31d3309,66fc97fdff9cd954959acd5b,2024-10-02_02h47.51.871,mdp,2024.2.1,Win32,60.24096386,66fa4ebf79326e780c390304,,,,,,,,,,,,,,,,,,,,,353.1806,353.1806,353.1815,354.4968,0,1,left,0.7936,,354.4975,356.9801,1,0,right,356.9807,356.9812,,0,,1,356.9812,356.9812,356.9816,358.4801,0,1,1,1,1,0.2,0.8,0.8,0.2,,,,,,,,,,,,,,,1.9488,,0.6,0.4,0.4,0.6,0.6,0.4,0.6,0.4,1,0,,,,,,,,,,,,
,,64e7533f36d388e8b31d3309,66fc97fdff9cd954959acd5b,2024-10-02_02h47.51.871,mdp,2024.2.1,Win32,60.24096386,66fa4ebf79326e780c390304,,,,,,,,,,,,,,,,,,,,,358.4804,358.4804,358.4814,359.9469,0,1,left,0.9429,,359.9476,361.8302,1,0,right,361.8307,361.8312,,0,,1,361.8313,361.8313,361.8315,363.3301,0,2,2,2,1,0.2,0.8,0.8,0.2,,,,,,,,,,,,,,,1.3556,,0.6,0.4,0.4,0.6,0.4,0.6,0.2,0.8,1,0,,,,,,,,,,,,
,,64e7533f36d388e8b31d3309,66fc97fdff9cd954959acd5b,2024-10-02_02h47.51.871,mdp,2024.2.1,Win32,60.24096386,66fa4ebf79326e780c390304,,,,,,,,,,,,,,,,,,,,,363.3303,363.3303,363.3311,364.7634,0,1,left,0.9078,,364.7642,367.4802,1,1,right,367.4809,367.4814,,0,,0,367.4814,367.4814,367.4818,368.9801,0,3,3,3,1,0.2,0.8,0.8,0.2,,,,,,,,,,,,,,,2.1825,,0.6,0.4,0.4,0.6,0.4,0.6,0.2,0.8,1,0,,,,,,,,,,,,
,,64e7533f36d388e8b31d3309,66fc97fdff9cd954959acd5b,2024-10-02_02h47.51.871,mdp,2024.2.1,Win32,60.24096386,66fa4ebf79326e780c390304,,,,,,,,,,,,,,,,,,,,,368.9804,368.9804,368.9816,370.2136,0,0,left,0.6995,,370.2143,372.4635,0,1,left,372.4643,372.4651,,0,,0,372.4651,372.4651,372.4655,373.9637,0,4,4,4,1,0.2,0.8,0.8,0.2,,,,,,,,,,,,,,,1.714,,0.6,0.4,0.4,0.6,0.4,0.6,0.2,0.8,1,0,,,,,,,,,,,,
,,64e7533f36d388e8b31d3309,66fc97fdff9cd954959acd5b,2024-10-02_02h47.51.871,mdp,2024.2.1,Win32,60.24096386,66fa4ebf79326e780c390304,,,,,,,,,,,,,,,,,,,,,373.9639,373.9639,373.9647,375.2635,0,1,left,0.771,,375.2641,376.7302,1,1,right,376.7308,376.7315,,0,,0,376.7316,376.7316,376.7321,378.2302,0,5,5,5,1,0.2,0.8,0.8,0.2,,,,,,,,,,,,,,,0.9329,,0.6,0.4,0.4,0.6,0.4,0.6,0.2,0.8,1,0,,,,,,,,,,,,
,,64e7533f36d388e8b31d3309,66fc97fdff9cd954959acd5b,2024-10-02_02h47.51.871,mdp,2024.2.1,Win32,60.24096386,66fa4ebf79326e780c390304,,,,,,,,,,,,,,,,,,,,,378.2305,378.2305,378.2313,379.4636,0,1,left,0.7006,,379.4643,381.1968,0,0,left,381.1974,381.1983,,0,,1,381.1983,381.1983,381.1986,382.6967,0,6,6,6,1,0.2,0.8,0.8,0.2,,,,,,,,,,,,,,,1.1998,,0.6,0.4,0.4,0.6,0.4,0.6,0.2,0.8,1,0,,,,,,,,,,,,
,,64e7533f36d388e8b31d3309,66fc97fdff9cd954959acd5b,2024-10-02_02h47.51.871,mdp,2024.2.1,Win32,60.24096386,66fa4ebf79326e780c390304,,,,,,,,,,,,,,,,,,,,,382.6971,382.6971,382.6981,384.1802,0,1,left,0.9505,,384.181,386.0801,0,0,left,386.0807,386.0811,,1,,1,386.0812,386.0812,386.0816,387.5802,0,7,7,7,1,0.2,0.8,0.8,0.2,,,,,,,,,,,,,,,1.3667,,0.6,0.4,0.4,0.6,0.4,0.6,0.2,0.8,1,0,,,,,,,,,,,,
,,64e7533f36d388e8b31d3309,66fc97fdff9cd954959acd5b,2024-10-02_02h47.51.871,mdp,2024.2.1,Win32,60.24096386,66fa4ebf79326e780c390304,,,,,,,,,,,,,,,,,,,,,387.5803,387.5803,387.5808,388.9302,0,1,left,0.8268,,388.9309,390.8801,0,1,left,390.8807,390.8813,,0,,0,390.8814,390.8814,390.8818,392.3802,0,8,8,8,1,0.2,0.8,0.8,0.2,,,,,,,,,,,,,,,1.4293,,0.6,0.4,0.4,0.6,0.4,0.6,0.2,0.8,1,0,,,,,,,,,,,,
,,64e7533f36d388e8b31d3309,66fc97fdff9cd954959acd5b,2024-10-02_02h47.51.871,mdp,2024.2.1,Win32,60.24096386,66fa4ebf79326e780c390304,,,,,,,,,,,,,,,,,,,,,392.3806,392.3806,392.3817,393.78,0,1,left,0.874,,393.7807,395.1134,1,1,right,395.1144,395.1151,,0,,0,395.1151,395.1151,395.1155,396.6135,0,9,9,9,1,0.2,0.8,0.8,0.2,,,,,,,,,,,,,,,0.8098,,0.6,0.4,0.4,0.6,0.4,0.6,0.2,0.8,1,0,,,,,,,,,,,,
,,64e7533f36d388e8b31d3309,66fc97fdff9cd954959acd5b,2024-10-02_02h47.51.871,mdp,2024.2.1,Win32,60.24096386,66fa4ebf79326e780c390304,,,,,,,,,,,,,,,,,,,,,396.6138,396.6138,396.6147,397.8301,0,1,left,0.689,,397.8307,398.8968,1,1,right,398.8975,398.8984,,1,,0,398.8984,398.8984,398.8988,400.3967,0,10,10,10,1,0.2,0.8,0.8,0.2,,,,,,,,,,,,,,,0.5363,,0.6,0.4,0.4,0.6,0.4,0.6,0.2,0.8,1,0,,,,,,,,,,,,
,,64e7533f36d388e8b31d3309,66fc97fdff9cd954959acd5b,2024-10-02_02h47.51.871,mdp,2024.2.1,Win32,60.24096386,66fa4ebf79326e780c390304,,,,,,,,,,,,,,,,,,,,,400.3969,400.3969,400.3979,401.4469,1,0,right,0.5178,,401.4477,403.5969,0,1,left,403.5975,403.5984,,1,,0,403.5984,403.5984,403.5988,405.0967,0,11,11,11,1,0.2,0.8,0.8,0.2,,,,,,,,,,,,,,,1.6156,,0.6,0.4,0.4,0.6,0.4,0.6,0.2,0.8,1,0,,,,,,,,,,,,
,,64e7533f36d388e8b31d3309,66fc97fdff9cd954959acd5b,2024-10-02_02h47.51.871,mdp,2024.2.1,Win32,60.24096386,66fa4ebf79326e780c390304,,,,,,,,,,,,,,,,,,,,,405.0969,405.0969,405.0972,406.4634,0,0,left,0.8545,,406.4642,413.8802,0,0,left,413.8881,413.8886,,1,,1,413.8887,413.8887,413.8891,415.3802,0,12,12,12,1,0.2,0.8,0.8,0.2,,,,,,,,,,,,,,,6.8863,,0.6,0.4,0.4,0.6,0.6,0.4,0.8,0.2,1,0,,,,,,,,,,,,
,,64e7533f36d388e8b31d3309,66fc97fdff9cd954959acd5b,2024-10-02_02h47.51.871,mdp,2024.2.1,Win32,60.24096386,66fa4ebf79326e780c390304,,,,,,,,,,,,,,,,,,,,,415.3805,415.3805,415.3812,416.8135,0,1,left,0.9014,,416.8141,419.3135,0,1,left,419.3141,419.3146,,0,,0,419.3147,419.3147,419.3151,420.8135,0,13,13,13,1,0.2,0.8,0.8,0.2,,,,,,,,,,,,,,,1.967,,0.4,0.6,0.8,0.2,0.6,0.4,0.8,0.2,1,0,,,,,,,,,,,,
,,64e7533f36d388e8b31d3309,66fc97fdff9cd954959acd5b,2024-10-02_02h47.51.871,mdp,2024.2.1,Win32,60.24096386,66fa4ebf79326e780c390304,,,,,,,,,,,,,,,,,,,,,420.8137,420.8137,420.8144,421.8634,0,1,left,0.521,,421.8639,423.9801,0,0,left,423.9869,423.9873,,0,,1,423.9873,423.9873,423.9876,425.4802,0,14,14,14,1,0.2,0.8,0.8,0.2,,,,,,,,,,,,,,,1.5838,,0.4,0.6,0.8,0.2,0.6,0.4,0.8,0.2,1,0,,,,,,,,,,,,
,,64e7533f36d388e8b31d3309,66fc97fdff9cd954959acd5b,2024-10-02_02h47.51.871,mdp,2024.2.1,Win32,60.24096386,66fa4ebf79326e780c390304,,,,,,,,,,,,,,,,,,,,,425.4805,425.4805,425.4811,426.5469,0,1,left,0.5344,,426.5476,427.7135,0,0,left,427.7141,427.7146,,0,,1,427.7146,427.7146,427.715,429.2135,0,15,15,15,1,0.2,0.8,0.8,0.2,,,,,,,,,,,,,,,0.6428,,0.4,0.6,0.8,0.2,0.6,0.4,0.8,0.2,1,0,,,,,,,,,,,,
,,64e7533f36d388e8b31d3309,66fc97fdff9cd954959acd5b,2024-10-02_02h47.51.871,mdp,2024.2.1,Win32,60.24096386,66fa4ebf79326e780c390304,,,,,,,,,,,,,,,,,,,,,429.2139,429.2139,429.2149,438.6469,0,0,left,8.9011,,438.6551,441.8302,0,0,left,441.8308,441.8317,,0,,1,441.8317,441.8317,441.8321,443.3302,0,16,16,16,1,0.2,0.8,0.8,0.2,,,,,,,,,,,,,,,2.6537,,0.4,0.6,0.8,0.2,0.6,0.4,0.8,0.2,1,0,,,,,,,,,,,,
,,64e7533f36d388e8b31d3309,66fc97fdff9cd954959acd5b,2024-10-02_02h47.51.871,mdp,2024.2.1,Win32,60.24096386,66fa4ebf79326e780c390304,,,,,,,,,,,,,,,,,,,,,443.3305,443.3305,443.3312,446.7803,0,1,left,2.9248,,446.7867,449.2635,0,1,left,449.2642,449.2648,,1,,0,449.2648,449.2648,449.2653,450.7636,0,17,17,17,1,0.2,0.8,0.8,0.2,,,,,,,,,,,,,,,1.9519,,0.4,0.6,0.8,0.2,0.6,0.4,0.8,0.2,1,0,,,,,,,,,,,,
,,64e7533f36d388e8b31d3309,66fc97fdff9cd954959acd5b,2024-10-02_02h47.51.871,mdp,2024.2.1,Win32,60.24096386,66fa4ebf79326e780c390304,,,,,,,,,,,,,,,,,,,,,450.7639,450.7639,450.7645,451.8802,0,1,left,0.5874,,451.8809,453.0301,0,0,left,453.0307,453.031,,0,,1,453.031,453.031,453.0312,454.5301,0,18,18,18,1,0.2,0.8,0.8,0.2,,,,,,,,,,,,,,,0.6171,,0.4,0.6,0.8,0.2,0.6,0.4,0.8,0.2,1,0,,,,,,,,,,,,
,,64e7533f36d388e8b31d3309,66fc97fdff9cd954959acd5b,2024-10-02_02h47.51.871,mdp,2024.2.1,Win32,60.24096386,66fa4ebf79326e780c390304,,,,,,,,,,,,,,,,,,,,,454.5303,454.5303,454.531,455.6636,0,0,left,0.5991,,455.6642,457.2136,1,0,right,457.214,457.2144,,0,,1,457.2145,457.2145,457.2147,458.7137,0,19,19,19,1,0.2,0.8,0.8,0.2,,,,,,,,,,,,,,,1.021,,0.4,0.6,0.8,0.2,0.6,0.4,0.8,0.2,1,0,,,,,,,,,,,,
,,64e7533f36d388e8b31d3309,66fc97fdff9cd954959acd5b,2024-10-02_02h47.51.871,mdp,2024.2.1,Win32,60.24096386,66fa4ebf79326e780c390304,,,,,,,,,,,,,,,,,,,,,458.7139,458.7139,458.7147,459.88,0,1,left,0.6438,,459.8811,461.2802,0,0,left,461.2808,461.2814,,0,,1,461.2814,461.2814,461.2818,462.7801,0,20,20,20,1,0.2,0.8,0.8,0.2,,,,,,,,,,,,,,,0.8925,,0.4,0.6,0.8,0.2,0.6,0.4,0.8,0.2,1,0,,,,,,,,,,,,
,,64e7533f36d388e8b31d3309,66fc97fdff9cd954959acd5b,2024-10-02_02h47.51.871,mdp,2024.2.1,Win32,60.24096386,66fa4ebf79326e780c390304,,,,,,,,,,,,,,,,,,,,,462.7803,462.7803,462.7807,464.0969,0,1,left,0.7864,,464.0976,465.7801,0,0,left,465.7807,465.7809,,1,,1,465.7809,465.7809,465.7812,467.2803,0,21,21,21,1,0.2,0.8,0.8,0.2,,,,,,,,,,,,,,,1.1505,,0.4,0.6,0.8,0.2,0.6,0.4,0.8,0.2,1,0,,,,,,,,,,,,
,,64e7533f36d388e8b31d3309,66fc97fdff9cd954959acd5b,2024-10-02_02h47.51.871,mdp,2024.2.1,Win32,60.24096386,66fa4ebf79326e780c390304,,,,,,,,,,,,,,,,,,,,,467.2806,467.2806,467.2815,468.2802,0,1,left,0.4785,,468.2808,469.7636,0,0,left,469.7644,469.7649,,0,,1,469.7649,469.7649,469.7655,471.2635,0,22,22,22,1,0.2,0.8,0.8,0.2,,,,,,,,,,,,,,,0.9589,,0.4,0.6,0.8,0.2,0.6,0.4,0.8,0.2,1,0,,,,,,,,,,,,
,,64e7533f36d388e8b31d3309,66fc97fdff9cd954959acd5b,2024-10-02_02h47.51.871,mdp,2024.2.1,Win32,60.24096386,66fa4ebf79326e780c390304,,,,,,,,,,,,,,,,,,,,,471.2638,471.2638,471.2642,472.7636,0,0,left,0.9749,,472.7642,474.4802,1,0,right,474.4808,474.4817,,0,,1,474.4817,474.4817,474.4821,475.9803,0,23,23,23,1,0.6,0.4,0.2,0.8,,,,,,,,,,,,,,,1.1853,,0.4,0.6,0.8,0.2,0.6,0.4,0.8,0.2,1,0,,,,,,,,,,,,
,,64e7533f36d388e8b31d3309,66fc97fdff9cd954959acd5b,2024-10-02_02h47.51.871,mdp,2024.2.1,Win32,60.24096386,66fa4ebf79326e780c390304,,,,,,,,,,,,,,,,,,,,,475.9805,475.9805,475.9817,477.4969,0,1,left,0.9944,,477.4977,478.9967,0,0,left,478.9976,478.9981,,0,,1,478.9982,478.9982,478.9988,480.497,0,24,24,24,1,0.6,0.4,0.2,0.8,,,,,,,,,,,,,,,0.9728,,0.4,0.6,0.8,0.2,0.6,0.4,0.8,0.2,1,0,,,,,,,,,,,,
,,64e7533f36d388e8b31d3309,66fc97fdff9cd954959acd5b,2024-10-02_02h47.51.871,mdp,2024.2.1,Win32,60.24096386,66fa4ebf79326e780c390304,,,,,,,,,,,,,,,,,,,,,480.4973,480.4973,480.498,482.1302,0,0,left,1.1097,,482.1308,483.6468,1,0,right,483.6474,483.6479,,0,,1,483.6479,483.6479,483.6483,485.1469,0,25,25,25,1,0.6,0.4,0.2,0.8,,,,,,,,,,,,,,,0.9869,,0.4,0.6,0.8,0.2,0.6,0.4,0.8,0.2,1,0,,,,,,,,,,,,
,,64e7533f36d388e8b31d3309,66fc97fdff9cd954959acd5b,2024-10-02_02h47.51.871,mdp,2024.2.1,Win32,60.24096386,66fa4ebf79326e780c390304,,,,,,,,,,,,,,,,,,,,,485.1471,485.1471,485.1477,486.3134,0,1,left,0.6359,,486.3141,489.4303,0,0,left,489.4381,489.4385,,0,,1,489.4385,489.4385,489.4389,490.9301,0,26,26,26,1,0.6,0.4,0.2,0.8,,,,,,,,,,,,,,,2.5824,,0.4,0.6,0.8,0.2,0.6,0.4,0.8,0.2,1,0,,,,,,,,,,,,
,,64e7533f36d388e8b31d3309,66fc97fdff9cd954959acd5b,2024-10-02_02h47.51.871,mdp,2024.2.1,Win32,60.24096386,66fa4ebf79326e780c390304,,,,,,,,,,,,,,,,,,,,,490.9304,490.9304,490.9312,492.5302,0,1,left,1.0764,,492.531,493.9469,0,0,left,493.9475,493.948,,1,,1,493.9481,493.9481,493.9484,495.4469,0,27,27,27,1,0.6,0.4,0.2,0.8,,,,,,,,,,,,,,,0.8844,,0.4,0.6,0.8,0.2,0.6,0.4,0.8,0.2,1,0,,,,,,,,,,,,
,,64e7533f36d388e8b31d3309,66fc97fdff9cd954959acd5b,2024-10-02_02h47.51.871,mdp,2024.2.1,Win32,60.24096386,66fa4ebf79326e780c390304,,,,,,,,,,,,,,,,,,,,,495.4471,495.4471,495.4478,496.6637,0,1,left,0.6865,,496.6644,498.0468,0,0,left,498.0476,498.0483,,1,,1,498.0484,498.0484,498.0486,499.5469,0,28,28,28,1,0.6,0.4,0.2,0.8,,,,,,,,,,,,,,,0.855,,0.4,0.6,0.8,0.2,0.6,0.4,0.8,0.2,1,0,,,,,,,,,,,,
,,64e7533f36d388e8b31d3309,66fc97fdff9cd954959acd5b,2024-10-02_02h47.51.871,mdp,2024.2.1,Win32,60.24096386,66fa4ebf79326e780c390304,,,,,,,,,,,,,,,,,,,,,499.5472,499.5473,499.5479,500.6636,0,0,left,0.5871,,500.6642,502.2636,1,0,right,502.2643,502.2651,,0,,1,502.2651,502.2652,502.2656,503.7635,0,29,29,29,1,0.6,0.4,0.2,0.8,,,,,,,,,,,,,,,1.0664,,0.4,0.6,0.8,0.2,0.6,0.4,0.8,0.2,1,0,,,,,,,,,,,,
,,64e7533f36d388e8b31d3309,66fc97fdff9cd954959acd5b,2024-10-02_02h47.51.871,mdp,2024.2.1,Win32,60.24096386,66fa4ebf79326e780c390304,,,,,,,,,,,,,,,,,,,,,503.7638,503.7638,503.7647,504.8305,0,0,left,0.5345,,504.8311,506.4636,1,0,right,506.4643,506.4651,,0,,1,506.4651,506.4651,506.4656,507.9636,0,30,30,30,1,0.6,0.4,0.2,0.8,,,,,,,,,,,,,,,1.1034,,0.4,0.6,0.8,0.2,0.6,0.4,0.8,0.2,1,0,,,,,,,,,,,,
,,64e7533f36d388e8b31d3309,66fc97fdff9cd954959acd5b,2024-10-02_02h47.51.871,mdp,2024.2.1,Win32,60.24096386,66fa4ebf79326e780c390304,,,,,,,,,,,,,,,,,,,,,507.9638,507.9638,507.9644,508.9469,0,1,left,0.4591,,508.9476,510.2467,0,0,left,510.2472,510.2475,,0,,1,510.2475,510.2475,510.2478,511.747,0,31,31,31,1,0.6,0.4,0.2,0.8,,,,,,,,,,,,,,,0.7699,,0.4,0.6,0.8,0.2,0.6,0.4,0.8,0.2,1,0,,,,,,,,,,,,
,,64e7533f36d388e8b31d3309,66fc97fdff9cd954959acd5b,2024-10-02_02h47.51.871,mdp,2024.2.1,Win32,60.24096386,66fa4ebf79326e780c390304,,,,,,,,,,,,,,,,,,,,,511.7473,511.7473,511.7481,512.7469,0,0,left,0.4674,,512.7475,514.1301,1,0,right,514.1307,514.131,,0,,1,514.131,514.131,514.1313,515.6302,0,32,32,32,1,0.6,0.4,0.2,0.8,,,,,,,,,,,,,,,0.8569,,0.4,0.6,0.8,0.2,0.6,0.4,0.8,0.2,1,0,,,,,,,,,,,,
,,64e7533f36d388e8b31d3309,66fc97fdff9cd954959acd5b,2024-10-02_02h47.51.871,mdp,2024.2.1,Win32,60.24096386,66fa4ebf79326e780c390304,,,,,,,,,,,,,,,,,,,,,515.6304,515.6304,515.6311,516.9636,0,1,left,0.8181,,516.9642,518.4803,0,1,left,518.4809,518.4814,,0,,0,518.4814,518.4814,518.4819,519.9802,0,33,33,33,1,0.8,0.2,0.6,0.4,,,,,,,,,,,,,,,0.9806,,0.4,0.6,0.8,0.2,0.6,0.4,0.8,0.2,1,0,,,,,,,,,,,,
,,64e7533f36d388e8b31d3309,66fc97fdff9cd954959acd5b,2024-10-02_02h47.51.871,mdp,2024.2.1,Win32,60.24096386,66fa4ebf79326e780c390304,,,,,,,,,,,,,,,,,,,,,519.9805,519.9805,519.9812,521.2969,0,0,left,0.7934,,521.2976,522.8302,1,0,right,522.8308,522.8313,,0,,1,522.8313,522.8313,522.8315,524.3302,0,34,34,34,1,0.8,0.2,0.6,0.4,,,,,,,,,,,,,,,1.0032,,0.4,0.6,0.8,0.2,0.6,0.4,0.8,0.2,1,0,,,,,,,,,,,,
,,64e7533f36d388e8b31d3309,66fc97fdff9cd954959acd5b,2024-10-02_02h47.51.871,mdp,2024.2.1,Win32,60.24096386,66fa4ebf79326e780c390304,,,,,,,,,,,,,,,,,,,,,524.3305,524.3305,524.3311,525.2136,0,0,left,0.3566,,525.2142,526.7302,1,0,right,526.731,526.7315,,0,,1,526.7316,526.7316,526.732,528.2303,0,35,35,35,1,0.4,0.6,0.8,0.2,,,,,,,,,,,,,,,0.9854,,0.4,0.6,0.8,0.2,0.6,0.4,0.8,0.2,1,0,,,,,,,,,,,,
,,64e7533f36d388e8b31d3309,66fc97fdff9cd954959acd5b,2024-10-02_02h47.51.871,mdp,2024.2.1,Win32,60.24096386,66fa4ebf79326e780c390304,,,,,,,,,,,,,,,,,,,,,528.2304,528.2304,528.2311,529.1468,0,0,left,0.3918,,529.1475,530.3969,1,0,right,530.3976,530.3981,,0,,1,530.3981,530.3981,530.3985,531.8968,0,36,36,36,1,0.8,0.2,0.2,0.8,,,,,,,,,,,,,,,0.7395,,0.4,0.6,0.8,0.2,0.6,0.4,0.8,0.2,1,0,,,,,,,,,,,,
,,64e7533f36d388e8b31d3309,66fc97fdff9cd954959acd5b,2024-10-02_02h47.51.871,mdp,2024.2.1,Win32,60.24096386,66fa4ebf79326e780c390304,,,,,,,,,,,,,,,,,,,,,531.8971,531.8971,531.8981,532.9635,0,1,left,0.5416,,532.9643,534.5468,0,1,left,534.5475,534.5481,,1,,0,534.5482,534.5482,534.5485,536.0468,0,37,37,37,1,0.2,0.8,0.8,0.2,,,,,,,,,,,,,,,1.0489,,0.4,0.6,0.8,0.2,0.6,0.4,0.8,0.2,1,0,,,,,,,,,,,,
,,64e7533f36d388e8b31d3309,66fc97fdff9cd954959acd5b,2024-10-02_02h47.51.871,mdp,2024.2.1,Win32,60.24096386,66fa4ebf79326e780c390304,,,,,,,,,,,,,,,,,,,,,536.0471,536.0471,536.0476,537.1636,0,1,left,0.5917,,537.1642,538.5469,0,0,left,538.5475,538.5481,,1,,1,538.5481,538.5481,538.5485,540.0466,0,38,38,38,1,0.2,0.8,0.8,0.2,,,,,,,,,,,,,,,0.8592,,0.4,0.6,0.8,0.2,0.6,0.4,0.8,0.2,1,0,,,,,,,,,,,,
,,64e7533f36d388e8b31d3309,66fc97fdff9cd954959acd5b,2024-10-02_02h47.51.871,mdp,2024.2.1,Win32,60.24096386,66fa4ebf79326e780c390304,,,,,,,,,,,,,,,,,,,,,540.047,540.047,540.0474,541.1134,0,1,left,0.5355,,541.114,544.8301,0,1,left,544.8348,544.8351,,0,,0,544.8351,544.8351,544.8354,546.3302,0,39,39,39,1,0.2,0.8,0.8,0.2,,,,,,,,,,,,,,,3.1992,,0.4,0.6,0.8,0.2,0.6,0.4,0.8,0.2,1,0,,,,,,,,,,,,
,,64e7533f36d388e8b31d3309,66fc97fdff9cd954959acd5b,2024-10-02_02h47.51.871,mdp,2024.2.1,Win32,60.24096386,66fa4ebf79326e780c390304,,,,,,,,,,,,,,,,,,,,,546.3305,546.3305,546.3311,547.3802,0,0,left,0.5176,,547.3809,548.7136,1,0,right,548.7143,548.7148,,0,,1,548.7149,548.7149,548.7153,550.2135,0,40,40,40,1,0.2,0.8,0.8,0.2,,,,,,,,,,,,,,,0.8076,,0.4,0.6,0.8,0.2,0.6,0.4,0.8,0.2,1,0,,,,,,,,,,,,
,,64e7533f36d388e8b31d3309,66fc97fdff9cd954959acd5b,2024-10-02_02h47.51.871,mdp,2024.2.1,Win32,60.24096386,66fa4ebf79326e780c390304,,,,,,,,,,,,,,,,,,,,,550.2138,550.2138,550.2144,551.6801,0,1,left,0.9452,,551.6808,553.0635,0,0,left,553.0642,553.0643,,1,,1,553.0644,553.0644,553.0647,554.5635,0,41,41,41,1,0.2,0.8,0.8,0.2,,,,,,,,,,,,,,,0.8517,,0.4,0.6,0.8,0.2,0.6,0.4,0.8,0.2,1,0,,,,,,,,,,,,
,,64e7533f36d388e8b31d3309,66fc97fdff9cd954959acd5b,2024-10-02_02h47.51.871,mdp,2024.2.1,Win32,60.24096386,66fa4ebf79326e780c390304,,,,,,,,,,,,,,,,,,,,,554.5637,554.5637,554.5644,555.6802,0,0,left,0.5848,,555.6811,557.1468,1,0,right,557.1476,557.1481,,0,,1,557.1481,557.1481,557.1485,558.6469,0,42,42,42,1,0.2,0.8,0.8,0.2,,,,,,,,,,,,,,,0.94,,0.4,0.6,0.8,0.2,0.6,0.4,0.8,0.2,1,0,,,,,,,,,,,,
,,64e7533f36d388e8b31d3309,66fc97fdff9cd954959acd5b,2024-10-02_02h47.51.871,mdp,2024.2.1,Win32,60.24096386,66fa4ebf79326e780c390304,,,,,,,,,,,,,,,,,,,,,558.6471,558.6471,558.6478,559.6804,0,1,left,0.499,,559.681,561.6968,0,1,left,561.6976,561.6981,,0,,0,561.6981,561.6981,561.6985,563.1969,0,43,43,43,1,0.2,0.8,0.8,0.2,,,,,,,,,,,,,,,1.4832,,0.4,0.6,0.8,0.2,0.6,0.4,0.8,0.2,1,0,,,,,,,,,,,,
,,64e7533f36d388e8b31d3309,66fc97fdff9cd954959acd5b,2024-10-02_02h47.51.871,mdp,2024.2.1,Win32,60.24096386,66fa4ebf79326e780c390304,,,,,,,,,,,,,,,,,,,,,563.197,563.197,563.1978,564.0969,0,0,left,0.3771,,564.0974,565.6136,1,0,right,565.6143,565.6152,,1,,1,565.6153,565.6153,565.6156,567.1138,0,44,44,44,1,0.2,0.8,0.8,0.2,,,,,,,,,,,,,,,0.982,,0.4,0.6,0.8,0.2,0.6,0.4,0.8,0.2,1,0,,,,,,,,,,,,
,,64e7533f36d388e8b31d3309,66fc97fdff9cd954959acd5b,2024-10-02_02h47.51.871,mdp,2024.2.1,Win32,60.24096386,66fa4ebf79326e780c390304,,,,,,,,,,,,,,,,,,,,,567.1141,567.1141,567.1149,568.114,0,0,left,0.469,,568.1147,569.7803,1,0,right,569.781,569.782,,0,,1,569.782,569.782,569.7823,571.2802,0,45,45,45,1,0.2,0.8,0.8,0.2,,,,,,,,,,,,,,,1.14,,0.4,0.6,0.8,0.2,0.6,0.4,0.8,0.2,1,0,,,,,,,,,,,,
,,64e7533f36d388e8b31d3309,66fc97fdff9cd954959acd5b,2024-10-02_02h47.51.871,mdp,2024.2.1,Win32,60.24096386,66fa4ebf79326e780c390304,,,,,,,,,,,,,,,,,,,,,571.2804,571.2804,571.2811,572.5135,0,1,left,0.7013,,572.5141,575.5135,1,0,right,575.5185,575.5187,,0,,1,575.5187,575.5187,575.519,577.0136,0,46,46,46,1,0.2,0.8,0.8,0.2,,,,,,,,,,,,,,,2.4831,,0.4,0.6,0.8,0.2,0.6,0.4,0.8,0.2,1,0,,,,,,,,,,,,
,,64e7533f36d388e8b31d3309,66fc97fdff9cd954959acd5b,2024-10-02_02h47.51.871,mdp,2024.2.1,Win32,60.24096386,66fa4ebf79326e780c390304,,,,,,,,,,,,,,,,,,,,,577.0139,577.014,577.0147,578.1801,0,1,left,0.6344,,578.1809,579.1301,0,0,left,579.1308,579.1311,,0,,1,579.1311,579.1311,579.1313,580.6302,0,47,47,47,1,0.2,0.8,0.8,0.2,,,,,,,,,,,,,,,0.4263,,0.4,0.6,0.8,0.2,0.6,0.4,0.8,0.2,1,0,,,,,,,,,,,,
,,64e7533f36d388e8b31d3309,66fc97fdff9cd954959acd5b,2024-10-02_02h47.51.871,mdp,2024.2.1,Win32,60.24096386,66fa4ebf79326e780c390304,,,,,,,,,,,,,,,,,,,,,580.6305,580.6305,580.6313,581.6968,0,0,left,0.5364,,581.6975,583.3636,1,0,right,583.3642,583.3646,,0,,1,583.3648,583.3648,583.3651,584.8635,0,48,48,48,1,0.2,0.8,0.8,0.2,,,,,,,,,,,,,,,1.1312,,0.4,0.6,0.8,0.2,0.6,0.4,0.8,0.2,1,0,,,,,,,,,,,,
,,64e7533f36d388e8b31d3309,66fc97fdff9cd954959acd5b,2024-10-02_02h47.51.871,mdp,2024.2.1,Win32,60.24096386,66fa4ebf79326e780c390304,,,,,,,,,,,,,,,,,,,,,584.8639,584.8639,584.8645,586.1969,0,1,left,0.7989,,586.1972,587.4302,0,0,left,587.4308,587.4314,,1,,1,587.4314,587.4314,587.4318,588.9302,0,49,49,49,1,0.2,0.8,0.8,0.2,,,,,,,,,,,,,,,0.6977,,0.6,0.4,0.2,0.8,0.6,0.4,0.8,0.2,1,0,,,,,,,,,,,,
,,64e7533f36d388e8b31d3309,66fc97fdff9cd954959acd5b,2024-10-02_02h47.51.871,mdp,2024.2.1,Win32,60.24096386,66fa4ebf79326e780c390304,,,,,,,,,,,,,,,,,,,,,,,,,,,,,,,,,,,,,,,,,,,,,,,,,,,,,,,,588.9302,647.4469,0,1,1,0,1,imgs/rabbit.png,imgs/squirrel.png,imgs/lion.png,imgs/goat.png,imgs/cat.png,,,,,,,,,,,,,,,,,,,,,,,,
,,64e7533f36d388e8b31d3309,66fc97fdff9cd954959acd5b,2024-10-02_02h47.51.871,mdp,2024.2.1,Win32,60.24096386,66fa4ebf79326e780c390304,,,,,,,,,,,,,,3,seqs/st3seq22.csv,647.4548,650.047,space,2.0716,,650.051,650.051,650.0516,653.4136,0,1,left,2.8369,,653.4146,656.4802,1,0,right,656.4878,658.4637,0,1,left,0,658.4637,658.4637,658.4645,659.9637,0,0,0,0,1,0.6,0.4,0.4,0.6,,,,,,,,,,,,,,,2.5345,,0.8,0.2,0.6,0.4,0.2,0.8,0.8,0.2,,,1.4477,,0.4,0.6,0.2,0.8,0.8,0.2,0.2,0.8,1,0
,,64e7533f36d388e8b31d3309,66fc97fdff9cd954959acd5b,2024-10-02_02h47.51.871,mdp,2024.2.1,Win32,60.24096386,66fa4ebf79326e780c390304,,,,,,,,,,,,,,,,,,,,,659.964,659.964,659.9652,661.3471,0,0,left,0.8583,,661.3479,663.5969,1,1,right,663.6045,665.2969,0,0,left,1,665.297,665.297,665.2976,666.797,0,1,1,1,1,0.6,0.4,0.4,0.6,,,,,,,,,,,,,,,1.7194,,0.8,0.2,0.6,0.4,0.2,0.8,0.8,0.2,,,1.1824,,0.4,0.6,0.2,0.8,0.8,0.2,0.2,0.8,1,0
,,64e7533f36d388e8b31d3309,66fc97fdff9cd954959acd5b,2024-10-02_02h47.51.871,mdp,2024.2.1,Win32,60.24096386,66fa4ebf79326e780c390304,,,,,,,,,,,,,,,,,,,,,666.7973,666.7973,666.798,668.0634,0,1,left,0.7363,,668.064,670.2137,0,1,left,670.2142,671.8469,0,1,left,0,671.847,671.847,671.8476,673.3469,0,2,2,2,1,0.6,0.4,0.4,0.6,,,,,,,,,,,,,,,1.631,,0.8,0.2,0.6,0.4,0.2,0.8,0.8,0.2,,,1.0991,,0.4,0.6,0.2,0.8,0.8,0.2,0.2,0.8,1,0
,,64e7533f36d388e8b31d3309,66fc97fdff9cd954959acd5b,2024-10-02_02h47.51.871,mdp,2024.2.1,Win32,60.24096386,66fa4ebf79326e780c390304,,,,,,,,,,,,,,,,,,,,,673.3472,673.3472,673.3479,674.4968,0,0,left,0.6188,,674.4975,676.0469,0,1,left,676.0473,677.8468,1,1,right,0,677.8469,677.8469,677.8475,679.3468,0,3,3,3,1,0.6,0.4,0.4,0.6,,,,,,,,,,,,,,,1.015,,0.8,0.2,0.6,0.4,0.2,0.8,0.8,0.2,,,1.2714,,0.6,0.4,0.6,0.4,0.8,0.2,0.2,0.8,1,0
,,64e7533f36d388e8b31d3309,66fc97fdff9cd954959acd5b,2024-10-02_02h47.51.871,mdp,2024.2.1,Win32,60.24096386,66fa4ebf79326e780c390304,,,,,,,,,,,,,,,,,,,,,679.3471,679.3471,679.3483,680.6968,0,1,left,0.8186,,680.6976,682.0969,0,1,left,682.0974,683.5136,0,0,left,1,683.5137,683.5137,683.5142,685.0135,0,4,4,4,1,0.6,0.4,0.4,0.6,,,,,,,,,,,,,,,0.874,,0.8,0.2,0.6,0.4,0.2,0.8,0.8,0.2,,,0.8846,,0.6,0.4,0.6,0.4,0.8,0.2,0.2,0.8,1,0
,,64e7533f36d388e8b31d3309,66fc97fdff9cd954959acd5b,2024-10-02_02h47.51.871,mdp,2024.2.1,Win32,60.24096386,66fa4ebf79326e780c390304,,,,,,,,,,,,,,,,,,,,,685.0139,685.0139,685.0148,686.3302,0,0,left,0.7849,,686.3309,687.6136,0,0,left,687.6143,689.147,0,0,left,1,689.147,689.147,689.1476,690.6469,0,5,5,5,1,0.6,0.4,0.4,0.6,,,,,,,,,,,,,,,0.7536,,0.8,0.2,0.6,0.4,0.2,0.8,0.8,0.2,,,1.0234,,0.6,0.4,0.6,0.4,0.8,0.2,0.2,0.8,1,0
,,64e7533f36d388e8b31d3309,66fc97fdff9cd954959acd5b,2024-10-02_02h47.51.871,mdp,2024.2.1,Win32,60.24096386,66fa4ebf79326e780c390304,,,,,,,,,,,,,,,,,,,,,690.6473,690.6473,690.6482,692.0302,0,0,left,0.8553,,692.0311,693.1635,0,0,left,693.164,694.2636,0,1,left,0,694.2636,694.2636,694.2643,695.7637,0,6,6,6,1,0.6,0.4,0.4,0.6,,,,,,,,,,,,,,,0.6077,,0.8,0.2,0.6,0.4,0.2,0.8,0.8,0.2,,,0.5837,,0.6,0.4,0.6,0.4,0.8,0.2,0.2,0.8,1,0
,,64e7533f36d388e8b31d3309,66fc97fdff9cd954959acd5b,2024-10-02_02h47.51.871,mdp,2024.2.1,Win32,60.24096386,66fa4ebf79326e780c390304,,,,,,,,,,,,,,,,,,,,,695.7639,695.7639,695.7646,697.0803,0,0,left,0.7868,,697.0806,698.197,0,0,left,698.198,699.5637,1,1,right,0,699.5637,699.5638,699.5645,701.0636,0,7,7,7,1,0.6,0.4,0.4,0.6,,,,,,,,,,,,,,,0.5891,,0.8,0.2,0.6,0.4,0.2,0.8,0.8,0.2,,,0.8414,,0.6,0.4,0.6,0.4,0.8,0.2,0.2,0.8,1,0
,,64e7533f36d388e8b31d3309,66fc97fdff9cd954959acd5b,2024-10-02_02h47.51.871,mdp,2024.2.1,Win32,60.24096386,66fa4ebf79326e780c390304,,,,,,,,,,,,,,,,,,,,,701.0638,701.0638,701.0643,702.0635,0,0,left,0.4695,,702.0644,703.2636,0,0,left,703.2643,704.8136,0,0,left,1,704.8136,704.8136,704.8142,706.3135,0,8,8,8,1,0.6,0.4,0.4,0.6,,,,,,,,,,,,,,,0.6708,,0.8,0.2,0.6,0.4,0.2,0.8,0.8,0.2,,,1.0228,,0.6,0.4,0.6,0.4,0.8,0.2,0.2,0.8,1,0
,,64e7533f36d388e8b31d3309,66fc97fdff9cd954959acd5b,2024-10-02_02h47.51.871,mdp,2024.2.1,Win32,60.24096386,66fa4ebf79326e780c390304,,,,,,,,,,,,,,,,,,,,,706.3138,706.3138,706.3145,707.4969,0,0,left,0.6529,,707.4976,708.9468,0,0,left,708.9475,710.2302,0,1,left,0,710.2303,710.2303,710.2309,711.7302,0,9,9,9,1,0.6,0.4,0.4,0.6,,,,,,,,,,,,,,,0.9175,,0.8,0.2,0.6,0.4,0.2,0.8,0.8,0.2,,,0.7505,,0.6,0.4,0.6,0.4,0.8,0.2,0.2,0.8,1,0
,,64e7533f36d388e8b31d3309,66fc97fdff9cd954959acd5b,2024-10-02_02h47.51.871,mdp,2024.2.1,Win32,60.24096386,66fa4ebf79326e780c390304,,,,,,,,,,,,,,,,,,,,,711.7305,711.7305,711.7313,713.0636,0,1,left,0.7989,,713.064,714.597,0,0,left,714.5977,716.3469,1,1,right,0,716.347,716.347,716.3477,717.847,0,10,10,10,1,0.6,0.4,0.4,0.6,,,,,,,,,,,,,,,0.9985,,0.8,0.2,0.6,0.4,0.2,0.8,0.8,0.2,,,1.2348,,0.6,0.4,0.6,0.4,0.8,0.2,0.2,0.8,1,0
,,64e7533f36d388e8b31d3309,66fc97fdff9cd954959acd5b,2024-10-02_02h47.51.871,mdp,2024.2.1,Win32,60.24096386,66fa4ebf79326e780c390304,,,,,,,,,,,,,,,,,,,,,717.8473,717.8473,717.8479,718.9967,0,0,left,0.6186,,718.9975,720.1802,0,0,left,720.181,722.1635,1,0,right,1,722.1636,722.1636,722.1641,723.6636,0,11,11,11,1,0.6,0.4,0.4,0.6,,,,,,,,,,,,,,,0.6642,,0.8,0.2,0.6,0.4,0.2,0.8,0.8,0.2,,,1.4585,,0.6,0.4,0.6,0.4,0.8,0.2,0.2,0.8,1,0
,,64e7533f36d388e8b31d3309,66fc97fdff9cd954959acd5b,2024-10-02_02h47.51.871,mdp,2024.2.1,Win32,60.24096386,66fa4ebf79326e780c390304,,,,,,,,,,,,,,,,,,,,,723.664,723.664,723.6651,724.7803,0,1,left,0.5903,,724.781,726.3136,0,1,left,726.3143,727.7802,1,1,right,0,727.7803,727.7803,727.781,729.2803,0,12,12,12,1,0.4,0.6,0.2,0.8,,,,,,,,,,,,,,,0.9994,,0.8,0.2,0.6,0.4,0.2,0.8,0.8,0.2,,,0.9387,,0.6,0.4,0.6,0.4,0.8,0.2,0.2,0.8,1,0
,,64e7533f36d388e8b31d3309,66fc97fdff9cd954959acd5b,2024-10-02_02h47.51.871,mdp,2024.2.1,Win32,60.24096386,66fa4ebf79326e780c390304,,,,,,,,,,,,,,,,,,,,,729.2806,729.2806,729.2809,731.1637,0,0,left,1.358,,731.1643,732.5802,0,0,left,732.5809,734.0637,0,1,left,0,734.0637,734.0637,734.0643,735.5634,0,13,13,13,1,0.4,0.6,0.2,0.8,,,,,,,,,,,,,,,0.8828,,0.8,0.2,0.6,0.4,0.2,0.8,0.8,0.2,,,0.9474,,0.6,0.4,0.6,0.4,0.8,0.2,0.2,0.8,1,0
,,64e7533f36d388e8b31d3309,66fc97fdff9cd954959acd5b,2024-10-02_02h47.51.871,mdp,2024.2.1,Win32,60.24096386,66fa4ebf79326e780c390304,,,,,,,,,,,,,,,,,,,,,735.5637,735.5637,735.5641,736.4802,0,1,left,0.3938,,736.4808,737.6635,0,1,left,737.6642,738.9303,0,1,left,0,738.9303,738.9303,738.931,740.4303,0,14,14,14,1,0.4,0.6,0.2,0.8,,,,,,,,,,,,,,,0.6518,,0.8,0.2,0.6,0.4,0.4,0.6,0.2,0.8,,,0.733,,0.6,0.4,0.6,0.4,0.8,0.2,0.2,0.8,1,0
,,64e7533f36d388e8b31d3309,66fc97fdff9cd954959acd5b,2024-10-02_02h47.51.871,mdp,2024.2.1,Win32,60.24096386,66fa4ebf79326e780c390304,,,,,,,,,,,,,,,,,,,,,740.4306,740.4306,740.431,741.4639,0,1,left,0.5109,,741.4645,742.7467,0,1,left,742.7474,744.3969,1,1,right,0,744.397,744.397,744.3976,745.897,0,15,15,15,1,0.4,0.6,0.2,0.8,,,,,,,,,,,,,,,0.7511,,0.8,0.2,0.6,0.4,0.4,0.6,0.2,0.8,,,1.1183,,0.6,0.4,0.6,0.4,0.8,0.2,0.2,0.8,1,0
,,64e7533f36d388e8b31d3309,66fc97fdff9cd954959acd5b,2024-10-02_02h47.51.871,mdp,2024.2.1,Win32,60.24096386,66fa4ebf79326e780c390304,,,,,,,,,,,,,,,,,,,,,745.8973,745.8973,745.898,746.8969,0,0,left,0.4774,,746.8976,748.2137,0,0,left,748.2144,749.3137,0,0,left,1,749.3137,749.3137,749.3144,750.8136,0,16,16,16,1,0.4,0.6,0.2,0.8,,,,,,,,,,,,,,,0.7864,,0.8,0.2,0.6,0.4,0.4,0.6,0.2,0.8,,,0.5739,,0.6,0.4,0.6,0.4,0.8,0.2,0.2,0.8,1,0
,,64e7533f36d388e8b31d3309,66fc97fdff9cd954959acd5b,2024-10-02_02h47.51.871,mdp,2024.2.1,Win32,60.24096386,66fa4ebf79326e780c390304,,,,,,,,,,,,,,,,,,,,,750.8139,750.8139,750.8147,755.5302,0,1,left,4.1924,,755.5377,756.697,0,0,left,756.6976,757.8469,0,1,left,0,757.847,757.847,757.8477,759.3469,0,17,17,17,1,0.2,0.8,0.8,0.2,,,,,,,,,,,,,,,0.6417,,0.8,0.2,0.6,0.4,0.4,0.6,0.2,0.8,,,0.6169,,0.6,0.4,0.6,0.4,0.8,0.2,0.2,0.8,1,0
,,64e7533f36d388e8b31d3309,66fc97fdff9cd954959acd5b,2024-10-02_02h47.51.871,mdp,2024.2.1,Win32,60.24096386,66fa4ebf79326e780c390304,,,,,,,,,,,,,,,,,,,,,759.3472,759.3472,759.3483,760.0301,0,1,left,0.1538,,760.0308,761.7803,0,0,left,761.7809,762.7303,0,0,left,1,762.7303,762.7303,762.7309,764.2303,0,18,18,18,1,0.2,0.8,0.8,0.2,,,,,,,,,,,,,,,1.2159,,0.8,0.2,0.6,0.4,0.4,0.6,0.2,0.8,,,0.4252,,0.6,0.4,0.6,0.4,0.8,0.2,0.2,0.8,1,0
,,64e7533f36d388e8b31d3309,66fc97fdff9cd954959acd5b,2024-10-02_02h47.51.871,mdp,2024.2.1,Win32,60.24096386,66fa4ebf79326e780c390304,,,,,,,,,,,,,,,,,,,,,764.2306,764.2306,764.2318,765.1802,0,0,left,0.4243,,765.1811,766.1302,0,0,left,766.1308,767.147,0,0,left,1,767.147,767.147,767.1477,768.647,0,19,19,19,1,0.2,0.8,0.8,0.2,,,,,,,,,,,,,,,0.4162,,0.8,0.2,0.6,0.4,0.4,0.6,0.2,0.8,,,0.4845,,0.8,0.2,0.8,0.2,0.8,0.2,0.2,0.8,1,0
,,64e7533f36d388e8b31d3309,66fc97fdff9cd954959acd5b,2024-10-02_02h47.51.871,mdp,2024.2.1,Win32,60.24096386,66fa4ebf79326e780c390304,,,,,,,,,,,,,,,,,,,,,768.6473,768.6473,768.6481,769.2135,0,1,left,0.0392,,769.214,770.2136,0,1,left,770.214,771.9137,0,1,left,0,771.9138,771.9138,771.9144,773.4136,0,20,20,20,1,0.2,0.8,0.8,0.2,,,,,,,,,,,,,,,0.4861,,0.8,0.2,0.6,0.4,0.4,0.6,0.2,0.8,,,1.1661,,0.8,0.2,0.8,0.2,0.8,0.2,0.2,0.8,1,0
,,64e7533f36d388e8b31d3309,66fc97fdff9cd954959acd5b,2024-10-02_02h47.51.871,mdp,2024.2.1,Win32,60.24096386,66fa4ebf79326e780c390304,,,,,,,,,,,,,,,,,,,,,773.4139,773.4139,773.4146,773.9469,0,1,left,0.0074,,773.9476,774.8137,0,1,left,774.8147,776.3803,1,1,right,0,776.3804,776.3804,776.3809,777.8801,0,21,21,21,1,0.2,0.8,0.8,0.2,,,,,,,,,,,,,,,0.3324,,0.8,0.2,0.6,0.4,0.4,0.6,0.2,0.8,,,1.0338,,0.4,0.6,0.2,0.8,0.8,0.2,0.2,0.8,1,0
,,64e7533f36d388e8b31d3309,66fc97fdff9cd954959acd5b,2024-10-02_02h47.51.871,mdp,2024.2.1,Win32,60.24096386,66fa4ebf79326e780c390304,,,,,,,,,,,,,,,,,,,,,777.8805,777.8805,777.881,778.4637,0,0,left,0.0489,,778.4643,779.0636,0,0,left,779.0639,780.247,0,0,left,1,780.2471,780.2471,780.2477,781.747,0,22,22,22,1,0.2,0.8,0.8,0.2,,,,,,,,,,,,,,,0.0752,,0.8,0.2,0.6,0.4,0.4,0.6,0.2,0.8,,,0.648,,0.4,0.6,0.2,0.8,0.8,0.2,0.2,0.8,1,0
,,64e7533f36d388e8b31d3309,66fc97fdff9cd954959acd5b,2024-10-02_02h47.51.871,mdp,2024.2.1,Win32,60.24096386,66fa4ebf79326e780c390304,,,,,,,,,,,,,,,,,,,,,781.7473,781.7473,781.748,783.197,0,1,left,0.9169,,783.1982,784.3469,0,1,left,784.3476,785.347,0,0,left,1,785.347,785.347,785.3475,786.8469,0,23,23,23,1,0.2,0.8,0.8,0.2,,,,,,,,,,,,,,,0.6229,,0.4,0.6,0.4,0.6,0.4,0.6,0.2,0.8,,,0.4655,,0.4,0.6,0.2,0.8,0.8,0.2,0.2,0.8,1,0
,,64e7533f36d388e8b31d3309,66fc97fdff9cd954959acd5b,2024-10-02_02h47.51.871,mdp,2024.2.1,Win32,60.24096386,66fa4ebf79326e780c390304,,,,,,,,,,,,,,,,,,,,,786.8472,786.8472,786.8479,787.8137,0,1,left,0.434,,787.8144,788.9637,0,0,left,788.9646,790.1303,0,1,left,0,790.1303,790.1303,790.131,791.6304,0,24,24,24,1,0.2,0.8,0.8,0.2,,,,,,,,,,,,,,,0.6176,,0.4,0.6,0.4,0.6,0.4,0.6,0.2,0.8,,,0.6326,,0.4,0.6,0.2,0.8,0.8,0.2,0.2,0.8,1,0
,,64e7533f36d388e8b31d3309,66fc97fdff9cd954959acd5b,2024-10-02_02h47.51.871,mdp,2024.2.1,Win32,60.24096386,66fa4ebf79326e780c390304,,,,,,,,,,,,,,,,,,,,,791.6307,791.6307,791.6316,792.6804,0,1,left,0.5274,,792.681,793.9969,0,0,left,793.9977,795.5304,0,1,left,0,795.5304,795.5304,795.5309,797.0301,0,25,25,25,1,0.2,0.8,0.8,0.2,,,,,,,,,,,,,,,0.7841,,0.4,0.6,0.4,0.6,0.4,0.6,0.2,0.8,,,1.0008,,0.4,0.6,0.2,0.8,0.4,0.6,0.6,0.4,1,0
,,64e7533f36d388e8b31d3309,66fc97fdff9cd954959acd5b,2024-10-02_02h47.51.871,mdp,2024.2.1,Win32,60.24096386,66fa4ebf79326e780c390304,,,,,,,,,,,,,,,,,,,,,797.0305,797.0305,797.0307,798.3971,0,1,left,0.8334,,798.3977,804.0301,0,1,left,804.035,805.2968,0,1,left,0,805.2968,805.2968,805.2973,806.7969,0,26,26,26,1,0.2,0.8,0.8,0.2,,,,,,,,,,,,,,,5.1055,,0.4,0.6,0.4,0.6,0.4,0.6,0.2,0.8,,,0.7497,,0.4,0.6,0.2,0.8,0.4,0.6,0.6,0.4,1,0
,,64e7533f36d388e8b31d3309,66fc97fdff9cd954959acd5b,2024-10-02_02h47.51.871,mdp,2024.2.1,Win32,60.24096386,66fa4ebf79326e780c390304,,,,,,,,,,,,,,,,,,,,,806.7972,806.7972,806.7978,808.6304,0,1,left,1.3005,,808.6311,812.8469,0,1,left,812.8515,813.9803,0,0,left,1,813.9803,813.9803,813.9809,815.4802,0,27,27,27,1,0.2,0.8,0.8,0.2,,,,,,,,,,,,,,,3.6826,,0.8,0.2,0.2,0.8,0.4,0.6,0.2,0.8,,,0.6063,,0.4,0.6,0.2,0.8,0.4,0.6,0.6,0.4,1,0
,,64e7533f36d388e8b31d3309,66fc97fdff9cd954959acd5b,2024-10-02_02h47.51.871,mdp,2024.2.1,Win32,60.24096386,66fa4ebf79326e780c390304,,,,,,,,,,,,,,,,,,,,,815.4805,815.4805,815.481,817.3137,0,1,left,1.3016,,817.3144,819.397,0,1,left,819.3975,820.747,0,1,left,0,820.7471,820.7471,820.7477,822.2469,0,28,28,28,1,0.2,0.8,0.8,0.2,,,,,,,,,,,,,,,1.5564,,0.8,0.2,0.2,0.8,0.4,0.6,0.2,0.8,,,0.8255,,0.4,0.6,0.2,0.8,0.4,0.6,0.6,0.4,1,0
,,64e7533f36d388e8b31d3309,66fc97fdff9cd954959acd5b,2024-10-02_02h47.51.871,mdp,2024.2.1,Win32,60.24096386,66fa4ebf79326e780c390304,,,,,,,,,,,,,,,,,,,,,822.2472,822.2472,822.2478,823.0136,0,0,left,0.2339,,823.0146,824.1306,0,1,left,824.1315,825.2471,0,1,left,0,825.2471,825.2471,825.2478,826.747,0,29,29,29,1,0.2,0.8,0.8,0.2,,,,,,,,,,,,,,,0.5902,,0.8,0.2,0.2,0.8,0.4,0.6,0.2,0.8,,,0.5881,,0.4,0.6,0.2,0.8,0.4,0.6,0.6,0.4,1,0
,,64e7533f36d388e8b31d3309,66fc97fdff9cd954959acd5b,2024-10-02_02h47.51.871,mdp,2024.2.1,Win32,60.24096386,66fa4ebf79326e780c390304,,,,,,,,,,,,,,,,,,,,,826.7473,826.7473,826.748,827.9304,0,1,left,0.6586,,827.931,828.8803,0,1,left,828.881,829.9969,0,1,left,0,829.9969,829.9969,829.9978,831.497,0,30,30,30,1,0.2,0.8,0.8,0.2,,,,,,,,,,,,,,,0.4173,,0.8,0.2,0.2,0.8,0.4,0.6,0.2,0.8,,,0.5899,,0.4,0.6,0.2,0.8,0.4,0.6,0.6,0.4,1,0
,,64e7533f36d388e8b31d3309,66fc97fdff9cd954959acd5b,2024-10-02_02h47.51.871,mdp,2024.2.1,Win32,60.24096386,66fa4ebf79326e780c390304,,,,,,,,,,,,,,,,,,,,,831.4972,831.4972,831.4978,832.497,0,1,left,0.4775,,832.4977,834.0634,1,1,right,834.0641,835.3969,1,0,right,1,835.397,835.397,835.3975,836.8969,0,31,31,31,1,0.2,0.8,0.8,0.2,,,,,,,,,,,,,,,1.0453,,0.8,0.2,0.2,0.8,0.4,0.6,0.2,0.8,,,0.8167,,0.4,0.6,0.2,0.8,0.4,0.6,0.6,0.4,1,0
,,64e7533f36d388e8b31d3309,66fc97fdff9cd954959acd5b,2024-10-02_02h47.51.871,mdp,2024.2.1,Win32,60.24096386,66fa4ebf79326e780c390304,,,,,,,,,,,,,,,,,,,,,836.8972,836.8972,836.898,837.9302,0,1,left,0.5095,,837.931,839.5137,1,1,right,839.5144,840.397,1,0,right,1,840.397,840.397,840.3976,841.8971,0,32,32,32,1,0.2,0.8,0.8,0.2,,,,,,,,,,,,,,,1.0524,,0.8,0.2,0.2,0.8,0.4,0.6,0.2,0.8,,,0.3568,,0.4,0.6,0.2,0.8,0.4,0.6,0.6,0.4,1,0
,,64e7533f36d388e8b31d3309,66fc97fdff9cd954959acd5b,2024-10-02_02h47.51.871,mdp,2024.2.1,Win32,60.24096386,66fa4ebf79326e780c390304,,,,,,,,,,,,,,,,,,,,,841.8973,841.8973,841.898,842.8803,0,0,left,0.4613,,842.881,844.2803,0,1,left,844.281,845.3136,1,0,right,1,845.3137,845.3137,845.3143,846.8137,0,33,33,33,1,0.2,0.8,0.8,0.2,,,,,,,,,,,,,,,0.8752,,0.8,0.2,0.2,0.8,0.4,0.6,0.2,0.8,,,0.5008,,0.4,0.6,0.2,0.8,0.4,0.6,0.6,0.4,1,0
,,64e7533f36d388e8b31d3309,66fc97fdff9cd954959acd5b,2024-10-02_02h47.51.871,mdp,2024.2.1,Win32,60.24096386,66fa4ebf79326e780c390304,,,,,,,,,,,,,,,,,,,,,846.8138,846.8138,846.8141,849.0803,0,1,left,1.7368,,849.0809,850.1303,0,1,left,850.131,851.3637,1,0,right,1,851.3637,851.3637,851.3643,852.8637,0,34,34,34,1,0.2,0.8,0.8,0.2,,,,,,,,,,,,,,,0.523,,0.8,0.2,0.2,0.8,0.4,0.6,0.2,0.8,,,0.7079,,0.4,0.6,0.2,0.8,0.4,0.6,0.6,0.4,1,0
,,64e7533f36d388e8b31d3309,66fc97fdff9cd954959acd5b,2024-10-02_02h47.51.871,mdp,2024.2.1,Win32,60.24096386,66fa4ebf79326e780c390304,,,,,,,,,,,,,,,,,,,,,852.8641,852.8641,852.8648,853.9969,0,1,left,0.6069,,853.9979,855.1803,0,1,left,855.1809,856.3971,1,0,right,1,856.3972,856.3972,856.398,857.897,0,35,35,35,1,0.2,0.8,0.8,0.2,,,,,,,,,,,,,,,0.6574,,0.4,0.6,0.6,0.4,0.4,0.6,0.2,0.8,,,0.6837,,0.4,0.6,0.2,0.8,0.4,0.6,0.6,0.4,1,0
,,64e7533f36d388e8b31d3309,66fc97fdff9cd954959acd5b,2024-10-02_02h47.51.871,mdp,2024.2.1,Win32,60.24096386,66fa4ebf79326e780c390304,,,,,,,,,,,,,,,,,,,,,857.8973,857.8973,857.8979,859.0138,0,0,left,0.5844,,859.0145,860.1135,0,1,left,860.1141,861.2638,1,1,right,0,861.2638,861.2638,861.2645,862.7638,0,36,36,36,1,0.2,0.8,0.8,0.2,,,,,,,,,,,,,,,0.5656,,0.4,0.6,0.6,0.4,0.4,0.6,0.2,0.8,,,0.6177,,0.4,0.6,0.2,0.8,0.4,0.6,0.6,0.4,1,0
,,64e7533f36d388e8b31d3309,66fc97fdff9cd954959acd5b,2024-10-02_02h47.51.871,mdp,2024.2.1,Win32,60.24096386,66fa4ebf79326e780c390304,,,,,,,,,,,,,,,,,,,,,862.764,862.764,862.7649,863.697,0,1,left,0.4267,,863.6976,865.0636,0,1,left,865.0642,866.147,0,0,left,1,866.147,866.147,866.1477,867.6469,0,37,37,37,1,0.2,0.8,0.8,0.2,,,,,,,,,,,,,,,0.8346,,0.4,0.6,0.6,0.4,0.4,0.6,0.2,0.8,,,0.55,,0.4,0.6,0.2,0.8,0.4,0.6,0.6,0.4,1,0
,,64e7533f36d388e8b31d3309,66fc97fdff9cd954959acd5b,2024-10-02_02h47.51.871,mdp,2024.2.1,Win32,60.24096386,66fa4ebf79326e780c390304,,,,,,,,,,,,,,,,,,,,,867.6472,867.6472,867.6477,868.747,0,1,left,0.5757,,868.7476,870.2137,0,1,left,870.2144,871.197,0,1,left,0,871.1971,871.1971,871.1976,872.6968,0,38,38,38,1,0.2,0.8,0.8,0.2,,,,,,,,,,,,,,,0.9389,,0.4,0.6,0.6,0.4,0.4,0.6,0.2,0.8,,,0.4503,,0.4,0.6,0.2,0.8,0.4,0.6,0.6,0.4,1,0
,,64e7533f36d388e8b31d3309,66fc97fdff9cd954959acd5b,2024-10-02_02h47.51.871,mdp,2024.2.1,Win32,60.24096386,66fa4ebf79326e780c390304,,,,,,,,,,,,,,,,,,,,,872.6972,872.6972,872.698,877.9137,0,1,left,4.692,,877.9213,879.747,0,1,left,879.7477,881.0636,1,1,right,0,881.0636,881.0636,881.0642,882.5637,0,39,39,39,1,0.2,0.8,0.8,0.2,,,,,,,,,,,,,,,1.3085,,0.4,0.6,0.6,0.4,0.4,0.6,0.2,0.8,,,0.7955,,0.4,0.6,0.2,0.8,0.4,0.6,0.6,0.4,1,0
,,64e7533f36d388e8b31d3309,66fc97fdff9cd954959acd5b,2024-10-02_02h47.51.871,mdp,2024.2.1,Win32,60.24096386,66fa4ebf79326e780c390304,,,,,,,,,,,,,,,,,,,,,882.5639,882.5639,882.5646,883.9638,0,0,left,0.8676,,883.9644,890.0137,0,1,left,890.021,891.3137,0,1,left,0,891.3137,891.3137,891.3145,892.8136,0,40,40,40,1,0.2,0.8,0.8,0.2,,,,,,,,,,,,,,,5.5143,,0.4,0.6,0.6,0.4,0.4,0.6,0.2,0.8,,,0.7765,,0.4,0.6,0.2,0.8,0.4,0.6,0.6,0.4,1,0
,,64e7533f36d388e8b31d3309,66fc97fdff9cd954959acd5b,2024-10-02_02h47.51.871,mdp,2024.2.1,Win32,60.24096386,66fa4ebf79326e780c390304,,,,,,,,,,,,,,,,,,,,,892.8139,892.8139,892.8147,896.1304,0,1,left,2.7926,,896.1379,897.1633,0,1,left,897.1638,898.3136,1,0,right,1,898.3137,898.3137,898.3144,899.8136,0,41,41,41,1,0.2,0.8,0.8,0.2,,,,,,,,,,,,,,,0.5051,,0.4,0.6,0.6,0.4,0.4,0.6,0.2,0.8,,,0.6418,,0.4,0.6,0.2,0.8,0.4,0.6,0.6,0.4,1,0
,,64e7533f36d388e8b31d3309,66fc97fdff9cd954959acd5b,2024-10-02_02h47.51.871,mdp,2024.2.1,Win32,60.24096386,66fa4ebf79326e780c390304,,,,,,,,,,,,,,,,,,,,,899.8139,899.8139,899.8144,900.9303,0,1,left,0.5915,,900.931,901.847,0,1,left,901.8476,903.0138,1,1,right,0,903.0138,903.0138,903.0145,904.5137,0,42,42,42,1,0.2,0.8,0.8,0.2,,,,,,,,,,,,,,,0.3868,,0.4,0.6,0.6,0.4,0.4,0.6,0.2,0.8,,,0.6383,,0.4,0.6,0.2,0.8,0.4,0.6,0.6,0.4,1,0
,,64e7533f36d388e8b31d3309,66fc97fdff9cd954959acd5b,2024-10-02_02h47.51.871,mdp,2024.2.1,Win32,60.24096386,66fa4ebf79326e780c390304,,,,,,,,,,,,,,,,,,,,,904.5141,904.5141,904.5147,905.4803,0,1,left,0.437,,905.4811,906.497,0,0,left,906.4974,907.3304,0,1,left,0,907.3304,907.3304,907.3311,908.8302,0,43,43,43,1,0.2,0.8,0.8,0.2,,,,,,,,,,,,,,,0.4934,,0.4,0.6,0.6,0.4,0.4,0.6,0.2,0.8,,,0.307,,0.4,0.6,0.2,0.8,0.4,0.6,0.6,0.4,1,0
,,64e7533f36d388e8b31d3309,66fc97fdff9cd954959acd5b,2024-10-02_02h47.51.871,mdp,2024.2.1,Win32,60.24096386,66fa4ebf79326e780c390304,,,,,,,,,,,,,,,,,,,,,908.8305,908.8305,908.8308,909.5636,0,0,left,0.1986,,909.5641,910.8637,0,1,left,910.8643,914.647,0,1,left,0,914.6471,914.6471,914.6546,916.1469,0,44,44,44,1,0.2,0.8,0.8,0.2,,,,,,,,,,,,,,,0.7643,,0.4,0.6,0.6,0.4,0.4,0.6,0.2,0.8,,,3.2481,,0.4,0.6,0.2,0.8,0.4,0.6,0.6,0.4,1,0
,,64e7533f36d388e8b31d3309,66fc97fdff9cd954959acd5b,2024-10-02_02h47.51.871,mdp,2024.2.1,Win32,60.24096386,66fa4ebf79326e780c390304,,,,,,,,,,,,,,,,,,,,,916.1472,916.1472,916.1478,978.3969,0,1,left,61.7218,,978.4051,979.5137,0,1,left,979.5143,980.6969,1,0,right,1,980.697,980.697,980.6977,982.1971,0,45,45,45,1,0.2,0.8,0.8,0.2,,,,,,,,,,,,,,,0.5822,,0.4,0.6,0.6,0.4,0.4,0.6,0.2,0.8,,,0.6507,,0.4,0.6,0.2,0.8,0.4,0.6,0.6,0.4,1,0
,,64e7533f36d388e8b31d3309,66fc97fdff9cd954959acd5b,2024-10-02_02h47.51.871,mdp,2024.2.1,Win32,60.24096386,66fa4ebf79326e780c390304,,,,,,,,,,,,,,,,,,,,,982.1975,982.1975,982.1986,983.4304,0,0,left,0.7009,,983.4311,984.6304,0,0,left,984.6309,985.797,0,0,left,1,985.7971,985.7971,985.7976,987.297,0,46,46,46,1,0.2,0.8,0.8,0.2,,,,,,,,,,,,,,,0.6695,,0.4,0.6,0.6,0.4,0.4,0.6,0.2,0.8,,,0.6545,,0.4,0.6,0.2,0.8,0.4,0.6,0.6,0.4,1,0
,,64e7533f36d388e8b31d3309,66fc97fdff9cd954959acd5b,2024-10-02_02h47.51.871,mdp,2024.2.1,Win32,60.24096386,66fa4ebf79326e780c390304,,,,,,,,,,,,,,,,,,,,,987.2974,987.2974,987.298,988.8469,0,1,left,1.0213,,988.8476,989.8304,0,1,left,989.8311,990.8471,0,1,left,0,990.8471,990.8471,990.8478,992.3471,0,47,47,47,1,0.2,0.8,0.8,0.2,,,,,,,,,,,,,,,0.4691,,0.4,0.6,0.6,0.4,0.4,0.6,0.2,0.8,,,0.5019,,0.4,0.6,0.2,0.8,0.4,0.6,0.6,0.4,1,0
,,64e7533f36d388e8b31d3309,66fc97fdff9cd954959acd5b,2024-10-02_02h47.51.871,mdp,2024.2.1,Win32,60.24096386,66fa4ebf79326e780c390304,,,,,,,,,,,,,,,,,,,,,992.3473,992.3474,992.3479,994.3302,0,0,left,1.4505,,994.3309,996.4138,0,1,left,996.4214,997.647,0,0,left,1,997.647,997.647,997.6477,999.1469,0,48,48,48,1,0.2,0.8,0.8,0.2,,,,,,,,,,,,,,,1.57,,0.4,0.6,0.6,0.4,0.4,0.6,0.2,0.8,,,0.7178,,0.4,0.6,0.2,0.8,0.8,0.2,0.8,0.2,1,0
,,64e7533f36d388e8b31d3309,66fc97fdff9cd954959acd5b,2024-10-02_02h47.51.871,mdp,2024.2.1,Win32,60.24096386,66fa4ebf79326e780c390304,,,,,,,,,,,,,,,,,,,,,999.1472,999.1472,999.1477,1000.7637,0,1,left,1.0902,,1000.7645,1001.697,0,1,left,1001.6977,1002.7304,0,0,left,1,1002.7304,1002.7304,1002.7311,1004.2305,0,49,49,49,1,0.2,0.8,0.8,0.2,,,,,,,,,,,,,,,0.4073,,0.4,0.6,0.6,0.4,0.4,0.6,0.2,0.8,,,0.5005,,0.4,0.6,0.2,0.8,0.8,0.2,0.8,0.2,1,0
,,64e7533f36d388e8b31d3309,66fc97fdff9cd954959acd5b,2024-10-02_02h47.51.871,mdp,2024.2.1,Win32,60.24096386,66fa4ebf79326e780c390304,,,,,,,,,,,,,,,,,,,,,,,,,,,,,,,,,,,,,,,,,,,,,,,,,,,,,,,,1004.2305,1062.7304,0,2,2,3,1,imgs/giraffe.png,imgs/horse.png,imgs/squirrel.png,imgs/bear.png,imgs/rabbit.png,,,,,,,,,,,,,,,,,,,,,,,,
,,64e7533f36d388e8b31d3309,66fc97fdff9cd954959acd5b,2024-10-02_02h47.51.871,mdp,2024.2.1,Win32,60.24096386,66fa4ebf79326e780c390304,,,,,,,,,,,,,,3,seqs/st3seq49.csv,1062.7379,1094.4636,space,31.2015,,1094.4728,1094.4729,1094.4733,1097.2136,0,0,left,2.2182,,1097.2144,1098.3637,0,1,left,1098.3645,1099.5305,0,1,left,0,1099.5305,1099.5305,1099.5312,1101.0303,0,0,0,0,1,0.2,0.8,0.6,0.4,,,,,,,,,,,,,,,0.6137,,0.6,0.4,0.6,0.4,0.2,0.8,0.6,0.4,,,0.6297,,0.2,0.8,0.2,0.8,0.6,0.4,0.2,0.8,1,0
,,64e7533f36d388e8b31d3309,66fc97fdff9cd954959acd5b,2024-10-02_02h47.51.871,mdp,2024.2.1,Win32,60.24096386,66fa4ebf79326e780c390304,,,,,,,,,,,,,,,,,,,,,1101.0306,1101.0306,1101.0311,1103.2304,1,0,right,1.6715,,1103.231,1104.2138,1,1,right,1104.2145,1105.0972,1,0,right,1,1105.0972,1105.0972,1105.0978,1106.597,0,1,1,1,1,0.2,0.8,0.6,0.4,,,,,,,,,,,,,,,0.471,,0.6,0.4,0.6,0.4,0.2,0.8,0.6,0.4,,,0.3525,,0.2,0.8,0.2,0.8,0.6,0.4,0.2,0.8,1,0
,,64e7533f36d388e8b31d3309,66fc97fdff9cd954959acd5b,2024-10-02_02h47.51.871,mdp,2024.2.1,Win32,60.24096386,66fa4ebf79326e780c390304,,,,,,,,,,,,,,,,,,,,,1106.5974,1106.5974,1106.5978,1107.9471,1,0,right,0.8175,,1107.9478,1108.8804,1,0,right,1108.881,1109.7805,1,0,right,1,1109.7805,1109.7805,1109.7812,1111.2804,0,2,2,2,1,0.2,0.8,0.6,0.4,,,,,,,,,,,,,,,0.4106,,0.6,0.4,0.6,0.4,0.4,0.6,0.2,0.8,,,0.3699,,0.2,0.8,0.2,0.8,0.6,0.4,0.2,0.8,1,0
,,64e7533f36d388e8b31d3309,66fc97fdff9cd954959acd5b,2024-10-02_02h47.51.871,mdp,2024.2.1,Win32,60.24096386,66fa4ebf79326e780c390304,,,,,,,,,,,,,,,,,,,,,1111.2808,1111.2808,1111.2813,1112.047,1,1,right,0.2327,,1112.0477,1113.6805,1,0,right,1113.6811,1114.5972,1,0,right,1,1114.5972,1114.5972,1114.5978,1116.097,0,3,3,3,1,0.2,0.8,0.6,0.4,,,,,,,,,,,,,,,1.1073,,0.6,0.4,0.6,0.4,0.4,0.6,0.2,0.8,,,0.3841,,0.2,0.8,0.2,0.8,0.6,0.4,0.2,0.8,1,0
,,64e7533f36d388e8b31d3309,66fc97fdff9cd954959acd5b,2024-10-02_02h47.51.871,mdp,2024.2.1,Win32,60.24096386,66fa4ebf79326e780c390304,,,,,,,,,,,,,,,,,,,,,1116.0971,1116.0971,1116.0975,1116.6804,1,0,right,0.0522,,1116.681,1117.6471,1,1,right,1117.6477,1118.5138,1,0,right,1,1118.5138,1118.5138,1118.5144,1120.0137,0,4,4,4,1,0.2,0.8,0.6,0.4,,,,,,,,,,,,,,,0.4431,,0.6,0.4,0.6,0.4,0.4,0.6,0.2,0.8,,,0.3333,,0.2,0.8,0.2,0.8,0.6,0.4,0.2,0.8,1,0
,,64e7533f36d388e8b31d3309,66fc97fdff9cd954959acd5b,2024-10-02_02h47.51.871,mdp,2024.2.1,Win32,60.24096386,66fa4ebf79326e780c390304,,,,,,,,,,,,,,,,,,,,,1120.014,1120.014,1120.0148,1121.0805,1,0,right,0.5352,,1121.0811,1122.0802,1,0,right,1122.0809,1123.0471,1,0,right,1,1123.0472,1123.0472,1123.0478,1124.5469,0,5,5,5,1,0.2,0.8,0.6,0.4,,,,,,,,,,,,,,,0.4763,,0.6,0.4,0.6,0.4,0.4,0.6,0.2,0.8,,,0.4477,,0.2,0.8,0.2,0.8,0.6,0.4,0.2,0.8,1,0
,,64e7533f36d388e8b31d3309,66fc97fdff9cd954959acd5b,2024-10-02_02h47.51.871,mdp,2024.2.1,Win32,60.24096386,66fa4ebf79326e780c390304,,,,,,,,,,,,,,,,,,,,,1124.5471,1124.5471,1124.5478,1125.0968,1,0,right,0.0189,,1125.0973,1126.3471,1,1,right,1126.3478,1127.2806,1,1,right,0,1127.2806,1127.2806,1127.2813,1128.7804,0,6,6,6,1,0.2,0.8,0.6,0.4,,,,,,,,,,,,,,,0.7405,,0.6,0.4,0.6,0.4,0.4,0.6,0.2,0.8,,,0.4,,0.2,0.8,0.2,0.8,0.6,0.4,0.2,0.8,1,0
,,64e7533f36d388e8b31d3309,66fc97fdff9cd954959acd5b,2024-10-02_02h47.51.871,mdp,2024.2.1,Win32,60.24096386,66fa4ebf79326e780c390304,,,,,,,,,,,,,,,,,,,,,1128.7807,1128.7808,1128.7814,1129.6637,1,0,right,0.3616,,1129.6644,1130.5637,1,0,right,1130.5645,1131.4471,1,1,right,0,1131.4472,1131.4472,1131.4477,1132.9471,0,7,7,7,1,0.2,0.8,0.6,0.4,,,,,,,,,,,,,,,0.3672,,0.6,0.4,0.6,0.4,0.4,0.6,0.2,0.8,,,0.3603,,0.2,0.8,0.2,0.8,0.6,0.4,0.2,0.8,1,0
,,64e7533f36d388e8b31d3309,66fc97fdff9cd954959acd5b,2024-10-02_02h47.51.871,mdp,2024.2.1,Win32,60.24096386,66fa4ebf79326e780c390304,,,,,,,,,,,,,,,,,,,,,1132.9474,1132.9474,1132.9481,1133.8136,0,1,left,0.339,,1133.8142,1134.6638,0,1,left,1134.6644,1135.497,0,1,left,0,1135.4971,1135.4971,1135.4977,1136.9971,0,8,8,8,1,0.2,0.8,0.6,0.4,,,,,,,,,,,,,,,0.3146,,0.6,0.4,0.6,0.4,0.4,0.6,0.2,0.8,,,0.308,,0.2,0.8,0.2,0.8,0.6,0.4,0.2,0.8,1,0
,,64e7533f36d388e8b31d3309,66fc97fdff9cd954959acd5b,2024-10-02_02h47.51.871,mdp,2024.2.1,Win32,60.24096386,66fa4ebf79326e780c390304,,,,,,,,,,,,,,,,,,,,,1136.9974,1136.9974,1136.998,1138.1973,0,1,left,0.6661,,1138.1978,1139.047,0,1,left,1139.0475,1139.8804,0,0,left,1,1139.8805,1139.8805,1139.8811,1141.3804,0,9,9,9,1,0.2,0.8,0.6,0.4,,,,,,,,,,,,,,,0.3208,,0.6,0.4,0.6,0.4,0.4,0.6,0.2,0.8,,,0.3017,,0.2,0.8,0.2,0.8,0.6,0.4,0.2,0.8,1,0
,,64e7533f36d388e8b31d3309,66fc97fdff9cd954959acd5b,2024-10-02_02h47.51.871,mdp,2024.2.1,Win32,60.24096386,66fa4ebf79326e780c390304,,,,,,,,,,,,,,,,,,,,,1141.3807,1141.3807,1141.3814,1142.3971,0,1,left,0.4849,,1142.3978,1143.3139,0,0,left,1143.3146,1144.1971,0,1,left,0,1144.1971,1144.1971,1144.1978,1145.697,0,10,10,10,1,0.2,0.8,0.6,0.4,,,,,,,,,,,,,,,0.3931,,0.6,0.4,0.6,0.4,0.4,0.6,0.2,0.8,,,0.3477,,0.2,0.8,0.2,0.8,0.6,0.4,0.2,0.8,1,0
,,64e7533f36d388e8b31d3309,66fc97fdff9cd954959acd5b,2024-10-02_02h47.51.871,mdp,2024.2.1,Win32,60.24096386,66fa4ebf79326e780c390304,,,,,,,,,,,,,,,,,,,,,1145.6973,1145.6973,1145.6979,1146.2472,1,0,right,0.0288,,1146.2479,1147.4303,1,1,right,1147.431,1148.8802,1,1,right,0,1148.8802,1148.8803,1148.8809,1150.3804,0,11,11,11,1,0.2,0.8,0.6,0.4,,,,,,,,,,,,,,,0.6523,,0.6,0.4,0.6,0.4,0.4,0.6,0.2,0.8,,,0.9229,,0.2,0.8,0.2,0.8,0.6,0.4,0.2,0.8,1,0
,,64e7533f36d388e8b31d3309,66fc97fdff9cd954959acd5b,2024-10-02_02h47.51.871,mdp,2024.2.1,Win32,60.24096386,66fa4ebf79326e780c390304,,,,,,,,,,,,,,,,,,,,,1150.3807,1150.3807,1150.3813,1151.6137,1,0,right,0.6993,,1151.6143,1152.797,1,0,right,1152.7977,1153.7637,1,1,right,0,1153.7637,1153.7637,1153.7645,1155.2636,0,12,12,12,1,0.2,0.8,0.6,0.4,,,,,,,,,,,,,,,0.6674,,0.6,0.4,0.6,0.4,0.8,0.2,0.4,0.6,,,0.455,,0.2,0.8,0.2,0.8,0.6,0.4,0.2,0.8,1,0
,,64e7533f36d388e8b31d3309,66fc97fdff9cd954959acd5b,2024-10-02_02h47.51.871,mdp,2024.2.1,Win32,60.24096386,66fa4ebf79326e780c390304,,,,,,,,,,,,,,,,,,,,,1155.264,1155.264,1155.265,1156.197,0,1,left,0.4003,,1156.1977,1157.1472,0,0,left,1157.1479,1158.0473,0,0,left,1,1158.0473,1158.0473,1158.048,1159.5471,0,13,13,13,1,0.2,0.8,0.6,0.4,,,,,,,,,,,,,,,0.4313,,0.6,0.4,0.6,0.4,0.8,0.2,0.4,0.6,,,0.3789,,0.2,0.8,0.2,0.8,0.6,0.4,0.2,0.8,1,0
,,64e7533f36d388e8b31d3309,66fc97fdff9cd954959acd5b,2024-10-02_02h47.51.871,mdp,2024.2.1,Win32,60.24096386,66fa4ebf79326e780c390304,,,,,,,,,,,,,,,,,,,,,1159.5474,1159.5474,1159.5483,1160.647,0,0,left,0.5676,,1160.6476,1161.547,0,0,left,1161.5475,1162.5139,0,1,left,0,1162.5139,1162.5139,1162.5146,1164.0137,0,14,14,14,1,0.2,0.8,0.6,0.4,,,,,,,,,,,,,,,0.381,,0.6,0.4,0.6,0.4,0.8,0.2,0.4,0.6,,,0.4423,,0.2,0.8,0.2,0.8,0.4,0.6,0.6,0.4,1,0
,,64e7533f36d388e8b31d3309,66fc97fdff9cd954959acd5b,2024-10-02_02h47.51.871,mdp,2024.2.1,Win32,60.24096386,66fa4ebf79326e780c390304,,,,,,,,,,,,,,,,,,,,,1164.014,1164.014,1164.0147,1164.9305,1,1,right,0.3834,,1164.9312,1165.8304,1,1,right,1165.8312,1166.8637,1,0,right,1,1166.8638,1166.8638,1166.8641,1168.3638,0,15,15,15,1,0.2,0.8,0.6,0.4,,,,,,,,,,,,,,,0.365,,0.6,0.4,0.6,0.4,0.8,0.2,0.4,0.6,,,0.5006,,0.2,0.8,0.2,0.8,0.4,0.6,0.6,0.4,1,0
,,64e7533f36d388e8b31d3309,66fc97fdff9cd954959acd5b,2024-10-02_02h47.51.871,mdp,2024.2.1,Win32,60.24096386,66fa4ebf79326e780c390304,,,,,,,,,,,,,,,,,,,,,1168.3641,1168.3641,1168.3648,1181.2137,1,0,right,12.3158,,1181.2194,1182.2138,1,0,right,1182.2145,1183.1468,1,1,right,0,1183.1469,1183.1469,1183.1475,1184.6471,0,16,16,16,1,0.2,0.8,0.6,0.4,,,,,,,,,,,,,,,0.4658,,0.6,0.4,0.6,0.4,0.8,0.2,0.4,0.6,,,0.405,,0.2,0.8,0.2,0.8,0.4,0.6,0.6,0.4,1,0
,,64e7533f36d388e8b31d3309,66fc97fdff9cd954959acd5b,2024-10-02_02h47.51.871,mdp,2024.2.1,Win32,60.24096386,66fa4ebf79326e780c390304,,,,,,,,,,,,,,,,,,,,,1184.6475,1184.6475,1184.6484,1185.9971,1,1,right,0.8183,,1185.9976,1187.047,1,1,right,1187.0474,1188.3471,1,0,right,1,1188.3472,1188.3472,1188.3476,1189.8471,0,17,17,17,1,0.2,0.8,0.6,0.4,,,,,,,,,,,,,,,0.5177,,0.6,0.4,0.6,0.4,0.8,0.2,0.4,0.6,,,0.7811,,0.2,0.8,0.2,0.8,0.4,0.6,0.6,0.4,1,0
,,64e7533f36d388e8b31d3309,66fc97fdff9cd954959acd5b,2024-10-02_02h47.51.871,mdp,2024.2.1,Win32,60.24096386,66fa4ebf79326e780c390304,,,,,,,,,,,,,,,,,,,,,1189.8473,1189.8473,1189.8476,1196.4969,1,0,right,6.1189,,1196.502,1197.9305,1,1,right,1197.9314,1199.1474,1,0,right,1,1199.1474,1199.1474,1199.148,1200.647,0,18,18,18,1,0.2,0.8,0.6,0.4,,,,,,,,,,,,,,,0.9068,,0.6,0.4,0.6,0.4,0.8,0.2,0.4,0.6,,,0.6838,,0.2,0.8,0.2,0.8,0.4,0.6,0.6,0.4,1,0
,,64e7533f36d388e8b31d3309,66fc97fdff9cd954959acd5b,2024-10-02_02h47.51.871,mdp,2024.2.1,Win32,60.24096386,66fa4ebf79326e780c390304,,,,,,,,,,,,,,,,,,,,,1200.6474,1200.6474,1200.648,1207.1804,1,0,right,6.0011,,1207.1854,1208.2805,1,1,right,1208.2811,1209.347,1,0,right,1,1209.347,1209.347,1209.3477,1210.8471,0,19,19,19,1,0.2,0.8,0.6,0.4,,,,,,,,,,,,,,,0.5765,,0.6,0.4,0.6,0.4,0.8,0.2,0.4,0.6,,,0.5336,,0.2,0.8,0.2,0.8,0.4,0.6,0.6,0.4,1,0
,,64e7533f36d388e8b31d3309,66fc97fdff9cd954959acd5b,2024-10-02_02h47.51.871,mdp,2024.2.1,Win32,60.24096386,66fa4ebf79326e780c390304,,,,,,,,,,,,,,,,,,,,,1210.8475,1210.8475,1210.8482,1213.4805,1,0,right,2.1097,,1213.4883,1214.847,1,0,right,1214.8474,1215.7305,1,1,right,0,1215.7306,1215.7306,1215.7312,1217.2305,0,20,20,20,1,0.2,0.8,0.6,0.4,,,,,,,,,,,,,,,0.8333,,0.6,0.4,0.6,0.4,0.8,0.2,0.4,0.6,,,0.356,,0.2,0.8,0.2,0.8,0.4,0.6,0.6,0.4,1,0
,,64e7533f36d388e8b31d3309,66fc97fdff9cd954959acd5b,2024-10-02_02h47.51.871,mdp,2024.2.1,Win32,60.24096386,66fa4ebf79326e780c390304,,,,,,,,,,,,,,,,,,,,,1217.2309,1217.2309,1217.2315,1218.0636,1,0,right,0.3021,,1218.064,1218.9471,1,0,right,1218.9478,1219.8304,1,0,right,1,1219.8305,1219.8305,1219.8308,1221.3304,0,21,21,21,1,0.2,0.8,0.6,0.4,,,,,,,,,,,,,,,0.3746,,0.6,0.4,0.6,0.4,0.6,0.4,0.2,0.8,,,0.3499,,0.2,0.8,0.2,0.8,0.4,0.6,0.6,0.4,1,0
,,64e7533f36d388e8b31d3309,66fc97fdff9cd954959acd5b,2024-10-02_02h47.51.871,mdp,2024.2.1,Win32,60.24096386,66fa4ebf79326e780c390304,,,,,,,,,,,,,,,,,,,,,1221.3307,1221.3307,1221.331,1221.9306,1,0,right,0.0677,,1221.9311,1222.5138,1,0,right,1222.5144,1223.3805,1,1,right,0,1223.3806,1223.3806,1223.3812,1224.8802,0,22,22,22,1,0.2,0.8,0.6,0.4,,,,,,,,,,,,,,,0.0517,,0.6,0.4,0.6,0.4,0.6,0.4,0.2,0.8,,,0.3331,,0.2,0.8,0.2,0.8,0.8,0.2,0.2,0.8,1,0
,,64e7533f36d388e8b31d3309,66fc97fdff9cd954959acd5b,2024-10-02_02h47.51.871,mdp,2024.2.1,Win32,60.24096386,66fa4ebf79326e780c390304,,,,,,,,,,,,,,,,,,,,,1224.8805,1224.8805,1224.8811,1225.8636,0,1,left,0.4522,,1225.8642,1226.5639,0,0,left,1226.5646,1227.447,0,1,left,0,1227.4471,1227.4471,1227.4475,1228.9471,0,23,23,23,1,0.2,0.8,0.6,0.4,,,,,,,,,,,,,,,0.1882,,0.6,0.4,0.6,0.4,0.6,0.4,0.2,0.8,,,0.3496,,0.2,0.8,0.2,0.8,0.8,0.2,0.2,0.8,1,0
,,64e7533f36d388e8b31d3309,66fc97fdff9cd954959acd5b,2024-10-02_02h47.51.871,mdp,2024.2.1,Win32,60.24096386,66fa4ebf79326e780c390304,,,,,,,,,,,,,,,,,,,,,1228.9474,1228.9474,1228.948,1229.7471,0,1,left,0.2667,,1229.7477,1230.8138,0,0,left,1230.8145,1231.8972,0,1,left,0,1231.8972,1231.8972,1231.8978,1233.3972,0,24,24,24,1,0.2,0.8,0.6,0.4,,,,,,,,,,,,,,,0.534,,0.6,0.4,0.6,0.4,0.6,0.4,0.2,0.8,,,0.5511,,0.2,0.8,0.2,0.8,0.8,0.2,0.2,0.8,1,0
,,64e7533f36d388e8b31d3309,66fc97fdff9cd954959acd5b,2024-10-02_02h47.51.871,mdp,2024.2.1,Win32,60.24096386,66fa4ebf79326e780c390304,,,,,,,,,,,,,,,,,,,,,1233.3974,1233.3974,1233.3981,1234.2137,1,1,right,0.2889,,1234.2144,1235.097,1,1,right,1235.0976,1236.3806,1,1,right,0,1236.3806,1236.3806,1236.3816,1237.8802,0,25,25,25,1,0.2,0.8,0.6,0.4,,,,,,,,,,,,,,,0.3589,,0.6,0.4,0.6,0.4,0.6,0.4,0.2,0.8,,,0.7657,,0.2,0.8,0.2,0.8,0.8,0.2,0.2,0.8,1,0
,,64e7533f36d388e8b31d3309,66fc97fdff9cd954959acd5b,2024-10-02_02h47.51.871,mdp,2024.2.1,Win32,60.24096386,66fa4ebf79326e780c390304,,,,,,,,,,,,,,,,,,,,,1237.8805,1237.8805,1237.881,1238.8471,1,0,right,0.4543,,1238.8478,1239.4804,1,1,right,1239.4811,1240.1306,1,0,right,1,1240.1306,1240.1306,1240.1314,1241.6305,0,26,26,26,1,0.2,0.8,0.6,0.4,,,,,,,,,,,,,,,0.1,,0.6,0.4,0.6,0.4,0.6,0.4,0.2,0.8,,,0.1183,,0.2,0.8,0.2,0.8,0.8,0.2,0.2,0.8,1,0
,,64e7533f36d388e8b31d3309,66fc97fdff9cd954959acd5b,2024-10-02_02h47.51.871,mdp,2024.2.1,Win32,60.24096386,66fa4ebf79326e780c390304,,,,,,,,,,,,,,,,,,,,,1241.6308,1241.6308,1241.6314,1245.9309,1,1,right,3.7677,,1245.9383,1247.0138,1,1,right,1247.0143,1247.7804,1,1,right,0,1247.7805,1247.7805,1247.7811,1249.2806,0,27,27,27,1,0.2,0.8,0.6,0.4,,,,,,,,,,,,,,,0.5529,,0.6,0.4,0.6,0.4,0.6,0.4,0.2,0.8,,,0.2401,,0.2,0.8,0.2,0.8,0.8,0.2,0.2,0.8,1,0
,,64e7533f36d388e8b31d3309,66fc97fdff9cd954959acd5b,2024-10-02_02h47.51.871,mdp,2024.2.1,Win32,60.24096386,66fa4ebf79326e780c390304,,,,,,,,,,,,,,,,,,,,,1249.281,1249.281,1249.2819,1249.9303,1,0,right,0.1167,,1249.931,1254.4139,1,1,right,1254.4214,1255.3805,1,1,right,0,1255.3805,1255.3805,1255.3812,1256.8803,0,28,28,28,1,0.2,0.8,0.6,0.4,,,,,,,,,,,,,,,3.9641,,0.6,0.4,0.6,0.4,0.6,0.4,0.2,0.8,,,0.4351,,0.2,0.8,0.2,0.8,0.8,0.2,0.2,0.8,1,0
,,64e7533f36d388e8b31d3309,66fc97fdff9cd954959acd5b,2024-10-02_02h47.51.871,mdp,2024.2.1,Win32,60.24096386,66fa4ebf79326e780c390304,,,,,,,,,,,,,,,,,,,,,1256.8805,1256.8805,1256.8809,1257.9971,1,1,right,0.5847,,1257.9978,1258.947,1,1,right,1258.9476,1259.997,1,1,right,0,1259.997,1259.997,1259.9977,1261.497,0,29,29,29,1,0.2,0.8,0.6,0.4,,,,,,,,,,,,,,,0.4139,,0.6,0.4,0.6,0.4,0.2,0.8,0.4,0.6,,,0.5392,,0.2,0.8,0.2,0.8,0.8,0.2,0.2,0.8,1,0
,,64e7533f36d388e8b31d3309,66fc97fdff9cd954959acd5b,2024-10-02_02h47.51.871,mdp,2024.2.1,Win32,60.24096386,66fa4ebf79326e780c390304,,,,,,,,,,,,,,,,,,,,,1261.4974,1261.4974,1261.4982,1262.5804,1,1,right,0.5565,,1262.5811,1263.5305,1,1,right,1263.5311,1264.5305,1,1,right,0,1264.5305,1264.5305,1264.5311,1266.0304,0,30,30,30,1,0.8,0.2,0.2,0.8,,,,,,,,,,,,,,,0.4249,,0.6,0.4,0.6,0.4,0.2,0.8,0.4,0.6,,,0.4682,,0.2,0.8,0.2,0.8,0.8,0.2,0.2,0.8,1,0
,,64e7533f36d388e8b31d3309,66fc97fdff9cd954959acd5b,2024-10-02_02h47.51.871,mdp,2024.2.1,Win32,60.24096386,66fa4ebf79326e780c390304,,,,,,,,,,,,,,,,,,,,,1266.0308,1266.0308,1266.0321,1267.3137,1,1,right,0.7755,,1267.3145,1268.2305,1,0,right,1268.2311,1269.0971,1,1,right,0,1269.0972,1269.0972,1269.0978,1270.597,0,31,31,31,1,0.8,0.2,0.2,0.8,,,,,,,,,,,,,,,0.3883,,0.6,0.4,0.6,0.4,0.2,0.8,0.4,0.6,,,0.3331,,0.2,0.8,0.2,0.8,0.8,0.2,0.2,0.8,1,0
,,64e7533f36d388e8b31d3309,66fc97fdff9cd954959acd5b,2024-10-02_02h47.51.871,mdp,2024.2.1,Win32,60.24096386,66fa4ebf79326e780c390304,,,,,,,,,,,,,,,,,,,,,1270.5973,1270.5973,1270.5979,1271.5639,1,1,right,0.4332,,1271.5645,1272.5138,1,0,right,1272.5144,1273.4138,1,1,right,0,1273.4139,1273.4139,1273.4144,1274.9138,0,32,32,32,1,0.8,0.2,0.2,0.8,,,,,,,,,,,,,,,0.418,,0.6,0.4,0.6,0.4,0.2,0.8,0.4,0.6,,,0.371,,0.2,0.8,0.2,0.8,0.8,0.2,0.2,0.8,1,0
,,64e7533f36d388e8b31d3309,66fc97fdff9cd954959acd5b,2024-10-02_02h47.51.871,mdp,2024.2.1,Win32,60.24096386,66fa4ebf79326e780c390304,,,,,,,,,,,,,,,,,,,,,1274.9141,1274.9141,1274.9148,1277.4137,1,1,right,1.9883,,1277.4213,1278.6971,1,1,right,1278.6979,1279.5805,1,0,right,1,1279.5805,1279.5805,1279.5812,1281.0803,0,33,33,33,1,0.8,0.2,0.2,0.8,,,,,,,,,,,,,,,0.7518,,0.6,0.4,0.6,0.4,0.2,0.8,0.4,0.6,,,0.3542,,0.2,0.8,0.2,0.8,0.8,0.2,0.2,0.8,1,0
,,64e7533f36d388e8b31d3309,66fc97fdff9cd954959acd5b,2024-10-02_02h47.51.871,mdp,2024.2.1,Win32,60.24096386,66fa4ebf79326e780c390304,,,,,,,,,,,,,,,,,,,,,1281.0806,1281.0806,1281.0812,1281.9971,1,1,right,0.3839,,1281.9978,1282.7971,1,0,right,1282.7982,1283.6141,1,0,right,1,1283.6141,1283.6141,1283.6147,1285.1138,0,34,34,34,1,0.4,0.6,0.6,0.4,,,,,,,,,,,,,,,0.2723,,0.6,0.4,0.6,0.4,0.2,0.8,0.4,0.6,,,0.2817,,0.2,0.8,0.2,0.8,0.8,0.2,0.2,0.8,1,0
,,64e7533f36d388e8b31d3309,66fc97fdff9cd954959acd5b,2024-10-02_02h47.51.871,mdp,2024.2.1,Win32,60.24096386,66fa4ebf79326e780c390304,,,,,,,,,,,,,,,,,,,,,1285.1141,1285.1141,1285.1148,1310.3972,1,0,right,24.7553,,1310.4053,1311.3972,1,1,right,1311.3976,1312.4138,1,1,right,0,1312.4138,1312.4138,1312.4146,1313.9136,0,35,35,35,1,0.4,0.6,0.6,0.4,,,,,,,,,,,,,,,0.4646,,0.6,0.4,0.6,0.4,0.2,0.8,0.4,0.6,,,0.4813,,0.2,0.8,0.2,0.8,0.8,0.2,0.2,0.8,1,0
,,64e7533f36d388e8b31d3309,66fc97fdff9cd954959acd5b,2024-10-02_02h47.51.871,mdp,2024.2.1,Win32,60.24096386,66fa4ebf79326e780c390304,,,,,,,,,,,,,,,,,,,,,1313.9139,1313.9139,1313.9143,1343.9804,1,1,right,29.5337,,1343.9887,1345.1805,1,0,right,1345.1813,1346.6638,1,0,right,1,1346.6639,1346.6639,1346.6646,1348.1637,0,36,36,36,1,0.6,0.4,0.2,0.8,,,,,,,,,,,,,,,0.6638,,0.6,0.4,0.6,0.4,0.2,0.8,0.4,0.6,,,0.9506,,0.2,0.8,0.2,0.8,0.8,0.2,0.2,0.8,1,0
,,64e7533f36d388e8b31d3309,66fc97fdff9cd954959acd5b,2024-10-02_02h47.51.871,mdp,2024.2.1,Win32,60.24096386,66fa4ebf79326e780c390304,,,,,,,,,,,,,,,,,,,,,1348.164,1348.164,1348.1644,1349.2969,1,0,right,0.6097,,1349.2975,1350.2303,1,0,right,1350.2308,1351.3972,1,1,right,0,1351.3972,1351.3972,1351.3979,1352.8972,0,37,37,37,1,0.6,0.4,0.2,0.8,,,,,,,,,,,,,,,0.4026,,0.6,0.4,0.6,0.4,0.2,0.8,0.4,0.6,,,0.6559,,0.2,0.8,0.2,0.8,0.8,0.2,0.2,0.8,1,0
,,64e7533f36d388e8b31d3309,66fc97fdff9cd954959acd5b,2024-10-02_02h47.51.871,mdp,2024.2.1,Win32,60.24096386,66fa4ebf79326e780c390304,,,,,,,,,,,,,,,,,,,,,1352.8975,1352.8975,1352.8982,1354.2472,1,1,right,0.8159,,1354.2479,1355.3971,1,1,right,1355.3978,1357.4305,1,0,right,1,1357.4306,1357.4306,1357.4313,1358.9303,0,38,38,38,1,0.6,0.4,0.2,0.8,,,,,,,,,,,,,,,0.6158,,0.6,0.4,0.6,0.4,0.2,0.8,0.4,0.6,,,1.5023,,0.2,0.8,0.2,0.8,0.8,0.2,0.2,0.8,1,0
,,64e7533f36d388e8b31d3309,66fc97fdff9cd954959acd5b,2024-10-02_02h47.51.871,mdp,2024.2.1,Win32,60.24096386,66fa4ebf79326e780c390304,,,,,,,,,,,,,,,,,,,,,1358.9307,1358.9307,1358.9311,1365.9305,1,1,right,6.4667,,1365.9381,1374.9639,1,0,right,1374.9718,1376.1309,1,1,right,0,1376.1309,1376.1309,1376.1321,1377.6305,0,39,39,39,1,0.6,0.4,0.2,0.8,,,,,,,,,,,,,,,8.4999,,0.6,0.4,0.6,0.4,0.2,0.8,0.4,0.6,,,0.6388,,0.2,0.8,0.2,0.8,0.8,0.2,0.2,0.8,1,0
,,64e7533f36d388e8b31d3309,66fc97fdff9cd954959acd5b,2024-10-02_02h47.51.871,mdp,2024.2.1,Win32,60.24096386,66fa4ebf79326e780c390304,,,,,,,,,,,,,,,,,,,,,1377.6309,1377.6309,1377.6316,1378.2639,1,1,right,0.1021,,1378.2645,1379.6805,1,1,right,1379.6811,1380.7969,1,0,right,1,1380.7969,1380.7969,1380.7974,1382.297,0,40,40,40,1,0.6,0.4,0.2,0.8,,,,,,,,,,,,,,,0.8861,,0.6,0.4,0.6,0.4,0.2,0.8,0.4,0.6,,,0.5862,,0.2,0.8,0.2,0.8,0.8,0.2,0.2,0.8,1,0
,,64e7533f36d388e8b31d3309,66fc97fdff9cd954959acd5b,2024-10-02_02h47.51.871,mdp,2024.2.1,Win32,60.24096386,66fa4ebf79326e780c390304,,,,,,,,,,,,,,,,,,,,,1382.2974,1382.2974,1382.2979,1383.097,1,1,right,0.2751,,1383.0978,1384.1471,1,1,right,1384.1477,1387.1972,1,1,right,0,1387.1972,1387.1972,1387.2046,1388.6972,0,41,41,41,1,0.6,0.4,0.2,0.8,,,,,,,,,,,,,,,0.5351,,0.6,0.4,0.6,0.4,0.2,0.8,0.4,0.6,,,2.5174,,0.2,0.8,0.2,0.8,0.8,0.2,0.2,0.8,1,0
,,64e7533f36d388e8b31d3309,66fc97fdff9cd954959acd5b,2024-10-02_02h47.51.871,mdp,2024.2.1,Win32,60.24096386,66fa4ebf79326e780c390304,,,,,,,,,,,,,,,,,,,,,1388.6975,1388.6975,1388.6981,1390.8138,1,1,right,1.5888,,1390.8144,1391.7472,1,0,right,1391.7478,1392.7305,1,1,right,0,1392.7305,1392.7305,1392.7312,1394.2305,0,42,42,42,1,0.6,0.4,0.2,0.8,,,,,,,,,,,,,,,0.4068,,0.6,0.4,0.6,0.4,0.2,0.8,0.4,0.6,,,0.4557,,0.2,0.8,0.2,0.8,0.8,0.2,0.2,0.8,1,0
,,64e7533f36d388e8b31d3309,66fc97fdff9cd954959acd5b,2024-10-02_02h47.51.871,mdp,2024.2.1,Win32,60.24096386,66fa4ebf79326e780c390304,,,,,,,,,,,,,,,,,,,,,1394.2309,1394.2309,1394.2314,1399.0805,1,0,right,4.3262,,1399.088,1400.0972,1,1,right,1400.0979,1401.2305,1,0,right,1,1401.2305,1401.2305,1401.2312,1402.7304,0,43,43,43,1,0.6,0.4,0.2,0.8,,,,,,,,,,,,,,,0.4903,,0.6,0.4,0.6,0.4,0.2,0.8,0.4,0.6,,,0.6021,,0.2,0.8,0.2,0.8,0.8,0.2,0.2,0.8,1,0
,,64e7533f36d388e8b31d3309,66fc97fdff9cd954959acd5b,2024-10-02_02h47.51.871,mdp,2024.2.1,Win32,60.24096386,66fa4ebf79326e780c390304,,,,,,,,,,,,,,,,,,,,,1402.7307,1402.7307,1402.7314,1403.4807,1,1,right,0.2189,,1403.4813,1404.5138,1,1,right,1404.5144,1405.5305,1,0,right,1,1405.5306,1405.5306,1405.5312,1407.0305,0,44,44,44,1,0.6,0.4,0.2,0.8,,,,,,,,,,,,,,,0.4992,,0.6,0.4,0.6,0.4,0.2,0.8,0.4,0.6,,,0.4843,,0.4,0.6,0.8,0.2,0.8,0.2,0.2,0.8,1,0
,,64e7533f36d388e8b31d3309,66fc97fdff9cd954959acd5b,2024-10-02_02h47.51.871,mdp,2024.2.1,Win32,60.24096386,66fa4ebf79326e780c390304,,,,,,,,,,,,,,,,,,,,,1407.0308,1407.0308,1407.0315,1408.6305,1,0,right,1.07,,1408.6311,1409.5472,1,1,right,1409.5478,1410.4304,1,1,right,0,1410.4306,1410.4306,1410.4312,1411.9305,0,45,45,45,1,0.6,0.4,0.2,0.8,,,,,,,,,,,,,,,0.3887,,0.6,0.4,0.6,0.4,0.2,0.8,0.4,0.6,,,0.3547,,0.4,0.6,0.8,0.2,0.8,0.2,0.2,0.8,1,0
,,64e7533f36d388e8b31d3309,66fc97fdff9cd954959acd5b,2024-10-02_02h47.51.871,mdp,2024.2.1,Win32,60.24096386,66fa4ebf79326e780c390304,,,,,,,,,,,,,,,,,,,,,1411.9307,1411.9307,1411.9314,1417.7472,1,1,right,5.2827,,1417.7546,1425.5639,1,1,right,1425.5719,1438.0638,1,0,right,1,1438.0638,1438.0638,1438.069,1439.5638,0,46,46,46,1,0.6,0.4,0.2,0.8,,,,,,,,,,,,,,,7.2809,,0.6,0.4,0.6,0.4,0.2,0.8,0.4,0.6,,,11.9779,,0.4,0.6,0.8,0.2,0.4,0.6,0.6,0.4,1,0
,,64e7533f36d388e8b31d3309,66fc97fdff9cd954959acd5b,2024-10-02_02h47.51.871,mdp,2024.2.1,Win32,60.24096386,66fa4ebf79326e780c390304,,,,,,,,,,,,,,,,,,,,,1439.5641,1439.5642,1439.5649,1442.8138,1,0,right,2.7215,,1442.8189,1445.464,1,0,right,1445.4646,1446.9805,1,0,right,1,1446.9806,1446.9806,1446.9812,1448.4805,0,47,47,47,1,0.6,0.4,0.2,0.8,,,,,,,,,,,,,,,2.134,,0.6,0.4,0.6,0.4,0.2,0.8,0.4,0.6,,,0.9803,,0.4,0.6,0.8,0.2,0.4,0.6,0.6,0.4,1,0
,,64e7533f36d388e8b31d3309,66fc97fdff9cd954959acd5b,2024-10-02_02h47.51.871,mdp,2024.2.1,Win32,60.24096386,66fa4ebf79326e780c390304,,,,,,,,,,,,,,,,,,,,,1448.4809,1448.4809,1448.4814,1450.0804,1,1,right,1.0677,,1450.0808,1454.5805,1,1,right,1454.5881,1455.9305,1,1,right,0,1455.9306,1455.9306,1455.9313,1457.4306,0,48,48,48,1,0.6,0.4,0.2,0.8,,,,,,,,,,,,,,,3.9706,,0.6,0.4,0.6,0.4,0.4,0.6,0.8,0.2,,,0.8151,,0.4,0.6,0.8,0.2,0.4,0.6,0.6,0.4,1,0
,,64e7533f36d388e8b31d3309,66fc97fdff9cd954959acd5b,2024-10-02_02h47.51.871,mdp,2024.2.1,Win32,60.24096386,66fa4ebf79326e780c390304,,,,,,,,,,,,,,,,,,,,,1457.4308,1457.4308,1457.4318,1458.4304,1,1,right,0.467,,1458.4311,1461.5305,1,1,right,1461.5309,1463.9139,1,1,right,0,1463.914,1463.914,1463.9146,1465.4139,0,49,49,49,1,0.6,0.4,0.2,0.8,,,,,,,,,,,,,,,2.584,,0.6,0.4,0.6,0.4,0.4,0.6,0.8,0.2,,,1.8583,,0.4,0.6,0.8,0.2,0.4,0.6,0.6,0.4,1,0
,,64e7533f36d388e8b31d3309,66fc97fdff9cd954959acd5b,2024-10-02_02h47.51.871,mdp,2024.2.1,Win32,60.24096386,66fa4ebf79326e780c390304,,,,,,,,,,,,,,,,,,,,,,,,,,,,,,,,,,,,,,,,,,,,,,,,,,,,,,,,1465.4139,1523.9306,0,3,3,4,1,imgs/kangaroo.png,imgs/giraffe.png,imgs/cat.png,imgs/goat.png,imgs/pig.png,,,,,,,,,,,,,,,,,,,,,,,,
,,64e7533f36d388e8b31d3309,66fc97fdff9cd954959acd5b,2024-10-02_02h47.51.871,mdp,2024.2.1,Win32,60.24096386,66fa4ebf79326e780c390304,,,,,,,,,,,,,,1,seqs/st1seq42.csv,1523.9377,1545.6305,space,21.1713,,1545.6392,1545.6392,1545.6397,1548.3138,0,1,left,2.147,,1548.3145,1548.3154,1,1,,1548.3157,1548.3161,1,1,,0,1548.3161,1548.3161,1548.3165,1549.8138,0,0,0,0,1,0.2,0.8,0.6,0.4,1,0,,,,,,,,,,,,,,,,,,,,,,,,,,,,,,,,,,,,
,,64e7533f36d388e8b31d3309,66fc97fdff9cd954959acd5b,2024-10-02_02h47.51.871,mdp,2024.2.1,Win32,60.24096386,66fa4ebf79326e780c390304,,,,,,,,,,,,,,,,,,,,,1549.814,1549.8141,1549.8144,1551.0639,1,1,right,0.719,,1551.0645,1551.065,1,1,,1551.0654,1551.0659,1,1,,0,1551.0659,1551.0659,1551.0663,1552.5639,0,1,1,1,1,0.8,0.2,0.4,0.6,1,0,,,,,,,,,,,,,,,,,,,,,,,,,,,,,,,,,,,,
,,64e7533f36d388e8b31d3309,66fc97fdff9cd954959acd5b,2024-10-02_02h47.51.871,mdp,2024.2.1,Win32,60.24096386,66fa4ebf79326e780c390304,,,,,,,,,,,,,,,,,,,,,1552.5642,1552.5642,1552.5647,1553.8138,1,0,right,0.7218,,1553.8142,1553.8146,1,0,,1553.815,1553.8151,1,0,,1,1553.8151,1553.8151,1553.8153,1555.3137,0,2,2,2,1,0.8,0.2,0.4,0.6,1,0,,,,,,,,,,,,,,,,,,,,,,,,,,,,,,,,,,,,
,,64e7533f36d388e8b31d3309,66fc97fdff9cd954959acd5b,2024-10-02_02h47.51.871,mdp,2024.2.1,Win32,60.24096386,66fa4ebf79326e780c390304,,,,,,,,,,,,,,,,,,,,,1555.314,1555.314,1555.3146,1556.6638,1,1,right,0.8185,,1556.6643,1556.6646,1,0,,1556.6649,1556.665,1,1,,0,1556.665,1556.665,1556.6651,1558.1638,0,3,3,3,1,0.8,0.2,0.4,0.6,1,0,,,,,,,,,,,,,,,,,,,,,,,,,,,,,,,,,,,,
,,64e7533f36d388e8b31d3309,66fc97fdff9cd954959acd5b,2024-10-02_02h47.51.871,mdp,2024.2.1,Win32,60.24096386,66fa4ebf79326e780c390304,,,,,,,,,,,,,,,,,,,,,1558.164,1558.164,1558.1647,1559.8307,1,1,right,1.1455,,1559.8313,1559.8319,1,1,,1559.8321,1559.8322,1,1,,0,1559.8322,1559.8322,1559.8323,1561.3306,0,4,4,4,1,0.8,0.2,0.4,0.6,1,0,,,,,,,,,,,,,,,,,,,,,,,,,,,,,,,,,,,,
,,64e7533f36d388e8b31d3309,66fc97fdff9cd954959acd5b,2024-10-02_02h47.51.871,mdp,2024.2.1,Win32,60.24096386,66fa4ebf79326e780c390304,,,,,,,,,,,,,,,,,,,,,1561.3308,1561.3308,1561.3314,1562.1971,0,1,left,0.3351,,1562.1978,1562.1987,1,1,,1562.1991,1562.1995,1,1,,0,1562.1995,1562.1995,1562.1997,1563.6973,0,5,5,5,1,0.2,0.8,0.6,0.4,1,0,,,,,,,,,,,,,,,,,,,,,,,,,,,,,,,,,,,,
,,64e7533f36d388e8b31d3309,66fc97fdff9cd954959acd5b,2024-10-02_02h47.51.871,mdp,2024.2.1,Win32,60.24096386,66fa4ebf79326e780c390304,,,,,,,,,,,,,,,,,,,,,1563.6974,1563.6974,1563.6981,1564.6472,0,1,left,0.4275,,1564.6479,1564.6488,1,1,,1564.6492,1564.6495,1,0,,0,1564.6495,1564.6495,1564.6498,1566.1472,0,6,6,6,1,0.2,0.8,0.6,0.4,1,0,,,,,,,,,,,,,,,,,,,,,,,,,,,,,,,,,,,,
,,64e7533f36d388e8b31d3309,66fc97fdff9cd954959acd5b,2024-10-02_02h47.51.871,mdp,2024.2.1,Win32,60.24096386,66fa4ebf79326e780c390304,,,,,,,,,,,,,,,,,,,,,1566.1474,1566.1474,1566.1481,1567.0138,0,1,left,0.3344,,1567.0147,1567.0154,1,1,,1567.0158,1567.0161,1,1,,0,1567.0161,1567.0161,1567.0165,1568.5139,0,7,7,7,1,0.2,0.8,0.6,0.4,1,0,,,,,,,,,,,,,,,,,,,,,,,,,,,,,,,,,,,,
,,64e7533f36d388e8b31d3309,66fc97fdff9cd954959acd5b,2024-10-02_02h47.51.871,mdp,2024.2.1,Win32,60.24096386,66fa4ebf79326e780c390304,,,,,,,,,,,,,,,,,,,,,1568.5141,1568.5141,1568.5148,1569.1641,0,0,left,0.1231,,1569.1646,1569.1649,1,1,,1569.165,1569.1652,1,1,,1,1569.1652,1569.1652,1569.1653,1570.6637,0,8,8,8,1,0.2,0.8,0.6,0.4,1,0,,,,,,,,,,,,,,,,,,,,,,,,,,,,,,,,,,,,
,,64e7533f36d388e8b31d3309,66fc97fdff9cd954959acd5b,2024-10-02_02h47.51.871,mdp,2024.2.1,Win32,60.24096386,66fa4ebf79326e780c390304,,,,,,,,,,,,,,,,,,,,,1570.664,1570.664,1570.6649,1571.5139,0,1,left,0.3254,,1571.5147,1571.5155,1,1,,1571.5159,1571.5163,1,1,,0,1571.5163,1571.5163,1571.5166,1573.0137,0,9,9,9,1,0.2,0.8,0.6,0.4,1,0,,,,,,,,,,,,,,,,,,,,,,,,,,,,,,,,,,,,
,,64e7533f36d388e8b31d3309,66fc97fdff9cd954959acd5b,2024-10-02_02h47.51.871,mdp,2024.2.1,Win32,60.24096386,66fa4ebf79326e780c390304,,,,,,,,,,,,,,,,,,,,,1573.014,1573.014,1573.0148,1573.8805,1,0,right,0.3438,,1573.8812,1573.8818,1,0,,1573.8823,1573.8826,1,0,,1,1573.8826,1573.8826,1573.883,1575.3804,0,10,10,10,1,0.2,0.8,0.6,0.4,1,0,,,,,,,,,,,,,,,,,,,,,,,,,,,,,,,,,,,,
,,64e7533f36d388e8b31d3309,66fc97fdff9cd954959acd5b,2024-10-02_02h47.51.871,mdp,2024.2.1,Win32,60.24096386,66fa4ebf79326e780c390304,,,,,,,,,,,,,,,,,,,,,1575.3807,1575.3807,1575.3812,1576.5806,0,0,left,0.6729,,1576.5812,1576.5817,1,1,,1576.5821,1576.5825,1,0,,1,1576.5826,1576.5826,1576.5829,1578.0804,0,11,11,11,1,0.2,0.8,0.6,0.4,1,0,,,,,,,,,,,,,,,,,,,,,,,,,,,,,,,,,,,,
,,64e7533f36d388e8b31d3309,66fc97fdff9cd954959acd5b,2024-10-02_02h47.51.871,mdp,2024.2.1,Win32,60.24096386,66fa4ebf79326e780c390304,,,,,,,,,,,,,,,,,,,,,1578.0807,1578.0807,1578.0813,1578.9471,1,0,right,0.3352,,1578.9479,1578.9487,1,0,,1578.9491,1578.9495,1,0,,1,1578.9495,1578.9495,1578.9499,1580.447,0,12,12,12,1,0.6,0.4,0.8,0.2,1,0,,,,,,,,,,,,,,,,,,,,,,,,,,,,,,,,,,,,
,,64e7533f36d388e8b31d3309,66fc97fdff9cd954959acd5b,2024-10-02_02h47.51.871,mdp,2024.2.1,Win32,60.24096386,66fa4ebf79326e780c390304,,,,,,,,,,,,,,,,,,,,,1580.4473,1580.4473,1580.4478,1581.314,0,0,left,0.3347,,1581.3146,1581.3151,1,1,,1581.3155,1581.316,1,0,,1,1581.3161,1581.3161,1581.3164,1582.8139,0,13,13,13,1,0.6,0.4,0.8,0.2,1,0,,,,,,,,,,,,,,,,,,,,,,,,,,,,,,,,,,,,
,,64e7533f36d388e8b31d3309,66fc97fdff9cd954959acd5b,2024-10-02_02h47.51.871,mdp,2024.2.1,Win32,60.24096386,66fa4ebf79326e780c390304,,,,,,,,,,,,,,,,,,,,,1582.8141,1582.8141,1582.8147,1583.7306,1,0,right,0.3916,,1583.7311,1583.7317,1,0,,1583.7321,1583.7325,1,0,,1,1583.7326,1583.7326,1583.7329,1585.2306,0,14,14,14,1,0.6,0.4,0.8,0.2,1,0,,,,,,,,,,,,,,,,,,,,,,,,,,,,,,,,,,,,
,,64e7533f36d388e8b31d3309,66fc97fdff9cd954959acd5b,2024-10-02_02h47.51.871,mdp,2024.2.1,Win32,60.24096386,66fa4ebf79326e780c390304,,,,,,,,,,,,,,,,,,,,,1585.2309,1585.2309,1585.2314,1586.3973,0,0,left,0.6392,,1586.3979,1586.3988,1,0,,1586.3992,1586.3995,1,1,,1,1586.3996,1586.3996,1586.4,1587.8972,0,15,15,15,1,0.8,0.2,0.6,0.4,1,0,,,,,,,,,,,,,,,,,,,,,,,,,,,,,,,,,,,,
,,64e7533f36d388e8b31d3309,66fc97fdff9cd954959acd5b,2024-10-02_02h47.51.871,mdp,2024.2.1,Win32,60.24096386,66fa4ebf79326e780c390304,,,,,,,,,,,,,,,,,,,,,1587.8975,1587.8975,1587.898,1588.7639,1,0,right,0.3326,,1588.7645,1588.765,1,1,,1588.7654,1588.7659,1,1,,1,1588.7659,1588.766,1588.7663,1590.2638,0,16,16,16,1,0.8,0.2,0.6,0.4,1,0,,,,,,,,,,,,,,,,,,,,,,,,,,,,,,,,,,,,
,,64e7533f36d388e8b31d3309,66fc97fdff9cd954959acd5b,2024-10-02_02h47.51.871,mdp,2024.2.1,Win32,60.24096386,66fa4ebf79326e780c390304,,,,,,,,,,,,,,,,,,,,,1590.2641,1590.2641,1590.265,1591.1972,0,0,left,0.4002,,1591.1976,1591.1979,1,0,,1591.1981,1591.1982,1,1,,1,1591.1983,1591.1983,1591.1984,1592.6971,0,17,17,17,1,0.8,0.2,0.6,0.4,1,0,,,,,,,,,,,,,,,,,,,,,,,,,,,,,,,,,,,,
,,64e7533f36d388e8b31d3309,66fc97fdff9cd954959acd5b,2024-10-02_02h47.51.871,mdp,2024.2.1,Win32,60.24096386,66fa4ebf79326e780c390304,,,,,,,,,,,,,,,,,,,,,1592.6973,1592.6973,1592.6982,1593.314,1,0,right,0.0834,,1593.3146,1593.3152,1,0,,1593.3155,1593.316,1,1,,1,1593.316,1593.316,1593.3163,1594.8138,0,18,18,18,1,0.8,0.2,0.6,0.4,1,0,,,,,,,,,,,,,,,,,,,,,,,,,,,,,,,,,,,,
,,64e7533f36d388e8b31d3309,66fc97fdff9cd954959acd5b,2024-10-02_02h47.51.871,mdp,2024.2.1,Win32,60.24096386,66fa4ebf79326e780c390304,,,,,,,,,,,,,,,,,,,,,1594.814,1594.814,1594.8146,1595.5306,0,0,left,0.1839,,1595.5312,1595.5317,1,1,,1595.5321,1595.5326,1,0,,1,1595.5326,1595.5326,1595.533,1597.0306,0,19,19,19,1,0.8,0.2,0.6,0.4,1,0,,,,,,,,,,,,,,,,,,,,,,,,,,,,,,,,,,,,
,,64e7533f36d388e8b31d3309,66fc97fdff9cd954959acd5b,2024-10-02_02h47.51.871,mdp,2024.2.1,Win32,60.24096386,66fa4ebf79326e780c390304,,,,,,,,,,,,,,,,,,,,,1597.0308,1597.0308,1597.0314,1597.9974,1,0,right,0.4328,,1597.998,1597.9984,1,0,,1597.9989,1597.9994,1,1,,1,1597.9995,1597.9995,1597.9998,1599.4972,0,20,20,20,1,0.6,0.4,0.4,0.6,1,0,,,,,,,,,,,,,,,,,,,,,,,,,,,,,,,,,,,,
,,64e7533f36d388e8b31d3309,66fc97fdff9cd954959acd5b,2024-10-02_02h47.51.871,mdp,2024.2.1,Win32,60.24096386,66fa4ebf79326e780c390304,,,,,,,,,,,,,,,,,,,,,1599.4976,1599.4976,1599.4986,1600.5306,0,0,left,0.5005,,1600.5313,1600.5318,1,0,,1600.5322,1600.5324,1,1,,1,1600.5325,1600.5325,1600.5329,1602.0305,0,21,21,21,1,0.6,0.4,0.4,0.6,1,0,,,,,,,,,,,,,,,,,,,,,,,,,,,,,,,,,,,,
,,64e7533f36d388e8b31d3309,66fc97fdff9cd954959acd5b,2024-10-02_02h47.51.871,mdp,2024.2.1,Win32,60.24096386,66fa4ebf79326e780c390304,,,,,,,,,,,,,,,,,,,,,1602.0307,1602.0307,1602.0316,1602.9305,1,0,right,0.3675,,1602.9312,1602.9319,1,0,,1602.9324,1602.9327,1,0,,1,1602.9327,1602.9327,1602.9331,1604.4306,0,22,22,22,1,0.6,0.4,0.4,0.6,1,0,,,,,,,,,,,,,,,,,,,,,,,,,,,,,,,,,,,,
,,64e7533f36d388e8b31d3309,66fc97fdff9cd954959acd5b,2024-10-02_02h47.51.871,mdp,2024.2.1,Win32,60.24096386,66fa4ebf79326e780c390304,,,,,,,,,,,,,,,,,,,,,1604.4308,1604.4309,1604.4314,1605.3806,0,0,left,0.4167,,1605.3812,1605.3817,1,0,,1605.382,1605.3823,1,0,,1,1605.3824,1605.3824,1605.3829,1606.8806,0,23,23,23,1,0.6,0.4,0.4,0.6,1,0,,,,,,,,,,,,,,,,,,,,,,,,,,,,,,,,,,,,
,,64e7533f36d388e8b31d3309,66fc97fdff9cd954959acd5b,2024-10-02_02h47.51.871,mdp,2024.2.1,Win32,60.24096386,66fa4ebf79326e780c390304,,,,,,,,,,,,,,,,,,,,,1606.8807,1606.8807,1606.881,1607.7972,1,0,right,0.3837,,1607.7978,1607.7983,1,0,,1607.7987,1607.7992,1,0,,1,1607.7993,1607.7993,1607.7995,1609.2973,0,24,24,24,1,0.2,0.8,0.6,0.4,1,0,,,,,,,,,,,,,,,,,,,,,,,,,,,,,,,,,,,,
,,64e7533f36d388e8b31d3309,66fc97fdff9cd954959acd5b,2024-10-02_02h47.51.871,mdp,2024.2.1,Win32,60.24096386,66fa4ebf79326e780c390304,,,,,,,,,,,,,,,,,,,,,1609.2976,1609.2976,1609.2981,1610.4471,0,0,left,0.6285,,1610.4477,1610.4482,1,1,,1610.4485,1610.449,1,1,,1,1610.449,1610.449,1610.4494,1611.9472,0,25,25,25,1,0.2,0.8,0.6,0.4,1,0,,,,,,,,,,,,,,,,,,,,,,,,,,,,,,,,,,,,
,,64e7533f36d388e8b31d3309,66fc97fdff9cd954959acd5b,2024-10-02_02h47.51.871,mdp,2024.2.1,Win32,60.24096386,66fa4ebf79326e780c390304,,,,,,,,,,,,,,,,,,,,,1611.9475,1611.9475,1611.9481,1612.7472,1,0,right,0.2675,,1612.7478,1612.7486,1,0,,1612.7491,1612.7494,1,0,,1,1612.7494,1612.7494,1612.7498,1614.2472,0,26,26,26,1,0.2,0.8,0.6,0.4,1,0,,,,,,,,,,,,,,,,,,,,,,,,,,,,,,,,,,,,
,,64e7533f36d388e8b31d3309,66fc97fdff9cd954959acd5b,2024-10-02_02h47.51.871,mdp,2024.2.1,Win32,60.24096386,66fa4ebf79326e780c390304,,,,,,,,,,,,,,,,,,,,,1614.2475,1614.2475,1614.248,1615.4305,0,0,left,0.6507,,1615.4312,1615.4317,1,1,,1615.432,1615.4325,1,1,,1,1615.4326,1615.4326,1615.433,1616.9305,0,27,27,27,1,0.2,0.8,0.6,0.4,1,0,,,,,,,,,,,,,,,,,,,,,,,,,,,,,,,,,,,,
,,64e7533f36d388e8b31d3309,66fc97fdff9cd954959acd5b,2024-10-02_02h47.51.871,mdp,2024.2.1,Win32,60.24096386,66fa4ebf79326e780c390304,,,,,,,,,,,,,,,,,,,,,1616.9308,1616.9308,1616.9314,1618.1137,1,0,right,0.6586,,1618.1143,1618.1146,1,0,,1618.1149,1618.115,1,1,,1,1618.115,1618.115,1618.1152,1619.614,0,28,28,28,1,0.2,0.8,0.6,0.4,1,0,,,,,,,,,,,,,,,,,,,,,,,,,,,,,,,,,,,,
,,64e7533f36d388e8b31d3309,66fc97fdff9cd954959acd5b,2024-10-02_02h47.51.871,mdp,2024.2.1,Win32,60.24096386,66fa4ebf79326e780c390304,,,,,,,,,,,,,,,,,,,,,1619.6142,1619.6142,1619.615,1620.614,0,1,left,0.4671,,1620.6148,1620.6156,1,0,,1620.616,1620.6164,1,1,,0,1620.6164,1620.6164,1620.6167,1622.1139,0,29,29,29,1,0.2,0.8,0.6,0.4,1,0,,,,,,,,,,,,,,,,,,,,,,,,,,,,,,,,,,,,
,,64e7533f36d388e8b31d3309,66fc97fdff9cd954959acd5b,2024-10-02_02h47.51.871,mdp,2024.2.1,Win32,60.24096386,66fa4ebf79326e780c390304,,,,,,,,,,,,,,,,,,,,,1622.1141,1622.1142,1622.1153,1623.8139,0,0,left,1.1672,,1623.8144,1623.8147,1,1,,1623.8151,1623.8153,1,1,,1,1623.8153,1623.8153,1623.8155,1625.3138,0,30,30,30,1,0.6,0.4,0.4,0.6,1,0,,,,,,,,,,,,,,,,,,,,,,,,,,,,,,,,,,,,
,,64e7533f36d388e8b31d3309,66fc97fdff9cd954959acd5b,2024-10-02_02h47.51.871,mdp,2024.2.1,Win32,60.24096386,66fa4ebf79326e780c390304,,,,,,,,,,,,,,,,,,,,,1625.3141,1625.3141,1625.3146,1626.2472,1,1,right,0.4003,,1626.2479,1626.2484,1,1,,1626.2487,1626.2492,1,0,,0,1626.2493,1626.2493,1626.2496,1627.7474,0,31,31,31,1,0.6,0.4,0.4,0.6,1,0,,,,,,,,,,,,,,,,,,,,,,,,,,,,,,,,,,,,
,,64e7533f36d388e8b31d3309,66fc97fdff9cd954959acd5b,2024-10-02_02h47.51.871,mdp,2024.2.1,Win32,60.24096386,66fa4ebf79326e780c390304,,,,,,,,,,,,,,,,,,,,,1627.7476,1627.7476,1627.7482,1628.7305,1,0,right,0.4582,,1628.7312,1628.7317,1,1,,1628.7324,1628.7328,1,1,,1,1628.7328,1628.7328,1628.7331,1630.2307,0,32,32,32,1,0.6,0.4,0.4,0.6,1,0,,,,,,,,,,,,,,,,,,,,,,,,,,,,,,,,,,,,
,,64e7533f36d388e8b31d3309,66fc97fdff9cd954959acd5b,2024-10-02_02h47.51.871,mdp,2024.2.1,Win32,60.24096386,66fa4ebf79326e780c390304,,,,,,,,,,,,,,,,,,,,,1630.231,1630.231,1630.2317,1631.2807,1,0,right,0.5263,,1631.2814,1631.2822,1,1,,1631.2827,1631.283,1,1,,1,1631.2831,1631.2831,1631.2834,1632.7806,0,33,33,33,1,0.6,0.4,0.4,0.6,1,0,,,,,,,,,,,,,,,,,,,,,,,,,,,,,,,,,,,,
,,64e7533f36d388e8b31d3309,66fc97fdff9cd954959acd5b,2024-10-02_02h47.51.871,mdp,2024.2.1,Win32,60.24096386,66fa4ebf79326e780c390304,,,,,,,,,,,,,,,,,,,,,1632.7808,1632.7808,1632.7812,1634.2139,1,0,right,0.9006,,1634.2144,1634.2147,1,0,,1634.2149,1634.2151,1,0,,1,1634.2151,1634.2151,1634.2152,1635.714,0,34,34,34,1,0.6,0.4,0.4,0.6,1,0,,,,,,,,,,,,,,,,,,,,,,,,,,,,,,,,,,,,
,,64e7533f36d388e8b31d3309,66fc97fdff9cd954959acd5b,2024-10-02_02h47.51.871,mdp,2024.2.1,Win32,60.24096386,66fa4ebf79326e780c390304,,,,,,,,,,,,,,,,,,,,,1635.7142,1635.7142,1635.7147,1636.8971,1,1,right,0.6515,,1636.8978,1636.8986,1,0,,1636.8989,1636.8991,1,1,,0,1636.8991,1636.8991,1636.8993,1638.3972,0,35,35,35,1,0.6,0.4,0.4,0.6,1,0,,,,,,,,,,,,,,,,,,,,,,,,,,,,,,,,,,,,
,,64e7533f36d388e8b31d3309,66fc97fdff9cd954959acd5b,2024-10-02_02h47.51.871,mdp,2024.2.1,Win32,60.24096386,66fa4ebf79326e780c390304,,,,,,,,,,,,,,,,,,,,,1638.3974,1638.3974,1638.3982,1640.0805,1,0,right,1.1599,,1640.081,1640.0815,1,1,,1640.082,1640.0821,1,1,,1,1640.0821,1640.0821,1640.0822,1641.5806,0,36,36,36,1,0.6,0.4,0.4,0.6,1,0,,,,,,,,,,,,,,,,,,,,,,,,,,,,,,,,,,,,
,,64e7533f36d388e8b31d3309,66fc97fdff9cd954959acd5b,2024-10-02_02h47.51.871,mdp,2024.2.1,Win32,60.24096386,66fa4ebf79326e780c390304,,,,,,,,,,,,,,,,,,,,,1641.5808,1641.5808,1641.5815,1642.6639,1,1,right,0.5529,,1642.6645,1642.6651,1,0,,1642.6655,1642.666,1,0,,0,1642.666,1642.666,1642.6664,1644.1639,0,37,37,37,1,0.6,0.4,0.4,0.6,1,0,,,,,,,,,,,,,,,,,,,,,,,,,,,,,,,,,,,,
,,64e7533f36d388e8b31d3309,66fc97fdff9cd954959acd5b,2024-10-02_02h47.51.871,mdp,2024.2.1,Win32,60.24096386,66fa4ebf79326e780c390304,,,,,,,,,,,,,,,,,,,,,1644.1641,1644.1641,1644.1646,1645.814,0,1,left,1.1173,,1645.8146,1645.8152,1,1,,1645.8156,1645.8161,1,1,,0,1645.8161,1645.8161,1645.8164,1647.314,0,38,38,38,1,0.6,0.4,0.4,0.6,1,0,,,,,,,,,,,,,,,,,,,,,,,,,,,,,,,,,,,,
,,64e7533f36d388e8b31d3309,66fc97fdff9cd954959acd5b,2024-10-02_02h47.51.871,mdp,2024.2.1,Win32,60.24096386,66fa4ebf79326e780c390304,,,,,,,,,,,,,,,,,,,,,1647.3142,1647.3142,1647.3148,1648.2308,0,0,left,0.3949,,1648.2315,1648.232,1,1,,1648.2323,1648.2328,1,0,,1,1648.2328,1648.2328,1648.2332,1649.7304,0,39,39,39,1,0.6,0.4,0.4,0.6,1,0,,,,,,,,,,,,,,,,,,,,,,,,,,,,,,,,,,,,
,,64e7533f36d388e8b31d3309,66fc97fdff9cd954959acd5b,2024-10-02_02h47.51.871,mdp,2024.2.1,Win32,60.24096386,66fa4ebf79326e780c390304,,,,,,,,,,,,,,,,,,,,,1649.7307,1649.7307,1649.7316,1650.3972,1,0,right,0.1351,,1650.3979,1650.3988,1,0,,1650.3993,1650.3997,1,0,,1,1650.3997,1650.3997,1650.4,1651.8972,0,40,40,40,1,0.4,0.6,0.8,0.2,1,0,,,,,,,,,,,,,,,,,,,,,,,,,,,,,,,,,,,,
