init_exp.started,init_exp.stopped,participant,session,date,expName,psychopyVersion,OS,frameRate,study_id,disp_instruction.started,disp_instruction.stopped,instruction.thisRepN,instruction.thisTrialN,instruction.thisN,instruction.thisIndex,instruction.ran,instimg_path,consent.started,consent.stopped,key_resp_3.keys,key_resp_3.rt,key_resp_3.duration,n_steps,sequence_path,init_block.started,init_block.stopped,key_resp.keys,key_resp.rt,key_resp.duration,init_trials.started,init_trials.stopped,step0.started,step0.stopped,act0,s1,res0.keys,res0.rt,res0.duration,step1.started,step1.stopped,act1,s2,res1.keys,step2.started,step2.stopped,act2,s3,res2.keys,rew,reward_comp.started,reward_comp.stopped,reward_disp.started,reward_disp.stopped,trials.thisRepN,trials.thisTrialN,trials.thisN,trials.thisIndex,trials.ran,s00a0s10,s00a0s11,s00a1s10,s00a1s11,rew10,rew11,break_block.started,break_block.stopped,block.thisRepN,block.thisTrialN,block.thisN,block.thisIndex,block.ran,s00path,s10path,s11path,s20path,s21path,res1.rt,res1.duration,s10a0s20,s10a0s21,s10a1s20,s10a1s21,s11a0s20,s11a0s21,s11a1s20,s11a1s21,rew20,rew21,res2.rt,res2.duration,s20a0s30,s20a0s31,s20a1s30,s20a1s31,s21a0s30,s21a0s31,s21a1s30,s21a1s31,rew30,rew31
0.0004,0.0028,64f03390a3ce93b12a268959,66fc9763e3a790fbd7a552f0,2024-10-01_18h48.35.783,mdp,2024.2.1,Win32,60.24096386,66fa4ebf79326e780c390304,,,,,,,,,,,,,,,,,,,,,,,,,,,,,,,,,,,,,,,,,,,,,,,,,,,,,,,,,,,,,,,,,,,,,,,,,,,,,,,,,,,,,,,,,,,
,,64f03390a3ce93b12a268959,66fc9763e3a790fbd7a552f0,2024-10-01_18h48.35.783,mdp,2024.2.1,Win32,60.24096386,66fa4ebf79326e780c390304,0.0082,226.1273,0,0,0,0,1,rlnn_exp/rlnn_exp.001.png,,,,,,,,,,,,,,,,,,,,,,,,,,,,,,,,,,,,,,,,,,,,,,,,,,,,,,,,,,,,,,,,,,,,,,,,,,,,,,,,,,,
,,64f03390a3ce93b12a268959,66fc9763e3a790fbd7a552f0,2024-10-01_18h48.35.783,mdp,2024.2.1,Win32,60.24096386,66fa4ebf79326e780c390304,226.1297,259.8672,0,1,1,1,1,rlnn_exp/rlnn_exp.002.png,,,,,,,,,,,,,,,,,,,,,,,,,,,,,,,,,,,,,,,,,,,,,,,,,,,,,,,,,,,,,,,,,,,,,,,,,,,,,,,,,,,
,,64f03390a3ce93b12a268959,66fc9763e3a790fbd7a552f0,2024-10-01_18h48.35.783,mdp,2024.2.1,Win32,60.24096386,66fa4ebf79326e780c390304,259.89,282.6452,0,2,2,2,1,rlnn_exp/rlnn_exp.003.png,,,,,,,,,,,,,,,,,,,,,,,,,,,,,,,,,,,,,,,,,,,,,,,,,,,,,,,,,,,,,,,,,,,,,,,,,,,,,,,,,,,
,,64f03390a3ce93b12a268959,66fc9763e3a790fbd7a552f0,2024-10-01_18h48.35.783,mdp,2024.2.1,Win32,60.24096386,66fa4ebf79326e780c390304,282.6605,293.7527,0,3,3,3,1,rlnn_exp/rlnn_exp.004.png,,,,,,,,,,,,,,,,,,,,,,,,,,,,,,,,,,,,,,,,,,,,,,,,,,,,,,,,,,,,,,,,,,,,,,,,,,,,,,,,,,,
,,64f03390a3ce93b12a268959,66fc9763e3a790fbd7a552f0,2024-10-01_18h48.35.783,mdp,2024.2.1,Win32,60.24096386,66fa4ebf79326e780c390304,,,,,,,,,293.7721,324.44,y,20.6292,,,,,,,,,,,,,,,,,,,,,,,,,,,,,,,,,,,,,,,,,,,,,,,,,,,,,,,,,,,,,,,,,,,,,,,,,,,,,,,
,,64f03390a3ce93b12a268959,66fc9763e3a790fbd7a552f0,2024-10-01_18h48.35.783,mdp,2024.2.1,Win32,60.24096386,66fa4ebf79326e780c390304,,,,,,,,,,,,,,1,seqs/st1seq12.csv,324.4755,327.765,space,2.7459,,327.7741,327.7744,327.7758,331.5674,1,0,right,3.2624,,331.5799,331.5824,,0,,331.5836,331.5881,,1,,1,331.5884,331.5886,331.5897,333.0818,0,0,0,0,1,0.8,0.2,0.6,0.4,1,0,,,,,,,,,,,,,,,,,,,,,,,,,,,,,,,,,,,,
,,64f03390a3ce93b12a268959,66fc9763e3a790fbd7a552f0,2024-10-01_18h48.35.783,mdp,2024.2.1,Win32,60.24096386,66fa4ebf79326e780c390304,,,,,,,,,,,,,,,,,,,,,333.0831,333.0832,333.0851,334.9276,0,0,left,1.3109,,334.9304,334.9325,,1,,334.9337,334.9346,,1,,1,334.9346,334.9347,334.9355,336.4191,0,1,1,1,1,0.8,0.2,0.6,0.4,1,0,,,,,,,,,,,,,,,,,,,,,,,,,,,,,,,,,,,,
,,64f03390a3ce93b12a268959,66fc9763e3a790fbd7a552f0,2024-10-01_18h48.35.783,mdp,2024.2.1,Win32,60.24096386,66fa4ebf79326e780c390304,,,,,,,,,,,,,,,,,,,,,336.4197,336.4197,336.4245,337.8965,1,0,right,0.9579,,337.8975,337.8984,,1,,337.8994,337.9006,,0,,1,337.9008,337.9008,337.9032,339.391,0,2,2,2,1,0.8,0.2,0.6,0.4,1,0,,,,,,,,,,,,,,,,,,,,,,,,,,,,,,,,,,,,
,,64f03390a3ce93b12a268959,66fc9763e3a790fbd7a552f0,2024-10-01_18h48.35.783,mdp,2024.2.1,Win32,60.24096386,66fa4ebf79326e780c390304,,,,,,,,,,,,,,,,,,,,,339.3916,339.3916,339.3938,346.5503,1,0,right,6.6131,,346.5662,346.5686,,0,,346.5698,346.5707,,0,,1,346.5708,346.5708,346.5717,348.0702,0,3,3,3,1,0.8,0.2,0.6,0.4,1,0,,,,,,,,,,,,,,,,,,,,,,,,,,,,,,,,,,,,
,,64f03390a3ce93b12a268959,66fc9763e3a790fbd7a552f0,2024-10-01_18h48.35.783,mdp,2024.2.1,Win32,60.24096386,66fa4ebf79326e780c390304,,,,,,,,,,,,,,,,,,,,,348.0706,348.0706,348.0718,350.7607,0,0,left,2.1626,,350.7808,350.782,,0,,350.7834,350.7844,,1,,1,350.7845,350.7845,350.7855,352.2854,0,4,4,4,1,0.8,0.2,0.6,0.4,1,0,,,,,,,,,,,,,,,,,,,,,,,,,,,,,,,,,,,,
,,64f03390a3ce93b12a268959,66fc9763e3a790fbd7a552f0,2024-10-01_18h48.35.783,mdp,2024.2.1,Win32,60.24096386,66fa4ebf79326e780c390304,,,,,,,,,,,,,,,,,,,,,352.2862,352.2862,352.2906,353.5198,1,0,right,0.7145,,353.5211,353.5222,,1,,353.523,353.5236,,0,,1,353.5236,353.5236,353.5244,355.0175,0,5,5,5,1,0.8,0.2,0.6,0.4,1,0,,,,,,,,,,,,,,,,,,,,,,,,,,,,,,,,,,,,
,,64f03390a3ce93b12a268959,66fc9763e3a790fbd7a552f0,2024-10-01_18h48.35.783,mdp,2024.2.1,Win32,60.24096386,66fa4ebf79326e780c390304,,,,,,,,,,,,,,,,,,,,,355.0178,355.0179,355.0194,355.9972,1,0,right,0.4548,,356.0002,356.0025,,0,,356.0038,356.0048,,0,,1,356.0048,356.0049,356.0058,357.5054,0,6,6,6,1,0.8,0.2,0.6,0.4,1,0,,,,,,,,,,,,,,,,,,,,,,,,,,,,,,,,,,,,
,,64f03390a3ce93b12a268959,66fc9763e3a790fbd7a552f0,2024-10-01_18h48.35.783,mdp,2024.2.1,Win32,60.24096386,66fa4ebf79326e780c390304,,,,,,,,,,,,,,,,,,,,,357.5064,357.5065,357.5091,358.4382,0,0,left,0.4023,,358.4413,358.4431,,0,,358.4443,358.4452,,0,,1,358.4453,358.4453,358.4461,359.9338,0,7,7,7,1,0.8,0.2,0.6,0.4,1,0,,,,,,,,,,,,,,,,,,,,,,,,,,,,,,,,,,,,
,,64f03390a3ce93b12a268959,66fc9763e3a790fbd7a552f0,2024-10-01_18h48.35.783,mdp,2024.2.1,Win32,60.24096386,66fa4ebf79326e780c390304,,,,,,,,,,,,,,,,,,,,,359.9352,359.9352,359.9375,360.4915,0,0,left,0.0171,,360.4929,360.4944,,0,,360.4958,360.4984,,1,,1,360.4985,360.4986,360.5009,361.9967,0,8,8,8,1,0.8,0.2,0.6,0.4,1,0,,,,,,,,,,,,,,,,,,,,,,,,,,,,,,,,,,,,
,,64f03390a3ce93b12a268959,66fc9763e3a790fbd7a552f0,2024-10-01_18h48.35.783,mdp,2024.2.1,Win32,60.24096386,66fa4ebf79326e780c390304,,,,,,,,,,,,,,,,,,,,,361.9975,361.9975,361.9998,364.0622,0,0,left,1.5371,,364.0648,364.0665,,1,,364.0677,364.0711,,0,,1,364.0713,364.0713,364.0721,365.5705,0,9,9,9,1,0.6,0.4,0.4,0.6,1,0,,,,,,,,,,,,,,,,,,,,,,,,,,,,,,,,,,,,
,,64f03390a3ce93b12a268959,66fc9763e3a790fbd7a552f0,2024-10-01_18h48.35.783,mdp,2024.2.1,Win32,60.24096386,66fa4ebf79326e780c390304,,,,,,,,,,,,,,,,,,,,,365.5716,365.5717,365.5743,371.243,0,1,left,5.1477,,371.2654,371.2668,,0,,371.2677,371.2685,,1,,0,371.2686,371.2686,371.2693,372.7743,0,10,10,10,1,0.6,0.4,0.4,0.6,1,0,,,,,,,,,,,,,,,,,,,,,,,,,,,,,,,,,,,,
,,64f03390a3ce93b12a268959,66fc9763e3a790fbd7a552f0,2024-10-01_18h48.35.783,mdp,2024.2.1,Win32,60.24096386,66fa4ebf79326e780c390304,,,,,,,,,,,,,,,,,,,,,372.7747,372.7747,372.7756,393.7402,1,0,right,20.4384,,393.7592,393.7606,,1,,393.7615,393.7625,,0,,1,393.7626,393.7626,393.7635,395.2717,0,11,11,11,1,0.6,0.4,0.4,0.6,1,0,,,,,,,,,,,,,,,,,,,,,,,,,,,,,,,,,,,,
,,64f03390a3ce93b12a268959,66fc9763e3a790fbd7a552f0,2024-10-01_18h48.35.783,mdp,2024.2.1,Win32,60.24096386,66fa4ebf79326e780c390304,,,,,,,,,,,,,,,,,,,,,395.2722,395.2722,395.2736,397.3173,0,0,left,1.5173,,397.3191,397.32,,0,,397.3207,397.3216,,0,,1,397.3218,397.3218,397.3231,398.8062,0,12,12,12,1,0.6,0.4,0.4,0.6,1,0,,,,,,,,,,,,,,,,,,,,,,,,,,,,,,,,,,,,
,,64f03390a3ce93b12a268959,66fc9763e3a790fbd7a552f0,2024-10-01_18h48.35.783,mdp,2024.2.1,Win32,60.24096386,66fa4ebf79326e780c390304,,,,,,,,,,,,,,,,,,,,,398.8067,398.8068,398.8093,399.9237,0,0,left,0.5946,,399.9265,399.9286,,0,,399.9295,399.9301,,1,,1,399.9301,399.9302,399.9307,401.4243,0,13,13,13,1,0.6,0.4,0.4,0.6,1,0,,,,,,,,,,,,,,,,,,,,,,,,,,,,,,,,,,,,
,,64f03390a3ce93b12a268959,66fc9763e3a790fbd7a552f0,2024-10-01_18h48.35.783,mdp,2024.2.1,Win32,60.24096386,66fa4ebf79326e780c390304,,,,,,,,,,,,,,,,,,,,,401.4252,401.4252,401.4275,402.4979,0,1,left,0.5518,,402.4991,402.5001,,0,,402.5019,402.5029,,0,,0,402.5029,402.5029,402.5039,403.9987,0,14,14,14,1,0.6,0.4,0.4,0.6,1,0,,,,,,,,,,,,,,,,,,,,,,,,,,,,,,,,,,,,
,,64f03390a3ce93b12a268959,66fc9763e3a790fbd7a552f0,2024-10-01_18h48.35.783,mdp,2024.2.1,Win32,60.24096386,66fa4ebf79326e780c390304,,,,,,,,,,,,,,,,,,,,,403.9997,403.9997,404.0017,406.718,0,1,left,2.1822,,406.7199,406.7219,,0,,406.7248,406.7262,,0,,0,406.7263,406.7263,406.7276,408.2305,0,15,15,15,1,0.6,0.4,0.4,0.6,1,0,,,,,,,,,,,,,,,,,,,,,,,,,,,,,,,,,,,,
,,64f03390a3ce93b12a268959,66fc9763e3a790fbd7a552f0,2024-10-01_18h48.35.783,mdp,2024.2.1,Win32,60.24096386,66fa4ebf79326e780c390304,,,,,,,,,,,,,,,,,,,,,408.2309,408.2309,408.232,409.285,1,0,right,0.5212,,409.288,409.2904,,0,,409.2923,409.2933,,0,,1,409.2934,409.2934,409.2947,410.7887,0,16,16,16,1,0.8,0.2,0.8,0.2,1,0,,,,,,,,,,,,,,,,,,,,,,,,,,,,,,,,,,,,
,,64f03390a3ce93b12a268959,66fc9763e3a790fbd7a552f0,2024-10-01_18h48.35.783,mdp,2024.2.1,Win32,60.24096386,66fa4ebf79326e780c390304,,,,,,,,,,,,,,,,,,,,,410.7897,410.7897,410.7918,411.6689,1,0,right,0.3579,,411.6723,411.6738,,0,,411.6748,411.6756,,0,,1,411.6757,411.6757,411.6765,413.1668,0,17,17,17,1,0.8,0.2,0.8,0.2,1,0,,,,,,,,,,,,,,,,,,,,,,,,,,,,,,,,,,,,
,,64f03390a3ce93b12a268959,66fc9763e3a790fbd7a552f0,2024-10-01_18h48.35.783,mdp,2024.2.1,Win32,60.24096386,66fa4ebf79326e780c390304,,,,,,,,,,,,,,,,,,,,,413.1678,413.168,413.1703,414.6602,1,0,right,0.9722,,414.664,414.6653,,0,,414.6662,414.6671,,1,,1,414.6673,414.6673,414.6702,416.1721,0,18,18,18,1,0.8,0.2,0.8,0.2,1,0,,,,,,,,,,,,,,,,,,,,,,,,,,,,,,,,,,,,
,,64f03390a3ce93b12a268959,66fc9763e3a790fbd7a552f0,2024-10-01_18h48.35.783,mdp,2024.2.1,Win32,60.24096386,66fa4ebf79326e780c390304,,,,,,,,,,,,,,,,,,,,,416.173,416.173,416.1749,418.6048,0,1,left,1.9017,,418.6061,418.607,,0,,418.6081,418.6089,,0,,0,418.6089,418.609,418.6097,420.11,0,19,19,19,1,0.8,0.2,0.8,0.2,1,0,,,,,,,,,,,,,,,,,,,,,,,,,,,,,,,,,,,,
,,64f03390a3ce93b12a268959,66fc9763e3a790fbd7a552f0,2024-10-01_18h48.35.783,mdp,2024.2.1,Win32,60.24096386,66fa4ebf79326e780c390304,,,,,,,,,,,,,,,,,,,,,420.1111,420.1112,420.1133,420.6566,1,0,right,0.0006,,420.6583,420.6603,,0,,420.6614,420.6624,,0,,1,420.6625,420.6625,420.6635,422.1562,0,20,20,20,1,0.4,0.6,0.6,0.4,1,0,,,,,,,,,,,,,,,,,,,,,,,,,,,,,,,,,,,,
,,64f03390a3ce93b12a268959,66fc9763e3a790fbd7a552f0,2024-10-01_18h48.35.783,mdp,2024.2.1,Win32,60.24096386,66fa4ebf79326e780c390304,,,,,,,,,,,,,,,,,,,,,422.1572,422.1573,422.1597,423.0563,1,1,right,0.3664,,423.0593,423.061,,0,,423.0626,423.0643,,0,,0,423.0645,423.0645,423.0657,424.5559,0,21,21,21,1,0.4,0.6,0.6,0.4,1,0,,,,,,,,,,,,,,,,,,,,,,,,,,,,,,,,,,,,
,,64f03390a3ce93b12a268959,66fc9763e3a790fbd7a552f0,2024-10-01_18h48.35.783,mdp,2024.2.1,Win32,60.24096386,66fa4ebf79326e780c390304,,,,,,,,,,,,,,,,,,,,,424.5572,424.5572,424.5593,425.5138,0,0,left,0.4202,,425.5156,425.5182,,1,,425.5204,425.5217,,0,,1,425.5218,425.5218,425.523,427.0218,0,22,22,22,1,0.6,0.4,0.4,0.6,1,0,,,,,,,,,,,,,,,,,,,,,,,,,,,,,,,,,,,,
,,64f03390a3ce93b12a268959,66fc9763e3a790fbd7a552f0,2024-10-01_18h48.35.783,mdp,2024.2.1,Win32,60.24096386,66fa4ebf79326e780c390304,,,,,,,,,,,,,,,,,,,,,427.0225,427.0225,427.0243,428.1458,0,0,left,0.5989,,428.1479,428.149,,1,,428.1502,428.151,,0,,1,428.151,428.1511,428.1519,429.647,0,23,23,23,1,0.6,0.4,0.4,0.6,1,0,,,,,,,,,,,,,,,,,,,,,,,,,,,,,,,,,,,,
,,64f03390a3ce93b12a268959,66fc9763e3a790fbd7a552f0,2024-10-01_18h48.35.783,mdp,2024.2.1,Win32,60.24096386,66fa4ebf79326e780c390304,,,,,,,,,,,,,,,,,,,,,429.6473,429.6473,429.6487,430.8328,0,0,left,0.6584,,430.8353,430.8377,,1,,430.8408,430.8428,,1,,1,430.8429,430.8429,430.8441,432.3338,0,24,24,24,1,0.6,0.4,0.4,0.6,1,0,,,,,,,,,,,,,,,,,,,,,,,,,,,,,,,,,,,,
,,64f03390a3ce93b12a268959,66fc9763e3a790fbd7a552f0,2024-10-01_18h48.35.783,mdp,2024.2.1,Win32,60.24096386,66fa4ebf79326e780c390304,,,,,,,,,,,,,,,,,,,,,432.3343,432.3343,432.3362,433.3152,0,0,left,0.4558,,433.3175,433.3183,,0,,433.3191,433.3199,,1,,1,433.3199,433.3199,433.3206,434.8108,0,25,25,25,1,0.6,0.4,0.4,0.6,1,0,,,,,,,,,,,,,,,,,,,,,,,,,,,,,,,,,,,,
,,64f03390a3ce93b12a268959,66fc9763e3a790fbd7a552f0,2024-10-01_18h48.35.783,mdp,2024.2.1,Win32,60.24096386,66fa4ebf79326e780c390304,,,,,,,,,,,,,,,,,,,,,434.8121,434.8121,434.8146,435.6909,0,0,left,0.3476,,435.6941,435.6964,,1,,435.6987,435.6999,,0,,1,435.7,435.7,435.7015,437.189,0,26,26,26,1,0.6,0.4,0.4,0.6,1,0,,,,,,,,,,,,,,,,,,,,,,,,,,,,,,,,,,,,
,,64f03390a3ce93b12a268959,66fc9763e3a790fbd7a552f0,2024-10-01_18h48.35.783,mdp,2024.2.1,Win32,60.24096386,66fa4ebf79326e780c390304,,,,,,,,,,,,,,,,,,,,,437.1898,437.1898,437.1914,437.7563,0,0,left,0.0362,,437.7578,437.7593,,0,,437.7612,437.7624,,1,,1,437.7624,437.7624,437.7632,439.2524,0,27,27,27,1,0.6,0.4,0.4,0.6,1,0,,,,,,,,,,,,,,,,,,,,,,,,,,,,,,,,,,,,
,,64f03390a3ce93b12a268959,66fc9763e3a790fbd7a552f0,2024-10-01_18h48.35.783,mdp,2024.2.1,Win32,60.24096386,66fa4ebf79326e780c390304,,,,,,,,,,,,,,,,,,,,,439.253,439.2531,439.2554,440.2311,0,1,left,0.4366,,440.234,440.2357,,1,,440.2368,440.2377,,1,,0,440.2377,440.2377,440.2392,441.7134,0,28,28,28,1,0.6,0.4,0.4,0.6,1,0,,,,,,,,,,,,,,,,,,,,,,,,,,,,,,,,,,,,
,,64f03390a3ce93b12a268959,66fc9763e3a790fbd7a552f0,2024-10-01_18h48.35.783,mdp,2024.2.1,Win32,60.24096386,66fa4ebf79326e780c390304,,,,,,,,,,,,,,,,,,,,,441.7141,441.7141,441.7161,442.5312,1,1,right,0.3029,,442.5323,442.5333,,0,,442.5345,442.5352,,0,,0,442.5353,442.5353,442.536,444.0397,0,29,29,29,1,0.8,0.2,0.6,0.4,1,0,,,,,,,,,,,,,,,,,,,,,,,,,,,,,,,,,,,,
,,64f03390a3ce93b12a268959,66fc9763e3a790fbd7a552f0,2024-10-01_18h48.35.783,mdp,2024.2.1,Win32,60.24096386,66fa4ebf79326e780c390304,,,,,,,,,,,,,,,,,,,,,444.0409,444.0411,444.0424,444.7789,0,0,left,0.2116,,444.7801,444.7809,,0,,444.7817,444.7822,,0,,1,444.7822,444.7822,444.7829,446.2832,0,30,30,30,1,0.8,0.2,0.6,0.4,1,0,,,,,,,,,,,,,,,,,,,,,,,,,,,,,,,,,,,,
,,64f03390a3ce93b12a268959,66fc9763e3a790fbd7a552f0,2024-10-01_18h48.35.783,mdp,2024.2.1,Win32,60.24096386,66fa4ebf79326e780c390304,,,,,,,,,,,,,,,,,,,,,446.2847,446.2849,446.2871,447.1705,0,1,left,0.3602,,447.1725,447.1734,,0,,447.1745,447.1758,,0,,0,447.1758,447.1758,447.177,448.675,0,31,31,31,1,0.8,0.2,0.6,0.4,1,0,,,,,,,,,,,,,,,,,,,,,,,,,,,,,,,,,,,,
,,64f03390a3ce93b12a268959,66fc9763e3a790fbd7a552f0,2024-10-01_18h48.35.783,mdp,2024.2.1,Win32,60.24096386,66fa4ebf79326e780c390304,,,,,,,,,,,,,,,,,,,,,448.6756,448.6756,448.6768,449.3081,0,0,left,0.1089,,449.3107,449.3133,,0,,449.315,449.3159,,0,,1,449.316,449.316,449.3169,450.8161,0,32,32,32,1,0.8,0.2,0.6,0.4,1,0,,,,,,,,,,,,,,,,,,,,,,,,,,,,,,,,,,,,
,,64f03390a3ce93b12a268959,66fc9763e3a790fbd7a552f0,2024-10-01_18h48.35.783,mdp,2024.2.1,Win32,60.24096386,66fa4ebf79326e780c390304,,,,,,,,,,,,,,,,,,,,,450.8165,450.8166,450.8176,451.6725,0,1,left,0.3373,,451.6739,451.6747,,0,,451.6753,451.6761,,1,,0,451.6761,451.6761,451.6769,453.1694,0,33,33,33,1,0.6,0.4,0.2,0.8,1,0,,,,,,,,,,,,,,,,,,,,,,,,,,,,,,,,,,,,
,,64f03390a3ce93b12a268959,66fc9763e3a790fbd7a552f0,2024-10-01_18h48.35.783,mdp,2024.2.1,Win32,60.24096386,66fa4ebf79326e780c390304,,,,,,,,,,,,,,,,,,,,,453.1726,453.1727,453.1749,454.3616,0,1,left,0.67,,454.3652,454.3677,,0,,454.3703,454.3719,,1,,0,454.372,454.372,454.3733,455.8761,0,34,34,34,1,0.6,0.4,0.2,0.8,1,0,,,,,,,,,,,,,,,,,,,,,,,,,,,,,,,,,,,,
,,64f03390a3ce93b12a268959,66fc9763e3a790fbd7a552f0,2024-10-01_18h48.35.783,mdp,2024.2.1,Win32,60.24096386,66fa4ebf79326e780c390304,,,,,,,,,,,,,,,,,,,,,455.8765,455.8766,455.8799,456.7742,1,1,right,0.3663,,456.7764,456.7784,,0,,456.7801,456.7819,,1,,0,456.7819,456.782,456.7828,458.2736,0,35,35,35,1,0.6,0.4,0.2,0.8,1,0,,,,,,,,,,,,,,,,,,,,,,,,,,,,,,,,,,,,
,,64f03390a3ce93b12a268959,66fc9763e3a790fbd7a552f0,2024-10-01_18h48.35.783,mdp,2024.2.1,Win32,60.24096386,66fa4ebf79326e780c390304,,,,,,,,,,,,,,,,,,,,,458.2755,458.2755,458.2781,459.3738,1,1,right,0.5815,,459.3766,459.3779,,1,,459.3796,459.3805,,1,,0,459.3806,459.3806,459.3815,460.8712,0,36,36,36,1,0.6,0.4,0.2,0.8,1,0,,,,,,,,,,,,,,,,,,,,,,,,,,,,,,,,,,,,
,,64f03390a3ce93b12a268959,66fc9763e3a790fbd7a552f0,2024-10-01_18h48.35.783,mdp,2024.2.1,Win32,60.24096386,66fa4ebf79326e780c390304,,,,,,,,,,,,,,,,,,,,,460.8718,460.8719,460.8737,461.4853,1,0,right,0.0839,,461.4882,461.489,,1,,461.49,461.4906,,1,,1,461.4907,461.4907,461.4913,462.9845,0,37,37,37,1,0.6,0.4,0.2,0.8,1,0,,,,,,,,,,,,,,,,,,,,,,,,,,,,,,,,,,,,
,,64f03390a3ce93b12a268959,66fc9763e3a790fbd7a552f0,2024-10-01_18h48.35.783,mdp,2024.2.1,Win32,60.24096386,66fa4ebf79326e780c390304,,,,,,,,,,,,,,,,,,,,,462.9855,462.9855,462.9873,464.3443,0,1,left,0.8367,,464.3457,464.3466,,0,,464.348,464.3489,,0,,0,464.349,464.3491,464.35,465.8534,0,38,38,38,1,0.6,0.4,0.2,0.8,1,0,,,,,,,,,,,,,,,,,,,,,,,,,,,,,,,,,,,,
,,64f03390a3ce93b12a268959,66fc9763e3a790fbd7a552f0,2024-10-01_18h48.35.783,mdp,2024.2.1,Win32,60.24096386,66fa4ebf79326e780c390304,,,,,,,,,,,,,,,,,,,,,465.8541,465.8542,465.8574,466.6485,0,1,left,0.2623,,466.6511,466.6534,,0,,466.6559,466.657,,0,,0,466.657,466.657,466.6579,468.1527,0,39,39,39,1,0.6,0.4,0.2,0.8,1,0,,,,,,,,,,,,,,,,,,,,,,,,,,,,,,,,,,,,
,,64f03390a3ce93b12a268959,66fc9763e3a790fbd7a552f0,2024-10-01_18h48.35.783,mdp,2024.2.1,Win32,60.24096386,66fa4ebf79326e780c390304,,,,,,,,,,,,,,,,,,,,,468.1543,468.1544,468.1601,468.9211,0,1,left,0.2185,,468.9222,468.923,,0,,468.9239,468.9247,,0,,0,468.9247,468.9248,468.9256,470.4145,0,40,40,40,1,0.6,0.4,0.2,0.8,1,0,,,,,,,,,,,,,,,,,,,,,,,,,,,,,,,,,,,,
,,64f03390a3ce93b12a268959,66fc9763e3a790fbd7a552f0,2024-10-01_18h48.35.783,mdp,2024.2.1,Win32,60.24096386,66fa4ebf79326e780c390304,,,,,,,,,,,,,,,,,,,,,470.415,470.415,470.4163,471.1603,1,1,right,0.2176,,471.1627,471.1641,,1,,471.1661,471.1676,,1,,0,471.1678,471.1678,471.1688,472.6551,0,41,41,41,1,0.6,0.4,0.2,0.8,1,0,,,,,,,,,,,,,,,,,,,,,,,,,,,,,,,,,,,,
,,64f03390a3ce93b12a268959,66fc9763e3a790fbd7a552f0,2024-10-01_18h48.35.783,mdp,2024.2.1,Win32,60.24096386,66fa4ebf79326e780c390304,,,,,,,,,,,,,,,,,,,,,472.6556,472.6556,472.6579,473.8282,1,1,right,0.6432,,473.8298,473.832,,0,,473.8346,473.836,,1,,0,473.8361,473.8361,473.8388,475.3344,0,42,42,42,1,0.6,0.4,0.2,0.8,1,0,,,,,,,,,,,,,,,,,,,,,,,,,,,,,,,,,,,,
,,64f03390a3ce93b12a268959,66fc9763e3a790fbd7a552f0,2024-10-01_18h48.35.783,mdp,2024.2.1,Win32,60.24096386,66fa4ebf79326e780c390304,,,,,,,,,,,,,,,,,,,,,475.335,475.335,475.3365,476.0822,0,0,left,0.2129,,476.0863,476.0875,,0,,476.0885,476.0891,,1,,1,476.0891,476.0891,476.0898,477.5923,0,43,43,43,1,0.6,0.4,0.2,0.8,1,0,,,,,,,,,,,,,,,,,,,,,,,,,,,,,,,,,,,,
,,64f03390a3ce93b12a268959,66fc9763e3a790fbd7a552f0,2024-10-01_18h48.35.783,mdp,2024.2.1,Win32,60.24096386,66fa4ebf79326e780c390304,,,,,,,,,,,,,,,,,,,,,477.5928,477.5928,477.5946,478.4847,0,0,left,0.3734,,478.4858,478.4866,,0,,478.4873,478.488,,1,,1,478.488,478.488,478.4887,479.9868,0,44,44,44,1,0.6,0.4,0.2,0.8,1,0,,,,,,,,,,,,,,,,,,,,,,,,,,,,,,,,,,,,
,,64f03390a3ce93b12a268959,66fc9763e3a790fbd7a552f0,2024-10-01_18h48.35.783,mdp,2024.2.1,Win32,60.24096386,66fa4ebf79326e780c390304,,,,,,,,,,,,,,,,,,,,,479.9876,479.9877,479.9907,480.8194,0,0,left,0.2961,,480.8224,480.8242,,0,,480.8261,480.8273,,1,,1,480.8274,480.8274,480.8289,482.3332,0,45,45,45,1,0.6,0.4,0.2,0.8,1,0,,,,,,,,,,,,,,,,,,,,,,,,,,,,,,,,,,,,
,,64f03390a3ce93b12a268959,66fc9763e3a790fbd7a552f0,2024-10-01_18h48.35.783,mdp,2024.2.1,Win32,60.24096386,66fa4ebf79326e780c390304,,,,,,,,,,,,,,,,,,,,,482.3342,482.3342,482.336,483.1174,1,1,right,0.2577,,483.1195,483.1214,,0,,483.1238,483.125,,1,,0,483.125,483.125,483.1266,484.5972,0,46,46,46,1,0.8,0.2,0.6,0.4,1,0,,,,,,,,,,,,,,,,,,,,,,,,,,,,,,,,,,,,
,,64f03390a3ce93b12a268959,66fc9763e3a790fbd7a552f0,2024-10-01_18h48.35.783,mdp,2024.2.1,Win32,60.24096386,66fa4ebf79326e780c390304,,,,,,,,,,,,,,,,,,,,,484.5982,484.5982,484.601,485.1595,0,0,left,0.034,,485.1618,485.1642,,0,,485.1655,485.1664,,0,,1,485.1665,485.1665,485.1674,486.6457,0,47,47,47,1,0.8,0.2,0.6,0.4,1,0,,,,,,,,,,,,,,,,,,,,,,,,,,,,,,,,,,,,
,,64f03390a3ce93b12a268959,66fc9763e3a790fbd7a552f0,2024-10-01_18h48.35.783,mdp,2024.2.1,Win32,60.24096386,66fa4ebf79326e780c390304,,,,,,,,,,,,,,,,,,,,,486.6465,486.6465,486.6478,487.2551,0,0,left,0.0817,,487.2584,487.2596,,0,,487.261,487.2622,,0,,1,487.2622,487.2622,487.263,488.7549,0,48,48,48,1,0.8,0.2,0.6,0.4,1,0,,,,,,,,,,,,,,,,,,,,,,,,,,,,,,,,,,,,
,,64f03390a3ce93b12a268959,66fc9763e3a790fbd7a552f0,2024-10-01_18h48.35.783,mdp,2024.2.1,Win32,60.24096386,66fa4ebf79326e780c390304,,,,,,,,,,,,,,,,,,,,,488.7555,488.7555,488.7582,489.8676,1,0,right,0.5932,,489.8703,489.8722,,0,,489.8732,489.8741,,1,,1,489.8742,489.8742,489.8748,491.379,0,49,49,49,1,0.8,0.2,0.6,0.4,1,0,,,,,,,,,,,,,,,,,,,,,,,,,,,,,,,,,,,,
,,64f03390a3ce93b12a268959,66fc9763e3a790fbd7a552f0,2024-10-01_18h48.35.783,mdp,2024.2.1,Win32,60.24096386,66fa4ebf79326e780c390304,,,,,,,,,,,,,,,,,,,,,,,,,,,,,,,,,,,,,,,,,,,,,,,,,,,,,,,,491.3821,549.8791,0,0,0,4,1,imgs/cat.png,imgs/giraffe.png,imgs/lion.png,imgs/rabbit.png,imgs/kangaroo.png,,,,,,,,,,,,,,,,,,,,,,,,
,,64f03390a3ce93b12a268959,66fc9763e3a790fbd7a552f0,2024-10-01_18h48.35.783,mdp,2024.2.1,Win32,60.24096386,66fa4ebf79326e780c390304,,,,,,,,,,,,,,2,seqs/st2seq19.csv,549.8957,706.9426,space,156.5105,,706.9719,706.9719,706.9755,709.2269,0,1,left,1.735,,709.2296,711.6781,0,0,left,711.6797,711.6813,,1,,1,711.6814,711.6814,711.6844,713.1803,0,0,0,0,1,0.8,0.2,0.2,0.8,,,,,,,,,,,,,,,1.9132,,0.2,0.8,0.4,0.6,0.4,0.6,0.8,0.2,1,0,,,,,,,,,,,,
,,64f03390a3ce93b12a268959,66fc9763e3a790fbd7a552f0,2024-10-01_18h48.35.783,mdp,2024.2.1,Win32,60.24096386,66fa4ebf79326e780c390304,,,,,,,,,,,,,,,,,,,,,713.1813,713.1814,713.1842,715.4149,0,0,left,1.7093,,715.4159,716.3913,1,0,right,716.3942,716.3966,,0,,1,716.3968,716.3968,716.3981,717.8867,0,1,1,1,1,0.8,0.2,0.2,0.8,,,,,,,,,,,,,,,0.4292,,0.6,0.4,0.8,0.2,0.4,0.6,0.8,0.2,1,0,,,,,,,,,,,,
,,64f03390a3ce93b12a268959,66fc9763e3a790fbd7a552f0,2024-10-01_18h48.35.783,mdp,2024.2.1,Win32,60.24096386,66fa4ebf79326e780c390304,,,,,,,,,,,,,,,,,,,,,717.8875,717.8875,717.8903,719.1843,0,0,left,0.7661,,719.1858,720.618,1,0,right,720.62,720.6212,,0,,1,720.6212,720.6212,720.6221,722.1121,0,2,2,2,1,0.8,0.2,0.2,0.8,,,,,,,,,,,,,,,0.9056,,0.6,0.4,0.8,0.2,0.4,0.6,0.8,0.2,1,0,,,,,,,,,,,,
,,64f03390a3ce93b12a268959,66fc9763e3a790fbd7a552f0,2024-10-01_18h48.35.783,mdp,2024.2.1,Win32,60.24096386,66fa4ebf79326e780c390304,,,,,,,,,,,,,,,,,,,,,722.1129,722.1131,722.115,723.4236,0,0,left,0.7567,,723.4269,725.0216,1,0,right,725.0225,725.0234,,1,,1,725.0234,725.0234,725.0243,726.5213,0,3,3,3,1,0.8,0.2,0.2,0.8,,,,,,,,,,,,,,,1.0678,,0.6,0.4,0.8,0.2,0.4,0.6,0.8,0.2,1,0,,,,,,,,,,,,
,,64f03390a3ce93b12a268959,66fc9763e3a790fbd7a552f0,2024-10-01_18h48.35.783,mdp,2024.2.1,Win32,60.24096386,66fa4ebf79326e780c390304,,,,,,,,,,,,,,,,,,,,,726.5216,726.5216,726.523,727.383,1,1,right,0.34,,727.3842,729.0586,1,0,right,729.0614,729.0633,,0,,1,729.0635,729.0636,729.0649,730.5604,0,4,4,4,1,0.8,0.2,0.2,0.8,,,,,,,,,,,,,,,1.1439,,0.6,0.4,0.8,0.2,0.4,0.6,0.8,0.2,1,0,,,,,,,,,,,,
,,64f03390a3ce93b12a268959,66fc9763e3a790fbd7a552f0,2024-10-01_18h48.35.783,mdp,2024.2.1,Win32,60.24096386,66fa4ebf79326e780c390304,,,,,,,,,,,,,,,,,,,,,730.5611,730.5611,730.5642,731.419,0,0,left,0.3314,,731.4218,732.6671,1,0,right,732.6698,732.6714,,0,,1,732.6716,732.6717,732.6734,734.1656,0,5,5,5,1,0.8,0.2,0.2,0.8,,,,,,,,,,,,,,,0.7097,,0.6,0.4,0.8,0.2,0.4,0.6,0.8,0.2,1,0,,,,,,,,,,,,
,,64f03390a3ce93b12a268959,66fc9763e3a790fbd7a552f0,2024-10-01_18h48.35.783,mdp,2024.2.1,Win32,60.24096386,66fa4ebf79326e780c390304,,,,,,,,,,,,,,,,,,,,,734.1671,734.1671,734.1696,735.9282,1,0,right,1.2358,,735.9309,737.3222,1,0,right,737.3247,737.3263,,0,,1,737.3264,737.3264,737.3273,738.8228,0,6,6,6,1,0.4,0.6,0.6,0.4,,,,,,,,,,,,,,,0.8715,,0.6,0.4,0.8,0.2,0.4,0.6,0.8,0.2,1,0,,,,,,,,,,,,
,,64f03390a3ce93b12a268959,66fc9763e3a790fbd7a552f0,2024-10-01_18h48.35.783,mdp,2024.2.1,Win32,60.24096386,66fa4ebf79326e780c390304,,,,,,,,,,,,,,,,,,,,,738.8241,738.8242,738.8265,739.9154,0,1,left,0.5636,,739.9184,741.2794,0,1,left,741.2814,741.2827,,0,,0,741.2827,741.2828,741.2848,742.7792,0,7,7,7,1,0.4,0.6,0.6,0.4,,,,,,,,,,,,,,,0.8391,,0.6,0.4,0.8,0.2,0.4,0.6,0.8,0.2,1,0,,,,,,,,,,,,
,,64f03390a3ce93b12a268959,66fc9763e3a790fbd7a552f0,2024-10-01_18h48.35.783,mdp,2024.2.1,Win32,60.24096386,66fa4ebf79326e780c390304,,,,,,,,,,,,,,,,,,,,,742.7797,742.7798,742.7821,744.0584,0,1,left,0.7448,,744.0606,746.221,0,0,left,746.2236,746.2247,,0,,1,746.2247,746.2247,746.2259,747.714,0,8,8,8,1,0.4,0.6,0.6,0.4,,,,,,,,,,,,,,,1.6356,,0.6,0.4,0.8,0.2,0.6,0.4,0.6,0.4,1,0,,,,,,,,,,,,
,,64f03390a3ce93b12a268959,66fc9763e3a790fbd7a552f0,2024-10-01_18h48.35.783,mdp,2024.2.1,Win32,60.24096386,66fa4ebf79326e780c390304,,,,,,,,,,,,,,,,,,,,,747.7151,747.7153,747.7184,755.8639,0,0,left,7.6136,,755.8784,757.0901,1,0,right,757.0933,757.0948,,0,,1,757.0949,757.0949,757.0974,758.615,0,9,9,9,1,0.4,0.6,0.6,0.4,,,,,,,,,,,,,,,0.6904,,0.6,0.4,0.8,0.2,0.6,0.4,0.6,0.4,1,0,,,,,,,,,,,,
,,64f03390a3ce93b12a268959,66fc9763e3a790fbd7a552f0,2024-10-01_18h48.35.783,mdp,2024.2.1,Win32,60.24096386,66fa4ebf79326e780c390304,,,,,,,,,,,,,,,,,,,,,758.6155,758.6155,758.6167,760.1351,1,1,right,1.0006,,760.137,761.7149,0,0,left,761.7183,761.7203,,0,,1,761.7203,761.7204,761.7221,763.2112,0,10,10,10,1,0.4,0.6,0.6,0.4,,,,,,,,,,,,,,,1.0441,,0.6,0.4,0.8,0.2,0.6,0.4,0.6,0.4,1,0,,,,,,,,,,,,
,,64f03390a3ce93b12a268959,66fc9763e3a790fbd7a552f0,2024-10-01_18h48.35.783,mdp,2024.2.1,Win32,60.24096386,66fa4ebf79326e780c390304,,,,,,,,,,,,,,,,,,,,,763.2117,763.2117,763.215,764.907,0,1,left,1.18,,764.9098,766.6087,1,0,right,766.6112,766.6139,,0,,1,766.614,766.614,766.616,768.1022,0,11,11,11,1,0.4,0.6,0.6,0.4,,,,,,,,,,,,,,,1.1605,,0.6,0.4,0.8,0.2,0.4,0.6,0.8,0.2,1,0,,,,,,,,,,,,
,,64f03390a3ce93b12a268959,66fc9763e3a790fbd7a552f0,2024-10-01_18h48.35.783,mdp,2024.2.1,Win32,60.24096386,66fa4ebf79326e780c390304,,,,,,,,,,,,,,,,,,,,,768.1027,768.1027,768.1044,769.5844,1,0,right,0.9519,,769.5883,771.3287,1,0,right,771.3308,771.3323,,0,,1,771.3324,771.3324,771.3336,772.8241,0,12,12,12,1,0.4,0.6,0.6,0.4,,,,,,,,,,,,,,,1.2141,,0.6,0.4,0.8,0.2,0.4,0.6,0.8,0.2,1,0,,,,,,,,,,,,
,,64f03390a3ce93b12a268959,66fc9763e3a790fbd7a552f0,2024-10-01_18h48.35.783,mdp,2024.2.1,Win32,60.24096386,66fa4ebf79326e780c390304,,,,,,,,,,,,,,,,,,,,,772.8251,772.8251,772.8268,773.8253,0,1,left,0.4727,,773.8288,775.2684,1,0,right,775.2709,775.2734,,0,,1,775.2734,775.2735,775.2747,776.7632,0,13,13,13,1,0.4,0.6,0.6,0.4,,,,,,,,,,,,,,,0.9118,,0.6,0.4,0.8,0.2,0.4,0.6,0.8,0.2,1,0,,,,,,,,,,,,
,,64f03390a3ce93b12a268959,66fc9763e3a790fbd7a552f0,2024-10-01_18h48.35.783,mdp,2024.2.1,Win32,60.24096386,66fa4ebf79326e780c390304,,,,,,,,,,,,,,,,,,,,,776.765,776.7651,776.7679,777.8606,1,0,right,0.5662,,777.864,779.161,1,1,right,779.1634,779.1653,,0,,0,779.1653,779.1653,779.1664,780.6502,0,14,14,14,1,0.4,0.6,0.6,0.4,,,,,,,,,,,,,,,0.7644,,0.6,0.4,0.8,0.2,0.4,0.6,0.8,0.2,1,0,,,,,,,,,,,,
,,64f03390a3ce93b12a268959,66fc9763e3a790fbd7a552f0,2024-10-01_18h48.35.783,mdp,2024.2.1,Win32,60.24096386,66fa4ebf79326e780c390304,,,,,,,,,,,,,,,,,,,,,780.6506,780.6507,780.6543,781.7517,0,0,left,0.5625,,781.7542,783.1363,1,1,right,783.1395,783.1407,,1,,0,783.1407,783.1407,783.1416,784.6331,0,15,15,15,1,0.4,0.6,0.6,0.4,,,,,,,,,,,,,,,0.8559,,0.6,0.4,0.8,0.2,0.4,0.6,0.8,0.2,1,0,,,,,,,,,,,,
,,64f03390a3ce93b12a268959,66fc9763e3a790fbd7a552f0,2024-10-01_18h48.35.783,mdp,2024.2.1,Win32,60.24096386,66fa4ebf79326e780c390304,,,,,,,,,,,,,,,,,,,,,784.6342,784.6342,784.6361,785.4273,0,1,left,0.2699,,785.4299,787.0454,0,0,left,787.0477,787.0492,,1,,1,787.0493,787.0493,787.0506,788.5396,0,16,16,16,1,0.4,0.6,0.6,0.4,,,,,,,,,,,,,,,1.0833,,0.6,0.4,0.8,0.2,0.4,0.6,0.8,0.2,1,0,,,,,,,,,,,,
,,64f03390a3ce93b12a268959,66fc9763e3a790fbd7a552f0,2024-10-01_18h48.35.783,mdp,2024.2.1,Win32,60.24096386,66fa4ebf79326e780c390304,,,,,,,,,,,,,,,,,,,,,788.5417,788.5417,788.544,789.3851,1,1,right,0.3041,,789.3881,791.8457,0,1,left,791.8617,791.8629,,1,,0,791.8631,791.8631,791.8648,793.3578,0,17,17,17,1,0.4,0.6,0.6,0.4,,,,,,,,,,,,,,,1.9251,,0.6,0.4,0.8,0.2,0.4,0.6,0.8,0.2,1,0,,,,,,,,,,,,
,,64f03390a3ce93b12a268959,66fc9763e3a790fbd7a552f0,2024-10-01_18h48.35.783,mdp,2024.2.1,Win32,60.24096386,66fa4ebf79326e780c390304,,,,,,,,,,,,,,,,,,,,,793.3584,793.3584,793.3616,794.4265,1,1,right,0.5547,,794.4289,796.0235,1,1,right,796.0264,796.0274,,0,,0,796.0275,796.0275,796.029,797.518,0,18,18,18,1,0.4,0.6,0.6,0.4,,,,,,,,,,,,,,,1.0662,,0.6,0.4,0.8,0.2,0.4,0.6,0.8,0.2,1,0,,,,,,,,,,,,
,,64f03390a3ce93b12a268959,66fc9763e3a790fbd7a552f0,2024-10-01_18h48.35.783,mdp,2024.2.1,Win32,60.24096386,66fa4ebf79326e780c390304,,,,,,,,,,,,,,,,,,,,,797.5187,797.5187,797.5224,798.5839,0,1,left,0.5495,,798.5867,799.985,1,0,right,799.9859,799.9866,,0,,1,799.9867,799.9867,799.9874,801.4889,0,19,19,19,1,0.4,0.6,0.6,0.4,,,,,,,,,,,,,,,0.8722,,0.6,0.4,0.8,0.2,0.4,0.6,0.8,0.2,1,0,,,,,,,,,,,,
,,64f03390a3ce93b12a268959,66fc9763e3a790fbd7a552f0,2024-10-01_18h48.35.783,mdp,2024.2.1,Win32,60.24096386,66fa4ebf79326e780c390304,,,,,,,,,,,,,,,,,,,,,801.4893,801.4893,801.4925,802.8028,1,0,right,0.7847,,802.8048,804.416,1,0,right,804.4195,804.4217,,0,,1,804.4219,804.4219,804.4233,805.9122,0,20,20,20,1,0.4,0.6,0.6,0.4,,,,,,,,,,,,,,,1.074,,0.6,0.4,0.8,0.2,0.2,0.8,0.4,0.6,1,0,,,,,,,,,,,,
,,64f03390a3ce93b12a268959,66fc9763e3a790fbd7a552f0,2024-10-01_18h48.35.783,mdp,2024.2.1,Win32,60.24096386,66fa4ebf79326e780c390304,,,,,,,,,,,,,,,,,,,,,805.9127,805.9127,805.9151,806.7519,0,1,left,0.3146,,806.755,808.1283,1,1,right,808.1312,808.1328,,0,,0,808.1329,808.1329,808.1346,809.6373,0,21,21,21,1,0.4,0.6,0.6,0.4,,,,,,,,,,,,,,,0.8471,,0.6,0.4,0.8,0.2,0.2,0.8,0.4,0.6,1,0,,,,,,,,,,,,
,,64f03390a3ce93b12a268959,66fc9763e3a790fbd7a552f0,2024-10-01_18h48.35.783,mdp,2024.2.1,Win32,60.24096386,66fa4ebf79326e780c390304,,,,,,,,,,,,,,,,,,,,,809.6393,809.6394,809.6415,810.5854,0,1,left,0.4106,,810.5909,812.2473,1,1,right,812.2503,812.2525,,1,,0,812.2527,812.2527,812.2545,813.7455,0,22,22,22,1,0.8,0.2,0.2,0.8,,,,,,,,,,,,,,,1.1232,,0.6,0.4,0.8,0.2,0.2,0.8,0.4,0.6,1,0,,,,,,,,,,,,
,,64f03390a3ce93b12a268959,66fc9763e3a790fbd7a552f0,2024-10-01_18h48.35.783,mdp,2024.2.1,Win32,60.24096386,66fa4ebf79326e780c390304,,,,,,,,,,,,,,,,,,,,,813.7465,813.7465,813.7494,814.3948,0,0,left,0.1199,,814.3979,815.7011,1,0,right,815.7031,815.7047,,1,,1,815.7047,815.7047,815.7082,817.2025,0,23,23,23,1,0.8,0.2,0.2,0.8,,,,,,,,,,,,,,,0.7634,,0.6,0.4,0.8,0.2,0.2,0.8,0.4,0.6,1,0,,,,,,,,,,,,
,,64f03390a3ce93b12a268959,66fc9763e3a790fbd7a552f0,2024-10-01_18h48.35.783,mdp,2024.2.1,Win32,60.24096386,66fa4ebf79326e780c390304,,,,,,,,,,,,,,,,,,,,,817.2034,817.2034,817.2058,818.0867,0,0,left,0.3513,,818.0886,819.3648,1,0,right,819.368,819.3698,,1,,1,819.37,819.3701,819.3719,820.8611,0,24,24,24,1,0.8,0.2,0.2,0.8,,,,,,,,,,,,,,,0.7409,,0.6,0.4,0.8,0.2,0.4,0.6,0.6,0.4,1,0,,,,,,,,,,,,
,,64f03390a3ce93b12a268959,66fc9763e3a790fbd7a552f0,2024-10-01_18h48.35.783,mdp,2024.2.1,Win32,60.24096386,66fa4ebf79326e780c390304,,,,,,,,,,,,,,,,,,,,,820.8622,820.8622,820.8651,821.5622,0,0,left,0.1856,,821.5638,824.0198,1,0,right,824.0342,824.0349,,1,,1,824.0349,824.0349,824.0358,825.5331,0,25,25,25,1,0.8,0.2,0.2,0.8,,,,,,,,,,,,,,,1.9243,,0.6,0.4,0.8,0.2,0.4,0.6,0.6,0.4,1,0,,,,,,,,,,,,
,,64f03390a3ce93b12a268959,66fc9763e3a790fbd7a552f0,2024-10-01_18h48.35.783,mdp,2024.2.1,Win32,60.24096386,66fa4ebf79326e780c390304,,,,,,,,,,,,,,,,,,,,,825.5339,825.534,825.5372,827.6969,1,1,right,1.6464,,827.7133,828.9091,0,1,left,828.9113,828.9132,,0,,0,828.9134,828.9134,828.9158,830.3917,0,26,26,26,1,0.8,0.2,0.2,0.8,,,,,,,,,,,,,,,0.6765,,0.6,0.4,0.8,0.2,0.6,0.4,0.2,0.8,1,0,,,,,,,,,,,,
,,64f03390a3ce93b12a268959,66fc9763e3a790fbd7a552f0,2024-10-01_18h48.35.783,mdp,2024.2.1,Win32,60.24096386,66fa4ebf79326e780c390304,,,,,,,,,,,,,,,,,,,,,830.3927,830.3928,830.3955,831.4922,1,1,right,0.5729,,831.4952,832.459,1,1,right,832.461,832.4621,,0,,0,832.4622,832.4622,832.4634,833.9634,0,27,27,27,1,0.8,0.2,0.2,0.8,,,,,,,,,,,,,,,0.4382,,0.6,0.4,0.8,0.2,0.6,0.4,0.2,0.8,1,0,,,,,,,,,,,,
,,64f03390a3ce93b12a268959,66fc9763e3a790fbd7a552f0,2024-10-01_18h48.35.783,mdp,2024.2.1,Win32,60.24096386,66fa4ebf79326e780c390304,,,,,,,,,,,,,,,,,,,,,833.9644,833.9645,833.9672,835.1292,1,1,right,0.6263,,835.1319,836.2803,0,0,left,836.2816,836.2822,,0,,1,836.2823,836.2823,836.2831,837.7717,0,28,28,28,1,0.8,0.2,0.2,0.8,,,,,,,,,,,,,,,0.6217,,0.6,0.4,0.8,0.2,0.6,0.4,0.2,0.8,1,0,,,,,,,,,,,,
,,64f03390a3ce93b12a268959,66fc9763e3a790fbd7a552f0,2024-10-01_18h48.35.783,mdp,2024.2.1,Win32,60.24096386,66fa4ebf79326e780c390304,,,,,,,,,,,,,,,,,,,,,837.7726,837.7727,837.7759,838.6399,0,0,left,0.3439,,838.641,839.9022,1,0,right,839.9049,839.9063,,0,,1,839.9063,839.9064,839.9073,841.3973,0,29,29,29,1,0.4,0.6,0.6,0.4,,,,,,,,,,,,,,,0.7225,,0.6,0.4,0.8,0.2,0.6,0.4,0.2,0.8,1,0,,,,,,,,,,,,
,,64f03390a3ce93b12a268959,66fc9763e3a790fbd7a552f0,2024-10-01_18h48.35.783,mdp,2024.2.1,Win32,60.24096386,66fa4ebf79326e780c390304,,,,,,,,,,,,,,,,,,,,,841.4,841.4001,841.4018,842.0113,0,0,left,0.0818,,842.0148,843.5792,1,0,right,843.5833,843.5851,,1,,1,843.5854,843.5854,843.5868,845.0875,0,30,30,30,1,0.4,0.6,0.6,0.4,,,,,,,,,,,,,,,1.0571,,0.6,0.4,0.8,0.2,0.6,0.4,0.2,0.8,1,0,,,,,,,,,,,,
,,64f03390a3ce93b12a268959,66fc9763e3a790fbd7a552f0,2024-10-01_18h48.35.783,mdp,2024.2.1,Win32,60.24096386,66fa4ebf79326e780c390304,,,,,,,,,,,,,,,,,,,,,845.0883,845.0883,845.0913,846.3352,0,0,left,0.7171,,846.3378,847.5186,1,1,right,847.5211,847.5221,,0,,0,847.5222,847.5222,847.5231,849.017,0,31,31,31,1,0.4,0.6,0.6,0.4,,,,,,,,,,,,,,,0.6568,,0.6,0.4,0.8,0.2,0.6,0.4,0.2,0.8,1,0,,,,,,,,,,,,
,,64f03390a3ce93b12a268959,66fc9763e3a790fbd7a552f0,2024-10-01_18h48.35.783,mdp,2024.2.1,Win32,60.24096386,66fa4ebf79326e780c390304,,,,,,,,,,,,,,,,,,,,,849.0177,849.0178,849.0191,849.9143,1,0,right,0.3716,,849.9179,851.4563,0,0,left,851.4598,851.461,,0,,1,851.4611,851.4611,851.4621,852.9531,0,32,32,32,1,0.4,0.6,0.6,0.4,,,,,,,,,,,,,,,1.0096,,0.6,0.4,0.8,0.2,0.6,0.4,0.2,0.8,1,0,,,,,,,,,,,,
,,64f03390a3ce93b12a268959,66fc9763e3a790fbd7a552f0,2024-10-01_18h48.35.783,mdp,2024.2.1,Win32,60.24096386,66fa4ebf79326e780c390304,,,,,,,,,,,,,,,,,,,,,852.9539,852.9539,852.9566,853.6414,1,0,right,0.156,,853.6427,854.9318,0,0,left,854.9338,854.9347,,0,,1,854.9348,854.9349,854.9357,856.4329,0,33,33,33,1,0.4,0.6,0.6,0.4,,,,,,,,,,,,,,,0.7621,,0.6,0.4,0.8,0.2,0.6,0.4,0.2,0.8,1,0,,,,,,,,,,,,
,,64f03390a3ce93b12a268959,66fc9763e3a790fbd7a552f0,2024-10-01_18h48.35.783,mdp,2024.2.1,Win32,60.24096386,66fa4ebf79326e780c390304,,,,,,,,,,,,,,,,,,,,,856.4338,856.4338,856.4358,857.1128,0,0,left,0.1483,,857.1146,858.1635,1,0,right,858.1646,858.1658,,0,,1,858.1658,858.1658,858.1668,859.658,0,34,34,34,1,0.4,0.6,0.6,0.4,,,,,,,,,,,,,,,0.519,,0.4,0.6,0.4,0.6,0.6,0.4,0.2,0.8,1,0,,,,,,,,,,,,
,,64f03390a3ce93b12a268959,66fc9763e3a790fbd7a552f0,2024-10-01_18h48.35.783,mdp,2024.2.1,Win32,60.24096386,66fa4ebf79326e780c390304,,,,,,,,,,,,,,,,,,,,,859.6586,859.6587,859.6614,860.8732,1,1,right,0.6843,,860.8744,863.1997,0,1,left,863.202,863.2034,,0,,0,863.2034,863.2035,863.2047,864.7016,0,35,35,35,1,0.4,0.6,0.6,0.4,,,,,,,,,,,,,,,1.785,,0.4,0.6,0.4,0.6,0.6,0.4,0.2,0.8,1,0,,,,,,,,,,,,
,,64f03390a3ce93b12a268959,66fc9763e3a790fbd7a552f0,2024-10-01_18h48.35.783,mdp,2024.2.1,Win32,60.24096386,66fa4ebf79326e780c390304,,,,,,,,,,,,,,,,,,,,,864.7021,864.7021,864.7032,865.4162,0,0,left,0.1944,,865.4173,866.6253,1,0,right,866.6284,866.6301,,1,,1,866.6302,866.6302,866.6317,868.1201,0,36,36,36,1,0.4,0.6,0.6,0.4,,,,,,,,,,,,,,,0.6766,,0.4,0.6,0.4,0.6,0.6,0.4,0.2,0.8,1,0,,,,,,,,,,,,
,,64f03390a3ce93b12a268959,66fc9763e3a790fbd7a552f0,2024-10-01_18h48.35.783,mdp,2024.2.1,Win32,60.24096386,66fa4ebf79326e780c390304,,,,,,,,,,,,,,,,,,,,,868.1207,868.1208,868.1229,869.0523,1,1,right,0.3839,,869.054,870.3792,1,1,right,870.382,870.383,,1,,0,870.3832,870.3832,870.3846,871.8754,0,37,37,37,1,0.4,0.6,0.6,0.4,,,,,,,,,,,,,,,0.7922,,0.4,0.6,0.4,0.6,0.6,0.4,0.2,0.8,1,0,,,,,,,,,,,,
,,64f03390a3ce93b12a268959,66fc9763e3a790fbd7a552f0,2024-10-01_18h48.35.783,mdp,2024.2.1,Win32,60.24096386,66fa4ebf79326e780c390304,,,,,,,,,,,,,,,,,,,,,871.877,871.877,871.879,873.0772,0,1,left,0.6688,,873.0799,878.1476,0,1,left,878.1646,878.1658,,0,,0,878.1659,878.1659,878.1667,879.657,0,38,38,38,1,0.4,0.6,0.6,0.4,,,,,,,,,,,,,,,4.5391,,0.4,0.6,0.4,0.6,0.6,0.4,0.2,0.8,1,0,,,,,,,,,,,,
,,64f03390a3ce93b12a268959,66fc9763e3a790fbd7a552f0,2024-10-01_18h48.35.783,mdp,2024.2.1,Win32,60.24096386,66fa4ebf79326e780c390304,,,,,,,,,,,,,,,,,,,,,879.6578,879.6578,879.6608,880.2743,1,0,right,0.0834,,880.2773,881.3894,0,1,left,881.392,881.3937,,0,,0,881.3938,881.3938,881.395,882.8863,0,39,39,39,1,0.4,0.6,0.6,0.4,,,,,,,,,,,,,,,0.5744,,0.4,0.6,0.4,0.6,0.4,0.6,0.6,0.4,1,0,,,,,,,,,,,,
,,64f03390a3ce93b12a268959,66fc9763e3a790fbd7a552f0,2024-10-01_18h48.35.783,mdp,2024.2.1,Win32,60.24096386,66fa4ebf79326e780c390304,,,,,,,,,,,,,,,,,,,,,882.887,882.887,882.8897,883.7532,0,1,left,0.3409,,883.7552,885.1279,0,1,left,885.1297,885.1319,,0,,0,885.132,885.132,885.1342,886.6281,0,40,40,40,1,0.4,0.6,0.6,0.4,,,,,,,,,,,,,,,0.8394,,0.4,0.6,0.4,0.6,0.4,0.6,0.6,0.4,1,0,,,,,,,,,,,,
,,64f03390a3ce93b12a268959,66fc9763e3a790fbd7a552f0,2024-10-01_18h48.35.783,mdp,2024.2.1,Win32,60.24096386,66fa4ebf79326e780c390304,,,,,,,,,,,,,,,,,,,,,886.6294,886.6295,886.6322,887.4394,0,0,left,0.2869,,887.442,888.5997,1,0,right,888.6014,888.6041,,1,,1,888.6042,888.6042,888.6058,890.0977,0,41,41,41,1,0.4,0.6,0.6,0.4,,,,,,,,,,,,,,,0.6083,,0.4,0.6,0.4,0.6,0.4,0.6,0.6,0.4,1,0,,,,,,,,,,,,
,,64f03390a3ce93b12a268959,66fc9763e3a790fbd7a552f0,2024-10-01_18h48.35.783,mdp,2024.2.1,Win32,60.24096386,66fa4ebf79326e780c390304,,,,,,,,,,,,,,,,,,,,,890.0981,890.0981,890.1013,890.9223,1,0,right,0.2885,,890.9234,892.0151,1,0,right,892.0167,892.0177,,0,,1,892.0178,892.0178,892.0186,893.5105,0,42,42,42,1,0.4,0.6,0.6,0.4,,,,,,,,,,,,,,,0.5579,,0.4,0.6,0.4,0.6,0.4,0.6,0.6,0.4,1,0,,,,,,,,,,,,
,,64f03390a3ce93b12a268959,66fc9763e3a790fbd7a552f0,2024-10-01_18h48.35.783,mdp,2024.2.1,Win32,60.24096386,66fa4ebf79326e780c390304,,,,,,,,,,,,,,,,,,,,,893.5112,893.5112,893.5165,894.1972,0,0,left,0.1537,,894.199,895.1714,1,0,right,895.1737,895.1744,,1,,1,895.1745,895.1745,895.1755,896.6685,0,43,43,43,1,0.4,0.6,0.6,0.4,,,,,,,,,,,,,,,0.4508,,0.4,0.6,0.4,0.6,0.4,0.6,0.6,0.4,1,0,,,,,,,,,,,,
,,64f03390a3ce93b12a268959,66fc9763e3a790fbd7a552f0,2024-10-01_18h48.35.783,mdp,2024.2.1,Win32,60.24096386,66fa4ebf79326e780c390304,,,,,,,,,,,,,,,,,,,,,896.6691,896.6691,896.6706,897.4658,0,0,left,0.2625,,897.4683,898.5182,1,1,right,898.5206,898.5222,,1,,0,898.5223,898.5223,898.5237,900.01,0,44,44,44,1,0.4,0.6,0.6,0.4,,,,,,,,,,,,,,,0.514,,0.4,0.6,0.4,0.6,0.4,0.6,0.6,0.4,1,0,,,,,,,,,,,,
,,64f03390a3ce93b12a268959,66fc9763e3a790fbd7a552f0,2024-10-01_18h48.35.783,mdp,2024.2.1,Win32,60.24096386,66fa4ebf79326e780c390304,,,,,,,,,,,,,,,,,,,,,900.0106,900.0106,900.014,900.8916,0,0,left,0.3408,,900.8941,902.0548,1,0,right,902.0562,902.0581,,0,,1,902.0582,902.0582,902.0596,903.5545,0,45,45,45,1,0.4,0.6,0.6,0.4,,,,,,,,,,,,,,,0.636,,0.4,0.6,0.4,0.6,0.4,0.6,0.6,0.4,1,0,,,,,,,,,,,,
,,64f03390a3ce93b12a268959,66fc9763e3a790fbd7a552f0,2024-10-01_18h48.35.783,mdp,2024.2.1,Win32,60.24096386,66fa4ebf79326e780c390304,,,,,,,,,,,,,,,,,,,,,903.5549,903.555,903.5576,904.3525,1,0,right,0.2657,,904.3542,905.5324,1,0,right,905.5359,905.5368,,1,,1,905.5368,905.5368,905.5379,907.0305,0,46,46,46,1,0.4,0.6,0.6,0.4,,,,,,,,,,,,,,,0.6525,,0.8,0.2,0.8,0.2,0.4,0.6,0.6,0.4,1,0,,,,,,,,,,,,
,,64f03390a3ce93b12a268959,66fc9763e3a790fbd7a552f0,2024-10-01_18h48.35.783,mdp,2024.2.1,Win32,60.24096386,66fa4ebf79326e780c390304,,,,,,,,,,,,,,,,,,,,,907.0313,907.0314,907.0328,907.6603,1,0,right,0.1032,,907.6625,908.9618,1,0,right,908.9647,908.9663,,1,,1,908.9663,908.9663,908.9678,910.4437,0,47,47,47,1,0.4,0.6,0.6,0.4,,,,,,,,,,,,,,,0.7764,,0.8,0.2,0.8,0.2,0.4,0.6,0.6,0.4,1,0,,,,,,,,,,,,
,,64f03390a3ce93b12a268959,66fc9763e3a790fbd7a552f0,2024-10-01_18h48.35.783,mdp,2024.2.1,Win32,60.24096386,66fa4ebf79326e780c390304,,,,,,,,,,,,,,,,,,,,,910.4441,910.4441,910.4452,911.3024,0,0,left,0.3238,,911.3296,912.5344,1,0,right,912.536,912.5369,,0,,1,912.5371,912.5371,912.5382,914.0323,0,48,48,48,1,0.4,0.6,0.6,0.4,,,,,,,,,,,,,,,0.7054,,0.8,0.2,0.8,0.2,0.4,0.6,0.6,0.4,1,0,,,,,,,,,,,,
,,64f03390a3ce93b12a268959,66fc9763e3a790fbd7a552f0,2024-10-01_18h48.35.783,mdp,2024.2.1,Win32,60.24096386,66fa4ebf79326e780c390304,,,,,,,,,,,,,,,,,,,,,914.0335,914.0335,914.0351,914.9686,1,0,right,0.4113,,914.9701,915.9582,0,0,left,915.9609,915.9624,,0,,1,915.9626,915.9626,915.9641,917.4532,0,49,49,49,1,0.4,0.6,0.6,0.4,,,,,,,,,,,,,,,0.4748,,0.8,0.2,0.8,0.2,0.4,0.6,0.6,0.4,1,0,,,,,,,,,,,,
,,64f03390a3ce93b12a268959,66fc9763e3a790fbd7a552f0,2024-10-01_18h48.35.783,mdp,2024.2.1,Win32,60.24096386,66fa4ebf79326e780c390304,,,,,,,,,,,,,,,,,,,,,,,,,,,,,,,,,,,,,,,,,,,,,,,,,,,,,,,,917.4535,975.9698,0,1,1,8,1,imgs/kangaroo.png,imgs/lion.png,imgs/giraffe.png,imgs/rabbit.png,imgs/elephant.png,,,,,,,,,,,,,,,,,,,,,,,,
,,64f03390a3ce93b12a268959,66fc9763e3a790fbd7a552f0,2024-10-01_18h48.35.783,mdp,2024.2.1,Win32,60.24096386,66fa4ebf79326e780c390304,,,,,,,,,,,,,,3,seqs/st3seq4.csv,975.9906,1022.9136,space,46.3975,,1022.9497,1022.9499,1022.951,1025.4722,0,0,left,1.9907,,1025.4743,1028.1342,0,1,left,1028.1366,1029.5959,1,0,right,1,1029.596,1029.5961,1029.5982,1031.0889,0,0,0,0,1,0.8,0.2,0.2,0.8,,,,,,,,,,,,,,,2.1304,,0.8,0.2,0.8,0.2,0.4,0.6,0.6,0.4,,,0.9289,,0.8,0.2,0.4,0.6,0.2,0.8,0.6,0.4,1,0
,,64f03390a3ce93b12a268959,66fc9763e3a790fbd7a552f0,2024-10-01_18h48.35.783,mdp,2024.2.1,Win32,60.24096386,66fa4ebf79326e780c390304,,,,,,,,,,,,,,,,,,,,,1031.0906,1031.0907,1031.0923,1032.0599,1,0,right,0.4421,,1032.0616,1034.1854,0,0,left,1034.1883,1035.8989,0,0,left,1,1035.8993,1035.8993,1035.9008,1037.3923,0,1,1,1,1,0.8,0.2,0.2,0.8,,,,,,,,,,,,,,,1.6008,,0.8,0.2,0.8,0.2,0.4,0.6,0.6,0.4,,,1.1708,,0.8,0.2,0.4,0.6,0.2,0.8,0.6,0.4,1,0
,,64f03390a3ce93b12a268959,66fc9763e3a790fbd7a552f0,2024-10-01_18h48.35.783,mdp,2024.2.1,Win32,60.24096386,66fa4ebf79326e780c390304,,,,,,,,,,,,,,,,,,,,,1037.3938,1037.3939,1037.3959,1038.375,1,1,right,0.459,,1038.3764,1039.9167,1,1,right,1039.9181,1041.9986,1,1,right,0,1041.9987,1041.9987,1042.0025,1043.4933,0,2,2,2,1,0.8,0.2,0.2,0.8,,,,,,,,,,,,,,,0.9979,,0.8,0.2,0.8,0.2,0.4,0.6,0.6,0.4,,,1.5431,,0.8,0.2,0.4,0.6,0.2,0.8,0.6,0.4,1,0
,,64f03390a3ce93b12a268959,66fc9763e3a790fbd7a552f0,2024-10-01_18h48.35.783,mdp,2024.2.1,Win32,60.24096386,66fa4ebf79326e780c390304,,,,,,,,,,,,,,,,,,,,,1043.4945,1043.4945,1043.4974,1044.2917,0,0,left,0.2728,,1044.2939,1045.5378,0,0,left,1045.5404,1047.1711,0,0,left,1,1047.1714,1047.1714,1047.173,1048.6834,0,3,3,3,1,0.8,0.2,0.2,0.8,,,,,,,,,,,,,,,0.7092,,0.8,0.2,0.8,0.2,0.4,0.6,0.6,0.4,,,1.0925,,0.8,0.2,0.4,0.6,0.2,0.8,0.6,0.4,1,0
,,64f03390a3ce93b12a268959,66fc9763e3a790fbd7a552f0,2024-10-01_18h48.35.783,mdp,2024.2.1,Win32,60.24096386,66fa4ebf79326e780c390304,,,,,,,,,,,,,,,,,,,,,1048.6843,1048.6843,1048.6859,1049.7626,1,1,right,0.55,,1049.7655,1051.3247,1,1,right,1051.3273,1052.4904,1,0,right,1,1052.4905,1052.4905,1052.4933,1053.9871,0,4,4,4,1,0.8,0.2,0.2,0.8,,,,,,,,,,,,,,,1.0262,,0.8,0.2,0.8,0.2,0.4,0.6,0.6,0.4,,,0.627,,0.8,0.2,0.4,0.6,0.2,0.8,0.6,0.4,1,0
,,64f03390a3ce93b12a268959,66fc9763e3a790fbd7a552f0,2024-10-01_18h48.35.783,mdp,2024.2.1,Win32,60.24096386,66fa4ebf79326e780c390304,,,,,,,,,,,,,,,,,,,,,1053.9882,1053.9883,1053.9899,1054.9335,0,0,left,0.4156,,1054.9367,1056.2466,0,0,left,1056.2497,1058.2256,0,1,left,0,1058.2257,1058.2258,1058.2274,1059.7267,0,5,5,5,1,0.8,0.2,0.2,0.8,,,,,,,,,,,,,,,0.7807,,0.8,0.2,0.8,0.2,0.4,0.6,0.6,0.4,,,1.4308,,0.8,0.2,0.4,0.6,0.2,0.8,0.6,0.4,1,0
,,64f03390a3ce93b12a268959,66fc9763e3a790fbd7a552f0,2024-10-01_18h48.35.783,mdp,2024.2.1,Win32,60.24096386,66fa4ebf79326e780c390304,,,,,,,,,,,,,,,,,,,,,1059.7277,1059.7278,1059.7299,1060.4724,1,1,right,0.2205,,1060.4756,1061.8786,0,0,left,1061.8806,1063.1878,1,1,right,0,1063.1878,1063.1878,1063.1886,1064.6805,0,6,6,6,1,0.8,0.2,0.2,0.8,,,,,,,,,,,,,,,0.8757,,0.8,0.2,0.8,0.2,0.4,0.6,0.6,0.4,,,0.7833,,0.8,0.2,0.4,0.6,0.2,0.8,0.6,0.4,1,0
,,64f03390a3ce93b12a268959,66fc9763e3a790fbd7a552f0,2024-10-01_18h48.35.783,mdp,2024.2.1,Win32,60.24096386,66fa4ebf79326e780c390304,,,,,,,,,,,,,,,,,,,,,1064.6814,1064.6814,1064.6846,1065.658,1,1,right,0.4448,,1065.6607,1066.9898,1,1,right,1066.9923,1068.0395,1,0,right,1,1068.0396,1068.0396,1068.042,1069.5309,0,7,7,7,1,0.8,0.2,0.2,0.8,,,,,,,,,,,,,,,0.8093,,0.8,0.2,0.8,0.2,0.4,0.6,0.6,0.4,,,0.5201,,0.8,0.2,0.4,0.6,0.2,0.8,0.6,0.4,1,0
,,64f03390a3ce93b12a268959,66fc9763e3a790fbd7a552f0,2024-10-01_18h48.35.783,mdp,2024.2.1,Win32,60.24096386,66fa4ebf79326e780c390304,,,,,,,,,,,,,,,,,,,,,1069.5331,1069.5332,1069.5349,1070.3474,0,0,left,0.2773,,1070.3492,1071.612,0,1,left,1071.6153,1072.76,1,0,right,1,1072.7601,1072.7601,1072.7639,1074.2528,0,8,8,8,1,0.8,0.2,0.2,0.8,,,,,,,,,,,,,,,0.7341,,0.8,0.2,0.8,0.2,0.4,0.6,0.6,0.4,,,0.6205,,0.8,0.2,0.4,0.6,0.2,0.8,0.6,0.4,1,0
,,64f03390a3ce93b12a268959,66fc9763e3a790fbd7a552f0,2024-10-01_18h48.35.783,mdp,2024.2.1,Win32,60.24096386,66fa4ebf79326e780c390304,,,,,,,,,,,,,,,,,,,,,1074.2553,1074.2553,1074.2575,1074.8318,1,1,right,0.0489,,1074.8338,1075.8646,0,0,left,1075.8655,1077.1865,1,1,right,0,1077.1868,1077.1868,1077.1896,1078.6925,0,9,9,9,1,0.8,0.2,0.2,0.8,,,,,,,,,,,,,,,0.5106,,0.8,0.2,0.8,0.2,0.4,0.6,0.6,0.4,,,0.8013,,0.8,0.2,0.4,0.6,0.2,0.8,0.6,0.4,1,0
,,64f03390a3ce93b12a268959,66fc9763e3a790fbd7a552f0,2024-10-01_18h48.35.783,mdp,2024.2.1,Win32,60.24096386,66fa4ebf79326e780c390304,,,,,,,,,,,,,,,,,,,,,1078.6949,1078.6949,1078.6974,1079.9127,0,0,left,0.6995,,1079.9148,1086.4968,0,0,left,1086.5226,1087.8924,0,0,left,1,1087.8925,1087.8925,1087.8937,1089.3896,0,10,10,10,1,0.8,0.2,0.2,0.8,,,,,,,,,,,,,,,6.0551,,0.8,0.2,0.8,0.2,0.4,0.6,0.6,0.4,,,0.887,,0.8,0.2,0.4,0.6,0.2,0.8,0.6,0.4,1,0
,,64f03390a3ce93b12a268959,66fc9763e3a790fbd7a552f0,2024-10-01_18h48.35.783,mdp,2024.2.1,Win32,60.24096386,66fa4ebf79326e780c390304,,,,,,,,,,,,,,,,,,,,,1089.3909,1089.3911,1089.3933,1090.9563,1,1,right,1.0217,,1090.9572,1092.2173,1,0,right,1092.2194,1093.4134,0,0,left,1,1093.4136,1093.4136,1093.4153,1094.9106,0,11,11,11,1,0.8,0.2,0.2,0.8,,,,,,,,,,,,,,,0.7346,,0.8,0.2,0.8,0.2,0.4,0.6,0.6,0.4,,,0.6538,,0.8,0.2,0.4,0.6,0.2,0.8,0.6,0.4,1,0
,,64f03390a3ce93b12a268959,66fc9763e3a790fbd7a552f0,2024-10-01_18h48.35.783,mdp,2024.2.1,Win32,60.24096386,66fa4ebf79326e780c390304,,,,,,,,,,,,,,,,,,,,,1094.9112,1094.9113,1094.9132,1095.8894,1,1,right,0.451,,1095.8927,1096.9291,0,0,left,1096.9319,1098.103,1,1,right,0,1098.1032,1098.1032,1098.1056,1099.5925,0,12,12,12,1,0.8,0.2,0.2,0.8,,,,,,,,,,,,,,,0.5236,,0.8,0.2,0.8,0.2,0.4,0.6,0.6,0.4,,,0.6473,,0.8,0.2,0.4,0.6,0.2,0.8,0.6,0.4,1,0
,,64f03390a3ce93b12a268959,66fc9763e3a790fbd7a552f0,2024-10-01_18h48.35.783,mdp,2024.2.1,Win32,60.24096386,66fa4ebf79326e780c390304,,,,,,,,,,,,,,,,,,,,,1099.5932,1099.5933,1099.5966,1100.4898,0,1,left,0.371,,1100.4913,1101.7575,1,0,right,1101.7618,1103.0574,0,0,left,1,1103.0577,1103.0577,1103.0603,1104.554,0,13,13,13,1,0.8,0.2,0.2,0.8,,,,,,,,,,,,,,,0.7289,,0.8,0.2,0.8,0.2,0.4,0.6,0.6,0.4,,,0.772,,0.2,0.8,0.6,0.4,0.2,0.8,0.6,0.4,1,0
,,64f03390a3ce93b12a268959,66fc9763e3a790fbd7a552f0,2024-10-01_18h48.35.783,mdp,2024.2.1,Win32,60.24096386,66fa4ebf79326e780c390304,,,,,,,,,,,,,,,,,,,,,1104.5557,1104.5558,1104.5575,1105.4154,1,1,right,0.3308,,1105.4182,1106.7978,1,1,right,1106.7996,1108.0447,1,0,right,1,1108.045,1108.045,1108.0476,1109.5359,0,14,14,14,1,0.8,0.2,0.2,0.8,,,,,,,,,,,,,,,0.8648,,0.8,0.2,0.8,0.2,0.4,0.6,0.6,0.4,,,0.7003,,0.2,0.8,0.6,0.4,0.2,0.8,0.6,0.4,1,0
,,64f03390a3ce93b12a268959,66fc9763e3a790fbd7a552f0,2024-10-01_18h48.35.783,mdp,2024.2.1,Win32,60.24096386,66fa4ebf79326e780c390304,,,,,,,,,,,,,,,,,,,,,1109.537,1109.5371,1109.5397,1110.3305,0,0,left,0.2666,,1110.3322,1111.471,0,1,left,1111.4736,1112.4865,1,0,right,1,1112.4868,1112.4868,1112.4904,1113.9842,0,15,15,15,1,0.8,0.2,0.2,0.8,,,,,,,,,,,,,,,0.599,,0.8,0.2,0.8,0.2,0.4,0.6,0.6,0.4,,,0.4859,,0.2,0.8,0.6,0.4,0.2,0.8,0.6,0.4,1,0
,,64f03390a3ce93b12a268959,66fc9763e3a790fbd7a552f0,2024-10-01_18h48.35.783,mdp,2024.2.1,Win32,60.24096386,66fa4ebf79326e780c390304,,,,,,,,,,,,,,,,,,,,,1113.9849,1113.9849,1113.9866,1114.6737,1,1,right,0.1594,,1114.678,1116.023,1,1,right,1116.0267,1117.1571,1,0,right,1,1117.1572,1117.1572,1117.1593,1118.6596,0,16,16,16,1,0.8,0.2,0.2,0.8,,,,,,,,,,,,,,,0.8186,,0.8,0.2,0.8,0.2,0.4,0.6,0.6,0.4,,,0.6169,,0.2,0.8,0.6,0.4,0.6,0.4,0.8,0.2,1,0
,,64f03390a3ce93b12a268959,66fc9763e3a790fbd7a552f0,2024-10-01_18h48.35.783,mdp,2024.2.1,Win32,60.24096386,66fa4ebf79326e780c390304,,,,,,,,,,,,,,,,,,,,,1118.6606,1118.6606,1118.6619,1119.5,0,0,left,0.3183,,1119.5022,1120.5252,0,1,left,1120.5269,1121.5982,1,0,right,1,1121.5986,1121.5986,1121.6008,1123.1064,0,17,17,17,1,0.8,0.2,0.2,0.8,,,,,,,,,,,,,,,0.5017,,0.8,0.2,0.8,0.2,0.4,0.6,0.6,0.4,,,0.5482,,0.2,0.8,0.6,0.4,0.6,0.4,0.8,0.2,1,0
,,64f03390a3ce93b12a268959,66fc9763e3a790fbd7a552f0,2024-10-01_18h48.35.783,mdp,2024.2.1,Win32,60.24096386,66fa4ebf79326e780c390304,,,,,,,,,,,,,,,,,,,,,1123.1077,1123.1077,1123.1092,1123.8539,1,1,right,0.2232,,1123.8561,1124.9422,0,1,left,1124.943,1126.2384,1,0,right,1,1126.2386,1126.2386,1126.2412,1127.7275,0,18,18,18,1,0.8,0.2,0.2,0.8,,,,,,,,,,,,,,,0.5532,,0.8,0.2,0.8,0.2,0.4,0.6,0.6,0.4,,,0.7662,,0.2,0.8,0.6,0.4,0.6,0.4,0.8,0.2,1,0
,,64f03390a3ce93b12a268959,66fc9763e3a790fbd7a552f0,2024-10-01_18h48.35.783,mdp,2024.2.1,Win32,60.24096386,66fa4ebf79326e780c390304,,,,,,,,,,,,,,,,,,,,,1127.7289,1127.7296,1127.732,1128.7138,0,1,left,0.4592,,1128.7155,1129.9552,0,1,left,1129.957,1131.222,0,1,left,0,1131.2222,1131.2222,1131.2244,1132.7252,0,19,19,19,1,0.4,0.6,0.6,0.4,,,,,,,,,,,,,,,0.7238,,0.8,0.2,0.8,0.2,0.4,0.6,0.6,0.4,,,0.7455,,0.2,0.8,0.6,0.4,0.6,0.4,0.8,0.2,1,0
,,64f03390a3ce93b12a268959,66fc9763e3a790fbd7a552f0,2024-10-01_18h48.35.783,mdp,2024.2.1,Win32,60.24096386,66fa4ebf79326e780c390304,,,,,,,,,,,,,,,,,,,,,1132.7257,1132.7257,1132.7266,1133.576,0,1,left,0.3353,,1133.5785,1134.8845,1,0,right,1134.8868,1136.3477,1,0,right,1,1136.3479,1136.3479,1136.3494,1137.8397,0,20,20,20,1,0.4,0.6,0.6,0.4,,,,,,,,,,,,,,,0.7784,,0.8,0.2,0.8,0.2,0.4,0.6,0.6,0.4,,,0.9219,,0.2,0.8,0.6,0.4,0.6,0.4,0.8,0.2,1,0
,,64f03390a3ce93b12a268959,66fc9763e3a790fbd7a552f0,2024-10-01_18h48.35.783,mdp,2024.2.1,Win32,60.24096386,66fa4ebf79326e780c390304,,,,,,,,,,,,,,,,,,,,,1137.8412,1137.8412,1137.8433,1138.9787,1,0,right,0.6099,,1138.9806,1142.0666,0,0,left,1142.0846,1144.5949,0,1,left,0,1144.5951,1144.5951,1144.5968,1146.0873,0,21,21,21,1,0.4,0.6,0.6,0.4,,,,,,,,,,,,,,,2.5552,,0.8,0.2,0.8,0.2,0.4,0.6,0.6,0.4,,,1.9856,,0.2,0.8,0.6,0.4,0.6,0.4,0.8,0.2,1,0
,,64f03390a3ce93b12a268959,66fc9763e3a790fbd7a552f0,2024-10-01_18h48.35.783,mdp,2024.2.1,Win32,60.24096386,66fa4ebf79326e780c390304,,,,,,,,,,,,,,,,,,,,,1146.0881,1146.0881,1146.0907,1147.5233,1,0,right,0.9045,,1147.5251,1148.8111,1,0,right,1148.8125,1150.0155,0,1,left,0,1150.0159,1150.0159,1150.0178,1151.5101,0,22,22,22,1,0.4,0.6,0.6,0.4,,,,,,,,,,,,,,,0.7586,,0.8,0.2,0.8,0.2,0.4,0.6,0.6,0.4,,,0.6837,,0.2,0.8,0.6,0.4,0.6,0.4,0.8,0.2,1,0
,,64f03390a3ce93b12a268959,66fc9763e3a790fbd7a552f0,2024-10-01_18h48.35.783,mdp,2024.2.1,Win32,60.24096386,66fa4ebf79326e780c390304,,,,,,,,,,,,,,,,,,,,,1151.5108,1151.5109,1151.5148,1152.2087,1,0,right,0.1709,,1152.2114,1153.4774,0,0,left,1153.4789,1154.6356,1,0,right,1,1154.6359,1154.636,1154.6374,1156.1334,0,23,23,23,1,0.4,0.6,0.6,0.4,,,,,,,,,,,,,,,0.7606,,0.8,0.2,0.8,0.2,0.4,0.6,0.6,0.4,,,0.6333,,0.2,0.8,0.6,0.4,0.6,0.4,0.8,0.2,1,0
,,64f03390a3ce93b12a268959,66fc9763e3a790fbd7a552f0,2024-10-01_18h48.35.783,mdp,2024.2.1,Win32,60.24096386,66fa4ebf79326e780c390304,,,,,,,,,,,,,,,,,,,,,1156.1342,1156.1342,1156.1357,1157.2924,1,0,right,0.6437,,1157.2948,1158.4672,0,0,left,1158.4685,1159.8765,1,0,right,1,1159.8767,1159.8767,1159.8787,1161.366,0,24,24,24,1,0.4,0.6,0.6,0.4,,,,,,,,,,,,,,,0.6489,,0.8,0.2,0.8,0.2,0.4,0.6,0.6,0.4,,,0.8826,,0.2,0.8,0.6,0.4,0.6,0.4,0.8,0.2,1,0
,,64f03390a3ce93b12a268959,66fc9763e3a790fbd7a552f0,2024-10-01_18h48.35.783,mdp,2024.2.1,Win32,60.24096386,66fa4ebf79326e780c390304,,,,,,,,,,,,,,,,,,,,,1161.3671,1161.3672,1161.3704,1162.3308,0,1,left,0.4278,,1162.334,1163.3105,1,0,right,1163.3134,1164.4822,1,1,right,0,1164.4825,1164.4825,1164.4854,1165.9769,0,25,25,25,1,0.4,0.6,0.6,0.4,,,,,,,,,,,,,,,0.4358,,0.8,0.2,0.8,0.2,0.4,0.6,0.6,0.4,,,0.6577,,0.2,0.8,0.6,0.4,0.6,0.4,0.8,0.2,1,0
,,64f03390a3ce93b12a268959,66fc9763e3a790fbd7a552f0,2024-10-01_18h48.35.783,mdp,2024.2.1,Win32,60.24096386,66fa4ebf79326e780c390304,,,,,,,,,,,,,,,,,,,,,1165.9788,1165.9788,1165.9806,1167.1816,1,0,right,0.6736,,1167.1855,1168.2737,0,0,left,1168.275,1169.2468,0,0,left,1,1169.2468,1169.2468,1169.2479,1170.7362,0,26,26,26,1,0.4,0.6,0.6,0.4,,,,,,,,,,,,,,,0.5688,,0.8,0.2,0.8,0.2,0.4,0.6,0.6,0.4,,,0.4407,,0.2,0.8,0.6,0.4,0.6,0.4,0.8,0.2,1,0
,,64f03390a3ce93b12a268959,66fc9763e3a790fbd7a552f0,2024-10-01_18h48.35.783,mdp,2024.2.1,Win32,60.24096386,66fa4ebf79326e780c390304,,,,,,,,,,,,,,,,,,,,,1170.7367,1170.7367,1170.7377,1171.547,1,0,right,0.2914,,1171.5499,1173.5233,1,0,right,1173.5255,1174.4888,1,0,right,1,1174.489,1174.4891,1174.4917,1175.9856,0,27,27,27,1,0.4,0.6,0.6,0.4,,,,,,,,,,,,,,,1.4581,,0.8,0.2,0.8,0.2,0.4,0.6,0.6,0.4,,,0.432,,0.2,0.8,0.6,0.4,0.6,0.4,0.8,0.2,1,0
,,64f03390a3ce93b12a268959,66fc9763e3a790fbd7a552f0,2024-10-01_18h48.35.783,mdp,2024.2.1,Win32,60.24096386,66fa4ebf79326e780c390304,,,,,,,,,,,,,,,,,,,,,1175.9872,1175.9873,1175.9891,1177.0557,1,0,right,0.5409,,1177.0579,1177.8968,0,1,left,1177.8996,1178.8285,1,0,right,1,1178.8286,1178.8286,1178.8318,1180.3166,0,28,28,28,1,0.4,0.6,0.6,0.4,,,,,,,,,,,,,,,0.3164,,0.8,0.2,0.8,0.2,0.4,0.6,0.6,0.4,,,0.4072,,0.2,0.8,0.6,0.4,0.6,0.4,0.8,0.2,1,0
,,64f03390a3ce93b12a268959,66fc9763e3a790fbd7a552f0,2024-10-01_18h48.35.783,mdp,2024.2.1,Win32,60.24096386,66fa4ebf79326e780c390304,,,,,,,,,,,,,,,,,,,,,1180.3171,1180.3171,1180.3183,1181.4236,0,1,left,0.5788,,1181.4267,1182.6384,1,0,right,1182.6423,1184.0032,1,0,right,1,1184.0038,1184.0039,1184.0063,1185.4957,0,29,29,29,1,0.4,0.6,0.6,0.4,,,,,,,,,,,,,,,0.6747,,0.8,0.2,0.8,0.2,0.4,0.6,0.6,0.4,,,0.8294,,0.2,0.8,0.6,0.4,0.6,0.4,0.8,0.2,1,0
,,64f03390a3ce93b12a268959,66fc9763e3a790fbd7a552f0,2024-10-01_18h48.35.783,mdp,2024.2.1,Win32,60.24096386,66fa4ebf79326e780c390304,,,,,,,,,,,,,,,,,,,,,1185.4962,1185.4963,1185.4997,1186.6113,0,1,left,0.5958,,1186.6133,1187.9025,1,0,right,1187.9048,1189.0873,1,1,right,0,1189.0874,1189.0874,1189.0885,1190.5881,0,30,30,30,1,0.4,0.6,0.6,0.4,,,,,,,,,,,,,,,0.7744,,0.6,0.4,0.2,0.8,0.4,0.6,0.6,0.4,,,0.6677,,0.2,0.8,0.6,0.4,0.6,0.4,0.8,0.2,1,0
,,64f03390a3ce93b12a268959,66fc9763e3a790fbd7a552f0,2024-10-01_18h48.35.783,mdp,2024.2.1,Win32,60.24096386,66fa4ebf79326e780c390304,,,,,,,,,,,,,,,,,,,,,1190.5901,1190.5902,1190.5941,1191.4207,1,1,right,0.2972,,1191.4238,1192.3826,0,1,left,1192.3862,1193.6808,0,1,left,0,1193.6809,1193.6809,1193.6836,1195.1743,0,31,31,31,1,0.4,0.6,0.6,0.4,,,,,,,,,,,,,,,0.4328,,0.6,0.4,0.2,0.8,0.4,0.6,0.6,0.4,,,0.7556,,0.8,0.2,0.8,0.2,0.6,0.4,0.8,0.2,1,0
,,64f03390a3ce93b12a268959,66fc9763e3a790fbd7a552f0,2024-10-01_18h48.35.783,mdp,2024.2.1,Win32,60.24096386,66fa4ebf79326e780c390304,,,,,,,,,,,,,,,,,,,,,1195.1754,1195.1754,1195.1772,1196.009,0,1,left,0.2955,,1196.0107,1196.9529,0,0,left,1196.9556,1198.1662,0,0,left,1,1198.1664,1198.1665,1198.1692,1199.6668,0,32,32,32,1,0.4,0.6,0.6,0.4,,,,,,,,,,,,,,,0.408,,0.6,0.4,0.2,0.8,0.4,0.6,0.6,0.4,,,0.6858,,0.8,0.2,0.8,0.2,0.6,0.4,0.8,0.2,1,0
,,64f03390a3ce93b12a268959,66fc9763e3a790fbd7a552f0,2024-10-01_18h48.35.783,mdp,2024.2.1,Win32,60.24096386,66fa4ebf79326e780c390304,,,,,,,,,,,,,,,,,,,,,1199.6672,1199.6672,1199.6681,1200.8982,1,0,right,0.6953,,1200.8997,1201.9595,1,1,right,1201.9611,1204.7712,1,0,right,1,1204.7714,1204.7714,1204.787,1206.2655,0,33,33,33,1,0.4,0.6,0.6,0.4,,,,,,,,,,,,,,,0.5204,,0.6,0.4,0.2,0.8,0.4,0.6,0.6,0.4,,,2.2715,,0.8,0.2,0.8,0.2,0.6,0.4,0.8,0.2,1,0
,,64f03390a3ce93b12a268959,66fc9763e3a790fbd7a552f0,2024-10-01_18h48.35.783,mdp,2024.2.1,Win32,60.24096386,66fa4ebf79326e780c390304,,,,,,,,,,,,,,,,,,,,,1206.2662,1206.2663,1206.2686,1207.1219,1,1,right,0.3295,,1207.1228,1208.6442,0,0,left,1208.6472,1209.7959,1,0,right,1,1209.7959,1209.7959,1209.7968,1211.2855,0,34,34,34,1,0.4,0.6,0.6,0.4,,,,,,,,,,,,,,,0.9804,,0.6,0.4,0.2,0.8,0.4,0.6,0.6,0.4,,,0.6029,,0.8,0.2,0.8,0.2,0.6,0.4,0.8,0.2,1,0
,,64f03390a3ce93b12a268959,66fc9763e3a790fbd7a552f0,2024-10-01_18h48.35.783,mdp,2024.2.1,Win32,60.24096386,66fa4ebf79326e780c390304,,,,,,,,,,,,,,,,,,,,,1211.2866,1211.2867,1211.2895,1212.3556,1,1,right,0.5388,,1212.3577,1213.8811,1,0,right,1213.8843,1214.8779,0,1,left,0,1214.8781,1214.8781,1214.8813,1216.3737,0,35,35,35,1,0.4,0.6,0.6,0.4,,,,,,,,,,,,,,,1.0048,,0.6,0.4,0.2,0.8,0.4,0.6,0.6,0.4,,,0.4691,,0.8,0.2,0.8,0.2,0.6,0.4,0.8,0.2,1,0
,,64f03390a3ce93b12a268959,66fc9763e3a790fbd7a552f0,2024-10-01_18h48.35.783,mdp,2024.2.1,Win32,60.24096386,66fa4ebf79326e780c390304,,,,,,,,,,,,,,,,,,,,,1216.3743,1216.3744,1216.3764,1217.6893,1,1,right,0.7834,,1217.6906,1218.752,1,0,right,1218.7567,1220.0048,1,1,right,0,1220.0049,1220.0049,1220.0058,1221.4981,0,36,36,36,1,0.4,0.6,0.6,0.4,,,,,,,,,,,,,,,0.5293,,0.6,0.4,0.2,0.8,0.4,0.6,0.6,0.4,,,0.7304,,0.8,0.2,0.8,0.2,0.6,0.4,0.8,0.2,1,0
,,64f03390a3ce93b12a268959,66fc9763e3a790fbd7a552f0,2024-10-01_18h48.35.783,mdp,2024.2.1,Win32,60.24096386,66fa4ebf79326e780c390304,,,,,,,,,,,,,,,,,,,,,1221.4991,1221.4991,1221.501,1222.484,0,1,left,0.4644,,1222.4868,1223.5574,1,1,right,1223.5605,1224.7714,1,0,right,1,1224.7715,1224.7715,1224.7753,1226.2696,0,37,37,37,1,0.4,0.6,0.6,0.4,,,,,,,,,,,,,,,0.5398,,0.6,0.4,0.2,0.8,0.4,0.6,0.6,0.4,,,0.6566,,0.8,0.2,0.8,0.2,0.6,0.4,0.8,0.2,1,0
,,64f03390a3ce93b12a268959,66fc9763e3a790fbd7a552f0,2024-10-01_18h48.35.783,mdp,2024.2.1,Win32,60.24096386,66fa4ebf79326e780c390304,,,,,,,,,,,,,,,,,,,,,1226.2704,1226.2704,1226.2728,1227.1511,0,1,left,0.3539,,1227.1539,1228.168,0,0,left,1228.1713,1229.1781,1,0,right,1,1229.1785,1229.1785,1229.1804,1230.677,0,38,38,38,1,0.4,0.6,0.6,0.4,,,,,,,,,,,,,,,0.4808,,0.6,0.4,0.2,0.8,0.4,0.6,0.6,0.4,,,0.4615,,0.8,0.2,0.8,0.2,0.6,0.4,0.8,0.2,1,0
,,64f03390a3ce93b12a268959,66fc9763e3a790fbd7a552f0,2024-10-01_18h48.35.783,mdp,2024.2.1,Win32,60.24096386,66fa4ebf79326e780c390304,,,,,,,,,,,,,,,,,,,,,1230.6779,1230.6779,1230.6799,1231.5915,1,0,right,0.374,,1231.5942,1232.7575,0,1,left,1232.7607,1233.9532,1,1,right,0,1233.9533,1233.9533,1233.9567,1235.4476,0,39,39,39,1,0.4,0.6,0.6,0.4,,,,,,,,,,,,,,,0.6261,,0.6,0.4,0.2,0.8,0.4,0.6,0.6,0.4,,,0.6527,,0.8,0.2,0.8,0.2,0.6,0.4,0.8,0.2,1,0
,,64f03390a3ce93b12a268959,66fc9763e3a790fbd7a552f0,2024-10-01_18h48.35.783,mdp,2024.2.1,Win32,60.24096386,66fa4ebf79326e780c390304,,,,,,,,,,,,,,,,,,,,,1235.4483,1235.4483,1235.4497,1235.9985,0,0,left,0.0189,,1236.0001,1238.3936,0,0,left,1238.3957,1239.3398,0,1,left,0,1239.3399,1239.3399,1239.3421,1240.8359,0,40,40,40,1,0.4,0.6,0.6,0.4,,,,,,,,,,,,,,,1.8428,,0.6,0.4,0.2,0.8,0.4,0.6,0.6,0.4,,,0.415,,0.2,0.8,0.4,0.6,0.6,0.4,0.8,0.2,1,0
,,64f03390a3ce93b12a268959,66fc9763e3a790fbd7a552f0,2024-10-01_18h48.35.783,mdp,2024.2.1,Win32,60.24096386,66fa4ebf79326e780c390304,,,,,,,,,,,,,,,,,,,,,1240.8371,1240.8371,1240.8396,1241.8007,0,0,left,0.4253,,1241.8023,1242.7986,0,1,left,1242.8003,1243.8106,1,0,right,1,1243.8107,1243.8107,1243.8136,1245.3066,0,41,41,41,1,0.4,0.6,0.6,0.4,,,,,,,,,,,,,,,0.4683,,0.6,0.4,0.2,0.8,0.4,0.6,0.6,0.4,,,0.4711,,0.2,0.8,0.4,0.6,0.6,0.4,0.8,0.2,1,0
,,64f03390a3ce93b12a268959,66fc9763e3a790fbd7a552f0,2024-10-01_18h48.35.783,mdp,2024.2.1,Win32,60.24096386,66fa4ebf79326e780c390304,,,,,,,,,,,,,,,,,,,,,1245.3077,1245.3077,1245.3098,1247.1791,1,1,right,1.351,,1247.1803,1248.6553,0,0,left,1248.6573,1249.6695,1,0,right,1,1249.6696,1249.6696,1249.6716,1251.1634,0,42,42,42,1,0.4,0.6,0.6,0.4,,,,,,,,,,,,,,,0.9468,,0.6,0.4,0.2,0.8,0.4,0.6,0.6,0.4,,,0.4763,,0.2,0.8,0.4,0.6,0.6,0.4,0.8,0.2,1,0
,,64f03390a3ce93b12a268959,66fc9763e3a790fbd7a552f0,2024-10-01_18h48.35.783,mdp,2024.2.1,Win32,60.24096386,66fa4ebf79326e780c390304,,,,,,,,,,,,,,,,,,,,,1251.1641,1251.1641,1251.1657,1251.9811,0,0,left,0.3027,,1251.9833,1253.0608,1,1,right,1253.0622,1254.0922,1,0,right,1,1254.0922,1254.0922,1254.093,1255.5838,0,43,43,43,1,0.6,0.4,0.2,0.8,,,,,,,,,,,,,,,0.5399,,0.6,0.4,0.2,0.8,0.4,0.6,0.6,0.4,,,0.5021,,0.2,0.8,0.4,0.6,0.6,0.4,0.8,0.2,1,0
,,64f03390a3ce93b12a268959,66fc9763e3a790fbd7a552f0,2024-10-01_18h48.35.783,mdp,2024.2.1,Win32,60.24096386,66fa4ebf79326e780c390304,,,,,,,,,,,,,,,,,,,,,1255.5845,1255.5846,1255.5872,1256.5233,1,1,right,0.4061,,1256.5246,1257.7651,1,1,right,1257.7669,1259.127,0,1,left,0,1259.1274,1259.1275,1259.1296,1260.6213,0,44,44,44,1,0.6,0.4,0.2,0.8,,,,,,,,,,,,,,,0.7087,,0.6,0.4,0.2,0.8,0.4,0.6,0.6,0.4,,,0.8214,,0.2,0.8,0.4,0.6,0.6,0.4,0.8,0.2,1,0
,,64f03390a3ce93b12a268959,66fc9763e3a790fbd7a552f0,2024-10-01_18h48.35.783,mdp,2024.2.1,Win32,60.24096386,66fa4ebf79326e780c390304,,,,,,,,,,,,,,,,,,,,,1260.6223,1260.6223,1260.6255,1261.6593,0,1,left,0.51,,1261.6613,1262.6887,1,0,right,1262.691,1263.9424,0,1,left,0,1263.9426,1263.9426,1263.9438,1265.4439,0,45,45,45,1,0.6,0.4,0.2,0.8,,,,,,,,,,,,,,,0.5026,,0.6,0.4,0.2,0.8,0.4,0.6,0.6,0.4,,,0.7154,,0.2,0.8,0.4,0.6,0.6,0.4,0.8,0.2,1,0
,,64f03390a3ce93b12a268959,66fc9763e3a790fbd7a552f0,2024-10-01_18h48.35.783,mdp,2024.2.1,Win32,60.24096386,66fa4ebf79326e780c390304,,,,,,,,,,,,,,,,,,,,,1265.4451,1265.4451,1265.4463,1266.2461,1,1,right,0.2594,,1266.2484,1267.4589,1,0,right,1267.461,1268.8027,1,1,right,0,1268.8028,1268.8028,1268.8043,1270.2938,0,46,46,46,1,0.6,0.4,0.2,0.8,,,,,,,,,,,,,,,0.678,,0.6,0.4,0.2,0.8,0.4,0.6,0.6,0.4,,,0.8113,,0.2,0.8,0.4,0.6,0.6,0.4,0.8,0.2,1,0
,,64f03390a3ce93b12a268959,66fc9763e3a790fbd7a552f0,2024-10-01_18h48.35.783,mdp,2024.2.1,Win32,60.24096386,66fa4ebf79326e780c390304,,,,,,,,,,,,,,,,,,,,,1270.2949,1270.2951,1270.2965,1271.2588,0,1,left,0.4456,,1271.2604,1272.5992,0,1,left,1272.6003,1273.6589,1,0,right,1,1273.659,1273.659,1273.6618,1275.1588,0,47,47,47,1,0.6,0.4,0.2,0.8,,,,,,,,,,,,,,,0.8269,,0.8,0.2,0.4,0.6,0.4,0.6,0.6,0.4,,,0.5208,,0.2,0.8,0.4,0.6,0.6,0.4,0.8,0.2,1,0
,,64f03390a3ce93b12a268959,66fc9763e3a790fbd7a552f0,2024-10-01_18h48.35.783,mdp,2024.2.1,Win32,60.24096386,66fa4ebf79326e780c390304,,,,,,,,,,,,,,,,,,,,,1275.1595,1275.1595,1275.1609,1276.0729,1,1,right,0.3867,,1276.0751,1277.3067,0,1,left,1277.3079,1278.6787,1,0,right,1,1278.679,1278.679,1278.6814,1280.1764,0,48,48,48,1,0.6,0.4,0.2,0.8,,,,,,,,,,,,,,,0.7147,,0.8,0.2,0.4,0.6,0.4,0.6,0.6,0.4,,,0.8372,,0.2,0.8,0.4,0.6,0.6,0.4,0.8,0.2,1,0
,,64f03390a3ce93b12a268959,66fc9763e3a790fbd7a552f0,2024-10-01_18h48.35.783,mdp,2024.2.1,Win32,60.24096386,66fa4ebf79326e780c390304,,,,,,,,,,,,,,,,,,,,,1280.1775,1280.1775,1280.1799,1281.0382,1,1,right,0.3295,,1281.0406,1282.2256,0,1,left,1282.2268,1283.402,1,0,right,1,1283.4022,1283.4022,1283.4049,1284.8975,0,49,49,49,1,0.6,0.4,0.2,0.8,,,,,,,,,,,,,,,0.671,,0.8,0.2,0.4,0.6,0.4,0.6,0.6,0.4,,,0.6476,,0.2,0.8,0.4,0.6,0.6,0.4,0.8,0.2,1,0
,,64f03390a3ce93b12a268959,66fc9763e3a790fbd7a552f0,2024-10-01_18h48.35.783,mdp,2024.2.1,Win32,60.24096386,66fa4ebf79326e780c390304,,,,,,,,,,,,,,,,,,,,,,,,,,,,,,,,,,,,,,,,,,,,,,,,,,,,,,,,1284.8977,1343.4125,0,2,2,6,1,imgs/elephant.png,imgs/goat.png,imgs/horse.png,imgs/bear.png,imgs/cat.png,,,,,,,,,,,,,,,,,,,,,,,,
,,64f03390a3ce93b12a268959,66fc9763e3a790fbd7a552f0,2024-10-01_18h48.35.783,mdp,2024.2.1,Win32,60.24096386,66fa4ebf79326e780c390304,,,,,,,,,,,,,,3,seqs/st3seq47.csv,1343.4286,1373.6953,space,29.7366,,1373.7276,1373.7276,1373.729,1375.2717,1,1,right,1.004,,1375.2738,1376.6874,1,1,right,1376.6902,1378.0025,1,0,right,1,1378.0029,1378.0029,1378.005,1379.5002,0,0,0,0,1,0.6,0.4,0.4,0.6,,,,,,,,,,,,,,,0.8777,,0.8,0.2,0.4,0.6,0.8,0.2,0.2,0.8,,,0.7721,,0.6,0.4,0.4,0.6,0.6,0.4,0.8,0.2,1,0
,,64f03390a3ce93b12a268959,66fc9763e3a790fbd7a552f0,2024-10-01_18h48.35.783,mdp,2024.2.1,Win32,60.24096386,66fa4ebf79326e780c390304,,,,,,,,,,,,,,,,,,,,,1379.5009,1379.5009,1379.5022,1381.0609,0,0,left,1.0349,,1381.0635,1382.6226,0,1,left,1382.6238,1384.753,1,0,right,1,1384.7533,1384.7533,1384.7552,1386.2483,0,1,1,1,1,0.6,0.4,0.4,0.6,,,,,,,,,,,,,,,1.0284,,0.8,0.2,0.4,0.6,0.8,0.2,0.2,0.8,,,1.6074,,0.6,0.4,0.4,0.6,0.6,0.4,0.8,0.2,1,0
,,64f03390a3ce93b12a268959,66fc9763e3a790fbd7a552f0,2024-10-01_18h48.35.783,mdp,2024.2.1,Win32,60.24096386,66fa4ebf79326e780c390304,,,,,,,,,,,,,,,,,,,,,1386.2497,1386.2497,1386.2516,1387.498,0,1,left,0.7166,,1387.5002,1389.0173,1,1,right,1389.0184,1390.7033,1,1,right,0,1390.7033,1390.7033,1390.7061,1392.2025,0,2,2,2,1,0.6,0.4,0.4,0.6,,,,,,,,,,,,,,,0.9938,,0.8,0.2,0.4,0.6,0.8,0.2,0.2,0.8,,,1.1672,,0.6,0.4,0.4,0.6,0.6,0.4,0.8,0.2,1,0
,,64f03390a3ce93b12a268959,66fc9763e3a790fbd7a552f0,2024-10-01_18h48.35.783,mdp,2024.2.1,Win32,60.24096386,66fa4ebf79326e780c390304,,,,,,,,,,,,,,,,,,,,,1392.2036,1392.2036,1392.2058,1393.3461,1,0,right,0.5875,,1393.35,1394.6021,0,0,left,1394.6035,1396.0557,0,1,left,0,1396.0557,1396.0558,1396.0584,1397.5379,0,3,3,3,1,0.6,0.4,0.4,0.6,,,,,,,,,,,,,,,0.7248,,0.8,0.2,0.4,0.6,0.8,0.2,0.2,0.8,,,0.9151,,0.6,0.4,0.4,0.6,0.6,0.4,0.8,0.2,1,0
,,64f03390a3ce93b12a268959,66fc9763e3a790fbd7a552f0,2024-10-01_18h48.35.783,mdp,2024.2.1,Win32,60.24096386,66fa4ebf79326e780c390304,,,,,,,,,,,,,,,,,,,,,1397.5384,1397.5385,1397.5401,1398.4619,0,0,left,0.3905,,1398.4632,1399.4376,1,1,right,1399.4406,1400.7032,1,0,right,1,1400.7033,1400.7033,1400.7051,1402.1972,0,4,4,4,1,0.6,0.4,0.4,0.6,,,,,,,,,,,,,,,0.4409,,0.8,0.2,0.4,0.6,0.8,0.2,0.2,0.8,,,0.7256,,0.4,0.6,0.6,0.4,0.6,0.4,0.8,0.2,1,0
,,64f03390a3ce93b12a268959,66fc9763e3a790fbd7a552f0,2024-10-01_18h48.35.783,mdp,2024.2.1,Win32,60.24096386,66fa4ebf79326e780c390304,,,,,,,,,,,,,,,,,,,,,1402.1982,1402.1983,1402.2007,1403.2889,0,0,left,0.5371,,1403.2906,1405.1013,1,1,right,1405.104,1406.5509,1,0,right,1,1406.551,1406.551,1406.5535,1408.0449,0,5,5,5,1,0.6,0.4,0.4,0.6,,,,,,,,,,,,,,,1.301,,0.8,0.2,0.4,0.6,0.8,0.2,0.2,0.8,,,0.9196,,0.4,0.6,0.6,0.4,0.6,0.4,0.8,0.2,1,0
,,64f03390a3ce93b12a268959,66fc9763e3a790fbd7a552f0,2024-10-01_18h48.35.783,mdp,2024.2.1,Win32,60.24096386,66fa4ebf79326e780c390304,,,,,,,,,,,,,,,,,,,,,1408.0457,1408.0458,1408.0483,1409.3088,1,0,right,0.7372,,1409.3118,1410.5148,0,1,left,1410.516,1411.5094,1,1,right,0,1411.5094,1411.5094,1411.5108,1413.0007,0,6,6,6,1,0.6,0.4,0.4,0.6,,,,,,,,,,,,,,,0.6808,,0.8,0.2,0.4,0.6,0.8,0.2,0.2,0.8,,,0.4678,,0.4,0.6,0.6,0.4,0.6,0.4,0.8,0.2,1,0
,,64f03390a3ce93b12a268959,66fc9763e3a790fbd7a552f0,2024-10-01_18h48.35.783,mdp,2024.2.1,Win32,60.24096386,66fa4ebf79326e780c390304,,,,,,,,,,,,,,,,,,,,,1413.0015,1413.0015,1413.0042,1413.9515,1,0,right,0.4211,,1413.9535,1415.196,0,1,left,1415.1974,1416.3932,0,0,left,1,1416.3935,1416.3935,1416.3971,1417.89,0,7,7,7,1,0.6,0.4,0.4,0.6,,,,,,,,,,,,,,,0.7108,,0.8,0.2,0.4,0.6,0.8,0.2,0.2,0.8,,,0.6747,,0.4,0.6,0.6,0.4,0.6,0.4,0.8,0.2,1,0
,,64f03390a3ce93b12a268959,66fc9763e3a790fbd7a552f0,2024-10-01_18h48.35.783,mdp,2024.2.1,Win32,60.24096386,66fa4ebf79326e780c390304,,,,,,,,,,,,,,,,,,,,,1417.8911,1417.8912,1417.8932,1418.7239,1,0,right,0.3079,,1418.7254,1419.8036,0,0,left,1419.8065,1420.8667,1,0,right,1,1420.8669,1420.8669,1420.8687,1422.365,0,8,8,8,1,0.6,0.4,0.4,0.6,,,,,,,,,,,,,,,0.5446,,0.8,0.2,0.4,0.6,0.8,0.2,0.2,0.8,,,0.5253,,0.4,0.6,0.6,0.4,0.6,0.4,0.8,0.2,1,0
,,64f03390a3ce93b12a268959,66fc9763e3a790fbd7a552f0,2024-10-01_18h48.35.783,mdp,2024.2.1,Win32,60.24096386,66fa4ebf79326e780c390304,,,,,,,,,,,,,,,,,,,,,1422.3671,1422.3672,1422.3687,1423.2615,1,0,right,0.3373,,1423.2642,1424.4613,0,0,left,1424.4627,1425.8221,0,1,left,0,1425.8222,1425.8222,1425.8249,1427.3239,0,9,9,9,1,0.6,0.4,0.4,0.6,,,,,,,,,,,,,,,0.672,,0.8,0.2,0.4,0.6,0.8,0.2,0.2,0.8,,,0.8298,,0.4,0.6,0.6,0.4,0.6,0.4,0.8,0.2,1,0
,,64f03390a3ce93b12a268959,66fc9763e3a790fbd7a552f0,2024-10-01_18h48.35.783,mdp,2024.2.1,Win32,60.24096386,66fa4ebf79326e780c390304,,,,,,,,,,,,,,,,,,,,,1427.3244,1427.3244,1427.3255,1428.0628,1,1,right,0.2077,,1428.0657,1429.0831,1,0,right,1429.085,1430.6677,0,0,left,1,1430.6679,1430.668,1430.6703,1432.1686,0,10,10,10,1,0.6,0.4,0.4,0.6,,,,,,,,,,,,,,,0.4784,,0.8,0.2,0.4,0.6,0.2,0.8,0.8,0.2,,,1.0587,,0.4,0.6,0.6,0.4,0.6,0.4,0.8,0.2,1,0
,,64f03390a3ce93b12a268959,66fc9763e3a790fbd7a552f0,2024-10-01_18h48.35.783,mdp,2024.2.1,Win32,60.24096386,66fa4ebf79326e780c390304,,,,,,,,,,,,,,,,,,,,,1432.1691,1432.1691,1432.1713,1433.037,1,1,right,0.3471,,1433.0397,1434.0841,0,1,left,1434.0891,1435.1814,1,1,right,0,1435.1814,1435.1814,1435.1835,1436.6816,0,11,11,11,1,0.6,0.4,0.4,0.6,,,,,,,,,,,,,,,0.5179,,0.8,0.2,0.4,0.6,0.2,0.8,0.8,0.2,,,0.5425,,0.4,0.6,0.6,0.4,0.6,0.4,0.8,0.2,1,0
,,64f03390a3ce93b12a268959,66fc9763e3a790fbd7a552f0,2024-10-01_18h48.35.783,mdp,2024.2.1,Win32,60.24096386,66fa4ebf79326e780c390304,,,,,,,,,,,,,,,,,,,,,1436.6822,1436.6822,1436.6848,1437.5235,1,0,right,0.3052,,1437.5271,1438.4947,1,1,right,1438.4965,1439.4769,0,0,left,1,1439.4771,1439.4771,1439.4783,1440.9858,0,12,12,12,1,0.6,0.4,0.4,0.6,,,,,,,,,,,,,,,0.4428,,0.8,0.2,0.4,0.6,0.2,0.8,0.8,0.2,,,0.4739,,0.4,0.6,0.6,0.4,0.6,0.4,0.8,0.2,1,0
,,64f03390a3ce93b12a268959,66fc9763e3a790fbd7a552f0,2024-10-01_18h48.35.783,mdp,2024.2.1,Win32,60.24096386,66fa4ebf79326e780c390304,,,,,,,,,,,,,,,,,,,,,1440.987,1440.9871,1440.9893,1441.6856,1,0,right,0.1912,,1441.688,1442.5354,0,1,left,1442.5367,1443.5667,1,0,right,1,1443.5669,1443.567,1443.5701,1445.0591,0,13,13,13,1,0.6,0.4,0.4,0.6,,,,,,,,,,,,,,,0.3168,,0.8,0.2,0.4,0.6,0.2,0.8,0.8,0.2,,,0.5085,,0.4,0.6,0.6,0.4,0.2,0.8,0.6,0.4,1,0
,,64f03390a3ce93b12a268959,66fc9763e3a790fbd7a552f0,2024-10-01_18h48.35.783,mdp,2024.2.1,Win32,60.24096386,66fa4ebf79326e780c390304,,,,,,,,,,,,,,,,,,,,,1445.0611,1445.0612,1445.0632,1445.9755,1,0,right,0.3856,,1445.9777,1446.8255,0,0,left,1446.8272,1447.7357,1,0,right,1,1447.7358,1447.7358,1447.739,1449.232,0,14,14,14,1,0.6,0.4,0.4,0.6,,,,,,,,,,,,,,,0.3204,,0.8,0.2,0.4,0.6,0.2,0.8,0.8,0.2,,,0.3782,,0.4,0.6,0.6,0.4,0.2,0.8,0.6,0.4,1,0
,,64f03390a3ce93b12a268959,66fc9763e3a790fbd7a552f0,2024-10-01_18h48.35.783,mdp,2024.2.1,Win32,60.24096386,66fa4ebf79326e780c390304,,,,,,,,,,,,,,,,,,,,,1449.2325,1449.2325,1449.2353,1450.0655,1,1,right,0.3031,,1450.0683,1450.9282,0,1,left,1450.9317,1451.8097,0,0,left,1,1451.8098,1451.8099,1451.8134,1453.3059,0,15,15,15,1,0.6,0.4,0.4,0.6,,,,,,,,,,,,,,,0.3132,,0.8,0.2,0.4,0.6,0.2,0.8,0.8,0.2,,,0.3459,,0.4,0.6,0.6,0.4,0.2,0.8,0.6,0.4,1,0
,,64f03390a3ce93b12a268959,66fc9763e3a790fbd7a552f0,2024-10-01_18h48.35.783,mdp,2024.2.1,Win32,60.24096386,66fa4ebf79326e780c390304,,,,,,,,,,,,,,,,,,,,,1453.3068,1453.3069,1453.3091,1454.2062,1,1,right,0.3735,0.0001,1454.208,1455.0381,0,1,left,1455.0412,1455.9331,1,0,right,1,1455.9333,1455.9333,1455.9348,1457.4371,0,16,16,16,1,0.6,0.4,0.4,0.6,,,,,,,,,,,,,,,0.2756,,0.8,0.2,0.4,0.6,0.6,0.4,0.4,0.6,,,0.3628,,0.4,0.6,0.6,0.4,0.2,0.8,0.6,0.4,1,0
,,64f03390a3ce93b12a268959,66fc9763e3a790fbd7a552f0,2024-10-01_18h48.35.783,mdp,2024.2.1,Win32,60.24096386,66fa4ebf79326e780c390304,,,,,,,,,,,,,,,,,,,,,1457.4376,1457.4377,1457.4385,1457.9625,0,0,left,0.0011,,1457.9664,1458.8438,0,0,left,1458.8465,1459.7574,1,1,right,0,1459.7575,1459.7576,1459.7606,1461.2357,0,17,17,17,1,0.6,0.4,0.4,0.6,,,,,,,,,,,,,,,0.3471,,0.8,0.2,0.4,0.6,0.6,0.4,0.4,0.6,,,0.3734,,0.4,0.6,0.6,0.4,0.2,0.8,0.6,0.4,1,0
,,64f03390a3ce93b12a268959,66fc9763e3a790fbd7a552f0,2024-10-01_18h48.35.783,mdp,2024.2.1,Win32,60.24096386,66fa4ebf79326e780c390304,,,,,,,,,,,,,,,,,,,,,1461.2363,1461.2363,1461.2384,1461.8624,0,0,left,0.0953,,1461.8661,1462.785,0,0,left,1462.7874,1464.0819,1,0,right,1,1464.0822,1464.0822,1464.0853,1465.5777,0,18,18,18,1,0.6,0.4,0.4,0.6,,,,,,,,,,,,,,,0.3783,,0.8,0.2,0.4,0.6,0.6,0.4,0.4,0.6,,,0.7583,,0.4,0.6,0.6,0.4,0.2,0.8,0.6,0.4,1,0
,,64f03390a3ce93b12a268959,66fc9763e3a790fbd7a552f0,2024-10-01_18h48.35.783,mdp,2024.2.1,Win32,60.24096386,66fa4ebf79326e780c390304,,,,,,,,,,,,,,,,,,,,,1465.5784,1465.5784,1465.5814,1466.2104,0,0,left,0.1018,,1466.213,1466.9276,1,0,right,1466.9304,1467.7895,1,1,right,0,1467.7897,1467.7897,1467.7931,1469.2855,0,19,19,19,1,0.6,0.4,0.4,0.6,,,,,,,,,,,,,,,0.1857,,0.8,0.2,0.4,0.6,0.6,0.4,0.4,0.6,,,0.3313,,0.4,0.6,0.6,0.4,0.2,0.8,0.6,0.4,1,0
,,64f03390a3ce93b12a268959,66fc9763e3a790fbd7a552f0,2024-10-01_18h48.35.783,mdp,2024.2.1,Win32,60.24096386,66fa4ebf79326e780c390304,,,,,,,,,,,,,,,,,,,,,1469.2864,1469.2865,1469.2882,1470.1502,0,0,left,0.3325,,1470.1523,1471.048,0,0,left,1471.0508,1471.8819,1,0,right,1,1471.8821,1471.8822,1471.8839,1473.3783,0,20,20,20,1,0.6,0.4,0.4,0.6,,,,,,,,,,,,,,,0.3788,,0.8,0.2,0.4,0.6,0.6,0.4,0.4,0.6,,,0.3004,,0.4,0.6,0.6,0.4,0.2,0.8,0.6,0.4,1,0
,,64f03390a3ce93b12a268959,66fc9763e3a790fbd7a552f0,2024-10-01_18h48.35.783,mdp,2024.2.1,Win32,60.24096386,66fa4ebf79326e780c390304,,,,,,,,,,,,,,,,,,,,,1473.3803,1473.3804,1473.3829,1474.2917,0,0,left,0.382,,1474.2945,1475.1384,1,1,right,1475.1413,1476.0056,1,1,right,0,1476.0057,1476.0057,1476.0072,1477.505,0,21,21,21,1,0.6,0.4,0.4,0.6,,,,,,,,,,,,,,,0.3135,,0.8,0.2,0.4,0.6,0.6,0.4,0.4,0.6,,,0.3202,,0.4,0.6,0.6,0.4,0.2,0.8,0.6,0.4,1,0
,,64f03390a3ce93b12a268959,66fc9763e3a790fbd7a552f0,2024-10-01_18h48.35.783,mdp,2024.2.1,Win32,60.24096386,66fa4ebf79326e780c390304,,,,,,,,,,,,,,,,,,,,,1477.5064,1477.5064,1477.5104,1478.1982,0,1,left,0.1616,,1478.2004,1479.1164,0,0,left,1479.1185,1479.9773,0,1,left,0,1479.9774,1479.9774,1479.9805,1481.4761,0,22,22,22,1,0.6,0.4,0.4,0.6,,,,,,,,,,,,,,,0.3711,,0.8,0.2,0.4,0.6,0.6,0.4,0.4,0.6,,,0.319,,0.4,0.6,0.6,0.4,0.2,0.8,0.6,0.4,1,0
,,64f03390a3ce93b12a268959,66fc9763e3a790fbd7a552f0,2024-10-01_18h48.35.783,mdp,2024.2.1,Win32,60.24096386,66fa4ebf79326e780c390304,,,,,,,,,,,,,,,,,,,,,1481.4769,1481.4769,1481.4816,1482.0865,1,1,right,0.0757,,1482.089,1483.0304,1,0,right,1483.0327,1483.868,0,1,left,0,1483.8682,1483.8682,1483.8717,1485.3669,0,23,23,23,1,0.6,0.4,0.4,0.6,,,,,,,,,,,,,,,0.4254,,0.8,0.2,0.4,0.6,0.6,0.4,0.4,0.6,,,0.3171,,0.4,0.6,0.6,0.4,0.2,0.8,0.6,0.4,1,0
,,64f03390a3ce93b12a268959,66fc9763e3a790fbd7a552f0,2024-10-01_18h48.35.783,mdp,2024.2.1,Win32,60.24096386,66fa4ebf79326e780c390304,,,,,,,,,,,,,,,,,,,,,1485.3675,1485.3676,1485.3695,1486.2348,0,0,left,0.34,,1486.2369,1487.0907,1,1,right,1487.0933,1488.1449,1,0,right,1,1488.1452,1488.1452,1488.1476,1489.6238,0,24,24,24,1,0.8,0.2,0.8,0.2,,,,,,,,,,,,,,,0.2989,,0.8,0.2,0.4,0.6,0.6,0.4,0.4,0.6,,,0.51,,0.4,0.6,0.6,0.4,0.2,0.8,0.6,0.4,1,0
,,64f03390a3ce93b12a268959,66fc9763e3a790fbd7a552f0,2024-10-01_18h48.35.783,mdp,2024.2.1,Win32,60.24096386,66fa4ebf79326e780c390304,,,,,,,,,,,,,,,,,,,,,1489.6247,1489.6247,1489.6264,1490.4158,0,0,left,0.2596,,1490.4168,1491.0742,1,1,right,1491.0764,1491.9996,1,0,right,1,1491.9999,1491.9999,1492.0025,1493.5169,0,25,25,25,1,0.8,0.2,0.8,0.2,,,,,,,,,,,,,,,0.1408,,0.8,0.2,0.4,0.6,0.6,0.4,0.4,0.6,,,0.4042,,0.8,0.2,0.8,0.2,0.2,0.8,0.6,0.4,1,0
,,64f03390a3ce93b12a268959,66fc9763e3a790fbd7a552f0,2024-10-01_18h48.35.783,mdp,2024.2.1,Win32,60.24096386,66fa4ebf79326e780c390304,,,,,,,,,,,,,,,,,,,,,1493.5175,1493.5175,1493.5194,1494.3514,1,0,right,0.3043,,1494.3527,1495.409,0,1,left,1495.4125,1496.2597,1,1,right,0,1496.2599,1496.2599,1496.262,1497.7529,0,26,26,26,1,0.8,0.2,0.8,0.2,,,,,,,,,,,,,,,0.5134,,0.8,0.2,0.4,0.6,0.6,0.4,0.4,0.6,,,0.3207,,0.8,0.2,0.8,0.2,0.2,0.8,0.6,0.4,1,0
,,64f03390a3ce93b12a268959,66fc9763e3a790fbd7a552f0,2024-10-01_18h48.35.783,mdp,2024.2.1,Win32,60.24096386,66fa4ebf79326e780c390304,,,,,,,,,,,,,,,,,,,,,1497.7534,1497.7534,1497.7555,1498.5012,1,0,right,0.2138,,1498.5037,1499.6488,1,1,right,1499.6507,1500.7232,1,0,right,1,1500.7233,1500.7233,1500.7253,1502.2199,0,27,27,27,1,0.8,0.2,0.8,0.2,,,,,,,,,,,,,,,0.6164,,0.8,0.2,0.4,0.6,0.6,0.4,0.4,0.6,,,0.5609,,0.8,0.2,0.8,0.2,0.2,0.8,0.6,0.4,1,0
,,64f03390a3ce93b12a268959,66fc9763e3a790fbd7a552f0,2024-10-01_18h48.35.783,mdp,2024.2.1,Win32,60.24096386,66fa4ebf79326e780c390304,,,,,,,,,,,,,,,,,,,,,1502.2206,1502.2206,1502.2222,1503.1406,1,0,right,0.3804,,1503.1435,1504.123,1,1,right,1504.1265,1505.1129,1,0,right,1,1505.1131,1505.1131,1505.1145,1506.6014,0,28,28,28,1,0.8,0.2,0.8,0.2,,,,,,,,,,,,,,,0.4488,,0.8,0.2,0.4,0.6,0.6,0.4,0.4,0.6,,,0.4499,,0.8,0.2,0.8,0.2,0.2,0.8,0.6,0.4,1,0
,,64f03390a3ce93b12a268959,66fc9763e3a790fbd7a552f0,2024-10-01_18h48.35.783,mdp,2024.2.1,Win32,60.24096386,66fa4ebf79326e780c390304,,,,,,,,,,,,,,,,,,,,,1506.6031,1506.6031,1506.6044,1507.4517,1,1,right,0.2896,,1507.4538,1508.9802,0,0,left,1508.9821,1510.4465,1,1,right,0,1510.4467,1510.4467,1510.4484,1511.9558,0,29,29,29,1,0.8,0.2,0.8,0.2,,,,,,,,,,,,,,,0.9954,0.0045,0.8,0.2,0.4,0.6,0.6,0.4,0.4,0.6,,,0.9353,,0.2,0.8,0.4,0.6,0.2,0.8,0.6,0.4,1,0
,,64f03390a3ce93b12a268959,66fc9763e3a790fbd7a552f0,2024-10-01_18h48.35.783,mdp,2024.2.1,Win32,60.24096386,66fa4ebf79326e780c390304,,,,,,,,,,,,,,,,,,,,,1511.9565,1511.9565,1511.9583,1512.8344,1,0,right,0.3521,,1512.837,1514.2524,1,0,right,1514.2535,1515.5664,0,0,left,1,1515.5666,1515.5666,1515.5677,1517.0546,0,30,30,30,1,0.8,0.2,0.8,0.2,,,,,,,,,,,,,,,0.8816,,0.8,0.2,0.4,0.6,0.6,0.4,0.4,0.6,,,0.7837,,0.2,0.8,0.4,0.6,0.2,0.8,0.6,0.4,1,0
,,64f03390a3ce93b12a268959,66fc9763e3a790fbd7a552f0,2024-10-01_18h48.35.783,mdp,2024.2.1,Win32,60.24096386,66fa4ebf79326e780c390304,,,,,,,,,,,,,,,,,,,,,1517.055,1517.0551,1517.0561,1517.8248,1,0,right,0.2538,,1517.8265,1518.9172,1,0,right,1518.9198,1520.3732,0,1,left,0,1520.3733,1520.3733,1520.3743,1521.8633,0,31,31,31,1,0.8,0.2,0.8,0.2,,,,,,,,,,,,,,,0.5706,,0.8,0.2,0.4,0.6,0.6,0.4,0.4,0.6,,,0.9378,,0.2,0.8,0.4,0.6,0.2,0.8,0.6,0.4,1,0
,,64f03390a3ce93b12a268959,66fc9763e3a790fbd7a552f0,2024-10-01_18h48.35.783,mdp,2024.2.1,Win32,60.24096386,66fa4ebf79326e780c390304,,,,,,,,,,,,,,,,,,,,,1521.8642,1521.8642,1521.8678,1522.5335,1,1,right,0.1437,,1522.535,1523.7123,0,1,left,1523.7154,1525.2555,1,0,right,1,1525.2556,1525.2556,1525.2587,1526.7415,0,32,32,32,1,0.8,0.2,0.8,0.2,,,,,,,,,,,,,,,0.6388,,0.8,0.2,0.4,0.6,0.6,0.4,0.4,0.6,,,1.0069,,0.2,0.8,0.4,0.6,0.2,0.8,0.6,0.4,1,0
,,64f03390a3ce93b12a268959,66fc9763e3a790fbd7a552f0,2024-10-01_18h48.35.783,mdp,2024.2.1,Win32,60.24096386,66fa4ebf79326e780c390304,,,,,,,,,,,,,,,,,,,,,1526.742,1526.742,1526.743,1527.8166,0,0,left,0.5413,,1527.8189,1529.0342,1,1,right,1529.0356,1530.9686,1,0,right,1,1530.9687,1530.9687,1530.9702,1532.458,0,33,33,33,1,0.8,0.2,0.8,0.2,,,,,,,,,,,,,,,0.686,,0.2,0.8,0.6,0.4,0.6,0.4,0.4,0.6,,,1.4036,,0.2,0.8,0.4,0.6,0.2,0.8,0.6,0.4,1,0
,,64f03390a3ce93b12a268959,66fc9763e3a790fbd7a552f0,2024-10-01_18h48.35.783,mdp,2024.2.1,Win32,60.24096386,66fa4ebf79326e780c390304,,,,,,,,,,,,,,,,,,,,,1532.4586,1532.4586,1532.4597,1533.2395,0,0,left,0.2557,,1533.2424,1534.1683,1,0,right,1534.1707,1535.1849,1,0,right,1,1535.1852,1535.1853,1535.1879,1536.6677,0,34,34,34,1,0.8,0.2,0.8,0.2,,,,,,,,,,,,,,,0.3948,,0.2,0.8,0.6,0.4,0.6,0.4,0.4,0.6,,,0.4599,,0.4,0.6,0.6,0.4,0.2,0.8,0.6,0.4,1,0
,,64f03390a3ce93b12a268959,66fc9763e3a790fbd7a552f0,2024-10-01_18h48.35.783,mdp,2024.2.1,Win32,60.24096386,66fa4ebf79326e780c390304,,,,,,,,,,,,,,,,,,,,,1536.6682,1536.6682,1536.6694,1537.5102,0,0,left,0.315,,1537.5131,1538.4935,0,1,left,1538.4962,1539.7741,1,0,right,1,1539.7743,1539.7744,1539.7769,1541.273,0,35,35,35,1,0.8,0.2,0.8,0.2,,,,,,,,,,,,,,,0.4559,,0.2,0.8,0.6,0.4,0.6,0.4,0.4,0.6,,,0.7476,,0.4,0.6,0.6,0.4,0.2,0.8,0.6,0.4,1,0
,,64f03390a3ce93b12a268959,66fc9763e3a790fbd7a552f0,2024-10-01_18h48.35.783,mdp,2024.2.1,Win32,60.24096386,66fa4ebf79326e780c390304,,,,,,,,,,,,,,,,,,,,,1541.274,1541.274,1541.2756,1542.0791,0,0,left,0.2764,,1542.0806,1543.2967,0,0,left,1543.2992,1544.5329,1,0,right,1,1544.5331,1544.5331,1544.5348,1546.0274,0,36,36,36,1,0.8,0.2,0.8,0.2,,,,,,,,,,,,,,,0.6865,,0.4,0.6,0.8,0.2,0.6,0.4,0.4,0.6,,,0.7007,,0.4,0.6,0.6,0.4,0.2,0.8,0.6,0.4,1,0
,,64f03390a3ce93b12a268959,66fc9763e3a790fbd7a552f0,2024-10-01_18h48.35.783,mdp,2024.2.1,Win32,60.24096386,66fa4ebf79326e780c390304,,,,,,,,,,,,,,,,,,,,,1546.0291,1546.0291,1546.0309,1546.8719,1,0,right,0.3125,,1546.8745,1547.775,0,1,left,1547.776,1548.7764,1,0,right,1,1548.7767,1548.7767,1548.7784,1550.2674,0,37,37,37,1,0.8,0.2,0.8,0.2,,,,,,,,,,,,,,,0.3856,,0.4,0.6,0.8,0.2,0.6,0.4,0.4,0.6,,,0.4567,0.0064,0.4,0.6,0.6,0.4,0.2,0.8,0.6,0.4,1,0
,,64f03390a3ce93b12a268959,66fc9763e3a790fbd7a552f0,2024-10-01_18h48.35.783,mdp,2024.2.1,Win32,60.24096386,66fa4ebf79326e780c390304,,,,,,,,,,,,,,,,,,,,,1550.2678,1550.2678,1550.2689,1551.1121,1,0,right,0.306,,1551.1141,1552.068,1,0,right,1552.0693,1553.1107,0,1,left,0,1553.1108,1553.1108,1553.1127,1554.6143,0,38,38,38,1,0.8,0.2,0.8,0.2,,,,,,,,,,,,,,,0.4294,,0.4,0.6,0.8,0.2,0.6,0.4,0.4,0.6,,,0.4657,,0.4,0.6,0.6,0.4,0.2,0.8,0.6,0.4,1,0
,,64f03390a3ce93b12a268959,66fc9763e3a790fbd7a552f0,2024-10-01_18h48.35.783,mdp,2024.2.1,Win32,60.24096386,66fa4ebf79326e780c390304,,,,,,,,,,,,,,,,,,,,,1554.6156,1554.6156,1554.617,1555.3536,1,0,right,0.209,,1555.3567,1556.4843,1,1,right,1556.4884,1557.6651,1,1,right,0,1557.6653,1557.6653,1557.6685,1559.1075,0,39,39,39,1,0.8,0.2,0.8,0.2,,,,,,,,,,,,,,,0.5908,,0.8,0.2,0.2,0.8,0.6,0.4,0.4,0.6,,,0.5965,0.0119,0.4,0.6,0.6,0.4,0.2,0.8,0.6,0.4,1,0
,,64f03390a3ce93b12a268959,66fc9763e3a790fbd7a552f0,2024-10-01_18h48.35.783,mdp,2024.2.1,Win32,60.24096386,66fa4ebf79326e780c390304,,,,,,,,,,,,,,,,,,,,,1559.1086,1559.1088,1559.1115,1560.4135,1,0,right,0.5479,0.0004,1560.416,1561.4666,0,0,left,1561.4689,1562.8372,1,1,right,0,1562.8376,1562.8376,1562.8394,1564.3327,0,40,40,40,1,0.8,0.2,0.8,0.2,,,,,,,,,,,,,,,0.4436,,0.8,0.2,0.2,0.8,0.6,0.4,0.4,0.6,,,0.7304,,0.4,0.6,0.6,0.4,0.2,0.8,0.6,0.4,1,0
,,64f03390a3ce93b12a268959,66fc9763e3a790fbd7a552f0,2024-10-01_18h48.35.783,mdp,2024.2.1,Win32,60.24096386,66fa4ebf79326e780c390304,,,,,,,,,,,,,,,,,,,,,1564.3339,1564.3339,1564.3364,1565.5645,1,0,right,0.6836,,1565.5671,1566.4946,1,1,right,1566.4962,1567.4297,0,0,left,1,1567.4298,1567.4298,1567.4311,1568.9159,0,41,41,41,1,0.8,0.2,0.8,0.2,,,,,,,,,,,,,,,0.4007,,0.8,0.2,0.2,0.8,0.6,0.4,0.4,0.6,,,0.3926,,0.4,0.6,0.6,0.4,0.6,0.4,0.2,0.8,1,0
,,64f03390a3ce93b12a268959,66fc9763e3a790fbd7a552f0,2024-10-01_18h48.35.783,mdp,2024.2.1,Win32,60.24096386,66fa4ebf79326e780c390304,,,,,,,,,,,,,,,,,,,,,1568.9167,1568.9167,1568.9188,1581.4927,0,0,left,11.9441,,1581.5098,1582.3093,0,0,left,1582.3121,1583.0924,1,0,right,1,1583.0926,1583.0926,1583.0948,1584.5924,0,42,42,42,1,0.8,0.2,0.8,0.2,,,,,,,,,,,,,,,0.2929,,0.8,0.2,0.2,0.8,0.6,0.4,0.4,0.6,,,0.2334,,0.4,0.6,0.6,0.4,0.6,0.4,0.2,0.8,1,0
,,64f03390a3ce93b12a268959,66fc9763e3a790fbd7a552f0,2024-10-01_18h48.35.783,mdp,2024.2.1,Win32,60.24096386,66fa4ebf79326e780c390304,,,,,,,,,,,,,,,,,,,,,1584.5929,1584.5931,1584.5969,1585.871,1,0,right,0.6081,,1585.874,1586.8313,1,1,right,1586.835,1587.8463,1,0,right,1,1587.8463,1587.8463,1587.8481,1589.3433,0,43,43,43,1,0.8,0.2,0.8,0.2,,,,,,,,,,,,,,,0.426,,0.8,0.2,0.2,0.8,0.6,0.4,0.4,0.6,,,0.4635,,0.4,0.6,0.6,0.4,0.6,0.4,0.2,0.8,1,0
,,64f03390a3ce93b12a268959,66fc9763e3a790fbd7a552f0,2024-10-01_18h48.35.783,mdp,2024.2.1,Win32,60.24096386,66fa4ebf79326e780c390304,,,,,,,,,,,,,,,,,,,,,1589.3447,1589.3447,1589.3467,1590.1833,1,0,right,0.3105,,1590.1856,1591.2627,0,0,left,1591.2653,1592.2367,1,0,right,1,1592.2367,1592.2367,1592.2378,1593.718,0,44,44,44,1,0.8,0.2,0.8,0.2,,,,,,,,,,,,,,,0.4394,,0.8,0.2,0.2,0.8,0.6,0.4,0.4,0.6,,,0.4486,,0.4,0.6,0.6,0.4,0.2,0.8,0.6,0.4,1,0
,,64f03390a3ce93b12a268959,66fc9763e3a790fbd7a552f0,2024-10-01_18h48.35.783,mdp,2024.2.1,Win32,60.24096386,66fa4ebf79326e780c390304,,,,,,,,,,,,,,,,,,,,,1593.7194,1593.7194,1593.721,1595.2095,1,0,right,0.9676,,1595.2119,1596.1775,1,1,right,1596.1797,1597.3058,1,0,right,1,1597.306,1597.306,1597.3083,1598.803,0,45,45,45,1,0.8,0.2,0.8,0.2,,,,,,,,,,,,,,,0.4387,,0.8,0.2,0.2,0.8,0.6,0.4,0.4,0.6,,,0.5337,,0.4,0.6,0.6,0.4,0.2,0.8,0.6,0.4,1,0
,,64f03390a3ce93b12a268959,66fc9763e3a790fbd7a552f0,2024-10-01_18h48.35.783,mdp,2024.2.1,Win32,60.24096386,66fa4ebf79326e780c390304,,,,,,,,,,,,,,,,,,,,,1598.8039,1598.8039,1598.807,1599.9168,1,0,right,0.5864,,1599.9211,1600.896,1,1,right,1600.8994,1602.0983,1,0,right,1,1602.0984,1602.0984,1602.1001,1603.6131,0,46,46,46,1,0.8,0.2,0.8,0.2,,,,,,,,,,,,,,,0.451,,0.8,0.2,0.2,0.8,0.6,0.4,0.4,0.6,,,0.6701,,0.4,0.6,0.6,0.4,0.2,0.8,0.6,0.4,1,0
,,64f03390a3ce93b12a268959,66fc9763e3a790fbd7a552f0,2024-10-01_18h48.35.783,mdp,2024.2.1,Win32,60.24096386,66fa4ebf79326e780c390304,,,,,,,,,,,,,,,,,,,,,1603.6146,1603.6146,1603.6175,1604.9211,1,1,right,0.6432,,1604.9229,1605.8347,0,0,left,1605.8375,1607.1351,0,1,left,0,1607.1351,1607.1351,1607.1365,1608.6181,0,47,47,47,1,0.8,0.2,0.8,0.2,,,,,,,,,,,,,,,0.381,,0.8,0.2,0.2,0.8,0.6,0.4,0.4,0.6,,,0.7674,,0.4,0.6,0.6,0.4,0.2,0.8,0.6,0.4,1,0
,,64f03390a3ce93b12a268959,66fc9763e3a790fbd7a552f0,2024-10-01_18h48.35.783,mdp,2024.2.1,Win32,60.24096386,66fa4ebf79326e780c390304,,,,,,,,,,,,,,,,,,,,,1608.6186,1608.6186,1608.6198,1609.4793,1,0,right,0.3204,,1609.4807,1610.7049,1,1,right,1610.7079,1611.9182,1,0,right,1,1611.9185,1611.9185,1611.9203,1613.4177,0,48,48,48,1,0.8,0.2,0.8,0.2,,,,,,,,,,,,,,,0.523,0.0003,0.8,0.2,0.2,0.8,0.6,0.4,0.4,0.6,,,0.5862,,0.4,0.6,0.6,0.4,0.2,0.8,0.6,0.4,1,0
,,64f03390a3ce93b12a268959,66fc9763e3a790fbd7a552f0,2024-10-01_18h48.35.783,mdp,2024.2.1,Win32,60.24096386,66fa4ebf79326e780c390304,,,,,,,,,,,,,,,,,,,,,1613.4184,1613.4184,1613.4214,1614.2839,1,1,right,0.323,,1614.2855,1615.6206,0,0,left,1615.6248,1616.8398,1,1,right,0,1616.84,1616.8401,1616.8424,1618.3404,0,49,49,49,1,0.8,0.2,0.8,0.2,,,,,,,,,,,,,,,0.8079,,0.8,0.2,0.2,0.8,0.6,0.4,0.4,0.6,,,0.5102,,0.4,0.6,0.6,0.4,0.2,0.8,0.6,0.4,1,0
,,64f03390a3ce93b12a268959,66fc9763e3a790fbd7a552f0,2024-10-01_18h48.35.783,mdp,2024.2.1,Win32,60.24096386,66fa4ebf79326e780c390304,,,,,,,,,,,,,,,,,,,,,,,,,,,,,,,,,,,,,,,,,,,,,,,,,,,,,,,,1618.3411,1676.855,0,3,3,5,1,imgs/goat.png,imgs/elephant.png,imgs/kangaroo.png,imgs/bear.png,imgs/lion.png,,,,,,,,,,,,,,,,,,,,,,,,
,,64f03390a3ce93b12a268959,66fc9763e3a790fbd7a552f0,2024-10-01_18h48.35.783,mdp,2024.2.1,Win32,60.24096386,66fa4ebf79326e780c390304,,,,,,,,,,,,,,1,seqs/st1seq36.csv,1676.857,1704.4628,space,27.0893,,1704.5067,1704.5072,1704.5106,1706.4057,1,1,right,1.3563,,1706.4081,1706.4092,0,1,,1706.41,1706.4107,1,0,,0,1706.4107,1706.4108,1706.4115,1707.8998,0,0,0,0,1,0.6,0.4,0.4,0.6,1,0,,,,,,,,,,,,,,,,,,,,,,,,,,,,,,,,,,,,
,,64f03390a3ce93b12a268959,66fc9763e3a790fbd7a552f0,2024-10-01_18h48.35.783,mdp,2024.2.1,Win32,60.24096386,66fa4ebf79326e780c390304,,,,,,,,,,,,,,,,,,,,,1707.9006,1707.9007,1707.9057,1709.701,0,1,left,1.2677,,1709.7026,1709.7034,0,1,,1709.7044,1709.7068,1,0,,0,1709.707,1709.707,1709.7088,1711.2105,0,1,1,1,1,0.6,0.4,0.4,0.6,1,0,,,,,,,,,,,,,,,,,,,,,,,,,,,,,,,,,,,,
,,64f03390a3ce93b12a268959,66fc9763e3a790fbd7a552f0,2024-10-01_18h48.35.783,mdp,2024.2.1,Win32,60.24096386,66fa4ebf79326e780c390304,,,,,,,,,,,,,,,,,,,,,1711.2112,1711.2112,1711.2138,1716.3759,1,0,right,4.6408,,1716.3954,1716.398,0,0,,1716.4003,1716.4021,1,0,,1,1716.4022,1716.4022,1716.4036,1717.9038,0,2,2,2,1,0.4,0.6,0.8,0.2,1,0,,,,,,,,,,,,,,,,,,,,,,,,,,,,,,,,,,,,
,,64f03390a3ce93b12a268959,66fc9763e3a790fbd7a552f0,2024-10-01_18h48.35.783,mdp,2024.2.1,Win32,60.24096386,66fa4ebf79326e780c390304,,,,,,,,,,,,,,,,,,,,,1717.9041,1717.9042,1717.9071,1722.0701,1,0,right,3.6447,,1722.0896,1722.0904,0,0,,1722.0911,1722.0918,1,0,,1,1722.0919,1722.0919,1722.0926,1723.5799,0,3,3,3,1,0.4,0.6,0.8,0.2,1,0,,,,,,,,,,,,,,,,,,,,,,,,,,,,,,,,,,,,
,,64f03390a3ce93b12a268959,66fc9763e3a790fbd7a552f0,2024-10-01_18h48.35.783,mdp,2024.2.1,Win32,60.24096386,66fa4ebf79326e780c390304,,,,,,,,,,,,,,,,,,,,,1723.5807,1723.5807,1723.5842,1724.4231,0,0,left,0.3096,,1724.4245,1724.4257,0,1,,1724.4278,1724.4297,1,1,,1,1724.4298,1724.4299,1724.4331,1725.9323,0,4,4,4,1,0.4,0.6,0.8,0.2,1,0,,,,,,,,,,,,,,,,,,,,,,,,,,,,,,,,,,,,
,,64f03390a3ce93b12a268959,66fc9763e3a790fbd7a552f0,2024-10-01_18h48.35.783,mdp,2024.2.1,Win32,60.24096386,66fa4ebf79326e780c390304,,,,,,,,,,,,,,,,,,,,,1725.9335,1725.9335,1725.9348,1727.7637,0,1,left,1.2914,,1727.7651,1727.7659,0,1,,1727.769,1727.7711,1,1,,0,1727.7712,1727.7712,1727.7721,1729.2736,0,5,5,5,1,0.4,0.6,0.8,0.2,1,0,,,,,,,,,,,,,,,,,,,,,,,,,,,,,,,,,,,,
,,64f03390a3ce93b12a268959,66fc9763e3a790fbd7a552f0,2024-10-01_18h48.35.783,mdp,2024.2.1,Win32,60.24096386,66fa4ebf79326e780c390304,,,,,,,,,,,,,,,,,,,,,1729.274,1729.274,1729.2749,1730.2572,0,0,left,0.4564,,1730.2586,1730.2593,0,1,,1730.26,1730.2609,1,1,,1,1730.2609,1730.2609,1730.262,1731.7496,0,6,6,6,1,0.4,0.6,0.8,0.2,1,0,,,,,,,,,,,,,,,,,,,,,,,,,,,,,,,,,,,,
,,64f03390a3ce93b12a268959,66fc9763e3a790fbd7a552f0,2024-10-01_18h48.35.783,mdp,2024.2.1,Win32,60.24096386,66fa4ebf79326e780c390304,,,,,,,,,,,,,,,,,,,,,1731.7504,1731.7505,1731.7537,1733.3637,0,1,left,1.0855,,1733.3657,1733.3668,0,1,,1733.369,1733.3713,1,0,,0,1733.3715,1733.3715,1733.3731,1734.873,0,7,7,7,1,0.4,0.6,0.8,0.2,1,0,,,,,,,,,,,,,,,,,,,,,,,,,,,,,,,,,,,,
,,64f03390a3ce93b12a268959,66fc9763e3a790fbd7a552f0,2024-10-01_18h48.35.783,mdp,2024.2.1,Win32,60.24096386,66fa4ebf79326e780c390304,,,,,,,,,,,,,,,,,,,,,1734.8736,1734.8736,1734.8756,1735.7902,0,1,left,0.3827,,1735.7924,1735.7939,0,1,,1735.7958,1735.7967,1,0,,0,1735.7968,1735.7968,1735.7996,1737.3003,0,8,8,8,1,0.4,0.6,0.8,0.2,1,0,,,,,,,,,,,,,,,,,,,,,,,,,,,,,,,,,,,,
,,64f03390a3ce93b12a268959,66fc9763e3a790fbd7a552f0,2024-10-01_18h48.35.783,mdp,2024.2.1,Win32,60.24096386,66fa4ebf79326e780c390304,,,,,,,,,,,,,,,,,,,,,1737.3008,1737.3008,1737.3025,1737.9657,0,0,left,0.1361,,1737.9672,1737.9694,0,1,,1737.9721,1737.9729,1,1,,1,1737.973,1737.973,1737.9739,1739.478,0,9,9,9,1,0.4,0.6,0.8,0.2,1,0,,,,,,,,,,,,,,,,,,,,,,,,,,,,,,,,,,,,
,,64f03390a3ce93b12a268959,66fc9763e3a790fbd7a552f0,2024-10-01_18h48.35.783,mdp,2024.2.1,Win32,60.24096386,66fa4ebf79326e780c390304,,,,,,,,,,,,,,,,,,,,,1739.4785,1739.4785,1739.4807,1740.4259,1,0,right,0.4247,,1740.4281,1740.4291,0,0,,1740.4302,1740.4311,1,1,,1,1740.4312,1740.4312,1740.4334,1741.9206,0,10,10,10,1,0.2,0.8,0.6,0.4,1,0,,,,,,,,,,,,,,,,,,,,,,,,,,,,,,,,,,,,
,,64f03390a3ce93b12a268959,66fc9763e3a790fbd7a552f0,2024-10-01_18h48.35.783,mdp,2024.2.1,Win32,60.24096386,66fa4ebf79326e780c390304,,,,,,,,,,,,,,,,,,,,,1741.921,1741.921,1741.9223,1742.8118,0,1,left,0.3554,,1742.8133,1742.8142,0,1,,1742.8172,1742.818,1,1,,0,1742.8182,1742.8182,1742.8193,1744.3158,0,11,11,11,1,0.2,0.8,0.6,0.4,1,0,,,,,,,,,,,,,,,,,,,,,,,,,,,,,,,,,,,,
,,64f03390a3ce93b12a268959,66fc9763e3a790fbd7a552f0,2024-10-01_18h48.35.783,mdp,2024.2.1,Win32,60.24096386,66fa4ebf79326e780c390304,,,,,,,,,,,,,,,,,,,,,1744.3164,1744.3164,1744.318,1745.1856,0,1,left,0.3306,,1745.187,1745.1877,0,1,,1745.1884,1745.1893,1,1,,0,1745.1895,1745.1895,1745.1928,1746.6804,0,12,12,12,1,0.2,0.8,0.6,0.4,1,0,,,,,,,,,,,,,,,,,,,,,,,,,,,,,,,,,,,,
,,64f03390a3ce93b12a268959,66fc9763e3a790fbd7a552f0,2024-10-01_18h48.35.783,mdp,2024.2.1,Win32,60.24096386,66fa4ebf79326e780c390304,,,,,,,,,,,,,,,,,,,,,1746.6815,1746.6815,1746.6837,1747.6147,0,0,left,0.4021,,1747.6161,1747.6166,0,0,,1747.6182,1747.6194,1,0,,1,1747.6195,1747.6195,1747.6213,1749.1086,0,13,13,13,1,0.2,0.8,0.6,0.4,1,0,,,,,,,,,,,,,,,,,,,,,,,,,,,,,,,,,,,,
,,64f03390a3ce93b12a268959,66fc9763e3a790fbd7a552f0,2024-10-01_18h48.35.783,mdp,2024.2.1,Win32,60.24096386,66fa4ebf79326e780c390304,,,,,,,,,,,,,,,,,,,,,1749.109,1749.109,1749.1104,1750.3519,1,0,right,0.7117,,1750.3578,1750.3588,0,0,,1750.3601,1750.3609,1,0,,1,1750.3609,1750.3609,1750.3618,1751.8521,0,14,14,14,1,0.2,0.8,0.6,0.4,1,0,,,,,,,,,,,,,,,,,,,,,,,,,,,,,,,,,,,,
,,64f03390a3ce93b12a268959,66fc9763e3a790fbd7a552f0,2024-10-01_18h48.35.783,mdp,2024.2.1,Win32,60.24096386,66fa4ebf79326e780c390304,,,,,,,,,,,,,,,,,,,,,1751.8527,1751.8527,1751.8548,1753.014,1,0,right,0.6406,,1753.0164,1753.018,0,0,,1753.0202,1753.0217,1,1,,1,1753.0218,1753.0218,1753.0229,1754.52,0,15,15,15,1,0.2,0.8,0.6,0.4,1,0,,,,,,,,,,,,,,,,,,,,,,,,,,,,,,,,,,,,
,,64f03390a3ce93b12a268959,66fc9763e3a790fbd7a552f0,2024-10-01_18h48.35.783,mdp,2024.2.1,Win32,60.24096386,66fa4ebf79326e780c390304,,,,,,,,,,,,,,,,,,,,,1754.5204,1754.5204,1754.5242,1755.8264,0,0,left,0.7838,,1755.8286,1755.8298,0,0,,1755.8319,1755.8331,1,0,,1,1755.8332,1755.8332,1755.8339,1757.3402,0,16,16,16,1,0.8,0.2,0.2,0.8,1,0,,,,,,,,,,,,,,,,,,,,,,,,,,,,,,,,,,,,
,,64f03390a3ce93b12a268959,66fc9763e3a790fbd7a552f0,2024-10-01_18h48.35.783,mdp,2024.2.1,Win32,60.24096386,66fa4ebf79326e780c390304,,,,,,,,,,,,,,,,,,,,,1757.3406,1757.3406,1757.3417,1758.2762,1,1,right,0.4017,,1758.2773,1758.2781,0,1,,1758.2794,1758.281,1,1,,0,1758.2812,1758.2812,1758.282,1759.7811,0,17,17,17,1,0.8,0.2,0.2,0.8,1,0,,,,,,,,,,,,,,,,,,,,,,,,,,,,,,,,,,,,
,,64f03390a3ce93b12a268959,66fc9763e3a790fbd7a552f0,2024-10-01_18h48.35.783,mdp,2024.2.1,Win32,60.24096386,66fa4ebf79326e780c390304,,,,,,,,,,,,,,,,,,,,,1759.7827,1759.7828,1759.7846,1760.4921,1,1,right,0.1795,,1760.4942,1760.4955,0,1,,1760.4975,1760.4989,1,1,,0,1760.4992,1760.4994,1760.501,1762.0029,0,18,18,18,1,0.8,0.2,0.2,0.8,1,0,,,,,,,,,,,,,,,,,,,,,,,,,,,,,,,,,,,,
,,64f03390a3ce93b12a268959,66fc9763e3a790fbd7a552f0,2024-10-01_18h48.35.783,mdp,2024.2.1,Win32,60.24096386,66fa4ebf79326e780c390304,,,,,,,,,,,,,,,,,,,,,1762.0044,1762.0044,1762.0063,1762.824,1,1,right,0.3003,,1762.8265,1762.8275,0,0,,1762.8285,1762.8293,1,1,,0,1762.8294,1762.8294,1762.8301,1764.3283,0,19,19,19,1,0.8,0.2,0.2,0.8,1,0,,,,,,,,,,,,,,,,,,,,,,,,,,,,,,,,,,,,
,,64f03390a3ce93b12a268959,66fc9763e3a790fbd7a552f0,2024-10-01_18h48.35.783,mdp,2024.2.1,Win32,60.24096386,66fa4ebf79326e780c390304,,,,,,,,,,,,,,,,,,,,,1764.3291,1764.3292,1764.3316,1765.2205,1,0,right,0.3751,,1765.2219,1765.2239,0,1,,1765.2257,1765.2264,1,1,,1,1765.2264,1765.2264,1765.2272,1766.7176,0,20,20,20,1,0.8,0.2,0.2,0.8,1,0,,,,,,,,,,,,,,,,,,,,,,,,,,,,,,,,,,,,
,,64f03390a3ce93b12a268959,66fc9763e3a790fbd7a552f0,2024-10-01_18h48.35.783,mdp,2024.2.1,Win32,60.24096386,66fa4ebf79326e780c390304,,,,,,,,,,,,,,,,,,,,,1766.718,1766.7181,1766.7203,1767.4239,0,0,left,0.1779,,1767.4268,1767.4278,0,1,,1767.4297,1767.4313,1,0,,1,1767.4314,1767.4314,1767.4332,1768.9291,0,21,21,21,1,0.8,0.2,0.2,0.8,1,0,,,,,,,,,,,,,,,,,,,,,,,,,,,,,,,,,,,,
,,64f03390a3ce93b12a268959,66fc9763e3a790fbd7a552f0,2024-10-01_18h48.35.783,mdp,2024.2.1,Win32,60.24096386,66fa4ebf79326e780c390304,,,,,,,,,,,,,,,,,,,,,1768.9296,1768.9296,1768.9308,1770.1227,1,0,right,0.666,,1770.1258,1770.1273,0,1,,1770.1288,1770.1299,1,1,,1,1770.1299,1770.1299,1770.1306,1771.6285,0,22,22,22,1,0.8,0.2,0.2,0.8,1,0,,,,,,,,,,,,,,,,,,,,,,,,,,,,,,,,,,,,
,,64f03390a3ce93b12a268959,66fc9763e3a790fbd7a552f0,2024-10-01_18h48.35.783,mdp,2024.2.1,Win32,60.24096386,66fa4ebf79326e780c390304,,,,,,,,,,,,,,,,,,,,,1771.6296,1771.6296,1771.6315,1773.3166,1,1,right,1.1654,,1773.3184,1773.32,0,1,,1773.3218,1773.3226,1,1,,0,1773.3227,1773.3227,1773.3239,1774.8205,0,23,23,23,1,0.8,0.2,0.2,0.8,1,0,,,,,,,,,,,,,,,,,,,,,,,,,,,,,,,,,,,,
,,64f03390a3ce93b12a268959,66fc9763e3a790fbd7a552f0,2024-10-01_18h48.35.783,mdp,2024.2.1,Win32,60.24096386,66fa4ebf79326e780c390304,,,,,,,,,,,,,,,,,,,,,1774.8212,1774.8213,1774.8231,1775.8582,1,1,right,0.5145,,1775.86,1775.8608,0,1,,1775.8635,1775.8643,1,1,,0,1775.8644,1775.8645,1775.8654,1777.3534,0,24,24,24,1,0.8,0.2,0.2,0.8,1,0,,,,,,,,,,,,,,,,,,,,,,,,,,,,,,,,,,,,
,,64f03390a3ce93b12a268959,66fc9763e3a790fbd7a552f0,2024-10-01_18h48.35.783,mdp,2024.2.1,Win32,60.24096386,66fa4ebf79326e780c390304,,,,,,,,,,,,,,,,,,,,,1777.3545,1777.3545,1777.3558,1779.3555,1,0,right,1.4752,,1779.358,1779.3589,0,0,,1779.3616,1779.3625,1,1,,1,1779.3626,1779.3626,1779.364,1780.8638,0,25,25,25,1,0.8,0.2,0.2,0.8,1,0,,,,,,,,,,,,,,,,,,,,,,,,,,,,,,,,,,,,
,,64f03390a3ce93b12a268959,66fc9763e3a790fbd7a552f0,2024-10-01_18h48.35.783,mdp,2024.2.1,Win32,60.24096386,66fa4ebf79326e780c390304,,,,,,,,,,,,,,,,,,,,,1780.8645,1780.8645,1780.8667,1781.4229,1,1,right,0.0274,,1781.424,1781.4246,0,1,,1781.4283,1781.4302,1,1,,0,1781.4305,1781.4306,1781.4318,1782.9372,0,26,26,26,1,0.8,0.2,0.2,0.8,1,0,,,,,,,,,,,,,,,,,,,,,,,,,,,,,,,,,,,,
,,64f03390a3ce93b12a268959,66fc9763e3a790fbd7a552f0,2024-10-01_18h48.35.783,mdp,2024.2.1,Win32,60.24096386,66fa4ebf79326e780c390304,,,,,,,,,,,,,,,,,,,,,1782.9376,1782.9376,1782.94,1783.899,0,0,left,0.438,,1783.9,1783.9012,0,0,,1783.9028,1783.9045,1,0,,1,1783.9047,1783.9047,1783.9069,1785.4009,0,27,27,27,1,0.8,0.2,0.2,0.8,1,0,,,,,,,,,,,,,,,,,,,,,,,,,,,,,,,,,,,,
,,64f03390a3ce93b12a268959,66fc9763e3a790fbd7a552f0,2024-10-01_18h48.35.783,mdp,2024.2.1,Win32,60.24096386,66fa4ebf79326e780c390304,,,,,,,,,,,,,,,,,,,,,1785.4013,1785.4013,1785.4042,1786.1464,1,1,right,0.1981,,1786.1495,1786.1508,0,0,,1786.1516,1786.1537,1,1,,0,1786.1537,1786.1537,1786.1554,1787.6454,0,28,28,28,1,0.8,0.2,0.2,0.8,1,0,,,,,,,,,,,,,,,,,,,,,,,,,,,,,,,,,,,,
,,64f03390a3ce93b12a268959,66fc9763e3a790fbd7a552f0,2024-10-01_18h48.35.783,mdp,2024.2.1,Win32,60.24096386,66fa4ebf79326e780c390304,,,,,,,,,,,,,,,,,,,,,1787.6459,1787.6459,1787.6481,1789.2124,1,0,right,1.0363,,1789.2135,1789.2142,0,1,,1789.215,1789.2156,1,0,,1,1789.2156,1789.2156,1789.2165,1790.7247,0,29,29,29,1,0.4,0.6,0.8,0.2,1,0,,,,,,,,,,,,,,,,,,,,,,,,,,,,,,,,,,,,
,,64f03390a3ce93b12a268959,66fc9763e3a790fbd7a552f0,2024-10-01_18h48.35.783,mdp,2024.2.1,Win32,60.24096386,66fa4ebf79326e780c390304,,,,,,,,,,,,,,,,,,,,,1790.7252,1790.7252,1790.7274,1792.5957,0,1,left,1.3216,,1792.5972,1792.598,0,0,,1792.5997,1792.6031,1,0,,0,1792.6033,1792.6035,1792.6048,1794.1048,0,30,30,30,1,0.4,0.6,0.8,0.2,1,0,,,,,,,,,,,,,,,,,,,,,,,,,,,,,,,,,,,,
,,64f03390a3ce93b12a268959,66fc9763e3a790fbd7a552f0,2024-10-01_18h48.35.783,mdp,2024.2.1,Win32,60.24096386,66fa4ebf79326e780c390304,,,,,,,,,,,,,,,,,,,,,1794.1052,1794.1052,1794.1064,1795.068,0,0,left,0.4249,,1795.0694,1795.0703,0,0,,1795.0714,1795.0723,1,1,,1,1795.0724,1795.0724,1795.0742,1796.5604,0,31,31,31,1,0.4,0.6,0.8,0.2,1,0,,,,,,,,,,,,,,,,,,,,,,,,,,,,,,,,,,,,
,,64f03390a3ce93b12a268959,66fc9763e3a790fbd7a552f0,2024-10-01_18h48.35.783,mdp,2024.2.1,Win32,60.24096386,66fa4ebf79326e780c390304,,,,,,,,,,,,,,,,,,,,,1796.5615,1796.5616,1796.5655,1797.6228,0,0,left,0.5296,,1797.6241,1797.6248,0,0,,1797.6255,1797.626,1,0,,1,1797.6261,1797.6261,1797.6267,1799.1297,0,32,32,32,1,0.4,0.6,0.8,0.2,1,0,,,,,,,,,,,,,,,,,,,,,,,,,,,,,,,,,,,,
,,64f03390a3ce93b12a268959,66fc9763e3a790fbd7a552f0,2024-10-01_18h48.35.783,mdp,2024.2.1,Win32,60.24096386,66fa4ebf79326e780c390304,,,,,,,,,,,,,,,,,,,,,1799.1301,1799.1301,1799.1311,1799.9957,1,0,right,0.3336,,1799.9971,1799.9979,0,0,,1799.999,1799.9998,1,0,,1,1800,1800,1800.0014,1801.5078,0,33,33,33,1,0.6,0.4,0.4,0.6,1,0,,,,,,,,,,,,,,,,,,,,,,,,,,,,,,,,,,,,
,,64f03390a3ce93b12a268959,66fc9763e3a790fbd7a552f0,2024-10-01_18h48.35.783,mdp,2024.2.1,Win32,60.24096386,66fa4ebf79326e780c390304,,,,,,,,,,,,,,,,,,,,,1801.5084,1801.5084,1801.5101,1802.3665,0,0,left,0.3349,,1802.369,1802.3707,0,0,,1802.3725,1802.3743,1,0,,1,1802.3744,1802.3744,1802.3758,1803.8761,0,34,34,34,1,0.8,0.2,0.2,0.8,1,0,,,,,,,,,,,,,,,,,,,,,,,,,,,,,,,,,,,,
,,64f03390a3ce93b12a268959,66fc9763e3a790fbd7a552f0,2024-10-01_18h48.35.783,mdp,2024.2.1,Win32,60.24096386,66fa4ebf79326e780c390304,,,,,,,,,,,,,,,,,,,,,1803.8769,1803.8769,1803.8806,1804.5116,1,1,right,0.1172,,1804.513,1804.5139,0,0,,1804.5149,1804.5159,1,1,,0,1804.5161,1804.5161,1804.5169,1806.0041,0,35,35,35,1,0.8,0.2,0.2,0.8,1,0,,,,,,,,,,,,,,,,,,,,,,,,,,,,,,,,,,,,
,,64f03390a3ce93b12a268959,66fc9763e3a790fbd7a552f0,2024-10-01_18h48.35.783,mdp,2024.2.1,Win32,60.24096386,66fa4ebf79326e780c390304,,,,,,,,,,,,,,,,,,,,,1806.0047,1806.0047,1806.0058,1806.8485,1,1,right,0.3106,,1806.8506,1806.8516,0,1,,1806.8535,1806.855,1,0,,0,1806.8553,1806.8553,1806.8571,1808.3548,0,36,36,36,1,0.8,0.2,0.2,0.8,1,0,,,,,,,,,,,,,,,,,,,,,,,,,,,,,,,,,,,,
,,64f03390a3ce93b12a268959,66fc9763e3a790fbd7a552f0,2024-10-01_18h48.35.783,mdp,2024.2.1,Win32,60.24096386,66fa4ebf79326e780c390304,,,,,,,,,,,,,,,,,,,,,1808.3557,1808.3557,1808.3576,1808.8918,1,1,right,0.0183,,1808.8936,1808.8947,0,1,,1808.8966,1808.8996,1,1,,0,1808.8996,1808.8997,1808.9019,1810.3947,0,37,37,37,1,0.8,0.2,0.2,0.8,1,0,,,,,,,,,,,,,,,,,,,,,,,,,,,,,,,,,,,,
,,64f03390a3ce93b12a268959,66fc9763e3a790fbd7a552f0,2024-10-01_18h48.35.783,mdp,2024.2.1,Win32,60.24096386,66fa4ebf79326e780c390304,,,,,,,,,,,,,,,,,,,,,1810.3954,1810.3954,1810.3974,1811.352,1,1,right,0.4298,,1811.3537,1811.3544,0,1,,1811.3557,1811.3575,1,1,,0,1811.3576,1811.3576,1811.3595,1812.8595,0,38,38,38,1,0.8,0.2,0.2,0.8,1,0,,,,,,,,,,,,,,,,,,,,,,,,,,,,,,,,,,,,
