init_exp.started,init_exp.stopped,participant,session,date,expName,psychopyVersion,OS,frameRate,study_id,disp_instruction.started,disp_instruction.stopped,instruction.thisRepN,instruction.thisTrialN,instruction.thisN,instruction.thisIndex,instruction.ran,instimg_path,consent.started,consent.stopped,key_resp_3.keys,key_resp_3.rt,key_resp_3.duration,n_steps,sequence_path,init_block.started,init_block.stopped,key_resp.keys,key_resp.rt,key_resp.duration,init_trials.started,init_trials.stopped,step0.started,step0.stopped,act0,s1,res0.keys,res0.rt,res0.duration,step1.started,step1.stopped,act1,s2,res1.keys,step2.started,step2.stopped,act2,s3,res2.keys,rew,reward_comp.started,reward_comp.stopped,reward_disp.started,reward_disp.stopped,trials.thisRepN,trials.thisTrialN,trials.thisN,trials.thisIndex,trials.ran,s00a0s10,s00a0s11,s00a1s10,s00a1s11,rew10,rew11,break_block.started,break_block.stopped,block.thisRepN,block.thisTrialN,block.thisN,block.thisIndex,block.ran,s00path,s10path,s11path,s20path,s21path,res1.rt,res1.duration,s10a0s20,s10a0s21,s10a1s20,s10a1s21,s11a0s20,s11a0s21,s11a1s20,s11a1s21,rew20,rew21,res2.rt,res2.duration,s20a0s30,s20a0s31,s20a1s30,s20a1s31,s21a0s30,s21a0s31,s21a1s30,s21a1s31,rew30,rew31
0.0003,0.0025,6500c323c1cfec3960e2b000,66fc983ac4b9a29d76467132,2024-10-02_13h49.56.704,mdp,2024.2.1,MacIntel,58.47953216,66fa4ebf79326e780c390304,,,,,,,,,,,,,,,,,,,,,,,,,,,,,,,,,,,,,,,,,,,,,,,,,,,,,,,,,,,,,,,,,,,,,,,,,,,,,,,,,,,,,,,,,,,
,,6500c323c1cfec3960e2b000,66fc983ac4b9a29d76467132,2024-10-02_13h49.56.704,mdp,2024.2.1,MacIntel,58.47953216,66fa4ebf79326e780c390304,0.0102,18.5915,0,0,0,0,1,rlnn_exp/rlnn_exp.001.png,,,,,,,,,,,,,,,,,,,,,,,,,,,,,,,,,,,,,,,,,,,,,,,,,,,,,,,,,,,,,,,,,,,,,,,,,,,,,,,,,,,
,,6500c323c1cfec3960e2b000,66fc983ac4b9a29d76467132,2024-10-02_13h49.56.704,mdp,2024.2.1,MacIntel,58.47953216,66fa4ebf79326e780c390304,18.5924,52.5882,0,1,1,1,1,rlnn_exp/rlnn_exp.002.png,,,,,,,,,,,,,,,,,,,,,,,,,,,,,,,,,,,,,,,,,,,,,,,,,,,,,,,,,,,,,,,,,,,,,,,,,,,,,,,,,,,
,,6500c323c1cfec3960e2b000,66fc983ac4b9a29d76467132,2024-10-02_13h49.56.704,mdp,2024.2.1,MacIntel,58.47953216,66fa4ebf79326e780c390304,52.6052,81.6804,0,2,2,2,1,rlnn_exp/rlnn_exp.003.png,,,,,,,,,,,,,,,,,,,,,,,,,,,,,,,,,,,,,,,,,,,,,,,,,,,,,,,,,,,,,,,,,,,,,,,,,,,,,,,,,,,
,,6500c323c1cfec3960e2b000,66fc983ac4b9a29d76467132,2024-10-02_13h49.56.704,mdp,2024.2.1,MacIntel,58.47953216,66fa4ebf79326e780c390304,81.6954,98.7167,0,3,3,3,1,rlnn_exp/rlnn_exp.004.png,,,,,,,,,,,,,,,,,,,,,,,,,,,,,,,,,,,,,,,,,,,,,,,,,,,,,,,,,,,,,,,,,,,,,,,,,,,,,,,,,,,
,,6500c323c1cfec3960e2b000,66fc983ac4b9a29d76467132,2024-10-02_13h49.56.704,mdp,2024.2.1,MacIntel,58.47953216,66fa4ebf79326e780c390304,,,,,,,,,98.7321,201.2328,y,92.4453,,,,,,,,,,,,,,,,,,,,,,,,,,,,,,,,,,,,,,,,,,,,,,,,,,,,,,,,,,,,,,,,,,,,,,,,,,,,,,,
,,6500c323c1cfec3960e2b000,66fc983ac4b9a29d76467132,2024-10-02_13h49.56.704,mdp,2024.2.1,MacIntel,58.47953216,66fa4ebf79326e780c390304,,,,,,,,,,,,,,1,seqs/st1seq27.csv,201.252,205.9963,space,4.2146,,206.0138,206.014,206.0144,211.8585,1,1,right,5.3049,,211.8737,211.8759,,0,,211.8763,211.878,,1,,0,211.8782,211.8783,211.8788,213.3743,0,0,0,0,1,0.6,0.4,0.4,0.6,1,0,,,,,,,,,,,,,,,,,,,,,,,,,,,,,,,,,,,,
,,6500c323c1cfec3960e2b000,66fc983ac4b9a29d76467132,2024-10-02_13h49.56.704,mdp,2024.2.1,MacIntel,58.47953216,66fa4ebf79326e780c390304,,,,,,,,,,,,,,,,,,,,,213.3747,213.3747,213.3761,216.5424,0,0,left,2.642,,216.5576,216.5583,,0,,216.5593,216.56,,0,,1,216.5601,216.5601,216.5608,218.054,0,1,1,1,1,0.6,0.4,0.4,0.6,1,0,,,,,,,,,,,,,,,,,,,,,,,,,,,,,,,,,,,,
,,6500c323c1cfec3960e2b000,66fc983ac4b9a29d76467132,2024-10-02_13h49.56.704,mdp,2024.2.1,MacIntel,58.47953216,66fa4ebf79326e780c390304,,,,,,,,,,,,,,,,,,,,,218.0543,218.0543,218.0553,222.4687,0,0,left,3.8938,,222.4849,222.486,,0,,222.4868,222.4875,,0,,1,222.4876,222.4876,222.4881,223.9833,0,2,2,2,1,0.6,0.4,0.4,0.6,1,0,,,,,,,,,,,,,,,,,,,,,,,,,,,,,,,,,,,,
,,6500c323c1cfec3960e2b000,66fc983ac4b9a29d76467132,2024-10-02_13h49.56.704,mdp,2024.2.1,MacIntel,58.47953216,66fa4ebf79326e780c390304,,,,,,,,,,,,,,,,,,,,,223.9837,223.9837,223.985,230.1124,1,1,right,5.6005,,230.1277,230.1289,,1,,230.1297,230.1307,,0,,0,230.1307,230.1307,230.1319,231.6279,0,3,3,3,1,0.6,0.4,0.4,0.6,1,0,,,,,,,,,,,,,,,,,,,,,,,,,,,,,,,,,,,,
,,6500c323c1cfec3960e2b000,66fc983ac4b9a29d76467132,2024-10-02_13h49.56.704,mdp,2024.2.1,MacIntel,58.47953216,66fa4ebf79326e780c390304,,,,,,,,,,,,,,,,,,,,,231.6283,231.6283,231.6294,232.6946,0,0,left,0.5337,,232.6956,232.6967,,1,,232.6975,232.6982,,1,,1,232.6982,232.6982,232.6989,234.1939,0,4,4,4,1,0.6,0.4,0.4,0.6,1,0,,,,,,,,,,,,,,,,,,,,,,,,,,,,,,,,,,,,
,,6500c323c1cfec3960e2b000,66fc983ac4b9a29d76467132,2024-10-02_13h49.56.704,mdp,2024.2.1,MacIntel,58.47953216,66fa4ebf79326e780c390304,,,,,,,,,,,,,,,,,,,,,234.1944,234.1944,234.1959,235.2931,0,1,left,0.5637,,235.2946,235.2959,,1,,235.2967,235.2976,,1,,0,235.2976,235.2976,235.2982,236.7916,0,5,5,5,1,0.2,0.8,0.6,0.4,1,0,,,,,,,,,,,,,,,,,,,,,,,,,,,,,,,,,,,,
,,6500c323c1cfec3960e2b000,66fc983ac4b9a29d76467132,2024-10-02_13h49.56.704,mdp,2024.2.1,MacIntel,58.47953216,66fa4ebf79326e780c390304,,,,,,,,,,,,,,,,,,,,,236.7921,236.7921,236.7937,238.2902,0,0,left,0.9656,,238.2912,238.2924,,0,,238.2932,238.2938,,0,,1,238.2939,238.2939,238.2945,239.7622,0,6,6,6,1,0.8,0.2,0.2,0.8,1,0,,,,,,,,,,,,,,,,,,,,,,,,,,,,,,,,,,,,
,,6500c323c1cfec3960e2b000,66fc983ac4b9a29d76467132,2024-10-02_13h49.56.704,mdp,2024.2.1,MacIntel,58.47953216,66fa4ebf79326e780c390304,,,,,,,,,,,,,,,,,,,,,239.7626,239.7626,239.7636,242.7822,1,1,right,2.467,,242.7832,242.7842,,1,,242.7848,242.7856,,1,,0,242.7856,242.7856,242.7862,244.2866,0,7,7,7,1,0.8,0.2,0.2,0.8,1,0,,,,,,,,,,,,,,,,,,,,,,,,,,,,,,,,,,,,
,,6500c323c1cfec3960e2b000,66fc983ac4b9a29d76467132,2024-10-02_13h49.56.704,mdp,2024.2.1,MacIntel,58.47953216,66fa4ebf79326e780c390304,,,,,,,,,,,,,,,,,,,,,244.287,244.2871,244.2883,245.5202,1,1,right,0.701,,245.5214,245.5226,,1,,245.5233,245.524,,1,,0,245.5241,245.5241,245.5247,247.0117,0,8,8,8,1,0.8,0.2,0.2,0.8,1,0,,,,,,,,,,,,,,,,,,,,,,,,,,,,,,,,,,,,
,,6500c323c1cfec3960e2b000,66fc983ac4b9a29d76467132,2024-10-02_13h49.56.704,mdp,2024.2.1,MacIntel,58.47953216,66fa4ebf79326e780c390304,,,,,,,,,,,,,,,,,,,,,247.0122,247.0122,247.0139,248.8171,0,0,left,1.2739,,248.8181,248.8188,,0,,248.8197,248.8206,,0,,1,248.8206,248.8206,248.8213,250.3154,0,9,9,9,1,0.8,0.2,0.2,0.8,1,0,,,,,,,,,,,,,,,,,,,,,,,,,,,,,,,,,,,,
,,6500c323c1cfec3960e2b000,66fc983ac4b9a29d76467132,2024-10-02_13h49.56.704,mdp,2024.2.1,MacIntel,58.47953216,66fa4ebf79326e780c390304,,,,,,,,,,,,,,,,,,,,,250.3158,250.3158,250.3168,251.1229,0,0,left,0.291,,251.1238,251.1252,,0,,251.126,251.1266,,1,,1,251.1267,251.1267,251.1273,252.6318,0,10,10,10,1,0.8,0.2,0.2,0.8,1,0,,,,,,,,,,,,,,,,,,,,,,,,,,,,,,,,,,,,
,,6500c323c1cfec3960e2b000,66fc983ac4b9a29d76467132,2024-10-02_13h49.56.704,mdp,2024.2.1,MacIntel,58.47953216,66fa4ebf79326e780c390304,,,,,,,,,,,,,,,,,,,,,252.6323,252.6323,252.6337,254.5641,0,0,left,1.395,,254.5653,254.5662,,0,,254.5669,254.568,,1,,1,254.5682,254.5682,254.5689,256.0625,0,11,11,11,1,0.6,0.4,0.6,0.4,1,0,,,,,,,,,,,,,,,,,,,,,,,,,,,,,,,,,,,,
,,6500c323c1cfec3960e2b000,66fc983ac4b9a29d76467132,2024-10-02_13h49.56.704,mdp,2024.2.1,MacIntel,58.47953216,66fa4ebf79326e780c390304,,,,,,,,,,,,,,,,,,,,,256.0629,256.0629,256.0645,258.2438,0,0,left,1.6533,,258.2448,258.2456,,1,,258.2466,258.2476,,0,,1,258.2476,258.2476,258.2484,259.7504,0,12,12,12,1,0.6,0.4,0.6,0.4,1,0,,,,,,,,,,,,,,,,,,,,,,,,,,,,,,,,,,,,
,,6500c323c1cfec3960e2b000,66fc983ac4b9a29d76467132,2024-10-02_13h49.56.704,mdp,2024.2.1,MacIntel,58.47953216,66fa4ebf79326e780c390304,,,,,,,,,,,,,,,,,,,,,259.751,259.751,259.7526,260.8921,0,0,left,0.6079,,260.8932,260.894,,0,,260.8948,260.8959,,1,,1,260.8959,260.8959,260.8969,262.3912,0,13,13,13,1,0.6,0.4,0.6,0.4,1,0,,,,,,,,,,,,,,,,,,,,,,,,,,,,,,,,,,,,
,,6500c323c1cfec3960e2b000,66fc983ac4b9a29d76467132,2024-10-02_13h49.56.704,mdp,2024.2.1,MacIntel,58.47953216,66fa4ebf79326e780c390304,,,,,,,,,,,,,,,,,,,,,262.3916,262.3916,262.3927,263.4412,0,1,left,0.5245,,263.442,263.4428,,1,,263.4438,263.4447,,0,,0,263.4447,263.4447,263.4454,264.9391,0,14,14,14,1,0.8,0.2,0.8,0.2,1,0,,,,,,,,,,,,,,,,,,,,,,,,,,,,,,,,,,,,
,,6500c323c1cfec3960e2b000,66fc983ac4b9a29d76467132,2024-10-02_13h49.56.704,mdp,2024.2.1,MacIntel,58.47953216,66fa4ebf79326e780c390304,,,,,,,,,,,,,,,,,,,,,264.9394,264.9394,264.9403,266.2395,0,0,left,0.784,,266.2404,266.2412,,0,,266.2425,266.2433,,0,,1,266.2433,266.2433,266.244,267.7382,0,15,15,15,1,0.8,0.2,0.8,0.2,1,0,,,,,,,,,,,,,,,,,,,,,,,,,,,,,,,,,,,,
,,6500c323c1cfec3960e2b000,66fc983ac4b9a29d76467132,2024-10-02_13h49.56.704,mdp,2024.2.1,MacIntel,58.47953216,66fa4ebf79326e780c390304,,,,,,,,,,,,,,,,,,,,,267.7386,267.7386,267.7401,269.3709,0,0,left,1.1053,,269.3718,269.3727,,0,,269.3741,269.375,,0,,1,269.3751,269.3751,269.3758,270.8816,0,16,16,16,1,0.8,0.2,0.8,0.2,1,0,,,,,,,,,,,,,,,,,,,,,,,,,,,,,,,,,,,,
,,6500c323c1cfec3960e2b000,66fc983ac4b9a29d76467132,2024-10-02_13h49.56.704,mdp,2024.2.1,MacIntel,58.47953216,66fa4ebf79326e780c390304,,,,,,,,,,,,,,,,,,,,,270.8818,270.8819,270.8829,272.7494,1,0,right,1.3179,,272.7503,272.7516,,0,,272.7524,272.7532,,0,,1,272.7532,272.7532,272.7539,274.2499,0,17,17,17,1,0.8,0.2,0.8,0.2,1,0,,,,,,,,,,,,,,,,,,,,,,,,,,,,,,,,,,,,
,,6500c323c1cfec3960e2b000,66fc983ac4b9a29d76467132,2024-10-02_13h49.56.704,mdp,2024.2.1,MacIntel,58.47953216,66fa4ebf79326e780c390304,,,,,,,,,,,,,,,,,,,,,274.2505,274.2505,274.2517,275.2998,0,0,left,0.522,,275.3007,275.3018,,0,,275.3024,275.3031,,0,,1,275.3032,275.3032,275.3038,276.7992,0,18,18,18,1,0.8,0.2,0.8,0.2,1,0,,,,,,,,,,,,,,,,,,,,,,,,,,,,,,,,,,,,
,,6500c323c1cfec3960e2b000,66fc983ac4b9a29d76467132,2024-10-02_13h49.56.704,mdp,2024.2.1,MacIntel,58.47953216,66fa4ebf79326e780c390304,,,,,,,,,,,,,,,,,,,,,276.7996,276.7996,276.8007,278.1312,0,0,left,0.8063,,278.1321,278.1331,,0,,278.1339,278.1348,,0,,1,278.1349,278.1349,278.1355,279.6297,0,19,19,19,1,0.8,0.2,0.8,0.2,1,0,,,,,,,,,,,,,,,,,,,,,,,,,,,,,,,,,,,,
,,6500c323c1cfec3960e2b000,66fc983ac4b9a29d76467132,2024-10-02_13h49.56.704,mdp,2024.2.1,MacIntel,58.47953216,66fa4ebf79326e780c390304,,,,,,,,,,,,,,,,,,,,,279.6301,279.6301,279.6309,280.9464,0,0,left,0.7899,,280.9474,280.9488,,1,,280.9498,280.9509,,1,,1,280.9509,280.9509,280.9516,282.4443,0,20,20,20,1,0.2,0.8,0.6,0.4,1,0,,,,,,,,,,,,,,,,,,,,,,,,,,,,,,,,,,,,
,,6500c323c1cfec3960e2b000,66fc983ac4b9a29d76467132,2024-10-02_13h49.56.704,mdp,2024.2.1,MacIntel,58.47953216,66fa4ebf79326e780c390304,,,,,,,,,,,,,,,,,,,,,282.4447,282.4447,282.4459,284.3935,1,0,right,1.4203,,284.3947,284.3955,,0,,284.3964,284.397,,0,,1,284.3971,284.3971,284.3976,285.8931,0,21,21,21,1,0.2,0.8,0.6,0.4,1,0,,,,,,,,,,,,,,,,,,,,,,,,,,,,,,,,,,,,
,,6500c323c1cfec3960e2b000,66fc983ac4b9a29d76467132,2024-10-02_13h49.56.704,mdp,2024.2.1,MacIntel,58.47953216,66fa4ebf79326e780c390304,,,,,,,,,,,,,,,,,,,,,285.8939,285.8939,285.8953,287.0422,1,1,right,0.6226,,287.043,287.0437,,1,,287.0444,287.0452,,0,,0,287.0453,287.0453,287.0461,288.5411,0,22,22,22,1,0.2,0.8,0.6,0.4,1,0,,,,,,,,,,,,,,,,,,,,,,,,,,,,,,,,,,,,
,,6500c323c1cfec3960e2b000,66fc983ac4b9a29d76467132,2024-10-02_13h49.56.704,mdp,2024.2.1,MacIntel,58.47953216,66fa4ebf79326e780c390304,,,,,,,,,,,,,,,,,,,,,288.5415,288.5415,288.5427,289.557,0,1,left,0.487,,289.5577,289.5584,,1,,289.559,289.5596,,1,,0,289.5596,289.5596,289.5601,291.0558,0,23,23,23,1,0.2,0.8,0.6,0.4,1,0,,,,,,,,,,,,,,,,,,,,,,,,,,,,,,,,,,,,
,,6500c323c1cfec3960e2b000,66fc983ac4b9a29d76467132,2024-10-02_13h49.56.704,mdp,2024.2.1,MacIntel,58.47953216,66fa4ebf79326e780c390304,,,,,,,,,,,,,,,,,,,,,291.0562,291.0563,291.0573,292.0914,0,1,left,0.5087,,292.0924,292.0945,,1,,292.0953,292.096,,1,,0,292.0961,292.0961,292.0969,293.5879,0,24,24,24,1,0.2,0.8,0.6,0.4,1,0,,,,,,,,,,,,,,,,,,,,,,,,,,,,,,,,,,,,
,,6500c323c1cfec3960e2b000,66fc983ac4b9a29d76467132,2024-10-02_13h49.56.704,mdp,2024.2.1,MacIntel,58.47953216,66fa4ebf79326e780c390304,,,,,,,,,,,,,,,,,,,,,293.5885,293.5885,293.5898,294.5864,0,1,left,0.4734,,294.5871,294.5884,,1,,294.5893,294.5902,,1,,0,294.5902,294.5902,294.591,296.0864,0,25,25,25,1,0.2,0.8,0.6,0.4,1,0,,,,,,,,,,,,,,,,,,,,,,,,,,,,,,,,,,,,
,,6500c323c1cfec3960e2b000,66fc983ac4b9a29d76467132,2024-10-02_13h49.56.704,mdp,2024.2.1,MacIntel,58.47953216,66fa4ebf79326e780c390304,,,,,,,,,,,,,,,,,,,,,296.0868,296.0868,296.0884,296.9857,1,1,right,0.3738,,296.9864,296.9872,,1,,296.9882,296.9895,,0,,0,296.9895,296.9895,296.9902,298.4843,0,26,26,26,1,0.6,0.4,0.4,0.6,1,0,,,,,,,,,,,,,,,,,,,,,,,,,,,,,,,,,,,,
,,6500c323c1cfec3960e2b000,66fc983ac4b9a29d76467132,2024-10-02_13h49.56.704,mdp,2024.2.1,MacIntel,58.47953216,66fa4ebf79326e780c390304,,,,,,,,,,,,,,,,,,,,,298.4849,298.4849,298.4858,299.8503,1,1,right,0.83,,299.8511,299.8523,,0,,299.853,299.854,,1,,0,299.8541,299.8541,299.8547,301.3439,0,27,27,27,1,0.6,0.4,0.4,0.6,1,0,,,,,,,,,,,,,,,,,,,,,,,,,,,,,,,,,,,,
,,6500c323c1cfec3960e2b000,66fc983ac4b9a29d76467132,2024-10-02_13h49.56.704,mdp,2024.2.1,MacIntel,58.47953216,66fa4ebf79326e780c390304,,,,,,,,,,,,,,,,,,,,,301.3446,301.3446,301.3454,302.3483,0,0,left,0.4863,,302.3493,302.35,,1,,302.3506,302.3514,,0,,1,302.3515,302.3515,302.3522,303.8482,0,28,28,28,1,0.6,0.4,0.4,0.6,1,0,,,,,,,,,,,,,,,,,,,,,,,,,,,,,,,,,,,,
,,6500c323c1cfec3960e2b000,66fc983ac4b9a29d76467132,2024-10-02_13h49.56.704,mdp,2024.2.1,MacIntel,58.47953216,66fa4ebf79326e780c390304,,,,,,,,,,,,,,,,,,,,,303.8488,303.8488,303.8504,304.8799,0,0,left,0.5034,,304.8822,304.883,,1,,304.8838,304.8845,,0,,1,304.8845,304.8845,304.8854,306.3792,0,29,29,29,1,0.4,0.6,0.6,0.4,1,0,,,,,,,,,,,,,,,,,,,,,,,,,,,,,,,,,,,,
,,6500c323c1cfec3960e2b000,66fc983ac4b9a29d76467132,2024-10-02_13h49.56.704,mdp,2024.2.1,MacIntel,58.47953216,66fa4ebf79326e780c390304,,,,,,,,,,,,,,,,,,,,,306.3796,306.3796,306.3805,307.5952,0,1,left,0.6912,,307.5961,307.5973,,1,,307.598,307.5986,,1,,0,307.5987,307.5987,307.5993,309.0941,0,30,30,30,1,0.4,0.6,0.6,0.4,1,0,,,,,,,,,,,,,,,,,,,,,,,,,,,,,,,,,,,,
,,6500c323c1cfec3960e2b000,66fc983ac4b9a29d76467132,2024-10-02_13h49.56.704,mdp,2024.2.1,MacIntel,58.47953216,66fa4ebf79326e780c390304,,,,,,,,,,,,,,,,,,,,,309.0947,309.0947,309.0961,310.4764,1,1,right,0.8396,,310.4773,310.478,,1,,310.4789,310.4802,,1,,0,310.4803,310.4803,310.4811,311.9748,0,31,31,31,1,0.4,0.6,0.6,0.4,1,0,,,,,,,,,,,,,,,,,,,,,,,,,,,,,,,,,,,,
,,6500c323c1cfec3960e2b000,66fc983ac4b9a29d76467132,2024-10-02_13h49.56.704,mdp,2024.2.1,MacIntel,58.47953216,66fa4ebf79326e780c390304,,,,,,,,,,,,,,,,,,,,,311.9751,311.9751,311.976,313.1574,1,0,right,0.6566,,313.1583,313.1596,,0,,313.1613,313.162,,0,,1,313.1622,313.1622,313.1627,314.6571,0,32,32,32,1,0.8,0.2,0.8,0.2,1,0,,,,,,,,,,,,,,,,,,,,,,,,,,,,,,,,,,,,
,,6500c323c1cfec3960e2b000,66fc983ac4b9a29d76467132,2024-10-02_13h49.56.704,mdp,2024.2.1,MacIntel,58.47953216,66fa4ebf79326e780c390304,,,,,,,,,,,,,,,,,,,,,314.6575,314.6575,314.6584,315.8898,0,0,left,0.7046,,315.8912,315.8921,,1,,315.8932,315.8939,,0,,1,315.894,315.894,315.8947,317.3879,0,33,33,33,1,0.8,0.2,0.8,0.2,1,0,,,,,,,,,,,,,,,,,,,,,,,,,,,,,,,,,,,,
,,6500c323c1cfec3960e2b000,66fc983ac4b9a29d76467132,2024-10-02_13h49.56.704,mdp,2024.2.1,MacIntel,58.47953216,66fa4ebf79326e780c390304,,,,,,,,,,,,,,,,,,,,,317.3886,317.3886,317.3899,318.4203,0,0,left,0.5047,,318.4211,318.4222,,0,,318.4237,318.4245,,1,,1,318.4246,318.4246,318.4253,319.9196,0,34,34,34,1,0.6,0.4,0.2,0.8,1,0,,,,,,,,,,,,,,,,,,,,,,,,,,,,,,,,,,,,
,,6500c323c1cfec3960e2b000,66fc983ac4b9a29d76467132,2024-10-02_13h49.56.704,mdp,2024.2.1,MacIntel,58.47953216,66fa4ebf79326e780c390304,,,,,,,,,,,,,,,,,,,,,319.9198,319.9199,319.9209,322.035,0,1,left,1.6039,,322.0363,322.037,,0,,322.0378,322.0384,,0,,0,322.0384,322.0385,322.039,323.5347,0,35,35,35,1,0.6,0.4,0.2,0.8,1,0,,,,,,,,,,,,,,,,,,,,,,,,,,,,,,,,,,,,
,,6500c323c1cfec3960e2b000,66fc983ac4b9a29d76467132,2024-10-02_13h49.56.704,mdp,2024.2.1,MacIntel,58.47953216,66fa4ebf79326e780c390304,,,,,,,,,,,,,,,,,,,,,323.5352,323.5352,323.5363,325.3159,0,0,left,1.2558,,325.3169,325.3195,,1,,325.3205,325.3216,,0,,1,325.3216,325.3216,325.3224,326.8158,0,36,36,36,1,0.6,0.4,0.2,0.8,1,0,,,,,,,,,,,,,,,,,,,,,,,,,,,,,,,,,,,,
,,6500c323c1cfec3960e2b000,66fc983ac4b9a29d76467132,2024-10-02_13h49.56.704,mdp,2024.2.1,MacIntel,58.47953216,66fa4ebf79326e780c390304,,,,,,,,,,,,,,,,,,,,,326.8163,326.8163,326.8174,329.0979,0,1,left,1.7481,,329.099,329.1002,,0,,329.101,329.1021,,0,,0,329.1022,329.1022,329.1032,330.5798,0,37,37,37,1,0.6,0.4,0.2,0.8,1,0,,,,,,,,,,,,,,,,,,,,,,,,,,,,,,,,,,,,
,,6500c323c1cfec3960e2b000,66fc983ac4b9a29d76467132,2024-10-02_13h49.56.704,mdp,2024.2.1,MacIntel,58.47953216,66fa4ebf79326e780c390304,,,,,,,,,,,,,,,,,,,,,330.5801,330.5801,330.581,332.4728,1,0,right,1.3465,,332.4738,332.4749,,1,,332.476,332.4767,,0,,1,332.4767,332.4767,332.4773,333.9778,0,38,38,38,1,0.8,0.2,0.6,0.4,1,0,,,,,,,,,,,,,,,,,,,,,,,,,,,,,,,,,,,,
,,6500c323c1cfec3960e2b000,66fc983ac4b9a29d76467132,2024-10-02_13h49.56.704,mdp,2024.2.1,MacIntel,58.47953216,66fa4ebf79326e780c390304,,,,,,,,,,,,,,,,,,,,,333.9784,333.9784,333.9795,335.1778,1,0,right,0.6681,,335.1789,335.1803,,0,,335.1812,335.1823,,1,,1,335.1824,335.1824,335.1829,336.676,0,39,39,39,1,0.6,0.4,0.4,0.6,1,0,,,,,,,,,,,,,,,,,,,,,,,,,,,,,,,,,,,,
,,6500c323c1cfec3960e2b000,66fc983ac4b9a29d76467132,2024-10-02_13h49.56.704,mdp,2024.2.1,MacIntel,58.47953216,66fa4ebf79326e780c390304,,,,,,,,,,,,,,,,,,,,,336.6762,336.6763,336.6785,337.6582,0,0,left,0.4561,,337.6592,337.6599,,0,,337.6605,337.6613,,1,,1,337.6614,337.6614,337.6619,339.1574,0,40,40,40,1,0.4,0.6,0.6,0.4,1,0,,,,,,,,,,,,,,,,,,,,,,,,,,,,,,,,,,,,
,,6500c323c1cfec3960e2b000,66fc983ac4b9a29d76467132,2024-10-02_13h49.56.704,mdp,2024.2.1,MacIntel,58.47953216,66fa4ebf79326e780c390304,,,,,,,,,,,,,,,,,,,,,339.1578,339.1578,339.1594,341.0729,0,0,left,1.3829,,341.0738,341.0748,,0,,341.0755,341.0763,,1,,1,341.0763,341.0763,341.077,342.5716,0,41,41,41,1,0.4,0.6,0.6,0.4,1,0,,,,,,,,,,,,,,,,,,,,,,,,,,,,,,,,,,,,
,,6500c323c1cfec3960e2b000,66fc983ac4b9a29d76467132,2024-10-02_13h49.56.704,mdp,2024.2.1,MacIntel,58.47953216,66fa4ebf79326e780c390304,,,,,,,,,,,,,,,,,,,,,342.5719,342.5719,342.573,343.5876,0,1,left,0.4846,,343.5887,343.5898,,0,,343.5907,343.5914,,0,,0,343.5915,343.5915,343.592,345.0862,0,42,42,42,1,0.4,0.6,0.6,0.4,1,0,,,,,,,,,,,,,,,,,,,,,,,,,,,,,,,,,,,,
,,6500c323c1cfec3960e2b000,66fc983ac4b9a29d76467132,2024-10-02_13h49.56.704,mdp,2024.2.1,MacIntel,58.47953216,66fa4ebf79326e780c390304,,,,,,,,,,,,,,,,,,,,,345.0867,345.0867,345.0879,346.8185,1,0,right,1.2019,,346.8196,346.8202,,0,,346.8209,346.8214,,0,,1,346.8215,346.8215,346.8221,348.3173,0,43,43,43,1,0.4,0.6,0.6,0.4,1,0,,,,,,,,,,,,,,,,,,,,,,,,,,,,,,,,,,,,
,,6500c323c1cfec3960e2b000,66fc983ac4b9a29d76467132,2024-10-02_13h49.56.704,mdp,2024.2.1,MacIntel,58.47953216,66fa4ebf79326e780c390304,,,,,,,,,,,,,,,,,,,,,348.3176,348.3176,348.3186,349.7,0,1,left,0.8465,,349.7009,349.7017,,1,,349.7025,349.7032,,1,,0,349.7032,349.7032,349.7038,351.199,0,44,44,44,1,0.4,0.6,0.6,0.4,1,0,,,,,,,,,,,,,,,,,,,,,,,,,,,,,,,,,,,,
,,6500c323c1cfec3960e2b000,66fc983ac4b9a29d76467132,2024-10-02_13h49.56.704,mdp,2024.2.1,MacIntel,58.47953216,66fa4ebf79326e780c390304,,,,,,,,,,,,,,,,,,,,,351.1994,351.1994,351.2004,352.2318,1,0,right,0.5097,,352.2329,352.2337,,0,,352.2345,352.2352,,0,,1,352.2353,352.2353,352.2358,353.7314,0,45,45,45,1,0.4,0.6,0.6,0.4,1,0,,,,,,,,,,,,,,,,,,,,,,,,,,,,,,,,,,,,
,,6500c323c1cfec3960e2b000,66fc983ac4b9a29d76467132,2024-10-02_13h49.56.704,mdp,2024.2.1,MacIntel,58.47953216,66fa4ebf79326e780c390304,,,,,,,,,,,,,,,,,,,,,353.732,353.732,353.7335,354.7489,0,1,left,0.4926,,354.7499,354.7512,,1,,354.7521,354.7528,,1,,0,354.7529,354.7529,354.7537,356.2454,0,46,46,46,1,0.4,0.6,0.6,0.4,1,0,,,,,,,,,,,,,,,,,,,,,,,,,,,,,,,,,,,,
,,6500c323c1cfec3960e2b000,66fc983ac4b9a29d76467132,2024-10-02_13h49.56.704,mdp,2024.2.1,MacIntel,58.47953216,66fa4ebf79326e780c390304,,,,,,,,,,,,,,,,,,,,,356.2459,356.246,356.2478,357.8446,0,1,left,1.0704,,357.8456,357.8467,,1,,357.8475,357.8482,,1,,0,357.8482,357.8482,357.8489,359.3442,0,47,47,47,1,0.4,0.6,0.6,0.4,1,0,,,,,,,,,,,,,,,,,,,,,,,,,,,,,,,,,,,,
,,6500c323c1cfec3960e2b000,66fc983ac4b9a29d76467132,2024-10-02_13h49.56.704,mdp,2024.2.1,MacIntel,58.47953216,66fa4ebf79326e780c390304,,,,,,,,,,,,,,,,,,,,,359.3448,359.3449,359.3466,360.3605,1,1,right,0.4641,,360.3612,360.3623,,0,,360.3631,360.3636,,0,,0,360.3636,360.3636,360.3642,361.8584,0,48,48,48,1,0.4,0.6,0.6,0.4,1,0,,,,,,,,,,,,,,,,,,,,,,,,,,,,,,,,,,,,
,,6500c323c1cfec3960e2b000,66fc983ac4b9a29d76467132,2024-10-02_13h49.56.704,mdp,2024.2.1,MacIntel,58.47953216,66fa4ebf79326e780c390304,,,,,,,,,,,,,,,,,,,,,361.8587,361.8588,361.8599,362.8933,1,1,right,0.524,,362.8941,362.8949,,0,,362.8955,362.8964,,0,,0,362.8964,362.8964,362.897,364.3905,0,49,49,49,1,0.4,0.6,0.6,0.4,1,0,,,,,,,,,,,,,,,,,,,,,,,,,,,,,,,,,,,,
,,6500c323c1cfec3960e2b000,66fc983ac4b9a29d76467132,2024-10-02_13h49.56.704,mdp,2024.2.1,MacIntel,58.47953216,66fa4ebf79326e780c390304,,,,,,,,,,,,,,,,,,,,,,,,,,,,,,,,,,,,,,,,,,,,,,,,,,,,,,,,364.3934,422.902,0,0,0,4,1,imgs/rabbit.png,imgs/elephant.png,imgs/kangaroo.png,imgs/horse.png,imgs/goat.png,,,,,,,,,,,,,,,,,,,,,,,,
,,6500c323c1cfec3960e2b000,66fc983ac4b9a29d76467132,2024-10-02_13h49.56.704,mdp,2024.2.1,MacIntel,58.47953216,66fa4ebf79326e780c390304,,,,,,,,,,,,,,2,seqs/st2seq42.csv,422.917,425.183,space,1.7531,,425.1883,425.1883,425.1894,434.8599,1,1,right,9.1321,,434.8765,438.1249,1,1,right,438.1402,438.1415,,1,,0,438.1415,438.1415,438.1424,439.6403,0,0,0,0,1,0.2,0.8,0.6,0.4,,,,,,,,,,,,,,,2.7376,,0.2,0.8,0.8,0.2,0.6,0.4,0.2,0.8,1,0,,,,,,,,,,,,
,,6500c323c1cfec3960e2b000,66fc983ac4b9a29d76467132,2024-10-02_13h49.56.704,mdp,2024.2.1,MacIntel,58.47953216,66fa4ebf79326e780c390304,,,,,,,,,,,,,,,,,,,,,439.6408,439.6408,439.6419,441.2083,1,1,right,1.0554,,441.2095,444.688,0,0,left,444.689,444.6902,,0,,1,444.6903,444.6903,444.6912,446.1868,0,1,1,1,1,0.2,0.8,0.6,0.4,,,,,,,,,,,,,,,2.9546,,0.2,0.8,0.8,0.2,0.6,0.4,0.2,0.8,1,0,,,,,,,,,,,,
,,6500c323c1cfec3960e2b000,66fc983ac4b9a29d76467132,2024-10-02_13h49.56.704,mdp,2024.2.1,MacIntel,58.47953216,66fa4ebf79326e780c390304,,,,,,,,,,,,,,,,,,,,,446.1874,446.1874,446.1889,451.3516,0,1,left,4.641,,451.3657,453.0875,1,1,right,453.0884,453.0894,,1,,0,453.0894,453.0894,453.09,454.5804,0,2,2,2,1,0.2,0.8,0.6,0.4,,,,,,,,,,,,,,,1.2061,,0.2,0.8,0.8,0.2,0.6,0.4,0.2,0.8,1,0,,,,,,,,,,,,
,,6500c323c1cfec3960e2b000,66fc983ac4b9a29d76467132,2024-10-02_13h49.56.704,mdp,2024.2.1,MacIntel,58.47953216,66fa4ebf79326e780c390304,,,,,,,,,,,,,,,,,,,,,454.5807,454.5807,454.5819,456.2134,0,1,left,1.1082,,456.2143,459.0781,0,0,left,459.0931,459.094,,0,,1,459.094,459.094,459.0949,460.5944,0,3,3,3,1,0.2,0.8,0.6,0.4,,,,,,,,,,,,,,,2.338,,0.2,0.8,0.8,0.2,0.6,0.4,0.2,0.8,1,0,,,,,,,,,,,,
,,6500c323c1cfec3960e2b000,66fc983ac4b9a29d76467132,2024-10-02_13h49.56.704,mdp,2024.2.1,MacIntel,58.47953216,66fa4ebf79326e780c390304,,,,,,,,,,,,,,,,,,,,,460.5949,460.5949,460.596,464.0573,0,0,left,2.9409,,464.0734,466.4062,0,1,left,466.407,466.4077,,1,,0,466.4078,466.4078,466.4087,467.906,0,4,4,4,1,0.2,0.8,0.6,0.4,,,,,,,,,,,,,,,1.826,,0.2,0.8,0.8,0.2,0.6,0.4,0.2,0.8,1,0,,,,,,,,,,,,
,,6500c323c1cfec3960e2b000,66fc983ac4b9a29d76467132,2024-10-02_13h49.56.704,mdp,2024.2.1,MacIntel,58.47953216,66fa4ebf79326e780c390304,,,,,,,,,,,,,,,,,,,,,467.9067,467.907,467.9086,469.6873,0,1,left,1.258,,469.6882,472.7858,0,1,left,472.7869,472.7882,,1,,0,472.7883,472.7883,472.7893,474.2848,0,5,5,5,1,0.2,0.8,0.6,0.4,,,,,,,,,,,,,,,2.5571,,0.2,0.8,0.8,0.2,0.6,0.4,0.2,0.8,1,0,,,,,,,,,,,,
,,6500c323c1cfec3960e2b000,66fc983ac4b9a29d76467132,2024-10-02_13h49.56.704,mdp,2024.2.1,MacIntel,58.47953216,66fa4ebf79326e780c390304,,,,,,,,,,,,,,,,,,,,,474.2856,474.2856,474.2866,476.0003,0,1,left,1.1877,,476.0013,477.4485,1,1,right,477.4492,477.4501,,1,,0,477.4501,477.4501,477.451,478.9487,0,6,6,6,1,0.2,0.8,0.6,0.4,,,,,,,,,,,,,,,0.9235,,0.2,0.8,0.8,0.2,0.6,0.4,0.2,0.8,1,0,,,,,,,,,,,,
,,6500c323c1cfec3960e2b000,66fc983ac4b9a29d76467132,2024-10-02_13h49.56.704,mdp,2024.2.1,MacIntel,58.47953216,66fa4ebf79326e780c390304,,,,,,,,,,,,,,,,,,,,,478.9491,478.9491,478.9502,480.6137,0,1,left,1.1385,,480.6144,482.1801,0,1,left,482.1812,482.183,,1,,0,482.183,482.1831,482.1841,483.6781,0,7,7,7,1,0.2,0.8,0.6,0.4,,,,,,,,,,,,,,,1.0093,,0.2,0.8,0.8,0.2,0.6,0.4,0.2,0.8,1,0,,,,,,,,,,,,
,,6500c323c1cfec3960e2b000,66fc983ac4b9a29d76467132,2024-10-02_13h49.56.704,mdp,2024.2.1,MacIntel,58.47953216,66fa4ebf79326e780c390304,,,,,,,,,,,,,,,,,,,,,483.6784,483.6784,483.6799,485.2448,0,1,left,1.0385,,485.2463,488.4754,0,0,left,488.4763,488.4774,,1,,1,488.4774,488.4774,488.4786,489.9733,0,8,8,8,1,0.2,0.8,0.6,0.4,,,,,,,,,,,,,,,2.7054,,0.2,0.8,0.8,0.2,0.6,0.4,0.2,0.8,1,0,,,,,,,,,,,,
,,6500c323c1cfec3960e2b000,66fc983ac4b9a29d76467132,2024-10-02_13h49.56.704,mdp,2024.2.1,MacIntel,58.47953216,66fa4ebf79326e780c390304,,,,,,,,,,,,,,,,,,,,,489.9737,489.9737,489.9746,491.5063,0,0,left,1.0074,,491.5073,494.3711,1,1,right,494.3726,494.3742,,0,,0,494.3742,494.3742,494.3752,495.8701,0,9,9,9,1,0.6,0.4,0.2,0.8,,,,,,,,,,,,,,,2.3467,,0.2,0.8,0.8,0.2,0.6,0.4,0.2,0.8,1,0,,,,,,,,,,,,
,,6500c323c1cfec3960e2b000,66fc983ac4b9a29d76467132,2024-10-02_13h49.56.704,mdp,2024.2.1,MacIntel,58.47953216,66fa4ebf79326e780c390304,,,,,,,,,,,,,,,,,,,,,495.8705,495.8705,495.8717,497.1361,0,0,left,0.734,,497.1373,498.2856,0,1,left,498.2867,498.2878,,1,,0,498.2878,498.2879,498.2886,499.7848,0,10,10,10,1,0.6,0.4,0.2,0.8,,,,,,,,,,,,,,,0.6212,,0.2,0.8,0.8,0.2,0.6,0.4,0.2,0.8,1,0,,,,,,,,,,,,
,,6500c323c1cfec3960e2b000,66fc983ac4b9a29d76467132,2024-10-02_13h49.56.704,mdp,2024.2.1,MacIntel,58.47953216,66fa4ebf79326e780c390304,,,,,,,,,,,,,,,,,,,,,499.7852,499.7852,499.7867,500.9837,0,0,left,0.6725,,500.9847,502.4485,1,0,right,502.4495,502.4507,,0,,1,502.4508,502.4508,502.4515,503.9483,0,11,11,11,1,0.2,0.8,0.6,0.4,,,,,,,,,,,,,,,0.9378,,0.2,0.8,0.8,0.2,0.6,0.4,0.2,0.8,1,0,,,,,,,,,,,,
,,6500c323c1cfec3960e2b000,66fc983ac4b9a29d76467132,2024-10-02_13h49.56.704,mdp,2024.2.1,MacIntel,58.47953216,66fa4ebf79326e780c390304,,,,,,,,,,,,,,,,,,,,,503.9488,503.9488,503.9499,505.3468,0,1,left,0.8708,,505.3478,507.596,1,1,right,507.5971,507.5988,,1,,0,507.5988,507.5989,507.5998,509.0944,0,12,12,12,1,0.2,0.8,0.6,0.4,,,,,,,,,,,,,,,1.7218,,0.2,0.8,0.8,0.2,0.6,0.4,0.2,0.8,1,0,,,,,,,,,,,,
,,6500c323c1cfec3960e2b000,66fc983ac4b9a29d76467132,2024-10-02_13h49.56.704,mdp,2024.2.1,MacIntel,58.47953216,66fa4ebf79326e780c390304,,,,,,,,,,,,,,,,,,,,,509.0947,509.0947,509.0957,510.394,0,1,left,0.7721,,510.3947,511.4929,0,1,left,511.4942,511.4951,,0,,0,511.4952,511.4952,511.4959,512.9751,0,13,13,13,1,0.2,0.8,0.6,0.4,,,,,,,,,,,,,,,0.5656,,0.6,0.4,0.6,0.4,0.6,0.4,0.2,0.8,1,0,,,,,,,,,,,,
,,6500c323c1cfec3960e2b000,66fc983ac4b9a29d76467132,2024-10-02_13h49.56.704,mdp,2024.2.1,MacIntel,58.47953216,66fa4ebf79326e780c390304,,,,,,,,,,,,,,,,,,,,,512.9754,512.9754,512.9762,514.2412,0,1,left,0.7346,,514.242,515.8901,1,1,right,515.8913,515.8921,,1,,0,515.8921,515.8921,515.8931,517.3901,0,14,14,14,1,0.2,0.8,0.6,0.4,,,,,,,,,,,,,,,1.1329,,0.6,0.4,0.6,0.4,0.6,0.4,0.2,0.8,1,0,,,,,,,,,,,,
,,6500c323c1cfec3960e2b000,66fc983ac4b9a29d76467132,2024-10-02_13h49.56.704,mdp,2024.2.1,MacIntel,58.47953216,66fa4ebf79326e780c390304,,,,,,,,,,,,,,,,,,,,,517.3907,517.3908,517.3921,518.822,0,1,left,0.9076,,518.8228,523.5355,0,1,left,523.553,523.5538,,0,,0,523.5538,523.5538,523.555,525.0516,0,15,15,15,1,0.2,0.8,0.6,0.4,,,,,,,,,,,,,,,4.1735,,0.6,0.4,0.6,0.4,0.6,0.4,0.2,0.8,1,0,,,,,,,,,,,,
,,6500c323c1cfec3960e2b000,66fc983ac4b9a29d76467132,2024-10-02_13h49.56.704,mdp,2024.2.1,MacIntel,58.47953216,66fa4ebf79326e780c390304,,,,,,,,,,,,,,,,,,,,,525.0523,525.0523,525.0543,526.2004,0,1,left,0.6164,,526.2019,528.0019,0,1,left,528.0034,528.0048,,1,,0,528.0049,528.0049,528.0057,529.4983,0,16,16,16,1,0.2,0.8,0.6,0.4,,,,,,,,,,,,,,,1.2704,,0.6,0.4,0.6,0.4,0.6,0.4,0.2,0.8,1,0,,,,,,,,,,,,
,,6500c323c1cfec3960e2b000,66fc983ac4b9a29d76467132,2024-10-02_13h49.56.704,mdp,2024.2.1,MacIntel,58.47953216,66fa4ebf79326e780c390304,,,,,,,,,,,,,,,,,,,,,529.4992,529.4992,529.5011,530.7139,0,0,left,0.6842,,530.7152,531.8796,1,1,right,531.8805,531.8822,,0,,0,531.8823,531.8823,531.8829,533.3788,0,17,17,17,1,0.2,0.8,0.6,0.4,,,,,,,,,,,,,,,0.6315,,0.6,0.4,0.6,0.4,0.8,0.2,0.6,0.4,1,0,,,,,,,,,,,,
,,6500c323c1cfec3960e2b000,66fc983ac4b9a29d76467132,2024-10-02_13h49.56.704,mdp,2024.2.1,MacIntel,58.47953216,66fa4ebf79326e780c390304,,,,,,,,,,,,,,,,,,,,,533.3795,533.3795,533.3805,534.5134,0,0,left,0.6144,,534.5147,535.6273,0,0,left,535.6283,535.63,,1,,1,535.63,535.63,535.631,537.1264,0,18,18,18,1,0.2,0.8,0.6,0.4,,,,,,,,,,,,,,,0.588,,0.6,0.4,0.6,0.4,0.8,0.2,0.6,0.4,1,0,,,,,,,,,,,,
,,6500c323c1cfec3960e2b000,66fc983ac4b9a29d76467132,2024-10-02_13h49.56.704,mdp,2024.2.1,MacIntel,58.47953216,66fa4ebf79326e780c390304,,,,,,,,,,,,,,,,,,,,,537.1275,537.1275,537.1286,538.1422,0,1,left,0.482,,538.1432,539.177,0,0,left,539.1787,539.1796,,0,,1,539.1797,539.1797,539.1803,540.6766,0,19,19,19,1,0.2,0.8,0.6,0.4,,,,,,,,,,,,,,,0.5003,,0.6,0.4,0.6,0.4,0.8,0.2,0.6,0.4,1,0,,,,,,,,,,,,
,,6500c323c1cfec3960e2b000,66fc983ac4b9a29d76467132,2024-10-02_13h49.56.704,mdp,2024.2.1,MacIntel,58.47953216,66fa4ebf79326e780c390304,,,,,,,,,,,,,,,,,,,,,540.6768,540.6768,540.6778,541.8722,0,1,left,0.6669,,541.873,543.5388,0,1,left,543.5401,543.5417,,0,,0,543.5418,543.5418,543.5425,545.0373,0,20,20,20,1,0.2,0.8,0.6,0.4,,,,,,,,,,,,,,,1.1469,,0.6,0.4,0.6,0.4,0.8,0.2,0.6,0.4,1,0,,,,,,,,,,,,
,,6500c323c1cfec3960e2b000,66fc983ac4b9a29d76467132,2024-10-02_13h49.56.704,mdp,2024.2.1,MacIntel,58.47953216,66fa4ebf79326e780c390304,,,,,,,,,,,,,,,,,,,,,545.0378,545.0379,545.0393,545.9871,0,1,left,0.4225,,545.9881,548.5357,1,0,right,548.5368,548.538,,1,,1,548.5381,548.5381,548.5389,550.0341,0,21,21,21,1,0.2,0.8,0.6,0.4,,,,,,,,,,,,,,,2.0152,,0.6,0.4,0.6,0.4,0.8,0.2,0.6,0.4,1,0,,,,,,,,,,,,
,,6500c323c1cfec3960e2b000,66fc983ac4b9a29d76467132,2024-10-02_13h49.56.704,mdp,2024.2.1,MacIntel,58.47953216,66fa4ebf79326e780c390304,,,,,,,,,,,,,,,,,,,,,550.0344,550.0345,550.0358,551.2167,0,1,left,0.657,,551.2178,554.5817,1,0,right,554.5826,554.5838,,1,,1,554.5839,554.5839,554.5849,556.0806,0,22,22,22,1,0.2,0.8,0.6,0.4,,,,,,,,,,,,,,,2.8411,,0.8,0.2,0.8,0.2,0.8,0.2,0.6,0.4,1,0,,,,,,,,,,,,
,,6500c323c1cfec3960e2b000,66fc983ac4b9a29d76467132,2024-10-02_13h49.56.704,mdp,2024.2.1,MacIntel,58.47953216,66fa4ebf79326e780c390304,,,,,,,,,,,,,,,,,,,,,556.081,556.081,556.082,557.129,0,1,left,0.5179,,557.1299,558.7947,0,1,left,558.7963,558.7977,,0,,0,558.7977,558.7977,558.7986,560.2944,0,23,23,23,1,0.2,0.8,0.6,0.4,,,,,,,,,,,,,,,1.1479,,0.8,0.2,0.8,0.2,0.8,0.2,0.6,0.4,1,0,,,,,,,,,,,,
,,6500c323c1cfec3960e2b000,66fc983ac4b9a29d76467132,2024-10-02_13h49.56.704,mdp,2024.2.1,MacIntel,58.47953216,66fa4ebf79326e780c390304,,,,,,,,,,,,,,,,,,,,,560.2948,560.2948,560.2964,561.3094,0,0,left,0.4923,,561.3103,563.1415,1,0,right,563.1424,563.1431,,0,,1,563.1432,563.1432,563.1442,564.6408,0,24,24,24,1,0.2,0.8,0.6,0.4,,,,,,,,,,,,,,,1.2961,,0.8,0.2,0.8,0.2,0.8,0.2,0.6,0.4,1,0,,,,,,,,,,,,
,,6500c323c1cfec3960e2b000,66fc983ac4b9a29d76467132,2024-10-02_13h49.56.704,mdp,2024.2.1,MacIntel,58.47953216,66fa4ebf79326e780c390304,,,,,,,,,,,,,,,,,,,,,564.6414,564.6414,564.6426,565.7907,0,0,left,0.6173,,565.7916,567.5886,1,0,right,567.5895,567.5906,,0,,1,567.5906,567.5906,567.5913,569.0876,0,25,25,25,1,0.2,0.8,0.6,0.4,,,,,,,,,,,,,,,1.2625,,0.8,0.2,0.8,0.2,0.8,0.2,0.6,0.4,1,0,,,,,,,,,,,,
,,6500c323c1cfec3960e2b000,66fc983ac4b9a29d76467132,2024-10-02_13h49.56.704,mdp,2024.2.1,MacIntel,58.47953216,66fa4ebf79326e780c390304,,,,,,,,,,,,,,,,,,,,,569.0883,569.0883,569.0891,570.2454,0,1,left,0.6067,,570.2462,572.3531,1,0,right,572.3542,572.3549,,0,,1,572.3549,572.3549,572.3558,573.8519,0,26,26,26,1,0.2,0.8,0.6,0.4,,,,,,,,,,,,,,,1.5574,,0.8,0.2,0.8,0.2,0.8,0.2,0.6,0.4,1,0,,,,,,,,,,,,
,,6500c323c1cfec3960e2b000,66fc983ac4b9a29d76467132,2024-10-02_13h49.56.704,mdp,2024.2.1,MacIntel,58.47953216,66fa4ebf79326e780c390304,,,,,,,,,,,,,,,,,,,,,573.8524,573.8525,573.8535,575.0349,0,0,left,0.6489,,575.0362,576.8175,1,0,right,576.8184,576.8198,,1,,1,576.8199,576.8199,576.821,578.3156,0,27,27,27,1,0.2,0.8,0.6,0.4,,,,,,,,,,,,,,,1.2469,,0.8,0.2,0.8,0.2,0.8,0.2,0.6,0.4,1,0,,,,,,,,,,,,
,,6500c323c1cfec3960e2b000,66fc983ac4b9a29d76467132,2024-10-02_13h49.56.704,mdp,2024.2.1,MacIntel,58.47953216,66fa4ebf79326e780c390304,,,,,,,,,,,,,,,,,,,,,578.316,578.316,578.3168,579.3974,0,1,left,0.5565,,579.3983,581.0637,0,1,left,581.0647,581.066,,0,,0,581.0661,581.0661,581.0674,582.5622,0,28,28,28,1,0.2,0.8,0.6,0.4,,,,,,,,,,,,,,,1.145,,0.8,0.2,0.8,0.2,0.8,0.2,0.6,0.4,1,0,,,,,,,,,,,,
,,6500c323c1cfec3960e2b000,66fc983ac4b9a29d76467132,2024-10-02_13h49.56.704,mdp,2024.2.1,MacIntel,58.47953216,66fa4ebf79326e780c390304,,,,,,,,,,,,,,,,,,,,,582.5626,582.5626,582.5636,583.5453,0,1,left,0.451,,583.5465,585.3941,1,0,right,585.3953,585.3959,,1,,1,585.396,585.396,585.3967,586.8937,0,29,29,29,1,0.2,0.8,0.6,0.4,,,,,,,,,,,,,,,1.3263,,0.8,0.2,0.8,0.2,0.2,0.8,0.2,0.8,1,0,,,,,,,,,,,,
,,6500c323c1cfec3960e2b000,66fc983ac4b9a29d76467132,2024-10-02_13h49.56.704,mdp,2024.2.1,MacIntel,58.47953216,66fa4ebf79326e780c390304,,,,,,,,,,,,,,,,,,,,,586.8943,586.8943,586.896,588.0092,0,1,left,0.5961,,588.01,589.6741,1,1,right,589.675,589.6758,,1,,0,589.6758,589.6758,589.6767,591.1729,0,30,30,30,1,0.2,0.8,0.6,0.4,,,,,,,,,,,,,,,1.1368,,0.8,0.2,0.8,0.2,0.2,0.8,0.2,0.8,1,0,,,,,,,,,,,,
,,6500c323c1cfec3960e2b000,66fc983ac4b9a29d76467132,2024-10-02_13h49.56.704,mdp,2024.2.1,MacIntel,58.47953216,66fa4ebf79326e780c390304,,,,,,,,,,,,,,,,,,,,,591.1732,591.1732,591.1743,592.5062,0,1,left,0.8195,,592.5073,595.1212,1,1,right,595.1224,595.1236,,0,,0,595.1236,595.1236,595.1247,596.6195,0,31,31,31,1,0.2,0.8,0.6,0.4,,,,,,,,,,,,,,,2.0935,,0.8,0.2,0.8,0.2,0.2,0.8,0.2,0.8,1,0,,,,,,,,,,,,
,,6500c323c1cfec3960e2b000,66fc983ac4b9a29d76467132,2024-10-02_13h49.56.704,mdp,2024.2.1,MacIntel,58.47953216,66fa4ebf79326e780c390304,,,,,,,,,,,,,,,,,,,,,596.6201,596.6201,596.6211,597.6852,0,1,left,0.542,,597.6861,598.8854,0,0,left,598.8862,598.8883,,1,,1,598.8883,598.8883,598.8889,600.3668,0,32,32,32,1,0.2,0.8,0.6,0.4,,,,,,,,,,,,,,,0.6664,,0.8,0.2,0.8,0.2,0.6,0.4,0.6,0.4,1,0,,,,,,,,,,,,
,,6500c323c1cfec3960e2b000,66fc983ac4b9a29d76467132,2024-10-02_13h49.56.704,mdp,2024.2.1,MacIntel,58.47953216,66fa4ebf79326e780c390304,,,,,,,,,,,,,,,,,,,,,600.3671,600.3671,600.3682,601.4837,0,1,left,0.5918,,601.4846,602.9321,0,0,left,602.933,602.934,,0,,1,602.934,602.934,602.9346,604.4317,0,33,33,33,1,0.2,0.8,0.6,0.4,,,,,,,,,,,,,,,0.9215,,0.4,0.6,0.4,0.6,0.6,0.4,0.6,0.4,1,0,,,,,,,,,,,,
,,6500c323c1cfec3960e2b000,66fc983ac4b9a29d76467132,2024-10-02_13h49.56.704,mdp,2024.2.1,MacIntel,58.47953216,66fa4ebf79326e780c390304,,,,,,,,,,,,,,,,,,,,,604.4322,604.4322,604.4331,605.6313,0,0,left,0.6759,,605.6325,607.3289,1,1,right,607.3299,607.331,,0,,0,607.3311,607.3311,607.3317,608.828,0,34,34,34,1,0.2,0.8,0.6,0.4,,,,,,,,,,,,,,,1.1516,,0.4,0.6,0.4,0.6,0.6,0.4,0.6,0.4,1,0,,,,,,,,,,,,
,,6500c323c1cfec3960e2b000,66fc983ac4b9a29d76467132,2024-10-02_13h49.56.704,mdp,2024.2.1,MacIntel,58.47953216,66fa4ebf79326e780c390304,,,,,,,,,,,,,,,,,,,,,608.8284,608.8284,608.8293,609.9614,0,1,left,0.6014,,609.9625,611.7602,0,1,left,611.7614,611.7621,,1,,0,611.7621,611.7621,611.7629,613.2595,0,35,35,35,1,0.2,0.8,0.6,0.4,,,,,,,,,,,,,,,1.2606,,0.6,0.4,0.6,0.4,0.6,0.4,0.6,0.4,1,0,,,,,,,,,,,,
,,6500c323c1cfec3960e2b000,66fc983ac4b9a29d76467132,2024-10-02_13h49.56.704,mdp,2024.2.1,MacIntel,58.47953216,66fa4ebf79326e780c390304,,,,,,,,,,,,,,,,,,,,,613.2599,613.2599,613.2609,614.3079,0,0,left,0.5155,,614.3103,616.1572,1,0,right,616.1582,616.159,,0,,1,616.159,616.159,616.1598,617.656,0,36,36,36,1,0.8,0.2,0.2,0.8,,,,,,,,,,,,,,,1.3273,,0.6,0.4,0.6,0.4,0.6,0.4,0.6,0.4,1,0,,,,,,,,,,,,
,,6500c323c1cfec3960e2b000,66fc983ac4b9a29d76467132,2024-10-02_13h49.56.704,mdp,2024.2.1,MacIntel,58.47953216,66fa4ebf79326e780c390304,,,,,,,,,,,,,,,,,,,,,617.6566,617.6566,617.6579,618.855,0,0,left,0.6658,,618.856,621.5365,0,1,left,621.5523,621.5536,,0,,0,621.5536,621.5536,621.5546,623.0522,0,37,37,37,1,0.8,0.2,0.2,0.8,,,,,,,,,,,,,,,2.1678,,0.6,0.4,0.6,0.4,0.6,0.4,0.6,0.4,1,0,,,,,,,,,,,,
,,6500c323c1cfec3960e2b000,66fc983ac4b9a29d76467132,2024-10-02_13h49.56.704,mdp,2024.2.1,MacIntel,58.47953216,66fa4ebf79326e780c390304,,,,,,,,,,,,,,,,,,,,,623.0532,623.0532,623.0551,624.2365,0,0,left,0.6495,,624.2376,625.4181,1,0,right,625.4199,625.421,,1,,1,625.4211,625.4211,625.4218,626.9168,0,38,38,38,1,0.8,0.2,0.2,0.8,,,,,,,,,,,,,,,0.6431,,0.4,0.6,0.8,0.2,0.6,0.4,0.6,0.4,1,0,,,,,,,,,,,,
,,6500c323c1cfec3960e2b000,66fc983ac4b9a29d76467132,2024-10-02_13h49.56.704,mdp,2024.2.1,MacIntel,58.47953216,66fa4ebf79326e780c390304,,,,,,,,,,,,,,,,,,,,,626.9174,626.9176,626.919,628.0176,0,0,left,0.5772,,628.0184,629.6213,1,1,right,629.6226,629.6233,,0,,0,629.6233,629.6233,629.6239,631.1163,0,39,39,39,1,0.8,0.2,0.2,0.8,,,,,,,,,,,,,,,1.082,,0.4,0.6,0.8,0.2,0.6,0.4,0.6,0.4,1,0,,,,,,,,,,,,
,,6500c323c1cfec3960e2b000,66fc983ac4b9a29d76467132,2024-10-02_13h49.56.704,mdp,2024.2.1,MacIntel,58.47953216,66fa4ebf79326e780c390304,,,,,,,,,,,,,,,,,,,,,631.1165,631.1165,631.1175,632.2461,0,0,left,0.6061,,632.2469,633.978,0,0,left,633.9789,633.9802,,1,,1,633.9803,633.9803,633.9809,635.4772,0,40,40,40,1,0.8,0.2,0.2,0.8,,,,,,,,,,,,,,,1.2033,,0.4,0.6,0.8,0.2,0.6,0.4,0.6,0.4,1,0,,,,,,,,,,,,
,,6500c323c1cfec3960e2b000,66fc983ac4b9a29d76467132,2024-10-02_13h49.56.704,mdp,2024.2.1,MacIntel,58.47953216,66fa4ebf79326e780c390304,,,,,,,,,,,,,,,,,,,,,635.4777,635.4778,635.4785,636.5439,0,0,left,0.5359,,636.5453,638.426,0,1,left,638.4271,638.4278,,0,,0,638.4279,638.4279,638.4286,639.9244,0,41,41,41,1,0.8,0.2,0.2,0.8,,,,,,,,,,,,,,,1.3536,,0.4,0.6,0.8,0.2,0.6,0.4,0.6,0.4,1,0,,,,,,,,,,,,
,,6500c323c1cfec3960e2b000,66fc983ac4b9a29d76467132,2024-10-02_13h49.56.704,mdp,2024.2.1,MacIntel,58.47953216,66fa4ebf79326e780c390304,,,,,,,,,,,,,,,,,,,,,639.9249,639.925,639.926,641.0911,0,0,left,0.6332,,641.0923,643.5228,1,0,right,643.5379,643.5388,,0,,1,643.5388,643.5388,643.5396,645.0386,0,42,42,42,1,0.8,0.2,0.2,0.8,,,,,,,,,,,,,,,1.9087,,0.4,0.6,0.8,0.2,0.6,0.4,0.6,0.4,1,0,,,,,,,,,,,,
,,6500c323c1cfec3960e2b000,66fc983ac4b9a29d76467132,2024-10-02_13h49.56.704,mdp,2024.2.1,MacIntel,58.47953216,66fa4ebf79326e780c390304,,,,,,,,,,,,,,,,,,,,,645.0395,645.0395,645.0411,646.2036,0,0,left,0.6336,,646.2049,647.4878,1,0,right,647.4887,647.4919,,1,,1,647.492,647.492,647.4927,648.9855,0,43,43,43,1,0.8,0.2,0.2,0.8,,,,,,,,,,,,,,,0.7734,,0.4,0.6,0.8,0.2,0.6,0.4,0.6,0.4,1,0,,,,,,,,,,,,
,,6500c323c1cfec3960e2b000,66fc983ac4b9a29d76467132,2024-10-02_13h49.56.704,mdp,2024.2.1,MacIntel,58.47953216,66fa4ebf79326e780c390304,,,,,,,,,,,,,,,,,,,,,648.9867,648.9867,648.9878,650.0678,0,0,left,0.5527,,650.0687,651.7167,0,1,left,651.7185,651.7194,,1,,0,651.7194,651.7194,651.7201,653.2155,0,44,44,44,1,0.8,0.2,0.2,0.8,,,,,,,,,,,,,,,1.1152,,0.4,0.6,0.8,0.2,0.4,0.6,0.4,0.6,1,0,,,,,,,,,,,,
,,6500c323c1cfec3960e2b000,66fc983ac4b9a29d76467132,2024-10-02_13h49.56.704,mdp,2024.2.1,MacIntel,58.47953216,66fa4ebf79326e780c390304,,,,,,,,,,,,,,,,,,,,,653.2159,653.2159,653.217,654.165,0,0,left,0.4148,,654.1661,655.4307,1,1,right,655.4317,655.4326,,0,,0,655.4327,655.4327,655.4333,656.9296,0,45,45,45,1,0.8,0.2,0.2,0.8,,,,,,,,,,,,,,,0.7379,,0.4,0.6,0.8,0.2,0.4,0.6,0.4,0.6,1,0,,,,,,,,,,,,
,,6500c323c1cfec3960e2b000,66fc983ac4b9a29d76467132,2024-10-02_13h49.56.704,mdp,2024.2.1,MacIntel,58.47953216,66fa4ebf79326e780c390304,,,,,,,,,,,,,,,,,,,,,656.9302,656.9302,656.9314,658.1297,0,0,left,0.6671,,658.1313,661.744,0,0,left,661.7631,661.7648,,1,,1,661.7649,661.7649,661.7657,663.2803,0,46,46,46,1,0.8,0.2,0.2,0.8,,,,,,,,,,,,,,,3.0841,,0.4,0.6,0.8,0.2,0.4,0.6,0.4,0.6,1,0,,,,,,,,,,,,
,,6500c323c1cfec3960e2b000,66fc983ac4b9a29d76467132,2024-10-02_13h49.56.704,mdp,2024.2.1,MacIntel,58.47953216,66fa4ebf79326e780c390304,,,,,,,,,,,,,,,,,,,,,663.2806,663.2806,663.2813,664.4577,0,0,left,0.6508,,664.4584,665.8747,0,1,left,665.8755,665.8766,,1,,0,665.8766,665.8766,665.8776,667.3732,0,47,47,47,1,0.8,0.2,0.2,0.8,,,,,,,,,,,,,,,0.889,,0.4,0.6,0.8,0.2,0.6,0.4,0.8,0.2,1,0,,,,,,,,,,,,
,,6500c323c1cfec3960e2b000,66fc983ac4b9a29d76467132,2024-10-02_13h49.56.704,mdp,2024.2.1,MacIntel,58.47953216,66fa4ebf79326e780c390304,,,,,,,,,,,,,,,,,,,,,667.3735,667.3735,667.3745,668.4057,0,0,left,0.5066,,668.4065,669.4878,1,0,right,669.4887,669.4913,,0,,1,669.4913,669.4913,669.4922,670.9867,0,48,48,48,1,0.8,0.2,0.2,0.8,,,,,,,,,,,,,,,0.5584,,0.4,0.6,0.8,0.2,0.4,0.6,0.2,0.8,1,0,,,,,,,,,,,,
,,6500c323c1cfec3960e2b000,66fc983ac4b9a29d76467132,2024-10-02_13h49.56.704,mdp,2024.2.1,MacIntel,58.47953216,66fa4ebf79326e780c390304,,,,,,,,,,,,,,,,,,,,,670.9875,670.9876,670.9885,672.2362,0,0,left,0.7317,,672.2378,673.3025,1,0,right,673.3038,673.3054,,1,,1,673.3054,673.3054,673.3064,674.8022,0,49,49,49,1,0.8,0.2,0.2,0.8,,,,,,,,,,,,,,,0.549,,0.4,0.6,0.8,0.2,0.4,0.6,0.2,0.8,1,0,,,,,,,,,,,,
,,6500c323c1cfec3960e2b000,66fc983ac4b9a29d76467132,2024-10-02_13h49.56.704,mdp,2024.2.1,MacIntel,58.47953216,66fa4ebf79326e780c390304,,,,,,,,,,,,,,,,,,,,,,,,,,,,,,,,,,,,,,,,,,,,,,,,,,,,,,,,674.8024,733.3133,0,1,1,2,1,imgs/goat.png,imgs/lion.png,imgs/giraffe.png,imgs/dog.png,imgs/bear.png,,,,,,,,,,,,,,,,,,,,,,,,
,,6500c323c1cfec3960e2b000,66fc983ac4b9a29d76467132,2024-10-02_13h49.56.704,mdp,2024.2.1,MacIntel,58.47953216,66fa4ebf79326e780c390304,,,,,,,,,,,,,,3,seqs/st3seq19.csv,733.3304,735.6107,space,1.7559,,735.6187,735.6187,735.6195,741.0914,0,1,left,4.9426,,741.1091,743.6221,1,1,right,743.6377,747.4204,1,0,right,1,747.4205,747.4205,747.436,748.9189,0,0,0,0,1,0.8,0.2,0.4,0.6,,,,,,,,,,,,,,,1.9928,,0.4,0.6,0.6,0.4,0.8,0.2,0.4,0.6,,,3.2711,,0.6,0.4,0.2,0.8,0.8,0.2,0.8,0.2,1,0
,,6500c323c1cfec3960e2b000,66fc983ac4b9a29d76467132,2024-10-02_13h49.56.704,mdp,2024.2.1,MacIntel,58.47953216,66fa4ebf79326e780c390304,,,,,,,,,,,,,,,,,,,,,748.9195,748.9195,748.9209,750.2354,0,0,left,0.792,,750.2362,753.8816,0,1,left,753.8967,755.6312,1,0,right,1,755.6313,755.6313,755.6327,757.1305,0,1,1,1,1,0.8,0.2,0.4,0.6,,,,,,,,,,,,,,,3.1058,,0.4,0.6,0.6,0.4,0.8,0.2,0.4,0.6,,,1.2356,,0.6,0.4,0.2,0.8,0.8,0.2,0.8,0.2,1,0
,,6500c323c1cfec3960e2b000,66fc983ac4b9a29d76467132,2024-10-02_13h49.56.704,mdp,2024.2.1,MacIntel,58.47953216,66fa4ebf79326e780c390304,,,,,,,,,,,,,,,,,,,,,757.1308,757.1309,757.1318,758.5469,0,0,left,0.8833,,758.5481,760.9446,1,0,right,760.9457,762.7259,0,1,left,0,762.726,762.726,762.7272,764.2251,0,2,2,2,1,0.8,0.2,0.4,0.6,,,,,,,,,,,,,,,1.8702,,0.4,0.6,0.6,0.4,0.8,0.2,0.4,0.6,,,1.2453,,0.6,0.4,0.2,0.8,0.8,0.2,0.8,0.2,1,0
,,6500c323c1cfec3960e2b000,66fc983ac4b9a29d76467132,2024-10-02_13h49.56.704,mdp,2024.2.1,MacIntel,58.47953216,66fa4ebf79326e780c390304,,,,,,,,,,,,,,,,,,,,,764.2256,764.2256,764.2264,765.5585,0,1,left,0.8025,,765.5597,767.1735,1,1,right,767.1744,769.5223,0,1,left,0,769.5225,769.5225,769.5377,771.0212,0,3,3,3,1,0.8,0.2,0.4,0.6,,,,,,,,,,,,,,,1.0798,,0.4,0.6,0.6,0.4,0.8,0.2,0.4,0.6,,,1.8056,,0.6,0.4,0.2,0.8,0.8,0.2,0.8,0.2,1,0
,,6500c323c1cfec3960e2b000,66fc983ac4b9a29d76467132,2024-10-02_13h49.56.704,mdp,2024.2.1,MacIntel,58.47953216,66fa4ebf79326e780c390304,,,,,,,,,,,,,,,,,,,,,771.0216,771.0216,771.0227,772.287,0,0,left,0.7339,,772.2882,775.3676,0,1,left,775.3685,776.983,1,0,right,1,776.9831,776.9831,776.9839,778.4831,0,4,4,4,1,0.8,0.2,0.4,0.6,,,,,,,,,,,,,,,2.5493,,0.4,0.6,0.6,0.4,0.8,0.2,0.4,0.6,,,1.0847,,0.6,0.4,0.2,0.8,0.8,0.2,0.8,0.2,1,0
,,6500c323c1cfec3960e2b000,66fc983ac4b9a29d76467132,2024-10-02_13h49.56.704,mdp,2024.2.1,MacIntel,58.47953216,66fa4ebf79326e780c390304,,,,,,,,,,,,,,,,,,,,,778.4836,778.4836,778.4849,779.728,0,0,left,0.7219,,779.7288,782.416,1,1,right,782.4173,786.3275,0,0,left,1,786.3277,786.3277,786.3429,787.8269,0,5,5,5,1,0.8,0.2,0.4,0.6,,,,,,,,,,,,,,,2.1481,,0.4,0.6,0.6,0.4,0.8,0.2,0.4,0.6,,,3.3862,,0.2,0.8,0.6,0.4,0.8,0.2,0.8,0.2,1,0
,,6500c323c1cfec3960e2b000,66fc983ac4b9a29d76467132,2024-10-02_13h49.56.704,mdp,2024.2.1,MacIntel,58.47953216,66fa4ebf79326e780c390304,,,,,,,,,,,,,,,,,,,,,787.8278,787.8278,787.8291,789.044,0,0,left,0.6886,,789.0456,790.7102,0,0,left,790.7113,792.8396,0,0,left,1,792.8396,792.8396,792.8405,794.339,0,6,6,6,1,0.8,0.2,0.4,0.6,,,,,,,,,,,,,,,1.1409,,0.4,0.6,0.6,0.4,0.8,0.2,0.4,0.6,,,1.5963,,0.2,0.8,0.6,0.4,0.8,0.2,0.8,0.2,1,0
,,6500c323c1cfec3960e2b000,66fc983ac4b9a29d76467132,2024-10-02_13h49.56.704,mdp,2024.2.1,MacIntel,58.47953216,66fa4ebf79326e780c390304,,,,,,,,,,,,,,,,,,,,,794.3397,794.3397,794.3415,795.4563,0,0,left,0.5892,,795.4579,796.9895,0,0,left,796.9904,800.102,1,0,right,1,800.102,800.102,800.1174,801.6007,0,7,7,7,1,0.8,0.2,0.4,0.6,,,,,,,,,,,,,,,1.008,,0.4,0.6,0.6,0.4,0.8,0.2,0.4,0.6,,,2.5882,,0.2,0.8,0.6,0.4,0.8,0.2,0.8,0.2,1,0
,,6500c323c1cfec3960e2b000,66fc983ac4b9a29d76467132,2024-10-02_13h49.56.704,mdp,2024.2.1,MacIntel,58.47953216,66fa4ebf79326e780c390304,,,,,,,,,,,,,,,,,,,,,801.6014,801.6015,801.603,802.7828,0,0,left,0.6565,,802.7842,805.5817,0,1,left,805.5969,807.3304,1,1,right,0,807.3304,807.3304,807.3313,808.8297,0,8,8,8,1,0.8,0.2,0.4,0.6,,,,,,,,,,,,,,,2.2886,,0.4,0.6,0.6,0.4,0.8,0.2,0.4,0.6,,,1.2102,,0.2,0.8,0.6,0.4,0.8,0.2,0.8,0.2,1,0
,,6500c323c1cfec3960e2b000,66fc983ac4b9a29d76467132,2024-10-02_13h49.56.704,mdp,2024.2.1,MacIntel,58.47953216,66fa4ebf79326e780c390304,,,,,,,,,,,,,,,,,,,,,808.8302,808.8302,808.8312,809.9789,0,0,left,0.6249,,809.9802,811.1316,0,1,left,811.1325,812.3104,0,0,left,1,812.3104,812.3104,812.3116,813.8095,0,9,9,9,1,0.8,0.2,0.4,0.6,,,,,,,,,,,,,,,0.6346,,0.4,0.6,0.6,0.4,0.8,0.2,0.4,0.6,,,0.6527,,0.2,0.8,0.6,0.4,0.8,0.2,0.8,0.2,1,0
,,6500c323c1cfec3960e2b000,66fc983ac4b9a29d76467132,2024-10-02_13h49.56.704,mdp,2024.2.1,MacIntel,58.47953216,66fa4ebf79326e780c390304,,,,,,,,,,,,,,,,,,,,,813.81,813.81,813.8112,814.9421,0,0,left,0.6087,,814.9429,816.3735,0,1,left,816.3745,818.5071,0,0,left,1,818.5072,818.5072,818.5081,820.0054,0,10,10,10,1,0.8,0.2,0.4,0.6,,,,,,,,,,,,,,,0.9031,,0.4,0.6,0.6,0.4,0.4,0.6,0.6,0.4,,,1.6268,,0.2,0.8,0.6,0.4,0.8,0.2,0.8,0.2,1,0
,,6500c323c1cfec3960e2b000,66fc983ac4b9a29d76467132,2024-10-02_13h49.56.704,mdp,2024.2.1,MacIntel,58.47953216,66fa4ebf79326e780c390304,,,,,,,,,,,,,,,,,,,,,820.0065,820.0065,820.0077,821.2544,0,0,left,0.7204,,821.2553,822.737,0,1,left,822.7381,825.6353,1,0,right,1,825.6353,825.6353,825.6504,827.1333,0,11,11,11,1,0.8,0.2,0.4,0.6,,,,,,,,,,,,,,,0.9504,,0.4,0.6,0.6,0.4,0.4,0.6,0.6,0.4,,,2.3688,,0.2,0.8,0.6,0.4,0.8,0.2,0.8,0.2,1,0
,,6500c323c1cfec3960e2b000,66fc983ac4b9a29d76467132,2024-10-02_13h49.56.704,mdp,2024.2.1,MacIntel,58.47953216,66fa4ebf79326e780c390304,,,,,,,,,,,,,,,,,,,,,827.1337,827.1337,827.1352,828.2502,0,0,left,0.5815,,828.2513,829.4816,0,0,left,829.4827,831.5985,1,1,right,0,831.5985,831.5985,831.5996,833.097,0,12,12,12,1,0.8,0.2,0.4,0.6,,,,,,,,,,,,,,,0.7087,,0.4,0.6,0.6,0.4,0.4,0.6,0.6,0.4,,,1.5685,,0.2,0.8,0.6,0.4,0.2,0.8,0.4,0.6,1,0
,,6500c323c1cfec3960e2b000,66fc983ac4b9a29d76467132,2024-10-02_13h49.56.704,mdp,2024.2.1,MacIntel,58.47953216,66fa4ebf79326e780c390304,,,,,,,,,,,,,,,,,,,,,833.0976,833.0976,833.0994,834.1134,0,0,left,0.4908,,834.1154,835.5452,0,1,left,835.5461,837.5436,0,1,left,0,837.5436,837.5436,837.5445,839.0424,0,13,13,13,1,0.8,0.2,0.4,0.6,,,,,,,,,,,,,,,0.8693,,0.4,0.6,0.6,0.4,0.4,0.6,0.6,0.4,,,1.4631,,0.2,0.8,0.6,0.4,0.2,0.8,0.4,0.6,1,0
,,6500c323c1cfec3960e2b000,66fc983ac4b9a29d76467132,2024-10-02_13h49.56.704,mdp,2024.2.1,MacIntel,58.47953216,66fa4ebf79326e780c390304,,,,,,,,,,,,,,,,,,,,,839.0432,839.0432,839.0445,840.1807,0,0,left,0.6013,,840.1816,841.2699,0,0,left,841.2708,842.6973,1,0,right,1,842.6974,842.6974,842.6982,844.1889,0,14,14,14,1,0.8,0.2,0.4,0.6,,,,,,,,,,,,,,,0.5751,,0.4,0.6,0.6,0.4,0.4,0.6,0.6,0.4,,,0.9032,,0.2,0.8,0.6,0.4,0.2,0.8,0.4,0.6,1,0
,,6500c323c1cfec3960e2b000,66fc983ac4b9a29d76467132,2024-10-02_13h49.56.704,mdp,2024.2.1,MacIntel,58.47953216,66fa4ebf79326e780c390304,,,,,,,,,,,,,,,,,,,,,844.1895,844.1896,844.1905,845.4215,0,0,left,0.7053,,845.4223,846.5882,0,0,left,846.5894,849.8206,1,1,right,0,849.8207,849.8208,849.8364,851.3175,0,15,15,15,1,0.8,0.2,0.4,0.6,,,,,,,,,,,,,,,0.6325,,0.4,0.6,0.6,0.4,0.4,0.6,0.6,0.4,,,2.7098,,0.2,0.8,0.6,0.4,0.2,0.8,0.4,0.6,1,0
,,6500c323c1cfec3960e2b000,66fc983ac4b9a29d76467132,2024-10-02_13h49.56.704,mdp,2024.2.1,MacIntel,58.47953216,66fa4ebf79326e780c390304,,,,,,,,,,,,,,,,,,,,,851.3184,851.3184,851.3194,852.3007,0,0,left,0.4666,,852.3018,853.8835,0,0,left,853.8849,855.4483,0,1,left,0,855.4483,855.4483,855.4493,856.948,0,16,16,16,1,0.8,0.2,0.4,0.6,,,,,,,,,,,,,,,1.0544,,0.4,0.6,0.6,0.4,0.2,0.8,0.8,0.2,,,1.0385,,0.2,0.8,0.6,0.4,0.2,0.8,0.4,0.6,1,0
,,6500c323c1cfec3960e2b000,66fc983ac4b9a29d76467132,2024-10-02_13h49.56.704,mdp,2024.2.1,MacIntel,58.47953216,66fa4ebf79326e780c390304,,,,,,,,,,,,,,,,,,,,,856.9486,856.9486,856.9504,858.0636,0,0,left,0.5919,,858.0644,859.363,1,0,right,859.3638,864.5925,0,1,left,0,864.5926,864.5926,864.608,866.0911,0,17,17,17,1,0.8,0.2,0.4,0.6,,,,,,,,,,,,,,,0.7667,,0.4,0.6,0.6,0.4,0.2,0.8,0.8,0.2,,,4.7074,,0.2,0.8,0.6,0.4,0.2,0.8,0.4,0.6,1,0
,,6500c323c1cfec3960e2b000,66fc983ac4b9a29d76467132,2024-10-02_13h49.56.704,mdp,2024.2.1,MacIntel,58.47953216,66fa4ebf79326e780c390304,,,,,,,,,,,,,,,,,,,,,866.0923,866.0923,866.0935,867.3235,0,0,left,0.7077,,867.3245,868.4905,1,0,right,868.4927,870.1348,1,0,right,1,870.1348,870.1348,870.1357,871.6371,0,18,18,18,1,0.4,0.6,0.8,0.2,,,,,,,,,,,,,,,0.634,,0.4,0.6,0.6,0.4,0.2,0.8,0.8,0.2,,,1.1215,,0.2,0.8,0.6,0.4,0.2,0.8,0.4,0.6,1,0
,,6500c323c1cfec3960e2b000,66fc983ac4b9a29d76467132,2024-10-02_13h49.56.704,mdp,2024.2.1,MacIntel,58.47953216,66fa4ebf79326e780c390304,,,,,,,,,,,,,,,,,,,,,871.6376,871.6376,871.6386,872.837,0,1,left,0.6853,,872.8379,874.786,1,0,right,874.7873,876.7518,1,1,right,0,876.7518,876.7519,876.753,878.25,0,19,19,19,1,0.4,0.6,0.8,0.2,,,,,,,,,,,,,,,1.4098,,0.4,0.6,0.6,0.4,0.4,0.6,0.4,0.6,,,1.424,,0.2,0.8,0.6,0.4,0.2,0.8,0.4,0.6,1,0
,,6500c323c1cfec3960e2b000,66fc983ac4b9a29d76467132,2024-10-02_13h49.56.704,mdp,2024.2.1,MacIntel,58.47953216,66fa4ebf79326e780c390304,,,,,,,,,,,,,,,,,,,,,878.2505,878.2505,878.2518,879.3156,0,1,left,0.5366,,879.3169,880.982,1,1,right,880.9832,883.2303,0,1,left,0,883.2304,883.2304,883.2316,884.7282,0,20,20,20,1,0.4,0.6,0.8,0.2,,,,,,,,,,,,,,,1.136,,0.4,0.6,0.6,0.4,0.6,0.4,0.8,0.2,,,1.7103,,0.2,0.8,0.6,0.4,0.2,0.8,0.4,0.6,1,0
,,6500c323c1cfec3960e2b000,66fc983ac4b9a29d76467132,2024-10-02_13h49.56.704,mdp,2024.2.1,MacIntel,58.47953216,66fa4ebf79326e780c390304,,,,,,,,,,,,,,,,,,,,,884.7285,884.7286,884.7295,885.8452,0,1,left,0.589,,885.8462,887.1438,1,0,right,887.145,889.0424,1,0,right,1,889.0425,889.0425,889.0432,890.5419,0,21,21,21,1,0.4,0.6,0.8,0.2,,,,,,,,,,,,,,,0.7656,,0.4,0.6,0.6,0.4,0.6,0.4,0.8,0.2,,,1.3751,,0.2,0.8,0.6,0.4,0.2,0.8,0.4,0.6,1,0
,,6500c323c1cfec3960e2b000,66fc983ac4b9a29d76467132,2024-10-02_13h49.56.704,mdp,2024.2.1,MacIntel,58.47953216,66fa4ebf79326e780c390304,,,,,,,,,,,,,,,,,,,,,890.5428,890.5428,890.5444,891.643,0,1,left,0.5745,,891.644,894.4896,1,1,right,894.4911,896.7037,0,1,left,0,896.7038,896.7038,896.705,898.2039,0,22,22,22,1,0.4,0.6,0.8,0.2,,,,,,,,,,,,,,,2.3122,,0.4,0.6,0.6,0.4,0.6,0.4,0.8,0.2,,,1.6757,,0.2,0.8,0.6,0.4,0.2,0.8,0.4,0.6,1,0
,,6500c323c1cfec3960e2b000,66fc983ac4b9a29d76467132,2024-10-02_13h49.56.704,mdp,2024.2.1,MacIntel,58.47953216,66fa4ebf79326e780c390304,,,,,,,,,,,,,,,,,,,,,898.2049,898.2049,898.2063,899.3024,0,0,left,0.566,,899.3035,902.0843,1,0,right,902.0996,904.0833,1,1,right,0,904.0833,904.0833,904.0841,905.5822,0,23,23,23,1,0.4,0.6,0.8,0.2,,,,,,,,,,,,,,,2.2344,,0.4,0.6,0.6,0.4,0.6,0.4,0.8,0.2,,,1.4434,,0.2,0.8,0.6,0.4,0.2,0.8,0.4,0.6,1,0
,,6500c323c1cfec3960e2b000,66fc983ac4b9a29d76467132,2024-10-02_13h49.56.704,mdp,2024.2.1,MacIntel,58.47953216,66fa4ebf79326e780c390304,,,,,,,,,,,,,,,,,,,,,905.5828,905.5828,905.5841,906.5973,0,1,left,0.4882,,906.5982,908.7797,0,1,left,908.7806,911.728,0,0,left,1,911.7282,911.7282,911.7432,913.2267,0,24,24,24,1,0.4,0.6,0.8,0.2,,,,,,,,,,,,,,,1.6636,,0.4,0.6,0.6,0.4,0.6,0.4,0.8,0.2,,,2.4084,,0.2,0.8,0.6,0.4,0.2,0.8,0.4,0.6,1,0
,,6500c323c1cfec3960e2b000,66fc983ac4b9a29d76467132,2024-10-02_13h49.56.704,mdp,2024.2.1,MacIntel,58.47953216,66fa4ebf79326e780c390304,,,,,,,,,,,,,,,,,,,,,913.2275,913.2275,913.2284,914.3594,0,1,left,0.6004,,914.3602,916.6905,1,0,right,916.6913,918.2573,0,1,left,0,918.2574,918.2574,918.2584,919.7564,0,25,25,25,1,0.2,0.8,0.4,0.6,,,,,,,,,,,,,,,1.8049,,0.4,0.6,0.6,0.4,0.6,0.4,0.8,0.2,,,1.0291,,0.2,0.8,0.6,0.4,0.2,0.8,0.4,0.6,1,0
,,6500c323c1cfec3960e2b000,66fc983ac4b9a29d76467132,2024-10-02_13h49.56.704,mdp,2024.2.1,MacIntel,58.47953216,66fa4ebf79326e780c390304,,,,,,,,,,,,,,,,,,,,,919.7572,919.7572,919.759,920.7719,0,1,left,0.4831,,920.7732,922.6369,1,0,right,922.6377,923.9359,1,0,right,1,923.936,923.936,923.9368,925.4351,0,26,26,26,1,0.2,0.8,0.4,0.6,,,,,,,,,,,,,,,1.3362,,0.4,0.6,0.6,0.4,0.6,0.4,0.8,0.2,,,0.7804,,0.2,0.8,0.6,0.4,0.2,0.8,0.4,0.6,1,0
,,6500c323c1cfec3960e2b000,66fc983ac4b9a29d76467132,2024-10-02_13h49.56.704,mdp,2024.2.1,MacIntel,58.47953216,66fa4ebf79326e780c390304,,,,,,,,,,,,,,,,,,,,,925.4355,925.4355,925.4363,926.6512,0,1,left,0.6847,,926.6524,928.1666,1,0,right,928.1678,931.2102,1,0,right,1,931.2103,931.2103,931.2109,932.7037,0,27,27,27,1,0.2,0.8,0.4,0.6,,,,,,,,,,,,,,,1.0016,,0.4,0.6,0.6,0.4,0.6,0.4,0.8,0.2,,,2.5201,,0.2,0.8,0.6,0.4,0.2,0.8,0.4,0.6,1,0
,,6500c323c1cfec3960e2b000,66fc983ac4b9a29d76467132,2024-10-02_13h49.56.704,mdp,2024.2.1,MacIntel,58.47953216,66fa4ebf79326e780c390304,,,,,,,,,,,,,,,,,,,,,932.7042,932.7042,932.7052,933.8472,0,0,left,0.626,,933.8482,935.4785,1,0,right,935.4801,938.0603,0,1,left,0,938.0604,938.0604,938.0758,939.56,0,28,28,28,1,0.2,0.8,0.4,0.6,,,,,,,,,,,,,,,1.0977,,0.4,0.6,0.6,0.4,0.6,0.4,0.8,0.2,,,2.057,,0.2,0.8,0.6,0.4,0.2,0.8,0.4,0.6,1,0
,,6500c323c1cfec3960e2b000,66fc983ac4b9a29d76467132,2024-10-02_13h49.56.704,mdp,2024.2.1,MacIntel,58.47953216,66fa4ebf79326e780c390304,,,,,,,,,,,,,,,,,,,,,939.5608,939.5611,939.5627,940.5765,0,1,left,0.4927,,940.5774,942.8428,0,0,left,942.8441,944.8414,1,1,right,0,944.8414,944.8414,944.8426,946.3393,0,29,29,29,1,0.2,0.8,0.4,0.6,,,,,,,,,,,,,,,1.7301,,0.4,0.6,0.6,0.4,0.6,0.4,0.8,0.2,,,1.4742,,0.2,0.8,0.6,0.4,0.2,0.8,0.4,0.6,1,0
,,6500c323c1cfec3960e2b000,66fc983ac4b9a29d76467132,2024-10-02_13h49.56.704,mdp,2024.2.1,MacIntel,58.47953216,66fa4ebf79326e780c390304,,,,,,,,,,,,,,,,,,,,,946.3399,946.34,946.3414,947.3049,0,1,left,0.4409,,947.3061,949.1035,0,0,left,949.1046,950.3364,0,1,left,0,950.3365,950.3365,950.3379,951.8339,0,30,30,30,1,0.2,0.8,0.4,0.6,,,,,,,,,,,,,,,1.2741,,0.4,0.6,0.6,0.4,0.6,0.4,0.8,0.2,,,0.6999,,0.2,0.8,0.6,0.4,0.2,0.8,0.4,0.6,1,0
,,6500c323c1cfec3960e2b000,66fc983ac4b9a29d76467132,2024-10-02_13h49.56.704,mdp,2024.2.1,MacIntel,58.47953216,66fa4ebf79326e780c390304,,,,,,,,,,,,,,,,,,,,,951.8345,951.8345,951.8357,952.8667,0,0,left,0.5232,,952.8679,954.7658,1,0,right,954.7671,957.6471,0,1,left,0,957.6471,957.6471,957.6481,959.146,0,31,31,31,1,0.2,0.8,0.4,0.6,,,,,,,,,,,,,,,1.3686,,0.4,0.6,0.6,0.4,0.6,0.4,0.8,0.2,,,2.3518,,0.2,0.8,0.6,0.4,0.2,0.8,0.4,0.6,1,0
,,6500c323c1cfec3960e2b000,66fc983ac4b9a29d76467132,2024-10-02_13h49.56.704,mdp,2024.2.1,MacIntel,58.47953216,66fa4ebf79326e780c390304,,,,,,,,,,,,,,,,,,,,,959.1466,959.1466,959.1478,960.1487,0,0,left,0.4605,,960.1494,961.3117,1,0,right,961.3125,962.4938,1,0,right,1,962.4938,962.4938,962.495,963.994,0,32,32,32,1,0.2,0.8,0.4,0.6,,,,,,,,,,,,,,,0.6269,,0.4,0.6,0.6,0.4,0.8,0.2,0.6,0.4,,,0.652,,0.2,0.8,0.6,0.4,0.2,0.8,0.4,0.6,1,0
,,6500c323c1cfec3960e2b000,66fc983ac4b9a29d76467132,2024-10-02_13h49.56.704,mdp,2024.2.1,MacIntel,58.47953216,66fa4ebf79326e780c390304,,,,,,,,,,,,,,,,,,,,,963.9946,963.9946,963.9959,965.7921,0,1,left,1.2706,,965.7931,968.3231,0,0,left,968.3239,970.0894,1,0,right,1,970.0895,970.0895,970.0905,971.5877,0,33,33,33,1,0.2,0.8,0.4,0.6,,,,,,,,,,,,,,,1.9871,,0.4,0.6,0.6,0.4,0.8,0.2,0.6,0.4,,,1.2369,,0.2,0.8,0.6,0.4,0.2,0.8,0.4,0.6,1,0
,,6500c323c1cfec3960e2b000,66fc983ac4b9a29d76467132,2024-10-02_13h49.56.704,mdp,2024.2.1,MacIntel,58.47953216,66fa4ebf79326e780c390304,,,,,,,,,,,,,,,,,,,,,971.5882,971.5882,971.5896,972.6376,0,1,left,0.5208,,972.6387,976.4853,0,0,left,976.5029,977.8011,1,0,right,1,977.8011,977.8012,977.8021,979.3,0,34,34,34,1,0.2,0.8,0.4,0.6,,,,,,,,,,,,,,,3.3135,,0.4,0.6,0.6,0.4,0.8,0.2,0.6,0.4,,,0.7854,,0.2,0.8,0.6,0.4,0.2,0.8,0.4,0.6,1,0
,,6500c323c1cfec3960e2b000,66fc983ac4b9a29d76467132,2024-10-02_13h49.56.704,mdp,2024.2.1,MacIntel,58.47953216,66fa4ebf79326e780c390304,,,,,,,,,,,,,,,,,,,,,979.3007,979.3007,979.3019,980.2998,0,1,left,0.4679,,980.3009,981.7816,0,0,left,981.7824,983.2141,1,1,right,0,983.2142,983.2142,983.2156,984.713,0,35,35,35,1,0.2,0.8,0.4,0.6,,,,,,,,,,,,,,,0.959,,0.4,0.6,0.6,0.4,0.8,0.2,0.6,0.4,,,0.8994,,0.2,0.8,0.6,0.4,0.2,0.8,0.4,0.6,1,0
,,6500c323c1cfec3960e2b000,66fc983ac4b9a29d76467132,2024-10-02_13h49.56.704,mdp,2024.2.1,MacIntel,58.47953216,66fa4ebf79326e780c390304,,,,,,,,,,,,,,,,,,,,,984.7135,984.7135,984.7146,985.6949,0,1,left,0.4512,,985.6961,986.9946,0,0,left,986.9954,988.1599,0,1,left,0,988.16,988.16,988.1612,989.6455,0,36,36,36,1,0.2,0.8,0.4,0.6,,,,,,,,,,,,,,,0.7884,,0.4,0.6,0.6,0.4,0.8,0.2,0.6,0.4,,,0.6547,,0.2,0.8,0.6,0.4,0.2,0.8,0.4,0.6,1,0
,,6500c323c1cfec3960e2b000,66fc983ac4b9a29d76467132,2024-10-02_13h49.56.704,mdp,2024.2.1,MacIntel,58.47953216,66fa4ebf79326e780c390304,,,,,,,,,,,,,,,,,,,,,989.6459,989.6459,989.6467,990.7131,0,1,left,0.5242,,990.7137,992.357,0,0,left,992.358,993.541,1,1,right,0,993.5411,993.5411,993.5425,995.0397,0,37,37,37,1,0.2,0.8,0.4,0.6,,,,,,,,,,,,,,,1.1078,,0.4,0.6,0.6,0.4,0.8,0.2,0.6,0.4,,,0.6626,,0.2,0.8,0.6,0.4,0.2,0.8,0.4,0.6,1,0
,,6500c323c1cfec3960e2b000,66fc983ac4b9a29d76467132,2024-10-02_13h49.56.704,mdp,2024.2.1,MacIntel,58.47953216,66fa4ebf79326e780c390304,,,,,,,,,,,,,,,,,,,,,995.0404,995.0404,995.0424,996.2714,0,1,left,0.7068,,996.2724,998.4034,0,0,left,998.4041,999.5699,0,1,left,0,999.57,999.57,999.5707,1001.0687,0,38,38,38,1,0.2,0.8,0.4,0.6,,,,,,,,,,,,,,,1.6248,,0.4,0.6,0.6,0.4,0.8,0.2,0.6,0.4,,,0.6589,,0.2,0.8,0.6,0.4,0.2,0.8,0.4,0.6,1,0
,,6500c323c1cfec3960e2b000,66fc983ac4b9a29d76467132,2024-10-02_13h49.56.704,mdp,2024.2.1,MacIntel,58.47953216,66fa4ebf79326e780c390304,,,,,,,,,,,,,,,,,,,,,1001.0694,1001.0694,1001.0706,1002.1848,0,1,left,0.5896,,1002.1863,1003.4169,1,0,right,1003.418,1005.3001,0,0,left,1,1005.3002,1005.3002,1005.3013,1006.7976,0,39,39,39,1,0.2,0.8,0.4,0.6,,,,,,,,,,,,,,,0.7075,,0.4,0.6,0.6,0.4,0.8,0.2,0.6,0.4,,,1.3477,,0.2,0.8,0.6,0.4,0.2,0.8,0.4,0.6,1,0
,,6500c323c1cfec3960e2b000,66fc983ac4b9a29d76467132,2024-10-02_13h49.56.704,mdp,2024.2.1,MacIntel,58.47953216,66fa4ebf79326e780c390304,,,,,,,,,,,,,,,,,,,,,1006.7984,1006.7984,1006.8,1007.9471,0,1,left,0.6204,,1007.9481,1010.8289,1,1,right,1010.8297,1013.71,1,1,right,0,1013.7101,1013.7101,1013.7109,1015.2089,0,40,40,40,1,0.2,0.8,0.4,0.6,,,,,,,,,,,,,,,2.3558,,0.4,0.6,0.6,0.4,0.8,0.2,0.6,0.4,,,2.3353,,0.2,0.8,0.6,0.4,0.2,0.8,0.4,0.6,1,0
,,6500c323c1cfec3960e2b000,66fc983ac4b9a29d76467132,2024-10-02_13h49.56.704,mdp,2024.2.1,MacIntel,58.47953216,66fa4ebf79326e780c390304,,,,,,,,,,,,,,,,,,,,,1015.2096,1015.2097,1015.2107,1016.1586,0,1,left,0.4273,,1016.1595,1017.2406,1,1,right,1017.2423,1018.2075,0,0,left,1,1018.2076,1018.2076,1018.2087,1019.6953,0,41,41,41,1,0.2,0.8,0.4,0.6,,,,,,,,,,,,,,,0.5517,,0.4,0.6,0.6,0.4,0.8,0.2,0.6,0.4,,,0.452,,0.2,0.8,0.6,0.4,0.2,0.8,0.4,0.6,1,0
,,6500c323c1cfec3960e2b000,66fc983ac4b9a29d76467132,2024-10-02_13h49.56.704,mdp,2024.2.1,MacIntel,58.47953216,66fa4ebf79326e780c390304,,,,,,,,,,,,,,,,,,,,,1019.6956,1019.6956,1019.6964,1020.8389,0,1,left,0.6191,,1020.8397,1022.3543,1,1,right,1022.3555,1023.5034,0,1,left,0,1023.5034,1023.5035,1023.5047,1025.0028,0,42,42,42,1,0.2,0.8,0.4,0.6,,,,,,,,,,,,,,,0.9663,,0.4,0.6,0.6,0.4,0.8,0.2,0.6,0.4,,,0.5873,,0.4,0.6,0.8,0.2,0.2,0.8,0.4,0.6,1,0
,,6500c323c1cfec3960e2b000,66fc983ac4b9a29d76467132,2024-10-02_13h49.56.704,mdp,2024.2.1,MacIntel,58.47953216,66fa4ebf79326e780c390304,,,,,,,,,,,,,,,,,,,,,1025.0038,1025.0038,1025.0051,1026.0849,0,1,left,0.5573,,1026.0859,1027.3506,1,0,right,1027.3514,1028.634,1,0,right,1,1028.634,1028.634,1028.6349,1030.133,0,43,43,43,1,0.2,0.8,0.4,0.6,,,,,,,,,,,,,,,0.7381,,0.4,0.6,0.6,0.4,0.8,0.2,0.6,0.4,,,0.762,,0.4,0.6,0.8,0.2,0.2,0.8,0.4,0.6,1,0
,,6500c323c1cfec3960e2b000,66fc983ac4b9a29d76467132,2024-10-02_13h49.56.704,mdp,2024.2.1,MacIntel,58.47953216,66fa4ebf79326e780c390304,,,,,,,,,,,,,,,,,,,,,1030.1335,1030.1335,1030.1346,1032.7313,0,1,left,2.0712,,1032.7321,1035.1793,1,1,right,1035.1809,1037.7444,1,1,right,0,1037.7446,1037.7446,1037.7457,1039.2437,0,44,44,44,1,0.2,0.8,0.4,0.6,,,,,,,,,,,,,,,1.9156,,0.4,0.6,0.6,0.4,0.8,0.2,0.6,0.4,,,2.0196,,0.4,0.6,0.8,0.2,0.2,0.8,0.4,0.6,1,0
,,6500c323c1cfec3960e2b000,66fc983ac4b9a29d76467132,2024-10-02_13h49.56.704,mdp,2024.2.1,MacIntel,58.47953216,66fa4ebf79326e780c390304,,,,,,,,,,,,,,,,,,,,,1039.2444,1039.2444,1039.2456,1040.2758,0,1,left,0.5083,,1040.2767,1041.8923,1,0,right,1041.8935,1043.2731,0,0,left,1,1043.2731,1043.2731,1043.2739,1044.773,0,45,45,45,1,0.2,0.8,0.4,0.6,,,,,,,,,,,,,,,1.083,,0.4,0.6,0.6,0.4,0.8,0.2,0.6,0.4,,,0.8411,,0.4,0.6,0.8,0.2,0.2,0.8,0.4,0.6,1,0
,,6500c323c1cfec3960e2b000,66fc983ac4b9a29d76467132,2024-10-02_13h49.56.704,mdp,2024.2.1,MacIntel,58.47953216,66fa4ebf79326e780c390304,,,,,,,,,,,,,,,,,,,,,1044.7734,1044.7734,1044.7745,1045.9883,0,1,left,0.6913,,1045.9891,1048.5531,0,0,left,1048.5539,1050.7593,0,1,left,0,1050.7593,1050.7593,1050.7601,1052.2521,0,46,46,46,1,0.2,0.8,0.4,0.6,,,,,,,,,,,,,,,2.05,,0.4,0.6,0.6,0.4,0.8,0.2,0.6,0.4,,,1.6962,,0.4,0.6,0.8,0.2,0.2,0.8,0.4,0.6,1,0
,,6500c323c1cfec3960e2b000,66fc983ac4b9a29d76467132,2024-10-02_13h49.56.704,mdp,2024.2.1,MacIntel,58.47953216,66fa4ebf79326e780c390304,,,,,,,,,,,,,,,,,,,,,1052.2528,1052.2528,1052.254,1053.4008,0,1,left,0.5957,,1053.4019,1054.9327,1,0,right,1054.9337,1058.5298,0,1,left,0,1058.5299,1058.5299,1058.5456,1060.0293,0,47,47,47,1,0.2,0.8,0.4,0.6,,,,,,,,,,,,,,,1.0111,,0.4,0.6,0.6,0.4,0.8,0.2,0.6,0.4,,,3.0874,,0.4,0.6,0.8,0.2,0.2,0.8,0.4,0.6,1,0
,,6500c323c1cfec3960e2b000,66fc983ac4b9a29d76467132,2024-10-02_13h49.56.704,mdp,2024.2.1,MacIntel,58.47953216,66fa4ebf79326e780c390304,,,,,,,,,,,,,,,,,,,,,1060.0297,1060.0297,1060.0311,1061.2119,0,1,left,0.657,,1061.213,1064.4595,0,1,left,1064.4748,1065.9258,0,1,left,0,1065.9258,1065.9258,1065.9267,1067.4243,0,48,48,48,1,0.2,0.8,0.4,0.6,,,,,,,,,,,,,,,2.7213,,0.4,0.6,0.6,0.4,0.8,0.2,0.6,0.4,,,0.9511,,0.4,0.6,0.8,0.2,0.2,0.8,0.4,0.6,1,0
,,6500c323c1cfec3960e2b000,66fc983ac4b9a29d76467132,2024-10-02_13h49.56.704,mdp,2024.2.1,MacIntel,58.47953216,66fa4ebf79326e780c390304,,,,,,,,,,,,,,,,,,,,,1067.4253,1067.4253,1067.4261,1068.4409,0,1,left,0.482,,1068.4427,1070.2731,0,0,left,1070.2741,1071.4906,1,0,right,1,1071.4907,1071.4907,1071.4919,1072.9874,0,49,49,49,1,0.2,0.8,0.4,0.6,,,,,,,,,,,,,,,1.3128,,0.4,0.6,0.6,0.4,0.8,0.2,0.6,0.4,,,0.6796,,0.4,0.6,0.8,0.2,0.2,0.8,0.4,0.6,1,0
,,6500c323c1cfec3960e2b000,66fc983ac4b9a29d76467132,2024-10-02_13h49.56.704,mdp,2024.2.1,MacIntel,58.47953216,66fa4ebf79326e780c390304,,,,,,,,,,,,,,,,,,,,,,,,,,,,,,,,,,,,,,,,,,,,,,,,,,,,,,,,1072.9877,1131.4981,0,2,2,3,1,imgs/rabbit.png,imgs/cat.png,imgs/bear.png,imgs/goat.png,imgs/dog.png,,,,,,,,,,,,,,,,,,,,,,,,
,,6500c323c1cfec3960e2b000,66fc983ac4b9a29d76467132,2024-10-02_13h49.56.704,mdp,2024.2.1,MacIntel,58.47953216,66fa4ebf79326e780c390304,,,,,,,,,,,,,,3,seqs/st3seq29.csv,1131.5176,1146.7719,space,14.7333,,1146.7945,1146.7945,1146.7954,1150.8024,0,0,left,3.4756,,1150.8186,1152.6849,0,0,left,1152.686,1154.9163,1,1,right,0,1154.9163,1154.9163,1154.9316,1156.4154,0,0,0,0,1,0.6,0.4,0.2,0.8,,,,,,,,,,,,,,,1.346,,0.4,0.6,0.6,0.4,0.8,0.2,0.2,0.8,,,1.6949,,0.4,0.6,0.4,0.6,0.8,0.2,0.6,0.4,1,0
,,6500c323c1cfec3960e2b000,66fc983ac4b9a29d76467132,2024-10-02_13h49.56.704,mdp,2024.2.1,MacIntel,58.47953216,66fa4ebf79326e780c390304,,,,,,,,,,,,,,,,,,,,,1156.4159,1156.4159,1156.4172,1158.1482,0,0,left,1.2027,,1158.1493,1159.6134,0,1,left,1159.6143,1161.4123,0,1,left,0,1161.4124,1161.4124,1161.4133,1162.9115,0,1,1,1,1,0.6,0.4,0.2,0.8,,,,,,,,,,,,,,,0.9394,,0.4,0.6,0.6,0.4,0.8,0.2,0.2,0.8,,,1.2634,,0.4,0.6,0.4,0.6,0.4,0.6,0.8,0.2,1,0
,,6500c323c1cfec3960e2b000,66fc983ac4b9a29d76467132,2024-10-02_13h49.56.704,mdp,2024.2.1,MacIntel,58.47953216,66fa4ebf79326e780c390304,,,,,,,,,,,,,,,,,,,,,1162.9119,1162.9119,1162.9135,1164.26,0,1,left,0.8247,,1164.2623,1166.4754,1,1,right,1166.4762,1168.5408,0,0,left,1,1168.541,1168.541,1168.5423,1170.0331,0,2,2,2,1,0.6,0.4,0.2,0.8,,,,,,,,,,,,,,,1.6778,,0.4,0.6,0.6,0.4,0.8,0.2,0.2,0.8,,,1.5329,,0.4,0.6,0.4,0.6,0.4,0.6,0.8,0.2,1,0
,,6500c323c1cfec3960e2b000,66fc983ac4b9a29d76467132,2024-10-02_13h49.56.704,mdp,2024.2.1,MacIntel,58.47953216,66fa4ebf79326e780c390304,,,,,,,,,,,,,,,,,,,,,1170.0335,1170.0335,1170.0341,1171.4893,0,1,left,0.9258,,1171.49,1173.2706,1,1,right,1173.2716,1175.137,0,1,left,0,1175.1371,1175.1371,1175.138,1176.6348,0,3,3,3,1,0.6,0.4,0.2,0.8,,,,,,,,,,,,,,,1.2527,,0.4,0.6,0.6,0.4,0.8,0.2,0.2,0.8,,,1.355,,0.4,0.6,0.4,0.6,0.4,0.6,0.8,0.2,1,0
,,6500c323c1cfec3960e2b000,66fc983ac4b9a29d76467132,2024-10-02_13h49.56.704,mdp,2024.2.1,MacIntel,58.47953216,66fa4ebf79326e780c390304,,,,,,,,,,,,,,,,,,,,,1176.6353,1176.6353,1176.6372,1177.8186,0,1,left,0.6668,,1177.8195,1180.1335,0,0,left,1180.1345,1181.5999,1,1,right,0,1181.6,1181.6,1181.6011,1183.0984,0,4,4,4,1,0.6,0.4,0.2,0.8,,,,,,,,,,,,,,,1.7838,,0.4,0.6,0.6,0.4,0.8,0.2,0.2,0.8,,,0.9251,,0.4,0.6,0.4,0.6,0.4,0.6,0.8,0.2,1,0
,,6500c323c1cfec3960e2b000,66fc983ac4b9a29d76467132,2024-10-02_13h49.56.704,mdp,2024.2.1,MacIntel,58.47953216,66fa4ebf79326e780c390304,,,,,,,,,,,,,,,,,,,,,1183.099,1183.099,1183.1003,1184.397,0,1,left,0.7655,,1184.3984,1187.1457,1,0,right,1187.1618,1188.5607,0,1,left,0,1188.5608,1188.5608,1188.5621,1190.0603,0,5,5,5,1,0.6,0.4,0.2,0.8,,,,,,,,,,,,,,,2.2211,,0.2,0.8,0.4,0.6,0.8,0.2,0.2,0.8,,,0.892,,0.4,0.6,0.4,0.6,0.4,0.6,0.8,0.2,1,0
,,6500c323c1cfec3960e2b000,66fc983ac4b9a29d76467132,2024-10-02_13h49.56.704,mdp,2024.2.1,MacIntel,58.47953216,66fa4ebf79326e780c390304,,,,,,,,,,,,,,,,,,,,,1190.0608,1190.0608,1190.0617,1192.1756,0,1,left,1.5833,,1192.1766,1194.8403,1,1,right,1194.8414,1196.2222,0,1,left,0,1196.2223,1196.2223,1196.223,1197.7216,0,6,6,6,1,0.6,0.4,0.2,0.8,,,,,,,,,,,,,,,2.1325,,0.8,0.2,0.2,0.8,0.8,0.2,0.2,0.8,,,0.8444,,0.4,0.6,0.4,0.6,0.4,0.6,0.8,0.2,1,0
,,6500c323c1cfec3960e2b000,66fc983ac4b9a29d76467132,2024-10-02_13h49.56.704,mdp,2024.2.1,MacIntel,58.47953216,66fa4ebf79326e780c390304,,,,,,,,,,,,,,,,,,,,,1197.722,1197.722,1197.7228,1198.9699,0,0,left,0.7195,,1198.9713,1201.6527,0,1,left,1201.6536,1203.3348,0,0,left,1,1203.335,1203.335,1203.3361,1204.8338,0,7,7,7,1,0.6,0.4,0.2,0.8,,,,,,,,,,,,,,,2.1031,,0.6,0.4,0.8,0.2,0.8,0.2,0.2,0.8,,,1.1501,,0.4,0.6,0.4,0.6,0.4,0.6,0.8,0.2,1,0
,,6500c323c1cfec3960e2b000,66fc983ac4b9a29d76467132,2024-10-02_13h49.56.704,mdp,2024.2.1,MacIntel,58.47953216,66fa4ebf79326e780c390304,,,,,,,,,,,,,,,,,,,,,1204.8342,1204.8342,1204.8353,1205.9501,0,0,left,0.5813,,1205.9512,1207.3316,0,1,left,1207.3323,1209.7971,0,0,left,1,1209.7972,1209.7972,1209.7983,1211.2963,0,8,8,8,1,0.6,0.4,0.2,0.8,,,,,,,,,,,,,,,0.8568,,0.6,0.4,0.8,0.2,0.8,0.2,0.2,0.8,,,1.9327,,0.4,0.6,0.4,0.6,0.4,0.6,0.8,0.2,1,0
,,6500c323c1cfec3960e2b000,66fc983ac4b9a29d76467132,2024-10-02_13h49.56.704,mdp,2024.2.1,MacIntel,58.47953216,66fa4ebf79326e780c390304,,,,,,,,,,,,,,,,,,,,,1211.2967,1211.2967,1211.2976,1212.5786,0,0,left,0.7561,,1212.5794,1213.9277,0,0,left,1213.9287,1215.1758,1,0,right,1,1215.1759,1215.1759,1215.1767,1216.6758,0,9,9,9,1,0.6,0.4,0.2,0.8,,,,,,,,,,,,,,,0.8231,,0.6,0.4,0.8,0.2,0.8,0.2,0.2,0.8,,,0.7112,,0.4,0.6,0.4,0.6,0.4,0.6,0.8,0.2,1,0
,,6500c323c1cfec3960e2b000,66fc983ac4b9a29d76467132,2024-10-02_13h49.56.704,mdp,2024.2.1,MacIntel,58.47953216,66fa4ebf79326e780c390304,,,,,,,,,,,,,,,,,,,,,1216.6762,1216.6762,1216.6771,1217.8583,0,0,left,0.6582,,1217.8595,1219.1398,0,1,left,1219.1407,1221.5392,0,1,left,0,1221.5392,1221.5392,1221.5401,1223.0391,0,10,10,10,1,0.6,0.4,0.2,0.8,,,,,,,,,,,,,,,0.757,,0.6,0.4,0.8,0.2,0.2,0.8,0.8,0.2,,,1.877,,0.4,0.6,0.4,0.6,0.4,0.6,0.8,0.2,1,0
,,6500c323c1cfec3960e2b000,66fc983ac4b9a29d76467132,2024-10-02_13h49.56.704,mdp,2024.2.1,MacIntel,58.47953216,66fa4ebf79326e780c390304,,,,,,,,,,,,,,,,,,,,,1223.0397,1223.0397,1223.0415,1224.4033,0,0,left,0.8342,,1224.4048,1225.5532,0,0,left,1225.5549,1226.7862,1,1,right,0,1226.7866,1226.7866,1226.7878,1228.2849,0,11,11,11,1,0.6,0.4,0.2,0.8,,,,,,,,,,,,,,,0.6224,,0.6,0.4,0.8,0.2,0.2,0.8,0.8,0.2,,,0.6861,,0.4,0.6,0.4,0.6,0.4,0.6,0.8,0.2,1,0
,,6500c323c1cfec3960e2b000,66fc983ac4b9a29d76467132,2024-10-02_13h49.56.704,mdp,2024.2.1,MacIntel,58.47953216,66fa4ebf79326e780c390304,,,,,,,,,,,,,,,,,,,,,1228.2854,1228.2854,1228.287,1230.8213,0,1,left,2.0107,,1230.8222,1232.7072,1,1,right,1232.708,1234.1474,0,1,left,0,1234.1474,1234.1475,1234.1484,1235.6465,0,12,12,12,1,0.6,0.4,0.2,0.8,,,,,,,,,,,,,,,1.365,,0.6,0.4,0.8,0.2,0.2,0.8,0.8,0.2,,,0.9137,,0.4,0.6,0.4,0.6,0.4,0.6,0.8,0.2,1,0
,,6500c323c1cfec3960e2b000,66fc983ac4b9a29d76467132,2024-10-02_13h49.56.704,mdp,2024.2.1,MacIntel,58.47953216,66fa4ebf79326e780c390304,,,,,,,,,,,,,,,,,,,,,1235.6474,1235.6474,1235.6486,1236.8801,0,0,left,0.7018,,1236.8811,1238.6293,0,0,left,1238.6308,1241.6103,1,1,right,0,1241.6103,1241.6103,1241.6271,1243.1085,0,13,13,13,1,0.6,0.4,0.2,0.8,,,,,,,,,,,,,,,1.2175,,0.6,0.4,0.8,0.2,0.2,0.8,0.8,0.2,,,2.4496,,0.4,0.6,0.4,0.6,0.4,0.6,0.8,0.2,1,0
,,6500c323c1cfec3960e2b000,66fc983ac4b9a29d76467132,2024-10-02_13h49.56.704,mdp,2024.2.1,MacIntel,58.47953216,66fa4ebf79326e780c390304,,,,,,,,,,,,,,,,,,,,,1243.1092,1243.1092,1243.1109,1244.2081,0,0,left,0.5714,,1244.209,1245.2899,0,0,left,1245.2915,1246.4387,0,1,left,0,1246.4387,1246.4387,1246.4397,1247.9389,0,14,14,14,1,0.6,0.4,0.2,0.8,,,,,,,,,,,,,,,0.5579,,0.6,0.4,0.8,0.2,0.2,0.8,0.8,0.2,,,0.6221,,0.4,0.6,0.4,0.6,0.4,0.6,0.8,0.2,1,0
,,6500c323c1cfec3960e2b000,66fc983ac4b9a29d76467132,2024-10-02_13h49.56.704,mdp,2024.2.1,MacIntel,58.47953216,66fa4ebf79326e780c390304,,,,,,,,,,,,,,,,,,,,,1247.9395,1247.9395,1247.9412,1249.0885,0,0,left,0.6138,,1249.09,1251.5863,1,0,right,1251.5881,1253.9347,1,1,right,0,1253.9348,1253.9348,1253.9357,1255.4328,0,15,15,15,1,0.6,0.4,0.2,0.8,,,,,,,,,,,,,,,1.9655,,0.6,0.4,0.8,0.2,0.2,0.8,0.8,0.2,,,1.8256,,0.4,0.6,0.4,0.6,0.4,0.6,0.8,0.2,1,0
,,6500c323c1cfec3960e2b000,66fc983ac4b9a29d76467132,2024-10-02_13h49.56.704,mdp,2024.2.1,MacIntel,58.47953216,66fa4ebf79326e780c390304,,,,,,,,,,,,,,,,,,,,,1255.4333,1255.4333,1255.4347,1257.7322,0,0,left,1.7676,,1257.7332,1260.1132,0,0,left,1260.1139,1262.8142,0,1,left,0,1262.8142,1262.8142,1262.815,1264.3112,0,16,16,16,1,0.6,0.4,0.2,0.8,,,,,,,,,,,,,,,1.8532,,0.6,0.4,0.8,0.2,0.2,0.8,0.8,0.2,,,2.1897,,0.4,0.6,0.4,0.6,0.4,0.6,0.8,0.2,1,0
,,6500c323c1cfec3960e2b000,66fc983ac4b9a29d76467132,2024-10-02_13h49.56.704,mdp,2024.2.1,MacIntel,58.47953216,66fa4ebf79326e780c390304,,,,,,,,,,,,,,,,,,,,,1264.3118,1264.3118,1264.313,1265.393,0,0,left,0.5506,,1265.3942,1266.6259,0,1,left,1266.627,1268.5584,1,0,right,1,1268.5584,1268.5584,1268.5594,1270.0574,0,17,17,17,1,0.6,0.4,0.2,0.8,,,,,,,,,,,,,,,0.7181,,0.6,0.4,0.8,0.2,0.2,0.8,0.8,0.2,,,1.3976,,0.4,0.6,0.4,0.6,0.4,0.6,0.8,0.2,1,0
,,6500c323c1cfec3960e2b000,66fc983ac4b9a29d76467132,2024-10-02_13h49.56.704,mdp,2024.2.1,MacIntel,58.47953216,66fa4ebf79326e780c390304,,,,,,,,,,,,,,,,,,,,,1270.0582,1270.0582,1270.0592,1271.2251,0,1,left,0.6514,,1271.226,1273.2229,0,1,left,1273.2239,1275.2873,1,0,right,1,1275.2875,1275.2875,1275.2893,1276.7857,0,18,18,18,1,0.6,0.4,0.2,0.8,,,,,,,,,,,,,,,1.469,,0.6,0.4,0.8,0.2,0.2,0.8,0.8,0.2,,,1.5325,,0.4,0.6,0.4,0.6,0.4,0.6,0.8,0.2,1,0
,,6500c323c1cfec3960e2b000,66fc983ac4b9a29d76467132,2024-10-02_13h49.56.704,mdp,2024.2.1,MacIntel,58.47953216,66fa4ebf79326e780c390304,,,,,,,,,,,,,,,,,,,,,1276.7865,1276.7866,1276.7874,1278.0344,0,0,left,0.7203,,1278.0354,1279.3346,0,1,left,1279.336,1281.5654,1,0,right,1,1281.5655,1281.5655,1281.5664,1283.0643,0,19,19,19,1,0.4,0.6,0.6,0.4,,,,,,,,,,,,,,,0.7722,,0.6,0.4,0.8,0.2,0.2,0.8,0.8,0.2,,,1.7033,,0.4,0.6,0.4,0.6,0.4,0.6,0.8,0.2,1,0
,,6500c323c1cfec3960e2b000,66fc983ac4b9a29d76467132,2024-10-02_13h49.56.704,mdp,2024.2.1,MacIntel,58.47953216,66fa4ebf79326e780c390304,,,,,,,,,,,,,,,,,,,,,1283.0651,1283.0651,1283.0663,1284.1468,0,0,left,0.5718,,1284.1476,1285.2475,0,1,left,1285.2487,1287.6954,1,0,right,1,1287.6954,1287.6954,1287.6966,1289.1946,0,20,20,20,1,0.4,0.6,0.6,0.4,,,,,,,,,,,,,,,0.5872,,0.6,0.4,0.8,0.2,0.2,0.8,0.8,0.2,,,1.9182,,0.4,0.6,0.4,0.6,0.4,0.6,0.8,0.2,1,0
,,6500c323c1cfec3960e2b000,66fc983ac4b9a29d76467132,2024-10-02_13h49.56.704,mdp,2024.2.1,MacIntel,58.47953216,66fa4ebf79326e780c390304,,,,,,,,,,,,,,,,,,,,,1289.1951,1289.1951,1289.1963,1290.227,0,1,left,0.4952,,1290.228,1292.5092,0,1,left,1292.51,1294.5742,0,1,left,0,1294.5742,1294.5742,1294.575,1296.0728,0,21,21,21,1,0.4,0.6,0.6,0.4,,,,,,,,,,,,,,,1.7524,,0.6,0.4,0.8,0.2,0.8,0.2,0.4,0.6,,,1.5344,,0.4,0.6,0.4,0.6,0.4,0.6,0.8,0.2,1,0
,,6500c323c1cfec3960e2b000,66fc983ac4b9a29d76467132,2024-10-02_13h49.56.704,mdp,2024.2.1,MacIntel,58.47953216,66fa4ebf79326e780c390304,,,,,,,,,,,,,,,,,,,,,1296.0733,1296.0733,1296.0743,1297.2053,0,0,left,0.6069,,1297.2062,1298.639,0,1,left,1298.6401,1301.153,1,0,right,1,1301.153,1301.153,1301.1683,1302.6521,0,22,22,22,1,0.4,0.6,0.6,0.4,,,,,,,,,,,,,,,0.9107,,0.6,0.4,0.8,0.2,0.8,0.2,0.4,0.6,,,1.9888,,0.4,0.6,0.4,0.6,0.4,0.6,0.8,0.2,1,0
,,6500c323c1cfec3960e2b000,66fc983ac4b9a29d76467132,2024-10-02_13h49.56.704,mdp,2024.2.1,MacIntel,58.47953216,66fa4ebf79326e780c390304,,,,,,,,,,,,,,,,,,,,,1302.6529,1302.6529,1302.6542,1303.8352,0,1,left,0.6494,,1303.8363,1305.9833,1,0,right,1305.9847,1307.9488,1,1,right,0,1307.9489,1307.9489,1307.9499,1309.4472,0,23,23,23,1,0.4,0.6,0.6,0.4,,,,,,,,,,,,,,,1.604,,0.6,0.4,0.8,0.2,0.8,0.2,0.4,0.6,,,1.4235,,0.4,0.6,0.4,0.6,0.4,0.6,0.8,0.2,1,0
,,6500c323c1cfec3960e2b000,66fc983ac4b9a29d76467132,2024-10-02_13h49.56.704,mdp,2024.2.1,MacIntel,58.47953216,66fa4ebf79326e780c390304,,,,,,,,,,,,,,,,,,,,,1309.4479,1309.448,1309.4491,1310.6293,0,1,left,0.6495,,1310.6306,1312.746,1,1,right,1312.7472,1315.6432,0,1,left,0,1315.6433,1315.6433,1315.6584,1317.1421,0,24,24,24,1,0.4,0.6,0.6,0.4,,,,,,,,,,,,,,,1.5986,,0.6,0.4,0.8,0.2,0.8,0.2,0.4,0.6,,,2.3674,,0.4,0.6,0.4,0.6,0.4,0.6,0.8,0.2,1,0
,,6500c323c1cfec3960e2b000,66fc983ac4b9a29d76467132,2024-10-02_13h49.56.704,mdp,2024.2.1,MacIntel,58.47953216,66fa4ebf79326e780c390304,,,,,,,,,,,,,,,,,,,,,1317.1425,1317.1425,1317.1439,1318.3419,0,1,left,0.6667,,1318.3428,1320.3106,1,1,right,1320.3114,1322.1722,1,1,right,0,1322.1722,1322.1722,1322.173,1323.6715,0,25,25,25,1,0.4,0.6,0.6,0.4,,,,,,,,,,,,,,,1.4429,,0.6,0.4,0.8,0.2,0.8,0.2,0.4,0.6,,,1.3325,,0.2,0.8,0.8,0.2,0.4,0.6,0.8,0.2,1,0
,,6500c323c1cfec3960e2b000,66fc983ac4b9a29d76467132,2024-10-02_13h49.56.704,mdp,2024.2.1,MacIntel,58.47953216,66fa4ebf79326e780c390304,,,,,,,,,,,,,,,,,,,,,1323.6719,1323.6719,1323.6727,1324.7881,0,1,left,0.5827,,1324.7892,1326.8041,0,1,left,1326.8054,1329.7343,1,1,right,0,1329.7344,1329.7344,1329.7506,1331.2332,0,26,26,26,1,0.4,0.6,0.6,0.4,,,,,,,,,,,,,,,1.489,,0.6,0.4,0.8,0.2,0.8,0.2,0.4,0.6,,,2.4043,,0.2,0.8,0.8,0.2,0.4,0.6,0.8,0.2,1,0
,,6500c323c1cfec3960e2b000,66fc983ac4b9a29d76467132,2024-10-02_13h49.56.704,mdp,2024.2.1,MacIntel,58.47953216,66fa4ebf79326e780c390304,,,,,,,,,,,,,,,,,,,,,1331.2335,1331.2335,1331.2345,1332.3328,0,1,left,0.5689,,1332.3342,1334.148,0,1,left,1334.1493,1335.4477,0,0,left,1,1335.4478,1335.4478,1335.449,1336.9466,0,27,27,27,1,0.4,0.6,0.6,0.4,,,,,,,,,,,,,,,1.2905,,0.6,0.4,0.8,0.2,0.8,0.2,0.4,0.6,,,0.7671,,0.2,0.8,0.8,0.2,0.4,0.6,0.8,0.2,1,0
,,6500c323c1cfec3960e2b000,66fc983ac4b9a29d76467132,2024-10-02_13h49.56.704,mdp,2024.2.1,MacIntel,58.47953216,66fa4ebf79326e780c390304,,,,,,,,,,,,,,,,,,,,,1336.9475,1336.9475,1336.9494,1338.231,0,1,left,0.7526,,1338.2318,1340.0119,0,0,left,1340.0128,1341.9595,0,1,left,0,1341.9595,1341.9595,1341.9604,1343.4599,0,28,28,28,1,0.4,0.6,0.6,0.4,,,,,,,,,,,,,,,1.2493,,0.6,0.4,0.8,0.2,0.8,0.2,0.4,0.6,,,1.4201,,0.2,0.8,0.8,0.2,0.4,0.6,0.8,0.2,1,0
,,6500c323c1cfec3960e2b000,66fc983ac4b9a29d76467132,2024-10-02_13h49.56.704,mdp,2024.2.1,MacIntel,58.47953216,66fa4ebf79326e780c390304,,,,,,,,,,,,,,,,,,,,,1343.4605,1343.4605,1343.4616,1344.6077,0,0,left,0.6177,,1344.6093,1346.3245,0,1,left,1346.3255,1351.1175,0,1,left,0,1351.1176,1351.1176,1351.131,1352.6182,0,29,29,29,1,0.4,0.6,0.6,0.4,,,,,,,,,,,,,,,1.1861,,0.6,0.4,0.8,0.2,0.8,0.2,0.4,0.6,,,4.2632,,0.2,0.8,0.8,0.2,0.4,0.6,0.8,0.2,1,0
,,6500c323c1cfec3960e2b000,66fc983ac4b9a29d76467132,2024-10-02_13h49.56.704,mdp,2024.2.1,MacIntel,58.47953216,66fa4ebf79326e780c390304,,,,,,,,,,,,,,,,,,,,,1352.6185,1352.6185,1352.6194,1353.6852,0,1,left,0.5383,,1353.6861,1355.9993,1,1,right,1356.0003,1357.5319,0,0,left,1,1357.5319,1357.5319,1357.5328,1359.0309,0,30,30,30,1,0.4,0.6,0.6,0.4,,,,,,,,,,,,,,,1.7882,,0.6,0.4,0.8,0.2,0.8,0.2,0.4,0.6,,,1.0022,,0.2,0.8,0.8,0.2,0.4,0.6,0.8,0.2,1,0
,,6500c323c1cfec3960e2b000,66fc983ac4b9a29d76467132,2024-10-02_13h49.56.704,mdp,2024.2.1,MacIntel,58.47953216,66fa4ebf79326e780c390304,,,,,,,,,,,,,,,,,,,,,1359.0313,1359.0313,1359.0322,1360.299,0,0,left,0.74,,1360.3002,1361.6629,0,0,left,1361.6641,1364.5945,1,0,right,1,1364.5947,1364.5947,1364.5956,1366.094,0,31,31,31,1,0.4,0.6,0.6,0.4,,,,,,,,,,,,,,,0.8335,,0.6,0.4,0.8,0.2,0.8,0.2,0.4,0.6,,,2.3934,,0.2,0.8,0.8,0.2,0.4,0.6,0.8,0.2,1,0
,,6500c323c1cfec3960e2b000,66fc983ac4b9a29d76467132,2024-10-02_13h49.56.704,mdp,2024.2.1,MacIntel,58.47953216,66fa4ebf79326e780c390304,,,,,,,,,,,,,,,,,,,,,1366.0948,1366.0948,1366.0965,1367.1428,0,1,left,0.5238,,1367.1441,1369.1915,0,1,left,1369.1928,1371.3559,1,0,right,1,1371.3559,1371.3559,1371.3719,1372.8553,0,32,32,32,1,0.4,0.6,0.6,0.4,,,,,,,,,,,,,,,1.5108,,0.6,0.4,0.8,0.2,0.8,0.2,0.4,0.6,,,1.6223,,0.2,0.8,0.8,0.2,0.4,0.6,0.8,0.2,1,0
,,6500c323c1cfec3960e2b000,66fc983ac4b9a29d76467132,2024-10-02_13h49.56.704,mdp,2024.2.1,MacIntel,58.47953216,66fa4ebf79326e780c390304,,,,,,,,,,,,,,,,,,,,,1372.8559,1372.8559,1372.857,1374.0213,0,0,left,0.6362,,1374.0222,1375.0381,0,1,left,1375.0397,1380.953,1,0,right,1,1380.9531,1380.9531,1380.9673,1382.4492,0,33,33,33,1,0.4,0.6,0.6,0.4,,,,,,,,,,,,,,,0.4781,,0.6,0.4,0.8,0.2,0.8,0.2,0.4,0.6,,,5.3915,,0.2,0.8,0.8,0.2,0.4,0.6,0.8,0.2,1,0
,,6500c323c1cfec3960e2b000,66fc983ac4b9a29d76467132,2024-10-02_13h49.56.704,mdp,2024.2.1,MacIntel,58.47953216,66fa4ebf79326e780c390304,,,,,,,,,,,,,,,,,,,,,1382.45,1382.4501,1382.4515,1383.6479,0,1,left,0.6609,,1383.649,1384.7144,0,0,left,1384.7154,1386.6464,1,0,right,1,1386.6464,1386.6464,1386.6472,1388.1459,0,34,34,34,1,0.4,0.6,0.6,0.4,,,,,,,,,,,,,,,0.5422,,0.6,0.4,0.8,0.2,0.8,0.2,0.4,0.6,,,1.3973,,0.2,0.8,0.8,0.2,0.4,0.6,0.8,0.2,1,0
,,6500c323c1cfec3960e2b000,66fc983ac4b9a29d76467132,2024-10-02_13h49.56.704,mdp,2024.2.1,MacIntel,58.47953216,66fa4ebf79326e780c390304,,,,,,,,,,,,,,,,,,,,,1388.1465,1388.1466,1388.1483,1389.1782,0,0,left,0.5024,,1389.1793,1390.5448,0,0,left,1390.5461,1394.8413,1,0,right,1,1394.8415,1394.8415,1394.8602,1396.3392,0,35,35,35,1,0.4,0.6,0.6,0.4,,,,,,,,,,,,,,,0.8225,,0.6,0.4,0.8,0.2,0.8,0.2,0.4,0.6,,,3.7645,,0.2,0.8,0.8,0.2,0.4,0.6,0.8,0.2,1,0
,,6500c323c1cfec3960e2b000,66fc983ac4b9a29d76467132,2024-10-02_13h49.56.704,mdp,2024.2.1,MacIntel,58.47953216,66fa4ebf79326e780c390304,,,,,,,,,,,,,,,,,,,,,1396.3396,1396.3396,1396.3411,1397.7558,0,0,left,0.8973,,1397.7565,1398.8217,0,0,left,1398.8226,1404.3011,1,0,right,1,1404.3011,1404.3011,1404.3173,1405.8009,0,36,36,36,1,0.4,0.6,0.6,0.4,,,,,,,,,,,,,,,0.5336,,0.6,0.4,0.8,0.2,0.8,0.2,0.4,0.6,,,4.9567,,0.2,0.8,0.8,0.2,0.4,0.6,0.8,0.2,1,0
,,6500c323c1cfec3960e2b000,66fc983ac4b9a29d76467132,2024-10-02_13h49.56.704,mdp,2024.2.1,MacIntel,58.47953216,66fa4ebf79326e780c390304,,,,,,,,,,,,,,,,,,,,,1405.8019,1405.8019,1405.8034,1406.9821,0,0,left,0.6442,,1406.9831,1408.1319,0,1,left,1408.1329,1412.3955,0,1,left,0,1412.3955,1412.3955,1412.4107,1413.8955,0,37,37,37,1,0.4,0.6,0.6,0.4,,,,,,,,,,,,,,,0.6219,,0.6,0.4,0.8,0.2,0.8,0.2,0.4,0.6,,,3.7268,,0.2,0.8,0.8,0.2,0.4,0.6,0.8,0.2,1,0
,,6500c323c1cfec3960e2b000,66fc983ac4b9a29d76467132,2024-10-02_13h49.56.704,mdp,2024.2.1,MacIntel,58.47953216,66fa4ebf79326e780c390304,,,,,,,,,,,,,,,,,,,,,1413.896,1413.896,1413.8976,1414.9948,0,1,left,0.569,,1414.9959,1417.2424,1,0,right,1417.2435,1419.3914,1,0,right,1,1419.3914,1419.3915,1419.4066,1420.8911,0,38,38,38,1,0.4,0.6,0.6,0.4,,,,,,,,,,,,,,,1.7036,,0.6,0.4,0.8,0.2,0.8,0.2,0.4,0.6,,,1.6228,,0.2,0.8,0.8,0.2,0.4,0.6,0.8,0.2,1,0
,,6500c323c1cfec3960e2b000,66fc983ac4b9a29d76467132,2024-10-02_13h49.56.704,mdp,2024.2.1,MacIntel,58.47953216,66fa4ebf79326e780c390304,,,,,,,,,,,,,,,,,,,,,1420.8917,1420.8917,1420.8933,1422.272,0,0,left,0.8574,,1422.2732,1423.4889,0,0,left,1423.4903,1425.3537,1,0,right,1,1425.3538,1425.3538,1425.3554,1426.853,0,39,39,39,1,0.4,0.6,0.6,0.4,,,,,,,,,,,,,,,0.6962,,0.6,0.4,0.8,0.2,0.8,0.2,0.4,0.6,,,1.3313,,0.2,0.8,0.8,0.2,0.4,0.6,0.8,0.2,1,0
,,6500c323c1cfec3960e2b000,66fc983ac4b9a29d76467132,2024-10-02_13h49.56.704,mdp,2024.2.1,MacIntel,58.47953216,66fa4ebf79326e780c390304,,,,,,,,,,,,,,,,,,,,,1426.8535,1426.8536,1426.8559,1427.9682,0,1,left,0.5895,,1427.9689,1430.5335,1,0,right,1430.5347,1433.3823,1,0,right,1,1433.3824,1433.3824,1433.3976,1434.88,0,40,40,40,1,0.4,0.6,0.6,0.4,,,,,,,,,,,,,,,2.0187,,0.6,0.4,0.8,0.2,0.8,0.2,0.4,0.6,,,2.3219,,0.2,0.8,0.8,0.2,0.4,0.6,0.8,0.2,1,0
,,6500c323c1cfec3960e2b000,66fc983ac4b9a29d76467132,2024-10-02_13h49.56.704,mdp,2024.2.1,MacIntel,58.47953216,66fa4ebf79326e780c390304,,,,,,,,,,,,,,,,,,,,,1434.8804,1434.8804,1434.8813,1435.9809,0,1,left,0.5688,,1435.982,1438.0451,0,1,left,1438.046,1439.8624,0,0,left,1,1439.8625,1439.8625,1439.8636,1441.3645,0,41,41,41,1,0.4,0.6,0.6,0.4,,,,,,,,,,,,,,,1.529,,0.6,0.4,0.8,0.2,0.8,0.2,0.4,0.6,,,1.2978,,0.2,0.8,0.8,0.2,0.4,0.6,0.8,0.2,1,0
,,6500c323c1cfec3960e2b000,66fc983ac4b9a29d76467132,2024-10-02_13h49.56.704,mdp,2024.2.1,MacIntel,58.47953216,66fa4ebf79326e780c390304,,,,,,,,,,,,,,,,,,,,,1441.365,1441.365,1441.3657,1442.5088,0,1,left,0.6216,,1442.5097,1444.6742,0,1,left,1444.6752,1446.7229,1,0,right,1,1446.7229,1446.7229,1446.7241,1448.2223,0,42,42,42,1,0.4,0.6,0.6,0.4,,,,,,,,,,,,,,,1.6488,,0.6,0.4,0.8,0.2,0.8,0.2,0.4,0.6,,,1.5149,,0.2,0.8,0.8,0.2,0.4,0.6,0.8,0.2,1,0
,,6500c323c1cfec3960e2b000,66fc983ac4b9a29d76467132,2024-10-02_13h49.56.704,mdp,2024.2.1,MacIntel,58.47953216,66fa4ebf79326e780c390304,,,,,,,,,,,,,,,,,,,,,1448.2229,1448.2229,1448.2241,1449.3885,0,1,left,0.6354,,1449.39,1451.3364,0,0,left,1451.3373,1452.836,1,0,right,1,1452.836,1452.836,1452.8372,1454.3348,0,43,43,43,1,0.4,0.6,0.6,0.4,,,,,,,,,,,,,,,1.4389,,0.6,0.4,0.8,0.2,0.8,0.2,0.4,0.6,,,0.9811,,0.2,0.8,0.8,0.2,0.4,0.6,0.8,0.2,1,0
,,6500c323c1cfec3960e2b000,66fc983ac4b9a29d76467132,2024-10-02_13h49.56.704,mdp,2024.2.1,MacIntel,58.47953216,66fa4ebf79326e780c390304,,,,,,,,,,,,,,,,,,,,,1454.3354,1454.3354,1454.3365,1455.5507,0,1,left,0.6886,,1455.5515,1458.399,1,1,right,1458.4001,1459.9142,0,1,left,0,1459.9143,1459.9144,1459.9156,1461.4129,0,44,44,44,1,0.4,0.6,0.6,0.4,,,,,,,,,,,,,,,2.3373,,0.6,0.4,0.8,0.2,0.8,0.2,0.4,0.6,,,0.9753,,0.2,0.8,0.8,0.2,0.4,0.6,0.8,0.2,1,0
,,6500c323c1cfec3960e2b000,66fc983ac4b9a29d76467132,2024-10-02_13h49.56.704,mdp,2024.2.1,MacIntel,58.47953216,66fa4ebf79326e780c390304,,,,,,,,,,,,,,,,,,,,,1461.4134,1461.4134,1461.4146,1462.579,0,1,left,0.6386,,1462.5799,1464.8773,1,0,right,1464.8783,1466.4266,1,0,right,1,1466.4268,1466.4268,1466.4276,1467.9256,0,45,45,45,1,0.4,0.6,0.6,0.4,,,,,,,,,,,,,,,1.7655,,0.6,0.4,0.8,0.2,0.8,0.2,0.4,0.6,,,1.0076,,0.2,0.8,0.8,0.2,0.4,0.6,0.8,0.2,1,0
,,6500c323c1cfec3960e2b000,66fc983ac4b9a29d76467132,2024-10-02_13h49.56.704,mdp,2024.2.1,MacIntel,58.47953216,66fa4ebf79326e780c390304,,,,,,,,,,,,,,,,,,,,,1467.9264,1467.9264,1467.9273,1469.8604,0,0,left,1.4112,,1469.8611,1470.9905,0,0,left,1470.9914,1472.9716,1,1,right,0,1472.9716,1472.9716,1472.9723,1474.4713,0,46,46,46,1,0.8,0.2,0.2,0.8,,,,,,,,,,,,,,,0.5805,,0.6,0.4,0.8,0.2,0.8,0.2,0.4,0.6,,,1.455,,0.2,0.8,0.8,0.2,0.4,0.6,0.8,0.2,1,0
,,6500c323c1cfec3960e2b000,66fc983ac4b9a29d76467132,2024-10-02_13h49.56.704,mdp,2024.2.1,MacIntel,58.47953216,66fa4ebf79326e780c390304,,,,,,,,,,,,,,,,,,,,,1474.4717,1474.4717,1474.4729,1475.5375,0,1,left,0.533,,1475.5386,1478.9525,1,1,right,1478.9537,1480.3003,0,1,left,0,1480.3004,1480.3004,1480.3011,1481.8005,0,47,47,47,1,0.8,0.2,0.2,0.8,,,,,,,,,,,,,,,2.874,,0.6,0.4,0.8,0.2,0.8,0.2,0.4,0.6,,,0.8131,,0.2,0.8,0.8,0.2,0.4,0.6,0.8,0.2,1,0
,,6500c323c1cfec3960e2b000,66fc983ac4b9a29d76467132,2024-10-02_13h49.56.704,mdp,2024.2.1,MacIntel,58.47953216,66fa4ebf79326e780c390304,,,,,,,,,,,,,,,,,,,,,1481.8012,1481.8012,1481.8027,1483.0326,0,0,left,0.7038,,1483.0341,1484.2144,0,0,left,1484.2154,1485.698,1,0,right,1,1485.6981,1485.6981,1485.6992,1487.1969,0,48,48,48,1,0.8,0.2,0.2,0.8,,,,,,,,,,,,,,,0.6435,,0.6,0.4,0.8,0.2,0.8,0.2,0.4,0.6,,,0.9422,,0.2,0.8,0.8,0.2,0.4,0.6,0.8,0.2,1,0
,,6500c323c1cfec3960e2b000,66fc983ac4b9a29d76467132,2024-10-02_13h49.56.704,mdp,2024.2.1,MacIntel,58.47953216,66fa4ebf79326e780c390304,,,,,,,,,,,,,,,,,,,,,1487.1981,1487.1981,1487.1991,1488.5958,0,0,left,0.8692,,1488.5971,1489.6449,0,1,left,1489.646,1492.4919,0,0,left,1,1492.492,1492.492,1492.4927,1493.9922,0,49,49,49,1,0.8,0.2,0.2,0.8,,,,,,,,,,,,,,,0.5169,,0.6,0.4,0.8,0.2,0.8,0.2,0.4,0.6,,,2.3105,,0.2,0.8,0.8,0.2,0.4,0.6,0.8,0.2,1,0
,,6500c323c1cfec3960e2b000,66fc983ac4b9a29d76467132,2024-10-02_13h49.56.704,mdp,2024.2.1,MacIntel,58.47953216,66fa4ebf79326e780c390304,,,,,,,,,,,,,,,,,,,,,,,,,,,,,,,,,,,,,,,,,,,,,,,,,,,,,,,,1493.9924,1552.5031,0,3,3,7,1,imgs/giraffe.png,imgs/horse.png,imgs/squirrel.png,imgs/bear.png,imgs/rabbit.png,,,,,,,,,,,,,,,,,,,,,,,,
,,6500c323c1cfec3960e2b000,66fc983ac4b9a29d76467132,2024-10-02_13h49.56.704,mdp,2024.2.1,MacIntel,58.47953216,66fa4ebf79326e780c390304,,,,,,,,,,,,,,1,seqs/st1seq38.csv,1552.5226,1554.4848,space,1.439,,1554.4875,1554.4875,1554.4885,1560.0626,0,1,left,5.0412,,1560.0767,1560.0774,0,0,,1560.0781,1560.0788,0,1,,0,1560.0788,1560.0788,1560.0793,1561.5805,0,0,0,0,1,0.6,0.4,0.8,0.2,1,0,,,,,,,,,,,,,,,,,,,,,,,,,,,,,,,,,,,,
,,6500c323c1cfec3960e2b000,66fc983ac4b9a29d76467132,2024-10-02_13h49.56.704,mdp,2024.2.1,MacIntel,58.47953216,66fa4ebf79326e780c390304,,,,,,,,,,,,,,,,,,,,,1561.5808,1561.5808,1561.5815,1563.6632,1,0,right,1.5579,,1563.6642,1563.6652,0,0,,1563.666,1563.6666,0,0,,1,1563.6667,1563.6667,1563.6673,1565.1618,0,1,1,1,1,0.4,0.6,0.6,0.4,1,0,,,,,,,,,,,,,,,,,,,,,,,,,,,,,,,,,,,,
,,6500c323c1cfec3960e2b000,66fc983ac4b9a29d76467132,2024-10-02_13h49.56.704,mdp,2024.2.1,MacIntel,58.47953216,66fa4ebf79326e780c390304,,,,,,,,,,,,,,,,,,,,,1565.1622,1565.1623,1565.1635,1569.0423,0,1,left,3.3545,,1569.0573,1569.0583,0,0,,1569.0593,1569.0599,0,1,,0,1569.06,1569.06,1569.0609,1570.5581,0,2,2,2,1,0.4,0.6,0.6,0.4,1,0,,,,,,,,,,,,,,,,,,,,,,,,,,,,,,,,,,,,
,,6500c323c1cfec3960e2b000,66fc983ac4b9a29d76467132,2024-10-02_13h49.56.704,mdp,2024.2.1,MacIntel,58.47953216,66fa4ebf79326e780c390304,,,,,,,,,,,,,,,,,,,,,1570.5589,1570.5589,1570.5603,1572.4248,1,0,right,1.3368,,1572.4261,1572.4272,0,1,,1572.4279,1572.4286,0,0,,1,1572.4286,1572.4286,1572.4291,1573.9227,0,3,3,3,1,0.4,0.6,0.6,0.4,1,0,,,,,,,,,,,,,,,,,,,,,,,,,,,,,,,,,,,,
,,6500c323c1cfec3960e2b000,66fc983ac4b9a29d76467132,2024-10-02_13h49.56.704,mdp,2024.2.1,MacIntel,58.47953216,66fa4ebf79326e780c390304,,,,,,,,,,,,,,,,,,,,,1573.9231,1573.9231,1573.9243,1575.0552,1,1,right,0.608,,1575.0562,1575.0574,0,0,,1575.058,1575.0586,0,1,,0,1575.0586,1575.0586,1575.0593,1576.5534,0,4,4,4,1,0.6,0.4,0.4,0.6,1,0,,,,,,,,,,,,,,,,,,,,,,,,,,,,,,,,,,,,
,,6500c323c1cfec3960e2b000,66fc983ac4b9a29d76467132,2024-10-02_13h49.56.704,mdp,2024.2.1,MacIntel,58.47953216,66fa4ebf79326e780c390304,,,,,,,,,,,,,,,,,,,,,1576.554,1576.554,1576.5555,1578.0359,0,1,left,0.9551,,1578.0373,1578.0385,0,1,,1578.0391,1578.0398,0,1,,0,1578.0399,1578.0399,1578.0406,1579.5356,0,5,5,5,1,0.4,0.6,0.8,0.2,1,0,,,,,,,,,,,,,,,,,,,,,,,,,,,,,,,,,,,,
,,6500c323c1cfec3960e2b000,66fc983ac4b9a29d76467132,2024-10-02_13h49.56.704,mdp,2024.2.1,MacIntel,58.47953216,66fa4ebf79326e780c390304,,,,,,,,,,,,,,,,,,,,,1579.5362,1579.5362,1579.5376,1581.3835,1,0,right,1.3218,,1581.385,1581.3857,0,0,,1581.3863,1581.3867,0,0,,1,1581.3867,1581.3867,1581.3874,1582.8835,0,6,6,6,1,0.4,0.6,0.8,0.2,1,0,,,,,,,,,,,,,,,,,,,,,,,,,,,,,,,,,,,,
,,6500c323c1cfec3960e2b000,66fc983ac4b9a29d76467132,2024-10-02_13h49.56.704,mdp,2024.2.1,MacIntel,58.47953216,66fa4ebf79326e780c390304,,,,,,,,,,,,,,,,,,,,,1582.884,1582.884,1582.8852,1583.9824,1,0,right,0.5726,,1583.9835,1583.9842,0,1,,1583.9848,1583.9855,0,0,,1,1583.9855,1583.9855,1583.9859,1585.4815,0,7,7,7,1,0.4,0.6,0.8,0.2,1,0,,,,,,,,,,,,,,,,,,,,,,,,,,,,,,,,,,,,
,,6500c323c1cfec3960e2b000,66fc983ac4b9a29d76467132,2024-10-02_13h49.56.704,mdp,2024.2.1,MacIntel,58.47953216,66fa4ebf79326e780c390304,,,,,,,,,,,,,,,,,,,,,1585.4819,1585.4819,1585.4832,1586.73,0,1,left,0.7249,,1586.7309,1586.7325,0,1,,1586.7332,1586.7337,0,1,,0,1586.7338,1586.7338,1586.7342,1588.2296,0,8,8,8,1,0.4,0.6,0.8,0.2,1,0,,,,,,,,,,,,,,,,,,,,,,,,,,,,,,,,,,,,
,,6500c323c1cfec3960e2b000,66fc983ac4b9a29d76467132,2024-10-02_13h49.56.704,mdp,2024.2.1,MacIntel,58.47953216,66fa4ebf79326e780c390304,,,,,,,,,,,,,,,,,,,,,1588.23,1588.23,1588.2315,1589.2451,1,0,right,0.4821,,1589.2462,1589.2469,0,1,,1589.2476,1589.248,0,0,,1,1589.2481,1589.2481,1589.2489,1590.762,0,9,9,9,1,0.4,0.6,0.8,0.2,1,0,,,,,,,,,,,,,,,,,,,,,,,,,,,,,,,,,,,,
,,6500c323c1cfec3960e2b000,66fc983ac4b9a29d76467132,2024-10-02_13h49.56.704,mdp,2024.2.1,MacIntel,58.47953216,66fa4ebf79326e780c390304,,,,,,,,,,,,,,,,,,,,,1590.7623,1590.7623,1590.763,1592.3264,1,0,right,1.0245,,1592.3275,1592.3283,0,0,,1592.329,1592.3295,0,1,,1,1592.3295,1592.3295,1592.3301,1593.8256,0,10,10,10,1,0.4,0.6,0.8,0.2,1,0,,,,,,,,,,,,,,,,,,,,,,,,,,,,,,,,,,,,
,,6500c323c1cfec3960e2b000,66fc983ac4b9a29d76467132,2024-10-02_13h49.56.704,mdp,2024.2.1,MacIntel,58.47953216,66fa4ebf79326e780c390304,,,,,,,,,,,,,,,,,,,,,1593.826,1593.826,1593.8268,1594.8911,1,0,right,0.5396,,1594.8919,1594.8934,0,0,,1594.8944,1594.8951,0,0,,1,1594.8952,1594.8952,1594.896,1596.391,0,11,11,11,1,0.4,0.6,0.8,0.2,1,0,,,,,,,,,,,,,,,,,,,,,,,,,,,,,,,,,,,,
,,6500c323c1cfec3960e2b000,66fc983ac4b9a29d76467132,2024-10-02_13h49.56.704,mdp,2024.2.1,MacIntel,58.47953216,66fa4ebf79326e780c390304,,,,,,,,,,,,,,,,,,,,,1596.3916,1596.3916,1596.3931,1597.5728,1,0,right,0.658,,1597.5738,1597.5758,0,0,,1597.5767,1597.5775,0,0,,1,1597.5775,1597.5776,1597.5784,1599.072,0,12,12,12,1,0.4,0.6,0.8,0.2,1,0,,,,,,,,,,,,,,,,,,,,,,,,,,,,,,,,,,,,
,,6500c323c1cfec3960e2b000,66fc983ac4b9a29d76467132,2024-10-02_13h49.56.704,mdp,2024.2.1,MacIntel,58.47953216,66fa4ebf79326e780c390304,,,,,,,,,,,,,,,,,,,,,1599.0723,1599.0723,1599.0735,1600.0376,1,0,right,0.4345,,1600.0384,1600.039,0,0,,1600.0403,1600.041,0,1,,1,1600.041,1600.041,1600.0416,1601.5378,0,13,13,13,1,0.8,0.2,0.6,0.4,1,0,,,,,,,,,,,,,,,,,,,,,,,,,,,,,,,,,,,,
,,6500c323c1cfec3960e2b000,66fc983ac4b9a29d76467132,2024-10-02_13h49.56.704,mdp,2024.2.1,MacIntel,58.47953216,66fa4ebf79326e780c390304,,,,,,,,,,,,,,,,,,,,,1601.5383,1601.5383,1601.5397,1602.6702,1,0,right,0.6097,,1602.6711,1602.6728,0,1,,1602.6741,1602.6749,0,0,,1,1602.6749,1602.6749,1602.6755,1604.1681,0,14,14,14,1,0.8,0.2,0.6,0.4,1,0,,,,,,,,,,,,,,,,,,,,,,,,,,,,,,,,,,,,
,,6500c323c1cfec3960e2b000,66fc983ac4b9a29d76467132,2024-10-02_13h49.56.704,mdp,2024.2.1,MacIntel,58.47953216,66fa4ebf79326e780c390304,,,,,,,,,,,,,,,,,,,,,1604.1684,1604.1684,1604.1695,1605.4017,1,1,right,0.7035,,1605.4029,1605.4041,0,0,,1605.4053,1605.4062,0,0,,0,1605.4063,1605.4063,1605.4069,1606.9005,0,15,15,15,1,0.8,0.2,0.6,0.4,1,0,,,,,,,,,,,,,,,,,,,,,,,,,,,,,,,,,,,,
,,6500c323c1cfec3960e2b000,66fc983ac4b9a29d76467132,2024-10-02_13h49.56.704,mdp,2024.2.1,MacIntel,58.47953216,66fa4ebf79326e780c390304,,,,,,,,,,,,,,,,,,,,,1606.9009,1606.9009,1606.9019,1607.8991,0,0,left,0.4732,,1607.9,1607.9014,0,0,,1607.9023,1607.9033,0,0,,1,1607.9033,1607.9033,1607.9043,1609.3992,0,16,16,16,1,0.8,0.2,0.6,0.4,1,0,,,,,,,,,,,,,,,,,,,,,,,,,,,,,,,,,,,,
,,6500c323c1cfec3960e2b000,66fc983ac4b9a29d76467132,2024-10-02_13h49.56.704,mdp,2024.2.1,MacIntel,58.47953216,66fa4ebf79326e780c390304,,,,,,,,,,,,,,,,,,,,,1609.3997,1609.3998,1609.4013,1610.4805,0,0,left,0.5563,,1610.4813,1610.4824,0,1,,1610.4832,1610.4838,0,1,,1,1610.4838,1610.4838,1610.4843,1611.9806,0,17,17,17,1,0.4,0.6,0.8,0.2,1,0,,,,,,,,,,,,,,,,,,,,,,,,,,,,,,,,,,,,
,,6500c323c1cfec3960e2b000,66fc983ac4b9a29d76467132,2024-10-02_13h49.56.704,mdp,2024.2.1,MacIntel,58.47953216,66fa4ebf79326e780c390304,,,,,,,,,,,,,,,,,,,,,1611.9812,1611.9812,1611.9827,1613.5466,0,0,left,1.0324,,1613.5476,1613.5489,0,1,,1613.5502,1613.551,0,0,,1,1613.5511,1613.5511,1613.5518,1615.048,0,18,18,18,1,0.4,0.6,0.8,0.2,1,0,,,,,,,,,,,,,,,,,,,,,,,,,,,,,,,,,,,,
,,6500c323c1cfec3960e2b000,66fc983ac4b9a29d76467132,2024-10-02_13h49.56.704,mdp,2024.2.1,MacIntel,58.47953216,66fa4ebf79326e780c390304,,,,,,,,,,,,,,,,,,,,,1615.0485,1615.0485,1615.0495,1616.1441,0,0,left,0.5767,,1616.1449,1616.1458,0,0,,1616.1464,1616.147,0,0,,1,1616.147,1616.147,1616.1475,1617.6429,0,19,19,19,1,0.2,0.8,0.6,0.4,1,0,,,,,,,,,,,,,,,,,,,,,,,,,,,,,,,,,,,,
,,6500c323c1cfec3960e2b000,66fc983ac4b9a29d76467132,2024-10-02_13h49.56.704,mdp,2024.2.1,MacIntel,58.47953216,66fa4ebf79326e780c390304,,,,,,,,,,,,,,,,,,,,,1617.6432,1617.6432,1617.6442,1619.6404,0,1,left,1.4749,,1619.6414,1619.642,0,0,,1619.6427,1619.6435,0,1,,0,1619.6435,1619.6435,1619.6441,1621.1347,0,20,20,20,1,0.2,0.8,0.6,0.4,1,0,,,,,,,,,,,,,,,,,,,,,,,,,,,,,,,,,,,,
,,6500c323c1cfec3960e2b000,66fc983ac4b9a29d76467132,2024-10-02_13h49.56.704,mdp,2024.2.1,MacIntel,58.47953216,66fa4ebf79326e780c390304,,,,,,,,,,,,,,,,,,,,,1621.1352,1621.1353,1621.1362,1622.1905,1,0,right,0.5325,,1622.192,1622.1932,0,0,,1622.1941,1622.1948,0,0,,1,1622.1949,1622.1949,1622.1955,1623.6897,0,21,21,21,1,0.2,0.8,0.6,0.4,1,0,,,,,,,,,,,,,,,,,,,,,,,,,,,,,,,,,,,,
,,6500c323c1cfec3960e2b000,66fc983ac4b9a29d76467132,2024-10-02_13h49.56.704,mdp,2024.2.1,MacIntel,58.47953216,66fa4ebf79326e780c390304,,,,,,,,,,,,,,,,,,,,,1623.6904,1623.6904,1623.6915,1624.7556,1,0,right,0.536,,1624.7567,1624.7577,0,1,,1624.7587,1624.7597,0,0,,1,1624.7598,1624.7598,1624.7608,1626.2543,0,22,22,22,1,0.2,0.8,0.6,0.4,1,0,,,,,,,,,,,,,,,,,,,,,,,,,,,,,,,,,,,,
,,6500c323c1cfec3960e2b000,66fc983ac4b9a29d76467132,2024-10-02_13h49.56.704,mdp,2024.2.1,MacIntel,58.47953216,66fa4ebf79326e780c390304,,,,,,,,,,,,,,,,,,,,,1626.2549,1626.2549,1626.2563,1627.5867,1,1,right,0.807,,1627.5875,1627.5883,0,1,,1627.5891,1627.5895,0,1,,0,1627.5895,1627.5896,1627.5901,1629.085,0,23,23,23,1,0.6,0.4,0.2,0.8,1,0,,,,,,,,,,,,,,,,,,,,,,,,,,,,,,,,,,,,
,,6500c323c1cfec3960e2b000,66fc983ac4b9a29d76467132,2024-10-02_13h49.56.704,mdp,2024.2.1,MacIntel,58.47953216,66fa4ebf79326e780c390304,,,,,,,,,,,,,,,,,,,,,1629.0854,1629.0854,1629.0865,1630.5351,0,0,left,0.9352,,1630.5361,1630.5374,0,0,,1630.5383,1630.5392,0,0,,1,1630.5393,1630.5393,1630.5399,1632.0335,0,24,24,24,1,0.8,0.2,0.6,0.4,1,0,,,,,,,,,,,,,,,,,,,,,,,,,,,,,,,,,,,,
,,6500c323c1cfec3960e2b000,66fc983ac4b9a29d76467132,2024-10-02_13h49.56.704,mdp,2024.2.1,MacIntel,58.47953216,66fa4ebf79326e780c390304,,,,,,,,,,,,,,,,,,,,,1632.0339,1632.0339,1632.0348,1633.0331,0,1,left,0.4748,,1633.0341,1633.0353,0,0,,1633.0362,1633.0368,0,0,,0,1633.0368,1633.0368,1633.0374,1634.5318,0,25,25,25,1,0.8,0.2,0.6,0.4,1,0,,,,,,,,,,,,,,,,,,,,,,,,,,,,,,,,,,,,
,,6500c323c1cfec3960e2b000,66fc983ac4b9a29d76467132,2024-10-02_13h49.56.704,mdp,2024.2.1,MacIntel,58.47953216,66fa4ebf79326e780c390304,,,,,,,,,,,,,,,,,,,,,1634.5321,1634.5321,1634.5331,1635.6811,1,0,right,0.6224,,1635.6821,1635.6827,0,1,,1635.6834,1635.684,0,0,,1,1635.6841,1635.6841,1635.6848,1637.1797,0,26,26,26,1,0.6,0.4,0.8,0.2,1,0,,,,,,,,,,,,,,,,,,,,,,,,,,,,,,,,,,,,
,,6500c323c1cfec3960e2b000,66fc983ac4b9a29d76467132,2024-10-02_13h49.56.704,mdp,2024.2.1,MacIntel,58.47953216,66fa4ebf79326e780c390304,,,,,,,,,,,,,,,,,,,,,1637.1804,1637.1804,1637.1814,1638.131,1,0,right,0.4173,,1638.1321,1638.1333,0,0,,1638.134,1638.1346,0,1,,1,1638.1346,1638.1346,1638.1351,1639.6287,0,27,27,27,1,0.6,0.4,0.8,0.2,1,0,,,,,,,,,,,,,,,,,,,,,,,,,,,,,,,,,,,,
,,6500c323c1cfec3960e2b000,66fc983ac4b9a29d76467132,2024-10-02_13h49.56.704,mdp,2024.2.1,MacIntel,58.47953216,66fa4ebf79326e780c390304,,,,,,,,,,,,,,,,,,,,,1639.6295,1639.6295,1639.6306,1640.6444,1,0,right,0.4906,,1640.6456,1640.6467,0,0,,1640.6473,1640.6478,0,0,,1,1640.6479,1640.6479,1640.6484,1642.143,0,28,28,28,1,0.6,0.4,0.8,0.2,1,0,,,,,,,,,,,,,,,,,,,,,,,,,,,,,,,,,,,,
,,6500c323c1cfec3960e2b000,66fc983ac4b9a29d76467132,2024-10-02_13h49.56.704,mdp,2024.2.1,MacIntel,58.47953216,66fa4ebf79326e780c390304,,,,,,,,,,,,,,,,,,,,,1642.1434,1642.1434,1642.1446,1646.8435,1,1,right,4.1929,,1646.8592,1646.8604,0,0,,1646.8612,1646.8618,0,0,,0,1646.8619,1646.8619,1646.8624,1648.3565,0,29,29,29,1,0.8,0.2,0.4,0.6,1,0,,,,,,,,,,,,,,,,,,,,,,,,,,,,,,,,,,,,
,,6500c323c1cfec3960e2b000,66fc983ac4b9a29d76467132,2024-10-02_13h49.56.704,mdp,2024.2.1,MacIntel,58.47953216,66fa4ebf79326e780c390304,,,,,,,,,,,,,,,,,,,,,1648.3568,1648.3568,1648.3578,1649.3887,0,0,left,0.5076,,1649.3899,1649.3908,0,1,,1649.3916,1649.3922,0,0,,1,1649.3925,1649.3925,1649.3934,1650.8749,0,30,30,30,1,0.8,0.2,0.4,0.6,1,0,,,,,,,,,,,,,,,,,,,,,,,,,,,,,,,,,,,,
,,6500c323c1cfec3960e2b000,66fc983ac4b9a29d76467132,2024-10-02_13h49.56.704,mdp,2024.2.1,MacIntel,58.47953216,66fa4ebf79326e780c390304,,,,,,,,,,,,,,,,,,,,,1650.8753,1650.8753,1650.876,1652.1696,0,1,left,0.7636,,1652.1708,1652.1714,0,1,,1652.1722,1652.1728,0,0,,0,1652.1728,1652.1731,1652.1743,1653.6693,0,31,31,31,1,0.8,0.2,0.4,0.6,1,0,,,,,,,,,,,,,,,,,,,,,,,,,,,,,,,,,,,,
,,6500c323c1cfec3960e2b000,66fc983ac4b9a29d76467132,2024-10-02_13h49.56.704,mdp,2024.2.1,MacIntel,58.47953216,66fa4ebf79326e780c390304,,,,,,,,,,,,,,,,,,,,,1653.67,1653.67,1653.6719,1654.6857,1,1,right,0.4797,,1654.6868,1654.6883,0,1,,1654.689,1654.6898,0,0,,0,1654.6898,1654.6899,1654.6904,1656.1843,0,32,32,32,1,0.6,0.4,0.6,0.4,1,0,,,,,,,,,,,,,,,,,,,,,,,,,,,,,,,,,,,,
,,6500c323c1cfec3960e2b000,66fc983ac4b9a29d76467132,2024-10-02_13h49.56.704,mdp,2024.2.1,MacIntel,58.47953216,66fa4ebf79326e780c390304,,,,,,,,,,,,,,,,,,,,,1656.1848,1656.1848,1656.1857,1657.1351,0,1,left,0.4243,,1657.1359,1657.1377,0,1,,1657.139,1657.1399,0,1,,0,1657.1399,1657.1399,1657.1406,1658.6325,0,33,33,33,1,0.2,0.8,0.8,0.2,1,0,,,,,,,,,,,,,,,,,,,,,,,,,,,,,,,,,,,,
,,6500c323c1cfec3960e2b000,66fc983ac4b9a29d76467132,2024-10-02_13h49.56.704,mdp,2024.2.1,MacIntel,58.47953216,66fa4ebf79326e780c390304,,,,,,,,,,,,,,,,,,,,,1658.6329,1658.6329,1658.6344,1659.7319,0,1,left,0.5746,,1659.7326,1659.7333,0,1,,1659.7339,1659.7345,0,1,,0,1659.7345,1659.7345,1659.7351,1661.2307,0,34,34,34,1,0.2,0.8,0.8,0.2,1,0,,,,,,,,,,,,,,,,,,,,,,,,,,,,,,,,,,,,
,,6500c323c1cfec3960e2b000,66fc983ac4b9a29d76467132,2024-10-02_13h49.56.704,mdp,2024.2.1,MacIntel,58.47953216,66fa4ebf79326e780c390304,,,,,,,,,,,,,,,,,,,,,1661.2313,1661.2313,1661.2323,1662.38,1,1,right,0.6223,,1662.3808,1662.3818,0,0,,1662.3825,1662.3832,0,0,,0,1662.3832,1662.3832,1662.3841,1663.8797,0,35,35,35,1,0.2,0.8,0.8,0.2,1,0,,,,,,,,,,,,,,,,,,,,,,,,,,,,,,,,,,,,
,,6500c323c1cfec3960e2b000,66fc983ac4b9a29d76467132,2024-10-02_13h49.56.704,mdp,2024.2.1,MacIntel,58.47953216,66fa4ebf79326e780c390304,,,,,,,,,,,,,,,,,,,,,1663.88,1663.8801,1663.8808,1664.8954,0,1,left,0.4871,,1664.8969,1664.8977,0,1,,1664.8984,1664.8993,0,1,,0,1664.8994,1664.8994,1664.9006,1666.3944,0,36,36,36,1,0.2,0.8,0.8,0.2,1,0,,,,,,,,,,,,,,,,,,,,,,,,,,,,,,,,,,,,
,,6500c323c1cfec3960e2b000,66fc983ac4b9a29d76467132,2024-10-02_13h49.56.704,mdp,2024.2.1,MacIntel,58.47953216,66fa4ebf79326e780c390304,,,,,,,,,,,,,,,,,,,,,1666.3948,1666.3948,1666.3959,1668.0761,0,1,left,1.1501,,1668.077,1668.0779,0,0,,1668.0786,1668.0794,0,0,,0,1668.0794,1668.0794,1668.0802,1669.5756,0,37,37,37,1,0.2,0.8,0.8,0.2,1,0,,,,,,,,,,,,,,,,,,,,,,,,,,,,,,,,,,,,
,,6500c323c1cfec3960e2b000,66fc983ac4b9a29d76467132,2024-10-02_13h49.56.704,mdp,2024.2.1,MacIntel,58.47953216,66fa4ebf79326e780c390304,,,,,,,,,,,,,,,,,,,,,1669.5758,1669.5759,1669.5767,1670.9242,0,1,left,0.8158,,1670.9253,1670.9265,0,1,,1670.9272,1670.9279,0,1,,0,1670.9279,1670.9279,1670.9284,1672.4233,0,38,38,38,1,0.2,0.8,0.8,0.2,1,0,,,,,,,,,,,,,,,,,,,,,,,,,,,,,,,,,,,,
