init_exp.started,init_exp.stopped,participant,session,date,expName,psychopyVersion,OS,frameRate,study_id,disp_instruction.started,disp_instruction.stopped,instruction.thisRepN,instruction.thisTrialN,instruction.thisN,instruction.thisIndex,instruction.ran,instimg_path,consent.started,consent.stopped,key_resp_3.keys,key_resp_3.rt,key_resp_3.duration,n_steps,sequence_path,init_block.started,init_block.stopped,key_resp.keys,key_resp.rt,key_resp.duration,init_trials.started,init_trials.stopped,step0.started,step0.stopped,act0,s1,res0.keys,res0.rt,res0.duration,step1.started,step1.stopped,act1,s2,res1.keys,step2.started,step2.stopped,act2,s3,res2.keys,rew,reward_comp.started,reward_comp.stopped,reward_disp.started,reward_disp.stopped,trials.thisRepN,trials.thisTrialN,trials.thisN,trials.thisIndex,trials.ran,s00a0s10,s00a0s11,s00a1s10,s00a1s11,rew10,rew11,break_block.started,break_block.stopped,block.thisRepN,block.thisTrialN,block.thisN,block.thisIndex,block.ran,s00path,s10path,s11path,s20path,s21path,res1.rt,res1.duration,s10a0s20,s10a0s21,s10a1s20,s10a1s21,s11a0s20,s11a0s21,s11a1s20,s11a1s21,rew20,rew21,res2.rt,res2.duration,s20a0s30,s20a0s31,s20a1s30,s20a1s31,s21a0s30,s21a0s31,s21a1s30,s21a1s31,rew30,rew31
0.0001,0.001,65391353897d68dd53a067da,66daf5c66ab9d29978b9c0bb,2024-09-06_15h30.26.173,mdp,2024.2.1,Win32,59.88023952,66d7945b1baad48e845df3ce,,,,,,,,,,,,,,,,,,,,,,,,,,,,,,,,,,,,,,,,,,,,,,,,,,,,,,,,,,,,,,,,,,,,,,,,,,,,,,,,,,,,,,,,,,,
,,65391353897d68dd53a067da,66daf5c66ab9d29978b9c0bb,2024-09-06_15h30.26.173,mdp,2024.2.1,Win32,59.88023952,66d7945b1baad48e845df3ce,0.0037,19.0468,0,0,0,0,1,rlnn_exp/rlnn_exp.001.png,,,,,,,,,,,,,,,,,,,,,,,,,,,,,,,,,,,,,,,,,,,,,,,,,,,,,,,,,,,,,,,,,,,,,,,,,,,,,,,,,,,
,,65391353897d68dd53a067da,66daf5c66ab9d29978b9c0bb,2024-09-06_15h30.26.173,mdp,2024.2.1,Win32,59.88023952,66d7945b1baad48e845df3ce,19.0472,34.0947,0,1,1,1,1,rlnn_exp/rlnn_exp.002.png,,,,,,,,,,,,,,,,,,,,,,,,,,,,,,,,,,,,,,,,,,,,,,,,,,,,,,,,,,,,,,,,,,,,,,,,,,,,,,,,,,,
,,65391353897d68dd53a067da,66daf5c66ab9d29978b9c0bb,2024-09-06_15h30.26.173,mdp,2024.2.1,Win32,59.88023952,66d7945b1baad48e845df3ce,34.0952,49.226,0,2,2,2,1,rlnn_exp/rlnn_exp.003.png,,,,,,,,,,,,,,,,,,,,,,,,,,,,,,,,,,,,,,,,,,,,,,,,,,,,,,,,,,,,,,,,,,,,,,,,,,,,,,,,,,,
,,65391353897d68dd53a067da,66daf5c66ab9d29978b9c0bb,2024-09-06_15h30.26.173,mdp,2024.2.1,Win32,59.88023952,66d7945b1baad48e845df3ce,49.2266,60.658,0,3,3,3,1,rlnn_exp/rlnn_exp.004.png,,,,,,,,,,,,,,,,,,,,,,,,,,,,,,,,,,,,,,,,,,,,,,,,,,,,,,,,,,,,,,,,,,,,,,,,,,,,,,,,,,,
,,65391353897d68dd53a067da,66daf5c66ab9d29978b9c0bb,2024-09-06_15h30.26.173,mdp,2024.2.1,Win32,59.88023952,66d7945b1baad48e845df3ce,,,,,,,,,60.6652,109.3847,y,7.0041,,,,,,,,,,,,,,,,,,,,,,,,,,,,,,,,,,,,,,,,,,,,,,,,,,,,,,,,,,,,,,,,,,,,,,,,,,,,,,,
,,65391353897d68dd53a067da,66daf5c66ab9d29978b9c0bb,2024-09-06_15h30.26.173,mdp,2024.2.1,Win32,59.88023952,66d7945b1baad48e845df3ce,,,,,,,,,,,,,,1,seqs/st1seq37.csv,109.394,111.1847,space,1.2715,,111.1876,111.1877,111.1879,114.7009,0,1,left,2.983,,114.7083,114.7098,,1,,114.71,114.7109,,1,,0,114.7109,114.711,114.7112,116.2008,0,0,0,0,1,0.2,0.8,0.6,0.4,1,0,,,,,,,,,,,,,,,,,,,,,,,,,,,,,,,,,,,,
,,65391353897d68dd53a067da,66daf5c66ab9d29978b9c0bb,2024-09-06_15h30.26.173,mdp,2024.2.1,Win32,59.88023952,66d7945b1baad48e845df3ce,,,,,,,,,,,,,,,,,,,,,116.2013,116.2013,116.2022,117.8666,0,1,left,1.1336,,117.8676,117.8683,,1,,117.8692,117.8698,,1,,0,117.8699,117.8699,117.8702,119.3663,0,1,1,1,1,0.2,0.8,0.6,0.4,1,0,,,,,,,,,,,,,,,,,,,,,,,,,,,,,,,,,,,,
,,65391353897d68dd53a067da,66daf5c66ab9d29978b9c0bb,2024-09-06_15h30.26.173,mdp,2024.2.1,Win32,59.88023952,66d7945b1baad48e845df3ce,,,,,,,,,,,,,,,,,,,,,119.3666,119.3666,119.3679,119.9162,1,0,right,0.0286,,119.9173,119.9179,,0,,119.9187,119.9193,,1,,1,119.9193,119.9194,119.9197,121.4163,0,2,2,2,1,0.6,0.4,0.4,0.6,1,0,,,,,,,,,,,,,,,,,,,,,,,,,,,,,,,,,,,,
,,65391353897d68dd53a067da,66daf5c66ab9d29978b9c0bb,2024-09-06_15h30.26.173,mdp,2024.2.1,Win32,59.88023952,66d7945b1baad48e845df3ce,,,,,,,,,,,,,,,,,,,,,121.4166,121.4167,121.4181,122.7159,0,0,left,0.7772,,122.7167,122.7175,,0,,122.7184,122.7192,,0,,1,122.7192,122.7192,122.7196,124.2158,0,3,3,3,1,0.6,0.4,0.4,0.6,1,0,,,,,,,,,,,,,,,,,,,,,,,,,,,,,,,,,,,,
,,65391353897d68dd53a067da,66daf5c66ab9d29978b9c0bb,2024-09-06_15h30.26.173,mdp,2024.2.1,Win32,59.88023952,66d7945b1baad48e845df3ce,,,,,,,,,,,,,,,,,,,,,124.2161,124.2161,124.2168,125.449,0,1,left,0.7127,,125.4497,125.4502,,0,,125.4508,125.4511,,0,,0,125.4511,125.4511,125.4517,126.9491,0,4,4,4,1,0.6,0.4,0.4,0.6,1,0,,,,,,,,,,,,,,,,,,,,,,,,,,,,,,,,,,,,
,,65391353897d68dd53a067da,66daf5c66ab9d29978b9c0bb,2024-09-06_15h30.26.173,mdp,2024.2.1,Win32,59.88023952,66d7945b1baad48e845df3ce,,,,,,,,,,,,,,,,,,,,,126.9493,126.9493,126.9505,127.5823,1,1,right,0.1102,,127.5831,127.5837,,1,,127.5842,127.5846,,0,,0,127.5846,127.5846,127.5853,129.0818,0,5,5,5,1,0.6,0.4,0.4,0.6,1,0,,,,,,,,,,,,,,,,,,,,,,,,,,,,,,,,,,,,
,,65391353897d68dd53a067da,66daf5c66ab9d29978b9c0bb,2024-09-06_15h30.26.173,mdp,2024.2.1,Win32,59.88023952,66d7945b1baad48e845df3ce,,,,,,,,,,,,,,,,,,,,,129.0822,129.0822,129.0833,130.215,0,1,left,0.6063,,130.2158,130.2164,,1,,130.2173,130.218,,1,,0,130.2181,130.2181,130.2185,131.7149,0,6,6,6,1,0.6,0.4,0.4,0.6,1,0,,,,,,,,,,,,,,,,,,,,,,,,,,,,,,,,,,,,
,,65391353897d68dd53a067da,66daf5c66ab9d29978b9c0bb,2024-09-06_15h30.26.173,mdp,2024.2.1,Win32,59.88023952,66d7945b1baad48e845df3ce,,,,,,,,,,,,,,,,,,,,,131.7152,131.7153,131.7164,133.0315,0,0,left,0.7836,,133.0324,133.0333,,1,,133.0339,133.035,,0,,1,133.035,133.035,133.0358,134.531,0,7,7,7,1,0.6,0.4,0.4,0.6,1,0,,,,,,,,,,,,,,,,,,,,,,,,,,,,,,,,,,,,
,,65391353897d68dd53a067da,66daf5c66ab9d29978b9c0bb,2024-09-06_15h30.26.173,mdp,2024.2.1,Win32,59.88023952,66d7945b1baad48e845df3ce,,,,,,,,,,,,,,,,,,,,,134.5313,134.5314,134.5323,135.6809,0,1,left,0.6183,,135.6819,135.6829,,1,,135.6836,135.684,,1,,0,135.684,135.684,135.6844,137.1811,0,8,8,8,1,0.6,0.4,0.4,0.6,1,0,,,,,,,,,,,,,,,,,,,,,,,,,,,,,,,,,,,,
,,65391353897d68dd53a067da,66daf5c66ab9d29978b9c0bb,2024-09-06_15h30.26.173,mdp,2024.2.1,Win32,59.88023952,66d7945b1baad48e845df3ce,,,,,,,,,,,,,,,,,,,,,137.1813,137.1814,137.182,138.0472,0,0,left,0.3468,,138.048,138.0486,,1,,138.0492,138.0497,,0,,1,138.0497,138.0498,138.0504,139.5471,0,9,9,9,1,0.6,0.4,0.4,0.6,1,0,,,,,,,,,,,,,,,,,,,,,,,,,,,,,,,,,,,,
,,65391353897d68dd53a067da,66daf5c66ab9d29978b9c0bb,2024-09-06_15h30.26.173,mdp,2024.2.1,Win32,59.88023952,66d7945b1baad48e845df3ce,,,,,,,,,,,,,,,,,,,,,139.5474,139.5474,139.5483,140.7307,0,1,left,0.6589,,140.7314,140.732,,0,,140.7325,140.7332,,1,,0,140.7332,140.7332,140.7336,142.2301,0,10,10,10,1,0.6,0.4,0.4,0.6,1,0,,,,,,,,,,,,,,,,,,,,,,,,,,,,,,,,,,,,
,,65391353897d68dd53a067da,66daf5c66ab9d29978b9c0bb,2024-09-06_15h30.26.173,mdp,2024.2.1,Win32,59.88023952,66d7945b1baad48e845df3ce,,,,,,,,,,,,,,,,,,,,,142.2304,142.2304,142.2313,143.6466,0,0,left,0.8846,,143.6476,143.6482,,0,,143.6489,143.6494,,0,,1,143.6494,143.6494,143.6502,145.1463,0,11,11,11,1,0.8,0.2,0.2,0.8,1,0,,,,,,,,,,,,,,,,,,,,,,,,,,,,,,,,,,,,
,,65391353897d68dd53a067da,66daf5c66ab9d29978b9c0bb,2024-09-06_15h30.26.173,mdp,2024.2.1,Win32,59.88023952,66d7945b1baad48e845df3ce,,,,,,,,,,,,,,,,,,,,,145.1465,145.1465,145.1473,146.7127,1,1,right,1.042,,146.7136,146.7141,,1,,146.7146,146.7149,,1,,0,146.7149,146.7149,146.7155,148.2125,0,12,12,12,1,0.8,0.2,0.2,0.8,1,0,,,,,,,,,,,,,,,,,,,,,,,,,,,,,,,,,,,,
,,65391353897d68dd53a067da,66daf5c66ab9d29978b9c0bb,2024-09-06_15h30.26.173,mdp,2024.2.1,Win32,59.88023952,66d7945b1baad48e845df3ce,,,,,,,,,,,,,,,,,,,,,148.213,148.213,148.2139,149.2791,1,1,right,0.5456,,149.28,149.2808,,1,,149.2817,149.2822,,1,,0,149.2822,149.2822,149.2826,150.7789,0,13,13,13,1,0.8,0.2,0.2,0.8,1,0,,,,,,,,,,,,,,,,,,,,,,,,,,,,,,,,,,,,
,,65391353897d68dd53a067da,66daf5c66ab9d29978b9c0bb,2024-09-06_15h30.26.173,mdp,2024.2.1,Win32,59.88023952,66d7945b1baad48e845df3ce,,,,,,,,,,,,,,,,,,,,,150.7793,150.7793,150.7801,151.9957,1,1,right,0.6918,,151.9966,151.9973,,1,,151.998,151.9985,,1,,0,151.9985,151.9985,151.9989,153.4952,0,14,14,14,1,0.8,0.2,0.2,0.8,1,0,,,,,,,,,,,,,,,,,,,,,,,,,,,,,,,,,,,,
,,65391353897d68dd53a067da,66daf5c66ab9d29978b9c0bb,2024-09-06_15h30.26.173,mdp,2024.2.1,Win32,59.88023952,66d7945b1baad48e845df3ce,,,,,,,,,,,,,,,,,,,,,153.4957,153.4957,153.4966,154.4951,1,1,right,0.4662,,154.4959,154.4967,,1,,154.4975,154.4981,,1,,0,154.4981,154.4981,154.4985,155.9949,0,15,15,15,1,0.8,0.2,0.2,0.8,1,0,,,,,,,,,,,,,,,,,,,,,,,,,,,,,,,,,,,,
,,65391353897d68dd53a067da,66daf5c66ab9d29978b9c0bb,2024-09-06_15h30.26.173,mdp,2024.2.1,Win32,59.88023952,66d7945b1baad48e845df3ce,,,,,,,,,,,,,,,,,,,,,155.9952,155.9952,155.9962,156.5282,0,0,left,0.0004,,156.529,156.5295,,1,,156.5299,156.5305,,0,,1,156.5305,156.5305,156.5312,158.0279,0,16,16,16,1,0.4,0.6,0.6,0.4,1,0,,,,,,,,,,,,,,,,,,,,,,,,,,,,,,,,,,,,
,,65391353897d68dd53a067da,66daf5c66ab9d29978b9c0bb,2024-09-06_15h30.26.173,mdp,2024.2.1,Win32,59.88023952,66d7945b1baad48e845df3ce,,,,,,,,,,,,,,,,,,,,,158.0283,158.0284,158.0293,159.0113,1,1,right,0.4638,,159.0121,159.0127,,1,,159.0134,159.0139,,1,,0,159.0139,159.0139,159.0148,160.511,0,17,17,17,1,0.8,0.2,0.2,0.8,1,0,,,,,,,,,,,,,,,,,,,,,,,,,,,,,,,,,,,,
,,65391353897d68dd53a067da,66daf5c66ab9d29978b9c0bb,2024-09-06_15h30.26.173,mdp,2024.2.1,Win32,59.88023952,66d7945b1baad48e845df3ce,,,,,,,,,,,,,,,,,,,,,160.5113,160.5113,160.5121,161.4942,0,0,left,0.4606,,161.4954,161.4959,,1,,161.4965,161.4969,,1,,1,161.4969,161.497,161.4978,162.9939,0,18,18,18,1,0.2,0.8,0.6,0.4,1,0,,,,,,,,,,,,,,,,,,,,,,,,,,,,,,,,,,,,
,,65391353897d68dd53a067da,66daf5c66ab9d29978b9c0bb,2024-09-06_15h30.26.173,mdp,2024.2.1,Win32,59.88023952,66d7945b1baad48e845df3ce,,,,,,,,,,,,,,,,,,,,,162.9942,162.9942,162.995,163.9774,0,0,left,0.4759,,163.9784,163.9793,,0,,163.98,163.9802,,0,,1,163.9803,163.9803,163.9806,165.4771,0,19,19,19,1,0.8,0.2,0.2,0.8,1,0,,,,,,,,,,,,,,,,,,,,,,,,,,,,,,,,,,,,
,,65391353897d68dd53a067da,66daf5c66ab9d29978b9c0bb,2024-09-06_15h30.26.173,mdp,2024.2.1,Win32,59.88023952,66d7945b1baad48e845df3ce,,,,,,,,,,,,,,,,,,,,,165.4774,165.4774,165.4785,166.3605,0,1,left,0.3509,,166.3615,166.3622,,0,,166.3629,166.3633,,0,,0,166.3633,166.3633,166.3637,167.8601,0,20,20,20,1,0.8,0.2,0.2,0.8,1,0,,,,,,,,,,,,,,,,,,,,,,,,,,,,,,,,,,,,
,,65391353897d68dd53a067da,66daf5c66ab9d29978b9c0bb,2024-09-06_15h30.26.173,mdp,2024.2.1,Win32,59.88023952,66d7945b1baad48e845df3ce,,,,,,,,,,,,,,,,,,,,,167.8604,167.8604,167.8614,168.7436,0,0,left,0.3598,,168.7449,168.7456,,1,,168.7463,168.7466,,0,,1,168.7467,168.7467,168.747,170.2432,0,21,21,21,1,0.4,0.6,0.8,0.2,1,0,,,,,,,,,,,,,,,,,,,,,,,,,,,,,,,,,,,,
,,65391353897d68dd53a067da,66daf5c66ab9d29978b9c0bb,2024-09-06_15h30.26.173,mdp,2024.2.1,Win32,59.88023952,66d7945b1baad48e845df3ce,,,,,,,,,,,,,,,,,,,,,170.2434,170.2434,170.2441,171.2097,0,0,left,0.4376,,171.2107,171.2115,,1,,171.2123,171.2126,,0,,1,171.2127,171.2127,171.2129,172.7099,0,22,22,22,1,0.4,0.6,0.8,0.2,1,0,,,,,,,,,,,,,,,,,,,,,,,,,,,,,,,,,,,,
,,65391353897d68dd53a067da,66daf5c66ab9d29978b9c0bb,2024-09-06_15h30.26.173,mdp,2024.2.1,Win32,59.88023952,66d7945b1baad48e845df3ce,,,,,,,,,,,,,,,,,,,,,172.7102,172.7103,172.7111,173.6598,0,0,left,0.4224,,173.6607,173.6614,,1,,173.6621,173.6625,,0,,1,173.6625,173.6625,173.6628,175.1593,0,23,23,23,1,0.4,0.6,0.8,0.2,1,0,,,,,,,,,,,,,,,,,,,,,,,,,,,,,,,,,,,,
,,65391353897d68dd53a067da,66daf5c66ab9d29978b9c0bb,2024-09-06_15h30.26.173,mdp,2024.2.1,Win32,59.88023952,66d7945b1baad48e845df3ce,,,,,,,,,,,,,,,,,,,,,175.1596,175.1596,175.1608,176.0756,0,0,left,0.3928,,176.0764,176.0771,,0,,176.0779,176.0782,,1,,1,176.0783,176.0783,176.0786,177.5756,0,24,24,24,1,0.6,0.4,0.2,0.8,1,0,,,,,,,,,,,,,,,,,,,,,,,,,,,,,,,,,,,,
,,65391353897d68dd53a067da,66daf5c66ab9d29978b9c0bb,2024-09-06_15h30.26.173,mdp,2024.2.1,Win32,59.88023952,66d7945b1baad48e845df3ce,,,,,,,,,,,,,,,,,,,,,177.5759,177.5759,177.577,178.4089,0,1,left,0.314,,178.4101,178.4111,,0,,178.4116,178.412,,0,,0,178.412,178.412,178.4123,179.9084,0,25,25,25,1,0.6,0.4,0.2,0.8,1,0,,,,,,,,,,,,,,,,,,,,,,,,,,,,,,,,,,,,
,,65391353897d68dd53a067da,66daf5c66ab9d29978b9c0bb,2024-09-06_15h30.26.173,mdp,2024.2.1,Win32,59.88023952,66d7945b1baad48e845df3ce,,,,,,,,,,,,,,,,,,,,,179.9089,179.9089,179.91,182.0251,0,0,left,1.5885,,182.0264,182.027,,1,,182.0278,182.0282,,0,,1,182.0282,182.0282,182.0285,183.5246,0,26,26,26,1,0.6,0.4,0.2,0.8,1,0,,,,,,,,,,,,,,,,,,,,,,,,,,,,,,,,,,,,
,,65391353897d68dd53a067da,66daf5c66ab9d29978b9c0bb,2024-09-06_15h30.26.173,mdp,2024.2.1,Win32,59.88023952,66d7945b1baad48e845df3ce,,,,,,,,,,,,,,,,,,,,,183.5249,183.525,183.5259,184.7082,0,1,left,0.6573,,184.709,184.7097,,1,,184.7106,184.711,,0,,0,184.711,184.711,184.7113,186.2077,0,27,27,27,1,0.6,0.4,0.2,0.8,1,0,,,,,,,,,,,,,,,,,,,,,,,,,,,,,,,,,,,,
,,65391353897d68dd53a067da,66daf5c66ab9d29978b9c0bb,2024-09-06_15h30.26.173,mdp,2024.2.1,Win32,59.88023952,66d7945b1baad48e845df3ce,,,,,,,,,,,,,,,,,,,,,186.2079,186.2079,186.209,187.1078,0,0,left,0.3755,,187.1088,187.1094,,0,,187.1102,187.1105,,1,,1,187.1105,187.1105,187.1109,188.6073,0,28,28,28,1,0.2,0.8,0.8,0.2,1,0,,,,,,,,,,,,,,,,,,,,,,,,,,,,,,,,,,,,
,,65391353897d68dd53a067da,66daf5c66ab9d29978b9c0bb,2024-09-06_15h30.26.173,mdp,2024.2.1,Win32,59.88023952,66d7945b1baad48e845df3ce,,,,,,,,,,,,,,,,,,,,,188.6076,188.6076,188.6083,189.8076,0,1,left,0.67,,189.8084,189.8088,,1,,189.8096,189.81,,1,,0,189.81,189.81,189.8103,191.3071,0,29,29,29,1,0.2,0.8,0.8,0.2,1,0,,,,,,,,,,,,,,,,,,,,,,,,,,,,,,,,,,,,
,,65391353897d68dd53a067da,66daf5c66ab9d29978b9c0bb,2024-09-06_15h30.26.173,mdp,2024.2.1,Win32,59.88023952,66d7945b1baad48e845df3ce,,,,,,,,,,,,,,,,,,,,,191.3076,191.3076,191.3086,192.3235,0,1,left,0.4841,,192.3247,192.3255,,1,,192.3263,192.3266,,1,,0,192.3266,192.3266,192.3269,193.8234,0,30,30,30,1,0.2,0.8,0.8,0.2,1,0,,,,,,,,,,,,,,,,,,,,,,,,,,,,,,,,,,,,
,,65391353897d68dd53a067da,66daf5c66ab9d29978b9c0bb,2024-09-06_15h30.26.173,mdp,2024.2.1,Win32,59.88023952,66d7945b1baad48e845df3ce,,,,,,,,,,,,,,,,,,,,,193.8236,193.8236,193.8247,194.9398,0,1,left,0.5925,,194.9406,194.9412,,1,,194.9418,194.9426,,1,,0,194.9427,194.9427,194.943,196.4395,0,31,31,31,1,0.2,0.8,0.8,0.2,1,0,,,,,,,,,,,,,,,,,,,,,,,,,,,,,,,,,,,,
,,65391353897d68dd53a067da,66daf5c66ab9d29978b9c0bb,2024-09-06_15h30.26.173,mdp,2024.2.1,Win32,59.88023952,66d7945b1baad48e845df3ce,,,,,,,,,,,,,,,,,,,,,196.4398,196.4398,196.4407,197.2727,1,0,right,0.3114,,197.2735,197.2742,,0,,197.2751,197.2753,,0,,1,197.2754,197.2754,197.2757,198.7726,0,32,32,32,1,0.2,0.8,0.8,0.2,1,0,,,,,,,,,,,,,,,,,,,,,,,,,,,,,,,,,,,,
,,65391353897d68dd53a067da,66daf5c66ab9d29978b9c0bb,2024-09-06_15h30.26.173,mdp,2024.2.1,Win32,59.88023952,66d7945b1baad48e845df3ce,,,,,,,,,,,,,,,,,,,,,198.773,198.773,198.7738,199.7898,1,0,right,0.4838,,199.7909,199.7914,,0,,199.792,199.7923,,0,,1,199.7923,199.7923,199.7926,201.2891,0,33,33,33,1,0.2,0.8,0.8,0.2,1,0,,,,,,,,,,,,,,,,,,,,,,,,,,,,,,,,,,,,
,,65391353897d68dd53a067da,66daf5c66ab9d29978b9c0bb,2024-09-06_15h30.26.173,mdp,2024.2.1,Win32,59.88023952,66d7945b1baad48e845df3ce,,,,,,,,,,,,,,,,,,,,,201.2896,201.2896,201.2908,202.4058,1,0,right,0.5897,,202.4068,202.4075,,1,,202.4081,202.4085,,1,,1,202.4085,202.4085,202.4088,203.9054,0,34,34,34,1,0.8,0.2,0.2,0.8,1,0,,,,,,,,,,,,,,,,,,,,,,,,,,,,,,,,,,,,
,,65391353897d68dd53a067da,66daf5c66ab9d29978b9c0bb,2024-09-06_15h30.26.173,mdp,2024.2.1,Win32,59.88023952,66d7945b1baad48e845df3ce,,,,,,,,,,,,,,,,,,,,,203.9058,203.9058,203.9068,205.1052,1,1,right,0.668,,205.1063,205.1068,,1,,205.1075,205.1079,,1,,0,205.108,205.108,205.1083,206.6049,0,35,35,35,1,0.8,0.2,0.2,0.8,1,0,,,,,,,,,,,,,,,,,,,,,,,,,,,,,,,,,,,,
,,65391353897d68dd53a067da,66daf5c66ab9d29978b9c0bb,2024-09-06_15h30.26.173,mdp,2024.2.1,Win32,59.88023952,66d7945b1baad48e845df3ce,,,,,,,,,,,,,,,,,,,,,206.6053,206.6053,206.6062,208.3718,1,1,right,1.2397,,208.3728,208.3733,,0,,208.3739,208.3744,,1,,0,208.3744,208.3744,208.3748,209.8716,0,36,36,36,1,0.8,0.2,0.2,0.8,1,0,,,,,,,,,,,,,,,,,,,,,,,,,,,,,,,,,,,,
,,65391353897d68dd53a067da,66daf5c66ab9d29978b9c0bb,2024-09-06_15h30.26.173,mdp,2024.2.1,Win32,59.88023952,66d7945b1baad48e845df3ce,,,,,,,,,,,,,,,,,,,,,209.872,209.872,209.873,210.8377,0,1,left,0.4409,,210.8385,210.839,,0,,210.8397,210.8401,,1,,0,210.8401,210.8401,210.8404,212.3379,0,37,37,37,1,0.2,0.8,0.8,0.2,1,0,,,,,,,,,,,,,,,,,,,,,,,,,,,,,,,,,,,,
,,65391353897d68dd53a067da,66daf5c66ab9d29978b9c0bb,2024-09-06_15h30.26.173,mdp,2024.2.1,Win32,59.88023952,66d7945b1baad48e845df3ce,,,,,,,,,,,,,,,,,,,,,212.3383,212.3383,212.3391,213.221,0,1,left,0.3508,,213.222,213.2225,,1,,213.2232,213.2236,,1,,0,213.2236,213.2236,213.2239,214.7206,0,38,38,38,1,0.2,0.8,0.8,0.2,1,0,,,,,,,,,,,,,,,,,,,,,,,,,,,,,,,,,,,,
,,65391353897d68dd53a067da,66daf5c66ab9d29978b9c0bb,2024-09-06_15h30.26.173,mdp,2024.2.1,Win32,59.88023952,66d7945b1baad48e845df3ce,,,,,,,,,,,,,,,,,,,,,214.7209,214.7209,214.722,215.7208,0,1,left,0.4677,,215.7218,215.7224,,1,,215.7234,215.7238,,1,,0,215.7238,215.7238,215.7242,217.2203,0,39,39,39,1,0.2,0.8,0.8,0.2,1,0,,,,,,,,,,,,,,,,,,,,,,,,,,,,,,,,,,,,
,,65391353897d68dd53a067da,66daf5c66ab9d29978b9c0bb,2024-09-06_15h30.26.173,mdp,2024.2.1,Win32,59.88023952,66d7945b1baad48e845df3ce,,,,,,,,,,,,,,,,,,,,,217.2207,217.2207,217.2236,218.2872,0,1,left,0.5328,,218.2882,218.2888,,1,,218.2898,218.2905,,1,,0,218.2905,218.2905,218.291,219.7866,0,40,40,40,1,0.2,0.8,0.8,0.2,1,0,,,,,,,,,,,,,,,,,,,,,,,,,,,,,,,,,,,,
,,65391353897d68dd53a067da,66daf5c66ab9d29978b9c0bb,2024-09-06_15h30.26.173,mdp,2024.2.1,Win32,59.88023952,66d7945b1baad48e845df3ce,,,,,,,,,,,,,,,,,,,,,219.787,219.787,219.7878,221.0865,0,1,left,0.7662,,221.0874,221.0881,,0,,221.0888,221.0891,,1,,0,221.0892,221.0892,221.0895,222.5864,0,41,41,41,1,0.2,0.8,0.8,0.2,1,0,,,,,,,,,,,,,,,,,,,,,,,,,,,,,,,,,,,,
,,65391353897d68dd53a067da,66daf5c66ab9d29978b9c0bb,2024-09-06_15h30.26.173,mdp,2024.2.1,Win32,59.88023952,66d7945b1baad48e845df3ce,,,,,,,,,,,,,,,,,,,,,222.5867,222.5868,222.5877,225.1193,1,1,right,2.0019,,225.1204,225.1213,,0,,225.1221,225.1225,,0,,0,225.1225,225.1225,225.1229,226.6192,0,42,42,42,1,0.2,0.8,0.8,0.2,1,0,,,,,,,,,,,,,,,,,,,,,,,,,,,,,,,,,,,,
,,65391353897d68dd53a067da,66daf5c66ab9d29978b9c0bb,2024-09-06_15h30.26.173,mdp,2024.2.1,Win32,59.88023952,66d7945b1baad48e845df3ce,,,,,,,,,,,,,,,,,,,,,226.6195,226.6196,226.6202,227.9356,0,0,left,0.7839,,227.9365,227.9371,,0,,227.9379,227.9382,,0,,1,227.9382,227.9382,227.9386,229.4358,0,43,43,43,1,0.8,0.2,0.4,0.6,1,0,,,,,,,,,,,,,,,,,,,,,,,,,,,,,,,,,,,,
,,65391353897d68dd53a067da,66daf5c66ab9d29978b9c0bb,2024-09-06_15h30.26.173,mdp,2024.2.1,Win32,59.88023952,66d7945b1baad48e845df3ce,,,,,,,,,,,,,,,,,,,,,229.4361,229.4361,229.437,230.6021,0,0,left,0.6363,,230.6028,230.6037,,0,,230.6045,230.6048,,0,,1,230.6049,230.6049,230.6051,232.1021,0,44,44,44,1,0.8,0.2,0.4,0.6,1,0,,,,,,,,,,,,,,,,,,,,,,,,,,,,,,,,,,,,
,,65391353897d68dd53a067da,66daf5c66ab9d29978b9c0bb,2024-09-06_15h30.26.173,mdp,2024.2.1,Win32,59.88023952,66d7945b1baad48e845df3ce,,,,,,,,,,,,,,,,,,,,,232.1024,232.1025,232.1037,233.5848,0,1,left,0.9606,,233.5856,233.5864,,0,,233.5873,233.5879,,0,,0,233.5879,233.5879,233.5883,235.0845,0,45,45,45,1,0.6,0.4,0.8,0.2,1,0,,,,,,,,,,,,,,,,,,,,,,,,,,,,,,,,,,,,
,,65391353897d68dd53a067da,66daf5c66ab9d29978b9c0bb,2024-09-06_15h30.26.173,mdp,2024.2.1,Win32,59.88023952,66d7945b1baad48e845df3ce,,,,,,,,,,,,,,,,,,,,,235.085,235.085,235.0861,235.985,1,1,right,0.3718,,235.9859,235.9867,,0,,235.9876,235.988,,0,,0,235.988,235.988,235.9884,237.4852,0,46,46,46,1,0.6,0.4,0.8,0.2,1,0,,,,,,,,,,,,,,,,,,,,,,,,,,,,,,,,,,,,
,,65391353897d68dd53a067da,66daf5c66ab9d29978b9c0bb,2024-09-06_15h30.26.173,mdp,2024.2.1,Win32,59.88023952,66d7945b1baad48e845df3ce,,,,,,,,,,,,,,,,,,,,,237.4857,237.4857,237.4866,238.6183,1,1,right,0.612,,238.6193,238.6198,,0,,238.6206,238.6209,,1,,0,238.6209,238.6209,238.6213,240.1173,0,47,47,47,1,0.6,0.4,0.8,0.2,1,0,,,,,,,,,,,,,,,,,,,,,,,,,,,,,,,,,,,,
,,65391353897d68dd53a067da,66daf5c66ab9d29978b9c0bb,2024-09-06_15h30.26.173,mdp,2024.2.1,Win32,59.88023952,66d7945b1baad48e845df3ce,,,,,,,,,,,,,,,,,,,,,240.1176,240.1176,240.1188,241.367,0,1,left,0.7168,,241.3679,241.3686,,1,,241.3696,241.37,,1,,0,241.37,241.37,241.3703,242.8672,0,48,48,48,1,0.6,0.4,0.8,0.2,1,0,,,,,,,,,,,,,,,,,,,,,,,,,,,,,,,,,,,,
,,65391353897d68dd53a067da,66daf5c66ab9d29978b9c0bb,2024-09-06_15h30.26.173,mdp,2024.2.1,Win32,59.88023952,66d7945b1baad48e845df3ce,,,,,,,,,,,,,,,,,,,,,242.8676,242.8676,242.8686,244.8499,0,0,left,1.4636,,244.8506,244.8514,,1,,244.8523,244.8528,,0,,1,244.8529,244.8529,244.8532,246.3498,0,49,49,49,1,0.6,0.4,0.8,0.2,1,0,,,,,,,,,,,,,,,,,,,,,,,,,,,,,,,,,,,,
,,65391353897d68dd53a067da,66daf5c66ab9d29978b9c0bb,2024-09-06_15h30.26.173,mdp,2024.2.1,Win32,59.88023952,66d7945b1baad48e845df3ce,,,,,,,,,,,,,,,,,,,,,,,,,,,,,,,,,,,,,,,,,,,,,,,,,,,,,,,,246.3505,304.8601,0,0,0,1,1,imgs/rabbit.png,imgs/cat.png,imgs/bear.png,imgs/goat.png,imgs/dog.png,,,,,,,,,,,,,,,,,,,,,,,,
,,65391353897d68dd53a067da,66daf5c66ab9d29978b9c0bb,2024-09-06_15h30.26.173,mdp,2024.2.1,Win32,59.88023952,66d7945b1baad48e845df3ce,,,,,,,,,,,,,,2,seqs/st2seq44.csv,304.8677,309.3585,space,3.9664,,309.3689,309.3689,309.3695,312.0914,0,1,left,2.1967,,312.0926,314.1411,0,1,left,314.1425,314.1433,,1,,0,314.1434,314.1434,314.1441,315.641,0,0,0,0,1,0.8,0.2,0.8,0.2,,,,,,,,,,,,,,,1.5288,,0.8,0.2,0.8,0.2,0.6,0.4,0.6,0.4,1,0,,,,,,,,,,,,
,,65391353897d68dd53a067da,66daf5c66ab9d29978b9c0bb,2024-09-06_15h30.26.173,mdp,2024.2.1,Win32,59.88023952,66d7945b1baad48e845df3ce,,,,,,,,,,,,,,,,,,,,,315.6415,315.6415,315.6425,316.8408,0,1,left,0.6772,,316.842,319.5404,0,1,left,319.5479,319.5483,,1,,0,319.5484,319.5484,319.5488,321.0405,0,1,1,1,1,0.8,0.2,0.8,0.2,,,,,,,,,,,,,,,2.1714,,0.8,0.2,0.8,0.2,0.6,0.4,0.6,0.4,1,0,,,,,,,,,,,,
,,65391353897d68dd53a067da,66daf5c66ab9d29978b9c0bb,2024-09-06_15h30.26.173,mdp,2024.2.1,Win32,59.88023952,66d7945b1baad48e845df3ce,,,,,,,,,,,,,,,,,,,,,321.0411,321.0412,321.0421,322.9564,1,0,right,1.3923,,322.9575,324.5564,1,0,right,324.5574,324.5581,,0,,1,324.5582,324.5582,324.5589,326.0565,0,2,2,2,1,0.8,0.2,0.8,0.2,,,,,,,,,,,,,,,1.0738,,0.8,0.2,0.8,0.2,0.6,0.4,0.6,0.4,1,0,,,,,,,,,,,,
,,65391353897d68dd53a067da,66daf5c66ab9d29978b9c0bb,2024-09-06_15h30.26.173,mdp,2024.2.1,Win32,59.88023952,66d7945b1baad48e845df3ce,,,,,,,,,,,,,,,,,,,,,326.0568,326.0568,326.0578,327.9393,0,0,left,1.3512,,327.9406,328.8557,1,0,right,328.8568,328.8576,,0,,1,328.8577,328.8577,328.8586,330.3556,0,3,3,3,1,0.8,0.2,0.8,0.2,,,,,,,,,,,,,,,0.3929,,0.8,0.2,0.8,0.2,0.6,0.4,0.6,0.4,1,0,,,,,,,,,,,,
,,65391353897d68dd53a067da,66daf5c66ab9d29978b9c0bb,2024-09-06_15h30.26.173,mdp,2024.2.1,Win32,59.88023952,66d7945b1baad48e845df3ce,,,,,,,,,,,,,,,,,,,,,330.356,330.3561,330.3571,332.0052,0,1,left,1.1279,,332.0067,332.8385,1,0,right,332.8393,332.84,,1,,1,332.84,332.84,332.8407,334.3384,0,4,4,4,1,0.8,0.2,0.8,0.2,,,,,,,,,,,,,,,0.308,,0.8,0.2,0.8,0.2,0.6,0.4,0.6,0.4,1,0,,,,,,,,,,,,
,,65391353897d68dd53a067da,66daf5c66ab9d29978b9c0bb,2024-09-06_15h30.26.173,mdp,2024.2.1,Win32,59.88023952,66d7945b1baad48e845df3ce,,,,,,,,,,,,,,,,,,,,,334.3389,334.3389,334.3407,335.605,1,0,right,0.7342,,335.6063,336.4216,0,1,left,336.423,336.4242,,1,,0,336.4244,336.4244,336.4252,337.9211,0,5,5,5,1,0.8,0.2,0.8,0.2,,,,,,,,,,,,,,,0.288,,0.8,0.2,0.8,0.2,0.6,0.4,0.6,0.4,1,0,,,,,,,,,,,,
,,65391353897d68dd53a067da,66daf5c66ab9d29978b9c0bb,2024-09-06_15h30.26.173,mdp,2024.2.1,Win32,59.88023952,66d7945b1baad48e845df3ce,,,,,,,,,,,,,,,,,,,,,337.9214,337.9214,337.9225,338.821,1,1,right,0.3674,,338.8223,339.7876,0,0,left,339.7884,339.7891,,0,,1,339.7892,339.7892,339.7899,341.2879,0,6,6,6,1,0.8,0.2,0.8,0.2,,,,,,,,,,,,,,,0.4461,,0.6,0.4,0.2,0.8,0.6,0.4,0.6,0.4,1,0,,,,,,,,,,,,
,,65391353897d68dd53a067da,66daf5c66ab9d29978b9c0bb,2024-09-06_15h30.26.173,mdp,2024.2.1,Win32,59.88023952,66d7945b1baad48e845df3ce,,,,,,,,,,,,,,,,,,,,,341.2884,341.2884,341.2895,342.7878,1,0,right,0.9785,,342.7887,343.6206,1,1,right,343.6221,343.6229,,1,,0,343.6231,343.6231,343.6237,345.1202,0,7,7,7,1,0.8,0.2,0.8,0.2,,,,,,,,,,,,,,,0.2987,,0.6,0.4,0.2,0.8,0.6,0.4,0.6,0.4,1,0,,,,,,,,,,,,
,,65391353897d68dd53a067da,66daf5c66ab9d29978b9c0bb,2024-09-06_15h30.26.173,mdp,2024.2.1,Win32,59.88023952,66d7945b1baad48e845df3ce,,,,,,,,,,,,,,,,,,,,,345.1207,345.1207,345.1223,346.1042,0,1,left,0.4578,,346.1058,346.8867,1,1,right,346.8876,346.8884,,0,,0,346.8884,346.8884,346.8891,348.3865,0,8,8,8,1,0.8,0.2,0.8,0.2,,,,,,,,,,,,,,,0.2543,,0.8,0.2,0.6,0.4,0.6,0.4,0.6,0.4,1,0,,,,,,,,,,,,
,,65391353897d68dd53a067da,66daf5c66ab9d29978b9c0bb,2024-09-06_15h30.26.173,mdp,2024.2.1,Win32,59.88023952,66d7945b1baad48e845df3ce,,,,,,,,,,,,,,,,,,,,,348.3868,348.3868,348.388,349.7863,0,1,left,0.8706,,349.787,350.6028,1,1,right,350.6041,350.6046,,0,,0,350.6046,350.6046,350.6055,352.1026,0,9,9,9,1,0.8,0.2,0.8,0.2,,,,,,,,,,,,,,,0.2957,,0.8,0.2,0.6,0.4,0.6,0.4,0.6,0.4,1,0,,,,,,,,,,,,
,,65391353897d68dd53a067da,66daf5c66ab9d29978b9c0bb,2024-09-06_15h30.26.173,mdp,2024.2.1,Win32,59.88023952,66d7945b1baad48e845df3ce,,,,,,,,,,,,,,,,,,,,,352.1029,352.1029,352.1038,353.0361,1,0,right,0.4003,,353.0372,354.1357,0,0,left,354.137,354.1375,,0,,1,354.1375,354.1376,354.1384,355.6355,0,10,10,10,1,0.8,0.2,0.8,0.2,,,,,,,,,,,,,,,0.5699,,0.8,0.2,0.6,0.4,0.2,0.8,0.4,0.6,1,0,,,,,,,,,,,,
,,65391353897d68dd53a067da,66daf5c66ab9d29978b9c0bb,2024-09-06_15h30.26.173,mdp,2024.2.1,Win32,59.88023952,66d7945b1baad48e845df3ce,,,,,,,,,,,,,,,,,,,,,355.636,355.636,355.6372,357.4688,1,0,right,1.305,,357.47,358.2519,0,0,left,358.2529,358.2537,,0,,1,358.2537,358.2537,358.2545,359.7522,0,11,11,11,1,0.8,0.2,0.8,0.2,,,,,,,,,,,,,,,0.2594,,0.8,0.2,0.6,0.4,0.2,0.8,0.4,0.6,1,0,,,,,,,,,,,,
,,65391353897d68dd53a067da,66daf5c66ab9d29978b9c0bb,2024-09-06_15h30.26.173,mdp,2024.2.1,Win32,59.88023952,66d7945b1baad48e845df3ce,,,,,,,,,,,,,,,,,,,,,359.7529,359.753,359.7542,360.6514,1,1,right,0.3799,,360.6524,361.4348,0,1,left,361.4358,361.4364,,1,,0,361.4365,361.4365,361.437,362.9345,0,12,12,12,1,0.6,0.4,0.2,0.8,,,,,,,,,,,,,,,0.2697,,0.8,0.2,0.6,0.4,0.2,0.8,0.4,0.6,1,0,,,,,,,,,,,,
,,65391353897d68dd53a067da,66daf5c66ab9d29978b9c0bb,2024-09-06_15h30.26.173,mdp,2024.2.1,Win32,59.88023952,66d7945b1baad48e845df3ce,,,,,,,,,,,,,,,,,,,,,362.935,362.935,362.9363,364.4014,0,0,left,0.9431,,364.4025,365.1844,0,0,left,365.1855,365.1867,,0,,1,365.1867,365.1867,365.1875,366.6843,0,13,13,13,1,0.8,0.2,0.8,0.2,,,,,,,,,,,,,,,0.2599,,0.8,0.2,0.6,0.4,0.2,0.8,0.4,0.6,1,0,,,,,,,,,,,,
,,65391353897d68dd53a067da,66daf5c66ab9d29978b9c0bb,2024-09-06_15h30.26.173,mdp,2024.2.1,Win32,59.88023952,66d7945b1baad48e845df3ce,,,,,,,,,,,,,,,,,,,,,366.6845,366.6845,366.6855,367.5507,0,0,left,0.3356,,367.5517,368.3507,0,0,left,368.352,368.353,,0,,1,368.3531,368.3531,368.3538,369.8506,0,14,14,14,1,0.8,0.2,0.8,0.2,,,,,,,,,,,,,,,0.283,,0.8,0.2,0.6,0.4,0.2,0.8,0.4,0.6,1,0,,,,,,,,,,,,
,,65391353897d68dd53a067da,66daf5c66ab9d29978b9c0bb,2024-09-06_15h30.26.173,mdp,2024.2.1,Win32,59.88023952,66d7945b1baad48e845df3ce,,,,,,,,,,,,,,,,,,,,,369.8508,369.8509,369.8517,370.7508,0,0,left,0.372,,370.752,371.5504,0,0,left,371.5516,371.5525,,0,,1,371.5526,371.5526,371.5532,373.05,0,15,15,15,1,0.8,0.2,0.8,0.2,,,,,,,,,,,,,,,0.2735,,0.8,0.2,0.6,0.4,0.2,0.8,0.4,0.6,1,0,,,,,,,,,,,,
,,65391353897d68dd53a067da,66daf5c66ab9d29978b9c0bb,2024-09-06_15h30.26.173,mdp,2024.2.1,Win32,59.88023952,66d7945b1baad48e845df3ce,,,,,,,,,,,,,,,,,,,,,373.0506,373.0507,373.0517,373.7666,0,1,left,0.1851,,373.7677,374.5498,0,1,left,374.5509,374.5516,,1,,0,374.5516,374.5516,374.5523,376.0498,0,16,16,16,1,0.8,0.2,0.8,0.2,,,,,,,,,,,,,,,0.2723,,0.8,0.2,0.6,0.4,0.2,0.8,0.4,0.6,1,0,,,,,,,,,,,,
,,65391353897d68dd53a067da,66daf5c66ab9d29978b9c0bb,2024-09-06_15h30.26.173,mdp,2024.2.1,Win32,59.88023952,66d7945b1baad48e845df3ce,,,,,,,,,,,,,,,,,,,,,376.0505,376.0506,376.0514,376.9494,1,0,right,0.3726,,376.9504,377.716,0,0,left,377.7171,377.7178,,0,,1,377.7179,377.7179,377.7187,379.2164,0,17,17,17,1,0.8,0.2,0.8,0.2,,,,,,,,,,,,,,,0.2313,,0.8,0.2,0.6,0.4,0.2,0.8,0.4,0.6,1,0,,,,,,,,,,,,
,,65391353897d68dd53a067da,66daf5c66ab9d29978b9c0bb,2024-09-06_15h30.26.173,mdp,2024.2.1,Win32,59.88023952,66d7945b1baad48e845df3ce,,,,,,,,,,,,,,,,,,,,,379.2168,379.2168,379.2177,380.1991,1,0,right,0.453,,380.2005,381.0155,0,0,left,381.0168,381.0181,,0,,1,381.0181,381.0181,381.0188,382.5153,0,18,18,18,1,0.8,0.2,0.8,0.2,,,,,,,,,,,,,,,0.2907,,0.8,0.2,0.6,0.4,0.2,0.8,0.4,0.6,1,0,,,,,,,,,,,,
,,65391353897d68dd53a067da,66daf5c66ab9d29978b9c0bb,2024-09-06_15h30.26.173,mdp,2024.2.1,Win32,59.88023952,66d7945b1baad48e845df3ce,,,,,,,,,,,,,,,,,,,,,382.5158,382.5158,382.5171,383.3654,1,0,right,0.3303,,383.3667,384.1818,0,0,left,384.1829,384.1836,,0,,1,384.1837,384.1837,384.1844,385.6819,0,19,19,19,1,0.8,0.2,0.8,0.2,,,,,,,,,,,,,,,0.285,,0.8,0.2,0.6,0.4,0.2,0.8,0.4,0.6,1,0,,,,,,,,,,,,
,,65391353897d68dd53a067da,66daf5c66ab9d29978b9c0bb,2024-09-06_15h30.26.173,mdp,2024.2.1,Win32,59.88023952,66d7945b1baad48e845df3ce,,,,,,,,,,,,,,,,,,,,,385.6823,385.6823,385.6834,386.5317,1,0,right,0.3234,,386.533,387.3481,0,0,left,387.3491,387.35,,0,,1,387.3501,387.3501,387.3509,388.8478,0,20,20,20,1,0.8,0.2,0.8,0.2,,,,,,,,,,,,,,,0.2917,,0.8,0.2,0.6,0.4,0.2,0.8,0.4,0.6,1,0,,,,,,,,,,,,
,,65391353897d68dd53a067da,66daf5c66ab9d29978b9c0bb,2024-09-06_15h30.26.173,mdp,2024.2.1,Win32,59.88023952,66d7945b1baad48e845df3ce,,,,,,,,,,,,,,,,,,,,,388.8483,388.8483,388.8494,390.1812,1,0,right,0.8099,,390.1823,390.9809,0,0,left,390.9822,390.9835,,0,,1,390.9835,390.9836,390.9843,392.4807,0,21,21,21,1,0.8,0.2,0.8,0.2,,,,,,,,,,,,,,,0.267,,0.8,0.2,0.6,0.4,0.4,0.6,0.6,0.4,1,0,,,,,,,,,,,,
,,65391353897d68dd53a067da,66daf5c66ab9d29978b9c0bb,2024-09-06_15h30.26.173,mdp,2024.2.1,Win32,59.88023952,66d7945b1baad48e845df3ce,,,,,,,,,,,,,,,,,,,,,392.481,392.4811,392.4822,393.4305,1,0,right,0.4179,,393.4315,394.4473,0,0,left,394.4485,394.4496,,0,,1,394.4496,394.4496,394.4504,395.9473,0,22,22,22,1,0.8,0.2,0.8,0.2,,,,,,,,,,,,,,,0.4927,,0.8,0.2,0.6,0.4,0.4,0.6,0.6,0.4,1,0,,,,,,,,,,,,
,,65391353897d68dd53a067da,66daf5c66ab9d29978b9c0bb,2024-09-06_15h30.26.173,mdp,2024.2.1,Win32,59.88023952,66d7945b1baad48e845df3ce,,,,,,,,,,,,,,,,,,,,,395.9478,395.9478,395.9487,396.8803,1,0,right,0.4106,,396.8813,397.68,0,0,left,397.681,397.6817,,0,,1,397.6817,397.6817,397.6825,399.1798,0,23,23,23,1,0.8,0.2,0.8,0.2,,,,,,,,,,,,,,,0.2688,,0.8,0.2,0.6,0.4,0.4,0.6,0.6,0.4,1,0,,,,,,,,,,,,
,,65391353897d68dd53a067da,66daf5c66ab9d29978b9c0bb,2024-09-06_15h30.26.173,mdp,2024.2.1,Win32,59.88023952,66d7945b1baad48e845df3ce,,,,,,,,,,,,,,,,,,,,,399.1802,399.1802,399.1814,400.1465,1,0,right,0.4437,,400.1477,400.7297,0,1,left,400.7305,400.7312,,1,,0,400.7313,400.7313,400.7321,402.2294,0,24,24,24,1,0.8,0.2,0.8,0.2,,,,,,,,,,,,,,,0.063,,0.2,0.8,0.8,0.2,0.4,0.6,0.6,0.4,1,0,,,,,,,,,,,,
,,65391353897d68dd53a067da,66daf5c66ab9d29978b9c0bb,2024-09-06_15h30.26.173,mdp,2024.2.1,Win32,59.88023952,66d7945b1baad48e845df3ce,,,,,,,,,,,,,,,,,,,,,402.2299,402.2299,402.231,403.2796,0,0,left,0.5214,,403.2812,403.9959,0,1,left,403.9973,403.9982,,1,,0,403.9982,403.9982,403.9988,405.4957,0,25,25,25,1,0.8,0.2,0.8,0.2,,,,,,,,,,,,,,,0.1944,,0.2,0.8,0.8,0.2,0.4,0.6,0.6,0.4,1,0,,,,,,,,,,,,
,,65391353897d68dd53a067da,66daf5c66ab9d29978b9c0bb,2024-09-06_15h30.26.173,mdp,2024.2.1,Win32,59.88023952,66d7945b1baad48e845df3ce,,,,,,,,,,,,,,,,,,,,,405.4961,405.4961,405.4969,406.3462,0,0,left,0.3198,,406.3471,407.1121,1,0,right,407.1129,407.1143,,1,,1,407.1144,407.1144,407.115,408.612,0,26,26,26,1,0.8,0.2,0.8,0.2,,,,,,,,,,,,,,,0.2462,,0.2,0.8,0.8,0.2,0.4,0.6,0.6,0.4,1,0,,,,,,,,,,,,
,,65391353897d68dd53a067da,66daf5c66ab9d29978b9c0bb,2024-09-06_15h30.26.173,mdp,2024.2.1,Win32,59.88023952,66d7945b1baad48e845df3ce,,,,,,,,,,,,,,,,,,,,,408.6124,408.6125,408.6136,409.4954,0,0,left,0.3582,,409.4965,410.2451,1,0,right,410.246,410.2467,,0,,1,410.2467,410.2467,410.2475,411.7449,0,27,27,27,1,0.8,0.2,0.8,0.2,,,,,,,,,,,,,,,0.2178,,0.2,0.8,0.8,0.2,0.4,0.6,0.6,0.4,1,0,,,,,,,,,,,,
,,65391353897d68dd53a067da,66daf5c66ab9d29978b9c0bb,2024-09-06_15h30.26.173,mdp,2024.2.1,Win32,59.88023952,66d7945b1baad48e845df3ce,,,,,,,,,,,,,,,,,,,,,411.7452,411.7452,411.7465,412.6118,0,1,left,0.3429,,412.6129,413.4281,1,0,right,413.4297,413.4303,,0,,1,413.4305,413.4305,413.4311,414.9278,0,28,28,28,1,0.8,0.2,0.8,0.2,,,,,,,,,,,,,,,0.285,,0.2,0.8,0.8,0.2,0.4,0.6,0.6,0.4,1,0,,,,,,,,,,,,
,,65391353897d68dd53a067da,66daf5c66ab9d29978b9c0bb,2024-09-06_15h30.26.173,mdp,2024.2.1,Win32,59.88023952,66d7945b1baad48e845df3ce,,,,,,,,,,,,,,,,,,,,,414.9282,414.9282,414.9293,415.5279,0,0,left,0.0702,,415.5292,416.1442,1,0,right,416.1453,416.1462,,0,,1,416.1462,416.1462,416.147,417.6442,0,29,29,29,1,0.8,0.2,0.8,0.2,,,,,,,,,,,,,,,0.1083,,0.2,0.8,0.8,0.2,0.6,0.4,0.8,0.2,1,0,,,,,,,,,,,,
,,65391353897d68dd53a067da,66daf5c66ab9d29978b9c0bb,2024-09-06_15h30.26.173,mdp,2024.2.1,Win32,59.88023952,66d7945b1baad48e845df3ce,,,,,,,,,,,,,,,,,,,,,417.6445,417.6446,417.6457,418.3613,0,1,left,0.188,,418.3623,419.0105,1,0,right,419.0115,419.0122,,0,,1,419.0123,419.0123,419.0132,420.5107,0,30,30,30,1,0.8,0.2,0.8,0.2,,,,,,,,,,,,,,,0.1264,,0.2,0.8,0.8,0.2,0.6,0.4,0.8,0.2,1,0,,,,,,,,,,,,
,,65391353897d68dd53a067da,66daf5c66ab9d29978b9c0bb,2024-09-06_15h30.26.173,mdp,2024.2.1,Win32,59.88023952,66d7945b1baad48e845df3ce,,,,,,,,,,,,,,,,,,,,,420.5113,420.5113,420.5125,421.2938,0,0,left,0.2544,,421.2947,421.8936,1,0,right,421.8949,421.8957,,0,,1,421.8957,421.8957,421.8965,423.3938,0,31,31,31,1,0.8,0.2,0.8,0.2,,,,,,,,,,,,,,,0.0634,,0.2,0.8,0.8,0.2,0.6,0.4,0.8,0.2,1,0,,,,,,,,,,,,
,,65391353897d68dd53a067da,66daf5c66ab9d29978b9c0bb,2024-09-06_15h30.26.173,mdp,2024.2.1,Win32,59.88023952,66d7945b1baad48e845df3ce,,,,,,,,,,,,,,,,,,,,,423.3941,423.3942,423.3953,424.2102,0,0,left,0.2903,,424.2115,425.5932,1,0,right,425.5944,425.5952,,0,,1,425.5953,425.5953,425.5958,427.0928,0,32,32,32,1,0.8,0.2,0.8,0.2,,,,,,,,,,,,,,,0.879,,0.2,0.8,0.8,0.2,0.2,0.8,0.2,0.8,1,0,,,,,,,,,,,,
,,65391353897d68dd53a067da,66daf5c66ab9d29978b9c0bb,2024-09-06_15h30.26.173,mdp,2024.2.1,Win32,59.88023952,66d7945b1baad48e845df3ce,,,,,,,,,,,,,,,,,,,,,427.0932,427.0932,427.0941,427.9433,0,0,left,0.3312,,427.9446,428.8095,1,0,right,428.8107,428.8113,,0,,1,428.8114,428.8114,428.8123,430.3093,0,33,33,33,1,0.8,0.2,0.8,0.2,,,,,,,,,,,,,,,0.3451,,0.2,0.8,0.8,0.2,0.6,0.4,0.4,0.6,1,0,,,,,,,,,,,,
,,65391353897d68dd53a067da,66daf5c66ab9d29978b9c0bb,2024-09-06_15h30.26.173,mdp,2024.2.1,Win32,59.88023952,66d7945b1baad48e845df3ce,,,,,,,,,,,,,,,,,,,,,430.3096,430.3097,430.3109,431.6589,0,0,left,0.8193,,431.6602,432.4755,1,1,right,432.4765,432.4774,,0,,0,432.4774,432.4774,432.4782,433.9755,0,34,34,34,1,0.8,0.2,0.8,0.2,,,,,,,,,,,,,,,0.2933,,0.2,0.8,0.8,0.2,0.6,0.4,0.4,0.6,1,0,,,,,,,,,,,,
,,65391353897d68dd53a067da,66daf5c66ab9d29978b9c0bb,2024-09-06_15h30.26.173,mdp,2024.2.1,Win32,59.88023952,66d7945b1baad48e845df3ce,,,,,,,,,,,,,,,,,,,,,433.9759,433.976,433.9768,434.8089,1,0,right,0.2997,,434.81,435.5919,1,0,right,435.5931,435.5937,,0,,1,435.5939,435.5939,435.5946,437.0925,0,35,35,35,1,0.8,0.2,0.8,0.2,,,,,,,,,,,,,,,0.263,,0.2,0.8,0.8,0.2,0.6,0.4,0.4,0.6,1,0,,,,,,,,,,,,
,,65391353897d68dd53a067da,66daf5c66ab9d29978b9c0bb,2024-09-06_15h30.26.173,mdp,2024.2.1,Win32,59.88023952,66d7945b1baad48e845df3ce,,,,,,,,,,,,,,,,,,,,,437.0929,437.0929,437.0936,437.9248,1,0,right,0.3005,,437.9259,438.7081,1,0,right,438.7089,438.7095,,0,,1,438.7095,438.7095,438.71,440.2082,0,36,36,36,1,0.8,0.2,0.8,0.2,,,,,,,,,,,,,,,0.2632,,0.6,0.4,0.6,0.4,0.6,0.4,0.4,0.6,1,0,,,,,,,,,,,,
,,65391353897d68dd53a067da,66daf5c66ab9d29978b9c0bb,2024-09-06_15h30.26.173,mdp,2024.2.1,Win32,59.88023952,66d7945b1baad48e845df3ce,,,,,,,,,,,,,,,,,,,,,440.2085,440.2085,440.2093,441.1077,1,0,right,0.3798,,441.1087,441.8577,1,0,right,441.8589,441.8598,,0,,1,441.86,441.86,441.8608,443.3576,0,37,37,37,1,0.8,0.2,0.8,0.2,,,,,,,,,,,,,,,0.2182,,0.6,0.4,0.6,0.4,0.6,0.4,0.4,0.6,1,0,,,,,,,,,,,,
,,65391353897d68dd53a067da,66daf5c66ab9d29978b9c0bb,2024-09-06_15h30.26.173,mdp,2024.2.1,Win32,59.88023952,66d7945b1baad48e845df3ce,,,,,,,,,,,,,,,,,,,,,443.358,443.358,443.3595,444.3407,1,0,right,0.4613,,444.3417,445.0908,1,0,right,445.0919,445.0924,,1,,1,445.0924,445.0924,445.0932,446.5905,0,38,38,38,1,0.8,0.2,0.8,0.2,,,,,,,,,,,,,,,0.2244,,0.6,0.4,0.6,0.4,0.6,0.4,0.4,0.6,1,0,,,,,,,,,,,,
,,65391353897d68dd53a067da,66daf5c66ab9d29978b9c0bb,2024-09-06_15h30.26.173,mdp,2024.2.1,Win32,59.88023952,66d7945b1baad48e845df3ce,,,,,,,,,,,,,,,,,,,,,446.591,446.591,446.5922,447.3742,1,0,right,0.2518,,447.3755,447.957,1,1,right,447.9582,447.9594,,1,,0,447.9596,447.9596,447.9604,449.4569,0,39,39,39,1,0.8,0.2,0.8,0.2,,,,,,,,,,,,,,,0.0498,,0.8,0.2,0.2,0.8,0.6,0.4,0.4,0.6,1,0,,,,,,,,,,,,
,,65391353897d68dd53a067da,66daf5c66ab9d29978b9c0bb,2024-09-06_15h30.26.173,mdp,2024.2.1,Win32,59.88023952,66d7945b1baad48e845df3ce,,,,,,,,,,,,,,,,,,,,,449.4575,449.4575,449.4585,450.3238,1,0,right,0.3412,,450.3249,450.9733,0,1,left,450.9746,450.9753,,1,,0,450.9754,450.9755,450.9763,452.4731,0,40,40,40,1,0.8,0.2,0.8,0.2,,,,,,,,,,,,,,,0.1189,,0.2,0.8,0.6,0.4,0.6,0.4,0.4,0.6,1,0,,,,,,,,,,,,
,,65391353897d68dd53a067da,66daf5c66ab9d29978b9c0bb,2024-09-06_15h30.26.173,mdp,2024.2.1,Win32,59.88023952,66d7945b1baad48e845df3ce,,,,,,,,,,,,,,,,,,,,,452.4734,452.4734,452.4743,453.4901,0,0,left,0.4894,,453.4915,454.4896,0,1,left,454.491,454.4916,,1,,0,454.4916,454.4916,454.4923,455.9891,0,41,41,41,1,0.8,0.2,0.8,0.2,,,,,,,,,,,,,,,0.4684,,0.2,0.8,0.6,0.4,0.6,0.4,0.4,0.6,1,0,,,,,,,,,,,,
,,65391353897d68dd53a067da,66daf5c66ab9d29978b9c0bb,2024-09-06_15h30.26.173,mdp,2024.2.1,Win32,59.88023952,66d7945b1baad48e845df3ce,,,,,,,,,,,,,,,,,,,,,455.9895,455.9895,455.9903,456.8057,0,0,left,0.2882,,456.8067,457.6393,1,0,right,457.6405,457.6415,,1,,1,457.6416,457.6416,457.6424,459.1387,0,42,42,42,1,0.8,0.2,0.8,0.2,,,,,,,,,,,,,,,0.301,,0.6,0.4,0.4,0.6,0.6,0.4,0.4,0.6,1,0,,,,,,,,,,,,
,,65391353897d68dd53a067da,66daf5c66ab9d29978b9c0bb,2024-09-06_15h30.26.173,mdp,2024.2.1,Win32,59.88023952,66d7945b1baad48e845df3ce,,,,,,,,,,,,,,,,,,,,,459.139,459.139,459.1401,459.9221,0,0,left,0.2499,,459.9234,460.9384,1,1,right,460.9395,460.9403,,0,,0,460.9403,460.9403,460.9412,462.4383,0,43,43,43,1,0.2,0.8,0.6,0.4,,,,,,,,,,,,,,,0.4928,,0.6,0.4,0.4,0.6,0.6,0.4,0.4,0.6,1,0,,,,,,,,,,,,
,,65391353897d68dd53a067da,66daf5c66ab9d29978b9c0bb,2024-09-06_15h30.26.173,mdp,2024.2.1,Win32,59.88023952,66d7945b1baad48e845df3ce,,,,,,,,,,,,,,,,,,,,,462.4387,462.4387,462.4396,463.4049,1,0,right,0.4344,,463.4059,464.2549,0,1,left,464.2561,464.2567,,1,,0,464.2568,464.2568,464.2576,465.7546,0,44,44,44,1,0.2,0.8,0.6,0.4,,,,,,,,,,,,,,,0.3174,,0.6,0.4,0.4,0.6,0.6,0.4,0.4,0.6,1,0,,,,,,,,,,,,
,,65391353897d68dd53a067da,66daf5c66ab9d29978b9c0bb,2024-09-06_15h30.26.173,mdp,2024.2.1,Win32,59.88023952,66d7945b1baad48e845df3ce,,,,,,,,,,,,,,,,,,,,,465.755,465.755,465.7558,466.4212,1,1,right,0.1377,,466.4225,467.021,1,1,right,467.0225,467.0233,,1,,0,467.0234,467.0234,467.0241,468.5211,0,45,45,45,1,0.2,0.8,0.6,0.4,,,,,,,,,,,,,,,0.0759,,0.6,0.4,0.4,0.6,0.6,0.4,0.4,0.6,1,0,,,,,,,,,,,,
,,65391353897d68dd53a067da,66daf5c66ab9d29978b9c0bb,2024-09-06_15h30.26.173,mdp,2024.2.1,Win32,59.88023952,66d7945b1baad48e845df3ce,,,,,,,,,,,,,,,,,,,,,468.5217,468.5217,468.5227,469.6041,1,0,right,0.5632,,469.6052,470.4039,0,0,left,470.4047,470.4053,,1,,1,470.4054,470.4054,470.406,471.9039,0,46,46,46,1,0.2,0.8,0.6,0.4,,,,,,,,,,,,,,,0.2836,,0.6,0.4,0.4,0.6,0.6,0.4,0.4,0.6,1,0,,,,,,,,,,,,
,,65391353897d68dd53a067da,66daf5c66ab9d29978b9c0bb,2024-09-06_15h30.26.173,mdp,2024.2.1,Win32,59.88023952,66d7945b1baad48e845df3ce,,,,,,,,,,,,,,,,,,,,,471.9043,471.9043,471.9053,472.6707,0,1,left,0.2445,,472.6721,473.4039,0,0,left,473.4051,473.4057,,1,,1,473.4057,473.4057,473.4066,474.9035,0,47,47,47,1,0.2,0.8,0.6,0.4,,,,,,,,,,,,,,,0.1981,,0.6,0.4,0.4,0.6,0.6,0.4,0.4,0.6,1,0,,,,,,,,,,,,
,,65391353897d68dd53a067da,66daf5c66ab9d29978b9c0bb,2024-09-06_15h30.26.173,mdp,2024.2.1,Win32,59.88023952,66d7945b1baad48e845df3ce,,,,,,,,,,,,,,,,,,,,,474.9039,474.9039,474.905,475.8036,0,1,left,0.3729,,475.8045,476.6032,1,0,right,476.6047,476.6055,,0,,1,476.6056,476.6056,476.6064,478.1031,0,48,48,48,1,0.2,0.8,0.6,0.4,,,,,,,,,,,,,,,0.2783,,0.6,0.4,0.4,0.6,0.6,0.4,0.4,0.6,1,0,,,,,,,,,,,,
,,65391353897d68dd53a067da,66daf5c66ab9d29978b9c0bb,2024-09-06_15h30.26.173,mdp,2024.2.1,Win32,59.88023952,66d7945b1baad48e845df3ce,,,,,,,,,,,,,,,,,,,,,478.1034,478.1035,478.1043,478.9032,1,1,right,0.2707,,478.9041,479.7199,1,0,right,479.7213,479.723,,0,,1,479.7231,479.7231,479.7239,481.2196,0,49,49,49,1,0.2,0.8,0.6,0.4,,,,,,,,,,,,,,,0.2933,,0.6,0.4,0.4,0.6,0.6,0.4,0.4,0.6,1,0,,,,,,,,,,,,
,,65391353897d68dd53a067da,66daf5c66ab9d29978b9c0bb,2024-09-06_15h30.26.173,mdp,2024.2.1,Win32,59.88023952,66d7945b1baad48e845df3ce,,,,,,,,,,,,,,,,,,,,,,,,,,,,,,,,,,,,,,,,,,,,,,,,,,,,,,,,481.2197,539.728,0,1,1,3,1,imgs/giraffe.png,imgs/cat.png,imgs/squirrel.png,imgs/lion.png,imgs/rabbit.png,,,,,,,,,,,,,,,,,,,,,,,,
,,65391353897d68dd53a067da,66daf5c66ab9d29978b9c0bb,2024-09-06_15h30.26.173,mdp,2024.2.1,Win32,59.88023952,66d7945b1baad48e845df3ce,,,,,,,,,,,,,,3,seqs/st3seq12.csv,539.738,549.6267,space,9.3671,,549.6385,549.6386,549.6397,551.6099,1,1,right,1.4437,,551.6107,552.4764,1,1,right,552.4771,553.2433,1,1,right,0,553.2433,553.2433,553.2459,554.7429,0,0,0,0,1,0.8,0.2,0.4,0.6,,,,,,,,,,,,,,,0.3506,,0.6,0.4,0.6,0.4,0.6,0.4,0.2,0.8,,,0.2364,,0.2,0.8,0.8,0.2,0.8,0.2,0.2,0.8,1,0
,,65391353897d68dd53a067da,66daf5c66ab9d29978b9c0bb,2024-09-06_15h30.26.173,mdp,2024.2.1,Win32,59.88023952,66d7945b1baad48e845df3ce,,,,,,,,,,,,,,,,,,,,,554.7435,554.7435,554.7452,555.6095,1,1,right,0.3348,,555.6103,556.4427,0,0,left,556.4436,557.2095,1,0,right,1,557.2096,557.2097,557.2114,558.7089,0,1,1,1,1,0.8,0.2,0.4,0.6,,,,,,,,,,,,,,,0.308,,0.6,0.4,0.6,0.4,0.6,0.4,0.2,0.8,,,0.2316,,0.2,0.8,0.8,0.2,0.8,0.2,0.2,0.8,1,0
,,65391353897d68dd53a067da,66daf5c66ab9d29978b9c0bb,2024-09-06_15h30.26.173,mdp,2024.2.1,Win32,59.88023952,66d7945b1baad48e845df3ce,,,,,,,,,,,,,,,,,,,,,558.7092,558.7092,558.7103,559.5754,1,0,right,0.346,,559.5764,560.392,0,0,left,560.3928,561.1758,1,0,right,1,561.1759,561.1759,561.1777,562.6751,0,2,2,2,1,0.8,0.2,0.4,0.6,,,,,,,,,,,,,,,0.2847,,0.6,0.4,0.6,0.4,0.6,0.4,0.2,0.8,,,0.2797,,0.2,0.8,0.8,0.2,0.8,0.2,0.2,0.8,1,0
,,65391353897d68dd53a067da,66daf5c66ab9d29978b9c0bb,2024-09-06_15h30.26.173,mdp,2024.2.1,Win32,59.88023952,66d7945b1baad48e845df3ce,,,,,,,,,,,,,,,,,,,,,562.6755,562.6755,562.6772,563.4583,1,0,right,0.2534,,563.4593,564.2916,0,1,left,564.2923,565.0916,1,1,right,0,565.0917,565.0917,565.0931,566.5912,0,3,3,3,1,0.8,0.2,0.4,0.6,,,,,,,,,,,,,,,0.3052,,0.6,0.4,0.6,0.4,0.6,0.4,0.2,0.8,,,0.2693,,0.2,0.8,0.8,0.2,0.8,0.2,0.2,0.8,1,0
,,65391353897d68dd53a067da,66daf5c66ab9d29978b9c0bb,2024-09-06_15h30.26.173,mdp,2024.2.1,Win32,59.88023952,66d7945b1baad48e845df3ce,,,,,,,,,,,,,,,,,,,,,566.5915,566.5915,566.5924,567.4246,0,0,left,0.3035,,567.4256,568.1917,1,1,right,568.194,568.9916,0,0,left,1,568.9917,568.9917,568.9932,570.4908,0,4,4,4,1,0.8,0.2,0.4,0.6,,,,,,,,,,,,,,,0.2539,,0.6,0.4,0.6,0.4,0.6,0.4,0.2,0.8,,,0.2705,,0.2,0.8,0.8,0.2,0.8,0.2,0.2,0.8,1,0
,,65391353897d68dd53a067da,66daf5c66ab9d29978b9c0bb,2024-09-06_15h30.26.173,mdp,2024.2.1,Win32,59.88023952,66d7945b1baad48e845df3ce,,,,,,,,,,,,,,,,,,,,,570.4914,570.4914,570.4928,578.1731,0,1,left,7.1553,,578.1806,579.1065,1,1,right,579.1073,579.9062,0,0,left,1,579.9063,579.9063,579.9075,581.4061,0,5,5,5,1,0.8,0.2,0.4,0.6,,,,,,,,,,,,,,,0.4016,,0.8,0.2,0.2,0.8,0.6,0.4,0.2,0.8,,,0.2724,,0.2,0.8,0.8,0.2,0.8,0.2,0.2,0.8,1,0
,,65391353897d68dd53a067da,66daf5c66ab9d29978b9c0bb,2024-09-06_15h30.26.173,mdp,2024.2.1,Win32,59.88023952,66d7945b1baad48e845df3ce,,,,,,,,,,,,,,,,,,,,,581.4066,581.4066,581.4074,582.2893,0,0,left,0.3557,,582.2903,583.0724,1,1,right,583.0735,583.9223,0,0,left,1,583.9224,583.9224,583.9234,585.4222,0,6,6,6,1,0.8,0.2,0.4,0.6,,,,,,,,,,,,,,,0.2622,,0.8,0.2,0.2,0.8,0.6,0.4,0.2,0.8,,,0.3437,,0.2,0.8,0.8,0.2,0.8,0.2,0.2,0.8,1,0
,,65391353897d68dd53a067da,66daf5c66ab9d29978b9c0bb,2024-09-06_15h30.26.173,mdp,2024.2.1,Win32,59.88023952,66d7945b1baad48e845df3ce,,,,,,,,,,,,,,,,,,,,,585.4226,585.4226,585.4234,586.3554,0,0,left,0.4122,,586.3566,587.1053,1,1,right,587.1062,587.9885,0,0,left,1,587.9886,587.9886,587.9895,589.4885,0,7,7,7,1,0.8,0.2,0.4,0.6,,,,,,,,,,,,,,,0.2285,,0.8,0.2,0.2,0.8,0.6,0.4,0.2,0.8,,,0.3538,,0.2,0.8,0.8,0.2,0.8,0.2,0.2,0.8,1,0
,,65391353897d68dd53a067da,66daf5c66ab9d29978b9c0bb,2024-09-06_15h30.26.173,mdp,2024.2.1,Win32,59.88023952,66d7945b1baad48e845df3ce,,,,,,,,,,,,,,,,,,,,,589.4891,589.4891,589.4901,590.3881,0,0,left,0.3781,,590.3893,591.0549,1,1,right,591.0558,591.9047,0,0,left,1,591.9047,591.9047,591.9059,593.4046,0,8,8,8,1,0.8,0.2,0.4,0.6,,,,,,,,,,,,,,,0.1589,,0.2,0.8,0.6,0.4,0.6,0.4,0.2,0.8,,,0.3172,,0.2,0.8,0.8,0.2,0.8,0.2,0.2,0.8,1,0
,,65391353897d68dd53a067da,66daf5c66ab9d29978b9c0bb,2024-09-06_15h30.26.173,mdp,2024.2.1,Win32,59.88023952,66d7945b1baad48e845df3ce,,,,,,,,,,,,,,,,,,,,,593.4051,593.4051,593.4061,594.8545,0,0,left,0.9263,,594.8556,595.621,1,0,right,595.6218,596.354,0,1,left,0,596.354,596.354,596.3549,597.8542,0,9,9,9,1,0.8,0.2,0.4,0.6,,,,,,,,,,,,,,,0.244,,0.2,0.8,0.6,0.4,0.6,0.4,0.2,0.8,,,0.2069,,0.2,0.8,0.8,0.2,0.8,0.2,0.2,0.8,1,0
,,65391353897d68dd53a067da,66daf5c66ab9d29978b9c0bb,2024-09-06_15h30.26.173,mdp,2024.2.1,Win32,59.88023952,66d7945b1baad48e845df3ce,,,,,,,,,,,,,,,,,,,,,597.8546,597.8546,597.8555,598.7376,1,1,right,0.3592,,598.7389,599.5705,0,0,left,599.572,600.4201,1,1,right,0,600.4201,600.4201,600.421,601.92,0,10,10,10,1,0.8,0.2,0.4,0.6,,,,,,,,,,,,,,,0.3073,,0.2,0.8,0.6,0.4,0.6,0.4,0.2,0.8,,,0.3285,,0.8,0.2,0.4,0.6,0.8,0.2,0.2,0.8,1,0
,,65391353897d68dd53a067da,66daf5c66ab9d29978b9c0bb,2024-09-06_15h30.26.173,mdp,2024.2.1,Win32,59.88023952,66d7945b1baad48e845df3ce,,,,,,,,,,,,,,,,,,,,,601.9203,601.9203,601.9212,602.9534,1,1,right,0.5077,,602.9548,603.8035,0,0,left,603.8044,604.7697,1,1,right,0,604.7697,604.7697,604.7705,606.2698,0,11,11,11,1,0.8,0.2,0.4,0.6,,,,,,,,,,,,,,,0.3191,,0.2,0.8,0.6,0.4,0.6,0.4,0.2,0.8,,,0.4476,,0.8,0.2,0.4,0.6,0.8,0.2,0.2,0.8,1,0
,,65391353897d68dd53a067da,66daf5c66ab9d29978b9c0bb,2024-09-06_15h30.26.173,mdp,2024.2.1,Win32,59.88023952,66d7945b1baad48e845df3ce,,,,,,,,,,,,,,,,,,,,,606.2704,606.2704,606.2716,607.1026,1,0,right,0.3102,,607.1034,607.9692,1,0,right,607.97,608.8195,0,0,left,1,608.8196,608.8196,608.8207,610.3189,0,12,12,12,1,0.8,0.2,0.4,0.6,,,,,,,,,,,,,,,0.3295,,0.2,0.8,0.6,0.4,0.6,0.4,0.2,0.8,,,0.317,,0.8,0.2,0.4,0.6,0.8,0.2,0.2,0.8,1,0
,,65391353897d68dd53a067da,66daf5c66ab9d29978b9c0bb,2024-09-06_15h30.26.173,mdp,2024.2.1,Win32,59.88023952,66d7945b1baad48e845df3ce,,,,,,,,,,,,,,,,,,,,,610.3192,610.3192,610.3199,611.1688,1,0,right,0.3174,,611.1698,612.0692,1,0,right,612.0702,612.9353,0,0,left,1,612.9354,612.9354,612.9365,614.435,0,13,13,13,1,0.8,0.2,0.4,0.6,,,,,,,,,,,,,,,0.3742,,0.2,0.8,0.6,0.4,0.6,0.4,0.2,0.8,,,0.3342,,0.8,0.2,0.4,0.6,0.8,0.2,0.2,0.8,1,0
,,65391353897d68dd53a067da,66daf5c66ab9d29978b9c0bb,2024-09-06_15h30.26.173,mdp,2024.2.1,Win32,59.88023952,66d7945b1baad48e845df3ce,,,,,,,,,,,,,,,,,,,,,614.4355,614.4355,614.4365,615.3851,1,0,right,0.4264,,615.3862,616.3183,1,0,right,616.3192,617.3346,0,0,left,1,617.3347,617.3347,617.3357,618.8346,0,14,14,14,1,0.8,0.2,0.4,0.6,,,,,,,,,,,,,,,0.4001,,0.2,0.8,0.6,0.4,0.6,0.4,0.2,0.8,,,0.4845,,0.8,0.2,0.4,0.6,0.8,0.2,0.2,0.8,1,0
,,65391353897d68dd53a067da,66daf5c66ab9d29978b9c0bb,2024-09-06_15h30.26.173,mdp,2024.2.1,Win32,59.88023952,66d7945b1baad48e845df3ce,,,,,,,,,,,,,,,,,,,,,618.8351,618.8351,618.8363,619.7513,1,1,right,0.3891,,619.7524,620.5847,1,1,right,620.5858,621.3678,0,1,left,0,621.3678,621.3678,621.369,622.8673,0,15,15,15,1,0.8,0.2,0.4,0.6,,,,,,,,,,,,,,,0.2994,,0.2,0.8,0.6,0.4,0.6,0.4,0.2,0.8,,,0.2581,,0.8,0.2,0.4,0.6,0.8,0.2,0.2,0.8,1,0
,,65391353897d68dd53a067da,66daf5c66ab9d29978b9c0bb,2024-09-06_15h30.26.173,mdp,2024.2.1,Win32,59.88023952,66d7945b1baad48e845df3ce,,,,,,,,,,,,,,,,,,,,,622.8681,622.8681,622.8691,624.4671,0,0,left,1.067,,624.4682,625.3172,0,1,left,625.3181,626.1004,1,0,right,1,626.1004,626.1004,626.1011,627.6,0,16,16,16,1,0.6,0.4,0.6,0.4,,,,,,,,,,,,,,,0.3315,,0.2,0.8,0.6,0.4,0.6,0.4,0.2,0.8,,,0.2616,,0.8,0.2,0.4,0.6,0.8,0.2,0.2,0.8,1,0
,,65391353897d68dd53a067da,66daf5c66ab9d29978b9c0bb,2024-09-06_15h30.26.173,mdp,2024.2.1,Win32,59.88023952,66d7945b1baad48e845df3ce,,,,,,,,,,,,,,,,,,,,,627.6004,627.6004,627.6016,628.6171,0,1,left,0.4859,,628.6183,629.4999,0,0,left,629.5009,630.3331,1,1,right,0,630.3332,630.3332,630.3344,631.8332,0,17,17,17,1,0.6,0.4,0.6,0.4,,,,,,,,,,,,,,,0.3474,,0.2,0.8,0.6,0.4,0.6,0.4,0.2,0.8,,,0.3009,,0.8,0.2,0.4,0.6,0.8,0.2,0.2,0.8,1,0
,,65391353897d68dd53a067da,66daf5c66ab9d29978b9c0bb,2024-09-06_15h30.26.173,mdp,2024.2.1,Win32,59.88023952,66d7945b1baad48e845df3ce,,,,,,,,,,,,,,,,,,,,,631.8337,631.8338,631.8348,632.6992,0,1,left,0.3463,,632.7001,633.3993,1,1,right,633.4003,634.1825,0,1,left,0,634.1826,634.1826,634.1836,635.6823,0,18,18,18,1,0.6,0.4,0.6,0.4,,,,,,,,,,,,,,,0.1773,,0.2,0.8,0.6,0.4,0.6,0.4,0.2,0.8,,,0.246,,0.8,0.2,0.4,0.6,0.8,0.2,0.2,0.8,1,0
,,65391353897d68dd53a067da,66daf5c66ab9d29978b9c0bb,2024-09-06_15h30.26.173,mdp,2024.2.1,Win32,59.88023952,66d7945b1baad48e845df3ce,,,,,,,,,,,,,,,,,,,,,635.6828,635.6828,635.6842,636.6656,1,1,right,0.4498,,636.6666,637.499,1,1,right,637.5001,638.2991,0,0,left,1,638.2992,638.2992,638.3,639.7986,0,19,19,19,1,0.6,0.4,0.6,0.4,,,,,,,,,,,,,,,0.3004,,0.2,0.8,0.6,0.4,0.6,0.4,0.2,0.8,,,0.2691,,0.2,0.8,0.2,0.8,0.8,0.2,0.2,0.8,1,0
,,65391353897d68dd53a067da,66daf5c66ab9d29978b9c0bb,2024-09-06_15h30.26.173,mdp,2024.2.1,Win32,59.88023952,66d7945b1baad48e845df3ce,,,,,,,,,,,,,,,,,,,,,639.7991,639.7991,639.7999,640.7149,1,0,right,0.3902,,640.7158,641.5317,1,0,right,641.5326,642.3646,0,1,left,0,642.3647,642.3647,642.3657,643.8646,0,20,20,20,1,0.6,0.4,0.6,0.4,,,,,,,,,,,,,,,0.2851,,0.2,0.8,0.6,0.4,0.6,0.4,0.2,0.8,,,0.3093,,0.2,0.8,0.2,0.8,0.8,0.2,0.2,0.8,1,0
,,65391353897d68dd53a067da,66daf5c66ab9d29978b9c0bb,2024-09-06_15h30.26.173,mdp,2024.2.1,Win32,59.88023952,66d7945b1baad48e845df3ce,,,,,,,,,,,,,,,,,,,,,643.8651,643.8651,643.8661,644.6978,1,0,right,0.304,,644.6987,645.4979,1,0,right,645.4988,646.1975,1,1,right,0,646.1976,646.1976,646.1986,647.6976,0,21,21,21,1,0.6,0.4,0.6,0.4,,,,,,,,,,,,,,,0.27,,0.2,0.8,0.6,0.4,0.6,0.4,0.2,0.8,,,0.1669,,0.2,0.8,0.2,0.8,0.8,0.2,0.2,0.8,1,0
,,65391353897d68dd53a067da,66daf5c66ab9d29978b9c0bb,2024-09-06_15h30.26.173,mdp,2024.2.1,Win32,59.88023952,66d7945b1baad48e845df3ce,,,,,,,,,,,,,,,,,,,,,647.698,647.698,647.6989,648.514,0,1,left,0.2915,,648.515,649.3472,0,0,left,649.3483,650.1804,0,1,left,0,650.1805,650.1805,650.1818,651.6801,0,22,22,22,1,0.6,0.4,0.6,0.4,,,,,,,,,,,,,,,0.2967,,0.2,0.8,0.6,0.4,0.6,0.4,0.2,0.8,,,0.3046,,0.2,0.8,0.2,0.8,0.8,0.2,0.2,0.8,1,0
,,65391353897d68dd53a067da,66daf5c66ab9d29978b9c0bb,2024-09-06_15h30.26.173,mdp,2024.2.1,Win32,59.88023952,66d7945b1baad48e845df3ce,,,,,,,,,,,,,,,,,,,,,651.6805,651.6805,651.6813,652.5636,0,0,left,0.3571,,652.5651,653.4299,1,0,right,653.4309,654.18,1,1,right,0,654.1802,654.1802,654.181,655.6797,0,23,23,23,1,0.4,0.6,0.8,0.2,,,,,,,,,,,,,,,0.3339,,0.2,0.8,0.6,0.4,0.6,0.4,0.2,0.8,,,0.2385,,0.2,0.8,0.2,0.8,0.8,0.2,0.2,0.8,1,0
,,65391353897d68dd53a067da,66daf5c66ab9d29978b9c0bb,2024-09-06_15h30.26.173,mdp,2024.2.1,Win32,59.88023952,66d7945b1baad48e845df3ce,,,,,,,,,,,,,,,,,,,,,655.6802,655.6802,655.6809,656.513,1,0,right,0.3108,,656.5141,657.3631,0,1,left,657.3645,658.1965,0,0,left,1,658.1966,658.1966,658.1976,659.696,0,24,24,24,1,0.4,0.6,0.8,0.2,,,,,,,,,,,,,,,0.3232,,0.2,0.8,0.6,0.4,0.6,0.4,0.2,0.8,,,0.303,,0.2,0.8,0.2,0.8,0.8,0.2,0.2,0.8,1,0
,,65391353897d68dd53a067da,66daf5c66ab9d29978b9c0bb,2024-09-06_15h30.26.173,mdp,2024.2.1,Win32,59.88023952,66d7945b1baad48e845df3ce,,,,,,,,,,,,,,,,,,,,,659.6964,659.6964,659.6974,660.6293,1,0,right,0.4038,,660.6306,661.5456,0,0,left,661.5465,662.4454,0,0,left,1,662.4454,662.4455,662.4464,663.9453,0,25,25,25,1,0.4,0.6,0.8,0.2,,,,,,,,,,,,,,,0.3855,,0.8,0.2,0.8,0.2,0.6,0.4,0.2,0.8,,,0.3838,,0.2,0.8,0.2,0.8,0.8,0.2,0.2,0.8,1,0
,,65391353897d68dd53a067da,66daf5c66ab9d29978b9c0bb,2024-09-06_15h30.26.173,mdp,2024.2.1,Win32,59.88023952,66d7945b1baad48e845df3ce,,,,,,,,,,,,,,,,,,,,,663.9457,663.9457,663.9465,664.7452,1,0,right,0.2735,,664.7458,665.6116,0,0,left,665.6125,666.4285,0,1,left,0,666.4286,666.4286,666.4295,667.9285,0,26,26,26,1,0.4,0.6,0.8,0.2,,,,,,,,,,,,,,,0.3472,,0.8,0.2,0.8,0.2,0.6,0.4,0.2,0.8,,,0.293,,0.2,0.8,0.2,0.8,0.8,0.2,0.2,0.8,1,0
,,65391353897d68dd53a067da,66daf5c66ab9d29978b9c0bb,2024-09-06_15h30.26.173,mdp,2024.2.1,Win32,59.88023952,66d7945b1baad48e845df3ce,,,,,,,,,,,,,,,,,,,,,667.929,667.929,667.93,668.9946,0,1,left,0.5436,,668.9955,669.7611,1,1,right,669.7622,670.5446,1,1,right,0,670.5447,670.5447,670.5454,672.0442,0,27,27,27,1,0.4,0.6,0.8,0.2,,,,,,,,,,,,,,,0.236,,0.8,0.2,0.8,0.2,0.6,0.4,0.2,0.8,,,0.2534,,0.2,0.8,0.2,0.8,0.8,0.2,0.2,0.8,1,0
,,65391353897d68dd53a067da,66daf5c66ab9d29978b9c0bb,2024-09-06_15h30.26.173,mdp,2024.2.1,Win32,59.88023952,66d7945b1baad48e845df3ce,,,,,,,,,,,,,,,,,,,,,672.0446,672.0446,672.0456,672.9941,0,1,left,0.4235,,672.9952,673.8274,0,1,left,673.8282,674.6275,1,1,right,0,674.6275,674.6276,674.6285,676.127,0,28,28,28,1,0.4,0.6,0.8,0.2,,,,,,,,,,,,,,,0.3078,,0.8,0.2,0.8,0.2,0.6,0.4,0.2,0.8,,,0.2727,,0.2,0.8,0.2,0.8,0.8,0.2,0.2,0.8,1,0
,,65391353897d68dd53a067da,66daf5c66ab9d29978b9c0bb,2024-09-06_15h30.26.173,mdp,2024.2.1,Win32,59.88023952,66d7945b1baad48e845df3ce,,,,,,,,,,,,,,,,,,,,,676.1273,676.1273,676.1281,676.8102,1,0,right,0.1628,,676.811,677.5941,0,0,left,677.5955,678.3767,1,1,right,0,678.3767,678.3767,678.3778,679.8767,0,29,29,29,1,0.4,0.6,0.8,0.2,,,,,,,,,,,,,,,0.2648,,0.8,0.2,0.8,0.2,0.6,0.4,0.2,0.8,,,0.2561,,0.2,0.8,0.2,0.8,0.8,0.2,0.2,0.8,1,0
,,65391353897d68dd53a067da,66daf5c66ab9d29978b9c0bb,2024-09-06_15h30.26.173,mdp,2024.2.1,Win32,59.88023952,66d7945b1baad48e845df3ce,,,,,,,,,,,,,,,,,,,,,679.877,679.877,679.878,680.6766,1,0,right,0.2748,,680.6775,681.4262,1,0,right,681.4269,682.1928,1,1,right,0,682.1928,682.1928,682.1937,683.6929,0,30,30,30,1,0.4,0.6,0.8,0.2,,,,,,,,,,,,,,,0.2292,,0.8,0.2,0.8,0.2,0.6,0.4,0.2,0.8,,,0.2615,,0.2,0.8,0.2,0.8,0.8,0.2,0.2,0.8,1,0
,,65391353897d68dd53a067da,66daf5c66ab9d29978b9c0bb,2024-09-06_15h30.26.173,mdp,2024.2.1,Win32,59.88023952,66d7945b1baad48e845df3ce,,,,,,,,,,,,,,,,,,,,,683.6933,683.6933,683.6943,685.0425,0,1,left,0.8218,,685.0441,685.6756,0,0,left,685.677,686.309,0,1,left,0,686.309,686.309,686.3102,687.8087,0,31,31,31,1,0.4,0.6,0.8,0.2,,,,,,,,,,,,,,,0.1119,,0.8,0.2,0.8,0.2,0.6,0.4,0.2,0.8,,,0.1135,,0.2,0.8,0.2,0.8,0.8,0.2,0.2,0.8,1,0
,,65391353897d68dd53a067da,66daf5c66ab9d29978b9c0bb,2024-09-06_15h30.26.173,mdp,2024.2.1,Win32,59.88023952,66d7945b1baad48e845df3ce,,,,,,,,,,,,,,,,,,,,,687.809,687.809,687.8101,688.7253,0,1,left,0.3909,,688.7263,689.5253,1,1,right,689.5262,690.1254,0,0,left,1,690.1255,690.1255,690.1267,691.6253,0,32,32,32,1,0.4,0.6,0.8,0.2,,,,,,,,,,,,,,,0.2873,,0.8,0.2,0.8,0.2,0.6,0.4,0.2,0.8,,,0.0627,,0.2,0.8,0.2,0.8,0.8,0.2,0.2,0.8,1,0
,,65391353897d68dd53a067da,66daf5c66ab9d29978b9c0bb,2024-09-06_15h30.26.173,mdp,2024.2.1,Win32,59.88023952,66d7945b1baad48e845df3ce,,,,,,,,,,,,,,,,,,,,,691.6258,691.6258,691.6267,692.4753,0,0,left,0.3184,,692.4762,693.2748,1,0,right,693.2755,694.0747,0,0,left,1,694.0747,694.0747,694.0756,695.5745,0,33,33,33,1,0.4,0.6,0.8,0.2,,,,,,,,,,,,,,,0.2646,,0.8,0.2,0.8,0.2,0.6,0.4,0.2,0.8,,,0.2641,,0.2,0.8,0.2,0.8,0.8,0.2,0.2,0.8,1,0
,,65391353897d68dd53a067da,66daf5c66ab9d29978b9c0bb,2024-09-06_15h30.26.173,mdp,2024.2.1,Win32,59.88023952,66d7945b1baad48e845df3ce,,,,,,,,,,,,,,,,,,,,,695.575,695.5751,695.5761,696.4246,0,1,left,0.3287,,696.4258,697.2243,1,1,right,697.2251,698.0245,0,0,left,1,698.0245,698.0245,698.0256,699.5242,0,34,34,34,1,0.4,0.6,0.8,0.2,,,,,,,,,,,,,,,0.2631,,0.8,0.2,0.8,0.2,0.6,0.4,0.2,0.8,,,0.2835,,0.2,0.8,0.2,0.8,0.8,0.2,0.2,0.8,1,0
,,65391353897d68dd53a067da,66daf5c66ab9d29978b9c0bb,2024-09-06_15h30.26.173,mdp,2024.2.1,Win32,59.88023952,66d7945b1baad48e845df3ce,,,,,,,,,,,,,,,,,,,,,699.5246,699.5246,699.5257,700.8074,0,1,left,0.7519,,700.8084,701.5074,1,1,right,701.5084,702.2569,0,1,left,0,702.257,702.2571,702.2583,703.7568,0,35,35,35,1,0.4,0.6,0.8,0.2,,,,,,,,,,,,,,,0.1779,,0.8,0.2,0.8,0.2,0.6,0.4,0.2,0.8,,,0.2234,,0.2,0.8,0.2,0.8,0.8,0.2,0.2,0.8,1,0
,,65391353897d68dd53a067da,66daf5c66ab9d29978b9c0bb,2024-09-06_15h30.26.173,mdp,2024.2.1,Win32,59.88023952,66d7945b1baad48e845df3ce,,,,,,,,,,,,,,,,,,,,,703.7571,703.7571,703.7577,704.8903,1,0,right,0.6004,,704.8917,705.6566,0,0,left,705.658,706.44,1,1,right,0,706.44,706.44,706.441,707.9401,0,36,36,36,1,0.4,0.6,0.8,0.2,,,,,,,,,,,,,,,0.2387,,0.8,0.2,0.8,0.2,0.6,0.4,0.2,0.8,,,0.2463,,0.2,0.8,0.2,0.8,0.8,0.2,0.2,0.8,1,0
,,65391353897d68dd53a067da,66daf5c66ab9d29978b9c0bb,2024-09-06_15h30.26.173,mdp,2024.2.1,Win32,59.88023952,66d7945b1baad48e845df3ce,,,,,,,,,,,,,,,,,,,,,707.9406,707.9406,707.9416,708.5728,1,0,right,0.1028,,708.5737,709.3727,1,0,right,709.3739,710.0896,0,1,left,0,710.0897,710.0897,710.0907,711.5892,0,37,37,37,1,0.4,0.6,0.8,0.2,,,,,,,,,,,,,,,0.2928,,0.8,0.2,0.8,0.2,0.4,0.6,0.4,0.6,,,0.2006,,0.2,0.8,0.2,0.8,0.8,0.2,0.2,0.8,1,0
,,65391353897d68dd53a067da,66daf5c66ab9d29978b9c0bb,2024-09-06_15h30.26.173,mdp,2024.2.1,Win32,59.88023952,66d7945b1baad48e845df3ce,,,,,,,,,,,,,,,,,,,,,711.5896,711.5896,711.5904,712.5055,0,1,left,0.3857,,712.5063,713.4221,0,0,left,713.423,714.089,1,1,right,0,714.0891,714.0891,714.0901,715.5885,0,38,38,38,1,0.4,0.6,0.8,0.2,,,,,,,,,,,,,,,0.3912,,0.8,0.2,0.8,0.2,0.4,0.6,0.4,0.6,,,0.1341,,0.2,0.8,0.2,0.8,0.8,0.2,0.2,0.8,1,0
,,65391353897d68dd53a067da,66daf5c66ab9d29978b9c0bb,2024-09-06_15h30.26.173,mdp,2024.2.1,Win32,59.88023952,66d7945b1baad48e845df3ce,,,,,,,,,,,,,,,,,,,,,715.5889,715.5889,715.5897,716.4725,1,1,right,0.3519,,716.4737,717.3054,0,0,left,717.3068,718.0381,0,0,left,1,718.0382,718.0382,718.039,719.5383,0,39,39,39,1,0.2,0.8,0.2,0.8,,,,,,,,,,,,,,,0.3101,,0.8,0.2,0.8,0.2,0.4,0.6,0.4,0.6,,,0.2001,,0.2,0.8,0.2,0.8,0.8,0.2,0.2,0.8,1,0
,,65391353897d68dd53a067da,66daf5c66ab9d29978b9c0bb,2024-09-06_15h30.26.173,mdp,2024.2.1,Win32,59.88023952,66d7945b1baad48e845df3ce,,,,,,,,,,,,,,,,,,,,,719.5387,719.5387,719.5397,720.4045,1,1,right,0.3455,,720.4055,721.2378,0,1,left,721.2388,722.038,0,1,left,0,722.038,722.038,722.0389,723.5379,0,40,40,40,1,0.2,0.8,0.2,0.8,,,,,,,,,,,,,,,0.3227,,0.8,0.2,0.8,0.2,0.4,0.6,0.4,0.6,,,0.269,,0.2,0.8,0.2,0.8,0.8,0.2,0.2,0.8,1,0
,,65391353897d68dd53a067da,66daf5c66ab9d29978b9c0bb,2024-09-06_15h30.26.173,mdp,2024.2.1,Win32,59.88023952,66d7945b1baad48e845df3ce,,,,,,,,,,,,,,,,,,,,,723.5386,723.5386,723.5397,724.4375,0,1,left,0.3727,,724.4384,725.2545,1,0,right,725.2553,726.004,1,0,right,1,726.0041,726.0041,726.0054,727.5039,0,41,41,41,1,0.2,0.8,0.2,0.8,,,,,,,,,,,,,,,0.2887,,0.8,0.2,0.8,0.2,0.4,0.6,0.4,0.6,,,0.2195,,0.2,0.8,0.2,0.8,0.6,0.4,0.8,0.2,1,0
,,65391353897d68dd53a067da,66daf5c66ab9d29978b9c0bb,2024-09-06_15h30.26.173,mdp,2024.2.1,Win32,59.88023952,66d7945b1baad48e845df3ce,,,,,,,,,,,,,,,,,,,,,727.5045,727.5045,727.5053,728.3034,0,0,left,0.2784,,728.3042,729.3033,1,0,right,729.3043,730.0699,1,1,right,0,730.07,730.07,730.0708,731.5703,0,42,42,42,1,0.2,0.8,0.2,0.8,,,,,,,,,,,,,,,0.4927,,0.8,0.2,0.8,0.2,0.4,0.6,0.4,0.6,,,0.2436,,0.2,0.8,0.2,0.8,0.8,0.2,0.6,0.4,1,0
,,65391353897d68dd53a067da,66daf5c66ab9d29978b9c0bb,2024-09-06_15h30.26.173,mdp,2024.2.1,Win32,59.88023952,66d7945b1baad48e845df3ce,,,,,,,,,,,,,,,,,,,,,731.5709,731.5709,731.572,732.203,1,1,right,0.101,,732.2042,733.0196,0,0,left,733.0204,733.6361,0,1,left,0,733.6362,733.6362,733.6371,735.1359,0,43,43,43,1,0.2,0.8,0.2,0.8,,,,,,,,,,,,,,,0.2884,,0.8,0.2,0.8,0.2,0.4,0.6,0.4,0.6,,,0.1015,,0.2,0.8,0.2,0.8,0.8,0.2,0.6,0.4,1,0
,,65391353897d68dd53a067da,66daf5c66ab9d29978b9c0bb,2024-09-06_15h30.26.173,mdp,2024.2.1,Win32,59.88023952,66d7945b1baad48e845df3ce,,,,,,,,,,,,,,,,,,,,,735.1363,735.1363,735.137,735.9027,0,1,left,0.2336,,735.9042,736.7024,0,0,left,736.7033,737.6024,0,1,left,0,737.6025,737.6025,737.6034,739.1025,0,44,44,44,1,0.2,0.8,0.2,0.8,,,,,,,,,,,,,,,0.2714,,0.8,0.2,0.8,0.2,0.4,0.6,0.4,0.6,,,0.3837,,0.2,0.8,0.2,0.8,0.8,0.2,0.6,0.4,1,0
,,65391353897d68dd53a067da,66daf5c66ab9d29978b9c0bb,2024-09-06_15h30.26.173,mdp,2024.2.1,Win32,59.88023952,66d7945b1baad48e845df3ce,,,,,,,,,,,,,,,,,,,,,739.1031,739.1031,739.1041,739.9352,1,1,right,0.3031,,739.9364,740.7519,0,0,left,740.7529,741.4517,1,1,right,0,741.4517,741.4517,741.4526,742.952,0,45,45,45,1,0.2,0.8,0.2,0.8,,,,,,,,,,,,,,,0.2833,,0.8,0.2,0.8,0.2,0.6,0.4,0.2,0.8,,,0.1777,,0.2,0.8,0.2,0.8,0.8,0.2,0.6,0.4,1,0
,,65391353897d68dd53a067da,66daf5c66ab9d29978b9c0bb,2024-09-06_15h30.26.173,mdp,2024.2.1,Win32,59.88023952,66d7945b1baad48e845df3ce,,,,,,,,,,,,,,,,,,,,,742.9524,742.9524,742.9531,744.0848,0,1,left,0.6005,,744.0857,744.8184,1,1,right,744.8193,745.5179,0,1,left,0,745.518,745.518,745.5188,747.0178,0,46,46,46,1,0.2,0.8,0.2,0.8,,,,,,,,,,,,,,,0.2099,,0.8,0.2,0.8,0.2,0.6,0.4,0.2,0.8,,,0.1804,,0.2,0.8,0.2,0.8,0.8,0.2,0.6,0.4,1,0
,,65391353897d68dd53a067da,66daf5c66ab9d29978b9c0bb,2024-09-06_15h30.26.173,mdp,2024.2.1,Win32,59.88023952,66d7945b1baad48e845df3ce,,,,,,,,,,,,,,,,,,,,,747.0181,747.0181,747.0189,748.0677,0,1,left,0.5274,,748.0686,748.7342,0,1,left,748.735,749.3008,1,0,right,1,749.3009,749.3009,749.3017,750.8005,0,47,47,47,1,0.2,0.8,0.2,0.8,,,,,,,,,,,,,,,0.1334,,0.8,0.2,0.8,0.2,0.6,0.4,0.2,0.8,,,0.0338,,0.2,0.8,0.2,0.8,0.8,0.2,0.6,0.4,1,0
,,65391353897d68dd53a067da,66daf5c66ab9d29978b9c0bb,2024-09-06_15h30.26.173,mdp,2024.2.1,Win32,59.88023952,66d7945b1baad48e845df3ce,,,,,,,,,,,,,,,,,,,,,750.8007,750.8008,750.8016,751.6005,0,1,left,0.2668,,751.6015,752.3837,0,1,left,752.3845,753.0502,1,1,right,0,753.0504,753.0504,753.0512,754.55,0,48,48,48,1,0.2,0.8,0.2,0.8,,,,,,,,,,,,,,,0.2512,,0.8,0.2,0.8,0.2,0.6,0.4,0.2,0.8,,,0.1353,,0.2,0.8,0.2,0.8,0.8,0.2,0.6,0.4,1,0
,,65391353897d68dd53a067da,66daf5c66ab9d29978b9c0bb,2024-09-06_15h30.26.173,mdp,2024.2.1,Win32,59.88023952,66d7945b1baad48e845df3ce,,,,,,,,,,,,,,,,,,,,,754.5504,754.5504,754.5514,755.3334,0,1,left,0.2562,,755.3342,756.1165,1,0,right,756.1175,756.6998,0,1,left,0,756.6999,756.6999,756.7008,758.1996,0,49,49,49,1,0.2,0.8,0.2,0.8,,,,,,,,,,,,,,,0.262,,0.8,0.2,0.8,0.2,0.6,0.4,0.2,0.8,,,0.0558,,0.2,0.8,0.2,0.8,0.8,0.2,0.6,0.4,1,0
,,65391353897d68dd53a067da,66daf5c66ab9d29978b9c0bb,2024-09-06_15h30.26.173,mdp,2024.2.1,Win32,59.88023952,66d7945b1baad48e845df3ce,,,,,,,,,,,,,,,,,,,,,,,,,,,,,,,,,,,,,,,,,,,,,,,,,,,,,,,,758.1998,829.9424,0,2,2,6,1,imgs/cat.png,imgs/dog.png,imgs/kangaroo.png,imgs/goat.png,imgs/giraffe.png,,,,,,,,,,,,,,,,,,,,,,,,
,,65391353897d68dd53a067da,66daf5c66ab9d29978b9c0bb,2024-09-06_15h30.26.173,mdp,2024.2.1,Win32,59.88023952,66d7945b1baad48e845df3ce,,,,,,,,,,,,,,3,seqs/st3seq9.csv,829.9549,845.3717,space,14.9038,,845.3827,845.3827,845.3833,847.6713,1,0,right,1.7674,,847.6722,848.7044,0,0,left,848.7053,849.5376,1,0,right,1,849.5376,849.5376,849.5385,851.0375,0,0,0,0,1,0.2,0.8,0.6,0.4,,,,,,,,,,,,,,,0.4963,,0.4,0.6,0.4,0.6,0.2,0.8,0.6,0.4,,,0.3094,,0.4,0.6,0.6,0.4,0.6,0.4,0.8,0.2,1,0
,,65391353897d68dd53a067da,66daf5c66ab9d29978b9c0bb,2024-09-06_15h30.26.173,mdp,2024.2.1,Win32,59.88023952,66d7945b1baad48e845df3ce,,,,,,,,,,,,,,,,,,,,,851.038,851.038,851.0389,852.7373,1,0,right,1.169,,852.7382,853.5205,0,1,left,853.5215,854.2371,1,0,right,1,854.2372,854.2372,854.2382,855.7371,0,1,1,1,1,0.2,0.8,0.6,0.4,,,,,,,,,,,,,,,0.2579,,0.4,0.6,0.4,0.6,0.6,0.4,0.2,0.8,,,0.1836,,0.4,0.6,0.6,0.4,0.6,0.4,0.8,0.2,1,0
,,65391353897d68dd53a067da,66daf5c66ab9d29978b9c0bb,2024-09-06_15h30.26.173,mdp,2024.2.1,Win32,59.88023952,66d7945b1baad48e845df3ce,,,,,,,,,,,,,,,,,,,,,855.7375,855.7375,855.7386,856.8035,1,0,right,0.536,,856.8042,857.6034,0,1,left,857.6043,858.42,1,0,right,1,858.4201,858.4201,858.421,859.9198,0,2,2,2,1,0.2,0.8,0.6,0.4,,,,,,,,,,,,,,,0.2762,,0.4,0.6,0.4,0.6,0.6,0.4,0.2,0.8,,,0.2834,,0.4,0.6,0.6,0.4,0.6,0.4,0.8,0.2,1,0
,,65391353897d68dd53a067da,66daf5c66ab9d29978b9c0bb,2024-09-06_15h30.26.173,mdp,2024.2.1,Win32,59.88023952,66d7945b1baad48e845df3ce,,,,,,,,,,,,,,,,,,,,,859.9203,859.9204,859.921,860.8196,1,0,right,0.3672,,860.8205,861.536,0,1,left,861.537,862.2527,1,1,right,0,862.2528,862.2528,862.2537,863.7529,0,3,3,3,1,0.2,0.8,0.6,0.4,,,,,,,,,,,,,,,0.211,,0.4,0.6,0.4,0.6,0.6,0.4,0.2,0.8,,,0.2054,,0.4,0.6,0.6,0.4,0.6,0.4,0.8,0.2,1,0
,,65391353897d68dd53a067da,66daf5c66ab9d29978b9c0bb,2024-09-06_15h30.26.173,mdp,2024.2.1,Win32,59.88023952,66d7945b1baad48e845df3ce,,,,,,,,,,,,,,,,,,,,,863.7533,863.7533,863.7544,864.9199,0,1,left,0.6362,,864.921,865.719,1,1,right,865.7199,866.7521,0,1,left,0,866.7521,866.7521,866.7531,868.2523,0,4,4,4,1,0.2,0.8,0.6,0.4,,,,,,,,,,,,,,,0.2684,,0.4,0.6,0.4,0.6,0.6,0.4,0.2,0.8,,,0.5105,,0.4,0.6,0.6,0.4,0.6,0.4,0.8,0.2,1,0
,,65391353897d68dd53a067da,66daf5c66ab9d29978b9c0bb,2024-09-06_15h30.26.173,mdp,2024.2.1,Win32,59.88023952,66d7945b1baad48e845df3ce,,,,,,,,,,,,,,,,,,,,,868.2527,868.2527,868.2537,868.869,1,1,right,0.0837,,868.8699,869.5687,1,1,right,869.5696,870.5516,0,0,left,1,870.5516,870.5516,870.5525,872.0516,0,5,5,5,1,0.2,0.8,0.6,0.4,,,,,,,,,,,,,,,0.1775,,0.4,0.6,0.4,0.6,0.6,0.4,0.2,0.8,,,0.4622,,0.4,0.6,0.6,0.4,0.6,0.4,0.8,0.2,1,0
,,65391353897d68dd53a067da,66daf5c66ab9d29978b9c0bb,2024-09-06_15h30.26.173,mdp,2024.2.1,Win32,59.88023952,66d7945b1baad48e845df3ce,,,,,,,,,,,,,,,,,,,,,872.052,872.052,872.0532,872.8682,1,0,right,0.2836,,872.8696,873.6678,1,0,right,873.6689,874.4347,0,1,left,0,874.4348,874.4348,874.4357,875.9348,0,6,6,6,1,0.2,0.8,0.6,0.4,,,,,,,,,,,,,,,0.2766,,0.4,0.6,0.4,0.6,0.6,0.4,0.2,0.8,,,0.2297,,0.4,0.6,0.6,0.4,0.6,0.4,0.8,0.2,1,0
,,65391353897d68dd53a067da,66daf5c66ab9d29978b9c0bb,2024-09-06_15h30.26.173,mdp,2024.2.1,Win32,59.88023952,66d7945b1baad48e845df3ce,,,,,,,,,,,,,,,,,,,,,875.9353,875.9353,875.9364,876.6675,0,0,left,0.2113,,876.6685,877.3511,0,1,left,877.3522,878.1506,1,0,right,1,878.1506,878.1506,878.1518,879.6504,0,7,7,7,1,0.2,0.8,0.6,0.4,,,,,,,,,,,,,,,0.1616,,0.4,0.6,0.4,0.6,0.6,0.4,0.2,0.8,,,0.2636,,0.4,0.6,0.6,0.4,0.6,0.4,0.8,0.2,1,0
,,65391353897d68dd53a067da,66daf5c66ab9d29978b9c0bb,2024-09-06_15h30.26.173,mdp,2024.2.1,Win32,59.88023952,66d7945b1baad48e845df3ce,,,,,,,,,,,,,,,,,,,,,879.6508,879.6508,879.6517,880.4506,0,1,left,0.2702,,880.4515,881.1504,0,0,left,881.1515,881.7168,1,1,right,0,881.7169,881.7169,881.7178,883.2167,0,8,8,8,1,0.2,0.8,0.6,0.4,,,,,,,,,,,,,,,0.1758,,0.4,0.6,0.4,0.6,0.6,0.4,0.2,0.8,,,0.0505,,0.4,0.6,0.6,0.4,0.6,0.4,0.8,0.2,1,0
,,65391353897d68dd53a067da,66daf5c66ab9d29978b9c0bb,2024-09-06_15h30.26.173,mdp,2024.2.1,Win32,59.88023952,66d7945b1baad48e845df3ce,,,,,,,,,,,,,,,,,,,,,883.2171,883.2171,883.218,884.25,1,1,right,0.5004,,884.2511,884.9497,0,0,left,884.9507,885.5662,1,1,right,0,885.5663,885.5663,885.5673,887.0663,0,9,9,9,1,0.2,0.8,0.6,0.4,,,,,,,,,,,,,,,0.1703,,0.4,0.6,0.4,0.6,0.6,0.4,0.2,0.8,,,0.1127,,0.4,0.6,0.6,0.4,0.6,0.4,0.8,0.2,1,0
,,65391353897d68dd53a067da,66daf5c66ab9d29978b9c0bb,2024-09-06_15h30.26.173,mdp,2024.2.1,Win32,59.88023952,66d7945b1baad48e845df3ce,,,,,,,,,,,,,,,,,,,,,887.0667,887.0667,887.0675,887.8495,1,1,right,0.2641,,887.8505,888.6162,1,0,right,888.6171,889.2495,0,1,left,0,889.2495,889.2495,889.2502,890.7492,0,10,10,10,1,0.2,0.8,0.6,0.4,,,,,,,,,,,,,,,0.2543,,0.4,0.6,0.4,0.6,0.6,0.4,0.2,0.8,,,0.1039,,0.4,0.6,0.6,0.4,0.2,0.8,0.6,0.4,1,0
,,65391353897d68dd53a067da,66daf5c66ab9d29978b9c0bb,2024-09-06_15h30.26.173,mdp,2024.2.1,Win32,59.88023952,66d7945b1baad48e845df3ce,,,,,,,,,,,,,,,,,,,,,890.7494,890.7495,890.7502,891.6657,1,0,right,0.3907,,891.6667,892.3654,0,0,left,892.3663,892.9988,1,0,right,1,892.9989,892.9989,892.9998,894.4986,0,11,11,11,1,0.2,0.8,0.6,0.4,,,,,,,,,,,,,,,0.1766,,0.4,0.6,0.4,0.6,0.6,0.4,0.2,0.8,,,0.1068,,0.4,0.6,0.6,0.4,0.2,0.8,0.6,0.4,1,0
,,65391353897d68dd53a067da,66daf5c66ab9d29978b9c0bb,2024-09-06_15h30.26.173,mdp,2024.2.1,Win32,59.88023952,66d7945b1baad48e845df3ce,,,,,,,,,,,,,,,,,,,,,894.4992,894.4992,894.5002,895.5317,1,0,right,0.5122,,895.5326,896.3316,0,1,left,896.3324,897.1648,1,0,right,1,897.1649,897.1649,897.166,898.6646,0,12,12,12,1,0.2,0.8,0.6,0.4,,,,,,,,,,,,,,,0.2665,,0.4,0.6,0.4,0.6,0.6,0.4,0.2,0.8,,,0.3165,,0.4,0.6,0.6,0.4,0.2,0.8,0.6,0.4,1,0
,,65391353897d68dd53a067da,66daf5c66ab9d29978b9c0bb,2024-09-06_15h30.26.173,mdp,2024.2.1,Win32,59.88023952,66d7945b1baad48e845df3ce,,,,,,,,,,,,,,,,,,,,,898.6649,898.6649,898.666,899.5314,1,1,right,0.3355,,899.5323,900.3476,0,0,left,900.3485,900.8976,1,0,right,1,900.8977,900.8977,900.8985,902.3978,0,13,13,13,1,0.2,0.8,0.6,0.4,,,,,,,,,,,,,,,0.2924,,0.6,0.4,0.6,0.4,0.6,0.4,0.2,0.8,,,0.0399,,0.4,0.6,0.6,0.4,0.2,0.8,0.6,0.4,1,0
,,65391353897d68dd53a067da,66daf5c66ab9d29978b9c0bb,2024-09-06_15h30.26.173,mdp,2024.2.1,Win32,59.88023952,66d7945b1baad48e845df3ce,,,,,,,,,,,,,,,,,,,,,902.3983,902.3983,902.3994,903.2475,1,1,right,0.323,,903.2487,903.9975,0,0,left,903.9989,904.6971,1,1,right,0,904.6972,904.6972,904.6983,906.197,0,14,14,14,1,0.2,0.8,0.6,0.4,,,,,,,,,,,,,,,0.2336,,0.6,0.4,0.6,0.4,0.6,0.4,0.2,0.8,,,0.169,,0.4,0.6,0.6,0.4,0.2,0.8,0.6,0.4,1,0
,,65391353897d68dd53a067da,66daf5c66ab9d29978b9c0bb,2024-09-06_15h30.26.173,mdp,2024.2.1,Win32,59.88023952,66d7945b1baad48e845df3ce,,,,,,,,,,,,,,,,,,,,,906.1973,906.1973,906.1983,907.0968,0,1,left,0.3775,,907.0979,907.9301,1,1,right,907.9309,908.7969,0,0,left,1,908.797,908.7971,908.7978,910.2967,0,15,15,15,1,0.2,0.8,0.6,0.4,,,,,,,,,,,,,,,0.317,,0.6,0.4,0.6,0.4,0.6,0.4,0.2,0.8,,,0.3461,,0.4,0.6,0.6,0.4,0.6,0.4,0.8,0.2,1,0
,,65391353897d68dd53a067da,66daf5c66ab9d29978b9c0bb,2024-09-06_15h30.26.173,mdp,2024.2.1,Win32,59.88023952,66d7945b1baad48e845df3ce,,,,,,,,,,,,,,,,,,,,,910.297,910.2971,910.2979,911.2964,0,0,left,0.4761,,911.2974,911.9965,1,0,right,911.9974,912.6629,0,0,left,1,912.663,912.663,912.6638,914.163,0,16,16,16,1,0.2,0.8,0.6,0.4,,,,,,,,,,,,,,,0.1729,,0.6,0.4,0.6,0.4,0.6,0.4,0.2,0.8,,,0.1515,,0.4,0.6,0.6,0.4,0.6,0.4,0.8,0.2,1,0
,,65391353897d68dd53a067da,66daf5c66ab9d29978b9c0bb,2024-09-06_15h30.26.173,mdp,2024.2.1,Win32,59.88023952,66d7945b1baad48e845df3ce,,,,,,,,,,,,,,,,,,,,,914.1634,914.1634,914.1643,914.7626,0,1,left,0.0746,,914.7635,915.4457,1,0,right,915.4467,916.0957,0,0,left,1,916.0957,916.0957,916.0967,917.5953,0,17,17,17,1,0.2,0.8,0.6,0.4,,,,,,,,,,,,,,,0.1468,,0.6,0.4,0.6,0.4,0.6,0.4,0.2,0.8,,,0.117,,0.4,0.6,0.6,0.4,0.6,0.4,0.8,0.2,1,0
,,65391353897d68dd53a067da,66daf5c66ab9d29978b9c0bb,2024-09-06_15h30.26.173,mdp,2024.2.1,Win32,59.88023952,66d7945b1baad48e845df3ce,,,,,,,,,,,,,,,,,,,,,917.5958,917.5958,917.5967,918.4291,0,1,left,0.3066,,918.4299,919.1126,1,1,right,919.114,919.7123,0,1,left,0,919.7124,919.7124,919.7135,921.212,0,18,18,18,1,0.2,0.8,0.6,0.4,,,,,,,,,,,,,,,0.1545,,0.6,0.4,0.6,0.4,0.6,0.4,0.2,0.8,,,0.0679,,0.4,0.6,0.6,0.4,0.6,0.4,0.8,0.2,1,0
,,65391353897d68dd53a067da,66daf5c66ab9d29978b9c0bb,2024-09-06_15h30.26.173,mdp,2024.2.1,Win32,59.88023952,66d7945b1baad48e845df3ce,,,,,,,,,,,,,,,,,,,,,921.2125,921.2125,921.2134,921.8448,1,0,right,0.1117,,921.8457,922.4951,0,0,left,922.4964,923.2782,1,0,right,1,923.2783,923.2783,923.279,924.7778,0,19,19,19,1,0.2,0.8,0.6,0.4,,,,,,,,,,,,,,,0.1134,,0.6,0.4,0.6,0.4,0.6,0.4,0.2,0.8,,,0.2516,,0.4,0.6,0.6,0.4,0.4,0.6,0.2,0.8,1,0
,,65391353897d68dd53a067da,66daf5c66ab9d29978b9c0bb,2024-09-06_15h30.26.173,mdp,2024.2.1,Win32,59.88023952,66d7945b1baad48e845df3ce,,,,,,,,,,,,,,,,,,,,,924.7782,924.7782,924.779,925.628,1,1,right,0.3286,,925.6289,926.3609,0,0,left,926.3619,927.1109,1,1,right,0,927.111,927.111,927.1119,928.6106,0,20,20,20,1,0.2,0.8,0.6,0.4,,,,,,,,,,,,,,,0.225,,0.6,0.4,0.6,0.4,0.6,0.4,0.2,0.8,,,0.2354,,0.4,0.6,0.6,0.4,0.4,0.6,0.2,0.8,1,0
,,65391353897d68dd53a067da,66daf5c66ab9d29978b9c0bb,2024-09-06_15h30.26.173,mdp,2024.2.1,Win32,59.88023952,66d7945b1baad48e845df3ce,,,,,,,,,,,,,,,,,,,,,928.611,928.611,928.6119,929.7777,0,0,left,0.6457,,929.7785,930.4272,1,0,right,930.428,931.0773,0,0,left,1,931.0773,931.0773,931.0786,932.5768,0,21,21,21,1,0.2,0.8,0.6,0.4,,,,,,,,,,,,,,,0.1232,,0.6,0.4,0.6,0.4,0.6,0.4,0.2,0.8,,,0.1188,,0.4,0.6,0.6,0.4,0.4,0.6,0.2,0.8,1,0
,,65391353897d68dd53a067da,66daf5c66ab9d29978b9c0bb,2024-09-06_15h30.26.173,mdp,2024.2.1,Win32,59.88023952,66d7945b1baad48e845df3ce,,,,,,,,,,,,,,,,,,,,,932.5772,932.5772,932.578,933.4602,0,1,left,0.3507,,933.461,934.0266,1,0,right,934.0274,934.5766,0,1,left,0,934.5767,934.5767,934.5775,936.0763,0,22,22,22,1,0.2,0.8,0.6,0.4,,,,,,,,,,,,,,,0.0428,,0.6,0.4,0.6,0.4,0.6,0.4,0.2,0.8,,,0.0169,,0.6,0.4,0.8,0.2,0.4,0.6,0.2,0.8,1,0
,,65391353897d68dd53a067da,66daf5c66ab9d29978b9c0bb,2024-09-06_15h30.26.173,mdp,2024.2.1,Win32,59.88023952,66d7945b1baad48e845df3ce,,,,,,,,,,,,,,,,,,,,,936.0768,936.0768,936.0777,936.9264,1,0,right,0.3236,,936.9271,937.4929,0,0,left,937.494,938.6928,1,1,right,0,938.6929,938.6929,938.6936,940.1925,0,23,23,23,1,0.2,0.8,0.6,0.4,,,,,,,,,,,,,,,0.0365,,0.6,0.4,0.6,0.4,0.6,0.4,0.2,0.8,,,0.6737,,0.6,0.4,0.8,0.2,0.4,0.6,0.2,0.8,1,0
,,65391353897d68dd53a067da,66daf5c66ab9d29978b9c0bb,2024-09-06_15h30.26.173,mdp,2024.2.1,Win32,59.88023952,66d7945b1baad48e845df3ce,,,,,,,,,,,,,,,,,,,,,940.1929,940.1929,940.1936,941.0093,1,0,right,0.285,,941.01,941.7422,0,0,left,941.743,942.259,1,0,right,1,942.2591,942.2591,942.2602,943.759,0,24,24,24,1,0.2,0.8,0.6,0.4,,,,,,,,,,,,,,,0.2141,,0.6,0.4,0.6,0.4,0.6,0.4,0.2,0.8,,,0.0027,,0.6,0.4,0.8,0.2,0.4,0.6,0.2,0.8,1,0
,,65391353897d68dd53a067da,66daf5c66ab9d29978b9c0bb,2024-09-06_15h30.26.173,mdp,2024.2.1,Win32,59.88023952,66d7945b1baad48e845df3ce,,,,,,,,,,,,,,,,,,,,,943.7595,943.7595,943.7603,944.5586,1,0,right,0.2685,,944.5594,945.6751,0,0,left,945.6758,946.4583,1,0,right,1,946.4583,946.4583,946.4592,947.9582,0,25,25,25,1,0.2,0.8,0.6,0.4,,,,,,,,,,,,,,,0.5865,,0.6,0.4,0.6,0.4,0.6,0.4,0.2,0.8,,,0.2778,,0.6,0.4,0.8,0.2,0.4,0.6,0.2,0.8,1,0
,,65391353897d68dd53a067da,66daf5c66ab9d29978b9c0bb,2024-09-06_15h30.26.173,mdp,2024.2.1,Win32,59.88023952,66d7945b1baad48e845df3ce,,,,,,,,,,,,,,,,,,,,,947.9586,947.9586,947.9594,948.7416,1,0,right,0.2583,,948.7427,949.4913,0,0,left,949.4924,950.1578,1,0,right,1,950.158,950.158,950.159,951.658,0,26,26,26,1,0.2,0.8,0.6,0.4,,,,,,,,,,,,,,,0.217,,0.6,0.4,0.6,0.4,0.6,0.4,0.2,0.8,,,0.1596,,0.6,0.4,0.8,0.2,0.4,0.6,0.2,0.8,1,0
,,65391353897d68dd53a067da,66daf5c66ab9d29978b9c0bb,2024-09-06_15h30.26.173,mdp,2024.2.1,Win32,59.88023952,66d7945b1baad48e845df3ce,,,,,,,,,,,,,,,,,,,,,951.6585,951.6585,951.6594,952.791,1,1,right,0.6004,,952.792,953.5908,0,1,left,953.592,954.3741,1,0,right,1,954.3742,954.3742,954.3751,955.8738,0,27,27,27,1,0.2,0.8,0.6,0.4,,,,,,,,,,,,,,,0.271,,0.6,0.4,0.6,0.4,0.6,0.4,0.2,0.8,,,0.2497,,0.4,0.6,0.6,0.4,0.4,0.6,0.2,0.8,1,0
,,65391353897d68dd53a067da,66daf5c66ab9d29978b9c0bb,2024-09-06_15h30.26.173,mdp,2024.2.1,Win32,59.88023952,66d7945b1baad48e845df3ce,,,,,,,,,,,,,,,,,,,,,955.8743,955.8743,955.8752,956.6906,1,0,right,0.2893,,956.6917,957.4735,0,1,left,957.4747,958.257,1,1,right,0,958.257,958.257,958.2579,959.7566,0,28,28,28,1,0.2,0.8,0.6,0.4,,,,,,,,,,,,,,,0.247,,0.6,0.4,0.6,0.4,0.6,0.4,0.2,0.8,,,0.2732,,0.4,0.6,0.6,0.4,0.4,0.6,0.2,0.8,1,0
,,65391353897d68dd53a067da,66daf5c66ab9d29978b9c0bb,2024-09-06_15h30.26.173,mdp,2024.2.1,Win32,59.88023952,66d7945b1baad48e845df3ce,,,,,,,,,,,,,,,,,,,,,959.757,959.757,959.7581,960.6897,0,1,left,0.4125,,960.6905,961.473,1,0,right,961.4741,962.123,0,0,left,1,962.123,962.123,962.1242,963.6231,0,29,29,29,1,0.2,0.8,0.6,0.4,,,,,,,,,,,,,,,0.2662,,0.6,0.4,0.6,0.4,0.6,0.4,0.2,0.8,,,0.1219,,0.4,0.6,0.6,0.4,0.4,0.6,0.2,0.8,1,0
,,65391353897d68dd53a067da,66daf5c66ab9d29978b9c0bb,2024-09-06_15h30.26.173,mdp,2024.2.1,Win32,59.88023952,66d7945b1baad48e845df3ce,,,,,,,,,,,,,,,,,,,,,963.6235,963.6235,963.6246,964.4061,0,1,left,0.2567,,964.4068,965.1226,1,1,right,965.1236,965.806,0,1,left,0,965.8061,965.8061,965.8067,967.3056,0,30,30,30,1,0.2,0.8,0.6,0.4,,,,,,,,,,,,,,,0.1932,,0.6,0.4,0.6,0.4,0.6,0.4,0.2,0.8,,,0.1707,,0.4,0.6,0.6,0.4,0.4,0.6,0.2,0.8,1,0
,,65391353897d68dd53a067da,66daf5c66ab9d29978b9c0bb,2024-09-06_15h30.26.173,mdp,2024.2.1,Win32,59.88023952,66d7945b1baad48e845df3ce,,,,,,,,,,,,,,,,,,,,,967.3061,967.3061,967.3068,967.9058,0,1,left,0.0665,,967.9067,968.7389,0,1,left,968.7399,969.472,1,0,right,1,969.4721,969.4721,969.4733,970.9719,0,31,31,31,1,0.2,0.8,0.6,0.4,,,,,,,,,,,,,,,0.3001,,0.6,0.4,0.6,0.4,0.6,0.4,0.2,0.8,,,0.2218,,0.6,0.4,0.2,0.8,0.4,0.6,0.2,0.8,1,0
,,65391353897d68dd53a067da,66daf5c66ab9d29978b9c0bb,2024-09-06_15h30.26.173,mdp,2024.2.1,Win32,59.88023952,66d7945b1baad48e845df3ce,,,,,,,,,,,,,,,,,,,,,970.9722,970.9722,970.973,971.8053,0,1,left,0.3041,,971.8064,972.5722,0,0,left,972.573,973.3048,1,1,right,0,973.3049,973.3049,973.3057,974.8046,0,32,32,32,1,0.2,0.8,0.6,0.4,,,,,,,,,,,,,,,0.2473,,0.6,0.4,0.6,0.4,0.6,0.4,0.2,0.8,,,0.2041,,0.6,0.4,0.2,0.8,0.4,0.6,0.2,0.8,1,0
,,65391353897d68dd53a067da,66daf5c66ab9d29978b9c0bb,2024-09-06_15h30.26.173,mdp,2024.2.1,Win32,59.88023952,66d7945b1baad48e845df3ce,,,,,,,,,,,,,,,,,,,,,974.8049,974.805,974.8058,975.7215,1,0,right,0.4035,,975.7227,976.4214,1,1,right,976.4227,977.1046,0,0,left,1,977.1047,977.1047,977.106,978.6044,0,33,33,33,1,0.2,0.8,0.6,0.4,,,,,,,,,,,,,,,0.1871,,0.6,0.4,0.6,0.4,0.6,0.4,0.2,0.8,,,0.1654,,0.6,0.4,0.2,0.8,0.2,0.8,0.6,0.4,1,0
,,65391353897d68dd53a067da,66daf5c66ab9d29978b9c0bb,2024-09-06_15h30.26.173,mdp,2024.2.1,Win32,59.88023952,66d7945b1baad48e845df3ce,,,,,,,,,,,,,,,,,,,,,978.6047,978.6047,978.6054,979.3707,1,0,right,0.2348,,979.3715,980.121,1,1,right,980.1221,980.7039,0,0,left,1,980.704,980.704,980.7048,982.2041,0,34,34,34,1,0.2,0.8,0.6,0.4,,,,,,,,,,,,,,,0.2261,,0.6,0.4,0.6,0.4,0.6,0.4,0.2,0.8,,,0.0561,,0.6,0.4,0.2,0.8,0.2,0.8,0.6,0.4,1,0
,,65391353897d68dd53a067da,66daf5c66ab9d29978b9c0bb,2024-09-06_15h30.26.173,mdp,2024.2.1,Win32,59.88023952,66d7945b1baad48e845df3ce,,,,,,,,,,,,,,,,,,,,,982.2046,982.2046,982.2053,983.1203,1,0,right,0.3944,,983.1212,983.7868,1,1,right,983.7876,984.4203,0,1,left,0,984.4203,984.4203,984.4211,985.9199,0,35,35,35,1,0.2,0.8,0.6,0.4,,,,,,,,,,,,,,,0.1641,,0.6,0.4,0.6,0.4,0.6,0.4,0.2,0.8,,,0.1253,,0.6,0.4,0.2,0.8,0.2,0.8,0.6,0.4,1,0
,,65391353897d68dd53a067da,66daf5c66ab9d29978b9c0bb,2024-09-06_15h30.26.173,mdp,2024.2.1,Win32,59.88023952,66d7945b1baad48e845df3ce,,,,,,,,,,,,,,,,,,,,,985.9202,985.9202,985.9211,986.8533,1,0,right,0.4109,,986.8541,987.5863,0,1,left,987.5873,988.1536,0,1,left,0,988.1536,988.1537,988.1544,989.6527,0,36,36,36,1,0.8,0.2,0.4,0.6,,,,,,,,,,,,,,,0.2031,,0.6,0.4,0.6,0.4,0.6,0.4,0.2,0.8,,,0.0439,,0.6,0.4,0.2,0.8,0.2,0.8,0.6,0.4,1,0
,,65391353897d68dd53a067da,66daf5c66ab9d29978b9c0bb,2024-09-06_15h30.26.173,mdp,2024.2.1,Win32,59.88023952,66d7945b1baad48e845df3ce,,,,,,,,,,,,,,,,,,,,,989.6532,989.6532,989.6542,990.5527,0,0,left,0.3726,,990.554,991.3192,1,0,right,991.3201,991.903,1,0,right,1,991.903,991.903,991.9037,993.4025,0,37,37,37,1,0.8,0.2,0.4,0.6,,,,,,,,,,,,,,,0.2391,,0.6,0.4,0.6,0.4,0.6,0.4,0.2,0.8,,,0.0721,,0.6,0.4,0.2,0.8,0.2,0.8,0.6,0.4,1,0
,,65391353897d68dd53a067da,66daf5c66ab9d29978b9c0bb,2024-09-06_15h30.26.173,mdp,2024.2.1,Win32,59.88023952,66d7945b1baad48e845df3ce,,,,,,,,,,,,,,,,,,,,,993.4029,993.4029,993.4036,994.2024,0,0,left,0.2768,,994.2032,995.0022,1,1,right,995.0034,995.9687,1,1,right,0,995.9687,995.9688,995.9695,997.4687,0,38,38,38,1,0.8,0.2,0.4,0.6,,,,,,,,,,,,,,,0.2845,,0.6,0.4,0.6,0.4,0.6,0.4,0.2,0.8,,,0.4309,,0.6,0.4,0.2,0.8,0.2,0.8,0.6,0.4,1,0
,,65391353897d68dd53a067da,66daf5c66ab9d29978b9c0bb,2024-09-06_15h30.26.173,mdp,2024.2.1,Win32,59.88023952,66d7945b1baad48e845df3ce,,,,,,,,,,,,,,,,,,,,,997.4693,997.4693,997.4702,998.3852,1,1,right,0.3844,,998.3861,999.1681,0,0,left,999.1693,999.9014,1,0,right,1,999.9015,999.9015,999.9024,1001.4014,0,39,39,39,1,0.8,0.2,0.4,0.6,,,,,,,,,,,,,,,0.2558,,0.6,0.4,0.6,0.4,0.6,0.4,0.2,0.8,,,0.1969,,0.6,0.4,0.2,0.8,0.2,0.8,0.6,0.4,1,0
,,65391353897d68dd53a067da,66daf5c66ab9d29978b9c0bb,2024-09-06_15h30.26.173,mdp,2024.2.1,Win32,59.88023952,66d7945b1baad48e845df3ce,,,,,,,,,,,,,,,,,,,,,1001.4019,1001.4019,1001.4027,1002.218,1,1,right,0.2967,,1002.219,1002.9847,0,1,left,1002.9858,1004.0847,1,0,right,1,1004.0847,1004.0847,1004.0857,1005.5844,0,40,40,40,1,0.8,0.2,0.4,0.6,,,,,,,,,,,,,,,0.2337,,0.6,0.4,0.6,0.4,0.6,0.4,0.2,0.8,,,0.5626,,0.6,0.4,0.2,0.8,0.2,0.8,0.6,0.4,1,0
,,65391353897d68dd53a067da,66daf5c66ab9d29978b9c0bb,2024-09-06_15h30.26.173,mdp,2024.2.1,Win32,59.88023952,66d7945b1baad48e845df3ce,,,,,,,,,,,,,,,,,,,,,1005.5847,1005.5847,1005.5855,1006.5673,1,0,right,0.463,,1006.5682,1007.4338,0,0,left,1007.4347,1008.1839,1,1,right,0,1008.1841,1008.1841,1008.1852,1009.6839,0,41,41,41,1,0.8,0.2,0.4,0.6,,,,,,,,,,,,,,,0.3354,,0.2,0.8,0.8,0.2,0.6,0.4,0.2,0.8,,,0.2294,,0.6,0.4,0.2,0.8,0.2,0.8,0.6,0.4,1,0
,,65391353897d68dd53a067da,66daf5c66ab9d29978b9c0bb,2024-09-06_15h30.26.173,mdp,2024.2.1,Win32,59.88023952,66d7945b1baad48e845df3ce,,,,,,,,,,,,,,,,,,,,,1009.6845,1009.6846,1009.6855,1010.8166,0,0,left,0.6125,,1010.8175,1011.5331,1,1,right,1011.5339,1012.2665,0,1,left,0,1012.2666,1012.2666,1012.2676,1013.7666,0,42,42,42,1,0.8,0.2,0.4,0.6,,,,,,,,,,,,,,,0.1944,,0.4,0.6,0.4,0.6,0.6,0.4,0.2,0.8,,,0.227,,0.6,0.4,0.2,0.8,0.2,0.8,0.6,0.4,1,0
,,65391353897d68dd53a067da,66daf5c66ab9d29978b9c0bb,2024-09-06_15h30.26.173,mdp,2024.2.1,Win32,59.88023952,66d7945b1baad48e845df3ce,,,,,,,,,,,,,,,,,,,,,1013.767,1013.767,1013.768,1014.5662,1,0,right,0.2784,,1014.5672,1015.2661,1,1,right,1015.2671,1015.8329,0,1,left,0,1015.8329,1015.8329,1015.8338,1017.3325,0,43,43,43,1,0.8,0.2,0.4,0.6,,,,,,,,,,,,,,,0.1838,,0.4,0.6,0.4,0.6,0.6,0.4,0.2,0.8,,,0.0589,,0.6,0.4,0.2,0.8,0.2,0.8,0.6,0.4,1,0
,,65391353897d68dd53a067da,66daf5c66ab9d29978b9c0bb,2024-09-06_15h30.26.173,mdp,2024.2.1,Win32,59.88023952,66d7945b1baad48e845df3ce,,,,,,,,,,,,,,,,,,,,,1017.3329,1017.3329,1017.3337,1018.1324,1,1,right,0.2788,,1018.1334,1018.899,0,1,left,1018.8998,1019.4989,0,1,left,0,1019.4989,1019.4989,1019.4999,1020.9989,0,44,44,44,1,0.8,0.2,0.4,0.6,,,,,,,,,,,,,,,0.2412,,0.4,0.6,0.4,0.6,0.6,0.4,0.2,0.8,,,0.0706,,0.6,0.4,0.2,0.8,0.2,0.8,0.6,0.4,1,0
,,65391353897d68dd53a067da,66daf5c66ab9d29978b9c0bb,2024-09-06_15h30.26.173,mdp,2024.2.1,Win32,59.88023952,66d7945b1baad48e845df3ce,,,,,,,,,,,,,,,,,,,,,1020.9993,1020.9993,1021.0002,1021.8485,0,0,left,0.3287,,1021.8492,1022.5653,1,0,right,1022.5662,1023.2152,0,0,left,1,1023.2153,1023.2153,1023.2161,1024.7148,0,45,45,45,1,0.8,0.2,0.4,0.6,,,,,,,,,,,,,,,0.2101,,0.4,0.6,0.4,0.6,0.6,0.4,0.2,0.8,,,0.1165,,0.6,0.4,0.2,0.8,0.2,0.8,0.6,0.4,1,0
,,65391353897d68dd53a067da,66daf5c66ab9d29978b9c0bb,2024-09-06_15h30.26.173,mdp,2024.2.1,Win32,59.88023952,66d7945b1baad48e845df3ce,,,,,,,,,,,,,,,,,,,,,1024.7152,1024.7152,1024.7162,1025.5319,0,0,left,0.2917,,1025.5332,1026.3146,1,0,right,1026.3154,1026.9482,0,0,left,1,1026.9482,1026.9482,1026.9492,1028.4477,0,46,46,46,1,0.8,0.2,0.4,0.6,,,,,,,,,,,,,,,0.2527,,0.4,0.6,0.4,0.6,0.6,0.4,0.2,0.8,,,0.1166,,0.6,0.4,0.2,0.8,0.2,0.8,0.6,0.4,1,0
,,65391353897d68dd53a067da,66daf5c66ab9d29978b9c0bb,2024-09-06_15h30.26.173,mdp,2024.2.1,Win32,59.88023952,66d7945b1baad48e845df3ce,,,,,,,,,,,,,,,,,,,,,1028.4481,1028.4481,1028.4488,1029.3143,0,1,left,0.3405,,1029.3151,1030.0641,1,1,right,1030.0651,1030.6974,0,1,left,0,1030.6974,1030.6974,1030.6981,1032.1971,0,47,47,47,1,0.8,0.2,0.4,0.6,,,,,,,,,,,,,,,0.2246,,0.8,0.2,0.2,0.8,0.6,0.4,0.2,0.8,,,0.1039,,0.6,0.4,0.2,0.8,0.2,0.8,0.6,0.4,1,0
,,65391353897d68dd53a067da,66daf5c66ab9d29978b9c0bb,2024-09-06_15h30.26.173,mdp,2024.2.1,Win32,59.88023952,66d7945b1baad48e845df3ce,,,,,,,,,,,,,,,,,,,,,1032.1976,1032.1976,1032.1989,1032.9972,0,0,left,0.2736,,1032.9983,1033.6973,0,0,left,1033.6985,1034.3469,1,1,right,0,1034.3469,1034.3469,1034.3476,1035.8469,0,48,48,48,1,0.8,0.2,0.4,0.6,,,,,,,,,,,,,,,0.1674,,0.8,0.2,0.2,0.8,0.4,0.6,0.4,0.6,,,0.113,,0.6,0.4,0.2,0.8,0.2,0.8,0.6,0.4,1,0
,,65391353897d68dd53a067da,66daf5c66ab9d29978b9c0bb,2024-09-06_15h30.26.173,mdp,2024.2.1,Win32,59.88023952,66d7945b1baad48e845df3ce,,,,,,,,,,,,,,,,,,,,,1035.8475,1035.8475,1035.8487,1036.5465,0,1,left,0.1805,,1036.5472,1037.1466,0,1,left,1037.1475,1038.2469,1,1,right,0,1038.247,1038.247,1038.2476,1039.7462,0,49,49,49,1,0.8,0.2,0.4,0.6,,,,,,,,,,,,,,,0.0668,,0.8,0.2,0.2,0.8,0.4,0.6,0.4,0.6,,,0.5742,,0.6,0.4,0.2,0.8,0.2,0.8,0.6,0.4,1,0
,,65391353897d68dd53a067da,66daf5c66ab9d29978b9c0bb,2024-09-06_15h30.26.173,mdp,2024.2.1,Win32,59.88023952,66d7945b1baad48e845df3ce,,,,,,,,,,,,,,,,,,,,,,,,,,,,,,,,,,,,,,,,,,,,,,,,,,,,,,,,1039.7463,1098.2556,0,3,3,7,1,imgs/goat.png,imgs/cat.png,imgs/elephant.png,imgs/dog.png,imgs/kangaroo.png,,,,,,,,,,,,,,,,,,,,,,,,
,,65391353897d68dd53a067da,66daf5c66ab9d29978b9c0bb,2024-09-06_15h30.26.173,mdp,2024.2.1,Win32,59.88023952,66d7945b1baad48e845df3ce,,,,,,,,,,,,,,1,seqs/st1seq9.csv,1098.2651,1217.3565,space,118.5678,,1217.3649,1217.3649,1217.3655,1251.1023,0,1,left,33.2066,,1251.1101,1251.1105,0,0,,1251.1109,1251.1111,1,1,,0,1251.1111,1251.1111,1251.1114,1252.6021,0,0,0,0,1,0.8,0.2,0.2,0.8,1,0,,,,,,,,,,,,,,,,,,,,,,,,,,,,,,,,,,,,
,,65391353897d68dd53a067da,66daf5c66ab9d29978b9c0bb,2024-09-06_15h30.26.173,mdp,2024.2.1,Win32,59.88023952,66d7945b1baad48e845df3ce,,,,,,,,,,,,,,,,,,,,,1252.6024,1252.6024,1252.6032,1253.8187,1,1,right,0.6843,,1253.8199,1253.8205,0,0,,1253.8213,1253.8216,1,1,,0,1253.8216,1253.8216,1253.8219,1255.318,0,1,1,1,1,0.8,0.2,0.2,0.8,1,0,,,,,,,,,,,,,,,,,,,,,,,,,,,,,,,,,,,,
,,65391353897d68dd53a067da,66daf5c66ab9d29978b9c0bb,2024-09-06_15h30.26.173,mdp,2024.2.1,Win32,59.88023952,66d7945b1baad48e845df3ce,,,,,,,,,,,,,,,,,,,,,1255.3184,1255.3184,1255.3192,1257.0013,0,0,left,1.1612,,1257.0023,1257.0033,0,1,,1257.004,1257.0043,1,0,,1,1257.0044,1257.0044,1257.0047,1258.5011,0,2,2,2,1,0.2,0.8,0.6,0.4,1,0,,,,,,,,,,,,,,,,,,,,,,,,,,,,,,,,,,,,
,,65391353897d68dd53a067da,66daf5c66ab9d29978b9c0bb,2024-09-06_15h30.26.173,mdp,2024.2.1,Win32,59.88023952,66d7945b1baad48e845df3ce,,,,,,,,,,,,,,,,,,,,,1258.5015,1258.5015,1258.5025,1259.3344,0,1,left,0.3006,,1259.3355,1259.3361,0,1,,1259.3368,1259.3373,1,1,,0,1259.3374,1259.3374,1259.3377,1260.8339,0,3,3,3,1,0.2,0.8,0.6,0.4,1,0,,,,,,,,,,,,,,,,,,,,,,,,,,,,,,,,,,,,
,,65391353897d68dd53a067da,66daf5c66ab9d29978b9c0bb,2024-09-06_15h30.26.173,mdp,2024.2.1,Win32,59.88023952,66d7945b1baad48e845df3ce,,,,,,,,,,,,,,,,,,,,,1260.8342,1260.8342,1260.8351,1261.4175,0,1,left,0.057,,1261.4188,1261.4193,0,1,,1261.4201,1261.4204,1,1,,0,1261.4204,1261.4204,1261.4207,1262.9172,0,4,4,4,1,0.2,0.8,0.6,0.4,1,0,,,,,,,,,,,,,,,,,,,,,,,,,,,,,,,,,,,,
,,65391353897d68dd53a067da,66daf5c66ab9d29978b9c0bb,2024-09-06_15h30.26.173,mdp,2024.2.1,Win32,59.88023952,66d7945b1baad48e845df3ce,,,,,,,,,,,,,,,,,,,,,1262.9175,1262.9175,1262.9185,1263.867,0,1,left,0.4195,,1263.8678,1263.8685,0,1,,1263.8693,1263.8697,1,1,,0,1263.8698,1263.8698,1263.8701,1265.3666,0,5,5,5,1,0.2,0.8,0.6,0.4,1,0,,,,,,,,,,,,,,,,,,,,,,,,,,,,,,,,,,,,
,,65391353897d68dd53a067da,66daf5c66ab9d29978b9c0bb,2024-09-06_15h30.26.173,mdp,2024.2.1,Win32,59.88023952,66d7945b1baad48e845df3ce,,,,,,,,,,,,,,,,,,,,,1265.367,1265.367,1265.3679,1266.4334,0,1,left,0.5476,,1266.4343,1266.4348,0,1,,1266.4356,1266.4359,1,1,,0,1266.4359,1266.4359,1266.4362,1267.9331,0,6,6,6,1,0.2,0.8,0.6,0.4,1,0,,,,,,,,,,,,,,,,,,,,,,,,,,,,,,,,,,,,
,,65391353897d68dd53a067da,66daf5c66ab9d29978b9c0bb,2024-09-06_15h30.26.173,mdp,2024.2.1,Win32,59.88023952,66d7945b1baad48e845df3ce,,,,,,,,,,,,,,,,,,,,,1267.9334,1267.9334,1267.9345,1268.7498,1,0,right,0.3055,,1268.7507,1268.7515,0,1,,1268.7523,1268.7526,1,0,,1,1268.7526,1268.7526,1268.7529,1270.2498,0,7,7,7,1,0.2,0.8,0.6,0.4,1,0,,,,,,,,,,,,,,,,,,,,,,,,,,,,,,,,,,,,
,,65391353897d68dd53a067da,66daf5c66ab9d29978b9c0bb,2024-09-06_15h30.26.173,mdp,2024.2.1,Win32,59.88023952,66d7945b1baad48e845df3ce,,,,,,,,,,,,,,,,,,,,,1270.2504,1270.2504,1270.2514,1270.8997,0,1,left,0.1209,,1270.9008,1270.9012,0,1,,1270.9018,1270.9023,1,0,,0,1270.9024,1270.9024,1270.9026,1272.3993,0,8,8,8,1,0.2,0.8,0.6,0.4,1,0,,,,,,,,,,,,,,,,,,,,,,,,,,,,,,,,,,,,
,,65391353897d68dd53a067da,66daf5c66ab9d29978b9c0bb,2024-09-06_15h30.26.173,mdp,2024.2.1,Win32,59.88023952,66d7945b1baad48e845df3ce,,,,,,,,,,,,,,,,,,,,,1272.3996,1272.3996,1272.4006,1273.149,1,1,right,0.2299,,1273.1497,1273.1501,0,0,,1273.1507,1273.1511,1,0,,0,1273.1511,1273.1511,1273.1515,1274.6492,0,9,9,9,1,0.2,0.8,0.6,0.4,1,0,,,,,,,,,,,,,,,,,,,,,,,,,,,,,,,,,,,,
,,65391353897d68dd53a067da,66daf5c66ab9d29978b9c0bb,2024-09-06_15h30.26.173,mdp,2024.2.1,Win32,59.88023952,66d7945b1baad48e845df3ce,,,,,,,,,,,,,,,,,,,,,1274.6496,1274.6496,1274.6508,1275.5155,1,0,right,0.3411,,1275.5165,1275.5172,0,0,,1275.5179,1275.5182,1,1,,1,1275.5182,1275.5183,1275.5186,1277.0152,0,10,10,10,1,0.2,0.8,0.6,0.4,1,0,,,,,,,,,,,,,,,,,,,,,,,,,,,,,,,,,,,,
,,65391353897d68dd53a067da,66daf5c66ab9d29978b9c0bb,2024-09-06_15h30.26.173,mdp,2024.2.1,Win32,59.88023952,66d7945b1baad48e845df3ce,,,,,,,,,,,,,,,,,,,,,1277.0155,1277.0155,1277.0164,1277.8986,1,0,right,0.3496,,1277.8996,1277.9002,0,0,,1277.901,1277.9013,1,0,,1,1277.9013,1277.9013,1277.9017,1279.3986,0,11,11,11,1,0.4,0.6,0.8,0.2,1,0,,,,,,,,,,,,,,,,,,,,,,,,,,,,,,,,,,,,
,,65391353897d68dd53a067da,66daf5c66ab9d29978b9c0bb,2024-09-06_15h30.26.173,mdp,2024.2.1,Win32,59.88023952,66d7945b1baad48e845df3ce,,,,,,,,,,,,,,,,,,,,,1279.3989,1279.399,1279.3999,1280.4481,1,0,right,0.5176,,1280.449,1280.4495,0,0,,1280.45,1280.4504,1,0,,1,1280.4504,1280.4504,1280.4507,1281.9484,0,12,12,12,1,0.4,0.6,0.8,0.2,1,0,,,,,,,,,,,,,,,,,,,,,,,,,,,,,,,,,,,,
,,65391353897d68dd53a067da,66daf5c66ab9d29978b9c0bb,2024-09-06_15h30.26.173,mdp,2024.2.1,Win32,59.88023952,66d7945b1baad48e845df3ce,,,,,,,,,,,,,,,,,,,,,1281.949,1281.949,1281.9499,1282.7813,1,0,right,0.3033,,1282.7822,1282.7828,0,0,,1282.7836,1282.7839,1,0,,1,1282.7839,1282.7839,1282.7843,1284.2812,0,13,13,13,1,0.4,0.6,0.8,0.2,1,0,,,,,,,,,,,,,,,,,,,,,,,,,,,,,,,,,,,,
,,65391353897d68dd53a067da,66daf5c66ab9d29978b9c0bb,2024-09-06_15h30.26.173,mdp,2024.2.1,Win32,59.88023952,66d7945b1baad48e845df3ce,,,,,,,,,,,,,,,,,,,,,1284.2815,1284.2815,1284.2823,1285.0475,1,0,right,0.2337,,1285.0483,1285.0489,0,1,,1285.0497,1285.0499,1,0,,1,1285.05,1285.05,1285.0502,1286.5472,0,14,14,14,1,0.4,0.6,0.8,0.2,1,0,,,,,,,,,,,,,,,,,,,,,,,,,,,,,,,,,,,,
,,65391353897d68dd53a067da,66daf5c66ab9d29978b9c0bb,2024-09-06_15h30.26.173,mdp,2024.2.1,Win32,59.88023952,66d7945b1baad48e845df3ce,,,,,,,,,,,,,,,,,,,,,1286.5475,1286.5475,1286.5485,1287.347,1,0,right,0.2793,,1287.3481,1287.3486,0,0,,1287.3495,1287.3498,1,0,,1,1287.3498,1287.3498,1287.3501,1288.8473,0,15,15,15,1,0.4,0.6,0.8,0.2,1,0,,,,,,,,,,,,,,,,,,,,,,,,,,,,,,,,,,,,
,,65391353897d68dd53a067da,66daf5c66ab9d29978b9c0bb,2024-09-06_15h30.26.173,mdp,2024.2.1,Win32,59.88023952,66d7945b1baad48e845df3ce,,,,,,,,,,,,,,,,,,,,,1288.8477,1288.8477,1288.8483,1289.5471,1,1,right,0.1743,,1289.5478,1289.5484,0,0,,1289.5492,1289.5494,1,0,,0,1289.5494,1289.5494,1289.5497,1291.0468,0,16,16,16,1,0.8,0.2,0.6,0.4,1,0,,,,,,,,,,,,,,,,,,,,,,,,,,,,,,,,,,,,
,,65391353897d68dd53a067da,66daf5c66ab9d29978b9c0bb,2024-09-06_15h30.26.173,mdp,2024.2.1,Win32,59.88023952,66d7945b1baad48e845df3ce,,,,,,,,,,,,,,,,,,,,,1291.0472,1291.0472,1291.048,1291.9305,0,0,left,0.3548,,1291.9313,1291.9318,0,1,,1291.9323,1291.933,1,0,,1,1291.933,1291.933,1291.9334,1293.4296,0,17,17,17,1,0.8,0.2,0.6,0.4,1,0,,,,,,,,,,,,,,,,,,,,,,,,,,,,,,,,,,,,
,,65391353897d68dd53a067da,66daf5c66ab9d29978b9c0bb,2024-09-06_15h30.26.173,mdp,2024.2.1,Win32,59.88023952,66d7945b1baad48e845df3ce,,,,,,,,,,,,,,,,,,,,,1293.4299,1293.4299,1293.4307,1294.213,0,0,left,0.2774,,1294.2141,1294.2148,0,0,,1294.2156,1294.2159,1,0,,1,1294.2159,1294.2159,1294.2161,1295.713,0,18,18,18,1,0.4,0.6,0.8,0.2,1,0,,,,,,,,,,,,,,,,,,,,,,,,,,,,,,,,,,,,
,,65391353897d68dd53a067da,66daf5c66ab9d29978b9c0bb,2024-09-06_15h30.26.173,mdp,2024.2.1,Win32,59.88023952,66d7945b1baad48e845df3ce,,,,,,,,,,,,,,,,,,,,,1295.7133,1295.7133,1295.7144,1296.9125,0,1,left,0.679,,1296.9134,1296.9141,0,0,,1296.9149,1296.9155,1,1,,0,1296.9155,1296.9155,1296.9159,1298.4124,0,19,19,19,1,0.4,0.6,0.8,0.2,1,0,,,,,,,,,,,,,,,,,,,,,,,,,,,,,,,,,,,,
,,65391353897d68dd53a067da,66daf5c66ab9d29978b9c0bb,2024-09-06_15h30.26.173,mdp,2024.2.1,Win32,59.88023952,66d7945b1baad48e845df3ce,,,,,,,,,,,,,,,,,,,,,1298.4128,1298.4129,1298.4138,1299.7455,0,0,left,0.8042,,1299.7464,1299.7471,0,1,,1299.7478,1299.748,1,0,,1,1299.748,1299.7481,1299.7484,1301.2455,0,20,20,20,1,0.4,0.6,0.8,0.2,1,0,,,,,,,,,,,,,,,,,,,,,,,,,,,,,,,,,,,,
,,65391353897d68dd53a067da,66daf5c66ab9d29978b9c0bb,2024-09-06_15h30.26.173,mdp,2024.2.1,Win32,59.88023952,66d7945b1baad48e845df3ce,,,,,,,,,,,,,,,,,,,,,1301.2458,1301.2458,1301.2467,1318.0767,0,0,left,16.3006,,1318.0845,1318.0849,0,0,,1318.0853,1318.0856,1,0,,1,1318.0856,1318.0856,1318.0859,1319.5765,0,21,21,21,1,0.8,0.2,0.2,0.8,1,0,,,,,,,,,,,,,,,,,,,,,,,,,,,,,,,,,,,,
,,65391353897d68dd53a067da,66daf5c66ab9d29978b9c0bb,2024-09-06_15h30.26.173,mdp,2024.2.1,Win32,59.88023952,66d7945b1baad48e845df3ce,,,,,,,,,,,,,,,,,,,,,1319.5768,1319.5768,1319.5778,1320.5263,0,0,left,0.4235,,1320.5271,1320.528,0,0,,1320.5288,1320.5292,1,0,,1,1320.5292,1320.5292,1320.5295,1322.0259,0,22,22,22,1,0.8,0.2,0.2,0.8,1,0,,,,,,,,,,,,,,,,,,,,,,,,,,,,,,,,,,,,
,,65391353897d68dd53a067da,66daf5c66ab9d29978b9c0bb,2024-09-06_15h30.26.173,mdp,2024.2.1,Win32,59.88023952,66d7945b1baad48e845df3ce,,,,,,,,,,,,,,,,,,,,,1322.0262,1322.0262,1322.027,1324.7924,0,0,left,2.2378,,1324.7994,1324.7998,0,1,,1324.8002,1324.8004,1,0,,1,1324.8004,1324.8004,1324.8007,1326.2922,0,23,23,23,1,0.8,0.2,0.2,0.8,1,0,,,,,,,,,,,,,,,,,,,,,,,,,,,,,,,,,,,,
,,65391353897d68dd53a067da,66daf5c66ab9d29978b9c0bb,2024-09-06_15h30.26.173,mdp,2024.2.1,Win32,59.88023952,66d7945b1baad48e845df3ce,,,,,,,,,,,,,,,,,,,,,1326.2927,1326.2927,1326.2938,1326.8423,0,0,left,0.0168,,1326.8434,1326.844,0,0,,1326.8448,1326.8452,1,1,,1,1326.8452,1326.8452,1326.8455,1328.3419,0,24,24,24,1,0.8,0.2,0.2,0.8,1,0,,,,,,,,,,,,,,,,,,,,,,,,,,,,,,,,,,,,
,,65391353897d68dd53a067da,66daf5c66ab9d29978b9c0bb,2024-09-06_15h30.26.173,mdp,2024.2.1,Win32,59.88023952,66d7945b1baad48e845df3ce,,,,,,,,,,,,,,,,,,,,,1328.3422,1328.3422,1328.3432,1329.2583,0,0,left,0.3851,,1329.2595,1329.2604,0,0,,1329.2613,1329.2616,1,1,,1,1329.2616,1329.2616,1329.2621,1330.7583,0,25,25,25,1,0.8,0.2,0.2,0.8,1,0,,,,,,,,,,,,,,,,,,,,,,,,,,,,,,,,,,,,
,,65391353897d68dd53a067da,66daf5c66ab9d29978b9c0bb,2024-09-06_15h30.26.173,mdp,2024.2.1,Win32,59.88023952,66d7945b1baad48e845df3ce,,,,,,,,,,,,,,,,,,,,,1330.7585,1330.7585,1330.7595,1331.6249,0,1,left,0.3382,,1331.6262,1331.627,0,1,,1331.6277,1331.6282,1,1,,0,1331.6282,1331.6282,1331.6286,1333.1246,0,26,26,26,1,0.4,0.6,0.6,0.4,1,0,,,,,,,,,,,,,,,,,,,,,,,,,,,,,,,,,,,,
,,65391353897d68dd53a067da,66daf5c66ab9d29978b9c0bb,2024-09-06_15h30.26.173,mdp,2024.2.1,Win32,59.88023952,66d7945b1baad48e845df3ce,,,,,,,,,,,,,,,,,,,,,1333.1249,1333.1249,1333.1262,1333.8411,0,1,left,0.1837,,1333.8422,1333.8428,0,0,,1333.8436,1333.8439,1,1,,0,1333.8439,1333.8439,1333.8442,1335.3409,0,27,27,27,1,0.4,0.6,0.6,0.4,1,0,,,,,,,,,,,,,,,,,,,,,,,,,,,,,,,,,,,,
,,65391353897d68dd53a067da,66daf5c66ab9d29978b9c0bb,2024-09-06_15h30.26.173,mdp,2024.2.1,Win32,59.88023952,66d7945b1baad48e845df3ce,,,,,,,,,,,,,,,,,,,,,1335.3412,1335.3412,1335.3421,1340.9575,1,0,right,5.0874,,1340.9651,1340.9655,0,0,,1340.9659,1340.9661,1,0,,1,1340.9661,1340.9661,1340.9665,1342.457,0,28,28,28,1,0.4,0.6,0.6,0.4,1,0,,,,,,,,,,,,,,,,,,,,,,,,,,,,,,,,,,,,
,,65391353897d68dd53a067da,66daf5c66ab9d29978b9c0bb,2024-09-06_15h30.26.173,mdp,2024.2.1,Win32,59.88023952,66d7945b1baad48e845df3ce,,,,,,,,,,,,,,,,,,,,,1342.4573,1342.4573,1342.458,1343.6901,1,0,right,0.7039,,1343.691,1343.6916,0,0,,1343.692,1343.6925,1,1,,1,1343.6926,1343.6926,1343.6929,1345.1899,0,29,29,29,1,0.4,0.6,0.6,0.4,1,0,,,,,,,,,,,,,,,,,,,,,,,,,,,,,,,,,,,,
,,65391353897d68dd53a067da,66daf5c66ab9d29978b9c0bb,2024-09-06_15h30.26.173,mdp,2024.2.1,Win32,59.88023952,66d7945b1baad48e845df3ce,,,,,,,,,,,,,,,,,,,,,1345.1902,1345.1902,1345.191,1346.0899,1,0,right,0.3671,,1346.091,1346.0919,0,0,,1346.093,1346.0934,1,1,,1,1346.0936,1346.0936,1346.0941,1347.5895,0,30,30,30,1,0.4,0.6,0.6,0.4,1,0,,,,,,,,,,,,,,,,,,,,,,,,,,,,,,,,,,,,
,,65391353897d68dd53a067da,66daf5c66ab9d29978b9c0bb,2024-09-06_15h30.26.173,mdp,2024.2.1,Win32,59.88023952,66d7945b1baad48e845df3ce,,,,,,,,,,,,,,,,,,,,,1347.5898,1347.5898,1347.5912,1349.0399,1,0,right,0.917,,1349.041,1349.0416,0,1,,1349.0424,1349.0426,1,0,,1,1349.0426,1349.0426,1349.043,1350.5389,0,31,31,31,1,0.4,0.6,0.6,0.4,1,0,,,,,,,,,,,,,,,,,,,,,,,,,,,,,,,,,,,,
,,65391353897d68dd53a067da,66daf5c66ab9d29978b9c0bb,2024-09-06_15h30.26.173,mdp,2024.2.1,Win32,59.88023952,66d7945b1baad48e845df3ce,,,,,,,,,,,,,,,,,,,,,1350.5393,1350.5393,1350.5402,1351.6387,1,0,right,0.5749,,1351.6397,1351.6404,0,0,,1351.6411,1351.6413,1,0,,1,1351.6413,1351.6413,1351.6416,1353.1389,0,32,32,32,1,0.4,0.6,0.6,0.4,1,0,,,,,,,,,,,,,,,,,,,,,,,,,,,,,,,,,,,,
,,65391353897d68dd53a067da,66daf5c66ab9d29978b9c0bb,2024-09-06_15h30.26.173,mdp,2024.2.1,Win32,59.88023952,66d7945b1baad48e845df3ce,,,,,,,,,,,,,,,,,,,,,1353.1394,1353.1394,1353.1404,1354.0717,1,0,right,0.4131,,1354.0725,1354.0731,0,1,,1354.0736,1354.0741,1,0,,1,1354.0742,1354.0742,1354.0745,1355.5723,0,33,33,33,1,0.4,0.6,0.6,0.4,1,0,,,,,,,,,,,,,,,,,,,,,,,,,,,,,,,,,,,,
,,65391353897d68dd53a067da,66daf5c66ab9d29978b9c0bb,2024-09-06_15h30.26.173,mdp,2024.2.1,Win32,59.88023952,66d7945b1baad48e845df3ce,,,,,,,,,,,,,,,,,,,,,1355.5729,1355.5729,1355.5736,1356.3884,1,1,right,0.2894,,1356.3897,1356.3901,0,0,,1356.3908,1356.3911,1,0,,0,1356.3912,1356.3912,1356.3915,1357.8879,0,34,34,34,1,0.4,0.6,0.6,0.4,1,0,,,,,,,,,,,,,,,,,,,,,,,,,,,,,,,,,,,,
,,65391353897d68dd53a067da,66daf5c66ab9d29978b9c0bb,2024-09-06_15h30.26.173,mdp,2024.2.1,Win32,59.88023952,66d7945b1baad48e845df3ce,,,,,,,,,,,,,,,,,,,,,1357.8882,1357.8882,1357.8889,1358.8378,0,0,left,0.4169,,1358.8388,1358.8393,0,0,,1358.8402,1358.8407,1,0,,1,1358.8407,1358.8407,1358.841,1360.3377,0,35,35,35,1,0.4,0.6,0.6,0.4,1,0,,,,,,,,,,,,,,,,,,,,,,,,,,,,,,,,,,,,
,,65391353897d68dd53a067da,66daf5c66ab9d29978b9c0bb,2024-09-06_15h30.26.173,mdp,2024.2.1,Win32,59.88023952,66d7945b1baad48e845df3ce,,,,,,,,,,,,,,,,,,,,,1360.338,1360.338,1360.339,1361.8212,0,1,left,0.9641,,1361.8221,1361.8226,0,1,,1361.8231,1361.8234,1,1,,0,1361.8235,1361.8235,1361.8238,1363.3207,0,36,36,36,1,0.4,0.6,0.6,0.4,1,0,,,,,,,,,,,,,,,,,,,,,,,,,,,,,,,,,,,,
,,65391353897d68dd53a067da,66daf5c66ab9d29978b9c0bb,2024-09-06_15h30.26.173,mdp,2024.2.1,Win32,59.88023952,66d7945b1baad48e845df3ce,,,,,,,,,,,,,,,,,,,,,1363.321,1363.321,1363.322,1364.5872,0,0,left,0.7363,,1364.588,1364.5886,0,0,,1364.5891,1364.5895,1,1,,1,1364.5895,1364.5895,1364.5898,1366.0875,0,37,37,37,1,0.6,0.4,0.4,0.6,1,0,,,,,,,,,,,,,,,,,,,,,,,,,,,,,,,,,,,,
,,65391353897d68dd53a067da,66daf5c66ab9d29978b9c0bb,2024-09-06_15h30.26.173,mdp,2024.2.1,Win32,59.88023952,66d7945b1baad48e845df3ce,,,,,,,,,,,,,,,,,,,,,1366.0878,1366.0879,1366.0889,1367.2034,0,0,left,0.5959,,1367.2041,1367.2046,0,1,,1367.2051,1367.2056,1,0,,1,1367.2056,1367.2056,1367.2059,1368.7036,0,38,38,38,1,0.6,0.4,0.4,0.6,1,0,,,,,,,,,,,,,,,,,,,,,,,,,,,,,,,,,,,,
,,65391353897d68dd53a067da,66daf5c66ab9d29978b9c0bb,2024-09-06_15h30.26.173,mdp,2024.2.1,Win32,59.88023952,66d7945b1baad48e845df3ce,,,,,,,,,,,,,,,,,,,,,1368.704,1368.704,1368.7048,1369.5864,0,1,left,0.3614,,1369.5877,1369.5883,0,1,,1369.5891,1369.5893,1,0,,0,1369.5893,1369.5893,1369.5896,1371.0863,0,39,39,39,1,0.6,0.4,0.4,0.6,1,0,,,,,,,,,,,,,,,,,,,,,,,,,,,,,,,,,,,,
,,65391353897d68dd53a067da,66daf5c66ab9d29978b9c0bb,2024-09-06_15h30.26.173,mdp,2024.2.1,Win32,59.88023952,66d7945b1baad48e845df3ce,,,,,,,,,,,,,,,,,,,,,1371.0866,1371.0866,1371.0875,1372.2198,1,1,right,0.6004,,1372.2207,1372.2212,0,1,,1372.2218,1372.2225,1,0,,0,1372.2225,1372.2225,1372.2228,1373.7192,0,40,40,40,1,0.2,0.8,0.6,0.4,1,0,,,,,,,,,,,,,,,,,,,,,,,,,,,,,,,,,,,,
,,65391353897d68dd53a067da,66daf5c66ab9d29978b9c0bb,2024-09-06_15h30.26.173,mdp,2024.2.1,Win32,59.88023952,66d7945b1baad48e845df3ce,,,,,,,,,,,,,,,,,,,,,1373.7195,1373.7195,1373.7202,1375.0024,0,1,left,0.75,,1375.0032,1375.004,0,0,,1375.005,1375.0053,1,1,,0,1375.0053,1375.0053,1375.0056,1376.5024,0,41,41,41,1,0.6,0.4,0.4,0.6,1,0,,,,,,,,,,,,,,,,,,,,,,,,,,,,,,,,,,,,
