init_exp.started,init_exp.stopped,participant,session,date,expName,psychopyVersion,OS,frameRate,study_id,disp_instruction.started,disp_instruction.stopped,instruction.thisRepN,instruction.thisTrialN,instruction.thisN,instruction.thisIndex,instruction.ran,instimg_path,consent.started,consent.stopped,key_resp_3.keys,key_resp_3.rt,key_resp_3.duration,n_steps,sequence_path,init_block.started,init_block.stopped,key_resp.keys,key_resp.rt,key_resp.duration,init_trials.started,init_trials.stopped,step0.started,step0.stopped,act0,s1,res0.keys,res0.rt,res0.duration,step1.started,step1.stopped,act1,s2,res1.keys,step2.started,step2.stopped,act2,s3,res2.keys,rew,reward_comp.started,reward_comp.stopped,reward_disp.started,reward_disp.stopped,trials.thisRepN,trials.thisTrialN,trials.thisN,trials.thisIndex,trials.ran,s00a0s10,s00a0s11,s00a1s10,s00a1s11,rew10,rew11,break_block.started,break_block.stopped,block.thisRepN,block.thisTrialN,block.thisN,block.thisIndex,block.ran,s00path,s10path,s11path,s20path,s21path,res1.rt,res1.duration,s10a0s20,s10a0s21,s10a1s20,s10a1s21,s11a0s20,s11a0s21,s11a1s20,s11a1s21,rew20,rew21,res2.rt,res2.duration,s20a0s30,s20a0s31,s20a1s30,s20a1s31,s21a0s30,s21a0s31,s21a1s30,s21a1s31,rew30,rew31
0.0002,0.0012,65a9ca4a57dfdc3964333913,66fc984109a53c5aae5f09bc,2024-10-02_02h56.22.114,mdp,2024.2.1,MacIntel,62.11180124,66fa4ebf79326e780c390304,,,,,,,,,,,,,,,,,,,,,,,,,,,,,,,,,,,,,,,,,,,,,,,,,,,,,,,,,,,,,,,,,,,,,,,,,,,,,,,,,,,,,,,,,,,
,,65a9ca4a57dfdc3964333913,66fc984109a53c5aae5f09bc,2024-10-02_02h56.22.114,mdp,2024.2.1,MacIntel,62.11180124,66fa4ebf79326e780c390304,0.004,40.246,0,0,0,0,1,rlnn_exp/rlnn_exp.001.png,,,,,,,,,,,,,,,,,,,,,,,,,,,,,,,,,,,,,,,,,,,,,,,,,,,,,,,,,,,,,,,,,,,,,,,,,,,,,,,,,,,
,,65a9ca4a57dfdc3964333913,66fc984109a53c5aae5f09bc,2024-10-02_02h56.22.114,mdp,2024.2.1,MacIntel,62.11180124,66fa4ebf79326e780c390304,40.2469,71.7451,0,1,1,1,1,rlnn_exp/rlnn_exp.002.png,,,,,,,,,,,,,,,,,,,,,,,,,,,,,,,,,,,,,,,,,,,,,,,,,,,,,,,,,,,,,,,,,,,,,,,,,,,,,,,,,,,
,,65a9ca4a57dfdc3964333913,66fc984109a53c5aae5f09bc,2024-10-02_02h56.22.114,mdp,2024.2.1,MacIntel,62.11180124,66fa4ebf79326e780c390304,71.7459,109.4115,0,2,2,2,1,rlnn_exp/rlnn_exp.003.png,,,,,,,,,,,,,,,,,,,,,,,,,,,,,,,,,,,,,,,,,,,,,,,,,,,,,,,,,,,,,,,,,,,,,,,,,,,,,,,,,,,
,,65a9ca4a57dfdc3964333913,66fc984109a53c5aae5f09bc,2024-10-02_02h56.22.114,mdp,2024.2.1,MacIntel,62.11180124,66fa4ebf79326e780c390304,109.4125,130.9947,0,3,3,3,1,rlnn_exp/rlnn_exp.004.png,,,,,,,,,,,,,,,,,,,,,,,,,,,,,,,,,,,,,,,,,,,,,,,,,,,,,,,,,,,,,,,,,,,,,,,,,,,,,,,,,,,
,,65a9ca4a57dfdc3964333913,66fc984109a53c5aae5f09bc,2024-10-02_02h56.22.114,mdp,2024.2.1,MacIntel,62.11180124,66fa4ebf79326e780c390304,,,,,,,,,130.9955,144.0603,y,3.0221,,,,,,,,,,,,,,,,,,,,,,,,,,,,,,,,,,,,,,,,,,,,,,,,,,,,,,,,,,,,,,,,,,,,,,,,,,,,,,,
,,65a9ca4a57dfdc3964333913,66fc984109a53c5aae5f09bc,2024-10-02_02h56.22.114,mdp,2024.2.1,MacIntel,62.11180124,66fa4ebf79326e780c390304,,,,,,,,,,,,,,1,seqs/st1seq1.csv,144.0656,148.178,space,3.5935,,148.1813,148.1814,148.1817,151.9434,0,0,left,3.2345,,151.9438,151.945,,1,,151.9452,151.9456,,1,,1,151.9458,151.9458,151.9459,153.4445,0,0,0,0,1,0.4,0.6,0.8,0.2,1,0,,,,,,,,,,,,,,,,,,,,,,,,,,,,,,,,,,,,
,,65a9ca4a57dfdc3964333913,66fc984109a53c5aae5f09bc,2024-10-02_02h56.22.114,mdp,2024.2.1,MacIntel,62.11180124,66fa4ebf79326e780c390304,,,,,,,,,,,,,,,,,,,,,153.4453,153.4453,153.4466,156.8444,0,1,left,2.8693,,156.8457,156.8465,,0,,156.8471,156.8476,,0,,0,156.8477,156.8477,156.8481,158.3443,0,1,1,1,1,0.4,0.6,0.8,0.2,1,0,,,,,,,,,,,,,,,,,,,,,,,,,,,,,,,,,,,,
,,65a9ca4a57dfdc3964333913,66fc984109a53c5aae5f09bc,2024-10-02_02h56.22.114,mdp,2024.2.1,MacIntel,62.11180124,66fa4ebf79326e780c390304,,,,,,,,,,,,,,,,,,,,,158.345,158.345,158.3464,161.8445,1,0,right,2.9665,,161.846,161.847,,0,,161.8477,161.8481,,1,,1,161.8481,161.8482,161.8487,163.3432,0,2,2,2,1,0.4,0.6,0.8,0.2,1,0,,,,,,,,,,,,,,,,,,,,,,,,,,,,,,,,,,,,
,,65a9ca4a57dfdc3964333913,66fc984109a53c5aae5f09bc,2024-10-02_02h56.22.114,mdp,2024.2.1,MacIntel,62.11180124,66fa4ebf79326e780c390304,,,,,,,,,,,,,,,,,,,,,163.3437,163.3437,163.3451,165.4444,0,0,left,1.5839,,165.4458,165.4477,,0,,165.4483,165.4489,,0,,1,165.4489,165.4489,165.4493,166.9442,0,3,3,3,1,0.8,0.2,0.2,0.8,1,0,,,,,,,,,,,,,,,,,,,,,,,,,,,,,,,,,,,,
,,65a9ca4a57dfdc3964333913,66fc984109a53c5aae5f09bc,2024-10-02_02h56.22.114,mdp,2024.2.1,MacIntel,62.11180124,66fa4ebf79326e780c390304,,,,,,,,,,,,,,,,,,,,,166.9447,166.9447,166.946,168.261,1,1,right,0.7832,,168.2625,168.2634,,1,,168.2641,168.2645,,1,,0,168.2645,168.2645,168.265,169.7608,0,4,4,4,1,0.8,0.2,0.2,0.8,1,0,,,,,,,,,,,,,,,,,,,,,,,,,,,,,,,,,,,,
,,65a9ca4a57dfdc3964333913,66fc984109a53c5aae5f09bc,2024-10-02_02h56.22.114,mdp,2024.2.1,MacIntel,62.11180124,66fa4ebf79326e780c390304,,,,,,,,,,,,,,,,,,,,,169.7614,169.7614,169.7629,170.9101,1,1,right,0.6174,,170.9115,170.9124,,1,,170.913,170.9135,,1,,0,170.9136,170.9136,170.9139,172.4108,0,5,5,5,1,0.8,0.2,0.2,0.8,1,0,,,,,,,,,,,,,,,,,,,,,,,,,,,,,,,,,,,,
,,65a9ca4a57dfdc3964333913,66fc984109a53c5aae5f09bc,2024-10-02_02h56.22.114,mdp,2024.2.1,MacIntel,62.11180124,66fa4ebf79326e780c390304,,,,,,,,,,,,,,,,,,,,,172.4113,172.4113,172.4127,173.2268,0,0,left,0.2839,,173.2282,173.2291,,1,,173.2298,173.2303,,0,,1,173.2304,173.2304,173.2309,174.7265,0,6,6,6,1,0.8,0.2,0.2,0.8,1,0,,,,,,,,,,,,,,,,,,,,,,,,,,,,,,,,,,,,
,,65a9ca4a57dfdc3964333913,66fc984109a53c5aae5f09bc,2024-10-02_02h56.22.114,mdp,2024.2.1,MacIntel,62.11180124,66fa4ebf79326e780c390304,,,,,,,,,,,,,,,,,,,,,174.7271,174.7271,174.7284,175.8944,1,1,right,0.6622,,175.8959,175.8966,,1,,175.8971,175.8976,,0,,0,175.8977,175.8977,175.898,177.394,0,7,7,7,1,0.8,0.2,0.2,0.8,1,0,,,,,,,,,,,,,,,,,,,,,,,,,,,,,,,,,,,,
,,65a9ca4a57dfdc3964333913,66fc984109a53c5aae5f09bc,2024-10-02_02h56.22.114,mdp,2024.2.1,MacIntel,62.11180124,66fa4ebf79326e780c390304,,,,,,,,,,,,,,,,,,,,,177.3945,177.3946,177.3959,178.4932,0,1,left,0.5687,,178.4945,178.4952,,1,,178.4958,178.4962,,1,,0,178.4962,178.4963,178.4966,179.9931,0,8,8,8,1,0.2,0.8,0.6,0.4,1,0,,,,,,,,,,,,,,,,,,,,,,,,,,,,,,,,,,,,
,,65a9ca4a57dfdc3964333913,66fc984109a53c5aae5f09bc,2024-10-02_02h56.22.114,mdp,2024.2.1,MacIntel,62.11180124,66fa4ebf79326e780c390304,,,,,,,,,,,,,,,,,,,,,179.9937,179.9937,179.9949,181.9442,0,0,left,1.4346,,181.9457,181.9466,,1,,181.9472,181.9478,,1,,1,181.9478,181.9478,181.9483,183.4441,0,9,9,9,1,0.2,0.8,0.6,0.4,1,0,,,,,,,,,,,,,,,,,,,,,,,,,,,,,,,,,,,,
,,65a9ca4a57dfdc3964333913,66fc984109a53c5aae5f09bc,2024-10-02_02h56.22.114,mdp,2024.2.1,MacIntel,62.11180124,66fa4ebf79326e780c390304,,,,,,,,,,,,,,,,,,,,,183.4446,183.4446,183.4458,185.1108,0,1,left,1.1335,,185.1122,185.1132,,1,,185.1138,185.1143,,1,,0,185.1144,185.1144,185.1148,186.6106,0,10,10,10,1,0.2,0.8,0.6,0.4,1,0,,,,,,,,,,,,,,,,,,,,,,,,,,,,,,,,,,,,
,,65a9ca4a57dfdc3964333913,66fc984109a53c5aae5f09bc,2024-10-02_02h56.22.114,mdp,2024.2.1,MacIntel,62.11180124,66fa4ebf79326e780c390304,,,,,,,,,,,,,,,,,,,,,186.6112,186.6112,186.6125,188.3275,0,0,left,1.1833,,188.3289,188.3299,,0,,188.3306,188.3311,,1,,1,188.3311,188.3311,188.3314,189.8273,0,11,11,11,1,0.2,0.8,0.6,0.4,1,0,,,,,,,,,,,,,,,,,,,,,,,,,,,,,,,,,,,,
,,65a9ca4a57dfdc3964333913,66fc984109a53c5aae5f09bc,2024-10-02_02h56.22.114,mdp,2024.2.1,MacIntel,62.11180124,66fa4ebf79326e780c390304,,,,,,,,,,,,,,,,,,,,,189.8278,189.8278,189.829,190.7763,1,1,right,0.4198,,190.7775,190.7781,,1,,190.7787,190.7794,,0,,0,190.7794,190.7794,190.78,192.2772,0,12,12,12,1,0.2,0.8,0.6,0.4,1,0,,,,,,,,,,,,,,,,,,,,,,,,,,,,,,,,,,,,
,,65a9ca4a57dfdc3964333913,66fc984109a53c5aae5f09bc,2024-10-02_02h56.22.114,mdp,2024.2.1,MacIntel,62.11180124,66fa4ebf79326e780c390304,,,,,,,,,,,,,,,,,,,,,192.2777,192.2777,192.279,194.9606,1,0,right,2.1532,,194.9617,194.9625,,0,,194.963,194.9635,,0,,1,194.9635,194.9635,194.9639,196.4597,0,13,13,13,1,0.2,0.8,0.6,0.4,1,0,,,,,,,,,,,,,,,,,,,,,,,,,,,,,,,,,,,,
,,65a9ca4a57dfdc3964333913,66fc984109a53c5aae5f09bc,2024-10-02_02h56.22.114,mdp,2024.2.1,MacIntel,62.11180124,66fa4ebf79326e780c390304,,,,,,,,,,,,,,,,,,,,,196.4602,196.4603,196.4616,197.7608,0,0,left,0.784,,197.7621,197.7629,,1,,197.7637,197.764,,1,,1,197.764,197.764,197.7644,199.2605,0,14,14,14,1,0.2,0.8,0.6,0.4,1,0,,,,,,,,,,,,,,,,,,,,,,,,,,,,,,,,,,,,
,,65a9ca4a57dfdc3964333913,66fc984109a53c5aae5f09bc,2024-10-02_02h56.22.114,mdp,2024.2.1,MacIntel,62.11180124,66fa4ebf79326e780c390304,,,,,,,,,,,,,,,,,,,,,199.261,199.2611,199.2623,200.3274,0,1,left,0.5356,,200.329,200.3298,,0,,200.3305,200.3309,,1,,0,200.331,200.331,200.3313,201.8262,0,15,15,15,1,0.4,0.6,0.8,0.2,1,0,,,,,,,,,,,,,,,,,,,,,,,,,,,,,,,,,,,,
,,65a9ca4a57dfdc3964333913,66fc984109a53c5aae5f09bc,2024-10-02_02h56.22.114,mdp,2024.2.1,MacIntel,62.11180124,66fa4ebf79326e780c390304,,,,,,,,,,,,,,,,,,,,,201.8267,201.8268,201.8278,202.6274,1,0,right,0.278,,202.6285,202.6292,,0,,202.6297,202.6301,,1,,1,202.6302,202.6302,202.6306,204.1273,0,16,16,16,1,0.4,0.6,0.8,0.2,1,0,,,,,,,,,,,,,,,,,,,,,,,,,,,,,,,,,,,,
,,65a9ca4a57dfdc3964333913,66fc984109a53c5aae5f09bc,2024-10-02_02h56.22.114,mdp,2024.2.1,MacIntel,62.11180124,66fa4ebf79326e780c390304,,,,,,,,,,,,,,,,,,,,,204.1277,204.1277,204.1289,205.8598,1,1,right,1.1998,,205.8614,205.862,,0,,205.8625,205.863,,0,,0,205.863,205.863,205.8633,207.3596,0,17,17,17,1,0.4,0.6,0.8,0.2,1,0,,,,,,,,,,,,,,,,,,,,,,,,,,,,,,,,,,,,
,,65a9ca4a57dfdc3964333913,66fc984109a53c5aae5f09bc,2024-10-02_02h56.22.114,mdp,2024.2.1,MacIntel,62.11180124,66fa4ebf79326e780c390304,,,,,,,,,,,,,,,,,,,,,207.3602,207.3602,207.3615,208.1765,0,1,left,0.3006,,208.178,208.1789,,1,,208.1797,208.1802,,1,,0,208.1802,208.1803,208.1812,209.6764,0,18,18,18,1,0.4,0.6,0.8,0.2,1,0,,,,,,,,,,,,,,,,,,,,,,,,,,,,,,,,,,,,
,,65a9ca4a57dfdc3964333913,66fc984109a53c5aae5f09bc,2024-10-02_02h56.22.114,mdp,2024.2.1,MacIntel,62.11180124,66fa4ebf79326e780c390304,,,,,,,,,,,,,,,,,,,,,209.677,209.677,209.6784,210.4431,0,1,left,0.2345,,210.4444,210.4452,,1,,210.4458,210.4462,,0,,0,210.4463,210.4463,210.4466,211.9437,0,19,19,19,1,0.4,0.6,0.8,0.2,1,0,,,,,,,,,,,,,,,,,,,,,,,,,,,,,,,,,,,,
,,65a9ca4a57dfdc3964333913,66fc984109a53c5aae5f09bc,2024-10-02_02h56.22.114,mdp,2024.2.1,MacIntel,62.11180124,66fa4ebf79326e780c390304,,,,,,,,,,,,,,,,,,,,,211.9442,211.9442,211.9455,212.9098,0,1,left,0.4344,,212.9111,212.912,,1,,212.9125,212.9129,,1,,0,212.9129,212.9129,212.9133,214.4095,0,20,20,20,1,0.4,0.6,0.8,0.2,1,0,,,,,,,,,,,,,,,,,,,,,,,,,,,,,,,,,,,,
,,65a9ca4a57dfdc3964333913,66fc984109a53c5aae5f09bc,2024-10-02_02h56.22.114,mdp,2024.2.1,MacIntel,62.11180124,66fa4ebf79326e780c390304,,,,,,,,,,,,,,,,,,,,,214.41,214.41,214.4112,215.2771,1,0,right,0.3541,,215.2782,215.279,,0,,215.2796,215.2799,,0,,1,215.28,215.28,215.2803,216.7763,0,21,21,21,1,0.4,0.6,0.8,0.2,1,0,,,,,,,,,,,,,,,,,,,,,,,,,,,,,,,,,,,,
,,65a9ca4a57dfdc3964333913,66fc984109a53c5aae5f09bc,2024-10-02_02h56.22.114,mdp,2024.2.1,MacIntel,62.11180124,66fa4ebf79326e780c390304,,,,,,,,,,,,,,,,,,,,,216.7767,216.7767,216.778,217.6439,0,0,left,0.351,,217.6452,217.6461,,0,,217.6468,217.6473,,1,,1,217.6473,217.6473,217.6476,219.1436,0,22,22,22,1,0.4,0.6,0.8,0.2,1,0,,,,,,,,,,,,,,,,,,,,,,,,,,,,,,,,,,,,
,,65a9ca4a57dfdc3964333913,66fc984109a53c5aae5f09bc,2024-10-02_02h56.22.114,mdp,2024.2.1,MacIntel,62.11180124,66fa4ebf79326e780c390304,,,,,,,,,,,,,,,,,,,,,219.1442,219.1442,219.1454,219.9772,1,1,right,0.3106,,219.9783,219.9793,,0,,219.9799,219.9802,,0,,0,219.9802,219.9803,219.9806,221.477,0,23,23,23,1,0.2,0.8,0.6,0.4,1,0,,,,,,,,,,,,,,,,,,,,,,,,,,,,,,,,,,,,
,,65a9ca4a57dfdc3964333913,66fc984109a53c5aae5f09bc,2024-10-02_02h56.22.114,mdp,2024.2.1,MacIntel,62.11180124,66fa4ebf79326e780c390304,,,,,,,,,,,,,,,,,,,,,221.4776,221.4776,221.4787,222.3773,0,1,left,0.367,,222.3785,222.3792,,1,,222.3797,222.3801,,1,,0,222.3801,222.3801,222.3805,223.8761,0,24,24,24,1,0.2,0.8,0.6,0.4,1,0,,,,,,,,,,,,,,,,,,,,,,,,,,,,,,,,,,,,
,,65a9ca4a57dfdc3964333913,66fc984109a53c5aae5f09bc,2024-10-02_02h56.22.114,mdp,2024.2.1,MacIntel,62.11180124,66fa4ebf79326e780c390304,,,,,,,,,,,,,,,,,,,,,223.8765,223.8765,223.8777,224.4438,0,1,left,0.051,,224.445,224.4459,,1,,224.4464,224.4468,,1,,0,224.4469,224.4469,224.4473,225.9427,0,25,25,25,1,0.2,0.8,0.6,0.4,1,0,,,,,,,,,,,,,,,,,,,,,,,,,,,,,,,,,,,,
,,65a9ca4a57dfdc3964333913,66fc984109a53c5aae5f09bc,2024-10-02_02h56.22.114,mdp,2024.2.1,MacIntel,62.11180124,66fa4ebf79326e780c390304,,,,,,,,,,,,,,,,,,,,,225.9432,225.9432,225.9445,226.8604,0,1,left,0.4114,,226.8616,226.8624,,1,,226.8629,226.8634,,1,,0,226.8634,226.8634,226.8637,228.3603,0,26,26,26,1,0.2,0.8,0.6,0.4,1,0,,,,,,,,,,,,,,,,,,,,,,,,,,,,,,,,,,,,
,,65a9ca4a57dfdc3964333913,66fc984109a53c5aae5f09bc,2024-10-02_02h56.22.114,mdp,2024.2.1,MacIntel,62.11180124,66fa4ebf79326e780c390304,,,,,,,,,,,,,,,,,,,,,228.3609,228.3609,228.3621,229.193,1,1,right,0.3007,,229.1944,229.1951,,1,,229.1956,229.196,,1,,0,229.1961,229.1961,229.1964,230.6927,0,27,27,27,1,0.6,0.4,0.4,0.6,1,0,,,,,,,,,,,,,,,,,,,,,,,,,,,,,,,,,,,,
,,65a9ca4a57dfdc3964333913,66fc984109a53c5aae5f09bc,2024-10-02_02h56.22.114,mdp,2024.2.1,MacIntel,62.11180124,66fa4ebf79326e780c390304,,,,,,,,,,,,,,,,,,,,,230.6933,230.6933,230.6946,231.4771,1,1,right,0.2777,,231.4784,231.4791,,1,,231.4797,231.48,,1,,0,231.4801,231.4801,231.4804,232.9769,0,28,28,28,1,0.6,0.4,0.4,0.6,1,0,,,,,,,,,,,,,,,,,,,,,,,,,,,,,,,,,,,,
,,65a9ca4a57dfdc3964333913,66fc984109a53c5aae5f09bc,2024-10-02_02h56.22.114,mdp,2024.2.1,MacIntel,62.11180124,66fa4ebf79326e780c390304,,,,,,,,,,,,,,,,,,,,,232.9774,232.9775,232.9786,233.5763,0,1,left,0.0669,,233.5777,233.5784,,0,,233.5789,233.5793,,1,,0,233.5793,233.5793,233.5797,235.0769,0,29,29,29,1,0.6,0.4,0.4,0.6,1,0,,,,,,,,,,,,,,,,,,,,,,,,,,,,,,,,,,,,
,,65a9ca4a57dfdc3964333913,66fc984109a53c5aae5f09bc,2024-10-02_02h56.22.114,mdp,2024.2.1,MacIntel,62.11180124,66fa4ebf79326e780c390304,,,,,,,,,,,,,,,,,,,,,235.0773,235.0773,235.0788,235.9104,0,0,left,0.3053,,235.9118,235.9124,,0,,235.913,235.9133,,0,,1,235.9133,235.9134,235.9138,237.4092,0,30,30,30,1,0.6,0.4,0.4,0.6,1,0,,,,,,,,,,,,,,,,,,,,,,,,,,,,,,,,,,,,
,,65a9ca4a57dfdc3964333913,66fc984109a53c5aae5f09bc,2024-10-02_02h56.22.114,mdp,2024.2.1,MacIntel,62.11180124,66fa4ebf79326e780c390304,,,,,,,,,,,,,,,,,,,,,237.4097,237.4097,237.4109,238.3271,1,0,right,0.3991,,238.3286,238.3294,,1,,238.3301,238.3305,,0,,1,238.3305,238.3305,238.331,239.8262,0,31,31,31,1,0.6,0.4,0.4,0.6,1,0,,,,,,,,,,,,,,,,,,,,,,,,,,,,,,,,,,,,
,,65a9ca4a57dfdc3964333913,66fc984109a53c5aae5f09bc,2024-10-02_02h56.22.114,mdp,2024.2.1,MacIntel,62.11180124,66fa4ebf79326e780c390304,,,,,,,,,,,,,,,,,,,,,239.8267,239.8267,239.8281,241.3769,0,1,left,1.0289,,241.3781,241.3788,,1,,241.3794,241.3798,,1,,0,241.3799,241.3799,241.3802,242.877,0,32,32,32,1,0.6,0.4,0.4,0.6,1,0,,,,,,,,,,,,,,,,,,,,,,,,,,,,,,,,,,,,
,,65a9ca4a57dfdc3964333913,66fc984109a53c5aae5f09bc,2024-10-02_02h56.22.114,mdp,2024.2.1,MacIntel,62.11180124,66fa4ebf79326e780c390304,,,,,,,,,,,,,,,,,,,,,242.8775,242.8776,242.8787,243.8436,1,1,right,0.4326,,243.845,243.8457,,0,,243.8463,243.8467,,1,,0,243.8467,243.8467,243.8472,245.3434,0,33,33,33,1,0.6,0.4,0.4,0.6,1,0,,,,,,,,,,,,,,,,,,,,,,,,,,,,,,,,,,,,
,,65a9ca4a57dfdc3964333913,66fc984109a53c5aae5f09bc,2024-10-02_02h56.22.114,mdp,2024.2.1,MacIntel,62.11180124,66fa4ebf79326e780c390304,,,,,,,,,,,,,,,,,,,,,245.3439,245.344,245.3453,246.1599,0,0,left,0.2896,,246.1605,246.1609,,0,,246.161,246.1612,,0,,1,246.1612,246.1612,246.1613,247.6592,0,34,34,34,1,0.6,0.4,0.4,0.6,1,0,,,,,,,,,,,,,,,,,,,,,,,,,,,,,,,,,,,,
,,65a9ca4a57dfdc3964333913,66fc984109a53c5aae5f09bc,2024-10-02_02h56.22.114,mdp,2024.2.1,MacIntel,62.11180124,66fa4ebf79326e780c390304,,,,,,,,,,,,,,,,,,,,,247.6597,247.6598,247.661,248.6936,1,1,right,0.5197,,248.6949,248.6957,,0,,248.6962,248.6966,,0,,0,248.6966,248.6966,248.6969,250.1934,0,35,35,35,1,0.2,0.8,0.6,0.4,1,0,,,,,,,,,,,,,,,,,,,,,,,,,,,,,,,,,,,,
,,65a9ca4a57dfdc3964333913,66fc984109a53c5aae5f09bc,2024-10-02_02h56.22.114,mdp,2024.2.1,MacIntel,62.11180124,66fa4ebf79326e780c390304,,,,,,,,,,,,,,,,,,,,,250.1939,250.1939,250.1951,251.3102,0,1,left,0.5839,,251.3116,251.3123,,1,,251.313,251.3133,,1,,0,251.3133,251.3133,251.3137,252.8092,0,36,36,36,1,0.2,0.8,0.6,0.4,1,0,,,,,,,,,,,,,,,,,,,,,,,,,,,,,,,,,,,,
,,65a9ca4a57dfdc3964333913,66fc984109a53c5aae5f09bc,2024-10-02_02h56.22.114,mdp,2024.2.1,MacIntel,62.11180124,66fa4ebf79326e780c390304,,,,,,,,,,,,,,,,,,,,,252.8097,252.8097,252.8109,253.7768,0,1,left,0.4541,,253.778,253.7786,,1,,253.7792,253.7795,,1,,0,253.7795,253.7795,253.7799,255.2767,0,37,37,37,1,0.2,0.8,0.6,0.4,1,0,,,,,,,,,,,,,,,,,,,,,,,,,,,,,,,,,,,,
,,65a9ca4a57dfdc3964333913,66fc984109a53c5aae5f09bc,2024-10-02_02h56.22.114,mdp,2024.2.1,MacIntel,62.11180124,66fa4ebf79326e780c390304,,,,,,,,,,,,,,,,,,,,,255.2772,255.2772,255.2784,256.1768,0,1,left,0.3665,,256.1779,256.1785,,0,,256.179,256.1794,,1,,0,256.1795,256.1795,256.1798,257.677,0,38,38,38,1,0.2,0.8,0.6,0.4,1,0,,,,,,,,,,,,,,,,,,,,,,,,,,,,,,,,,,,,
,,65a9ca4a57dfdc3964333913,66fc984109a53c5aae5f09bc,2024-10-02_02h56.22.114,mdp,2024.2.1,MacIntel,62.11180124,66fa4ebf79326e780c390304,,,,,,,,,,,,,,,,,,,,,257.6776,257.6776,257.679,258.5103,0,0,left,0.3008,,258.5117,258.5126,,1,,258.5133,258.5138,,1,,1,258.5138,258.5138,258.5143,260.01,0,39,39,39,1,0.2,0.8,0.6,0.4,1,0,,,,,,,,,,,,,,,,,,,,,,,,,,,,,,,,,,,,
,,65a9ca4a57dfdc3964333913,66fc984109a53c5aae5f09bc,2024-10-02_02h56.22.114,mdp,2024.2.1,MacIntel,62.11180124,66fa4ebf79326e780c390304,,,,,,,,,,,,,,,,,,,,,260.0105,260.0105,260.0126,261.1436,1,1,right,0.6106,,261.1448,261.1455,,1,,261.1462,261.1465,,1,,0,261.1465,261.1465,261.1469,262.6432,0,40,40,40,1,0.2,0.8,0.6,0.4,1,0,,,,,,,,,,,,,,,,,,,,,,,,,,,,,,,,,,,,
,,65a9ca4a57dfdc3964333913,66fc984109a53c5aae5f09bc,2024-10-02_02h56.22.114,mdp,2024.2.1,MacIntel,62.11180124,66fa4ebf79326e780c390304,,,,,,,,,,,,,,,,,,,,,262.6437,262.6438,262.645,263.9769,0,1,left,0.8005,,263.9783,263.9791,,0,,263.9797,263.9801,,1,,0,263.9801,263.9801,263.9804,265.4757,0,41,41,41,1,0.2,0.8,0.6,0.4,1,0,,,,,,,,,,,,,,,,,,,,,,,,,,,,,,,,,,,,
,,65a9ca4a57dfdc3964333913,66fc984109a53c5aae5f09bc,2024-10-02_02h56.22.114,mdp,2024.2.1,MacIntel,62.11180124,66fa4ebf79326e780c390304,,,,,,,,,,,,,,,,,,,,,265.4763,265.4763,265.4776,266.4934,0,1,left,0.5024,,266.4946,266.4954,,0,,266.4959,266.4963,,1,,0,266.4963,266.4963,266.4966,267.9924,0,42,42,42,1,0.2,0.8,0.6,0.4,1,0,,,,,,,,,,,,,,,,,,,,,,,,,,,,,,,,,,,,
,,65a9ca4a57dfdc3964333913,66fc984109a53c5aae5f09bc,2024-10-02_02h56.22.114,mdp,2024.2.1,MacIntel,62.11180124,66fa4ebf79326e780c390304,,,,,,,,,,,,,,,,,,,,,267.9929,267.9929,267.9942,270.7434,0,0,left,2.2362,,270.7447,270.7453,,0,,270.7459,270.7462,,0,,1,270.7464,270.7464,270.7467,272.2423,0,43,43,43,1,0.4,0.6,0.8,0.2,1,0,,,,,,,,,,,,,,,,,,,,,,,,,,,,,,,,,,,,
,,65a9ca4a57dfdc3964333913,66fc984109a53c5aae5f09bc,2024-10-02_02h56.22.114,mdp,2024.2.1,MacIntel,62.11180124,66fa4ebf79326e780c390304,,,,,,,,,,,,,,,,,,,,,272.2428,272.2429,272.2438,273.4266,1,1,right,0.6673,,273.4278,273.4284,,0,,273.4289,273.4292,,0,,0,273.4293,273.4293,273.4298,274.9266,0,44,44,44,1,0.4,0.6,0.8,0.2,1,0,,,,,,,,,,,,,,,,,,,,,,,,,,,,,,,,,,,,
,,65a9ca4a57dfdc3964333913,66fc984109a53c5aae5f09bc,2024-10-02_02h56.22.114,mdp,2024.2.1,MacIntel,62.11180124,66fa4ebf79326e780c390304,,,,,,,,,,,,,,,,,,,,,274.9271,274.9271,274.9283,277.2767,0,0,left,1.8192,,277.2781,277.279,,1,,277.2797,277.2802,,1,,1,277.2802,277.2802,277.2807,278.7766,0,45,45,45,1,0.4,0.6,0.8,0.2,1,0,,,,,,,,,,,,,,,,,,,,,,,,,,,,,,,,,,,,
,,65a9ca4a57dfdc3964333913,66fc984109a53c5aae5f09bc,2024-10-02_02h56.22.114,mdp,2024.2.1,MacIntel,62.11180124,66fa4ebf79326e780c390304,,,,,,,,,,,,,,,,,,,,,278.7775,278.7775,278.7788,279.71,0,0,left,0.4002,,279.7116,279.7124,,1,,279.713,279.7134,,0,,1,279.7134,279.7134,279.7138,281.2099,0,46,46,46,1,0.8,0.2,0.4,0.6,1,0,,,,,,,,,,,,,,,,,,,,,,,,,,,,,,,,,,,,
,,65a9ca4a57dfdc3964333913,66fc984109a53c5aae5f09bc,2024-10-02_02h56.22.114,mdp,2024.2.1,MacIntel,62.11180124,66fa4ebf79326e780c390304,,,,,,,,,,,,,,,,,,,,,281.2104,281.2104,281.2116,282.1267,0,1,left,0.3947,,282.128,282.1287,,0,,282.1292,282.1295,,0,,0,282.1296,282.1296,282.1299,283.6264,0,47,47,47,1,0.8,0.2,0.4,0.6,1,0,,,,,,,,,,,,,,,,,,,,,,,,,,,,,,,,,,,,
,,65a9ca4a57dfdc3964333913,66fc984109a53c5aae5f09bc,2024-10-02_02h56.22.114,mdp,2024.2.1,MacIntel,62.11180124,66fa4ebf79326e780c390304,,,,,,,,,,,,,,,,,,,,,283.6269,283.6269,283.6282,285.8768,1,1,right,1.7172,,285.8782,285.8791,,0,,285.8798,285.8802,,1,,0,285.8802,285.8802,285.8807,287.3765,0,48,48,48,1,0.8,0.2,0.4,0.6,1,0,,,,,,,,,,,,,,,,,,,,,,,,,,,,,,,,,,,,
,,65a9ca4a57dfdc3964333913,66fc984109a53c5aae5f09bc,2024-10-02_02h56.22.114,mdp,2024.2.1,MacIntel,62.11180124,66fa4ebf79326e780c390304,,,,,,,,,,,,,,,,,,,,,287.377,287.377,287.3782,291.2267,0,1,left,3.317,,291.228,291.2287,,0,,291.2293,291.2297,,0,,0,291.2297,291.2297,291.2302,292.7265,0,49,49,49,1,0.8,0.2,0.4,0.6,1,0,,,,,,,,,,,,,,,,,,,,,,,,,,,,,,,,,,,,
,,65a9ca4a57dfdc3964333913,66fc984109a53c5aae5f09bc,2024-10-02_02h56.22.114,mdp,2024.2.1,MacIntel,62.11180124,66fa4ebf79326e780c390304,,,,,,,,,,,,,,,,,,,,,,,,,,,,,,,,,,,,,,,,,,,,,,,,,,,,,,,,292.7273,351.2433,0,0,0,8,1,imgs/bear.png,imgs/pig.png,imgs/cat.png,imgs/elephant.png,imgs/goat.png,,,,,,,,,,,,,,,,,,,,,,,,
,,65a9ca4a57dfdc3964333913,66fc984109a53c5aae5f09bc,2024-10-02_02h56.22.114,mdp,2024.2.1,MacIntel,62.11180124,66fa4ebf79326e780c390304,,,,,,,,,,,,,,2,seqs/st2seq0.csv,351.2459,364.326,space,12.5522,,364.3315,364.3315,364.3325,368.3749,0,1,left,3.5139,,368.3762,373.9091,0,0,left,373.9104,373.9111,,1,,1,373.9111,373.9111,373.9117,375.409,0,0,0,0,1,0.2,0.8,0.6,0.4,,,,,,,,,,,,,,,5.0144,,0.2,0.8,0.6,0.4,0.2,0.8,0.2,0.8,1,0,,,,,,,,,,,,
,,65a9ca4a57dfdc3964333913,66fc984109a53c5aae5f09bc,2024-10-02_02h56.22.114,mdp,2024.2.1,MacIntel,62.11180124,66fa4ebf79326e780c390304,,,,,,,,,,,,,,,,,,,,,375.4096,375.4096,375.4108,377.5416,0,0,left,1.6006,,377.543,379.9258,0,1,left,379.9274,379.9283,,1,,0,379.9283,379.9283,379.929,381.4256,0,1,1,1,1,0.2,0.8,0.6,0.4,,,,,,,,,,,,,,,1.8646,,0.2,0.8,0.6,0.4,0.2,0.8,0.2,0.8,1,0,,,,,,,,,,,,
,,65a9ca4a57dfdc3964333913,66fc984109a53c5aae5f09bc,2024-10-02_02h56.22.114,mdp,2024.2.1,MacIntel,62.11180124,66fa4ebf79326e780c390304,,,,,,,,,,,,,,,,,,,,,381.4261,381.4262,381.4276,386.7081,1,0,right,4.7504,,386.7096,394.1257,1,0,right,394.1272,394.1281,,0,,1,394.1281,394.1281,394.1289,395.6254,0,2,2,2,1,0.2,0.8,0.6,0.4,,,,,,,,,,,,,,,6.9002,,0.2,0.8,0.6,0.4,0.2,0.8,0.2,0.8,1,0,,,,,,,,,,,,
,,65a9ca4a57dfdc3964333913,66fc984109a53c5aae5f09bc,2024-10-02_02h56.22.114,mdp,2024.2.1,MacIntel,62.11180124,66fa4ebf79326e780c390304,,,,,,,,,,,,,,,,,,,,,395.626,395.626,395.6273,397.1423,1,0,right,0.9842,,397.1437,399.259,1,0,right,399.2605,399.2614,,0,,1,399.2614,399.2615,399.2621,400.7579,0,3,3,3,1,0.2,0.8,0.6,0.4,,,,,,,,,,,,,,,1.5835,,0.2,0.8,0.6,0.4,0.2,0.8,0.2,0.8,1,0,,,,,,,,,,,,
,,65a9ca4a57dfdc3964333913,66fc984109a53c5aae5f09bc,2024-10-02_02h56.22.114,mdp,2024.2.1,MacIntel,62.11180124,66fa4ebf79326e780c390304,,,,,,,,,,,,,,,,,,,,,400.7585,400.7585,400.7596,402.1246,1,0,right,0.8383,,402.1259,403.3755,1,0,right,403.3767,403.3775,,0,,1,403.3776,403.3776,403.3781,404.8755,0,4,4,4,1,0.2,0.8,0.6,0.4,,,,,,,,,,,,,,,0.7194,,0.2,0.8,0.6,0.4,0.2,0.8,0.2,0.8,1,0,,,,,,,,,,,,
,,65a9ca4a57dfdc3964333913,66fc984109a53c5aae5f09bc,2024-10-02_02h56.22.114,mdp,2024.2.1,MacIntel,62.11180124,66fa4ebf79326e780c390304,,,,,,,,,,,,,,,,,,,,,404.8761,404.8762,404.8774,406.2421,1,0,right,0.8379,,406.2433,407.5588,1,0,right,407.5604,407.5611,,0,,1,407.5611,407.5611,407.5616,409.0587,0,5,5,5,1,0.2,0.8,0.6,0.4,,,,,,,,,,,,,,,0.7829,,0.2,0.8,0.6,0.4,0.2,0.8,0.2,0.8,1,0,,,,,,,,,,,,
,,65a9ca4a57dfdc3964333913,66fc984109a53c5aae5f09bc,2024-10-02_02h56.22.114,mdp,2024.2.1,MacIntel,62.11180124,66fa4ebf79326e780c390304,,,,,,,,,,,,,,,,,,,,,409.0592,409.0592,409.0605,410.1921,1,0,right,0.6019,,410.1935,411.2755,1,0,right,411.2769,411.2776,,1,,1,411.2777,411.2777,411.2782,412.7753,0,6,6,6,1,0.2,0.8,0.6,0.4,,,,,,,,,,,,,,,0.5505,,0.2,0.8,0.6,0.4,0.2,0.8,0.2,0.8,1,0,,,,,,,,,,,,
,,65a9ca4a57dfdc3964333913,66fc984109a53c5aae5f09bc,2024-10-02_02h56.22.114,mdp,2024.2.1,MacIntel,62.11180124,66fa4ebf79326e780c390304,,,,,,,,,,,,,,,,,,,,,412.7758,412.7758,412.7771,413.7255,1,1,right,0.42,,413.7268,414.9746,1,1,right,414.9757,414.9764,,1,,0,414.9765,414.9765,414.977,416.4744,0,7,7,7,1,0.2,0.8,0.6,0.4,,,,,,,,,,,,,,,0.7167,,0.2,0.8,0.6,0.4,0.2,0.8,0.2,0.8,1,0,,,,,,,,,,,,
,,65a9ca4a57dfdc3964333913,66fc984109a53c5aae5f09bc,2024-10-02_02h56.22.114,mdp,2024.2.1,MacIntel,62.11180124,66fa4ebf79326e780c390304,,,,,,,,,,,,,,,,,,,,,416.4749,416.475,416.4762,417.408,1,0,right,0.4172,,417.4094,418.6088,1,1,right,418.6102,418.6108,,0,,0,418.6108,418.6109,418.6114,420.1086,0,8,8,8,1,0.2,0.8,0.6,0.4,,,,,,,,,,,,,,,0.6646,,0.2,0.8,0.6,0.4,0.2,0.8,0.2,0.8,1,0,,,,,,,,,,,,
,,65a9ca4a57dfdc3964333913,66fc984109a53c5aae5f09bc,2024-10-02_02h56.22.114,mdp,2024.2.1,MacIntel,62.11180124,66fa4ebf79326e780c390304,,,,,,,,,,,,,,,,,,,,,420.1092,420.1092,420.1104,421.2587,1,0,right,0.6174,,421.2601,422.8746,0,1,left,422.8759,422.8767,,1,,0,422.8767,422.8768,422.8773,424.3752,0,9,9,9,1,0.2,0.8,0.6,0.4,,,,,,,,,,,,,,,1.0849,,0.2,0.8,0.6,0.4,0.2,0.8,0.2,0.8,1,0,,,,,,,,,,,,
,,65a9ca4a57dfdc3964333913,66fc984109a53c5aae5f09bc,2024-10-02_02h56.22.114,mdp,2024.2.1,MacIntel,62.11180124,66fa4ebf79326e780c390304,,,,,,,,,,,,,,,,,,,,,424.3758,424.3758,424.3771,425.2586,1,0,right,0.352,,425.2598,426.5587,1,1,right,426.5599,426.5606,,0,,0,426.5606,426.5606,426.561,428.0585,0,10,10,10,1,0.2,0.8,0.6,0.4,,,,,,,,,,,,,,,0.7774,,0.2,0.8,0.6,0.4,0.2,0.8,0.2,0.8,1,0,,,,,,,,,,,,
,,65a9ca4a57dfdc3964333913,66fc984109a53c5aae5f09bc,2024-10-02_02h56.22.114,mdp,2024.2.1,MacIntel,62.11180124,66fa4ebf79326e780c390304,,,,,,,,,,,,,,,,,,,,,428.0591,428.0591,428.0603,429.1578,1,0,right,0.5673,,429.1592,430.6421,1,0,right,430.6433,430.644,,0,,1,430.644,430.644,430.6446,432.1418,0,11,11,11,1,0.2,0.8,0.6,0.4,,,,,,,,,,,,,,,0.9676,,0.2,0.8,0.6,0.4,0.2,0.8,0.2,0.8,1,0,,,,,,,,,,,,
,,65a9ca4a57dfdc3964333913,66fc984109a53c5aae5f09bc,2024-10-02_02h56.22.114,mdp,2024.2.1,MacIntel,62.11180124,66fa4ebf79326e780c390304,,,,,,,,,,,,,,,,,,,,,432.1423,432.1423,432.1437,433.0754,1,0,right,0.4005,,433.0768,434.242,1,1,right,434.2434,434.2441,,1,,0,434.2442,434.2442,434.2448,435.7418,0,12,12,12,1,0.2,0.8,0.6,0.4,,,,,,,,,,,,,,,0.6341,,0.2,0.8,0.6,0.4,0.2,0.8,0.2,0.8,1,0,,,,,,,,,,,,
,,65a9ca4a57dfdc3964333913,66fc984109a53c5aae5f09bc,2024-10-02_02h56.22.114,mdp,2024.2.1,MacIntel,62.11180124,66fa4ebf79326e780c390304,,,,,,,,,,,,,,,,,,,,,435.7424,435.7424,435.7437,436.6253,1,1,right,0.3493,,436.6266,438.2412,0,1,left,438.2426,438.2433,,1,,0,438.2433,438.2433,438.2439,439.7417,0,13,13,13,1,0.2,0.8,0.6,0.4,,,,,,,,,,,,,,,1.0826,,0.2,0.8,0.6,0.4,0.2,0.8,0.2,0.8,1,0,,,,,,,,,,,,
,,65a9ca4a57dfdc3964333913,66fc984109a53c5aae5f09bc,2024-10-02_02h56.22.114,mdp,2024.2.1,MacIntel,62.11180124,66fa4ebf79326e780c390304,,,,,,,,,,,,,,,,,,,,,439.7423,439.7423,439.7435,440.6746,1,1,right,0.4006,,440.6758,441.7585,1,1,right,441.7596,441.7603,,1,,0,441.7603,441.7603,441.7607,443.2583,0,14,14,14,1,0.2,0.8,0.6,0.4,,,,,,,,,,,,,,,0.55,,0.2,0.8,0.6,0.4,0.2,0.8,0.2,0.8,1,0,,,,,,,,,,,,
,,65a9ca4a57dfdc3964333913,66fc984109a53c5aae5f09bc,2024-10-02_02h56.22.114,mdp,2024.2.1,MacIntel,62.11180124,66fa4ebf79326e780c390304,,,,,,,,,,,,,,,,,,,,,443.2589,443.2589,443.2601,444.2252,1,0,right,0.4353,,444.2263,445.5085,0,1,left,445.5096,445.5103,,1,,0,445.5103,445.5103,445.5108,447.0083,0,15,15,15,1,0.2,0.8,0.6,0.4,,,,,,,,,,,,,,,0.7509,,0.2,0.8,0.6,0.4,0.2,0.8,0.2,0.8,1,0,,,,,,,,,,,,
,,65a9ca4a57dfdc3964333913,66fc984109a53c5aae5f09bc,2024-10-02_02h56.22.114,mdp,2024.2.1,MacIntel,62.11180124,66fa4ebf79326e780c390304,,,,,,,,,,,,,,,,,,,,,447.0089,447.0089,447.0101,448.0085,0,1,left,0.4698,,448.0097,449.7419,0,1,left,449.7433,449.7442,,1,,0,449.7442,449.7442,449.7448,451.2417,0,16,16,16,1,0.2,0.8,0.6,0.4,,,,,,,,,,,,,,,1.1985,,0.2,0.8,0.6,0.4,0.2,0.8,0.2,0.8,1,0,,,,,,,,,,,,
,,65a9ca4a57dfdc3964333913,66fc984109a53c5aae5f09bc,2024-10-02_02h56.22.114,mdp,2024.2.1,MacIntel,62.11180124,66fa4ebf79326e780c390304,,,,,,,,,,,,,,,,,,,,,451.2422,451.2422,451.2435,453.0242,0,1,left,1.2532,,453.0254,454.375,0,1,left,454.3763,454.377,,1,,0,454.3772,454.3772,454.3777,455.875,0,17,17,17,1,0.2,0.8,0.6,0.4,,,,,,,,,,,,,,,0.8359,,0.2,0.8,0.6,0.4,0.2,0.8,0.2,0.8,1,0,,,,,,,,,,,,
,,65a9ca4a57dfdc3964333913,66fc984109a53c5aae5f09bc,2024-10-02_02h56.22.114,mdp,2024.2.1,MacIntel,62.11180124,66fa4ebf79326e780c390304,,,,,,,,,,,,,,,,,,,,,455.8755,455.8755,455.8766,456.7242,0,0,left,0.3169,,456.7256,459.1743,1,1,right,459.1756,459.1764,,1,,0,459.1764,459.1765,459.177,460.675,0,18,18,18,1,0.2,0.8,0.6,0.4,,,,,,,,,,,,,,,1.9313,,0.2,0.8,0.6,0.4,0.2,0.8,0.2,0.8,1,0,,,,,,,,,,,,
,,65a9ca4a57dfdc3964333913,66fc984109a53c5aae5f09bc,2024-10-02_02h56.22.114,mdp,2024.2.1,MacIntel,62.11180124,66fa4ebf79326e780c390304,,,,,,,,,,,,,,,,,,,,,460.6755,460.6755,460.6767,461.4751,1,0,right,0.2687,,461.4763,462.8419,1,0,right,462.8432,462.844,,1,,1,462.8441,462.8441,462.8446,464.3414,0,19,19,19,1,0.2,0.8,0.6,0.4,,,,,,,,,,,,,,,0.8333,,0.2,0.8,0.6,0.4,0.2,0.8,0.2,0.8,1,0,,,,,,,,,,,,
,,65a9ca4a57dfdc3964333913,66fc984109a53c5aae5f09bc,2024-10-02_02h56.22.114,mdp,2024.2.1,MacIntel,62.11180124,66fa4ebf79326e780c390304,,,,,,,,,,,,,,,,,,,,,464.3416,464.3416,464.3419,466.6252,1,0,right,1.751,,466.6265,468.2584,1,1,right,468.2597,468.2603,,1,,0,468.2604,468.2604,468.2609,469.7573,0,20,20,20,1,0.2,0.8,0.6,0.4,,,,,,,,,,,,,,,1.1037,,0.2,0.8,0.6,0.4,0.2,0.8,0.2,0.8,1,0,,,,,,,,,,,,
,,65a9ca4a57dfdc3964333913,66fc984109a53c5aae5f09bc,2024-10-02_02h56.22.114,mdp,2024.2.1,MacIntel,62.11180124,66fa4ebf79326e780c390304,,,,,,,,,,,,,,,,,,,,,469.7578,469.7578,469.759,470.5749,1,1,right,0.3039,,470.5759,471.7418,0,1,left,471.7429,471.7435,,0,,0,471.7435,471.7435,471.7441,473.2414,0,21,21,21,1,0.2,0.8,0.6,0.4,,,,,,,,,,,,,,,0.6416,,0.2,0.8,0.6,0.4,0.2,0.8,0.2,0.8,1,0,,,,,,,,,,,,
,,65a9ca4a57dfdc3964333913,66fc984109a53c5aae5f09bc,2024-10-02_02h56.22.114,mdp,2024.2.1,MacIntel,62.11180124,66fa4ebf79326e780c390304,,,,,,,,,,,,,,,,,,,,,473.242,473.242,473.2432,474.825,1,0,right,1.0611,,474.8262,476.2749,1,0,right,476.2765,476.2773,,0,,1,476.2773,476.2773,476.2777,477.7747,0,22,22,22,1,0.6,0.4,0.8,0.2,,,,,,,,,,,,,,,0.9145,,0.2,0.8,0.6,0.4,0.2,0.8,0.2,0.8,1,0,,,,,,,,,,,,
,,65a9ca4a57dfdc3964333913,66fc984109a53c5aae5f09bc,2024-10-02_02h56.22.114,mdp,2024.2.1,MacIntel,62.11180124,66fa4ebf79326e780c390304,,,,,,,,,,,,,,,,,,,,,477.7753,477.7753,477.7765,479.6749,1,0,right,1.3766,,479.676,481.3415,1,1,right,481.3431,481.3439,,0,,0,481.3439,481.3439,481.3446,482.8414,0,23,23,23,1,0.6,0.4,0.8,0.2,,,,,,,,,,,,,,,1.1336,,0.2,0.8,0.6,0.4,0.2,0.8,0.2,0.8,1,0,,,,,,,,,,,,
,,65a9ca4a57dfdc3964333913,66fc984109a53c5aae5f09bc,2024-10-02_02h56.22.114,mdp,2024.2.1,MacIntel,62.11180124,66fa4ebf79326e780c390304,,,,,,,,,,,,,,,,,,,,,482.8421,482.8421,482.8434,483.6081,1,1,right,0.2352,,483.6093,484.7249,0,1,left,484.726,484.7267,,1,,0,484.7267,484.7267,484.7272,486.2247,0,24,24,24,1,0.6,0.4,0.8,0.2,,,,,,,,,,,,,,,0.5914,,0.2,0.8,0.6,0.4,0.4,0.6,0.6,0.4,1,0,,,,,,,,,,,,
,,65a9ca4a57dfdc3964333913,66fc984109a53c5aae5f09bc,2024-10-02_02h56.22.114,mdp,2024.2.1,MacIntel,62.11180124,66fa4ebf79326e780c390304,,,,,,,,,,,,,,,,,,,,,486.225,486.225,486.226,487.3582,0,0,left,0.6093,,487.3596,488.625,1,1,right,488.6263,488.6271,,0,,0,488.6271,488.6271,488.6276,490.1246,0,25,25,25,1,0.6,0.4,0.8,0.2,,,,,,,,,,,,,,,0.7326,,0.2,0.8,0.6,0.4,0.4,0.6,0.6,0.4,1,0,,,,,,,,,,,,
,,65a9ca4a57dfdc3964333913,66fc984109a53c5aae5f09bc,2024-10-02_02h56.22.114,mdp,2024.2.1,MacIntel,62.11180124,66fa4ebf79326e780c390304,,,,,,,,,,,,,,,,,,,,,490.1251,490.1251,490.1265,490.9415,0,1,left,0.2847,,490.9429,492.2414,0,1,left,492.2425,492.2432,,1,,0,492.2432,492.2432,492.2437,493.7413,0,26,26,26,1,0.6,0.4,0.8,0.2,,,,,,,,,,,,,,,0.7689,,0.2,0.8,0.6,0.4,0.2,0.8,0.4,0.6,1,0,,,,,,,,,,,,
,,65a9ca4a57dfdc3964333913,66fc984109a53c5aae5f09bc,2024-10-02_02h56.22.114,mdp,2024.2.1,MacIntel,62.11180124,66fa4ebf79326e780c390304,,,,,,,,,,,,,,,,,,,,,493.7418,493.7418,493.743,494.6081,1,0,right,0.3353,,494.6095,496.3581,0,1,left,496.3595,496.3603,,1,,0,496.3603,496.3603,496.3608,497.8581,0,27,27,27,1,0.6,0.4,0.8,0.2,,,,,,,,,,,,,,,1.2147,,0.2,0.8,0.6,0.4,0.2,0.8,0.4,0.6,1,0,,,,,,,,,,,,
,,65a9ca4a57dfdc3964333913,66fc984109a53c5aae5f09bc,2024-10-02_02h56.22.114,mdp,2024.2.1,MacIntel,62.11180124,66fa4ebf79326e780c390304,,,,,,,,,,,,,,,,,,,,,497.8587,497.8587,497.8599,498.7248,1,1,right,0.3352,,498.7261,501.0247,0,1,left,501.0263,501.0271,,1,,0,501.0271,501.0271,501.0275,502.5246,0,28,28,28,1,0.8,0.2,0.2,0.8,,,,,,,,,,,,,,,1.7648,,0.2,0.8,0.6,0.4,0.2,0.8,0.4,0.6,1,0,,,,,,,,,,,,
,,65a9ca4a57dfdc3964333913,66fc984109a53c5aae5f09bc,2024-10-02_02h56.22.114,mdp,2024.2.1,MacIntel,62.11180124,66fa4ebf79326e780c390304,,,,,,,,,,,,,,,,,,,,,502.525,502.525,502.5263,503.3414,1,1,right,0.2838,,503.3426,504.8747,1,0,right,504.8761,504.8768,,0,,1,504.8769,504.8769,504.8774,506.3744,0,29,29,29,1,0.8,0.2,0.2,0.8,,,,,,,,,,,,,,,1.001,,0.2,0.8,0.6,0.4,0.2,0.8,0.4,0.6,1,0,,,,,,,,,,,,
,,65a9ca4a57dfdc3964333913,66fc984109a53c5aae5f09bc,2024-10-02_02h56.22.114,mdp,2024.2.1,MacIntel,62.11180124,66fa4ebf79326e780c390304,,,,,,,,,,,,,,,,,,,,,506.375,506.375,506.3762,507.1579,1,0,right,0.2607,,507.1592,508.358,1,0,right,508.3593,508.3602,,0,,1,508.3602,508.3602,508.3608,509.8578,0,30,30,30,1,0.8,0.2,0.2,0.8,,,,,,,,,,,,,,,0.6653,,0.2,0.8,0.6,0.4,0.2,0.8,0.4,0.6,1,0,,,,,,,,,,,,
,,65a9ca4a57dfdc3964333913,66fc984109a53c5aae5f09bc,2024-10-02_02h56.22.114,mdp,2024.2.1,MacIntel,62.11180124,66fa4ebf79326e780c390304,,,,,,,,,,,,,,,,,,,,,509.8584,509.8584,509.8596,510.6913,1,1,right,0.3108,,510.6926,511.8912,1,1,right,511.8925,511.8932,,0,,0,511.8933,511.8933,511.8938,513.3911,0,31,31,31,1,0.8,0.2,0.2,0.8,,,,,,,,,,,,,,,0.6648,,0.4,0.6,0.8,0.2,0.2,0.8,0.4,0.6,1,0,,,,,,,,,,,,
,,65a9ca4a57dfdc3964333913,66fc984109a53c5aae5f09bc,2024-10-02_02h56.22.114,mdp,2024.2.1,MacIntel,62.11180124,66fa4ebf79326e780c390304,,,,,,,,,,,,,,,,,,,,,513.3917,513.3917,513.3928,513.9413,1,1,right,0.0174,,513.9426,514.8914,1,1,right,514.8927,514.8934,,1,,0,514.8934,514.8935,514.8939,516.3911,0,32,32,32,1,0.6,0.4,0.4,0.6,,,,,,,,,,,,,,,0.4176,,0.4,0.6,0.8,0.2,0.2,0.8,0.4,0.6,1,0,,,,,,,,,,,,
,,65a9ca4a57dfdc3964333913,66fc984109a53c5aae5f09bc,2024-10-02_02h56.22.114,mdp,2024.2.1,MacIntel,62.11180124,66fa4ebf79326e780c390304,,,,,,,,,,,,,,,,,,,,,516.3916,516.3916,516.3928,517.3073,1,1,right,0.388,,517.3083,518.2079,1,0,right,518.2091,518.2098,,1,,1,518.2098,518.2098,518.2102,519.7076,0,33,33,33,1,0.6,0.4,0.4,0.6,,,,,,,,,,,,,,,0.3938,,0.4,0.6,0.8,0.2,0.6,0.4,0.2,0.8,1,0,,,,,,,,,,,,
,,65a9ca4a57dfdc3964333913,66fc984109a53c5aae5f09bc,2024-10-02_02h56.22.114,mdp,2024.2.1,MacIntel,62.11180124,66fa4ebf79326e780c390304,,,,,,,,,,,,,,,,,,,,,519.7082,519.7082,519.7095,520.5078,1,1,right,0.2689,,520.509,521.9079,0,0,left,521.9093,521.9099,,0,,1,521.91,521.91,521.9104,523.4077,0,34,34,34,1,0.6,0.4,0.4,0.6,,,,,,,,,,,,,,,0.8671,,0.4,0.6,0.8,0.2,0.6,0.4,0.2,0.8,1,0,,,,,,,,,,,,
,,65a9ca4a57dfdc3964333913,66fc984109a53c5aae5f09bc,2024-10-02_02h56.22.114,mdp,2024.2.1,MacIntel,62.11180124,66fa4ebf79326e780c390304,,,,,,,,,,,,,,,,,,,,,523.4082,523.4082,523.4096,524.2746,1,1,right,0.3335,,524.2759,526.6578,0,1,left,526.6594,526.6603,,1,,0,526.6603,526.6603,526.661,528.1577,0,35,35,35,1,0.6,0.4,0.4,0.6,,,,,,,,,,,,,,,1.8514,,0.4,0.6,0.8,0.2,0.6,0.4,0.2,0.8,1,0,,,,,,,,,,,,
,,65a9ca4a57dfdc3964333913,66fc984109a53c5aae5f09bc,2024-10-02_02h56.22.114,mdp,2024.2.1,MacIntel,62.11180124,66fa4ebf79326e780c390304,,,,,,,,,,,,,,,,,,,,,528.1583,528.1583,528.1598,528.8412,1,1,right,0.1504,,528.8425,529.7077,1,0,right,529.7089,529.7095,,0,,1,529.7095,529.7095,529.71,531.2076,0,36,36,36,1,0.6,0.4,0.4,0.6,,,,,,,,,,,,,,,0.3365,,0.6,0.4,0.2,0.8,0.6,0.4,0.2,0.8,1,0,,,,,,,,,,,,
,,65a9ca4a57dfdc3964333913,66fc984109a53c5aae5f09bc,2024-10-02_02h56.22.114,mdp,2024.2.1,MacIntel,62.11180124,66fa4ebf79326e780c390304,,,,,,,,,,,,,,,,,,,,,531.2082,531.2082,531.2094,532.2912,1,0,right,0.5505,,532.2927,533.6744,1,1,right,533.6758,533.6765,,1,,0,533.6765,533.6765,533.6772,535.1742,0,37,37,37,1,0.6,0.4,0.4,0.6,,,,,,,,,,,,,,,0.8478,,0.6,0.4,0.2,0.8,0.6,0.4,0.2,0.8,1,0,,,,,,,,,,,,
,,65a9ca4a57dfdc3964333913,66fc984109a53c5aae5f09bc,2024-10-02_02h56.22.114,mdp,2024.2.1,MacIntel,62.11180124,66fa4ebf79326e780c390304,,,,,,,,,,,,,,,,,,,,,535.1747,535.1747,535.176,536.1244,1,0,right,0.4175,,536.1256,537.4578,1,1,right,537.4591,537.4598,,1,,0,537.4599,537.4599,537.4605,538.9575,0,38,38,38,1,0.6,0.4,0.4,0.6,,,,,,,,,,,,,,,0.8008,,0.6,0.4,0.2,0.8,0.6,0.4,0.2,0.8,1,0,,,,,,,,,,,,
,,65a9ca4a57dfdc3964333913,66fc984109a53c5aae5f09bc,2024-10-02_02h56.22.114,mdp,2024.2.1,MacIntel,62.11180124,66fa4ebf79326e780c390304,,,,,,,,,,,,,,,,,,,,,538.9581,538.9581,538.9592,539.7743,1,1,right,0.2836,,539.7757,541.0244,1,1,right,541.0257,541.0264,,0,,0,541.0265,541.0265,541.0269,542.5242,0,39,39,39,1,0.6,0.4,0.4,0.6,,,,,,,,,,,,,,,0.7149,,0.6,0.4,0.2,0.8,0.6,0.4,0.2,0.8,1,0,,,,,,,,,,,,
,,65a9ca4a57dfdc3964333913,66fc984109a53c5aae5f09bc,2024-10-02_02h56.22.114,mdp,2024.2.1,MacIntel,62.11180124,66fa4ebf79326e780c390304,,,,,,,,,,,,,,,,,,,,,542.5247,542.5247,542.5259,543.3076,1,0,right,0.2505,,543.309,544.391,1,1,right,544.3924,544.393,,1,,0,544.393,544.393,544.3935,545.8908,0,40,40,40,1,0.6,0.4,0.4,0.6,,,,,,,,,,,,,,,0.548,,0.6,0.4,0.2,0.8,0.6,0.4,0.2,0.8,1,0,,,,,,,,,,,,
,,65a9ca4a57dfdc3964333913,66fc984109a53c5aae5f09bc,2024-10-02_02h56.22.114,mdp,2024.2.1,MacIntel,62.11180124,66fa4ebf79326e780c390304,,,,,,,,,,,,,,,,,,,,,545.8913,545.8913,545.8926,546.5411,1,1,right,0.1176,,546.5424,547.4243,0,1,left,547.4257,547.4265,,1,,0,547.4266,547.4266,547.4272,548.9242,0,41,41,41,1,0.6,0.4,0.4,0.6,,,,,,,,,,,,,,,0.3481,,0.6,0.4,0.2,0.8,0.6,0.4,0.2,0.8,1,0,,,,,,,,,,,,
,,65a9ca4a57dfdc3964333913,66fc984109a53c5aae5f09bc,2024-10-02_02h56.22.114,mdp,2024.2.1,MacIntel,62.11180124,66fa4ebf79326e780c390304,,,,,,,,,,,,,,,,,,,,,548.9247,548.9247,548.9258,549.7077,1,1,right,0.2612,,549.7088,550.7576,1,1,right,550.7589,550.7598,,1,,0,550.7599,550.7599,550.7605,552.2575,0,42,42,42,1,0.6,0.4,0.4,0.6,,,,,,,,,,,,,,,0.5174,,0.6,0.4,0.2,0.8,0.6,0.4,0.2,0.8,1,0,,,,,,,,,,,,
,,65a9ca4a57dfdc3964333913,66fc984109a53c5aae5f09bc,2024-10-02_02h56.22.114,mdp,2024.2.1,MacIntel,62.11180124,66fa4ebf79326e780c390304,,,,,,,,,,,,,,,,,,,,,552.258,552.258,552.2593,553.1409,1,1,right,0.3501,,553.1423,553.9409,0,0,left,553.942,553.9426,,0,,1,553.9427,553.9428,553.9433,555.4408,0,43,43,43,1,0.6,0.4,0.4,0.6,,,,,,,,,,,,,,,0.2712,,0.6,0.4,0.2,0.8,0.6,0.4,0.2,0.8,1,0,,,,,,,,,,,,
,,65a9ca4a57dfdc3964333913,66fc984109a53c5aae5f09bc,2024-10-02_02h56.22.114,mdp,2024.2.1,MacIntel,62.11180124,66fa4ebf79326e780c390304,,,,,,,,,,,,,,,,,,,,,555.4412,555.4412,555.4425,556.3076,1,1,right,0.3344,,556.3089,557.2741,0,0,left,557.2753,557.276,,0,,1,557.276,557.2761,557.2765,558.7741,0,44,44,44,1,0.6,0.4,0.4,0.6,,,,,,,,,,,,,,,0.4365,,0.6,0.4,0.2,0.8,0.6,0.4,0.2,0.8,1,0,,,,,,,,,,,,
,,65a9ca4a57dfdc3964333913,66fc984109a53c5aae5f09bc,2024-10-02_02h56.22.114,mdp,2024.2.1,MacIntel,62.11180124,66fa4ebf79326e780c390304,,,,,,,,,,,,,,,,,,,,,558.7746,558.7746,558.7758,559.7075,1,1,right,0.4003,,559.7088,560.6575,0,1,left,560.659,560.6597,,0,,0,560.6597,560.6597,560.6601,562.1566,0,45,45,45,1,0.6,0.4,0.4,0.6,,,,,,,,,,,,,,,0.417,,0.6,0.4,0.2,0.8,0.6,0.4,0.2,0.8,1,0,,,,,,,,,,,,
,,65a9ca4a57dfdc3964333913,66fc984109a53c5aae5f09bc,2024-10-02_02h56.22.114,mdp,2024.2.1,MacIntel,62.11180124,66fa4ebf79326e780c390304,,,,,,,,,,,,,,,,,,,,,562.1571,562.1571,562.1581,562.9408,1,0,right,0.2708,,562.9419,563.8241,1,1,right,563.8255,563.8264,,1,,0,563.8265,563.8265,563.827,565.324,0,46,46,46,1,0.6,0.4,0.4,0.6,,,,,,,,,,,,,,,0.3484,,0.6,0.4,0.2,0.8,0.6,0.4,0.2,0.8,1,0,,,,,,,,,,,,
,,65a9ca4a57dfdc3964333913,66fc984109a53c5aae5f09bc,2024-10-02_02h56.22.114,mdp,2024.2.1,MacIntel,62.11180124,66fa4ebf79326e780c390304,,,,,,,,,,,,,,,,,,,,,565.3245,565.3245,565.3259,566.1575,1,0,right,0.3113,,566.1586,566.9908,1,1,right,566.9919,566.9924,,0,,0,566.9925,566.9925,566.993,568.4906,0,47,47,47,1,0.6,0.4,0.4,0.6,,,,,,,,,,,,,,,0.3054,,0.6,0.4,0.2,0.8,0.6,0.4,0.2,0.8,1,0,,,,,,,,,,,,
,,65a9ca4a57dfdc3964333913,66fc984109a53c5aae5f09bc,2024-10-02_02h56.22.114,mdp,2024.2.1,MacIntel,62.11180124,66fa4ebf79326e780c390304,,,,,,,,,,,,,,,,,,,,,568.4912,568.4912,568.4924,569.2907,1,1,right,0.2675,,569.2919,570.1404,1,1,right,570.1411,570.1415,,1,,0,570.1415,570.1415,570.1418,571.6406,0,48,48,48,1,0.6,0.4,0.4,0.6,,,,,,,,,,,,,,,0.3228,,0.6,0.4,0.2,0.8,0.6,0.4,0.2,0.8,1,0,,,,,,,,,,,,
,,65a9ca4a57dfdc3964333913,66fc984109a53c5aae5f09bc,2024-10-02_02h56.22.114,mdp,2024.2.1,MacIntel,62.11180124,66fa4ebf79326e780c390304,,,,,,,,,,,,,,,,,,,,,571.6412,571.6412,571.6425,572.5075,1,0,right,0.334,,572.5089,573.3907,1,1,right,573.3921,573.3929,,0,,0,573.3929,573.3929,573.3935,574.8905,0,49,49,49,1,0.6,0.4,0.4,0.6,,,,,,,,,,,,,,,0.3481,,0.6,0.4,0.2,0.8,0.8,0.2,0.8,0.2,1,0,,,,,,,,,,,,
,,65a9ca4a57dfdc3964333913,66fc984109a53c5aae5f09bc,2024-10-02_02h56.22.114,mdp,2024.2.1,MacIntel,62.11180124,66fa4ebf79326e780c390304,,,,,,,,,,,,,,,,,,,,,,,,,,,,,,,,,,,,,,,,,,,,,,,,,,,,,,,,574.8907,633.4069,0,1,1,7,1,imgs/cat.png,imgs/bear.png,imgs/elephant.png,imgs/kangaroo.png,imgs/squirrel.png,,,,,,,,,,,,,,,,,,,,,,,,
,,65a9ca4a57dfdc3964333913,66fc984109a53c5aae5f09bc,2024-10-02_02h56.22.114,mdp,2024.2.1,MacIntel,62.11180124,66fa4ebf79326e780c390304,,,,,,,,,,,,,,3,seqs/st3seq5.csv,633.4084,662.4903,space,28.549,,662.4965,662.4965,662.4974,669.7567,0,1,left,6.7311,,669.7582,675.8556,0,1,left,675.8569,678.2556,0,0,left,1,678.2556,678.2556,678.2571,679.7555,0,0,0,0,1,0.6,0.4,0.2,0.8,,,,,,,,,,,,,,,5.5665,,0.8,0.2,0.4,0.6,0.8,0.2,0.8,0.2,,,1.8896,,0.2,0.8,0.4,0.6,0.6,0.4,0.8,0.2,1,0
,,65a9ca4a57dfdc3964333913,66fc984109a53c5aae5f09bc,2024-10-02_02h56.22.114,mdp,2024.2.1,MacIntel,62.11180124,66fa4ebf79326e780c390304,,,,,,,,,,,,,,,,,,,,,679.7563,679.7563,679.7575,681.5566,0,0,left,1.2684,,681.558,685.2397,1,1,right,685.2409,687.3389,0,0,left,1,687.3391,687.3391,687.3404,688.8396,0,1,1,1,1,0.6,0.4,0.2,0.8,,,,,,,,,,,,,,,3.1459,,0.8,0.2,0.4,0.6,0.8,0.2,0.8,0.2,,,1.5676,,0.2,0.8,0.4,0.6,0.6,0.4,0.8,0.2,1,0
,,65a9ca4a57dfdc3964333913,66fc984109a53c5aae5f09bc,2024-10-02_02h56.22.114,mdp,2024.2.1,MacIntel,62.11180124,66fa4ebf79326e780c390304,,,,,,,,,,,,,,,,,,,,,688.8402,688.8402,688.8413,691.923,0,0,left,2.5517,,691.9242,695.823,1,1,right,695.8245,697.7898,0,0,left,1,697.7899,697.7899,697.7913,699.2895,0,2,2,2,1,0.6,0.4,0.2,0.8,,,,,,,,,,,,,,,3.3662,,0.8,0.2,0.4,0.6,0.8,0.2,0.8,0.2,,,1.435,,0.2,0.8,0.4,0.6,0.6,0.4,0.8,0.2,1,0
,,65a9ca4a57dfdc3964333913,66fc984109a53c5aae5f09bc,2024-10-02_02h56.22.114,mdp,2024.2.1,MacIntel,62.11180124,66fa4ebf79326e780c390304,,,,,,,,,,,,,,,,,,,,,699.2901,699.2901,699.2915,700.9396,0,1,left,1.121,,700.9409,704.0229,0,0,left,704.0242,706.2062,1,0,right,1,706.2063,706.2063,706.2075,707.7061,0,3,3,3,1,0.6,0.4,0.2,0.8,,,,,,,,,,,,,,,2.5508,,0.8,0.2,0.4,0.6,0.8,0.2,0.8,0.2,,,1.6499,,0.2,0.8,0.4,0.6,0.6,0.4,0.8,0.2,1,0
,,65a9ca4a57dfdc3964333913,66fc984109a53c5aae5f09bc,2024-10-02_02h56.22.114,mdp,2024.2.1,MacIntel,62.11180124,66fa4ebf79326e780c390304,,,,,,,,,,,,,,,,,,,,,707.7067,707.7067,707.7079,708.7563,0,0,left,0.5172,,708.7576,710.6895,1,0,right,710.691,712.8229,1,1,right,0,712.8231,712.8231,712.8245,714.3227,0,4,4,4,1,0.6,0.4,0.2,0.8,,,,,,,,,,,,,,,1.3977,,0.8,0.2,0.4,0.6,0.8,0.2,0.8,0.2,,,1.6009,,0.2,0.8,0.4,0.6,0.6,0.4,0.8,0.2,1,0
,,65a9ca4a57dfdc3964333913,66fc984109a53c5aae5f09bc,2024-10-02_02h56.22.114,mdp,2024.2.1,MacIntel,62.11180124,66fa4ebf79326e780c390304,,,,,,,,,,,,,,,,,,,,,714.3234,714.3234,714.3245,716.9229,0,0,left,2.0673,,716.9243,718.9227,1,1,right,718.9238,720.1395,0,1,left,0,720.1396,720.1396,720.141,721.6393,0,5,5,5,1,0.6,0.4,0.2,0.8,,,,,,,,,,,,,,,1.4677,,0.8,0.2,0.4,0.6,0.8,0.2,0.8,0.2,,,0.6811,,0.2,0.8,0.4,0.6,0.6,0.4,0.8,0.2,1,0
,,65a9ca4a57dfdc3964333913,66fc984109a53c5aae5f09bc,2024-10-02_02h56.22.114,mdp,2024.2.1,MacIntel,62.11180124,66fa4ebf79326e780c390304,,,,,,,,,,,,,,,,,,,,,721.6399,721.6399,721.6411,722.8395,0,1,left,0.6672,,722.8407,724.7227,0,1,left,724.7238,725.7895,0,1,left,0,725.7895,725.7895,725.7909,727.2893,0,6,6,6,1,0.6,0.4,0.2,0.8,,,,,,,,,,,,,,,1.3511,,0.8,0.2,0.4,0.6,0.8,0.2,0.8,0.2,,,0.534,,0.2,0.8,0.4,0.6,0.6,0.4,0.8,0.2,1,0
,,65a9ca4a57dfdc3964333913,66fc984109a53c5aae5f09bc,2024-10-02_02h56.22.114,mdp,2024.2.1,MacIntel,62.11180124,66fa4ebf79326e780c390304,,,,,,,,,,,,,,,,,,,,,727.2899,727.2899,727.291,728.1062,1,1,right,0.2837,,728.1076,729.8394,0,1,left,729.8406,730.7394,0,0,left,1,730.7395,730.7395,730.7407,732.2392,0,7,7,7,1,0.6,0.4,0.2,0.8,,,,,,,,,,,,,,,1.2101,,0.8,0.2,0.4,0.6,0.8,0.2,0.8,0.2,,,0.3776,,0.2,0.8,0.4,0.6,0.6,0.4,0.8,0.2,1,0
,,65a9ca4a57dfdc3964333913,66fc984109a53c5aae5f09bc,2024-10-02_02h56.22.114,mdp,2024.2.1,MacIntel,62.11180124,66fa4ebf79326e780c390304,,,,,,,,,,,,,,,,,,,,,732.2399,732.2399,732.2412,733.156,1,1,right,0.3834,,733.1572,734.356,0,0,left,734.3575,735.6394,1,1,right,0,735.6395,735.6395,735.6409,737.1391,0,8,8,8,1,0.6,0.4,0.2,0.8,,,,,,,,,,,,,,,0.6674,,0.8,0.2,0.4,0.6,0.8,0.2,0.8,0.2,,,0.7488,,0.2,0.8,0.4,0.6,0.6,0.4,0.8,0.2,1,0
,,65a9ca4a57dfdc3964333913,66fc984109a53c5aae5f09bc,2024-10-02_02h56.22.114,mdp,2024.2.1,MacIntel,62.11180124,66fa4ebf79326e780c390304,,,,,,,,,,,,,,,,,,,,,737.1398,737.1398,737.1412,738.1393,1,1,right,0.4668,,738.1404,738.9892,1,0,right,738.9905,739.8226,1,1,right,0,739.8227,739.8227,739.8239,741.3225,0,9,9,9,1,0.6,0.4,0.2,0.8,,,,,,,,,,,,,,,0.3206,,0.8,0.2,0.4,0.6,0.8,0.2,0.8,0.2,,,0.302,,0.2,0.8,0.4,0.6,0.6,0.4,0.8,0.2,1,0
,,65a9ca4a57dfdc3964333913,66fc984109a53c5aae5f09bc,2024-10-02_02h56.22.114,mdp,2024.2.1,MacIntel,62.11180124,66fa4ebf79326e780c390304,,,,,,,,,,,,,,,,,,,,,741.3231,741.3231,741.3243,742.1392,0,1,left,0.2863,,742.1404,743.0226,1,1,right,743.024,743.8226,0,0,left,1,743.8227,743.8227,743.8239,745.3225,0,10,10,10,1,0.6,0.4,0.2,0.8,,,,,,,,,,,,,,,0.3507,,0.8,0.2,0.4,0.6,0.8,0.2,0.8,0.2,,,0.2752,,0.2,0.8,0.4,0.6,0.6,0.4,0.8,0.2,1,0
,,65a9ca4a57dfdc3964333913,66fc984109a53c5aae5f09bc,2024-10-02_02h56.22.114,mdp,2024.2.1,MacIntel,62.11180124,66fa4ebf79326e780c390304,,,,,,,,,,,,,,,,,,,,,745.3231,745.3231,745.3242,746.1558,0,1,left,0.2995,,746.1572,747.056,1,0,right,747.0574,747.8392,1,1,right,0,747.8393,747.8393,747.8407,749.3391,0,11,11,11,1,0.6,0.4,0.2,0.8,,,,,,,,,,,,,,,0.3672,,0.8,0.2,0.4,0.6,0.8,0.2,0.8,0.2,,,0.2482,,0.2,0.8,0.4,0.6,0.6,0.4,0.8,0.2,1,0
,,65a9ca4a57dfdc3964333913,66fc984109a53c5aae5f09bc,2024-10-02_02h56.22.114,mdp,2024.2.1,MacIntel,62.11180124,66fa4ebf79326e780c390304,,,,,,,,,,,,,,,,,,,,,749.3396,749.3396,749.3409,749.9559,0,0,left,0.0836,,749.9573,750.7389,0,0,left,750.74,751.4892,0,1,left,0,751.4893,751.4893,751.4905,752.989,0,12,12,12,1,0.6,0.4,0.2,0.8,,,,,,,,,,,,,,,0.248,,0.8,0.2,0.4,0.6,0.8,0.2,0.8,0.2,,,0.2166,,0.2,0.8,0.4,0.6,0.6,0.4,0.8,0.2,1,0
,,65a9ca4a57dfdc3964333913,66fc984109a53c5aae5f09bc,2024-10-02_02h56.22.114,mdp,2024.2.1,MacIntel,62.11180124,66fa4ebf79326e780c390304,,,,,,,,,,,,,,,,,,,,,752.9897,752.9897,752.9909,753.7057,1,1,right,0.1865,,753.7069,754.4559,1,0,right,754.4572,755.1884,1,0,right,1,755.1886,755.1886,755.1897,756.689,0,13,13,13,1,0.6,0.4,0.2,0.8,,,,,,,,,,,,,,,0.2146,,0.8,0.2,0.4,0.6,0.8,0.2,0.8,0.2,,,0.2049,,0.2,0.8,0.4,0.6,0.6,0.4,0.8,0.2,1,0
,,65a9ca4a57dfdc3964333913,66fc984109a53c5aae5f09bc,2024-10-02_02h56.22.114,mdp,2024.2.1,MacIntel,62.11180124,66fa4ebf79326e780c390304,,,,,,,,,,,,,,,,,,,,,756.6897,756.6897,756.691,757.4892,1,1,right,0.2673,,757.4906,758.6058,1,0,right,758.607,759.4391,1,1,right,0,759.4392,759.4392,759.4404,760.939,0,14,14,14,1,0.2,0.8,0.8,0.2,,,,,,,,,,,,,,,0.5951,,0.8,0.2,0.4,0.6,0.8,0.2,0.8,0.2,,,0.3105,,0.2,0.8,0.4,0.6,0.6,0.4,0.8,0.2,1,0
,,65a9ca4a57dfdc3964333913,66fc984109a53c5aae5f09bc,2024-10-02_02h56.22.114,mdp,2024.2.1,MacIntel,62.11180124,66fa4ebf79326e780c390304,,,,,,,,,,,,,,,,,,,,,760.9396,760.9396,760.9409,761.5724,0,0,left,0.1006,,761.5738,762.5557,0,0,left,762.5569,763.3056,1,1,right,0,763.3057,763.3057,763.3068,764.8056,0,15,15,15,1,0.2,0.8,0.8,0.2,,,,,,,,,,,,,,,0.4481,,0.8,0.2,0.4,0.6,0.8,0.2,0.8,0.2,,,0.2175,,0.2,0.8,0.4,0.6,0.6,0.4,0.8,0.2,1,0
,,65a9ca4a57dfdc3964333913,66fc984109a53c5aae5f09bc,2024-10-02_02h56.22.114,mdp,2024.2.1,MacIntel,62.11180124,66fa4ebf79326e780c390304,,,,,,,,,,,,,,,,,,,,,764.8062,764.8062,764.8076,765.4391,0,1,left,0.1003,,765.4404,766.5391,1,0,right,766.5405,767.2556,0,1,left,0,767.2557,767.2557,767.2567,768.7555,0,16,16,16,1,0.2,0.8,0.8,0.2,,,,,,,,,,,,,,,0.5651,,0.8,0.2,0.4,0.6,0.8,0.2,0.8,0.2,,,0.1843,,0.2,0.8,0.4,0.6,0.6,0.4,0.8,0.2,1,0
,,65a9ca4a57dfdc3964333913,66fc984109a53c5aae5f09bc,2024-10-02_02h56.22.114,mdp,2024.2.1,MacIntel,62.11180124,66fa4ebf79326e780c390304,,,,,,,,,,,,,,,,,,,,,768.7562,768.7562,768.7574,769.3057,0,1,left,0.0174,,769.3071,770.139,0,1,left,770.1404,770.9724,0,1,left,0,770.9725,770.9725,770.9738,772.4721,0,17,17,17,1,0.2,0.8,0.8,0.2,,,,,,,,,,,,,,,0.3001,,0.8,0.2,0.4,0.6,0.8,0.2,0.8,0.2,,,0.298,,0.6,0.4,0.2,0.8,0.6,0.4,0.8,0.2,1,0
,,65a9ca4a57dfdc3964333913,66fc984109a53c5aae5f09bc,2024-10-02_02h56.22.114,mdp,2024.2.1,MacIntel,62.11180124,66fa4ebf79326e780c390304,,,,,,,,,,,,,,,,,,,,,772.4727,772.4728,772.474,773.8889,0,0,left,0.8863,,773.8901,775.3391,1,1,right,775.3405,776.589,0,0,left,1,776.5891,776.5891,776.5902,778.0886,0,18,18,18,1,0.2,0.8,0.8,0.2,,,,,,,,,,,,,,,0.915,,0.8,0.2,0.4,0.6,0.8,0.2,0.8,0.2,,,0.72,,0.4,0.6,0.8,0.2,0.6,0.4,0.8,0.2,1,0
,,65a9ca4a57dfdc3964333913,66fc984109a53c5aae5f09bc,2024-10-02_02h56.22.114,mdp,2024.2.1,MacIntel,62.11180124,66fa4ebf79326e780c390304,,,,,,,,,,,,,,,,,,,,,778.0892,778.0892,778.0904,780.2556,0,0,left,1.6383,,780.2568,781.5889,1,0,right,781.5903,782.8723,1,0,right,1,782.8724,782.8724,782.8737,784.3721,0,19,19,19,1,0.6,0.4,0.2,0.8,,,,,,,,,,,,,,,0.8007,,0.8,0.2,0.4,0.6,0.8,0.2,0.8,0.2,,,0.7481,,0.4,0.6,0.8,0.2,0.6,0.4,0.8,0.2,1,0
,,65a9ca4a57dfdc3964333913,66fc984109a53c5aae5f09bc,2024-10-02_02h56.22.114,mdp,2024.2.1,MacIntel,62.11180124,66fa4ebf79326e780c390304,,,,,,,,,,,,,,,,,,,,,784.3727,784.3727,784.3738,785.6389,0,0,left,0.7337,,785.6401,787.4555,1,0,right,787.4567,788.6557,1,1,right,0,788.6559,788.6559,788.6573,790.1552,0,20,20,20,1,0.6,0.4,0.2,0.8,,,,,,,,,,,,,,,1.2874,,0.2,0.8,0.6,0.4,0.8,0.2,0.8,0.2,,,0.6668,,0.4,0.6,0.8,0.2,0.6,0.4,0.8,0.2,1,0
,,65a9ca4a57dfdc3964333913,66fc984109a53c5aae5f09bc,2024-10-02_02h56.22.114,mdp,2024.2.1,MacIntel,62.11180124,66fa4ebf79326e780c390304,,,,,,,,,,,,,,,,,,,,,790.1556,790.1556,790.1566,791.4888,0,1,left,0.8002,,791.4902,793.7389,1,0,right,793.7403,795.3555,1,0,right,1,795.3556,795.3556,795.3569,796.8543,0,21,21,21,1,0.6,0.4,0.2,0.8,,,,,,,,,,,,,,,1.7146,,0.2,0.8,0.6,0.4,0.8,0.2,0.8,0.2,,,1.086,,0.2,0.8,0.6,0.4,0.6,0.4,0.8,0.2,1,0
,,65a9ca4a57dfdc3964333913,66fc984109a53c5aae5f09bc,2024-10-02_02h56.22.114,mdp,2024.2.1,MacIntel,62.11180124,66fa4ebf79326e780c390304,,,,,,,,,,,,,,,,,,,,,796.8548,796.8549,796.8558,798.2888,0,0,left,0.9049,,798.2901,799.922,1,1,right,799.9234,800.9221,0,1,left,0,800.9223,800.9223,800.9237,802.4211,0,22,22,22,1,0.6,0.4,0.2,0.8,,,,,,,,,,,,,,,1.1014,,0.2,0.8,0.6,0.4,0.8,0.2,0.8,0.2,,,0.4646,,0.2,0.8,0.6,0.4,0.6,0.4,0.8,0.2,1,0
,,65a9ca4a57dfdc3964333913,66fc984109a53c5aae5f09bc,2024-10-02_02h56.22.114,mdp,2024.2.1,MacIntel,62.11180124,66fa4ebf79326e780c390304,,,,,,,,,,,,,,,,,,,,,802.4217,802.4217,802.4228,803.7886,0,1,left,0.8606,,803.79,806.672,1,0,right,806.6731,808.2721,1,1,right,0,808.2721,808.2722,808.2735,809.7719,0,23,23,23,1,0.6,0.4,0.2,0.8,,,,,,,,,,,,,,,2.3506,,0.2,0.8,0.6,0.4,0.8,0.2,0.8,0.2,,,1.0654,,0.2,0.8,0.6,0.4,0.4,0.6,0.6,0.4,1,0
,,65a9ca4a57dfdc3964333913,66fc984109a53c5aae5f09bc,2024-10-02_02h56.22.114,mdp,2024.2.1,MacIntel,62.11180124,66fa4ebf79326e780c390304,,,,,,,,,,,,,,,,,,,,,809.7725,809.7725,809.7738,810.7888,0,1,left,0.4824,,810.7904,812.2721,1,0,right,812.2734,813.5552,1,0,right,1,813.5552,813.5552,813.5563,815.0543,0,24,24,24,1,0.6,0.4,0.2,0.8,,,,,,,,,,,,,,,0.9638,,0.2,0.8,0.6,0.4,0.8,0.2,0.8,0.2,,,0.7603,,0.2,0.8,0.6,0.4,0.4,0.6,0.6,0.4,1,0
,,65a9ca4a57dfdc3964333913,66fc984109a53c5aae5f09bc,2024-10-02_02h56.22.114,mdp,2024.2.1,MacIntel,62.11180124,66fa4ebf79326e780c390304,,,,,,,,,,,,,,,,,,,,,815.0551,815.0551,815.0562,816.5545,0,0,left,0.9658,,816.5561,818.0878,1,1,right,818.0892,819.5043,1,1,right,0,819.5044,819.5044,819.5056,821.005,0,25,25,25,1,0.6,0.4,0.2,0.8,,,,,,,,,,,,,,,1.0148,,0.4,0.6,0.8,0.2,0.8,0.2,0.8,0.2,,,0.8979,,0.2,0.8,0.6,0.4,0.4,0.6,0.6,0.4,1,0
,,65a9ca4a57dfdc3964333913,66fc984109a53c5aae5f09bc,2024-10-02_02h56.22.114,mdp,2024.2.1,MacIntel,62.11180124,66fa4ebf79326e780c390304,,,,,,,,,,,,,,,,,,,,,821.0057,821.0057,821.0069,822.2052,0,1,left,0.6677,,822.2066,823.6386,1,1,right,823.6396,824.8718,0,1,left,0,824.8719,824.8719,824.8731,826.3709,0,26,26,26,1,0.6,0.4,0.2,0.8,,,,,,,,,,,,,,,0.9009,,0.4,0.6,0.8,0.2,0.8,0.2,0.8,0.2,,,0.7105,,0.2,0.8,0.6,0.4,0.4,0.6,0.6,0.4,1,0
,,65a9ca4a57dfdc3964333913,66fc984109a53c5aae5f09bc,2024-10-02_02h56.22.114,mdp,2024.2.1,MacIntel,62.11180124,66fa4ebf79326e780c390304,,,,,,,,,,,,,,,,,,,,,826.3715,826.3715,826.3726,827.2719,0,0,left,0.3709,,827.2732,828.8552,1,1,right,828.8563,830.0552,1,1,right,0,830.0553,830.0553,830.0566,831.5552,0,27,27,27,1,0.6,0.4,0.2,0.8,,,,,,,,,,,,,,,1.0589,,0.4,0.6,0.8,0.2,0.8,0.2,0.8,0.2,,,0.6686,,0.2,0.8,0.6,0.4,0.2,0.8,0.8,0.2,1,0
,,65a9ca4a57dfdc3964333913,66fc984109a53c5aae5f09bc,2024-10-02_02h56.22.114,mdp,2024.2.1,MacIntel,62.11180124,66fa4ebf79326e780c390304,,,,,,,,,,,,,,,,,,,,,831.5559,831.5559,831.5572,832.3218,0,0,left,0.2382,,832.3229,833.5385,1,0,right,833.5398,835.0052,1,0,right,1,835.0053,835.0053,835.0065,836.5042,0,28,28,28,1,0.6,0.4,0.2,0.8,,,,,,,,,,,,,,,0.6856,,0.4,0.6,0.8,0.2,0.8,0.2,0.8,0.2,,,0.9289,,0.2,0.8,0.6,0.4,0.2,0.8,0.8,0.2,1,0
,,65a9ca4a57dfdc3964333913,66fc984109a53c5aae5f09bc,2024-10-02_02h56.22.114,mdp,2024.2.1,MacIntel,62.11180124,66fa4ebf79326e780c390304,,,,,,,,,,,,,,,,,,,,,836.5048,836.5048,836.5059,837.4052,0,0,left,0.3791,,837.4064,839.8384,1,0,right,839.8396,841.0884,1,1,right,0,841.0885,841.0885,841.0899,842.5874,0,29,29,29,1,0.6,0.4,0.2,0.8,,,,,,,,,,,,,,,1.9024,,0.4,0.6,0.8,0.2,0.8,0.2,0.8,0.2,,,0.717,,0.2,0.8,0.6,0.4,0.2,0.8,0.8,0.2,1,0
,,65a9ca4a57dfdc3964333913,66fc984109a53c5aae5f09bc,2024-10-02_02h56.22.114,mdp,2024.2.1,MacIntel,62.11180124,66fa4ebf79326e780c390304,,,,,,,,,,,,,,,,,,,,,842.588,842.588,842.5892,843.1383,0,1,left,0.0346,,843.1396,844.5217,0,1,left,844.5231,845.2717,0,1,left,0,845.2718,845.2718,845.2732,846.7714,0,30,30,30,1,0.6,0.4,0.2,0.8,,,,,,,,,,,,,,,0.8485,,0.4,0.6,0.8,0.2,0.8,0.2,0.8,0.2,,,0.2146,,0.2,0.8,0.6,0.4,0.2,0.8,0.8,0.2,1,0
,,65a9ca4a57dfdc3964333913,66fc984109a53c5aae5f09bc,2024-10-02_02h56.22.114,mdp,2024.2.1,MacIntel,62.11180124,66fa4ebf79326e780c390304,,,,,,,,,,,,,,,,,,,,,846.772,846.772,846.773,847.6386,1,1,right,0.3451,,847.6399,848.4381,0,0,left,848.4395,849.1875,1,1,right,0,849.1877,849.1877,849.189,850.6874,0,31,31,31,1,0.6,0.4,0.2,0.8,,,,,,,,,,,,,,,0.2681,,0.4,0.6,0.8,0.2,0.8,0.2,0.8,0.2,,,0.2146,,0.2,0.8,0.6,0.4,0.2,0.8,0.8,0.2,1,0
,,65a9ca4a57dfdc3964333913,66fc984109a53c5aae5f09bc,2024-10-02_02h56.22.114,mdp,2024.2.1,MacIntel,62.11180124,66fa4ebf79326e780c390304,,,,,,,,,,,,,,,,,,,,,850.688,850.688,850.689,851.7382,1,1,right,0.5431,,851.7395,852.3716,1,0,right,852.3728,853.0217,1,0,right,1,853.0217,853.0217,853.0229,854.5215,0,32,32,32,1,0.6,0.4,0.2,0.8,,,,,,,,,,,,,,,0.1029,,0.8,0.2,0.4,0.6,0.8,0.2,0.8,0.2,,,0.1275,,0.2,0.8,0.6,0.4,0.2,0.8,0.8,0.2,1,0
,,65a9ca4a57dfdc3964333913,66fc984109a53c5aae5f09bc,2024-10-02_02h56.22.114,mdp,2024.2.1,MacIntel,62.11180124,66fa4ebf79326e780c390304,,,,,,,,,,,,,,,,,,,,,854.5221,854.5222,854.5233,855.3383,0,0,left,0.2943,,855.3396,856.1549,0,0,left,856.1563,856.9717,1,0,right,1,856.9719,856.9719,856.973,858.4706,0,33,33,33,1,0.6,0.4,0.2,0.8,,,,,,,,,,,,,,,0.2826,,0.8,0.2,0.4,0.6,0.8,0.2,0.8,0.2,,,0.2827,,0.2,0.8,0.6,0.4,0.2,0.8,0.8,0.2,1,0
,,65a9ca4a57dfdc3964333913,66fc984109a53c5aae5f09bc,2024-10-02_02h56.22.114,mdp,2024.2.1,MacIntel,62.11180124,66fa4ebf79326e780c390304,,,,,,,,,,,,,,,,,,,,,858.4712,858.4713,858.4724,859.354,0,0,left,0.351,,859.3553,860.1547,1,0,right,860.1559,860.9706,1,1,right,0,860.9708,860.9708,860.9721,862.4706,0,34,34,34,1,0.6,0.4,0.2,0.8,,,,,,,,,,,,,,,0.2771,,0.8,0.2,0.4,0.6,0.8,0.2,0.8,0.2,,,0.2831,,0.2,0.8,0.6,0.4,0.2,0.8,0.8,0.2,1,0
,,65a9ca4a57dfdc3964333913,66fc984109a53c5aae5f09bc,2024-10-02_02h56.22.114,mdp,2024.2.1,MacIntel,62.11180124,66fa4ebf79326e780c390304,,,,,,,,,,,,,,,,,,,,,862.4712,862.4712,862.4723,863.2382,1,1,right,0.254,,863.2392,864.0549,0,0,left,864.056,864.8883,0,1,left,0,864.8884,864.8885,864.89,866.388,0,35,35,35,1,0.6,0.4,0.2,0.8,,,,,,,,,,,,,,,0.2816,,0.2,0.8,0.8,0.2,0.8,0.2,0.8,0.2,,,0.3017,,0.2,0.8,0.6,0.4,0.2,0.8,0.8,0.2,1,0
,,65a9ca4a57dfdc3964333913,66fc984109a53c5aae5f09bc,2024-10-02_02h56.22.114,mdp,2024.2.1,MacIntel,62.11180124,66fa4ebf79326e780c390304,,,,,,,,,,,,,,,,,,,,,866.3886,866.3886,866.3899,867.0549,1,0,right,0.135,,867.0563,867.7882,0,1,left,867.7896,868.5374,0,1,left,0,868.5374,868.5374,868.5389,870.0372,0,36,36,36,1,0.6,0.4,0.2,0.8,,,,,,,,,,,,,,,0.1996,,0.2,0.8,0.8,0.2,0.8,0.2,0.8,0.2,,,0.2159,,0.2,0.8,0.6,0.4,0.2,0.8,0.8,0.2,1,0
,,65a9ca4a57dfdc3964333913,66fc984109a53c5aae5f09bc,2024-10-02_02h56.22.114,mdp,2024.2.1,MacIntel,62.11180124,66fa4ebf79326e780c390304,,,,,,,,,,,,,,,,,,,,,870.0378,870.0378,870.039,870.9206,0,0,left,0.3668,,870.9221,871.9383,1,0,right,871.9398,873.0382,1,0,right,1,873.0382,873.0382,873.0396,874.5371,0,37,37,37,1,0.6,0.4,0.2,0.8,,,,,,,,,,,,,,,0.4991,,0.2,0.8,0.8,0.2,0.8,0.2,0.8,0.2,,,0.5644,,0.2,0.8,0.6,0.4,0.2,0.8,0.8,0.2,1,0
,,65a9ca4a57dfdc3964333913,66fc984109a53c5aae5f09bc,2024-10-02_02h56.22.114,mdp,2024.2.1,MacIntel,62.11180124,66fa4ebf79326e780c390304,,,,,,,,,,,,,,,,,,,,,874.5377,874.5377,874.5387,875.5714,0,1,left,0.5198,,875.5725,877.0381,0,0,left,877.0396,878.2216,0,0,left,1,878.2217,878.2217,878.2228,879.7204,0,38,38,38,1,0.6,0.4,0.2,0.8,,,,,,,,,,,,,,,0.9313,,0.2,0.8,0.8,0.2,0.8,0.2,0.8,0.2,,,0.6618,,0.2,0.8,0.6,0.4,0.2,0.8,0.8,0.2,1,0
,,65a9ca4a57dfdc3964333913,66fc984109a53c5aae5f09bc,2024-10-02_02h56.22.114,mdp,2024.2.1,MacIntel,62.11180124,66fa4ebf79326e780c390304,,,,,,,,,,,,,,,,,,,,,879.721,879.721,879.7223,880.6547,0,1,left,0.4041,,880.6558,882.038,0,0,left,882.0395,883.0379,0,0,left,1,883.0381,883.0381,883.0392,884.5379,0,39,39,39,1,0.6,0.4,0.2,0.8,,,,,,,,,,,,,,,0.8503,,0.2,0.8,0.8,0.2,0.8,0.2,0.8,0.2,,,0.4773,,0.6,0.4,0.8,0.2,0.2,0.8,0.8,0.2,1,0
,,65a9ca4a57dfdc3964333913,66fc984109a53c5aae5f09bc,2024-10-02_02h56.22.114,mdp,2024.2.1,MacIntel,62.11180124,66fa4ebf79326e780c390304,,,,,,,,,,,,,,,,,,,,,884.5384,884.5385,884.5396,885.4214,0,0,left,0.3611,,885.4225,886.8043,1,0,right,886.8056,888.1039,1,0,right,1,888.104,888.104,888.1053,889.6045,0,40,40,40,1,0.6,0.4,0.2,0.8,,,,,,,,,,,,,,,0.8478,,0.2,0.8,0.8,0.2,0.8,0.2,0.8,0.2,,,0.7688,,0.6,0.4,0.8,0.2,0.2,0.8,0.8,0.2,1,0
,,65a9ca4a57dfdc3964333913,66fc984109a53c5aae5f09bc,2024-10-02_02h56.22.114,mdp,2024.2.1,MacIntel,62.11180124,66fa4ebf79326e780c390304,,,,,,,,,,,,,,,,,,,,,889.6051,889.6051,889.6063,890.4879,0,1,left,0.3546,,890.4891,892.0213,1,0,right,892.0227,893.1038,1,0,right,1,893.1038,893.1038,893.1052,894.6044,0,41,41,41,1,0.6,0.4,0.2,0.8,,,,,,,,,,,,,,,0.9999,,0.2,0.8,0.8,0.2,0.8,0.2,0.8,0.2,,,0.5496,,0.6,0.4,0.8,0.2,0.2,0.8,0.8,0.2,1,0
,,65a9ca4a57dfdc3964333913,66fc984109a53c5aae5f09bc,2024-10-02_02h56.22.114,mdp,2024.2.1,MacIntel,62.11180124,66fa4ebf79326e780c390304,,,,,,,,,,,,,,,,,,,,,894.6051,894.6051,894.6063,895.4873,0,1,left,0.3498,,895.4886,896.5713,1,1,right,896.5726,897.6046,1,0,right,1,897.6047,897.6047,897.6059,899.1044,0,42,42,42,1,0.6,0.4,0.2,0.8,,,,,,,,,,,,,,,0.5665,,0.2,0.8,0.8,0.2,0.8,0.2,0.8,0.2,,,0.4978,,0.8,0.2,0.4,0.6,0.2,0.8,0.8,0.2,1,0
,,65a9ca4a57dfdc3964333913,66fc984109a53c5aae5f09bc,2024-10-02_02h56.22.114,mdp,2024.2.1,MacIntel,62.11180124,66fa4ebf79326e780c390304,,,,,,,,,,,,,,,,,,,,,899.105,899.105,899.1063,900.0046,0,0,left,0.3772,,900.0057,901.188,0,1,left,901.1894,902.1384,0,0,left,1,902.1384,902.1384,902.1398,903.6378,0,43,43,43,1,0.8,0.2,0.8,0.2,,,,,,,,,,,,,,,0.6482,,0.2,0.8,0.8,0.2,0.8,0.2,0.8,0.2,,,0.4286,,0.8,0.2,0.4,0.6,0.2,0.8,0.8,0.2,1,0
,,65a9ca4a57dfdc3964333913,66fc984109a53c5aae5f09bc,2024-10-02_02h56.22.114,mdp,2024.2.1,MacIntel,62.11180124,66fa4ebf79326e780c390304,,,,,,,,,,,,,,,,,,,,,903.6384,903.6384,903.6397,904.5046,0,0,left,0.3446,,904.5059,905.9211,1,0,right,905.9223,907.1045,1,1,right,0,907.1046,907.1047,907.106,908.6043,0,44,44,44,1,0.8,0.2,0.8,0.2,,,,,,,,,,,,,,,0.8939,,0.2,0.8,0.8,0.2,0.8,0.2,0.8,0.2,,,0.6475,,0.8,0.2,0.4,0.6,0.2,0.8,0.8,0.2,1,0
,,65a9ca4a57dfdc3964333913,66fc984109a53c5aae5f09bc,2024-10-02_02h56.22.114,mdp,2024.2.1,MacIntel,62.11180124,66fa4ebf79326e780c390304,,,,,,,,,,,,,,,,,,,,,908.605,908.605,908.6062,909.4211,0,1,left,0.2841,,909.4225,910.7045,0,0,left,910.7058,911.7211,0,0,left,1,911.7213,911.7213,911.7226,913.221,0,45,45,45,1,0.8,0.2,0.8,0.2,,,,,,,,,,,,,,,0.7479,,0.2,0.8,0.8,0.2,0.8,0.2,0.8,0.2,,,0.4839,,0.8,0.2,0.4,0.6,0.2,0.8,0.8,0.2,1,0
,,65a9ca4a57dfdc3964333913,66fc984109a53c5aae5f09bc,2024-10-02_02h56.22.114,mdp,2024.2.1,MacIntel,62.11180124,66fa4ebf79326e780c390304,,,,,,,,,,,,,,,,,,,,,913.2216,913.2216,913.2228,914.2711,0,1,left,0.5171,,914.2725,915.2877,0,0,left,915.2889,916.1377,0,0,left,1,916.1378,916.1378,916.1389,917.6376,0,46,46,46,1,0.8,0.2,0.8,0.2,,,,,,,,,,,,,,,0.4848,,0.2,0.8,0.8,0.2,0.8,0.2,0.8,0.2,,,0.327,,0.8,0.2,0.4,0.6,0.2,0.8,0.8,0.2,1,0
,,65a9ca4a57dfdc3964333913,66fc984109a53c5aae5f09bc,2024-10-02_02h56.22.114,mdp,2024.2.1,MacIntel,62.11180124,66fa4ebf79326e780c390304,,,,,,,,,,,,,,,,,,,,,917.6382,917.6382,917.6395,918.571,0,1,left,0.4029,,918.5721,919.521,0,0,left,919.5226,920.4211,0,0,left,1,920.4212,920.4212,920.4224,921.9209,0,47,47,47,1,0.6,0.4,0.4,0.6,,,,,,,,,,,,,,,0.417,,0.2,0.8,0.8,0.2,0.8,0.2,0.8,0.2,,,0.3673,,0.8,0.2,0.4,0.6,0.2,0.8,0.8,0.2,1,0
,,65a9ca4a57dfdc3964333913,66fc984109a53c5aae5f09bc,2024-10-02_02h56.22.114,mdp,2024.2.1,MacIntel,62.11180124,66fa4ebf79326e780c390304,,,,,,,,,,,,,,,,,,,,,921.9215,921.9215,921.9227,922.7377,0,0,left,0.2842,,922.7391,923.7876,0,1,left,923.7887,924.8044,1,0,right,1,924.8045,924.8045,924.8058,926.3043,0,48,48,48,1,0.6,0.4,0.4,0.6,,,,,,,,,,,,,,,0.5229,,0.2,0.8,0.8,0.2,0.8,0.2,0.8,0.2,,,0.4826,,0.8,0.2,0.4,0.6,0.2,0.8,0.8,0.2,1,0
,,65a9ca4a57dfdc3964333913,66fc984109a53c5aae5f09bc,2024-10-02_02h56.22.114,mdp,2024.2.1,MacIntel,62.11180124,66fa4ebf79326e780c390304,,,,,,,,,,,,,,,,,,,,,926.3049,926.3049,926.306,927.171,0,1,left,0.3342,,927.1722,928.1376,0,0,left,928.1387,929.0543,0,0,left,1,929.0544,929.0544,929.0554,930.5541,0,49,49,49,1,0.6,0.4,0.4,0.6,,,,,,,,,,,,,,,0.4313,,0.2,0.8,0.8,0.2,0.8,0.2,0.8,0.2,,,0.3855,,0.8,0.2,0.4,0.6,0.2,0.8,0.8,0.2,1,0
,,65a9ca4a57dfdc3964333913,66fc984109a53c5aae5f09bc,2024-10-02_02h56.22.114,mdp,2024.2.1,MacIntel,62.11180124,66fa4ebf79326e780c390304,,,,,,,,,,,,,,,,,,,,,,,,,,,,,,,,,,,,,,,,,,,,,,,,,,,,,,,,930.5543,989.0705,0,2,2,3,1,imgs/elephant.png,imgs/goat.png,imgs/horse.png,imgs/bear.png,imgs/cat.png,,,,,,,,,,,,,,,,,,,,,,,,
,,65a9ca4a57dfdc3964333913,66fc984109a53c5aae5f09bc,2024-10-02_02h56.22.114,mdp,2024.2.1,MacIntel,62.11180124,66fa4ebf79326e780c390304,,,,,,,,,,,,,,3,seqs/st3seq0.csv,989.0711,1012.5207,space,22.9167,,1012.5266,1012.5266,1012.5275,1015.937,1,0,right,2.8767,,1015.9385,1018.186,1,1,right,1018.1873,1019.9864,0,1,left,0,1019.9865,1019.9865,1019.9876,1021.4858,0,0,0,0,1,0.2,0.8,0.8,0.2,,,,,,,,,,,,,,,1.7133,,0.6,0.4,0.4,0.6,0.2,0.8,0.6,0.4,,,1.2798,,0.8,0.2,0.2,0.8,0.4,0.6,0.2,0.8,1,0
,,65a9ca4a57dfdc3964333913,66fc984109a53c5aae5f09bc,2024-10-02_02h56.22.114,mdp,2024.2.1,MacIntel,62.11180124,66fa4ebf79326e780c390304,,,,,,,,,,,,,,,,,,,,,1021.4865,1021.4865,1021.4877,1023.4701,0,1,left,1.4704,,1023.4713,1026.2858,0,1,left,1026.287,1027.7693,0,1,left,0,1027.7695,1027.7695,1027.7707,1029.2699,0,1,1,1,1,0.2,0.8,0.8,0.2,,,,,,,,,,,,,,,2.2788,,0.6,0.4,0.4,0.6,0.2,0.8,0.6,0.4,,,0.9682,,0.8,0.2,0.2,0.8,0.4,0.6,0.2,0.8,1,0
,,65a9ca4a57dfdc3964333913,66fc984109a53c5aae5f09bc,2024-10-02_02h56.22.114,mdp,2024.2.1,MacIntel,62.11180124,66fa4ebf79326e780c390304,,,,,,,,,,,,,,,,,,,,,1029.2706,1029.2706,1029.2719,1030.2363,0,0,left,0.4443,,1030.2367,1031.9191,0,0,left,1031.9205,1033.386,1,1,right,0,1033.386,1033.386,1033.3871,1034.8857,0,2,2,2,1,0.2,0.8,0.8,0.2,,,,,,,,,,,,,,,1.1648,,0.6,0.4,0.4,0.6,0.2,0.8,0.6,0.4,,,0.9455,,0.8,0.2,0.2,0.8,0.4,0.6,0.2,0.8,1,0
,,65a9ca4a57dfdc3964333913,66fc984109a53c5aae5f09bc,2024-10-02_02h56.22.114,mdp,2024.2.1,MacIntel,62.11180124,66fa4ebf79326e780c390304,,,,,,,,,,,,,,,,,,,,,1034.8863,1034.8863,1034.8874,1036.4867,1,0,right,1.067,,1036.4881,1037.8687,1,0,right,1037.8693,1038.6867,1,1,right,0,1038.6868,1038.6868,1038.688,1040.1865,0,3,3,3,1,0.2,0.8,0.8,0.2,,,,,,,,,,,,,,,0.8593,,0.2,0.8,0.8,0.2,0.2,0.8,0.6,0.4,,,0.3016,,0.8,0.2,0.2,0.8,0.4,0.6,0.2,0.8,1,0
,,65a9ca4a57dfdc3964333913,66fc984109a53c5aae5f09bc,2024-10-02_02h56.22.114,mdp,2024.2.1,MacIntel,62.11180124,66fa4ebf79326e780c390304,,,,,,,,,,,,,,,,,,,,,1040.1871,1040.1872,1040.1883,1041.0023,1,1,right,0.2842,,1041.0034,1042.3534,0,1,left,1042.3547,1043.6199,0,1,left,0,1043.6201,1043.6201,1043.6211,1045.1198,0,4,4,4,1,0.2,0.8,0.8,0.2,,,,,,,,,,,,,,,0.8316,,0.2,0.8,0.8,0.2,0.2,0.8,0.6,0.4,,,0.7301,,0.8,0.2,0.2,0.8,0.4,0.6,0.2,0.8,1,0
,,65a9ca4a57dfdc3964333913,66fc984109a53c5aae5f09bc,2024-10-02_02h56.22.114,mdp,2024.2.1,MacIntel,62.11180124,66fa4ebf79326e780c390304,,,,,,,,,,,,,,,,,,,,,1045.1204,1045.1204,1045.1217,1045.9693,0,0,left,0.3223,,1045.9704,1047.3033,0,1,left,1047.3046,1048.6032,0,0,left,1,1048.6033,1048.6034,1048.6045,1050.1031,0,5,5,5,1,0.2,0.8,0.8,0.2,,,,,,,,,,,,,,,0.7968,,0.2,0.8,0.8,0.2,0.2,0.8,0.6,0.4,,,0.7709,,0.8,0.2,0.2,0.8,0.4,0.6,0.2,0.8,1,0
,,65a9ca4a57dfdc3964333913,66fc984109a53c5aae5f09bc,2024-10-02_02h56.22.114,mdp,2024.2.1,MacIntel,62.11180124,66fa4ebf79326e780c390304,,,,,,,,,,,,,,,,,,,,,1050.1037,1050.1037,1050.1048,1050.9199,0,1,left,0.2948,,1050.9213,1051.7031,0,0,left,1051.7043,1052.3699,0,0,left,1,1052.3701,1052.3701,1052.3713,1053.8698,0,6,6,6,1,0.2,0.8,0.8,0.2,,,,,,,,,,,,,,,0.247,,0.2,0.8,0.8,0.2,0.2,0.8,0.6,0.4,,,0.1326,,0.8,0.2,0.2,0.8,0.4,0.6,0.2,0.8,1,0
,,65a9ca4a57dfdc3964333913,66fc984109a53c5aae5f09bc,2024-10-02_02h56.22.114,mdp,2024.2.1,MacIntel,62.11180124,66fa4ebf79326e780c390304,,,,,,,,,,,,,,,,,,,,,1053.8704,1053.8704,1053.8717,1054.7195,0,1,left,0.3277,,1054.7207,1055.6364,0,1,left,1055.6377,1056.4366,0,1,left,0,1056.4367,1056.4367,1056.438,1057.9363,0,7,7,7,1,0.2,0.8,0.8,0.2,,,,,,,,,,,,,,,0.4002,,0.2,0.8,0.8,0.2,0.2,0.8,0.6,0.4,,,0.266,,0.8,0.2,0.2,0.8,0.4,0.6,0.2,0.8,1,0
,,65a9ca4a57dfdc3964333913,66fc984109a53c5aae5f09bc,2024-10-02_02h56.22.114,mdp,2024.2.1,MacIntel,62.11180124,66fa4ebf79326e780c390304,,,,,,,,,,,,,,,,,,,,,1057.937,1057.937,1057.9383,1058.6199,1,0,right,0.1517,,1058.6211,1059.2366,1,0,right,1059.238,1059.8035,1,1,right,0,1059.8036,1059.8036,1059.8048,1061.3021,0,8,8,8,1,0.2,0.8,0.8,0.2,,,,,,,,,,,,,,,0.083,,0.6,0.4,0.2,0.8,0.2,0.8,0.6,0.4,,,0.0428,,0.8,0.2,0.2,0.8,0.4,0.6,0.2,0.8,1,0
,,65a9ca4a57dfdc3964333913,66fc984109a53c5aae5f09bc,2024-10-02_02h56.22.114,mdp,2024.2.1,MacIntel,62.11180124,66fa4ebf79326e780c390304,,,,,,,,,,,,,,,,,,,,,1061.3029,1061.303,1061.3041,1062.1032,1,0,right,0.2707,,1062.1045,1062.7865,0,0,left,1062.7879,1063.4865,0,0,left,1,1063.4867,1063.4867,1063.4881,1064.9863,0,9,9,9,1,0.2,0.8,0.8,0.2,,,,,,,,,,,,,,,0.1507,,0.6,0.4,0.2,0.8,0.2,0.8,0.6,0.4,,,0.1673,,0.8,0.2,0.2,0.8,0.4,0.6,0.2,0.8,1,0
,,65a9ca4a57dfdc3964333913,66fc984109a53c5aae5f09bc,2024-10-02_02h56.22.114,mdp,2024.2.1,MacIntel,62.11180124,66fa4ebf79326e780c390304,,,,,,,,,,,,,,,,,,,,,1064.9869,1064.9869,1064.988,1065.8198,1,0,right,0.3007,,1065.8212,1066.5197,0,0,left,1066.521,1067.1864,0,0,left,1,1067.1865,1067.1865,1067.1876,1068.6863,0,10,10,10,1,0.2,0.8,0.8,0.2,,,,,,,,,,,,,,,0.1683,,0.6,0.4,0.2,0.8,0.2,0.8,0.6,0.4,,,0.1443,,0.8,0.2,0.2,0.8,0.4,0.6,0.2,0.8,1,0
,,65a9ca4a57dfdc3964333913,66fc984109a53c5aae5f09bc,2024-10-02_02h56.22.114,mdp,2024.2.1,MacIntel,62.11180124,66fa4ebf79326e780c390304,,,,,,,,,,,,,,,,,,,,,1068.6868,1068.6869,1068.6881,1069.3365,1,1,right,0.1165,,1069.3377,1070.0531,0,1,left,1070.0544,1070.8522,0,0,left,1,1070.8523,1070.8524,1070.8536,1072.3529,0,11,11,11,1,0.4,0.6,0.6,0.4,,,,,,,,,,,,,,,0.1814,,0.6,0.4,0.2,0.8,0.2,0.8,0.6,0.4,,,0.2744,,0.8,0.2,0.2,0.8,0.4,0.6,0.2,0.8,1,0
,,65a9ca4a57dfdc3964333913,66fc984109a53c5aae5f09bc,2024-10-02_02h56.22.114,mdp,2024.2.1,MacIntel,62.11180124,66fa4ebf79326e780c390304,,,,,,,,,,,,,,,,,,,,,1072.3536,1072.3536,1072.3548,1073.2196,1,1,right,0.3372,,1073.2208,1073.9698,0,1,left,1073.9712,1074.7697,0,0,left,1,1074.7697,1074.7697,1074.7707,1076.2686,0,12,12,12,1,0.4,0.6,0.6,0.4,,,,,,,,,,,,,,,0.2169,,0.6,0.4,0.2,0.8,0.2,0.8,0.6,0.4,,,0.2758,,0.8,0.2,0.2,0.8,0.4,0.6,0.2,0.8,1,0
,,65a9ca4a57dfdc3964333913,66fc984109a53c5aae5f09bc,2024-10-02_02h56.22.114,mdp,2024.2.1,MacIntel,62.11180124,66fa4ebf79326e780c390304,,,,,,,,,,,,,,,,,,,,,1076.2692,1076.2693,1076.2704,1077.053,1,1,right,0.2672,,1077.0545,1077.7698,0,1,left,1077.7711,1078.5197,0,0,left,1,1078.5198,1078.5198,1078.5212,1080.0186,0,13,13,13,1,0.2,0.8,0.8,0.2,,,,,,,,,,,,,,,0.1837,,0.6,0.4,0.2,0.8,0.2,0.8,0.6,0.4,,,0.2175,,0.8,0.2,0.2,0.8,0.4,0.6,0.2,0.8,1,0
,,65a9ca4a57dfdc3964333913,66fc984109a53c5aae5f09bc,2024-10-02_02h56.22.114,mdp,2024.2.1,MacIntel,62.11180124,66fa4ebf79326e780c390304,,,,,,,,,,,,,,,,,,,,,1080.0192,1080.0192,1080.0204,1080.853,1,0,right,0.3164,,1080.8544,1081.6692,0,0,left,1081.6706,1082.5027,0,0,left,1,1082.5027,1082.5028,1082.504,1084.0028,0,14,14,14,1,0.2,0.8,0.8,0.2,,,,,,,,,,,,,,,0.2805,,0.6,0.4,0.2,0.8,0.2,0.8,0.6,0.4,,,0.2968,,0.8,0.2,0.2,0.8,0.4,0.6,0.2,0.8,1,0
,,65a9ca4a57dfdc3964333913,66fc984109a53c5aae5f09bc,2024-10-02_02h56.22.114,mdp,2024.2.1,MacIntel,62.11180124,66fa4ebf79326e780c390304,,,,,,,,,,,,,,,,,,,,,1084.0034,1084.0034,1084.0046,1084.8188,1,0,right,0.2839,,1084.8201,1085.4864,0,1,left,1085.4877,1086.1362,0,1,left,0,1086.1363,1086.1363,1086.1373,1087.6355,0,15,15,15,1,0.2,0.8,0.8,0.2,,,,,,,,,,,,,,,0.1506,,0.6,0.4,0.2,0.8,0.2,0.8,0.6,0.4,,,0.1167,,0.8,0.2,0.2,0.8,0.4,0.6,0.2,0.8,1,0
,,65a9ca4a57dfdc3964333913,66fc984109a53c5aae5f09bc,2024-10-02_02h56.22.114,mdp,2024.2.1,MacIntel,62.11180124,66fa4ebf79326e780c390304,,,,,,,,,,,,,,,,,,,,,1087.6361,1087.6361,1087.6374,1088.4525,0,1,left,0.2946,,1088.4536,1089.1529,1,0,right,1089.1543,1089.853,1,0,right,1,1089.8531,1089.8531,1089.8542,1091.3527,0,16,16,16,1,0.2,0.8,0.8,0.2,,,,,,,,,,,,,,,0.1649,,0.6,0.4,0.2,0.8,0.2,0.8,0.6,0.4,,,0.1652,,0.8,0.2,0.2,0.8,0.4,0.6,0.2,0.8,1,0
,,65a9ca4a57dfdc3964333913,66fc984109a53c5aae5f09bc,2024-10-02_02h56.22.114,mdp,2024.2.1,MacIntel,62.11180124,66fa4ebf79326e780c390304,,,,,,,,,,,,,,,,,,,,,1091.3533,1091.3534,1091.3546,1092.1863,0,1,left,0.3114,,1092.1874,1092.8687,1,1,right,1092.8701,1093.5696,1,0,right,1,1093.5697,1093.5697,1093.571,1095.0693,0,17,17,17,1,0.2,0.8,0.8,0.2,,,,,,,,,,,,,,,0.1502,,0.6,0.4,0.2,0.8,0.4,0.6,0.2,0.8,,,0.1811,,0.8,0.2,0.2,0.8,0.4,0.6,0.2,0.8,1,0
,,65a9ca4a57dfdc3964333913,66fc984109a53c5aae5f09bc,2024-10-02_02h56.22.114,mdp,2024.2.1,MacIntel,62.11180124,66fa4ebf79326e780c390304,,,,,,,,,,,,,,,,,,,,,1095.07,1095.07,1095.0713,1095.7528,0,1,left,0.1506,,1095.7542,1096.4528,1,1,right,1096.4543,1097.1863,1,1,right,0,1097.1864,1097.1864,1097.1879,1098.686,0,18,18,18,1,0.2,0.8,0.8,0.2,,,,,,,,,,,,,,,0.1665,,0.6,0.4,0.2,0.8,0.4,0.6,0.2,0.8,,,0.2018,,0.8,0.2,0.2,0.8,0.4,0.6,0.2,0.8,1,0
,,65a9ca4a57dfdc3964333913,66fc984109a53c5aae5f09bc,2024-10-02_02h56.22.114,mdp,2024.2.1,MacIntel,62.11180124,66fa4ebf79326e780c390304,,,,,,,,,,,,,,,,,,,,,1098.6868,1098.6868,1098.6881,1099.386,1,0,right,0.1719,,1099.3872,1100.1195,0,0,left,1100.121,1100.7694,0,0,left,1,1100.7695,1100.7696,1100.7709,1102.2693,0,19,19,19,1,0.2,0.8,0.8,0.2,,,,,,,,,,,,,,,0.1979,,0.6,0.4,0.2,0.8,0.4,0.6,0.2,0.8,,,0.1156,,0.8,0.2,0.2,0.8,0.6,0.4,0.6,0.4,1,0
,,65a9ca4a57dfdc3964333913,66fc984109a53c5aae5f09bc,2024-10-02_02h56.22.114,mdp,2024.2.1,MacIntel,62.11180124,66fa4ebf79326e780c390304,,,,,,,,,,,,,,,,,,,,,1102.27,1102.27,1102.2712,1103.0195,1,0,right,0.2164,,1103.0208,1103.7362,0,0,left,1103.7375,1104.5193,0,0,left,1,1104.5194,1104.5194,1104.5204,1106.0192,0,20,20,20,1,0.2,0.8,0.8,0.2,,,,,,,,,,,,,,,0.1844,,0.6,0.4,0.2,0.8,0.4,0.6,0.2,0.8,,,0.254,,0.8,0.2,0.2,0.8,0.6,0.4,0.6,0.4,1,0
,,65a9ca4a57dfdc3964333913,66fc984109a53c5aae5f09bc,2024-10-02_02h56.22.114,mdp,2024.2.1,MacIntel,62.11180124,66fa4ebf79326e780c390304,,,,,,,,,,,,,,,,,,,,,1106.0199,1106.0199,1106.0211,1106.8195,1,0,right,0.2664,,1106.8208,1107.5195,0,0,left,1107.5208,1108.3861,0,1,left,0,1108.3862,1108.3862,1108.3876,1109.8859,0,21,21,21,1,0.2,0.8,0.8,0.2,,,,,,,,,,,,,,,0.1672,,0.6,0.4,0.2,0.8,0.4,0.6,0.2,0.8,,,0.3443,,0.8,0.2,0.2,0.8,0.6,0.4,0.6,0.4,1,0
,,65a9ca4a57dfdc3964333913,66fc984109a53c5aae5f09bc,2024-10-02_02h56.22.114,mdp,2024.2.1,MacIntel,62.11180124,66fa4ebf79326e780c390304,,,,,,,,,,,,,,,,,,,,,1109.8865,1109.8866,1109.8881,1111.136,1,0,right,0.7177,,1111.1372,1111.9028,1,1,right,1111.904,1112.7526,1,0,right,1,1112.7527,1112.7528,1112.7538,1114.2525,0,22,22,22,1,0.2,0.8,0.8,0.2,,,,,,,,,,,,,,,0.2331,,0.6,0.4,0.2,0.8,0.4,0.6,0.2,0.8,,,0.3183,,0.8,0.2,0.2,0.8,0.6,0.4,0.6,0.4,1,0
,,65a9ca4a57dfdc3964333913,66fc984109a53c5aae5f09bc,2024-10-02_02h56.22.114,mdp,2024.2.1,MacIntel,62.11180124,66fa4ebf79326e780c390304,,,,,,,,,,,,,,,,,,,,,1114.2531,1114.2531,1114.2543,1115.0693,1,0,right,0.2928,,1115.0703,1115.8028,1,1,right,1115.8042,1116.5861,1,0,right,1,1116.5863,1116.5863,1116.5875,1118.086,0,23,23,23,1,0.2,0.8,0.8,0.2,,,,,,,,,,,,,,,0.201,,0.6,0.4,0.2,0.8,0.4,0.6,0.2,0.8,,,0.2506,,0.8,0.2,0.2,0.8,0.6,0.4,0.6,0.4,1,0
,,65a9ca4a57dfdc3964333913,66fc984109a53c5aae5f09bc,2024-10-02_02h56.22.114,mdp,2024.2.1,MacIntel,62.11180124,66fa4ebf79326e780c390304,,,,,,,,,,,,,,,,,,,,,1118.0866,1118.0866,1118.0876,1118.8028,1,0,right,0.1939,,1118.8041,1119.536,1,1,right,1119.5374,1120.186,1,0,right,1,1120.1861,1120.1862,1120.1875,1121.6858,0,24,24,24,1,0.2,0.8,0.8,0.2,,,,,,,,,,,,,,,0.2005,,0.6,0.4,0.2,0.8,0.4,0.6,0.2,0.8,,,0.1171,,0.8,0.2,0.2,0.8,0.6,0.4,0.6,0.4,1,0
,,65a9ca4a57dfdc3964333913,66fc984109a53c5aae5f09bc,2024-10-02_02h56.22.114,mdp,2024.2.1,MacIntel,62.11180124,66fa4ebf79326e780c390304,,,,,,,,,,,,,,,,,,,,,1121.6864,1121.6864,1121.6876,1122.5018,1,1,right,0.2843,,1122.503,1123.1192,1,1,right,1123.1203,1123.836,1,0,right,1,1123.8361,1123.8361,1123.8374,1125.3358,0,25,25,25,1,0.2,0.8,0.8,0.2,,,,,,,,,,,,,,,0.0978,,0.6,0.4,0.2,0.8,0.4,0.6,0.2,0.8,,,0.1838,,0.8,0.2,0.2,0.8,0.6,0.4,0.6,0.4,1,0
,,65a9ca4a57dfdc3964333913,66fc984109a53c5aae5f09bc,2024-10-02_02h56.22.114,mdp,2024.2.1,MacIntel,62.11180124,66fa4ebf79326e780c390304,,,,,,,,,,,,,,,,,,,,,1125.3364,1125.3364,1125.3376,1126.1692,1,1,right,0.3004,,1126.1704,1126.8692,1,1,right,1126.8706,1127.6192,1,0,right,1,1127.6193,1127.6193,1127.6207,1129.1191,0,26,26,26,1,0.2,0.8,0.8,0.2,,,,,,,,,,,,,,,0.167,,0.6,0.4,0.2,0.8,0.4,0.6,0.2,0.8,,,0.2184,,0.8,0.2,0.2,0.8,0.6,0.4,0.6,0.4,1,0
,,65a9ca4a57dfdc3964333913,66fc984109a53c5aae5f09bc,2024-10-02_02h56.22.114,mdp,2024.2.1,MacIntel,62.11180124,66fa4ebf79326e780c390304,,,,,,,,,,,,,,,,,,,,,1129.1196,1129.1197,1129.1209,1129.8526,1,0,right,0.2007,,1129.854,1130.7358,1,1,right,1130.737,1131.3523,1,1,right,0,1131.3525,1131.3525,1131.3535,1132.8525,0,27,27,27,1,0.2,0.8,0.8,0.2,,,,,,,,,,,,,,,0.3478,,0.6,0.4,0.2,0.8,0.4,0.6,0.2,0.8,,,0.0938,,0.8,0.2,0.2,0.8,0.6,0.4,0.6,0.4,1,0
,,65a9ca4a57dfdc3964333913,66fc984109a53c5aae5f09bc,2024-10-02_02h56.22.114,mdp,2024.2.1,MacIntel,62.11180124,66fa4ebf79326e780c390304,,,,,,,,,,,,,,,,,,,,,1132.8531,1132.8531,1132.8541,1133.6693,0,1,left,0.2827,,1133.6708,1134.4858,0,1,left,1134.4871,1135.1187,0,1,left,0,1135.1188,1135.1188,1135.1193,1136.6191,0,28,28,28,1,0.2,0.8,0.8,0.2,,,,,,,,,,,,,,,0.2912,,0.6,0.4,0.2,0.8,0.4,0.6,0.2,0.8,,,0.1072,,0.8,0.2,0.2,0.8,0.6,0.4,0.6,0.4,1,0
,,65a9ca4a57dfdc3964333913,66fc984109a53c5aae5f09bc,2024-10-02_02h56.22.114,mdp,2024.2.1,MacIntel,62.11180124,66fa4ebf79326e780c390304,,,,,,,,,,,,,,,,,,,,,1136.6199,1136.6199,1136.6212,1137.2692,1,0,right,0.1175,,1137.2706,1137.8858,0,0,left,1137.8873,1138.4858,1,1,right,0,1138.4859,1138.4859,1138.4868,1139.9856,0,29,29,29,1,0.2,0.8,0.8,0.2,,,,,,,,,,,,,,,0.0812,,0.6,0.4,0.2,0.8,0.4,0.6,0.2,0.8,,,0.0664,,0.8,0.2,0.2,0.8,0.6,0.4,0.6,0.4,1,0
,,65a9ca4a57dfdc3964333913,66fc984109a53c5aae5f09bc,2024-10-02_02h56.22.114,mdp,2024.2.1,MacIntel,62.11180124,66fa4ebf79326e780c390304,,,,,,,,,,,,,,,,,,,,,1139.9862,1139.9862,1139.9875,1140.7524,0,0,left,0.2337,,1140.7534,1141.3191,1,0,right,1141.3205,1142.6692,0,1,left,0,1142.6693,1142.6693,1142.6707,1144.169,0,30,30,30,1,0.2,0.8,0.8,0.2,,,,,,,,,,,,,,,0.0335,,0.4,0.6,0.8,0.2,0.4,0.6,0.2,0.8,,,0.817,,0.8,0.2,0.2,0.8,0.6,0.4,0.6,0.4,1,0
,,65a9ca4a57dfdc3964333913,66fc984109a53c5aae5f09bc,2024-10-02_02h56.22.114,mdp,2024.2.1,MacIntel,62.11180124,66fa4ebf79326e780c390304,,,,,,,,,,,,,,,,,,,,,1144.1698,1144.1698,1144.171,1144.9524,0,1,left,0.2547,,1144.9536,1145.5358,0,1,left,1145.5371,1146.1857,1,0,right,1,1146.1858,1146.1858,1146.1869,1147.6858,0,31,31,31,1,0.2,0.8,0.8,0.2,,,,,,,,,,,,,,,0.0584,,0.4,0.6,0.8,0.2,0.4,0.6,0.2,0.8,,,0.1247,,0.8,0.2,0.2,0.8,0.6,0.4,0.6,0.4,1,0
,,65a9ca4a57dfdc3964333913,66fc984109a53c5aae5f09bc,2024-10-02_02h56.22.114,mdp,2024.2.1,MacIntel,62.11180124,66fa4ebf79326e780c390304,,,,,,,,,,,,,,,,,,,,,1147.6864,1147.6864,1147.6875,1148.5859,0,0,left,0.3678,,1148.5872,1149.2856,0,0,left,1149.2868,1149.9524,1,1,right,0,1149.9525,1149.9525,1149.9537,1151.4522,0,32,32,32,1,0.2,0.8,0.8,0.2,,,,,,,,,,,,,,,0.1766,,0.8,0.2,0.6,0.4,0.4,0.6,0.2,0.8,,,0.1324,,0.8,0.2,0.2,0.8,0.6,0.4,0.6,0.4,1,0
,,65a9ca4a57dfdc3964333913,66fc984109a53c5aae5f09bc,2024-10-02_02h56.22.114,mdp,2024.2.1,MacIntel,62.11180124,66fa4ebf79326e780c390304,,,,,,,,,,,,,,,,,,,,,1151.4528,1151.4528,1151.454,1152.0856,1,0,right,0.1039,,1152.0868,1152.769,1,1,right,1152.7704,1153.3523,0,0,left,1,1153.3525,1153.3525,1153.3538,1154.8524,0,33,33,33,1,0.2,0.8,0.8,0.2,,,,,,,,,,,,,,,0.1505,,0.8,0.2,0.6,0.4,0.4,0.6,0.2,0.8,,,0.0482,,0.8,0.2,0.2,0.8,0.6,0.4,0.6,0.4,1,0
,,65a9ca4a57dfdc3964333913,66fc984109a53c5aae5f09bc,2024-10-02_02h56.22.114,mdp,2024.2.1,MacIntel,62.11180124,66fa4ebf79326e780c390304,,,,,,,,,,,,,,,,,,,,,1154.853,1154.853,1154.8542,1155.9856,1,1,right,0.6004,,1155.9871,1156.8191,1,1,right,1156.8204,1157.3857,1,0,right,1,1157.3858,1157.3858,1157.3872,1158.8855,0,34,34,34,1,0.2,0.8,0.8,0.2,,,,,,,,,,,,,,,0.2984,,0.8,0.2,0.6,0.4,0.4,0.6,0.2,0.8,,,0.0335,,0.8,0.2,0.2,0.8,0.6,0.4,0.6,0.4,1,0
,,65a9ca4a57dfdc3964333913,66fc984109a53c5aae5f09bc,2024-10-02_02h56.22.114,mdp,2024.2.1,MacIntel,62.11180124,66fa4ebf79326e780c390304,,,,,,,,,,,,,,,,,,,,,1158.8861,1158.8861,1158.8873,1159.8357,1,0,right,0.4178,,1159.837,1160.4357,1,0,right,1160.4371,1161.0523,0,0,left,1,1161.0524,1161.0524,1161.0537,1162.5521,0,35,35,35,1,0.2,0.8,0.8,0.2,,,,,,,,,,,,,,,0.0657,,0.8,0.2,0.6,0.4,0.6,0.4,0.4,0.6,,,0.0815,,0.8,0.2,0.2,0.8,0.6,0.4,0.6,0.4,1,0
,,65a9ca4a57dfdc3964333913,66fc984109a53c5aae5f09bc,2024-10-02_02h56.22.114,mdp,2024.2.1,MacIntel,62.11180124,66fa4ebf79326e780c390304,,,,,,,,,,,,,,,,,,,,,1162.5527,1162.5527,1162.5539,1163.4522,1,0,right,0.3675,,1163.4534,1164.1683,1,0,right,1164.169,1164.7522,0,0,left,1,1164.7523,1164.7523,1164.7532,1166.2521,0,36,36,36,1,0.2,0.8,0.8,0.2,,,,,,,,,,,,,,,0.1848,,0.8,0.2,0.6,0.4,0.6,0.4,0.4,0.6,,,0.0708,,0.8,0.2,0.2,0.8,0.6,0.4,0.6,0.4,1,0
,,65a9ca4a57dfdc3964333913,66fc984109a53c5aae5f09bc,2024-10-02_02h56.22.114,mdp,2024.2.1,MacIntel,62.11180124,66fa4ebf79326e780c390304,,,,,,,,,,,,,,,,,,,,,1166.2528,1166.2528,1166.254,1167.1356,1,0,right,0.3615,,1167.1369,1167.7522,1,0,right,1167.7533,1168.3854,0,0,left,1,1168.3856,1168.3856,1168.3868,1169.8854,0,37,37,37,1,0.2,0.8,0.8,0.2,,,,,,,,,,,,,,,0.0842,,0.8,0.2,0.6,0.4,0.4,0.6,0.6,0.4,,,0.1003,,0.8,0.2,0.2,0.8,0.6,0.4,0.6,0.4,1,0
,,65a9ca4a57dfdc3964333913,66fc984109a53c5aae5f09bc,2024-10-02_02h56.22.114,mdp,2024.2.1,MacIntel,62.11180124,66fa4ebf79326e780c390304,,,,,,,,,,,,,,,,,,,,,1169.8861,1169.8861,1169.8872,1170.7356,1,0,right,0.3283,,1170.7368,1171.3688,1,0,right,1171.3699,1172.0023,0,0,left,1,1172.0024,1172.0024,1172.0038,1173.502,0,38,38,38,1,0.2,0.8,0.8,0.2,,,,,,,,,,,,,,,0.1038,,0.8,0.2,0.6,0.4,0.4,0.6,0.6,0.4,,,0.1009,,0.8,0.2,0.2,0.8,0.6,0.4,0.6,0.4,1,0
,,65a9ca4a57dfdc3964333913,66fc984109a53c5aae5f09bc,2024-10-02_02h56.22.114,mdp,2024.2.1,MacIntel,62.11180124,66fa4ebf79326e780c390304,,,,,,,,,,,,,,,,,,,,,1173.5028,1173.5028,1173.5039,1174.3855,1,0,right,0.3529,,1174.3867,1175.1021,1,0,right,1175.1032,1175.7689,0,0,left,1,1175.769,1175.769,1175.7703,1177.2686,0,39,39,39,1,0.2,0.8,0.8,0.2,,,,,,,,,,,,,,,0.1935,,0.8,0.2,0.6,0.4,0.4,0.6,0.6,0.4,,,0.1344,,0.8,0.2,0.2,0.8,0.6,0.4,0.6,0.4,1,0
,,65a9ca4a57dfdc3964333913,66fc984109a53c5aae5f09bc,2024-10-02_02h56.22.114,mdp,2024.2.1,MacIntel,62.11180124,66fa4ebf79326e780c390304,,,,,,,,,,,,,,,,,,,,,1177.2692,1177.2692,1177.2705,1178.069,1,0,right,0.2783,,1178.0705,1178.6855,1,0,right,1178.6869,1179.4021,0,0,left,1,1179.4022,1179.4022,1179.4032,1180.902,0,40,40,40,1,0.2,0.8,0.8,0.2,,,,,,,,,,,,,,,0.0841,,0.8,0.2,0.6,0.4,0.4,0.6,0.6,0.4,,,0.1869,,0.8,0.2,0.2,0.8,0.6,0.4,0.6,0.4,1,0
,,65a9ca4a57dfdc3964333913,66fc984109a53c5aae5f09bc,2024-10-02_02h56.22.114,mdp,2024.2.1,MacIntel,62.11180124,66fa4ebf79326e780c390304,,,,,,,,,,,,,,,,,,,,,1180.9026,1180.9026,1180.9037,1181.6857,1,0,right,0.2538,,1181.6867,1182.3522,1,1,right,1182.3535,1183.0355,0,0,left,1,1183.0355,1183.0355,1183.0369,1184.5352,0,41,41,41,1,0.2,0.8,0.8,0.2,,,,,,,,,,,,,,,0.1338,,0.8,0.2,0.6,0.4,0.4,0.6,0.6,0.4,,,0.1477,,0.8,0.2,0.2,0.8,0.6,0.4,0.6,0.4,1,0
,,65a9ca4a57dfdc3964333913,66fc984109a53c5aae5f09bc,2024-10-02_02h56.22.114,mdp,2024.2.1,MacIntel,62.11180124,66fa4ebf79326e780c390304,,,,,,,,,,,,,,,,,,,,,1184.5358,1184.5359,1184.5372,1185.3021,1,0,right,0.2346,,1185.3031,1185.9354,1,1,right,1185.9367,1186.5688,0,0,left,1,1186.5689,1186.5689,1186.5702,1188.0686,0,42,42,42,1,0.2,0.8,0.8,0.2,,,,,,,,,,,,,,,0.101,,0.8,0.2,0.6,0.4,0.4,0.6,0.6,0.4,,,0.1004,,0.8,0.2,0.2,0.8,0.6,0.4,0.6,0.4,1,0
,,65a9ca4a57dfdc3964333913,66fc984109a53c5aae5f09bc,2024-10-02_02h56.22.114,mdp,2024.2.1,MacIntel,62.11180124,66fa4ebf79326e780c390304,,,,,,,,,,,,,,,,,,,,,1188.0692,1188.0693,1188.0704,1189.1181,1,0,right,0.5271,,1189.1194,1189.7354,1,0,right,1189.7367,1190.3188,0,0,left,1,1190.3189,1190.3189,1190.3201,1191.8176,0,43,43,43,1,0.2,0.8,0.8,0.2,,,,,,,,,,,,,,,0.1005,,0.8,0.2,0.6,0.4,0.4,0.6,0.6,0.4,,,0.0481,,0.8,0.2,0.2,0.8,0.6,0.4,0.6,0.4,1,0
,,65a9ca4a57dfdc3964333913,66fc984109a53c5aae5f09bc,2024-10-02_02h56.22.114,mdp,2024.2.1,MacIntel,62.11180124,66fa4ebf79326e780c390304,,,,,,,,,,,,,,,,,,,,,1191.8183,1191.8183,1191.8194,1192.4855,1,0,right,0.1499,,1192.4867,1193.1687,1,0,right,1193.17,1193.902,0,0,left,1,1193.9021,1193.9021,1193.9035,1195.4018,0,44,44,44,1,0.2,0.8,0.8,0.2,,,,,,,,,,,,,,,0.1613,,0.8,0.2,0.6,0.4,0.4,0.6,0.6,0.4,,,0.2005,,0.8,0.2,0.2,0.8,0.6,0.4,0.6,0.4,1,0
,,65a9ca4a57dfdc3964333913,66fc984109a53c5aae5f09bc,2024-10-02_02h56.22.114,mdp,2024.2.1,MacIntel,62.11180124,66fa4ebf79326e780c390304,,,,,,,,,,,,,,,,,,,,,1195.4024,1195.4024,1195.4036,1196.2353,1,0,right,0.3019,,1196.2365,1196.8853,1,0,right,1196.8864,1197.4686,0,0,left,1,1197.4687,1197.4687,1197.4696,1198.9685,0,45,45,45,1,0.2,0.8,0.8,0.2,,,,,,,,,,,,,,,0.1205,,0.8,0.2,0.6,0.4,0.4,0.6,0.6,0.4,,,0.059,,0.8,0.2,0.2,0.8,0.6,0.4,0.6,0.4,1,0
,,65a9ca4a57dfdc3964333913,66fc984109a53c5aae5f09bc,2024-10-02_02h56.22.114,mdp,2024.2.1,MacIntel,62.11180124,66fa4ebf79326e780c390304,,,,,,,,,,,,,,,,,,,,,1198.9691,1198.9692,1198.9704,1199.7186,1,0,right,0.2273,,1199.7198,1200.3852,1,0,right,1200.3867,1201.1686,0,0,left,1,1201.1687,1201.1688,1201.17,1202.6686,0,46,46,46,1,0.2,0.8,0.8,0.2,,,,,,,,,,,,,,,0.1337,,0.8,0.2,0.6,0.4,0.4,0.6,0.6,0.4,,,0.251,,0.8,0.2,0.2,0.8,0.6,0.4,0.6,0.4,1,0
,,65a9ca4a57dfdc3964333913,66fc984109a53c5aae5f09bc,2024-10-02_02h56.22.114,mdp,2024.2.1,MacIntel,62.11180124,66fa4ebf79326e780c390304,,,,,,,,,,,,,,,,,,,,,1202.6693,1202.6693,1202.6706,1203.6845,1,0,right,0.484,,1203.6858,1204.2852,0,0,left,1204.2865,1205.5184,0,0,left,1,1205.5185,1205.5185,1205.5197,1207.0184,0,47,47,47,1,0.2,0.8,0.8,0.2,,,,,,,,,,,,,,,0.0937,,0.8,0.2,0.6,0.4,0.4,0.6,0.6,0.4,,,0.701,,0.8,0.2,0.2,0.8,0.6,0.4,0.6,0.4,1,0
,,65a9ca4a57dfdc3964333913,66fc984109a53c5aae5f09bc,2024-10-02_02h56.22.114,mdp,2024.2.1,MacIntel,62.11180124,66fa4ebf79326e780c390304,,,,,,,,,,,,,,,,,,,,,1207.0189,1207.019,1207.0201,1207.8521,1,0,right,0.3002,,1207.8534,1208.6519,1,0,right,1208.6533,1209.3851,0,0,left,1,1209.3852,1209.3852,1209.3867,1210.885,0,48,48,48,1,0.2,0.8,0.8,0.2,,,,,,,,,,,,,,,0.2664,,0.2,0.8,0.8,0.2,0.4,0.6,0.6,0.4,,,0.2007,,0.8,0.2,0.2,0.8,0.6,0.4,0.6,0.4,1,0
,,65a9ca4a57dfdc3964333913,66fc984109a53c5aae5f09bc,2024-10-02_02h56.22.114,mdp,2024.2.1,MacIntel,62.11180124,66fa4ebf79326e780c390304,,,,,,,,,,,,,,,,,,,,,1210.8856,1210.8856,1210.8868,1211.9852,1,0,right,0.5694,,1211.9864,1212.7018,1,0,right,1212.703,1213.4352,0,0,left,1,1213.4353,1213.4353,1213.4367,1214.935,0,49,49,49,1,0.2,0.8,0.8,0.2,,,,,,,,,,,,,,,0.1951,,0.2,0.8,0.8,0.2,0.6,0.4,0.2,0.8,,,0.2005,,0.8,0.2,0.2,0.8,0.6,0.4,0.6,0.4,1,0
,,65a9ca4a57dfdc3964333913,66fc984109a53c5aae5f09bc,2024-10-02_02h56.22.114,mdp,2024.2.1,MacIntel,62.11180124,66fa4ebf79326e780c390304,,,,,,,,,,,,,,,,,,,,,,,,,,,,,,,,,,,,,,,,,,,,,,,,,,,,,,,,1214.9352,1273.4514,0,3,3,6,1,imgs/kangaroo.png,imgs/giraffe.png,imgs/pig.png,imgs/lion.png,imgs/cat.png,,,,,,,,,,,,,,,,,,,,,,,,
,,65a9ca4a57dfdc3964333913,66fc984109a53c5aae5f09bc,2024-10-02_02h56.22.114,mdp,2024.2.1,MacIntel,62.11180124,66fa4ebf79326e780c390304,,,,,,,,,,,,,,1,seqs/st1seq34.csv,1273.4611,1275.8179,space,1.8443,,1275.82,1275.82,1275.821,1278.7503,1,0,right,2.4013,,1278.7517,1278.7524,1,0,,1278.753,1278.7533,0,1,,1,1278.7534,1278.7534,1278.7537,1280.2501,0,0,0,0,1,0.6,0.4,0.2,0.8,1,0,,,,,,,,,,,,,,,,,,,,,,,,,,,,,,,,,,,,
,,65a9ca4a57dfdc3964333913,66fc984109a53c5aae5f09bc,2024-10-02_02h56.22.114,mdp,2024.2.1,MacIntel,62.11180124,66fa4ebf79326e780c390304,,,,,,,,,,,,,,,,,,,,,1280.2504,1280.2504,1280.2513,1282.6179,1,1,right,1.8547,,1282.619,1282.6196,1,1,,1282.6199,1282.6203,0,1,,0,1282.6203,1282.6203,1282.6207,1284.1169,0,1,1,1,1,0.6,0.4,0.2,0.8,1,0,,,,,,,,,,,,,,,,,,,,,,,,,,,,,,,,,,,,
,,65a9ca4a57dfdc3964333913,66fc984109a53c5aae5f09bc,2024-10-02_02h56.22.114,mdp,2024.2.1,MacIntel,62.11180124,66fa4ebf79326e780c390304,,,,,,,,,,,,,,,,,,,,,1284.1175,1284.1175,1284.1189,1285.4678,1,0,right,0.845,,1285.4687,1285.4693,1,0,,1285.4698,1285.4702,0,1,,1,1285.4702,1285.4702,1285.4706,1286.9669,0,2,2,2,1,0.6,0.4,0.2,0.8,1,0,,,,,,,,,,,,,,,,,,,,,,,,,,,,,,,,,,,,
,,65a9ca4a57dfdc3964333913,66fc984109a53c5aae5f09bc,2024-10-02_02h56.22.114,mdp,2024.2.1,MacIntel,62.11180124,66fa4ebf79326e780c390304,,,,,,,,,,,,,,,,,,,,,1286.9674,1286.9674,1286.9689,1288.2671,0,1,left,0.7837,,1288.2687,1288.2695,1,1,,1288.2701,1288.2705,0,0,,0,1288.2705,1288.2705,1288.271,1289.7678,0,3,3,3,1,0.6,0.4,0.2,0.8,1,0,,,,,,,,,,,,,,,,,,,,,,,,,,,,,,,,,,,,
,,65a9ca4a57dfdc3964333913,66fc984109a53c5aae5f09bc,2024-10-02_02h56.22.114,mdp,2024.2.1,MacIntel,62.11180124,66fa4ebf79326e780c390304,,,,,,,,,,,,,,,,,,,,,1289.7683,1289.7683,1289.7692,1291.0678,1,1,right,0.7751,,1291.0688,1291.0695,1,1,,1291.0699,1291.0702,0,1,,0,1291.0702,1291.0702,1291.0705,1292.5668,0,4,4,4,1,0.6,0.4,0.2,0.8,1,0,,,,,,,,,,,,,,,,,,,,,,,,,,,,,,,,,,,,
,,65a9ca4a57dfdc3964333913,66fc984109a53c5aae5f09bc,2024-10-02_02h56.22.114,mdp,2024.2.1,MacIntel,62.11180124,66fa4ebf79326e780c390304,,,,,,,,,,,,,,,,,,,,,1292.5671,1292.5671,1292.5681,1293.5015,0,1,left,0.4211,,1293.5024,1293.5029,1,0,,1293.5032,1293.5037,0,1,,0,1293.5037,1293.5037,1293.5041,1295.0011,0,5,5,5,1,0.6,0.4,0.2,0.8,1,0,,,,,,,,,,,,,,,,,,,,,,,,,,,,,,,,,,,,
,,65a9ca4a57dfdc3964333913,66fc984109a53c5aae5f09bc,2024-10-02_02h56.22.114,mdp,2024.2.1,MacIntel,62.11180124,66fa4ebf79326e780c390304,,,,,,,,,,,,,,,,,,,,,1295.0016,1295.0016,1295.0029,1295.9837,0,0,left,0.449,,1295.9848,1295.9854,1,0,,1295.9861,1295.9866,0,0,,1,1295.9866,1295.9866,1295.987,1297.4844,0,6,6,6,1,0.6,0.4,0.2,0.8,1,0,,,,,,,,,,,,,,,,,,,,,,,,,,,,,,,,,,,,
,,65a9ca4a57dfdc3964333913,66fc984109a53c5aae5f09bc,2024-10-02_02h56.22.114,mdp,2024.2.1,MacIntel,62.11180124,66fa4ebf79326e780c390304,,,,,,,,,,,,,,,,,,,,,1297.4851,1297.4852,1297.4865,1298.9668,0,0,left,0.9554,,1298.968,1298.9688,1,0,,1298.9693,1298.9695,0,1,,1,1298.9695,1298.9695,1298.9699,1300.4667,0,7,7,7,1,0.6,0.4,0.2,0.8,1,0,,,,,,,,,,,,,,,,,,,,,,,,,,,,,,,,,,,,
,,65a9ca4a57dfdc3964333913,66fc984109a53c5aae5f09bc,2024-10-02_02h56.22.114,mdp,2024.2.1,MacIntel,62.11180124,66fa4ebf79326e780c390304,,,,,,,,,,,,,,,,,,,,,1300.4672,1300.4672,1300.4683,1301.8834,0,1,left,0.8861,,1301.8849,1301.8856,1,1,,1301.8863,1301.8866,0,1,,0,1301.8867,1301.8867,1301.8872,1303.384,0,8,8,8,1,0.2,0.8,0.8,0.2,1,0,,,,,,,,,,,,,,,,,,,,,,,,,,,,,,,,,,,,
,,65a9ca4a57dfdc3964333913,66fc984109a53c5aae5f09bc,2024-10-02_02h56.22.114,mdp,2024.2.1,MacIntel,62.11180124,66fa4ebf79326e780c390304,,,,,,,,,,,,,,,,,,,,,1303.3844,1303.3844,1303.3853,1304.4179,0,1,left,0.5017,,1304.4193,1304.42,1,0,,1304.4206,1304.4209,0,1,,0,1304.421,1304.421,1304.4213,1305.9175,0,9,9,9,1,0.2,0.8,0.8,0.2,1,0,,,,,,,,,,,,,,,,,,,,,,,,,,,,,,,,,,,,
,,65a9ca4a57dfdc3964333913,66fc984109a53c5aae5f09bc,2024-10-02_02h56.22.114,mdp,2024.2.1,MacIntel,62.11180124,66fa4ebf79326e780c390304,,,,,,,,,,,,,,,,,,,,,1305.9182,1305.9182,1305.9196,1306.8,0,0,left,0.3566,,1306.8009,1306.8014,1,1,,1306.802,1306.8026,0,1,,1,1306.8026,1306.8026,1306.8029,1308.301,0,10,10,10,1,0.2,0.8,0.8,0.2,1,0,,,,,,,,,,,,,,,,,,,,,,,,,,,,,,,,,,,,
,,65a9ca4a57dfdc3964333913,66fc984109a53c5aae5f09bc,2024-10-02_02h56.22.114,mdp,2024.2.1,MacIntel,62.11180124,66fa4ebf79326e780c390304,,,,,,,,,,,,,,,,,,,,,1308.3015,1308.3015,1308.3031,1309.3841,0,1,left,0.5597,,1309.3849,1309.3853,1,1,,1309.3857,1309.3858,0,1,,0,1309.3859,1309.3859,1309.386,1310.8841,0,11,11,11,1,0.2,0.8,0.8,0.2,1,0,,,,,,,,,,,,,,,,,,,,,,,,,,,,,,,,,,,,
,,65a9ca4a57dfdc3964333913,66fc984109a53c5aae5f09bc,2024-10-02_02h56.22.114,mdp,2024.2.1,MacIntel,62.11180124,66fa4ebf79326e780c390304,,,,,,,,,,,,,,,,,,,,,1310.8844,1310.8844,1310.8852,1311.7347,0,1,left,0.3173,,1311.7356,1311.736,1,0,,1311.7364,1311.7369,0,1,,0,1311.7369,1311.7369,1311.7373,1313.2333,0,12,12,12,1,0.2,0.8,0.8,0.2,1,0,,,,,,,,,,,,,,,,,,,,,,,,,,,,,,,,,,,,
,,65a9ca4a57dfdc3964333913,66fc984109a53c5aae5f09bc,2024-10-02_02h56.22.114,mdp,2024.2.1,MacIntel,62.11180124,66fa4ebf79326e780c390304,,,,,,,,,,,,,,,,,,,,,1313.2338,1313.2338,1313.2352,1314.0347,1,0,right,0.2827,,1314.0359,1314.0366,1,1,,1314.0373,1314.0376,0,0,,1,1314.0377,1314.0377,1314.038,1315.5342,0,13,13,13,1,0.2,0.8,0.8,0.2,1,0,,,,,,,,,,,,,,,,,,,,,,,,,,,,,,,,,,,,
,,65a9ca4a57dfdc3964333913,66fc984109a53c5aae5f09bc,2024-10-02_02h56.22.114,mdp,2024.2.1,MacIntel,62.11180124,66fa4ebf79326e780c390304,,,,,,,,,,,,,,,,,,,,,1315.5348,1315.5348,1315.536,1316.3677,1,0,right,0.3003,,1316.3692,1316.3699,1,0,,1316.3706,1316.3713,0,1,,1,1316.3714,1316.3714,1316.3719,1317.8676,0,14,14,14,1,0.2,0.8,0.8,0.2,1,0,,,,,,,,,,,,,,,,,,,,,,,,,,,,,,,,,,,,
,,65a9ca4a57dfdc3964333913,66fc984109a53c5aae5f09bc,2024-10-02_02h56.22.114,mdp,2024.2.1,MacIntel,62.11180124,66fa4ebf79326e780c390304,,,,,,,,,,,,,,,,,,,,,1317.8681,1317.8681,1317.8697,1318.718,1,0,right,0.317,,1318.7191,1318.7198,1,0,,1318.7203,1318.7206,0,0,,1,1318.7206,1318.7206,1318.7209,1320.2169,0,15,15,15,1,0.6,0.4,0.4,0.6,1,0,,,,,,,,,,,,,,,,,,,,,,,,,,,,,,,,,,,,
,,65a9ca4a57dfdc3964333913,66fc984109a53c5aae5f09bc,2024-10-02_02h56.22.114,mdp,2024.2.1,MacIntel,62.11180124,66fa4ebf79326e780c390304,,,,,,,,,,,,,,,,,,,,,1320.2172,1320.2172,1320.2179,1321.0674,1,1,right,0.336,,1321.0683,1321.0689,1,0,,1321.0694,1321.0698,0,0,,0,1321.0698,1321.0698,1321.0703,1322.5675,0,16,16,16,1,0.6,0.4,0.4,0.6,1,0,,,,,,,,,,,,,,,,,,,,,,,,,,,,,,,,,,,,
,,65a9ca4a57dfdc3964333913,66fc984109a53c5aae5f09bc,2024-10-02_02h56.22.114,mdp,2024.2.1,MacIntel,62.11180124,66fa4ebf79326e780c390304,,,,,,,,,,,,,,,,,,,,,1322.5681,1322.5681,1322.5692,1324.3844,1,0,right,1.2779,,1324.3858,1324.3865,1,0,,1324.3869,1324.3873,0,0,,1,1324.3873,1324.3874,1324.3877,1325.8841,0,17,17,17,1,0.2,0.8,0.8,0.2,1,0,,,,,,,,,,,,,,,,,,,,,,,,,,,,,,,,,,,,
,,65a9ca4a57dfdc3964333913,66fc984109a53c5aae5f09bc,2024-10-02_02h56.22.114,mdp,2024.2.1,MacIntel,62.11180124,66fa4ebf79326e780c390304,,,,,,,,,,,,,,,,,,,,,1325.8848,1325.8848,1325.8865,1327.2179,1,0,right,0.8001,,1327.2195,1327.2203,1,0,,1327.2211,1327.2216,0,0,,1,1327.2216,1327.2216,1327.222,1328.7174,0,18,18,18,1,0.2,0.8,0.8,0.2,1,0,,,,,,,,,,,,,,,,,,,,,,,,,,,,,,,,,,,,
,,65a9ca4a57dfdc3964333913,66fc984109a53c5aae5f09bc,2024-10-02_02h56.22.114,mdp,2024.2.1,MacIntel,62.11180124,66fa4ebf79326e780c390304,,,,,,,,,,,,,,,,,,,,,1328.7179,1328.7179,1328.7188,1329.6012,1,1,right,0.3454,,1329.602,1329.6025,1,1,,1329.6029,1329.6031,0,0,,0,1329.6032,1329.6032,1329.6035,1331.0999,0,19,19,19,1,0.2,0.8,0.8,0.2,1,0,,,,,,,,,,,,,,,,,,,,,,,,,,,,,,,,,,,,
,,65a9ca4a57dfdc3964333913,66fc984109a53c5aae5f09bc,2024-10-02_02h56.22.114,mdp,2024.2.1,MacIntel,62.11180124,66fa4ebf79326e780c390304,,,,,,,,,,,,,,,,,,,,,1331.1003,1331.1003,1331.101,1331.9175,1,0,right,0.306,,1331.9188,1331.9195,1,0,,1331.92,1331.9203,0,1,,1,1331.9203,1331.9203,1331.9207,1333.4167,0,20,20,20,1,0.8,0.2,0.4,0.6,1,0,,,,,,,,,,,,,,,,,,,,,,,,,,,,,,,,,,,,
,,65a9ca4a57dfdc3964333913,66fc984109a53c5aae5f09bc,2024-10-02_02h56.22.114,mdp,2024.2.1,MacIntel,62.11180124,66fa4ebf79326e780c390304,,,,,,,,,,,,,,,,,,,,,1333.4171,1333.4171,1333.4178,1334.0842,1,1,right,0.1364,,1334.0859,1334.0866,1,0,,1334.0874,1334.0879,0,1,,0,1334.0879,1334.0879,1334.0883,1335.584,0,21,21,21,1,0.8,0.2,0.4,0.6,1,0,,,,,,,,,,,,,,,,,,,,,,,,,,,,,,,,,,,,
,,65a9ca4a57dfdc3964333913,66fc984109a53c5aae5f09bc,2024-10-02_02h56.22.114,mdp,2024.2.1,MacIntel,62.11180124,66fa4ebf79326e780c390304,,,,,,,,,,,,,,,,,,,,,1335.5845,1335.5845,1335.5857,1336.7842,1,0,right,0.666,,1336.7857,1336.7865,1,0,,1336.7872,1336.7876,0,1,,1,1336.7877,1336.7877,1336.7881,1338.2841,0,22,22,22,1,0.8,0.2,0.4,0.6,1,0,,,,,,,,,,,,,,,,,,,,,,,,,,,,,,,,,,,,
,,65a9ca4a57dfdc3964333913,66fc984109a53c5aae5f09bc,2024-10-02_02h56.22.114,mdp,2024.2.1,MacIntel,62.11180124,66fa4ebf79326e780c390304,,,,,,,,,,,,,,,,,,,,,1338.2848,1338.2848,1338.286,1339.8174,1,1,right,0.9993,,1339.8184,1339.8192,1,1,,1339.8198,1339.8204,0,1,,0,1339.8205,1339.8205,1339.8211,1341.3175,0,23,23,23,1,0.8,0.2,0.4,0.6,1,0,,,,,,,,,,,,,,,,,,,,,,,,,,,,,,,,,,,,
,,65a9ca4a57dfdc3964333913,66fc984109a53c5aae5f09bc,2024-10-02_02h56.22.114,mdp,2024.2.1,MacIntel,62.11180124,66fa4ebf79326e780c390304,,,,,,,,,,,,,,,,,,,,,1341.3182,1341.3182,1341.3193,1342.6505,1,0,right,0.8001,,1342.6514,1342.6519,1,0,,1342.6525,1342.653,0,0,,1,1342.653,1342.653,1342.6536,1344.1507,0,24,24,24,1,0.6,0.4,0.8,0.2,1,0,,,,,,,,,,,,,,,,,,,,,,,,,,,,,,,,,,,,
,,65a9ca4a57dfdc3964333913,66fc984109a53c5aae5f09bc,2024-10-02_02h56.22.114,mdp,2024.2.1,MacIntel,62.11180124,66fa4ebf79326e780c390304,,,,,,,,,,,,,,,,,,,,,1344.1512,1344.1513,1344.1527,1345.4676,1,0,right,0.7839,,1345.4692,1345.4699,1,0,,1345.4706,1345.4711,0,0,,1,1345.4711,1345.4711,1345.4716,1346.9674,0,25,25,25,1,0.6,0.4,0.8,0.2,1,0,,,,,,,,,,,,,,,,,,,,,,,,,,,,,,,,,,,,
,,65a9ca4a57dfdc3964333913,66fc984109a53c5aae5f09bc,2024-10-02_02h56.22.114,mdp,2024.2.1,MacIntel,62.11180124,66fa4ebf79326e780c390304,,,,,,,,,,,,,,,,,,,,,1346.9679,1346.9679,1346.9691,1348.9672,1,1,right,1.4687,,1348.9682,1348.9691,1,0,,1348.9695,1348.9699,0,0,,0,1348.9699,1348.9699,1348.9702,1350.4668,0,26,26,26,1,0.6,0.4,0.8,0.2,1,0,,,,,,,,,,,,,,,,,,,,,,,,,,,,,,,,,,,,
,,65a9ca4a57dfdc3964333913,66fc984109a53c5aae5f09bc,2024-10-02_02h56.22.114,mdp,2024.2.1,MacIntel,62.11180124,66fa4ebf79326e780c390304,,,,,,,,,,,,,,,,,,,,,1350.4673,1350.4673,1350.4684,1351.5175,1,0,right,0.5228,,1351.5187,1351.5193,1,0,,1351.5197,1351.52,0,0,,1,1351.5201,1351.5201,1351.5204,1353.0162,0,27,27,27,1,0.6,0.4,0.8,0.2,1,0,,,,,,,,,,,,,,,,,,,,,,,,,,,,,,,,,,,,
,,65a9ca4a57dfdc3964333913,66fc984109a53c5aae5f09bc,2024-10-02_02h56.22.114,mdp,2024.2.1,MacIntel,62.11180124,66fa4ebf79326e780c390304,,,,,,,,,,,,,,,,,,,,,1353.0166,1353.0166,1353.0175,1354.334,1,1,right,0.801,,1354.3353,1354.336,1,0,,1354.3367,1354.3372,0,0,,0,1354.3372,1354.3372,1354.3377,1355.8338,0,28,28,28,1,0.6,0.4,0.8,0.2,1,0,,,,,,,,,,,,,,,,,,,,,,,,,,,,,,,,,,,,
,,65a9ca4a57dfdc3964333913,66fc984109a53c5aae5f09bc,2024-10-02_02h56.22.114,mdp,2024.2.1,MacIntel,62.11180124,66fa4ebf79326e780c390304,,,,,,,,,,,,,,,,,,,,,1355.8342,1355.8342,1355.8352,1357.3342,1,0,right,0.9792,,1357.3356,1357.3363,1,0,,1357.3369,1357.3373,0,0,,1,1357.3373,1357.3373,1357.3378,1358.8342,0,29,29,29,1,0.6,0.4,0.8,0.2,1,0,,,,,,,,,,,,,,,,,,,,,,,,,,,,,,,,,,,,
,,65a9ca4a57dfdc3964333913,66fc984109a53c5aae5f09bc,2024-10-02_02h56.22.114,mdp,2024.2.1,MacIntel,62.11180124,66fa4ebf79326e780c390304,,,,,,,,,,,,,,,,,,,,,1358.8346,1358.8346,1358.8354,1360.0501,1,0,right,0.6959,,1360.0509,1360.0514,1,1,,1360.0518,1360.052,0,1,,1,1360.052,1360.052,1360.0523,1361.5492,0,30,30,30,1,0.6,0.4,0.8,0.2,1,0,,,,,,,,,,,,,,,,,,,,,,,,,,,,,,,,,,,,
,,65a9ca4a57dfdc3964333913,66fc984109a53c5aae5f09bc,2024-10-02_02h56.22.114,mdp,2024.2.1,MacIntel,62.11180124,66fa4ebf79326e780c390304,,,,,,,,,,,,,,,,,,,,,1361.5497,1361.5497,1361.5506,1362.9674,1,0,right,0.9001,,1362.9682,1362.9686,1,0,,1362.9689,1362.9692,0,0,,1,1362.9692,1362.9692,1362.9694,1364.467,0,31,31,31,1,0.6,0.4,0.8,0.2,1,0,,,,,,,,,,,,,,,,,,,,,,,,,,,,,,,,,,,,
,,65a9ca4a57dfdc3964333913,66fc984109a53c5aae5f09bc,2024-10-02_02h56.22.114,mdp,2024.2.1,MacIntel,62.11180124,66fa4ebf79326e780c390304,,,,,,,,,,,,,,,,,,,,,1364.4674,1364.4674,1364.4684,1365.4665,1,1,right,0.4671,,1365.468,1365.4688,1,0,,1365.4693,1365.4697,0,0,,0,1365.4698,1365.4698,1365.4702,1366.967,0,32,32,32,1,0.6,0.4,0.8,0.2,1,0,,,,,,,,,,,,,,,,,,,,,,,,,,,,,,,,,,,,
,,65a9ca4a57dfdc3964333913,66fc984109a53c5aae5f09bc,2024-10-02_02h56.22.114,mdp,2024.2.1,MacIntel,62.11180124,66fa4ebf79326e780c390304,,,,,,,,,,,,,,,,,,,,,1366.9673,1366.9673,1366.9681,1368.2335,1,0,right,0.7334,,1368.2341,1368.2344,1,0,,1368.2345,1368.2346,0,0,,1,1368.2346,1368.2346,1368.2346,1369.7339,0,33,33,33,1,0.6,0.4,0.8,0.2,1,0,,,,,,,,,,,,,,,,,,,,,,,,,,,,,,,,,,,,
,,65a9ca4a57dfdc3964333913,66fc984109a53c5aae5f09bc,2024-10-02_02h56.22.114,mdp,2024.2.1,MacIntel,62.11180124,66fa4ebf79326e780c390304,,,,,,,,,,,,,,,,,,,,,1369.7345,1369.7345,1369.7359,1374.0665,1,0,right,3.7996,,1374.0676,1374.0684,1,0,,1374.069,1374.0695,0,0,,1,1374.0695,1374.0695,1374.0699,1375.5671,0,34,34,34,1,0.6,0.4,0.8,0.2,1,0,,,,,,,,,,,,,,,,,,,,,,,,,,,,,,,,,,,,
,,65a9ca4a57dfdc3964333913,66fc984109a53c5aae5f09bc,2024-10-02_02h56.22.114,mdp,2024.2.1,MacIntel,62.11180124,66fa4ebf79326e780c390304,,,,,,,,,,,,,,,,,,,,,1375.5678,1375.5678,1375.5689,1377.1839,1,0,right,1.0879,,1377.1851,1377.1858,1,0,,1377.1864,1377.1869,0,0,,1,1377.1869,1377.1869,1377.1873,1378.6837,0,35,35,35,1,0.6,0.4,0.8,0.2,1,0,,,,,,,,,,,,,,,,,,,,,,,,,,,,,,,,,,,,
,,65a9ca4a57dfdc3964333913,66fc984109a53c5aae5f09bc,2024-10-02_02h56.22.114,mdp,2024.2.1,MacIntel,62.11180124,66fa4ebf79326e780c390304,,,,,,,,,,,,,,,,,,,,,1378.6842,1378.6842,1378.6856,1381.7336,1,0,right,2.5094,,1381.7348,1381.7356,1,0,,1381.7364,1381.7368,0,1,,1,1381.7369,1381.7369,1381.7372,1383.2334,0,36,36,36,1,0.8,0.2,0.6,0.4,1,0,,,,,,,,,,,,,,,,,,,,,,,,,,,,,,,,,,,,
,,65a9ca4a57dfdc3964333913,66fc984109a53c5aae5f09bc,2024-10-02_02h56.22.114,mdp,2024.2.1,MacIntel,62.11180124,66fa4ebf79326e780c390304,,,,,,,,,,,,,,,,,,,,,1383.2339,1383.2339,1383.2345,1384.5006,1,0,right,0.7283,,1384.5019,1384.5026,1,0,,1384.5031,1384.5034,0,1,,1,1384.5034,1384.5034,1384.5038,1385.9999,0,37,37,37,1,0.8,0.2,0.6,0.4,1,0,,,,,,,,,,,,,,,,,,,,,,,,,,,,,,,,,,,,
