init_exp.started,init_exp.stopped,participant,session,date,expName,psychopyVersion,OS,frameRate,study_id,disp_instruction.started,disp_instruction.stopped,instruction.thisRepN,instruction.thisTrialN,instruction.thisN,instruction.thisIndex,instruction.ran,instimg_path,consent.started,consent.stopped,key_resp_3.keys,key_resp_3.rt,key_resp_3.duration,n_steps,sequence_path,init_block.started,init_block.stopped,key_resp.keys,key_resp.rt,key_resp.duration,init_trials.started,init_trials.stopped,step0.started,step0.stopped,act0,s1,res0.keys,res0.rt,res0.duration,step1.started,step1.stopped,act1,s2,res1.keys,step2.started,step2.stopped,act2,s3,res2.keys,rew,reward_comp.started,reward_comp.stopped,reward_disp.started,reward_disp.stopped,trials.thisRepN,trials.thisTrialN,trials.thisN,trials.thisIndex,trials.ran,s00a0s10,s00a0s11,s00a1s10,s00a1s11,rew10,rew11,break_block.started,break_block.stopped,block.thisRepN,block.thisTrialN,block.thisN,block.thisIndex,block.ran,s00path,s10path,s11path,s20path,s21path,res1.rt,res1.duration,s10a0s20,s10a0s21,s10a1s20,s10a1s21,s11a0s20,s11a0s21,s11a1s20,s11a1s21,rew20,rew21,res2.rt,res2.duration,s20a0s30,s20a0s31,s20a1s30,s20a1s31,s21a0s30,s21a0s31,s21a1s30,s21a1s31,rew30,rew31
0.0002,0.002,65ab079fde17d72bca5e774b,66fc98b6d85e6ef54d92dac1,2024-10-01_18h52.32.248,mdp,2024.2.1,Win32,60.24096386,66fa4ebf79326e780c390304,,,,,,,,,,,,,,,,,,,,,,,,,,,,,,,,,,,,,,,,,,,,,,,,,,,,,,,,,,,,,,,,,,,,,,,,,,,,,,,,,,,,,,,,,,,
,,65ab079fde17d72bca5e774b,66fc98b6d85e6ef54d92dac1,2024-10-01_18h52.32.248,mdp,2024.2.1,Win32,60.24096386,66fa4ebf79326e780c390304,0.0064,86.0079,0,0,0,0,1,rlnn_exp/rlnn_exp.001.png,,,,,,,,,,,,,,,,,,,,,,,,,,,,,,,,,,,,,,,,,,,,,,,,,,,,,,,,,,,,,,,,,,,,,,,,,,,,,,,,,,,
,,65ab079fde17d72bca5e774b,66fc98b6d85e6ef54d92dac1,2024-10-01_18h52.32.248,mdp,2024.2.1,Win32,60.24096386,66fa4ebf79326e780c390304,86.0095,108.3245,0,1,1,1,1,rlnn_exp/rlnn_exp.002.png,,,,,,,,,,,,,,,,,,,,,,,,,,,,,,,,,,,,,,,,,,,,,,,,,,,,,,,,,,,,,,,,,,,,,,,,,,,,,,,,,,,
,,65ab079fde17d72bca5e774b,66fc98b6d85e6ef54d92dac1,2024-10-01_18h52.32.248,mdp,2024.2.1,Win32,60.24096386,66fa4ebf79326e780c390304,108.3263,141.9434,0,2,2,2,1,rlnn_exp/rlnn_exp.003.png,,,,,,,,,,,,,,,,,,,,,,,,,,,,,,,,,,,,,,,,,,,,,,,,,,,,,,,,,,,,,,,,,,,,,,,,,,,,,,,,,,,
,,65ab079fde17d72bca5e774b,66fc98b6d85e6ef54d92dac1,2024-10-01_18h52.32.248,mdp,2024.2.1,Win32,60.24096386,66fa4ebf79326e780c390304,141.9454,174.3781,0,3,3,3,1,rlnn_exp/rlnn_exp.004.png,,,,,,,,,,,,,,,,,,,,,,,,,,,,,,,,,,,,,,,,,,,,,,,,,,,,,,,,,,,,,,,,,,,,,,,,,,,,,,,,,,,
,,65ab079fde17d72bca5e774b,66fc98b6d85e6ef54d92dac1,2024-10-01_18h52.32.248,mdp,2024.2.1,Win32,60.24096386,66fa4ebf79326e780c390304,,,,,,,,,174.3793,201.2835,y,16.8684,,,,,,,,,,,,,,,,,,,,,,,,,,,,,,,,,,,,,,,,,,,,,,,,,,,,,,,,,,,,,,,,,,,,,,,,,,,,,,,
,,65ab079fde17d72bca5e774b,66fc98b6d85e6ef54d92dac1,2024-10-01_18h52.32.248,mdp,2024.2.1,Win32,60.24096386,66fa4ebf79326e780c390304,,,,,,,,,,,,,,1,seqs/st1seq33.csv,201.2951,203.6817,space,1.8714,,203.6874,203.6876,203.6881,240.9812,1,1,right,36.7651,,240.9818,240.9844,,0,,240.9847,240.9857,,0,,0,240.9858,240.9859,240.9862,242.4814,0,0,0,0,1,0.4,0.6,0.8,0.2,1,0,,,,,,,,,,,,,,,,,,,,,,,,,,,,,,,,,,,,
,,65ab079fde17d72bca5e774b,66fc98b6d85e6ef54d92dac1,2024-10-01_18h52.32.248,mdp,2024.2.1,Win32,60.24096386,66fa4ebf79326e780c390304,,,,,,,,,,,,,,,,,,,,,242.4825,242.4826,242.4853,244.7133,0,1,left,1.7057,,244.7158,244.7178,,1,,244.7193,244.7206,,1,,0,244.7208,244.7208,244.722,246.2129,0,1,1,1,1,0.4,0.6,0.8,0.2,1,0,,,,,,,,,,,,,,,,,,,,,,,,,,,,,,,,,,,,
,,65ab079fde17d72bca5e774b,66fc98b6d85e6ef54d92dac1,2024-10-01_18h52.32.248,mdp,2024.2.1,Win32,60.24096386,66fa4ebf79326e780c390304,,,,,,,,,,,,,,,,,,,,,246.214,246.214,246.2181,248.9283,0,0,left,2.1853,,248.9312,248.9331,,1,,248.9345,248.9359,,1,,1,248.936,248.936,248.9372,250.4273,0,2,2,2,1,0.8,0.2,0.4,0.6,1,0,,,,,,,,,,,,,,,,,,,,,,,,,,,,,,,,,,,,
,,65ab079fde17d72bca5e774b,66fc98b6d85e6ef54d92dac1,2024-10-01_18h52.32.248,mdp,2024.2.1,Win32,60.24096386,66fa4ebf79326e780c390304,,,,,,,,,,,,,,,,,,,,,250.4284,250.4284,250.4319,252.9086,0,0,left,1.9589,,252.9094,252.9105,,0,,252.9113,252.9115,,0,,1,252.9115,252.9115,252.9119,254.4093,0,3,3,3,1,0.8,0.2,0.4,0.6,1,0,,,,,,,,,,,,,,,,,,,,,,,,,,,,,,,,,,,,
,,65ab079fde17d72bca5e774b,66fc98b6d85e6ef54d92dac1,2024-10-01_18h52.32.248,mdp,2024.2.1,Win32,60.24096386,66fa4ebf79326e780c390304,,,,,,,,,,,,,,,,,,,,,254.4102,254.4102,254.4124,255.792,0,0,left,0.8512,,255.7947,255.7968,,0,,255.7983,255.7994,,0,,1,255.7995,255.7995,255.8005,257.2904,0,4,4,4,1,0.8,0.2,0.4,0.6,1,0,,,,,,,,,,,,,,,,,,,,,,,,,,,,,,,,,,,,
,,65ab079fde17d72bca5e774b,66fc98b6d85e6ef54d92dac1,2024-10-01_18h52.32.248,mdp,2024.2.1,Win32,60.24096386,66fa4ebf79326e780c390304,,,,,,,,,,,,,,,,,,,,,257.291,257.291,257.2931,258.5072,0,1,left,0.685,,258.51,258.5122,,0,,258.5138,258.5151,,0,,0,258.5153,258.5153,258.5164,260.0066,0,5,5,5,1,0.8,0.2,0.4,0.6,1,0,,,,,,,,,,,,,,,,,,,,,,,,,,,,,,,,,,,,
,,65ab079fde17d72bca5e774b,66fc98b6d85e6ef54d92dac1,2024-10-01_18h52.32.248,mdp,2024.2.1,Win32,60.24096386,66fa4ebf79326e780c390304,,,,,,,,,,,,,,,,,,,,,260.0076,260.0076,260.0107,260.9897,1,1,right,0.4537,,260.9922,260.9946,,0,,260.9962,260.9976,,1,,0,260.9978,260.9978,260.9994,262.4887,0,6,6,6,1,0.8,0.2,0.4,0.6,1,0,,,,,,,,,,,,,,,,,,,,,,,,,,,,,,,,,,,,
,,65ab079fde17d72bca5e774b,66fc98b6d85e6ef54d92dac1,2024-10-01_18h52.32.248,mdp,2024.2.1,Win32,60.24096386,66fa4ebf79326e780c390304,,,,,,,,,,,,,,,,,,,,,262.4897,262.4898,262.4931,263.6055,1,1,right,0.5844,,263.6081,263.61,,1,,263.6113,263.6126,,1,,0,263.6127,263.6127,263.6138,265.1041,0,7,7,7,1,0.8,0.2,0.4,0.6,1,0,,,,,,,,,,,,,,,,,,,,,,,,,,,,,,,,,,,,
,,65ab079fde17d72bca5e774b,66fc98b6d85e6ef54d92dac1,2024-10-01_18h52.32.248,mdp,2024.2.1,Win32,60.24096386,66fa4ebf79326e780c390304,,,,,,,,,,,,,,,,,,,,,265.1052,265.1054,265.1079,266.2199,0,0,left,0.5817,,266.2211,266.2226,,0,,266.2232,266.2238,,1,,1,266.2238,266.2238,266.2243,267.7196,0,8,8,8,1,0.8,0.2,0.4,0.6,1,0,,,,,,,,,,,,,,,,,,,,,,,,,,,,,,,,,,,,
,,65ab079fde17d72bca5e774b,66fc98b6d85e6ef54d92dac1,2024-10-01_18h52.32.248,mdp,2024.2.1,Win32,60.24096386,66fa4ebf79326e780c390304,,,,,,,,,,,,,,,,,,,,,267.7206,267.7207,267.7242,268.5851,0,0,left,0.3402,,268.5859,268.5874,,0,,268.5879,268.5883,,0,,1,268.5883,268.5883,268.5888,270.0848,0,9,9,9,1,0.8,0.2,0.4,0.6,1,0,,,,,,,,,,,,,,,,,,,,,,,,,,,,,,,,,,,,
,,65ab079fde17d72bca5e774b,66fc98b6d85e6ef54d92dac1,2024-10-01_18h52.32.248,mdp,2024.2.1,Win32,60.24096386,66fa4ebf79326e780c390304,,,,,,,,,,,,,,,,,,,,,270.0861,270.0861,270.0887,270.9352,0,0,left,0.3267,,270.938,270.9399,,1,,270.9415,270.9429,,1,,1,270.9429,270.943,270.9442,272.4342,0,10,10,10,1,0.4,0.6,0.8,0.2,1,0,,,,,,,,,,,,,,,,,,,,,,,,,,,,,,,,,,,,
,,65ab079fde17d72bca5e774b,66fc98b6d85e6ef54d92dac1,2024-10-01_18h52.32.248,mdp,2024.2.1,Win32,60.24096386,66fa4ebf79326e780c390304,,,,,,,,,,,,,,,,,,,,,272.4354,272.4354,272.438,273.4006,0,0,left,0.4423,,273.4036,273.4055,,1,,273.4069,273.4083,,0,,1,273.4083,273.4083,273.4097,274.8992,0,11,11,11,1,0.4,0.6,0.8,0.2,1,0,,,,,,,,,,,,,,,,,,,,,,,,,,,,,,,,,,,,
,,65ab079fde17d72bca5e774b,66fc98b6d85e6ef54d92dac1,2024-10-01_18h52.32.248,mdp,2024.2.1,Win32,60.24096386,66fa4ebf79326e780c390304,,,,,,,,,,,,,,,,,,,,,274.8999,274.8999,274.9012,275.7498,0,0,left,0.3287,,275.7519,275.7539,,0,,275.7555,275.7567,,0,,1,275.7568,275.7568,275.7579,277.2484,0,12,12,12,1,0.6,0.4,0.2,0.8,1,0,,,,,,,,,,,,,,,,,,,,,,,,,,,,,,,,,,,,
,,65ab079fde17d72bca5e774b,66fc98b6d85e6ef54d92dac1,2024-10-01_18h52.32.248,mdp,2024.2.1,Win32,60.24096386,66fa4ebf79326e780c390304,,,,,,,,,,,,,,,,,,,,,277.2495,277.2496,277.2526,278.1318,0,0,left,0.3501,,278.1344,278.1362,,0,,278.1375,278.1386,,0,,1,278.1387,278.1387,278.1397,279.6302,0,13,13,13,1,0.6,0.4,0.2,0.8,1,0,,,,,,,,,,,,,,,,,,,,,,,,,,,,,,,,,,,,
,,65ab079fde17d72bca5e774b,66fc98b6d85e6ef54d92dac1,2024-10-01_18h52.32.248,mdp,2024.2.1,Win32,60.24096386,66fa4ebf79326e780c390304,,,,,,,,,,,,,,,,,,,,,279.6305,279.6306,279.6321,280.6298,0,0,left,0.4687,,280.6306,280.6322,,0,,280.6328,280.6332,,0,,1,280.6332,280.6332,280.6335,282.1289,0,14,14,14,1,0.6,0.4,0.2,0.8,1,0,,,,,,,,,,,,,,,,,,,,,,,,,,,,,,,,,,,,
,,65ab079fde17d72bca5e774b,66fc98b6d85e6ef54d92dac1,2024-10-01_18h52.32.248,mdp,2024.2.1,Win32,60.24096386,66fa4ebf79326e780c390304,,,,,,,,,,,,,,,,,,,,,282.1294,282.1294,282.1302,284.8779,0,1,left,2.2194,,284.8788,284.8793,,1,,284.8804,284.8815,,1,,0,284.8816,284.8816,284.8821,286.3773,0,15,15,15,1,0.6,0.4,0.2,0.8,1,0,,,,,,,,,,,,,,,,,,,,,,,,,,,,,,,,,,,,
,,65ab079fde17d72bca5e774b,66fc98b6d85e6ef54d92dac1,2024-10-01_18h52.32.248,mdp,2024.2.1,Win32,60.24096386,66fa4ebf79326e780c390304,,,,,,,,,,,,,,,,,,,,,286.3775,286.3775,286.3783,288.3097,0,1,left,1.4008,,288.3106,288.3111,,0,,288.3116,288.3132,,1,,0,288.3133,288.3133,288.3138,289.8089,0,16,16,16,1,0.6,0.4,0.2,0.8,1,0,,,,,,,,,,,,,,,,,,,,,,,,,,,,,,,,,,,,
,,65ab079fde17d72bca5e774b,66fc98b6d85e6ef54d92dac1,2024-10-01_18h52.32.248,mdp,2024.2.1,Win32,60.24096386,66fa4ebf79326e780c390304,,,,,,,,,,,,,,,,,,,,,289.8093,289.8094,289.8102,290.7586,1,1,right,0.4274,,290.7594,290.7614,,1,,290.762,290.7624,,1,,0,290.7625,290.7625,290.763,292.2578,0,17,17,17,1,0.6,0.4,0.2,0.8,1,0,,,,,,,,,,,,,,,,,,,,,,,,,,,,,,,,,,,,
,,65ab079fde17d72bca5e774b,66fc98b6d85e6ef54d92dac1,2024-10-01_18h52.32.248,mdp,2024.2.1,Win32,60.24096386,66fa4ebf79326e780c390304,,,,,,,,,,,,,,,,,,,,,292.2582,292.2582,292.2594,292.9078,0,1,left,0.1147,,292.9089,292.9096,,0,,292.9114,292.912,,0,,0,292.912,292.912,292.9128,294.4069,0,18,18,18,1,0.6,0.4,0.2,0.8,1,0,,,,,,,,,,,,,,,,,,,,,,,,,,,,,,,,,,,,
,,65ab079fde17d72bca5e774b,66fc98b6d85e6ef54d92dac1,2024-10-01_18h52.32.248,mdp,2024.2.1,Win32,60.24096386,66fa4ebf79326e780c390304,,,,,,,,,,,,,,,,,,,,,294.4072,294.4072,294.4079,295.7397,1,1,right,0.8107,,295.7404,295.7421,,1,,295.7429,295.7434,,1,,0,295.7434,295.7434,295.7438,297.2389,0,19,19,19,1,0.6,0.4,0.2,0.8,1,0,,,,,,,,,,,,,,,,,,,,,,,,,,,,,,,,,,,,
,,65ab079fde17d72bca5e774b,66fc98b6d85e6ef54d92dac1,2024-10-01_18h52.32.248,mdp,2024.2.1,Win32,60.24096386,66fa4ebf79326e780c390304,,,,,,,,,,,,,,,,,,,,,297.2392,297.2392,297.2404,298.1053,1,0,right,0.3335,,298.1061,298.1082,,1,,298.1087,298.1093,,1,,1,298.1093,298.1093,298.1098,299.6045,0,20,20,20,1,0.8,0.2,0.6,0.4,1,0,,,,,,,,,,,,,,,,,,,,,,,,,,,,,,,,,,,,
,,65ab079fde17d72bca5e774b,66fc98b6d85e6ef54d92dac1,2024-10-01_18h52.32.248,mdp,2024.2.1,Win32,60.24096386,66fa4ebf79326e780c390304,,,,,,,,,,,,,,,,,,,,,299.6048,299.6048,299.6058,300.5875,1,0,right,0.4525,,300.5883,300.5889,,0,,300.5894,300.5898,,1,,1,300.5898,300.5898,300.5901,302.0873,0,21,21,21,1,0.8,0.2,0.6,0.4,1,0,,,,,,,,,,,,,,,,,,,,,,,,,,,,,,,,,,,,
,,65ab079fde17d72bca5e774b,66fc98b6d85e6ef54d92dac1,2024-10-01_18h52.32.248,mdp,2024.2.1,Win32,60.24096386,66fa4ebf79326e780c390304,,,,,,,,,,,,,,,,,,,,,302.0875,302.0875,302.0882,303.1697,1,0,right,0.5515,,303.1705,303.1724,,1,,303.1731,303.1736,,0,,1,303.1736,303.1736,303.174,304.669,0,22,22,22,1,0.8,0.2,0.6,0.4,1,0,,,,,,,,,,,,,,,,,,,,,,,,,,,,,,,,,,,,
,,65ab079fde17d72bca5e774b,66fc98b6d85e6ef54d92dac1,2024-10-01_18h52.32.248,mdp,2024.2.1,Win32,60.24096386,66fa4ebf79326e780c390304,,,,,,,,,,,,,,,,,,,,,304.6693,304.6693,304.6708,305.4688,1,0,right,0.2672,,305.4695,305.4713,,0,,305.4718,305.4721,,0,,1,305.4721,305.4721,305.4725,306.968,0,23,23,23,1,0.8,0.2,0.6,0.4,1,0,,,,,,,,,,,,,,,,,,,,,,,,,,,,,,,,,,,,
,,65ab079fde17d72bca5e774b,66fc98b6d85e6ef54d92dac1,2024-10-01_18h52.32.248,mdp,2024.2.1,Win32,60.24096386,66fa4ebf79326e780c390304,,,,,,,,,,,,,,,,,,,,,306.9684,306.9684,306.9692,307.901,1,1,right,0.4122,,307.9018,307.9022,,0,,307.9028,307.9032,,0,,0,307.9032,307.9032,307.9035,309.4001,0,24,24,24,1,0.8,0.2,0.6,0.4,1,0,,,,,,,,,,,,,,,,,,,,,,,,,,,,,,,,,,,,
,,65ab079fde17d72bca5e774b,66fc98b6d85e6ef54d92dac1,2024-10-01_18h52.32.248,mdp,2024.2.1,Win32,60.24096386,66fa4ebf79326e780c390304,,,,,,,,,,,,,,,,,,,,,309.4006,309.4006,309.4014,310.7664,0,0,left,0.834,,310.7672,310.7676,,0,,310.7681,310.769,,0,,1,310.7692,310.7692,310.7699,312.2656,0,25,25,25,1,0.8,0.2,0.6,0.4,1,0,,,,,,,,,,,,,,,,,,,,,,,,,,,,,,,,,,,,
,,65ab079fde17d72bca5e774b,66fc98b6d85e6ef54d92dac1,2024-10-01_18h52.32.248,mdp,2024.2.1,Win32,60.24096386,66fa4ebf79326e780c390304,,,,,,,,,,,,,,,,,,,,,312.266,312.2661,312.2668,315.0812,0,0,left,2.282,,315.0819,315.0839,,0,,315.0846,315.0849,,0,,1,315.085,315.085,315.0853,316.5803,0,26,26,26,1,0.8,0.2,0.6,0.4,1,0,,,,,,,,,,,,,,,,,,,,,,,,,,,,,,,,,,,,
,,65ab079fde17d72bca5e774b,66fc98b6d85e6ef54d92dac1,2024-10-01_18h52.32.248,mdp,2024.2.1,Win32,60.24096386,66fa4ebf79326e780c390304,,,,,,,,,,,,,,,,,,,,,316.5806,316.5806,316.5818,317.5635,0,0,left,0.4525,,317.5647,317.5662,,0,,317.5668,317.5673,,0,,1,317.5673,317.5673,317.5678,319.0626,0,27,27,27,1,0.8,0.2,0.6,0.4,1,0,,,,,,,,,,,,,,,,,,,,,,,,,,,,,,,,,,,,
,,65ab079fde17d72bca5e774b,66fc98b6d85e6ef54d92dac1,2024-10-01_18h52.32.248,mdp,2024.2.1,Win32,60.24096386,66fa4ebf79326e780c390304,,,,,,,,,,,,,,,,,,,,,319.0629,319.0629,319.0637,320.0124,0,0,left,0.4204,,320.0133,320.0138,,1,,320.0149,320.0159,,0,,1,320.0159,320.0159,320.0163,321.5115,0,28,28,28,1,0.8,0.2,0.6,0.4,1,0,,,,,,,,,,,,,,,,,,,,,,,,,,,,,,,,,,,,
,,65ab079fde17d72bca5e774b,66fc98b6d85e6ef54d92dac1,2024-10-01_18h52.32.248,mdp,2024.2.1,Win32,60.24096386,66fa4ebf79326e780c390304,,,,,,,,,,,,,,,,,,,,,321.5118,321.5118,321.5126,323.8271,0,0,left,1.7871,,323.828,323.8297,,0,,323.8302,323.8306,,0,,1,323.8306,323.8306,323.831,325.3264,0,29,29,29,1,0.8,0.2,0.6,0.4,1,0,,,,,,,,,,,,,,,,,,,,,,,,,,,,,,,,,,,,
,,65ab079fde17d72bca5e774b,66fc98b6d85e6ef54d92dac1,2024-10-01_18h52.32.248,mdp,2024.2.1,Win32,60.24096386,66fa4ebf79326e780c390304,,,,,,,,,,,,,,,,,,,,,325.3268,325.3268,325.3278,326.526,0,0,left,0.6754,,326.5268,326.5284,,0,,326.529,326.5293,,0,,1,326.5293,326.5293,326.5296,328.026,0,30,30,30,1,0.8,0.2,0.6,0.4,1,0,,,,,,,,,,,,,,,,,,,,,,,,,,,,,,,,,,,,
,,65ab079fde17d72bca5e774b,66fc98b6d85e6ef54d92dac1,2024-10-01_18h52.32.248,mdp,2024.2.1,Win32,60.24096386,66fa4ebf79326e780c390304,,,,,,,,,,,,,,,,,,,,,328.0268,328.0268,328.0291,328.9587,0,0,left,0.3982,,328.9596,328.9601,,0,,328.9605,328.9608,,1,,1,328.9609,328.9609,328.9613,330.4578,0,31,31,31,1,0.2,0.8,0.8,0.2,1,0,,,,,,,,,,,,,,,,,,,,,,,,,,,,,,,,,,,,
,,65ab079fde17d72bca5e774b,66fc98b6d85e6ef54d92dac1,2024-10-01_18h52.32.248,mdp,2024.2.1,Win32,60.24096386,66fa4ebf79326e780c390304,,,,,,,,,,,,,,,,,,,,,330.4591,330.4591,330.4604,331.841,0,1,left,0.8544,,331.8441,331.8456,,1,,331.8466,331.8475,,1,,0,331.8476,331.8476,331.8487,333.3406,0,32,32,32,1,0.2,0.8,0.8,0.2,1,0,,,,,,,,,,,,,,,,,,,,,,,,,,,,,,,,,,,,
,,65ab079fde17d72bca5e774b,66fc98b6d85e6ef54d92dac1,2024-10-01_18h52.32.248,mdp,2024.2.1,Win32,60.24096386,66fa4ebf79326e780c390304,,,,,,,,,,,,,,,,,,,,,333.3415,333.3416,333.3448,334.1069,1,1,right,0.2331,,334.11,334.1113,,0,,334.1126,334.1138,,0,,0,334.1138,334.1139,334.1149,335.6059,0,33,33,33,1,0.2,0.8,0.8,0.2,1,0,,,,,,,,,,,,,,,,,,,,,,,,,,,,,,,,,,,,
,,65ab079fde17d72bca5e774b,66fc98b6d85e6ef54d92dac1,2024-10-01_18h52.32.248,mdp,2024.2.1,Win32,60.24096386,66fa4ebf79326e780c390304,,,,,,,,,,,,,,,,,,,,,335.6067,335.6067,335.6097,336.1738,0,0,left,0.0346,,336.1768,336.178,,1,,336.1794,336.1803,,1,,1,336.1804,336.1805,336.1815,337.6719,0,34,34,34,1,0.2,0.8,0.8,0.2,1,0,,,,,,,,,,,,,,,,,,,,,,,,,,,,,,,,,,,,
,,65ab079fde17d72bca5e774b,66fc98b6d85e6ef54d92dac1,2024-10-01_18h52.32.248,mdp,2024.2.1,Win32,60.24096386,66fa4ebf79326e780c390304,,,,,,,,,,,,,,,,,,,,,337.6728,337.6729,337.6758,338.5548,0,0,left,0.356,,338.5568,338.5588,,1,,338.5605,338.5615,,0,,1,338.5616,338.5616,338.5627,340.054,0,35,35,35,1,0.2,0.8,0.8,0.2,1,0,,,,,,,,,,,,,,,,,,,,,,,,,,,,,,,,,,,,
,,65ab079fde17d72bca5e774b,66fc98b6d85e6ef54d92dac1,2024-10-01_18h52.32.248,mdp,2024.2.1,Win32,60.24096386,66fa4ebf79326e780c390304,,,,,,,,,,,,,,,,,,,,,340.055,340.0551,340.0561,341.4696,0,0,left,0.8917,,341.4707,341.4711,,0,,341.4722,341.4733,,0,,1,341.4733,341.4733,341.4738,342.97,0,36,36,36,1,0.8,0.2,0.6,0.4,1,0,,,,,,,,,,,,,,,,,,,,,,,,,,,,,,,,,,,,
,,65ab079fde17d72bca5e774b,66fc98b6d85e6ef54d92dac1,2024-10-01_18h52.32.248,mdp,2024.2.1,Win32,60.24096386,66fa4ebf79326e780c390304,,,,,,,,,,,,,,,,,,,,,342.971,342.971,342.9726,344.0199,0,0,left,0.5207,,344.0228,344.0241,,0,,344.0253,344.0265,,0,,1,344.0266,344.0266,344.0277,345.5187,0,37,37,37,1,0.8,0.2,0.6,0.4,1,0,,,,,,,,,,,,,,,,,,,,,,,,,,,,,,,,,,,,
,,65ab079fde17d72bca5e774b,66fc98b6d85e6ef54d92dac1,2024-10-01_18h52.32.248,mdp,2024.2.1,Win32,60.24096386,66fa4ebf79326e780c390304,,,,,,,,,,,,,,,,,,,,,345.5196,345.5197,345.5226,346.4518,0,1,left,0.4021,,346.455,346.4563,,0,,346.4576,346.4585,,1,,0,346.4586,346.4586,346.4595,347.9507,0,38,38,38,1,0.8,0.2,0.6,0.4,1,0,,,,,,,,,,,,,,,,,,,,,,,,,,,,,,,,,,,,
,,65ab079fde17d72bca5e774b,66fc98b6d85e6ef54d92dac1,2024-10-01_18h52.32.248,mdp,2024.2.1,Win32,60.24096386,66fa4ebf79326e780c390304,,,,,,,,,,,,,,,,,,,,,347.9517,347.9518,347.9547,348.7165,1,0,right,0.243,,348.7174,348.7192,,0,,348.7198,348.7203,,0,,1,348.7203,348.7203,348.7207,350.2161,0,39,39,39,1,0.8,0.2,0.6,0.4,1,0,,,,,,,,,,,,,,,,,,,,,,,,,,,,,,,,,,,,
,,65ab079fde17d72bca5e774b,66fc98b6d85e6ef54d92dac1,2024-10-01_18h52.32.248,mdp,2024.2.1,Win32,60.24096386,66fa4ebf79326e780c390304,,,,,,,,,,,,,,,,,,,,,350.2171,350.2171,350.2232,351.5815,1,1,right,0.8344,,351.5823,351.5841,,1,,351.5845,351.5849,,1,,0,351.5849,351.585,351.5852,353.0821,0,40,40,40,1,0.8,0.2,0.6,0.4,1,0,,,,,,,,,,,,,,,,,,,,,,,,,,,,,,,,,,,,
,,65ab079fde17d72bca5e774b,66fc98b6d85e6ef54d92dac1,2024-10-01_18h52.32.248,mdp,2024.2.1,Win32,60.24096386,66fa4ebf79326e780c390304,,,,,,,,,,,,,,,,,,,,,353.0831,353.0831,353.0847,353.9475,0,0,left,0.3345,,353.9485,353.949,,0,,353.95,353.9509,,0,,1,353.9509,353.9509,353.9513,355.4478,0,41,41,41,1,0.8,0.2,0.6,0.4,1,0,,,,,,,,,,,,,,,,,,,,,,,,,,,,,,,,,,,,
,,65ab079fde17d72bca5e774b,66fc98b6d85e6ef54d92dac1,2024-10-01_18h52.32.248,mdp,2024.2.1,Win32,60.24096386,66fa4ebf79326e780c390304,,,,,,,,,,,,,,,,,,,,,355.449,355.449,355.4506,356.5304,0,0,left,0.5537,,356.5325,356.5348,,0,,356.5361,356.5371,,0,,1,356.5372,356.5372,356.5383,358.0296,0,42,42,42,1,0.8,0.2,0.6,0.4,1,0,,,,,,,,,,,,,,,,,,,,,,,,,,,,,,,,,,,,
,,65ab079fde17d72bca5e774b,66fc98b6d85e6ef54d92dac1,2024-10-01_18h52.32.248,mdp,2024.2.1,Win32,60.24096386,66fa4ebf79326e780c390304,,,,,,,,,,,,,,,,,,,,,358.0308,358.0308,358.0339,359.4294,0,0,left,0.8754,,359.432,359.4333,,1,,359.4345,359.4354,,0,,1,359.4355,359.4355,359.4365,360.9281,0,43,43,43,1,0.8,0.2,0.6,0.4,1,0,,,,,,,,,,,,,,,,,,,,,,,,,,,,,,,,,,,,
,,65ab079fde17d72bca5e774b,66fc98b6d85e6ef54d92dac1,2024-10-01_18h52.32.248,mdp,2024.2.1,Win32,60.24096386,66fa4ebf79326e780c390304,,,,,,,,,,,,,,,,,,,,,360.9289,360.9289,360.931,363.327,0,0,left,1.8753,,363.3297,363.3314,,0,,363.3328,363.3339,,0,,1,363.334,363.334,363.3355,364.8265,0,44,44,44,1,0.8,0.2,0.6,0.4,1,0,,,,,,,,,,,,,,,,,,,,,,,,,,,,,,,,,,,,
,,65ab079fde17d72bca5e774b,66fc98b6d85e6ef54d92dac1,2024-10-01_18h52.32.248,mdp,2024.2.1,Win32,60.24096386,66fa4ebf79326e780c390304,,,,,,,,,,,,,,,,,,,,,364.828,364.828,364.8298,365.9431,0,0,left,0.5914,,365.9461,365.9478,,1,,365.9492,365.9502,,0,,1,365.9504,365.9504,365.9513,367.4419,0,45,45,45,1,0.8,0.2,0.6,0.4,1,0,,,,,,,,,,,,,,,,,,,,,,,,,,,,,,,,,,,,
,,65ab079fde17d72bca5e774b,66fc98b6d85e6ef54d92dac1,2024-10-01_18h52.32.248,mdp,2024.2.1,Win32,60.24096386,66fa4ebf79326e780c390304,,,,,,,,,,,,,,,,,,,,,367.4434,367.4434,367.4463,368.4748,0,1,left,0.4984,,368.4762,368.4783,,0,,368.4793,368.4799,,0,,0,368.4799,368.4799,368.4805,369.9736,0,46,46,46,1,0.6,0.4,0.4,0.6,1,0,,,,,,,,,,,,,,,,,,,,,,,,,,,,,,,,,,,,
,,65ab079fde17d72bca5e774b,66fc98b6d85e6ef54d92dac1,2024-10-01_18h52.32.248,mdp,2024.2.1,Win32,60.24096386,66fa4ebf79326e780c390304,,,,,,,,,,,,,,,,,,,,,369.9741,369.9741,369.9755,371.0412,0,0,left,0.5557,,371.044,371.046,,1,,371.0473,371.0484,,0,,1,371.0484,371.0484,371.0495,372.5397,0,47,47,47,1,0.6,0.4,0.4,0.6,1,0,,,,,,,,,,,,,,,,,,,,,,,,,,,,,,,,,,,,
,,65ab079fde17d72bca5e774b,66fc98b6d85e6ef54d92dac1,2024-10-01_18h52.32.248,mdp,2024.2.1,Win32,60.24096386,66fa4ebf79326e780c390304,,,,,,,,,,,,,,,,,,,,,372.5405,372.5405,372.5431,373.4244,0,1,left,0.3513,,373.4263,373.4287,,0,,373.4306,373.4321,,0,,0,373.4322,373.4322,373.4337,374.9214,0,48,48,48,1,0.6,0.4,0.4,0.6,1,0,,,,,,,,,,,,,,,,,,,,,,,,,,,,,,,,,,,,
,,65ab079fde17d72bca5e774b,66fc98b6d85e6ef54d92dac1,2024-10-01_18h52.32.248,mdp,2024.2.1,Win32,60.24096386,66fa4ebf79326e780c390304,,,,,,,,,,,,,,,,,,,,,374.922,374.9221,374.9235,375.822,1,0,right,0.3688,,375.825,375.8261,,0,,375.8273,375.8282,,0,,1,375.8282,375.8283,375.8293,377.3212,0,49,49,49,1,0.8,0.2,0.8,0.2,1,0,,,,,,,,,,,,,,,,,,,,,,,,,,,,,,,,,,,,
,,65ab079fde17d72bca5e774b,66fc98b6d85e6ef54d92dac1,2024-10-01_18h52.32.248,mdp,2024.2.1,Win32,60.24096386,66fa4ebf79326e780c390304,,,,,,,,,,,,,,,,,,,,,,,,,,,,,,,,,,,,,,,,,,,,,,,,,,,,,,,,377.3222,435.8449,0,0,0,4,1,imgs/kangaroo.png,imgs/giraffe.png,imgs/pig.png,imgs/lion.png,imgs/cat.png,,,,,,,,,,,,,,,,,,,,,,,,
,,65ab079fde17d72bca5e774b,66fc98b6d85e6ef54d92dac1,2024-10-01_18h52.32.248,mdp,2024.2.1,Win32,60.24096386,66fa4ebf79326e780c390304,,,,,,,,,,,,,,2,seqs/st2seq10.csv,435.8472,438.8096,space,2.4384,,438.8165,438.8165,438.8171,442.7249,1,1,right,3.3691,,442.7262,444.6901,0,1,left,444.691,444.693,,1,,0,444.693,444.693,444.6935,446.1903,0,0,0,0,1,0.2,0.8,0.6,0.4,,,,,,,,,,,,,,,1.4405,,0.8,0.2,0.8,0.2,0.4,0.6,0.6,0.4,1,0,,,,,,,,,,,,
,,65ab079fde17d72bca5e774b,66fc98b6d85e6ef54d92dac1,2024-10-01_18h52.32.248,mdp,2024.2.1,Win32,60.24096386,66fa4ebf79326e780c390304,,,,,,,,,,,,,,,,,,,,,446.1909,446.1909,446.1932,448.1722,1,1,right,1.4514,,448.1733,449.0733,1,1,right,449.0751,449.0767,,0,,0,449.0769,449.077,449.0783,450.5718,0,1,1,1,1,0.2,0.8,0.6,0.4,,,,,,,,,,,,,,,0.389,,0.8,0.2,0.8,0.2,0.4,0.6,0.6,0.4,1,0,,,,,,,,,,,,
,,65ab079fde17d72bca5e774b,66fc98b6d85e6ef54d92dac1,2024-10-01_18h52.32.248,mdp,2024.2.1,Win32,60.24096386,66fa4ebf79326e780c390304,,,,,,,,,,,,,,,,,,,,,450.5734,450.5734,450.575,451.5722,0,1,left,0.4695,,451.5748,453.1043,0,1,left,453.1067,453.1085,,1,,0,453.1086,453.1086,453.11,454.6027,0,2,2,2,1,0.2,0.8,0.6,0.4,,,,,,,,,,,,,,,0.997,,0.8,0.2,0.8,0.2,0.4,0.6,0.6,0.4,1,0,,,,,,,,,,,,
,,65ab079fde17d72bca5e774b,66fc98b6d85e6ef54d92dac1,2024-10-01_18h52.32.248,mdp,2024.2.1,Win32,60.24096386,66fa4ebf79326e780c390304,,,,,,,,,,,,,,,,,,,,,454.6034,454.6034,454.6043,455.4696,0,1,left,0.3593,,455.472,456.3366,1,0,right,456.3399,456.341,,0,,1,456.3412,456.3412,456.3424,457.8349,0,3,3,3,1,0.2,0.8,0.6,0.4,,,,,,,,,,,,,,,0.3411,,0.8,0.2,0.8,0.2,0.4,0.6,0.6,0.4,1,0,,,,,,,,,,,,
,,65ab079fde17d72bca5e774b,66fc98b6d85e6ef54d92dac1,2024-10-01_18h52.32.248,mdp,2024.2.1,Win32,60.24096386,66fa4ebf79326e780c390304,,,,,,,,,,,,,,,,,,,,,457.8361,457.8362,457.8393,458.6858,0,0,left,0.3276,,458.6889,459.4846,1,0,right,459.4875,459.4897,,1,,1,459.4899,459.4899,459.4912,460.9845,0,4,4,4,1,0.4,0.6,0.8,0.2,,,,,,,,,,,,,,,0.268,,0.8,0.2,0.8,0.2,0.4,0.6,0.6,0.4,1,0,,,,,,,,,,,,
,,65ab079fde17d72bca5e774b,66fc98b6d85e6ef54d92dac1,2024-10-01_18h52.32.248,mdp,2024.2.1,Win32,60.24096386,66fa4ebf79326e780c390304,,,,,,,,,,,,,,,,,,,,,460.9854,460.9854,460.9873,461.8344,0,1,left,0.3207,,461.8376,463.4666,1,0,right,463.4699,463.471,,0,,1,463.4711,463.4711,463.4723,464.9658,0,5,5,5,1,0.4,0.6,0.8,0.2,,,,,,,,,,,,,,,1.1046,,0.8,0.2,0.8,0.2,0.4,0.6,0.6,0.4,1,0,,,,,,,,,,,,
,,65ab079fde17d72bca5e774b,66fc98b6d85e6ef54d92dac1,2024-10-01_18h52.32.248,mdp,2024.2.1,Win32,60.24096386,66fa4ebf79326e780c390304,,,,,,,,,,,,,,,,,,,,,464.9667,464.9667,464.9697,465.7981,0,1,left,0.3095,,465.7997,466.9482,1,1,right,466.9509,466.9531,,0,,0,466.9532,466.9532,466.9546,468.4472,0,6,6,6,1,0.4,0.6,0.8,0.2,,,,,,,,,,,,,,,0.6188,,0.8,0.2,0.8,0.2,0.4,0.6,0.6,0.4,1,0,,,,,,,,,,,,
,,65ab079fde17d72bca5e774b,66fc98b6d85e6ef54d92dac1,2024-10-01_18h52.32.248,mdp,2024.2.1,Win32,60.24096386,66fa4ebf79326e780c390304,,,,,,,,,,,,,,,,,,,,,468.4483,468.4484,468.451,469.3301,0,0,left,0.3558,,469.3321,470.5465,0,0,left,470.5493,470.5517,,0,,1,470.5518,470.5518,470.5533,472.045,0,7,7,7,1,0.4,0.6,0.8,0.2,,,,,,,,,,,,,,,0.6863,,0.8,0.2,0.8,0.2,0.4,0.6,0.6,0.4,1,0,,,,,,,,,,,,
,,65ab079fde17d72bca5e774b,66fc98b6d85e6ef54d92dac1,2024-10-01_18h52.32.248,mdp,2024.2.1,Win32,60.24096386,66fa4ebf79326e780c390304,,,,,,,,,,,,,,,,,,,,,472.046,472.046,472.0482,472.8626,0,1,left,0.291,,472.8653,474.2954,1,0,right,474.297,474.2984,,1,,1,474.2986,474.2986,474.3002,475.7947,0,8,8,8,1,0.4,0.6,0.8,0.2,,,,,,,,,,,,,,,0.9079,,0.8,0.2,0.8,0.2,0.4,0.6,0.6,0.4,1,0,,,,,,,,,,,,
,,65ab079fde17d72bca5e774b,66fc98b6d85e6ef54d92dac1,2024-10-01_18h52.32.248,mdp,2024.2.1,Win32,60.24096386,66fa4ebf79326e780c390304,,,,,,,,,,,,,,,,,,,,,475.7957,475.7959,475.7975,476.6593,0,1,left,0.3337,,476.6601,477.5603,0,1,left,477.5619,477.5638,,0,,0,477.564,477.564,477.5652,479.0593,0,9,9,9,1,0.4,0.6,0.8,0.2,,,,,,,,,,,,,,,0.3715,,0.8,0.2,0.8,0.2,0.4,0.6,0.6,0.4,1,0,,,,,,,,,,,,
,,65ab079fde17d72bca5e774b,66fc98b6d85e6ef54d92dac1,2024-10-01_18h52.32.248,mdp,2024.2.1,Win32,60.24096386,66fa4ebf79326e780c390304,,,,,,,,,,,,,,,,,,,,,479.0602,479.0603,479.0635,479.8924,0,1,left,0.3026,,479.8961,481.0077,1,0,right,481.0093,481.0101,,1,,1,481.0101,481.0101,481.0112,482.5081,0,10,10,10,1,0.4,0.6,0.8,0.2,,,,,,,,,,,,,,,0.5882,,0.8,0.2,0.8,0.2,0.4,0.6,0.6,0.4,1,0,,,,,,,,,,,,
,,65ab079fde17d72bca5e774b,66fc98b6d85e6ef54d92dac1,2024-10-01_18h52.32.248,mdp,2024.2.1,Win32,60.24096386,66fa4ebf79326e780c390304,,,,,,,,,,,,,,,,,,,,,482.5092,482.5092,482.5116,483.5237,0,1,left,0.4846,,483.5255,486.3898,1,1,right,486.3923,486.3943,,0,,0,486.3944,486.3945,486.3958,487.8887,0,11,11,11,1,0.4,0.6,0.8,0.2,,,,,,,,,,,,,,,2.35,,0.8,0.2,0.8,0.2,0.4,0.6,0.6,0.4,1,0,,,,,,,,,,,,
,,65ab079fde17d72bca5e774b,66fc98b6d85e6ef54d92dac1,2024-10-01_18h52.32.248,mdp,2024.2.1,Win32,60.24096386,66fa4ebf79326e780c390304,,,,,,,,,,,,,,,,,,,,,487.8899,487.8899,487.8927,488.7381,1,1,right,0.3227,,488.7406,490.2548,1,1,right,490.2569,490.2592,,1,,0,490.2595,490.2596,490.2615,491.7535,0,12,12,12,1,0.4,0.6,0.8,0.2,,,,,,,,,,,,,,,0.9922,,0.8,0.2,0.8,0.2,0.4,0.6,0.6,0.4,1,0,,,,,,,,,,,,
,,65ab079fde17d72bca5e774b,66fc98b6d85e6ef54d92dac1,2024-10-01_18h52.32.248,mdp,2024.2.1,Win32,60.24096386,66fa4ebf79326e780c390304,,,,,,,,,,,,,,,,,,,,,491.7547,491.7547,491.7565,493.0535,1,0,right,0.7674,,493.0559,494.4692,1,0,right,494.4713,494.4739,,0,,1,494.4739,494.474,494.4752,495.9684,0,13,13,13,1,0.4,0.6,0.8,0.2,,,,,,,,,,,,,,,0.8827,,0.8,0.2,0.8,0.2,0.4,0.6,0.6,0.4,1,0,,,,,,,,,,,,
,,65ab079fde17d72bca5e774b,66fc98b6d85e6ef54d92dac1,2024-10-01_18h52.32.248,mdp,2024.2.1,Win32,60.24096386,66fa4ebf79326e780c390304,,,,,,,,,,,,,,,,,,,,,495.9695,495.9695,495.9726,496.5185,0,1,left,0.0259,,496.5207,497.6187,1,0,right,497.6212,497.6231,,1,,1,497.6233,497.6233,497.6247,499.1173,0,14,14,14,1,0.4,0.6,0.8,0.2,,,,,,,,,,,,,,,0.5711,,0.8,0.2,0.8,0.2,0.4,0.6,0.6,0.4,1,0,,,,,,,,,,,,
,,65ab079fde17d72bca5e774b,66fc98b6d85e6ef54d92dac1,2024-10-01_18h52.32.248,mdp,2024.2.1,Win32,60.24096386,66fa4ebf79326e780c390304,,,,,,,,,,,,,,,,,,,,,499.1182,499.1182,499.1202,500.0493,0,1,left,0.4031,,500.0506,501.0662,0,0,left,501.0687,501.0708,,0,,1,501.0708,501.0708,501.0721,502.566,0,15,15,15,1,0.4,0.6,0.8,0.2,,,,,,,,,,,,,,,0.4874,,0.8,0.2,0.8,0.2,0.4,0.6,0.6,0.4,1,0,,,,,,,,,,,,
,,65ab079fde17d72bca5e774b,66fc98b6d85e6ef54d92dac1,2024-10-01_18h52.32.248,mdp,2024.2.1,Win32,60.24096386,66fa4ebf79326e780c390304,,,,,,,,,,,,,,,,,,,,,502.567,502.567,502.5691,503.365,0,0,left,0.2653,,503.3663,504.7145,0,1,left,504.717,504.7188,,1,,0,504.7189,504.719,504.7203,506.214,0,16,16,16,1,0.4,0.6,0.8,0.2,,,,,,,,,,,,,,,0.812,,0.2,0.8,0.6,0.4,0.4,0.6,0.6,0.4,1,0,,,,,,,,,,,,
,,65ab079fde17d72bca5e774b,66fc98b6d85e6ef54d92dac1,2024-10-01_18h52.32.248,mdp,2024.2.1,Win32,60.24096386,66fa4ebf79326e780c390304,,,,,,,,,,,,,,,,,,,,,506.2151,506.2151,506.2182,506.914,0,1,left,0.1723,,506.9165,507.662,1,1,right,507.663,507.6635,,0,,0,507.6636,507.6636,507.6641,509.1626,0,17,17,17,1,0.4,0.6,0.8,0.2,,,,,,,,,,,,,,,0.2238,,0.2,0.8,0.6,0.4,0.4,0.6,0.6,0.4,1,0,,,,,,,,,,,,
,,65ab079fde17d72bca5e774b,66fc98b6d85e6ef54d92dac1,2024-10-01_18h52.32.248,mdp,2024.2.1,Win32,60.24096386,66fa4ebf79326e780c390304,,,,,,,,,,,,,,,,,,,,,509.1639,509.164,509.1655,509.7623,0,0,left,0.0719,,509.7645,510.7963,0,0,left,510.798,510.7998,,1,,1,510.8,510.8,510.8015,512.295,0,18,18,18,1,0.4,0.6,0.8,0.2,,,,,,,,,,,,,,,0.4964,,0.4,0.6,0.8,0.2,0.4,0.6,0.6,0.4,1,0,,,,,,,,,,,,
,,65ab079fde17d72bca5e774b,66fc98b6d85e6ef54d92dac1,2024-10-01_18h52.32.248,mdp,2024.2.1,Win32,60.24096386,66fa4ebf79326e780c390304,,,,,,,,,,,,,,,,,,,,,512.296,512.296,512.2981,516.5097,1,1,right,3.6909,,516.5121,518.3088,1,1,right,518.311,518.3127,,0,,0,518.3128,518.3128,518.3141,519.8082,0,19,19,19,1,0.4,0.6,0.8,0.2,,,,,,,,,,,,,,,1.27,,0.4,0.6,0.8,0.2,0.4,0.6,0.6,0.4,1,0,,,,,,,,,,,,
,,65ab079fde17d72bca5e774b,66fc98b6d85e6ef54d92dac1,2024-10-01_18h52.32.248,mdp,2024.2.1,Win32,60.24096386,66fa4ebf79326e780c390304,,,,,,,,,,,,,,,,,,,,,519.8093,519.8093,519.8113,521.8078,1,0,right,1.4649,,521.8097,523.5069,0,1,left,523.5091,523.5109,,1,,0,523.5109,523.5109,523.5123,525.0056,0,20,20,20,1,0.4,0.6,0.8,0.2,,,,,,,,,,,,,,,1.1699,,0.4,0.6,0.8,0.2,0.4,0.6,0.6,0.4,1,0,,,,,,,,,,,,
,,65ab079fde17d72bca5e774b,66fc98b6d85e6ef54d92dac1,2024-10-01_18h52.32.248,mdp,2024.2.1,Win32,60.24096386,66fa4ebf79326e780c390304,,,,,,,,,,,,,,,,,,,,,525.007,525.007,525.0086,525.8383,0,1,left,0.3081,,525.8409,527.2714,1,0,right,527.2748,527.2765,,0,,1,527.2766,527.2766,527.278,528.7709,0,21,21,21,1,0.6,0.4,0.2,0.8,,,,,,,,,,,,,,,0.8947,,0.4,0.6,0.8,0.2,0.4,0.6,0.6,0.4,1,0,,,,,,,,,,,,
,,65ab079fde17d72bca5e774b,66fc98b6d85e6ef54d92dac1,2024-10-01_18h52.32.248,mdp,2024.2.1,Win32,60.24096386,66fa4ebf79326e780c390304,,,,,,,,,,,,,,,,,,,,,528.7716,528.7716,528.7744,530.0032,0,1,left,0.697,,530.0048,530.8864,1,0,right,530.8894,530.8911,,0,,1,530.8912,530.8912,530.8925,532.3853,0,22,22,22,1,0.6,0.4,0.2,0.8,,,,,,,,,,,,,,,0.3489,,0.4,0.6,0.8,0.2,0.4,0.6,0.6,0.4,1,0,,,,,,,,,,,,
,,65ab079fde17d72bca5e774b,66fc98b6d85e6ef54d92dac1,2024-10-01_18h52.32.248,mdp,2024.2.1,Win32,60.24096386,66fa4ebf79326e780c390304,,,,,,,,,,,,,,,,,,,,,532.3865,532.3865,532.3885,533.2527,0,0,left,0.333,,533.2548,536.7504,0,1,left,536.7536,536.7554,,0,,0,536.7555,536.7555,536.7568,538.2497,0,23,23,23,1,0.6,0.4,0.2,0.8,,,,,,,,,,,,,,,2.9666,,0.4,0.6,0.8,0.2,0.4,0.6,0.6,0.4,1,0,,,,,,,,,,,,
,,65ab079fde17d72bca5e774b,66fc98b6d85e6ef54d92dac1,2024-10-01_18h52.32.248,mdp,2024.2.1,Win32,60.24096386,66fa4ebf79326e780c390304,,,,,,,,,,,,,,,,,,,,,538.2506,538.2507,538.2539,539.2813,0,1,left,0.5002,,539.2821,540.282,1,1,right,540.2845,540.2851,,1,,0,540.2852,540.2852,540.2859,541.7814,0,24,24,24,1,0.6,0.4,0.2,0.8,,,,,,,,,,,,,,,0.4716,,0.4,0.6,0.8,0.2,0.4,0.6,0.6,0.4,1,0,,,,,,,,,,,,
,,65ab079fde17d72bca5e774b,66fc98b6d85e6ef54d92dac1,2024-10-01_18h52.32.248,mdp,2024.2.1,Win32,60.24096386,66fa4ebf79326e780c390304,,,,,,,,,,,,,,,,,,,,,541.7834,541.7835,541.7861,542.8145,0,0,left,0.5074,,542.817,544.0462,1,0,right,544.0473,544.049,,0,,1,544.049,544.049,544.0495,545.5452,0,25,25,25,1,0.6,0.4,0.2,0.8,,,,,,,,,,,,,,,0.6913,,0.4,0.6,0.8,0.2,0.4,0.6,0.6,0.4,1,0,,,,,,,,,,,,
,,65ab079fde17d72bca5e774b,66fc98b6d85e6ef54d92dac1,2024-10-01_18h52.32.248,mdp,2024.2.1,Win32,60.24096386,66fa4ebf79326e780c390304,,,,,,,,,,,,,,,,,,,,,545.5457,545.5457,545.5469,546.5963,0,1,left,0.5168,,546.5987,547.6452,1,0,right,547.6482,547.6501,,0,,1,547.6502,547.6503,547.6516,549.1442,0,26,26,26,1,0.6,0.4,0.2,0.8,,,,,,,,,,,,,,,0.5241,,0.4,0.6,0.8,0.2,0.4,0.6,0.6,0.4,1,0,,,,,,,,,,,,
,,65ab079fde17d72bca5e774b,66fc98b6d85e6ef54d92dac1,2024-10-01_18h52.32.248,mdp,2024.2.1,Win32,60.24096386,66fa4ebf79326e780c390304,,,,,,,,,,,,,,,,,,,,,549.1446,549.1447,549.1454,549.9947,0,1,left,0.3202,,549.9983,550.8617,1,0,right,550.865,550.8661,,1,,1,550.8662,550.8662,550.8675,552.3598,0,27,27,27,1,0.6,0.4,0.2,0.8,,,,,,,,,,,,,,,0.3448,,0.4,0.6,0.8,0.2,0.4,0.6,0.6,0.4,1,0,,,,,,,,,,,,
,,65ab079fde17d72bca5e774b,66fc98b6d85e6ef54d92dac1,2024-10-01_18h52.32.248,mdp,2024.2.1,Win32,60.24096386,66fa4ebf79326e780c390304,,,,,,,,,,,,,,,,,,,,,552.3603,552.3603,552.3626,553.6427,0,0,left,0.7478,,553.6445,554.6097,1,0,right,554.6142,554.6153,,0,,1,554.6155,554.6155,554.6167,556.1085,0,28,28,28,1,0.6,0.4,0.2,0.8,,,,,,,,,,,,,,,0.4323,,0.4,0.6,0.8,0.2,0.6,0.4,0.2,0.8,1,0,,,,,,,,,,,,
,,65ab079fde17d72bca5e774b,66fc98b6d85e6ef54d92dac1,2024-10-01_18h52.32.248,mdp,2024.2.1,Win32,60.24096386,66fa4ebf79326e780c390304,,,,,,,,,,,,,,,,,,,,,556.1096,556.1096,556.1118,556.7916,0,0,left,0.1597,,556.795,557.7083,1,0,right,557.7099,557.7114,,0,,1,557.7116,557.7116,557.7132,559.2065,0,29,29,29,1,0.6,0.4,0.2,0.8,,,,,,,,,,,,,,,0.3841,,0.4,0.6,0.8,0.2,0.6,0.4,0.2,0.8,1,0,,,,,,,,,,,,
,,65ab079fde17d72bca5e774b,66fc98b6d85e6ef54d92dac1,2024-10-01_18h52.32.248,mdp,2024.2.1,Win32,60.24096386,66fa4ebf79326e780c390304,,,,,,,,,,,,,,,,,,,,,559.2071,559.2071,559.2082,560.9894,0,0,left,1.261,,560.9916,561.857,1,0,right,561.8592,561.8616,,0,,1,561.8617,561.8617,561.8633,563.3555,0,30,30,30,1,0.6,0.4,0.2,0.8,,,,,,,,,,,,,,,0.3368,,0.4,0.6,0.8,0.2,0.6,0.4,0.2,0.8,1,0,,,,,,,,,,,,
,,65ab079fde17d72bca5e774b,66fc98b6d85e6ef54d92dac1,2024-10-01_18h52.32.248,mdp,2024.2.1,Win32,60.24096386,66fa4ebf79326e780c390304,,,,,,,,,,,,,,,,,,,,,563.3565,563.3565,563.3584,564.5371,1,1,right,0.6526,,564.5382,565.4209,0,1,left,565.4237,565.4261,,1,,0,565.4262,565.4262,565.4276,566.9206,0,31,31,31,1,0.6,0.4,0.2,0.8,,,,,,,,,,,,,,,0.3624,,0.4,0.6,0.8,0.2,0.6,0.4,0.2,0.8,1,0,,,,,,,,,,,,
,,65ab079fde17d72bca5e774b,66fc98b6d85e6ef54d92dac1,2024-10-01_18h52.32.248,mdp,2024.2.1,Win32,60.24096386,66fa4ebf79326e780c390304,,,,,,,,,,,,,,,,,,,,,566.9218,566.9218,566.9245,567.8528,1,1,right,0.3996,,567.8542,569.2356,1,1,right,569.238,569.2396,,1,,0,569.2397,569.2397,569.2409,570.734,0,32,32,32,1,0.6,0.4,0.2,0.8,,,,,,,,,,,,,,,0.8656,,0.4,0.6,0.8,0.2,0.6,0.4,0.2,0.8,1,0,,,,,,,,,,,,
,,65ab079fde17d72bca5e774b,66fc98b6d85e6ef54d92dac1,2024-10-01_18h52.32.248,mdp,2024.2.1,Win32,60.24096386,66fa4ebf79326e780c390304,,,,,,,,,,,,,,,,,,,,,570.7343,570.7343,570.7351,571.7674,1,0,right,0.5011,,571.7687,572.6504,1,1,right,572.6517,572.6536,,1,,0,572.6537,572.6537,572.6544,574.1502,0,33,33,33,1,0.6,0.4,0.2,0.8,,,,,,,,,,,,,,,0.3639,,0.4,0.6,0.8,0.2,0.4,0.6,0.8,0.2,1,0,,,,,,,,,,,,
,,65ab079fde17d72bca5e774b,66fc98b6d85e6ef54d92dac1,2024-10-01_18h52.32.248,mdp,2024.2.1,Win32,60.24096386,66fa4ebf79326e780c390304,,,,,,,,,,,,,,,,,,,,,574.1513,574.1513,574.154,574.7335,1,1,right,0.0582,,574.7359,575.7657,0,1,left,575.7667,575.7674,,1,,0,575.7676,575.7676,575.7693,577.2656,0,34,34,34,1,0.6,0.4,0.2,0.8,,,,,,,,,,,,,,,0.4915,,0.4,0.6,0.8,0.2,0.4,0.6,0.8,0.2,1,0,,,,,,,,,,,,
,,65ab079fde17d72bca5e774b,66fc98b6d85e6ef54d92dac1,2024-10-01_18h52.32.248,mdp,2024.2.1,Win32,60.24096386,66fa4ebf79326e780c390304,,,,,,,,,,,,,,,,,,,,,577.2662,577.2663,577.2674,578.165,0,0,left,0.3676,,578.1675,579.1152,1,1,right,579.1176,579.1194,,0,,0,579.1194,579.1194,579.1207,580.6145,0,35,35,35,1,0.6,0.4,0.2,0.8,,,,,,,,,,,,,,,0.4186,,0.4,0.6,0.8,0.2,0.4,0.6,0.8,0.2,1,0,,,,,,,,,,,,
,,65ab079fde17d72bca5e774b,66fc98b6d85e6ef54d92dac1,2024-10-01_18h52.32.248,mdp,2024.2.1,Win32,60.24096386,66fa4ebf79326e780c390304,,,,,,,,,,,,,,,,,,,,,580.6156,580.6156,580.6185,581.3981,0,1,left,0.2581,,581.3999,582.2301,0,1,left,582.2325,582.2341,,1,,0,582.2342,582.2342,582.2364,583.7293,0,36,36,36,1,0.6,0.4,0.2,0.8,,,,,,,,,,,,,,,0.309,,0.4,0.6,0.8,0.2,0.4,0.6,0.8,0.2,1,0,,,,,,,,,,,,
,,65ab079fde17d72bca5e774b,66fc98b6d85e6ef54d92dac1,2024-10-01_18h52.32.248,mdp,2024.2.1,Win32,60.24096386,66fa4ebf79326e780c390304,,,,,,,,,,,,,,,,,,,,,583.7299,583.7299,583.7324,584.4138,0,1,left,0.1521,,584.4163,585.5786,1,0,right,585.5817,585.5842,,0,,1,585.5843,585.5843,585.5858,587.0774,0,37,37,37,1,0.6,0.4,0.2,0.8,,,,,,,,,,,,,,,0.6349,,0.4,0.6,0.8,0.2,0.4,0.6,0.8,0.2,1,0,,,,,,,,,,,,
,,65ab079fde17d72bca5e774b,66fc98b6d85e6ef54d92dac1,2024-10-01_18h52.32.248,mdp,2024.2.1,Win32,60.24096386,66fa4ebf79326e780c390304,,,,,,,,,,,,,,,,,,,,,587.0782,587.0782,587.0796,587.9605,0,1,left,0.3564,,587.9641,589.2778,1,0,right,589.2801,589.2819,,0,,1,589.2821,589.2821,589.2836,590.7769,0,38,38,38,1,0.6,0.4,0.2,0.8,,,,,,,,,,,,,,,0.7943,,0.4,0.6,0.8,0.2,0.4,0.6,0.8,0.2,1,0,,,,,,,,,,,,
,,65ab079fde17d72bca5e774b,66fc98b6d85e6ef54d92dac1,2024-10-01_18h52.32.248,mdp,2024.2.1,Win32,60.24096386,66fa4ebf79326e780c390304,,,,,,,,,,,,,,,,,,,,,590.778,590.778,590.7797,591.5594,0,0,left,0.2543,,591.5626,592.6757,0,1,left,592.6782,592.6801,,0,,0,592.6802,592.6802,592.6817,594.1743,0,39,39,39,1,0.6,0.4,0.2,0.8,,,,,,,,,,,,,,,0.5757,,0.4,0.6,0.8,0.2,0.4,0.6,0.8,0.2,1,0,,,,,,,,,,,,
,,65ab079fde17d72bca5e774b,66fc98b6d85e6ef54d92dac1,2024-10-01_18h52.32.248,mdp,2024.2.1,Win32,60.24096386,66fa4ebf79326e780c390304,,,,,,,,,,,,,,,,,,,,,594.1754,594.1755,594.1782,595.0244,0,1,left,0.3226,,595.0273,595.9575,1,0,right,595.9598,595.9616,,1,,1,595.9617,595.9618,595.9634,597.4557,0,40,40,40,1,0.6,0.4,0.2,0.8,,,,,,,,,,,,,,,0.419,,0.4,0.6,0.8,0.2,0.4,0.6,0.8,0.2,1,0,,,,,,,,,,,,
,,65ab079fde17d72bca5e774b,66fc98b6d85e6ef54d92dac1,2024-10-01_18h52.32.248,mdp,2024.2.1,Win32,60.24096386,66fa4ebf79326e780c390304,,,,,,,,,,,,,,,,,,,,,597.4564,597.4565,597.4578,598.3902,0,0,left,0.3998,,598.3915,599.5561,0,0,left,599.5583,599.56,,1,,1,599.5603,599.5603,599.5617,601.0549,0,41,41,41,1,0.6,0.4,0.2,0.8,,,,,,,,,,,,,,,0.6288,,0.4,0.6,0.8,0.2,0.8,0.2,0.6,0.4,1,0,,,,,,,,,,,,
,,65ab079fde17d72bca5e774b,66fc98b6d85e6ef54d92dac1,2024-10-01_18h52.32.248,mdp,2024.2.1,Win32,60.24096386,66fa4ebf79326e780c390304,,,,,,,,,,,,,,,,,,,,,601.056,601.056,601.0579,602.1701,0,0,left,0.5828,,602.1709,603.2875,0,0,left,603.2894,603.2915,,1,,1,603.2916,603.2916,603.2926,604.786,0,42,42,42,1,0.6,0.4,0.2,0.8,,,,,,,,,,,,,,,0.601,,0.4,0.6,0.8,0.2,0.8,0.2,0.6,0.4,1,0,,,,,,,,,,,,
,,65ab079fde17d72bca5e774b,66fc98b6d85e6ef54d92dac1,2024-10-01_18h52.32.248,mdp,2024.2.1,Win32,60.24096386,66fa4ebf79326e780c390304,,,,,,,,,,,,,,,,,,,,,604.7866,604.7866,604.7874,606.2697,0,0,left,0.9498,,606.2725,607.536,0,1,left,607.5384,607.5404,,1,,0,607.5405,607.5406,607.5418,609.0348,0,43,43,43,1,0.6,0.4,0.2,0.8,,,,,,,,,,,,,,,0.7397,,0.4,0.6,0.8,0.2,0.8,0.2,0.6,0.4,1,0,,,,,,,,,,,,
,,65ab079fde17d72bca5e774b,66fc98b6d85e6ef54d92dac1,2024-10-01_18h52.32.248,mdp,2024.2.1,Win32,60.24096386,66fa4ebf79326e780c390304,,,,,,,,,,,,,,,,,,,,,609.0363,609.0364,609.038,609.6683,0,0,left,0.1015,,609.6711,611.7497,0,0,left,611.7505,611.7523,,1,,1,611.7523,611.7523,611.7529,613.2498,0,44,44,44,1,0.6,0.4,0.2,0.8,,,,,,,,,,,,,,,1.5575,,0.4,0.6,0.8,0.2,0.8,0.2,0.6,0.4,1,0,,,,,,,,,,,,
,,65ab079fde17d72bca5e774b,66fc98b6d85e6ef54d92dac1,2024-10-01_18h52.32.248,mdp,2024.2.1,Win32,60.24096386,66fa4ebf79326e780c390304,,,,,,,,,,,,,,,,,,,,,613.2508,613.2508,613.254,614.9988,0,1,left,1.2138,,614.9997,616.2487,1,1,right,616.2512,616.2534,,0,,0,616.2535,616.2536,616.2549,617.7478,0,45,45,45,1,0.6,0.4,0.2,0.8,,,,,,,,,,,,,,,0.7111,,0.8,0.2,0.6,0.4,0.8,0.2,0.6,0.4,1,0,,,,,,,,,,,,
,,65ab079fde17d72bca5e774b,66fc98b6d85e6ef54d92dac1,2024-10-01_18h52.32.248,mdp,2024.2.1,Win32,60.24096386,66fa4ebf79326e780c390304,,,,,,,,,,,,,,,,,,,,,617.7488,617.7489,617.7505,619.6806,0,1,left,1.4022,,619.6829,620.6296,1,1,right,620.633,620.6349,,0,,0,620.6349,620.6349,620.636,622.1288,0,46,46,46,1,0.6,0.4,0.2,0.8,,,,,,,,,,,,,,,0.418,,0.8,0.2,0.6,0.4,0.8,0.2,0.6,0.4,1,0,,,,,,,,,,,,
,,65ab079fde17d72bca5e774b,66fc98b6d85e6ef54d92dac1,2024-10-01_18h52.32.248,mdp,2024.2.1,Win32,60.24096386,66fa4ebf79326e780c390304,,,,,,,,,,,,,,,,,,,,,622.1299,622.1299,622.1327,623.5946,0,0,left,0.934,,623.5973,627.4267,0,1,left,627.4296,627.4317,,0,,0,627.4318,627.4318,627.4331,628.926,0,47,47,47,1,0.8,0.2,0.8,0.2,,,,,,,,,,,,,,,3.3116,,0.8,0.2,0.6,0.4,0.8,0.2,0.6,0.4,1,0,,,,,,,,,,,,
,,65ab079fde17d72bca5e774b,66fc98b6d85e6ef54d92dac1,2024-10-01_18h52.32.248,mdp,2024.2.1,Win32,60.24096386,66fa4ebf79326e780c390304,,,,,,,,,,,,,,,,,,,,,628.9273,628.9274,628.9293,631.2251,0,0,left,1.7714,,631.2276,632.5253,1,0,right,632.5277,632.5296,,0,,1,632.5297,632.5298,632.5311,634.0234,0,48,48,48,1,0.8,0.2,0.8,0.2,,,,,,,,,,,,,,,0.7698,,0.8,0.2,0.6,0.4,0.8,0.2,0.6,0.4,1,0,,,,,,,,,,,,
,,65ab079fde17d72bca5e774b,66fc98b6d85e6ef54d92dac1,2024-10-01_18h52.32.248,mdp,2024.2.1,Win32,60.24096386,66fa4ebf79326e780c390304,,,,,,,,,,,,,,,,,,,,,634.024,634.024,634.0251,636.8556,0,0,left,2.3062,,636.8578,638.0892,1,0,right,638.0912,638.0932,,1,,1,638.0933,638.0933,638.0949,639.5875,0,49,49,49,1,0.8,0.2,0.8,0.2,,,,,,,,,,,,,,,0.7003,,0.8,0.2,0.6,0.4,0.2,0.8,0.4,0.6,1,0,,,,,,,,,,,,
,,65ab079fde17d72bca5e774b,66fc98b6d85e6ef54d92dac1,2024-10-01_18h52.32.248,mdp,2024.2.1,Win32,60.24096386,66fa4ebf79326e780c390304,,,,,,,,,,,,,,,,,,,,,,,,,,,,,,,,,,,,,,,,,,,,,,,,,,,,,,,,639.588,698.0957,0,1,1,0,1,imgs/dog.png,imgs/cat.png,imgs/kangaroo.png,imgs/bear.png,imgs/pig.png,,,,,,,,,,,,,,,,,,,,,,,,
,,65ab079fde17d72bca5e774b,66fc98b6d85e6ef54d92dac1,2024-10-01_18h52.32.248,mdp,2024.2.1,Win32,60.24096386,66fa4ebf79326e780c390304,,,,,,,,,,,,,,3,seqs/st3seq9.csv,698.0983,700.1951,space,1.5687,,700.2126,700.2126,700.2141,702.6308,1,0,right,1.8961,,702.6328,704.4596,1,1,right,704.4614,705.8628,1,0,right,1,705.863,705.863,705.8652,707.3586,0,0,0,0,1,0.2,0.8,0.6,0.4,,,,,,,,,,,,,,,1.2892,,0.4,0.6,0.4,0.6,0.2,0.8,0.6,0.4,,,0.8818,,0.4,0.6,0.6,0.4,0.6,0.4,0.8,0.2,1,0
,,65ab079fde17d72bca5e774b,66fc98b6d85e6ef54d92dac1,2024-10-01_18h52.32.248,mdp,2024.2.1,Win32,60.24096386,66fa4ebf79326e780c390304,,,,,,,,,,,,,,,,,,,,,707.3602,707.3602,707.362,708.3262,1,0,right,0.4323,,708.3282,709.3409,1,1,right,709.3438,710.6112,1,0,right,1,710.6113,710.6113,710.6132,712.1067,0,1,1,1,1,0.2,0.8,0.6,0.4,,,,,,,,,,,,,,,0.4859,,0.4,0.6,0.4,0.6,0.6,0.4,0.2,0.8,,,0.751,,0.4,0.6,0.6,0.4,0.6,0.4,0.8,0.2,1,0
,,65ab079fde17d72bca5e774b,66fc98b6d85e6ef54d92dac1,2024-10-01_18h52.32.248,mdp,2024.2.1,Win32,60.24096386,66fa4ebf79326e780c390304,,,,,,,,,,,,,,,,,,,,,712.1078,712.1078,712.11,712.9914,1,0,right,0.3505,,712.9928,714.1283,1,1,right,714.1301,715.2912,1,0,right,1,715.2914,715.2914,715.2935,716.7904,0,2,2,2,1,0.2,0.8,0.6,0.4,,,,,,,,,,,,,,,0.6043,,0.4,0.6,0.4,0.6,0.6,0.4,0.2,0.8,,,0.634,,0.4,0.6,0.6,0.4,0.6,0.4,0.8,0.2,1,0
,,65ab079fde17d72bca5e774b,66fc98b6d85e6ef54d92dac1,2024-10-01_18h52.32.248,mdp,2024.2.1,Win32,60.24096386,66fa4ebf79326e780c390304,,,,,,,,,,,,,,,,,,,,,716.7917,716.7917,716.7937,717.6374,1,0,right,0.3186,,717.64,718.5042,1,1,right,718.5068,719.3863,1,1,right,0,719.3867,719.3867,719.3891,720.8851,0,3,3,3,1,0.2,0.8,0.6,0.4,,,,,,,,,,,,,,,0.3329,,0.4,0.6,0.4,0.6,0.6,0.4,0.2,0.8,,,0.3717,,0.4,0.6,0.6,0.4,0.6,0.4,0.8,0.2,1,0
,,65ab079fde17d72bca5e774b,66fc98b6d85e6ef54d92dac1,2024-10-01_18h52.32.248,mdp,2024.2.1,Win32,60.24096386,66fa4ebf79326e780c390304,,,,,,,,,,,,,,,,,,,,,720.8867,720.8867,720.8891,721.8718,1,0,right,0.4503,,721.8739,723.2047,1,1,right,723.207,724.1517,1,0,right,1,724.1519,724.1519,724.1545,725.6504,0,4,4,4,1,0.2,0.8,0.6,0.4,,,,,,,,,,,,,,,0.8003,,0.4,0.6,0.4,0.6,0.6,0.4,0.2,0.8,,,0.406,,0.4,0.6,0.6,0.4,0.6,0.4,0.8,0.2,1,0
,,65ab079fde17d72bca5e774b,66fc98b6d85e6ef54d92dac1,2024-10-01_18h52.32.248,mdp,2024.2.1,Win32,60.24096386,66fa4ebf79326e780c390304,,,,,,,,,,,,,,,,,,,,,725.6519,725.652,725.6539,726.4679,0,0,left,0.2824,,726.4687,727.6494,1,1,right,727.6503,728.5651,1,0,right,1,728.5653,728.5653,728.5669,730.0665,0,5,5,5,1,0.2,0.8,0.6,0.4,,,,,,,,,,,,,,,0.6419,,0.4,0.6,0.4,0.6,0.6,0.4,0.2,0.8,,,0.4079,,0.4,0.6,0.6,0.4,0.6,0.4,0.8,0.2,1,0
,,65ab079fde17d72bca5e774b,66fc98b6d85e6ef54d92dac1,2024-10-01_18h52.32.248,mdp,2024.2.1,Win32,60.24096386,66fa4ebf79326e780c390304,,,,,,,,,,,,,,,,,,,,,730.0671,730.0671,730.0683,731.8675,0,1,left,1.2792,,731.8694,733.5498,0,0,left,733.5524,734.614,1,1,right,0,734.6143,734.6143,734.6171,736.1133,0,6,6,6,1,0.2,0.8,0.6,0.4,,,,,,,,,,,,,,,1.1502,,0.4,0.6,0.4,0.6,0.6,0.4,0.2,0.8,,,0.5191,,0.4,0.6,0.6,0.4,0.6,0.4,0.8,0.2,1,0
,,65ab079fde17d72bca5e774b,66fc98b6d85e6ef54d92dac1,2024-10-01_18h52.32.248,mdp,2024.2.1,Win32,60.24096386,66fa4ebf79326e780c390304,,,,,,,,,,,,,,,,,,,,,736.1143,736.1144,736.1165,737.1988,0,0,left,0.5509,,737.201,738.214,0,1,left,738.2161,739.5966,1,0,right,1,739.5966,739.5966,739.5977,741.0925,0,7,7,7,1,0.2,0.8,0.6,0.4,,,,,,,,,,,,,,,0.4828,,0.4,0.6,0.4,0.6,0.6,0.4,0.2,0.8,,,0.8492,,0.4,0.6,0.6,0.4,0.6,0.4,0.8,0.2,1,0
,,65ab079fde17d72bca5e774b,66fc98b6d85e6ef54d92dac1,2024-10-01_18h52.32.248,mdp,2024.2.1,Win32,60.24096386,66fa4ebf79326e780c390304,,,,,,,,,,,,,,,,,,,,,741.0934,741.0934,741.0944,743.1113,0,0,left,1.4825,,743.1136,744.0094,1,0,right,744.0115,745.4454,0,1,left,0,745.4455,745.4455,745.4475,746.9441,0,8,8,8,1,0.2,0.8,0.6,0.4,,,,,,,,,,,,,,,0.3718,,0.4,0.6,0.4,0.6,0.6,0.4,0.2,0.8,,,0.9004,,0.4,0.6,0.6,0.4,0.6,0.4,0.8,0.2,1,0
,,65ab079fde17d72bca5e774b,66fc98b6d85e6ef54d92dac1,2024-10-01_18h52.32.248,mdp,2024.2.1,Win32,60.24096386,66fa4ebf79326e780c390304,,,,,,,,,,,,,,,,,,,,,746.945,746.9451,746.9468,747.7735,0,1,left,0.2955,,747.7748,748.5568,0,1,left,748.5591,749.4597,0,1,left,0,749.4599,749.4599,749.462,750.9556,0,9,9,9,1,0.2,0.8,0.6,0.4,,,,,,,,,,,,,,,0.2552,,0.4,0.6,0.4,0.6,0.6,0.4,0.2,0.8,,,0.3677,,0.4,0.6,0.6,0.4,0.6,0.4,0.8,0.2,1,0
,,65ab079fde17d72bca5e774b,66fc98b6d85e6ef54d92dac1,2024-10-01_18h52.32.248,mdp,2024.2.1,Win32,60.24096386,66fa4ebf79326e780c390304,,,,,,,,,,,,,,,,,,,,,750.9569,750.9569,750.9589,751.8755,1,1,right,0.3839,,751.8773,753.2068,1,0,right,753.2087,754.6213,0,0,left,1,754.6217,754.6217,754.6241,756.1215,0,10,10,10,1,0.2,0.8,0.6,0.4,,,,,,,,,,,,,,,0.8113,,0.4,0.6,0.4,0.6,0.6,0.4,0.2,0.8,,,0.8719,,0.4,0.6,0.6,0.4,0.2,0.8,0.6,0.4,1,0
,,65ab079fde17d72bca5e774b,66fc98b6d85e6ef54d92dac1,2024-10-01_18h52.32.248,mdp,2024.2.1,Win32,60.24096386,66fa4ebf79326e780c390304,,,,,,,,,,,,,,,,,,,,,756.1227,756.1227,756.1252,757.123,1,1,right,0.4816,,757.125,758.7677,1,1,right,758.7691,759.7685,1,0,right,1,759.7686,759.7687,759.7707,761.2675,0,11,11,11,1,0.2,0.8,0.6,0.4,,,,,,,,,,,,,,,1.1027,,0.4,0.6,0.4,0.6,0.6,0.4,0.2,0.8,,,0.4727,,0.4,0.6,0.6,0.4,0.2,0.8,0.6,0.4,1,0
,,65ab079fde17d72bca5e774b,66fc98b6d85e6ef54d92dac1,2024-10-01_18h52.32.248,mdp,2024.2.1,Win32,60.24096386,66fa4ebf79326e780c390304,,,,,,,,,,,,,,,,,,,,,761.2686,761.2687,761.2706,762.1343,1,0,right,0.3424,,762.1362,763.1333,1,0,right,763.1353,764.3989,0,1,left,0,764.3992,764.3993,764.4006,765.8989,0,12,12,12,1,0.2,0.8,0.6,0.4,,,,,,,,,,,,,,,0.4617,,0.4,0.6,0.4,0.6,0.6,0.4,0.2,0.8,,,0.7263,,0.4,0.6,0.6,0.4,0.2,0.8,0.6,0.4,1,0
,,65ab079fde17d72bca5e774b,66fc98b6d85e6ef54d92dac1,2024-10-01_18h52.32.248,mdp,2024.2.1,Win32,60.24096386,66fa4ebf79326e780c390304,,,,,,,,,,,,,,,,,,,,,765.9005,765.9005,765.9027,767.016,1,1,right,0.578,,767.0182,767.8681,1,1,right,767.8698,768.798,1,1,right,0,768.7982,768.7982,768.8007,770.2967,0,13,13,13,1,0.2,0.8,0.6,0.4,,,,,,,,,,,,,,,0.3171,,0.6,0.4,0.6,0.4,0.6,0.4,0.2,0.8,,,0.3954,,0.4,0.6,0.6,0.4,0.2,0.8,0.6,0.4,1,0
,,65ab079fde17d72bca5e774b,66fc98b6d85e6ef54d92dac1,2024-10-01_18h52.32.248,mdp,2024.2.1,Win32,60.24096386,66fa4ebf79326e780c390304,,,,,,,,,,,,,,,,,,,,,770.2977,770.2977,770.2988,771.1483,1,1,right,0.3161,,771.149,772.5293,0,0,left,772.5325,773.5459,0,0,left,1,773.5462,773.5462,773.5486,775.0476,0,14,14,14,1,0.2,0.8,0.6,0.4,,,,,,,,,,,,,,,0.8712,,0.6,0.4,0.6,0.4,0.6,0.4,0.2,0.8,,,0.4707,,0.4,0.6,0.6,0.4,0.2,0.8,0.6,0.4,1,0
,,65ab079fde17d72bca5e774b,66fc98b6d85e6ef54d92dac1,2024-10-01_18h52.32.248,mdp,2024.2.1,Win32,60.24096386,66fa4ebf79326e780c390304,,,,,,,,,,,,,,,,,,,,,775.0486,775.0486,775.0506,775.913,1,0,right,0.3329,,775.9136,777.5629,0,0,left,777.5642,778.9932,1,1,right,0,778.9934,778.9938,778.9963,780.4942,0,15,15,15,1,0.2,0.8,0.6,0.4,,,,,,,,,,,,,,,1.1327,,0.6,0.4,0.6,0.4,0.6,0.4,0.2,0.8,,,0.9203,,0.4,0.6,0.6,0.4,0.6,0.4,0.8,0.2,1,0
,,65ab079fde17d72bca5e774b,66fc98b6d85e6ef54d92dac1,2024-10-01_18h52.32.248,mdp,2024.2.1,Win32,60.24096386,66fa4ebf79326e780c390304,,,,,,,,,,,,,,,,,,,,,780.4955,780.4956,780.4978,781.4588,1,0,right,0.4372,,781.4613,782.5616,1,0,right,782.5641,783.4733,1,1,right,0,783.474,783.474,783.4748,784.976,0,16,16,16,1,0.2,0.8,0.6,0.4,,,,,,,,,,,,,,,0.5963,,0.6,0.4,0.6,0.4,0.6,0.4,0.2,0.8,,,0.3861,,0.4,0.6,0.6,0.4,0.6,0.4,0.8,0.2,1,0
,,65ab079fde17d72bca5e774b,66fc98b6d85e6ef54d92dac1,2024-10-01_18h52.32.248,mdp,2024.2.1,Win32,60.24096386,66fa4ebf79326e780c390304,,,,,,,,,,,,,,,,,,,,,784.9764,784.9764,784.9777,786.9737,1,0,right,1.4655,,786.9743,787.8738,0,0,left,787.8766,789.5705,0,1,left,0,789.5709,789.5711,789.572,791.0711,0,17,17,17,1,0.2,0.8,0.6,0.4,,,,,,,,,,,,,,,0.3766,,0.6,0.4,0.6,0.4,0.6,0.4,0.2,0.8,,,1.1832,,0.4,0.6,0.6,0.4,0.6,0.4,0.8,0.2,1,0
,,65ab079fde17d72bca5e774b,66fc98b6d85e6ef54d92dac1,2024-10-01_18h52.32.248,mdp,2024.2.1,Win32,60.24096386,66fa4ebf79326e780c390304,,,,,,,,,,,,,,,,,,,,,791.0722,791.0723,791.0743,791.9209,1,0,right,0.3045,,791.9239,792.7206,1,1,right,792.7218,793.6215,1,1,right,0,793.6215,793.6215,793.6222,795.1212,0,18,18,18,1,0.2,0.8,0.6,0.4,,,,,,,,,,,,,,,0.2723,,0.6,0.4,0.6,0.4,0.6,0.4,0.2,0.8,,,0.3661,,0.4,0.6,0.6,0.4,0.6,0.4,0.8,0.2,1,0
,,65ab079fde17d72bca5e774b,66fc98b6d85e6ef54d92dac1,2024-10-01_18h52.32.248,mdp,2024.2.1,Win32,60.24096386,66fa4ebf79326e780c390304,,,,,,,,,,,,,,,,,,,,,795.1219,795.1219,795.1243,795.7036,1,0,right,0.0541,,795.7059,796.4886,1,0,right,796.4905,797.2686,1,0,right,1,797.2687,797.2687,797.2701,798.7699,0,19,19,19,1,0.2,0.8,0.6,0.4,,,,,,,,,,,,,,,0.2626,,0.6,0.4,0.6,0.4,0.6,0.4,0.2,0.8,,,0.239,,0.4,0.6,0.6,0.4,0.4,0.6,0.2,0.8,1,0
,,65ab079fde17d72bca5e774b,66fc98b6d85e6ef54d92dac1,2024-10-01_18h52.32.248,mdp,2024.2.1,Win32,60.24096386,66fa4ebf79326e780c390304,,,,,,,,,,,,,,,,,,,,,798.7711,798.7711,798.7734,799.7364,1,0,right,0.4333,,799.7379,800.4849,1,0,right,800.4872,801.6201,0,1,left,0,801.6202,801.6203,801.6221,803.1156,0,20,20,20,1,0.2,0.8,0.6,0.4,,,,,,,,,,,,,,,0.2066,,0.6,0.4,0.6,0.4,0.6,0.4,0.2,0.8,,,0.6012,,0.4,0.6,0.6,0.4,0.4,0.6,0.2,0.8,1,0
,,65ab079fde17d72bca5e774b,66fc98b6d85e6ef54d92dac1,2024-10-01_18h52.32.248,mdp,2024.2.1,Win32,60.24096386,66fa4ebf79326e780c390304,,,,,,,,,,,,,,,,,,,,,803.1172,803.1173,803.1194,804.069,0,1,left,0.4344,,804.0711,804.8686,1,1,right,804.8706,805.8478,1,0,right,1,805.8478,805.8478,805.8486,807.3471,0,21,21,21,1,0.2,0.8,0.6,0.4,,,,,,,,,,,,,,,0.2673,,0.6,0.4,0.6,0.4,0.6,0.4,0.2,0.8,,,0.4424,,0.4,0.6,0.6,0.4,0.4,0.6,0.2,0.8,1,0
,,65ab079fde17d72bca5e774b,66fc98b6d85e6ef54d92dac1,2024-10-01_18h52.32.248,mdp,2024.2.1,Win32,60.24096386,66fa4ebf79326e780c390304,,,,,,,,,,,,,,,,,,,,,807.3482,807.3482,807.3503,807.9464,0,1,left,0.0737,,807.9478,808.7294,1,1,right,808.7302,809.6487,1,1,right,0,809.649,809.6491,809.6512,811.148,0,22,22,22,1,0.2,0.8,0.6,0.4,,,,,,,,,,,,,,,0.2546,,0.6,0.4,0.6,0.4,0.6,0.4,0.2,0.8,,,0.4142,,0.6,0.4,0.8,0.2,0.4,0.6,0.2,0.8,1,0
,,65ab079fde17d72bca5e774b,66fc98b6d85e6ef54d92dac1,2024-10-01_18h52.32.248,mdp,2024.2.1,Win32,60.24096386,66fa4ebf79326e780c390304,,,,,,,,,,,,,,,,,,,,,811.149,811.149,811.1505,812.047,0,1,left,0.3661,,812.048,812.9815,1,1,right,812.9822,813.8478,1,1,right,0,813.8479,813.8479,813.8499,815.3453,0,23,23,23,1,0.2,0.8,0.6,0.4,,,,,,,,,,,,,,,0.4033,,0.6,0.4,0.6,0.4,0.6,0.4,0.2,0.8,,,0.3477,,0.6,0.4,0.8,0.2,0.4,0.6,0.2,0.8,1,0
,,65ab079fde17d72bca5e774b,66fc98b6d85e6ef54d92dac1,2024-10-01_18h52.32.248,mdp,2024.2.1,Win32,60.24096386,66fa4ebf79326e780c390304,,,,,,,,,,,,,,,,,,,,,815.3457,815.3457,815.3464,816.2273,0,1,left,0.3662,,816.2296,817.096,0,0,left,817.0984,818.7956,0,0,left,1,818.7957,818.7958,818.7979,820.2935,0,24,24,24,1,0.2,0.8,0.6,0.4,,,,,,,,,,,,,,,0.3471,,0.6,0.4,0.6,0.4,0.6,0.4,0.2,0.8,,,1.1674,,0.6,0.4,0.8,0.2,0.4,0.6,0.2,0.8,1,0
,,65ab079fde17d72bca5e774b,66fc98b6d85e6ef54d92dac1,2024-10-01_18h52.32.248,mdp,2024.2.1,Win32,60.24096386,66fa4ebf79326e780c390304,,,,,,,,,,,,,,,,,,,,,820.2949,820.295,820.297,823.4932,0,0,left,2.6813,,823.4949,824.6085,0,0,left,824.6098,825.7559,0,1,left,0,825.7562,825.7562,825.7585,827.255,0,25,25,25,1,0.2,0.8,0.6,0.4,,,,,,,,,,,,,,,0.5828,,0.6,0.4,0.6,0.4,0.6,0.4,0.2,0.8,,,0.6065,,0.6,0.4,0.8,0.2,0.4,0.6,0.2,0.8,1,0
,,65ab079fde17d72bca5e774b,66fc98b6d85e6ef54d92dac1,2024-10-01_18h52.32.248,mdp,2024.2.1,Win32,60.24096386,66fa4ebf79326e780c390304,,,,,,,,,,,,,,,,,,,,,827.2567,827.2568,827.2589,829.8544,1,0,right,2.0539,,829.8569,831.4701,1,0,right,831.4723,832.7047,0,0,left,1,832.7048,832.7048,832.7061,834.2034,0,26,26,26,1,0.2,0.8,0.6,0.4,,,,,,,,,,,,,,,1.1072,,0.6,0.4,0.6,0.4,0.6,0.4,0.2,0.8,,,0.7119,,0.6,0.4,0.8,0.2,0.4,0.6,0.2,0.8,1,0
,,65ab079fde17d72bca5e774b,66fc98b6d85e6ef54d92dac1,2024-10-01_18h52.32.248,mdp,2024.2.1,Win32,60.24096386,66fa4ebf79326e780c390304,,,,,,,,,,,,,,,,,,,,,834.2037,834.2037,834.2043,838.7341,1,1,right,3.9991,,838.7368,840.1361,1,1,right,840.1382,841.7997,1,1,right,0,841.7998,841.7998,841.802,843.3005,0,27,27,27,1,0.2,0.8,0.6,0.4,,,,,,,,,,,,,,,0.8669,,0.6,0.4,0.6,0.4,0.6,0.4,0.2,0.8,,,1.1278,,0.4,0.6,0.6,0.4,0.4,0.6,0.2,0.8,1,0
,,65ab079fde17d72bca5e774b,66fc98b6d85e6ef54d92dac1,2024-10-01_18h52.32.248,mdp,2024.2.1,Win32,60.24096386,66fa4ebf79326e780c390304,,,,,,,,,,,,,,,,,,,,,843.3017,843.3017,843.3037,845.55,1,0,right,1.7306,,845.5518,847.2635,1,0,right,847.2661,848.6128,0,0,left,1,848.613,848.613,848.6156,850.112,0,28,28,28,1,0.2,0.8,0.6,0.4,,,,,,,,,,,,,,,1.172,,0.6,0.4,0.6,0.4,0.6,0.4,0.2,0.8,,,0.8056,,0.4,0.6,0.6,0.4,0.4,0.6,0.2,0.8,1,0
,,65ab079fde17d72bca5e774b,66fc98b6d85e6ef54d92dac1,2024-10-01_18h52.32.248,mdp,2024.2.1,Win32,60.24096386,66fa4ebf79326e780c390304,,,,,,,,,,,,,,,,,,,,,850.1131,850.1131,850.1143,854.8794,1,1,right,4.2595,,854.8813,856.8097,1,1,right,856.8115,857.8409,1,1,right,0,857.8413,857.8413,857.8423,859.3416,0,29,29,29,1,0.2,0.8,0.6,0.4,,,,,,,,,,,,,,,1.3861,,0.6,0.4,0.6,0.4,0.6,0.4,0.2,0.8,,,0.4834,,0.4,0.6,0.6,0.4,0.4,0.6,0.2,0.8,1,0
,,65ab079fde17d72bca5e774b,66fc98b6d85e6ef54d92dac1,2024-10-01_18h52.32.248,mdp,2024.2.1,Win32,60.24096386,66fa4ebf79326e780c390304,,,,,,,,,,,,,,,,,,,,,859.3426,859.3426,859.3449,864.4588,1,0,right,4.5825,,864.461,865.5411,1,0,right,865.5431,866.7045,1,0,right,1,866.7046,866.7046,866.7071,868.2052,0,30,30,30,1,0.2,0.8,0.6,0.4,,,,,,,,,,,,,,,0.55,,0.6,0.4,0.6,0.4,0.6,0.4,0.2,0.8,,,0.626,,0.4,0.6,0.6,0.4,0.4,0.6,0.2,0.8,1,0
,,65ab079fde17d72bca5e774b,66fc98b6d85e6ef54d92dac1,2024-10-01_18h52.32.248,mdp,2024.2.1,Win32,60.24096386,66fa4ebf79326e780c390304,,,,,,,,,,,,,,,,,,,,,868.2057,868.2057,868.2065,870.0727,1,0,right,1.3465,,870.0754,871.1033,1,0,right,871.1057,872.2697,0,1,left,0,872.2699,872.27,872.2715,873.767,0,31,31,31,1,0.2,0.8,0.6,0.4,,,,,,,,,,,,,,,0.4951,,0.6,0.4,0.6,0.4,0.6,0.4,0.2,0.8,,,0.6482,,0.6,0.4,0.2,0.8,0.4,0.6,0.2,0.8,1,0
,,65ab079fde17d72bca5e774b,66fc98b6d85e6ef54d92dac1,2024-10-01_18h52.32.248,mdp,2024.2.1,Win32,60.24096386,66fa4ebf79326e780c390304,,,,,,,,,,,,,,,,,,,,,873.7679,873.7679,873.7686,882.6141,1,0,right,8.3137,,882.6165,890.4628,1,0,right,890.465,892.362,0,1,left,0,892.3621,892.3621,892.3646,893.8636,0,32,32,32,1,0.2,0.8,0.6,0.4,,,,,,,,,,,,,,,7.3261,,0.6,0.4,0.6,0.4,0.6,0.4,0.2,0.8,,,1.3799,,0.6,0.4,0.2,0.8,0.4,0.6,0.2,0.8,1,0
,,65ab079fde17d72bca5e774b,66fc98b6d85e6ef54d92dac1,2024-10-01_18h52.32.248,mdp,2024.2.1,Win32,60.24096386,66fa4ebf79326e780c390304,,,,,,,,,,,,,,,,,,,,,893.8644,893.8644,893.866,897.0768,1,0,right,2.6952,,897.0786,905.8368,1,1,right,905.8377,907.8537,1,0,right,1,907.854,907.854,907.8564,909.352,0,33,33,33,1,0.2,0.8,0.6,0.4,,,,,,,,,,,,,,,8.2178,,0.6,0.4,0.6,0.4,0.6,0.4,0.2,0.8,,,1.4712,,0.6,0.4,0.2,0.8,0.2,0.8,0.6,0.4,1,0
,,65ab079fde17d72bca5e774b,66fc98b6d85e6ef54d92dac1,2024-10-01_18h52.32.248,mdp,2024.2.1,Win32,60.24096386,66fa4ebf79326e780c390304,,,,,,,,,,,,,,,,,,,,,909.3535,909.3535,909.3553,917.1169,1,0,right,7.243,,917.1186,918.2319,1,0,right,918.2346,919.3337,0,0,left,1,919.3338,919.3338,919.3356,920.8296,0,34,34,34,1,0.2,0.8,0.6,0.4,,,,,,,,,,,,,,,0.5856,,0.6,0.4,0.6,0.4,0.6,0.4,0.2,0.8,,,0.5664,,0.6,0.4,0.2,0.8,0.2,0.8,0.6,0.4,1,0
,,65ab079fde17d72bca5e774b,66fc98b6d85e6ef54d92dac1,2024-10-01_18h52.32.248,mdp,2024.2.1,Win32,60.24096386,66fa4ebf79326e780c390304,,,,,,,,,,,,,,,,,,,,,920.8312,920.8312,920.8335,922.645,1,0,right,1.2983,,922.6464,926.3481,1,0,right,926.3502,931.5269,1,1,right,0,931.5272,931.5272,931.5295,933.0253,0,35,35,35,1,0.2,0.8,0.6,0.4,,,,,,,,,,,,,,,3.1837,,0.6,0.4,0.6,0.4,0.6,0.4,0.2,0.8,,,4.6463,,0.6,0.4,0.2,0.8,0.2,0.8,0.6,0.4,1,0
,,65ab079fde17d72bca5e774b,66fc98b6d85e6ef54d92dac1,2024-10-01_18h52.32.248,mdp,2024.2.1,Win32,60.24096386,66fa4ebf79326e780c390304,,,,,,,,,,,,,,,,,,,,,933.0266,933.0266,933.0285,934.0395,1,0,right,0.5026,,934.0411,939.8063,1,0,right,939.8088,941.1072,0,0,left,1,941.1074,941.1074,941.1097,942.6044,0,36,36,36,1,0.8,0.2,0.4,0.6,,,,,,,,,,,,,,,5.2463,,0.6,0.4,0.6,0.4,0.6,0.4,0.2,0.8,,,0.7952,,0.6,0.4,0.2,0.8,0.2,0.8,0.6,0.4,1,0
,,65ab079fde17d72bca5e774b,66fc98b6d85e6ef54d92dac1,2024-10-01_18h52.32.248,mdp,2024.2.1,Win32,60.24096386,66fa4ebf79326e780c390304,,,,,,,,,,,,,,,,,,,,,942.6057,942.6057,942.6076,946.6672,1,0,right,3.5415,,946.6687,948.0879,1,0,right,948.0899,949.2692,0,0,left,1,949.2693,949.2693,949.2698,950.7664,0,37,37,37,1,0.8,0.2,0.4,0.6,,,,,,,,,,,,,,,0.8988,,0.6,0.4,0.6,0.4,0.6,0.4,0.2,0.8,,,0.6631,,0.6,0.4,0.2,0.8,0.2,0.8,0.6,0.4,1,0
,,65ab079fde17d72bca5e774b,66fc98b6d85e6ef54d92dac1,2024-10-01_18h52.32.248,mdp,2024.2.1,Win32,60.24096386,66fa4ebf79326e780c390304,,,,,,,,,,,,,,,,,,,,,950.7684,950.7685,950.7702,954.1002,1,0,right,2.8103,,954.1011,955.6183,1,1,right,955.6202,956.7827,1,0,right,1,956.7828,956.7828,956.785,958.2802,0,38,38,38,1,0.8,0.2,0.4,0.6,,,,,,,,,,,,,,,0.9838,,0.6,0.4,0.6,0.4,0.6,0.4,0.2,0.8,,,0.6324,,0.6,0.4,0.2,0.8,0.2,0.8,0.6,0.4,1,0
,,65ab079fde17d72bca5e774b,66fc98b6d85e6ef54d92dac1,2024-10-01_18h52.32.248,mdp,2024.2.1,Win32,60.24096386,66fa4ebf79326e780c390304,,,,,,,,,,,,,,,,,,,,,958.281,958.2811,958.2822,964.8804,1,0,right,6.0649,,964.8823,969.1258,1,0,right,969.1282,970.542,0,1,left,0,970.5422,970.5422,970.545,972.0406,0,39,39,39,1,0.8,0.2,0.4,0.6,,,,,,,,,,,,,,,3.7034,,0.6,0.4,0.6,0.4,0.6,0.4,0.2,0.8,,,0.8788,,0.6,0.4,0.2,0.8,0.2,0.8,0.6,0.4,1,0
,,65ab079fde17d72bca5e774b,66fc98b6d85e6ef54d92dac1,2024-10-01_18h52.32.248,mdp,2024.2.1,Win32,60.24096386,66fa4ebf79326e780c390304,,,,,,,,,,,,,,,,,,,,,972.0418,972.0418,972.0442,976.8921,1,1,right,4.3331,,976.8943,981.3218,1,1,right,981.3225,982.3734,1,0,right,1,982.3736,982.3736,982.3758,983.8691,0,40,40,40,1,0.8,0.2,0.4,0.6,,,,,,,,,,,,,,,3.8987,,0.6,0.4,0.6,0.4,0.6,0.4,0.2,0.8,,,0.5171,,0.6,0.4,0.2,0.8,0.2,0.8,0.6,0.4,1,0
,,65ab079fde17d72bca5e774b,66fc98b6d85e6ef54d92dac1,2024-10-01_18h52.32.248,mdp,2024.2.1,Win32,60.24096386,66fa4ebf79326e780c390304,,,,,,,,,,,,,,,,,,,,,983.8704,983.8704,983.8722,988.2003,1,1,right,3.8064,,988.2026,989.3199,1,1,right,989.3218,990.2363,1,1,right,0,990.2366,990.2367,990.2388,991.7316,0,41,41,41,1,0.8,0.2,0.4,0.6,,,,,,,,,,,,,,,0.596,,0.2,0.8,0.8,0.2,0.6,0.4,0.2,0.8,,,0.3978,,0.6,0.4,0.2,0.8,0.2,0.8,0.6,0.4,1,0
,,65ab079fde17d72bca5e774b,66fc98b6d85e6ef54d92dac1,2024-10-01_18h52.32.248,mdp,2024.2.1,Win32,60.24096386,66fa4ebf79326e780c390304,,,,,,,,,,,,,,,,,,,,,991.7335,991.7335,991.7358,996.8645,1,1,right,4.6276,,996.8653,1000.2623,1,0,right,1000.265,1001.7442,0,0,left,1,1001.7443,1001.7443,1001.7454,1003.2449,0,42,42,42,1,0.8,0.2,0.4,0.6,,,,,,,,,,,,,,,2.8695,,0.4,0.6,0.4,0.6,0.6,0.4,0.2,0.8,,,0.9419,,0.6,0.4,0.2,0.8,0.2,0.8,0.6,0.4,1,0
,,65ab079fde17d72bca5e774b,66fc98b6d85e6ef54d92dac1,2024-10-01_18h52.32.248,mdp,2024.2.1,Win32,60.24096386,66fa4ebf79326e780c390304,,,,,,,,,,,,,,,,,,,,,1003.2452,1003.2453,1003.2458,1009.009,1,1,right,5.2303,,1009.0097,1010.009,1,1,right,1010.0101,1011.125,1,0,right,1,1011.1251,1011.1251,1011.1261,1012.6248,0,43,43,43,1,0.8,0.2,0.4,0.6,,,,,,,,,,,,,,,0.4671,,0.4,0.6,0.4,0.6,0.6,0.4,0.2,0.8,,,0.5993,,0.6,0.4,0.2,0.8,0.2,0.8,0.6,0.4,1,0
,,65ab079fde17d72bca5e774b,66fc98b6d85e6ef54d92dac1,2024-10-01_18h52.32.248,mdp,2024.2.1,Win32,60.24096386,66fa4ebf79326e780c390304,,,,,,,,,,,,,,,,,,,,,1012.6256,1012.6257,1012.6276,1018.037,1,0,right,4.8694,,1018.0387,1019.52,1,1,right,1019.5223,1020.4539,1,1,right,0,1020.4539,1020.454,1020.4558,1021.9519,0,44,44,44,1,0.8,0.2,0.4,0.6,,,,,,,,,,,,,,,0.9383,,0.4,0.6,0.4,0.6,0.6,0.4,0.2,0.8,,,0.41,,0.6,0.4,0.2,0.8,0.2,0.8,0.6,0.4,1,0
,,65ab079fde17d72bca5e774b,66fc98b6d85e6ef54d92dac1,2024-10-01_18h52.32.248,mdp,2024.2.1,Win32,60.24096386,66fa4ebf79326e780c390304,,,,,,,,,,,,,,,,,,,,,1021.9535,1021.9536,1021.9555,1022.6553,1,1,right,0.1797,,1022.6578,1024.0706,0,0,left,1024.0726,1025.4167,0,1,left,0,1025.4168,1025.4168,1025.4177,1026.9148,0,45,45,45,1,0.8,0.2,0.4,0.6,,,,,,,,,,,,,,,0.8833,,0.4,0.6,0.4,0.6,0.6,0.4,0.2,0.8,,,0.8079,,0.6,0.4,0.2,0.8,0.2,0.8,0.6,0.4,1,0
,,65ab079fde17d72bca5e774b,66fc98b6d85e6ef54d92dac1,2024-10-01_18h52.32.248,mdp,2024.2.1,Win32,60.24096386,66fa4ebf79326e780c390304,,,,,,,,,,,,,,,,,,,,,1026.9164,1026.9164,1026.917,1028.1862,1,0,right,0.7511,,1028.1886,1029.3353,1,1,right,1029.3373,1030.431,1,1,right,0,1030.4312,1030.4313,1030.4345,1031.9316,0,46,46,46,1,0.8,0.2,0.4,0.6,,,,,,,,,,,,,,,0.6169,,0.4,0.6,0.4,0.6,0.6,0.4,0.2,0.8,,,0.5542,,0.6,0.4,0.2,0.8,0.2,0.8,0.6,0.4,1,0
,,65ab079fde17d72bca5e774b,66fc98b6d85e6ef54d92dac1,2024-10-01_18h52.32.248,mdp,2024.2.1,Win32,60.24096386,66fa4ebf79326e780c390304,,,,,,,,,,,,,,,,,,,,,1031.9326,1031.9326,1031.9346,1032.7979,1,0,right,0.3301,,1032.8,1033.8464,1,0,right,1033.8489,1035.0155,0,1,left,0,1035.0155,1035.0156,1035.0173,1036.5114,0,47,47,47,1,0.8,0.2,0.4,0.6,,,,,,,,,,,,,,,0.5262,,0.8,0.2,0.2,0.8,0.6,0.4,0.2,0.8,,,0.6331,,0.6,0.4,0.2,0.8,0.2,0.8,0.6,0.4,1,0
,,65ab079fde17d72bca5e774b,66fc98b6d85e6ef54d92dac1,2024-10-01_18h52.32.248,mdp,2024.2.1,Win32,60.24096386,66fa4ebf79326e780c390304,,,,,,,,,,,,,,,,,,,,,1036.513,1036.5131,1036.5148,1038.095,0,0,left,1.0351,,1038.0959,1039.2146,1,1,right,1039.2168,1040.3424,1,0,right,1,1040.3427,1040.3427,1040.344,1041.8424,0,48,48,48,1,0.8,0.2,0.4,0.6,,,,,,,,,,,,,,,0.5974,,0.8,0.2,0.2,0.8,0.4,0.6,0.4,0.6,,,0.5923,,0.6,0.4,0.2,0.8,0.2,0.8,0.6,0.4,1,0
,,65ab079fde17d72bca5e774b,66fc98b6d85e6ef54d92dac1,2024-10-01_18h52.32.248,mdp,2024.2.1,Win32,60.24096386,66fa4ebf79326e780c390304,,,,,,,,,,,,,,,,,,,,,1041.8435,1041.8435,1041.8444,1046.2611,1,1,right,3.8946,,1046.2634,1047.9106,1,0,right,1047.9129,1049.0914,0,1,left,0,1049.0915,1049.0915,1049.0921,1050.5911,0,49,49,49,1,0.8,0.2,0.4,0.6,,,,,,,,,,,,,,,1.1169,,0.8,0.2,0.2,0.8,0.4,0.6,0.4,0.6,,,0.649,,0.6,0.4,0.2,0.8,0.2,0.8,0.6,0.4,1,0
,,65ab079fde17d72bca5e774b,66fc98b6d85e6ef54d92dac1,2024-10-01_18h52.32.248,mdp,2024.2.1,Win32,60.24096386,66fa4ebf79326e780c390304,,,,,,,,,,,,,,,,,,,,,,,,,,,,,,,,,,,,,,,,,,,,,,,,,,,,,,,,1050.5915,1109.095,0,2,2,5,1,imgs/squirrel.png,imgs/goat.png,imgs/dog.png,imgs/bear.png,imgs/horse.png,,,,,,,,,,,,,,,,,,,,,,,,
,,65ab079fde17d72bca5e774b,66fc98b6d85e6ef54d92dac1,2024-10-01_18h52.32.248,mdp,2024.2.1,Win32,60.24096386,66fa4ebf79326e780c390304,,,,,,,,,,,,,,3,seqs/st3seq44.csv,1109.0963,1111.9122,space,2.2875,,1111.9291,1111.9291,1111.931,1114.9608,1,0,right,2.5063,,1114.9631,1116.2116,0,0,left,1116.2127,1117.6102,1,1,right,0,1117.6103,1117.6103,1117.6122,1119.1094,0,0,0,0,1,0.4,0.6,0.8,0.2,,,,,,,,,,,,,,,0.7156,,0.8,0.2,0.8,0.2,0.6,0.4,0.4,0.6,,,0.8745,,0.2,0.8,0.4,0.6,0.6,0.4,0.8,0.2,1,0
,,65ab079fde17d72bca5e774b,66fc98b6d85e6ef54d92dac1,2024-10-01_18h52.32.248,mdp,2024.2.1,Win32,60.24096386,66fa4ebf79326e780c390304,,,,,,,,,,,,,,,,,,,,,1119.1104,1119.1104,1119.112,1120.3427,1,1,right,0.7082,,1120.3453,1121.2277,1,0,right,1121.2297,1122.2755,1,0,right,1,1122.2758,1122.2759,1122.2777,1123.7747,0,1,1,1,1,0.4,0.6,0.8,0.2,,,,,,,,,,,,,,,0.3488,,0.8,0.2,0.8,0.2,0.6,0.4,0.4,0.6,,,0.5086,,0.2,0.8,0.4,0.6,0.6,0.4,0.8,0.2,1,0
,,65ab079fde17d72bca5e774b,66fc98b6d85e6ef54d92dac1,2024-10-01_18h52.32.248,mdp,2024.2.1,Win32,60.24096386,66fa4ebf79326e780c390304,,,,,,,,,,,,,,,,,,,,,1123.7761,1123.7761,1123.7779,1124.8057,0,1,left,0.4981,,1124.8068,1126.8749,1,0,right,1126.8767,1127.9731,1,1,right,0,1127.9732,1127.9732,1127.9742,1129.4701,0,2,2,2,1,0.4,0.6,0.8,0.2,,,,,,,,,,,,,,,1.5621,,0.8,0.2,0.8,0.2,0.6,0.4,0.4,0.6,,,0.5662,,0.2,0.8,0.4,0.6,0.6,0.4,0.8,0.2,1,0
,,65ab079fde17d72bca5e774b,66fc98b6d85e6ef54d92dac1,2024-10-01_18h52.32.248,mdp,2024.2.1,Win32,60.24096386,66fa4ebf79326e780c390304,,,,,,,,,,,,,,,,,,,,,1129.4712,1129.4712,1129.4729,1130.6873,0,1,left,0.6906,,1130.6897,1131.7728,0,0,left,1131.7747,1132.9023,1,1,right,0,1132.9027,1132.9027,1132.904,1134.4,0,3,3,3,1,0.4,0.6,0.8,0.2,,,,,,,,,,,,,,,0.551,,0.8,0.2,0.8,0.2,0.6,0.4,0.4,0.6,,,0.5996,,0.2,0.8,0.4,0.6,0.6,0.4,0.8,0.2,1,0
,,65ab079fde17d72bca5e774b,66fc98b6d85e6ef54d92dac1,2024-10-01_18h52.32.248,mdp,2024.2.1,Win32,60.24096386,66fa4ebf79326e780c390304,,,,,,,,,,,,,,,,,,,,,1134.4015,1134.4016,1134.4022,1135.1166,0,0,left,0.1788,,1135.1183,1135.9361,0,0,left,1135.9369,1137.3019,1,1,right,0,1137.3021,1137.3021,1137.3045,1138.7997,0,4,4,4,1,0.4,0.6,0.8,0.2,,,,,,,,,,,,,,,0.2831,,0.8,0.2,0.8,0.2,0.6,0.4,0.4,0.6,,,0.8435,,0.2,0.8,0.4,0.6,0.6,0.4,0.8,0.2,1,0
,,65ab079fde17d72bca5e774b,66fc98b6d85e6ef54d92dac1,2024-10-01_18h52.32.248,mdp,2024.2.1,Win32,60.24096386,66fa4ebf79326e780c390304,,,,,,,,,,,,,,,,,,,,,1138.8017,1138.8018,1138.804,1140.3495,0,1,left,1.0154,,1140.3516,1141.482,0,0,left,1141.4851,1142.5504,1,0,right,1,1142.5508,1142.5508,1142.5529,1144.0475,0,5,5,5,1,0.4,0.6,0.8,0.2,,,,,,,,,,,,,,,0.5903,,0.8,0.2,0.8,0.2,0.6,0.4,0.4,0.6,,,0.5611,,0.2,0.8,0.4,0.6,0.6,0.4,0.8,0.2,1,0
,,65ab079fde17d72bca5e774b,66fc98b6d85e6ef54d92dac1,2024-10-01_18h52.32.248,mdp,2024.2.1,Win32,60.24096386,66fa4ebf79326e780c390304,,,,,,,,,,,,,,,,,,,,,1144.0488,1144.0488,1144.0507,1147.5989,0,1,left,3.0277,,1147.6011,1148.7486,0,1,left,1148.7506,1150.2815,1,0,right,1,1150.2817,1150.2818,1150.2843,1151.7771,0,6,6,6,1,0.4,0.6,0.8,0.2,,,,,,,,,,,,,,,0.6295,,0.6,0.4,0.2,0.8,0.6,0.4,0.4,0.6,,,0.9983,,0.2,0.8,0.4,0.6,0.6,0.4,0.8,0.2,1,0
,,65ab079fde17d72bca5e774b,66fc98b6d85e6ef54d92dac1,2024-10-01_18h52.32.248,mdp,2024.2.1,Win32,60.24096386,66fa4ebf79326e780c390304,,,,,,,,,,,,,,,,,,,,,1151.7776,1151.7776,1151.7782,1152.894,1,1,right,0.5779,,1152.8959,1154.1918,0,1,left,1154.1934,1155.5794,1,0,right,1,1155.5795,1155.5795,1155.5813,1157.0753,0,7,7,7,1,0.4,0.6,0.8,0.2,,,,,,,,,,,,,,,0.7704,,0.6,0.4,0.2,0.8,0.6,0.4,0.4,0.6,,,0.8639,,0.2,0.8,0.4,0.6,0.6,0.4,0.8,0.2,1,0
,,65ab079fde17d72bca5e774b,66fc98b6d85e6ef54d92dac1,2024-10-01_18h52.32.248,mdp,2024.2.1,Win32,60.24096386,66fa4ebf79326e780c390304,,,,,,,,,,,,,,,,,,,,,1157.0768,1157.0768,1157.0787,1160.9738,0,0,left,3.3735,,1160.9765,1162.4431,0,0,left,1162.4451,1165.4063,1,1,right,0,1165.4063,1165.4063,1165.4069,1166.903,0,8,8,8,1,0.4,0.6,0.8,0.2,,,,,,,,,,,,,,,0.9334,,0.6,0.4,0.2,0.8,0.2,0.8,0.6,0.4,,,2.4316,,0.2,0.8,0.4,0.6,0.6,0.4,0.8,0.2,1,0
,,65ab079fde17d72bca5e774b,66fc98b6d85e6ef54d92dac1,2024-10-01_18h52.32.248,mdp,2024.2.1,Win32,60.24096386,66fa4ebf79326e780c390304,,,,,,,,,,,,,,,,,,,,,1166.9041,1166.9041,1166.9049,1174.1353,1,0,right,6.702,,1174.1373,1175.4328,1,1,right,1175.4342,1176.8368,1,0,right,1,1176.837,1176.837,1176.839,1178.3321,0,9,9,9,1,0.4,0.6,0.8,0.2,,,,,,,,,,,,,,,0.7669,,0.6,0.4,0.2,0.8,0.2,0.8,0.6,0.4,,,0.8677,,0.2,0.8,0.4,0.6,0.6,0.4,0.8,0.2,1,0
,,65ab079fde17d72bca5e774b,66fc98b6d85e6ef54d92dac1,2024-10-01_18h52.32.248,mdp,2024.2.1,Win32,60.24096386,66fa4ebf79326e780c390304,,,,,,,,,,,,,,,,,,,,,1178.3332,1178.3332,1178.3347,1179.1671,1,1,right,0.3079,,1179.1698,1180.0511,1,1,right,1180.0533,1181.0482,1,0,right,1,1181.0483,1181.0484,1181.0508,1182.5495,0,10,10,10,1,0.4,0.6,0.8,0.2,,,,,,,,,,,,,,,0.3503,,0.6,0.4,0.2,0.8,0.2,0.8,0.6,0.4,,,0.4595,,0.2,0.8,0.4,0.6,0.6,0.4,0.8,0.2,1,0
,,65ab079fde17d72bca5e774b,66fc98b6d85e6ef54d92dac1,2024-10-01_18h52.32.248,mdp,2024.2.1,Win32,60.24096386,66fa4ebf79326e780c390304,,,,,,,,,,,,,,,,,,,,,1182.5506,1182.5506,1182.5529,1183.4506,1,0,right,0.3679,,1183.4527,1184.8126,0,1,left,1184.8158,1186.328,1,0,right,1,1186.3283,1186.3283,1186.3295,1187.8308,0,11,11,11,1,0.4,0.6,0.8,0.2,,,,,,,,,,,,,,,0.8213,,0.6,0.4,0.2,0.8,0.2,0.8,0.6,0.4,,,0.9837,,0.2,0.8,0.4,0.6,0.6,0.4,0.8,0.2,1,0
,,65ab079fde17d72bca5e774b,66fc98b6d85e6ef54d92dac1,2024-10-01_18h52.32.248,mdp,2024.2.1,Win32,60.24096386,66fa4ebf79326e780c390304,,,,,,,,,,,,,,,,,,,,,1187.832,1187.832,1187.8344,1189.0949,1,1,right,0.7187,,1189.0974,1190.3805,0,1,left,1190.3826,1191.3465,1,0,right,1,1191.3467,1191.3467,1191.3487,1192.8415,0,12,12,12,1,0.4,0.6,0.8,0.2,,,,,,,,,,,,,,,0.7514,,0.6,0.4,0.2,0.8,0.2,0.8,0.6,0.4,,,0.434,,0.2,0.8,0.4,0.6,0.6,0.4,0.8,0.2,1,0
,,65ab079fde17d72bca5e774b,66fc98b6d85e6ef54d92dac1,2024-10-01_18h52.32.248,mdp,2024.2.1,Win32,60.24096386,66fa4ebf79326e780c390304,,,,,,,,,,,,,,,,,,,,,1192.8429,1192.8429,1192.8438,1193.9097,1,1,right,0.5339,,1193.912,1194.8113,0,1,left,1194.8136,1195.6948,1,0,right,1,1195.6949,1195.6951,1195.6974,1197.1917,0,13,13,13,1,0.4,0.6,0.8,0.2,,,,,,,,,,,,,,,0.3822,,0.6,0.4,0.2,0.8,0.2,0.8,0.6,0.4,,,0.3517,,0.2,0.8,0.4,0.6,0.6,0.4,0.8,0.2,1,0
,,65ab079fde17d72bca5e774b,66fc98b6d85e6ef54d92dac1,2024-10-01_18h52.32.248,mdp,2024.2.1,Win32,60.24096386,66fa4ebf79326e780c390304,,,,,,,,,,,,,,,,,,,,,1197.192,1197.192,1197.1927,1198.0237,1,1,right,0.2865,,1198.0244,1198.8267,0,1,left,1198.8291,1199.7083,1,0,right,1,1199.7085,1199.7085,1199.7103,1201.2057,0,14,14,14,1,0.4,0.6,0.8,0.2,,,,,,,,,,,,,,,0.2955,,0.6,0.4,0.2,0.8,0.2,0.8,0.6,0.4,,,0.3508,,0.2,0.8,0.4,0.6,0.6,0.4,0.8,0.2,1,0
,,65ab079fde17d72bca5e774b,66fc98b6d85e6ef54d92dac1,2024-10-01_18h52.32.248,mdp,2024.2.1,Win32,60.24096386,66fa4ebf79326e780c390304,,,,,,,,,,,,,,,,,,,,,1201.2067,1201.2068,1201.2087,1203.5734,1,0,right,1.8423,,1203.5759,1204.4247,0,0,left,1204.4273,1205.7575,1,1,right,0,1205.7578,1205.7578,1205.7604,1207.2543,0,15,15,15,1,0.4,0.6,0.8,0.2,,,,,,,,,,,,,,,0.3178,,0.6,0.4,0.2,0.8,0.2,0.8,0.6,0.4,,,0.8006,,0.2,0.8,0.4,0.6,0.8,0.2,0.2,0.8,1,0
,,65ab079fde17d72bca5e774b,66fc98b6d85e6ef54d92dac1,2024-10-01_18h52.32.248,mdp,2024.2.1,Win32,60.24096386,66fa4ebf79326e780c390304,,,,,,,,,,,,,,,,,,,,,1207.2546,1207.2546,1207.2555,1208.8057,1,0,right,1.0174,,1208.8088,1209.5883,0,0,left,1209.5905,1210.7686,0,1,left,0,1210.7687,1210.7689,1210.7706,1212.2675,0,16,16,16,1,0.4,0.6,0.8,0.2,,,,,,,,,,,,,,,0.2516,,0.6,0.4,0.2,0.8,0.2,0.8,0.6,0.4,,,0.6515,,0.2,0.8,0.4,0.6,0.8,0.2,0.2,0.8,1,0
,,65ab079fde17d72bca5e774b,66fc98b6d85e6ef54d92dac1,2024-10-01_18h52.32.248,mdp,2024.2.1,Win32,60.24096386,66fa4ebf79326e780c390304,,,,,,,,,,,,,,,,,,,,,1212.2684,1212.2685,1212.2703,1213.004,1,1,right,0.2151,,1213.0065,1213.7868,1,0,right,1213.7886,1214.7369,0,0,left,1,1214.737,1214.7371,1214.7387,1216.2351,0,17,17,17,1,0.4,0.6,0.8,0.2,,,,,,,,,,,,,,,0.2506,,0.6,0.4,0.2,0.8,0.2,0.8,0.6,0.4,,,0.4192,,0.2,0.8,0.4,0.6,0.8,0.2,0.2,0.8,1,0
,,65ab079fde17d72bca5e774b,66fc98b6d85e6ef54d92dac1,2024-10-01_18h52.32.248,mdp,2024.2.1,Win32,60.24096386,66fa4ebf79326e780c390304,,,,,,,,,,,,,,,,,,,,,1216.236,1216.2361,1216.2379,1217.252,1,0,right,0.4844,,1217.2544,1218.0496,1,1,right,1218.0501,1218.8976,0,0,left,1,1218.898,1218.8981,1218.9006,1220.3993,0,18,18,18,1,0.4,0.6,0.8,0.2,,,,,,,,,,,,,,,0.2658,,0.6,0.4,0.2,0.8,0.2,0.8,0.6,0.4,,,0.3074,,0.2,0.8,0.4,0.6,0.8,0.2,0.2,0.8,1,0
,,65ab079fde17d72bca5e774b,66fc98b6d85e6ef54d92dac1,2024-10-01_18h52.32.248,mdp,2024.2.1,Win32,60.24096386,66fa4ebf79326e780c390304,,,,,,,,,,,,,,,,,,,,,1220.4006,1220.4006,1220.4022,1221.6478,1,0,right,0.7311,,1221.6485,1222.3151,1,1,right,1222.3175,1223.1492,0,0,left,1,1223.1494,1223.1494,1223.1511,1224.6446,0,19,19,19,1,0.4,0.6,0.8,0.2,,,,,,,,,,,,,,,0.1456,,0.6,0.4,0.2,0.8,0.2,0.8,0.6,0.4,,,0.3019,,0.2,0.8,0.4,0.6,0.8,0.2,0.2,0.8,1,0
,,65ab079fde17d72bca5e774b,66fc98b6d85e6ef54d92dac1,2024-10-01_18h52.32.248,mdp,2024.2.1,Win32,60.24096386,66fa4ebf79326e780c390304,,,,,,,,,,,,,,,,,,,,,1224.6464,1224.6464,1224.6481,1225.4654,0,0,left,0.3128,,1225.4677,1226.3476,0,1,left,1226.3498,1227.3475,1,1,right,0,1227.3476,1227.3476,1227.3494,1228.8432,0,20,20,20,1,0.4,0.6,0.8,0.2,,,,,,,,,,,,,,,0.3518,,0.6,0.4,0.2,0.8,0.2,0.8,0.6,0.4,,,0.4677,,0.2,0.8,0.4,0.6,0.8,0.2,0.2,0.8,1,0
,,65ab079fde17d72bca5e774b,66fc98b6d85e6ef54d92dac1,2024-10-01_18h52.32.248,mdp,2024.2.1,Win32,60.24096386,66fa4ebf79326e780c390304,,,,,,,,,,,,,,,,,,,,,1228.8437,1228.8437,1228.8444,1229.6776,0,1,left,0.3002,,1229.6784,1230.3442,0,1,left,1230.3451,1231.2604,0,0,left,1,1231.2604,1231.2604,1231.2611,1232.7572,0,21,21,21,1,0.4,0.6,0.8,0.2,,,,,,,,,,,,,,,0.1334,,0.6,0.4,0.2,0.8,0.2,0.8,0.6,0.4,,,0.3834,,0.2,0.8,0.4,0.6,0.8,0.2,0.2,0.8,1,0
,,65ab079fde17d72bca5e774b,66fc98b6d85e6ef54d92dac1,2024-10-01_18h52.32.248,mdp,2024.2.1,Win32,60.24096386,66fa4ebf79326e780c390304,,,,,,,,,,,,,,,,,,,,,1232.7581,1232.7581,1232.7589,1233.5564,0,1,left,0.2534,,1233.5581,1234.3089,0,1,left,1234.3098,1235.1056,0,0,left,1,1235.1061,1235.1061,1235.1072,1236.6077,0,22,22,22,1,0.4,0.6,0.8,0.2,,,,,,,,,,,,,,,0.2472,,0.6,0.4,0.2,0.8,0.2,0.8,0.6,0.4,,,0.2669,,0.2,0.8,0.4,0.6,0.8,0.2,0.2,0.8,1,0
,,65ab079fde17d72bca5e774b,66fc98b6d85e6ef54d92dac1,2024-10-01_18h52.32.248,mdp,2024.2.1,Win32,60.24096386,66fa4ebf79326e780c390304,,,,,,,,,,,,,,,,,,,,,1236.608,1236.608,1236.6088,1237.8074,0,1,left,0.6668,,1237.8081,1238.8071,0,1,left,1238.808,1239.9396,0,0,left,1,1239.9397,1239.9397,1239.9405,1241.4358,0,23,23,23,1,0.4,0.6,0.8,0.2,,,,,,,,,,,,,,,0.4803,,0.6,0.4,0.2,0.8,0.2,0.8,0.6,0.4,,,0.6144,,0.2,0.8,0.4,0.6,0.8,0.2,0.2,0.8,1,0
,,65ab079fde17d72bca5e774b,66fc98b6d85e6ef54d92dac1,2024-10-01_18h52.32.248,mdp,2024.2.1,Win32,60.24096386,66fa4ebf79326e780c390304,,,,,,,,,,,,,,,,,,,,,1241.4373,1241.4373,1241.438,1242.57,0,0,left,0.604,,1242.5708,1243.5549,0,0,left,1243.5556,1244.5016,0,1,left,0,1244.5018,1244.5018,1244.5032,1246.0006,0,24,24,24,1,0.4,0.6,0.8,0.2,,,,,,,,,,,,,,,0.45,,0.6,0.4,0.2,0.8,0.2,0.8,0.6,0.4,,,0.41,,0.2,0.8,0.4,0.6,0.8,0.2,0.2,0.8,1,0
,,65ab079fde17d72bca5e774b,66fc98b6d85e6ef54d92dac1,2024-10-01_18h52.32.248,mdp,2024.2.1,Win32,60.24096386,66fa4ebf79326e780c390304,,,,,,,,,,,,,,,,,,,,,1246.0021,1246.0021,1246.0029,1246.9346,0,1,left,0.3934,,1246.9355,1247.8196,0,1,left,1247.8206,1248.8859,0,1,left,0,1248.8859,1248.8859,1248.8867,1250.3852,0,25,25,25,1,0.4,0.6,0.8,0.2,,,,,,,,,,,,,,,0.35,,0.6,0.4,0.2,0.8,0.2,0.8,0.6,0.4,,,0.5334,,0.2,0.8,0.4,0.6,0.8,0.2,0.2,0.8,1,0
,,65ab079fde17d72bca5e774b,66fc98b6d85e6ef54d92dac1,2024-10-01_18h52.32.248,mdp,2024.2.1,Win32,60.24096386,66fa4ebf79326e780c390304,,,,,,,,,,,,,,,,,,,,,1250.3857,1250.3857,1250.3865,1251.2982,0,0,left,0.3799,,1251.3001,1252.1179,0,1,left,1252.1187,1253.0497,1,1,right,0,1253.0497,1253.0497,1253.0504,1254.5495,0,26,26,26,1,0.4,0.6,0.8,0.2,,,,,,,,,,,,,,,0.2835,,0.4,0.6,0.4,0.6,0.2,0.8,0.6,0.4,,,0.4126,,0.2,0.8,0.4,0.6,0.8,0.2,0.2,0.8,1,0
,,65ab079fde17d72bca5e774b,66fc98b6d85e6ef54d92dac1,2024-10-01_18h52.32.248,mdp,2024.2.1,Win32,60.24096386,66fa4ebf79326e780c390304,,,,,,,,,,,,,,,,,,,,,1254.5499,1254.5499,1254.5505,1255.4805,0,0,left,0.4052,,1255.4818,1256.266,0,0,left,1256.2669,1257.113,0,1,left,0,1257.1135,1257.1135,1257.1144,1258.613,0,27,27,27,1,0.4,0.6,0.8,0.2,,,,,,,,,,,,,,,0.2657,,0.6,0.4,0.8,0.2,0.2,0.8,0.6,0.4,,,0.307,,0.2,0.8,0.4,0.6,0.8,0.2,0.2,0.8,1,0
,,65ab079fde17d72bca5e774b,66fc98b6d85e6ef54d92dac1,2024-10-01_18h52.32.248,mdp,2024.2.1,Win32,60.24096386,66fa4ebf79326e780c390304,,,,,,,,,,,,,,,,,,,,,1258.6133,1258.6133,1258.6141,1262.3779,1,0,right,3.2314,,1262.3788,1263.7934,0,0,left,1263.7947,1264.8092,1,0,right,1,1264.8095,1264.8097,1264.811,1266.3112,0,28,28,28,1,0.4,0.6,0.8,0.2,,,,,,,,,,,,,,,0.8875,,0.6,0.4,0.8,0.2,0.2,0.8,0.6,0.4,,,0.4689,,0.2,0.8,0.4,0.6,0.8,0.2,0.2,0.8,1,0
,,65ab079fde17d72bca5e774b,66fc98b6d85e6ef54d92dac1,2024-10-01_18h52.32.248,mdp,2024.2.1,Win32,60.24096386,66fa4ebf79326e780c390304,,,,,,,,,,,,,,,,,,,,,1266.3116,1266.3116,1266.3123,1271.4924,1,1,right,4.6481,,1271.4932,1272.3238,0,1,left,1272.3246,1273.4084,1,1,right,0,1273.4084,1273.4084,1273.4093,1274.9073,0,29,29,29,1,0.2,0.8,0.2,0.8,,,,,,,,,,,,,,,0.2882,,0.6,0.4,0.8,0.2,0.2,0.8,0.6,0.4,,,0.55,,0.2,0.8,0.4,0.6,0.8,0.2,0.2,0.8,1,0
,,65ab079fde17d72bca5e774b,66fc98b6d85e6ef54d92dac1,2024-10-01_18h52.32.248,mdp,2024.2.1,Win32,60.24096386,66fa4ebf79326e780c390304,,,,,,,,,,,,,,,,,,,,,1274.9076,1274.9076,1274.9084,1277.8048,1,1,right,2.3627,,1277.8055,1278.9904,1,0,right,1278.992,1280.5871,1,1,right,0,1280.5872,1280.5872,1280.5895,1282.0858,0,30,30,30,1,0.2,0.8,0.2,0.8,,,,,,,,,,,,,,,0.6502,,0.6,0.4,0.8,0.2,0.2,0.8,0.6,0.4,,,1.056,,0.2,0.8,0.4,0.6,0.8,0.2,0.2,0.8,1,0
,,65ab079fde17d72bca5e774b,66fc98b6d85e6ef54d92dac1,2024-10-01_18h52.32.248,mdp,2024.2.1,Win32,60.24096386,66fa4ebf79326e780c390304,,,,,,,,,,,,,,,,,,,,,1282.0872,1282.0873,1282.0889,1285.5199,1,1,right,2.8984,,1285.522,1289.2507,1,0,right,1289.2524,1290.7013,1,1,right,0,1290.7014,1290.7015,1290.7032,1292.1984,0,31,31,31,1,0.2,0.8,0.2,0.8,,,,,,,,,,,,,,,3.2009,,0.6,0.4,0.8,0.2,0.2,0.8,0.6,0.4,,,0.9165,,0.2,0.8,0.4,0.6,0.2,0.8,0.8,0.2,1,0
,,65ab079fde17d72bca5e774b,66fc98b6d85e6ef54d92dac1,2024-10-01_18h52.32.248,mdp,2024.2.1,Win32,60.24096386,66fa4ebf79326e780c390304,,,,,,,,,,,,,,,,,,,,,1292.1987,1292.1987,1292.1994,1293.4483,1,1,right,0.71,,1293.4502,1294.4135,1,0,right,1294.4145,1295.2802,0,1,left,0,1295.2803,1295.2803,1295.2814,1296.7821,0,32,32,32,1,0.2,0.8,0.2,0.8,,,,,,,,,,,,,,,0.4397,,0.6,0.4,0.8,0.2,0.2,0.8,0.6,0.4,,,0.3489,,0.2,0.8,0.4,0.6,0.2,0.8,0.8,0.2,1,0
,,65ab079fde17d72bca5e774b,66fc98b6d85e6ef54d92dac1,2024-10-01_18h52.32.248,mdp,2024.2.1,Win32,60.24096386,66fa4ebf79326e780c390304,,,,,,,,,,,,,,,,,,,,,1296.7835,1296.7835,1296.7852,1297.4469,0,1,left,0.1412,,1297.4484,1299.4986,0,1,left,1299.5006,1300.314,1,0,right,1,1300.3142,1300.3142,1300.3163,1301.8103,0,33,33,33,1,0.2,0.8,0.2,0.8,,,,,,,,,,,,,,,1.5178,,0.6,0.4,0.8,0.2,0.2,0.8,0.6,0.4,,,0.2833,,0.2,0.8,0.4,0.6,0.2,0.8,0.8,0.2,1,0
,,65ab079fde17d72bca5e774b,66fc98b6d85e6ef54d92dac1,2024-10-01_18h52.32.248,mdp,2024.2.1,Win32,60.24096386,66fa4ebf79326e780c390304,,,,,,,,,,,,,,,,,,,,,1301.8122,1301.8122,1301.8142,1302.7805,0,1,left,0.4494,,1302.7826,1303.5798,0,0,left,1303.5815,1304.5784,1,0,right,1,1304.5786,1304.5786,1304.5808,1306.075,0,34,34,34,1,0.2,0.8,0.2,0.8,,,,,,,,,,,,,,,0.2682,,0.6,0.4,0.8,0.2,0.2,0.8,0.6,0.4,,,0.4659,,0.2,0.8,0.4,0.6,0.2,0.8,0.8,0.2,1,0
,,65ab079fde17d72bca5e774b,66fc98b6d85e6ef54d92dac1,2024-10-01_18h52.32.248,mdp,2024.2.1,Win32,60.24096386,66fa4ebf79326e780c390304,,,,,,,,,,,,,,,,,,,,,1306.0763,1306.0763,1306.0785,1306.9923,0,1,left,0.4106,,1306.993,1307.775,0,0,left,1307.7778,1308.657,1,0,right,1,1308.6577,1308.6577,1308.6587,1310.1584,0,35,35,35,1,0.2,0.8,0.2,0.8,,,,,,,,,,,,,,,0.2442,,0.6,0.4,0.8,0.2,0.2,0.8,0.6,0.4,,,0.3338,,0.2,0.8,0.4,0.6,0.8,0.2,0.6,0.4,1,0
,,65ab079fde17d72bca5e774b,66fc98b6d85e6ef54d92dac1,2024-10-01_18h52.32.248,mdp,2024.2.1,Win32,60.24096386,66fa4ebf79326e780c390304,,,,,,,,,,,,,,,,,,,,,1310.1587,1310.1587,1310.1596,1311.1744,0,1,left,0.5006,,1311.1766,1312.1099,0,0,left,1312.1118,1312.974,1,1,right,0,1312.9741,1312.9742,1312.9761,1314.4723,0,36,36,36,1,0.2,0.8,0.2,0.8,,,,,,,,,,,,,,,0.4159,,0.6,0.4,0.8,0.2,0.2,0.8,0.6,0.4,,,0.3338,,0.2,0.8,0.4,0.6,0.8,0.2,0.6,0.4,1,0
,,65ab079fde17d72bca5e774b,66fc98b6d85e6ef54d92dac1,2024-10-01_18h52.32.248,mdp,2024.2.1,Win32,60.24096386,66fa4ebf79326e780c390304,,,,,,,,,,,,,,,,,,,,,1314.4735,1314.4735,1314.4752,1315.3555,0,0,left,0.3378,,1315.3576,1316.221,0,0,left,1316.224,1317.221,1,1,right,0,1317.2212,1317.2212,1317.2236,1318.7199,0,37,37,37,1,0.2,0.8,0.2,0.8,,,,,,,,,,,,,,,0.322,,0.6,0.4,0.8,0.2,0.2,0.8,0.6,0.4,,,0.4551,,0.2,0.8,0.4,0.6,0.8,0.2,0.6,0.4,1,0
,,65ab079fde17d72bca5e774b,66fc98b6d85e6ef54d92dac1,2024-10-01_18h52.32.248,mdp,2024.2.1,Win32,60.24096386,66fa4ebf79326e780c390304,,,,,,,,,,,,,,,,,,,,,1318.7212,1318.7212,1318.7235,1319.6359,0,1,left,0.3824,,1319.6367,1320.4192,1,0,right,1320.4208,1321.9056,1,0,right,1,1321.9058,1321.9058,1321.9077,1323.3993,0,38,38,38,1,0.2,0.8,0.2,0.8,,,,,,,,,,,,,,,0.2558,,0.6,0.4,0.8,0.2,0.2,0.8,0.6,0.4,,,0.9678,,0.2,0.8,0.4,0.6,0.2,0.8,0.8,0.2,1,0
,,65ab079fde17d72bca5e774b,66fc98b6d85e6ef54d92dac1,2024-10-01_18h52.32.248,mdp,2024.2.1,Win32,60.24096386,66fa4ebf79326e780c390304,,,,,,,,,,,,,,,,,,,,,1323.4007,1323.4007,1323.4016,1324.2858,0,1,left,0.3511,,1324.2874,1325.054,1,0,right,1325.0559,1325.9499,1,1,right,0,1325.95,1325.95,1325.9506,1327.4505,0,39,39,39,1,0.2,0.8,0.2,0.8,,,,,,,,,,,,,,,0.2633,,0.8,0.2,0.6,0.4,0.2,0.8,0.6,0.4,,,0.3749,,0.2,0.8,0.4,0.6,0.2,0.8,0.8,0.2,1,0
,,65ab079fde17d72bca5e774b,66fc98b6d85e6ef54d92dac1,2024-10-01_18h52.32.248,mdp,2024.2.1,Win32,60.24096386,66fa4ebf79326e780c390304,,,,,,,,,,,,,,,,,,,,,1327.451,1327.451,1327.4518,1329.1152,0,0,left,1.1337,,1329.116,1330.2343,1,0,right,1330.2362,1331.3975,1,1,right,0,1331.3979,1331.3979,1331.4005,1332.8997,0,40,40,40,1,0.2,0.8,0.2,0.8,,,,,,,,,,,,,,,0.5832,,0.8,0.2,0.6,0.4,0.2,0.8,0.6,0.4,,,0.6287,,0.2,0.8,0.4,0.6,0.2,0.8,0.8,0.2,1,0
,,65ab079fde17d72bca5e774b,66fc98b6d85e6ef54d92dac1,2024-10-01_18h52.32.248,mdp,2024.2.1,Win32,60.24096386,66fa4ebf79326e780c390304,,,,,,,,,,,,,,,,,,,,,1332.9005,1332.9007,1332.9029,1335.1995,0,0,left,1.7804,,1335.2016,1336.1156,1,1,right,1336.1173,1336.9467,1,0,right,1,1336.9467,1336.9467,1336.9475,1338.4447,0,41,41,41,1,0.2,0.8,0.2,0.8,,,,,,,,,,,,,,,0.3855,,0.8,0.2,0.6,0.4,0.2,0.8,0.6,0.4,,,0.3,,0.2,0.8,0.4,0.6,0.2,0.8,0.8,0.2,1,0
,,65ab079fde17d72bca5e774b,66fc98b6d85e6ef54d92dac1,2024-10-01_18h52.32.248,mdp,2024.2.1,Win32,60.24096386,66fa4ebf79326e780c390304,,,,,,,,,,,,,,,,,,,,,1338.4459,1338.4459,1338.4482,1340.994,0,1,left,2.0318,,1340.9965,1341.9454,0,0,left,1341.9466,1342.8086,1,0,right,1,1342.8089,1342.809,1342.8103,1344.3087,0,42,42,42,1,0.2,0.8,0.2,0.8,,,,,,,,,,,,,,,0.4169,,0.8,0.2,0.6,0.4,0.2,0.8,0.6,0.4,,,0.3244,,0.2,0.8,0.4,0.6,0.2,0.8,0.8,0.2,1,0
,,65ab079fde17d72bca5e774b,66fc98b6d85e6ef54d92dac1,2024-10-01_18h52.32.248,mdp,2024.2.1,Win32,60.24096386,66fa4ebf79326e780c390304,,,,,,,,,,,,,,,,,,,,,1344.31,1344.31,1344.3123,1348.1595,0,1,left,3.3295,,1348.1607,1349.1602,0,0,left,1349.1623,1349.9752,1,1,right,0,1349.9752,1349.9753,1349.976,1351.4719,0,43,43,43,1,0.2,0.8,0.2,0.8,,,,,,,,,,,,,,,0.4682,,0.8,0.2,0.6,0.4,0.6,0.4,0.2,0.8,,,0.2999,,0.2,0.8,0.4,0.6,0.2,0.8,0.8,0.2,1,0
,,65ab079fde17d72bca5e774b,66fc98b6d85e6ef54d92dac1,2024-10-01_18h52.32.248,mdp,2024.2.1,Win32,60.24096386,66fa4ebf79326e780c390304,,,,,,,,,,,,,,,,,,,,,1351.4736,1351.4736,1351.4758,1352.4413,0,1,left,0.4632,,1352.4437,1353.2918,0,0,left,1353.2939,1354.3888,0,0,left,1,1354.3889,1354.3889,1354.3894,1355.8856,0,44,44,44,1,0.2,0.8,0.2,0.8,,,,,,,,,,,,,,,0.3172,,0.8,0.2,0.6,0.4,0.6,0.4,0.2,0.8,,,0.5655,,0.2,0.8,0.4,0.6,0.2,0.8,0.8,0.2,1,0
,,65ab079fde17d72bca5e774b,66fc98b6d85e6ef54d92dac1,2024-10-01_18h52.32.248,mdp,2024.2.1,Win32,60.24096386,66fa4ebf79326e780c390304,,,,,,,,,,,,,,,,,,,,,1355.8867,1355.8867,1355.8873,1357.9226,0,0,left,1.5179,,1357.9249,1358.8199,0,0,left,1358.8208,1359.9216,1,0,right,1,1359.9219,1359.9219,1359.9242,1361.4176,0,45,45,45,1,0.2,0.8,0.2,0.8,,,,,,,,,,,,,,,0.3652,,0.8,0.2,0.6,0.4,0.6,0.4,0.2,0.8,,,0.5961,,0.2,0.8,0.4,0.6,0.2,0.8,0.8,0.2,1,0
,,65ab079fde17d72bca5e774b,66fc98b6d85e6ef54d92dac1,2024-10-01_18h52.32.248,mdp,2024.2.1,Win32,60.24096386,66fa4ebf79326e780c390304,,,,,,,,,,,,,,,,,,,,,1361.419,1361.419,1361.4211,1362.2668,1,1,right,0.3181,,1362.2692,1363.2167,0,0,left,1363.22,1364.0532,0,1,left,0,1364.0533,1364.0533,1364.0551,1365.5484,0,46,46,46,1,0.2,0.8,0.2,0.8,,,,,,,,,,,,,,,0.4082,,0.8,0.2,0.6,0.4,0.6,0.4,0.2,0.8,,,0.3145,,0.2,0.8,0.4,0.6,0.2,0.8,0.8,0.2,1,0
,,65ab079fde17d72bca5e774b,66fc98b6d85e6ef54d92dac1,2024-10-01_18h52.32.248,mdp,2024.2.1,Win32,60.24096386,66fa4ebf79326e780c390304,,,,,,,,,,,,,,,,,,,,,1365.5499,1365.5499,1365.5516,1366.0841,1,0,right,0.0005,,1366.0853,1367.6341,1,0,right,1367.6363,1369.7475,1,0,right,1,1369.7478,1369.7478,1369.7504,1371.2448,0,47,47,47,1,0.2,0.8,0.2,0.8,,,,,,,,,,,,,,,1.0164,,0.8,0.2,0.6,0.4,0.6,0.4,0.2,0.8,,,1.5724,,0.2,0.8,0.4,0.6,0.2,0.8,0.8,0.2,1,0
,,65ab079fde17d72bca5e774b,66fc98b6d85e6ef54d92dac1,2024-10-01_18h52.32.248,mdp,2024.2.1,Win32,60.24096386,66fa4ebf79326e780c390304,,,,,,,,,,,,,,,,,,,,,1371.2463,1371.2463,1371.247,1372.2962,0,0,left,0.5243,,1372.2986,1373.1322,1,1,right,1373.1341,1374.6481,1,0,right,1,1374.6482,1374.6482,1374.6502,1376.1444,0,48,48,48,1,0.2,0.8,0.2,0.8,,,,,,,,,,,,,,,0.3006,,0.8,0.2,0.6,0.4,0.6,0.4,0.2,0.8,,,0.9834,,0.2,0.8,0.4,0.6,0.2,0.8,0.8,0.2,1,0
,,65ab079fde17d72bca5e774b,66fc98b6d85e6ef54d92dac1,2024-10-01_18h52.32.248,mdp,2024.2.1,Win32,60.24096386,66fa4ebf79326e780c390304,,,,,,,,,,,,,,,,,,,,,1376.1456,1376.1456,1376.1476,1377.1274,0,0,left,0.4441,,1377.1307,1378.2101,1,0,right,1378.2133,1379.7784,1,1,right,0,1379.7785,1379.7785,1379.7795,1381.2738,0,49,49,49,1,0.2,0.8,0.2,0.8,,,,,,,,,,,,,,,0.5505,,0.8,0.2,0.6,0.4,0.6,0.4,0.2,0.8,,,1.0326,,0.2,0.8,0.4,0.6,0.2,0.8,0.8,0.2,1,0
,,65ab079fde17d72bca5e774b,66fc98b6d85e6ef54d92dac1,2024-10-01_18h52.32.248,mdp,2024.2.1,Win32,60.24096386,66fa4ebf79326e780c390304,,,,,,,,,,,,,,,,,,,,,,,,,,,,,,,,,,,,,,,,,,,,,,,,,,,,,,,,1381.2747,1439.7818,0,3,3,8,1,imgs/giraffe.png,imgs/bear.png,imgs/pig.png,imgs/horse.png,imgs/kangaroo.png,,,,,,,,,,,,,,,,,,,,,,,,
,,65ab079fde17d72bca5e774b,66fc98b6d85e6ef54d92dac1,2024-10-01_18h52.32.248,mdp,2024.2.1,Win32,60.24096386,66fa4ebf79326e780c390304,,,,,,,,,,,,,,1,seqs/st1seq39.csv,1439.7844,1443.8981,space,3.5811,,1443.9053,1443.9054,1443.907,1445.5137,1,0,right,1.0856,,1445.5167,1445.518,1,0,,1445.5192,1445.5203,1,0,,1,1445.5203,1445.5203,1445.5213,1447.013,0,0,0,0,1,0.2,0.8,0.8,0.2,1,0,,,,,,,,,,,,,,,,,,,,,,,,,,,,,,,,,,,,
,,65ab079fde17d72bca5e774b,66fc98b6d85e6ef54d92dac1,2024-10-01_18h52.32.248,mdp,2024.2.1,Win32,60.24096386,66fa4ebf79326e780c390304,,,,,,,,,,,,,,,,,,,,,1447.014,1447.0141,1447.0166,1447.946,1,0,right,0.4049,,1447.9489,1447.95,1,0,,1447.9513,1447.9522,1,0,,1,1447.9522,1447.9523,1447.9537,1449.4437,0,1,1,1,1,0.2,0.8,0.8,0.2,1,0,,,,,,,,,,,,,,,,,,,,,,,,,,,,,,,,,,,,
,,65ab079fde17d72bca5e774b,66fc98b6d85e6ef54d92dac1,2024-10-01_18h52.32.248,mdp,2024.2.1,Win32,60.24096386,66fa4ebf79326e780c390304,,,,,,,,,,,,,,,,,,,,,1449.444,1449.4441,1449.4459,1450.6936,1,1,right,0.7242,,1450.6954,1450.6959,1,0,,1450.6962,1450.6965,1,0,,0,1450.6965,1450.6965,1450.6968,1452.1937,0,2,2,2,1,0.2,0.8,0.8,0.2,1,0,,,,,,,,,,,,,,,,,,,,,,,,,,,,,,,,,,,,
,,65ab079fde17d72bca5e774b,66fc98b6d85e6ef54d92dac1,2024-10-01_18h52.32.248,mdp,2024.2.1,Win32,60.24096386,66fa4ebf79326e780c390304,,,,,,,,,,,,,,,,,,,,,1452.1944,1452.1944,1452.1968,1453.1764,1,0,right,0.4549,,1453.1795,1453.1806,1,0,,1453.1818,1453.1826,1,1,,1,1453.1827,1453.1827,1453.1838,1454.6761,0,3,3,3,1,0.2,0.8,0.8,0.2,1,0,,,,,,,,,,,,,,,,,,,,,,,,,,,,,,,,,,,,
,,65ab079fde17d72bca5e774b,66fc98b6d85e6ef54d92dac1,2024-10-01_18h52.32.248,mdp,2024.2.1,Win32,60.24096386,66fa4ebf79326e780c390304,,,,,,,,,,,,,,,,,,,,,1454.6769,1454.6769,1454.6798,1455.5758,0,1,left,0.3671,,1455.5786,1455.5795,1,1,,1455.5809,1455.5818,1,0,,0,1455.5819,1455.5819,1455.5829,1457.0749,0,4,4,4,1,0.4,0.6,0.6,0.4,1,0,,,,,,,,,,,,,,,,,,,,,,,,,,,,,,,,,,,,
,,65ab079fde17d72bca5e774b,66fc98b6d85e6ef54d92dac1,2024-10-01_18h52.32.248,mdp,2024.2.1,Win32,60.24096386,66fa4ebf79326e780c390304,,,,,,,,,,,,,,,,,,,,,1457.0759,1457.076,1457.078,1457.9087,0,1,left,0.3004,,1457.9118,1457.9131,1,1,,1457.9144,1457.9154,1,1,,0,1457.9155,1457.9155,1457.9165,1459.4076,0,5,5,5,1,0.4,0.6,0.6,0.4,1,0,,,,,,,,,,,,,,,,,,,,,,,,,,,,,,,,,,,,
,,65ab079fde17d72bca5e774b,66fc98b6d85e6ef54d92dac1,2024-10-01_18h52.32.248,mdp,2024.2.1,Win32,60.24096386,66fa4ebf79326e780c390304,,,,,,,,,,,,,,,,,,,,,1459.4088,1459.4088,1459.4111,1460.3243,0,1,left,0.3867,,1460.327,1460.3281,1,1,,1460.3294,1460.3303,1,0,,0,1460.3303,1460.3303,1460.331,1461.8221,0,6,6,6,1,0.6,0.4,0.8,0.2,1,0,,,,,,,,,,,,,,,,,,,,,,,,,,,,,,,,,,,,
,,65ab079fde17d72bca5e774b,66fc98b6d85e6ef54d92dac1,2024-10-01_18h52.32.248,mdp,2024.2.1,Win32,60.24096386,66fa4ebf79326e780c390304,,,,,,,,,,,,,,,,,,,,,1461.823,1461.823,1461.8253,1462.8231,1,0,right,0.466,,1462.8255,1462.8264,1,0,,1462.8275,1462.8284,1,1,,1,1462.8285,1462.8285,1462.8294,1464.3223,0,7,7,7,1,0.6,0.4,0.8,0.2,1,0,,,,,,,,,,,,,,,,,,,,,,,,,,,,,,,,,,,,
,,65ab079fde17d72bca5e774b,66fc98b6d85e6ef54d92dac1,2024-10-01_18h52.32.248,mdp,2024.2.1,Win32,60.24096386,66fa4ebf79326e780c390304,,,,,,,,,,,,,,,,,,,,,1464.3238,1464.3238,1464.3259,1465.4883,1,0,right,0.636,,1465.4908,1465.492,1,1,,1465.4934,1465.4948,1,0,,1,1465.4949,1465.4949,1465.496,1466.9871,0,8,8,8,1,0.4,0.6,0.6,0.4,1,0,,,,,,,,,,,,,,,,,,,,,,,,,,,,,,,,,,,,
,,65ab079fde17d72bca5e774b,66fc98b6d85e6ef54d92dac1,2024-10-01_18h52.32.248,mdp,2024.2.1,Win32,60.24096386,66fa4ebf79326e780c390304,,,,,,,,,,,,,,,,,,,,,1466.9878,1466.9879,1466.9905,1468.0692,1,1,right,0.5498,,1468.071,1468.0715,1,1,,1468.0719,1468.0723,1,0,,0,1468.0723,1468.0723,1468.0725,1469.5686,0,9,9,9,1,0.4,0.6,0.6,0.4,1,0,,,,,,,,,,,,,,,,,,,,,,,,,,,,,,,,,,,,
,,65ab079fde17d72bca5e774b,66fc98b6d85e6ef54d92dac1,2024-10-01_18h52.32.248,mdp,2024.2.1,Win32,60.24096386,66fa4ebf79326e780c390304,,,,,,,,,,,,,,,,,,,,,1469.5693,1469.5693,1469.5716,1470.4536,1,1,right,0.3512,,1470.4559,1470.4571,1,0,,1470.4586,1470.4596,1,0,,0,1470.4597,1470.4597,1470.4612,1471.9517,0,10,10,10,1,0.4,0.6,0.6,0.4,1,0,,,,,,,,,,,,,,,,,,,,,,,,,,,,,,,,,,,,
,,65ab079fde17d72bca5e774b,66fc98b6d85e6ef54d92dac1,2024-10-01_18h52.32.248,mdp,2024.2.1,Win32,60.24096386,66fa4ebf79326e780c390304,,,,,,,,,,,,,,,,,,,,,1471.9525,1471.9525,1471.9558,1472.8168,1,0,right,0.3348,,1472.8184,1472.8192,1,0,,1472.8196,1472.8199,1,0,,1,1472.8199,1472.8199,1472.8202,1474.3168,0,11,11,11,1,0.4,0.6,0.6,0.4,1,0,,,,,,,,,,,,,,,,,,,,,,,,,,,,,,,,,,,,
,,65ab079fde17d72bca5e774b,66fc98b6d85e6ef54d92dac1,2024-10-01_18h52.32.248,mdp,2024.2.1,Win32,60.24096386,66fa4ebf79326e780c390304,,,,,,,,,,,,,,,,,,,,,1474.3175,1474.3176,1474.3202,1475.4162,0,0,left,0.5677,,1475.4191,1475.4201,1,0,,1475.4215,1475.4226,1,0,,1,1475.4231,1475.4232,1475.4246,1476.9161,0,12,12,12,1,0.4,0.6,0.6,0.4,1,0,,,,,,,,,,,,,,,,,,,,,,,,,,,,,,,,,,,,
,,65ab079fde17d72bca5e774b,66fc98b6d85e6ef54d92dac1,2024-10-01_18h52.32.248,mdp,2024.2.1,Win32,60.24096386,66fa4ebf79326e780c390304,,,,,,,,,,,,,,,,,,,,,1476.9171,1476.9172,1476.9198,1477.8329,0,0,left,0.383,,1477.8359,1477.837,1,1,,1477.8384,1477.8394,1,0,,1,1477.8395,1477.8395,1477.8405,1479.3318,0,13,13,13,1,0.4,0.6,0.6,0.4,1,0,,,,,,,,,,,,,,,,,,,,,,,,,,,,,,,,,,,,
,,65ab079fde17d72bca5e774b,66fc98b6d85e6ef54d92dac1,2024-10-01_18h52.32.248,mdp,2024.2.1,Win32,60.24096386,66fa4ebf79326e780c390304,,,,,,,,,,,,,,,,,,,,,1479.3326,1479.3327,1479.3356,1480.1965,0,1,left,0.3348,,1480.1982,1480.1988,1,0,,1480.1993,1480.1997,1,0,,0,1480.1997,1480.1997,1480.2001,1481.6976,0,14,14,14,1,0.4,0.6,0.6,0.4,1,0,,,,,,,,,,,,,,,,,,,,,,,,,,,,,,,,,,,,
,,65ab079fde17d72bca5e774b,66fc98b6d85e6ef54d92dac1,2024-10-01_18h52.32.248,mdp,2024.2.1,Win32,60.24096386,66fa4ebf79326e780c390304,,,,,,,,,,,,,,,,,,,,,1481.6985,1481.6985,1481.7007,1482.2962,0,1,left,0.0677,,1482.298,1482.2984,1,1,,1482.2988,1482.2991,1,1,,0,1482.2991,1482.2991,1482.2994,1483.7948,0,15,15,15,1,0.4,0.6,0.6,0.4,1,0,,,,,,,,,,,,,,,,,,,,,,,,,,,,,,,,,,,,
,,65ab079fde17d72bca5e774b,66fc98b6d85e6ef54d92dac1,2024-10-01_18h52.32.248,mdp,2024.2.1,Win32,60.24096386,66fa4ebf79326e780c390304,,,,,,,,,,,,,,,,,,,,,1483.7951,1483.7951,1483.7971,1485.0631,0,0,left,0.7567,,1485.0656,1485.0664,1,1,,1485.0672,1485.0678,1,1,,1,1485.0678,1485.0678,1485.0684,1486.5622,0,16,16,16,1,0.4,0.6,0.6,0.4,1,0,,,,,,,,,,,,,,,,,,,,,,,,,,,,,,,,,,,,
,,65ab079fde17d72bca5e774b,66fc98b6d85e6ef54d92dac1,2024-10-01_18h52.32.248,mdp,2024.2.1,Win32,60.24096386,66fa4ebf79326e780c390304,,,,,,,,,,,,,,,,,,,,,1486.5638,1486.564,1486.5663,1487.6452,0,1,left,0.5505,,1487.6483,1487.6495,1,0,,1487.6509,1487.6518,1,1,,0,1487.6519,1487.652,1487.653,1489.1449,0,17,17,17,1,0.4,0.6,0.6,0.4,1,0,,,,,,,,,,,,,,,,,,,,,,,,,,,,,,,,,,,,
,,65ab079fde17d72bca5e774b,66fc98b6d85e6ef54d92dac1,2024-10-01_18h52.32.248,mdp,2024.2.1,Win32,60.24096386,66fa4ebf79326e780c390304,,,,,,,,,,,,,,,,,,,,,1489.1466,1489.1466,1489.1486,1489.9773,0,0,left,0.3013,,1489.98,1489.9811,1,1,,1489.9825,1489.9839,1,0,,1,1489.984,1489.984,1489.9852,1491.4766,0,18,18,18,1,0.4,0.6,0.6,0.4,1,0,,,,,,,,,,,,,,,,,,,,,,,,,,,,,,,,,,,,
,,65ab079fde17d72bca5e774b,66fc98b6d85e6ef54d92dac1,2024-10-01_18h52.32.248,mdp,2024.2.1,Win32,60.24096386,66fa4ebf79326e780c390304,,,,,,,,,,,,,,,,,,,,,1491.4773,1491.4773,1491.48,1494.3587,0,1,left,2.3514,,1494.3616,1494.3632,1,0,,1494.365,1494.366,1,0,,0,1494.3661,1494.3661,1494.3671,1495.858,0,19,19,19,1,0.4,0.6,0.6,0.4,1,0,,,,,,,,,,,,,,,,,,,,,,,,,,,,,,,,,,,,
,,65ab079fde17d72bca5e774b,66fc98b6d85e6ef54d92dac1,2024-10-01_18h52.32.248,mdp,2024.2.1,Win32,60.24096386,66fa4ebf79326e780c390304,,,,,,,,,,,,,,,,,,,,,1495.859,1495.859,1495.8616,1497.2075,0,0,left,0.8267,,1497.2105,1497.2116,1,0,,1497.213,1497.214,1,1,,1,1497.2141,1497.2141,1497.2151,1498.7055,0,20,20,20,1,0.6,0.4,0.4,0.6,1,0,,,,,,,,,,,,,,,,,,,,,,,,,,,,,,,,,,,,
,,65ab079fde17d72bca5e774b,66fc98b6d85e6ef54d92dac1,2024-10-01_18h52.32.248,mdp,2024.2.1,Win32,60.24096386,66fa4ebf79326e780c390304,,,,,,,,,,,,,,,,,,,,,1498.7059,1498.7059,1498.7078,1499.2395,0,1,left,0.0004,,1499.2419,1499.2428,1,1,,1499.244,1499.2449,1,1,,0,1499.245,1499.245,1499.2459,1500.7389,0,21,21,21,1,0.4,0.6,0.6,0.4,1,0,,,,,,,,,,,,,,,,,,,,,,,,,,,,,,,,,,,,
,,65ab079fde17d72bca5e774b,66fc98b6d85e6ef54d92dac1,2024-10-01_18h52.32.248,mdp,2024.2.1,Win32,60.24096386,66fa4ebf79326e780c390304,,,,,,,,,,,,,,,,,,,,,1500.7405,1500.7406,1500.7426,1503.8548,0,1,left,2.5898,,1503.8573,1503.8582,1,1,,1503.8595,1503.8606,1,1,,0,1503.8606,1503.8606,1503.8616,1505.3535,0,22,22,22,1,0.4,0.6,0.6,0.4,1,0,,,,,,,,,,,,,,,,,,,,,,,,,,,,,,,,,,,,
,,65ab079fde17d72bca5e774b,66fc98b6d85e6ef54d92dac1,2024-10-01_18h52.32.248,mdp,2024.2.1,Win32,60.24096386,66fa4ebf79326e780c390304,,,,,,,,,,,,,,,,,,,,,1505.3544,1505.3545,1505.3564,1506.2867,0,1,left,0.4103,,1506.2898,1506.291,1,0,,1506.2924,1506.2935,1,1,,0,1506.2936,1506.2936,1506.2948,1507.7851,0,23,23,23,1,0.4,0.6,0.6,0.4,1,0,,,,,,,,,,,,,,,,,,,,,,,,,,,,,,,,,,,,
,,65ab079fde17d72bca5e774b,66fc98b6d85e6ef54d92dac1,2024-10-01_18h52.32.248,mdp,2024.2.1,Win32,60.24096386,66fa4ebf79326e780c390304,,,,,,,,,,,,,,,,,,,,,1507.7861,1507.7861,1507.7888,1512.3499,0,0,left,4.037,,1512.3533,1512.3544,1,1,,1512.3555,1512.3563,1,0,,1,1512.3563,1512.3563,1512.3572,1513.8493,0,24,24,24,1,0.4,0.6,0.6,0.4,1,0,,,,,,,,,,,,,,,,,,,,,,,,,,,,,,,,,,,,
,,65ab079fde17d72bca5e774b,66fc98b6d85e6ef54d92dac1,2024-10-01_18h52.32.248,mdp,2024.2.1,Win32,60.24096386,66fa4ebf79326e780c390304,,,,,,,,,,,,,,,,,,,,,1513.8502,1513.8503,1513.8528,1514.6329,1,1,right,0.2541,,1514.6361,1514.6371,1,0,,1514.6385,1514.6395,1,0,,0,1514.6396,1514.6396,1514.6407,1516.1326,0,25,25,25,1,0.6,0.4,0.8,0.2,1,0,,,,,,,,,,,,,,,,,,,,,,,,,,,,,,,,,,,,
,,65ab079fde17d72bca5e774b,66fc98b6d85e6ef54d92dac1,2024-10-01_18h52.32.248,mdp,2024.2.1,Win32,60.24096386,66fa4ebf79326e780c390304,,,,,,,,,,,,,,,,,,,,,1516.1337,1516.1337,1516.1357,1520.7807,1,0,right,4.1255,,1520.7839,1520.7853,1,0,,1520.7866,1520.7876,1,0,,1,1520.7876,1520.7876,1520.7887,1522.2798,0,26,26,26,1,0.6,0.4,0.8,0.2,1,0,,,,,,,,,,,,,,,,,,,,,,,,,,,,,,,,,,,,
,,65ab079fde17d72bca5e774b,66fc98b6d85e6ef54d92dac1,2024-10-01_18h52.32.248,mdp,2024.2.1,Win32,60.24096386,66fa4ebf79326e780c390304,,,,,,,,,,,,,,,,,,,,,1522.2808,1522.2809,1522.2833,1525.045,1,0,right,2.2432,,1525.048,1525.049,1,0,,1525.0505,1525.0514,1,0,,1,1525.0515,1525.0515,1525.0525,1526.5447,0,27,27,27,1,0.6,0.4,0.8,0.2,1,0,,,,,,,,,,,,,,,,,,,,,,,,,,,,,,,,,,,,
,,65ab079fde17d72bca5e774b,66fc98b6d85e6ef54d92dac1,2024-10-01_18h52.32.248,mdp,2024.2.1,Win32,60.24096386,66fa4ebf79326e780c390304,,,,,,,,,,,,,,,,,,,,,1526.5458,1526.5458,1526.5477,1528.877,1,0,right,1.8092,,1528.88,1528.8814,1,0,,1528.8828,1528.8846,1,1,,1,1528.8846,1528.8846,1528.8856,1530.3753,0,28,28,28,1,0.6,0.4,0.8,0.2,1,0,,,,,,,,,,,,,,,,,,,,,,,,,,,,,,,,,,,,
,,65ab079fde17d72bca5e774b,66fc98b6d85e6ef54d92dac1,2024-10-01_18h52.32.248,mdp,2024.2.1,Win32,60.24096386,66fa4ebf79326e780c390304,,,,,,,,,,,,,,,,,,,,,1530.377,1530.3771,1530.3797,1531.3087,1,0,right,0.4031,,1531.3117,1531.3127,1,0,,1531.314,1531.3148,1,0,,1,1531.315,1531.315,1531.3159,1532.8076,0,29,29,29,1,0.6,0.4,0.8,0.2,1,0,,,,,,,,,,,,,,,,,,,,,,,,,,,,,,,,,,,,
,,65ab079fde17d72bca5e774b,66fc98b6d85e6ef54d92dac1,2024-10-01_18h52.32.248,mdp,2024.2.1,Win32,60.24096386,66fa4ebf79326e780c390304,,,,,,,,,,,,,,,,,,,,,1532.8085,1532.8085,1532.8116,1533.9407,1,0,right,0.6005,,1533.9441,1533.9452,1,0,,1533.9464,1533.9472,1,0,,1,1533.9473,1533.9474,1533.9483,1535.4401,0,30,30,30,1,0.6,0.4,0.8,0.2,1,0,,,,,,,,,,,,,,,,,,,,,,,,,,,,,,,,,,,,
,,65ab079fde17d72bca5e774b,66fc98b6d85e6ef54d92dac1,2024-10-01_18h52.32.248,mdp,2024.2.1,Win32,60.24096386,66fa4ebf79326e780c390304,,,,,,,,,,,,,,,,,,,,,1535.4416,1535.4417,1535.4445,1536.6899,1,1,right,0.7172,,1536.6927,1536.6944,1,1,,1536.696,1536.6972,1,0,,0,1536.6972,1536.6972,1536.6983,1538.1895,0,31,31,31,1,0.8,0.2,0.4,0.6,1,0,,,,,,,,,,,,,,,,,,,,,,,,,,,,,,,,,,,,
,,65ab079fde17d72bca5e774b,66fc98b6d85e6ef54d92dac1,2024-10-01_18h52.32.248,mdp,2024.2.1,Win32,60.24096386,66fa4ebf79326e780c390304,,,,,,,,,,,,,,,,,,,,,1538.1908,1538.1909,1538.1927,1542.3022,1,0,right,3.5797,,1542.3041,1542.3047,1,1,,1542.3052,1542.3056,1,1,,1,1542.3056,1542.3056,1542.3059,1543.8019,0,32,32,32,1,0.8,0.2,0.4,0.6,1,0,,,,,,,,,,,,,,,,,,,,,,,,,,,,,,,,,,,,
,,65ab079fde17d72bca5e774b,66fc98b6d85e6ef54d92dac1,2024-10-01_18h52.32.248,mdp,2024.2.1,Win32,60.24096386,66fa4ebf79326e780c390304,,,,,,,,,,,,,,,,,,,,,1543.8035,1543.8035,1543.8041,1545.1181,1,1,right,0.791,,1545.1198,1545.1205,1,1,,1545.1209,1545.1212,1,0,,0,1545.1213,1545.1213,1545.1215,1546.6168,0,33,33,33,1,0.8,0.2,0.4,0.6,1,0,,,,,,,,,,,,,,,,,,,,,,,,,,,,,,,,,,,,
,,65ab079fde17d72bca5e774b,66fc98b6d85e6ef54d92dac1,2024-10-01_18h52.32.248,mdp,2024.2.1,Win32,60.24096386,66fa4ebf79326e780c390304,,,,,,,,,,,,,,,,,,,,,1546.6171,1546.6171,1546.619,1548.2,1,0,right,1.0704,,1548.202,1548.2025,1,1,,1548.2031,1548.2036,1,0,,1,1548.2036,1548.2036,1548.2042,1549.7005,0,34,34,34,1,0.6,0.4,0.8,0.2,1,0,,,,,,,,,,,,,,,,,,,,,,,,,,,,,,,,,,,,
,,65ab079fde17d72bca5e774b,66fc98b6d85e6ef54d92dac1,2024-10-01_18h52.32.248,mdp,2024.2.1,Win32,60.24096386,66fa4ebf79326e780c390304,,,,,,,,,,,,,,,,,,,,,1549.7015,1549.7016,1549.7043,1551.3159,1,0,right,1.0921,,1551.3187,1551.3197,1,1,,1551.3209,1551.3217,1,0,,1,1551.3218,1551.3218,1551.3229,1552.8158,0,35,35,35,1,0.6,0.4,0.8,0.2,1,0,,,,,,,,,,,,,,,,,,,,,,,,,,,,,,,,,,,,
,,65ab079fde17d72bca5e774b,66fc98b6d85e6ef54d92dac1,2024-10-01_18h52.32.248,mdp,2024.2.1,Win32,60.24096386,66fa4ebf79326e780c390304,,,,,,,,,,,,,,,,,,,,,1552.8166,1552.8166,1552.819,1555.1154,1,0,right,1.7668,,1555.118,1555.119,1,0,,1555.1206,1555.1216,1,0,,1,1555.1218,1555.1218,1555.1229,1556.6145,0,36,36,36,1,0.6,0.4,0.8,0.2,1,0,,,,,,,,,,,,,,,,,,,,,,,,,,,,,,,,,,,,
,,65ab079fde17d72bca5e774b,66fc98b6d85e6ef54d92dac1,2024-10-01_18h52.32.248,mdp,2024.2.1,Win32,60.24096386,66fa4ebf79326e780c390304,,,,,,,,,,,,,,,,,,,,,1556.6154,1556.6155,1556.6179,1557.5636,1,0,right,0.4271,,1557.5655,1557.5662,1,0,,1557.567,1557.5675,1,0,,1,1557.5676,1557.5676,1557.5681,1559.0629,0,37,37,37,1,0.6,0.4,0.8,0.2,1,0,,,,,,,,,,,,,,,,,,,,,,,,,,,,,,,,,,,,
,,65ab079fde17d72bca5e774b,66fc98b6d85e6ef54d92dac1,2024-10-01_18h52.32.248,mdp,2024.2.1,Win32,60.24096386,66fa4ebf79326e780c390304,,,,,,,,,,,,,,,,,,,,,1559.0642,1559.0642,1559.0666,1560.429,1,0,right,0.8409,,1560.4321,1560.4334,1,0,,1560.4346,1560.4355,1,0,,1,1560.4355,1560.4355,1560.4365,1561.9281,0,38,38,38,1,0.6,0.4,0.8,0.2,1,0,,,,,,,,,,,,,,,,,,,,,,,,,,,,,,,,,,,,
,,65ab079fde17d72bca5e774b,66fc98b6d85e6ef54d92dac1,2024-10-01_18h52.32.248,mdp,2024.2.1,Win32,60.24096386,66fa4ebf79326e780c390304,,,,,,,,,,,,,,,,,,,,,1561.929,1561.929,1561.9315,1565.2615,1,0,right,2.8116,,1565.264,1565.2651,1,0,,1565.2664,1565.2673,1,0,,1,1565.2675,1565.2675,1565.2685,1566.7598,0,39,39,39,1,0.6,0.4,0.8,0.2,1,0,,,,,,,,,,,,,,,,,,,,,,,,,,,,,,,,,,,,
