init_exp.started,init_exp.stopped,participant,session,date,expName,psychopyVersion,OS,frameRate,study_id,disp_instruction.started,disp_instruction.stopped,instruction.thisRepN,instruction.thisTrialN,instruction.thisN,instruction.thisIndex,instruction.ran,instimg_path,consent.started,consent.stopped,key_resp_3.keys,key_resp_3.rt,key_resp_3.duration,n_steps,sequence_path,init_block.started,init_block.stopped,key_resp.keys,key_resp.rt,key_resp.duration,init_trials.started,init_trials.stopped,step0.started,step0.stopped,act0,s1,res0.keys,res0.rt,res0.duration,step1.started,step1.stopped,act1,s2,res1.keys,step2.started,step2.stopped,act2,s3,res2.keys,rew,reward_comp.started,reward_comp.stopped,reward_disp.started,reward_disp.stopped,trials.thisRepN,trials.thisTrialN,trials.thisN,trials.thisIndex,trials.ran,s00a0s10,s00a0s11,s00a1s10,s00a1s11,rew10,rew11,break_block.started,break_block.stopped,block.thisRepN,block.thisTrialN,block.thisN,block.thisIndex,block.ran,s00path,s10path,s11path,s20path,s21path,res1.rt,res1.duration,s10a0s20,s10a0s21,s10a1s20,s10a1s21,s11a0s20,s11a0s21,s11a1s20,s11a1s21,rew20,rew21,res2.rt,res2.duration,s20a0s30,s20a0s31,s20a1s30,s20a1s31,s21a0s30,s21a0s31,s21a1s30,s21a1s31,rew30,rew31
9.99999E-05,0.001,65b84104763d1e7cd0d60507,66fc983ae56cb38035f3b1ae,2024-10-02_10h56.14.148,mdp,2024.2.1,Win32,60.24096386,66fa4ebf79326e780c390304,,,,,,,,,,,,,,,,,,,,,,,,,,,,,,,,,,,,,,,,,,,,,,,,,,,,,,,,,,,,,,,,,,,,,,,,,,,,,,,,,,,,,,,,,,,
,,65b84104763d1e7cd0d60507,66fc983ae56cb38035f3b1ae,2024-10-02_10h56.14.148,mdp,2024.2.1,Win32,60.24096386,66fa4ebf79326e780c390304,0.0048,19.0209,0,0,0,0,1,rlnn_exp/rlnn_exp.001.png,,,,,,,,,,,,,,,,,,,,,,,,,,,,,,,,,,,,,,,,,,,,,,,,,,,,,,,,,,,,,,,,,,,,,,,,,,,,,,,,,,,
,,65b84104763d1e7cd0d60507,66fc983ae56cb38035f3b1ae,2024-10-02_10h56.14.148,mdp,2024.2.1,Win32,60.24096386,66fa4ebf79326e780c390304,19.0217,29.8035,0,1,1,1,1,rlnn_exp/rlnn_exp.002.png,,,,,,,,,,,,,,,,,,,,,,,,,,,,,,,,,,,,,,,,,,,,,,,,,,,,,,,,,,,,,,,,,,,,,,,,,,,,,,,,,,,
,,65b84104763d1e7cd0d60507,66fc983ae56cb38035f3b1ae,2024-10-02_10h56.14.148,mdp,2024.2.1,Win32,60.24096386,66fa4ebf79326e780c390304,29.8111,64.5878,0,2,2,2,1,rlnn_exp/rlnn_exp.003.png,,,,,,,,,,,,,,,,,,,,,,,,,,,,,,,,,,,,,,,,,,,,,,,,,,,,,,,,,,,,,,,,,,,,,,,,,,,,,,,,,,,
,,65b84104763d1e7cd0d60507,66fc983ae56cb38035f3b1ae,2024-10-02_10h56.14.148,mdp,2024.2.1,Win32,60.24096386,66fa4ebf79326e780c390304,64.5947,78.3714,0,3,3,3,1,rlnn_exp/rlnn_exp.004.png,,,,,,,,,,,,,,,,,,,,,,,,,,,,,,,,,,,,,,,,,,,,,,,,,,,,,,,,,,,,,,,,,,,,,,,,,,,,,,,,,,,
,,65b84104763d1e7cd0d60507,66fc983ae56cb38035f3b1ae,2024-10-02_10h56.14.148,mdp,2024.2.1,Win32,60.24096386,66fa4ebf79326e780c390304,,,,,,,,,78.378,95.8389,y,7.434,,,,,,,,,,,,,,,,,,,,,,,,,,,,,,,,,,,,,,,,,,,,,,,,,,,,,,,,,,,,,,,,,,,,,,,,,,,,,,,
,,65b84104763d1e7cd0d60507,66fc983ae56cb38035f3b1ae,2024-10-02_10h56.14.148,mdp,2024.2.1,Win32,60.24096386,66fa4ebf79326e780c390304,,,,,,,,,,,,,,1,seqs/st1seq36.csv,95.8482,112.3062,space,15.9342,,112.3154,112.3154,112.3157,115.8389,0,1,left,3.0081,,115.8394,115.8412,,1,,115.8415,115.8428,,1,,0,115.8428,115.8429,115.8433,117.3393,0,0,0,0,1,0.6,0.4,0.4,0.6,1,0,,,,,,,,,,,,,,,,,,,,,,,,,,,,,,,,,,,,
,,65b84104763d1e7cd0d60507,66fc983ae56cb38035f3b1ae,2024-10-02_10h56.14.148,mdp,2024.2.1,Win32,60.24096386,66fa4ebf79326e780c390304,,,,,,,,,,,,,,,,,,,,,117.3398,117.3398,117.3407,118.8722,1,0,right,1.008,,118.8731,118.8737,,1,,118.8744,118.8748,,0,,1,118.8748,118.8748,118.8752,120.372,0,1,1,1,1,0.6,0.4,0.4,0.6,1,0,,,,,,,,,,,,,,,,,,,,,,,,,,,,,,,,,,,,
,,65b84104763d1e7cd0d60507,66fc983ae56cb38035f3b1ae,2024-10-02_10h56.14.148,mdp,2024.2.1,Win32,60.24096386,66fa4ebf79326e780c390304,,,,,,,,,,,,,,,,,,,,,120.3723,120.3723,120.3735,125.5893,1,0,right,4.6878,,125.5972,125.598,,0,,125.5985,125.599,,1,,1,125.5991,125.5991,125.5993,127.0889,0,2,2,2,1,0.4,0.6,0.8,0.2,1,0,,,,,,,,,,,,,,,,,,,,,,,,,,,,,,,,,,,,
,,65b84104763d1e7cd0d60507,66fc983ae56cb38035f3b1ae,2024-10-02_10h56.14.148,mdp,2024.2.1,Win32,60.24096386,66fa4ebf79326e780c390304,,,,,,,,,,,,,,,,,,,,,127.0892,127.0892,127.0903,128.4891,1,0,right,0.8658,,128.4901,128.4906,,0,,128.4912,128.4916,,0,,1,128.4916,128.4917,128.4919,129.989,0,3,3,3,1,0.4,0.6,0.8,0.2,1,0,,,,,,,,,,,,,,,,,,,,,,,,,,,,,,,,,,,,
,,65b84104763d1e7cd0d60507,66fc983ae56cb38035f3b1ae,2024-10-02_10h56.14.148,mdp,2024.2.1,Win32,60.24096386,66fa4ebf79326e780c390304,,,,,,,,,,,,,,,,,,,,,129.9893,129.9893,129.9906,131.1225,1,0,right,0.6021,,131.1231,131.1238,,0,,131.1244,131.1248,,1,,1,131.1249,131.1249,131.1252,132.6226,0,4,4,4,1,0.4,0.6,0.8,0.2,1,0,,,,,,,,,,,,,,,,,,,,,,,,,,,,,,,,,,,,
,,65b84104763d1e7cd0d60507,66fc983ae56cb38035f3b1ae,2024-10-02_10h56.14.148,mdp,2024.2.1,Win32,60.24096386,66fa4ebf79326e780c390304,,,,,,,,,,,,,,,,,,,,,132.6231,132.6231,132.6242,133.9391,1,0,right,0.7887,,133.94,133.9406,,1,,133.9411,133.9416,,0,,1,133.9416,133.9416,133.9419,135.4392,0,5,5,5,1,0.4,0.6,0.8,0.2,1,0,,,,,,,,,,,,,,,,,,,,,,,,,,,,,,,,,,,,
,,65b84104763d1e7cd0d60507,66fc983ae56cb38035f3b1ae,2024-10-02_10h56.14.148,mdp,2024.2.1,Win32,60.24096386,66fa4ebf79326e780c390304,,,,,,,,,,,,,,,,,,,,,135.4395,135.4395,135.4406,136.656,1,0,right,0.6847,,136.6574,136.6582,,0,,136.6587,136.6592,,0,,1,136.6592,136.6592,136.6596,138.1559,0,6,6,6,1,0.4,0.6,0.8,0.2,1,0,,,,,,,,,,,,,,,,,,,,,,,,,,,,,,,,,,,,
,,65b84104763d1e7cd0d60507,66fc983ae56cb38035f3b1ae,2024-10-02_10h56.14.148,mdp,2024.2.1,Win32,60.24096386,66fa4ebf79326e780c390304,,,,,,,,,,,,,,,,,,,,,138.1563,138.1563,138.1577,139.5725,1,0,right,0.8913,,139.5734,139.574,,0,,139.5743,139.5747,,0,,1,139.5747,139.5747,139.575,141.0727,0,7,7,7,1,0.4,0.6,0.8,0.2,1,0,,,,,,,,,,,,,,,,,,,,,,,,,,,,,,,,,,,,
,,65b84104763d1e7cd0d60507,66fc983ae56cb38035f3b1ae,2024-10-02_10h56.14.148,mdp,2024.2.1,Win32,60.24096386,66fa4ebf79326e780c390304,,,,,,,,,,,,,,,,,,,,,141.073,141.0731,141.074,142.2397,1,0,right,0.6384,,142.2409,142.2414,,0,,142.2419,142.2424,,0,,1,142.2424,142.2424,142.2428,143.7396,0,8,8,8,1,0.4,0.6,0.8,0.2,1,0,,,,,,,,,,,,,,,,,,,,,,,,,,,,,,,,,,,,
,,65b84104763d1e7cd0d60507,66fc983ae56cb38035f3b1ae,2024-10-02_10h56.14.148,mdp,2024.2.1,Win32,60.24096386,66fa4ebf79326e780c390304,,,,,,,,,,,,,,,,,,,,,143.74,143.74,143.7408,145.7729,1,1,right,1.5038,,145.774,145.7744,,0,,145.7749,145.7753,,0,,0,145.7754,145.7754,145.7758,147.2727,0,9,9,9,1,0.4,0.6,0.8,0.2,1,0,,,,,,,,,,,,,,,,,,,,,,,,,,,,,,,,,,,,
,,65b84104763d1e7cd0d60507,66fc983ae56cb38035f3b1ae,2024-10-02_10h56.14.148,mdp,2024.2.1,Win32,60.24096386,66fa4ebf79326e780c390304,,,,,,,,,,,,,,,,,,,,,147.2731,147.2731,147.2741,149.0394,1,0,right,1.2467,,149.0401,149.0407,,0,,149.0414,149.0417,,0,,1,149.0417,149.0417,149.0421,150.5395,0,10,10,10,1,0.2,0.8,0.6,0.4,1,0,,,,,,,,,,,,,,,,,,,,,,,,,,,,,,,,,,,,
,,65b84104763d1e7cd0d60507,66fc983ae56cb38035f3b1ae,2024-10-02_10h56.14.148,mdp,2024.2.1,Win32,60.24096386,66fa4ebf79326e780c390304,,,,,,,,,,,,,,,,,,,,,150.5398,150.5398,150.5407,159.3232,1,0,right,8.2606,,159.3242,159.3248,,1,,159.3255,159.3259,,1,,1,159.3259,159.3259,159.3262,160.823,0,11,11,11,1,0.2,0.8,0.6,0.4,1,0,,,,,,,,,,,,,,,,,,,,,,,,,,,,,,,,,,,,
,,65b84104763d1e7cd0d60507,66fc983ae56cb38035f3b1ae,2024-10-02_10h56.14.148,mdp,2024.2.1,Win32,60.24096386,66fa4ebf79326e780c390304,,,,,,,,,,,,,,,,,,,,,160.8235,160.8236,160.8244,162.4731,1,1,right,1.1247,,162.4742,162.4748,,1,,162.4754,162.4759,,0,,0,162.4759,162.4759,162.4763,163.9731,0,12,12,12,1,0.2,0.8,0.6,0.4,1,0,,,,,,,,,,,,,,,,,,,,,,,,,,,,,,,,,,,,
,,65b84104763d1e7cd0d60507,66fc983ae56cb38035f3b1ae,2024-10-02_10h56.14.148,mdp,2024.2.1,Win32,60.24096386,66fa4ebf79326e780c390304,,,,,,,,,,,,,,,,,,,,,163.9733,163.9733,163.9742,169.0568,1,0,right,4.5697,,169.0642,169.0647,,1,,169.0652,169.0655,,0,,1,169.0656,169.0656,169.0658,170.5566,0,13,13,13,1,0.2,0.8,0.6,0.4,1,0,,,,,,,,,,,,,,,,,,,,,,,,,,,,,,,,,,,,
,,65b84104763d1e7cd0d60507,66fc983ae56cb38035f3b1ae,2024-10-02_10h56.14.148,mdp,2024.2.1,Win32,60.24096386,66fa4ebf79326e780c390304,,,,,,,,,,,,,,,,,,,,,170.5568,170.5568,170.5576,171.4234,1,1,right,0.3471,,171.4241,171.4249,,1,,171.4255,171.4257,,1,,0,171.4257,171.4257,171.426,172.9232,0,14,14,14,1,0.2,0.8,0.6,0.4,1,0,,,,,,,,,,,,,,,,,,,,,,,,,,,,,,,,,,,,
,,65b84104763d1e7cd0d60507,66fc983ae56cb38035f3b1ae,2024-10-02_10h56.14.148,mdp,2024.2.1,Win32,60.24096386,66fa4ebf79326e780c390304,,,,,,,,,,,,,,,,,,,,,172.9235,172.9235,172.9244,174.2233,1,0,right,0.7715,,174.224,174.2245,,1,,174.225,174.2252,,0,,1,174.2252,174.2252,174.2255,175.7236,0,15,15,15,1,0.2,0.8,0.6,0.4,1,0,,,,,,,,,,,,,,,,,,,,,,,,,,,,,,,,,,,,
,,65b84104763d1e7cd0d60507,66fc983ae56cb38035f3b1ae,2024-10-02_10h56.14.148,mdp,2024.2.1,Win32,60.24096386,66fa4ebf79326e780c390304,,,,,,,,,,,,,,,,,,,,,175.724,175.724,175.7247,176.7071,1,1,right,0.4508,,176.7083,176.709,,1,,176.7093,176.7097,,1,,0,176.7097,176.7097,176.7099,178.2069,0,16,16,16,1,0.8,0.2,0.2,0.8,1,0,,,,,,,,,,,,,,,,,,,,,,,,,,,,,,,,,,,,
,,65b84104763d1e7cd0d60507,66fc983ae56cb38035f3b1ae,2024-10-02_10h56.14.148,mdp,2024.2.1,Win32,60.24096386,66fa4ebf79326e780c390304,,,,,,,,,,,,,,,,,,,,,178.2071,178.2071,178.2081,179.0904,1,1,right,0.36,,179.0911,179.092,,1,,179.0924,179.0927,,1,,0,179.0927,179.0927,179.093,180.5903,0,17,17,17,1,0.8,0.2,0.2,0.8,1,0,,,,,,,,,,,,,,,,,,,,,,,,,,,,,,,,,,,,
,,65b84104763d1e7cd0d60507,66fc983ae56cb38035f3b1ae,2024-10-02_10h56.14.148,mdp,2024.2.1,Win32,60.24096386,66fa4ebf79326e780c390304,,,,,,,,,,,,,,,,,,,,,180.5906,180.5907,180.5914,181.4568,1,0,right,0.3466,,181.4576,181.4581,,1,,181.4586,181.4588,,0,,1,181.4589,181.4589,181.4596,182.9569,0,18,18,18,1,0.8,0.2,0.2,0.8,1,0,,,,,,,,,,,,,,,,,,,,,,,,,,,,,,,,,,,,
,,65b84104763d1e7cd0d60507,66fc983ae56cb38035f3b1ae,2024-10-02_10h56.14.148,mdp,2024.2.1,Win32,60.24096386,66fa4ebf79326e780c390304,,,,,,,,,,,,,,,,,,,,,182.9572,182.9572,182.9584,183.8571,1,1,right,0.3795,,183.858,183.8586,,1,,183.8592,183.8596,,1,,0,183.8596,183.8596,183.86,185.3572,0,19,19,19,1,0.8,0.2,0.2,0.8,1,0,,,,,,,,,,,,,,,,,,,,,,,,,,,,,,,,,,,,
,,65b84104763d1e7cd0d60507,66fc983ae56cb38035f3b1ae,2024-10-02_10h56.14.148,mdp,2024.2.1,Win32,60.24096386,66fa4ebf79326e780c390304,,,,,,,,,,,,,,,,,,,,,185.3576,185.3576,185.3583,186.5073,1,0,right,0.6139,,186.5083,186.509,,1,,186.5093,186.5098,,1,,1,186.5098,186.5098,186.5101,188.0071,0,20,20,20,1,0.8,0.2,0.2,0.8,1,0,,,,,,,,,,,,,,,,,,,,,,,,,,,,,,,,,,,,
,,65b84104763d1e7cd0d60507,66fc983ae56cb38035f3b1ae,2024-10-02_10h56.14.148,mdp,2024.2.1,Win32,60.24096386,66fa4ebf79326e780c390304,,,,,,,,,,,,,,,,,,,,,188.0075,188.0075,188.0082,188.8905,0,1,left,0.3518,,188.8913,188.8918,,0,,188.8923,188.8925,,0,,0,188.8925,188.8925,188.8927,190.3905,0,21,21,21,1,0.8,0.2,0.2,0.8,1,0,,,,,,,,,,,,,,,,,,,,,,,,,,,,,,,,,,,,
,,65b84104763d1e7cd0d60507,66fc983ae56cb38035f3b1ae,2024-10-02_10h56.14.148,mdp,2024.2.1,Win32,60.24096386,66fa4ebf79326e780c390304,,,,,,,,,,,,,,,,,,,,,190.3908,190.3908,190.392,191.2074,1,1,right,0.2896,,191.2083,191.2091,,1,,191.2095,191.2098,,1,,0,191.2099,191.2099,191.2102,192.7071,0,22,22,22,1,0.8,0.2,0.2,0.8,1,0,,,,,,,,,,,,,,,,,,,,,,,,,,,,,,,,,,,,
,,65b84104763d1e7cd0d60507,66fc983ae56cb38035f3b1ae,2024-10-02_10h56.14.148,mdp,2024.2.1,Win32,60.24096386,66fa4ebf79326e780c390304,,,,,,,,,,,,,,,,,,,,,192.7075,192.7076,192.7084,193.5407,1,1,right,0.3084,,193.5414,193.542,,1,,193.5425,193.5428,,1,,0,193.5428,193.5428,193.5432,195.0407,0,23,23,23,1,0.8,0.2,0.2,0.8,1,0,,,,,,,,,,,,,,,,,,,,,,,,,,,,,,,,,,,,
,,65b84104763d1e7cd0d60507,66fc983ae56cb38035f3b1ae,2024-10-02_10h56.14.148,mdp,2024.2.1,Win32,60.24096386,66fa4ebf79326e780c390304,,,,,,,,,,,,,,,,,,,,,195.0411,195.0411,195.0421,195.874,1,0,right,0.3026,,195.8747,195.8754,,1,,195.876,195.8763,,1,,1,195.8763,195.8763,195.8767,197.3741,0,24,24,24,1,0.8,0.2,0.2,0.8,1,0,,,,,,,,,,,,,,,,,,,,,,,,,,,,,,,,,,,,
,,65b84104763d1e7cd0d60507,66fc983ae56cb38035f3b1ae,2024-10-02_10h56.14.148,mdp,2024.2.1,Win32,60.24096386,66fa4ebf79326e780c390304,,,,,,,,,,,,,,,,,,,,,197.3746,197.3746,197.3753,198.2407,1,1,right,0.3372,,198.2417,198.2423,,1,,198.2428,198.2431,,1,,0,198.2431,198.2431,198.2435,199.7407,0,25,25,25,1,0.8,0.2,0.2,0.8,1,0,,,,,,,,,,,,,,,,,,,,,,,,,,,,,,,,,,,,
,,65b84104763d1e7cd0d60507,66fc983ae56cb38035f3b1ae,2024-10-02_10h56.14.148,mdp,2024.2.1,Win32,60.24096386,66fa4ebf79326e780c390304,,,,,,,,,,,,,,,,,,,,,199.7411,199.7411,199.7421,200.7905,1,1,right,0.5307,,200.7913,200.7918,,0,,200.7925,200.7928,,0,,0,200.7928,200.7929,200.7932,202.2906,0,26,26,26,1,0.8,0.2,0.2,0.8,1,0,,,,,,,,,,,,,,,,,,,,,,,,,,,,,,,,,,,,
,,65b84104763d1e7cd0d60507,66fc983ae56cb38035f3b1ae,2024-10-02_10h56.14.148,mdp,2024.2.1,Win32,60.24096386,66fa4ebf79326e780c390304,,,,,,,,,,,,,,,,,,,,,202.291,202.291,202.2917,203.2406,0,0,left,0.4204,,203.2413,203.2421,,0,,203.2426,203.2428,,1,,1,203.2428,203.2428,203.2432,204.7406,0,27,27,27,1,0.8,0.2,0.2,0.8,1,0,,,,,,,,,,,,,,,,,,,,,,,,,,,,,,,,,,,,
,,65b84104763d1e7cd0d60507,66fc983ae56cb38035f3b1ae,2024-10-02_10h56.14.148,mdp,2024.2.1,Win32,60.24096386,66fa4ebf79326e780c390304,,,,,,,,,,,,,,,,,,,,,204.7408,204.7408,204.7421,214.6909,0,1,left,9.4223,,214.6984,214.6988,,0,,214.6993,214.6994,,0,,0,214.6995,214.6995,214.6997,216.1908,0,28,28,28,1,0.8,0.2,0.2,0.8,1,0,,,,,,,,,,,,,,,,,,,,,,,,,,,,,,,,,,,,
,,65b84104763d1e7cd0d60507,66fc983ae56cb38035f3b1ae,2024-10-02_10h56.14.148,mdp,2024.2.1,Win32,60.24096386,66fa4ebf79326e780c390304,,,,,,,,,,,,,,,,,,,,,216.1916,216.1916,216.1928,217.2407,0,1,left,0.525,,217.2413,217.2418,,1,,217.2426,217.243,,0,,0,217.2431,217.2431,217.2433,218.7408,0,29,29,29,1,0.4,0.6,0.8,0.2,1,0,,,,,,,,,,,,,,,,,,,,,,,,,,,,,,,,,,,,
,,65b84104763d1e7cd0d60507,66fc983ae56cb38035f3b1ae,2024-10-02_10h56.14.148,mdp,2024.2.1,Win32,60.24096386,66fa4ebf79326e780c390304,,,,,,,,,,,,,,,,,,,,,218.7411,218.7411,218.7419,221.2077,0,0,left,1.9374,,221.2085,221.2091,,1,,221.2095,221.2098,,1,,1,221.2099,221.2099,221.2102,222.7077,0,30,30,30,1,0.4,0.6,0.8,0.2,1,0,,,,,,,,,,,,,,,,,,,,,,,,,,,,,,,,,,,,
,,65b84104763d1e7cd0d60507,66fc983ae56cb38035f3b1ae,2024-10-02_10h56.14.148,mdp,2024.2.1,Win32,60.24096386,66fa4ebf79326e780c390304,,,,,,,,,,,,,,,,,,,,,222.708,222.708,222.7087,223.6411,0,0,left,0.4101,,223.642,223.6425,,0,,223.6428,223.6433,,0,,1,223.6433,223.6433,223.6436,225.1411,0,31,31,31,1,0.4,0.6,0.8,0.2,1,0,,,,,,,,,,,,,,,,,,,,,,,,,,,,,,,,,,,,
,,65b84104763d1e7cd0d60507,66fc983ae56cb38035f3b1ae,2024-10-02_10h56.14.148,mdp,2024.2.1,Win32,60.24096386,66fa4ebf79326e780c390304,,,,,,,,,,,,,,,,,,,,,225.1414,225.1414,225.1425,226.2244,0,0,left,0.553,,226.2251,226.2257,,1,,226.2261,226.2263,,1,,1,226.2263,226.2263,226.2266,227.7244,0,32,32,32,1,0.4,0.6,0.8,0.2,1,0,,,,,,,,,,,,,,,,,,,,,,,,,,,,,,,,,,,,
,,65b84104763d1e7cd0d60507,66fc983ae56cb38035f3b1ae,2024-10-02_10h56.14.148,mdp,2024.2.1,Win32,60.24096386,66fa4ebf79326e780c390304,,,,,,,,,,,,,,,,,,,,,227.7247,227.7247,227.7256,231.0413,0,0,left,2.7951,,231.0483,231.0487,,0,,231.0491,231.0494,,0,,1,231.0494,231.0494,231.0496,232.5412,0,33,33,33,1,0.6,0.4,0.4,0.6,1,0,,,,,,,,,,,,,,,,,,,,,,,,,,,,,,,,,,,,
,,65b84104763d1e7cd0d60507,66fc983ae56cb38035f3b1ae,2024-10-02_10h56.14.148,mdp,2024.2.1,Win32,60.24096386,66fa4ebf79326e780c390304,,,,,,,,,,,,,,,,,,,,,232.5414,232.5414,232.542,233.6746,0,0,left,0.6086,,233.6755,233.6763,,0,,233.6769,233.6774,,0,,1,233.6774,233.6774,233.6778,235.1746,0,34,34,34,1,0.8,0.2,0.2,0.8,1,0,,,,,,,,,,,,,,,,,,,,,,,,,,,,,,,,,,,,
,,65b84104763d1e7cd0d60507,66fc983ae56cb38035f3b1ae,2024-10-02_10h56.14.148,mdp,2024.2.1,Win32,60.24096386,66fa4ebf79326e780c390304,,,,,,,,,,,,,,,,,,,,,235.1749,235.1749,235.1762,236.5413,0,0,left,0.8324,,236.5421,236.5429,,0,,236.5435,236.5438,,0,,1,236.5439,236.5439,236.5442,238.0412,0,35,35,35,1,0.8,0.2,0.2,0.8,1,0,,,,,,,,,,,,,,,,,,,,,,,,,,,,,,,,,,,,
,,65b84104763d1e7cd0d60507,66fc983ae56cb38035f3b1ae,2024-10-02_10h56.14.148,mdp,2024.2.1,Win32,60.24096386,66fa4ebf79326e780c390304,,,,,,,,,,,,,,,,,,,,,238.0414,238.0414,238.0424,241.7915,0,1,left,3.2171,,241.7991,241.7995,,0,,241.7999,241.8001,,0,,0,241.8001,241.8001,241.8003,243.2915,0,36,36,36,1,0.8,0.2,0.2,0.8,1,0,,,,,,,,,,,,,,,,,,,,,,,,,,,,,,,,,,,,
,,65b84104763d1e7cd0d60507,66fc983ae56cb38035f3b1ae,2024-10-02_10h56.14.148,mdp,2024.2.1,Win32,60.24096386,66fa4ebf79326e780c390304,,,,,,,,,,,,,,,,,,,,,243.2916,243.2916,243.2923,252.4749,0,0,left,8.6604,,252.4821,252.4826,,0,,252.483,252.4832,,0,,1,252.4832,252.4832,252.4833,253.975,0,37,37,37,1,0.8,0.2,0.2,0.8,1,0,,,,,,,,,,,,,,,,,,,,,,,,,,,,,,,,,,,,
,,65b84104763d1e7cd0d60507,66fc983ae56cb38035f3b1ae,2024-10-02_10h56.14.148,mdp,2024.2.1,Win32,60.24096386,66fa4ebf79326e780c390304,,,,,,,,,,,,,,,,,,,,,253.9753,253.9753,253.9762,254.9417,0,0,left,0.4284,,254.9423,254.9429,,0,,254.9434,254.9439,,1,,1,254.9439,254.9439,254.9442,256.4417,0,38,38,38,1,0.8,0.2,0.2,0.8,1,0,,,,,,,,,,,,,,,,,,,,,,,,,,,,,,,,,,,,
,,65b84104763d1e7cd0d60507,66fc983ae56cb38035f3b1ae,2024-10-02_10h56.14.148,mdp,2024.2.1,Win32,60.24096386,66fa4ebf79326e780c390304,,,,,,,,,,,,,,,,,,,,,256.4418,256.4418,256.4426,257.5084,0,0,left,0.536,,257.5095,257.5102,,0,,257.511,257.5114,,0,,1,257.5114,257.5114,257.5117,259.0083,0,39,39,39,1,0.8,0.2,0.2,0.8,1,0,,,,,,,,,,,,,,,,,,,,,,,,,,,,,,,,,,,,
,,65b84104763d1e7cd0d60507,66fc983ae56cb38035f3b1ae,2024-10-02_10h56.14.148,mdp,2024.2.1,Win32,60.24096386,66fa4ebf79326e780c390304,,,,,,,,,,,,,,,,,,,,,259.0086,259.0086,259.011,260.3418,0,0,left,0.7966,,260.3428,260.3433,,0,,260.3438,260.3442,,0,,1,260.3442,260.3442,260.3446,261.8417,0,40,40,40,1,0.8,0.2,0.2,0.8,1,0,,,,,,,,,,,,,,,,,,,,,,,,,,,,,,,,,,,,
,,65b84104763d1e7cd0d60507,66fc983ae56cb38035f3b1ae,2024-10-02_10h56.14.148,mdp,2024.2.1,Win32,60.24096386,66fa4ebf79326e780c390304,,,,,,,,,,,,,,,,,,,,,261.842,261.842,261.843,263.0252,0,1,left,0.6601,,263.026,263.0266,,0,,263.0273,263.0277,,0,,0,263.0278,263.0278,263.0281,264.5252,0,41,41,41,1,0.8,0.2,0.2,0.8,1,0,,,,,,,,,,,,,,,,,,,,,,,,,,,,,,,,,,,,
,,65b84104763d1e7cd0d60507,66fc983ae56cb38035f3b1ae,2024-10-02_10h56.14.148,mdp,2024.2.1,Win32,60.24096386,66fa4ebf79326e780c390304,,,,,,,,,,,,,,,,,,,,,264.5255,264.5255,264.5263,265.4084,1,0,right,0.361,,265.4092,265.41,,0,,265.4107,265.411,,0,,1,265.411,265.411,265.4114,266.9087,0,42,42,42,1,0.2,0.8,0.6,0.4,1,0,,,,,,,,,,,,,,,,,,,,,,,,,,,,,,,,,,,,
,,65b84104763d1e7cd0d60507,66fc983ae56cb38035f3b1ae,2024-10-02_10h56.14.148,mdp,2024.2.1,Win32,60.24096386,66fa4ebf79326e780c390304,,,,,,,,,,,,,,,,,,,,,266.909,266.909,266.9099,267.7587,1,0,right,0.3309,,267.7596,267.7602,,1,,267.7608,267.7611,,0,,1,267.7612,267.7612,267.7615,269.2585,0,43,43,43,1,0.8,0.2,0.8,0.2,1,0,,,,,,,,,,,,,,,,,,,,,,,,,,,,,,,,,,,,
,,65b84104763d1e7cd0d60507,66fc983ae56cb38035f3b1ae,2024-10-02_10h56.14.148,mdp,2024.2.1,Win32,60.24096386,66fa4ebf79326e780c390304,,,,,,,,,,,,,,,,,,,,,269.2588,269.2588,269.2594,272.9588,0,0,left,3.1659,,272.9659,272.9662,,0,,272.9666,272.9668,,1,,1,272.9668,272.9668,272.9671,274.4587,0,44,44,44,1,0.8,0.2,0.8,0.2,1,0,,,,,,,,,,,,,,,,,,,,,,,,,,,,,,,,,,,,
,,65b84104763d1e7cd0d60507,66fc983ae56cb38035f3b1ae,2024-10-02_10h56.14.148,mdp,2024.2.1,Win32,60.24096386,66fa4ebf79326e780c390304,,,,,,,,,,,,,,,,,,,,,274.4589,274.4589,274.46,276.959,1,0,right,1.9616,,276.9664,276.9669,,0,,276.9672,276.9674,,1,,1,276.9674,276.9674,276.9676,278.4588,0,45,45,45,1,0.8,0.2,0.8,0.2,1,0,,,,,,,,,,,,,,,,,,,,,,,,,,,,,,,,,,,,
,,65b84104763d1e7cd0d60507,66fc983ae56cb38035f3b1ae,2024-10-02_10h56.14.148,mdp,2024.2.1,Win32,60.24096386,66fa4ebf79326e780c390304,,,,,,,,,,,,,,,,,,,,,278.4591,278.4591,278.46,279.8757,0,1,left,0.8846,,279.8765,279.8772,,1,,279.8777,279.878,,1,,0,279.878,279.878,279.8783,281.3755,0,46,46,46,1,0.2,0.8,0.6,0.4,1,0,,,,,,,,,,,,,,,,,,,,,,,,,,,,,,,,,,,,
,,65b84104763d1e7cd0d60507,66fc983ae56cb38035f3b1ae,2024-10-02_10h56.14.148,mdp,2024.2.1,Win32,60.24096386,66fa4ebf79326e780c390304,,,,,,,,,,,,,,,,,,,,,281.3757,281.3757,281.3768,285.1925,1,0,right,3.2835,,285.2001,285.2005,,0,,285.2009,285.2011,,1,,1,285.2011,285.2011,285.2015,286.6922,0,47,47,47,1,0.2,0.8,0.6,0.4,1,0,,,,,,,,,,,,,,,,,,,,,,,,,,,,,,,,,,,,
,,65b84104763d1e7cd0d60507,66fc983ae56cb38035f3b1ae,2024-10-02_10h56.14.148,mdp,2024.2.1,Win32,60.24096386,66fa4ebf79326e780c390304,,,,,,,,,,,,,,,,,,,,,286.6925,286.6925,286.693,291.626,1,1,right,4.3987,,291.6332,291.6335,,1,,291.634,291.6342,,0,,0,291.6343,291.6343,291.6345,293.1259,0,48,48,48,1,0.2,0.8,0.6,0.4,1,0,,,,,,,,,,,,,,,,,,,,,,,,,,,,,,,,,,,,
,,65b84104763d1e7cd0d60507,66fc983ae56cb38035f3b1ae,2024-10-02_10h56.14.148,mdp,2024.2.1,Win32,60.24096386,66fa4ebf79326e780c390304,,,,,,,,,,,,,,,,,,,,,293.1262,293.1262,293.1272,297.0925,1,0,right,3.4418,,297.0994,297.1,,0,,297.1004,297.1007,,0,,1,297.1007,297.1007,297.101,298.5925,0,49,49,49,1,0.2,0.8,0.6,0.4,1,0,,,,,,,,,,,,,,,,,,,,,,,,,,,,,,,,,,,,
,,65b84104763d1e7cd0d60507,66fc983ae56cb38035f3b1ae,2024-10-02_10h56.14.148,mdp,2024.2.1,Win32,60.24096386,66fa4ebf79326e780c390304,,,,,,,,,,,,,,,,,,,,,,,,,,,,,,,,,,,,,,,,,,,,,,,,,,,,,,,,298.5931,357.1117,0,0,0,8,1,imgs/kangaroo.png,imgs/lion.png,imgs/horse.png,imgs/rabbit.png,imgs/bear.png,,,,,,,,,,,,,,,,,,,,,,,,
,,65b84104763d1e7cd0d60507,66fc983ae56cb38035f3b1ae,2024-10-02_10h56.14.148,mdp,2024.2.1,Win32,60.24096386,66fa4ebf79326e780c390304,,,,,,,,,,,,,,2,seqs/st2seq20.csv,357.1197,375.7942,space,18.157,,375.8048,375.8048,375.8053,378.1282,1,1,right,1.8105,,378.129,381.678,1,0,right,381.6789,381.6794,,0,,1,381.6794,381.6794,381.68,383.1778,0,0,0,0,1,0.4,0.6,0.6,0.4,,,,,,,,,,,,,,,3.0135,,0.8,0.2,0.8,0.2,0.4,0.6,0.6,0.4,1,0,,,,,,,,,,,,
,,65b84104763d1e7cd0d60507,66fc983ae56cb38035f3b1ae,2024-10-02_10h56.14.148,mdp,2024.2.1,Win32,60.24096386,66fa4ebf79326e780c390304,,,,,,,,,,,,,,,,,,,,,383.1782,383.1783,383.179,384.3948,1,0,right,0.6917,,384.3958,385.2279,1,0,right,385.2289,385.2294,,0,,1,385.2295,385.2295,385.2299,386.728,0,1,1,1,1,0.4,0.6,0.6,0.4,,,,,,,,,,,,,,,0.296,,0.8,0.2,0.8,0.2,0.4,0.6,0.6,0.4,1,0,,,,,,,,,,,,
,,65b84104763d1e7cd0d60507,66fc983ae56cb38035f3b1ae,2024-10-02_10h56.14.148,mdp,2024.2.1,Win32,60.24096386,66fa4ebf79326e780c390304,,,,,,,,,,,,,,,,,,,,,386.7284,386.7284,386.7292,387.6447,1,0,right,0.3844,,387.6459,388.4619,1,0,right,388.463,388.4636,,0,,1,388.4636,388.4636,388.4642,389.9614,0,2,2,2,1,0.4,0.6,0.6,0.4,,,,,,,,,,,,,,,0.2958,,0.8,0.2,0.8,0.2,0.4,0.6,0.6,0.4,1,0,,,,,,,,,,,,
,,65b84104763d1e7cd0d60507,66fc983ae56cb38035f3b1ae,2024-10-02_10h56.14.148,mdp,2024.2.1,Win32,60.24096386,66fa4ebf79326e780c390304,,,,,,,,,,,,,,,,,,,,,389.9618,389.9618,389.9628,390.7947,1,0,right,0.304,,390.7955,391.5946,1,1,right,391.5954,391.5961,,0,,0,391.5961,391.5961,391.5966,393.0949,0,3,3,3,1,0.4,0.6,0.6,0.4,,,,,,,,,,,,,,,0.2777,,0.8,0.2,0.8,0.2,0.4,0.6,0.6,0.4,1,0,,,,,,,,,,,,
,,65b84104763d1e7cd0d60507,66fc983ae56cb38035f3b1ae,2024-10-02_10h56.14.148,mdp,2024.2.1,Win32,60.24096386,66fa4ebf79326e780c390304,,,,,,,,,,,,,,,,,,,,,393.0954,393.0954,393.0961,393.9282,1,0,right,0.3006,,393.9291,394.5948,1,0,right,394.5955,394.596,,0,,1,394.5961,394.5961,394.5967,396.0949,0,4,4,4,1,0.4,0.6,0.6,0.4,,,,,,,,,,,,,,,0.1451,,0.8,0.2,0.8,0.2,0.4,0.6,0.6,0.4,1,0,,,,,,,,,,,,
,,65b84104763d1e7cd0d60507,66fc983ae56cb38035f3b1ae,2024-10-02_10h56.14.148,mdp,2024.2.1,Win32,60.24096386,66fa4ebf79326e780c390304,,,,,,,,,,,,,,,,,,,,,396.0952,396.0952,396.0961,396.9449,1,1,right,0.3293,,396.9457,397.7285,1,1,right,397.7297,397.7301,,1,,0,397.7302,397.7302,397.7307,399.2284,0,5,5,5,1,0.4,0.6,0.6,0.4,,,,,,,,,,,,,,,0.2677,,0.8,0.2,0.8,0.2,0.4,0.6,0.6,0.4,1,0,,,,,,,,,,,,
,,65b84104763d1e7cd0d60507,66fc983ae56cb38035f3b1ae,2024-10-02_10h56.14.148,mdp,2024.2.1,Win32,60.24096386,66fa4ebf79326e780c390304,,,,,,,,,,,,,,,,,,,,,399.2287,399.2287,399.2295,400.1118,1,1,right,0.3464,,400.1127,400.9283,1,1,right,400.9293,400.9298,,0,,0,400.9298,400.9298,400.9305,402.4282,0,6,6,6,1,0.4,0.6,0.6,0.4,,,,,,,,,,,,,,,0.2893,,0.8,0.2,0.8,0.2,0.4,0.6,0.6,0.4,1,0,,,,,,,,,,,,
,,65b84104763d1e7cd0d60507,66fc983ae56cb38035f3b1ae,2024-10-02_10h56.14.148,mdp,2024.2.1,Win32,60.24096386,66fa4ebf79326e780c390304,,,,,,,,,,,,,,,,,,,,,402.4286,402.4286,402.4296,403.2949,1,0,right,0.3364,,403.2956,404.1617,1,0,right,404.1624,404.1632,,0,,1,404.1632,404.1632,404.1637,405.6618,0,7,7,7,1,0.4,0.6,0.6,0.4,,,,,,,,,,,,,,,0.3578,,0.8,0.2,0.8,0.2,0.4,0.6,0.6,0.4,1,0,,,,,,,,,,,,
,,65b84104763d1e7cd0d60507,66fc983ae56cb38035f3b1ae,2024-10-02_10h56.14.148,mdp,2024.2.1,Win32,60.24096386,66fa4ebf79326e780c390304,,,,,,,,,,,,,,,,,,,,,405.6623,405.6623,405.6632,406.6955,1,0,right,0.5033,,406.6967,407.995,1,0,right,407.996,407.9964,,1,,1,407.9965,407.9965,407.997,409.4952,0,8,8,8,1,0.6,0.4,0.2,0.8,,,,,,,,,,,,,,,0.7777,,0.8,0.2,0.8,0.2,0.4,0.6,0.6,0.4,1,0,,,,,,,,,,,,
,,65b84104763d1e7cd0d60507,66fc983ae56cb38035f3b1ae,2024-10-02_10h56.14.148,mdp,2024.2.1,Win32,60.24096386,66fa4ebf79326e780c390304,,,,,,,,,,,,,,,,,,,,,409.4956,409.4956,409.4964,410.5452,1,1,right,0.5299,,410.5459,412.0955,0,0,left,412.0966,412.0972,,1,,1,412.0972,412.0972,412.0976,413.5952,0,9,9,9,1,0.6,0.4,0.2,0.8,,,,,,,,,,,,,,,1.0189,,0.8,0.2,0.8,0.2,0.4,0.6,0.6,0.4,1,0,,,,,,,,,,,,
,,65b84104763d1e7cd0d60507,66fc983ae56cb38035f3b1ae,2024-10-02_10h56.14.148,mdp,2024.2.1,Win32,60.24096386,66fa4ebf79326e780c390304,,,,,,,,,,,,,,,,,,,,,413.5955,413.5955,413.5962,414.7122,1,0,right,0.6019,,414.7135,415.8121,1,0,right,415.8132,415.8136,,1,,1,415.8138,415.8138,415.8142,417.312,0,10,10,10,1,0.6,0.4,0.2,0.8,,,,,,,,,,,,,,,0.564,,0.8,0.2,0.8,0.2,0.4,0.6,0.6,0.4,1,0,,,,,,,,,,,,
,,65b84104763d1e7cd0d60507,66fc983ae56cb38035f3b1ae,2024-10-02_10h56.14.148,mdp,2024.2.1,Win32,60.24096386,66fa4ebf79326e780c390304,,,,,,,,,,,,,,,,,,,,,417.3124,417.3124,417.3137,418.5788,1,1,right,0.7373,,418.5796,419.6122,0,1,left,419.6134,419.614,,1,,0,419.614,419.614,419.6145,421.1122,0,11,11,11,1,0.6,0.4,0.2,0.8,,,,,,,,,,,,,,,0.4975,,0.8,0.2,0.8,0.2,0.4,0.6,0.6,0.4,1,0,,,,,,,,,,,,
,,65b84104763d1e7cd0d60507,66fc983ae56cb38035f3b1ae,2024-10-02_10h56.14.148,mdp,2024.2.1,Win32,60.24096386,66fa4ebf79326e780c390304,,,,,,,,,,,,,,,,,,,,,421.1126,421.1126,421.1138,422.0623,1,1,right,0.4253,,422.0635,423.2788,0,1,left,423.2796,423.2805,,1,,0,423.2805,423.2805,423.2809,424.7786,0,12,12,12,1,0.6,0.4,0.2,0.8,,,,,,,,,,,,,,,0.6906,,0.8,0.2,0.8,0.2,0.4,0.6,0.6,0.4,1,0,,,,,,,,,,,,
,,65b84104763d1e7cd0d60507,66fc983ae56cb38035f3b1ae,2024-10-02_10h56.14.148,mdp,2024.2.1,Win32,60.24096386,66fa4ebf79326e780c390304,,,,,,,,,,,,,,,,,,,,,424.7791,424.7791,424.7798,425.6289,1,1,right,0.3184,,425.6295,426.9289,0,1,left,426.9297,426.9303,,0,,0,426.9303,426.9303,426.9308,428.4289,0,13,13,13,1,0.6,0.4,0.2,0.8,,,,,,,,,,,,,,,0.7772,,0.2,0.8,0.2,0.8,0.4,0.6,0.6,0.4,1,0,,,,,,,,,,,,
,,65b84104763d1e7cd0d60507,66fc983ae56cb38035f3b1ae,2024-10-02_10h56.14.148,mdp,2024.2.1,Win32,60.24096386,66fa4ebf79326e780c390304,,,,,,,,,,,,,,,,,,,,,428.4293,428.4293,428.4301,429.2455,1,1,right,0.292,,429.2465,430.1122,1,1,right,430.1129,430.1134,,1,,0,430.1134,430.1134,430.1139,431.6125,0,14,14,14,1,0.6,0.4,0.2,0.8,,,,,,,,,,,,,,,0.3311,,0.2,0.8,0.2,0.8,0.4,0.6,0.6,0.4,1,0,,,,,,,,,,,,
,,65b84104763d1e7cd0d60507,66fc983ae56cb38035f3b1ae,2024-10-02_10h56.14.148,mdp,2024.2.1,Win32,60.24096386,66fa4ebf79326e780c390304,,,,,,,,,,,,,,,,,,,,,431.6129,431.6129,431.6137,433.4123,1,1,right,1.2663,,433.4132,434.4125,1,1,right,434.4137,434.4145,,1,,0,434.4145,434.4145,434.415,435.9122,0,15,15,15,1,0.6,0.4,0.2,0.8,,,,,,,,,,,,,,,0.4816,,0.2,0.8,0.2,0.8,0.4,0.6,0.6,0.4,1,0,,,,,,,,,,,,
,,65b84104763d1e7cd0d60507,66fc983ae56cb38035f3b1ae,2024-10-02_10h56.14.148,mdp,2024.2.1,Win32,60.24096386,66fa4ebf79326e780c390304,,,,,,,,,,,,,,,,,,,,,435.9126,435.9126,435.9137,436.9458,1,1,right,0.5003,,436.9469,437.796,1,0,right,437.7971,437.7977,,0,,1,437.7977,437.7977,437.7981,439.2958,0,16,16,16,1,0.6,0.4,0.2,0.8,,,,,,,,,,,,,,,0.3359,,0.2,0.8,0.2,0.8,0.4,0.6,0.6,0.4,1,0,,,,,,,,,,,,
,,65b84104763d1e7cd0d60507,66fc983ae56cb38035f3b1ae,2024-10-02_10h56.14.148,mdp,2024.2.1,Win32,60.24096386,66fa4ebf79326e780c390304,,,,,,,,,,,,,,,,,,,,,439.2961,439.2961,439.2969,440.1792,1,0,right,0.3544,,440.1804,441.0461,1,1,right,441.0474,441.0478,,1,,0,441.0479,441.0479,441.0483,442.5461,0,17,17,17,1,0.6,0.4,0.2,0.8,,,,,,,,,,,,,,,0.3322,,0.2,0.8,0.2,0.8,0.4,0.6,0.6,0.4,1,0,,,,,,,,,,,,
,,65b84104763d1e7cd0d60507,66fc983ae56cb38035f3b1ae,2024-10-02_10h56.14.148,mdp,2024.2.1,Win32,60.24096386,66fa4ebf79326e780c390304,,,,,,,,,,,,,,,,,,,,,442.5465,442.5465,442.5474,443.5293,1,1,right,0.4507,,443.5304,444.3959,0,1,left,444.3966,444.397,,1,,0,444.397,444.397,444.3975,445.8959,0,18,18,18,1,0.6,0.4,0.2,0.8,,,,,,,,,,,,,,,0.3398,,0.2,0.8,0.2,0.8,0.2,0.8,0.8,0.2,1,0,,,,,,,,,,,,
,,65b84104763d1e7cd0d60507,66fc983ae56cb38035f3b1ae,2024-10-02_10h56.14.148,mdp,2024.2.1,Win32,60.24096386,66fa4ebf79326e780c390304,,,,,,,,,,,,,,,,,,,,,445.896,445.896,445.8969,446.8959,1,1,right,0.4667,,446.8969,448.146,1,0,right,448.1469,448.1475,,0,,1,448.1475,448.1475,448.148,449.6465,0,19,19,19,1,0.6,0.4,0.2,0.8,,,,,,,,,,,,,,,0.7425,,0.2,0.8,0.2,0.8,0.2,0.8,0.8,0.2,1,0,,,,,,,,,,,,
,,65b84104763d1e7cd0d60507,66fc983ae56cb38035f3b1ae,2024-10-02_10h56.14.148,mdp,2024.2.1,Win32,60.24096386,66fa4ebf79326e780c390304,,,,,,,,,,,,,,,,,,,,,449.6469,449.6469,449.6478,456.5962,1,1,right,6.4204,,456.6046,457.4462,1,0,right,457.4469,457.4473,,0,,1,457.4473,457.4473,457.4479,458.946,0,20,20,20,1,0.6,0.4,0.2,0.8,,,,,,,,,,,,,,,0.3172,,0.2,0.8,0.2,0.8,0.2,0.8,0.8,0.2,1,0,,,,,,,,,,,,
,,65b84104763d1e7cd0d60507,66fc983ae56cb38035f3b1ae,2024-10-02_10h56.14.148,mdp,2024.2.1,Win32,60.24096386,66fa4ebf79326e780c390304,,,,,,,,,,,,,,,,,,,,,458.9463,458.9463,458.9472,459.8464,1,0,right,0.367,,459.8472,460.5796,1,0,right,460.5803,460.5807,,0,,1,460.5807,460.5807,460.5811,462.0795,0,21,21,21,1,0.6,0.4,0.2,0.8,,,,,,,,,,,,,,,0.207,,0.2,0.8,0.2,0.8,0.2,0.8,0.8,0.2,1,0,,,,,,,,,,,,
,,65b84104763d1e7cd0d60507,66fc983ae56cb38035f3b1ae,2024-10-02_10h56.14.148,mdp,2024.2.1,Win32,60.24096386,66fa4ebf79326e780c390304,,,,,,,,,,,,,,,,,,,,,462.0798,462.0798,462.0806,463.2796,1,0,right,0.6676,,463.2804,463.9295,1,1,right,463.9304,463.9313,,1,,0,463.9314,463.9314,463.9319,465.4298,0,22,22,22,1,0.6,0.4,0.2,0.8,,,,,,,,,,,,,,,0.1298,,0.2,0.8,0.2,0.8,0.2,0.8,0.8,0.2,1,0,,,,,,,,,,,,
,,65b84104763d1e7cd0d60507,66fc983ae56cb38035f3b1ae,2024-10-02_10h56.14.148,mdp,2024.2.1,Win32,60.24096386,66fa4ebf79326e780c390304,,,,,,,,,,,,,,,,,,,,,465.4303,465.4303,465.431,468.0133,1,0,right,2.0469,,468.014,468.8132,1,1,right,468.8139,468.8144,,0,,0,468.8145,468.8145,468.8148,470.313,0,23,23,23,1,0.6,0.4,0.2,0.8,,,,,,,,,,,,,,,0.2676,,0.8,0.2,0.4,0.6,0.2,0.8,0.8,0.2,1,0,,,,,,,,,,,,
,,65b84104763d1e7cd0d60507,66fc983ae56cb38035f3b1ae,2024-10-02_10h56.14.148,mdp,2024.2.1,Win32,60.24096386,66fa4ebf79326e780c390304,,,,,,,,,,,,,,,,,,,,,470.3132,470.3132,470.3142,471.1299,1,1,right,0.2843,,471.131,471.9465,1,1,right,471.9472,471.9478,,0,,0,471.9479,471.9479,471.9484,473.4469,0,24,24,24,1,0.6,0.4,0.2,0.8,,,,,,,,,,,,,,,0.2914,,0.8,0.2,0.4,0.6,0.2,0.8,0.8,0.2,1,0,,,,,,,,,,,,
,,65b84104763d1e7cd0d60507,66fc983ae56cb38035f3b1ae,2024-10-02_10h56.14.148,mdp,2024.2.1,Win32,60.24096386,66fa4ebf79326e780c390304,,,,,,,,,,,,,,,,,,,,,473.4472,473.4472,473.4479,474.2469,1,1,right,0.2706,,474.2478,475.3297,0,1,left,475.3302,475.3308,,1,,0,475.3309,475.3309,475.3313,476.83,0,25,25,25,1,0.6,0.4,0.2,0.8,,,,,,,,,,,,,,,0.5631,,0.8,0.2,0.4,0.6,0.2,0.8,0.8,0.2,1,0,,,,,,,,,,,,
,,65b84104763d1e7cd0d60507,66fc983ae56cb38035f3b1ae,2024-10-02_10h56.14.148,mdp,2024.2.1,Win32,60.24096386,66fa4ebf79326e780c390304,,,,,,,,,,,,,,,,,,,,,476.8303,476.8303,476.8311,477.6302,1,0,right,0.2674,,477.6314,478.4134,1,1,right,478.4141,478.4149,,0,,0,478.4149,478.4149,478.4155,479.9133,0,26,26,26,1,0.4,0.6,0.8,0.2,,,,,,,,,,,,,,,0.2551,,0.8,0.2,0.4,0.6,0.2,0.8,0.8,0.2,1,0,,,,,,,,,,,,
,,65b84104763d1e7cd0d60507,66fc983ae56cb38035f3b1ae,2024-10-02_10h56.14.148,mdp,2024.2.1,Win32,60.24096386,66fa4ebf79326e780c390304,,,,,,,,,,,,,,,,,,,,,479.9137,479.9137,479.9146,481.0135,1,0,right,0.5768,,481.0146,481.8801,1,1,right,481.8808,481.8815,,1,,0,481.8816,481.8816,481.882,483.3802,0,27,27,27,1,0.4,0.6,0.8,0.2,,,,,,,,,,,,,,,0.34,,0.8,0.2,0.4,0.6,0.2,0.8,0.8,0.2,1,0,,,,,,,,,,,,
,,65b84104763d1e7cd0d60507,66fc983ae56cb38035f3b1ae,2024-10-02_10h56.14.148,mdp,2024.2.1,Win32,60.24096386,66fa4ebf79326e780c390304,,,,,,,,,,,,,,,,,,,,,483.3806,483.3806,483.3818,484.2302,0,1,left,0.3254,,484.2315,485.0134,0,1,left,485.0145,485.015,,1,,0,485.015,485.015,485.0155,486.5136,0,28,28,28,1,0.4,0.6,0.8,0.2,,,,,,,,,,,,,,,0.2554,,0.8,0.2,0.4,0.6,0.2,0.8,0.8,0.2,1,0,,,,,,,,,,,,
,,65b84104763d1e7cd0d60507,66fc983ae56cb38035f3b1ae,2024-10-02_10h56.14.148,mdp,2024.2.1,Win32,60.24096386,66fa4ebf79326e780c390304,,,,,,,,,,,,,,,,,,,,,486.5137,486.5137,486.5145,487.3467,0,1,left,0.3086,,487.3475,488.397,1,0,right,488.3979,488.3984,,0,,1,488.3985,488.3985,488.3992,489.897,0,29,29,29,1,0.4,0.6,0.8,0.2,,,,,,,,,,,,,,,0.5381,,0.8,0.2,0.4,0.6,0.2,0.8,0.8,0.2,1,0,,,,,,,,,,,,
,,65b84104763d1e7cd0d60507,66fc983ae56cb38035f3b1ae,2024-10-02_10h56.14.148,mdp,2024.2.1,Win32,60.24096386,66fa4ebf79326e780c390304,,,,,,,,,,,,,,,,,,,,,489.8973,489.8973,489.898,490.93,0,1,left,0.5008,,490.931,491.8301,1,0,right,491.831,491.8317,,0,,1,491.8317,491.8317,491.8325,493.3304,0,30,30,30,1,0.4,0.6,0.8,0.2,,,,,,,,,,,,,,,0.3672,,0.8,0.2,0.4,0.6,0.2,0.8,0.8,0.2,1,0,,,,,,,,,,,,
,,65b84104763d1e7cd0d60507,66fc983ae56cb38035f3b1ae,2024-10-02_10h56.14.148,mdp,2024.2.1,Win32,60.24096386,66fa4ebf79326e780c390304,,,,,,,,,,,,,,,,,,,,,493.3308,493.3308,493.3317,494.2469,0,0,left,0.3839,,494.2478,495.947,0,1,left,495.9479,495.9485,,0,,0,495.9485,495.9485,495.949,497.4468,0,31,31,31,1,0.4,0.6,0.8,0.2,,,,,,,,,,,,,,,1.1665,,0.8,0.2,0.4,0.6,0.8,0.2,0.4,0.6,1,0,,,,,,,,,,,,
,,65b84104763d1e7cd0d60507,66fc983ae56cb38035f3b1ae,2024-10-02_10h56.14.148,mdp,2024.2.1,Win32,60.24096386,66fa4ebf79326e780c390304,,,,,,,,,,,,,,,,,,,,,497.4472,497.4472,497.4481,498.3969,0,0,left,0.4179,,498.3977,499.8137,1,1,right,499.8144,499.8149,,0,,0,499.8149,499.815,499.8154,501.3136,0,32,32,32,1,0.4,0.6,0.8,0.2,,,,,,,,,,,,,,,0.8998,,0.8,0.2,0.4,0.6,0.8,0.2,0.4,0.6,1,0,,,,,,,,,,,,
,,65b84104763d1e7cd0d60507,66fc983ae56cb38035f3b1ae,2024-10-02_10h56.14.148,mdp,2024.2.1,Win32,60.24096386,66fa4ebf79326e780c390304,,,,,,,,,,,,,,,,,,,,,501.3139,501.3139,501.3144,502.1804,0,0,left,0.3353,,502.1811,503.5637,1,1,right,503.5644,503.565,,1,,0,503.565,503.565,503.5653,505.0637,0,33,33,33,1,0.4,0.6,0.8,0.2,,,,,,,,,,,,,,,0.8523,,0.8,0.2,0.4,0.6,0.8,0.2,0.4,0.6,1,0,,,,,,,,,,,,
,,65b84104763d1e7cd0d60507,66fc983ae56cb38035f3b1ae,2024-10-02_10h56.14.148,mdp,2024.2.1,Win32,60.24096386,66fa4ebf79326e780c390304,,,,,,,,,,,,,,,,,,,,,505.0641,505.0641,505.065,506.2305,0,1,left,0.642,,506.2315,508.8305,0,0,left,508.8377,508.8381,,0,,1,508.8381,508.8381,508.8384,510.3307,0,34,34,34,1,0.4,0.6,0.8,0.2,,,,,,,,,,,,,,,2.0708,,0.8,0.2,0.4,0.6,0.8,0.2,0.4,0.6,1,0,,,,,,,,,,,,
,,65b84104763d1e7cd0d60507,66fc983ae56cb38035f3b1ae,2024-10-02_10h56.14.148,mdp,2024.2.1,Win32,60.24096386,66fa4ebf79326e780c390304,,,,,,,,,,,,,,,,,,,,,510.331,510.331,510.3318,511.1639,0,0,left,0.3028,,511.1648,512.3972,1,1,right,512.3981,512.3986,,0,,0,512.3986,512.3986,512.399,513.8973,0,35,35,35,1,0.8,0.2,0.4,0.6,,,,,,,,,,,,,,,0.7049,,0.8,0.2,0.4,0.6,0.8,0.2,0.4,0.6,1,0,,,,,,,,,,,,
,,65b84104763d1e7cd0d60507,66fc983ae56cb38035f3b1ae,2024-10-02_10h56.14.148,mdp,2024.2.1,Win32,60.24096386,66fa4ebf79326e780c390304,,,,,,,,,,,,,,,,,,,,,513.8975,513.8975,513.8985,514.6474,0,0,left,0.2235,,514.6481,515.664,1,1,right,515.665,515.6657,,1,,0,515.6658,515.6658,515.6664,517.164,0,36,36,36,1,0.8,0.2,0.4,0.6,,,,,,,,,,,,,,,0.4838,,0.8,0.2,0.4,0.6,0.8,0.2,0.4,0.6,1,0,,,,,,,,,,,,
,,65b84104763d1e7cd0d60507,66fc983ae56cb38035f3b1ae,2024-10-02_10h56.14.148,mdp,2024.2.1,Win32,60.24096386,66fa4ebf79326e780c390304,,,,,,,,,,,,,,,,,,,,,517.1643,517.1643,517.165,518.5472,0,1,left,0.8575,,518.548,519.614,1,1,right,519.6148,519.6153,,0,,0,519.6154,519.6154,519.6158,521.1141,0,37,37,37,1,0.8,0.2,0.4,0.6,,,,,,,,,,,,,,,0.5543,,0.8,0.2,0.4,0.6,0.8,0.2,0.4,0.6,1,0,,,,,,,,,,,,
,,65b84104763d1e7cd0d60507,66fc983ae56cb38035f3b1ae,2024-10-02_10h56.14.148,mdp,2024.2.1,Win32,60.24096386,66fa4ebf79326e780c390304,,,,,,,,,,,,,,,,,,,,,521.1144,521.1144,521.1156,521.9642,0,1,left,0.3393,,521.9649,522.7807,0,1,left,522.7816,522.7822,,0,,0,522.7822,522.7823,522.7827,524.2808,0,38,38,38,1,0.8,0.2,0.4,0.6,,,,,,,,,,,,,,,0.2931,,0.8,0.2,0.4,0.6,0.8,0.2,0.4,0.6,1,0,,,,,,,,,,,,
,,65b84104763d1e7cd0d60507,66fc983ae56cb38035f3b1ae,2024-10-02_10h56.14.148,mdp,2024.2.1,Win32,60.24096386,66fa4ebf79326e780c390304,,,,,,,,,,,,,,,,,,,,,524.2812,524.2812,524.2823,525.1307,0,0,left,0.3248,,525.1315,525.8808,0,1,left,525.8817,525.8823,,0,,0,525.8823,525.8823,525.8827,527.3808,0,39,39,39,1,0.8,0.2,0.4,0.6,,,,,,,,,,,,,,,0.2429,,0.8,0.2,0.4,0.6,0.6,0.4,0.6,0.4,1,0,,,,,,,,,,,,
,,65b84104763d1e7cd0d60507,66fc983ae56cb38035f3b1ae,2024-10-02_10h56.14.148,mdp,2024.2.1,Win32,60.24096386,66fa4ebf79326e780c390304,,,,,,,,,,,,,,,,,,,,,527.3811,527.3811,527.3821,528.4143,1,1,right,0.5004,,528.4152,529.1475,1,0,right,529.1481,529.1487,,0,,1,529.1487,529.1487,529.1491,530.6477,0,40,40,40,1,0.8,0.2,0.4,0.6,,,,,,,,,,,,,,,0.2225,,0.8,0.2,0.4,0.6,0.6,0.4,0.6,0.4,1,0,,,,,,,,,,,,
,,65b84104763d1e7cd0d60507,66fc983ae56cb38035f3b1ae,2024-10-02_10h56.14.148,mdp,2024.2.1,Win32,60.24096386,66fa4ebf79326e780c390304,,,,,,,,,,,,,,,,,,,,,530.6481,530.6481,530.649,531.531,1,1,right,0.3507,,531.5317,532.3642,1,0,right,532.3648,532.3653,,1,,1,532.3653,532.3653,532.3658,533.8646,0,41,41,41,1,0.8,0.2,0.4,0.6,,,,,,,,,,,,,,,0.3068,,0.8,0.2,0.4,0.6,0.6,0.4,0.6,0.4,1,0,,,,,,,,,,,,
,,65b84104763d1e7cd0d60507,66fc983ae56cb38035f3b1ae,2024-10-02_10h56.14.148,mdp,2024.2.1,Win32,60.24096386,66fa4ebf79326e780c390304,,,,,,,,,,,,,,,,,,,,,533.8651,533.8651,533.866,534.7479,1,0,right,0.3486,,534.7487,535.598,1,1,right,535.5991,535.5998,,0,,0,535.5999,535.5999,535.6004,537.0979,0,42,42,42,1,0.8,0.2,0.4,0.6,,,,,,,,,,,,,,,0.3138,,0.8,0.2,0.4,0.6,0.6,0.4,0.6,0.4,1,0,,,,,,,,,,,,
,,65b84104763d1e7cd0d60507,66fc983ae56cb38035f3b1ae,2024-10-02_10h56.14.148,mdp,2024.2.1,Win32,60.24096386,66fa4ebf79326e780c390304,,,,,,,,,,,,,,,,,,,,,537.0982,537.0982,537.0991,537.7483,1,0,right,0.1155,,537.7491,538.948,0,0,left,538.9487,538.9493,,0,,1,538.9493,538.9493,538.9499,540.4482,0,43,43,43,1,0.8,0.2,0.4,0.6,,,,,,,,,,,,,,,0.6698,,0.8,0.2,0.4,0.6,0.6,0.4,0.6,0.4,1,0,,,,,,,,,,,,
,,65b84104763d1e7cd0d60507,66fc983ae56cb38035f3b1ae,2024-10-02_10h56.14.148,mdp,2024.2.1,Win32,60.24096386,66fa4ebf79326e780c390304,,,,,,,,,,,,,,,,,,,,,540.4486,540.4486,540.4494,541.2814,1,0,right,0.314,,541.2822,542.4813,0,0,left,542.4821,542.4825,,0,,1,542.4825,542.4825,542.4829,543.9816,0,44,44,44,1,0.8,0.2,0.4,0.6,,,,,,,,,,,,,,,0.693,,0.8,0.2,0.4,0.6,0.6,0.4,0.6,0.4,1,0,,,,,,,,,,,,
,,65b84104763d1e7cd0d60507,66fc983ae56cb38035f3b1ae,2024-10-02_10h56.14.148,mdp,2024.2.1,Win32,60.24096386,66fa4ebf79326e780c390304,,,,,,,,,,,,,,,,,,,,,543.9819,543.9819,543.9829,544.9486,1,0,right,0.4323,,544.9496,546.0318,0,0,left,546.0331,546.0336,,1,,1,546.0336,546.0336,546.0342,547.5317,0,45,45,45,1,0.8,0.2,0.4,0.6,,,,,,,,,,,,,,,0.5577,,0.8,0.2,0.4,0.6,0.6,0.4,0.6,0.4,1,0,,,,,,,,,,,,
,,65b84104763d1e7cd0d60507,66fc983ae56cb38035f3b1ae,2024-10-02_10h56.14.148,mdp,2024.2.1,Win32,60.24096386,66fa4ebf79326e780c390304,,,,,,,,,,,,,,,,,,,,,547.532,547.532,547.5328,548.5319,1,1,right,0.4699,,548.5329,549.4151,0,1,left,549.416,549.4164,,0,,0,549.4165,549.4165,549.417,550.9149,0,46,46,46,1,0.8,0.2,0.4,0.6,,,,,,,,,,,,,,,0.3536,,0.8,0.2,0.4,0.6,0.6,0.4,0.6,0.4,1,0,,,,,,,,,,,,
,,65b84104763d1e7cd0d60507,66fc983ae56cb38035f3b1ae,2024-10-02_10h56.14.148,mdp,2024.2.1,Win32,60.24096386,66fa4ebf79326e780c390304,,,,,,,,,,,,,,,,,,,,,550.9152,550.9152,550.9161,551.7646,1,1,right,0.3268,,551.7652,553.0651,0,0,left,553.0662,553.0666,,0,,1,553.0666,553.0666,553.0671,554.5648,0,47,47,47,1,0.8,0.2,0.4,0.6,,,,,,,,,,,,,,,0.7901,,0.8,0.2,0.4,0.6,0.6,0.4,0.6,0.4,1,0,,,,,,,,,,,,
,,65b84104763d1e7cd0d60507,66fc983ae56cb38035f3b1ae,2024-10-02_10h56.14.148,mdp,2024.2.1,Win32,60.24096386,66fa4ebf79326e780c390304,,,,,,,,,,,,,,,,,,,,,554.5651,554.5651,554.5659,555.4816,1,1,right,0.3889,,555.4823,556.3317,0,0,left,556.3327,556.3332,,0,,1,556.3333,556.3333,556.3337,557.8318,0,48,48,48,1,0.8,0.2,0.4,0.6,,,,,,,,,,,,,,,0.3455,,0.8,0.2,0.4,0.6,0.6,0.4,0.6,0.4,1,0,,,,,,,,,,,,
,,65b84104763d1e7cd0d60507,66fc983ae56cb38035f3b1ae,2024-10-02_10h56.14.148,mdp,2024.2.1,Win32,60.24096386,66fa4ebf79326e780c390304,,,,,,,,,,,,,,,,,,,,,557.8321,557.8321,557.833,558.8486,1,1,right,0.5001,,558.8497,560.032,0,1,left,560.033,560.0335,,1,,0,560.0336,560.0336,560.0341,561.5318,0,49,49,49,1,0.8,0.2,0.4,0.6,,,,,,,,,,,,,,,0.6468,,0.8,0.2,0.4,0.6,0.2,0.8,0.2,0.8,1,0,,,,,,,,,,,,
,,65b84104763d1e7cd0d60507,66fc983ae56cb38035f3b1ae,2024-10-02_10h56.14.148,mdp,2024.2.1,Win32,60.24096386,66fa4ebf79326e780c390304,,,,,,,,,,,,,,,,,,,,,,,,,,,,,,,,,,,,,,,,,,,,,,,,,,,,,,,,561.5319,620.0499,0,1,1,0,1,imgs/kangaroo.png,imgs/lion.png,imgs/giraffe.png,imgs/pig.png,imgs/rabbit.png,,,,,,,,,,,,,,,,,,,,,,,,
,,65b84104763d1e7cd0d60507,66fc983ae56cb38035f3b1ae,2024-10-02_10h56.14.148,mdp,2024.2.1,Win32,60.24096386,66fa4ebf79326e780c390304,,,,,,,,,,,,,,3,seqs/st3seq42.csv,620.0576,626.6498,space,6.0805,,626.6607,626.6607,626.6613,629.7665,1,0,right,2.5829,,629.7675,631.5835,1,0,right,631.5845,632.4168,1,0,right,1,632.4168,632.4168,632.4177,633.9171,0,0,0,0,1,0.8,0.2,0.8,0.2,,,,,,,,,,,,,,,1.3042,,0.2,0.8,0.8,0.2,0.8,0.2,0.4,0.6,,,0.2965,,0.6,0.4,0.4,0.6,0.4,0.6,0.4,0.6,1,0
,,65b84104763d1e7cd0d60507,66fc983ae56cb38035f3b1ae,2024-10-02_10h56.14.148,mdp,2024.2.1,Win32,60.24096386,66fa4ebf79326e780c390304,,,,,,,,,,,,,,,,,,,,,633.9175,633.9175,633.9182,635.0337,1,0,right,0.5859,,635.0347,635.8171,1,0,right,635.818,636.6337,1,1,right,0,636.6338,636.6338,636.6348,641.5248,0,1,1,1,1,0.8,0.2,0.8,0.2,,,,,,,,,,,,,,,0.2535,,0.2,0.8,0.8,0.2,0.8,0.2,0.4,0.6,,,0.2834,,0.6,0.4,0.4,0.6,0.4,0.6,0.4,0.6,1,0
,,65b84104763d1e7cd0d60507,66fc983ae56cb38035f3b1ae,2024-10-02_10h56.14.148,mdp,2024.2.1,Win32,60.24096386,66fa4ebf79326e780c390304,,,,,,,,,,,,,,,,,,,,,641.5317,641.5317,641.5322,645.1001,1,0,right,3.0634,,645.1077,646.0505,1,0,right,646.0513,646.7669,1,0,right,1,646.7669,646.7669,646.7677,648.2669,0,2,2,2,1,0.8,0.2,0.8,0.2,,,,,,,,,,,,,,,0.4433,,0.2,0.8,0.8,0.2,0.8,0.2,0.4,0.6,,,0.1803,,0.6,0.4,0.4,0.6,0.4,0.6,0.4,0.6,1,0
,,65b84104763d1e7cd0d60507,66fc983ae56cb38035f3b1ae,2024-10-02_10h56.14.148,mdp,2024.2.1,Win32,60.24096386,66fa4ebf79326e780c390304,,,,,,,,,,,,,,,,,,,,,648.2674,648.2674,648.2681,650.0671,1,1,right,1.2682,,650.0677,650.8836,1,1,right,650.8844,651.6671,1,1,right,0,651.6672,651.6672,651.668,653.1673,0,3,3,3,1,0.8,0.2,0.8,0.2,,,,,,,,,,,,,,,0.2917,,0.2,0.8,0.8,0.2,0.4,0.6,0.2,0.8,,,0.2671,,0.6,0.4,0.4,0.6,0.4,0.6,0.4,0.6,1,0
,,65b84104763d1e7cd0d60507,66fc983ae56cb38035f3b1ae,2024-10-02_10h56.14.148,mdp,2024.2.1,Win32,60.24096386,66fa4ebf79326e780c390304,,,,,,,,,,,,,,,,,,,,,653.1677,653.1677,653.1689,654.0836,1,0,right,0.3959,,654.0842,654.8837,1,0,right,654.8846,655.717,1,1,right,0,655.7171,655.7171,655.7178,657.217,0,4,4,4,1,0.8,0.2,0.8,0.2,,,,,,,,,,,,,,,0.291,,0.2,0.8,0.8,0.2,0.4,0.6,0.2,0.8,,,0.2982,,0.6,0.4,0.4,0.6,0.4,0.6,0.4,0.6,1,0
,,65b84104763d1e7cd0d60507,66fc983ae56cb38035f3b1ae,2024-10-02_10h56.14.148,mdp,2024.2.1,Win32,60.24096386,66fa4ebf79326e780c390304,,,,,,,,,,,,,,,,,,,,,657.2173,657.2173,657.2181,658.0671,1,1,right,0.3301,,658.0677,658.9006,1,1,right,658.9016,659.6838,1,0,right,1,659.6839,659.6839,659.6845,661.1839,0,5,5,5,1,0.6,0.4,0.4,0.6,,,,,,,,,,,,,,,0.3155,,0.2,0.8,0.8,0.2,0.4,0.6,0.2,0.8,,,0.2741,,0.6,0.4,0.4,0.6,0.4,0.6,0.4,0.6,1,0
,,65b84104763d1e7cd0d60507,66fc983ae56cb38035f3b1ae,2024-10-02_10h56.14.148,mdp,2024.2.1,Win32,60.24096386,66fa4ebf79326e780c390304,,,,,,,,,,,,,,,,,,,,,661.1843,661.1843,661.1854,661.8505,1,0,right,0.1465,,661.8511,662.584,1,0,right,662.5847,663.5172,0,1,left,0,663.5173,663.5173,663.518,665.0172,0,6,6,6,1,0.6,0.4,0.4,0.6,,,,,,,,,,,,,,,0.2113,,0.2,0.8,0.8,0.2,0.4,0.6,0.2,0.8,,,0.3985,,0.6,0.4,0.4,0.6,0.4,0.6,0.4,0.6,1,0
,,65b84104763d1e7cd0d60507,66fc983ae56cb38035f3b1ae,2024-10-02_10h56.14.148,mdp,2024.2.1,Win32,60.24096386,66fa4ebf79326e780c390304,,,,,,,,,,,,,,,,,,,,,665.0175,665.0175,665.0183,666.3006,1,0,right,0.7483,,666.3012,667.6506,1,1,right,667.6515,668.9011,1,1,right,0,668.9011,668.9011,668.9019,670.4006,0,7,7,7,1,0.6,0.4,0.4,0.6,,,,,,,,,,,,,,,0.843,,0.2,0.8,0.8,0.2,0.4,0.6,0.2,0.8,,,0.7326,,0.6,0.4,0.4,0.6,0.4,0.6,0.4,0.6,1,0
,,65b84104763d1e7cd0d60507,66fc983ae56cb38035f3b1ae,2024-10-02_10h56.14.148,mdp,2024.2.1,Win32,60.24096386,66fa4ebf79326e780c390304,,,,,,,,,,,,,,,,,,,,,670.4008,670.4009,670.4015,671.6843,1,1,right,0.7539,,671.6854,673.2007,0,0,left,673.2016,674.4342,1,1,right,0,674.4343,674.4343,674.4351,675.9343,0,8,8,8,1,0.6,0.4,0.4,0.6,,,,,,,,,,,,,,,0.9945,,0.2,0.8,0.8,0.2,0.4,0.6,0.2,0.8,,,0.7018,,0.4,0.6,0.6,0.4,0.4,0.6,0.4,0.6,1,0
,,65b84104763d1e7cd0d60507,66fc983ae56cb38035f3b1ae,2024-10-02_10h56.14.148,mdp,2024.2.1,Win32,60.24096386,66fa4ebf79326e780c390304,,,,,,,,,,,,,,,,,,,,,675.9347,675.9348,675.9356,677.1678,1,1,right,0.7045,,677.1691,679.6844,0,0,left,679.6854,680.9344,1,1,right,0,680.9345,680.9346,680.9355,682.4345,0,9,9,9,1,0.6,0.4,0.4,0.6,,,,,,,,,,,,,,,1.9995,,0.2,0.8,0.8,0.2,0.4,0.6,0.2,0.8,,,0.7171,,0.4,0.6,0.6,0.4,0.4,0.6,0.4,0.6,1,0
,,65b84104763d1e7cd0d60507,66fc983ae56cb38035f3b1ae,2024-10-02_10h56.14.148,mdp,2024.2.1,Win32,60.24096386,66fa4ebf79326e780c390304,,,,,,,,,,,,,,,,,,,,,682.4349,682.435,682.4357,683.2843,1,0,right,0.3291,,683.285,684.0512,1,0,right,684.0519,684.9344,1,0,right,1,684.9345,684.9345,684.935,686.4345,0,10,10,10,1,0.6,0.4,0.4,0.6,,,,,,,,,,,,,,,0.2498,,0.2,0.8,0.8,0.2,0.4,0.6,0.2,0.8,,,0.3597,,0.4,0.6,0.6,0.4,0.4,0.6,0.4,0.6,1,0
,,65b84104763d1e7cd0d60507,66fc983ae56cb38035f3b1ae,2024-10-02_10h56.14.148,mdp,2024.2.1,Win32,60.24096386,66fa4ebf79326e780c390304,,,,,,,,,,,,,,,,,,,,,686.4347,686.4347,686.4357,687.5178,1,0,right,0.561,,687.5186,688.9013,1,0,right,688.9023,689.9011,1,1,right,0,689.9011,689.9011,689.9019,691.4011,0,11,11,11,1,0.6,0.4,0.4,0.6,,,,,,,,,,,,,,,0.8541,,0.2,0.8,0.8,0.2,0.4,0.6,0.2,0.8,,,0.4694,,0.4,0.6,0.6,0.4,0.4,0.6,0.4,0.6,1,0
,,65b84104763d1e7cd0d60507,66fc983ae56cb38035f3b1ae,2024-10-02_10h56.14.148,mdp,2024.2.1,Win32,60.24096386,66fa4ebf79326e780c390304,,,,,,,,,,,,,,,,,,,,,691.4014,691.4014,691.4026,692.3344,1,0,right,0.4059,,692.3352,693.2679,1,0,right,693.2686,694.1846,1,0,right,1,694.1847,694.1847,694.1854,695.6846,0,12,12,12,1,0.6,0.4,0.4,0.6,,,,,,,,,,,,,,,0.4204,,0.2,0.8,0.8,0.2,0.4,0.6,0.2,0.8,,,0.3872,,0.4,0.6,0.6,0.4,0.4,0.6,0.4,0.6,1,0
,,65b84104763d1e7cd0d60507,66fc983ae56cb38035f3b1ae,2024-10-02_10h56.14.148,mdp,2024.2.1,Win32,60.24096386,66fa4ebf79326e780c390304,,,,,,,,,,,,,,,,,,,,,695.6849,695.6849,695.6859,696.6678,1,0,right,0.4495,,696.6688,697.5847,1,0,right,697.5855,698.5348,1,0,right,1,698.5349,698.5349,698.536,700.0346,0,13,13,13,1,0.6,0.4,0.4,0.6,,,,,,,,,,,,,,,0.4033,,0.2,0.8,0.8,0.2,0.4,0.6,0.2,0.8,,,0.4171,,0.4,0.6,0.6,0.4,0.4,0.6,0.4,0.6,1,0
,,65b84104763d1e7cd0d60507,66fc983ae56cb38035f3b1ae,2024-10-02_10h56.14.148,mdp,2024.2.1,Win32,60.24096386,66fa4ebf79326e780c390304,,,,,,,,,,,,,,,,,,,,,700.0348,700.0348,700.036,701.1682,1,1,right,0.625,,701.1693,702.0015,1,0,right,702.0025,703.1183,1,0,right,1,703.1184,703.1184,703.119,704.6181,0,14,14,14,1,0.6,0.4,0.4,0.6,,,,,,,,,,,,,,,0.2998,,0.2,0.8,0.8,0.2,0.4,0.6,0.2,0.8,,,0.5867,,0.4,0.6,0.6,0.4,0.4,0.6,0.4,0.6,1,0
,,65b84104763d1e7cd0d60507,66fc983ae56cb38035f3b1ae,2024-10-02_10h56.14.148,mdp,2024.2.1,Win32,60.24096386,66fa4ebf79326e780c390304,,,,,,,,,,,,,,,,,,,,,704.6183,704.6183,704.6191,709.5852,1,0,right,4.4542,,709.5929,710.6684,1,0,right,710.6694,711.7018,1,0,right,1,711.7018,711.7018,711.7024,713.2018,0,15,15,15,1,0.6,0.4,0.4,0.6,,,,,,,,,,,,,,,0.5571,,0.2,0.8,0.8,0.2,0.4,0.6,0.2,0.8,,,0.5226,,0.4,0.6,0.6,0.4,0.4,0.6,0.4,0.6,1,0
,,65b84104763d1e7cd0d60507,66fc983ae56cb38035f3b1ae,2024-10-02_10h56.14.148,mdp,2024.2.1,Win32,60.24096386,66fa4ebf79326e780c390304,,,,,,,,,,,,,,,,,,,,,713.2022,713.2023,713.2032,714.2186,1,1,right,0.4897,,714.2195,715.0017,1,1,right,715.0024,717.0519,0,0,left,1,717.0519,717.0519,717.0526,718.5517,0,16,16,16,1,0.6,0.4,0.4,0.6,,,,,,,,,,,,,,,0.259,,0.2,0.8,0.8,0.2,0.4,0.6,0.2,0.8,,,1.5251,,0.4,0.6,0.6,0.4,0.4,0.6,0.4,0.6,1,0
,,65b84104763d1e7cd0d60507,66fc983ae56cb38035f3b1ae,2024-10-02_10h56.14.148,mdp,2024.2.1,Win32,60.24096386,66fa4ebf79326e780c390304,,,,,,,,,,,,,,,,,,,,,718.552,718.552,718.5528,719.7351,1,1,right,0.659,,719.7362,720.9684,1,1,right,720.969,722.2019,0,1,left,0,722.202,722.202,722.203,723.7019,0,17,17,17,1,0.6,0.4,0.4,0.6,,,,,,,,,,,,,,,0.7073,,0.2,0.8,0.8,0.2,0.4,0.6,0.2,0.8,,,0.7029,,0.4,0.6,0.6,0.4,0.4,0.6,0.4,0.6,1,0
,,65b84104763d1e7cd0d60507,66fc983ae56cb38035f3b1ae,2024-10-02_10h56.14.148,mdp,2024.2.1,Win32,60.24096386,66fa4ebf79326e780c390304,,,,,,,,,,,,,,,,,,,,,723.7024,723.7024,723.7032,724.6356,1,1,right,0.4014,,724.6366,725.5853,1,1,right,725.5864,726.5354,0,1,left,0,726.5354,726.5354,726.5364,728.0352,0,18,18,18,1,0.6,0.4,0.4,0.6,,,,,,,,,,,,,,,0.417,,0.2,0.8,0.8,0.2,0.4,0.6,0.2,0.8,,,0.4259,,0.4,0.6,0.6,0.4,0.4,0.6,0.4,0.6,1,0
,,65b84104763d1e7cd0d60507,66fc983ae56cb38035f3b1ae,2024-10-02_10h56.14.148,mdp,2024.2.1,Win32,60.24096386,66fa4ebf79326e780c390304,,,,,,,,,,,,,,,,,,,,,728.0355,728.0355,728.0362,728.969,1,1,right,0.4242,,728.97,730.0187,1,1,right,730.0195,731.0352,1,1,right,0,731.0353,731.0353,731.0362,732.5354,0,19,19,19,1,0.6,0.4,0.4,0.6,,,,,,,,,,,,,,,0.5268,,0.2,0.8,0.8,0.2,0.4,0.6,0.2,0.8,,,0.5119,,0.4,0.6,0.6,0.4,0.4,0.6,0.4,0.6,1,0
,,65b84104763d1e7cd0d60507,66fc983ae56cb38035f3b1ae,2024-10-02_10h56.14.148,mdp,2024.2.1,Win32,60.24096386,66fa4ebf79326e780c390304,,,,,,,,,,,,,,,,,,,,,732.5357,732.5357,732.5365,733.9021,1,1,right,0.8433,,733.9028,734.8854,0,1,left,734.8863,735.9525,0,0,left,1,735.9525,735.9525,735.9537,737.4521,0,20,20,20,1,0.6,0.4,0.4,0.6,,,,,,,,,,,,,,,0.4541,,0.2,0.8,0.8,0.2,0.4,0.6,0.2,0.8,,,0.5376,,0.4,0.6,0.6,0.4,0.4,0.6,0.4,0.6,1,0
,,65b84104763d1e7cd0d60507,66fc983ae56cb38035f3b1ae,2024-10-02_10h56.14.148,mdp,2024.2.1,Win32,60.24096386,66fa4ebf79326e780c390304,,,,,,,,,,,,,,,,,,,,,737.4525,737.4525,737.4534,738.9357,1,1,right,0.9587,,738.9365,739.8526,0,1,left,739.8537,740.8359,0,1,left,0,740.8359,740.8359,740.8367,742.3357,0,21,21,21,1,0.6,0.4,0.4,0.6,,,,,,,,,,,,,,,0.3871,,0.2,0.8,0.8,0.2,0.4,0.6,0.2,0.8,,,0.4502,,0.4,0.6,0.6,0.4,0.4,0.6,0.4,0.6,1,0
,,65b84104763d1e7cd0d60507,66fc983ae56cb38035f3b1ae,2024-10-02_10h56.14.148,mdp,2024.2.1,Win32,60.24096386,66fa4ebf79326e780c390304,,,,,,,,,,,,,,,,,,,,,742.336,742.3361,742.3372,743.2859,1,0,right,0.4153,,743.287,744.7525,1,0,right,744.7532,745.9023,1,1,right,0,745.9023,745.9023,745.9033,747.4028,0,22,22,22,1,0.6,0.4,0.4,0.6,,,,,,,,,,,,,,,0.9495,,0.2,0.8,0.8,0.2,0.4,0.6,0.2,0.8,,,0.6386,,0.4,0.6,0.6,0.4,0.4,0.6,0.4,0.6,1,0
,,65b84104763d1e7cd0d60507,66fc983ae56cb38035f3b1ae,2024-10-02_10h56.14.148,mdp,2024.2.1,Win32,60.24096386,66fa4ebf79326e780c390304,,,,,,,,,,,,,,,,,,,,,747.4031,747.4032,747.4039,748.4025,1,1,right,0.4671,,748.4035,750.5862,1,1,right,750.5869,752.0191,0,1,left,0,752.0192,752.0192,752.0198,753.5191,0,23,23,23,1,0.6,0.4,0.4,0.6,,,,,,,,,,,,,,,1.6763,,0.2,0.8,0.8,0.2,0.4,0.6,0.2,0.8,,,0.9094,,0.4,0.6,0.6,0.4,0.4,0.6,0.4,0.6,1,0
,,65b84104763d1e7cd0d60507,66fc983ae56cb38035f3b1ae,2024-10-02_10h56.14.148,mdp,2024.2.1,Win32,60.24096386,66fa4ebf79326e780c390304,,,,,,,,,,,,,,,,,,,,,753.5195,753.5195,753.5203,754.6026,1,1,right,0.5521,,754.6039,755.5191,0,1,left,755.5199,756.3695,0,1,left,0,756.3696,756.3696,756.3704,757.8694,0,24,24,24,1,0.6,0.4,0.4,0.6,,,,,,,,,,,,,,,0.3881,,0.2,0.8,0.8,0.2,0.4,0.6,0.2,0.8,,,0.3343,,0.4,0.6,0.6,0.4,0.4,0.6,0.4,0.6,1,0
,,65b84104763d1e7cd0d60507,66fc983ae56cb38035f3b1ae,2024-10-02_10h56.14.148,mdp,2024.2.1,Win32,60.24096386,66fa4ebf79326e780c390304,,,,,,,,,,,,,,,,,,,,,757.8699,757.8699,757.8708,758.7697,1,0,right,0.3707,,758.7708,760.553,1,1,right,760.5537,761.8195,1,1,right,0,761.8196,761.8196,761.8208,763.3193,0,25,25,25,1,0.6,0.4,0.4,0.6,,,,,,,,,,,,,,,1.2533,,0.2,0.8,0.8,0.2,0.4,0.6,0.2,0.8,,,0.7376,,0.4,0.6,0.6,0.4,0.4,0.6,0.4,0.6,1,0
,,65b84104763d1e7cd0d60507,66fc983ae56cb38035f3b1ae,2024-10-02_10h56.14.148,mdp,2024.2.1,Win32,60.24096386,66fa4ebf79326e780c390304,,,,,,,,,,,,,,,,,,,,,763.3197,763.3197,763.3205,764.2194,1,1,right,0.3677,,764.2202,764.9862,1,1,right,764.9874,765.6194,1,1,right,0,765.6194,765.6194,765.6201,767.1197,0,26,26,26,1,0.6,0.4,0.4,0.6,,,,,,,,,,,,,,,0.2518,,0.2,0.8,0.8,0.2,0.4,0.6,0.2,0.8,,,0.1138,,0.4,0.6,0.6,0.4,0.4,0.6,0.4,0.6,1,0
,,65b84104763d1e7cd0d60507,66fc983ae56cb38035f3b1ae,2024-10-02_10h56.14.148,mdp,2024.2.1,Win32,60.24096386,66fa4ebf79326e780c390304,,,,,,,,,,,,,,,,,,,,,767.1202,767.1202,767.1213,768.6028,1,1,right,0.9467,,768.6036,769.7868,0,1,left,769.7879,770.5365,1,0,right,1,770.5366,770.5366,770.5376,772.0366,0,27,27,27,1,0.6,0.4,0.4,0.6,,,,,,,,,,,,,,,0.668,,0.2,0.8,0.8,0.2,0.4,0.6,0.2,0.8,,,0.2213,,0.4,0.6,0.6,0.4,0.4,0.6,0.4,0.6,1,0
,,65b84104763d1e7cd0d60507,66fc983ae56cb38035f3b1ae,2024-10-02_10h56.14.148,mdp,2024.2.1,Win32,60.24096386,66fa4ebf79326e780c390304,,,,,,,,,,,,,,,,,,,,,772.0369,772.0369,772.0378,773.07,1,1,right,0.4989,,773.0709,774.0033,0,0,left,774.0044,775.6032,1,1,right,0,775.6033,775.6033,775.6045,777.1032,0,28,28,28,1,0.6,0.4,0.4,0.6,,,,,,,,,,,,,,,0.41,,0.2,0.8,0.8,0.2,0.4,0.6,0.2,0.8,,,1.0675,,0.4,0.6,0.6,0.4,0.4,0.6,0.4,0.6,1,0
,,65b84104763d1e7cd0d60507,66fc983ae56cb38035f3b1ae,2024-10-02_10h56.14.148,mdp,2024.2.1,Win32,60.24096386,66fa4ebf79326e780c390304,,,,,,,,,,,,,,,,,,,,,777.1036,777.1036,777.1045,778.0698,1,0,right,0.4446,,778.0708,779.2365,1,0,right,779.2373,780.2032,1,0,right,1,780.2033,780.2033,780.2045,781.703,0,29,29,29,1,0.6,0.4,0.4,0.6,,,,,,,,,,,,,,,0.6581,,0.2,0.8,0.8,0.2,0.4,0.6,0.2,0.8,,,0.438,,0.4,0.6,0.6,0.4,0.4,0.6,0.4,0.6,1,0
,,65b84104763d1e7cd0d60507,66fc983ae56cb38035f3b1ae,2024-10-02_10h56.14.148,mdp,2024.2.1,Win32,60.24096386,66fa4ebf79326e780c390304,,,,,,,,,,,,,,,,,,,,,781.7034,781.7034,781.7044,782.8032,1,0,right,0.5722,,782.804,783.903,1,1,right,783.9037,785.32,0,1,left,0,785.3201,785.3201,785.3208,786.8199,0,30,30,30,1,0.6,0.4,0.4,0.6,,,,,,,,,,,,,,,0.5726,,0.2,0.8,0.8,0.2,0.4,0.6,0.2,0.8,,,0.905,,0.4,0.6,0.6,0.4,0.4,0.6,0.4,0.6,1,0
,,65b84104763d1e7cd0d60507,66fc983ae56cb38035f3b1ae,2024-10-02_10h56.14.148,mdp,2024.2.1,Win32,60.24096386,66fa4ebf79326e780c390304,,,,,,,,,,,,,,,,,,,,,786.8202,786.8203,786.821,787.7869,1,1,right,0.4392,,787.788,789.12,0,0,left,789.121,790.5036,1,0,right,1,790.5036,790.5036,790.5045,792.0034,0,31,31,31,1,0.6,0.4,0.4,0.6,,,,,,,,,,,,,,,0.8047,,0.2,0.8,0.8,0.2,0.4,0.6,0.2,0.8,,,0.8714,,0.4,0.6,0.6,0.4,0.6,0.4,0.2,0.8,1,0
,,65b84104763d1e7cd0d60507,66fc983ae56cb38035f3b1ae,2024-10-02_10h56.14.148,mdp,2024.2.1,Win32,60.24096386,66fa4ebf79326e780c390304,,,,,,,,,,,,,,,,,,,,,792.0037,792.0037,792.0045,792.9537,1,0,right,0.4205,,792.9546,794.2701,1,0,right,794.2711,795.4036,1,0,right,1,795.4036,795.4036,795.4047,796.9033,0,32,32,32,1,0.6,0.4,0.4,0.6,,,,,,,,,,,,,,,0.79,,0.2,0.8,0.8,0.2,0.4,0.6,0.2,0.8,,,0.6176,,0.4,0.6,0.6,0.4,0.6,0.4,0.2,0.8,1,0
,,65b84104763d1e7cd0d60507,66fc983ae56cb38035f3b1ae,2024-10-02_10h56.14.148,mdp,2024.2.1,Win32,60.24096386,66fa4ebf79326e780c390304,,,,,,,,,,,,,,,,,,,,,796.9034,796.9034,796.9041,797.7702,1,1,right,0.3567,,797.771,798.9368,0,0,left,798.9377,800.2871,1,0,right,1,800.2871,800.2871,800.2878,801.787,0,33,33,33,1,0.6,0.4,0.4,0.6,,,,,,,,,,,,,,,0.6366,,0.2,0.8,0.8,0.2,0.4,0.6,0.2,0.8,,,0.8267,,0.4,0.6,0.6,0.4,0.6,0.4,0.2,0.8,1,0
,,65b84104763d1e7cd0d60507,66fc983ae56cb38035f3b1ae,2024-10-02_10h56.14.148,mdp,2024.2.1,Win32,60.24096386,66fa4ebf79326e780c390304,,,,,,,,,,,,,,,,,,,,,801.7875,801.7875,801.7883,802.9703,1,0,right,0.656,,802.9713,804.1703,1,0,right,804.1712,805.0871,1,0,right,1,805.0871,805.0871,805.088,806.587,0,34,34,34,1,0.6,0.4,0.4,0.6,,,,,,,,,,,,,,,0.6668,,0.2,0.8,0.8,0.2,0.4,0.6,0.2,0.8,,,0.3846,,0.4,0.6,0.6,0.4,0.6,0.4,0.2,0.8,1,0
,,65b84104763d1e7cd0d60507,66fc983ae56cb38035f3b1ae,2024-10-02_10h56.14.148,mdp,2024.2.1,Win32,60.24096386,66fa4ebf79326e780c390304,,,,,,,,,,,,,,,,,,,,,806.5873,806.5873,806.5883,807.5538,1,0,right,0.4412,,807.5547,808.7704,1,0,right,808.7713,809.5874,1,0,right,1,809.5877,809.5877,809.5885,811.087,0,35,35,35,1,0.8,0.2,0.8,0.2,,,,,,,,,,,,,,,0.6836,,0.2,0.8,0.8,0.2,0.4,0.6,0.2,0.8,,,0.3061,,0.4,0.6,0.6,0.4,0.6,0.4,0.2,0.8,1,0
,,65b84104763d1e7cd0d60507,66fc983ae56cb38035f3b1ae,2024-10-02_10h56.14.148,mdp,2024.2.1,Win32,60.24096386,66fa4ebf79326e780c390304,,,,,,,,,,,,,,,,,,,,,811.0873,811.0873,811.0883,812.0372,1,1,right,0.4164,,812.0379,812.9873,1,1,right,812.9885,813.9705,1,1,right,0,813.9706,813.9706,813.9716,815.4705,0,36,36,36,1,0.8,0.2,0.8,0.2,,,,,,,,,,,,,,,0.4339,,0.2,0.8,0.8,0.2,0.4,0.6,0.2,0.8,,,0.4517,,0.4,0.6,0.6,0.4,0.6,0.4,0.2,0.8,1,0
,,65b84104763d1e7cd0d60507,66fc983ae56cb38035f3b1ae,2024-10-02_10h56.14.148,mdp,2024.2.1,Win32,60.24096386,66fa4ebf79326e780c390304,,,,,,,,,,,,,,,,,,,,,815.4709,815.4709,815.4718,816.4374,1,0,right,0.4372,,816.4384,817.7373,1,0,right,817.7384,818.6874,1,0,right,1,818.6875,818.6875,818.6883,820.1876,0,37,37,37,1,0.4,0.6,0.6,0.4,,,,,,,,,,,,,,,0.7703,,0.2,0.8,0.8,0.2,0.4,0.6,0.2,0.8,,,0.4381,,0.4,0.6,0.6,0.4,0.6,0.4,0.2,0.8,1,0
,,65b84104763d1e7cd0d60507,66fc983ae56cb38035f3b1ae,2024-10-02_10h56.14.148,mdp,2024.2.1,Win32,60.24096386,66fa4ebf79326e780c390304,,,,,,,,,,,,,,,,,,,,,820.1879,820.1879,820.1888,821.2541,1,0,right,0.5356,,821.255,823.2373,1,1,right,823.2382,824.3206,1,1,right,0,824.3206,824.3206,824.3212,825.821,0,38,38,38,1,0.4,0.6,0.6,0.4,,,,,,,,,,,,,,,1.4699,,0.2,0.8,0.8,0.2,0.4,0.6,0.2,0.8,,,0.5461,,0.4,0.6,0.6,0.4,0.6,0.4,0.2,0.8,1,0
,,65b84104763d1e7cd0d60507,66fc983ae56cb38035f3b1ae,2024-10-02_10h56.14.148,mdp,2024.2.1,Win32,60.24096386,66fa4ebf79326e780c390304,,,,,,,,,,,,,,,,,,,,,825.8214,825.8214,825.8221,826.8542,1,1,right,0.5087,,826.855,828.038,0,1,left,828.0394,828.8877,1,0,right,1,828.8878,828.8878,828.8888,830.3876,0,39,39,39,1,0.4,0.6,0.6,0.4,,,,,,,,,,,,,,,0.6486,,0.2,0.8,0.8,0.2,0.4,0.6,0.2,0.8,,,0.3266,,0.4,0.6,0.6,0.4,0.6,0.4,0.2,0.8,1,0
,,65b84104763d1e7cd0d60507,66fc983ae56cb38035f3b1ae,2024-10-02_10h56.14.148,mdp,2024.2.1,Win32,60.24096386,66fa4ebf79326e780c390304,,,,,,,,,,,,,,,,,,,,,830.3881,830.3881,830.3889,831.4876,1,0,right,0.5726,,831.4885,832.7379,1,1,right,832.7391,834.0209,0,0,left,1,834.021,834.021,834.0215,835.521,0,40,40,40,1,0.4,0.6,0.6,0.4,,,,,,,,,,,,,,,0.7331,,0.2,0.8,0.8,0.2,0.4,0.6,0.2,0.8,,,0.7535,,0.4,0.6,0.6,0.4,0.6,0.4,0.2,0.8,1,0
,,65b84104763d1e7cd0d60507,66fc983ae56cb38035f3b1ae,2024-10-02_10h56.14.148,mdp,2024.2.1,Win32,60.24096386,66fa4ebf79326e780c390304,,,,,,,,,,,,,,,,,,,,,835.5215,835.5215,835.5224,836.5042,1,0,right,0.4586,,836.5048,838.8045,1,0,right,838.8056,839.9547,1,0,right,1,839.9547,839.9547,839.9555,841.4545,0,41,41,41,1,0.4,0.6,0.6,0.4,,,,,,,,,,,,,,,1.7876,,0.2,0.8,0.8,0.2,0.4,0.6,0.2,0.8,,,0.6181,,0.4,0.6,0.6,0.4,0.6,0.4,0.2,0.8,1,0
,,65b84104763d1e7cd0d60507,66fc983ae56cb38035f3b1ae,2024-10-02_10h56.14.148,mdp,2024.2.1,Win32,60.24096386,66fa4ebf79326e780c390304,,,,,,,,,,,,,,,,,,,,,841.4548,841.4548,841.4556,842.2711,1,0,right,0.2927,,842.272,843.421,1,0,right,843.4218,844.5878,1,1,right,0,844.5879,844.5879,844.5885,846.0879,0,42,42,42,1,0.4,0.6,0.6,0.4,,,,,,,,,,,,,,,0.6248,,0.2,0.8,0.8,0.2,0.4,0.6,0.2,0.8,,,0.655,,0.4,0.6,0.6,0.4,0.6,0.4,0.2,0.8,1,0
,,65b84104763d1e7cd0d60507,66fc983ae56cb38035f3b1ae,2024-10-02_10h56.14.148,mdp,2024.2.1,Win32,60.24096386,66fa4ebf79326e780c390304,,,,,,,,,,,,,,,,,,,,,846.0884,846.0884,846.0893,847.2052,1,0,right,0.5876,,847.2062,848.1881,1,0,right,848.1892,849.2549,1,1,right,0,849.255,849.255,849.2558,850.7548,0,43,43,43,1,0.4,0.6,0.6,0.4,,,,,,,,,,,,,,,0.4549,,0.2,0.8,0.8,0.2,0.6,0.4,0.4,0.6,,,0.5353,,0.4,0.6,0.6,0.4,0.6,0.4,0.2,0.8,1,0
,,65b84104763d1e7cd0d60507,66fc983ae56cb38035f3b1ae,2024-10-02_10h56.14.148,mdp,2024.2.1,Win32,60.24096386,66fa4ebf79326e780c390304,,,,,,,,,,,,,,,,,,,,,850.7554,850.7554,850.7561,851.7046,1,0,right,0.4181,,851.7056,852.6381,1,0,right,852.639,853.4382,1,1,right,0,853.4383,853.4383,853.439,854.9381,0,44,44,44,1,0.4,0.6,0.6,0.4,,,,,,,,,,,,,,,0.4157,,0.2,0.8,0.8,0.2,0.6,0.4,0.4,0.6,,,0.2753,,0.8,0.2,0.4,0.6,0.6,0.4,0.2,0.8,1,0
,,65b84104763d1e7cd0d60507,66fc983ae56cb38035f3b1ae,2024-10-02_10h56.14.148,mdp,2024.2.1,Win32,60.24096386,66fa4ebf79326e780c390304,,,,,,,,,,,,,,,,,,,,,854.9385,854.9385,854.9392,855.9381,1,1,right,0.4742,,855.939,857.2049,0,1,left,857.2062,858.0383,1,1,right,0,858.0383,858.0383,858.0393,859.538,0,45,45,45,1,0.4,0.6,0.6,0.4,,,,,,,,,,,,,,,0.7493,,0.2,0.8,0.8,0.2,0.6,0.4,0.4,0.6,,,0.3147,,0.8,0.2,0.4,0.6,0.6,0.4,0.2,0.8,1,0
,,65b84104763d1e7cd0d60507,66fc983ae56cb38035f3b1ae,2024-10-02_10h56.14.148,mdp,2024.2.1,Win32,60.24096386,66fa4ebf79326e780c390304,,,,,,,,,,,,,,,,,,,,,859.5383,859.5383,859.5392,860.555,1,1,right,0.5138,,860.5559,862.0216,0,0,left,862.0229,863.772,1,1,right,0,863.7721,863.7721,863.7732,865.2718,0,46,46,46,1,0.4,0.6,0.6,0.4,,,,,,,,,,,,,,,0.941,,0.2,0.8,0.8,0.2,0.6,0.4,0.4,0.6,,,1.218,,0.8,0.2,0.4,0.6,0.6,0.4,0.2,0.8,1,0
,,65b84104763d1e7cd0d60507,66fc983ae56cb38035f3b1ae,2024-10-02_10h56.14.148,mdp,2024.2.1,Win32,60.24096386,66fa4ebf79326e780c390304,,,,,,,,,,,,,,,,,,,,,865.2723,865.2723,865.2731,866.5718,0,1,left,0.7729,,866.5728,868.5884,1,0,right,868.5892,869.4386,0,0,left,1,869.4387,869.4387,869.4397,870.9384,0,47,47,47,1,0.4,0.6,0.6,0.4,,,,,,,,,,,,,,,1.4958,,0.2,0.8,0.8,0.2,0.6,0.4,0.4,0.6,,,0.3358,,0.8,0.2,0.4,0.6,0.6,0.4,0.2,0.8,1,0
,,65b84104763d1e7cd0d60507,66fc983ae56cb38035f3b1ae,2024-10-02_10h56.14.148,mdp,2024.2.1,Win32,60.24096386,66fa4ebf79326e780c390304,,,,,,,,,,,,,,,,,,,,,870.9389,870.9389,870.9397,871.9218,0,0,left,0.4526,,871.9227,872.805,1,0,right,872.8056,873.5885,0,0,left,1,873.5885,873.5885,873.5892,875.0885,0,48,48,48,1,0.6,0.4,0.4,0.6,,,,,,,,,,,,,,,0.3576,,0.2,0.8,0.8,0.2,0.6,0.4,0.4,0.6,,,0.2793,,0.8,0.2,0.4,0.6,0.6,0.4,0.2,0.8,1,0
,,65b84104763d1e7cd0d60507,66fc983ae56cb38035f3b1ae,2024-10-02_10h56.14.148,mdp,2024.2.1,Win32,60.24096386,66fa4ebf79326e780c390304,,,,,,,,,,,,,,,,,,,,,875.089,875.089,875.0899,875.9718,0,0,left,0.3503,,875.9726,876.8554,1,0,right,876.8563,877.6889,0,0,left,1,877.6889,877.6889,877.6898,879.1886,0,49,49,49,1,0.6,0.4,0.4,0.6,,,,,,,,,,,,,,,0.3732,,0.2,0.8,0.8,0.2,0.6,0.4,0.4,0.6,,,0.3091,,0.8,0.2,0.4,0.6,0.6,0.4,0.2,0.8,1,0
,,65b84104763d1e7cd0d60507,66fc983ae56cb38035f3b1ae,2024-10-02_10h56.14.148,mdp,2024.2.1,Win32,60.24096386,66fa4ebf79326e780c390304,,,,,,,,,,,,,,,,,,,,,,,,,,,,,,,,,,,,,,,,,,,,,,,,,,,,,,,,879.1887,937.6896,0,2,2,5,1,imgs/cat.png,imgs/kangaroo.png,imgs/horse.png,imgs/squirrel.png,imgs/rabbit.png,,,,,,,,,,,,,,,,,,,,,,,,
,,65b84104763d1e7cd0d60507,66fc983ae56cb38035f3b1ae,2024-10-02_10h56.14.148,mdp,2024.2.1,Win32,60.24096386,66fa4ebf79326e780c390304,,,,,,,,,,,,,,3,seqs/st3seq22.csv,937.6975,946.2732,space,8.0508,,946.2832,946.2832,946.2837,949.657,1,1,right,2.85,,949.6579,950.4567,1,0,right,950.4574,951.1903,1,1,right,0,951.1903,951.1903,951.1913,952.6903,0,0,0,0,1,0.6,0.4,0.4,0.6,,,,,,,,,,,,,,,0.2709,,0.8,0.2,0.6,0.4,0.2,0.8,0.8,0.2,,,0.1991,,0.4,0.6,0.2,0.8,0.8,0.2,0.2,0.8,1,0
,,65b84104763d1e7cd0d60507,66fc983ae56cb38035f3b1ae,2024-10-02_10h56.14.148,mdp,2024.2.1,Win32,60.24096386,66fa4ebf79326e780c390304,,,,,,,,,,,,,,,,,,,,,952.6906,952.6907,952.6913,953.6737,1,1,right,0.4499,,953.6749,954.3069,1,0,right,954.3077,955.5405,0,1,left,0,955.5406,955.5406,955.5416,957.0406,0,1,1,1,1,0.6,0.4,0.4,0.6,,,,,,,,,,,,,,,0.0965,,0.8,0.2,0.6,0.4,0.2,0.8,0.8,0.2,,,0.7008,,0.4,0.6,0.2,0.8,0.8,0.2,0.2,0.8,1,0
,,65b84104763d1e7cd0d60507,66fc983ae56cb38035f3b1ae,2024-10-02_10h56.14.148,mdp,2024.2.1,Win32,60.24096386,66fa4ebf79326e780c390304,,,,,,,,,,,,,,,,,,,,,957.041,957.041,957.0419,958.6738,0,0,left,1.1084,,958.675,959.9905,0,0,left,959.9914,960.7402,0,1,left,0,960.7402,960.7402,960.7411,962.2405,0,2,2,2,1,0.6,0.4,0.4,0.6,,,,,,,,,,,,,,,0.7994,,0.8,0.2,0.6,0.4,0.2,0.8,0.8,0.2,,,0.2467,,0.4,0.6,0.2,0.8,0.8,0.2,0.2,0.8,1,0
,,65b84104763d1e7cd0d60507,66fc983ae56cb38035f3b1ae,2024-10-02_10h56.14.148,mdp,2024.2.1,Win32,60.24096386,66fa4ebf79326e780c390304,,,,,,,,,,,,,,,,,,,,,962.2409,962.2409,962.2418,963.2074,0,1,left,0.444,,963.2082,964.0068,1,0,right,964.0074,964.7075,0,0,left,1,964.7076,964.7076,964.7087,966.2072,0,3,3,3,1,0.6,0.4,0.4,0.6,,,,,,,,,,,,,,,0.2728,,0.8,0.2,0.6,0.4,0.2,0.8,0.8,0.2,,,0.1899,,0.6,0.4,0.6,0.4,0.8,0.2,0.2,0.8,1,0
,,65b84104763d1e7cd0d60507,66fc983ae56cb38035f3b1ae,2024-10-02_10h56.14.148,mdp,2024.2.1,Win32,60.24096386,66fa4ebf79326e780c390304,,,,,,,,,,,,,,,,,,,,,966.2075,966.2076,966.2085,967.0907,0,1,left,0.3539,,967.0916,967.8907,1,0,right,967.8916,968.7074,0,0,left,1,968.7075,968.7075,968.7085,970.2073,0,4,4,4,1,0.6,0.4,0.4,0.6,,,,,,,,,,,,,,,0.2734,,0.8,0.2,0.6,0.4,0.2,0.8,0.8,0.2,,,0.2874,,0.6,0.4,0.6,0.4,0.8,0.2,0.2,0.8,1,0
,,65b84104763d1e7cd0d60507,66fc983ae56cb38035f3b1ae,2024-10-02_10h56.14.148,mdp,2024.2.1,Win32,60.24096386,66fa4ebf79326e780c390304,,,,,,,,,,,,,,,,,,,,,970.2076,970.2076,970.2084,971.0572,0,1,left,0.3135,,971.0579,971.8406,1,0,right,971.8415,972.6405,0,0,left,1,972.6406,972.6406,972.6417,974.1406,0,5,5,5,1,0.6,0.4,0.4,0.6,,,,,,,,,,,,,,,0.2637,,0.8,0.2,0.6,0.4,0.2,0.8,0.8,0.2,,,0.2799,,0.6,0.4,0.6,0.4,0.8,0.2,0.2,0.8,1,0
,,65b84104763d1e7cd0d60507,66fc983ae56cb38035f3b1ae,2024-10-02_10h56.14.148,mdp,2024.2.1,Win32,60.24096386,66fa4ebf79326e780c390304,,,,,,,,,,,,,,,,,,,,,974.141,974.141,974.1421,974.9909,0,0,left,0.3286,,974.9916,975.8908,1,0,right,975.8917,976.7078,0,0,left,1,976.7079,976.7079,976.7089,978.2074,0,6,6,6,1,0.6,0.4,0.4,0.6,,,,,,,,,,,,,,,0.3658,,0.8,0.2,0.6,0.4,0.2,0.8,0.8,0.2,,,0.284,,0.6,0.4,0.6,0.4,0.8,0.2,0.2,0.8,1,0
,,65b84104763d1e7cd0d60507,66fc983ae56cb38035f3b1ae,2024-10-02_10h56.14.148,mdp,2024.2.1,Win32,60.24096386,66fa4ebf79326e780c390304,,,,,,,,,,,,,,,,,,,,,978.2077,978.2077,978.2085,979.0906,0,0,left,0.3567,,979.0915,980.091,1,0,right,980.092,980.941,0,0,left,1,980.9411,980.9411,980.9421,982.441,0,7,7,7,1,0.6,0.4,0.4,0.6,,,,,,,,,,,,,,,0.4843,,0.8,0.2,0.6,0.4,0.2,0.8,0.8,0.2,,,0.3375,,0.6,0.4,0.6,0.4,0.8,0.2,0.2,0.8,1,0
,,65b84104763d1e7cd0d60507,66fc983ae56cb38035f3b1ae,2024-10-02_10h56.14.148,mdp,2024.2.1,Win32,60.24096386,66fa4ebf79326e780c390304,,,,,,,,,,,,,,,,,,,,,982.4416,982.4416,982.4423,983.2246,1,0,right,0.2467,,983.2254,984.0408,0,0,left,984.0417,984.791,1,0,right,1,984.7911,984.7911,984.7919,986.2912,0,8,8,8,1,0.6,0.4,0.4,0.6,,,,,,,,,,,,,,,0.2881,,0.8,0.2,0.6,0.4,0.2,0.8,0.8,0.2,,,0.2365,,0.6,0.4,0.6,0.4,0.8,0.2,0.2,0.8,1,0
,,65b84104763d1e7cd0d60507,66fc983ae56cb38035f3b1ae,2024-10-02_10h56.14.148,mdp,2024.2.1,Win32,60.24096386,66fa4ebf79326e780c390304,,,,,,,,,,,,,,,,,,,,,986.2918,986.2918,986.2924,987.0912,0,1,left,0.2736,,987.0921,987.7242,1,0,right,987.7251,988.4913,0,0,left,1,988.4913,988.4913,988.4924,989.9909,0,9,9,9,1,0.6,0.4,0.4,0.6,,,,,,,,,,,,,,,0.1094,,0.8,0.2,0.6,0.4,0.2,0.8,0.8,0.2,,,0.2533,,0.6,0.4,0.6,0.4,0.8,0.2,0.2,0.8,1,0
,,65b84104763d1e7cd0d60507,66fc983ae56cb38035f3b1ae,2024-10-02_10h56.14.148,mdp,2024.2.1,Win32,60.24096386,66fa4ebf79326e780c390304,,,,,,,,,,,,,,,,,,,,,989.9912,989.9912,989.992,990.8242,0,0,left,0.3093,,990.8248,991.5741,1,0,right,991.5749,992.3909,0,1,left,0,992.391,992.391,992.3917,993.8909,0,10,10,10,1,0.6,0.4,0.4,0.6,,,,,,,,,,,,,,,0.2236,,0.8,0.2,0.6,0.4,0.2,0.8,0.8,0.2,,,0.2941,,0.6,0.4,0.6,0.4,0.8,0.2,0.2,0.8,1,0
,,65b84104763d1e7cd0d60507,66fc983ae56cb38035f3b1ae,2024-10-02_10h56.14.148,mdp,2024.2.1,Win32,60.24096386,66fa4ebf79326e780c390304,,,,,,,,,,,,,,,,,,,,,993.8913,993.8913,993.8923,994.8912,0,0,left,0.4705,,994.8921,995.8744,1,0,right,995.8754,996.6412,1,0,right,1,996.6412,996.6412,996.6419,998.1409,0,11,11,11,1,0.6,0.4,0.4,0.6,,,,,,,,,,,,,,,0.4544,,0.8,0.2,0.6,0.4,0.2,0.8,0.8,0.2,,,0.2338,,0.6,0.4,0.6,0.4,0.8,0.2,0.2,0.8,1,0
,,65b84104763d1e7cd0d60507,66fc983ae56cb38035f3b1ae,2024-10-02_10h56.14.148,mdp,2024.2.1,Win32,60.24096386,66fa4ebf79326e780c390304,,,,,,,,,,,,,,,,,,,,,998.1413,998.1413,998.1422,999.0079,0,1,left,0.3354,,999.0087,1000.308,1,0,right,1000.3089,1001.1081,0,0,left,1,1001.1081,1001.1082,1001.1091,1002.608,0,12,12,12,1,0.4,0.6,0.2,0.8,,,,,,,,,,,,,,,0.7694,,0.8,0.2,0.6,0.4,0.2,0.8,0.8,0.2,,,0.2636,,0.6,0.4,0.6,0.4,0.8,0.2,0.2,0.8,1,0
,,65b84104763d1e7cd0d60507,66fc983ae56cb38035f3b1ae,2024-10-02_10h56.14.148,mdp,2024.2.1,Win32,60.24096386,66fa4ebf79326e780c390304,,,,,,,,,,,,,,,,,,,,,1002.6085,1002.6085,1002.6092,1003.4581,0,1,left,0.3167,,1003.4593,1004.6583,1,0,right,1004.6592,1006.4747,0,0,left,1,1006.4748,1006.4748,1006.4756,1007.9753,0,13,13,13,1,0.4,0.6,0.2,0.8,,,,,,,,,,,,,,,0.6704,,0.8,0.2,0.6,0.4,0.2,0.8,0.8,0.2,,,1.2874,,0.6,0.4,0.6,0.4,0.8,0.2,0.2,0.8,1,0
,,65b84104763d1e7cd0d60507,66fc983ae56cb38035f3b1ae,2024-10-02_10h56.14.148,mdp,2024.2.1,Win32,60.24096386,66fa4ebf79326e780c390304,,,,,,,,,,,,,,,,,,,,,1007.9757,1007.9757,1007.9767,1009.0079,0,0,left,0.5093,,1009.0085,1010.1249,1,1,right,1010.1257,1010.9416,1,1,right,0,1010.9416,1010.9416,1010.9424,1012.4415,0,14,14,14,1,0.4,0.6,0.2,0.8,,,,,,,,,,,,,,,0.601,,0.8,0.2,0.6,0.4,0.4,0.6,0.2,0.8,,,0.2829,,0.6,0.4,0.6,0.4,0.8,0.2,0.2,0.8,1,0
,,65b84104763d1e7cd0d60507,66fc983ae56cb38035f3b1ae,2024-10-02_10h56.14.148,mdp,2024.2.1,Win32,60.24096386,66fa4ebf79326e780c390304,,,,,,,,,,,,,,,,,,,,,1012.442,1012.442,1012.4426,1013.5081,0,1,left,0.5383,,1013.509,1017.7084,1,0,right,1017.716,1018.6084,0,1,left,0,1018.6084,1018.6084,1018.6092,1020.1086,0,15,15,15,1,0.4,0.6,0.2,0.8,,,,,,,,,,,,,,,3.679,,0.8,0.2,0.6,0.4,0.4,0.6,0.2,0.8,,,0.3665,,0.6,0.4,0.6,0.4,0.8,0.2,0.2,0.8,1,0
,,65b84104763d1e7cd0d60507,66fc983ae56cb38035f3b1ae,2024-10-02_10h56.14.148,mdp,2024.2.1,Win32,60.24096386,66fa4ebf79326e780c390304,,,,,,,,,,,,,,,,,,,,,1020.109,1020.109,1020.1098,1021.1918,0,1,left,0.5541,,1021.1929,1021.9919,1,1,right,1021.993,1023.3751,1,0,right,1,1023.3752,1023.3752,1023.3761,1024.8752,0,16,16,16,1,0.4,0.6,0.2,0.8,,,,,,,,,,,,,,,0.2851,,0.8,0.2,0.6,0.4,0.4,0.6,0.2,0.8,,,0.8573,,0.6,0.4,0.6,0.4,0.8,0.2,0.2,0.8,1,0
,,65b84104763d1e7cd0d60507,66fc983ae56cb38035f3b1ae,2024-10-02_10h56.14.148,mdp,2024.2.1,Win32,60.24096386,66fa4ebf79326e780c390304,,,,,,,,,,,,,,,,,,,,,1024.8756,1024.8756,1024.8763,1025.7918,0,1,left,0.3944,,1025.7926,1026.7252,1,1,right,1026.7263,1027.4421,1,1,right,0,1027.4422,1027.4422,1027.4433,1043.6629,0,17,17,17,1,0.2,0.8,0.8,0.2,,,,,,,,,,,,,,,0.4295,,0.8,0.2,0.6,0.4,0.4,0.6,0.2,0.8,,,0.1838,,0.6,0.4,0.6,0.4,0.8,0.2,0.2,0.8,1,0
,,65b84104763d1e7cd0d60507,66fc983ae56cb38035f3b1ae,2024-10-02_10h56.14.148,mdp,2024.2.1,Win32,60.24096386,66fa4ebf79326e780c390304,,,,,,,,,,,,,,,,,,,,,1043.6703,1043.6703,1043.6709,1045.2255,0,0,left,1.0407,,1045.2264,1045.7755,1,0,right,1045.7764,1046.5089,0,0,left,1,1046.509,1046.509,1046.5097,1048.0087,0,18,18,18,1,0.2,0.8,0.8,0.2,,,,,,,,,,,,,,,0.0151,,0.8,0.2,0.6,0.4,0.4,0.6,0.2,0.8,,,0.2089,,0.6,0.4,0.6,0.4,0.8,0.2,0.2,0.8,1,0
,,65b84104763d1e7cd0d60507,66fc983ae56cb38035f3b1ae,2024-10-02_10h56.14.148,mdp,2024.2.1,Win32,60.24096386,66fa4ebf79326e780c390304,,,,,,,,,,,,,,,,,,,,,1048.009,1048.009,1048.0097,1048.8925,0,0,left,0.3518,,1048.8936,1049.5924,1,0,right,1049.5934,1050.2591,0,0,left,1,1050.2592,1050.2592,1050.2605,1051.7591,0,19,19,19,1,0.2,0.8,0.8,0.2,,,,,,,,,,,,,,,0.1644,,0.8,0.2,0.6,0.4,0.4,0.6,0.2,0.8,,,0.1538,,0.8,0.2,0.8,0.2,0.8,0.2,0.2,0.8,1,0
,,65b84104763d1e7cd0d60507,66fc983ae56cb38035f3b1ae,2024-10-02_10h56.14.148,mdp,2024.2.1,Win32,60.24096386,66fa4ebf79326e780c390304,,,,,,,,,,,,,,,,,,,,,1051.7594,1051.7594,1051.7601,1052.2922,0,1,left,0.0023,,1052.2931,1052.8756,1,1,right,1052.8765,1053.5758,0,1,left,0,1053.5758,1053.5758,1053.5767,1055.0757,0,20,20,20,1,0.2,0.8,0.8,0.2,,,,,,,,,,,,,,,0.052,,0.8,0.2,0.6,0.4,0.4,0.6,0.2,0.8,,,0.1729,,0.8,0.2,0.8,0.2,0.8,0.2,0.2,0.8,1,0
,,65b84104763d1e7cd0d60507,66fc983ae56cb38035f3b1ae,2024-10-02_10h56.14.148,mdp,2024.2.1,Win32,60.24096386,66fa4ebf79326e780c390304,,,,,,,,,,,,,,,,,,,,,1055.076,1055.076,1055.0768,1055.6094,1,0,right,0.0002,,1055.6105,1056.2756,0,0,left,1056.2763,1057.0926,1,1,right,0,1057.0926,1057.0926,1057.0933,1058.5924,0,21,21,21,1,0.2,0.8,0.8,0.2,,,,,,,,,,,,,,,0.1431,,0.8,0.2,0.6,0.4,0.4,0.6,0.2,0.8,,,0.2993,,0.4,0.6,0.2,0.8,0.8,0.2,0.2,0.8,1,0
,,65b84104763d1e7cd0d60507,66fc983ae56cb38035f3b1ae,2024-10-02_10h56.14.148,mdp,2024.2.1,Win32,60.24096386,66fa4ebf79326e780c390304,,,,,,,,,,,,,,,,,,,,,1058.5928,1058.5928,1058.5938,1059.7424,1,0,right,0.6248,,1059.7431,1060.4591,1,0,right,1060.4599,1061.276,1,1,right,0,1061.276,1061.276,1061.2767,1062.7761,0,22,22,22,1,0.2,0.8,0.8,0.2,,,,,,,,,,,,,,,0.1901,,0.8,0.2,0.6,0.4,0.4,0.6,0.2,0.8,,,0.3005,,0.4,0.6,0.2,0.8,0.8,0.2,0.2,0.8,1,0
,,65b84104763d1e7cd0d60507,66fc983ae56cb38035f3b1ae,2024-10-02_10h56.14.148,mdp,2024.2.1,Win32,60.24096386,66fa4ebf79326e780c390304,,,,,,,,,,,,,,,,,,,,,1062.7766,1062.7766,1062.7775,1063.6761,0,0,left,0.3813,,1063.6767,1065.0261,1,1,right,1065.027,1065.843,1,1,right,0,1065.843,1065.8431,1065.8441,1067.3426,0,23,23,23,1,0.2,0.8,0.8,0.2,,,,,,,,,,,,,,,0.8261,,0.4,0.6,0.4,0.6,0.4,0.6,0.2,0.8,,,0.2837,,0.4,0.6,0.2,0.8,0.8,0.2,0.2,0.8,1,0
,,65b84104763d1e7cd0d60507,66fc983ae56cb38035f3b1ae,2024-10-02_10h56.14.148,mdp,2024.2.1,Win32,60.24096386,66fa4ebf79326e780c390304,,,,,,,,,,,,,,,,,,,,,1067.343,1067.343,1067.3436,1068.1928,0,1,left,0.3213,,1068.1937,1069.2096,1,0,right,1069.2106,1069.9761,0,1,left,0,1069.9761,1069.9762,1069.9773,1071.476,0,24,24,24,1,0.2,0.8,0.8,0.2,,,,,,,,,,,,,,,0.4873,,0.4,0.6,0.4,0.6,0.4,0.6,0.2,0.8,,,0.2397,,0.4,0.6,0.2,0.8,0.8,0.2,0.2,0.8,1,0
,,65b84104763d1e7cd0d60507,66fc983ae56cb38035f3b1ae,2024-10-02_10h56.14.148,mdp,2024.2.1,Win32,60.24096386,66fa4ebf79326e780c390304,,,,,,,,,,,,,,,,,,,,,1071.4763,1071.4763,1071.4771,1072.1261,0,1,left,0.1294,,1072.1269,1072.726,1,1,right,1072.727,1073.393,0,0,left,1,1073.393,1073.393,1073.3939,1074.893,0,25,25,25,1,0.2,0.8,0.8,0.2,,,,,,,,,,,,,,,0.0794,,0.4,0.6,0.4,0.6,0.4,0.6,0.2,0.8,,,0.1387,,0.4,0.6,0.2,0.8,0.4,0.6,0.6,0.4,1,0
,,65b84104763d1e7cd0d60507,66fc983ae56cb38035f3b1ae,2024-10-02_10h56.14.148,mdp,2024.2.1,Win32,60.24096386,66fa4ebf79326e780c390304,,,,,,,,,,,,,,,,,,,,,1074.8934,1074.8934,1074.8943,1075.7594,0,1,left,0.3448,,1075.7601,1076.4596,1,1,right,1076.4605,1077.193,0,1,left,0,1077.193,1077.193,1077.1941,1078.6929,0,26,26,26,1,0.2,0.8,0.8,0.2,,,,,,,,,,,,,,,0.1859,,0.4,0.6,0.4,0.6,0.4,0.6,0.2,0.8,,,0.2215,,0.4,0.6,0.2,0.8,0.4,0.6,0.6,0.4,1,0
,,65b84104763d1e7cd0d60507,66fc983ae56cb38035f3b1ae,2024-10-02_10h56.14.148,mdp,2024.2.1,Win32,60.24096386,66fa4ebf79326e780c390304,,,,,,,,,,,,,,,,,,,,,1078.6934,1078.6934,1078.6944,1080.2764,0,1,left,1.0523,,1080.2774,1080.8766,1,1,right,1080.8776,1081.5262,1,0,right,1,1081.5262,1081.5262,1081.5271,1083.0263,0,27,27,27,1,0.2,0.8,0.8,0.2,,,,,,,,,,,,,,,0.0637,,0.8,0.2,0.2,0.8,0.4,0.6,0.2,0.8,,,0.1293,,0.4,0.6,0.2,0.8,0.4,0.6,0.6,0.4,1,0
,,65b84104763d1e7cd0d60507,66fc983ae56cb38035f3b1ae,2024-10-02_10h56.14.148,mdp,2024.2.1,Win32,60.24096386,66fa4ebf79326e780c390304,,,,,,,,,,,,,,,,,,,,,1083.0267,1083.0267,1083.0278,1083.9268,0,1,left,0.367,,1083.928,1084.8762,1,1,right,1084.8772,1085.5264,1,0,right,1,1085.5264,1085.5264,1085.5272,1087.0269,0,28,28,28,1,0.2,0.8,0.8,0.2,,,,,,,,,,,,,,,0.4214,,0.8,0.2,0.2,0.8,0.4,0.6,0.2,0.8,,,0.1204,,0.4,0.6,0.2,0.8,0.4,0.6,0.6,0.4,1,0
,,65b84104763d1e7cd0d60507,66fc983ae56cb38035f3b1ae,2024-10-02_10h56.14.148,mdp,2024.2.1,Win32,60.24096386,66fa4ebf79326e780c390304,,,,,,,,,,,,,,,,,,,,,1087.0275,1087.0275,1087.0283,1087.8767,0,1,left,0.3176,,1087.8776,1088.5766,1,1,right,1088.5775,1089.3931,1,0,right,1,1089.3931,1089.3931,1089.3941,1090.8933,0,29,29,29,1,0.2,0.8,0.8,0.2,,,,,,,,,,,,,,,0.1711,,0.8,0.2,0.2,0.8,0.4,0.6,0.2,0.8,,,0.2843,,0.4,0.6,0.2,0.8,0.4,0.6,0.6,0.4,1,0
,,65b84104763d1e7cd0d60507,66fc983ae56cb38035f3b1ae,2024-10-02_10h56.14.148,mdp,2024.2.1,Win32,60.24096386,66fa4ebf79326e780c390304,,,,,,,,,,,,,,,,,,,,,1090.8936,1090.8936,1090.8942,1092.1932,0,1,left,0.7672,,1092.1941,1093.0767,1,0,right,1093.0777,1093.8769,1,1,right,0,1093.877,1093.877,1093.8778,1095.3769,0,30,30,30,1,0.2,0.8,0.8,0.2,,,,,,,,,,,,,,,0.3473,,0.8,0.2,0.2,0.8,0.4,0.6,0.2,0.8,,,0.2637,,0.4,0.6,0.2,0.8,0.4,0.6,0.6,0.4,1,0
,,65b84104763d1e7cd0d60507,66fc983ae56cb38035f3b1ae,2024-10-02_10h56.14.148,mdp,2024.2.1,Win32,60.24096386,66fa4ebf79326e780c390304,,,,,,,,,,,,,,,,,,,,,1095.3773,1095.3773,1095.3783,1096.2267,0,1,left,0.3211,,1096.2276,1097.0101,1,1,right,1097.0113,1097.6767,0,1,left,0,1097.6768,1097.6768,1097.6779,1099.1767,0,31,31,31,1,0.2,0.8,0.8,0.2,,,,,,,,,,,,,,,0.2505,,0.8,0.2,0.2,0.8,0.4,0.6,0.2,0.8,,,0.1341,,0.4,0.6,0.2,0.8,0.4,0.6,0.6,0.4,1,0
,,65b84104763d1e7cd0d60507,66fc983ae56cb38035f3b1ae,2024-10-02_10h56.14.148,mdp,2024.2.1,Win32,60.24096386,66fa4ebf79326e780c390304,,,,,,,,,,,,,,,,,,,,,1099.1772,1099.1773,1099.1783,1099.8932,0,1,left,0.1968,,1099.8939,1100.6441,0,0,left,1100.645,1101.4603,0,1,left,0,1101.4604,1101.4604,1101.4614,1102.9602,0,32,32,32,1,0.2,0.8,0.8,0.2,,,,,,,,,,,,,,,0.2302,,0.8,0.2,0.2,0.8,0.4,0.6,0.2,0.8,,,0.2789,,0.4,0.6,0.2,0.8,0.4,0.6,0.6,0.4,1,0
,,65b84104763d1e7cd0d60507,66fc983ae56cb38035f3b1ae,2024-10-02_10h56.14.148,mdp,2024.2.1,Win32,60.24096386,66fa4ebf79326e780c390304,,,,,,,,,,,,,,,,,,,,,1102.9607,1102.9607,1102.9614,1104.1105,0,1,left,0.6215,,1104.1115,1104.9268,0,0,left,1104.9274,1105.7937,1,1,right,0,1105.7938,1105.7938,1105.7948,1107.2938,0,33,33,33,1,0.2,0.8,0.8,0.2,,,,,,,,,,,,,,,0.2919,,0.8,0.2,0.2,0.8,0.4,0.6,0.2,0.8,,,0.3381,,0.4,0.6,0.2,0.8,0.4,0.6,0.6,0.4,1,0
,,65b84104763d1e7cd0d60507,66fc983ae56cb38035f3b1ae,2024-10-02_10h56.14.148,mdp,2024.2.1,Win32,60.24096386,66fa4ebf79326e780c390304,,,,,,,,,,,,,,,,,,,,,1107.2941,1107.2941,1107.2952,1108.0767,0,1,left,0.2637,,1108.0773,1108.8606,1,1,right,1108.8617,1109.6271,0,1,left,0,1109.6272,1109.6272,1109.6284,1111.1269,0,34,34,34,1,0.2,0.8,0.8,0.2,,,,,,,,,,,,,,,0.2725,,0.8,0.2,0.2,0.8,0.4,0.6,0.2,0.8,,,0.2366,,0.4,0.6,0.2,0.8,0.4,0.6,0.6,0.4,1,0
,,65b84104763d1e7cd0d60507,66fc983ae56cb38035f3b1ae,2024-10-02_10h56.14.148,mdp,2024.2.1,Win32,60.24096386,66fa4ebf79326e780c390304,,,,,,,,,,,,,,,,,,,,,1111.1272,1111.1272,1111.128,1111.7936,0,0,left,0.1344,,1111.7943,1112.5938,1,1,right,1112.5946,1113.4606,1,0,right,1,1113.4607,1113.4607,1113.4615,1114.9605,0,35,35,35,1,0.2,0.8,0.8,0.2,,,,,,,,,,,,,,,0.288,,0.4,0.6,0.6,0.4,0.4,0.6,0.2,0.8,,,0.3482,,0.4,0.6,0.2,0.8,0.4,0.6,0.6,0.4,1,0
,,65b84104763d1e7cd0d60507,66fc983ae56cb38035f3b1ae,2024-10-02_10h56.14.148,mdp,2024.2.1,Win32,60.24096386,66fa4ebf79326e780c390304,,,,,,,,,,,,,,,,,,,,,1114.9609,1114.961,1114.9619,1115.7773,0,1,left,0.2925,,1115.7785,1116.5269,1,0,right,1116.5279,1117.3271,1,1,right,0,1117.3271,1117.3271,1117.3279,1118.8275,0,36,36,36,1,0.2,0.8,0.8,0.2,,,,,,,,,,,,,,,0.2238,,0.4,0.6,0.6,0.4,0.4,0.6,0.2,0.8,,,0.282,,0.4,0.6,0.2,0.8,0.4,0.6,0.6,0.4,1,0
,,65b84104763d1e7cd0d60507,66fc983ae56cb38035f3b1ae,2024-10-02_10h56.14.148,mdp,2024.2.1,Win32,60.24096386,66fa4ebf79326e780c390304,,,,,,,,,,,,,,,,,,,,,1118.8279,1118.8279,1118.8285,1119.6775,0,0,left,0.317,,1119.6784,1120.544,1,1,right,1120.545,1121.3274,1,1,right,0,1121.3274,1121.3275,1121.3285,1122.8274,0,37,37,37,1,0.2,0.8,0.8,0.2,,,,,,,,,,,,,,,0.3332,,0.4,0.6,0.6,0.4,0.4,0.6,0.2,0.8,,,0.2496,,0.4,0.6,0.2,0.8,0.4,0.6,0.6,0.4,1,0
,,65b84104763d1e7cd0d60507,66fc983ae56cb38035f3b1ae,2024-10-02_10h56.14.148,mdp,2024.2.1,Win32,60.24096386,66fa4ebf79326e780c390304,,,,,,,,,,,,,,,,,,,,,1122.8279,1122.8279,1122.8289,1124.8442,1,0,right,1.4869,,1124.845,1125.6941,0,1,left,1125.6952,1126.5106,1,0,right,1,1126.5106,1126.5107,1126.5113,1128.0111,0,38,38,38,1,0.2,0.8,0.8,0.2,,,,,,,,,,,,,,,0.3459,,0.4,0.6,0.6,0.4,0.4,0.6,0.2,0.8,,,0.2875,,0.4,0.6,0.2,0.8,0.4,0.6,0.6,0.4,1,0
,,65b84104763d1e7cd0d60507,66fc983ae56cb38035f3b1ae,2024-10-02_10h56.14.148,mdp,2024.2.1,Win32,60.24096386,66fa4ebf79326e780c390304,,,,,,,,,,,,,,,,,,,,,1128.0116,1128.0116,1128.0123,1128.9277,1,0,right,0.3864,,1128.9289,1129.7775,0,0,left,1129.7783,1130.7108,1,1,right,0,1130.7109,1130.7109,1130.7119,1132.2109,0,39,39,39,1,0.2,0.8,0.8,0.2,,,,,,,,,,,,,,,0.3222,,0.4,0.6,0.6,0.4,0.4,0.6,0.2,0.8,,,0.4153,,0.4,0.6,0.2,0.8,0.4,0.6,0.6,0.4,1,0
,,65b84104763d1e7cd0d60507,66fc983ae56cb38035f3b1ae,2024-10-02_10h56.14.148,mdp,2024.2.1,Win32,60.24096386,66fa4ebf79326e780c390304,,,,,,,,,,,,,,,,,,,,,1132.2112,1132.2113,1132.212,1133.0612,1,1,right,0.3231,,1133.0623,1133.9274,0,0,left,1133.9283,1134.6774,1,1,right,0,1134.6774,1134.6774,1134.6782,1136.1776,0,40,40,40,1,0.2,0.8,0.8,0.2,,,,,,,,,,,,,,,0.3405,,0.4,0.6,0.6,0.4,0.4,0.6,0.2,0.8,,,0.2473,,0.4,0.6,0.2,0.8,0.4,0.6,0.6,0.4,1,0
,,65b84104763d1e7cd0d60507,66fc983ae56cb38035f3b1ae,2024-10-02_10h56.14.148,mdp,2024.2.1,Win32,60.24096386,66fa4ebf79326e780c390304,,,,,,,,,,,,,,,,,,,,,1136.178,1136.178,1136.1789,1138.0942,1,0,right,1.3964,,1138.0949,1138.9611,1,0,right,1138.9619,1139.8943,0,0,left,1,1139.8944,1139.8944,1139.8952,1141.3944,0,41,41,41,1,0.2,0.8,0.8,0.2,,,,,,,,,,,,,,,0.3307,,0.4,0.6,0.6,0.4,0.4,0.6,0.2,0.8,,,0.4006,,0.4,0.6,0.2,0.8,0.4,0.6,0.6,0.4,1,0
,,65b84104763d1e7cd0d60507,66fc983ae56cb38035f3b1ae,2024-10-02_10h56.14.148,mdp,2024.2.1,Win32,60.24096386,66fa4ebf79326e780c390304,,,,,,,,,,,,,,,,,,,,,1141.3947,1141.3947,1141.3956,1143.3611,1,0,right,1.4346,,1143.3623,1144.0947,0,1,left,1144.0957,1145.0281,0,1,left,0,1145.0281,1145.0282,1145.0294,1146.5277,0,42,42,42,1,0.2,0.8,0.8,0.2,,,,,,,,,,,,,,,0.2125,,0.4,0.6,0.6,0.4,0.4,0.6,0.2,0.8,,,0.4025,,0.4,0.6,0.2,0.8,0.4,0.6,0.6,0.4,1,0
,,65b84104763d1e7cd0d60507,66fc983ae56cb38035f3b1ae,2024-10-02_10h56.14.148,mdp,2024.2.1,Win32,60.24096386,66fa4ebf79326e780c390304,,,,,,,,,,,,,,,,,,,,,1146.5281,1146.5281,1146.5291,1147.2613,1,0,right,0.2063,,1147.2621,1148.1112,0,1,left,1148.1123,1148.9613,0,1,left,0,1148.9614,1148.9614,1148.9623,1150.4613,0,43,43,43,1,0.2,0.8,0.8,0.2,,,,,,,,,,,,,,,0.3168,,0.4,0.6,0.6,0.4,0.4,0.6,0.2,0.8,,,0.3183,,0.4,0.6,0.2,0.8,0.4,0.6,0.6,0.4,1,0
,,65b84104763d1e7cd0d60507,66fc983ae56cb38035f3b1ae,2024-10-02_10h56.14.148,mdp,2024.2.1,Win32,60.24096386,66fa4ebf79326e780c390304,,,,,,,,,,,,,,,,,,,,,1150.4618,1150.4618,1150.4628,1151.6614,0,0,left,0.6724,,1151.6622,1152.4778,1,0,right,1152.4787,1153.1777,0,1,left,0,1153.1777,1153.1777,1153.1783,1154.6781,0,44,44,44,1,0.2,0.8,0.8,0.2,,,,,,,,,,,,,,,0.2881,,0.4,0.6,0.6,0.4,0.4,0.6,0.2,0.8,,,0.189,,0.4,0.6,0.2,0.8,0.4,0.6,0.6,0.4,1,0
,,65b84104763d1e7cd0d60507,66fc983ae56cb38035f3b1ae,2024-10-02_10h56.14.148,mdp,2024.2.1,Win32,60.24096386,66fa4ebf79326e780c390304,,,,,,,,,,,,,,,,,,,,,1154.6784,1154.6784,1154.6791,1155.7113,0,1,left,0.5122,,1155.7121,1156.5613,1,1,right,1156.562,1157.2281,0,1,left,0,1157.2282,1157.2282,1157.2293,1158.728,0,45,45,45,1,0.2,0.8,0.8,0.2,,,,,,,,,,,,,,,0.3162,,0.4,0.6,0.6,0.4,0.4,0.6,0.2,0.8,,,0.1357,,0.4,0.6,0.2,0.8,0.4,0.6,0.6,0.4,1,0
,,65b84104763d1e7cd0d60507,66fc983ae56cb38035f3b1ae,2024-10-02_10h56.14.148,mdp,2024.2.1,Win32,60.24096386,66fa4ebf79326e780c390304,,,,,,,,,,,,,,,,,,,,,1158.7283,1158.7283,1158.7291,1163.0615,0,1,left,3.8019,,1163.0688,1163.6613,1,0,right,1163.6621,1164.2948,0,0,left,1,1164.2948,1164.2948,1164.2956,1165.7948,0,46,46,46,1,0.2,0.8,0.8,0.2,,,,,,,,,,,,,,,0.0725,,0.4,0.6,0.6,0.4,0.4,0.6,0.2,0.8,,,0.1244,,0.4,0.6,0.2,0.8,0.4,0.6,0.6,0.4,1,0
,,65b84104763d1e7cd0d60507,66fc983ae56cb38035f3b1ae,2024-10-02_10h56.14.148,mdp,2024.2.1,Win32,60.24096386,66fa4ebf79326e780c390304,,,,,,,,,,,,,,,,,,,,,1165.7953,1165.7953,1165.7962,1166.8116,0,1,left,0.4917,,1166.8127,1167.6617,1,0,right,1167.6625,1168.3283,0,1,left,0,1168.3284,1168.3284,1168.3294,1169.8287,0,47,47,47,1,0.2,0.8,0.8,0.2,,,,,,,,,,,,,,,0.3174,,0.4,0.6,0.6,0.4,0.4,0.6,0.2,0.8,,,0.1372,,0.4,0.6,0.2,0.8,0.4,0.6,0.6,0.4,1,0
,,65b84104763d1e7cd0d60507,66fc983ae56cb38035f3b1ae,2024-10-02_10h56.14.148,mdp,2024.2.1,Win32,60.24096386,66fa4ebf79326e780c390304,,,,,,,,,,,,,,,,,,,,,1169.8292,1169.8292,1169.8303,1170.9949,1,0,right,0.641,,1170.9955,1171.6449,1,1,right,1171.6456,1172.4115,1,0,right,1,1172.4116,1172.4116,1172.4121,1173.9116,0,48,48,48,1,0.2,0.8,0.8,0.2,,,,,,,,,,,,,,,0.1187,,0.4,0.6,0.6,0.4,0.4,0.6,0.2,0.8,,,0.2365,,0.4,0.6,0.2,0.8,0.8,0.2,0.8,0.2,1,0
,,65b84104763d1e7cd0d60507,66fc983ae56cb38035f3b1ae,2024-10-02_10h56.14.148,mdp,2024.2.1,Win32,60.24096386,66fa4ebf79326e780c390304,,,,,,,,,,,,,,,,,,,,,1173.9123,1173.9123,1173.9135,1175.0618,0,1,left,0.6141,,1175.0628,1175.9955,1,1,right,1175.9964,1176.6954,0,0,left,1,1176.6955,1176.6955,1176.6965,1178.1949,0,49,49,49,1,0.2,0.8,0.8,0.2,,,,,,,,,,,,,,,0.4025,,0.4,0.6,0.6,0.4,0.4,0.6,0.2,0.8,,,0.1674,,0.4,0.6,0.2,0.8,0.8,0.2,0.8,0.2,1,0
,,65b84104763d1e7cd0d60507,66fc983ae56cb38035f3b1ae,2024-10-02_10h56.14.148,mdp,2024.2.1,Win32,60.24096386,66fa4ebf79326e780c390304,,,,,,,,,,,,,,,,,,,,,,,,,,,,,,,,,,,,,,,,,,,,,,,,,,,,,,,,1178.195,1265.0996,0,3,3,6,1,imgs/cat.png,imgs/dog.png,imgs/kangaroo.png,imgs/goat.png,imgs/giraffe.png,,,,,,,,,,,,,,,,,,,,,,,,
,,65b84104763d1e7cd0d60507,66fc983ae56cb38035f3b1ae,2024-10-02_10h56.14.148,mdp,2024.2.1,Win32,60.24096386,66fa4ebf79326e780c390304,,,,,,,,,,,,,,1,seqs/st1seq14.csv,1265.1074,1266.7804,space,1.1508,,1266.7826,1266.7826,1266.7831,1267.8304,0,0,left,0.5275,,1267.8312,1267.832,1,0,,1267.8324,1267.8329,0,0,,1,1267.8329,1267.8329,1267.8331,1269.3305,0,0,0,0,1,0.8,0.2,0.2,0.8,1,0,,,,,,,,,,,,,,,,,,,,,,,,,,,,,,,,,,,,
,,65b84104763d1e7cd0d60507,66fc983ae56cb38035f3b1ae,2024-10-02_10h56.14.148,mdp,2024.2.1,Win32,60.24096386,66fa4ebf79326e780c390304,,,,,,,,,,,,,,,,,,,,,1269.3309,1269.3309,1269.3318,1270.2306,0,0,left,0.3713,,1270.2317,1270.2322,1,1,,1270.2327,1270.2331,0,0,,1,1270.2331,1270.2331,1270.2334,1271.7303,0,1,1,1,1,0.8,0.2,0.2,0.8,1,0,,,,,,,,,,,,,,,,,,,,,,,,,,,,,,,,,,,,
,,65b84104763d1e7cd0d60507,66fc983ae56cb38035f3b1ae,2024-10-02_10h56.14.148,mdp,2024.2.1,Win32,60.24096386,66fa4ebf79326e780c390304,,,,,,,,,,,,,,,,,,,,,1271.7306,1271.7306,1271.7314,1272.6137,0,0,left,0.3668,,1272.6147,1272.6151,1,0,,1272.6157,1272.6159,0,0,,1,1272.6159,1272.6159,1272.6164,1274.1137,0,2,2,2,1,0.8,0.2,0.2,0.8,1,0,,,,,,,,,,,,,,,,,,,,,,,,,,,,,,,,,,,,
,,65b84104763d1e7cd0d60507,66fc983ae56cb38035f3b1ae,2024-10-02_10h56.14.148,mdp,2024.2.1,Win32,60.24096386,66fa4ebf79326e780c390304,,,,,,,,,,,,,,,,,,,,,1274.114,1274.114,1274.1149,1275.0974,0,0,left,0.4524,,1275.0984,1275.0987,1,0,,1275.0991,1275.0994,0,1,,1,1275.0994,1275.0994,1275.0997,1276.5974,0,3,3,3,1,0.8,0.2,0.2,0.8,1,0,,,,,,,,,,,,,,,,,,,,,,,,,,,,,,,,,,,,
,,65b84104763d1e7cd0d60507,66fc983ae56cb38035f3b1ae,2024-10-02_10h56.14.148,mdp,2024.2.1,Win32,60.24096386,66fa4ebf79326e780c390304,,,,,,,,,,,,,,,,,,,,,1276.5978,1276.5978,1276.5987,1277.5144,0,1,left,0.3874,,1277.5153,1277.5158,1,0,,1277.5165,1277.5167,0,0,,0,1277.5168,1277.5168,1277.517,1279.014,0,4,4,4,1,0.4,0.6,0.8,0.2,1,0,,,,,,,,,,,,,,,,,,,,,,,,,,,,,,,,,,,,
,,65b84104763d1e7cd0d60507,66fc983ae56cb38035f3b1ae,2024-10-02_10h56.14.148,mdp,2024.2.1,Win32,60.24096386,66fa4ebf79326e780c390304,,,,,,,,,,,,,,,,,,,,,1279.0144,1279.0144,1279.0151,1279.8808,1,0,right,0.3407,,1279.8815,1279.8821,1,1,,1279.8825,1279.8827,0,1,,1,1279.8828,1279.8828,1279.883,1281.3808,0,5,5,5,1,0.4,0.6,0.8,0.2,1,0,,,,,,,,,,,,,,,,,,,,,,,,,,,,,,,,,,,,
,,65b84104763d1e7cd0d60507,66fc983ae56cb38035f3b1ae,2024-10-02_10h56.14.148,mdp,2024.2.1,Win32,60.24096386,66fa4ebf79326e780c390304,,,,,,,,,,,,,,,,,,,,,1281.3812,1281.3812,1281.3819,1282.231,1,0,right,0.3173,,1282.2321,1282.2325,1,0,,1282.233,1282.2334,0,0,,1,1282.2334,1282.2334,1282.2337,1283.731,0,6,6,6,1,0.4,0.6,0.8,0.2,1,0,,,,,,,,,,,,,,,,,,,,,,,,,,,,,,,,,,,,
,,65b84104763d1e7cd0d60507,66fc983ae56cb38035f3b1ae,2024-10-02_10h56.14.148,mdp,2024.2.1,Win32,60.24096386,66fa4ebf79326e780c390304,,,,,,,,,,,,,,,,,,,,,1283.7314,1283.7314,1283.7323,1284.6142,1,1,right,0.3602,,1284.6152,1284.6157,1,0,,1284.6161,1284.6165,0,0,,0,1284.6165,1284.6165,1284.6168,1286.1141,0,7,7,7,1,0.4,0.6,0.8,0.2,1,0,,,,,,,,,,,,,,,,,,,,,,,,,,,,,,,,,,,,
,,65b84104763d1e7cd0d60507,66fc983ae56cb38035f3b1ae,2024-10-02_10h56.14.148,mdp,2024.2.1,Win32,60.24096386,66fa4ebf79326e780c390304,,,,,,,,,,,,,,,,,,,,,1286.1144,1286.1144,1286.1152,1286.9312,0,1,left,0.283,,1286.9322,1286.9326,1,0,,1286.933,1286.9334,0,1,,0,1286.9334,1286.9334,1286.9336,1288.4309,0,8,8,8,1,0.4,0.6,0.8,0.2,1,0,,,,,,,,,,,,,,,,,,,,,,,,,,,,,,,,,,,,
,,65b84104763d1e7cd0d60507,66fc983ae56cb38035f3b1ae,2024-10-02_10h56.14.148,mdp,2024.2.1,Win32,60.24096386,66fa4ebf79326e780c390304,,,,,,,,,,,,,,,,,,,,,1288.4313,1288.4313,1288.4321,1289.2475,0,1,left,0.2958,,1289.2483,1289.2486,1,0,,1289.2492,1289.2495,0,0,,0,1289.2496,1289.2496,1289.2499,1290.7476,0,9,9,9,1,0.4,0.6,0.8,0.2,1,0,,,,,,,,,,,,,,,,,,,,,,,,,,,,,,,,,,,,
,,65b84104763d1e7cd0d60507,66fc983ae56cb38035f3b1ae,2024-10-02_10h56.14.148,mdp,2024.2.1,Win32,60.24096386,66fa4ebf79326e780c390304,,,,,,,,,,,,,,,,,,,,,1290.7479,1290.7479,1290.7487,1291.3978,1,0,right,0.1229,,1291.399,1291.3997,1,0,,1291.4001,1291.4005,0,0,,1,1291.4005,1291.4005,1291.4007,1292.8974,0,10,10,10,1,0.4,0.6,0.8,0.2,1,0,,,,,,,,,,,,,,,,,,,,,,,,,,,,,,,,,,,,
,,65b84104763d1e7cd0d60507,66fc983ae56cb38035f3b1ae,2024-10-02_10h56.14.148,mdp,2024.2.1,Win32,60.24096386,66fa4ebf79326e780c390304,,,,,,,,,,,,,,,,,,,,,1292.8976,1292.8976,1292.8985,1293.7142,1,0,right,0.2875,,1293.7151,1293.7156,1,0,,1293.716,1293.7162,0,0,,1,1293.7162,1293.7162,1293.7165,1295.2144,0,11,11,11,1,0.4,0.6,0.8,0.2,1,0,,,,,,,,,,,,,,,,,,,,,,,,,,,,,,,,,,,,
,,65b84104763d1e7cd0d60507,66fc983ae56cb38035f3b1ae,2024-10-02_10h56.14.148,mdp,2024.2.1,Win32,60.24096386,66fa4ebf79326e780c390304,,,,,,,,,,,,,,,,,,,,,1295.2147,1295.2147,1295.2155,1295.9812,1,0,right,0.2293,,1295.9823,1295.983,1,0,,1295.9835,1295.9839,0,0,,1,1295.9839,1295.9839,1295.9841,1297.4808,0,12,12,12,1,0.4,0.6,0.8,0.2,1,0,,,,,,,,,,,,,,,,,,,,,,,,,,,,,,,,,,,,
,,65b84104763d1e7cd0d60507,66fc983ae56cb38035f3b1ae,2024-10-02_10h56.14.148,mdp,2024.2.1,Win32,60.24096386,66fa4ebf79326e780c390304,,,,,,,,,,,,,,,,,,,,,1297.4812,1297.4812,1297.4821,1298.3477,1,1,right,0.3546,,1298.3487,1298.3494,1,1,,1298.3498,1298.35,0,0,,0,1298.3501,1298.3501,1298.3504,1299.8478,0,13,13,13,1,0.8,0.2,0.6,0.4,1,0,,,,,,,,,,,,,,,,,,,,,,,,,,,,,,,,,,,,
,,65b84104763d1e7cd0d60507,66fc983ae56cb38035f3b1ae,2024-10-02_10h56.14.148,mdp,2024.2.1,Win32,60.24096386,66fa4ebf79326e780c390304,,,,,,,,,,,,,,,,,,,,,1299.848,1299.848,1299.8488,1300.6479,1,0,right,0.2702,,1300.649,1300.6496,1,1,,1300.6501,1300.6505,0,0,,1,1300.6505,1300.6505,1300.6508,1302.1478,0,14,14,14,1,0.8,0.2,0.6,0.4,1,0,,,,,,,,,,,,,,,,,,,,,,,,,,,,,,,,,,,,
,,65b84104763d1e7cd0d60507,66fc983ae56cb38035f3b1ae,2024-10-02_10h56.14.148,mdp,2024.2.1,Win32,60.24096386,66fa4ebf79326e780c390304,,,,,,,,,,,,,,,,,,,,,1302.1482,1302.1482,1302.149,1302.9643,1,0,right,0.2799,,1302.9652,1302.9657,1,0,,1302.9665,1302.9669,0,0,,1,1302.967,1302.967,1302.9675,1304.4645,0,15,15,15,1,0.8,0.2,0.6,0.4,1,0,,,,,,,,,,,,,,,,,,,,,,,,,,,,,,,,,,,,
,,65b84104763d1e7cd0d60507,66fc983ae56cb38035f3b1ae,2024-10-02_10h56.14.148,mdp,2024.2.1,Win32,60.24096386,66fa4ebf79326e780c390304,,,,,,,,,,,,,,,,,,,,,1304.4648,1304.4648,1304.4656,1306.0147,1,1,right,1.0135,,1306.0158,1306.0165,1,0,,1306.017,1306.0172,0,0,,0,1306.0172,1306.0172,1306.0175,1307.5148,0,16,16,16,1,0.8,0.2,0.6,0.4,1,0,,,,,,,,,,,,,,,,,,,,,,,,,,,,,,,,,,,,
,,65b84104763d1e7cd0d60507,66fc983ae56cb38035f3b1ae,2024-10-02_10h56.14.148,mdp,2024.2.1,Win32,60.24096386,66fa4ebf79326e780c390304,,,,,,,,,,,,,,,,,,,,,1307.5151,1307.5151,1307.5161,1308.548,1,0,right,0.5085,,1308.5491,1308.5498,1,0,,1308.5503,1308.5507,0,0,,1,1308.5507,1308.5508,1308.551,1310.048,0,17,17,17,1,0.8,0.2,0.6,0.4,1,0,,,,,,,,,,,,,,,,,,,,,,,,,,,,,,,,,,,,
,,65b84104763d1e7cd0d60507,66fc983ae56cb38035f3b1ae,2024-10-02_10h56.14.148,mdp,2024.2.1,Win32,60.24096386,66fa4ebf79326e780c390304,,,,,,,,,,,,,,,,,,,,,1310.0484,1310.0484,1310.0492,1311.0648,1,0,right,0.4945,,1311.0658,1311.0662,1,1,,1311.0668,1311.0672,0,0,,1,1311.0672,1311.0672,1311.0674,1312.5646,0,18,18,18,1,0.8,0.2,0.6,0.4,1,0,,,,,,,,,,,,,,,,,,,,,,,,,,,,,,,,,,,,
,,65b84104763d1e7cd0d60507,66fc983ae56cb38035f3b1ae,2024-10-02_10h56.14.148,mdp,2024.2.1,Win32,60.24096386,66fa4ebf79326e780c390304,,,,,,,,,,,,,,,,,,,,,1312.565,1312.565,1312.5658,1313.5148,1,0,right,0.4224,,1313.5157,1313.5164,1,0,,1313.5169,1313.5173,0,1,,1,1313.5173,1313.5173,1313.5176,1315.0148,0,19,19,19,1,0.8,0.2,0.6,0.4,1,0,,,,,,,,,,,,,,,,,,,,,,,,,,,,,,,,,,,,
,,65b84104763d1e7cd0d60507,66fc983ae56cb38035f3b1ae,2024-10-02_10h56.14.148,mdp,2024.2.1,Win32,60.24096386,66fa4ebf79326e780c390304,,,,,,,,,,,,,,,,,,,,,1315.0153,1315.0153,1315.0161,1316.0147,1,1,right,0.4807,,1316.0154,1316.016,1,0,,1316.0165,1316.0168,0,1,,0,1316.0168,1316.0168,1316.0172,1317.5149,0,20,20,20,1,0.8,0.2,0.6,0.4,1,0,,,,,,,,,,,,,,,,,,,,,,,,,,,,,,,,,,,,
,,65b84104763d1e7cd0d60507,66fc983ae56cb38035f3b1ae,2024-10-02_10h56.14.148,mdp,2024.2.1,Win32,60.24096386,66fa4ebf79326e780c390304,,,,,,,,,,,,,,,,,,,,,1317.5152,1317.5152,1317.5158,1318.3815,1,0,right,0.3498,,1318.3826,1318.3831,1,0,,1318.3837,1318.384,0,0,,1,1318.384,1318.384,1318.3843,1319.8815,0,21,21,21,1,0.8,0.2,0.6,0.4,1,0,,,,,,,,,,,,,,,,,,,,,,,,,,,,,,,,,,,,
,,65b84104763d1e7cd0d60507,66fc983ae56cb38035f3b1ae,2024-10-02_10h56.14.148,mdp,2024.2.1,Win32,60.24096386,66fa4ebf79326e780c390304,,,,,,,,,,,,,,,,,,,,,1319.8819,1319.882,1319.8828,1320.8482,1,1,right,0.4422,,1320.8492,1320.8498,1,0,,1320.8502,1320.8506,0,0,,0,1320.8506,1320.8506,1320.8509,1322.3483,0,22,22,22,1,0.8,0.2,0.6,0.4,1,0,,,,,,,,,,,,,,,,,,,,,,,,,,,,,,,,,,,,
,,65b84104763d1e7cd0d60507,66fc983ae56cb38035f3b1ae,2024-10-02_10h56.14.148,mdp,2024.2.1,Win32,60.24096386,66fa4ebf79326e780c390304,,,,,,,,,,,,,,,,,,,,,1322.3487,1322.3487,1322.3495,1323.2151,1,0,right,0.3385,,1323.216,1323.2164,1,1,,1323.2169,1323.2172,0,1,,1,1323.2172,1323.2173,1323.2175,1324.7149,0,23,23,23,1,0.8,0.2,0.6,0.4,1,0,,,,,,,,,,,,,,,,,,,,,,,,,,,,,,,,,,,,
,,65b84104763d1e7cd0d60507,66fc983ae56cb38035f3b1ae,2024-10-02_10h56.14.148,mdp,2024.2.1,Win32,60.24096386,66fa4ebf79326e780c390304,,,,,,,,,,,,,,,,,,,,,1324.7152,1324.7152,1324.7161,1325.6987,1,1,right,0.4557,,1325.6998,1325.7002,1,1,,1325.7007,1325.701,0,1,,0,1325.701,1325.701,1325.7013,1327.1982,0,24,24,24,1,0.8,0.2,0.6,0.4,1,0,,,,,,,,,,,,,,,,,,,,,,,,,,,,,,,,,,,,
,,65b84104763d1e7cd0d60507,66fc983ae56cb38035f3b1ae,2024-10-02_10h56.14.148,mdp,2024.2.1,Win32,60.24096386,66fa4ebf79326e780c390304,,,,,,,,,,,,,,,,,,,,,1327.1986,1327.1986,1327.1995,1327.9984,1,0,right,0.2721,,1327.9995,1327.9999,1,0,,1328.0004,1328.0008,0,1,,1,1328.0008,1328.0008,1328.001,1329.4986,0,25,25,25,1,0.8,0.2,0.6,0.4,1,0,,,,,,,,,,,,,,,,,,,,,,,,,,,,,,,,,,,,
,,65b84104763d1e7cd0d60507,66fc983ae56cb38035f3b1ae,2024-10-02_10h56.14.148,mdp,2024.2.1,Win32,60.24096386,66fa4ebf79326e780c390304,,,,,,,,,,,,,,,,,,,,,1329.499,1329.499,1329.4998,1330.3817,1,0,right,0.3562,,1330.3828,1330.3833,1,1,,1330.3838,1330.3841,0,0,,1,1330.3841,1330.3841,1330.3845,1331.8815,0,26,26,26,1,0.8,0.2,0.6,0.4,1,0,,,,,,,,,,,,,,,,,,,,,,,,,,,,,,,,,,,,
,,65b84104763d1e7cd0d60507,66fc983ae56cb38035f3b1ae,2024-10-02_10h56.14.148,mdp,2024.2.1,Win32,60.24096386,66fa4ebf79326e780c390304,,,,,,,,,,,,,,,,,,,,,1331.8818,1331.8818,1331.8826,1332.7151,1,1,right,0.2976,,1332.7161,1332.7167,1,0,,1332.7173,1332.7175,0,1,,0,1332.7175,1332.7175,1332.7179,1334.215,0,27,27,27,1,0.8,0.2,0.6,0.4,1,0,,,,,,,,,,,,,,,,,,,,,,,,,,,,,,,,,,,,
,,65b84104763d1e7cd0d60507,66fc983ae56cb38035f3b1ae,2024-10-02_10h56.14.148,mdp,2024.2.1,Win32,60.24096386,66fa4ebf79326e780c390304,,,,,,,,,,,,,,,,,,,,,1334.2154,1334.2154,1334.2163,1334.9816,1,0,right,0.2467,,1334.9825,1334.9831,1,0,,1334.9836,1334.9838,0,0,,1,1334.9838,1334.9838,1334.9841,1336.4819,0,28,28,28,1,0.8,0.2,0.6,0.4,1,0,,,,,,,,,,,,,,,,,,,,,,,,,,,,,,,,,,,,
,,65b84104763d1e7cd0d60507,66fc983ae56cb38035f3b1ae,2024-10-02_10h56.14.148,mdp,2024.2.1,Win32,60.24096386,66fa4ebf79326e780c390304,,,,,,,,,,,,,,,,,,,,,1336.4822,1336.4823,1336.4829,1337.2819,1,1,right,0.2645,,1337.2828,1337.2833,1,0,,1337.2838,1337.2841,0,0,,0,1337.2841,1337.2842,1337.2844,1338.782,0,29,29,29,1,0.8,0.2,0.6,0.4,1,0,,,,,,,,,,,,,,,,,,,,,,,,,,,,,,,,,,,,
,,65b84104763d1e7cd0d60507,66fc983ae56cb38035f3b1ae,2024-10-02_10h56.14.148,mdp,2024.2.1,Win32,60.24096386,66fa4ebf79326e780c390304,,,,,,,,,,,,,,,,,,,,,1338.7824,1338.7824,1338.7833,1339.6655,1,0,right,0.3614,,1339.6665,1339.6672,1,0,,1339.6676,1339.668,0,0,,1,1339.668,1339.668,1339.6683,1341.1653,0,30,30,30,1,0.8,0.2,0.6,0.4,1,0,,,,,,,,,,,,,,,,,,,,,,,,,,,,,,,,,,,,
,,65b84104763d1e7cd0d60507,66fc983ae56cb38035f3b1ae,2024-10-02_10h56.14.148,mdp,2024.2.1,Win32,60.24096386,66fa4ebf79326e780c390304,,,,,,,,,,,,,,,,,,,,,1341.1656,1341.1657,1341.1664,1342.1987,1,0,right,0.5051,,1342.1997,1342.2003,1,0,,1342.2007,1342.201,0,1,,1,1342.201,1342.201,1342.2013,1343.6989,0,31,31,31,1,0.8,0.2,0.6,0.4,1,0,,,,,,,,,,,,,,,,,,,,,,,,,,,,,,,,,,,,
,,65b84104763d1e7cd0d60507,66fc983ae56cb38035f3b1ae,2024-10-02_10h56.14.148,mdp,2024.2.1,Win32,60.24096386,66fa4ebf79326e780c390304,,,,,,,,,,,,,,,,,,,,,1343.6992,1343.6992,1343.7001,1344.5656,1,0,right,0.3399,,1344.5664,1344.5669,1,0,,1344.5675,1344.5679,0,1,,1,1344.5679,1344.5679,1344.5682,1346.0654,0,32,32,32,1,0.8,0.2,0.6,0.4,1,0,,,,,,,,,,,,,,,,,,,,,,,,,,,,,,,,,,,,
,,65b84104763d1e7cd0d60507,66fc983ae56cb38035f3b1ae,2024-10-02_10h56.14.148,mdp,2024.2.1,Win32,60.24096386,66fa4ebf79326e780c390304,,,,,,,,,,,,,,,,,,,,,1346.0657,1346.0657,1346.0665,1347.0653,1,0,right,0.4735,,1347.0661,1347.0666,1,0,,1347.067,1347.0673,0,0,,1,1347.0673,1347.0673,1347.0676,1348.5655,0,33,33,33,1,0.8,0.2,0.6,0.4,1,0,,,,,,,,,,,,,,,,,,,,,,,,,,,,,,,,,,,,
,,65b84104763d1e7cd0d60507,66fc983ae56cb38035f3b1ae,2024-10-02_10h56.14.148,mdp,2024.2.1,Win32,60.24096386,66fa4ebf79326e780c390304,,,,,,,,,,,,,,,,,,,,,1348.5659,1348.5659,1348.5668,1349.5321,1,1,right,0.4416,,1349.533,1349.5335,1,0,,1349.5342,1349.5346,0,1,,0,1349.5346,1349.5346,1349.535,1351.0323,0,34,34,34,1,0.8,0.2,0.6,0.4,1,0,,,,,,,,,,,,,,,,,,,,,,,,,,,,,,,,,,,,
,,65b84104763d1e7cd0d60507,66fc983ae56cb38035f3b1ae,2024-10-02_10h56.14.148,mdp,2024.2.1,Win32,60.24096386,66fa4ebf79326e780c390304,,,,,,,,,,,,,,,,,,,,,1351.0326,1351.0326,1351.0334,1351.8154,1,0,right,0.2508,,1351.8166,1351.8172,1,0,,1351.8179,1351.8182,0,0,,1,1351.8182,1351.8182,1351.8185,1353.3159,0,35,35,35,1,0.2,0.8,0.8,0.2,1,0,,,,,,,,,,,,,,,,,,,,,,,,,,,,,,,,,,,,
,,65b84104763d1e7cd0d60507,66fc983ae56cb38035f3b1ae,2024-10-02_10h56.14.148,mdp,2024.2.1,Win32,60.24096386,66fa4ebf79326e780c390304,,,,,,,,,,,,,,,,,,,,,1353.3163,1353.3163,1353.3171,1354.1822,1,0,right,0.3389,,1354.1833,1354.1839,1,0,,1354.1844,1354.1846,0,0,,1,1354.1846,1354.1846,1354.1849,1355.6824,0,36,36,36,1,0.2,0.8,0.8,0.2,1,0,,,,,,,,,,,,,,,,,,,,,,,,,,,,,,,,,,,,
,,65b84104763d1e7cd0d60507,66fc983ae56cb38035f3b1ae,2024-10-02_10h56.14.148,mdp,2024.2.1,Win32,60.24096386,66fa4ebf79326e780c390304,,,,,,,,,,,,,,,,,,,,,1355.6828,1355.6828,1355.6837,1356.5993,1,0,right,0.3874,,1356.6003,1356.6008,1,0,,1356.6012,1356.6016,0,0,,1,1356.6016,1356.6016,1356.6019,1358.099,0,37,37,37,1,0.2,0.8,0.8,0.2,1,0,,,,,,,,,,,,,,,,,,,,,,,,,,,,,,,,,,,,
,,65b84104763d1e7cd0d60507,66fc983ae56cb38035f3b1ae,2024-10-02_10h56.14.148,mdp,2024.2.1,Win32,60.24096386,66fa4ebf79326e780c390304,,,,,,,,,,,,,,,,,,,,,1358.0994,1358.0994,1358.1003,1359.2493,1,1,right,0.6168,,1359.25,1359.2506,1,0,,1359.2511,1359.2514,0,0,,0,1359.2514,1359.2514,1359.2517,1360.749,0,38,38,38,1,0.2,0.8,0.8,0.2,1,0,,,,,,,,,,,,,,,,,,,,,,,,,,,,,,,,,,,,
,,65b84104763d1e7cd0d60507,66fc983ae56cb38035f3b1ae,2024-10-02_10h56.14.148,mdp,2024.2.1,Win32,60.24096386,66fa4ebf79326e780c390304,,,,,,,,,,,,,,,,,,,,,1360.7494,1360.7495,1360.7505,1361.6159,1,1,right,0.3421,,1361.6166,1361.6172,1,1,,1361.6176,1361.618,0,1,,0,1361.6181,1361.6181,1361.6184,1363.1158,0,39,39,39,1,0.6,0.4,0.4,0.6,1,0,,,,,,,,,,,,,,,,,,,,,,,,,,,,,,,,,,,,
,,65b84104763d1e7cd0d60507,66fc983ae56cb38035f3b1ae,2024-10-02_10h56.14.148,mdp,2024.2.1,Win32,60.24096386,66fa4ebf79326e780c390304,,,,,,,,,,,,,,,,,,,,,1363.1163,1363.1163,1363.1171,1364.6992,1,0,right,1.0469,,1364.6998,1364.7003,1,1,,1364.7009,1364.701,0,0,,1,1364.701,1364.701,1364.7013,1366.199,0,40,40,40,1,0.4,0.6,0.6,0.4,1,0,,,,,,,,,,,,,,,,,,,,,,,,,,,,,,,,,,,,
