init_exp.started,init_exp.stopped,participant,session,date,expName,psychopyVersion,OS,frameRate,study_id,disp_instruction.started,disp_instruction.stopped,instruction.thisRepN,instruction.thisTrialN,instruction.thisN,instruction.thisIndex,instruction.ran,instimg_path,consent.started,consent.stopped,key_resp_3.keys,key_resp_3.rt,key_resp_3.duration,n_steps,sequence_path,init_block.started,init_block.stopped,key_resp.keys,key_resp.rt,key_resp.duration,init_trials.started,init_trials.stopped,step0.started,step0.stopped,act0,s1,res0.keys,res0.rt,res0.duration,step1.started,step1.stopped,act1,s2,res1.keys,step2.started,step2.stopped,act2,s3,res2.keys,rew,reward_comp.started,reward_comp.stopped,reward_disp.started,reward_disp.stopped,trials.thisRepN,trials.thisTrialN,trials.thisN,trials.thisIndex,trials.ran,s00a0s10,s00a0s11,s00a1s10,s00a1s11,rew10,rew11,break_block.started,break_block.stopped,block.thisRepN,block.thisTrialN,block.thisN,block.thisIndex,block.ran,s00path,s10path,s11path,s20path,s21path,res1.rt,res1.duration,s10a0s20,s10a0s21,s10a1s20,s10a1s21,s11a0s20,s11a0s21,s11a1s20,s11a1s21,rew20,rew21,res2.rt,res2.duration,s20a0s30,s20a0s31,s20a1s30,s20a1s31,s21a0s30,s21a0s31,s21a1s30,s21a1s31,rew30,rew31
0.0004,0.0037,65ba49256dc8eda1950b70b3,66fc9aa3d85e6ef54d92db35,2024-10-02_03h06.52.428,mdp,2024.2.1,Win32,48.54368932,66fa4ebf79326e780c390304,,,,,,,,,,,,,,,,,,,,,,,,,,,,,,,,,,,,,,,,,,,,,,,,,,,,,,,,,,,,,,,,,,,,,,,,,,,,,,,,,,,,,,,,,,,
,,65ba49256dc8eda1950b70b3,66fc9aa3d85e6ef54d92db35,2024-10-02_03h06.52.428,mdp,2024.2.1,Win32,48.54368932,66fa4ebf79326e780c390304,0.0201,63.8551,0,0,0,0,1,rlnn_exp/rlnn_exp.001.png,,,,,,,,,,,,,,,,,,,,,,,,,,,,,,,,,,,,,,,,,,,,,,,,,,,,,,,,,,,,,,,,,,,,,,,,,,,,,,,,,,,
,,65ba49256dc8eda1950b70b3,66fc9aa3d85e6ef54d92db35,2024-10-02_03h06.52.428,mdp,2024.2.1,Win32,48.54368932,66fa4ebf79326e780c390304,63.8566,98.3559,0,1,1,1,1,rlnn_exp/rlnn_exp.002.png,,,,,,,,,,,,,,,,,,,,,,,,,,,,,,,,,,,,,,,,,,,,,,,,,,,,,,,,,,,,,,,,,,,,,,,,,,,,,,,,,,,
,,65ba49256dc8eda1950b70b3,66fc9aa3d85e6ef54d92db35,2024-10-02_03h06.52.428,mdp,2024.2.1,Win32,48.54368932,66fa4ebf79326e780c390304,98.3574,123.6862,0,2,2,2,1,rlnn_exp/rlnn_exp.003.png,,,,,,,,,,,,,,,,,,,,,,,,,,,,,,,,,,,,,,,,,,,,,,,,,,,,,,,,,,,,,,,,,,,,,,,,,,,,,,,,,,,
,,65ba49256dc8eda1950b70b3,66fc9aa3d85e6ef54d92db35,2024-10-02_03h06.52.428,mdp,2024.2.1,Win32,48.54368932,66fa4ebf79326e780c390304,123.6878,147.3348,0,3,3,3,1,rlnn_exp/rlnn_exp.004.png,,,,,,,,,,,,,,,,,,,,,,,,,,,,,,,,,,,,,,,,,,,,,,,,,,,,,,,,,,,,,,,,,,,,,,,,,,,,,,,,,,,
,,65ba49256dc8eda1950b70b3,66fc9aa3d85e6ef54d92db35,2024-10-02_03h06.52.428,mdp,2024.2.1,Win32,48.54368932,66fa4ebf79326e780c390304,,,,,,,,,147.3355,185.7359,y,28.3469,,,,,,,,,,,,,,,,,,,,,,,,,,,,,,,,,,,,,,,,,,,,,,,,,,,,,,,,,,,,,,,,,,,,,,,,,,,,,,,
,,65ba49256dc8eda1950b70b3,66fc9aa3d85e6ef54d92db35,2024-10-02_03h06.52.428,mdp,2024.2.1,Win32,48.54368932,66fa4ebf79326e780c390304,,,,,,,,,,,,,,1,seqs/st1seq46.csv,185.7471,192.9075,space,6.6237,,192.9171,192.9173,192.92,203.1889,1,1,right,9.7088,,203.1898,203.1926,,1,,203.1935,203.1967,,1,,0,203.1971,203.1972,203.1987,204.7002,0,0,0,0,1,0.4,0.6,0.6,0.4,1,0,,,,,,,,,,,,,,,,,,,,,,,,,,,,,,,,,,,,
,,65ba49256dc8eda1950b70b3,66fc9aa3d85e6ef54d92db35,2024-10-02_03h06.52.428,mdp,2024.2.1,Win32,48.54368932,66fa4ebf79326e780c390304,,,,,,,,,,,,,,,,,,,,,204.7009,204.701,204.7026,213.9822,1,0,right,8.7522,,213.9844,213.9867,,0,,213.9886,213.9899,,0,,1,213.99,213.99,213.9912,215.4899,0,1,1,1,1,0.8,0.2,0.8,0.2,1,0,,,,,,,,,,,,,,,,,,,,,,,,,,,,,,,,,,,,
,,65ba49256dc8eda1950b70b3,66fc9aa3d85e6ef54d92db35,2024-10-02_03h06.52.428,mdp,2024.2.1,Win32,48.54368932,66fa4ebf79326e780c390304,,,,,,,,,,,,,,,,,,,,,215.4904,215.4905,215.4935,220.1473,0,0,left,4.1375,,220.1494,220.1508,,0,,220.1529,220.1549,,0,,1,220.1549,220.1549,220.1565,221.6504,0,2,2,2,1,0.8,0.2,0.8,0.2,1,0,,,,,,,,,,,,,,,,,,,,,,,,,,,,,,,,,,,,
,,65ba49256dc8eda1950b70b3,66fc9aa3d85e6ef54d92db35,2024-10-02_03h06.52.428,mdp,2024.2.1,Win32,48.54368932,66fa4ebf79326e780c390304,,,,,,,,,,,,,,,,,,,,,221.651,221.651,221.653,235.3535,1,0,right,13.1687,,235.3556,235.3568,,0,,235.3583,235.3593,,1,,1,235.3594,235.3594,235.3603,236.8531,0,3,3,3,1,0.8,0.2,0.8,0.2,1,0,,,,,,,,,,,,,,,,,,,,,,,,,,,,,,,,,,,,
,,65ba49256dc8eda1950b70b3,66fc9aa3d85e6ef54d92db35,2024-10-02_03h06.52.428,mdp,2024.2.1,Win32,48.54368932,66fa4ebf79326e780c390304,,,,,,,,,,,,,,,,,,,,,236.8542,236.8542,236.8559,241.1244,0,0,left,3.7482,,241.1277,241.1289,,0,,241.1311,241.1329,,0,,1,241.133,241.133,241.1341,242.6459,0,4,4,4,1,0.8,0.2,0.8,0.2,1,0,,,,,,,,,,,,,,,,,,,,,,,,,,,,,,,,,,,,
,,65ba49256dc8eda1950b70b3,66fc9aa3d85e6ef54d92db35,2024-10-02_03h06.52.428,mdp,2024.2.1,Win32,48.54368932,66fa4ebf79326e780c390304,,,,,,,,,,,,,,,,,,,,,242.6464,242.6464,242.6487,244.1631,0,0,left,0.9908,,244.165,244.1662,,0,,244.1673,244.1682,,0,,1,244.1683,244.1683,244.1693,245.6668,0,5,5,5,1,0.8,0.2,0.8,0.2,1,0,,,,,,,,,,,,,,,,,,,,,,,,,,,,,,,,,,,,
,,65ba49256dc8eda1950b70b3,66fc9aa3d85e6ef54d92db35,2024-10-02_03h06.52.428,mdp,2024.2.1,Win32,48.54368932,66fa4ebf79326e780c390304,,,,,,,,,,,,,,,,,,,,,245.6676,245.6677,245.6702,248.7911,0,1,left,2.5723,,248.7933,248.7946,,0,,248.796,248.7969,,0,,0,248.797,248.7971,248.798,250.2916,0,6,6,6,1,0.8,0.2,0.8,0.2,1,0,,,,,,,,,,,,,,,,,,,,,,,,,,,,,,,,,,,,
,,65ba49256dc8eda1950b70b3,66fc9aa3d85e6ef54d92db35,2024-10-02_03h06.52.428,mdp,2024.2.1,Win32,48.54368932,66fa4ebf79326e780c390304,,,,,,,,,,,,,,,,,,,,,250.2925,250.2926,250.2949,254.0205,0,1,left,3.183,,254.0225,254.0235,,1,,254.0246,254.0254,,0,,0,254.0254,254.0255,254.0264,255.526,0,7,7,7,1,0.8,0.2,0.8,0.2,1,0,,,,,,,,,,,,,,,,,,,,,,,,,,,,,,,,,,,,
,,65ba49256dc8eda1950b70b3,66fc9aa3d85e6ef54d92db35,2024-10-02_03h06.52.428,mdp,2024.2.1,Win32,48.54368932,66fa4ebf79326e780c390304,,,,,,,,,,,,,,,,,,,,,255.527,255.527,255.5306,256.3742,1,0,right,0.299,,256.3762,256.3782,,0,,256.3803,256.3814,,1,,1,256.3815,256.3816,256.3839,257.8658,0,8,8,8,1,0.8,0.2,0.8,0.2,1,0,,,,,,,,,,,,,,,,,,,,,,,,,,,,,,,,,,,,
,,65ba49256dc8eda1950b70b3,66fc9aa3d85e6ef54d92db35,2024-10-02_03h06.52.428,mdp,2024.2.1,Win32,48.54368932,66fa4ebf79326e780c390304,,,,,,,,,,,,,,,,,,,,,257.8663,257.8663,257.8686,262.5056,1,0,right,4.0905,,262.5077,262.5112,,0,,262.5125,262.5135,,0,,1,262.5136,262.5137,262.5149,264.0091,0,9,9,9,1,0.8,0.2,0.8,0.2,1,0,,,,,,,,,,,,,,,,,,,,,,,,,,,,,,,,,,,,
,,65ba49256dc8eda1950b70b3,66fc9aa3d85e6ef54d92db35,2024-10-02_03h06.52.428,mdp,2024.2.1,Win32,48.54368932,66fa4ebf79326e780c390304,,,,,,,,,,,,,,,,,,,,,264.0098,264.0098,264.0112,266.0754,0,1,left,1.548,,266.0771,266.0782,,0,,266.0793,266.0801,,1,,0,266.0801,266.0802,266.0811,267.576,0,10,10,10,1,0.8,0.2,0.8,0.2,1,0,,,,,,,,,,,,,,,,,,,,,,,,,,,,,,,,,,,,
,,65ba49256dc8eda1950b70b3,66fc9aa3d85e6ef54d92db35,2024-10-02_03h06.52.428,mdp,2024.2.1,Win32,48.54368932,66fa4ebf79326e780c390304,,,,,,,,,,,,,,,,,,,,,267.578,267.5781,267.58,268.2949,1,0,right,0.1913,,268.2971,268.2981,,0,,268.3011,268.3028,,0,,1,268.3029,268.3029,268.3043,269.8028,0,11,11,11,1,0.8,0.2,0.8,0.2,1,0,,,,,,,,,,,,,,,,,,,,,,,,,,,,,,,,,,,,
,,65ba49256dc8eda1950b70b3,66fc9aa3d85e6ef54d92db35,2024-10-02_03h06.52.428,mdp,2024.2.1,Win32,48.54368932,66fa4ebf79326e780c390304,,,,,,,,,,,,,,,,,,,,,269.8038,269.8038,269.8056,271.5759,1,0,right,1.2457,,271.5784,271.5805,,0,,271.5822,271.5834,,0,,1,271.5835,271.5835,271.5846,273.0907,0,12,12,12,1,0.8,0.2,0.8,0.2,1,0,,,,,,,,,,,,,,,,,,,,,,,,,,,,,,,,,,,,
,,65ba49256dc8eda1950b70b3,66fc9aa3d85e6ef54d92db35,2024-10-02_03h06.52.428,mdp,2024.2.1,Win32,48.54368932,66fa4ebf79326e780c390304,,,,,,,,,,,,,,,,,,,,,273.0924,273.0924,273.0958,275.2982,1,0,right,1.6734,,275.2999,275.301,,0,,275.3027,275.3037,,0,,1,275.3038,275.3038,275.3048,276.8033,0,13,13,13,1,0.8,0.2,0.8,0.2,1,0,,,,,,,,,,,,,,,,,,,,,,,,,,,,,,,,,,,,
,,65ba49256dc8eda1950b70b3,66fc9aa3d85e6ef54d92db35,2024-10-02_03h06.52.428,mdp,2024.2.1,Win32,48.54368932,66fa4ebf79326e780c390304,,,,,,,,,,,,,,,,,,,,,276.8043,276.8043,276.8061,277.8789,1,1,right,0.5391,,277.8811,277.8821,,1,,277.8833,277.8841,,0,,0,277.8842,277.8842,277.8851,279.3768,0,14,14,14,1,0.8,0.2,0.8,0.2,1,0,,,,,,,,,,,,,,,,,,,,,,,,,,,,,,,,,,,,
,,65ba49256dc8eda1950b70b3,66fc9aa3d85e6ef54d92db35,2024-10-02_03h06.52.428,mdp,2024.2.1,Win32,48.54368932,66fa4ebf79326e780c390304,,,,,,,,,,,,,,,,,,,,,279.3778,279.3778,279.3796,282.4309,1,1,right,2.5222,,282.4331,282.434,,0,,282.4364,282.4376,,0,,0,282.4376,282.4376,282.4393,283.9301,0,15,15,15,1,0.6,0.4,0.2,0.8,1,0,,,,,,,,,,,,,,,,,,,,,,,,,,,,,,,,,,,,
,,65ba49256dc8eda1950b70b3,66fc9aa3d85e6ef54d92db35,2024-10-02_03h06.52.428,mdp,2024.2.1,Win32,48.54368932,66fa4ebf79326e780c390304,,,,,,,,,,,,,,,,,,,,,283.9309,283.9309,283.9328,284.6052,0,1,left,0.1435,,284.6073,284.6083,,1,,284.6095,284.6103,,0,,0,284.6104,284.6104,284.6113,286.1221,0,16,16,16,1,0.6,0.4,0.2,0.8,1,0,,,,,,,,,,,,,,,,,,,,,,,,,,,,,,,,,,,,
,,65ba49256dc8eda1950b70b3,66fc9aa3d85e6ef54d92db35,2024-10-02_03h06.52.428,mdp,2024.2.1,Win32,48.54368932,66fa4ebf79326e780c390304,,,,,,,,,,,,,,,,,,,,,286.1231,286.1231,286.1249,288.1155,1,1,right,1.4675,,288.1184,288.12,,1,,288.1215,288.1225,,1,,0,288.1225,288.1225,288.1237,289.6153,0,17,17,17,1,0.6,0.4,0.2,0.8,1,0,,,,,,,,,,,,,,,,,,,,,,,,,,,,,,,,,,,,
,,65ba49256dc8eda1950b70b3,66fc9aa3d85e6ef54d92db35,2024-10-02_03h06.52.428,mdp,2024.2.1,Win32,48.54368932,66fa4ebf79326e780c390304,,,,,,,,,,,,,,,,,,,,,289.6159,289.6159,289.6183,290.2674,0,0,left,0.1181,,290.2696,290.2707,,0,,290.2721,290.273,,0,,1,290.2731,290.2731,290.275,291.7648,0,18,18,18,1,0.6,0.4,0.2,0.8,1,0,,,,,,,,,,,,,,,,,,,,,,,,,,,,,,,,,,,,
,,65ba49256dc8eda1950b70b3,66fc9aa3d85e6ef54d92db35,2024-10-02_03h06.52.428,mdp,2024.2.1,Win32,48.54368932,66fa4ebf79326e780c390304,,,,,,,,,,,,,,,,,,,,,291.766,291.766,291.7676,293.4732,0,0,left,1.1863,,293.4772,293.4783,,0,,293.4803,293.4818,,1,,1,293.4819,293.4819,293.4831,294.9699,0,19,19,19,1,0.6,0.4,0.2,0.8,1,0,,,,,,,,,,,,,,,,,,,,,,,,,,,,,,,,,,,,
,,65ba49256dc8eda1950b70b3,66fc9aa3d85e6ef54d92db35,2024-10-02_03h06.52.428,mdp,2024.2.1,Win32,48.54368932,66fa4ebf79326e780c390304,,,,,,,,,,,,,,,,,,,,,294.971,294.971,294.9726,296.4513,0,1,left,0.9357,,296.4534,296.4556,,0,,296.4575,296.4605,,0,,0,296.4605,296.4605,296.462,297.9496,0,20,20,20,1,0.6,0.4,0.2,0.8,1,0,,,,,,,,,,,,,,,,,,,,,,,,,,,,,,,,,,,,
,,65ba49256dc8eda1950b70b3,66fc9aa3d85e6ef54d92db35,2024-10-02_03h06.52.428,mdp,2024.2.1,Win32,48.54368932,66fa4ebf79326e780c390304,,,,,,,,,,,,,,,,,,,,,297.9506,297.9506,297.9524,298.5439,1,0,right,0.0454,,298.5458,298.5467,,0,,298.548,298.5491,,0,,1,298.5491,298.5491,298.5502,300.03,0,21,21,21,1,0.4,0.6,0.8,0.2,1,0,,,,,,,,,,,,,,,,,,,,,,,,,,,,,,,,,,,,
,,65ba49256dc8eda1950b70b3,66fc9aa3d85e6ef54d92db35,2024-10-02_03h06.52.428,mdp,2024.2.1,Win32,48.54368932,66fa4ebf79326e780c390304,,,,,,,,,,,,,,,,,,,,,300.031,300.031,300.0328,301.3176,0,1,left,0.7348,,301.3212,301.3248,,1,,301.3263,301.3273,,1,,0,301.3274,301.3274,301.3284,302.8212,0,22,22,22,1,0.4,0.6,0.8,0.2,1,0,,,,,,,,,,,,,,,,,,,,,,,,,,,,,,,,,,,,
,,65ba49256dc8eda1950b70b3,66fc9aa3d85e6ef54d92db35,2024-10-02_03h06.52.428,mdp,2024.2.1,Win32,48.54368932,66fa4ebf79326e780c390304,,,,,,,,,,,,,,,,,,,,,302.8221,302.8222,302.8238,303.3543,1,0,right,0.0009,,303.3564,303.3575,,1,,303.3588,303.3596,,0,,1,303.3597,303.3597,303.3607,304.8519,0,23,23,23,1,0.4,0.6,0.8,0.2,1,0,,,,,,,,,,,,,,,,,,,,,,,,,,,,,,,,,,,,
,,65ba49256dc8eda1950b70b3,66fc9aa3d85e6ef54d92db35,2024-10-02_03h06.52.428,mdp,2024.2.1,Win32,48.54368932,66fa4ebf79326e780c390304,,,,,,,,,,,,,,,,,,,,,304.8525,304.8525,304.854,306.4413,0,0,left,1.067,,306.4434,306.4445,,1,,306.4473,306.4485,,1,,1,306.4485,306.4485,306.4504,307.9514,0,24,24,24,1,0.4,0.6,0.8,0.2,1,0,,,,,,,,,,,,,,,,,,,,,,,,,,,,,,,,,,,,
,,65ba49256dc8eda1950b70b3,66fc9aa3d85e6ef54d92db35,2024-10-02_03h06.52.428,mdp,2024.2.1,Win32,48.54368932,66fa4ebf79326e780c390304,,,,,,,,,,,,,,,,,,,,,307.9523,307.9524,307.9541,308.7653,0,1,left,0.2832,,308.7674,308.7685,,0,,308.7697,308.7706,,0,,0,308.7707,308.7707,308.7716,310.2522,0,25,25,25,1,0.4,0.6,0.8,0.2,1,0,,,,,,,,,,,,,,,,,,,,,,,,,,,,,,,,,,,,
,,65ba49256dc8eda1950b70b3,66fc9aa3d85e6ef54d92db35,2024-10-02_03h06.52.428,mdp,2024.2.1,Win32,48.54368932,66fa4ebf79326e780c390304,,,,,,,,,,,,,,,,,,,,,310.2533,310.2534,310.2551,311.1247,1,0,right,0.3465,,311.1268,311.1305,,0,,311.1319,311.1332,,1,,1,311.1333,311.1333,311.1344,312.6285,0,26,26,26,1,0.4,0.6,0.8,0.2,1,0,,,,,,,,,,,,,,,,,,,,,,,,,,,,,,,,,,,,
,,65ba49256dc8eda1950b70b3,66fc9aa3d85e6ef54d92db35,2024-10-02_03h06.52.428,mdp,2024.2.1,Win32,48.54368932,66fa4ebf79326e780c390304,,,,,,,,,,,,,,,,,,,,,312.629,312.629,312.6305,315.2922,1,0,right,2.1161,,315.2943,315.2954,,0,,315.2966,315.2974,,0,,1,315.2975,315.2975,315.2985,316.8062,0,27,27,27,1,0.4,0.6,0.8,0.2,1,0,,,,,,,,,,,,,,,,,,,,,,,,,,,,,,,,,,,,
,,65ba49256dc8eda1950b70b3,66fc9aa3d85e6ef54d92db35,2024-10-02_03h06.52.428,mdp,2024.2.1,Win32,48.54368932,66fa4ebf79326e780c390304,,,,,,,,,,,,,,,,,,,,,316.8068,316.8068,316.8087,318.7465,0,0,left,1.4168,,318.7485,318.7505,,1,,318.7523,318.7537,,0,,1,318.7538,318.7538,318.7549,320.2448,0,28,28,28,1,0.4,0.6,0.8,0.2,1,0,,,,,,,,,,,,,,,,,,,,,,,,,,,,,,,,,,,,
,,65ba49256dc8eda1950b70b3,66fc9aa3d85e6ef54d92db35,2024-10-02_03h06.52.428,mdp,2024.2.1,Win32,48.54368932,66fa4ebf79326e780c390304,,,,,,,,,,,,,,,,,,,,,320.2457,320.2457,320.2475,322.0855,0,1,left,1.3042,,322.0878,322.0891,,1,,322.0906,322.0919,,1,,0,322.0921,322.0921,322.0935,323.5831,0,29,29,29,1,0.4,0.6,0.8,0.2,1,0,,,,,,,,,,,,,,,,,,,,,,,,,,,,,,,,,,,,
,,65ba49256dc8eda1950b70b3,66fc9aa3d85e6ef54d92db35,2024-10-02_03h06.52.428,mdp,2024.2.1,Win32,48.54368932,66fa4ebf79326e780c390304,,,,,,,,,,,,,,,,,,,,,323.5841,323.5841,323.5858,324.4328,0,0,left,0.317,,324.4349,324.4359,,0,,324.4373,324.4383,,0,,1,324.4383,324.4383,324.4392,325.9172,0,30,30,30,1,0.4,0.6,0.8,0.2,1,0,,,,,,,,,,,,,,,,,,,,,,,,,,,,,,,,,,,,
,,65ba49256dc8eda1950b70b3,66fc9aa3d85e6ef54d92db35,2024-10-02_03h06.52.428,mdp,2024.2.1,Win32,48.54368932,66fa4ebf79326e780c390304,,,,,,,,,,,,,,,,,,,,,325.9181,325.9181,325.9199,327.3304,1,1,right,0.8752,,327.3323,327.3333,,0,,327.3342,327.3353,,0,,0,327.3353,327.3353,327.3363,328.8291,0,31,31,31,1,0.4,0.6,0.8,0.2,1,0,,,,,,,,,,,,,,,,,,,,,,,,,,,,,,,,,,,,
,,65ba49256dc8eda1950b70b3,66fc9aa3d85e6ef54d92db35,2024-10-02_03h06.52.428,mdp,2024.2.1,Win32,48.54368932,66fa4ebf79326e780c390304,,,,,,,,,,,,,,,,,,,,,328.8295,328.8295,328.8311,330.153,0,0,left,0.8057,,330.1564,330.1575,,0,,330.1591,330.1601,,1,,1,330.1603,330.1603,330.1615,331.6376,0,32,32,32,1,0.4,0.6,0.8,0.2,1,0,,,,,,,,,,,,,,,,,,,,,,,,,,,,,,,,,,,,
,,65ba49256dc8eda1950b70b3,66fc9aa3d85e6ef54d92db35,2024-10-02_03h06.52.428,mdp,2024.2.1,Win32,48.54368932,66fa4ebf79326e780c390304,,,,,,,,,,,,,,,,,,,,,331.6384,331.6385,331.641,332.9875,0,1,left,0.81,,332.9897,332.9922,,1,,332.9939,332.9947,,1,,0,332.9948,332.9948,332.9957,334.4971,0,33,33,33,1,0.4,0.6,0.8,0.2,1,0,,,,,,,,,,,,,,,,,,,,,,,,,,,,,,,,,,,,
,,65ba49256dc8eda1950b70b3,66fc9aa3d85e6ef54d92db35,2024-10-02_03h06.52.428,mdp,2024.2.1,Win32,48.54368932,66fa4ebf79326e780c390304,,,,,,,,,,,,,,,,,,,,,334.498,334.498,334.4996,335.5646,1,1,right,0.5332,,335.5694,335.5706,,1,,335.5722,335.5731,,1,,0,335.5732,335.5732,335.5744,337.0702,0,34,34,34,1,0.8,0.2,0.2,0.8,1,0,,,,,,,,,,,,,,,,,,,,,,,,,,,,,,,,,,,,
,,65ba49256dc8eda1950b70b3,66fc9aa3d85e6ef54d92db35,2024-10-02_03h06.52.428,mdp,2024.2.1,Win32,48.54368932,66fa4ebf79326e780c390304,,,,,,,,,,,,,,,,,,,,,337.0714,337.0714,337.0733,337.7733,1,0,right,0.1708,,337.7753,337.7761,,0,,337.7774,337.7781,,0,,1,337.7782,337.7782,337.7791,339.275,0,35,35,35,1,0.2,0.8,0.8,0.2,1,0,,,,,,,,,,,,,,,,,,,,,,,,,,,,,,,,,,,,
,,65ba49256dc8eda1950b70b3,66fc9aa3d85e6ef54d92db35,2024-10-02_03h06.52.428,mdp,2024.2.1,Win32,48.54368932,66fa4ebf79326e780c390304,,,,,,,,,,,,,,,,,,,,,339.2759,339.2759,339.2775,340.0354,1,0,right,0.2115,,340.0375,340.0388,,0,,340.0401,340.0409,,1,,1,340.041,340.041,340.042,341.5345,0,36,36,36,1,0.2,0.8,0.8,0.2,1,0,,,,,,,,,,,,,,,,,,,,,,,,,,,,,,,,,,,,
,,65ba49256dc8eda1950b70b3,66fc9aa3d85e6ef54d92db35,2024-10-02_03h06.52.428,mdp,2024.2.1,Win32,48.54368932,66fa4ebf79326e780c390304,,,,,,,,,,,,,,,,,,,,,341.5355,341.5355,341.537,342.4909,0,0,left,0.4172,,342.4936,342.4946,,0,,342.4957,342.4966,,1,,1,342.4967,342.4967,342.4978,344.0046,0,37,37,37,1,0.2,0.8,0.8,0.2,1,0,,,,,,,,,,,,,,,,,,,,,,,,,,,,,,,,,,,,
,,65ba49256dc8eda1950b70b3,66fc9aa3d85e6ef54d92db35,2024-10-02_03h06.52.428,mdp,2024.2.1,Win32,48.54368932,66fa4ebf79326e780c390304,,,,,,,,,,,,,,,,,,,,,344.0055,344.0055,344.0071,346.6196,0,1,left,2.0925,,346.6216,346.6235,,1,,346.6253,346.6265,,1,,0,346.6266,346.6266,346.6278,348.1161,0,38,38,38,1,0.2,0.8,0.8,0.2,1,0,,,,,,,,,,,,,,,,,,,,,,,,,,,,,,,,,,,,
,,65ba49256dc8eda1950b70b3,66fc9aa3d85e6ef54d92db35,2024-10-02_03h06.52.428,mdp,2024.2.1,Win32,48.54368932,66fa4ebf79326e780c390304,,,,,,,,,,,,,,,,,,,,,348.1172,348.1172,348.119,350.7424,1,0,right,2.1,,350.7444,350.7454,,0,,350.7467,350.7477,,0,,1,350.7477,350.7477,350.7486,352.2391,0,39,39,39,1,0.2,0.8,0.8,0.2,1,0,,,,,,,,,,,,,,,,,,,,,,,,,,,,,,,,,,,,
,,65ba49256dc8eda1950b70b3,66fc9aa3d85e6ef54d92db35,2024-10-02_03h06.52.428,mdp,2024.2.1,Win32,48.54368932,66fa4ebf79326e780c390304,,,,,,,,,,,,,,,,,,,,,352.2398,352.2398,352.2436,354.2641,0,1,left,1.4845,,354.2722,354.2734,,0,,354.2745,354.2754,,1,,0,354.2755,354.2755,354.2764,355.7792,0,40,40,40,1,0.2,0.8,0.8,0.2,1,0,,,,,,,,,,,,,,,,,,,,,,,,,,,,,,,,,,,,
,,65ba49256dc8eda1950b70b3,66fc9aa3d85e6ef54d92db35,2024-10-02_03h06.52.428,mdp,2024.2.1,Win32,48.54368932,66fa4ebf79326e780c390304,,,,,,,,,,,,,,,,,,,,,355.7819,355.7819,355.7839,358.5181,1,0,right,2.2125,,358.5201,358.521,,1,,358.5221,358.523,,0,,1,358.523,358.523,358.524,360.0164,0,41,41,41,1,0.2,0.8,0.8,0.2,1,0,,,,,,,,,,,,,,,,,,,,,,,,,,,,,,,,,,,,
,,65ba49256dc8eda1950b70b3,66fc9aa3d85e6ef54d92db35,2024-10-02_03h06.52.428,mdp,2024.2.1,Win32,48.54368932,66fa4ebf79326e780c390304,,,,,,,,,,,,,,,,,,,,,360.0173,360.0173,360.0191,361.738,0,1,left,1.1904,,361.74,361.7419,,1,,361.7438,361.7452,,0,,0,361.7452,361.7452,361.7465,363.2343,0,42,42,42,1,0.2,0.8,0.8,0.2,1,0,,,,,,,,,,,,,,,,,,,,,,,,,,,,,,,,,,,,
,,65ba49256dc8eda1950b70b3,66fc9aa3d85e6ef54d92db35,2024-10-02_03h06.52.428,mdp,2024.2.1,Win32,48.54368932,66fa4ebf79326e780c390304,,,,,,,,,,,,,,,,,,,,,363.2352,363.2352,363.237,364.095,1,1,right,0.3071,,364.097,364.098,,0,,364.0994,364.1002,,0,,0,364.1002,364.1002,364.1011,365.5956,0,43,43,43,1,0.2,0.8,0.8,0.2,1,0,,,,,,,,,,,,,,,,,,,,,,,,,,,,,,,,,,,,
,,65ba49256dc8eda1950b70b3,66fc9aa3d85e6ef54d92db35,2024-10-02_03h06.52.428,mdp,2024.2.1,Win32,48.54368932,66fa4ebf79326e780c390304,,,,,,,,,,,,,,,,,,,,,365.5966,365.5966,365.5982,366.5603,0,1,left,0.4454,,366.5623,366.5634,,1,,366.5645,366.5656,,0,,0,366.5657,366.5657,366.5667,368.0438,0,44,44,44,1,0.2,0.8,0.8,0.2,1,0,,,,,,,,,,,,,,,,,,,,,,,,,,,,,,,,,,,,
,,65ba49256dc8eda1950b70b3,66fc9aa3d85e6ef54d92db35,2024-10-02_03h06.52.428,mdp,2024.2.1,Win32,48.54368932,66fa4ebf79326e780c390304,,,,,,,,,,,,,,,,,,,,,368.0448,368.0448,368.0465,370.613,0,0,left,2.0331,,370.6149,370.617,,1,,370.6186,370.6198,,1,,1,370.6199,370.6199,370.6211,372.1099,0,45,45,45,1,0.2,0.8,0.8,0.2,1,0,,,,,,,,,,,,,,,,,,,,,,,,,,,,,,,,,,,,
,,65ba49256dc8eda1950b70b3,66fc9aa3d85e6ef54d92db35,2024-10-02_03h06.52.428,mdp,2024.2.1,Win32,48.54368932,66fa4ebf79326e780c390304,,,,,,,,,,,,,,,,,,,,,372.111,372.1111,372.1127,374.6683,0,1,left,2.0157,,374.6698,374.6708,,1,,374.6722,374.673,,1,,0,374.6731,374.6731,374.674,376.173,0,46,46,46,1,0.2,0.8,0.8,0.2,1,0,,,,,,,,,,,,,,,,,,,,,,,,,,,,,,,,,,,,
,,65ba49256dc8eda1950b70b3,66fc9aa3d85e6ef54d92db35,2024-10-02_03h06.52.428,mdp,2024.2.1,Win32,48.54368932,66fa4ebf79326e780c390304,,,,,,,,,,,,,,,,,,,,,376.1741,376.1741,376.1757,377.2145,1,1,right,0.5106,,377.2165,377.2174,,1,,377.2186,377.2196,,1,,0,377.2197,377.2197,377.221,378.7053,0,47,47,47,1,0.8,0.2,0.4,0.6,1,0,,,,,,,,,,,,,,,,,,,,,,,,,,,,,,,,,,,,
,,65ba49256dc8eda1950b70b3,66fc9aa3d85e6ef54d92db35,2024-10-02_03h06.52.428,mdp,2024.2.1,Win32,48.54368932,66fa4ebf79326e780c390304,,,,,,,,,,,,,,,,,,,,,378.7061,378.7062,378.7091,380.5705,1,1,right,1.337,,380.5733,380.5756,,1,,380.5779,380.579,,1,,0,380.5792,380.5792,380.5801,382.0782,0,48,48,48,1,0.8,0.2,0.4,0.6,1,0,,,,,,,,,,,,,,,,,,,,,,,,,,,,,,,,,,,,
,,65ba49256dc8eda1950b70b3,66fc9aa3d85e6ef54d92db35,2024-10-02_03h06.52.428,mdp,2024.2.1,Win32,48.54368932,66fa4ebf79326e780c390304,,,,,,,,,,,,,,,,,,,,,382.0791,382.0791,382.0809,382.8925,1,0,right,0.2739,,382.8947,382.8957,,1,,382.8969,382.8976,,1,,1,382.8977,382.8977,382.899,384.4007,0,49,49,49,1,0.8,0.2,0.4,0.6,1,0,,,,,,,,,,,,,,,,,,,,,,,,,,,,,,,,,,,,
,,65ba49256dc8eda1950b70b3,66fc9aa3d85e6ef54d92db35,2024-10-02_03h06.52.428,mdp,2024.2.1,Win32,48.54368932,66fa4ebf79326e780c390304,,,,,,,,,,,,,,,,,,,,,,,,,,,,,,,,,,,,,,,,,,,,,,,,,,,,,,,,384.4034,442.9102,0,0,0,4,1,imgs/cat.png,imgs/giraffe.png,imgs/lion.png,imgs/rabbit.png,imgs/kangaroo.png,,,,,,,,,,,,,,,,,,,,,,,,
,,65ba49256dc8eda1950b70b3,66fc9aa3d85e6ef54d92db35,2024-10-02_03h06.52.428,mdp,2024.2.1,Win32,48.54368932,66fa4ebf79326e780c390304,,,,,,,,,,,,,,2,seqs/st2seq6.csv,442.9132,446.0486,space,2.608,,446.0623,446.0623,446.0643,450.1203,0,0,left,3.5262,,450.1254,460.7953,0,1,left,460.7973,460.8008,,0,,0,460.801,460.801,460.8023,462.2813,0,0,0,0,1,0.8,0.2,0.6,0.4,,,,,,,,,,,,,,,10.1241,,0.6,0.4,0.6,0.4,0.4,0.6,0.4,0.6,1,0,,,,,,,,,,,,
,,65ba49256dc8eda1950b70b3,66fc9aa3d85e6ef54d92db35,2024-10-02_03h06.52.428,mdp,2024.2.1,Win32,48.54368932,66fa4ebf79326e780c390304,,,,,,,,,,,,,,,,,,,,,462.2819,462.282,462.2842,464.6967,1,1,right,1.8828,,464.6986,467.7918,1,0,right,467.7937,467.7946,,0,,1,467.7948,467.7948,467.7959,469.2931,0,1,1,1,1,0.8,0.2,0.6,0.4,,,,,,,,,,,,,,,2.5349,,0.6,0.4,0.6,0.4,0.4,0.6,0.4,0.6,1,0,,,,,,,,,,,,
,,65ba49256dc8eda1950b70b3,66fc9aa3d85e6ef54d92db35,2024-10-02_03h06.52.428,mdp,2024.2.1,Win32,48.54368932,66fa4ebf79326e780c390304,,,,,,,,,,,,,,,,,,,,,469.2942,469.2942,469.2957,472.4438,1,0,right,2.61,,472.446,474.7541,0,0,left,474.7558,474.757,,1,,1,474.7571,474.7571,474.7581,476.2772,0,2,2,2,1,0.8,0.2,0.6,0.4,,,,,,,,,,,,,,,1.769,,0.6,0.4,0.6,0.4,0.4,0.6,0.4,0.6,1,0,,,,,,,,,,,,
,,65ba49256dc8eda1950b70b3,66fc9aa3d85e6ef54d92db35,2024-10-02_03h06.52.428,mdp,2024.2.1,Win32,48.54368932,66fa4ebf79326e780c390304,,,,,,,,,,,,,,,,,,,,,476.2782,476.2782,476.2818,478.7825,1,1,right,1.9654,,478.7845,482.1328,0,1,left,482.1348,482.1358,,0,,0,482.1359,482.1359,482.137,483.6268,0,3,3,3,1,0.8,0.2,0.6,0.4,,,,,,,,,,,,,,,2.792,,0.6,0.4,0.6,0.4,0.4,0.6,0.4,0.6,1,0,,,,,,,,,,,,
,,65ba49256dc8eda1950b70b3,66fc9aa3d85e6ef54d92db35,2024-10-02_03h06.52.428,mdp,2024.2.1,Win32,48.54368932,66fa4ebf79326e780c390304,,,,,,,,,,,,,,,,,,,,,483.6276,483.6276,483.6297,485.3817,0,0,left,1.2227,,485.3839,488.1056,0,1,left,488.1078,488.1089,,1,,0,488.109,488.109,488.1101,489.6046,0,4,4,4,1,0.8,0.2,0.6,0.4,,,,,,,,,,,,,,,2.1887,,0.6,0.4,0.6,0.4,0.4,0.6,0.4,0.6,1,0,,,,,,,,,,,,
,,65ba49256dc8eda1950b70b3,66fc9aa3d85e6ef54d92db35,2024-10-02_03h06.52.428,mdp,2024.2.1,Win32,48.54368932,66fa4ebf79326e780c390304,,,,,,,,,,,,,,,,,,,,,489.6052,489.6052,489.6067,491.3535,0,1,left,1.2211,,491.3555,493.1273,1,0,right,493.1309,493.1324,,1,,1,493.1324,493.1324,493.1343,494.6265,0,5,5,5,1,0.4,0.6,0.8,0.2,,,,,,,,,,,,,,,1.2336,,0.6,0.4,0.6,0.4,0.4,0.6,0.4,0.6,1,0,,,,,,,,,,,,
,,65ba49256dc8eda1950b70b3,66fc9aa3d85e6ef54d92db35,2024-10-02_03h06.52.428,mdp,2024.2.1,Win32,48.54368932,66fa4ebf79326e780c390304,,,,,,,,,,,,,,,,,,,,,494.6293,494.6293,494.6315,496.6653,0,1,left,1.5155,,496.6678,498.5462,0,1,left,498.5483,498.5493,,1,,0,498.5494,498.5494,498.5506,500.0396,0,6,6,6,1,0.4,0.6,0.8,0.2,,,,,,,,,,,,,,,1.354,,0.6,0.4,0.6,0.4,0.6,0.4,0.6,0.4,1,0,,,,,,,,,,,,
,,65ba49256dc8eda1950b70b3,66fc9aa3d85e6ef54d92db35,2024-10-02_03h06.52.428,mdp,2024.2.1,Win32,48.54368932,66fa4ebf79326e780c390304,,,,,,,,,,,,,,,,,,,,,500.0405,500.0405,500.0426,501.0952,0,1,left,0.5273,,501.0975,502.1513,0,0,left,502.1545,502.1558,,1,,1,502.1558,502.1558,502.1575,503.6576,0,7,7,7,1,0.4,0.6,0.8,0.2,,,,,,,,,,,,,,,0.5204,,0.2,0.8,0.4,0.6,0.6,0.4,0.6,0.4,1,0,,,,,,,,,,,,
,,65ba49256dc8eda1950b70b3,66fc9aa3d85e6ef54d92db35,2024-10-02_03h06.52.428,mdp,2024.2.1,Win32,48.54368932,66fa4ebf79326e780c390304,,,,,,,,,,,,,,,,,,,,,503.6587,503.6587,503.6605,506.7778,1,0,right,2.5981,,506.7798,510.1521,0,1,left,510.1542,510.1553,,1,,0,510.1554,510.1555,510.1567,511.6494,0,8,8,8,1,0.4,0.6,0.8,0.2,,,,,,,,,,,,,,,2.8381,,0.2,0.8,0.4,0.6,0.6,0.4,0.6,0.4,1,0,,,,,,,,,,,,
,,65ba49256dc8eda1950b70b3,66fc9aa3d85e6ef54d92db35,2024-10-02_03h06.52.428,mdp,2024.2.1,Win32,48.54368932,66fa4ebf79326e780c390304,,,,,,,,,,,,,,,,,,,,,511.65,511.65,511.6514,513.5327,0,0,left,1.3505,,513.5347,516.0218,1,0,right,516.0256,516.0269,,1,,1,516.027,516.0271,516.0287,517.5274,0,9,9,9,1,0.4,0.6,0.8,0.2,,,,,,,,,,,,,,,1.9491,,0.2,0.8,0.4,0.6,0.6,0.4,0.6,0.4,1,0,,,,,,,,,,,,
,,65ba49256dc8eda1950b70b3,66fc9aa3d85e6ef54d92db35,2024-10-02_03h06.52.428,mdp,2024.2.1,Win32,48.54368932,66fa4ebf79326e780c390304,,,,,,,,,,,,,,,,,,,,,517.5284,517.5284,517.53,520.3186,1,1,right,2.247,,520.3226,521.8071,1,1,right,521.809,521.81,,1,,0,521.8101,521.8101,521.8112,523.3051,0,10,10,10,1,0.4,0.6,0.8,0.2,,,,,,,,,,,,,,,0.933,,0.2,0.8,0.4,0.6,0.6,0.4,0.6,0.4,1,0,,,,,,,,,,,,
,,65ba49256dc8eda1950b70b3,66fc9aa3d85e6ef54d92db35,2024-10-02_03h06.52.428,mdp,2024.2.1,Win32,48.54368932,66fa4ebf79326e780c390304,,,,,,,,,,,,,,,,,,,,,523.3059,523.3059,523.3076,524.7884,0,0,left,0.9407,,524.7904,526.2189,1,0,right,526.2206,526.2216,,1,,1,526.2217,526.2217,526.2228,527.7177,0,11,11,11,1,0.4,0.6,0.8,0.2,,,,,,,,,,,,,,,0.872,,0.2,0.8,0.4,0.6,0.6,0.4,0.6,0.4,1,0,,,,,,,,,,,,
,,65ba49256dc8eda1950b70b3,66fc9aa3d85e6ef54d92db35,2024-10-02_03h06.52.428,mdp,2024.2.1,Win32,48.54368932,66fa4ebf79326e780c390304,,,,,,,,,,,,,,,,,,,,,527.7187,527.7187,527.7204,531.5775,1,0,right,3.3252,,531.5798,536.7348,1,1,right,536.7396,536.7409,,1,,0,536.741,536.741,536.7424,538.2304,0,12,12,12,1,0.4,0.6,0.8,0.2,,,,,,,,,,,,,,,4.6111,,0.2,0.8,0.4,0.6,0.6,0.4,0.6,0.4,1,0,,,,,,,,,,,,
,,65ba49256dc8eda1950b70b3,66fc9aa3d85e6ef54d92db35,2024-10-02_03h06.52.428,mdp,2024.2.1,Win32,48.54368932,66fa4ebf79326e780c390304,,,,,,,,,,,,,,,,,,,,,538.2314,538.2314,538.2331,539.7394,1,0,right,0.9669,,539.7414,543.3704,1,1,right,543.3724,543.3733,,1,,0,543.3734,543.3734,543.3743,544.8672,0,13,13,13,1,0.4,0.6,0.8,0.2,,,,,,,,,,,,,,,3.0887,,0.2,0.8,0.4,0.6,0.6,0.4,0.6,0.4,1,0,,,,,,,,,,,,
,,65ba49256dc8eda1950b70b3,66fc9aa3d85e6ef54d92db35,2024-10-02_03h06.52.428,mdp,2024.2.1,Win32,48.54368932,66fa4ebf79326e780c390304,,,,,,,,,,,,,,,,,,,,,544.8679,544.868,544.8694,545.698,0,1,left,0.3089,,545.7002,547.2984,1,0,right,547.3003,547.3012,,0,,1,547.3013,547.3013,547.3024,548.7824,0,14,14,14,1,0.4,0.6,0.8,0.2,,,,,,,,,,,,,,,1.0651,,0.2,0.8,0.4,0.6,0.6,0.4,0.6,0.4,1,0,,,,,,,,,,,,
,,65ba49256dc8eda1950b70b3,66fc9aa3d85e6ef54d92db35,2024-10-02_03h06.52.428,mdp,2024.2.1,Win32,48.54368932,66fa4ebf79326e780c390304,,,,,,,,,,,,,,,,,,,,,548.7835,548.7835,548.7853,551.754,0,1,left,2.45,,551.758,553.4683,0,1,left,553.4714,553.4726,,0,,0,553.4727,553.4727,553.4745,554.9586,0,15,15,15,1,0.4,0.6,0.8,0.2,,,,,,,,,,,,,,,1.1602,,0.2,0.8,0.4,0.6,0.6,0.4,0.6,0.4,1,0,,,,,,,,,,,,
,,65ba49256dc8eda1950b70b3,66fc9aa3d85e6ef54d92db35,2024-10-02_03h06.52.428,mdp,2024.2.1,Win32,48.54368932,66fa4ebf79326e780c390304,,,,,,,,,,,,,,,,,,,,,554.96,554.9601,554.9616,556.2738,0,1,left,0.777,,556.2756,558.6214,0,0,left,558.6229,558.6239,,0,,1,558.6239,558.6239,558.6251,560.1187,0,16,16,16,1,0.4,0.6,0.8,0.2,,,,,,,,,,,,,,,1.8192,,0.2,0.8,0.4,0.6,0.6,0.4,0.6,0.4,1,0,,,,,,,,,,,,
,,65ba49256dc8eda1950b70b3,66fc9aa3d85e6ef54d92db35,2024-10-02_03h06.52.428,mdp,2024.2.1,Win32,48.54368932,66fa4ebf79326e780c390304,,,,,,,,,,,,,,,,,,,,,560.1198,560.1198,560.1218,564.1562,0,1,left,3.4878,,564.1581,566.18,1,0,right,566.1817,566.1826,,1,,1,566.1827,566.1827,566.1835,567.6789,0,17,17,17,1,0.4,0.6,0.8,0.2,,,,,,,,,,,,,,,1.4881,,0.2,0.8,0.4,0.6,0.6,0.4,0.6,0.4,1,0,,,,,,,,,,,,
,,65ba49256dc8eda1950b70b3,66fc9aa3d85e6ef54d92db35,2024-10-02_03h06.52.428,mdp,2024.2.1,Win32,48.54368932,66fa4ebf79326e780c390304,,,,,,,,,,,,,,,,,,,,,567.6796,567.6796,567.6808,571.3603,1,0,right,3.1488,,571.3619,573.7806,0,0,left,573.7827,573.7852,,0,,1,573.7853,573.7853,573.787,575.2873,0,18,18,18,1,0.4,0.6,0.8,0.2,,,,,,,,,,,,,,,1.8741,,0.2,0.8,0.4,0.6,0.6,0.4,0.6,0.4,1,0,,,,,,,,,,,,
,,65ba49256dc8eda1950b70b3,66fc9aa3d85e6ef54d92db35,2024-10-02_03h06.52.428,mdp,2024.2.1,Win32,48.54368932,66fa4ebf79326e780c390304,,,,,,,,,,,,,,,,,,,,,575.2883,575.2883,575.2901,576.4364,1,0,right,0.6104,,576.4385,577.8033,0,1,left,577.8054,577.8065,,1,,0,577.8066,577.8066,577.8076,579.3008,0,19,19,19,1,0.4,0.6,0.8,0.2,,,,,,,,,,,,,,,0.8352,,0.2,0.8,0.4,0.6,0.6,0.4,0.6,0.4,1,0,,,,,,,,,,,,
,,65ba49256dc8eda1950b70b3,66fc9aa3d85e6ef54d92db35,2024-10-02_03h06.52.428,mdp,2024.2.1,Win32,48.54368932,66fa4ebf79326e780c390304,,,,,,,,,,,,,,,,,,,,,579.3016,579.3016,579.303,580.8645,0,1,left,1.0237,,580.8665,582.6002,1,1,right,582.6018,582.6052,,1,,0,582.6053,582.6053,582.6067,584.0956,0,20,20,20,1,0.4,0.6,0.8,0.2,,,,,,,,,,,,,,,1.2037,,0.2,0.8,0.4,0.6,0.6,0.4,0.6,0.4,1,0,,,,,,,,,,,,
,,65ba49256dc8eda1950b70b3,66fc9aa3d85e6ef54d92db35,2024-10-02_03h06.52.428,mdp,2024.2.1,Win32,48.54368932,66fa4ebf79326e780c390304,,,,,,,,,,,,,,,,,,,,,584.0961,584.0961,584.098,584.6791,0,1,left,0.0516,,584.6808,585.9339,1,1,right,585.9357,585.9366,,0,,0,585.9367,585.9367,585.9378,587.4256,0,21,21,21,1,0.4,0.6,0.8,0.2,,,,,,,,,,,,,,,0.729,,0.2,0.8,0.4,0.6,0.6,0.4,0.6,0.4,1,0,,,,,,,,,,,,
,,65ba49256dc8eda1950b70b3,66fc9aa3d85e6ef54d92db35,2024-10-02_03h06.52.428,mdp,2024.2.1,Win32,48.54368932,66fa4ebf79326e780c390304,,,,,,,,,,,,,,,,,,,,,587.4265,587.4265,587.4279,588.6915,0,1,left,0.7329,,588.6935,589.5082,1,0,right,589.5103,589.5114,,0,,1,589.5117,589.5118,589.5128,591.0046,0,22,22,22,1,0.4,0.6,0.8,0.2,,,,,,,,,,,,,,,0.2846,,0.2,0.8,0.4,0.6,0.6,0.4,0.6,0.4,1,0,,,,,,,,,,,,
,,65ba49256dc8eda1950b70b3,66fc9aa3d85e6ef54d92db35,2024-10-02_03h06.52.428,mdp,2024.2.1,Win32,48.54368932,66fa4ebf79326e780c390304,,,,,,,,,,,,,,,,,,,,,591.0057,591.0057,591.0073,592.671,0,1,left,1.1224,,592.6726,594.0437,1,1,right,594.0454,594.0464,,0,,0,594.0465,594.0465,594.0488,595.5374,0,23,23,23,1,0.4,0.6,0.8,0.2,,,,,,,,,,,,,,,0.8439,,0.2,0.8,0.4,0.6,0.6,0.4,0.6,0.4,1,0,,,,,,,,,,,,
,,65ba49256dc8eda1950b70b3,66fc9aa3d85e6ef54d92db35,2024-10-02_03h06.52.428,mdp,2024.2.1,Win32,48.54368932,66fa4ebf79326e780c390304,,,,,,,,,,,,,,,,,,,,,595.5379,595.5379,595.5395,596.5252,1,0,right,0.4575,,596.5269,597.3663,0,1,left,597.3684,597.3694,,1,,0,597.3695,597.3695,597.3709,598.8643,0,24,24,24,1,0.4,0.6,0.8,0.2,,,,,,,,,,,,,,,0.2999,,0.2,0.8,0.4,0.6,0.6,0.4,0.6,0.4,1,0,,,,,,,,,,,,
,,65ba49256dc8eda1950b70b3,66fc9aa3d85e6ef54d92db35,2024-10-02_03h06.52.428,mdp,2024.2.1,Win32,48.54368932,66fa4ebf79326e780c390304,,,,,,,,,,,,,,,,,,,,,598.8648,598.8648,598.8667,599.7238,0,1,left,0.3349,,599.7272,600.613,1,0,right,600.6148,600.6156,,0,,1,600.6157,600.6157,600.6166,602.1026,0,25,25,25,1,0.4,0.6,0.8,0.2,,,,,,,,,,,,,,,0.3387,,0.6,0.4,0.2,0.8,0.6,0.4,0.6,0.4,1,0,,,,,,,,,,,,
,,65ba49256dc8eda1950b70b3,66fc9aa3d85e6ef54d92db35,2024-10-02_03h06.52.428,mdp,2024.2.1,Win32,48.54368932,66fa4ebf79326e780c390304,,,,,,,,,,,,,,,,,,,,,602.1036,602.1036,602.1054,603.5794,1,1,right,0.9378,,603.5814,605.3424,0,0,left,605.3444,605.3454,,1,,1,605.3454,605.3455,605.3466,606.8447,0,26,26,26,1,0.4,0.6,0.8,0.2,,,,,,,,,,,,,,,1.2334,,0.6,0.4,0.2,0.8,0.6,0.4,0.6,0.4,1,0,,,,,,,,,,,,
,,65ba49256dc8eda1950b70b3,66fc9aa3d85e6ef54d92db35,2024-10-02_03h06.52.428,mdp,2024.2.1,Win32,48.54368932,66fa4ebf79326e780c390304,,,,,,,,,,,,,,,,,,,,,606.8453,606.8453,606.8467,609.0052,1,0,right,1.6449,,609.0072,611.4326,0,1,left,611.4351,611.4363,,1,,0,611.4363,611.4363,611.4377,612.9176,0,27,27,27,1,0.4,0.6,0.8,0.2,,,,,,,,,,,,,,,1.8924,,0.6,0.4,0.2,0.8,0.2,0.8,0.2,0.8,1,0,,,,,,,,,,,,
,,65ba49256dc8eda1950b70b3,66fc9aa3d85e6ef54d92db35,2024-10-02_03h06.52.428,mdp,2024.2.1,Win32,48.54368932,66fa4ebf79326e780c390304,,,,,,,,,,,,,,,,,,,,,612.9185,612.9185,612.9202,614.0674,0,0,left,0.6195,,614.0693,615.7146,1,0,right,615.7167,615.7179,,1,,1,615.718,615.718,615.7195,617.2131,0,28,28,28,1,0.4,0.6,0.8,0.2,,,,,,,,,,,,,,,1.1166,,0.6,0.4,0.2,0.8,0.2,0.8,0.2,0.8,1,0,,,,,,,,,,,,
,,65ba49256dc8eda1950b70b3,66fc9aa3d85e6ef54d92db35,2024-10-02_03h06.52.428,mdp,2024.2.1,Win32,48.54368932,66fa4ebf79326e780c390304,,,,,,,,,,,,,,,,,,,,,617.2142,617.2142,617.2158,618.6626,0,0,left,0.9163,,618.6647,622.6257,0,1,left,622.6277,622.6287,,0,,0,622.6287,622.6287,622.6299,624.1243,0,29,29,29,1,0.4,0.6,0.8,0.2,,,,,,,,,,,,,,,3.4321,,0.6,0.4,0.2,0.8,0.2,0.8,0.2,0.8,1,0,,,,,,,,,,,,
,,65ba49256dc8eda1950b70b3,66fc9aa3d85e6ef54d92db35,2024-10-02_03h06.52.428,mdp,2024.2.1,Win32,48.54368932,66fa4ebf79326e780c390304,,,,,,,,,,,,,,,,,,,,,624.1252,624.1252,624.1269,625.2061,0,0,left,0.5437,,625.2079,627.6712,1,1,right,627.6726,627.6735,,0,,0,627.6737,627.6737,627.6751,629.1682,0,30,30,30,1,0.4,0.6,0.8,0.2,,,,,,,,,,,,,,,1.9425,,0.6,0.4,0.2,0.8,0.2,0.8,0.2,0.8,1,0,,,,,,,,,,,,
,,65ba49256dc8eda1950b70b3,66fc9aa3d85e6ef54d92db35,2024-10-02_03h06.52.428,mdp,2024.2.1,Win32,48.54368932,66fa4ebf79326e780c390304,,,,,,,,,,,,,,,,,,,,,629.1687,629.1687,629.1711,630.0354,0,0,left,0.3352,,630.0373,631.2507,1,1,right,631.2528,631.254,,0,,0,631.2541,631.2541,631.255,632.7478,0,31,31,31,1,0.4,0.6,0.8,0.2,,,,,,,,,,,,,,,0.6949,,0.6,0.4,0.2,0.8,0.2,0.8,0.2,0.8,1,0,,,,,,,,,,,,
,,65ba49256dc8eda1950b70b3,66fc9aa3d85e6ef54d92db35,2024-10-02_03h06.52.428,mdp,2024.2.1,Win32,48.54368932,66fa4ebf79326e780c390304,,,,,,,,,,,,,,,,,,,,,632.7489,632.749,632.7505,633.8503,1,0,right,0.5719,,633.8523,634.5806,0,0,left,634.5825,634.5835,,1,,1,634.5837,634.5837,634.5851,636.0785,0,32,32,32,1,0.4,0.6,0.8,0.2,,,,,,,,,,,,,,,0.2014,,0.4,0.6,0.6,0.4,0.2,0.8,0.2,0.8,1,0,,,,,,,,,,,,
,,65ba49256dc8eda1950b70b3,66fc9aa3d85e6ef54d92db35,2024-10-02_03h06.52.428,mdp,2024.2.1,Win32,48.54368932,66fa4ebf79326e780c390304,,,,,,,,,,,,,,,,,,,,,636.0791,636.0792,636.0804,637.6271,1,0,right,1.0058,,637.6292,639.1929,1,0,right,639.1948,639.1957,,0,,1,639.1958,639.1958,639.1968,640.6904,0,33,33,33,1,0.4,0.6,0.8,0.2,,,,,,,,,,,,,,,1.0391,,0.4,0.6,0.6,0.4,0.2,0.8,0.2,0.8,1,0,,,,,,,,,,,,
,,65ba49256dc8eda1950b70b3,66fc9aa3d85e6ef54d92db35,2024-10-02_03h06.52.428,mdp,2024.2.1,Win32,48.54368932,66fa4ebf79326e780c390304,,,,,,,,,,,,,,,,,,,,,640.6913,640.6913,640.693,643.0735,0,0,left,1.852,,643.0749,644.6779,1,1,right,644.6795,644.6804,,1,,0,644.6804,644.6804,644.6849,646.1847,0,34,34,34,1,0.4,0.6,0.8,0.2,,,,,,,,,,,,,,,1.0746,,0.4,0.6,0.6,0.4,0.2,0.8,0.2,0.8,1,0,,,,,,,,,,,,
,,65ba49256dc8eda1950b70b3,66fc9aa3d85e6ef54d92db35,2024-10-02_03h06.52.428,mdp,2024.2.1,Win32,48.54368932,66fa4ebf79326e780c390304,,,,,,,,,,,,,,,,,,,,,646.1856,646.1856,646.1872,647.0679,1,1,right,0.3507,,647.0699,648.0506,0,1,left,648.0528,648.054,,1,,0,648.054,648.054,648.0554,649.548,0,35,35,35,1,0.4,0.6,0.8,0.2,,,,,,,,,,,,,,,0.4519,,0.4,0.6,0.6,0.4,0.2,0.8,0.2,0.8,1,0,,,,,,,,,,,,
,,65ba49256dc8eda1950b70b3,66fc9aa3d85e6ef54d92db35,2024-10-02_03h06.52.428,mdp,2024.2.1,Win32,48.54368932,66fa4ebf79326e780c390304,,,,,,,,,,,,,,,,,,,,,649.549,649.5491,649.5507,650.5772,0,1,left,0.4977,,650.5794,653.5131,1,1,right,653.5155,653.5164,,1,,0,653.5165,653.5165,653.5175,655.0098,0,36,36,36,1,0.6,0.4,0.6,0.4,,,,,,,,,,,,,,,2.42,,0.4,0.6,0.6,0.4,0.2,0.8,0.2,0.8,1,0,,,,,,,,,,,,
,,65ba49256dc8eda1950b70b3,66fc9aa3d85e6ef54d92db35,2024-10-02_03h06.52.428,mdp,2024.2.1,Win32,48.54368932,66fa4ebf79326e780c390304,,,,,,,,,,,,,,,,,,,,,655.0103,655.0103,655.0117,655.8937,1,0,right,0.367,,655.8958,656.9751,0,1,left,656.9774,656.9783,,0,,0,656.9784,656.9784,656.9796,658.4727,0,37,37,37,1,0.6,0.4,0.6,0.4,,,,,,,,,,,,,,,0.5425,,0.4,0.6,0.6,0.4,0.2,0.8,0.2,0.8,1,0,,,,,,,,,,,,
,,65ba49256dc8eda1950b70b3,66fc9aa3d85e6ef54d92db35,2024-10-02_03h06.52.428,mdp,2024.2.1,Win32,48.54368932,66fa4ebf79326e780c390304,,,,,,,,,,,,,,,,,,,,,658.4733,658.4733,658.4751,659.4222,0,0,left,0.4156,,659.4242,661.9078,1,0,right,661.9094,661.9104,,0,,1,661.9104,661.9104,661.9115,663.4014,0,38,38,38,1,0.6,0.4,0.6,0.4,,,,,,,,,,,,,,,1.9584,,0.4,0.6,0.6,0.4,0.2,0.8,0.2,0.8,1,0,,,,,,,,,,,,
,,65ba49256dc8eda1950b70b3,66fc9aa3d85e6ef54d92db35,2024-10-02_03h06.52.428,mdp,2024.2.1,Win32,48.54368932,66fa4ebf79326e780c390304,,,,,,,,,,,,,,,,,,,,,663.4021,663.4022,663.4037,664.9436,0,1,left,1.0118,,664.9474,668.7627,0,1,left,668.7649,668.7661,,1,,0,668.7664,668.7664,668.7678,670.2616,0,39,39,39,1,0.6,0.4,0.6,0.4,,,,,,,,,,,,,,,3.282,,0.4,0.6,0.6,0.4,0.2,0.8,0.2,0.8,1,0,,,,,,,,,,,,
,,65ba49256dc8eda1950b70b3,66fc9aa3d85e6ef54d92db35,2024-10-02_03h06.52.428,mdp,2024.2.1,Win32,48.54368932,66fa4ebf79326e780c390304,,,,,,,,,,,,,,,,,,,,,670.2626,670.2626,670.2643,672.1933,1,1,right,1.4024,,672.1985,675.2019,1,1,right,675.2038,675.2073,,1,,0,675.2073,675.2073,675.2087,676.7129,0,40,40,40,1,0.8,0.2,0.2,0.8,,,,,,,,,,,,,,,2.4765,,0.4,0.6,0.6,0.4,0.2,0.8,0.2,0.8,1,0,,,,,,,,,,,,
,,65ba49256dc8eda1950b70b3,66fc9aa3d85e6ef54d92db35,2024-10-02_03h06.52.428,mdp,2024.2.1,Win32,48.54368932,66fa4ebf79326e780c390304,,,,,,,,,,,,,,,,,,,,,676.7139,676.7139,676.7155,678.0941,0,1,left,0.851,,678.0962,681.9496,1,1,right,681.9516,681.9529,,1,,0,681.9529,681.9529,681.9545,683.4484,0,41,41,41,1,0.8,0.2,0.2,0.8,,,,,,,,,,,,,,,3.32,,0.4,0.6,0.6,0.4,0.2,0.8,0.2,0.8,1,0,,,,,,,,,,,,
,,65ba49256dc8eda1950b70b3,66fc9aa3d85e6ef54d92db35,2024-10-02_03h06.52.428,mdp,2024.2.1,Win32,48.54368932,66fa4ebf79326e780c390304,,,,,,,,,,,,,,,,,,,,,683.4495,683.4495,683.4511,684.8478,0,0,left,0.8671,,684.8501,687.3957,1,0,right,687.3974,687.3983,,1,,1,687.3983,687.3983,687.3995,688.8939,0,42,42,42,1,0.8,0.2,0.2,0.8,,,,,,,,,,,,,,,2.0084,,0.4,0.6,0.6,0.4,0.2,0.8,0.2,0.8,1,0,,,,,,,,,,,,
,,65ba49256dc8eda1950b70b3,66fc9aa3d85e6ef54d92db35,2024-10-02_03h06.52.428,mdp,2024.2.1,Win32,48.54368932,66fa4ebf79326e780c390304,,,,,,,,,,,,,,,,,,,,,688.8944,688.8944,688.8958,690.3585,1,0,right,0.9413,,690.3604,692.54,0,1,left,692.542,692.543,,1,,0,692.5431,692.5431,692.5443,694.0369,0,43,43,43,1,0.8,0.2,0.2,0.8,,,,,,,,,,,,,,,1.6496,,0.4,0.6,0.6,0.4,0.6,0.4,0.6,0.4,1,0,,,,,,,,,,,,
,,65ba49256dc8eda1950b70b3,66fc9aa3d85e6ef54d92db35,2024-10-02_03h06.52.428,mdp,2024.2.1,Win32,48.54368932,66fa4ebf79326e780c390304,,,,,,,,,,,,,,,,,,,,,694.0378,694.0379,694.0395,695.188,0,0,left,0.6187,,695.1902,696.1365,1,0,right,696.1385,696.1393,,0,,1,696.1394,696.1394,696.1403,697.6357,0,44,44,44,1,0.8,0.2,0.2,0.8,,,,,,,,,,,,,,,0.4147,,0.4,0.6,0.6,0.4,0.6,0.4,0.6,0.4,1,0,,,,,,,,,,,,
,,65ba49256dc8eda1950b70b3,66fc9aa3d85e6ef54d92db35,2024-10-02_03h06.52.428,mdp,2024.2.1,Win32,48.54368932,66fa4ebf79326e780c390304,,,,,,,,,,,,,,,,,,,,,697.6363,697.6363,697.6378,699.3338,0,0,left,1.1717,,699.3359,702.3812,0,1,left,702.3831,702.384,,0,,0,702.3841,702.3841,702.3851,703.8783,0,45,45,45,1,0.8,0.2,0.2,0.8,,,,,,,,,,,,,,,2.5166,,0.4,0.6,0.6,0.4,0.8,0.2,0.4,0.6,1,0,,,,,,,,,,,,
,,65ba49256dc8eda1950b70b3,66fc9aa3d85e6ef54d92db35,2024-10-02_03h06.52.428,mdp,2024.2.1,Win32,48.54368932,66fa4ebf79326e780c390304,,,,,,,,,,,,,,,,,,,,,703.8791,703.8791,703.881,704.9991,0,0,left,0.5913,,705.0013,706.1238,1,0,right,706.1257,706.1274,,0,,1,706.1276,706.1276,706.1294,707.6251,0,46,46,46,1,0.8,0.2,0.2,0.8,,,,,,,,,,,,,,,0.6068,,0.4,0.6,0.6,0.4,0.8,0.2,0.4,0.6,1,0,,,,,,,,,,,,
,,65ba49256dc8eda1950b70b3,66fc9aa3d85e6ef54d92db35,2024-10-02_03h06.52.428,mdp,2024.2.1,Win32,48.54368932,66fa4ebf79326e780c390304,,,,,,,,,,,,,,,,,,,,,707.6258,707.6258,707.6277,709.3733,1,1,right,1.2161,,709.3753,712.7203,1,1,right,712.7223,712.7232,,1,,0,712.7233,712.7233,712.7246,714.2188,0,47,47,47,1,0.8,0.2,0.2,0.8,,,,,,,,,,,,,,,2.8139,,0.4,0.6,0.6,0.4,0.8,0.2,0.4,0.6,1,0,,,,,,,,,,,,
,,65ba49256dc8eda1950b70b3,66fc9aa3d85e6ef54d92db35,2024-10-02_03h06.52.428,mdp,2024.2.1,Win32,48.54368932,66fa4ebf79326e780c390304,,,,,,,,,,,,,,,,,,,,,714.2195,714.2196,714.221,715.187,1,1,right,0.4353,,715.1888,718.5996,0,1,left,718.601,718.602,,1,,0,718.6021,718.6021,718.6029,720.0959,0,48,48,48,1,0.8,0.2,0.2,0.8,,,,,,,,,,,,,,,2.8988,,0.4,0.6,0.6,0.4,0.8,0.2,0.4,0.6,1,0,,,,,,,,,,,,
,,65ba49256dc8eda1950b70b3,66fc9aa3d85e6ef54d92db35,2024-10-02_03h06.52.428,mdp,2024.2.1,Win32,48.54368932,66fa4ebf79326e780c390304,,,,,,,,,,,,,,,,,,,,,720.0969,720.0969,720.0985,721.4452,0,1,left,0.8285,,721.4475,724.8092,0,0,left,724.8108,724.8118,,0,,1,724.8118,724.8118,724.8131,726.3065,0,49,49,49,1,0.8,0.2,0.2,0.8,,,,,,,,,,,,,,,2.8321,,0.2,0.8,0.8,0.2,0.8,0.2,0.4,0.6,1,0,,,,,,,,,,,,
,,65ba49256dc8eda1950b70b3,66fc9aa3d85e6ef54d92db35,2024-10-02_03h06.52.428,mdp,2024.2.1,Win32,48.54368932,66fa4ebf79326e780c390304,,,,,,,,,,,,,,,,,,,,,,,,,,,,,,,,,,,,,,,,,,,,,,,,,,,,,,,,726.3066,784.825,0,1,1,7,1,imgs/kangaroo.png,imgs/goat.png,imgs/rabbit.png,imgs/horse.png,imgs/pig.png,,,,,,,,,,,,,,,,,,,,,,,,
,,65ba49256dc8eda1950b70b3,66fc9aa3d85e6ef54d92db35,2024-10-02_03h06.52.428,mdp,2024.2.1,Win32,48.54368932,66fa4ebf79326e780c390304,,,,,,,,,,,,,,3,seqs/st3seq1.csv,784.8266,793.2165,space,7.8695,,793.2316,793.2316,793.234,797.7204,1,0,right,3.9543,,797.7224,801.3718,1,0,right,801.3734,805.3962,1,1,right,0,805.3963,805.3963,805.3986,806.9036,0,0,0,0,1,0.2,0.8,0.8,0.2,,,,,,,,,,,,,,,3.109,,0.2,0.8,0.8,0.2,0.6,0.4,0.2,0.8,,,3.4819,,0.8,0.2,0.2,0.8,0.6,0.4,0.6,0.4,1,0
,,65ba49256dc8eda1950b70b3,66fc9aa3d85e6ef54d92db35,2024-10-02_03h06.52.428,mdp,2024.2.1,Win32,48.54368932,66fa4ebf79326e780c390304,,,,,,,,,,,,,,,,,,,,,806.9049,806.9049,806.908,809.3763,1,0,right,1.9413,,809.3783,813.505,0,0,left,813.5072,820.4477,1,1,right,0,820.448,820.448,820.4498,821.9463,0,1,1,1,1,0.2,0.8,0.8,0.2,,,,,,,,,,,,,,,3.6031,,0.2,0.8,0.8,0.2,0.6,0.4,0.2,0.8,,,6.4121,,0.8,0.2,0.2,0.8,0.6,0.4,0.6,0.4,1,0
,,65ba49256dc8eda1950b70b3,66fc9aa3d85e6ef54d92db35,2024-10-02_03h06.52.428,mdp,2024.2.1,Win32,48.54368932,66fa4ebf79326e780c390304,,,,,,,,,,,,,,,,,,,,,821.947,821.947,821.9489,825.626,1,0,right,3.1445,,825.6277,833.6862,1,0,right,833.6881,836.9071,1,1,right,0,836.9072,836.9072,836.9089,838.4029,0,2,2,2,1,0.2,0.8,0.8,0.2,,,,,,,,,,,,,,,7.5306,,0.2,0.8,0.8,0.2,0.6,0.4,0.2,0.8,,,2.6899,,0.8,0.2,0.2,0.8,0.6,0.4,0.6,0.4,1,0
,,65ba49256dc8eda1950b70b3,66fc9aa3d85e6ef54d92db35,2024-10-02_03h06.52.428,mdp,2024.2.1,Win32,48.54368932,66fa4ebf79326e780c390304,,,,,,,,,,,,,,,,,,,,,838.404,838.404,838.4057,839.3477,1,0,right,0.4191,,839.3496,840.8527,0,1,left,840.8546,844.633,0,1,left,0,844.6331,844.6331,844.6349,846.1235,0,3,3,3,1,0.2,0.8,0.8,0.2,,,,,,,,,,,,,,,0.9648,,0.2,0.8,0.8,0.2,0.4,0.6,0.8,0.2,,,3.2414,,0.8,0.2,0.2,0.8,0.6,0.4,0.6,0.4,1,0
,,65ba49256dc8eda1950b70b3,66fc9aa3d85e6ef54d92db35,2024-10-02_03h06.52.428,mdp,2024.2.1,Win32,48.54368932,66fa4ebf79326e780c390304,,,,,,,,,,,,,,,,,,,,,846.1249,846.1249,846.1262,847.6875,1,0,right,1.0315,,847.6895,856.1148,1,1,right,856.1164,859.4446,1,0,right,1,859.4447,859.4447,859.4463,860.9339,0,4,4,4,1,0.2,0.8,0.8,0.2,,,,,,,,,,,,,,,7.8962,,0.2,0.8,0.8,0.2,0.4,0.6,0.8,0.2,,,2.7998,,0.8,0.2,0.2,0.8,0.6,0.4,0.6,0.4,1,0
,,65ba49256dc8eda1950b70b3,66fc9aa3d85e6ef54d92db35,2024-10-02_03h06.52.428,mdp,2024.2.1,Win32,48.54368932,66fa4ebf79326e780c390304,,,,,,,,,,,,,,,,,,,,,860.9351,860.9351,860.9385,864.2884,0,0,left,2.8159,,864.2906,869.2007,0,1,left,869.2027,873.2113,0,0,left,1,873.2114,873.2114,873.2137,874.7108,0,5,5,5,1,0.6,0.4,0.4,0.6,,,,,,,,,,,,,,,4.3802,,0.2,0.8,0.8,0.2,0.4,0.6,0.8,0.2,,,3.4781,,0.8,0.2,0.2,0.8,0.6,0.4,0.6,0.4,1,0
,,65ba49256dc8eda1950b70b3,66fc9aa3d85e6ef54d92db35,2024-10-02_03h06.52.428,mdp,2024.2.1,Win32,48.54368932,66fa4ebf79326e780c390304,,,,,,,,,,,,,,,,,,,,,874.7118,874.7118,874.7131,876.838,0,0,left,1.5948,,876.8399,879.3907,0,0,left,879.3926,884.4853,1,1,right,0,884.4854,884.4855,884.4875,885.9834,0,6,6,6,1,0.6,0.4,0.4,0.6,,,,,,,,,,,,,,,2.034,,0.2,0.8,0.8,0.2,0.4,0.6,0.8,0.2,,,4.5636,,0.8,0.2,0.2,0.8,0.6,0.4,0.6,0.4,1,0
,,65ba49256dc8eda1950b70b3,66fc9aa3d85e6ef54d92db35,2024-10-02_03h06.52.428,mdp,2024.2.1,Win32,48.54368932,66fa4ebf79326e780c390304,,,,,,,,,,,,,,,,,,,,,885.9843,885.9843,885.9858,887.932,0,1,left,1.4164,,887.9341,891.3128,0,0,left,891.3147,893.4107,0,0,left,1,893.4111,893.4111,893.4126,894.9075,0,7,7,7,1,0.6,0.4,0.4,0.6,,,,,,,,,,,,,,,2.837,,0.2,0.8,0.8,0.2,0.6,0.4,0.4,0.6,,,1.5674,,0.8,0.2,0.2,0.8,0.6,0.4,0.6,0.4,1,0
,,65ba49256dc8eda1950b70b3,66fc9aa3d85e6ef54d92db35,2024-10-02_03h06.52.428,mdp,2024.2.1,Win32,48.54368932,66fa4ebf79326e780c390304,,,,,,,,,,,,,,,,,,,,,894.9085,894.9085,894.91,896.2223,0,1,left,0.7788,,896.2244,899.7439,0,0,left,899.7458,902.6677,1,1,right,0,902.6678,902.6678,902.6698,904.1657,0,8,8,8,1,0.6,0.4,0.4,0.6,,,,,,,,,,,,,,,3.0053,,0.2,0.8,0.8,0.2,0.6,0.4,0.4,0.6,,,2.4015,,0.8,0.2,0.2,0.8,0.6,0.4,0.6,0.4,1,0
,,65ba49256dc8eda1950b70b3,66fc9aa3d85e6ef54d92db35,2024-10-02_03h06.52.428,mdp,2024.2.1,Win32,48.54368932,66fa4ebf79326e780c390304,,,,,,,,,,,,,,,,,,,,,904.1666,904.1666,904.168,905.4813,0,1,left,0.7845,,905.4835,907.3474,1,0,right,907.3494,911.0507,1,0,right,1,911.0509,911.0509,911.0528,912.5411,0,9,9,9,1,0.6,0.4,0.4,0.6,,,,,,,,,,,,,,,1.3338,,0.2,0.8,0.8,0.2,0.6,0.4,0.4,0.6,,,3.1756,,0.8,0.2,0.2,0.8,0.6,0.4,0.6,0.4,1,0
,,65ba49256dc8eda1950b70b3,66fc9aa3d85e6ef54d92db35,2024-10-02_03h06.52.428,mdp,2024.2.1,Win32,48.54368932,66fa4ebf79326e780c390304,,,,,,,,,,,,,,,,,,,,,912.542,912.542,912.5437,915.2232,1,0,right,2.1505,,915.2251,919.5915,0,1,left,919.5933,923.6485,1,1,right,0,923.6487,923.6489,923.6503,925.146,0,10,10,10,1,0.6,0.4,0.4,0.6,,,,,,,,,,,,,,,3.8219,,0.2,0.8,0.8,0.2,0.6,0.4,0.4,0.6,,,3.5231,,0.8,0.2,0.2,0.8,0.6,0.4,0.6,0.4,1,0
,,65ba49256dc8eda1950b70b3,66fc9aa3d85e6ef54d92db35,2024-10-02_03h06.52.428,mdp,2024.2.1,Win32,48.54368932,66fa4ebf79326e780c390304,,,,,,,,,,,,,,,,,,,,,925.1471,925.1471,925.1486,927.3418,1,1,right,1.6569,,927.3438,929.0585,0,0,left,929.0606,930.6735,0,0,left,1,930.6736,930.6736,930.6756,932.1733,0,11,11,11,1,0.6,0.4,0.4,0.6,,,,,,,,,,,,,,,1.1911,,0.2,0.8,0.8,0.2,0.8,0.2,0.2,0.8,,,1.0747,,0.8,0.2,0.2,0.8,0.6,0.4,0.6,0.4,1,0
,,65ba49256dc8eda1950b70b3,66fc9aa3d85e6ef54d92db35,2024-10-02_03h06.52.428,mdp,2024.2.1,Win32,48.54368932,66fa4ebf79326e780c390304,,,,,,,,,,,,,,,,,,,,,932.1744,932.1744,932.1764,933.3378,0,1,left,0.6101,,933.34,934.9998,0,0,left,935.0021,936.8661,0,0,left,1,936.8662,936.8662,936.8682,938.3654,0,12,12,12,1,0.4,0.6,0.6,0.4,,,,,,,,,,,,,,,1.1314,,0.2,0.8,0.8,0.2,0.8,0.2,0.2,0.8,,,1.335,,0.8,0.2,0.2,0.8,0.6,0.4,0.6,0.4,1,0
,,65ba49256dc8eda1950b70b3,66fc9aa3d85e6ef54d92db35,2024-10-02_03h06.52.428,mdp,2024.2.1,Win32,48.54368932,66fa4ebf79326e780c390304,,,,,,,,,,,,,,,,,,,,,938.3665,938.3665,938.368,977.8019,0,1,left,38.9039,,977.8043,979.0094,0,0,left,979.0115,979.7924,0,1,left,0,979.7925,979.7926,979.7945,981.2903,0,13,13,13,1,0.4,0.6,0.6,0.4,,,,,,,,,,,,,,,0.6831,,0.2,0.8,0.8,0.2,0.8,0.2,0.2,0.8,,,0.257,,0.2,0.8,0.4,0.6,0.6,0.4,0.6,0.4,1,0
,,65ba49256dc8eda1950b70b3,66fc9aa3d85e6ef54d92db35,2024-10-02_03h06.52.428,mdp,2024.2.1,Win32,48.54368932,66fa4ebf79326e780c390304,,,,,,,,,,,,,,,,,,,,,981.291,981.291,981.293,982.1894,0,0,left,0.3697,,982.1916,982.8389,0,0,left,982.8408,984.0079,0,1,left,0,984.008,984.008,984.0098,985.5029,0,14,14,14,1,0.4,0.6,0.6,0.4,,,,,,,,,,,,,,,0.1073,,0.2,0.8,0.8,0.2,0.8,0.2,0.2,0.8,,,0.636,,0.2,0.8,0.4,0.6,0.6,0.4,0.6,0.4,1,0
,,65ba49256dc8eda1950b70b3,66fc9aa3d85e6ef54d92db35,2024-10-02_03h06.52.428,mdp,2024.2.1,Win32,48.54368932,66fa4ebf79326e780c390304,,,,,,,,,,,,,,,,,,,,,985.5039,985.5039,985.5055,986.3363,0,0,left,0.3084,,986.3382,987.2732,0,1,left,987.2753,989.102,1,0,right,1,989.102,989.1021,989.1047,990.5977,0,15,15,15,1,0.4,0.6,0.6,0.4,,,,,,,,,,,,,,,0.406,,0.2,0.8,0.8,0.2,0.8,0.2,0.2,0.8,,,1.2931,,0.2,0.8,0.4,0.6,0.6,0.4,0.6,0.4,1,0
,,65ba49256dc8eda1950b70b3,66fc9aa3d85e6ef54d92db35,2024-10-02_03h06.52.428,mdp,2024.2.1,Win32,48.54368932,66fa4ebf79326e780c390304,,,,,,,,,,,,,,,,,,,,,990.5988,990.5988,990.6005,991.6623,0,0,left,0.5323,,991.6646,992.6309,1,0,right,992.6327,994.6942,0,1,left,0,994.6943,994.6943,994.6964,996.195,0,16,16,16,1,0.4,0.6,0.6,0.4,,,,,,,,,,,,,,,0.4521,,0.2,0.8,0.8,0.2,0.8,0.2,0.2,0.8,,,1.5237,,0.2,0.8,0.4,0.6,0.6,0.4,0.6,0.4,1,0
,,65ba49256dc8eda1950b70b3,66fc9aa3d85e6ef54d92db35,2024-10-02_03h06.52.428,mdp,2024.2.1,Win32,48.54368932,66fa4ebf79326e780c390304,,,,,,,,,,,,,,,,,,,,,996.196,996.196,996.1977,997.1749,0,0,left,0.4553,,997.1769,998.1062,1,0,right,998.1083,999.0307,1,0,right,1,999.0309,999.0309,999.0328,1000.5223,0,17,17,17,1,0.4,0.6,0.6,0.4,,,,,,,,,,,,,,,0.3996,,0.2,0.8,0.8,0.2,0.8,0.2,0.2,0.8,,,0.3987,,0.6,0.4,0.6,0.4,0.6,0.4,0.6,0.4,1,0
,,65ba49256dc8eda1950b70b3,66fc9aa3d85e6ef54d92db35,2024-10-02_03h06.52.428,mdp,2024.2.1,Win32,48.54368932,66fa4ebf79326e780c390304,,,,,,,,,,,,,,,,,,,,,1000.5229,1000.5229,1000.5242,1002.9693,1,0,right,1.9219,,1002.9713,1003.9542,0,0,left,1003.9565,1004.5861,1,0,right,1,1004.5862,1004.5862,1004.5876,1006.0912,0,18,18,18,1,0.4,0.6,0.6,0.4,,,,,,,,,,,,,,,0.4555,,0.2,0.8,0.8,0.2,0.8,0.2,0.2,0.8,,,0.1004,,0.6,0.4,0.6,0.4,0.6,0.4,0.6,0.4,1,0
,,65ba49256dc8eda1950b70b3,66fc9aa3d85e6ef54d92db35,2024-10-02_03h06.52.428,mdp,2024.2.1,Win32,48.54368932,66fa4ebf79326e780c390304,,,,,,,,,,,,,,,,,,,,,1006.0917,1006.0918,1006.0931,1031.7418,1,1,right,25.1157,,1031.7439,1033.0727,1,1,right,1033.0746,1034.6384,0,0,left,1,1034.6385,1034.6385,1034.6405,1036.1277,0,19,19,19,1,0.4,0.6,0.6,0.4,,,,,,,,,,,,,,,0.805,,0.2,0.8,0.8,0.2,0.8,0.2,0.2,0.8,,,1.0388,,0.6,0.4,0.6,0.4,0.6,0.4,0.6,0.4,1,0
,,65ba49256dc8eda1950b70b3,66fc9aa3d85e6ef54d92db35,2024-10-02_03h06.52.428,mdp,2024.2.1,Win32,48.54368932,66fa4ebf79326e780c390304,,,,,,,,,,,,,,,,,,,,,1036.1287,1036.1287,1036.1307,1037.0206,1,0,right,0.3671,,1037.0222,1038.5367,0,1,left,1038.5383,1039.7077,1,0,right,1,1039.7078,1039.7078,1039.7097,1041.1995,0,20,20,20,1,0.4,0.6,0.6,0.4,,,,,,,,,,,,,,,0.9863,,0.2,0.8,0.8,0.2,0.8,0.2,0.2,0.8,,,0.6416,,0.6,0.4,0.6,0.4,0.6,0.4,0.6,0.4,1,0
,,65ba49256dc8eda1950b70b3,66fc9aa3d85e6ef54d92db35,2024-10-02_03h06.52.428,mdp,2024.2.1,Win32,48.54368932,66fa4ebf79326e780c390304,,,,,,,,,,,,,,,,,,,,,1041.2002,1041.2002,1041.2022,1044.3141,0,1,left,2.5822,,1044.3156,1046.1945,0,0,left,1046.1966,1051.2916,1,0,right,1,1051.2917,1051.2917,1051.2939,1052.7935,0,21,21,21,1,0.4,0.6,0.6,0.4,,,,,,,,,,,,,,,1.3521,,0.2,0.8,0.8,0.2,0.8,0.2,0.2,0.8,,,4.5637,,0.6,0.4,0.6,0.4,0.6,0.4,0.6,0.4,1,0
,,65ba49256dc8eda1950b70b3,66fc9aa3d85e6ef54d92db35,2024-10-02_03h06.52.428,mdp,2024.2.1,Win32,48.54368932,66fa4ebf79326e780c390304,,,,,,,,,,,,,,,,,,,,,1052.794,1052.794,1052.7959,1060.7226,1,1,right,7.4036,,1060.7252,1062.9346,0,1,left,1062.9367,1063.6197,1,0,right,1,1063.6199,1063.6199,1063.6236,1065.1247,0,22,22,22,1,0.4,0.6,0.6,0.4,,,,,,,,,,,,,,,1.6756,,0.2,0.8,0.8,0.2,0.8,0.2,0.2,0.8,,,0.1299,,0.2,0.8,0.2,0.8,0.6,0.4,0.6,0.4,1,0
,,65ba49256dc8eda1950b70b3,66fc9aa3d85e6ef54d92db35,2024-10-02_03h06.52.428,mdp,2024.2.1,Win32,48.54368932,66fa4ebf79326e780c390304,,,,,,,,,,,,,,,,,,,,,1065.1258,1065.1258,1065.1275,1066.5484,0,1,left,0.9004,,1066.5505,1067.3737,1,0,right,1067.3758,1068.439,0,0,left,1,1068.4391,1068.4391,1068.4411,1069.9365,0,23,23,23,1,0.4,0.6,0.6,0.4,,,,,,,,,,,,,,,0.3021,,0.4,0.6,0.4,0.6,0.8,0.2,0.2,0.8,,,0.5255,,0.2,0.8,0.2,0.8,0.6,0.4,0.6,0.4,1,0
,,65ba49256dc8eda1950b70b3,66fc9aa3d85e6ef54d92db35,2024-10-02_03h06.52.428,mdp,2024.2.1,Win32,48.54368932,66fa4ebf79326e780c390304,,,,,,,,,,,,,,,,,,,,,1069.9371,1069.9372,1069.9386,1070.8932,0,0,left,0.424,,1070.8959,1072.1667,0,1,left,1072.1691,1075.4153,0,1,left,0,1075.4155,1075.4155,1075.4173,1076.9134,0,24,24,24,1,0.4,0.6,0.6,0.4,,,,,,,,,,,,,,,0.7468,,0.4,0.6,0.4,0.6,0.8,0.2,0.2,0.8,,,2.7207,,0.2,0.8,0.2,0.8,0.6,0.4,0.6,0.4,1,0
,,65ba49256dc8eda1950b70b3,66fc9aa3d85e6ef54d92db35,2024-10-02_03h06.52.428,mdp,2024.2.1,Win32,48.54368932,66fa4ebf79326e780c390304,,,,,,,,,,,,,,,,,,,,,1076.9142,1076.9143,1076.9159,1078.2199,1,0,right,0.7662,,1078.2219,1079.1851,1,0,right,1079.1869,1080.1273,1,1,right,0,1080.1274,1080.1274,1080.129,1081.6253,0,25,25,25,1,0.4,0.6,0.6,0.4,,,,,,,,,,,,,,,0.4438,,0.4,0.6,0.4,0.6,0.8,0.2,0.2,0.8,,,0.4088,,0.2,0.8,0.2,0.8,0.6,0.4,0.6,0.4,1,0
,,65ba49256dc8eda1950b70b3,66fc9aa3d85e6ef54d92db35,2024-10-02_03h06.52.428,mdp,2024.2.1,Win32,48.54368932,66fa4ebf79326e780c390304,,,,,,,,,,,,,,,,,,,,,1081.6264,1081.6264,1081.628,1082.6589,1,1,right,0.5015,,1082.6611,1084.024,0,0,left,1084.0265,1085.4728,0,1,left,0,1085.4728,1085.4728,1085.4749,1086.9701,0,26,26,26,1,0.4,0.6,0.6,0.4,,,,,,,,,,,,,,,0.8252,,0.4,0.6,0.4,0.6,0.8,0.2,0.2,0.8,,,0.9221,,0.2,0.8,0.2,0.8,0.6,0.4,0.6,0.4,1,0
,,65ba49256dc8eda1950b70b3,66fc9aa3d85e6ef54d92db35,2024-10-02_03h06.52.428,mdp,2024.2.1,Win32,48.54368932,66fa4ebf79326e780c390304,,,,,,,,,,,,,,,,,,,,,1086.9712,1086.9712,1086.9729,1087.8369,0,0,left,0.3188,,1087.8389,1088.6924,1,1,right,1088.6943,1089.5594,0,0,left,1,1089.5596,1089.5596,1089.5613,1091.0494,0,27,27,27,1,0.4,0.6,0.6,0.4,,,,,,,,,,,,,,,0.3156,,0.4,0.6,0.4,0.6,0.8,0.2,0.2,0.8,,,0.3333,,0.2,0.8,0.2,0.8,0.6,0.4,0.6,0.4,1,0
,,65ba49256dc8eda1950b70b3,66fc9aa3d85e6ef54d92db35,2024-10-02_03h06.52.428,mdp,2024.2.1,Win32,48.54368932,66fa4ebf79326e780c390304,,,,,,,,,,,,,,,,,,,,,1091.0502,1091.0502,1091.0517,1092.2738,0,0,left,0.6947,,1092.2759,1093.1823,1,1,right,1093.1836,1094.7681,0,1,left,0,1094.7682,1094.7683,1094.7699,1096.2636,0,28,28,28,1,0.4,0.6,0.6,0.4,,,,,,,,,,,,,,,0.3698,,0.4,0.6,0.4,0.6,0.8,0.2,0.2,0.8,,,1.0555,,0.2,0.8,0.2,0.8,0.6,0.4,0.6,0.4,1,0
,,65ba49256dc8eda1950b70b3,66fc9aa3d85e6ef54d92db35,2024-10-02_03h06.52.428,mdp,2024.2.1,Win32,48.54368932,66fa4ebf79326e780c390304,,,,,,,,,,,,,,,,,,,,,1096.2643,1096.2643,1096.2664,1097.2267,0,0,left,0.4335,,1097.2288,1098.0434,1,1,right,1098.0454,1098.5782,0,1,left,0,1098.5783,1098.5783,1098.5804,1100.0741,0,29,29,29,1,0.4,0.6,0.6,0.4,,,,,,,,,,,,,,,0.2999,,0.4,0.6,0.4,0.6,0.8,0.2,0.2,0.8,,,0.001,,0.8,0.2,0.6,0.4,0.6,0.4,0.6,0.4,1,0
,,65ba49256dc8eda1950b70b3,66fc9aa3d85e6ef54d92db35,2024-10-02_03h06.52.428,mdp,2024.2.1,Win32,48.54368932,66fa4ebf79326e780c390304,,,,,,,,,,,,,,,,,,,,,1100.0751,1100.0752,1100.0766,1100.9576,1,0,right,0.3503,,1100.9596,1101.7475,0,0,left,1101.7494,1103.238,1,1,right,0,1103.238,1103.238,1103.2399,1104.7347,0,30,30,30,1,0.4,0.6,0.6,0.4,,,,,,,,,,,,,,,0.2676,,0.4,0.6,0.4,0.6,0.8,0.2,0.2,0.8,,,0.9566,,0.8,0.2,0.6,0.4,0.6,0.4,0.6,0.4,1,0
,,65ba49256dc8eda1950b70b3,66fc9aa3d85e6ef54d92db35,2024-10-02_03h06.52.428,mdp,2024.2.1,Win32,48.54368932,66fa4ebf79326e780c390304,,,,,,,,,,,,,,,,,,,,,1104.7359,1104.7359,1104.7375,1105.7034,0,0,left,0.4506,,1105.705,1106.3894,1,0,right,1106.3916,1107.2579,0,0,left,1,1107.2579,1107.258,1107.2599,1108.7494,0,31,31,31,1,0.4,0.6,0.6,0.4,,,,,,,,,,,,,,,0.1674,,0.4,0.6,0.4,0.6,0.8,0.2,0.2,0.8,,,0.3416,,0.8,0.2,0.6,0.4,0.2,0.8,0.8,0.2,1,0
,,65ba49256dc8eda1950b70b3,66fc9aa3d85e6ef54d92db35,2024-10-02_03h06.52.428,mdp,2024.2.1,Win32,48.54368932,66fa4ebf79326e780c390304,,,,,,,,,,,,,,,,,,,,,1108.7504,1108.7504,1108.7521,1109.5994,0,1,left,0.3183,,1109.6011,1110.6977,0,0,left,1110.6998,1111.9965,1,0,right,1,1111.9966,1111.9967,1111.9987,1113.4942,0,32,32,32,1,0.4,0.6,0.6,0.4,,,,,,,,,,,,,,,0.5588,,0.4,0.6,0.4,0.6,0.8,0.2,0.2,0.8,,,0.7668,,0.8,0.2,0.6,0.4,0.2,0.8,0.8,0.2,1,0
,,65ba49256dc8eda1950b70b3,66fc9aa3d85e6ef54d92db35,2024-10-02_03h06.52.428,mdp,2024.2.1,Win32,48.54368932,66fa4ebf79326e780c390304,,,,,,,,,,,,,,,,,,,,,1113.4953,1113.4953,1113.4968,1114.4445,0,1,left,0.418,,1114.4465,1115.9764,1,1,right,1115.9782,1116.7768,0,0,left,1,1116.7769,1116.7769,1116.7783,1118.2729,0,33,33,33,1,0.4,0.6,0.6,0.4,,,,,,,,,,,,,,,1.0012,,0.4,0.6,0.4,0.6,0.8,0.2,0.2,0.8,,,0.2747,,0.8,0.2,0.6,0.4,0.2,0.8,0.8,0.2,1,0
,,65ba49256dc8eda1950b70b3,66fc9aa3d85e6ef54d92db35,2024-10-02_03h06.52.428,mdp,2024.2.1,Win32,48.54368932,66fa4ebf79326e780c390304,,,,,,,,,,,,,,,,,,,,,1118.274,1118.274,1118.2757,1120.7378,0,1,left,1.9317,,1120.7399,1121.721,0,0,left,1121.7229,1123.1212,1,1,right,0,1123.1213,1123.1213,1123.1229,1124.6251,0,34,34,34,1,0.4,0.6,0.6,0.4,,,,,,,,,,,,,,,0.4663,,0.4,0.6,0.4,0.6,0.8,0.2,0.2,0.8,,,0.8606,,0.8,0.2,0.6,0.4,0.2,0.8,0.8,0.2,1,0
,,65ba49256dc8eda1950b70b3,66fc9aa3d85e6ef54d92db35,2024-10-02_03h06.52.428,mdp,2024.2.1,Win32,48.54368932,66fa4ebf79326e780c390304,,,,,,,,,,,,,,,,,,,,,1124.6261,1124.6261,1124.629,1125.7328,0,0,left,0.5842,,1125.7349,1126.6208,1,0,right,1126.6227,1127.4295,0,0,left,1,1127.4297,1127.4297,1127.4319,1128.9207,0,35,35,35,1,0.2,0.8,0.2,0.8,,,,,,,,,,,,,,,0.3479,,0.4,0.6,0.4,0.6,0.8,0.2,0.2,0.8,,,0.284,,0.8,0.2,0.6,0.4,0.2,0.8,0.8,0.2,1,0
,,65ba49256dc8eda1950b70b3,66fc9aa3d85e6ef54d92db35,2024-10-02_03h06.52.428,mdp,2024.2.1,Win32,48.54368932,66fa4ebf79326e780c390304,,,,,,,,,,,,,,,,,,,,,1128.9213,1128.9213,1128.9232,1129.8294,0,1,left,0.3764,,1129.8313,1130.676,1,1,right,1130.6782,1131.7932,0,1,left,0,1131.7934,1131.7934,1131.7953,1133.2901,0,36,36,36,1,0.2,0.8,0.2,0.8,,,,,,,,,,,,,,,0.3064,,0.4,0.6,0.4,0.6,0.8,0.2,0.2,0.8,,,0.5831,,0.4,0.6,0.2,0.8,0.2,0.8,0.8,0.2,1,0
,,65ba49256dc8eda1950b70b3,66fc9aa3d85e6ef54d92db35,2024-10-02_03h06.52.428,mdp,2024.2.1,Win32,48.54368932,66fa4ebf79326e780c390304,,,,,,,,,,,,,,,,,,,,,1133.291,1133.291,1133.2926,1134.1579,0,0,left,0.3312,,1134.1597,1135.1733,1,0,right,1135.1756,1136.3268,0,0,left,1,1136.3269,1136.3269,1136.3289,1137.8204,0,37,37,37,1,0.6,0.4,0.4,0.6,,,,,,,,,,,,,,,0.4751,,0.4,0.6,0.4,0.6,0.8,0.2,0.2,0.8,,,0.6128,,0.4,0.6,0.2,0.8,0.2,0.8,0.8,0.2,1,0
,,65ba49256dc8eda1950b70b3,66fc9aa3d85e6ef54d92db35,2024-10-02_03h06.52.428,mdp,2024.2.1,Win32,48.54368932,66fa4ebf79326e780c390304,,,,,,,,,,,,,,,,,,,,,1137.8215,1137.8215,1137.8232,1138.8199,0,0,left,0.4678,,1138.8217,1139.7382,1,0,right,1139.7401,1140.6517,0,1,left,0,1140.6518,1140.6518,1140.6538,1142.1593,0,38,38,38,1,0.6,0.4,0.4,0.6,,,,,,,,,,,,,,,0.3856,,0.4,0.6,0.4,0.6,0.8,0.2,0.2,0.8,,,0.3834,,0.4,0.6,0.2,0.8,0.2,0.8,0.8,0.2,1,0
,,65ba49256dc8eda1950b70b3,66fc9aa3d85e6ef54d92db35,2024-10-02_03h06.52.428,mdp,2024.2.1,Win32,48.54368932,66fa4ebf79326e780c390304,,,,,,,,,,,,,,,,,,,,,1142.1604,1142.1604,1142.1641,1143.4653,0,1,left,0.7724,,1143.4672,1144.4383,1,1,right,1144.4399,1145.7629,1,1,right,0,1145.7631,1145.7632,1145.7652,1147.2516,0,39,39,39,1,0.6,0.4,0.4,0.6,,,,,,,,,,,,,,,0.4467,,0.4,0.6,0.4,0.6,0.8,0.2,0.2,0.8,,,0.7912,,0.4,0.6,0.2,0.8,0.2,0.8,0.8,0.2,1,0
,,65ba49256dc8eda1950b70b3,66fc9aa3d85e6ef54d92db35,2024-10-02_03h06.52.428,mdp,2024.2.1,Win32,48.54368932,66fa4ebf79326e780c390304,,,,,,,,,,,,,,,,,,,,,1147.2529,1147.2529,1147.2548,1148.2128,1,0,right,0.3863,,1148.2151,1149.1101,1,1,right,1149.1119,1149.8817,0,1,left,0,1149.8818,1149.8818,1149.8839,1151.377,0,40,40,40,1,0.6,0.4,0.4,0.6,,,,,,,,,,,,,,,0.3529,,0.4,0.6,0.4,0.6,0.4,0.6,0.6,0.4,,,0.2292,,0.4,0.6,0.2,0.8,0.2,0.8,0.8,0.2,1,0
,,65ba49256dc8eda1950b70b3,66fc9aa3d85e6ef54d92db35,2024-10-02_03h06.52.428,mdp,2024.2.1,Win32,48.54368932,66fa4ebf79326e780c390304,,,,,,,,,,,,,,,,,,,,,1151.378,1151.378,1151.3795,1152.2982,1,0,right,0.3822,,1152.2997,1153.758,1,1,right,1153.76,1154.6791,1,0,right,1,1154.6791,1154.6791,1154.681,1156.1599,0,41,41,41,1,0.6,0.4,0.4,0.6,,,,,,,,,,,,,,,0.8909,,0.4,0.6,0.4,0.6,0.4,0.6,0.6,0.4,,,0.3587,,0.4,0.6,0.2,0.8,0.6,0.4,0.6,0.4,1,0
,,65ba49256dc8eda1950b70b3,66fc9aa3d85e6ef54d92db35,2024-10-02_03h06.52.428,mdp,2024.2.1,Win32,48.54368932,66fa4ebf79326e780c390304,,,,,,,,,,,,,,,,,,,,,1156.1611,1156.1611,1156.1628,1158.4682,1,0,right,1.7665,,1158.4703,1160.433,0,1,left,1160.4354,1161.4436,1,0,right,1,1161.4436,1161.4437,1161.4455,1162.9366,0,42,42,42,1,0.6,0.4,0.4,0.6,,,,,,,,,,,,,,,1.4088,,0.4,0.6,0.4,0.6,0.4,0.6,0.6,0.4,,,0.4572,,0.4,0.6,0.2,0.8,0.6,0.4,0.6,0.4,1,0
,,65ba49256dc8eda1950b70b3,66fc9aa3d85e6ef54d92db35,2024-10-02_03h06.52.428,mdp,2024.2.1,Win32,48.54368932,66fa4ebf79326e780c390304,,,,,,,,,,,,,,,,,,,,,1162.9378,1162.9378,1162.9402,1164.4187,0,0,left,0.9455,,1164.4207,1165.4845,0,0,left,1165.4865,1166.684,0,0,left,1,1166.6841,1166.6841,1166.6859,1168.1837,0,43,43,43,1,0.6,0.4,0.4,0.6,,,,,,,,,,,,,,,0.5258,,0.4,0.6,0.4,0.6,0.4,0.6,0.6,0.4,,,0.6668,,0.4,0.6,0.2,0.8,0.2,0.8,0.8,0.2,1,0
,,65ba49256dc8eda1950b70b3,66fc9aa3d85e6ef54d92db35,2024-10-02_03h06.52.428,mdp,2024.2.1,Win32,48.54368932,66fa4ebf79326e780c390304,,,,,,,,,,,,,,,,,,,,,1168.1848,1168.1848,1168.1883,1169.1082,0,0,left,0.401,,1169.1102,1170.2734,0,1,left,1170.2754,1172.471,1,0,right,1,1172.4711,1172.4711,1172.4733,1173.9595,0,44,44,44,1,0.6,0.4,0.4,0.6,,,,,,,,,,,,,,,0.6348,,0.4,0.6,0.4,0.6,0.4,0.6,0.6,0.4,,,1.6576,,0.4,0.6,0.2,0.8,0.2,0.8,0.8,0.2,1,0
,,65ba49256dc8eda1950b70b3,66fc9aa3d85e6ef54d92db35,2024-10-02_03h06.52.428,mdp,2024.2.1,Win32,48.54368932,66fa4ebf79326e780c390304,,,,,,,,,,,,,,,,,,,,,1173.9614,1173.9614,1173.9645,1174.8186,0,1,left,0.3366,,1174.8206,1175.7843,1,1,right,1175.7863,1176.7334,1,1,right,0,1176.7335,1176.7335,1176.7354,1178.2309,0,45,45,45,1,0.6,0.4,0.4,0.6,,,,,,,,,,,,,,,0.4261,,0.4,0.6,0.4,0.6,0.4,0.6,0.6,0.4,,,0.4183,,0.4,0.6,0.2,0.8,0.2,0.8,0.8,0.2,1,0
,,65ba49256dc8eda1950b70b3,66fc9aa3d85e6ef54d92db35,2024-10-02_03h06.52.428,mdp,2024.2.1,Win32,48.54368932,66fa4ebf79326e780c390304,,,,,,,,,,,,,,,,,,,,,1178.232,1178.232,1178.2338,1179.115,1,1,right,0.3529,,1179.1168,1179.9132,0,1,left,1179.9151,1180.8985,0,1,left,0,1180.8987,1180.8987,1180.9011,1182.3936,0,46,46,46,1,0.6,0.4,0.4,0.6,,,,,,,,,,,,,,,0.2647,,0.4,0.6,0.4,0.6,0.4,0.6,0.6,0.4,,,0.4536,,0.4,0.6,0.2,0.8,0.2,0.8,0.8,0.2,1,0
,,65ba49256dc8eda1950b70b3,66fc9aa3d85e6ef54d92db35,2024-10-02_03h06.52.428,mdp,2024.2.1,Win32,48.54368932,66fa4ebf79326e780c390304,,,,,,,,,,,,,,,,,,,,,1182.3948,1182.3948,1182.3964,1183.1671,0,0,left,0.2404,,1183.1691,1184.4685,1,1,right,1184.4725,1185.9568,1,1,right,0,1185.9568,1185.9568,1185.9587,1187.4555,0,47,47,47,1,0.6,0.4,0.4,0.6,,,,,,,,,,,,,,,0.7689,,0.4,0.6,0.4,0.6,0.4,0.6,0.6,0.4,,,0.951,,0.4,0.6,0.2,0.8,0.2,0.8,0.8,0.2,1,0
,,65ba49256dc8eda1950b70b3,66fc9aa3d85e6ef54d92db35,2024-10-02_03h06.52.428,mdp,2024.2.1,Win32,48.54368932,66fa4ebf79326e780c390304,,,,,,,,,,,,,,,,,,,,,1187.4566,1187.4566,1187.4583,1188.3384,0,0,left,0.3507,,1188.3403,1189.2217,0,1,left,1189.2236,1190.1275,0,1,left,0,1190.1275,1190.1275,1190.1293,1191.6249,0,48,48,48,1,0.6,0.4,0.4,0.6,,,,,,,,,,,,,,,0.3521,,0.4,0.6,0.4,0.6,0.4,0.6,0.6,0.4,,,0.3754,,0.4,0.6,0.2,0.8,0.2,0.8,0.8,0.2,1,0
,,65ba49256dc8eda1950b70b3,66fc9aa3d85e6ef54d92db35,2024-10-02_03h06.52.428,mdp,2024.2.1,Win32,48.54368932,66fa4ebf79326e780c390304,,,,,,,,,,,,,,,,,,,,,1191.6254,1191.6254,1191.6274,1193.9003,0,1,left,1.7462,,1193.9022,1194.7316,1,1,right,1194.7336,1196.5468,1,1,right,0,1196.5469,1196.5469,1196.5486,1198.0359,0,49,49,49,1,0.6,0.4,0.4,0.6,,,,,,,,,,,,,,,0.2919,,0.4,0.6,0.4,0.6,0.4,0.6,0.6,0.4,,,1.2859,,0.4,0.6,0.2,0.8,0.2,0.8,0.8,0.2,1,0
,,65ba49256dc8eda1950b70b3,66fc9aa3d85e6ef54d92db35,2024-10-02_03h06.52.428,mdp,2024.2.1,Win32,48.54368932,66fa4ebf79326e780c390304,,,,,,,,,,,,,,,,,,,,,,,,,,,,,,,,,,,,,,,,,,,,,,,,,,,,,,,,1198.0362,1256.5554,0,2,2,6,1,imgs/goat.png,imgs/elephant.png,imgs/kangaroo.png,imgs/bear.png,imgs/lion.png,,,,,,,,,,,,,,,,,,,,,,,,
,,65ba49256dc8eda1950b70b3,66fc9aa3d85e6ef54d92db35,2024-10-02_03h06.52.428,mdp,2024.2.1,Win32,48.54368932,66fa4ebf79326e780c390304,,,,,,,,,,,,,,3,seqs/st3seq44.csv,1256.5565,1272.2062,space,15.1276,,1272.2216,1272.2216,1272.225,1277.7683,1,0,right,5.0186,,1277.77,1279.9482,1,1,right,1279.95,1282.662,1,0,right,1,1282.6621,1282.6621,1282.6639,1284.1608,0,0,0,0,1,0.4,0.6,0.8,0.2,,,,,,,,,,,,,,,1.6407,,0.8,0.2,0.8,0.2,0.6,0.4,0.4,0.6,,,2.1838,,0.2,0.8,0.4,0.6,0.6,0.4,0.8,0.2,1,0
,,65ba49256dc8eda1950b70b3,66fc9aa3d85e6ef54d92db35,2024-10-02_03h06.52.428,mdp,2024.2.1,Win32,48.54368932,66fa4ebf79326e780c390304,,,,,,,,,,,,,,,,,,,,,1284.1619,1284.1619,1284.1633,1286.0438,1,0,right,1.3514,,1286.0456,1288.0084,1,0,right,1288.0103,1290.5257,1,0,right,1,1290.5258,1290.5258,1290.5277,1292.0188,0,1,1,1,1,0.4,0.6,0.8,0.2,,,,,,,,,,,,,,,1.4431,,0.8,0.2,0.8,0.2,0.6,0.4,0.4,0.6,,,1.9851,,0.2,0.8,0.4,0.6,0.6,0.4,0.8,0.2,1,0
,,65ba49256dc8eda1950b70b3,66fc9aa3d85e6ef54d92db35,2024-10-02_03h06.52.428,mdp,2024.2.1,Win32,48.54368932,66fa4ebf79326e780c390304,,,,,,,,,,,,,,,,,,,,,1292.0195,1292.0195,1292.0213,1294.2528,1,1,right,1.701,,1294.2553,1298.598,0,0,left,1298.5998,1301.0137,0,1,left,0,1301.0138,1301.0138,1301.0151,1302.5089,0,2,2,2,1,0.4,0.6,0.8,0.2,,,,,,,,,,,,,,,3.7996,,0.8,0.2,0.8,0.2,0.6,0.4,0.4,0.6,,,1.8848,,0.2,0.8,0.4,0.6,0.6,0.4,0.8,0.2,1,0
,,65ba49256dc8eda1950b70b3,66fc9aa3d85e6ef54d92db35,2024-10-02_03h06.52.428,mdp,2024.2.1,Win32,48.54368932,66fa4ebf79326e780c390304,,,,,,,,,,,,,,,,,,,,,1302.5099,1302.51,1302.5115,1305.5407,1,0,right,2.4987,,1305.5425,1308.0212,0,0,left,1308.0234,1310.1091,1,1,right,0,1310.1093,1310.1093,1310.1114,1311.617,0,3,3,3,1,0.4,0.6,0.8,0.2,,,,,,,,,,,,,,,1.9549,,0.8,0.2,0.8,0.2,0.6,0.4,0.4,0.6,,,1.5486,,0.2,0.8,0.4,0.6,0.6,0.4,0.8,0.2,1,0
,,65ba49256dc8eda1950b70b3,66fc9aa3d85e6ef54d92db35,2024-10-02_03h06.52.428,mdp,2024.2.1,Win32,48.54368932,66fa4ebf79326e780c390304,,,,,,,,,,,,,,,,,,,,,1311.6178,1311.6178,1311.6193,1312.5509,0,0,left,0.4028,,1312.5528,1313.7665,0,0,left,1313.7681,1315.6479,1,0,right,1,1315.6481,1315.6481,1315.6494,1317.1459,0,4,4,4,1,0.4,0.6,0.8,0.2,,,,,,,,,,,,,,,0.6837,,0.8,0.2,0.8,0.2,0.6,0.4,0.4,0.6,,,1.3496,,0.2,0.8,0.4,0.6,0.6,0.4,0.8,0.2,1,0
,,65ba49256dc8eda1950b70b3,66fc9aa3d85e6ef54d92db35,2024-10-02_03h06.52.428,mdp,2024.2.1,Win32,48.54368932,66fa4ebf79326e780c390304,,,,,,,,,,,,,,,,,,,,,1317.1464,1317.1464,1317.1479,1322.1921,1,0,right,4.5138,,1322.1938,1324.0395,0,0,left,1324.0414,1324.9875,1,1,right,0,1324.9876,1324.9876,1324.9897,1326.4863,0,5,5,5,1,0.4,0.6,0.8,0.2,,,,,,,,,,,,,,,1.3169,,0.8,0.2,0.8,0.2,0.6,0.4,0.4,0.6,,,0.4162,,0.2,0.8,0.4,0.6,0.6,0.4,0.8,0.2,1,0
,,65ba49256dc8eda1950b70b3,66fc9aa3d85e6ef54d92db35,2024-10-02_03h06.52.428,mdp,2024.2.1,Win32,48.54368932,66fa4ebf79326e780c390304,,,,,,,,,,,,,,,,,,,,,1326.4869,1326.487,1326.4885,1327.5024,1,0,right,0.4751,,1327.5042,1329.1722,0,0,left,1329.1741,1330.2998,0,1,left,0,1330.3,1330.3,1330.3021,1331.7809,0,6,6,6,1,0.4,0.6,0.8,0.2,,,,,,,,,,,,,,,1.138,,0.6,0.4,0.2,0.8,0.6,0.4,0.4,0.6,,,0.5857,,0.2,0.8,0.4,0.6,0.6,0.4,0.8,0.2,1,0
,,65ba49256dc8eda1950b70b3,66fc9aa3d85e6ef54d92db35,2024-10-02_03h06.52.428,mdp,2024.2.1,Win32,48.54368932,66fa4ebf79326e780c390304,,,,,,,,,,,,,,,,,,,,,1331.782,1331.782,1331.7837,1332.5553,0,0,left,0.258,,1332.5572,1333.8287,1,0,right,1333.8307,1334.7019,1,1,right,0,1334.7019,1334.702,1334.7046,1336.2032,0,7,7,7,1,0.4,0.6,0.8,0.2,,,,,,,,,,,,,,,0.7505,,0.6,0.4,0.2,0.8,0.6,0.4,0.4,0.6,,,0.3454,,0.2,0.8,0.4,0.6,0.6,0.4,0.8,0.2,1,0
,,65ba49256dc8eda1950b70b3,66fc9aa3d85e6ef54d92db35,2024-10-02_03h06.52.428,mdp,2024.2.1,Win32,48.54368932,66fa4ebf79326e780c390304,,,,,,,,,,,,,,,,,,,,,1336.206,1336.206,1336.208,1337.3926,1,0,right,0.6615,,1337.3945,1338.1419,1,1,right,1338.1439,1338.7119,1,0,right,1,1338.7121,1338.7121,1338.7134,1340.2113,0,8,8,8,1,0.4,0.6,0.8,0.2,,,,,,,,,,,,,,,0.2173,,0.6,0.4,0.2,0.8,0.2,0.8,0.6,0.4,,,0.0294,,0.2,0.8,0.4,0.6,0.6,0.4,0.8,0.2,1,0
,,65ba49256dc8eda1950b70b3,66fc9aa3d85e6ef54d92db35,2024-10-02_03h06.52.428,mdp,2024.2.1,Win32,48.54368932,66fa4ebf79326e780c390304,,,,,,,,,,,,,,,,,,,,,1340.2125,1340.2125,1340.2141,1342.6929,1,0,right,1.9494,,1342.6947,1343.886,0,1,left,1343.888,1345.0015,1,0,right,1,1345.0016,1345.0016,1345.0032,1346.5009,0,9,9,9,1,0.4,0.6,0.8,0.2,,,,,,,,,,,,,,,0.6642,,0.6,0.4,0.2,0.8,0.2,0.8,0.6,0.4,,,0.573,,0.2,0.8,0.4,0.6,0.6,0.4,0.8,0.2,1,0
,,65ba49256dc8eda1950b70b3,66fc9aa3d85e6ef54d92db35,2024-10-02_03h06.52.428,mdp,2024.2.1,Win32,48.54368932,66fa4ebf79326e780c390304,,,,,,,,,,,,,,,,,,,,,1346.5019,1346.5019,1346.5037,1349.4642,1,0,right,2.4297,,1349.466,1350.4784,0,0,left,1350.4806,1352.6952,0,0,left,1,1352.6952,1352.6953,1352.6965,1354.1927,0,10,10,10,1,0.4,0.6,0.8,0.2,,,,,,,,,,,,,,,0.4833,,0.6,0.4,0.2,0.8,0.2,0.8,0.6,0.4,,,1.6751,,0.2,0.8,0.4,0.6,0.6,0.4,0.8,0.2,1,0
,,65ba49256dc8eda1950b70b3,66fc9aa3d85e6ef54d92db35,2024-10-02_03h06.52.428,mdp,2024.2.1,Win32,48.54368932,66fa4ebf79326e780c390304,,,,,,,,,,,,,,,,,,,,,1354.1938,1354.1938,1354.196,1355.9587,0,1,left,1.2341,,1355.9606,1357.0075,0,1,left,1357.0095,1357.9722,1,0,right,1,1357.9723,1357.9723,1357.9743,1359.4704,0,11,11,11,1,0.4,0.6,0.8,0.2,,,,,,,,,,,,,,,0.5102,,0.6,0.4,0.2,0.8,0.2,0.8,0.6,0.4,,,0.4248,,0.2,0.8,0.4,0.6,0.6,0.4,0.8,0.2,1,0
,,65ba49256dc8eda1950b70b3,66fc9aa3d85e6ef54d92db35,2024-10-02_03h06.52.428,mdp,2024.2.1,Win32,48.54368932,66fa4ebf79326e780c390304,,,,,,,,,,,,,,,,,,,,,1359.4711,1359.4711,1359.4727,1360.5709,0,1,left,0.5685,,1360.5728,1361.4198,1,0,right,1361.4218,1362.8186,0,1,left,0,1362.8186,1362.8186,1362.8205,1364.3158,0,12,12,12,1,0.4,0.6,0.8,0.2,,,,,,,,,,,,,,,0.3192,,0.6,0.4,0.2,0.8,0.2,0.8,0.6,0.4,,,0.8578,,0.2,0.8,0.4,0.6,0.6,0.4,0.8,0.2,1,0
,,65ba49256dc8eda1950b70b3,66fc9aa3d85e6ef54d92db35,2024-10-02_03h06.52.428,mdp,2024.2.1,Win32,48.54368932,66fa4ebf79326e780c390304,,,,,,,,,,,,,,,,,,,,,1364.3171,1364.3171,1364.3186,1365.0991,1,0,right,0.2517,,1365.1012,1366.1292,1,1,right,1366.1315,1368.0794,0,0,left,1,1368.0795,1368.0795,1368.0814,1369.5772,0,13,13,13,1,0.4,0.6,0.8,0.2,,,,,,,,,,,,,,,0.4992,,0.6,0.4,0.2,0.8,0.2,0.8,0.6,0.4,,,1.4147,,0.2,0.8,0.4,0.6,0.6,0.4,0.8,0.2,1,0
,,65ba49256dc8eda1950b70b3,66fc9aa3d85e6ef54d92db35,2024-10-02_03h06.52.428,mdp,2024.2.1,Win32,48.54368932,66fa4ebf79326e780c390304,,,,,,,,,,,,,,,,,,,,,1369.5779,1369.5779,1369.5792,1371.2433,1,1,right,1.1345,,1371.2453,1373.6736,1,0,right,1373.6756,1375.4763,1,1,right,0,1375.4763,1375.4764,1375.4785,1376.9718,0,14,14,14,1,0.4,0.6,0.8,0.2,,,,,,,,,,,,,,,1.8976,,0.6,0.4,0.2,0.8,0.2,0.8,0.6,0.4,,,1.2597,,0.2,0.8,0.4,0.6,0.6,0.4,0.8,0.2,1,0
,,65ba49256dc8eda1950b70b3,66fc9aa3d85e6ef54d92db35,2024-10-02_03h06.52.428,mdp,2024.2.1,Win32,48.54368932,66fa4ebf79326e780c390304,,,,,,,,,,,,,,,,,,,,,1376.9726,1376.9726,1376.974,1379.0861,1,0,right,1.5849,,1379.0881,1379.9857,1,1,right,1379.9872,1380.5316,1,1,right,0,1380.5316,1380.5317,1380.5332,1382.0307,0,15,15,15,1,0.4,0.6,0.8,0.2,,,,,,,,,,,,,,,0.3597,,0.6,0.4,0.2,0.8,0.2,0.8,0.6,0.4,,,0.0063,,0.2,0.8,0.4,0.6,0.8,0.2,0.2,0.8,1,0
,,65ba49256dc8eda1950b70b3,66fc9aa3d85e6ef54d92db35,2024-10-02_03h06.52.428,mdp,2024.2.1,Win32,48.54368932,66fa4ebf79326e780c390304,,,,,,,,,,,,,,,,,,,,,1382.0317,1382.0317,1382.0333,1383.4805,0,1,left,0.9172,,1383.4827,1384.213,1,0,right,1384.215,1385.0127,0,0,left,1,1385.0129,1385.0129,1385.0146,1386.5176,0,16,16,16,1,0.4,0.6,0.8,0.2,,,,,,,,,,,,,,,0.1914,,0.6,0.4,0.2,0.8,0.2,0.8,0.6,0.4,,,0.2682,,0.2,0.8,0.4,0.6,0.8,0.2,0.2,0.8,1,0
,,65ba49256dc8eda1950b70b3,66fc9aa3d85e6ef54d92db35,2024-10-02_03h06.52.428,mdp,2024.2.1,Win32,48.54368932,66fa4ebf79326e780c390304,,,,,,,,,,,,,,,,,,,,,1386.5189,1386.5189,1386.5206,1388.368,1,0,right,1.3261,,1388.371,1389.5415,1,0,right,1389.5439,1390.8917,1,0,right,1,1390.8917,1390.8917,1390.8932,1392.3879,0,17,17,17,1,0.4,0.6,0.8,0.2,,,,,,,,,,,,,,,0.6495,,0.6,0.4,0.2,0.8,0.2,0.8,0.6,0.4,,,0.8173,,0.2,0.8,0.4,0.6,0.8,0.2,0.2,0.8,1,0
,,65ba49256dc8eda1950b70b3,66fc9aa3d85e6ef54d92db35,2024-10-02_03h06.52.428,mdp,2024.2.1,Win32,48.54368932,66fa4ebf79326e780c390304,,,,,,,,,,,,,,,,,,,,,1392.3888,1392.3888,1392.3902,1394.7679,0,1,left,1.8482,,1394.7698,1395.3762,1,0,right,1395.3782,1397.4878,0,1,left,0,1397.4879,1397.488,1397.4899,1398.9815,0,18,18,18,1,0.4,0.6,0.8,0.2,,,,,,,,,,,,,,,0.0601,,0.6,0.4,0.2,0.8,0.2,0.8,0.6,0.4,,,1.5769,,0.2,0.8,0.4,0.6,0.8,0.2,0.2,0.8,1,0
,,65ba49256dc8eda1950b70b3,66fc9aa3d85e6ef54d92db35,2024-10-02_03h06.52.428,mdp,2024.2.1,Win32,48.54368932,66fa4ebf79326e780c390304,,,,,,,,,,,,,,,,,,,,,1398.9825,1398.9826,1398.9843,1399.8648,1,1,right,0.3512,,1399.8669,1400.9379,1,1,right,1400.9398,1401.9458,1,1,right,0,1401.9458,1401.9459,1401.948,1403.4442,0,19,19,19,1,0.4,0.6,0.8,0.2,,,,,,,,,,,,,,,0.5421,,0.6,0.4,0.2,0.8,0.2,0.8,0.6,0.4,,,0.4751,,0.2,0.8,0.4,0.6,0.8,0.2,0.2,0.8,1,0
,,65ba49256dc8eda1950b70b3,66fc9aa3d85e6ef54d92db35,2024-10-02_03h06.52.428,mdp,2024.2.1,Win32,48.54368932,66fa4ebf79326e780c390304,,,,,,,,,,,,,,,,,,,,,1403.4453,1403.4453,1403.4469,1404.4266,1,0,right,0.4486,,1404.4287,1404.9779,0,1,left,1404.9795,1406.3992,0,1,left,0,1406.3993,1406.3993,1406.4012,1407.8906,0,20,20,20,1,0.4,0.6,0.8,0.2,,,,,,,,,,,,,,,0.0035,,0.6,0.4,0.2,0.8,0.2,0.8,0.6,0.4,,,0.8827,,0.2,0.8,0.4,0.6,0.8,0.2,0.2,0.8,1,0
,,65ba49256dc8eda1950b70b3,66fc9aa3d85e6ef54d92db35,2024-10-02_03h06.52.428,mdp,2024.2.1,Win32,48.54368932,66fa4ebf79326e780c390304,,,,,,,,,,,,,,,,,,,,,1407.8912,1407.8912,1407.8925,1408.9226,0,1,left,0.5005,,1408.925,1409.7884,1,0,right,1409.7903,1410.7889,0,1,left,0,1410.789,1410.789,1410.7908,1412.2858,0,21,21,21,1,0.4,0.6,0.8,0.2,,,,,,,,,,,,,,,0.3228,,0.6,0.4,0.2,0.8,0.2,0.8,0.6,0.4,,,0.4607,,0.2,0.8,0.4,0.6,0.8,0.2,0.2,0.8,1,0
,,65ba49256dc8eda1950b70b3,66fc9aa3d85e6ef54d92db35,2024-10-02_03h06.52.428,mdp,2024.2.1,Win32,48.54368932,66fa4ebf79326e780c390304,,,,,,,,,,,,,,,,,,,,,1412.2865,1412.2865,1412.2878,1415.4826,1,0,right,2.6638,,1415.485,1416.366,1,1,right,1416.3675,1417.8878,1,1,right,0,1417.8879,1417.8879,1417.8896,1419.3783,0,22,22,22,1,0.4,0.6,0.8,0.2,,,,,,,,,,,,,,,0.3425,,0.6,0.4,0.2,0.8,0.2,0.8,0.6,0.4,,,0.9905,,0.2,0.8,0.4,0.6,0.8,0.2,0.2,0.8,1,0
,,65ba49256dc8eda1950b70b3,66fc9aa3d85e6ef54d92db35,2024-10-02_03h06.52.428,mdp,2024.2.1,Win32,48.54368932,66fa4ebf79326e780c390304,,,,,,,,,,,,,,,,,,,,,1419.3796,1419.3797,1419.381,1436.7533,1,1,right,16.8561,,1436.7546,1438.1117,0,1,left,1438.1135,1438.8104,0,0,left,1,1438.8105,1438.8106,1438.8125,1440.3081,0,23,23,23,1,0.4,0.6,0.8,0.2,,,,,,,,,,,,,,,0.8248,,0.6,0.4,0.2,0.8,0.2,0.8,0.6,0.4,,,0.1681,,0.2,0.8,0.4,0.6,0.8,0.2,0.2,0.8,1,0
,,65ba49256dc8eda1950b70b3,66fc9aa3d85e6ef54d92db35,2024-10-02_03h06.52.428,mdp,2024.2.1,Win32,48.54368932,66fa4ebf79326e780c390304,,,,,,,,,,,,,,,,,,,,,1440.3091,1440.3091,1440.3111,1460.4591,1,0,right,19.619,,1460.4614,1461.3039,1,0,right,1461.3058,1462.6024,0,1,left,0,1462.6026,1462.6026,1462.6044,1464.0915,0,24,24,24,1,0.4,0.6,0.8,0.2,,,,,,,,,,,,,,,0.2993,,0.6,0.4,0.2,0.8,0.2,0.8,0.6,0.4,,,0.7528,,0.2,0.8,0.4,0.6,0.8,0.2,0.2,0.8,1,0
,,65ba49256dc8eda1950b70b3,66fc9aa3d85e6ef54d92db35,2024-10-02_03h06.52.428,mdp,2024.2.1,Win32,48.54368932,66fa4ebf79326e780c390304,,,,,,,,,,,,,,,,,,,,,1464.0925,1464.0925,1464.0943,1470.5456,1,0,right,5.9197,,1470.5477,1472.023,1,0,right,1472.0252,1473.1463,1,0,right,1,1473.1464,1473.1464,1473.1481,1474.6409,0,25,25,25,1,0.4,0.6,0.8,0.2,,,,,,,,,,,,,,,0.9447,,0.6,0.4,0.2,0.8,0.2,0.8,0.6,0.4,,,0.5862,,0.2,0.8,0.4,0.6,0.8,0.2,0.2,0.8,1,0
,,65ba49256dc8eda1950b70b3,66fc9aa3d85e6ef54d92db35,2024-10-02_03h06.52.428,mdp,2024.2.1,Win32,48.54368932,66fa4ebf79326e780c390304,,,,,,,,,,,,,,,,,,,,,1474.642,1474.6421,1474.6438,1476.2371,0,0,left,1.0581,,1476.2395,1477.578,1,1,right,1477.5804,1479.2871,0,1,left,0,1479.2871,1479.2871,1479.2888,1480.778,0,26,26,26,1,0.4,0.6,0.8,0.2,,,,,,,,,,,,,,,0.7699,,0.4,0.6,0.4,0.6,0.2,0.8,0.6,0.4,,,1.1622,,0.2,0.8,0.4,0.6,0.8,0.2,0.2,0.8,1,0
,,65ba49256dc8eda1950b70b3,66fc9aa3d85e6ef54d92db35,2024-10-02_03h06.52.428,mdp,2024.2.1,Win32,48.54368932,66fa4ebf79326e780c390304,,,,,,,,,,,,,,,,,,,,,1480.7815,1480.7815,1480.7836,1482.8911,1,0,right,1.5712,,1482.8931,1484.5329,0,0,left,1484.5352,1485.3544,1,0,right,1,1485.3544,1485.3544,1485.3565,1486.8365,0,27,27,27,1,0.4,0.6,0.8,0.2,,,,,,,,,,,,,,,1.1086,,0.6,0.4,0.8,0.2,0.2,0.8,0.6,0.4,,,0.2787,,0.2,0.8,0.4,0.6,0.8,0.2,0.2,0.8,1,0
,,65ba49256dc8eda1950b70b3,66fc9aa3d85e6ef54d92db35,2024-10-02_03h06.52.428,mdp,2024.2.1,Win32,48.54368932,66fa4ebf79326e780c390304,,,,,,,,,,,,,,,,,,,,,1486.8376,1486.8376,1486.8394,1488.478,0,0,left,1.075,,1488.4799,1489.6178,0,1,left,1489.6201,1493.3732,0,0,left,1,1493.3735,1493.3735,1493.3756,1494.8877,0,28,28,28,1,0.4,0.6,0.8,0.2,,,,,,,,,,,,,,,0.5924,,0.6,0.4,0.8,0.2,0.2,0.8,0.6,0.4,,,3.2236,,0.2,0.8,0.4,0.6,0.8,0.2,0.2,0.8,1,0
,,65ba49256dc8eda1950b70b3,66fc9aa3d85e6ef54d92db35,2024-10-02_03h06.52.428,mdp,2024.2.1,Win32,48.54368932,66fa4ebf79326e780c390304,,,,,,,,,,,,,,,,,,,,,1494.889,1494.889,1494.8906,1500.2549,0,1,left,4.8439,,1500.2569,1501.4659,1,1,right,1501.468,1502.8658,0,0,left,1,1502.8659,1502.8659,1502.8678,1504.3556,0,29,29,29,1,0.2,0.8,0.2,0.8,,,,,,,,,,,,,,,0.658,,0.6,0.4,0.8,0.2,0.2,0.8,0.6,0.4,,,0.851,,0.2,0.8,0.4,0.6,0.8,0.2,0.2,0.8,1,0
,,65ba49256dc8eda1950b70b3,66fc9aa3d85e6ef54d92db35,2024-10-02_03h06.52.428,mdp,2024.2.1,Win32,48.54368932,66fa4ebf79326e780c390304,,,,,,,,,,,,,,,,,,,,,1504.3573,1504.3573,1504.3593,1512.2049,0,0,left,7.309,,1512.2069,1513.3185,1,1,right,1513.3216,1514.1203,0,0,left,1,1514.1204,1514.1204,1514.1225,1515.618,0,30,30,30,1,0.2,0.8,0.2,0.8,,,,,,,,,,,,,,,0.5673,,0.6,0.4,0.8,0.2,0.2,0.8,0.6,0.4,,,0.2572,,0.2,0.8,0.4,0.6,0.8,0.2,0.2,0.8,1,0
,,65ba49256dc8eda1950b70b3,66fc9aa3d85e6ef54d92db35,2024-10-02_03h06.52.428,mdp,2024.2.1,Win32,48.54368932,66fa4ebf79326e780c390304,,,,,,,,,,,,,,,,,,,,,1515.6198,1515.6199,1515.6216,1518.1324,0,1,left,1.9808,,1518.1348,1519.123,0,0,left,1519.125,1525.059,0,1,left,0,1525.0591,1525.0591,1525.0612,1526.5407,0,31,31,31,1,0.2,0.8,0.2,0.8,,,,,,,,,,,,,,,0.4489,,0.6,0.4,0.8,0.2,0.2,0.8,0.6,0.4,,,5.4003,,0.2,0.8,0.4,0.6,0.2,0.8,0.8,0.2,1,0
,,65ba49256dc8eda1950b70b3,66fc9aa3d85e6ef54d92db35,2024-10-02_03h06.52.428,mdp,2024.2.1,Win32,48.54368932,66fa4ebf79326e780c390304,,,,,,,,,,,,,,,,,,,,,1526.5419,1526.542,1526.5436,1531.1361,1,0,right,4.0622,,1531.1382,1532.0195,0,0,left,1532.0215,1533.1406,0,0,left,1,1533.1407,1533.1407,1533.1428,1534.6326,0,32,32,32,1,0.2,0.8,0.2,0.8,,,,,,,,,,,,,,,0.3422,,0.6,0.4,0.8,0.2,0.2,0.8,0.6,0.4,,,0.5747,,0.2,0.8,0.4,0.6,0.2,0.8,0.8,0.2,1,0
,,65ba49256dc8eda1950b70b3,66fc9aa3d85e6ef54d92db35,2024-10-02_03h06.52.428,mdp,2024.2.1,Win32,48.54368932,66fa4ebf79326e780c390304,,,,,,,,,,,,,,,,,,,,,1534.6338,1534.634,1534.6356,1541.6271,0,1,left,6.4508,,1541.6291,1548.9522,0,0,left,1548.9548,1551.3237,0,1,left,0,1551.3239,1551.3239,1551.3262,1552.8049,0,33,33,33,1,0.2,0.8,0.2,0.8,,,,,,,,,,,,,,,6.7757,,0.6,0.4,0.8,0.2,0.2,0.8,0.6,0.4,,,1.8113,,0.2,0.8,0.4,0.6,0.2,0.8,0.8,0.2,1,0
,,65ba49256dc8eda1950b70b3,66fc9aa3d85e6ef54d92db35,2024-10-02_03h06.52.428,mdp,2024.2.1,Win32,48.54368932,66fa4ebf79326e780c390304,,,,,,,,,,,,,,,,,,,,,1552.8061,1552.8061,1552.808,1554.6374,0,1,left,1.2804,,1554.6399,1556.6934,1,0,right,1556.6958,1557.5755,0,1,left,0,1557.5756,1557.5756,1557.5773,1559.0769,0,34,34,34,1,0.2,0.8,0.2,0.8,,,,,,,,,,,,,,,1.5196,,0.6,0.4,0.8,0.2,0.2,0.8,0.6,0.4,,,0.3493,,0.2,0.8,0.4,0.6,0.2,0.8,0.8,0.2,1,0
,,65ba49256dc8eda1950b70b3,66fc9aa3d85e6ef54d92db35,2024-10-02_03h06.52.428,mdp,2024.2.1,Win32,48.54368932,66fa4ebf79326e780c390304,,,,,,,,,,,,,,,,,,,,,1559.078,1559.078,1559.0796,1572.5977,0,1,left,12.9833,,1572.6001,1581.655,0,1,left,1581.6575,1583.4312,0,0,left,1,1583.4313,1583.4313,1583.433,1584.9403,0,35,35,35,1,0.2,0.8,0.2,0.8,,,,,,,,,,,,,,,8.5276,,0.6,0.4,0.8,0.2,0.2,0.8,0.6,0.4,,,1.2323,,0.2,0.8,0.4,0.6,0.8,0.2,0.6,0.4,1,0
,,65ba49256dc8eda1950b70b3,66fc9aa3d85e6ef54d92db35,2024-10-02_03h06.52.428,mdp,2024.2.1,Win32,48.54368932,66fa4ebf79326e780c390304,,,,,,,,,,,,,,,,,,,,,1584.9414,1584.9415,1584.9433,1591.619,0,1,left,6.1364,,1591.6209,1598.8437,1,0,right,1598.8457,1600.0109,1,1,right,0,1600.011,1600.011,1600.0139,1601.5006,0,36,36,36,1,0.2,0.8,0.2,0.8,,,,,,,,,,,,,,,6.6768,,0.6,0.4,0.8,0.2,0.2,0.8,0.6,0.4,,,0.6149,,0.2,0.8,0.4,0.6,0.8,0.2,0.6,0.4,1,0
,,65ba49256dc8eda1950b70b3,66fc9aa3d85e6ef54d92db35,2024-10-02_03h06.52.428,mdp,2024.2.1,Win32,48.54368932,66fa4ebf79326e780c390304,,,,,,,,,,,,,,,,,,,,,1601.5014,1601.5014,1601.503,1604.9773,0,1,left,2.9491,,1604.9793,1607.363,0,0,left,1607.365,1610.9172,0,1,left,0,1610.9173,1610.9173,1610.9203,1612.4122,0,37,37,37,1,0.2,0.8,0.2,0.8,,,,,,,,,,,,,,,1.8407,,0.6,0.4,0.8,0.2,0.2,0.8,0.6,0.4,,,3.0243,,0.2,0.8,0.4,0.6,0.8,0.2,0.6,0.4,1,0
,,65ba49256dc8eda1950b70b3,66fc9aa3d85e6ef54d92db35,2024-10-02_03h06.52.428,mdp,2024.2.1,Win32,48.54368932,66fa4ebf79326e780c390304,,,,,,,,,,,,,,,,,,,,,1612.4144,1612.4144,1612.4161,1614.4879,0,1,left,1.5313,,1614.49,1616.1545,1,0,right,1616.1565,1617.0098,0,1,left,0,1617.0098,1617.0098,1617.0118,1618.4901,0,38,38,38,1,0.2,0.8,0.2,0.8,,,,,,,,,,,,,,,1.128,,0.6,0.4,0.8,0.2,0.2,0.8,0.6,0.4,,,0.3084,,0.2,0.8,0.4,0.6,0.2,0.8,0.8,0.2,1,0
,,65ba49256dc8eda1950b70b3,66fc9aa3d85e6ef54d92db35,2024-10-02_03h06.52.428,mdp,2024.2.1,Win32,48.54368932,66fa4ebf79326e780c390304,,,,,,,,,,,,,,,,,,,,,1618.4913,1618.4913,1618.4931,1620.9397,0,1,left,1.92,,1620.9416,1624.1378,0,0,left,1624.1411,1625.2938,0,1,left,0,1625.2939,1625.2939,1625.2961,1626.8011,0,39,39,39,1,0.2,0.8,0.2,0.8,,,,,,,,,,,,,,,2.6741,,0.8,0.2,0.6,0.4,0.2,0.8,0.6,0.4,,,0.6183,,0.2,0.8,0.4,0.6,0.2,0.8,0.8,0.2,1,0
,,65ba49256dc8eda1950b70b3,66fc9aa3d85e6ef54d92db35,2024-10-02_03h06.52.428,mdp,2024.2.1,Win32,48.54368932,66fa4ebf79326e780c390304,,,,,,,,,,,,,,,,,,,,,1626.8022,1626.8022,1626.8058,1627.6452,0,1,left,0.3192,,1627.6468,1628.3279,1,0,right,1628.3298,1628.9572,0,1,left,0,1628.9573,1628.9573,1628.9593,1630.4467,0,40,40,40,1,0.2,0.8,0.2,0.8,,,,,,,,,,,,,,,0.1482,,0.8,0.2,0.6,0.4,0.2,0.8,0.6,0.4,,,0.1082,,0.2,0.8,0.4,0.6,0.2,0.8,0.8,0.2,1,0
,,65ba49256dc8eda1950b70b3,66fc9aa3d85e6ef54d92db35,2024-10-02_03h06.52.428,mdp,2024.2.1,Win32,48.54368932,66fa4ebf79326e780c390304,,,,,,,,,,,,,,,,,,,,,1630.4479,1630.4479,1630.451,1631.5869,0,1,left,0.6056,,1631.5894,1632.3808,0,1,left,1632.3845,1633.472,1,1,right,0,1633.472,1633.472,1633.4742,1634.9745,0,41,41,41,1,0.2,0.8,0.2,0.8,,,,,,,,,,,,,,,0.2772,,0.8,0.2,0.6,0.4,0.2,0.8,0.6,0.4,,,0.5428,,0.2,0.8,0.4,0.6,0.2,0.8,0.8,0.2,1,0
,,65ba49256dc8eda1950b70b3,66fc9aa3d85e6ef54d92db35,2024-10-02_03h06.52.428,mdp,2024.2.1,Win32,48.54368932,66fa4ebf79326e780c390304,,,,,,,,,,,,,,,,,,,,,1634.9753,1634.9753,1634.978,1636.0127,1,1,right,0.5037,,1636.0149,1636.7992,1,0,right,1636.8015,1637.6117,0,1,left,0,1637.6119,1637.6119,1637.6139,1639.1034,0,42,42,42,1,0.2,0.8,0.2,0.8,,,,,,,,,,,,,,,0.2423,,0.8,0.2,0.6,0.4,0.2,0.8,0.6,0.4,,,0.2694,,0.2,0.8,0.4,0.6,0.2,0.8,0.8,0.2,1,0
,,65ba49256dc8eda1950b70b3,66fc9aa3d85e6ef54d92db35,2024-10-02_03h06.52.428,mdp,2024.2.1,Win32,48.54368932,66fa4ebf79326e780c390304,,,,,,,,,,,,,,,,,,,,,1639.1049,1639.105,1639.1065,1640.0145,1,1,right,0.376,,1640.0173,1640.963,1,1,right,1640.9658,1642.5072,1,1,right,0,1642.5077,1642.5077,1642.5102,1644.0098,0,43,43,43,1,0.2,0.8,0.2,0.8,,,,,,,,,,,,,,,0.4146,,0.8,0.2,0.6,0.4,0.6,0.4,0.2,0.8,,,1.0119,,0.2,0.8,0.4,0.6,0.2,0.8,0.8,0.2,1,0
,,65ba49256dc8eda1950b70b3,66fc9aa3d85e6ef54d92db35,2024-10-02_03h06.52.428,mdp,2024.2.1,Win32,48.54368932,66fa4ebf79326e780c390304,,,,,,,,,,,,,,,,,,,,,1644.0104,1644.0104,1644.0126,1645.0974,0,1,left,0.5637,,1645.0992,1646.1244,0,0,left,1646.1264,1647.1071,0,1,left,0,1647.1071,1647.1072,1647.109,1648.6043,0,44,44,44,1,0.2,0.8,0.2,0.8,,,,,,,,,,,,,,,0.5005,,0.8,0.2,0.6,0.4,0.6,0.4,0.2,0.8,,,0.4426,,0.2,0.8,0.4,0.6,0.2,0.8,0.8,0.2,1,0
,,65ba49256dc8eda1950b70b3,66fc9aa3d85e6ef54d92db35,2024-10-02_03h06.52.428,mdp,2024.2.1,Win32,48.54368932,66fa4ebf79326e780c390304,,,,,,,,,,,,,,,,,,,,,1648.6054,1648.6054,1648.6071,1650.0372,0,1,left,0.9,,1650.039,1651.4119,0,0,left,1651.4161,1652.5417,1,1,right,0,1652.5417,1652.5417,1652.5442,1654.0319,0,45,45,45,1,0.2,0.8,0.2,0.8,,,,,,,,,,,,,,,0.8437,,0.8,0.2,0.6,0.4,0.6,0.4,0.2,0.8,,,0.5999,,0.2,0.8,0.4,0.6,0.2,0.8,0.8,0.2,1,0
,,65ba49256dc8eda1950b70b3,66fc9aa3d85e6ef54d92db35,2024-10-02_03h06.52.428,mdp,2024.2.1,Win32,48.54368932,66fa4ebf79326e780c390304,,,,,,,,,,,,,,,,,,,,,1654.0326,1654.0329,1654.0349,1654.9165,0,1,left,0.3518,,1654.9184,1656.1377,1,1,right,1656.1399,1657.6621,0,1,left,0,1657.6621,1657.6621,1657.6645,1659.1509,0,46,46,46,1,0.2,0.8,0.2,0.8,,,,,,,,,,,,,,,0.6888,,0.8,0.2,0.6,0.4,0.6,0.4,0.2,0.8,,,0.9827,,0.2,0.8,0.4,0.6,0.2,0.8,0.8,0.2,1,0
,,65ba49256dc8eda1950b70b3,66fc9aa3d85e6ef54d92db35,2024-10-02_03h06.52.428,mdp,2024.2.1,Win32,48.54368932,66fa4ebf79326e780c390304,,,,,,,,,,,,,,,,,,,,,1659.152,1659.152,1659.1536,1660.2563,1,1,right,0.5768,,1660.2585,1661.1097,1,1,right,1661.1115,1661.9086,0,1,left,0,1661.9088,1661.9088,1661.9108,1663.4079,0,47,47,47,1,0.2,0.8,0.2,0.8,,,,,,,,,,,,,,,0.3308,,0.8,0.2,0.6,0.4,0.6,0.4,0.2,0.8,,,0.2704,,0.2,0.8,0.4,0.6,0.2,0.8,0.8,0.2,1,0
,,65ba49256dc8eda1950b70b3,66fc9aa3d85e6ef54d92db35,2024-10-02_03h06.52.428,mdp,2024.2.1,Win32,48.54368932,66fa4ebf79326e780c390304,,,,,,,,,,,,,,,,,,,,,1663.4084,1663.4085,1663.4098,1664.1899,1,0,right,0.2482,,1664.1917,1665.0438,0,0,left,1665.046,1665.8079,0,1,left,0,1665.808,1665.808,1665.8101,1667.2923,0,48,48,48,1,0.2,0.8,0.2,0.8,,,,,,,,,,,,,,,0.3078,,0.8,0.2,0.6,0.4,0.6,0.4,0.2,0.8,,,0.2212,,0.2,0.8,0.4,0.6,0.2,0.8,0.8,0.2,1,0
,,65ba49256dc8eda1950b70b3,66fc9aa3d85e6ef54d92db35,2024-10-02_03h06.52.428,mdp,2024.2.1,Win32,48.54368932,66fa4ebf79326e780c390304,,,,,,,,,,,,,,,,,,,,,1667.2929,1667.2929,1667.2956,1668.2031,0,1,left,0.3804,,1668.2051,1669.1084,0,0,left,1669.1103,1670.0508,1,0,right,1,1670.0509,1670.0509,1670.0526,1671.5397,0,49,49,49,1,0.2,0.8,0.2,0.8,,,,,,,,,,,,,,,0.3697,,0.8,0.2,0.6,0.4,0.6,0.4,0.2,0.8,,,0.4148,,0.2,0.8,0.4,0.6,0.2,0.8,0.8,0.2,1,0
,,65ba49256dc8eda1950b70b3,66fc9aa3d85e6ef54d92db35,2024-10-02_03h06.52.428,mdp,2024.2.1,Win32,48.54368932,66fa4ebf79326e780c390304,,,,,,,,,,,,,,,,,,,,,,,,,,,,,,,,,,,,,,,,,,,,,,,,,,,,,,,,1671.5399,1730.0582,0,3,3,0,1,imgs/elephant.png,imgs/goat.png,imgs/horse.png,imgs/bear.png,imgs/cat.png,,,,,,,,,,,,,,,,,,,,,,,,
,,65ba49256dc8eda1950b70b3,66fc9aa3d85e6ef54d92db35,2024-10-02_03h06.52.428,mdp,2024.2.1,Win32,48.54368932,66fa4ebf79326e780c390304,,,,,,,,,,,,,,1,seqs/st1seq27.csv,1730.0602,1744.9274,space,14.3532,,1744.9346,1744.9347,1744.9363,1752.4696,0,0,left,6.9967,,1752.4715,1752.4724,0,0,,1752.474,1752.4749,1,0,,1,1752.4751,1752.4751,1752.4759,1753.9681,0,0,0,0,1,0.6,0.4,0.4,0.6,1,0,,,,,,,,,,,,,,,,,,,,,,,,,,,,,,,,,,,,
,,65ba49256dc8eda1950b70b3,66fc9aa3d85e6ef54d92db35,2024-10-02_03h06.52.428,mdp,2024.2.1,Win32,48.54368932,66fa4ebf79326e780c390304,,,,,,,,,,,,,,,,,,,,,1753.9687,1753.9687,1753.9705,1755.6414,1,1,right,1.1417,,1755.6432,1755.6451,0,0,,1755.6468,1755.648,1,1,,0,1755.648,1755.6481,1755.6495,1757.1486,0,1,1,1,1,0.6,0.4,0.4,0.6,1,0,,,,,,,,,,,,,,,,,,,,,,,,,,,,,,,,,,,,
,,65ba49256dc8eda1950b70b3,66fc9aa3d85e6ef54d92db35,2024-10-02_03h06.52.428,mdp,2024.2.1,Win32,48.54368932,66fa4ebf79326e780c390304,,,,,,,,,,,,,,,,,,,,,1757.1495,1757.1495,1757.1512,1758.631,1,0,right,0.9513,,1758.633,1758.6339,0,1,,1758.6348,1758.6355,1,0,,1,1758.6355,1758.6355,1758.6362,1760.1283,0,2,2,2,1,0.6,0.4,0.4,0.6,1,0,,,,,,,,,,,,,,,,,,,,,,,,,,,,,,,,,,,,
,,65ba49256dc8eda1950b70b3,66fc9aa3d85e6ef54d92db35,2024-10-02_03h06.52.428,mdp,2024.2.1,Win32,48.54368932,66fa4ebf79326e780c390304,,,,,,,,,,,,,,,,,,,,,1760.1288,1760.1288,1760.1309,1797.1267,1,1,right,36.4658,,1797.129,1797.13,0,0,,1797.1314,1797.1322,1,1,,0,1797.1322,1797.1322,1797.1331,1798.6241,0,3,3,3,1,0.6,0.4,0.4,0.6,1,0,,,,,,,,,,,,,,,,,,,,,,,,,,,,,,,,,,,,
,,65ba49256dc8eda1950b70b3,66fc9aa3d85e6ef54d92db35,2024-10-02_03h06.52.428,mdp,2024.2.1,Win32,48.54368932,66fa4ebf79326e780c390304,,,,,,,,,,,,,,,,,,,,,1798.6248,1798.6248,1798.6263,1799.8408,0,0,left,0.6761,,1799.8432,1799.8445,0,1,,1799.8458,1799.8466,1,0,,1,1799.8466,1799.8466,1799.8474,1801.3422,0,4,4,4,1,0.6,0.4,0.4,0.6,1,0,,,,,,,,,,,,,,,,,,,,,,,,,,,,,,,,,,,,
,,65ba49256dc8eda1950b70b3,66fc9aa3d85e6ef54d92db35,2024-10-02_03h06.52.428,mdp,2024.2.1,Win32,48.54368932,66fa4ebf79326e780c390304,,,,,,,,,,,,,,,,,,,,,1801.3431,1801.3432,1801.3448,1804.2365,1,0,right,2.3483,,1804.2382,1804.2391,0,0,,1804.2403,1804.2412,1,0,,1,1804.2412,1804.2412,1804.2422,1805.7361,0,5,5,5,1,0.2,0.8,0.6,0.4,1,0,,,,,,,,,,,,,,,,,,,,,,,,,,,,,,,,,,,,
,,65ba49256dc8eda1950b70b3,66fc9aa3d85e6ef54d92db35,2024-10-02_03h06.52.428,mdp,2024.2.1,Win32,48.54368932,66fa4ebf79326e780c390304,,,,,,,,,,,,,,,,,,,,,1805.7371,1805.7371,1805.7388,1809.1648,1,1,right,2.8981,,1809.1666,1809.1678,0,0,,1809.1693,1809.1703,1,1,,0,1809.1703,1809.1703,1809.1714,1810.6627,0,6,6,6,1,0.8,0.2,0.2,0.8,1,0,,,,,,,,,,,,,,,,,,,,,,,,,,,,,,,,,,,,
,,65ba49256dc8eda1950b70b3,66fc9aa3d85e6ef54d92db35,2024-10-02_03h06.52.428,mdp,2024.2.1,Win32,48.54368932,66fa4ebf79326e780c390304,,,,,,,,,,,,,,,,,,,,,1810.6632,1810.6634,1810.6649,1814.143,0,0,left,2.9452,,1814.1448,1814.1459,0,0,,1814.1474,1814.1481,1,0,,1,1814.1481,1814.1482,1814.1491,1815.6424,0,7,7,7,1,0.8,0.2,0.2,0.8,1,0,,,,,,,,,,,,,,,,,,,,,,,,,,,,,,,,,,,,
,,65ba49256dc8eda1950b70b3,66fc9aa3d85e6ef54d92db35,2024-10-02_03h06.52.428,mdp,2024.2.1,Win32,48.54368932,66fa4ebf79326e780c390304,,,,,,,,,,,,,,,,,,,,,1815.6431,1815.6432,1815.6446,1818.5555,1,1,right,2.3786,,1818.5573,1818.5583,0,1,,1818.5594,1818.5601,1,0,,0,1818.5601,1818.5601,1818.5609,1820.0521,0,8,8,8,1,0.8,0.2,0.2,0.8,1,0,,,,,,,,,,,,,,,,,,,,,,,,,,,,,,,,,,,,
,,65ba49256dc8eda1950b70b3,66fc9aa3d85e6ef54d92db35,2024-10-02_03h06.52.428,mdp,2024.2.1,Win32,48.54368932,66fa4ebf79326e780c390304,,,,,,,,,,,,,,,,,,,,,1820.053,1820.053,1820.055,1821.5768,0,0,left,1.0079,,1821.5789,1821.5808,0,0,,1821.5826,1821.5838,1,0,,1,1821.5839,1821.5839,1821.5851,1823.0852,0,9,9,9,1,0.8,0.2,0.2,0.8,1,0,,,,,,,,,,,,,,,,,,,,,,,,,,,,,,,,,,,,
,,65ba49256dc8eda1950b70b3,66fc9aa3d85e6ef54d92db35,2024-10-02_03h06.52.428,mdp,2024.2.1,Win32,48.54368932,66fa4ebf79326e780c390304,,,,,,,,,,,,,,,,,,,,,1823.0862,1823.0862,1823.0879,1825.3619,1,1,right,1.7429,,1825.3637,1825.3656,0,1,,1825.3671,1825.3682,1,1,,0,1825.3682,1825.3682,1825.3695,1826.8635,0,10,10,10,1,0.8,0.2,0.2,0.8,1,0,,,,,,,,,,,,,,,,,,,,,,,,,,,,,,,,,,,,
,,65ba49256dc8eda1950b70b3,66fc9aa3d85e6ef54d92db35,2024-10-02_03h06.52.428,mdp,2024.2.1,Win32,48.54368932,66fa4ebf79326e780c390304,,,,,,,,,,,,,,,,,,,,,1826.8643,1826.8643,1826.8656,1827.8143,0,0,left,0.4254,,1827.8155,1827.8165,0,1,,1827.818,1827.8187,1,1,,1,1827.8188,1827.8189,1827.8197,1829.3114,0,11,11,11,1,0.6,0.4,0.6,0.4,1,0,,,,,,,,,,,,,,,,,,,,,,,,,,,,,,,,,,,,
,,65ba49256dc8eda1950b70b3,66fc9aa3d85e6ef54d92db35,2024-10-02_03h06.52.428,mdp,2024.2.1,Win32,48.54368932,66fa4ebf79326e780c390304,,,,,,,,,,,,,,,,,,,,,1829.3123,1829.3123,1829.314,1830.5279,0,0,left,0.6839,,1830.5299,1830.5309,0,0,,1830.532,1830.5328,1,0,,1,1830.5329,1830.5329,1830.5339,1832.025,0,12,12,12,1,0.6,0.4,0.6,0.4,1,0,,,,,,,,,,,,,,,,,,,,,,,,,,,,,,,,,,,,
,,65ba49256dc8eda1950b70b3,66fc9aa3d85e6ef54d92db35,2024-10-02_03h06.52.428,mdp,2024.2.1,Win32,48.54368932,66fa4ebf79326e780c390304,,,,,,,,,,,,,,,,,,,,,1832.0263,1832.0263,1832.0281,1834.7629,1,0,right,2.2059,,1834.7648,1834.7658,0,0,,1834.7683,1834.7707,1,1,,1,1834.7708,1834.7708,1834.7726,1836.2709,0,13,13,13,1,0.6,0.4,0.6,0.4,1,0,,,,,,,,,,,,,,,,,,,,,,,,,,,,,,,,,,,,
,,65ba49256dc8eda1950b70b3,66fc9aa3d85e6ef54d92db35,2024-10-02_03h06.52.428,mdp,2024.2.1,Win32,48.54368932,66fa4ebf79326e780c390304,,,,,,,,,,,,,,,,,,,,,1836.2719,1836.2719,1836.2736,1837.9526,0,1,left,1.1588,,1837.9541,1837.9549,0,0,,1837.956,1837.9566,1,0,,0,1837.9566,1837.9566,1837.9579,1839.4615,0,14,14,14,1,0.8,0.2,0.8,0.2,1,0,,,,,,,,,,,,,,,,,,,,,,,,,,,,,,,,,,,,
,,65ba49256dc8eda1950b70b3,66fc9aa3d85e6ef54d92db35,2024-10-02_03h06.52.428,mdp,2024.2.1,Win32,48.54368932,66fa4ebf79326e780c390304,,,,,,,,,,,,,,,,,,,,,1839.4633,1839.4633,1839.4652,1840.8247,0,0,left,0.8408,,1840.8265,1840.8282,0,1,,1840.8299,1840.8311,1,0,,1,1840.8311,1840.8311,1840.8333,1842.3314,0,15,15,15,1,0.8,0.2,0.8,0.2,1,0,,,,,,,,,,,,,,,,,,,,,,,,,,,,,,,,,,,,
,,65ba49256dc8eda1950b70b3,66fc9aa3d85e6ef54d92db35,2024-10-02_03h06.52.428,mdp,2024.2.1,Win32,48.54368932,66fa4ebf79326e780c390304,,,,,,,,,,,,,,,,,,,,,1842.3325,1842.3325,1842.3344,1844.67,0,1,left,1.8055,,1844.672,1844.673,0,0,,1844.6763,1844.6775,1,1,,0,1844.6775,1844.6776,1844.6789,1846.1784,0,16,16,16,1,0.8,0.2,0.8,0.2,1,0,,,,,,,,,,,,,,,,,,,,,,,,,,,,,,,,,,,,
,,65ba49256dc8eda1950b70b3,66fc9aa3d85e6ef54d92db35,2024-10-02_03h06.52.428,mdp,2024.2.1,Win32,48.54368932,66fa4ebf79326e780c390304,,,,,,,,,,,,,,,,,,,,,1846.1793,1846.1793,1846.1811,1847.7117,1,1,right,1.004,,1847.7134,1847.7146,0,0,,1847.7156,1847.7163,1,0,,0,1847.7164,1847.7164,1847.7171,1849.2082,0,17,17,17,1,0.8,0.2,0.8,0.2,1,0,,,,,,,,,,,,,,,,,,,,,,,,,,,,,,,,,,,,
,,65ba49256dc8eda1950b70b3,66fc9aa3d85e6ef54d92db35,2024-10-02_03h06.52.428,mdp,2024.2.1,Win32,48.54368932,66fa4ebf79326e780c390304,,,,,,,,,,,,,,,,,,,,,1849.2091,1849.2091,1849.2111,1850.1097,1,0,right,0.3626,,1850.111,1850.1119,0,0,,1850.1128,1850.1135,1,0,,1,1850.1135,1850.1135,1850.1143,1851.6144,0,18,18,18,1,0.8,0.2,0.8,0.2,1,0,,,,,,,,,,,,,,,,,,,,,,,,,,,,,,,,,,,,
,,65ba49256dc8eda1950b70b3,66fc9aa3d85e6ef54d92db35,2024-10-02_03h06.52.428,mdp,2024.2.1,Win32,48.54368932,66fa4ebf79326e780c390304,,,,,,,,,,,,,,,,,,,,,1851.6155,1851.6155,1851.6187,1852.4779,1,0,right,0.3393,,1852.4797,1852.4805,0,0,,1852.4814,1852.4821,1,0,,1,1852.4822,1852.4822,1852.488,1853.9869,0,19,19,19,1,0.8,0.2,0.8,0.2,1,0,,,,,,,,,,,,,,,,,,,,,,,,,,,,,,,,,,,,
,,65ba49256dc8eda1950b70b3,66fc9aa3d85e6ef54d92db35,2024-10-02_03h06.52.428,mdp,2024.2.1,Win32,48.54368932,66fa4ebf79326e780c390304,,,,,,,,,,,,,,,,,,,,,1853.9875,1853.9875,1853.989,1855.0122,1,1,right,0.4888,,1855.0166,1855.0177,0,1,,1855.0203,1855.0212,1,1,,0,1855.0214,1855.0214,1855.0226,1856.5026,0,20,20,20,1,0.2,0.8,0.6,0.4,1,0,,,,,,,,,,,,,,,,,,,,,,,,,,,,,,,,,,,,
,,65ba49256dc8eda1950b70b3,66fc9aa3d85e6ef54d92db35,2024-10-02_03h06.52.428,mdp,2024.2.1,Win32,48.54368932,66fa4ebf79326e780c390304,,,,,,,,,,,,,,,,,,,,,1856.5035,1856.5036,1856.5053,1858.5167,1,0,right,1.4869,,1858.5192,1858.5204,0,1,,1858.5214,1858.5221,1,1,,1,1858.5221,1858.5222,1858.5229,1860.0144,0,21,21,21,1,0.2,0.8,0.6,0.4,1,0,,,,,,,,,,,,,,,,,,,,,,,,,,,,,,,,,,,,
,,65ba49256dc8eda1950b70b3,66fc9aa3d85e6ef54d92db35,2024-10-02_03h06.52.428,mdp,2024.2.1,Win32,48.54368932,66fa4ebf79326e780c390304,,,,,,,,,,,,,,,,,,,,,1860.0153,1860.0154,1860.0172,1861.5835,0,1,left,1.04,,1861.586,1861.587,0,1,,1861.5879,1861.5887,1,1,,0,1861.5887,1861.5887,1861.5932,1863.0856,0,22,22,22,1,0.2,0.8,0.6,0.4,1,0,,,,,,,,,,,,,,,,,,,,,,,,,,,,,,,,,,,,
,,65ba49256dc8eda1950b70b3,66fc9aa3d85e6ef54d92db35,2024-10-02_03h06.52.428,mdp,2024.2.1,Win32,48.54368932,66fa4ebf79326e780c390304,,,,,,,,,,,,,,,,,,,,,1863.0866,1863.0866,1863.088,1863.9358,0,1,left,0.3254,,1863.9378,1863.9402,0,0,,1863.9423,1863.9434,1,1,,0,1863.9434,1863.9434,1863.9445,1865.4107,0,23,23,23,1,0.2,0.8,0.6,0.4,1,0,,,,,,,,,,,,,,,,,,,,,,,,,,,,,,,,,,,,
,,65ba49256dc8eda1950b70b3,66fc9aa3d85e6ef54d92db35,2024-10-02_03h06.52.428,mdp,2024.2.1,Win32,48.54368932,66fa4ebf79326e780c390304,,,,,,,,,,,,,,,,,,,,,1865.4121,1865.4121,1865.414,1866.2585,1,1,right,0.3074,,1866.2604,1866.2615,0,0,,1866.2626,1866.2634,1,1,,0,1866.2634,1866.2634,1866.2643,1867.7644,0,24,24,24,1,0.2,0.8,0.6,0.4,1,0,,,,,,,,,,,,,,,,,,,,,,,,,,,,,,,,,,,,
,,65ba49256dc8eda1950b70b3,66fc9aa3d85e6ef54d92db35,2024-10-02_03h06.52.428,mdp,2024.2.1,Win32,48.54368932,66fa4ebf79326e780c390304,,,,,,,,,,,,,,,,,,,,,1867.7654,1867.7656,1867.7671,1869.9728,0,1,left,1.672,,1869.9747,1869.9757,0,1,,1869.977,1869.9779,1,1,,0,1869.9779,1869.9779,1869.9788,1871.4744,0,25,25,25,1,0.2,0.8,0.6,0.4,1,0,,,,,,,,,,,,,,,,,,,,,,,,,,,,,,,,,,,,
,,65ba49256dc8eda1950b70b3,66fc9aa3d85e6ef54d92db35,2024-10-02_03h06.52.428,mdp,2024.2.1,Win32,48.54368932,66fa4ebf79326e780c390304,,,,,,,,,,,,,,,,,,,,,1871.4752,1871.4752,1871.4768,1872.0198,1,0,right,0.0149,,1872.0215,1872.0224,0,1,,1872.0234,1872.0241,1,0,,1,1872.0242,1872.0242,1872.0251,1873.5175,0,26,26,26,1,0.6,0.4,0.4,0.6,1,0,,,,,,,,,,,,,,,,,,,,,,,,,,,,,,,,,,,,
,,65ba49256dc8eda1950b70b3,66fc9aa3d85e6ef54d92db35,2024-10-02_03h06.52.428,mdp,2024.2.1,Win32,48.54368932,66fa4ebf79326e780c390304,,,,,,,,,,,,,,,,,,,,,1873.5185,1873.5185,1873.5204,1874.4198,0,0,left,0.3693,,1874.4217,1874.4225,0,0,,1874.4235,1874.4241,1,0,,1,1874.4242,1874.4242,1874.425,1875.9152,0,27,27,27,1,0.6,0.4,0.4,0.6,1,0,,,,,,,,,,,,,,,,,,,,,,,,,,,,,,,,,,,,
,,65ba49256dc8eda1950b70b3,66fc9aa3d85e6ef54d92db35,2024-10-02_03h06.52.428,mdp,2024.2.1,Win32,48.54368932,66fa4ebf79326e780c390304,,,,,,,,,,,,,,,,,,,,,1875.9163,1875.9163,1875.918,1876.9823,0,0,left,0.5337,,1876.9842,1876.9856,0,1,,1876.9868,1876.9876,1,1,,1,1876.9876,1876.9877,1876.9884,1878.4797,0,28,28,28,1,0.6,0.4,0.4,0.6,1,0,,,,,,,,,,,,,,,,,,,,,,,,,,,,,,,,,,,,
,,65ba49256dc8eda1950b70b3,66fc9aa3d85e6ef54d92db35,2024-10-02_03h06.52.428,mdp,2024.2.1,Win32,48.54368932,66fa4ebf79326e780c390304,,,,,,,,,,,,,,,,,,,,,1878.4808,1878.4808,1878.4824,1880.5043,0,0,left,1.4917,,1880.5082,1880.5094,0,1,,1880.512,1880.513,1,0,,1,1880.5131,1880.5131,1880.5143,1882.0098,0,29,29,29,1,0.4,0.6,0.6,0.4,1,0,,,,,,,,,,,,,,,,,,,,,,,,,,,,,,,,,,,,
,,65ba49256dc8eda1950b70b3,66fc9aa3d85e6ef54d92db35,2024-10-02_03h06.52.428,mdp,2024.2.1,Win32,48.54368932,66fa4ebf79326e780c390304,,,,,,,,,,,,,,,,,,,,,1882.0105,1882.0105,1882.0129,1882.6594,1,1,right,0.1166,,1882.6614,1882.6623,0,1,,1882.6638,1882.6645,1,1,,0,1882.6645,1882.6645,1882.6654,1884.1573,0,30,30,30,1,0.4,0.6,0.6,0.4,1,0,,,,,,,,,,,,,,,,,,,,,,,,,,,,,,,,,,,,
,,65ba49256dc8eda1950b70b3,66fc9aa3d85e6ef54d92db35,2024-10-02_03h06.52.428,mdp,2024.2.1,Win32,48.54368932,66fa4ebf79326e780c390304,,,,,,,,,,,,,,,,,,,,,1884.1582,1884.1582,1884.1601,1885.2395,1,0,right,0.5621,,1885.2417,1885.2427,0,1,,1885.2441,1885.245,1,1,,1,1885.245,1885.245,1885.2465,1886.7388,0,31,31,31,1,0.4,0.6,0.6,0.4,1,0,,,,,,,,,,,,,,,,,,,,,,,,,,,,,,,,,,,,
,,65ba49256dc8eda1950b70b3,66fc9aa3d85e6ef54d92db35,2024-10-02_03h06.52.428,mdp,2024.2.1,Win32,48.54368932,66fa4ebf79326e780c390304,,,,,,,,,,,,,,,,,,,,,1886.7393,1886.7393,1886.7405,1889.0046,1,0,right,1.726,,1889.0069,1889.0078,0,0,,1889.009,1889.0096,1,0,,1,1889.0096,1889.0097,1889.0105,1890.5014,0,32,32,32,1,0.8,0.2,0.8,0.2,1,0,,,,,,,,,,,,,,,,,,,,,,,,,,,,,,,,,,,,
,,65ba49256dc8eda1950b70b3,66fc9aa3d85e6ef54d92db35,2024-10-02_03h06.52.428,mdp,2024.2.1,Win32,48.54368932,66fa4ebf79326e780c390304,,,,,,,,,,,,,,,,,,,,,1890.5023,1890.5024,1890.504,1892.1177,0,0,left,1.0786,,1892.1195,1892.1205,0,0,,1892.1216,1892.1226,1,0,,1,1892.1226,1892.1226,1892.1236,1893.6147,0,33,33,33,1,0.8,0.2,0.8,0.2,1,0,,,,,,,,,,,,,,,,,,,,,,,,,,,,,,,,,,,,
,,65ba49256dc8eda1950b70b3,66fc9aa3d85e6ef54d92db35,2024-10-02_03h06.52.428,mdp,2024.2.1,Win32,48.54368932,66fa4ebf79326e780c390304,,,,,,,,,,,,,,,,,,,,,1893.6155,1893.6155,1893.617,1894.7488,1,1,right,0.6013,,1894.7512,1894.7522,0,1,,1894.7534,1894.7543,1,0,,0,1894.7544,1894.7544,1894.7554,1896.2447,0,34,34,34,1,0.6,0.4,0.2,0.8,1,0,,,,,,,,,,,,,,,,,,,,,,,,,,,,,,,,,,,,
,,65ba49256dc8eda1950b70b3,66fc9aa3d85e6ef54d92db35,2024-10-02_03h06.52.428,mdp,2024.2.1,Win32,48.54368932,66fa4ebf79326e780c390304,,,,,,,,,,,,,,,,,,,,,1896.2457,1896.2457,1896.2473,1897.2299,1,1,right,0.4439,,1897.2313,1897.2323,0,1,,1897.2334,1897.2342,1,1,,0,1897.2342,1897.2342,1897.235,1898.7333,0,35,35,35,1,0.6,0.4,0.2,0.8,1,0,,,,,,,,,,,,,,,,,,,,,,,,,,,,,,,,,,,,
,,65ba49256dc8eda1950b70b3,66fc9aa3d85e6ef54d92db35,2024-10-02_03h06.52.428,mdp,2024.2.1,Win32,48.54368932,66fa4ebf79326e780c390304,,,,,,,,,,,,,,,,,,,,,1898.7342,1898.7342,1898.7359,1900.3425,0,0,left,1.0825,,1900.3455,1900.3467,0,0,,1900.3477,1900.3484,1,0,,1,1900.3484,1900.3484,1900.3493,1901.8404,0,36,36,36,1,0.6,0.4,0.2,0.8,1,0,,,,,,,,,,,,,,,,,,,,,,,,,,,,,,,,,,,,
,,65ba49256dc8eda1950b70b3,66fc9aa3d85e6ef54d92db35,2024-10-02_03h06.52.428,mdp,2024.2.1,Win32,48.54368932,66fa4ebf79326e780c390304,,,,,,,,,,,,,,,,,,,,,1901.8412,1901.8412,1901.8425,1904.2396,1,0,right,1.8611,,1904.2415,1904.2425,0,1,,1904.2438,1904.2447,1,1,,1,1904.2448,1904.2449,1904.2457,1905.7362,0,37,37,37,1,0.6,0.4,0.2,0.8,1,0,,,,,,,,,,,,,,,,,,,,,,,,,,,,,,,,,,,,
,,65ba49256dc8eda1950b70b3,66fc9aa3d85e6ef54d92db35,2024-10-02_03h06.52.428,mdp,2024.2.1,Win32,48.54368932,66fa4ebf79326e780c390304,,,,,,,,,,,,,,,,,,,,,1905.7371,1905.7371,1905.7391,1908.2178,1,0,right,1.9473,,1908.2196,1908.2207,0,0,,1908.2218,1908.2226,1,0,,1,1908.2227,1908.2227,1908.224,1909.7168,0,38,38,38,1,0.8,0.2,0.6,0.4,1,0,,,,,,,,,,,,,,,,,,,,,,,,,,,,,,,,,,,,
,,65ba49256dc8eda1950b70b3,66fc9aa3d85e6ef54d92db35,2024-10-02_03h06.52.428,mdp,2024.2.1,Win32,48.54368932,66fa4ebf79326e780c390304,,,,,,,,,,,,,,,,,,,,,1909.7174,1909.7174,1909.7196,1916.2468,1,1,right,5.9883,,1916.2493,1916.2508,0,1,,1916.2521,1916.2529,1,1,,0,1916.2531,1916.2531,1916.2558,1917.7478,0,39,39,39,1,0.6,0.4,0.4,0.6,1,0,,,,,,,,,,,,,,,,,,,,,,,,,,,,,,,,,,,,
