init_exp.started,init_exp.stopped,participant,session,date,expName,psychopyVersion,OS,frameRate,study_id,disp_instruction.started,disp_instruction.stopped,instruction.thisRepN,instruction.thisTrialN,instruction.thisN,instruction.thisIndex,instruction.ran,instimg_path,consent.started,consent.stopped,key_resp_3.keys,key_resp_3.rt,key_resp_3.duration,n_steps,sequence_path,init_block.started,init_block.stopped,key_resp.keys,key_resp.rt,key_resp.duration,init_trials.started,init_trials.stopped,step0.started,step0.stopped,act0,s1,res0.keys,res0.rt,res0.duration,step1.started,step1.stopped,act1,s2,res1.keys,step2.started,step2.stopped,act2,s3,res2.keys,rew,reward_comp.started,reward_comp.stopped,reward_disp.started,reward_disp.stopped,trials.thisRepN,trials.thisTrialN,trials.thisN,trials.thisIndex,trials.ran,s00a0s10,s00a0s11,s00a1s10,s00a1s11,rew10,rew11,break_block.started,break_block.stopped,block.thisRepN,block.thisTrialN,block.thisN,block.thisIndex,block.ran,s00path,s10path,s11path,s20path,s21path,res1.rt,res1.duration,s10a0s20,s10a0s21,s10a1s20,s10a1s21,s11a0s20,s11a0s21,s11a1s20,s11a1s21,rew20,rew21,res2.rt,res2.duration,s20a0s30,s20a0s31,s20a1s30,s20a1s31,s21a0s30,s21a0s31,s21a1s30,s21a1s31,rew30,rew31
0,0.001,65d8ec51e80934b810623d98,66fc97fab7cdfc8675481a9a,2024-10-01_17h49.47.730,mdp,2024.2.1,Win32,59.95203837,66fa4ebf79326e780c390304,,,,,,,,,,,,,,,,,,,,,,,,,,,,,,,,,,,,,,,,,,,,,,,,,,,,,,,,,,,,,,,,,,,,,,,,,,,,,,,,,,,,,,,,,,,
,,65d8ec51e80934b810623d98,66fc97fab7cdfc8675481a9a,2024-10-01_17h49.47.730,mdp,2024.2.1,Win32,59.95203837,66fa4ebf79326e780c390304,0.004,72.527,0,0,0,0,1,rlnn_exp/rlnn_exp.001.png,,,,,,,,,,,,,,,,,,,,,,,,,,,,,,,,,,,,,,,,,,,,,,,,,,,,,,,,,,,,,,,,,,,,,,,,,,,,,,,,,,,
,,65d8ec51e80934b810623d98,66fc97fab7cdfc8675481a9a,2024-10-01_17h49.47.730,mdp,2024.2.1,Win32,59.95203837,66fa4ebf79326e780c390304,72.529,123.219,0,1,1,1,1,rlnn_exp/rlnn_exp.002.png,,,,,,,,,,,,,,,,,,,,,,,,,,,,,,,,,,,,,,,,,,,,,,,,,,,,,,,,,,,,,,,,,,,,,,,,,,,,,,,,,,,
,,65d8ec51e80934b810623d98,66fc97fab7cdfc8675481a9a,2024-10-01_17h49.47.730,mdp,2024.2.1,Win32,59.95203837,66fa4ebf79326e780c390304,123.222,173.888,0,2,2,2,1,rlnn_exp/rlnn_exp.003.png,,,,,,,,,,,,,,,,,,,,,,,,,,,,,,,,,,,,,,,,,,,,,,,,,,,,,,,,,,,,,,,,,,,,,,,,,,,,,,,,,,,
,,65d8ec51e80934b810623d98,66fc97fab7cdfc8675481a9a,2024-10-01_17h49.47.730,mdp,2024.2.1,Win32,59.95203837,66fa4ebf79326e780c390304,173.892,265.925,0,3,3,3,1,rlnn_exp/rlnn_exp.004.png,,,,,,,,,,,,,,,,,,,,,,,,,,,,,,,,,,,,,,,,,,,,,,,,,,,,,,,,,,,,,,,,,,,,,,,,,,,,,,,,,,,
,,65d8ec51e80934b810623d98,66fc97fab7cdfc8675481a9a,2024-10-01_17h49.47.730,mdp,2024.2.1,Win32,59.95203837,66fa4ebf79326e780c390304,,,,,,,,,265.925,279.842,y,3.893,,,,,,,,,,,,,,,,,,,,,,,,,,,,,,,,,,,,,,,,,,,,,,,,,,,,,,,,,,,,,,,,,,,,,,,,,,,,,,,
,,65d8ec51e80934b810623d98,66fc97fab7cdfc8675481a9a,2024-10-01_17h49.47.730,mdp,2024.2.1,Win32,59.95203837,66fa4ebf79326e780c390304,,,,,,,,,,,,,,1,seqs/st1seq36.csv,279.85,281.842,space,1.468,,281.849,281.849,281.849,284.376,0,1,left,1.989,,284.376,284.379,,0,,284.38,284.382,,0,,0,284.382,284.382,284.382,285.875,0,0,0,0,1,0.6,0.4,0.4,0.6,1,0,,,,,,,,,,,,,,,,,,,,,,,,,,,,,,,,,,,,
,,65d8ec51e80934b810623d98,66fc97fab7cdfc8675481a9a,2024-10-01_17h49.47.730,mdp,2024.2.1,Win32,59.95203837,66fa4ebf79326e780c390304,,,,,,,,,,,,,,,,,,,,,285.877,285.877,285.878,287.143,1,1,right,0.734,,287.143,287.145,,0,,287.147,287.148,,1,,0,287.148,287.148,287.149,288.642,0,1,1,1,1,0.6,0.4,0.4,0.6,1,0,,,,,,,,,,,,,,,,,,,,,,,,,,,,,,,,,,,,
,,65d8ec51e80934b810623d98,66fc97fab7cdfc8675481a9a,2024-10-01_17h49.47.730,mdp,2024.2.1,Win32,59.95203837,66fa4ebf79326e780c390304,,,,,,,,,,,,,,,,,,,,,288.643,288.643,288.644,290.726,1,0,right,1.551,,290.727,290.729,,0,,290.73,290.731,,0,,1,290.732,290.732,290.733,292.226,0,2,2,2,1,0.4,0.6,0.8,0.2,1,0,,,,,,,,,,,,,,,,,,,,,,,,,,,,,,,,,,,,
,,65d8ec51e80934b810623d98,66fc97fab7cdfc8675481a9a,2024-10-01_17h49.47.730,mdp,2024.2.1,Win32,59.95203837,66fa4ebf79326e780c390304,,,,,,,,,,,,,,,,,,,,,292.227,292.227,292.228,293.676,1,0,right,0.918,,293.677,293.679,,0,,293.68,293.682,,0,,1,293.682,293.682,293.683,295.176,0,3,3,3,1,0.4,0.6,0.8,0.2,1,0,,,,,,,,,,,,,,,,,,,,,,,,,,,,,,,,,,,,
,,65d8ec51e80934b810623d98,66fc97fab7cdfc8675481a9a,2024-10-01_17h49.47.730,mdp,2024.2.1,Win32,59.95203837,66fa4ebf79326e780c390304,,,,,,,,,,,,,,,,,,,,,295.177,295.177,295.178,296.459,0,0,left,0.756,,296.46,296.462,,1,,296.463,296.464,,1,,1,296.464,296.464,296.464,297.959,0,4,4,4,1,0.4,0.6,0.8,0.2,1,0,,,,,,,,,,,,,,,,,,,,,,,,,,,,,,,,,,,,
,,65d8ec51e80934b810623d98,66fc97fab7cdfc8675481a9a,2024-10-01_17h49.47.730,mdp,2024.2.1,Win32,59.95203837,66fa4ebf79326e780c390304,,,,,,,,,,,,,,,,,,,,,297.96,297.96,297.962,299.642,1,1,right,1.15,,299.644,299.645,,0,,299.646,299.647,,0,,0,299.648,299.648,299.649,301.144,0,5,5,5,1,0.4,0.6,0.8,0.2,1,0,,,,,,,,,,,,,,,,,,,,,,,,,,,,,,,,,,,,
,,65d8ec51e80934b810623d98,66fc97fab7cdfc8675481a9a,2024-10-01_17h49.47.730,mdp,2024.2.1,Win32,59.95203837,66fa4ebf79326e780c390304,,,,,,,,,,,,,,,,,,,,,301.147,301.147,301.15,302.543,1,0,right,0.867,,302.545,302.547,,0,,302.548,302.551,,0,,1,302.551,302.551,302.552,304.043,0,6,6,6,1,0.4,0.6,0.8,0.2,1,0,,,,,,,,,,,,,,,,,,,,,,,,,,,,,,,,,,,,
,,65d8ec51e80934b810623d98,66fc97fab7cdfc8675481a9a,2024-10-01_17h49.47.730,mdp,2024.2.1,Win32,59.95203837,66fa4ebf79326e780c390304,,,,,,,,,,,,,,,,,,,,,304.043,304.043,304.045,305.143,1,0,right,0.583,,305.145,305.147,,0,,305.148,305.149,,0,,1,305.149,305.149,305.15,306.644,0,7,7,7,1,0.4,0.6,0.8,0.2,1,0,,,,,,,,,,,,,,,,,,,,,,,,,,,,,,,,,,,,
,,65d8ec51e80934b810623d98,66fc97fab7cdfc8675481a9a,2024-10-01_17h49.47.730,mdp,2024.2.1,Win32,59.95203837,66fa4ebf79326e780c390304,,,,,,,,,,,,,,,,,,,,,306.644,306.644,306.645,307.943,1,0,right,0.773,,307.944,307.948,,0,,307.948,307.95,,0,,1,307.95,307.95,307.951,309.443,0,8,8,8,1,0.4,0.6,0.8,0.2,1,0,,,,,,,,,,,,,,,,,,,,,,,,,,,,,,,,,,,,
,,65d8ec51e80934b810623d98,66fc97fab7cdfc8675481a9a,2024-10-01_17h49.47.730,mdp,2024.2.1,Win32,59.95203837,66fa4ebf79326e780c390304,,,,,,,,,,,,,,,,,,,,,309.443,309.443,309.445,310.76,1,0,right,0.8,,310.761,310.763,,0,,310.764,310.764,,0,,1,310.764,310.764,310.765,312.259,0,9,9,9,1,0.4,0.6,0.8,0.2,1,0,,,,,,,,,,,,,,,,,,,,,,,,,,,,,,,,,,,,
,,65d8ec51e80934b810623d98,66fc97fab7cdfc8675481a9a,2024-10-01_17h49.47.730,mdp,2024.2.1,Win32,59.95203837,66fa4ebf79326e780c390304,,,,,,,,,,,,,,,,,,,,,312.26,312.26,312.262,313.427,1,0,right,0.65,,313.428,313.43,,1,,313.431,313.432,,0,,1,313.432,313.432,313.433,314.927,0,10,10,10,1,0.2,0.8,0.6,0.4,1,0,,,,,,,,,,,,,,,,,,,,,,,,,,,,,,,,,,,,
,,65d8ec51e80934b810623d98,66fc97fab7cdfc8675481a9a,2024-10-01_17h49.47.730,mdp,2024.2.1,Win32,59.95203837,66fa4ebf79326e780c390304,,,,,,,,,,,,,,,,,,,,,314.928,314.928,314.928,315.994,1,0,right,0.542,,315.995,315.995,,0,,315.996,315.997,,0,,1,315.998,315.998,315.998,317.493,0,11,11,11,1,0.2,0.8,0.6,0.4,1,0,,,,,,,,,,,,,,,,,,,,,,,,,,,,,,,,,,,,
,,65d8ec51e80934b810623d98,66fc97fab7cdfc8675481a9a,2024-10-01_17h49.47.730,mdp,2024.2.1,Win32,59.95203837,66fa4ebf79326e780c390304,,,,,,,,,,,,,,,,,,,,,317.494,317.494,317.496,318.744,1,1,right,0.717,,318.746,318.747,,0,,318.747,318.748,,0,,0,318.748,318.748,318.749,320.243,0,12,12,12,1,0.2,0.8,0.6,0.4,1,0,,,,,,,,,,,,,,,,,,,,,,,,,,,,,,,,,,,,
,,65d8ec51e80934b810623d98,66fc97fab7cdfc8675481a9a,2024-10-01_17h49.47.730,mdp,2024.2.1,Win32,59.95203837,66fa4ebf79326e780c390304,,,,,,,,,,,,,,,,,,,,,320.244,320.244,320.245,321.294,1,0,right,0.52,,321.296,321.297,,0,,321.298,321.299,,0,,1,321.299,321.299,321.299,322.793,0,13,13,13,1,0.2,0.8,0.6,0.4,1,0,,,,,,,,,,,,,,,,,,,,,,,,,,,,,,,,,,,,
,,65d8ec51e80934b810623d98,66fc97fab7cdfc8675481a9a,2024-10-01_17h49.47.730,mdp,2024.2.1,Win32,59.95203837,66fa4ebf79326e780c390304,,,,,,,,,,,,,,,,,,,,,322.795,322.795,322.796,323.927,1,1,right,0.6,,323.929,323.93,,0,,323.931,323.933,,0,,0,323.933,323.933,323.934,325.427,0,14,14,14,1,0.2,0.8,0.6,0.4,1,0,,,,,,,,,,,,,,,,,,,,,,,,,,,,,,,,,,,,
,,65d8ec51e80934b810623d98,66fc97fab7cdfc8675481a9a,2024-10-01_17h49.47.730,mdp,2024.2.1,Win32,59.95203837,66fa4ebf79326e780c390304,,,,,,,,,,,,,,,,,,,,,325.428,325.428,325.429,326.511,1,1,right,0.559,,326.512,326.513,,0,,326.514,326.515,,1,,0,326.515,326.515,326.516,328.011,0,15,15,15,1,0.2,0.8,0.6,0.4,1,0,,,,,,,,,,,,,,,,,,,,,,,,,,,,,,,,,,,,
,,65d8ec51e80934b810623d98,66fc97fab7cdfc8675481a9a,2024-10-01_17h49.47.730,mdp,2024.2.1,Win32,59.95203837,66fa4ebf79326e780c390304,,,,,,,,,,,,,,,,,,,,,328.011,328.011,328.013,329.21,1,1,right,0.685,,329.212,329.213,,1,,329.215,329.216,,1,,0,329.216,329.216,329.217,330.712,0,16,16,16,1,0.8,0.2,0.2,0.8,1,0,,,,,,,,,,,,,,,,,,,,,,,,,,,,,,,,,,,,
,,65d8ec51e80934b810623d98,66fc97fab7cdfc8675481a9a,2024-10-01_17h49.47.730,mdp,2024.2.1,Win32,59.95203837,66fa4ebf79326e780c390304,,,,,,,,,,,,,,,,,,,,,330.713,330.713,330.714,331.961,0,0,left,0.717,,331.962,331.963,,0,,331.965,331.965,,0,,1,331.965,331.965,331.966,333.46,0,17,17,17,1,0.8,0.2,0.2,0.8,1,0,,,,,,,,,,,,,,,,,,,,,,,,,,,,,,,,,,,,
,,65d8ec51e80934b810623d98,66fc97fab7cdfc8675481a9a,2024-10-01_17h49.47.730,mdp,2024.2.1,Win32,59.95203837,66fa4ebf79326e780c390304,,,,,,,,,,,,,,,,,,,,,333.461,333.461,333.463,334.695,0,0,left,0.724,,334.701,334.704,,1,,334.705,334.706,,1,,1,334.706,334.706,334.707,336.195,0,18,18,18,1,0.8,0.2,0.2,0.8,1,0,,,,,,,,,,,,,,,,,,,,,,,,,,,,,,,,,,,,
,,65d8ec51e80934b810623d98,66fc97fab7cdfc8675481a9a,2024-10-01_17h49.47.730,mdp,2024.2.1,Win32,59.95203837,66fa4ebf79326e780c390304,,,,,,,,,,,,,,,,,,,,,336.196,336.197,336.199,337.545,0,0,left,0.825,,337.546,337.549,,1,,337.55,337.552,,0,,1,337.552,337.552,337.553,339.044,0,19,19,19,1,0.8,0.2,0.2,0.8,1,0,,,,,,,,,,,,,,,,,,,,,,,,,,,,,,,,,,,,
,,65d8ec51e80934b810623d98,66fc97fab7cdfc8675481a9a,2024-10-01_17h49.47.730,mdp,2024.2.1,Win32,59.95203837,66fa4ebf79326e780c390304,,,,,,,,,,,,,,,,,,,,,339.045,339.045,339.046,340.345,0,0,left,0.783,,340.346,340.348,,0,,340.349,340.35,,0,,1,340.351,340.351,340.352,341.844,0,20,20,20,1,0.8,0.2,0.2,0.8,1,0,,,,,,,,,,,,,,,,,,,,,,,,,,,,,,,,,,,,
,,65d8ec51e80934b810623d98,66fc97fab7cdfc8675481a9a,2024-10-01_17h49.47.730,mdp,2024.2.1,Win32,59.95203837,66fa4ebf79326e780c390304,,,,,,,,,,,,,,,,,,,,,341.845,341.845,341.847,342.695,0,1,left,0.319,,342.696,342.697,,1,,342.699,342.701,,1,,0,342.701,342.701,342.702,344.195,0,21,21,21,1,0.8,0.2,0.2,0.8,1,0,,,,,,,,,,,,,,,,,,,,,,,,,,,,,,,,,,,,
,,65d8ec51e80934b810623d98,66fc97fab7cdfc8675481a9a,2024-10-01_17h49.47.730,mdp,2024.2.1,Win32,59.95203837,66fa4ebf79326e780c390304,,,,,,,,,,,,,,,,,,,,,344.195,344.195,344.196,345.262,1,1,right,0.551,,345.263,345.264,,1,,345.266,345.267,,1,,0,345.267,345.267,345.268,346.761,0,22,22,22,1,0.8,0.2,0.2,0.8,1,0,,,,,,,,,,,,,,,,,,,,,,,,,,,,,,,,,,,,
,,65d8ec51e80934b810623d98,66fc97fab7cdfc8675481a9a,2024-10-01_17h49.47.730,mdp,2024.2.1,Win32,59.95203837,66fa4ebf79326e780c390304,,,,,,,,,,,,,,,,,,,,,346.762,346.762,346.764,347.761,1,1,right,0.484,,347.763,347.765,,1,,347.766,347.767,,1,,0,347.767,347.767,347.768,349.261,0,23,23,23,1,0.8,0.2,0.2,0.8,1,0,,,,,,,,,,,,,,,,,,,,,,,,,,,,,,,,,,,,
,,65d8ec51e80934b810623d98,66fc97fab7cdfc8675481a9a,2024-10-01_17h49.47.730,mdp,2024.2.1,Win32,59.95203837,66fa4ebf79326e780c390304,,,,,,,,,,,,,,,,,,,,,349.262,349.262,349.263,350.745,1,1,right,0.967,,350.746,350.747,,0,,350.748,350.749,,1,,0,350.749,350.749,350.75,352.245,0,24,24,24,1,0.8,0.2,0.2,0.8,1,0,,,,,,,,,,,,,,,,,,,,,,,,,,,,,,,,,,,,
,,65d8ec51e80934b810623d98,66fc97fab7cdfc8675481a9a,2024-10-01_17h49.47.730,mdp,2024.2.1,Win32,59.95203837,66fa4ebf79326e780c390304,,,,,,,,,,,,,,,,,,,,,352.245,352.245,352.247,353.396,1,1,right,0.642,,353.397,353.399,,1,,353.4,353.401,,1,,0,353.401,353.401,353.402,354.895,0,25,25,25,1,0.8,0.2,0.2,0.8,1,0,,,,,,,,,,,,,,,,,,,,,,,,,,,,,,,,,,,,
,,65d8ec51e80934b810623d98,66fc97fab7cdfc8675481a9a,2024-10-01_17h49.47.730,mdp,2024.2.1,Win32,59.95203837,66fa4ebf79326e780c390304,,,,,,,,,,,,,,,,,,,,,354.896,354.896,354.897,356.112,1,1,right,0.685,,356.113,356.115,,1,,356.115,356.116,,1,,0,356.116,356.116,356.117,357.612,0,26,26,26,1,0.8,0.2,0.2,0.8,1,0,,,,,,,,,,,,,,,,,,,,,,,,,,,,,,,,,,,,
,,65d8ec51e80934b810623d98,66fc97fab7cdfc8675481a9a,2024-10-01_17h49.47.730,mdp,2024.2.1,Win32,59.95203837,66fa4ebf79326e780c390304,,,,,,,,,,,,,,,,,,,,,357.612,357.612,357.613,358.445,0,0,left,0.327,,358.448,358.449,,0,,358.45,358.451,,0,,1,358.451,358.451,358.452,359.945,0,27,27,27,1,0.8,0.2,0.2,0.8,1,0,,,,,,,,,,,,,,,,,,,,,,,,,,,,,,,,,,,,
,,65d8ec51e80934b810623d98,66fc97fab7cdfc8675481a9a,2024-10-01_17h49.47.730,mdp,2024.2.1,Win32,59.95203837,66fa4ebf79326e780c390304,,,,,,,,,,,,,,,,,,,,,359.946,359.946,359.947,361.063,0,0,left,0.602,,361.064,361.065,,0,,361.066,361.067,,0,,1,361.067,361.067,361.068,362.562,0,28,28,28,1,0.8,0.2,0.2,0.8,1,0,,,,,,,,,,,,,,,,,,,,,,,,,,,,,,,,,,,,
,,65d8ec51e80934b810623d98,66fc97fab7cdfc8675481a9a,2024-10-01_17h49.47.730,mdp,2024.2.1,Win32,59.95203837,66fa4ebf79326e780c390304,,,,,,,,,,,,,,,,,,,,,362.563,362.563,362.564,363.796,0,0,left,0.709,,363.797,363.798,,0,,363.799,363.8,,1,,1,363.8,363.8,363.801,365.296,0,29,29,29,1,0.4,0.6,0.8,0.2,1,0,,,,,,,,,,,,,,,,,,,,,,,,,,,,,,,,,,,,
,,65d8ec51e80934b810623d98,66fc97fab7cdfc8675481a9a,2024-10-01_17h49.47.730,mdp,2024.2.1,Win32,59.95203837,66fa4ebf79326e780c390304,,,,,,,,,,,,,,,,,,,,,365.296,365.296,365.298,366.312,0,1,left,0.491,,366.313,366.315,,0,,366.316,366.318,,1,,0,366.318,366.318,366.319,367.813,0,30,30,30,1,0.4,0.6,0.8,0.2,1,0,,,,,,,,,,,,,,,,,,,,,,,,,,,,,,,,,,,,
,,65d8ec51e80934b810623d98,66fc97fab7cdfc8675481a9a,2024-10-01_17h49.47.730,mdp,2024.2.1,Win32,59.95203837,66fa4ebf79326e780c390304,,,,,,,,,,,,,,,,,,,,,367.813,367.813,367.814,368.43,1,0,right,0.084,,368.437,368.439,,0,,368.441,368.442,,1,,1,368.442,368.442,368.443,369.93,0,31,31,31,1,0.4,0.6,0.8,0.2,1,0,,,,,,,,,,,,,,,,,,,,,,,,,,,,,,,,,,,,
,,65d8ec51e80934b810623d98,66fc97fab7cdfc8675481a9a,2024-10-01_17h49.47.730,mdp,2024.2.1,Win32,59.95203837,66fa4ebf79326e780c390304,,,,,,,,,,,,,,,,,,,,,369.931,369.931,369.932,370.896,1,0,right,0.433,,370.897,370.899,,0,,370.9,370.901,,1,,1,370.901,370.901,370.903,372.396,0,32,32,32,1,0.4,0.6,0.8,0.2,1,0,,,,,,,,,,,,,,,,,,,,,,,,,,,,,,,,,,,,
,,65d8ec51e80934b810623d98,66fc97fab7cdfc8675481a9a,2024-10-01_17h49.47.730,mdp,2024.2.1,Win32,59.95203837,66fa4ebf79326e780c390304,,,,,,,,,,,,,,,,,,,,,372.397,372.397,372.398,373.279,1,0,right,0.352,,373.281,373.282,,1,,373.283,373.285,,1,,1,373.285,373.285,373.286,374.78,0,33,33,33,1,0.6,0.4,0.4,0.6,1,0,,,,,,,,,,,,,,,,,,,,,,,,,,,,,,,,,,,,
,,65d8ec51e80934b810623d98,66fc97fab7cdfc8675481a9a,2024-10-01_17h49.47.730,mdp,2024.2.1,Win32,59.95203837,66fa4ebf79326e780c390304,,,,,,,,,,,,,,,,,,,,,374.78,374.78,374.781,375.796,1,1,right,0.482,,375.798,375.8,,1,,375.801,375.802,,1,,0,375.802,375.802,375.803,377.296,0,34,34,34,1,0.8,0.2,0.2,0.8,1,0,,,,,,,,,,,,,,,,,,,,,,,,,,,,,,,,,,,,
,,65d8ec51e80934b810623d98,66fc97fab7cdfc8675481a9a,2024-10-01_17h49.47.730,mdp,2024.2.1,Win32,59.95203837,66fa4ebf79326e780c390304,,,,,,,,,,,,,,,,,,,,,377.297,377.297,377.298,378.13,0,0,left,0.301,,378.131,378.133,,0,,378.134,378.135,,0,,1,378.135,378.135,378.135,379.63,0,35,35,35,1,0.8,0.2,0.2,0.8,1,0,,,,,,,,,,,,,,,,,,,,,,,,,,,,,,,,,,,,
,,65d8ec51e80934b810623d98,66fc97fab7cdfc8675481a9a,2024-10-01_17h49.47.730,mdp,2024.2.1,Win32,59.95203837,66fa4ebf79326e780c390304,,,,,,,,,,,,,,,,,,,,,379.63,379.63,379.632,380.563,0,0,left,0.401,,380.565,380.566,,0,,380.567,380.568,,0,,1,380.568,380.568,380.569,382.064,0,36,36,36,1,0.8,0.2,0.2,0.8,1,0,,,,,,,,,,,,,,,,,,,,,,,,,,,,,,,,,,,,
,,65d8ec51e80934b810623d98,66fc97fab7cdfc8675481a9a,2024-10-01_17h49.47.730,mdp,2024.2.1,Win32,59.95203837,66fa4ebf79326e780c390304,,,,,,,,,,,,,,,,,,,,,382.065,382.065,382.066,382.946,0,0,left,0.352,,382.949,382.949,,0,,382.951,382.952,,1,,1,382.952,382.952,382.953,384.447,0,37,37,37,1,0.8,0.2,0.2,0.8,1,0,,,,,,,,,,,,,,,,,,,,,,,,,,,,,,,,,,,,
,,65d8ec51e80934b810623d98,66fc97fab7cdfc8675481a9a,2024-10-01_17h49.47.730,mdp,2024.2.1,Win32,59.95203837,66fa4ebf79326e780c390304,,,,,,,,,,,,,,,,,,,,,384.447,384.447,384.448,385.363,0,0,left,0.401,,385.365,385.366,,1,,385.367,385.368,,0,,1,385.368,385.368,385.369,386.864,0,38,38,38,1,0.8,0.2,0.2,0.8,1,0,,,,,,,,,,,,,,,,,,,,,,,,,,,,,,,,,,,,
,,65d8ec51e80934b810623d98,66fc97fab7cdfc8675481a9a,2024-10-01_17h49.47.730,mdp,2024.2.1,Win32,59.95203837,66fa4ebf79326e780c390304,,,,,,,,,,,,,,,,,,,,,386.864,386.864,386.865,387.797,0,1,left,0.418,,387.799,387.8,,0,,387.801,387.801,,0,,0,387.802,387.802,387.802,389.297,0,39,39,39,1,0.8,0.2,0.2,0.8,1,0,,,,,,,,,,,,,,,,,,,,,,,,,,,,,,,,,,,,
,,65d8ec51e80934b810623d98,66fc97fab7cdfc8675481a9a,2024-10-01_17h49.47.730,mdp,2024.2.1,Win32,59.95203837,66fa4ebf79326e780c390304,,,,,,,,,,,,,,,,,,,,,389.297,389.297,389.298,389.947,1,1,right,0.134,,389.949,389.949,,1,,389.95,389.951,,1,,0,389.951,389.951,389.953,391.447,0,40,40,40,1,0.8,0.2,0.2,0.8,1,0,,,,,,,,,,,,,,,,,,,,,,,,,,,,,,,,,,,,
,,65d8ec51e80934b810623d98,66fc97fab7cdfc8675481a9a,2024-10-01_17h49.47.730,mdp,2024.2.1,Win32,59.95203837,66fa4ebf79326e780c390304,,,,,,,,,,,,,,,,,,,,,391.447,391.447,391.449,392.064,0,0,left,0.101,,392.065,392.066,,0,,392.067,392.068,,0,,1,392.068,392.068,392.069,393.563,0,41,41,41,1,0.8,0.2,0.2,0.8,1,0,,,,,,,,,,,,,,,,,,,,,,,,,,,,,,,,,,,,
,,65d8ec51e80934b810623d98,66fc97fab7cdfc8675481a9a,2024-10-01_17h49.47.730,mdp,2024.2.1,Win32,59.95203837,66fa4ebf79326e780c390304,,,,,,,,,,,,,,,,,,,,,393.564,393.564,393.565,394.381,0,1,left,0.305,,394.382,394.383,,1,,394.384,394.384,,1,,0,394.384,394.384,394.385,395.881,0,42,42,42,1,0.2,0.8,0.6,0.4,1,0,,,,,,,,,,,,,,,,,,,,,,,,,,,,,,,,,,,,
,,65d8ec51e80934b810623d98,66fc97fab7cdfc8675481a9a,2024-10-01_17h49.47.730,mdp,2024.2.1,Win32,59.95203837,66fa4ebf79326e780c390304,,,,,,,,,,,,,,,,,,,,,395.881,395.881,395.882,397.098,1,0,right,0.689,,397.099,397.1,,0,,397.101,397.102,,0,,1,397.102,397.102,397.103,398.598,0,43,43,43,1,0.8,0.2,0.8,0.2,1,0,,,,,,,,,,,,,,,,,,,,,,,,,,,,,,,,,,,,
,,65d8ec51e80934b810623d98,66fc97fab7cdfc8675481a9a,2024-10-01_17h49.47.730,mdp,2024.2.1,Win32,59.95203837,66fa4ebf79326e780c390304,,,,,,,,,,,,,,,,,,,,,398.598,398.598,398.598,399.598,1,0,right,0.472,,399.598,399.6,,0,,399.602,399.603,,0,,1,399.603,399.603,399.603,401.098,0,44,44,44,1,0.8,0.2,0.8,0.2,1,0,,,,,,,,,,,,,,,,,,,,,,,,,,,,,,,,,,,,
,,65d8ec51e80934b810623d98,66fc97fab7cdfc8675481a9a,2024-10-01_17h49.47.730,mdp,2024.2.1,Win32,59.95203837,66fa4ebf79326e780c390304,,,,,,,,,,,,,,,,,,,,,401.098,401.098,401.099,401.897,1,0,right,0.284,,401.899,401.9,,0,,401.901,401.902,,1,,1,401.902,401.902,401.903,403.398,0,45,45,45,1,0.8,0.2,0.8,0.2,1,0,,,,,,,,,,,,,,,,,,,,,,,,,,,,,,,,,,,,
,,65d8ec51e80934b810623d98,66fc97fab7cdfc8675481a9a,2024-10-01_17h49.47.730,mdp,2024.2.1,Win32,59.95203837,66fa4ebf79326e780c390304,,,,,,,,,,,,,,,,,,,,,403.401,403.401,403.405,404.347,1,0,right,0.424,,404.35,404.352,,1,,404.353,404.354,,1,,1,404.354,404.354,404.355,405.848,0,46,46,46,1,0.2,0.8,0.6,0.4,1,0,,,,,,,,,,,,,,,,,,,,,,,,,,,,,,,,,,,,
,,65d8ec51e80934b810623d98,66fc97fab7cdfc8675481a9a,2024-10-01_17h49.47.730,mdp,2024.2.1,Win32,59.95203837,66fa4ebf79326e780c390304,,,,,,,,,,,,,,,,,,,,,405.848,405.848,405.85,406.698,1,1,right,0.317,,406.699,406.702,,1,,406.703,406.704,,1,,0,406.704,406.704,406.705,408.198,0,47,47,47,1,0.2,0.8,0.6,0.4,1,0,,,,,,,,,,,,,,,,,,,,,,,,,,,,,,,,,,,,
,,65d8ec51e80934b810623d98,66fc97fab7cdfc8675481a9a,2024-10-01_17h49.47.730,mdp,2024.2.1,Win32,59.95203837,66fa4ebf79326e780c390304,,,,,,,,,,,,,,,,,,,,,408.199,408.199,408.2,409.114,0,0,left,0.386,,409.116,409.119,,1,,409.12,409.121,,1,,1,409.121,409.121,409.122,410.615,0,48,48,48,1,0.2,0.8,0.6,0.4,1,0,,,,,,,,,,,,,,,,,,,,,,,,,,,,,,,,,,,,
,,65d8ec51e80934b810623d98,66fc97fab7cdfc8675481a9a,2024-10-01_17h49.47.730,mdp,2024.2.1,Win32,59.95203837,66fa4ebf79326e780c390304,,,,,,,,,,,,,,,,,,,,,410.615,410.615,410.616,411.481,0,1,left,0.334,,411.483,411.485,,1,,411.485,411.486,,1,,0,411.486,411.486,411.487,412.981,0,49,49,49,1,0.2,0.8,0.6,0.4,1,0,,,,,,,,,,,,,,,,,,,,,,,,,,,,,,,,,,,,
,,65d8ec51e80934b810623d98,66fc97fab7cdfc8675481a9a,2024-10-01_17h49.47.730,mdp,2024.2.1,Win32,59.95203837,66fa4ebf79326e780c390304,,,,,,,,,,,,,,,,,,,,,,,,,,,,,,,,,,,,,,,,,,,,,,,,,,,,,,,,412.981,478.047,0,0,0,3,1,imgs/giraffe.png,imgs/rabbit.png,imgs/dog.png,imgs/squirrel.png,imgs/pig.png,,,,,,,,,,,,,,,,,,,,,,,,
,,65d8ec51e80934b810623d98,66fc97fab7cdfc8675481a9a,2024-10-01_17h49.47.730,mdp,2024.2.1,Win32,59.95203837,66fa4ebf79326e780c390304,,,,,,,,,,,,,,2,seqs/st2seq8.csv,478.064,481.651,space,3.071,,481.662,481.662,481.663,482.934,0,0,left,0.736,,482.937,484.801,0,1,left,484.803,484.805,,1,,0,484.805,484.805,484.806,486.302,0,0,0,0,1,0.8,0.2,0.2,0.8,,,,,,,,,,,,,,,1.34,,0.4,0.6,0.8,0.2,0.4,0.6,0.8,0.2,1,0,,,,,,,,,,,,
,,65d8ec51e80934b810623d98,66fc97fab7cdfc8675481a9a,2024-10-01_17h49.47.730,mdp,2024.2.1,Win32,59.95203837,66fa4ebf79326e780c390304,,,,,,,,,,,,,,,,,,,,,486.303,486.303,486.304,487.685,0,0,left,0.851,,487.686,488.669,1,0,right,488.67,488.672,,0,,1,488.672,488.672,488.673,490.168,0,1,1,1,1,0.8,0.2,0.2,0.8,,,,,,,,,,,,,,,0.467,,0.4,0.6,0.8,0.2,0.4,0.6,0.8,0.2,1,0,,,,,,,,,,,,
,,65d8ec51e80934b810623d98,66fc97fab7cdfc8675481a9a,2024-10-01_17h49.47.730,mdp,2024.2.1,Win32,59.95203837,66fa4ebf79326e780c390304,,,,,,,,,,,,,,,,,,,,,490.169,490.169,490.17,491.052,0,0,left,0.37,,491.053,491.919,1,1,right,491.92,491.922,,0,,0,491.922,491.922,491.923,493.418,0,2,2,2,1,0.8,0.2,0.2,0.8,,,,,,,,,,,,,,,0.34,,0.4,0.6,0.8,0.2,0.4,0.6,0.8,0.2,1,0,,,,,,,,,,,,
,,65d8ec51e80934b810623d98,66fc97fab7cdfc8675481a9a,2024-10-01_17h49.47.730,mdp,2024.2.1,Win32,59.95203837,66fa4ebf79326e780c390304,,,,,,,,,,,,,,,,,,,,,493.419,493.419,493.42,494.368,1,0,right,0.416,,494.37,495.252,0,0,left,495.253,495.255,,0,,1,495.255,495.255,495.256,496.752,0,3,3,3,1,0.8,0.2,0.2,0.8,,,,,,,,,,,,,,,0.369,,0.4,0.6,0.8,0.2,0.6,0.4,0.4,0.6,1,0,,,,,,,,,,,,
,,65d8ec51e80934b810623d98,66fc97fab7cdfc8675481a9a,2024-10-01_17h49.47.730,mdp,2024.2.1,Win32,59.95203837,66fa4ebf79326e780c390304,,,,,,,,,,,,,,,,,,,,,496.753,496.753,496.754,497.869,1,1,right,0.584,,497.871,498.769,0,0,left,498.77,498.771,,0,,1,498.771,498.771,498.772,500.269,0,4,4,4,1,0.8,0.2,0.2,0.8,,,,,,,,,,,,,,,0.37,,0.4,0.6,0.8,0.2,0.6,0.4,0.4,0.6,1,0,,,,,,,,,,,,
,,65d8ec51e80934b810623d98,66fc97fab7cdfc8675481a9a,2024-10-01_17h49.47.730,mdp,2024.2.1,Win32,59.95203837,66fa4ebf79326e780c390304,,,,,,,,,,,,,,,,,,,,,500.269,500.269,500.27,501.153,1,0,right,0.369,,501.154,502.035,0,0,left,502.037,502.038,,1,,1,502.038,502.039,502.041,503.536,0,5,5,5,1,0.8,0.2,0.2,0.8,,,,,,,,,,,,,,,0.355,,0.4,0.6,0.8,0.2,0.6,0.4,0.4,0.6,1,0,,,,,,,,,,,,
,,65d8ec51e80934b810623d98,66fc97fab7cdfc8675481a9a,2024-10-01_17h49.47.730,mdp,2024.2.1,Win32,59.95203837,66fa4ebf79326e780c390304,,,,,,,,,,,,,,,,,,,,,503.537,503.537,503.537,504.552,1,1,right,0.486,,504.553,505.536,0,1,left,505.537,505.539,,1,,0,505.539,505.539,505.54,507.036,0,6,6,6,1,0.8,0.2,0.2,0.8,,,,,,,,,,,,,,,0.458,,0.4,0.6,0.8,0.2,0.6,0.4,0.4,0.6,1,0,,,,,,,,,,,,
,,65d8ec51e80934b810623d98,66fc97fab7cdfc8675481a9a,2024-10-01_17h49.47.730,mdp,2024.2.1,Win32,59.95203837,66fa4ebf79326e780c390304,,,,,,,,,,,,,,,,,,,,,507.037,507.037,507.038,507.92,1,1,right,0.354,,507.921,508.769,1,0,right,508.77,508.772,,1,,1,508.772,508.772,508.774,510.271,0,7,7,7,1,0.8,0.2,0.2,0.8,,,,,,,,,,,,,,,0.321,,0.4,0.6,0.8,0.2,0.6,0.4,0.4,0.6,1,0,,,,,,,,,,,,
,,65d8ec51e80934b810623d98,66fc97fab7cdfc8675481a9a,2024-10-01_17h49.47.730,mdp,2024.2.1,Win32,59.95203837,66fa4ebf79326e780c390304,,,,,,,,,,,,,,,,,,,,,510.273,510.273,510.277,511.436,1,1,right,0.637,,511.437,512.419,1,1,right,512.421,512.423,,1,,0,512.423,512.423,512.424,513.919,0,8,8,8,1,0.8,0.2,0.2,0.8,,,,,,,,,,,,,,,0.475,,0.4,0.6,0.8,0.2,0.8,0.2,0.2,0.8,1,0,,,,,,,,,,,,
,,65d8ec51e80934b810623d98,66fc97fab7cdfc8675481a9a,2024-10-01_17h49.47.730,mdp,2024.2.1,Win32,59.95203837,66fa4ebf79326e780c390304,,,,,,,,,,,,,,,,,,,,,513.92,513.92,513.921,515.02,1,1,right,0.583,,515.022,515.919,0,0,left,515.922,515.923,,0,,1,515.923,515.923,515.924,517.42,0,9,9,9,1,0.8,0.2,0.2,0.8,,,,,,,,,,,,,,,0.373,,0.4,0.6,0.8,0.2,0.8,0.2,0.2,0.8,1,0,,,,,,,,,,,,
,,65d8ec51e80934b810623d98,66fc97fab7cdfc8675481a9a,2024-10-01_17h49.47.730,mdp,2024.2.1,Win32,59.95203837,66fa4ebf79326e780c390304,,,,,,,,,,,,,,,,,,,,,517.421,517.421,517.421,518.52,1,1,right,0.572,,518.521,519.67,0,0,left,519.672,519.674,,0,,1,519.674,519.674,519.675,521.17,0,10,10,10,1,0.8,0.2,0.2,0.8,,,,,,,,,,,,,,,0.618,,0.4,0.6,0.8,0.2,0.8,0.2,0.2,0.8,1,0,,,,,,,,,,,,
,,65d8ec51e80934b810623d98,66fc97fab7cdfc8675481a9a,2024-10-01_17h49.47.730,mdp,2024.2.1,Win32,59.95203837,66fa4ebf79326e780c390304,,,,,,,,,,,,,,,,,,,,,521.17,521.17,521.172,522.32,1,1,right,0.634,,522.321,523.354,0,0,left,523.355,523.356,,1,,1,523.356,523.356,523.358,524.853,0,11,11,11,1,0.8,0.2,0.2,0.8,,,,,,,,,,,,,,,0.52,,0.4,0.6,0.8,0.2,0.8,0.2,0.2,0.8,1,0,,,,,,,,,,,,
,,65d8ec51e80934b810623d98,66fc97fab7cdfc8675481a9a,2024-10-01_17h49.47.730,mdp,2024.2.1,Win32,59.95203837,66fa4ebf79326e780c390304,,,,,,,,,,,,,,,,,,,,,524.854,524.854,524.855,525.787,1,0,right,0.406,,525.788,526.686,0,1,left,526.688,526.689,,1,,0,526.689,526.689,526.69,528.187,0,12,12,12,1,0.2,0.8,0.8,0.2,,,,,,,,,,,,,,,0.376,,0.4,0.6,0.8,0.2,0.8,0.2,0.2,0.8,1,0,,,,,,,,,,,,
,,65d8ec51e80934b810623d98,66fc97fab7cdfc8675481a9a,2024-10-01_17h49.47.730,mdp,2024.2.1,Win32,59.95203837,66fa4ebf79326e780c390304,,,,,,,,,,,,,,,,,,,,,528.188,528.188,528.189,529.137,1,0,right,0.419,,529.138,530.421,1,0,right,530.421,530.423,,0,,1,530.424,530.424,530.424,531.921,0,13,13,13,1,0.2,0.8,0.8,0.2,,,,,,,,,,,,,,,0.766,,0.4,0.6,0.8,0.2,0.2,0.8,0.8,0.2,1,0,,,,,,,,,,,,
,,65d8ec51e80934b810623d98,66fc97fab7cdfc8675481a9a,2024-10-01_17h49.47.730,mdp,2024.2.1,Win32,59.95203837,66fa4ebf79326e780c390304,,,,,,,,,,,,,,,,,,,,,531.922,531.922,531.923,533.287,1,0,right,0.837,,533.288,534.387,1,0,right,534.388,534.389,,0,,1,534.389,534.389,534.39,535.888,0,14,14,14,1,0.2,0.8,0.8,0.2,,,,,,,,,,,,,,,0.584,,0.4,0.6,0.8,0.2,0.2,0.8,0.8,0.2,1,0,,,,,,,,,,,,
,,65d8ec51e80934b810623d98,66fc97fab7cdfc8675481a9a,2024-10-01_17h49.47.730,mdp,2024.2.1,Win32,59.95203837,66fa4ebf79326e780c390304,,,,,,,,,,,,,,,,,,,,,535.888,535.888,535.889,536.871,1,1,right,0.451,,536.872,538.121,0,1,left,538.122,538.123,,0,,0,538.123,538.123,538.124,539.62,0,15,15,15,1,0.2,0.8,0.8,0.2,,,,,,,,,,,,,,,0.732,,0.4,0.6,0.8,0.2,0.4,0.6,0.4,0.6,1,0,,,,,,,,,,,,
,,65d8ec51e80934b810623d98,66fc97fab7cdfc8675481a9a,2024-10-01_17h49.47.730,mdp,2024.2.1,Win32,59.95203837,66fa4ebf79326e780c390304,,,,,,,,,,,,,,,,,,,,,539.621,539.621,539.622,541.121,1,0,right,0.985,,541.122,542.504,1,1,right,542.506,542.507,,0,,0,542.507,542.507,542.508,544.005,0,16,16,16,1,0.2,0.8,0.8,0.2,,,,,,,,,,,,,,,0.866,,0.4,0.6,0.8,0.2,0.4,0.6,0.4,0.6,1,0,,,,,,,,,,,,
,,65d8ec51e80934b810623d98,66fc97fab7cdfc8675481a9a,2024-10-01_17h49.47.730,mdp,2024.2.1,Win32,59.95203837,66fa4ebf79326e780c390304,,,,,,,,,,,,,,,,,,,,,544.009,544.009,544.013,545.305,0,1,left,0.768,,545.309,546.371,0,0,left,546.373,546.375,,1,,1,546.375,546.375,546.376,547.871,0,17,17,17,1,0.2,0.8,0.8,0.2,,,,,,,,,,,,,,,0.522,,0.4,0.6,0.8,0.2,0.4,0.6,0.4,0.6,1,0,,,,,,,,,,,,
,,65d8ec51e80934b810623d98,66fc97fab7cdfc8675481a9a,2024-10-01_17h49.47.730,mdp,2024.2.1,Win32,59.95203837,66fa4ebf79326e780c390304,,,,,,,,,,,,,,,,,,,,,547.872,547.872,547.874,549.088,1,0,right,0.685,,549.09,550.021,0,0,left,550.023,550.025,,0,,1,550.025,550.025,550.027,551.521,0,18,18,18,1,0.2,0.8,0.8,0.2,,,,,,,,,,,,,,,0.408,,0.4,0.6,0.8,0.2,0.4,0.6,0.4,0.6,1,0,,,,,,,,,,,,
,,65d8ec51e80934b810623d98,66fc97fab7cdfc8675481a9a,2024-10-01_17h49.47.730,mdp,2024.2.1,Win32,59.95203837,66fa4ebf79326e780c390304,,,,,,,,,,,,,,,,,,,,,551.522,551.522,551.524,552.604,1,0,right,0.556,,552.607,553.805,0,1,left,553.807,553.809,,0,,0,553.809,553.809,553.81,555.305,0,19,19,19,1,0.2,0.8,0.8,0.2,,,,,,,,,,,,,,,0.684,,0.4,0.6,0.8,0.2,0.4,0.6,0.4,0.6,1,0,,,,,,,,,,,,
,,65d8ec51e80934b810623d98,66fc97fab7cdfc8675481a9a,2024-10-01_17h49.47.730,mdp,2024.2.1,Win32,59.95203837,66fa4ebf79326e780c390304,,,,,,,,,,,,,,,,,,,,,555.306,555.306,555.307,556.455,0,0,left,0.624,,556.456,557.255,1,0,right,557.257,557.257,,0,,1,557.258,557.258,557.259,558.755,0,20,20,20,1,0.2,0.8,0.8,0.2,,,,,,,,,,,,,,,0.285,,0.4,0.6,0.8,0.2,0.4,0.6,0.4,0.6,1,0,,,,,,,,,,,,
,,65d8ec51e80934b810623d98,66fc97fab7cdfc8675481a9a,2024-10-01_17h49.47.730,mdp,2024.2.1,Win32,59.95203837,66fa4ebf79326e780c390304,,,,,,,,,,,,,,,,,,,,,558.756,558.756,558.757,559.671,0,1,left,0.389,,559.673,560.488,1,1,right,560.49,560.491,,1,,0,560.491,560.491,560.492,561.989,0,21,21,21,1,0.2,0.8,0.8,0.2,,,,,,,,,,,,,,,0.275,,0.4,0.6,0.8,0.2,0.4,0.6,0.4,0.6,1,0,,,,,,,,,,,,
,,65d8ec51e80934b810623d98,66fc97fab7cdfc8675481a9a,2024-10-01_17h49.47.730,mdp,2024.2.1,Win32,59.95203837,66fa4ebf79326e780c390304,,,,,,,,,,,,,,,,,,,,,561.989,561.989,561.99,562.856,0,1,left,0.334,,562.857,563.639,0,1,left,563.64,563.641,,1,,0,563.642,563.642,563.643,565.139,0,22,22,22,1,0.2,0.8,0.8,0.2,,,,,,,,,,,,,,,0.25,,0.4,0.6,0.8,0.2,0.2,0.8,0.8,0.2,1,0,,,,,,,,,,,,
,,65d8ec51e80934b810623d98,66fc97fab7cdfc8675481a9a,2024-10-01_17h49.47.730,mdp,2024.2.1,Win32,59.95203837,66fa4ebf79326e780c390304,,,,,,,,,,,,,,,,,,,,,565.139,565.139,565.14,565.989,1,1,right,0.338,,565.99,566.572,1,0,right,566.574,566.575,,1,,1,566.575,566.575,566.576,568.072,0,23,23,23,1,0.2,0.8,0.8,0.2,,,,,,,,,,,,,,,0.051,,0.4,0.6,0.8,0.2,0.2,0.8,0.8,0.2,1,0,,,,,,,,,,,,
,,65d8ec51e80934b810623d98,66fc97fab7cdfc8675481a9a,2024-10-01_17h49.47.730,mdp,2024.2.1,Win32,59.95203837,66fa4ebf79326e780c390304,,,,,,,,,,,,,,,,,,,,,568.073,568.073,568.074,569.155,1,0,right,0.55,,569.157,570.356,0,1,left,570.357,570.358,,0,,0,570.358,570.358,570.359,571.856,0,24,24,24,1,0.2,0.8,0.8,0.2,,,,,,,,,,,,,,,0.685,,0.4,0.6,0.8,0.2,0.2,0.8,0.8,0.2,1,0,,,,,,,,,,,,
,,65d8ec51e80934b810623d98,66fc97fab7cdfc8675481a9a,2024-10-01_17h49.47.730,mdp,2024.2.1,Win32,59.95203837,66fa4ebf79326e780c390304,,,,,,,,,,,,,,,,,,,,,571.856,571.857,571.857,572.822,1,1,right,0.435,,572.823,573.756,1,0,right,573.758,573.76,,0,,1,573.76,573.76,573.761,575.256,0,25,25,25,1,0.8,0.2,0.2,0.8,,,,,,,,,,,,,,,0.409,,0.4,0.6,0.8,0.2,0.2,0.8,0.8,0.2,1,0,,,,,,,,,,,,
,,65d8ec51e80934b810623d98,66fc97fab7cdfc8675481a9a,2024-10-01_17h49.47.730,mdp,2024.2.1,Win32,59.95203837,66fa4ebf79326e780c390304,,,,,,,,,,,,,,,,,,,,,575.256,575.256,575.258,576.456,1,0,right,0.669,,576.457,577.556,1,0,right,577.557,577.559,,0,,1,577.559,577.559,577.56,579.056,0,26,26,26,1,0.8,0.2,0.2,0.8,,,,,,,,,,,,,,,0.58,,0.4,0.6,0.8,0.2,0.2,0.8,0.8,0.2,1,0,,,,,,,,,,,,
,,65d8ec51e80934b810623d98,66fc97fab7cdfc8675481a9a,2024-10-01_17h49.47.730,mdp,2024.2.1,Win32,59.95203837,66fa4ebf79326e780c390304,,,,,,,,,,,,,,,,,,,,,579.06,579.06,579.063,580.023,1,1,right,0.433,,580.024,581.523,1,0,right,581.524,581.525,,0,,1,581.526,581.526,581.527,583.023,0,27,27,27,1,0.8,0.2,0.2,0.8,,,,,,,,,,,,,,,0.957,,0.4,0.6,0.8,0.2,0.2,0.8,0.8,0.2,1,0,,,,,,,,,,,,
,,65d8ec51e80934b810623d98,66fc97fab7cdfc8675481a9a,2024-10-01_17h49.47.730,mdp,2024.2.1,Win32,59.95203837,66fa4ebf79326e780c390304,,,,,,,,,,,,,,,,,,,,,583.024,583.024,583.026,583.99,1,1,right,0.434,,583.991,584.923,1,0,right,584.925,584.926,,0,,1,584.926,584.926,584.927,586.423,0,28,28,28,1,0.8,0.2,0.2,0.8,,,,,,,,,,,,,,,0.419,,0.4,0.6,0.8,0.2,0.2,0.8,0.8,0.2,1,0,,,,,,,,,,,,
,,65d8ec51e80934b810623d98,66fc97fab7cdfc8675481a9a,2024-10-01_17h49.47.730,mdp,2024.2.1,Win32,59.95203837,66fa4ebf79326e780c390304,,,,,,,,,,,,,,,,,,,,,586.424,586.424,586.426,587.423,1,1,right,0.471,,587.424,588.123,1,1,right,588.125,588.127,,0,,0,588.127,588.127,588.128,589.623,0,29,29,29,1,0.8,0.2,0.2,0.8,,,,,,,,,,,,,,,0.188,,0.4,0.6,0.8,0.2,0.2,0.8,0.8,0.2,1,0,,,,,,,,,,,,
,,65d8ec51e80934b810623d98,66fc97fab7cdfc8675481a9a,2024-10-01_17h49.47.730,mdp,2024.2.1,Win32,59.95203837,66fa4ebf79326e780c390304,,,,,,,,,,,,,,,,,,,,,589.624,589.624,589.624,590.54,1,0,right,0.389,,590.541,591.757,1,1,right,591.758,591.759,,1,,0,591.76,591.76,591.761,593.257,0,30,30,30,1,0.2,0.8,0.8,0.2,,,,,,,,,,,,,,,0.693,,0.4,0.6,0.8,0.2,0.2,0.8,0.8,0.2,1,0,,,,,,,,,,,,
,,65d8ec51e80934b810623d98,66fc97fab7cdfc8675481a9a,2024-10-01_17h49.47.730,mdp,2024.2.1,Win32,59.95203837,66fa4ebf79326e780c390304,,,,,,,,,,,,,,,,,,,,,593.257,593.257,593.259,594.623,0,1,left,0.851,,594.625,595.79,1,0,right,595.791,595.793,,1,,1,595.793,595.793,595.794,597.29,0,31,31,31,1,0.2,0.8,0.8,0.2,,,,,,,,,,,,,,,0.643,,0.6,0.4,0.6,0.4,0.2,0.8,0.8,0.2,1,0,,,,,,,,,,,,
,,65d8ec51e80934b810623d98,66fc97fab7cdfc8675481a9a,2024-10-01_17h49.47.730,mdp,2024.2.1,Win32,59.95203837,66fa4ebf79326e780c390304,,,,,,,,,,,,,,,,,,,,,597.291,597.291,597.293,598.691,1,1,right,0.869,,598.692,599.874,1,0,right,599.875,599.876,,0,,1,599.876,599.876,599.878,601.373,0,32,32,32,1,0.2,0.8,0.8,0.2,,,,,,,,,,,,,,,0.653,,0.6,0.4,0.6,0.4,0.2,0.8,0.8,0.2,1,0,,,,,,,,,,,,
,,65d8ec51e80934b810623d98,66fc97fab7cdfc8675481a9a,2024-10-01_17h49.47.730,mdp,2024.2.1,Win32,59.95203837,66fa4ebf79326e780c390304,,,,,,,,,,,,,,,,,,,,,601.374,601.374,601.376,603.374,1,0,right,1.485,,603.375,605.041,0,1,left,605.041,605.043,,0,,0,605.043,605.043,605.044,606.541,0,33,33,33,1,0.2,0.8,0.8,0.2,,,,,,,,,,,,,,,1.12,,0.6,0.4,0.6,0.4,0.2,0.8,0.8,0.2,1,0,,,,,,,,,,,,
,,65d8ec51e80934b810623d98,66fc97fab7cdfc8675481a9a,2024-10-01_17h49.47.730,mdp,2024.2.1,Win32,59.95203837,66fa4ebf79326e780c390304,,,,,,,,,,,,,,,,,,,,,606.542,606.542,606.543,761.949,1,1,right,154.877,,761.955,762.95,0,1,left,762.956,762.96,,0,,0,762.96,762.96,762.961,764.448,0,34,34,34,1,0.2,0.8,0.8,0.2,,,,,,,,,,,,,,,0.455,,0.6,0.4,0.6,0.4,0.2,0.8,0.8,0.2,1,0,,,,,,,,,,,,
,,65d8ec51e80934b810623d98,66fc97fab7cdfc8675481a9a,2024-10-01_17h49.47.730,mdp,2024.2.1,Win32,59.95203837,66fa4ebf79326e780c390304,,,,,,,,,,,,,,,,,,,,,764.449,764.449,764.451,766.648,1,1,right,1.688,,766.649,767.532,1,0,right,767.534,767.536,,0,,1,767.536,767.536,767.537,769.032,0,35,35,35,1,0.6,0.4,0.2,0.8,,,,,,,,,,,,,,,0.342,,0.6,0.4,0.6,0.4,0.2,0.8,0.8,0.2,1,0,,,,,,,,,,,,
,,65d8ec51e80934b810623d98,66fc97fab7cdfc8675481a9a,2024-10-01_17h49.47.730,mdp,2024.2.1,Win32,59.95203837,66fa4ebf79326e780c390304,,,,,,,,,,,,,,,,,,,,,769.032,769.032,769.033,769.915,1,1,right,0.367,,769.917,770.782,1,0,right,770.783,770.785,,0,,1,770.785,770.785,770.786,772.282,0,36,36,36,1,0.6,0.4,0.2,0.8,,,,,,,,,,,,,,,0.35,,0.6,0.4,0.6,0.4,0.2,0.8,0.8,0.2,1,0,,,,,,,,,,,,
,,65d8ec51e80934b810623d98,66fc97fab7cdfc8675481a9a,2024-10-01_17h49.47.730,mdp,2024.2.1,Win32,59.95203837,66fa4ebf79326e780c390304,,,,,,,,,,,,,,,,,,,,,772.283,772.283,772.284,773.132,1,1,right,0.325,,773.133,773.998,1,1,right,774,774.001,,0,,0,774.001,774.001,774.002,775.498,0,37,37,37,1,0.6,0.4,0.2,0.8,,,,,,,,,,,,,,,0.338,,0.6,0.4,0.6,0.4,0.2,0.8,0.8,0.2,1,0,,,,,,,,,,,,
,,65d8ec51e80934b810623d98,66fc97fab7cdfc8675481a9a,2024-10-01_17h49.47.730,mdp,2024.2.1,Win32,59.95203837,66fa4ebf79326e780c390304,,,,,,,,,,,,,,,,,,,,,775.499,775.499,775.5,776.399,1,1,right,0.368,,776.4,777.332,1,0,right,777.334,777.335,,0,,1,777.335,777.335,777.336,778.832,0,38,38,38,1,0.6,0.4,0.2,0.8,,,,,,,,,,,,,,,0.401,,0.8,0.2,0.8,0.2,0.2,0.8,0.8,0.2,1,0,,,,,,,,,,,,
,,65d8ec51e80934b810623d98,66fc97fab7cdfc8675481a9a,2024-10-01_17h49.47.730,mdp,2024.2.1,Win32,59.95203837,66fa4ebf79326e780c390304,,,,,,,,,,,,,,,,,,,,,778.833,778.833,778.834,779.766,1,1,right,0.401,,779.767,780.682,1,0,right,780.684,780.685,,0,,1,780.685,780.685,780.685,782.183,0,39,39,39,1,0.6,0.4,0.2,0.8,,,,,,,,,,,,,,,0.383,,0.8,0.2,0.8,0.2,0.2,0.8,0.8,0.2,1,0,,,,,,,,,,,,
,,65d8ec51e80934b810623d98,66fc97fab7cdfc8675481a9a,2024-10-01_17h49.47.730,mdp,2024.2.1,Win32,59.95203837,66fa4ebf79326e780c390304,,,,,,,,,,,,,,,,,,,,,782.184,782.184,782.185,783.099,1,1,right,0.386,,783.1,783.949,0,1,left,783.95,783.952,,1,,0,783.952,783.952,783.953,785.449,0,40,40,40,1,0.6,0.4,0.2,0.8,,,,,,,,,,,,,,,0.335,,0.8,0.2,0.8,0.2,0.2,0.8,0.8,0.2,1,0,,,,,,,,,,,,
,,65d8ec51e80934b810623d98,66fc97fab7cdfc8675481a9a,2024-10-01_17h49.47.730,mdp,2024.2.1,Win32,59.95203837,66fa4ebf79326e780c390304,,,,,,,,,,,,,,,,,,,,,785.45,785.45,785.451,787.915,1,0,right,1.941,,787.916,789.299,1,0,right,789.3,789.302,,0,,1,789.302,789.302,789.303,790.799,0,41,41,41,1,0.6,0.4,0.2,0.8,,,,,,,,,,,,,,,0.852,,0.8,0.2,0.8,0.2,0.2,0.8,0.8,0.2,1,0,,,,,,,,,,,,
,,65d8ec51e80934b810623d98,66fc97fab7cdfc8675481a9a,2024-10-01_17h49.47.730,mdp,2024.2.1,Win32,59.95203837,66fa4ebf79326e780c390304,,,,,,,,,,,,,,,,,,,,,790.8,790.8,790.801,791.866,1,1,right,0.539,,791.867,792.916,1,0,right,792.917,792.919,,0,,1,792.919,792.919,792.919,794.416,0,42,42,42,1,0.6,0.4,0.2,0.8,,,,,,,,,,,,,,,0.516,,0.8,0.2,0.8,0.2,0.2,0.8,0.8,0.2,1,0,,,,,,,,,,,,
,,65d8ec51e80934b810623d98,66fc97fab7cdfc8675481a9a,2024-10-01_17h49.47.730,mdp,2024.2.1,Win32,59.95203837,66fa4ebf79326e780c390304,,,,,,,,,,,,,,,,,,,,,794.416,794.416,794.418,796.267,0,0,left,1.345,,796.267,797.533,1,0,right,797.539,797.542,,0,,1,797.542,797.542,797.544,799.033,0,43,43,43,1,0.6,0.4,0.2,0.8,,,,,,,,,,,,,,,0.737,,0.8,0.2,0.8,0.2,0.2,0.8,0.8,0.2,1,0,,,,,,,,,,,,
,,65d8ec51e80934b810623d98,66fc97fab7cdfc8675481a9a,2024-10-01_17h49.47.730,mdp,2024.2.1,Win32,59.95203837,66fa4ebf79326e780c390304,,,,,,,,,,,,,,,,,,,,,799.034,799.034,799.035,799.9,1,1,right,0.334,,799.901,800.717,1,0,right,800.718,800.719,,1,,1,800.719,800.72,800.721,802.217,0,44,44,44,1,0.6,0.4,0.2,0.8,,,,,,,,,,,,,,,0.291,,0.8,0.2,0.8,0.2,0.2,0.8,0.8,0.2,1,0,,,,,,,,,,,,
,,65d8ec51e80934b810623d98,66fc97fab7cdfc8675481a9a,2024-10-01_17h49.47.730,mdp,2024.2.1,Win32,59.95203837,66fa4ebf79326e780c390304,,,,,,,,,,,,,,,,,,,,,802.217,802.217,802.218,803.151,1,1,right,0.423,,803.151,804.033,1,1,right,804.035,804.037,,1,,0,804.037,804.037,804.039,805.533,0,45,45,45,1,0.6,0.4,0.2,0.8,,,,,,,,,,,,,,,0.35,,0.8,0.2,0.8,0.2,0.2,0.8,0.8,0.2,1,0,,,,,,,,,,,,
,,65d8ec51e80934b810623d98,66fc97fab7cdfc8675481a9a,2024-10-01_17h49.47.730,mdp,2024.2.1,Win32,59.95203837,66fa4ebf79326e780c390304,,,,,,,,,,,,,,,,,,,,,805.534,805.534,805.535,807.817,1,1,right,1.751,,807.819,808.717,1,0,right,808.719,808.719,,0,,1,808.72,808.72,808.721,810.217,0,46,46,46,1,0.6,0.4,0.2,0.8,,,,,,,,,,,,,,,0.366,,0.8,0.2,0.8,0.2,0.2,0.8,0.8,0.2,1,0,,,,,,,,,,,,
,,65d8ec51e80934b810623d98,66fc97fab7cdfc8675481a9a,2024-10-01_17h49.47.730,mdp,2024.2.1,Win32,59.95203837,66fa4ebf79326e780c390304,,,,,,,,,,,,,,,,,,,,,810.218,810.218,810.218,811.234,1,1,right,0.484,,811.235,812.217,1,0,right,812.218,812.219,,0,,1,812.22,812.22,812.221,813.717,0,47,47,47,1,0.6,0.4,0.2,0.8,,,,,,,,,,,,,,,0.475,,0.8,0.2,0.8,0.2,0.2,0.8,0.8,0.2,1,0,,,,,,,,,,,,
,,65d8ec51e80934b810623d98,66fc97fab7cdfc8675481a9a,2024-10-01_17h49.47.730,mdp,2024.2.1,Win32,59.95203837,66fa4ebf79326e780c390304,,,,,,,,,,,,,,,,,,,,,813.718,813.718,813.719,814.684,1,1,right,0.444,,814.685,816.167,0,0,left,816.168,816.17,,1,,1,816.17,816.17,816.17,817.668,0,48,48,48,1,0.6,0.4,0.2,0.8,,,,,,,,,,,,,,,0.971,,0.8,0.2,0.8,0.2,0.2,0.8,0.8,0.2,1,0,,,,,,,,,,,,
,,65d8ec51e80934b810623d98,66fc97fab7cdfc8675481a9a,2024-10-01_17h49.47.730,mdp,2024.2.1,Win32,59.95203837,66fa4ebf79326e780c390304,,,,,,,,,,,,,,,,,,,,,817.668,817.668,817.669,818.751,1,1,right,0.554,,818.752,820.734,1,0,right,820.735,820.736,,0,,1,820.736,820.736,820.738,822.234,0,49,49,49,1,0.6,0.4,0.2,0.8,,,,,,,,,,,,,,,1.455,,0.8,0.2,0.8,0.2,0.2,0.8,0.8,0.2,1,0,,,,,,,,,,,,
,,65d8ec51e80934b810623d98,66fc97fab7cdfc8675481a9a,2024-10-01_17h49.47.730,mdp,2024.2.1,Win32,59.95203837,66fa4ebf79326e780c390304,,,,,,,,,,,,,,,,,,,,,,,,,,,,,,,,,,,,,,,,,,,,,,,,,,,,,,,,822.234,881.716,0,1,1,2,1,imgs/cat.png,imgs/giraffe.png,imgs/lion.png,imgs/rabbit.png,imgs/kangaroo.png,,,,,,,,,,,,,,,,,,,,,,,,
,,65d8ec51e80934b810623d98,66fc97fab7cdfc8675481a9a,2024-10-01_17h49.47.730,mdp,2024.2.1,Win32,59.95203837,66fa4ebf79326e780c390304,,,,,,,,,,,,,,3,seqs/st3seq1.csv,881.729,887.871,space,5.618,,887.886,887.886,887.888,889.338,0,1,left,0.916,,889.339,890.287,0,0,left,890.29,891.821,0,1,left,0,891.822,891.822,891.823,893.321,0,0,0,0,1,0.2,0.8,0.8,0.2,,,,,,,,,,,,,,,0.397,,0.2,0.8,0.8,0.2,0.6,0.4,0.2,0.8,,,1.002,,0.8,0.2,0.2,0.8,0.6,0.4,0.6,0.4,1,0
,,65d8ec51e80934b810623d98,66fc97fab7cdfc8675481a9a,2024-10-01_17h49.47.730,mdp,2024.2.1,Win32,59.95203837,66fa4ebf79326e780c390304,,,,,,,,,,,,,,,,,,,,,893.322,893.322,893.324,895.088,0,1,left,1.236,,895.09,897.371,0,0,left,897.373,898.422,1,1,right,0,898.422,898.422,898.423,899.922,0,1,1,1,1,0.2,0.8,0.8,0.2,,,,,,,,,,,,,,,1.75,,0.2,0.8,0.8,0.2,0.6,0.4,0.2,0.8,,,0.535,,0.8,0.2,0.2,0.8,0.6,0.4,0.6,0.4,1,0
,,65d8ec51e80934b810623d98,66fc97fab7cdfc8675481a9a,2024-10-01_17h49.47.730,mdp,2024.2.1,Win32,59.95203837,66fa4ebf79326e780c390304,,,,,,,,,,,,,,,,,,,,,899.922,899.922,899.924,901.305,1,0,right,0.853,,901.307,904.072,0,1,left,904.073,905.155,1,0,right,1,905.155,905.155,905.157,906.655,0,2,2,2,1,0.2,0.8,0.8,0.2,,,,,,,,,,,,,,,2.212,,0.2,0.8,0.8,0.2,0.6,0.4,0.2,0.8,,,0.534,,0.8,0.2,0.2,0.8,0.6,0.4,0.6,0.4,1,0
,,65d8ec51e80934b810623d98,66fc97fab7cdfc8675481a9a,2024-10-01_17h49.47.730,mdp,2024.2.1,Win32,59.95203837,66fa4ebf79326e780c390304,,,,,,,,,,,,,,,,,,,,,906.656,906.656,906.657,908.105,0,1,left,0.917,,908.106,908.988,1,1,right,908.99,909.872,0,0,left,1,909.872,909.872,909.874,911.372,0,3,3,3,1,0.2,0.8,0.8,0.2,,,,,,,,,,,,,,,0.347,,0.2,0.8,0.8,0.2,0.4,0.6,0.8,0.2,,,0.366,,0.8,0.2,0.2,0.8,0.6,0.4,0.6,0.4,1,0
,,65d8ec51e80934b810623d98,66fc97fab7cdfc8675481a9a,2024-10-01_17h49.47.730,mdp,2024.2.1,Win32,59.95203837,66fa4ebf79326e780c390304,,,,,,,,,,,,,,,,,,,,,911.373,911.373,911.374,912.239,1,0,right,0.34,,912.24,913.106,0,1,left,913.107,913.939,1,0,right,1,913.94,913.94,913.947,915.439,0,4,4,4,1,0.2,0.8,0.8,0.2,,,,,,,,,,,,,,,0.329,,0.2,0.8,0.8,0.2,0.4,0.6,0.8,0.2,,,0.293,,0.8,0.2,0.2,0.8,0.6,0.4,0.6,0.4,1,0
,,65d8ec51e80934b810623d98,66fc97fab7cdfc8675481a9a,2024-10-01_17h49.47.730,mdp,2024.2.1,Win32,59.95203837,66fa4ebf79326e780c390304,,,,,,,,,,,,,,,,,,,,,915.442,915.442,915.443,916.322,0,1,left,0.352,,916.324,917.122,1,0,right,917.123,918.039,0,1,left,0,918.039,918.039,918.041,919.539,0,5,5,5,1,0.6,0.4,0.4,0.6,,,,,,,,,,,,,,,0.275,,0.2,0.8,0.8,0.2,0.4,0.6,0.8,0.2,,,0.376,,0.8,0.2,0.2,0.8,0.6,0.4,0.6,0.4,1,0
,,65d8ec51e80934b810623d98,66fc97fab7cdfc8675481a9a,2024-10-01_17h49.47.730,mdp,2024.2.1,Win32,59.95203837,66fa4ebf79326e780c390304,,,,,,,,,,,,,,,,,,,,,919.54,919.54,919.541,920.423,1,0,right,0.351,,920.424,921.306,0,1,left,921.308,922.155,1,0,right,1,922.156,922.156,922.157,923.656,0,6,6,6,1,0.6,0.4,0.4,0.6,,,,,,,,,,,,,,,0.345,,0.2,0.8,0.8,0.2,0.4,0.6,0.8,0.2,,,0.305,,0.8,0.2,0.2,0.8,0.6,0.4,0.6,0.4,1,0
,,65d8ec51e80934b810623d98,66fc97fab7cdfc8675481a9a,2024-10-01_17h49.47.730,mdp,2024.2.1,Win32,59.95203837,66fa4ebf79326e780c390304,,,,,,,,,,,,,,,,,,,,,923.657,923.657,923.658,924.606,0,1,left,0.419,,924.608,925.456,1,1,right,925.457,926.256,0,0,left,1,926.257,926.257,926.258,927.756,0,7,7,7,1,0.6,0.4,0.4,0.6,,,,,,,,,,,,,,,0.306,,0.2,0.8,0.8,0.2,0.6,0.4,0.4,0.6,,,0.269,,0.8,0.2,0.2,0.8,0.6,0.4,0.6,0.4,1,0
,,65d8ec51e80934b810623d98,66fc97fab7cdfc8675481a9a,2024-10-01_17h49.47.730,mdp,2024.2.1,Win32,59.95203837,66fa4ebf79326e780c390304,,,,,,,,,,,,,,,,,,,,,927.757,927.757,927.757,928.573,1,1,right,0.284,,928.575,929.422,0,0,left,929.424,930.273,1,0,right,1,930.273,930.273,930.274,931.773,0,8,8,8,1,0.6,0.4,0.4,0.6,,,,,,,,,,,,,,,0.317,,0.2,0.8,0.8,0.2,0.6,0.4,0.4,0.6,,,0.318,,0.8,0.2,0.2,0.8,0.6,0.4,0.6,0.4,1,0
,,65d8ec51e80934b810623d98,66fc97fab7cdfc8675481a9a,2024-10-01_17h49.47.730,mdp,2024.2.1,Win32,59.95203837,66fa4ebf79326e780c390304,,,,,,,,,,,,,,,,,,,,,931.774,931.774,931.775,932.556,0,1,left,0.274,,932.557,933.473,1,1,right,933.474,934.339,0,0,left,1,934.339,934.34,934.341,935.84,0,9,9,9,1,0.6,0.4,0.4,0.6,,,,,,,,,,,,,,,0.408,,0.2,0.8,0.8,0.2,0.6,0.4,0.4,0.6,,,0.34,,0.8,0.2,0.2,0.8,0.6,0.4,0.6,0.4,1,0
,,65d8ec51e80934b810623d98,66fc97fab7cdfc8675481a9a,2024-10-01_17h49.47.730,mdp,2024.2.1,Win32,59.95203837,66fa4ebf79326e780c390304,,,,,,,,,,,,,,,,,,,,,935.84,935.84,935.842,937.223,1,1,right,0.851,,937.225,938.123,0,1,left,938.125,939.04,1,0,right,1,939.04,939.04,939.041,940.54,0,10,10,10,1,0.6,0.4,0.4,0.6,,,,,,,,,,,,,,,0.388,,0.2,0.8,0.8,0.2,0.6,0.4,0.4,0.6,,,0.4,,0.8,0.2,0.2,0.8,0.6,0.4,0.6,0.4,1,0
,,65d8ec51e80934b810623d98,66fc97fab7cdfc8675481a9a,2024-10-01_17h49.47.730,mdp,2024.2.1,Win32,59.95203837,66fa4ebf79326e780c390304,,,,,,,,,,,,,,,,,,,,,940.541,940.541,940.542,941.156,0,0,left,0.09,,941.158,942.106,1,0,right,942.108,943.007,0,0,left,1,943.007,943.007,943.009,944.507,0,11,11,11,1,0.6,0.4,0.4,0.6,,,,,,,,,,,,,,,0.427,,0.2,0.8,0.8,0.2,0.8,0.2,0.2,0.8,,,0.37,,0.8,0.2,0.2,0.8,0.6,0.4,0.6,0.4,1,0
,,65d8ec51e80934b810623d98,66fc97fab7cdfc8675481a9a,2024-10-01_17h49.47.730,mdp,2024.2.1,Win32,59.95203837,66fa4ebf79326e780c390304,,,,,,,,,,,,,,,,,,,,,944.508,944.508,944.509,945.424,1,0,right,0.383,,945.425,946.374,0,1,left,946.375,947.273,1,0,right,1,947.274,947.274,947.275,948.774,0,12,12,12,1,0.4,0.6,0.6,0.4,,,,,,,,,,,,,,,0.417,,0.2,0.8,0.8,0.2,0.8,0.2,0.2,0.8,,,0.378,,0.8,0.2,0.2,0.8,0.6,0.4,0.6,0.4,1,0
,,65d8ec51e80934b810623d98,66fc97fab7cdfc8675481a9a,2024-10-01_17h49.47.730,mdp,2024.2.1,Win32,59.95203837,66fa4ebf79326e780c390304,,,,,,,,,,,,,,,,,,,,,948.779,948.779,948.784,949.757,0,1,left,0.451,,949.759,950.874,1,0,right,950.876,951.74,0,1,left,0,951.74,951.74,951.742,953.241,0,13,13,13,1,0.4,0.6,0.6,0.4,,,,,,,,,,,,,,,0.568,,0.2,0.8,0.8,0.2,0.8,0.2,0.2,0.8,,,0.337,,0.2,0.8,0.4,0.6,0.6,0.4,0.6,0.4,1,0
,,65d8ec51e80934b810623d98,66fc97fab7cdfc8675481a9a,2024-10-01_17h49.47.730,mdp,2024.2.1,Win32,59.95203837,66fa4ebf79326e780c390304,,,,,,,,,,,,,,,,,,,,,953.242,953.242,953.243,954.407,1,0,right,0.633,,954.409,955.274,0,0,left,955.276,956.274,1,1,right,0,956.275,956.276,956.277,957.774,0,14,14,14,1,0.4,0.6,0.6,0.4,,,,,,,,,,,,,,,0.322,,0.2,0.8,0.8,0.2,0.8,0.2,0.2,0.8,,,0.483,,0.2,0.8,0.4,0.6,0.6,0.4,0.6,0.4,1,0
,,65d8ec51e80934b810623d98,66fc97fab7cdfc8675481a9a,2024-10-01_17h49.47.730,mdp,2024.2.1,Win32,59.95203837,66fa4ebf79326e780c390304,,,,,,,,,,,,,,,,,,,,,957.775,957.775,957.777,958.958,0,0,left,0.653,,958.96,959.941,1,1,right,959.943,960.874,0,0,left,1,960.874,960.874,960.876,962.374,0,15,15,15,1,0.4,0.6,0.6,0.4,,,,,,,,,,,,,,,0.449,,0.2,0.8,0.8,0.2,0.8,0.2,0.2,0.8,,,0.394,,0.2,0.8,0.4,0.6,0.6,0.4,0.6,0.4,1,0
,,65d8ec51e80934b810623d98,66fc97fab7cdfc8675481a9a,2024-10-01_17h49.47.730,mdp,2024.2.1,Win32,59.95203837,66fa4ebf79326e780c390304,,,,,,,,,,,,,,,,,,,,,962.375,962.375,962.376,963.24,1,1,right,0.342,,963.242,964.041,0,0,left,964.042,964.874,1,0,right,1,964.875,964.875,964.876,966.374,0,16,16,16,1,0.4,0.6,0.6,0.4,,,,,,,,,,,,,,,0.271,,0.2,0.8,0.8,0.2,0.8,0.2,0.2,0.8,,,0.303,,0.2,0.8,0.4,0.6,0.6,0.4,0.6,0.4,1,0
,,65d8ec51e80934b810623d98,66fc97fab7cdfc8675481a9a,2024-10-01_17h49.47.730,mdp,2024.2.1,Win32,59.95203837,66fa4ebf79326e780c390304,,,,,,,,,,,,,,,,,,,,,966.375,966.375,966.377,966.942,0,1,left,0.043,,966.943,967.775,1,1,right,967.776,968.641,0,0,left,1,968.641,968.641,968.643,970.141,0,17,17,17,1,0.4,0.6,0.6,0.4,,,,,,,,,,,,,,,0.309,,0.2,0.8,0.8,0.2,0.8,0.2,0.2,0.8,,,0.318,,0.6,0.4,0.6,0.4,0.6,0.4,0.6,0.4,1,0
,,65d8ec51e80934b810623d98,66fc97fab7cdfc8675481a9a,2024-10-01_17h49.47.730,mdp,2024.2.1,Win32,59.95203837,66fa4ebf79326e780c390304,,,,,,,,,,,,,,,,,,,,,970.143,970.143,970.145,970.742,1,0,right,0.074,,970.743,971.625,0,1,left,971.626,972.425,1,1,right,0,972.425,972.425,972.426,973.925,0,18,18,18,1,0.4,0.6,0.6,0.4,,,,,,,,,,,,,,,0.339,,0.2,0.8,0.8,0.2,0.8,0.2,0.2,0.8,,,0.267,,0.6,0.4,0.6,0.4,0.6,0.4,0.6,0.4,1,0
,,65d8ec51e80934b810623d98,66fc97fab7cdfc8675481a9a,2024-10-01_17h49.47.730,mdp,2024.2.1,Win32,59.95203837,66fa4ebf79326e780c390304,,,,,,,,,,,,,,,,,,,,,973.926,973.926,973.928,974.675,0,1,left,0.218,,974.676,975.575,1,1,right,975.576,976.425,0,1,left,0,976.425,976.425,976.426,977.926,0,19,19,19,1,0.4,0.6,0.6,0.4,,,,,,,,,,,,,,,0.371,,0.2,0.8,0.8,0.2,0.8,0.2,0.2,0.8,,,0.333,,0.6,0.4,0.6,0.4,0.6,0.4,0.6,0.4,1,0
,,65d8ec51e80934b810623d98,66fc97fab7cdfc8675481a9a,2024-10-01_17h49.47.730,mdp,2024.2.1,Win32,59.95203837,66fa4ebf79326e780c390304,,,,,,,,,,,,,,,,,,,,,977.931,977.931,977.936,979.093,1,0,right,0.635,,979.095,979.992,0,1,left,979.993,980.825,1,0,right,1,980.826,980.826,980.827,982.325,0,20,20,20,1,0.4,0.6,0.6,0.4,,,,,,,,,,,,,,,0.355,,0.2,0.8,0.8,0.2,0.8,0.2,0.2,0.8,,,0.3,,0.6,0.4,0.6,0.4,0.6,0.4,0.6,0.4,1,0
,,65d8ec51e80934b810623d98,66fc97fab7cdfc8675481a9a,2024-10-01_17h49.47.730,mdp,2024.2.1,Win32,59.95203837,66fa4ebf79326e780c390304,,,,,,,,,,,,,,,,,,,,,982.327,982.327,982.329,983.009,0,1,left,0.152,,983.01,983.859,1,1,right,983.861,984.659,0,1,left,0,984.659,984.66,984.661,986.159,0,21,21,21,1,0.4,0.6,0.6,0.4,,,,,,,,,,,,,,,0.304,,0.2,0.8,0.8,0.2,0.8,0.2,0.2,0.8,,,0.288,,0.6,0.4,0.6,0.4,0.6,0.4,0.6,0.4,1,0
,,65d8ec51e80934b810623d98,66fc97fab7cdfc8675481a9a,2024-10-01_17h49.47.730,mdp,2024.2.1,Win32,59.95203837,66fa4ebf79326e780c390304,,,,,,,,,,,,,,,,,,,,,986.159,986.159,986.161,987.358,0,0,left,0.668,,987.362,988.158,0,0,left,988.161,988.959,0,0,left,1,988.959,988.959,988.96,990.459,0,22,22,22,1,0.4,0.6,0.6,0.4,,,,,,,,,,,,,,,0.27,,0.2,0.8,0.8,0.2,0.8,0.2,0.2,0.8,,,0.273,,0.2,0.8,0.2,0.8,0.6,0.4,0.6,0.4,1,0
,,65d8ec51e80934b810623d98,66fc97fab7cdfc8675481a9a,2024-10-01_17h49.47.730,mdp,2024.2.1,Win32,59.95203837,66fa4ebf79326e780c390304,,,,,,,,,,,,,,,,,,,,,990.461,990.461,990.462,991.343,1,0,right,0.352,,991.345,992.092,1,1,right,992.094,992.876,1,1,right,0,992.876,992.876,992.878,994.375,0,23,23,23,1,0.4,0.6,0.6,0.4,,,,,,,,,,,,,,,0.217,,0.4,0.6,0.4,0.6,0.8,0.2,0.2,0.8,,,0.26,,0.2,0.8,0.2,0.8,0.6,0.4,0.6,0.4,1,0
,,65d8ec51e80934b810623d98,66fc97fab7cdfc8675481a9a,2024-10-01_17h49.47.730,mdp,2024.2.1,Win32,59.95203837,66fa4ebf79326e780c390304,,,,,,,,,,,,,,,,,,,,,994.376,994.376,994.377,995.21,0,1,left,0.303,,995.211,995.943,0,0,left,995.944,996.742,0,1,left,0,996.743,996.743,996.744,998.242,0,24,24,24,1,0.4,0.6,0.6,0.4,,,,,,,,,,,,,,,0.194,,0.4,0.6,0.4,0.6,0.8,0.2,0.2,0.8,,,0.259,,0.2,0.8,0.2,0.8,0.6,0.4,0.6,0.4,1,0
,,65d8ec51e80934b810623d98,66fc97fab7cdfc8675481a9a,2024-10-01_17h49.47.730,mdp,2024.2.1,Win32,59.95203837,66fa4ebf79326e780c390304,,,,,,,,,,,,,,,,,,,,,998.244,998.244,998.245,999.226,1,0,right,0.452,,999.227,1000.076,0,1,left,1000.077,1000.927,1,1,right,0,1000.927,1000.927,1000.928,1002.426,0,25,25,25,1,0.4,0.6,0.6,0.4,,,,,,,,,,,,,,,0.327,,0.4,0.6,0.4,0.6,0.8,0.2,0.2,0.8,,,0.319,,0.2,0.8,0.2,0.8,0.6,0.4,0.6,0.4,1,0
,,65d8ec51e80934b810623d98,66fc97fab7cdfc8675481a9a,2024-10-01_17h49.47.730,mdp,2024.2.1,Win32,59.95203837,66fa4ebf79326e780c390304,,,,,,,,,,,,,,,,,,,,,1002.428,1002.428,1002.429,1132.516,0,0,left,129.564,,1132.523,1133.566,1,1,right,1133.567,1134.216,1,1,right,0,1134.216,1134.216,1134.217,1135.716,0,26,26,26,1,0.4,0.6,0.6,0.4,,,,,,,,,,,,,,,0.517,,0.4,0.6,0.4,0.6,0.8,0.2,0.2,0.8,,,0.142,,0.2,0.8,0.2,0.8,0.6,0.4,0.6,0.4,1,0
,,65d8ec51e80934b810623d98,66fc97fab7cdfc8675481a9a,2024-10-01_17h49.47.730,mdp,2024.2.1,Win32,59.95203837,66fa4ebf79326e780c390304,,,,,,,,,,,,,,,,,,,,,1135.717,1135.717,1135.718,1136.699,0,1,left,0.457,,1136.701,1137.683,0,0,left,1137.684,1138.499,0,0,left,1,1138.5,1138.5,1138.501,1139.999,0,27,27,27,1,0.4,0.6,0.6,0.4,,,,,,,,,,,,,,,0.444,,0.4,0.6,0.4,0.6,0.8,0.2,0.2,0.8,,,0.283,,0.2,0.8,0.2,0.8,0.6,0.4,0.6,0.4,1,0
,,65d8ec51e80934b810623d98,66fc97fab7cdfc8675481a9a,2024-10-01_17h49.47.730,mdp,2024.2.1,Win32,59.95203837,66fa4ebf79326e780c390304,,,,,,,,,,,,,,,,,,,,,1139.999,1139.999,1140.002,1141.3,0,0,left,0.767,,1141.301,1142.033,1,1,right,1142.034,1142.733,0,0,left,1,1142.733,1142.733,1142.734,1144.233,0,28,28,28,1,0.4,0.6,0.6,0.4,,,,,,,,,,,,,,,0.182,,0.4,0.6,0.4,0.6,0.8,0.2,0.2,0.8,,,0.172,,0.2,0.8,0.2,0.8,0.6,0.4,0.6,0.4,1,0
,,65d8ec51e80934b810623d98,66fc97fab7cdfc8675481a9a,2024-10-01_17h49.47.730,mdp,2024.2.1,Win32,59.95203837,66fa4ebf79326e780c390304,,,,,,,,,,,,,,,,,,,,,1144.233,1144.233,1144.234,1145.117,0,1,left,0.367,,1145.118,1145.9,1,1,right,1145.901,1146.783,0,1,left,0,1146.783,1146.783,1146.784,1148.283,0,29,29,29,1,0.4,0.6,0.6,0.4,,,,,,,,,,,,,,,0.246,,0.4,0.6,0.4,0.6,0.8,0.2,0.2,0.8,,,0.357,,0.8,0.2,0.6,0.4,0.6,0.4,0.6,0.4,1,0
,,65d8ec51e80934b810623d98,66fc97fab7cdfc8675481a9a,2024-10-01_17h49.47.730,mdp,2024.2.1,Win32,59.95203837,66fa4ebf79326e780c390304,,,,,,,,,,,,,,,,,,,,,1148.284,1148.284,1148.285,1149.5,0,0,left,0.683,,1149.501,1150.416,1,1,right,1150.417,1151.067,1,0,right,1,1151.067,1151.067,1151.068,1152.567,0,30,30,30,1,0.4,0.6,0.6,0.4,,,,,,,,,,,,,,,0.388,,0.4,0.6,0.4,0.6,0.8,0.2,0.2,0.8,,,0.136,,0.8,0.2,0.6,0.4,0.6,0.4,0.6,0.4,1,0
,,65d8ec51e80934b810623d98,66fc97fab7cdfc8675481a9a,2024-10-01_17h49.47.730,mdp,2024.2.1,Win32,59.95203837,66fa4ebf79326e780c390304,,,,,,,,,,,,,,,,,,,,,1152.568,1152.568,1152.569,1153.534,1,1,right,0.432,,1153.534,1154.534,1,1,right,1154.535,1155.467,0,0,left,1,1155.467,1155.467,1155.468,1156.967,0,31,31,31,1,0.4,0.6,0.6,0.4,,,,,,,,,,,,,,,0.461,,0.4,0.6,0.4,0.6,0.8,0.2,0.2,0.8,,,0.401,,0.8,0.2,0.6,0.4,0.2,0.8,0.8,0.2,1,0
,,65d8ec51e80934b810623d98,66fc97fab7cdfc8675481a9a,2024-10-01_17h49.47.730,mdp,2024.2.1,Win32,59.95203837,66fa4ebf79326e780c390304,,,,,,,,,,,,,,,,,,,,,1156.967,1156.967,1156.968,1157.917,1,0,right,0.434,,1157.918,1159.083,1,0,right,1159.084,1159.967,0,0,left,1,1159.967,1159.967,1159.969,1161.468,0,32,32,32,1,0.4,0.6,0.6,0.4,,,,,,,,,,,,,,,0.631,,0.4,0.6,0.4,0.6,0.8,0.2,0.2,0.8,,,0.363,,0.8,0.2,0.6,0.4,0.2,0.8,0.8,0.2,1,0
,,65d8ec51e80934b810623d98,66fc97fab7cdfc8675481a9a,2024-10-01_17h49.47.730,mdp,2024.2.1,Win32,59.95203837,66fa4ebf79326e780c390304,,,,,,,,,,,,,,,,,,,,,1161.472,1161.472,1161.475,1162.219,1,0,right,0.214,,1162.22,1163.083,1,1,right,1163.085,1163.8,0,1,left,0,1163.8,1163.8,1163.802,1165.301,0,33,33,33,1,0.4,0.6,0.6,0.4,,,,,,,,,,,,,,,0.335,,0.4,0.6,0.4,0.6,0.8,0.2,0.2,0.8,,,0.188,,0.8,0.2,0.6,0.4,0.2,0.8,0.8,0.2,1,0
,,65d8ec51e80934b810623d98,66fc97fab7cdfc8675481a9a,2024-10-01_17h49.47.730,mdp,2024.2.1,Win32,59.95203837,66fa4ebf79326e780c390304,,,,,,,,,,,,,,,,,,,,,1165.302,1165.302,1165.302,1166.318,1,1,right,0.483,,1166.319,1167.367,0,0,left,1167.369,1169.134,0,1,left,0,1169.134,1169.134,1169.135,1170.634,0,34,34,34,1,0.4,0.6,0.6,0.4,,,,,,,,,,,,,,,0.517,,0.4,0.6,0.4,0.6,0.8,0.2,0.2,0.8,,,1.25,,0.8,0.2,0.6,0.4,0.2,0.8,0.8,0.2,1,0
,,65d8ec51e80934b810623d98,66fc97fab7cdfc8675481a9a,2024-10-01_17h49.47.730,mdp,2024.2.1,Win32,59.95203837,66fa4ebf79326e780c390304,,,,,,,,,,,,,,,,,,,,,1170.635,1170.635,1170.637,1171.834,1,1,right,0.666,,1171.836,1172.735,0,0,left,1172.736,1173.717,1,0,right,1,1173.717,1173.717,1173.72,1175.218,0,35,35,35,1,0.2,0.8,0.2,0.8,,,,,,,,,,,,,,,0.389,,0.4,0.6,0.4,0.6,0.8,0.2,0.2,0.8,,,0.456,,0.8,0.2,0.6,0.4,0.2,0.8,0.8,0.2,1,0
,,65d8ec51e80934b810623d98,66fc97fab7cdfc8675481a9a,2024-10-01_17h49.47.730,mdp,2024.2.1,Win32,59.95203837,66fa4ebf79326e780c390304,,,,,,,,,,,,,,,,,,,,,1175.218,1175.218,1175.219,1176.217,1,1,right,0.472,,1176.219,1177.101,0,0,left,1177.102,1177.951,1,0,right,1,1177.951,1177.952,1177.952,1179.452,0,36,36,36,1,0.2,0.8,0.2,0.8,,,,,,,,,,,,,,,0.368,,0.4,0.6,0.4,0.6,0.8,0.2,0.2,0.8,,,0.336,,0.4,0.6,0.2,0.8,0.2,0.8,0.8,0.2,1,0
,,65d8ec51e80934b810623d98,66fc97fab7cdfc8675481a9a,2024-10-01_17h49.47.730,mdp,2024.2.1,Win32,59.95203837,66fa4ebf79326e780c390304,,,,,,,,,,,,,,,,,,,,,1179.452,1179.452,1179.453,1180.585,1,1,right,0.601,,1180.586,1181.484,1,0,right,1181.486,1182.585,1,1,right,0,1182.585,1182.585,1182.586,1184.085,0,37,37,37,1,0.6,0.4,0.4,0.6,,,,,,,,,,,,,,,0.392,,0.4,0.6,0.4,0.6,0.8,0.2,0.2,0.8,,,0.591,,0.4,0.6,0.2,0.8,0.2,0.8,0.8,0.2,1,0
,,65d8ec51e80934b810623d98,66fc97fab7cdfc8675481a9a,2024-10-01_17h49.47.730,mdp,2024.2.1,Win32,59.95203837,66fa4ebf79326e780c390304,,,,,,,,,,,,,,,,,,,,,1184.086,1184.086,1184.087,1184.884,1,0,right,0.272,,1184.887,1185.702,1,1,right,1185.703,1187.451,1,0,right,1,1187.451,1187.451,1187.453,1188.951,0,38,38,38,1,0.6,0.4,0.4,0.6,,,,,,,,,,,,,,,0.276,,0.4,0.6,0.4,0.6,0.8,0.2,0.2,0.8,,,1.225,,0.4,0.6,0.2,0.8,0.2,0.8,0.8,0.2,1,0
,,65d8ec51e80934b810623d98,66fc97fab7cdfc8675481a9a,2024-10-01_17h49.47.730,mdp,2024.2.1,Win32,59.95203837,66fa4ebf79326e780c390304,,,,,,,,,,,,,,,,,,,,,1188.952,1188.952,1188.953,1189.802,1,0,right,0.318,,1189.803,1191.118,1,0,right,1191.12,1192.735,1,1,right,0,1192.735,1192.735,1192.736,1194.235,0,39,39,39,1,0.6,0.4,0.4,0.6,,,,,,,,,,,,,,,0.801,,0.4,0.6,0.4,0.6,0.8,0.2,0.2,0.8,,,1.092,,0.4,0.6,0.2,0.8,0.2,0.8,0.8,0.2,1,0
,,65d8ec51e80934b810623d98,66fc97fab7cdfc8675481a9a,2024-10-01_17h49.47.730,mdp,2024.2.1,Win32,59.95203837,66fa4ebf79326e780c390304,,,,,,,,,,,,,,,,,,,,,1194.236,1194.236,1194.237,1195.67,1,1,right,0.9,,1195.676,1197.119,0,1,left,1197.121,1199.686,0,1,left,0,1199.686,1199.686,1199.687,1201.185,0,40,40,40,1,0.6,0.4,0.4,0.6,,,,,,,,,,,,,,,0.912,,0.4,0.6,0.4,0.6,0.4,0.6,0.6,0.4,,,2.025,,0.4,0.6,0.2,0.8,0.2,0.8,0.8,0.2,1,0
,,65d8ec51e80934b810623d98,66fc97fab7cdfc8675481a9a,2024-10-01_17h49.47.730,mdp,2024.2.1,Win32,59.95203837,66fa4ebf79326e780c390304,,,,,,,,,,,,,,,,,,,,,1201.187,1201.187,1201.188,1204.319,0,1,left,2.608,,1204.321,1205.286,1,1,right,1205.287,1206.886,0,0,left,1,1206.886,1206.886,1206.887,1208.386,0,41,41,41,1,0.6,0.4,0.4,0.6,,,,,,,,,,,,,,,0.457,,0.4,0.6,0.4,0.6,0.4,0.6,0.6,0.4,,,1.088,,0.4,0.6,0.2,0.8,0.6,0.4,0.6,0.4,1,0
,,65d8ec51e80934b810623d98,66fc97fab7cdfc8675481a9a,2024-10-01_17h49.47.730,mdp,2024.2.1,Win32,59.95203837,66fa4ebf79326e780c390304,,,,,,,,,,,,,,,,,,,,,1208.387,1208.387,1208.388,1209.887,0,1,left,0.967,,1209.888,1210.67,1,0,right,1210.671,1212.603,1,1,right,0,1212.603,1212.603,1212.604,1214.103,0,42,42,42,1,0.6,0.4,0.4,0.6,,,,,,,,,,,,,,,0.253,,0.4,0.6,0.4,0.6,0.4,0.6,0.6,0.4,,,1.399,,0.4,0.6,0.2,0.8,0.6,0.4,0.6,0.4,1,0
,,65d8ec51e80934b810623d98,66fc97fab7cdfc8675481a9a,2024-10-01_17h49.47.730,mdp,2024.2.1,Win32,59.95203837,66fa4ebf79326e780c390304,,,,,,,,,,,,,,,,,,,,,1214.103,1214.103,1214.104,1438.048,0,0,left,223.413,,1438.055,1438.964,0,1,left,1438.966,1439.847,1,0,right,1,1439.847,1439.847,1439.848,1441.347,0,43,43,43,1,0.6,0.4,0.4,0.6,,,,,,,,,,,,,,,0.369,,0.4,0.6,0.4,0.6,0.4,0.6,0.6,0.4,,,0.353,,0.4,0.6,0.2,0.8,0.2,0.8,0.8,0.2,1,0
,,65d8ec51e80934b810623d98,66fc97fab7cdfc8675481a9a,2024-10-01_17h49.47.730,mdp,2024.2.1,Win32,59.95203837,66fa4ebf79326e780c390304,,,,,,,,,,,,,,,,,,,,,1441.348,1441.348,1441.349,1442.297,0,0,left,0.42,,1442.298,1443.247,0,0,left,1443.248,1444.397,1,1,right,0,1444.398,1444.398,1444.399,1445.897,0,44,44,44,1,0.6,0.4,0.4,0.6,,,,,,,,,,,,,,,0.417,,0.4,0.6,0.4,0.6,0.4,0.6,0.6,0.4,,,0.618,,0.4,0.6,0.2,0.8,0.2,0.8,0.8,0.2,1,0
,,65d8ec51e80934b810623d98,66fc97fab7cdfc8675481a9a,2024-10-01_17h49.47.730,mdp,2024.2.1,Win32,59.95203837,66fa4ebf79326e780c390304,,,,,,,,,,,,,,,,,,,,,1445.898,1445.898,1445.899,1446.864,0,0,left,0.434,,1446.865,1447.798,0,0,left,1447.799,1448.814,0,0,left,1,1448.814,1448.815,1448.816,1450.314,0,45,45,45,1,0.6,0.4,0.4,0.6,,,,,,,,,,,,,,,0.417,,0.4,0.6,0.4,0.6,0.4,0.6,0.6,0.4,,,0.5,,0.4,0.6,0.2,0.8,0.2,0.8,0.8,0.2,1,0
,,65d8ec51e80934b810623d98,66fc97fab7cdfc8675481a9a,2024-10-01_17h49.47.730,mdp,2024.2.1,Win32,59.95203837,66fa4ebf79326e780c390304,,,,,,,,,,,,,,,,,,,,,1450.315,1450.315,1450.316,1451.231,0,0,left,0.389,,1451.232,1451.997,1,1,right,1451.999,1452.881,0,1,left,0,1452.881,1452.881,1452.882,1454.381,0,46,46,46,1,0.6,0.4,0.4,0.6,,,,,,,,,,,,,,,0.25,,0.4,0.6,0.4,0.6,0.4,0.6,0.6,0.4,,,0.36,,0.4,0.6,0.2,0.8,0.2,0.8,0.8,0.2,1,0
,,65d8ec51e80934b810623d98,66fc97fab7cdfc8675481a9a,2024-10-01_17h49.47.730,mdp,2024.2.1,Win32,59.95203837,66fa4ebf79326e780c390304,,,,,,,,,,,,,,,,,,,,,1454.381,1454.381,1454.383,1455.414,0,1,left,0.501,,1455.415,1456.231,1,1,right,1456.232,1457.248,1,0,right,1,1457.248,1457.248,1457.249,1458.747,0,47,47,47,1,0.6,0.4,0.4,0.6,,,,,,,,,,,,,,,0.287,,0.4,0.6,0.4,0.6,0.4,0.6,0.6,0.4,,,0.501,,0.4,0.6,0.2,0.8,0.2,0.8,0.8,0.2,1,0
,,65d8ec51e80934b810623d98,66fc97fab7cdfc8675481a9a,2024-10-01_17h49.47.730,mdp,2024.2.1,Win32,59.95203837,66fa4ebf79326e780c390304,,,,,,,,,,,,,,,,,,,,,1458.748,1458.748,1458.749,1459.864,1,0,right,0.601,,1459.865,1460.548,0,1,left,1460.549,1461.381,1,0,right,1,1461.381,1461.381,1461.383,1462.881,0,48,48,48,1,0.6,0.4,0.4,0.6,,,,,,,,,,,,,,,0.16,,0.4,0.6,0.4,0.6,0.4,0.6,0.6,0.4,,,0.324,,0.4,0.6,0.2,0.8,0.2,0.8,0.8,0.2,1,0
,,65d8ec51e80934b810623d98,66fc97fab7cdfc8675481a9a,2024-10-01_17h49.47.730,mdp,2024.2.1,Win32,59.95203837,66fa4ebf79326e780c390304,,,,,,,,,,,,,,,,,,,,,1462.882,1462.882,1462.883,1463.815,1,0,right,0.4,,1463.816,1464.432,0,0,left,1464.433,1465.315,0,1,left,0,1465.315,1465.315,1465.316,1466.815,0,49,49,49,1,0.6,0.4,0.4,0.6,,,,,,,,,,,,,,,0.084,,0.4,0.6,0.4,0.6,0.4,0.6,0.6,0.4,,,0.343,,0.4,0.6,0.2,0.8,0.2,0.8,0.8,0.2,1,0
,,65d8ec51e80934b810623d98,66fc97fab7cdfc8675481a9a,2024-10-01_17h49.47.730,mdp,2024.2.1,Win32,59.95203837,66fa4ebf79326e780c390304,,,,,,,,,,,,,,,,,,,,,,,,,,,,,,,,,,,,,,,,,,,,,,,,,,,,,,,,1466.815,1525.318,0,2,2,8,1,imgs/goat.png,imgs/bear.png,imgs/pig.png,imgs/dog.png,imgs/cat.png,,,,,,,,,,,,,,,,,,,,,,,,
,,65d8ec51e80934b810623d98,66fc97fab7cdfc8675481a9a,2024-10-01_17h49.47.730,mdp,2024.2.1,Win32,59.95203837,66fa4ebf79326e780c390304,,,,,,,,,,,,,,3,seqs/st3seq41.csv,1525.321,1527.484,space,1.634,,1527.496,1527.496,1527.499,1530.168,0,1,left,2.152,,1530.169,1531.402,0,0,left,1531.403,1532.368,0,1,left,0,1532.368,1532.368,1532.37,1533.868,0,0,0,0,1,0.2,0.8,0.6,0.4,,,,,,,,,,,,,,,0.686,,0.6,0.4,0.2,0.8,0.8,0.2,0.4,0.6,,,0.433,,0.4,0.6,0.8,0.2,0.4,0.6,0.8,0.2,1,0
,,65d8ec51e80934b810623d98,66fc97fab7cdfc8675481a9a,2024-10-01_17h49.47.730,mdp,2024.2.1,Win32,59.95203837,66fa4ebf79326e780c390304,,,,,,,,,,,,,,,,,,,,,1533.869,1533.869,1533.87,1674.093,0,1,left,139.695,,1674.099,1675.241,1,1,right,1675.243,1676.291,0,1,left,0,1676.291,1676.291,1676.293,1677.791,0,1,1,1,1,0.2,0.8,0.6,0.4,,,,,,,,,,,,,,,0.617,,0.6,0.4,0.2,0.8,0.8,0.2,0.4,0.6,,,0.501,,0.4,0.6,0.8,0.2,0.4,0.6,0.8,0.2,1,0
,,65d8ec51e80934b810623d98,66fc97fab7cdfc8675481a9a,2024-10-01_17h49.47.730,mdp,2024.2.1,Win32,59.95203837,66fa4ebf79326e780c390304,,,,,,,,,,,,,,,,,,,,,1677.792,1677.792,1677.795,1678.709,1,0,right,0.385,,1678.71,1679.558,1,1,right,1679.56,1680.525,0,1,left,0,1680.525,1680.525,1680.526,1682.026,0,2,2,2,1,0.2,0.8,0.6,0.4,,,,,,,,,,,,,,,0.306,,0.6,0.4,0.2,0.8,0.8,0.2,0.4,0.6,,,0.456,,0.4,0.6,0.8,0.2,0.4,0.6,0.8,0.2,1,0
,,65d8ec51e80934b810623d98,66fc97fab7cdfc8675481a9a,2024-10-01_17h49.47.730,mdp,2024.2.1,Win32,59.95203837,66fa4ebf79326e780c390304,,,,,,,,,,,,,,,,,,,,,1682.026,1682.027,1682.027,1682.875,0,1,left,0.326,,1682.876,1683.642,0,0,left,1683.643,1684.358,1,0,right,1,1684.358,1684.358,1684.36,1685.859,0,3,3,3,1,0.2,0.8,0.6,0.4,,,,,,,,,,,,,,,0.242,,0.6,0.4,0.2,0.8,0.8,0.2,0.4,0.6,,,0.177,,0.4,0.6,0.8,0.2,0.4,0.6,0.8,0.2,1,0
,,65d8ec51e80934b810623d98,66fc97fab7cdfc8675481a9a,2024-10-01_17h49.47.730,mdp,2024.2.1,Win32,59.95203837,66fa4ebf79326e780c390304,,,,,,,,,,,,,,,,,,,,,1685.86,1685.86,1685.861,1686.675,0,1,left,0.284,,1686.676,1687.342,1,1,right,1687.343,1687.959,0,0,left,1,1687.959,1687.959,1687.96,1689.458,0,4,4,4,1,0.2,0.8,0.6,0.4,,,,,,,,,,,,,,,0.152,,0.6,0.4,0.2,0.8,0.8,0.2,0.4,0.6,,,0.088,,0.4,0.6,0.8,0.2,0.2,0.8,0.2,0.8,1,0
,,65d8ec51e80934b810623d98,66fc97fab7cdfc8675481a9a,2024-10-01_17h49.47.730,mdp,2024.2.1,Win32,59.95203837,66fa4ebf79326e780c390304,,,,,,,,,,,,,,,,,,,,,1689.459,1689.459,1689.46,1690.325,1,0,right,0.341,,1690.326,1690.975,1,1,right,1690.977,1691.608,1,0,right,1,1691.608,1691.608,1691.61,1693.109,0,5,5,5,1,0.2,0.8,0.6,0.4,,,,,,,,,,,,,,,0.127,,0.6,0.4,0.2,0.8,0.8,0.2,0.4,0.6,,,0.125,,0.4,0.6,0.8,0.2,0.2,0.8,0.2,0.8,1,0
,,65d8ec51e80934b810623d98,66fc97fab7cdfc8675481a9a,2024-10-01_17h49.47.730,mdp,2024.2.1,Win32,59.95203837,66fa4ebf79326e780c390304,,,,,,,,,,,,,,,,,,,,,1693.109,1693.109,1693.11,1693.726,0,1,left,0.105,,1693.727,1694.309,1,1,right,1694.31,1694.942,0,1,left,0,1694.943,1694.943,1694.944,1696.442,0,6,6,6,1,0.2,0.8,0.6,0.4,,,,,,,,,,,,,,,0.043,,0.2,0.8,0.8,0.2,0.8,0.2,0.4,0.6,,,0.118,,0.4,0.6,0.8,0.2,0.2,0.8,0.2,0.8,1,0
,,65d8ec51e80934b810623d98,66fc97fab7cdfc8675481a9a,2024-10-01_17h49.47.730,mdp,2024.2.1,Win32,59.95203837,66fa4ebf79326e780c390304,,,,,,,,,,,,,,,,,,,,,1696.443,1696.443,1696.444,1696.976,1,1,right,0.001,,1696.977,1697.926,1,0,right,1697.926,1698.792,0,1,left,0,1698.792,1698.792,1698.793,1700.292,0,7,7,7,1,0.2,0.8,0.6,0.4,,,,,,,,,,,,,,,0.434,,0.2,0.8,0.8,0.2,0.8,0.2,0.4,0.6,,,0.351,,0.4,0.6,0.8,0.2,0.2,0.8,0.2,0.8,1,0
,,65d8ec51e80934b810623d98,66fc97fab7cdfc8675481a9a,2024-10-01_17h49.47.730,mdp,2024.2.1,Win32,59.95203837,66fa4ebf79326e780c390304,,,,,,,,,,,,,,,,,,,,,1700.293,1700.293,1700.295,1701.26,1,0,right,0.436,,1701.26,1702.243,0,1,left,1702.244,1703.06,1,0,right,1,1703.06,1703.06,1703.061,1704.56,0,8,8,8,1,0.2,0.8,0.6,0.4,,,,,,,,,,,,,,,0.442,,0.2,0.8,0.8,0.2,0.8,0.2,0.4,0.6,,,0.3,,0.4,0.6,0.8,0.2,0.2,0.8,0.2,0.8,1,0
,,65d8ec51e80934b810623d98,66fc97fab7cdfc8675481a9a,2024-10-01_17h49.47.730,mdp,2024.2.1,Win32,59.95203837,66fa4ebf79326e780c390304,,,,,,,,,,,,,,,,,,,,,1704.564,1704.564,1704.567,1705.36,0,1,left,0.272,,1705.362,1706.077,0,0,left,1706.077,1706.743,0,1,left,0,1706.743,1706.743,1706.744,1708.243,0,9,9,9,1,0.2,0.8,0.6,0.4,,,,,,,,,,,,,,,0.182,,0.2,0.8,0.8,0.2,0.8,0.2,0.4,0.6,,,0.135,,0.4,0.6,0.8,0.2,0.2,0.8,0.2,0.8,1,0
,,65d8ec51e80934b810623d98,66fc97fab7cdfc8675481a9a,2024-10-01_17h49.47.730,mdp,2024.2.1,Win32,59.95203837,66fa4ebf79326e780c390304,,,,,,,,,,,,,,,,,,,,,1708.245,1708.245,1708.247,1708.977,1,1,right,0.201,,1708.978,1709.56,0,0,left,1709.561,1710.543,1,0,right,1,1710.543,1710.543,1710.545,1712.044,0,10,10,10,1,0.2,0.8,0.6,0.4,,,,,,,,,,,,,,,0.05,,0.2,0.8,0.8,0.2,0.8,0.2,0.4,0.6,,,0.474,,0.4,0.6,0.8,0.2,0.2,0.8,0.2,0.8,1,0
,,65d8ec51e80934b810623d98,66fc97fab7cdfc8675481a9a,2024-10-01_17h49.47.730,mdp,2024.2.1,Win32,59.95203837,66fa4ebf79326e780c390304,,,,,,,,,,,,,,,,,,,,,1712.045,1712.045,1712.046,1712.761,1,0,right,0.184,,1712.762,1713.577,0,1,left,1713.579,1714.16,1,1,right,0,1714.16,1714.16,1714.162,1715.66,0,11,11,11,1,0.2,0.8,0.6,0.4,,,,,,,,,,,,,,,0.276,,0.2,0.8,0.8,0.2,0.8,0.2,0.4,0.6,,,0.046,,0.4,0.6,0.8,0.2,0.2,0.8,0.2,0.8,1,0
,,65d8ec51e80934b810623d98,66fc97fab7cdfc8675481a9a,2024-10-01_17h49.47.730,mdp,2024.2.1,Win32,59.95203837,66fa4ebf79326e780c390304,,,,,,,,,,,,,,,,,,,,,1715.661,1715.661,1715.662,1716.443,1,1,right,0.251,,1716.445,1717.36,1,0,right,1717.362,1718.71,1,0,right,1,1718.71,1718.71,1718.711,1720.21,0,12,12,12,1,0.2,0.8,0.6,0.4,,,,,,,,,,,,,,,0.394,,0.2,0.8,0.8,0.2,0.8,0.2,0.4,0.6,,,0.824,,0.4,0.6,0.8,0.2,0.2,0.8,0.2,0.8,1,0
,,65d8ec51e80934b810623d98,66fc97fab7cdfc8675481a9a,2024-10-01_17h49.47.730,mdp,2024.2.1,Win32,59.95203837,66fa4ebf79326e780c390304,,,,,,,,,,,,,,,,,,,,,1720.211,1720.211,1720.212,1721.194,0,0,left,0.454,,1721.195,1722.194,1,0,right,1722.195,1723.044,0,1,left,0,1723.044,1723.044,1723.045,1724.544,0,13,13,13,1,0.8,0.2,0.8,0.2,,,,,,,,,,,,,,,0.471,,0.2,0.8,0.8,0.2,0.8,0.2,0.4,0.6,,,0.34,,0.4,0.6,0.8,0.2,0.2,0.8,0.2,0.8,1,0
,,65d8ec51e80934b810623d98,66fc97fab7cdfc8675481a9a,2024-10-01_17h49.47.730,mdp,2024.2.1,Win32,59.95203837,66fa4ebf79326e780c390304,,,,,,,,,,,,,,,,,,,,,1724.544,1724.544,1724.546,1725.61,0,0,left,0.551,,1725.612,1726.411,1,0,right,1726.411,1727.594,0,1,left,0,1727.594,1727.595,1727.595,1729.094,0,14,14,14,1,0.8,0.2,0.8,0.2,,,,,,,,,,,,,,,0.292,,0.2,0.8,0.8,0.2,0.8,0.2,0.4,0.6,,,0.657,,0.4,0.6,0.8,0.2,0.2,0.8,0.2,0.8,1,0
,,65d8ec51e80934b810623d98,66fc97fab7cdfc8675481a9a,2024-10-01_17h49.47.730,mdp,2024.2.1,Win32,59.95203837,66fa4ebf79326e780c390304,,,,,,,,,,,,,,,,,,,,,1729.095,1729.095,1729.097,1730.044,1,0,right,0.418,,1730.046,1730.844,0,1,left,1730.845,1734.011,1,1,right,0,1734.011,1734.011,1734.012,1735.511,0,15,15,15,1,0.8,0.2,0.8,0.2,,,,,,,,,,,,,,,0.272,,0.2,0.8,0.8,0.2,0.8,0.2,0.4,0.6,,,2.649,,0.4,0.6,0.8,0.2,0.2,0.8,0.2,0.8,1,0
,,65d8ec51e80934b810623d98,66fc97fab7cdfc8675481a9a,2024-10-01_17h49.47.730,mdp,2024.2.1,Win32,59.95203837,66fa4ebf79326e780c390304,,,,,,,,,,,,,,,,,,,,,1735.511,1735.512,1735.513,1736.695,0,0,left,0.65,,1736.696,1737.379,1,0,right,1737.385,1739.828,0,1,left,0,1739.829,1739.829,1739.832,1741.328,0,16,16,16,1,0.8,0.2,0.8,0.2,,,,,,,,,,,,,,,0.154,,0.2,0.8,0.8,0.2,0.8,0.2,0.4,0.6,,,1.904,,0.4,0.6,0.8,0.2,0.2,0.8,0.2,0.8,1,0
,,65d8ec51e80934b810623d98,66fc97fab7cdfc8675481a9a,2024-10-01_17h49.47.730,mdp,2024.2.1,Win32,59.95203837,66fa4ebf79326e780c390304,,,,,,,,,,,,,,,,,,,,,1741.329,1741.329,1741.331,1742.511,1,0,right,0.652,,1742.513,1743.078,0,1,left,1743.08,1745.245,1,1,right,0,1745.245,1745.245,1745.247,1746.744,0,17,17,17,1,0.8,0.2,0.8,0.2,,,,,,,,,,,,,,,0.05,,0.2,0.8,0.8,0.2,0.8,0.2,0.4,0.6,,,1.647,,0.4,0.6,0.8,0.2,0.2,0.8,0.2,0.8,1,0
,,65d8ec51e80934b810623d98,66fc97fab7cdfc8675481a9a,2024-10-01_17h49.47.730,mdp,2024.2.1,Win32,59.95203837,66fa4ebf79326e780c390304,,,,,,,,,,,,,,,,,,,,,1746.745,1746.745,1746.748,1747.545,0,0,left,0.29,,1747.546,1748.195,1,0,right,1748.196,1749.178,0,1,left,0,1749.179,1749.179,1749.18,1750.679,0,18,18,18,1,0.8,0.2,0.8,0.2,,,,,,,,,,,,,,,0.142,,0.2,0.8,0.8,0.2,0.8,0.2,0.4,0.6,,,0.462,,0.4,0.6,0.8,0.2,0.2,0.8,0.2,0.8,1,0
,,65d8ec51e80934b810623d98,66fc97fab7cdfc8675481a9a,2024-10-01_17h49.47.730,mdp,2024.2.1,Win32,59.95203837,66fa4ebf79326e780c390304,,,,,,,,,,,,,,,,,,,,,1750.68,1750.68,1750.681,1751.279,1,0,right,0.067,,1751.28,1751.945,0,1,left,1751.947,1752.761,0,1,left,0,1752.762,1752.762,1752.764,1754.262,0,19,19,19,1,0.8,0.2,0.8,0.2,,,,,,,,,,,,,,,0.152,,0.2,0.8,0.8,0.2,0.8,0.2,0.4,0.6,,,0.289,,0.4,0.6,0.8,0.2,0.2,0.8,0.2,0.8,1,0
,,65d8ec51e80934b810623d98,66fc97fab7cdfc8675481a9a,2024-10-01_17h49.47.730,mdp,2024.2.1,Win32,59.95203837,66fa4ebf79326e780c390304,,,,,,,,,,,,,,,,,,,,,1754.262,1754.262,1754.264,1755.078,0,0,left,0.302,,1755.08,1758.445,1,0,right,1758.447,1759.096,1,0,right,1,1759.096,1759.096,1759.097,1760.595,0,20,20,20,1,0.8,0.2,0.8,0.2,,,,,,,,,,,,,,,2.855,,0.2,0.8,0.8,0.2,0.8,0.2,0.4,0.6,,,0.135,,0.4,0.6,0.8,0.2,0.2,0.8,0.2,0.8,1,0
,,65d8ec51e80934b810623d98,66fc97fab7cdfc8675481a9a,2024-10-01_17h49.47.730,mdp,2024.2.1,Win32,59.95203837,66fa4ebf79326e780c390304,,,,,,,,,,,,,,,,,,,,,1760.597,1760.597,1760.598,1761.179,1,0,right,0.05,,1761.18,1761.879,1,0,right,1761.88,1762.895,1,0,right,1,1762.896,1762.896,1762.897,1764.396,0,21,21,21,1,0.8,0.2,0.8,0.2,,,,,,,,,,,,,,,0.185,,0.2,0.8,0.8,0.2,0.8,0.2,0.4,0.6,,,0.507,,0.4,0.6,0.8,0.2,0.2,0.8,0.2,0.8,1,0
,,65d8ec51e80934b810623d98,66fc97fab7cdfc8675481a9a,2024-10-01_17h49.47.730,mdp,2024.2.1,Win32,59.95203837,66fa4ebf79326e780c390304,,,,,,,,,,,,,,,,,,,,,1764.397,1764.397,1764.397,1765.279,1,0,right,0.349,,1765.281,1765.895,0,1,left,1765.897,1766.845,1,1,right,0,1766.845,1766.845,1766.846,1768.346,0,22,22,22,1,0.8,0.2,0.8,0.2,,,,,,,,,,,,,,,0.106,,0.2,0.8,0.8,0.2,0.8,0.2,0.4,0.6,,,0.429,,0.4,0.6,0.8,0.2,0.2,0.8,0.2,0.8,1,0
,,65d8ec51e80934b810623d98,66fc97fab7cdfc8675481a9a,2024-10-01_17h49.47.730,mdp,2024.2.1,Win32,59.95203837,66fa4ebf79326e780c390304,,,,,,,,,,,,,,,,,,,,,1768.347,1768.347,1768.348,1769.513,0,0,left,0.634,,1769.514,1770.412,1,0,right,1770.414,1771.23,1,1,right,0,1771.23,1771.23,1771.231,1772.731,0,23,23,23,1,0.8,0.2,0.8,0.2,,,,,,,,,,,,,,,0.376,,0.2,0.8,0.8,0.2,0.8,0.2,0.4,0.6,,,0.294,,0.8,0.2,0.4,0.6,0.2,0.8,0.2,0.8,1,0
,,65d8ec51e80934b810623d98,66fc97fab7cdfc8675481a9a,2024-10-01_17h49.47.730,mdp,2024.2.1,Win32,59.95203837,66fa4ebf79326e780c390304,,,,,,,,,,,,,,,,,,,,,1772.735,1772.735,1772.739,1867.568,0,1,left,94.313,,1867.574,1869.351,0,0,left,1869.353,1869.984,1,1,right,0,1869.984,1869.984,1869.985,1871.484,0,24,24,24,1,0.8,0.2,0.8,0.2,,,,,,,,,,,,,,,1.238,,0.2,0.8,0.8,0.2,0.8,0.2,0.4,0.6,,,0.109,,0.8,0.2,0.4,0.6,0.2,0.8,0.2,0.8,1,0
,,65d8ec51e80934b810623d98,66fc97fab7cdfc8675481a9a,2024-10-01_17h49.47.730,mdp,2024.2.1,Win32,59.95203837,66fa4ebf79326e780c390304,,,,,,,,,,,,,,,,,,,,,1871.486,1871.486,1871.487,1872.45,0,0,left,0.436,,1872.452,1873.417,1,0,right,1873.419,1874.234,0,0,left,1,1874.236,1874.236,1874.236,1875.734,0,25,25,25,1,0.8,0.2,0.8,0.2,,,,,,,,,,,,,,,0.422,,0.2,0.8,0.8,0.2,0.8,0.2,0.4,0.6,,,0.301,,0.8,0.2,0.4,0.6,0.2,0.8,0.2,0.8,1,0
,,65d8ec51e80934b810623d98,66fc97fab7cdfc8675481a9a,2024-10-01_17h49.47.730,mdp,2024.2.1,Win32,59.95203837,66fa4ebf79326e780c390304,,,,,,,,,,,,,,,,,,,,,1875.734,1875.734,1875.736,1876.368,0,1,left,0.117,,1876.369,1877.168,0,0,left,1877.169,1877.801,1,0,right,1,1877.801,1877.801,1877.802,1879.301,0,26,26,26,1,0.8,0.2,0.8,0.2,,,,,,,,,,,,,,,0.274,,0.2,0.8,0.8,0.2,0.8,0.2,0.4,0.6,,,0.119,,0.8,0.2,0.4,0.6,0.4,0.6,0.4,0.6,1,0
,,65d8ec51e80934b810623d98,66fc97fab7cdfc8675481a9a,2024-10-01_17h49.47.730,mdp,2024.2.1,Win32,59.95203837,66fa4ebf79326e780c390304,,,,,,,,,,,,,,,,,,,,,1879.302,1879.302,1879.303,1879.868,1,0,right,0.033,,1879.869,1880.485,1,1,right,1880.486,1881.385,0,0,left,1,1881.385,1881.385,1881.386,1882.884,0,27,27,27,1,0.8,0.2,0.8,0.2,,,,,,,,,,,,,,,0.096,,0.2,0.8,0.8,0.2,0.8,0.2,0.4,0.6,,,0.354,,0.8,0.2,0.4,0.6,0.4,0.6,0.4,0.6,1,0
,,65d8ec51e80934b810623d98,66fc97fab7cdfc8675481a9a,2024-10-01_17h49.47.730,mdp,2024.2.1,Win32,59.95203837,66fa4ebf79326e780c390304,,,,,,,,,,,,,,,,,,,,,1882.885,1882.885,1882.886,1883.752,1,0,right,0.339,,1883.753,1884.468,0,0,left,1884.47,1885.068,0,0,left,1,1885.068,1885.068,1885.069,1886.568,0,28,28,28,1,0.8,0.2,0.8,0.2,,,,,,,,,,,,,,,0.188,,0.2,0.8,0.8,0.2,0.8,0.2,0.4,0.6,,,0.057,,0.8,0.2,0.4,0.6,0.4,0.6,0.4,0.6,1,0
,,65d8ec51e80934b810623d98,66fc97fab7cdfc8675481a9a,2024-10-01_17h49.47.730,mdp,2024.2.1,Win32,59.95203837,66fa4ebf79326e780c390304,,,,,,,,,,,,,,,,,,,,,1886.569,1886.569,1886.57,1887.219,1,0,right,0.12,,1887.22,1887.835,0,1,left,1887.836,1888.685,0,1,left,0,1888.685,1888.685,1888.686,1890.185,0,29,29,29,1,0.8,0.2,0.8,0.2,,,,,,,,,,,,,,,0.084,,0.2,0.8,0.8,0.2,0.8,0.2,0.4,0.6,,,0.329,,0.8,0.2,0.4,0.6,0.4,0.6,0.4,0.6,1,0
,,65d8ec51e80934b810623d98,66fc97fab7cdfc8675481a9a,2024-10-01_17h49.47.730,mdp,2024.2.1,Win32,59.95203837,66fa4ebf79326e780c390304,,,,,,,,,,,,,,,,,,,,,1890.185,1890.185,1890.187,1890.985,1,0,right,0.272,,1890.986,1891.635,1,0,right,1891.637,1892.285,1,0,right,1,1892.285,1892.285,1892.286,1893.785,0,30,30,30,1,0.8,0.2,0.8,0.2,,,,,,,,,,,,,,,0.134,,0.2,0.8,0.8,0.2,0.8,0.2,0.4,0.6,,,0.117,,0.2,0.8,0.8,0.2,0.4,0.6,0.4,0.6,1,0
,,65d8ec51e80934b810623d98,66fc97fab7cdfc8675481a9a,2024-10-01_17h49.47.730,mdp,2024.2.1,Win32,59.95203837,66fa4ebf79326e780c390304,,,,,,,,,,,,,,,,,,,,,1893.786,1893.786,1893.787,1894.635,1,0,right,0.322,,1894.636,1895.402,0,1,left,1895.403,1896.086,1,1,right,0,1896.086,1896.086,1896.092,1897.585,0,31,31,31,1,0.8,0.2,0.8,0.2,,,,,,,,,,,,,,,0.249,,0.2,0.8,0.8,0.2,0.8,0.2,0.4,0.6,,,0.162,,0.2,0.8,0.8,0.2,0.4,0.6,0.4,0.6,1,0
,,65d8ec51e80934b810623d98,66fc97fab7cdfc8675481a9a,2024-10-01_17h49.47.730,mdp,2024.2.1,Win32,59.95203837,66fa4ebf79326e780c390304,,,,,,,,,,,,,,,,,,,,,1897.586,1897.586,1897.589,1898.436,0,1,left,0.34,,1898.437,1899.069,0,0,left,1899.07,1899.836,0,1,left,0,1899.836,1899.836,1899.837,1901.335,0,32,32,32,1,0.8,0.2,0.8,0.2,,,,,,,,,,,,,,,0.087,,0.2,0.8,0.8,0.2,0.8,0.2,0.4,0.6,,,0.244,,0.2,0.8,0.8,0.2,0.4,0.6,0.4,0.6,1,0
,,65d8ec51e80934b810623d98,66fc97fab7cdfc8675481a9a,2024-10-01_17h49.47.730,mdp,2024.2.1,Win32,59.95203837,66fa4ebf79326e780c390304,,,,,,,,,,,,,,,,,,,,,1901.336,1901.336,1901.338,1902.169,0,0,left,0.307,,1902.17,1903.052,0,1,left,1903.054,1904.12,1,0,right,1,1904.12,1904.12,1904.12,1905.619,0,33,33,33,1,0.8,0.2,0.8,0.2,,,,,,,,,,,,,,,0.35,,0.2,0.8,0.8,0.2,0.8,0.2,0.4,0.6,,,0.542,,0.2,0.8,0.8,0.2,0.4,0.6,0.4,0.6,1,0
,,65d8ec51e80934b810623d98,66fc97fab7cdfc8675481a9a,2024-10-01_17h49.47.730,mdp,2024.2.1,Win32,59.95203837,66fa4ebf79326e780c390304,,,,,,,,,,,,,,,,,,,,,1905.619,1905.619,1905.621,1906.469,0,0,left,0.326,,1906.47,1907.219,1,0,right,1907.22,1908.17,1,0,right,1,1908.17,1908.17,1908.171,1909.669,0,34,34,34,1,0.8,0.2,0.8,0.2,,,,,,,,,,,,,,,0.222,,0.2,0.8,0.8,0.2,0.8,0.2,0.4,0.6,,,0.437,,0.2,0.8,0.8,0.2,0.4,0.6,0.4,0.6,1,0
,,65d8ec51e80934b810623d98,66fc97fab7cdfc8675481a9a,2024-10-01_17h49.47.730,mdp,2024.2.1,Win32,59.95203837,66fa4ebf79326e780c390304,,,,,,,,,,,,,,,,,,,,,1909.67,1909.67,1909.671,1910.436,1,0,right,0.233,,1910.437,1911.22,1,1,right,1911.221,1912.602,0,1,left,0,1912.602,1912.602,1912.604,1914.103,0,35,35,35,1,0.8,0.2,0.8,0.2,,,,,,,,,,,,,,,0.274,,0.2,0.8,0.8,0.2,0.8,0.2,0.4,0.6,,,0.851,,0.2,0.8,0.8,0.2,0.4,0.6,0.4,0.6,1,0
,,65d8ec51e80934b810623d98,66fc97fab7cdfc8675481a9a,2024-10-01_17h49.47.730,mdp,2024.2.1,Win32,59.95203837,66fa4ebf79326e780c390304,,,,,,,,,,,,,,,,,,,,,1914.104,1914.104,1914.105,1914.936,0,0,left,0.304,,1914.938,1915.569,0,1,left,1915.571,1916.553,0,0,left,1,1916.553,1916.553,1916.554,1918.053,0,36,36,36,1,0.8,0.2,0.8,0.2,,,,,,,,,,,,,,,0.1,,0.2,0.8,0.8,0.2,0.8,0.2,0.4,0.6,,,0.475,,0.2,0.8,0.8,0.2,0.4,0.6,0.4,0.6,1,0
,,65d8ec51e80934b810623d98,66fc97fab7cdfc8675481a9a,2024-10-01_17h49.47.730,mdp,2024.2.1,Win32,59.95203837,66fa4ebf79326e780c390304,,,,,,,,,,,,,,,,,,,,,1918.053,1918.054,1918.055,1918.786,0,1,left,0.207,,1918.788,1919.52,1,1,right,1919.521,1920.719,1,0,right,1,1920.719,1920.719,1920.721,1922.22,0,37,37,37,1,0.8,0.2,0.8,0.2,,,,,,,,,,,,,,,0.209,,0.2,0.8,0.8,0.2,0.8,0.2,0.4,0.6,,,0.685,,0.2,0.8,0.8,0.2,0.4,0.6,0.4,0.6,1,0
,,65d8ec51e80934b810623d98,66fc97fab7cdfc8675481a9a,2024-10-01_17h49.47.730,mdp,2024.2.1,Win32,59.95203837,66fa4ebf79326e780c390304,,,,,,,,,,,,,,,,,,,,,1922.22,1922.22,1922.221,1922.77,0,1,left,0.022,,1922.771,1923.503,1,1,right,1923.505,1924.353,1,1,right,0,1924.354,1924.354,1924.355,1925.854,0,38,38,38,1,0.8,0.2,0.8,0.2,,,,,,,,,,,,,,,0.226,,0.2,0.8,0.8,0.2,0.8,0.2,0.4,0.6,,,0.32,,0.2,0.8,0.8,0.2,0.4,0.6,0.4,0.6,1,0
,,65d8ec51e80934b810623d98,66fc97fab7cdfc8675481a9a,2024-10-01_17h49.47.730,mdp,2024.2.1,Win32,59.95203837,66fa4ebf79326e780c390304,,,,,,,,,,,,,,,,,,,,,1925.858,1925.858,1925.862,1926.603,1,0,right,0.218,,1926.605,1927.553,1,0,right,1927.555,1928.336,1,1,right,0,1928.337,1928.337,1928.339,1929.838,0,39,39,39,1,0.8,0.2,0.8,0.2,,,,,,,,,,,,,,,0.406,,0.2,0.8,0.8,0.2,0.8,0.2,0.4,0.6,,,0.25,,0.2,0.8,0.8,0.2,0.4,0.6,0.4,0.6,1,0
,,65d8ec51e80934b810623d98,66fc97fab7cdfc8675481a9a,2024-10-01_17h49.47.730,mdp,2024.2.1,Win32,59.95203837,66fa4ebf79326e780c390304,,,,,,,,,,,,,,,,,,,,,1929.838,1929.838,1929.839,1930.703,0,0,left,0.34,,1930.705,1932.154,0,1,left,1932.155,1932.888,0,1,left,0,1932.888,1932.888,1932.888,1934.387,0,40,40,40,1,0.8,0.2,0.8,0.2,,,,,,,,,,,,,,,0.935,,0.2,0.8,0.8,0.2,0.8,0.2,0.4,0.6,,,0.194,,0.2,0.8,0.8,0.2,0.4,0.6,0.4,0.6,1,0
,,65d8ec51e80934b810623d98,66fc97fab7cdfc8675481a9a,2024-10-01_17h49.47.730,mdp,2024.2.1,Win32,59.95203837,66fa4ebf79326e780c390304,,,,,,,,,,,,,,,,,,,,,1934.388,1934.389,1934.39,1935.271,0,0,left,0.356,,1935.272,1935.987,0,0,left,1935.988,1936.82,1,0,right,1,1936.82,1936.82,1936.823,1938.32,0,41,41,41,1,0.8,0.2,0.8,0.2,,,,,,,,,,,,,,,0.184,,0.2,0.8,0.8,0.2,0.8,0.2,0.4,0.6,,,0.31,,0.2,0.8,0.8,0.2,0.4,0.6,0.4,0.6,1,0
,,65d8ec51e80934b810623d98,66fc97fab7cdfc8675481a9a,2024-10-01_17h49.47.730,mdp,2024.2.1,Win32,59.95203837,66fa4ebf79326e780c390304,,,,,,,,,,,,,,,,,,,,,1938.321,1938.321,1938.322,1939.287,0,0,left,0.438,,1939.288,1939.937,1,0,right,1939.939,1940.621,1,0,right,1,1940.621,1940.621,1940.622,1942.121,0,42,42,42,1,0.8,0.2,0.8,0.2,,,,,,,,,,,,,,,0.138,,0.2,0.8,0.8,0.2,0.8,0.2,0.4,0.6,,,0.151,,0.2,0.8,0.8,0.2,0.4,0.6,0.4,0.6,1,0
,,65d8ec51e80934b810623d98,66fc97fab7cdfc8675481a9a,2024-10-01_17h49.47.730,mdp,2024.2.1,Win32,59.95203837,66fa4ebf79326e780c390304,,,,,,,,,,,,,,,,,,,,,1942.121,1942.121,1942.122,1943.205,1,0,right,0.569,,1943.206,1943.805,0,1,left,1943.806,1944.521,1,0,right,1,1944.521,1944.521,1944.523,1946.021,0,43,43,43,1,0.8,0.2,0.8,0.2,,,,,,,,,,,,,,,0.077,,0.2,0.8,0.8,0.2,0.8,0.2,0.4,0.6,,,0.183,,0.2,0.8,0.8,0.2,0.4,0.6,0.4,0.6,1,0
,,65d8ec51e80934b810623d98,66fc97fab7cdfc8675481a9a,2024-10-01_17h49.47.730,mdp,2024.2.1,Win32,59.95203837,66fa4ebf79326e780c390304,,,,,,,,,,,,,,,,,,,,,1946.022,1946.022,1946.022,1946.587,0,1,left,0.034,,1946.589,1947.321,0,0,left,1947.322,1947.938,1,0,right,1,1947.938,1947.938,1947.939,1949.438,0,44,44,44,1,0.8,0.2,0.8,0.2,,,,,,,,,,,,,,,0.209,,0.2,0.8,0.8,0.2,0.8,0.2,0.4,0.6,,,0.093,,0.2,0.8,0.8,0.2,0.4,0.6,0.4,0.6,1,0
,,65d8ec51e80934b810623d98,66fc97fab7cdfc8675481a9a,2024-10-01_17h49.47.730,mdp,2024.2.1,Win32,59.95203837,66fa4ebf79326e780c390304,,,,,,,,,,,,,,,,,,,,,1949.439,1949.439,1949.44,1950.405,0,0,left,0.438,,1950.406,1951.022,1,0,right,1951.023,1951.604,0,0,left,1,1951.605,1951.605,1951.605,1953.104,0,45,45,45,1,0.8,0.2,0.8,0.2,,,,,,,,,,,,,,,0.075,,0.2,0.8,0.8,0.2,0.8,0.2,0.4,0.6,,,0.051,,0.6,0.4,0.4,0.6,0.4,0.6,0.4,0.6,1,0
,,65d8ec51e80934b810623d98,66fc97fab7cdfc8675481a9a,2024-10-01_17h49.47.730,mdp,2024.2.1,Win32,59.95203837,66fa4ebf79326e780c390304,,,,,,,,,,,,,,,,,,,,,1953.105,1953.106,1953.107,1953.821,1,0,right,0.183,,1953.822,1954.605,0,1,left,1954.606,1955.571,1,0,right,1,1955.571,1955.571,1955.573,1957.072,0,46,46,46,1,0.8,0.2,0.8,0.2,,,,,,,,,,,,,,,0.269,,0.2,0.8,0.8,0.2,0.8,0.2,0.4,0.6,,,0.44,,0.6,0.4,0.4,0.6,0.4,0.6,0.4,0.6,1,0
,,65d8ec51e80934b810623d98,66fc97fab7cdfc8675481a9a,2024-10-01_17h49.47.730,mdp,2024.2.1,Win32,59.95203837,66fa4ebf79326e780c390304,,,,,,,,,,,,,,,,,,,,,1957.072,1957.072,1957.074,1957.922,0,0,left,0.318,,1957.923,1958.489,1,0,right,1958.49,1959.356,0,0,left,1,1959.356,1959.356,1959.361,1960.856,0,47,47,47,1,0.8,0.2,0.8,0.2,,,,,,,,,,,,,,,0.051,,0.2,0.8,0.8,0.2,0.8,0.2,0.4,0.6,,,0.323,,0.6,0.4,0.4,0.6,0.4,0.6,0.4,0.6,1,0
,,65d8ec51e80934b810623d98,66fc97fab7cdfc8675481a9a,2024-10-01_17h49.47.730,mdp,2024.2.1,Win32,59.95203837,66fa4ebf79326e780c390304,,,,,,,,,,,,,,,,,,,,,1960.858,1960.858,1960.86,1961.622,0,0,left,0.242,,1961.624,1962.371,1,0,right,1962.374,1963.055,0,0,left,1,1963.055,1963.055,1963.057,1964.555,0,48,48,48,1,0.8,0.2,0.8,0.2,,,,,,,,,,,,,,,0.238,,0.2,0.8,0.8,0.2,0.8,0.2,0.4,0.6,,,0.172,,0.6,0.4,0.4,0.6,0.4,0.6,0.4,0.6,1,0
,,65d8ec51e80934b810623d98,66fc97fab7cdfc8675481a9a,2024-10-01_17h49.47.730,mdp,2024.2.1,Win32,59.95203837,66fa4ebf79326e780c390304,,,,,,,,,,,,,,,,,,,,,1964.556,1964.556,1964.558,1965.588,1,0,right,0.502,,1965.59,1966.355,0,1,left,1966.357,1966.877,1,1,right,0,1966.877,1966.877,1966.877,1968.372,0,49,49,49,1,0.8,0.2,0.8,0.2,,,,,,,,,,,,,,,0.25,,0.2,0.8,0.8,0.2,0.8,0.2,0.4,0.6,,,0.001,,0.6,0.4,0.4,0.6,0.4,0.6,0.4,0.6,1,0
,,65d8ec51e80934b810623d98,66fc97fab7cdfc8675481a9a,2024-10-01_17h49.47.730,mdp,2024.2.1,Win32,59.95203837,66fa4ebf79326e780c390304,,,,,,,,,,,,,,,,,,,,,,,,,,,,,,,,,,,,,,,,,,,,,,,,,,,,,,,,1968.372,2035.685,0,3,3,7,1,imgs/goat.png,imgs/pig.png,imgs/squirrel.png,imgs/dog.png,imgs/cat.png,,,,,,,,,,,,,,,,,,,,,,,,
,,65d8ec51e80934b810623d98,66fc97fab7cdfc8675481a9a,2024-10-01_17h49.47.730,mdp,2024.2.1,Win32,59.95203837,66fa4ebf79326e780c390304,,,,,,,,,,,,,,1,seqs/st1seq0.csv,2035.691,2463.563,space,363.853,,2463.576,2463.576,2463.58,2464.746,0,0,left,0.64,,2464.747,2464.749,0,0,,2464.75,2464.752,1,0,,1,2464.752,2464.752,2464.752,2466.246,0,0,0,0,1,0.8,0.2,0.8,0.2,1,0,,,,,,,,,,,,,,,,,,,,,,,,,,,,,,,,,,,,
,,65d8ec51e80934b810623d98,66fc97fab7cdfc8675481a9a,2024-10-01_17h49.47.730,mdp,2024.2.1,Win32,59.95203837,66fa4ebf79326e780c390304,,,,,,,,,,,,,,,,,,,,,2466.246,2466.246,2466.247,2641.407,0,1,left,174.646,,2641.416,2641.422,0,0,,2641.423,2641.426,1,0,,0,2641.426,2641.426,2641.428,2642.921,0,1,1,1,1,0.8,0.2,0.8,0.2,1,0,,,,,,,,,,,,,,,,,,,,,,,,,,,,,,,,,,,,
,,65d8ec51e80934b810623d98,66fc97fab7cdfc8675481a9a,2024-10-01_17h49.47.730,mdp,2024.2.1,Win32,59.95203837,66fa4ebf79326e780c390304,,,,,,,,,,,,,,,,,,,,,2642.923,2642.923,2642.924,2644.155,0,0,left,0.701,,2644.157,2644.16,0,0,,2644.161,2644.163,1,0,,1,2644.163,2644.163,2644.165,2645.654,0,2,2,2,1,0.8,0.2,0.8,0.2,1,0,,,,,,,,,,,,,,,,,,,,,,,,,,,,,,,,,,,,
,,65d8ec51e80934b810623d98,66fc97fab7cdfc8675481a9a,2024-10-01_17h49.47.730,mdp,2024.2.1,Win32,59.95203837,66fa4ebf79326e780c390304,,,,,,,,,,,,,,,,,,,,,2645.655,2645.655,2645.656,2646.588,0,0,left,0.402,,2646.59,2646.591,0,0,,2646.593,2646.594,1,0,,1,2646.594,2646.594,2646.595,2648.088,0,3,3,3,1,0.8,0.2,0.8,0.2,1,0,,,,,,,,,,,,,,,,,,,,,,,,,,,,,,,,,,,,
,,65d8ec51e80934b810623d98,66fc97fab7cdfc8675481a9a,2024-10-01_17h49.47.730,mdp,2024.2.1,Win32,59.95203837,66fa4ebf79326e780c390304,,,,,,,,,,,,,,,,,,,,,2648.088,2648.088,2648.089,2649.055,0,0,left,0.435,,2649.056,2649.058,0,0,,2649.06,2649.061,1,1,,1,2649.061,2649.061,2649.063,2650.554,0,4,4,4,1,0.8,0.2,0.8,0.2,1,0,,,,,,,,,,,,,,,,,,,,,,,,,,,,,,,,,,,,
,,65d8ec51e80934b810623d98,66fc97fab7cdfc8675481a9a,2024-10-01_17h49.47.730,mdp,2024.2.1,Win32,59.95203837,66fa4ebf79326e780c390304,,,,,,,,,,,,,,,,,,,,,2650.555,2650.555,2650.556,2651.404,0,1,left,0.323,,2651.406,2651.408,0,1,,2651.41,2651.411,1,0,,0,2651.411,2651.411,2651.412,2652.905,0,5,5,5,1,0.8,0.2,0.8,0.2,1,0,,,,,,,,,,,,,,,,,,,,,,,,,,,,,,,,,,,,
,,65d8ec51e80934b810623d98,66fc97fab7cdfc8675481a9a,2024-10-01_17h49.47.730,mdp,2024.2.1,Win32,59.95203837,66fa4ebf79326e780c390304,,,,,,,,,,,,,,,,,,,,,2652.906,2652.906,2652.906,2654.071,0,0,left,0.636,,2654.074,2654.075,0,0,,2654.076,2654.077,1,0,,1,2654.077,2654.077,2654.078,2655.571,0,6,6,6,1,0.8,0.2,0.8,0.2,1,0,,,,,,,,,,,,,,,,,,,,,,,,,,,,,,,,,,,,
,,65d8ec51e80934b810623d98,66fc97fab7cdfc8675481a9a,2024-10-01_17h49.47.730,mdp,2024.2.1,Win32,59.95203837,66fa4ebf79326e780c390304,,,,,,,,,,,,,,,,,,,,,2655.572,2655.572,2655.573,2656.572,0,0,left,0.469,,2656.573,2656.575,0,1,,2656.577,2656.578,1,0,,1,2656.578,2656.578,2656.579,2658.072,0,7,7,7,1,0.8,0.2,0.8,0.2,1,0,,,,,,,,,,,,,,,,,,,,,,,,,,,,,,,,,,,,
,,65d8ec51e80934b810623d98,66fc97fab7cdfc8675481a9a,2024-10-01_17h49.47.730,mdp,2024.2.1,Win32,59.95203837,66fa4ebf79326e780c390304,,,,,,,,,,,,,,,,,,,,,2658.072,2658.072,2658.074,2658.955,0,0,left,0.367,,2658.956,2658.958,0,0,,2658.959,2658.96,1,0,,1,2658.96,2658.96,2658.962,2660.455,0,8,8,8,1,0.8,0.2,0.8,0.2,1,0,,,,,,,,,,,,,,,,,,,,,,,,,,,,,,,,,,,,
,,65d8ec51e80934b810623d98,66fc97fab7cdfc8675481a9a,2024-10-01_17h49.47.730,mdp,2024.2.1,Win32,59.95203837,66fa4ebf79326e780c390304,,,,,,,,,,,,,,,,,,,,,2660.456,2660.456,2660.457,2661.522,0,0,left,0.535,,2661.523,2661.524,0,0,,2661.526,2661.527,1,1,,1,2661.527,2661.527,2661.528,2663.022,0,9,9,9,1,0.8,0.2,0.8,0.2,1,0,,,,,,,,,,,,,,,,,,,,,,,,,,,,,,,,,,,,
,,65d8ec51e80934b810623d98,66fc97fab7cdfc8675481a9a,2024-10-01_17h49.47.730,mdp,2024.2.1,Win32,59.95203837,66fa4ebf79326e780c390304,,,,,,,,,,,,,,,,,,,,,2663.022,2663.022,2663.024,2663.972,0,0,left,0.418,,2663.973,2663.975,0,0,,2663.977,2663.978,1,1,,1,2663.978,2663.978,2663.979,2665.472,0,10,10,10,1,0.8,0.2,0.8,0.2,1,0,,,,,,,,,,,,,,,,,,,,,,,,,,,,,,,,,,,,
,,65d8ec51e80934b810623d98,66fc97fab7cdfc8675481a9a,2024-10-01_17h49.47.730,mdp,2024.2.1,Win32,59.95203837,66fa4ebf79326e780c390304,,,,,,,,,,,,,,,,,,,,,2665.472,2665.472,2665.474,2666.372,0,0,left,0.384,,2666.374,2666.376,0,0,,2666.377,2666.378,1,0,,1,2666.378,2666.378,2666.38,2667.872,0,11,11,11,1,0.6,0.4,0.4,0.6,1,0,,,,,,,,,,,,,,,,,,,,,,,,,,,,,,,,,,,,
,,65d8ec51e80934b810623d98,66fc97fab7cdfc8675481a9a,2024-10-01_17h49.47.730,mdp,2024.2.1,Win32,59.95203837,66fa4ebf79326e780c390304,,,,,,,,,,,,,,,,,,,,,2667.873,2667.873,2667.874,2668.789,0,1,left,0.388,,2668.79,2668.792,0,0,,2668.793,2668.794,1,1,,0,2668.794,2668.795,2668.795,2670.289,0,12,12,12,1,0.6,0.4,0.4,0.6,1,0,,,,,,,,,,,,,,,,,,,,,,,,,,,,,,,,,,,,
,,65d8ec51e80934b810623d98,66fc97fab7cdfc8675481a9a,2024-10-01_17h49.47.730,mdp,2024.2.1,Win32,59.95203837,66fa4ebf79326e780c390304,,,,,,,,,,,,,,,,,,,,,2670.29,2670.29,2670.292,2671.105,0,0,left,0.283,,2671.107,2671.109,0,0,,2671.11,2671.111,1,1,,1,2671.111,2671.111,2671.112,2672.606,0,13,13,13,1,0.6,0.4,0.4,0.6,1,0,,,,,,,,,,,,,,,,,,,,,,,,,,,,,,,,,,,,
,,65d8ec51e80934b810623d98,66fc97fab7cdfc8675481a9a,2024-10-01_17h49.47.730,mdp,2024.2.1,Win32,59.95203837,66fa4ebf79326e780c390304,,,,,,,,,,,,,,,,,,,,,2672.611,2672.611,2672.616,2673.49,0,0,left,0.354,,2673.494,2673.498,0,1,,2673.499,2673.501,1,0,,1,2673.501,2673.501,2673.502,2674.99,0,14,14,14,1,0.8,0.2,0.2,0.8,1,0,,,,,,,,,,,,,,,,,,,,,,,,,,,,,,,,,,,,
,,65d8ec51e80934b810623d98,66fc97fab7cdfc8675481a9a,2024-10-01_17h49.47.730,mdp,2024.2.1,Win32,59.95203837,66fa4ebf79326e780c390304,,,,,,,,,,,,,,,,,,,,,2674.991,2674.991,2674.993,2675.906,0,0,left,0.384,,2675.908,2675.91,0,0,,2675.911,2675.913,1,0,,1,2675.913,2675.913,2675.914,2677.406,0,15,15,15,1,0.8,0.2,0.2,0.8,1,0,,,,,,,,,,,,,,,,,,,,,,,,,,,,,,,,,,,,
,,65d8ec51e80934b810623d98,66fc97fab7cdfc8675481a9a,2024-10-01_17h49.47.730,mdp,2024.2.1,Win32,59.95203837,66fa4ebf79326e780c390304,,,,,,,,,,,,,,,,,,,,,2677.407,2677.407,2677.409,2678.206,0,0,left,0.267,,2678.208,2678.211,0,0,,2678.213,2678.216,1,0,,1,2678.216,2678.216,2678.217,2679.707,0,16,16,16,1,0.8,0.2,0.2,0.8,1,0,,,,,,,,,,,,,,,,,,,,,,,,,,,,,,,,,,,,
,,65d8ec51e80934b810623d98,66fc97fab7cdfc8675481a9a,2024-10-01_17h49.47.730,mdp,2024.2.1,Win32,59.95203837,66fa4ebf79326e780c390304,,,,,,,,,,,,,,,,,,,,,2679.707,2679.707,2679.709,2680.656,1,1,right,0.417,,2680.658,2680.66,0,1,,2680.661,2680.662,1,1,,0,2680.662,2680.662,2680.663,2682.156,0,17,17,17,1,0.8,0.2,0.2,0.8,1,0,,,,,,,,,,,,,,,,,,,,,,,,,,,,,,,,,,,,
,,65d8ec51e80934b810623d98,66fc97fab7cdfc8675481a9a,2024-10-01_17h49.47.730,mdp,2024.2.1,Win32,59.95203837,66fa4ebf79326e780c390304,,,,,,,,,,,,,,,,,,,,,2682.157,2682.157,2682.159,2682.806,0,1,left,0.119,,2682.807,2682.81,0,0,,2682.811,2682.813,1,0,,0,2682.813,2682.813,2682.814,2684.306,0,18,18,18,1,0.8,0.2,0.2,0.8,1,0,,,,,,,,,,,,,,,,,,,,,,,,,,,,,,,,,,,,
,,65d8ec51e80934b810623d98,66fc97fab7cdfc8675481a9a,2024-10-01_17h49.47.730,mdp,2024.2.1,Win32,59.95203837,66fa4ebf79326e780c390304,,,,,,,,,,,,,,,,,,,,,2684.307,2684.307,2684.308,2685.139,0,1,left,0.301,,2685.141,2685.143,0,0,,2685.145,2685.146,1,0,,0,2685.146,2685.146,2685.147,2686.639,0,19,19,19,1,0.8,0.2,0.2,0.8,1,0,,,,,,,,,,,,,,,,,,,,,,,,,,,,,,,,,,,,
,,65d8ec51e80934b810623d98,66fc97fab7cdfc8675481a9a,2024-10-01_17h49.47.730,mdp,2024.2.1,Win32,59.95203837,66fa4ebf79326e780c390304,,,,,,,,,,,,,,,,,,,,,2686.64,2686.641,2686.642,2687.74,0,0,left,0.569,,2687.741,2687.743,0,0,,2687.745,2687.745,1,1,,1,2687.745,2687.745,2687.747,2689.24,0,20,20,20,1,0.8,0.2,0.2,0.8,1,0,,,,,,,,,,,,,,,,,,,,,,,,,,,,,,,,,,,,
,,65d8ec51e80934b810623d98,66fc97fab7cdfc8675481a9a,2024-10-01_17h49.47.730,mdp,2024.2.1,Win32,59.95203837,66fa4ebf79326e780c390304,,,,,,,,,,,,,,,,,,,,,2689.241,2689.241,2689.241,2690.04,0,0,left,0.273,,2690.041,2690.043,0,0,,2690.046,2690.046,1,1,,1,2690.046,2690.046,2690.047,2691.539,0,21,21,21,1,0.8,0.2,0.2,0.8,1,0,,,,,,,,,,,,,,,,,,,,,,,,,,,,,,,,,,,,
,,65d8ec51e80934b810623d98,66fc97fab7cdfc8675481a9a,2024-10-01_17h49.47.730,mdp,2024.2.1,Win32,59.95203837,66fa4ebf79326e780c390304,,,,,,,,,,,,,,,,,,,,,2691.54,2691.54,2691.541,2692.223,0,0,left,0.151,,2692.224,2692.227,0,1,,2692.229,2692.23,1,0,,1,2692.23,2692.23,2692.231,2693.723,0,22,22,22,1,0.6,0.4,0.8,0.2,1,0,,,,,,,,,,,,,,,,,,,,,,,,,,,,,,,,,,,,
,,65d8ec51e80934b810623d98,66fc97fab7cdfc8675481a9a,2024-10-01_17h49.47.730,mdp,2024.2.1,Win32,59.95203837,66fa4ebf79326e780c390304,,,,,,,,,,,,,,,,,,,,,2693.723,2693.723,2693.725,2694.59,0,1,left,0.337,,2694.591,2694.593,0,0,,2694.594,2694.596,1,0,,0,2694.596,2694.596,2694.597,2696.09,0,23,23,23,1,0.6,0.4,0.8,0.2,1,0,,,,,,,,,,,,,,,,,,,,,,,,,,,,,,,,,,,,
,,65d8ec51e80934b810623d98,66fc97fab7cdfc8675481a9a,2024-10-01_17h49.47.730,mdp,2024.2.1,Win32,59.95203837,66fa4ebf79326e780c390304,,,,,,,,,,,,,,,,,,,,,2696.091,2696.091,2696.093,2696.873,0,1,left,0.251,,2696.875,2696.877,0,0,,2696.879,2696.88,1,1,,0,2696.88,2696.88,2696.881,2698.373,0,24,24,24,1,0.6,0.4,0.8,0.2,1,0,,,,,,,,,,,,,,,,,,,,,,,,,,,,,,,,,,,,
,,65d8ec51e80934b810623d98,66fc97fab7cdfc8675481a9a,2024-10-01_17h49.47.730,mdp,2024.2.1,Win32,59.95203837,66fa4ebf79326e780c390304,,,,,,,,,,,,,,,,,,,,,2698.375,2698.375,2698.376,2699.307,0,1,left,0.399,,2699.309,2699.31,0,0,,2699.311,2699.312,1,0,,0,2699.312,2699.312,2699.314,2700.806,0,25,25,25,1,0.8,0.2,0.6,0.4,1,0,,,,,,,,,,,,,,,,,,,,,,,,,,,,,,,,,,,,
,,65d8ec51e80934b810623d98,66fc97fab7cdfc8675481a9a,2024-10-01_17h49.47.730,mdp,2024.2.1,Win32,59.95203837,66fa4ebf79326e780c390304,,,,,,,,,,,,,,,,,,,,,2700.807,2700.807,2700.809,2701.824,0,0,left,0.5,,2701.826,2701.827,0,0,,2701.829,2701.83,1,1,,1,2701.83,2701.83,2701.831,2703.325,0,26,26,26,1,0.8,0.2,0.6,0.4,1,0,,,,,,,,,,,,,,,,,,,,,,,,,,,,,,,,,,,,
,,65d8ec51e80934b810623d98,66fc97fab7cdfc8675481a9a,2024-10-01_17h49.47.730,mdp,2024.2.1,Win32,59.95203837,66fa4ebf79326e780c390304,,,,,,,,,,,,,,,,,,,,,2703.328,2703.328,2703.334,2704.207,0,0,left,0.358,,2704.21,2704.211,0,0,,2704.213,2704.215,1,0,,1,2704.215,2704.215,2704.216,2705.708,0,27,27,27,1,0.6,0.4,0.4,0.6,1,0,,,,,,,,,,,,,,,,,,,,,,,,,,,,,,,,,,,,
,,65d8ec51e80934b810623d98,66fc97fab7cdfc8675481a9a,2024-10-01_17h49.47.730,mdp,2024.2.1,Win32,59.95203837,66fa4ebf79326e780c390304,,,,,,,,,,,,,,,,,,,,,2705.709,2705.709,2705.71,2706.408,0,1,left,0.177,,2706.409,2706.411,0,1,,2706.412,2706.414,1,0,,0,2706.414,2706.414,2706.414,2707.907,0,28,28,28,1,0.6,0.4,0.4,0.6,1,0,,,,,,,,,,,,,,,,,,,,,,,,,,,,,,,,,,,,
,,65d8ec51e80934b810623d98,66fc97fab7cdfc8675481a9a,2024-10-01_17h49.47.730,mdp,2024.2.1,Win32,59.95203837,66fa4ebf79326e780c390304,,,,,,,,,,,,,,,,,,,,,2707.908,2707.908,2707.91,2709.124,1,1,right,0.685,,2709.126,2709.129,0,0,,2709.13,2709.132,1,1,,0,2709.132,2709.132,2709.133,2710.624,0,29,29,29,1,0.6,0.4,0.4,0.6,1,0,,,,,,,,,,,,,,,,,,,,,,,,,,,,,,,,,,,,
,,65d8ec51e80934b810623d98,66fc97fab7cdfc8675481a9a,2024-10-01_17h49.47.730,mdp,2024.2.1,Win32,59.95203837,66fa4ebf79326e780c390304,,,,,,,,,,,,,,,,,,,,,2710.625,2710.625,2710.626,2711.557,1,1,right,0.401,,2711.56,2711.561,0,0,,2711.563,2711.564,1,1,,0,2711.564,2711.564,2711.565,2713.057,0,30,30,30,1,0.6,0.4,0.4,0.6,1,0,,,,,,,,,,,,,,,,,,,,,,,,,,,,,,,,,,,,
,,65d8ec51e80934b810623d98,66fc97fab7cdfc8675481a9a,2024-10-01_17h49.47.730,mdp,2024.2.1,Win32,59.95203837,66fa4ebf79326e780c390304,,,,,,,,,,,,,,,,,,,,,2713.058,2713.058,2713.06,2714.274,0,1,left,0.688,,2714.276,2714.278,0,1,,2714.279,2714.28,1,1,,0,2714.28,2714.28,2714.281,2715.775,0,31,31,31,1,0.4,0.6,0.6,0.4,1,0,,,,,,,,,,,,,,,,,,,,,,,,,,,,,,,,,,,,
,,65d8ec51e80934b810623d98,66fc97fab7cdfc8675481a9a,2024-10-01_17h49.47.730,mdp,2024.2.1,Win32,59.95203837,66fa4ebf79326e780c390304,,,,,,,,,,,,,,,,,,,,,2715.776,2715.776,2715.777,2717.007,0,0,left,0.704,,2717.009,2717.011,0,0,,2717.013,2717.014,1,0,,1,2717.014,2717.014,2717.015,2718.508,0,32,32,32,1,0.8,0.2,0.4,0.6,1,0,,,,,,,,,,,,,,,,,,,,,,,,,,,,,,,,,,,,
,,65d8ec51e80934b810623d98,66fc97fab7cdfc8675481a9a,2024-10-01_17h49.47.730,mdp,2024.2.1,Win32,59.95203837,66fa4ebf79326e780c390304,,,,,,,,,,,,,,,,,,,,,2718.509,2718.509,2718.51,2719.758,0,0,left,0.717,,2719.759,2719.762,0,0,,2719.763,2719.763,1,0,,1,2719.763,2719.763,2719.764,2721.258,0,33,33,33,1,0.8,0.2,0.4,0.6,1,0,,,,,,,,,,,,,,,,,,,,,,,,,,,,,,,,,,,,
,,65d8ec51e80934b810623d98,66fc97fab7cdfc8675481a9a,2024-10-01_17h49.47.730,mdp,2024.2.1,Win32,59.95203837,66fa4ebf79326e780c390304,,,,,,,,,,,,,,,,,,,,,2721.259,2721.259,2721.26,2732.225,0,1,left,10.434,,2732.227,2732.228,0,0,,2732.23,2732.231,1,0,,0,2732.231,2732.231,2732.232,2733.725,0,34,34,34,1,0.8,0.2,0.4,0.6,1,0,,,,,,,,,,,,,,,,,,,,,,,,,,,,,,,,,,,,
,,65d8ec51e80934b810623d98,66fc97fab7cdfc8675481a9a,2024-10-01_17h49.47.730,mdp,2024.2.1,Win32,59.95203837,66fa4ebf79326e780c390304,,,,,,,,,,,,,,,,,,,,,2733.726,2733.726,2733.728,2734.792,0,0,left,0.543,,2734.794,2734.796,0,0,,2734.797,2734.798,1,0,,1,2734.798,2734.798,2734.799,2736.292,0,35,35,35,1,0.8,0.2,0.4,0.6,1,0,,,,,,,,,,,,,,,,,,,,,,,,,,,,,,,,,,,,
,,65d8ec51e80934b810623d98,66fc97fab7cdfc8675481a9a,2024-10-01_17h49.47.730,mdp,2024.2.1,Win32,59.95203837,66fa4ebf79326e780c390304,,,,,,,,,,,,,,,,,,,,,2736.292,2736.292,2736.294,2737.21,0,1,left,0.406,,2737.218,2737.223,0,1,,2737.225,2737.227,1,1,,0,2737.227,2737.227,2737.228,2738.726,0,36,36,36,1,0.4,0.6,0.6,0.4,1,0,,,,,,,,,,,,,,,,,,,,,,,,,,,,,,,,,,,,
,,65d8ec51e80934b810623d98,66fc97fab7cdfc8675481a9a,2024-10-01_17h49.47.730,mdp,2024.2.1,Win32,59.95203837,66fa4ebf79326e780c390304,,,,,,,,,,,,,,,,,,,,,2738.727,2738.727,2738.729,2739.859,0,1,left,0.608,,2739.86,2739.863,0,0,,2739.864,2739.866,1,0,,0,2739.866,2739.866,2739.867,2741.359,0,37,37,37,1,0.4,0.6,0.6,0.4,1,0,,,,,,,,,,,,,,,,,,,,,,,,,,,,,,,,,,,,
,,65d8ec51e80934b810623d98,66fc97fab7cdfc8675481a9a,2024-10-01_17h49.47.730,mdp,2024.2.1,Win32,59.95203837,66fa4ebf79326e780c390304,,,,,,,,,,,,,,,,,,,,,2741.359,2741.359,2741.361,2742.593,0,0,left,0.725,,2742.595,2742.597,0,0,,2742.598,2742.601,1,0,,1,2742.601,2742.601,2742.602,2744.093,0,38,38,38,1,0.4,0.6,0.6,0.4,1,0,,,,,,,,,,,,,,,,,,,,,,,,,,,,,,,,,,,,
,,65d8ec51e80934b810623d98,66fc97fab7cdfc8675481a9a,2024-10-01_17h49.47.730,mdp,2024.2.1,Win32,59.95203837,66fa4ebf79326e780c390304,,,,,,,,,,,,,,,,,,,,,2744.094,2744.094,2744.095,2746.776,0,0,left,2.151,,2746.778,2746.779,0,0,,2746.781,2746.783,1,0,,1,2746.783,2746.783,2746.784,2748.276,0,39,39,39,1,0.6,0.4,0.4,0.6,1,0,,,,,,,,,,,,,,,,,,,,,,,,,,,,,,,,,,,,
,,65d8ec51e80934b810623d98,66fc97fab7cdfc8675481a9a,2024-10-01_17h49.47.730,mdp,2024.2.1,Win32,59.95203837,66fa4ebf79326e780c390304,,,,,,,,,,,,,,,,,,,,,2748.276,2748.276,2748.277,2751.293,0,0,left,2.502,,2751.294,2751.296,0,0,,2751.297,2751.299,1,1,,1,2751.299,2751.299,2751.3,2752.792,0,40,40,40,1,0.6,0.4,0.4,0.6,1,0,,,,,,,,,,,,,,,,,,,,,,,,,,,,,,,,,,,,
,,65d8ec51e80934b810623d98,66fc97fab7cdfc8675481a9a,2024-10-01_17h49.47.730,mdp,2024.2.1,Win32,59.95203837,66fa4ebf79326e780c390304,,,,,,,,,,,,,,,,,,,,,2752.793,2752.793,2752.794,2753.926,0,1,left,0.624,,2753.928,2753.93,0,1,,2753.931,2753.932,1,0,,0,2753.932,2753.932,2753.933,2755.427,0,41,41,41,1,0.6,0.4,0.4,0.6,1,0,,,,,,,,,,,,,,,,,,,,,,,,,,,,,,,,,,,,
,,65d8ec51e80934b810623d98,66fc97fab7cdfc8675481a9a,2024-10-01_17h49.47.730,mdp,2024.2.1,Win32,59.95203837,66fa4ebf79326e780c390304,,,,,,,,,,,,,,,,,,,,,2755.427,2755.427,2755.428,2757.843,0,1,left,1.887,,2757.844,2757.846,0,1,,2757.848,2757.849,1,0,,0,2757.849,2757.849,2757.85,2759.343,0,42,42,42,1,0.2,0.8,0.6,0.4,1,0,,,,,,,,,,,,,,,,,,,,,,,,,,,,,,,,,,,,
,,65d8ec51e80934b810623d98,66fc97fab7cdfc8675481a9a,2024-10-01_17h49.47.730,mdp,2024.2.1,Win32,59.95203837,66fa4ebf79326e780c390304,,,,,,,,,,,,,,,,,,,,,2759.343,2759.343,2759.344,2760.71,0,1,left,0.852,,2760.711,2760.713,0,1,,2760.714,2760.715,1,1,,0,2760.715,2760.715,2760.716,2762.21,0,43,43,43,1,0.2,0.8,0.6,0.4,1,0,,,,,,,,,,,,,,,,,,,,,,,,,,,,,,,,,,,,
,,65d8ec51e80934b810623d98,66fc97fab7cdfc8675481a9a,2024-10-01_17h49.47.730,mdp,2024.2.1,Win32,59.95203837,66fa4ebf79326e780c390304,,,,,,,,,,,,,,,,,,,,,2762.211,2762.211,2762.212,2763.193,0,0,left,0.451,,2763.195,2763.197,0,1,,2763.197,2763.199,1,1,,1,2763.199,2763.199,2763.2,2764.694,0,44,44,44,1,0.2,0.8,0.6,0.4,1,0,,,,,,,,,,,,,,,,,,,,,,,,,,,,,,,,,,,,
,,65d8ec51e80934b810623d98,66fc97fab7cdfc8675481a9a,2024-10-01_17h49.47.730,mdp,2024.2.1,Win32,59.95203837,66fa4ebf79326e780c390304,,,,,,,,,,,,,,,,,,,,,2764.694,2764.694,2764.696,2765.643,0,1,left,0.417,,2765.645,2765.647,0,0,,2765.648,2765.649,1,0,,0,2765.649,2765.649,2765.65,2767.145,0,45,45,45,1,0.8,0.2,0.2,0.8,1,0,,,,,,,,,,,,,,,,,,,,,,,,,,,,,,,,,,,,
,,65d8ec51e80934b810623d98,66fc97fab7cdfc8675481a9a,2024-10-01_17h49.47.730,mdp,2024.2.1,Win32,59.95203837,66fa4ebf79326e780c390304,,,,,,,,,,,,,,,,,,,,,2767.15,2767.15,2767.154,2768.694,0,0,left,1.018,,2768.696,2768.699,0,0,,2768.7,2768.702,1,1,,1,2768.702,2768.702,2768.703,2770.194,0,46,46,46,1,0.8,0.2,0.2,0.8,1,0,,,,,,,,,,,,,,,,,,,,,,,,,,,,,,,,,,,,
,,65d8ec51e80934b810623d98,66fc97fab7cdfc8675481a9a,2024-10-01_17h49.47.730,mdp,2024.2.1,Win32,59.95203837,66fa4ebf79326e780c390304,,,,,,,,,,,,,,,,,,,,,2770.195,2770.195,2770.196,2771.444,0,0,left,0.718,,2771.446,2771.449,0,0,,2771.45,2771.452,1,1,,1,2771.452,2771.452,2771.453,2772.944,0,47,47,47,1,0.8,0.2,0.2,0.8,1,0,,,,,,,,,,,,,,,,,,,,,,,,,,,,,,,,,,,,
,,65d8ec51e80934b810623d98,66fc97fab7cdfc8675481a9a,2024-10-01_17h49.47.730,mdp,2024.2.1,Win32,59.95203837,66fa4ebf79326e780c390304,,,,,,,,,,,,,,,,,,,,,2772.944,2772.944,2772.947,2774.21,0,0,left,0.741,,2774.212,2774.215,0,0,,2774.216,2774.219,1,1,,1,2774.219,2774.219,2774.219,2775.71,0,48,48,48,1,0.8,0.2,0.2,0.8,1,0,,,,,,,,,,,,,,,,,,,,,,,,,,,,,,,,,,,,
