init_exp.started,init_exp.stopped,participant,session,date,expName,psychopyVersion,OS,frameRate,study_id,disp_instruction.started,disp_instruction.stopped,instruction.thisRepN,instruction.thisTrialN,instruction.thisN,instruction.thisIndex,instruction.ran,instimg_path,consent.started,consent.stopped,key_resp_3.keys,key_resp_3.rt,key_resp_3.duration,n_steps,sequence_path,init_block.started,init_block.stopped,key_resp.keys,key_resp.rt,key_resp.duration,init_trials.started,init_trials.stopped,step0.started,step0.stopped,act0,s1,res0.keys,res0.rt,res0.duration,step1.started,step1.stopped,act1,s2,res1.keys,step2.started,step2.stopped,act2,s3,res2.keys,rew,reward_comp.started,reward_comp.stopped,reward_disp.started,reward_disp.stopped,trials.thisRepN,trials.thisTrialN,trials.thisN,trials.thisIndex,trials.ran,s00a0s10,s00a0s11,s00a1s10,s00a1s11,rew10,rew11,break_block.started,break_block.stopped,block.thisRepN,block.thisTrialN,block.thisN,block.thisIndex,block.ran,s00path,s10path,s11path,s20path,s21path,res1.rt,res1.duration,s10a0s20,s10a0s21,s10a1s20,s10a1s21,s11a0s20,s11a0s21,s11a1s20,s11a1s21,rew20,rew21,res2.rt,res2.duration,s20a0s30,s20a0s31,s20a1s30,s20a1s31,s21a0s30,s21a0s31,s21a1s30,s21a1s31,rew30,rew31
0.0001,0.0008,65dc9f26bed0f87772f68eed,66fc97926f6ca6ee5f33d400,2024-10-01_18h46.12.017,mdp,2024.2.1,Win32,15.01501502,66fa4ebf79326e780c390304,,,,,,,,,,,,,,,,,,,,,,,,,,,,,,,,,,,,,,,,,,,,,,,,,,,,,,,,,,,,,,,,,,,,,,,,,,,,,,,,,,,,,,,,,,,
,,65dc9f26bed0f87772f68eed,66fc97926f6ca6ee5f33d400,2024-10-01_18h46.12.017,mdp,2024.2.1,Win32,15.01501502,66fa4ebf79326e780c390304,0.0031,53.6504,0,0,0,0,1,rlnn_exp/rlnn_exp.001.png,,,,,,,,,,,,,,,,,,,,,,,,,,,,,,,,,,,,,,,,,,,,,,,,,,,,,,,,,,,,,,,,,,,,,,,,,,,,,,,,,,,
,,65dc9f26bed0f87772f68eed,66fc97926f6ca6ee5f33d400,2024-10-01_18h46.12.017,mdp,2024.2.1,Win32,15.01501502,66fa4ebf79326e780c390304,53.6507,138.1801,0,1,1,1,1,rlnn_exp/rlnn_exp.002.png,,,,,,,,,,,,,,,,,,,,,,,,,,,,,,,,,,,,,,,,,,,,,,,,,,,,,,,,,,,,,,,,,,,,,,,,,,,,,,,,,,,
,,65dc9f26bed0f87772f68eed,66fc97926f6ca6ee5f33d400,2024-10-01_18h46.12.017,mdp,2024.2.1,Win32,15.01501502,66fa4ebf79326e780c390304,138.1804,153.7259,0,2,2,2,1,rlnn_exp/rlnn_exp.003.png,,,,,,,,,,,,,,,,,,,,,,,,,,,,,,,,,,,,,,,,,,,,,,,,,,,,,,,,,,,,,,,,,,,,,,,,,,,,,,,,,,,
,,65dc9f26bed0f87772f68eed,66fc97926f6ca6ee5f33d400,2024-10-01_18h46.12.017,mdp,2024.2.1,Win32,15.01501502,66fa4ebf79326e780c390304,153.7264,181.9942,0,3,3,3,1,rlnn_exp/rlnn_exp.004.png,,,,,,,,,,,,,,,,,,,,,,,,,,,,,,,,,,,,,,,,,,,,,,,,,,,,,,,,,,,,,,,,,,,,,,,,,,,,,,,,,,,
,,65dc9f26bed0f87772f68eed,66fc97926f6ca6ee5f33d400,2024-10-01_18h46.12.017,mdp,2024.2.1,Win32,15.01501502,66fa4ebf79326e780c390304,,,,,,,,,181.9945,277.7811,y,85.6598,,,,,,,,,,,,,,,,,,,,,,,,,,,,,,,,,,,,,,,,,,,,,,,,,,,,,,,,,,,,,,,,,,,,,,,,,,,,,,,
,,65dc9f26bed0f87772f68eed,66fc97926f6ca6ee5f33d400,2024-10-01_18h46.12.017,mdp,2024.2.1,Win32,15.01501502,66fa4ebf79326e780c390304,,,,,,,,,,,,,,1,seqs/st1seq46.csv,277.7832,281.7635,space,3.3855,,281.7655,281.7656,281.7658,283.4631,1,0,right,1.0728,,283.4634,283.4642,,1,,283.4643,283.4651,,0,,1,283.4652,283.4653,283.4655,284.9265,0,0,0,0,1,0.4,0.6,0.6,0.4,1,0,,,,,,,,,,,,,,,,,,,,,,,,,,,,,,,,,,,,
,,65dc9f26bed0f87772f68eed,66fc97926f6ca6ee5f33d400,2024-10-01_18h46.12.017,mdp,2024.2.1,Win32,15.01501502,66fa4ebf79326e780c390304,,,,,,,,,,,,,,,,,,,,,284.9267,284.9267,284.9273,286.7827,1,0,right,1.2573,,286.7833,286.7838,,1,,286.7842,286.7845,,0,,1,286.7845,286.7845,286.7846,288.2302,0,1,1,1,1,0.8,0.2,0.8,0.2,1,0,,,,,,,,,,,,,,,,,,,,,,,,,,,,,,,,,,,,
,,65dc9f26bed0f87772f68eed,66fc97926f6ca6ee5f33d400,2024-10-01_18h46.12.017,mdp,2024.2.1,Win32,15.01501502,66fa4ebf79326e780c390304,,,,,,,,,,,,,,,,,,,,,288.2303,288.2303,288.231,290.3426,1,0,right,1.512,,290.3432,290.3435,,0,,290.3438,290.344,,1,,1,290.344,290.344,290.3443,291.862,0,2,2,2,1,0.8,0.2,0.8,0.2,1,0,,,,,,,,,,,,,,,,,,,,,,,,,,,,,,,,,,,,
,,65dc9f26bed0f87772f68eed,66fc97926f6ca6ee5f33d400,2024-10-01_18h46.12.017,mdp,2024.2.1,Win32,15.01501502,66fa4ebf79326e780c390304,,,,,,,,,,,,,,,,,,,,,291.8622,291.8622,291.8628,293.7742,1,0,right,1.2942,,293.7747,293.7751,,1,,293.7755,293.7758,,0,,1,293.7758,293.7758,293.7761,295.2717,0,3,3,3,1,0.8,0.2,0.8,0.2,1,0,,,,,,,,,,,,,,,,,,,,,,,,,,,,,,,,,,,,
,,65dc9f26bed0f87772f68eed,66fc97926f6ca6ee5f33d400,2024-10-01_18h46.12.017,mdp,2024.2.1,Win32,15.01501502,66fa4ebf79326e780c390304,,,,,,,,,,,,,,,,,,,,,295.2719,295.2719,295.2724,296.7045,1,0,right,0.8415,,296.7052,296.7054,,0,,296.7057,296.7059,,0,,1,296.7059,296.7059,296.7061,298.1735,0,4,4,4,1,0.8,0.2,0.8,0.2,1,0,,,,,,,,,,,,,,,,,,,,,,,,,,,,,,,,,,,,
,,65dc9f26bed0f87772f68eed,66fc97926f6ca6ee5f33d400,2024-10-01_18h46.12.017,mdp,2024.2.1,Win32,15.01501502,66fa4ebf79326e780c390304,,,,,,,,,,,,,,,,,,,,,298.1737,298.1737,298.1743,299.7723,1,0,right,1.0004,,299.773,299.7733,,0,,299.7737,299.774,,0,,1,299.7741,299.7741,299.7743,301.2878,0,5,5,5,1,0.8,0.2,0.8,0.2,1,0,,,,,,,,,,,,,,,,,,,,,,,,,,,,,,,,,,,,
,,65dc9f26bed0f87772f68eed,66fc97926f6ca6ee5f33d400,2024-10-01_18h46.12.017,mdp,2024.2.1,Win32,15.01501502,66fa4ebf79326e780c390304,,,,,,,,,,,,,,,,,,,,,301.288,301.288,301.2887,302.7296,1,0,right,0.8538,,302.7302,302.7306,,0,,302.7308,302.731,,0,,1,302.7311,302.7311,302.7316,304.1814,0,6,6,6,1,0.8,0.2,0.8,0.2,1,0,,,,,,,,,,,,,,,,,,,,,,,,,,,,,,,,,,,,
,,65dc9f26bed0f87772f68eed,66fc97926f6ca6ee5f33d400,2024-10-01_18h46.12.017,mdp,2024.2.1,Win32,15.01501502,66fa4ebf79326e780c390304,,,,,,,,,,,,,,,,,,,,,304.1817,304.1817,304.1823,305.7678,1,1,right,1.0101,,305.7683,305.7686,,0,,305.7688,305.769,,0,,0,305.769,305.769,305.7693,307.2198,0,7,7,7,1,0.8,0.2,0.8,0.2,1,0,,,,,,,,,,,,,,,,,,,,,,,,,,,,,,,,,,,,
,,65dc9f26bed0f87772f68eed,66fc97926f6ca6ee5f33d400,2024-10-01_18h46.12.017,mdp,2024.2.1,Win32,15.01501502,66fa4ebf79326e780c390304,,,,,,,,,,,,,,,,,,,,,307.2201,307.2201,307.2205,308.7107,1,0,right,0.9002,,308.7114,308.7118,,1,,308.7122,308.7124,,0,,1,308.7125,308.7125,308.7126,310.2159,0,8,8,8,1,0.8,0.2,0.8,0.2,1,0,,,,,,,,,,,,,,,,,,,,,,,,,,,,,,,,,,,,
,,65dc9f26bed0f87772f68eed,66fc97926f6ca6ee5f33d400,2024-10-01_18h46.12.017,mdp,2024.2.1,Win32,15.01501502,66fa4ebf79326e780c390304,,,,,,,,,,,,,,,,,,,,,310.216,310.2161,310.2166,311.765,1,0,right,0.9249,,311.7656,311.7659,,0,,311.7661,311.7663,,0,,1,311.7663,311.7663,311.7665,313.2176,0,9,9,9,1,0.8,0.2,0.8,0.2,1,0,,,,,,,,,,,,,,,,,,,,,,,,,,,,,,,,,,,,
,,65dc9f26bed0f87772f68eed,66fc97926f6ca6ee5f33d400,2024-10-01_18h46.12.017,mdp,2024.2.1,Win32,15.01501502,66fa4ebf79326e780c390304,,,,,,,,,,,,,,,,,,,,,313.2178,313.2178,313.2183,314.203,1,0,right,0.3816,,314.2036,314.204,,0,,314.2042,314.2044,,0,,1,314.2044,314.2044,314.2046,315.7234,0,10,10,10,1,0.8,0.2,0.8,0.2,1,0,,,,,,,,,,,,,,,,,,,,,,,,,,,,,,,,,,,,
,,65dc9f26bed0f87772f68eed,66fc97926f6ca6ee5f33d400,2024-10-01_18h46.12.017,mdp,2024.2.1,Win32,15.01501502,66fa4ebf79326e780c390304,,,,,,,,,,,,,,,,,,,,,315.7237,315.7237,315.7242,316.7689,1,1,right,0.4524,,316.7695,316.7698,,0,,316.7701,316.7703,,0,,0,316.7703,316.7703,316.7705,318.2853,0,11,11,11,1,0.8,0.2,0.8,0.2,1,0,,,,,,,,,,,,,,,,,,,,,,,,,,,,,,,,,,,,
,,65dc9f26bed0f87772f68eed,66fc97926f6ca6ee5f33d400,2024-10-01_18h46.12.017,mdp,2024.2.1,Win32,15.01501502,66fa4ebf79326e780c390304,,,,,,,,,,,,,,,,,,,,,318.2854,318.2854,318.2859,319.4232,1,0,right,0.5519,,319.4238,319.4241,,1,,319.4243,319.4245,,1,,1,319.4245,319.4245,319.4248,320.8682,0,12,12,12,1,0.8,0.2,0.8,0.2,1,0,,,,,,,,,,,,,,,,,,,,,,,,,,,,,,,,,,,,
,,65dc9f26bed0f87772f68eed,66fc97926f6ca6ee5f33d400,2024-10-01_18h46.12.017,mdp,2024.2.1,Win32,15.01501502,66fa4ebf79326e780c390304,,,,,,,,,,,,,,,,,,,,,320.8683,320.8683,320.8687,322.0959,1,0,right,0.6139,,322.0964,322.0967,,0,,322.097,322.0972,,0,,1,322.0973,322.0973,322.0974,323.6012,0,13,13,13,1,0.8,0.2,0.8,0.2,1,0,,,,,,,,,,,,,,,,,,,,,,,,,,,,,,,,,,,,
,,65dc9f26bed0f87772f68eed,66fc97926f6ca6ee5f33d400,2024-10-01_18h46.12.017,mdp,2024.2.1,Win32,15.01501502,66fa4ebf79326e780c390304,,,,,,,,,,,,,,,,,,,,,323.6014,323.6014,323.6019,324.5843,1,0,right,0.3985,,324.5848,324.5851,,0,,324.5853,324.5855,,0,,1,324.5855,324.5855,324.5857,326.1058,0,14,14,14,1,0.8,0.2,0.8,0.2,1,0,,,,,,,,,,,,,,,,,,,,,,,,,,,,,,,,,,,,
,,65dc9f26bed0f87772f68eed,66fc97926f6ca6ee5f33d400,2024-10-01_18h46.12.017,mdp,2024.2.1,Win32,15.01501502,66fa4ebf79326e780c390304,,,,,,,,,,,,,,,,,,,,,326.1061,326.1061,326.1065,327.6226,1,1,right,0.9193,,327.6231,327.6234,,0,,327.6237,327.6241,,1,,0,327.6241,327.6241,327.6244,329.0745,0,15,15,15,1,0.6,0.4,0.2,0.8,1,0,,,,,,,,,,,,,,,,,,,,,,,,,,,,,,,,,,,,
,,65dc9f26bed0f87772f68eed,66fc97926f6ca6ee5f33d400,2024-10-01_18h46.12.017,mdp,2024.2.1,Win32,15.01501502,66fa4ebf79326e780c390304,,,,,,,,,,,,,,,,,,,,,329.0746,329.0746,329.0751,330.5223,1,1,right,0.802,,330.5229,330.5233,,1,,330.5235,330.5237,,0,,0,330.5237,330.5237,330.524,332.0102,0,16,16,16,1,0.6,0.4,0.2,0.8,1,0,,,,,,,,,,,,,,,,,,,,,,,,,,,,,,,,,,,,
,,65dc9f26bed0f87772f68eed,66fc97926f6ca6ee5f33d400,2024-10-01_18h46.12.017,mdp,2024.2.1,Win32,15.01501502,66fa4ebf79326e780c390304,,,,,,,,,,,,,,,,,,,,,332.0104,332.0104,332.0109,333.4501,1,1,right,0.8072,,333.4506,333.4509,,1,,333.4512,333.4513,,1,,0,333.4513,333.4513,333.4515,334.9431,0,17,17,17,1,0.6,0.4,0.2,0.8,1,0,,,,,,,,,,,,,,,,,,,,,,,,,,,,,,,,,,,,
,,65dc9f26bed0f87772f68eed,66fc97926f6ca6ee5f33d400,2024-10-01_18h46.12.017,mdp,2024.2.1,Win32,15.01501502,66fa4ebf79326e780c390304,,,,,,,,,,,,,,,,,,,,,334.9434,334.9434,334.9438,336.2576,1,1,right,0.697,,336.2585,336.2589,,1,,336.2593,336.2596,,1,,0,336.2596,336.2596,336.2599,337.7294,0,18,18,18,1,0.6,0.4,0.2,0.8,1,0,,,,,,,,,,,,,,,,,,,,,,,,,,,,,,,,,,,,
,,65dc9f26bed0f87772f68eed,66fc97926f6ca6ee5f33d400,2024-10-01_18h46.12.017,mdp,2024.2.1,Win32,15.01501502,66fa4ebf79326e780c390304,,,,,,,,,,,,,,,,,,,,,337.7296,337.7296,337.7301,338.9428,1,1,right,0.6147,,338.9433,338.9436,,1,,338.9439,338.944,,0,,0,338.9441,338.9441,338.9444,340.4237,0,19,19,19,1,0.6,0.4,0.2,0.8,1,0,,,,,,,,,,,,,,,,,,,,,,,,,,,,,,,,,,,,
,,65dc9f26bed0f87772f68eed,66fc97926f6ca6ee5f33d400,2024-10-01_18h46.12.017,mdp,2024.2.1,Win32,15.01501502,66fa4ebf79326e780c390304,,,,,,,,,,,,,,,,,,,,,340.4239,340.4239,340.4244,341.441,1,1,right,0.3918,,341.4416,341.4419,,1,,341.4421,341.4423,,1,,0,341.4424,341.4424,341.4426,342.8954,0,20,20,20,1,0.6,0.4,0.2,0.8,1,0,,,,,,,,,,,,,,,,,,,,,,,,,,,,,,,,,,,,
,,65dc9f26bed0f87772f68eed,66fc97926f6ca6ee5f33d400,2024-10-01_18h46.12.017,mdp,2024.2.1,Win32,15.01501502,66fa4ebf79326e780c390304,,,,,,,,,,,,,,,,,,,,,342.8955,342.8955,342.8959,343.9722,1,0,right,0.4733,,343.9727,343.973,,0,,343.9732,343.9735,,0,,1,343.9736,343.9736,343.974,345.4221,0,21,21,21,1,0.4,0.6,0.8,0.2,1,0,,,,,,,,,,,,,,,,,,,,,,,,,,,,,,,,,,,,
,,65dc9f26bed0f87772f68eed,66fc97926f6ca6ee5f33d400,2024-10-01_18h46.12.017,mdp,2024.2.1,Win32,15.01501502,66fa4ebf79326e780c390304,,,,,,,,,,,,,,,,,,,,,345.4223,345.4223,345.4228,346.7279,1,0,right,0.705,,346.7285,346.7289,,0,,346.7294,346.7297,,0,,1,346.7297,346.7297,346.7299,348.2367,0,22,22,22,1,0.4,0.6,0.8,0.2,1,0,,,,,,,,,,,,,,,,,,,,,,,,,,,,,,,,,,,,
,,65dc9f26bed0f87772f68eed,66fc97926f6ca6ee5f33d400,2024-10-01_18h46.12.017,mdp,2024.2.1,Win32,15.01501502,66fa4ebf79326e780c390304,,,,,,,,,,,,,,,,,,,,,348.2368,348.2368,348.2373,349.4027,1,0,right,0.5398,,349.4033,349.4036,,0,,349.404,349.4044,,1,,1,349.4044,349.4044,349.4045,350.8753,0,23,23,23,1,0.4,0.6,0.8,0.2,1,0,,,,,,,,,,,,,,,,,,,,,,,,,,,,,,,,,,,,
,,65dc9f26bed0f87772f68eed,66fc97926f6ca6ee5f33d400,2024-10-01_18h46.12.017,mdp,2024.2.1,Win32,15.01501502,66fa4ebf79326e780c390304,,,,,,,,,,,,,,,,,,,,,350.8754,350.8754,350.8758,352.1812,1,0,right,0.6915,,352.1818,352.1821,,0,,352.1824,352.1828,,0,,1,352.1828,352.1828,352.183,353.6498,0,24,24,24,1,0.4,0.6,0.8,0.2,1,0,,,,,,,,,,,,,,,,,,,,,,,,,,,,,,,,,,,,
,,65dc9f26bed0f87772f68eed,66fc97926f6ca6ee5f33d400,2024-10-01_18h46.12.017,mdp,2024.2.1,Win32,15.01501502,66fa4ebf79326e780c390304,,,,,,,,,,,,,,,,,,,,,353.65,353.65,353.6504,355.0848,1,0,right,0.821,,355.0853,355.0855,,0,,355.0857,355.0859,,0,,1,355.0859,355.086,355.0861,356.6026,0,25,25,25,1,0.4,0.6,0.8,0.2,1,0,,,,,,,,,,,,,,,,,,,,,,,,,,,,,,,,,,,,
,,65dc9f26bed0f87772f68eed,66fc97926f6ca6ee5f33d400,2024-10-01_18h46.12.017,mdp,2024.2.1,Win32,15.01501502,66fa4ebf79326e780c390304,,,,,,,,,,,,,,,,,,,,,356.6028,356.6028,356.6032,357.5792,1,0,right,0.381,,357.5798,357.5801,,0,,357.5802,357.5804,,0,,1,357.5804,357.5804,357.5806,359.0859,0,26,26,26,1,0.4,0.6,0.8,0.2,1,0,,,,,,,,,,,,,,,,,,,,,,,,,,,,,,,,,,,,
,,65dc9f26bed0f87772f68eed,66fc97926f6ca6ee5f33d400,2024-10-01_18h46.12.017,mdp,2024.2.1,Win32,15.01501502,66fa4ebf79326e780c390304,,,,,,,,,,,,,,,,,,,,,359.0861,359.0862,359.0865,360.1593,1,0,right,0.4754,,360.1597,360.1601,,0,,360.1603,360.1605,,1,,1,360.1605,360.1605,360.1607,361.6619,0,27,27,27,1,0.4,0.6,0.8,0.2,1,0,,,,,,,,,,,,,,,,,,,,,,,,,,,,,,,,,,,,
,,65dc9f26bed0f87772f68eed,66fc97926f6ca6ee5f33d400,2024-10-01_18h46.12.017,mdp,2024.2.1,Win32,15.01501502,66fa4ebf79326e780c390304,,,,,,,,,,,,,,,,,,,,,361.6621,361.6621,361.6626,362.7801,1,0,right,0.4719,,362.7807,362.7809,,0,,362.7812,362.7814,,0,,1,362.7814,362.7814,362.7816,364.2607,0,28,28,28,1,0.4,0.6,0.8,0.2,1,0,,,,,,,,,,,,,,,,,,,,,,,,,,,,,,,,,,,,
,,65dc9f26bed0f87772f68eed,66fc97926f6ca6ee5f33d400,2024-10-01_18h46.12.017,mdp,2024.2.1,Win32,15.01501502,66fa4ebf79326e780c390304,,,,,,,,,,,,,,,,,,,,,364.2609,364.2609,364.2614,365.4262,1,0,right,0.5597,,365.4268,365.4271,,0,,365.4274,365.4276,,0,,1,365.4277,365.4277,365.4278,366.9455,0,29,29,29,1,0.4,0.6,0.8,0.2,1,0,,,,,,,,,,,,,,,,,,,,,,,,,,,,,,,,,,,,
,,65dc9f26bed0f87772f68eed,66fc97926f6ca6ee5f33d400,2024-10-01_18h46.12.017,mdp,2024.2.1,Win32,15.01501502,66fa4ebf79326e780c390304,,,,,,,,,,,,,,,,,,,,,366.9457,366.9457,366.9461,367.993,1,0,right,0.4714,,367.9935,367.9939,,1,,367.9941,367.9942,,0,,1,367.9943,367.9944,367.9945,369.4848,0,30,30,30,1,0.4,0.6,0.8,0.2,1,0,,,,,,,,,,,,,,,,,,,,,,,,,,,,,,,,,,,,
,,65dc9f26bed0f87772f68eed,66fc97926f6ca6ee5f33d400,2024-10-01_18h46.12.017,mdp,2024.2.1,Win32,15.01501502,66fa4ebf79326e780c390304,,,,,,,,,,,,,,,,,,,,,369.4851,369.4851,369.4855,370.7022,1,0,right,0.6355,,370.7026,370.703,,0,,370.7032,370.7033,,0,,1,370.7034,370.7034,370.7039,372.1551,0,31,31,31,1,0.4,0.6,0.8,0.2,1,0,,,,,,,,,,,,,,,,,,,,,,,,,,,,,,,,,,,,
,,65dc9f26bed0f87772f68eed,66fc97926f6ca6ee5f33d400,2024-10-01_18h46.12.017,mdp,2024.2.1,Win32,15.01501502,66fa4ebf79326e780c390304,,,,,,,,,,,,,,,,,,,,,372.1552,372.1552,372.1557,373.5414,1,0,right,0.7565,,373.542,373.5423,,0,,373.5424,373.5426,,1,,1,373.5426,373.5426,373.5428,375.0112,0,32,32,32,1,0.4,0.6,0.8,0.2,1,0,,,,,,,,,,,,,,,,,,,,,,,,,,,,,,,,,,,,
,,65dc9f26bed0f87772f68eed,66fc97926f6ca6ee5f33d400,2024-10-01_18h46.12.017,mdp,2024.2.1,Win32,15.01501502,66fa4ebf79326e780c390304,,,,,,,,,,,,,,,,,,,,,375.0114,375.0114,375.0118,376.1426,1,0,right,0.5316,,376.1431,376.1434,,0,,376.1437,376.1439,,0,,1,376.1439,376.1439,376.1441,377.62,0,33,33,33,1,0.4,0.6,0.8,0.2,1,0,,,,,,,,,,,,,,,,,,,,,,,,,,,,,,,,,,,,
,,65dc9f26bed0f87772f68eed,66fc97926f6ca6ee5f33d400,2024-10-01_18h46.12.017,mdp,2024.2.1,Win32,15.01501502,66fa4ebf79326e780c390304,,,,,,,,,,,,,,,,,,,,,377.6202,377.6202,377.6206,378.6052,1,1,right,0.3911,,378.6059,378.6063,,1,,378.6067,378.607,,1,,0,378.607,378.607,378.6072,380.1263,0,34,34,34,1,0.8,0.2,0.2,0.8,1,0,,,,,,,,,,,,,,,,,,,,,,,,,,,,,,,,,,,,
,,65dc9f26bed0f87772f68eed,66fc97926f6ca6ee5f33d400,2024-10-01_18h46.12.017,mdp,2024.2.1,Win32,15.01501502,66fa4ebf79326e780c390304,,,,,,,,,,,,,,,,,,,,,380.1264,380.1264,380.127,381.101,1,0,right,0.3858,,381.1014,381.1019,,0,,381.1024,381.1028,,1,,1,381.1028,381.1028,381.103,382.5912,0,35,35,35,1,0.2,0.8,0.8,0.2,1,0,,,,,,,,,,,,,,,,,,,,,,,,,,,,,,,,,,,,
,,65dc9f26bed0f87772f68eed,66fc97926f6ca6ee5f33d400,2024-10-01_18h46.12.017,mdp,2024.2.1,Win32,15.01501502,66fa4ebf79326e780c390304,,,,,,,,,,,,,,,,,,,,,382.5914,382.5914,382.5919,383.7233,1,0,right,0.5405,,383.7238,383.7241,,1,,383.7245,383.7248,,1,,1,383.7248,383.7248,383.7251,385.1948,0,36,36,36,1,0.2,0.8,0.8,0.2,1,0,,,,,,,,,,,,,,,,,,,,,,,,,,,,,,,,,,,,
,,65dc9f26bed0f87772f68eed,66fc97926f6ca6ee5f33d400,2024-10-01_18h46.12.017,mdp,2024.2.1,Win32,15.01501502,66fa4ebf79326e780c390304,,,,,,,,,,,,,,,,,,,,,385.1951,385.1951,385.1954,386.4624,1,0,right,0.6775,,386.4629,386.4632,,0,,386.4634,386.4635,,0,,1,386.4636,386.4636,386.4637,387.9661,0,37,37,37,1,0.2,0.8,0.8,0.2,1,0,,,,,,,,,,,,,,,,,,,,,,,,,,,,,,,,,,,,
,,65dc9f26bed0f87772f68eed,66fc97926f6ca6ee5f33d400,2024-10-01_18h46.12.017,mdp,2024.2.1,Win32,15.01501502,66fa4ebf79326e780c390304,,,,,,,,,,,,,,,,,,,,,387.9664,387.9664,387.9668,389.0227,1,0,right,0.4737,,389.0233,389.0238,,0,,389.0241,389.0243,,1,,1,389.0244,389.0244,389.0246,390.5412,0,38,38,38,1,0.2,0.8,0.8,0.2,1,0,,,,,,,,,,,,,,,,,,,,,,,,,,,,,,,,,,,,
,,65dc9f26bed0f87772f68eed,66fc97926f6ca6ee5f33d400,2024-10-01_18h46.12.017,mdp,2024.2.1,Win32,15.01501502,66fa4ebf79326e780c390304,,,,,,,,,,,,,,,,,,,,,390.5414,390.5414,390.5418,391.54,1,0,right,0.4039,,391.5405,391.5408,,0,,391.5411,391.5413,,0,,1,391.5413,391.5413,391.5414,393.0022,0,39,39,39,1,0.2,0.8,0.8,0.2,1,0,,,,,,,,,,,,,,,,,,,,,,,,,,,,,,,,,,,,
,,65dc9f26bed0f87772f68eed,66fc97926f6ca6ee5f33d400,2024-10-01_18h46.12.017,mdp,2024.2.1,Win32,15.01501502,66fa4ebf79326e780c390304,,,,,,,,,,,,,,,,,,,,,393.0024,393.0024,393.0037,394.5186,1,0,right,0.9254,,394.5191,394.5194,,0,,394.5196,394.5197,,0,,1,394.5198,394.5198,394.52,396.033,0,40,40,40,1,0.2,0.8,0.8,0.2,1,0,,,,,,,,,,,,,,,,,,,,,,,,,,,,,,,,,,,,
,,65dc9f26bed0f87772f68eed,66fc97926f6ca6ee5f33d400,2024-10-01_18h46.12.017,mdp,2024.2.1,Win32,15.01501502,66fa4ebf79326e780c390304,,,,,,,,,,,,,,,,,,,,,396.0332,396.0332,396.0336,396.9372,1,1,right,0.3144,,396.9377,396.9381,,0,,396.9383,396.9387,,0,,0,396.9387,396.9387,396.939,398.3959,0,41,41,41,1,0.2,0.8,0.8,0.2,1,0,,,,,,,,,,,,,,,,,,,,,,,,,,,,,,,,,,,,
,,65dc9f26bed0f87772f68eed,66fc97926f6ca6ee5f33d400,2024-10-01_18h46.12.017,mdp,2024.2.1,Win32,15.01501502,66fa4ebf79326e780c390304,,,,,,,,,,,,,,,,,,,,,398.3961,398.3961,398.3966,399.7848,1,0,right,0.7998,,399.7854,399.7856,,0,,399.7859,399.786,,0,,1,399.786,399.786,399.7862,401.2379,0,42,42,42,1,0.2,0.8,0.8,0.2,1,0,,,,,,,,,,,,,,,,,,,,,,,,,,,,,,,,,,,,
,,65dc9f26bed0f87772f68eed,66fc97926f6ca6ee5f33d400,2024-10-01_18h46.12.017,mdp,2024.2.1,Win32,15.01501502,66fa4ebf79326e780c390304,,,,,,,,,,,,,,,,,,,,,401.2381,401.2381,401.2385,402.5809,1,0,right,0.7716,,402.5814,402.5817,,0,,402.5819,402.582,,0,,1,402.5821,402.5821,402.5822,404.0343,0,43,43,43,1,0.2,0.8,0.8,0.2,1,0,,,,,,,,,,,,,,,,,,,,,,,,,,,,,,,,,,,,
,,65dc9f26bed0f87772f68eed,66fc97926f6ca6ee5f33d400,2024-10-01_18h46.12.017,mdp,2024.2.1,Win32,15.01501502,66fa4ebf79326e780c390304,,,,,,,,,,,,,,,,,,,,,404.0345,404.0345,404.035,405.3249,1,0,right,0.6686,,405.3255,405.3258,,0,,405.326,405.3262,,0,,1,405.3262,405.3262,405.3265,406.7844,0,44,44,44,1,0.2,0.8,0.8,0.2,1,0,,,,,,,,,,,,,,,,,,,,,,,,,,,,,,,,,,,,
,,65dc9f26bed0f87772f68eed,66fc97926f6ca6ee5f33d400,2024-10-01_18h46.12.017,mdp,2024.2.1,Win32,15.01501502,66fa4ebf79326e780c390304,,,,,,,,,,,,,,,,,,,,,406.7846,406.7846,406.785,407.9753,1,0,right,0.5971,,407.9759,407.9763,,0,,407.9766,407.9767,,0,,1,407.9768,407.9769,407.9772,409.4859,0,45,45,45,1,0.2,0.8,0.8,0.2,1,0,,,,,,,,,,,,,,,,,,,,,,,,,,,,,,,,,,,,
,,65dc9f26bed0f87772f68eed,66fc97926f6ca6ee5f33d400,2024-10-01_18h46.12.017,mdp,2024.2.1,Win32,15.01501502,66fa4ebf79326e780c390304,,,,,,,,,,,,,,,,,,,,,409.4862,409.4862,409.4866,410.8057,1,0,right,0.7088,,410.8063,410.8066,,0,,410.8067,410.807,,0,,1,410.807,410.807,410.8071,412.2975,0,46,46,46,1,0.2,0.8,0.8,0.2,1,0,,,,,,,,,,,,,,,,,,,,,,,,,,,,,,,,,,,,
,,65dc9f26bed0f87772f68eed,66fc97926f6ca6ee5f33d400,2024-10-01_18h46.12.017,mdp,2024.2.1,Win32,15.01501502,66fa4ebf79326e780c390304,,,,,,,,,,,,,,,,,,,,,412.2977,412.2977,412.2982,413.3081,1,1,right,0.388,,413.3086,413.3089,,1,,413.3093,413.3096,,1,,0,413.3096,413.3096,413.3098,414.773,0,47,47,47,1,0.8,0.2,0.4,0.6,1,0,,,,,,,,,,,,,,,,,,,,,,,,,,,,,,,,,,,,
,,65dc9f26bed0f87772f68eed,66fc97926f6ca6ee5f33d400,2024-10-01_18h46.12.017,mdp,2024.2.1,Win32,15.01501502,66fa4ebf79326e780c390304,,,,,,,,,,,,,,,,,,,,,414.7733,414.7733,414.7737,415.8488,1,0,right,0.4655,,415.8493,415.8496,,1,,415.8498,415.8499,,0,,1,415.85,415.85,415.8502,417.3243,0,48,48,48,1,0.8,0.2,0.4,0.6,1,0,,,,,,,,,,,,,,,,,,,,,,,,,,,,,,,,,,,,
,,65dc9f26bed0f87772f68eed,66fc97926f6ca6ee5f33d400,2024-10-01_18h46.12.017,mdp,2024.2.1,Win32,15.01501502,66fa4ebf79326e780c390304,,,,,,,,,,,,,,,,,,,,,417.3245,417.3245,417.325,418.3968,1,1,right,0.4692,,418.3974,418.3978,,1,,418.398,418.3981,,0,,0,418.3982,418.3982,418.3984,419.8489,0,49,49,49,1,0.8,0.2,0.4,0.6,1,0,,,,,,,,,,,,,,,,,,,,,,,,,,,,,,,,,,,,
,,65dc9f26bed0f87772f68eed,66fc97926f6ca6ee5f33d400,2024-10-01_18h46.12.017,mdp,2024.2.1,Win32,15.01501502,66fa4ebf79326e780c390304,,,,,,,,,,,,,,,,,,,,,,,,,,,,,,,,,,,,,,,,,,,,,,,,,,,,,,,,419.8492,478.4649,0,0,0,8,1,imgs/kangaroo.png,imgs/lion.png,imgs/horse.png,imgs/rabbit.png,imgs/bear.png,,,,,,,,,,,,,,,,,,,,,,,,
,,65dc9f26bed0f87772f68eed,66fc97926f6ca6ee5f33d400,2024-10-01_18h46.12.017,mdp,2024.2.1,Win32,15.01501502,66fa4ebf79326e780c390304,,,,,,,,,,,,,,2,seqs/st2seq33.csv,478.4654,487.409,space,8.3401,,487.412,487.412,487.4123,489.5906,0,0,left,1.6017,,489.5913,491.6283,0,0,left,491.629,491.6293,,0,,1,491.6293,491.6293,491.6296,493.0751,0,0,0,0,1,0.2,0.8,0.6,0.4,,,,,,,,,,,,,,,1.4125,,0.2,0.8,0.4,0.6,0.8,0.2,0.2,0.8,1,0,,,,,,,,,,,,
,,65dc9f26bed0f87772f68eed,66fc97926f6ca6ee5f33d400,2024-10-01_18h46.12.017,mdp,2024.2.1,Win32,15.01501502,66fa4ebf79326e780c390304,,,,,,,,,,,,,,,,,,,,,493.0754,493.0754,493.0759,494.7109,0,1,left,1.0442,,494.7116,496.74,1,1,right,496.7405,496.7409,,1,,0,496.7409,496.7409,496.7411,498.1932,0,1,1,1,1,0.2,0.8,0.6,0.4,,,,,,,,,,,,,,,1.4397,,0.2,0.8,0.4,0.6,0.8,0.2,0.2,0.8,1,0,,,,,,,,,,,,
,,65dc9f26bed0f87772f68eed,66fc97926f6ca6ee5f33d400,2024-10-01_18h46.12.017,mdp,2024.2.1,Win32,15.01501502,66fa4ebf79326e780c390304,,,,,,,,,,,,,,,,,,,,,498.1934,498.1934,498.1939,499.3981,0,0,left,0.598,,499.3987,501.0482,0,1,left,501.0488,501.0491,,1,,0,501.0491,501.0491,501.0494,502.4963,0,2,2,2,1,0.4,0.6,0.4,0.6,,,,,,,,,,,,,,,1.0581,,0.2,0.8,0.4,0.6,0.8,0.2,0.2,0.8,1,0,,,,,,,,,,,,
,,65dc9f26bed0f87772f68eed,66fc97926f6ca6ee5f33d400,2024-10-01_18h46.12.017,mdp,2024.2.1,Win32,15.01501502,66fa4ebf79326e780c390304,,,,,,,,,,,,,,,,,,,,,502.4966,502.4966,502.497,504.3915,0,1,left,1.2929,,504.3919,506.1137,0,0,left,506.1142,506.1145,,0,,1,506.1145,506.1145,506.1148,507.6175,0,3,3,3,1,0.4,0.6,0.4,0.6,,,,,,,,,,,,,,,1.1284,,0.2,0.8,0.4,0.6,0.8,0.2,0.2,0.8,1,0,,,,,,,,,,,,
,,65dc9f26bed0f87772f68eed,66fc97926f6ca6ee5f33d400,2024-10-01_18h46.12.017,mdp,2024.2.1,Win32,15.01501502,66fa4ebf79326e780c390304,,,,,,,,,,,,,,,,,,,,,507.6177,507.6177,507.6182,509.3079,0,1,left,1.0956,,509.3085,510.8073,0,0,left,510.8078,510.8081,,0,,1,510.8081,510.8081,510.8084,512.3324,0,4,4,4,1,0.4,0.6,0.4,0.6,,,,,,,,,,,,,,,0.8935,,0.2,0.8,0.4,0.6,0.8,0.2,0.2,0.8,1,0,,,,,,,,,,,,
,,65dc9f26bed0f87772f68eed,66fc97926f6ca6ee5f33d400,2024-10-01_18h46.12.017,mdp,2024.2.1,Win32,15.01501502,66fa4ebf79326e780c390304,,,,,,,,,,,,,,,,,,,,,512.3326,512.3326,512.3331,513.7049,0,0,left,0.777,,513.7055,516.0012,0,1,left,516.0018,516.002,,1,,0,516.0021,516.0021,516.0026,517.4689,0,5,5,5,1,0.4,0.6,0.4,0.6,,,,,,,,,,,,,,,1.6837,,0.2,0.8,0.4,0.6,0.8,0.2,0.2,0.8,1,0,,,,,,,,,,,,
,,65dc9f26bed0f87772f68eed,66fc97926f6ca6ee5f33d400,2024-10-01_18h46.12.017,mdp,2024.2.1,Win32,15.01501502,66fa4ebf79326e780c390304,,,,,,,,,,,,,,,,,,,,,517.4691,517.4691,517.4696,518.6237,0,1,left,0.546,,518.6243,520.1781,0,1,left,520.1787,520.1789,,0,,0,520.1789,520.1789,520.1793,521.6515,0,6,6,6,1,0.4,0.6,0.4,0.6,,,,,,,,,,,,,,,0.9676,,0.2,0.8,0.4,0.6,0.8,0.2,0.2,0.8,1,0,,,,,,,,,,,,
,,65dc9f26bed0f87772f68eed,66fc97926f6ca6ee5f33d400,2024-10-01_18h46.12.017,mdp,2024.2.1,Win32,15.01501502,66fa4ebf79326e780c390304,,,,,,,,,,,,,,,,,,,,,521.6517,521.6517,521.6521,522.7858,0,0,left,0.5328,,522.7865,524.2082,0,1,left,524.2087,524.2091,,1,,0,524.2091,524.2091,524.2093,525.7225,0,7,7,7,1,0.4,0.6,0.4,0.6,,,,,,,,,,,,,,,0.8342,,0.2,0.8,0.4,0.6,0.8,0.2,0.2,0.8,1,0,,,,,,,,,,,,
,,65dc9f26bed0f87772f68eed,66fc97926f6ca6ee5f33d400,2024-10-01_18h46.12.017,mdp,2024.2.1,Win32,15.01501502,66fa4ebf79326e780c390304,,,,,,,,,,,,,,,,,,,,,525.7227,525.7227,525.7232,527.2233,0,1,left,0.903,,527.2238,529.185,0,0,left,529.1856,529.1859,,0,,1,529.1859,529.1859,529.1861,530.6366,0,8,8,8,1,0.4,0.6,0.4,0.6,,,,,,,,,,,,,,,1.3696,,0.2,0.8,0.4,0.6,0.8,0.2,0.2,0.8,1,0,,,,,,,,,,,,
,,65dc9f26bed0f87772f68eed,66fc97926f6ca6ee5f33d400,2024-10-01_18h46.12.017,mdp,2024.2.1,Win32,15.01501502,66fa4ebf79326e780c390304,,,,,,,,,,,,,,,,,,,,,530.6368,530.6368,530.6373,531.7608,0,1,left,0.5328,,531.7614,533.4449,0,1,left,533.4455,533.4458,,0,,0,533.4458,533.4458,533.446,534.9023,0,9,9,9,1,0.4,0.6,0.4,0.6,,,,,,,,,,,,,,,1.0931,,0.2,0.8,0.4,0.6,0.2,0.8,0.8,0.2,1,0,,,,,,,,,,,,
,,65dc9f26bed0f87772f68eed,66fc97926f6ca6ee5f33d400,2024-10-01_18h46.12.017,mdp,2024.2.1,Win32,15.01501502,66fa4ebf79326e780c390304,,,,,,,,,,,,,,,,,,,,,534.9025,534.9025,534.9029,536.3129,0,1,left,0.7892,,536.3134,538.2185,1,0,right,538.2191,538.2194,,0,,1,538.2195,538.2195,538.2197,539.7116,0,10,10,10,1,0.4,0.6,0.4,0.6,,,,,,,,,,,,,,,1.3157,,0.2,0.8,0.4,0.6,0.2,0.8,0.8,0.2,1,0,,,,,,,,,,,,
,,65dc9f26bed0f87772f68eed,66fc97926f6ca6ee5f33d400,2024-10-01_18h46.12.017,mdp,2024.2.1,Win32,15.01501502,66fa4ebf79326e780c390304,,,,,,,,,,,,,,,,,,,,,539.7118,539.7118,539.7124,541.0045,0,0,left,0.6867,,541.005,542.6638,1,1,right,542.6644,542.6647,,1,,0,542.6647,542.6648,542.6649,544.1695,0,11,11,11,1,0.2,0.8,0.6,0.4,,,,,,,,,,,,,,,1.0643,,0.2,0.8,0.4,0.6,0.2,0.8,0.8,0.2,1,0,,,,,,,,,,,,
,,65dc9f26bed0f87772f68eed,66fc97926f6ca6ee5f33d400,2024-10-01_18h46.12.017,mdp,2024.2.1,Win32,15.01501502,66fa4ebf79326e780c390304,,,,,,,,,,,,,,,,,,,,,544.1698,544.1698,544.1702,545.1627,0,1,left,0.3984,,545.1633,546.472,1,0,right,546.4726,546.4728,,0,,1,546.4728,546.4728,546.4732,547.9904,0,12,12,12,1,0.2,0.8,0.6,0.4,,,,,,,,,,,,,,,0.713,,0.2,0.8,0.4,0.6,0.2,0.8,0.8,0.2,1,0,,,,,,,,,,,,
,,65dc9f26bed0f87772f68eed,66fc97926f6ca6ee5f33d400,2024-10-01_18h46.12.017,mdp,2024.2.1,Win32,15.01501502,66fa4ebf79326e780c390304,,,,,,,,,,,,,,,,,,,,,547.9906,547.9906,547.991,549.1971,1,0,right,0.6168,,549.1978,550.6474,0,0,left,550.6479,550.6481,,1,,1,550.6481,550.6481,550.6484,552.1055,0,13,13,13,1,0.6,0.4,0.4,0.6,,,,,,,,,,,,,,,0.8558,,0.2,0.8,0.4,0.6,0.2,0.8,0.8,0.2,1,0,,,,,,,,,,,,
,,65dc9f26bed0f87772f68eed,66fc97926f6ca6ee5f33d400,2024-10-01_18h46.12.017,mdp,2024.2.1,Win32,15.01501502,66fa4ebf79326e780c390304,,,,,,,,,,,,,,,,,,,,,552.1057,552.1057,552.1061,553.32,1,1,right,0.6117,,553.3205,555.1009,1,0,right,555.1014,555.1016,,1,,1,555.1016,555.1016,555.1019,556.6231,0,14,14,14,1,0.6,0.4,0.4,0.6,,,,,,,,,,,,,,,1.1754,,0.2,0.8,0.4,0.6,0.2,0.8,0.8,0.2,1,0,,,,,,,,,,,,
,,65dc9f26bed0f87772f68eed,66fc97926f6ca6ee5f33d400,2024-10-01_18h46.12.017,mdp,2024.2.1,Win32,15.01501502,66fa4ebf79326e780c390304,,,,,,,,,,,,,,,,,,,,,556.6233,556.6233,556.6237,557.7009,1,0,right,0.4854,,557.7014,559.2178,1,0,right,559.2183,559.2185,,0,,1,559.2185,559.2185,559.2188,560.6722,0,15,15,15,1,0.6,0.4,0.4,0.6,,,,,,,,,,,,,,,0.9237,,0.2,0.8,0.4,0.6,0.4,0.6,0.6,0.4,1,0,,,,,,,,,,,,
,,65dc9f26bed0f87772f68eed,66fc97926f6ca6ee5f33d400,2024-10-01_18h46.12.017,mdp,2024.2.1,Win32,15.01501502,66fa4ebf79326e780c390304,,,,,,,,,,,,,,,,,,,,,560.6725,560.6725,560.6729,561.817,1,0,right,0.5444,,561.8176,563.2636,1,1,right,563.2642,563.2645,,1,,0,563.2645,563.2645,563.2648,564.7462,0,16,16,16,1,0.6,0.4,0.4,0.6,,,,,,,,,,,,,,,0.8632,,0.2,0.8,0.4,0.6,0.4,0.6,0.6,0.4,1,0,,,,,,,,,,,,
,,65dc9f26bed0f87772f68eed,66fc97926f6ca6ee5f33d400,2024-10-01_18h46.12.017,mdp,2024.2.1,Win32,15.01501502,66fa4ebf79326e780c390304,,,,,,,,,,,,,,,,,,,,,564.7464,564.7464,564.7468,565.8053,1,1,right,0.4525,,565.8058,567.3261,1,0,right,567.3266,567.327,,0,,1,567.327,567.327,567.3272,568.8022,0,17,17,17,1,0.6,0.4,0.4,0.6,,,,,,,,,,,,,,,0.9171,,0.2,0.8,0.4,0.6,0.4,0.6,0.6,0.4,1,0,,,,,,,,,,,,
,,65dc9f26bed0f87772f68eed,66fc97926f6ca6ee5f33d400,2024-10-01_18h46.12.017,mdp,2024.2.1,Win32,15.01501502,66fa4ebf79326e780c390304,,,,,,,,,,,,,,,,,,,,,568.8024,568.8024,568.8029,570.0373,1,0,right,0.6208,,570.0378,571.4572,1,1,right,571.4577,571.458,,1,,0,571.458,571.458,571.4582,572.9194,0,18,18,18,1,0.6,0.4,0.4,0.6,,,,,,,,,,,,,,,0.83,,0.2,0.8,0.4,0.6,0.4,0.6,0.6,0.4,1,0,,,,,,,,,,,,
,,65dc9f26bed0f87772f68eed,66fc97926f6ca6ee5f33d400,2024-10-01_18h46.12.017,mdp,2024.2.1,Win32,15.01501502,66fa4ebf79326e780c390304,,,,,,,,,,,,,,,,,,,,,572.9196,572.9196,572.92,573.9972,1,1,right,0.4676,,573.9978,575.4139,1,0,right,575.4145,575.4148,,0,,1,575.4148,575.4148,575.4149,576.9136,0,19,19,19,1,0.6,0.4,0.4,0.6,,,,,,,,,,,,,,,0.8159,,0.2,0.8,0.4,0.6,0.4,0.6,0.6,0.4,1,0,,,,,,,,,,,,
,,65dc9f26bed0f87772f68eed,66fc97926f6ca6ee5f33d400,2024-10-01_18h46.12.017,mdp,2024.2.1,Win32,15.01501502,66fa4ebf79326e780c390304,,,,,,,,,,,,,,,,,,,,,576.9138,576.9138,576.9142,577.608,1,0,right,0.0917,,577.6083,578.9787,1,0,right,578.9793,578.9795,,1,,1,578.9795,578.9795,578.9797,580.4297,0,20,20,20,1,0.6,0.4,0.4,0.6,,,,,,,,,,,,,,,0.7803,,0.2,0.8,0.4,0.6,0.4,0.6,0.6,0.4,1,0,,,,,,,,,,,,
,,65dc9f26bed0f87772f68eed,66fc97926f6ca6ee5f33d400,2024-10-01_18h46.12.017,mdp,2024.2.1,Win32,15.01501502,66fa4ebf79326e780c390304,,,,,,,,,,,,,,,,,,,,,580.4299,580.4299,580.4304,581.625,1,1,right,0.5828,,581.6256,582.9954,1,0,right,582.996,582.9964,,0,,1,582.9965,582.9965,582.9969,584.5044,0,21,21,21,1,0.6,0.4,0.4,0.6,,,,,,,,,,,,,,,0.7851,,0.2,0.8,0.4,0.6,0.4,0.6,0.6,0.4,1,0,,,,,,,,,,,,
,,65dc9f26bed0f87772f68eed,66fc97926f6ca6ee5f33d400,2024-10-01_18h46.12.017,mdp,2024.2.1,Win32,15.01501502,66fa4ebf79326e780c390304,,,,,,,,,,,,,,,,,,,,,584.5047,584.5047,584.5051,585.4811,1,0,right,0.3916,,585.4818,586.9238,1,0,right,586.9244,586.9247,,0,,1,586.9247,586.9247,586.9249,588.4433,0,22,22,22,1,0.6,0.4,0.4,0.6,,,,,,,,,,,,,,,0.847,,0.6,0.4,0.6,0.4,0.4,0.6,0.6,0.4,1,0,,,,,,,,,,,,
,,65dc9f26bed0f87772f68eed,66fc97926f6ca6ee5f33d400,2024-10-01_18h46.12.017,mdp,2024.2.1,Win32,15.01501502,66fa4ebf79326e780c390304,,,,,,,,,,,,,,,,,,,,,588.4435,588.4435,588.4439,589.6547,1,1,right,0.6184,,589.6552,590.7264,1,0,right,590.727,590.7274,,0,,1,590.7274,590.7274,590.7276,592.178,0,23,23,23,1,0.6,0.4,0.4,0.6,,,,,,,,,,,,,,,0.4628,,0.6,0.4,0.6,0.4,0.4,0.6,0.6,0.4,1,0,,,,,,,,,,,,
,,65dc9f26bed0f87772f68eed,66fc97926f6ca6ee5f33d400,2024-10-01_18h46.12.017,mdp,2024.2.1,Win32,15.01501502,66fa4ebf79326e780c390304,,,,,,,,,,,,,,,,,,,,,592.1782,592.1782,592.1786,593.4423,1,0,right,0.6868,,593.4428,594.8182,1,0,right,594.8187,594.819,,0,,1,594.819,594.819,594.8193,596.2884,0,24,24,24,1,0.8,0.2,0.8,0.2,,,,,,,,,,,,,,,0.7775,,0.6,0.4,0.6,0.4,0.4,0.6,0.6,0.4,1,0,,,,,,,,,,,,
,,65dc9f26bed0f87772f68eed,66fc97926f6ca6ee5f33d400,2024-10-01_18h46.12.017,mdp,2024.2.1,Win32,15.01501502,66fa4ebf79326e780c390304,,,,,,,,,,,,,,,,,,,,,596.2891,596.2891,596.2904,597.2654,1,1,right,0.3364,,597.2661,598.3049,1,1,right,598.3055,598.3059,,1,,0,598.3059,598.3059,598.3062,599.7641,0,25,25,25,1,0.6,0.4,0.6,0.4,,,,,,,,,,,,,,,0.4079,,0.6,0.4,0.6,0.4,0.4,0.6,0.6,0.4,1,0,,,,,,,,,,,,
,,65dc9f26bed0f87772f68eed,66fc97926f6ca6ee5f33d400,2024-10-01_18h46.12.017,mdp,2024.2.1,Win32,15.01501502,66fa4ebf79326e780c390304,,,,,,,,,,,,,,,,,,,,,599.7643,599.7643,599.7648,600.6547,1,0,right,0.2535,,600.6553,601.5563,1,0,right,601.5569,601.5572,,0,,1,601.5572,601.5572,601.5575,603.0346,0,26,26,26,1,0.6,0.4,0.6,0.4,,,,,,,,,,,,,,,0.2443,,0.6,0.4,0.6,0.4,0.4,0.6,0.6,0.4,1,0,,,,,,,,,,,,
,,65dc9f26bed0f87772f68eed,66fc97926f6ca6ee5f33d400,2024-10-01_18h46.12.017,mdp,2024.2.1,Win32,15.01501502,66fa4ebf79326e780c390304,,,,,,,,,,,,,,,,,,,,,603.0348,603.0348,603.0354,603.9285,1,0,right,0.249,,603.9292,605.0023,1,0,right,605.0029,605.0032,,1,,1,605.0033,605.0033,605.0035,606.4517,0,27,27,27,1,0.6,0.4,0.6,0.4,,,,,,,,,,,,,,,0.4238,,0.6,0.4,0.6,0.4,0.4,0.6,0.6,0.4,1,0,,,,,,,,,,,,
,,65dc9f26bed0f87772f68eed,66fc97926f6ca6ee5f33d400,2024-10-01_18h46.12.017,mdp,2024.2.1,Win32,15.01501502,66fa4ebf79326e780c390304,,,,,,,,,,,,,,,,,,,,,606.452,606.452,606.4524,607.4321,1,0,right,0.3342,,607.4327,608.6758,1,1,right,608.6765,608.6768,,0,,0,608.6768,608.6768,608.677,610.1655,0,28,28,28,1,0.6,0.4,0.6,0.4,,,,,,,,,,,,,,,0.5932,,0.6,0.4,0.6,0.4,0.4,0.6,0.6,0.4,1,0,,,,,,,,,,,,
,,65dc9f26bed0f87772f68eed,66fc97926f6ca6ee5f33d400,2024-10-01_18h46.12.017,mdp,2024.2.1,Win32,15.01501502,66fa4ebf79326e780c390304,,,,,,,,,,,,,,,,,,,,,610.1657,610.1657,610.1662,610.9868,1,0,right,0.177,,610.9873,611.8025,1,1,right,611.8031,611.8034,,0,,0,611.8034,611.8034,611.8035,613.2833,0,29,29,29,1,0.6,0.4,0.6,0.4,,,,,,,,,,,,,,,0.2307,,0.6,0.4,0.6,0.4,0.4,0.6,0.6,0.4,1,0,,,,,,,,,,,,
,,65dc9f26bed0f87772f68eed,66fc97926f6ca6ee5f33d400,2024-10-01_18h46.12.017,mdp,2024.2.1,Win32,15.01501502,66fa4ebf79326e780c390304,,,,,,,,,,,,,,,,,,,,,613.2836,613.2836,613.2841,614.5477,0,0,left,0.6451,,614.5483,615.4821,1,0,right,615.4827,615.483,,1,,1,615.483,615.483,615.4833,616.9869,0,30,30,30,1,0.6,0.4,0.6,0.4,,,,,,,,,,,,,,,0.3202,,0.6,0.4,0.6,0.4,0.4,0.6,0.6,0.4,1,0,,,,,,,,,,,,
,,65dc9f26bed0f87772f68eed,66fc97926f6ca6ee5f33d400,2024-10-01_18h46.12.017,mdp,2024.2.1,Win32,15.01501502,66fa4ebf79326e780c390304,,,,,,,,,,,,,,,,,,,,,616.9871,616.9871,616.9876,617.8821,0,0,left,0.3014,,617.8828,618.8725,1,0,right,618.8731,618.8734,,1,,1,618.8734,618.8734,618.8736,620.3253,0,31,31,31,1,0.6,0.4,0.6,0.4,,,,,,,,,,,,,,,0.388,,0.6,0.4,0.6,0.4,0.4,0.6,0.6,0.4,1,0,,,,,,,,,,,,
,,65dc9f26bed0f87772f68eed,66fc97926f6ca6ee5f33d400,2024-10-01_18h46.12.017,mdp,2024.2.1,Win32,15.01501502,66fa4ebf79326e780c390304,,,,,,,,,,,,,,,,,,,,,620.3256,620.3256,620.3261,621.2492,0,1,left,0.3195,,621.2497,622.1625,1,0,right,622.1631,622.1634,,0,,1,622.1634,622.1634,622.1636,623.6607,0,32,32,32,1,0.6,0.4,0.6,0.4,,,,,,,,,,,,,,,0.3091,,0.8,0.2,0.4,0.6,0.4,0.6,0.6,0.4,1,0,,,,,,,,,,,,
,,65dc9f26bed0f87772f68eed,66fc97926f6ca6ee5f33d400,2024-10-01_18h46.12.017,mdp,2024.2.1,Win32,15.01501502,66fa4ebf79326e780c390304,,,,,,,,,,,,,,,,,,,,,623.6609,623.6609,623.6614,624.3967,0,0,left,0.1516,,624.3973,625.4267,1,1,right,625.4272,625.4276,,1,,0,625.4276,625.4276,625.4277,626.95,0,33,33,33,1,0.6,0.4,0.6,0.4,,,,,,,,,,,,,,,0.4081,,0.8,0.2,0.4,0.6,0.4,0.6,0.6,0.4,1,0,,,,,,,,,,,,
,,65dc9f26bed0f87772f68eed,66fc97926f6ca6ee5f33d400,2024-10-01_18h46.12.017,mdp,2024.2.1,Win32,15.01501502,66fa4ebf79326e780c390304,,,,,,,,,,,,,,,,,,,,,626.9502,626.9502,626.9505,627.9915,0,1,left,0.4554,,627.9921,628.9116,1,1,right,628.9123,628.9125,,1,,0,628.9125,628.9125,628.913,630.3622,0,34,34,34,1,0.6,0.4,0.6,0.4,,,,,,,,,,,,,,,0.3162,,0.8,0.2,0.4,0.6,0.4,0.6,0.6,0.4,1,0,,,,,,,,,,,,
,,65dc9f26bed0f87772f68eed,66fc97926f6ca6ee5f33d400,2024-10-01_18h46.12.017,mdp,2024.2.1,Win32,15.01501502,66fa4ebf79326e780c390304,,,,,,,,,,,,,,,,,,,,,630.3624,630.3624,630.3629,631.2779,0,0,left,0.308,,631.2785,632.2402,1,0,right,632.2408,632.2411,,1,,1,632.2411,632.2411,632.2413,633.7509,0,35,35,35,1,0.6,0.4,0.6,0.4,,,,,,,,,,,,,,,0.3698,,0.4,0.6,0.6,0.4,0.4,0.6,0.6,0.4,1,0,,,,,,,,,,,,
,,65dc9f26bed0f87772f68eed,66fc97926f6ca6ee5f33d400,2024-10-01_18h46.12.017,mdp,2024.2.1,Win32,15.01501502,66fa4ebf79326e780c390304,,,,,,,,,,,,,,,,,,,,,633.7512,633.7512,633.7516,634.6591,0,0,left,0.3151,,634.6596,635.5784,1,1,right,635.579,635.5793,,1,,0,635.5793,635.5793,635.5795,637.0517,0,36,36,36,1,0.6,0.4,0.6,0.4,,,,,,,,,,,,,,,0.3181,,0.4,0.6,0.6,0.4,0.4,0.6,0.6,0.4,1,0,,,,,,,,,,,,
,,65dc9f26bed0f87772f68eed,66fc97926f6ca6ee5f33d400,2024-10-01_18h46.12.017,mdp,2024.2.1,Win32,15.01501502,66fa4ebf79326e780c390304,,,,,,,,,,,,,,,,,,,,,637.0519,637.0519,637.0523,637.903,0,0,left,0.2402,,637.9036,639.03,0,0,left,639.0305,639.0308,,0,,1,639.0308,639.0308,639.031,640.514,0,37,37,37,1,0.6,0.4,0.6,0.4,,,,,,,,,,,,,,,0.5269,,0.8,0.2,0.2,0.8,0.4,0.6,0.6,0.4,1,0,,,,,,,,,,,,
,,65dc9f26bed0f87772f68eed,66fc97926f6ca6ee5f33d400,2024-10-01_18h46.12.017,mdp,2024.2.1,Win32,15.01501502,66fa4ebf79326e780c390304,,,,,,,,,,,,,,,,,,,,,640.5142,640.5142,640.5147,641.2095,0,0,left,0.0905,,641.21,642.4799,0,0,left,642.4804,642.4807,,0,,1,642.4807,642.4807,642.4809,643.9814,0,38,38,38,1,0.6,0.4,0.6,0.4,,,,,,,,,,,,,,,0.6877,,0.8,0.2,0.2,0.8,0.6,0.4,0.4,0.6,1,0,,,,,,,,,,,,
,,65dc9f26bed0f87772f68eed,66fc97926f6ca6ee5f33d400,2024-10-01_18h46.12.017,mdp,2024.2.1,Win32,15.01501502,66fa4ebf79326e780c390304,,,,,,,,,,,,,,,,,,,,,643.9815,643.9815,643.982,645.0488,0,1,left,0.4662,,645.0494,646.0152,0,1,left,646.0158,646.0162,,0,,0,646.0162,646.0162,646.0164,647.494,0,39,39,39,1,0.6,0.4,0.6,0.4,,,,,,,,,,,,,,,0.369,,0.8,0.2,0.2,0.8,0.6,0.4,0.4,0.6,1,0,,,,,,,,,,,,
,,65dc9f26bed0f87772f68eed,66fc97926f6ca6ee5f33d400,2024-10-01_18h46.12.017,mdp,2024.2.1,Win32,15.01501502,66fa4ebf79326e780c390304,,,,,,,,,,,,,,,,,,,,,647.4943,647.4943,647.4947,648.2478,0,1,left,0.1585,,648.2484,649.5036,1,0,right,649.5043,649.5047,,1,,1,649.5047,649.5047,649.5051,650.9454,0,40,40,40,1,0.6,0.4,0.6,0.4,,,,,,,,,,,,,,,0.671,,0.6,0.4,0.8,0.2,0.6,0.4,0.4,0.6,1,0,,,,,,,,,,,,
,,65dc9f26bed0f87772f68eed,66fc97926f6ca6ee5f33d400,2024-10-01_18h46.12.017,mdp,2024.2.1,Win32,15.01501502,66fa4ebf79326e780c390304,,,,,,,,,,,,,,,,,,,,,650.9456,650.9456,650.946,651.7547,0,0,left,0.2267,,651.7553,652.8854,0,1,left,652.886,652.8863,,0,,0,652.8863,652.8863,652.8865,654.3486,0,41,41,41,1,0.6,0.4,0.6,0.4,,,,,,,,,,,,,,,0.5387,,0.6,0.4,0.8,0.2,0.6,0.4,0.4,0.6,1,0,,,,,,,,,,,,
,,65dc9f26bed0f87772f68eed,66fc97926f6ca6ee5f33d400,2024-10-01_18h46.12.017,mdp,2024.2.1,Win32,15.01501502,66fa4ebf79326e780c390304,,,,,,,,,,,,,,,,,,,,,654.3488,654.3489,654.3493,655.0794,0,1,left,0.1544,,655.0799,656.749,0,1,left,656.7495,656.7498,,1,,0,656.7498,656.7498,656.7501,658.2538,0,42,42,42,1,0.6,0.4,0.6,0.4,,,,,,,,,,,,,,,1.0743,,0.6,0.4,0.8,0.2,0.6,0.4,0.4,0.6,1,0,,,,,,,,,,,,
,,65dc9f26bed0f87772f68eed,66fc97926f6ca6ee5f33d400,2024-10-01_18h46.12.017,mdp,2024.2.1,Win32,15.01501502,66fa4ebf79326e780c390304,,,,,,,,,,,,,,,,,,,,,658.254,658.254,658.2543,659.0901,0,0,left,0.2256,,659.0906,660.5029,0,0,left,660.5036,660.504,,0,,1,660.504,660.504,660.5043,662.0221,0,43,43,43,1,0.6,0.4,0.6,0.4,,,,,,,,,,,,,,,0.8332,,0.6,0.4,0.8,0.2,0.6,0.4,0.4,0.6,1,0,,,,,,,,,,,,
,,65dc9f26bed0f87772f68eed,66fc97926f6ca6ee5f33d400,2024-10-01_18h46.12.017,mdp,2024.2.1,Win32,15.01501502,66fa4ebf79326e780c390304,,,,,,,,,,,,,,,,,,,,,662.0224,662.0224,662.0228,662.8716,0,1,left,0.2333,,662.872,664.1122,1,0,right,664.1128,664.1131,,1,,1,664.1132,664.1132,664.1133,665.632,0,44,44,44,1,0.6,0.4,0.6,0.4,,,,,,,,,,,,,,,0.6277,,0.6,0.4,0.8,0.2,0.6,0.4,0.4,0.6,1,0,,,,,,,,,,,,
,,65dc9f26bed0f87772f68eed,66fc97926f6ca6ee5f33d400,2024-10-01_18h46.12.017,mdp,2024.2.1,Win32,15.01501502,66fa4ebf79326e780c390304,,,,,,,,,,,,,,,,,,,,,665.6323,665.6323,665.6327,666.2361,0,0,left,0.0068,,666.2367,667.9743,1,1,right,667.9749,667.9752,,0,,0,667.9753,667.9753,667.9755,669.4604,0,45,45,45,1,0.6,0.4,0.6,0.4,,,,,,,,,,,,,,,1.1402,,0.6,0.4,0.8,0.2,0.6,0.4,0.4,0.6,1,0,,,,,,,,,,,,
,,65dc9f26bed0f87772f68eed,66fc97926f6ca6ee5f33d400,2024-10-01_18h46.12.017,mdp,2024.2.1,Win32,15.01501502,66fa4ebf79326e780c390304,,,,,,,,,,,,,,,,,,,,,669.4606,669.4606,669.4611,670.5076,0,1,left,0.4527,,670.5082,672.8419,1,0,right,672.8425,672.8428,,1,,1,672.8429,672.8429,672.843,674.2903,0,46,46,46,1,0.6,0.4,0.6,0.4,,,,,,,,,,,,,,,1.7413,,0.6,0.4,0.8,0.2,0.6,0.4,0.4,0.6,1,0,,,,,,,,,,,,
,,65dc9f26bed0f87772f68eed,66fc97926f6ca6ee5f33d400,2024-10-01_18h46.12.017,mdp,2024.2.1,Win32,15.01501502,66fa4ebf79326e780c390304,,,,,,,,,,,,,,,,,,,,,674.2905,674.2905,674.291,675.2608,0,1,left,0.3778,,675.2613,676.8364,1,1,right,676.837,676.8372,,0,,0,676.8372,676.8372,676.8375,678.338,0,47,47,47,1,0.6,0.4,0.6,0.4,,,,,,,,,,,,,,,0.9898,,0.6,0.4,0.8,0.2,0.6,0.4,0.4,0.6,1,0,,,,,,,,,,,,
,,65dc9f26bed0f87772f68eed,66fc97926f6ca6ee5f33d400,2024-10-01_18h46.12.017,mdp,2024.2.1,Win32,15.01501502,66fa4ebf79326e780c390304,,,,,,,,,,,,,,,,,,,,,678.3382,678.3382,678.3387,679.3328,0,0,left,0.3914,,679.3333,681.413,1,0,right,681.4136,681.4139,,0,,1,681.4139,681.4139,681.4141,682.881,0,48,48,48,1,0.6,0.4,0.6,0.4,,,,,,,,,,,,,,,1.4824,,0.6,0.4,0.8,0.2,0.2,0.8,0.2,0.8,1,0,,,,,,,,,,,,
,,65dc9f26bed0f87772f68eed,66fc97926f6ca6ee5f33d400,2024-10-01_18h46.12.017,mdp,2024.2.1,Win32,15.01501502,66fa4ebf79326e780c390304,,,,,,,,,,,,,,,,,,,,,682.8812,682.8812,682.8816,684.0343,0,0,left,0.5427,,684.0348,685.3835,1,0,right,685.384,685.3843,,0,,1,685.3843,685.3843,685.3845,686.877,0,49,49,49,1,0.6,0.4,0.6,0.4,,,,,,,,,,,,,,,0.7743,,0.6,0.4,0.8,0.2,0.2,0.8,0.2,0.8,1,0,,,,,,,,,,,,
,,65dc9f26bed0f87772f68eed,66fc97926f6ca6ee5f33d400,2024-10-01_18h46.12.017,mdp,2024.2.1,Win32,15.01501502,66fa4ebf79326e780c390304,,,,,,,,,,,,,,,,,,,,,,,,,,,,,,,,,,,,,,,,,,,,,,,,,,,,,,,,686.8771,743.5816,0,1,1,7,1,imgs/giraffe.png,imgs/elephant.png,imgs/rabbit.png,imgs/dog.png,imgs/goat.png,,,,,,,,,,,,,,,,,,,,,,,,
,,65dc9f26bed0f87772f68eed,66fc97926f6ca6ee5f33d400,2024-10-01_18h46.12.017,mdp,2024.2.1,Win32,15.01501502,66fa4ebf79326e780c390304,,,,,,,,,,,,,,3,seqs/st3seq29.csv,743.5822,748.6073,space,4.4026,,748.6111,748.6112,748.6116,751.2011,0,0,left,1.9867,,751.2016,752.7838,0,1,left,752.7844,754.8606,0,1,left,0,754.8606,754.8606,754.8612,756.3685,0,0,0,0,1,0.6,0.4,0.2,0.8,,,,,,,,,,,,,,,0.9785,,0.4,0.6,0.6,0.4,0.8,0.2,0.2,0.8,,,1.478,,0.4,0.6,0.4,0.6,0.8,0.2,0.6,0.4,1,0
,,65dc9f26bed0f87772f68eed,66fc97926f6ca6ee5f33d400,2024-10-01_18h46.12.017,mdp,2024.2.1,Win32,15.01501502,66fa4ebf79326e780c390304,,,,,,,,,,,,,,,,,,,,,756.3688,756.3688,756.3692,757.3267,0,1,left,0.3811,,757.3273,759.2586,0,0,left,759.2593,760.9023,0,1,left,0,760.9024,760.9024,760.9029,762.4161,0,1,1,1,1,0.6,0.4,0.2,0.8,,,,,,,,,,,,,,,1.3367,,0.4,0.6,0.6,0.4,0.8,0.2,0.2,0.8,,,1.0414,,0.4,0.6,0.4,0.6,0.4,0.6,0.8,0.2,1,0
,,65dc9f26bed0f87772f68eed,66fc97926f6ca6ee5f33d400,2024-10-01_18h46.12.017,mdp,2024.2.1,Win32,15.01501502,66fa4ebf79326e780c390304,,,,,,,,,,,,,,,,,,,,,762.4163,762.4163,762.4169,763.907,0,1,left,0.9078,0.0001,763.9076,765.8981,0,0,left,765.8987,767.5455,0,1,left,0,767.5455,767.5455,767.546,769.0369,0,2,2,2,1,0.6,0.4,0.2,0.8,,,,,,,,,,,,,,,1.402,,0.4,0.6,0.6,0.4,0.8,0.2,0.2,0.8,,,1.0531,,0.4,0.6,0.4,0.6,0.4,0.6,0.8,0.2,1,0
,,65dc9f26bed0f87772f68eed,66fc97926f6ca6ee5f33d400,2024-10-01_18h46.12.017,mdp,2024.2.1,Win32,15.01501502,66fa4ebf79326e780c390304,,,,,,,,,,,,,,,,,,,,,769.0372,769.0372,769.0377,770.008,0,1,left,0.3668,,770.0086,771.5751,0,0,left,771.5757,772.9843,1,1,right,0,772.9843,772.9843,772.9848,774.4715,0,3,3,3,1,0.6,0.4,0.2,0.8,,,,,,,,,,,,,,,0.9874,,0.4,0.6,0.6,0.4,0.8,0.2,0.2,0.8,,,0.8057,,0.4,0.6,0.4,0.6,0.4,0.6,0.8,0.2,1,0
,,65dc9f26bed0f87772f68eed,66fc97926f6ca6ee5f33d400,2024-10-01_18h46.12.017,mdp,2024.2.1,Win32,15.01501502,66fa4ebf79326e780c390304,,,,,,,,,,,,,,,,,,,,,774.4718,774.4718,774.4723,776.5986,1,1,right,1.501,,776.5992,778.6808,1,0,right,778.6813,779.8912,1,0,right,1,779.8913,779.8913,779.8918,781.3375,0,4,4,4,1,0.6,0.4,0.2,0.8,,,,,,,,,,,,,,,1.509,,0.4,0.6,0.6,0.4,0.8,0.2,0.2,0.8,,,0.6054,,0.4,0.6,0.4,0.6,0.4,0.6,0.8,0.2,1,0
,,65dc9f26bed0f87772f68eed,66fc97926f6ca6ee5f33d400,2024-10-01_18h46.12.017,mdp,2024.2.1,Win32,15.01501502,66fa4ebf79326e780c390304,,,,,,,,,,,,,,,,,,,,,781.3378,781.3378,781.3383,782.4508,1,0,right,0.4857,,782.4514,784.4208,1,0,right,784.4213,785.829,1,1,right,0,785.829,785.829,785.8295,787.322,0,5,5,5,1,0.6,0.4,0.2,0.8,,,,,,,,,,,,,,,1.3542,,0.2,0.8,0.4,0.6,0.8,0.2,0.2,0.8,,,0.8269,,0.4,0.6,0.4,0.6,0.4,0.6,0.8,0.2,1,0
,,65dc9f26bed0f87772f68eed,66fc97926f6ca6ee5f33d400,2024-10-01_18h46.12.017,mdp,2024.2.1,Win32,15.01501502,66fa4ebf79326e780c390304,,,,,,,,,,,,,,,,,,,,,787.3223,787.3223,787.3227,788.2938,1,0,right,0.3955,,788.2944,789.4221,1,1,right,789.4227,791.3942,1,1,right,0,791.3943,791.3943,791.3948,792.8427,0,6,6,6,1,0.6,0.4,0.2,0.8,,,,,,,,,,,,,,,0.5338,,0.8,0.2,0.2,0.8,0.8,0.2,0.2,0.8,,,1.3738,,0.4,0.6,0.4,0.6,0.4,0.6,0.8,0.2,1,0
,,65dc9f26bed0f87772f68eed,66fc97926f6ca6ee5f33d400,2024-10-01_18h46.12.017,mdp,2024.2.1,Win32,15.01501502,66fa4ebf79326e780c390304,,,,,,,,,,,,,,,,,,,,,792.843,792.843,792.8434,793.956,1,0,right,0.4937,,793.9566,795.6965,0,0,left,795.6971,797.4378,1,0,right,1,797.4378,797.4378,797.4382,798.8986,0,7,7,7,1,0.6,0.4,0.2,0.8,,,,,,,,,,,,,,,1.1245,,0.6,0.4,0.8,0.2,0.8,0.2,0.2,0.8,,,1.1645,,0.4,0.6,0.4,0.6,0.4,0.6,0.8,0.2,1,0
,,65dc9f26bed0f87772f68eed,66fc97926f6ca6ee5f33d400,2024-10-01_18h46.12.017,mdp,2024.2.1,Win32,15.01501502,66fa4ebf79326e780c390304,,,,,,,,,,,,,,,,,,,,,798.8988,798.8988,798.8992,799.9055,0,0,left,0.3822,,799.906,801.714,0,0,left,801.7145,803.462,0,0,left,1,803.462,803.462,803.4625,804.9645,0,8,8,8,1,0.6,0.4,0.2,0.8,,,,,,,,,,,,,,,1.2173,,0.6,0.4,0.8,0.2,0.8,0.2,0.2,0.8,,,1.1703,,0.4,0.6,0.4,0.6,0.4,0.6,0.8,0.2,1,0
,,65dc9f26bed0f87772f68eed,66fc97926f6ca6ee5f33d400,2024-10-01_18h46.12.017,mdp,2024.2.1,Win32,15.01501502,66fa4ebf79326e780c390304,,,,,,,,,,,,,,,,,,,,,804.9647,804.9648,804.9652,806.6253,0,0,left,1.0646,,806.6258,808.1219,0,0,left,808.1226,809.8006,0,0,left,1,809.8007,809.8007,809.8012,811.2623,0,9,9,9,1,0.6,0.4,0.2,0.8,,,,,,,,,,,,,,,0.9215,,0.6,0.4,0.8,0.2,0.8,0.2,0.2,0.8,,,1.0662,,0.4,0.6,0.4,0.6,0.4,0.6,0.8,0.2,1,0
,,65dc9f26bed0f87772f68eed,66fc97926f6ca6ee5f33d400,2024-10-01_18h46.12.017,mdp,2024.2.1,Win32,15.01501502,66fa4ebf79326e780c390304,,,,,,,,,,,,,,,,,,,,,811.2626,811.2626,811.263,812.3788,0,0,left,0.5459,1E-04,812.3794,814.0557,0,0,left,814.0563,815.404,0,0,left,1,815.404,815.404,815.4046,816.8772,0,10,10,10,1,0.6,0.4,0.2,0.8,,,,,,,,,,,,,,,1.1091,,0.6,0.4,0.8,0.2,0.2,0.8,0.8,0.2,,,0.7521,,0.4,0.6,0.4,0.6,0.4,0.6,0.8,0.2,1,0
,,65dc9f26bed0f87772f68eed,66fc97926f6ca6ee5f33d400,2024-10-01_18h46.12.017,mdp,2024.2.1,Win32,15.01501502,66fa4ebf79326e780c390304,,,,,,,,,,,,,,,,,,,,,816.8775,816.8775,816.8779,818.4189,0,1,left,0.9418,,818.4195,820.7631,1,0,right,820.7636,822.6159,0,1,left,0,822.6159,822.6159,822.6165,824.1148,0,11,11,11,1,0.6,0.4,0.2,0.8,,,,,,,,,,,,,,,1.7562,,0.6,0.4,0.8,0.2,0.2,0.8,0.8,0.2,,,1.2542,,0.4,0.6,0.4,0.6,0.4,0.6,0.8,0.2,1,0
,,65dc9f26bed0f87772f68eed,66fc97926f6ca6ee5f33d400,2024-10-01_18h46.12.017,mdp,2024.2.1,Win32,15.01501502,66fa4ebf79326e780c390304,,,,,,,,,,,,,,,,,,,,,824.1151,824.1151,824.1154,825.082,1,1,right,0.3699,,825.0825,826.0539,0,1,left,826.0544,827.1006,0,0,left,1,827.1006,827.1006,827.1011,828.585,0,12,12,12,1,0.6,0.4,0.2,0.8,,,,,,,,,,,,,,,0.374,,0.6,0.4,0.8,0.2,0.2,0.8,0.8,0.2,,,0.4681,,0.4,0.6,0.4,0.6,0.4,0.6,0.8,0.2,1,0
,,65dc9f26bed0f87772f68eed,66fc97926f6ca6ee5f33d400,2024-10-01_18h46.12.017,mdp,2024.2.1,Win32,15.01501502,66fa4ebf79326e780c390304,,,,,,,,,,,,,,,,,,,,,828.5851,828.5852,828.5856,829.8504,1,1,right,0.6967,,829.8509,831.7696,1,0,right,831.7701,832.597,0,1,left,0,832.5971,832.5971,832.5976,834.0679,0,13,13,13,1,0.6,0.4,0.2,0.8,,,,,,,,,,,,,,,1.2787,,0.6,0.4,0.8,0.2,0.2,0.8,0.8,0.2,,,0.2265,,0.4,0.6,0.4,0.6,0.4,0.6,0.8,0.2,1,0
,,65dc9f26bed0f87772f68eed,66fc97926f6ca6ee5f33d400,2024-10-01_18h46.12.017,mdp,2024.2.1,Win32,15.01501502,66fa4ebf79326e780c390304,,,,,,,,,,,,,,,,,,,,,834.0682,834.0682,834.0686,835.0278,0,1,left,0.3699,,835.0283,836.9624,0,1,left,836.963,839.1202,0,1,left,0,839.1202,839.1203,839.1208,840.63,0,14,14,14,1,0.6,0.4,0.2,0.8,,,,,,,,,,,,,,,1.3402,,0.6,0.4,0.8,0.2,0.2,0.8,0.8,0.2,,,1.5581,,0.4,0.6,0.4,0.6,0.4,0.6,0.8,0.2,1,0
,,65dc9f26bed0f87772f68eed,66fc97926f6ca6ee5f33d400,2024-10-01_18h46.12.017,mdp,2024.2.1,Win32,15.01501502,66fa4ebf79326e780c390304,,,,,,,,,,,,,,,,,,,,,840.6303,840.6303,840.6306,841.7338,0,0,left,0.5343,,841.7343,843.0066,0,0,left,843.0073,844.4952,0,1,left,0,844.4953,844.4953,844.4959,845.9759,0,15,15,15,1,0.6,0.4,0.2,0.8,,,,,,,,,,,,,,,0.6824,,0.6,0.4,0.8,0.2,0.2,0.8,0.8,0.2,,,0.8977,,0.4,0.6,0.4,0.6,0.4,0.6,0.8,0.2,1,0
,,65dc9f26bed0f87772f68eed,66fc97926f6ca6ee5f33d400,2024-10-01_18h46.12.017,mdp,2024.2.1,Win32,15.01501502,66fa4ebf79326e780c390304,,,,,,,,,,,,,,,,,,,,,845.9762,845.9762,845.9766,846.9458,1,1,right,0.3838,,846.9463,848.3072,0,1,left,848.3077,849.2844,1,0,right,1,849.2844,849.2844,849.2849,850.7879,0,16,16,16,1,0.6,0.4,0.2,0.8,,,,,,,,,,,,,,,0.756,,0.6,0.4,0.8,0.2,0.2,0.8,0.8,0.2,,,0.3974,,0.4,0.6,0.4,0.6,0.4,0.6,0.8,0.2,1,0
,,65dc9f26bed0f87772f68eed,66fc97926f6ca6ee5f33d400,2024-10-01_18h46.12.017,mdp,2024.2.1,Win32,15.01501502,66fa4ebf79326e780c390304,,,,,,,,,,,,,,,,,,,,,850.788,850.788,850.7885,852.1458,1,1,right,0.7588,,852.1464,853.1843,0,1,left,853.185,854.3281,1,1,right,0,854.3281,854.3281,854.3286,855.8047,0,17,17,17,1,0.6,0.4,0.2,0.8,,,,,,,,,,,,,,,0.4414,,0.6,0.4,0.8,0.2,0.2,0.8,0.8,0.2,,,0.5245,,0.4,0.6,0.4,0.6,0.4,0.6,0.8,0.2,1,0
,,65dc9f26bed0f87772f68eed,66fc97926f6ca6ee5f33d400,2024-10-01_18h46.12.017,mdp,2024.2.1,Win32,15.01501502,66fa4ebf79326e780c390304,,,,,,,,,,,,,,,,,,,,,855.8049,855.8049,855.8054,856.8574,1,0,right,0.4727,,856.8579,858.5821,0,0,left,858.5826,860.0104,0,0,left,1,860.0105,860.0105,860.011,861.5295,0,18,18,18,1,0.6,0.4,0.2,0.8,,,,,,,,,,,,,,,1.1181,,0.6,0.4,0.8,0.2,0.2,0.8,0.8,0.2,,,0.8524,,0.4,0.6,0.4,0.6,0.4,0.6,0.8,0.2,1,0
,,65dc9f26bed0f87772f68eed,66fc97926f6ca6ee5f33d400,2024-10-01_18h46.12.017,mdp,2024.2.1,Win32,15.01501502,66fa4ebf79326e780c390304,,,,,,,,,,,,,,,,,,,,,861.5298,861.5298,861.5301,862.5533,1,0,right,0.4467,,862.5538,864.6085,1,0,right,864.609,866.4493,0,0,left,1,866.4493,866.4493,866.4498,867.9696,0,19,19,19,1,0.4,0.6,0.6,0.4,,,,,,,,,,,,,,,1.474,,0.6,0.4,0.8,0.2,0.2,0.8,0.8,0.2,,,1.2608,,0.4,0.6,0.4,0.6,0.4,0.6,0.8,0.2,1,0
,,65dc9f26bed0f87772f68eed,66fc97926f6ca6ee5f33d400,2024-10-01_18h46.12.017,mdp,2024.2.1,Win32,15.01501502,66fa4ebf79326e780c390304,,,,,,,,,,,,,,,,,,,,,867.9699,867.9699,867.9703,869.0185,1,1,right,0.4578,,869.0191,870.8724,1,0,right,870.8729,872.9532,0,0,left,1,872.9532,872.9532,872.9537,874.4067,0,20,20,20,1,0.4,0.6,0.6,0.4,,,,,,,,,,,,,,,1.2649,,0.6,0.4,0.8,0.2,0.2,0.8,0.8,0.2,,,1.4851,,0.4,0.6,0.4,0.6,0.4,0.6,0.8,0.2,1,0
,,65dc9f26bed0f87772f68eed,66fc97926f6ca6ee5f33d400,2024-10-01_18h46.12.017,mdp,2024.2.1,Win32,15.01501502,66fa4ebf79326e780c390304,,,,,,,,,,,,,,,,,,,,,874.407,874.407,874.4075,875.1776,1,1,right,0.1619,,875.178,876.5328,1,0,right,876.5333,877.8874,0,0,left,1,877.8874,877.8874,877.888,879.3639,0,21,21,21,1,0.4,0.6,0.6,0.4,,,,,,,,,,,,,,,0.7659,,0.6,0.4,0.8,0.2,0.8,0.2,0.4,0.6,,,0.7545,,0.4,0.6,0.4,0.6,0.4,0.6,0.8,0.2,1,0
,,65dc9f26bed0f87772f68eed,66fc97926f6ca6ee5f33d400,2024-10-01_18h46.12.017,mdp,2024.2.1,Win32,15.01501502,66fa4ebf79326e780c390304,,,,,,,,,,,,,,,,,,,,,879.3642,879.3642,879.3646,880.5683,1,0,right,0.605,,880.5688,882.7162,1,0,right,882.7167,884.7815,0,1,left,0,884.7816,884.7816,884.7821,886.2527,0,22,22,22,1,0.4,0.6,0.6,0.4,,,,,,,,,,,,,,,1.5438,,0.6,0.4,0.8,0.2,0.8,0.2,0.4,0.6,,,1.4697,,0.4,0.6,0.4,0.6,0.4,0.6,0.8,0.2,1,0
,,65dc9f26bed0f87772f68eed,66fc97926f6ca6ee5f33d400,2024-10-01_18h46.12.017,mdp,2024.2.1,Win32,15.01501502,66fa4ebf79326e780c390304,,,,,,,,,,,,,,,,,,,,,886.253,886.253,886.2534,888.5033,1,0,right,1.6566,,888.5039,889.8242,1,0,right,889.8248,891.6419,0,1,left,0,891.6419,891.6419,891.6425,893.0922,0,23,23,23,1,0.4,0.6,0.6,0.4,,,,,,,,,,,,,,,0.7292,,0.6,0.4,0.8,0.2,0.8,0.2,0.4,0.6,,,1.201,,0.4,0.6,0.4,0.6,0.4,0.6,0.8,0.2,1,0
,,65dc9f26bed0f87772f68eed,66fc97926f6ca6ee5f33d400,2024-10-01_18h46.12.017,mdp,2024.2.1,Win32,15.01501502,66fa4ebf79326e780c390304,,,,,,,,,,,,,,,,,,,,,893.0925,893.0925,893.093,893.7191,1,0,right,0.0048,,893.7195,895.2869,1,0,right,895.2876,897.7232,1,1,right,0,897.7232,897.7232,897.7237,899.1663,0,24,24,24,1,0.4,0.6,0.6,0.4,,,,,,,,,,,,,,,0.9952,,0.6,0.4,0.8,0.2,0.8,0.2,0.4,0.6,,,1.8615,,0.4,0.6,0.4,0.6,0.4,0.6,0.8,0.2,1,0
,,65dc9f26bed0f87772f68eed,66fc97926f6ca6ee5f33d400,2024-10-01_18h46.12.017,mdp,2024.2.1,Win32,15.01501502,66fa4ebf79326e780c390304,,,,,,,,,,,,,,,,,,,,,899.1666,899.1666,899.167,900.0673,0,1,left,0.3161,,900.0678,901.7137,0,0,left,901.7142,903.7798,1,0,right,1,903.78,903.78,903.7804,905.2184,0,25,25,25,1,0.4,0.6,0.6,0.4,,,,,,,,,,,,,,,1.055,,0.6,0.4,0.8,0.2,0.8,0.2,0.4,0.6,,,1.4976,,0.2,0.8,0.8,0.2,0.4,0.6,0.8,0.2,1,0
,,65dc9f26bed0f87772f68eed,66fc97926f6ca6ee5f33d400,2024-10-01_18h46.12.017,mdp,2024.2.1,Win32,15.01501502,66fa4ebf79326e780c390304,,,,,,,,,,,,,,,,,,,,,905.2186,905.2186,905.2191,907.493,0,1,left,1.67,,907.4935,908.7721,1,0,right,908.7726,911.0067,0,1,left,0,911.0067,911.0067,911.0073,912.4592,0,26,26,26,1,0.4,0.6,0.6,0.4,,,,,,,,,,,,,,,0.6734,,0.6,0.4,0.8,0.2,0.8,0.2,0.4,0.6,,,1.6613,,0.2,0.8,0.8,0.2,0.4,0.6,0.8,0.2,1,0
,,65dc9f26bed0f87772f68eed,66fc97926f6ca6ee5f33d400,2024-10-01_18h46.12.017,mdp,2024.2.1,Win32,15.01501502,66fa4ebf79326e780c390304,,,,,,,,,,,,,,,,,,,,,912.4594,912.4594,912.4598,915.4143,1,1,right,2.3699,,915.4149,916.9942,0,0,left,916.9946,918.4532,0,0,left,1,918.4532,918.4532,918.4536,919.9399,0,27,27,27,1,0.4,0.6,0.6,0.4,,,,,,,,,,,,,,,0.9982,,0.6,0.4,0.8,0.2,0.8,0.2,0.4,0.6,,,0.8355,,0.2,0.8,0.8,0.2,0.4,0.6,0.8,0.2,1,0
,,65dc9f26bed0f87772f68eed,66fc97926f6ca6ee5f33d400,2024-10-01_18h46.12.017,mdp,2024.2.1,Win32,15.01501502,66fa4ebf79326e780c390304,,,,,,,,,,,,,,,,,,,,,919.9401,919.9401,919.9406,920.9937,0,1,left,0.461,,920.9942,925.0332,0,1,left,925.0337,927.6225,0,1,left,0,927.6226,927.6226,927.623,929.1336,0,28,28,28,1,0.4,0.6,0.6,0.4,,,,,,,,,,,,,,,3.45,,0.6,0.4,0.8,0.2,0.8,0.2,0.4,0.6,,,2.0005,,0.2,0.8,0.8,0.2,0.4,0.6,0.8,0.2,1,0
,,65dc9f26bed0f87772f68eed,66fc97926f6ca6ee5f33d400,2024-10-01_18h46.12.017,mdp,2024.2.1,Win32,15.01501502,66fa4ebf79326e780c390304,,,,,,,,,,,,,,,,,,,,,929.1338,929.1338,929.1342,929.8894,1,0,right,0.1578,,929.8899,931.208,1,0,right,931.2086,934.8124,0,1,left,0,934.8126,934.8126,934.813,936.2612,0,29,29,29,1,0.4,0.6,0.6,0.4,,,,,,,,,,,,,,,0.7425,,0.6,0.4,0.8,0.2,0.8,0.2,0.4,0.6,,,2.9974,,0.2,0.8,0.8,0.2,0.4,0.6,0.8,0.2,1,0
,,65dc9f26bed0f87772f68eed,66fc97926f6ca6ee5f33d400,2024-10-01_18h46.12.017,mdp,2024.2.1,Win32,15.01501502,66fa4ebf79326e780c390304,,,,,,,,,,,,,,,,,,,,,936.2614,936.2614,936.2618,937.0795,1,0,right,0.2214,,937.0801,940.8414,1,0,right,940.842,948.3582,0,1,left,0,948.3582,948.3582,948.3588,949.8653,0,30,30,30,1,0.4,0.6,0.6,0.4,,,,,,,,,,,,,,,3.1704,,0.6,0.4,0.8,0.2,0.8,0.2,0.4,0.6,,,6.9118,,0.2,0.8,0.8,0.2,0.4,0.6,0.8,0.2,1,0
,,65dc9f26bed0f87772f68eed,66fc97926f6ca6ee5f33d400,2024-10-01_18h46.12.017,mdp,2024.2.1,Win32,15.01501502,66fa4ebf79326e780c390304,,,,,,,,,,,,,,,,,,,,,949.8655,949.8655,949.866,972.4821,0,1,left,22.0291,,972.4827,975.0192,1,0,right,975.0196,976.7415,0,1,left,0,976.7416,976.7416,976.742,978.1956,0,31,31,31,1,0.4,0.6,0.6,0.4,,,,,,,,,,,,,,,1.9484,,0.6,0.4,0.8,0.2,0.8,0.2,0.4,0.6,,,1.1494,,0.2,0.8,0.8,0.2,0.4,0.6,0.8,0.2,1,0
,,65dc9f26bed0f87772f68eed,66fc97926f6ca6ee5f33d400,2024-10-01_18h46.12.017,mdp,2024.2.1,Win32,15.01501502,66fa4ebf79326e780c390304,,,,,,,,,,,,,,,,,,,,,978.1958,978.1958,978.1962,979.1874,1,1,right,0.3799,,979.1879,980.976,1,1,right,980.9766,982.1746,1,0,right,1,982.1746,982.1746,982.1752,983.6643,0,32,32,32,1,0.4,0.6,0.6,0.4,,,,,,,,,,,,,,,1.1969,,0.6,0.4,0.8,0.2,0.8,0.2,0.4,0.6,,,0.5908,,0.2,0.8,0.8,0.2,0.4,0.6,0.8,0.2,1,0
,,65dc9f26bed0f87772f68eed,66fc97926f6ca6ee5f33d400,2024-10-01_18h46.12.017,mdp,2024.2.1,Win32,15.01501502,66fa4ebf79326e780c390304,,,,,,,,,,,,,,,,,,,,,983.6645,983.6645,983.665,985.5679,1,1,right,1.3079,,985.5684,986.8821,1,1,right,986.8828,988.3281,1,1,right,0,988.3281,988.3281,988.3288,989.8282,0,33,33,33,1,0.4,0.6,0.6,0.4,,,,,,,,,,,,,,,0.7117,,0.6,0.4,0.8,0.2,0.8,0.2,0.4,0.6,,,0.861,,0.2,0.8,0.8,0.2,0.4,0.6,0.8,0.2,1,0
,,65dc9f26bed0f87772f68eed,66fc97926f6ca6ee5f33d400,2024-10-01_18h46.12.017,mdp,2024.2.1,Win32,15.01501502,66fa4ebf79326e780c390304,,,,,,,,,,,,,,,,,,,,,989.8283,989.8284,989.8288,990.7523,1,0,right,0.3152,,990.7529,991.9609,1,0,right,991.9615,993.5575,0,1,left,0,993.5575,993.5575,993.5581,995.04,0,34,34,34,1,0.4,0.6,0.6,0.4,,,,,,,,,,,,,,,0.6206,,0.6,0.4,0.8,0.2,0.8,0.2,0.4,0.6,,,0.9929,,0.2,0.8,0.8,0.2,0.4,0.6,0.8,0.2,1,0
,,65dc9f26bed0f87772f68eed,66fc97926f6ca6ee5f33d400,2024-10-01_18h46.12.017,mdp,2024.2.1,Win32,15.01501502,66fa4ebf79326e780c390304,,,,,,,,,,,,,,,,,,,,,995.0402,995.0402,995.0406,995.9425,0,1,left,0.3203,,995.943,997.0136,0,1,left,997.0142,998.4295,1,0,right,1,998.4295,998.4295,998.43,999.9415,0,35,35,35,1,0.4,0.6,0.6,0.4,,,,,,,,,,,,,,,0.4705,,0.6,0.4,0.8,0.2,0.8,0.2,0.4,0.6,,,0.8338,,0.2,0.8,0.8,0.2,0.4,0.6,0.8,0.2,1,0
,,65dc9f26bed0f87772f68eed,66fc97926f6ca6ee5f33d400,2024-10-01_18h46.12.017,mdp,2024.2.1,Win32,15.01501502,66fa4ebf79326e780c390304,,,,,,,,,,,,,,,,,,,,,999.9417,999.9417,999.9421,1000.8676,0,1,left,0.3227,,1000.8681,1002.9904,0,1,left,1002.991,1004.4199,0,1,left,0,1004.4199,1004.4199,1004.4205,1005.9212,0,36,36,36,1,0.4,0.6,0.6,0.4,,,,,,,,,,,,,,,1.5188,,0.6,0.4,0.8,0.2,0.8,0.2,0.4,0.6,,,0.8429,,0.2,0.8,0.8,0.2,0.4,0.6,0.8,0.2,1,0
,,65dc9f26bed0f87772f68eed,66fc97926f6ca6ee5f33d400,2024-10-01_18h46.12.017,mdp,2024.2.1,Win32,15.01501502,66fa4ebf79326e780c390304,,,,,,,,,,,,,,,,,,,,,1005.9215,1005.9215,1005.9219,1006.9999,0,1,left,0.4505,,1007.0003,1008.2184,0,1,left,1008.2189,1009.3589,1,0,right,1,1009.359,1009.359,1009.3596,1010.8094,0,37,37,37,1,0.4,0.6,0.6,0.4,,,,,,,,,,,,,,,0.6117,,0.6,0.4,0.8,0.2,0.8,0.2,0.4,0.6,,,0.5222,,0.2,0.8,0.8,0.2,0.4,0.6,0.8,0.2,1,0
,,65dc9f26bed0f87772f68eed,66fc97926f6ca6ee5f33d400,2024-10-01_18h46.12.017,mdp,2024.2.1,Win32,15.01501502,66fa4ebf79326e780c390304,,,,,,,,,,,,,,,,,,,,,1010.8096,1010.8096,1010.81,1011.8545,0,1,left,0.4556,,1011.8549,1012.9088,0,0,left,1012.9093,1014.967,1,0,right,1,1014.967,1014.967,1014.9676,1016.4357,0,38,38,38,1,0.4,0.6,0.6,0.4,,,,,,,,,,,,,,,0.4764,,0.6,0.4,0.8,0.2,0.8,0.2,0.4,0.6,,,1.4367,,0.2,0.8,0.8,0.2,0.4,0.6,0.8,0.2,1,0
,,65dc9f26bed0f87772f68eed,66fc97926f6ca6ee5f33d400,2024-10-01_18h46.12.017,mdp,2024.2.1,Win32,15.01501502,66fa4ebf79326e780c390304,,,,,,,,,,,,,,,,,,,,,1016.436,1016.436,1016.4364,1017.4134,0,0,left,0.382,,1017.4138,1018.4905,0,1,left,1018.491,1019.6362,1,0,right,1,1019.6362,1019.6362,1019.6367,1021.0924,0,39,39,39,1,0.4,0.6,0.6,0.4,,,,,,,,,,,,,,,0.4713,,0.6,0.4,0.8,0.2,0.8,0.2,0.4,0.6,,,0.5454,,0.2,0.8,0.8,0.2,0.4,0.6,0.8,0.2,1,0
,,65dc9f26bed0f87772f68eed,66fc97926f6ca6ee5f33d400,2024-10-01_18h46.12.017,mdp,2024.2.1,Win32,15.01501502,66fa4ebf79326e780c390304,,,,,,,,,,,,,,,,,,,,,1021.0926,1021.0926,1021.093,1021.7676,0,1,left,0.0792,,1021.7681,1022.799,0,0,left,1022.7996,1023.8482,1,0,right,1,1023.8482,1023.8482,1023.8487,1025.3497,0,40,40,40,1,0.4,0.6,0.6,0.4,,,,,,,,,,,,,,,0.4625,,0.6,0.4,0.8,0.2,0.8,0.2,0.4,0.6,,,0.4462,,0.2,0.8,0.8,0.2,0.4,0.6,0.8,0.2,1,0
,,65dc9f26bed0f87772f68eed,66fc97926f6ca6ee5f33d400,2024-10-01_18h46.12.017,mdp,2024.2.1,Win32,15.01501502,66fa4ebf79326e780c390304,,,,,,,,,,,,,,,,,,,,,1025.3499,1025.3499,1025.3503,1026.0028,0,0,left,0.077,,1026.0033,1026.9128,0,0,left,1026.9134,1027.7556,1,0,right,1,1027.7557,1027.7557,1027.7562,1029.2052,0,41,41,41,1,0.4,0.6,0.6,0.4,,,,,,,,,,,,,,,0.3139,,0.6,0.4,0.8,0.2,0.8,0.2,0.4,0.6,,,0.2277,,0.2,0.8,0.8,0.2,0.4,0.6,0.8,0.2,1,0
,,65dc9f26bed0f87772f68eed,66fc97926f6ca6ee5f33d400,2024-10-01_18h46.12.017,mdp,2024.2.1,Win32,15.01501502,66fa4ebf79326e780c390304,,,,,,,,,,,,,,,,,,,,,1029.2055,1029.2055,1029.2058,1030.2421,0,1,left,0.4521,,1030.2427,1031.2162,0,1,left,1031.2168,1032.1257,1,0,right,1,1032.1257,1032.1257,1032.1264,1033.5891,0,42,42,42,1,0.4,0.6,0.6,0.4,,,,,,,,,,,,,,,0.3837,,0.6,0.4,0.8,0.2,0.8,0.2,0.4,0.6,,,0.3133,,0.2,0.8,0.8,0.2,0.4,0.6,0.8,0.2,1,0
,,65dc9f26bed0f87772f68eed,66fc97926f6ca6ee5f33d400,2024-10-01_18h46.12.017,mdp,2024.2.1,Win32,15.01501502,66fa4ebf79326e780c390304,,,,,,,,,,,,,,,,,,,,,1033.5893,1033.5893,1033.5898,1034.7182,0,0,left,0.5467,,1034.7187,1036.0011,0,0,left,1036.0016,1037.1943,1,0,right,1,1037.1943,1037.1943,1037.1948,1038.6524,0,43,43,43,1,0.4,0.6,0.6,0.4,,,,,,,,,,,,,,,0.6819,,0.6,0.4,0.8,0.2,0.8,0.2,0.4,0.6,,,0.6014,,0.2,0.8,0.8,0.2,0.4,0.6,0.8,0.2,1,0
,,65dc9f26bed0f87772f68eed,66fc97926f6ca6ee5f33d400,2024-10-01_18h46.12.017,mdp,2024.2.1,Win32,15.01501502,66fa4ebf79326e780c390304,,,,,,,,,,,,,,,,,,,,,1038.6526,1038.6527,1038.6531,1039.7842,0,0,left,0.5498,,1039.7847,1040.758,0,0,left,1040.7584,1041.8996,1,1,right,0,1041.8997,1041.8997,1041.9002,1043.4054,0,44,44,44,1,0.4,0.6,0.6,0.4,,,,,,,,,,,,,,,0.3811,,0.6,0.4,0.8,0.2,0.8,0.2,0.4,0.6,,,0.5546,,0.2,0.8,0.8,0.2,0.4,0.6,0.8,0.2,1,0
,,65dc9f26bed0f87772f68eed,66fc97926f6ca6ee5f33d400,2024-10-01_18h46.12.017,mdp,2024.2.1,Win32,15.01501502,66fa4ebf79326e780c390304,,,,,,,,,,,,,,,,,,,,,1043.4056,1043.4056,1043.4061,1044.3982,0,0,left,0.4054,,1044.3988,1045.2997,0,1,left,1045.3002,1046.199,1,0,right,1,1046.1991,1046.1991,1046.1996,1047.6828,0,45,45,45,1,0.4,0.6,0.6,0.4,,,,,,,,,,,,,,,0.3161,,0.6,0.4,0.8,0.2,0.8,0.2,0.4,0.6,,,0.3083,,0.2,0.8,0.8,0.2,0.4,0.6,0.8,0.2,1,0
,,65dc9f26bed0f87772f68eed,66fc97926f6ca6ee5f33d400,2024-10-01_18h46.12.017,mdp,2024.2.1,Win32,15.01501502,66fa4ebf79326e780c390304,,,,,,,,,,,,,,,,,,,,,1047.683,1047.683,1047.6835,1048.5884,0,0,left,0.317,,1048.589,1049.647,0,1,left,1049.6474,1050.7801,1,0,right,1,1050.7802,1050.7802,1050.7808,1052.2332,0,46,46,46,1,0.8,0.2,0.2,0.8,,,,,,,,,,,,,,,0.4628,,0.6,0.4,0.8,0.2,0.8,0.2,0.4,0.6,,,0.5535,,0.2,0.8,0.8,0.2,0.4,0.6,0.8,0.2,1,0
,,65dc9f26bed0f87772f68eed,66fc97926f6ca6ee5f33d400,2024-10-01_18h46.12.017,mdp,2024.2.1,Win32,15.01501502,66fa4ebf79326e780c390304,,,,,,,,,,,,,,,,,,,,,1052.2335,1052.2335,1052.2339,1053.2284,0,0,left,0.3937,,1053.229,1054.5115,0,0,left,1054.512,1056.1471,1,0,right,1,1056.1471,1056.1471,1056.1475,1057.6012,0,47,47,47,1,0.8,0.2,0.2,0.8,,,,,,,,,,,,,,,0.6789,,0.6,0.4,0.8,0.2,0.8,0.2,0.4,0.6,,,1.0102,,0.2,0.8,0.8,0.2,0.4,0.6,0.8,0.2,1,0
,,65dc9f26bed0f87772f68eed,66fc97926f6ca6ee5f33d400,2024-10-01_18h46.12.017,mdp,2024.2.1,Win32,15.01501502,66fa4ebf79326e780c390304,,,,,,,,,,,,,,,,,,,,,1057.6015,1057.6015,1057.6019,1059.132,0,0,left,0.9146,,1059.1326,1060.2467,0,0,left,1060.2472,1061.2253,1,0,right,1,1061.2253,1061.2253,1061.2257,1062.6874,0,48,48,48,1,0.8,0.2,0.2,0.8,,,,,,,,,,,,,,,0.5403,,0.6,0.4,0.8,0.2,0.8,0.2,0.4,0.6,,,0.3935,,0.2,0.8,0.8,0.2,0.4,0.6,0.8,0.2,1,0
,,65dc9f26bed0f87772f68eed,66fc97926f6ca6ee5f33d400,2024-10-01_18h46.12.017,mdp,2024.2.1,Win32,15.01501502,66fa4ebf79326e780c390304,,,,,,,,,,,,,,,,,,,,,1062.6876,1062.6876,1062.688,1063.7938,0,0,left,0.5299,,1063.7944,1064.72,0,1,left,1064.7205,1065.7171,1,1,right,0,1065.7171,1065.7171,1065.7177,1067.1886,0,49,49,49,1,0.8,0.2,0.2,0.8,,,,,,,,,,,,,,,0.3076,,0.6,0.4,0.8,0.2,0.8,0.2,0.4,0.6,,,0.3909,,0.2,0.8,0.8,0.2,0.4,0.6,0.8,0.2,1,0
,,65dc9f26bed0f87772f68eed,66fc97926f6ca6ee5f33d400,2024-10-01_18h46.12.017,mdp,2024.2.1,Win32,15.01501502,66fa4ebf79326e780c390304,,,,,,,,,,,,,,,,,,,,,,,,,,,,,,,,,,,,,,,,,,,,,,,,,,,,,,,,1067.1887,1125.7809,0,2,2,5,1,imgs/kangaroo.png,imgs/lion.png,imgs/giraffe.png,imgs/pig.png,imgs/rabbit.png,,,,,,,,,,,,,,,,,,,,,,,,
,,65dc9f26bed0f87772f68eed,66fc97926f6ca6ee5f33d400,2024-10-01_18h46.12.017,mdp,2024.2.1,Win32,15.01501502,66fa4ebf79326e780c390304,,,,,,,,,,,,,,3,seqs/st3seq45.csv,1125.7813,1134.7133,space,8.3269,,1134.7168,1134.7168,1134.7172,1136.8199,0,1,left,1.5144,,1136.8205,1138.5236,0,0,left,1138.524,1140.1097,0,1,left,0,1140.1097,1140.1097,1140.1105,1141.5747,0,0,0,0,1,0.2,0.8,0.2,0.8,,,,,,,,,,,,,,,1.1036,,0.8,0.2,0.6,0.4,0.6,0.4,0.2,0.8,,,0.9845,,0.2,0.8,0.4,0.6,0.2,0.8,0.8,0.2,1,0
,,65dc9f26bed0f87772f68eed,66fc97926f6ca6ee5f33d400,2024-10-01_18h46.12.017,mdp,2024.2.1,Win32,15.01501502,66fa4ebf79326e780c390304,,,,,,,,,,,,,,,,,,,,,1141.5749,1141.5749,1141.5753,1143.0732,0,1,left,0.9186,,1143.0737,1144.8086,0,0,left,1144.8091,1147.3042,0,1,left,0,1147.3042,1147.3042,1147.3048,1148.7955,0,1,1,1,1,0.2,0.8,0.2,0.8,,,,,,,,,,,,,,,1.1363,,0.8,0.2,0.6,0.4,0.6,0.4,0.2,0.8,,,1.9129,,0.2,0.8,0.4,0.6,0.2,0.8,0.8,0.2,1,0
,,65dc9f26bed0f87772f68eed,66fc97926f6ca6ee5f33d400,2024-10-01_18h46.12.017,mdp,2024.2.1,Win32,15.01501502,66fa4ebf79326e780c390304,,,,,,,,,,,,,,,,,,,,,1148.7958,1148.7958,1148.7963,1149.7919,0,1,left,0.3957,,1149.7924,1151.3948,0,1,left,1151.3953,1154.0098,0,1,left,0,1154.0098,1154.0099,1154.0103,1155.4855,0,2,2,2,1,0.2,0.8,0.2,0.8,,,,,,,,,,,,,,,1.0221,,0.8,0.2,0.6,0.4,0.4,0.6,0.4,0.6,,,2.0136,,0.2,0.8,0.4,0.6,0.2,0.8,0.8,0.2,1,0
,,65dc9f26bed0f87772f68eed,66fc97926f6ca6ee5f33d400,2024-10-01_18h46.12.017,mdp,2024.2.1,Win32,15.01501502,66fa4ebf79326e780c390304,,,,,,,,,,,,,,,,,,,,,1155.4857,1155.4857,1155.4862,1156.614,0,0,left,0.5396,,1156.6145,1159.6579,1,0,right,1159.6584,1161.048,1,1,right,0,1161.0481,1161.0481,1161.0486,1162.4861,0,3,3,3,1,0.2,0.8,0.2,0.8,,,,,,,,,,,,,,,2.4438,,0.8,0.2,0.6,0.4,0.6,0.4,0.2,0.8,,,0.777,,0.2,0.8,0.4,0.6,0.2,0.8,0.8,0.2,1,0
,,65dc9f26bed0f87772f68eed,66fc97926f6ca6ee5f33d400,2024-10-01_18h46.12.017,mdp,2024.2.1,Win32,15.01501502,66fa4ebf79326e780c390304,,,,,,,,,,,,,,,,,,,,,1162.4863,1162.4863,1162.4867,1163.4536,0,1,left,0.3805,,1163.4542,1165.2078,0,1,left,1165.2083,1167.1019,0,1,left,0,1167.1019,1167.1019,1167.1024,1168.6139,0,4,4,4,1,0.2,0.8,0.2,0.8,,,,,,,,,,,,,,,1.137,,0.8,0.2,0.6,0.4,0.6,0.4,0.2,0.8,,,1.3083,,0.2,0.8,0.4,0.6,0.2,0.8,0.8,0.2,1,0
,,65dc9f26bed0f87772f68eed,66fc97926f6ca6ee5f33d400,2024-10-01_18h46.12.017,mdp,2024.2.1,Win32,15.01501502,66fa4ebf79326e780c390304,,,,,,,,,,,,,,,,,,,,,1168.6141,1168.6141,1168.6145,1170.4264,0,0,left,1.2304,,1170.427,1171.6539,1,1,right,1171.6544,1173.2417,1,0,right,1,1173.2418,1173.2418,1173.2422,1174.6979,0,5,5,5,1,0.2,0.8,0.2,0.8,,,,,,,,,,,,,,,0.6168,,0.8,0.2,0.6,0.4,0.6,0.4,0.2,0.8,,,0.9748,,0.2,0.8,0.4,0.6,0.2,0.8,0.8,0.2,1,0
,,65dc9f26bed0f87772f68eed,66fc97926f6ca6ee5f33d400,2024-10-01_18h46.12.017,mdp,2024.2.1,Win32,15.01501502,66fa4ebf79326e780c390304,,,,,,,,,,,,,,,,,,,,,1174.6981,1174.6981,1174.6985,1175.6224,1,0,right,0.3142,,1175.6229,1176.9111,1,1,right,1176.9116,1178.1084,1,0,right,1,1178.1085,1178.1085,1178.109,1179.559,0,6,6,6,1,0.2,0.8,0.2,0.8,,,,,,,,,,,,,,,0.7095,,0.8,0.2,0.6,0.4,0.6,0.4,0.2,0.8,,,0.6094,,0.2,0.8,0.4,0.6,0.2,0.8,0.8,0.2,1,0
,,65dc9f26bed0f87772f68eed,66fc97926f6ca6ee5f33d400,2024-10-01_18h46.12.017,mdp,2024.2.1,Win32,15.01501502,66fa4ebf79326e780c390304,,,,,,,,,,,,,,,,,,,,,1179.5592,1179.5592,1179.5596,1181.3436,1,1,right,1.1861,,1181.3442,1182.7629,1,1,right,1182.7634,1183.9799,1,0,right,1,1183.9799,1183.98,1183.9805,1185.4775,0,7,7,7,1,0.2,0.8,0.2,0.8,,,,,,,,,,,,,,,0.802,,0.8,0.2,0.6,0.4,0.6,0.4,0.2,0.8,,,0.6338,,0.2,0.8,0.4,0.6,0.2,0.8,0.8,0.2,1,0
,,65dc9f26bed0f87772f68eed,66fc97926f6ca6ee5f33d400,2024-10-01_18h46.12.017,mdp,2024.2.1,Win32,15.01501502,66fa4ebf79326e780c390304,,,,,,,,,,,,,,,,,,,,,1185.4777,1185.4777,1185.4783,1186.6275,1,0,right,0.5454,,1186.628,1188.5529,0,0,left,1188.5534,1190.0277,1,1,right,0,1190.0278,1190.0278,1190.0283,1191.5177,0,8,8,8,1,0.2,0.8,0.2,0.8,,,,,,,,,,,,,,,1.3227,,0.8,0.2,0.6,0.4,0.6,0.4,0.2,0.8,,,0.8875,,0.2,0.8,0.4,0.6,0.2,0.8,0.8,0.2,1,0
,,65dc9f26bed0f87772f68eed,66fc97926f6ca6ee5f33d400,2024-10-01_18h46.12.017,mdp,2024.2.1,Win32,15.01501502,66fa4ebf79326e780c390304,,,,,,,,,,,,,,,,,,,,,1191.5179,1191.518,1191.5183,1192.8627,1,1,right,0.743,,1192.8631,1193.9045,1,1,right,1193.9051,1195.1144,1,0,right,1,1195.1144,1195.1144,1195.115,1196.565,0,9,9,9,1,0.2,0.8,0.2,0.8,,,,,,,,,,,,,,,0.4599,,0.8,0.2,0.6,0.4,0.6,0.4,0.2,0.8,,,0.6251,,0.2,0.8,0.4,0.6,0.2,0.8,0.8,0.2,1,0
,,65dc9f26bed0f87772f68eed,66fc97926f6ca6ee5f33d400,2024-10-01_18h46.12.017,mdp,2024.2.1,Win32,15.01501502,66fa4ebf79326e780c390304,,,,,,,,,,,,,,,,,,,,,1196.5652,1196.5653,1196.5657,1197.6981,1,0,right,0.5421,,1197.6987,1199.6923,1,0,right,1199.6929,1201.9791,1,0,right,1,1201.9791,1201.9791,1201.9795,1203.4336,0,10,10,10,1,0.2,0.8,0.2,0.8,,,,,,,,,,,,,,,1.3829,,0.8,0.2,0.6,0.4,0.6,0.4,0.2,0.8,,,1.6836,,0.2,0.8,0.4,0.6,0.2,0.8,0.8,0.2,1,0
,,65dc9f26bed0f87772f68eed,66fc97926f6ca6ee5f33d400,2024-10-01_18h46.12.017,mdp,2024.2.1,Win32,15.01501502,66fa4ebf79326e780c390304,,,,,,,,,,,,,,,,,,,,,1203.4338,1203.4338,1203.4343,1204.4278,1,1,right,0.3921,,1204.4284,1206.0272,1,1,right,1206.0276,1207.273,1,0,right,1,1207.273,1207.273,1207.2735,1208.7881,0,11,11,11,1,0.2,0.8,0.2,0.8,,,,,,,,,,,,,,,1.0072,,0.8,0.2,0.6,0.4,0.6,0.4,0.2,0.8,,,0.6389,,0.2,0.8,0.4,0.6,0.2,0.8,0.8,0.2,1,0
,,65dc9f26bed0f87772f68eed,66fc97926f6ca6ee5f33d400,2024-10-01_18h46.12.017,mdp,2024.2.1,Win32,15.01501502,66fa4ebf79326e780c390304,,,,,,,,,,,,,,,,,,,,,1208.7884,1208.7884,1208.7888,1209.9862,1,1,right,0.6112,,1209.9868,1211.3573,1,0,right,1211.3579,1213.392,0,1,left,0,1213.3921,1213.3921,1213.3926,1214.8604,0,12,12,12,1,0.2,0.8,0.2,0.8,,,,,,,,,,,,,,,0.7753,,0.8,0.2,0.6,0.4,0.6,0.4,0.2,0.8,,,1.4475,,0.2,0.8,0.4,0.6,0.2,0.8,0.8,0.2,1,0
,,65dc9f26bed0f87772f68eed,66fc97926f6ca6ee5f33d400,2024-10-01_18h46.12.017,mdp,2024.2.1,Win32,15.01501502,66fa4ebf79326e780c390304,,,,,,,,,,,,,,,,,,,,,1214.8605,1214.8605,1214.861,1215.9045,1,1,right,0.4734,,1215.9051,1217.1135,1,1,right,1217.1141,1218.2448,1,0,right,1,1218.2448,1218.2448,1218.2453,1219.7279,0,13,13,13,1,0.2,0.8,0.2,0.8,,,,,,,,,,,,,,,0.6178,,0.8,0.2,0.6,0.4,0.6,0.4,0.2,0.8,,,0.5377,,0.2,0.8,0.4,0.6,0.2,0.8,0.8,0.2,1,0
,,65dc9f26bed0f87772f68eed,66fc97926f6ca6ee5f33d400,2024-10-01_18h46.12.017,mdp,2024.2.1,Win32,15.01501502,66fa4ebf79326e780c390304,,,,,,,,,,,,,,,,,,,,,1219.7282,1219.7282,1219.7287,1220.6776,1,1,right,0.3737,,1220.6781,1221.869,1,1,right,1221.8696,1223.0113,1,0,right,1,1223.0113,1223.0113,1223.0117,1224.4659,0,14,14,14,1,0.2,0.8,0.2,0.8,,,,,,,,,,,,,,,0.6173,,0.8,0.2,0.6,0.4,0.6,0.4,0.2,0.8,,,0.5488,,0.2,0.8,0.4,0.6,0.2,0.8,0.8,0.2,1,0
,,65dc9f26bed0f87772f68eed,66fc97926f6ca6ee5f33d400,2024-10-01_18h46.12.017,mdp,2024.2.1,Win32,15.01501502,66fa4ebf79326e780c390304,,,,,,,,,,,,,,,,,,,,,1224.466,1224.466,1224.4665,1225.3831,1,1,right,0.3207,,1225.3837,1226.5336,1,1,right,1226.534,1227.7245,1,0,right,1,1227.7245,1227.7245,1227.725,1229.247,0,15,15,15,1,0.2,0.8,0.2,0.8,,,,,,,,,,,,,,,0.5474,,0.8,0.2,0.6,0.4,0.6,0.4,0.2,0.8,,,0.5795,,0.2,0.8,0.4,0.6,0.2,0.8,0.8,0.2,1,0
,,65dc9f26bed0f87772f68eed,66fc97926f6ca6ee5f33d400,2024-10-01_18h46.12.017,mdp,2024.2.1,Win32,15.01501502,66fa4ebf79326e780c390304,,,,,,,,,,,,,,,,,,,,,1229.2473,1229.2473,1229.2478,1230.2107,1,1,right,0.3815,,1230.2112,1231.5168,1,0,right,1231.5174,1232.6667,1,1,right,0,1232.6668,1232.6668,1232.6673,1234.1513,0,16,16,16,1,0.2,0.8,0.2,0.8,,,,,,,,,,,,,,,0.7058,,0.8,0.2,0.6,0.4,0.6,0.4,0.2,0.8,,,0.5563,,0.2,0.8,0.4,0.6,0.2,0.8,0.8,0.2,1,0
,,65dc9f26bed0f87772f68eed,66fc97926f6ca6ee5f33d400,2024-10-01_18h46.12.017,mdp,2024.2.1,Win32,15.01501502,66fa4ebf79326e780c390304,,,,,,,,,,,,,,,,,,,,,1234.1516,1234.1516,1234.1519,1235.0517,1,1,right,0.3021,,1235.0523,1236.4474,1,1,right,1236.448,1237.7432,1,0,right,1,1237.7432,1237.7432,1237.7437,1239.1836,0,17,17,17,1,0.2,0.8,0.2,0.8,,,,,,,,,,,,,,,0.8176,,0.8,0.2,0.6,0.4,0.6,0.4,0.2,0.8,,,0.7077,,0.2,0.8,0.4,0.6,0.2,0.8,0.8,0.2,1,0
,,65dc9f26bed0f87772f68eed,66fc97926f6ca6ee5f33d400,2024-10-01_18h46.12.017,mdp,2024.2.1,Win32,15.01501502,66fa4ebf79326e780c390304,,,,,,,,,,,,,,,,,,,,,1239.1838,1239.1838,1239.1843,1239.9246,1,1,right,0.1595,,1239.9251,1241.2626,1,1,right,1241.2631,1242.6568,1,0,right,1,1242.6568,1242.6568,1242.6573,1244.1144,0,18,18,18,1,0.2,0.8,0.2,0.8,,,,,,,,,,,,,,,0.7453,,0.8,0.2,0.6,0.4,0.6,0.4,0.2,0.8,,,0.7763,,0.2,0.8,0.4,0.6,0.6,0.4,0.2,0.8,1,0
,,65dc9f26bed0f87772f68eed,66fc97926f6ca6ee5f33d400,2024-10-01_18h46.12.017,mdp,2024.2.1,Win32,15.01501502,66fa4ebf79326e780c390304,,,,,,,,,,,,,,,,,,,,,1244.1147,1244.1147,1244.1151,1244.9368,1,0,right,0.2331,,1244.9374,1245.9266,1,0,right,1245.9272,1246.9116,1,1,right,0,1246.9116,1246.9116,1246.9121,1248.354,0,19,19,19,1,0.2,0.8,0.2,0.8,,,,,,,,,,,,,,,0.3819,,0.8,0.2,0.6,0.4,0.6,0.4,0.2,0.8,,,0.3677,,0.2,0.8,0.4,0.6,0.6,0.4,0.2,0.8,1,0
,,65dc9f26bed0f87772f68eed,66fc97926f6ca6ee5f33d400,2024-10-01_18h46.12.017,mdp,2024.2.1,Win32,15.01501502,66fa4ebf79326e780c390304,,,,,,,,,,,,,,,,,,,,,1248.3543,1248.3543,1248.3547,1249.264,1,1,right,0.3075,,1249.2645,1250.5201,1,1,right,1250.5207,1252.095,1,1,right,0,1252.0951,1252.0951,1252.0956,1253.5991,0,20,20,20,1,0.2,0.8,0.2,0.8,,,,,,,,,,,,,,,0.6748,,0.8,0.2,0.6,0.4,0.6,0.4,0.2,0.8,,,0.9839,,0.2,0.8,0.4,0.6,0.6,0.4,0.2,0.8,1,0
,,65dc9f26bed0f87772f68eed,66fc97926f6ca6ee5f33d400,2024-10-01_18h46.12.017,mdp,2024.2.1,Win32,15.01501502,66fa4ebf79326e780c390304,,,,,,,,,,,,,,,,,,,,,1253.5994,1253.5994,1253.5998,1254.3443,1,1,right,0.1628,,1254.3449,1255.6834,1,1,right,1255.684,1256.8303,1,1,right,0,1256.8304,1256.8304,1256.8311,1258.3311,0,21,21,21,1,0.2,0.8,0.2,0.8,,,,,,,,,,,,,,,0.7584,,0.8,0.2,0.6,0.4,0.6,0.4,0.2,0.8,,,0.5442,,0.2,0.8,0.4,0.6,0.6,0.4,0.2,0.8,1,0
,,65dc9f26bed0f87772f68eed,66fc97926f6ca6ee5f33d400,2024-10-01_18h46.12.017,mdp,2024.2.1,Win32,15.01501502,66fa4ebf79326e780c390304,,,,,,,,,,,,,,,,,,,,,1258.3314,1258.3314,1258.3318,1259.3872,1,1,right,0.4639,,1259.3878,1260.5866,1,1,right,1260.5871,1261.7811,1,1,right,0,1261.7811,1261.7812,1261.7817,1263.2454,0,22,22,22,1,0.2,0.8,0.2,0.8,,,,,,,,,,,,,,,0.6084,,0.8,0.2,0.6,0.4,0.6,0.4,0.2,0.8,,,0.5723,,0.2,0.8,0.4,0.6,0.6,0.4,0.2,0.8,1,0
,,65dc9f26bed0f87772f68eed,66fc97926f6ca6ee5f33d400,2024-10-01_18h46.12.017,mdp,2024.2.1,Win32,15.01501502,66fa4ebf79326e780c390304,,,,,,,,,,,,,,,,,,,,,1263.2456,1263.2456,1263.2461,1264.3811,1,1,right,0.54,,1264.3816,1265.6877,1,1,right,1265.6882,1266.5678,0,0,left,1,1266.5678,1266.5678,1266.5683,1268.0315,0,23,23,23,1,0.2,0.8,0.2,0.8,,,,,,,,,,,,,,,0.7003,,0.8,0.2,0.6,0.4,0.6,0.4,0.2,0.8,,,0.2916,,0.2,0.8,0.4,0.6,0.6,0.4,0.2,0.8,1,0
,,65dc9f26bed0f87772f68eed,66fc97926f6ca6ee5f33d400,2024-10-01_18h46.12.017,mdp,2024.2.1,Win32,15.01501502,66fa4ebf79326e780c390304,,,,,,,,,,,,,,,,,,,,,1268.0317,1268.0317,1268.0321,1269.1006,1,1,right,0.4729,,1269.1012,1270.251,1,0,right,1270.2516,1272.3002,1,1,right,0,1272.3002,1272.3002,1272.3007,1273.7891,0,24,24,24,1,0.2,0.8,0.2,0.8,,,,,,,,,,,,,,,0.5458,,0.8,0.2,0.6,0.4,0.6,0.4,0.2,0.8,,,1.4455,,0.2,0.8,0.4,0.6,0.6,0.4,0.2,0.8,1,0
,,65dc9f26bed0f87772f68eed,66fc97926f6ca6ee5f33d400,2024-10-01_18h46.12.017,mdp,2024.2.1,Win32,15.01501502,66fa4ebf79326e780c390304,,,,,,,,,,,,,,,,,,,,,1273.7894,1273.7894,1273.7898,1274.7917,1,1,right,0.387,,1274.7922,1276.2321,1,1,right,1276.2326,1277.6848,0,0,left,1,1277.6848,1277.6848,1277.6852,1279.1885,0,25,25,25,1,0.2,0.8,0.2,0.8,,,,,,,,,,,,,,,0.861,,0.8,0.2,0.6,0.4,0.2,0.8,0.4,0.6,,,0.8509,,0.2,0.8,0.4,0.6,0.6,0.4,0.2,0.8,1,0
,,65dc9f26bed0f87772f68eed,66fc97926f6ca6ee5f33d400,2024-10-01_18h46.12.017,mdp,2024.2.1,Win32,15.01501502,66fa4ebf79326e780c390304,,,,,,,,,,,,,,,,,,,,,1279.1887,1279.1888,1279.1892,1280.5454,1,1,right,0.7563,,1280.5459,1281.5669,1,0,right,1281.5675,1284.2281,0,1,left,0,1284.2282,1284.2282,1284.2286,1285.7282,0,26,26,26,1,0.2,0.8,0.2,0.8,,,,,,,,,,,,,,,0.4472,,0.8,0.2,0.6,0.4,0.2,0.8,0.4,0.6,,,2.0523,,0.2,0.8,0.4,0.6,0.6,0.4,0.2,0.8,1,0
,,65dc9f26bed0f87772f68eed,66fc97926f6ca6ee5f33d400,2024-10-01_18h46.12.017,mdp,2024.2.1,Win32,15.01501502,66fa4ebf79326e780c390304,,,,,,,,,,,,,,,,,,,,,1285.7285,1285.7285,1285.7289,1286.7239,1,0,right,0.3986,,1286.7244,1289.0887,1,0,right,1289.0892,1290.1451,1,1,right,0,1290.1452,1290.1452,1290.1456,1291.6499,0,27,27,27,1,0.2,0.8,0.2,0.8,,,,,,,,,,,,,,,1.7757,,0.8,0.2,0.6,0.4,0.2,0.8,0.4,0.6,,,0.4604,,0.2,0.8,0.4,0.6,0.8,0.2,0.6,0.4,1,0
,,65dc9f26bed0f87772f68eed,66fc97926f6ca6ee5f33d400,2024-10-01_18h46.12.017,mdp,2024.2.1,Win32,15.01501502,66fa4ebf79326e780c390304,,,,,,,,,,,,,,,,,,,,,1291.6502,1291.6502,1291.6506,1292.3944,1,1,right,0.1539,,1292.395,1293.5607,1,0,right,1293.5612,1295.9303,0,0,left,1,1295.9303,1295.9303,1295.9308,1297.3858,0,28,28,28,1,0.2,0.8,0.2,0.8,,,,,,,,,,,,,,,0.5578,,0.8,0.2,0.6,0.4,0.2,0.8,0.4,0.6,,,1.7809,,0.2,0.8,0.4,0.6,0.8,0.2,0.6,0.4,1,0
,,65dc9f26bed0f87772f68eed,66fc97926f6ca6ee5f33d400,2024-10-01_18h46.12.017,mdp,2024.2.1,Win32,15.01501502,66fa4ebf79326e780c390304,,,,,,,,,,,,,,,,,,,,,1297.386,1297.386,1297.3865,1298.4365,1,1,right,0.465,,1298.4371,1299.5606,1,0,right,1299.5611,1301.1516,0,1,left,0,1301.1517,1301.1517,1301.1523,1302.6534,0,29,29,29,1,0.2,0.8,0.2,0.8,,,,,,,,,,,,,,,0.5288,,0.8,0.2,0.6,0.4,0.2,0.8,0.4,0.6,,,0.9906,,0.2,0.8,0.4,0.6,0.8,0.2,0.6,0.4,1,0
,,65dc9f26bed0f87772f68eed,66fc97926f6ca6ee5f33d400,2024-10-01_18h46.12.017,mdp,2024.2.1,Win32,15.01501502,66fa4ebf79326e780c390304,,,,,,,,,,,,,,,,,,,,,1302.6537,1302.6537,1302.6541,1303.2422,1,1,right,0.0057,,1303.2427,1304.5607,1,0,right,1304.5613,1305.5918,0,1,left,0,1305.5919,1305.5919,1305.5923,1307.044,0,30,30,30,1,0.2,0.8,0.2,0.8,,,,,,,,,,,,,,,0.704,,0.8,0.2,0.6,0.4,0.2,0.8,0.4,0.6,,,0.4521,,0.2,0.8,0.4,0.6,0.8,0.2,0.6,0.4,1,0
,,65dc9f26bed0f87772f68eed,66fc97926f6ca6ee5f33d400,2024-10-01_18h46.12.017,mdp,2024.2.1,Win32,15.01501502,66fa4ebf79326e780c390304,,,,,,,,,,,,,,,,,,,,,1307.0442,1307.0442,1307.0447,1308.0317,0,1,left,0.3868,,1308.0321,1309.7059,0,1,left,1309.7065,1311.1419,1,1,right,0,1311.1419,1311.1419,1311.1425,1312.5962,0,31,31,31,1,0.2,0.8,0.2,0.8,,,,,,,,,,,,,,,1.0906,,0.8,0.2,0.6,0.4,0.2,0.8,0.4,0.6,,,0.8338,,0.2,0.8,0.4,0.6,0.8,0.2,0.6,0.4,1,0
,,65dc9f26bed0f87772f68eed,66fc97926f6ca6ee5f33d400,2024-10-01_18h46.12.017,mdp,2024.2.1,Win32,15.01501502,66fa4ebf79326e780c390304,,,,,,,,,,,,,,,,,,,,,1312.5964,1312.5964,1312.5968,1313.2715,0,1,left,0.0855,,1313.272,1314.3271,0,1,left,1314.3275,1315.3674,0,0,left,1,1315.3674,1315.3674,1315.3678,1316.8468,0,32,32,32,1,0.2,0.8,0.2,0.8,,,,,,,,,,,,,,,0.4531,,0.8,0.2,0.6,0.4,0.2,0.8,0.4,0.6,,,0.4548,,0.4,0.6,0.6,0.4,0.8,0.2,0.6,0.4,1,0
,,65dc9f26bed0f87772f68eed,66fc97926f6ca6ee5f33d400,2024-10-01_18h46.12.017,mdp,2024.2.1,Win32,15.01501502,66fa4ebf79326e780c390304,,,,,,,,,,,,,,,,,,,,,1316.8471,1316.8471,1316.8474,1318.3584,0,0,left,0.9142,,1318.359,1319.4106,0,0,left,1319.411,1320.4705,0,1,left,0,1320.4705,1320.4705,1320.471,1321.9366,0,33,33,33,1,0.8,0.2,0.4,0.6,,,,,,,,,,,,,,,0.4602,,0.8,0.2,0.6,0.4,0.2,0.8,0.4,0.6,,,0.4612,,0.4,0.6,0.6,0.4,0.8,0.2,0.6,0.4,1,0
,,65dc9f26bed0f87772f68eed,66fc97926f6ca6ee5f33d400,2024-10-01_18h46.12.017,mdp,2024.2.1,Win32,15.01501502,66fa4ebf79326e780c390304,,,,,,,,,,,,,,,,,,,,,1321.9368,1321.9368,1321.9371,1322.8526,0,0,left,0.3115,,1322.8531,1324.1936,0,0,left,1324.1942,1326.1509,1,1,right,0,1326.1509,1326.1509,1326.1513,1327.6601,0,34,34,34,1,0.8,0.2,0.4,0.6,,,,,,,,,,,,,,,0.7622,,0.8,0.2,0.6,0.4,0.2,0.8,0.4,0.6,,,1.3776,,0.4,0.6,0.6,0.4,0.8,0.2,0.6,0.4,1,0
,,65dc9f26bed0f87772f68eed,66fc97926f6ca6ee5f33d400,2024-10-01_18h46.12.017,mdp,2024.2.1,Win32,15.01501502,66fa4ebf79326e780c390304,,,,,,,,,,,,,,,,,,,,,1327.6604,1327.6604,1327.6608,1328.6439,1,1,right,0.3853,,1328.6444,1330.1328,0,1,left,1330.1334,1331.1012,0,0,left,1,1331.1012,1331.1012,1331.1018,1332.6131,0,35,35,35,1,0.8,0.2,0.4,0.6,,,,,,,,,,,,,,,0.9198,,0.8,0.2,0.6,0.4,0.2,0.8,0.4,0.6,,,0.3789,,0.4,0.6,0.6,0.4,0.8,0.2,0.6,0.4,1,0
,,65dc9f26bed0f87772f68eed,66fc97926f6ca6ee5f33d400,2024-10-01_18h46.12.017,mdp,2024.2.1,Win32,15.01501502,66fa4ebf79326e780c390304,,,,,,,,,,,,,,,,,,,,,1332.6133,1332.6133,1332.6137,1333.5869,1,0,right,0.3784,,1333.5874,1334.943,0,0,left,1334.9435,1336.0012,0,1,left,0,1336.0012,1336.0012,1336.0017,1337.4472,0,36,36,36,1,0.8,0.2,0.4,0.6,,,,,,,,,,,,,,,0.7565,,0.8,0.2,0.6,0.4,0.2,0.8,0.4,0.6,,,0.4522,,0.4,0.6,0.6,0.4,0.8,0.2,0.6,0.4,1,0
,,65dc9f26bed0f87772f68eed,66fc97926f6ca6ee5f33d400,2024-10-01_18h46.12.017,mdp,2024.2.1,Win32,15.01501502,66fa4ebf79326e780c390304,,,,,,,,,,,,,,,,,,,,,1337.4474,1337.4474,1337.4479,1338.5012,0,1,left,0.4662,,1338.5018,1339.5674,0,1,left,1339.5679,1340.7615,0,0,left,1,1340.7616,1340.7616,1340.7621,1342.2431,0,37,37,37,1,0.8,0.2,0.4,0.6,,,,,,,,,,,,,,,0.4737,,0.8,0.2,0.6,0.4,0.2,0.8,0.4,0.6,,,0.6206,,0.4,0.6,0.6,0.4,0.8,0.2,0.6,0.4,1,0
,,65dc9f26bed0f87772f68eed,66fc97926f6ca6ee5f33d400,2024-10-01_18h46.12.017,mdp,2024.2.1,Win32,15.01501502,66fa4ebf79326e780c390304,,,,,,,,,,,,,,,,,,,,,1342.2434,1342.2434,1342.2438,1343.2282,0,0,left,0.3866,,1343.2287,1344.2314,0,0,left,1344.2319,1345.1435,0,1,left,0,1345.1436,1345.1436,1345.1441,1346.5972,0,38,38,38,1,0.8,0.2,0.4,0.6,,,,,,,,,,,,,,,0.4006,,0.8,0.2,0.6,0.4,0.2,0.8,0.4,0.6,,,0.2947,,0.4,0.6,0.6,0.4,0.8,0.2,0.6,0.4,1,0
,,65dc9f26bed0f87772f68eed,66fc97926f6ca6ee5f33d400,2024-10-01_18h46.12.017,mdp,2024.2.1,Win32,15.01501502,66fa4ebf79326e780c390304,,,,,,,,,,,,,,,,,,,,,1346.5974,1346.5974,1346.5978,1347.5229,0,0,left,0.3071,,1347.5235,1349.6201,1,0,right,1349.6207,1351.0345,1,1,right,0,1351.0345,1351.0345,1351.035,1352.5273,0,39,39,39,1,0.8,0.2,0.4,0.6,,,,,,,,,,,,,,,1.4497,,0.8,0.2,0.6,0.4,0.2,0.8,0.4,0.6,,,0.8322,,0.4,0.6,0.6,0.4,0.8,0.2,0.6,0.4,1,0
,,65dc9f26bed0f87772f68eed,66fc97926f6ca6ee5f33d400,2024-10-01_18h46.12.017,mdp,2024.2.1,Win32,15.01501502,66fa4ebf79326e780c390304,,,,,,,,,,,,,,,,,,,,,1352.5276,1352.5276,1352.528,1353.4455,0,0,left,0.3215,,1353.446,1355.7026,0,0,left,1355.7031,1356.7808,0,0,left,1,1356.7808,1356.7808,1356.7814,1358.2365,0,40,40,40,1,0.8,0.2,0.4,0.6,,,,,,,,,,,,,,,1.6538,,0.8,0.2,0.6,0.4,0.2,0.8,0.4,0.6,,,0.4801,,0.4,0.6,0.6,0.4,0.8,0.2,0.6,0.4,1,0
,,65dc9f26bed0f87772f68eed,66fc97926f6ca6ee5f33d400,2024-10-01_18h46.12.017,mdp,2024.2.1,Win32,15.01501502,66fa4ebf79326e780c390304,,,,,,,,,,,,,,,,,,,,,1358.2368,1358.2368,1358.2372,1359.5176,1,1,right,0.7,,1359.5181,1360.7999,0,1,left,1360.8005,1361.6373,0,1,left,0,1361.6373,1361.6373,1361.6378,1363.1023,0,41,41,41,1,0.8,0.2,0.4,0.6,,,,,,,,,,,,,,,0.6791,,0.8,0.2,0.6,0.4,0.2,0.8,0.4,0.6,,,0.2299,,0.6,0.4,0.4,0.6,0.8,0.2,0.6,0.4,1,0
,,65dc9f26bed0f87772f68eed,66fc97926f6ca6ee5f33d400,2024-10-01_18h46.12.017,mdp,2024.2.1,Win32,15.01501502,66fa4ebf79326e780c390304,,,,,,,,,,,,,,,,,,,,,1363.1026,1363.1026,1363.103,1364.0122,1,1,right,0.3088,,1364.0127,1365.1551,1,0,right,1365.1556,1366.1226,1,1,right,0,1366.1226,1366.1226,1366.1233,1367.5838,0,42,42,42,1,0.8,0.2,0.4,0.6,,,,,,,,,,,,,,,0.5407,,0.8,0.2,0.6,0.4,0.2,0.8,0.4,0.6,,,0.372,,0.6,0.4,0.4,0.6,0.8,0.2,0.6,0.4,1,0
,,65dc9f26bed0f87772f68eed,66fc97926f6ca6ee5f33d400,2024-10-01_18h46.12.017,mdp,2024.2.1,Win32,15.01501502,66fa4ebf79326e780c390304,,,,,,,,,,,,,,,,,,,,,1367.5841,1367.5841,1367.5846,1368.4122,1,0,right,0.2318,,1368.4127,1370.437,0,0,left,1370.4374,1371.2465,1,0,right,1,1371.2465,1371.2465,1371.2469,1372.7395,0,43,43,43,1,0.8,0.2,0.4,0.6,,,,,,,,,,,,,,,1.4393,,0.8,0.2,0.6,0.4,0.2,0.8,0.4,0.6,,,0.2218,,0.6,0.4,0.4,0.6,0.8,0.2,0.6,0.4,1,0
,,65dc9f26bed0f87772f68eed,66fc97926f6ca6ee5f33d400,2024-10-01_18h46.12.017,mdp,2024.2.1,Win32,15.01501502,66fa4ebf79326e780c390304,,,,,,,,,,,,,,,,,,,,,1372.7396,1372.7396,1372.74,1373.5107,1,1,right,0.1679,,1373.5113,1374.5131,0,1,left,1374.5136,1375.4938,0,0,left,1,1375.4939,1375.4939,1375.4943,1376.9445,0,44,44,44,1,0.8,0.2,0.4,0.6,,,,,,,,,,,,,,,0.3911,,0.8,0.2,0.6,0.4,0.2,0.8,0.4,0.6,,,0.3828,,0.6,0.4,0.4,0.6,0.8,0.2,0.6,0.4,1,0
,,65dc9f26bed0f87772f68eed,66fc97926f6ca6ee5f33d400,2024-10-01_18h46.12.017,mdp,2024.2.1,Win32,15.01501502,66fa4ebf79326e780c390304,,,,,,,,,,,,,,,,,,,,,1376.9448,1376.9448,1376.9452,1377.8605,1,0,right,0.3077,,1377.861,1378.8518,0,1,left,1378.8524,1379.5362,0,0,left,1,1379.5363,1379.5363,1379.5368,1381.0094,0,45,45,45,1,0.8,0.2,0.4,0.6,,,,,,,,,,,,,,,0.3903,,0.8,0.2,0.6,0.4,0.2,0.8,0.4,0.6,,,0.0789,,0.6,0.4,0.4,0.6,0.8,0.2,0.6,0.4,1,0
,,65dc9f26bed0f87772f68eed,66fc97926f6ca6ee5f33d400,2024-10-01_18h46.12.017,mdp,2024.2.1,Win32,15.01501502,66fa4ebf79326e780c390304,,,,,,,,,,,,,,,,,,,,,1381.0095,1381.0096,1381.01,1382.0005,1,0,right,0.3848,,1382.001,1382.7761,0,1,left,1382.7766,1383.4403,0,0,left,1,1383.4404,1383.4404,1383.4409,1384.8953,0,46,46,46,1,0.8,0.2,0.4,0.6,,,,,,,,,,,,,,,0.1595,,0.8,0.2,0.6,0.4,0.2,0.8,0.4,0.6,,,0.0763,,0.6,0.4,0.4,0.6,0.8,0.2,0.6,0.4,1,0
,,65dc9f26bed0f87772f68eed,66fc97926f6ca6ee5f33d400,2024-10-01_18h46.12.017,mdp,2024.2.1,Win32,15.01501502,66fa4ebf79326e780c390304,,,,,,,,,,,,,,,,,,,,,1384.8956,1384.8956,1384.8959,1385.506,1,1,right,0.007,,1385.5065,1386.2568,1,1,right,1386.2573,1386.867,0,1,left,0,1386.867,1386.867,1386.8676,1388.3052,0,47,47,47,1,0.8,0.2,0.4,0.6,,,,,,,,,,,,,,,0.1674,,0.8,0.2,0.6,0.4,0.2,0.8,0.4,0.6,,,0.0072,,0.6,0.4,0.4,0.6,0.8,0.2,0.6,0.4,1,0
,,65dc9f26bed0f87772f68eed,66fc97926f6ca6ee5f33d400,2024-10-01_18h46.12.017,mdp,2024.2.1,Win32,15.01501502,66fa4ebf79326e780c390304,,,,,,,,,,,,,,,,,,,,,1388.3054,1388.3054,1388.3059,1389.1239,1,0,right,0.2312,,1389.1244,1390.0181,1,0,right,1390.0187,1391.0686,0,0,left,1,1391.0687,1391.0687,1391.0692,1392.5577,0,48,48,48,1,0.8,0.2,0.4,0.6,,,,,,,,,,,,,,,0.3001,,0.8,0.2,0.6,0.4,0.8,0.2,0.2,0.8,,,0.4417,,0.6,0.4,0.4,0.6,0.8,0.2,0.6,0.4,1,0
,,65dc9f26bed0f87772f68eed,66fc97926f6ca6ee5f33d400,2024-10-01_18h46.12.017,mdp,2024.2.1,Win32,15.01501502,66fa4ebf79326e780c390304,,,,,,,,,,,,,,,,,,,,,1392.558,1392.558,1392.5584,1393.3103,1,1,right,0.1534,,1393.3108,1394.1584,1,1,right,1394.1591,1395.0827,0,0,left,1,1395.0827,1395.0827,1395.0832,1396.533,0,49,49,49,1,0.4,0.6,0.6,0.4,,,,,,,,,,,,,,,0.2397,,0.8,0.2,0.6,0.4,0.8,0.2,0.2,0.8,,,0.3255,,0.6,0.4,0.4,0.6,0.8,0.2,0.6,0.4,1,0
,,65dc9f26bed0f87772f68eed,66fc97926f6ca6ee5f33d400,2024-10-01_18h46.12.017,mdp,2024.2.1,Win32,15.01501502,66fa4ebf79326e780c390304,,,,,,,,,,,,,,,,,,,,,,,,,,,,,,,,,,,,,,,,,,,,,,,,,,,,,,,,1396.5331,1455.1469,0,3,3,3,1,imgs/cat.png,imgs/dog.png,imgs/kangaroo.png,imgs/goat.png,imgs/giraffe.png,,,,,,,,,,,,,,,,,,,,,,,,
,,65dc9f26bed0f87772f68eed,66fc97926f6ca6ee5f33d400,2024-10-01_18h46.12.017,mdp,2024.2.1,Win32,15.01501502,66fa4ebf79326e780c390304,,,,,,,,,,,,,,1,seqs/st1seq15.csv,1455.1474,1460.9634,space,5.2201,,1460.9647,1460.9647,1460.965,1463.0959,1,0,right,1.5172,,1463.0965,1463.0968,1,0,,1463.0972,1463.0974,0,0,,1,1463.0975,1463.0975,1463.0977,1464.6202,0,0,0,0,1,0.2,0.8,0.8,0.2,1,0,,,,,,,,,,,,,,,,,,,,,,,,,,,,,,,,,,,,
,,65dc9f26bed0f87772f68eed,66fc97926f6ca6ee5f33d400,2024-10-01_18h46.12.017,mdp,2024.2.1,Win32,15.01501502,66fa4ebf79326e780c390304,,,,,,,,,,,,,,,,,,,,,1464.6204,1464.6204,1464.6208,1465.9793,1,0,right,0.7498,,1465.9799,1465.9801,1,1,,1465.9803,1465.9807,0,0,,1,1465.9807,1465.9807,1465.981,1467.4477,0,1,1,1,1,0.2,0.8,0.8,0.2,1,0,,,,,,,,,,,,,,,,,,,,,,,,,,,,,,,,,,,,
,,65dc9f26bed0f87772f68eed,66fc97926f6ca6ee5f33d400,2024-10-01_18h46.12.017,mdp,2024.2.1,Win32,15.01501502,66fa4ebf79326e780c390304,,,,,,,,,,,,,,,,,,,,,1467.4478,1467.4478,1467.4483,1468.5153,1,0,right,0.4616,,1468.5158,1468.5161,1,0,,1468.5163,1468.5165,0,1,,1,1468.5165,1468.5165,1468.5166,1470.0236,0,2,2,2,1,0.2,0.8,0.8,0.2,1,0,,,,,,,,,,,,,,,,,,,,,,,,,,,,,,,,,,,,
,,65dc9f26bed0f87772f68eed,66fc97926f6ca6ee5f33d400,2024-10-01_18h46.12.017,mdp,2024.2.1,Win32,15.01501502,66fa4ebf79326e780c390304,,,,,,,,,,,,,,,,,,,,,1470.0238,1470.0238,1470.0242,1470.9273,1,0,right,0.3261,,1470.9279,1470.9282,1,1,,1470.9284,1470.9285,0,0,,1,1470.9285,1470.9285,1470.9287,1472.3866,0,3,3,3,1,0.2,0.8,0.8,0.2,1,0,,,,,,,,,,,,,,,,,,,,,,,,,,,,,,,,,,,,
,,65dc9f26bed0f87772f68eed,66fc97926f6ca6ee5f33d400,2024-10-01_18h46.12.017,mdp,2024.2.1,Win32,15.01501502,66fa4ebf79326e780c390304,,,,,,,,,,,,,,,,,,,,,1472.3868,1472.3868,1472.3872,1473.4515,1,0,right,0.461,,1473.452,1473.4523,1,1,,1473.4525,1473.4526,0,0,,1,1473.4526,1473.4526,1473.4528,1474.9098,0,4,4,4,1,0.2,0.8,0.8,0.2,1,0,,,,,,,,,,,,,,,,,,,,,,,,,,,,,,,,,,,,
,,65dc9f26bed0f87772f68eed,66fc97926f6ca6ee5f33d400,2024-10-01_18h46.12.017,mdp,2024.2.1,Win32,15.01501502,66fa4ebf79326e780c390304,,,,,,,,,,,,,,,,,,,,,1474.9099,1474.9099,1474.9104,1475.9648,1,0,right,0.4598,,1475.9653,1475.9656,1,0,,1475.9658,1475.9659,0,0,,1,1475.9659,1475.9659,1475.9661,1477.4712,0,5,5,5,1,0.2,0.8,0.8,0.2,1,0,,,,,,,,,,,,,,,,,,,,,,,,,,,,,,,,,,,,
,,65dc9f26bed0f87772f68eed,66fc97926f6ca6ee5f33d400,2024-10-01_18h46.12.017,mdp,2024.2.1,Win32,15.01501502,66fa4ebf79326e780c390304,,,,,,,,,,,,,,,,,,,,,1477.4715,1477.4715,1477.4718,1478.4386,1,0,right,0.3883,,1478.4391,1478.4394,1,0,,1478.4396,1478.4397,0,0,,1,1478.4397,1478.4397,1478.4398,1479.9389,0,6,6,6,1,0.2,0.8,0.8,0.2,1,0,,,,,,,,,,,,,,,,,,,,,,,,,,,,,,,,,,,,
,,65dc9f26bed0f87772f68eed,66fc97926f6ca6ee5f33d400,2024-10-01_18h46.12.017,mdp,2024.2.1,Win32,15.01501502,66fa4ebf79326e780c390304,,,,,,,,,,,,,,,,,,,,,1479.9391,1479.9391,1479.9395,1481.0653,1,1,right,0.5339,,1481.0658,1481.0661,1,0,,1481.0662,1481.0664,0,0,,0,1481.0664,1481.0664,1481.0666,1482.5437,0,7,7,7,1,0.2,0.8,0.8,0.2,1,0,,,,,,,,,,,,,,,,,,,,,,,,,,,,,,,,,,,,
,,65dc9f26bed0f87772f68eed,66fc97926f6ca6ee5f33d400,2024-10-01_18h46.12.017,mdp,2024.2.1,Win32,15.01501502,66fa4ebf79326e780c390304,,,,,,,,,,,,,,,,,,,,,1482.5439,1482.5439,1482.5443,1483.4345,1,0,right,0.3034,,1483.4351,1483.4355,1,0,,1483.4359,1483.4361,0,0,,1,1483.4361,1483.4361,1483.4363,1484.917,0,8,8,8,1,0.2,0.8,0.8,0.2,1,0,,,,,,,,,,,,,,,,,,,,,,,,,,,,,,,,,,,,
,,65dc9f26bed0f87772f68eed,66fc97926f6ca6ee5f33d400,2024-10-01_18h46.12.017,mdp,2024.2.1,Win32,15.01501502,66fa4ebf79326e780c390304,,,,,,,,,,,,,,,,,,,,,1484.9173,1484.9173,1484.9176,1485.9123,1,0,right,0.3915,,1485.9129,1485.9133,1,1,,1485.9134,1485.9136,0,0,,1,1485.9136,1485.9136,1485.9138,1487.4301,0,9,9,9,1,0.2,0.8,0.8,0.2,1,0,,,,,,,,,,,,,,,,,,,,,,,,,,,,,,,,,,,,
,,65dc9f26bed0f87772f68eed,66fc97926f6ca6ee5f33d400,2024-10-01_18h46.12.017,mdp,2024.2.1,Win32,15.01501502,66fa4ebf79326e780c390304,,,,,,,,,,,,,,,,,,,,,1487.4303,1487.4303,1487.4307,1488.3851,1,0,right,0.3276,,1488.3857,1488.386,1,1,,1488.3861,1488.3863,0,0,,1,1488.3863,1488.3863,1488.3865,1489.842,0,10,10,10,1,0.4,0.6,0.6,0.4,1,0,,,,,,,,,,,,,,,,,,,,,,,,,,,,,,,,,,,,
,,65dc9f26bed0f87772f68eed,66fc97926f6ca6ee5f33d400,2024-10-01_18h46.12.017,mdp,2024.2.1,Win32,15.01501502,66fa4ebf79326e780c390304,,,,,,,,,,,,,,,,,,,,,1489.8422,1489.8422,1489.8426,1490.7337,1,1,right,0.3015,,1490.7343,1490.7346,1,1,,1490.7347,1490.7349,0,1,,0,1490.7349,1490.7349,1490.7351,1492.2304,0,11,11,11,1,0.4,0.6,0.6,0.4,1,0,,,,,,,,,,,,,,,,,,,,,,,,,,,,,,,,,,,,
,,65dc9f26bed0f87772f68eed,66fc97926f6ca6ee5f33d400,2024-10-01_18h46.12.017,mdp,2024.2.1,Win32,15.01501502,66fa4ebf79326e780c390304,,,,,,,,,,,,,,,,,,,,,1492.2307,1492.2307,1492.2311,1493.097,1,0,right,0.2985,,1493.0978,1493.0982,1,0,,1493.0985,1493.0987,0,0,,1,1493.0987,1493.0987,1493.0988,1494.574,0,12,12,12,1,0.4,0.6,0.6,0.4,1,0,,,,,,,,,,,,,,,,,,,,,,,,,,,,,,,,,,,,
,,65dc9f26bed0f87772f68eed,66fc97926f6ca6ee5f33d400,2024-10-01_18h46.12.017,mdp,2024.2.1,Win32,15.01501502,66fa4ebf79326e780c390304,,,,,,,,,,,,,,,,,,,,,1494.5741,1494.5741,1494.5746,1495.5931,1,0,right,0.4137,,1495.5936,1495.5939,1,1,,1495.5941,1495.5943,0,0,,1,1495.5943,1495.5943,1495.5945,1497.076,0,13,13,13,1,0.4,0.6,0.6,0.4,1,0,,,,,,,,,,,,,,,,,,,,,,,,,,,,,,,,,,,,
,,65dc9f26bed0f87772f68eed,66fc97926f6ca6ee5f33d400,2024-10-01_18h46.12.017,mdp,2024.2.1,Win32,15.01501502,66fa4ebf79326e780c390304,,,,,,,,,,,,,,,,,,,,,1497.0768,1497.0768,1497.0782,1498.0667,1,0,right,0.4124,,1498.0673,1498.0675,1,0,,1498.0678,1498.0681,0,1,,1,1498.0681,1498.0681,1498.0682,1499.528,0,14,14,14,1,0.6,0.4,0.8,0.2,1,0,,,,,,,,,,,,,,,,,,,,,,,,,,,,,,,,,,,,
,,65dc9f26bed0f87772f68eed,66fc97926f6ca6ee5f33d400,2024-10-01_18h46.12.017,mdp,2024.2.1,Win32,15.01501502,66fa4ebf79326e780c390304,,,,,,,,,,,,,,,,,,,,,1499.5283,1499.5283,1499.5287,1500.9159,1,1,right,0.7425,,1500.9166,1500.9168,1,1,,1500.917,1500.9172,0,0,,0,1500.9172,1500.9172,1500.9174,1502.3977,0,15,15,15,1,0.2,0.8,0.6,0.4,1,0,,,,,,,,,,,,,,,,,,,,,,,,,,,,,,,,,,,,
,,65dc9f26bed0f87772f68eed,66fc97926f6ca6ee5f33d400,2024-10-01_18h46.12.017,mdp,2024.2.1,Win32,15.01501502,66fa4ebf79326e780c390304,,,,,,,,,,,,,,,,,,,,,1502.3979,1502.3979,1502.3983,1503.4494,1,1,right,0.4127,,1503.45,1503.4503,1,0,,1503.4505,1503.4506,0,1,,0,1503.4506,1503.4506,1503.4508,1504.9178,0,16,16,16,1,0.2,0.8,0.6,0.4,1,0,,,,,,,,,,,,,,,,,,,,,,,,,,,,,,,,,,,,
,,65dc9f26bed0f87772f68eed,66fc97926f6ca6ee5f33d400,2024-10-01_18h46.12.017,mdp,2024.2.1,Win32,15.01501502,66fa4ebf79326e780c390304,,,,,,,,,,,,,,,,,,,,,1504.918,1504.918,1504.9185,1506.0608,1,1,right,0.4936,,1506.0613,1506.0617,1,1,,1506.0619,1506.0621,0,1,,0,1506.0621,1506.0622,1506.0623,1507.5235,0,17,17,17,1,0.6,0.4,0.2,0.8,1,0,,,,,,,,,,,,,,,,,,,,,,,,,,,,,,,,,,,,
,,65dc9f26bed0f87772f68eed,66fc97926f6ca6ee5f33d400,2024-10-01_18h46.12.017,mdp,2024.2.1,Win32,15.01501502,66fa4ebf79326e780c390304,,,,,,,,,,,,,,,,,,,,,1507.5237,1507.5237,1507.5243,1508.4545,0,1,left,0.3184,,1508.4551,1508.4553,1,0,,1508.4555,1508.4557,0,1,,0,1508.4557,1508.4557,1508.4558,1509.9171,0,18,18,18,1,0.6,0.4,0.2,0.8,1,0,,,,,,,,,,,,,,,,,,,,,,,,,,,,,,,,,,,,
,,65dc9f26bed0f87772f68eed,66fc97926f6ca6ee5f33d400,2024-10-01_18h46.12.017,mdp,2024.2.1,Win32,15.01501502,66fa4ebf79326e780c390304,,,,,,,,,,,,,,,,,,,,,1509.9173,1509.9173,1509.9178,1510.8739,0,0,left,0.314,,1510.8744,1510.8746,1,0,,1510.8748,1510.875,0,1,,1,1510.875,1510.875,1510.8752,1512.3325,0,19,19,19,1,0.6,0.4,0.2,0.8,1,0,,,,,,,,,,,,,,,,,,,,,,,,,,,,,,,,,,,,
,,65dc9f26bed0f87772f68eed,66fc97926f6ca6ee5f33d400,2024-10-01_18h46.12.017,mdp,2024.2.1,Win32,15.01501502,66fa4ebf79326e780c390304,,,,,,,,,,,,,,,,,,,,,1512.3327,1512.3327,1512.3332,1513.431,0,0,left,0.4941,,1513.4315,1513.4319,1,1,,1513.432,1513.4322,0,1,,1,1513.4323,1513.4323,1513.4326,1514.87,0,20,20,20,1,0.4,0.6,0.8,0.2,1,0,,,,,,,,,,,,,,,,,,,,,,,,,,,,,,,,,,,,
,,65dc9f26bed0f87772f68eed,66fc97926f6ca6ee5f33d400,2024-10-01_18h46.12.017,mdp,2024.2.1,Win32,15.01501502,66fa4ebf79326e780c390304,,,,,,,,,,,,,,,,,,,,,1514.8703,1514.8703,1514.8707,1515.7882,0,1,left,0.3134,,1515.7888,1515.789,1,1,,1515.7892,1515.7894,0,1,,0,1515.7894,1515.7894,1515.7896,1517.3005,0,21,21,21,1,0.4,0.6,0.8,0.2,1,0,,,,,,,,,,,,,,,,,,,,,,,,,,,,,,,,,,,,
,,65dc9f26bed0f87772f68eed,66fc97926f6ca6ee5f33d400,2024-10-01_18h46.12.017,mdp,2024.2.1,Win32,15.01501502,66fa4ebf79326e780c390304,,,,,,,,,,,,,,,,,,,,,1517.3007,1517.3007,1517.3011,1518.1015,0,0,left,0.1684,,1518.1021,1518.1024,1,0,,1518.1025,1518.1027,0,0,,1,1518.1028,1518.1028,1518.1029,1519.5742,0,22,22,22,1,0.8,0.2,0.6,0.4,1,0,,,,,,,,,,,,,,,,,,,,,,,,,,,,,,,,,,,,
,,65dc9f26bed0f87772f68eed,66fc97926f6ca6ee5f33d400,2024-10-01_18h46.12.017,mdp,2024.2.1,Win32,15.01501502,66fa4ebf79326e780c390304,,,,,,,,,,,,,,,,,,,,,1519.5744,1519.5744,1519.5748,1520.7112,0,0,left,0.5422,,1520.7117,1520.7119,1,0,,1520.7122,1520.7123,0,1,,1,1520.7123,1520.7123,1520.7125,1522.1832,0,23,23,23,1,0.6,0.4,0.8,0.2,1,0,,,,,,,,,,,,,,,,,,,,,,,,,,,,,,,,,,,,
,,65dc9f26bed0f87772f68eed,66fc97926f6ca6ee5f33d400,2024-10-01_18h46.12.017,mdp,2024.2.1,Win32,15.01501502,66fa4ebf79326e780c390304,,,,,,,,,,,,,,,,,,,,,1522.1834,1522.1835,1522.1839,1523.4091,0,1,left,0.6084,,1523.4097,1523.41,1,0,,1523.4102,1523.4103,0,0,,0,1523.4103,1523.4103,1523.4107,1524.8873,0,24,24,24,1,0.6,0.4,0.8,0.2,1,0,,,,,,,,,,,,,,,,,,,,,,,,,,,,,,,,,,,,
,,65dc9f26bed0f87772f68eed,66fc97926f6ca6ee5f33d400,2024-10-01_18h46.12.017,mdp,2024.2.1,Win32,15.01501502,66fa4ebf79326e780c390304,,,,,,,,,,,,,,,,,,,,,1524.8875,1524.8875,1524.888,1525.72,0,0,left,0.2369,,1525.7205,1525.7208,1,1,,1525.721,1525.7212,0,1,,1,1525.7212,1525.7212,1525.7214,1527.1685,0,25,25,25,1,0.6,0.4,0.8,0.2,1,0,,,,,,,,,,,,,,,,,,,,,,,,,,,,,,,,,,,,
,,65dc9f26bed0f87772f68eed,66fc97926f6ca6ee5f33d400,2024-10-01_18h46.12.017,mdp,2024.2.1,Win32,15.01501502,66fa4ebf79326e780c390304,,,,,,,,,,,,,,,,,,,,,1527.1687,1527.1687,1527.1692,1528.2477,0,0,left,0.4843,,1528.2482,1528.2485,1,0,,1528.2487,1528.2489,0,1,,1,1528.2489,1528.2489,1528.249,1529.7478,0,26,26,26,1,0.8,0.2,0.2,0.8,1,0,,,,,,,,,,,,,,,,,,,,,,,,,,,,,,,,,,,,
,,65dc9f26bed0f87772f68eed,66fc97926f6ca6ee5f33d400,2024-10-01_18h46.12.017,mdp,2024.2.1,Win32,15.01501502,66fa4ebf79326e780c390304,,,,,,,,,,,,,,,,,,,,,1529.748,1529.748,1529.7484,1530.6718,0,0,left,0.317,,1530.6724,1530.6727,1,0,,1530.6729,1530.6731,0,0,,1,1530.6731,1530.6731,1530.6732,1532.146,0,27,27,27,1,0.8,0.2,0.2,0.8,1,0,,,,,,,,,,,,,,,,,,,,,,,,,,,,,,,,,,,,
,,65dc9f26bed0f87772f68eed,66fc97926f6ca6ee5f33d400,2024-10-01_18h46.12.017,mdp,2024.2.1,Win32,15.01501502,66fa4ebf79326e780c390304,,,,,,,,,,,,,,,,,,,,,1532.1462,1532.1462,1532.1466,1533.4002,0,0,left,0.6158,,1533.4008,1533.401,1,0,,1533.4012,1533.4014,0,0,,1,1533.4014,1533.4014,1533.4015,1534.9197,0,28,28,28,1,0.8,0.2,0.2,0.8,1,0,,,,,,,,,,,,,,,,,,,,,,,,,,,,,,,,,,,,
,,65dc9f26bed0f87772f68eed,66fc97926f6ca6ee5f33d400,2024-10-01_18h46.12.017,mdp,2024.2.1,Win32,15.01501502,66fa4ebf79326e780c390304,,,,,,,,,,,,,,,,,,,,,1534.9199,1534.9199,1534.9203,1536.1667,0,0,left,0.62,,1536.1673,1536.1676,1,0,,1536.1678,1536.1679,0,1,,1,1536.1679,1536.1679,1536.1681,1537.6079,0,29,29,29,1,0.6,0.4,0.4,0.6,1,0,,,,,,,,,,,,,,,,,,,,,,,,,,,,,,,,,,,,
,,65dc9f26bed0f87772f68eed,66fc97926f6ca6ee5f33d400,2024-10-01_18h46.12.017,mdp,2024.2.1,Win32,15.01501502,66fa4ebf79326e780c390304,,,,,,,,,,,,,,,,,,,,,1537.6081,1537.6081,1537.6086,1538.958,0,1,left,0.7566,,1538.9585,1538.9588,1,1,,1538.9591,1538.9594,0,1,,0,1538.9594,1538.9594,1538.9596,1540.4314,0,30,30,30,1,0.2,0.8,0.6,0.4,1,0,,,,,,,,,,,,,,,,,,,,,,,,,,,,,,,,,,,,
,,65dc9f26bed0f87772f68eed,66fc97926f6ca6ee5f33d400,2024-10-01_18h46.12.017,mdp,2024.2.1,Win32,15.01501502,66fa4ebf79326e780c390304,,,,,,,,,,,,,,,,,,,,,1540.4316,1540.4316,1540.4319,1541.517,0,1,left,0.4745,,1541.5175,1541.5178,1,1,,1541.518,1541.5181,0,1,,0,1541.5181,1541.5181,1541.5183,1542.998,0,31,31,31,1,0.2,0.8,0.6,0.4,1,0,,,,,,,,,,,,,,,,,,,,,,,,,,,,,,,,,,,,
,,65dc9f26bed0f87772f68eed,66fc97926f6ca6ee5f33d400,2024-10-01_18h46.12.017,mdp,2024.2.1,Win32,15.01501502,66fa4ebf79326e780c390304,,,,,,,,,,,,,,,,,,,,,1542.9981,1542.9981,1542.9986,1543.7538,1,1,right,0.1619,,1543.7545,1543.7548,1,1,,1543.7551,1543.7554,0,0,,0,1543.7556,1543.7556,1543.7558,1545.2124,0,32,32,32,1,0.2,0.8,0.6,0.4,1,0,,,,,,,,,,,,,,,,,,,,,,,,,,,,,,,,,,,,
,,65dc9f26bed0f87772f68eed,66fc97926f6ca6ee5f33d400,2024-10-01_18h46.12.017,mdp,2024.2.1,Win32,15.01501502,66fa4ebf79326e780c390304,,,,,,,,,,,,,,,,,,,,,1545.2126,1545.2126,1545.213,1546.1374,0,0,left,0.3241,,1546.1381,1546.1384,1,0,,1546.1388,1546.1391,0,0,,1,1546.1391,1546.1391,1546.1393,1547.6251,0,33,33,33,1,0.8,0.2,0.2,0.8,1,0,,,,,,,,,,,,,,,,,,,,,,,,,,,,,,,,,,,,
,,65dc9f26bed0f87772f68eed,66fc97926f6ca6ee5f33d400,2024-10-01_18h46.12.017,mdp,2024.2.1,Win32,15.01501502,66fa4ebf79326e780c390304,,,,,,,,,,,,,,,,,,,,,1547.6253,1547.6253,1547.6257,1548.5825,0,0,left,0.374,,1548.583,1548.5833,1,0,,1548.5835,1548.5837,0,0,,1,1548.5837,1548.5837,1548.5838,1550.055,0,34,34,34,1,0.8,0.2,0.2,0.8,1,0,,,,,,,,,,,,,,,,,,,,,,,,,,,,,,,,,,,,
,,65dc9f26bed0f87772f68eed,66fc97926f6ca6ee5f33d400,2024-10-01_18h46.12.017,mdp,2024.2.1,Win32,15.01501502,66fa4ebf79326e780c390304,,,,,,,,,,,,,,,,,,,,,1550.0552,1550.0553,1550.0558,1551.4318,0,0,left,0.7857,,1551.4324,1551.4326,1,0,,1551.4331,1551.4333,0,0,,1,1551.4333,1551.4333,1551.4335,1552.9171,0,35,35,35,1,0.8,0.2,0.2,0.8,1,0,,,,,,,,,,,,,,,,,,,,,,,,,,,,,,,,,,,,
,,65dc9f26bed0f87772f68eed,66fc97926f6ca6ee5f33d400,2024-10-01_18h46.12.017,mdp,2024.2.1,Win32,15.01501502,66fa4ebf79326e780c390304,,,,,,,,,,,,,,,,,,,,,1552.9173,1552.9174,1552.9178,1554.1086,1,1,right,0.5982,,1554.1091,1554.1094,1,1,,1554.1096,1554.1097,0,1,,0,1554.1097,1554.1097,1554.1099,1555.6037,0,36,36,36,1,0.8,0.2,0.2,0.8,1,0,,,,,,,,,,,,,,,,,,,,,,,,,,,,,,,,,,,,
,,65dc9f26bed0f87772f68eed,66fc97926f6ca6ee5f33d400,2024-10-01_18h46.12.017,mdp,2024.2.1,Win32,15.01501502,66fa4ebf79326e780c390304,,,,,,,,,,,,,,,,,,,,,1555.6039,1555.6039,1555.6045,1556.1971,0,0,left,0.0072,,1556.1976,1556.1979,1,0,,1556.1983,1556.1985,0,0,,1,1556.1985,1556.1985,1556.1987,1557.7131,0,37,37,37,1,0.8,0.2,0.2,0.8,1,0,,,,,,,,,,,,,,,,,,,,,,,,,,,,,,,,,,,,
,,65dc9f26bed0f87772f68eed,66fc97926f6ca6ee5f33d400,2024-10-01_18h46.12.017,mdp,2024.2.1,Win32,15.01501502,66fa4ebf79326e780c390304,,,,,,,,,,,,,,,,,,,,,1557.7132,1557.7132,1557.7136,1558.8411,0,0,left,0.5408,,1558.8416,1558.8419,1,0,,1558.8421,1558.8422,0,0,,1,1558.8422,1558.8422,1558.8424,1560.2805,0,38,38,38,1,0.8,0.2,0.2,0.8,1,0,,,,,,,,,,,,,,,,,,,,,,,,,,,,,,,,,,,,
,,65dc9f26bed0f87772f68eed,66fc97926f6ca6ee5f33d400,2024-10-01_18h46.12.017,mdp,2024.2.1,Win32,15.01501502,66fa4ebf79326e780c390304,,,,,,,,,,,,,,,,,,,,,1560.2806,1560.2806,1560.2811,1561.4758,0,0,left,0.6145,,1561.4765,1561.4767,1,0,,1561.477,1561.4774,0,1,,1,1561.4774,1561.4774,1561.4777,1562.9159,0,39,39,39,1,0.8,0.2,0.2,0.8,1,0,,,,,,,,,,,,,,,,,,,,,,,,,,,,,,,,,,,,
