init_exp.started,init_exp.stopped,participant,session,date,expName,psychopyVersion,OS,frameRate,study_id,disp_instruction.started,disp_instruction.stopped,instruction.thisRepN,instruction.thisTrialN,instruction.thisN,instruction.thisIndex,instruction.ran,instimg_path,consent.started,consent.stopped,key_resp_3.keys,key_resp_3.rt,key_resp_3.duration,n_steps,sequence_path,init_block.started,init_block.stopped,key_resp.keys,key_resp.rt,key_resp.duration,init_trials.started,init_trials.stopped,step0.started,step0.stopped,act0,s1,res0.keys,res0.rt,res0.duration,step1.started,step1.stopped,act1,s2,res1.keys,step2.started,step2.stopped,act2,s3,res2.keys,rew,reward_comp.started,reward_comp.stopped,reward_disp.started,reward_disp.stopped,trials.thisRepN,trials.thisTrialN,trials.thisN,trials.thisIndex,trials.ran,s00a0s10,s00a0s11,s00a1s10,s00a1s11,rew10,rew11,break_block.started,break_block.stopped,block.thisRepN,block.thisTrialN,block.thisN,block.thisIndex,block.ran,s00path,s10path,s11path,s20path,s21path,res1.rt,res1.duration,s10a0s20,s10a0s21,s10a1s20,s10a1s21,s11a0s20,s11a0s21,s11a1s20,s11a1s21,rew20,rew21,res2.rt,res2.duration,s20a0s30,s20a0s31,s20a1s30,s20a1s31,s21a0s30,s21a0s31,s21a1s30,s21a1s31,rew30,rew31
0.0002,0.0013,65f5877e1c411d371249dd22,66fcb8a792cbf93eb2161534,2024-10-02_08h38.04.208,mdp,2024.2.1,Win32,166.6666667,66fa4ebf79326e780c390304,,,,,,,,,,,,,,,,,,,,,,,,,,,,,,,,,,,,,,,,,,,,,,,,,,,,,,,,,,,,,,,,,,,,,,,,,,,,,,,,,,,,,,,,,,,
,,65f5877e1c411d371249dd22,66fcb8a792cbf93eb2161534,2024-10-02_08h38.04.208,mdp,2024.2.1,Win32,166.6666667,66fa4ebf79326e780c390304,0.0032,45.1599,0,0,0,0,1,rlnn_exp/rlnn_exp.001.png,,,,,,,,,,,,,,,,,,,,,,,,,,,,,,,,,,,,,,,,,,,,,,,,,,,,,,,,,,,,,,,,,,,,,,,,,,,,,,,,,,,
,,65f5877e1c411d371249dd22,66fcb8a792cbf93eb2161534,2024-10-02_08h38.04.208,mdp,2024.2.1,Win32,166.6666667,66fa4ebf79326e780c390304,45.1608,79.4096,0,1,1,1,1,rlnn_exp/rlnn_exp.002.png,,,,,,,,,,,,,,,,,,,,,,,,,,,,,,,,,,,,,,,,,,,,,,,,,,,,,,,,,,,,,,,,,,,,,,,,,,,,,,,,,,,
,,65f5877e1c411d371249dd22,66fcb8a792cbf93eb2161534,2024-10-02_08h38.04.208,mdp,2024.2.1,Win32,166.6666667,66fa4ebf79326e780c390304,79.4104,134.3702,0,2,2,2,1,rlnn_exp/rlnn_exp.003.png,,,,,,,,,,,,,,,,,,,,,,,,,,,,,,,,,,,,,,,,,,,,,,,,,,,,,,,,,,,,,,,,,,,,,,,,,,,,,,,,,,,
,,65f5877e1c411d371249dd22,66fcb8a792cbf93eb2161534,2024-10-02_08h38.04.208,mdp,2024.2.1,Win32,166.6666667,66fa4ebf79326e780c390304,134.3706,192.5754,0,3,3,3,1,rlnn_exp/rlnn_exp.004.png,,,,,,,,,,,,,,,,,,,,,,,,,,,,,,,,,,,,,,,,,,,,,,,,,,,,,,,,,,,,,,,,,,,,,,,,,,,,,,,,,,,
,,65f5877e1c411d371249dd22,66fcb8a792cbf93eb2161534,2024-10-02_08h38.04.208,mdp,2024.2.1,Win32,166.6666667,66fa4ebf79326e780c390304,,,,,,,,,192.5756,262.4798,y,59.8907,,,,,,,,,,,,,,,,,,,,,,,,,,,,,,,,,,,,,,,,,,,,,,,,,,,,,,,,,,,,,,,,,,,,,,,,,,,,,,,
,,65f5877e1c411d371249dd22,66fcb8a792cbf93eb2161534,2024-10-02_08h38.04.208,mdp,2024.2.1,Win32,166.6666667,66fa4ebf79326e780c390304,,,,,,,,,,,,,,1,seqs/st1seq22.csv,262.4844,268.3258,space,5.3318,,268.328,268.3281,268.3282,274.5056,0,1,left,5.6669,,274.5061,274.508,,1,,274.5082,274.5089,,0,,0,274.509,274.509,274.5093,276.0071,0,0,0,0,1,0.4,0.6,0.6,0.4,1,0,,,,,,,,,,,,,,,,,,,,,,,,,,,,,,,,,,,,
,,65f5877e1c411d371249dd22,66fcb8a792cbf93eb2161534,2024-10-02_08h38.04.208,mdp,2024.2.1,Win32,166.6666667,66fa4ebf79326e780c390304,,,,,,,,,,,,,,,,,,,,,276.0075,276.0075,276.0087,277.4017,1,0,right,0.8849,,277.4031,277.4036,,1,,277.4039,277.4041,,1,,1,277.4042,277.4042,277.4044,278.9041,0,1,1,1,1,0.4,0.6,0.6,0.4,1,0,,,,,,,,,,,,,,,,,,,,,,,,,,,,,,,,,,,,
,,65f5877e1c411d371249dd22,66fcb8a792cbf93eb2161534,2024-10-02_08h38.04.208,mdp,2024.2.1,Win32,166.6666667,66fa4ebf79326e780c390304,,,,,,,,,,,,,,,,,,,,,278.9044,278.9044,278.9059,280.6432,1,0,right,1.2305,,280.6441,280.645,,0,,280.6456,280.646,,0,,1,280.646,280.646,280.6463,282.1458,0,2,2,2,1,0.4,0.6,0.6,0.4,1,0,,,,,,,,,,,,,,,,,,,,,,,,,,,,,,,,,,,,
,,65f5877e1c411d371249dd22,66fcb8a792cbf93eb2161534,2024-10-02_08h38.04.208,mdp,2024.2.1,Win32,166.6666667,66fa4ebf79326e780c390304,,,,,,,,,,,,,,,,,,,,,282.1461,282.1461,282.1474,283.4061,1,1,right,0.7513,,283.4068,283.4076,,0,,283.4082,283.4086,,0,,0,283.4086,283.4086,283.4089,284.9089,0,3,3,3,1,0.8,0.2,0.8,0.2,1,0,,,,,,,,,,,,,,,,,,,,,,,,,,,,,,,,,,,,
,,65f5877e1c411d371249dd22,66fcb8a792cbf93eb2161534,2024-10-02_08h38.04.208,mdp,2024.2.1,Win32,166.6666667,66fa4ebf79326e780c390304,,,,,,,,,,,,,,,,,,,,,284.9092,284.9092,284.9103,286.3021,0,0,left,0.885,,286.3028,286.3036,,0,,286.304,286.3044,,0,,1,286.3044,286.3044,286.3046,287.8049,0,4,4,4,1,0.8,0.2,0.8,0.2,1,0,,,,,,,,,,,,,,,,,,,,,,,,,,,,,,,,,,,,
,,65f5877e1c411d371249dd22,66fcb8a792cbf93eb2161534,2024-10-02_08h38.04.208,mdp,2024.2.1,Win32,166.6666667,66fa4ebf79326e780c390304,,,,,,,,,,,,,,,,,,,,,287.8052,287.8052,287.8065,290.3373,0,0,left,2.0241,,290.3383,290.3392,,0,,290.3397,290.3401,,0,,1,290.3401,290.3401,290.3403,291.8399,0,5,5,5,1,0.8,0.2,0.8,0.2,1,0,,,,,,,,,,,,,,,,,,,,,,,,,,,,,,,,,,,,
,,65f5877e1c411d371249dd22,66fcb8a792cbf93eb2161534,2024-10-02_08h38.04.208,mdp,2024.2.1,Win32,166.6666667,66fa4ebf79326e780c390304,,,,,,,,,,,,,,,,,,,,,291.8401,291.8401,291.8413,294.1059,0,0,left,1.7577,,294.1064,294.1072,,0,,294.1077,294.1081,,0,,1,294.1081,294.1081,294.1082,295.6086,0,6,6,6,1,0.8,0.2,0.8,0.2,1,0,,,,,,,,,,,,,,,,,,,,,,,,,,,,,,,,,,,,
,,65f5877e1c411d371249dd22,66fcb8a792cbf93eb2161534,2024-10-02_08h38.04.208,mdp,2024.2.1,Win32,166.6666667,66fa4ebf79326e780c390304,,,,,,,,,,,,,,,,,,,,,295.6089,295.6089,295.6102,298.2205,0,0,left,2.1034,,298.2214,298.2223,,1,,298.2228,298.2231,,0,,1,298.2231,298.2231,298.2234,299.7226,0,7,7,7,1,0.8,0.2,0.8,0.2,1,0,,,,,,,,,,,,,,,,,,,,,,,,,,,,,,,,,,,,
,,65f5877e1c411d371249dd22,66fcb8a792cbf93eb2161534,2024-10-02_08h38.04.208,mdp,2024.2.1,Win32,166.6666667,66fa4ebf79326e780c390304,,,,,,,,,,,,,,,,,,,,,299.7229,299.7229,299.7237,301.3645,0,0,left,1.1333,,301.3653,301.3662,,1,,301.3667,301.367,,0,,1,301.367,301.367,301.3673,302.8669,0,8,8,8,1,0.8,0.2,0.8,0.2,1,0,,,,,,,,,,,,,,,,,,,,,,,,,,,,,,,,,,,,
,,65f5877e1c411d371249dd22,66fcb8a792cbf93eb2161534,2024-10-02_08h38.04.208,mdp,2024.2.1,Win32,166.6666667,66fa4ebf79326e780c390304,,,,,,,,,,,,,,,,,,,,,302.8672,302.8672,302.8681,304.7881,0,0,left,1.4115,,304.789,304.7899,,0,,304.7901,304.7903,,1,,1,304.7903,304.7903,304.7904,306.2905,0,9,9,9,1,0.8,0.2,0.8,0.2,1,0,,,,,,,,,,,,,,,,,,,,,,,,,,,,,,,,,,,,
,,65f5877e1c411d371249dd22,66fcb8a792cbf93eb2161534,2024-10-02_08h38.04.208,mdp,2024.2.1,Win32,166.6666667,66fa4ebf79326e780c390304,,,,,,,,,,,,,,,,,,,,,306.2908,306.2908,306.2917,307.5387,0,1,left,0.7397,,307.5397,307.5405,,0,,307.541,307.5414,,0,,0,307.5414,307.5414,307.5416,309.0412,0,10,10,10,1,0.8,0.2,0.8,0.2,1,0,,,,,,,,,,,,,,,,,,,,,,,,,,,,,,,,,,,,
,,65f5877e1c411d371249dd22,66fcb8a792cbf93eb2161534,2024-10-02_08h38.04.208,mdp,2024.2.1,Win32,166.6666667,66fa4ebf79326e780c390304,,,,,,,,,,,,,,,,,,,,,309.0414,309.0414,309.0426,310.2895,1,1,right,0.7394,,310.2903,310.2909,,1,,310.2914,310.2917,,0,,0,310.2917,310.2917,310.2919,311.792,0,11,11,11,1,0.8,0.2,0.8,0.2,1,0,,,,,,,,,,,,,,,,,,,,,,,,,,,,,,,,,,,,
,,65f5877e1c411d371249dd22,66fcb8a792cbf93eb2161534,2024-10-02_08h38.04.208,mdp,2024.2.1,Win32,166.6666667,66fa4ebf79326e780c390304,,,,,,,,,,,,,,,,,,,,,311.7922,311.7922,311.7931,312.8584,1,1,right,0.5575,,312.8592,312.8599,,1,,312.8605,312.8609,,0,,0,312.8609,312.8609,312.8612,314.3607,0,12,12,12,1,0.2,0.8,0.6,0.4,1,0,,,,,,,,,,,,,,,,,,,,,,,,,,,,,,,,,,,,
,,65f5877e1c411d371249dd22,66fcb8a792cbf93eb2161534,2024-10-02_08h38.04.208,mdp,2024.2.1,Win32,166.6666667,66fa4ebf79326e780c390304,,,,,,,,,,,,,,,,,,,,,314.361,314.3611,314.3621,315.6334,1,0,right,0.7635,,315.634,315.6346,,1,,315.635,315.6353,,1,,1,315.6353,315.6353,315.6357,317.1359,0,13,13,13,1,0.2,0.8,0.6,0.4,1,0,,,,,,,,,,,,,,,,,,,,,,,,,,,,,,,,,,,,
,,65f5877e1c411d371249dd22,66fcb8a792cbf93eb2161534,2024-10-02_08h38.04.208,mdp,2024.2.1,Win32,166.6666667,66fa4ebf79326e780c390304,,,,,,,,,,,,,,,,,,,,,317.1362,317.1362,317.1372,318.3176,1,1,right,0.6733,,318.3185,318.3191,,0,,318.3197,318.32,,1,,0,318.3201,318.3201,318.3203,319.8204,0,14,14,14,1,0.2,0.8,0.6,0.4,1,0,,,,,,,,,,,,,,,,,,,,,,,,,,,,,,,,,,,,
,,65f5877e1c411d371249dd22,66fcb8a792cbf93eb2161534,2024-10-02_08h38.04.208,mdp,2024.2.1,Win32,166.6666667,66fa4ebf79326e780c390304,,,,,,,,,,,,,,,,,,,,,319.8207,319.8207,319.8218,320.4378,0,1,left,0.1094,,320.4387,320.4395,,1,,320.44,320.4403,,1,,0,320.4404,320.4404,320.4406,321.9404,0,15,15,15,1,0.2,0.8,0.6,0.4,1,0,,,,,,,,,,,,,,,,,,,,,,,,,,,,,,,,,,,,
,,65f5877e1c411d371249dd22,66fcb8a792cbf93eb2161534,2024-10-02_08h38.04.208,mdp,2024.2.1,Win32,166.6666667,66fa4ebf79326e780c390304,,,,,,,,,,,,,,,,,,,,,321.9406,321.9406,321.9417,322.9714,0,1,left,0.5219,,322.9727,322.9734,,0,,322.9739,322.9742,,1,,0,322.9742,322.9742,322.9745,324.4735,0,16,16,16,1,0.2,0.8,0.6,0.4,1,0,,,,,,,,,,,,,,,,,,,,,,,,,,,,,,,,,,,,
,,65f5877e1c411d371249dd22,66fcb8a792cbf93eb2161534,2024-10-02_08h38.04.208,mdp,2024.2.1,Win32,166.6666667,66fa4ebf79326e780c390304,,,,,,,,,,,,,,,,,,,,,324.4738,324.4738,324.475,325.4551,0,0,left,0.4727,,325.4562,325.4571,,0,,325.4576,325.458,,1,,1,325.458,325.458,325.4584,326.9574,0,17,17,17,1,0.6,0.4,0.8,0.2,1,0,,,,,,,,,,,,,,,,,,,,,,,,,,,,,,,,,,,,
,,65f5877e1c411d371249dd22,66fcb8a792cbf93eb2161534,2024-10-02_08h38.04.208,mdp,2024.2.1,Win32,166.6666667,66fa4ebf79326e780c390304,,,,,,,,,,,,,,,,,,,,,326.9578,326.9578,326.959,327.8785,0,0,left,0.412,,327.8798,327.8802,,1,,327.8804,327.8806,,0,,1,327.8806,327.8806,327.8809,329.3815,0,18,18,18,1,0.6,0.4,0.8,0.2,1,0,,,,,,,,,,,,,,,,,,,,,,,,,,,,,,,,,,,,
,,65f5877e1c411d371249dd22,66fcb8a792cbf93eb2161534,2024-10-02_08h38.04.208,mdp,2024.2.1,Win32,166.6666667,66fa4ebf79326e780c390304,,,,,,,,,,,,,,,,,,,,,329.382,329.382,329.3828,330.3386,0,1,left,0.4484,,330.3398,330.3402,,0,,330.3405,330.3408,,0,,0,330.3408,330.3408,330.3409,331.8444,0,19,19,19,1,0.6,0.4,0.8,0.2,1,0,,,,,,,,,,,,,,,,,,,,,,,,,,,,,,,,,,,,
,,65f5877e1c411d371249dd22,66fcb8a792cbf93eb2161534,2024-10-02_08h38.04.208,mdp,2024.2.1,Win32,166.6666667,66fa4ebf79326e780c390304,,,,,,,,,,,,,,,,,,,,,331.8446,331.8446,331.8449,332.8102,0,1,left,0.4546,,332.8111,332.812,,0,,332.8125,332.8128,,1,,0,332.8128,332.8128,332.8131,334.3129,0,20,20,20,1,0.6,0.4,0.8,0.2,1,0,,,,,,,,,,,,,,,,,,,,,,,,,,,,,,,,,,,,
,,65f5877e1c411d371249dd22,66fcb8a792cbf93eb2161534,2024-10-02_08h38.04.208,mdp,2024.2.1,Win32,166.6666667,66fa4ebf79326e780c390304,,,,,,,,,,,,,,,,,,,,,334.3132,334.3132,334.3143,335.5973,0,0,left,0.7753,,335.5983,335.599,,1,,335.5995,335.6,,0,,1,335.6,335.6,335.6002,337.1003,0,21,21,21,1,0.6,0.4,0.8,0.2,1,0,,,,,,,,,,,,,,,,,,,,,,,,,,,,,,,,,,,,
,,65f5877e1c411d371249dd22,66fcb8a792cbf93eb2161534,2024-10-02_08h38.04.208,mdp,2024.2.1,Win32,166.6666667,66fa4ebf79326e780c390304,,,,,,,,,,,,,,,,,,,,,337.1007,337.1007,337.1019,338.5424,0,1,left,0.9335,,338.5435,338.5443,,1,,338.5449,338.5453,,1,,0,338.5453,338.5453,338.5456,340.0447,0,22,22,22,1,0.6,0.4,0.8,0.2,1,0,,,,,,,,,,,,,,,,,,,,,,,,,,,,,,,,,,,,
,,65f5877e1c411d371249dd22,66fcb8a792cbf93eb2161534,2024-10-02_08h38.04.208,mdp,2024.2.1,Win32,166.6666667,66fa4ebf79326e780c390304,,,,,,,,,,,,,,,,,,,,,340.0452,340.0452,340.0462,341.002,1,0,right,0.4481,,341.0029,341.0036,,0,,341.0039,341.004,,1,,1,341.0041,341.0041,341.0042,342.5049,0,23,23,23,1,0.6,0.4,0.8,0.2,1,0,,,,,,,,,,,,,,,,,,,,,,,,,,,,,,,,,,,,
,,65f5877e1c411d371249dd22,66fcb8a792cbf93eb2161534,2024-10-02_08h38.04.208,mdp,2024.2.1,Win32,166.6666667,66fa4ebf79326e780c390304,,,,,,,,,,,,,,,,,,,,,342.5054,342.5054,342.5069,343.7347,1,1,right,0.7211,,343.7357,343.7363,,1,,343.7365,343.7369,,1,,0,343.7369,343.7369,343.7371,345.2372,0,24,24,24,1,0.8,0.2,0.2,0.8,1,0,,,,,,,,,,,,,,,,,,,,,,,,,,,,,,,,,,,,
,,65f5877e1c411d371249dd22,66fcb8a792cbf93eb2161534,2024-10-02_08h38.04.208,mdp,2024.2.1,Win32,166.6666667,66fa4ebf79326e780c390304,,,,,,,,,,,,,,,,,,,,,345.2376,345.2376,345.2385,346.4537,1,1,right,0.7092,,346.4543,346.4552,,0,,346.4557,346.4561,,1,,0,346.4562,346.4562,346.4566,347.9577,0,25,25,25,1,0.8,0.2,0.2,0.8,1,0,,,,,,,,,,,,,,,,,,,,,,,,,,,,,,,,,,,,
,,65f5877e1c411d371249dd22,66fcb8a792cbf93eb2161534,2024-10-02_08h38.04.208,mdp,2024.2.1,Win32,166.6666667,66fa4ebf79326e780c390304,,,,,,,,,,,,,,,,,,,,,347.958,347.9581,347.9589,349.218,1,1,right,0.7516,,349.2189,349.2195,,1,,349.2198,349.2203,,1,,0,349.2204,349.2204,349.2207,350.7207,0,26,26,26,1,0.8,0.2,0.2,0.8,1,0,,,,,,,,,,,,,,,,,,,,,,,,,,,,,,,,,,,,
,,65f5877e1c411d371249dd22,66fcb8a792cbf93eb2161534,2024-10-02_08h38.04.208,mdp,2024.2.1,Win32,166.6666667,66fa4ebf79326e780c390304,,,,,,,,,,,,,,,,,,,,,350.7211,350.7211,350.7221,351.8415,0,0,left,0.6119,,351.8423,351.8431,,0,,351.8437,351.8441,,0,,1,351.8442,351.8442,351.8445,353.3439,0,27,27,27,1,0.8,0.2,0.2,0.8,1,0,,,,,,,,,,,,,,,,,,,,,,,,,,,,,,,,,,,,
,,65f5877e1c411d371249dd22,66fcb8a792cbf93eb2161534,2024-10-02_08h38.04.208,mdp,2024.2.1,Win32,166.6666667,66fa4ebf79326e780c390304,,,,,,,,,,,,,,,,,,,,,353.3444,353.3444,353.3455,354.3018,0,0,left,0.4488,,354.3028,354.3031,,0,,354.3034,354.3036,,0,,1,354.3036,354.3036,354.3038,355.804,0,28,28,28,1,0.8,0.2,0.2,0.8,1,0,,,,,,,,,,,,,,,,,,,,,,,,,,,,,,,,,,,,
,,65f5877e1c411d371249dd22,66fcb8a792cbf93eb2161534,2024-10-02_08h38.04.208,mdp,2024.2.1,Win32,166.6666667,66fa4ebf79326e780c390304,,,,,,,,,,,,,,,,,,,,,355.8046,355.8046,355.8054,356.7674,0,1,left,0.4516,,356.7686,356.7691,,1,,356.7693,356.7695,,0,,0,356.7695,356.7695,356.7698,358.27,0,29,29,29,1,0.8,0.2,0.2,0.8,1,0,,,,,,,,,,,,,,,,,,,,,,,,,,,,,,,,,,,,
,,65f5877e1c411d371249dd22,66fcb8a792cbf93eb2161534,2024-10-02_08h38.04.208,mdp,2024.2.1,Win32,166.6666667,66fa4ebf79326e780c390304,,,,,,,,,,,,,,,,,,,,,358.2704,358.2705,358.2715,360.6451,0,0,left,1.8666,,360.6463,360.6468,,0,,360.647,360.6472,,0,,1,360.6473,360.6473,360.6475,362.1476,0,30,30,30,1,0.8,0.2,0.2,0.8,1,0,,,,,,,,,,,,,,,,,,,,,,,,,,,,,,,,,,,,
,,65f5877e1c411d371249dd22,66fcb8a792cbf93eb2161534,2024-10-02_08h38.04.208,mdp,2024.2.1,Win32,166.6666667,66fa4ebf79326e780c390304,,,,,,,,,,,,,,,,,,,,,362.1478,362.1478,362.1486,363.3981,0,0,left,0.7414,,363.3988,363.399,,0,,363.3992,363.3994,,0,,1,363.3994,363.3994,363.3995,364.898,0,31,31,31,1,0.8,0.2,0.2,0.8,1,0,,,,,,,,,,,,,,,,,,,,,,,,,,,,,,,,,,,,
,,65f5877e1c411d371249dd22,66fcb8a792cbf93eb2161534,2024-10-02_08h38.04.208,mdp,2024.2.1,Win32,166.6666667,66fa4ebf79326e780c390304,,,,,,,,,,,,,,,,,,,,,364.8982,364.8982,364.8992,366.0736,0,0,left,0.6662,,366.0743,366.075,,0,,366.0754,366.0758,,1,,1,366.0758,366.0758,366.076,367.5766,0,32,32,32,1,0.8,0.2,0.2,0.8,1,0,,,,,,,,,,,,,,,,,,,,,,,,,,,,,,,,,,,,
,,65f5877e1c411d371249dd22,66fcb8a792cbf93eb2161534,2024-10-02_08h38.04.208,mdp,2024.2.1,Win32,166.6666667,66fa4ebf79326e780c390304,,,,,,,,,,,,,,,,,,,,,367.577,367.577,367.5781,368.7154,0,1,left,0.6302,,368.7164,368.7171,,0,,368.7176,368.7181,,1,,0,368.7181,368.7182,368.7186,370.2181,0,33,33,33,1,0.8,0.2,0.2,0.8,1,0,,,,,,,,,,,,,,,,,,,,,,,,,,,,,,,,,,,,
,,65f5877e1c411d371249dd22,66fcb8a792cbf93eb2161534,2024-10-02_08h38.04.208,mdp,2024.2.1,Win32,166.6666667,66fa4ebf79326e780c390304,,,,,,,,,,,,,,,,,,,,,370.2183,370.2184,370.2198,371.3325,0,1,left,0.6063,,371.3331,371.3335,,0,,371.3339,371.3342,,0,,0,371.3343,371.3343,371.3346,372.835,0,34,34,34,1,0.8,0.2,0.2,0.8,1,0,,,,,,,,,,,,,,,,,,,,,,,,,,,,,,,,,,,,
,,65f5877e1c411d371249dd22,66fcb8a792cbf93eb2161534,2024-10-02_08h38.04.208,mdp,2024.2.1,Win32,166.6666667,66fa4ebf79326e780c390304,,,,,,,,,,,,,,,,,,,,,372.8353,372.8353,372.8362,374.1688,0,0,left,0.8252,,374.17,374.1708,,0,,374.1712,374.1715,,0,,1,374.1715,374.1715,374.1719,375.6714,0,35,35,35,1,0.8,0.2,0.2,0.8,1,0,,,,,,,,,,,,,,,,,,,,,,,,,,,,,,,,,,,,
,,65f5877e1c411d371249dd22,66fcb8a792cbf93eb2161534,2024-10-02_08h38.04.208,mdp,2024.2.1,Win32,166.6666667,66fa4ebf79326e780c390304,,,,,,,,,,,,,,,,,,,,,375.6722,375.6722,375.6729,376.8224,0,1,left,0.6426,,376.8235,376.8242,,0,,376.8245,376.8248,,1,,0,376.8248,376.8248,376.825,378.3247,0,36,36,36,1,0.4,0.6,0.6,0.4,1,0,,,,,,,,,,,,,,,,,,,,,,,,,,,,,,,,,,,,
,,65f5877e1c411d371249dd22,66fcb8a792cbf93eb2161534,2024-10-02_08h38.04.208,mdp,2024.2.1,Win32,166.6666667,66fa4ebf79326e780c390304,,,,,,,,,,,,,,,,,,,,,378.325,378.325,378.326,379.8575,0,0,left,1.024,,379.8582,379.8589,,1,,379.8594,379.8598,,1,,1,379.8598,379.8598,379.86,381.3602,0,37,37,37,1,0.4,0.6,0.6,0.4,1,0,,,,,,,,,,,,,,,,,,,,,,,,,,,,,,,,,,,,
,,65f5877e1c411d371249dd22,66fcb8a792cbf93eb2161534,2024-10-02_08h38.04.208,mdp,2024.2.1,Win32,166.6666667,66fa4ebf79326e780c390304,,,,,,,,,,,,,,,,,,,,,381.3605,381.3605,381.3616,383.366,0,1,left,1.4968,,383.3668,383.3676,,1,,383.3681,383.3683,,0,,0,383.3684,383.3684,383.3686,384.8683,0,38,38,38,1,0.4,0.6,0.6,0.4,1,0,,,,,,,,,,,,,,,,,,,,,,,,,,,,,,,,,,,,
,,65f5877e1c411d371249dd22,66fcb8a792cbf93eb2161534,2024-10-02_08h38.04.208,mdp,2024.2.1,Win32,166.6666667,66fa4ebf79326e780c390304,,,,,,,,,,,,,,,,,,,,,384.8686,384.8686,384.8695,386.2929,0,0,left,0.9164,,386.2944,386.2951,,0,,386.2958,386.2963,,1,,1,386.2964,386.2964,386.2968,387.795,0,39,39,39,1,0.8,0.2,0.2,0.8,1,0,,,,,,,,,,,,,,,,,,,,,,,,,,,,,,,,,,,,
,,65f5877e1c411d371249dd22,66fcb8a792cbf93eb2161534,2024-10-02_08h38.04.208,mdp,2024.2.1,Win32,166.6666667,66fa4ebf79326e780c390304,,,,,,,,,,,,,,,,,,,,,387.7953,387.7953,387.7967,389.1886,0,0,left,0.8845,,389.1897,389.1902,,1,,389.1906,389.1908,,0,,1,389.1908,389.1908,389.1911,390.6911,0,40,40,40,1,0.8,0.2,0.2,0.8,1,0,,,,,,,,,,,,,,,,,,,,,,,,,,,,,,,,,,,,
,,65f5877e1c411d371249dd22,66fcb8a792cbf93eb2161534,2024-10-02_08h38.04.208,mdp,2024.2.1,Win32,166.6666667,66fa4ebf79326e780c390304,,,,,,,,,,,,,,,,,,,,,390.6915,390.6915,390.6924,391.9148,0,0,left,0.7154,,391.9156,391.9163,,0,,391.9169,391.9171,,0,,1,391.9172,391.9172,391.9174,393.4162,0,41,41,41,1,0.8,0.2,0.2,0.8,1,0,,,,,,,,,,,,,,,,,,,,,,,,,,,,,,,,,,,,
,,65f5877e1c411d371249dd22,66fcb8a792cbf93eb2161534,2024-10-02_08h38.04.208,mdp,2024.2.1,Win32,166.6666667,66fa4ebf79326e780c390304,,,,,,,,,,,,,,,,,,,,,393.4165,393.4165,393.4173,394.8593,1,1,right,0.9332,,394.8602,394.8608,,1,,394.8611,394.8613,,1,,0,394.8613,394.8613,394.8615,396.3623,0,42,42,42,1,0.8,0.2,0.2,0.8,1,0,,,,,,,,,,,,,,,,,,,,,,,,,,,,,,,,,,,,
,,65f5877e1c411d371249dd22,66fcb8a792cbf93eb2161534,2024-10-02_08h38.04.208,mdp,2024.2.1,Win32,166.6666667,66fa4ebf79326e780c390304,,,,,,,,,,,,,,,,,,,,,396.3627,396.3628,396.3636,397.4469,1,0,right,0.5759,,397.4478,397.4483,,0,,397.4486,397.4488,,0,,1,397.4488,397.4488,397.449,398.9495,0,43,43,43,1,0.2,0.8,0.8,0.2,1,0,,,,,,,,,,,,,,,,,,,,,,,,,,,,,,,,,,,,
,,65f5877e1c411d371249dd22,66fcb8a792cbf93eb2161534,2024-10-02_08h38.04.208,mdp,2024.2.1,Win32,166.6666667,66fa4ebf79326e780c390304,,,,,,,,,,,,,,,,,,,,,398.9499,398.9499,398.9508,400.6871,1,1,right,1.2304,,400.6878,400.6883,,0,,400.6887,400.6891,,1,,0,400.6892,400.6892,400.6896,402.1909,0,44,44,44,1,0.2,0.8,0.8,0.2,1,0,,,,,,,,,,,,,,,,,,,,,,,,,,,,,,,,,,,,
,,65f5877e1c411d371249dd22,66fcb8a792cbf93eb2161534,2024-10-02_08h38.04.208,mdp,2024.2.1,Win32,166.6666667,66fa4ebf79326e780c390304,,,,,,,,,,,,,,,,,,,,,402.1913,402.1913,402.1924,403.6923,1,0,right,0.9942,,403.6931,403.694,,0,,403.6947,403.6949,,1,,1,403.6949,403.6949,403.6953,405.1927,0,45,45,45,1,0.2,0.8,0.8,0.2,1,0,,,,,,,,,,,,,,,,,,,,,,,,,,,,,,,,,,,,
,,65f5877e1c411d371249dd22,66fcb8a792cbf93eb2161534,2024-10-02_08h38.04.208,mdp,2024.2.1,Win32,166.6666667,66fa4ebf79326e780c390304,,,,,,,,,,,,,,,,,,,,,405.1933,405.1933,405.1946,406.2925,0,1,left,0.5885,,406.2935,406.294,,1,,406.2944,406.2946,,1,,0,406.2946,406.2946,406.2948,407.7958,0,46,46,46,1,0.2,0.8,0.8,0.2,1,0,,,,,,,,,,,,,,,,,,,,,,,,,,,,,,,,,,,,
,,65f5877e1c411d371249dd22,66fcb8a792cbf93eb2161534,2024-10-02_08h38.04.208,mdp,2024.2.1,Win32,166.6666667,66fa4ebf79326e780c390304,,,,,,,,,,,,,,,,,,,,,407.7962,407.7962,407.7968,408.9345,0,1,left,0.6245,,408.9354,408.936,,0,,408.9362,408.9363,,1,,0,408.9364,408.9364,408.9365,410.437,0,47,47,47,1,0.2,0.8,0.8,0.2,1,0,,,,,,,,,,,,,,,,,,,,,,,,,,,,,,,,,,,,
,,65f5877e1c411d371249dd22,66fcb8a792cbf93eb2161534,2024-10-02_08h38.04.208,mdp,2024.2.1,Win32,166.6666667,66fa4ebf79326e780c390304,,,,,,,,,,,,,,,,,,,,,410.4375,410.4375,410.4383,411.752,0,1,left,0.8059,,411.7532,411.7536,,1,,411.754,411.7541,,1,,0,411.7542,411.7542,411.7544,413.2546,0,48,48,48,1,0.2,0.8,0.8,0.2,1,0,,,,,,,,,,,,,,,,,,,,,,,,,,,,,,,,,,,,
,,65f5877e1c411d371249dd22,66fcb8a792cbf93eb2161534,2024-10-02_08h38.04.208,mdp,2024.2.1,Win32,166.6666667,66fa4ebf79326e780c390304,,,,,,,,,,,,,,,,,,,,,413.255,413.255,413.2559,415.1868,0,0,left,1.4217,,415.1881,415.1888,,1,,415.189,415.1892,,1,,1,415.1892,415.1892,415.1894,416.6896,0,49,49,49,1,0.2,0.8,0.8,0.2,1,0,,,,,,,,,,,,,,,,,,,,,,,,,,,,,,,,,,,,
,,65f5877e1c411d371249dd22,66fcb8a792cbf93eb2161534,2024-10-02_08h38.04.208,mdp,2024.2.1,Win32,166.6666667,66fa4ebf79326e780c390304,,,,,,,,,,,,,,,,,,,,,,,,,,,,,,,,,,,,,,,,,,,,,,,,,,,,,,,,416.6899,475.1951,0,0,0,2,1,imgs/kangaroo.png,imgs/lion.png,imgs/giraffe.png,imgs/rabbit.png,imgs/elephant.png,,,,,,,,,,,,,,,,,,,,,,,,
,,65f5877e1c411d371249dd22,66fcb8a792cbf93eb2161534,2024-10-02_08h38.04.208,mdp,2024.2.1,Win32,166.6666667,66fa4ebf79326e780c390304,,,,,,,,,,,,,,2,seqs/st2seq25.csv,475.1963,477.5141,space,1.8118,,477.5178,477.5178,477.5183,480.7973,1,1,right,2.768,,480.798,482.726,0,1,left,482.727,482.7274,,0,,0,482.7275,482.7275,482.7277,484.2281,0,0,0,0,1,0.6,0.4,0.4,0.6,,,,,,,,,,,,,,,1.4121,,0.2,0.8,0.8,0.2,0.4,0.6,0.8,0.2,1,0,,,,,,,,,,,,
,,65f5877e1c411d371249dd22,66fcb8a792cbf93eb2161534,2024-10-02_08h38.04.208,mdp,2024.2.1,Win32,166.6666667,66fa4ebf79326e780c390304,,,,,,,,,,,,,,,,,,,,,484.2284,484.2284,484.2293,489.9113,1,1,right,5.1746,,489.912,494.0741,1,1,right,494.0747,494.0754,,0,,0,494.0754,494.0754,494.0757,495.5765,0,1,1,1,1,0.6,0.4,0.4,0.6,,,,,,,,,,,,,,,3.6533,,0.2,0.8,0.8,0.2,0.4,0.6,0.8,0.2,1,0,,,,,,,,,,,,
,,65f5877e1c411d371249dd22,66fcb8a792cbf93eb2161534,2024-10-02_08h38.04.208,mdp,2024.2.1,Win32,166.6666667,66fa4ebf79326e780c390304,,,,,,,,,,,,,,,,,,,,,495.5769,495.5769,495.5778,499.1333,1,0,right,3.0478,,499.134,505.8826,0,1,left,505.8836,505.8842,,0,,0,505.8843,505.8843,505.8849,507.3853,0,2,2,2,1,0.8,0.2,0.8,0.2,,,,,,,,,,,,,,,6.2381,,0.2,0.8,0.8,0.2,0.4,0.6,0.8,0.2,1,0,,,,,,,,,,,,
,,65f5877e1c411d371249dd22,66fcb8a792cbf93eb2161534,2024-10-02_08h38.04.208,mdp,2024.2.1,Win32,166.6666667,66fa4ebf79326e780c390304,,,,,,,,,,,,,,,,,,,,,507.3856,507.3856,507.3866,509.5362,1,0,right,1.6424,,509.537,511.2632,1,1,right,511.2643,511.2649,,0,,0,511.2649,511.2649,511.2655,512.7657,0,3,3,3,1,0.8,0.2,0.8,0.2,,,,,,,,,,,,,,,1.2183,,0.2,0.8,0.8,0.2,0.4,0.6,0.8,0.2,1,0,,,,,,,,,,,,
,,65f5877e1c411d371249dd22,66fcb8a792cbf93eb2161534,2024-10-02_08h38.04.208,mdp,2024.2.1,Win32,166.6666667,66fa4ebf79326e780c390304,,,,,,,,,,,,,,,,,,,,,512.7659,512.7659,512.7669,515.0922,1,1,right,1.818,,515.0931,517.2857,1,1,right,517.2864,517.2871,,0,,0,517.2871,517.2871,517.2875,518.7881,0,4,4,4,1,0.8,0.2,0.8,0.2,,,,,,,,,,,,,,,1.6825,,0.2,0.8,0.8,0.2,0.4,0.6,0.8,0.2,1,0,,,,,,,,,,,,
,,65f5877e1c411d371249dd22,66fcb8a792cbf93eb2161534,2024-10-02_08h38.04.208,mdp,2024.2.1,Win32,166.6666667,66fa4ebf79326e780c390304,,,,,,,,,,,,,,,,,,,,,518.7884,518.7884,518.7894,520.5025,1,0,right,1.206,,520.5033,521.6479,0,1,left,521.6487,521.6494,,1,,0,521.6495,521.6496,521.65,523.1505,0,5,5,5,1,0.8,0.2,0.8,0.2,,,,,,,,,,,,,,,0.6349,,0.2,0.8,0.8,0.2,0.4,0.6,0.8,0.2,1,0,,,,,,,,,,,,
,,65f5877e1c411d371249dd22,66fcb8a792cbf93eb2161534,2024-10-02_08h38.04.208,mdp,2024.2.1,Win32,166.6666667,66fa4ebf79326e780c390304,,,,,,,,,,,,,,,,,,,,,523.1508,523.1508,523.1519,524.0956,0,0,left,0.4365,,524.0964,525.0047,0,1,left,525.0055,525.0062,,1,,0,525.0063,525.0063,525.0067,526.507,0,6,6,6,1,0.8,0.2,0.8,0.2,,,,,,,,,,,,,,,0.4002,,0.2,0.8,0.8,0.2,0.4,0.6,0.8,0.2,1,0,,,,,,,,,,,,
,,65f5877e1c411d371249dd22,66fcb8a792cbf93eb2161534,2024-10-02_08h38.04.208,mdp,2024.2.1,Win32,166.6666667,66fa4ebf79326e780c390304,,,,,,,,,,,,,,,,,,,,,526.5073,526.5073,526.5081,527.9069,0,0,left,0.8907,,527.9076,528.9668,0,1,left,528.9675,528.9682,,0,,0,528.9682,528.9682,528.9686,530.4696,0,7,7,7,1,0.8,0.2,0.8,0.2,,,,,,,,,,,,,,,0.5517,,0.2,0.8,0.8,0.2,0.4,0.6,0.8,0.2,1,0,,,,,,,,,,,,
,,65f5877e1c411d371249dd22,66fcb8a792cbf93eb2161534,2024-10-02_08h38.04.208,mdp,2024.2.1,Win32,166.6666667,66fa4ebf79326e780c390304,,,,,,,,,,,,,,,,,,,,,530.4697,530.4697,530.4705,533.2326,0,0,left,2.2537,,533.2333,534.8379,0,1,left,534.8386,534.8393,,1,,0,534.8393,534.8393,534.8398,536.3405,0,8,8,8,1,0.8,0.2,0.8,0.2,,,,,,,,,,,,,,,1.0969,,0.2,0.8,0.8,0.2,0.4,0.6,0.8,0.2,1,0,,,,,,,,,,,,
,,65f5877e1c411d371249dd22,66fcb8a792cbf93eb2161534,2024-10-02_08h38.04.208,mdp,2024.2.1,Win32,166.6666667,66fa4ebf79326e780c390304,,,,,,,,,,,,,,,,,,,,,536.3408,536.3409,536.3417,537.4375,0,1,left,0.5878,,537.4382,539.4671,0,0,left,539.4677,539.4685,,1,,1,539.4686,539.4686,539.469,540.9697,0,9,9,9,1,0.8,0.2,0.8,0.2,,,,,,,,,,,,,,,1.5185,,0.2,0.8,0.8,0.2,0.4,0.6,0.8,0.2,1,0,,,,,,,,,,,,
,,65f5877e1c411d371249dd22,66fcb8a792cbf93eb2161534,2024-10-02_08h38.04.208,mdp,2024.2.1,Win32,166.6666667,66fa4ebf79326e780c390304,,,,,,,,,,,,,,,,,,,,,540.97,540.97,540.9706,542.4601,0,0,left,0.9819,,542.4608,545.0784,0,0,left,545.0796,545.0801,,0,,1,545.0802,545.0802,545.0804,546.5803,0,10,10,10,1,0.8,0.2,0.8,0.2,,,,,,,,,,,,,,,2.1084,,0.2,0.8,0.8,0.2,0.4,0.6,0.8,0.2,1,0,,,,,,,,,,,,
,,65f5877e1c411d371249dd22,66fcb8a792cbf93eb2161534,2024-10-02_08h38.04.208,mdp,2024.2.1,Win32,166.6666667,66fa4ebf79326e780c390304,,,,,,,,,,,,,,,,,,,,,546.5806,546.5806,546.5817,547.7739,0,0,left,0.6855,,547.7748,549.5368,0,0,left,549.5375,549.5383,,0,,1,549.5383,549.5383,549.5387,551.0397,0,11,11,11,1,0.8,0.2,0.8,0.2,,,,,,,,,,,,,,,1.2543,,0.2,0.8,0.8,0.2,0.4,0.6,0.8,0.2,1,0,,,,,,,,,,,,
,,65f5877e1c411d371249dd22,66fcb8a792cbf93eb2161534,2024-10-02_08h38.04.208,mdp,2024.2.1,Win32,166.6666667,66fa4ebf79326e780c390304,,,,,,,,,,,,,,,,,,,,,551.0402,551.0402,551.0411,552.0453,0,1,left,0.4972,,552.0461,553.4632,1,0,right,553.4639,553.4644,,1,,1,553.4645,553.4645,553.465,554.9644,0,12,12,12,1,0.2,0.8,0.6,0.4,,,,,,,,,,,,,,,0.9069,,0.2,0.8,0.8,0.2,0.4,0.6,0.8,0.2,1,0,,,,,,,,,,,,
,,65f5877e1c411d371249dd22,66fcb8a792cbf93eb2161534,2024-10-02_08h38.04.208,mdp,2024.2.1,Win32,166.6666667,66fa4ebf79326e780c390304,,,,,,,,,,,,,,,,,,,,,554.9647,554.9647,554.9654,557.6685,1,0,right,2.1939,,557.6698,560.0882,0,1,left,560.0893,560.09,,1,,0,560.09,560.09,560.0903,561.5868,0,13,13,13,1,0.2,0.8,0.6,0.4,,,,,,,,,,,,,,,1.9064,,0.2,0.8,0.8,0.2,0.4,0.6,0.8,0.2,1,0,,,,,,,,,,,,
,,65f5877e1c411d371249dd22,66fcb8a792cbf93eb2161534,2024-10-02_08h38.04.208,mdp,2024.2.1,Win32,166.6666667,66fa4ebf79326e780c390304,,,,,,,,,,,,,,,,,,,,,561.5872,561.5872,561.588,563.0182,1,1,right,0.921,,563.0195,564.1997,0,0,left,564.2005,564.2012,,0,,1,564.2013,564.2013,564.2019,565.7024,0,14,14,14,1,0.2,0.8,0.6,0.4,,,,,,,,,,,,,,,0.6712,,0.2,0.8,0.8,0.2,0.4,0.6,0.8,0.2,1,0,,,,,,,,,,,,
,,65f5877e1c411d371249dd22,66fcb8a792cbf93eb2161534,2024-10-02_08h38.04.208,mdp,2024.2.1,Win32,166.6666667,66fa4ebf79326e780c390304,,,,,,,,,,,,,,,,,,,,,565.7026,565.7026,565.7037,567.1258,1,0,right,0.9154,,567.1263,569.1201,0,1,left,569.1217,569.1225,,0,,0,569.1225,569.1225,569.1229,570.6225,0,15,15,15,1,0.2,0.8,0.6,0.4,,,,,,,,,,,,,,,1.4829,,0.2,0.8,0.8,0.2,0.4,0.6,0.8,0.2,1,0,,,,,,,,,,,,
,,65f5877e1c411d371249dd22,66fcb8a792cbf93eb2161534,2024-10-02_08h38.04.208,mdp,2024.2.1,Win32,166.6666667,66fa4ebf79326e780c390304,,,,,,,,,,,,,,,,,,,,,570.6231,570.6231,570.6237,571.5369,1,0,right,0.406,,571.538,573.3003,1,0,right,573.3015,573.3018,,0,,1,573.3019,573.3019,573.3021,574.8027,0,16,16,16,1,0.2,0.8,0.6,0.4,,,,,,,,,,,,,,,1.2545,,0.2,0.8,0.8,0.2,0.4,0.6,0.8,0.2,1,0,,,,,,,,,,,,
,,65f5877e1c411d371249dd22,66fcb8a792cbf93eb2161534,2024-10-02_08h38.04.208,mdp,2024.2.1,Win32,166.6666667,66fa4ebf79326e780c390304,,,,,,,,,,,,,,,,,,,,,574.8031,574.8031,574.8042,575.899,0,1,left,0.5873,,575.8994,577.5473,0,0,left,577.5479,577.5487,,1,,1,577.5487,577.5487,577.5492,579.0502,0,17,17,17,1,0.2,0.8,0.6,0.4,,,,,,,,,,,,,,,1.1379,,0.2,0.8,0.8,0.2,0.4,0.6,0.8,0.2,1,0,,,,,,,,,,,,
,,65f5877e1c411d371249dd22,66fcb8a792cbf93eb2161534,2024-10-02_08h38.04.208,mdp,2024.2.1,Win32,166.6666667,66fa4ebf79326e780c390304,,,,,,,,,,,,,,,,,,,,,579.0504,579.0504,579.0513,580.3165,1,1,right,0.7585,,580.3174,581.7643,0,1,left,581.765,581.7658,,1,,0,581.7659,581.7659,581.7664,583.2668,0,18,18,18,1,0.2,0.8,0.6,0.4,,,,,,,,,,,,,,,0.9397,,0.2,0.8,0.8,0.2,0.4,0.6,0.8,0.2,1,0,,,,,,,,,,,,
,,65f5877e1c411d371249dd22,66fcb8a792cbf93eb2161534,2024-10-02_08h38.04.208,mdp,2024.2.1,Win32,166.6666667,66fa4ebf79326e780c390304,,,,,,,,,,,,,,,,,,,,,583.2671,583.2671,583.2681,584.6668,1,0,right,0.8914,,584.668,586.4783,1,0,right,586.4794,586.4802,,0,,1,586.4802,586.4802,586.4806,587.9808,0,19,19,19,1,0.2,0.8,0.6,0.4,,,,,,,,,,,,,,,1.3006,,0.2,0.8,0.8,0.2,0.4,0.6,0.8,0.2,1,0,,,,,,,,,,,,
,,65f5877e1c411d371249dd22,66fcb8a792cbf93eb2161534,2024-10-02_08h38.04.208,mdp,2024.2.1,Win32,166.6666667,66fa4ebf79326e780c390304,,,,,,,,,,,,,,,,,,,,,587.9812,587.9812,587.9823,589.2774,0,1,left,0.7885,,589.2787,590.9132,1,0,right,590.9137,590.9144,,0,,1,590.9145,590.9146,590.915,592.4161,0,20,20,20,1,0.2,0.8,0.6,0.4,,,,,,,,,,,,,,,1.1239,,0.2,0.8,0.8,0.2,0.4,0.6,0.8,0.2,1,0,,,,,,,,,,,,
,,65f5877e1c411d371249dd22,66fcb8a792cbf93eb2161534,2024-10-02_08h38.04.208,mdp,2024.2.1,Win32,166.6666667,66fa4ebf79326e780c390304,,,,,,,,,,,,,,,,,,,,,592.4164,592.4164,592.4174,593.2884,0,1,left,0.3642,,593.2895,595.1181,1,0,right,595.1186,595.1193,,0,,1,595.1193,595.1193,595.1197,596.6148,0,21,21,21,1,0.2,0.8,0.6,0.4,,,,,,,,,,,,,,,1.3206,,0.2,0.8,0.8,0.2,0.4,0.6,0.8,0.2,1,0,,,,,,,,,,,,
,,65f5877e1c411d371249dd22,66fcb8a792cbf93eb2161534,2024-10-02_08h38.04.208,mdp,2024.2.1,Win32,166.6666667,66fa4ebf79326e780c390304,,,,,,,,,,,,,,,,,,,,,596.615,596.615,596.6158,597.3902,0,1,left,0.2663,,597.3912,599.3473,1,0,right,599.3483,599.349,,1,,1,599.3491,599.3491,599.3496,600.8499,0,22,22,22,1,0.2,0.8,0.6,0.4,,,,,,,,,,,,,,,1.4483,,0.4,0.6,0.2,0.8,0.4,0.6,0.8,0.2,1,0,,,,,,,,,,,,
,,65f5877e1c411d371249dd22,66fcb8a792cbf93eb2161534,2024-10-02_08h38.04.208,mdp,2024.2.1,Win32,166.6666667,66fa4ebf79326e780c390304,,,,,,,,,,,,,,,,,,,,,600.8503,600.8503,600.8514,603.1035,1,1,right,1.745,,603.1042,605.1635,0,1,left,605.1643,605.1651,,1,,0,605.1651,605.1651,605.1655,606.6664,0,23,23,23,1,0.2,0.8,0.6,0.4,,,,,,,,,,,,,,,1.5514,,0.4,0.6,0.2,0.8,0.4,0.6,0.8,0.2,1,0,,,,,,,,,,,,
,,65f5877e1c411d371249dd22,66fcb8a792cbf93eb2161534,2024-10-02_08h38.04.208,mdp,2024.2.1,Win32,166.6666667,66fa4ebf79326e780c390304,,,,,,,,,,,,,,,,,,,,,606.6666,606.6666,606.6676,607.4359,1,0,right,0.2607,,607.4366,609.2475,0,0,left,609.2486,609.2493,,1,,1,609.2494,609.2494,609.2498,610.7505,0,24,24,24,1,0.2,0.8,0.6,0.4,,,,,,,,,,,,,,,1.3012,,0.4,0.6,0.2,0.8,0.4,0.6,0.8,0.2,1,0,,,,,,,,,,,,
,,65f5877e1c411d371249dd22,66fcb8a792cbf93eb2161534,2024-10-02_08h38.04.208,mdp,2024.2.1,Win32,166.6666667,66fa4ebf79326e780c390304,,,,,,,,,,,,,,,,,,,,,610.7508,610.7508,610.752,611.471,1,0,right,0.2124,,611.4717,613.4949,0,0,left,613.4959,613.4966,,1,,1,613.4966,613.4966,613.497,614.9972,0,25,25,25,1,0.2,0.8,0.6,0.4,,,,,,,,,,,,,,,1.5157,,0.4,0.6,0.2,0.8,0.4,0.6,0.8,0.2,1,0,,,,,,,,,,,,
,,65f5877e1c411d371249dd22,66fcb8a792cbf93eb2161534,2024-10-02_08h38.04.208,mdp,2024.2.1,Win32,166.6666667,66fa4ebf79326e780c390304,,,,,,,,,,,,,,,,,,,,,614.9976,614.9977,614.9986,617.2215,0,1,left,1.7158,,617.2225,619.3722,1,0,right,619.373,619.3738,,0,,1,619.3738,619.3738,619.3744,620.8745,0,26,26,26,1,0.2,0.8,0.6,0.4,,,,,,,,,,,,,,,1.6387,,0.4,0.6,0.2,0.8,0.4,0.6,0.8,0.2,1,0,,,,,,,,,,,,
,,65f5877e1c411d371249dd22,66fcb8a792cbf93eb2161534,2024-10-02_08h38.04.208,mdp,2024.2.1,Win32,166.6666667,66fa4ebf79326e780c390304,,,,,,,,,,,,,,,,,,,,,620.8748,620.8748,620.8758,621.3896,0,0,left,0.0067,,621.3907,623.4013,1,1,right,623.402,623.4029,,1,,0,623.403,623.403,623.4036,624.9041,0,27,27,27,1,0.2,0.8,0.6,0.4,,,,,,,,,,,,,,,1.5006,,0.4,0.6,0.2,0.8,0.4,0.6,0.8,0.2,1,0,,,,,,,,,,,,
,,65f5877e1c411d371249dd22,66fcb8a792cbf93eb2161534,2024-10-02_08h38.04.208,mdp,2024.2.1,Win32,166.6666667,66fa4ebf79326e780c390304,,,,,,,,,,,,,,,,,,,,,624.9044,624.9045,624.9055,625.4614,0,1,left,0.0494,,625.4624,627.4663,1,0,right,627.4671,627.4675,,0,,1,627.4676,627.4676,627.468,628.9635,0,28,28,28,1,0.2,0.8,0.6,0.4,,,,,,,,,,,,,,,1.4953,,0.4,0.6,0.2,0.8,0.4,0.6,0.8,0.2,1,0,,,,,,,,,,,,
,,65f5877e1c411d371249dd22,66fcb8a792cbf93eb2161534,2024-10-02_08h38.04.208,mdp,2024.2.1,Win32,166.6666667,66fa4ebf79326e780c390304,,,,,,,,,,,,,,,,,,,,,628.9641,628.9641,628.9652,629.4966,0,1,left,0.0253,,629.4976,631.5745,1,0,right,631.5754,631.5762,,0,,1,631.5762,631.5762,631.5767,633.0772,0,29,29,29,1,0.2,0.8,0.6,0.4,,,,,,,,,,,,,,,1.5696,,0.4,0.6,0.2,0.8,0.4,0.6,0.8,0.2,1,0,,,,,,,,,,,,
,,65f5877e1c411d371249dd22,66fcb8a792cbf93eb2161534,2024-10-02_08h38.04.208,mdp,2024.2.1,Win32,166.6666667,66fa4ebf79326e780c390304,,,,,,,,,,,,,,,,,,,,,633.0775,633.0775,633.0785,633.8222,0,1,left,0.2366,,633.823,635.6702,1,0,right,635.6709,635.6718,,0,,1,635.6718,635.6718,635.6726,637.1731,0,30,30,30,1,0.2,0.8,0.6,0.4,,,,,,,,,,,,,,,1.3393,,0.4,0.6,0.2,0.8,0.4,0.6,0.8,0.2,1,0,,,,,,,,,,,,
,,65f5877e1c411d371249dd22,66fcb8a792cbf93eb2161534,2024-10-02_08h38.04.208,mdp,2024.2.1,Win32,166.6666667,66fa4ebf79326e780c390304,,,,,,,,,,,,,,,,,,,,,637.1734,637.1734,637.1745,637.7183,0,1,left,0.0367,,637.7192,639.6632,1,0,right,639.6639,639.6646,,0,,1,639.6647,639.6647,639.6652,641.166,0,31,31,31,1,0.2,0.8,0.6,0.4,,,,,,,,,,,,,,,1.4358,,0.4,0.6,0.2,0.8,0.4,0.6,0.8,0.2,1,0,,,,,,,,,,,,
,,65f5877e1c411d371249dd22,66fcb8a792cbf93eb2161534,2024-10-02_08h38.04.208,mdp,2024.2.1,Win32,166.6666667,66fa4ebf79326e780c390304,,,,,,,,,,,,,,,,,,,,,641.1663,641.1663,641.1674,643.4016,1,0,right,1.728,,643.4024,645.3766,0,1,left,645.3777,645.3783,,0,,0,645.3784,645.3784,645.3788,646.8793,0,32,32,32,1,0.6,0.4,0.4,0.6,,,,,,,,,,,,,,,1.4641,,0.4,0.6,0.2,0.8,0.4,0.6,0.8,0.2,1,0,,,,,,,,,,,,
,,65f5877e1c411d371249dd22,66fcb8a792cbf93eb2161534,2024-10-02_08h38.04.208,mdp,2024.2.1,Win32,166.6666667,66fa4ebf79326e780c390304,,,,,,,,,,,,,,,,,,,,,646.8796,646.8796,646.8807,649.1152,0,1,left,1.7268,,649.1157,650.9389,1,0,right,650.9395,650.9401,,0,,1,650.9402,650.9402,650.9405,652.4415,0,33,33,33,1,0.6,0.4,0.4,0.6,,,,,,,,,,,,,,,1.3131,,0.8,0.2,0.6,0.4,0.4,0.6,0.8,0.2,1,0,,,,,,,,,,,,
,,65f5877e1c411d371249dd22,66fcb8a792cbf93eb2161534,2024-10-02_08h38.04.208,mdp,2024.2.1,Win32,166.6666667,66fa4ebf79326e780c390304,,,,,,,,,,,,,,,,,,,,,652.4418,652.4418,652.4426,652.9928,0,0,left,0.0427,,652.9931,654.7194,1,1,right,654.7203,654.721,,1,,0,654.7211,654.7211,654.7214,656.2223,0,34,34,34,1,0.6,0.4,0.4,0.6,,,,,,,,,,,,,,,1.2164,,0.8,0.2,0.6,0.4,0.4,0.6,0.8,0.2,1,0,,,,,,,,,,,,
,,65f5877e1c411d371249dd22,66fcb8a792cbf93eb2161534,2024-10-02_08h38.04.208,mdp,2024.2.1,Win32,166.6666667,66fa4ebf79326e780c390304,,,,,,,,,,,,,,,,,,,,,656.2225,656.2225,656.2233,658.5849,1,0,right,1.8544,,658.5854,660.445,0,0,left,660.4458,660.4466,,0,,1,660.4466,660.4466,660.447,661.9475,0,35,35,35,1,0.6,0.4,0.4,0.6,,,,,,,,,,,,,,,1.3517,,0.8,0.2,0.6,0.4,0.4,0.6,0.8,0.2,1,0,,,,,,,,,,,,
,,65f5877e1c411d371249dd22,66fcb8a792cbf93eb2161534,2024-10-02_08h38.04.208,mdp,2024.2.1,Win32,166.6666667,66fa4ebf79326e780c390304,,,,,,,,,,,,,,,,,,,,,661.9478,661.9478,661.9487,664.1167,0,0,left,1.6605,,664.1173,665.8543,1,0,right,665.855,665.8555,,1,,1,665.8556,665.8556,665.8562,667.3527,0,36,36,36,1,0.6,0.4,0.4,0.6,,,,,,,,,,,,,,,1.2295,,0.8,0.2,0.6,0.4,0.4,0.6,0.8,0.2,1,0,,,,,,,,,,,,
,,65f5877e1c411d371249dd22,66fcb8a792cbf93eb2161534,2024-10-02_08h38.04.208,mdp,2024.2.1,Win32,166.6666667,66fa4ebf79326e780c390304,,,,,,,,,,,,,,,,,,,,,667.3532,667.3532,667.3541,669.6227,1,0,right,1.7631,,669.6231,671.495,0,0,left,671.4956,671.496,,1,,1,671.496,671.496,671.4965,672.9934,0,37,37,37,1,0.6,0.4,0.4,0.6,,,,,,,,,,,,,,,1.3632,,0.8,0.2,0.6,0.4,0.4,0.6,0.8,0.2,1,0,,,,,,,,,,,,
,,65f5877e1c411d371249dd22,66fcb8a792cbf93eb2161534,2024-10-02_08h38.04.208,mdp,2024.2.1,Win32,166.6666667,66fa4ebf79326e780c390304,,,,,,,,,,,,,,,,,,,,,672.9939,672.994,672.9949,674.9384,0,0,left,1.4362,,674.9393,676.6924,1,1,right,676.6935,676.6938,,0,,0,676.6938,676.6938,676.694,678.1903,0,38,38,38,1,0.6,0.4,0.4,0.6,,,,,,,,,,,,,,,1.247,,0.8,0.2,0.6,0.4,0.4,0.6,0.8,0.2,1,0,,,,,,,,,,,,
,,65f5877e1c411d371249dd22,66fcb8a792cbf93eb2161534,2024-10-02_08h38.04.208,mdp,2024.2.1,Win32,166.6666667,66fa4ebf79326e780c390304,,,,,,,,,,,,,,,,,,,,,678.1905,678.1905,678.1911,680.0884,1,0,right,1.388,,680.0898,681.9666,0,0,left,681.9676,681.968,,0,,1,681.968,681.968,681.9684,683.4693,0,39,39,39,1,0.6,0.4,0.4,0.6,,,,,,,,,,,,,,,1.3701,,0.8,0.2,0.6,0.4,0.4,0.6,0.8,0.2,1,0,,,,,,,,,,,,
,,65f5877e1c411d371249dd22,66fcb8a792cbf93eb2161534,2024-10-02_08h38.04.208,mdp,2024.2.1,Win32,166.6666667,66fa4ebf79326e780c390304,,,,,,,,,,,,,,,,,,,,,683.4698,683.4698,683.4708,685.4809,0,0,left,1.5036,,685.482,687.1285,1,0,right,687.1293,687.1301,,0,,1,687.1301,687.1301,687.1306,688.6313,0,40,40,40,1,0.6,0.4,0.4,0.6,,,,,,,,,,,,,,,1.1392,,0.8,0.2,0.6,0.4,0.4,0.6,0.8,0.2,1,0,,,,,,,,,,,,
,,65f5877e1c411d371249dd22,66fcb8a792cbf93eb2161534,2024-10-02_08h38.04.208,mdp,2024.2.1,Win32,166.6666667,66fa4ebf79326e780c390304,,,,,,,,,,,,,,,,,,,,,688.6315,688.6316,688.6325,690.7882,1,1,right,1.6488,,690.7892,692.6241,0,0,left,692.6252,692.6258,,1,,1,692.6258,692.6258,692.6262,694.1266,0,41,41,41,1,0.8,0.2,0.6,0.4,,,,,,,,,,,,,,,1.3253,,0.8,0.2,0.6,0.4,0.4,0.6,0.8,0.2,1,0,,,,,,,,,,,,
,,65f5877e1c411d371249dd22,66fcb8a792cbf93eb2161534,2024-10-02_08h38.04.208,mdp,2024.2.1,Win32,166.6666667,66fa4ebf79326e780c390304,,,,,,,,,,,,,,,,,,,,,694.1268,694.1269,694.1279,696.3262,0,0,left,1.6906,,696.3271,698.0761,1,0,right,698.0769,698.0774,,0,,1,698.0774,698.0774,698.0779,699.5737,0,42,42,42,1,0.8,0.2,0.6,0.4,,,,,,,,,,,,,,,1.2371,,0.8,0.2,0.6,0.4,0.4,0.6,0.8,0.2,1,0,,,,,,,,,,,,
,,65f5877e1c411d371249dd22,66fcb8a792cbf93eb2161534,2024-10-02_08h38.04.208,mdp,2024.2.1,Win32,166.6666667,66fa4ebf79326e780c390304,,,,,,,,,,,,,,,,,,,,,699.5742,699.5742,699.5751,701.5974,1,0,right,1.5152,,701.5985,703.5,0,0,left,703.501,703.5015,,0,,1,703.5015,703.5015,703.5018,705.0026,0,43,43,43,1,0.8,0.2,0.6,0.4,,,,,,,,,,,,,,,1.3906,,0.8,0.2,0.6,0.4,0.4,0.6,0.8,0.2,1,0,,,,,,,,,,,,
,,65f5877e1c411d371249dd22,66fcb8a792cbf93eb2161534,2024-10-02_08h38.04.208,mdp,2024.2.1,Win32,166.6666667,66fa4ebf79326e780c390304,,,,,,,,,,,,,,,,,,,,,705.003,705.003,705.004,707.0506,0,0,left,1.5394,,707.0515,708.8314,1,0,right,708.8325,708.8332,,0,,1,708.8332,708.8332,708.8334,710.3341,0,44,44,44,1,0.8,0.2,0.6,0.4,,,,,,,,,,,,,,,1.2725,,0.8,0.2,0.6,0.4,0.4,0.6,0.8,0.2,1,0,,,,,,,,,,,,
,,65f5877e1c411d371249dd22,66fcb8a792cbf93eb2161534,2024-10-02_08h38.04.208,mdp,2024.2.1,Win32,166.6666667,66fa4ebf79326e780c390304,,,,,,,,,,,,,,,,,,,,,710.3344,710.3344,710.3353,712.2305,1,0,right,1.3882,,712.2314,713.9572,0,0,left,713.9579,713.9585,,0,,1,713.9586,713.9586,713.9591,715.4599,0,45,45,45,1,0.8,0.2,0.6,0.4,,,,,,,,,,,,,,,1.2183,,0.4,0.6,0.8,0.2,0.4,0.6,0.8,0.2,1,0,,,,,,,,,,,,
,,65f5877e1c411d371249dd22,66fcb8a792cbf93eb2161534,2024-10-02_08h38.04.208,mdp,2024.2.1,Win32,166.6666667,66fa4ebf79326e780c390304,,,,,,,,,,,,,,,,,,,,,715.4603,715.4603,715.4612,717.4534,0,1,left,1.4846,,717.4543,719.1196,1,0,right,719.1204,719.1211,,1,,1,719.1211,719.1211,719.1216,720.6222,0,46,46,46,1,0.8,0.2,0.6,0.4,,,,,,,,,,,,,,,1.1546,,0.4,0.6,0.8,0.2,0.4,0.6,0.8,0.2,1,0,,,,,,,,,,,,
,,65f5877e1c411d371249dd22,66fcb8a792cbf93eb2161534,2024-10-02_08h38.04.208,mdp,2024.2.1,Win32,166.6666667,66fa4ebf79326e780c390304,,,,,,,,,,,,,,,,,,,,,720.6226,720.6226,720.6233,722.5185,1,1,right,1.3879,,722.5191,724.3908,0,1,left,724.3917,724.3926,,1,,0,724.3926,724.3927,724.3932,725.8934,0,47,47,47,1,0.8,0.2,0.6,0.4,,,,,,,,,,,,,,,1.3638,,0.4,0.6,0.8,0.2,0.4,0.6,0.8,0.2,1,0,,,,,,,,,,,,
,,65f5877e1c411d371249dd22,66fcb8a792cbf93eb2161534,2024-10-02_08h38.04.208,mdp,2024.2.1,Win32,166.6666667,66fa4ebf79326e780c390304,,,,,,,,,,,,,,,,,,,,,725.8939,725.8939,725.8949,727.7231,0,1,left,1.321,,727.724,729.5044,1,1,right,729.5052,729.5058,,0,,0,729.506,729.506,729.5064,731.007,0,48,48,48,1,0.8,0.2,0.6,0.4,,,,,,,,,,,,,,,1.272,,0.4,0.6,0.8,0.2,0.4,0.6,0.8,0.2,1,0,,,,,,,,,,,,
,,65f5877e1c411d371249dd22,66fcb8a792cbf93eb2161534,2024-10-02_08h38.04.208,mdp,2024.2.1,Win32,166.6666667,66fa4ebf79326e780c390304,,,,,,,,,,,,,,,,,,,,,731.0074,731.0074,731.0082,733.0245,1,1,right,1.5089,,733.0252,734.9334,0,0,left,734.9341,734.9348,,1,,1,734.9348,734.9348,734.9354,736.4358,0,49,49,49,1,0.8,0.2,0.6,0.4,,,,,,,,,,,,,,,1.4002,,0.4,0.6,0.8,0.2,0.4,0.6,0.8,0.2,1,0,,,,,,,,,,,,
,,65f5877e1c411d371249dd22,66fcb8a792cbf93eb2161534,2024-10-02_08h38.04.208,mdp,2024.2.1,Win32,166.6666667,66fa4ebf79326e780c390304,,,,,,,,,,,,,,,,,,,,,,,,,,,,,,,,,,,,,,,,,,,,,,,,,,,,,,,,736.436,791.4437,0,1,1,0,1,imgs/elephant.png,imgs/giraffe.png,imgs/bear.png,imgs/kangaroo.png,imgs/goat.png,,,,,,,,,,,,,,,,,,,,,,,,
,,65f5877e1c411d371249dd22,66fcb8a792cbf93eb2161534,2024-10-02_08h38.04.208,mdp,2024.2.1,Win32,166.6666667,66fa4ebf79326e780c390304,,,,,,,,,,,,,,3,seqs/st3seq22.csv,791.451,795.8978,space,3.9386,,795.9016,795.9016,795.9019,798.1156,1,0,right,1.6979,,798.1161,801.8056,1,0,right,801.8065,804.5198,1,1,right,0,804.5199,804.5199,804.5209,806.0166,0,0,0,0,1,0.6,0.4,0.4,0.6,,,,,,,,,,,,,,,3.1806,,0.8,0.2,0.6,0.4,0.2,0.8,0.8,0.2,,,2.2021,,0.4,0.6,0.2,0.8,0.8,0.2,0.2,0.8,1,0
,,65f5877e1c411d371249dd22,66fcb8a792cbf93eb2161534,2024-10-02_08h38.04.208,mdp,2024.2.1,Win32,166.6666667,66fa4ebf79326e780c390304,,,,,,,,,,,,,,,,,,,,,806.0172,806.0172,806.0182,807.2403,1,0,right,0.7145,,807.241,808.3554,1,0,right,808.356,809.3063,0,1,left,0,809.3064,809.3064,809.3069,810.803,0,1,1,1,1,0.6,0.4,0.4,0.6,,,,,,,,,,,,,,,0.6059,,0.8,0.2,0.6,0.4,0.2,0.8,0.8,0.2,,,0.4425,,0.4,0.6,0.2,0.8,0.8,0.2,0.2,0.8,1,0
,,65f5877e1c411d371249dd22,66fcb8a792cbf93eb2161534,2024-10-02_08h38.04.208,mdp,2024.2.1,Win32,166.6666667,66fa4ebf79326e780c390304,,,,,,,,,,,,,,,,,,,,,810.8036,810.8036,810.8046,813.5416,1,0,right,2.2283,,813.5425,815.5833,0,1,left,815.5843,817.3828,1,1,right,0,817.3829,817.3829,817.3835,818.8791,0,2,2,2,1,0.6,0.4,0.4,0.6,,,,,,,,,,,,,,,1.535,,0.8,0.2,0.6,0.4,0.2,0.8,0.8,0.2,,,1.2848,,0.4,0.6,0.2,0.8,0.8,0.2,0.2,0.8,1,0
,,65f5877e1c411d371249dd22,66fcb8a792cbf93eb2161534,2024-10-02_08h38.04.208,mdp,2024.2.1,Win32,166.6666667,66fa4ebf79326e780c390304,,,,,,,,,,,,,,,,,,,,,818.8795,818.8795,818.8802,820.6364,1,1,right,1.2469,,820.6369,822.3995,0,1,left,822.4002,824.2545,1,1,right,0,824.2545,824.2545,824.2549,825.7507,0,3,3,3,1,0.6,0.4,0.4,0.6,,,,,,,,,,,,,,,1.2509,,0.8,0.2,0.6,0.4,0.2,0.8,0.8,0.2,,,1.3469,,0.6,0.4,0.6,0.4,0.8,0.2,0.2,0.8,1,0
,,65f5877e1c411d371249dd22,66fcb8a792cbf93eb2161534,2024-10-02_08h38.04.208,mdp,2024.2.1,Win32,166.6666667,66fa4ebf79326e780c390304,,,,,,,,,,,,,,,,,,,,,825.7508,825.7509,825.7514,827.2347,1,1,right,0.9743,,827.2355,833.821,1,0,right,833.822,835.2566,1,0,right,1,835.2567,835.2567,835.2574,836.7531,0,4,4,4,1,0.6,0.4,0.4,0.6,,,,,,,,,,,,,,,6.0785,,0.8,0.2,0.6,0.4,0.2,0.8,0.8,0.2,,,0.9241,,0.6,0.4,0.6,0.4,0.8,0.2,0.2,0.8,1,0
,,65f5877e1c411d371249dd22,66fcb8a792cbf93eb2161534,2024-10-02_08h38.04.208,mdp,2024.2.1,Win32,166.6666667,66fa4ebf79326e780c390304,,,,,,,,,,,,,,,,,,,,,836.7535,836.7535,836.7543,837.8618,1,1,right,0.6001,,837.8628,839.3039,1,1,right,839.3045,841.0188,1,1,right,0,841.0188,841.0188,841.0195,842.5151,0,5,5,5,1,0.6,0.4,0.4,0.6,,,,,,,,,,,,,,,0.9337,,0.8,0.2,0.6,0.4,0.2,0.8,0.8,0.2,,,1.2039,,0.6,0.4,0.6,0.4,0.8,0.2,0.2,0.8,1,0
,,65f5877e1c411d371249dd22,66fcb8a792cbf93eb2161534,2024-10-02_08h38.04.208,mdp,2024.2.1,Win32,166.6666667,66fa4ebf79326e780c390304,,,,,,,,,,,,,,,,,,,,,842.5156,842.5156,842.5166,843.6059,1,1,right,0.5817,,843.6067,845.1509,1,0,right,845.1518,846.7928,1,0,right,1,846.7929,846.7929,846.7935,848.2892,0,6,6,6,1,0.6,0.4,0.4,0.6,,,,,,,,,,,,,,,1.037,,0.8,0.2,0.6,0.4,0.2,0.8,0.8,0.2,,,1.1318,,0.6,0.4,0.6,0.4,0.8,0.2,0.2,0.8,1,0
,,65f5877e1c411d371249dd22,66fcb8a792cbf93eb2161534,2024-10-02_08h38.04.208,mdp,2024.2.1,Win32,166.6666667,66fa4ebf79326e780c390304,,,,,,,,,,,,,,,,,,,,,848.2895,848.2895,848.2902,854.0515,1,1,right,5.2541,,854.0524,855.4085,1,1,right,855.4093,856.894,0,0,left,1,856.8942,856.8942,856.8959,858.3895,0,7,7,7,1,0.6,0.4,0.4,0.6,,,,,,,,,,,,,,,0.85,,0.8,0.2,0.6,0.4,0.2,0.8,0.8,0.2,,,0.974,,0.6,0.4,0.6,0.4,0.8,0.2,0.2,0.8,1,0
,,65f5877e1c411d371249dd22,66fcb8a792cbf93eb2161534,2024-10-02_08h38.04.208,mdp,2024.2.1,Win32,166.6666667,66fa4ebf79326e780c390304,,,,,,,,,,,,,,,,,,,,,858.3902,858.3902,858.391,859.7224,1,0,right,0.8239,,859.7232,864.0849,1,1,right,864.0856,867.3695,1,0,right,1,867.3695,867.3695,867.3706,868.8655,0,8,8,8,1,0.6,0.4,0.4,0.6,,,,,,,,,,,,,,,3.8498,,0.8,0.2,0.6,0.4,0.2,0.8,0.8,0.2,,,2.7763,,0.6,0.4,0.6,0.4,0.8,0.2,0.2,0.8,1,0
,,65f5877e1c411d371249dd22,66fcb8a792cbf93eb2161534,2024-10-02_08h38.04.208,mdp,2024.2.1,Win32,166.6666667,66fa4ebf79326e780c390304,,,,,,,,,,,,,,,,,,,,,868.8659,868.8659,868.8668,870.3201,1,0,right,0.9461,,870.3213,871.9131,1,0,right,871.914,873.5552,0,0,left,1,873.5552,873.5552,873.556,875.0516,0,9,9,9,1,0.6,0.4,0.4,0.6,,,,,,,,,,,,,,,1.0852,,0.8,0.2,0.6,0.4,0.2,0.8,0.8,0.2,,,1.1304,,0.6,0.4,0.6,0.4,0.8,0.2,0.2,0.8,1,0
,,65f5877e1c411d371249dd22,66fcb8a792cbf93eb2161534,2024-10-02_08h38.04.208,mdp,2024.2.1,Win32,166.6666667,66fa4ebf79326e780c390304,,,,,,,,,,,,,,,,,,,,,875.052,875.052,875.0529,875.9846,1,0,right,0.4242,,875.9852,877.5298,1,0,right,877.5307,879.4023,1,0,right,1,879.4024,879.4024,879.4034,880.8983,0,10,10,10,1,0.6,0.4,0.4,0.6,,,,,,,,,,,,,,,1.0361,,0.8,0.2,0.6,0.4,0.2,0.8,0.8,0.2,,,1.3638,,0.6,0.4,0.6,0.4,0.8,0.2,0.2,0.8,1,0
,,65f5877e1c411d371249dd22,66fcb8a792cbf93eb2161534,2024-10-02_08h38.04.208,mdp,2024.2.1,Win32,166.6666667,66fa4ebf79326e780c390304,,,,,,,,,,,,,,,,,,,,,880.8988,880.8988,880.8996,882.3887,1,1,right,0.9816,,882.3895,884.0309,1,0,right,884.0319,885.5218,0,1,left,0,885.522,885.522,885.5231,887.0179,0,11,11,11,1,0.6,0.4,0.4,0.6,,,,,,,,,,,,,,,1.1287,,0.8,0.2,0.6,0.4,0.2,0.8,0.8,0.2,,,0.982,,0.6,0.4,0.6,0.4,0.8,0.2,0.2,0.8,1,0
,,65f5877e1c411d371249dd22,66fcb8a792cbf93eb2161534,2024-10-02_08h38.04.208,mdp,2024.2.1,Win32,166.6666667,66fa4ebf79326e780c390304,,,,,,,,,,,,,,,,,,,,,887.0183,887.0183,887.0191,888.5995,1,1,right,1.073,,888.6007,889.5869,1,0,right,889.588,890.7809,1,0,right,1,890.781,890.781,890.7821,892.2771,0,12,12,12,1,0.4,0.6,0.2,0.8,,,,,,,,,,,,,,,0.479,,0.8,0.2,0.6,0.4,0.2,0.8,0.8,0.2,,,0.6851,,0.6,0.4,0.6,0.4,0.8,0.2,0.2,0.8,1,0
,,65f5877e1c411d371249dd22,66fcb8a792cbf93eb2161534,2024-10-02_08h38.04.208,mdp,2024.2.1,Win32,166.6666667,66fa4ebf79326e780c390304,,,,,,,,,,,,,,,,,,,,,892.2776,892.2776,892.2786,893.3618,1,1,right,0.5765,,893.3628,894.5254,1,0,right,894.5264,895.5308,1,1,right,0,895.5308,895.5308,895.532,897.0272,0,13,13,13,1,0.4,0.6,0.2,0.8,,,,,,,,,,,,,,,0.6551,,0.8,0.2,0.6,0.4,0.2,0.8,0.8,0.2,,,0.4976,,0.6,0.4,0.6,0.4,0.8,0.2,0.2,0.8,1,0
,,65f5877e1c411d371249dd22,66fcb8a792cbf93eb2161534,2024-10-02_08h38.04.208,mdp,2024.2.1,Win32,166.6666667,66fa4ebf79326e780c390304,,,,,,,,,,,,,,,,,,,,,897.0276,897.0276,897.0286,898.2154,1,0,right,0.6795,,898.2168,899.4263,1,0,right,899.427,901.1229,1,1,right,0,901.1229,901.1229,901.1239,902.6195,0,14,14,14,1,0.4,0.6,0.2,0.8,,,,,,,,,,,,,,,0.7015,,0.8,0.2,0.6,0.4,0.4,0.6,0.2,0.8,,,1.1876,,0.6,0.4,0.6,0.4,0.8,0.2,0.2,0.8,1,0
,,65f5877e1c411d371249dd22,66fcb8a792cbf93eb2161534,2024-10-02_08h38.04.208,mdp,2024.2.1,Win32,166.6666667,66fa4ebf79326e780c390304,,,,,,,,,,,,,,,,,,,,,902.6201,902.6201,902.621,903.5831,1,0,right,0.455,,903.584,904.7708,1,0,right,904.7717,906.2187,1,0,right,1,906.2189,906.2189,906.22,907.715,0,15,15,15,1,0.4,0.6,0.2,0.8,,,,,,,,,,,,,,,0.6791,,0.8,0.2,0.6,0.4,0.4,0.6,0.2,0.8,,,0.9398,,0.6,0.4,0.6,0.4,0.8,0.2,0.2,0.8,1,0
,,65f5877e1c411d371249dd22,66fcb8a792cbf93eb2161534,2024-10-02_08h38.04.208,mdp,2024.2.1,Win32,166.6666667,66fa4ebf79326e780c390304,,,,,,,,,,,,,,,,,,,,,907.7154,907.7154,907.7164,908.8369,1,1,right,0.6132,,908.8379,909.9334,1,0,right,909.9347,911.6413,1,1,right,0,911.6414,911.6414,911.6422,913.1376,0,16,16,16,1,0.4,0.6,0.2,0.8,,,,,,,,,,,,,,,0.5851,,0.8,0.2,0.6,0.4,0.4,0.6,0.2,0.8,,,1.2002,,0.6,0.4,0.6,0.4,0.8,0.2,0.2,0.8,1,0
,,65f5877e1c411d371249dd22,66fcb8a792cbf93eb2161534,2024-10-02_08h38.04.208,mdp,2024.2.1,Win32,166.6666667,66fa4ebf79326e780c390304,,,,,,,,,,,,,,,,,,,,,913.138,913.138,913.1388,914.1555,1,0,right,0.5093,,914.1565,915.6042,1,1,right,915.6053,916.8579,1,1,right,0,916.8579,916.858,916.8586,918.3549,0,17,17,17,1,0.2,0.8,0.8,0.2,,,,,,,,,,,,,,,0.9385,,0.8,0.2,0.6,0.4,0.4,0.6,0.2,0.8,,,0.7429,,0.6,0.4,0.6,0.4,0.8,0.2,0.2,0.8,1,0
,,65f5877e1c411d371249dd22,66fcb8a792cbf93eb2161534,2024-10-02_08h38.04.208,mdp,2024.2.1,Win32,166.6666667,66fa4ebf79326e780c390304,,,,,,,,,,,,,,,,,,,,,918.3554,918.3554,918.3564,919.2153,1,1,right,0.3524,,919.2166,920.3914,1,1,right,920.3924,922.1598,1,1,right,0,922.1598,922.1598,922.1609,923.6562,0,18,18,18,1,0.2,0.8,0.8,0.2,,,,,,,,,,,,,,,0.6643,,0.8,0.2,0.6,0.4,0.4,0.6,0.2,0.8,,,1.2613,,0.6,0.4,0.6,0.4,0.8,0.2,0.2,0.8,1,0
,,65f5877e1c411d371249dd22,66fcb8a792cbf93eb2161534,2024-10-02_08h38.04.208,mdp,2024.2.1,Win32,166.6666667,66fa4ebf79326e780c390304,,,,,,,,,,,,,,,,,,,,,923.6567,923.6567,923.6579,924.5106,1,0,right,0.3463,,924.5115,925.559,1,1,right,925.5604,926.6677,1,0,right,1,926.6678,926.6678,926.6691,928.164,0,19,19,19,1,0.2,0.8,0.8,0.2,,,,,,,,,,,,,,,0.5367,,0.8,0.2,0.6,0.4,0.4,0.6,0.2,0.8,,,0.601,,0.8,0.2,0.8,0.2,0.8,0.2,0.2,0.8,1,0
,,65f5877e1c411d371249dd22,66fcb8a792cbf93eb2161534,2024-10-02_08h38.04.208,mdp,2024.2.1,Win32,166.6666667,66fa4ebf79326e780c390304,,,,,,,,,,,,,,,,,,,,,928.1645,928.1645,928.1654,929.0847,1,0,right,0.4117,,929.0853,930.2058,1,0,right,930.2066,931.2299,1,1,right,0,931.2299,931.2299,931.2309,932.7268,0,20,20,20,1,0.2,0.8,0.8,0.2,,,,,,,,,,,,,,,0.6125,,0.8,0.2,0.6,0.4,0.4,0.6,0.2,0.8,,,0.5117,,0.8,0.2,0.8,0.2,0.8,0.2,0.2,0.8,1,0
,,65f5877e1c411d371249dd22,66fcb8a792cbf93eb2161534,2024-10-02_08h38.04.208,mdp,2024.2.1,Win32,166.6666667,66fa4ebf79326e780c390304,,,,,,,,,,,,,,,,,,,,,932.7273,932.7273,932.728,933.6289,1,0,right,0.3948,,933.6298,934.962,1,1,right,934.963,936.0888,1,0,right,1,936.0888,936.0889,936.0896,937.5852,0,21,21,21,1,0.2,0.8,0.8,0.2,,,,,,,,,,,,,,,0.8249,,0.8,0.2,0.6,0.4,0.4,0.6,0.2,0.8,,,0.6163,,0.4,0.6,0.2,0.8,0.8,0.2,0.2,0.8,1,0
,,65f5877e1c411d371249dd22,66fcb8a792cbf93eb2161534,2024-10-02_08h38.04.208,mdp,2024.2.1,Win32,166.6666667,66fa4ebf79326e780c390304,,,,,,,,,,,,,,,,,,,,,937.5854,937.5854,937.586,938.5549,1,1,right,0.4594,,938.5558,939.6455,1,1,right,939.6466,942.4141,1,1,right,0,942.4142,942.4142,942.4149,943.9108,0,22,22,22,1,0.2,0.8,0.8,0.2,,,,,,,,,,,,,,,0.5801,,0.8,0.2,0.6,0.4,0.4,0.6,0.2,0.8,,,2.2601,,0.4,0.6,0.2,0.8,0.8,0.2,0.2,0.8,1,0
,,65f5877e1c411d371249dd22,66fcb8a792cbf93eb2161534,2024-10-02_08h38.04.208,mdp,2024.2.1,Win32,166.6666667,66fa4ebf79326e780c390304,,,,,,,,,,,,,,,,,,,,,943.9115,943.9115,943.9126,944.9531,1,1,right,0.5322,,944.954,946.0679,1,0,right,946.0689,947.1463,0,1,left,0,947.1464,947.1464,947.1475,948.6426,0,23,23,23,1,0.2,0.8,0.8,0.2,,,,,,,,,,,,,,,0.6071,,0.4,0.6,0.4,0.6,0.4,0.6,0.2,0.8,,,0.5692,,0.4,0.6,0.2,0.8,0.8,0.2,0.2,0.8,1,0
,,65f5877e1c411d371249dd22,66fcb8a792cbf93eb2161534,2024-10-02_08h38.04.208,mdp,2024.2.1,Win32,166.6666667,66fa4ebf79326e780c390304,,,,,,,,,,,,,,,,,,,,,948.6429,948.6429,948.6437,949.4121,1,0,right,0.2602,,949.413,950.4784,1,1,right,950.4793,951.2361,0,0,left,1,951.2361,951.2361,951.2367,952.7325,0,24,24,24,1,0.2,0.8,0.8,0.2,,,,,,,,,,,,,,,0.5549,,0.4,0.6,0.4,0.6,0.4,0.6,0.2,0.8,,,0.2467,,0.4,0.6,0.2,0.8,0.8,0.2,0.2,0.8,1,0
,,65f5877e1c411d371249dd22,66fcb8a792cbf93eb2161534,2024-10-02_08h38.04.208,mdp,2024.2.1,Win32,166.6666667,66fa4ebf79326e780c390304,,,,,,,,,,,,,,,,,,,,,952.733,952.733,952.7337,953.284,1,0,right,0.0415,,953.2848,954.0533,0,1,left,954.054,954.6776,1,0,right,1,954.6776,954.6776,954.6784,956.1741,0,25,25,25,1,0.2,0.8,0.8,0.2,,,,,,,,,,,,,,,0.2627,,0.4,0.6,0.4,0.6,0.4,0.6,0.2,0.8,,,0.1145,,0.4,0.6,0.2,0.8,0.4,0.6,0.6,0.4,1,0
,,65f5877e1c411d371249dd22,66fcb8a792cbf93eb2161534,2024-10-02_08h38.04.208,mdp,2024.2.1,Win32,166.6666667,66fa4ebf79326e780c390304,,,,,,,,,,,,,,,,,,,,,956.1747,956.1747,956.1757,956.8344,0,0,left,0.1518,,956.8352,957.4041,1,1,right,957.4048,957.9251,1,1,right,0,957.9252,957.9252,957.926,959.4216,0,26,26,26,1,0.2,0.8,0.8,0.2,,,,,,,,,,,,,,,0.0597,,0.4,0.6,0.4,0.6,0.4,0.6,0.2,0.8,,,0.0129,,0.4,0.6,0.2,0.8,0.4,0.6,0.6,0.4,1,0
,,65f5877e1c411d371249dd22,66fcb8a792cbf93eb2161534,2024-10-02_08h38.04.208,mdp,2024.2.1,Win32,166.6666667,66fa4ebf79326e780c390304,,,,,,,,,,,,,,,,,,,,,959.422,959.422,959.4226,959.9489,0,1,left,0.0187,,959.9494,960.5849,0,1,left,960.5856,961.106,0,1,left,0,961.1061,961.1061,961.1067,962.6024,0,27,27,27,1,0.2,0.8,0.8,0.2,,,,,,,,,,,,,,,0.1254,,0.8,0.2,0.2,0.8,0.4,0.6,0.2,0.8,,,0.0117,,0.4,0.6,0.2,0.8,0.4,0.6,0.6,0.4,1,0
,,65f5877e1c411d371249dd22,66fcb8a792cbf93eb2161534,2024-10-02_08h38.04.208,mdp,2024.2.1,Win32,166.6666667,66fa4ebf79326e780c390304,,,,,,,,,,,,,,,,,,,,,962.6026,962.6026,962.6035,963.1478,1,0,right,0.0348,,963.1483,963.6572,0,0,left,963.6578,964.1959,1,1,right,0,964.196,964.196,964.1964,965.6931,0,28,28,28,1,0.2,0.8,0.8,0.2,,,,,,,,,,,,,,,0.0005,,0.8,0.2,0.2,0.8,0.4,0.6,0.2,0.8,,,0.0296,,0.4,0.6,0.2,0.8,0.4,0.6,0.6,0.4,1,0
,,65f5877e1c411d371249dd22,66fcb8a792cbf93eb2161534,2024-10-02_08h38.04.208,mdp,2024.2.1,Win32,166.6666667,66fa4ebf79326e780c390304,,,,,,,,,,,,,,,,,,,,,965.6934,965.6934,965.6939,966.2558,0,1,left,0.0535,,966.2564,966.8135,0,0,left,966.8141,967.3408,0,0,left,1,967.3408,967.3408,967.3413,968.8369,0,29,29,29,1,0.2,0.8,0.8,0.2,,,,,,,,,,,,,,,0.0463,,0.8,0.2,0.2,0.8,0.4,0.6,0.2,0.8,,,0.0168,,0.4,0.6,0.2,0.8,0.4,0.6,0.6,0.4,1,0
,,65f5877e1c411d371249dd22,66fcb8a792cbf93eb2161534,2024-10-02_08h38.04.208,mdp,2024.2.1,Win32,166.6666667,66fa4ebf79326e780c390304,,,,,,,,,,,,,,,,,,,,,968.8372,968.8372,968.8378,969.4489,1,0,right,0.1021,,969.4495,969.9764,1,1,right,969.9769,970.4972,1,0,right,1,970.4973,970.4973,970.4978,971.9938,0,30,30,30,1,0.2,0.8,0.8,0.2,,,,,,,,,,,,,,,0.0181,,0.8,0.2,0.2,0.8,0.4,0.6,0.2,0.8,,,0.0097,,0.4,0.6,0.2,0.8,0.4,0.6,0.6,0.4,1,0
,,65f5877e1c411d371249dd22,66fcb8a792cbf93eb2161534,2024-10-02_08h38.04.208,mdp,2024.2.1,Win32,166.6666667,66fa4ebf79326e780c390304,,,,,,,,,,,,,,,,,,,,,971.9941,971.9941,971.9947,972.5693,1,0,right,0.0654,,972.5697,973.1393,0,0,left,973.1399,973.7148,1,1,right,0,973.7149,973.7149,973.7154,975.2107,0,31,31,31,1,0.2,0.8,0.8,0.2,,,,,,,,,,,,,,,0.0596,,0.8,0.2,0.2,0.8,0.4,0.6,0.2,0.8,,,0.0666,,0.4,0.6,0.2,0.8,0.4,0.6,0.6,0.4,1,0
,,65f5877e1c411d371249dd22,66fcb8a792cbf93eb2161534,2024-10-02_08h38.04.208,mdp,2024.2.1,Win32,166.6666667,66fa4ebf79326e780c390304,,,,,,,,,,,,,,,,,,,,,975.211,975.211,975.2118,975.7925,1,0,right,0.0729,,975.7931,976.3015,1,1,right,976.3024,976.8346,0,0,left,1,976.8346,976.8346,976.835,978.3317,0,32,32,32,1,0.2,0.8,0.8,0.2,,,,,,,,,,,,,,,0.002,,0.8,0.2,0.2,0.8,0.4,0.6,0.2,0.8,,,0.0234,,0.4,0.6,0.2,0.8,0.4,0.6,0.6,0.4,1,0
,,65f5877e1c411d371249dd22,66fcb8a792cbf93eb2161534,2024-10-02_08h38.04.208,mdp,2024.2.1,Win32,166.6666667,66fa4ebf79326e780c390304,,,,,,,,,,,,,,,,,,,,,978.332,978.332,978.3325,978.8403,1,1,right,0.0006,,978.841,979.3741,1,1,right,979.3752,979.8947,1,0,right,1,979.8947,979.8947,979.8953,981.3912,0,33,33,33,1,0.2,0.8,0.8,0.2,,,,,,,,,,,,,,,0.0239,,0.8,0.2,0.2,0.8,0.4,0.6,0.2,0.8,,,0.0113,,0.4,0.6,0.2,0.8,0.4,0.6,0.6,0.4,1,0
,,65f5877e1c411d371249dd22,66fcb8a792cbf93eb2161534,2024-10-02_08h38.04.208,mdp,2024.2.1,Win32,166.6666667,66fa4ebf79326e780c390304,,,,,,,,,,,,,,,,,,,,,981.3914,981.3914,981.3922,982.0274,1,0,right,0.1273,,982.0283,982.5426,1,1,right,982.5435,983.0813,1,0,right,1,983.0813,983.0813,983.0823,984.5784,0,34,34,34,1,0.2,0.8,0.8,0.2,,,,,,,,,,,,,,,0.0052,,0.8,0.2,0.2,0.8,0.4,0.6,0.2,0.8,,,0.0305,,0.4,0.6,0.2,0.8,0.4,0.6,0.6,0.4,1,0
,,65f5877e1c411d371249dd22,66fcb8a792cbf93eb2161534,2024-10-02_08h38.04.208,mdp,2024.2.1,Win32,166.6666667,66fa4ebf79326e780c390304,,,,,,,,,,,,,,,,,,,,,984.5787,984.5787,984.5792,985.1354,1,0,right,0.0486,,985.1364,985.6684,1,0,right,985.6694,986.196,1,1,right,0,986.1961,986.1961,986.1967,987.6921,0,35,35,35,1,0.2,0.8,0.8,0.2,,,,,,,,,,,,,,,0.0257,,0.4,0.6,0.6,0.4,0.4,0.6,0.2,0.8,,,0.0176,,0.4,0.6,0.2,0.8,0.4,0.6,0.6,0.4,1,0
,,65f5877e1c411d371249dd22,66fcb8a792cbf93eb2161534,2024-10-02_08h38.04.208,mdp,2024.2.1,Win32,166.6666667,66fa4ebf79326e780c390304,,,,,,,,,,,,,,,,,,,,,987.6925,987.6925,987.6935,988.2195,0,0,left,0.0182,,988.2202,988.7951,0,1,left,988.7958,989.395,0,1,left,0,989.3951,989.3951,989.3958,990.8916,0,36,36,36,1,0.2,0.8,0.8,0.2,,,,,,,,,,,,,,,0.0671,,0.4,0.6,0.6,0.4,0.4,0.6,0.2,0.8,,,0.0894,,0.4,0.6,0.2,0.8,0.4,0.6,0.6,0.4,1,0
,,65f5877e1c411d371249dd22,66fcb8a792cbf93eb2161534,2024-10-02_08h38.04.208,mdp,2024.2.1,Win32,166.6666667,66fa4ebf79326e780c390304,,,,,,,,,,,,,,,,,,,,,990.892,990.892,990.8928,991.4791,1,0,right,0.0776,,991.4799,992.0183,1,1,right,992.0189,992.5762,1,0,right,1,992.5763,992.5763,992.577,994.0724,0,37,37,37,1,0.2,0.8,0.8,0.2,,,,,,,,,,,,,,,0.0306,,0.4,0.6,0.6,0.4,0.4,0.6,0.2,0.8,,,0.0483,,0.4,0.6,0.2,0.8,0.4,0.6,0.6,0.4,1,0
,,65f5877e1c411d371249dd22,66fcb8a792cbf93eb2161534,2024-10-02_08h38.04.208,mdp,2024.2.1,Win32,166.6666667,66fa4ebf79326e780c390304,,,,,,,,,,,,,,,,,,,,,994.0727,994.0727,994.0732,994.6479,0,1,left,0.068,,994.6485,995.2179,1,1,right,995.2187,995.7632,1,1,right,0,995.7632,995.7632,995.7639,997.2593,0,38,38,38,1,0.2,0.8,0.8,0.2,,,,,,,,,,,,,,,0.06,,0.4,0.6,0.6,0.4,0.4,0.6,0.2,0.8,,,0.0365,,0.4,0.6,0.2,0.8,0.4,0.6,0.6,0.4,1,0
,,65f5877e1c411d371249dd22,66fcb8a792cbf93eb2161534,2024-10-02_08h38.04.208,mdp,2024.2.1,Win32,166.6666667,66fa4ebf79326e780c390304,,,,,,,,,,,,,,,,,,,,,997.2597,997.2597,997.2606,997.8292,0,1,left,0.0621,,997.8302,998.3861,1,0,right,998.3869,998.9198,1,1,right,0,998.9199,998.9199,998.9211,1000.4158,0,39,39,39,1,0.2,0.8,0.8,0.2,,,,,,,,,,,,,,,0.0488,,0.4,0.6,0.6,0.4,0.4,0.6,0.2,0.8,,,0.0238,,0.4,0.6,0.2,0.8,0.4,0.6,0.6,0.4,1,0
,,65f5877e1c411d371249dd22,66fcb8a792cbf93eb2161534,2024-10-02_08h38.04.208,mdp,2024.2.1,Win32,166.6666667,66fa4ebf79326e780c390304,,,,,,,,,,,,,,,,,,,,,1000.4162,1000.4162,1000.4171,1000.9677,0,1,left,0.0436,,1000.9684,1001.531,0,1,left,1001.5317,1002.0944,0,0,left,1,1002.0945,1002.0945,1002.0951,1003.5908,0,40,40,40,1,0.2,0.8,0.8,0.2,,,,,,,,,,,,,,,0.0551,,0.4,0.6,0.6,0.4,0.4,0.6,0.2,0.8,,,0.0528,,0.4,0.6,0.2,0.8,0.4,0.6,0.6,0.4,1,0
,,65f5877e1c411d371249dd22,66fcb8a792cbf93eb2161534,2024-10-02_08h38.04.208,mdp,2024.2.1,Win32,166.6666667,66fa4ebf79326e780c390304,,,,,,,,,,,,,,,,,,,,,1003.5913,1003.5913,1003.5925,1004.1785,1,0,right,0.0793,,1004.1794,1004.7364,1,0,right,1004.7371,1005.2934,1,0,right,1,1005.2935,1005.2935,1005.2945,1006.7905,0,41,41,41,1,0.2,0.8,0.8,0.2,,,,,,,,,,,,,,,0.0474,,0.4,0.6,0.6,0.4,0.4,0.6,0.2,0.8,,,0.0461,,0.4,0.6,0.2,0.8,0.4,0.6,0.6,0.4,1,0
,,65f5877e1c411d371249dd22,66fcb8a792cbf93eb2161534,2024-10-02_08h38.04.208,mdp,2024.2.1,Win32,166.6666667,66fa4ebf79326e780c390304,,,,,,,,,,,,,,,,,,,,,1006.7909,1006.7909,1006.7918,1007.3293,1,1,right,0.0316,,1007.3299,1007.8806,1,1,right,1007.8816,1008.4317,1,0,right,1,1008.4319,1008.4319,1008.4326,1009.9283,0,42,42,42,1,0.2,0.8,0.8,0.2,,,,,,,,,,,,,,,0.0417,,0.4,0.6,0.6,0.4,0.4,0.6,0.2,0.8,,,0.0399,,0.4,0.6,0.2,0.8,0.4,0.6,0.6,0.4,1,0
,,65f5877e1c411d371249dd22,66fcb8a792cbf93eb2161534,2024-10-02_08h38.04.208,mdp,2024.2.1,Win32,166.6666667,66fa4ebf79326e780c390304,,,,,,,,,,,,,,,,,,,,,1009.9285,1009.9285,1009.929,1010.4554,0,1,left,0.0189,,1010.4559,1010.9889,0,1,left,1010.9896,1011.4978,1,0,right,1,1011.4978,1011.4978,1011.4984,1012.9941,0,43,43,43,1,0.2,0.8,0.8,0.2,,,,,,,,,,,,,,,0.0256,,0.4,0.6,0.6,0.4,0.4,0.6,0.2,0.8,,,0.0003,,0.4,0.6,0.2,0.8,0.4,0.6,0.6,0.4,1,0
,,65f5877e1c411d371249dd22,66fcb8a792cbf93eb2161534,2024-10-02_08h38.04.208,mdp,2024.2.1,Win32,166.6666667,66fa4ebf79326e780c390304,,,,,,,,,,,,,,,,,,,,,1012.9943,1012.9943,1012.9953,1013.6606,0,1,left,0.158,,1013.6612,1014.2123,1,1,right,1014.2129,1014.7452,1,0,right,1,1014.7453,1014.7453,1014.7458,1016.2416,0,44,44,44,1,0.2,0.8,0.8,0.2,,,,,,,,,,,,,,,0.0438,,0.4,0.6,0.6,0.4,0.4,0.6,0.2,0.8,,,0.0232,,0.4,0.6,0.2,0.8,0.4,0.6,0.6,0.4,1,0
,,65f5877e1c411d371249dd22,66fcb8a792cbf93eb2161534,2024-10-02_08h38.04.208,mdp,2024.2.1,Win32,166.6666667,66fa4ebf79326e780c390304,,,,,,,,,,,,,,,,,,,,,1016.2419,1016.2419,1016.2423,1016.7994,0,1,left,0.0491,,1016.8003,1017.3932,1,1,right,1017.3938,1018.096,1,1,right,0,1018.096,1018.096,1018.0964,1019.5923,0,45,45,45,1,0.2,0.8,0.8,0.2,,,,,,,,,,,,,,,0.0874,,0.4,0.6,0.6,0.4,0.4,0.6,0.2,0.8,,,0.1931,,0.4,0.6,0.2,0.8,0.4,0.6,0.6,0.4,1,0
,,65f5877e1c411d371249dd22,66fcb8a792cbf93eb2161534,2024-10-02_08h38.04.208,mdp,2024.2.1,Win32,166.6666667,66fa4ebf79326e780c390304,,,,,,,,,,,,,,,,,,,,,1019.5926,1019.5926,1019.5931,1020.2465,1,0,right,0.146,,1020.2473,1020.9737,1,0,right,1020.9743,1021.5134,1,0,right,1,1021.5136,1021.5136,1021.5144,1023.0095,0,46,46,46,1,0.2,0.8,0.8,0.2,,,,,,,,,,,,,,,0.2179,,0.4,0.6,0.6,0.4,0.4,0.6,0.2,0.8,,,0.0309,,0.4,0.6,0.2,0.8,0.4,0.6,0.6,0.4,1,0
,,65f5877e1c411d371249dd22,66fcb8a792cbf93eb2161534,2024-10-02_08h38.04.208,mdp,2024.2.1,Win32,166.6666667,66fa4ebf79326e780c390304,,,,,,,,,,,,,,,,,,,,,1023.0098,1023.0098,1023.0103,1023.8153,1,0,right,0.299,,1023.8159,1024.355,1,0,right,1024.3556,1024.8818,1,0,right,1,1024.8818,1024.8818,1024.8823,1026.3784,0,47,47,47,1,0.2,0.8,0.8,0.2,,,,,,,,,,,,,,,0.0318,,0.4,0.6,0.6,0.4,0.4,0.6,0.2,0.8,,,0.0178,,0.4,0.6,0.2,0.8,0.4,0.6,0.6,0.4,1,0
,,65f5877e1c411d371249dd22,66fcb8a792cbf93eb2161534,2024-10-02_08h38.04.208,mdp,2024.2.1,Win32,166.6666667,66fa4ebf79326e780c390304,,,,,,,,,,,,,,,,,,,,,1026.3787,1026.3788,1026.3796,1026.9968,1,0,right,0.1078,,1026.9974,1027.5297,1,0,right,1027.5303,1028.0507,1,1,right,0,1028.0508,1028.0508,1028.0512,1029.547,0,48,48,48,1,0.2,0.8,0.8,0.2,,,,,,,,,,,,,,,0.0253,,0.4,0.6,0.6,0.4,0.4,0.6,0.2,0.8,,,0.0142,,0.4,0.6,0.2,0.8,0.8,0.2,0.8,0.2,1,0
,,65f5877e1c411d371249dd22,66fcb8a792cbf93eb2161534,2024-10-02_08h38.04.208,mdp,2024.2.1,Win32,166.6666667,66fa4ebf79326e780c390304,,,,,,,,,,,,,,,,,,,,,1029.5472,1029.5472,1029.5477,1030.0621,0,0,left,0.0079,,1030.0627,1030.5713,1,0,right,1030.5719,1031.1228,1,1,right,0,1031.1228,1031.1228,1031.1233,1032.6189,0,49,49,49,1,0.2,0.8,0.8,0.2,,,,,,,,,,,,,,,0.0002,,0.4,0.6,0.6,0.4,0.4,0.6,0.2,0.8,,,0.0435,,0.4,0.6,0.2,0.8,0.8,0.2,0.8,0.2,1,0
,,65f5877e1c411d371249dd22,66fcb8a792cbf93eb2161534,2024-10-02_08h38.04.208,mdp,2024.2.1,Win32,166.6666667,66fa4ebf79326e780c390304,,,,,,,,,,,,,,,,,,,,,,,,,,,,,,,,,,,,,,,,,,,,,,,,,,,,,,,,1032.6192,1091.1243,0,2,2,5,1,imgs/kangaroo.png,imgs/giraffe.png,imgs/pig.png,imgs/lion.png,imgs/cat.png,,,,,,,,,,,,,,,,,,,,,,,,
,,65f5877e1c411d371249dd22,66fcb8a792cbf93eb2161534,2024-10-02_08h38.04.208,mdp,2024.2.1,Win32,166.6666667,66fa4ebf79326e780c390304,,,,,,,,,,,,,,3,seqs/st3seq15.csv,1091.1248,1102.2728,space,10.639,,1102.2773,1102.2773,1102.2777,1104.8533,1,0,right,2.0627,,1104.8543,1105.4956,1,0,right,1105.4963,1106.0473,0,1,left,0,1106.0474,1106.0474,1106.0478,1107.5435,0,0,0,0,1,0.2,0.8,0.6,0.4,,,,,,,,,,,,,,,0.131,,0.2,0.8,0.8,0.2,0.2,0.8,0.8,0.2,,,0.039,,0.8,0.2,0.2,0.8,0.8,0.2,0.2,0.8,1,0
,,65f5877e1c411d371249dd22,66fcb8a792cbf93eb2161534,2024-10-02_08h38.04.208,mdp,2024.2.1,Win32,166.6666667,66fa4ebf79326e780c390304,,,,,,,,,,,,,,,,,,,,,1107.5439,1107.5439,1107.5444,1108.1676,1,1,right,0.1156,,1108.1686,1108.6828,1,0,right,1108.6838,1109.2219,0,0,left,1,1109.222,1109.2228,1109.2234,1110.7246,0,1,1,1,1,0.2,0.8,0.6,0.4,,,,,,,,,,,,,,,0.0049,,0.2,0.8,0.8,0.2,0.2,0.8,0.8,0.2,,,0.0306,,0.8,0.2,0.2,0.8,0.8,0.2,0.2,0.8,1,0
,,65f5877e1c411d371249dd22,66fcb8a792cbf93eb2161534,2024-10-02_08h38.04.208,mdp,2024.2.1,Win32,166.6666667,66fa4ebf79326e780c390304,,,,,,,,,,,,,,,,,,,,,1110.7251,1110.7251,1110.7261,1111.3728,1,0,right,0.1418,,1111.3738,1112.0635,1,0,right,1112.0642,1112.6878,1,1,right,0,1112.6878,1112.6878,1112.6889,1114.1843,0,2,2,2,1,0.2,0.8,0.6,0.4,,,,,,,,,,,,,,,0.1816,,0.2,0.8,0.8,0.2,0.2,0.8,0.8,0.2,,,0.1172,,0.8,0.2,0.2,0.8,0.8,0.2,0.2,0.8,1,0
,,65f5877e1c411d371249dd22,66fcb8a792cbf93eb2161534,2024-10-02_08h38.04.208,mdp,2024.2.1,Win32,166.6666667,66fa4ebf79326e780c390304,,,,,,,,,,,,,,,,,,,,,1114.1846,1114.1846,1114.1851,1114.8442,1,0,right,0.1499,,1114.8448,1115.4082,1,0,right,1115.4093,1115.9779,1,1,right,0,1115.9779,1115.9779,1115.9788,1117.474,0,3,3,3,1,0.2,0.8,0.6,0.4,,,,,,,,,,,,,,,0.056,,0.2,0.8,0.8,0.2,0.8,0.2,0.6,0.4,,,0.063,,0.8,0.2,0.2,0.8,0.8,0.2,0.2,0.8,1,0
,,65f5877e1c411d371249dd22,66fcb8a792cbf93eb2161534,2024-10-02_08h38.04.208,mdp,2024.2.1,Win32,166.6666667,66fa4ebf79326e780c390304,,,,,,,,,,,,,,,,,,,,,1117.4746,1117.4746,1117.4755,1118.0558,0,1,left,0.0715,,1118.0565,1118.6372,0,0,left,1118.6379,1119.2432,1,1,right,0,1119.2432,1119.2432,1119.2438,1120.7397,0,4,4,4,1,0.2,0.8,0.6,0.4,,,,,,,,,,,,,,,0.0715,,0.2,0.8,0.8,0.2,0.8,0.2,0.6,0.4,,,0.0973,,0.8,0.2,0.2,0.8,0.8,0.2,0.2,0.8,1,0
,,65f5877e1c411d371249dd22,66fcb8a792cbf93eb2161534,2024-10-02_08h38.04.208,mdp,2024.2.1,Win32,166.6666667,66fa4ebf79326e780c390304,,,,,,,,,,,,,,,,,,,,,1120.7401,1120.7401,1120.7407,1121.3759,1,1,right,0.129,,1121.3769,1121.9523,1,0,right,1121.9529,1122.5938,1,1,right,0,1122.5939,1122.5939,1122.5946,1124.0904,0,5,5,5,1,0.2,0.8,0.6,0.4,,,,,,,,,,,,,,,0.0694,,0.2,0.8,0.8,0.2,0.8,0.2,0.6,0.4,,,0.1325,,0.8,0.2,0.2,0.8,0.2,0.8,0.8,0.2,1,0
,,65f5877e1c411d371249dd22,66fcb8a792cbf93eb2161534,2024-10-02_08h38.04.208,mdp,2024.2.1,Win32,166.6666667,66fa4ebf79326e780c390304,,,,,,,,,,,,,,,,,,,,,1124.0908,1124.0908,1124.0914,1124.6788,1,1,right,0.0783,,1124.6801,1125.3089,1,0,right,1125.3096,1125.9266,0,1,left,0,1125.9267,1125.9267,1125.9271,1127.4226,0,6,6,6,1,0.8,0.2,0.2,0.8,,,,,,,,,,,,,,,0.1242,,0.2,0.8,0.8,0.2,0.8,0.2,0.6,0.4,,,0.1089,,0.8,0.2,0.2,0.8,0.2,0.8,0.8,0.2,1,0
,,65f5877e1c411d371249dd22,66fcb8a792cbf93eb2161534,2024-10-02_08h38.04.208,mdp,2024.2.1,Win32,166.6666667,66fa4ebf79326e780c390304,,,,,,,,,,,,,,,,,,,,,1127.4229,1127.4229,1127.4233,1127.962,1,1,right,0.031,,1127.9627,1128.5978,1,1,right,1128.5984,1129.131,1,0,right,1,1129.131,1129.131,1129.1316,1130.6283,0,7,7,7,1,0.8,0.2,0.2,0.8,,,,,,,,,,,,,,,0.1262,,0.2,0.8,0.8,0.2,0.8,0.2,0.6,0.4,,,0.0217,,0.8,0.2,0.2,0.8,0.2,0.8,0.8,0.2,1,0
,,65f5877e1c411d371249dd22,66fcb8a792cbf93eb2161534,2024-10-02_08h38.04.208,mdp,2024.2.1,Win32,166.6666667,66fa4ebf79326e780c390304,,,,,,,,,,,,,,,,,,,,,1130.6285,1130.6285,1130.629,1131.161,0,0,left,0.0252,,1131.1615,1131.8578,1,1,right,1131.8583,1132.5305,1,1,right,0,1132.5305,1132.5305,1132.5311,1134.0267,0,8,8,8,1,0.4,0.6,0.6,0.4,,,,,,,,,,,,,,,0.1867,,0.2,0.8,0.8,0.2,0.8,0.2,0.6,0.4,,,0.1629,,0.8,0.2,0.2,0.8,0.2,0.8,0.8,0.2,1,0
,,65f5877e1c411d371249dd22,66fcb8a792cbf93eb2161534,2024-10-02_08h38.04.208,mdp,2024.2.1,Win32,166.6666667,66fa4ebf79326e780c390304,,,,,,,,,,,,,,,,,,,,,1134.027,1134.027,1134.0277,1134.5904,1,0,right,0.0556,,1134.5911,1135.0992,1,1,right,1135.0999,1135.6085,1,0,right,1,1135.6085,1135.6085,1135.609,1137.1047,0,9,9,9,1,0.4,0.6,0.6,0.4,,,,,,,,,,,,,,,0.0002,,0.2,0.8,0.8,0.2,0.8,0.2,0.6,0.4,,,0.0003,,0.8,0.2,0.2,0.8,0.2,0.8,0.8,0.2,1,0
,,65f5877e1c411d371249dd22,66fcb8a792cbf93eb2161534,2024-10-02_08h38.04.208,mdp,2024.2.1,Win32,166.6666667,66fa4ebf79326e780c390304,,,,,,,,,,,,,,,,,,,,,1137.1052,1137.1052,1137.1062,1137.6805,1,0,right,0.0663,,1137.6812,1138.1892,1,0,right,1138.1899,1138.7106,1,1,right,0,1138.7106,1138.7106,1138.7112,1140.207,0,10,10,10,1,0.4,0.6,0.6,0.4,,,,,,,,,,,,,,,0.0003,,0.2,0.8,0.8,0.2,0.8,0.2,0.6,0.4,,,0.0102,,0.8,0.2,0.2,0.8,0.2,0.8,0.8,0.2,1,0
,,65f5877e1c411d371249dd22,66fcb8a792cbf93eb2161534,2024-10-02_08h38.04.208,mdp,2024.2.1,Win32,166.6666667,66fa4ebf79326e780c390304,,,,,,,,,,,,,,,,,,,,,1140.2074,1140.2074,1140.2085,1140.7522,1,0,right,0.0329,,1140.7529,1141.3642,0,1,left,1141.3649,1141.8976,0,1,left,0,1141.8976,1141.8976,1141.8981,1143.3936,0,11,11,11,1,0.4,0.6,0.6,0.4,,,,,,,,,,,,,,,0.102,,0.2,0.8,0.8,0.2,0.8,0.2,0.6,0.4,,,0.0228,,0.8,0.2,0.2,0.8,0.2,0.8,0.8,0.2,1,0
,,65f5877e1c411d371249dd22,66fcb8a792cbf93eb2161534,2024-10-02_08h38.04.208,mdp,2024.2.1,Win32,166.6666667,66fa4ebf79326e780c390304,,,,,,,,,,,,,,,,,,,,,1143.3939,1143.3939,1143.3943,1143.9452,1,1,right,0.0438,,1143.9457,1144.5995,1,0,right,1144.6001,1145.1209,1,1,right,0,1145.121,1145.121,1145.1216,1146.6172,0,12,12,12,1,0.4,0.6,0.6,0.4,,,,,,,,,,,,,,,0.1452,,0.2,0.8,0.8,0.2,0.8,0.2,0.6,0.4,,,0.0112,,0.8,0.2,0.2,0.8,0.2,0.8,0.8,0.2,1,0
,,65f5877e1c411d371249dd22,66fcb8a792cbf93eb2161534,2024-10-02_08h38.04.208,mdp,2024.2.1,Win32,166.6666667,66fa4ebf79326e780c390304,,,,,,,,,,,,,,,,,,,,,1146.6176,1146.6176,1146.6185,1148.0167,0,0,left,0.8914,,1148.0175,1148.9378,0,1,left,1148.9385,1149.9073,0,1,left,0,1149.9074,1149.9074,1149.9081,1151.4036,0,13,13,13,1,0.4,0.6,0.6,0.4,,,,,,,,,,,,,,,0.4095,,0.2,0.8,0.8,0.2,0.8,0.2,0.6,0.4,,,0.4585,,0.8,0.2,0.2,0.8,0.2,0.8,0.8,0.2,1,0
,,65f5877e1c411d371249dd22,66fcb8a792cbf93eb2161534,2024-10-02_08h38.04.208,mdp,2024.2.1,Win32,166.6666667,66fa4ebf79326e780c390304,,,,,,,,,,,,,,,,,,,,,1151.4041,1151.4041,1151.4048,1151.9613,0,0,left,0.0491,,1151.9619,1153.0579,0,1,left,1153.0585,1154.2636,0,1,left,0,1154.2636,1154.2636,1154.2642,1155.7601,0,14,14,14,1,0.4,0.6,0.6,0.4,,,,,,,,,,,,,,,0.5866,,0.2,0.8,0.8,0.2,0.8,0.2,0.6,0.4,,,0.6985,,0.8,0.2,0.2,0.8,0.2,0.8,0.8,0.2,1,0
,,65f5877e1c411d371249dd22,66fcb8a792cbf93eb2161534,2024-10-02_08h38.04.208,mdp,2024.2.1,Win32,166.6666667,66fa4ebf79326e780c390304,,,,,,,,,,,,,,,,,,,,,1155.7604,1155.7604,1155.7613,1157.0145,0,1,left,0.7461,,1157.015,1159.4688,0,0,left,1159.4694,1161.2072,0,0,left,1,1161.2072,1161.2072,1161.2081,1162.7037,0,15,15,15,1,0.4,0.6,0.6,0.4,,,,,,,,,,,,,,,1.9448,,0.2,0.8,0.8,0.2,0.6,0.4,0.4,0.6,,,1.2284,,0.8,0.2,0.2,0.8,0.2,0.8,0.8,0.2,1,0
,,65f5877e1c411d371249dd22,66fcb8a792cbf93eb2161534,2024-10-02_08h38.04.208,mdp,2024.2.1,Win32,166.6666667,66fa4ebf79326e780c390304,,,,,,,,,,,,,,,,,,,,,1162.7044,1162.7044,1162.7054,1164.6913,0,1,left,1.4801,,1164.692,1165.9574,0,0,left,1165.9582,1167.2237,0,0,left,1,1167.2238,1167.2238,1167.2245,1168.7202,0,16,16,16,1,0.4,0.6,0.6,0.4,,,,,,,,,,,,,,,0.7559,,0.2,0.8,0.8,0.2,0.6,0.4,0.4,0.6,,,0.7567,,0.8,0.2,0.2,0.8,0.2,0.8,0.8,0.2,1,0
,,65f5877e1c411d371249dd22,66fcb8a792cbf93eb2161534,2024-10-02_08h38.04.208,mdp,2024.2.1,Win32,166.6666667,66fa4ebf79326e780c390304,,,,,,,,,,,,,,,,,,,,,1168.7208,1168.7208,1168.7216,1169.7383,0,1,left,0.5089,,1169.7393,1170.7261,0,1,left,1170.7268,1173.501,0,0,left,1,1173.5011,1173.5011,1173.5017,1174.9976,0,17,17,17,1,0.4,0.6,0.6,0.4,,,,,,,,,,,,,,,0.48,,0.2,0.8,0.8,0.2,0.6,0.4,0.4,0.6,,,2.2635,,0.8,0.2,0.2,0.8,0.2,0.8,0.8,0.2,1,0
,,65f5877e1c411d371249dd22,66fcb8a792cbf93eb2161534,2024-10-02_08h38.04.208,mdp,2024.2.1,Win32,166.6666667,66fa4ebf79326e780c390304,,,,,,,,,,,,,,,,,,,,,1174.9978,1174.9978,1174.9984,1175.9483,0,0,left,0.4427,,1175.9491,1177.5484,0,1,left,1177.5493,1179.0873,0,1,left,0,1179.0875,1179.0875,1179.088,1180.5836,0,18,18,18,1,0.4,0.6,0.6,0.4,,,,,,,,,,,,,,,1.0902,,0.2,0.8,0.8,0.2,0.6,0.4,0.4,0.6,,,1.0313,,0.8,0.2,0.2,0.8,0.2,0.8,0.8,0.2,1,0
,,65f5877e1c411d371249dd22,66fcb8a792cbf93eb2161534,2024-10-02_08h38.04.208,mdp,2024.2.1,Win32,166.6666667,66fa4ebf79326e780c390304,,,,,,,,,,,,,,,,,,,,,1180.5838,1180.5838,1180.5846,1182.7409,0,1,left,1.6494,,1182.7414,1186.8552,0,1,left,1186.8562,1188.4783,0,1,left,0,1188.4783,1188.4783,1188.4788,1189.9754,0,19,19,19,1,0.4,0.6,0.6,0.4,,,,,,,,,,,,,,,3.6047,,0.2,0.8,0.8,0.2,0.6,0.4,0.4,0.6,,,1.1155,,0.8,0.2,0.2,0.8,0.2,0.8,0.8,0.2,1,0
,,65f5877e1c411d371249dd22,66fcb8a792cbf93eb2161534,2024-10-02_08h38.04.208,mdp,2024.2.1,Win32,166.6666667,66fa4ebf79326e780c390304,,,,,,,,,,,,,,,,,,,,,1189.9758,1189.9758,1189.977,1190.9633,0,1,left,0.4793,,1190.9642,1192.0292,0,1,left,1192.03,1194.1619,1,0,right,1,1194.162,1194.162,1194.163,1195.6582,0,20,20,20,1,0.4,0.6,0.6,0.4,,,,,,,,,,,,,,,0.5582,,0.8,0.2,0.2,0.8,0.6,0.4,0.4,0.6,,,1.6247,,0.8,0.2,0.2,0.8,0.2,0.8,0.8,0.2,1,0
,,65f5877e1c411d371249dd22,66fcb8a792cbf93eb2161534,2024-10-02_08h38.04.208,mdp,2024.2.1,Win32,166.6666667,66fa4ebf79326e780c390304,,,,,,,,,,,,,,,,,,,,,1195.6585,1195.6586,1195.6594,1197.427,0,0,left,1.2602,,1197.4279,1199.3666,0,0,left,1199.3676,1202.2746,1,1,right,0,1202.2747,1202.2747,1202.2755,1203.7714,0,21,21,21,1,0.4,0.6,0.6,0.4,,,,,,,,,,,,,,,1.4282,,0.8,0.2,0.2,0.8,0.6,0.4,0.4,0.6,,,2.3966,,0.8,0.2,0.2,0.8,0.2,0.8,0.8,0.2,1,0
,,65f5877e1c411d371249dd22,66fcb8a792cbf93eb2161534,2024-10-02_08h38.04.208,mdp,2024.2.1,Win32,166.6666667,66fa4ebf79326e780c390304,,,,,,,,,,,,,,,,,,,,,1203.7719,1203.7719,1203.7729,1205.2498,0,0,left,0.9703,,1205.2509,1206.5525,0,0,left,1206.5536,1207.8196,0,1,left,0,1207.8197,1207.8197,1207.8207,1209.3209,0,22,22,22,1,0.4,0.6,0.6,0.4,,,,,,,,,,,,,,,0.7944,,0.8,0.2,0.2,0.8,0.6,0.4,0.4,0.6,,,0.7595,,0.8,0.2,0.2,0.8,0.2,0.8,0.8,0.2,1,0
,,65f5877e1c411d371249dd22,66fcb8a792cbf93eb2161534,2024-10-02_08h38.04.208,mdp,2024.2.1,Win32,166.6666667,66fa4ebf79326e780c390304,,,,,,,,,,,,,,,,,,,,,1209.3212,1209.3212,1209.3219,1210.515,0,1,left,0.6856,,1210.5162,1211.5871,0,0,left,1211.5883,1212.7868,0,0,left,1,1212.7868,1212.7868,1212.7876,1214.283,0,23,23,23,1,0.4,0.6,0.6,0.4,,,,,,,,,,,,,,,0.5597,,0.8,0.2,0.2,0.8,0.6,0.4,0.4,0.6,,,0.6909,,0.8,0.2,0.2,0.8,0.2,0.8,0.8,0.2,1,0
,,65f5877e1c411d371249dd22,66fcb8a792cbf93eb2161534,2024-10-02_08h38.04.208,mdp,2024.2.1,Win32,166.6666667,66fa4ebf79326e780c390304,,,,,,,,,,,,,,,,,,,,,1214.2834,1214.2834,1214.2844,1215.1314,0,1,left,0.3399,,1215.1324,1216.78,0,0,left,1216.7809,1218.3068,0,1,left,0,1218.3069,1218.3069,1218.3079,1219.803,0,24,24,24,1,0.4,0.6,0.6,0.4,,,,,,,,,,,,,,,1.1399,,0.8,0.2,0.2,0.8,0.6,0.4,0.4,0.6,,,1.0187,,0.8,0.2,0.2,0.8,0.2,0.8,0.8,0.2,1,0
,,65f5877e1c411d371249dd22,66fcb8a792cbf93eb2161534,2024-10-02_08h38.04.208,mdp,2024.2.1,Win32,166.6666667,66fa4ebf79326e780c390304,,,,,,,,,,,,,,,,,,,,,1219.8034,1219.8034,1219.8042,1220.7846,0,0,left,0.4732,,1220.7855,1221.9357,0,0,left,1221.9364,1223.1542,0,1,left,0,1223.1543,1223.1543,1223.1554,1224.6558,0,25,25,25,1,0.4,0.6,0.6,0.4,,,,,,,,,,,,,,,0.6392,,0.8,0.2,0.2,0.8,0.6,0.4,0.4,0.6,,,0.7098,,0.4,0.6,0.8,0.2,0.2,0.8,0.8,0.2,1,0
,,65f5877e1c411d371249dd22,66fcb8a792cbf93eb2161534,2024-10-02_08h38.04.208,mdp,2024.2.1,Win32,166.6666667,66fa4ebf79326e780c390304,,,,,,,,,,,,,,,,,,,,,1224.6566,1224.6566,1224.6576,1225.5528,0,1,left,0.3878,,1225.5535,1226.4617,0,0,left,1226.4627,1227.6369,0,1,left,0,1227.637,1227.637,1227.6376,1229.1336,0,26,26,26,1,0.4,0.6,0.6,0.4,,,,,,,,,,,,,,,0.3991,,0.8,0.2,0.2,0.8,0.6,0.4,0.4,0.6,,,0.6653,,0.4,0.6,0.8,0.2,0.2,0.8,0.8,0.2,1,0
,,65f5877e1c411d371249dd22,66fcb8a792cbf93eb2161534,2024-10-02_08h38.04.208,mdp,2024.2.1,Win32,166.6666667,66fa4ebf79326e780c390304,,,,,,,,,,,,,,,,,,,,,1229.134,1229.134,1229.1349,1230.5754,0,0,left,0.9328,,1230.5762,1231.83,0,0,left,1231.8306,1233.114,0,0,left,1,1233.1141,1233.1141,1233.1149,1234.6107,0,27,27,27,1,0.4,0.6,0.6,0.4,,,,,,,,,,,,,,,0.7452,,0.8,0.2,0.2,0.8,0.6,0.4,0.4,0.6,,,0.7757,,0.4,0.6,0.8,0.2,0.2,0.8,0.8,0.2,1,0
,,65f5877e1c411d371249dd22,66fcb8a792cbf93eb2161534,2024-10-02_08h38.04.208,mdp,2024.2.1,Win32,166.6666667,66fa4ebf79326e780c390304,,,,,,,,,,,,,,,,,,,,,1234.6113,1234.6113,1234.6124,1235.5801,0,1,left,0.4591,,1235.5809,1238.3733,0,0,left,1238.3741,1240.7604,1,0,right,1,1240.7604,1240.7604,1240.7612,1242.257,0,28,28,28,1,0.4,0.6,0.6,0.4,,,,,,,,,,,,,,,2.2822,,0.8,0.2,0.2,0.8,0.6,0.4,0.4,0.6,,,1.8773,,0.4,0.6,0.8,0.2,0.2,0.8,0.8,0.2,1,0
,,65f5877e1c411d371249dd22,66fcb8a792cbf93eb2161534,2024-10-02_08h38.04.208,mdp,2024.2.1,Win32,166.6666667,66fa4ebf79326e780c390304,,,,,,,,,,,,,,,,,,,,,1242.2574,1242.2574,1242.2582,1243.2993,0,1,left,0.5333,,1243.2998,1245.8499,0,0,left,1245.8506,1247.8799,1,0,right,1,1247.88,1247.88,1247.8809,1249.3764,0,29,29,29,1,0.4,0.6,0.6,0.4,,,,,,,,,,,,,,,2.0415,,0.8,0.2,0.2,0.8,0.6,0.4,0.4,0.6,,,1.5206,,0.4,0.6,0.8,0.2,0.2,0.8,0.8,0.2,1,0
,,65f5877e1c411d371249dd22,66fcb8a792cbf93eb2161534,2024-10-02_08h38.04.208,mdp,2024.2.1,Win32,166.6666667,66fa4ebf79326e780c390304,,,,,,,,,,,,,,,,,,,,,1249.3768,1249.3768,1249.3776,1250.1091,0,1,left,0.2246,,1250.1097,1252.2481,0,1,left,1252.249,1254.108,0,1,left,0,1254.108,1254.108,1254.1086,1255.6046,0,30,30,30,1,0.4,0.6,0.6,0.4,,,,,,,,,,,,,,,1.6295,,0.8,0.2,0.2,0.8,0.6,0.4,0.4,0.6,,,1.3476,,0.4,0.6,0.8,0.2,0.2,0.8,0.8,0.2,1,0
,,65f5877e1c411d371249dd22,66fcb8a792cbf93eb2161534,2024-10-02_08h38.04.208,mdp,2024.2.1,Win32,166.6666667,66fa4ebf79326e780c390304,,,,,,,,,,,,,,,,,,,,,1255.605,1255.605,1255.6057,1256.4473,0,1,left,0.3356,,1256.4479,1257.5253,0,1,left,1257.5261,1258.7369,0,1,left,0,1258.737,1258.737,1258.7375,1260.2337,0,31,31,31,1,0.4,0.6,0.6,0.4,,,,,,,,,,,,,,,0.571,,0.8,0.2,0.2,0.8,0.2,0.8,0.8,0.2,,,0.7044,,0.4,0.6,0.8,0.2,0.2,0.8,0.8,0.2,1,0
,,65f5877e1c411d371249dd22,66fcb8a792cbf93eb2161534,2024-10-02_08h38.04.208,mdp,2024.2.1,Win32,166.6666667,66fa4ebf79326e780c390304,,,,,,,,,,,,,,,,,,,,,1260.2342,1260.2342,1260.2352,1261.2456,0,1,left,0.5027,,1261.2462,1262.2032,0,0,left,1262.2039,1263.5721,0,0,left,1,1263.5722,1263.5722,1263.5728,1265.0688,0,32,32,32,1,0.4,0.6,0.6,0.4,,,,,,,,,,,,,,,0.4499,,0.8,0.2,0.2,0.8,0.2,0.8,0.8,0.2,,,0.8593,,0.4,0.6,0.8,0.2,0.2,0.8,0.8,0.2,1,0
,,65f5877e1c411d371249dd22,66fcb8a792cbf93eb2161534,2024-10-02_08h38.04.208,mdp,2024.2.1,Win32,166.6666667,66fa4ebf79326e780c390304,,,,,,,,,,,,,,,,,,,,,1265.0691,1265.0691,1265.0698,1266.1958,0,0,left,0.6182,,1266.1964,1267.4923,0,0,left,1267.493,1268.8797,0,0,left,1,1268.8797,1268.8798,1268.8803,1270.3762,0,33,33,33,1,0.4,0.6,0.6,0.4,,,,,,,,,,,,,,,0.7852,,0.8,0.2,0.2,0.8,0.2,0.8,0.8,0.2,,,0.8787,,0.4,0.6,0.8,0.2,0.2,0.8,0.8,0.2,1,0
,,65f5877e1c411d371249dd22,66fcb8a792cbf93eb2161534,2024-10-02_08h38.04.208,mdp,2024.2.1,Win32,166.6666667,66fa4ebf79326e780c390304,,,,,,,,,,,,,,,,,,,,,1270.3766,1270.3766,1270.3773,1271.4971,0,1,left,0.6128,,1271.4976,1272.6727,0,1,left,1272.6734,1274.8659,0,1,left,0,1274.866,1274.866,1274.8667,1276.3624,0,34,34,34,1,0.4,0.6,0.6,0.4,,,,,,,,,,,,,,,0.6641,,0.8,0.2,0.2,0.8,0.2,0.8,0.8,0.2,,,1.6817,,0.4,0.6,0.8,0.2,0.2,0.8,0.8,0.2,1,0
,,65f5877e1c411d371249dd22,66fcb8a792cbf93eb2161534,2024-10-02_08h38.04.208,mdp,2024.2.1,Win32,166.6666667,66fa4ebf79326e780c390304,,,,,,,,,,,,,,,,,,,,,1276.3628,1276.3628,1276.3635,1277.2056,0,1,left,0.3363,,1277.2061,1278.1805,0,0,left,1278.1814,1279.3557,1,0,right,1,1279.3558,1279.3558,1279.3567,1280.8521,0,35,35,35,1,0.4,0.6,0.6,0.4,,,,,,,,,,,,,,,0.4668,,0.8,0.2,0.2,0.8,0.2,0.8,0.8,0.2,,,0.6648,,0.4,0.6,0.8,0.2,0.2,0.8,0.8,0.2,1,0
,,65f5877e1c411d371249dd22,66fcb8a792cbf93eb2161534,2024-10-02_08h38.04.208,mdp,2024.2.1,Win32,166.6666667,66fa4ebf79326e780c390304,,,,,,,,,,,,,,,,,,,,,1280.8527,1280.8527,1280.8539,1281.956,0,1,left,0.5967,,1281.9565,1283.4815,0,1,left,1283.4824,1284.4996,1,1,right,0,1284.4996,1284.4996,1284.5003,1285.9962,0,36,36,36,1,0.4,0.6,0.6,0.4,,,,,,,,,,,,,,,1.0193,,0.8,0.2,0.2,0.8,0.2,0.8,0.8,0.2,,,0.5061,,0.4,0.6,0.8,0.2,0.2,0.8,0.8,0.2,1,0
,,65f5877e1c411d371249dd22,66fcb8a792cbf93eb2161534,2024-10-02_08h38.04.208,mdp,2024.2.1,Win32,166.6666667,66fa4ebf79326e780c390304,,,,,,,,,,,,,,,,,,,,,1285.9965,1285.9965,1285.9972,1286.9776,0,1,left,0.4746,,1286.9786,1288.0383,0,1,left,1288.0395,1289.2863,0,0,left,1,1289.2863,1289.2863,1289.2869,1290.7827,0,37,37,37,1,0.4,0.6,0.6,0.4,,,,,,,,,,,,,,,0.5533,,0.8,0.2,0.2,0.8,0.2,0.8,0.8,0.2,,,0.7398,,0.4,0.6,0.8,0.2,0.2,0.8,0.8,0.2,1,0
,,65f5877e1c411d371249dd22,66fcb8a792cbf93eb2161534,2024-10-02_08h38.04.208,mdp,2024.2.1,Win32,166.6666667,66fa4ebf79326e780c390304,,,,,,,,,,,,,,,,,,,,,1290.7832,1290.7832,1290.7843,1291.7704,0,1,left,0.4778,,1291.7712,1292.8794,0,1,left,1292.8801,1294.0909,0,1,left,0,1294.0909,1294.0909,1294.0917,1295.5875,0,38,38,38,1,0.4,0.6,0.6,0.4,,,,,,,,,,,,,,,0.5991,,0.8,0.2,0.2,0.8,0.2,0.8,0.8,0.2,,,0.704,,0.4,0.6,0.8,0.2,0.2,0.8,0.8,0.2,1,0
,,65f5877e1c411d371249dd22,66fcb8a792cbf93eb2161534,2024-10-02_08h38.04.208,mdp,2024.2.1,Win32,166.6666667,66fa4ebf79326e780c390304,,,,,,,,,,,,,,,,,,,,,1295.588,1295.588,1295.5888,1296.7144,0,0,left,0.6184,,1296.7151,1299.126,0,1,left,1299.1269,1300.7982,1,1,right,0,1300.7982,1300.7982,1300.7989,1302.2948,0,39,39,39,1,0.4,0.6,0.6,0.4,,,,,,,,,,,,,,,1.9009,,0.8,0.2,0.2,0.8,0.2,0.8,0.8,0.2,,,1.1637,,0.4,0.6,0.8,0.2,0.2,0.8,0.8,0.2,1,0
,,65f5877e1c411d371249dd22,66fcb8a792cbf93eb2161534,2024-10-02_08h38.04.208,mdp,2024.2.1,Win32,166.6666667,66fa4ebf79326e780c390304,,,,,,,,,,,,,,,,,,,,,1302.2956,1302.2956,1302.2963,1303.1369,0,0,left,0.3325,,1303.1377,1304.2275,0,0,left,1304.2284,1305.4515,0,1,left,0,1305.4515,1305.4516,1305.4524,1306.9478,0,40,40,40,1,0.4,0.6,0.6,0.4,,,,,,,,,,,,,,,0.5818,,0.8,0.2,0.2,0.8,0.2,0.8,0.8,0.2,,,0.7114,,0.4,0.6,0.8,0.2,0.2,0.8,0.8,0.2,1,0
,,65f5877e1c411d371249dd22,66fcb8a792cbf93eb2161534,2024-10-02_08h38.04.208,mdp,2024.2.1,Win32,166.6666667,66fa4ebf79326e780c390304,,,,,,,,,,,,,,,,,,,,,1306.9481,1306.9481,1306.9486,1307.881,0,1,left,0.425,,1307.882,1308.8807,0,1,left,1308.8812,1310.5164,1,0,right,1,1310.5164,1310.5164,1310.5172,1312.0133,0,41,41,41,1,0.4,0.6,0.6,0.4,,,,,,,,,,,,,,,0.49,,0.8,0.2,0.2,0.8,0.2,0.8,0.8,0.2,,,1.1249,,0.4,0.6,0.8,0.2,0.2,0.8,0.8,0.2,1,0
,,65f5877e1c411d371249dd22,66fcb8a792cbf93eb2161534,2024-10-02_08h38.04.208,mdp,2024.2.1,Win32,166.6666667,66fa4ebf79326e780c390304,,,,,,,,,,,,,,,,,,,,,1312.0137,1312.0137,1312.0142,1313.0493,0,1,left,0.5279,,1313.0501,1314.1337,0,1,left,1314.1345,1321.1682,1,1,right,0,1321.1684,1321.1684,1321.1691,1322.6648,0,42,42,42,1,0.4,0.6,0.6,0.4,,,,,,,,,,,,,,,0.5752,,0.8,0.2,0.2,0.8,0.2,0.8,0.8,0.2,,,6.5248,,0.4,0.6,0.8,0.2,0.4,0.6,0.2,0.8,1,0
,,65f5877e1c411d371249dd22,66fcb8a792cbf93eb2161534,2024-10-02_08h38.04.208,mdp,2024.2.1,Win32,166.6666667,66fa4ebf79326e780c390304,,,,,,,,,,,,,,,,,,,,,1322.6651,1322.6651,1322.6655,1324.1793,0,0,left,1.0059,,1324.1801,1325.3245,0,0,left,1325.3253,1326.4695,0,1,left,0,1326.4695,1326.4695,1326.4703,1327.9663,0,43,43,43,1,0.4,0.6,0.6,0.4,,,,,,,,,,,,,,,0.6335,,0.8,0.2,0.2,0.8,0.2,0.8,0.8,0.2,,,0.6338,,0.4,0.6,0.8,0.2,0.4,0.6,0.2,0.8,1,0
,,65f5877e1c411d371249dd22,66fcb8a792cbf93eb2161534,2024-10-02_08h38.04.208,mdp,2024.2.1,Win32,166.6666667,66fa4ebf79326e780c390304,,,,,,,,,,,,,,,,,,,,,1327.9667,1327.9667,1327.9673,1328.6691,0,0,left,0.1944,,1328.6699,1329.4444,0,0,left,1329.4451,1330.3897,1,0,right,1,1330.3897,1330.3897,1330.3904,1331.8864,0,44,44,44,1,0.4,0.6,0.6,0.4,,,,,,,,,,,,,,,0.2684,,0.8,0.2,0.2,0.8,0.2,0.8,0.8,0.2,,,0.436,,0.4,0.6,0.8,0.2,0.4,0.6,0.2,0.8,1,0
,,65f5877e1c411d371249dd22,66fcb8a792cbf93eb2161534,2024-10-02_08h38.04.208,mdp,2024.2.1,Win32,166.6666667,66fa4ebf79326e780c390304,,,,,,,,,,,,,,,,,,,,,1331.8868,1331.8868,1331.8876,1332.6374,0,1,left,0.2407,,1332.6384,1333.7341,0,1,left,1333.7347,1334.7397,0,1,left,0,1334.7398,1334.7398,1334.7403,1336.2365,0,45,45,45,1,0.4,0.6,0.6,0.4,,,,,,,,,,,,,,,0.5869,,0.8,0.2,0.2,0.8,0.2,0.8,0.8,0.2,,,0.4962,,0.4,0.6,0.8,0.2,0.4,0.6,0.2,0.8,1,0
,,65f5877e1c411d371249dd22,66fcb8a792cbf93eb2161534,2024-10-02_08h38.04.208,mdp,2024.2.1,Win32,166.6666667,66fa4ebf79326e780c390304,,,,,,,,,,,,,,,,,,,,,1336.2369,1336.2369,1336.2376,1337.2424,0,1,left,0.4956,,1337.2434,1338.157,0,1,left,1338.1578,1339.145,0,1,left,0,1339.145,1339.1451,1339.1459,1340.6413,0,46,46,46,1,0.4,0.6,0.6,0.4,,,,,,,,,,,,,,,0.4047,,0.8,0.2,0.2,0.8,0.2,0.8,0.8,0.2,,,0.4795,,0.4,0.6,0.8,0.2,0.4,0.6,0.2,0.8,1,0
,,65f5877e1c411d371249dd22,66fcb8a792cbf93eb2161534,2024-10-02_08h38.04.208,mdp,2024.2.1,Win32,166.6666667,66fa4ebf79326e780c390304,,,,,,,,,,,,,,,,,,,,,1340.6418,1340.6418,1340.6427,1341.4533,0,0,left,0.3034,,1341.4541,1342.338,0,0,left,1342.3389,1343.0954,0,1,left,0,1343.0955,1343.0955,1343.0961,1344.5919,0,47,47,47,1,0.4,0.6,0.6,0.4,,,,,,,,,,,,,,,0.3727,,0.8,0.2,0.2,0.8,0.2,0.8,0.8,0.2,,,0.2464,,0.4,0.6,0.8,0.2,0.4,0.6,0.2,0.8,1,0
,,65f5877e1c411d371249dd22,66fcb8a792cbf93eb2161534,2024-10-02_08h38.04.208,mdp,2024.2.1,Win32,166.6666667,66fa4ebf79326e780c390304,,,,,,,,,,,,,,,,,,,,,1344.5922,1344.5922,1344.593,1345.5006,0,0,left,0.3996,,1345.5014,1346.2522,0,0,left,1346.2531,1347.0214,0,1,left,0,1347.0214,1347.0214,1347.022,1348.518,0,48,48,48,1,0.4,0.6,0.6,0.4,,,,,,,,,,,,,,,0.2438,,0.8,0.2,0.2,0.8,0.2,0.8,0.8,0.2,,,0.2599,,0.4,0.6,0.8,0.2,0.8,0.2,0.6,0.4,1,0
,,65f5877e1c411d371249dd22,66fcb8a792cbf93eb2161534,2024-10-02_08h38.04.208,mdp,2024.2.1,Win32,166.6666667,66fa4ebf79326e780c390304,,,,,,,,,,,,,,,,,,,,,1348.5185,1348.5185,1348.5196,1349.1367,0,0,left,0.1097,,1349.1373,1349.7966,0,0,left,1349.7973,1350.7235,0,1,left,0,1350.7235,1350.7235,1350.7243,1352.2199,0,49,49,49,1,0.4,0.6,0.6,0.4,,,,,,,,,,,,,,,0.1503,,0.8,0.2,0.2,0.8,0.2,0.8,0.8,0.2,,,0.4165,,0.4,0.6,0.8,0.2,0.8,0.2,0.6,0.4,1,0
,,65f5877e1c411d371249dd22,66fcb8a792cbf93eb2161534,2024-10-02_08h38.04.208,mdp,2024.2.1,Win32,166.6666667,66fa4ebf79326e780c390304,,,,,,,,,,,,,,,,,,,,,,,,,,,,,,,,,,,,,,,,,,,,,,,,,,,,,,,,1352.2202,1410.7294,0,3,3,4,1,imgs/dog.png,imgs/cat.png,imgs/kangaroo.png,imgs/bear.png,imgs/pig.png,,,,,,,,,,,,,,,,,,,,,,,,
,,65f5877e1c411d371249dd22,66fcb8a792cbf93eb2161534,2024-10-02_08h38.04.208,mdp,2024.2.1,Win32,166.6666667,66fa4ebf79326e780c390304,,,,,,,,,,,,,,1,seqs/st1seq3.csv,1410.7304,1417.4446,space,6.2044,,1417.4471,1417.4471,1417.4475,1419.7887,1,0,right,1.8244,,1419.7895,1419.7901,0,0,,1419.7907,1419.791,0,0,,1,1419.791,1419.791,1419.7913,1421.2915,0,0,0,0,1,0.6,0.4,0.6,0.4,1,0,,,,,,,,,,,,,,,,,,,,,,,,,,,,,,,,,,,,
,,65f5877e1c411d371249dd22,66fcb8a792cbf93eb2161534,2024-10-02_08h38.04.208,mdp,2024.2.1,Win32,166.6666667,66fa4ebf79326e780c390304,,,,,,,,,,,,,,,,,,,,,1421.2919,1421.2919,1421.2931,1423.0972,1,1,right,1.2969,,1423.0981,1423.0989,0,1,,1423.0995,1423.0997,0,0,,0,1423.0998,1423.0998,1423.1,1424.5995,0,1,1,1,1,0.6,0.4,0.6,0.4,1,0,,,,,,,,,,,,,,,,,,,,,,,,,,,,,,,,,,,,
,,65f5877e1c411d371249dd22,66fcb8a792cbf93eb2161534,2024-10-02_08h38.04.208,mdp,2024.2.1,Win32,166.6666667,66fa4ebf79326e780c390304,,,,,,,,,,,,,,,,,,,,,1424.5998,1424.5998,1424.6007,1426.5023,1,0,right,1.3944,,1426.5031,1426.5038,0,0,,1426.5044,1426.5047,0,0,,1,1426.5047,1426.5047,1426.5051,1428.005,0,2,2,2,1,0.6,0.4,0.6,0.4,1,0,,,,,,,,,,,,,,,,,,,,,,,,,,,,,,,,,,,,
,,65f5877e1c411d371249dd22,66fcb8a792cbf93eb2161534,2024-10-02_08h38.04.208,mdp,2024.2.1,Win32,166.6666667,66fa4ebf79326e780c390304,,,,,,,,,,,,,,,,,,,,,1428.0054,1428.0054,1428.0065,1429.3496,0,1,left,0.8359,,1429.3504,1429.351,0,0,,1429.3514,1429.3516,0,1,,0,1429.3516,1429.3516,1429.3519,1430.852,0,3,3,3,1,0.6,0.4,0.6,0.4,1,0,,,,,,,,,,,,,,,,,,,,,,,,,,,,,,,,,,,,
,,65f5877e1c411d371249dd22,66fcb8a792cbf93eb2161534,2024-10-02_08h38.04.208,mdp,2024.2.1,Win32,166.6666667,66fa4ebf79326e780c390304,,,,,,,,,,,,,,,,,,,,,1430.8523,1430.8523,1430.8527,1432.0217,0,0,left,0.6608,,1432.0224,1432.0229,0,0,,1432.0233,1432.0237,0,1,,1,1432.0238,1432.0238,1432.0241,1433.5243,0,4,4,4,1,0.6,0.4,0.6,0.4,1,0,,,,,,,,,,,,,,,,,,,,,,,,,,,,,,,,,,,,
,,65f5877e1c411d371249dd22,66fcb8a792cbf93eb2161534,2024-10-02_08h38.04.208,mdp,2024.2.1,Win32,166.6666667,66fa4ebf79326e780c390304,,,,,,,,,,,,,,,,,,,,,1433.5246,1433.5246,1433.5256,1435.2633,1,1,right,1.2294,,1435.2638,1435.2643,0,1,,1435.2647,1435.2648,0,1,,0,1435.2648,1435.2648,1435.265,1436.7657,0,5,5,5,1,0.8,0.2,0.2,0.8,1,0,,,,,,,,,,,,,,,,,,,,,,,,,,,,,,,,,,,,
,,65f5877e1c411d371249dd22,66fcb8a792cbf93eb2161534,2024-10-02_08h38.04.208,mdp,2024.2.1,Win32,166.6666667,66fa4ebf79326e780c390304,,,,,,,,,,,,,,,,,,,,,1436.766,1436.766,1436.7669,1437.7902,0,0,left,0.5154,,1437.7915,1437.7924,0,1,,1437.7929,1437.7933,0,0,,1,1437.7933,1437.7934,1437.7937,1439.2911,0,6,6,6,1,0.8,0.2,0.2,0.8,1,0,,,,,,,,,,,,,,,,,,,,,,,,,,,,,,,,,,,,
,,65f5877e1c411d371249dd22,66fcb8a792cbf93eb2161534,2024-10-02_08h38.04.208,mdp,2024.2.1,Win32,166.6666667,66fa4ebf79326e780c390304,,,,,,,,,,,,,,,,,,,,,1439.2914,1439.2914,1439.2922,1440.68,1,1,right,0.8784,,1440.6811,1440.6815,0,1,,1440.6817,1440.6819,0,1,,0,1440.6819,1440.682,1440.6821,1442.181,0,7,7,7,1,0.8,0.2,0.2,0.8,1,0,,,,,,,,,,,,,,,,,,,,,,,,,,,,,,,,,,,,
,,65f5877e1c411d371249dd22,66fcb8a792cbf93eb2161534,2024-10-02_08h38.04.208,mdp,2024.2.1,Win32,166.6666667,66fa4ebf79326e780c390304,,,,,,,,,,,,,,,,,,,,,1442.1813,1442.1813,1442.1819,1443.3759,1,1,right,0.6837,,1443.3766,1443.3772,0,1,,1443.3776,1443.3779,0,1,,0,1443.3779,1443.3779,1443.3783,1444.8787,0,8,8,8,1,0.8,0.2,0.2,0.8,1,0,,,,,,,,,,,,,,,,,,,,,,,,,,,,,,,,,,,,
,,65f5877e1c411d371249dd22,66fcb8a792cbf93eb2161534,2024-10-02_08h38.04.208,mdp,2024.2.1,Win32,166.6666667,66fa4ebf79326e780c390304,,,,,,,,,,,,,,,,,,,,,1444.8791,1444.8791,1444.88,1445.9149,1,0,right,0.5276,,1445.916,1445.9166,0,0,,1445.9173,1445.9176,0,1,,1,1445.9176,1445.9176,1445.9181,1447.4162,0,9,9,9,1,0.8,0.2,0.2,0.8,1,0,,,,,,,,,,,,,,,,,,,,,,,,,,,,,,,,,,,,
,,65f5877e1c411d371249dd22,66fcb8a792cbf93eb2161534,2024-10-02_08h38.04.208,mdp,2024.2.1,Win32,166.6666667,66fa4ebf79326e780c390304,,,,,,,,,,,,,,,,,,,,,1447.4165,1447.4165,1447.4175,1449.8104,0,0,left,1.8848,,1449.8111,1449.8116,0,0,,1449.812,1449.8123,0,0,,1,1449.8123,1449.8123,1449.8125,1451.313,0,10,10,10,1,0.8,0.2,0.2,0.8,1,0,,,,,,,,,,,,,,,,,,,,,,,,,,,,,,,,,,,,
,,65f5877e1c411d371249dd22,66fcb8a792cbf93eb2161534,2024-10-02_08h38.04.208,mdp,2024.2.1,Win32,166.6666667,66fa4ebf79326e780c390304,,,,,,,,,,,,,,,,,,,,,1451.3133,1451.3133,1451.3138,1452.6769,0,0,left,0.8547,,1452.678,1452.6788,0,0,,1452.6793,1452.6798,0,1,,1,1452.6798,1452.6798,1452.6801,1454.1791,0,11,11,11,1,0.8,0.2,0.2,0.8,1,0,,,,,,,,,,,,,,,,,,,,,,,,,,,,,,,,,,,,
,,65f5877e1c411d371249dd22,66fcb8a792cbf93eb2161534,2024-10-02_08h38.04.208,mdp,2024.2.1,Win32,166.6666667,66fa4ebf79326e780c390304,,,,,,,,,,,,,,,,,,,,,1454.1794,1454.1794,1454.1805,1455.4091,0,1,left,0.7219,,1455.4099,1455.4104,0,1,,1455.4108,1455.4113,0,1,,0,1455.4113,1455.4113,1455.4115,1456.9117,0,12,12,12,1,0.4,0.6,0.8,0.2,1,0,,,,,,,,,,,,,,,,,,,,,,,,,,,,,,,,,,,,
,,65f5877e1c411d371249dd22,66fcb8a792cbf93eb2161534,2024-10-02_08h38.04.208,mdp,2024.2.1,Win32,166.6666667,66fa4ebf79326e780c390304,,,,,,,,,,,,,,,,,,,,,1456.9119,1456.9119,1456.9127,1458.2813,0,0,left,0.8607,,1458.2826,1458.2832,0,1,,1458.2836,1458.2838,0,1,,1,1458.2839,1458.2839,1458.2842,1459.7837,0,13,13,13,1,0.4,0.6,0.8,0.2,1,0,,,,,,,,,,,,,,,,,,,,,,,,,,,,,,,,,,,,
,,65f5877e1c411d371249dd22,66fcb8a792cbf93eb2161534,2024-10-02_08h38.04.208,mdp,2024.2.1,Win32,166.6666667,66fa4ebf79326e780c390304,,,,,,,,,,,,,,,,,,,,,1459.784,1459.784,1459.785,1461.0317,0,1,left,0.74,,1461.0326,1461.0334,0,0,,1461.0339,1461.0341,0,0,,0,1461.0342,1461.0342,1461.0344,1462.5344,0,14,14,14,1,0.4,0.6,0.8,0.2,1,0,,,,,,,,,,,,,,,,,,,,,,,,,,,,,,,,,,,,
,,65f5877e1c411d371249dd22,66fcb8a792cbf93eb2161534,2024-10-02_08h38.04.208,mdp,2024.2.1,Win32,166.6666667,66fa4ebf79326e780c390304,,,,,,,,,,,,,,,,,,,,,1462.5346,1462.5346,1462.5355,1464.1523,0,1,left,1.1091,,1464.1531,1464.1538,0,0,,1464.1543,1464.1545,0,1,,0,1464.1545,1464.1545,1464.1548,1465.6551,0,15,15,15,1,0.6,0.4,0.2,0.8,1,0,,,,,,,,,,,,,,,,,,,,,,,,,,,,,,,,,,,,
,,65f5877e1c411d371249dd22,66fcb8a792cbf93eb2161534,2024-10-02_08h38.04.208,mdp,2024.2.1,Win32,166.6666667,66fa4ebf79326e780c390304,,,,,,,,,,,,,,,,,,,,,1465.6556,1465.6556,1465.6565,1466.7999,1,1,right,0.636,,1466.8005,1466.801,0,1,,1466.8014,1466.8019,0,1,,0,1466.8019,1466.8019,1466.8021,1468.3026,0,16,16,16,1,0.6,0.4,0.2,0.8,1,0,,,,,,,,,,,,,,,,,,,,,,,,,,,,,,,,,,,,
,,65f5877e1c411d371249dd22,66fcb8a792cbf93eb2161534,2024-10-02_08h38.04.208,mdp,2024.2.1,Win32,166.6666667,66fa4ebf79326e780c390304,,,,,,,,,,,,,,,,,,,,,1468.3029,1468.3029,1468.304,1469.1385,1,1,right,0.3274,,1469.1393,1469.1399,0,1,,1469.1404,1469.1407,0,0,,0,1469.1407,1469.1407,1469.1409,1470.6412,0,17,17,17,1,0.6,0.4,0.2,0.8,1,0,,,,,,,,,,,,,,,,,,,,,,,,,,,,,,,,,,,,
,,65f5877e1c411d371249dd22,66fcb8a792cbf93eb2161534,2024-10-02_08h38.04.208,mdp,2024.2.1,Win32,166.6666667,66fa4ebf79326e780c390304,,,,,,,,,,,,,,,,,,,,,1470.6415,1470.6415,1470.6424,1471.6171,1,1,right,0.4677,,1471.6182,1471.6188,0,1,,1471.6191,1471.6193,0,1,,0,1471.6193,1471.6193,1471.6196,1473.1178,0,18,18,18,1,0.6,0.4,0.2,0.8,1,0,,,,,,,,,,,,,,,,,,,,,,,,,,,,,,,,,,,,
,,65f5877e1c411d371249dd22,66fcb8a792cbf93eb2161534,2024-10-02_08h38.04.208,mdp,2024.2.1,Win32,166.6666667,66fa4ebf79326e780c390304,,,,,,,,,,,,,,,,,,,,,1473.1182,1473.1182,1473.1189,1474.0461,1,1,right,0.4185,,1474.0466,1474.0471,0,0,,1474.0475,1474.0478,0,0,,0,1474.0478,1474.0478,1474.048,1475.5489,0,19,19,19,1,0.6,0.4,0.2,0.8,1,0,,,,,,,,,,,,,,,,,,,,,,,,,,,,,,,,,,,,
,,65f5877e1c411d371249dd22,66fcb8a792cbf93eb2161534,2024-10-02_08h38.04.208,mdp,2024.2.1,Win32,166.6666667,66fa4ebf79326e780c390304,,,,,,,,,,,,,,,,,,,,,1475.5492,1475.5492,1475.5505,1476.8574,1,1,right,0.7998,,1476.858,1476.8586,0,1,,1476.859,1476.8593,0,1,,0,1476.8593,1476.8593,1476.8595,1478.3602,0,20,20,20,1,0.6,0.4,0.2,0.8,1,0,,,,,,,,,,,,,,,,,,,,,,,,,,,,,,,,,,,,
,,65f5877e1c411d371249dd22,66fcb8a792cbf93eb2161534,2024-10-02_08h38.04.208,mdp,2024.2.1,Win32,166.6666667,66fa4ebf79326e780c390304,,,,,,,,,,,,,,,,,,,,,1478.3605,1478.3605,1478.3616,1479.6146,1,1,right,0.746,,1479.6154,1479.6159,0,1,,1479.6164,1479.6167,0,1,,0,1479.6168,1479.6168,1479.617,1481.117,0,21,21,21,1,0.6,0.4,0.2,0.8,1,0,,,,,,,,,,,,,,,,,,,,,,,,,,,,,,,,,,,,
,,65f5877e1c411d371249dd22,66fcb8a792cbf93eb2161534,2024-10-02_08h38.04.208,mdp,2024.2.1,Win32,166.6666667,66fa4ebf79326e780c390304,,,,,,,,,,,,,,,,,,,,,1481.1172,1481.1172,1481.118,1482.7224,1,0,right,1.0967,,1482.7232,1482.7239,0,0,,1482.7242,1482.7245,0,1,,1,1482.7245,1482.7245,1482.7248,1484.2254,0,22,22,22,1,0.6,0.4,0.2,0.8,1,0,,,,,,,,,,,,,,,,,,,,,,,,,,,,,,,,,,,,
,,65f5877e1c411d371249dd22,66fcb8a792cbf93eb2161534,2024-10-02_08h38.04.208,mdp,2024.2.1,Win32,166.6666667,66fa4ebf79326e780c390304,,,,,,,,,,,,,,,,,,,,,1484.2256,1484.2256,1484.2267,1485.7223,1,1,right,0.9886,,1485.7234,1485.7239,0,1,,1485.7244,1485.7247,0,0,,0,1485.7247,1485.7247,1485.7251,1487.223,0,23,23,23,1,0.6,0.4,0.2,0.8,1,0,,,,,,,,,,,,,,,,,,,,,,,,,,,,,,,,,,,,
,,65f5877e1c411d371249dd22,66fcb8a792cbf93eb2161534,2024-10-02_08h38.04.208,mdp,2024.2.1,Win32,166.6666667,66fa4ebf79326e780c390304,,,,,,,,,,,,,,,,,,,,,1487.2232,1487.2232,1487.2238,1487.8475,0,0,left,0.1186,,1487.848,1487.8483,0,0,,1487.8487,1487.8489,0,0,,1,1487.8489,1487.8489,1487.8491,1489.3451,0,24,24,24,1,0.6,0.4,0.2,0.8,1,0,,,,,,,,,,,,,,,,,,,,,,,,,,,,,,,,,,,,
,,65f5877e1c411d371249dd22,66fcb8a792cbf93eb2161534,2024-10-02_08h38.04.208,mdp,2024.2.1,Win32,166.6666667,66fa4ebf79326e780c390304,,,,,,,,,,,,,,,,,,,,,1489.3453,1489.3453,1489.346,1490.1203,0,0,left,0.2674,,1490.1209,1490.1214,0,1,,1490.1219,1490.1222,0,0,,1,1490.1222,1490.1223,1490.1225,1491.6231,0,25,25,25,1,0.8,0.2,0.4,0.6,1,0,,,,,,,,,,,,,,,,,,,,,,,,,,,,,,,,,,,,
,,65f5877e1c411d371249dd22,66fcb8a792cbf93eb2161534,2024-10-02_08h38.04.208,mdp,2024.2.1,Win32,166.6666667,66fa4ebf79326e780c390304,,,,,,,,,,,,,,,,,,,,,1491.6233,1491.6233,1491.6242,1492.4472,0,1,left,0.3145,,1492.4478,1492.4484,0,1,,1492.4488,1492.4491,0,0,,0,1492.4492,1492.4492,1492.4494,1493.95,0,26,26,26,1,0.8,0.2,0.4,0.6,1,0,,,,,,,,,,,,,,,,,,,,,,,,,,,,,,,,,,,,
,,65f5877e1c411d371249dd22,66fcb8a792cbf93eb2161534,2024-10-02_08h38.04.208,mdp,2024.2.1,Win32,166.6666667,66fa4ebf79326e780c390304,,,,,,,,,,,,,,,,,,,,,1493.9502,1493.9502,1493.9509,1494.7498,0,1,left,0.2918,,1494.7508,1494.7514,0,0,,1494.7519,1494.7521,0,1,,0,1494.7521,1494.7521,1494.7523,1496.2522,0,27,27,27,1,0.8,0.2,0.4,0.6,1,0,,,,,,,,,,,,,,,,,,,,,,,,,,,,,,,,,,,,
,,65f5877e1c411d371249dd22,66fcb8a792cbf93eb2161534,2024-10-02_08h38.04.208,mdp,2024.2.1,Win32,166.6666667,66fa4ebf79326e780c390304,,,,,,,,,,,,,,,,,,,,,1496.2524,1496.2524,1496.2532,1497.1122,0,0,left,0.3522,,1497.1127,1497.1133,0,1,,1497.1136,1497.1139,0,0,,1,1497.1139,1497.1139,1497.1141,1498.6149,0,28,28,28,1,0.8,0.2,0.4,0.6,1,0,,,,,,,,,,,,,,,,,,,,,,,,,,,,,,,,,,,,
,,65f5877e1c411d371249dd22,66fcb8a792cbf93eb2161534,2024-10-02_08h38.04.208,mdp,2024.2.1,Win32,166.6666667,66fa4ebf79326e780c390304,,,,,,,,,,,,,,,,,,,,,1498.6152,1498.6152,1498.6159,1499.5481,0,0,left,0.4246,,1499.5488,1499.5494,0,0,,1499.5498,1499.5501,0,0,,1,1499.5502,1499.5502,1499.5504,1501.0506,0,29,29,29,1,0.8,0.2,0.4,0.6,1,0,,,,,,,,,,,,,,,,,,,,,,,,,,,,,,,,,,,,
,,65f5877e1c411d371249dd22,66fcb8a792cbf93eb2161534,2024-10-02_08h38.04.208,mdp,2024.2.1,Win32,166.6666667,66fa4ebf79326e780c390304,,,,,,,,,,,,,,,,,,,,,1501.0509,1501.0509,1501.0516,1501.784,0,0,left,0.2244,,1501.7852,1501.7859,0,1,,1501.7861,1501.7864,0,1,,1,1501.7864,1501.7864,1501.7865,1503.2867,0,30,30,30,1,0.4,0.6,0.8,0.2,1,0,,,,,,,,,,,,,,,,,,,,,,,,,,,,,,,,,,,,
,,65f5877e1c411d371249dd22,66fcb8a792cbf93eb2161534,2024-10-02_08h38.04.208,mdp,2024.2.1,Win32,166.6666667,66fa4ebf79326e780c390304,,,,,,,,,,,,,,,,,,,,,1503.2868,1503.2869,1503.2877,1504.171,0,1,left,0.3766,,1504.1719,1504.1725,0,1,,1504.173,1504.1731,0,1,,0,1504.1731,1504.1731,1504.1733,1505.6737,0,31,31,31,1,0.4,0.6,0.8,0.2,1,0,,,,,,,,,,,,,,,,,,,,,,,,,,,,,,,,,,,,
,,65f5877e1c411d371249dd22,66fcb8a792cbf93eb2161534,2024-10-02_08h38.04.208,mdp,2024.2.1,Win32,166.6666667,66fa4ebf79326e780c390304,,,,,,,,,,,,,,,,,,,,,1505.6739,1505.6739,1505.6748,1506.4976,0,0,left,0.3156,,1506.4983,1506.4989,0,1,,1506.4993,1506.4997,0,0,,1,1506.4997,1506.4997,1506.5,1508.0004,0,32,32,32,1,0.4,0.6,0.8,0.2,1,0,,,,,,,,,,,,,,,,,,,,,,,,,,,,,,,,,,,,
,,65f5877e1c411d371249dd22,66fcb8a792cbf93eb2161534,2024-10-02_08h38.04.208,mdp,2024.2.1,Win32,166.6666667,66fa4ebf79326e780c390304,,,,,,,,,,,,,,,,,,,,,1508.0008,1508.0008,1508.0016,1509.1027,0,0,left,0.594,,1509.1033,1509.1036,0,0,,1509.104,1509.1044,0,1,,1,1509.1044,1509.1044,1509.1047,1510.6058,0,33,33,33,1,0.4,0.6,0.8,0.2,1,0,,,,,,,,,,,,,,,,,,,,,,,,,,,,,,,,,,,,
,,65f5877e1c411d371249dd22,66fcb8a792cbf93eb2161534,2024-10-02_08h38.04.208,mdp,2024.2.1,Win32,166.6666667,66fa4ebf79326e780c390304,,,,,,,,,,,,,,,,,,,,,1510.606,1510.6061,1510.6067,1511.684,0,1,left,0.5697,,1511.6846,1511.6852,0,0,,1511.6857,1511.686,0,0,,0,1511.686,1511.686,1511.6863,1513.1864,0,34,34,34,1,0.4,0.6,0.8,0.2,1,0,,,,,,,,,,,,,,,,,,,,,,,,,,,,,,,,,,,,
,,65f5877e1c411d371249dd22,66fcb8a792cbf93eb2161534,2024-10-02_08h38.04.208,mdp,2024.2.1,Win32,166.6666667,66fa4ebf79326e780c390304,,,,,,,,,,,,,,,,,,,,,1513.1867,1513.1868,1513.1873,1513.9683,0,1,left,0.273,,1513.9688,1513.9692,0,1,,1513.9696,1513.9699,0,0,,0,1513.9699,1513.9699,1513.9702,1515.4711,0,35,35,35,1,0.4,0.6,0.8,0.2,1,0,,,,,,,,,,,,,,,,,,,,,,,,,,,,,,,,,,,,
,,65f5877e1c411d371249dd22,66fcb8a792cbf93eb2161534,2024-10-02_08h38.04.208,mdp,2024.2.1,Win32,166.6666667,66fa4ebf79326e780c390304,,,,,,,,,,,,,,,,,,,,,1515.4714,1515.4714,1515.472,1516.5008,1,0,right,0.5214,,1516.5014,1516.5021,0,0,,1516.5026,1516.5031,0,0,,1,1516.5031,1516.5031,1516.5033,1518.0037,0,36,36,36,1,0.4,0.6,0.8,0.2,1,0,,,,,,,,,,,,,,,,,,,,,,,,,,,,,,,,,,,,
,,65f5877e1c411d371249dd22,66fcb8a792cbf93eb2161534,2024-10-02_08h38.04.208,mdp,2024.2.1,Win32,166.6666667,66fa4ebf79326e780c390304,,,,,,,,,,,,,,,,,,,,,1518.004,1518.004,1518.0049,1519.0946,1,0,right,0.5823,,1519.0957,1519.0963,0,0,,1519.0968,1519.0972,0,0,,1,1519.0972,1519.0973,1519.0976,1520.597,0,37,37,37,1,0.4,0.6,0.8,0.2,1,0,,,,,,,,,,,,,,,,,,,,,,,,,,,,,,,,,,,,
,,65f5877e1c411d371249dd22,66fcb8a792cbf93eb2161534,2024-10-02_08h38.04.208,mdp,2024.2.1,Win32,166.6666667,66fa4ebf79326e780c390304,,,,,,,,,,,,,,,,,,,,,1520.5974,1520.5974,1520.5983,1521.7237,1,0,right,0.6181,,1521.7246,1521.7251,0,0,,1521.7255,1521.7256,0,0,,1,1521.7256,1521.7256,1521.7259,1523.2266,0,38,38,38,1,0.4,0.6,0.8,0.2,1,0,,,,,,,,,,,,,,,,,,,,,,,,,,,,,,,,,,,,
,,65f5877e1c411d371249dd22,66fcb8a792cbf93eb2161534,2024-10-02_08h38.04.208,mdp,2024.2.1,Win32,166.6666667,66fa4ebf79326e780c390304,,,,,,,,,,,,,,,,,,,,,1523.227,1523.227,1523.2279,1524.5777,1,0,right,0.8427,,1524.5787,1524.5792,0,0,,1524.5796,1524.5798,0,0,,1,1524.5798,1524.5798,1524.58,1526.0802,0,39,39,39,1,0.8,0.2,0.6,0.4,1,0,,,,,,,,,,,,,,,,,,,,,,,,,,,,,,,,,,,,
