init_exp.started,init_exp.stopped,participant,session,date,expName,psychopyVersion,OS,frameRate,study_id,disp_instruction.started,disp_instruction.stopped,instruction.thisRepN,instruction.thisTrialN,instruction.thisN,instruction.thisIndex,instruction.ran,instimg_path,consent.started,consent.stopped,key_resp_3.keys,key_resp_3.rt,key_resp_3.duration,n_steps,sequence_path,init_block.started,init_block.stopped,key_resp.keys,key_resp.rt,key_resp.duration,init_trials.started,init_trials.stopped,step0.started,step0.stopped,act0,s1,res0.keys,res0.rt,res0.duration,step1.started,step1.stopped,act1,s2,res1.keys,step2.started,step2.stopped,act2,s3,res2.keys,rew,reward_comp.started,reward_comp.stopped,reward_disp.started,reward_disp.stopped,trials.thisRepN,trials.thisTrialN,trials.thisN,trials.thisIndex,trials.ran,s00a0s10,s00a0s11,s00a1s10,s00a1s11,rew10,rew11,break_block.started,break_block.stopped,block.thisRepN,block.thisTrialN,block.thisN,block.thisIndex,block.ran,s00path,s10path,s11path,s20path,s21path,res1.rt,res1.duration,s10a0s20,s10a0s21,s10a1s20,s10a1s21,s11a0s20,s11a0s21,s11a1s20,s11a1s21,rew20,rew21,res2.rt,res2.duration,s20a0s30,s20a0s31,s20a1s30,s20a1s31,s21a0s30,s21a0s31,s21a1s30,s21a1s31,rew30,rew31
0.0005,0.0039,65fd910b6214e647ea9c6175,66fce1b157e3f6cf1e5b92db,2024-10-02_09h03.35.369,mdp,2024.2.1,Win32,40,66fa4ebf79326e780c390304,,,,,,,,,,,,,,,,,,,,,,,,,,,,,,,,,,,,,,,,,,,,,,,,,,,,,,,,,,,,,,,,,,,,,,,,,,,,,,,,,,,,,,,,,,,
,,65fd910b6214e647ea9c6175,66fce1b157e3f6cf1e5b92db,2024-10-02_09h03.35.369,mdp,2024.2.1,Win32,40,66fa4ebf79326e780c390304,0.0142,38.5582,0,0,0,0,1,rlnn_exp/rlnn_exp.001.png,,,,,,,,,,,,,,,,,,,,,,,,,,,,,,,,,,,,,,,,,,,,,,,,,,,,,,,,,,,,,,,,,,,,,,,,,,,,,,,,,,,
,,65fd910b6214e647ea9c6175,66fce1b157e3f6cf1e5b92db,2024-10-02_09h03.35.369,mdp,2024.2.1,Win32,40,66fa4ebf79326e780c390304,38.5595,58.925,0,1,1,1,1,rlnn_exp/rlnn_exp.002.png,,,,,,,,,,,,,,,,,,,,,,,,,,,,,,,,,,,,,,,,,,,,,,,,,,,,,,,,,,,,,,,,,,,,,,,,,,,,,,,,,,,
,,65fd910b6214e647ea9c6175,66fce1b157e3f6cf1e5b92db,2024-10-02_09h03.35.369,mdp,2024.2.1,Win32,40,66fa4ebf79326e780c390304,58.9263,124.6691,0,2,2,2,1,rlnn_exp/rlnn_exp.003.png,,,,,,,,,,,,,,,,,,,,,,,,,,,,,,,,,,,,,,,,,,,,,,,,,,,,,,,,,,,,,,,,,,,,,,,,,,,,,,,,,,,
,,65fd910b6214e647ea9c6175,66fce1b157e3f6cf1e5b92db,2024-10-02_09h03.35.369,mdp,2024.2.1,Win32,40,66fa4ebf79326e780c390304,124.6701,147.846,0,3,3,3,1,rlnn_exp/rlnn_exp.004.png,,,,,,,,,,,,,,,,,,,,,,,,,,,,,,,,,,,,,,,,,,,,,,,,,,,,,,,,,,,,,,,,,,,,,,,,,,,,,,,,,,,
,,65fd910b6214e647ea9c6175,66fce1b157e3f6cf1e5b92db,2024-10-02_09h03.35.369,mdp,2024.2.1,Win32,40,66fa4ebf79326e780c390304,,,,,,,,,147.8471,167.7625,y,9.8839,,,,,,,,,,,,,,,,,,,,,,,,,,,,,,,,,,,,,,,,,,,,,,,,,,,,,,,,,,,,,,,,,,,,,,,,,,,,,,,
,,65fd910b6214e647ea9c6175,66fce1b157e3f6cf1e5b92db,2024-10-02_09h03.35.369,mdp,2024.2.1,Win32,40,66fa4ebf79326e780c390304,,,,,,,,,,,,,,1,seqs/st1seq43.csv,167.7685,172.654,space,4.3412,,172.6588,172.659,172.6595,183.9166,1,0,right,10.7173,,183.9174,183.9199,,0,,183.9203,183.9217,,1,,1,183.9219,183.922,183.9224,185.4212,0,0,0,0,1,0.8,0.2,0.4,0.6,1,0,,,,,,,,,,,,,,,,,,,,,,,,,,,,,,,,,,,,
,,65fd910b6214e647ea9c6175,66fce1b157e3f6cf1e5b92db,2024-10-02_09h03.35.369,mdp,2024.2.1,Win32,40,66fa4ebf79326e780c390304,,,,,,,,,,,,,,,,,,,,,185.4221,185.4221,185.4235,193.3977,1,1,right,7.4565,,193.4001,193.4013,,0,,193.402,193.4026,,1,,0,193.4027,193.4027,193.4032,194.9028,0,1,1,1,1,0.8,0.2,0.4,0.6,1,0,,,,,,,,,,,,,,,,,,,,,,,,,,,,,,,,,,,,
,,65fd910b6214e647ea9c6175,66fce1b157e3f6cf1e5b92db,2024-10-02_09h03.35.369,mdp,2024.2.1,Win32,40,66fa4ebf79326e780c390304,,,,,,,,,,,,,,,,,,,,,194.904,194.9041,194.9072,197.1601,0,1,left,1.707,,197.1621,197.1637,,1,,197.1649,197.1659,,0,,0,197.166,197.1661,197.1671,198.665,0,2,2,2,1,0.8,0.2,0.4,0.6,1,0,,,,,,,,,,,,,,,,,,,,,,,,,,,,,,,,,,,,
,,65fd910b6214e647ea9c6175,66fce1b157e3f6cf1e5b92db,2024-10-02_09h03.35.369,mdp,2024.2.1,Win32,40,66fa4ebf79326e780c390304,,,,,,,,,,,,,,,,,,,,,198.6658,198.6658,198.6678,201.575,0,0,left,2.3818,,201.5767,201.5778,,0,,201.5786,201.5792,,0,,1,201.5792,201.5792,201.5798,203.0797,0,3,3,3,1,0.8,0.2,0.4,0.6,1,0,,,,,,,,,,,,,,,,,,,,,,,,,,,,,,,,,,,,
,,65fd910b6214e647ea9c6175,66fce1b157e3f6cf1e5b92db,2024-10-02_09h03.35.369,mdp,2024.2.1,Win32,40,66fa4ebf79326e780c390304,,,,,,,,,,,,,,,,,,,,,203.0804,203.0804,203.0825,206.3414,1,1,right,2.7485,,206.3442,206.3458,,1,,206.3471,206.3485,,1,,0,206.3486,206.3486,206.3497,207.8454,0,4,4,4,1,0.8,0.2,0.4,0.6,1,0,,,,,,,,,,,,,,,,,,,,,,,,,,,,,,,,,,,,
,,65fd910b6214e647ea9c6175,66fce1b157e3f6cf1e5b92db,2024-10-02_09h03.35.369,mdp,2024.2.1,Win32,40,66fa4ebf79326e780c390304,,,,,,,,,,,,,,,,,,,,,207.8462,207.8462,207.8483,212.7119,0,1,left,4.3398,,212.7137,212.7149,,0,,212.7157,212.7164,,1,,0,212.7164,212.7164,212.717,214.217,0,5,5,5,1,0.8,0.2,0.4,0.6,1,0,,,,,,,,,,,,,,,,,,,,,,,,,,,,,,,,,,,,
,,65fd910b6214e647ea9c6175,66fce1b157e3f6cf1e5b92db,2024-10-02_09h03.35.369,mdp,2024.2.1,Win32,40,66fa4ebf79326e780c390304,,,,,,,,,,,,,,,,,,,,,214.2177,214.2178,214.2193,216.5505,0,0,left,1.8114,,216.5531,216.5549,,0,,216.5563,216.5575,,0,,1,216.5576,216.5576,216.5586,218.0549,0,6,6,6,1,0.8,0.2,0.4,0.6,1,0,,,,,,,,,,,,,,,,,,,,,,,,,,,,,,,,,,,,
,,65fd910b6214e647ea9c6175,66fce1b157e3f6cf1e5b92db,2024-10-02_09h03.35.369,mdp,2024.2.1,Win32,40,66fa4ebf79326e780c390304,,,,,,,,,,,,,,,,,,,,,218.0562,218.0563,218.0593,221.2655,0,1,left,2.6833,,221.2679,221.2691,,0,,221.2698,221.2705,,0,,0,221.2705,221.2705,221.2713,222.7709,0,7,7,7,1,0.8,0.2,0.4,0.6,1,0,,,,,,,,,,,,,,,,,,,,,,,,,,,,,,,,,,,,
,,65fd910b6214e647ea9c6175,66fce1b157e3f6cf1e5b92db,2024-10-02_09h03.35.369,mdp,2024.2.1,Win32,40,66fa4ebf79326e780c390304,,,,,,,,,,,,,,,,,,,,,222.7724,222.7725,222.7748,225.8056,1,0,right,2.4893,,225.8072,225.8082,,1,,225.8094,225.81,,1,,1,225.81,225.8102,225.8107,227.3104,0,8,8,8,1,0.8,0.2,0.4,0.6,1,0,,,,,,,,,,,,,,,,,,,,,,,,,,,,,,,,,,,,
,,65fd910b6214e647ea9c6175,66fce1b157e3f6cf1e5b92db,2024-10-02_09h03.35.369,mdp,2024.2.1,Win32,40,66fa4ebf79326e780c390304,,,,,,,,,,,,,,,,,,,,,227.3111,227.3111,227.3129,230.1448,0,1,left,2.3277,,230.1465,230.1476,,0,,230.1484,230.1491,,1,,0,230.1491,230.1491,230.1497,231.6498,0,9,9,9,1,0.8,0.2,0.4,0.6,1,0,,,,,,,,,,,,,,,,,,,,,,,,,,,,,,,,,,,,
,,65fd910b6214e647ea9c6175,66fce1b157e3f6cf1e5b92db,2024-10-02_09h03.35.369,mdp,2024.2.1,Win32,40,66fa4ebf79326e780c390304,,,,,,,,,,,,,,,,,,,,,231.6504,231.6504,231.6526,235.2622,1,1,right,3.0864,,235.2638,235.2653,,1,,235.2663,235.2669,,1,,0,235.2669,235.2669,235.2675,236.7671,0,10,10,10,1,0.8,0.2,0.4,0.6,1,0,,,,,,,,,,,,,,,,,,,,,,,,,,,,,,,,,,,,
,,65fd910b6214e647ea9c6175,66fce1b157e3f6cf1e5b92db,2024-10-02_09h03.35.369,mdp,2024.2.1,Win32,40,66fa4ebf79326e780c390304,,,,,,,,,,,,,,,,,,,,,236.7685,236.7685,236.7711,239.4009,1,0,right,2.0908,,239.4024,239.4035,,0,,239.4043,239.405,,1,,1,239.405,239.4051,239.4058,240.9057,0,11,11,11,1,0.8,0.2,0.4,0.6,1,0,,,,,,,,,,,,,,,,,,,,,,,,,,,,,,,,,,,,
,,65fd910b6214e647ea9c6175,66fce1b157e3f6cf1e5b92db,2024-10-02_09h03.35.369,mdp,2024.2.1,Win32,40,66fa4ebf79326e780c390304,,,,,,,,,,,,,,,,,,,,,240.9065,240.9065,240.9078,245.0448,0,0,left,3.6093,,245.0463,245.0473,,0,,245.0483,245.049,,0,,1,245.0491,245.0491,245.0497,246.5501,0,12,12,12,1,0.8,0.2,0.4,0.6,1,0,,,,,,,,,,,,,,,,,,,,,,,,,,,,,,,,,,,,
,,65fd910b6214e647ea9c6175,66fce1b157e3f6cf1e5b92db,2024-10-02_09h03.35.369,mdp,2024.2.1,Win32,40,66fa4ebf79326e780c390304,,,,,,,,,,,,,,,,,,,,,246.5512,246.5513,246.5536,249.5348,1,1,right,2.4337,,249.5363,249.5373,,0,,249.5383,249.5391,,0,,0,249.5391,249.5391,249.5397,251.0397,0,13,13,13,1,0.8,0.2,0.4,0.6,1,0,,,,,,,,,,,,,,,,,,,,,,,,,,,,,,,,,,,,
,,65fd910b6214e647ea9c6175,66fce1b157e3f6cf1e5b92db,2024-10-02_09h03.35.369,mdp,2024.2.1,Win32,40,66fa4ebf79326e780c390304,,,,,,,,,,,,,,,,,,,,,251.0404,251.0404,251.0419,253.8741,0,0,left,2.3233,,253.8758,253.8771,,0,,253.8778,253.8784,,1,,1,253.8784,253.8784,253.8791,255.3788,0,14,14,14,1,0.8,0.2,0.4,0.6,1,0,,,,,,,,,,,,,,,,,,,,,,,,,,,,,,,,,,,,
,,65fd910b6214e647ea9c6175,66fce1b157e3f6cf1e5b92db,2024-10-02_09h03.35.369,mdp,2024.2.1,Win32,40,66fa4ebf79326e780c390304,,,,,,,,,,,,,,,,,,,,,255.3796,255.3796,255.381,257.5864,0,0,left,1.6918,,257.588,257.589,,0,,257.59,257.5905,,1,,1,257.5906,257.5906,257.5911,259.0912,0,15,15,15,1,0.8,0.2,0.4,0.6,1,0,,,,,,,,,,,,,,,,,,,,,,,,,,,,,,,,,,,,
,,65fd910b6214e647ea9c6175,66fce1b157e3f6cf1e5b92db,2024-10-02_09h03.35.369,mdp,2024.2.1,Win32,40,66fa4ebf79326e780c390304,,,,,,,,,,,,,,,,,,,,,259.0918,259.0919,259.0934,264.4845,1,1,right,4.8743,,264.4862,264.4873,,1,,264.4883,264.4889,,1,,0,264.489,264.489,264.4895,265.9891,0,16,16,16,1,0.8,0.2,0.4,0.6,1,0,,,,,,,,,,,,,,,,,,,,,,,,,,,,,,,,,,,,
,,65fd910b6214e647ea9c6175,66fce1b157e3f6cf1e5b92db,2024-10-02_09h03.35.369,mdp,2024.2.1,Win32,40,66fa4ebf79326e780c390304,,,,,,,,,,,,,,,,,,,,,265.9899,265.99,265.9915,269.3765,1,0,right,2.8805,,269.3779,269.379,,1,,269.3797,269.3802,,0,,1,269.3802,269.3802,269.3809,270.8806,0,17,17,17,1,0.8,0.2,0.4,0.6,1,0,,,,,,,,,,,,,,,,,,,,,,,,,,,,,,,,,,,,
,,65fd910b6214e647ea9c6175,66fce1b157e3f6cf1e5b92db,2024-10-02_09h03.35.369,mdp,2024.2.1,Win32,40,66fa4ebf79326e780c390304,,,,,,,,,,,,,,,,,,,,,270.8814,270.8814,270.8829,273.5146,1,1,right,2.1129,,273.5168,273.5182,,0,,273.5192,273.5199,,0,,0,273.52,273.52,273.5213,275.0195,0,18,18,18,1,0.8,0.2,0.4,0.6,1,0,,,,,,,,,,,,,,,,,,,,,,,,,,,,,,,,,,,,
,,65fd910b6214e647ea9c6175,66fce1b157e3f6cf1e5b92db,2024-10-02_09h03.35.369,mdp,2024.2.1,Win32,40,66fa4ebf79326e780c390304,,,,,,,,,,,,,,,,,,,,,275.02,275.0201,275.0214,278.0551,0,0,left,2.5208,,278.0569,278.058,,0,,278.0588,278.0594,,1,,1,278.0595,278.0595,278.0601,279.5596,0,19,19,19,1,0.4,0.6,0.6,0.4,1,0,,,,,,,,,,,,,,,,,,,,,,,,,,,,,,,,,,,,
,,65fd910b6214e647ea9c6175,66fce1b157e3f6cf1e5b92db,2024-10-02_09h03.35.369,mdp,2024.2.1,Win32,40,66fa4ebf79326e780c390304,,,,,,,,,,,,,,,,,,,,,279.5604,279.5605,279.5617,287.0344,0,0,left,6.9487,,287.0364,287.0376,,1,,287.0383,287.0393,,0,,1,287.0393,287.0393,287.04,288.5393,0,20,20,20,1,0.4,0.6,0.6,0.4,1,0,,,,,,,,,,,,,,,,,,,,,,,,,,,,,,,,,,,,
,,65fd910b6214e647ea9c6175,66fce1b157e3f6cf1e5b92db,2024-10-02_09h03.35.369,mdp,2024.2.1,Win32,40,66fa4ebf79326e780c390304,,,,,,,,,,,,,,,,,,,,,288.54,288.54,288.5414,292.4024,1,0,right,3.3537,,292.4039,292.4049,,1,,292.4058,292.4066,,0,,1,292.4067,292.4067,292.4074,293.9072,0,21,21,21,1,0.4,0.6,0.6,0.4,1,0,,,,,,,,,,,,,,,,,,,,,,,,,,,,,,,,,,,,
,,65fd910b6214e647ea9c6175,66fce1b157e3f6cf1e5b92db,2024-10-02_09h03.35.369,mdp,2024.2.1,Win32,40,66fa4ebf79326e780c390304,,,,,,,,,,,,,,,,,,,,,293.9079,293.9079,293.9093,297.6199,1,1,right,3.1933,,297.6217,297.6227,,1,,297.6236,297.6241,,0,,0,297.6241,297.6242,297.6248,299.1246,0,22,22,22,1,0.8,0.2,0.2,0.8,1,0,,,,,,,,,,,,,,,,,,,,,,,,,,,,,,,,,,,,
,,65fd910b6214e647ea9c6175,66fce1b157e3f6cf1e5b92db,2024-10-02_09h03.35.369,mdp,2024.2.1,Win32,40,66fa4ebf79326e780c390304,,,,,,,,,,,,,,,,,,,,,299.1253,299.1253,299.1266,302.2603,0,0,left,2.6081,,302.2619,302.2628,,0,,302.2637,302.2643,,0,,1,302.2643,302.2644,302.2649,303.7657,0,23,23,23,1,0.8,0.2,0.2,0.8,1,0,,,,,,,,,,,,,,,,,,,,,,,,,,,,,,,,,,,,
,,65fd910b6214e647ea9c6175,66fce1b157e3f6cf1e5b92db,2024-10-02_09h03.35.369,mdp,2024.2.1,Win32,40,66fa4ebf79326e780c390304,,,,,,,,,,,,,,,,,,,,,303.7668,303.7669,303.7693,307.7787,0,1,left,3.4706,,307.7805,307.7815,,0,,307.7824,307.783,,0,,0,307.7831,307.7831,307.7836,309.2834,0,24,24,24,1,0.8,0.2,0.2,0.8,1,0,,,,,,,,,,,,,,,,,,,,,,,,,,,,,,,,,,,,
,,65fd910b6214e647ea9c6175,66fce1b157e3f6cf1e5b92db,2024-10-02_09h03.35.369,mdp,2024.2.1,Win32,40,66fa4ebf79326e780c390304,,,,,,,,,,,,,,,,,,,,,309.2841,309.2841,309.2854,311.7671,1,1,right,1.9588,,311.7684,311.7698,,1,,311.7706,311.7712,,1,,0,311.7712,311.7712,311.7718,313.2718,0,25,25,25,1,0.8,0.2,0.2,0.8,1,0,,,,,,,,,,,,,,,,,,,,,,,,,,,,,,,,,,,,
,,65fd910b6214e647ea9c6175,66fce1b157e3f6cf1e5b92db,2024-10-02_09h03.35.369,mdp,2024.2.1,Win32,40,66fa4ebf79326e780c390304,,,,,,,,,,,,,,,,,,,,,313.2725,313.2725,313.274,314.7018,1,1,right,0.9043,,314.7033,314.7044,,1,,314.7053,314.7058,,1,,0,314.7059,314.7059,314.7065,316.2065,0,26,26,26,1,0.8,0.2,0.2,0.8,1,0,,,,,,,,,,,,,,,,,,,,,,,,,,,,,,,,,,,,
,,65fd910b6214e647ea9c6175,66fce1b157e3f6cf1e5b92db,2024-10-02_09h03.35.369,mdp,2024.2.1,Win32,40,66fa4ebf79326e780c390304,,,,,,,,,,,,,,,,,,,,,316.2071,316.2071,316.2086,317.8123,0,0,left,1.0967,,317.8138,317.8147,,0,,317.8156,317.8162,,0,,1,317.8162,317.8162,317.8168,319.3171,0,27,27,27,1,0.8,0.2,0.2,0.8,1,0,,,,,,,,,,,,,,,,,,,,,,,,,,,,,,,,,,,,
,,65fd910b6214e647ea9c6175,66fce1b157e3f6cf1e5b92db,2024-10-02_09h03.35.369,mdp,2024.2.1,Win32,40,66fa4ebf79326e780c390304,,,,,,,,,,,,,,,,,,,,,319.3177,319.3178,319.3192,322.2769,0,0,left,2.4335,,322.2785,322.2797,,0,,322.2805,322.281,,0,,1,322.281,322.281,322.2816,323.7818,0,28,28,28,1,0.8,0.2,0.2,0.8,1,0,,,,,,,,,,,,,,,,,,,,,,,,,,,,,,,,,,,,
,,65fd910b6214e647ea9c6175,66fce1b157e3f6cf1e5b92db,2024-10-02_09h03.35.369,mdp,2024.2.1,Win32,40,66fa4ebf79326e780c390304,,,,,,,,,,,,,,,,,,,,,323.7826,323.7826,323.7838,326.2653,1,1,right,1.9591,,326.2668,326.2678,,0,,326.2691,326.2696,,1,,0,326.2697,326.2697,326.2704,327.7703,0,29,29,29,1,0.8,0.2,0.2,0.8,1,0,,,,,,,,,,,,,,,,,,,,,,,,,,,,,,,,,,,,
,,65fd910b6214e647ea9c6175,66fce1b157e3f6cf1e5b92db,2024-10-02_09h03.35.369,mdp,2024.2.1,Win32,40,66fa4ebf79326e780c390304,,,,,,,,,,,,,,,,,,,,,327.7709,327.7709,327.7724,331.4827,0,0,left,3.1956,,331.4842,331.4852,,0,,331.4862,331.4869,,0,,1,331.4869,331.4869,331.4876,332.9875,0,30,30,30,1,0.8,0.2,0.2,0.8,1,0,,,,,,,,,,,,,,,,,,,,,,,,,,,,,,,,,,,,
,,65fd910b6214e647ea9c6175,66fce1b157e3f6cf1e5b92db,2024-10-02_09h03.35.369,mdp,2024.2.1,Win32,40,66fa4ebf79326e780c390304,,,,,,,,,,,,,,,,,,,,,332.9883,332.9884,332.9897,335.7717,1,1,right,2.2689,,335.7739,335.7752,,1,,335.776,335.7766,,1,,0,335.7766,335.7766,335.7775,337.2767,0,31,31,31,1,0.8,0.2,0.2,0.8,1,0,,,,,,,,,,,,,,,,,,,,,,,,,,,,,,,,,,,,
,,65fd910b6214e647ea9c6175,66fce1b157e3f6cf1e5b92db,2024-10-02_09h03.35.369,mdp,2024.2.1,Win32,40,66fa4ebf79326e780c390304,,,,,,,,,,,,,,,,,,,,,337.2774,337.2775,337.2788,341.6167,0,1,left,3.8318,,341.6181,341.6192,,1,,341.6199,341.6204,,0,,0,341.6204,341.6204,341.621,343.1211,0,32,32,32,1,0.8,0.2,0.2,0.8,1,0,,,,,,,,,,,,,,,,,,,,,,,,,,,,,,,,,,,,
,,65fd910b6214e647ea9c6175,66fce1b157e3f6cf1e5b92db,2024-10-02_09h03.35.369,mdp,2024.2.1,Win32,40,66fa4ebf79326e780c390304,,,,,,,,,,,,,,,,,,,,,343.1218,343.1219,343.1233,345.5291,1,0,right,1.901,,345.5309,345.5321,,0,,345.5328,345.5334,,0,,1,345.5334,345.5334,345.5341,347.0344,0,33,33,33,1,0.2,0.8,0.8,0.2,1,0,,,,,,,,,,,,,,,,,,,,,,,,,,,,,,,,,,,,
,,65fd910b6214e647ea9c6175,66fce1b157e3f6cf1e5b92db,2024-10-02_09h03.35.369,mdp,2024.2.1,Win32,40,66fa4ebf79326e780c390304,,,,,,,,,,,,,,,,,,,,,347.0352,347.0352,347.0367,349.5175,1,0,right,1.9592,,349.5191,349.5204,,0,,349.5211,349.5217,,1,,1,349.5217,349.5217,349.5223,351.0226,0,34,34,34,1,0.2,0.8,0.8,0.2,1,0,,,,,,,,,,,,,,,,,,,,,,,,,,,,,,,,,,,,
,,65fd910b6214e647ea9c6175,66fce1b157e3f6cf1e5b92db,2024-10-02_09h03.35.369,mdp,2024.2.1,Win32,40,66fa4ebf79326e780c390304,,,,,,,,,,,,,,,,,,,,,351.0233,351.0234,351.0251,353.2805,1,1,right,1.7513,,353.2819,353.283,,1,,353.2837,353.2841,,0,,0,353.2842,353.2842,353.285,354.7851,0,35,35,35,1,0.2,0.8,0.8,0.2,1,0,,,,,,,,,,,,,,,,,,,,,,,,,,,,,,,,,,,,
,,65fd910b6214e647ea9c6175,66fce1b157e3f6cf1e5b92db,2024-10-02_09h03.35.369,mdp,2024.2.1,Win32,40,66fa4ebf79326e780c390304,,,,,,,,,,,,,,,,,,,,,354.7857,354.7857,354.7873,356.2911,0,1,left,0.9776,,356.2924,356.2936,,0,,356.2943,356.2949,,1,,0,356.2949,356.2949,356.2954,357.7951,0,36,36,36,1,0.2,0.8,0.8,0.2,1,0,,,,,,,,,,,,,,,,,,,,,,,,,,,,,,,,,,,,
,,65fd910b6214e647ea9c6175,66fce1b157e3f6cf1e5b92db,2024-10-02_09h03.35.369,mdp,2024.2.1,Win32,40,66fa4ebf79326e780c390304,,,,,,,,,,,,,,,,,,,,,357.7958,357.7959,357.7972,360.0776,1,0,right,1.7654,,360.0793,360.0803,,0,,360.0812,360.0818,,0,,1,360.0818,360.0818,360.0824,361.5828,0,37,37,37,1,0.2,0.8,0.8,0.2,1,0,,,,,,,,,,,,,,,,,,,,,,,,,,,,,,,,,,,,
,,65fd910b6214e647ea9c6175,66fce1b157e3f6cf1e5b92db,2024-10-02_09h03.35.369,mdp,2024.2.1,Win32,40,66fa4ebf79326e780c390304,,,,,,,,,,,,,,,,,,,,,361.5835,361.5835,361.5848,365.496,1,0,right,3.4005,,365.4979,365.4994,,0,,365.5006,365.5013,,0,,1,365.5013,365.5013,365.5022,367.0006,0,38,38,38,1,0.2,0.8,0.8,0.2,1,0,,,,,,,,,,,,,,,,,,,,,,,,,,,,,,,,,,,,
,,65fd910b6214e647ea9c6175,66fce1b157e3f6cf1e5b92db,2024-10-02_09h03.35.369,mdp,2024.2.1,Win32,40,66fa4ebf79326e780c390304,,,,,,,,,,,,,,,,,,,,,367.0013,367.0014,367.0029,370.688,0,0,left,3.1609,,370.6897,370.6908,,1,,370.6919,370.6925,,1,,1,370.6925,370.6925,370.6931,372.1932,0,39,39,39,1,0.2,0.8,0.8,0.2,1,0,,,,,,,,,,,,,,,,,,,,,,,,,,,,,,,,,,,,
,,65fd910b6214e647ea9c6175,66fce1b157e3f6cf1e5b92db,2024-10-02_09h03.35.369,mdp,2024.2.1,Win32,40,66fa4ebf79326e780c390304,,,,,,,,,,,,,,,,,,,,,372.1938,372.1938,372.1969,376.3824,0,1,left,3.6724,,376.3838,376.3849,,0,,376.3858,376.3863,,1,,0,376.3863,376.3863,376.3868,377.8869,0,40,40,40,1,0.2,0.8,0.8,0.2,1,0,,,,,,,,,,,,,,,,,,,,,,,,,,,,,,,,,,,,
,,65fd910b6214e647ea9c6175,66fce1b157e3f6cf1e5b92db,2024-10-02_09h03.35.369,mdp,2024.2.1,Win32,40,66fa4ebf79326e780c390304,,,,,,,,,,,,,,,,,,,,,377.8875,377.8876,377.8892,380.8728,1,0,right,2.4621,,380.8752,380.8763,,1,,380.8776,380.8782,,1,,1,380.8782,380.8782,380.8789,382.3768,0,41,41,41,1,0.8,0.2,0.2,0.8,1,0,,,,,,,,,,,,,,,,,,,,,,,,,,,,,,,,,,,,
,,65fd910b6214e647ea9c6175,66fce1b157e3f6cf1e5b92db,2024-10-02_09h03.35.369,mdp,2024.2.1,Win32,40,66fa4ebf79326e780c390304,,,,,,,,,,,,,,,,,,,,,382.3775,382.3776,382.379,384.4839,1,1,right,1.593,,384.4856,384.4867,,1,,384.4875,384.488,,1,,0,384.4881,384.4881,384.4886,385.9891,0,42,42,42,1,0.8,0.2,0.2,0.8,1,0,,,,,,,,,,,,,,,,,,,,,,,,,,,,,,,,,,,,
,,65fd910b6214e647ea9c6175,66fce1b157e3f6cf1e5b92db,2024-10-02_09h03.35.369,mdp,2024.2.1,Win32,40,66fa4ebf79326e780c390304,,,,,,,,,,,,,,,,,,,,,385.9899,385.9899,385.9915,388.7988,0,0,left,2.2829,,388.8006,388.8016,,1,,388.8022,388.8027,,0,,1,388.8027,388.8028,388.8033,390.3035,0,43,43,43,1,0.8,0.2,0.2,0.8,1,0,,,,,,,,,,,,,,,,,,,,,,,,,,,,,,,,,,,,
,,65fd910b6214e647ea9c6175,66fce1b157e3f6cf1e5b92db,2024-10-02_09h03.35.369,mdp,2024.2.1,Win32,40,66fa4ebf79326e780c390304,,,,,,,,,,,,,,,,,,,,,390.3041,390.3042,390.3053,392.1097,0,0,left,1.2973,,392.1113,392.1122,,1,,392.1131,392.1136,,1,,1,392.1137,392.1137,392.1143,393.6145,0,44,44,44,1,0.4,0.6,0.8,0.2,1,0,,,,,,,,,,,,,,,,,,,,,,,,,,,,,,,,,,,,
,,65fd910b6214e647ea9c6175,66fce1b157e3f6cf1e5b92db,2024-10-02_09h03.35.369,mdp,2024.2.1,Win32,40,66fa4ebf79326e780c390304,,,,,,,,,,,,,,,,,,,,,393.6153,393.6153,393.6168,396.8254,0,0,left,2.6992,,396.8269,396.8279,,0,,396.8289,396.8294,,1,,1,396.8295,396.8295,396.83,398.3301,0,45,45,45,1,0.6,0.4,0.6,0.4,1,0,,,,,,,,,,,,,,,,,,,,,,,,,,,,,,,,,,,,
,,65fd910b6214e647ea9c6175,66fce1b157e3f6cf1e5b92db,2024-10-02_09h03.35.369,mdp,2024.2.1,Win32,40,66fa4ebf79326e780c390304,,,,,,,,,,,,,,,,,,,,,398.331,398.331,398.3325,401.1898,1,0,right,2.3325,,401.1915,401.1924,,0,,401.1934,401.1939,,1,,1,401.1939,401.1939,401.1944,402.6948,0,46,46,46,1,0.6,0.4,0.6,0.4,1,0,,,,,,,,,,,,,,,,,,,,,,,,,,,,,,,,,,,,
,,65fd910b6214e647ea9c6175,66fce1b157e3f6cf1e5b92db,2024-10-02_09h03.35.369,mdp,2024.2.1,Win32,40,66fa4ebf79326e780c390304,,,,,,,,,,,,,,,,,,,,,402.6962,402.6963,402.6985,406.3317,1,0,right,3.0944,,406.3336,406.335,,1,,406.3362,406.3369,,0,,1,406.337,406.337,406.3379,407.8366,0,47,47,47,1,0.6,0.4,0.6,0.4,1,0,,,,,,,,,,,,,,,,,,,,,,,,,,,,,,,,,,,,
,,65fd910b6214e647ea9c6175,66fce1b157e3f6cf1e5b92db,2024-10-02_09h03.35.369,mdp,2024.2.1,Win32,40,66fa4ebf79326e780c390304,,,,,,,,,,,,,,,,,,,,,407.8374,407.8374,407.8386,410.5459,0,0,left,2.1912,,410.5476,410.5485,,0,,410.5496,410.5503,,0,,1,410.5503,410.5503,410.5509,412.0507,0,48,48,48,1,0.6,0.4,0.6,0.4,1,0,,,,,,,,,,,,,,,,,,,,,,,,,,,,,,,,,,,,
,,65fd910b6214e647ea9c6175,66fce1b157e3f6cf1e5b92db,2024-10-02_09h03.35.369,mdp,2024.2.1,Win32,40,66fa4ebf79326e780c390304,,,,,,,,,,,,,,,,,,,,,412.0515,412.0515,412.0528,413.9822,0,0,left,1.4067,,413.9838,413.9848,,1,,413.9858,413.9864,,1,,1,413.9864,413.9864,413.9869,415.4873,0,49,49,49,1,0.8,0.2,0.2,0.8,1,0,,,,,,,,,,,,,,,,,,,,,,,,,,,,,,,,,,,,
,,65fd910b6214e647ea9c6175,66fce1b157e3f6cf1e5b92db,2024-10-02_09h03.35.369,mdp,2024.2.1,Win32,40,66fa4ebf79326e780c390304,,,,,,,,,,,,,,,,,,,,,,,,,,,,,,,,,,,,,,,,,,,,,,,,,,,,,,,,415.4881,474.0076,0,0,0,4,1,imgs/lion.png,imgs/dog.png,imgs/elephant.png,imgs/giraffe.png,imgs/kangaroo.png,,,,,,,,,,,,,,,,,,,,,,,,
,,65fd910b6214e647ea9c6175,66fce1b157e3f6cf1e5b92db,2024-10-02_09h03.35.369,mdp,2024.2.1,Win32,40,66fa4ebf79326e780c390304,,,,,,,,,,,,,,2,seqs/st2seq30.csv,474.0095,478.3469,space,3.8225,,478.354,478.354,478.355,482.0341,1,1,right,3.1392,,482.0359,490.1615,1,1,right,490.1634,490.1645,,1,,0,490.1646,490.1646,490.1653,491.6661,0,0,0,0,1,0.2,0.8,0.6,0.4,,,,,,,,,,,,,,,7.5935,,0.2,0.8,0.6,0.4,0.2,0.8,0.4,0.6,1,0,,,,,,,,,,,,
,,65fd910b6214e647ea9c6175,66fce1b157e3f6cf1e5b92db,2024-10-02_09h03.35.369,mdp,2024.2.1,Win32,40,66fa4ebf79326e780c390304,,,,,,,,,,,,,,,,,,,,,491.6669,491.6669,491.6682,493.9988,1,1,right,1.8155,,494.0005,496.0559,0,0,left,496.0576,496.0586,,0,,1,496.0587,496.0587,496.0595,497.5606,0,1,1,1,1,0.2,0.8,0.6,0.4,,,,,,,,,,,,,,,1.5365,,0.2,0.8,0.6,0.4,0.8,0.2,0.8,0.2,1,0,,,,,,,,,,,,
,,65fd910b6214e647ea9c6175,66fce1b157e3f6cf1e5b92db,2024-10-02_09h03.35.369,mdp,2024.2.1,Win32,40,66fa4ebf79326e780c390304,,,,,,,,,,,,,,,,,,,,,497.5613,497.5613,497.5625,499.8686,1,0,right,1.7798,,499.8702,502.5272,0,1,left,502.5288,502.5303,,1,,0,502.5304,502.5304,502.5311,504.0324,0,2,2,2,1,0.2,0.8,0.6,0.4,,,,,,,,,,,,,,,2.1432,,0.2,0.8,0.6,0.4,0.8,0.2,0.8,0.2,1,0,,,,,,,,,,,,
,,65fd910b6214e647ea9c6175,66fce1b157e3f6cf1e5b92db,2024-10-02_09h03.35.369,mdp,2024.2.1,Win32,40,66fa4ebf79326e780c390304,,,,,,,,,,,,,,,,,,,,,504.0331,504.0331,504.0343,505.8886,1,1,right,1.347,,505.8904,508.7984,1,0,right,508.8001,508.8013,,0,,1,508.8013,508.8013,508.8021,510.3033,0,3,3,3,1,0.2,0.8,0.6,0.4,,,,,,,,,,,,,,,2.3962,,0.2,0.8,0.6,0.4,0.8,0.2,0.8,0.2,1,0,,,,,,,,,,,,
,,65fd910b6214e647ea9c6175,66fce1b157e3f6cf1e5b92db,2024-10-02_09h03.35.369,mdp,2024.2.1,Win32,40,66fa4ebf79326e780c390304,,,,,,,,,,,,,,,,,,,,,510.3047,510.3047,510.3069,512.8369,0,1,left,1.9876,,512.8385,514.768,1,0,right,514.7696,514.7705,,0,,1,514.7706,514.7706,514.7715,516.2729,0,4,4,4,1,0.2,0.8,0.6,0.4,,,,,,,,,,,,,,,1.4063,,0.2,0.8,0.6,0.4,0.8,0.2,0.8,0.2,1,0,,,,,,,,,,,,
,,65fd910b6214e647ea9c6175,66fce1b157e3f6cf1e5b92db,2024-10-02_09h03.35.369,mdp,2024.2.1,Win32,40,66fa4ebf79326e780c390304,,,,,,,,,,,,,,,,,,,,,516.2735,516.2735,516.2747,518.0297,1,0,right,1.2321,,518.0323,519.835,0,1,left,519.8367,519.8382,,1,,0,519.8383,519.8383,519.839,521.34,0,5,5,5,1,0.2,0.8,0.6,0.4,,,,,,,,,,,,,,,1.2695,,0.2,0.8,0.6,0.4,0.8,0.2,0.8,0.2,1,0,,,,,,,,,,,,
,,65fd910b6214e647ea9c6175,66fce1b157e3f6cf1e5b92db,2024-10-02_09h03.35.369,mdp,2024.2.1,Win32,40,66fa4ebf79326e780c390304,,,,,,,,,,,,,,,,,,,,,521.3407,521.3408,521.3428,524.8516,1,0,right,2.9909,,524.8532,527.2595,1,0,right,527.2614,527.2625,,0,,1,527.2627,527.2627,527.2635,528.7646,0,6,6,6,1,0.2,0.8,0.6,0.4,,,,,,,,,,,,,,,1.885,,0.2,0.8,0.6,0.4,0.2,0.8,0.6,0.4,1,0,,,,,,,,,,,,
,,65fd910b6214e647ea9c6175,66fce1b157e3f6cf1e5b92db,2024-10-02_09h03.35.369,mdp,2024.2.1,Win32,40,66fa4ebf79326e780c390304,,,,,,,,,,,,,,,,,,,,,528.7655,528.7656,528.7668,532.3769,0,1,left,3.0943,,532.3785,536.1144,0,1,left,536.1159,536.1168,,1,,0,536.1169,536.1169,536.1178,537.6198,0,7,7,7,1,0.2,0.8,0.6,0.4,,,,,,,,,,,,,,,3.2056,,0.2,0.8,0.6,0.4,0.2,0.8,0.6,0.4,1,0,,,,,,,,,,,,
,,65fd910b6214e647ea9c6175,66fce1b157e3f6cf1e5b92db,2024-10-02_09h03.35.369,mdp,2024.2.1,Win32,40,66fa4ebf79326e780c390304,,,,,,,,,,,,,,,,,,,,,537.6212,537.6212,537.6234,542.2096,1,1,right,4.039,,542.2118,544.442,1,0,right,544.4436,544.445,,1,,1,544.445,544.445,544.4458,545.9472,0,8,8,8,1,0.6,0.4,0.2,0.8,,,,,,,,,,,,,,,1.7232,,0.2,0.8,0.6,0.4,0.2,0.8,0.6,0.4,1,0,,,,,,,,,,,,
,,65fd910b6214e647ea9c6175,66fce1b157e3f6cf1e5b92db,2024-10-02_09h03.35.369,mdp,2024.2.1,Win32,40,66fa4ebf79326e780c390304,,,,,,,,,,,,,,,,,,,,,545.9485,545.9485,545.9513,548.3551,1,0,right,1.86,,548.3568,551.5656,0,1,left,551.5675,551.569,,1,,0,551.5691,551.5691,551.57,553.0707,0,9,9,9,1,0.6,0.4,0.2,0.8,,,,,,,,,,,,,,,2.6888,,0.2,0.8,0.6,0.4,0.6,0.4,0.8,0.2,1,0,,,,,,,,,,,,
,,65fd910b6214e647ea9c6175,66fce1b157e3f6cf1e5b92db,2024-10-02_09h03.35.369,mdp,2024.2.1,Win32,40,66fa4ebf79326e780c390304,,,,,,,,,,,,,,,,,,,,,553.0714,553.0714,553.0726,554.3247,1,1,right,0.7345,,554.3267,555.9552,1,0,right,555.9568,555.9579,,0,,1,555.9579,555.9579,555.9586,557.4603,0,10,10,10,1,0.6,0.4,0.2,0.8,,,,,,,,,,,,,,,1.1049,,0.2,0.8,0.6,0.4,0.6,0.4,0.8,0.2,1,0,,,,,,,,,,,,
,,65fd910b6214e647ea9c6175,66fce1b157e3f6cf1e5b92db,2024-10-02_09h03.35.369,mdp,2024.2.1,Win32,40,66fa4ebf79326e780c390304,,,,,,,,,,,,,,,,,,,,,557.461,557.4611,557.463,559.1159,1,1,right,1.1408,,559.1175,563.2547,1,1,right,563.2565,563.2577,,0,,0,563.2578,563.2578,563.2585,564.7596,0,11,11,11,1,0.6,0.4,0.2,0.8,,,,,,,,,,,,,,,3.6117,,0.2,0.8,0.6,0.4,0.6,0.4,0.8,0.2,1,0,,,,,,,,,,,,
,,65fd910b6214e647ea9c6175,66fce1b157e3f6cf1e5b92db,2024-10-02_09h03.35.369,mdp,2024.2.1,Win32,40,66fa4ebf79326e780c390304,,,,,,,,,,,,,,,,,,,,,564.7604,564.7604,564.7617,566.2394,1,1,right,0.9704,,566.241,567.7196,0,0,left,567.7211,567.7221,,0,,1,567.7222,567.7222,567.7231,569.2244,0,12,12,12,1,0.6,0.4,0.2,0.8,,,,,,,,,,,,,,,0.9602,,0.2,0.8,0.6,0.4,0.6,0.4,0.8,0.2,1,0,,,,,,,,,,,,
,,65fd910b6214e647ea9c6175,66fce1b157e3f6cf1e5b92db,2024-10-02_09h03.35.369,mdp,2024.2.1,Win32,40,66fa4ebf79326e780c390304,,,,,,,,,,,,,,,,,,,,,569.2255,569.2255,569.2267,570.7043,0,0,left,0.9712,,570.706,573.7397,1,0,right,573.7414,573.7423,,1,,1,573.7424,573.7424,573.7433,575.2444,0,13,13,13,1,0.6,0.4,0.2,0.8,,,,,,,,,,,,,,,2.5039,,0.2,0.8,0.6,0.4,0.6,0.4,0.8,0.2,1,0,,,,,,,,,,,,
,,65fd910b6214e647ea9c6175,66fce1b157e3f6cf1e5b92db,2024-10-02_09h03.35.369,mdp,2024.2.1,Win32,40,66fa4ebf79326e780c390304,,,,,,,,,,,,,,,,,,,,,575.2452,575.2452,575.2468,576.4487,0,0,left,0.679,,576.4504,578.3051,0,0,left,578.3069,578.308,,0,,1,578.3081,578.3081,578.3088,579.8096,0,14,14,14,1,0.6,0.4,0.2,0.8,,,,,,,,,,,,,,,1.3457,,0.2,0.8,0.6,0.4,0.6,0.4,0.8,0.2,1,0,,,,,,,,,,,,
,,65fd910b6214e647ea9c6175,66fce1b157e3f6cf1e5b92db,2024-10-02_09h03.35.369,mdp,2024.2.1,Win32,40,66fa4ebf79326e780c390304,,,,,,,,,,,,,,,,,,,,,579.8102,579.8102,579.8118,581.2144,1,1,right,0.8782,,581.2162,582.9701,1,0,right,582.9718,582.9728,,0,,1,582.9728,582.9728,582.9736,584.4751,0,15,15,15,1,0.6,0.4,0.2,0.8,,,,,,,,,,,,,,,1.2421,,0.2,0.8,0.6,0.4,0.6,0.4,0.8,0.2,1,0,,,,,,,,,,,,
,,65fd910b6214e647ea9c6175,66fce1b157e3f6cf1e5b92db,2024-10-02_09h03.35.369,mdp,2024.2.1,Win32,40,66fa4ebf79326e780c390304,,,,,,,,,,,,,,,,,,,,,584.476,584.476,584.4775,585.7296,0,0,left,0.7382,,585.7312,587.1343,0,1,left,587.136,587.1369,,1,,0,587.137,587.137,587.1379,588.6391,0,16,16,16,1,0.6,0.4,0.2,0.8,,,,,,,,,,,,,,,0.874,,0.2,0.8,0.6,0.4,0.6,0.4,0.8,0.2,1,0,,,,,,,,,,,,
,,65fd910b6214e647ea9c6175,66fce1b157e3f6cf1e5b92db,2024-10-02_09h03.35.369,mdp,2024.2.1,Win32,40,66fa4ebf79326e780c390304,,,,,,,,,,,,,,,,,,,,,588.6402,588.6403,588.642,589.7678,1,1,right,0.616,,589.7694,591.3483,1,1,right,591.3502,591.3513,,1,,0,591.3513,591.3513,591.3522,592.8533,0,17,17,17,1,0.6,0.4,0.2,0.8,,,,,,,,,,,,,,,1.0504,,0.2,0.8,0.6,0.4,0.8,0.2,0.6,0.4,1,0,,,,,,,,,,,,
,,65fd910b6214e647ea9c6175,66fce1b157e3f6cf1e5b92db,2024-10-02_09h03.35.369,mdp,2024.2.1,Win32,40,66fa4ebf79326e780c390304,,,,,,,,,,,,,,,,,,,,,592.8542,592.8542,592.8556,594.2079,0,0,left,0.828,,594.2093,595.6128,0,1,left,595.6143,595.6153,,1,,0,595.6153,595.6153,595.6162,597.1173,0,18,18,18,1,0.6,0.4,0.2,0.8,,,,,,,,,,,,,,,0.886,,0.2,0.8,0.6,0.4,0.8,0.2,0.6,0.4,1,0,,,,,,,,,,,,
,,65fd910b6214e647ea9c6175,66fce1b157e3f6cf1e5b92db,2024-10-02_09h03.35.369,mdp,2024.2.1,Win32,40,66fa4ebf79326e780c390304,,,,,,,,,,,,,,,,,,,,,597.1181,597.1182,597.1199,598.1208,1,1,right,0.4848,,598.1223,599.8766,1,0,right,599.8782,599.8793,,1,,1,599.8794,599.8794,599.8802,601.3816,0,19,19,19,1,0.6,0.4,0.2,0.8,,,,,,,,,,,,,,,1.242,,0.2,0.8,0.6,0.4,0.8,0.2,0.6,0.4,1,0,,,,,,,,,,,,
,,65fd910b6214e647ea9c6175,66fce1b157e3f6cf1e5b92db,2024-10-02_09h03.35.369,mdp,2024.2.1,Win32,40,66fa4ebf79326e780c390304,,,,,,,,,,,,,,,,,,,,,601.3823,601.3824,601.3838,602.8615,1,1,right,0.965,,602.863,604.4166,0,0,left,604.4182,604.4193,,0,,1,604.4194,604.4194,604.4201,605.9216,0,20,20,20,1,0.6,0.4,0.2,0.8,,,,,,,,,,,,,,,1.0456,,0.2,0.8,0.6,0.4,0.8,0.2,0.6,0.4,1,0,,,,,,,,,,,,
,,65fd910b6214e647ea9c6175,66fce1b157e3f6cf1e5b92db,2024-10-02_09h03.35.369,mdp,2024.2.1,Win32,40,66fa4ebf79326e780c390304,,,,,,,,,,,,,,,,,,,,,605.9223,605.9223,605.9241,607.0506,1,1,right,0.6103,,607.0522,609.3583,0,0,left,609.3598,609.3607,,0,,1,609.3608,609.3608,609.3617,610.863,0,21,21,21,1,0.2,0.8,0.6,0.4,,,,,,,,,,,,,,,1.7979,,0.2,0.8,0.6,0.4,0.8,0.2,0.6,0.4,1,0,,,,,,,,,,,,
,,65fd910b6214e647ea9c6175,66fce1b157e3f6cf1e5b92db,2024-10-02_09h03.35.369,mdp,2024.2.1,Win32,40,66fa4ebf79326e780c390304,,,,,,,,,,,,,,,,,,,,,610.8637,610.8638,610.865,611.8668,1,1,right,0.4799,,611.8686,613.5972,1,1,right,613.5992,613.6002,,0,,0,613.6002,613.6002,613.6009,615.1024,0,22,22,22,1,0.2,0.8,0.6,0.4,,,,,,,,,,,,,,,1.2046,,0.2,0.8,0.6,0.4,0.8,0.2,0.6,0.4,1,0,,,,,,,,,,,,
,,65fd910b6214e647ea9c6175,66fce1b157e3f6cf1e5b92db,2024-10-02_09h03.35.369,mdp,2024.2.1,Win32,40,66fa4ebf79326e780c390304,,,,,,,,,,,,,,,,,,,,,615.103,615.1031,615.1044,616.2314,1,1,right,0.6131,,616.2329,618.0874,0,0,left,618.089,618.0905,,0,,1,618.0905,618.0905,618.0916,619.5921,0,23,23,23,1,0.2,0.8,0.6,0.4,,,,,,,,,,,,,,,1.346,,0.2,0.8,0.6,0.4,0.8,0.2,0.6,0.4,1,0,,,,,,,,,,,,
,,65fd910b6214e647ea9c6175,66fce1b157e3f6cf1e5b92db,2024-10-02_09h03.35.369,mdp,2024.2.1,Win32,40,66fa4ebf79326e780c390304,,,,,,,,,,,,,,,,,,,,,619.5928,619.5928,619.5944,620.6709,1,1,right,0.5543,,620.6723,624.0573,1,0,right,624.0588,624.0597,,1,,1,624.0598,624.0598,624.0607,625.5621,0,24,24,24,1,0.2,0.8,0.6,0.4,,,,,,,,,,,,,,,2.8587,,0.2,0.8,0.6,0.4,0.8,0.2,0.6,0.4,1,0,,,,,,,,,,,,
,,65fd910b6214e647ea9c6175,66fce1b157e3f6cf1e5b92db,2024-10-02_09h03.35.369,mdp,2024.2.1,Win32,40,66fa4ebf79326e780c390304,,,,,,,,,,,,,,,,,,,,,625.5629,625.5629,625.5643,627.4937,0,0,left,1.4227,,627.4955,629.425,1,0,right,629.4267,629.4278,,0,,1,629.4278,629.4278,629.4286,630.9299,0,25,25,25,1,0.2,0.8,0.6,0.4,,,,,,,,,,,,,,,1.4139,,0.2,0.8,0.6,0.4,0.8,0.2,0.6,0.4,1,0,,,,,,,,,,,,
,,65fd910b6214e647ea9c6175,66fce1b157e3f6cf1e5b92db,2024-10-02_09h03.35.369,mdp,2024.2.1,Win32,40,66fa4ebf79326e780c390304,,,,,,,,,,,,,,,,,,,,,630.9306,630.9306,630.9324,632.385,0,1,left,0.9413,,632.3865,633.9902,1,1,right,633.9918,633.9929,,0,,0,633.9929,633.9929,633.9937,635.4951,0,26,26,26,1,0.2,0.8,0.6,0.4,,,,,,,,,,,,,,,1.0753,,0.2,0.8,0.6,0.4,0.8,0.2,0.6,0.4,1,0,,,,,,,,,,,,
,,65fd910b6214e647ea9c6175,66fce1b157e3f6cf1e5b92db,2024-10-02_09h03.35.369,mdp,2024.2.1,Win32,40,66fa4ebf79326e780c390304,,,,,,,,,,,,,,,,,,,,,635.4957,635.4958,635.4972,636.5999,0,0,left,0.584,,636.6032,638.6559,1,0,right,638.6575,638.6583,,0,,1,638.6585,638.6585,638.6595,640.1606,0,27,27,27,1,0.2,0.8,0.6,0.4,,,,,,,,,,,,,,,1.5432,,0.2,0.8,0.6,0.4,0.8,0.2,0.6,0.4,1,0,,,,,,,,,,,,
,,65fd910b6214e647ea9c6175,66fce1b157e3f6cf1e5b92db,2024-10-02_09h03.35.369,mdp,2024.2.1,Win32,40,66fa4ebf79326e780c390304,,,,,,,,,,,,,,,,,,,,,640.1612,640.1612,640.1628,641.8666,0,1,left,1.1911,,641.8684,643.7727,0,0,left,643.7748,643.776,,0,,1,643.7761,643.7761,643.7768,645.2776,0,28,28,28,1,0.2,0.8,0.6,0.4,,,,,,,,,,,,,,,1.3857,,0.2,0.8,0.6,0.4,0.8,0.2,0.6,0.4,1,0,,,,,,,,,,,,
,,65fd910b6214e647ea9c6175,66fce1b157e3f6cf1e5b92db,2024-10-02_09h03.35.369,mdp,2024.2.1,Win32,40,66fa4ebf79326e780c390304,,,,,,,,,,,,,,,,,,,,,645.2784,645.2784,645.2797,646.8831,0,0,left,1.0795,,646.8847,649.3664,1,1,right,649.3681,649.3693,,0,,0,649.3694,649.3694,649.3701,650.8715,0,29,29,29,1,0.2,0.8,0.6,0.4,,,,,,,,,,,,,,,1.9653,,0.2,0.8,0.6,0.4,0.8,0.2,0.6,0.4,1,0,,,,,,,,,,,,
,,65fd910b6214e647ea9c6175,66fce1b157e3f6cf1e5b92db,2024-10-02_09h03.35.369,mdp,2024.2.1,Win32,40,66fa4ebf79326e780c390304,,,,,,,,,,,,,,,,,,,,,650.8722,650.8722,650.8734,652.1757,1,0,right,0.778,,652.1774,653.7561,1,1,right,653.7577,653.7591,,1,,0,653.7592,653.7592,653.7601,655.2615,0,30,30,30,1,0.6,0.4,0.4,0.6,,,,,,,,,,,,,,,1.0585,,0.2,0.8,0.6,0.4,0.8,0.2,0.6,0.4,1,0,,,,,,,,,,,,
,,65fd910b6214e647ea9c6175,66fce1b157e3f6cf1e5b92db,2024-10-02_09h03.35.369,mdp,2024.2.1,Win32,40,66fa4ebf79326e780c390304,,,,,,,,,,,,,,,,,,,,,655.263,655.263,655.2651,656.365,1,1,right,0.5647,,656.3678,658.2709,1,1,right,658.2726,658.2736,,1,,0,658.2736,658.2736,658.2744,659.7762,0,31,31,31,1,0.6,0.4,0.4,0.6,,,,,,,,,,,,,,,1.3939,,0.2,0.8,0.6,0.4,0.8,0.2,0.6,0.4,1,0,,,,,,,,,,,,
,,65fd910b6214e647ea9c6175,66fce1b157e3f6cf1e5b92db,2024-10-02_09h03.35.369,mdp,2024.2.1,Win32,40,66fa4ebf79326e780c390304,,,,,,,,,,,,,,,,,,,,,659.777,659.7771,659.7784,660.7803,0,0,left,0.4938,,660.783,662.0839,1,0,right,662.0857,662.0866,,1,,1,662.0867,662.0867,662.0876,663.589,0,32,32,32,1,0.6,0.4,0.4,0.6,,,,,,,,,,,,,,,0.7771,,0.2,0.8,0.6,0.4,0.8,0.2,0.6,0.4,1,0,,,,,,,,,,,,
,,65fd910b6214e647ea9c6175,66fce1b157e3f6cf1e5b92db,2024-10-02_09h03.35.369,mdp,2024.2.1,Win32,40,66fa4ebf79326e780c390304,,,,,,,,,,,,,,,,,,,,,663.5903,663.5904,663.5925,664.5672,0,1,left,0.4437,,664.5688,666.5236,0,0,left,666.5251,666.5261,,0,,1,666.5261,666.5261,666.5271,668.0294,0,33,33,33,1,0.6,0.4,0.4,0.6,,,,,,,,,,,,,,,1.4362,,0.2,0.8,0.6,0.4,0.8,0.2,0.6,0.4,1,0,,,,,,,,,,,,
,,65fd910b6214e647ea9c6175,66fce1b157e3f6cf1e5b92db,2024-10-02_09h03.35.369,mdp,2024.2.1,Win32,40,66fa4ebf79326e780c390304,,,,,,,,,,,,,,,,,,,,,668.0304,668.0305,668.0331,669.3079,1,1,right,0.7339,,669.3094,670.6123,0,0,left,670.6141,670.6151,,0,,1,670.6151,670.6151,670.616,672.1171,0,34,34,34,1,0.6,0.4,0.4,0.6,,,,,,,,,,,,,,,0.7837,,0.2,0.8,0.6,0.4,0.8,0.2,0.6,0.4,1,0,,,,,,,,,,,,
,,65fd910b6214e647ea9c6175,66fce1b157e3f6cf1e5b92db,2024-10-02_09h03.35.369,mdp,2024.2.1,Win32,40,66fa4ebf79326e780c390304,,,,,,,,,,,,,,,,,,,,,672.1179,672.1179,672.1193,672.9198,1,0,right,0.2839,,672.9214,673.9736,0,0,left,673.9753,673.9763,,1,,1,673.9763,673.9764,673.9771,675.4782,0,35,35,35,1,0.4,0.6,0.8,0.2,,,,,,,,,,,,,,,0.5386,,0.2,0.8,0.6,0.4,0.8,0.2,0.6,0.4,1,0,,,,,,,,,,,,
,,65fd910b6214e647ea9c6175,66fce1b157e3f6cf1e5b92db,2024-10-02_09h03.35.369,mdp,2024.2.1,Win32,40,66fa4ebf79326e780c390304,,,,,,,,,,,,,,,,,,,,,675.479,675.479,675.4807,677.1592,0,1,left,1.1673,,677.1609,678.7147,1,1,right,678.7172,678.7192,,1,,0,678.7193,678.7194,678.7208,680.2192,0,36,36,36,1,0.4,0.6,0.8,0.2,,,,,,,,,,,,,,,1.0274,,0.2,0.8,0.6,0.4,0.4,0.6,0.2,0.8,1,0,,,,,,,,,,,,
,,65fd910b6214e647ea9c6175,66fce1b157e3f6cf1e5b92db,2024-10-02_09h03.35.369,mdp,2024.2.1,Win32,40,66fa4ebf79326e780c390304,,,,,,,,,,,,,,,,,,,,,680.22,680.22,680.2216,681.4238,1,0,right,0.6977,,681.4253,682.7779,1,0,right,682.7796,682.7808,,1,,1,682.7809,682.7809,682.7817,684.2826,0,37,37,37,1,0.4,0.6,0.8,0.2,,,,,,,,,,,,,,,0.8371,,0.2,0.8,0.6,0.4,0.8,0.2,0.4,0.6,1,0,,,,,,,,,,,,
,,65fd910b6214e647ea9c6175,66fce1b157e3f6cf1e5b92db,2024-10-02_09h03.35.369,mdp,2024.2.1,Win32,40,66fa4ebf79326e780c390304,,,,,,,,,,,,,,,,,,,,,684.2834,684.2834,684.2846,685.4869,1,1,right,0.6763,,685.4884,686.6907,0,0,left,686.6924,686.6934,,0,,1,686.6935,686.6935,686.6942,688.1958,0,38,38,38,1,0.4,0.6,0.8,0.2,,,,,,,,,,,,,,,0.6762,,0.2,0.8,0.6,0.4,0.8,0.2,0.4,0.6,1,0,,,,,,,,,,,,
,,65fd910b6214e647ea9c6175,66fce1b157e3f6cf1e5b92db,2024-10-02_09h03.35.369,mdp,2024.2.1,Win32,40,66fa4ebf79326e780c390304,,,,,,,,,,,,,,,,,,,,,688.1965,688.1965,688.1977,689.2241,1,0,right,0.5151,,689.2257,690.8798,0,1,left,690.8812,690.8822,,1,,0,690.8823,690.8823,690.8831,692.3847,0,39,39,39,1,0.4,0.6,0.8,0.2,,,,,,,,,,,,,,,1.1285,,0.2,0.8,0.6,0.4,0.8,0.2,0.4,0.6,1,0,,,,,,,,,,,,
,,65fd910b6214e647ea9c6175,66fce1b157e3f6cf1e5b92db,2024-10-02_09h03.35.369,mdp,2024.2.1,Win32,40,66fa4ebf79326e780c390304,,,,,,,,,,,,,,,,,,,,,692.3855,692.3855,692.3869,693.5137,0,1,left,0.6074,,693.5153,694.6674,1,1,right,694.6691,694.67,,1,,0,694.6701,694.6702,694.671,696.1722,0,40,40,40,1,0.4,0.6,0.8,0.2,,,,,,,,,,,,,,,0.6306,,0.2,0.8,0.6,0.4,0.8,0.2,0.4,0.6,1,0,,,,,,,,,,,,
,,65fd910b6214e647ea9c6175,66fce1b157e3f6cf1e5b92db,2024-10-02_09h03.35.369,mdp,2024.2.1,Win32,40,66fa4ebf79326e780c390304,,,,,,,,,,,,,,,,,,,,,696.1729,696.1729,696.1743,697.2761,0,0,left,0.579,,697.2776,698.6059,1,0,right,698.6084,698.6099,,0,,1,698.61,698.61,698.6113,700.1105,0,41,41,41,1,0.4,0.6,0.8,0.2,,,,,,,,,,,,,,,0.8,,0.2,0.8,0.6,0.4,0.8,0.2,0.4,0.6,1,0,,,,,,,,,,,,
,,65fd910b6214e647ea9c6175,66fce1b157e3f6cf1e5b92db,2024-10-02_09h03.35.369,mdp,2024.2.1,Win32,40,66fa4ebf79326e780c390304,,,,,,,,,,,,,,,,,,,,,700.1111,700.1113,700.1128,701.2893,0,1,left,0.6545,,701.2909,703.221,1,0,right,703.2225,703.2234,,1,,1,703.2235,703.2235,703.2245,704.7261,0,42,42,42,1,0.4,0.6,0.8,0.2,,,,,,,,,,,,,,,1.4163,,0.2,0.8,0.6,0.4,0.8,0.2,0.4,0.6,1,0,,,,,,,,,,,,
,,65fd910b6214e647ea9c6175,66fce1b157e3f6cf1e5b92db,2024-10-02_09h03.35.369,mdp,2024.2.1,Win32,40,66fa4ebf79326e780c390304,,,,,,,,,,,,,,,,,,,,,704.7273,704.7273,704.73,705.9049,0,1,left,0.6527,,705.9066,708.012,0,1,left,708.0136,708.0147,,0,,0,708.0147,708.0147,708.0155,709.5166,0,43,43,43,1,0.4,0.6,0.8,0.2,,,,,,,,,,,,,,,1.5797,,0.2,0.8,0.6,0.4,0.8,0.2,0.4,0.6,1,0,,,,,,,,,,,,
,,65fd910b6214e647ea9c6175,66fce1b157e3f6cf1e5b92db,2024-10-02_09h03.35.369,mdp,2024.2.1,Win32,40,66fa4ebf79326e780c390304,,,,,,,,,,,,,,,,,,,,,709.5174,709.5175,709.5189,710.8211,1,0,right,0.7898,,710.8228,712.4522,1,1,right,712.4554,712.4569,,0,,0,712.4571,712.4571,712.4586,713.9566,0,44,44,44,1,0.4,0.6,0.8,0.2,,,,,,,,,,,,,,,1.0981,,0.2,0.8,0.6,0.4,0.8,0.2,0.4,0.6,1,0,,,,,,,,,,,,
,,65fd910b6214e647ea9c6175,66fce1b157e3f6cf1e5b92db,2024-10-02_09h03.35.369,mdp,2024.2.1,Win32,40,66fa4ebf79326e780c390304,,,,,,,,,,,,,,,,,,,,,713.9574,713.9575,713.9594,715.2357,0,0,left,0.7553,,715.2374,717.5439,1,0,right,717.5454,717.5464,,1,,1,717.5464,717.5464,717.5473,719.0484,0,45,45,45,1,0.4,0.6,0.8,0.2,,,,,,,,,,,,,,,1.7863,,0.2,0.8,0.6,0.4,0.8,0.2,0.4,0.6,1,0,,,,,,,,,,,,
,,65fd910b6214e647ea9c6175,66fce1b157e3f6cf1e5b92db,2024-10-02_09h03.35.369,mdp,2024.2.1,Win32,40,66fa4ebf79326e780c390304,,,,,,,,,,,,,,,,,,,,,719.0491,719.0491,719.0505,720.0018,0,1,left,0.4337,,720.0038,721.231,1,0,right,721.2325,721.2336,,0,,1,721.2336,721.2336,721.2343,722.7357,0,46,46,46,1,0.4,0.6,0.8,0.2,,,,,,,,,,,,,,,0.6973,,0.2,0.8,0.6,0.4,0.8,0.2,0.4,0.6,1,0,,,,,,,,,,,,
,,65fd910b6214e647ea9c6175,66fce1b157e3f6cf1e5b92db,2024-10-02_09h03.35.369,mdp,2024.2.1,Win32,40,66fa4ebf79326e780c390304,,,,,,,,,,,,,,,,,,,,,722.7364,722.7364,722.7377,723.6895,0,1,left,0.4253,,723.6911,725.4701,0,0,left,725.4719,725.4729,,0,,1,725.473,725.473,725.4738,726.9751,0,47,47,47,1,0.4,0.6,0.8,0.2,,,,,,,,,,,,,,,1.2533,,0.8,0.2,0.4,0.6,0.8,0.2,0.4,0.6,1,0,,,,,,,,,,,,
,,65fd910b6214e647ea9c6175,66fce1b157e3f6cf1e5b92db,2024-10-02_09h03.35.369,mdp,2024.2.1,Win32,40,66fa4ebf79326e780c390304,,,,,,,,,,,,,,,,,,,,,726.9766,726.9766,726.9792,728.1042,1,0,right,0.5805,,728.1068,730.0855,0,0,left,730.087,730.0881,,0,,1,730.0882,730.0883,730.0892,731.5904,0,48,48,48,1,0.4,0.6,0.8,0.2,,,,,,,,,,,,,,,1.452,,0.8,0.2,0.4,0.6,0.8,0.2,0.4,0.6,1,0,,,,,,,,,,,,
,,65fd910b6214e647ea9c6175,66fce1b157e3f6cf1e5b92db,2024-10-02_09h03.35.369,mdp,2024.2.1,Win32,40,66fa4ebf79326e780c390304,,,,,,,,,,,,,,,,,,,,,731.5911,731.5911,731.5927,732.7192,1,0,right,0.6027,,732.7211,734.1487,0,1,left,734.1505,734.1515,,0,,0,734.1516,734.1516,734.1523,735.6539,0,49,49,49,1,0.4,0.6,0.8,0.2,,,,,,,,,,,,,,,0.9198,,0.8,0.2,0.4,0.6,0.8,0.2,0.4,0.6,1,0,,,,,,,,,,,,
,,65fd910b6214e647ea9c6175,66fce1b157e3f6cf1e5b92db,2024-10-02_09h03.35.369,mdp,2024.2.1,Win32,40,66fa4ebf79326e780c390304,,,,,,,,,,,,,,,,,,,,,,,,,,,,,,,,,,,,,,,,,,,,,,,,,,,,,,,,735.6541,794.1739,0,1,1,6,1,imgs/cat.png,imgs/lion.png,imgs/goat.png,imgs/rabbit.png,imgs/horse.png,,,,,,,,,,,,,,,,,,,,,,,,
,,65fd910b6214e647ea9c6175,66fce1b157e3f6cf1e5b92db,2024-10-02_09h03.35.369,mdp,2024.2.1,Win32,40,66fa4ebf79326e780c390304,,,,,,,,,,,,,,3,seqs/st3seq27.csv,794.1759,798.5386,space,3.8531,,798.5481,798.5481,798.5491,800.6958,1,0,right,1.601,,800.6974,802.3259,1,0,right,802.3276,804.6339,0,1,left,0,804.6341,804.6341,804.6355,806.1387,0,0,0,0,1,0.8,0.2,0.6,0.4,,,,,,,,,,,,,,,1.1108,,0.4,0.6,0.8,0.2,0.8,0.2,0.2,0.8,,,1.792,,0.6,0.4,0.8,0.2,0.4,0.6,0.4,0.6,1,0
,,65fd910b6214e647ea9c6175,66fce1b157e3f6cf1e5b92db,2024-10-02_09h03.35.369,mdp,2024.2.1,Win32,40,66fa4ebf79326e780c390304,,,,,,,,,,,,,,,,,,,,,806.1395,806.1396,806.1412,807.3176,1,1,right,0.6675,,807.3192,809.1739,0,0,left,809.1755,810.3779,1,0,right,1,810.3783,810.3783,810.3796,811.8826,0,1,1,1,1,0.8,0.2,0.6,0.4,,,,,,,,,,,,,,,1.3253,,0.4,0.6,0.8,0.2,0.8,0.2,0.2,0.8,,,0.6763,,0.6,0.4,0.8,0.2,0.4,0.6,0.4,0.6,1,0
,,65fd910b6214e647ea9c6175,66fce1b157e3f6cf1e5b92db,2024-10-02_09h03.35.369,mdp,2024.2.1,Win32,40,66fa4ebf79326e780c390304,,,,,,,,,,,,,,,,,,,,,811.8834,811.8834,811.8849,813.6138,1,0,right,1.2205,,813.6155,814.8429,0,1,left,814.8445,816.9496,1,1,right,0,816.9497,816.9497,816.9514,818.4547,0,2,2,2,1,0.8,0.2,0.6,0.4,,,,,,,,,,,,,,,0.6974,,0.4,0.6,0.8,0.2,0.8,0.2,0.2,0.8,,,1.5747,,0.6,0.4,0.8,0.2,0.4,0.6,0.4,0.6,1,0
,,65fd910b6214e647ea9c6175,66fce1b157e3f6cf1e5b92db,2024-10-02_09h03.35.369,mdp,2024.2.1,Win32,40,66fa4ebf79326e780c390304,,,,,,,,,,,,,,,,,,,,,818.4555,818.4555,818.457,819.7344,1,0,right,0.7599,,819.7357,820.9633,0,1,left,820.9647,822.9197,0,0,left,1,822.92,822.92,822.9216,824.425,0,3,3,3,1,0.8,0.2,0.6,0.4,,,,,,,,,,,,,,,0.7137,,0.4,0.6,0.8,0.2,0.8,0.2,0.2,0.8,,,1.434,,0.6,0.4,0.8,0.2,0.4,0.6,0.4,0.6,1,0
,,65fd910b6214e647ea9c6175,66fce1b157e3f6cf1e5b92db,2024-10-02_09h03.35.369,mdp,2024.2.1,Win32,40,66fa4ebf79326e780c390304,,,,,,,,,,,,,,,,,,,,,824.4266,824.4268,824.4296,826.106,0,0,left,1.1311,,826.1089,827.8111,1,0,right,827.8128,830.3194,1,0,right,1,830.3196,830.3197,830.3211,831.824,0,4,4,4,1,0.8,0.2,0.6,0.4,,,,,,,,,,,,,,,1.1924,,0.4,0.6,0.8,0.2,0.8,0.2,0.2,0.8,,,1.9881,,0.6,0.4,0.8,0.2,0.8,0.2,0.2,0.8,1,0
,,65fd910b6214e647ea9c6175,66fce1b157e3f6cf1e5b92db,2024-10-02_09h03.35.369,mdp,2024.2.1,Win32,40,66fa4ebf79326e780c390304,,,,,,,,,,,,,,,,,,,,,831.825,831.825,831.827,833.0036,1,0,right,0.6528,,833.0053,834.2073,1,0,right,834.209,835.4119,0,1,left,0,835.4124,835.4125,835.4145,836.9161,0,5,5,5,1,0.8,0.2,0.6,0.4,,,,,,,,,,,,,,,0.6865,,0.4,0.6,0.8,0.2,0.8,0.2,0.2,0.8,,,0.6778,,0.6,0.4,0.8,0.2,0.8,0.2,0.2,0.8,1,0
,,65fd910b6214e647ea9c6175,66fce1b157e3f6cf1e5b92db,2024-10-02_09h03.35.369,mdp,2024.2.1,Win32,40,66fa4ebf79326e780c390304,,,,,,,,,,,,,,,,,,,,,836.9169,836.9169,836.9185,838.0702,1,1,right,0.626,,838.0719,839.5502,1,1,right,839.5518,841.1053,0,0,left,1,841.1054,841.1054,841.1071,842.61,0,6,6,6,1,0.8,0.2,0.6,0.4,,,,,,,,,,,,,,,0.9628,,0.4,0.6,0.8,0.2,0.8,0.2,0.2,0.8,,,1.0239,,0.6,0.4,0.8,0.2,0.8,0.2,0.2,0.8,1,0
,,65fd910b6214e647ea9c6175,66fce1b157e3f6cf1e5b92db,2024-10-02_09h03.35.369,mdp,2024.2.1,Win32,40,66fa4ebf79326e780c390304,,,,,,,,,,,,,,,,,,,,,842.6109,842.6109,842.6122,843.9145,1,0,right,0.7955,,843.9161,845.1186,1,0,right,845.1205,848.1284,1,0,right,1,848.1285,848.1285,848.13,849.6336,0,7,7,7,1,0.8,0.2,0.6,0.4,,,,,,,,,,,,,,,0.6741,,0.4,0.6,0.8,0.2,0.8,0.2,0.2,0.8,,,2.4931,,0.6,0.4,0.8,0.2,0.8,0.2,0.2,0.8,1,0
,,65fd910b6214e647ea9c6175,66fce1b157e3f6cf1e5b92db,2024-10-02_09h03.35.369,mdp,2024.2.1,Win32,40,66fa4ebf79326e780c390304,,,,,,,,,,,,,,,,,,,,,849.6344,849.6344,849.6358,850.4616,0,0,left,0.3031,,850.4636,851.5902,1,0,right,851.5918,853.3461,0,1,left,0,853.3462,853.3463,853.3481,854.8508,0,8,8,8,1,0.8,0.2,0.6,0.4,,,,,,,,,,,,,,,0.6161,,0.4,0.6,0.8,0.2,0.8,0.2,0.2,0.8,,,1.2475,,0.6,0.4,0.8,0.2,0.8,0.2,0.2,0.8,1,0
,,65fd910b6214e647ea9c6175,66fce1b157e3f6cf1e5b92db,2024-10-02_09h03.35.369,mdp,2024.2.1,Win32,40,66fa4ebf79326e780c390304,,,,,,,,,,,,,,,,,,,,,854.8516,854.8516,854.853,856.0047,1,0,right,0.6406,,856.0064,857.4604,1,0,right,857.4632,858.5133,0,0,left,1,858.5135,858.5135,858.5149,860.0182,0,9,9,9,1,0.8,0.2,0.6,0.4,,,,,,,,,,,,,,,0.9402,,0.4,0.6,0.8,0.2,0.8,0.2,0.2,0.8,,,0.5423,,0.6,0.4,0.8,0.2,0.8,0.2,0.2,0.8,1,0
,,65fd910b6214e647ea9c6175,66fce1b157e3f6cf1e5b92db,2024-10-02_09h03.35.369,mdp,2024.2.1,Win32,40,66fa4ebf79326e780c390304,,,,,,,,,,,,,,,,,,,,,860.019,860.019,860.0202,861.147,1,0,right,0.6165,,861.1487,862.4764,1,0,right,862.4782,864.1819,0,1,left,0,864.182,864.182,864.1836,865.6871,0,10,10,10,1,0.8,0.2,0.6,0.4,,,,,,,,,,,,,,,0.818,,0.4,0.6,0.8,0.2,0.8,0.2,0.2,0.8,,,1.1791,,0.6,0.4,0.8,0.2,0.8,0.2,0.2,0.8,1,0
,,65fd910b6214e647ea9c6175,66fce1b157e3f6cf1e5b92db,2024-10-02_09h03.35.369,mdp,2024.2.1,Win32,40,66fa4ebf79326e780c390304,,,,,,,,,,,,,,,,,,,,,865.688,865.6881,865.6902,866.8411,1,1,right,0.6414,,866.8428,867.9447,1,1,right,867.9464,869.2491,0,1,left,0,869.2493,869.2493,869.2507,870.7537,0,11,11,11,1,0.6,0.4,0.2,0.8,,,,,,,,,,,,,,,0.5703,,0.4,0.6,0.8,0.2,0.8,0.2,0.2,0.8,,,0.7765,,0.6,0.4,0.8,0.2,0.8,0.2,0.2,0.8,1,0
,,65fd910b6214e647ea9c6175,66fce1b157e3f6cf1e5b92db,2024-10-02_09h03.35.369,mdp,2024.2.1,Win32,40,66fa4ebf79326e780c390304,,,,,,,,,,,,,,,,,,,,,870.7547,870.7547,870.7559,872.1339,1,0,right,0.8613,,872.1365,873.3383,1,0,right,873.341,874.3412,1,1,right,0,874.3414,874.3414,874.3428,875.8457,0,12,12,12,1,0.8,0.2,0.6,0.4,,,,,,,,,,,,,,,0.6864,,0.4,0.6,0.8,0.2,0.8,0.2,0.2,0.8,,,0.4796,,0.6,0.4,0.8,0.2,0.8,0.2,0.2,0.8,1,0
,,65fd910b6214e647ea9c6175,66fce1b157e3f6cf1e5b92db,2024-10-02_09h03.35.369,mdp,2024.2.1,Win32,40,66fa4ebf79326e780c390304,,,,,,,,,,,,,,,,,,,,,875.8465,875.8466,875.8476,877.2758,1,0,right,0.9031,,877.2775,878.4045,1,0,right,878.406,879.3829,0,1,left,0,879.3831,879.3831,879.3845,880.8877,0,13,13,13,1,0.8,0.2,0.6,0.4,,,,,,,,,,,,,,,0.6053,,0.4,0.6,0.8,0.2,0.8,0.2,0.2,0.8,,,0.4561,,0.6,0.4,0.8,0.2,0.8,0.2,0.2,0.8,1,0
,,65fd910b6214e647ea9c6175,66fce1b157e3f6cf1e5b92db,2024-10-02_09h03.35.369,mdp,2024.2.1,Win32,40,66fa4ebf79326e780c390304,,,,,,,,,,,,,,,,,,,,,880.8886,880.8886,880.8899,882.0167,1,1,right,0.621,,882.0186,883.0708,1,0,right,883.073,884.2991,1,0,right,1,884.2992,884.2992,884.3009,885.804,0,14,14,14,1,0.6,0.4,0.2,0.8,,,,,,,,,,,,,,,0.5381,,0.4,0.6,0.8,0.2,0.8,0.2,0.2,0.8,,,0.7162,,0.6,0.4,0.8,0.2,0.8,0.2,0.2,0.8,1,0
,,65fd910b6214e647ea9c6175,66fce1b157e3f6cf1e5b92db,2024-10-02_09h03.35.369,mdp,2024.2.1,Win32,40,66fa4ebf79326e780c390304,,,,,,,,,,,,,,,,,,,,,885.8049,885.805,885.8062,886.7826,0,0,left,0.4704,,886.7843,887.9113,1,0,right,887.9129,888.9397,1,0,right,1,888.9398,888.9398,888.9414,890.4443,0,15,15,15,1,0.6,0.4,0.2,0.8,,,,,,,,,,,,,,,0.6136,,0.8,0.2,0.6,0.4,0.8,0.2,0.2,0.8,,,0.5104,,0.6,0.4,0.8,0.2,0.8,0.2,0.2,0.8,1,0
,,65fd910b6214e647ea9c6175,66fce1b157e3f6cf1e5b92db,2024-10-02_09h03.35.369,mdp,2024.2.1,Win32,40,66fa4ebf79326e780c390304,,,,,,,,,,,,,,,,,,,,,890.4452,890.4452,890.4469,891.3978,1,1,right,0.4295,,891.3993,892.6019,1,0,right,892.6036,893.8557,0,0,left,1,893.8558,893.8559,893.8574,895.3607,0,16,16,16,1,0.6,0.4,0.2,0.8,,,,,,,,,,,,,,,0.6723,,0.8,0.2,0.6,0.4,0.8,0.2,0.2,0.8,,,0.7379,,0.6,0.4,0.8,0.2,0.8,0.2,0.2,0.8,1,0
,,65fd910b6214e647ea9c6175,66fce1b157e3f6cf1e5b92db,2024-10-02_09h03.35.369,mdp,2024.2.1,Win32,40,66fa4ebf79326e780c390304,,,,,,,,,,,,,,,,,,,,,895.3615,895.3616,895.3628,896.6905,1,1,right,0.811,,896.6922,897.8694,1,1,right,897.8711,899.1737,0,0,left,1,899.174,899.174,899.1754,900.6785,0,17,17,17,1,0.6,0.4,0.2,0.8,,,,,,,,,,,,,,,0.6577,,0.8,0.2,0.6,0.4,0.8,0.2,0.2,0.8,,,0.7874,,0.6,0.4,0.8,0.2,0.8,0.2,0.2,0.8,1,0
,,65fd910b6214e647ea9c6175,66fce1b157e3f6cf1e5b92db,2024-10-02_09h03.35.369,mdp,2024.2.1,Win32,40,66fa4ebf79326e780c390304,,,,,,,,,,,,,,,,,,,,,900.6793,900.6793,900.6806,901.9829,1,1,right,0.7803,,901.9844,903.1618,0,0,left,903.1633,904.2907,1,0,right,1,904.2908,904.2908,904.2924,905.7955,0,18,18,18,1,0.6,0.4,0.2,0.8,,,,,,,,,,,,,,,0.6671,,0.8,0.2,0.6,0.4,0.8,0.2,0.2,0.8,,,0.6101,,0.6,0.4,0.8,0.2,0.8,0.2,0.2,0.8,1,0
,,65fd910b6214e647ea9c6175,66fce1b157e3f6cf1e5b92db,2024-10-02_09h03.35.369,mdp,2024.2.1,Win32,40,66fa4ebf79326e780c390304,,,,,,,,,,,,,,,,,,,,,905.7963,905.7963,905.7977,907.1501,1,1,right,0.8352,,907.1519,908.3042,0,1,left,908.3057,909.7089,0,0,left,1,909.7091,909.7091,909.7104,911.2136,0,19,19,19,1,0.6,0.4,0.2,0.8,,,,,,,,,,,,,,,0.6418,,0.8,0.2,0.6,0.4,0.8,0.2,0.2,0.8,,,0.8732,,0.6,0.4,0.8,0.2,0.8,0.2,0.2,0.8,1,0
,,65fd910b6214e647ea9c6175,66fce1b157e3f6cf1e5b92db,2024-10-02_09h03.35.369,mdp,2024.2.1,Win32,40,66fa4ebf79326e780c390304,,,,,,,,,,,,,,,,,,,,,911.2145,911.2145,911.2157,912.1671,1,1,right,0.4383,,912.1687,913.2213,1,1,right,913.2228,914.4495,1,1,right,0,914.4497,914.4497,914.4514,915.9546,0,20,20,20,1,0.6,0.4,0.2,0.8,,,,,,,,,,,,,,,0.5336,,0.8,0.2,0.6,0.4,0.8,0.2,0.2,0.8,,,0.717,,0.6,0.4,0.8,0.2,0.8,0.2,0.2,0.8,1,0
,,65fd910b6214e647ea9c6175,66fce1b157e3f6cf1e5b92db,2024-10-02_09h03.35.369,mdp,2024.2.1,Win32,40,66fa4ebf79326e780c390304,,,,,,,,,,,,,,,,,,,,,915.9553,915.9554,915.9568,916.8075,1,1,right,0.3412,,916.809,918.1871,1,1,right,918.1885,919.2409,1,0,right,1,919.241,919.241,919.2427,920.7455,0,21,21,21,1,0.6,0.4,0.2,0.8,,,,,,,,,,,,,,,0.8651,,0.8,0.2,0.6,0.4,0.8,0.2,0.2,0.8,,,0.5254,,0.6,0.4,0.8,0.2,0.8,0.2,0.2,0.8,1,0
,,65fd910b6214e647ea9c6175,66fce1b157e3f6cf1e5b92db,2024-10-02_09h03.35.369,mdp,2024.2.1,Win32,40,66fa4ebf79326e780c390304,,,,,,,,,,,,,,,,,,,,,920.7464,920.7464,920.7477,921.6487,1,0,right,0.3837,,921.6505,922.7521,0,0,left,922.7537,923.8559,1,1,right,0,923.8561,923.8561,923.858,925.3607,0,22,22,22,1,0.6,0.4,0.2,0.8,,,,,,,,,,,,,,,0.5778,,0.8,0.2,0.6,0.4,0.8,0.2,0.2,0.8,,,0.5714,,0.8,0.2,0.4,0.6,0.8,0.2,0.2,0.8,1,0
,,65fd910b6214e647ea9c6175,66fce1b157e3f6cf1e5b92db,2024-10-02_09h03.35.369,mdp,2024.2.1,Win32,40,66fa4ebf79326e780c390304,,,,,,,,,,,,,,,,,,,,,925.3614,925.3614,925.3631,926.7153,0,0,left,0.8477,,926.7168,928.1455,0,1,left,928.1469,929.249,1,0,right,1,929.2491,929.2492,929.2509,930.7536,0,23,23,23,1,0.6,0.4,0.2,0.8,,,,,,,,,,,,,,,0.9108,,0.8,0.2,0.6,0.4,0.8,0.2,0.2,0.8,,,0.5857,,0.2,0.8,0.8,0.2,0.8,0.2,0.2,0.8,1,0
,,65fd910b6214e647ea9c6175,66fce1b157e3f6cf1e5b92db,2024-10-02_09h03.35.369,mdp,2024.2.1,Win32,40,66fa4ebf79326e780c390304,,,,,,,,,,,,,,,,,,,,,930.7544,930.7544,930.7558,932.0834,0,0,left,0.82,,932.0851,933.4125,1,0,right,933.4143,935.0435,0,1,left,0,935.0436,935.0436,935.0452,936.5481,0,24,24,24,1,0.6,0.4,0.2,0.8,,,,,,,,,,,,,,,0.8012,,0.8,0.2,0.6,0.4,0.8,0.2,0.2,0.8,,,1.0988,,0.2,0.8,0.8,0.2,0.8,0.2,0.2,0.8,1,0
,,65fd910b6214e647ea9c6175,66fce1b157e3f6cf1e5b92db,2024-10-02_09h03.35.369,mdp,2024.2.1,Win32,40,66fa4ebf79326e780c390304,,,,,,,,,,,,,,,,,,,,,936.5489,936.549,936.5511,938.0281,1,1,right,0.9536,,938.0298,939.1068,1,1,right,939.1084,940.2855,0,1,left,0,940.2856,940.2856,940.2872,941.7905,0,25,25,25,1,0.6,0.4,0.2,0.8,,,,,,,,,,,,,,,0.5564,,0.8,0.2,0.6,0.4,0.8,0.2,0.2,0.8,,,0.6616,,0.2,0.8,0.8,0.2,0.4,0.6,0.8,0.2,1,0
,,65fd910b6214e647ea9c6175,66fce1b157e3f6cf1e5b92db,2024-10-02_09h03.35.369,mdp,2024.2.1,Win32,40,66fa4ebf79326e780c390304,,,,,,,,,,,,,,,,,,,,,941.7914,941.7914,941.7933,944.4998,1,1,right,2.1822,,944.5026,945.5281,1,1,right,945.5301,946.8076,0,0,left,1,946.8078,946.8078,946.8091,948.3123,0,26,26,26,1,0.6,0.4,0.2,0.8,,,,,,,,,,,,,,,0.5005,,0.8,0.2,0.6,0.4,0.8,0.2,0.2,0.8,,,0.7732,,0.2,0.8,0.8,0.2,0.4,0.6,0.8,0.2,1,0
,,65fd910b6214e647ea9c6175,66fce1b157e3f6cf1e5b92db,2024-10-02_09h03.35.369,mdp,2024.2.1,Win32,40,66fa4ebf79326e780c390304,,,,,,,,,,,,,,,,,,,,,948.3131,948.3131,948.3145,949.0146,0,0,left,0.1814,,949.0168,950.3696,0,0,left,950.3711,951.4479,1,0,right,1,951.4479,951.4479,951.4498,952.9526,0,27,27,27,1,0.6,0.4,0.2,0.8,,,,,,,,,,,,,,,0.8267,,0.8,0.2,0.6,0.4,0.8,0.2,0.2,0.8,,,0.5532,,0.2,0.8,0.8,0.2,0.4,0.6,0.8,0.2,1,0
,,65fd910b6214e647ea9c6175,66fce1b157e3f6cf1e5b92db,2024-10-02_09h03.35.369,mdp,2024.2.1,Win32,40,66fa4ebf79326e780c390304,,,,,,,,,,,,,,,,,,,,,952.9533,952.9534,952.9547,954.4329,0,1,left,0.9685,,954.4347,955.7372,1,1,right,955.7387,956.7906,0,1,left,0,956.7908,956.7908,956.7924,958.2954,0,28,28,28,1,0.6,0.4,0.2,0.8,,,,,,,,,,,,,,,0.7859,,0.8,0.2,0.6,0.4,0.8,0.2,0.2,0.8,,,0.5236,,0.2,0.8,0.8,0.2,0.4,0.6,0.8,0.2,1,0
,,65fd910b6214e647ea9c6175,66fce1b157e3f6cf1e5b92db,2024-10-02_09h03.35.369,mdp,2024.2.1,Win32,40,66fa4ebf79326e780c390304,,,,,,,,,,,,,,,,,,,,,958.2963,958.2964,958.2978,959.7255,1,1,right,0.9017,,959.7271,961.1802,0,0,left,961.1817,962.6099,1,0,right,1,962.6101,962.6101,962.612,964.115,0,29,29,29,1,0.6,0.4,0.2,0.8,,,,,,,,,,,,,,,0.9263,,0.8,0.2,0.6,0.4,0.8,0.2,0.2,0.8,,,0.9082,,0.2,0.8,0.8,0.2,0.4,0.6,0.8,0.2,1,0
,,65fd910b6214e647ea9c6175,66fce1b157e3f6cf1e5b92db,2024-10-02_09h03.35.369,mdp,2024.2.1,Win32,40,66fa4ebf79326e780c390304,,,,,,,,,,,,,,,,,,,,,964.1158,964.1158,964.1171,965.319,0,1,left,0.6762,,965.3211,966.4477,1,0,right,966.4493,967.3758,0,1,left,0,967.3759,967.376,967.3779,968.8809,0,30,30,30,1,0.6,0.4,0.2,0.8,,,,,,,,,,,,,,,0.6038,,0.8,0.2,0.6,0.4,0.8,0.2,0.2,0.8,,,0.4111,,0.2,0.8,0.8,0.2,0.4,0.6,0.8,0.2,1,0
,,65fd910b6214e647ea9c6175,66fce1b157e3f6cf1e5b92db,2024-10-02_09h03.35.369,mdp,2024.2.1,Win32,40,66fa4ebf79326e780c390304,,,,,,,,,,,,,,,,,,,,,968.8829,968.8829,968.8861,969.8341,1,1,right,0.4086,,969.8356,970.7371,1,1,right,970.7386,971.64,1,1,right,0,971.6401,971.6402,971.642,973.1448,0,31,31,31,1,0.6,0.4,0.2,0.8,,,,,,,,,,,,,,,0.3891,,0.8,0.2,0.6,0.4,0.8,0.2,0.2,0.8,,,0.3735,,0.2,0.8,0.8,0.2,0.4,0.6,0.8,0.2,1,0
,,65fd910b6214e647ea9c6175,66fce1b157e3f6cf1e5b92db,2024-10-02_09h03.35.369,mdp,2024.2.1,Win32,40,66fa4ebf79326e780c390304,,,,,,,,,,,,,,,,,,,,,973.1456,973.1456,973.1472,974.2489,0,1,left,0.5801,,974.2505,975.1024,1,0,right,975.1049,976.1803,0,1,left,0,976.1804,976.1804,976.182,977.6851,0,32,32,32,1,0.6,0.4,0.2,0.8,,,,,,,,,,,,,,,0.3349,,0.6,0.4,0.8,0.2,0.8,0.2,0.2,0.8,,,0.5598,,0.2,0.8,0.8,0.2,0.4,0.6,0.8,0.2,1,0
,,65fd910b6214e647ea9c6175,66fce1b157e3f6cf1e5b92db,2024-10-02_09h03.35.369,mdp,2024.2.1,Win32,40,66fa4ebf79326e780c390304,,,,,,,,,,,,,,,,,,,,,977.6859,977.6859,977.6873,979.0399,1,1,right,0.8385,,979.0424,980.3943,1,0,right,980.3961,982.7774,1,0,right,1,982.7775,982.7775,982.7791,984.2819,0,33,33,33,1,0.6,0.4,0.2,0.8,,,,,,,,,,,,,,,0.829,,0.6,0.4,0.8,0.2,0.8,0.2,0.2,0.8,,,1.8736,,0.2,0.8,0.8,0.2,0.4,0.6,0.8,0.2,1,0
,,65fd910b6214e647ea9c6175,66fce1b157e3f6cf1e5b92db,2024-10-02_09h03.35.369,mdp,2024.2.1,Win32,40,66fa4ebf79326e780c390304,,,,,,,,,,,,,,,,,,,,,984.2827,984.2828,984.2843,985.5363,1,1,right,0.7303,,985.538,986.4395,0,0,left,986.441,987.5433,1,0,right,1,987.5437,987.5437,987.5462,989.0478,0,34,34,34,1,0.6,0.4,0.2,0.8,,,,,,,,,,,,,,,0.3871,,0.6,0.4,0.8,0.2,0.8,0.2,0.2,0.8,,,0.5789,,0.2,0.8,0.8,0.2,0.4,0.6,0.8,0.2,1,0
,,65fd910b6214e647ea9c6175,66fce1b157e3f6cf1e5b92db,2024-10-02_09h03.35.369,mdp,2024.2.1,Win32,40,66fa4ebf79326e780c390304,,,,,,,,,,,,,,,,,,,,,989.0488,989.0488,989.0507,990.1267,0,0,left,0.5584,,990.1282,991.2303,1,0,right,991.2319,992.3089,0,1,left,0,992.3091,992.3091,992.3108,993.8139,0,35,35,35,1,0.6,0.4,0.2,0.8,,,,,,,,,,,,,,,0.5819,,0.6,0.4,0.8,0.2,0.8,0.2,0.2,0.8,,,0.5688,,0.2,0.8,0.8,0.2,0.4,0.6,0.8,0.2,1,0
,,65fd910b6214e647ea9c6175,66fce1b157e3f6cf1e5b92db,2024-10-02_09h03.35.369,mdp,2024.2.1,Win32,40,66fa4ebf79326e780c390304,,,,,,,,,,,,,,,,,,,,,993.8147,993.8147,993.8162,995.0683,1,1,right,0.7281,,995.0701,996.0713,0,0,left,996.073,997.3007,1,0,right,1,997.3011,997.3011,997.303,998.8056,0,36,36,36,1,0.6,0.4,0.2,0.8,,,,,,,,,,,,,,,0.4758,,0.6,0.4,0.8,0.2,0.8,0.2,0.2,0.8,,,0.7027,,0.2,0.8,0.8,0.2,0.4,0.6,0.8,0.2,1,0
,,65fd910b6214e647ea9c6175,66fce1b157e3f6cf1e5b92db,2024-10-02_09h03.35.369,mdp,2024.2.1,Win32,40,66fa4ebf79326e780c390304,,,,,,,,,,,,,,,,,,,,,998.8063,998.8064,998.8078,1001.1134,0,0,left,1.7884,,1001.115,1002.4177,1,1,right,1002.4194,1003.6215,0,1,left,0,1003.6217,1003.6217,1003.6231,1005.1268,0,37,37,37,1,0.6,0.4,0.2,0.8,,,,,,,,,,,,,,,0.785,,0.6,0.4,0.8,0.2,0.8,0.2,0.2,0.8,,,0.6848,,0.4,0.6,0.4,0.6,0.4,0.6,0.8,0.2,1,0
,,65fd910b6214e647ea9c6175,66fce1b157e3f6cf1e5b92db,2024-10-02_09h03.35.369,mdp,2024.2.1,Win32,40,66fa4ebf79326e780c390304,,,,,,,,,,,,,,,,,,,,,1005.1278,1005.1278,1005.129,1007.8105,1,1,right,2.1663,,1007.8124,1009.0147,0,0,left,1009.0162,1010.2185,1,1,right,0,1010.2187,1010.2187,1010.2201,1011.7234,0,38,38,38,1,0.6,0.4,0.2,0.8,,,,,,,,,,,,,,,0.687,,0.6,0.4,0.8,0.2,0.8,0.2,0.2,0.8,,,0.6819,,0.4,0.6,0.4,0.6,0.4,0.6,0.8,0.2,1,0
,,65fd910b6214e647ea9c6175,66fce1b157e3f6cf1e5b92db,2024-10-02_09h03.35.369,mdp,2024.2.1,Win32,40,66fa4ebf79326e780c390304,,,,,,,,,,,,,,,,,,,,,1011.7241,1011.7242,1011.7259,1013.4543,1,1,right,1.2074,,1013.4558,1014.7841,0,0,left,1014.7868,1016.1884,1,0,right,1,1016.1886,1016.1886,1016.1899,1017.6936,0,39,39,39,1,0.6,0.4,0.2,0.8,,,,,,,,,,,,,,,0.8211,,0.6,0.4,0.8,0.2,0.8,0.2,0.2,0.8,,,0.8975,,0.4,0.6,0.4,0.6,0.4,0.6,0.8,0.2,1,0
,,65fd910b6214e647ea9c6175,66fce1b157e3f6cf1e5b92db,2024-10-02_09h03.35.369,mdp,2024.2.1,Win32,40,66fa4ebf79326e780c390304,,,,,,,,,,,,,,,,,,,,,1017.6951,1017.6951,1017.6973,1018.6969,0,0,left,0.4676,,1018.6986,1019.6751,1,0,right,1019.6767,1020.754,0,1,left,0,1020.7544,1020.7544,1020.7567,1022.2585,0,40,40,40,1,0.6,0.4,0.2,0.8,,,,,,,,,,,,,,,0.4653,,0.6,0.4,0.8,0.2,0.8,0.2,0.2,0.8,,,0.5655,,0.4,0.6,0.4,0.6,0.4,0.6,0.8,0.2,1,0
,,65fd910b6214e647ea9c6175,66fce1b157e3f6cf1e5b92db,2024-10-02_09h03.35.369,mdp,2024.2.1,Win32,40,66fa4ebf79326e780c390304,,,,,,,,,,,,,,,,,,,,,1022.2594,1022.2594,1022.2608,1023.764,1,1,right,0.9877,,1023.7658,1024.8923,0,0,left,1024.8939,1025.8206,1,1,right,0,1025.8209,1025.8209,1025.8225,1027.3254,0,41,41,41,1,0.4,0.6,0.4,0.6,,,,,,,,,,,,,,,0.6168,,0.6,0.4,0.8,0.2,0.8,0.2,0.2,0.8,,,0.402,,0.4,0.6,0.4,0.6,0.4,0.6,0.8,0.2,1,0
,,65fd910b6214e647ea9c6175,66fce1b157e3f6cf1e5b92db,2024-10-02_09h03.35.369,mdp,2024.2.1,Win32,40,66fa4ebf79326e780c390304,,,,,,,,,,,,,,,,,,,,,1027.3261,1027.3261,1027.3275,1028.5797,0,1,left,0.7313,,1028.5812,1029.508,1,1,right,1029.5094,1030.7371,0,1,left,0,1030.7373,1030.7373,1030.7386,1032.2417,0,42,42,42,1,0.4,0.6,0.4,0.6,,,,,,,,,,,,,,,0.4087,,0.6,0.4,0.8,0.2,0.8,0.2,0.2,0.8,,,0.7078,,0.4,0.6,0.4,0.6,0.4,0.6,0.8,0.2,1,0
,,65fd910b6214e647ea9c6175,66fce1b157e3f6cf1e5b92db,2024-10-02_09h03.35.369,mdp,2024.2.1,Win32,40,66fa4ebf79326e780c390304,,,,,,,,,,,,,,,,,,,,,1032.2424,1032.2425,1032.2438,1033.1451,1,0,right,0.3773,,1033.1467,1034.1233,0,1,left,1034.1247,1035.1767,0,1,left,0,1035.1768,1035.1768,1035.1784,1036.6816,0,43,43,43,1,0.4,0.6,0.4,0.6,,,,,,,,,,,,,,,0.4627,,0.4,0.6,0.6,0.4,0.8,0.2,0.2,0.8,,,0.5271,,0.4,0.6,0.4,0.6,0.4,0.6,0.8,0.2,1,0
,,65fd910b6214e647ea9c6175,66fce1b157e3f6cf1e5b92db,2024-10-02_09h03.35.369,mdp,2024.2.1,Win32,40,66fa4ebf79326e780c390304,,,,,,,,,,,,,,,,,,,,,1036.6825,1036.6825,1036.6838,1037.8104,1,1,right,0.6103,,1037.8119,1038.7638,0,1,left,1038.7654,1039.6919,1,0,right,1,1039.6921,1039.6921,1039.6936,1041.1968,0,44,44,44,1,0.4,0.6,0.4,0.6,,,,,,,,,,,,,,,0.4278,,0.4,0.6,0.6,0.4,0.8,0.2,0.2,0.8,,,0.4103,,0.4,0.6,0.4,0.6,0.4,0.6,0.8,0.2,1,0
,,65fd910b6214e647ea9c6175,66fce1b157e3f6cf1e5b92db,2024-10-02_09h03.35.369,mdp,2024.2.1,Win32,40,66fa4ebf79326e780c390304,,,,,,,,,,,,,,,,,,,,,1041.1975,1041.1975,1041.1986,1041.9995,0,0,left,0.2919,,1042.0013,1043.0531,1,1,right,1043.0551,1044.6334,1,0,right,1,1044.6334,1044.6336,1044.6353,1046.1382,0,45,45,45,1,0.4,0.6,0.4,0.6,,,,,,,,,,,,,,,0.5234,,0.4,0.6,0.6,0.4,0.8,0.2,0.2,0.8,,,1.0566,,0.4,0.6,0.4,0.6,0.4,0.6,0.8,0.2,1,0
,,65fd910b6214e647ea9c6175,66fce1b157e3f6cf1e5b92db,2024-10-02_09h03.35.369,mdp,2024.2.1,Win32,40,66fa4ebf79326e780c390304,,,,,,,,,,,,,,,,,,,,,1046.1389,1046.139,1046.1403,1047.0665,0,0,left,0.4041,,1047.0679,1048.1702,1,0,right,1048.1717,1049.2988,0,1,left,0,1049.2988,1049.2988,1049.3003,1050.8037,0,46,46,46,1,0.4,0.6,0.4,0.6,,,,,,,,,,,,,,,0.5762,,0.4,0.6,0.6,0.4,0.8,0.2,0.2,0.8,,,0.5976,,0.4,0.6,0.4,0.6,0.4,0.6,0.8,0.2,1,0
,,65fd910b6214e647ea9c6175,66fce1b157e3f6cf1e5b92db,2024-10-02_09h03.35.369,mdp,2024.2.1,Win32,40,66fa4ebf79326e780c390304,,,,,,,,,,,,,,,,,,,,,1050.8045,1050.8045,1050.8059,1051.7821,1,1,right,0.4677,,1051.7838,1052.9109,0,1,left,1052.9125,1054.9677,1,0,right,1,1054.9678,1054.9678,1054.9693,1056.4726,0,47,47,47,1,0.4,0.6,0.4,0.6,,,,,,,,,,,,,,,0.5974,,0.4,0.6,0.6,0.4,0.8,0.2,0.2,0.8,,,1.5267,,0.4,0.6,0.4,0.6,0.4,0.6,0.8,0.2,1,0
,,65fd910b6214e647ea9c6175,66fce1b157e3f6cf1e5b92db,2024-10-02_09h03.35.369,mdp,2024.2.1,Win32,40,66fa4ebf79326e780c390304,,,,,,,,,,,,,,,,,,,,,1056.4741,1056.4741,1056.4762,1057.6768,0,0,left,0.6635,,1057.6784,1058.6801,1,1,right,1058.6818,1061.7652,1,0,right,1,1061.7653,1061.7653,1061.7667,1063.2704,0,48,48,48,1,0.4,0.6,0.4,0.6,,,,,,,,,,,,,,,0.4716,,0.4,0.6,0.6,0.4,0.8,0.2,0.2,0.8,,,2.5677,,0.4,0.6,0.4,0.6,0.4,0.6,0.8,0.2,1,0
,,65fd910b6214e647ea9c6175,66fce1b157e3f6cf1e5b92db,2024-10-02_09h03.35.369,mdp,2024.2.1,Win32,40,66fa4ebf79326e780c390304,,,,,,,,,,,,,,,,,,,,,1063.2712,1063.2712,1063.2723,1064.4996,0,1,left,0.7126,,1064.5011,1066.1299,1,1,right,1066.1315,1067.7353,1,0,right,1,1067.7355,1067.7355,1067.7368,1069.2402,0,49,49,49,1,0.4,0.6,0.4,0.6,,,,,,,,,,,,,,,1.1027,,0.4,0.6,0.6,0.4,0.8,0.2,0.2,0.8,,,1.0834,,0.4,0.6,0.4,0.6,0.4,0.6,0.8,0.2,1,0
,,65fd910b6214e647ea9c6175,66fce1b157e3f6cf1e5b92db,2024-10-02_09h03.35.369,mdp,2024.2.1,Win32,40,66fa4ebf79326e780c390304,,,,,,,,,,,,,,,,,,,,,,,,,,,,,,,,,,,,,,,,,,,,,,,,,,,,,,,,1069.2403,1135.1729,0,2,2,8,1,imgs/kangaroo.png,imgs/rabbit.png,imgs/pig.png,imgs/squirrel.png,imgs/bear.png,,,,,,,,,,,,,,,,,,,,,,,,
,,65fd910b6214e647ea9c6175,66fce1b157e3f6cf1e5b92db,2024-10-02_09h03.35.369,mdp,2024.2.1,Win32,40,66fa4ebf79326e780c390304,,,,,,,,,,,,,,3,seqs/st3seq7.csv,1135.1739,1136.0628,space,0.3627,,1136.0696,1136.0696,1136.0708,1139.4743,1,0,right,2.8522,,1139.4762,1140.5778,0,1,left,1140.5796,1141.7566,1,1,right,0,1141.7566,1141.7567,1141.7582,1143.2616,0,0,0,0,1,0.6,0.4,0.4,0.6,,,,,,,,,,,,,,,0.5906,,0.2,0.8,0.2,0.8,0.8,0.2,0.4,0.6,,,0.6522,,0.2,0.8,0.6,0.4,0.6,0.4,0.2,0.8,1,0
,,65fd910b6214e647ea9c6175,66fce1b157e3f6cf1e5b92db,2024-10-02_09h03.35.369,mdp,2024.2.1,Win32,40,66fa4ebf79326e780c390304,,,,,,,,,,,,,,,,,,,,,1143.2624,1143.2624,1143.2637,1145.5197,0,1,left,1.7499,,1145.5211,1147.0242,1,0,right,1147.0258,1150.5861,1,1,right,0,1150.5863,1150.5863,1150.5876,1152.091,0,1,1,1,1,0.6,0.4,0.4,0.6,,,,,,,,,,,,,,,0.9752,,0.2,0.8,0.2,0.8,0.8,0.2,0.4,0.6,,,3.0374,,0.2,0.8,0.6,0.4,0.6,0.4,0.2,0.8,1,0
,,65fd910b6214e647ea9c6175,66fce1b157e3f6cf1e5b92db,2024-10-02_09h03.35.369,mdp,2024.2.1,Win32,40,66fa4ebf79326e780c390304,,,,,,,,,,,,,,,,,,,,,1152.0917,1152.0917,1152.0933,1156.5562,1,1,right,3.9396,,1156.5577,1158.0611,0,1,left,1158.0626,1160.5193,0,1,left,0,1160.5194,1160.5194,1160.5212,1162.024,0,2,2,2,1,0.6,0.4,0.4,0.6,,,,,,,,,,,,,,,0.9872,,0.2,0.8,0.2,0.8,0.8,0.2,0.4,0.6,,,1.9322,,0.2,0.8,0.6,0.4,0.6,0.4,0.2,0.8,1,0
,,65fd910b6214e647ea9c6175,66fce1b157e3f6cf1e5b92db,2024-10-02_09h03.35.369,mdp,2024.2.1,Win32,40,66fa4ebf79326e780c390304,,,,,,,,,,,,,,,,,,,,,1162.0248,1162.0248,1162.0262,1163.0777,0,0,left,0.5438,,1163.0794,1164.1828,1,1,right,1164.1848,1166.6649,1,0,right,1,1166.6651,1166.6651,1166.6664,1168.1695,0,3,3,3,1,0.6,0.4,0.4,0.6,,,,,,,,,,,,,,,0.5929,,0.2,0.8,0.2,0.8,0.8,0.2,0.4,0.6,,,1.9317,,0.2,0.8,0.6,0.4,0.6,0.4,0.2,0.8,1,0
,,65fd910b6214e647ea9c6175,66fce1b157e3f6cf1e5b92db,2024-10-02_09h03.35.369,mdp,2024.2.1,Win32,40,66fa4ebf79326e780c390304,,,,,,,,,,,,,,,,,,,,,1168.1703,1168.1703,1168.1716,1169.1735,0,0,left,0.4928,,1169.1759,1170.2521,1,0,right,1170.2546,1172.9605,1,0,right,1,1172.9606,1172.9606,1172.9623,1174.4655,0,4,4,4,1,0.6,0.4,0.4,0.6,,,,,,,,,,,,,,,0.5571,,0.2,0.8,0.2,0.8,0.8,0.2,0.4,0.6,,,2.1823,,0.2,0.8,0.6,0.4,0.6,0.4,0.2,0.8,1,0
,,65fd910b6214e647ea9c6175,66fce1b157e3f6cf1e5b92db,2024-10-02_09h03.35.369,mdp,2024.2.1,Win32,40,66fa4ebf79326e780c390304,,,,,,,,,,,,,,,,,,,,,1174.4664,1174.4664,1174.4677,1175.3435,0,0,left,0.3544,,1175.3452,1176.3222,1,1,right,1176.3252,1178.5545,1,1,right,0,1178.5547,1178.5547,1178.5561,1180.0593,0,5,5,5,1,0.6,0.4,0.4,0.6,,,,,,,,,,,,,,,0.4557,,0.2,0.8,0.2,0.8,0.8,0.2,0.4,0.6,,,1.7012,,0.2,0.8,0.6,0.4,0.6,0.4,0.2,0.8,1,0
,,65fd910b6214e647ea9c6175,66fce1b157e3f6cf1e5b92db,2024-10-02_09h03.35.369,mdp,2024.2.1,Win32,40,66fa4ebf79326e780c390304,,,,,,,,,,,,,,,,,,,,,1180.06,1180.0601,1180.0615,1181.0878,0,0,left,0.5003,,1181.0892,1182.1912,1,1,right,1182.1929,1184.8251,0,1,left,0,1184.8253,1184.8253,1184.8267,1186.3303,0,6,6,6,1,0.6,0.4,0.4,0.6,,,,,,,,,,,,,,,0.588,,0.2,0.8,0.2,0.8,0.8,0.2,0.4,0.6,,,2.1221,,0.2,0.8,0.6,0.4,0.6,0.4,0.2,0.8,1,0
,,65fd910b6214e647ea9c6175,66fce1b157e3f6cf1e5b92db,2024-10-02_09h03.35.369,mdp,2024.2.1,Win32,40,66fa4ebf79326e780c390304,,,,,,,,,,,,,,,,,,,,,1186.3313,1186.3313,1186.3325,1187.2583,1,1,right,0.4125,,1187.26,1188.2616,1,1,right,1188.2631,1190.3936,1,1,right,0,1190.3937,1190.3937,1190.3954,1191.8986,0,7,7,7,1,0.6,0.4,0.4,0.6,,,,,,,,,,,,,,,0.4819,,0.2,0.8,0.2,0.8,0.8,0.2,0.4,0.6,,,1.6061,,0.8,0.2,0.4,0.6,0.6,0.4,0.2,0.8,1,0
,,65fd910b6214e647ea9c6175,66fce1b157e3f6cf1e5b92db,2024-10-02_09h03.35.369,mdp,2024.2.1,Win32,40,66fa4ebf79326e780c390304,,,,,,,,,,,,,,,,,,,,,1191.8994,1191.8995,1191.9012,1193.1782,1,1,right,0.7532,,1193.1798,1194.2818,1,1,right,1194.2834,1195.4357,0,0,left,1,1195.4359,1195.4359,1195.4372,1196.9403,0,8,8,8,1,0.6,0.4,0.4,0.6,,,,,,,,,,,,,,,0.5916,,0.2,0.8,0.2,0.8,0.8,0.2,0.4,0.6,,,0.6418,,0.8,0.2,0.4,0.6,0.6,0.4,0.2,0.8,1,0
,,65fd910b6214e647ea9c6175,66fce1b157e3f6cf1e5b92db,2024-10-02_09h03.35.369,mdp,2024.2.1,Win32,40,66fa4ebf79326e780c390304,,,,,,,,,,,,,,,,,,,,,1196.9412,1196.9412,1196.9424,1198.2701,1,1,right,0.8049,,1198.2719,1199.9012,1,0,right,1199.9038,1202.9354,0,0,left,1,1202.9356,1202.9356,1202.9371,1204.4406,0,9,9,9,1,0.6,0.4,0.4,0.6,,,,,,,,,,,,,,,1.1082,,0.2,0.8,0.2,0.8,0.8,0.2,0.4,0.6,,,2.5047,,0.8,0.2,0.4,0.6,0.6,0.4,0.2,0.8,1,0
,,65fd910b6214e647ea9c6175,66fce1b157e3f6cf1e5b92db,2024-10-02_09h03.35.369,mdp,2024.2.1,Win32,40,66fa4ebf79326e780c390304,,,,,,,,,,,,,,,,,,,,,1204.4414,1204.4414,1204.4426,1205.6953,1,0,right,0.7267,,1205.6968,1206.9492,0,1,left,1206.951,1211.0127,0,1,left,0,1211.0129,1211.0129,1211.0143,1212.5173,0,10,10,10,1,0.6,0.4,0.4,0.6,,,,,,,,,,,,,,,0.7288,,0.2,0.8,0.2,0.8,0.8,0.2,0.4,0.6,,,3.5341,,0.8,0.2,0.4,0.6,0.6,0.4,0.2,0.8,1,0
,,65fd910b6214e647ea9c6175,66fce1b157e3f6cf1e5b92db,2024-10-02_09h03.35.369,mdp,2024.2.1,Win32,40,66fa4ebf79326e780c390304,,,,,,,,,,,,,,,,,,,,,1212.5182,1212.5182,1212.5197,1214.4238,1,1,right,1.378,,1214.4256,1215.4781,1,0,right,1215.4808,1217.6846,0,1,left,0,1217.6847,1217.6848,1217.6863,1219.1894,0,11,11,11,1,0.6,0.4,0.4,0.6,,,,,,,,,,,,,,,0.5387,,0.2,0.8,0.2,0.8,0.8,0.2,0.4,0.6,,,1.6901,,0.8,0.2,0.4,0.6,0.8,0.2,0.8,0.2,1,0
,,65fd910b6214e647ea9c6175,66fce1b157e3f6cf1e5b92db,2024-10-02_09h03.35.369,mdp,2024.2.1,Win32,40,66fa4ebf79326e780c390304,,,,,,,,,,,,,,,,,,,,,1219.1903,1219.1903,1219.1915,1220.0674,1,1,right,0.3615,,1220.0691,1221.0209,1,0,right,1221.0225,1222.3002,0,0,left,1,1222.3005,1222.3005,1222.3018,1223.8049,0,12,12,12,1,0.6,0.4,0.4,0.6,,,,,,,,,,,,,,,0.4303,,0.2,0.8,0.2,0.8,0.8,0.2,0.4,0.6,,,0.7633,,0.8,0.2,0.4,0.6,0.8,0.2,0.8,0.2,1,0
,,65fd910b6214e647ea9c6175,66fce1b157e3f6cf1e5b92db,2024-10-02_09h03.35.369,mdp,2024.2.1,Win32,40,66fa4ebf79326e780c390304,,,,,,,,,,,,,,,,,,,,,1223.8057,1223.8057,1223.8068,1224.8336,1,1,right,0.5092,,1224.8353,1225.7868,0,0,left,1225.7885,1226.9661,0,1,left,0,1226.9664,1226.9664,1226.9685,1228.4705,0,13,13,13,1,0.6,0.4,0.4,0.6,,,,,,,,,,,,,,,0.4409,,0.2,0.8,0.2,0.8,0.8,0.2,0.4,0.6,,,0.6553,,0.8,0.2,0.4,0.6,0.8,0.2,0.8,0.2,1,0
,,65fd910b6214e647ea9c6175,66fce1b157e3f6cf1e5b92db,2024-10-02_09h03.35.369,mdp,2024.2.1,Win32,40,66fa4ebf79326e780c390304,,,,,,,,,,,,,,,,,,,,,1228.4714,1228.4714,1228.4729,1229.6244,1,1,right,0.6434,,1229.6259,1230.7032,1,0,right,1230.7047,1231.8567,0,0,left,1,1231.8568,1231.8569,1231.8584,1233.3616,0,14,14,14,1,0.6,0.4,0.4,0.6,,,,,,,,,,,,,,,0.5601,,0.2,0.8,0.2,0.8,0.8,0.2,0.4,0.6,,,0.6287,,0.8,0.2,0.4,0.6,0.8,0.2,0.8,0.2,1,0
,,65fd910b6214e647ea9c6175,66fce1b157e3f6cf1e5b92db,2024-10-02_09h03.35.369,mdp,2024.2.1,Win32,40,66fa4ebf79326e780c390304,,,,,,,,,,,,,,,,,,,,,1233.3625,1233.3626,1233.3638,1234.2398,1,0,right,0.3664,,1234.2414,1235.1931,1,1,right,1235.1947,1236.3971,0,0,left,1,1236.3973,1236.3973,1236.3988,1237.9019,0,15,15,15,1,0.6,0.4,0.4,0.6,,,,,,,,,,,,,,,0.4237,,0.2,0.8,0.2,0.8,0.8,0.2,0.4,0.6,,,0.686,,0.8,0.2,0.4,0.6,0.8,0.2,0.8,0.2,1,0
,,65fd910b6214e647ea9c6175,66fce1b157e3f6cf1e5b92db,2024-10-02_09h03.35.369,mdp,2024.2.1,Win32,40,66fa4ebf79326e780c390304,,,,,,,,,,,,,,,,,,,,,1237.9027,1237.9028,1237.904,1239.0808,1,1,right,0.6498,,1239.0828,1240.2598,1,1,right,1240.2616,1241.4389,0,0,left,1,1241.4392,1241.4392,1241.4405,1242.9438,0,16,16,16,1,0.6,0.4,0.4,0.6,,,,,,,,,,,,,,,0.6541,,0.2,0.8,0.2,0.8,0.8,0.2,0.4,0.6,,,0.6554,,0.8,0.2,0.4,0.6,0.8,0.2,0.8,0.2,1,0
,,65fd910b6214e647ea9c6175,66fce1b157e3f6cf1e5b92db,2024-10-02_09h03.35.369,mdp,2024.2.1,Win32,40,66fa4ebf79326e780c390304,,,,,,,,,,,,,,,,,,,,,1242.9445,1242.9446,1242.9459,1243.8978,1,0,right,0.431,,1243.9006,1244.9004,1,1,right,1244.9021,1247.9604,1,0,right,1,1247.9606,1247.9606,1247.962,1249.4655,0,17,17,17,1,0.6,0.4,0.4,0.6,,,,,,,,,,,,,,,0.4859,,0.2,0.8,0.2,0.8,0.8,0.2,0.4,0.6,,,2.5457,,0.8,0.2,0.4,0.6,0.8,0.2,0.8,0.2,1,0
,,65fd910b6214e647ea9c6175,66fce1b157e3f6cf1e5b92db,2024-10-02_09h03.35.369,mdp,2024.2.1,Win32,40,66fa4ebf79326e780c390304,,,,,,,,,,,,,,,,,,,,,1249.4663,1249.4663,1249.4676,1250.3937,0,0,left,0.4111,,1250.3954,1251.422,1,1,right,1251.4236,1252.8519,0,0,left,1,1252.8523,1252.8523,1252.8538,1254.3573,0,18,18,18,1,0.6,0.4,0.4,0.6,,,,,,,,,,,,,,,0.5038,,0.2,0.8,0.2,0.8,0.8,0.2,0.4,0.6,,,0.9039,,0.8,0.2,0.4,0.6,0.8,0.2,0.8,0.2,1,0
,,65fd910b6214e647ea9c6175,66fce1b157e3f6cf1e5b92db,2024-10-02_09h03.35.369,mdp,2024.2.1,Win32,40,66fa4ebf79326e780c390304,,,,,,,,,,,,,,,,,,,,,1254.3587,1254.3588,1254.3608,1255.2351,1,1,right,0.3452,,1255.2365,1256.1878,1,0,right,1256.1895,1258.0192,1,1,right,0,1258.0194,1258.0194,1258.0208,1259.524,0,19,19,19,1,0.6,0.4,0.4,0.6,,,,,,,,,,,,,,,0.4219,,0.2,0.8,0.2,0.8,0.6,0.4,0.8,0.2,,,1.314,,0.8,0.2,0.4,0.6,0.8,0.2,0.8,0.2,1,0
,,65fd910b6214e647ea9c6175,66fce1b157e3f6cf1e5b92db,2024-10-02_09h03.35.369,mdp,2024.2.1,Win32,40,66fa4ebf79326e780c390304,,,,,,,,,,,,,,,,,,,,,1259.5248,1259.5248,1259.5261,1260.378,1,0,right,0.3287,,1260.3807,1261.255,1,1,right,1261.2565,1262.2581,0,0,left,1,1262.2582,1262.2582,1262.2597,1263.7637,0,20,20,20,1,0.6,0.4,0.4,0.6,,,,,,,,,,,,,,,0.3478,,0.2,0.8,0.2,0.8,0.6,0.4,0.8,0.2,,,0.476,,0.8,0.2,0.4,0.6,0.8,0.2,0.8,0.2,1,0
,,65fd910b6214e647ea9c6175,66fce1b157e3f6cf1e5b92db,2024-10-02_09h03.35.369,mdp,2024.2.1,Win32,40,66fa4ebf79326e780c390304,,,,,,,,,,,,,,,,,,,,,1263.7649,1263.765,1263.7667,1265.0678,1,0,right,0.7552,,1265.0703,1266.096,1,0,right,1266.0977,1267.275,0,1,left,0,1267.275,1267.2751,1267.2766,1268.7799,0,21,21,21,1,0.6,0.4,0.4,0.6,,,,,,,,,,,,,,,0.5078,,0.2,0.8,0.2,0.8,0.6,0.4,0.8,0.2,,,0.6495,,0.8,0.2,0.4,0.6,0.8,0.2,0.8,0.2,1,0
,,65fd910b6214e647ea9c6175,66fce1b157e3f6cf1e5b92db,2024-10-02_09h03.35.369,mdp,2024.2.1,Win32,40,66fa4ebf79326e780c390304,,,,,,,,,,,,,,,,,,,,,1268.7807,1268.7808,1268.7821,1270.1347,1,1,right,0.8377,,1270.1361,1271.0125,0,0,left,1271.0139,1272.3416,1,0,right,1,1272.3418,1272.3418,1272.3433,1273.8467,0,22,22,22,1,0.2,0.8,0.6,0.4,,,,,,,,,,,,,,,0.3485,,0.2,0.8,0.2,0.8,0.6,0.4,0.8,0.2,,,0.8141,,0.8,0.2,0.4,0.6,0.8,0.2,0.8,0.2,1,0
,,65fd910b6214e647ea9c6175,66fce1b157e3f6cf1e5b92db,2024-10-02_09h03.35.369,mdp,2024.2.1,Win32,40,66fa4ebf79326e780c390304,,,,,,,,,,,,,,,,,,,,,1273.8475,1273.8475,1273.849,1276.0041,0,1,left,1.6339,,1276.0057,1277.0828,0,0,left,1277.0845,1280.8701,0,0,left,1,1280.8702,1280.8702,1280.8717,1282.3752,0,23,23,23,1,0.2,0.8,0.6,0.4,,,,,,,,,,,,,,,0.571,,0.2,0.8,0.2,0.8,0.6,0.4,0.8,0.2,,,3.2705,,0.8,0.2,0.4,0.6,0.8,0.2,0.8,0.2,1,0
,,65fd910b6214e647ea9c6175,66fce1b157e3f6cf1e5b92db,2024-10-02_09h03.35.369,mdp,2024.2.1,Win32,40,66fa4ebf79326e780c390304,,,,,,,,,,,,,,,,,,,,,1282.3761,1282.3761,1282.3773,1283.354,0,1,left,0.4722,,1283.3553,1284.3826,1,0,right,1284.385,1285.636,1,1,right,0,1285.6362,1285.6362,1285.6376,1287.141,0,24,24,24,1,0.2,0.8,0.6,0.4,,,,,,,,,,,,,,,0.5097,,0.2,0.8,0.2,0.8,0.6,0.4,0.8,0.2,,,0.7287,,0.8,0.2,0.4,0.6,0.8,0.2,0.8,0.2,1,0
,,65fd910b6214e647ea9c6175,66fce1b157e3f6cf1e5b92db,2024-10-02_09h03.35.369,mdp,2024.2.1,Win32,40,66fa4ebf79326e780c390304,,,,,,,,,,,,,,,,,,,,,1287.1418,1287.1418,1287.1432,1287.7681,0,0,left,0.1121,,1287.7697,1289.4236,0,1,left,1289.4251,1292.6846,0,0,left,1,1292.6846,1292.6846,1292.6863,1294.1895,0,25,25,25,1,0.2,0.8,0.6,0.4,,,,,,,,,,,,,,,1.1255,,0.2,0.8,0.2,0.8,0.6,0.4,0.8,0.2,,,2.7454,,0.8,0.2,0.4,0.6,0.8,0.2,0.8,0.2,1,0
,,65fd910b6214e647ea9c6175,66fce1b157e3f6cf1e5b92db,2024-10-02_09h03.35.369,mdp,2024.2.1,Win32,40,66fa4ebf79326e780c390304,,,,,,,,,,,,,,,,,,,,,1294.1902,1294.1903,1294.1916,1296.5977,0,0,left,1.8841,,1296.5992,1297.9519,0,1,left,1297.9535,1299.1813,1,0,right,1,1299.1814,1299.1815,1299.1833,1300.6862,0,26,26,26,1,0.2,0.8,0.6,0.4,,,,,,,,,,,,,,,0.8285,,0.2,0.8,0.2,0.8,0.6,0.4,0.8,0.2,,,0.7137,,0.8,0.2,0.4,0.6,0.8,0.2,0.8,0.2,1,0
,,65fd910b6214e647ea9c6175,66fce1b157e3f6cf1e5b92db,2024-10-02_09h03.35.369,mdp,2024.2.1,Win32,40,66fa4ebf79326e780c390304,,,,,,,,,,,,,,,,,,,,,1300.6869,1300.6869,1300.6881,1301.5892,0,1,left,0.3767,,1301.5908,1302.6177,1,0,right,1302.6193,1304.4736,1,0,right,1,1304.4737,1304.4739,1304.4755,1305.9787,0,27,27,27,1,0.2,0.8,0.6,0.4,,,,,,,,,,,,,,,0.5051,,0.2,0.8,0.2,0.8,0.6,0.4,0.8,0.2,,,1.3271,,0.8,0.2,0.4,0.6,0.8,0.2,0.8,0.2,1,0
,,65fd910b6214e647ea9c6175,66fce1b157e3f6cf1e5b92db,2024-10-02_09h03.35.369,mdp,2024.2.1,Win32,40,66fa4ebf79326e780c390304,,,,,,,,,,,,,,,,,,,,,1305.9795,1305.9796,1305.981,1307.6094,0,1,left,1.1109,,1307.6114,1308.7632,1,0,right,1308.7647,1310.0422,1,1,right,0,1310.0423,1310.0424,1310.0439,1311.5473,0,28,28,28,1,0.2,0.8,0.6,0.4,,,,,,,,,,,,,,,0.6283,,0.2,0.8,0.2,0.8,0.6,0.4,0.8,0.2,,,0.7712,,0.8,0.2,0.4,0.6,0.8,0.2,0.8,0.2,1,0
,,65fd910b6214e647ea9c6175,66fce1b157e3f6cf1e5b92db,2024-10-02_09h03.35.369,mdp,2024.2.1,Win32,40,66fa4ebf79326e780c390304,,,,,,,,,,,,,,,,,,,,,1311.5482,1311.5482,1311.5494,1312.4753,0,1,left,0.4018,,1312.477,1313.4035,1,0,right,1313.4051,1314.8335,0,1,left,0,1314.8337,1314.8337,1314.8352,1316.3383,0,29,29,29,1,0.2,0.8,0.6,0.4,,,,,,,,,,,,,,,0.4116,,0.2,0.8,0.2,0.8,0.6,0.4,0.8,0.2,,,0.9018,,0.8,0.2,0.4,0.6,0.8,0.2,0.8,0.2,1,0
,,65fd910b6214e647ea9c6175,66fce1b157e3f6cf1e5b92db,2024-10-02_09h03.35.369,mdp,2024.2.1,Win32,40,66fa4ebf79326e780c390304,,,,,,,,,,,,,,,,,,,,,1316.3391,1316.3391,1316.3402,1317.6428,1,1,right,0.779,,1317.6443,1318.9723,1,0,right,1318.9738,1320.3767,1,0,right,1,1320.3768,1320.3769,1320.3783,1321.8817,0,30,30,30,1,0.2,0.8,0.6,0.4,,,,,,,,,,,,,,,0.8006,,0.2,0.8,0.2,0.8,0.6,0.4,0.8,0.2,,,0.879,,0.8,0.2,0.4,0.6,0.8,0.2,0.8,0.2,1,0
,,65fd910b6214e647ea9c6175,66fce1b157e3f6cf1e5b92db,2024-10-02_09h03.35.369,mdp,2024.2.1,Win32,40,66fa4ebf79326e780c390304,,,,,,,,,,,,,,,,,,,,,1321.8826,1321.8826,1321.8837,1322.7347,0,1,left,0.3327,,1322.7363,1323.6879,1,0,right,1323.6896,1324.8171,0,0,left,1,1324.8172,1324.8172,1324.8193,1326.3214,0,31,31,31,1,0.2,0.8,0.6,0.4,,,,,,,,,,,,,,,0.4309,,0.2,0.8,0.2,0.8,0.6,0.4,0.8,0.2,,,0.608,,0.8,0.2,0.4,0.6,0.8,0.2,0.8,0.2,1,0
,,65fd910b6214e647ea9c6175,66fce1b157e3f6cf1e5b92db,2024-10-02_09h03.35.369,mdp,2024.2.1,Win32,40,66fa4ebf79326e780c390304,,,,,,,,,,,,,,,,,,,,,1326.3222,1326.3223,1326.3235,1327.25,1,0,right,0.4133,,1327.2519,1328.5789,1,1,right,1328.5809,1329.5073,0,0,left,1,1329.5075,1329.5075,1329.509,1331.0122,0,32,32,32,1,0.2,0.8,0.6,0.4,,,,,,,,,,,,,,,0.8161,,0.2,0.8,0.2,0.8,0.6,0.4,0.8,0.2,,,0.4132,,0.8,0.2,0.4,0.6,0.8,0.2,0.8,0.2,1,0
,,65fd910b6214e647ea9c6175,66fce1b157e3f6cf1e5b92db,2024-10-02_09h03.35.369,mdp,2024.2.1,Win32,40,66fa4ebf79326e780c390304,,,,,,,,,,,,,,,,,,,,,1331.013,1331.013,1331.0143,1332.2415,1,0,right,0.7212,,1332.243,1333.4705,1,1,right,1333.4718,1334.6494,0,0,left,1,1334.6495,1334.6496,1334.6516,1336.1543,0,33,33,33,1,0.2,0.8,0.6,0.4,,,,,,,,,,,,,,,0.7011,,0.2,0.8,0.2,0.8,0.6,0.4,0.8,0.2,,,0.6546,,0.8,0.2,0.4,0.6,0.8,0.2,0.8,0.2,1,0
,,65fd910b6214e647ea9c6175,66fce1b157e3f6cf1e5b92db,2024-10-02_09h03.35.369,mdp,2024.2.1,Win32,40,66fa4ebf79326e780c390304,,,,,,,,,,,,,,,,,,,,,1336.155,1336.1551,1336.1561,1337.4335,1,0,right,0.7718,,1337.4351,1338.2872,1,1,right,1338.2896,1339.2146,0,1,left,0,1339.2147,1339.2148,1339.2163,1340.7195,0,34,34,34,1,0.2,0.8,0.6,0.4,,,,,,,,,,,,,,,0.3285,,0.2,0.8,0.2,0.8,0.6,0.4,0.8,0.2,,,0.4046,,0.8,0.2,0.4,0.6,0.8,0.2,0.8,0.2,1,0
,,65fd910b6214e647ea9c6175,66fce1b157e3f6cf1e5b92db,2024-10-02_09h03.35.369,mdp,2024.2.1,Win32,40,66fa4ebf79326e780c390304,,,,,,,,,,,,,,,,,,,,,1340.7203,1340.7204,1340.7216,1342.5756,1,0,right,1.3383,,1342.5776,1344.4073,1,1,right,1344.4089,1345.8364,0,0,left,1,1345.8365,1345.8365,1345.8381,1347.3416,0,35,35,35,1,0.2,0.8,0.6,0.4,,,,,,,,,,,,,,,1.3093,,0.2,0.8,0.2,0.8,0.6,0.4,0.8,0.2,,,0.9121,,0.8,0.2,0.4,0.6,0.8,0.2,0.8,0.2,1,0
,,65fd910b6214e647ea9c6175,66fce1b157e3f6cf1e5b92db,2024-10-02_09h03.35.369,mdp,2024.2.1,Win32,40,66fa4ebf79326e780c390304,,,,,,,,,,,,,,,,,,,,,1347.3423,1347.3423,1347.3435,1348.4203,1,1,right,0.5583,,1348.4226,1349.4739,0,1,left,1349.4755,1350.4016,1,0,right,1,1350.4018,1350.4018,1350.4033,1351.907,0,36,36,36,1,0.2,0.8,0.6,0.4,,,,,,,,,,,,,,,0.5328,,0.2,0.8,0.2,0.8,0.6,0.4,0.8,0.2,,,0.4135,,0.8,0.2,0.4,0.6,0.8,0.2,0.8,0.2,1,0
,,65fd910b6214e647ea9c6175,66fce1b157e3f6cf1e5b92db,2024-10-02_09h03.35.369,mdp,2024.2.1,Win32,40,66fa4ebf79326e780c390304,,,,,,,,,,,,,,,,,,,,,1351.9083,1351.9083,1351.9103,1353.0112,0,1,left,0.5815,,1353.0136,1353.9385,1,1,right,1353.9401,1354.917,0,0,left,1,1354.9172,1354.9173,1354.9185,1356.422,0,37,37,37,1,0.2,0.8,0.6,0.4,,,,,,,,,,,,,,,0.4171,,0.8,0.2,0.4,0.6,0.6,0.4,0.8,0.2,,,0.4574,,0.8,0.2,0.4,0.6,0.8,0.2,0.8,0.2,1,0
,,65fd910b6214e647ea9c6175,66fce1b157e3f6cf1e5b92db,2024-10-02_09h03.35.369,mdp,2024.2.1,Win32,40,66fa4ebf79326e780c390304,,,,,,,,,,,,,,,,,,,,,1356.4234,1356.4235,1356.4259,1357.3249,1,0,right,0.3539,,1357.3266,1358.303,1,1,right,1358.3048,1359.3315,0,1,left,0,1359.3317,1359.3317,1359.3335,1360.8365,0,38,38,38,1,0.2,0.8,0.6,0.4,,,,,,,,,,,,,,,0.4506,,0.8,0.2,0.4,0.6,0.6,0.4,0.8,0.2,,,0.5145,,0.8,0.2,0.4,0.6,0.8,0.2,0.8,0.2,1,0
,,65fd910b6214e647ea9c6175,66fce1b157e3f6cf1e5b92db,2024-10-02_09h03.35.369,mdp,2024.2.1,Win32,40,66fa4ebf79326e780c390304,,,,,,,,,,,,,,,,,,,,,1360.8373,1360.8373,1360.8385,1361.7646,1,0,right,0.4059,,1361.7662,1362.7431,1,0,right,1362.7449,1363.7714,0,1,left,0,1363.7715,1363.7715,1363.773,1365.276,0,39,39,39,1,0.2,0.8,0.6,0.4,,,,,,,,,,,,,,,0.4521,,0.8,0.2,0.4,0.6,0.6,0.4,0.8,0.2,,,0.4962,,0.8,0.2,0.4,0.6,0.8,0.2,0.8,0.2,1,0
,,65fd910b6214e647ea9c6175,66fce1b157e3f6cf1e5b92db,2024-10-02_09h03.35.369,mdp,2024.2.1,Win32,40,66fa4ebf79326e780c390304,,,,,,,,,,,,,,,,,,,,,1365.2769,1365.2769,1365.2782,1366.1797,1,0,right,0.3891,,1366.1825,1367.2078,1,1,right,1367.2097,1367.9353,1,0,right,1,1367.9355,1367.9356,1367.9371,1369.4404,0,40,40,40,1,0.2,0.8,0.6,0.4,,,,,,,,,,,,,,,0.5026,,0.8,0.2,0.4,0.6,0.6,0.4,0.8,0.2,,,0.2064,,0.8,0.2,0.4,0.6,0.8,0.2,0.8,0.2,1,0
,,65fd910b6214e647ea9c6175,66fce1b157e3f6cf1e5b92db,2024-10-02_09h03.35.369,mdp,2024.2.1,Win32,40,66fa4ebf79326e780c390304,,,,,,,,,,,,,,,,,,,,,1369.4418,1369.4418,1369.4441,1370.2951,1,1,right,0.3456,,1370.2975,1371.1465,1,0,right,1371.1491,1372.2746,0,0,left,1,1372.2747,1372.2748,1372.2763,1373.7794,0,41,41,41,1,0.2,0.8,0.6,0.4,,,,,,,,,,,,,,,0.313,,0.8,0.2,0.4,0.6,0.6,0.4,0.8,0.2,,,0.6019,,0.8,0.2,0.4,0.6,0.8,0.2,0.8,0.2,1,0
,,65fd910b6214e647ea9c6175,66fce1b157e3f6cf1e5b92db,2024-10-02_09h03.35.369,mdp,2024.2.1,Win32,40,66fa4ebf79326e780c390304,,,,,,,,,,,,,,,,,,,,,1373.7806,1373.7807,1373.7825,1375.0838,1,0,right,0.7855,,1375.0854,1376.3129,1,1,right,1376.3146,1377.3417,0,1,left,0,1377.3419,1377.3419,1377.3433,1378.8471,0,42,42,42,1,0.2,0.8,0.6,0.4,,,,,,,,,,,,,,,0.715,,0.8,0.2,0.4,0.6,0.6,0.4,0.8,0.2,,,0.4963,,0.8,0.2,0.4,0.6,0.8,0.2,0.8,0.2,1,0
,,65fd910b6214e647ea9c6175,66fce1b157e3f6cf1e5b92db,2024-10-02_09h03.35.369,mdp,2024.2.1,Win32,40,66fa4ebf79326e780c390304,,,,,,,,,,,,,,,,,,,,,1378.8484,1378.8485,1378.8506,1379.7247,1,0,right,0.3425,,1379.7261,1380.6274,1,0,right,1380.6291,1381.8573,0,1,left,0,1381.8575,1381.8575,1381.8588,1383.3613,0,43,43,43,1,0.2,0.8,0.6,0.4,,,,,,,,,,,,,,,0.39,,0.8,0.2,0.4,0.6,0.6,0.4,0.8,0.2,,,0.699,,0.6,0.4,0.8,0.2,0.8,0.2,0.8,0.2,1,0
,,65fd910b6214e647ea9c6175,66fce1b157e3f6cf1e5b92db,2024-10-02_09h03.35.369,mdp,2024.2.1,Win32,40,66fa4ebf79326e780c390304,,,,,,,,,,,,,,,,,,,,,1383.362,1383.3621,1383.364,1384.2396,1,0,right,0.3521,,1384.2413,1385.2177,1,0,right,1385.2192,1386.3216,1,1,right,0,1386.3217,1386.3217,1386.3232,1387.8264,0,44,44,44,1,0.2,0.8,0.6,0.4,,,,,,,,,,,,,,,0.4689,,0.8,0.2,0.4,0.6,0.6,0.4,0.8,0.2,,,0.5847,,0.6,0.4,0.8,0.2,0.8,0.2,0.8,0.2,1,0
,,65fd910b6214e647ea9c6175,66fce1b157e3f6cf1e5b92db,2024-10-02_09h03.35.369,mdp,2024.2.1,Win32,40,66fa4ebf79326e780c390304,,,,,,,,,,,,,,,,,,,,,1387.8271,1387.8271,1387.8284,1388.6044,1,0,right,0.2548,,1388.6083,1389.7581,1,1,right,1389.7595,1391.0378,1,1,right,0,1391.038,1391.038,1391.0391,1392.542,0,45,45,45,1,0.2,0.8,0.6,0.4,,,,,,,,,,,,,,,0.6356,,0.8,0.2,0.4,0.6,0.6,0.4,0.8,0.2,,,0.7672,,0.6,0.4,0.8,0.2,0.8,0.2,0.8,0.2,1,0
,,65fd910b6214e647ea9c6175,66fce1b157e3f6cf1e5b92db,2024-10-02_09h03.35.369,mdp,2024.2.1,Win32,40,66fa4ebf79326e780c390304,,,,,,,,,,,,,,,,,,,,,1392.5427,1392.5427,1392.5442,1393.7466,0,1,left,0.6786,,1393.7491,1394.9502,1,0,right,1394.952,1395.9035,0,0,left,1,1395.9037,1395.9037,1395.9052,1397.4081,0,46,46,46,1,0.2,0.8,0.6,0.4,,,,,,,,,,,,,,,0.6789,,0.8,0.2,0.4,0.6,0.6,0.4,0.8,0.2,,,0.4329,,0.6,0.4,0.8,0.2,0.8,0.2,0.8,0.2,1,0
,,65fd910b6214e647ea9c6175,66fce1b157e3f6cf1e5b92db,2024-10-02_09h03.35.369,mdp,2024.2.1,Win32,40,66fa4ebf79326e780c390304,,,,,,,,,,,,,,,,,,,,,1397.409,1397.409,1397.4103,1398.3366,1,0,right,0.4138,,1398.338,1399.7416,1,1,right,1399.7445,1400.7444,0,0,left,1,1400.7444,1400.7445,1400.7461,1402.2494,0,47,47,47,1,0.2,0.8,0.6,0.4,,,,,,,,,,,,,,,0.8883,,0.8,0.2,0.4,0.6,0.6,0.4,0.8,0.2,,,0.4737,,0.6,0.4,0.8,0.2,0.8,0.2,0.8,0.2,1,0
,,65fd910b6214e647ea9c6175,66fce1b157e3f6cf1e5b92db,2024-10-02_09h03.35.369,mdp,2024.2.1,Win32,40,66fa4ebf79326e780c390304,,,,,,,,,,,,,,,,,,,,,1402.2501,1402.2501,1402.2524,1403.579,1,0,right,0.8143,,1403.5808,1405.0336,1,1,right,1405.0353,1406.1884,0,0,left,1,1406.1888,1406.1888,1406.1909,1407.6927,0,48,48,48,1,0.2,0.8,0.6,0.4,,,,,,,,,,,,,,,0.9459,,0.6,0.4,0.2,0.8,0.6,0.4,0.8,0.2,,,0.6315,,0.6,0.4,0.8,0.2,0.8,0.2,0.8,0.2,1,0
,,65fd910b6214e647ea9c6175,66fce1b157e3f6cf1e5b92db,2024-10-02_09h03.35.369,mdp,2024.2.1,Win32,40,66fa4ebf79326e780c390304,,,,,,,,,,,,,,,,,,,,,1407.6934,1407.6934,1407.6946,1408.5706,1,1,right,0.355,,1408.5724,1409.7246,1,1,right,1409.7262,1411.0291,1,0,right,1,1411.0292,1411.0292,1411.0304,1412.5337,0,49,49,49,1,0.2,0.8,0.6,0.4,,,,,,,,,,,,,,,0.6301,,0.6,0.4,0.2,0.8,0.6,0.4,0.8,0.2,,,0.7785,,0.6,0.4,0.8,0.2,0.8,0.2,0.8,0.2,1,0
,,65fd910b6214e647ea9c6175,66fce1b157e3f6cf1e5b92db,2024-10-02_09h03.35.369,mdp,2024.2.1,Win32,40,66fa4ebf79326e780c390304,,,,,,,,,,,,,,,,,,,,,,,,,,,,,,,,,,,,,,,,,,,,,,,,,,,,,,,,1412.5339,1471.0537,0,3,3,7,1,imgs/rabbit.png,imgs/squirrel.png,imgs/dog.png,imgs/elephant.png,imgs/giraffe.png,,,,,,,,,,,,,,,,,,,,,,,,
,,65fd910b6214e647ea9c6175,66fce1b157e3f6cf1e5b92db,2024-10-02_09h03.35.369,mdp,2024.2.1,Win32,40,66fa4ebf79326e780c390304,,,,,,,,,,,,,,1,seqs/st1seq8.csv,1471.056,1480.034,space,8.4635,,1480.0373,1480.0373,1480.0381,1482.4165,1,0,right,1.8435,,1482.418,1482.419,1,0,,1482.4199,1482.4204,1,1,,1,1482.4205,1482.4205,1482.421,1483.9213,0,0,0,0,1,0.8,0.2,0.8,0.2,1,0,,,,,,,,,,,,,,,,,,,,,,,,,,,,,,,,,,,,
,,65fd910b6214e647ea9c6175,66fce1b157e3f6cf1e5b92db,2024-10-02_09h03.35.369,mdp,2024.2.1,Win32,40,66fa4ebf79326e780c390304,,,,,,,,,,,,,,,,,,,,,1483.922,1483.922,1483.9232,1484.6239,1,0,right,0.1927,,1484.6255,1484.6264,1,0,,1484.6272,1484.6277,1,0,,1,1484.6278,1484.6278,1484.6283,1486.1288,0,1,1,1,1,0.8,0.2,0.8,0.2,1,0,,,,,,,,,,,,,,,,,,,,,,,,,,,,,,,,,,,,
,,65fd910b6214e647ea9c6175,66fce1b157e3f6cf1e5b92db,2024-10-02_09h03.35.369,mdp,2024.2.1,Win32,40,66fa4ebf79326e780c390304,,,,,,,,,,,,,,,,,,,,,1486.1297,1486.1297,1486.131,1487.7093,1,0,right,1.0639,,1487.7109,1487.7117,1,0,,1487.7127,1487.7132,1,0,,1,1487.7132,1487.7132,1487.7138,1489.2139,0,2,2,2,1,0.8,0.2,0.8,0.2,1,0,,,,,,,,,,,,,,,,,,,,,,,,,,,,,,,,,,,,
,,65fd910b6214e647ea9c6175,66fce1b157e3f6cf1e5b92db,2024-10-02_09h03.35.369,mdp,2024.2.1,Win32,40,66fa4ebf79326e780c390304,,,,,,,,,,,,,,,,,,,,,1489.2146,1489.2146,1489.2167,1490.2927,1,0,right,0.5543,,1490.2943,1490.2952,1,0,,1490.2961,1490.2966,1,0,,1,1490.2966,1490.2966,1490.2971,1491.7977,0,3,3,3,1,0.8,0.2,0.8,0.2,1,0,,,,,,,,,,,,,,,,,,,,,,,,,,,,,,,,,,,,
,,65fd910b6214e647ea9c6175,66fce1b157e3f6cf1e5b92db,2024-10-02_09h03.35.369,mdp,2024.2.1,Win32,40,66fa4ebf79326e780c390304,,,,,,,,,,,,,,,,,,,,,1491.7984,1491.7984,1491.7999,1492.9016,1,0,right,0.582,,1492.9033,1492.9044,1,0,,1492.9055,1492.9064,1,0,,1,1492.9065,1492.9065,1492.9071,1494.4067,0,4,4,4,1,0.8,0.2,0.8,0.2,1,0,,,,,,,,,,,,,,,,,,,,,,,,,,,,,,,,,,,,
,,65fd910b6214e647ea9c6175,66fce1b157e3f6cf1e5b92db,2024-10-02_09h03.35.369,mdp,2024.2.1,Win32,40,66fa4ebf79326e780c390304,,,,,,,,,,,,,,,,,,,,,1494.408,1494.408,1494.4106,1495.5352,1,0,right,0.5775,,1495.537,1495.5381,1,0,,1495.5388,1495.5393,1,0,,1,1495.5394,1495.5394,1495.5398,1497.0404,0,5,5,5,1,0.8,0.2,0.8,0.2,1,0,,,,,,,,,,,,,,,,,,,,,,,,,,,,,,,,,,,,
,,65fd910b6214e647ea9c6175,66fce1b157e3f6cf1e5b92db,2024-10-02_09h03.35.369,mdp,2024.2.1,Win32,40,66fa4ebf79326e780c390304,,,,,,,,,,,,,,,,,,,,,1497.041,1497.0411,1497.0423,1498.1691,1,0,right,0.6193,,1498.1708,1498.1718,1,0,,1498.1726,1498.1731,1,0,,1,1498.1731,1498.1731,1498.1736,1499.6738,0,6,6,6,1,0.8,0.2,0.8,0.2,1,0,,,,,,,,,,,,,,,,,,,,,,,,,,,,,,,,,,,,
,,65fd910b6214e647ea9c6175,66fce1b157e3f6cf1e5b92db,2024-10-02_09h03.35.369,mdp,2024.2.1,Win32,40,66fa4ebf79326e780c390304,,,,,,,,,,,,,,,,,,,,,1499.6745,1499.6746,1499.6769,1500.7778,1,1,right,0.5817,,1500.7794,1500.7803,1,0,,1500.7811,1500.7815,1,0,,0,1500.7816,1500.7816,1500.7822,1502.2826,0,7,7,7,1,0.8,0.2,0.8,0.2,1,0,,,,,,,,,,,,,,,,,,,,,,,,,,,,,,,,,,,,
,,65fd910b6214e647ea9c6175,66fce1b157e3f6cf1e5b92db,2024-10-02_09h03.35.369,mdp,2024.2.1,Win32,40,66fa4ebf79326e780c390304,,,,,,,,,,,,,,,,,,,,,1502.2831,1502.2831,1502.2842,1503.4871,0,0,left,0.6856,,1503.4886,1503.4895,1,0,,1503.4904,1503.4909,1,0,,1,1503.4909,1503.4909,1503.4914,1504.9915,0,8,8,8,1,0.8,0.2,0.8,0.2,1,0,,,,,,,,,,,,,,,,,,,,,,,,,,,,,,,,,,,,
,,65fd910b6214e647ea9c6175,66fce1b157e3f6cf1e5b92db,2024-10-02_09h03.35.369,mdp,2024.2.1,Win32,40,66fa4ebf79326e780c390304,,,,,,,,,,,,,,,,,,,,,1504.9924,1504.9924,1504.9936,1506.2459,0,0,left,0.7297,,1506.2475,1506.2485,1,0,,1506.2493,1506.2497,1,0,,1,1506.2498,1506.2499,1506.2503,1507.7508,0,9,9,9,1,0.8,0.2,0.8,0.2,1,0,,,,,,,,,,,,,,,,,,,,,,,,,,,,,,,,,,,,
,,65fd910b6214e647ea9c6175,66fce1b157e3f6cf1e5b92db,2024-10-02_09h03.35.369,mdp,2024.2.1,Win32,40,66fa4ebf79326e780c390304,,,,,,,,,,,,,,,,,,,,,1507.7516,1507.7516,1507.7529,1509.0553,0,0,left,0.7909,,1509.0567,1509.0576,1,0,,1509.0585,1509.0592,1,0,,1,1509.0592,1509.0592,1509.0598,1510.5601,0,10,10,10,1,0.8,0.2,0.8,0.2,1,0,,,,,,,,,,,,,,,,,,,,,,,,,,,,,,,,,,,,
,,65fd910b6214e647ea9c6175,66fce1b157e3f6cf1e5b92db,2024-10-02_09h03.35.369,mdp,2024.2.1,Win32,40,66fa4ebf79326e780c390304,,,,,,,,,,,,,,,,,,,,,1510.5609,1510.5609,1510.5621,1511.8396,1,0,right,0.7638,,1511.8413,1511.8422,1,0,,1511.8431,1511.8435,1,0,,1,1511.8436,1511.8436,1511.8441,1513.3444,0,11,11,11,1,0.8,0.2,0.8,0.2,1,0,,,,,,,,,,,,,,,,,,,,,,,,,,,,,,,,,,,,
,,65fd910b6214e647ea9c6175,66fce1b157e3f6cf1e5b92db,2024-10-02_09h03.35.369,mdp,2024.2.1,Win32,40,66fa4ebf79326e780c390304,,,,,,,,,,,,,,,,,,,,,1513.345,1513.345,1513.3464,1514.5986,1,1,right,0.7448,,1514.6003,1514.6014,1,0,,1514.6021,1514.6026,1,0,,0,1514.6026,1514.6026,1514.6031,1516.1037,0,12,12,12,1,0.8,0.2,0.8,0.2,1,0,,,,,,,,,,,,,,,,,,,,,,,,,,,,,,,,,,,,
,,65fd910b6214e647ea9c6175,66fce1b157e3f6cf1e5b92db,2024-10-02_09h03.35.369,mdp,2024.2.1,Win32,40,66fa4ebf79326e780c390304,,,,,,,,,,,,,,,,,,,,,1516.1046,1516.1046,1516.1059,1517.3331,0,0,left,0.7178,,1517.3348,1517.3357,1,0,,1517.3368,1517.3372,1,1,,1,1517.3373,1517.3373,1517.3377,1518.8377,0,13,13,13,1,0.8,0.2,0.8,0.2,1,0,,,,,,,,,,,,,,,,,,,,,,,,,,,,,,,,,,,,
,,65fd910b6214e647ea9c6175,66fce1b157e3f6cf1e5b92db,2024-10-02_09h03.35.369,mdp,2024.2.1,Win32,40,66fa4ebf79326e780c390304,,,,,,,,,,,,,,,,,,,,,1518.8384,1518.8384,1518.8399,1520.1922,0,0,left,0.8476,,1520.1937,1520.1947,1,0,,1520.1955,1520.196,1,0,,1,1520.196,1520.196,1520.1966,1521.6971,0,14,14,14,1,0.8,0.2,0.8,0.2,1,0,,,,,,,,,,,,,,,,,,,,,,,,,,,,,,,,,,,,
,,65fd910b6214e647ea9c6175,66fce1b157e3f6cf1e5b92db,2024-10-02_09h03.35.369,mdp,2024.2.1,Win32,40,66fa4ebf79326e780c390304,,,,,,,,,,,,,,,,,,,,,1521.6979,1521.6979,1521.6995,1522.9518,0,0,left,0.7295,,1522.9535,1522.9543,1,1,,1522.9552,1522.9558,1,0,,1,1522.9558,1522.9558,1522.9562,1524.4564,0,15,15,15,1,0.4,0.6,0.6,0.4,1,0,,,,,,,,,,,,,,,,,,,,,,,,,,,,,,,,,,,,
,,65fd910b6214e647ea9c6175,66fce1b157e3f6cf1e5b92db,2024-10-02_09h03.35.369,mdp,2024.2.1,Win32,40,66fa4ebf79326e780c390304,,,,,,,,,,,,,,,,,,,,,1524.4571,1524.4571,1524.4585,1525.8117,0,1,left,0.8466,,1525.8144,1525.8159,1,0,,1525.8171,1525.8179,1,0,,0,1525.8179,1525.8179,1525.8189,1527.3159,0,16,16,16,1,0.4,0.6,0.6,0.4,1,0,,,,,,,,,,,,,,,,,,,,,,,,,,,,,,,,,,,,
,,65fd910b6214e647ea9c6175,66fce1b157e3f6cf1e5b92db,2024-10-02_09h03.35.369,mdp,2024.2.1,Win32,40,66fa4ebf79326e780c390304,,,,,,,,,,,,,,,,,,,,,1527.3167,1527.3167,1527.3179,1528.5955,1,0,right,0.753,,1528.597,1528.5978,1,0,,1528.5988,1528.5993,1,0,,1,1528.5993,1528.5993,1528.5998,1530.1003,0,17,17,17,1,0.4,0.6,0.6,0.4,1,0,,,,,,,,,,,,,,,,,,,,,,,,,,,,,,,,,,,,
,,65fd910b6214e647ea9c6175,66fce1b157e3f6cf1e5b92db,2024-10-02_09h03.35.369,mdp,2024.2.1,Win32,40,66fa4ebf79326e780c390304,,,,,,,,,,,,,,,,,,,,,1530.101,1530.101,1530.1022,1531.2293,1,0,right,0.6117,,1531.2308,1531.2317,1,1,,1531.2326,1531.233,1,0,,1,1531.2331,1531.2331,1531.2336,1532.7341,0,18,18,18,1,0.4,0.6,0.6,0.4,1,0,,,,,,,,,,,,,,,,,,,,,,,,,,,,,,,,,,,,
,,65fd910b6214e647ea9c6175,66fce1b157e3f6cf1e5b92db,2024-10-02_09h03.35.369,mdp,2024.2.1,Win32,40,66fa4ebf79326e780c390304,,,,,,,,,,,,,,,,,,,,,1532.7349,1532.7349,1532.7362,1534.0142,1,1,right,0.7565,,1534.0167,1534.0183,1,0,,1534.0196,1534.0204,1,1,,0,1534.0205,1534.0205,1534.0213,1535.5183,0,19,19,19,1,0.4,0.6,0.6,0.4,1,0,,,,,,,,,,,,,,,,,,,,,,,,,,,,,,,,,,,,
,,65fd910b6214e647ea9c6175,66fce1b157e3f6cf1e5b92db,2024-10-02_09h03.35.369,mdp,2024.2.1,Win32,40,66fa4ebf79326e780c390304,,,,,,,,,,,,,,,,,,,,,1535.5191,1535.5191,1535.5204,1536.823,0,1,left,0.7763,,1536.8245,1536.8253,1,0,,1536.8263,1536.8268,1,1,,0,1536.8268,1536.8268,1536.8274,1538.3279,0,20,20,20,1,0.4,0.6,0.6,0.4,1,0,,,,,,,,,,,,,,,,,,,,,,,,,,,,,,,,,,,,
,,65fd910b6214e647ea9c6175,66fce1b157e3f6cf1e5b92db,2024-10-02_09h03.35.369,mdp,2024.2.1,Win32,40,66fa4ebf79326e780c390304,,,,,,,,,,,,,,,,,,,,,1538.3286,1538.3286,1538.3301,1539.4565,1,0,right,0.6042,,1539.4584,1539.4598,1,0,,1539.4608,1539.4615,1,0,,1,1539.4615,1539.4615,1539.4623,1540.9615,0,21,21,21,1,0.4,0.6,0.6,0.4,1,0,,,,,,,,,,,,,,,,,,,,,,,,,,,,,,,,,,,,
,,65fd910b6214e647ea9c6175,66fce1b157e3f6cf1e5b92db,2024-10-02_09h03.35.369,mdp,2024.2.1,Win32,40,66fa4ebf79326e780c390304,,,,,,,,,,,,,,,,,,,,,1540.9624,1540.9624,1540.9641,1542.1161,1,0,right,0.6332,,1542.1174,1542.1182,1,0,,1542.1192,1542.1197,1,0,,1,1542.1197,1542.1197,1542.1204,1543.6202,0,22,22,22,1,0.4,0.6,0.6,0.4,1,0,,,,,,,,,,,,,,,,,,,,,,,,,,,,,,,,,,,,
,,65fd910b6214e647ea9c6175,66fce1b157e3f6cf1e5b92db,2024-10-02_09h03.35.369,mdp,2024.2.1,Win32,40,66fa4ebf79326e780c390304,,,,,,,,,,,,,,,,,,,,,1543.6209,1543.6209,1543.623,1544.9005,1,0,right,0.7555,,1544.9033,1544.9048,1,1,,1544.9056,1544.906,1,0,,1,1544.9061,1544.9061,1544.9066,1546.4049,0,23,23,23,1,0.4,0.6,0.6,0.4,1,0,,,,,,,,,,,,,,,,,,,,,,,,,,,,,,,,,,,,
,,65fd910b6214e647ea9c6175,66fce1b157e3f6cf1e5b92db,2024-10-02_09h03.35.369,mdp,2024.2.1,Win32,40,66fa4ebf79326e780c390304,,,,,,,,,,,,,,,,,,,,,1546.4062,1546.4062,1546.4084,1547.8345,0,1,left,0.8807,,1547.8362,1547.8371,1,1,,1547.8379,1547.8384,1,0,,0,1547.8385,1547.8385,1547.839,1549.3395,0,24,24,24,1,0.4,0.6,0.6,0.4,1,0,,,,,,,,,,,,,,,,,,,,,,,,,,,,,,,,,,,,
,,65fd910b6214e647ea9c6175,66fce1b157e3f6cf1e5b92db,2024-10-02_09h03.35.369,mdp,2024.2.1,Win32,40,66fa4ebf79326e780c390304,,,,,,,,,,,,,,,,,,,,,1549.3403,1549.3403,1549.3414,1550.5185,1,0,right,0.6594,,1550.52,1550.5211,1,0,,1550.5223,1550.523,1,1,,1,1550.523,1550.523,1550.5237,1552.0233,0,25,25,25,1,0.4,0.6,0.6,0.4,1,0,,,,,,,,,,,,,,,,,,,,,,,,,,,,,,,,,,,,
,,65fd910b6214e647ea9c6175,66fce1b157e3f6cf1e5b92db,2024-10-02_09h03.35.369,mdp,2024.2.1,Win32,40,66fa4ebf79326e780c390304,,,,,,,,,,,,,,,,,,,,,1552.024,1552.0241,1552.0254,1553.378,1,0,right,0.8393,,1553.3799,1553.3808,1,0,,1553.3818,1553.3823,1,0,,1,1553.3824,1553.3824,1553.3829,1554.8831,0,26,26,26,1,0.4,0.6,0.6,0.4,1,0,,,,,,,,,,,,,,,,,,,,,,,,,,,,,,,,,,,,
,,65fd910b6214e647ea9c6175,66fce1b157e3f6cf1e5b92db,2024-10-02_09h03.35.369,mdp,2024.2.1,Win32,40,66fa4ebf79326e780c390304,,,,,,,,,,,,,,,,,,,,,1554.8843,1554.8843,1554.8865,1556.2122,1,0,right,0.8161,,1556.2143,1556.2156,1,0,,1556.2165,1556.2172,1,1,,1,1556.2173,1556.2173,1556.2181,1557.7172,0,27,27,27,1,0.4,0.6,0.6,0.4,1,0,,,,,,,,,,,,,,,,,,,,,,,,,,,,,,,,,,,,
,,65fd910b6214e647ea9c6175,66fce1b157e3f6cf1e5b92db,2024-10-02_09h03.35.369,mdp,2024.2.1,Win32,40,66fa4ebf79326e780c390304,,,,,,,,,,,,,,,,,,,,,1557.7179,1557.718,1557.7191,1558.9463,1,0,right,0.7128,,1558.948,1558.9488,1,0,,1558.9498,1558.9502,1,1,,1,1558.9502,1558.9503,1558.9508,1560.4514,0,28,28,28,1,0.4,0.6,0.6,0.4,1,0,,,,,,,,,,,,,,,,,,,,,,,,,,,,,,,,,,,,
,,65fd910b6214e647ea9c6175,66fce1b157e3f6cf1e5b92db,2024-10-02_09h03.35.369,mdp,2024.2.1,Win32,40,66fa4ebf79326e780c390304,,,,,,,,,,,,,,,,,,,,,1560.452,1560.4521,1560.4534,1561.7307,1,0,right,0.7677,,1561.7322,1561.7331,1,0,,1561.734,1561.7344,1,0,,1,1561.7345,1561.7345,1561.735,1563.2358,0,29,29,29,1,0.4,0.6,0.6,0.4,1,0,,,,,,,,,,,,,,,,,,,,,,,,,,,,,,,,,,,,
,,65fd910b6214e647ea9c6175,66fce1b157e3f6cf1e5b92db,2024-10-02_09h03.35.369,mdp,2024.2.1,Win32,40,66fa4ebf79326e780c390304,,,,,,,,,,,,,,,,,,,,,1563.2363,1563.2365,1563.2378,1564.5149,1,0,right,0.7613,,1564.5165,1564.5175,1,1,,1564.5184,1564.5189,1,1,,1,1564.5189,1564.5189,1564.5194,1566.0201,0,30,30,30,1,0.4,0.6,0.6,0.4,1,0,,,,,,,,,,,,,,,,,,,,,,,,,,,,,,,,,,,,
,,65fd910b6214e647ea9c6175,66fce1b157e3f6cf1e5b92db,2024-10-02_09h03.35.369,mdp,2024.2.1,Win32,40,66fa4ebf79326e780c390304,,,,,,,,,,,,,,,,,,,,,1566.021,1566.021,1566.0223,1567.174,1,0,right,0.6303,,1567.1756,1567.1766,1,0,,1567.1776,1567.178,1,1,,1,1567.1781,1567.1781,1567.1787,1568.6786,0,31,31,31,1,0.4,0.6,0.6,0.4,1,0,,,,,,,,,,,,,,,,,,,,,,,,,,,,,,,,,,,,
,,65fd910b6214e647ea9c6175,66fce1b157e3f6cf1e5b92db,2024-10-02_09h03.35.369,mdp,2024.2.1,Win32,40,66fa4ebf79326e780c390304,,,,,,,,,,,,,,,,,,,,,1568.6792,1568.6793,1568.681,1569.9583,1,0,right,0.7683,,1569.9599,1569.9607,1,0,,1569.9616,1569.9622,1,1,,1,1569.9622,1569.9622,1569.9627,1571.463,0,32,32,32,1,0.8,0.2,0.4,0.6,1,0,,,,,,,,,,,,,,,,,,,,,,,,,,,,,,,,,,,,
,,65fd910b6214e647ea9c6175,66fce1b157e3f6cf1e5b92db,2024-10-02_09h03.35.369,mdp,2024.2.1,Win32,40,66fa4ebf79326e780c390304,,,,,,,,,,,,,,,,,,,,,1571.4638,1571.4638,1571.4651,1572.7172,1,0,right,0.7299,,1572.7189,1572.7199,1,0,,1572.7206,1572.7211,1,1,,1,1572.7212,1572.7212,1572.7217,1574.2222,0,33,33,33,1,0.8,0.2,0.4,0.6,1,0,,,,,,,,,,,,,,,,,,,,,,,,,,,,,,,,,,,,
,,65fd910b6214e647ea9c6175,66fce1b157e3f6cf1e5b92db,2024-10-02_09h03.35.369,mdp,2024.2.1,Win32,40,66fa4ebf79326e780c390304,,,,,,,,,,,,,,,,,,,,,1574.2229,1574.2229,1574.2242,1575.4773,1,1,right,0.7286,,1575.4801,1575.4817,1,0,,1575.4828,1575.4837,1,1,,0,1575.4837,1575.4837,1575.4847,1576.9815,0,34,34,34,1,0.8,0.2,0.4,0.6,1,0,,,,,,,,,,,,,,,,,,,,,,,,,,,,,,,,,,,,
,,65fd910b6214e647ea9c6175,66fce1b157e3f6cf1e5b92db,2024-10-02_09h03.35.369,mdp,2024.2.1,Win32,40,66fa4ebf79326e780c390304,,,,,,,,,,,,,,,,,,,,,1576.9822,1576.9822,1576.9837,1578.4112,1,1,right,0.9015,,1578.4128,1578.4137,1,1,,1578.4145,1578.415,1,1,,0,1578.4151,1578.4151,1578.4156,1579.9163,0,35,35,35,1,0.8,0.2,0.4,0.6,1,0,,,,,,,,,,,,,,,,,,,,,,,,,,,,,,,,,,,,
,,65fd910b6214e647ea9c6175,66fce1b157e3f6cf1e5b92db,2024-10-02_09h03.35.369,mdp,2024.2.1,Win32,40,66fa4ebf79326e780c390304,,,,,,,,,,,,,,,,,,,,,1579.9171,1579.9171,1579.9185,1581.0704,0,0,left,0.6401,,1581.0719,1581.0727,1,0,,1581.0738,1581.0742,1,0,,1,1581.0742,1581.0743,1581.0748,1582.5752,0,36,36,36,1,0.8,0.2,0.4,0.6,1,0,,,,,,,,,,,,,,,,,,,,,,,,,,,,,,,,,,,,
,,65fd910b6214e647ea9c6175,66fce1b157e3f6cf1e5b92db,2024-10-02_09h03.35.369,mdp,2024.2.1,Win32,40,66fa4ebf79326e780c390304,,,,,,,,,,,,,,,,,,,,,1582.5759,1582.5759,1582.5771,1583.1022,1,1,right,0.0075,,1583.1037,1583.1047,1,1,,1583.1056,1583.1061,1,1,,0,1583.1061,1583.1061,1583.1066,1584.6068,0,37,37,37,1,0.8,0.2,0.4,0.6,1,0,,,,,,,,,,,,,,,,,,,,,,,,,,,,,,,,,,,,
,,65fd910b6214e647ea9c6175,66fce1b157e3f6cf1e5b92db,2024-10-02_09h03.35.369,mdp,2024.2.1,Win32,40,66fa4ebf79326e780c390304,,,,,,,,,,,,,,,,,,,,,1584.6075,1584.6075,1584.6087,1585.9116,0,1,left,0.7808,,1585.9129,1585.9138,1,1,,1585.9147,1585.9152,1,0,,0,1585.9153,1585.9153,1585.9158,1587.4163,0,38,38,38,1,0.8,0.2,0.4,0.6,1,0,,,,,,,,,,,,,,,,,,,,,,,,,,,,,,,,,,,,
,,65fd910b6214e647ea9c6175,66fce1b157e3f6cf1e5b92db,2024-10-02_09h03.35.369,mdp,2024.2.1,Win32,40,66fa4ebf79326e780c390304,,,,,,,,,,,,,,,,,,,,,1587.417,1587.417,1587.4184,1588.6207,1,0,right,0.6862,,1588.6242,1588.6254,1,1,,1588.6265,1588.6273,1,0,,1,1588.6274,1588.6274,1588.6283,1590.1252,0,39,39,39,1,0.4,0.6,0.6,0.4,1,0,,,,,,,,,,,,,,,,,,,,,,,,,,,,,,,,,,,,
,,65fd910b6214e647ea9c6175,66fce1b157e3f6cf1e5b92db,2024-10-02_09h03.35.369,mdp,2024.2.1,Win32,40,66fa4ebf79326e780c390304,,,,,,,,,,,,,,,,,,,,,1590.1259,1590.1259,1590.127,1591.3047,1,0,right,0.656,,1591.3072,1591.3087,1,0,,1591.3099,1591.3108,1,0,,1,1591.3108,1591.3108,1591.3118,1592.8094,0,40,40,40,1,0.4,0.6,0.6,0.4,1,0,,,,,,,,,,,,,,,,,,,,,,,,,,,,,,,,,,,,
,,65fd910b6214e647ea9c6175,66fce1b157e3f6cf1e5b92db,2024-10-02_09h03.35.369,mdp,2024.2.1,Win32,40,66fa4ebf79326e780c390304,,,,,,,,,,,,,,,,,,,,,1592.81,1592.81,1592.8118,1593.7627,1,1,right,0.4317,,1593.7642,1593.7649,1,0,,1593.766,1593.7665,1,1,,0,1593.7665,1593.7665,1593.7671,1595.2675,0,41,41,41,1,0.4,0.6,0.6,0.4,1,0,,,,,,,,,,,,,,,,,,,,,,,,,,,,,,,,,,,,
,,65fd910b6214e647ea9c6175,66fce1b157e3f6cf1e5b92db,2024-10-02_09h03.35.369,mdp,2024.2.1,Win32,40,66fa4ebf79326e780c390304,,,,,,,,,,,,,,,,,,,,,1595.2683,1595.2684,1595.2698,1596.3964,0,0,left,0.6165,,1596.3981,1596.3993,1,1,,1596.4001,1596.4005,1,0,,1,1596.4006,1596.4006,1596.4011,1597.901,0,42,42,42,1,0.8,0.2,0.4,0.6,1,0,,,,,,,,,,,,,,,,,,,,,,,,,,,,,,,,,,,,
,,65fd910b6214e647ea9c6175,66fce1b157e3f6cf1e5b92db,2024-10-02_09h03.35.369,mdp,2024.2.1,Win32,40,66fa4ebf79326e780c390304,,,,,,,,,,,,,,,,,,,,,1597.9018,1597.9018,1597.9032,1598.9555,0,1,left,0.5389,,1598.9584,1598.9599,1,0,,1598.9611,1598.9619,1,0,,0,1598.9619,1598.962,1598.9629,1600.4597,0,43,43,43,1,0.8,0.2,0.4,0.6,1,0,,,,,,,,,,,,,,,,,,,,,,,,,,,,,,,,,,,,
,,65fd910b6214e647ea9c6175,66fce1b157e3f6cf1e5b92db,2024-10-02_09h03.35.369,mdp,2024.2.1,Win32,40,66fa4ebf79326e780c390304,,,,,,,,,,,,,,,,,,,,,1600.4604,1600.4605,1600.4616,1601.4883,1,1,right,0.5148,,1601.4901,1601.491,1,1,,1601.4918,1601.4923,1,1,,0,1601.4924,1601.4924,1601.4928,1602.9932,0,44,44,44,1,0.8,0.2,0.4,0.6,1,0,,,,,,,,,,,,,,,,,,,,,,,,,,,,,,,,,,,,
,,65fd910b6214e647ea9c6175,66fce1b157e3f6cf1e5b92db,2024-10-02_09h03.35.369,mdp,2024.2.1,Win32,40,66fa4ebf79326e780c390304,,,,,,,,,,,,,,,,,,,,,1602.9938,1602.9938,1602.9951,1604.3226,1,0,right,0.8155,,1604.3244,1604.3258,1,1,,1604.3267,1604.3274,1,1,,1,1604.3274,1604.3274,1604.3283,1605.8277,0,45,45,45,1,0.8,0.2,0.4,0.6,1,0,,,,,,,,,,,,,,,,,,,,,,,,,,,,,,,,,,,,
