init_exp.started,init_exp.stopped,participant,session,date,expName,psychopyVersion,OS,frameRate,study_id,disp_instruction.started,disp_instruction.stopped,instruction.thisRepN,instruction.thisTrialN,instruction.thisN,instruction.thisIndex,instruction.ran,instimg_path,consent.started,consent.stopped,key_resp_3.keys,key_resp_3.rt,key_resp_3.duration,n_steps,sequence_path,init_block.started,init_block.stopped,key_resp.keys,key_resp.rt,key_resp.duration,init_trials.started,init_trials.stopped,step0.started,step0.stopped,act0,s1,res0.keys,res0.rt,res0.duration,step1.started,step1.stopped,act1,s2,res1.keys,step2.started,step2.stopped,act2,s3,res2.keys,rew,reward_comp.started,reward_comp.stopped,reward_disp.started,reward_disp.stopped,trials.thisRepN,trials.thisTrialN,trials.thisN,trials.thisIndex,trials.ran,s00a0s10,s00a0s11,s00a1s10,s00a1s11,rew10,rew11,break_block.started,break_block.stopped,block.thisRepN,block.thisTrialN,block.thisN,block.thisIndex,block.ran,s00path,s10path,s11path,s20path,s21path,res1.rt,res1.duration,s10a0s20,s10a0s21,s10a1s20,s10a1s21,s11a0s20,s11a0s21,s11a1s20,s11a1s21,rew20,rew21,res2.rt,res2.duration,s20a0s30,s20a0s31,s20a1s30,s20a1s31,s21a0s30,s21a0s31,s21a1s30,s21a1s31,rew30,rew31
0.0006,0.0048,6604b3ecc51a5f1e73eb122e,66fc99e06b85299257412ea3,2024-10-01_20h56.46.331,mdp,2024.2.1,Win32,59.52380952,66fa4ebf79326e780c390304,,,,,,,,,,,,,,,,,,,,,,,,,,,,,,,,,,,,,,,,,,,,,,,,,,,,,,,,,,,,,,,,,,,,,,,,,,,,,,,,,,,,,,,,,,,
,,6604b3ecc51a5f1e73eb122e,66fc99e06b85299257412ea3,2024-10-01_20h56.46.331,mdp,2024.2.1,Win32,59.52380952,66fa4ebf79326e780c390304,0.0189,64.0379,0,0,0,0,1,rlnn_exp/rlnn_exp.001.png,,,,,,,,,,,,,,,,,,,,,,,,,,,,,,,,,,,,,,,,,,,,,,,,,,,,,,,,,,,,,,,,,,,,,,,,,,,,,,,,,,,
,,6604b3ecc51a5f1e73eb122e,66fc99e06b85299257412ea3,2024-10-01_20h56.46.331,mdp,2024.2.1,Win32,59.52380952,66fa4ebf79326e780c390304,64.0404,137.033,0,1,1,1,1,rlnn_exp/rlnn_exp.002.png,,,,,,,,,,,,,,,,,,,,,,,,,,,,,,,,,,,,,,,,,,,,,,,,,,,,,,,,,,,,,,,,,,,,,,,,,,,,,,,,,,,
,,6604b3ecc51a5f1e73eb122e,66fc99e06b85299257412ea3,2024-10-01_20h56.46.331,mdp,2024.2.1,Win32,59.52380952,66fa4ebf79326e780c390304,137.0344,221.2284,0,2,2,2,1,rlnn_exp/rlnn_exp.003.png,,,,,,,,,,,,,,,,,,,,,,,,,,,,,,,,,,,,,,,,,,,,,,,,,,,,,,,,,,,,,,,,,,,,,,,,,,,,,,,,,,,
,,6604b3ecc51a5f1e73eb122e,66fc99e06b85299257412ea3,2024-10-01_20h56.46.331,mdp,2024.2.1,Win32,59.52380952,66fa4ebf79326e780c390304,221.2302,275.1132,0,3,3,3,1,rlnn_exp/rlnn_exp.004.png,,,,,,,,,,,,,,,,,,,,,,,,,,,,,,,,,,,,,,,,,,,,,,,,,,,,,,,,,,,,,,,,,,,,,,,,,,,,,,,,,,,
,,6604b3ecc51a5f1e73eb122e,66fc99e06b85299257412ea3,2024-10-01_20h56.46.331,mdp,2024.2.1,Win32,59.52380952,66fa4ebf79326e780c390304,,,,,,,,,275.1139,300.7069,y,15.5629,,,,,,,,,,,,,,,,,,,,,,,,,,,,,,,,,,,,,,,,,,,,,,,,,,,,,,,,,,,,,,,,,,,,,,,,,,,,,,,
,,6604b3ecc51a5f1e73eb122e,66fc99e06b85299257412ea3,2024-10-01_20h56.46.331,mdp,2024.2.1,Win32,59.52380952,66fa4ebf79326e780c390304,,,,,,,,,,,,,,1,seqs/st1seq49.csv,300.7137,303.7237,space,2.4884,,303.7338,303.7341,303.7351,330.6171,1,0,right,26.3539,,330.6184,330.6233,,1,,330.6244,330.628,,1,,1,330.6283,330.6287,330.6297,332.1326,0,0,0,0,1,0.4,0.6,0.6,0.4,1,0,,,,,,,,,,,,,,,,,,,,,,,,,,,,,,,,,,,,
,,6604b3ecc51a5f1e73eb122e,66fc99e06b85299257412ea3,2024-10-01_20h56.46.331,mdp,2024.2.1,Win32,59.52380952,66fa4ebf79326e780c390304,,,,,,,,,,,,,,,,,,,,,332.1339,332.1341,332.1372,345.8122,1,1,right,13.1478,,345.8162,345.8185,,1,,345.8205,345.8219,,1,,0,345.8221,345.8221,345.8237,347.3117,0,1,1,1,1,0.4,0.6,0.6,0.4,1,0,,,,,,,,,,,,,,,,,,,,,,,,,,,,,,,,,,,,
,,6604b3ecc51a5f1e73eb122e,66fc99e06b85299257412ea3,2024-10-01_20h56.46.331,mdp,2024.2.1,Win32,59.52380952,66fa4ebf79326e780c390304,,,,,,,,,,,,,,,,,,,,,347.3128,347.3128,347.3167,351.5272,1,1,right,3.6915,,351.5306,351.5328,,1,,351.5348,351.5363,,0,,0,351.5364,351.5364,351.5378,353.0268,0,2,2,2,1,0.4,0.6,0.6,0.4,1,0,,,,,,,,,,,,,,,,,,,,,,,,,,,,,,,,,,,,
,,6604b3ecc51a5f1e73eb122e,66fc99e06b85299257412ea3,2024-10-01_20h56.46.331,mdp,2024.2.1,Win32,59.52380952,66fa4ebf79326e780c390304,,,,,,,,,,,,,,,,,,,,,353.0279,353.0279,353.0319,365.0405,1,0,right,11.4807,,365.0436,365.0461,,1,,365.0487,365.0502,,0,,1,365.0505,365.0505,365.0518,366.5398,0,3,3,3,1,0.4,0.6,0.6,0.4,1,0,,,,,,,,,,,,,,,,,,,,,,,,,,,,,,,,,,,,
,,6604b3ecc51a5f1e73eb122e,66fc99e06b85299257412ea3,2024-10-01_20h56.46.331,mdp,2024.2.1,Win32,59.52380952,66fa4ebf79326e780c390304,,,,,,,,,,,,,,,,,,,,,366.5411,366.5412,366.5439,378.5703,1,1,right,11.5041,,378.5737,378.5761,,0,,378.5782,378.58,,1,,0,378.5801,378.5801,378.5818,380.0694,0,4,4,4,1,0.6,0.4,0.8,0.2,1,0,,,,,,,,,,,,,,,,,,,,,,,,,,,,,,,,,,,,
,,6604b3ecc51a5f1e73eb122e,66fc99e06b85299257412ea3,2024-10-01_20h56.46.331,mdp,2024.2.1,Win32,59.52380952,66fa4ebf79326e780c390304,,,,,,,,,,,,,,,,,,,,,380.0704,380.0704,380.075,382.836,0,1,left,2.235,,382.8395,382.8416,,0,,382.8435,382.8452,,1,,0,382.8453,382.8453,382.8468,384.3354,0,5,5,5,1,0.6,0.4,0.8,0.2,1,0,,,,,,,,,,,,,,,,,,,,,,,,,,,,,,,,,,,,
,,6604b3ecc51a5f1e73eb122e,66fc99e06b85299257412ea3,2024-10-01_20h56.46.331,mdp,2024.2.1,Win32,59.52380952,66fa4ebf79326e780c390304,,,,,,,,,,,,,,,,,,,,,384.3366,384.3367,384.3405,387.9349,1,0,right,3.0685,,387.938,387.9403,,0,,387.9425,387.9441,,0,,1,387.9442,387.9442,387.9459,389.4337,0,6,6,6,1,0.6,0.4,0.8,0.2,1,0,,,,,,,,,,,,,,,,,,,,,,,,,,,,,,,,,,,,
,,6604b3ecc51a5f1e73eb122e,66fc99e06b85299257412ea3,2024-10-01_20h56.46.331,mdp,2024.2.1,Win32,59.52380952,66fa4ebf79326e780c390304,,,,,,,,,,,,,,,,,,,,,389.4349,389.4349,389.4394,391.3339,1,0,right,1.3713,,391.337,391.3393,,0,,391.3413,391.3431,,0,,1,391.3432,391.3432,391.3449,392.8334,0,7,7,7,1,0.4,0.6,0.6,0.4,1,0,,,,,,,,,,,,,,,,,,,,,,,,,,,,,,,,,,,,
,,6604b3ecc51a5f1e73eb122e,66fc99e06b85299257412ea3,2024-10-01_20h56.46.331,mdp,2024.2.1,Win32,59.52380952,66fa4ebf79326e780c390304,,,,,,,,,,,,,,,,,,,,,392.8345,392.8346,392.8377,398.1652,1,1,right,4.7994,,398.1682,398.1703,,1,,398.1725,398.174,,1,,0,398.1741,398.1743,398.176,399.6647,0,8,8,8,1,0.8,0.2,0.2,0.8,1,0,,,,,,,,,,,,,,,,,,,,,,,,,,,,,,,,,,,,
,,6604b3ecc51a5f1e73eb122e,66fc99e06b85299257412ea3,2024-10-01_20h56.46.331,mdp,2024.2.1,Win32,59.52380952,66fa4ebf79326e780c390304,,,,,,,,,,,,,,,,,,,,,399.6658,399.666,399.6693,400.6148,1,1,right,0.4171,,400.6177,400.62,,0,,400.6219,400.6237,,1,,0,400.6238,400.6238,400.6253,402.114,0,9,9,9,1,0.8,0.2,0.2,0.8,1,0,,,,,,,,,,,,,,,,,,,,,,,,,,,,,,,,,,,,
,,6604b3ecc51a5f1e73eb122e,66fc99e06b85299257412ea3,2024-10-01_20h56.46.331,mdp,2024.2.1,Win32,59.52380952,66fa4ebf79326e780c390304,,,,,,,,,,,,,,,,,,,,,402.1151,402.1152,402.1181,403.6974,1,1,right,1.0513,,403.7002,403.7021,,0,,403.7039,403.7066,,1,,0,403.7067,403.7067,403.7084,405.1965,0,10,10,10,1,0.8,0.2,0.2,0.8,1,0,,,,,,,,,,,,,,,,,,,,,,,,,,,,,,,,,,,,
,,6604b3ecc51a5f1e73eb122e,66fc99e06b85299257412ea3,2024-10-01_20h56.46.331,mdp,2024.2.1,Win32,59.52380952,66fa4ebf79326e780c390304,,,,,,,,,,,,,,,,,,,,,405.1976,405.1976,405.2005,407.1465,1,1,right,1.4184,,407.1513,407.1533,,1,,407.1552,407.1569,,1,,0,407.157,407.157,407.1585,408.6452,0,11,11,11,1,0.8,0.2,0.2,0.8,1,0,,,,,,,,,,,,,,,,,,,,,,,,,,,,,,,,,,,,
,,6604b3ecc51a5f1e73eb122e,66fc99e06b85299257412ea3,2024-10-01_20h56.46.331,mdp,2024.2.1,Win32,59.52380952,66fa4ebf79326e780c390304,,,,,,,,,,,,,,,,,,,,,408.6459,408.6459,408.648,409.3954,1,1,right,0.2176,,409.3984,409.4006,,1,,409.4026,409.4041,,1,,0,409.4042,409.4042,409.4058,410.8951,0,12,12,12,1,0.8,0.2,0.2,0.8,1,0,,,,,,,,,,,,,,,,,,,,,,,,,,,,,,,,,,,,
,,6604b3ecc51a5f1e73eb122e,66fc99e06b85299257412ea3,2024-10-01_20h56.46.331,mdp,2024.2.1,Win32,59.52380952,66fa4ebf79326e780c390304,,,,,,,,,,,,,,,,,,,,,410.8961,410.8961,410.8986,419.2255,1,1,right,7.8012,,419.2277,419.229,,0,,419.2303,419.2312,,0,,0,419.2312,419.2312,419.2321,420.7259,0,13,13,13,1,0.2,0.8,0.8,0.2,1,0,,,,,,,,,,,,,,,,,,,,,,,,,,,,,,,,,,,,
,,6604b3ecc51a5f1e73eb122e,66fc99e06b85299257412ea3,2024-10-01_20h56.46.331,mdp,2024.2.1,Win32,59.52380952,66fa4ebf79326e780c390304,,,,,,,,,,,,,,,,,,,,,420.7269,420.7269,420.7293,421.3589,0,1,left,0.1085,,421.3615,421.3634,,0,,421.3651,421.3664,,0,,0,421.3665,421.3665,421.3678,422.8583,0,14,14,14,1,0.2,0.8,0.8,0.2,1,0,,,,,,,,,,,,,,,,,,,,,,,,,,,,,,,,,,,,
,,6604b3ecc51a5f1e73eb122e,66fc99e06b85299257412ea3,2024-10-01_20h56.46.331,mdp,2024.2.1,Win32,59.52380952,66fa4ebf79326e780c390304,,,,,,,,,,,,,,,,,,,,,422.8592,422.8592,422.8617,424.675,1,1,right,1.2899,,424.6781,424.6804,,1,,424.6822,424.6836,,1,,0,424.6836,424.6837,424.6853,426.1746,0,15,15,15,1,0.8,0.2,0.2,0.8,1,0,,,,,,,,,,,,,,,,,,,,,,,,,,,,,,,,,,,,
,,6604b3ecc51a5f1e73eb122e,66fc99e06b85299257412ea3,2024-10-01_20h56.46.331,mdp,2024.2.1,Win32,59.52380952,66fa4ebf79326e780c390304,,,,,,,,,,,,,,,,,,,,,426.1755,426.1755,426.1786,434.3727,1,1,right,7.6663,,434.3766,434.3785,,1,,434.3804,434.382,,1,,0,434.3821,434.3822,434.3839,435.8721,0,16,16,16,1,0.8,0.2,0.2,0.8,1,0,,,,,,,,,,,,,,,,,,,,,,,,,,,,,,,,,,,,
,,6604b3ecc51a5f1e73eb122e,66fc99e06b85299257412ea3,2024-10-01_20h56.46.331,mdp,2024.2.1,Win32,59.52380952,66fa4ebf79326e780c390304,,,,,,,,,,,,,,,,,,,,,435.8732,435.8732,435.8759,445.1195,1,1,right,8.7195,,445.1225,445.1247,,1,,445.1272,445.1287,,1,,0,445.1289,445.1289,445.1308,446.6187,0,17,17,17,1,0.8,0.2,0.2,0.8,1,0,,,,,,,,,,,,,,,,,,,,,,,,,,,,,,,,,,,,
,,6604b3ecc51a5f1e73eb122e,66fc99e06b85299257412ea3,2024-10-01_20h56.46.331,mdp,2024.2.1,Win32,59.52380952,66fa4ebf79326e780c390304,,,,,,,,,,,,,,,,,,,,,446.6196,446.6197,446.623,448.4185,1,0,right,1.2745,,448.4223,448.4245,,0,,448.4271,448.4286,,0,,1,448.4287,448.4287,448.4317,449.9184,0,18,18,18,1,0.2,0.8,0.8,0.2,1,0,,,,,,,,,,,,,,,,,,,,,,,,,,,,,,,,,,,,
,,6604b3ecc51a5f1e73eb122e,66fc99e06b85299257412ea3,2024-10-01_20h56.46.331,mdp,2024.2.1,Win32,59.52380952,66fa4ebf79326e780c390304,,,,,,,,,,,,,,,,,,,,,449.9194,449.9195,449.9225,460.0154,1,1,right,9.5735,,460.0186,460.0206,,0,,460.0226,460.0242,,0,,0,460.0243,460.0243,460.0258,461.5149,0,19,19,19,1,0.2,0.8,0.8,0.2,1,0,,,,,,,,,,,,,,,,,,,,,,,,,,,,,,,,,,,,
,,6604b3ecc51a5f1e73eb122e,66fc99e06b85299257412ea3,2024-10-01_20h56.46.331,mdp,2024.2.1,Win32,59.52380952,66fa4ebf79326e780c390304,,,,,,,,,,,,,,,,,,,,,461.5161,461.5162,461.5191,463.5811,1,0,right,1.5345,,463.5845,463.5867,,1,,463.5889,463.5907,,0,,1,463.5907,463.5908,463.5923,465.0804,0,20,20,20,1,0.2,0.8,0.8,0.2,1,0,,,,,,,,,,,,,,,,,,,,,,,,,,,,,,,,,,,,
,,6604b3ecc51a5f1e73eb122e,66fc99e06b85299257412ea3,2024-10-01_20h56.46.331,mdp,2024.2.1,Win32,59.52380952,66fa4ebf79326e780c390304,,,,,,,,,,,,,,,,,,,,,465.0813,465.0814,465.0838,466.497,1,1,right,0.8837,,466.5004,466.5023,,0,,466.5044,466.506,,0,,0,466.5062,466.5062,466.5078,467.9961,0,21,21,21,1,0.2,0.8,0.8,0.2,1,0,,,,,,,,,,,,,,,,,,,,,,,,,,,,,,,,,,,,
,,6604b3ecc51a5f1e73eb122e,66fc99e06b85299257412ea3,2024-10-01_20h56.46.331,mdp,2024.2.1,Win32,59.52380952,66fa4ebf79326e780c390304,,,,,,,,,,,,,,,,,,,,,467.9971,467.9971,467.9999,469.7295,1,0,right,1.2046,,469.7331,469.7352,,0,,469.7371,469.7385,,0,,1,469.7386,469.7386,469.7401,471.2289,0,22,22,22,1,0.2,0.8,0.8,0.2,1,0,,,,,,,,,,,,,,,,,,,,,,,,,,,,,,,,,,,,
,,6604b3ecc51a5f1e73eb122e,66fc99e06b85299257412ea3,2024-10-01_20h56.46.331,mdp,2024.2.1,Win32,59.52380952,66fa4ebf79326e780c390304,,,,,,,,,,,,,,,,,,,,,471.2297,471.2297,471.2322,473.7284,1,0,right,1.9675,,473.7316,473.7335,,0,,473.7355,473.7371,,0,,1,473.7372,473.7372,473.7387,475.2279,0,23,23,23,1,0.2,0.8,0.8,0.2,1,0,,,,,,,,,,,,,,,,,,,,,,,,,,,,,,,,,,,,
,,6604b3ecc51a5f1e73eb122e,66fc99e06b85299257412ea3,2024-10-01_20h56.46.331,mdp,2024.2.1,Win32,59.52380952,66fa4ebf79326e780c390304,,,,,,,,,,,,,,,,,,,,,475.229,475.229,475.2319,476.4109,1,0,right,0.651,,476.4141,476.4159,,0,,476.4182,476.4197,,0,,1,476.4198,476.4198,476.4213,477.9103,0,24,24,24,1,0.2,0.8,0.8,0.2,1,0,,,,,,,,,,,,,,,,,,,,,,,,,,,,,,,,,,,,
,,6604b3ecc51a5f1e73eb122e,66fc99e06b85299257412ea3,2024-10-01_20h56.46.331,mdp,2024.2.1,Win32,59.52380952,66fa4ebf79326e780c390304,,,,,,,,,,,,,,,,,,,,,477.9111,477.9111,477.9136,479.8599,1,0,right,1.4237,,479.8628,479.8649,,0,,479.8669,479.8683,,0,,1,479.8684,479.8685,479.8699,481.3596,0,25,25,25,1,0.2,0.8,0.8,0.2,1,0,,,,,,,,,,,,,,,,,,,,,,,,,,,,,,,,,,,,
,,6604b3ecc51a5f1e73eb122e,66fc99e06b85299257412ea3,2024-10-01_20h56.46.331,mdp,2024.2.1,Win32,59.52380952,66fa4ebf79326e780c390304,,,,,,,,,,,,,,,,,,,,,481.3605,481.3605,481.3631,482.2597,1,0,right,0.3703,,482.263,482.2649,,0,,482.2672,482.2693,,0,,1,482.2693,482.2694,482.271,483.7589,0,26,26,26,1,0.2,0.8,0.8,0.2,1,0,,,,,,,,,,,,,,,,,,,,,,,,,,,,,,,,,,,,
,,6604b3ecc51a5f1e73eb122e,66fc99e06b85299257412ea3,2024-10-01_20h56.46.331,mdp,2024.2.1,Win32,59.52380952,66fa4ebf79326e780c390304,,,,,,,,,,,,,,,,,,,,,483.7598,483.7598,483.7631,486.2921,1,0,right,2.01,,486.2946,486.2964,,1,,486.2985,486.2999,,0,,1,486.3,486.3,486.3015,487.7911,0,27,27,27,1,0.2,0.8,0.8,0.2,1,0,,,,,,,,,,,,,,,,,,,,,,,,,,,,,,,,,,,,
,,6604b3ecc51a5f1e73eb122e,66fc99e06b85299257412ea3,2024-10-01_20h56.46.331,mdp,2024.2.1,Win32,59.52380952,66fa4ebf79326e780c390304,,,,,,,,,,,,,,,,,,,,,487.792,487.7921,487.7951,495.1394,1,0,right,6.8224,,495.1432,495.1459,,0,,495.1479,495.1494,,0,,1,495.1494,495.1494,495.1509,496.6391,0,28,28,28,1,0.2,0.8,0.8,0.2,1,0,,,,,,,,,,,,,,,,,,,,,,,,,,,,,,,,,,,,
,,6604b3ecc51a5f1e73eb122e,66fc99e06b85299257412ea3,2024-10-01_20h56.46.331,mdp,2024.2.1,Win32,59.52380952,66fa4ebf79326e780c390304,,,,,,,,,,,,,,,,,,,,,496.6401,496.6401,496.6435,498.1885,1,0,right,1.0244,,498.1917,498.1941,,1,,498.1968,498.1984,,0,,1,498.1985,498.1986,498.2002,499.6877,0,29,29,29,1,0.2,0.8,0.8,0.2,1,0,,,,,,,,,,,,,,,,,,,,,,,,,,,,,,,,,,,,
,,6604b3ecc51a5f1e73eb122e,66fc99e06b85299257412ea3,2024-10-01_20h56.46.331,mdp,2024.2.1,Win32,59.52380952,66fa4ebf79326e780c390304,,,,,,,,,,,,,,,,,,,,,499.6886,499.6886,499.6913,500.6213,1,0,right,0.4016,,500.6244,500.6262,,0,,500.6284,500.63,,1,,1,500.63,500.63,500.6317,502.1209,0,30,30,30,1,0.2,0.8,0.8,0.2,1,0,,,,,,,,,,,,,,,,,,,,,,,,,,,,,,,,,,,,
,,6604b3ecc51a5f1e73eb122e,66fc99e06b85299257412ea3,2024-10-01_20h56.46.331,mdp,2024.2.1,Win32,59.52380952,66fa4ebf79326e780c390304,,,,,,,,,,,,,,,,,,,,,502.122,502.122,502.1249,503.5042,1,0,right,0.8494,,503.5069,503.5093,,0,,503.5116,503.5132,,0,,1,503.5132,503.5132,503.515,505.0033,0,31,31,31,1,0.2,0.8,0.8,0.2,1,0,,,,,,,,,,,,,,,,,,,,,,,,,,,,,,,,,,,,
,,6604b3ecc51a5f1e73eb122e,66fc99e06b85299257412ea3,2024-10-01_20h56.46.331,mdp,2024.2.1,Win32,59.52380952,66fa4ebf79326e780c390304,,,,,,,,,,,,,,,,,,,,,505.0043,505.0044,505.0076,507.2694,1,1,right,1.7353,,507.272,507.2736,,1,,507.2755,507.277,,1,,0,507.2772,507.2772,507.2785,508.7694,0,32,32,32,1,0.8,0.2,0.6,0.4,1,0,,,,,,,,,,,,,,,,,,,,,,,,,,,,,,,,,,,,
,,6604b3ecc51a5f1e73eb122e,66fc99e06b85299257412ea3,2024-10-01_20h56.46.331,mdp,2024.2.1,Win32,59.52380952,66fa4ebf79326e780c390304,,,,,,,,,,,,,,,,,,,,,508.7703,508.7703,508.7728,512.0686,1,1,right,2.7678,,512.0713,512.0734,,1,,512.0756,512.0772,,0,,0,512.0772,512.0772,512.0788,513.568,0,33,33,33,1,0.8,0.2,0.6,0.4,1,0,,,,,,,,,,,,,,,,,,,,,,,,,,,,,,,,,,,,
,,6604b3ecc51a5f1e73eb122e,66fc99e06b85299257412ea3,2024-10-01_20h56.46.331,mdp,2024.2.1,Win32,59.52380952,66fa4ebf79326e780c390304,,,,,,,,,,,,,,,,,,,,,513.569,513.5691,513.5721,514.7341,1,1,right,0.638,,514.7371,514.7397,,1,,514.7417,514.7432,,0,,0,514.7432,514.7433,514.745,516.2338,0,34,34,34,1,0.6,0.4,0.4,0.6,1,0,,,,,,,,,,,,,,,,,,,,,,,,,,,,,,,,,,,,
,,6604b3ecc51a5f1e73eb122e,66fc99e06b85299257412ea3,2024-10-01_20h56.46.331,mdp,2024.2.1,Win32,59.52380952,66fa4ebf79326e780c390304,,,,,,,,,,,,,,,,,,,,,516.2348,516.2348,516.2378,520.0994,1,1,right,3.3322,,520.1022,520.1044,,1,,520.1064,520.108,,1,,0,520.1081,520.1081,520.1095,521.5991,0,35,35,35,1,0.6,0.4,0.4,0.6,1,0,,,,,,,,,,,,,,,,,,,,,,,,,,,,,,,,,,,,
,,6604b3ecc51a5f1e73eb122e,66fc99e06b85299257412ea3,2024-10-01_20h56.46.331,mdp,2024.2.1,Win32,59.52380952,66fa4ebf79326e780c390304,,,,,,,,,,,,,,,,,,,,,521.6,521.6,521.6029,523.6151,1,0,right,1.4889,,523.618,523.6196,,0,,523.6216,523.6231,,0,,1,523.6232,523.6232,523.6247,525.115,0,36,36,36,1,0.2,0.8,0.8,0.2,1,0,,,,,,,,,,,,,,,,,,,,,,,,,,,,,,,,,,,,
,,6604b3ecc51a5f1e73eb122e,66fc99e06b85299257412ea3,2024-10-01_20h56.46.331,mdp,2024.2.1,Win32,59.52380952,66fa4ebf79326e780c390304,,,,,,,,,,,,,,,,,,,,,525.1161,525.1162,525.1189,526.4145,1,1,right,0.7724,,526.4178,526.4196,,0,,526.4214,526.4227,,0,,0,526.4228,526.4228,526.4243,527.9141,0,37,37,37,1,0.2,0.8,0.8,0.2,1,0,,,,,,,,,,,,,,,,,,,,,,,,,,,,,,,,,,,,
,,6604b3ecc51a5f1e73eb122e,66fc99e06b85299257412ea3,2024-10-01_20h56.46.331,mdp,2024.2.1,Win32,59.52380952,66fa4ebf79326e780c390304,,,,,,,,,,,,,,,,,,,,,527.9154,527.9154,527.9186,530.3132,1,0,right,1.8752,,530.3163,530.3182,,1,,530.3203,530.3217,,0,,1,530.3218,530.3219,530.3233,531.8128,0,38,38,38,1,0.2,0.8,0.8,0.2,1,0,,,,,,,,,,,,,,,,,,,,,,,,,,,,,,,,,,,,
,,6604b3ecc51a5f1e73eb122e,66fc99e06b85299257412ea3,2024-10-01_20h56.46.331,mdp,2024.2.1,Win32,59.52380952,66fa4ebf79326e780c390304,,,,,,,,,,,,,,,,,,,,,531.8138,531.8138,531.8168,532.8793,1,0,right,0.5345,,532.8823,532.8844,,0,,532.8868,532.8883,,1,,1,532.8884,532.8884,532.8899,534.3785,0,39,39,39,1,0.2,0.8,0.8,0.2,1,0,,,,,,,,,,,,,,,,,,,,,,,,,,,,,,,,,,,,
,,6604b3ecc51a5f1e73eb122e,66fc99e06b85299257412ea3,2024-10-01_20h56.46.331,mdp,2024.2.1,Win32,59.52380952,66fa4ebf79326e780c390304,,,,,,,,,,,,,,,,,,,,,534.3794,534.3795,534.3851,535.1627,1,0,right,0.2613,,535.1658,535.1677,,0,,535.17,535.1715,,0,,1,535.1716,535.1717,535.173,536.6617,0,40,40,40,1,0.2,0.8,0.8,0.2,1,0,,,,,,,,,,,,,,,,,,,,,,,,,,,,,,,,,,,,
,,6604b3ecc51a5f1e73eb122e,66fc99e06b85299257412ea3,2024-10-01_20h56.46.331,mdp,2024.2.1,Win32,59.52380952,66fa4ebf79326e780c390304,,,,,,,,,,,,,,,,,,,,,536.6628,536.6628,536.6654,537.2285,1,0,right,0.0364,,537.2313,537.2334,,1,,537.2353,537.2369,,0,,1,537.237,537.237,537.2385,538.7279,0,41,41,41,1,0.2,0.8,0.8,0.2,1,0,,,,,,,,,,,,,,,,,,,,,,,,,,,,,,,,,,,,
,,6604b3ecc51a5f1e73eb122e,66fc99e06b85299257412ea3,2024-10-01_20h56.46.331,mdp,2024.2.1,Win32,59.52380952,66fa4ebf79326e780c390304,,,,,,,,,,,,,,,,,,,,,538.7289,538.7289,538.7313,541.3776,1,0,right,2.117,,541.3811,541.3831,,0,,541.3849,541.3867,,0,,1,541.3868,541.3868,541.3883,542.8764,0,42,42,42,1,0.2,0.8,0.8,0.2,1,0,,,,,,,,,,,,,,,,,,,,,,,,,,,,,,,,,,,,
,,6604b3ecc51a5f1e73eb122e,66fc99e06b85299257412ea3,2024-10-01_20h56.46.331,mdp,2024.2.1,Win32,59.52380952,66fa4ebf79326e780c390304,,,,,,,,,,,,,,,,,,,,,542.8777,542.8778,542.881,545.0096,1,0,right,1.6013,,545.0123,545.0141,,1,,545.0162,545.0181,,1,,1,545.0182,545.0182,545.0197,546.5089,0,43,43,43,1,0.6,0.4,0.6,0.4,1,0,,,,,,,,,,,,,,,,,,,,,,,,,,,,,,,,,,,,
,,6604b3ecc51a5f1e73eb122e,66fc99e06b85299257412ea3,2024-10-01_20h56.46.331,mdp,2024.2.1,Win32,59.52380952,66fa4ebf79326e780c390304,,,,,,,,,,,,,,,,,,,,,546.5098,546.5098,546.5123,547.8922,1,0,right,0.8588,,547.8956,547.8977,,1,,547.9,547.9017,,0,,1,547.9017,547.9017,547.9033,549.3917,0,44,44,44,1,0.8,0.2,0.8,0.2,1,0,,,,,,,,,,,,,,,,,,,,,,,,,,,,,,,,,,,,
,,6604b3ecc51a5f1e73eb122e,66fc99e06b85299257412ea3,2024-10-01_20h56.46.331,mdp,2024.2.1,Win32,59.52380952,66fa4ebf79326e780c390304,,,,,,,,,,,,,,,,,,,,,549.3926,549.3926,549.3952,551.1912,1,1,right,1.2733,,551.1939,551.1956,,1,,551.1974,551.199,,1,,0,551.1992,551.1992,551.2006,552.691,0,45,45,45,1,0.2,0.8,0.6,0.4,1,0,,,,,,,,,,,,,,,,,,,,,,,,,,,,,,,,,,,,
,,6604b3ecc51a5f1e73eb122e,66fc99e06b85299257412ea3,2024-10-01_20h56.46.331,mdp,2024.2.1,Win32,59.52380952,66fa4ebf79326e780c390304,,,,,,,,,,,,,,,,,,,,,552.692,552.692,552.6949,553.4072,1,1,right,0.1913,,553.4103,553.4119,,0,,553.4137,553.4149,,0,,0,553.415,553.415,553.4162,554.9072,0,46,46,46,1,0.2,0.8,0.6,0.4,1,0,,,,,,,,,,,,,,,,,,,,,,,,,,,,,,,,,,,,
,,6604b3ecc51a5f1e73eb122e,66fc99e06b85299257412ea3,2024-10-01_20h56.46.331,mdp,2024.2.1,Win32,59.52380952,66fa4ebf79326e780c390304,,,,,,,,,,,,,,,,,,,,,554.9081,554.9081,554.9114,556.0564,1,0,right,0.6262,,556.0591,556.0614,,1,,556.0639,556.0653,,0,,1,556.0654,556.0655,556.0668,557.5562,0,47,47,47,1,0.8,0.2,0.4,0.6,1,0,,,,,,,,,,,,,,,,,,,,,,,,,,,,,,,,,,,,
,,6604b3ecc51a5f1e73eb122e,66fc99e06b85299257412ea3,2024-10-01_20h56.46.331,mdp,2024.2.1,Win32,59.52380952,66fa4ebf79326e780c390304,,,,,,,,,,,,,,,,,,,,,557.5571,557.5571,557.5594,563.0049,1,1,right,4.9184,,563.008,563.0104,,1,,563.0127,563.0145,,1,,0,563.0146,563.0146,563.016,564.5036,0,48,48,48,1,0.8,0.2,0.4,0.6,1,0,,,,,,,,,,,,,,,,,,,,,,,,,,,,,,,,,,,,
,,6604b3ecc51a5f1e73eb122e,66fc99e06b85299257412ea3,2024-10-01_20h56.46.331,mdp,2024.2.1,Win32,59.52380952,66fa4ebf79326e780c390304,,,,,,,,,,,,,,,,,,,,,564.504,564.504,564.5058,565.7533,1,1,right,0.7267,,565.7545,565.7555,,1,,565.7565,565.757,,1,,0,565.757,565.757,565.7575,567.2536,0,49,49,49,1,0.8,0.2,0.4,0.6,1,0,,,,,,,,,,,,,,,,,,,,,,,,,,,,,,,,,,,,
,,6604b3ecc51a5f1e73eb122e,66fc99e06b85299257412ea3,2024-10-01_20h56.46.331,mdp,2024.2.1,Win32,59.52380952,66fa4ebf79326e780c390304,,,,,,,,,,,,,,,,,,,,,,,,,,,,,,,,,,,,,,,,,,,,,,,,,,,,,,,,567.2547,625.7727,0,0,0,1,1,imgs/squirrel.png,imgs/goat.png,imgs/dog.png,imgs/bear.png,imgs/horse.png,,,,,,,,,,,,,,,,,,,,,,,,
,,6604b3ecc51a5f1e73eb122e,66fc99e06b85299257412ea3,2024-10-01_20h56.46.331,mdp,2024.2.1,Win32,59.52380952,66fa4ebf79326e780c390304,,,,,,,,,,,,,,2,seqs/st2seq30.csv,625.7762,649.2495,space,22.945,,649.2666,649.2667,649.2723,658.0637,1,1,right,8.2479,,658.0669,661.4626,1,0,right,661.4663,661.4684,,1,,1,661.4685,661.4685,661.471,662.9617,0,0,0,0,1,0.2,0.8,0.6,0.4,,,,,,,,,,,,,,,2.855,,0.2,0.8,0.6,0.4,0.2,0.8,0.4,0.6,1,0,,,,,,,,,,,,
,,6604b3ecc51a5f1e73eb122e,66fc99e06b85299257412ea3,2024-10-01_20h56.46.331,mdp,2024.2.1,Win32,59.52380952,66fa4ebf79326e780c390304,,,,,,,,,,,,,,,,,,,,,662.9632,662.9633,662.966,664.5281,1,1,right,1.0336,,664.5312,667.2108,1,1,right,667.2139,667.2159,,1,,0,667.2161,667.2161,667.2181,668.7099,0,1,1,1,1,0.2,0.8,0.6,0.4,,,,,,,,,,,,,,,2.1503,,0.2,0.8,0.6,0.4,0.8,0.2,0.8,0.2,1,0,,,,,,,,,,,,
,,6604b3ecc51a5f1e73eb122e,66fc99e06b85299257412ea3,2024-10-01_20h56.46.331,mdp,2024.2.1,Win32,59.52380952,66fa4ebf79326e780c390304,,,,,,,,,,,,,,,,,,,,,668.7109,668.7109,668.7137,670.5266,1,0,right,1.2938,,670.5295,672.3425,1,0,right,672.3454,672.3473,,0,,1,672.3474,672.3474,672.3492,673.842,0,2,2,2,1,0.2,0.8,0.6,0.4,,,,,,,,,,,,,,,1.268,,0.2,0.8,0.6,0.4,0.8,0.2,0.8,0.2,1,0,,,,,,,,,,,,
,,6604b3ecc51a5f1e73eb122e,66fc99e06b85299257412ea3,2024-10-01_20h56.46.331,mdp,2024.2.1,Win32,59.52380952,66fa4ebf79326e780c390304,,,,,,,,,,,,,,,,,,,,,673.843,673.843,673.8458,679.2242,1,0,right,4.8582,,679.2271,682.4904,1,0,right,682.4929,682.4948,,1,,1,682.4949,682.4949,682.4967,683.9894,0,3,3,3,1,0.2,0.8,0.6,0.4,,,,,,,,,,,,,,,2.7335,,0.2,0.8,0.6,0.4,0.8,0.2,0.8,0.2,1,0,,,,,,,,,,,,
,,6604b3ecc51a5f1e73eb122e,66fc99e06b85299257412ea3,2024-10-01_20h56.46.331,mdp,2024.2.1,Win32,59.52380952,66fa4ebf79326e780c390304,,,,,,,,,,,,,,,,,,,,,683.9908,683.9908,683.9946,686.7553,1,1,right,2.2371,,686.7586,689.5879,1,0,right,689.5905,689.5929,,0,,1,689.593,689.593,689.5949,691.0876,0,4,4,4,1,0.2,0.8,0.6,0.4,,,,,,,,,,,,,,,2.2954,,0.2,0.8,0.6,0.4,0.8,0.2,0.8,0.2,1,0,,,,,,,,,,,,
,,6604b3ecc51a5f1e73eb122e,66fc99e06b85299257412ea3,2024-10-01_20h56.46.331,mdp,2024.2.1,Win32,59.52380952,66fa4ebf79326e780c390304,,,,,,,,,,,,,,,,,,,,,691.0887,691.0888,691.092,693.5705,1,1,right,1.9565,,693.574,696.2531,1,1,right,696.256,696.2581,,0,,0,696.2581,696.2582,696.2601,697.7523,0,5,5,5,1,0.2,0.8,0.6,0.4,,,,,,,,,,,,,,,2.1552,,0.2,0.8,0.6,0.4,0.8,0.2,0.8,0.2,1,0,,,,,,,,,,,,
,,6604b3ecc51a5f1e73eb122e,66fc99e06b85299257412ea3,2024-10-01_20h56.46.331,mdp,2024.2.1,Win32,59.52380952,66fa4ebf79326e780c390304,,,,,,,,,,,,,,,,,,,,,697.7535,697.7536,697.7564,700.4024,1,0,right,2.117,,700.4058,702.6516,1,0,right,702.6552,702.6577,,0,,1,702.6579,702.6579,702.6601,704.1508,0,6,6,6,1,0.2,0.8,0.6,0.4,,,,,,,,,,,,,,,1.7102,,0.2,0.8,0.6,0.4,0.2,0.8,0.6,0.4,1,0,,,,,,,,,,,,
,,6604b3ecc51a5f1e73eb122e,66fc99e06b85299257412ea3,2024-10-01_20h56.46.331,mdp,2024.2.1,Win32,59.52380952,66fa4ebf79326e780c390304,,,,,,,,,,,,,,,,,,,,,704.1519,704.152,704.1549,706.7674,1,0,right,2.0838,,706.7702,709.2665,1,0,right,709.2701,709.2722,,0,,1,709.2723,709.2723,709.2741,710.7658,0,7,7,7,1,0.2,0.8,0.6,0.4,,,,,,,,,,,,,,,1.9674,,0.2,0.8,0.6,0.4,0.2,0.8,0.6,0.4,1,0,,,,,,,,,,,,
,,6604b3ecc51a5f1e73eb122e,66fc99e06b85299257412ea3,2024-10-01_20h56.46.331,mdp,2024.2.1,Win32,59.52380952,66fa4ebf79326e780c390304,,,,,,,,,,,,,,,,,,,,,710.7671,710.7671,710.7699,712.7322,1,1,right,1.4333,,712.7353,715.798,1,0,right,715.8008,715.8026,,0,,1,715.8028,715.8028,715.8049,717.2977,0,8,8,8,1,0.6,0.4,0.2,0.8,,,,,,,,,,,,,,,2.5214,,0.2,0.8,0.6,0.4,0.2,0.8,0.6,0.4,1,0,,,,,,,,,,,,
,,6604b3ecc51a5f1e73eb122e,66fc99e06b85299257412ea3,2024-10-01_20h56.46.331,mdp,2024.2.1,Win32,59.52380952,66fa4ebf79326e780c390304,,,,,,,,,,,,,,,,,,,,,717.2988,717.2988,717.3016,720.5634,1,1,right,2.7362,,720.5666,722.6964,1,0,right,722.6992,722.701,,0,,1,722.7011,722.7011,722.7032,724.1956,0,9,9,9,1,0.6,0.4,0.2,0.8,,,,,,,,,,,,,,,1.6038,,0.2,0.8,0.6,0.4,0.6,0.4,0.8,0.2,1,0,,,,,,,,,,,,
,,6604b3ecc51a5f1e73eb122e,66fc99e06b85299257412ea3,2024-10-01_20h56.46.331,mdp,2024.2.1,Win32,59.52380952,66fa4ebf79326e780c390304,,,,,,,,,,,,,,,,,,,,,724.1967,724.1967,724.1996,727.6782,1,1,right,2.9528,,727.6807,729.8282,1,0,right,729.8311,729.8328,,0,,1,729.8329,729.833,729.8347,731.327,0,10,10,10,1,0.6,0.4,0.2,0.8,,,,,,,,,,,,,,,1.6189,,0.2,0.8,0.6,0.4,0.6,0.4,0.8,0.2,1,0,,,,,,,,,,,,
,,6604b3ecc51a5f1e73eb122e,66fc99e06b85299257412ea3,2024-10-01_20h56.46.331,mdp,2024.2.1,Win32,59.52380952,66fa4ebf79326e780c390304,,,,,,,,,,,,,,,,,,,,,731.3279,731.328,731.3313,736.1095,1,1,right,4.2513,,736.1128,739.0256,1,1,right,739.0281,739.0298,,1,,0,739.0299,739.03,739.0319,740.5247,0,11,11,11,1,0.6,0.4,0.2,0.8,,,,,,,,,,,,,,,2.3832,,0.2,0.8,0.6,0.4,0.6,0.4,0.8,0.2,1,0,,,,,,,,,,,,
,,6604b3ecc51a5f1e73eb122e,66fc99e06b85299257412ea3,2024-10-01_20h56.46.331,mdp,2024.2.1,Win32,59.52380952,66fa4ebf79326e780c390304,,,,,,,,,,,,,,,,,,,,,740.5258,740.5258,740.5284,748.506,1,1,right,7.4531,,748.5083,750.6719,1,0,right,750.6755,750.6774,,0,,1,750.6775,750.6775,750.6794,752.1718,0,12,12,12,1,0.6,0.4,0.2,0.8,,,,,,,,,,,,,,,1.6342,,0.2,0.8,0.6,0.4,0.6,0.4,0.8,0.2,1,0,,,,,,,,,,,,
,,6604b3ecc51a5f1e73eb122e,66fc99e06b85299257412ea3,2024-10-01_20h56.46.331,mdp,2024.2.1,Win32,59.52380952,66fa4ebf79326e780c390304,,,,,,,,,,,,,,,,,,,,,752.1727,752.1727,752.1757,754.705,1,1,right,2.0033,,754.7082,756.5372,1,0,right,756.5397,756.5415,,0,,1,756.5416,756.5416,756.5435,758.0368,0,13,13,13,1,0.6,0.4,0.2,0.8,,,,,,,,,,,,,,,1.3011,,0.2,0.8,0.6,0.4,0.6,0.4,0.8,0.2,1,0,,,,,,,,,,,,
,,6604b3ecc51a5f1e73eb122e,66fc99e06b85299257412ea3,2024-10-01_20h56.46.331,mdp,2024.2.1,Win32,59.52380952,66fa4ebf79326e780c390304,,,,,,,,,,,,,,,,,,,,,758.0376,758.0376,758.0399,763.4356,1,1,right,4.8665,,763.4385,766.3518,1,0,right,766.3549,766.3574,,0,,1,766.3574,766.3575,766.3595,767.851,0,14,14,14,1,0.6,0.4,0.2,0.8,,,,,,,,,,,,,,,2.3848,,0.2,0.8,0.6,0.4,0.6,0.4,0.8,0.2,1,0,,,,,,,,,,,,
,,6604b3ecc51a5f1e73eb122e,66fc99e06b85299257412ea3,2024-10-01_20h56.46.331,mdp,2024.2.1,Win32,59.52380952,66fa4ebf79326e780c390304,,,,,,,,,,,,,,,,,,,,,767.8519,767.852,767.8546,770.0004,1,1,right,1.6167,,770.0029,771.2324,1,0,right,771.2341,771.235,,1,,1,771.2351,771.2351,771.236,772.7325,0,15,15,15,1,0.6,0.4,0.2,0.8,,,,,,,,,,,,,,,0.706,,0.2,0.8,0.6,0.4,0.6,0.4,0.8,0.2,1,0,,,,,,,,,,,,
,,6604b3ecc51a5f1e73eb122e,66fc99e06b85299257412ea3,2024-10-01_20h56.46.331,mdp,2024.2.1,Win32,59.52380952,66fa4ebf79326e780c390304,,,,,,,,,,,,,,,,,,,,,772.7334,772.7335,772.7359,773.7659,1,1,right,0.5098,,773.7685,775.3989,1,0,right,775.4019,775.4038,,0,,1,775.404,775.4041,775.406,776.8984,0,16,16,16,1,0.6,0.4,0.2,0.8,,,,,,,,,,,,,,,1.1036,,0.2,0.8,0.6,0.4,0.6,0.4,0.8,0.2,1,0,,,,,,,,,,,,
,,6604b3ecc51a5f1e73eb122e,66fc99e06b85299257412ea3,2024-10-01_20h56.46.331,mdp,2024.2.1,Win32,59.52380952,66fa4ebf79326e780c390304,,,,,,,,,,,,,,,,,,,,,776.8993,776.8993,776.9023,779.1811,1,1,right,1.7567,,779.1842,784.0969,1,1,right,784.0998,784.1017,,0,,0,784.1018,784.1018,784.1037,785.596,0,17,17,17,1,0.6,0.4,0.2,0.8,,,,,,,,,,,,,,,4.3932,,0.2,0.8,0.6,0.4,0.8,0.2,0.6,0.4,1,0,,,,,,,,,,,,
,,6604b3ecc51a5f1e73eb122e,66fc99e06b85299257412ea3,2024-10-01_20h56.46.331,mdp,2024.2.1,Win32,59.52380952,66fa4ebf79326e780c390304,,,,,,,,,,,,,,,,,,,,,785.597,785.597,785.5996,788.4455,1,1,right,2.3209,,788.4481,791.5951,1,1,right,791.5987,791.6009,,0,,0,791.601,791.601,791.6029,793.0942,0,18,18,18,1,0.6,0.4,0.2,0.8,,,,,,,,,,,,,,,2.6165,,0.2,0.8,0.6,0.4,0.8,0.2,0.6,0.4,1,0,,,,,,,,,,,,
,,6604b3ecc51a5f1e73eb122e,66fc99e06b85299257412ea3,2024-10-01_20h56.46.331,mdp,2024.2.1,Win32,59.52380952,66fa4ebf79326e780c390304,,,,,,,,,,,,,,,,,,,,,793.0956,793.0957,793.0994,795.5773,1,1,right,1.9501,,795.5809,797.6597,1,0,right,797.6624,797.6641,,1,,1,797.6642,797.6642,797.6661,799.1594,0,19,19,19,1,0.6,0.4,0.2,0.8,,,,,,,,,,,,,,,1.5562,,0.2,0.8,0.6,0.4,0.8,0.2,0.6,0.4,1,0,,,,,,,,,,,,
,,6604b3ecc51a5f1e73eb122e,66fc99e06b85299257412ea3,2024-10-01_20h56.46.331,mdp,2024.2.1,Win32,59.52380952,66fa4ebf79326e780c390304,,,,,,,,,,,,,,,,,,,,,799.1602,799.1602,799.1636,801.3924,1,1,right,1.7102,,801.3956,802.7249,1,1,right,802.7272,802.7292,,0,,0,802.7293,802.7293,802.7308,804.225,0,20,20,20,1,0.6,0.4,0.2,0.8,,,,,,,,,,,,,,,0.8001,,0.2,0.8,0.6,0.4,0.8,0.2,0.6,0.4,1,0,,,,,,,,,,,,
,,6604b3ecc51a5f1e73eb122e,66fc99e06b85299257412ea3,2024-10-01_20h56.46.331,mdp,2024.2.1,Win32,59.52380952,66fa4ebf79326e780c390304,,,,,,,,,,,,,,,,,,,,,804.2259,804.2259,804.2289,806.7912,1,1,right,2.0345,,806.7951,808.9236,1,0,right,808.9262,808.928,,0,,1,808.9281,808.9281,808.93,810.423,0,21,21,21,1,0.2,0.8,0.6,0.4,,,,,,,,,,,,,,,1.602,,0.2,0.8,0.6,0.4,0.8,0.2,0.6,0.4,1,0,,,,,,,,,,,,
,,6604b3ecc51a5f1e73eb122e,66fc99e06b85299257412ea3,2024-10-01_20h56.46.331,mdp,2024.2.1,Win32,59.52380952,66fa4ebf79326e780c390304,,,,,,,,,,,,,,,,,,,,,810.4241,810.4241,810.4267,811.3894,1,0,right,0.444,,811.3922,812.8058,1,1,right,812.8088,812.8105,,1,,0,812.8107,812.8107,812.8123,814.3055,0,22,22,22,1,0.2,0.8,0.6,0.4,,,,,,,,,,,,,,,0.8745,,0.2,0.8,0.6,0.4,0.8,0.2,0.6,0.4,1,0,,,,,,,,,,,,
,,6604b3ecc51a5f1e73eb122e,66fc99e06b85299257412ea3,2024-10-01_20h56.46.331,mdp,2024.2.1,Win32,59.52380952,66fa4ebf79326e780c390304,,,,,,,,,,,,,,,,,,,,,814.3067,814.3067,814.3097,816.2547,1,0,right,1.4252,,816.2582,818.0377,1,1,right,818.0408,818.0427,,1,,0,818.0429,818.0429,818.0448,819.5374,0,23,23,23,1,0.2,0.8,0.6,0.4,,,,,,,,,,,,,,,1.2559,,0.2,0.8,0.6,0.4,0.8,0.2,0.6,0.4,1,0,,,,,,,,,,,,
,,6604b3ecc51a5f1e73eb122e,66fc99e06b85299257412ea3,2024-10-01_20h56.46.331,mdp,2024.2.1,Win32,59.52380952,66fa4ebf79326e780c390304,,,,,,,,,,,,,,,,,,,,,819.5385,819.5385,819.5414,821.0534,1,0,right,0.9923,,821.0572,831.151,1,1,right,831.1547,831.157,,1,,0,831.1571,831.1571,831.1589,832.6506,0,24,24,24,1,0.2,0.8,0.6,0.4,,,,,,,,,,,,,,,9.5733,,0.2,0.8,0.6,0.4,0.8,0.2,0.6,0.4,1,0,,,,,,,,,,,,
,,6604b3ecc51a5f1e73eb122e,66fc99e06b85299257412ea3,2024-10-01_20h56.46.331,mdp,2024.2.1,Win32,59.52380952,66fa4ebf79326e780c390304,,,,,,,,,,,,,,,,,,,,,832.6516,832.6516,832.6558,835.6498,1,1,right,2.4676,,835.6527,837.0326,1,0,right,837.0355,837.0373,,0,,1,837.0374,837.0374,837.0393,838.5319,0,25,25,25,1,0.2,0.8,0.6,0.4,,,,,,,,,,,,,,,0.8462,,0.2,0.8,0.6,0.4,0.8,0.2,0.6,0.4,1,0,,,,,,,,,,,,
,,6604b3ecc51a5f1e73eb122e,66fc99e06b85299257412ea3,2024-10-01_20h56.46.331,mdp,2024.2.1,Win32,59.52380952,66fa4ebf79326e780c390304,,,,,,,,,,,,,,,,,,,,,838.533,838.5331,838.5359,840.1818,1,0,right,1.1246,,840.1847,842.515,1,1,right,842.5177,842.5194,,0,,0,842.5195,842.5195,842.5216,844.014,0,26,26,26,1,0.2,0.8,0.6,0.4,,,,,,,,,,,,,,,1.7904,,0.2,0.8,0.6,0.4,0.8,0.2,0.6,0.4,1,0,,,,,,,,,,,,
,,6604b3ecc51a5f1e73eb122e,66fc99e06b85299257412ea3,2024-10-01_20h56.46.331,mdp,2024.2.1,Win32,59.52380952,66fa4ebf79326e780c390304,,,,,,,,,,,,,,,,,,,,,844.0151,844.0151,844.0181,845.1474,1,0,right,0.6001,,845.151,846.9297,1,0,right,846.9321,846.934,,0,,1,846.934,846.934,846.9362,848.4296,0,27,27,27,1,0.2,0.8,0.6,0.4,,,,,,,,,,,,,,,1.2574,,0.2,0.8,0.6,0.4,0.8,0.2,0.6,0.4,1,0,,,,,,,,,,,,
,,6604b3ecc51a5f1e73eb122e,66fc99e06b85299257412ea3,2024-10-01_20h56.46.331,mdp,2024.2.1,Win32,59.52380952,66fa4ebf79326e780c390304,,,,,,,,,,,,,,,,,,,,,848.4304,848.4305,848.433,851.6955,1,1,right,2.7351,,851.6989,853.2119,1,0,right,853.2149,853.2168,,1,,1,853.2169,853.2169,853.2188,854.7113,0,28,28,28,1,0.2,0.8,0.6,0.4,,,,,,,,,,,,,,,0.9748,,0.2,0.8,0.6,0.4,0.8,0.2,0.6,0.4,1,0,,,,,,,,,,,,
,,6604b3ecc51a5f1e73eb122e,66fc99e06b85299257412ea3,2024-10-01_20h56.46.331,mdp,2024.2.1,Win32,59.52380952,66fa4ebf79326e780c390304,,,,,,,,,,,,,,,,,,,,,854.7124,854.7125,854.7153,858.044,1,1,right,2.8072,,858.0465,859.8934,1,0,right,859.8961,859.8981,,0,,1,859.8982,859.8982,859.9002,861.3927,0,29,29,29,1,0.2,0.8,0.6,0.4,,,,,,,,,,,,,,,1.3245,,0.2,0.8,0.6,0.4,0.8,0.2,0.6,0.4,1,0,,,,,,,,,,,,
,,6604b3ecc51a5f1e73eb122e,66fc99e06b85299257412ea3,2024-10-01_20h56.46.331,mdp,2024.2.1,Win32,59.52380952,66fa4ebf79326e780c390304,,,,,,,,,,,,,,,,,,,,,861.394,861.394,861.3971,862.0259,1,1,right,0.1016,,862.0288,863.0926,1,1,right,863.0962,863.0984,,1,,0,863.0986,863.0986,863.1015,864.5918,0,30,30,30,1,0.6,0.4,0.4,0.6,,,,,,,,,,,,,,,0.5355,,0.2,0.8,0.6,0.4,0.8,0.2,0.6,0.4,1,0,,,,,,,,,,,,
,,6604b3ecc51a5f1e73eb122e,66fc99e06b85299257412ea3,2024-10-01_20h56.46.331,mdp,2024.2.1,Win32,59.52380952,66fa4ebf79326e780c390304,,,,,,,,,,,,,,,,,,,,,864.5928,864.5929,864.5958,870.4743,1,1,right,5.3541,,870.4777,871.7569,1,0,right,871.7595,871.7614,,0,,1,871.7614,871.7615,871.7633,873.2562,0,31,31,31,1,0.6,0.4,0.4,0.6,,,,,,,,,,,,,,,0.7552,,0.2,0.8,0.6,0.4,0.8,0.2,0.6,0.4,1,0,,,,,,,,,,,,
,,6604b3ecc51a5f1e73eb122e,66fc99e06b85299257412ea3,2024-10-01_20h56.46.331,mdp,2024.2.1,Win32,59.52380952,66fa4ebf79326e780c390304,,,,,,,,,,,,,,,,,,,,,873.2574,873.2575,873.2616,874.3573,1,0,right,0.5746,,874.3598,875.5559,1,1,right,875.5587,875.5606,,0,,0,875.5608,875.5608,875.5627,877.0558,0,32,32,32,1,0.6,0.4,0.4,0.6,,,,,,,,,,,,,,,0.6601,,0.2,0.8,0.6,0.4,0.8,0.2,0.6,0.4,1,0,,,,,,,,,,,,
,,6604b3ecc51a5f1e73eb122e,66fc99e06b85299257412ea3,2024-10-01_20h56.46.331,mdp,2024.2.1,Win32,59.52380952,66fa4ebf79326e780c390304,,,,,,,,,,,,,,,,,,,,,877.0571,877.0571,877.0603,879.6382,1,0,right,2.0524,,879.6408,881.3876,1,0,right,881.3907,881.3925,,1,,1,881.3926,881.3926,881.3945,882.8871,0,33,33,33,1,0.6,0.4,0.4,0.6,,,,,,,,,,,,,,,1.2184,,0.2,0.8,0.6,0.4,0.8,0.2,0.6,0.4,1,0,,,,,,,,,,,,
,,6604b3ecc51a5f1e73eb122e,66fc99e06b85299257412ea3,2024-10-01_20h56.46.331,mdp,2024.2.1,Win32,59.52380952,66fa4ebf79326e780c390304,,,,,,,,,,,,,,,,,,,,,882.8881,882.8881,882.8906,885.4696,1,0,right,2.052,,885.4722,888.0032,1,1,right,888.0059,888.0079,,1,,0,888.008,888.008,888.0101,889.5022,0,34,34,34,1,0.6,0.4,0.4,0.6,,,,,,,,,,,,,,,2.0021,,0.2,0.8,0.6,0.4,0.8,0.2,0.6,0.4,1,0,,,,,,,,,,,,
,,6604b3ecc51a5f1e73eb122e,66fc99e06b85299257412ea3,2024-10-01_20h56.46.331,mdp,2024.2.1,Win32,59.52380952,66fa4ebf79326e780c390304,,,,,,,,,,,,,,,,,,,,,889.5032,889.5033,889.5063,891.5687,1,0,right,1.5347,,891.5714,893.368,1,0,right,893.3712,893.3732,,0,,1,893.3733,893.3733,893.3754,894.8674,0,35,35,35,1,0.4,0.6,0.8,0.2,,,,,,,,,,,,,,,1.2679,,0.2,0.8,0.6,0.4,0.8,0.2,0.6,0.4,1,0,,,,,,,,,,,,
,,6604b3ecc51a5f1e73eb122e,66fc99e06b85299257412ea3,2024-10-01_20h56.46.331,mdp,2024.2.1,Win32,59.52380952,66fa4ebf79326e780c390304,,,,,,,,,,,,,,,,,,,,,894.8685,894.8686,894.8712,897.5168,1,0,right,2.1221,,897.5195,899.3829,1,0,right,899.3859,899.3879,,0,,1,899.388,899.388,899.39,900.8825,0,36,36,36,1,0.4,0.6,0.8,0.2,,,,,,,,,,,,,,,1.3375,,0.2,0.8,0.6,0.4,0.4,0.6,0.2,0.8,1,0,,,,,,,,,,,,
,,6604b3ecc51a5f1e73eb122e,66fc99e06b85299257412ea3,2024-10-01_20h56.46.331,mdp,2024.2.1,Win32,59.52380952,66fa4ebf79326e780c390304,,,,,,,,,,,,,,,,,,,,,900.8834,900.8835,900.886,902.6989,1,0,right,1.291,,902.7015,904.7151,1,0,right,904.7178,904.7196,,1,,1,904.7197,904.7198,904.7216,906.2143,0,37,37,37,1,0.4,0.6,0.8,0.2,,,,,,,,,,,,,,,1.4841,,0.2,0.8,0.6,0.4,0.8,0.2,0.4,0.6,1,0,,,,,,,,,,,,
,,6604b3ecc51a5f1e73eb122e,66fc99e06b85299257412ea3,2024-10-01_20h56.46.331,mdp,2024.2.1,Win32,59.52380952,66fa4ebf79326e780c390304,,,,,,,,,,,,,,,,,,,,,906.2152,906.2152,906.2185,907.1477,1,0,right,0.4045,,907.151,909.2807,1,0,right,909.284,909.286,,0,,1,909.2861,909.2861,909.2879,910.7799,0,38,38,38,1,0.4,0.6,0.8,0.2,,,,,,,,,,,,,,,1.604,,0.2,0.8,0.6,0.4,0.8,0.2,0.4,0.6,1,0,,,,,,,,,,,,
,,6604b3ecc51a5f1e73eb122e,66fc99e06b85299257412ea3,2024-10-01_20h56.46.331,mdp,2024.2.1,Win32,59.52380952,66fa4ebf79326e780c390304,,,,,,,,,,,,,,,,,,,,,910.7815,910.7815,910.7841,912.8296,1,1,right,1.5179,,912.8323,914.3295,1,1,right,914.3324,914.334,,0,,0,914.3341,914.3341,914.3358,915.828,0,39,39,39,1,0.4,0.6,0.8,0.2,,,,,,,,,,,,,,,0.9574,,0.2,0.8,0.6,0.4,0.8,0.2,0.4,0.6,1,0,,,,,,,,,,,,
,,6604b3ecc51a5f1e73eb122e,66fc99e06b85299257412ea3,2024-10-01_20h56.46.331,mdp,2024.2.1,Win32,59.52380952,66fa4ebf79326e780c390304,,,,,,,,,,,,,,,,,,,,,915.8294,915.8295,915.8324,917.4614,1,0,right,1.1013,,917.464,919.5609,1,0,right,919.5641,919.5662,,1,,1,919.5664,919.5664,919.5682,921.0603,0,40,40,40,1,0.4,0.6,0.8,0.2,,,,,,,,,,,,,,,1.5573,,0.2,0.8,0.6,0.4,0.8,0.2,0.4,0.6,1,0,,,,,,,,,,,,
,,6604b3ecc51a5f1e73eb122e,66fc99e06b85299257412ea3,2024-10-01_20h56.46.331,mdp,2024.2.1,Win32,59.52380952,66fa4ebf79326e780c390304,,,,,,,,,,,,,,,,,,,,,921.0613,921.0614,921.0643,922.0434,1,0,right,0.4538,,922.0458,924.2427,1,0,right,924.2454,924.2473,,0,,1,924.2474,924.2475,924.2494,925.7421,0,41,41,41,1,0.4,0.6,0.8,0.2,,,,,,,,,,,,,,,1.6675,,0.2,0.8,0.6,0.4,0.8,0.2,0.4,0.6,1,0,,,,,,,,,,,,
,,6604b3ecc51a5f1e73eb122e,66fc99e06b85299257412ea3,2024-10-01_20h56.46.331,mdp,2024.2.1,Win32,59.52380952,66fa4ebf79326e780c390304,,,,,,,,,,,,,,,,,,,,,925.7426,925.7426,925.7444,927.2587,1,0,right,0.9836,,927.2613,928.609,1,0,right,928.6116,928.6131,,0,,1,928.6133,928.6133,928.6149,930.1079,0,42,42,42,1,0.4,0.6,0.8,0.2,,,,,,,,,,,,,,,0.8184,,0.2,0.8,0.6,0.4,0.8,0.2,0.4,0.6,1,0,,,,,,,,,,,,
,,6604b3ecc51a5f1e73eb122e,66fc99e06b85299257412ea3,2024-10-01_20h56.46.331,mdp,2024.2.1,Win32,59.52380952,66fa4ebf79326e780c390304,,,,,,,,,,,,,,,,,,,,,930.109,930.1091,930.1116,930.7415,1,0,right,0.1068,,930.7443,932.3073,1,1,right,932.3097,932.3117,,0,,0,932.3119,932.3119,932.314,933.8072,0,43,43,43,1,0.4,0.6,0.8,0.2,,,,,,,,,,,,,,,1.0422,,0.2,0.8,0.6,0.4,0.8,0.2,0.4,0.6,1,0,,,,,,,,,,,,
,,6604b3ecc51a5f1e73eb122e,66fc99e06b85299257412ea3,2024-10-01_20h56.46.331,mdp,2024.2.1,Win32,59.52380952,66fa4ebf79326e780c390304,,,,,,,,,,,,,,,,,,,,,933.8082,933.8082,933.8114,936.24,1,1,right,1.9013,,936.2435,938.023,1,1,right,938.0262,938.0277,,1,,0,938.0279,938.0279,938.0303,939.5223,0,44,44,44,1,0.4,0.6,0.8,0.2,,,,,,,,,,,,,,,1.2443,,0.2,0.8,0.6,0.4,0.8,0.2,0.4,0.6,1,0,,,,,,,,,,,,
,,6604b3ecc51a5f1e73eb122e,66fc99e06b85299257412ea3,2024-10-01_20h56.46.331,mdp,2024.2.1,Win32,59.52380952,66fa4ebf79326e780c390304,,,,,,,,,,,,,,,,,,,,,939.5232,939.5233,939.526,941.0225,1,0,right,0.9761,,941.0248,943.6548,1,0,right,943.6585,943.6605,,0,,1,943.6605,943.6606,943.6626,945.154,0,45,45,45,1,0.4,0.6,0.8,0.2,,,,,,,,,,,,,,,2.0891,,0.2,0.8,0.6,0.4,0.8,0.2,0.4,0.6,1,0,,,,,,,,,,,,
,,6604b3ecc51a5f1e73eb122e,66fc99e06b85299257412ea3,2024-10-01_20h56.46.331,mdp,2024.2.1,Win32,59.52380952,66fa4ebf79326e780c390304,,,,,,,,,,,,,,,,,,,,,945.1551,945.1551,945.1586,946.4206,1,1,right,0.7335,,946.4235,947.9034,1,1,right,947.9061,947.9078,,1,,0,947.9079,947.9079,947.9098,949.4029,0,46,46,46,1,0.4,0.6,0.8,0.2,,,,,,,,,,,,,,,0.9412,,0.2,0.8,0.6,0.4,0.8,0.2,0.4,0.6,1,0,,,,,,,,,,,,
,,6604b3ecc51a5f1e73eb122e,66fc99e06b85299257412ea3,2024-10-01_20h56.46.331,mdp,2024.2.1,Win32,59.52380952,66fa4ebf79326e780c390304,,,,,,,,,,,,,,,,,,,,,949.4039,949.4039,949.4068,951.9524,1,0,right,2.0183,,951.9557,957.5341,1,1,right,957.5373,957.5392,,1,,0,957.5393,957.5393,957.5415,959.0337,0,47,47,47,1,0.4,0.6,0.8,0.2,,,,,,,,,,,,,,,5.0475,,0.8,0.2,0.4,0.6,0.8,0.2,0.4,0.6,1,0,,,,,,,,,,,,
,,6604b3ecc51a5f1e73eb122e,66fc99e06b85299257412ea3,2024-10-01_20h56.46.331,mdp,2024.2.1,Win32,59.52380952,66fa4ebf79326e780c390304,,,,,,,,,,,,,,,,,,,,,959.0349,959.035,959.0383,961.2162,1,0,right,1.6559,,961.2185,962.4667,1,1,right,962.4718,962.4739,,0,,0,962.474,962.474,962.4757,963.9657,0,48,48,48,1,0.4,0.6,0.8,0.2,,,,,,,,,,,,,,,0.7181,,0.8,0.2,0.4,0.6,0.8,0.2,0.4,0.6,1,0,,,,,,,,,,,,
,,6604b3ecc51a5f1e73eb122e,66fc99e06b85299257412ea3,2024-10-01_20h56.46.331,mdp,2024.2.1,Win32,59.52380952,66fa4ebf79326e780c390304,,,,,,,,,,,,,,,,,,,,,963.9672,963.9672,963.9704,968.7814,1,0,right,4.2893,,968.7842,970.2474,1,0,right,970.2501,970.2526,,1,,1,970.2527,970.2527,970.2546,971.7472,0,49,49,49,1,0.4,0.6,0.8,0.2,,,,,,,,,,,,,,,0.9356,,0.8,0.2,0.4,0.6,0.8,0.2,0.4,0.6,1,0,,,,,,,,,,,,
,,6604b3ecc51a5f1e73eb122e,66fc99e06b85299257412ea3,2024-10-01_20h56.46.331,mdp,2024.2.1,Win32,59.52380952,66fa4ebf79326e780c390304,,,,,,,,,,,,,,,,,,,,,,,,,,,,,,,,,,,,,,,,,,,,,,,,,,,,,,,,971.7474,1030.2653,0,1,1,2,1,imgs/cat.png,imgs/lion.png,imgs/goat.png,imgs/rabbit.png,imgs/horse.png,,,,,,,,,,,,,,,,,,,,,,,,
,,6604b3ecc51a5f1e73eb122e,66fc99e06b85299257412ea3,2024-10-01_20h56.46.331,mdp,2024.2.1,Win32,59.52380952,66fa4ebf79326e780c390304,,,,,,,,,,,,,,3,seqs/st3seq17.csv,1030.2692,1232.9953,space,202.1977,,1233.0016,1233.0016,1233.0023,1243.6772,1,1,right,10.1535,,1243.6804,1247.2758,1,1,right,1247.2785,1249.3919,1,1,right,0,1249.3922,1249.3922,1249.395,1250.8915,0,0,0,0,1,0.4,0.6,0.6,0.4,,,,,,,,,,,,,,,3.0496,,0.6,0.4,0.2,0.8,0.6,0.4,0.2,0.8,,,1.5775,,0.2,0.8,0.6,0.4,0.8,0.2,0.6,0.4,1,0
,,6604b3ecc51a5f1e73eb122e,66fc99e06b85299257412ea3,2024-10-01_20h56.46.331,mdp,2024.2.1,Win32,59.52380952,66fa4ebf79326e780c390304,,,,,,,,,,,,,,,,,,,,,1250.8931,1250.8931,1250.8965,1253.8902,1,0,right,2.4663,,1253.893,1260.4723,1,0,right,1260.4755,1262.5217,1,0,right,1,1262.5218,1262.5218,1262.5249,1264.0212,0,1,1,1,1,0.4,0.6,0.6,0.4,,,,,,,,,,,,,,,6.0321,,0.6,0.4,0.2,0.8,0.6,0.4,0.2,0.8,,,1.4977,,0.2,0.8,0.6,0.4,0.8,0.2,0.6,0.4,1,0
,,6604b3ecc51a5f1e73eb122e,66fc99e06b85299257412ea3,2024-10-01_20h56.46.331,mdp,2024.2.1,Win32,59.52380952,66fa4ebf79326e780c390304,,,,,,,,,,,,,,,,,,,,,1264.0225,1264.0225,1264.0263,1301.7283,1,0,right,37.1771,,1301.7316,1305.2606,1,0,right,1305.2632,1307.0932,1,1,right,0,1307.0933,1307.0933,1307.0962,1308.5928,0,2,2,2,1,0.4,0.6,0.6,0.4,,,,,,,,,,,,,,,3.0009,,0.6,0.4,0.2,0.8,0.6,0.4,0.2,0.8,,,1.3071,,0.2,0.8,0.6,0.4,0.4,0.6,0.8,0.2,1,0
,,6604b3ecc51a5f1e73eb122e,66fc99e06b85299257412ea3,2024-10-01_20h56.46.331,mdp,2024.2.1,Win32,59.52380952,66fa4ebf79326e780c390304,,,,,,,,,,,,,,,,,,,,,1308.5941,1308.5941,1308.5967,1312.309,1,1,right,3.1991,,1312.3116,1313.3918,1,1,right,1313.3947,1314.7749,1,0,right,1,1314.7751,1314.7751,1314.7794,1316.2747,0,3,3,3,1,0.4,0.6,0.6,0.4,,,,,,,,,,,,,,,0.5403,,0.6,0.4,0.2,0.8,0.6,0.4,0.2,0.8,,,0.8468,,0.2,0.8,0.6,0.4,0.4,0.6,0.8,0.2,1,0
,,6604b3ecc51a5f1e73eb122e,66fc99e06b85299257412ea3,2024-10-01_20h56.46.331,mdp,2024.2.1,Win32,59.52380952,66fa4ebf79326e780c390304,,,,,,,,,,,,,,,,,,,,,1316.2757,1316.2758,1316.279,1318.1577,1,0,right,1.3537,,1318.1612,1320.4237,1,1,right,1320.4263,1322.2897,1,0,right,1,1322.2899,1322.2899,1322.2927,1323.7888,0,4,4,4,1,0.4,0.6,0.6,0.4,,,,,,,,,,,,,,,1.7238,,0.6,0.4,0.2,0.8,0.6,0.4,0.2,0.8,,,1.334,,0.2,0.8,0.6,0.4,0.4,0.6,0.8,0.2,1,0
,,6604b3ecc51a5f1e73eb122e,66fc99e06b85299257412ea3,2024-10-01_20h56.46.331,mdp,2024.2.1,Win32,59.52380952,66fa4ebf79326e780c390304,,,,,,,,,,,,,,,,,,,,,1323.7899,1323.7899,1323.7923,1325.3894,1,1,right,1.0764,,1325.3927,1328.2884,1,1,right,1328.2907,1330.138,1,0,right,1,1330.1381,1330.1381,1330.1408,1331.637,0,5,5,5,1,0.4,0.6,0.6,0.4,,,,,,,,,,,,,,,2.3659,,0.6,0.4,0.2,0.8,0.6,0.4,0.2,0.8,,,1.318,,0.2,0.8,0.6,0.4,0.4,0.6,0.8,0.2,1,0
,,6604b3ecc51a5f1e73eb122e,66fc99e06b85299257412ea3,2024-10-01_20h56.46.331,mdp,2024.2.1,Win32,59.52380952,66fa4ebf79326e780c390304,,,,,,,,,,,,,,,,,,,,,1331.6386,1331.6386,1331.6419,1333.8201,1,1,right,1.6567,,1333.8235,1337.9526,1,1,right,1337.9559,1339.6515,1,1,right,0,1339.6517,1339.6519,1339.6555,1341.1513,0,6,6,6,1,0.4,0.6,0.6,0.4,,,,,,,,,,,,,,,3.6029,,0.6,0.4,0.2,0.8,0.6,0.4,0.2,0.8,,,1.1734,,0.2,0.8,0.6,0.4,0.4,0.6,0.8,0.2,1,0
,,6604b3ecc51a5f1e73eb122e,66fc99e06b85299257412ea3,2024-10-01_20h56.46.331,mdp,2024.2.1,Win32,59.52380952,66fa4ebf79326e780c390304,,,,,,,,,,,,,,,,,,,,,1341.1526,1341.1526,1341.1552,1343.0511,1,0,right,1.3672,,1343.0541,1345.1673,1,0,right,1345.1705,1346.8501,1,1,right,0,1346.8503,1346.8503,1346.8526,1348.3493,0,7,7,7,1,0.4,0.6,0.6,0.4,,,,,,,,,,,,,,,1.5736,,0.6,0.4,0.2,0.8,0.6,0.4,0.2,0.8,,,1.1426,,0.2,0.8,0.6,0.4,0.4,0.6,0.8,0.2,1,0
,,6604b3ecc51a5f1e73eb122e,66fc99e06b85299257412ea3,2024-10-01_20h56.46.331,mdp,2024.2.1,Win32,59.52380952,66fa4ebf79326e780c390304,,,,,,,,,,,,,,,,,,,,,1348.3509,1348.3509,1348.3549,1349.9491,1,1,right,1.0742,,1349.9525,1351.5319,1,1,right,1351.5342,1352.6648,1,0,right,1,1352.6651,1352.6651,1352.6674,1354.1647,0,8,8,8,1,0.6,0.4,0.2,0.8,,,,,,,,,,,,,,,1.04,,0.6,0.4,0.2,0.8,0.6,0.4,0.2,0.8,,,0.5938,,0.2,0.8,0.6,0.4,0.4,0.6,0.8,0.2,1,0
,,6604b3ecc51a5f1e73eb122e,66fc99e06b85299257412ea3,2024-10-01_20h56.46.331,mdp,2024.2.1,Win32,59.52380952,66fa4ebf79326e780c390304,,,,,,,,,,,,,,,,,,,,,1354.1662,1354.1662,1354.169,1356.3645,1,0,right,1.6717,,1356.3671,1357.6804,1,1,right,1357.6829,1359.08,1,0,right,1,1359.0802,1359.0802,1359.0833,1360.5792,0,9,9,9,1,0.6,0.4,0.2,0.8,,,,,,,,,,,,,,,0.7748,,0.6,0.4,0.2,0.8,0.6,0.4,0.2,0.8,,,0.8662,,0.2,0.8,0.6,0.4,0.4,0.6,0.8,0.2,1,0
,,6604b3ecc51a5f1e73eb122e,66fc99e06b85299257412ea3,2024-10-01_20h56.46.331,mdp,2024.2.1,Win32,59.52380952,66fa4ebf79326e780c390304,,,,,,,,,,,,,,,,,,,,,1360.5806,1360.5807,1360.5835,1362.296,1,1,right,1.1839,,1362.2988,1363.6289,1,0,right,1363.6316,1364.9288,1,0,right,1,1364.929,1364.929,1364.9318,1366.4277,0,10,10,10,1,0.6,0.4,0.2,0.8,,,,,,,,,,,,,,,0.7928,,0.6,0.4,0.2,0.8,0.6,0.4,0.2,0.8,,,0.7577,,0.2,0.8,0.6,0.4,0.4,0.6,0.8,0.2,1,0
,,6604b3ecc51a5f1e73eb122e,66fc99e06b85299257412ea3,2024-10-01_20h56.46.331,mdp,2024.2.1,Win32,59.52380952,66fa4ebf79326e780c390304,,,,,,,,,,,,,,,,,,,,,1366.4289,1366.4289,1366.4314,1368.0772,1,1,right,1.1255,,1368.0804,1369.6108,1,0,right,1369.6137,1371.2267,1,0,right,1,1371.2269,1371.2269,1371.2295,1372.7261,0,11,11,11,1,0.6,0.4,0.2,0.8,,,,,,,,,,,,,,,1.0018,,0.6,0.4,0.2,0.8,0.6,0.4,0.2,0.8,,,1.0842,,0.2,0.8,0.6,0.4,0.2,0.8,0.4,0.6,1,0
,,6604b3ecc51a5f1e73eb122e,66fc99e06b85299257412ea3,2024-10-01_20h56.46.331,mdp,2024.2.1,Win32,59.52380952,66fa4ebf79326e780c390304,,,,,,,,,,,,,,,,,,,,,1372.7273,1372.7274,1372.7302,1375.6088,1,0,right,2.3588,,1375.6119,1377.5421,1,1,right,1377.5446,1378.8082,1,1,right,0,1378.8083,1378.8083,1378.811,1380.3074,0,12,12,12,1,0.6,0.4,0.2,0.8,,,,,,,,,,,,,,,1.3997,,0.6,0.4,0.2,0.8,0.6,0.4,0.2,0.8,,,0.7271,,0.2,0.8,0.6,0.4,0.2,0.8,0.4,0.6,1,0
,,6604b3ecc51a5f1e73eb122e,66fc99e06b85299257412ea3,2024-10-01_20h56.46.331,mdp,2024.2.1,Win32,59.52380952,66fa4ebf79326e780c390304,,,,,,,,,,,,,,,,,,,,,1380.3088,1380.3088,1380.3115,1381.374,1,0,right,0.5425,,1381.3768,1382.3404,1,1,right,1382.3429,1383.2402,1,1,right,0,1383.2405,1383.2405,1383.2432,1384.7397,0,13,13,13,1,0.6,0.4,0.2,0.8,,,,,,,,,,,,,,,0.4359,,0.6,0.4,0.2,0.8,0.6,0.4,0.2,0.8,,,0.3739,,0.2,0.8,0.6,0.4,0.2,0.8,0.4,0.6,1,0
,,6604b3ecc51a5f1e73eb122e,66fc99e06b85299257412ea3,2024-10-01_20h56.46.331,mdp,2024.2.1,Win32,59.52380952,66fa4ebf79326e780c390304,,,,,,,,,,,,,,,,,,,,,1384.7408,1384.7408,1384.743,1388.8055,1,1,right,3.5326,,1388.8083,1389.9718,1,0,right,1389.9744,1391.0546,1,0,right,1,1391.0548,1391.0548,1391.0575,1392.5546,0,14,14,14,1,0.6,0.4,0.2,0.8,,,,,,,,,,,,,,,0.6235,,0.6,0.4,0.2,0.8,0.6,0.4,0.2,0.8,,,0.5486,,0.2,0.8,0.6,0.4,0.2,0.8,0.4,0.6,1,0
,,6604b3ecc51a5f1e73eb122e,66fc99e06b85299257412ea3,2024-10-01_20h56.46.331,mdp,2024.2.1,Win32,59.52380952,66fa4ebf79326e780c390304,,,,,,,,,,,,,,,,,,,,,1392.5561,1392.5561,1392.5592,1394.1207,1,0,right,1.0343,,1394.1234,1395.2202,1,0,right,1395.2229,1396.4199,1,0,right,1,1396.42,1396.4201,1396.4225,1397.9194,0,15,15,15,1,0.6,0.4,0.2,0.8,,,,,,,,,,,,,,,0.5589,,0.2,0.8,0.6,0.4,0.6,0.4,0.2,0.8,,,0.6717,,0.2,0.8,0.6,0.4,0.2,0.8,0.4,0.6,1,0
,,6604b3ecc51a5f1e73eb122e,66fc99e06b85299257412ea3,2024-10-01_20h56.46.331,mdp,2024.2.1,Win32,59.52380952,66fa4ebf79326e780c390304,,,,,,,,,,,,,,,,,,,,,1397.9206,1397.9206,1397.9232,1399.0197,1,0,right,0.5674,,1399.0226,1400.0692,1,1,right,1400.072,1405.318,1,0,right,1,1405.3182,1405.3183,1405.3221,1406.8173,0,16,16,16,1,0.6,0.4,0.2,0.8,,,,,,,,,,,,,,,0.5168,,0.2,0.8,0.6,0.4,0.6,0.4,0.2,0.8,,,4.7056,,0.2,0.8,0.6,0.4,0.2,0.8,0.4,0.6,1,0
,,6604b3ecc51a5f1e73eb122e,66fc99e06b85299257412ea3,2024-10-01_20h56.46.331,mdp,2024.2.1,Win32,59.52380952,66fa4ebf79326e780c390304,,,,,,,,,,,,,,,,,,,,,1406.8188,1406.8188,1406.8216,1408.1166,1,1,right,0.7681,,1408.1195,1410.05,1,1,right,1410.0526,1411.4161,1,0,right,1,1411.4164,1411.4164,1411.4192,1412.915,0,17,17,17,1,0.6,0.4,0.2,0.8,,,,,,,,,,,,,,,1.3926,,0.2,0.8,0.6,0.4,0.6,0.4,0.2,0.8,,,0.8424,,0.2,0.8,0.6,0.4,0.2,0.8,0.4,0.6,1,0
,,6604b3ecc51a5f1e73eb122e,66fc99e06b85299257412ea3,2024-10-01_20h56.46.331,mdp,2024.2.1,Win32,59.52380952,66fa4ebf79326e780c390304,,,,,,,,,,,,,,,,,,,,,1412.9162,1412.9162,1412.9192,1417.7481,1,1,right,4.2996,,1417.7515,1419.2645,1,1,right,1419.2672,1420.4636,1,0,right,1,1420.464,1420.464,1420.4678,1421.9632,0,18,18,18,1,0.6,0.4,0.2,0.8,,,,,,,,,,,,,,,0.9856,,0.2,0.8,0.6,0.4,0.6,0.4,0.2,0.8,,,0.6748,,0.2,0.8,0.6,0.4,0.2,0.8,0.4,0.6,1,0
,,6604b3ecc51a5f1e73eb122e,66fc99e06b85299257412ea3,2024-10-01_20h56.46.331,mdp,2024.2.1,Win32,59.52380952,66fa4ebf79326e780c390304,,,,,,,,,,,,,,,,,,,,,1421.9646,1421.9646,1421.9674,1423.0133,1,1,right,0.524,,1423.0159,1423.9963,1,0,right,1423.9989,1425.0124,1,0,right,1,1425.0126,1425.0127,1425.0159,1426.5112,0,19,19,19,1,0.6,0.4,0.2,0.8,,,,,,,,,,,,,,,0.4576,,0.2,0.8,0.6,0.4,0.6,0.4,0.2,0.8,,,0.4745,,0.2,0.8,0.6,0.4,0.2,0.8,0.4,0.6,1,0
,,6604b3ecc51a5f1e73eb122e,66fc99e06b85299257412ea3,2024-10-01_20h56.46.331,mdp,2024.2.1,Win32,59.52380952,66fa4ebf79326e780c390304,,,,,,,,,,,,,,,,,,,,,1426.5119,1426.5119,1426.5137,1427.844,1,0,right,0.8052,,1427.8453,1429.027,1,0,right,1429.0284,1430.7451,1,0,right,1,1430.7453,1430.7453,1430.7478,1432.2437,0,20,20,20,1,0.6,0.4,0.2,0.8,,,,,,,,,,,,,,,0.6462,,0.2,0.8,0.6,0.4,0.6,0.4,0.2,0.8,,,1.1853,,0.2,0.8,0.6,0.4,0.2,0.8,0.4,0.6,1,0
,,6604b3ecc51a5f1e73eb122e,66fc99e06b85299257412ea3,2024-10-01_20h56.46.331,mdp,2024.2.1,Win32,59.52380952,66fa4ebf79326e780c390304,,,,,,,,,,,,,,,,,,,,,1432.2447,1432.2447,1432.247,1434.1434,1,0,right,1.3673,,1434.1461,1435.5763,1,0,right,1435.5789,1436.9273,1,0,right,1,1436.9276,1436.9277,1436.9316,1438.4251,0,21,21,21,1,0.8,0.2,0.8,0.2,,,,,,,,,,,,,,,0.9003,,0.2,0.8,0.6,0.4,0.6,0.4,0.2,0.8,,,0.8273,,0.2,0.8,0.6,0.4,0.2,0.8,0.4,0.6,1,0
,,6604b3ecc51a5f1e73eb122e,66fc99e06b85299257412ea3,2024-10-01_20h56.46.331,mdp,2024.2.1,Win32,59.52380952,66fa4ebf79326e780c390304,,,,,,,,,,,,,,,,,,,,,1438.4263,1438.4263,1438.4286,1441.2747,1,1,right,2.3205,,1441.2779,1442.4247,1,1,right,1442.4275,1443.3907,1,1,right,0,1443.3912,1443.3912,1443.394,1444.8904,0,22,22,22,1,0.8,0.2,0.8,0.2,,,,,,,,,,,,,,,0.6074,,0.2,0.8,0.6,0.4,0.6,0.4,0.2,0.8,,,0.431,,0.2,0.8,0.6,0.4,0.2,0.8,0.4,0.6,1,0
,,6604b3ecc51a5f1e73eb122e,66fc99e06b85299257412ea3,2024-10-01_20h56.46.331,mdp,2024.2.1,Win32,59.52380952,66fa4ebf79326e780c390304,,,,,,,,,,,,,,,,,,,,,1444.892,1444.892,1444.8952,1449.0566,1,0,right,3.6337,,1449.0607,1450.8388,1,1,right,1450.8416,1451.9388,1,1,right,0,1451.939,1451.939,1451.9417,1453.438,0,23,23,23,1,0.8,0.2,0.8,0.2,,,,,,,,,,,,,,,1.2434,,0.2,0.8,0.6,0.4,0.6,0.4,0.2,0.8,,,0.5762,,0.2,0.8,0.6,0.4,0.4,0.6,0.2,0.8,1,0
,,6604b3ecc51a5f1e73eb122e,66fc99e06b85299257412ea3,2024-10-01_20h56.46.331,mdp,2024.2.1,Win32,59.52380952,66fa4ebf79326e780c390304,,,,,,,,,,,,,,,,,,,,,1453.4391,1453.4392,1453.4416,1455.0383,1,0,right,1.0681,,1455.0415,1456.3543,1,1,right,1456.3581,1457.7543,1,1,right,0,1457.7544,1457.7544,1457.757,1459.2535,0,24,24,24,1,0.8,0.2,0.8,0.2,,,,,,,,,,,,,,,0.7842,,0.2,0.8,0.6,0.4,0.6,0.4,0.2,0.8,,,0.8755,,0.2,0.8,0.6,0.4,0.4,0.6,0.2,0.8,1,0
,,6604b3ecc51a5f1e73eb122e,66fc99e06b85299257412ea3,2024-10-01_20h56.46.331,mdp,2024.2.1,Win32,59.52380952,66fa4ebf79326e780c390304,,,,,,,,,,,,,,,,,,,,,1459.2549,1459.255,1459.2588,1466.7186,1,0,right,6.9328,,1466.7215,1468.9846,1,0,right,1468.9873,1470.1505,1,1,right,0,1470.1507,1470.1509,1470.1532,1471.65,0,25,25,25,1,0.8,0.2,0.8,0.2,,,,,,,,,,,,,,,1.7338,,0.2,0.8,0.6,0.4,0.6,0.4,0.2,0.8,,,0.623,,0.2,0.8,0.6,0.4,0.4,0.6,0.2,0.8,1,0
,,6604b3ecc51a5f1e73eb122e,66fc99e06b85299257412ea3,2024-10-01_20h56.46.331,mdp,2024.2.1,Win32,59.52380952,66fa4ebf79326e780c390304,,,,,,,,,,,,,,,,,,,,,1471.6513,1471.6514,1471.6546,1473.4831,1,1,right,1.3022,,1473.4858,1474.933,1,1,right,1474.9359,1475.9991,1,1,right,0,1475.9994,1475.9994,1476.0026,1477.4989,0,26,26,26,1,0.8,0.2,0.8,0.2,,,,,,,,,,,,,,,0.9105,,0.2,0.8,0.6,0.4,0.6,0.4,0.2,0.8,,,0.526,,0.2,0.8,0.6,0.4,0.4,0.6,0.2,0.8,1,0
,,6604b3ecc51a5f1e73eb122e,66fc99e06b85299257412ea3,2024-10-01_20h56.46.331,mdp,2024.2.1,Win32,59.52380952,66fa4ebf79326e780c390304,,,,,,,,,,,,,,,,,,,,,1477.5001,1477.5001,1477.5029,1480.2986,1,0,right,2.2675,,1480.3016,1481.881,1,1,right,1481.8845,1483.0474,1,0,right,1,1483.0476,1483.0476,1483.0502,1484.5469,0,27,27,27,1,0.8,0.2,0.8,0.2,,,,,,,,,,,,,,,1.0421,,0.2,0.8,0.6,0.4,0.6,0.4,0.2,0.8,,,0.6341,,0.2,0.8,0.6,0.4,0.8,0.2,0.8,0.2,1,0
,,6604b3ecc51a5f1e73eb122e,66fc99e06b85299257412ea3,2024-10-01_20h56.46.331,mdp,2024.2.1,Win32,59.52380952,66fa4ebf79326e780c390304,,,,,,,,,,,,,,,,,,,,,1484.548,1484.548,1484.5507,1486.3133,1,1,right,1.2365,,1486.3166,1490.179,1,1,right,1490.182,1491.9946,1,0,right,1,1491.9949,1491.9949,1491.9982,1493.4945,0,28,28,28,1,0.8,0.2,0.8,0.2,,,,,,,,,,,,,,,3.3243,,0.2,0.8,0.6,0.4,0.4,0.6,0.6,0.4,,,1.292,,0.2,0.8,0.6,0.4,0.8,0.2,0.8,0.2,1,0
,,6604b3ecc51a5f1e73eb122e,66fc99e06b85299257412ea3,2024-10-01_20h56.46.331,mdp,2024.2.1,Win32,59.52380952,66fa4ebf79326e780c390304,,,,,,,,,,,,,,,,,,,,,1493.496,1493.496,1493.4989,1495.611,1,0,right,1.5845,,1495.6147,1496.9944,1,0,right,1496.9982,1498.3101,1,0,right,1,1498.3104,1498.3104,1498.3129,1499.8091,0,29,29,29,1,0.8,0.2,0.8,0.2,,,,,,,,,,,,,,,0.8426,,0.2,0.8,0.6,0.4,0.4,0.6,0.6,0.4,,,0.7739,,0.2,0.8,0.6,0.4,0.8,0.2,0.8,0.2,1,0
,,6604b3ecc51a5f1e73eb122e,66fc99e06b85299257412ea3,2024-10-01_20h56.46.331,mdp,2024.2.1,Win32,59.52380952,66fa4ebf79326e780c390304,,,,,,,,,,,,,,,,,,,,,1499.8104,1499.8105,1499.8132,1501.1581,1,0,right,0.8205,,1501.1593,1503.0083,1,1,right,1503.0116,1504.7919,1,0,right,1,1504.7921,1504.7921,1504.7953,1506.2907,0,30,30,30,1,0.8,0.2,0.8,0.2,,,,,,,,,,,,,,,1.3318,,0.2,0.8,0.6,0.4,0.4,0.6,0.6,0.4,,,1.2406,,0.2,0.8,0.6,0.4,0.8,0.2,0.8,0.2,1,0
,,6604b3ecc51a5f1e73eb122e,66fc99e06b85299257412ea3,2024-10-01_20h56.46.331,mdp,2024.2.1,Win32,59.52380952,66fa4ebf79326e780c390304,,,,,,,,,,,,,,,,,,,,,1506.2921,1506.2921,1506.2945,1507.9078,1,0,right,1.0864,,1507.9108,1509.2074,1,1,right,1509.2103,1510.7567,1,0,right,1,1510.7569,1510.7569,1510.7595,1512.2557,0,31,31,31,1,0.8,0.2,0.8,0.2,,,,,,,,,,,,,,,0.7673,,0.6,0.4,0.2,0.8,0.4,0.6,0.6,0.4,,,1.0225,,0.2,0.8,0.6,0.4,0.8,0.2,0.8,0.2,1,0
,,6604b3ecc51a5f1e73eb122e,66fc99e06b85299257412ea3,2024-10-01_20h56.46.331,mdp,2024.2.1,Win32,59.52380952,66fa4ebf79326e780c390304,,,,,,,,,,,,,,,,,,,,,1512.2568,1512.2568,1512.2595,1513.6226,1,0,right,0.8338,,1513.6254,1514.8721,1,1,right,1514.8748,1516.4881,1,0,right,1,1516.4884,1516.4884,1516.4911,1517.9879,0,32,32,32,1,0.8,0.2,0.8,0.2,,,,,,,,,,,,,,,0.7178,,0.6,0.4,0.2,0.8,0.4,0.6,0.6,0.4,,,1.0836,,0.2,0.8,0.6,0.4,0.8,0.2,0.8,0.2,1,0
,,6604b3ecc51a5f1e73eb122e,66fc99e06b85299257412ea3,2024-10-01_20h56.46.331,mdp,2024.2.1,Win32,59.52380952,66fa4ebf79326e780c390304,,,,,,,,,,,,,,,,,,,,,1517.9893,1517.9893,1517.9919,1519.2548,1,0,right,0.7334,,1519.2576,1520.9206,1,1,right,1520.9231,1523.7033,1,0,right,1,1523.7035,1523.7035,1523.706,1525.2022,0,33,33,33,1,0.8,0.2,0.8,0.2,,,,,,,,,,,,,,,1.1352,,0.6,0.4,0.2,0.8,0.4,0.6,0.6,0.4,,,2.2501,,0.2,0.8,0.6,0.4,0.8,0.2,0.8,0.2,1,0
,,6604b3ecc51a5f1e73eb122e,66fc99e06b85299257412ea3,2024-10-01_20h56.46.331,mdp,2024.2.1,Win32,59.52380952,66fa4ebf79326e780c390304,,,,,,,,,,,,,,,,,,,,,1525.2033,1525.2033,1525.2058,1526.6193,1,0,right,0.8841,,1526.6216,1528.2854,1,0,right,1528.2885,1530.1517,1,0,right,1,1530.1519,1530.1519,1530.1542,1531.651,0,34,34,34,1,0.8,0.2,0.8,0.2,,,,,,,,,,,,,,,1.1341,,0.6,0.4,0.2,0.8,0.4,0.6,0.6,0.4,,,1.3205,,0.2,0.8,0.6,0.4,0.8,0.2,0.8,0.2,1,0
,,6604b3ecc51a5f1e73eb122e,66fc99e06b85299257412ea3,2024-10-01_20h56.46.331,mdp,2024.2.1,Win32,59.52380952,66fa4ebf79326e780c390304,,,,,,,,,,,,,,,,,,,,,1531.6522,1531.6522,1531.6551,1532.8343,1,0,right,0.6595,,1532.8369,1534.2339,1,1,right,1534.2367,1536.0336,1,0,right,1,1536.0341,1536.0341,1536.0374,1537.5326,0,35,35,35,1,0.8,0.2,0.8,0.2,,,,,,,,,,,,,,,0.869,,0.6,0.4,0.2,0.8,0.4,0.6,0.6,0.4,,,1.2588,,0.2,0.8,0.6,0.4,0.8,0.2,0.8,0.2,1,0
,,6604b3ecc51a5f1e73eb122e,66fc99e06b85299257412ea3,2024-10-01_20h56.46.331,mdp,2024.2.1,Win32,59.52380952,66fa4ebf79326e780c390304,,,,,,,,,,,,,,,,,,,,,1537.5338,1537.5339,1537.5366,1538.8326,1,0,right,0.7666,,1538.8356,1540.0318,1,1,right,1540.0342,1541.2984,1,0,right,1,1541.2986,1541.2987,1541.3018,1542.7981,0,36,36,36,1,0.8,0.2,0.8,0.2,,,,,,,,,,,,,,,0.6726,,0.6,0.4,0.2,0.8,0.4,0.6,0.6,0.4,,,0.7371,,0.2,0.8,0.6,0.4,0.8,0.2,0.8,0.2,1,0
,,6604b3ecc51a5f1e73eb122e,66fc99e06b85299257412ea3,2024-10-01_20h56.46.331,mdp,2024.2.1,Win32,59.52380952,66fa4ebf79326e780c390304,,,,,,,,,,,,,,,,,,,,,1542.7992,1542.7992,1542.802,1544.4642,1,0,right,1.1344,,1544.4674,1546.0639,1,1,right,1546.0671,1547.3132,1,0,right,1,1547.3136,1547.3137,1547.3166,1548.8133,0,37,37,37,1,0.8,0.2,0.8,0.2,,,,,,,,,,,,,,,1.0693,,0.6,0.4,0.2,0.8,0.4,0.6,0.6,0.4,,,0.7162,,0.2,0.8,0.6,0.4,0.8,0.2,0.8,0.2,1,0
,,6604b3ecc51a5f1e73eb122e,66fc99e06b85299257412ea3,2024-10-01_20h56.46.331,mdp,2024.2.1,Win32,59.52380952,66fa4ebf79326e780c390304,,,,,,,,,,,,,,,,,,,,,1548.8149,1548.8149,1548.8176,1551.7288,1,0,right,2.3835,,1551.7312,1553.7284,1,1,right,1553.7314,1554.9785,1,0,right,1,1554.9787,1554.9788,1554.9827,1556.4777,0,38,38,38,1,0.8,0.2,0.8,0.2,,,,,,,,,,,,,,,1.4891,,0.6,0.4,0.2,0.8,0.4,0.6,0.6,0.4,,,0.7169,,0.2,0.8,0.6,0.4,0.8,0.2,0.8,0.2,1,0
,,6604b3ecc51a5f1e73eb122e,66fc99e06b85299257412ea3,2024-10-01_20h56.46.331,mdp,2024.2.1,Win32,59.52380952,66fa4ebf79326e780c390304,,,,,,,,,,,,,,,,,,,,,1556.4792,1556.4792,1556.4819,1558.2273,1,0,right,1.2178,,1558.2302,1559.51,1,1,right,1559.513,1560.5434,1,0,right,1,1560.5436,1560.5436,1560.5467,1562.0431,0,39,39,39,1,0.8,0.2,0.8,0.2,,,,,,,,,,,,,,,0.751,,0.6,0.4,0.2,0.8,0.4,0.6,0.6,0.4,,,0.5068,,0.2,0.8,0.6,0.4,0.8,0.2,0.8,0.2,1,0
,,6604b3ecc51a5f1e73eb122e,66fc99e06b85299257412ea3,2024-10-01_20h56.46.331,mdp,2024.2.1,Win32,59.52380952,66fa4ebf79326e780c390304,,,,,,,,,,,,,,,,,,,,,1562.0443,1562.0443,1562.0478,1565.759,1,0,right,3.1923,,1565.7618,1567.6087,1,0,right,1567.6115,1568.7577,1,0,right,1,1568.7578,1568.7578,1568.7602,1570.2577,0,40,40,40,1,0.8,0.2,0.8,0.2,,,,,,,,,,,,,,,1.3178,,0.6,0.4,0.2,0.8,0.4,0.6,0.6,0.4,,,0.6122,,0.2,0.8,0.6,0.4,0.8,0.2,0.8,0.2,1,0
,,6604b3ecc51a5f1e73eb122e,66fc99e06b85299257412ea3,2024-10-01_20h56.46.331,mdp,2024.2.1,Win32,59.52380952,66fa4ebf79326e780c390304,,,,,,,,,,,,,,,,,,,,,1570.2595,1570.2595,1570.2623,1575.4565,1,0,right,4.6683,,1575.4593,1577.1393,1,0,right,1577.1423,1578.2891,1,1,right,0,1578.2892,1578.2893,1578.2923,1579.7888,0,41,41,41,1,0.8,0.2,0.8,0.2,,,,,,,,,,,,,,,1.1575,,0.6,0.4,0.2,0.8,0.4,0.6,0.6,0.4,,,0.621,,0.2,0.8,0.6,0.4,0.8,0.2,0.8,0.2,1,0
,,6604b3ecc51a5f1e73eb122e,66fc99e06b85299257412ea3,2024-10-01_20h56.46.331,mdp,2024.2.1,Win32,59.52380952,66fa4ebf79326e780c390304,,,,,,,,,,,,,,,,,,,,,1579.7903,1579.7903,1579.7939,1580.8712,1,1,right,0.5573,,1580.8738,1582.271,1,0,right,1582.2733,1583.7707,1,1,right,0,1583.7709,1583.7709,1583.7734,1585.2702,0,42,42,42,1,0.8,0.2,0.8,0.2,,,,,,,,,,,,,,,0.8581,,0.6,0.4,0.2,0.8,0.4,0.6,0.6,0.4,,,0.9704,,0.2,0.8,0.6,0.4,0.8,0.2,0.8,0.2,1,0
,,6604b3ecc51a5f1e73eb122e,66fc99e06b85299257412ea3,2024-10-01_20h56.46.331,mdp,2024.2.1,Win32,59.52380952,66fa4ebf79326e780c390304,,,,,,,,,,,,,,,,,,,,,1585.2712,1585.2713,1585.2734,1586.3034,1,0,right,0.5008,,1586.3075,1588.07,1,1,right,1588.0732,1589.3526,1,0,right,1,1589.3529,1589.3529,1589.3552,1590.8515,0,43,43,43,1,0.8,0.2,0.8,0.2,,,,,,,,,,,,,,,1.2325,,0.2,0.8,0.4,0.6,0.4,0.6,0.6,0.4,,,0.7433,,0.2,0.8,0.6,0.4,0.8,0.2,0.8,0.2,1,0
,,6604b3ecc51a5f1e73eb122e,66fc99e06b85299257412ea3,2024-10-01_20h56.46.331,mdp,2024.2.1,Win32,59.52380952,66fa4ebf79326e780c390304,,,,,,,,,,,,,,,,,,,,,1590.8527,1590.8527,1590.8555,1592.4353,1,0,right,1.055,,1592.4378,1593.5846,1,1,right,1593.5869,1594.7511,1,1,right,0,1594.7514,1594.7514,1594.7537,1596.2506,0,44,44,44,1,0.4,0.6,0.6,0.4,,,,,,,,,,,,,,,0.6172,,0.2,0.8,0.4,0.6,0.4,0.6,0.6,0.4,,,0.6415,,0.2,0.8,0.6,0.4,0.8,0.2,0.8,0.2,1,0
,,6604b3ecc51a5f1e73eb122e,66fc99e06b85299257412ea3,2024-10-01_20h56.46.331,mdp,2024.2.1,Win32,59.52380952,66fa4ebf79326e780c390304,,,,,,,,,,,,,,,,,,,,,1596.2516,1596.2516,1596.2539,1597.917,1,0,right,1.1345,,1597.92,1599.2998,1,1,right,1599.3026,1600.8993,1,0,right,1,1600.8995,1600.8995,1600.9019,1602.3991,0,45,45,45,1,0.8,0.2,0.8,0.2,,,,,,,,,,,,,,,0.8501,,0.2,0.8,0.4,0.6,0.4,0.6,0.6,0.4,,,1.0706,,0.2,0.8,0.6,0.4,0.8,0.2,0.8,0.2,1,0
,,6604b3ecc51a5f1e73eb122e,66fc99e06b85299257412ea3,2024-10-01_20h56.46.331,mdp,2024.2.1,Win32,59.52380952,66fa4ebf79326e780c390304,,,,,,,,,,,,,,,,,,,,,1602.4005,1602.4005,1602.4035,1606.0481,1,1,right,3.1176,,1606.051,1607.3312,1,0,right,1607.3342,1608.6807,1,1,right,0,1608.6808,1608.6809,1608.6834,1610.1807,0,46,46,46,1,0.8,0.2,0.8,0.2,,,,,,,,,,,,,,,0.742,,0.2,0.8,0.4,0.6,0.4,0.6,0.6,0.4,,,0.8239,,0.2,0.8,0.6,0.4,0.8,0.2,0.8,0.2,1,0
,,6604b3ecc51a5f1e73eb122e,66fc99e06b85299257412ea3,2024-10-01_20h56.46.331,mdp,2024.2.1,Win32,59.52380952,66fa4ebf79326e780c390304,,,,,,,,,,,,,,,,,,,,,1610.1824,1610.1825,1610.1853,1613.846,1,0,right,3.134,,1613.8486,1615.1963,1,1,right,1615.1996,1616.4458,1,0,right,1,1616.446,1616.4461,1616.4488,1617.9446,0,47,47,47,1,0.8,0.2,0.8,0.2,,,,,,,,,,,,,,,0.8026,,0.2,0.8,0.4,0.6,0.6,0.4,0.4,0.6,,,0.708,,0.2,0.8,0.6,0.4,0.8,0.2,0.8,0.2,1,0
,,6604b3ecc51a5f1e73eb122e,66fc99e06b85299257412ea3,2024-10-01_20h56.46.331,mdp,2024.2.1,Win32,59.52380952,66fa4ebf79326e780c390304,,,,,,,,,,,,,,,,,,,,,1617.9458,1617.9458,1617.9482,1621.7107,1,0,right,3.2323,,1621.7134,1623.7097,1,0,right,1623.7123,1625.0927,1,0,right,1,1625.0929,1625.0929,1625.0959,1626.5927,0,48,48,48,1,0.8,0.2,0.8,0.2,,,,,,,,,,,,,,,1.4746,,0.2,0.8,0.4,0.6,0.6,0.4,0.4,0.6,,,0.8425,,0.2,0.8,0.6,0.4,0.8,0.2,0.8,0.2,1,0
,,6604b3ecc51a5f1e73eb122e,66fc99e06b85299257412ea3,2024-10-01_20h56.46.331,mdp,2024.2.1,Win32,59.52380952,66fa4ebf79326e780c390304,,,,,,,,,,,,,,,,,,,,,1626.5941,1626.5941,1626.5965,1627.9924,1,0,right,0.8752,,1627.9949,1629.059,1,1,right,1629.0617,1630.1255,1,0,right,1,1630.1257,1630.1257,1630.1286,1631.6247,0,49,49,49,1,0.8,0.2,0.8,0.2,,,,,,,,,,,,,,,0.5388,,0.2,0.8,0.4,0.6,0.6,0.4,0.4,0.6,,,0.525,,0.6,0.4,0.2,0.8,0.8,0.2,0.8,0.2,1,0
,,6604b3ecc51a5f1e73eb122e,66fc99e06b85299257412ea3,2024-10-01_20h56.46.331,mdp,2024.2.1,Win32,59.52380952,66fa4ebf79326e780c390304,,,,,,,,,,,,,,,,,,,,,,,,,,,,,,,,,,,,,,,,,,,,,,,,,,,,,,,,1631.6255,1690.1262,0,2,2,0,1,imgs/rabbit.png,imgs/elephant.png,imgs/kangaroo.png,imgs/horse.png,imgs/goat.png,,,,,,,,,,,,,,,,,,,,,,,,
,,6604b3ecc51a5f1e73eb122e,66fc99e06b85299257412ea3,2024-10-01_20h56.46.331,mdp,2024.2.1,Win32,59.52380952,66fa4ebf79326e780c390304,,,,,,,,,,,,,,3,seqs/st3seq40.csv,1690.1281,1693.2581,space,2.6055,,1693.2803,1693.2803,1693.2828,1710.1036,1,0,right,16.2647,,1710.1063,1711.1702,1,1,right,1711.1731,1712.753,1,1,right,0,1712.7532,1712.7532,1712.7565,1714.2522,0,0,0,0,1,0.2,0.8,0.6,0.4,,,,,,,,,,,,,,,0.5197,,0.6,0.4,0.2,0.8,0.2,0.8,0.6,0.4,,,1.04,,0.2,0.8,0.2,0.8,0.6,0.4,0.2,0.8,1,0
,,6604b3ecc51a5f1e73eb122e,66fc99e06b85299257412ea3,2024-10-01_20h56.46.331,mdp,2024.2.1,Win32,59.52380952,66fa4ebf79326e780c390304,,,,,,,,,,,,,,,,,,,,,1714.2534,1714.2534,1714.2557,1716.1353,1,0,right,1.3521,,1716.1377,1717.5018,1,1,right,1717.5044,1718.6348,1,1,right,0,1718.6351,1718.6351,1718.6376,1720.1342,0,1,1,1,1,0.2,0.8,0.6,0.4,,,,,,,,,,,,,,,0.8392,,0.6,0.4,0.2,0.8,0.2,0.8,0.6,0.4,,,0.604,,0.2,0.8,0.2,0.8,0.6,0.4,0.2,0.8,1,0
,,6604b3ecc51a5f1e73eb122e,66fc99e06b85299257412ea3,2024-10-01_20h56.46.331,mdp,2024.2.1,Win32,59.52380952,66fa4ebf79326e780c390304,,,,,,,,,,,,,,,,,,,,,1720.1355,1720.1355,1720.1381,1721.5004,1,1,right,0.8403,,1721.503,1722.9836,1,0,right,1722.986,1724.3997,1,1,right,0,1724.3998,1724.3998,1724.4022,1725.8992,0,2,2,2,1,0.2,0.8,0.6,0.4,,,,,,,,,,,,,,,0.9399,,0.6,0.4,0.2,0.8,0.2,0.8,0.6,0.4,,,0.874,,0.2,0.8,0.2,0.8,0.6,0.4,0.2,0.8,1,0
,,6604b3ecc51a5f1e73eb122e,66fc99e06b85299257412ea3,2024-10-01_20h56.46.331,mdp,2024.2.1,Win32,59.52380952,66fa4ebf79326e780c390304,,,,,,,,,,,,,,,,,,,,,1725.9003,1725.9003,1725.9026,1727.399,1,0,right,0.9683,,1727.4013,1729.5652,1,1,right,1729.5677,1731.1314,1,1,right,0,1731.1317,1731.1317,1731.1345,1732.6311,0,3,3,3,1,0.2,0.8,0.6,0.4,,,,,,,,,,,,,,,1.6498,,0.6,0.4,0.2,0.8,0.2,0.8,0.6,0.4,,,1.0314,,0.2,0.8,0.2,0.8,0.2,0.8,0.8,0.2,1,0
,,6604b3ecc51a5f1e73eb122e,66fc99e06b85299257412ea3,2024-10-01_20h56.46.331,mdp,2024.2.1,Win32,59.52380952,66fa4ebf79326e780c390304,,,,,,,,,,,,,,,,,,,,,1732.6321,1732.6322,1732.6349,1734.9643,1,0,right,1.8019,,1734.9675,1736.28,1,1,right,1736.2824,1737.7294,1,0,right,1,1737.7295,1737.7295,1737.7321,1739.2296,0,4,4,4,1,0.2,0.8,0.6,0.4,,,,,,,,,,,,,,,0.7835,,0.6,0.4,0.2,0.8,0.2,0.8,0.6,0.4,,,0.9211,,0.2,0.8,0.2,0.8,0.2,0.8,0.8,0.2,1,0
,,6604b3ecc51a5f1e73eb122e,66fc99e06b85299257412ea3,2024-10-01_20h56.46.331,mdp,2024.2.1,Win32,59.52380952,66fa4ebf79326e780c390304,,,,,,,,,,,,,,,,,,,,,1739.2308,1739.2309,1739.2333,1741.1954,1,1,right,1.434,,1741.1982,1742.3952,1,0,right,1742.399,1743.9285,1,1,right,0,1743.9287,1743.9287,1743.9312,1745.4282,0,5,5,5,1,0.2,0.8,0.6,0.4,,,,,,,,,,,,,,,0.6631,,0.6,0.4,0.2,0.8,0.2,0.8,0.6,0.4,,,1.0115,,0.2,0.8,0.2,0.8,0.2,0.8,0.8,0.2,1,0
,,6604b3ecc51a5f1e73eb122e,66fc99e06b85299257412ea3,2024-10-01_20h56.46.331,mdp,2024.2.1,Win32,59.52380952,66fa4ebf79326e780c390304,,,,,,,,,,,,,,,,,,,,,1745.4294,1745.4294,1745.4322,1746.7939,1,0,right,0.8342,,1746.7967,1748.4772,1,1,right,1748.4799,1751.5093,1,0,right,1,1751.5095,1751.5095,1751.5126,1753.0092,0,6,6,6,1,0.2,0.8,0.6,0.4,,,,,,,,,,,,,,,1.1458,,0.6,0.4,0.2,0.8,0.2,0.8,0.6,0.4,,,2.4984,,0.2,0.8,0.2,0.8,0.8,0.2,0.6,0.4,1,0
,,6604b3ecc51a5f1e73eb122e,66fc99e06b85299257412ea3,2024-10-01_20h56.46.331,mdp,2024.2.1,Win32,59.52380952,66fa4ebf79326e780c390304,,,,,,,,,,,,,,,,,,,,,1753.0104,1753.0105,1753.0136,1754.4419,1,1,right,0.9094,,1754.4447,1755.7088,1,0,right,1755.7116,1756.725,1,1,right,0,1756.7252,1756.7253,1756.7282,1758.2247,0,7,7,7,1,0.6,0.4,0.8,0.2,,,,,,,,,,,,,,,0.7502,,0.6,0.4,0.2,0.8,0.2,0.8,0.6,0.4,,,0.4764,,0.2,0.8,0.2,0.8,0.8,0.2,0.6,0.4,1,0
,,6604b3ecc51a5f1e73eb122e,66fc99e06b85299257412ea3,2024-10-01_20h56.46.331,mdp,2024.2.1,Win32,59.52380952,66fa4ebf79326e780c390304,,,,,,,,,,,,,,,,,,,,,1758.2259,1758.226,1758.2286,1761.0401,1,0,right,2.2854,,1761.0425,1762.6566,1,1,right,1762.6591,1763.8063,1,1,right,0,1763.8065,1763.8066,1763.8094,1765.3058,0,8,8,8,1,0.6,0.4,0.8,0.2,,,,,,,,,,,,,,,1.0992,,0.6,0.4,0.2,0.8,0.2,0.8,0.6,0.4,,,0.6116,,0.2,0.8,0.2,0.8,0.8,0.2,0.6,0.4,1,0
,,6604b3ecc51a5f1e73eb122e,66fc99e06b85299257412ea3,2024-10-01_20h56.46.331,mdp,2024.2.1,Win32,59.52380952,66fa4ebf79326e780c390304,,,,,,,,,,,,,,,,,,,,,1765.3071,1765.3071,1765.3104,1766.7059,1,0,right,0.8671,,1766.7084,1769.2208,1,1,right,1769.222,1770.5537,1,0,right,1,1770.5538,1770.5538,1770.5549,1772.054,0,9,9,9,1,0.6,0.4,0.8,0.2,,,,,,,,,,,,,,,1.9822,,0.6,0.4,0.2,0.8,0.2,0.8,0.6,0.4,,,0.8,,0.2,0.8,0.2,0.8,0.8,0.2,0.6,0.4,1,0
,,6604b3ecc51a5f1e73eb122e,66fc99e06b85299257412ea3,2024-10-01_20h56.46.331,mdp,2024.2.1,Win32,59.52380952,66fa4ebf79326e780c390304,,,,,,,,,,,,,,,,,,,,,1772.055,1772.055,1772.0574,1774.1034,1,0,right,1.5178,,1774.1062,1775.3364,1,1,right,1775.3387,1776.9858,1,0,right,1,1776.986,1776.986,1776.9881,1778.4858,0,10,10,10,1,0.6,0.4,0.8,0.2,,,,,,,,,,,,,,,0.7083,,0.6,0.4,0.2,0.8,0.2,0.8,0.6,0.4,,,1.1176,,0.2,0.8,0.2,0.8,0.8,0.2,0.6,0.4,1,0
,,6604b3ecc51a5f1e73eb122e,66fc99e06b85299257412ea3,2024-10-01_20h56.46.331,mdp,2024.2.1,Win32,59.52380952,66fa4ebf79326e780c390304,,,,,,,,,,,,,,,,,,,,,1778.4869,1778.487,1778.4898,1782.0681,1,0,right,3.0517,,1782.0705,1783.5679,1,1,right,1783.5706,1786.1336,1,0,right,1,1786.1338,1786.1338,1786.1366,1787.6334,0,11,11,11,1,0.6,0.4,0.8,0.2,,,,,,,,,,,,,,,0.9746,,0.6,0.4,0.2,0.8,0.2,0.8,0.6,0.4,,,2.0344,,0.2,0.8,0.2,0.8,0.8,0.2,0.6,0.4,1,0
,,6604b3ecc51a5f1e73eb122e,66fc99e06b85299257412ea3,2024-10-01_20h56.46.331,mdp,2024.2.1,Win32,59.52380952,66fa4ebf79326e780c390304,,,,,,,,,,,,,,,,,,,,,1787.6346,1787.6346,1787.6374,1789.4993,1,0,right,1.3415,,1789.5021,1791.4658,1,1,right,1791.4683,1793.6487,1,0,right,1,1793.649,1793.649,1793.6515,1795.1479,0,12,12,12,1,0.6,0.4,0.8,0.2,,,,,,,,,,,,,,,1.4415,,0.6,0.4,0.2,0.8,0.8,0.2,0.4,0.6,,,1.6506,,0.2,0.8,0.2,0.8,0.8,0.2,0.6,0.4,1,0
,,6604b3ecc51a5f1e73eb122e,66fc99e06b85299257412ea3,2024-10-01_20h56.46.331,mdp,2024.2.1,Win32,59.52380952,66fa4ebf79326e780c390304,,,,,,,,,,,,,,,,,,,,,1795.1491,1795.1492,1795.1521,1797.5639,1,1,right,1.8863,,1797.5675,1799.1301,1,0,right,1799.133,1800.4465,1,1,right,0,1800.4466,1800.4466,1800.4492,1801.9462,0,13,13,13,1,0.6,0.4,0.8,0.2,,,,,,,,,,,,,,,1.0404,,0.6,0.4,0.2,0.8,0.8,0.2,0.4,0.6,,,0.7814,,0.2,0.8,0.2,0.8,0.8,0.2,0.6,0.4,1,0
,,6604b3ecc51a5f1e73eb122e,66fc99e06b85299257412ea3,2024-10-01_20h56.46.331,mdp,2024.2.1,Win32,59.52380952,66fa4ebf79326e780c390304,,,,,,,,,,,,,,,,,,,,,1801.9479,1801.948,1801.9505,1803.0958,1,0,right,0.6226,,1803.0983,1804.6457,1,1,right,1804.6484,1806.1951,1,0,right,1,1806.1952,1806.1953,1806.1981,1807.6949,0,14,14,14,1,0.6,0.4,0.8,0.2,,,,,,,,,,,,,,,1.0188,,0.6,0.4,0.2,0.8,0.8,0.2,0.4,0.6,,,1.0095,,0.2,0.8,0.2,0.8,0.8,0.2,0.6,0.4,1,0
,,6604b3ecc51a5f1e73eb122e,66fc99e06b85299257412ea3,2024-10-01_20h56.46.331,mdp,2024.2.1,Win32,59.52380952,66fa4ebf79326e780c390304,,,,,,,,,,,,,,,,,,,,,1807.6961,1807.6961,1807.6989,1809.3608,1,1,right,1.1413,,1809.3633,1811.3938,1,0,right,1811.3971,1812.7266,1,1,right,0,1812.7267,1812.7268,1812.7291,1814.2263,0,15,15,15,1,0.6,0.4,0.8,0.2,,,,,,,,,,,,,,,1.4997,,0.6,0.4,0.2,0.8,0.8,0.2,0.4,0.6,,,0.7902,,0.2,0.8,0.2,0.8,0.8,0.2,0.6,0.4,1,0
,,6604b3ecc51a5f1e73eb122e,66fc99e06b85299257412ea3,2024-10-01_20h56.46.331,mdp,2024.2.1,Win32,59.52380952,66fa4ebf79326e780c390304,,,,,,,,,,,,,,,,,,,,,1814.2278,1814.2278,1814.2313,1819.6407,1,0,right,4.8885,,1819.6421,1821.0742,1,1,right,1821.0767,1823.5067,1,1,right,0,1823.507,1823.507,1823.5098,1825.0064,0,16,16,16,1,0.6,0.4,0.8,0.2,,,,,,,,,,,,,,,0.899,,0.6,0.4,0.2,0.8,0.8,0.2,0.4,0.6,,,1.8676,,0.2,0.8,0.2,0.8,0.8,0.2,0.6,0.4,1,0
,,6604b3ecc51a5f1e73eb122e,66fc99e06b85299257412ea3,2024-10-01_20h56.46.331,mdp,2024.2.1,Win32,59.52380952,66fa4ebf79326e780c390304,,,,,,,,,,,,,,,,,,,,,1825.0076,1825.0076,1825.0105,1827.2727,1,0,right,1.7417,,1827.2764,1828.7221,1,0,right,1828.7248,1830.0717,1,0,right,1,1830.0718,1830.0719,1830.0744,1831.5716,0,17,17,17,1,0.6,0.4,0.8,0.2,,,,,,,,,,,,,,,0.9185,,0.6,0.4,0.2,0.8,0.8,0.2,0.4,0.6,,,0.8129,,0.2,0.8,0.2,0.8,0.8,0.2,0.6,0.4,1,0
,,6604b3ecc51a5f1e73eb122e,66fc99e06b85299257412ea3,2024-10-01_20h56.46.331,mdp,2024.2.1,Win32,59.52380952,66fa4ebf79326e780c390304,,,,,,,,,,,,,,,,,,,,,1831.5728,1831.5729,1831.5756,1833.1885,1,0,right,1.0856,,1833.1909,1834.6709,1,1,right,1834.6742,1836.3703,1,0,right,1,1836.3706,1836.3707,1836.3736,1837.8698,0,18,18,18,1,0.6,0.4,0.8,0.2,,,,,,,,,,,,,,,0.9531,,0.6,0.4,0.2,0.8,0.8,0.2,0.4,0.6,,,1.169,,0.2,0.8,0.2,0.8,0.8,0.2,0.6,0.4,1,0
,,6604b3ecc51a5f1e73eb122e,66fc99e06b85299257412ea3,2024-10-01_20h56.46.331,mdp,2024.2.1,Win32,59.52380952,66fa4ebf79326e780c390304,,,,,,,,,,,,,,,,,,,,,1837.8715,1837.8716,1837.874,1839.453,1,0,right,1.0519,,1839.4556,1840.686,1,1,right,1840.689,1842.2357,1,0,right,1,1842.2358,1842.2358,1842.2383,1843.735,0,19,19,19,1,0.6,0.4,0.8,0.2,,,,,,,,,,,,,,,0.7024,,0.6,0.4,0.2,0.8,0.8,0.2,0.4,0.6,,,1.0176,,0.2,0.8,0.2,0.8,0.8,0.2,0.6,0.4,1,0
,,6604b3ecc51a5f1e73eb122e,66fc99e06b85299257412ea3,2024-10-01_20h56.46.331,mdp,2024.2.1,Win32,59.52380952,66fa4ebf79326e780c390304,,,,,,,,,,,,,,,,,,,,,1843.736,1843.736,1843.7386,1845.9014,1,0,right,1.6395,,1845.9041,1847.4841,1,0,right,1847.487,1848.6169,1,1,right,0,1848.6171,1848.6172,1848.6194,1850.1167,0,20,20,20,1,0.6,0.4,0.8,0.2,,,,,,,,,,,,,,,1.0505,,0.6,0.4,0.2,0.8,0.8,0.2,0.4,0.6,,,0.5987,,0.2,0.8,0.2,0.8,0.8,0.2,0.6,0.4,1,0
,,6604b3ecc51a5f1e73eb122e,66fc99e06b85299257412ea3,2024-10-01_20h56.46.331,mdp,2024.2.1,Win32,59.52380952,66fa4ebf79326e780c390304,,,,,,,,,,,,,,,,,,,,,1850.1178,1850.1178,1850.1206,1852.0163,1,0,right,1.3752,,1852.0191,1853.2327,1,1,right,1853.2354,1854.7155,1,1,right,0,1854.7157,1854.7157,1854.7185,1856.2154,0,21,21,21,1,0.6,0.4,0.8,0.2,,,,,,,,,,,,,,,0.6876,,0.6,0.4,0.2,0.8,0.6,0.4,0.2,0.8,,,0.9474,,0.2,0.8,0.2,0.8,0.8,0.2,0.6,0.4,1,0
,,6604b3ecc51a5f1e73eb122e,66fc99e06b85299257412ea3,2024-10-01_20h56.46.331,mdp,2024.2.1,Win32,59.52380952,66fa4ebf79326e780c390304,,,,,,,,,,,,,,,,,,,,,1856.2165,1856.2165,1856.2203,1859.2643,1,0,right,2.5173,,1859.2666,1860.5141,1,1,right,1860.5167,1861.6804,1,0,right,1,1861.6805,1861.6805,1861.6833,1863.1799,0,22,22,22,1,0.6,0.4,0.8,0.2,,,,,,,,,,,,,,,0.7249,,0.6,0.4,0.2,0.8,0.6,0.4,0.2,0.8,,,0.6364,,0.2,0.8,0.2,0.8,0.8,0.2,0.6,0.4,1,0
,,6604b3ecc51a5f1e73eb122e,66fc99e06b85299257412ea3,2024-10-01_20h56.46.331,mdp,2024.2.1,Win32,59.52380952,66fa4ebf79326e780c390304,,,,,,,,,,,,,,,,,,,,,1863.1809,1863.181,1863.1835,1864.7798,1,1,right,1.0735,,1864.7831,1866.779,1,1,right,1866.7816,1869.5283,1,0,right,1,1869.5285,1869.5285,1869.5309,1871.0277,0,23,23,23,1,0.6,0.4,0.8,0.2,,,,,,,,,,,,,,,1.4574,,0.6,0.4,0.2,0.8,0.6,0.4,0.2,0.8,,,2.2211,,0.2,0.8,0.2,0.8,0.8,0.2,0.6,0.4,1,0
,,6604b3ecc51a5f1e73eb122e,66fc99e06b85299257412ea3,2024-10-01_20h56.46.331,mdp,2024.2.1,Win32,59.52380952,66fa4ebf79326e780c390304,,,,,,,,,,,,,,,,,,,,,1871.0289,1871.0289,1871.0316,1873.2943,1,0,right,1.734,,1873.2977,1874.5105,1,0,right,1874.5131,1875.7933,1,0,right,1,1875.7934,1875.7935,1875.7966,1877.2929,0,24,24,24,1,0.6,0.4,0.8,0.2,,,,,,,,,,,,,,,0.6777,,0.6,0.4,0.2,0.8,0.6,0.4,0.2,0.8,,,0.7462,,0.2,0.8,0.2,0.8,0.6,0.4,0.4,0.6,1,0
,,6604b3ecc51a5f1e73eb122e,66fc99e06b85299257412ea3,2024-10-01_20h56.46.331,mdp,2024.2.1,Win32,59.52380952,66fa4ebf79326e780c390304,,,,,,,,,,,,,,,,,,,,,1877.294,1877.294,1877.2965,1880.7924,1,0,right,2.9681,,1880.7961,1882.0084,1,1,right,1882.0115,1883.2744,1,1,right,0,1883.2745,1883.2745,1883.2775,1884.7742,0,25,25,25,1,0.6,0.4,0.8,0.2,,,,,,,,,,,,,,,0.6844,,0.6,0.4,0.2,0.8,0.6,0.4,0.2,0.8,,,0.731,,0.2,0.8,0.2,0.8,0.6,0.4,0.4,0.6,1,0
,,6604b3ecc51a5f1e73eb122e,66fc99e06b85299257412ea3,2024-10-01_20h56.46.331,mdp,2024.2.1,Win32,59.52380952,66fa4ebf79326e780c390304,,,,,,,,,,,,,,,,,,,,,1884.7753,1884.7753,1884.7781,1886.5574,1,0,right,1.2497,,1886.5605,1887.9567,1,1,right,1887.9595,1889.0565,1,1,right,0,1889.0566,1889.0566,1889.0592,1890.5564,0,26,26,26,1,0.6,0.4,0.8,0.2,,,,,,,,,,,,,,,0.8678,,0.6,0.4,0.2,0.8,0.4,0.6,0.6,0.4,,,0.5733,,0.2,0.8,0.2,0.8,0.6,0.4,0.4,0.6,1,0
,,6604b3ecc51a5f1e73eb122e,66fc99e06b85299257412ea3,2024-10-01_20h56.46.331,mdp,2024.2.1,Win32,59.52380952,66fa4ebf79326e780c390304,,,,,,,,,,,,,,,,,,,,,1890.5576,1890.5576,1890.5601,1892.3727,1,0,right,1.2863,,1892.3758,1893.5051,1,1,right,1893.5074,1894.9717,1,0,right,1,1894.972,1894.972,1894.9748,1896.4712,0,27,27,27,1,0.6,0.4,0.8,0.2,,,,,,,,,,,,,,,0.6102,,0.6,0.4,0.2,0.8,0.4,0.6,0.6,0.4,,,0.9511,,0.2,0.8,0.2,0.8,0.6,0.4,0.4,0.6,1,0
,,6604b3ecc51a5f1e73eb122e,66fc99e06b85299257412ea3,2024-10-01_20h56.46.331,mdp,2024.2.1,Win32,59.52380952,66fa4ebf79326e780c390304,,,,,,,,,,,,,,,,,,,,,1896.4724,1896.4725,1896.4754,1897.8379,1,0,right,0.8386,,1897.8407,1899.204,1,1,right,1899.206,1900.6368,1,0,right,1,1900.637,1900.637,1900.6395,1902.1365,0,28,28,28,1,0.6,0.4,0.8,0.2,,,,,,,,,,,,,,,0.834,,0.6,0.4,0.2,0.8,0.4,0.6,0.6,0.4,,,0.9018,,0.2,0.8,0.2,0.8,0.6,0.4,0.4,0.6,1,0
,,6604b3ecc51a5f1e73eb122e,66fc99e06b85299257412ea3,2024-10-01_20h56.46.331,mdp,2024.2.1,Win32,59.52380952,66fa4ebf79326e780c390304,,,,,,,,,,,,,,,,,,,,,1902.1382,1902.1382,1902.1414,1903.5029,1,0,right,0.8339,,1903.5061,1905.4019,1,0,right,1905.4043,1906.8855,1,1,right,0,1906.8856,1906.8856,1906.8879,1908.3846,0,29,29,29,1,0.6,0.4,0.8,0.2,,,,,,,,,,,,,,,1.3693,,0.6,0.4,0.2,0.8,0.4,0.6,0.6,0.4,,,0.9626,,0.2,0.8,0.2,0.8,0.6,0.4,0.4,0.6,1,0
,,6604b3ecc51a5f1e73eb122e,66fc99e06b85299257412ea3,2024-10-01_20h56.46.331,mdp,2024.2.1,Win32,59.52380952,66fa4ebf79326e780c390304,,,,,,,,,,,,,,,,,,,,,1908.3859,1908.3859,1908.3889,1911.9504,1,1,right,3.0334,,1911.9535,1913.317,1,0,right,1913.3198,1914.8498,1,0,right,1,1914.8499,1914.8499,1914.8529,1916.3491,0,30,30,30,1,0.6,0.4,0.8,0.2,,,,,,,,,,,,,,,0.8248,,0.6,0.4,0.2,0.8,0.4,0.6,0.6,0.4,,,1.0018,,0.2,0.8,0.2,0.8,0.6,0.4,0.4,0.6,1,0
,,6604b3ecc51a5f1e73eb122e,66fc99e06b85299257412ea3,2024-10-01_20h56.46.331,mdp,2024.2.1,Win32,59.52380952,66fa4ebf79326e780c390304,,,,,,,,,,,,,,,,,,,,,1916.3503,1916.3503,1916.3527,1919.3153,1,0,right,2.4383,,1919.3183,1920.3814,1,1,right,1920.3841,1921.598,1,1,right,0,1921.5982,1921.5983,1921.602,1923.0973,0,31,31,31,1,0.6,0.4,0.8,0.2,,,,,,,,,,,,,,,0.5256,,0.6,0.4,0.2,0.8,0.4,0.6,0.6,0.4,,,0.6827,,0.2,0.8,0.2,0.8,0.6,0.4,0.4,0.6,1,0
,,6604b3ecc51a5f1e73eb122e,66fc99e06b85299257412ea3,2024-10-01_20h56.46.331,mdp,2024.2.1,Win32,59.52380952,66fa4ebf79326e780c390304,,,,,,,,,,,,,,,,,,,,,1923.0985,1923.0985,1923.1008,1925.7802,1,0,right,2.1517,,1925.7835,1927.1296,1,1,right,1927.1322,1928.896,1,1,right,0,1928.8961,1928.8962,1928.899,1930.3959,0,32,32,32,1,0.6,0.4,0.8,0.2,,,,,,,,,,,,,,,0.8255,,0.6,0.4,0.2,0.8,0.4,0.6,0.6,0.4,,,1.2336,,0.2,0.8,0.2,0.8,0.6,0.4,0.4,0.6,1,0
,,6604b3ecc51a5f1e73eb122e,66fc99e06b85299257412ea3,2024-10-01_20h56.46.331,mdp,2024.2.1,Win32,59.52380952,66fa4ebf79326e780c390304,,,,,,,,,,,,,,,,,,,,,1930.397,1930.397,1930.3992,1932.345,1,1,right,1.4166,,1932.3481,1933.6783,1,1,right,1933.681,1934.8779,1,1,right,0,1934.878,1934.878,1934.8814,1936.3775,0,33,33,33,1,0.6,0.4,0.8,0.2,,,,,,,,,,,,,,,0.7893,,0.6,0.4,0.2,0.8,0.6,0.4,0.4,0.6,,,0.673,,0.2,0.8,0.2,0.8,0.6,0.4,0.4,0.6,1,0
,,6604b3ecc51a5f1e73eb122e,66fc99e06b85299257412ea3,2024-10-01_20h56.46.331,mdp,2024.2.1,Win32,59.52380952,66fa4ebf79326e780c390304,,,,,,,,,,,,,,,,,,,,,1936.3787,1936.3787,1936.3813,1938.41,1,0,right,1.503,,1938.4127,1939.6099,1,1,right,1939.6125,1941.2592,1,0,right,1,1941.2593,1941.2593,1941.2621,1942.7589,0,34,34,34,1,0.6,0.4,0.8,0.2,,,,,,,,,,,,,,,0.6561,,0.6,0.4,0.2,0.8,0.6,0.4,0.4,0.6,,,1.1178,,0.2,0.8,0.2,0.8,0.6,0.4,0.4,0.6,1,0
,,6604b3ecc51a5f1e73eb122e,66fc99e06b85299257412ea3,2024-10-01_20h56.46.331,mdp,2024.2.1,Win32,59.52380952,66fa4ebf79326e780c390304,,,,,,,,,,,,,,,,,,,,,1942.7601,1942.7601,1942.7627,1945.9749,1,0,right,2.6844,,1945.9781,1947.2414,1,1,right,1947.2442,1948.5744,1,1,right,0,1948.5746,1948.5746,1948.577,1950.0737,0,35,35,35,1,0.2,0.8,0.6,0.4,,,,,,,,,,,,,,,0.7352,,0.6,0.4,0.2,0.8,0.6,0.4,0.4,0.6,,,0.8011,,0.2,0.8,0.2,0.8,0.6,0.4,0.4,0.6,1,0
,,6604b3ecc51a5f1e73eb122e,66fc99e06b85299257412ea3,2024-10-01_20h56.46.331,mdp,2024.2.1,Win32,59.52380952,66fa4ebf79326e780c390304,,,,,,,,,,,,,,,,,,,,,1950.0747,1950.0747,1950.0769,1951.4734,1,0,right,0.8755,,1951.4761,1952.8895,1,1,right,1952.8918,1954.0393,1,1,right,0,1954.0395,1954.0395,1954.0418,1955.539,0,36,36,36,1,0.2,0.8,0.6,0.4,,,,,,,,,,,,,,,0.8841,,0.6,0.4,0.2,0.8,0.6,0.4,0.4,0.6,,,0.6174,,0.2,0.8,0.2,0.8,0.6,0.4,0.4,0.6,1,0
,,6604b3ecc51a5f1e73eb122e,66fc99e06b85299257412ea3,2024-10-01_20h56.46.331,mdp,2024.2.1,Win32,59.52380952,66fa4ebf79326e780c390304,,,,,,,,,,,,,,,,,,,,,1955.5403,1955.5404,1955.5432,1956.4392,1,1,right,0.3681,,1956.4423,1957.8043,1,0,right,1957.8056,1959.0714,1,1,right,0,1959.0715,1959.0715,1959.0734,1960.5711,0,37,37,37,1,0.2,0.8,0.6,0.4,,,,,,,,,,,,,,,0.8327,,0.6,0.4,0.2,0.8,0.6,0.4,0.4,0.6,,,0.7443,,0.2,0.8,0.2,0.8,0.6,0.4,0.4,0.6,1,0
,,6604b3ecc51a5f1e73eb122e,66fc99e06b85299257412ea3,2024-10-01_20h56.46.331,mdp,2024.2.1,Win32,59.52380952,66fa4ebf79326e780c390304,,,,,,,,,,,,,,,,,,,,,1960.5722,1960.5722,1960.5744,1962.5375,1,0,right,1.437,,1962.5398,1964.0202,1,1,right,1964.0228,1965.3861,1,0,right,1,1965.3865,1965.3865,1965.389,1966.886,0,38,38,38,1,0.2,0.8,0.6,0.4,,,,,,,,,,,,,,,0.9443,,0.6,0.4,0.2,0.8,0.6,0.4,0.4,0.6,,,0.8338,,0.2,0.8,0.2,0.8,0.6,0.4,0.4,0.6,1,0
,,6604b3ecc51a5f1e73eb122e,66fc99e06b85299257412ea3,2024-10-01_20h56.46.331,mdp,2024.2.1,Win32,59.52380952,66fa4ebf79326e780c390304,,,,,,,,,,,,,,,,,,,,,1966.8871,1966.8871,1966.8895,1970.6182,1,1,right,3.2013,,1970.6211,1972.0014,1,1,right,1972.0039,1973.5012,1,1,right,0,1973.5014,1973.5014,1973.5039,1975.0007,0,39,39,39,1,0.2,0.8,0.6,0.4,,,,,,,,,,,,,,,0.8451,,0.6,0.4,0.2,0.8,0.6,0.4,0.4,0.6,,,0.9703,,0.2,0.8,0.2,0.8,0.6,0.4,0.4,0.6,1,0
,,6604b3ecc51a5f1e73eb122e,66fc99e06b85299257412ea3,2024-10-01_20h56.46.331,mdp,2024.2.1,Win32,59.52380952,66fa4ebf79326e780c390304,,,,,,,,,,,,,,,,,,,,,1975.0019,1975.0019,1975.0048,1979.0664,1,1,right,3.5387,,1979.0689,1980.5491,1,1,right,1980.5518,1982.0658,1,0,right,1,1982.0659,1982.0659,1982.069,1983.5652,0,40,40,40,1,0.2,0.8,0.6,0.4,,,,,,,,,,,,,,,0.958,,0.6,0.4,0.2,0.8,0.6,0.4,0.4,0.6,,,0.9844,,0.2,0.8,0.2,0.8,0.6,0.4,0.4,0.6,1,0
,,6604b3ecc51a5f1e73eb122e,66fc99e06b85299257412ea3,2024-10-01_20h56.46.331,mdp,2024.2.1,Win32,59.52380952,66fa4ebf79326e780c390304,,,,,,,,,,,,,,,,,,,,,1983.5663,1983.5663,1983.5695,1984.8983,1,0,right,0.8036,,1984.9016,1986.2141,1,1,right,1986.2166,1987.7139,1,0,right,1,1987.7141,1987.7141,1987.7166,1989.2139,0,41,41,41,1,0.2,0.8,0.6,0.4,,,,,,,,,,,,,,,0.7795,,0.6,0.4,0.2,0.8,0.6,0.4,0.4,0.6,,,0.9845,,0.2,0.8,0.2,0.8,0.6,0.4,0.4,0.6,1,0
,,6604b3ecc51a5f1e73eb122e,66fc99e06b85299257412ea3,2024-10-01_20h56.46.331,mdp,2024.2.1,Win32,59.52380952,66fa4ebf79326e780c390304,,,,,,,,,,,,,,,,,,,,,1989.2152,1989.2153,1989.2179,1990.8799,1,0,right,1.1381,,1990.8828,1992.1129,1,1,right,1992.1154,1993.4459,1,1,right,0,1993.4461,1993.4461,1993.4488,1994.9453,0,42,42,42,1,0.2,0.8,0.6,0.4,,,,,,,,,,,,,,,0.7001,,0.6,0.4,0.2,0.8,0.6,0.4,0.4,0.6,,,0.8016,,0.4,0.6,0.8,0.2,0.6,0.4,0.4,0.6,1,0
,,6604b3ecc51a5f1e73eb122e,66fc99e06b85299257412ea3,2024-10-01_20h56.46.331,mdp,2024.2.1,Win32,59.52380952,66fa4ebf79326e780c390304,,,,,,,,,,,,,,,,,,,,,1994.9465,1994.9466,1994.9497,1996.478,1,0,right,1.0067,,1996.481,1997.7945,1,1,right,1997.7971,1999.0278,1,1,right,0,1999.0279,1999.0279,1999.0305,2000.5276,0,43,43,43,1,0.2,0.8,0.6,0.4,,,,,,,,,,,,,,,0.8097,,0.6,0.4,0.2,0.8,0.6,0.4,0.4,0.6,,,0.7006,,0.4,0.6,0.8,0.2,0.6,0.4,0.4,0.6,1,0
,,6604b3ecc51a5f1e73eb122e,66fc99e06b85299257412ea3,2024-10-01_20h56.46.331,mdp,2024.2.1,Win32,59.52380952,66fa4ebf79326e780c390304,,,,,,,,,,,,,,,,,,,,,2000.5289,2000.529,2000.5321,2002.0939,1,0,right,1.0366,,2002.0969,2003.2272,1,1,right,2003.2296,2004.7754,1,0,right,1,2004.7755,2004.7755,2004.7767,2006.275,0,44,44,44,1,0.2,0.8,0.6,0.4,,,,,,,,,,,,,,,0.601,,0.6,0.4,0.2,0.8,0.6,0.4,0.4,0.6,,,1.0137,,0.4,0.6,0.8,0.2,0.6,0.4,0.4,0.6,1,0
,,6604b3ecc51a5f1e73eb122e,66fc99e06b85299257412ea3,2024-10-01_20h56.46.331,mdp,2024.2.1,Win32,59.52380952,66fa4ebf79326e780c390304,,,,,,,,,,,,,,,,,,,,,2006.2757,2006.2757,2006.2778,2008.5921,1,0,right,1.7853,,2008.5947,2009.7585,1,1,right,2009.7612,2010.9583,1,0,right,1,2010.9585,2010.9585,2010.9618,2012.4578,0,45,45,45,1,0.2,0.8,0.6,0.4,,,,,,,,,,,,,,,0.6345,,0.6,0.4,0.2,0.8,0.6,0.4,0.4,0.6,,,0.6676,,0.4,0.6,0.8,0.2,0.4,0.6,0.8,0.2,1,0
,,6604b3ecc51a5f1e73eb122e,66fc99e06b85299257412ea3,2024-10-01_20h56.46.331,mdp,2024.2.1,Win32,59.52380952,66fa4ebf79326e780c390304,,,,,,,,,,,,,,,,,,,,,2012.4592,2012.4593,2012.4623,2013.2911,1,0,right,0.301,,2013.2941,2014.5908,1,1,right,2014.5939,2015.8235,1,0,right,1,2015.8243,2015.8243,2015.8283,2017.3226,0,46,46,46,1,0.2,0.8,0.6,0.4,,,,,,,,,,,,,,,0.7687,,0.6,0.4,0.2,0.8,0.4,0.6,0.8,0.2,,,0.7173,,0.4,0.6,0.8,0.2,0.4,0.6,0.8,0.2,1,0
,,6604b3ecc51a5f1e73eb122e,66fc99e06b85299257412ea3,2024-10-01_20h56.46.331,mdp,2024.2.1,Win32,59.52380952,66fa4ebf79326e780c390304,,,,,,,,,,,,,,,,,,,,,2017.3236,2017.3236,2017.3259,2018.7056,1,0,right,0.8588,,2018.7082,2020.322,1,0,right,2020.3249,2021.5053,1,0,right,1,2021.5055,2021.5055,2021.5081,2023.0053,0,47,47,47,1,0.2,0.8,0.6,0.4,,,,,,,,,,,,,,,1.0926,,0.6,0.4,0.2,0.8,0.8,0.2,0.4,0.6,,,0.6648,,0.4,0.6,0.8,0.2,0.4,0.6,0.8,0.2,1,0
,,6604b3ecc51a5f1e73eb122e,66fc99e06b85299257412ea3,2024-10-01_20h56.46.331,mdp,2024.2.1,Win32,59.52380952,66fa4ebf79326e780c390304,,,,,,,,,,,,,,,,,,,,,2023.0063,2023.0063,2023.0097,2024.3042,1,0,right,0.7683,,2024.3068,2026.1042,1,0,right,2026.1066,2027.4879,1,0,right,1,2027.4881,2027.4882,2027.4912,2028.9868,0,48,48,48,1,0.2,0.8,0.6,0.4,,,,,,,,,,,,,,,1.2864,,0.6,0.4,0.2,0.8,0.8,0.2,0.4,0.6,,,0.8603,,0.4,0.6,0.8,0.2,0.4,0.6,0.8,0.2,1,0
,,6604b3ecc51a5f1e73eb122e,66fc99e06b85299257412ea3,2024-10-01_20h56.46.331,mdp,2024.2.1,Win32,59.52380952,66fa4ebf79326e780c390304,,,,,,,,,,,,,,,,,,,,,2028.988,2028.988,2028.9906,2030.4864,1,1,right,0.9678,,2030.4891,2031.4528,1,0,right,2031.4555,2032.8689,1,0,right,1,2032.8692,2032.8692,2032.8715,2034.3683,0,49,49,49,1,0.2,0.8,0.6,0.4,,,,,,,,,,,,,,,0.4311,,0.6,0.4,0.2,0.8,0.8,0.2,0.4,0.6,,,0.8847,,0.4,0.6,0.8,0.2,0.4,0.6,0.8,0.2,1,0
,,6604b3ecc51a5f1e73eb122e,66fc99e06b85299257412ea3,2024-10-01_20h56.46.331,mdp,2024.2.1,Win32,59.52380952,66fa4ebf79326e780c390304,,,,,,,,,,,,,,,,,,,,,,,,,,,,,,,,,,,,,,,,,,,,,,,,,,,,,,,,2034.3686,2092.8699,0,3,3,3,1,imgs/elephant.png,imgs/dog.png,imgs/goat.png,imgs/lion.png,imgs/pig.png,,,,,,,,,,,,,,,,,,,,,,,,
,,6604b3ecc51a5f1e73eb122e,66fc99e06b85299257412ea3,2024-10-01_20h56.46.331,mdp,2024.2.1,Win32,59.52380952,66fa4ebf79326e780c390304,,,,,,,,,,,,,,1,seqs/st1seq30.csv,2092.8739,2115.0646,space,21.662,,2115.0733,2115.0733,2115.0756,2130.5262,1,0,right,14.9197,,2130.5284,2130.5301,1,0,,2130.5317,2130.5327,1,0,,1,2130.5327,2130.5328,2130.5339,2132.0264,0,0,0,0,1,0.6,0.4,0.4,0.6,1,0,,,,,,,,,,,,,,,,,,,,,,,,,,,,,,,,,,,,
,,6604b3ecc51a5f1e73eb122e,66fc99e06b85299257412ea3,2024-10-01_20h56.46.331,mdp,2024.2.1,Win32,59.52380952,66fa4ebf79326e780c390304,,,,,,,,,,,,,,,,,,,,,2132.0274,2132.0275,2132.0298,2137.3578,1,1,right,4.7997,,2137.3607,2137.3624,1,1,,2137.364,2137.365,1,0,,0,2137.3652,2137.3652,2137.3664,2138.8579,0,1,1,1,1,0.6,0.4,0.4,0.6,1,0,,,,,,,,,,,,,,,,,,,,,,,,,,,,,,,,,,,,
,,6604b3ecc51a5f1e73eb122e,66fc99e06b85299257412ea3,2024-10-01_20h56.46.331,mdp,2024.2.1,Win32,59.52380952,66fa4ebf79326e780c390304,,,,,,,,,,,,,,,,,,,,,2138.8588,2138.8588,2138.8613,2140.5241,1,0,right,1.134,,2140.5265,2140.5282,1,0,,2140.53,2140.5316,1,0,,1,2140.5316,2140.5317,2140.5331,2142.0237,0,2,2,2,1,0.8,0.2,0.6,0.4,1,0,,,,,,,,,,,,,,,,,,,,,,,,,,,,,,,,,,,,
,,6604b3ecc51a5f1e73eb122e,66fc99e06b85299257412ea3,2024-10-01_20h56.46.331,mdp,2024.2.1,Win32,59.52380952,66fa4ebf79326e780c390304,,,,,,,,,,,,,,,,,,,,,2142.0246,2142.0246,2142.0272,2145.3227,1,0,right,2.7668,,2145.3249,2145.3265,1,0,,2145.3283,2145.3297,1,0,,1,2145.3298,2145.3298,2145.3311,2146.8221,0,3,3,3,1,0.8,0.2,0.6,0.4,1,0,,,,,,,,,,,,,,,,,,,,,,,,,,,,,,,,,,,,
,,6604b3ecc51a5f1e73eb122e,66fc99e06b85299257412ea3,2024-10-01_20h56.46.331,mdp,2024.2.1,Win32,59.52380952,66fa4ebf79326e780c390304,,,,,,,,,,,,,,,,,,,,,2146.8233,2146.8233,2146.8255,2148.4381,1,1,right,1.0907,,2148.4411,2148.4426,1,0,,2148.4442,2148.4454,1,0,,0,2148.4454,2148.4454,2148.4467,2149.9381,0,4,4,4,1,0.8,0.2,0.6,0.4,1,0,,,,,,,,,,,,,,,,,,,,,,,,,,,,,,,,,,,,
,,6604b3ecc51a5f1e73eb122e,66fc99e06b85299257412ea3,2024-10-01_20h56.46.331,mdp,2024.2.1,Win32,59.52380952,66fa4ebf79326e780c390304,,,,,,,,,,,,,,,,,,,,,2149.9391,2149.9391,2149.9421,2151.4548,1,0,right,0.9839,,2151.4575,2151.4594,1,0,,2151.4611,2151.4624,1,0,,1,2151.4625,2151.4625,2151.4639,2152.954,0,5,5,5,1,0.8,0.2,0.6,0.4,1,0,,,,,,,,,,,,,,,,,,,,,,,,,,,,,,,,,,,,
,,6604b3ecc51a5f1e73eb122e,66fc99e06b85299257412ea3,2024-10-01_20h56.46.331,mdp,2024.2.1,Win32,59.52380952,66fa4ebf79326e780c390304,,,,,,,,,,,,,,,,,,,,,2152.9549,2152.955,2152.9577,2154.137,1,0,right,0.6508,,2154.14,2154.1418,1,1,,2154.1437,2154.1449,1,1,,1,2154.145,2154.145,2154.1462,2155.6366,0,6,6,6,1,0.8,0.2,0.6,0.4,1,0,,,,,,,,,,,,,,,,,,,,,,,,,,,,,,,,,,,,
,,6604b3ecc51a5f1e73eb122e,66fc99e06b85299257412ea3,2024-10-01_20h56.46.331,mdp,2024.2.1,Win32,59.52380952,66fa4ebf79326e780c390304,,,,,,,,,,,,,,,,,,,,,2155.6375,2155.6375,2155.6406,2157.2527,1,0,right,1.0924,,2157.2554,2157.2572,1,0,,2157.2591,2157.2606,1,0,,1,2157.2607,2157.2607,2157.2623,2158.7527,0,7,7,7,1,0.8,0.2,0.6,0.4,1,0,,,,,,,,,,,,,,,,,,,,,,,,,,,,,,,,,,,,
,,6604b3ecc51a5f1e73eb122e,66fc99e06b85299257412ea3,2024-10-01_20h56.46.331,mdp,2024.2.1,Win32,59.52380952,66fa4ebf79326e780c390304,,,,,,,,,,,,,,,,,,,,,2158.754,2158.7541,2158.7568,2162.3349,1,1,right,3.0575,,2162.338,2162.3398,1,1,,2162.3416,2162.3428,1,1,,0,2162.3429,2162.343,2162.3444,2163.8346,0,8,8,8,1,0.8,0.2,0.6,0.4,1,0,,,,,,,,,,,,,,,,,,,,,,,,,,,,,,,,,,,,
,,6604b3ecc51a5f1e73eb122e,66fc99e06b85299257412ea3,2024-10-01_20h56.46.331,mdp,2024.2.1,Win32,59.52380952,66fa4ebf79326e780c390304,,,,,,,,,,,,,,,,,,,,,2163.8356,2163.8356,2163.838,2170.8661,1,1,right,6.5054,,2170.8686,2170.8703,1,0,,2170.8722,2170.8733,1,1,,0,2170.8734,2170.8734,2170.8747,2172.3654,0,9,9,9,1,0.8,0.2,0.6,0.4,1,0,,,,,,,,,,,,,,,,,,,,,,,,,,,,,,,,,,,,
,,6604b3ecc51a5f1e73eb122e,66fc99e06b85299257412ea3,2024-10-01_20h56.46.331,mdp,2024.2.1,Win32,59.52380952,66fa4ebf79326e780c390304,,,,,,,,,,,,,,,,,,,,,2172.3665,2172.3665,2172.3692,2174.1154,1,0,right,1.2182,,2174.1178,2174.1191,1,1,,2174.1208,2174.1219,1,0,,1,2174.122,2174.122,2174.1234,2175.6147,0,10,10,10,1,0.8,0.2,0.6,0.4,1,0,,,,,,,,,,,,,,,,,,,,,,,,,,,,,,,,,,,,
,,6604b3ecc51a5f1e73eb122e,66fc99e06b85299257412ea3,2024-10-01_20h56.46.331,mdp,2024.2.1,Win32,59.52380952,66fa4ebf79326e780c390304,,,,,,,,,,,,,,,,,,,,,2175.6155,2175.6156,2175.6178,2176.5479,1,0,right,0.4062,,2176.5504,2176.5528,1,1,,2176.5547,2176.5561,1,1,,1,2176.5562,2176.5562,2176.5576,2178.0476,0,11,11,11,1,0.8,0.2,0.6,0.4,1,0,,,,,,,,,,,,,,,,,,,,,,,,,,,,,,,,,,,,
,,6604b3ecc51a5f1e73eb122e,66fc99e06b85299257412ea3,2024-10-01_20h56.46.331,mdp,2024.2.1,Win32,59.52380952,66fa4ebf79326e780c390304,,,,,,,,,,,,,,,,,,,,,2178.0486,2178.0487,2178.0513,2179.9471,1,0,right,1.3755,,2179.9495,2179.9515,1,0,,2179.9539,2179.9553,1,1,,1,2179.9553,2179.9554,2179.9569,2181.4461,0,12,12,12,1,0.8,0.2,0.6,0.4,1,0,,,,,,,,,,,,,,,,,,,,,,,,,,,,,,,,,,,,
,,6604b3ecc51a5f1e73eb122e,66fc99e06b85299257412ea3,2024-10-01_20h56.46.331,mdp,2024.2.1,Win32,59.52380952,66fa4ebf79326e780c390304,,,,,,,,,,,,,,,,,,,,,2181.4471,2181.4471,2181.4494,2182.9627,1,0,right,0.9848,,2182.9654,2182.9674,1,1,,2182.9693,2182.9706,1,0,,1,2182.9707,2182.9708,2182.9721,2184.4625,0,13,13,13,1,0.8,0.2,0.6,0.4,1,0,,,,,,,,,,,,,,,,,,,,,,,,,,,,,,,,,,,,
,,6604b3ecc51a5f1e73eb122e,66fc99e06b85299257412ea3,2024-10-01_20h56.46.331,mdp,2024.2.1,Win32,59.52380952,66fa4ebf79326e780c390304,,,,,,,,,,,,,,,,,,,,,2184.4634,2184.4634,2184.4666,2185.7621,1,1,right,0.7764,,2185.7648,2185.7665,1,1,,2185.7684,2185.7699,1,1,,0,2185.7699,2185.77,2185.7714,2187.2621,0,14,14,14,1,0.8,0.2,0.6,0.4,1,0,,,,,,,,,,,,,,,,,,,,,,,,,,,,,,,,,,,,
,,6604b3ecc51a5f1e73eb122e,66fc99e06b85299257412ea3,2024-10-01_20h56.46.331,mdp,2024.2.1,Win32,59.52380952,66fa4ebf79326e780c390304,,,,,,,,,,,,,,,,,,,,,2187.263,2187.263,2187.2658,2189.0941,1,1,right,1.3,,2189.0972,2189.099,1,1,,2189.1007,2189.1023,1,0,,0,2189.1024,2189.1024,2189.1038,2190.5942,0,15,15,15,1,0.8,0.2,0.6,0.4,1,0,,,,,,,,,,,,,,,,,,,,,,,,,,,,,,,,,,,,
,,6604b3ecc51a5f1e73eb122e,66fc99e06b85299257412ea3,2024-10-01_20h56.46.331,mdp,2024.2.1,Win32,59.52380952,66fa4ebf79326e780c390304,,,,,,,,,,,,,,,,,,,,,2190.5952,2190.5952,2190.5981,2194.4094,1,1,right,3.2908,,2194.4119,2194.4136,1,1,,2194.4156,2194.4171,1,0,,0,2194.4171,2194.4171,2194.4185,2195.9094,0,16,16,16,1,0.4,0.6,0.8,0.2,1,0,,,,,,,,,,,,,,,,,,,,,,,,,,,,,,,,,,,,
,,6604b3ecc51a5f1e73eb122e,66fc99e06b85299257412ea3,2024-10-01_20h56.46.331,mdp,2024.2.1,Win32,59.52380952,66fa4ebf79326e780c390304,,,,,,,,,,,,,,,,,,,,,2195.9105,2195.9105,2195.9127,2199.1256,1,0,right,2.6864,,2199.1282,2199.1298,1,0,,2199.1311,2199.1321,1,0,,1,2199.1322,2199.1322,2199.1333,2200.6249,0,17,17,17,1,0.4,0.6,0.8,0.2,1,0,,,,,,,,,,,,,,,,,,,,,,,,,,,,,,,,,,,,
,,6604b3ecc51a5f1e73eb122e,66fc99e06b85299257412ea3,2024-10-01_20h56.46.331,mdp,2024.2.1,Win32,59.52380952,66fa4ebf79326e780c390304,,,,,,,,,,,,,,,,,,,,,2200.6262,2200.6262,2200.6292,2201.9247,1,1,right,0.7687,,2201.9271,2201.9287,1,1,,2201.9303,2201.9315,1,0,,0,2201.9316,2201.9316,2201.9329,2203.4244,0,18,18,18,1,0.4,0.6,0.8,0.2,1,0,,,,,,,,,,,,,,,,,,,,,,,,,,,,,,,,,,,,
,,6604b3ecc51a5f1e73eb122e,66fc99e06b85299257412ea3,2024-10-01_20h56.46.331,mdp,2024.2.1,Win32,59.52380952,66fa4ebf79326e780c390304,,,,,,,,,,,,,,,,,,,,,2203.4256,2203.4256,2203.4283,2204.4736,1,0,right,0.5183,,2204.4759,2204.4773,1,0,,2204.4792,2204.4805,1,1,,1,2204.4806,2204.4806,2204.4819,2205.9737,0,19,19,19,1,0.4,0.6,0.8,0.2,1,0,,,,,,,,,,,,,,,,,,,,,,,,,,,,,,,,,,,,
,,6604b3ecc51a5f1e73eb122e,66fc99e06b85299257412ea3,2024-10-01_20h56.46.331,mdp,2024.2.1,Win32,59.52380952,66fa4ebf79326e780c390304,,,,,,,,,,,,,,,,,,,,,2205.9745,2205.9746,2205.977,2207.3061,1,1,right,0.8018,,2207.3091,2207.3108,1,1,,2207.3125,2207.3137,1,0,,0,2207.3138,2207.3138,2207.3153,2208.806,0,20,20,20,1,0.4,0.6,0.8,0.2,1,0,,,,,,,,,,,,,,,,,,,,,,,,,,,,,,,,,,,,
,,6604b3ecc51a5f1e73eb122e,66fc99e06b85299257412ea3,2024-10-01_20h56.46.331,mdp,2024.2.1,Win32,59.52380952,66fa4ebf79326e780c390304,,,,,,,,,,,,,,,,,,,,,2208.8071,2208.8071,2208.8101,2210.0054,1,0,right,0.6745,,2210.0079,2210.0094,1,0,,2210.0111,2210.0123,1,0,,1,2210.0124,2210.0125,2210.0136,2211.5057,0,21,21,21,1,0.4,0.6,0.8,0.2,1,0,,,,,,,,,,,,,,,,,,,,,,,,,,,,,,,,,,,,
,,6604b3ecc51a5f1e73eb122e,66fc99e06b85299257412ea3,2024-10-01_20h56.46.331,mdp,2024.2.1,Win32,59.52380952,66fa4ebf79326e780c390304,,,,,,,,,,,,,,,,,,,,,2211.5069,2211.5069,2211.5096,2212.6884,1,0,right,0.6516,,2212.6915,2212.6939,1,0,,2212.6957,2212.6969,1,0,,1,2212.697,2212.697,2212.6984,2214.1876,0,22,22,22,1,0.4,0.6,0.8,0.2,1,0,,,,,,,,,,,,,,,,,,,,,,,,,,,,,,,,,,,,
,,6604b3ecc51a5f1e73eb122e,66fc99e06b85299257412ea3,2024-10-01_20h56.46.331,mdp,2024.2.1,Win32,59.52380952,66fa4ebf79326e780c390304,,,,,,,,,,,,,,,,,,,,,2214.1888,2214.1889,2214.1912,2215.0211,1,1,right,0.3078,,2215.0239,2215.0257,1,0,,2215.0278,2215.029,1,0,,0,2215.0291,2215.0291,2215.0304,2216.5209,0,23,23,23,1,0.4,0.6,0.8,0.2,1,0,,,,,,,,,,,,,,,,,,,,,,,,,,,,,,,,,,,,
,,6604b3ecc51a5f1e73eb122e,66fc99e06b85299257412ea3,2024-10-01_20h56.46.331,mdp,2024.2.1,Win32,59.52380952,66fa4ebf79326e780c390304,,,,,,,,,,,,,,,,,,,,,2216.5222,2216.5222,2216.5255,2218.0366,1,1,right,0.9846,,2218.0391,2218.0411,1,1,,2218.043,2218.0443,1,0,,0,2218.0443,2218.0443,2218.0457,2219.5366,0,24,24,24,1,0.8,0.2,0.4,0.6,1,0,,,,,,,,,,,,,,,,,,,,,,,,,,,,,,,,,,,,
,,6604b3ecc51a5f1e73eb122e,66fc99e06b85299257412ea3,2024-10-01_20h56.46.331,mdp,2024.2.1,Win32,59.52380952,66fa4ebf79326e780c390304,,,,,,,,,,,,,,,,,,,,,2219.5376,2219.5376,2219.54,2220.6537,1,0,right,0.5937,,2220.656,2220.6575,1,0,,2220.6594,2220.6607,1,1,,1,2220.6608,2220.6608,2220.6621,2222.1523,0,25,25,25,1,0.8,0.2,0.4,0.6,1,0,,,,,,,,,,,,,,,,,,,,,,,,,,,,,,,,,,,,
,,6604b3ecc51a5f1e73eb122e,66fc99e06b85299257412ea3,2024-10-01_20h56.46.331,mdp,2024.2.1,Win32,59.52380952,66fa4ebf79326e780c390304,,,,,,,,,,,,,,,,,,,,,2222.1536,2222.1536,2222.1566,2223.8357,1,1,right,1.1523,,2223.8386,2223.8409,1,1,,2223.843,2223.8442,1,0,,0,2223.8443,2223.8443,2223.8456,2225.3354,0,26,26,26,1,0.8,0.2,0.4,0.6,1,0,,,,,,,,,,,,,,,,,,,,,,,,,,,,,,,,,,,,
,,6604b3ecc51a5f1e73eb122e,66fc99e06b85299257412ea3,2024-10-01_20h56.46.331,mdp,2024.2.1,Win32,59.52380952,66fa4ebf79326e780c390304,,,,,,,,,,,,,,,,,,,,,2225.3362,2225.3363,2225.34,2227.6677,1,1,right,1.8045,,2227.6703,2227.6721,1,0,,2227.6739,2227.6752,1,0,,0,2227.6753,2227.6753,2227.6767,2229.1673,0,27,27,27,1,0.8,0.2,0.4,0.6,1,0,,,,,,,,,,,,,,,,,,,,,,,,,,,,,,,,,,,,
,,6604b3ecc51a5f1e73eb122e,66fc99e06b85299257412ea3,2024-10-01_20h56.46.331,mdp,2024.2.1,Win32,59.52380952,66fa4ebf79326e780c390304,,,,,,,,,,,,,,,,,,,,,2229.1683,2229.1683,2229.1713,2230.8164,1,1,right,1.1177,,2230.8194,2230.821,1,1,,2230.8227,2230.8238,1,1,,0,2230.8239,2230.8239,2230.8251,2232.3164,0,28,28,28,1,0.8,0.2,0.4,0.6,1,0,,,,,,,,,,,,,,,,,,,,,,,,,,,,,,,,,,,,
,,6604b3ecc51a5f1e73eb122e,66fc99e06b85299257412ea3,2024-10-01_20h56.46.331,mdp,2024.2.1,Win32,59.52380952,66fa4ebf79326e780c390304,,,,,,,,,,,,,,,,,,,,,2232.3172,2232.3172,2232.3194,2235.749,1,0,right,2.9042,,2235.7515,2235.7532,1,0,,2235.7551,2235.7563,1,0,,1,2235.7564,2235.7564,2235.7576,2237.2486,0,29,29,29,1,0.8,0.2,0.4,0.6,1,0,,,,,,,,,,,,,,,,,,,,,,,,,,,,,,,,,,,,
,,6604b3ecc51a5f1e73eb122e,66fc99e06b85299257412ea3,2024-10-01_20h56.46.331,mdp,2024.2.1,Win32,59.52380952,66fa4ebf79326e780c390304,,,,,,,,,,,,,,,,,,,,,2237.2496,2237.2496,2237.2531,2239.1149,1,1,right,1.3342,,2239.1179,2239.1195,1,0,,2239.1213,2239.1226,1,1,,0,2239.1227,2239.1227,2239.124,2240.6166,0,30,30,30,1,0.8,0.2,0.4,0.6,1,0,,,,,,,,,,,,,,,,,,,,,,,,,,,,,,,,,,,,
,,6604b3ecc51a5f1e73eb122e,66fc99e06b85299257412ea3,2024-10-01_20h56.46.331,mdp,2024.2.1,Win32,59.52380952,66fa4ebf79326e780c390304,,,,,,,,,,,,,,,,,,,,,2240.6173,2240.6174,2240.6197,2242.5635,1,0,right,1.4174,,2242.5662,2242.5681,1,1,,2242.57,2242.5713,1,0,,1,2242.5715,2242.5715,2242.5729,2244.0632,0,31,31,31,1,0.8,0.2,0.4,0.6,1,0,,,,,,,,,,,,,,,,,,,,,,,,,,,,,,,,,,,,
,,6604b3ecc51a5f1e73eb122e,66fc99e06b85299257412ea3,2024-10-01_20h56.46.331,mdp,2024.2.1,Win32,59.52380952,66fa4ebf79326e780c390304,,,,,,,,,,,,,,,,,,,,,2244.0642,2244.0643,2244.0674,2246.7962,1,1,right,2.2015,,2246.7989,2246.8017,1,1,,2246.8035,2246.8051,1,1,,0,2246.8052,2246.8052,2246.8067,2248.2955,0,32,32,32,1,0.8,0.2,0.4,0.6,1,0,,,,,,,,,,,,,,,,,,,,,,,,,,,,,,,,,,,,
,,6604b3ecc51a5f1e73eb122e,66fc99e06b85299257412ea3,2024-10-01_20h56.46.331,mdp,2024.2.1,Win32,59.52380952,66fa4ebf79326e780c390304,,,,,,,,,,,,,,,,,,,,,2248.2965,2248.2965,2248.2987,2249.5785,1,1,right,0.7559,,2249.5851,2249.5868,1,0,,2249.5888,2249.5904,1,1,,0,2249.5905,2249.5905,2249.5924,2251.095,0,33,33,33,1,0.8,0.2,0.4,0.6,1,0,,,,,,,,,,,,,,,,,,,,,,,,,,,,,,,,,,,,
,,6604b3ecc51a5f1e73eb122e,66fc99e06b85299257412ea3,2024-10-01_20h56.46.331,mdp,2024.2.1,Win32,59.52380952,66fa4ebf79326e780c390304,,,,,,,,,,,,,,,,,,,,,2251.0959,2251.0959,2251.099,2251.7777,1,1,right,0.1505,,2251.7802,2251.7818,1,0,,2251.7835,2251.7847,1,0,,0,2251.7848,2251.7848,2251.786,2253.2776,0,34,34,34,1,0.8,0.2,0.4,0.6,1,0,,,,,,,,,,,,,,,,,,,,,,,,,,,,,,,,,,,,
,,6604b3ecc51a5f1e73eb122e,66fc99e06b85299257412ea3,2024-10-01_20h56.46.331,mdp,2024.2.1,Win32,59.52380952,66fa4ebf79326e780c390304,,,,,,,,,,,,,,,,,,,,,2253.2785,2253.2786,2253.2813,2254.3441,1,1,right,0.5404,,2254.3464,2254.3479,1,0,,2254.3496,2254.3507,1,1,,0,2254.3508,2254.3508,2254.352,2255.8438,0,35,35,35,1,0.8,0.2,0.4,0.6,1,0,,,,,,,,,,,,,,,,,,,,,,,,,,,,,,,,,,,,
,,6604b3ecc51a5f1e73eb122e,66fc99e06b85299257412ea3,2024-10-01_20h56.46.331,mdp,2024.2.1,Win32,59.52380952,66fa4ebf79326e780c390304,,,,,,,,,,,,,,,,,,,,,2255.8447,2255.8448,2255.8476,2257.4437,1,1,right,1.0765,,2257.4465,2257.4483,1,1,,2257.4501,2257.4513,1,1,,0,2257.4514,2257.4514,2257.4528,2258.9427,0,36,36,36,1,0.8,0.2,0.4,0.6,1,0,,,,,,,,,,,,,,,,,,,,,,,,,,,,,,,,,,,,
,,6604b3ecc51a5f1e73eb122e,66fc99e06b85299257412ea3,2024-10-01_20h56.46.331,mdp,2024.2.1,Win32,59.52380952,66fa4ebf79326e780c390304,,,,,,,,,,,,,,,,,,,,,2258.9435,2258.9436,2258.9457,2260.3256,1,1,right,0.8531,,2260.3279,2260.3296,1,1,,2260.3314,2260.3325,1,0,,0,2260.3326,2260.3327,2260.3341,2261.8256,0,37,37,37,1,0.8,0.2,0.4,0.6,1,0,,,,,,,,,,,,,,,,,,,,,,,,,,,,,,,,,,,,
