init_exp.started,init_exp.stopped,participant,session,date,expName,psychopyVersion,OS,frameRate,study_id,disp_instruction.started,disp_instruction.stopped,instruction.thisRepN,instruction.thisTrialN,instruction.thisN,instruction.thisIndex,instruction.ran,instimg_path,consent.started,consent.stopped,key_resp_3.keys,key_resp_3.rt,key_resp_3.duration,n_steps,sequence_path,init_block.started,init_block.stopped,key_resp.keys,key_resp.rt,key_resp.duration,init_trials.started,init_trials.stopped,step0.started,step0.stopped,act0,s1,res0.keys,res0.rt,res0.duration,step1.started,step1.stopped,act1,s2,res1.keys,step2.started,step2.stopped,act2,s3,res2.keys,rew,reward_comp.started,reward_comp.stopped,reward_disp.started,reward_disp.stopped,trials.thisRepN,trials.thisTrialN,trials.thisN,trials.thisIndex,trials.ran,s00a0s10,s00a0s11,s00a1s10,s00a1s11,rew10,rew11,break_block.started,break_block.stopped,block.thisRepN,block.thisTrialN,block.thisN,block.thisIndex,block.ran,s00path,s10path,s11path,s20path,s21path,res1.rt,res1.duration,s10a0s20,s10a0s21,s10a1s20,s10a1s21,s11a0s20,s11a0s21,s11a1s20,s11a1s21,rew20,rew21,res2.rt,res2.duration,s20a0s30,s20a0s31,s20a1s30,s20a1s31,s21a0s30,s21a0s31,s21a1s30,s21a1s31,rew30,rew31
0.0002,0.0012,66072a4c6558917f3f9d5f7f,66fc98231b5408c242b70e94,2024-10-01_18h48.27.758,mdp,2024.2.1,Win32,59.52380952,66fa4ebf79326e780c390304,,,,,,,,,,,,,,,,,,,,,,,,,,,,,,,,,,,,,,,,,,,,,,,,,,,,,,,,,,,,,,,,,,,,,,,,,,,,,,,,,,,,,,,,,,,
,,66072a4c6558917f3f9d5f7f,66fc98231b5408c242b70e94,2024-10-01_18h48.27.758,mdp,2024.2.1,Win32,59.52380952,66fa4ebf79326e780c390304,0.0044,24.745,0,0,0,0,1,rlnn_exp/rlnn_exp.001.png,,,,,,,,,,,,,,,,,,,,,,,,,,,,,,,,,,,,,,,,,,,,,,,,,,,,,,,,,,,,,,,,,,,,,,,,,,,,,,,,,,,
,,66072a4c6558917f3f9d5f7f,66fc98231b5408c242b70e94,2024-10-01_18h48.27.758,mdp,2024.2.1,Win32,59.52380952,66fa4ebf79326e780c390304,24.7454,39.3062,0,1,1,1,1,rlnn_exp/rlnn_exp.002.png,,,,,,,,,,,,,,,,,,,,,,,,,,,,,,,,,,,,,,,,,,,,,,,,,,,,,,,,,,,,,,,,,,,,,,,,,,,,,,,,,,,
,,66072a4c6558917f3f9d5f7f,66fc98231b5408c242b70e94,2024-10-01_18h48.27.758,mdp,2024.2.1,Win32,59.52380952,66fa4ebf79326e780c390304,39.3141,61.2902,0,2,2,2,1,rlnn_exp/rlnn_exp.003.png,,,,,,,,,,,,,,,,,,,,,,,,,,,,,,,,,,,,,,,,,,,,,,,,,,,,,,,,,,,,,,,,,,,,,,,,,,,,,,,,,,,
,,66072a4c6558917f3f9d5f7f,66fc98231b5408c242b70e94,2024-10-01_18h48.27.758,mdp,2024.2.1,Win32,59.52380952,66fa4ebf79326e780c390304,61.2915,81.0743,0,3,3,3,1,rlnn_exp/rlnn_exp.004.png,,,,,,,,,,,,,,,,,,,,,,,,,,,,,,,,,,,,,,,,,,,,,,,,,,,,,,,,,,,,,,,,,,,,,,,,,,,,,,,,,,,
,,66072a4c6558917f3f9d5f7f,66fc98231b5408c242b70e94,2024-10-01_18h48.27.758,mdp,2024.2.1,Win32,59.52380952,66fa4ebf79326e780c390304,,,,,,,,,81.0988,101.6581,y,10.5128,,,,,,,,,,,,,,,,,,,,,,,,,,,,,,,,,,,,,,,,,,,,,,,,,,,,,,,,,,,,,,,,,,,,,,,,,,,,,,,
,,66072a4c6558917f3f9d5f7f,66fc98231b5408c242b70e94,2024-10-01_18h48.27.758,mdp,2024.2.1,Win32,59.52380952,66fa4ebf79326e780c390304,,,,,,,,,,,,,,1,seqs/st1seq17.csv,101.6777,103.5259,space,1.3168,,103.53,103.5303,103.5307,106.0111,1,0,right,1.9387,,106.0204,106.0217,,0,,106.022,106.023,,0,,1,106.0231,106.0232,106.0234,107.5114,0,0,0,0,1,0.2,0.8,0.8,0.2,1,0,,,,,,,,,,,,,,,,,,,,,,,,,,,,,,,,,,,,
,,66072a4c6558917f3f9d5f7f,66fc98231b5408c242b70e94,2024-10-01_18h48.27.758,mdp,2024.2.1,Win32,59.52380952,66fa4ebf79326e780c390304,,,,,,,,,,,,,,,,,,,,,107.512,107.512,107.5133,109.046,1,1,right,1.0076,,109.0477,109.0483,,0,,109.0487,109.0491,,1,,0,109.0491,109.0491,109.0494,110.5483,0,1,1,1,1,0.8,0.2,0.2,0.8,1,0,,,,,,,,,,,,,,,,,,,,,,,,,,,,,,,,,,,,
,,66072a4c6558917f3f9d5f7f,66fc98231b5408c242b70e94,2024-10-01_18h48.27.758,mdp,2024.2.1,Win32,59.52380952,66fa4ebf79326e780c390304,,,,,,,,,,,,,,,,,,,,,110.5488,110.5488,110.55,111.9375,1,1,right,0.8682,,111.9382,111.9386,,1,,111.9391,111.9394,,1,,0,111.9394,111.9394,111.9397,113.4331,0,2,2,2,1,0.8,0.2,0.2,0.8,1,0,,,,,,,,,,,,,,,,,,,,,,,,,,,,,,,,,,,,
,,66072a4c6558917f3f9d5f7f,66fc98231b5408c242b70e94,2024-10-01_18h48.27.758,mdp,2024.2.1,Win32,59.52380952,66fa4ebf79326e780c390304,,,,,,,,,,,,,,,,,,,,,113.4334,113.4334,113.4352,114.3889,1,0,right,0.4335,,114.3895,114.39,,1,,114.3904,114.3907,,1,,1,114.3907,114.3907,114.3911,115.8894,0,3,3,3,1,0.8,0.2,0.2,0.8,1,0,,,,,,,,,,,,,,,,,,,,,,,,,,,,,,,,,,,,
,,66072a4c6558917f3f9d5f7f,66fc98231b5408c242b70e94,2024-10-01_18h48.27.758,mdp,2024.2.1,Win32,59.52380952,66fa4ebf79326e780c390304,,,,,,,,,,,,,,,,,,,,,115.8897,115.8897,115.891,116.8527,1,1,right,0.4416,,116.8542,116.8548,,0,,116.8555,116.856,,0,,0,116.8561,116.8561,116.8567,118.3542,0,4,4,4,1,0.8,0.2,0.2,0.8,1,0,,,,,,,,,,,,,,,,,,,,,,,,,,,,,,,,,,,,
,,66072a4c6558917f3f9d5f7f,66fc98231b5408c242b70e94,2024-10-01_18h48.27.758,mdp,2024.2.1,Win32,59.52380952,66fa4ebf79326e780c390304,,,,,,,,,,,,,,,,,,,,,118.3547,118.3548,118.3563,119.4387,1,1,right,0.5478,,119.4398,119.4403,,1,,119.4408,119.441,,1,,0,119.4411,119.4411,119.4414,120.9396,0,5,5,5,1,0.8,0.2,0.2,0.8,1,0,,,,,,,,,,,,,,,,,,,,,,,,,,,,,,,,,,,,
,,66072a4c6558917f3f9d5f7f,66fc98231b5408c242b70e94,2024-10-01_18h48.27.758,mdp,2024.2.1,Win32,59.52380952,66fa4ebf79326e780c390304,,,,,,,,,,,,,,,,,,,,,120.9402,120.9402,120.9417,121.8109,1,1,right,0.3498,,121.8116,121.8121,,0,,121.8125,121.8128,,1,,0,121.8128,121.8128,121.8132,123.3083,0,6,6,6,1,0.8,0.2,0.2,0.8,1,0,,,,,,,,,,,,,,,,,,,,,,,,,,,,,,,,,,,,
,,66072a4c6558917f3f9d5f7f,66fc98231b5408c242b70e94,2024-10-01_18h48.27.758,mdp,2024.2.1,Win32,59.52380952,66fa4ebf79326e780c390304,,,,,,,,,,,,,,,,,,,,,123.3088,123.3088,123.3103,124.6253,1,1,right,0.7898,,124.627,124.6277,,1,,124.6285,124.629,,1,,0,124.6291,124.6291,124.6297,126.1271,0,7,7,7,1,0.8,0.2,0.2,0.8,1,0,,,,,,,,,,,,,,,,,,,,,,,,,,,,,,,,,,,,
,,66072a4c6558917f3f9d5f7f,66fc98231b5408c242b70e94,2024-10-01_18h48.27.758,mdp,2024.2.1,Win32,59.52380952,66fa4ebf79326e780c390304,,,,,,,,,,,,,,,,,,,,,126.1276,126.1277,126.1287,126.9281,1,0,right,0.2689,,126.9295,126.9303,,1,,126.9314,126.932,,1,,1,126.932,126.9321,126.9328,128.4285,0,8,8,8,1,0.4,0.6,0.6,0.4,1,0,,,,,,,,,,,,,,,,,,,,,,,,,,,,,,,,,,,,
,,66072a4c6558917f3f9d5f7f,66fc98231b5408c242b70e94,2024-10-01_18h48.27.758,mdp,2024.2.1,Win32,59.52380952,66fa4ebf79326e780c390304,,,,,,,,,,,,,,,,,,,,,128.4292,128.4292,128.4302,129.1135,0,1,left,0.1533,,129.1153,129.1161,,1,,129.1168,129.1173,,0,,0,129.1174,129.1174,129.118,130.6139,0,9,9,9,1,0.4,0.6,0.6,0.4,1,0,,,,,,,,,,,,,,,,,,,,,,,,,,,,,,,,,,,,
,,66072a4c6558917f3f9d5f7f,66fc98231b5408c242b70e94,2024-10-01_18h48.27.758,mdp,2024.2.1,Win32,59.52380952,66fa4ebf79326e780c390304,,,,,,,,,,,,,,,,,,,,,130.6142,130.6143,130.6155,131.6861,0,1,left,0.5672,,131.6867,131.6872,,1,,131.6877,131.6881,,1,,0,131.6882,131.6882,131.6884,133.1823,0,10,10,10,1,0.4,0.6,0.6,0.4,1,0,,,,,,,,,,,,,,,,,,,,,,,,,,,,,,,,,,,,
,,66072a4c6558917f3f9d5f7f,66fc98231b5408c242b70e94,2024-10-01_18h48.27.758,mdp,2024.2.1,Win32,59.52380952,66fa4ebf79326e780c390304,,,,,,,,,,,,,,,,,,,,,133.1828,133.1829,133.184,133.7494,1,1,right,0.0347,,133.7513,133.7519,,0,,133.7527,133.7533,,1,,0,133.7533,133.7533,133.754,135.2514,0,11,11,11,1,0.6,0.4,0.4,0.6,1,0,,,,,,,,,,,,,,,,,,,,,,,,,,,,,,,,,,,,
,,66072a4c6558917f3f9d5f7f,66fc98231b5408c242b70e94,2024-10-01_18h48.27.758,mdp,2024.2.1,Win32,59.52380952,66fa4ebf79326e780c390304,,,,,,,,,,,,,,,,,,,,,135.2519,135.2519,135.2529,135.8855,0,1,left,0.0977,,135.8866,135.8873,,1,,135.8881,135.8885,,0,,0,135.8886,135.8886,135.889,137.3866,0,12,12,12,1,0.6,0.4,0.4,0.6,1,0,,,,,,,,,,,,,,,,,,,,,,,,,,,,,,,,,,,,
,,66072a4c6558917f3f9d5f7f,66fc98231b5408c242b70e94,2024-10-01_18h48.27.758,mdp,2024.2.1,Win32,59.52380952,66fa4ebf79326e780c390304,,,,,,,,,,,,,,,,,,,,,137.387,137.387,137.3881,138.3367,0,1,left,0.4013,,138.3384,138.3392,,0,,138.34,138.3405,,0,,0,138.3405,138.3405,138.341,139.8386,0,13,13,13,1,0.6,0.4,0.4,0.6,1,0,,,,,,,,,,,,,,,,,,,,,,,,,,,,,,,,,,,,
,,66072a4c6558917f3f9d5f7f,66fc98231b5408c242b70e94,2024-10-01_18h48.27.758,mdp,2024.2.1,Win32,59.52380952,66fa4ebf79326e780c390304,,,,,,,,,,,,,,,,,,,,,139.8391,139.8391,139.8401,141.4066,1,1,right,1.0594,,141.4077,141.4082,,1,,141.4086,141.4089,,0,,0,141.4089,141.4089,141.4092,142.9077,0,14,14,14,1,0.6,0.4,0.4,0.6,1,0,,,,,,,,,,,,,,,,,,,,,,,,,,,,,,,,,,,,
,,66072a4c6558917f3f9d5f7f,66fc98231b5408c242b70e94,2024-10-01_18h48.27.758,mdp,2024.2.1,Win32,59.52380952,66fa4ebf79326e780c390304,,,,,,,,,,,,,,,,,,,,,142.9081,142.9081,142.9089,144.0082,1,1,right,0.5704,,144.01,144.0107,,1,,144.0115,144.0121,,0,,0,144.0121,144.0122,144.0127,145.5091,0,15,15,15,1,0.6,0.4,0.4,0.6,1,0,,,,,,,,,,,,,,,,,,,,,,,,,,,,,,,,,,,,
,,66072a4c6558917f3f9d5f7f,66fc98231b5408c242b70e94,2024-10-01_18h48.27.758,mdp,2024.2.1,Win32,59.52380952,66fa4ebf79326e780c390304,,,,,,,,,,,,,,,,,,,,,145.5096,145.5096,145.5112,146.1096,1,1,right,0.0937,,146.111,146.1117,,1,,146.1121,146.1124,,1,,0,146.1124,146.1124,146.1126,147.6113,0,16,16,16,1,0.6,0.4,0.4,0.6,1,0,,,,,,,,,,,,,,,,,,,,,,,,,,,,,,,,,,,,
,,66072a4c6558917f3f9d5f7f,66fc98231b5408c242b70e94,2024-10-01_18h48.27.758,mdp,2024.2.1,Win32,59.52380952,66fa4ebf79326e780c390304,,,,,,,,,,,,,,,,,,,,,147.6118,147.6118,147.6128,148.546,0,0,left,0.4278,,148.5475,148.5482,,1,,148.5491,148.5497,,1,,1,148.5498,148.5498,148.5502,150.0472,0,17,17,17,1,0.2,0.8,0.6,0.4,1,0,,,,,,,,,,,,,,,,,,,,,,,,,,,,,,,,,,,,
,,66072a4c6558917f3f9d5f7f,66fc98231b5408c242b70e94,2024-10-01_18h48.27.758,mdp,2024.2.1,Win32,59.52380952,66fa4ebf79326e780c390304,,,,,,,,,,,,,,,,,,,,,150.0477,150.0477,150.0491,150.8467,0,0,left,0.2786,,150.8487,150.8493,,0,,150.85,150.8506,,0,,1,150.8507,150.8507,150.8518,152.3491,0,18,18,18,1,0.2,0.8,0.6,0.4,1,0,,,,,,,,,,,,,,,,,,,,,,,,,,,,,,,,,,,,
,,66072a4c6558917f3f9d5f7f,66fc98231b5408c242b70e94,2024-10-01_18h48.27.758,mdp,2024.2.1,Win32,59.52380952,66fa4ebf79326e780c390304,,,,,,,,,,,,,,,,,,,,,152.35,152.3501,152.3521,152.9174,1,0,right,0.0242,,152.9194,152.921,,0,,152.9227,152.9239,,1,,1,152.924,152.924,152.9256,154.4171,0,19,19,19,1,0.2,0.8,0.6,0.4,1,0,,,,,,,,,,,,,,,,,,,,,,,,,,,,,,,,,,,,
,,66072a4c6558917f3f9d5f7f,66fc98231b5408c242b70e94,2024-10-01_18h48.27.758,mdp,2024.2.1,Win32,59.52380952,66fa4ebf79326e780c390304,,,,,,,,,,,,,,,,,,,,,154.4176,154.4176,154.4184,155.5847,1,1,right,0.6595,,155.586,155.5867,,1,,155.5873,155.5877,,0,,0,155.5877,155.5877,155.5882,157.0858,0,20,20,20,1,0.2,0.8,0.6,0.4,1,0,,,,,,,,,,,,,,,,,,,,,,,,,,,,,,,,,,,,
,,66072a4c6558917f3f9d5f7f,66fc98231b5408c242b70e94,2024-10-01_18h48.27.758,mdp,2024.2.1,Win32,59.52380952,66fa4ebf79326e780c390304,,,,,,,,,,,,,,,,,,,,,157.0862,157.0862,157.0875,157.7201,0,1,left,0.1259,,157.7212,157.7217,,1,,157.7221,157.7225,,1,,0,157.7225,157.7225,157.7229,159.2211,0,21,21,21,1,0.2,0.8,0.6,0.4,1,0,,,,,,,,,,,,,,,,,,,,,,,,,,,,,,,,,,,,
,,66072a4c6558917f3f9d5f7f,66fc98231b5408c242b70e94,2024-10-01_18h48.27.758,mdp,2024.2.1,Win32,59.52380952,66fa4ebf79326e780c390304,,,,,,,,,,,,,,,,,,,,,159.2215,159.2215,159.2222,160.1379,1,1,right,0.3882,,160.1392,160.1398,,0,,160.1403,160.1406,,1,,0,160.1406,160.1406,160.1409,161.6398,0,22,22,22,1,0.2,0.8,0.6,0.4,1,0,,,,,,,,,,,,,,,,,,,,,,,,,,,,,,,,,,,,
,,66072a4c6558917f3f9d5f7f,66fc98231b5408c242b70e94,2024-10-01_18h48.27.758,mdp,2024.2.1,Win32,59.52380952,66fa4ebf79326e780c390304,,,,,,,,,,,,,,,,,,,,,161.6402,161.6402,161.6415,162.3068,0,1,left,0.1376,,162.3081,162.3087,,1,,162.3094,162.3097,,0,,0,162.3097,162.3097,162.3101,163.8083,0,23,23,23,1,0.2,0.8,0.6,0.4,1,0,,,,,,,,,,,,,,,,,,,,,,,,,,,,,,,,,,,,
,,66072a4c6558917f3f9d5f7f,66fc98231b5408c242b70e94,2024-10-01_18h48.27.758,mdp,2024.2.1,Win32,59.52380952,66fa4ebf79326e780c390304,,,,,,,,,,,,,,,,,,,,,163.8088,163.8088,163.8099,164.5755,0,1,left,0.2422,,164.5772,164.5779,,1,,164.5785,164.5789,,1,,0,164.5789,164.5789,164.5794,166.0821,0,24,24,24,1,0.2,0.8,0.6,0.4,1,0,,,,,,,,,,,,,,,,,,,,,,,,,,,,,,,,,,,,
,,66072a4c6558917f3f9d5f7f,66fc98231b5408c242b70e94,2024-10-01_18h48.27.758,mdp,2024.2.1,Win32,59.52380952,66fa4ebf79326e780c390304,,,,,,,,,,,,,,,,,,,,,166.0824,166.0824,166.0831,166.7102,1,1,right,0.1004,,166.7114,166.7121,,1,,166.7136,166.7141,,1,,0,166.7141,166.7141,166.7144,168.2117,0,25,25,25,1,0.2,0.8,0.6,0.4,1,0,,,,,,,,,,,,,,,,,,,,,,,,,,,,,,,,,,,,
,,66072a4c6558917f3f9d5f7f,66fc98231b5408c242b70e94,2024-10-01_18h48.27.758,mdp,2024.2.1,Win32,59.52380952,66fa4ebf79326e780c390304,,,,,,,,,,,,,,,,,,,,,168.2125,168.2125,168.214,168.9453,1,1,right,0.2075,,168.947,168.9477,,0,,168.9484,168.949,,1,,0,168.949,168.949,168.9497,170.4468,0,26,26,26,1,0.2,0.8,0.6,0.4,1,0,,,,,,,,,,,,,,,,,,,,,,,,,,,,,,,,,,,,
,,66072a4c6558917f3f9d5f7f,66fc98231b5408c242b70e94,2024-10-01_18h48.27.758,mdp,2024.2.1,Win32,59.52380952,66fa4ebf79326e780c390304,,,,,,,,,,,,,,,,,,,,,170.4473,170.4473,170.4481,171.0642,1,0,right,0.1073,,171.0655,171.066,,1,,171.0666,171.0669,,0,,1,171.0669,171.067,171.0673,172.5653,0,27,27,27,1,0.2,0.8,0.6,0.4,1,0,,,,,,,,,,,,,,,,,,,,,,,,,,,,,,,,,,,,
,,66072a4c6558917f3f9d5f7f,66fc98231b5408c242b70e94,2024-10-01_18h48.27.758,mdp,2024.2.1,Win32,59.52380952,66fa4ebf79326e780c390304,,,,,,,,,,,,,,,,,,,,,172.5658,172.5658,172.5668,173.483,1,1,right,0.4051,,173.4849,173.4859,,0,,173.4869,173.4877,,0,,0,173.4877,173.4877,173.4885,174.9847,0,28,28,28,1,0.2,0.8,0.6,0.4,1,0,,,,,,,,,,,,,,,,,,,,,,,,,,,,,,,,,,,,
,,66072a4c6558917f3f9d5f7f,66fc98231b5408c242b70e94,2024-10-01_18h48.27.758,mdp,2024.2.1,Win32,59.52380952,66fa4ebf79326e780c390304,,,,,,,,,,,,,,,,,,,,,174.9861,174.9861,174.9881,175.8852,0,0,left,0.3753,,175.8862,175.8868,,1,,175.8875,175.8878,,0,,1,175.8878,175.8878,175.8882,177.3853,0,29,29,29,1,0.8,0.2,0.4,0.6,1,0,,,,,,,,,,,,,,,,,,,,,,,,,,,,,,,,,,,,
,,66072a4c6558917f3f9d5f7f,66fc98231b5408c242b70e94,2024-10-01_18h48.27.758,mdp,2024.2.1,Win32,59.52380952,66fa4ebf79326e780c390304,,,,,,,,,,,,,,,,,,,,,177.3857,177.3857,177.3871,178.1698,0,0,left,0.2593,,178.1716,178.1725,,0,,178.1735,178.1741,,0,,1,178.1741,178.1741,178.1749,179.6709,0,30,30,30,1,0.8,0.2,0.4,0.6,1,0,,,,,,,,,,,,,,,,,,,,,,,,,,,,,,,,,,,,
,,66072a4c6558917f3f9d5f7f,66fc98231b5408c242b70e94,2024-10-01_18h48.27.758,mdp,2024.2.1,Win32,59.52380952,66fa4ebf79326e780c390304,,,,,,,,,,,,,,,,,,,,,179.6716,179.6716,179.6727,180.2053,1,1,right,0.0005,,180.2071,180.2078,,1,,180.2086,180.2092,,1,,0,180.2092,180.2092,180.2098,181.7064,0,31,31,31,1,0.8,0.2,0.4,0.6,1,0,,,,,,,,,,,,,,,,,,,,,,,,,,,,,,,,,,,,
,,66072a4c6558917f3f9d5f7f,66fc98231b5408c242b70e94,2024-10-01_18h48.27.758,mdp,2024.2.1,Win32,59.52380952,66fa4ebf79326e780c390304,,,,,,,,,,,,,,,,,,,,,181.7069,181.7069,181.7079,182.3895,1,1,right,0.1513,,182.3914,182.3921,,0,,182.3929,182.3934,,0,,0,182.3934,182.3934,182.394,183.8916,0,32,32,32,1,0.8,0.2,0.4,0.6,1,0,,,,,,,,,,,,,,,,,,,,,,,,,,,,,,,,,,,,
,,66072a4c6558917f3f9d5f7f,66fc98231b5408c242b70e94,2024-10-01_18h48.27.758,mdp,2024.2.1,Win32,59.52380952,66fa4ebf79326e780c390304,,,,,,,,,,,,,,,,,,,,,183.8922,183.8922,183.8933,185.2593,0,1,left,0.8447,,185.2604,185.261,,0,,185.2614,185.2618,,1,,0,185.2618,185.2618,185.2621,186.7606,0,33,33,33,1,0.8,0.2,0.4,0.6,1,0,,,,,,,,,,,,,,,,,,,,,,,,,,,,,,,,,,,,
,,66072a4c6558917f3f9d5f7f,66fc98231b5408c242b70e94,2024-10-01_18h48.27.758,mdp,2024.2.1,Win32,59.52380952,66fa4ebf79326e780c390304,,,,,,,,,,,,,,,,,,,,,186.7609,186.7609,186.762,187.6779,1,0,right,0.3926,,187.679,187.6795,,1,,187.6799,187.6802,,1,,1,187.6802,187.6802,187.6806,189.1793,0,34,34,34,1,0.8,0.2,0.4,0.6,1,0,,,,,,,,,,,,,,,,,,,,,,,,,,,,,,,,,,,,
,,66072a4c6558917f3f9d5f7f,66fc98231b5408c242b70e94,2024-10-01_18h48.27.758,mdp,2024.2.1,Win32,59.52380952,66fa4ebf79326e780c390304,,,,,,,,,,,,,,,,,,,,,189.1797,189.1797,189.1805,190.0801,1,1,right,0.3906,,190.0814,190.0821,,1,,190.0828,190.0833,,1,,0,190.0833,190.0833,190.0838,191.5815,0,35,35,35,1,0.8,0.2,0.4,0.6,1,0,,,,,,,,,,,,,,,,,,,,,,,,,,,,,,,,,,,,
,,66072a4c6558917f3f9d5f7f,66fc98231b5408c242b70e94,2024-10-01_18h48.27.758,mdp,2024.2.1,Win32,59.52380952,66fa4ebf79326e780c390304,,,,,,,,,,,,,,,,,,,,,191.5821,191.5821,191.5833,192.2485,0,0,left,0.1383,,192.25,192.2508,,0,,192.2516,192.2522,,1,,1,192.2522,192.2522,192.253,193.7497,0,36,36,36,1,0.8,0.2,0.4,0.6,1,0,,,,,,,,,,,,,,,,,,,,,,,,,,,,,,,,,,,,
,,66072a4c6558917f3f9d5f7f,66fc98231b5408c242b70e94,2024-10-01_18h48.27.758,mdp,2024.2.1,Win32,59.52380952,66fa4ebf79326e780c390304,,,,,,,,,,,,,,,,,,,,,193.7504,193.7504,193.7514,194.4503,0,0,left,0.1671,,194.4513,194.4518,,0,,194.4521,194.4524,,0,,1,194.4525,194.4525,194.4528,195.9513,0,37,37,37,1,0.8,0.2,0.4,0.6,1,0,,,,,,,,,,,,,,,,,,,,,,,,,,,,,,,,,,,,
,,66072a4c6558917f3f9d5f7f,66fc98231b5408c242b70e94,2024-10-01_18h48.27.758,mdp,2024.2.1,Win32,59.52380952,66fa4ebf79326e780c390304,,,,,,,,,,,,,,,,,,,,,195.9517,195.9517,195.9524,196.6022,1,0,right,0.1266,,196.6036,196.6042,,0,,196.6048,196.6054,,0,,1,196.6054,196.6054,196.606,198.1033,0,38,38,38,1,0.4,0.6,0.8,0.2,1,0,,,,,,,,,,,,,,,,,,,,,,,,,,,,,,,,,,,,
,,66072a4c6558917f3f9d5f7f,66fc98231b5408c242b70e94,2024-10-01_18h48.27.758,mdp,2024.2.1,Win32,59.52380952,66fa4ebf79326e780c390304,,,,,,,,,,,,,,,,,,,,,198.1037,198.1037,198.1044,198.6866,0,1,left,0.0535,,198.6883,198.6892,,0,,198.6901,198.6906,,0,,0,198.6906,198.6907,198.6912,200.1875,0,39,39,39,1,0.4,0.6,0.8,0.2,1,0,,,,,,,,,,,,,,,,,,,,,,,,,,,,,,,,,,,,
,,66072a4c6558917f3f9d5f7f,66fc98231b5408c242b70e94,2024-10-01_18h48.27.758,mdp,2024.2.1,Win32,59.52380952,66fa4ebf79326e780c390304,,,,,,,,,,,,,,,,,,,,,200.1881,200.1881,200.1905,200.9058,1,0,right,0.1851,,200.907,200.9077,,0,,200.9086,200.9091,,0,,1,200.9091,200.9091,200.9097,202.4071,0,40,40,40,1,0.4,0.6,0.8,0.2,1,0,,,,,,,,,,,,,,,,,,,,,,,,,,,,,,,,,,,,
,,66072a4c6558917f3f9d5f7f,66fc98231b5408c242b70e94,2024-10-01_18h48.27.758,mdp,2024.2.1,Win32,59.52380952,66fa4ebf79326e780c390304,,,,,,,,,,,,,,,,,,,,,202.4081,202.4081,202.4096,203.191,1,0,right,0.2566,,203.1925,203.1931,,1,,203.1939,203.1944,,1,,1,203.1945,203.1945,203.1949,204.692,0,41,41,41,1,0.4,0.6,0.8,0.2,1,0,,,,,,,,,,,,,,,,,,,,,,,,,,,,,,,,,,,,
,,66072a4c6558917f3f9d5f7f,66fc98231b5408c242b70e94,2024-10-01_18h48.27.758,mdp,2024.2.1,Win32,59.52380952,66fa4ebf79326e780c390304,,,,,,,,,,,,,,,,,,,,,204.6925,204.6925,204.6938,205.4594,1,0,right,0.2441,,205.461,205.4616,,0,,205.4623,205.4628,,0,,1,205.4628,205.4628,205.4634,206.9603,0,42,42,42,1,0.4,0.6,0.8,0.2,1,0,,,,,,,,,,,,,,,,,,,,,,,,,,,,,,,,,,,,
,,66072a4c6558917f3f9d5f7f,66fc98231b5408c242b70e94,2024-10-01_18h48.27.758,mdp,2024.2.1,Win32,59.52380952,66fa4ebf79326e780c390304,,,,,,,,,,,,,,,,,,,,,206.9608,206.9608,206.9619,207.5446,0,0,left,0.0699,,207.5459,207.5466,,0,,207.5474,207.548,,0,,1,207.548,207.548,207.5485,209.0447,0,43,43,43,1,0.6,0.4,0.2,0.8,1,0,,,,,,,,,,,,,,,,,,,,,,,,,,,,,,,,,,,,
,,66072a4c6558917f3f9d5f7f,66fc98231b5408c242b70e94,2024-10-01_18h48.27.758,mdp,2024.2.1,Win32,59.52380952,66fa4ebf79326e780c390304,,,,,,,,,,,,,,,,,,,,,209.0454,209.0454,209.0468,210.1298,1,1,right,0.5556,,210.131,210.1314,,1,,210.1319,210.1321,,1,,0,210.1321,210.1321,210.1324,211.631,0,44,44,44,1,0.6,0.4,0.2,0.8,1,0,,,,,,,,,,,,,,,,,,,,,,,,,,,,,,,,,,,,
,,66072a4c6558917f3f9d5f7f,66fc98231b5408c242b70e94,2024-10-01_18h48.27.758,mdp,2024.2.1,Win32,59.52380952,66fa4ebf79326e780c390304,,,,,,,,,,,,,,,,,,,,,211.6314,211.6314,211.6328,212.4987,0,1,left,0.3388,,212.5001,212.5007,,1,,212.5015,212.5021,,1,,0,212.5022,212.5022,212.5027,213.9995,0,45,45,45,1,0.2,0.8,0.8,0.2,1,0,,,,,,,,,,,,,,,,,,,,,,,,,,,,,,,,,,,,
,,66072a4c6558917f3f9d5f7f,66fc98231b5408c242b70e94,2024-10-01_18h48.27.758,mdp,2024.2.1,Win32,59.52380952,66fa4ebf79326e780c390304,,,,,,,,,,,,,,,,,,,,,214.0002,214.0002,214.0013,214.834,0,0,left,0.3013,,214.8352,214.836,,0,,214.8367,214.8372,,1,,1,214.8372,214.8372,214.8378,216.3349,0,46,46,46,1,0.2,0.8,0.8,0.2,1,0,,,,,,,,,,,,,,,,,,,,,,,,,,,,,,,,,,,,
,,66072a4c6558917f3f9d5f7f,66fc98231b5408c242b70e94,2024-10-01_18h48.27.758,mdp,2024.2.1,Win32,59.52380952,66fa4ebf79326e780c390304,,,,,,,,,,,,,,,,,,,,,216.3354,216.3354,216.3363,216.9857,0,1,left,0.118,,216.987,216.9876,,1,,216.9882,216.9888,,1,,0,216.9888,216.9888,216.9893,218.4858,0,47,47,47,1,0.2,0.8,0.8,0.2,1,0,,,,,,,,,,,,,,,,,,,,,,,,,,,,,,,,,,,,
,,66072a4c6558917f3f9d5f7f,66fc98231b5408c242b70e94,2024-10-01_18h48.27.758,mdp,2024.2.1,Win32,59.52380952,66fa4ebf79326e780c390304,,,,,,,,,,,,,,,,,,,,,218.486,218.486,218.4874,219.1541,1,0,right,0.1546,,219.156,219.1571,,0,,219.1582,219.1589,,0,,1,219.159,219.159,219.1597,220.6544,0,48,48,48,1,0.2,0.8,0.8,0.2,1,0,,,,,,,,,,,,,,,,,,,,,,,,,,,,,,,,,,,,
,,66072a4c6558917f3f9d5f7f,66fc98231b5408c242b70e94,2024-10-01_18h48.27.758,mdp,2024.2.1,Win32,59.52380952,66fa4ebf79326e780c390304,,,,,,,,,,,,,,,,,,,,,220.655,220.655,220.6563,222.2737,1,0,right,1.1039,,222.2752,222.276,,0,,222.2768,222.2774,,0,,1,222.2775,222.2775,222.2782,223.7745,0,49,49,49,1,0.2,0.8,0.8,0.2,1,0,,,,,,,,,,,,,,,,,,,,,,,,,,,,,,,,,,,,
,,66072a4c6558917f3f9d5f7f,66fc98231b5408c242b70e94,2024-10-01_18h48.27.758,mdp,2024.2.1,Win32,59.52380952,66fa4ebf79326e780c390304,,,,,,,,,,,,,,,,,,,,,,,,,,,,,,,,,,,,,,,,,,,,,,,,,,,,,,,,223.7754,282.2898,0,0,0,5,1,imgs/rabbit.png,imgs/squirrel.png,imgs/dog.png,imgs/elephant.png,imgs/giraffe.png,,,,,,,,,,,,,,,,,,,,,,,,
,,66072a4c6558917f3f9d5f7f,66fc98231b5408c242b70e94,2024-10-01_18h48.27.758,mdp,2024.2.1,Win32,59.52380952,66fa4ebf79326e780c390304,,,,,,,,,,,,,,2,seqs/st2seq11.csv,282.3094,284.1902,space,1.3784,,284.196,284.1961,284.1999,285.1254,0,0,left,0.3904,,285.1285,285.7425,0,1,left,285.7437,285.7443,,0,,0,285.7443,285.7443,285.7449,287.2435,0,0,0,0,1,0.8,0.2,0.8,0.2,,,,,,,,,,,,,,,0.0926,,0.8,0.2,0.6,0.4,0.2,0.8,0.4,0.6,1,0,,,,,,,,,,,,
,,66072a4c6558917f3f9d5f7f,66fc98231b5408c242b70e94,2024-10-01_18h48.27.758,mdp,2024.2.1,Win32,59.52380952,66fa4ebf79326e780c390304,,,,,,,,,,,,,,,,,,,,,287.2439,287.244,287.245,288.1601,1,1,right,0.3843,,288.1618,288.8943,0,1,left,288.8958,288.8965,,1,,0,288.8965,288.8965,288.8971,290.396,0,1,1,1,1,0.8,0.2,0.8,0.2,,,,,,,,,,,,,,,0.208,,0.8,0.2,0.6,0.4,0.2,0.8,0.4,0.6,1,0,,,,,,,,,,,,
,,66072a4c6558917f3f9d5f7f,66fc98231b5408c242b70e94,2024-10-01_18h48.27.758,mdp,2024.2.1,Win32,59.52380952,66fa4ebf79326e780c390304,,,,,,,,,,,,,,,,,,,,,290.3965,290.3965,290.3979,290.9467,1,0,right,0.0274,,290.9478,291.5971,1,0,right,291.5985,291.5991,,1,,1,291.5992,291.5993,291.5999,293.0982,0,2,2,2,1,0.8,0.2,0.8,0.2,,,,,,,,,,,,,,,0.1021,,0.6,0.4,0.4,0.6,0.2,0.8,0.4,0.6,1,0,,,,,,,,,,,,
,,66072a4c6558917f3f9d5f7f,66fc98231b5408c242b70e94,2024-10-01_18h48.27.758,mdp,2024.2.1,Win32,59.52380952,66fa4ebf79326e780c390304,,,,,,,,,,,,,,,,,,,,,293.0986,293.0986,293.0998,293.7494,1,1,right,0.1235,,293.7522,294.2872,0,1,left,294.2879,294.2883,,1,,0,294.2883,294.2883,294.2887,295.7838,0,3,3,3,1,0.8,0.2,0.8,0.2,,,,,,,,,,,,,,,0.0003,,0.6,0.4,0.4,0.6,0.2,0.8,0.4,0.6,1,0,,,,,,,,,,,,
,,66072a4c6558917f3f9d5f7f,66fc98231b5408c242b70e94,2024-10-01_18h48.27.758,mdp,2024.2.1,Win32,59.52380952,66fa4ebf79326e780c390304,,,,,,,,,,,,,,,,,,,,,295.7842,295.7842,295.7851,296.3337,1,0,right,0.0249,,296.3351,297.3343,1,1,right,297.3359,297.3365,,1,,0,297.3366,297.3366,297.3371,298.8359,0,4,4,4,1,0.8,0.2,0.8,0.2,,,,,,,,,,,,,,,0.4723,,0.6,0.4,0.4,0.6,0.2,0.8,0.4,0.6,1,0,,,,,,,,,,,,
,,66072a4c6558917f3f9d5f7f,66fc98231b5408c242b70e94,2024-10-01_18h48.27.758,mdp,2024.2.1,Win32,59.52380952,66fa4ebf79326e780c390304,,,,,,,,,,,,,,,,,,,,,298.8365,298.8365,298.8378,299.4867,0,0,left,0.1179,,299.4881,300.387,0,1,left,300.3886,300.3891,,0,,0,300.3892,300.3892,300.3897,301.893,0,5,5,5,1,0.2,0.8,0.6,0.4,,,,,,,,,,,,,,,0.3866,,0.6,0.4,0.4,0.6,0.2,0.8,0.4,0.6,1,0,,,,,,,,,,,,
,,66072a4c6558917f3f9d5f7f,66fc98231b5408c242b70e94,2024-10-01_18h48.27.758,mdp,2024.2.1,Win32,59.52380952,66fa4ebf79326e780c390304,,,,,,,,,,,,,,,,,,,,,301.8933,301.8933,301.8944,399.4687,1,1,right,97.0477,,399.4795,402.1716,1,1,right,402.173,402.1736,,0,,0,402.1737,402.1737,402.1745,403.6724,0,6,6,6,1,0.2,0.8,0.6,0.4,,,,,,,,,,,,,,,2.1731,,0.2,0.8,0.6,0.4,0.2,0.8,0.4,0.6,1,0,,,,,,,,,,,,
,,66072a4c6558917f3f9d5f7f,66fc98231b5408c242b70e94,2024-10-01_18h48.27.758,mdp,2024.2.1,Win32,59.52380952,66fa4ebf79326e780c390304,,,,,,,,,,,,,,,,,,,,,403.6732,403.6732,403.6744,426.7084,1,1,right,22.5101,,426.721,430.1106,1,1,right,430.1123,430.1129,,0,,0,430.1129,430.1129,430.1134,431.6121,0,7,7,7,1,0.2,0.8,0.6,0.4,,,,,,,,,,,,,,,2.872,,0.2,0.8,0.6,0.4,0.2,0.8,0.4,0.6,1,0,,,,,,,,,,,,
,,66072a4c6558917f3f9d5f7f,66fc98231b5408c242b70e94,2024-10-01_18h48.27.758,mdp,2024.2.1,Win32,59.52380952,66fa4ebf79326e780c390304,,,,,,,,,,,,,,,,,,,,,431.6126,431.6126,431.6138,450.5289,1,0,right,18.3851,,450.554,462.6544,1,0,right,462.6734,462.6744,,0,,1,462.6744,462.6744,462.6752,464.1721,0,8,8,8,1,0.8,0.2,0.2,0.8,,,,,,,,,,,,,,,11.5929,,0.2,0.8,0.6,0.4,0.2,0.8,0.4,0.6,1,0,,,,,,,,,,,,
,,66072a4c6558917f3f9d5f7f,66fc98231b5408c242b70e94,2024-10-01_18h48.27.758,mdp,2024.2.1,Win32,59.52380952,66fa4ebf79326e780c390304,,,,,,,,,,,,,,,,,,,,,464.1727,464.1727,464.174,466.8242,0,0,left,2.1209,,466.8345,468.0084,1,1,right,468.01,468.0107,,0,,0,468.0107,468.0107,468.0112,469.5097,0,9,9,9,1,0.8,0.2,0.2,0.8,,,,,,,,,,,,,,,0.6779,,0.2,0.8,0.6,0.4,0.6,0.4,0.2,0.8,1,0,,,,,,,,,,,,
,,66072a4c6558917f3f9d5f7f,66fc98231b5408c242b70e94,2024-10-01_18h48.27.758,mdp,2024.2.1,Win32,59.52380952,66fa4ebf79326e780c390304,,,,,,,,,,,,,,,,,,,,,469.51,469.51,469.5116,470.2946,0,1,left,0.2671,,470.2971,471.1778,0,0,left,471.1792,471.18,,0,,1,471.18,471.18,471.1807,472.6789,0,10,10,10,1,0.8,0.2,0.2,0.8,,,,,,,,,,,,,,,0.3395,,0.2,0.8,0.6,0.4,0.6,0.4,0.2,0.8,1,0,,,,,,,,,,,,
,,66072a4c6558917f3f9d5f7f,66fc98231b5408c242b70e94,2024-10-01_18h48.27.758,mdp,2024.2.1,Win32,59.52380952,66fa4ebf79326e780c390304,,,,,,,,,,,,,,,,,,,,,472.6794,472.6795,472.6808,473.6633,0,0,left,0.4551,,473.6649,474.9477,1,1,right,474.949,474.9498,,0,,0,474.9498,474.9498,474.9505,476.4486,0,11,11,11,1,0.8,0.2,0.2,0.8,,,,,,,,,,,,,,,0.7429,,0.2,0.8,0.6,0.4,0.6,0.4,0.2,0.8,1,0,,,,,,,,,,,,
,,66072a4c6558917f3f9d5f7f,66fc98231b5408c242b70e94,2024-10-01_18h48.27.758,mdp,2024.2.1,Win32,59.52380952,66fa4ebf79326e780c390304,,,,,,,,,,,,,,,,,,,,,476.4489,476.449,476.4506,485.1781,0,0,left,8.2067,,485.1899,490.4271,1,1,right,490.4367,490.4372,,0,,0,490.4373,490.4373,490.4376,491.9279,0,12,12,12,1,0.8,0.2,0.2,0.8,,,,,,,,,,,,,,,4.7306,,0.2,0.8,0.6,0.4,0.6,0.4,0.2,0.8,1,0,,,,,,,,,,,,
,,66072a4c6558917f3f9d5f7f,66fc98231b5408c242b70e94,2024-10-01_18h48.27.758,mdp,2024.2.1,Win32,59.52380952,66fa4ebf79326e780c390304,,,,,,,,,,,,,,,,,,,,,491.9281,491.9281,491.9297,493.5964,0,0,left,1.1513,,493.5978,496.2153,0,1,left,496.2166,496.2172,,1,,0,496.2172,496.2172,496.2178,497.7165,0,13,13,13,1,0.8,0.2,0.2,0.8,,,,,,,,,,,,,,,2.1018,,0.2,0.8,0.6,0.4,0.6,0.4,0.2,0.8,1,0,,,,,,,,,,,,
,,66072a4c6558917f3f9d5f7f,66fc98231b5408c242b70e94,2024-10-01_18h48.27.758,mdp,2024.2.1,Win32,59.52380952,66fa4ebf79326e780c390304,,,,,,,,,,,,,,,,,,,,,497.7172,497.7173,497.7188,498.6506,1,0,right,0.4077,,498.6526,499.8015,0,1,left,499.8028,499.8036,,1,,0,499.8036,499.8036,499.8042,501.3026,0,14,14,14,1,0.8,0.2,0.2,0.8,,,,,,,,,,,,,,,0.6366,,0.2,0.8,0.6,0.4,0.6,0.4,0.2,0.8,1,0,,,,,,,,,,,,
,,66072a4c6558917f3f9d5f7f,66fc98231b5408c242b70e94,2024-10-01_18h48.27.758,mdp,2024.2.1,Win32,59.52380952,66fa4ebf79326e780c390304,,,,,,,,,,,,,,,,,,,,,501.3033,501.3034,501.3047,501.9695,1,0,right,0.1413,,501.9707,502.6037,1,0,right,502.605,502.6057,,1,,1,502.6057,502.6057,502.6064,504.1051,0,15,15,15,1,0.8,0.2,0.2,0.8,,,,,,,,,,,,,,,0.1172,,0.2,0.8,0.6,0.4,0.6,0.4,0.2,0.8,1,0,,,,,,,,,,,,
,,66072a4c6558917f3f9d5f7f,66fc98231b5408c242b70e94,2024-10-01_18h48.27.758,mdp,2024.2.1,Win32,59.52380952,66fa4ebf79326e780c390304,,,,,,,,,,,,,,,,,,,,,504.1055,504.1055,504.1066,507.1681,0,1,left,2.5412,,507.1687,507.8799,1,1,right,507.8804,507.8808,,1,,0,507.8808,507.8808,507.8812,509.3804,0,16,16,16,1,0.8,0.2,0.2,0.8,,,,,,,,,,,,,,,0.1844,,0.2,0.8,0.6,0.4,0.6,0.4,0.2,0.8,1,0,,,,,,,,,,,,
,,66072a4c6558917f3f9d5f7f,66fc98231b5408c242b70e94,2024-10-01_18h48.27.758,mdp,2024.2.1,Win32,59.52380952,66fa4ebf79326e780c390304,,,,,,,,,,,,,,,,,,,,,509.3806,509.3807,509.3814,509.9489,0,0,left,0.0509,,509.9504,510.482,1,1,right,510.4828,510.4834,,0,,0,510.4834,510.4834,510.4839,511.9827,0,17,17,17,1,0.8,0.2,0.2,0.8,,,,,,,,,,,,,,,0.0005,,0.2,0.8,0.6,0.4,0.6,0.4,0.2,0.8,1,0,,,,,,,,,,,,
,,66072a4c6558917f3f9d5f7f,66fc98231b5408c242b70e94,2024-10-01_18h48.27.758,mdp,2024.2.1,Win32,59.52380952,66fa4ebf79326e780c390304,,,,,,,,,,,,,,,,,,,,,511.9829,511.9829,511.9834,512.6498,1,1,right,0.15,,512.6504,513.2507,1,0,right,513.2513,513.2518,,0,,1,513.2519,513.2519,513.2523,514.7519,0,18,18,18,1,0.8,0.2,0.2,0.8,,,,,,,,,,,,,,,0.084,,0.2,0.8,0.6,0.4,0.6,0.4,0.2,0.8,1,0,,,,,,,,,,,,
,,66072a4c6558917f3f9d5f7f,66fc98231b5408c242b70e94,2024-10-01_18h48.27.758,mdp,2024.2.1,Win32,59.52380952,66fa4ebf79326e780c390304,,,,,,,,,,,,,,,,,,,,,514.7523,514.7523,514.7531,515.2851,0,0,left,0.0004,,515.2857,515.8692,0,1,left,515.8699,515.8702,,1,,0,515.8702,515.8702,515.8707,517.3704,0,19,19,19,1,0.8,0.2,0.2,0.8,,,,,,,,,,,,,,,0.0667,,0.2,0.8,0.6,0.4,0.6,0.4,0.2,0.8,1,0,,,,,,,,,,,,
,,66072a4c6558917f3f9d5f7f,66fc98231b5408c242b70e94,2024-10-01_18h48.27.758,mdp,2024.2.1,Win32,59.52380952,66fa4ebf79326e780c390304,,,,,,,,,,,,,,,,,,,,,517.3709,517.3709,517.3717,517.9213,0,0,left,0.0339,,517.9222,518.4546,0,1,left,518.4553,518.4557,,1,,0,518.4557,518.4557,518.4561,519.9574,0,20,20,20,1,0.8,0.2,0.2,0.8,,,,,,,,,,,,,,,0.0171,,0.2,0.8,0.6,0.4,0.6,0.4,0.2,0.8,1,0,,,,,,,,,,,,
,,66072a4c6558917f3f9d5f7f,66fc98231b5408c242b70e94,2024-10-01_18h48.27.758,mdp,2024.2.1,Win32,59.52380952,66fa4ebf79326e780c390304,,,,,,,,,,,,,,,,,,,,,519.9581,519.9581,519.9599,520.5235,0,0,left,0.034,,520.5243,521.1073,0,1,left,521.1081,521.1088,,0,,0,521.1088,521.1088,521.1093,522.6082,0,21,21,21,1,0.8,0.2,0.2,0.8,,,,,,,,,,,,,,,0.0505,,0.2,0.8,0.6,0.4,0.6,0.4,0.2,0.8,1,0,,,,,,,,,,,,
,,66072a4c6558917f3f9d5f7f,66fc98231b5408c242b70e94,2024-10-01_18h48.27.758,mdp,2024.2.1,Win32,59.52380952,66fa4ebf79326e780c390304,,,,,,,,,,,,,,,,,,,,,522.6086,522.6086,522.6094,523.1417,0,1,left,0.0003,,523.1423,523.9764,1,1,right,523.9774,523.978,,1,,0,523.9781,523.9781,523.9787,525.4775,0,22,22,22,1,0.4,0.6,0.8,0.2,,,,,,,,,,,,,,,0.3171,,0.2,0.8,0.6,0.4,0.6,0.4,0.2,0.8,1,0,,,,,,,,,,,,
,,66072a4c6558917f3f9d5f7f,66fc98231b5408c242b70e94,2024-10-01_18h48.27.758,mdp,2024.2.1,Win32,59.52380952,66fa4ebf79326e780c390304,,,,,,,,,,,,,,,,,,,,,525.4778,525.4778,525.4785,526.4781,1,0,right,0.4675,,526.4786,527.3458,0,1,left,527.3467,527.3472,,0,,0,527.3473,527.3473,527.3479,528.8462,0,23,23,23,1,0.4,0.6,0.8,0.2,,,,,,,,,,,,,,,0.3502,,0.2,0.8,0.6,0.4,0.6,0.4,0.2,0.8,1,0,,,,,,,,,,,,
,,66072a4c6558917f3f9d5f7f,66fc98231b5408c242b70e94,2024-10-01_18h48.27.758,mdp,2024.2.1,Win32,59.52380952,66fa4ebf79326e780c390304,,,,,,,,,,,,,,,,,,,,,528.8465,528.8465,528.8473,529.4971,1,0,right,0.1174,,529.4976,530.3819,1,1,right,530.3831,530.3838,,1,,0,530.3838,530.3838,530.3846,531.8827,0,24,24,24,1,0.4,0.6,0.8,0.2,,,,,,,,,,,,,,,0.3677,,0.2,0.8,0.6,0.4,0.6,0.4,0.2,0.8,1,0,,,,,,,,,,,,
,,66072a4c6558917f3f9d5f7f,66fc98231b5408c242b70e94,2024-10-01_18h48.27.758,mdp,2024.2.1,Win32,59.52380952,66fa4ebf79326e780c390304,,,,,,,,,,,,,,,,,,,,,531.8829,531.8829,531.8834,532.434,1,0,right,0.017,,532.4354,533.617,0,1,left,533.6176,533.6179,,1,,0,533.6179,533.6179,533.6183,535.1183,0,25,25,25,1,0.4,0.6,0.8,0.2,,,,,,,,,,,,,,,0.6673,,0.2,0.8,0.6,0.4,0.6,0.4,0.2,0.8,1,0,,,,,,,,,,,,
,,66072a4c6558917f3f9d5f7f,66fc98231b5408c242b70e94,2024-10-01_18h48.27.758,mdp,2024.2.1,Win32,59.52380952,66fa4ebf79326e780c390304,,,,,,,,,,,,,,,,,,,,,535.1186,535.1186,535.1191,535.9692,1,1,right,0.334,,535.9703,536.9873,1,1,right,536.9884,536.989,,1,,0,536.989,536.989,536.9897,538.4886,0,26,26,26,1,0.6,0.4,0.4,0.6,,,,,,,,,,,,,,,0.5007,,0.2,0.8,0.6,0.4,0.6,0.4,0.2,0.8,1,0,,,,,,,,,,,,
,,66072a4c6558917f3f9d5f7f,66fc98231b5408c242b70e94,2024-10-01_18h48.27.758,mdp,2024.2.1,Win32,59.52380952,66fa4ebf79326e780c390304,,,,,,,,,,,,,,,,,,,,,538.4894,538.4894,538.4908,542.9591,0,0,left,3.9374,,542.9774,544.0717,0,1,left,544.0733,544.0741,,1,,0,544.0742,544.0742,544.0749,545.5726,0,27,27,27,1,0.6,0.4,0.4,0.6,,,,,,,,,,,,,,,0.5694,,0.2,0.8,0.6,0.4,0.6,0.4,0.2,0.8,1,0,,,,,,,,,,,,
,,66072a4c6558917f3f9d5f7f,66fc98231b5408c242b70e94,2024-10-01_18h48.27.758,mdp,2024.2.1,Win32,59.52380952,66fa4ebf79326e780c390304,,,,,,,,,,,,,,,,,,,,,545.5732,545.5732,545.5743,548.6417,0,1,left,2.5446,,548.6435,551.1935,0,1,left,551.1949,551.1954,,1,,0,551.1954,551.1955,551.196,552.6954,0,28,28,28,1,0.6,0.4,0.4,0.6,,,,,,,,,,,,,,,2.0218,,0.2,0.8,0.6,0.4,0.2,0.8,0.6,0.4,1,0,,,,,,,,,,,,
,,66072a4c6558917f3f9d5f7f,66fc98231b5408c242b70e94,2024-10-01_18h48.27.758,mdp,2024.2.1,Win32,59.52380952,66fa4ebf79326e780c390304,,,,,,,,,,,,,,,,,,,,,552.6959,552.6959,552.6966,553.3791,0,0,left,0.1583,,553.3806,554.4128,0,1,left,554.4148,554.4154,,1,,0,554.4155,554.4155,554.4162,555.9147,0,29,29,29,1,0.6,0.4,0.4,0.6,,,,,,,,,,,,,,,0.485,,0.2,0.8,0.6,0.4,0.2,0.8,0.6,0.4,1,0,,,,,,,,,,,,
,,66072a4c6558917f3f9d5f7f,66fc98231b5408c242b70e94,2024-10-01_18h48.27.758,mdp,2024.2.1,Win32,59.52380952,66fa4ebf79326e780c390304,,,,,,,,,,,,,,,,,,,,,555.9153,555.9153,555.9162,556.6155,1,1,right,0.1653,,556.617,557.3371,1,0,right,557.3381,557.3387,,1,,1,557.3388,557.3388,557.3396,558.8332,0,30,30,30,1,0.6,0.4,0.4,0.6,,,,,,,,,,,,,,,0.2003,,0.2,0.8,0.6,0.4,0.2,0.8,0.6,0.4,1,0,,,,,,,,,,,,
,,66072a4c6558917f3f9d5f7f,66fc98231b5408c242b70e94,2024-10-01_18h48.27.758,mdp,2024.2.1,Win32,59.52380952,66fa4ebf79326e780c390304,,,,,,,,,,,,,,,,,,,,,558.8338,558.8338,558.8353,559.9178,1,1,right,0.5507,,559.9192,560.9523,1,1,right,560.9538,560.9542,,0,,0,560.9542,560.9542,560.9547,562.453,0,31,31,31,1,0.6,0.4,0.4,0.6,,,,,,,,,,,,,,,0.5031,,0.2,0.8,0.6,0.4,0.2,0.8,0.6,0.4,1,0,,,,,,,,,,,,
,,66072a4c6558917f3f9d5f7f,66fc98231b5408c242b70e94,2024-10-01_18h48.27.758,mdp,2024.2.1,Win32,59.52380952,66fa4ebf79326e780c390304,,,,,,,,,,,,,,,,,,,,,562.4538,562.4538,562.4555,563.6884,1,0,right,0.7059,,563.6903,564.7388,0,0,left,564.7399,564.7404,,1,,1,564.7404,564.7404,564.7408,566.2394,0,32,32,32,1,0.6,0.4,0.4,0.6,,,,,,,,,,,,,,,0.5041,,0.2,0.8,0.6,0.4,0.2,0.8,0.6,0.4,1,0,,,,,,,,,,,,
,,66072a4c6558917f3f9d5f7f,66fc98231b5408c242b70e94,2024-10-01_18h48.27.758,mdp,2024.2.1,Win32,59.52380952,66fa4ebf79326e780c390304,,,,,,,,,,,,,,,,,,,,,566.2396,566.2396,566.2411,567.1242,1,0,right,0.3699,,567.1253,568.241,1,0,right,568.243,568.2437,,0,,1,568.2437,568.2437,568.2445,569.7429,0,33,33,33,1,0.6,0.4,0.4,0.6,,,,,,,,,,,,,,,0.5871,,0.2,0.8,0.6,0.4,0.2,0.8,0.6,0.4,1,0,,,,,,,,,,,,
,,66072a4c6558917f3f9d5f7f,66fc98231b5408c242b70e94,2024-10-01_18h48.27.758,mdp,2024.2.1,Win32,59.52380952,66fa4ebf79326e780c390304,,,,,,,,,,,,,,,,,,,,,569.7433,569.7433,569.7443,570.5265,1,1,right,0.2395,,570.5277,571.2607,1,1,right,571.2619,571.2624,,0,,0,571.2625,571.2625,571.2629,572.7666,0,34,34,34,1,0.8,0.2,0.2,0.8,,,,,,,,,,,,,,,0.2008,,0.2,0.8,0.6,0.4,0.2,0.8,0.6,0.4,1,0,,,,,,,,,,,,
,,66072a4c6558917f3f9d5f7f,66fc98231b5408c242b70e94,2024-10-01_18h48.27.758,mdp,2024.2.1,Win32,59.52380952,66fa4ebf79326e780c390304,,,,,,,,,,,,,,,,,,,,,572.767,572.767,572.7683,573.3793,1,1,right,0.0853,,573.3805,573.9793,1,1,right,573.9807,573.9812,,1,,0,573.9813,573.9813,573.9818,575.4807,0,35,35,35,1,0.8,0.2,0.2,0.8,,,,,,,,,,,,,,,0.0804,,0.2,0.8,0.6,0.4,0.2,0.8,0.6,0.4,1,0,,,,,,,,,,,,
,,66072a4c6558917f3f9d5f7f,66fc98231b5408c242b70e94,2024-10-01_18h48.27.758,mdp,2024.2.1,Win32,59.52380952,66fa4ebf79326e780c390304,,,,,,,,,,,,,,,,,,,,,575.4814,575.4815,575.4825,576.1474,1,1,right,0.1175,,576.149,577.1992,1,0,right,577.2005,577.2013,,1,,1,577.2013,577.2013,577.2021,578.6995,0,36,36,36,1,0.8,0.2,0.2,0.8,,,,,,,,,,,,,,,0.5366,,0.2,0.8,0.6,0.4,0.2,0.8,0.6,0.4,1,0,,,,,,,,,,,,
,,66072a4c6558917f3f9d5f7f,66fc98231b5408c242b70e94,2024-10-01_18h48.27.758,mdp,2024.2.1,Win32,59.52380952,66fa4ebf79326e780c390304,,,,,,,,,,,,,,,,,,,,,578.7002,578.7002,578.7015,584.1874,1,1,right,4.981,,584.1968,590.2766,0,1,left,590.2858,590.2862,,1,,0,590.2863,590.2863,590.2868,591.7816,0,37,37,37,1,0.8,0.2,0.2,0.8,,,,,,,,,,,,,,,5.5779,,0.2,0.8,0.6,0.4,0.2,0.8,0.6,0.4,1,0,,,,,,,,,,,,
,,66072a4c6558917f3f9d5f7f,66fc98231b5408c242b70e94,2024-10-01_18h48.27.758,mdp,2024.2.1,Win32,59.52380952,66fa4ebf79326e780c390304,,,,,,,,,,,,,,,,,,,,,591.7818,591.7818,591.7826,592.328,1,1,right,0.0244,,592.3289,592.995,0,0,left,592.9961,592.9968,,1,,1,592.9968,592.9968,592.9972,594.4962,0,38,38,38,1,0.8,0.2,0.2,0.8,,,,,,,,,,,,,,,0.1336,,0.2,0.8,0.6,0.4,0.2,0.8,0.6,0.4,1,0,,,,,,,,,,,,
,,66072a4c6558917f3f9d5f7f,66fc98231b5408c242b70e94,2024-10-01_18h48.27.758,mdp,2024.2.1,Win32,59.52380952,66fa4ebf79326e780c390304,,,,,,,,,,,,,,,,,,,,,594.4968,594.4968,594.498,595.2808,0,0,left,0.2621,,595.2837,596.1476,0,1,left,596.1491,596.1497,,1,,0,596.1497,596.1497,596.1503,597.6494,0,39,39,39,1,0.8,0.2,0.2,0.8,,,,,,,,,,,,,,,0.3176,,0.2,0.8,0.6,0.4,0.2,0.8,0.6,0.4,1,0,,,,,,,,,,,,
,,66072a4c6558917f3f9d5f7f,66fc98231b5408c242b70e94,2024-10-01_18h48.27.758,mdp,2024.2.1,Win32,59.52380952,66fa4ebf79326e780c390304,,,,,,,,,,,,,,,,,,,,,597.6499,597.6499,597.6508,598.1995,0,0,left,0.0189,,598.2009,598.7326,1,1,right,598.7339,598.7346,,0,,0,598.7346,598.7346,598.735,600.2337,0,40,40,40,1,0.8,0.2,0.2,0.8,,,,,,,,,,,,,,,0.0007,,0.2,0.8,0.6,0.4,0.2,0.8,0.6,0.4,1,0,,,,,,,,,,,,
,,66072a4c6558917f3f9d5f7f,66fc98231b5408c242b70e94,2024-10-01_18h48.27.758,mdp,2024.2.1,Win32,59.52380952,66fa4ebf79326e780c390304,,,,,,,,,,,,,,,,,,,,,600.2341,600.2342,600.2357,600.7513,1,1,right,0.0004,,600.7529,601.4194,0,1,left,601.4203,601.4207,,0,,0,601.4207,601.4207,601.4211,602.9199,0,41,41,41,1,0.8,0.2,0.2,0.8,,,,,,,,,,,,,,,0.1168,,0.2,0.8,0.6,0.4,0.2,0.8,0.6,0.4,1,0,,,,,,,,,,,,
,,66072a4c6558917f3f9d5f7f,66fc98231b5408c242b70e94,2024-10-01_18h48.27.758,mdp,2024.2.1,Win32,59.52380952,66fa4ebf79326e780c390304,,,,,,,,,,,,,,,,,,,,,602.9203,602.9203,602.9214,603.4533,1,1,right,0.0119,,603.4547,603.9706,0,1,left,603.972,603.9725,,1,,0,603.9725,603.9725,603.9731,605.4724,0,42,42,42,1,0.8,0.2,0.2,0.8,,,,,,,,,,,,,,,0.0035,,0.6,0.4,0.8,0.2,0.2,0.8,0.6,0.4,1,0,,,,,,,,,,,,
,,66072a4c6558917f3f9d5f7f,66fc98231b5408c242b70e94,2024-10-01_18h48.27.758,mdp,2024.2.1,Win32,59.52380952,66fa4ebf79326e780c390304,,,,,,,,,,,,,,,,,,,,,605.4728,605.4728,605.4739,606.0062,0,0,left,0.0058,,606.0074,606.6233,0,1,left,606.6247,606.6252,,0,,0,606.6253,606.6253,606.6258,608.1245,0,43,43,43,1,0.8,0.2,0.2,0.8,,,,,,,,,,,,,,,0.0753,,0.6,0.4,0.8,0.2,0.2,0.8,0.6,0.4,1,0,,,,,,,,,,,,
,,66072a4c6558917f3f9d5f7f,66fc98231b5408c242b70e94,2024-10-01_18h48.27.758,mdp,2024.2.1,Win32,59.52380952,66fa4ebf79326e780c390304,,,,,,,,,,,,,,,,,,,,,608.1252,608.1252,608.1265,609.025,1,1,right,0.3568,,609.0261,609.5595,1,1,right,609.5608,609.5616,,0,,0,609.5616,609.5617,609.5626,611.0603,0,44,44,44,1,0.8,0.2,0.2,0.8,,,,,,,,,,,,,,,0.0061,,0.2,0.8,0.4,0.6,0.2,0.8,0.6,0.4,1,0,,,,,,,,,,,,
,,66072a4c6558917f3f9d5f7f,66fc98231b5408c242b70e94,2024-10-01_18h48.27.758,mdp,2024.2.1,Win32,59.52380952,66fa4ebf79326e780c390304,,,,,,,,,,,,,,,,,,,,,611.0608,611.0608,611.0618,611.6107,1,1,right,0.0175,,611.6121,612.1271,1,0,right,612.1289,612.1296,,0,,1,612.1297,612.1297,612.1304,613.6284,0,45,45,45,1,0.8,0.2,0.2,0.8,,,,,,,,,,,,,,,0.0085,,0.2,0.8,0.4,0.6,0.2,0.8,0.6,0.4,1,0,,,,,,,,,,,,
,,66072a4c6558917f3f9d5f7f,66fc98231b5408c242b70e94,2024-10-01_18h48.27.758,mdp,2024.2.1,Win32,59.52380952,66fa4ebf79326e780c390304,,,,,,,,,,,,,,,,,,,,,613.6288,613.6288,613.6302,614.3176,1,0,right,0.1783,,614.3187,614.9128,1,1,right,614.9149,614.9156,,1,,0,614.9156,614.9156,614.9162,616.414,0,46,46,46,1,0.8,0.2,0.2,0.8,,,,,,,,,,,,,,,0.0564,,0.2,0.8,0.4,0.6,0.2,0.8,0.6,0.4,1,0,,,,,,,,,,,,
,,66072a4c6558917f3f9d5f7f,66fc98231b5408c242b70e94,2024-10-01_18h48.27.758,mdp,2024.2.1,Win32,59.52380952,66fa4ebf79326e780c390304,,,,,,,,,,,,,,,,,,,,,616.4146,616.4146,616.416,617.0862,1,0,right,0.1459,,617.0869,617.6658,1,0,right,617.6668,617.6672,,1,,1,617.6672,617.6672,617.6676,619.1663,0,47,47,47,1,0.8,0.2,0.2,0.8,,,,,,,,,,,,,,,0.0503,,0.2,0.8,0.4,0.6,0.2,0.8,0.6,0.4,1,0,,,,,,,,,,,,
,,66072a4c6558917f3f9d5f7f,66fc98231b5408c242b70e94,2024-10-01_18h48.27.758,mdp,2024.2.1,Win32,59.52380952,66fa4ebf79326e780c390304,,,,,,,,,,,,,,,,,,,,,619.1672,619.1673,619.1686,619.8333,1,1,right,0.1388,,619.8348,620.4517,1,0,right,620.4543,620.4556,,0,,1,620.4557,620.4557,620.457,621.9522,0,48,48,48,1,0.8,0.2,0.2,0.8,,,,,,,,,,,,,,,0.0951,,0.2,0.8,0.4,0.6,0.2,0.8,0.6,0.4,1,0,,,,,,,,,,,,
,,66072a4c6558917f3f9d5f7f,66fc98231b5408c242b70e94,2024-10-01_18h48.27.758,mdp,2024.2.1,Win32,59.52380952,66fa4ebf79326e780c390304,,,,,,,,,,,,,,,,,,,,,621.9528,621.9528,621.954,622.6858,1,1,right,0.2107,,622.6871,623.2373,0,1,left,623.239,623.2398,,1,,0,623.2399,623.2399,623.2407,624.7373,0,49,49,49,1,0.8,0.2,0.2,0.8,,,,,,,,,,,,,,,0.0384,,0.2,0.8,0.4,0.6,0.2,0.8,0.6,0.4,1,0,,,,,,,,,,,,
,,66072a4c6558917f3f9d5f7f,66fc98231b5408c242b70e94,2024-10-01_18h48.27.758,mdp,2024.2.1,Win32,59.52380952,66fa4ebf79326e780c390304,,,,,,,,,,,,,,,,,,,,,,,,,,,,,,,,,,,,,,,,,,,,,,,,,,,,,,,,624.7373,683.2523,0,1,1,7,1,imgs/goat.png,imgs/pig.png,imgs/squirrel.png,imgs/dog.png,imgs/cat.png,,,,,,,,,,,,,,,,,,,,,,,,
,,66072a4c6558917f3f9d5f7f,66fc98231b5408c242b70e94,2024-10-01_18h48.27.758,mdp,2024.2.1,Win32,59.52380952,66fa4ebf79326e780c390304,,,,,,,,,,,,,,3,seqs/st3seq42.csv,683.2626,684.8753,space,1.0976,,684.8804,684.8804,684.8812,686.0222,1,0,right,0.6084,,686.0239,689.8415,0,1,left,689.8523,691.3598,1,0,right,1,691.3599,691.3599,691.3614,692.8485,0,0,0,0,1,0.8,0.2,0.8,0.2,,,,,,,,,,,,,,,3.2699,,0.2,0.8,0.8,0.2,0.8,0.2,0.4,0.6,,,0.9942,,0.6,0.4,0.4,0.6,0.4,0.6,0.4,0.6,1,0
,,66072a4c6558917f3f9d5f7f,66fc98231b5408c242b70e94,2024-10-01_18h48.27.758,mdp,2024.2.1,Win32,59.52380952,66fa4ebf79326e780c390304,,,,,,,,,,,,,,,,,,,,,692.8491,692.8491,692.8501,700.2041,1,0,right,6.8384,,700.2132,704.3872,0,1,left,704.4067,708.2236,1,1,right,0,708.2238,708.2238,708.2325,709.7246,0,1,1,1,1,0.8,0.2,0.8,0.2,,,,,,,,,,,,,,,3.6579,,0.2,0.8,0.8,0.2,0.8,0.2,0.4,0.6,,,3.3153,,0.6,0.4,0.4,0.6,0.4,0.6,0.4,0.6,1,0
,,66072a4c6558917f3f9d5f7f,66fc98231b5408c242b70e94,2024-10-01_18h48.27.758,mdp,2024.2.1,Win32,59.52380952,66fa4ebf79326e780c390304,,,,,,,,,,,,,,,,,,,,,709.7252,709.7252,709.7261,710.3919,0,0,left,0.1515,,710.3936,711.0586,0,0,left,711.0601,711.6433,0,0,left,1,711.6434,711.6434,711.6445,713.1433,0,2,2,2,1,0.8,0.2,0.8,0.2,,,,,,,,,,,,,,,0.1332,,0.2,0.8,0.8,0.2,0.8,0.2,0.4,0.6,,,0.0501,,0.6,0.4,0.4,0.6,0.4,0.6,0.4,0.6,1,0
,,66072a4c6558917f3f9d5f7f,66fc98231b5408c242b70e94,2024-10-01_18h48.27.758,mdp,2024.2.1,Win32,59.52380952,66fa4ebf79326e780c390304,,,,,,,,,,,,,,,,,,,,,713.1436,713.1436,713.145,713.7781,0,1,left,0.1023,,713.7801,715.9124,0,0,left,715.9142,716.5963,0,1,left,0,716.5964,716.5964,716.5978,718.0979,0,3,3,3,1,0.8,0.2,0.8,0.2,,,,,,,,,,,,,,,1.6048,,0.2,0.8,0.8,0.2,0.4,0.6,0.2,0.8,,,0.1771,,0.6,0.4,0.4,0.6,0.4,0.6,0.4,0.6,1,0
,,66072a4c6558917f3f9d5f7f,66fc98231b5408c242b70e94,2024-10-01_18h48.27.758,mdp,2024.2.1,Win32,59.52380952,66fa4ebf79326e780c390304,,,,,,,,,,,,,,,,,,,,,718.0986,718.0986,718.0998,719.2036,0,0,left,0.5846,,719.2042,720.6172,1,0,right,720.6188,721.4837,0,1,left,0,721.4839,721.4839,721.4858,722.9849,0,4,4,4,1,0.8,0.2,0.8,0.2,,,,,,,,,,,,,,,0.8696,,0.2,0.8,0.8,0.2,0.4,0.6,0.2,0.8,,,0.338,,0.6,0.4,0.4,0.6,0.4,0.6,0.4,0.6,1,0
,,66072a4c6558917f3f9d5f7f,66fc98231b5408c242b70e94,2024-10-01_18h48.27.758,mdp,2024.2.1,Win32,59.52380952,66fa4ebf79326e780c390304,,,,,,,,,,,,,,,,,,,,,722.9857,722.9857,722.9869,723.6865,1,0,right,0.1714,,723.6892,724.3696,0,0,left,724.3715,724.9701,0,0,left,1,724.9701,724.9702,724.9719,726.471,0,5,5,5,1,0.6,0.4,0.4,0.6,,,,,,,,,,,,,,,0.1576,,0.2,0.8,0.8,0.2,0.4,0.6,0.2,0.8,,,0.0895,,0.6,0.4,0.4,0.6,0.4,0.6,0.4,0.6,1,0
,,66072a4c6558917f3f9d5f7f,66fc98231b5408c242b70e94,2024-10-01_18h48.27.758,mdp,2024.2.1,Win32,59.52380952,66fa4ebf79326e780c390304,,,,,,,,,,,,,,,,,,,,,726.4715,726.4716,726.473,727.1551,1,1,right,0.1503,,727.1568,730.526,0,0,left,730.5465,731.2094,1,1,right,0,731.2094,731.2095,731.2106,732.7102,0,6,6,6,1,0.6,0.4,0.4,0.6,,,,,,,,,,,,,,,2.8307,,0.2,0.8,0.8,0.2,0.4,0.6,0.2,0.8,,,0.1607,,0.6,0.4,0.4,0.6,0.4,0.6,0.4,0.6,1,0
,,66072a4c6558917f3f9d5f7f,66fc98231b5408c242b70e94,2024-10-01_18h48.27.758,mdp,2024.2.1,Win32,59.52380952,66fa4ebf79326e780c390304,,,,,,,,,,,,,,,,,,,,,732.7108,732.7108,732.7117,733.4768,0,0,left,0.2303,,733.4787,734.2116,0,0,left,734.2125,734.8614,0,1,left,0,734.8614,734.8614,734.8634,736.3624,0,7,7,7,1,0.6,0.4,0.4,0.6,,,,,,,,,,,,,,,0.2006,,0.2,0.8,0.8,0.2,0.4,0.6,0.2,0.8,,,0.1259,,0.6,0.4,0.4,0.6,0.4,0.6,0.4,0.6,1,0
,,66072a4c6558917f3f9d5f7f,66fc98231b5408c242b70e94,2024-10-01_18h48.27.758,mdp,2024.2.1,Win32,59.52380952,66fa4ebf79326e780c390304,,,,,,,,,,,,,,,,,,,,,736.3629,736.3629,736.3645,736.9464,1,1,right,0.0592,,736.9484,737.6136,0,0,left,737.6155,738.3483,1,0,right,1,738.3484,738.3484,738.3497,739.8548,0,8,8,8,1,0.6,0.4,0.4,0.6,,,,,,,,,,,,,,,0.1421,,0.2,0.8,0.8,0.2,0.4,0.6,0.2,0.8,,,0.2205,,0.4,0.6,0.6,0.4,0.4,0.6,0.4,0.6,1,0
,,66072a4c6558917f3f9d5f7f,66fc98231b5408c242b70e94,2024-10-01_18h48.27.758,mdp,2024.2.1,Win32,59.52380952,66fa4ebf79326e780c390304,,,,,,,,,,,,,,,,,,,,,739.8559,739.856,739.8579,740.5501,0,1,left,0.167,,740.5512,741.3334,1,1,right,741.335,742.1182,1,1,right,0,742.1183,742.1184,742.1195,743.6185,0,9,9,9,1,0.6,0.4,0.4,0.6,,,,,,,,,,,,,,,0.2523,,0.2,0.8,0.8,0.2,0.4,0.6,0.2,0.8,,,0.2555,,0.4,0.6,0.6,0.4,0.4,0.6,0.4,0.6,1,0
,,66072a4c6558917f3f9d5f7f,66fc98231b5408c242b70e94,2024-10-01_18h48.27.758,mdp,2024.2.1,Win32,59.52380952,66fa4ebf79326e780c390304,,,,,,,,,,,,,,,,,,,,,743.6189,743.619,743.6202,744.2702,0,1,left,0.1344,,744.2717,745.037,1,1,right,745.0382,745.7041,0,0,left,1,745.7044,745.7044,745.7057,747.1932,0,10,10,10,1,0.6,0.4,0.4,0.6,,,,,,,,,,,,,,,0.2339,,0.2,0.8,0.8,0.2,0.4,0.6,0.2,0.8,,,0.1515,,0.4,0.6,0.6,0.4,0.4,0.6,0.4,0.6,1,0
,,66072a4c6558917f3f9d5f7f,66fc98231b5408c242b70e94,2024-10-01_18h48.27.758,mdp,2024.2.1,Win32,59.52380952,66fa4ebf79326e780c390304,,,,,,,,,,,,,,,,,,,,,747.1937,747.1937,747.1952,747.9724,1,1,right,0.2515,,747.9742,748.557,0,1,left,748.5585,749.2407,0,1,left,0,749.2408,749.2408,749.2418,750.7416,0,11,11,11,1,0.6,0.4,0.4,0.6,,,,,,,,,,,,,,,0.0682,,0.2,0.8,0.8,0.2,0.4,0.6,0.2,0.8,,,0.1508,,0.4,0.6,0.6,0.4,0.4,0.6,0.4,0.6,1,0
,,66072a4c6558917f3f9d5f7f,66fc98231b5408c242b70e94,2024-10-01_18h48.27.758,mdp,2024.2.1,Win32,59.52380952,66fa4ebf79326e780c390304,,,,,,,,,,,,,,,,,,,,,750.7424,750.7424,750.7435,751.3093,1,0,right,0.0359,,751.3104,752.027,0,1,left,752.0285,752.6112,1,0,right,1,752.612,752.612,752.6141,754.1106,0,12,12,12,1,0.6,0.4,0.4,0.6,,,,,,,,,,,,,,,0.186,,0.2,0.8,0.8,0.2,0.4,0.6,0.2,0.8,,,0.0684,,0.4,0.6,0.6,0.4,0.4,0.6,0.4,0.6,1,0
,,66072a4c6558917f3f9d5f7f,66fc98231b5408c242b70e94,2024-10-01_18h48.27.758,mdp,2024.2.1,Win32,59.52380952,66fa4ebf79326e780c390304,,,,,,,,,,,,,,,,,,,,,754.111,754.111,754.1124,754.711,1,0,right,0.0786,,754.7127,755.3282,1,0,right,755.3302,755.9956,1,0,right,1,755.9957,755.9957,755.9971,757.4971,0,13,13,13,1,0.6,0.4,0.4,0.6,,,,,,,,,,,,,,,0.1089,,0.2,0.8,0.8,0.2,0.4,0.6,0.2,0.8,,,0.1357,,0.4,0.6,0.6,0.4,0.4,0.6,0.4,0.6,1,0
,,66072a4c6558917f3f9d5f7f,66fc98231b5408c242b70e94,2024-10-01_18h48.27.758,mdp,2024.2.1,Win32,59.52380952,66fa4ebf79326e780c390304,,,,,,,,,,,,,,,,,,,,,757.4976,757.4976,757.4986,758.1144,0,0,left,0.0907,,758.1157,758.8144,0,1,left,758.816,759.387,1,1,right,0,759.387,759.3871,759.3881,760.8827,0,14,14,14,1,0.6,0.4,0.4,0.6,,,,,,,,,,,,,,,0.1938,,0.2,0.8,0.8,0.2,0.4,0.6,0.2,0.8,,,0.0503,,0.4,0.6,0.6,0.4,0.4,0.6,0.4,0.6,1,0
,,66072a4c6558917f3f9d5f7f,66fc98231b5408c242b70e94,2024-10-01_18h48.27.758,mdp,2024.2.1,Win32,59.52380952,66fa4ebf79326e780c390304,,,,,,,,,,,,,,,,,,,,,760.8834,760.8834,760.885,761.55,0,0,left,0.1386,,761.5517,762.168,1,0,right,762.1694,762.8678,0,1,left,0,762.8678,762.8678,762.8696,764.3699,0,15,15,15,1,0.6,0.4,0.4,0.6,,,,,,,,,,,,,,,0.1035,,0.2,0.8,0.8,0.2,0.4,0.6,0.2,0.8,,,0.1489,,0.4,0.6,0.6,0.4,0.4,0.6,0.4,0.6,1,0
,,66072a4c6558917f3f9d5f7f,66fc98231b5408c242b70e94,2024-10-01_18h48.27.758,mdp,2024.2.1,Win32,59.52380952,66fa4ebf79326e780c390304,,,,,,,,,,,,,,,,,,,,,764.3705,764.3705,764.3714,765.0372,0,0,left,0.1401,,765.0385,765.7709,0,0,left,765.7722,766.2883,0,1,left,0,766.2884,766.2885,766.2898,767.7939,0,16,16,16,1,0.6,0.4,0.4,0.6,,,,,,,,,,,,,,,0.2087,,0.2,0.8,0.8,0.2,0.4,0.6,0.2,0.8,,,0.001,,0.4,0.6,0.6,0.4,0.4,0.6,0.4,0.6,1,0
,,66072a4c6558917f3f9d5f7f,66fc98231b5408c242b70e94,2024-10-01_18h48.27.758,mdp,2024.2.1,Win32,59.52380952,66fa4ebf79326e780c390304,,,,,,,,,,,,,,,,,,,,,767.7944,767.7944,767.7956,768.3223,0,1,left,0.0063,,768.3239,769.1233,0,1,left,769.1246,771.0089,0,0,left,1,771.009,771.009,771.01,772.5096,0,17,17,17,1,0.6,0.4,0.4,0.6,,,,,,,,,,,,,,,0.2747,,0.2,0.8,0.8,0.2,0.4,0.6,0.2,0.8,,,1.3529,,0.4,0.6,0.6,0.4,0.4,0.6,0.4,0.6,1,0
,,66072a4c6558917f3f9d5f7f,66fc98231b5408c242b70e94,2024-10-01_18h48.27.758,mdp,2024.2.1,Win32,59.52380952,66fa4ebf79326e780c390304,,,,,,,,,,,,,,,,,,,,,772.5103,772.5103,772.5116,774.4327,0,1,left,1.4019,,774.4339,776.1965,0,1,left,776.1979,778.0973,1,1,right,0,778.0975,778.0975,778.0987,779.6032,0,18,18,18,1,0.6,0.4,0.4,0.6,,,,,,,,,,,,,,,1.2357,,0.2,0.8,0.8,0.2,0.4,0.6,0.2,0.8,,,1.3728,,0.4,0.6,0.6,0.4,0.4,0.6,0.4,0.6,1,0
,,66072a4c6558917f3f9d5f7f,66fc98231b5408c242b70e94,2024-10-01_18h48.27.758,mdp,2024.2.1,Win32,59.52380952,66fa4ebf79326e780c390304,,,,,,,,,,,,,,,,,,,,,779.6037,779.6037,779.6048,785.7206,0,0,left,5.584,,785.7368,786.7049,1,1,right,786.7063,787.2723,1,1,right,0,787.2724,787.2724,787.2737,788.7728,0,19,19,19,1,0.6,0.4,0.4,0.6,,,,,,,,,,,,,,,0.4507,,0.2,0.8,0.8,0.2,0.4,0.6,0.2,0.8,,,0.0305,,0.4,0.6,0.6,0.4,0.4,0.6,0.4,0.6,1,0
,,66072a4c6558917f3f9d5f7f,66fc98231b5408c242b70e94,2024-10-01_18h48.27.758,mdp,2024.2.1,Win32,59.52380952,66fa4ebf79326e780c390304,,,,,,,,,,,,,,,,,,,,,788.7735,788.7735,788.7748,789.3747,1,0,right,0.0776,,789.3772,790.041,1,0,right,790.0424,790.6077,1,0,right,1,790.6079,790.6079,790.6091,792.1093,0,20,20,20,1,0.6,0.4,0.4,0.6,,,,,,,,,,,,,,,0.1339,,0.2,0.8,0.8,0.2,0.4,0.6,0.2,0.8,,,0.0282,,0.4,0.6,0.6,0.4,0.4,0.6,0.4,0.6,1,0
,,66072a4c6558917f3f9d5f7f,66fc98231b5408c242b70e94,2024-10-01_18h48.27.758,mdp,2024.2.1,Win32,59.52380952,66fa4ebf79326e780c390304,,,,,,,,,,,,,,,,,,,,,792.1098,792.1099,792.1108,793.143,1,1,right,0.5024,,793.1447,793.744,1,0,right,793.7451,794.3439,1,1,right,0,794.344,794.344,794.3454,795.8335,0,21,21,21,1,0.6,0.4,0.4,0.6,,,,,,,,,,,,,,,0.0698,,0.2,0.8,0.8,0.2,0.4,0.6,0.2,0.8,,,0.0861,,0.4,0.6,0.6,0.4,0.4,0.6,0.4,0.6,1,0
,,66072a4c6558917f3f9d5f7f,66fc98231b5408c242b70e94,2024-10-01_18h48.27.758,mdp,2024.2.1,Win32,59.52380952,66fa4ebf79326e780c390304,,,,,,,,,,,,,,,,,,,,,795.834,795.834,795.8351,796.4133,0,1,left,0.0544,,796.4146,797.2303,0,0,left,797.2314,797.7974,0,0,left,1,797.7976,797.7976,797.799,799.2982,0,22,22,22,1,0.6,0.4,0.4,0.6,,,,,,,,,,,,,,,0.2884,,0.2,0.8,0.8,0.2,0.4,0.6,0.2,0.8,,,0.0332,,0.4,0.6,0.6,0.4,0.4,0.6,0.4,0.6,1,0
,,66072a4c6558917f3f9d5f7f,66fc98231b5408c242b70e94,2024-10-01_18h48.27.758,mdp,2024.2.1,Win32,59.52380952,66fa4ebf79326e780c390304,,,,,,,,,,,,,,,,,,,,,799.2996,799.2996,799.3007,799.8825,0,1,left,0.0342,,799.8838,800.3992,0,1,left,800.4009,801.0326,0,1,left,0,801.0327,801.0327,801.0342,802.5344,0,23,23,23,1,0.6,0.4,0.4,0.6,,,,,,,,,,,,,,,0.0004,,0.2,0.8,0.8,0.2,0.4,0.6,0.2,0.8,,,0.1035,,0.4,0.6,0.6,0.4,0.4,0.6,0.4,0.6,1,0
,,66072a4c6558917f3f9d5f7f,66fc98231b5408c242b70e94,2024-10-01_18h48.27.758,mdp,2024.2.1,Win32,59.52380952,66fa4ebf79326e780c390304,,,,,,,,,,,,,,,,,,,,,802.535,802.535,802.5361,803.1518,0,0,left,0.085,,803.1533,803.8231,0,0,left,803.8237,804.5033,1,0,right,1,804.5034,804.5034,804.5045,806.0041,0,24,24,24,1,0.6,0.4,0.4,0.6,,,,,,,,,,,,,,,0.1334,,0.2,0.8,0.8,0.2,0.4,0.6,0.2,0.8,,,0.1413,,0.4,0.6,0.6,0.4,0.4,0.6,0.4,0.6,1,0
,,66072a4c6558917f3f9d5f7f,66fc98231b5408c242b70e94,2024-10-01_18h48.27.758,mdp,2024.2.1,Win32,59.52380952,66fa4ebf79326e780c390304,,,,,,,,,,,,,,,,,,,,,806.0048,806.0048,806.006,806.5382,0,0,left,0.0005,,806.5394,807.1879,0,1,left,807.1895,807.8229,0,0,left,1,807.8231,807.8231,807.8256,809.3234,0,25,25,25,1,0.6,0.4,0.4,0.6,,,,,,,,,,,,,,,0.1239,,0.2,0.8,0.8,0.2,0.4,0.6,0.2,0.8,,,0.0902,,0.4,0.6,0.6,0.4,0.4,0.6,0.4,0.6,1,0
,,66072a4c6558917f3f9d5f7f,66fc98231b5408c242b70e94,2024-10-01_18h48.27.758,mdp,2024.2.1,Win32,59.52380952,66fa4ebf79326e780c390304,,,,,,,,,,,,,,,,,,,,,809.3243,809.3243,809.3257,809.9239,0,0,left,0.0768,,809.9253,810.6796,0,0,left,810.6813,811.2411,0,0,left,1,811.2412,811.2412,811.2429,812.743,0,26,26,26,1,0.6,0.4,0.4,0.6,,,,,,,,,,,,,,,0.2502,,0.2,0.8,0.8,0.2,0.4,0.6,0.2,0.8,,,0.0187,,0.4,0.6,0.6,0.4,0.4,0.6,0.4,0.6,1,0
,,66072a4c6558917f3f9d5f7f,66fc98231b5408c242b70e94,2024-10-01_18h48.27.758,mdp,2024.2.1,Win32,59.52380952,66fa4ebf79326e780c390304,,,,,,,,,,,,,,,,,,,,,812.7437,812.7437,812.7449,813.3927,0,0,left,0.1173,,813.3943,813.9104,0,0,left,813.912,814.4274,0,1,left,0,814.4275,814.4275,814.4285,815.9167,0,27,27,27,1,0.6,0.4,0.4,0.6,,,,,,,,,,,,,,,0.0048,,0.2,0.8,0.8,0.2,0.4,0.6,0.2,0.8,,,0.0055,,0.4,0.6,0.6,0.4,0.4,0.6,0.4,0.6,1,0
,,66072a4c6558917f3f9d5f7f,66fc98231b5408c242b70e94,2024-10-01_18h48.27.758,mdp,2024.2.1,Win32,59.52380952,66fa4ebf79326e780c390304,,,,,,,,,,,,,,,,,,,,,815.9171,815.9171,815.9179,816.5632,0,0,left,0.1247,,816.5651,817.1966,0,1,left,817.1978,817.7474,0,0,left,1,817.7474,817.7474,817.7485,819.2481,0,28,28,28,1,0.6,0.4,0.4,0.6,,,,,,,,,,,,,,,0.1031,,0.2,0.8,0.8,0.2,0.4,0.6,0.2,0.8,,,0.0251,,0.4,0.6,0.6,0.4,0.4,0.6,0.4,0.6,1,0
,,66072a4c6558917f3f9d5f7f,66fc98231b5408c242b70e94,2024-10-01_18h48.27.758,mdp,2024.2.1,Win32,59.52380952,66fa4ebf79326e780c390304,,,,,,,,,,,,,,,,,,,,,819.2486,819.2486,819.2496,819.8995,0,1,left,0.1256,,819.9009,820.4995,0,1,left,820.5009,821.1326,0,0,left,1,821.1328,821.1328,821.1347,822.6347,0,29,29,29,1,0.6,0.4,0.4,0.6,,,,,,,,,,,,,,,0.0592,,0.2,0.8,0.8,0.2,0.4,0.6,0.2,0.8,,,0.117,,0.4,0.6,0.6,0.4,0.4,0.6,0.4,0.6,1,0
,,66072a4c6558917f3f9d5f7f,66fc98231b5408c242b70e94,2024-10-01_18h48.27.758,mdp,2024.2.1,Win32,59.52380952,66fa4ebf79326e780c390304,,,,,,,,,,,,,,,,,,,,,822.6353,822.6353,822.6365,823.2896,0,0,left,0.1328,,823.2904,823.9514,0,1,left,823.9527,824.5691,0,1,left,0,824.5693,824.5693,824.5704,826.07,0,30,30,30,1,0.6,0.4,0.4,0.6,,,,,,,,,,,,,,,0.1169,,0.2,0.8,0.8,0.2,0.4,0.6,0.2,0.8,,,0.1039,,0.4,0.6,0.6,0.4,0.4,0.6,0.4,0.6,1,0
,,66072a4c6558917f3f9d5f7f,66fc98231b5408c242b70e94,2024-10-01_18h48.27.758,mdp,2024.2.1,Win32,59.52380952,66fa4ebf79326e780c390304,,,,,,,,,,,,,,,,,,,,,826.0707,826.0707,826.0721,826.788,0,0,left,0.2051,,826.7892,827.3719,0,0,left,827.3734,827.9213,0,0,left,1,827.9213,827.9213,827.9227,829.4232,0,31,31,31,1,0.6,0.4,0.4,0.6,,,,,,,,,,,,,,,0.073,,0.2,0.8,0.8,0.2,0.4,0.6,0.2,0.8,,,0.0109,,0.4,0.6,0.6,0.4,0.6,0.4,0.2,0.8,1,0
,,66072a4c6558917f3f9d5f7f,66fc98231b5408c242b70e94,2024-10-01_18h48.27.758,mdp,2024.2.1,Win32,59.52380952,66fa4ebf79326e780c390304,,,,,,,,,,,,,,,,,,,,,829.4238,829.4238,829.4246,829.9579,0,0,left,0.0077,,829.9594,830.5783,0,1,left,830.579,831.1585,0,1,left,0,831.1586,831.1586,831.1595,832.6594,0,32,32,32,1,0.6,0.4,0.4,0.6,,,,,,,,,,,,,,,0.0993,,0.2,0.8,0.8,0.2,0.4,0.6,0.2,0.8,,,0.0341,,0.4,0.6,0.6,0.4,0.6,0.4,0.2,0.8,1,0
,,66072a4c6558917f3f9d5f7f,66fc98231b5408c242b70e94,2024-10-01_18h48.27.758,mdp,2024.2.1,Win32,59.52380952,66fa4ebf79326e780c390304,,,,,,,,,,,,,,,,,,,,,832.6599,832.6599,832.661,833.2762,0,0,left,0.0953,,833.2776,833.8764,0,1,left,833.8781,834.4614,0,0,left,1,834.4616,834.4616,834.4632,835.9614,0,33,33,33,1,0.6,0.4,0.4,0.6,,,,,,,,,,,,,,,0.0859,,0.2,0.8,0.8,0.2,0.4,0.6,0.2,0.8,,,0.0691,,0.4,0.6,0.6,0.4,0.6,0.4,0.2,0.8,1,0
,,66072a4c6558917f3f9d5f7f,66fc98231b5408c242b70e94,2024-10-01_18h48.27.758,mdp,2024.2.1,Win32,59.52380952,66fa4ebf79326e780c390304,,,,,,,,,,,,,,,,,,,,,835.9624,835.9624,835.9639,836.6294,0,1,left,0.1592,,836.6309,837.2301,0,1,left,837.2311,837.8183,0,0,left,1,837.8184,837.8184,837.8197,839.3152,0,34,34,34,1,0.6,0.4,0.4,0.6,,,,,,,,,,,,,,,0.068,,0.2,0.8,0.8,0.2,0.4,0.6,0.2,0.8,,,0.0667,,0.4,0.6,0.6,0.4,0.6,0.4,0.2,0.8,1,0
,,66072a4c6558917f3f9d5f7f,66fc98231b5408c242b70e94,2024-10-01_18h48.27.758,mdp,2024.2.1,Win32,59.52380952,66fa4ebf79326e780c390304,,,,,,,,,,,,,,,,,,,,,839.3158,839.3158,839.3171,840.0151,0,0,left,0.1673,,840.0167,840.6492,0,0,left,840.6504,841.25,0,1,left,0,841.2502,841.2502,841.2515,842.7393,0,35,35,35,1,0.8,0.2,0.8,0.2,,,,,,,,,,,,,,,0.1006,,0.2,0.8,0.8,0.2,0.4,0.6,0.2,0.8,,,0.0776,,0.4,0.6,0.6,0.4,0.6,0.4,0.2,0.8,1,0
,,66072a4c6558917f3f9d5f7f,66fc98231b5408c242b70e94,2024-10-01_18h48.27.758,mdp,2024.2.1,Win32,59.52380952,66fa4ebf79326e780c390304,,,,,,,,,,,,,,,,,,,,,842.7399,842.7399,842.7412,843.3179,0,0,left,0.0493,,843.3191,843.9357,0,1,left,843.9371,844.5694,0,0,left,1,844.5695,844.5696,844.5708,846.07,0,36,36,36,1,0.8,0.2,0.8,0.2,,,,,,,,,,,,,,,0.0867,,0.2,0.8,0.8,0.2,0.4,0.6,0.2,0.8,,,0.0895,,0.4,0.6,0.6,0.4,0.6,0.4,0.2,0.8,1,0
,,66072a4c6558917f3f9d5f7f,66fc98231b5408c242b70e94,2024-10-01_18h48.27.758,mdp,2024.2.1,Win32,59.52380952,66fa4ebf79326e780c390304,,,,,,,,,,,,,,,,,,,,,846.071,846.071,846.0731,846.6871,0,1,left,0.0873,,846.6891,847.2883,0,0,left,847.2897,847.8933,0,0,left,1,847.8933,847.8933,847.8944,849.3943,0,37,37,37,1,0.4,0.6,0.6,0.4,,,,,,,,,,,,,,,0.0703,,0.2,0.8,0.8,0.2,0.4,0.6,0.2,0.8,,,0.0834,,0.4,0.6,0.6,0.4,0.6,0.4,0.2,0.8,1,0
,,66072a4c6558917f3f9d5f7f,66fc98231b5408c242b70e94,2024-10-01_18h48.27.758,mdp,2024.2.1,Win32,59.52380952,66fa4ebf79326e780c390304,,,,,,,,,,,,,,,,,,,,,849.3947,849.3947,849.3958,850.0408,0,1,left,0.1139,,850.0434,850.8079,0,0,left,850.8092,851.5244,0,1,left,0,851.5244,851.5245,851.5261,853.0258,0,38,38,38,1,0.4,0.6,0.6,0.4,,,,,,,,,,,,,,,0.2423,,0.2,0.8,0.8,0.2,0.4,0.6,0.2,0.8,,,0.2077,,0.4,0.6,0.6,0.4,0.6,0.4,0.2,0.8,1,0
,,66072a4c6558917f3f9d5f7f,66fc98231b5408c242b70e94,2024-10-01_18h48.27.758,mdp,2024.2.1,Win32,59.52380952,66fa4ebf79326e780c390304,,,,,,,,,,,,,,,,,,,,,853.0266,853.0266,853.0279,853.6429,0,1,left,0.0837,,853.6446,854.2149,0,0,left,854.2157,854.744,0,1,left,0,854.7441,854.7441,854.7454,856.2452,0,39,39,39,1,0.4,0.6,0.6,0.4,,,,,,,,,,,,,,,0.0668,,0.2,0.8,0.8,0.2,0.4,0.6,0.2,0.8,,,0.0088,,0.4,0.6,0.6,0.4,0.6,0.4,0.2,0.8,1,0
,,66072a4c6558917f3f9d5f7f,66fc98231b5408c242b70e94,2024-10-01_18h48.27.758,mdp,2024.2.1,Win32,59.52380952,66fa4ebf79326e780c390304,,,,,,,,,,,,,,,,,,,,,856.2459,856.2459,856.2473,856.7954,0,0,left,0.0222,,856.7967,857.5965,0,1,left,857.5979,858.2804,0,1,left,0,858.2805,858.2805,858.2821,859.7693,0,40,40,40,1,0.4,0.6,0.6,0.4,,,,,,,,,,,,,,,0.267,,0.2,0.8,0.8,0.2,0.4,0.6,0.2,0.8,,,0.1553,,0.4,0.6,0.6,0.4,0.6,0.4,0.2,0.8,1,0
,,66072a4c6558917f3f9d5f7f,66fc98231b5408c242b70e94,2024-10-01_18h48.27.758,mdp,2024.2.1,Win32,59.52380952,66fa4ebf79326e780c390304,,,,,,,,,,,,,,,,,,,,,859.7696,859.7696,859.7702,860.6203,0,0,left,0.3338,,860.6214,861.3832,0,1,left,861.3846,861.9993,0,0,left,1,861.9994,861.9994,862.0007,863.5017,0,41,41,41,1,0.4,0.6,0.6,0.4,,,,,,,,,,,,,,,0.2418,,0.2,0.8,0.8,0.2,0.4,0.6,0.2,0.8,,,0.1095,,0.4,0.6,0.6,0.4,0.6,0.4,0.2,0.8,1,0
,,66072a4c6558917f3f9d5f7f,66fc98231b5408c242b70e94,2024-10-01_18h48.27.758,mdp,2024.2.1,Win32,59.52380952,66fa4ebf79326e780c390304,,,,,,,,,,,,,,,,,,,,,863.5024,863.5024,863.5033,864.0346,0,1,left,0.004,,864.0363,864.6196,0,1,left,864.6212,865.22,0,1,left,0,865.2201,865.2202,865.2215,866.721,0,42,42,42,1,0.4,0.6,0.6,0.4,,,,,,,,,,,,,,,0.0561,,0.2,0.8,0.8,0.2,0.4,0.6,0.2,0.8,,,0.0838,,0.4,0.6,0.6,0.4,0.6,0.4,0.2,0.8,1,0
,,66072a4c6558917f3f9d5f7f,66fc98231b5408c242b70e94,2024-10-01_18h48.27.758,mdp,2024.2.1,Win32,59.52380952,66fa4ebf79326e780c390304,,,,,,,,,,,,,,,,,,,,,866.7221,866.7221,866.723,867.4373,0,0,left,0.1886,,867.4389,868.0926,0,1,left,868.0931,869.1888,0,0,left,1,869.1889,869.1889,869.1902,870.6909,0,43,43,43,1,0.4,0.6,0.6,0.4,,,,,,,,,,,,,,,0.1332,,0.2,0.8,0.8,0.2,0.6,0.4,0.4,0.6,,,0.5684,,0.4,0.6,0.6,0.4,0.6,0.4,0.2,0.8,1,0
,,66072a4c6558917f3f9d5f7f,66fc98231b5408c242b70e94,2024-10-01_18h48.27.758,mdp,2024.2.1,Win32,59.52380952,66fa4ebf79326e780c390304,,,,,,,,,,,,,,,,,,,,,870.6913,870.6913,870.692,871.2248,0,0,left,0.0004,,871.2256,871.8418,0,1,left,871.8427,872.547,0,1,left,0,872.5471,872.5471,872.5483,874.0428,0,44,44,44,1,0.4,0.6,0.6,0.4,,,,,,,,,,,,,,,0.0841,,0.2,0.8,0.8,0.2,0.6,0.4,0.4,0.6,,,0.2005,,0.8,0.2,0.4,0.6,0.6,0.4,0.2,0.8,1,0
,,66072a4c6558917f3f9d5f7f,66fc98231b5408c242b70e94,2024-10-01_18h48.27.758,mdp,2024.2.1,Win32,59.52380952,66fa4ebf79326e780c390304,,,,,,,,,,,,,,,,,,,,,874.0437,874.0438,874.045,879.1146,0,1,left,4.5391,,879.1272,883.3846,0,0,left,883.397,884.2396,0,1,left,0,884.2396,884.2396,884.2404,885.7358,0,45,45,45,1,0.4,0.6,0.6,0.4,,,,,,,,,,,,,,,3.7364,,0.2,0.8,0.8,0.2,0.6,0.4,0.4,0.6,,,0.3335,,0.8,0.2,0.4,0.6,0.6,0.4,0.2,0.8,1,0
,,66072a4c6558917f3f9d5f7f,66fc98231b5408c242b70e94,2024-10-01_18h48.27.758,mdp,2024.2.1,Win32,59.52380952,66fa4ebf79326e780c390304,,,,,,,,,,,,,,,,,,,,,885.7367,885.7367,885.738,889.7901,0,0,left,3.5264,,889.8056,891.5579,0,1,left,891.5592,892.5758,0,0,left,1,892.5759,892.5759,892.577,894.0769,0,46,46,46,1,0.4,0.6,0.6,0.4,,,,,,,,,,,,,,,1.2406,,0.2,0.8,0.8,0.2,0.6,0.4,0.4,0.6,,,0.4695,,0.8,0.2,0.4,0.6,0.6,0.4,0.2,0.8,1,0
,,66072a4c6558917f3f9d5f7f,66fc98231b5408c242b70e94,2024-10-01_18h48.27.758,mdp,2024.2.1,Win32,59.52380952,66fa4ebf79326e780c390304,,,,,,,,,,,,,,,,,,,,,894.0778,894.0779,894.0791,894.6108,0,1,left,0.001,,894.613,895.211,0,0,left,895.2121,895.7943,0,0,left,1,895.7944,895.7944,895.7958,897.2958,0,47,47,47,1,0.4,0.6,0.6,0.4,,,,,,,,,,,,,,,0.0506,,0.2,0.8,0.8,0.2,0.6,0.4,0.4,0.6,,,0.0413,,0.8,0.2,0.4,0.6,0.6,0.4,0.2,0.8,1,0
,,66072a4c6558917f3f9d5f7f,66fc98231b5408c242b70e94,2024-10-01_18h48.27.758,mdp,2024.2.1,Win32,59.52380952,66fa4ebf79326e780c390304,,,,,,,,,,,,,,,,,,,,,897.2964,897.2964,897.2977,897.8294,0,1,left,0.0045,,897.8306,898.3804,1,0,right,898.3817,898.9313,1,0,right,1,898.9314,898.9314,898.9332,900.432,0,48,48,48,1,0.6,0.4,0.4,0.6,,,,,,,,,,,,,,,0.0417,,0.2,0.8,0.8,0.2,0.6,0.4,0.4,0.6,,,0.0332,,0.8,0.2,0.4,0.6,0.6,0.4,0.2,0.8,1,0
,,66072a4c6558917f3f9d5f7f,66fc98231b5408c242b70e94,2024-10-01_18h48.27.758,mdp,2024.2.1,Win32,59.52380952,66fa4ebf79326e780c390304,,,,,,,,,,,,,,,,,,,,,900.4323,900.4323,900.4332,901.0319,1,1,right,0.0685,,901.0337,901.5486,1,0,right,901.5502,902.0669,1,0,right,1,902.067,902.067,902.0678,903.5674,0,49,49,49,1,0.6,0.4,0.4,0.6,,,,,,,,,,,,,,,0.0004,,0.2,0.8,0.8,0.2,0.6,0.4,0.4,0.6,,,0.0057,,0.8,0.2,0.4,0.6,0.6,0.4,0.2,0.8,1,0
,,66072a4c6558917f3f9d5f7f,66fc98231b5408c242b70e94,2024-10-01_18h48.27.758,mdp,2024.2.1,Win32,59.52380952,66fa4ebf79326e780c390304,,,,,,,,,,,,,,,,,,,,,,,,,,,,,,,,,,,,,,,,,,,,,,,,,,,,,,,,903.5676,962.083,0,2,2,8,1,imgs/elephant.png,imgs/giraffe.png,imgs/bear.png,imgs/kangaroo.png,imgs/goat.png,,,,,,,,,,,,,,,,,,,,,,,,
,,66072a4c6558917f3f9d5f7f,66fc98231b5408c242b70e94,2024-10-01_18h48.27.758,mdp,2024.2.1,Win32,59.52380952,66fa4ebf79326e780c390304,,,,,,,,,,,,,,3,seqs/st3seq16.csv,962.1002,986.2355,space,23.6141,,986.2566,986.2566,986.2575,988.008,0,0,left,1.2175,,988.0088,988.7716,0,1,left,988.7733,989.3552,0,0,left,1,989.3553,989.3554,989.3564,990.8564,0,0,0,0,1,0.4,0.6,0.6,0.4,,,,,,,,,,,,,,,0.2196,,0.8,0.2,0.2,0.8,0.2,0.8,0.8,0.2,,,0.0539,,0.4,0.6,0.8,0.2,0.8,0.2,0.6,0.4,1,0
,,66072a4c6558917f3f9d5f7f,66fc98231b5408c242b70e94,2024-10-01_18h48.27.758,mdp,2024.2.1,Win32,59.52380952,66fa4ebf79326e780c390304,,,,,,,,,,,,,,,,,,,,,990.857,990.857,990.8581,991.5896,0,1,left,0.2105,,991.5916,993.7592,0,1,left,993.7603,994.3928,0,0,left,1,994.393,994.3931,994.3941,995.8981,0,1,1,1,1,0.4,0.6,0.6,0.4,,,,,,,,,,,,,,,1.6452,,0.8,0.2,0.2,0.8,0.2,0.8,0.8,0.2,,,0.1059,,0.4,0.6,0.8,0.2,0.8,0.2,0.6,0.4,1,0
,,66072a4c6558917f3f9d5f7f,66fc98231b5408c242b70e94,2024-10-01_18h48.27.758,mdp,2024.2.1,Win32,59.52380952,66fa4ebf79326e780c390304,,,,,,,,,,,,,,,,,,,,,995.8985,995.8985,995.8993,996.4435,0,1,left,0.0223,,996.4451,997.0274,0,1,left,997.0294,997.7621,0,0,left,1,997.7623,997.7623,997.7652,999.2503,0,2,2,2,1,0.4,0.6,0.6,0.4,,,,,,,,,,,,,,,0.0778,,0.8,0.2,0.2,0.8,0.2,0.8,0.8,0.2,,,0.2226,,0.4,0.6,0.8,0.2,0.8,0.2,0.6,0.4,1,0
,,66072a4c6558917f3f9d5f7f,66fc98231b5408c242b70e94,2024-10-01_18h48.27.758,mdp,2024.2.1,Win32,59.52380952,66fa4ebf79326e780c390304,,,,,,,,,,,,,,,,,,,,,999.2505,999.2506,999.2512,999.9967,0,1,left,0.2049,,999.9981,1000.5478,0,1,left,1000.5494,1001.181,0,0,left,1,1001.181,1001.181,1001.1821,1002.6824,0,3,3,3,1,0.4,0.6,0.6,0.4,,,,,,,,,,,,,,,0.0344,,0.8,0.2,0.2,0.8,0.2,0.8,0.8,0.2,,,0.1064,,0.4,0.6,0.8,0.2,0.8,0.2,0.6,0.4,1,0
,,66072a4c6558917f3f9d5f7f,66fc98231b5408c242b70e94,2024-10-01_18h48.27.758,mdp,2024.2.1,Win32,59.52380952,66fa4ebf79326e780c390304,,,,,,,,,,,,,,,,,,,,,1002.6831,1002.6831,1002.6842,1003.5334,0,1,left,0.3226,,1003.5345,1004.3887,0,1,left,1004.3893,1005.7513,1,0,right,1,1005.7514,1005.7514,1005.7528,1007.2536,0,4,4,4,1,0.4,0.6,0.6,0.4,,,,,,,,,,,,,,,0.3506,,0.8,0.2,0.2,0.8,0.2,0.8,0.8,0.2,,,0.8365,,0.4,0.6,0.8,0.2,0.8,0.2,0.6,0.4,1,0
,,66072a4c6558917f3f9d5f7f,66fc98231b5408c242b70e94,2024-10-01_18h48.27.758,mdp,2024.2.1,Win32,59.52380952,66fa4ebf79326e780c390304,,,,,,,,,,,,,,,,,,,,,1007.2545,1007.2546,1007.2558,1008.0209,1,0,right,0.235,,1008.0224,1008.7879,0,1,left,1008.7892,1011.9409,0,0,left,1,1011.9411,1011.9411,1011.9422,1013.4408,0,5,5,5,1,0.4,0.6,0.6,0.4,,,,,,,,,,,,,,,0.2281,,0.8,0.2,0.2,0.8,0.2,0.8,0.8,0.2,,,2.6365,,0.4,0.6,0.8,0.2,0.8,0.2,0.6,0.4,1,0
,,66072a4c6558917f3f9d5f7f,66fc98231b5408c242b70e94,2024-10-01_18h48.27.758,mdp,2024.2.1,Win32,59.52380952,66fa4ebf79326e780c390304,,,,,,,,,,,,,,,,,,,,,1013.4413,1013.4413,1013.4427,1014.1424,0,0,left,0.1956,,1014.1437,1014.7588,0,0,left,1014.7603,1015.2812,0,1,left,0,1015.2812,1015.2812,1015.2818,1016.7778,0,6,6,6,1,0.4,0.6,0.6,0.4,,,,,,,,,,,,,,,0.1008,,0.8,0.2,0.2,0.8,0.2,0.8,0.8,0.2,,,0.0004,,0.4,0.6,0.8,0.2,0.8,0.2,0.6,0.4,1,0
,,66072a4c6558917f3f9d5f7f,66fc98231b5408c242b70e94,2024-10-01_18h48.27.758,mdp,2024.2.1,Win32,59.52380952,66fa4ebf79326e780c390304,,,,,,,,,,,,,,,,,,,,,1016.7786,1016.7786,1016.7796,1017.6621,0,1,left,0.3627,,1017.6643,1018.1836,1,0,right,1018.1845,1018.7787,1,0,right,1,1018.7788,1018.7788,1018.7804,1020.268,0,7,7,7,1,0.4,0.6,0.6,0.4,,,,,,,,,,,,,,,0.0004,,0.8,0.2,0.2,0.8,0.2,0.8,0.8,0.2,,,0.0681,,0.4,0.6,0.8,0.2,0.8,0.2,0.6,0.4,1,0
,,66072a4c6558917f3f9d5f7f,66fc98231b5408c242b70e94,2024-10-01_18h48.27.758,mdp,2024.2.1,Win32,59.52380952,66fa4ebf79326e780c390304,,,,,,,,,,,,,,,,,,,,,1020.2684,1020.2684,1020.269,1020.9989,0,0,left,0.2069,,1021.0015,1021.6648,0,0,left,1021.6662,1022.4323,0,0,left,1,1022.4324,1022.4324,1022.4334,1023.9331,0,8,8,8,1,0.4,0.6,0.6,0.4,,,,,,,,,,,,,,,0.121,,0.8,0.2,0.2,0.8,0.2,0.8,0.8,0.2,,,0.2518,,0.4,0.6,0.8,0.2,0.8,0.2,0.6,0.4,1,0
,,66072a4c6558917f3f9d5f7f,66fc98231b5408c242b70e94,2024-10-01_18h48.27.758,mdp,2024.2.1,Win32,59.52380952,66fa4ebf79326e780c390304,,,,,,,,,,,,,,,,,,,,,1023.9338,1023.9338,1023.9351,1024.5052,0,0,left,0.0503,,1024.5063,1025.1021,1,1,right,1025.1034,1025.8519,0,0,left,1,1025.852,1025.852,1025.8532,1027.3534,0,9,9,9,1,0.4,0.6,0.6,0.4,,,,,,,,,,,,,,,0.0685,,0.8,0.2,0.2,0.8,0.2,0.8,0.8,0.2,,,0.2013,,0.4,0.6,0.8,0.2,0.4,0.6,0.4,0.6,1,0
,,66072a4c6558917f3f9d5f7f,66fc98231b5408c242b70e94,2024-10-01_18h48.27.758,mdp,2024.2.1,Win32,59.52380952,66fa4ebf79326e780c390304,,,,,,,,,,,,,,,,,,,,,1027.3543,1027.3544,1027.3556,1028.1039,0,1,left,0.2176,,1028.1053,1028.6869,0,1,left,1028.6887,1029.3874,0,0,left,1,1029.3875,1029.3875,1029.3891,1030.8895,0,10,10,10,1,0.4,0.6,0.6,0.4,,,,,,,,,,,,,,,0.0513,,0.8,0.2,0.2,0.8,0.2,0.8,0.8,0.2,,,0.1835,,0.4,0.6,0.8,0.2,0.4,0.6,0.4,0.6,1,0
,,66072a4c6558917f3f9d5f7f,66fc98231b5408c242b70e94,2024-10-01_18h48.27.758,mdp,2024.2.1,Win32,59.52380952,66fa4ebf79326e780c390304,,,,,,,,,,,,,,,,,,,,,1030.8899,1030.8899,1030.891,1031.7906,0,1,left,0.3495,,1031.7919,1032.4414,0,1,left,1032.4434,1033.2249,0,1,left,0,1033.225,1033.225,1033.2258,1034.7257,0,11,11,11,1,0.4,0.6,0.6,0.4,,,,,,,,,,,,,,,0.1043,,0.8,0.2,0.2,0.8,0.2,0.8,0.8,0.2,,,0.2595,,0.4,0.6,0.8,0.2,0.4,0.6,0.4,0.6,1,0
,,66072a4c6558917f3f9d5f7f,66fc98231b5408c242b70e94,2024-10-01_18h48.27.758,mdp,2024.2.1,Win32,59.52380952,66fa4ebf79326e780c390304,,,,,,,,,,,,,,,,,,,,,1034.7262,1034.7262,1034.7269,1035.3135,1,0,right,0.0826,,1035.3143,1035.9939,1,1,right,1035.9951,1036.627,1,1,right,0,1036.6272,1036.6272,1036.6285,1038.1282,0,12,12,12,1,0.4,0.6,0.6,0.4,,,,,,,,,,,,,,,0.1385,,0.8,0.2,0.2,0.8,0.2,0.8,0.8,0.2,,,0.1002,,0.4,0.6,0.8,0.2,0.4,0.6,0.4,0.6,1,0
,,66072a4c6558917f3f9d5f7f,66fc98231b5408c242b70e94,2024-10-01_18h48.27.758,mdp,2024.2.1,Win32,59.52380952,66fa4ebf79326e780c390304,,,,,,,,,,,,,,,,,,,,,1038.1289,1038.1289,1038.13,1038.8452,1,0,right,0.1909,,1038.8467,1039.5958,1,1,right,1039.5979,1040.1297,1,0,right,1,1040.1298,1040.1298,1040.1314,1041.6313,0,13,13,13,1,0.4,0.6,0.6,0.4,,,,,,,,,,,,,,,0.2173,,0.8,0.2,0.2,0.8,0.2,0.8,0.8,0.2,,,0.0167,,0.4,0.6,0.8,0.2,0.8,0.2,0.6,0.4,1,0
,,66072a4c6558917f3f9d5f7f,66fc98231b5408c242b70e94,2024-10-01_18h48.27.758,mdp,2024.2.1,Win32,59.52380952,66fa4ebf79326e780c390304,,,,,,,,,,,,,,,,,,,,,1041.6318,1041.6318,1041.6327,1042.1986,0,1,left,0.0403,,1042.2,1042.816,1,0,right,1042.8174,1043.4491,0,1,left,0,1043.4492,1043.4493,1043.4508,1044.9502,0,14,14,14,1,0.4,0.6,0.6,0.4,,,,,,,,,,,,,,,0.0833,,0.8,0.2,0.2,0.8,0.2,0.8,0.8,0.2,,,0.0906,,0.4,0.6,0.8,0.2,0.8,0.2,0.6,0.4,1,0
,,66072a4c6558917f3f9d5f7f,66fc98231b5408c242b70e94,2024-10-01_18h48.27.758,mdp,2024.2.1,Win32,59.52380952,66fa4ebf79326e780c390304,,,,,,,,,,,,,,,,,,,,,1044.9509,1044.9509,1044.9522,1045.6186,0,0,left,0.159,,1045.6202,1046.1732,0,1,left,1046.1742,1046.9019,0,0,left,1,1046.902,1046.902,1046.9031,1048.4032,0,15,15,15,1,0.4,0.6,0.6,0.4,,,,,,,,,,,,,,,0.0169,,0.4,0.6,0.4,0.6,0.2,0.8,0.8,0.2,,,0.1834,,0.4,0.6,0.8,0.2,0.8,0.2,0.6,0.4,1,0
,,66072a4c6558917f3f9d5f7f,66fc98231b5408c242b70e94,2024-10-01_18h48.27.758,mdp,2024.2.1,Win32,59.52380952,66fa4ebf79326e780c390304,,,,,,,,,,,,,,,,,,,,,1048.404,1048.404,1048.4052,1049.0254,1,1,right,0.1005,,1049.0262,1049.5757,1,0,right,1049.5767,1050.1605,0,1,left,0,1050.1606,1050.1606,1050.162,1051.6564,0,16,16,16,1,0.4,0.6,0.6,0.4,,,,,,,,,,,,,,,0.0169,,0.4,0.6,0.4,0.6,0.2,0.8,0.8,0.2,,,0.0509,,0.2,0.8,0.6,0.4,0.8,0.2,0.6,0.4,1,0
,,66072a4c6558917f3f9d5f7f,66fc98231b5408c242b70e94,2024-10-01_18h48.27.758,mdp,2024.2.1,Win32,59.52380952,66fa4ebf79326e780c390304,,,,,,,,,,,,,,,,,,,,,1051.657,1051.657,1051.6579,1052.4908,1,0,right,0.3064,,1052.4923,1053.0745,1,1,right,1053.0754,1053.6584,0,0,left,1,1053.6586,1053.6586,1053.6599,1055.1592,0,17,17,17,1,0.4,0.6,0.6,0.4,,,,,,,,,,,,,,,0.04,,0.4,0.6,0.4,0.6,0.2,0.8,0.8,0.2,,,0.0511,,0.2,0.8,0.6,0.4,0.8,0.2,0.6,0.4,1,0
,,66072a4c6558917f3f9d5f7f,66fc98231b5408c242b70e94,2024-10-01_18h48.27.758,mdp,2024.2.1,Win32,59.52380952,66fa4ebf79326e780c390304,,,,,,,,,,,,,,,,,,,,,1055.1597,1055.1597,1055.1609,1055.8433,0,1,left,0.1551,,1055.8446,1056.3814,0,1,left,1056.3821,1057.0278,1,0,right,1,1057.028,1057.028,1057.0293,1058.5299,0,18,18,18,1,0.4,0.6,0.6,0.4,,,,,,,,,,,,,,,0.0003,,0.4,0.6,0.4,0.6,0.2,0.8,0.8,0.2,,,0.1232,,0.2,0.8,0.6,0.4,0.8,0.2,0.6,0.4,1,0
,,66072a4c6558917f3f9d5f7f,66fc98231b5408c242b70e94,2024-10-01_18h48.27.758,mdp,2024.2.1,Win32,59.52380952,66fa4ebf79326e780c390304,,,,,,,,,,,,,,,,,,,,,1058.5302,1058.5302,1058.5308,1059.1289,0,0,left,0.0802,,1059.1304,1059.7624,0,0,left,1059.7638,1060.4306,1,1,right,0,1060.4306,1060.4307,1060.4319,1061.9189,0,19,19,19,1,0.4,0.6,0.6,0.4,,,,,,,,,,,,,,,0.1004,,0.4,0.6,0.4,0.6,0.2,0.8,0.8,0.2,,,0.1424,,0.2,0.8,0.6,0.4,0.8,0.2,0.6,0.4,1,0
,,66072a4c6558917f3f9d5f7f,66fc98231b5408c242b70e94,2024-10-01_18h48.27.758,mdp,2024.2.1,Win32,59.52380952,66fa4ebf79326e780c390304,,,,,,,,,,,,,,,,,,,,,1061.9193,1061.9193,1061.92,1062.4817,1,0,right,0.0349,,1062.4834,1063.0152,0,0,left,1063.017,1063.6163,1,1,right,0,1063.6164,1063.6164,1063.6177,1065.1172,0,20,20,20,1,0.4,0.6,0.6,0.4,,,,,,,,,,,,,,,0.018,,0.4,0.6,0.4,0.6,0.2,0.8,0.8,0.2,,,0.0936,,0.4,0.6,0.2,0.8,0.8,0.2,0.6,0.4,1,0
,,66072a4c6558917f3f9d5f7f,66fc98231b5408c242b70e94,2024-10-01_18h48.27.758,mdp,2024.2.1,Win32,59.52380952,66fa4ebf79326e780c390304,,,,,,,,,,,,,,,,,,,,,1065.1177,1065.1177,1065.1185,1065.6516,1,1,right,0.0005,,1065.6532,1066.2187,0,1,left,1066.2197,1066.8356,0,0,left,1,1066.8358,1066.8358,1066.837,1068.3368,0,21,21,21,1,0.4,0.6,0.6,0.4,,,,,,,,,,,,,,,0.0271,,0.4,0.6,0.4,0.6,0.2,0.8,0.8,0.2,,,0.0666,,0.4,0.6,0.2,0.8,0.8,0.2,0.6,0.4,1,0
,,66072a4c6558917f3f9d5f7f,66fc98231b5408c242b70e94,2024-10-01_18h48.27.758,mdp,2024.2.1,Win32,59.52380952,66fa4ebf79326e780c390304,,,,,,,,,,,,,,,,,,,,,1068.3373,1068.3373,1068.3383,1068.8869,1,1,right,0.0274,,1068.8886,1069.5705,1,1,right,1069.5719,1070.2887,1,0,right,1,1070.2887,1070.2887,1070.2901,1071.789,0,22,22,22,1,0.4,0.6,0.6,0.4,,,,,,,,,,,,,,,0.1768,,0.4,0.6,0.4,0.6,0.2,0.8,0.8,0.2,,,0.2063,,0.4,0.6,0.2,0.8,0.8,0.2,0.6,0.4,1,0
,,66072a4c6558917f3f9d5f7f,66fc98231b5408c242b70e94,2024-10-01_18h48.27.758,mdp,2024.2.1,Win32,59.52380952,66fa4ebf79326e780c390304,,,,,,,,,,,,,,,,,,,,,1071.7898,1071.7898,1071.7911,1072.4396,0,0,left,0.1385,,1072.4412,1072.9741,0,1,left,1072.9753,1073.4916,0,0,left,1,1073.4917,1073.4917,1073.4931,1074.9916,0,23,23,23,1,0.4,0.6,0.6,0.4,,,,,,,,,,,,,,,0.0059,,0.4,0.6,0.4,0.6,0.2,0.8,0.8,0.2,,,0.0005,,0.4,0.6,0.2,0.8,0.8,0.2,0.6,0.4,1,0
,,66072a4c6558917f3f9d5f7f,66fc98231b5408c242b70e94,2024-10-01_18h48.27.758,mdp,2024.2.1,Win32,59.52380952,66fa4ebf79326e780c390304,,,,,,,,,,,,,,,,,,,,,1074.9921,1074.9921,1074.9932,1075.7256,0,0,left,0.2167,,1075.7271,1076.4266,0,1,left,1076.4281,1076.9433,1,1,right,0,1076.9433,1076.9433,1076.9445,1078.4452,0,24,24,24,1,0.4,0.6,0.6,0.4,,,,,,,,,,,,,,,0.1858,,0.4,0.6,0.4,0.6,0.2,0.8,0.8,0.2,,,0.0118,,0.4,0.6,0.2,0.8,0.8,0.2,0.6,0.4,1,0
,,66072a4c6558917f3f9d5f7f,66fc98231b5408c242b70e94,2024-10-01_18h48.27.758,mdp,2024.2.1,Win32,59.52380952,66fa4ebf79326e780c390304,,,,,,,,,,,,,,,,,,,,,1078.4457,1078.4457,1078.4465,1079.0295,0,1,left,0.0535,,1079.0304,1079.7288,1,0,right,1079.7305,1080.447,1,1,right,0,1080.4473,1080.4473,1080.4484,1081.9484,0,25,25,25,1,0.4,0.6,0.6,0.4,,,,,,,,,,,,,,,0.1576,,0.4,0.6,0.4,0.6,0.2,0.8,0.8,0.2,,,0.1873,,0.4,0.6,0.2,0.8,0.8,0.2,0.6,0.4,1,0
,,66072a4c6558917f3f9d5f7f,66fc98231b5408c242b70e94,2024-10-01_18h48.27.758,mdp,2024.2.1,Win32,59.52380952,66fa4ebf79326e780c390304,,,,,,,,,,,,,,,,,,,,,1081.9496,1081.9496,1081.9509,1082.5483,0,1,left,0.0751,,1082.5497,1083.0656,0,1,left,1083.0668,1083.5875,1,0,right,1,1083.5875,1083.5875,1083.5882,1085.0838,0,26,26,26,1,0.4,0.6,0.6,0.4,,,,,,,,,,,,,,,0.0003,,0.4,0.6,0.4,0.6,0.2,0.8,0.8,0.2,,,0.0003,,0.4,0.6,0.2,0.8,0.8,0.2,0.6,0.4,1,0
,,66072a4c6558917f3f9d5f7f,66fc98231b5408c242b70e94,2024-10-01_18h48.27.758,mdp,2024.2.1,Win32,59.52380952,66fa4ebf79326e780c390304,,,,,,,,,,,,,,,,,,,,,1085.0845,1085.0845,1085.0854,1085.7515,0,1,left,0.1344,,1085.7525,1086.3519,0,1,left,1086.353,1086.9858,1,0,right,1,1086.9859,1086.9859,1086.9868,1088.4862,0,27,27,27,1,0.4,0.6,0.6,0.4,,,,,,,,,,,,,,,0.0748,,0.4,0.6,0.4,0.6,0.6,0.4,0.2,0.8,,,0.1046,,0.4,0.6,0.2,0.8,0.8,0.2,0.6,0.4,1,0
,,66072a4c6558917f3f9d5f7f,66fc98231b5408c242b70e94,2024-10-01_18h48.27.758,mdp,2024.2.1,Win32,59.52380952,66fa4ebf79326e780c390304,,,,,,,,,,,,,,,,,,,,,1088.4871,1088.4871,1088.488,1089.0038,1,1,right,0.002,,1089.0049,1089.587,0,0,left,1089.5885,1090.1093,0,1,left,0,1090.1093,1090.1093,1090.11,1091.605,0,28,28,28,1,0.4,0.6,0.6,0.4,,,,,,,,,,,,,,,0.0557,,0.4,0.6,0.4,0.6,0.6,0.4,0.2,0.8,,,0.0004,,0.4,0.6,0.2,0.8,0.8,0.2,0.6,0.4,1,0
,,66072a4c6558917f3f9d5f7f,66fc98231b5408c242b70e94,2024-10-01_18h48.27.758,mdp,2024.2.1,Win32,59.52380952,66fa4ebf79326e780c390304,,,,,,,,,,,,,,,,,,,,,1091.6054,1091.6054,1091.607,1092.1391,1,0,right,0.0198,,1092.1411,1092.6729,1,0,right,1092.6745,1093.2745,1,1,right,0,1093.2746,1093.2746,1093.276,1094.775,0,29,29,29,1,0.4,0.6,0.6,0.4,,,,,,,,,,,,,,,0.0051,,0.4,0.6,0.4,0.6,0.6,0.4,0.2,0.8,,,0.093,,0.4,0.6,0.2,0.8,0.8,0.2,0.6,0.4,1,0
,,66072a4c6558917f3f9d5f7f,66fc98231b5408c242b70e94,2024-10-01_18h48.27.758,mdp,2024.2.1,Win32,59.52380952,66fa4ebf79326e780c390304,,,,,,,,,,,,,,,,,,,,,1094.7757,1094.7757,1094.7768,1095.3758,0,0,left,0.0905,,1095.3772,1096.1265,1,1,right,1096.1282,1096.6477,1,0,right,1,1096.6477,1096.6477,1096.6484,1098.145,0,30,30,30,1,0.4,0.6,0.6,0.4,,,,,,,,,,,,,,,0.2246,,0.4,0.6,0.4,0.6,0.6,0.4,0.2,0.8,,,0.0005,,0.4,0.6,0.2,0.8,0.8,0.2,0.6,0.4,1,0
,,66072a4c6558917f3f9d5f7f,66fc98231b5408c242b70e94,2024-10-01_18h48.27.758,mdp,2024.2.1,Win32,59.52380952,66fa4ebf79326e780c390304,,,,,,,,,,,,,,,,,,,,,1098.1453,1098.1453,1098.1463,1098.7946,0,1,left,0.1173,,1098.7958,1099.3172,1,1,right,1099.3178,1099.9623,1,1,right,0,1099.9624,1099.9624,1099.9639,1101.4642,0,31,31,31,1,0.4,0.6,0.6,0.4,,,,,,,,,,,,,,,0.0003,,0.4,0.6,0.4,0.6,0.6,0.4,0.2,0.8,,,0.1254,,0.4,0.6,0.2,0.8,0.8,0.2,0.6,0.4,1,0
,,66072a4c6558917f3f9d5f7f,66fc98231b5408c242b70e94,2024-10-01_18h48.27.758,mdp,2024.2.1,Win32,59.52380952,66fa4ebf79326e780c390304,,,,,,,,,,,,,,,,,,,,,1101.4646,1101.4646,1101.4655,1102.0477,1,1,right,0.0604,,1102.0489,1102.699,1,1,right,1102.7003,1103.3649,0,1,left,0,1103.365,1103.365,1103.3661,1104.8663,0,32,32,32,1,0.4,0.6,0.6,0.4,,,,,,,,,,,,,,,0.1375,,0.4,0.6,0.4,0.6,0.6,0.4,0.2,0.8,,,0.1351,,0.4,0.6,0.2,0.8,0.8,0.2,0.6,0.4,1,0
,,66072a4c6558917f3f9d5f7f,66fc98231b5408c242b70e94,2024-10-01_18h48.27.758,mdp,2024.2.1,Win32,59.52380952,66fa4ebf79326e780c390304,,,,,,,,,,,,,,,,,,,,,1104.8673,1104.8673,1104.8684,1105.401,1,1,right,0.0024,,1105.4022,1105.917,1,1,right,1105.9186,1106.5685,0,0,left,1,1106.5686,1106.5686,1106.5698,1108.07,0,33,33,33,1,0.4,0.6,0.6,0.4,,,,,,,,,,,,,,,0.0003,,0.4,0.6,0.4,0.6,0.6,0.4,0.2,0.8,,,0.1377,,0.4,0.6,0.2,0.8,0.8,0.2,0.6,0.4,1,0
,,66072a4c6558917f3f9d5f7f,66fc98231b5408c242b70e94,2024-10-01_18h48.27.758,mdp,2024.2.1,Win32,59.52380952,66fa4ebf79326e780c390304,,,,,,,,,,,,,,,,,,,,,1108.0708,1108.0708,1108.072,1108.6031,1,0,right,0.0017,,1108.6048,1109.4702,0,0,left,1109.4717,1110.2373,0,0,left,1,1110.2373,1110.2373,1110.2386,1111.7394,0,34,34,34,1,0.4,0.6,0.6,0.4,,,,,,,,,,,,,,,0.3377,,0.4,0.6,0.4,0.6,0.6,0.4,0.2,0.8,,,0.2421,,0.4,0.6,0.2,0.8,0.8,0.2,0.6,0.4,1,0
,,66072a4c6558917f3f9d5f7f,66fc98231b5408c242b70e94,2024-10-01_18h48.27.758,mdp,2024.2.1,Win32,59.52380952,66fa4ebf79326e780c390304,,,,,,,,,,,,,,,,,,,,,1111.7399,1111.7399,1111.741,1112.2731,1,1,right,0.0069,,1112.2744,1113.223,0,1,left,1113.2248,1113.7913,1,0,right,1,1113.7914,1113.7914,1113.7926,1115.2924,0,35,35,35,1,0.4,0.6,0.6,0.4,,,,,,,,,,,,,,,0.4086,,0.4,0.6,0.4,0.6,0.6,0.4,0.2,0.8,,,0.0332,,0.4,0.6,0.2,0.8,0.8,0.2,0.6,0.4,1,0
,,66072a4c6558917f3f9d5f7f,66fc98231b5408c242b70e94,2024-10-01_18h48.27.758,mdp,2024.2.1,Win32,59.52380952,66fa4ebf79326e780c390304,,,,,,,,,,,,,,,,,,,,,1115.2929,1115.293,1115.2939,1115.959,1,1,right,0.1345,,1115.9608,1116.5831,1,1,right,1116.5849,1117.1834,1,0,right,1,1117.1835,1117.1835,1117.1853,1118.678,0,36,36,36,1,0.4,0.6,0.6,0.4,,,,,,,,,,,,,,,0.1185,,0.4,0.6,0.4,0.6,0.6,0.4,0.2,0.8,,,0.0812,,0.4,0.6,0.2,0.8,0.8,0.2,0.6,0.4,1,0
,,66072a4c6558917f3f9d5f7f,66fc98231b5408c242b70e94,2024-10-01_18h48.27.758,mdp,2024.2.1,Win32,59.52380952,66fa4ebf79326e780c390304,,,,,,,,,,,,,,,,,,,,,1118.6786,1118.6786,1118.6797,1119.2124,0,0,left,0.0051,,1119.2136,1119.9462,0,1,left,1119.9475,1120.9472,0,0,left,1,1120.9473,1120.9474,1120.9485,1122.4479,0,37,37,37,1,0.4,0.6,0.6,0.4,,,,,,,,,,,,,,,0.2079,,0.4,0.6,0.4,0.6,0.6,0.4,0.2,0.8,,,0.4702,,0.4,0.6,0.2,0.8,0.8,0.2,0.6,0.4,1,0
,,66072a4c6558917f3f9d5f7f,66fc98231b5408c242b70e94,2024-10-01_18h48.27.758,mdp,2024.2.1,Win32,59.52380952,66fa4ebf79326e780c390304,,,,,,,,,,,,,,,,,,,,,1122.4484,1122.4484,1122.4497,1123.2152,1,1,right,0.2568,,1123.2165,1124.0487,1,1,right,1124.0499,1124.8839,1,0,right,1,1124.8839,1124.8839,1124.8849,1126.3845,0,38,38,38,1,0.4,0.6,0.6,0.4,,,,,,,,,,,,,,,0.307,,0.4,0.6,0.4,0.6,0.6,0.4,0.2,0.8,,,0.3211,,0.4,0.6,0.2,0.8,0.8,0.2,0.6,0.4,1,0
,,66072a4c6558917f3f9d5f7f,66fc98231b5408c242b70e94,2024-10-01_18h48.27.758,mdp,2024.2.1,Win32,59.52380952,66fa4ebf79326e780c390304,,,,,,,,,,,,,,,,,,,,,1126.3852,1126.3853,1126.3864,1127.1847,1,1,right,0.2892,,1127.1864,1127.9523,1,0,right,1127.9538,1128.7534,1,1,right,0,1128.7535,1128.7535,1128.7548,1130.2548,0,39,39,39,1,0.4,0.6,0.6,0.4,,,,,,,,,,,,,,,0.2531,,0.4,0.6,0.4,0.6,0.6,0.4,0.2,0.8,,,0.2716,,0.4,0.6,0.2,0.8,0.8,0.2,0.6,0.4,1,0
,,66072a4c6558917f3f9d5f7f,66fc98231b5408c242b70e94,2024-10-01_18h48.27.758,mdp,2024.2.1,Win32,59.52380952,66fa4ebf79326e780c390304,,,,,,,,,,,,,,,,,,,,,1130.2554,1130.2554,1130.2565,1131.0221,1,1,right,0.2352,,1131.0236,1131.7221,1,1,right,1131.7234,1132.3896,1,1,right,0,1132.3897,1132.3897,1132.3912,1133.8905,0,40,40,40,1,0.4,0.6,0.6,0.4,,,,,,,,,,,,,,,0.1668,,0.4,0.6,0.4,0.6,0.6,0.4,0.2,0.8,,,0.1401,,0.4,0.6,0.2,0.8,0.8,0.2,0.6,0.4,1,0
,,66072a4c6558917f3f9d5f7f,66fc98231b5408c242b70e94,2024-10-01_18h48.27.758,mdp,2024.2.1,Win32,59.52380952,66fa4ebf79326e780c390304,,,,,,,,,,,,,,,,,,,,,1133.8912,1133.8912,1133.8922,1134.524,1,0,right,0.1248,,1134.5256,1135.5422,1,1,right,1135.5431,1136.2265,0,1,left,0,1136.2267,1136.2267,1136.228,1137.7315,0,41,41,41,1,0.4,0.6,0.6,0.4,,,,,,,,,,,,,,,0.485,,0.4,0.6,0.4,0.6,0.6,0.4,0.2,0.8,,,0.1697,,0.2,0.8,0.6,0.4,0.8,0.2,0.6,0.4,1,0
,,66072a4c6558917f3f9d5f7f,66fc98231b5408c242b70e94,2024-10-01_18h48.27.758,mdp,2024.2.1,Win32,59.52380952,66fa4ebf79326e780c390304,,,,,,,,,,,,,,,,,,,,,1137.7321,1137.7321,1137.7331,1138.4617,0,0,left,0.2091,,1138.4633,1139.2113,1,1,right,1139.213,1139.7291,1,0,right,1,1139.7292,1139.7292,1139.7303,1141.2298,0,42,42,42,1,0.4,0.6,0.6,0.4,,,,,,,,,,,,,,,0.2353,,0.4,0.6,0.4,0.6,0.6,0.4,0.2,0.8,,,0.0016,,0.2,0.8,0.6,0.4,0.8,0.2,0.6,0.4,1,0
,,66072a4c6558917f3f9d5f7f,66fc98231b5408c242b70e94,2024-10-01_18h48.27.758,mdp,2024.2.1,Win32,59.52380952,66fa4ebf79326e780c390304,,,,,,,,,,,,,,,,,,,,,1141.2305,1141.2305,1141.2321,1141.98,0,0,left,0.2246,,1141.9816,1142.7315,1,1,right,1142.7326,1143.503,0,0,left,1,1143.503,1143.503,1143.5036,1145.0043,0,43,43,43,1,0.4,0.6,0.6,0.4,,,,,,,,,,,,,,,0.2416,,0.6,0.4,0.2,0.8,0.6,0.4,0.2,0.8,,,0.2502,,0.2,0.8,0.6,0.4,0.8,0.2,0.6,0.4,1,0
,,66072a4c6558917f3f9d5f7f,66fc98231b5408c242b70e94,2024-10-01_18h48.27.758,mdp,2024.2.1,Win32,59.52380952,66fa4ebf79326e780c390304,,,,,,,,,,,,,,,,,,,,,1145.0045,1145.0045,1145.0051,1145.7839,1,0,right,0.2495,,1145.7852,1146.5016,0,1,left,1146.5032,1147.1018,0,1,left,0,1147.102,1147.102,1147.1033,1148.608,0,44,44,44,1,0.4,0.6,0.6,0.4,,,,,,,,,,,,,,,0.1933,,0.6,0.4,0.2,0.8,0.6,0.4,0.2,0.8,,,0.0766,,0.2,0.8,0.6,0.4,0.8,0.2,0.6,0.4,1,0
,,66072a4c6558917f3f9d5f7f,66fc98231b5408c242b70e94,2024-10-01_18h48.27.758,mdp,2024.2.1,Win32,59.52380952,66fa4ebf79326e780c390304,,,,,,,,,,,,,,,,,,,,,1148.6083,1148.6083,1148.6092,1149.3878,0,1,left,0.251,,1149.3903,1150.1208,1,1,right,1150.1222,1150.6876,1,0,right,1,1150.6876,1150.6876,1150.6892,1152.1934,0,45,45,45,1,0.4,0.6,0.6,0.4,,,,,,,,,,,,,,,0.1897,,0.6,0.4,0.2,0.8,0.6,0.4,0.2,0.8,,,0.0496,,0.2,0.8,0.6,0.4,0.8,0.2,0.6,0.4,1,0
,,66072a4c6558917f3f9d5f7f,66fc98231b5408c242b70e94,2024-10-01_18h48.27.758,mdp,2024.2.1,Win32,59.52380952,66fa4ebf79326e780c390304,,,,,,,,,,,,,,,,,,,,,1152.1936,1152.1936,1152.1943,1152.7908,1,0,right,0.0667,,1152.7932,1153.3282,1,1,right,1153.329,1154.1246,0,0,left,1,1154.1246,1154.1247,1154.1261,1155.6253,0,46,46,46,1,0.4,0.6,0.6,0.4,,,,,,,,,,,,,,,0.0004,,0.6,0.4,0.2,0.8,0.6,0.4,0.2,0.8,,,0.2747,,0.2,0.8,0.6,0.4,0.8,0.2,0.6,0.4,1,0
,,66072a4c6558917f3f9d5f7f,66fc98231b5408c242b70e94,2024-10-01_18h48.27.758,mdp,2024.2.1,Win32,59.52380952,66fa4ebf79326e780c390304,,,,,,,,,,,,,,,,,,,,,1155.6258,1155.6258,1155.6268,1156.2097,1,0,right,0.0471,,1156.2112,1156.7809,1,1,right,1156.7816,1157.344,1,1,right,0,1157.3441,1157.3442,1157.3455,1158.8447,0,47,47,47,1,0.4,0.6,0.6,0.4,,,,,,,,,,,,,,,0.0501,,0.6,0.4,0.2,0.8,0.6,0.4,0.2,0.8,,,0.0311,,0.2,0.8,0.6,0.4,0.8,0.2,0.6,0.4,1,0
,,66072a4c6558917f3f9d5f7f,66fc98231b5408c242b70e94,2024-10-01_18h48.27.758,mdp,2024.2.1,Win32,59.52380952,66fa4ebf79326e780c390304,,,,,,,,,,,,,,,,,,,,,1158.8454,1158.8455,1158.8462,1159.3787,0,0,left,0.0098,,1159.3801,1159.9292,0,0,left,1159.9303,1160.6634,1,1,right,0,1160.6636,1160.6636,1160.6651,1162.1516,0,48,48,48,1,0.4,0.6,0.6,0.4,,,,,,,,,,,,,,,0.0169,,0.6,0.4,0.2,0.8,0.6,0.4,0.2,0.8,,,0.2018,,0.2,0.8,0.6,0.4,0.8,0.2,0.6,0.4,1,0
,,66072a4c6558917f3f9d5f7f,66fc98231b5408c242b70e94,2024-10-01_18h48.27.758,mdp,2024.2.1,Win32,59.52380952,66fa4ebf79326e780c390304,,,,,,,,,,,,,,,,,,,,,1162.1518,1162.1518,1162.1523,1162.8314,0,0,left,0.1511,,1162.8326,1163.6487,1,0,right,1163.6498,1164.1827,1,0,right,1,1164.1827,1164.1827,1164.1838,1165.6828,0,49,49,49,1,0.4,0.6,0.6,0.4,,,,,,,,,,,,,,,0.284,,0.6,0.4,0.2,0.8,0.6,0.4,0.2,0.8,,,0.023,,0.2,0.8,0.6,0.4,0.8,0.2,0.6,0.4,1,0
,,66072a4c6558917f3f9d5f7f,66fc98231b5408c242b70e94,2024-10-01_18h48.27.758,mdp,2024.2.1,Win32,59.52380952,66fa4ebf79326e780c390304,,,,,,,,,,,,,,,,,,,,,,,,,,,,,,,,,,,,,,,,,,,,,,,,,,,,,,,,1165.6829,1249.8141,0,3,3,3,1,imgs/cat.png,imgs/kangaroo.png,imgs/horse.png,imgs/squirrel.png,imgs/rabbit.png,,,,,,,,,,,,,,,,,,,,,,,,
,,66072a4c6558917f3f9d5f7f,66fc98231b5408c242b70e94,2024-10-01_18h48.27.758,mdp,2024.2.1,Win32,59.52380952,66fa4ebf79326e780c390304,,,,,,,,,,,,,,1,seqs/st1seq6.csv,1249.8238,1251.0533,space,0.6992,,1251.057,1251.057,1251.0576,1252.8557,0,1,left,1.2599,,1252.8585,1252.8603,1,0,,1252.8616,1252.8624,1,0,,0,1252.8624,1252.8625,1252.8632,1254.3575,0,0,0,0,1,0.8,0.2,0.4,0.6,1,0,,,,,,,,,,,,,,,,,,,,,,,,,,,,,,,,,,,,
,,66072a4c6558917f3f9d5f7f,66fc98231b5408c242b70e94,2024-10-01_18h48.27.758,mdp,2024.2.1,Win32,59.52380952,66fa4ebf79326e780c390304,,,,,,,,,,,,,,,,,,,,,1254.3586,1254.3586,1254.3604,1254.9297,0,0,left,0.0465,,1254.932,1254.9332,1,1,,1254.9348,1254.936,1,0,,1,1254.9362,1254.9362,1254.9382,1256.4247,0,1,1,1,1,0.8,0.2,0.4,0.6,1,0,,,,,,,,,,,,,,,,,,,,,,,,,,,,,,,,,,,,
,,66072a4c6558917f3f9d5f7f,66fc98231b5408c242b70e94,2024-10-01_18h48.27.758,mdp,2024.2.1,Win32,59.52380952,66fa4ebf79326e780c390304,,,,,,,,,,,,,,,,,,,,,1256.4252,1256.4252,1256.4266,1257.0931,1,0,right,0.158,,1257.0951,1257.0964,1,1,,1257.0982,1257.0993,1,1,,1,1257.0994,1257.0995,1257.1005,1258.5945,0,2,2,2,1,0.8,0.2,0.4,0.6,1,0,,,,,,,,,,,,,,,,,,,,,,,,,,,,,,,,,,,,
,,66072a4c6558917f3f9d5f7f,66fc98231b5408c242b70e94,2024-10-01_18h48.27.758,mdp,2024.2.1,Win32,59.52380952,66fa4ebf79326e780c390304,,,,,,,,,,,,,,,,,,,,,1258.5958,1258.5958,1258.5981,1259.2447,1,1,right,0.1193,,1259.2471,1259.2484,1,1,,1259.2499,1259.251,1,0,,0,1259.251,1259.251,1259.2521,1260.7454,0,3,3,3,1,0.8,0.2,0.4,0.6,1,0,,,,,,,,,,,,,,,,,,,,,,,,,,,,,,,,,,,,
,,66072a4c6558917f3f9d5f7f,66fc98231b5408c242b70e94,2024-10-01_18h48.27.758,mdp,2024.2.1,Win32,59.52380952,66fa4ebf79326e780c390304,,,,,,,,,,,,,,,,,,,,,1260.7461,1260.7462,1260.748,1261.3798,0,0,left,0.1153,,1261.3824,1261.3837,1,0,,1261.3854,1261.3864,1,1,,1,1261.3865,1261.3865,1261.3877,1262.8859,0,4,4,4,1,0.8,0.2,0.4,0.6,1,0,,,,,,,,,,,,,,,,,,,,,,,,,,,,,,,,,,,,
,,66072a4c6558917f3f9d5f7f,66fc98231b5408c242b70e94,2024-10-01_18h48.27.758,mdp,2024.2.1,Win32,59.52380952,66fa4ebf79326e780c390304,,,,,,,,,,,,,,,,,,,,,1262.8866,1262.8866,1262.8887,1263.4814,1,1,right,0.0692,,1263.4841,1263.4858,1,1,,1263.4881,1263.4894,1,1,,0,1263.4895,1263.4895,1263.4907,1264.9828,0,5,5,5,1,0.8,0.2,0.4,0.6,1,0,,,,,,,,,,,,,,,,,,,,,,,,,,,,,,,,,,,,
,,66072a4c6558917f3f9d5f7f,66fc98231b5408c242b70e94,2024-10-01_18h48.27.758,mdp,2024.2.1,Win32,59.52380952,66fa4ebf79326e780c390304,,,,,,,,,,,,,,,,,,,,,1264.9837,1264.9837,1264.9854,1265.6503,0,0,left,0.1303,,1265.6532,1265.6546,1,0,,1265.6561,1265.657,1,0,,1,1265.6571,1265.6571,1265.6582,1267.1511,0,6,6,6,1,0.8,0.2,0.4,0.6,1,0,,,,,,,,,,,,,,,,,,,,,,,,,,,,,,,,,,,,
,,66072a4c6558917f3f9d5f7f,66fc98231b5408c242b70e94,2024-10-01_18h48.27.758,mdp,2024.2.1,Win32,59.52380952,66fa4ebf79326e780c390304,,,,,,,,,,,,,,,,,,,,,1267.1522,1267.1522,1267.1543,1267.7681,0,0,left,0.0908,,1267.7708,1267.7721,1,0,,1267.7735,1267.7746,1,0,,1,1267.7747,1267.7747,1267.7759,1269.2708,0,7,7,7,1,0.8,0.2,0.4,0.6,1,0,,,,,,,,,,,,,,,,,,,,,,,,,,,,,,,,,,,,
,,66072a4c6558917f3f9d5f7f,66fc98231b5408c242b70e94,2024-10-01_18h48.27.758,mdp,2024.2.1,Win32,59.52380952,66fa4ebf79326e780c390304,,,,,,,,,,,,,,,,,,,,,1269.2714,1269.2715,1269.2731,1269.8034,1,1,right,0.0098,,1269.8057,1269.8067,1,0,,1269.8077,1269.8085,1,1,,0,1269.8085,1269.8085,1269.8095,1271.3042,0,8,8,8,1,0.8,0.2,0.4,0.6,1,0,,,,,,,,,,,,,,,,,,,,,,,,,,,,,,,,,,,,
,,66072a4c6558917f3f9d5f7f,66fc98231b5408c242b70e94,2024-10-01_18h48.27.758,mdp,2024.2.1,Win32,59.52380952,66fa4ebf79326e780c390304,,,,,,,,,,,,,,,,,,,,,1271.3051,1271.3051,1271.3079,1272.088,1,1,right,0.2538,,1272.0893,1272.0897,1,1,,1272.0902,1272.0905,1,1,,0,1272.0906,1272.0906,1272.0909,1273.5896,0,9,9,9,1,0.8,0.2,0.4,0.6,1,0,,,,,,,,,,,,,,,,,,,,,,,,,,,,,,,,,,,,
,,66072a4c6558917f3f9d5f7f,66fc98231b5408c242b70e94,2024-10-01_18h48.27.758,mdp,2024.2.1,Win32,59.52380952,66fa4ebf79326e780c390304,,,,,,,,,,,,,,,,,,,,,1273.5902,1273.5902,1273.5915,1274.6408,1,1,right,0.5211,,1274.6426,1274.6433,1,1,,1274.6442,1274.6449,1,1,,0,1274.6449,1274.6449,1274.6458,1276.1414,0,10,10,10,1,0.8,0.2,0.4,0.6,1,0,,,,,,,,,,,,,,,,,,,,,,,,,,,,,,,,,,,,
,,66072a4c6558917f3f9d5f7f,66fc98231b5408c242b70e94,2024-10-01_18h48.27.758,mdp,2024.2.1,Win32,59.52380952,66fa4ebf79326e780c390304,,,,,,,,,,,,,,,,,,,,,1276.1421,1276.1421,1276.1431,1276.7085,1,0,right,0.0359,,1276.7098,1276.7103,1,0,,1276.7109,1276.7112,1,1,,1,1276.7112,1276.7113,1276.7116,1278.2114,0,11,11,11,1,0.2,0.8,0.6,0.4,1,0,,,,,,,,,,,,,,,,,,,,,,,,,,,,,,,,,,,,
,,66072a4c6558917f3f9d5f7f,66fc98231b5408c242b70e94,2024-10-01_18h48.27.758,mdp,2024.2.1,Win32,59.52380952,66fa4ebf79326e780c390304,,,,,,,,,,,,,,,,,,,,,1278.212,1278.212,1278.2138,1278.9443,1,1,right,0.2192,,1278.9471,1278.9484,1,0,,1278.95,1278.951,1,1,,0,1278.9512,1278.9512,1278.9523,1280.4459,0,12,12,12,1,0.2,0.8,0.6,0.4,1,0,,,,,,,,,,,,,,,,,,,,,,,,,,,,,,,,,,,,
,,66072a4c6558917f3f9d5f7f,66fc98231b5408c242b70e94,2024-10-01_18h48.27.758,mdp,2024.2.1,Win32,59.52380952,66fa4ebf79326e780c390304,,,,,,,,,,,,,,,,,,,,,1280.4467,1280.4468,1280.4486,1282.3133,1,1,right,1.3305,,1282.3151,1282.316,1,1,,1282.317,1282.3177,1,0,,0,1282.3177,1282.3177,1282.3186,1283.8154,0,13,13,13,1,0.8,0.2,0.2,0.8,1,0,,,,,,,,,,,,,,,,,,,,,,,,,,,,,,,,,,,,
,,66072a4c6558917f3f9d5f7f,66fc98231b5408c242b70e94,2024-10-01_18h48.27.758,mdp,2024.2.1,Win32,59.52380952,66fa4ebf79326e780c390304,,,,,,,,,,,,,,,,,,,,,1283.8167,1283.8167,1283.8185,1284.3322,1,1,right,0.0009,,1284.3343,1284.3356,1,1,,1284.3371,1284.3382,1,0,,0,1284.3382,1284.3382,1284.3396,1285.8338,0,14,14,14,1,0.6,0.4,0.4,0.6,1,0,,,,,,,,,,,,,,,,,,,,,,,,,,,,,,,,,,,,
,,66072a4c6558917f3f9d5f7f,66fc98231b5408c242b70e94,2024-10-01_18h48.27.758,mdp,2024.2.1,Win32,59.52380952,66fa4ebf79326e780c390304,,,,,,,,,,,,,,,,,,,,,1285.835,1285.8351,1285.8371,1286.3669,1,1,right,0.0077,,1286.3697,1286.371,1,1,,1286.3724,1286.3733,1,1,,0,1286.3734,1286.3735,1286.3746,1287.8672,0,15,15,15,1,0.6,0.4,0.4,0.6,1,0,,,,,,,,,,,,,,,,,,,,,,,,,,,,,,,,,,,,
,,66072a4c6558917f3f9d5f7f,66fc98231b5408c242b70e94,2024-10-01_18h48.27.758,mdp,2024.2.1,Win32,59.52380952,66fa4ebf79326e780c390304,,,,,,,,,,,,,,,,,,,,,1287.8677,1287.8677,1287.8687,1288.6695,1,1,right,0.2851,,1288.6722,1288.6742,1,1,,1288.6766,1288.6783,1,1,,0,1288.6784,1288.6785,1288.68,1290.1695,0,16,16,16,1,0.6,0.4,0.4,0.6,1,0,,,,,,,,,,,,,,,,,,,,,,,,,,,,,,,,,,,,
,,66072a4c6558917f3f9d5f7f,66fc98231b5408c242b70e94,2024-10-01_18h48.27.758,mdp,2024.2.1,Win32,59.52380952,66fa4ebf79326e780c390304,,,,,,,,,,,,,,,,,,,,,1290.1699,1290.17,1290.1713,1290.9585,1,1,right,0.2826,,1290.9597,1290.9604,1,0,,1290.9611,1290.9616,1,0,,0,1290.9617,1290.9617,1290.9624,1292.4593,0,17,17,17,1,0.4,0.6,0.6,0.4,1,0,,,,,,,,,,,,,,,,,,,,,,,,,,,,,,,,,,,,
,,66072a4c6558917f3f9d5f7f,66fc98231b5408c242b70e94,2024-10-01_18h48.27.758,mdp,2024.2.1,Win32,59.52380952,66fa4ebf79326e780c390304,,,,,,,,,,,,,,,,,,,,,1292.4597,1292.4597,1292.4607,1293.0054,0,0,left,0.0248,,1293.0074,1293.0082,1,0,,1293.0089,1293.0094,1,0,,1,1293.0095,1293.0095,1293.0101,1294.5069,0,18,18,18,1,0.8,0.2,0.4,0.6,1,0,,,,,,,,,,,,,,,,,,,,,,,,,,,,,,,,,,,,
,,66072a4c6558917f3f9d5f7f,66fc98231b5408c242b70e94,2024-10-01_18h48.27.758,mdp,2024.2.1,Win32,59.52380952,66fa4ebf79326e780c390304,,,,,,,,,,,,,,,,,,,,,1294.5076,1294.5076,1294.509,1295.0756,1,0,right,0.0269,,1295.077,1295.0781,1,0,,1295.0792,1295.0801,1,0,,1,1295.0801,1295.0802,1295.0811,1296.5752,0,19,19,19,1,0.2,0.8,0.8,0.2,1,0,,,,,,,,,,,,,,,,,,,,,,,,,,,,,,,,,,,,
,,66072a4c6558917f3f9d5f7f,66fc98231b5408c242b70e94,2024-10-01_18h48.27.758,mdp,2024.2.1,Win32,59.52380952,66fa4ebf79326e780c390304,,,,,,,,,,,,,,,,,,,,,1296.5757,1296.5757,1296.5767,1297.1423,0,1,left,0.0342,,1297.1438,1297.1442,1,1,,1297.1448,1297.1451,1,0,,0,1297.1451,1297.1451,1297.1456,1298.6436,0,20,20,20,1,0.2,0.8,0.8,0.2,1,0,,,,,,,,,,,,,,,,,,,,,,,,,,,,,,,,,,,,
,,66072a4c6558917f3f9d5f7f,66fc98231b5408c242b70e94,2024-10-01_18h48.27.758,mdp,2024.2.1,Win32,59.52380952,66fa4ebf79326e780c390304,,,,,,,,,,,,,,,,,,,,,1298.6442,1298.6442,1298.6456,1299.1772,1,0,right,0.0007,,1299.1789,1299.1796,1,1,,1299.1803,1299.1808,1,0,,1,1299.1808,1299.1808,1299.1814,1300.6792,0,21,21,21,1,0.2,0.8,0.8,0.2,1,0,,,,,,,,,,,,,,,,,,,,,,,,,,,,,,,,,,,,
,,66072a4c6558917f3f9d5f7f,66fc98231b5408c242b70e94,2024-10-01_18h48.27.758,mdp,2024.2.1,Win32,59.52380952,66fa4ebf79326e780c390304,,,,,,,,,,,,,,,,,,,,,1300.6803,1300.6804,1300.6825,1301.3795,0,0,left,0.1707,,1301.3818,1301.3832,1,0,,1301.3846,1301.3854,1,1,,1,1301.3854,1301.3854,1301.3862,1302.881,0,22,22,22,1,0.2,0.8,0.8,0.2,1,0,,,,,,,,,,,,,,,,,,,,,,,,,,,,,,,,,,,,
,,66072a4c6558917f3f9d5f7f,66fc98231b5408c242b70e94,2024-10-01_18h48.27.758,mdp,2024.2.1,Win32,59.52380952,66fa4ebf79326e780c390304,,,,,,,,,,,,,,,,,,,,,1302.8822,1302.8822,1302.8841,1303.4147,0,1,left,0.0075,,1303.4174,1303.4186,1,0,,1303.4201,1303.4211,1,1,,0,1303.4213,1303.4213,1303.4225,1304.9158,0,23,23,23,1,0.8,0.2,0.6,0.4,1,0,,,,,,,,,,,,,,,,,,,,,,,,,,,,,,,,,,,,
,,66072a4c6558917f3f9d5f7f,66fc98231b5408c242b70e94,2024-10-01_18h48.27.758,mdp,2024.2.1,Win32,59.52380952,66fa4ebf79326e780c390304,,,,,,,,,,,,,,,,,,,,,1304.9169,1304.9169,1304.9186,1305.5496,0,0,left,0.0887,,1305.5524,1305.5534,1,0,,1305.5546,1305.5555,1,0,,1,1305.5556,1305.5556,1305.5566,1307.051,0,24,24,24,1,0.8,0.2,0.6,0.4,1,0,,,,,,,,,,,,,,,,,,,,,,,,,,,,,,,,,,,,
,,66072a4c6558917f3f9d5f7f,66fc98231b5408c242b70e94,2024-10-01_18h48.27.758,mdp,2024.2.1,Win32,59.52380952,66fa4ebf79326e780c390304,,,,,,,,,,,,,,,,,,,,,1307.052,1307.052,1307.0538,1307.751,0,1,left,0.1719,,1307.7525,1307.7532,1,1,,1307.754,1307.7546,1,0,,0,1307.7546,1307.7546,1307.7555,1309.253,0,25,25,25,1,0.8,0.2,0.6,0.4,1,0,,,,,,,,,,,,,,,,,,,,,,,,,,,,,,,,,,,,
,,66072a4c6558917f3f9d5f7f,66fc98231b5408c242b70e94,2024-10-01_18h48.27.758,mdp,2024.2.1,Win32,59.52380952,66fa4ebf79326e780c390304,,,,,,,,,,,,,,,,,,,,,1309.2544,1309.2544,1309.2565,1310.1876,0,0,left,0.409,,1310.1896,1310.1909,1,0,,1310.1924,1310.1934,1,0,,1,1310.1934,1310.1935,1310.195,1311.6883,0,26,26,26,1,0.8,0.2,0.6,0.4,1,0,,,,,,,,,,,,,,,,,,,,,,,,,,,,,,,,,,,,
,,66072a4c6558917f3f9d5f7f,66fc98231b5408c242b70e94,2024-10-01_18h48.27.758,mdp,2024.2.1,Win32,59.52380952,66fa4ebf79326e780c390304,,,,,,,,,,,,,,,,,,,,,1311.6896,1311.6896,1311.6918,1312.4058,0,0,left,0.1862,,1312.4083,1312.4095,1,1,,1312.411,1312.4121,1,0,,1,1312.4123,1312.4123,1312.4136,1313.9062,0,27,27,27,1,0.8,0.2,0.6,0.4,1,0,,,,,,,,,,,,,,,,,,,,,,,,,,,,,,,,,,,,
,,66072a4c6558917f3f9d5f7f,66fc98231b5408c242b70e94,2024-10-01_18h48.27.758,mdp,2024.2.1,Win32,59.52380952,66fa4ebf79326e780c390304,,,,,,,,,,,,,,,,,,,,,1313.9069,1313.9069,1313.9082,1315.1412,0,0,left,0.708,,1315.1437,1315.1449,1,1,,1315.1465,1315.1476,1,0,,1,1315.1477,1315.1477,1315.1489,1316.6424,0,28,28,28,1,0.4,0.6,0.8,0.2,1,0,,,,,,,,,,,,,,,,,,,,,,,,,,,,,,,,,,,,
,,66072a4c6558917f3f9d5f7f,66fc98231b5408c242b70e94,2024-10-01_18h48.27.758,mdp,2024.2.1,Win32,59.52380952,66fa4ebf79326e780c390304,,,,,,,,,,,,,,,,,,,,,1316.6438,1316.6439,1316.646,1317.7274,0,0,left,0.5517,,1317.7295,1317.7306,1,1,,1317.7319,1317.7329,1,1,,1,1317.7329,1317.7329,1317.734,1319.2279,0,29,29,29,1,0.4,0.6,0.8,0.2,1,0,,,,,,,,,,,,,,,,,,,,,,,,,,,,,,,,,,,,
,,66072a4c6558917f3f9d5f7f,66fc98231b5408c242b70e94,2024-10-01_18h48.27.758,mdp,2024.2.1,Win32,59.52380952,66fa4ebf79326e780c390304,,,,,,,,,,,,,,,,,,,,,1319.2291,1319.2291,1319.231,1319.8616,1,0,right,0.0876,,1319.8638,1319.865,1,0,,1319.8664,1319.8677,1,0,,1,1319.8678,1319.8678,1319.8689,1321.3621,0,30,30,30,1,0.4,0.6,0.8,0.2,1,0,,,,,,,,,,,,,,,,,,,,,,,,,,,,,,,,,,,,
,,66072a4c6558917f3f9d5f7f,66fc98231b5408c242b70e94,2024-10-01_18h48.27.758,mdp,2024.2.1,Win32,59.52380952,66fa4ebf79326e780c390304,,,,,,,,,,,,,,,,,,,,,1321.3627,1321.3627,1321.3641,1321.9795,0,1,left,0.0888,,1321.9809,1321.9816,1,0,,1321.9823,1321.9828,1,1,,0,1321.9829,1321.9829,1321.9832,1323.4805,0,31,31,31,1,0.4,0.6,0.8,0.2,1,0,,,,,,,,,,,,,,,,,,,,,,,,,,,,,,,,,,,,
,,66072a4c6558917f3f9d5f7f,66fc98231b5408c242b70e94,2024-10-01_18h48.27.758,mdp,2024.2.1,Win32,59.52380952,66fa4ebf79326e780c390304,,,,,,,,,,,,,,,,,,,,,1323.4811,1323.4811,1323.4823,1324.0973,0,0,left,0.0862,,1324.0989,1324.0994,1,1,,1324.1001,1324.1004,1,1,,1,1324.1004,1324.1004,1324.1009,1325.5989,0,32,32,32,1,0.4,0.6,0.8,0.2,1,0,,,,,,,,,,,,,,,,,,,,,,,,,,,,,,,,,,,,
,,66072a4c6558917f3f9d5f7f,66fc98231b5408c242b70e94,2024-10-01_18h48.27.758,mdp,2024.2.1,Win32,59.52380952,66fa4ebf79326e780c390304,,,,,,,,,,,,,,,,,,,,,1325.5996,1325.5996,1325.6011,1326.3209,1,0,right,0.1992,,1326.3222,1326.3229,1,0,,1326.3239,1326.3245,1,0,,1,1326.3246,1326.3246,1326.3257,1327.8218,0,33,33,33,1,0.4,0.6,0.8,0.2,1,0,,,,,,,,,,,,,,,,,,,,,,,,,,,,,,,,,,,,
,,66072a4c6558917f3f9d5f7f,66fc98231b5408c242b70e94,2024-10-01_18h48.27.758,mdp,2024.2.1,Win32,59.52380952,66fa4ebf79326e780c390304,,,,,,,,,,,,,,,,,,,,,1327.8223,1327.8223,1327.8238,1328.4179,0,1,left,0.0709,,1328.42,1328.421,1,0,,1328.422,1328.4229,1,1,,0,1328.4229,1328.423,1328.4239,1329.9191,0,34,34,34,1,0.4,0.6,0.8,0.2,1,0,,,,,,,,,,,,,,,,,,,,,,,,,,,,,,,,,,,,
,,66072a4c6558917f3f9d5f7f,66fc98231b5408c242b70e94,2024-10-01_18h48.27.758,mdp,2024.2.1,Win32,59.52380952,66fa4ebf79326e780c390304,,,,,,,,,,,,,,,,,,,,,1329.9199,1329.9199,1329.9211,1330.9871,0,0,left,0.5526,,1330.9884,1330.9891,1,1,,1330.99,1330.9905,1,0,,1,1330.9906,1330.9906,1330.9912,1332.488,0,35,35,35,1,0.8,0.2,0.2,0.8,1,0,,,,,,,,,,,,,,,,,,,,,,,,,,,,,,,,,,,,
,,66072a4c6558917f3f9d5f7f,66fc98231b5408c242b70e94,2024-10-01_18h48.27.758,mdp,2024.2.1,Win32,59.52380952,66fa4ebf79326e780c390304,,,,,,,,,,,,,,,,,,,,,1332.4884,1332.4884,1332.4895,1333.0721,1,1,right,0.0566,,1333.0739,1333.0747,1,1,,1333.0754,1333.0759,1,1,,0,1333.076,1333.076,1333.0766,1334.5731,0,36,36,36,1,0.8,0.2,0.2,0.8,1,0,,,,,,,,,,,,,,,,,,,,,,,,,,,,,,,,,,,,
,,66072a4c6558917f3f9d5f7f,66fc98231b5408c242b70e94,2024-10-01_18h48.27.758,mdp,2024.2.1,Win32,59.52380952,66fa4ebf79326e780c390304,,,,,,,,,,,,,,,,,,,,,1334.5737,1334.5737,1334.5747,1335.9418,1,0,right,0.8386,,1335.9442,1335.9454,1,0,,1335.9467,1335.9477,1,0,,1,1335.9478,1335.9478,1335.9489,1337.4428,0,37,37,37,1,0.6,0.4,0.8,0.2,1,0,,,,,,,,,,,,,,,,,,,,,,,,,,,,,,,,,,,,
,,66072a4c6558917f3f9d5f7f,66fc98231b5408c242b70e94,2024-10-01_18h48.27.758,mdp,2024.2.1,Win32,59.52380952,66fa4ebf79326e780c390304,,,,,,,,,,,,,,,,,,,,,1337.4436,1337.4436,1337.4455,1338.0599,1,0,right,0.0837,,1338.0619,1338.0629,1,0,,1338.0641,1338.0649,1,0,,1,1338.0649,1338.0649,1338.0657,1339.5603,0,38,38,38,1,0.8,0.2,0.6,0.4,1,0,,,,,,,,,,,,,,,,,,,,,,,,,,,,,,,,,,,,
,,66072a4c6558917f3f9d5f7f,66fc98231b5408c242b70e94,2024-10-01_18h48.27.758,mdp,2024.2.1,Win32,59.52380952,66fa4ebf79326e780c390304,,,,,,,,,,,,,,,,,,,,,1339.5614,1339.5618,1339.5638,1340.0939,1,0,right,0.0003,,1340.0955,1340.096,1,0,,1340.0965,1340.0968,1,0,,1,1340.0968,1340.0968,1340.0973,1341.5955,0,39,39,39,1,0.8,0.2,0.6,0.4,1,0,,,,,,,,,,,,,,,,,,,,,,,,,,,,,,,,,,,,
,,66072a4c6558917f3f9d5f7f,66fc98231b5408c242b70e94,2024-10-01_18h48.27.758,mdp,2024.2.1,Win32,59.52380952,66fa4ebf79326e780c390304,,,,,,,,,,,,,,,,,,,,,1341.596,1341.596,1341.5971,1342.196,1,1,right,0.0937,,1342.1973,1342.198,1,0,,1342.1988,1342.1992,1,0,,0,1342.1992,1342.1992,1342.1997,1343.6976,0,40,40,40,1,0.2,0.8,0.8,0.2,1,0,,,,,,,,,,,,,,,,,,,,,,,,,,,,,,,,,,,,
