init_exp.started,init_exp.stopped,participant,session,date,expName,psychopyVersion,OS,frameRate,study_id,disp_instruction.started,disp_instruction.stopped,instruction.thisRepN,instruction.thisTrialN,instruction.thisN,instruction.thisIndex,instruction.ran,instimg_path,consent.started,consent.stopped,key_resp_3.keys,key_resp_3.rt,key_resp_3.duration,n_steps,sequence_path,init_block.started,init_block.stopped,key_resp.keys,key_resp.rt,key_resp.duration,init_trials.started,init_trials.stopped,step0.started,step0.stopped,act0,s1,res0.keys,res0.rt,res0.duration,step1.started,step1.stopped,act1,s2,res1.keys,step2.started,step2.stopped,act2,s3,res2.keys,rew,reward_comp.started,reward_comp.stopped,reward_disp.started,reward_disp.stopped,trials.thisRepN,trials.thisTrialN,trials.thisN,trials.thisIndex,trials.ran,s00a0s10,s00a0s11,s00a1s10,s00a1s11,rew10,rew11,break_block.started,break_block.stopped,block.thisRepN,block.thisTrialN,block.thisN,block.thisIndex,block.ran,s00path,s10path,s11path,s20path,s21path,res1.rt,res1.duration,s10a0s20,s10a0s21,s10a1s20,s10a1s21,s11a0s20,s11a0s21,s11a1s20,s11a1s21,rew20,rew21,res2.rt,res2.duration,s20a0s30,s20a0s31,s20a1s30,s20a1s31,s21a0s30,s21a0s31,s21a1s30,s21a1s31,rew30,rew31
0,0.001,660c9c26e4220931438f3d30,66fc9906f3d24af3577dcb6f,2024-10-01_18h52.12.569,mdp,2024.2.1,Win32,166.6666667,66fa4ebf79326e780c390304,,,,,,,,,,,,,,,,,,,,,,,,,,,,,,,,,,,,,,,,,,,,,,,,,,,,,,,,,,,,,,,,,,,,,,,,,,,,,,,,,,,,,,,,,,,
,,660c9c26e4220931438f3d30,66fc9906f3d24af3577dcb6f,2024-10-01_18h52.12.569,mdp,2024.2.1,Win32,166.6666667,66fa4ebf79326e780c390304,0.003,20.447,0,0,0,0,1,rlnn_exp/rlnn_exp.001.png,,,,,,,,,,,,,,,,,,,,,,,,,,,,,,,,,,,,,,,,,,,,,,,,,,,,,,,,,,,,,,,,,,,,,,,,,,,,,,,,,,,
,,660c9c26e4220931438f3d30,66fc9906f3d24af3577dcb6f,2024-10-01_18h52.12.569,mdp,2024.2.1,Win32,166.6666667,66fa4ebf79326e780c390304,20.447,31.281,0,1,1,1,1,rlnn_exp/rlnn_exp.002.png,,,,,,,,,,,,,,,,,,,,,,,,,,,,,,,,,,,,,,,,,,,,,,,,,,,,,,,,,,,,,,,,,,,,,,,,,,,,,,,,,,,
,,660c9c26e4220931438f3d30,66fc9906f3d24af3577dcb6f,2024-10-01_18h52.12.569,mdp,2024.2.1,Win32,166.6666667,66fa4ebf79326e780c390304,31.287,52.313,0,2,2,2,1,rlnn_exp/rlnn_exp.003.png,,,,,,,,,,,,,,,,,,,,,,,,,,,,,,,,,,,,,,,,,,,,,,,,,,,,,,,,,,,,,,,,,,,,,,,,,,,,,,,,,,,
,,660c9c26e4220931438f3d30,66fc9906f3d24af3577dcb6f,2024-10-01_18h52.12.569,mdp,2024.2.1,Win32,166.6666667,66fa4ebf79326e780c390304,52.318,63.443,0,3,3,3,1,rlnn_exp/rlnn_exp.004.png,,,,,,,,,,,,,,,,,,,,,,,,,,,,,,,,,,,,,,,,,,,,,,,,,,,,,,,,,,,,,,,,,,,,,,,,,,,,,,,,,,,
,,660c9c26e4220931438f3d30,66fc9906f3d24af3577dcb6f,2024-10-01_18h52.12.569,mdp,2024.2.1,Win32,166.6666667,66fa4ebf79326e780c390304,,,,,,,,,63.449,95.92,y,22.441,,,,,,,,,,,,,,,,,,,,,,,,,,,,,,,,,,,,,,,,,,,,,,,,,,,,,,,,,,,,,,,,,,,,,,,,,,,,,,,
,,660c9c26e4220931438f3d30,66fc9906f3d24af3577dcb6f,2024-10-01_18h52.12.569,mdp,2024.2.1,Win32,166.6666667,66fa4ebf79326e780c390304,,,,,,,,,,,,,,1,seqs/st1seq6.csv,95.927,99.044,space,2.599,,99.046,99.046,99.046,102.281,1,1,right,2.73,,102.286,102.287,,1,,102.287,102.287,,1,,0,102.287,102.287,102.287,103.781,0,0,0,0,1,0.8,0.2,0.4,0.6,1,0,,,,,,,,,,,,,,,,,,,,,,,,,,,,,,,,,,,,
,,660c9c26e4220931438f3d30,66fc9906f3d24af3577dcb6f,2024-10-01_18h52.12.569,mdp,2024.2.1,Win32,166.6666667,66fa4ebf79326e780c390304,,,,,,,,,,,,,,,,,,,,,103.781,103.781,103.781,107.111,0,0,left,2.799,,107.116,107.117,,0,,107.117,107.117,,0,,1,107.117,107.117,107.117,108.612,0,1,1,1,1,0.8,0.2,0.4,0.6,1,0,,,,,,,,,,,,,,,,,,,,,,,,,,,,,,,,,,,,
,,660c9c26e4220931438f3d30,66fc9906f3d24af3577dcb6f,2024-10-01_18h52.12.569,mdp,2024.2.1,Win32,166.6666667,66fa4ebf79326e780c390304,,,,,,,,,,,,,,,,,,,,,108.612,108.612,108.613,109.994,0,0,left,0.879,,109.994,109.994,,0,,109.994,109.994,,0,,1,109.994,109.994,109.995,111.511,0,2,2,2,1,0.8,0.2,0.4,0.6,1,0,,,,,,,,,,,,,,,,,,,,,,,,,,,,,,,,,,,,
,,660c9c26e4220931438f3d30,66fc9906f3d24af3577dcb6f,2024-10-01_18h52.12.569,mdp,2024.2.1,Win32,166.6666667,66fa4ebf79326e780c390304,,,,,,,,,,,,,,,,,,,,,111.511,111.511,111.512,112.52,0,1,left,0.505,,112.521,112.522,,1,,112.522,112.522,,0,,0,112.522,112.522,112.522,114.018,0,3,3,3,1,0.8,0.2,0.4,0.6,1,0,,,,,,,,,,,,,,,,,,,,,,,,,,,,,,,,,,,,
,,660c9c26e4220931438f3d30,66fc9906f3d24af3577dcb6f,2024-10-01_18h52.12.569,mdp,2024.2.1,Win32,166.6666667,66fa4ebf79326e780c390304,,,,,,,,,,,,,,,,,,,,,114.018,114.018,114.018,115.387,1,1,right,0.86,,115.388,115.388,,0,,115.388,115.388,,0,,0,115.388,115.388,115.389,116.88,0,4,4,4,1,0.8,0.2,0.4,0.6,1,0,,,,,,,,,,,,,,,,,,,,,,,,,,,,,,,,,,,,
,,660c9c26e4220931438f3d30,66fc9906f3d24af3577dcb6f,2024-10-01_18h52.12.569,mdp,2024.2.1,Win32,166.6666667,66fa4ebf79326e780c390304,,,,,,,,,,,,,,,,,,,,,116.88,116.88,116.88,119.588,0,0,left,2.201,,119.588,119.589,,0,,119.589,119.589,,0,,1,119.589,119.589,119.59,121.113,0,5,5,5,1,0.8,0.2,0.4,0.6,1,0,,,,,,,,,,,,,,,,,,,,,,,,,,,,,,,,,,,,
,,660c9c26e4220931438f3d30,66fc9906f3d24af3577dcb6f,2024-10-01_18h52.12.569,mdp,2024.2.1,Win32,166.6666667,66fa4ebf79326e780c390304,,,,,,,,,,,,,,,,,,,,,121.113,121.113,121.113,122.085,0,0,left,0.434,,122.085,122.085,,0,,122.086,122.086,,1,,1,122.086,122.086,122.086,123.588,0,6,6,6,1,0.8,0.2,0.4,0.6,1,0,,,,,,,,,,,,,,,,,,,,,,,,,,,,,,,,,,,,
,,660c9c26e4220931438f3d30,66fc9906f3d24af3577dcb6f,2024-10-01_18h52.12.569,mdp,2024.2.1,Win32,166.6666667,66fa4ebf79326e780c390304,,,,,,,,,,,,,,,,,,,,,123.588,123.588,123.589,124.679,0,0,left,0.566,,124.679,124.679,,1,,124.679,124.679,,0,,1,124.679,124.679,124.679,126.178,0,7,7,7,1,0.8,0.2,0.4,0.6,1,0,,,,,,,,,,,,,,,,,,,,,,,,,,,,,,,,,,,,
,,660c9c26e4220931438f3d30,66fc9906f3d24af3577dcb6f,2024-10-01_18h52.12.569,mdp,2024.2.1,Win32,166.6666667,66fa4ebf79326e780c390304,,,,,,,,,,,,,,,,,,,,,126.179,126.179,126.179,127.178,0,1,left,0.498,,127.179,127.18,,0,,127.18,127.18,,0,,0,127.18,127.18,127.18,128.679,0,8,8,8,1,0.8,0.2,0.4,0.6,1,0,,,,,,,,,,,,,,,,,,,,,,,,,,,,,,,,,,,,
,,660c9c26e4220931438f3d30,66fc9906f3d24af3577dcb6f,2024-10-01_18h52.12.569,mdp,2024.2.1,Win32,166.6666667,66fa4ebf79326e780c390304,,,,,,,,,,,,,,,,,,,,,128.679,128.679,128.679,130.579,0,1,left,1.398,,130.579,130.579,,0,,130.58,130.58,,0,,0,130.58,130.58,130.58,132.078,0,9,9,9,1,0.8,0.2,0.4,0.6,1,0,,,,,,,,,,,,,,,,,,,,,,,,,,,,,,,,,,,,
,,660c9c26e4220931438f3d30,66fc9906f3d24af3577dcb6f,2024-10-01_18h52.12.569,mdp,2024.2.1,Win32,166.6666667,66fa4ebf79326e780c390304,,,,,,,,,,,,,,,,,,,,,132.079,132.079,132.08,133.727,0,0,left,1.147,,133.728,133.729,,0,,133.729,133.729,,0,,1,133.729,133.729,133.729,135.246,0,10,10,10,1,0.8,0.2,0.4,0.6,1,0,,,,,,,,,,,,,,,,,,,,,,,,,,,,,,,,,,,,
,,660c9c26e4220931438f3d30,66fc9906f3d24af3577dcb6f,2024-10-01_18h52.12.569,mdp,2024.2.1,Win32,166.6666667,66fa4ebf79326e780c390304,,,,,,,,,,,,,,,,,,,,,135.246,135.246,135.246,136.379,0,1,left,0.6,,136.379,136.38,,1,,136.38,136.38,,1,,0,136.38,136.38,136.381,137.879,0,11,11,11,1,0.2,0.8,0.6,0.4,1,0,,,,,,,,,,,,,,,,,,,,,,,,,,,,,,,,,,,,
,,660c9c26e4220931438f3d30,66fc9906f3d24af3577dcb6f,2024-10-01_18h52.12.569,mdp,2024.2.1,Win32,166.6666667,66fa4ebf79326e780c390304,,,,,,,,,,,,,,,,,,,,,137.879,137.879,137.879,139.412,0,1,left,1.031,,139.413,139.414,,1,,139.414,139.414,,1,,0,139.414,139.414,139.414,140.912,0,12,12,12,1,0.2,0.8,0.6,0.4,1,0,,,,,,,,,,,,,,,,,,,,,,,,,,,,,,,,,,,,
,,660c9c26e4220931438f3d30,66fc9906f3d24af3577dcb6f,2024-10-01_18h52.12.569,mdp,2024.2.1,Win32,166.6666667,66fa4ebf79326e780c390304,,,,,,,,,,,,,,,,,,,,,140.912,140.912,140.913,141.979,0,0,left,0.566,,141.98,141.98,,0,,141.98,141.98,,1,,1,141.98,141.98,141.981,143.479,0,13,13,13,1,0.8,0.2,0.2,0.8,1,0,,,,,,,,,,,,,,,,,,,,,,,,,,,,,,,,,,,,
,,660c9c26e4220931438f3d30,66fc9906f3d24af3577dcb6f,2024-10-01_18h52.12.569,mdp,2024.2.1,Win32,166.6666667,66fa4ebf79326e780c390304,,,,,,,,,,,,,,,,,,,,,143.48,143.48,143.48,145.379,0,0,left,1.396,,145.379,145.38,,1,,145.38,145.38,,0,,1,145.38,145.38,145.381,146.879,0,14,14,14,1,0.6,0.4,0.4,0.6,1,0,,,,,,,,,,,,,,,,,,,,,,,,,,,,,,,,,,,,
,,660c9c26e4220931438f3d30,66fc9906f3d24af3577dcb6f,2024-10-01_18h52.12.569,mdp,2024.2.1,Win32,166.6666667,66fa4ebf79326e780c390304,,,,,,,,,,,,,,,,,,,,,146.879,146.879,146.879,148.546,0,0,left,1.164,,148.546,148.546,,1,,148.547,148.547,,1,,1,148.547,148.547,148.548,150.046,0,15,15,15,1,0.6,0.4,0.4,0.6,1,0,,,,,,,,,,,,,,,,,,,,,,,,,,,,,,,,,,,,
,,660c9c26e4220931438f3d30,66fc9906f3d24af3577dcb6f,2024-10-01_18h52.12.569,mdp,2024.2.1,Win32,166.6666667,66fa4ebf79326e780c390304,,,,,,,,,,,,,,,,,,,,,150.046,150.046,150.047,151.713,0,1,left,1.166,,151.713,151.714,,0,,151.714,151.714,,0,,0,151.714,151.714,151.714,153.212,0,16,16,16,1,0.6,0.4,0.4,0.6,1,0,,,,,,,,,,,,,,,,,,,,,,,,,,,,,,,,,,,,
,,660c9c26e4220931438f3d30,66fc9906f3d24af3577dcb6f,2024-10-01_18h52.12.569,mdp,2024.2.1,Win32,166.6666667,66fa4ebf79326e780c390304,,,,,,,,,,,,,,,,,,,,,153.213,153.213,153.213,154.08,0,1,left,0.363,,154.08,154.08,,0,,154.08,154.08,,1,,0,154.08,154.08,154.081,155.58,0,17,17,17,1,0.4,0.6,0.6,0.4,1,0,,,,,,,,,,,,,,,,,,,,,,,,,,,,,,,,,,,,
,,660c9c26e4220931438f3d30,66fc9906f3d24af3577dcb6f,2024-10-01_18h52.12.569,mdp,2024.2.1,Win32,166.6666667,66fa4ebf79326e780c390304,,,,,,,,,,,,,,,,,,,,,155.58,155.58,155.58,156.528,0,1,left,0.446,,156.528,156.529,,0,,156.529,156.53,,0,,0,156.53,156.53,156.53,158.046,0,18,18,18,1,0.8,0.2,0.4,0.6,1,0,,,,,,,,,,,,,,,,,,,,,,,,,,,,,,,,,,,,
,,660c9c26e4220931438f3d30,66fc9906f3d24af3577dcb6f,2024-10-01_18h52.12.569,mdp,2024.2.1,Win32,166.6666667,66fa4ebf79326e780c390304,,,,,,,,,,,,,,,,,,,,,158.046,158.046,158.047,159.055,0,1,left,0.507,,159.056,159.056,,1,,159.056,159.056,,1,,0,159.056,159.056,159.056,160.548,0,19,19,19,1,0.2,0.8,0.8,0.2,1,0,,,,,,,,,,,,,,,,,,,,,,,,,,,,,,,,,,,,
,,660c9c26e4220931438f3d30,66fc9906f3d24af3577dcb6f,2024-10-01_18h52.12.569,mdp,2024.2.1,Win32,166.6666667,66fa4ebf79326e780c390304,,,,,,,,,,,,,,,,,,,,,160.548,160.548,160.548,161.247,1,0,right,0.196,,161.247,161.247,,0,,161.247,161.247,,0,,1,161.247,161.247,161.247,162.746,0,20,20,20,1,0.2,0.8,0.8,0.2,1,0,,,,,,,,,,,,,,,,,,,,,,,,,,,,,,,,,,,,
,,660c9c26e4220931438f3d30,66fc9906f3d24af3577dcb6f,2024-10-01_18h52.12.569,mdp,2024.2.1,Win32,166.6666667,66fa4ebf79326e780c390304,,,,,,,,,,,,,,,,,,,,,162.746,162.746,162.746,163.522,0,1,left,0.27,,163.522,163.523,,1,,163.523,163.524,,0,,0,163.524,163.524,163.524,165.046,0,21,21,21,1,0.2,0.8,0.8,0.2,1,0,,,,,,,,,,,,,,,,,,,,,,,,,,,,,,,,,,,,
,,660c9c26e4220931438f3d30,66fc9906f3d24af3577dcb6f,2024-10-01_18h52.12.569,mdp,2024.2.1,Win32,166.6666667,66fa4ebf79326e780c390304,,,,,,,,,,,,,,,,,,,,,165.047,165.047,165.047,165.647,1,0,right,0.099,,165.647,165.647,,0,,165.647,165.647,,0,,1,165.647,165.647,165.647,167.147,0,22,22,22,1,0.2,0.8,0.8,0.2,1,0,,,,,,,,,,,,,,,,,,,,,,,,,,,,,,,,,,,,
,,660c9c26e4220931438f3d30,66fc9906f3d24af3577dcb6f,2024-10-01_18h52.12.569,mdp,2024.2.1,Win32,166.6666667,66fa4ebf79326e780c390304,,,,,,,,,,,,,,,,,,,,,167.147,167.147,167.147,168.247,1,1,right,0.595,,168.247,168.248,,0,,168.248,168.248,,0,,0,168.248,168.248,168.248,169.746,0,23,23,23,1,0.8,0.2,0.6,0.4,1,0,,,,,,,,,,,,,,,,,,,,,,,,,,,,,,,,,,,,
,,660c9c26e4220931438f3d30,66fc9906f3d24af3577dcb6f,2024-10-01_18h52.12.569,mdp,2024.2.1,Win32,166.6666667,66fa4ebf79326e780c390304,,,,,,,,,,,,,,,,,,,,,169.746,169.746,169.747,170.583,0,0,left,0.335,,170.583,170.583,,0,,170.584,170.584,,0,,1,170.584,170.584,170.585,172.08,0,24,24,24,1,0.8,0.2,0.6,0.4,1,0,,,,,,,,,,,,,,,,,,,,,,,,,,,,,,,,,,,,
,,660c9c26e4220931438f3d30,66fc9906f3d24af3577dcb6f,2024-10-01_18h52.12.569,mdp,2024.2.1,Win32,166.6666667,66fa4ebf79326e780c390304,,,,,,,,,,,,,,,,,,,,,172.08,172.08,172.081,172.913,0,0,left,0.328,,172.914,172.914,,0,,172.914,172.914,,0,,1,172.914,172.914,172.914,174.414,0,25,25,25,1,0.8,0.2,0.6,0.4,1,0,,,,,,,,,,,,,,,,,,,,,,,,,,,,,,,,,,,,
,,660c9c26e4220931438f3d30,66fc9906f3d24af3577dcb6f,2024-10-01_18h52.12.569,mdp,2024.2.1,Win32,166.6666667,66fa4ebf79326e780c390304,,,,,,,,,,,,,,,,,,,,,174.414,174.414,174.414,175.128,0,0,left,0.212,,175.129,175.129,,0,,175.129,175.13,,0,,1,175.13,175.13,175.131,176.647,0,26,26,26,1,0.8,0.2,0.6,0.4,1,0,,,,,,,,,,,,,,,,,,,,,,,,,,,,,,,,,,,,
,,660c9c26e4220931438f3d30,66fc9906f3d24af3577dcb6f,2024-10-01_18h52.12.569,mdp,2024.2.1,Win32,166.6666667,66fa4ebf79326e780c390304,,,,,,,,,,,,,,,,,,,,,176.647,176.647,176.647,177.184,0,0,left,0.036,,177.184,177.184,,0,,177.185,177.185,,0,,1,177.185,177.185,177.185,178.681,0,27,27,27,1,0.8,0.2,0.6,0.4,1,0,,,,,,,,,,,,,,,,,,,,,,,,,,,,,,,,,,,,
,,660c9c26e4220931438f3d30,66fc9906f3d24af3577dcb6f,2024-10-01_18h52.12.569,mdp,2024.2.1,Win32,166.6666667,66fa4ebf79326e780c390304,,,,,,,,,,,,,,,,,,,,,178.681,178.681,178.682,179.313,0,1,left,0.129,,179.313,179.314,,1,,179.315,179.315,,1,,0,179.315,179.315,179.315,180.814,0,28,28,28,1,0.4,0.6,0.8,0.2,1,0,,,,,,,,,,,,,,,,,,,,,,,,,,,,,,,,,,,,
,,660c9c26e4220931438f3d30,66fc9906f3d24af3577dcb6f,2024-10-01_18h52.12.569,mdp,2024.2.1,Win32,166.6666667,66fa4ebf79326e780c390304,,,,,,,,,,,,,,,,,,,,,180.814,180.814,180.815,181.448,1,0,right,0.129,,181.448,181.448,,0,,181.448,181.448,,0,,1,181.448,181.448,181.449,182.947,0,29,29,29,1,0.4,0.6,0.8,0.2,1,0,,,,,,,,,,,,,,,,,,,,,,,,,,,,,,,,,,,,
,,660c9c26e4220931438f3d30,66fc9906f3d24af3577dcb6f,2024-10-01_18h52.12.569,mdp,2024.2.1,Win32,166.6666667,66fa4ebf79326e780c390304,,,,,,,,,,,,,,,,,,,,,182.947,182.947,182.947,184.123,0,1,left,0.668,,184.124,184.124,,1,,184.125,184.125,,1,,0,184.125,184.125,184.125,185.646,0,30,30,30,1,0.4,0.6,0.8,0.2,1,0,,,,,,,,,,,,,,,,,,,,,,,,,,,,,,,,,,,,
,,660c9c26e4220931438f3d30,66fc9906f3d24af3577dcb6f,2024-10-01_18h52.12.569,mdp,2024.2.1,Win32,166.6666667,66fa4ebf79326e780c390304,,,,,,,,,,,,,,,,,,,,,185.647,185.647,185.647,186.681,1,0,right,0.532,,186.681,186.681,,0,,186.681,186.682,,0,,1,186.682,186.682,186.682,188.18,0,31,31,31,1,0.4,0.6,0.8,0.2,1,0,,,,,,,,,,,,,,,,,,,,,,,,,,,,,,,,,,,,
,,660c9c26e4220931438f3d30,66fc9906f3d24af3577dcb6f,2024-10-01_18h52.12.569,mdp,2024.2.1,Win32,166.6666667,66fa4ebf79326e780c390304,,,,,,,,,,,,,,,,,,,,,188.181,188.181,188.181,190.081,1,0,right,1.367,,190.081,190.081,,0,,190.082,190.082,,0,,1,190.082,190.082,190.082,191.581,0,32,32,32,1,0.4,0.6,0.8,0.2,1,0,,,,,,,,,,,,,,,,,,,,,,,,,,,,,,,,,,,,
,,660c9c26e4220931438f3d30,66fc9906f3d24af3577dcb6f,2024-10-01_18h52.12.569,mdp,2024.2.1,Win32,166.6666667,66fa4ebf79326e780c390304,,,,,,,,,,,,,,,,,,,,,191.581,191.581,191.581,192.214,1,0,right,0.131,,192.214,192.215,,0,,192.215,192.215,,0,,1,192.215,192.216,192.216,193.714,0,33,33,33,1,0.4,0.6,0.8,0.2,1,0,,,,,,,,,,,,,,,,,,,,,,,,,,,,,,,,,,,,
,,660c9c26e4220931438f3d30,66fc9906f3d24af3577dcb6f,2024-10-01_18h52.12.569,mdp,2024.2.1,Win32,166.6666667,66fa4ebf79326e780c390304,,,,,,,,,,,,,,,,,,,,,193.714,193.714,193.715,194.714,1,0,right,0.499,,194.714,194.714,,0,,194.714,194.715,,0,,1,194.715,194.715,194.715,196.214,0,34,34,34,1,0.4,0.6,0.8,0.2,1,0,,,,,,,,,,,,,,,,,,,,,,,,,,,,,,,,,,,,
,,660c9c26e4220931438f3d30,66fc9906f3d24af3577dcb6f,2024-10-01_18h52.12.569,mdp,2024.2.1,Win32,166.6666667,66fa4ebf79326e780c390304,,,,,,,,,,,,,,,,,,,,,196.214,196.214,196.215,197.048,1,1,right,0.329,,197.048,197.048,,1,,197.049,197.049,,1,,0,197.049,197.049,197.049,198.547,0,35,35,35,1,0.8,0.2,0.2,0.8,1,0,,,,,,,,,,,,,,,,,,,,,,,,,,,,,,,,,,,,
,,660c9c26e4220931438f3d30,66fc9906f3d24af3577dcb6f,2024-10-01_18h52.12.569,mdp,2024.2.1,Win32,166.6666667,66fa4ebf79326e780c390304,,,,,,,,,,,,,,,,,,,,,198.547,198.547,198.548,199.214,0,0,left,0.164,,199.214,199.214,,0,,199.215,199.215,,0,,1,199.215,199.215,199.215,200.714,0,36,36,36,1,0.8,0.2,0.2,0.8,1,0,,,,,,,,,,,,,,,,,,,,,,,,,,,,,,,,,,,,
,,660c9c26e4220931438f3d30,66fc9906f3d24af3577dcb6f,2024-10-01_18h52.12.569,mdp,2024.2.1,Win32,166.6666667,66fa4ebf79326e780c390304,,,,,,,,,,,,,,,,,,,,,200.714,200.714,200.715,202.314,0,1,left,1.099,,202.314,202.315,,1,,202.315,202.315,,1,,0,202.315,202.315,202.315,203.814,0,37,37,37,1,0.6,0.4,0.8,0.2,1,0,,,,,,,,,,,,,,,,,,,,,,,,,,,,,,,,,,,,
,,660c9c26e4220931438f3d30,66fc9906f3d24af3577dcb6f,2024-10-01_18h52.12.569,mdp,2024.2.1,Win32,166.6666667,66fa4ebf79326e780c390304,,,,,,,,,,,,,,,,,,,,,203.814,203.814,203.815,204.581,1,0,right,0.266,,204.582,204.582,,0,,204.582,204.582,,0,,1,204.582,204.582,204.583,206.081,0,38,38,38,1,0.8,0.2,0.6,0.4,1,0,,,,,,,,,,,,,,,,,,,,,,,,,,,,,,,,,,,,
,,660c9c26e4220931438f3d30,66fc9906f3d24af3577dcb6f,2024-10-01_18h52.12.569,mdp,2024.2.1,Win32,166.6666667,66fa4ebf79326e780c390304,,,,,,,,,,,,,,,,,,,,,206.081,206.081,206.082,207.047,1,0,right,0.464,,207.048,207.048,,0,,207.048,207.048,,0,,1,207.048,207.048,207.048,208.548,0,39,39,39,1,0.8,0.2,0.6,0.4,1,0,,,,,,,,,,,,,,,,,,,,,,,,,,,,,,,,,,,,
,,660c9c26e4220931438f3d30,66fc9906f3d24af3577dcb6f,2024-10-01_18h52.12.569,mdp,2024.2.1,Win32,166.6666667,66fa4ebf79326e780c390304,,,,,,,,,,,,,,,,,,,,,208.548,208.548,208.548,209.381,1,0,right,0.328,,209.381,209.381,,0,,209.382,209.382,,1,,1,209.382,209.382,209.382,210.881,0,40,40,40,1,0.2,0.8,0.8,0.2,1,0,,,,,,,,,,,,,,,,,,,,,,,,,,,,,,,,,,,,
,,660c9c26e4220931438f3d30,66fc9906f3d24af3577dcb6f,2024-10-01_18h52.12.569,mdp,2024.2.1,Win32,166.6666667,66fa4ebf79326e780c390304,,,,,,,,,,,,,,,,,,,,,210.881,210.881,210.882,211.814,1,0,right,0.432,,211.815,211.815,,0,,211.815,211.816,,0,,1,211.816,211.816,211.816,213.314,0,41,41,41,1,0.2,0.8,0.8,0.2,1,0,,,,,,,,,,,,,,,,,,,,,,,,,,,,,,,,,,,,
,,660c9c26e4220931438f3d30,66fc9906f3d24af3577dcb6f,2024-10-01_18h52.12.569,mdp,2024.2.1,Win32,166.6666667,66fa4ebf79326e780c390304,,,,,,,,,,,,,,,,,,,,,213.314,213.314,213.315,214.181,1,0,right,0.366,,214.182,214.182,,0,,214.182,214.182,,0,,1,214.182,214.182,214.182,215.681,0,42,42,42,1,0.2,0.8,0.8,0.2,1,0,,,,,,,,,,,,,,,,,,,,,,,,,,,,,,,,,,,,
,,660c9c26e4220931438f3d30,66fc9906f3d24af3577dcb6f,2024-10-01_18h52.12.569,mdp,2024.2.1,Win32,166.6666667,66fa4ebf79326e780c390304,,,,,,,,,,,,,,,,,,,,,215.681,215.681,215.682,216.448,1,1,right,0.266,,216.449,216.449,,1,,216.449,216.449,,0,,0,216.449,216.449,216.449,217.948,0,43,43,43,1,0.2,0.8,0.8,0.2,1,0,,,,,,,,,,,,,,,,,,,,,,,,,,,,,,,,,,,,
,,660c9c26e4220931438f3d30,66fc9906f3d24af3577dcb6f,2024-10-01_18h52.12.569,mdp,2024.2.1,Win32,166.6666667,66fa4ebf79326e780c390304,,,,,,,,,,,,,,,,,,,,,217.948,217.948,217.948,218.581,0,1,left,0.132,,218.581,218.582,,1,,218.583,218.583,,1,,0,218.583,218.583,218.583,220.081,0,44,44,44,1,0.2,0.8,0.8,0.2,1,0,,,,,,,,,,,,,,,,,,,,,,,,,,,,,,,,,,,,
,,660c9c26e4220931438f3d30,66fc9906f3d24af3577dcb6f,2024-10-01_18h52.12.569,mdp,2024.2.1,Win32,166.6666667,66fa4ebf79326e780c390304,,,,,,,,,,,,,,,,,,,,,220.082,220.082,220.082,220.715,1,1,right,0.132,,220.715,220.716,,1,,220.716,220.716,,0,,0,220.716,220.716,220.716,222.214,0,45,45,45,1,0.2,0.8,0.8,0.2,1,0,,,,,,,,,,,,,,,,,,,,,,,,,,,,,,,,,,,,
,,660c9c26e4220931438f3d30,66fc9906f3d24af3577dcb6f,2024-10-01_18h52.12.569,mdp,2024.2.1,Win32,166.6666667,66fa4ebf79326e780c390304,,,,,,,,,,,,,,,,,,,,,222.214,222.214,222.215,222.785,1,0,right,0.066,,222.785,222.786,,1,,222.786,222.786,,1,,1,222.786,222.786,222.786,224.281,0,46,46,46,1,0.2,0.8,0.8,0.2,1,0,,,,,,,,,,,,,,,,,,,,,,,,,,,,,,,,,,,,
,,660c9c26e4220931438f3d30,66fc9906f3d24af3577dcb6f,2024-10-01_18h52.12.569,mdp,2024.2.1,Win32,166.6666667,66fa4ebf79326e780c390304,,,,,,,,,,,,,,,,,,,,,224.282,224.282,224.282,224.948,1,0,right,0.165,,224.949,224.949,,0,,224.949,224.949,,0,,1,224.949,224.949,224.949,226.448,0,47,47,47,1,0.2,0.8,0.8,0.2,1,0,,,,,,,,,,,,,,,,,,,,,,,,,,,,,,,,,,,,
,,660c9c26e4220931438f3d30,66fc9906f3d24af3577dcb6f,2024-10-01_18h52.12.569,mdp,2024.2.1,Win32,166.6666667,66fa4ebf79326e780c390304,,,,,,,,,,,,,,,,,,,,,226.448,226.448,226.448,227.248,1,0,right,0.299,,227.249,227.249,,0,,227.249,227.249,,0,,1,227.249,227.249,227.249,228.748,0,48,48,48,1,0.2,0.8,0.8,0.2,1,0,,,,,,,,,,,,,,,,,,,,,,,,,,,,,,,,,,,,
,,660c9c26e4220931438f3d30,66fc9906f3d24af3577dcb6f,2024-10-01_18h52.12.569,mdp,2024.2.1,Win32,166.6666667,66fa4ebf79326e780c390304,,,,,,,,,,,,,,,,,,,,,228.748,228.748,228.748,229.315,1,0,right,0.065,,229.315,229.315,,0,,229.315,229.315,,0,,1,229.315,229.315,229.316,230.815,0,49,49,49,1,0.2,0.8,0.8,0.2,1,0,,,,,,,,,,,,,,,,,,,,,,,,,,,,,,,,,,,,
,,660c9c26e4220931438f3d30,66fc9906f3d24af3577dcb6f,2024-10-01_18h52.12.569,mdp,2024.2.1,Win32,166.6666667,66fa4ebf79326e780c390304,,,,,,,,,,,,,,,,,,,,,,,,,,,,,,,,,,,,,,,,,,,,,,,,,,,,,,,,230.815,289.317,0,0,0,8,1,imgs/elephant.png,imgs/giraffe.png,imgs/bear.png,imgs/kangaroo.png,imgs/goat.png,,,,,,,,,,,,,,,,,,,,,,,,
,,660c9c26e4220931438f3d30,66fc9906f3d24af3577dcb6f,2024-10-01_18h52.12.569,mdp,2024.2.1,Win32,166.6666667,66fa4ebf79326e780c390304,,,,,,,,,,,,,,2,seqs/st2seq16.csv,289.322,300.784,space,10.933,,300.785,300.785,300.786,302.327,1,0,right,1.01,,302.327,304.326,1,1,right,304.328,304.328,,1,,0,304.328,304.328,304.328,305.824,0,0,0,0,1,0.8,0.2,0.6,0.4,,,,,,,,,,,,,,,1.467,,0.8,0.2,0.2,0.8,0.2,0.8,0.4,0.6,1,0,,,,,,,,,,,,
,,660c9c26e4220931438f3d30,66fc9906f3d24af3577dcb6f,2024-10-01_18h52.12.569,mdp,2024.2.1,Win32,166.6666667,66fa4ebf79326e780c390304,,,,,,,,,,,,,,,,,,,,,305.824,305.824,305.824,307.384,1,0,right,1.056,,307.384,308.25,0,0,left,308.251,308.251,,1,,1,308.251,308.251,308.251,309.75,0,1,1,1,1,0.8,0.2,0.6,0.4,,,,,,,,,,,,,,,0.365,,0.8,0.2,0.2,0.8,0.2,0.8,0.4,0.6,1,0,,,,,,,,,,,,
,,660c9c26e4220931438f3d30,66fc9906f3d24af3577dcb6f,2024-10-01_18h52.12.569,mdp,2024.2.1,Win32,166.6666667,66fa4ebf79326e780c390304,,,,,,,,,,,,,,,,,,,,,309.75,309.75,309.751,311.084,1,0,right,0.831,,311.084,312.084,0,0,left,312.084,312.084,,0,,1,312.084,312.084,312.084,313.584,0,2,2,2,1,0.8,0.2,0.6,0.4,,,,,,,,,,,,,,,0.499,,0.6,0.4,0.8,0.2,0.2,0.8,0.4,0.6,1,0,,,,,,,,,,,,
,,660c9c26e4220931438f3d30,66fc9906f3d24af3577dcb6f,2024-10-01_18h52.12.569,mdp,2024.2.1,Win32,166.6666667,66fa4ebf79326e780c390304,,,,,,,,,,,,,,,,,,,,,313.584,313.584,313.585,314.517,1,1,right,0.432,,314.518,315.417,0,0,left,315.417,315.417,,1,,1,315.417,315.417,315.418,316.918,0,3,3,3,1,0.8,0.2,0.6,0.4,,,,,,,,,,,,,,,0.397,,0.6,0.4,0.8,0.2,0.2,0.8,0.4,0.6,1,0,,,,,,,,,,,,
,,660c9c26e4220931438f3d30,66fc9906f3d24af3577dcb6f,2024-10-01_18h52.12.569,mdp,2024.2.1,Win32,166.6666667,66fa4ebf79326e780c390304,,,,,,,,,,,,,,,,,,,,,316.918,316.918,316.918,317.921,1,0,right,0.499,,317.921,318.994,0,0,left,318.994,318.995,,1,,1,318.995,318.995,318.995,320.491,0,4,4,4,1,0.8,0.2,0.6,0.4,,,,,,,,,,,,,,,0.538,,0.6,0.4,0.8,0.2,0.6,0.4,0.8,0.2,1,0,,,,,,,,,,,,
,,660c9c26e4220931438f3d30,66fc9906f3d24af3577dcb6f,2024-10-01_18h52.12.569,mdp,2024.2.1,Win32,166.6666667,66fa4ebf79326e780c390304,,,,,,,,,,,,,,,,,,,,,320.491,320.491,320.491,321.321,1,0,right,0.324,,321.321,323.424,0,1,left,323.424,323.425,,0,,0,323.425,323.425,323.426,324.921,0,5,5,5,1,0.8,0.2,0.6,0.4,,,,,,,,,,,,,,,1.572,,0.6,0.4,0.8,0.2,0.6,0.4,0.8,0.2,1,0,,,,,,,,,,,,
,,660c9c26e4220931438f3d30,66fc9906f3d24af3577dcb6f,2024-10-01_18h52.12.569,mdp,2024.2.1,Win32,166.6666667,66fa4ebf79326e780c390304,,,,,,,,,,,,,,,,,,,,,324.921,324.921,324.921,326.522,1,1,right,1.069,,326.522,327.785,1,0,right,327.785,327.785,,1,,1,327.785,327.785,327.785,329.284,0,6,6,6,1,0.8,0.2,0.6,0.4,,,,,,,,,,,,,,,0.733,,0.6,0.4,0.8,0.2,0.6,0.4,0.8,0.2,1,0,,,,,,,,,,,,
,,660c9c26e4220931438f3d30,66fc9906f3d24af3577dcb6f,2024-10-01_18h52.12.569,mdp,2024.2.1,Win32,166.6666667,66fa4ebf79326e780c390304,,,,,,,,,,,,,,,,,,,,,329.284,329.284,329.285,330.318,1,1,right,0.532,,330.318,331.518,1,0,right,331.518,331.518,,0,,1,331.518,331.518,331.518,333.018,0,7,7,7,1,0.8,0.2,0.6,0.4,,,,,,,,,,,,,,,0.698,,0.6,0.4,0.8,0.2,0.6,0.4,0.8,0.2,1,0,,,,,,,,,,,,
,,660c9c26e4220931438f3d30,66fc9906f3d24af3577dcb6f,2024-10-01_18h52.12.569,mdp,2024.2.1,Win32,166.6666667,66fa4ebf79326e780c390304,,,,,,,,,,,,,,,,,,,,,333.018,333.018,333.018,334.118,1,1,right,0.6,,334.119,335.351,1,0,right,335.352,335.352,,0,,1,335.352,335.352,335.352,336.852,0,8,8,8,1,0.8,0.2,0.6,0.4,,,,,,,,,,,,,,,0.731,,0.6,0.4,0.8,0.2,0.6,0.4,0.8,0.2,1,0,,,,,,,,,,,,
,,660c9c26e4220931438f3d30,66fc9906f3d24af3577dcb6f,2024-10-01_18h52.12.569,mdp,2024.2.1,Win32,166.6666667,66fa4ebf79326e780c390304,,,,,,,,,,,,,,,,,,,,,336.852,336.852,336.852,337.8,1,0,right,0.447,,337.801,338.618,1,1,right,338.618,338.618,,1,,0,338.618,338.618,338.619,340.118,0,9,9,9,1,0.8,0.2,0.6,0.4,,,,,,,,,,,,,,,0.297,,0.8,0.2,0.4,0.6,0.6,0.4,0.8,0.2,1,0,,,,,,,,,,,,
,,660c9c26e4220931438f3d30,66fc9906f3d24af3577dcb6f,2024-10-01_18h52.12.569,mdp,2024.2.1,Win32,166.6666667,66fa4ebf79326e780c390304,,,,,,,,,,,,,,,,,,,,,340.118,340.118,340.118,341.152,1,0,right,0.533,,341.152,342.185,0,0,left,342.185,342.186,,0,,1,342.186,342.186,342.186,343.685,0,10,10,10,1,0.8,0.2,0.6,0.4,,,,,,,,,,,,,,,0.529,,0.8,0.2,0.4,0.6,0.6,0.4,0.8,0.2,1,0,,,,,,,,,,,,
,,660c9c26e4220931438f3d30,66fc9906f3d24af3577dcb6f,2024-10-01_18h52.12.569,mdp,2024.2.1,Win32,166.6666667,66fa4ebf79326e780c390304,,,,,,,,,,,,,,,,,,,,,343.685,343.685,343.685,344.651,1,0,right,0.461,,344.651,345.785,0,0,left,345.785,345.785,,0,,1,345.785,345.785,345.785,347.285,0,11,11,11,1,0.8,0.2,0.6,0.4,,,,,,,,,,,,,,,0.632,,0.8,0.2,0.4,0.6,0.6,0.4,0.8,0.2,1,0,,,,,,,,,,,,
,,660c9c26e4220931438f3d30,66fc9906f3d24af3577dcb6f,2024-10-01_18h52.12.569,mdp,2024.2.1,Win32,166.6666667,66fa4ebf79326e780c390304,,,,,,,,,,,,,,,,,,,,,347.285,347.285,347.285,348.122,1,0,right,0.333,,348.123,349.185,0,0,left,349.185,349.186,,0,,1,349.186,349.186,349.186,350.685,0,12,12,12,1,0.8,0.2,0.6,0.4,,,,,,,,,,,,,,,0.534,,0.8,0.2,0.4,0.6,0.4,0.6,0.2,0.8,1,0,,,,,,,,,,,,
,,660c9c26e4220931438f3d30,66fc9906f3d24af3577dcb6f,2024-10-01_18h52.12.569,mdp,2024.2.1,Win32,166.6666667,66fa4ebf79326e780c390304,,,,,,,,,,,,,,,,,,,,,350.685,350.685,350.685,351.585,1,0,right,0.399,,351.586,352.552,0,0,left,352.552,352.553,,1,,1,352.553,352.553,352.553,354.052,0,13,13,13,1,0.8,0.2,0.6,0.4,,,,,,,,,,,,,,,0.466,,0.8,0.2,0.4,0.6,0.4,0.6,0.2,0.8,1,0,,,,,,,,,,,,
,,660c9c26e4220931438f3d30,66fc9906f3d24af3577dcb6f,2024-10-01_18h52.12.569,mdp,2024.2.1,Win32,166.6666667,66fa4ebf79326e780c390304,,,,,,,,,,,,,,,,,,,,,354.052,354.052,354.052,354.928,1,0,right,0.373,,354.928,356.025,0,0,left,356.026,356.026,,1,,1,356.026,356.026,356.027,357.522,0,14,14,14,1,0.8,0.2,0.6,0.4,,,,,,,,,,,,,,,0.571,,0.8,0.2,0.4,0.6,0.4,0.6,0.2,0.8,1,0,,,,,,,,,,,,
,,660c9c26e4220931438f3d30,66fc9906f3d24af3577dcb6f,2024-10-01_18h52.12.569,mdp,2024.2.1,Win32,166.6666667,66fa4ebf79326e780c390304,,,,,,,,,,,,,,,,,,,,,357.522,357.522,357.523,358.652,1,0,right,0.601,,358.652,359.618,0,0,left,359.619,359.619,,1,,1,359.619,359.619,359.619,361.119,0,15,15,15,1,0.8,0.2,0.6,0.4,,,,,,,,,,,,,,,0.464,,0.8,0.2,0.4,0.6,0.6,0.4,0.8,0.2,1,0,,,,,,,,,,,,
,,660c9c26e4220931438f3d30,66fc9906f3d24af3577dcb6f,2024-10-01_18h52.12.569,mdp,2024.2.1,Win32,166.6666667,66fa4ebf79326e780c390304,,,,,,,,,,,,,,,,,,,,,361.119,361.119,361.12,362.252,1,0,right,0.631,,362.252,363.287,0,1,left,363.287,363.287,,0,,0,363.287,363.287,363.287,364.786,0,16,16,16,1,0.8,0.2,0.6,0.4,,,,,,,,,,,,,,,0.534,,0.8,0.2,0.4,0.6,0.6,0.4,0.8,0.2,1,0,,,,,,,,,,,,
,,660c9c26e4220931438f3d30,66fc9906f3d24af3577dcb6f,2024-10-01_18h52.12.569,mdp,2024.2.1,Win32,166.6666667,66fa4ebf79326e780c390304,,,,,,,,,,,,,,,,,,,,,364.786,364.786,364.786,365.626,1,0,right,0.335,,365.626,366.602,1,0,right,366.602,366.603,,0,,1,366.603,366.603,366.603,368.119,0,17,17,17,1,0.8,0.2,0.6,0.4,,,,,,,,,,,,,,,0.469,,0.8,0.2,0.4,0.6,0.6,0.4,0.8,0.2,1,0,,,,,,,,,,,,
,,660c9c26e4220931438f3d30,66fc9906f3d24af3577dcb6f,2024-10-01_18h52.12.569,mdp,2024.2.1,Win32,166.6666667,66fa4ebf79326e780c390304,,,,,,,,,,,,,,,,,,,,,368.119,368.119,368.12,369.086,1,1,right,0.466,,369.087,371.252,1,1,right,371.253,371.253,,0,,0,371.253,371.253,371.253,372.752,0,18,18,18,1,0.8,0.2,0.6,0.4,,,,,,,,,,,,,,,1.664,,0.8,0.2,0.4,0.6,0.6,0.4,0.8,0.2,1,0,,,,,,,,,,,,
,,660c9c26e4220931438f3d30,66fc9906f3d24af3577dcb6f,2024-10-01_18h52.12.569,mdp,2024.2.1,Win32,166.6666667,66fa4ebf79326e780c390304,,,,,,,,,,,,,,,,,,,,,372.752,372.752,372.753,373.652,1,0,right,0.398,,373.653,374.919,1,0,right,374.92,374.92,,1,,1,374.92,374.92,374.92,376.419,0,19,19,19,1,0.6,0.4,0.8,0.2,,,,,,,,,,,,,,,0.763,,0.8,0.2,0.4,0.6,0.6,0.4,0.8,0.2,1,0,,,,,,,,,,,,
,,660c9c26e4220931438f3d30,66fc9906f3d24af3577dcb6f,2024-10-01_18h52.12.569,mdp,2024.2.1,Win32,166.6666667,66fa4ebf79326e780c390304,,,,,,,,,,,,,,,,,,,,,376.419,376.419,376.419,377.487,1,0,right,0.567,,377.487,378.719,1,0,right,378.72,378.72,,1,,1,378.72,378.72,378.72,380.218,0,20,20,20,1,0.6,0.4,0.8,0.2,,,,,,,,,,,,,,,0.729,,0.8,0.2,0.4,0.6,0.6,0.4,0.8,0.2,1,0,,,,,,,,,,,,
,,660c9c26e4220931438f3d30,66fc9906f3d24af3577dcb6f,2024-10-01_18h52.12.569,mdp,2024.2.1,Win32,166.6666667,66fa4ebf79326e780c390304,,,,,,,,,,,,,,,,,,,,,380.219,380.219,380.219,381.026,1,0,right,0.302,,381.026,382.119,1,1,right,382.12,382.12,,0,,0,382.12,382.12,382.12,383.62,0,21,21,21,1,0.6,0.4,0.8,0.2,,,,,,,,,,,,,,,0.589,,0.8,0.2,0.4,0.6,0.6,0.4,0.8,0.2,1,0,,,,,,,,,,,,
,,660c9c26e4220931438f3d30,66fc9906f3d24af3577dcb6f,2024-10-01_18h52.12.569,mdp,2024.2.1,Win32,166.6666667,66fa4ebf79326e780c390304,,,,,,,,,,,,,,,,,,,,,383.62,383.62,383.62,384.452,1,0,right,0.332,,384.453,385.536,0,0,left,385.536,385.536,,0,,1,385.536,385.536,385.536,387.052,0,22,22,22,1,0.6,0.4,0.8,0.2,,,,,,,,,,,,,,,0.582,,0.8,0.2,0.4,0.6,0.8,0.2,0.2,0.8,1,0,,,,,,,,,,,,
,,660c9c26e4220931438f3d30,66fc9906f3d24af3577dcb6f,2024-10-01_18h52.12.569,mdp,2024.2.1,Win32,166.6666667,66fa4ebf79326e780c390304,,,,,,,,,,,,,,,,,,,,,387.053,387.053,387.053,388.119,1,0,right,0.565,,388.12,389.119,0,0,left,389.12,389.121,,0,,1,389.121,389.121,389.121,390.619,0,23,23,23,1,0.6,0.4,0.8,0.2,,,,,,,,,,,,,,,0.498,,0.8,0.2,0.4,0.6,0.8,0.2,0.2,0.8,1,0,,,,,,,,,,,,
,,660c9c26e4220931438f3d30,66fc9906f3d24af3577dcb6f,2024-10-01_18h52.12.569,mdp,2024.2.1,Win32,166.6666667,66fa4ebf79326e780c390304,,,,,,,,,,,,,,,,,,,,,390.619,390.619,390.62,391.353,1,0,right,0.232,,391.353,392.386,0,0,left,392.387,392.387,,0,,1,392.387,392.387,392.387,393.885,0,24,24,24,1,0.6,0.4,0.8,0.2,,,,,,,,,,,,,,,0.529,,0.8,0.2,0.4,0.6,0.8,0.2,0.2,0.8,1,0,,,,,,,,,,,,
,,660c9c26e4220931438f3d30,66fc9906f3d24af3577dcb6f,2024-10-01_18h52.12.569,mdp,2024.2.1,Win32,166.6666667,66fa4ebf79326e780c390304,,,,,,,,,,,,,,,,,,,,,393.885,393.885,393.886,394.735,1,1,right,0.348,,394.736,396.32,0,0,left,396.32,396.32,,0,,1,396.32,396.32,396.32,397.819,0,25,25,25,1,0.6,0.4,0.8,0.2,,,,,,,,,,,,,,,1.064,,0.8,0.2,0.4,0.6,0.8,0.2,0.2,0.8,1,0,,,,,,,,,,,,
,,660c9c26e4220931438f3d30,66fc9906f3d24af3577dcb6f,2024-10-01_18h52.12.569,mdp,2024.2.1,Win32,166.6666667,66fa4ebf79326e780c390304,,,,,,,,,,,,,,,,,,,,,397.82,397.82,397.82,398.653,1,0,right,0.332,,398.653,399.586,0,0,left,399.587,399.588,,0,,1,399.588,399.588,399.588,401.086,0,26,26,26,1,0.6,0.4,0.8,0.2,,,,,,,,,,,,,,,0.43,,0.8,0.2,0.4,0.6,0.8,0.2,0.2,0.8,1,0,,,,,,,,,,,,
,,660c9c26e4220931438f3d30,66fc9906f3d24af3577dcb6f,2024-10-01_18h52.12.569,mdp,2024.2.1,Win32,166.6666667,66fa4ebf79326e780c390304,,,,,,,,,,,,,,,,,,,,,401.086,401.086,401.087,401.753,1,0,right,0.166,,401.754,402.953,0,0,left,402.953,402.954,,0,,1,402.954,402.954,402.955,404.454,0,27,27,27,1,0.6,0.4,0.8,0.2,,,,,,,,,,,,,,,0.699,,0.8,0.2,0.4,0.6,0.8,0.2,0.2,0.8,1,0,,,,,,,,,,,,
,,660c9c26e4220931438f3d30,66fc9906f3d24af3577dcb6f,2024-10-01_18h52.12.569,mdp,2024.2.1,Win32,166.6666667,66fa4ebf79326e780c390304,,,,,,,,,,,,,,,,,,,,,404.454,404.454,404.454,405.419,1,0,right,0.464,,405.42,406.419,0,0,left,406.421,406.421,,0,,1,406.421,406.421,406.421,407.92,0,28,28,28,1,0.6,0.4,0.8,0.2,,,,,,,,,,,,,,,0.498,,0.8,0.2,0.4,0.6,0.8,0.2,0.2,0.8,1,0,,,,,,,,,,,,
,,660c9c26e4220931438f3d30,66fc9906f3d24af3577dcb6f,2024-10-01_18h52.12.569,mdp,2024.2.1,Win32,166.6666667,66fa4ebf79326e780c390304,,,,,,,,,,,,,,,,,,,,,407.92,407.92,407.92,408.761,1,0,right,0.338,,408.761,409.853,0,0,left,409.854,409.854,,0,,1,409.854,409.854,409.854,411.353,0,29,29,29,1,0.6,0.4,0.8,0.2,,,,,,,,,,,,,,,0.567,,0.8,0.2,0.4,0.6,0.8,0.2,0.2,0.8,1,0,,,,,,,,,,,,
,,660c9c26e4220931438f3d30,66fc9906f3d24af3577dcb6f,2024-10-01_18h52.12.569,mdp,2024.2.1,Win32,166.6666667,66fa4ebf79326e780c390304,,,,,,,,,,,,,,,,,,,,,411.353,411.353,411.354,411.936,1,0,right,0.081,,411.936,412.986,0,0,left,412.987,412.987,,0,,1,412.987,412.987,412.988,414.487,0,30,30,30,1,0.6,0.4,0.8,0.2,,,,,,,,,,,,,,,0.532,,0.8,0.2,0.4,0.6,0.8,0.2,0.2,0.8,1,0,,,,,,,,,,,,
,,660c9c26e4220931438f3d30,66fc9906f3d24af3577dcb6f,2024-10-01_18h52.12.569,mdp,2024.2.1,Win32,166.6666667,66fa4ebf79326e780c390304,,,,,,,,,,,,,,,,,,,,,414.487,414.487,414.488,415.064,1,0,right,0.075,,415.064,416.053,0,0,left,416.054,416.054,,0,,1,416.054,416.054,416.055,417.553,0,31,31,31,1,0.6,0.4,0.8,0.2,,,,,,,,,,,,,,,0.465,,0.8,0.2,0.4,0.6,0.8,0.2,0.2,0.8,1,0,,,,,,,,,,,,
,,660c9c26e4220931438f3d30,66fc9906f3d24af3577dcb6f,2024-10-01_18h52.12.569,mdp,2024.2.1,Win32,166.6666667,66fa4ebf79326e780c390304,,,,,,,,,,,,,,,,,,,,,417.554,417.554,417.554,418.221,1,0,right,0.161,,418.221,419.321,0,0,left,419.321,419.321,,1,,1,419.321,419.321,419.321,420.82,0,32,32,32,1,0.6,0.4,0.8,0.2,,,,,,,,,,,,,,,0.599,,0.8,0.2,0.4,0.6,0.6,0.4,0.4,0.6,1,0,,,,,,,,,,,,
,,660c9c26e4220931438f3d30,66fc9906f3d24af3577dcb6f,2024-10-01_18h52.12.569,mdp,2024.2.1,Win32,166.6666667,66fa4ebf79326e780c390304,,,,,,,,,,,,,,,,,,,,,420.821,420.821,420.821,421.658,1,0,right,0.329,,421.658,422.653,0,0,left,422.654,422.654,,0,,1,422.654,422.654,422.654,424.154,0,33,33,33,1,0.6,0.4,0.8,0.2,,,,,,,,,,,,,,,0.467,,0.8,0.2,0.4,0.6,0.6,0.4,0.4,0.6,1,0,,,,,,,,,,,,
,,660c9c26e4220931438f3d30,66fc9906f3d24af3577dcb6f,2024-10-01_18h52.12.569,mdp,2024.2.1,Win32,166.6666667,66fa4ebf79326e780c390304,,,,,,,,,,,,,,,,,,,,,424.154,424.154,424.155,424.853,1,0,right,0.194,,424.854,425.92,0,0,left,425.921,425.921,,0,,1,425.921,425.921,425.921,427.421,0,34,34,34,1,0.8,0.2,0.4,0.6,,,,,,,,,,,,,,,0.566,,0.8,0.2,0.4,0.6,0.6,0.4,0.4,0.6,1,0,,,,,,,,,,,,
,,660c9c26e4220931438f3d30,66fc9906f3d24af3577dcb6f,2024-10-01_18h52.12.569,mdp,2024.2.1,Win32,166.6666667,66fa4ebf79326e780c390304,,,,,,,,,,,,,,,,,,,,,427.421,427.421,427.421,428.321,1,0,right,0.395,,428.321,429.454,0,0,left,429.454,429.455,,0,,1,429.455,429.455,429.455,430.954,0,35,35,35,1,0.8,0.2,0.4,0.6,,,,,,,,,,,,,,,0.631,,0.8,0.2,0.4,0.6,0.6,0.4,0.4,0.6,1,0,,,,,,,,,,,,
,,660c9c26e4220931438f3d30,66fc9906f3d24af3577dcb6f,2024-10-01_18h52.12.569,mdp,2024.2.1,Win32,166.6666667,66fa4ebf79326e780c390304,,,,,,,,,,,,,,,,,,,,,430.954,430.954,430.954,431.737,1,0,right,0.279,,431.738,432.854,0,0,left,432.855,432.855,,0,,1,432.855,432.855,432.855,434.353,0,36,36,36,1,0.8,0.2,0.4,0.6,,,,,,,,,,,,,,,0.599,,0.8,0.2,0.4,0.6,0.8,0.2,0.8,0.2,1,0,,,,,,,,,,,,
,,660c9c26e4220931438f3d30,66fc9906f3d24af3577dcb6f,2024-10-01_18h52.12.569,mdp,2024.2.1,Win32,166.6666667,66fa4ebf79326e780c390304,,,,,,,,,,,,,,,,,,,,,434.354,434.354,434.354,434.991,1,1,right,0.135,,434.992,436.137,1,0,right,436.137,436.138,,1,,1,436.138,436.138,436.138,437.655,0,37,37,37,1,0.8,0.2,0.4,0.6,,,,,,,,,,,,,,,0.614,,0.8,0.2,0.4,0.6,0.8,0.2,0.8,0.2,1,0,,,,,,,,,,,,
,,660c9c26e4220931438f3d30,66fc9906f3d24af3577dcb6f,2024-10-01_18h52.12.569,mdp,2024.2.1,Win32,166.6666667,66fa4ebf79326e780c390304,,,,,,,,,,,,,,,,,,,,,437.655,437.655,437.655,438.554,1,0,right,0.399,,438.554,439.628,0,0,left,439.628,439.628,,1,,1,439.628,439.628,439.629,441.125,0,38,38,38,1,0.8,0.2,0.4,0.6,,,,,,,,,,,,,,,0.566,,0.8,0.2,0.4,0.6,0.8,0.2,0.8,0.2,1,0,,,,,,,,,,,,
,,660c9c26e4220931438f3d30,66fc9906f3d24af3577dcb6f,2024-10-01_18h52.12.569,mdp,2024.2.1,Win32,166.6666667,66fa4ebf79326e780c390304,,,,,,,,,,,,,,,,,,,,,441.125,441.125,441.125,441.888,1,1,right,0.235,,441.888,442.988,1,0,right,442.988,442.989,,0,,1,442.989,442.989,442.989,444.487,0,39,39,39,1,0.8,0.2,0.4,0.6,,,,,,,,,,,,,,,0.597,,0.8,0.2,0.4,0.6,0.8,0.2,0.8,0.2,1,0,,,,,,,,,,,,
,,660c9c26e4220931438f3d30,66fc9906f3d24af3577dcb6f,2024-10-01_18h52.12.569,mdp,2024.2.1,Win32,166.6666667,66fa4ebf79326e780c390304,,,,,,,,,,,,,,,,,,,,,444.487,444.487,444.488,445.455,1,1,right,0.465,,445.455,446.787,1,0,right,446.789,446.789,,1,,1,446.789,446.789,446.789,448.288,0,40,40,40,1,0.8,0.2,0.4,0.6,,,,,,,,,,,,,,,0.831,,0.8,0.2,0.4,0.6,0.4,0.6,0.2,0.8,1,0,,,,,,,,,,,,
,,660c9c26e4220931438f3d30,66fc9906f3d24af3577dcb6f,2024-10-01_18h52.12.569,mdp,2024.2.1,Win32,166.6666667,66fa4ebf79326e780c390304,,,,,,,,,,,,,,,,,,,,,448.288,448.288,448.289,449.058,1,0,right,0.265,,449.059,450.188,0,0,left,450.188,450.188,,0,,1,450.188,450.188,450.188,451.688,0,41,41,41,1,0.8,0.2,0.4,0.6,,,,,,,,,,,,,,,0.6,,0.8,0.2,0.4,0.6,0.4,0.6,0.2,0.8,1,0,,,,,,,,,,,,
,,660c9c26e4220931438f3d30,66fc9906f3d24af3577dcb6f,2024-10-01_18h52.12.569,mdp,2024.2.1,Win32,166.6666667,66fa4ebf79326e780c390304,,,,,,,,,,,,,,,,,,,,,451.688,451.688,451.688,452.488,1,1,right,0.299,,452.488,453.688,1,1,right,453.689,453.689,,1,,0,453.689,453.689,453.689,455.187,0,42,42,42,1,0.8,0.2,0.4,0.6,,,,,,,,,,,,,,,0.693,,0.8,0.2,0.4,0.6,0.4,0.6,0.2,0.8,1,0,,,,,,,,,,,,
,,660c9c26e4220931438f3d30,66fc9906f3d24af3577dcb6f,2024-10-01_18h52.12.569,mdp,2024.2.1,Win32,166.6666667,66fa4ebf79326e780c390304,,,,,,,,,,,,,,,,,,,,,455.188,455.188,455.188,456.088,1,1,right,0.397,,456.088,457.188,0,1,left,457.188,457.188,,0,,0,457.188,457.188,457.189,458.688,0,43,43,43,1,0.8,0.2,0.4,0.6,,,,,,,,,,,,,,,0.599,,0.8,0.2,0.4,0.6,0.4,0.6,0.2,0.8,1,0,,,,,,,,,,,,
,,660c9c26e4220931438f3d30,66fc9906f3d24af3577dcb6f,2024-10-01_18h52.12.569,mdp,2024.2.1,Win32,166.6666667,66fa4ebf79326e780c390304,,,,,,,,,,,,,,,,,,,,,458.689,458.689,458.689,459.455,1,1,right,0.261,,459.455,460.465,1,1,right,460.465,460.465,,1,,0,460.465,460.465,460.466,461.962,0,44,44,44,1,0.8,0.2,0.4,0.6,,,,,,,,,,,,,,,0.505,,0.8,0.2,0.4,0.6,0.4,0.6,0.2,0.8,1,0,,,,,,,,,,,,
,,660c9c26e4220931438f3d30,66fc9906f3d24af3577dcb6f,2024-10-01_18h52.12.569,mdp,2024.2.1,Win32,166.6666667,66fa4ebf79326e780c390304,,,,,,,,,,,,,,,,,,,,,461.962,461.962,461.962,462.554,1,1,right,0.066,,462.555,464.189,1,0,right,464.189,464.189,,1,,1,464.189,464.189,464.189,465.688,0,45,45,45,1,0.8,0.2,0.4,0.6,,,,,,,,,,,,,,,1.132,,0.8,0.2,0.4,0.6,0.4,0.6,0.2,0.8,1,0,,,,,,,,,,,,
,,660c9c26e4220931438f3d30,66fc9906f3d24af3577dcb6f,2024-10-01_18h52.12.569,mdp,2024.2.1,Win32,166.6666667,66fa4ebf79326e780c390304,,,,,,,,,,,,,,,,,,,,,465.688,465.688,465.689,466.689,1,1,right,0.499,,466.689,467.988,1,1,right,467.988,467.989,,0,,0,467.989,467.989,467.989,469.488,0,46,46,46,1,0.8,0.2,0.4,0.6,,,,,,,,,,,,,,,0.794,,0.8,0.2,0.4,0.6,0.4,0.6,0.2,0.8,1,0,,,,,,,,,,,,
,,660c9c26e4220931438f3d30,66fc9906f3d24af3577dcb6f,2024-10-01_18h52.12.569,mdp,2024.2.1,Win32,166.6666667,66fa4ebf79326e780c390304,,,,,,,,,,,,,,,,,,,,,469.488,469.488,469.488,470.362,1,1,right,0.37,,470.362,471.388,1,1,right,471.388,471.389,,0,,0,471.389,471.389,471.389,472.888,0,47,47,47,1,0.8,0.2,0.4,0.6,,,,,,,,,,,,,,,0.522,,0.8,0.2,0.4,0.6,0.4,0.6,0.2,0.8,1,0,,,,,,,,,,,,
,,660c9c26e4220931438f3d30,66fc9906f3d24af3577dcb6f,2024-10-01_18h52.12.569,mdp,2024.2.1,Win32,166.6666667,66fa4ebf79326e780c390304,,,,,,,,,,,,,,,,,,,,,472.889,472.889,472.889,473.538,1,1,right,0.14,,473.539,474.622,1,0,right,474.623,474.623,,0,,1,474.623,474.623,474.623,476.122,0,48,48,48,1,0.8,0.2,0.4,0.6,,,,,,,,,,,,,,,0.566,,0.8,0.2,0.4,0.6,0.4,0.6,0.2,0.8,1,0,,,,,,,,,,,,
,,660c9c26e4220931438f3d30,66fc9906f3d24af3577dcb6f,2024-10-01_18h52.12.569,mdp,2024.2.1,Win32,166.6666667,66fa4ebf79326e780c390304,,,,,,,,,,,,,,,,,,,,,476.122,476.122,476.123,476.993,1,1,right,0.369,,476.993,478.155,1,1,right,478.155,478.156,,1,,0,478.156,478.156,478.157,479.656,0,49,49,49,1,0.8,0.2,0.4,0.6,,,,,,,,,,,,,,,0.633,,0.8,0.2,0.4,0.6,0.4,0.6,0.2,0.8,1,0,,,,,,,,,,,,
,,660c9c26e4220931438f3d30,66fc9906f3d24af3577dcb6f,2024-10-01_18h52.12.569,mdp,2024.2.1,Win32,166.6666667,66fa4ebf79326e780c390304,,,,,,,,,,,,,,,,,,,,,,,,,,,,,,,,,,,,,,,,,,,,,,,,,,,,,,,,479.656,538.157,0,1,1,4,1,imgs/lion.png,imgs/dog.png,imgs/elephant.png,imgs/giraffe.png,imgs/kangaroo.png,,,,,,,,,,,,,,,,,,,,,,,,
,,660c9c26e4220931438f3d30,66fc9906f3d24af3577dcb6f,2024-10-01_18h52.12.569,mdp,2024.2.1,Win32,166.6666667,66fa4ebf79326e780c390304,,,,,,,,,,,,,,3,seqs/st3seq39.csv,538.162,541.59,space,2.922,,541.593,541.593,541.593,544.79,1,1,right,2.665,,544.797,546.057,1,0,right,546.058,547.324,1,0,right,1,547.324,547.324,547.324,548.824,0,0,0,0,1,0.2,0.8,0.6,0.4,,,,,,,,,,,,,,,0.763,,0.2,0.8,0.4,0.6,0.2,0.8,0.6,0.4,,,0.765,,0.2,0.8,0.4,0.6,0.4,0.6,0.6,0.4,1,0
,,660c9c26e4220931438f3d30,66fc9906f3d24af3577dcb6f,2024-10-01_18h52.12.569,mdp,2024.2.1,Win32,166.6666667,66fa4ebf79326e780c390304,,,,,,,,,,,,,,,,,,,,,548.824,548.824,548.824,550.091,1,0,right,0.765,,550.091,551.891,1,0,right,551.891,552.929,1,1,right,0,552.929,552.929,552.929,554.426,0,1,1,1,1,0.2,0.8,0.6,0.4,,,,,,,,,,,,,,,1.29,,0.2,0.8,0.4,0.6,0.2,0.8,0.6,0.4,,,0.531,,0.2,0.8,0.4,0.6,0.4,0.6,0.6,0.4,1,0
,,660c9c26e4220931438f3d30,66fc9906f3d24af3577dcb6f,2024-10-01_18h52.12.569,mdp,2024.2.1,Win32,166.6666667,66fa4ebf79326e780c390304,,,,,,,,,,,,,,,,,,,,,554.426,554.426,554.426,555.335,1,0,right,0.404,,555.335,557.757,0,1,left,557.758,559.298,1,1,right,0,559.298,559.298,559.299,560.795,0,2,2,2,1,0.2,0.8,0.6,0.4,,,,,,,,,,,,,,,1.898,,0.2,0.8,0.4,0.6,0.2,0.8,0.6,0.4,,,1.032,,0.2,0.8,0.4,0.6,0.4,0.6,0.6,0.4,1,0
,,660c9c26e4220931438f3d30,66fc9906f3d24af3577dcb6f,2024-10-01_18h52.12.569,mdp,2024.2.1,Win32,166.6666667,66fa4ebf79326e780c390304,,,,,,,,,,,,,,,,,,,,,560.796,560.796,560.796,562.124,1,1,right,0.825,,562.125,563.191,1,0,right,563.191,564.157,1,1,right,0,564.157,564.157,564.158,565.658,0,3,3,3,1,0.2,0.8,0.6,0.4,,,,,,,,,,,,,,,0.564,,0.2,0.8,0.4,0.6,0.2,0.8,0.6,0.4,,,0.463,,0.2,0.8,0.4,0.6,0.4,0.6,0.6,0.4,1,0
,,660c9c26e4220931438f3d30,66fc9906f3d24af3577dcb6f,2024-10-01_18h52.12.569,mdp,2024.2.1,Win32,166.6666667,66fa4ebf79326e780c390304,,,,,,,,,,,,,,,,,,,,,565.658,565.658,565.658,566.424,1,1,right,0.265,,566.424,567.632,1,1,right,567.632,569.329,1,0,right,1,569.329,569.329,569.33,570.826,0,4,4,4,1,0.2,0.8,0.6,0.4,,,,,,,,,,,,,,,0.704,,0.2,0.8,0.4,0.6,0.2,0.8,0.6,0.4,,,1.169,,0.2,0.8,0.4,0.6,0.4,0.6,0.6,0.4,1,0
,,660c9c26e4220931438f3d30,66fc9906f3d24af3577dcb6f,2024-10-01_18h52.12.569,mdp,2024.2.1,Win32,166.6666667,66fa4ebf79326e780c390304,,,,,,,,,,,,,,,,,,,,,570.826,570.826,570.827,571.632,1,0,right,0.299,,571.632,574.335,0,1,left,574.341,575.498,1,1,right,0,575.498,575.498,575.5,576.996,0,5,5,5,1,0.2,0.8,0.6,0.4,,,,,,,,,,,,,,,2.176,,0.2,0.8,0.4,0.6,0.2,0.8,0.6,0.4,,,0.635,,0.2,0.8,0.4,0.6,0.4,0.6,0.6,0.4,1,0
,,660c9c26e4220931438f3d30,66fc9906f3d24af3577dcb6f,2024-10-01_18h52.12.569,mdp,2024.2.1,Win32,166.6666667,66fa4ebf79326e780c390304,,,,,,,,,,,,,,,,,,,,,576.996,576.996,576.997,577.729,1,0,right,0.202,,577.729,579.059,0,1,left,579.059,580.359,0,1,left,0,580.359,580.359,580.36,581.858,0,6,6,6,1,0.2,0.8,0.6,0.4,,,,,,,,,,,,,,,0.825,,0.2,0.8,0.4,0.6,0.2,0.8,0.6,0.4,,,0.799,,0.2,0.8,0.4,0.6,0.4,0.6,0.6,0.4,1,0
,,660c9c26e4220931438f3d30,66fc9906f3d24af3577dcb6f,2024-10-01_18h52.12.569,mdp,2024.2.1,Win32,166.6666667,66fa4ebf79326e780c390304,,,,,,,,,,,,,,,,,,,,,581.858,581.858,581.859,582.639,1,0,right,0.266,,582.639,584.192,1,1,right,584.192,585.725,1,0,right,1,585.725,585.725,585.726,587.224,0,7,7,7,1,0.2,0.8,0.6,0.4,,,,,,,,,,,,,,,1.035,,0.2,0.8,0.4,0.6,0.2,0.8,0.6,0.4,,,1.031,,0.2,0.8,0.4,0.6,0.4,0.6,0.6,0.4,1,0
,,660c9c26e4220931438f3d30,66fc9906f3d24af3577dcb6f,2024-10-01_18h52.12.569,mdp,2024.2.1,Win32,166.6666667,66fa4ebf79326e780c390304,,,,,,,,,,,,,,,,,,,,,587.225,587.225,587.226,588.192,1,0,right,0.465,,588.192,589.299,1,1,right,589.3,590.232,1,1,right,0,590.232,590.232,590.233,591.73,0,8,8,8,1,0.2,0.8,0.6,0.4,,,,,,,,,,,,,,,0.603,,0.2,0.8,0.4,0.6,0.2,0.8,0.6,0.4,,,0.427,,0.2,0.8,0.4,0.6,0.4,0.6,0.6,0.4,1,0
,,660c9c26e4220931438f3d30,66fc9906f3d24af3577dcb6f,2024-10-01_18h52.12.569,mdp,2024.2.1,Win32,166.6666667,66fa4ebf79326e780c390304,,,,,,,,,,,,,,,,,,,,,591.73,591.73,591.73,592.425,1,0,right,0.191,,592.425,593.392,1,0,right,593.392,594.726,1,1,right,0,594.726,594.726,594.726,596.226,0,9,9,9,1,0.2,0.8,0.6,0.4,,,,,,,,,,,,,,,0.465,,0.6,0.4,0.2,0.8,0.2,0.8,0.6,0.4,,,0.832,,0.2,0.8,0.4,0.6,0.4,0.6,0.6,0.4,1,0
,,660c9c26e4220931438f3d30,66fc9906f3d24af3577dcb6f,2024-10-01_18h52.12.569,mdp,2024.2.1,Win32,166.6666667,66fa4ebf79326e780c390304,,,,,,,,,,,,,,,,,,,,,596.226,596.226,596.226,597.059,1,1,right,0.331,,597.059,599.058,1,1,right,599.059,600.33,0,1,left,0,600.33,600.33,600.33,601.827,0,10,10,10,1,0.2,0.8,0.6,0.4,,,,,,,,,,,,,,,1.496,,0.6,0.4,0.2,0.8,0.2,0.8,0.6,0.4,,,0.765,,0.2,0.8,0.4,0.6,0.4,0.6,0.6,0.4,1,0
,,660c9c26e4220931438f3d30,66fc9906f3d24af3577dcb6f,2024-10-01_18h52.12.569,mdp,2024.2.1,Win32,166.6666667,66fa4ebf79326e780c390304,,,,,,,,,,,,,,,,,,,,,601.827,601.827,601.827,602.559,1,0,right,0.228,,602.559,604.967,0,0,left,604.967,606.063,1,0,right,1,606.063,606.063,606.064,607.561,0,11,11,11,1,0.4,0.6,0.8,0.2,,,,,,,,,,,,,,,1.9,,0.6,0.4,0.2,0.8,0.2,0.8,0.6,0.4,,,0.571,,0.2,0.8,0.4,0.6,0.4,0.6,0.6,0.4,1,0
,,660c9c26e4220931438f3d30,66fc9906f3d24af3577dcb6f,2024-10-01_18h52.12.569,mdp,2024.2.1,Win32,166.6666667,66fa4ebf79326e780c390304,,,,,,,,,,,,,,,,,,,,,607.561,607.561,607.561,608.526,0,1,left,0.462,,608.526,610.009,1,0,right,610.01,611.41,1,1,right,0,611.41,611.41,611.41,612.925,0,12,12,12,1,0.4,0.6,0.8,0.2,,,,,,,,,,,,,,,0.977,,0.6,0.4,0.2,0.8,0.2,0.8,0.6,0.4,,,0.88,,0.2,0.8,0.4,0.6,0.4,0.6,0.6,0.4,1,0
,,660c9c26e4220931438f3d30,66fc9906f3d24af3577dcb6f,2024-10-01_18h52.12.569,mdp,2024.2.1,Win32,166.6666667,66fa4ebf79326e780c390304,,,,,,,,,,,,,,,,,,,,,612.926,612.926,612.926,613.759,1,1,right,0.331,,613.76,615.3,0,1,left,615.3,617.859,1,0,right,1,617.859,617.859,617.86,619.359,0,13,13,13,1,0.4,0.6,0.8,0.2,,,,,,,,,,,,,,,1.035,,0.6,0.4,0.2,0.8,0.2,0.8,0.6,0.4,,,2.033,,0.2,0.8,0.4,0.6,0.4,0.6,0.6,0.4,1,0
,,660c9c26e4220931438f3d30,66fc9906f3d24af3577dcb6f,2024-10-01_18h52.12.569,mdp,2024.2.1,Win32,166.6666667,66fa4ebf79326e780c390304,,,,,,,,,,,,,,,,,,,,,619.36,619.36,619.36,621.126,1,0,right,1.261,,621.126,622.876,0,0,left,622.877,624.537,0,1,left,0,624.537,624.537,624.537,626.034,0,14,14,14,1,0.4,0.6,0.8,0.2,,,,,,,,,,,,,,,1.242,,0.6,0.4,0.2,0.8,0.2,0.8,0.6,0.4,,,1.138,,0.2,0.8,0.4,0.6,0.4,0.6,0.6,0.4,1,0
,,660c9c26e4220931438f3d30,66fc9906f3d24af3577dcb6f,2024-10-01_18h52.12.569,mdp,2024.2.1,Win32,166.6666667,66fa4ebf79326e780c390304,,,,,,,,,,,,,,,,,,,,,626.034,626.034,626.034,626.826,1,0,right,0.288,,626.827,628.137,1,1,right,628.137,629.077,1,1,right,0,629.077,629.077,629.077,630.573,0,15,15,15,1,0.4,0.6,0.8,0.2,,,,,,,,,,,,,,,0.807,,0.6,0.4,0.2,0.8,0.2,0.8,0.6,0.4,,,0.409,,0.2,0.8,0.4,0.6,0.4,0.6,0.6,0.4,1,0
,,660c9c26e4220931438f3d30,66fc9906f3d24af3577dcb6f,2024-10-01_18h52.12.569,mdp,2024.2.1,Win32,166.6666667,66fa4ebf79326e780c390304,,,,,,,,,,,,,,,,,,,,,630.573,630.573,630.574,631.404,1,1,right,0.306,,631.404,632.204,0,1,left,632.204,632.993,1,0,right,1,632.993,632.993,632.994,634.493,0,16,16,16,1,0.4,0.6,0.8,0.2,,,,,,,,,,,,,,,0.272,,0.6,0.4,0.2,0.8,0.2,0.8,0.6,0.4,,,0.266,,0.2,0.8,0.4,0.6,0.4,0.6,0.6,0.4,1,0
,,660c9c26e4220931438f3d30,66fc9906f3d24af3577dcb6f,2024-10-01_18h52.12.569,mdp,2024.2.1,Win32,166.6666667,66fa4ebf79326e780c390304,,,,,,,,,,,,,,,,,,,,,634.493,634.493,634.494,635.293,1,0,right,0.299,,635.294,637.36,1,1,right,637.36,638.893,1,0,right,1,638.893,638.893,638.893,640.393,0,17,17,17,1,0.4,0.6,0.8,0.2,,,,,,,,,,,,,,,1.563,,0.6,0.4,0.2,0.8,0.2,0.8,0.6,0.4,,,1.032,,0.2,0.8,0.4,0.6,0.4,0.6,0.6,0.4,1,0
,,660c9c26e4220931438f3d30,66fc9906f3d24af3577dcb6f,2024-10-01_18h52.12.569,mdp,2024.2.1,Win32,166.6666667,66fa4ebf79326e780c390304,,,,,,,,,,,,,,,,,,,,,640.393,640.393,640.394,641.167,1,0,right,0.272,,641.168,642.46,1,0,right,642.46,643.96,0,1,left,0,643.96,643.96,643.961,645.46,0,18,18,18,1,0.4,0.6,0.8,0.2,,,,,,,,,,,,,,,0.767,,0.6,0.4,0.2,0.8,0.2,0.8,0.6,0.4,,,0.997,,0.2,0.8,0.4,0.6,0.4,0.6,0.6,0.4,1,0
,,660c9c26e4220931438f3d30,66fc9906f3d24af3577dcb6f,2024-10-01_18h52.12.569,mdp,2024.2.1,Win32,166.6666667,66fa4ebf79326e780c390304,,,,,,,,,,,,,,,,,,,,,645.46,645.46,645.46,646.327,1,0,right,0.366,,646.327,647.865,1,1,right,647.865,649.026,1,0,right,1,649.026,649.026,649.027,650.526,0,19,19,19,1,0.4,0.6,0.8,0.2,,,,,,,,,,,,,,,1.033,,0.6,0.4,0.2,0.8,0.2,0.8,0.6,0.4,,,0.632,,0.2,0.8,0.4,0.6,0.4,0.6,0.6,0.4,1,0
,,660c9c26e4220931438f3d30,66fc9906f3d24af3577dcb6f,2024-10-01_18h52.12.569,mdp,2024.2.1,Win32,166.6666667,66fa4ebf79326e780c390304,,,,,,,,,,,,,,,,,,,,,650.527,650.527,650.527,651.295,1,0,right,0.266,,651.296,652.36,1,1,right,652.361,653.593,1,0,right,1,653.593,653.593,653.594,655.093,0,20,20,20,1,0.4,0.6,0.8,0.2,,,,,,,,,,,,,,,0.56,,0.6,0.4,0.2,0.8,0.2,0.8,0.6,0.4,,,0.732,,0.2,0.8,0.4,0.6,0.4,0.6,0.6,0.4,1,0
,,660c9c26e4220931438f3d30,66fc9906f3d24af3577dcb6f,2024-10-01_18h52.12.569,mdp,2024.2.1,Win32,166.6666667,66fa4ebf79326e780c390304,,,,,,,,,,,,,,,,,,,,,655.094,655.094,655.094,655.66,1,0,right,0.061,,655.661,656.738,1,0,right,656.739,658.227,1,1,right,0,658.227,658.227,658.227,659.727,0,21,21,21,1,0.4,0.6,0.8,0.2,,,,,,,,,,,,,,,0.573,,0.6,0.4,0.2,0.8,0.2,0.8,0.6,0.4,,,0.964,,0.2,0.8,0.4,0.6,0.4,0.6,0.6,0.4,1,0
,,660c9c26e4220931438f3d30,66fc9906f3d24af3577dcb6f,2024-10-01_18h52.12.569,mdp,2024.2.1,Win32,166.6666667,66fa4ebf79326e780c390304,,,,,,,,,,,,,,,,,,,,,659.727,659.727,659.728,660.661,1,0,right,0.432,,660.661,661.774,1,1,right,661.775,663.065,1,1,right,0,663.065,663.065,663.065,664.563,0,22,22,22,1,0.4,0.6,0.8,0.2,,,,,,,,,,,,,,,0.58,,0.6,0.4,0.2,0.8,0.2,0.8,0.6,0.4,,,0.768,,0.2,0.8,0.4,0.6,0.2,0.8,0.8,0.2,1,0
,,660c9c26e4220931438f3d30,66fc9906f3d24af3577dcb6f,2024-10-01_18h52.12.569,mdp,2024.2.1,Win32,166.6666667,66fa4ebf79326e780c390304,,,,,,,,,,,,,,,,,,,,,664.563,664.563,664.563,665.26,1,0,right,0.194,,665.261,666.794,1,1,right,666.794,668.538,1,0,right,1,668.538,668.538,668.539,670.036,0,23,23,23,1,0.4,0.6,0.8,0.2,,,,,,,,,,,,,,,1.031,,0.2,0.8,0.6,0.4,0.2,0.8,0.6,0.4,,,1.239,,0.2,0.8,0.4,0.6,0.2,0.8,0.8,0.2,1,0
,,660c9c26e4220931438f3d30,66fc9906f3d24af3577dcb6f,2024-10-01_18h52.12.569,mdp,2024.2.1,Win32,166.6666667,66fa4ebf79326e780c390304,,,,,,,,,,,,,,,,,,,,,670.036,670.036,670.036,670.894,1,0,right,0.355,,670.894,672.211,1,0,right,672.211,674.072,0,1,left,0,674.072,674.072,674.072,675.569,0,24,24,24,1,0.4,0.6,0.8,0.2,,,,,,,,,,,,,,,0.811,,0.2,0.8,0.6,0.4,0.2,0.8,0.6,0.4,,,1.341,,0.2,0.8,0.4,0.6,0.2,0.8,0.8,0.2,1,0
,,660c9c26e4220931438f3d30,66fc9906f3d24af3577dcb6f,2024-10-01_18h52.12.569,mdp,2024.2.1,Win32,166.6666667,66fa4ebf79326e780c390304,,,,,,,,,,,,,,,,,,,,,675.569,675.569,675.57,676.461,1,0,right,0.368,,676.462,677.461,1,0,right,677.461,679.369,1,1,right,0,679.369,679.369,679.369,680.865,0,25,25,25,1,0.4,0.6,0.8,0.2,,,,,,,,,,,,,,,0.499,,0.8,0.2,0.2,0.8,0.2,0.8,0.6,0.4,,,1.404,,0.2,0.8,0.4,0.6,0.2,0.8,0.8,0.2,1,0
,,660c9c26e4220931438f3d30,66fc9906f3d24af3577dcb6f,2024-10-01_18h52.12.569,mdp,2024.2.1,Win32,166.6666667,66fa4ebf79326e780c390304,,,,,,,,,,,,,,,,,,,,,680.866,680.866,680.867,681.665,1,0,right,0.292,,681.667,682.575,0,0,left,682.576,683.896,1,0,right,1,683.896,683.896,683.896,685.394,0,26,26,26,1,0.4,0.6,0.8,0.2,,,,,,,,,,,,,,,0.38,,0.8,0.2,0.2,0.8,0.2,0.8,0.6,0.4,,,0.801,,0.4,0.6,0.8,0.2,0.2,0.8,0.8,0.2,1,0
,,660c9c26e4220931438f3d30,66fc9906f3d24af3577dcb6f,2024-10-01_18h52.12.569,mdp,2024.2.1,Win32,166.6666667,66fa4ebf79326e780c390304,,,,,,,,,,,,,,,,,,,,,685.394,685.394,685.395,686.494,1,0,right,0.599,,686.494,687.628,0,0,left,687.628,688.627,1,0,right,1,688.627,688.627,688.628,690.128,0,27,27,27,1,0.4,0.6,0.8,0.2,,,,,,,,,,,,,,,0.632,,0.8,0.2,0.2,0.8,0.6,0.4,0.2,0.8,,,0.498,,0.4,0.6,0.8,0.2,0.2,0.8,0.8,0.2,1,0
,,660c9c26e4220931438f3d30,66fc9906f3d24af3577dcb6f,2024-10-01_18h52.12.569,mdp,2024.2.1,Win32,166.6666667,66fa4ebf79326e780c390304,,,,,,,,,,,,,,,,,,,,,690.128,690.128,690.128,690.928,1,0,right,0.297,,690.928,692.061,0,0,left,692.062,693.095,1,0,right,1,693.095,693.095,693.095,694.594,0,28,28,28,1,0.4,0.6,0.8,0.2,,,,,,,,,,,,,,,0.631,,0.8,0.2,0.2,0.8,0.6,0.4,0.2,0.8,,,0.532,,0.4,0.6,0.8,0.2,0.2,0.8,0.8,0.2,1,0
,,660c9c26e4220931438f3d30,66fc9906f3d24af3577dcb6f,2024-10-01_18h52.12.569,mdp,2024.2.1,Win32,166.6666667,66fa4ebf79326e780c390304,,,,,,,,,,,,,,,,,,,,,694.595,694.595,694.596,695.361,1,0,right,0.263,,695.361,696.612,0,0,left,696.613,697.495,1,0,right,1,697.495,697.495,697.495,698.995,0,29,29,29,1,0.4,0.6,0.8,0.2,,,,,,,,,,,,,,,0.745,,0.8,0.2,0.2,0.8,0.6,0.4,0.2,0.8,,,0.366,,0.4,0.6,0.8,0.2,0.2,0.8,0.8,0.2,1,0
,,660c9c26e4220931438f3d30,66fc9906f3d24af3577dcb6f,2024-10-01_18h52.12.569,mdp,2024.2.1,Win32,166.6666667,66fa4ebf79326e780c390304,,,,,,,,,,,,,,,,,,,,,698.996,698.996,698.996,699.862,1,1,right,0.364,,699.862,702.595,0,0,left,702.6,703.861,1,0,right,1,703.861,703.861,703.861,705.362,0,30,30,30,1,0.4,0.6,0.8,0.2,,,,,,,,,,,,,,,2.23,,0.8,0.2,0.2,0.8,0.6,0.4,0.2,0.8,,,0.765,,0.4,0.6,0.8,0.2,0.6,0.4,0.2,0.8,1,0
,,660c9c26e4220931438f3d30,66fc9906f3d24af3577dcb6f,2024-10-01_18h52.12.569,mdp,2024.2.1,Win32,166.6666667,66fa4ebf79326e780c390304,,,,,,,,,,,,,,,,,,,,,705.362,705.362,705.362,706.176,1,0,right,0.311,,706.176,709.066,0,0,left,709.072,710.796,0,1,left,0,710.796,710.796,710.796,712.295,0,31,31,31,1,0.4,0.6,0.8,0.2,,,,,,,,,,,,,,,2.369,,0.8,0.2,0.2,0.8,0.6,0.4,0.2,0.8,,,1.2,,0.4,0.6,0.8,0.2,0.6,0.4,0.2,0.8,1,0
,,660c9c26e4220931438f3d30,66fc9906f3d24af3577dcb6f,2024-10-01_18h52.12.569,mdp,2024.2.1,Win32,166.6666667,66fa4ebf79326e780c390304,,,,,,,,,,,,,,,,,,,,,712.296,712.296,712.296,713.029,1,0,right,0.228,,713.029,714.096,0,0,left,714.096,715.031,1,0,right,1,715.031,715.031,715.031,716.528,0,32,32,32,1,0.4,0.6,0.8,0.2,,,,,,,,,,,,,,,0.533,,0.8,0.2,0.2,0.8,0.6,0.4,0.2,0.8,,,0.434,,0.4,0.6,0.8,0.2,0.6,0.4,0.2,0.8,1,0
,,660c9c26e4220931438f3d30,66fc9906f3d24af3577dcb6f,2024-10-01_18h52.12.569,mdp,2024.2.1,Win32,166.6666667,66fa4ebf79326e780c390304,,,,,,,,,,,,,,,,,,,,,716.528,716.528,716.53,717.431,1,0,right,0.4,,717.431,718.57,0,1,left,718.57,720.095,1,1,right,0,720.095,720.095,720.095,721.596,0,33,33,33,1,0.4,0.6,0.8,0.2,,,,,,,,,,,,,,,0.604,,0.4,0.6,0.8,0.2,0.6,0.4,0.2,0.8,,,0.999,,0.4,0.6,0.8,0.2,0.6,0.4,0.2,0.8,1,0
,,660c9c26e4220931438f3d30,66fc9906f3d24af3577dcb6f,2024-10-01_18h52.12.569,mdp,2024.2.1,Win32,166.6666667,66fa4ebf79326e780c390304,,,,,,,,,,,,,,,,,,,,,721.596,721.596,721.596,722.196,1,1,right,0.1,,722.196,723.096,1,1,right,723.097,724.396,1,1,right,0,724.396,724.396,724.396,725.895,0,34,34,34,1,0.4,0.6,0.8,0.2,,,,,,,,,,,,,,,0.398,,0.4,0.6,0.8,0.2,0.6,0.4,0.2,0.8,,,0.793,,0.4,0.6,0.8,0.2,0.6,0.4,0.2,0.8,1,0
,,660c9c26e4220931438f3d30,66fc9906f3d24af3577dcb6f,2024-10-01_18h52.12.569,mdp,2024.2.1,Win32,166.6666667,66fa4ebf79326e780c390304,,,,,,,,,,,,,,,,,,,,,725.895,725.895,725.896,726.54,1,0,right,0.139,,726.541,728.595,0,1,left,728.596,729.729,1,1,right,0,729.73,729.73,729.73,731.229,0,35,35,35,1,0.4,0.6,0.8,0.2,,,,,,,,,,,,,,,1.532,,0.4,0.6,0.8,0.2,0.6,0.4,0.2,0.8,,,0.632,,0.4,0.6,0.8,0.2,0.6,0.4,0.2,0.8,1,0
,,660c9c26e4220931438f3d30,66fc9906f3d24af3577dcb6f,2024-10-01_18h52.12.569,mdp,2024.2.1,Win32,166.6666667,66fa4ebf79326e780c390304,,,,,,,,,,,,,,,,,,,,,731.229,731.229,731.23,731.776,1,0,right,0.044,,731.777,733.695,0,0,left,733.696,734.63,1,1,right,0,734.63,734.63,734.63,736.13,0,36,36,36,1,0.4,0.6,0.8,0.2,,,,,,,,,,,,,,,1.398,,0.8,0.2,0.2,0.8,0.6,0.4,0.2,0.8,,,0.401,,0.4,0.6,0.8,0.2,0.6,0.4,0.2,0.8,1,0
,,660c9c26e4220931438f3d30,66fc9906f3d24af3577dcb6f,2024-10-01_18h52.12.569,mdp,2024.2.1,Win32,166.6666667,66fa4ebf79326e780c390304,,,,,,,,,,,,,,,,,,,,,736.13,736.13,736.13,737.063,1,0,right,0.431,,737.063,738.262,1,1,right,738.263,740.629,1,0,right,1,740.629,740.629,740.634,742.129,0,37,37,37,1,0.4,0.6,0.8,0.2,,,,,,,,,,,,,,,0.698,,0.8,0.2,0.2,0.8,0.6,0.4,0.2,0.8,,,1.864,,0.4,0.6,0.8,0.2,0.6,0.4,0.2,0.8,1,0
,,660c9c26e4220931438f3d30,66fc9906f3d24af3577dcb6f,2024-10-01_18h52.12.569,mdp,2024.2.1,Win32,166.6666667,66fa4ebf79326e780c390304,,,,,,,,,,,,,,,,,,,,,742.129,742.129,742.13,742.897,1,0,right,0.266,,742.897,744.371,1,1,right,744.371,745.362,1,1,right,0,745.362,745.362,745.363,746.863,0,38,38,38,1,0.4,0.6,0.8,0.2,,,,,,,,,,,,,,,0.937,,0.8,0.2,0.2,0.8,0.6,0.4,0.2,0.8,,,0.465,,0.4,0.6,0.8,0.2,0.6,0.4,0.2,0.8,1,0
,,660c9c26e4220931438f3d30,66fc9906f3d24af3577dcb6f,2024-10-01_18h52.12.569,mdp,2024.2.1,Win32,166.6666667,66fa4ebf79326e780c390304,,,,,,,,,,,,,,,,,,,,,746.863,746.863,746.864,747.696,1,0,right,0.332,,747.697,749.596,1,1,right,749.596,750.963,0,0,left,1,750.963,750.963,750.964,752.463,0,39,39,39,1,0.4,0.6,0.8,0.2,,,,,,,,,,,,,,,1.398,,0.8,0.2,0.2,0.8,0.6,0.4,0.2,0.8,,,0.864,,0.4,0.6,0.8,0.2,0.6,0.4,0.2,0.8,1,0
,,660c9c26e4220931438f3d30,66fc9906f3d24af3577dcb6f,2024-10-01_18h52.12.569,mdp,2024.2.1,Win32,166.6666667,66fa4ebf79326e780c390304,,,,,,,,,,,,,,,,,,,,,752.463,752.463,752.463,753.305,1,0,right,0.339,,753.305,754.696,1,1,right,754.697,755.763,0,1,left,0,755.763,755.763,755.763,757.263,0,40,40,40,1,0.4,0.6,0.8,0.2,,,,,,,,,,,,,,,0.865,,0.8,0.2,0.2,0.8,0.6,0.4,0.2,0.8,,,0.566,,0.4,0.6,0.8,0.2,0.6,0.4,0.2,0.8,1,0
,,660c9c26e4220931438f3d30,66fc9906f3d24af3577dcb6f,2024-10-01_18h52.12.569,mdp,2024.2.1,Win32,166.6666667,66fa4ebf79326e780c390304,,,,,,,,,,,,,,,,,,,,,757.263,757.263,757.264,758.032,1,0,right,0.266,,758.033,759.43,1,0,right,759.43,761.897,1,0,right,1,761.897,761.897,761.897,763.397,0,41,41,41,1,0.4,0.6,0.8,0.2,,,,,,,,,,,,,,,0.867,,0.2,0.8,0.6,0.4,0.6,0.4,0.2,0.8,,,1.933,,0.4,0.6,0.8,0.2,0.6,0.4,0.2,0.8,1,0
,,660c9c26e4220931438f3d30,66fc9906f3d24af3577dcb6f,2024-10-01_18h52.12.569,mdp,2024.2.1,Win32,166.6666667,66fa4ebf79326e780c390304,,,,,,,,,,,,,,,,,,,,,763.397,763.397,763.397,764.163,1,0,right,0.264,,764.164,767.002,1,1,right,767.007,768.505,1,1,right,0,768.505,768.505,768.505,770.002,0,42,42,42,1,0.4,0.6,0.8,0.2,,,,,,,,,,,,,,,2.333,,0.2,0.8,0.6,0.4,0.6,0.4,0.2,0.8,,,0.972,,0.4,0.6,0.8,0.2,0.6,0.4,0.2,0.8,1,0
,,660c9c26e4220931438f3d30,66fc9906f3d24af3577dcb6f,2024-10-01_18h52.12.569,mdp,2024.2.1,Win32,166.6666667,66fa4ebf79326e780c390304,,,,,,,,,,,,,,,,,,,,,770.002,770.002,770.002,770.897,1,0,right,0.392,,770.897,771.964,1,0,right,771.964,773.736,0,0,left,1,773.736,773.736,773.736,775.233,0,43,43,43,1,0.4,0.6,0.8,0.2,,,,,,,,,,,,,,,0.566,,0.2,0.8,0.6,0.4,0.6,0.4,0.2,0.8,,,1.237,,0.4,0.6,0.8,0.2,0.6,0.4,0.2,0.8,1,0
,,660c9c26e4220931438f3d30,66fc9906f3d24af3577dcb6f,2024-10-01_18h52.12.569,mdp,2024.2.1,Win32,166.6666667,66fa4ebf79326e780c390304,,,,,,,,,,,,,,,,,,,,,775.233,775.233,775.233,776.002,1,0,right,0.234,,776.003,777.164,1,1,right,777.164,778.697,0,1,left,0,778.697,778.697,778.697,780.197,0,44,44,44,1,0.4,0.6,0.8,0.2,,,,,,,,,,,,,,,0.658,,0.2,0.8,0.6,0.4,0.6,0.4,0.2,0.8,,,1,,0.4,0.6,0.8,0.2,0.6,0.4,0.2,0.8,1,0
,,660c9c26e4220931438f3d30,66fc9906f3d24af3577dcb6f,2024-10-01_18h52.12.569,mdp,2024.2.1,Win32,166.6666667,66fa4ebf79326e780c390304,,,,,,,,,,,,,,,,,,,,,780.197,780.197,780.197,780.897,1,0,right,0.199,,780.897,781.731,1,1,right,781.731,783.506,1,1,right,0,783.506,783.506,783.506,785.003,0,45,45,45,1,0.2,0.8,0.6,0.4,,,,,,,,,,,,,,,0.332,,0.2,0.8,0.6,0.4,0.6,0.4,0.2,0.8,,,1.27,,0.4,0.6,0.8,0.2,0.6,0.4,0.2,0.8,1,0
,,660c9c26e4220931438f3d30,66fc9906f3d24af3577dcb6f,2024-10-01_18h52.12.569,mdp,2024.2.1,Win32,166.6666667,66fa4ebf79326e780c390304,,,,,,,,,,,,,,,,,,,,,785.003,785.003,785.003,785.698,1,0,right,0.192,,785.698,786.43,1,1,right,786.431,787.379,0,1,left,0,787.379,787.379,787.379,788.869,0,46,46,46,1,0.2,0.8,0.6,0.4,,,,,,,,,,,,,,,0.2,,0.6,0.4,0.2,0.8,0.6,0.4,0.2,0.8,,,0.442,,0.4,0.6,0.8,0.2,0.6,0.4,0.2,0.8,1,0
,,660c9c26e4220931438f3d30,66fc9906f3d24af3577dcb6f,2024-10-01_18h52.12.569,mdp,2024.2.1,Win32,166.6666667,66fa4ebf79326e780c390304,,,,,,,,,,,,,,,,,,,,,788.87,788.87,788.87,789.566,1,0,right,0.193,,789.566,790.298,1,0,right,790.298,792.297,0,0,left,1,792.297,792.297,792.298,793.797,0,47,47,47,1,0.2,0.8,0.6,0.4,,,,,,,,,,,,,,,0.201,,0.6,0.4,0.2,0.8,0.6,0.4,0.2,0.8,,,1.465,,0.4,0.6,0.8,0.2,0.6,0.4,0.2,0.8,1,0
,,660c9c26e4220931438f3d30,66fc9906f3d24af3577dcb6f,2024-10-01_18h52.12.569,mdp,2024.2.1,Win32,166.6666667,66fa4ebf79326e780c390304,,,,,,,,,,,,,,,,,,,,,793.797,793.797,793.798,794.306,1,1,right,0.003,,794.306,795.039,1,0,right,795.04,796.564,0,0,left,1,796.564,796.564,796.564,798.064,0,48,48,48,1,0.2,0.8,0.6,0.4,,,,,,,,,,,,,,,0.204,,0.6,0.4,0.2,0.8,0.6,0.4,0.2,0.8,,,0.999,,0.4,0.6,0.8,0.2,0.6,0.4,0.2,0.8,1,0
,,660c9c26e4220931438f3d30,66fc9906f3d24af3577dcb6f,2024-10-01_18h52.12.569,mdp,2024.2.1,Win32,166.6666667,66fa4ebf79326e780c390304,,,,,,,,,,,,,,,,,,,,,798.064,798.064,798.064,798.831,1,0,right,0.266,,798.831,799.731,1,1,right,799.731,803.536,1,1,right,0,803.536,803.536,803.542,805.034,0,49,49,49,1,0.2,0.8,0.6,0.4,,,,,,,,,,,,,,,0.367,,0.6,0.4,0.2,0.8,0.2,0.8,0.6,0.4,,,3.302,,0.4,0.6,0.8,0.2,0.6,0.4,0.2,0.8,1,0
,,660c9c26e4220931438f3d30,66fc9906f3d24af3577dcb6f,2024-10-01_18h52.12.569,mdp,2024.2.1,Win32,166.6666667,66fa4ebf79326e780c390304,,,,,,,,,,,,,,,,,,,,,,,,,,,,,,,,,,,,,,,,,,,,,,,,,,,,,,,,805.034,871.091,0,2,2,7,1,imgs/rabbit.png,imgs/squirrel.png,imgs/dog.png,imgs/elephant.png,imgs/giraffe.png,,,,,,,,,,,,,,,,,,,,,,,,
,,660c9c26e4220931438f3d30,66fc9906f3d24af3577dcb6f,2024-10-01_18h52.12.569,mdp,2024.2.1,Win32,166.6666667,66fa4ebf79326e780c390304,,,,,,,,,,,,,,3,seqs/st3seq3.csv,871.097,873.967,space,2.366,,873.97,873.97,873.971,876.333,1,1,right,1.83,,876.334,877.642,1,1,right,877.642,879.033,1,1,right,0,879.033,879.033,879.034,880.533,0,0,0,0,1,0.8,0.2,0.2,0.8,,,,,,,,,,,,,,,0.8,,0.8,0.2,0.2,0.8,0.4,0.6,0.6,0.4,,,0.862,,0.4,0.6,0.2,0.8,0.6,0.4,0.4,0.6,1,0
,,660c9c26e4220931438f3d30,66fc9906f3d24af3577dcb6f,2024-10-01_18h52.12.569,mdp,2024.2.1,Win32,166.6666667,66fa4ebf79326e780c390304,,,,,,,,,,,,,,,,,,,,,880.533,880.533,880.533,881.734,1,1,right,0.699,,881.734,882.867,1,1,right,882.867,883.8,0,0,left,1,883.8,883.8,883.801,885.3,0,1,1,1,1,0.8,0.2,0.2,0.8,,,,,,,,,,,,,,,0.63,,0.8,0.2,0.2,0.8,0.4,0.6,0.6,0.4,,,0.433,,0.4,0.6,0.2,0.8,0.6,0.4,0.4,0.6,1,0
,,660c9c26e4220931438f3d30,66fc9906f3d24af3577dcb6f,2024-10-01_18h52.12.569,mdp,2024.2.1,Win32,166.6666667,66fa4ebf79326e780c390304,,,,,,,,,,,,,,,,,,,,,885.3,885.3,885.301,886.267,1,1,right,0.465,,886.267,887.648,1,0,right,887.649,889.339,1,1,right,0,889.339,889.339,889.34,890.836,0,2,2,2,1,0.8,0.2,0.2,0.8,,,,,,,,,,,,,,,0.878,,0.8,0.2,0.2,0.8,0.4,0.6,0.6,0.4,,,1.165,,0.4,0.6,0.2,0.8,0.6,0.4,0.4,0.6,1,0
,,660c9c26e4220931438f3d30,66fc9906f3d24af3577dcb6f,2024-10-01_18h52.12.569,mdp,2024.2.1,Win32,166.6666667,66fa4ebf79326e780c390304,,,,,,,,,,,,,,,,,,,,,890.836,890.836,890.837,891.367,1,0,right,0.001,,891.367,893.067,0,0,left,893.067,894.634,1,1,right,0,894.634,894.634,894.634,896.133,0,3,3,3,1,0.8,0.2,0.2,0.8,,,,,,,,,,,,,,,1.167,,0.8,0.2,0.2,0.8,0.4,0.6,0.6,0.4,,,1.066,,0.4,0.6,0.2,0.8,0.6,0.4,0.4,0.6,1,0
,,660c9c26e4220931438f3d30,66fc9906f3d24af3577dcb6f,2024-10-01_18h52.12.569,mdp,2024.2.1,Win32,166.6666667,66fa4ebf79326e780c390304,,,,,,,,,,,,,,,,,,,,,896.133,896.134,896.135,896.873,1,1,right,0.233,,896.874,898,1,1,right,898.001,900.249,1,1,right,0,900.249,900.249,900.249,901.74,0,4,4,4,1,0.8,0.2,0.2,0.8,,,,,,,,,,,,,,,0.6,,0.8,0.2,0.2,0.8,0.4,0.6,0.6,0.4,,,1.743,,0.4,0.6,0.2,0.8,0.6,0.4,0.4,0.6,1,0
,,660c9c26e4220931438f3d30,66fc9906f3d24af3577dcb6f,2024-10-01_18h52.12.569,mdp,2024.2.1,Win32,166.6666667,66fa4ebf79326e780c390304,,,,,,,,,,,,,,,,,,,,,901.74,901.74,901.74,902.401,1,1,right,0.158,,902.401,903.367,1,1,right,903.367,904.401,0,0,left,1,904.401,904.401,904.402,905.901,0,5,5,5,1,0.8,0.2,0.2,0.8,,,,,,,,,,,,,,,0.465,,0.8,0.2,0.2,0.8,0.4,0.6,0.6,0.4,,,0.5,,0.4,0.6,0.2,0.8,0.6,0.4,0.4,0.6,1,0
,,660c9c26e4220931438f3d30,66fc9906f3d24af3577dcb6f,2024-10-01_18h52.12.569,mdp,2024.2.1,Win32,166.6666667,66fa4ebf79326e780c390304,,,,,,,,,,,,,,,,,,,,,905.901,905.901,905.901,906.843,1,1,right,0.404,,906.843,907.904,1,1,right,907.904,909.367,0,1,left,0,909.367,909.367,909.368,910.868,0,6,6,6,1,0.8,0.2,0.2,0.8,,,,,,,,,,,,,,,0.533,,0.8,0.2,0.2,0.8,0.4,0.6,0.6,0.4,,,0.933,,0.4,0.6,0.2,0.8,0.6,0.4,0.4,0.6,1,0
,,660c9c26e4220931438f3d30,66fc9906f3d24af3577dcb6f,2024-10-01_18h52.12.569,mdp,2024.2.1,Win32,166.6666667,66fa4ebf79326e780c390304,,,,,,,,,,,,,,,,,,,,,910.868,910.868,910.869,911.915,1,0,right,0.541,,911.916,913.934,1,1,right,913.934,915.768,0,1,left,0,915.768,915.768,915.768,917.268,0,7,7,7,1,0.8,0.2,0.2,0.8,,,,,,,,,,,,,,,1.497,,0.8,0.2,0.2,0.8,0.4,0.6,0.6,0.4,,,1.332,,0.4,0.6,0.2,0.8,0.6,0.4,0.4,0.6,1,0
,,660c9c26e4220931438f3d30,66fc9906f3d24af3577dcb6f,2024-10-01_18h52.12.569,mdp,2024.2.1,Win32,166.6666667,66fa4ebf79326e780c390304,,,,,,,,,,,,,,,,,,,,,917.268,917.268,917.268,918.034,1,1,right,0.265,,918.035,918.916,1,0,right,918.916,920.634,1,1,right,0,920.634,920.634,920.635,922.134,0,8,8,8,1,0.8,0.2,0.2,0.8,,,,,,,,,,,,,,,0.343,,0.8,0.2,0.2,0.8,0.4,0.6,0.6,0.4,,,1.197,,0.4,0.6,0.2,0.8,0.8,0.2,0.8,0.2,1,0
,,660c9c26e4220931438f3d30,66fc9906f3d24af3577dcb6f,2024-10-01_18h52.12.569,mdp,2024.2.1,Win32,166.6666667,66fa4ebf79326e780c390304,,,,,,,,,,,,,,,,,,,,,922.135,922.135,922.135,923.05,1,0,right,0.408,,923.05,924.673,1,1,right,924.674,926.334,1,0,right,1,926.334,926.334,926.335,927.834,0,9,9,9,1,0.8,0.2,0.2,0.8,,,,,,,,,,,,,,,1.099,,0.8,0.2,0.2,0.8,0.4,0.6,0.6,0.4,,,1.133,,0.4,0.6,0.2,0.8,0.8,0.2,0.8,0.2,1,0
,,660c9c26e4220931438f3d30,66fc9906f3d24af3577dcb6f,2024-10-01_18h52.12.569,mdp,2024.2.1,Win32,166.6666667,66fa4ebf79326e780c390304,,,,,,,,,,,,,,,,,,,,,927.835,927.835,927.835,928.674,1,0,right,0.303,,928.675,930.368,1,0,right,930.368,932.101,0,1,left,0,932.101,932.101,932.102,933.602,0,10,10,10,1,0.8,0.2,0.2,0.8,,,,,,,,,,,,,,,1.191,,0.8,0.2,0.2,0.8,0.4,0.6,0.6,0.4,,,1.2,,0.4,0.6,0.2,0.8,0.8,0.2,0.8,0.2,1,0
,,660c9c26e4220931438f3d30,66fc9906f3d24af3577dcb6f,2024-10-01_18h52.12.569,mdp,2024.2.1,Win32,166.6666667,66fa4ebf79326e780c390304,,,,,,,,,,,,,,,,,,,,,933.602,933.602,933.602,934.301,1,0,right,0.196,,934.302,935.268,1,1,right,935.269,936.468,1,0,right,1,936.468,936.468,936.468,937.969,0,11,11,11,1,0.8,0.2,0.2,0.8,,,,,,,,,,,,,,,0.466,,0.8,0.2,0.2,0.8,0.4,0.6,0.6,0.4,,,0.697,,0.4,0.6,0.2,0.8,0.8,0.2,0.8,0.2,1,0
,,660c9c26e4220931438f3d30,66fc9906f3d24af3577dcb6f,2024-10-01_18h52.12.569,mdp,2024.2.1,Win32,166.6666667,66fa4ebf79326e780c390304,,,,,,,,,,,,,,,,,,,,,937.969,937.969,937.969,939.135,1,1,right,0.634,,939.135,941.035,1,0,right,941.035,943.435,1,0,right,1,943.435,943.435,943.441,944.935,0,12,12,12,1,0.8,0.2,0.2,0.8,,,,,,,,,,,,,,,1.398,,0.8,0.2,0.2,0.8,0.4,0.6,0.6,0.4,,,1.867,,0.4,0.6,0.2,0.8,0.8,0.2,0.8,0.2,1,0
,,660c9c26e4220931438f3d30,66fc9906f3d24af3577dcb6f,2024-10-01_18h52.12.569,mdp,2024.2.1,Win32,166.6666667,66fa4ebf79326e780c390304,,,,,,,,,,,,,,,,,,,,,944.936,944.936,944.936,946.135,1,1,right,0.696,,946.135,947.568,1,1,right,947.569,948.905,1,0,right,1,948.905,948.905,948.905,950.402,0,13,13,13,1,0.8,0.2,0.2,0.8,,,,,,,,,,,,,,,0.932,,0.8,0.2,0.2,0.8,0.4,0.6,0.6,0.4,,,0.802,,0.4,0.6,0.2,0.8,0.8,0.2,0.8,0.2,1,0
,,660c9c26e4220931438f3d30,66fc9906f3d24af3577dcb6f,2024-10-01_18h52.12.569,mdp,2024.2.1,Win32,166.6666667,66fa4ebf79326e780c390304,,,,,,,,,,,,,,,,,,,,,950.402,950.402,950.402,951.369,1,1,right,0.466,,951.369,952.536,1,1,right,952.536,953.835,1,1,right,0,953.835,953.835,953.836,955.335,0,14,14,14,1,0.8,0.2,0.2,0.8,,,,,,,,,,,,,,,0.634,,0.8,0.2,0.2,0.8,0.4,0.6,0.6,0.4,,,0.797,,0.4,0.6,0.2,0.8,0.8,0.2,0.8,0.2,1,0
,,660c9c26e4220931438f3d30,66fc9906f3d24af3577dcb6f,2024-10-01_18h52.12.569,mdp,2024.2.1,Win32,166.6666667,66fa4ebf79326e780c390304,,,,,,,,,,,,,,,,,,,,,955.335,955.335,955.336,956.269,1,1,right,0.43,,956.269,957.169,1,1,right,957.169,958.269,0,1,left,0,958.269,958.269,958.269,959.769,0,15,15,15,1,0.8,0.2,0.2,0.8,,,,,,,,,,,,,,,0.399,,0.8,0.2,0.2,0.8,0.4,0.6,0.6,0.4,,,0.6,,0.4,0.6,0.2,0.8,0.8,0.2,0.8,0.2,1,0
,,660c9c26e4220931438f3d30,66fc9906f3d24af3577dcb6f,2024-10-01_18h52.12.569,mdp,2024.2.1,Win32,166.6666667,66fa4ebf79326e780c390304,,,,,,,,,,,,,,,,,,,,,959.769,959.769,959.769,960.911,1,0,right,0.64,,960.911,961.711,1,1,right,961.712,962.902,0,1,left,0,962.902,962.902,962.902,964.402,0,16,16,16,1,0.8,0.2,0.2,0.8,,,,,,,,,,,,,,,0.274,,0.8,0.2,0.2,0.8,0.4,0.6,0.6,0.4,,,0.666,,0.4,0.6,0.2,0.8,0.8,0.2,0.8,0.2,1,0
,,660c9c26e4220931438f3d30,66fc9906f3d24af3577dcb6f,2024-10-01_18h52.12.569,mdp,2024.2.1,Win32,166.6666667,66fa4ebf79326e780c390304,,,,,,,,,,,,,,,,,,,,,964.403,964.403,964.403,965.402,1,1,right,0.496,,965.403,966.569,1,0,right,966.57,968.214,0,1,left,0,968.214,968.214,968.215,969.702,0,17,17,17,1,0.8,0.2,0.2,0.8,,,,,,,,,,,,,,,0.663,,0.2,0.8,0.6,0.4,0.4,0.6,0.6,0.4,,,1.112,,0.4,0.6,0.2,0.8,0.8,0.2,0.8,0.2,1,0
,,660c9c26e4220931438f3d30,66fc9906f3d24af3577dcb6f,2024-10-01_18h52.12.569,mdp,2024.2.1,Win32,166.6666667,66fa4ebf79326e780c390304,,,,,,,,,,,,,,,,,,,,,969.702,969.702,969.702,970.675,1,0,right,0.467,,970.676,971.869,1,0,right,971.87,973.569,1,0,right,1,973.569,973.569,973.57,975.069,0,18,18,18,1,0.8,0.2,0.2,0.8,,,,,,,,,,,,,,,0.666,,0.2,0.8,0.6,0.4,0.4,0.6,0.6,0.4,,,1.198,,0.4,0.6,0.2,0.8,0.8,0.2,0.8,0.2,1,0
,,660c9c26e4220931438f3d30,66fc9906f3d24af3577dcb6f,2024-10-01_18h52.12.569,mdp,2024.2.1,Win32,166.6666667,66fa4ebf79326e780c390304,,,,,,,,,,,,,,,,,,,,,975.069,975.069,975.069,982.603,1,1,right,7.028,,982.603,984.036,1,1,right,984.037,985.236,1,0,right,1,985.236,985.236,985.237,986.736,0,19,19,19,1,0.8,0.2,0.2,0.8,,,,,,,,,,,,,,,0.927,,0.2,0.8,0.6,0.4,0.4,0.6,0.6,0.4,,,0.667,,0.4,0.6,0.2,0.8,0.8,0.2,0.8,0.2,1,0
,,660c9c26e4220931438f3d30,66fc9906f3d24af3577dcb6f,2024-10-01_18h52.12.569,mdp,2024.2.1,Win32,166.6666667,66fa4ebf79326e780c390304,,,,,,,,,,,,,,,,,,,,,986.736,986.736,986.736,987.737,1,1,right,0.499,,987.737,988.636,1,0,right,988.637,990.237,0,0,left,1,990.237,990.237,990.237,991.736,0,20,20,20,1,0.8,0.2,0.2,0.8,,,,,,,,,,,,,,,0.396,,0.2,0.8,0.6,0.4,0.4,0.6,0.6,0.4,,,1.068,,0.4,0.6,0.2,0.8,0.8,0.2,0.8,0.2,1,0
,,660c9c26e4220931438f3d30,66fc9906f3d24af3577dcb6f,2024-10-01_18h52.12.569,mdp,2024.2.1,Win32,166.6666667,66fa4ebf79326e780c390304,,,,,,,,,,,,,,,,,,,,,991.736,991.736,991.737,992.503,1,1,right,0.266,,992.504,993.603,1,0,right,993.604,994.803,0,0,left,1,994.803,994.803,994.803,996.303,0,21,21,21,1,0.8,0.2,0.2,0.8,,,,,,,,,,,,,,,0.597,,0.2,0.8,0.6,0.4,0.4,0.6,0.6,0.4,,,0.698,,0.4,0.6,0.2,0.8,0.8,0.2,0.8,0.2,1,0
,,660c9c26e4220931438f3d30,66fc9906f3d24af3577dcb6f,2024-10-01_18h52.12.569,mdp,2024.2.1,Win32,166.6666667,66fa4ebf79326e780c390304,,,,,,,,,,,,,,,,,,,,,996.303,996.303,996.303,997.271,1,1,right,0.434,,997.271,998.437,1,0,right,998.438,999.936,0,1,left,0,999.936,999.937,999.937,1001.436,0,22,22,22,1,0.8,0.2,0.2,0.8,,,,,,,,,,,,,,,0.663,,0.2,0.8,0.6,0.4,0.4,0.6,0.6,0.4,,,0.966,,0.4,0.6,0.2,0.8,0.8,0.2,0.8,0.2,1,0
,,660c9c26e4220931438f3d30,66fc9906f3d24af3577dcb6f,2024-10-01_18h52.12.569,mdp,2024.2.1,Win32,166.6666667,66fa4ebf79326e780c390304,,,,,,,,,,,,,,,,,,,,,1001.437,1001.437,1001.437,1002.27,1,1,right,0.332,,1002.271,1003.104,1,0,right,1003.104,1004.143,1,1,right,0,1004.143,1004.143,1004.143,1005.64,0,23,23,23,1,0.8,0.2,0.2,0.8,,,,,,,,,,,,,,,0.332,,0.2,0.8,0.6,0.4,0.4,0.6,0.6,0.4,,,0.503,,0.4,0.6,0.2,0.8,0.8,0.2,0.8,0.2,1,0
,,660c9c26e4220931438f3d30,66fc9906f3d24af3577dcb6f,2024-10-01_18h52.12.569,mdp,2024.2.1,Win32,166.6666667,66fa4ebf79326e780c390304,,,,,,,,,,,,,,,,,,,,,1005.64,1005.64,1005.64,1006.403,1,1,right,0.233,,1006.404,1007.252,1,0,right,1007.252,1008.271,1,1,right,0,1008.271,1008.271,1008.271,1009.77,0,24,24,24,1,0.8,0.2,0.2,0.8,,,,,,,,,,,,,,,0.342,,0.2,0.8,0.6,0.4,0.4,0.6,0.6,0.4,,,0.5,,0.4,0.6,0.2,0.8,0.8,0.2,0.8,0.2,1,0
,,660c9c26e4220931438f3d30,66fc9906f3d24af3577dcb6f,2024-10-01_18h52.12.569,mdp,2024.2.1,Win32,166.6666667,66fa4ebf79326e780c390304,,,,,,,,,,,,,,,,,,,,,1009.77,1009.77,1009.771,1010.703,1,0,right,0.432,,1010.704,1013.037,1,0,right,1013.038,1014.737,0,1,left,0,1014.737,1014.737,1014.738,1016.237,0,25,25,25,1,0.8,0.2,0.2,0.8,,,,,,,,,,,,,,,1.8,,0.2,0.8,0.6,0.4,0.4,0.6,0.6,0.4,,,1.199,,0.4,0.6,0.2,0.8,0.8,0.2,0.8,0.2,1,0
,,660c9c26e4220931438f3d30,66fc9906f3d24af3577dcb6f,2024-10-01_18h52.12.569,mdp,2024.2.1,Win32,166.6666667,66fa4ebf79326e780c390304,,,,,,,,,,,,,,,,,,,,,1016.238,1016.238,1016.238,1017.104,1,1,right,0.366,,1017.105,1017.904,1,1,right,1017.904,1019.004,1,0,right,1,1019.004,1019.004,1019.004,1020.503,0,26,26,26,1,0.8,0.2,0.2,0.8,,,,,,,,,,,,,,,0.267,,0.2,0.8,0.6,0.4,0.4,0.6,0.6,0.4,,,0.567,,0.4,0.6,0.2,0.8,0.8,0.2,0.8,0.2,1,0
,,660c9c26e4220931438f3d30,66fc9906f3d24af3577dcb6f,2024-10-01_18h52.12.569,mdp,2024.2.1,Win32,166.6666667,66fa4ebf79326e780c390304,,,,,,,,,,,,,,,,,,,,,1020.504,1020.504,1020.505,1021.379,1,1,right,0.37,,1021.381,1022.437,1,0,right,1022.438,1024.371,1,1,right,0,1024.371,1024.371,1024.371,1025.871,0,27,27,27,1,0.8,0.2,0.2,0.8,,,,,,,,,,,,,,,0.532,,0.8,0.2,0.8,0.2,0.4,0.6,0.6,0.4,,,1.399,,0.4,0.6,0.2,0.8,0.8,0.2,0.8,0.2,1,0
,,660c9c26e4220931438f3d30,66fc9906f3d24af3577dcb6f,2024-10-01_18h52.12.569,mdp,2024.2.1,Win32,166.6666667,66fa4ebf79326e780c390304,,,,,,,,,,,,,,,,,,,,,1025.871,1025.871,1025.872,1026.61,1,0,right,0.234,,1026.61,1027.37,1,0,right,1027.371,1029.119,1,1,right,0,1029.119,1029.119,1029.119,1030.61,0,28,28,28,1,0.8,0.2,0.2,0.8,,,,,,,,,,,,,,,0.233,,0.8,0.2,0.8,0.2,0.4,0.6,0.6,0.4,,,1.246,,0.4,0.6,0.2,0.8,0.8,0.2,0.8,0.2,1,0
,,660c9c26e4220931438f3d30,66fc9906f3d24af3577dcb6f,2024-10-01_18h52.12.569,mdp,2024.2.1,Win32,166.6666667,66fa4ebf79326e780c390304,,,,,,,,,,,,,,,,,,,,,1030.611,1030.611,1030.611,1031.505,1,1,right,0.391,,1031.505,1032.171,1,1,right,1032.171,1034.138,1,0,right,1,1034.138,1034.138,1034.138,1035.648,0,29,29,29,1,0.8,0.2,0.2,0.8,,,,,,,,,,,,,,,0.134,,0.8,0.2,0.8,0.2,0.4,0.6,0.6,0.4,,,1.434,,0.4,0.6,0.2,0.8,0.8,0.2,0.8,0.2,1,0
,,660c9c26e4220931438f3d30,66fc9906f3d24af3577dcb6f,2024-10-01_18h52.12.569,mdp,2024.2.1,Win32,166.6666667,66fa4ebf79326e780c390304,,,,,,,,,,,,,,,,,,,,,1035.648,1035.648,1035.648,1036.386,1,1,right,0.21,,1036.386,1037.319,1,1,right,1037.32,1038.471,1,0,right,1,1038.471,1038.471,1038.472,1039.971,0,30,30,30,1,0.8,0.2,0.2,0.8,,,,,,,,,,,,,,,0.414,,0.8,0.2,0.8,0.2,0.4,0.6,0.6,0.4,,,0.632,,0.4,0.6,0.2,0.8,0.8,0.2,0.8,0.2,1,0
,,660c9c26e4220931438f3d30,66fc9906f3d24af3577dcb6f,2024-10-01_18h52.12.569,mdp,2024.2.1,Win32,166.6666667,66fa4ebf79326e780c390304,,,,,,,,,,,,,,,,,,,,,1039.971,1039.971,1039.971,1040.737,1,1,right,0.233,,1040.738,1041.738,1,0,right,1041.738,1043.305,0,1,left,0,1043.305,1043.305,1043.305,1044.805,0,31,31,31,1,0.8,0.2,0.2,0.8,,,,,,,,,,,,,,,0.498,,0.8,0.2,0.8,0.2,0.4,0.6,0.6,0.4,,,1.061,,0.4,0.6,0.2,0.8,0.8,0.2,0.8,0.2,1,0
,,660c9c26e4220931438f3d30,66fc9906f3d24af3577dcb6f,2024-10-01_18h52.12.569,mdp,2024.2.1,Win32,166.6666667,66fa4ebf79326e780c390304,,,,,,,,,,,,,,,,,,,,,1044.805,1044.805,1044.805,1045.538,1,1,right,0.231,,1045.538,1046.238,1,1,right,1046.238,1047.92,1,1,right,0,1047.92,1047.92,1047.92,1049.438,0,32,32,32,1,0.8,0.2,0.2,0.8,,,,,,,,,,,,,,,0.199,,0.8,0.2,0.8,0.2,0.4,0.6,0.6,0.4,,,1.177,,0.4,0.6,0.2,0.8,0.8,0.2,0.8,0.2,1,0
,,660c9c26e4220931438f3d30,66fc9906f3d24af3577dcb6f,2024-10-01_18h52.12.569,mdp,2024.2.1,Win32,166.6666667,66fa4ebf79326e780c390304,,,,,,,,,,,,,,,,,,,,,1049.438,1049.438,1049.438,1050.038,1,0,right,0.099,,1050.039,1050.772,1,0,right,1050.772,1052.805,0,0,left,1,1052.805,1052.805,1052.806,1054.305,0,33,33,33,1,0.8,0.2,0.2,0.8,,,,,,,,,,,,,,,0.201,,0.8,0.2,0.8,0.2,0.4,0.6,0.6,0.4,,,1.501,,0.4,0.6,0.2,0.8,0.8,0.2,0.8,0.2,1,0
,,660c9c26e4220931438f3d30,66fc9906f3d24af3577dcb6f,2024-10-01_18h52.12.569,mdp,2024.2.1,Win32,166.6666667,66fa4ebf79326e780c390304,,,,,,,,,,,,,,,,,,,,,1054.305,1054.305,1054.305,1055.038,1,1,right,0.232,,1055.038,1056.105,1,1,right,1056.105,1057.571,0,0,left,1,1057.571,1057.571,1057.572,1059.071,0,34,34,34,1,0.8,0.2,0.2,0.8,,,,,,,,,,,,,,,0.533,,0.8,0.2,0.8,0.2,0.4,0.6,0.6,0.4,,,0.934,,0.4,0.6,0.2,0.8,0.8,0.2,0.8,0.2,1,0
,,660c9c26e4220931438f3d30,66fc9906f3d24af3577dcb6f,2024-10-01_18h52.12.569,mdp,2024.2.1,Win32,166.6666667,66fa4ebf79326e780c390304,,,,,,,,,,,,,,,,,,,,,1059.072,1059.072,1059.072,1059.705,1,1,right,0.131,,1059.705,1061.344,1,0,right,1061.345,1063.175,1,0,right,1,1063.175,1063.175,1063.175,1064.672,0,35,35,35,1,0.8,0.2,0.2,0.8,,,,,,,,,,,,,,,1.136,,0.8,0.2,0.8,0.2,0.4,0.6,0.6,0.4,,,1.302,,0.4,0.6,0.2,0.8,0.8,0.2,0.8,0.2,1,0
,,660c9c26e4220931438f3d30,66fc9906f3d24af3577dcb6f,2024-10-01_18h52.12.569,mdp,2024.2.1,Win32,166.6666667,66fa4ebf79326e780c390304,,,,,,,,,,,,,,,,,,,,,1064.672,1064.672,1064.673,1065.572,1,0,right,0.398,,1065.573,1068.472,1,0,right,1068.472,1070.005,0,0,left,1,1070.005,1070.005,1070.006,1071.505,0,36,36,36,1,0.8,0.2,0.2,0.8,,,,,,,,,,,,,,,2.364,,0.8,0.2,0.8,0.2,0.4,0.6,0.6,0.4,,,1.033,,0.8,0.2,0.4,0.6,0.8,0.2,0.8,0.2,1,0
,,660c9c26e4220931438f3d30,66fc9906f3d24af3577dcb6f,2024-10-01_18h52.12.569,mdp,2024.2.1,Win32,166.6666667,66fa4ebf79326e780c390304,,,,,,,,,,,,,,,,,,,,,1071.505,1071.505,1071.506,1072.071,1,1,right,0.065,,1072.072,1073.254,1,0,right,1073.254,1074.854,0,0,left,1,1074.854,1074.854,1074.854,1076.372,0,37,37,37,1,0.8,0.2,0.2,0.8,,,,,,,,,,,,,,,0.676,,0.8,0.2,0.8,0.2,0.4,0.6,0.6,0.4,,,1.081,,0.8,0.2,0.4,0.6,0.8,0.2,0.8,0.2,1,0
,,660c9c26e4220931438f3d30,66fc9906f3d24af3577dcb6f,2024-10-01_18h52.12.569,mdp,2024.2.1,Win32,166.6666667,66fa4ebf79326e780c390304,,,,,,,,,,,,,,,,,,,,,1076.372,1076.372,1076.372,1076.939,1,1,right,0.033,,1076.94,1077.839,1,0,right,1077.839,1079.188,0,0,left,1,1079.188,1079.188,1079.188,1080.705,0,38,38,38,1,0.8,0.2,0.2,0.8,,,,,,,,,,,,,,,0.399,,0.8,0.2,0.8,0.2,0.4,0.6,0.6,0.4,,,0.843,,0.8,0.2,0.4,0.6,0.8,0.2,0.8,0.2,1,0
,,660c9c26e4220931438f3d30,66fc9906f3d24af3577dcb6f,2024-10-01_18h52.12.569,mdp,2024.2.1,Win32,166.6666667,66fa4ebf79326e780c390304,,,,,,,,,,,,,,,,,,,,,1080.705,1080.705,1080.706,1081.388,1,1,right,0.144,,1081.388,1082.239,1,0,right,1082.24,1083.321,0,0,left,1,1083.321,1083.321,1083.321,1084.812,0,39,39,39,1,0.8,0.2,0.2,0.8,,,,,,,,,,,,,,,0.332,,0.8,0.2,0.8,0.2,0.4,0.6,0.6,0.4,,,0.546,,0.8,0.2,0.4,0.6,0.8,0.2,0.8,0.2,1,0
,,660c9c26e4220931438f3d30,66fc9906f3d24af3577dcb6f,2024-10-01_18h52.12.569,mdp,2024.2.1,Win32,166.6666667,66fa4ebf79326e780c390304,,,,,,,,,,,,,,,,,,,,,1084.812,1084.812,1084.812,1085.573,1,1,right,0.256,,1085.573,1086.315,1,0,right,1086.315,1087.573,0,0,left,1,1087.573,1087.573,1087.573,1089.072,0,40,40,40,1,0.8,0.2,0.2,0.8,,,,,,,,,,,,,,,0.205,,0.8,0.2,0.8,0.2,0.4,0.6,0.6,0.4,,,0.731,,0.8,0.2,0.4,0.6,0.8,0.2,0.8,0.2,1,0
,,660c9c26e4220931438f3d30,66fc9906f3d24af3577dcb6f,2024-10-01_18h52.12.569,mdp,2024.2.1,Win32,166.6666667,66fa4ebf79326e780c390304,,,,,,,,,,,,,,,,,,,,,1089.073,1089.073,1089.073,1089.588,1,1,right,0.01,,1089.588,1090.406,1,0,right,1090.406,1091.373,0,0,left,1,1091.373,1091.373,1091.373,1092.872,0,41,41,41,1,0.8,0.2,0.2,0.8,,,,,,,,,,,,,,,0.298,,0.8,0.2,0.8,0.2,0.4,0.6,0.6,0.4,,,0.466,,0.8,0.2,0.4,0.6,0.8,0.2,0.8,0.2,1,0
,,660c9c26e4220931438f3d30,66fc9906f3d24af3577dcb6f,2024-10-01_18h52.12.569,mdp,2024.2.1,Win32,166.6666667,66fa4ebf79326e780c390304,,,,,,,,,,,,,,,,,,,,,1092.873,1092.873,1092.874,1093.773,1,1,right,0.399,,1093.773,1094.806,1,0,right,1094.806,1095.915,0,1,left,0,1095.915,1095.915,1095.916,1097.407,0,42,42,42,1,0.8,0.2,0.2,0.8,,,,,,,,,,,,,,,0.531,,0.8,0.2,0.8,0.2,0.4,0.6,0.6,0.4,,,0.603,,0.8,0.2,0.4,0.6,0.2,0.8,0.6,0.4,1,0
,,660c9c26e4220931438f3d30,66fc9906f3d24af3577dcb6f,2024-10-01_18h52.12.569,mdp,2024.2.1,Win32,166.6666667,66fa4ebf79326e780c390304,,,,,,,,,,,,,,,,,,,,,1097.407,1097.407,1097.408,1098.273,1,0,right,0.363,,1098.273,1099.006,1,0,right,1099.007,1100.039,1,0,right,1,1100.039,1100.039,1100.04,1101.54,0,43,43,43,1,0.8,0.2,0.2,0.8,,,,,,,,,,,,,,,0.231,,0.8,0.2,0.8,0.2,0.4,0.6,0.6,0.4,,,0.532,,0.8,0.2,0.4,0.6,0.2,0.8,0.6,0.4,1,0
,,660c9c26e4220931438f3d30,66fc9906f3d24af3577dcb6f,2024-10-01_18h52.12.569,mdp,2024.2.1,Win32,166.6666667,66fa4ebf79326e780c390304,,,,,,,,,,,,,,,,,,,,,1101.54,1101.54,1101.54,1102.473,1,0,right,0.429,,1102.473,1103.74,1,0,right,1103.74,1104.782,1,1,right,0,1104.782,1104.782,1104.783,1106.274,0,44,44,44,1,0.8,0.2,0.2,0.8,,,,,,,,,,,,,,,0.765,,0.8,0.2,0.8,0.2,0.4,0.6,0.6,0.4,,,0.541,,0.8,0.2,0.4,0.6,0.2,0.8,0.6,0.4,1,0
,,660c9c26e4220931438f3d30,66fc9906f3d24af3577dcb6f,2024-10-01_18h52.12.569,mdp,2024.2.1,Win32,166.6666667,66fa4ebf79326e780c390304,,,,,,,,,,,,,,,,,,,,,1106.274,1106.274,1106.275,1107.24,1,1,right,0.463,,1107.24,1107.906,1,1,right,1107.906,1109.582,1,1,right,0,1109.582,1109.582,1109.583,1111.074,0,45,45,45,1,0.8,0.2,0.2,0.8,,,,,,,,,,,,,,,0.133,,0.8,0.2,0.8,0.2,0.4,0.6,0.6,0.4,,,1.143,,0.8,0.2,0.4,0.6,0.2,0.8,0.6,0.4,1,0
,,660c9c26e4220931438f3d30,66fc9906f3d24af3577dcb6f,2024-10-01_18h52.12.569,mdp,2024.2.1,Win32,166.6666667,66fa4ebf79326e780c390304,,,,,,,,,,,,,,,,,,,,,1111.074,1111.074,1111.075,1111.773,1,1,right,0.195,,1111.773,1112.583,1,0,right,1112.583,1114.24,1,1,right,0,1114.24,1114.24,1114.24,1115.74,0,46,46,46,1,0.8,0.2,0.2,0.8,,,,,,,,,,,,,,,0.306,,0.8,0.2,0.8,0.2,0.4,0.6,0.6,0.4,,,1.133,,0.8,0.2,0.4,0.6,0.2,0.8,0.6,0.4,1,0
,,660c9c26e4220931438f3d30,66fc9906f3d24af3577dcb6f,2024-10-01_18h52.12.569,mdp,2024.2.1,Win32,166.6666667,66fa4ebf79326e780c390304,,,,,,,,,,,,,,,,,,,,,1115.74,1115.74,1115.741,1116.573,1,0,right,0.332,,1116.574,1117.249,1,0,right,1117.25,1118.255,0,0,left,1,1118.255,1118.255,1118.256,1119.774,0,47,47,47,1,0.8,0.2,0.2,0.8,,,,,,,,,,,,,,,0.139,,0.8,0.2,0.8,0.2,0.4,0.6,0.6,0.4,,,0.479,,0.8,0.2,0.4,0.6,0.2,0.8,0.6,0.4,1,0
,,660c9c26e4220931438f3d30,66fc9906f3d24af3577dcb6f,2024-10-01_18h52.12.569,mdp,2024.2.1,Win32,166.6666667,66fa4ebf79326e780c390304,,,,,,,,,,,,,,,,,,,,,1119.774,1119.774,1119.774,1120.411,1,1,right,0.131,,1120.411,1121.64,1,0,right,1121.64,1123.773,0,0,left,1,1123.774,1123.774,1123.774,1125.255,0,48,48,48,1,0.8,0.2,0.2,0.8,,,,,,,,,,,,,,,0.7,,0.8,0.2,0.8,0.2,0.4,0.6,0.6,0.4,,,1.632,,0.8,0.2,0.4,0.6,0.2,0.8,0.6,0.4,1,0
,,660c9c26e4220931438f3d30,66fc9906f3d24af3577dcb6f,2024-10-01_18h52.12.569,mdp,2024.2.1,Win32,166.6666667,66fa4ebf79326e780c390304,,,,,,,,,,,,,,,,,,,,,1125.255,1125.255,1125.256,1125.841,1,1,right,0.066,,1125.841,1126.64,1,0,right,1126.641,1127.64,0,0,left,1,1127.64,1127.64,1127.64,1129.141,0,49,49,49,1,0.8,0.2,0.2,0.8,,,,,,,,,,,,,,,0.267,,0.8,0.2,0.8,0.2,0.4,0.6,0.6,0.4,,,0.499,,0.8,0.2,0.4,0.6,0.2,0.8,0.6,0.4,1,0
,,660c9c26e4220931438f3d30,66fc9906f3d24af3577dcb6f,2024-10-01_18h52.12.569,mdp,2024.2.1,Win32,166.6666667,66fa4ebf79326e780c390304,,,,,,,,,,,,,,,,,,,,,,,,,,,,,,,,,,,,,,,,,,,,,,,,,,,,,,,,1129.141,1187.654,0,3,3,3,1,imgs/dog.png,imgs/pig.png,imgs/cat.png,imgs/squirrel.png,imgs/goat.png,,,,,,,,,,,,,,,,,,,,,,,,
,,660c9c26e4220931438f3d30,66fc9906f3d24af3577dcb6f,2024-10-01_18h52.12.569,mdp,2024.2.1,Win32,166.6666667,66fa4ebf79326e780c390304,,,,,,,,,,,,,,1,seqs/st1seq48.csv,1187.66,1241.11,space,52.933,,1241.116,1241.116,1241.117,1243.114,1,0,right,1.468,,1243.114,1243.115,1,0,,1243.115,1243.115,0,0,,1,1243.115,1243.115,1243.116,1244.611,0,0,0,0,1,0.2,0.8,0.8,0.2,1,0,,,,,,,,,,,,,,,,,,,,,,,,,,,,,,,,,,,,
,,660c9c26e4220931438f3d30,66fc9906f3d24af3577dcb6f,2024-10-01_18h52.12.569,mdp,2024.2.1,Win32,166.6666667,66fa4ebf79326e780c390304,,,,,,,,,,,,,,,,,,,,,1244.611,1244.611,1244.611,1245.511,1,1,right,0.396,,1245.511,1245.511,1,0,,1245.512,1245.512,0,0,,0,1245.512,1245.512,1245.512,1247.01,0,1,1,1,1,0.2,0.8,0.8,0.2,1,0,,,,,,,,,,,,,,,,,,,,,,,,,,,,,,,,,,,,
,,660c9c26e4220931438f3d30,66fc9906f3d24af3577dcb6f,2024-10-01_18h52.12.569,mdp,2024.2.1,Win32,166.6666667,66fa4ebf79326e780c390304,,,,,,,,,,,,,,,,,,,,,1247.01,1247.01,1247.011,1248.077,1,0,right,0.564,,1248.077,1248.078,1,1,,1248.078,1248.078,0,0,,1,1248.078,1248.078,1248.079,1249.578,0,2,2,2,1,0.8,0.2,0.6,0.4,1,0,,,,,,,,,,,,,,,,,,,,,,,,,,,,,,,,,,,,
,,660c9c26e4220931438f3d30,66fc9906f3d24af3577dcb6f,2024-10-01_18h52.12.569,mdp,2024.2.1,Win32,166.6666667,66fa4ebf79326e780c390304,,,,,,,,,,,,,,,,,,,,,1249.578,1249.578,1249.578,1250.511,0,0,left,0.4,,1250.511,1250.511,1,0,,1250.511,1250.511,0,0,,1,1250.511,1250.511,1250.511,1252.01,0,3,3,3,1,0.8,0.2,0.6,0.4,1,0,,,,,,,,,,,,,,,,,,,,,,,,,,,,,,,,,,,,
,,660c9c26e4220931438f3d30,66fc9906f3d24af3577dcb6f,2024-10-01_18h52.12.569,mdp,2024.2.1,Win32,166.6666667,66fa4ebf79326e780c390304,,,,,,,,,,,,,,,,,,,,,1252.011,1252.011,1252.011,1252.977,1,0,right,0.461,,1252.978,1252.978,1,1,,1252.978,1252.978,0,1,,1,1252.978,1252.978,1252.978,1254.478,0,4,4,4,1,0.8,0.2,0.6,0.4,1,0,,,,,,,,,,,,,,,,,,,,,,,,,,,,,,,,,,,,
,,660c9c26e4220931438f3d30,66fc9906f3d24af3577dcb6f,2024-10-01_18h52.12.569,mdp,2024.2.1,Win32,166.6666667,66fa4ebf79326e780c390304,,,,,,,,,,,,,,,,,,,,,1254.478,1254.478,1254.478,1255.327,0,0,left,0.345,,1255.327,1255.327,1,1,,1255.327,1255.327,0,0,,1,1255.327,1255.327,1255.327,1256.844,0,5,5,5,1,0.8,0.2,0.6,0.4,1,0,,,,,,,,,,,,,,,,,,,,,,,,,,,,,,,,,,,,
,,660c9c26e4220931438f3d30,66fc9906f3d24af3577dcb6f,2024-10-01_18h52.12.569,mdp,2024.2.1,Win32,166.6666667,66fa4ebf79326e780c390304,,,,,,,,,,,,,,,,,,,,,1256.844,1256.844,1256.844,1257.726,1,1,right,0.382,,1257.726,1257.727,1,1,,1257.727,1257.727,0,0,,0,1257.727,1257.727,1257.727,1259.244,0,6,6,6,1,0.8,0.2,0.6,0.4,1,0,,,,,,,,,,,,,,,,,,,,,,,,,,,,,,,,,,,,
,,660c9c26e4220931438f3d30,66fc9906f3d24af3577dcb6f,2024-10-01_18h52.12.569,mdp,2024.2.1,Win32,166.6666667,66fa4ebf79326e780c390304,,,,,,,,,,,,,,,,,,,,,1259.244,1259.244,1259.245,1259.911,1,0,right,0.166,,1259.911,1259.911,1,1,,1259.912,1259.912,0,0,,1,1259.912,1259.912,1259.912,1261.411,0,7,7,7,1,0.8,0.2,0.6,0.4,1,0,,,,,,,,,,,,,,,,,,,,,,,,,,,,,,,,,,,,
,,660c9c26e4220931438f3d30,66fc9906f3d24af3577dcb6f,2024-10-01_18h52.12.569,mdp,2024.2.1,Win32,166.6666667,66fa4ebf79326e780c390304,,,,,,,,,,,,,,,,,,,,,1261.411,1261.411,1261.412,1262.244,0,1,left,0.332,,1262.244,1262.244,1,1,,1262.245,1262.245,0,1,,0,1262.245,1262.245,1262.246,1263.745,0,8,8,8,1,0.2,0.8,0.8,0.2,1,0,,,,,,,,,,,,,,,,,,,,,,,,,,,,,,,,,,,,
,,660c9c26e4220931438f3d30,66fc9906f3d24af3577dcb6f,2024-10-01_18h52.12.569,mdp,2024.2.1,Win32,166.6666667,66fa4ebf79326e780c390304,,,,,,,,,,,,,,,,,,,,,1263.745,1263.745,1263.745,1264.411,0,1,left,0.162,,1264.412,1264.412,1,1,,1264.412,1264.412,0,0,,0,1264.412,1264.412,1264.412,1265.911,0,9,9,9,1,0.2,0.8,0.8,0.2,1,0,,,,,,,,,,,,,,,,,,,,,,,,,,,,,,,,,,,,
,,660c9c26e4220931438f3d30,66fc9906f3d24af3577dcb6f,2024-10-01_18h52.12.569,mdp,2024.2.1,Win32,166.6666667,66fa4ebf79326e780c390304,,,,,,,,,,,,,,,,,,,,,1265.911,1265.911,1265.912,1266.711,0,0,left,0.298,,1266.711,1266.711,1,1,,1266.711,1266.712,0,1,,1,1266.712,1266.712,1266.713,1268.211,0,10,10,10,1,0.2,0.8,0.8,0.2,1,0,,,,,,,,,,,,,,,,,,,,,,,,,,,,,,,,,,,,
,,660c9c26e4220931438f3d30,66fc9906f3d24af3577dcb6f,2024-10-01_18h52.12.569,mdp,2024.2.1,Win32,166.6666667,66fa4ebf79326e780c390304,,,,,,,,,,,,,,,,,,,,,1268.211,1268.211,1268.212,1269.587,0,0,left,0.871,,1269.588,1269.588,1,0,,1269.588,1269.588,0,1,,1,1269.589,1269.589,1269.589,1271.111,0,11,11,11,1,0.8,0.2,0.6,0.4,1,0,,,,,,,,,,,,,,,,,,,,,,,,,,,,,,,,,,,,
,,660c9c26e4220931438f3d30,66fc9906f3d24af3577dcb6f,2024-10-01_18h52.12.569,mdp,2024.2.1,Win32,166.6666667,66fa4ebf79326e780c390304,,,,,,,,,,,,,,,,,,,,,1271.112,1271.112,1271.112,1271.878,0,0,left,0.265,,1271.878,1271.878,1,1,,1271.879,1271.879,0,0,,1,1271.879,1271.879,1271.879,1273.378,0,12,12,12,1,0.8,0.2,0.6,0.4,1,0,,,,,,,,,,,,,,,,,,,,,,,,,,,,,,,,,,,,
,,660c9c26e4220931438f3d30,66fc9906f3d24af3577dcb6f,2024-10-01_18h52.12.569,mdp,2024.2.1,Win32,166.6666667,66fa4ebf79326e780c390304,,,,,,,,,,,,,,,,,,,,,1273.378,1273.378,1273.378,1274.311,1,0,right,0.432,,1274.311,1274.312,1,0,,1274.312,1274.312,0,0,,1,1274.312,1274.312,1274.313,1275.81,0,13,13,13,1,0.6,0.4,0.8,0.2,1,0,,,,,,,,,,,,,,,,,,,,,,,,,,,,,,,,,,,,
,,660c9c26e4220931438f3d30,66fc9906f3d24af3577dcb6f,2024-10-01_18h52.12.569,mdp,2024.2.1,Win32,166.6666667,66fa4ebf79326e780c390304,,,,,,,,,,,,,,,,,,,,,1275.81,1275.81,1275.81,1276.594,1,0,right,0.278,,1276.594,1276.594,1,0,,1276.594,1276.594,0,1,,1,1276.594,1276.594,1276.595,1278.111,0,14,14,14,1,0.6,0.4,0.8,0.2,1,0,,,,,,,,,,,,,,,,,,,,,,,,,,,,,,,,,,,,
,,660c9c26e4220931438f3d30,66fc9906f3d24af3577dcb6f,2024-10-01_18h52.12.569,mdp,2024.2.1,Win32,166.6666667,66fa4ebf79326e780c390304,,,,,,,,,,,,,,,,,,,,,1278.111,1278.111,1278.112,1278.752,1,1,right,0.137,,1278.752,1278.752,1,1,,1278.753,1278.753,0,1,,0,1278.753,1278.753,1278.753,1280.249,0,15,15,15,1,0.8,0.2,0.4,0.6,1,0,,,,,,,,,,,,,,,,,,,,,,,,,,,,,,,,,,,,
,,660c9c26e4220931438f3d30,66fc9906f3d24af3577dcb6f,2024-10-01_18h52.12.569,mdp,2024.2.1,Win32,166.6666667,66fa4ebf79326e780c390304,,,,,,,,,,,,,,,,,,,,,1280.249,1280.249,1280.249,1280.787,0,0,left,0.004,,1280.788,1280.788,1,0,,1280.788,1280.788,0,1,,1,1280.788,1280.788,1280.789,1282.279,0,16,16,16,1,0.8,0.2,0.4,0.6,1,0,,,,,,,,,,,,,,,,,,,,,,,,,,,,,,,,,,,,
,,660c9c26e4220931438f3d30,66fc9906f3d24af3577dcb6f,2024-10-01_18h52.12.569,mdp,2024.2.1,Win32,166.6666667,66fa4ebf79326e780c390304,,,,,,,,,,,,,,,,,,,,,1282.279,1282.279,1282.28,1283.045,0,0,left,0.263,,1283.045,1283.045,1,1,,1283.046,1283.046,0,0,,1,1283.046,1283.046,1283.046,1284.545,0,17,17,17,1,0.4,0.6,0.8,0.2,1,0,,,,,,,,,,,,,,,,,,,,,,,,,,,,,,,,,,,,
,,660c9c26e4220931438f3d30,66fc9906f3d24af3577dcb6f,2024-10-01_18h52.12.569,mdp,2024.2.1,Win32,166.6666667,66fa4ebf79326e780c390304,,,,,,,,,,,,,,,,,,,,,1284.545,1284.545,1284.546,1285.327,1,0,right,0.28,,1285.328,1285.328,1,1,,1285.328,1285.328,0,0,,1,1285.328,1285.328,1285.328,1286.845,0,18,18,18,1,0.6,0.4,0.4,0.6,1,0,,,,,,,,,,,,,,,,,,,,,,,,,,,,,,,,,,,,
,,660c9c26e4220931438f3d30,66fc9906f3d24af3577dcb6f,2024-10-01_18h52.12.569,mdp,2024.2.1,Win32,166.6666667,66fa4ebf79326e780c390304,,,,,,,,,,,,,,,,,,,,,1286.845,1286.845,1286.846,1287.612,1,1,right,0.266,,1287.612,1287.612,1,0,,1287.612,1287.613,0,1,,0,1287.613,1287.613,1287.613,1289.112,0,19,19,19,1,0.6,0.4,0.4,0.6,1,0,,,,,,,,,,,,,,,,,,,,,,,,,,,,,,,,,,,,
,,660c9c26e4220931438f3d30,66fc9906f3d24af3577dcb6f,2024-10-01_18h52.12.569,mdp,2024.2.1,Win32,166.6666667,66fa4ebf79326e780c390304,,,,,,,,,,,,,,,,,,,,,1289.112,1289.112,1289.112,1290.079,1,0,right,0.467,,1290.079,1290.08,1,1,,1290.08,1290.08,0,1,,1,1290.08,1290.08,1290.08,1291.578,0,20,20,20,1,0.6,0.4,0.4,0.6,1,0,,,,,,,,,,,,,,,,,,,,,,,,,,,,,,,,,,,,
,,660c9c26e4220931438f3d30,66fc9906f3d24af3577dcb6f,2024-10-01_18h52.12.569,mdp,2024.2.1,Win32,166.6666667,66fa4ebf79326e780c390304,,,,,,,,,,,,,,,,,,,,,1291.579,1291.579,1291.579,1292.245,0,0,left,0.164,,1292.245,1292.245,1,1,,1292.246,1292.246,0,1,,1,1292.246,1292.246,1292.246,1293.745,0,21,21,21,1,0.6,0.4,0.4,0.6,1,0,,,,,,,,,,,,,,,,,,,,,,,,,,,,,,,,,,,,
,,660c9c26e4220931438f3d30,66fc9906f3d24af3577dcb6f,2024-10-01_18h52.12.569,mdp,2024.2.1,Win32,166.6666667,66fa4ebf79326e780c390304,,,,,,,,,,,,,,,,,,,,,1293.745,1293.745,1293.746,1294.512,1,1,right,0.266,,1294.513,1294.513,1,1,,1294.513,1294.513,0,0,,0,1294.513,1294.513,1294.513,1296.012,0,22,22,22,1,0.6,0.4,0.4,0.6,1,0,,,,,,,,,,,,,,,,,,,,,,,,,,,,,,,,,,,,
,,660c9c26e4220931438f3d30,66fc9906f3d24af3577dcb6f,2024-10-01_18h52.12.569,mdp,2024.2.1,Win32,166.6666667,66fa4ebf79326e780c390304,,,,,,,,,,,,,,,,,,,,,1296.012,1296.012,1296.012,1297.045,1,1,right,0.528,,1297.045,1297.045,1,1,,1297.046,1297.046,0,1,,0,1297.046,1297.046,1297.047,1298.545,0,23,23,23,1,0.6,0.4,0.4,0.6,1,0,,,,,,,,,,,,,,,,,,,,,,,,,,,,,,,,,,,,
,,660c9c26e4220931438f3d30,66fc9906f3d24af3577dcb6f,2024-10-01_18h52.12.569,mdp,2024.2.1,Win32,166.6666667,66fa4ebf79326e780c390304,,,,,,,,,,,,,,,,,,,,,1298.545,1298.545,1298.546,1299.379,1,1,right,0.332,,1299.38,1299.38,1,1,,1299.38,1299.38,0,0,,0,1299.38,1299.38,1299.38,1300.879,0,24,24,24,1,0.6,0.4,0.4,0.6,1,0,,,,,,,,,,,,,,,,,,,,,,,,,,,,,,,,,,,,
,,660c9c26e4220931438f3d30,66fc9906f3d24af3577dcb6f,2024-10-01_18h52.12.569,mdp,2024.2.1,Win32,166.6666667,66fa4ebf79326e780c390304,,,,,,,,,,,,,,,,,,,,,1300.879,1300.879,1300.879,1301.711,1,1,right,0.327,,1301.713,1301.713,1,0,,1301.713,1301.713,0,0,,0,1301.713,1301.713,1301.713,1303.212,0,25,25,25,1,0.6,0.4,0.4,0.6,1,0,,,,,,,,,,,,,,,,,,,,,,,,,,,,,,,,,,,,
,,660c9c26e4220931438f3d30,66fc9906f3d24af3577dcb6f,2024-10-01_18h52.12.569,mdp,2024.2.1,Win32,166.6666667,66fa4ebf79326e780c390304,,,,,,,,,,,,,,,,,,,,,1303.212,1303.212,1303.212,1303.812,1,1,right,0.099,,1303.812,1303.812,1,1,,1303.813,1303.813,0,0,,0,1303.813,1303.813,1303.813,1305.312,0,26,26,26,1,0.6,0.4,0.4,0.6,1,0,,,,,,,,,,,,,,,,,,,,,,,,,,,,,,,,,,,,
,,660c9c26e4220931438f3d30,66fc9906f3d24af3577dcb6f,2024-10-01_18h52.12.569,mdp,2024.2.1,Win32,166.6666667,66fa4ebf79326e780c390304,,,,,,,,,,,,,,,,,,,,,1305.312,1305.312,1305.313,1306.078,0,1,left,0.265,,1306.079,1306.079,1,0,,1306.079,1306.079,0,0,,0,1306.079,1306.079,1306.08,1307.579,0,27,27,27,1,0.6,0.4,0.4,0.6,1,0,,,,,,,,,,,,,,,,,,,,,,,,,,,,,,,,,,,,
,,660c9c26e4220931438f3d30,66fc9906f3d24af3577dcb6f,2024-10-01_18h52.12.569,mdp,2024.2.1,Win32,166.6666667,66fa4ebf79326e780c390304,,,,,,,,,,,,,,,,,,,,,1307.579,1307.579,1307.579,1308.178,1,1,right,0.098,,1308.179,1308.179,1,1,,1308.179,1308.18,0,1,,0,1308.18,1308.18,1308.18,1309.679,0,28,28,28,1,0.6,0.4,0.4,0.6,1,0,,,,,,,,,,,,,,,,,,,,,,,,,,,,,,,,,,,,
,,660c9c26e4220931438f3d30,66fc9906f3d24af3577dcb6f,2024-10-01_18h52.12.569,mdp,2024.2.1,Win32,166.6666667,66fa4ebf79326e780c390304,,,,,,,,,,,,,,,,,,,,,1309.679,1309.679,1309.68,1310.583,1,0,right,0.397,,1310.584,1310.584,1,1,,1310.584,1310.584,0,0,,1,1310.584,1310.584,1310.584,1312.079,0,29,29,29,1,0.6,0.4,0.4,0.6,1,0,,,,,,,,,,,,,,,,,,,,,,,,,,,,,,,,,,,,
,,660c9c26e4220931438f3d30,66fc9906f3d24af3577dcb6f,2024-10-01_18h52.12.569,mdp,2024.2.1,Win32,166.6666667,66fa4ebf79326e780c390304,,,,,,,,,,,,,,,,,,,,,1312.079,1312.079,1312.079,1312.728,0,0,left,0.145,,1312.729,1312.729,1,0,,1312.729,1312.729,0,0,,1,1312.729,1312.729,1312.729,1314.245,0,30,30,30,1,0.6,0.4,0.4,0.6,1,0,,,,,,,,,,,,,,,,,,,,,,,,,,,,,,,,,,,,
,,660c9c26e4220931438f3d30,66fc9906f3d24af3577dcb6f,2024-10-01_18h52.12.569,mdp,2024.2.1,Win32,166.6666667,66fa4ebf79326e780c390304,,,,,,,,,,,,,,,,,,,,,1314.245,1314.245,1314.246,1314.913,1,1,right,0.166,,1314.913,1314.913,1,1,,1314.913,1314.913,0,1,,0,1314.913,1314.913,1314.914,1316.413,0,31,31,31,1,0.6,0.4,0.4,0.6,1,0,,,,,,,,,,,,,,,,,,,,,,,,,,,,,,,,,,,,
,,660c9c26e4220931438f3d30,66fc9906f3d24af3577dcb6f,2024-10-01_18h52.12.569,mdp,2024.2.1,Win32,166.6666667,66fa4ebf79326e780c390304,,,,,,,,,,,,,,,,,,,,,1316.413,1316.413,1316.413,1317.183,1,0,right,0.268,,1317.183,1317.183,1,1,,1317.184,1317.184,0,1,,1,1317.184,1317.184,1317.184,1318.68,0,32,32,32,1,0.6,0.4,0.4,0.6,1,0,,,,,,,,,,,,,,,,,,,,,,,,,,,,,,,,,,,,
,,660c9c26e4220931438f3d30,66fc9906f3d24af3577dcb6f,2024-10-01_18h52.12.569,mdp,2024.2.1,Win32,166.6666667,66fa4ebf79326e780c390304,,,,,,,,,,,,,,,,,,,,,1318.68,1318.68,1318.68,1319.286,0,0,left,0.103,,1319.286,1319.286,1,0,,1319.287,1319.287,0,0,,1,1319.287,1319.287,1319.287,1320.783,0,33,33,33,1,0.6,0.4,0.4,0.6,1,0,,,,,,,,,,,,,,,,,,,,,,,,,,,,,,,,,,,,
,,660c9c26e4220931438f3d30,66fc9906f3d24af3577dcb6f,2024-10-01_18h52.12.569,mdp,2024.2.1,Win32,166.6666667,66fa4ebf79326e780c390304,,,,,,,,,,,,,,,,,,,,,1320.783,1320.783,1320.783,1321.449,0,0,left,0.133,,1321.449,1321.45,1,0,,1321.45,1321.45,0,1,,1,1321.45,1321.45,1321.45,1322.946,0,34,34,34,1,0.8,0.2,0.2,0.8,1,0,,,,,,,,,,,,,,,,,,,,,,,,,,,,,,,,,,,,
,,660c9c26e4220931438f3d30,66fc9906f3d24af3577dcb6f,2024-10-01_18h52.12.569,mdp,2024.2.1,Win32,166.6666667,66fa4ebf79326e780c390304,,,,,,,,,,,,,,,,,,,,,1322.946,1322.946,1322.947,1323.686,0,0,left,0.239,,1323.687,1323.687,1,0,,1323.687,1323.687,0,0,,1,1323.687,1323.687,1323.688,1325.183,0,35,35,35,1,0.4,0.6,0.6,0.4,1,0,,,,,,,,,,,,,,,,,,,,,,,,,,,,,,,,,,,,
,,660c9c26e4220931438f3d30,66fc9906f3d24af3577dcb6f,2024-10-01_18h52.12.569,mdp,2024.2.1,Win32,166.6666667,66fa4ebf79326e780c390304,,,,,,,,,,,,,,,,,,,,,1325.184,1325.184,1325.184,1325.846,1,0,right,0.133,,1325.846,1325.847,1,1,,1325.847,1325.847,0,1,,1,1325.847,1325.847,1325.847,1327.346,0,36,36,36,1,0.4,0.6,0.6,0.4,1,0,,,,,,,,,,,,,,,,,,,,,,,,,,,,,,,,,,,,
,,660c9c26e4220931438f3d30,66fc9906f3d24af3577dcb6f,2024-10-01_18h52.12.569,mdp,2024.2.1,Win32,166.6666667,66fa4ebf79326e780c390304,,,,,,,,,,,,,,,,,,,,,1327.346,1327.346,1327.347,1328.046,1,1,right,0.199,,1328.047,1328.047,1,1,,1328.047,1328.047,0,1,,0,1328.047,1328.047,1328.048,1329.546,0,37,37,37,1,0.4,0.6,0.6,0.4,1,0,,,,,,,,,,,,,,,,,,,,,,,,,,,,,,,,,,,,
,,660c9c26e4220931438f3d30,66fc9906f3d24af3577dcb6f,2024-10-01_18h52.12.569,mdp,2024.2.1,Win32,166.6666667,66fa4ebf79326e780c390304,,,,,,,,,,,,,,,,,,,,,1329.546,1329.546,1329.547,1330.153,1,0,right,0.103,,1330.153,1330.154,1,1,,1330.154,1330.155,0,0,,1,1330.155,1330.155,1330.155,1331.65,0,38,38,38,1,0.4,0.6,0.6,0.4,1,0,,,,,,,,,,,,,,,,,,,,,,,,,,,,,,,,,,,,
,,660c9c26e4220931438f3d30,66fc9906f3d24af3577dcb6f,2024-10-01_18h52.12.569,mdp,2024.2.1,Win32,166.6666667,66fa4ebf79326e780c390304,,,,,,,,,,,,,,,,,,,,,1331.65,1331.65,1331.65,1332.246,0,0,left,0.067,,1332.246,1332.247,1,0,,1332.247,1332.248,0,1,,1,1332.248,1332.248,1332.248,1333.746,0,39,39,39,1,0.4,0.6,0.6,0.4,1,0,,,,,,,,,,,,,,,,,,,,,,,,,,,,,,,,,,,,
,,660c9c26e4220931438f3d30,66fc9906f3d24af3577dcb6f,2024-10-01_18h52.12.569,mdp,2024.2.1,Win32,166.6666667,66fa4ebf79326e780c390304,,,,,,,,,,,,,,,,,,,,,1333.746,1333.746,1333.746,1334.713,1,0,right,0.465,,1334.714,1334.714,1,0,,1334.714,1334.714,0,1,,1,1334.714,1334.714,1334.714,1336.213,0,40,40,40,1,0.4,0.6,0.6,0.4,1,0,,,,,,,,,,,,,,,,,,,,,,,,,,,,,,,,,,,,
,,660c9c26e4220931438f3d30,66fc9906f3d24af3577dcb6f,2024-10-01_18h52.12.569,mdp,2024.2.1,Win32,166.6666667,66fa4ebf79326e780c390304,,,,,,,,,,,,,,,,,,,,,1336.213,1336.213,1336.213,1336.946,0,0,left,0.232,,1336.946,1336.946,1,1,,1336.947,1336.947,0,1,,1,1336.947,1336.947,1336.947,1338.447,0,41,41,41,1,0.4,0.6,0.6,0.4,1,0,,,,,,,,,,,,,,,,,,,,,,,,,,,,,,,,,,,,
,,660c9c26e4220931438f3d30,66fc9906f3d24af3577dcb6f,2024-10-01_18h52.12.569,mdp,2024.2.1,Win32,166.6666667,66fa4ebf79326e780c390304,,,,,,,,,,,,,,,,,,,,,1338.447,1338.447,1338.447,1339.346,1,0,right,0.398,,1339.347,1339.347,1,0,,1339.347,1339.348,0,0,,1,1339.348,1339.348,1339.348,1340.847,0,42,42,42,1,0.4,0.6,0.6,0.4,1,0,,,,,,,,,,,,,,,,,,,,,,,,,,,,,,,,,,,,
,,660c9c26e4220931438f3d30,66fc9906f3d24af3577dcb6f,2024-10-01_18h52.12.569,mdp,2024.2.1,Win32,166.6666667,66fa4ebf79326e780c390304,,,,,,,,,,,,,,,,,,,,,1340.847,1340.847,1340.847,1341.687,0,1,left,0.338,,1341.687,1341.687,1,1,,1341.688,1341.688,0,0,,0,1341.688,1341.688,1341.688,1343.183,0,43,43,43,1,0.4,0.6,0.6,0.4,1,0,,,,,,,,,,,,,,,,,,,,,,,,,,,,,,,,,,,,
,,660c9c26e4220931438f3d30,66fc9906f3d24af3577dcb6f,2024-10-01_18h52.12.569,mdp,2024.2.1,Win32,166.6666667,66fa4ebf79326e780c390304,,,,,,,,,,,,,,,,,,,,,1343.184,1343.184,1343.184,1343.929,0,0,left,0.212,,1343.93,1343.93,1,0,,1343.93,1343.93,0,1,,1,1343.93,1343.93,1343.93,1345.447,0,44,44,44,1,0.4,0.6,0.6,0.4,1,0,,,,,,,,,,,,,,,,,,,,,,,,,,,,,,,,,,,,
,,660c9c26e4220931438f3d30,66fc9906f3d24af3577dcb6f,2024-10-01_18h52.12.569,mdp,2024.2.1,Win32,166.6666667,66fa4ebf79326e780c390304,,,,,,,,,,,,,,,,,,,,,1345.447,1345.447,1345.447,1346.18,1,0,right,0.233,,1346.18,1346.181,1,0,,1346.181,1346.182,0,1,,1,1346.182,1346.182,1346.182,1347.679,0,45,45,45,1,0.4,0.6,0.6,0.4,1,0,,,,,,,,,,,,,,,,,,,,,,,,,,,,,,,,,,,,
,,660c9c26e4220931438f3d30,66fc9906f3d24af3577dcb6f,2024-10-01_18h52.12.569,mdp,2024.2.1,Win32,166.6666667,66fa4ebf79326e780c390304,,,,,,,,,,,,,,,,,,,,,1347.679,1347.679,1347.68,1348.314,1,0,right,0.132,,1348.314,1348.314,1,0,,1348.314,1348.315,0,0,,1,1348.315,1348.315,1348.315,1349.813,0,46,46,46,1,0.4,0.6,0.6,0.4,1,0,,,,,,,,,,,,,,,,,,,,,,,,,,,,,,,,,,,,
,,660c9c26e4220931438f3d30,66fc9906f3d24af3577dcb6f,2024-10-01_18h52.12.569,mdp,2024.2.1,Win32,166.6666667,66fa4ebf79326e780c390304,,,,,,,,,,,,,,,,,,,,,1349.813,1349.813,1349.814,1350.353,0,1,left,0.035,,1350.354,1350.355,1,1,,1350.355,1350.355,0,1,,0,1350.355,1350.355,1350.355,1351.851,0,47,47,47,1,0.4,0.6,0.6,0.4,1,0,,,,,,,,,,,,,,,,,,,,,,,,,,,,,,,,,,,,
,,660c9c26e4220931438f3d30,66fc9906f3d24af3577dcb6f,2024-10-01_18h52.12.569,mdp,2024.2.1,Win32,166.6666667,66fa4ebf79326e780c390304,,,,,,,,,,,,,,,,,,,,,1351.851,1351.851,1351.851,1352.456,0,1,left,0.074,,1352.457,1352.458,1,1,,1352.458,1352.458,0,1,,0,1352.458,1352.458,1352.458,1353.954,0,48,48,48,1,0.4,0.6,0.6,0.4,1,0,,,,,,,,,,,,,,,,,,,,,,,,,,,,,,,,,,,,
,,660c9c26e4220931438f3d30,66fc9906f3d24af3577dcb6f,2024-10-01_18h52.12.569,mdp,2024.2.1,Win32,166.6666667,66fa4ebf79326e780c390304,,,,,,,,,,,,,,,,,,,,,1353.954,1353.954,1353.954,1354.863,1,0,right,0.404,,1354.864,1354.864,1,0,,1354.864,1354.864,0,1,,1,1354.864,1354.864,1354.864,1356.38,0,49,49,49,1,0.4,0.6,0.6,0.4,1,0,,,,,,,,,,,,,,,,,,,,,,,,,,,,,,,,,,,,
,,660c9c26e4220931438f3d30,66fc9906f3d24af3577dcb6f,2024-10-01_18h52.12.569,mdp,2024.2.1,Win32,166.6666667,66fa4ebf79326e780c390304,,,,,,,,,,,,,,,,,,,,,,,,,,,,,,,,,,,,,,,,,,,,,,,,,,,,,,,,1356.38,1433.668,0,4,4,6,1,imgs/rabbit.png,imgs/dog.png,imgs/goat.png,imgs/pig.png,imgs/kangaroo.png,,,,,,,,,,,,,,,,,,,,,,,,
