init_exp.started,init_exp.stopped,participant,session,date,expName,psychopyVersion,OS,frameRate,study_id,disp_instruction.started,disp_instruction.stopped,instruction.thisRepN,instruction.thisTrialN,instruction.thisN,instruction.thisIndex,instruction.ran,instimg_path,consent.started,consent.stopped,key_resp_3.keys,key_resp_3.rt,key_resp_3.duration,n_steps,sequence_path,init_block.started,init_block.stopped,key_resp.keys,key_resp.rt,key_resp.duration,init_trials.started,init_trials.stopped,step0.started,step0.stopped,act0,s1,res0.keys,res0.rt,res0.duration,step1.started,step1.stopped,act1,s2,res1.keys,step2.started,step2.stopped,act2,s3,res2.keys,rew,reward_comp.started,reward_comp.stopped,reward_disp.started,reward_disp.stopped,trials.thisRepN,trials.thisTrialN,trials.thisN,trials.thisIndex,trials.ran,s00a0s10,s00a0s11,s00a1s10,s00a1s11,rew10,rew11,break_block.started,break_block.stopped,block.thisRepN,block.thisTrialN,block.thisN,block.thisIndex,block.ran,s00path,s10path,s11path,s20path,s21path,res1.rt,res1.duration,s10a0s20,s10a0s21,s10a1s20,s10a1s21,s11a0s20,s11a0s21,s11a1s20,s11a1s21,rew20,rew21,res2.rt,res2.duration,s20a0s30,s20a0s31,s20a1s30,s20a1s31,s21a0s30,s21a0s31,s21a1s30,s21a1s31,rew30,rew31
0.0003,0.001,661094be457866d2fd65a77d,66fcbbf2c7b6d4fa066585b1,2024-10-01_22h21.16.515,mdp,2024.2.1,Win32,147.0588235,66fa4ebf79326e780c390304,,,,,,,,,,,,,,,,,,,,,,,,,,,,,,,,,,,,,,,,,,,,,,,,,,,,,,,,,,,,,,,,,,,,,,,,,,,,,,,,,,,,,,,,,,,
,,661094be457866d2fd65a77d,66fcbbf2c7b6d4fa066585b1,2024-10-01_22h21.16.515,mdp,2024.2.1,Win32,147.0588235,66fa4ebf79326e780c390304,0.0039,16.1172,0,0,0,0,1,rlnn_exp/rlnn_exp.001.png,,,,,,,,,,,,,,,,,,,,,,,,,,,,,,,,,,,,,,,,,,,,,,,,,,,,,,,,,,,,,,,,,,,,,,,,,,,,,,,,,,,
,,661094be457866d2fd65a77d,66fcbbf2c7b6d4fa066585b1,2024-10-01_22h21.16.515,mdp,2024.2.1,Win32,147.0588235,66fa4ebf79326e780c390304,16.1175,88.9724,0,1,1,1,1,rlnn_exp/rlnn_exp.002.png,,,,,,,,,,,,,,,,,,,,,,,,,,,,,,,,,,,,,,,,,,,,,,,,,,,,,,,,,,,,,,,,,,,,,,,,,,,,,,,,,,,
,,661094be457866d2fd65a77d,66fcbbf2c7b6d4fa066585b1,2024-10-01_22h21.16.515,mdp,2024.2.1,Win32,147.0588235,66fa4ebf79326e780c390304,88.9728,107.7029,0,2,2,2,1,rlnn_exp/rlnn_exp.003.png,,,,,,,,,,,,,,,,,,,,,,,,,,,,,,,,,,,,,,,,,,,,,,,,,,,,,,,,,,,,,,,,,,,,,,,,,,,,,,,,,,,
,,661094be457866d2fd65a77d,66fcbbf2c7b6d4fa066585b1,2024-10-01_22h21.16.515,mdp,2024.2.1,Win32,147.0588235,66fa4ebf79326e780c390304,107.7032,118.2128,0,3,3,3,1,rlnn_exp/rlnn_exp.004.png,,,,,,,,,,,,,,,,,,,,,,,,,,,,,,,,,,,,,,,,,,,,,,,,,,,,,,,,,,,,,,,,,,,,,,,,,,,,,,,,,,,
,,661094be457866d2fd65a77d,66fcbbf2c7b6d4fa066585b1,2024-10-01_22h21.16.515,mdp,2024.2.1,Win32,147.0588235,66fa4ebf79326e780c390304,,,,,,,,,118.2131,133.704,y,5.4824,,,,,,,,,,,,,,,,,,,,,,,,,,,,,,,,,,,,,,,,,,,,,,,,,,,,,,,,,,,,,,,,,,,,,,,,,,,,,,,
,,661094be457866d2fd65a77d,66fcbbf2c7b6d4fa066585b1,2024-10-01_22h21.16.515,mdp,2024.2.1,Win32,147.0588235,66fa4ebf79326e780c390304,,,,,,,,,,,,,,1,seqs/st1seq31.csv,133.706,134.7723,space,0.5554,,134.7739,134.7739,134.7741,136.3195,0,0,left,1.0326,,136.3196,136.3209,,0,,136.321,136.3216,,1,,1,136.3217,136.3217,136.3219,137.8176,0,0,0,0,1,0.8,0.2,0.4,0.6,1,0,,,,,,,,,,,,,,,,,,,,,,,,,,,,,,,,,,,,
,,661094be457866d2fd65a77d,66fcbbf2c7b6d4fa066585b1,2024-10-01_22h21.16.515,mdp,2024.2.1,Win32,147.0588235,66fa4ebf79326e780c390304,,,,,,,,,,,,,,,,,,,,,137.8179,137.8179,137.8183,138.9831,0,0,left,0.6522,,138.9836,138.984,,0,,138.9843,138.9845,,0,,1,138.9845,138.9845,138.9847,140.4814,0,1,1,1,1,0.8,0.2,0.4,0.6,1,0,,,,,,,,,,,,,,,,,,,,,,,,,,,,,,,,,,,,
,,661094be457866d2fd65a77d,66fcbbf2c7b6d4fa066585b1,2024-10-01_22h21.16.515,mdp,2024.2.1,Win32,147.0588235,66fa4ebf79326e780c390304,,,,,,,,,,,,,,,,,,,,,140.4816,140.4816,140.4823,141.5776,0,0,left,0.5832,,141.5782,141.5787,,0,,141.579,141.5792,,1,,1,141.5792,141.5792,141.5794,143.0761,0,2,2,2,1,0.8,0.2,0.4,0.6,1,0,,,,,,,,,,,,,,,,,,,,,,,,,,,,,,,,,,,,
,,661094be457866d2fd65a77d,66fcbbf2c7b6d4fa066585b1,2024-10-01_22h21.16.515,mdp,2024.2.1,Win32,147.0588235,66fa4ebf79326e780c390304,,,,,,,,,,,,,,,,,,,,,143.0763,143.0763,143.0769,144.1028,0,0,left,0.5175,,144.1034,144.1038,,0,,144.1042,144.1045,,0,,1,144.1045,144.1045,144.1048,145.6012,0,3,3,3,1,0.8,0.2,0.4,0.6,1,0,,,,,,,,,,,,,,,,,,,,,,,,,,,,,,,,,,,,
,,661094be457866d2fd65a77d,66fcbbf2c7b6d4fa066585b1,2024-10-01_22h21.16.515,mdp,2024.2.1,Win32,147.0588235,66fa4ebf79326e780c390304,,,,,,,,,,,,,,,,,,,,,145.6014,145.6015,145.6019,146.6003,0,0,left,0.487,,146.6008,146.6013,,0,,146.6015,146.6018,,0,,1,146.6018,146.6018,146.602,148.0985,0,4,4,4,1,0.8,0.2,0.4,0.6,1,0,,,,,,,,,,,,,,,,,,,,,,,,,,,,,,,,,,,,
,,661094be457866d2fd65a77d,66fcbbf2c7b6d4fa066585b1,2024-10-01_22h21.16.515,mdp,2024.2.1,Win32,147.0588235,66fa4ebf79326e780c390304,,,,,,,,,,,,,,,,,,,,,148.0987,148.0987,148.0994,149.0698,0,0,left,0.4583,,149.0704,149.0708,,0,,149.0711,149.0713,,0,,1,149.0713,149.0713,149.0716,150.5683,0,5,5,5,1,0.8,0.2,0.4,0.6,1,0,,,,,,,,,,,,,,,,,,,,,,,,,,,,,,,,,,,,
,,661094be457866d2fd65a77d,66fcbbf2c7b6d4fa066585b1,2024-10-01_22h21.16.515,mdp,2024.2.1,Win32,147.0588235,66fa4ebf79326e780c390304,,,,,,,,,,,,,,,,,,,,,150.5684,150.5684,150.5692,151.491,0,0,left,0.4135,,151.4916,151.4923,,1,,151.4926,151.4931,,0,,1,151.4931,151.4931,151.4933,152.9894,0,6,6,6,1,0.6,0.4,0.6,0.4,1,0,,,,,,,,,,,,,,,,,,,,,,,,,,,,,,,,,,,,
,,661094be457866d2fd65a77d,66fcbbf2c7b6d4fa066585b1,2024-10-01_22h21.16.515,mdp,2024.2.1,Win32,147.0588235,66fa4ebf79326e780c390304,,,,,,,,,,,,,,,,,,,,,152.9895,152.9895,152.9902,153.9468,0,1,left,0.4466,,153.9473,153.9475,,0,,153.9478,153.9481,,0,,0,153.9481,153.9481,153.9482,155.4451,0,7,7,7,1,0.6,0.4,0.6,0.4,1,0,,,,,,,,,,,,,,,,,,,,,,,,,,,,,,,,,,,,
,,661094be457866d2fd65a77d,66fcbbf2c7b6d4fa066585b1,2024-10-01_22h21.16.515,mdp,2024.2.1,Win32,147.0588235,66fa4ebf79326e780c390304,,,,,,,,,,,,,,,,,,,,,155.4453,155.4453,155.4458,156.4719,0,1,left,0.5161,,156.4724,156.4729,,0,,156.4733,156.4735,,0,,0,156.4736,156.4736,156.4738,157.9702,0,8,8,8,1,0.6,0.4,0.6,0.4,1,0,,,,,,,,,,,,,,,,,,,,,,,,,,,,,,,,,,,,
,,661094be457866d2fd65a77d,66fcbbf2c7b6d4fa066585b1,2024-10-01_22h21.16.515,mdp,2024.2.1,Win32,147.0588235,66fa4ebf79326e780c390304,,,,,,,,,,,,,,,,,,,,,157.9705,157.9705,157.9709,158.8513,1,0,right,0.3676,,158.8519,158.8522,,0,,158.8524,158.8528,,1,,1,158.8528,158.8528,158.853,160.3498,0,9,9,9,1,0.8,0.2,0.4,0.6,1,0,,,,,,,,,,,,,,,,,,,,,,,,,,,,,,,,,,,,
,,661094be457866d2fd65a77d,66fcbbf2c7b6d4fa066585b1,2024-10-01_22h21.16.515,mdp,2024.2.1,Win32,147.0588235,66fa4ebf79326e780c390304,,,,,,,,,,,,,,,,,,,,,160.3499,160.3499,160.3506,161.8276,1,1,right,0.9641,,161.828,161.8284,,1,,161.8287,161.829,,0,,0,161.829,161.829,161.8292,163.326,0,10,10,10,1,0.2,0.8,0.6,0.4,1,0,,,,,,,,,,,,,,,,,,,,,,,,,,,,,,,,,,,,
,,661094be457866d2fd65a77d,66fcbbf2c7b6d4fa066585b1,2024-10-01_22h21.16.515,mdp,2024.2.1,Win32,147.0588235,66fa4ebf79326e780c390304,,,,,,,,,,,,,,,,,,,,,163.3261,163.3261,163.3267,164.3664,0,1,left,0.5303,,164.3669,164.3673,,1,,164.3677,164.368,,1,,0,164.368,164.368,164.3682,165.8649,0,11,11,11,1,0.2,0.8,0.6,0.4,1,0,,,,,,,,,,,,,,,,,,,,,,,,,,,,,,,,,,,,
,,661094be457866d2fd65a77d,66fcbbf2c7b6d4fa066585b1,2024-10-01_22h21.16.515,mdp,2024.2.1,Win32,147.0588235,66fa4ebf79326e780c390304,,,,,,,,,,,,,,,,,,,,,165.8651,165.8651,165.8656,167.2385,1,1,right,0.8599,,167.2389,167.2399,,0,,167.2403,167.2407,,0,,0,167.2407,167.2407,167.2409,168.7369,0,12,12,12,1,0.2,0.8,0.6,0.4,1,0,,,,,,,,,,,,,,,,,,,,,,,,,,,,,,,,,,,,
,,661094be457866d2fd65a77d,66fcbbf2c7b6d4fa066585b1,2024-10-01_22h21.16.515,mdp,2024.2.1,Win32,147.0588235,66fa4ebf79326e780c390304,,,,,,,,,,,,,,,,,,,,,168.7371,168.7371,168.7376,170.1175,1,0,right,0.8681,,170.1181,170.1187,,1,,170.119,170.1193,,1,,1,170.1194,170.1194,170.1196,171.6159,0,13,13,13,1,0.2,0.8,0.6,0.4,1,0,,,,,,,,,,,,,,,,,,,,,,,,,,,,,,,,,,,,
,,661094be457866d2fd65a77d,66fcbbf2c7b6d4fa066585b1,2024-10-01_22h21.16.515,mdp,2024.2.1,Win32,147.0588235,66fa4ebf79326e780c390304,,,,,,,,,,,,,,,,,,,,,171.6161,171.6161,171.6167,172.9896,1,0,right,0.8624,,172.9902,172.9905,,0,,172.9908,172.9911,,1,,1,172.9911,172.9911,172.9912,174.488,0,14,14,14,1,0.2,0.8,0.6,0.4,1,0,,,,,,,,,,,,,,,,,,,,,,,,,,,,,,,,,,,,
,,661094be457866d2fd65a77d,66fcbbf2c7b6d4fa066585b1,2024-10-01_22h21.16.515,mdp,2024.2.1,Win32,147.0588235,66fa4ebf79326e780c390304,,,,,,,,,,,,,,,,,,,,,174.4881,174.4881,174.4885,176.4998,1,1,right,1.4963,,176.5004,176.5011,,1,,176.5015,176.5017,,1,,0,176.5017,176.5017,176.502,177.9983,0,15,15,15,1,0.8,0.2,0.2,0.8,1,0,,,,,,,,,,,,,,,,,,,,,,,,,,,,,,,,,,,,
,,661094be457866d2fd65a77d,66fcbbf2c7b6d4fa066585b1,2024-10-01_22h21.16.515,mdp,2024.2.1,Win32,147.0588235,66fa4ebf79326e780c390304,,,,,,,,,,,,,,,,,,,,,177.9986,177.9986,177.9993,178.9765,0,1,left,0.4656,,178.9769,178.9773,,0,,178.9776,178.9778,,0,,0,178.9778,178.9778,178.9781,180.4748,0,16,16,16,1,0.8,0.2,0.2,0.8,1,0,,,,,,,,,,,,,,,,,,,,,,,,,,,,,,,,,,,,
,,661094be457866d2fd65a77d,66fcbbf2c7b6d4fa066585b1,2024-10-01_22h21.16.515,mdp,2024.2.1,Win32,147.0588235,66fa4ebf79326e780c390304,,,,,,,,,,,,,,,,,,,,,180.475,180.475,180.4755,182.2646,0,0,left,1.2773,,182.2653,182.2658,,0,,182.2662,182.2664,,0,,1,182.2665,182.2665,182.2667,183.7631,0,17,17,17,1,0.8,0.2,0.2,0.8,1,0,,,,,,,,,,,,,,,,,,,,,,,,,,,,,,,,,,,,
,,661094be457866d2fd65a77d,66fcbbf2c7b6d4fa066585b1,2024-10-01_22h21.16.515,mdp,2024.2.1,Win32,147.0588235,66fa4ebf79326e780c390304,,,,,,,,,,,,,,,,,,,,,183.7633,183.7633,183.7637,185.4836,0,0,left,1.2096,,185.4843,185.4847,,0,,185.4851,185.4854,,0,,1,185.4854,185.4854,185.4857,186.982,0,18,18,18,1,0.8,0.2,0.2,0.8,1,0,,,,,,,,,,,,,,,,,,,,,,,,,,,,,,,,,,,,
,,661094be457866d2fd65a77d,66fcbbf2c7b6d4fa066585b1,2024-10-01_22h21.16.515,mdp,2024.2.1,Win32,147.0588235,66fa4ebf79326e780c390304,,,,,,,,,,,,,,,,,,,,,186.9822,186.9822,186.9826,188.8342,0,0,left,1.3424,,188.8348,188.8352,,1,,188.8356,188.8358,,0,,1,188.8359,188.8359,188.8361,190.3329,0,19,19,19,1,0.8,0.2,0.2,0.8,1,0,,,,,,,,,,,,,,,,,,,,,,,,,,,,,,,,,,,,
,,661094be457866d2fd65a77d,66fcbbf2c7b6d4fa066585b1,2024-10-01_22h21.16.515,mdp,2024.2.1,Win32,147.0588235,66fa4ebf79326e780c390304,,,,,,,,,,,,,,,,,,,,,190.3332,190.3332,190.3338,191.5467,0,0,left,0.6987,,191.5473,191.5482,,1,,191.5485,191.5488,,0,,1,191.5489,191.5489,191.5491,193.0451,0,20,20,20,1,0.8,0.2,0.2,0.8,1,0,,,,,,,,,,,,,,,,,,,,,,,,,,,,,,,,,,,,
,,661094be457866d2fd65a77d,66fcbbf2c7b6d4fa066585b1,2024-10-01_22h21.16.515,mdp,2024.2.1,Win32,147.0588235,66fa4ebf79326e780c390304,,,,,,,,,,,,,,,,,,,,,193.0453,193.0453,193.0458,194.5089,0,0,left,0.9517,,194.5094,194.5097,,1,,194.51,194.5102,,0,,1,194.5103,194.5103,194.5105,196.0073,0,21,21,21,1,0.6,0.4,0.4,0.6,1,0,,,,,,,,,,,,,,,,,,,,,,,,,,,,,,,,,,,,
,,661094be457866d2fd65a77d,66fcbbf2c7b6d4fa066585b1,2024-10-01_22h21.16.515,mdp,2024.2.1,Win32,147.0588235,66fa4ebf79326e780c390304,,,,,,,,,,,,,,,,,,,,,196.0075,196.0075,196.008,197.1728,0,0,left,0.6528,,197.1733,197.1737,,1,,197.174,197.1742,,0,,1,197.1743,197.1743,197.1745,198.6713,0,22,22,22,1,0.6,0.4,0.4,0.6,1,0,,,,,,,,,,,,,,,,,,,,,,,,,,,,,,,,,,,,
,,661094be457866d2fd65a77d,66fcbbf2c7b6d4fa066585b1,2024-10-01_22h21.16.515,mdp,2024.2.1,Win32,147.0588235,66fa4ebf79326e780c390304,,,,,,,,,,,,,,,,,,,,,198.6715,198.6715,198.6722,199.5317,0,1,left,0.3448,,199.5322,199.5327,,0,,199.5331,199.5334,,1,,0,199.5334,199.5334,199.5336,201.03,0,23,23,23,1,0.6,0.4,0.4,0.6,1,0,,,,,,,,,,,,,,,,,,,,,,,,,,,,,,,,,,,,
,,661094be457866d2fd65a77d,66fcbbf2c7b6d4fa066585b1,2024-10-01_22h21.16.515,mdp,2024.2.1,Win32,147.0588235,66fa4ebf79326e780c390304,,,,,,,,,,,,,,,,,,,,,201.0305,201.0305,201.031,201.8069,1,1,right,0.2635,,201.8075,201.8079,,0,,201.8082,201.8084,,1,,0,201.8084,201.8084,201.8086,203.3054,0,24,24,24,1,0.6,0.4,0.4,0.6,1,0,,,,,,,,,,,,,,,,,,,,,,,,,,,,,,,,,,,,
,,661094be457866d2fd65a77d,66fcbbf2c7b6d4fa066585b1,2024-10-01_22h21.16.515,mdp,2024.2.1,Win32,147.0588235,66fa4ebf79326e780c390304,,,,,,,,,,,,,,,,,,,,,203.3057,203.3057,203.3061,204.0686,1,0,right,0.2518,,204.069,204.0696,,0,,204.0699,204.0702,,0,,1,204.0702,204.0702,204.0705,205.5669,0,25,25,25,1,0.6,0.4,0.4,0.6,1,0,,,,,,,,,,,,,,,,,,,,,,,,,,,,,,,,,,,,
,,661094be457866d2fd65a77d,66fcbbf2c7b6d4fa066585b1,2024-10-01_22h21.16.515,mdp,2024.2.1,Win32,147.0588235,66fa4ebf79326e780c390304,,,,,,,,,,,,,,,,,,,,,205.5671,205.5671,205.5676,206.4549,1,0,right,0.3732,,206.4555,206.4558,,1,,206.4561,206.4564,,0,,1,206.4564,206.4564,206.4566,207.9534,0,26,26,26,1,0.6,0.4,0.4,0.6,1,0,,,,,,,,,,,,,,,,,,,,,,,,,,,,,,,,,,,,
,,661094be457866d2fd65a77d,66fcbbf2c7b6d4fa066585b1,2024-10-01_22h21.16.515,mdp,2024.2.1,Win32,147.0588235,66fa4ebf79326e780c390304,,,,,,,,,,,,,,,,,,,,,207.9536,207.9536,207.954,208.9385,1,0,right,0.4731,,208.9389,208.9392,,1,,208.9396,208.9398,,0,,1,208.9398,208.9398,208.94,210.4368,0,27,27,27,1,0.8,0.2,0.6,0.4,1,0,,,,,,,,,,,,,,,,,,,,,,,,,,,,,,,,,,,,
,,661094be457866d2fd65a77d,66fcbbf2c7b6d4fa066585b1,2024-10-01_22h21.16.515,mdp,2024.2.1,Win32,147.0588235,66fa4ebf79326e780c390304,,,,,,,,,,,,,,,,,,,,,210.437,210.4371,210.4375,211.2972,1,0,right,0.3455,,211.2977,211.2984,,1,,211.2989,211.2994,,0,,1,211.2994,211.2994,211.2997,212.7956,0,28,28,28,1,0.8,0.2,0.6,0.4,1,0,,,,,,,,,,,,,,,,,,,,,,,,,,,,,,,,,,,,
,,661094be457866d2fd65a77d,66fcbbf2c7b6d4fa066585b1,2024-10-01_22h21.16.515,mdp,2024.2.1,Win32,147.0588235,66fa4ebf79326e780c390304,,,,,,,,,,,,,,,,,,,,,212.7958,212.7958,212.7963,213.6072,1,1,right,0.2995,,213.6077,213.6082,,1,,213.6084,213.6087,,1,,0,213.6087,213.6087,213.6089,215.1057,0,29,29,29,1,0.8,0.2,0.6,0.4,1,0,,,,,,,,,,,,,,,,,,,,,,,,,,,,,,,,,,,,
,,661094be457866d2fd65a77d,66fcbbf2c7b6d4fa066585b1,2024-10-01_22h21.16.515,mdp,2024.2.1,Win32,147.0588235,66fa4ebf79326e780c390304,,,,,,,,,,,,,,,,,,,,,215.1058,215.1058,215.1062,215.9034,0,0,left,0.2858,,215.9039,215.9045,,0,,215.9051,215.9055,,0,,1,215.9055,215.9055,215.9057,217.4019,0,30,30,30,1,0.6,0.4,0.4,0.6,1,0,,,,,,,,,,,,,,,,,,,,,,,,,,,,,,,,,,,,
,,661094be457866d2fd65a77d,66fcbbf2c7b6d4fa066585b1,2024-10-01_22h21.16.515,mdp,2024.2.1,Win32,147.0588235,66fa4ebf79326e780c390304,,,,,,,,,,,,,,,,,,,,,217.4021,217.4021,217.4026,218.1513,0,1,left,0.2365,,218.1518,218.1522,,1,,218.1526,218.1528,,0,,0,218.1528,218.1528,218.1531,219.6496,0,31,31,31,1,0.6,0.4,0.4,0.6,1,0,,,,,,,,,,,,,,,,,,,,,,,,,,,,,,,,,,,,
,,661094be457866d2fd65a77d,66fcbbf2c7b6d4fa066585b1,2024-10-01_22h21.16.515,mdp,2024.2.1,Win32,147.0588235,66fa4ebf79326e780c390304,,,,,,,,,,,,,,,,,,,,,219.6497,219.6497,219.6502,220.4611,1,0,right,0.2992,,220.4618,220.4623,,0,,220.4628,220.4631,,0,,1,220.4631,220.4631,220.4633,221.9597,0,32,32,32,1,0.2,0.8,0.6,0.4,1,0,,,,,,,,,,,,,,,,,,,,,,,,,,,,,,,,,,,,
,,661094be457866d2fd65a77d,66fcbbf2c7b6d4fa066585b1,2024-10-01_22h21.16.515,mdp,2024.2.1,Win32,147.0588235,66fa4ebf79326e780c390304,,,,,,,,,,,,,,,,,,,,,221.9599,221.9599,221.9604,223.0488,1,0,right,0.576,,223.0493,223.0497,,0,,223.0499,223.0503,,0,,1,223.0504,223.0504,223.0505,224.5473,0,33,33,33,1,0.6,0.4,0.8,0.2,1,0,,,,,,,,,,,,,,,,,,,,,,,,,,,,,,,,,,,,
,,661094be457866d2fd65a77d,66fcbbf2c7b6d4fa066585b1,2024-10-01_22h21.16.515,mdp,2024.2.1,Win32,147.0588235,66fa4ebf79326e780c390304,,,,,,,,,,,,,,,,,,,,,224.5476,224.5476,224.548,225.3313,1,0,right,0.2708,,225.3317,225.3321,,0,,225.3324,225.3327,,0,,1,225.3327,225.3327,225.3329,226.8296,0,34,34,34,1,0.6,0.4,0.8,0.2,1,0,,,,,,,,,,,,,,,,,,,,,,,,,,,,,,,,,,,,
,,661094be457866d2fd65a77d,66fcbbf2c7b6d4fa066585b1,2024-10-01_22h21.16.515,mdp,2024.2.1,Win32,147.0588235,66fa4ebf79326e780c390304,,,,,,,,,,,,,,,,,,,,,226.8298,226.8298,226.8304,227.7246,1,0,right,0.3842,,227.7251,227.7255,,0,,227.7258,227.7262,,0,,1,227.7262,227.7262,227.7264,229.223,0,35,35,35,1,0.6,0.4,0.8,0.2,1,0,,,,,,,,,,,,,,,,,,,,,,,,,,,,,,,,,,,,
,,661094be457866d2fd65a77d,66fcbbf2c7b6d4fa066585b1,2024-10-01_22h21.16.515,mdp,2024.2.1,Win32,147.0588235,66fa4ebf79326e780c390304,,,,,,,,,,,,,,,,,,,,,229.2232,229.2232,229.2236,230.0902,1,0,right,0.3536,,230.0908,230.0912,,0,,230.0916,230.0918,,0,,1,230.0918,230.0918,230.092,231.5887,0,36,36,36,1,0.6,0.4,0.8,0.2,1,0,,,,,,,,,,,,,,,,,,,,,,,,,,,,,,,,,,,,
,,661094be457866d2fd65a77d,66fcbbf2c7b6d4fa066585b1,2024-10-01_22h21.16.515,mdp,2024.2.1,Win32,147.0588235,66fa4ebf79326e780c390304,,,,,,,,,,,,,,,,,,,,,231.5889,231.5889,231.5894,232.532,1,0,right,0.4311,,232.5326,232.5329,,0,,232.5331,232.5334,,0,,1,232.5334,232.5334,232.5335,234.0305,0,37,37,37,1,0.4,0.6,0.6,0.4,1,0,,,,,,,,,,,,,,,,,,,,,,,,,,,,,,,,,,,,
,,661094be457866d2fd65a77d,66fcbbf2c7b6d4fa066585b1,2024-10-01_22h21.16.515,mdp,2024.2.1,Win32,147.0588235,66fa4ebf79326e780c390304,,,,,,,,,,,,,,,,,,,,,234.0307,234.0307,234.0311,234.8492,1,0,right,0.3054,,234.8498,234.8501,,1,,234.8505,234.8508,,0,,1,234.8508,234.8508,234.8511,236.3477,0,38,38,38,1,0.4,0.6,0.6,0.4,1,0,,,,,,,,,,,,,,,,,,,,,,,,,,,,,,,,,,,,
,,661094be457866d2fd65a77d,66fcbbf2c7b6d4fa066585b1,2024-10-01_22h21.16.515,mdp,2024.2.1,Win32,147.0588235,66fa4ebf79326e780c390304,,,,,,,,,,,,,,,,,,,,,236.3479,236.3479,236.3483,237.0275,1,0,right,0.1671,,237.028,237.0283,,0,,237.0287,237.0289,,0,,1,237.0289,237.0289,237.0291,238.5259,0,39,39,39,1,0.4,0.6,0.6,0.4,1,0,,,,,,,,,,,,,,,,,,,,,,,,,,,,,,,,,,,,
,,661094be457866d2fd65a77d,66fcbbf2c7b6d4fa066585b1,2024-10-01_22h21.16.515,mdp,2024.2.1,Win32,147.0588235,66fa4ebf79326e780c390304,,,,,,,,,,,,,,,,,,,,,238.526,238.526,238.527,239.3584,1,1,right,0.3205,,239.3589,239.3596,,0,,239.36,239.3602,,1,,0,239.3603,239.3603,239.3605,240.8568,0,40,40,40,1,0.6,0.4,0.2,0.8,1,0,,,,,,,,,,,,,,,,,,,,,,,,,,,,,,,,,,,,
,,661094be457866d2fd65a77d,66fcbbf2c7b6d4fa066585b1,2024-10-01_22h21.16.515,mdp,2024.2.1,Win32,147.0588235,66fa4ebf79326e780c390304,,,,,,,,,,,,,,,,,,,,,240.857,240.857,240.8574,241.6268,0,0,left,0.259,,241.6272,241.6275,,0,,241.6278,241.6281,,0,,1,241.6281,241.6281,241.6282,243.1255,0,41,41,41,1,0.6,0.4,0.2,0.8,1,0,,,,,,,,,,,,,,,,,,,,,,,,,,,,,,,,,,,,
,,661094be457866d2fd65a77d,66fcbbf2c7b6d4fa066585b1,2024-10-01_22h21.16.515,mdp,2024.2.1,Win32,147.0588235,66fa4ebf79326e780c390304,,,,,,,,,,,,,,,,,,,,,243.1257,243.1257,243.1262,243.951,0,1,left,0.3139,,243.9514,243.9519,,0,,243.9523,243.9526,,0,,0,243.9526,243.9526,243.9528,245.4495,0,42,42,42,1,0.6,0.4,0.2,0.8,1,0,,,,,,,,,,,,,,,,,,,,,,,,,,,,,,,,,,,,
,,661094be457866d2fd65a77d,66fcbbf2c7b6d4fa066585b1,2024-10-01_22h21.16.515,mdp,2024.2.1,Win32,147.0588235,66fa4ebf79326e780c390304,,,,,,,,,,,,,,,,,,,,,245.4497,245.4497,245.4501,246.2539,1,1,right,0.2932,,246.2544,246.2547,,0,,246.255,246.2551,,1,,0,246.2552,246.2552,246.2553,247.7524,0,43,43,43,1,0.6,0.4,0.2,0.8,1,0,,,,,,,,,,,,,,,,,,,,,,,,,,,,,,,,,,,,
,,661094be457866d2fd65a77d,66fcbbf2c7b6d4fa066585b1,2024-10-01_22h21.16.515,mdp,2024.2.1,Win32,147.0588235,66fa4ebf79326e780c390304,,,,,,,,,,,,,,,,,,,,,247.7526,247.7526,247.7533,248.5364,1,1,right,0.2719,,248.5369,248.5374,,1,,248.5377,248.5382,,1,,0,248.5382,248.5382,248.5386,250.0349,0,44,44,44,1,0.6,0.4,0.2,0.8,1,0,,,,,,,,,,,,,,,,,,,,,,,,,,,,,,,,,,,,
,,661094be457866d2fd65a77d,66fcbbf2c7b6d4fa066585b1,2024-10-01_22h21.16.515,mdp,2024.2.1,Win32,147.0588235,66fa4ebf79326e780c390304,,,,,,,,,,,,,,,,,,,,,250.035,250.035,250.0356,250.8327,0,1,left,0.2847,,250.8331,250.8334,,1,,250.8337,250.8339,,0,,0,250.8339,250.8339,250.8341,252.331,0,45,45,45,1,0.6,0.4,0.2,0.8,1,0,,,,,,,,,,,,,,,,,,,,,,,,,,,,,,,,,,,,
,,661094be457866d2fd65a77d,66fcbbf2c7b6d4fa066585b1,2024-10-01_22h21.16.515,mdp,2024.2.1,Win32,147.0588235,66fa4ebf79326e780c390304,,,,,,,,,,,,,,,,,,,,,252.3312,252.3312,252.3317,253.1219,0,0,left,0.2778,,253.1225,253.123,,1,,253.1233,253.1236,,1,,1,253.1236,253.1236,253.1238,254.6203,0,46,46,46,1,0.6,0.4,0.2,0.8,1,0,,,,,,,,,,,,,,,,,,,,,,,,,,,,,,,,,,,,
,,661094be457866d2fd65a77d,66fcbbf2c7b6d4fa066585b1,2024-10-01_22h21.16.515,mdp,2024.2.1,Win32,147.0588235,66fa4ebf79326e780c390304,,,,,,,,,,,,,,,,,,,,,254.6205,254.6205,254.621,255.4113,0,0,left,0.2779,,255.4119,255.4122,,1,,255.4124,255.4126,,0,,1,255.4127,255.4127,255.4129,256.9096,0,47,47,47,1,0.6,0.4,0.2,0.8,1,0,,,,,,,,,,,,,,,,,,,,,,,,,,,,,,,,,,,,
,,661094be457866d2fd65a77d,66fcbbf2c7b6d4fa066585b1,2024-10-01_22h21.16.515,mdp,2024.2.1,Win32,147.0588235,66fa4ebf79326e780c390304,,,,,,,,,,,,,,,,,,,,,256.9099,256.9099,256.9103,257.7075,0,0,left,0.2857,,257.7079,257.7087,,0,,257.7092,257.7094,,0,,1,257.7095,257.7095,257.7097,259.2059,0,48,48,48,1,0.6,0.4,0.2,0.8,1,0,,,,,,,,,,,,,,,,,,,,,,,,,,,,,,,,,,,,
,,661094be457866d2fd65a77d,66fcbbf2c7b6d4fa066585b1,2024-10-01_22h21.16.515,mdp,2024.2.1,Win32,147.0588235,66fa4ebf79326e780c390304,,,,,,,,,,,,,,,,,,,,,259.206,259.206,259.2065,259.9484,0,0,left,0.2314,,259.9489,259.9497,,1,,259.9502,259.9506,,0,,1,259.9506,259.9506,259.9508,261.4466,0,49,49,49,1,0.6,0.4,0.2,0.8,1,0,,,,,,,,,,,,,,,,,,,,,,,,,,,,,,,,,,,,
,,661094be457866d2fd65a77d,66fcbbf2c7b6d4fa066585b1,2024-10-01_22h21.16.515,mdp,2024.2.1,Win32,147.0588235,66fa4ebf79326e780c390304,,,,,,,,,,,,,,,,,,,,,,,,,,,,,,,,,,,,,,,,,,,,,,,,,,,,,,,,261.4468,319.9558,0,0,0,0,1,imgs/squirrel.png,imgs/lion.png,imgs/pig.png,imgs/bear.png,imgs/dog.png,,,,,,,,,,,,,,,,,,,,,,,,
,,661094be457866d2fd65a77d,66fcbbf2c7b6d4fa066585b1,2024-10-01_22h21.16.515,mdp,2024.2.1,Win32,147.0588235,66fa4ebf79326e780c390304,,,,,,,,,,,,,,2,seqs/st2seq34.csv,319.9563,322.4115,space,1.9456,,322.4132,322.4132,322.4143,324.1042,0,0,left,1.176,,324.1048,326.2201,1,0,right,326.2207,326.2212,,0,,1,326.2212,326.2212,326.2215,327.7183,0,0,0,0,1,0.6,0.4,0.6,0.4,,,,,,,,,,,,,,,1.6024,,0.6,0.4,0.8,0.2,0.2,0.8,0.2,0.8,1,0,,,,,,,,,,,,
,,661094be457866d2fd65a77d,66fcbbf2c7b6d4fa066585b1,2024-10-01_22h21.16.515,mdp,2024.2.1,Win32,147.0588235,66fa4ebf79326e780c390304,,,,,,,,,,,,,,,,,,,,,327.7186,327.7186,327.719,329.1406,1,0,right,0.9113,,329.1412,330.1952,1,0,right,330.1957,330.196,,0,,1,330.196,330.196,330.1962,331.6934,0,1,1,1,1,0.6,0.4,0.6,0.4,,,,,,,,,,,,,,,0.5412,,0.6,0.4,0.8,0.2,0.2,0.8,0.2,0.8,1,0,,,,,,,,,,,,
,,661094be457866d2fd65a77d,66fcbbf2c7b6d4fa066585b1,2024-10-01_22h21.16.515,mdp,2024.2.1,Win32,147.0588235,66fa4ebf79326e780c390304,,,,,,,,,,,,,,,,,,,,,331.6936,331.6937,331.6942,333.8579,1,0,right,1.6538,,333.8584,334.8915,1,0,right,334.8921,334.8925,,0,,1,334.8925,334.8925,334.8927,336.3901,0,2,2,2,1,0.6,0.4,0.6,0.4,,,,,,,,,,,,,,,0.5209,,0.6,0.4,0.8,0.2,0.2,0.8,0.2,0.8,1,0,,,,,,,,,,,,
,,661094be457866d2fd65a77d,66fcbbf2c7b6d4fa066585b1,2024-10-01_22h21.16.515,mdp,2024.2.1,Win32,147.0588235,66fa4ebf79326e780c390304,,,,,,,,,,,,,,,,,,,,,336.3903,336.3904,336.3907,337.1601,1,0,right,0.2583,,337.1606,337.944,1,0,right,337.9444,337.9447,,0,,1,337.9447,337.9447,337.9451,339.4425,0,3,3,3,1,0.6,0.4,0.6,0.4,,,,,,,,,,,,,,,0.2728,,0.6,0.4,0.8,0.2,0.2,0.8,0.2,0.8,1,0,,,,,,,,,,,,
,,661094be457866d2fd65a77d,66fcbbf2c7b6d4fa066585b1,2024-10-01_22h21.16.515,mdp,2024.2.1,Win32,147.0588235,66fa4ebf79326e780c390304,,,,,,,,,,,,,,,,,,,,,339.4426,339.4426,339.443,340.2336,1,1,right,0.2775,,340.2342,340.9824,1,1,right,340.9829,340.9833,,1,,0,340.9833,340.9833,340.9836,342.481,0,4,4,4,1,0.6,0.4,0.6,0.4,,,,,,,,,,,,,,,0.2367,,0.6,0.4,0.8,0.2,0.2,0.8,0.2,0.8,1,0,,,,,,,,,,,,
,,661094be457866d2fd65a77d,66fcbbf2c7b6d4fa066585b1,2024-10-01_22h21.16.515,mdp,2024.2.1,Win32,147.0588235,66fa4ebf79326e780c390304,,,,,,,,,,,,,,,,,,,,,342.4812,342.4812,342.4817,343.2926,0,0,left,0.2986,,343.2931,344.1113,0,0,left,344.112,344.1125,,0,,1,344.1126,344.1126,344.1129,345.6098,0,5,5,5,1,0.6,0.4,0.6,0.4,,,,,,,,,,,,,,,0.3049,,0.6,0.4,0.8,0.2,0.2,0.8,0.2,0.8,1,0,,,,,,,,,,,,
,,661094be457866d2fd65a77d,66fcbbf2c7b6d4fa066585b1,2024-10-01_22h21.16.515,mdp,2024.2.1,Win32,147.0588235,66fa4ebf79326e780c390304,,,,,,,,,,,,,,,,,,,,,345.61,345.61,345.6105,346.8722,0,0,left,0.7499,,346.8728,347.6353,0,1,left,347.6358,347.6363,,0,,0,347.6363,347.6363,347.6366,349.1339,0,6,6,6,1,0.6,0.4,0.6,0.4,,,,,,,,,,,,,,,0.2498,,0.6,0.4,0.8,0.2,0.2,0.8,0.2,0.8,1,0,,,,,,,,,,,,
,,661094be457866d2fd65a77d,66fcbbf2c7b6d4fa066585b1,2024-10-01_22h21.16.515,mdp,2024.2.1,Win32,147.0588235,66fa4ebf79326e780c390304,,,,,,,,,,,,,,,,,,,,,349.1342,349.1342,349.1346,349.9246,1,1,right,0.278,,349.925,350.66,1,1,right,350.6605,350.661,,1,,0,350.661,350.661,350.6614,352.1585,0,7,7,7,1,0.6,0.4,0.6,0.4,,,,,,,,,,,,,,,0.2211,,0.6,0.4,0.8,0.2,0.2,0.8,0.2,0.8,1,0,,,,,,,,,,,,
,,661094be457866d2fd65a77d,66fcbbf2c7b6d4fa066585b1,2024-10-01_22h21.16.515,mdp,2024.2.1,Win32,147.0588235,66fa4ebf79326e780c390304,,,,,,,,,,,,,,,,,,,,,352.1588,352.1588,352.1592,353.0602,0,0,left,0.3892,,353.0607,353.9066,0,1,left,353.9072,353.9075,,0,,0,353.9076,353.9076,353.9079,355.4052,0,8,8,8,1,0.6,0.4,0.6,0.4,,,,,,,,,,,,,,,0.334,,0.6,0.4,0.8,0.2,0.2,0.8,0.2,0.8,1,0,,,,,,,,,,,,
,,661094be457866d2fd65a77d,66fcbbf2c7b6d4fa066585b1,2024-10-01_22h21.16.515,mdp,2024.2.1,Win32,147.0588235,66fa4ebf79326e780c390304,,,,,,,,,,,,,,,,,,,,,355.4054,355.4054,355.4058,356.8135,0,0,left,0.8972,,356.8139,357.625,0,1,left,357.6254,357.6258,,1,,0,357.6259,357.6259,357.6264,359.1234,0,9,9,9,1,0.6,0.4,0.6,0.4,,,,,,,,,,,,,,,0.2986,,0.6,0.4,0.8,0.2,0.2,0.8,0.2,0.8,1,0,,,,,,,,,,,,
,,661094be457866d2fd65a77d,66fcbbf2c7b6d4fa066585b1,2024-10-01_22h21.16.515,mdp,2024.2.1,Win32,147.0588235,66fa4ebf79326e780c390304,,,,,,,,,,,,,,,,,,,,,359.1237,359.1237,359.1242,359.9975,1,0,right,0.3588,,359.998,360.7954,1,0,right,360.7958,360.7962,,1,,1,360.7964,360.7964,360.7967,362.2937,0,10,10,10,1,0.6,0.4,0.6,0.4,,,,,,,,,,,,,,,0.2858,,0.8,0.2,0.2,0.8,0.2,0.8,0.2,0.8,1,0,,,,,,,,,,,,
,,661094be457866d2fd65a77d,66fcbbf2c7b6d4fa066585b1,2024-10-01_22h21.16.515,mdp,2024.2.1,Win32,147.0588235,66fa4ebf79326e780c390304,,,,,,,,,,,,,,,,,,,,,362.2939,362.2939,362.2944,363.3554,1,1,right,0.5483,,363.3559,364.0906,1,1,right,364.0911,364.0915,,1,,0,364.0916,364.0916,364.0919,365.589,0,11,11,11,1,0.6,0.4,0.6,0.4,,,,,,,,,,,,,,,0.2208,,0.8,0.2,0.2,0.8,0.2,0.8,0.2,0.8,1,0,,,,,,,,,,,,
,,661094be457866d2fd65a77d,66fcbbf2c7b6d4fa066585b1,2024-10-01_22h21.16.515,mdp,2024.2.1,Win32,147.0588235,66fa4ebf79326e780c390304,,,,,,,,,,,,,,,,,,,,,365.5891,365.5891,365.5896,366.9695,1,1,right,0.8672,,366.9701,368.0378,0,1,left,368.0383,368.0388,,1,,0,368.0389,368.0389,368.0394,369.5362,0,12,12,12,1,0.8,0.2,0.2,0.8,,,,,,,,,,,,,,,0.557,,0.8,0.2,0.2,0.8,0.2,0.8,0.2,0.8,1,0,,,,,,,,,,,,
,,661094be457866d2fd65a77d,66fcbbf2c7b6d4fa066585b1,2024-10-01_22h21.16.515,mdp,2024.2.1,Win32,147.0588235,66fa4ebf79326e780c390304,,,,,,,,,,,,,,,,,,,,,369.5365,369.5365,369.537,370.7155,1,1,right,0.6666,,370.7161,371.9713,1,0,right,371.9719,371.9724,,1,,1,371.9724,371.9724,371.9728,373.4698,0,13,13,13,1,0.8,0.2,0.2,0.8,,,,,,,,,,,,,,,0.7412,,0.8,0.2,0.2,0.8,0.2,0.8,0.2,0.8,1,0,,,,,,,,,,,,
,,661094be457866d2fd65a77d,66fcbbf2c7b6d4fa066585b1,2024-10-01_22h21.16.515,mdp,2024.2.1,Win32,147.0588235,66fa4ebf79326e780c390304,,,,,,,,,,,,,,,,,,,,,373.4701,373.4701,373.4704,374.3578,1,1,right,0.3753,,374.3583,375.3011,1,1,right,375.3017,375.302,,1,,0,375.302,375.302,375.3022,376.7997,0,14,14,14,1,0.8,0.2,0.2,0.8,,,,,,,,,,,,,,,0.4303,,0.8,0.2,0.2,0.8,0.2,0.8,0.2,0.8,1,0,,,,,,,,,,,,
,,661094be457866d2fd65a77d,66fcbbf2c7b6d4fa066585b1,2024-10-01_22h21.16.515,mdp,2024.2.1,Win32,147.0588235,66fa4ebf79326e780c390304,,,,,,,,,,,,,,,,,,,,,376.7998,376.7999,376.8003,377.6737,1,1,right,0.361,,377.6743,378.7906,1,1,right,378.7911,378.7914,,1,,0,378.7914,378.7914,378.7918,380.289,0,15,15,15,1,0.8,0.2,0.2,0.8,,,,,,,,,,,,,,,0.6041,,0.4,0.6,0.8,0.2,0.2,0.8,0.2,0.8,1,0,,,,,,,,,,,,
,,661094be457866d2fd65a77d,66fcbbf2c7b6d4fa066585b1,2024-10-01_22h21.16.515,mdp,2024.2.1,Win32,147.0588235,66fa4ebf79326e780c390304,,,,,,,,,,,,,,,,,,,,,380.2892,380.2892,380.2897,381.288,0,0,left,0.49,,381.2884,382.4673,1,0,right,382.4679,382.4681,,1,,1,382.4681,382.4681,382.4684,383.9658,0,16,16,16,1,0.8,0.2,0.2,0.8,,,,,,,,,,,,,,,0.6643,,0.4,0.6,0.8,0.2,0.2,0.8,0.2,0.8,1,0,,,,,,,,,,,,
,,661094be457866d2fd65a77d,66fcbbf2c7b6d4fa066585b1,2024-10-01_22h21.16.515,mdp,2024.2.1,Win32,147.0588235,66fa4ebf79326e780c390304,,,,,,,,,,,,,,,,,,,,,383.966,383.966,383.9665,384.8885,0,0,left,0.4099,,384.8889,385.7279,1,0,right,385.7283,385.7286,,0,,1,385.7287,385.7287,385.7289,387.2263,0,17,17,17,1,0.8,0.2,0.2,0.8,,,,,,,,,,,,,,,0.3279,,0.4,0.6,0.8,0.2,0.2,0.8,0.2,0.8,1,0,,,,,,,,,,,,
,,661094be457866d2fd65a77d,66fcbbf2c7b6d4fa066585b1,2024-10-01_22h21.16.515,mdp,2024.2.1,Win32,147.0588235,66fa4ebf79326e780c390304,,,,,,,,,,,,,,,,,,,,,387.2265,387.2265,387.227,388.1073,0,0,left,0.3685,,388.1078,389.1757,1,1,right,389.1761,389.1765,,0,,0,389.1765,389.1765,389.1768,390.6741,0,18,18,18,1,0.8,0.2,0.2,0.8,,,,,,,,,,,,,,,0.5576,,0.4,0.6,0.8,0.2,0.2,0.8,0.2,0.8,1,0,,,,,,,,,,,,
,,661094be457866d2fd65a77d,66fcbbf2c7b6d4fa066585b1,2024-10-01_22h21.16.515,mdp,2024.2.1,Win32,147.0588235,66fa4ebf79326e780c390304,,,,,,,,,,,,,,,,,,,,,390.6744,390.6744,390.675,391.7356,0,0,left,0.5481,,391.7361,392.9843,0,1,left,392.9849,392.9854,,1,,0,392.9854,392.9855,392.9858,394.4827,0,19,19,19,1,0.8,0.2,0.2,0.8,,,,,,,,,,,,,,,0.7367,,0.4,0.6,0.8,0.2,0.2,0.8,0.2,0.8,1,0,,,,,,,,,,,,
,,661094be457866d2fd65a77d,66fcbbf2c7b6d4fa066585b1,2024-10-01_22h21.16.515,mdp,2024.2.1,Win32,147.0588235,66fa4ebf79326e780c390304,,,,,,,,,,,,,,,,,,,,,394.4829,394.4829,394.4834,395.4192,1,1,right,0.4233,,395.4199,397.1049,0,1,left,397.1054,397.1057,,1,,0,397.1057,397.1057,397.106,398.6034,0,20,20,20,1,0.8,0.2,0.2,0.8,,,,,,,,,,,,,,,1.1745,,0.4,0.6,0.8,0.2,0.2,0.8,0.2,0.8,1,0,,,,,,,,,,,,
,,661094be457866d2fd65a77d,66fcbbf2c7b6d4fa066585b1,2024-10-01_22h21.16.515,mdp,2024.2.1,Win32,147.0588235,66fa4ebf79326e780c390304,,,,,,,,,,,,,,,,,,,,,398.6036,398.6036,398.604,399.4913,1,1,right,0.3761,,399.4919,400.3725,1,1,right,400.373,400.3735,,1,,0,400.3735,400.3735,400.3739,401.8708,0,21,21,21,1,0.8,0.2,0.2,0.8,,,,,,,,,,,,,,,0.372,,0.4,0.6,0.8,0.2,0.2,0.8,0.2,0.8,1,0,,,,,,,,,,,,
,,661094be457866d2fd65a77d,66fcbbf2c7b6d4fa066585b1,2024-10-01_22h21.16.515,mdp,2024.2.1,Win32,147.0588235,66fa4ebf79326e780c390304,,,,,,,,,,,,,,,,,,,,,401.871,401.871,401.8715,402.7379,0,1,left,0.3535,,402.7386,404.1117,1,0,right,404.1122,404.1127,,1,,1,404.1127,404.1127,404.1131,405.6102,0,22,22,22,1,0.8,0.2,0.2,0.8,,,,,,,,,,,,,,,0.8586,,0.4,0.6,0.8,0.2,0.2,0.8,0.2,0.8,1,0,,,,,,,,,,,,
,,661094be457866d2fd65a77d,66fcbbf2c7b6d4fa066585b1,2024-10-01_22h21.16.515,mdp,2024.2.1,Win32,147.0588235,66fa4ebf79326e780c390304,,,,,,,,,,,,,,,,,,,,,405.6104,405.6104,405.6108,406.4218,0,1,left,0.2984,,406.4222,407.5594,1,1,right,407.56,407.5603,,1,,0,407.5603,407.5603,407.5605,409.0579,0,23,23,23,1,0.8,0.2,0.2,0.8,,,,,,,,,,,,,,,0.6243,,0.4,0.6,0.8,0.2,0.2,0.8,0.2,0.8,1,0,,,,,,,,,,,,
,,661094be457866d2fd65a77d,66fcbbf2c7b6d4fa066585b1,2024-10-01_22h21.16.515,mdp,2024.2.1,Win32,147.0588235,66fa4ebf79326e780c390304,,,,,,,,,,,,,,,,,,,,,409.0581,409.0581,409.0586,409.8695,0,0,left,0.2997,,409.8699,411.2224,1,1,right,411.2228,411.2231,,0,,0,411.2231,411.2232,411.2233,412.7208,0,24,24,24,1,0.8,0.2,0.2,0.8,,,,,,,,,,,,,,,0.8377,,0.4,0.6,0.8,0.2,0.2,0.8,0.2,0.8,1,0,,,,,,,,,,,,
,,661094be457866d2fd65a77d,66fcbbf2c7b6d4fa066585b1,2024-10-01_22h21.16.515,mdp,2024.2.1,Win32,147.0588235,66fa4ebf79326e780c390304,,,,,,,,,,,,,,,,,,,,,412.721,412.721,412.7214,413.5255,0,1,left,0.2917,,413.5261,414.5662,0,1,left,414.5667,414.5671,,0,,0,414.5671,414.5671,414.5673,416.0646,0,25,25,25,1,0.8,0.2,0.2,0.8,,,,,,,,,,,,,,,0.5278,,0.4,0.6,0.8,0.2,0.2,0.8,0.2,0.8,1,0,,,,,,,,,,,,
,,661094be457866d2fd65a77d,66fcbbf2c7b6d4fa066585b1,2024-10-01_22h21.16.515,mdp,2024.2.1,Win32,147.0588235,66fa4ebf79326e780c390304,,,,,,,,,,,,,,,,,,,,,416.0648,416.0648,416.0652,416.9735,0,0,left,0.3965,,416.974,418.1249,1,0,right,418.1254,418.1258,,0,,1,418.1258,418.1258,418.126,419.6234,0,26,26,26,1,0.8,0.2,0.2,0.8,,,,,,,,,,,,,,,0.6389,,0.4,0.6,0.8,0.2,0.2,0.8,0.2,0.8,1,0,,,,,,,,,,,,
,,661094be457866d2fd65a77d,66fcbbf2c7b6d4fa066585b1,2024-10-01_22h21.16.515,mdp,2024.2.1,Win32,147.0588235,66fa4ebf79326e780c390304,,,,,,,,,,,,,,,,,,,,,419.6236,419.6236,419.624,420.442,0,0,left,0.3056,,420.4425,421.5103,1,0,right,421.5108,421.511,,0,,1,421.5111,421.5111,421.5114,423.0088,0,27,27,27,1,0.8,0.2,0.2,0.8,,,,,,,,,,,,,,,0.5574,,0.4,0.6,0.8,0.2,0.6,0.4,0.8,0.2,1,0,,,,,,,,,,,,
,,661094be457866d2fd65a77d,66fcbbf2c7b6d4fa066585b1,2024-10-01_22h21.16.515,mdp,2024.2.1,Win32,147.0588235,66fa4ebf79326e780c390304,,,,,,,,,,,,,,,,,,,,,423.009,423.009,423.0094,423.8552,0,0,left,0.3314,,423.8557,424.7155,1,0,right,424.716,424.7166,,0,,1,424.7166,424.7166,424.717,426.2138,0,28,28,28,1,0.8,0.2,0.2,0.8,,,,,,,,,,,,,,,0.3471,,0.4,0.6,0.8,0.2,0.6,0.4,0.8,0.2,1,0,,,,,,,,,,,,
,,661094be457866d2fd65a77d,66fcbbf2c7b6d4fa066585b1,2024-10-01_22h21.16.515,mdp,2024.2.1,Win32,147.0588235,66fa4ebf79326e780c390304,,,,,,,,,,,,,,,,,,,,,426.214,426.214,426.2144,427.0115,0,1,left,0.287,,427.012,427.8857,1,0,right,427.8861,427.8867,,0,,1,427.8868,427.8868,427.8873,429.3841,0,29,29,29,1,0.8,0.2,0.2,0.8,,,,,,,,,,,,,,,0.3583,,0.8,0.2,0.2,0.8,0.6,0.4,0.8,0.2,1,0,,,,,,,,,,,,
,,661094be457866d2fd65a77d,66fcbbf2c7b6d4fa066585b1,2024-10-01_22h21.16.515,mdp,2024.2.1,Win32,147.0588235,66fa4ebf79326e780c390304,,,,,,,,,,,,,,,,,,,,,429.3843,429.3843,429.3847,430.1611,0,0,left,0.2644,,430.1617,431.0145,1,1,right,431.015,431.0155,,0,,0,431.0156,431.0156,431.0161,432.5127,0,30,30,30,1,0.8,0.2,0.2,0.8,,,,,,,,,,,,,,,0.3385,,0.8,0.2,0.2,0.8,0.6,0.4,0.8,0.2,1,0,,,,,,,,,,,,
,,661094be457866d2fd65a77d,66fcbbf2c7b6d4fa066585b1,2024-10-01_22h21.16.515,mdp,2024.2.1,Win32,147.0588235,66fa4ebf79326e780c390304,,,,,,,,,,,,,,,,,,,,,432.513,432.513,432.5134,433.8796,0,0,left,0.8555,,433.88,435.1768,0,0,left,435.1774,435.1779,,0,,1,435.1779,435.1779,435.1782,436.6752,0,31,31,31,1,0.8,0.2,0.2,0.8,,,,,,,,,,,,,,,0.7862,,0.8,0.2,0.2,0.8,0.6,0.4,0.8,0.2,1,0,,,,,,,,,,,,
,,661094be457866d2fd65a77d,66fcbbf2c7b6d4fa066585b1,2024-10-01_22h21.16.515,mdp,2024.2.1,Win32,147.0588235,66fa4ebf79326e780c390304,,,,,,,,,,,,,,,,,,,,,436.6754,436.6754,436.6759,437.4175,0,0,left,0.2292,,437.418,438.2362,0,1,left,438.2366,438.2369,,0,,0,438.2369,438.2369,438.2372,439.7346,0,32,32,32,1,0.8,0.2,0.2,0.8,,,,,,,,,,,,,,,0.3059,,0.6,0.4,0.8,0.2,0.6,0.4,0.8,0.2,1,0,,,,,,,,,,,,
,,661094be457866d2fd65a77d,66fcbbf2c7b6d4fa066585b1,2024-10-01_22h21.16.515,mdp,2024.2.1,Win32,147.0588235,66fa4ebf79326e780c390304,,,,,,,,,,,,,,,,,,,,,439.7349,439.7349,439.7355,440.6225,0,0,left,0.3749,,440.6231,441.4553,1,0,right,441.4558,441.4561,,0,,1,441.4561,441.4561,441.4564,442.9534,0,33,33,33,1,0.8,0.2,0.2,0.8,,,,,,,,,,,,,,,0.3213,,0.6,0.4,0.8,0.2,0.6,0.4,0.8,0.2,1,0,,,,,,,,,,,,
,,661094be457866d2fd65a77d,66fcbbf2c7b6d4fa066585b1,2024-10-01_22h21.16.515,mdp,2024.2.1,Win32,147.0588235,66fa4ebf79326e780c390304,,,,,,,,,,,,,,,,,,,,,442.9537,442.9537,442.9542,443.7304,0,1,left,0.2637,,443.731,445.0069,0,1,left,445.0075,445.0078,,0,,0,445.0078,445.0079,445.0082,446.5053,0,34,34,34,1,0.8,0.2,0.2,0.8,,,,,,,,,,,,,,,0.764,,0.6,0.4,0.8,0.2,0.6,0.4,0.8,0.2,1,0,,,,,,,,,,,,
,,661094be457866d2fd65a77d,66fcbbf2c7b6d4fa066585b1,2024-10-01_22h21.16.515,mdp,2024.2.1,Win32,147.0588235,66fa4ebf79326e780c390304,,,,,,,,,,,,,,,,,,,,,446.5056,446.5056,446.506,447.3448,0,0,left,0.3271,,447.3453,448.42,1,0,right,448.4205,448.4208,,0,,1,448.4209,448.4209,448.4213,449.9184,0,35,35,35,1,0.8,0.2,0.2,0.8,,,,,,,,,,,,,,,0.5649,,0.6,0.4,0.8,0.2,0.6,0.4,0.8,0.2,1,0,,,,,,,,,,,,
,,661094be457866d2fd65a77d,66fcbbf2c7b6d4fa066585b1,2024-10-01_22h21.16.515,mdp,2024.2.1,Win32,147.0588235,66fa4ebf79326e780c390304,,,,,,,,,,,,,,,,,,,,,449.9186,449.9187,449.919,450.7231,0,1,left,0.2919,,450.7235,451.6321,1,0,right,451.6327,451.633,,1,,1,451.6331,451.6331,451.6333,453.1303,0,36,36,36,1,0.8,0.2,0.2,0.8,,,,,,,,,,,,,,,0.3948,,0.6,0.4,0.8,0.2,0.8,0.2,0.4,0.6,1,0,,,,,,,,,,,,
,,661094be457866d2fd65a77d,66fcbbf2c7b6d4fa066585b1,2024-10-01_22h21.16.515,mdp,2024.2.1,Win32,147.0588235,66fa4ebf79326e780c390304,,,,,,,,,,,,,,,,,,,,,453.1306,453.1306,453.131,453.9142,0,1,left,0.2726,,453.9147,454.7607,1,1,right,454.7611,454.7615,,1,,0,454.7615,454.7615,454.7617,456.259,0,37,37,37,1,0.8,0.2,0.2,0.8,,,,,,,,,,,,,,,0.3355,,0.6,0.4,0.8,0.2,0.8,0.2,0.4,0.6,1,0,,,,,,,,,,,,
,,661094be457866d2fd65a77d,66fcbbf2c7b6d4fa066585b1,2024-10-01_22h21.16.515,mdp,2024.2.1,Win32,147.0588235,66fa4ebf79326e780c390304,,,,,,,,,,,,,,,,,,,,,456.2593,456.2593,456.2597,457.376,0,0,left,0.6077,,457.3765,458.597,1,0,right,458.5974,458.5978,,0,,1,458.5978,458.5978,458.5981,460.0955,0,38,38,38,1,0.8,0.2,0.2,0.8,,,,,,,,,,,,,,,0.7062,,0.2,0.8,0.6,0.4,0.8,0.2,0.4,0.6,1,0,,,,,,,,,,,,
,,661094be457866d2fd65a77d,66fcbbf2c7b6d4fa066585b1,2024-10-01_22h21.16.515,mdp,2024.2.1,Win32,147.0588235,66fa4ebf79326e780c390304,,,,,,,,,,,,,,,,,,,,,460.0957,460.0957,460.0962,461.1291,0,0,left,0.5228,,461.1296,462.4265,1,1,right,462.427,462.4272,,0,,0,462.4273,462.4273,462.4275,463.9248,0,39,39,39,1,0.8,0.2,0.2,0.8,,,,,,,,,,,,,,,0.7838,,0.2,0.8,0.6,0.4,0.8,0.2,0.4,0.6,1,0,,,,,,,,,,,,
,,661094be457866d2fd65a77d,66fcbbf2c7b6d4fa066585b1,2024-10-01_22h21.16.515,mdp,2024.2.1,Win32,147.0588235,66fa4ebf79326e780c390304,,,,,,,,,,,,,,,,,,,,,463.925,463.925,463.9254,465.0485,0,0,left,0.6113,,465.0491,466.6026,0,1,left,466.6031,466.6036,,1,,0,466.6036,466.6036,466.6039,468.1011,0,40,40,40,1,0.8,0.2,0.2,0.8,,,,,,,,,,,,,,,1.0404,,0.2,0.8,0.6,0.4,0.8,0.2,0.4,0.6,1,0,,,,,,,,,,,,
,,661094be457866d2fd65a77d,66fcbbf2c7b6d4fa066585b1,2024-10-01_22h21.16.515,mdp,2024.2.1,Win32,147.0588235,66fa4ebf79326e780c390304,,,,,,,,,,,,,,,,,,,,,468.1013,468.1013,468.1018,468.9959,1,1,right,0.3823,,468.9965,470.0989,1,1,right,470.0995,470.0999,,1,,0,470.0999,470.0999,470.1001,471.5975,0,41,41,41,1,0.8,0.2,0.2,0.8,,,,,,,,,,,,,,,0.5881,,0.2,0.8,0.6,0.4,0.8,0.2,0.4,0.6,1,0,,,,,,,,,,,,
,,661094be457866d2fd65a77d,66fcbbf2c7b6d4fa066585b1,2024-10-01_22h21.16.515,mdp,2024.2.1,Win32,147.0588235,66fa4ebf79326e780c390304,,,,,,,,,,,,,,,,,,,,,471.5977,471.5977,471.5981,472.4299,1,1,right,0.3231,,472.4303,473.5468,0,0,left,473.5473,473.5477,,0,,1,473.5477,473.5477,473.548,475.0454,0,42,42,42,1,0.8,0.2,0.2,0.8,,,,,,,,,,,,,,,0.6055,,0.2,0.8,0.6,0.4,0.8,0.2,0.4,0.6,1,0,,,,,,,,,,,,
,,661094be457866d2fd65a77d,66fcbbf2c7b6d4fa066585b1,2024-10-01_22h21.16.515,mdp,2024.2.1,Win32,147.0588235,66fa4ebf79326e780c390304,,,,,,,,,,,,,,,,,,,,,475.0455,475.0455,475.046,475.9471,1,1,right,0.3875,,475.9476,477.1126,0,0,left,477.1131,477.1135,,0,,1,477.1135,477.1135,477.1138,478.6111,0,43,43,43,1,0.8,0.2,0.2,0.8,,,,,,,,,,,,,,,0.6537,,0.2,0.8,0.6,0.4,0.8,0.2,0.4,0.6,1,0,,,,,,,,,,,,
,,661094be457866d2fd65a77d,66fcbbf2c7b6d4fa066585b1,2024-10-01_22h21.16.515,mdp,2024.2.1,Win32,147.0588235,66fa4ebf79326e780c390304,,,,,,,,,,,,,,,,,,,,,478.6112,478.6112,478.6119,479.5683,1,1,right,0.4444,,479.5688,480.6437,0,1,left,480.6441,480.6445,,0,,0,480.6446,480.6446,480.6451,482.1421,0,44,44,44,1,0.8,0.2,0.2,0.8,,,,,,,,,,,,,,,0.5641,,0.2,0.8,0.6,0.4,0.8,0.2,0.4,0.6,1,0,,,,,,,,,,,,
,,661094be457866d2fd65a77d,66fcbbf2c7b6d4fa066585b1,2024-10-01_22h21.16.515,mdp,2024.2.1,Win32,147.0588235,66fa4ebf79326e780c390304,,,,,,,,,,,,,,,,,,,,,482.1423,482.1423,482.1428,483.0161,1,1,right,0.3616,,483.0166,484.0429,1,1,right,484.0434,484.0443,,0,,0,484.0443,484.0444,484.0448,485.5414,0,45,45,45,1,0.8,0.2,0.2,0.8,,,,,,,,,,,,,,,0.5127,,0.2,0.8,0.6,0.4,0.8,0.2,0.4,0.6,1,0,,,,,,,,,,,,
,,661094be457866d2fd65a77d,66fcbbf2c7b6d4fa066585b1,2024-10-01_22h21.16.515,mdp,2024.2.1,Win32,147.0588235,66fa4ebf79326e780c390304,,,,,,,,,,,,,,,,,,,,,485.5416,485.5416,485.542,486.2697,0,1,left,0.2156,,486.2702,487.8723,1,1,right,487.8727,487.8731,,1,,0,487.8731,487.8731,487.8735,489.3707,0,46,46,46,1,0.8,0.2,0.2,0.8,,,,,,,,,,,,,,,1.0893,,0.2,0.8,0.6,0.4,0.8,0.2,0.4,0.6,1,0,,,,,,,,,,,,
,,661094be457866d2fd65a77d,66fcbbf2c7b6d4fa066585b1,2024-10-01_22h21.16.515,mdp,2024.2.1,Win32,147.0588235,66fa4ebf79326e780c390304,,,,,,,,,,,,,,,,,,,,,489.371,489.371,489.3718,490.3419,0,0,left,0.4606,,490.3424,491.4656,1,1,right,491.4661,491.4664,,0,,0,491.4665,491.4665,491.4667,492.9642,0,47,47,47,1,0.8,0.2,0.2,0.8,,,,,,,,,,,,,,,0.6097,,0.2,0.8,0.6,0.4,0.8,0.2,0.4,0.6,1,0,,,,,,,,,,,,
,,661094be457866d2fd65a77d,66fcbbf2c7b6d4fa066585b1,2024-10-01_22h21.16.515,mdp,2024.2.1,Win32,147.0588235,66fa4ebf79326e780c390304,,,,,,,,,,,,,,,,,,,,,492.9645,492.9645,492.965,493.6648,0,1,left,0.1875,,493.6655,494.435,0,0,left,494.4354,494.4358,,1,,1,494.4358,494.4358,494.4361,495.9333,0,48,48,48,1,0.8,0.2,0.2,0.8,,,,,,,,,,,,,,,0.2556,,0.2,0.8,0.6,0.4,0.8,0.2,0.4,0.6,1,0,,,,,,,,,,,,
,,661094be457866d2fd65a77d,66fcbbf2c7b6d4fa066585b1,2024-10-01_22h21.16.515,mdp,2024.2.1,Win32,147.0588235,66fa4ebf79326e780c390304,,,,,,,,,,,,,,,,,,,,,495.9336,495.9336,495.9342,496.6897,0,0,left,0.2434,,496.6901,497.9244,0,1,left,497.9249,497.9252,,1,,0,497.9253,497.9253,497.9255,499.4227,0,49,49,49,1,0.8,0.2,0.2,0.8,,,,,,,,,,,,,,,0.7213,,0.2,0.8,0.6,0.4,0.6,0.4,0.8,0.2,1,0,,,,,,,,,,,,
,,661094be457866d2fd65a77d,66fcbbf2c7b6d4fa066585b1,2024-10-01_22h21.16.515,mdp,2024.2.1,Win32,147.0588235,66fa4ebf79326e780c390304,,,,,,,,,,,,,,,,,,,,,,,,,,,,,,,,,,,,,,,,,,,,,,,,,,,,,,,,499.4229,557.9317,0,1,1,7,1,imgs/rabbit.png,imgs/elephant.png,imgs/kangaroo.png,imgs/horse.png,imgs/goat.png,,,,,,,,,,,,,,,,,,,,,,,,
,,661094be457866d2fd65a77d,66fcbbf2c7b6d4fa066585b1,2024-10-01_22h21.16.515,mdp,2024.2.1,Win32,147.0588235,66fa4ebf79326e780c390304,,,,,,,,,,,,,,3,seqs/st3seq28.csv,557.9323,559.7216,space,1.2786,,559.7251,559.7251,559.7256,560.9981,0,0,left,0.7603,,560.9986,561.9068,0,1,left,561.9074,563.0168,0,1,left,0,563.0168,563.0168,563.0173,564.5153,0,0,0,0,1,0.4,0.6,0.4,0.6,,,,,,,,,,,,,,,0.3946,,0.4,0.6,0.6,0.4,0.8,0.2,0.2,0.8,,,0.5947,,0.4,0.6,0.4,0.6,0.4,0.6,0.8,0.2,1,0
,,661094be457866d2fd65a77d,66fcbbf2c7b6d4fa066585b1,2024-10-01_22h21.16.515,mdp,2024.2.1,Win32,147.0588235,66fa4ebf79326e780c390304,,,,,,,,,,,,,,,,,,,,,564.5155,564.5155,564.5159,565.3132,0,1,left,0.2852,,565.3136,566.1801,1,1,right,566.1807,567.0473,1,0,right,1,567.0474,567.0474,567.0479,568.5457,0,1,1,1,1,0.4,0.6,0.4,0.6,,,,,,,,,,,,,,,0.3519,,0.4,0.6,0.6,0.4,0.8,0.2,0.2,0.8,,,0.3539,,0.4,0.6,0.4,0.6,0.4,0.6,0.8,0.2,1,0
,,661094be457866d2fd65a77d,66fcbbf2c7b6d4fa066585b1,2024-10-01_22h21.16.515,mdp,2024.2.1,Win32,147.0588235,66fa4ebf79326e780c390304,,,,,,,,,,,,,,,,,,,,,568.546,568.546,568.5464,569.3505,0,1,left,0.293,,569.351,570.2454,1,1,right,570.2459,571.0433,1,0,right,1,571.0433,571.0434,571.0437,572.5416,0,2,2,2,1,0.4,0.6,0.4,0.6,,,,,,,,,,,,,,,0.3833,,0.4,0.6,0.6,0.4,0.8,0.2,0.2,0.8,,,0.2859,,0.4,0.6,0.4,0.6,0.4,0.6,0.8,0.2,1,0
,,661094be457866d2fd65a77d,66fcbbf2c7b6d4fa066585b1,2024-10-01_22h21.16.515,mdp,2024.2.1,Win32,147.0588235,66fa4ebf79326e780c390304,,,,,,,,,,,,,,,,,,,,,572.5418,572.5418,572.5423,573.3463,0,1,left,0.2917,,573.3469,574.1233,0,0,left,574.1238,574.845,1,0,right,1,574.845,574.845,574.8456,576.3433,0,3,3,3,1,0.4,0.6,0.4,0.6,,,,,,,,,,,,,,,0.2637,,0.4,0.6,0.6,0.4,0.8,0.2,0.2,0.8,,,0.2079,,0.4,0.6,0.4,0.6,0.4,0.6,0.8,0.2,1,0
,,661094be457866d2fd65a77d,66fcbbf2c7b6d4fa066585b1,2024-10-01_22h21.16.515,mdp,2024.2.1,Win32,147.0588235,66fa4ebf79326e780c390304,,,,,,,,,,,,,,,,,,,,,576.3434,576.3434,576.3439,577.0924,0,0,left,0.2361,,577.093,577.821,1,0,right,577.8214,578.5424,1,0,right,1,578.5425,578.5425,578.543,580.0409,0,4,4,4,1,0.4,0.6,0.4,0.6,,,,,,,,,,,,,,,0.2173,,0.4,0.6,0.6,0.4,0.8,0.2,0.2,0.8,,,0.2088,,0.4,0.6,0.4,0.6,0.4,0.6,0.8,0.2,1,0
,,661094be457866d2fd65a77d,66fcbbf2c7b6d4fa066585b1,2024-10-01_22h21.16.515,mdp,2024.2.1,Win32,147.0588235,66fa4ebf79326e780c390304,,,,,,,,,,,,,,,,,,,,,580.0411,580.0411,580.0416,580.7138,0,1,left,0.1627,,580.7143,581.4213,1,0,right,581.4218,582.0804,1,0,right,1,582.0804,582.0804,582.0809,583.5789,0,5,5,5,1,0.4,0.6,0.4,0.6,,,,,,,,,,,,,,,0.1952,,0.4,0.6,0.6,0.4,0.8,0.2,0.2,0.8,,,0.1462,,0.8,0.2,0.8,0.2,0.4,0.6,0.8,0.2,1,0
,,661094be457866d2fd65a77d,66fcbbf2c7b6d4fa066585b1,2024-10-01_22h21.16.515,mdp,2024.2.1,Win32,147.0588235,66fa4ebf79326e780c390304,,,,,,,,,,,,,,,,,,,,,583.5791,583.5791,583.5797,584.3696,0,1,left,0.2757,,584.3701,585.0841,1,0,right,585.0846,585.8682,1,0,right,1,585.8682,585.8682,585.8687,587.3666,0,6,6,6,1,0.4,0.6,0.4,0.6,,,,,,,,,,,,,,,0.2037,,0.4,0.6,0.6,0.4,0.8,0.2,0.2,0.8,,,0.2721,,0.8,0.2,0.8,0.2,0.4,0.6,0.8,0.2,1,0
,,661094be457866d2fd65a77d,66fcbbf2c7b6d4fa066585b1,2024-10-01_22h21.16.515,mdp,2024.2.1,Win32,147.0588235,66fa4ebf79326e780c390304,,,,,,,,,,,,,,,,,,,,,587.3668,587.3668,587.3672,588.1297,0,0,left,0.2502,,588.1304,588.9206,1,0,right,588.9212,589.6976,1,0,right,1,589.6976,589.6976,589.6981,591.1959,0,7,7,7,1,0.4,0.6,0.4,0.6,,,,,,,,,,,,,,,0.2779,,0.4,0.6,0.6,0.4,0.8,0.2,0.2,0.8,,,0.2651,,0.8,0.2,0.8,0.2,0.4,0.6,0.8,0.2,1,0
,,661094be457866d2fd65a77d,66fcbbf2c7b6d4fa066585b1,2024-10-01_22h21.16.515,mdp,2024.2.1,Win32,147.0588235,66fa4ebf79326e780c390304,,,,,,,,,,,,,,,,,,,,,591.1961,591.1961,591.1966,591.9452,0,0,left,0.2358,,591.9459,592.5626,1,1,right,592.5631,593.2565,1,1,right,0,593.2565,593.2565,593.2571,594.7549,0,8,8,8,1,0.4,0.6,0.4,0.6,,,,,,,,,,,,,,,0.1053,,0.4,0.6,0.6,0.4,0.8,0.2,0.2,0.8,,,0.1811,,0.8,0.2,0.8,0.2,0.4,0.6,0.8,0.2,1,0
,,661094be457866d2fd65a77d,66fcbbf2c7b6d4fa066585b1,2024-10-01_22h21.16.515,mdp,2024.2.1,Win32,147.0588235,66fa4ebf79326e780c390304,,,,,,,,,,,,,,,,,,,,,594.7551,594.7551,594.7556,595.4,0,1,left,0.1315,,595.4005,596.3227,0,0,left,596.3233,597.0997,0,0,left,1,597.0997,597.0998,597.1002,598.598,0,9,9,9,1,0.4,0.6,0.4,0.6,,,,,,,,,,,,,,,0.4097,,0.4,0.6,0.6,0.4,0.8,0.2,0.2,0.8,,,0.2621,,0.8,0.2,0.8,0.2,0.4,0.6,0.8,0.2,1,0
,,661094be457866d2fd65a77d,66fcbbf2c7b6d4fa066585b1,2024-10-01_22h21.16.515,mdp,2024.2.1,Win32,147.0588235,66fa4ebf79326e780c390304,,,,,,,,,,,,,,,,,,,,,598.5983,598.5983,598.5988,599.3334,0,0,left,0.2235,,599.3339,599.9301,0,1,left,599.9305,600.5892,0,1,left,0,600.5892,600.5892,600.5897,602.0876,0,10,10,10,1,0.4,0.6,0.4,0.6,,,,,,,,,,,,,,,0.0821,,0.4,0.6,0.6,0.4,0.6,0.4,0.8,0.2,,,0.1435,,0.8,0.2,0.8,0.2,0.4,0.6,0.8,0.2,1,0
,,661094be457866d2fd65a77d,66fcbbf2c7b6d4fa066585b1,2024-10-01_22h21.16.515,mdp,2024.2.1,Win32,147.0588235,66fa4ebf79326e780c390304,,,,,,,,,,,,,,,,,,,,,602.0877,602.0877,602.0883,602.9061,0,0,left,0.3055,,602.9065,603.5859,1,0,right,603.5863,604.4392,0,0,left,1,604.4393,604.4393,604.4397,605.9377,0,11,11,11,1,0.4,0.6,0.4,0.6,,,,,,,,,,,,,,,0.1682,,0.4,0.6,0.6,0.4,0.6,0.4,0.8,0.2,,,0.3405,,0.8,0.2,0.8,0.2,0.4,0.6,0.8,0.2,1,0
,,661094be457866d2fd65a77d,66fcbbf2c7b6d4fa066585b1,2024-10-01_22h21.16.515,mdp,2024.2.1,Win32,147.0588235,66fa4ebf79326e780c390304,,,,,,,,,,,,,,,,,,,,,605.9378,605.9379,605.9383,606.7286,0,0,left,0.2778,,606.7292,607.6305,1,0,right,607.6311,608.6086,0,0,left,1,608.6086,608.6086,608.6091,610.1071,0,12,12,12,1,0.4,0.6,0.4,0.6,,,,,,,,,,,,,,,0.3886,,0.4,0.6,0.6,0.4,0.6,0.4,0.8,0.2,,,0.4636,,0.8,0.2,0.8,0.2,0.4,0.6,0.8,0.2,1,0
,,661094be457866d2fd65a77d,66fcbbf2c7b6d4fa066585b1,2024-10-01_22h21.16.515,mdp,2024.2.1,Win32,147.0588235,66fa4ebf79326e780c390304,,,,,,,,,,,,,,,,,,,,,610.1073,610.1073,610.1078,610.9118,0,1,left,0.2923,,610.9122,612.1882,0,0,left,612.1888,613.2772,1,0,right,1,613.2773,613.2773,613.2778,614.7758,0,13,13,13,1,0.4,0.6,0.4,0.6,,,,,,,,,,,,,,,0.7616,,0.4,0.6,0.6,0.4,0.6,0.4,0.8,0.2,,,0.5776,,0.8,0.2,0.8,0.2,0.2,0.8,0.2,0.8,1,0
,,661094be457866d2fd65a77d,66fcbbf2c7b6d4fa066585b1,2024-10-01_22h21.16.515,mdp,2024.2.1,Win32,147.0588235,66fa4ebf79326e780c390304,,,,,,,,,,,,,,,,,,,,,614.776,614.776,614.7764,616.6626,0,1,left,1.3745,,616.6632,617.8005,0,1,left,617.801,618.9381,0,1,left,0,618.9381,618.9381,618.9386,620.4365,0,14,14,14,1,0.4,0.6,0.4,0.6,,,,,,,,,,,,,,,0.6267,,0.4,0.6,0.6,0.4,0.6,0.4,0.8,0.2,,,0.623,,0.8,0.2,0.8,0.2,0.2,0.8,0.2,0.8,1,0
,,661094be457866d2fd65a77d,66fcbbf2c7b6d4fa066585b1,2024-10-01_22h21.16.515,mdp,2024.2.1,Win32,147.0588235,66fa4ebf79326e780c390304,,,,,,,,,,,,,,,,,,,,,620.4367,620.4367,620.4372,621.4633,1,1,right,0.5168,,621.4639,622.594,0,1,left,622.5945,623.5931,0,1,left,0,623.5931,623.5931,623.5936,625.0915,0,15,15,15,1,0.4,0.6,0.4,0.6,,,,,,,,,,,,,,,0.6176,,0.4,0.6,0.6,0.4,0.6,0.4,0.8,0.2,,,0.4875,,0.8,0.2,0.8,0.2,0.2,0.8,0.2,0.8,1,0
,,661094be457866d2fd65a77d,66fcbbf2c7b6d4fa066585b1,2024-10-01_22h21.16.515,mdp,2024.2.1,Win32,147.0588235,66fa4ebf79326e780c390304,,,,,,,,,,,,,,,,,,,,,625.0918,625.0918,625.0926,626.0974,1,1,right,0.4945,,626.0978,627.4433,0,1,left,627.4438,628.5186,0,1,left,0,628.5187,628.5187,628.5191,630.0169,0,16,16,16,1,0.4,0.6,0.4,0.6,,,,,,,,,,,,,,,0.8328,,0.4,0.6,0.6,0.4,0.6,0.4,0.8,0.2,,,0.5606,,0.8,0.2,0.8,0.2,0.2,0.8,0.2,0.8,1,0
,,661094be457866d2fd65a77d,66fcbbf2c7b6d4fa066585b1,2024-10-01_22h21.16.515,mdp,2024.2.1,Win32,147.0588235,66fa4ebf79326e780c390304,,,,,,,,,,,,,,,,,,,,,630.0171,630.0171,630.0178,630.8841,0,1,left,0.3541,,630.8847,631.7305,0,0,left,631.7312,632.4659,0,0,left,1,632.4659,632.4659,632.4663,633.9643,0,17,17,17,1,0.4,0.6,0.4,0.6,,,,,,,,,,,,,,,0.3333,,0.4,0.6,0.6,0.4,0.6,0.4,0.8,0.2,,,0.222,,0.8,0.2,0.8,0.2,0.2,0.8,0.2,0.8,1,0
,,661094be457866d2fd65a77d,66fcbbf2c7b6d4fa066585b1,2024-10-01_22h21.16.515,mdp,2024.2.1,Win32,147.0588235,66fa4ebf79326e780c390304,,,,,,,,,,,,,,,,,,,,,633.9645,633.9645,633.9649,634.7204,0,1,left,0.2434,,634.7209,635.6778,0,0,left,635.6783,636.6213,0,0,left,1,636.6214,636.6214,636.6218,638.1198,0,18,18,18,1,0.4,0.6,0.4,0.6,,,,,,,,,,,,,,,0.4436,,0.4,0.6,0.6,0.4,0.6,0.4,0.8,0.2,,,0.4293,,0.8,0.2,0.8,0.2,0.2,0.8,0.2,0.8,1,0
,,661094be457866d2fd65a77d,66fcbbf2c7b6d4fa066585b1,2024-10-01_22h21.16.515,mdp,2024.2.1,Win32,147.0588235,66fa4ebf79326e780c390304,,,,,,,,,,,,,,,,,,,,,638.1199,638.1199,638.1204,638.9314,0,0,left,0.2995,,638.9319,640.0691,1,0,right,640.0696,641.0126,0,0,left,1,641.0126,641.0126,641.0139,642.511,0,19,19,19,1,0.4,0.6,0.4,0.6,,,,,,,,,,,,,,,0.623,,0.4,0.6,0.6,0.4,0.6,0.4,0.8,0.2,,,0.4307,,0.8,0.2,0.8,0.2,0.2,0.8,0.2,0.8,1,0
,,661094be457866d2fd65a77d,66fcbbf2c7b6d4fa066585b1,2024-10-01_22h21.16.515,mdp,2024.2.1,Win32,147.0588235,66fa4ebf79326e780c390304,,,,,,,,,,,,,,,,,,,,,642.5113,642.5113,642.5117,643.5446,0,1,left,0.5202,,643.5451,644.4813,0,1,left,644.4817,645.501,0,0,left,1,645.5011,645.5011,645.5014,646.9993,0,20,20,20,1,0.4,0.6,0.4,0.6,,,,,,,,,,,,,,,0.4218,,0.4,0.6,0.6,0.4,0.6,0.4,0.8,0.2,,,0.5063,,0.8,0.2,0.8,0.2,0.2,0.8,0.2,0.8,1,0
,,661094be457866d2fd65a77d,66fcbbf2c7b6d4fa066585b1,2024-10-01_22h21.16.515,mdp,2024.2.1,Win32,147.0588235,66fa4ebf79326e780c390304,,,,,,,,,,,,,,,,,,,,,646.9996,646.9996,647,648.0055,0,1,left,0.4933,,648.006,648.942,0,0,left,648.9425,649.9061,0,0,left,1,649.9062,649.9062,649.9067,651.4045,0,21,21,21,1,0.4,0.6,0.4,0.6,,,,,,,,,,,,,,,0.4228,,0.4,0.6,0.6,0.4,0.6,0.4,0.8,0.2,,,0.4531,,0.8,0.2,0.8,0.2,0.2,0.8,0.2,0.8,1,0
,,661094be457866d2fd65a77d,66fcbbf2c7b6d4fa066585b1,2024-10-01_22h21.16.515,mdp,2024.2.1,Win32,147.0588235,66fa4ebf79326e780c390304,,,,,,,,,,,,,,,,,,,,,651.4048,651.4048,651.4052,652.4522,0,0,left,0.5343,,652.4528,653.5342,1,0,right,653.5347,654.4987,0,0,left,1,654.4987,654.4987,654.4993,655.9972,0,22,22,22,1,0.6,0.4,0.2,0.8,,,,,,,,,,,,,,,0.5709,,0.4,0.6,0.6,0.4,0.6,0.4,0.8,0.2,,,0.4513,,0.8,0.2,0.8,0.2,0.2,0.8,0.2,0.8,1,0
,,661094be457866d2fd65a77d,66fcbbf2c7b6d4fa066585b1,2024-10-01_22h21.16.515,mdp,2024.2.1,Win32,147.0588235,66fa4ebf79326e780c390304,,,,,,,,,,,,,,,,,,,,,655.9974,655.9974,655.998,656.8504,0,0,left,0.3394,,656.851,657.8702,1,0,right,657.8707,658.7997,0,0,left,1,658.7997,658.7997,658.8002,660.2981,0,23,23,23,1,0.6,0.4,0.2,0.8,,,,,,,,,,,,,,,0.5109,,0.4,0.6,0.6,0.4,0.6,0.4,0.8,0.2,,,0.4185,,0.8,0.2,0.8,0.2,0.2,0.8,0.2,0.8,1,0
,,661094be457866d2fd65a77d,66fcbbf2c7b6d4fa066585b1,2024-10-01_22h21.16.515,mdp,2024.2.1,Win32,147.0588235,66fa4ebf79326e780c390304,,,,,,,,,,,,,,,,,,,,,660.2984,660.2984,660.2988,660.9641,0,0,left,0.1543,,660.9647,661.9839,1,0,right,661.9845,662.8926,0,0,left,1,662.8927,662.8927,662.8931,664.3911,0,24,24,24,1,0.6,0.4,0.2,0.8,,,,,,,,,,,,,,,0.5088,,0.4,0.6,0.6,0.4,0.6,0.4,0.8,0.2,,,0.3966,,0.8,0.2,0.8,0.2,0.2,0.8,0.2,0.8,1,0
,,661094be457866d2fd65a77d,66fcbbf2c7b6d4fa066585b1,2024-10-01_22h21.16.515,mdp,2024.2.1,Win32,147.0588235,66fa4ebf79326e780c390304,,,,,,,,,,,,,,,,,,,,,664.3914,664.3914,664.392,665.2029,0,0,left,0.2993,,665.2034,666.1462,1,0,right,666.1467,667.0619,0,0,left,1,667.062,667.062,667.0625,668.5604,0,25,25,25,1,0.6,0.4,0.2,0.8,,,,,,,,,,,,,,,0.4322,,0.4,0.6,0.6,0.4,0.6,0.4,0.8,0.2,,,0.4027,,0.8,0.2,0.8,0.2,0.2,0.8,0.2,0.8,1,0
,,661094be457866d2fd65a77d,66fcbbf2c7b6d4fa066585b1,2024-10-01_22h21.16.515,mdp,2024.2.1,Win32,147.0588235,66fa4ebf79326e780c390304,,,,,,,,,,,,,,,,,,,,,668.5606,668.5606,668.561,669.2541,0,0,left,0.1844,,669.2547,670.1282,1,0,right,670.1287,671.037,0,0,left,1,671.037,671.037,671.0376,672.5356,0,26,26,26,1,0.6,0.4,0.2,0.8,,,,,,,,,,,,,,,0.3644,,0.4,0.6,0.6,0.4,0.6,0.4,0.8,0.2,,,0.3955,,0.8,0.2,0.8,0.2,0.2,0.8,0.2,0.8,1,0
,,661094be457866d2fd65a77d,66fcbbf2c7b6d4fa066585b1,2024-10-01_22h21.16.515,mdp,2024.2.1,Win32,147.0588235,66fa4ebf79326e780c390304,,,,,,,,,,,,,,,,,,,,,672.5357,672.5358,672.5362,673.3196,0,1,left,0.2725,,673.32,674.4224,0,0,left,674.4229,675.3728,0,0,left,1,675.3729,675.3729,675.3735,676.8713,0,27,27,27,1,0.6,0.4,0.2,0.8,,,,,,,,,,,,,,,0.5905,,0.4,0.6,0.6,0.4,0.6,0.4,0.8,0.2,,,0.4372,,0.8,0.2,0.8,0.2,0.2,0.8,0.2,0.8,1,0
,,661094be457866d2fd65a77d,66fcbbf2c7b6d4fa066585b1,2024-10-01_22h21.16.515,mdp,2024.2.1,Win32,147.0588235,66fa4ebf79326e780c390304,,,,,,,,,,,,,,,,,,,,,676.8715,676.8715,676.872,677.6761,0,0,left,0.2917,,677.6764,678.6263,1,1,right,678.627,679.5143,0,1,left,0,679.5144,679.5144,679.515,681.0128,0,28,28,28,1,0.6,0.4,0.2,0.8,,,,,,,,,,,,,,,0.4365,,0.4,0.6,0.6,0.4,0.6,0.4,0.8,0.2,,,0.375,,0.8,0.2,0.8,0.2,0.2,0.8,0.2,0.8,1,0
,,661094be457866d2fd65a77d,66fcbbf2c7b6d4fa066585b1,2024-10-01_22h21.16.515,mdp,2024.2.1,Win32,147.0588235,66fa4ebf79326e780c390304,,,,,,,,,,,,,,,,,,,,,681.0132,681.0132,681.0136,681.9077,0,0,left,0.3818,,681.9082,682.8097,1,1,right,682.8103,683.6629,1,1,right,0,683.6629,683.6629,683.6634,685.1614,0,29,29,29,1,0.6,0.4,0.2,0.8,,,,,,,,,,,,,,,0.3909,,0.4,0.6,0.6,0.4,0.6,0.4,0.8,0.2,,,0.3401,,0.8,0.2,0.8,0.2,0.2,0.8,0.2,0.8,1,0
,,661094be457866d2fd65a77d,66fcbbf2c7b6d4fa066585b1,2024-10-01_22h21.16.515,mdp,2024.2.1,Win32,147.0588235,66fa4ebf79326e780c390304,,,,,,,,,,,,,,,,,,,,,685.1616,685.1616,685.162,687.0969,1,1,right,1.4244,,687.0974,688.0265,0,1,left,688.027,688.8173,0,0,left,1,688.8174,688.8174,688.8178,690.3157,0,30,30,30,1,0.6,0.4,0.2,0.8,,,,,,,,,,,,,,,0.4164,,0.4,0.6,0.6,0.4,0.6,0.4,0.8,0.2,,,0.2755,,0.6,0.4,0.2,0.8,0.2,0.8,0.2,0.8,1,0
,,661094be457866d2fd65a77d,66fcbbf2c7b6d4fa066585b1,2024-10-01_22h21.16.515,mdp,2024.2.1,Win32,147.0588235,66fa4ebf79326e780c390304,,,,,,,,,,,,,,,,,,,,,690.3158,690.3158,690.3163,691.4882,1,1,right,0.6592,,691.4887,692.3831,0,0,left,692.3836,693.2155,0,0,left,1,693.2155,693.2155,693.216,694.7139,0,31,31,31,1,0.6,0.4,0.2,0.8,,,,,,,,,,,,,,,0.3817,,0.4,0.6,0.6,0.4,0.6,0.4,0.8,0.2,,,0.3177,,0.6,0.4,0.2,0.8,0.2,0.8,0.2,0.8,1,0
,,661094be457866d2fd65a77d,66fcbbf2c7b6d4fa066585b1,2024-10-01_22h21.16.515,mdp,2024.2.1,Win32,147.0588235,66fa4ebf79326e780c390304,,,,,,,,,,,,,,,,,,,,,694.7142,694.7142,694.7146,695.5257,1,1,right,0.3007,,695.5263,696.3997,0,0,left,696.4001,697.26,0,1,left,0,697.26,697.26,697.2605,698.7583,0,32,32,32,1,0.6,0.4,0.2,0.8,,,,,,,,,,,,,,,0.3606,,0.4,0.6,0.6,0.4,0.6,0.4,0.8,0.2,,,0.3473,,0.6,0.4,0.2,0.8,0.2,0.8,0.2,0.8,1,0
,,661094be457866d2fd65a77d,66fcbbf2c7b6d4fa066585b1,2024-10-01_22h21.16.515,mdp,2024.2.1,Win32,147.0588235,66fa4ebf79326e780c390304,,,,,,,,,,,,,,,,,,,,,698.7586,698.7586,698.759,699.6325,0,0,left,0.3612,,699.633,700.7148,1,0,right,700.7153,701.9703,0,0,left,1,701.9704,701.9704,701.9708,703.4689,0,33,33,33,1,0.6,0.4,0.2,0.8,,,,,,,,,,,,,,,0.5655,,0.4,0.6,0.6,0.4,0.6,0.4,0.8,0.2,,,0.744,,0.6,0.4,0.2,0.8,0.2,0.8,0.2,0.8,1,0
,,661094be457866d2fd65a77d,66fcbbf2c7b6d4fa066585b1,2024-10-01_22h21.16.515,mdp,2024.2.1,Win32,147.0588235,66fa4ebf79326e780c390304,,,,,,,,,,,,,,,,,,,,,703.4691,703.4691,703.4695,704.3013,0,1,left,0.3199,,704.3019,705.3765,0,1,left,705.3771,706.5835,1,1,right,0,706.5836,706.5836,706.5842,708.0822,0,34,34,34,1,0.6,0.4,0.2,0.8,,,,,,,,,,,,,,,0.5634,,0.4,0.6,0.6,0.4,0.6,0.4,0.8,0.2,,,0.6932,,0.6,0.4,0.2,0.8,0.2,0.8,0.2,0.8,1,0
,,661094be457866d2fd65a77d,66fcbbf2c7b6d4fa066585b1,2024-10-01_22h21.16.515,mdp,2024.2.1,Win32,147.0588235,66fa4ebf79326e780c390304,,,,,,,,,,,,,,,,,,,,,708.0824,708.0824,708.0828,708.977,0,0,left,0.3829,,708.9774,709.9759,1,1,right,709.9765,711.0027,1,1,right,0,711.0028,711.0028,711.0033,712.5011,0,35,35,35,1,0.6,0.4,0.2,0.8,,,,,,,,,,,,,,,0.4858,,0.4,0.6,0.6,0.4,0.6,0.4,0.8,0.2,,,0.5128,,0.6,0.4,0.2,0.8,0.2,0.8,0.2,0.8,1,0
,,661094be457866d2fd65a77d,66fcbbf2c7b6d4fa066585b1,2024-10-01_22h21.16.515,mdp,2024.2.1,Win32,147.0588235,66fa4ebf79326e780c390304,,,,,,,,,,,,,,,,,,,,,712.5013,712.5013,712.5017,713.3892,1,1,right,0.3749,,713.3897,714.5685,0,1,left,714.5691,715.616,0,1,left,0,715.616,715.616,715.6165,717.1144,0,36,36,36,1,0.6,0.4,0.2,0.8,,,,,,,,,,,,,,,0.6666,,0.4,0.6,0.6,0.4,0.6,0.4,0.8,0.2,,,0.535,,0.6,0.4,0.2,0.8,0.2,0.8,0.2,0.8,1,0
,,661094be457866d2fd65a77d,66fcbbf2c7b6d4fa066585b1,2024-10-01_22h21.16.515,mdp,2024.2.1,Win32,147.0588235,66fa4ebf79326e780c390304,,,,,,,,,,,,,,,,,,,,,717.1148,717.1148,717.1152,718.0508,1,1,right,0.425,,718.0513,719.0915,1,0,right,719.092,720.3055,0,1,left,0,720.3055,720.3055,720.3061,721.804,0,37,37,37,1,0.6,0.4,0.2,0.8,,,,,,,,,,,,,,,0.5276,,0.4,0.6,0.6,0.4,0.6,0.4,0.8,0.2,,,0.6997,,0.6,0.4,0.2,0.8,0.2,0.8,0.2,0.8,1,0
,,661094be457866d2fd65a77d,66fcbbf2c7b6d4fa066585b1,2024-10-01_22h21.16.515,mdp,2024.2.1,Win32,147.0588235,66fa4ebf79326e780c390304,,,,,,,,,,,,,,,,,,,,,721.8042,721.8042,721.8046,722.5463,0,1,left,0.2292,,722.5468,723.4897,0,1,left,723.4902,724.8634,0,0,left,1,724.8635,724.8635,724.864,726.3618,0,38,38,38,1,0.6,0.4,0.2,0.8,,,,,,,,,,,,,,,0.4293,,0.4,0.6,0.6,0.4,0.6,0.4,0.8,0.2,,,0.8603,,0.6,0.4,0.2,0.8,0.2,0.8,0.2,0.8,1,0
,,661094be457866d2fd65a77d,66fcbbf2c7b6d4fa066585b1,2024-10-01_22h21.16.515,mdp,2024.2.1,Win32,147.0588235,66fa4ebf79326e780c390304,,,,,,,,,,,,,,,,,,,,,726.362,726.362,726.3624,727.1734,0,1,left,0.2987,,727.1739,728.1099,0,0,left,728.1103,729.2408,0,1,left,0,729.2409,729.2409,729.2413,730.7392,0,39,39,39,1,0.6,0.4,0.2,0.8,,,,,,,,,,,,,,,0.4236,,0.4,0.6,0.6,0.4,0.6,0.4,0.8,0.2,,,0.6175,,0.6,0.4,0.2,0.8,0.2,0.8,0.2,0.8,1,0
,,661094be457866d2fd65a77d,66fcbbf2c7b6d4fa066585b1,2024-10-01_22h21.16.515,mdp,2024.2.1,Win32,147.0588235,66fa4ebf79326e780c390304,,,,,,,,,,,,,,,,,,,,,730.7394,730.7394,730.7398,731.4331,0,1,left,0.1807,,731.4337,732.2516,0,1,left,732.252,733.3476,0,0,left,1,733.3476,733.3476,733.3481,734.846,0,40,40,40,1,0.6,0.4,0.2,0.8,,,,,,,,,,,,,,,0.3057,,0.4,0.6,0.6,0.4,0.6,0.4,0.8,0.2,,,0.5812,,0.6,0.4,0.2,0.8,0.2,0.8,0.2,0.8,1,0
,,661094be457866d2fd65a77d,66fcbbf2c7b6d4fa066585b1,2024-10-01_22h21.16.515,mdp,2024.2.1,Win32,147.0588235,66fa4ebf79326e780c390304,,,,,,,,,,,,,,,,,,,,,734.8463,734.8463,734.8467,735.5259,0,0,left,0.1677,,735.5264,736.5734,1,1,right,736.5741,737.6764,0,1,left,0,737.6764,737.6764,737.6769,739.1749,0,41,41,41,1,0.6,0.4,0.2,0.8,,,,,,,,,,,,,,,0.5327,,0.4,0.6,0.6,0.4,0.6,0.4,0.8,0.2,,,0.5901,,0.6,0.4,0.2,0.8,0.2,0.8,0.2,0.8,1,0
,,661094be457866d2fd65a77d,66fcbbf2c7b6d4fa066585b1,2024-10-01_22h21.16.515,mdp,2024.2.1,Win32,147.0588235,66fa4ebf79326e780c390304,,,,,,,,,,,,,,,,,,,,,739.175,739.175,739.1755,740.1184,0,1,left,0.4305,,740.1189,741.1799,0,1,left,741.1803,742.1718,1,0,right,1,742.1719,742.1719,742.1724,743.6703,0,42,42,42,1,0.4,0.6,0.4,0.6,,,,,,,,,,,,,,,0.5469,,0.4,0.6,0.6,0.4,0.6,0.4,0.8,0.2,,,0.4811,,0.6,0.4,0.2,0.8,0.2,0.8,0.2,0.8,1,0
,,661094be457866d2fd65a77d,66fcbbf2c7b6d4fa066585b1,2024-10-01_22h21.16.515,mdp,2024.2.1,Win32,147.0588235,66fa4ebf79326e780c390304,,,,,,,,,,,,,,,,,,,,,743.6706,743.6706,743.671,744.4403,0,0,left,0.257,,744.4408,745.5781,1,1,right,745.5785,746.5217,0,1,left,0,746.5217,746.5217,746.5221,748.0199,0,43,43,43,1,0.4,0.6,0.4,0.6,,,,,,,,,,,,,,,0.6243,,0.4,0.6,0.6,0.4,0.6,0.4,0.8,0.2,,,0.4325,,0.6,0.4,0.2,0.8,0.2,0.8,0.2,0.8,1,0
,,661094be457866d2fd65a77d,66fcbbf2c7b6d4fa066585b1,2024-10-01_22h21.16.515,mdp,2024.2.1,Win32,147.0588235,66fa4ebf79326e780c390304,,,,,,,,,,,,,,,,,,,,,748.0201,748.0201,748.0205,748.9427,1,1,right,0.4073,,748.9434,749.8583,0,0,left,749.8587,750.9822,0,0,left,1,750.9823,750.9823,750.9828,752.4807,0,44,44,44,1,0.6,0.4,0.2,0.8,,,,,,,,,,,,,,,0.4048,,0.4,0.6,0.6,0.4,0.6,0.4,0.8,0.2,,,0.6095,,0.6,0.4,0.2,0.8,0.2,0.8,0.2,0.8,1,0
,,661094be457866d2fd65a77d,66fcbbf2c7b6d4fa066585b1,2024-10-01_22h21.16.515,mdp,2024.2.1,Win32,147.0588235,66fa4ebf79326e780c390304,,,,,,,,,,,,,,,,,,,,,752.4809,752.4809,752.4813,753.2506,1,0,right,0.261,,753.251,754.3955,1,0,right,754.396,755.4498,0,0,left,1,755.4498,755.4498,755.4502,756.9481,0,45,45,45,1,0.6,0.4,0.2,0.8,,,,,,,,,,,,,,,0.6322,,0.4,0.6,0.6,0.4,0.6,0.4,0.8,0.2,,,0.5423,,0.6,0.4,0.2,0.8,0.2,0.8,0.2,0.8,1,0
,,661094be457866d2fd65a77d,66fcbbf2c7b6d4fa066585b1,2024-10-01_22h21.16.515,mdp,2024.2.1,Win32,147.0588235,66fa4ebf79326e780c390304,,,,,,,,,,,,,,,,,,,,,756.9484,756.9484,756.9487,757.9193,1,1,right,0.4613,,757.9198,758.9253,0,0,left,758.9257,759.8619,0,0,left,1,759.8619,759.8619,759.8628,761.3605,0,46,46,46,1,0.6,0.4,0.2,0.8,,,,,,,,,,,,,,,0.4913,,0.4,0.6,0.6,0.4,0.6,0.4,0.8,0.2,,,0.423,,0.6,0.4,0.2,0.8,0.8,0.2,0.6,0.4,1,0
,,661094be457866d2fd65a77d,66fcbbf2c7b6d4fa066585b1,2024-10-01_22h21.16.515,mdp,2024.2.1,Win32,147.0588235,66fa4ebf79326e780c390304,,,,,,,,,,,,,,,,,,,,,761.3607,761.3607,761.3611,762.3314,1,0,right,0.4617,,762.332,763.3375,1,0,right,763.338,764.274,0,0,left,1,764.274,764.274,764.2745,765.7726,0,47,47,47,1,0.6,0.4,0.2,0.8,,,,,,,,,,,,,,,0.491,,0.4,0.6,0.6,0.4,0.6,0.4,0.8,0.2,,,0.4231,,0.6,0.4,0.2,0.8,0.8,0.2,0.6,0.4,1,0
,,661094be457866d2fd65a77d,66fcbbf2c7b6d4fa066585b1,2024-10-01_22h21.16.515,mdp,2024.2.1,Win32,147.0588235,66fa4ebf79326e780c390304,,,,,,,,,,,,,,,,,,,,,765.7728,765.7728,765.7733,766.8547,0,0,left,0.5691,,766.8551,767.7565,0,0,left,767.757,768.3462,0,0,left,1,768.3463,768.3463,768.3467,769.8445,0,48,48,48,1,0.6,0.4,0.2,0.8,,,,,,,,,,,,,,,0.3904,,0.4,0.6,0.6,0.4,0.8,0.2,0.2,0.8,,,0.0771,,0.6,0.4,0.2,0.8,0.8,0.2,0.6,0.4,1,0
,,661094be457866d2fd65a77d,66fcbbf2c7b6d4fa066585b1,2024-10-01_22h21.16.515,mdp,2024.2.1,Win32,147.0588235,66fa4ebf79326e780c390304,,,,,,,,,,,,,,,,,,,,,769.8448,769.8448,769.8452,770.6007,0,0,left,0.2428,,770.6012,771.2667,0,0,left,771.2672,772.0299,0,1,left,0,772.03,772.03,772.0304,773.5283,0,49,49,49,1,0.6,0.4,0.2,0.8,,,,,,,,,,,,,,,0.1548,,0.4,0.6,0.6,0.4,0.8,0.2,0.2,0.8,,,0.2501,,0.4,0.6,0.4,0.6,0.8,0.2,0.6,0.4,1,0
,,661094be457866d2fd65a77d,66fcbbf2c7b6d4fa066585b1,2024-10-01_22h21.16.515,mdp,2024.2.1,Win32,147.0588235,66fa4ebf79326e780c390304,,,,,,,,,,,,,,,,,,,,,,,,,,,,,,,,,,,,,,,,,,,,,,,,,,,,,,,,773.5285,832.0303,0,2,2,1,1,imgs/goat.png,imgs/pig.png,imgs/squirrel.png,imgs/dog.png,imgs/cat.png,,,,,,,,,,,,,,,,,,,,,,,,
,,661094be457866d2fd65a77d,66fcbbf2c7b6d4fa066585b1,2024-10-01_22h21.16.515,mdp,2024.2.1,Win32,147.0588235,66fa4ebf79326e780c390304,,,,,,,,,,,,,,3,seqs/st3seq12.csv,832.0307,833.5289,space,0.9866,,833.5325,833.5325,833.5329,835.6032,0,0,left,1.5608,,835.6038,836.4631,0,0,left,836.4636,837.2888,0,1,left,0,837.2888,837.2888,837.2892,838.7872,0,0,0,0,1,0.8,0.2,0.4,0.6,,,,,,,,,,,,,,,0.3451,,0.6,0.4,0.6,0.4,0.6,0.4,0.2,0.8,,,0.3098,,0.2,0.8,0.8,0.2,0.8,0.2,0.2,0.8,1,0
,,661094be457866d2fd65a77d,66fcbbf2c7b6d4fa066585b1,2024-10-01_22h21.16.515,mdp,2024.2.1,Win32,147.0588235,66fa4ebf79326e780c390304,,,,,,,,,,,,,,,,,,,,,838.7874,838.7874,838.7879,839.5572,1,1,right,0.2573,,839.5577,840.5634,1,1,right,840.5639,841.6038,1,1,right,0,841.6038,841.6038,841.6043,843.1021,0,1,1,1,1,0.8,0.2,0.4,0.6,,,,,,,,,,,,,,,0.4913,,0.6,0.4,0.6,0.4,0.6,0.4,0.2,0.8,,,0.5282,,0.2,0.8,0.8,0.2,0.8,0.2,0.2,0.8,1,0
,,661094be457866d2fd65a77d,66fcbbf2c7b6d4fa066585b1,2024-10-01_22h21.16.515,mdp,2024.2.1,Win32,147.0588235,66fa4ebf79326e780c390304,,,,,,,,,,,,,,,,,,,,,843.1023,843.1023,843.1027,844.0247,0,0,left,0.4091,,844.0253,845.3777,1,0,right,845.3782,846.4251,0,1,left,0,846.4251,846.4251,846.4256,847.9237,0,2,2,2,1,0.8,0.2,0.4,0.6,,,,,,,,,,,,,,,0.8404,,0.6,0.4,0.6,0.4,0.6,0.4,0.2,0.8,,,0.535,,0.2,0.8,0.8,0.2,0.8,0.2,0.2,0.8,1,0
,,661094be457866d2fd65a77d,66fcbbf2c7b6d4fa066585b1,2024-10-01_22h21.16.515,mdp,2024.2.1,Win32,147.0588235,66fa4ebf79326e780c390304,,,,,,,,,,,,,,,,,,,,,847.9238,847.9238,847.9243,848.874,0,0,left,0.4349,,848.8746,849.7551,1,0,right,849.7555,850.6637,0,1,left,0,850.6637,850.6637,850.6643,852.1622,0,3,3,3,1,0.8,0.2,0.4,0.6,,,,,,,,,,,,,,,0.3693,,0.6,0.4,0.6,0.4,0.6,0.4,0.2,0.8,,,0.3957,,0.2,0.8,0.8,0.2,0.8,0.2,0.2,0.8,1,0
,,661094be457866d2fd65a77d,66fcbbf2c7b6d4fa066585b1,2024-10-01_22h21.16.515,mdp,2024.2.1,Win32,147.0588235,66fa4ebf79326e780c390304,,,,,,,,,,,,,,,,,,,,,852.1624,852.1624,852.1628,853.0711,1,1,right,0.3937,,853.0715,854.2087,0,0,left,854.2092,855.2217,0,0,left,1,855.2217,855.2217,855.2221,856.7199,0,4,4,4,1,0.8,0.2,0.4,0.6,,,,,,,,,,,,,,,0.6246,,0.6,0.4,0.6,0.4,0.6,0.4,0.2,0.8,,,0.4999,,0.2,0.8,0.8,0.2,0.8,0.2,0.2,0.8,1,0
,,661094be457866d2fd65a77d,66fcbbf2c7b6d4fa066585b1,2024-10-01_22h21.16.515,mdp,2024.2.1,Win32,147.0588235,66fa4ebf79326e780c390304,,,,,,,,,,,,,,,,,,,,,856.7202,856.7202,856.7206,857.5041,0,1,left,0.2706,,857.5046,858.5723,0,0,left,858.5727,859.5227,0,0,left,1,859.5228,859.5228,859.5232,861.0212,0,5,5,5,1,0.8,0.2,0.4,0.6,,,,,,,,,,,,,,,0.5573,,0.8,0.2,0.2,0.8,0.6,0.4,0.2,0.8,,,0.4372,,0.2,0.8,0.8,0.2,0.8,0.2,0.2,0.8,1,0
,,661094be457866d2fd65a77d,66fcbbf2c7b6d4fa066585b1,2024-10-01_22h21.16.515,mdp,2024.2.1,Win32,147.0588235,66fa4ebf79326e780c390304,,,,,,,,,,,,,,,,,,,,,861.0216,861.0216,861.022,861.8329,0,0,left,0.2994,,861.8333,862.8802,1,1,right,862.8808,864.0181,1,1,right,0,864.0181,864.0181,864.0186,865.5165,0,6,6,6,1,0.8,0.2,0.4,0.6,,,,,,,,,,,,,,,0.5333,,0.8,0.2,0.2,0.8,0.6,0.4,0.2,0.8,,,0.624,,0.2,0.8,0.8,0.2,0.8,0.2,0.2,0.8,1,0
,,661094be457866d2fd65a77d,66fcbbf2c7b6d4fa066585b1,2024-10-01_22h21.16.515,mdp,2024.2.1,Win32,147.0588235,66fa4ebf79326e780c390304,,,,,,,,,,,,,,,,,,,,,865.5167,865.5167,865.5173,866.2936,0,0,left,0.2645,,866.2941,867.6669,1,1,right,867.6674,868.8187,1,1,right,0,868.8187,868.8187,868.8192,870.3172,0,7,7,7,1,0.8,0.2,0.4,0.6,,,,,,,,,,,,,,,0.8623,,0.8,0.2,0.2,0.8,0.6,0.4,0.2,0.8,,,0.6377,,0.2,0.8,0.8,0.2,0.8,0.2,0.2,0.8,1,0
,,661094be457866d2fd65a77d,66fcbbf2c7b6d4fa066585b1,2024-10-01_22h21.16.515,mdp,2024.2.1,Win32,147.0588235,66fa4ebf79326e780c390304,,,,,,,,,,,,,,,,,,,,,870.3174,870.3174,870.3179,870.9484,1,1,right,0.1182,,870.949,872.0376,0,0,left,872.0381,873.0296,0,1,left,0,873.0297,873.0297,873.0301,874.528,0,8,8,8,1,0.8,0.2,0.4,0.6,,,,,,,,,,,,,,,0.5758,,0.2,0.8,0.6,0.4,0.6,0.4,0.2,0.8,,,0.4771,,0.2,0.8,0.8,0.2,0.8,0.2,0.2,0.8,1,0
,,661094be457866d2fd65a77d,66fcbbf2c7b6d4fa066585b1,2024-10-01_22h21.16.515,mdp,2024.2.1,Win32,147.0588235,66fa4ebf79326e780c390304,,,,,,,,,,,,,,,,,,,,,874.5283,874.5283,874.5286,875.3743,0,0,left,0.3341,,875.3748,876.2623,1,1,right,876.2628,877.1296,1,1,right,0,877.1297,877.1297,877.1301,878.6279,0,9,9,9,1,0.8,0.2,0.4,0.6,,,,,,,,,,,,,,,0.3737,,0.2,0.8,0.6,0.4,0.6,0.4,0.2,0.8,,,0.3553,,0.2,0.8,0.8,0.2,0.8,0.2,0.2,0.8,1,0
,,661094be457866d2fd65a77d,66fcbbf2c7b6d4fa066585b1,2024-10-01_22h21.16.515,mdp,2024.2.1,Win32,147.0588235,66fa4ebf79326e780c390304,,,,,,,,,,,,,,,,,,,,,878.6281,878.6281,878.6286,879.4118,0,0,left,0.2716,,879.4124,880.3207,0,1,left,880.3212,881.0631,0,1,left,0,881.0631,881.0631,881.0636,882.5614,0,10,10,10,1,0.8,0.2,0.4,0.6,,,,,,,,,,,,,,,0.396,,0.2,0.8,0.6,0.4,0.6,0.4,0.2,0.8,,,0.2279,,0.8,0.2,0.4,0.6,0.8,0.2,0.2,0.8,1,0
,,661094be457866d2fd65a77d,66fcbbf2c7b6d4fa066585b1,2024-10-01_22h21.16.515,mdp,2024.2.1,Win32,147.0588235,66fa4ebf79326e780c390304,,,,,,,,,,,,,,,,,,,,,882.5616,882.5616,882.5621,883.269,1,0,right,0.1947,,883.2696,884.1988,1,0,right,884.1994,885.1145,1,1,right,0,885.1145,885.1145,885.115,886.6128,0,11,11,11,1,0.8,0.2,0.4,0.6,,,,,,,,,,,,,,,0.4161,,0.2,0.8,0.6,0.4,0.6,0.4,0.2,0.8,,,0.3989,,0.8,0.2,0.4,0.6,0.8,0.2,0.2,0.8,1,0
,,661094be457866d2fd65a77d,66fcbbf2c7b6d4fa066585b1,2024-10-01_22h21.16.515,mdp,2024.2.1,Win32,147.0588235,66fa4ebf79326e780c390304,,,,,,,,,,,,,,,,,,,,,886.613,886.613,886.6135,887.3272,1,0,right,0.2023,,887.3277,888.2569,1,1,right,888.2574,889.1379,1,1,right,0,889.1379,889.1379,889.1384,890.6363,0,12,12,12,1,0.8,0.2,0.4,0.6,,,,,,,,,,,,,,,0.4173,,0.2,0.8,0.6,0.4,0.6,0.4,0.2,0.8,,,0.3641,,0.8,0.2,0.4,0.6,0.8,0.2,0.2,0.8,1,0
,,661094be457866d2fd65a77d,66fcbbf2c7b6d4fa066585b1,2024-10-01_22h21.16.515,mdp,2024.2.1,Win32,147.0588235,66fa4ebf79326e780c390304,,,,,,,,,,,,,,,,,,,,,890.6366,890.6366,890.637,891.5243,0,1,left,0.375,,891.5249,892.6343,0,1,left,892.6348,893.9594,0,0,left,1,893.9595,893.9595,893.9601,895.4577,0,13,13,13,1,0.8,0.2,0.4,0.6,,,,,,,,,,,,,,,0.5958,,0.2,0.8,0.6,0.4,0.6,0.4,0.2,0.8,,,0.8123,,0.8,0.2,0.4,0.6,0.8,0.2,0.2,0.8,1,0
,,661094be457866d2fd65a77d,66fcbbf2c7b6d4fa066585b1,2024-10-01_22h21.16.515,mdp,2024.2.1,Win32,147.0588235,66fa4ebf79326e780c390304,,,,,,,,,,,,,,,,,,,,,895.4579,895.4579,895.4584,896.2972,0,1,left,0.328,,896.2977,897.4071,0,0,left,897.4077,898.4478,0,0,left,1,898.4478,898.4479,898.4483,899.9461,0,14,14,14,1,0.8,0.2,0.4,0.6,,,,,,,,,,,,,,,0.5972,,0.2,0.8,0.6,0.4,0.6,0.4,0.2,0.8,,,0.5299,,0.8,0.2,0.4,0.6,0.8,0.2,0.2,0.8,1,0
,,661094be457866d2fd65a77d,66fcbbf2c7b6d4fa066585b1,2024-10-01_22h21.16.515,mdp,2024.2.1,Win32,147.0588235,66fa4ebf79326e780c390304,,,,,,,,,,,,,,,,,,,,,899.9464,899.9464,899.9468,900.7164,0,1,left,0.2569,,900.7168,901.6043,0,1,left,901.6048,902.6171,0,0,left,1,902.6171,902.6171,902.6176,904.1155,0,15,15,15,1,0.8,0.2,0.4,0.6,,,,,,,,,,,,,,,0.3746,,0.2,0.8,0.6,0.4,0.6,0.4,0.2,0.8,,,0.499,,0.8,0.2,0.4,0.6,0.8,0.2,0.2,0.8,1,0
,,661094be457866d2fd65a77d,66fcbbf2c7b6d4fa066585b1,2024-10-01_22h21.16.515,mdp,2024.2.1,Win32,147.0588235,66fa4ebf79326e780c390304,,,,,,,,,,,,,,,,,,,,,904.1158,904.1158,904.1163,904.8578,0,0,left,0.2272,,904.8582,906.1065,0,1,left,906.107,907.1263,0,0,left,1,907.1264,907.1264,907.1269,908.6247,0,16,16,16,1,0.6,0.4,0.6,0.4,,,,,,,,,,,,,,,0.7373,,0.2,0.8,0.6,0.4,0.6,0.4,0.2,0.8,,,0.5067,,0.8,0.2,0.4,0.6,0.8,0.2,0.2,0.8,1,0
,,661094be457866d2fd65a77d,66fcbbf2c7b6d4fa066585b1,2024-10-01_22h21.16.515,mdp,2024.2.1,Win32,147.0588235,66fa4ebf79326e780c390304,,,,,,,,,,,,,,,,,,,,,908.6249,908.6249,908.6254,909.3809,0,0,left,0.2453,,909.3814,910.1926,0,1,left,910.1931,910.9143,0,0,left,1,910.9143,910.9143,910.9147,912.4124,0,17,17,17,1,0.6,0.4,0.6,0.4,,,,,,,,,,,,,,,0.2991,,0.2,0.8,0.6,0.4,0.6,0.4,0.2,0.8,,,0.2126,,0.8,0.2,0.4,0.6,0.8,0.2,0.2,0.8,1,0
,,661094be457866d2fd65a77d,66fcbbf2c7b6d4fa066585b1,2024-10-01_22h21.16.515,mdp,2024.2.1,Win32,147.0588235,66fa4ebf79326e780c390304,,,,,,,,,,,,,,,,,,,,,912.4127,912.4127,912.4132,913.0368,0,1,left,0.1103,,913.0374,913.9456,0,1,left,913.9461,914.7435,0,1,left,0,914.7435,914.7435,914.744,916.2418,0,18,18,18,1,0.6,0.4,0.6,0.4,,,,,,,,,,,,,,,0.3937,,0.2,0.8,0.6,0.4,0.6,0.4,0.2,0.8,,,0.2849,,0.8,0.2,0.4,0.6,0.8,0.2,0.2,0.8,1,0
,,661094be457866d2fd65a77d,66fcbbf2c7b6d4fa066585b1,2024-10-01_22h21.16.515,mdp,2024.2.1,Win32,147.0588235,66fa4ebf79326e780c390304,,,,,,,,,,,,,,,,,,,,,916.2421,916.2421,916.2427,916.998,0,0,left,0.2424,,916.9985,918.0872,0,0,left,918.0878,919.2806,0,1,left,0,919.2806,919.2806,919.2811,920.7787,0,19,19,19,1,0.6,0.4,0.6,0.4,,,,,,,,,,,,,,,0.5756,,0.2,0.8,0.6,0.4,0.6,0.4,0.2,0.8,,,0.6789,,0.2,0.8,0.2,0.8,0.8,0.2,0.2,0.8,1,0
,,661094be457866d2fd65a77d,66fcbbf2c7b6d4fa066585b1,2024-10-01_22h21.16.515,mdp,2024.2.1,Win32,147.0588235,66fa4ebf79326e780c390304,,,,,,,,,,,,,,,,,,,,,920.779,920.779,920.7794,921.4518,0,0,left,0.1599,,921.4523,922.423,1,0,right,922.4234,923.3316,0,1,left,0,923.3317,923.3317,923.3321,924.8302,0,20,20,20,1,0.6,0.4,0.6,0.4,,,,,,,,,,,,,,,0.4599,,0.2,0.8,0.6,0.4,0.6,0.4,0.2,0.8,,,0.3958,,0.2,0.8,0.2,0.8,0.8,0.2,0.2,0.8,1,0
,,661094be457866d2fd65a77d,66fcbbf2c7b6d4fa066585b1,2024-10-01_22h21.16.515,mdp,2024.2.1,Win32,147.0588235,66fa4ebf79326e780c390304,,,,,,,,,,,,,,,,,,,,,924.8304,924.8304,924.8309,925.7042,1,0,right,0.361,,925.7047,927.1265,1,1,right,927.1271,928.0283,1,1,right,0,928.0284,928.0284,928.0289,929.5268,0,21,21,21,1,0.6,0.4,0.6,0.4,,,,,,,,,,,,,,,0.9092,,0.2,0.8,0.6,0.4,0.6,0.4,0.2,0.8,,,0.3871,,0.2,0.8,0.2,0.8,0.8,0.2,0.2,0.8,1,0
,,661094be457866d2fd65a77d,66fcbbf2c7b6d4fa066585b1,2024-10-01_22h21.16.515,mdp,2024.2.1,Win32,147.0588235,66fa4ebf79326e780c390304,,,,,,,,,,,,,,,,,,,,,929.527,929.527,929.5274,930.3245,0,0,left,0.2861,,930.325,931.2057,0,1,left,931.2061,932.2461,0,0,left,1,932.2462,932.2462,932.2466,933.7447,0,22,22,22,1,0.6,0.4,0.6,0.4,,,,,,,,,,,,,,,0.3698,,0.2,0.8,0.6,0.4,0.6,0.4,0.2,0.8,,,0.5275,,0.2,0.8,0.2,0.8,0.8,0.2,0.2,0.8,1,0
,,661094be457866d2fd65a77d,66fcbbf2c7b6d4fa066585b1,2024-10-01_22h21.16.515,mdp,2024.2.1,Win32,147.0588235,66fa4ebf79326e780c390304,,,,,,,,,,,,,,,,,,,,,933.7449,933.745,933.7454,934.473,0,0,left,0.215,,934.4735,935.472,0,0,left,935.4725,936.5681,0,1,left,0,936.5681,936.5681,936.5685,938.0665,0,23,23,23,1,0.4,0.6,0.8,0.2,,,,,,,,,,,,,,,0.4858,,0.2,0.8,0.6,0.4,0.6,0.4,0.2,0.8,,,0.5821,,0.2,0.8,0.2,0.8,0.8,0.2,0.2,0.8,1,0
,,661094be457866d2fd65a77d,66fcbbf2c7b6d4fa066585b1,2024-10-01_22h21.16.515,mdp,2024.2.1,Win32,147.0588235,66fa4ebf79326e780c390304,,,,,,,,,,,,,,,,,,,,,938.0668,938.0668,938.0672,938.8088,0,1,left,0.2307,,938.8093,939.8079,0,0,left,939.8084,940.7443,1,1,right,0,940.7443,940.7443,940.7448,942.2427,0,24,24,24,1,0.4,0.6,0.8,0.2,,,,,,,,,,,,,,,0.4843,,0.2,0.8,0.6,0.4,0.6,0.4,0.2,0.8,,,0.4232,,0.2,0.8,0.2,0.8,0.8,0.2,0.2,0.8,1,0
,,661094be457866d2fd65a77d,66fcbbf2c7b6d4fa066585b1,2024-10-01_22h21.16.515,mdp,2024.2.1,Win32,147.0588235,66fa4ebf79326e780c390304,,,,,,,,,,,,,,,,,,,,,942.2429,942.2429,942.2434,942.9782,1,0,right,0.2223,,942.9786,944.0881,1,1,right,944.0885,945.2951,0,0,left,1,945.2951,945.2951,945.2958,946.7935,0,25,25,25,1,0.4,0.6,0.8,0.2,,,,,,,,,,,,,,,0.595,,0.8,0.2,0.8,0.2,0.6,0.4,0.2,0.8,,,0.6938,,0.2,0.8,0.2,0.8,0.8,0.2,0.2,0.8,1,0
,,661094be457866d2fd65a77d,66fcbbf2c7b6d4fa066585b1,2024-10-01_22h21.16.515,mdp,2024.2.1,Win32,147.0588235,66fa4ebf79326e780c390304,,,,,,,,,,,,,,,,,,,,,946.7937,946.7937,946.7941,947.5636,1,1,right,0.257,,947.5641,948.8054,1,1,right,948.806,949.9085,0,0,left,1,949.9085,949.9085,949.909,951.4069,0,26,26,26,1,0.4,0.6,0.8,0.2,,,,,,,,,,,,,,,0.7289,,0.8,0.2,0.8,0.2,0.6,0.4,0.2,0.8,,,0.5904,,0.2,0.8,0.2,0.8,0.8,0.2,0.2,0.8,1,0
,,661094be457866d2fd65a77d,66fcbbf2c7b6d4fa066585b1,2024-10-01_22h21.16.515,mdp,2024.2.1,Win32,147.0588235,66fa4ebf79326e780c390304,,,,,,,,,,,,,,,,,,,,,951.4073,951.4073,951.4078,952.1491,1,0,right,0.2318,,952.1496,953.1343,1,0,right,953.1349,954.1124,0,1,left,0,954.1124,954.1124,954.1129,955.6109,0,27,27,27,1,0.4,0.6,0.8,0.2,,,,,,,,,,,,,,,0.4718,,0.8,0.2,0.8,0.2,0.6,0.4,0.2,0.8,,,0.466,,0.2,0.8,0.2,0.8,0.8,0.2,0.2,0.8,1,0
,,661094be457866d2fd65a77d,66fcbbf2c7b6d4fa066585b1,2024-10-01_22h21.16.515,mdp,2024.2.1,Win32,147.0588235,66fa4ebf79326e780c390304,,,,,,,,,,,,,,,,,,,,,955.6111,955.6111,955.6115,956.3394,0,1,left,0.2166,,956.3398,957.4839,0,1,left,957.4843,958.7118,1,1,right,0,958.7118,958.7118,958.7123,960.2101,0,28,28,28,1,0.4,0.6,0.8,0.2,,,,,,,,,,,,,,,0.6308,,0.8,0.2,0.8,0.2,0.6,0.4,0.2,0.8,,,0.7152,,0.2,0.8,0.2,0.8,0.8,0.2,0.2,0.8,1,0
,,661094be457866d2fd65a77d,66fcbbf2c7b6d4fa066585b1,2024-10-01_22h21.16.515,mdp,2024.2.1,Win32,147.0588235,66fa4ebf79326e780c390304,,,,,,,,,,,,,,,,,,,,,960.2105,960.2105,960.2109,961.008,0,1,left,0.2838,,961.0085,961.9029,0,0,left,961.9034,962.7494,0,0,left,1,962.7494,962.7494,962.7499,964.2477,0,29,29,29,1,0.4,0.6,0.8,0.2,,,,,,,,,,,,,,,0.383,,0.8,0.2,0.8,0.2,0.6,0.4,0.2,0.8,,,0.3313,,0.2,0.8,0.2,0.8,0.8,0.2,0.2,0.8,1,0
,,661094be457866d2fd65a77d,66fcbbf2c7b6d4fa066585b1,2024-10-01_22h21.16.515,mdp,2024.2.1,Win32,147.0588235,66fa4ebf79326e780c390304,,,,,,,,,,,,,,,,,,,,,964.248,964.248,964.2483,964.99,0,1,left,0.2278,,964.9905,965.9474,0,1,left,965.9479,966.9672,0,0,left,1,966.9672,966.9673,966.9678,968.4655,0,30,30,30,1,0.4,0.6,0.8,0.2,,,,,,,,,,,,,,,0.4448,,0.8,0.2,0.8,0.2,0.6,0.4,0.2,0.8,,,0.5052,,0.2,0.8,0.2,0.8,0.8,0.2,0.2,0.8,1,0
,,661094be457866d2fd65a77d,66fcbbf2c7b6d4fa066585b1,2024-10-01_22h21.16.515,mdp,2024.2.1,Win32,147.0588235,66fa4ebf79326e780c390304,,,,,,,,,,,,,,,,,,,,,968.4658,968.4658,968.4663,969.1247,0,0,left,0.1455,,969.1252,969.9363,0,1,left,969.9367,970.762,0,1,left,0,970.762,970.762,970.7625,972.2603,0,31,31,31,1,0.4,0.6,0.8,0.2,,,,,,,,,,,,,,,0.3003,,0.8,0.2,0.8,0.2,0.6,0.4,0.2,0.8,,,0.3136,,0.2,0.8,0.2,0.8,0.8,0.2,0.2,0.8,1,0
,,661094be457866d2fd65a77d,66fcbbf2c7b6d4fa066585b1,2024-10-01_22h21.16.515,mdp,2024.2.1,Win32,147.0588235,66fa4ebf79326e780c390304,,,,,,,,,,,,,,,,,,,,,972.2605,972.2605,972.261,972.8847,0,1,left,0.111,,972.8852,974.3625,0,0,left,974.3629,975.4307,0,1,left,0,975.4308,975.4308,975.4311,976.929,0,32,32,32,1,0.4,0.6,0.8,0.2,,,,,,,,,,,,,,,0.965,,0.8,0.2,0.8,0.2,0.6,0.4,0.2,0.8,,,0.5533,,0.2,0.8,0.2,0.8,0.8,0.2,0.2,0.8,1,0
,,661094be457866d2fd65a77d,66fcbbf2c7b6d4fa066585b1,2024-10-01_22h21.16.515,mdp,2024.2.1,Win32,147.0588235,66fa4ebf79326e780c390304,,,,,,,,,,,,,,,,,,,,,976.9292,976.9292,976.9297,978.0392,1,0,right,0.5969,,978.0396,979.1698,1,0,right,979.1704,980.0716,0,1,left,0,980.0717,980.0717,980.0721,981.5702,0,33,33,33,1,0.4,0.6,0.8,0.2,,,,,,,,,,,,,,,0.6171,,0.8,0.2,0.8,0.2,0.6,0.4,0.2,0.8,,,0.3894,,0.2,0.8,0.2,0.8,0.8,0.2,0.2,0.8,1,0
,,661094be457866d2fd65a77d,66fcbbf2c7b6d4fa066585b1,2024-10-01_22h21.16.515,mdp,2024.2.1,Win32,147.0588235,66fa4ebf79326e780c390304,,,,,,,,,,,,,,,,,,,,,981.5703,981.5704,981.5709,982.3193,1,0,right,0.2389,,982.3198,983.7415,1,0,right,983.7419,984.5809,1,0,right,1,984.5809,984.5809,984.5814,986.0793,0,34,34,34,1,0.4,0.6,0.8,0.2,,,,,,,,,,,,,,,0.909,,0.8,0.2,0.8,0.2,0.6,0.4,0.2,0.8,,,0.3271,,0.2,0.8,0.2,0.8,0.8,0.2,0.2,0.8,1,0
,,661094be457866d2fd65a77d,66fcbbf2c7b6d4fa066585b1,2024-10-01_22h21.16.515,mdp,2024.2.1,Win32,147.0588235,66fa4ebf79326e780c390304,,,,,,,,,,,,,,,,,,,,,986.0795,986.0796,986.08,986.8425,1,0,right,0.2505,,986.8429,987.5987,1,0,right,987.5991,988.3895,1,1,right,0,988.3896,988.3896,988.39,989.8879,0,35,35,35,1,0.4,0.6,0.8,0.2,,,,,,,,,,,,,,,0.243,,0.8,0.2,0.8,0.2,0.6,0.4,0.2,0.8,,,0.2782,,0.2,0.8,0.2,0.8,0.8,0.2,0.2,0.8,1,0
,,661094be457866d2fd65a77d,66fcbbf2c7b6d4fa066585b1,2024-10-01_22h21.16.515,mdp,2024.2.1,Win32,147.0588235,66fa4ebf79326e780c390304,,,,,,,,,,,,,,,,,,,,,989.8881,989.8881,989.8885,990.748,0,1,left,0.3493,,990.7485,991.7263,0,0,left,991.727,992.7046,0,1,left,0,992.7046,992.7046,992.7051,994.203,0,36,36,36,1,0.4,0.6,0.8,0.2,,,,,,,,,,,,,,,0.4642,,0.8,0.2,0.8,0.2,0.6,0.4,0.2,0.8,,,0.4651,,0.2,0.8,0.2,0.8,0.8,0.2,0.2,0.8,1,0
,,661094be457866d2fd65a77d,66fcbbf2c7b6d4fa066585b1,2024-10-01_22h21.16.515,mdp,2024.2.1,Win32,147.0588235,66fa4ebf79326e780c390304,,,,,,,,,,,,,,,,,,,,,994.2032,994.2032,994.2039,994.9523,0,1,left,0.2362,,994.9527,995.7015,1,1,right,995.702,996.6102,1,1,right,0,996.6102,996.6102,996.6106,998.1085,0,37,37,37,1,0.4,0.6,0.8,0.2,,,,,,,,,,,,,,,0.2359,,0.8,0.2,0.8,0.2,0.4,0.6,0.4,0.6,,,0.3947,,0.2,0.8,0.2,0.8,0.8,0.2,0.2,0.8,1,0
,,661094be457866d2fd65a77d,66fcbbf2c7b6d4fa066585b1,2024-10-01_22h21.16.515,mdp,2024.2.1,Win32,147.0588235,66fa4ebf79326e780c390304,,,,,,,,,,,,,,,,,,,,,998.1087,998.1087,998.1092,998.8371,1,0,right,0.2153,,998.8375,999.6486,0,0,left,999.6491,1000.3843,0,0,left,1,1000.3843,1000.3843,1000.3848,1001.8825,0,38,38,38,1,0.4,0.6,0.8,0.2,,,,,,,,,,,,,,,0.2978,,0.8,0.2,0.8,0.2,0.4,0.6,0.4,0.6,,,0.2227,,0.2,0.8,0.2,0.8,0.8,0.2,0.2,0.8,1,0
,,661094be457866d2fd65a77d,66fcbbf2c7b6d4fa066585b1,2024-10-01_22h21.16.515,mdp,2024.2.1,Win32,147.0588235,66fa4ebf79326e780c390304,,,,,,,,,,,,,,,,,,,,,1001.8827,1001.8827,1001.8832,1002.5276,1,1,right,0.1326,,1002.5281,1003.3254,0,1,left,1003.3259,1003.9566,0,1,left,0,1003.9567,1003.9567,1003.9572,1005.4551,0,39,39,39,1,0.2,0.8,0.2,0.8,,,,,,,,,,,,,,,0.2829,,0.8,0.2,0.8,0.2,0.4,0.6,0.4,0.6,,,0.1172,,0.2,0.8,0.2,0.8,0.8,0.2,0.2,0.8,1,0
,,661094be457866d2fd65a77d,66fcbbf2c7b6d4fa066585b1,2024-10-01_22h21.16.515,mdp,2024.2.1,Win32,147.0588235,66fa4ebf79326e780c390304,,,,,,,,,,,,,,,,,,,,,1005.4553,1005.4553,1005.4557,1006.246,1,1,right,0.2809,,1006.2466,1007.4808,1,0,right,1007.4814,1008.556,0,1,left,0,1008.5561,1008.5561,1008.5566,1010.0547,0,40,40,40,1,0.2,0.8,0.2,0.8,,,,,,,,,,,,,,,0.7218,,0.8,0.2,0.8,0.2,0.4,0.6,0.4,0.6,,,0.5606,,0.2,0.8,0.2,0.8,0.8,0.2,0.2,0.8,1,0
,,661094be457866d2fd65a77d,66fcbbf2c7b6d4fa066585b1,2024-10-01_22h21.16.515,mdp,2024.2.1,Win32,147.0588235,66fa4ebf79326e780c390304,,,,,,,,,,,,,,,,,,,,,1010.0549,1010.0549,1010.0554,1010.7691,0,1,left,0.2013,,1010.7696,1011.5182,1,0,right,1011.5188,1012.3161,1,1,right,0,1012.3161,1012.3161,1012.3166,1013.8144,0,41,41,41,1,0.2,0.8,0.2,0.8,,,,,,,,,,,,,,,0.2362,,0.8,0.2,0.8,0.2,0.4,0.6,0.4,0.6,,,0.2836,,0.2,0.8,0.2,0.8,0.6,0.4,0.8,0.2,1,0
,,661094be457866d2fd65a77d,66fcbbf2c7b6d4fa066585b1,2024-10-01_22h21.16.515,mdp,2024.2.1,Win32,147.0588235,66fa4ebf79326e780c390304,,,,,,,,,,,,,,,,,,,,,1013.8147,1013.8147,1013.8151,1014.6817,0,1,left,0.3556,,1014.6822,1015.556,0,1,left,1015.5565,1016.3119,0,0,left,1,1016.312,1016.312,1016.3125,1017.8105,0,42,42,42,1,0.2,0.8,0.2,0.8,,,,,,,,,,,,,,,0.3616,,0.8,0.2,0.8,0.2,0.4,0.6,0.4,0.6,,,0.2416,,0.2,0.8,0.2,0.8,0.8,0.2,0.6,0.4,1,0
,,661094be457866d2fd65a77d,66fcbbf2c7b6d4fa066585b1,2024-10-01_22h21.16.515,mdp,2024.2.1,Win32,147.0588235,66fa4ebf79326e780c390304,,,,,,,,,,,,,,,,,,,,,1017.8107,1017.8107,1017.8112,1018.5666,0,1,left,0.2441,,1018.5671,1019.4477,0,0,left,1019.4482,1020.405,0,1,left,0,1020.4051,1020.4051,1020.4055,1021.9034,0,43,43,43,1,0.2,0.8,0.2,0.8,,,,,,,,,,,,,,,0.3679,,0.8,0.2,0.8,0.2,0.4,0.6,0.4,0.6,,,0.4433,,0.2,0.8,0.2,0.8,0.8,0.2,0.6,0.4,1,0
,,661094be457866d2fd65a77d,66fcbbf2c7b6d4fa066585b1,2024-10-01_22h21.16.515,mdp,2024.2.1,Win32,147.0588235,66fa4ebf79326e780c390304,,,,,,,,,,,,,,,,,,,,,1021.9036,1021.9036,1021.9041,1022.7152,0,1,left,0.2989,,1022.7156,1023.8805,0,0,left,1023.881,1024.824,1,1,right,0,1024.8241,1024.8241,1024.8246,1026.3225,0,44,44,44,1,0.2,0.8,0.2,0.8,,,,,,,,,,,,,,,0.6531,,0.8,0.2,0.8,0.2,0.4,0.6,0.4,0.6,,,0.4324,,0.2,0.8,0.2,0.8,0.8,0.2,0.6,0.4,1,0
,,661094be457866d2fd65a77d,66fcbbf2c7b6d4fa066585b1,2024-10-01_22h21.16.515,mdp,2024.2.1,Win32,147.0588235,66fa4ebf79326e780c390304,,,,,,,,,,,,,,,,,,,,,1026.3228,1026.3228,1026.3234,1027.03,1,0,right,0.1947,,1027.0305,1028.4869,0,0,left,1028.4873,1029.4026,0,0,left,1,1029.4026,1029.4026,1029.4031,1030.901,0,45,45,45,1,0.2,0.8,0.2,0.8,,,,,,,,,,,,,,,0.942,,0.8,0.2,0.8,0.2,0.6,0.4,0.2,0.8,,,0.4041,,0.2,0.8,0.2,0.8,0.8,0.2,0.6,0.4,1,0
,,661094be457866d2fd65a77d,66fcbbf2c7b6d4fa066585b1,2024-10-01_22h21.16.515,mdp,2024.2.1,Win32,147.0588235,66fa4ebf79326e780c390304,,,,,,,,,,,,,,,,,,,,,1030.9012,1030.9012,1030.9016,1031.6364,1,0,right,0.222,,1031.6369,1032.7186,0,0,left,1032.7192,1033.5651,0,1,left,0,1033.5651,1033.5651,1033.5656,1035.0634,0,46,46,46,1,0.2,0.8,0.2,0.8,,,,,,,,,,,,,,,0.5693,,0.8,0.2,0.8,0.2,0.6,0.4,0.2,0.8,,,0.3338,,0.2,0.8,0.2,0.8,0.8,0.2,0.6,0.4,1,0
,,661094be457866d2fd65a77d,66fcbbf2c7b6d4fa066585b1,2024-10-01_22h21.16.515,mdp,2024.2.1,Win32,147.0588235,66fa4ebf79326e780c390304,,,,,,,,,,,,,,,,,,,,,1035.0636,1035.0636,1035.0641,1035.7919,0,1,left,0.2157,,1035.7925,1036.7491,1,1,right,1036.7496,1037.5331,1,0,right,1,1037.5332,1037.5332,1037.5336,1039.0314,0,47,47,47,1,0.2,0.8,0.2,0.8,,,,,,,,,,,,,,,0.443,,0.8,0.2,0.8,0.2,0.6,0.4,0.2,0.8,,,0.269,,0.2,0.8,0.2,0.8,0.8,0.2,0.6,0.4,1,0
,,661094be457866d2fd65a77d,66fcbbf2c7b6d4fa066585b1,2024-10-01_22h21.16.515,mdp,2024.2.1,Win32,147.0588235,66fa4ebf79326e780c390304,,,,,,,,,,,,,,,,,,,,,1039.0317,1039.0318,1039.0324,1039.8779,0,1,left,0.3333,,1039.8786,1040.6063,1,1,right,1040.6068,1041.3764,1,0,right,1,1041.3764,1041.3765,1041.3768,1042.8748,0,48,48,48,1,0.2,0.8,0.2,0.8,,,,,,,,,,,,,,,0.2154,,0.8,0.2,0.8,0.2,0.6,0.4,0.2,0.8,,,0.2605,,0.2,0.8,0.2,0.8,0.8,0.2,0.6,0.4,1,0
,,661094be457866d2fd65a77d,66fcbbf2c7b6d4fa066585b1,2024-10-01_22h21.16.515,mdp,2024.2.1,Win32,147.0588235,66fa4ebf79326e780c390304,,,,,,,,,,,,,,,,,,,,,1042.8751,1042.8751,1042.8755,1043.9917,0,1,left,0.6038,,1043.9922,1044.9004,1,1,right,1044.901,1045.6568,1,1,right,0,1045.6568,1045.6568,1045.6572,1047.1551,0,49,49,49,1,0.2,0.8,0.2,0.8,,,,,,,,,,,,,,,0.3958,,0.8,0.2,0.8,0.2,0.6,0.4,0.2,0.8,,,0.2472,,0.2,0.8,0.2,0.8,0.8,0.2,0.6,0.4,1,0
,,661094be457866d2fd65a77d,66fcbbf2c7b6d4fa066585b1,2024-10-01_22h21.16.515,mdp,2024.2.1,Win32,147.0588235,66fa4ebf79326e780c390304,,,,,,,,,,,,,,,,,,,,,,,,,,,,,,,,,,,,,,,,,,,,,,,,,,,,,,,,1047.1552,1105.6572,0,3,3,3,1,imgs/goat.png,imgs/lion.png,imgs/giraffe.png,imgs/dog.png,imgs/bear.png,,,,,,,,,,,,,,,,,,,,,,,,
,,661094be457866d2fd65a77d,66fcbbf2c7b6d4fa066585b1,2024-10-01_22h21.16.515,mdp,2024.2.1,Win32,147.0588235,66fa4ebf79326e780c390304,,,,,,,,,,,,,,1,seqs/st1seq6.csv,1105.6578,1112.1921,space,6.0239,,1112.1939,1112.1939,1112.1943,1113.4684,0,0,left,0.7598,,1113.4689,1113.4695,1,0,,1113.4699,1113.4702,1,0,,1,1113.4702,1113.4702,1113.4704,1114.9669,0,0,0,0,1,0.8,0.2,0.4,0.6,1,0,,,,,,,,,,,,,,,,,,,,,,,,,,,,,,,,,,,,
,,661094be457866d2fd65a77d,66fcbbf2c7b6d4fa066585b1,2024-10-01_22h21.16.515,mdp,2024.2.1,Win32,147.0588235,66fa4ebf79326e780c390304,,,,,,,,,,,,,,,,,,,,,1114.9673,1114.9673,1114.9677,1115.9104,0,0,left,0.4319,,1115.9109,1115.9113,1,0,,1115.9116,1115.9118,1,1,,1,1115.9118,1115.9118,1115.912,1117.4089,0,1,1,1,1,0.8,0.2,0.4,0.6,1,0,,,,,,,,,,,,,,,,,,,,,,,,,,,,,,,,,,,,
,,661094be457866d2fd65a77d,66fcbbf2c7b6d4fa066585b1,2024-10-01_22h21.16.515,mdp,2024.2.1,Win32,147.0588235,66fa4ebf79326e780c390304,,,,,,,,,,,,,,,,,,,,,1117.4091,1117.4091,1117.4096,1118.2832,0,0,left,0.3654,,1118.2837,1118.2841,1,0,,1118.2846,1118.285,1,0,,1,1118.285,1118.285,1118.2852,1119.7814,0,2,2,2,1,0.8,0.2,0.4,0.6,1,0,,,,,,,,,,,,,,,,,,,,,,,,,,,,,,,,,,,,
,,661094be457866d2fd65a77d,66fcbbf2c7b6d4fa066585b1,2024-10-01_22h21.16.515,mdp,2024.2.1,Win32,147.0588235,66fa4ebf79326e780c390304,,,,,,,,,,,,,,,,,,,,,1119.7816,1119.7816,1119.7821,1120.5444,0,0,left,0.2521,,1120.5449,1120.5453,1,0,,1120.5455,1120.5458,1,0,,1,1120.5458,1120.5458,1120.546,1122.0429,0,3,3,3,1,0.8,0.2,0.4,0.6,1,0,,,,,,,,,,,,,,,,,,,,,,,,,,,,,,,,,,,,
,,661094be457866d2fd65a77d,66fcbbf2c7b6d4fa066585b1,2024-10-01_22h21.16.515,mdp,2024.2.1,Win32,147.0588235,66fa4ebf79326e780c390304,,,,,,,,,,,,,,,,,,,,,1122.0431,1122.0431,1122.0435,1122.9587,0,0,left,0.4031,,1122.9592,1122.9595,1,1,,1122.9597,1122.9599,1,0,,1,1122.9599,1122.96,1122.9602,1124.4571,0,4,4,4,1,0.8,0.2,0.4,0.6,1,0,,,,,,,,,,,,,,,,,,,,,,,,,,,,,,,,,,,,
,,661094be457866d2fd65a77d,66fcbbf2c7b6d4fa066585b1,2024-10-01_22h21.16.515,mdp,2024.2.1,Win32,147.0588235,66fa4ebf79326e780c390304,,,,,,,,,,,,,,,,,,,,,1124.4573,1124.4573,1124.4577,1125.1855,0,0,left,0.215,,1125.1863,1125.1867,1,0,,1125.1869,1125.1872,1,0,,1,1125.1872,1125.1872,1125.1873,1126.6839,0,5,5,5,1,0.8,0.2,0.4,0.6,1,0,,,,,,,,,,,,,,,,,,,,,,,,,,,,,,,,,,,,
,,661094be457866d2fd65a77d,66fcbbf2c7b6d4fa066585b1,2024-10-01_22h21.16.515,mdp,2024.2.1,Win32,147.0588235,66fa4ebf79326e780c390304,,,,,,,,,,,,,,,,,,,,,1126.6841,1126.6841,1126.6846,1127.5164,0,0,left,0.3197,,1127.5169,1127.5172,1,0,,1127.5175,1127.5177,1,1,,1,1127.5177,1127.5178,1127.5179,1129.0149,0,6,6,6,1,0.8,0.2,0.4,0.6,1,0,,,,,,,,,,,,,,,,,,,,,,,,,,,,,,,,,,,,
,,661094be457866d2fd65a77d,66fcbbf2c7b6d4fa066585b1,2024-10-01_22h21.16.515,mdp,2024.2.1,Win32,147.0588235,66fa4ebf79326e780c390304,,,,,,,,,,,,,,,,,,,,,1129.015,1129.0151,1129.0155,1129.764,0,0,left,0.2362,,1129.7645,1129.7649,1,1,,1129.7655,1129.7657,1,0,,1,1129.7657,1129.7657,1129.7659,1131.2627,0,7,7,7,1,0.8,0.2,0.4,0.6,1,0,,,,,,,,,,,,,,,,,,,,,,,,,,,,,,,,,,,,
,,661094be457866d2fd65a77d,66fcbbf2c7b6d4fa066585b1,2024-10-01_22h21.16.515,mdp,2024.2.1,Win32,147.0588235,66fa4ebf79326e780c390304,,,,,,,,,,,,,,,,,,,,,1131.2628,1131.2628,1131.2633,1132.0051,0,0,left,0.2304,,1132.0055,1132.0059,1,0,,1132.0061,1132.0064,1,0,,1,1132.0064,1132.0064,1132.0066,1133.5033,0,8,8,8,1,0.8,0.2,0.4,0.6,1,0,,,,,,,,,,,,,,,,,,,,,,,,,,,,,,,,,,,,
,,661094be457866d2fd65a77d,66fcbbf2c7b6d4fa066585b1,2024-10-01_22h21.16.515,mdp,2024.2.1,Win32,147.0588235,66fa4ebf79326e780c390304,,,,,,,,,,,,,,,,,,,,,1133.5034,1133.5034,1133.504,1134.2873,0,0,left,0.271,,1134.2877,1134.2881,1,0,,1134.2887,1134.2889,1,0,,1,1134.2889,1134.2889,1134.2891,1135.7858,0,9,9,9,1,0.8,0.2,0.4,0.6,1,0,,,,,,,,,,,,,,,,,,,,,,,,,,,,,,,,,,,,
,,661094be457866d2fd65a77d,66fcbbf2c7b6d4fa066585b1,2024-10-01_22h21.16.515,mdp,2024.2.1,Win32,147.0588235,66fa4ebf79326e780c390304,,,,,,,,,,,,,,,,,,,,,1135.786,1135.786,1135.7864,1136.5279,0,0,left,0.2294,,1136.5285,1136.5287,1,0,,1136.529,1136.5293,1,0,,1,1136.5293,1136.5293,1136.5294,1138.0263,0,10,10,10,1,0.8,0.2,0.4,0.6,1,0,,,,,,,,,,,,,,,,,,,,,,,,,,,,,,,,,,,,
,,661094be457866d2fd65a77d,66fcbbf2c7b6d4fa066585b1,2024-10-01_22h21.16.515,mdp,2024.2.1,Win32,147.0588235,66fa4ebf79326e780c390304,,,,,,,,,,,,,,,,,,,,,1138.0266,1138.0266,1138.0269,1138.741,0,0,left,0.2027,,1138.7415,1138.7419,1,1,,1138.7421,1138.7424,1,1,,1,1138.7424,1138.7424,1138.7425,1140.2393,0,11,11,11,1,0.2,0.8,0.6,0.4,1,0,,,,,,,,,,,,,,,,,,,,,,,,,,,,,,,,,,,,
,,661094be457866d2fd65a77d,66fcbbf2c7b6d4fa066585b1,2024-10-01_22h21.16.515,mdp,2024.2.1,Win32,147.0588235,66fa4ebf79326e780c390304,,,,,,,,,,,,,,,,,,,,,1140.2395,1140.2395,1140.2399,1140.9886,0,1,left,0.2367,,1140.9891,1140.9895,1,0,,1140.9897,1140.9898,1,1,,0,1140.9899,1140.9899,1140.9901,1142.487,0,12,12,12,1,0.2,0.8,0.6,0.4,1,0,,,,,,,,,,,,,,,,,,,,,,,,,,,,,,,,,,,,
,,661094be457866d2fd65a77d,66fcbbf2c7b6d4fa066585b1,2024-10-01_22h21.16.515,mdp,2024.2.1,Win32,147.0588235,66fa4ebf79326e780c390304,,,,,,,,,,,,,,,,,,,,,1142.4872,1142.4872,1142.4876,1143.4582,1,1,right,0.4562,,1143.4587,1143.459,1,1,,1143.4595,1143.4597,1,0,,0,1143.4597,1143.4597,1143.4599,1144.9567,0,13,13,13,1,0.8,0.2,0.2,0.8,1,0,,,,,,,,,,,,,,,,,,,,,,,,,,,,,,,,,,,,
,,661094be457866d2fd65a77d,66fcbbf2c7b6d4fa066585b1,2024-10-01_22h21.16.515,mdp,2024.2.1,Win32,147.0588235,66fa4ebf79326e780c390304,,,,,,,,,,,,,,,,,,,,,1144.9569,1144.9569,1144.9573,1145.713,0,0,left,0.2424,,1145.7135,1145.7137,1,0,,1145.7141,1145.7144,1,0,,1,1145.7144,1145.7144,1145.7147,1147.2113,0,14,14,14,1,0.6,0.4,0.4,0.6,1,0,,,,,,,,,,,,,,,,,,,,,,,,,,,,,,,,,,,,
,,661094be457866d2fd65a77d,66fcbbf2c7b6d4fa066585b1,2024-10-01_22h21.16.515,mdp,2024.2.1,Win32,147.0588235,66fa4ebf79326e780c390304,,,,,,,,,,,,,,,,,,,,,1147.2115,1147.2115,1147.212,1148.0923,1,1,right,0.3683,,1148.093,1148.0933,1,1,,1148.0937,1148.094,1,1,,0,1148.094,1148.094,1148.0942,1149.5909,0,15,15,15,1,0.6,0.4,0.4,0.6,1,0,,,,,,,,,,,,,,,,,,,,,,,,,,,,,,,,,,,,
,,661094be457866d2fd65a77d,66fcbbf2c7b6d4fa066585b1,2024-10-01_22h21.16.515,mdp,2024.2.1,Win32,147.0588235,66fa4ebf79326e780c390304,,,,,,,,,,,,,,,,,,,,,1149.5911,1149.5911,1149.5915,1150.3123,0,0,left,0.2084,,1150.3127,1150.3131,1,0,,1150.3134,1150.3137,1,0,,1,1150.3137,1150.3137,1150.3139,1151.8107,0,16,16,16,1,0.6,0.4,0.4,0.6,1,0,,,,,,,,,,,,,,,,,,,,,,,,,,,,,,,,,,,,
,,661094be457866d2fd65a77d,66fcbbf2c7b6d4fa066585b1,2024-10-01_22h21.16.515,mdp,2024.2.1,Win32,147.0588235,66fa4ebf79326e780c390304,,,,,,,,,,,,,,,,,,,,,1151.8109,1151.8109,1151.8114,1152.574,0,0,left,0.2509,,1152.5745,1152.5748,1,0,,1152.5751,1152.5753,1,1,,1,1152.5754,1152.5754,1152.5756,1154.0723,0,17,17,17,1,0.4,0.6,0.6,0.4,1,0,,,,,,,,,,,,,,,,,,,,,,,,,,,,,,,,,,,,
,,661094be457866d2fd65a77d,66fcbbf2c7b6d4fa066585b1,2024-10-01_22h21.16.515,mdp,2024.2.1,Win32,147.0588235,66fa4ebf79326e780c390304,,,,,,,,,,,,,,,,,,,,,1154.0724,1154.0725,1154.0729,1154.7314,0,0,left,0.1478,,1154.7318,1154.7321,1,0,,1154.7323,1154.7324,1,0,,1,1154.7325,1154.7325,1154.7326,1156.2298,0,18,18,18,1,0.8,0.2,0.4,0.6,1,0,,,,,,,,,,,,,,,,,,,,,,,,,,,,,,,,,,,,
,,661094be457866d2fd65a77d,66fcbbf2c7b6d4fa066585b1,2024-10-01_22h21.16.515,mdp,2024.2.1,Win32,147.0588235,66fa4ebf79326e780c390304,,,,,,,,,,,,,,,,,,,,,1156.23,1156.23,1156.2305,1157.0067,0,1,left,0.2641,,1157.0072,1157.0076,1,1,,1157.0079,1157.008,1,1,,0,1157.008,1157.008,1157.0083,1158.5053,0,19,19,19,1,0.2,0.8,0.8,0.2,1,0,,,,,,,,,,,,,,,,,,,,,,,,,,,,,,,,,,,,
,,661094be457866d2fd65a77d,66fcbbf2c7b6d4fa066585b1,2024-10-01_22h21.16.515,mdp,2024.2.1,Win32,147.0588235,66fa4ebf79326e780c390304,,,,,,,,,,,,,,,,,,,,,1158.5055,1158.5055,1158.5059,1159.2197,1,0,right,0.2035,,1159.2202,1159.2204,1,0,,1159.2207,1159.221,1,0,,1,1159.221,1159.221,1159.2212,1160.7182,0,20,20,20,1,0.2,0.8,0.8,0.2,1,0,,,,,,,,,,,,,,,,,,,,,,,,,,,,,,,,,,,,
,,661094be457866d2fd65a77d,66fcbbf2c7b6d4fa066585b1,2024-10-01_22h21.16.515,mdp,2024.2.1,Win32,147.0588235,66fa4ebf79326e780c390304,,,,,,,,,,,,,,,,,,,,,1160.7184,1160.7184,1160.7189,1161.5161,1,0,right,0.2847,,1161.5165,1161.5169,1,0,,1161.5174,1161.5177,1,0,,1,1161.5177,1161.5177,1161.5179,1163.0144,0,21,21,21,1,0.2,0.8,0.8,0.2,1,0,,,,,,,,,,,,,,,,,,,,,,,,,,,,,,,,,,,,
,,661094be457866d2fd65a77d,66fcbbf2c7b6d4fa066585b1,2024-10-01_22h21.16.515,mdp,2024.2.1,Win32,147.0588235,66fa4ebf79326e780c390304,,,,,,,,,,,,,,,,,,,,,1163.0146,1163.0146,1163.015,1163.8035,1,0,right,0.278,,1163.8041,1163.8045,1,0,,1163.8048,1163.8052,1,0,,1,1163.8053,1163.8053,1163.8055,1165.3038,0,22,22,22,1,0.2,0.8,0.8,0.2,1,0,,,,,,,,,,,,,,,,,,,,,,,,,,,,,,,,,,,,
,,661094be457866d2fd65a77d,66fcbbf2c7b6d4fa066585b1,2024-10-01_22h21.16.515,mdp,2024.2.1,Win32,147.0588235,66fa4ebf79326e780c390304,,,,,,,,,,,,,,,,,,,,,1165.304,1165.304,1165.3045,1166.0807,1,0,right,0.2639,,1166.0813,1166.0818,1,0,,1166.0823,1166.0825,1,0,,1,1166.0826,1166.0826,1166.0828,1167.5794,0,23,23,23,1,0.8,0.2,0.6,0.4,1,0,,,,,,,,,,,,,,,,,,,,,,,,,,,,,,,,,,,,
,,661094be457866d2fd65a77d,66fcbbf2c7b6d4fa066585b1,2024-10-01_22h21.16.515,mdp,2024.2.1,Win32,147.0588235,66fa4ebf79326e780c390304,,,,,,,,,,,,,,,,,,,,,1167.5795,1167.5795,1167.58,1168.3077,1,0,right,0.2162,,1168.3081,1168.3085,1,0,,1168.3087,1168.3089,1,0,,1,1168.3089,1168.309,1168.3092,1169.8059,0,24,24,24,1,0.8,0.2,0.6,0.4,1,0,,,,,,,,,,,,,,,,,,,,,,,,,,,,,,,,,,,,
,,661094be457866d2fd65a77d,66fcbbf2c7b6d4fa066585b1,2024-10-01_22h21.16.515,mdp,2024.2.1,Win32,147.0588235,66fa4ebf79326e780c390304,,,,,,,,,,,,,,,,,,,,,1169.8061,1169.8061,1169.8066,1170.5276,1,1,right,0.2091,,1170.5282,1170.5285,1,1,,1170.5289,1170.5291,1,0,,0,1170.5291,1170.5292,1170.5294,1172.026,0,25,25,25,1,0.8,0.2,0.6,0.4,1,0,,,,,,,,,,,,,,,,,,,,,,,,,,,,,,,,,,,,
,,661094be457866d2fd65a77d,66fcbbf2c7b6d4fa066585b1,2024-10-01_22h21.16.515,mdp,2024.2.1,Win32,147.0588235,66fa4ebf79326e780c390304,,,,,,,,,,,,,,,,,,,,,1172.0262,1172.0262,1172.0266,1172.567,0,0,left,0.0295,,1172.5675,1172.5678,1,0,,1172.5681,1172.5683,1,0,,1,1172.5683,1172.5683,1172.5685,1174.0656,0,26,26,26,1,0.8,0.2,0.6,0.4,1,0,,,,,,,,,,,,,,,,,,,,,,,,,,,,,,,,,,,,
,,661094be457866d2fd65a77d,66fcbbf2c7b6d4fa066585b1,2024-10-01_22h21.16.515,mdp,2024.2.1,Win32,147.0588235,66fa4ebf79326e780c390304,,,,,,,,,,,,,,,,,,,,,1174.0658,1174.0658,1174.0663,1174.6831,0,1,left,0.1049,,1174.6836,1174.6838,1,0,,1174.6841,1174.6843,1,0,,0,1174.6843,1174.6843,1174.6845,1176.1814,0,27,27,27,1,0.8,0.2,0.6,0.4,1,0,,,,,,,,,,,,,,,,,,,,,,,,,,,,,,,,,,,,
,,661094be457866d2fd65a77d,66fcbbf2c7b6d4fa066585b1,2024-10-01_22h21.16.515,mdp,2024.2.1,Win32,147.0588235,66fa4ebf79326e780c390304,,,,,,,,,,,,,,,,,,,,,1176.1816,1176.1816,1176.182,1177.1458,1,0,right,0.4512,,1177.1462,1177.1466,1,0,,1177.1469,1177.1471,1,0,,1,1177.1471,1177.1471,1177.1472,1178.6443,0,28,28,28,1,0.4,0.6,0.8,0.2,1,0,,,,,,,,,,,,,,,,,,,,,,,,,,,,,,,,,,,,
,,661094be457866d2fd65a77d,66fcbbf2c7b6d4fa066585b1,2024-10-01_22h21.16.515,mdp,2024.2.1,Win32,147.0588235,66fa4ebf79326e780c390304,,,,,,,,,,,,,,,,,,,,,1178.6445,1178.6445,1178.6449,1179.4142,0,1,left,0.2571,,1179.4146,1179.415,1,0,,1179.4152,1179.4154,1,0,,0,1179.4155,1179.4155,1179.4156,1180.9126,0,29,29,29,1,0.4,0.6,0.8,0.2,1,0,,,,,,,,,,,,,,,,,,,,,,,,,,,,,,,,,,,,
,,661094be457866d2fd65a77d,66fcbbf2c7b6d4fa066585b1,2024-10-01_22h21.16.515,mdp,2024.2.1,Win32,147.0588235,66fa4ebf79326e780c390304,,,,,,,,,,,,,,,,,,,,,1180.9128,1180.9128,1180.9134,1181.5022,1,0,right,0.0782,,1181.5028,1181.503,1,1,,1181.5034,1181.5037,1,1,,1,1181.5037,1181.5037,1181.504,1183.0006,0,30,30,30,1,0.4,0.6,0.8,0.2,1,0,,,,,,,,,,,,,,,,,,,,,,,,,,,,,,,,,,,,
,,661094be457866d2fd65a77d,66fcbbf2c7b6d4fa066585b1,2024-10-01_22h21.16.515,mdp,2024.2.1,Win32,147.0588235,66fa4ebf79326e780c390304,,,,,,,,,,,,,,,,,,,,,1183.0009,1183.0009,1183.0013,1183.6321,1,0,right,0.118,,1183.6326,1183.6329,1,0,,1183.6332,1183.6334,1,0,,1,1183.6334,1183.6334,1183.6335,1185.1304,0,31,31,31,1,0.4,0.6,0.8,0.2,1,0,,,,,,,,,,,,,,,,,,,,,,,,,,,,,,,,,,,,
,,661094be457866d2fd65a77d,66fcbbf2c7b6d4fa066585b1,2024-10-01_22h21.16.515,mdp,2024.2.1,Win32,147.0588235,66fa4ebf79326e780c390304,,,,,,,,,,,,,,,,,,,,,1185.1306,1185.1306,1185.1311,1185.8936,1,1,right,0.2505,,1185.8942,1185.8947,1,0,,1185.8952,1185.8955,1,0,,0,1185.8955,1185.8955,1185.8957,1187.3919,0,32,32,32,1,0.4,0.6,0.8,0.2,1,0,,,,,,,,,,,,,,,,,,,,,,,,,,,,,,,,,,,,
,,661094be457866d2fd65a77d,66fcbbf2c7b6d4fa066585b1,2024-10-01_22h21.16.515,mdp,2024.2.1,Win32,147.0588235,66fa4ebf79326e780c390304,,,,,,,,,,,,,,,,,,,,,1187.3921,1187.3921,1187.3927,1188.0996,0,1,left,0.1962,,1188.1002,1188.1004,1,0,,1188.1008,1188.1011,1,1,,0,1188.1011,1188.1011,1188.1012,1189.5981,0,33,33,33,1,0.4,0.6,0.8,0.2,1,0,,,,,,,,,,,,,,,,,,,,,,,,,,,,,,,,,,,,
,,661094be457866d2fd65a77d,66fcbbf2c7b6d4fa066585b1,2024-10-01_22h21.16.515,mdp,2024.2.1,Win32,147.0588235,66fa4ebf79326e780c390304,,,,,,,,,,,,,,,,,,,,,1189.5983,1189.5983,1189.5988,1190.3334,1,0,right,0.2233,,1190.334,1190.3345,1,1,,1190.3351,1190.3356,1,0,,1,1190.3356,1190.3356,1190.3357,1191.8319,0,34,34,34,1,0.4,0.6,0.8,0.2,1,0,,,,,,,,,,,,,,,,,,,,,,,,,,,,,,,,,,,,
,,661094be457866d2fd65a77d,66fcbbf2c7b6d4fa066585b1,2024-10-01_22h21.16.515,mdp,2024.2.1,Win32,147.0588235,66fa4ebf79326e780c390304,,,,,,,,,,,,,,,,,,,,,1191.8321,1191.8321,1191.8324,1192.5534,0,0,left,0.2089,,1192.5539,1192.5542,1,0,,1192.5546,1192.5547,1,0,,1,1192.5548,1192.5548,1192.5548,1194.0518,0,35,35,35,1,0.8,0.2,0.2,0.8,1,0,,,,,,,,,,,,,,,,,,,,,,,,,,,,,,,,,,,,
,,661094be457866d2fd65a77d,66fcbbf2c7b6d4fa066585b1,2024-10-01_22h21.16.515,mdp,2024.2.1,Win32,147.0588235,66fa4ebf79326e780c390304,,,,,,,,,,,,,,,,,,,,,1194.0519,1194.0519,1194.0523,1194.8149,1,1,right,0.2517,,1194.8154,1194.8157,1,1,,1194.8161,1194.8163,1,1,,0,1194.8163,1194.8163,1194.8165,1196.3133,0,36,36,36,1,0.8,0.2,0.2,0.8,1,0,,,,,,,,,,,,,,,,,,,,,,,,,,,,,,,,,,,,
,,661094be457866d2fd65a77d,66fcbbf2c7b6d4fa066585b1,2024-10-01_22h21.16.515,mdp,2024.2.1,Win32,147.0588235,66fa4ebf79326e780c390304,,,,,,,,,,,,,,,,,,,,,1196.3134,1196.3134,1196.3138,1197.139,0,1,left,0.3144,,1197.1395,1197.1398,1,1,,1197.14,1197.1402,1,0,,0,1197.1402,1197.1402,1197.1404,1198.6373,0,37,37,37,1,0.6,0.4,0.8,0.2,1,0,,,,,,,,,,,,,,,,,,,,,,,,,,,,,,,,,,,,
,,661094be457866d2fd65a77d,66fcbbf2c7b6d4fa066585b1,2024-10-01_22h21.16.515,mdp,2024.2.1,Win32,147.0588235,66fa4ebf79326e780c390304,,,,,,,,,,,,,,,,,,,,,1198.6375,1198.6375,1198.6381,1199.442,0,0,left,0.2918,,1199.4426,1199.4428,1,1,,1199.4432,1199.4434,1,0,,1,1199.4434,1199.4434,1199.4436,1200.9405,0,38,38,38,1,0.8,0.2,0.6,0.4,1,0,,,,,,,,,,,,,,,,,,,,,,,,,,,,,,,,,,,,
,,661094be457866d2fd65a77d,66fcbbf2c7b6d4fa066585b1,2024-10-01_22h21.16.515,mdp,2024.2.1,Win32,147.0588235,66fa4ebf79326e780c390304,,,,,,,,,,,,,,,,,,,,,1200.9407,1200.9407,1200.9411,1201.8493,0,0,left,0.3997,,1201.8498,1201.8502,1,0,,1201.8508,1201.8512,1,0,,1,1201.8513,1201.8513,1201.8515,1203.3478,0,39,39,39,1,0.8,0.2,0.6,0.4,1,0,,,,,,,,,,,,,,,,,,,,,,,,,,,,,,,,,,,,
,,661094be457866d2fd65a77d,66fcbbf2c7b6d4fa066585b1,2024-10-01_22h21.16.515,mdp,2024.2.1,Win32,147.0588235,66fa4ebf79326e780c390304,,,,,,,,,,,,,,,,,,,,,1203.348,1203.348,1203.3486,1204.1038,1,0,right,0.2444,,1204.1043,1204.1046,1,0,,1204.1049,1204.1051,1,0,,1,1204.1051,1204.1051,1204.1053,1205.6024,0,40,40,40,1,0.2,0.8,0.8,0.2,1,0,,,,,,,,,,,,,,,,,,,,,,,,,,,,,,,,,,,,
,,661094be457866d2fd65a77d,66fcbbf2c7b6d4fa066585b1,2024-10-01_22h21.16.515,mdp,2024.2.1,Win32,147.0588235,66fa4ebf79326e780c390304,,,,,,,,,,,,,,,,,,,,,1205.6026,1205.6026,1205.603,1206.6014,1,0,right,0.4861,,1206.6019,1206.6028,1,0,,1206.6033,1206.6035,1,1,,1,1206.6035,1206.6035,1206.6037,1208.0999,0,41,41,41,1,0.2,0.8,0.8,0.2,1,0,,,,,,,,,,,,,,,,,,,,,,,,,,,,,,,,,,,,
