init_exp.started,init_exp.stopped,participant,session,date,expName,psychopyVersion,OS,frameRate,study_id,disp_instruction.started,disp_instruction.stopped,instruction.thisRepN,instruction.thisTrialN,instruction.thisN,instruction.thisIndex,instruction.ran,instimg_path,consent.started,consent.stopped,key_resp_3.keys,key_resp_3.rt,key_resp_3.duration,n_steps,sequence_path,init_block.started,init_block.stopped,key_resp.keys,key_resp.rt,key_resp.duration,init_trials.started,init_trials.stopped,step0.started,step0.stopped,act0,s1,res0.keys,res0.rt,res0.duration,step1.started,step1.stopped,act1,s2,res1.keys,step2.started,step2.stopped,act2,s3,res2.keys,rew,reward_comp.started,reward_comp.stopped,reward_disp.started,reward_disp.stopped,trials.thisRepN,trials.thisTrialN,trials.thisN,trials.thisIndex,trials.ran,s00a0s10,s00a0s11,s00a1s10,s00a1s11,rew10,rew11,break_block.started,break_block.stopped,block.thisRepN,block.thisTrialN,block.thisN,block.thisIndex,block.ran,s00path,s10path,s11path,s20path,s21path,res1.rt,res1.duration,s10a0s20,s10a0s21,s10a1s20,s10a1s21,s11a0s20,s11a0s21,s11a1s20,s11a1s21,rew20,rew21,res2.rt,res2.duration,s20a0s30,s20a0s31,s20a1s30,s20a1s31,s21a0s30,s21a0s31,s21a1s30,s21a1s31,rew30,rew31
0,0.001,66159b3aa54492fae356f2d1,66fc9a4bd1cbeb8e180b8272,2024-10-02_03h58.47.557,mdp,2024.2.1,Win32,166.6666667,66fa4ebf79326e780c390304,,,,,,,,,,,,,,,,,,,,,,,,,,,,,,,,,,,,,,,,,,,,,,,,,,,,,,,,,,,,,,,,,,,,,,,,,,,,,,,,,,,,,,,,,,,
,,66159b3aa54492fae356f2d1,66fc9a4bd1cbeb8e180b8272,2024-10-02_03h58.47.557,mdp,2024.2.1,Win32,166.6666667,66fa4ebf79326e780c390304,0.004,44.521,0,0,0,0,1,rlnn_exp/rlnn_exp.001.png,,,,,,,,,,,,,,,,,,,,,,,,,,,,,,,,,,,,,,,,,,,,,,,,,,,,,,,,,,,,,,,,,,,,,,,,,,,,,,,,,,,
,,66159b3aa54492fae356f2d1,66fc9a4bd1cbeb8e180b8272,2024-10-02_03h58.47.557,mdp,2024.2.1,Win32,166.6666667,66fa4ebf79326e780c390304,44.521,126.267,0,1,1,1,1,rlnn_exp/rlnn_exp.002.png,,,,,,,,,,,,,,,,,,,,,,,,,,,,,,,,,,,,,,,,,,,,,,,,,,,,,,,,,,,,,,,,,,,,,,,,,,,,,,,,,,,
,,66159b3aa54492fae356f2d1,66fc9a4bd1cbeb8e180b8272,2024-10-02_03h58.47.557,mdp,2024.2.1,Win32,166.6666667,66fa4ebf79326e780c390304,126.274,148.515,0,2,2,2,1,rlnn_exp/rlnn_exp.003.png,,,,,,,,,,,,,,,,,,,,,,,,,,,,,,,,,,,,,,,,,,,,,,,,,,,,,,,,,,,,,,,,,,,,,,,,,,,,,,,,,,,
,,66159b3aa54492fae356f2d1,66fc9a4bd1cbeb8e180b8272,2024-10-02_03h58.47.557,mdp,2024.2.1,Win32,166.6666667,66fa4ebf79326e780c390304,148.52,170.012,0,3,3,3,1,rlnn_exp/rlnn_exp.004.png,,,,,,,,,,,,,,,,,,,,,,,,,,,,,,,,,,,,,,,,,,,,,,,,,,,,,,,,,,,,,,,,,,,,,,,,,,,,,,,,,,,
,,66159b3aa54492fae356f2d1,66fc9a4bd1cbeb8e180b8272,2024-10-02_03h58.47.557,mdp,2024.2.1,Win32,166.6666667,66fa4ebf79326e780c390304,,,,,,,,,170.018,194.034,y,14.002,,,,,,,,,,,,,,,,,,,,,,,,,,,,,,,,,,,,,,,,,,,,,,,,,,,,,,,,,,,,,,,,,,,,,,,,,,,,,,,
,,66159b3aa54492fae356f2d1,66fc9a4bd1cbeb8e180b8272,2024-10-02_03h58.47.557,mdp,2024.2.1,Win32,166.6666667,66fa4ebf79326e780c390304,,,,,,,,,,,,,,1,seqs/st1seq20.csv,194.043,196.718,space,2.168,,196.72,196.72,196.72,198.762,1,0,right,1.523,,198.763,198.764,,1,,198.764,198.764,,0,,1,198.765,198.765,198.766,200.265,0,0,0,0,1,0.6,0.4,0.4,0.6,1,0,,,,,,,,,,,,,,,,,,,,,,,,,,,,,,,,,,,,
,,66159b3aa54492fae356f2d1,66fc9a4bd1cbeb8e180b8272,2024-10-02_03h58.47.557,mdp,2024.2.1,Win32,166.6666667,66fa4ebf79326e780c390304,,,,,,,,,,,,,,,,,,,,,200.266,200.266,200.266,201.78,1,1,right,1.004,,201.781,201.781,,1,,201.782,201.782,,0,,0,201.782,201.782,201.782,203.283,0,1,1,1,1,0.6,0.4,0.4,0.6,1,0,,,,,,,,,,,,,,,,,,,,,,,,,,,,,,,,,,,,
,,66159b3aa54492fae356f2d1,66fc9a4bd1cbeb8e180b8272,2024-10-02_03h58.47.557,mdp,2024.2.1,Win32,166.6666667,66fa4ebf79326e780c390304,,,,,,,,,,,,,,,,,,,,,203.283,203.283,203.284,204.771,1,0,right,0.984,,204.772,204.772,,1,,204.773,204.773,,0,,1,204.773,204.773,204.773,206.274,0,2,2,2,1,0.6,0.4,0.4,0.6,1,0,,,,,,,,,,,,,,,,,,,,,,,,,,,,,,,,,,,,
,,66159b3aa54492fae356f2d1,66fc9a4bd1cbeb8e180b8272,2024-10-02_03h58.47.557,mdp,2024.2.1,Win32,166.6666667,66fa4ebf79326e780c390304,,,,,,,,,,,,,,,,,,,,,206.274,206.274,206.274,207.373,0,0,left,0.593,,207.374,207.374,,0,,207.375,207.375,,1,,1,207.375,207.375,207.375,208.875,0,3,3,3,1,0.6,0.4,0.4,0.6,1,0,,,,,,,,,,,,,,,,,,,,,,,,,,,,,,,,,,,,
,,66159b3aa54492fae356f2d1,66fc9a4bd1cbeb8e180b8272,2024-10-02_03h58.47.557,mdp,2024.2.1,Win32,166.6666667,66fa4ebf79326e780c390304,,,,,,,,,,,,,,,,,,,,,208.875,208.875,208.876,209.744,1,1,right,0.363,,209.745,209.745,,0,,209.745,209.745,,1,,0,209.745,209.745,209.746,211.245,0,4,4,4,1,0.6,0.4,0.4,0.6,1,0,,,,,,,,,,,,,,,,,,,,,,,,,,,,,,,,,,,,
,,66159b3aa54492fae356f2d1,66fc9a4bd1cbeb8e180b8272,2024-10-02_03h58.47.557,mdp,2024.2.1,Win32,166.6666667,66fa4ebf79326e780c390304,,,,,,,,,,,,,,,,,,,,,211.246,211.246,211.246,213.729,1,1,right,1.973,,213.73,213.73,,1,,213.731,213.731,,0,,0,213.731,213.731,213.731,215.231,0,5,5,5,1,0.6,0.4,0.4,0.6,1,0,,,,,,,,,,,,,,,,,,,,,,,,,,,,,,,,,,,,
,,66159b3aa54492fae356f2d1,66fc9a4bd1cbeb8e180b8272,2024-10-02_03h58.47.557,mdp,2024.2.1,Win32,166.6666667,66fa4ebf79326e780c390304,,,,,,,,,,,,,,,,,,,,,215.231,215.231,215.232,216.803,1,1,right,1.067,,216.804,216.804,,1,,216.804,216.805,,1,,0,216.805,216.805,216.805,218.305,0,6,6,6,1,0.6,0.4,0.4,0.6,1,0,,,,,,,,,,,,,,,,,,,,,,,,,,,,,,,,,,,,
,,66159b3aa54492fae356f2d1,66fc9a4bd1cbeb8e180b8272,2024-10-02_03h58.47.557,mdp,2024.2.1,Win32,166.6666667,66fa4ebf79326e780c390304,,,,,,,,,,,,,,,,,,,,,218.305,218.305,218.306,219.098,1,1,right,0.288,,219.099,219.099,,1,,219.1,219.1,,0,,0,219.1,219.1,219.1,220.6,0,7,7,7,1,0.6,0.4,0.4,0.6,1,0,,,,,,,,,,,,,,,,,,,,,,,,,,,,,,,,,,,,
,,66159b3aa54492fae356f2d1,66fc9a4bd1cbeb8e180b8272,2024-10-02_03h58.47.557,mdp,2024.2.1,Win32,166.6666667,66fa4ebf79326e780c390304,,,,,,,,,,,,,,,,,,,,,220.601,220.601,220.602,221.581,0,0,left,0.477,,221.581,221.581,,1,,221.581,221.582,,0,,1,221.582,221.582,221.582,223.077,0,8,8,8,1,0.6,0.4,0.4,0.6,1,0,,,,,,,,,,,,,,,,,,,,,,,,,,,,,,,,,,,,
,,66159b3aa54492fae356f2d1,66fc9a4bd1cbeb8e180b8272,2024-10-02_03h58.47.557,mdp,2024.2.1,Win32,166.6666667,66fa4ebf79326e780c390304,,,,,,,,,,,,,,,,,,,,,223.077,223.077,223.078,225.941,0,0,left,2.35,,225.942,225.942,,1,,225.942,225.943,,0,,1,225.943,225.943,225.943,227.443,0,9,9,9,1,0.6,0.4,0.4,0.6,1,0,,,,,,,,,,,,,,,,,,,,,,,,,,,,,,,,,,,,
,,66159b3aa54492fae356f2d1,66fc9a4bd1cbeb8e180b8272,2024-10-02_03h58.47.557,mdp,2024.2.1,Win32,166.6666667,66fa4ebf79326e780c390304,,,,,,,,,,,,,,,,,,,,,227.444,227.444,227.444,228.375,1,1,right,0.43,,228.376,228.377,,1,,228.377,228.377,,0,,0,228.377,228.377,228.377,229.877,0,10,10,10,1,0.6,0.4,0.4,0.6,1,0,,,,,,,,,,,,,,,,,,,,,,,,,,,,,,,,,,,,
,,66159b3aa54492fae356f2d1,66fc9a4bd1cbeb8e180b8272,2024-10-02_03h58.47.557,mdp,2024.2.1,Win32,166.6666667,66fa4ebf79326e780c390304,,,,,,,,,,,,,,,,,,,,,229.877,229.877,229.878,230.712,0,0,left,0.333,,230.712,230.713,,0,,230.714,230.714,,0,,1,230.714,230.714,230.714,232.214,0,11,11,11,1,0.6,0.4,0.4,0.6,1,0,,,,,,,,,,,,,,,,,,,,,,,,,,,,,,,,,,,,
,,66159b3aa54492fae356f2d1,66fc9a4bd1cbeb8e180b8272,2024-10-02_03h58.47.557,mdp,2024.2.1,Win32,166.6666667,66fa4ebf79326e780c390304,,,,,,,,,,,,,,,,,,,,,232.214,232.214,232.214,233.361,0,1,left,0.645,,233.362,233.363,,0,,233.363,233.363,,1,,0,233.363,233.363,233.363,234.864,0,12,12,12,1,0.6,0.4,0.4,0.6,1,0,,,,,,,,,,,,,,,,,,,,,,,,,,,,,,,,,,,,
,,66159b3aa54492fae356f2d1,66fc9a4bd1cbeb8e180b8272,2024-10-02_03h58.47.557,mdp,2024.2.1,Win32,166.6666667,66fa4ebf79326e780c390304,,,,,,,,,,,,,,,,,,,,,234.865,234.865,234.865,235.427,1,0,right,0.049,,235.429,235.429,,0,,235.43,235.43,,0,,1,235.43,235.43,235.43,236.929,0,13,13,13,1,0.2,0.8,0.8,0.2,1,0,,,,,,,,,,,,,,,,,,,,,,,,,,,,,,,,,,,,
,,66159b3aa54492fae356f2d1,66fc9a4bd1cbeb8e180b8272,2024-10-02_03h58.47.557,mdp,2024.2.1,Win32,166.6666667,66fa4ebf79326e780c390304,,,,,,,,,,,,,,,,,,,,,236.929,236.929,236.93,237.904,1,1,right,0.467,,237.904,237.904,,0,,237.904,237.905,,1,,0,237.905,237.905,237.906,239.405,0,14,14,14,1,0.2,0.8,0.8,0.2,1,0,,,,,,,,,,,,,,,,,,,,,,,,,,,,,,,,,,,,
,,66159b3aa54492fae356f2d1,66fc9a4bd1cbeb8e180b8272,2024-10-02_03h58.47.557,mdp,2024.2.1,Win32,166.6666667,66fa4ebf79326e780c390304,,,,,,,,,,,,,,,,,,,,,239.406,239.406,239.406,240.17,0,1,left,0.259,,240.171,240.171,,1,,240.171,240.171,,1,,0,240.171,240.171,240.171,241.672,0,15,15,15,1,0.2,0.8,0.8,0.2,1,0,,,,,,,,,,,,,,,,,,,,,,,,,,,,,,,,,,,,
,,66159b3aa54492fae356f2d1,66fc9a4bd1cbeb8e180b8272,2024-10-02_03h58.47.557,mdp,2024.2.1,Win32,166.6666667,66fa4ebf79326e780c390304,,,,,,,,,,,,,,,,,,,,,241.673,241.673,241.674,242.473,0,1,left,0.292,,242.473,242.473,,1,,242.473,242.473,,1,,0,242.473,242.473,242.473,243.975,0,16,16,16,1,0.2,0.8,0.8,0.2,1,0,,,,,,,,,,,,,,,,,,,,,,,,,,,,,,,,,,,,
,,66159b3aa54492fae356f2d1,66fc9a4bd1cbeb8e180b8272,2024-10-02_03h58.47.557,mdp,2024.2.1,Win32,166.6666667,66fa4ebf79326e780c390304,,,,,,,,,,,,,,,,,,,,,243.975,243.975,243.975,246.931,1,0,right,2.448,,246.936,246.937,,0,,246.937,246.937,,1,,1,246.937,246.937,246.937,248.439,0,17,17,17,1,0.2,0.8,0.8,0.2,1,0,,,,,,,,,,,,,,,,,,,,,,,,,,,,,,,,,,,,
,,66159b3aa54492fae356f2d1,66fc9a4bd1cbeb8e180b8272,2024-10-02_03h58.47.557,mdp,2024.2.1,Win32,166.6666667,66fa4ebf79326e780c390304,,,,,,,,,,,,,,,,,,,,,248.44,248.44,248.44,249.42,1,1,right,0.473,,249.42,249.421,,1,,249.422,249.422,,1,,0,249.422,249.422,249.423,250.922,0,18,18,18,1,0.4,0.6,0.6,0.4,1,0,,,,,,,,,,,,,,,,,,,,,,,,,,,,,,,,,,,,
,,66159b3aa54492fae356f2d1,66fc9a4bd1cbeb8e180b8272,2024-10-02_03h58.47.557,mdp,2024.2.1,Win32,166.6666667,66fa4ebf79326e780c390304,,,,,,,,,,,,,,,,,,,,,250.923,250.923,250.923,251.451,0,1,left,0.02,,251.452,251.452,,0,,251.452,251.452,,0,,0,251.452,251.452,251.453,252.953,0,19,19,19,1,0.4,0.6,0.6,0.4,1,0,,,,,,,,,,,,,,,,,,,,,,,,,,,,,,,,,,,,
,,66159b3aa54492fae356f2d1,66fc9a4bd1cbeb8e180b8272,2024-10-02_03h58.47.557,mdp,2024.2.1,Win32,166.6666667,66fa4ebf79326e780c390304,,,,,,,,,,,,,,,,,,,,,252.953,252.953,252.954,254.768,1,0,right,1.31,,254.769,254.769,,0,,254.769,254.769,,1,,1,254.769,254.769,254.77,256.27,0,20,20,20,1,0.2,0.8,0.8,0.2,1,0,,,,,,,,,,,,,,,,,,,,,,,,,,,,,,,,,,,,
,,66159b3aa54492fae356f2d1,66fc9a4bd1cbeb8e180b8272,2024-10-02_03h58.47.557,mdp,2024.2.1,Win32,166.6666667,66fa4ebf79326e780c390304,,,,,,,,,,,,,,,,,,,,,256.27,256.27,256.271,258.308,1,0,right,1.536,,258.309,258.309,,0,,258.309,258.309,,0,,1,258.309,258.309,258.31,259.804,0,21,21,21,1,0.2,0.8,0.8,0.2,1,0,,,,,,,,,,,,,,,,,,,,,,,,,,,,,,,,,,,,
,,66159b3aa54492fae356f2d1,66fc9a4bd1cbeb8e180b8272,2024-10-02_03h58.47.557,mdp,2024.2.1,Win32,166.6666667,66fa4ebf79326e780c390304,,,,,,,,,,,,,,,,,,,,,259.804,259.804,259.805,261.133,0,0,left,0.822,,261.134,261.134,,0,,261.134,261.134,,0,,1,261.134,261.134,261.135,262.635,0,22,22,22,1,0.8,0.2,0.2,0.8,1,0,,,,,,,,,,,,,,,,,,,,,,,,,,,,,,,,,,,,
,,66159b3aa54492fae356f2d1,66fc9a4bd1cbeb8e180b8272,2024-10-02_03h58.47.557,mdp,2024.2.1,Win32,166.6666667,66fa4ebf79326e780c390304,,,,,,,,,,,,,,,,,,,,,262.635,262.635,262.635,263.956,1,1,right,0.814,,263.956,263.957,,1,,263.958,263.958,,0,,0,263.958,263.958,263.958,265.459,0,23,23,23,1,0.8,0.2,0.2,0.8,1,0,,,,,,,,,,,,,,,,,,,,,,,,,,,,,,,,,,,,
,,66159b3aa54492fae356f2d1,66fc9a4bd1cbeb8e180b8272,2024-10-02_03h58.47.557,mdp,2024.2.1,Win32,166.6666667,66fa4ebf79326e780c390304,,,,,,,,,,,,,,,,,,,,,265.459,265.459,265.46,266.585,0,1,left,0.615,,266.585,266.586,,0,,266.586,266.586,,0,,0,266.586,266.586,266.587,268.087,0,24,24,24,1,0.8,0.2,0.2,0.8,1,0,,,,,,,,,,,,,,,,,,,,,,,,,,,,,,,,,,,,
,,66159b3aa54492fae356f2d1,66fc9a4bd1cbeb8e180b8272,2024-10-02_03h58.47.557,mdp,2024.2.1,Win32,166.6666667,66fa4ebf79326e780c390304,,,,,,,,,,,,,,,,,,,,,268.087,268.087,268.088,268.782,1,1,right,0.188,,268.783,268.784,,0,,268.785,268.785,,0,,0,268.785,268.785,268.785,270.285,0,25,25,25,1,0.6,0.4,0.4,0.6,1,0,,,,,,,,,,,,,,,,,,,,,,,,,,,,,,,,,,,,
,,66159b3aa54492fae356f2d1,66fc9a4bd1cbeb8e180b8272,2024-10-02_03h58.47.557,mdp,2024.2.1,Win32,166.6666667,66fa4ebf79326e780c390304,,,,,,,,,,,,,,,,,,,,,270.285,270.285,270.286,270.827,1,0,right,0.037,,270.827,270.828,,1,,270.828,270.828,,0,,1,270.828,270.828,270.829,272.329,0,26,26,26,1,0.6,0.4,0.4,0.6,1,0,,,,,,,,,,,,,,,,,,,,,,,,,,,,,,,,,,,,
,,66159b3aa54492fae356f2d1,66fc9a4bd1cbeb8e180b8272,2024-10-02_03h58.47.557,mdp,2024.2.1,Win32,166.6666667,66fa4ebf79326e780c390304,,,,,,,,,,,,,,,,,,,,,272.33,272.33,272.33,274.005,1,1,right,1.174,,274.006,274.006,,1,,274.007,274.007,,1,,0,274.007,274.007,274.007,275.508,0,27,27,27,1,0.6,0.4,0.4,0.6,1,0,,,,,,,,,,,,,,,,,,,,,,,,,,,,,,,,,,,,
,,66159b3aa54492fae356f2d1,66fc9a4bd1cbeb8e180b8272,2024-10-02_03h58.47.557,mdp,2024.2.1,Win32,166.6666667,66fa4ebf79326e780c390304,,,,,,,,,,,,,,,,,,,,,275.508,275.508,275.509,276.161,0,1,left,0.147,,276.161,276.162,,0,,276.163,276.163,,0,,0,276.163,276.163,276.163,277.663,0,28,28,28,1,0.6,0.4,0.4,0.6,1,0,,,,,,,,,,,,,,,,,,,,,,,,,,,,,,,,,,,,
,,66159b3aa54492fae356f2d1,66fc9a4bd1cbeb8e180b8272,2024-10-02_03h58.47.557,mdp,2024.2.1,Win32,166.6666667,66fa4ebf79326e780c390304,,,,,,,,,,,,,,,,,,,,,277.664,277.664,277.665,278.324,0,0,left,0.156,,278.324,278.324,,1,,278.324,278.324,,0,,1,278.324,278.324,278.325,279.826,0,29,29,29,1,0.6,0.4,0.4,0.6,1,0,,,,,,,,,,,,,,,,,,,,,,,,,,,,,,,,,,,,
,,66159b3aa54492fae356f2d1,66fc9a4bd1cbeb8e180b8272,2024-10-02_03h58.47.557,mdp,2024.2.1,Win32,166.6666667,66fa4ebf79326e780c390304,,,,,,,,,,,,,,,,,,,,,279.826,279.826,279.826,280.862,0,0,left,0.528,,280.864,280.865,,0,,280.865,280.865,,0,,1,280.865,280.865,280.865,282.365,0,30,30,30,1,0.6,0.4,0.4,0.6,1,0,,,,,,,,,,,,,,,,,,,,,,,,,,,,,,,,,,,,
,,66159b3aa54492fae356f2d1,66fc9a4bd1cbeb8e180b8272,2024-10-02_03h58.47.557,mdp,2024.2.1,Win32,166.6666667,66fa4ebf79326e780c390304,,,,,,,,,,,,,,,,,,,,,282.366,282.366,282.366,283.895,1,0,right,1.021,,283.896,283.897,,0,,283.897,283.897,,1,,1,283.897,283.897,283.897,285.397,0,31,31,31,1,0.6,0.4,0.4,0.6,1,0,,,,,,,,,,,,,,,,,,,,,,,,,,,,,,,,,,,,
,,66159b3aa54492fae356f2d1,66fc9a4bd1cbeb8e180b8272,2024-10-02_03h58.47.557,mdp,2024.2.1,Win32,166.6666667,66fa4ebf79326e780c390304,,,,,,,,,,,,,,,,,,,,,285.398,285.398,285.398,286.587,1,0,right,0.684,,286.587,286.588,,1,,286.588,286.588,,1,,1,286.588,286.588,286.588,288.089,0,32,32,32,1,0.6,0.4,0.4,0.6,1,0,,,,,,,,,,,,,,,,,,,,,,,,,,,,,,,,,,,,
,,66159b3aa54492fae356f2d1,66fc9a4bd1cbeb8e180b8272,2024-10-02_03h58.47.557,mdp,2024.2.1,Win32,166.6666667,66fa4ebf79326e780c390304,,,,,,,,,,,,,,,,,,,,,288.089,288.089,288.09,291.289,0,1,left,2.692,,291.295,291.295,,1,,291.295,291.295,,1,,0,291.295,291.295,291.296,292.79,0,33,33,33,1,0.4,0.6,0.8,0.2,1,0,,,,,,,,,,,,,,,,,,,,,,,,,,,,,,,,,,,,
,,66159b3aa54492fae356f2d1,66fc9a4bd1cbeb8e180b8272,2024-10-02_03h58.47.557,mdp,2024.2.1,Win32,166.6666667,66fa4ebf79326e780c390304,,,,,,,,,,,,,,,,,,,,,292.79,292.79,292.792,294.097,0,0,left,0.802,,294.098,294.099,,0,,294.099,294.099,,1,,1,294.099,294.099,294.099,295.599,0,34,34,34,1,0.8,0.2,0.4,0.6,1,0,,,,,,,,,,,,,,,,,,,,,,,,,,,,,,,,,,,,
,,66159b3aa54492fae356f2d1,66fc9a4bd1cbeb8e180b8272,2024-10-02_03h58.47.557,mdp,2024.2.1,Win32,166.6666667,66fa4ebf79326e780c390304,,,,,,,,,,,,,,,,,,,,,295.601,295.601,295.601,296.741,0,1,left,0.626,,296.741,296.741,,0,,296.742,296.742,,0,,0,296.742,296.742,296.742,298.242,0,35,35,35,1,0.8,0.2,0.4,0.6,1,0,,,,,,,,,,,,,,,,,,,,,,,,,,,,,,,,,,,,
,,66159b3aa54492fae356f2d1,66fc9a4bd1cbeb8e180b8272,2024-10-02_03h58.47.557,mdp,2024.2.1,Win32,166.6666667,66fa4ebf79326e780c390304,,,,,,,,,,,,,,,,,,,,,298.242,298.242,298.243,299.021,1,1,right,0.275,,299.022,299.022,,0,,299.022,299.023,,0,,0,299.023,299.023,299.023,300.524,0,36,36,36,1,0.8,0.2,0.4,0.6,1,0,,,,,,,,,,,,,,,,,,,,,,,,,,,,,,,,,,,,
,,66159b3aa54492fae356f2d1,66fc9a4bd1cbeb8e180b8272,2024-10-02_03h58.47.557,mdp,2024.2.1,Win32,166.6666667,66fa4ebf79326e780c390304,,,,,,,,,,,,,,,,,,,,,300.524,300.524,300.525,302.158,0,1,left,1.128,,302.159,302.16,,1,,302.16,302.16,,0,,0,302.16,302.16,302.16,303.66,0,37,37,37,1,0.6,0.4,0.6,0.4,1,0,,,,,,,,,,,,,,,,,,,,,,,,,,,,,,,,,,,,
,,66159b3aa54492fae356f2d1,66fc9a4bd1cbeb8e180b8272,2024-10-02_03h58.47.557,mdp,2024.2.1,Win32,166.6666667,66fa4ebf79326e780c390304,,,,,,,,,,,,,,,,,,,,,303.66,303.66,303.661,304.746,0,0,left,0.579,,304.746,304.746,,0,,304.747,304.747,,0,,1,304.747,304.747,304.747,306.248,0,38,38,38,1,0.6,0.4,0.6,0.4,1,0,,,,,,,,,,,,,,,,,,,,,,,,,,,,,,,,,,,,
,,66159b3aa54492fae356f2d1,66fc9a4bd1cbeb8e180b8272,2024-10-02_03h58.47.557,mdp,2024.2.1,Win32,166.6666667,66fa4ebf79326e780c390304,,,,,,,,,,,,,,,,,,,,,306.248,306.248,306.249,307.2,0,0,left,0.44,,307.202,307.202,,1,,307.202,307.203,,0,,1,307.203,307.203,307.203,308.701,0,39,39,39,1,0.8,0.2,0.8,0.2,1,0,,,,,,,,,,,,,,,,,,,,,,,,,,,,,,,,,,,,
,,66159b3aa54492fae356f2d1,66fc9a4bd1cbeb8e180b8272,2024-10-02_03h58.47.557,mdp,2024.2.1,Win32,166.6666667,66fa4ebf79326e780c390304,,,,,,,,,,,,,,,,,,,,,308.702,308.702,308.704,310.754,1,0,right,1.542,,310.754,310.755,,0,,310.756,310.756,,0,,1,310.756,310.756,310.756,312.256,0,40,40,40,1,0.8,0.2,0.8,0.2,1,0,,,,,,,,,,,,,,,,,,,,,,,,,,,,,,,,,,,,
,,66159b3aa54492fae356f2d1,66fc9a4bd1cbeb8e180b8272,2024-10-02_03h58.47.557,mdp,2024.2.1,Win32,166.6666667,66fa4ebf79326e780c390304,,,,,,,,,,,,,,,,,,,,,312.256,312.256,312.257,313.772,0,1,left,1.01,,313.773,313.774,,1,,313.774,313.775,,0,,0,313.775,313.775,313.775,315.274,0,41,41,41,1,0.8,0.2,0.8,0.2,1,0,,,,,,,,,,,,,,,,,,,,,,,,,,,,,,,,,,,,
,,66159b3aa54492fae356f2d1,66fc9a4bd1cbeb8e180b8272,2024-10-02_03h58.47.557,mdp,2024.2.1,Win32,166.6666667,66fa4ebf79326e780c390304,,,,,,,,,,,,,,,,,,,,,315.275,315.275,315.276,316.332,0,0,left,0.552,,316.332,316.333,,0,,316.333,316.333,,0,,1,316.333,316.333,316.333,317.834,0,42,42,42,1,0.8,0.2,0.8,0.2,1,0,,,,,,,,,,,,,,,,,,,,,,,,,,,,,,,,,,,,
,,66159b3aa54492fae356f2d1,66fc9a4bd1cbeb8e180b8272,2024-10-02_03h58.47.557,mdp,2024.2.1,Win32,166.6666667,66fa4ebf79326e780c390304,,,,,,,,,,,,,,,,,,,,,317.834,317.834,317.835,318.564,0,0,left,0.223,,318.565,318.566,,0,,318.566,318.566,,0,,1,318.566,318.566,318.566,320.067,0,43,43,43,1,0.6,0.4,0.2,0.8,1,0,,,,,,,,,,,,,,,,,,,,,,,,,,,,,,,,,,,,
,,66159b3aa54492fae356f2d1,66fc9a4bd1cbeb8e180b8272,2024-10-02_03h58.47.557,mdp,2024.2.1,Win32,166.6666667,66fa4ebf79326e780c390304,,,,,,,,,,,,,,,,,,,,,320.067,320.067,320.068,320.894,1,1,right,0.322,,320.894,320.894,,0,,320.895,320.895,,1,,0,320.895,320.895,320.895,322.396,0,44,44,44,1,0.4,0.6,0.8,0.2,1,0,,,,,,,,,,,,,,,,,,,,,,,,,,,,,,,,,,,,
,,66159b3aa54492fae356f2d1,66fc9a4bd1cbeb8e180b8272,2024-10-02_03h58.47.557,mdp,2024.2.1,Win32,166.6666667,66fa4ebf79326e780c390304,,,,,,,,,,,,,,,,,,,,,322.396,322.396,322.396,323.258,1,1,right,0.359,,323.259,323.259,,1,,323.259,323.259,,0,,0,323.259,323.259,323.259,324.754,0,45,45,45,1,0.8,0.2,0.4,0.6,1,0,,,,,,,,,,,,,,,,,,,,,,,,,,,,,,,,,,,,
,,66159b3aa54492fae356f2d1,66fc9a4bd1cbeb8e180b8272,2024-10-02_03h58.47.557,mdp,2024.2.1,Win32,166.6666667,66fa4ebf79326e780c390304,,,,,,,,,,,,,,,,,,,,,324.754,324.754,324.755,326.054,1,0,right,0.794,,326.055,326.056,,0,,326.056,326.056,,0,,1,326.056,326.056,326.057,327.556,0,46,46,46,1,0.8,0.2,0.4,0.6,1,0,,,,,,,,,,,,,,,,,,,,,,,,,,,,,,,,,,,,
,,66159b3aa54492fae356f2d1,66fc9a4bd1cbeb8e180b8272,2024-10-02_03h58.47.557,mdp,2024.2.1,Win32,166.6666667,66fa4ebf79326e780c390304,,,,,,,,,,,,,,,,,,,,,327.556,327.556,327.557,329.024,1,1,right,0.962,,329.025,329.025,,1,,329.026,329.027,,0,,0,329.027,329.027,329.027,330.526,0,47,47,47,1,0.8,0.2,0.4,0.6,1,0,,,,,,,,,,,,,,,,,,,,,,,,,,,,,,,,,,,,
,,66159b3aa54492fae356f2d1,66fc9a4bd1cbeb8e180b8272,2024-10-02_03h58.47.557,mdp,2024.2.1,Win32,166.6666667,66fa4ebf79326e780c390304,,,,,,,,,,,,,,,,,,,,,330.526,330.526,330.528,331.304,1,0,right,0.273,,331.305,331.305,,0,,331.306,331.307,,0,,1,331.307,331.307,331.307,332.807,0,48,48,48,1,0.8,0.2,0.4,0.6,1,0,,,,,,,,,,,,,,,,,,,,,,,,,,,,,,,,,,,,
,,66159b3aa54492fae356f2d1,66fc9a4bd1cbeb8e180b8272,2024-10-02_03h58.47.557,mdp,2024.2.1,Win32,166.6666667,66fa4ebf79326e780c390304,,,,,,,,,,,,,,,,,,,,,332.808,332.808,332.808,334.289,0,0,left,0.976,,334.29,334.29,,1,,334.291,334.291,,0,,1,334.291,334.291,334.291,335.79,0,49,49,49,1,0.8,0.2,0.4,0.6,1,0,,,,,,,,,,,,,,,,,,,,,,,,,,,,,,,,,,,,
,,66159b3aa54492fae356f2d1,66fc9a4bd1cbeb8e180b8272,2024-10-02_03h58.47.557,mdp,2024.2.1,Win32,166.6666667,66fa4ebf79326e780c390304,,,,,,,,,,,,,,,,,,,,,,,,,,,,,,,,,,,,,,,,,,,,,,,,,,,,,,,,335.791,394.294,0,0,0,3,1,imgs/dog.png,imgs/cat.png,imgs/lion.png,imgs/elephant.png,imgs/goat.png,,,,,,,,,,,,,,,,,,,,,,,,
,,66159b3aa54492fae356f2d1,66fc9a4bd1cbeb8e180b8272,2024-10-02_03h58.47.557,mdp,2024.2.1,Win32,166.6666667,66fa4ebf79326e780c390304,,,,,,,,,,,,,,2,seqs/st2seq31.csv,394.3,397.34,space,2.53,,397.343,397.343,397.343,400.852,1,0,right,2.994,,400.858,403.724,1,0,right,403.725,403.726,,1,,1,403.726,403.726,403.726,405.227,0,0,0,0,1,0.4,0.6,0.8,0.2,,,,,,,,,,,,,,,2.362,,0.8,0.2,0.4,0.6,0.8,0.2,0.4,0.6,1,0,,,,,,,,,,,,
,,66159b3aa54492fae356f2d1,66fc9a4bd1cbeb8e180b8272,2024-10-02_03h58.47.557,mdp,2024.2.1,Win32,166.6666667,66fa4ebf79326e780c390304,,,,,,,,,,,,,,,,,,,,,405.228,405.228,405.228,408.141,1,0,right,2.407,,408.143,410.136,1,0,right,410.137,410.138,,1,,1,410.138,410.138,410.138,411.639,0,1,1,1,1,0.4,0.6,0.8,0.2,,,,,,,,,,,,,,,1.493,,0.8,0.2,0.4,0.6,0.8,0.2,0.4,0.6,1,0,,,,,,,,,,,,
,,66159b3aa54492fae356f2d1,66fc9a4bd1cbeb8e180b8272,2024-10-02_03h58.47.557,mdp,2024.2.1,Win32,166.6666667,66fa4ebf79326e780c390304,,,,,,,,,,,,,,,,,,,,,411.64,411.64,411.641,413.517,1,0,right,1.375,,413.518,415.561,1,1,right,415.563,415.563,,0,,0,415.563,415.563,415.563,417.064,0,2,2,2,1,0.4,0.6,0.8,0.2,,,,,,,,,,,,,,,1.538,,0.8,0.2,0.4,0.6,0.8,0.2,0.4,0.6,1,0,,,,,,,,,,,,
,,66159b3aa54492fae356f2d1,66fc9a4bd1cbeb8e180b8272,2024-10-02_03h58.47.557,mdp,2024.2.1,Win32,166.6666667,66fa4ebf79326e780c390304,,,,,,,,,,,,,,,,,,,,,417.065,417.065,417.065,419.296,1,1,right,1.725,,419.297,421.982,0,0,left,421.982,421.983,,0,,1,421.983,421.983,421.983,423.483,0,3,3,3,1,0.4,0.6,0.8,0.2,,,,,,,,,,,,,,,2.171,,0.8,0.2,0.4,0.6,0.8,0.2,0.4,0.6,1,0,,,,,,,,,,,,
,,66159b3aa54492fae356f2d1,66fc9a4bd1cbeb8e180b8272,2024-10-02_03h58.47.557,mdp,2024.2.1,Win32,166.6666667,66fa4ebf79326e780c390304,,,,,,,,,,,,,,,,,,,,,423.483,423.483,423.483,426.153,1,0,right,2.163,,426.154,428.163,1,1,right,428.164,428.164,,1,,0,428.164,428.164,428.164,429.659,0,4,4,4,1,0.4,0.6,0.8,0.2,,,,,,,,,,,,,,,1.502,,0.8,0.2,0.4,0.6,0.8,0.2,0.4,0.6,1,0,,,,,,,,,,,,
,,66159b3aa54492fae356f2d1,66fc9a4bd1cbeb8e180b8272,2024-10-02_03h58.47.557,mdp,2024.2.1,Win32,166.6666667,66fa4ebf79326e780c390304,,,,,,,,,,,,,,,,,,,,,429.659,429.66,429.661,430.757,1,0,right,0.587,,430.758,432.92,1,0,right,432.922,432.922,,0,,1,432.922,432.922,432.922,434.423,0,5,5,5,1,0.4,0.6,0.8,0.2,,,,,,,,,,,,,,,1.655,,0.6,0.4,0.8,0.2,0.8,0.2,0.4,0.6,1,0,,,,,,,,,,,,
,,66159b3aa54492fae356f2d1,66fc9a4bd1cbeb8e180b8272,2024-10-02_03h58.47.557,mdp,2024.2.1,Win32,166.6666667,66fa4ebf79326e780c390304,,,,,,,,,,,,,,,,,,,,,434.423,434.423,434.424,435.946,1,0,right,1.017,,435.946,438.415,1,0,right,438.422,438.423,,0,,1,438.423,438.423,438.423,439.917,0,6,6,6,1,0.4,0.6,0.8,0.2,,,,,,,,,,,,,,,1.96,,0.6,0.4,0.8,0.2,0.8,0.2,0.4,0.6,1,0,,,,,,,,,,,,
,,66159b3aa54492fae356f2d1,66fc9a4bd1cbeb8e180b8272,2024-10-02_03h58.47.557,mdp,2024.2.1,Win32,166.6666667,66fa4ebf79326e780c390304,,,,,,,,,,,,,,,,,,,,,439.917,439.917,439.917,441.342,1,0,right,0.918,,441.344,444.069,1,0,right,444.07,444.07,,0,,1,444.07,444.07,444.07,445.571,0,7,7,7,1,0.4,0.6,0.8,0.2,,,,,,,,,,,,,,,2.219,,0.6,0.4,0.8,0.2,0.8,0.2,0.4,0.6,1,0,,,,,,,,,,,,
,,66159b3aa54492fae356f2d1,66fc9a4bd1cbeb8e180b8272,2024-10-02_03h58.47.557,mdp,2024.2.1,Win32,166.6666667,66fa4ebf79326e780c390304,,,,,,,,,,,,,,,,,,,,,445.572,445.572,445.572,447.769,1,0,right,1.69,,447.771,450.008,1,0,right,450.009,450.009,,1,,1,450.009,450.009,450.01,451.51,0,8,8,8,1,0.4,0.6,0.8,0.2,,,,,,,,,,,,,,,1.733,,0.6,0.4,0.8,0.2,0.8,0.2,0.4,0.6,1,0,,,,,,,,,,,,
,,66159b3aa54492fae356f2d1,66fc9a4bd1cbeb8e180b8272,2024-10-02_03h58.47.557,mdp,2024.2.1,Win32,166.6666667,66fa4ebf79326e780c390304,,,,,,,,,,,,,,,,,,,,,451.51,451.51,451.511,453.201,1,0,right,1.184,,453.201,455.3,1,0,right,455.302,455.302,,0,,1,455.302,455.302,455.303,456.802,0,9,9,9,1,0.4,0.6,0.8,0.2,,,,,,,,,,,,,,,1.595,,0.6,0.4,0.8,0.2,0.8,0.2,0.4,0.6,1,0,,,,,,,,,,,,
,,66159b3aa54492fae356f2d1,66fc9a4bd1cbeb8e180b8272,2024-10-02_03h58.47.557,mdp,2024.2.1,Win32,166.6666667,66fa4ebf79326e780c390304,,,,,,,,,,,,,,,,,,,,,456.802,456.802,456.803,458.534,1,0,right,1.225,,458.535,460.384,1,0,right,460.386,460.386,,0,,1,460.386,460.386,460.386,461.887,0,10,10,10,1,0.4,0.6,0.8,0.2,,,,,,,,,,,,,,,1.344,,0.6,0.4,0.8,0.2,0.8,0.2,0.4,0.6,1,0,,,,,,,,,,,,
,,66159b3aa54492fae356f2d1,66fc9a4bd1cbeb8e180b8272,2024-10-02_03h58.47.557,mdp,2024.2.1,Win32,166.6666667,66fa4ebf79326e780c390304,,,,,,,,,,,,,,,,,,,,,461.887,461.887,461.888,463.361,1,0,right,0.969,,463.361,465.761,1,0,right,465.762,465.762,,0,,1,465.762,465.762,465.762,467.263,0,11,11,11,1,0.4,0.6,0.8,0.2,,,,,,,,,,,,,,,1.896,,0.6,0.4,0.8,0.2,0.8,0.2,0.4,0.6,1,0,,,,,,,,,,,,
,,66159b3aa54492fae356f2d1,66fc9a4bd1cbeb8e180b8272,2024-10-02_03h58.47.557,mdp,2024.2.1,Win32,166.6666667,66fa4ebf79326e780c390304,,,,,,,,,,,,,,,,,,,,,467.264,467.264,467.264,468.208,1,0,right,0.441,,468.209,470.107,1,0,right,470.108,470.108,,0,,1,470.108,470.108,470.108,471.61,0,12,12,12,1,0.4,0.6,0.8,0.2,,,,,,,,,,,,,,,1.392,,0.6,0.4,0.8,0.2,0.8,0.2,0.4,0.6,1,0,,,,,,,,,,,,
,,66159b3aa54492fae356f2d1,66fc9a4bd1cbeb8e180b8272,2024-10-02_03h58.47.557,mdp,2024.2.1,Win32,166.6666667,66fa4ebf79326e780c390304,,,,,,,,,,,,,,,,,,,,,471.61,471.61,471.61,472.423,1,1,right,0.308,,472.424,474.732,0,1,left,474.732,474.734,,1,,0,474.734,474.734,474.734,476.234,0,13,13,13,1,0.4,0.6,0.8,0.2,,,,,,,,,,,,,,,1.799,,0.6,0.4,0.8,0.2,0.4,0.6,0.2,0.8,1,0,,,,,,,,,,,,
,,66159b3aa54492fae356f2d1,66fc9a4bd1cbeb8e180b8272,2024-10-02_03h58.47.557,mdp,2024.2.1,Win32,166.6666667,66fa4ebf79326e780c390304,,,,,,,,,,,,,,,,,,,,,476.235,476.235,476.235,477.452,1,0,right,0.711,,477.453,479.176,1,0,right,479.177,479.179,,0,,1,479.179,479.179,479.179,480.678,0,14,14,14,1,0.4,0.6,0.8,0.2,,,,,,,,,,,,,,,1.213,,0.6,0.4,0.8,0.2,0.4,0.6,0.2,0.8,1,0,,,,,,,,,,,,
,,66159b3aa54492fae356f2d1,66fc9a4bd1cbeb8e180b8272,2024-10-02_03h58.47.557,mdp,2024.2.1,Win32,166.6666667,66fa4ebf79326e780c390304,,,,,,,,,,,,,,,,,,,,,480.679,480.679,480.68,481.568,1,0,right,0.383,,481.569,483.3,1,0,right,483.302,483.302,,0,,1,483.302,483.302,483.302,484.803,0,15,15,15,1,0.4,0.6,0.8,0.2,,,,,,,,,,,,,,,1.224,,0.6,0.4,0.8,0.2,0.4,0.6,0.2,0.8,1,0,,,,,,,,,,,,
,,66159b3aa54492fae356f2d1,66fc9a4bd1cbeb8e180b8272,2024-10-02_03h58.47.557,mdp,2024.2.1,Win32,166.6666667,66fa4ebf79326e780c390304,,,,,,,,,,,,,,,,,,,,,484.803,484.803,484.804,485.351,1,0,right,0.045,,485.353,486.972,1,0,right,486.974,486.975,,0,,1,486.975,486.975,486.975,488.474,0,16,16,16,1,0.4,0.6,0.8,0.2,,,,,,,,,,,,,,,1.113,,0.6,0.4,0.8,0.2,0.4,0.6,0.2,0.8,1,0,,,,,,,,,,,,
,,66159b3aa54492fae356f2d1,66fc9a4bd1cbeb8e180b8272,2024-10-02_03h58.47.557,mdp,2024.2.1,Win32,166.6666667,66fa4ebf79326e780c390304,,,,,,,,,,,,,,,,,,,,,488.475,488.475,488.476,489.268,1,0,right,0.285,,489.269,490.38,1,1,right,490.381,490.381,,0,,0,490.381,490.381,490.382,491.882,0,17,17,17,1,0.4,0.6,0.8,0.2,,,,,,,,,,,,,,,0.605,,0.8,0.2,0.2,0.8,0.4,0.6,0.2,0.8,1,0,,,,,,,,,,,,
,,66159b3aa54492fae356f2d1,66fc9a4bd1cbeb8e180b8272,2024-10-02_03h58.47.557,mdp,2024.2.1,Win32,166.6666667,66fa4ebf79326e780c390304,,,,,,,,,,,,,,,,,,,,,491.883,491.883,491.883,492.738,1,1,right,0.348,,492.739,494.365,1,1,right,494.367,494.368,,1,,0,494.368,494.368,494.368,495.867,0,18,18,18,1,0.4,0.6,0.8,0.2,,,,,,,,,,,,,,,1.118,,0.8,0.2,0.2,0.8,0.4,0.6,0.2,0.8,1,0,,,,,,,,,,,,
,,66159b3aa54492fae356f2d1,66fc9a4bd1cbeb8e180b8272,2024-10-02_03h58.47.557,mdp,2024.2.1,Win32,166.6666667,66fa4ebf79326e780c390304,,,,,,,,,,,,,,,,,,,,,495.867,495.867,495.869,497.126,1,0,right,0.751,,497.128,498.74,1,1,right,498.74,498.741,,0,,0,498.741,498.741,498.741,500.242,0,19,19,19,1,0.4,0.6,0.8,0.2,,,,,,,,,,,,,,,1.101,,0.8,0.2,0.2,0.8,0.4,0.6,0.2,0.8,1,0,,,,,,,,,,,,
,,66159b3aa54492fae356f2d1,66fc9a4bd1cbeb8e180b8272,2024-10-02_03h58.47.557,mdp,2024.2.1,Win32,166.6666667,66fa4ebf79326e780c390304,,,,,,,,,,,,,,,,,,,,,500.242,500.243,500.244,501.368,1,0,right,0.62,,501.369,502.738,1,0,right,502.739,502.739,,1,,1,502.739,502.739,502.74,504.241,0,20,20,20,1,0.4,0.6,0.8,0.2,,,,,,,,,,,,,,,0.864,,0.8,0.2,0.2,0.8,0.4,0.6,0.2,0.8,1,0,,,,,,,,,,,,
,,66159b3aa54492fae356f2d1,66fc9a4bd1cbeb8e180b8272,2024-10-02_03h58.47.557,mdp,2024.2.1,Win32,166.6666667,66fa4ebf79326e780c390304,,,,,,,,,,,,,,,,,,,,,504.241,504.241,504.242,505.444,1,0,right,0.697,,505.445,506.967,1,1,right,506.968,506.969,,1,,0,506.969,506.969,506.969,508.469,0,21,21,21,1,0.4,0.6,0.8,0.2,,,,,,,,,,,,,,,1.016,,0.8,0.2,0.2,0.8,0.4,0.6,0.2,0.8,1,0,,,,,,,,,,,,
,,66159b3aa54492fae356f2d1,66fc9a4bd1cbeb8e180b8272,2024-10-02_03h58.47.557,mdp,2024.2.1,Win32,166.6666667,66fa4ebf79326e780c390304,,,,,,,,,,,,,,,,,,,,,508.469,508.469,508.471,509.686,0,0,left,0.71,,509.686,511.175,1,1,right,511.175,511.175,,0,,0,511.175,511.175,511.175,512.67,0,22,22,22,1,0.4,0.6,0.8,0.2,,,,,,,,,,,,,,,0.98,,0.8,0.2,0.2,0.8,0.4,0.6,0.2,0.8,1,0,,,,,,,,,,,,
,,66159b3aa54492fae356f2d1,66fc9a4bd1cbeb8e180b8272,2024-10-02_03h58.47.557,mdp,2024.2.1,Win32,166.6666667,66fa4ebf79326e780c390304,,,,,,,,,,,,,,,,,,,,,512.671,512.671,512.671,513.748,0,0,left,0.565,,513.749,515.272,0,0,left,515.272,515.272,,0,,1,515.272,515.272,515.273,516.767,0,23,23,23,1,0.4,0.6,0.8,0.2,,,,,,,,,,,,,,,1.016,,0.8,0.2,0.2,0.8,0.4,0.6,0.2,0.8,1,0,,,,,,,,,,,,
,,66159b3aa54492fae356f2d1,66fc9a4bd1cbeb8e180b8272,2024-10-02_03h58.47.557,mdp,2024.2.1,Win32,166.6666667,66fa4ebf79326e780c390304,,,,,,,,,,,,,,,,,,,,,516.767,516.767,516.768,517.92,0,1,left,0.648,,517.922,520.32,0,0,left,520.32,520.32,,0,,1,520.32,520.32,520.32,521.815,0,24,24,24,1,0.4,0.6,0.8,0.2,,,,,,,,,,,,,,,1.892,,0.8,0.2,0.2,0.8,0.4,0.6,0.2,0.8,1,0,,,,,,,,,,,,
,,66159b3aa54492fae356f2d1,66fc9a4bd1cbeb8e180b8272,2024-10-02_03h58.47.557,mdp,2024.2.1,Win32,166.6666667,66fa4ebf79326e780c390304,,,,,,,,,,,,,,,,,,,,,521.815,521.815,521.816,522.97,0,1,left,0.648,,522.971,524.757,0,1,left,524.758,524.758,,1,,0,524.758,524.758,524.758,526.252,0,25,25,25,1,0.4,0.6,0.8,0.2,,,,,,,,,,,,,,,1.279,,0.8,0.2,0.2,0.8,0.4,0.6,0.2,0.8,1,0,,,,,,,,,,,,
,,66159b3aa54492fae356f2d1,66fc9a4bd1cbeb8e180b8272,2024-10-02_03h58.47.557,mdp,2024.2.1,Win32,166.6666667,66fa4ebf79326e780c390304,,,,,,,,,,,,,,,,,,,,,526.253,526.253,526.253,527.324,0,1,left,0.562,,527.325,528.986,1,0,right,528.988,528.988,,1,,1,528.988,528.988,528.988,530.488,0,26,26,26,1,0.4,0.6,0.8,0.2,,,,,,,,,,,,,,,1.154,,0.8,0.2,0.2,0.8,0.4,0.6,0.2,0.8,1,0,,,,,,,,,,,,
,,66159b3aa54492fae356f2d1,66fc9a4bd1cbeb8e180b8272,2024-10-02_03h58.47.557,mdp,2024.2.1,Win32,166.6666667,66fa4ebf79326e780c390304,,,,,,,,,,,,,,,,,,,,,530.489,530.489,530.489,531.878,0,0,left,0.876,,531.88,533.604,1,0,right,533.605,533.606,,1,,1,533.606,533.606,533.606,535.106,0,27,27,27,1,0.4,0.6,0.8,0.2,,,,,,,,,,,,,,,1.215,,0.8,0.2,0.2,0.8,0.8,0.2,0.6,0.4,1,0,,,,,,,,,,,,
,,66159b3aa54492fae356f2d1,66fc9a4bd1cbeb8e180b8272,2024-10-02_03h58.47.557,mdp,2024.2.1,Win32,166.6666667,66fa4ebf79326e780c390304,,,,,,,,,,,,,,,,,,,,,535.106,535.106,535.107,536.462,0,0,left,0.849,,536.463,537.896,1,1,right,537.897,537.897,,1,,0,537.897,537.897,537.897,539.397,0,28,28,28,1,0.4,0.6,0.8,0.2,,,,,,,,,,,,,,,0.925,,0.8,0.2,0.2,0.8,0.8,0.2,0.6,0.4,1,0,,,,,,,,,,,,
,,66159b3aa54492fae356f2d1,66fc9a4bd1cbeb8e180b8272,2024-10-02_03h58.47.557,mdp,2024.2.1,Win32,166.6666667,66fa4ebf79326e780c390304,,,,,,,,,,,,,,,,,,,,,539.398,539.398,539.399,540.573,1,1,right,0.661,,540.573,542.255,0,0,left,542.257,542.257,,0,,1,542.257,542.257,542.257,543.758,0,29,29,29,1,0.4,0.6,0.8,0.2,,,,,,,,,,,,,,,1.173,,0.8,0.2,0.2,0.8,0.8,0.2,0.6,0.4,1,0,,,,,,,,,,,,
,,66159b3aa54492fae356f2d1,66fc9a4bd1cbeb8e180b8272,2024-10-02_03h58.47.557,mdp,2024.2.1,Win32,166.6666667,66fa4ebf79326e780c390304,,,,,,,,,,,,,,,,,,,,,543.758,543.758,543.759,544.932,1,0,right,0.662,,544.933,546.595,1,0,right,546.597,546.597,,0,,1,546.597,546.597,546.597,548.097,0,30,30,30,1,0.4,0.6,0.8,0.2,,,,,,,,,,,,,,,1.15,,0.2,0.8,0.8,0.2,0.8,0.2,0.6,0.4,1,0,,,,,,,,,,,,
,,66159b3aa54492fae356f2d1,66fc9a4bd1cbeb8e180b8272,2024-10-02_03h58.47.557,mdp,2024.2.1,Win32,166.6666667,66fa4ebf79326e780c390304,,,,,,,,,,,,,,,,,,,,,548.097,548.097,548.098,549.446,0,0,left,0.842,,549.447,550.74,1,0,right,550.742,550.742,,0,,1,550.742,550.742,550.742,552.236,0,31,31,31,1,0.4,0.6,0.8,0.2,,,,,,,,,,,,,,,0.786,,0.2,0.8,0.8,0.2,0.8,0.2,0.6,0.4,1,0,,,,,,,,,,,,
,,66159b3aa54492fae356f2d1,66fc9a4bd1cbeb8e180b8272,2024-10-02_03h58.47.557,mdp,2024.2.1,Win32,166.6666667,66fa4ebf79326e780c390304,,,,,,,,,,,,,,,,,,,,,552.236,552.236,552.237,553.578,0,0,left,0.836,,553.579,555.01,1,0,right,555.01,555.01,,0,,1,555.01,555.01,555.011,556.506,0,32,32,32,1,0.4,0.6,0.8,0.2,,,,,,,,,,,,,,,0.93,,0.2,0.8,0.8,0.2,0.8,0.2,0.6,0.4,1,0,,,,,,,,,,,,
,,66159b3aa54492fae356f2d1,66fc9a4bd1cbeb8e180b8272,2024-10-02_03h58.47.557,mdp,2024.2.1,Win32,166.6666667,66fa4ebf79326e780c390304,,,,,,,,,,,,,,,,,,,,,556.506,556.506,556.508,557.8,1,1,right,0.785,,557.8,559.572,0,0,left,559.573,559.574,,1,,1,559.574,559.574,559.574,561.075,0,33,33,33,1,0.4,0.6,0.8,0.2,,,,,,,,,,,,,,,1.259,,0.2,0.8,0.8,0.2,0.8,0.2,0.6,0.4,1,0,,,,,,,,,,,,
,,66159b3aa54492fae356f2d1,66fc9a4bd1cbeb8e180b8272,2024-10-02_03h58.47.557,mdp,2024.2.1,Win32,166.6666667,66fa4ebf79326e780c390304,,,,,,,,,,,,,,,,,,,,,561.075,561.075,561.075,562.376,1,0,right,0.796,,562.377,563.725,1,0,right,563.725,563.726,,0,,1,563.726,563.726,563.727,565.226,0,34,34,34,1,0.4,0.6,0.8,0.2,,,,,,,,,,,,,,,0.837,,0.2,0.8,0.8,0.2,0.8,0.2,0.6,0.4,1,0,,,,,,,,,,,,
,,66159b3aa54492fae356f2d1,66fc9a4bd1cbeb8e180b8272,2024-10-02_03h58.47.557,mdp,2024.2.1,Win32,166.6666667,66fa4ebf79326e780c390304,,,,,,,,,,,,,,,,,,,,,565.227,565.227,565.228,566.534,1,1,right,0.801,,566.536,568.05,0,1,left,568.051,568.052,,0,,0,568.052,568.052,568.052,569.552,0,35,35,35,1,0.4,0.6,0.8,0.2,,,,,,,,,,,,,,,1.006,,0.2,0.8,0.8,0.2,0.8,0.2,0.6,0.4,1,0,,,,,,,,,,,,
,,66159b3aa54492fae356f2d1,66fc9a4bd1cbeb8e180b8272,2024-10-02_03h58.47.557,mdp,2024.2.1,Win32,166.6666667,66fa4ebf79326e780c390304,,,,,,,,,,,,,,,,,,,,,569.553,569.553,569.554,570.47,0,1,left,0.413,,570.471,571.937,0,0,left,571.939,571.939,,0,,1,571.939,571.939,571.939,573.434,0,36,36,36,1,0.4,0.6,0.8,0.2,,,,,,,,,,,,,,,0.963,,0.2,0.8,0.8,0.2,0.8,0.2,0.6,0.4,1,0,,,,,,,,,,,,
,,66159b3aa54492fae356f2d1,66fc9a4bd1cbeb8e180b8272,2024-10-02_03h58.47.557,mdp,2024.2.1,Win32,166.6666667,66fa4ebf79326e780c390304,,,,,,,,,,,,,,,,,,,,,573.434,573.434,573.435,574.574,1,0,right,0.634,,574.575,576.173,1,0,right,576.175,576.175,,0,,1,576.175,576.175,576.175,577.676,0,37,37,37,1,0.4,0.6,0.8,0.2,,,,,,,,,,,,,,,1.09,,0.2,0.8,0.8,0.2,0.8,0.2,0.6,0.4,1,0,,,,,,,,,,,,
,,66159b3aa54492fae356f2d1,66fc9a4bd1cbeb8e180b8272,2024-10-02_03h58.47.557,mdp,2024.2.1,Win32,166.6666667,66fa4ebf79326e780c390304,,,,,,,,,,,,,,,,,,,,,577.676,577.676,577.677,578.781,1,1,right,0.6,,578.782,580.486,0,0,left,580.487,580.487,,0,,1,580.487,580.487,580.487,581.987,0,38,38,38,1,0.4,0.6,0.8,0.2,,,,,,,,,,,,,,,1.192,,0.2,0.8,0.8,0.2,0.8,0.2,0.6,0.4,1,0,,,,,,,,,,,,
,,66159b3aa54492fae356f2d1,66fc9a4bd1cbeb8e180b8272,2024-10-02_03h58.47.557,mdp,2024.2.1,Win32,166.6666667,66fa4ebf79326e780c390304,,,,,,,,,,,,,,,,,,,,,581.987,581.987,581.987,583.17,1,1,right,0.676,,583.171,584.7,0,0,left,584.701,584.702,,0,,1,584.702,584.702,584.702,586.201,0,39,39,39,1,0.4,0.6,0.8,0.2,,,,,,,,,,,,,,,1.024,,0.2,0.8,0.8,0.2,0.8,0.2,0.6,0.4,1,0,,,,,,,,,,,,
,,66159b3aa54492fae356f2d1,66fc9a4bd1cbeb8e180b8272,2024-10-02_03h58.47.557,mdp,2024.2.1,Win32,166.6666667,66fa4ebf79326e780c390304,,,,,,,,,,,,,,,,,,,,,586.202,586.202,586.203,587.704,1,0,right,0.998,,587.705,589.095,1,0,right,589.096,589.096,,0,,1,589.096,589.096,589.097,590.597,0,40,40,40,1,0.4,0.6,0.8,0.2,,,,,,,,,,,,,,,0.88,,0.2,0.8,0.8,0.2,0.8,0.2,0.6,0.4,1,0,,,,,,,,,,,,
,,66159b3aa54492fae356f2d1,66fc9a4bd1cbeb8e180b8272,2024-10-02_03h58.47.557,mdp,2024.2.1,Win32,166.6666667,66fa4ebf79326e780c390304,,,,,,,,,,,,,,,,,,,,,590.597,590.598,590.598,591.787,1,0,right,0.683,,591.788,593.122,1,0,right,593.123,593.123,,0,,1,593.123,593.123,593.124,594.618,0,41,41,41,1,0.4,0.6,0.8,0.2,,,,,,,,,,,,,,,0.828,,0.2,0.8,0.8,0.2,0.8,0.2,0.6,0.4,1,0,,,,,,,,,,,,
,,66159b3aa54492fae356f2d1,66fc9a4bd1cbeb8e180b8272,2024-10-02_03h58.47.557,mdp,2024.2.1,Win32,166.6666667,66fa4ebf79326e780c390304,,,,,,,,,,,,,,,,,,,,,594.618,594.618,594.619,595.681,1,0,right,0.558,,595.682,597.121,1,0,right,597.121,597.122,,0,,1,597.122,597.122,597.123,598.624,0,42,42,42,1,0.4,0.6,0.8,0.2,,,,,,,,,,,,,,,0.935,,0.6,0.4,0.6,0.4,0.8,0.2,0.6,0.4,1,0,,,,,,,,,,,,
,,66159b3aa54492fae356f2d1,66fc9a4bd1cbeb8e180b8272,2024-10-02_03h58.47.557,mdp,2024.2.1,Win32,166.6666667,66fa4ebf79326e780c390304,,,,,,,,,,,,,,,,,,,,,598.624,598.624,598.625,599.36,1,0,right,0.234,,599.361,600.772,1,0,right,600.773,600.774,,0,,1,600.774,600.774,600.774,602.274,0,43,43,43,1,0.4,0.6,0.8,0.2,,,,,,,,,,,,,,,0.905,,0.6,0.4,0.6,0.4,0.8,0.2,0.6,0.4,1,0,,,,,,,,,,,,
,,66159b3aa54492fae356f2d1,66fc9a4bd1cbeb8e180b8272,2024-10-02_03h58.47.557,mdp,2024.2.1,Win32,166.6666667,66fa4ebf79326e780c390304,,,,,,,,,,,,,,,,,,,,,602.275,602.275,602.275,603.332,1,0,right,0.55,,603.333,604.716,1,0,right,604.717,604.717,,0,,1,604.717,604.717,604.717,606.218,0,44,44,44,1,0.4,0.6,0.8,0.2,,,,,,,,,,,,,,,0.876,,0.6,0.4,0.6,0.4,0.8,0.2,0.6,0.4,1,0,,,,,,,,,,,,
,,66159b3aa54492fae356f2d1,66fc9a4bd1cbeb8e180b8272,2024-10-02_03h58.47.557,mdp,2024.2.1,Win32,166.6666667,66fa4ebf79326e780c390304,,,,,,,,,,,,,,,,,,,,,606.218,606.218,606.22,607.275,1,0,right,0.554,,607.276,608.583,1,1,right,608.584,608.584,,0,,0,608.584,608.584,608.584,610.078,0,45,45,45,1,0.4,0.6,0.8,0.2,,,,,,,,,,,,,,,0.8,,0.6,0.4,0.6,0.4,0.8,0.2,0.6,0.4,1,0,,,,,,,,,,,,
,,66159b3aa54492fae356f2d1,66fc9a4bd1cbeb8e180b8272,2024-10-02_03h58.47.557,mdp,2024.2.1,Win32,166.6666667,66fa4ebf79326e780c390304,,,,,,,,,,,,,,,,,,,,,610.078,610.078,610.079,611.156,1,0,right,0.57,,611.157,612.651,1,1,right,612.651,612.651,,1,,0,612.651,612.651,612.652,614.146,0,46,46,46,1,0.4,0.6,0.8,0.2,,,,,,,,,,,,,,,0.989,,0.6,0.4,0.6,0.4,0.8,0.2,0.6,0.4,1,0,,,,,,,,,,,,
,,66159b3aa54492fae356f2d1,66fc9a4bd1cbeb8e180b8272,2024-10-02_03h58.47.557,mdp,2024.2.1,Win32,166.6666667,66fa4ebf79326e780c390304,,,,,,,,,,,,,,,,,,,,,614.146,614.146,614.146,615.085,0,1,left,0.435,,615.086,616.671,0,0,left,616.672,616.673,,0,,1,616.673,616.673,616.673,618.174,0,47,47,47,1,0.4,0.6,0.8,0.2,,,,,,,,,,,,,,,1.076,,0.6,0.4,0.6,0.4,0.8,0.2,0.6,0.4,1,0,,,,,,,,,,,,
,,66159b3aa54492fae356f2d1,66fc9a4bd1cbeb8e180b8272,2024-10-02_03h58.47.557,mdp,2024.2.1,Win32,166.6666667,66fa4ebf79326e780c390304,,,,,,,,,,,,,,,,,,,,,618.174,618.174,618.175,619.126,0,0,left,0.45,,619.126,620.503,1,0,right,620.504,620.505,,1,,1,620.505,620.505,620.505,622.005,0,48,48,48,1,0.4,0.6,0.8,0.2,,,,,,,,,,,,,,,0.867,,0.6,0.4,0.6,0.4,0.8,0.2,0.6,0.4,1,0,,,,,,,,,,,,
,,66159b3aa54492fae356f2d1,66fc9a4bd1cbeb8e180b8272,2024-10-02_03h58.47.557,mdp,2024.2.1,Win32,166.6666667,66fa4ebf79326e780c390304,,,,,,,,,,,,,,,,,,,,,622.006,622.006,622.006,623.389,0,1,left,0.869,,623.391,624.918,0,0,left,624.919,624.919,,0,,1,624.919,624.919,624.92,626.414,0,49,49,49,1,0.4,0.6,0.8,0.2,,,,,,,,,,,,,,,1.022,,0.2,0.8,0.8,0.2,0.8,0.2,0.6,0.4,1,0,,,,,,,,,,,,
,,66159b3aa54492fae356f2d1,66fc9a4bd1cbeb8e180b8272,2024-10-02_03h58.47.557,mdp,2024.2.1,Win32,166.6666667,66fa4ebf79326e780c390304,,,,,,,,,,,,,,,,,,,,,,,,,,,,,,,,,,,,,,,,,,,,,,,,,,,,,,,,626.415,684.924,0,1,1,0,1,imgs/kangaroo.png,imgs/dog.png,imgs/giraffe.png,imgs/rabbit.png,imgs/squirrel.png,,,,,,,,,,,,,,,,,,,,,,,,
,,66159b3aa54492fae356f2d1,66fc9a4bd1cbeb8e180b8272,2024-10-02_03h58.47.557,mdp,2024.2.1,Win32,166.6666667,66fa4ebf79326e780c390304,,,,,,,,,,,,,,3,seqs/st3seq8.csv,684.93,688.033,space,2.595,,688.037,688.037,688.038,690.294,0,1,left,1.741,,690.295,692.269,1,0,right,692.269,693.965,1,0,right,1,693.965,693.965,693.965,695.46,0,0,0,0,1,0.2,0.8,0.6,0.4,,,,,,,,,,,,,,,1.462,,0.6,0.4,0.2,0.8,0.6,0.4,0.8,0.2,,,1.191,,0.6,0.4,0.8,0.2,0.8,0.2,0.8,0.2,1,0
,,66159b3aa54492fae356f2d1,66fc9a4bd1cbeb8e180b8272,2024-10-02_03h58.47.557,mdp,2024.2.1,Win32,166.6666667,66fa4ebf79326e780c390304,,,,,,,,,,,,,,,,,,,,,695.462,695.462,695.462,696.775,0,1,left,0.8,,696.776,698.055,1,0,right,698.056,699.55,1,0,right,1,699.55,699.55,699.551,701.045,0,1,1,1,1,0.2,0.8,0.6,0.4,,,,,,,,,,,,,,,0.773,,0.6,0.4,0.2,0.8,0.6,0.4,0.8,0.2,,,0.989,,0.6,0.4,0.8,0.2,0.8,0.2,0.8,0.2,1,0
,,66159b3aa54492fae356f2d1,66fc9a4bd1cbeb8e180b8272,2024-10-02_03h58.47.557,mdp,2024.2.1,Win32,166.6666667,66fa4ebf79326e780c390304,,,,,,,,,,,,,,,,,,,,,701.045,701.045,701.047,702.346,0,1,left,0.796,,702.346,703.598,1,0,right,703.599,704.933,1,0,right,1,704.933,704.933,704.934,706.428,0,2,2,2,1,0.2,0.8,0.6,0.4,,,,,,,,,,,,,,,0.744,,0.6,0.4,0.2,0.8,0.6,0.4,0.8,0.2,,,0.829,,0.6,0.4,0.8,0.2,0.8,0.2,0.8,0.2,1,0
,,66159b3aa54492fae356f2d1,66fc9a4bd1cbeb8e180b8272,2024-10-02_03h58.47.557,mdp,2024.2.1,Win32,166.6666667,66fa4ebf79326e780c390304,,,,,,,,,,,,,,,,,,,,,706.429,706.429,706.429,707.638,0,1,left,0.707,,707.638,708.945,1,1,right,708.946,710.545,0,0,left,1,710.545,710.545,710.546,712.042,0,3,3,3,1,0.2,0.8,0.6,0.4,,,,,,,,,,,,,,,0.8,,0.6,0.4,0.2,0.8,0.6,0.4,0.8,0.2,,,1.089,,0.6,0.4,0.8,0.2,0.4,0.6,0.6,0.4,1,0
,,66159b3aa54492fae356f2d1,66fc9a4bd1cbeb8e180b8272,2024-10-02_03h58.47.557,mdp,2024.2.1,Win32,166.6666667,66fa4ebf79326e780c390304,,,,,,,,,,,,,,,,,,,,,712.042,712.042,712.043,713.285,0,1,left,0.733,,713.286,714.586,1,0,right,714.588,716.116,1,0,right,1,716.116,716.116,716.117,717.619,0,4,4,4,1,0.2,0.8,0.6,0.4,,,,,,,,,,,,,,,0.793,,0.6,0.4,0.2,0.8,0.6,0.4,0.8,0.2,,,1.02,,0.6,0.4,0.8,0.2,0.6,0.4,0.8,0.2,1,0
,,66159b3aa54492fae356f2d1,66fc9a4bd1cbeb8e180b8272,2024-10-02_03h58.47.557,mdp,2024.2.1,Win32,166.6666667,66fa4ebf79326e780c390304,,,,,,,,,,,,,,,,,,,,,717.619,717.619,717.62,718.849,0,1,left,0.724,,718.85,720.255,1,1,right,720.256,721.715,0,0,left,1,721.715,721.715,721.716,723.217,0,5,5,5,1,0.2,0.8,0.6,0.4,,,,,,,,,,,,,,,0.897,,0.8,0.2,0.4,0.6,0.6,0.4,0.8,0.2,,,0.941,,0.6,0.4,0.8,0.2,0.6,0.4,0.8,0.2,1,0
,,66159b3aa54492fae356f2d1,66fc9a4bd1cbeb8e180b8272,2024-10-02_03h58.47.557,mdp,2024.2.1,Win32,166.6666667,66fa4ebf79326e780c390304,,,,,,,,,,,,,,,,,,,,,723.218,723.218,723.219,724.455,0,1,left,0.723,,724.455,725.97,1,0,right,725.971,727.341,1,0,right,1,727.341,727.341,727.341,728.837,0,6,6,6,1,0.2,0.8,0.6,0.4,,,,,,,,,,,,,,,1.012,,0.8,0.2,0.4,0.6,0.6,0.4,0.8,0.2,,,0.86,,0.6,0.4,0.8,0.2,0.6,0.4,0.8,0.2,1,0
,,66159b3aa54492fae356f2d1,66fc9a4bd1cbeb8e180b8272,2024-10-02_03h58.47.557,mdp,2024.2.1,Win32,166.6666667,66fa4ebf79326e780c390304,,,,,,,,,,,,,,,,,,,,,728.837,728.837,728.838,730.116,0,1,left,0.773,,730.117,731.437,1,0,right,731.438,732.696,1,1,right,0,732.696,732.696,732.697,734.191,0,7,7,7,1,0.2,0.8,0.6,0.4,,,,,,,,,,,,,,,0.819,,0.8,0.2,0.4,0.6,0.6,0.4,0.8,0.2,,,0.756,,0.6,0.4,0.8,0.2,0.6,0.4,0.8,0.2,1,0
,,66159b3aa54492fae356f2d1,66fc9a4bd1cbeb8e180b8272,2024-10-02_03h58.47.557,mdp,2024.2.1,Win32,166.6666667,66fa4ebf79326e780c390304,,,,,,,,,,,,,,,,,,,,,734.192,734.192,734.192,735.332,0,1,left,0.632,,735.334,736.606,1,0,right,736.607,737.884,1,0,right,1,737.884,737.884,737.885,739.38,0,8,8,8,1,0.2,0.8,0.6,0.4,,,,,,,,,,,,,,,0.765,,0.8,0.2,0.4,0.6,0.6,0.4,0.8,0.2,,,0.767,,0.6,0.4,0.8,0.2,0.6,0.4,0.8,0.2,1,0
,,66159b3aa54492fae356f2d1,66fc9a4bd1cbeb8e180b8272,2024-10-02_03h58.47.557,mdp,2024.2.1,Win32,166.6666667,66fa4ebf79326e780c390304,,,,,,,,,,,,,,,,,,,,,739.381,739.381,739.382,740.562,0,1,left,0.669,,740.564,741.779,1,0,right,741.78,743.128,1,1,right,0,743.128,743.128,743.129,744.623,0,9,9,9,1,0.2,0.8,0.6,0.4,,,,,,,,,,,,,,,0.709,,0.8,0.2,0.4,0.6,0.6,0.4,0.8,0.2,,,0.844,,0.2,0.8,0.2,0.8,0.6,0.4,0.8,0.2,1,0
,,66159b3aa54492fae356f2d1,66fc9a4bd1cbeb8e180b8272,2024-10-02_03h58.47.557,mdp,2024.2.1,Win32,166.6666667,66fa4ebf79326e780c390304,,,,,,,,,,,,,,,,,,,,,744.623,744.623,744.624,745.569,0,1,left,0.439,,745.57,746.682,1,1,right,746.683,747.983,0,1,left,0,747.983,747.983,747.984,749.478,0,10,10,10,1,0.2,0.8,0.6,0.4,,,,,,,,,,,,,,,0.604,,0.8,0.2,0.4,0.6,0.6,0.4,0.8,0.2,,,0.787,,0.2,0.8,0.2,0.8,0.6,0.4,0.8,0.2,1,0
,,66159b3aa54492fae356f2d1,66fc9a4bd1cbeb8e180b8272,2024-10-02_03h58.47.557,mdp,2024.2.1,Win32,166.6666667,66fa4ebf79326e780c390304,,,,,,,,,,,,,,,,,,,,,749.478,749.478,749.48,750.646,0,1,left,0.664,,750.647,751.731,1,0,right,751.732,752.878,1,1,right,0,752.878,752.878,752.879,754.374,0,11,11,11,1,0.2,0.8,0.6,0.4,,,,,,,,,,,,,,,0.581,,0.8,0.2,0.4,0.6,0.6,0.4,0.8,0.2,,,0.638,,0.2,0.8,0.2,0.8,0.6,0.4,0.8,0.2,1,0
,,66159b3aa54492fae356f2d1,66fc9a4bd1cbeb8e180b8272,2024-10-02_03h58.47.557,mdp,2024.2.1,Win32,166.6666667,66fa4ebf79326e780c390304,,,,,,,,,,,,,,,,,,,,,754.375,754.375,754.376,755.334,1,1,right,0.452,,755.335,756.891,1,0,right,756.892,758.13,1,0,right,1,758.13,758.13,758.131,759.625,0,12,12,12,1,0.2,0.8,0.6,0.4,,,,,,,,,,,,,,,1.051,,0.8,0.2,0.4,0.6,0.6,0.4,0.8,0.2,,,0.73,,0.2,0.8,0.2,0.8,0.6,0.4,0.8,0.2,1,0
,,66159b3aa54492fae356f2d1,66fc9a4bd1cbeb8e180b8272,2024-10-02_03h58.47.557,mdp,2024.2.1,Win32,166.6666667,66fa4ebf79326e780c390304,,,,,,,,,,,,,,,,,,,,,759.626,759.626,759.626,760.751,1,1,right,0.62,,760.752,761.948,1,0,right,761.948,763.311,1,1,right,0,763.311,763.311,763.312,764.806,0,13,13,13,1,0.2,0.8,0.6,0.4,,,,,,,,,,,,,,,0.693,,0.8,0.2,0.4,0.6,0.6,0.4,0.8,0.2,,,0.855,,0.2,0.8,0.2,0.8,0.6,0.4,0.8,0.2,1,0
,,66159b3aa54492fae356f2d1,66fc9a4bd1cbeb8e180b8272,2024-10-02_03h58.47.557,mdp,2024.2.1,Win32,166.6666667,66fa4ebf79326e780c390304,,,,,,,,,,,,,,,,,,,,,764.806,764.806,764.808,765.905,0,1,left,0.598,,765.905,767.178,0,0,left,767.178,768.507,1,0,right,1,768.507,768.507,768.507,770.008,0,14,14,14,1,0.2,0.8,0.6,0.4,,,,,,,,,,,,,,,0.765,,0.2,0.8,0.2,0.8,0.6,0.4,0.8,0.2,,,0.82,,0.2,0.8,0.2,0.8,0.6,0.4,0.8,0.2,1,0
,,66159b3aa54492fae356f2d1,66fc9a4bd1cbeb8e180b8272,2024-10-02_03h58.47.557,mdp,2024.2.1,Win32,166.6666667,66fa4ebf79326e780c390304,,,,,,,,,,,,,,,,,,,,,770.008,770.008,770.009,771.094,0,1,left,0.579,,771.095,772.373,0,0,left,772.375,773.833,1,0,right,1,773.833,773.833,773.834,775.329,0,15,15,15,1,0.2,0.8,0.6,0.4,,,,,,,,,,,,,,,0.765,,0.2,0.8,0.2,0.8,0.6,0.4,0.8,0.2,,,0.954,,0.4,0.6,0.6,0.4,0.6,0.4,0.8,0.2,1,0
,,66159b3aa54492fae356f2d1,66fc9a4bd1cbeb8e180b8272,2024-10-02_03h58.47.557,mdp,2024.2.1,Win32,166.6666667,66fa4ebf79326e780c390304,,,,,,,,,,,,,,,,,,,,,775.329,775.329,775.33,776.531,0,1,left,0.699,,776.533,777.749,0,0,left,777.75,779.064,1,1,right,0,779.064,779.064,779.064,780.558,0,16,16,16,1,0.2,0.8,0.6,0.4,,,,,,,,,,,,,,,0.71,,0.2,0.8,0.2,0.8,0.6,0.4,0.8,0.2,,,0.806,,0.4,0.6,0.6,0.4,0.6,0.4,0.8,0.2,1,0
,,66159b3aa54492fae356f2d1,66fc9a4bd1cbeb8e180b8272,2024-10-02_03h58.47.557,mdp,2024.2.1,Win32,166.6666667,66fa4ebf79326e780c390304,,,,,,,,,,,,,,,,,,,,,780.559,780.559,780.56,781.866,1,0,right,0.802,,781.867,784.182,1,1,right,784.183,785.364,0,1,left,0,785.364,785.364,785.364,786.859,0,17,17,17,1,0.2,0.8,0.6,0.4,,,,,,,,,,,,,,,1.804,,0.2,0.8,0.2,0.8,0.6,0.4,0.8,0.2,,,0.674,,0.4,0.6,0.6,0.4,0.6,0.4,0.8,0.2,1,0
,,66159b3aa54492fae356f2d1,66fc9a4bd1cbeb8e180b8272,2024-10-02_03h58.47.557,mdp,2024.2.1,Win32,166.6666667,66fa4ebf79326e780c390304,,,,,,,,,,,,,,,,,,,,,786.86,786.86,786.86,787.937,0,1,left,0.571,,787.938,789.189,1,0,right,789.189,790.448,1,1,right,0,790.448,790.448,790.449,791.951,0,18,18,18,1,0.2,0.8,0.6,0.4,,,,,,,,,,,,,,,0.744,,0.2,0.8,0.2,0.8,0.6,0.4,0.8,0.2,,,0.75,,0.4,0.6,0.6,0.4,0.6,0.4,0.8,0.2,1,0
,,66159b3aa54492fae356f2d1,66fc9a4bd1cbeb8e180b8272,2024-10-02_03h58.47.557,mdp,2024.2.1,Win32,166.6666667,66fa4ebf79326e780c390304,,,,,,,,,,,,,,,,,,,,,791.951,791.951,791.952,793.118,1,0,right,0.664,,793.119,794.725,1,1,right,794.726,795.942,0,0,left,1,795.942,795.942,795.943,797.437,0,19,19,19,1,0.2,0.8,0.6,0.4,,,,,,,,,,,,,,,1.096,,0.2,0.8,0.2,0.8,0.6,0.4,0.8,0.2,,,0.708,,0.4,0.6,0.6,0.4,0.6,0.4,0.8,0.2,1,0
,,66159b3aa54492fae356f2d1,66fc9a4bd1cbeb8e180b8272,2024-10-02_03h58.47.557,mdp,2024.2.1,Win32,166.6666667,66fa4ebf79326e780c390304,,,,,,,,,,,,,,,,,,,,,797.438,797.438,797.438,798.842,0,1,left,0.899,,798.843,800.24,0,1,left,800.241,801.561,0,0,left,1,801.561,801.561,801.562,803.057,0,20,20,20,1,0.2,0.8,0.6,0.4,,,,,,,,,,,,,,,0.889,,0.2,0.8,0.2,0.8,0.2,0.8,0.6,0.4,,,0.815,,0.4,0.6,0.6,0.4,0.6,0.4,0.8,0.2,1,0
,,66159b3aa54492fae356f2d1,66fc9a4bd1cbeb8e180b8272,2024-10-02_03h58.47.557,mdp,2024.2.1,Win32,166.6666667,66fa4ebf79326e780c390304,,,,,,,,,,,,,,,,,,,,,803.057,803.057,803.058,804.434,1,0,right,0.869,,804.435,805.867,0,0,left,805.867,807.167,0,1,left,0,807.167,807.167,807.169,808.662,0,21,21,21,1,0.2,0.8,0.6,0.4,,,,,,,,,,,,,,,0.923,,0.2,0.8,0.2,0.8,0.2,0.8,0.6,0.4,,,0.792,,0.4,0.6,0.6,0.4,0.6,0.4,0.8,0.2,1,0
,,66159b3aa54492fae356f2d1,66fc9a4bd1cbeb8e180b8272,2024-10-02_03h58.47.557,mdp,2024.2.1,Win32,166.6666667,66fa4ebf79326e780c390304,,,,,,,,,,,,,,,,,,,,,808.662,808.662,808.663,809.9,0,1,left,0.73,,809.901,810.992,1,0,right,810.992,812.105,1,0,right,1,812.105,812.105,812.105,813.6,0,22,22,22,1,0.2,0.8,0.6,0.4,,,,,,,,,,,,,,,0.585,,0.2,0.8,0.2,0.8,0.2,0.8,0.6,0.4,,,0.61,,0.4,0.6,0.6,0.4,0.6,0.4,0.8,0.2,1,0
,,66159b3aa54492fae356f2d1,66fc9a4bd1cbeb8e180b8272,2024-10-02_03h58.47.557,mdp,2024.2.1,Win32,166.6666667,66fa4ebf79326e780c390304,,,,,,,,,,,,,,,,,,,,,813.601,813.601,813.602,814.685,0,1,left,0.581,,814.686,815.901,1,0,right,815.903,817.209,1,0,right,1,817.209,817.21,817.211,818.705,0,23,23,23,1,0.2,0.8,0.6,0.4,,,,,,,,,,,,,,,0.713,,0.2,0.8,0.2,0.8,0.2,0.8,0.6,0.4,,,0.802,,0.4,0.6,0.6,0.4,0.6,0.4,0.8,0.2,1,0
,,66159b3aa54492fae356f2d1,66fc9a4bd1cbeb8e180b8272,2024-10-02_03h58.47.557,mdp,2024.2.1,Win32,166.6666667,66fa4ebf79326e780c390304,,,,,,,,,,,,,,,,,,,,,818.706,818.706,818.707,819.894,0,1,left,0.681,,819.895,820.973,1,0,right,820.973,822.196,1,1,right,0,822.196,822.196,822.198,823.691,0,24,24,24,1,0.2,0.8,0.6,0.4,,,,,,,,,,,,,,,0.57,,0.2,0.8,0.2,0.8,0.2,0.8,0.6,0.4,,,0.717,,0.4,0.6,0.6,0.4,0.6,0.4,0.8,0.2,1,0
,,66159b3aa54492fae356f2d1,66fc9a4bd1cbeb8e180b8272,2024-10-02_03h58.47.557,mdp,2024.2.1,Win32,166.6666667,66fa4ebf79326e780c390304,,,,,,,,,,,,,,,,,,,,,823.692,823.692,823.693,824.686,0,1,left,0.489,,824.686,826.021,0,1,left,826.021,827.295,0,0,left,1,827.295,827.295,827.295,828.796,0,25,25,25,1,0.2,0.8,0.6,0.4,,,,,,,,,,,,,,,0.83,,0.2,0.8,0.2,0.8,0.2,0.8,0.6,0.4,,,0.76,,0.4,0.6,0.6,0.4,0.4,0.6,0.6,0.4,1,0
,,66159b3aa54492fae356f2d1,66fc9a4bd1cbeb8e180b8272,2024-10-02_03h58.47.557,mdp,2024.2.1,Win32,166.6666667,66fa4ebf79326e780c390304,,,,,,,,,,,,,,,,,,,,,828.797,828.797,828.798,830.166,0,1,left,0.865,,830.167,831.438,1,0,right,831.44,832.816,1,0,right,1,832.816,832.816,832.817,834.311,0,26,26,26,1,0.2,0.8,0.6,0.4,,,,,,,,,,,,,,,0.768,,0.2,0.8,0.2,0.8,0.2,0.8,0.6,0.4,,,0.866,,0.4,0.6,0.6,0.4,0.4,0.6,0.6,0.4,1,0
,,66159b3aa54492fae356f2d1,66fc9a4bd1cbeb8e180b8272,2024-10-02_03h58.47.557,mdp,2024.2.1,Win32,166.6666667,66fa4ebf79326e780c390304,,,,,,,,,,,,,,,,,,,,,834.311,834.311,834.312,835.535,0,1,left,0.716,,835.537,836.654,1,0,right,836.656,838.143,1,0,right,1,838.143,838.143,838.143,839.646,0,27,27,27,1,0.2,0.8,0.6,0.4,,,,,,,,,,,,,,,0.615,,0.2,0.8,0.2,0.8,0.2,0.8,0.6,0.4,,,0.982,,0.4,0.6,0.6,0.4,0.4,0.6,0.6,0.4,1,0
,,66159b3aa54492fae356f2d1,66fc9a4bd1cbeb8e180b8272,2024-10-02_03h58.47.557,mdp,2024.2.1,Win32,166.6666667,66fa4ebf79326e780c390304,,,,,,,,,,,,,,,,,,,,,839.646,839.646,839.646,840.799,0,1,left,0.648,,840.801,841.864,1,0,right,841.865,843.151,1,1,right,0,843.151,843.151,843.151,844.646,0,28,28,28,1,0.2,0.8,0.6,0.4,,,,,,,,,,,,,,,0.559,,0.2,0.8,0.2,0.8,0.2,0.8,0.6,0.4,,,0.779,,0.4,0.6,0.6,0.4,0.4,0.6,0.6,0.4,1,0
,,66159b3aa54492fae356f2d1,66fc9a4bd1cbeb8e180b8272,2024-10-02_03h58.47.557,mdp,2024.2.1,Win32,166.6666667,66fa4ebf79326e780c390304,,,,,,,,,,,,,,,,,,,,,844.647,844.647,844.647,845.216,0,1,left,0.066,,845.217,846.733,1,1,right,846.734,848.471,0,1,left,0,848.471,848.471,848.472,849.966,0,29,29,29,1,0.2,0.8,0.6,0.4,,,,,,,,,,,,,,,1.009,,0.2,0.8,0.2,0.8,0.2,0.8,0.6,0.4,,,1.229,,0.4,0.6,0.6,0.4,0.2,0.8,0.8,0.2,1,0
,,66159b3aa54492fae356f2d1,66fc9a4bd1cbeb8e180b8272,2024-10-02_03h58.47.557,mdp,2024.2.1,Win32,166.6666667,66fa4ebf79326e780c390304,,,,,,,,,,,,,,,,,,,,,849.966,849.966,849.966,851.086,1,1,right,0.613,,851.087,852.553,1,0,right,852.554,853.951,1,1,right,0,853.951,853.951,853.952,855.447,0,30,30,30,1,0.2,0.8,0.6,0.4,,,,,,,,,,,,,,,0.959,,0.2,0.8,0.2,0.8,0.2,0.8,0.6,0.4,,,0.888,,0.4,0.6,0.6,0.4,0.2,0.8,0.8,0.2,1,0
,,66159b3aa54492fae356f2d1,66fc9a4bd1cbeb8e180b8272,2024-10-02_03h58.47.557,mdp,2024.2.1,Win32,166.6666667,66fa4ebf79326e780c390304,,,,,,,,,,,,,,,,,,,,,855.447,855.448,855.448,856.17,0,1,left,0.215,,856.171,858.173,1,0,right,858.174,859.342,1,1,right,0,859.342,859.342,859.343,860.837,0,31,31,31,1,0.2,0.8,0.6,0.4,,,,,,,,,,,,,,,1.496,,0.2,0.8,0.2,0.8,0.2,0.8,0.6,0.4,,,0.661,,0.4,0.6,0.6,0.4,0.2,0.8,0.8,0.2,1,0
,,66159b3aa54492fae356f2d1,66fc9a4bd1cbeb8e180b8272,2024-10-02_03h58.47.557,mdp,2024.2.1,Win32,166.6666667,66fa4ebf79326e780c390304,,,,,,,,,,,,,,,,,,,,,860.837,860.837,860.838,862.054,1,1,right,0.702,,862.054,863.521,1,1,right,863.522,865.454,1,0,right,1,865.454,865.454,865.456,866.949,0,32,32,32,1,0.2,0.8,0.6,0.4,,,,,,,,,,,,,,,0.962,,0.2,0.8,0.2,0.8,0.2,0.8,0.6,0.4,,,1.422,,0.4,0.6,0.6,0.4,0.2,0.8,0.8,0.2,1,0
,,66159b3aa54492fae356f2d1,66fc9a4bd1cbeb8e180b8272,2024-10-02_03h58.47.557,mdp,2024.2.1,Win32,166.6666667,66fa4ebf79326e780c390304,,,,,,,,,,,,,,,,,,,,,866.95,866.95,866.95,868.403,0,1,left,0.946,,868.403,869.836,0,1,left,869.837,871.644,0,1,left,0,871.644,871.644,871.644,873.14,0,33,33,33,1,0.2,0.8,0.6,0.4,,,,,,,,,,,,,,,0.926,,0.2,0.8,0.2,0.8,0.2,0.8,0.6,0.4,,,1.302,,0.4,0.6,0.6,0.4,0.2,0.8,0.8,0.2,1,0
,,66159b3aa54492fae356f2d1,66fc9a4bd1cbeb8e180b8272,2024-10-02_03h58.47.557,mdp,2024.2.1,Win32,166.6666667,66fa4ebf79326e780c390304,,,,,,,,,,,,,,,,,,,,,873.14,873.14,873.14,874.244,0,1,left,0.602,,874.245,875.434,1,0,right,875.435,876.533,1,0,right,1,876.534,876.534,876.534,878.029,0,34,34,34,1,0.2,0.8,0.6,0.4,,,,,,,,,,,,,,,0.684,,0.2,0.8,0.2,0.8,0.2,0.8,0.6,0.4,,,0.593,,0.4,0.6,0.6,0.4,0.2,0.8,0.8,0.2,1,0
,,66159b3aa54492fae356f2d1,66fc9a4bd1cbeb8e180b8272,2024-10-02_03h58.47.557,mdp,2024.2.1,Win32,166.6666667,66fa4ebf79326e780c390304,,,,,,,,,,,,,,,,,,,,,878.029,878.029,878.03,879.141,0,1,left,0.608,,879.142,880.365,1,0,right,880.365,881.686,1,0,right,1,881.686,881.686,881.687,883.182,0,35,35,35,1,0.2,0.8,0.6,0.4,,,,,,,,,,,,,,,0.716,,0.2,0.8,0.2,0.8,0.2,0.8,0.6,0.4,,,0.814,,0.4,0.6,0.6,0.4,0.2,0.8,0.8,0.2,1,0
,,66159b3aa54492fae356f2d1,66fc9a4bd1cbeb8e180b8272,2024-10-02_03h58.47.557,mdp,2024.2.1,Win32,166.6666667,66fa4ebf79326e780c390304,,,,,,,,,,,,,,,,,,,,,883.182,883.182,883.182,884.42,0,0,left,0.731,,884.42,886.228,0,1,left,886.228,887.995,1,0,right,1,887.995,887.995,887.996,889.497,0,36,36,36,1,0.2,0.8,0.6,0.4,,,,,,,,,,,,,,,1.3,,0.2,0.8,0.2,0.8,0.2,0.8,0.6,0.4,,,1.257,,0.4,0.6,0.6,0.4,0.2,0.8,0.8,0.2,1,0
,,66159b3aa54492fae356f2d1,66fc9a4bd1cbeb8e180b8272,2024-10-02_03h58.47.557,mdp,2024.2.1,Win32,166.6666667,66fa4ebf79326e780c390304,,,,,,,,,,,,,,,,,,,,,889.498,889.498,889.499,890.736,0,1,left,0.73,,890.736,891.972,1,0,right,891.973,893.189,1,1,right,0,893.19,893.19,893.19,894.686,0,37,37,37,1,0.2,0.8,0.6,0.4,,,,,,,,,,,,,,,0.73,,0.2,0.8,0.2,0.8,0.2,0.8,0.6,0.4,,,0.708,,0.4,0.6,0.6,0.4,0.2,0.8,0.8,0.2,1,0
,,66159b3aa54492fae356f2d1,66fc9a4bd1cbeb8e180b8272,2024-10-02_03h58.47.557,mdp,2024.2.1,Win32,166.6666667,66fa4ebf79326e780c390304,,,,,,,,,,,,,,,,,,,,,894.686,894.686,894.687,895.86,1,1,right,0.667,,895.86,897.113,1,0,right,897.114,898.302,1,1,right,0,898.302,898.302,898.302,899.797,0,38,38,38,1,0.2,0.8,0.6,0.4,,,,,,,,,,,,,,,0.744,,0.2,0.8,0.2,0.8,0.2,0.8,0.6,0.4,,,0.674,,0.4,0.6,0.6,0.4,0.2,0.8,0.8,0.2,1,0
,,66159b3aa54492fae356f2d1,66fc9a4bd1cbeb8e180b8272,2024-10-02_03h58.47.557,mdp,2024.2.1,Win32,166.6666667,66fa4ebf79326e780c390304,,,,,,,,,,,,,,,,,,,,,899.797,899.797,899.798,900.827,1,0,right,0.522,,900.827,902.245,1,1,right,902.246,903.706,1,0,right,1,903.706,903.706,903.707,905.208,0,39,39,39,1,0.2,0.8,0.6,0.4,,,,,,,,,,,,,,,0.908,,0.2,0.8,0.2,0.8,0.2,0.8,0.6,0.4,,,0.95,,0.4,0.6,0.6,0.4,0.2,0.8,0.8,0.2,1,0
,,66159b3aa54492fae356f2d1,66fc9a4bd1cbeb8e180b8272,2024-10-02_03h58.47.557,mdp,2024.2.1,Win32,166.6666667,66fa4ebf79326e780c390304,,,,,,,,,,,,,,,,,,,,,905.208,905.208,905.209,907.127,0,1,left,1.413,,907.128,908.178,1,1,right,908.179,909.583,0,1,left,0,909.583,909.583,909.583,911.077,0,40,40,40,1,0.2,0.8,0.6,0.4,,,,,,,,,,,,,,,0.527,,0.6,0.4,0.8,0.2,0.2,0.8,0.6,0.4,,,0.896,,0.4,0.6,0.6,0.4,0.2,0.8,0.8,0.2,1,0
,,66159b3aa54492fae356f2d1,66fc9a4bd1cbeb8e180b8272,2024-10-02_03h58.47.557,mdp,2024.2.1,Win32,166.6666667,66fa4ebf79326e780c390304,,,,,,,,,,,,,,,,,,,,,911.077,911.077,911.079,912.162,0,1,left,0.582,,912.163,912.962,1,1,right,912.962,914.346,1,0,right,1,914.346,914.346,914.347,915.842,0,41,41,41,1,0.2,0.8,0.6,0.4,,,,,,,,,,,,,,,0.297,,0.6,0.4,0.8,0.2,0.2,0.8,0.6,0.4,,,0.878,,0.4,0.6,0.6,0.4,0.2,0.8,0.8,0.2,1,0
,,66159b3aa54492fae356f2d1,66fc9a4bd1cbeb8e180b8272,2024-10-02_03h58.47.557,mdp,2024.2.1,Win32,166.6666667,66fa4ebf79326e780c390304,,,,,,,,,,,,,,,,,,,,,915.843,915.843,915.843,917.024,0,1,left,0.667,,917.024,918.136,1,0,right,918.137,919.423,1,0,right,1,919.423,919.423,919.424,920.918,0,42,42,42,1,0.2,0.8,0.6,0.4,,,,,,,,,,,,,,,0.606,,0.6,0.4,0.8,0.2,0.2,0.8,0.6,0.4,,,0.779,,0.4,0.6,0.6,0.4,0.2,0.8,0.8,0.2,1,0
,,66159b3aa54492fae356f2d1,66fc9a4bd1cbeb8e180b8272,2024-10-02_03h58.47.557,mdp,2024.2.1,Win32,166.6666667,66fa4ebf79326e780c390304,,,,,,,,,,,,,,,,,,,,,920.918,920.918,920.919,922.038,0,1,left,0.611,,922.039,923.095,1,0,right,923.096,924.221,1,1,right,0,924.222,924.222,924.223,925.717,0,43,43,43,1,0.2,0.8,0.6,0.4,,,,,,,,,,,,,,,0.552,,0.6,0.4,0.8,0.2,0.2,0.8,0.6,0.4,,,0.619,,0.4,0.6,0.6,0.4,0.4,0.6,0.4,0.6,1,0
,,66159b3aa54492fae356f2d1,66fc9a4bd1cbeb8e180b8272,2024-10-02_03h58.47.557,mdp,2024.2.1,Win32,166.6666667,66fa4ebf79326e780c390304,,,,,,,,,,,,,,,,,,,,,925.718,925.718,925.719,926.947,0,1,left,0.725,,926.948,928.061,1,0,right,928.061,929.417,1,0,right,1,929.417,929.417,929.418,930.913,0,44,44,44,1,0.2,0.8,0.6,0.4,,,,,,,,,,,,,,,0.608,,0.6,0.4,0.8,0.2,0.2,0.8,0.6,0.4,,,0.85,,0.4,0.6,0.6,0.4,0.4,0.6,0.4,0.6,1,0
,,66159b3aa54492fae356f2d1,66fc9a4bd1cbeb8e180b8272,2024-10-02_03h58.47.557,mdp,2024.2.1,Win32,166.6666667,66fa4ebf79326e780c390304,,,,,,,,,,,,,,,,,,,,,930.913,930.913,930.914,932.303,0,1,left,0.884,,932.305,933.674,1,0,right,933.674,935.189,1,1,right,0,935.189,935.189,935.19,936.684,0,45,45,45,1,0.2,0.8,0.6,0.4,,,,,,,,,,,,,,,0.863,,0.6,0.4,0.8,0.2,0.2,0.8,0.6,0.4,,,1.011,,0.4,0.6,0.6,0.4,0.6,0.4,0.8,0.2,1,0
,,66159b3aa54492fae356f2d1,66fc9a4bd1cbeb8e180b8272,2024-10-02_03h58.47.557,mdp,2024.2.1,Win32,166.6666667,66fa4ebf79326e780c390304,,,,,,,,,,,,,,,,,,,,,936.685,936.685,936.685,937.769,1,1,right,0.58,,937.77,939.064,1,1,right,939.065,941.219,1,0,right,1,941.219,941.219,941.22,942.715,0,46,46,46,1,0.2,0.8,0.6,0.4,,,,,,,,,,,,,,,0.788,,0.6,0.4,0.8,0.2,0.2,0.8,0.6,0.4,,,1.645,,0.4,0.6,0.6,0.4,0.6,0.4,0.8,0.2,1,0
,,66159b3aa54492fae356f2d1,66fc9a4bd1cbeb8e180b8272,2024-10-02_03h58.47.557,mdp,2024.2.1,Win32,166.6666667,66fa4ebf79326e780c390304,,,,,,,,,,,,,,,,,,,,,942.715,942.715,942.716,944.077,1,0,right,0.858,,944.078,945.774,1,0,right,945.776,947.123,0,1,left,0,947.123,947.123,947.124,948.62,0,47,47,47,1,0.2,0.8,0.6,0.4,,,,,,,,,,,,,,,1.187,,0.6,0.4,0.8,0.2,0.2,0.8,0.6,0.4,,,0.838,,0.4,0.6,0.6,0.4,0.6,0.4,0.8,0.2,1,0
,,66159b3aa54492fae356f2d1,66fc9a4bd1cbeb8e180b8272,2024-10-02_03h58.47.557,mdp,2024.2.1,Win32,166.6666667,66fa4ebf79326e780c390304,,,,,,,,,,,,,,,,,,,,,948.62,948.62,948.621,949.815,0,1,left,0.681,,949.816,951.005,1,0,right,951.006,952.235,1,0,right,1,952.235,952.235,952.236,953.737,0,48,48,48,1,0.2,0.8,0.6,0.4,,,,,,,,,,,,,,,0.68,,0.4,0.6,0.4,0.6,0.2,0.8,0.6,0.4,,,0.726,,0.4,0.6,0.6,0.4,0.6,0.4,0.8,0.2,1,0
,,66159b3aa54492fae356f2d1,66fc9a4bd1cbeb8e180b8272,2024-10-02_03h58.47.557,mdp,2024.2.1,Win32,166.6666667,66fa4ebf79326e780c390304,,,,,,,,,,,,,,,,,,,,,953.737,953.737,953.738,955.239,1,0,right,0.997,,955.24,956.548,0,1,left,956.548,957.806,1,0,right,1,957.806,957.806,957.807,959.308,0,49,49,49,1,0.2,0.8,0.6,0.4,,,,,,,,,,,,,,,0.795,,0.4,0.6,0.4,0.6,0.2,0.8,0.6,0.4,,,0.749,,0.4,0.6,0.6,0.4,0.6,0.4,0.8,0.2,1,0
,,66159b3aa54492fae356f2d1,66fc9a4bd1cbeb8e180b8272,2024-10-02_03h58.47.557,mdp,2024.2.1,Win32,166.6666667,66fa4ebf79326e780c390304,,,,,,,,,,,,,,,,,,,,,,,,,,,,,,,,,,,,,,,,,,,,,,,,,,,,,,,,959.308,1017.812,0,2,2,5,1,imgs/goat.png,imgs/pig.png,imgs/squirrel.png,imgs/dog.png,imgs/cat.png,,,,,,,,,,,,,,,,,,,,,,,,
,,66159b3aa54492fae356f2d1,66fc9a4bd1cbeb8e180b8272,2024-10-02_03h58.47.557,mdp,2024.2.1,Win32,166.6666667,66fa4ebf79326e780c390304,,,,,,,,,,,,,,3,seqs/st3seq41.csv,1017.818,1020.53,space,2.207,,1020.535,1020.535,1020.535,1022.951,0,1,left,1.906,,1022.951,1024.571,1,0,right,1024.571,1026.393,1,1,right,0,1026.393,1026.393,1026.395,1027.896,0,0,0,0,1,0.2,0.8,0.6,0.4,,,,,,,,,,,,,,,1.114,,0.6,0.4,0.2,0.8,0.8,0.2,0.4,0.6,,,1.312,,0.4,0.6,0.8,0.2,0.4,0.6,0.8,0.2,1,0
,,66159b3aa54492fae356f2d1,66fc9a4bd1cbeb8e180b8272,2024-10-02_03h58.47.557,mdp,2024.2.1,Win32,166.6666667,66fa4ebf79326e780c390304,,,,,,,,,,,,,,,,,,,,,1027.897,1027.897,1027.897,1029.322,1,0,right,0.911,,1029.323,1030.594,1,1,right,1030.595,1032.02,0,0,left,1,1032.02,1032.02,1032.021,1033.515,0,1,1,1,1,0.2,0.8,0.6,0.4,,,,,,,,,,,,,,,0.762,,0.6,0.4,0.2,0.8,0.8,0.2,0.4,0.6,,,0.912,,0.4,0.6,0.8,0.2,0.4,0.6,0.8,0.2,1,0
,,66159b3aa54492fae356f2d1,66fc9a4bd1cbeb8e180b8272,2024-10-02_03h58.47.557,mdp,2024.2.1,Win32,166.6666667,66fa4ebf79326e780c390304,,,,,,,,,,,,,,,,,,,,,1033.516,1033.516,1033.516,1034.787,1,0,right,0.761,,1034.789,1035.97,1,1,right,1035.97,1037.437,0,1,left,0,1037.437,1037.437,1037.438,1038.933,0,2,2,2,1,0.2,0.8,0.6,0.4,,,,,,,,,,,,,,,0.678,,0.6,0.4,0.2,0.8,0.8,0.2,0.4,0.6,,,0.963,,0.4,0.6,0.8,0.2,0.4,0.6,0.8,0.2,1,0
,,66159b3aa54492fae356f2d1,66fc9a4bd1cbeb8e180b8272,2024-10-02_03h58.47.557,mdp,2024.2.1,Win32,166.6666667,66fa4ebf79326e780c390304,,,,,,,,,,,,,,,,,,,,,1038.934,1038.934,1038.934,1040.177,1,1,right,0.74,,1040.178,1041.463,0,0,left,1041.465,1042.785,0,1,left,0,1042.785,1042.785,1042.786,1044.281,0,3,3,3,1,0.2,0.8,0.6,0.4,,,,,,,,,,,,,,,0.779,,0.6,0.4,0.2,0.8,0.8,0.2,0.4,0.6,,,0.814,,0.4,0.6,0.8,0.2,0.4,0.6,0.8,0.2,1,0
,,66159b3aa54492fae356f2d1,66fc9a4bd1cbeb8e180b8272,2024-10-02_03h58.47.557,mdp,2024.2.1,Win32,166.6666667,66fa4ebf79326e780c390304,,,,,,,,,,,,,,,,,,,,,1044.281,1044.281,1044.283,1045.491,1,1,right,0.705,,1045.491,1047.049,1,0,right,1047.05,1048.565,1,0,right,1,1048.565,1048.565,1048.566,1050.061,0,4,4,4,1,0.2,0.8,0.6,0.4,,,,,,,,,,,,,,,1.052,,0.6,0.4,0.2,0.8,0.8,0.2,0.4,0.6,,,1.009,,0.4,0.6,0.8,0.2,0.2,0.8,0.2,0.8,1,0
,,66159b3aa54492fae356f2d1,66fc9a4bd1cbeb8e180b8272,2024-10-02_03h58.47.557,mdp,2024.2.1,Win32,166.6666667,66fa4ebf79326e780c390304,,,,,,,,,,,,,,,,,,,,,1050.061,1050.061,1050.062,1051.186,1,0,right,0.621,,1051.188,1052.383,0,1,left,1052.385,1053.836,1,1,right,0,1053.836,1053.836,1053.837,1055.332,0,5,5,5,1,0.2,0.8,0.6,0.4,,,,,,,,,,,,,,,0.685,,0.6,0.4,0.2,0.8,0.8,0.2,0.4,0.6,,,0.946,,0.4,0.6,0.8,0.2,0.2,0.8,0.2,0.8,1,0
,,66159b3aa54492fae356f2d1,66fc9a4bd1cbeb8e180b8272,2024-10-02_03h58.47.557,mdp,2024.2.1,Win32,166.6666667,66fa4ebf79326e780c390304,,,,,,,,,,,,,,,,,,,,,1055.332,1055.332,1055.332,1056.368,0,1,left,0.531,,1056.369,1057.703,1,1,right,1057.705,1059.046,1,1,right,0,1059.046,1059.046,1059.046,1060.541,0,6,6,6,1,0.2,0.8,0.6,0.4,,,,,,,,,,,,,,,0.825,,0.2,0.8,0.8,0.2,0.8,0.2,0.4,0.6,,,0.839,,0.4,0.6,0.8,0.2,0.2,0.8,0.2,0.8,1,0
,,66159b3aa54492fae356f2d1,66fc9a4bd1cbeb8e180b8272,2024-10-02_03h58.47.557,mdp,2024.2.1,Win32,166.6666667,66fa4ebf79326e780c390304,,,,,,,,,,,,,,,,,,,,,1060.541,1060.541,1060.541,1062.085,1,0,right,1.037,,1062.086,1063.448,1,0,right,1063.449,1064.755,0,0,left,1,1064.755,1064.755,1064.756,1066.251,0,7,7,7,1,0.2,0.8,0.6,0.4,,,,,,,,,,,,,,,0.853,,0.2,0.8,0.8,0.2,0.8,0.2,0.4,0.6,,,0.797,,0.4,0.6,0.8,0.2,0.2,0.8,0.2,0.8,1,0
,,66159b3aa54492fae356f2d1,66fc9a4bd1cbeb8e180b8272,2024-10-02_03h58.47.557,mdp,2024.2.1,Win32,166.6666667,66fa4ebf79326e780c390304,,,,,,,,,,,,,,,,,,,,,1066.251,1066.251,1066.253,1067.677,1,0,right,0.919,,1067.678,1069.088,1,1,right,1069.089,1070.451,0,1,left,0,1070.452,1070.452,1070.453,1071.947,0,8,8,8,1,0.2,0.8,0.6,0.4,,,,,,,,,,,,,,,0.904,,0.2,0.8,0.8,0.2,0.8,0.2,0.4,0.6,,,0.852,,0.4,0.6,0.8,0.2,0.2,0.8,0.2,0.8,1,0
,,66159b3aa54492fae356f2d1,66fc9a4bd1cbeb8e180b8272,2024-10-02_03h58.47.557,mdp,2024.2.1,Win32,166.6666667,66fa4ebf79326e780c390304,,,,,,,,,,,,,,,,,,,,,1071.947,1071.947,1071.948,1073.443,0,1,left,0.988,,1073.443,1074.882,0,0,left,1074.883,1076.496,1,0,right,1,1076.496,1076.496,1076.497,1077.991,0,9,9,9,1,0.2,0.8,0.6,0.4,,,,,,,,,,,,,,,0.928,,0.2,0.8,0.8,0.2,0.8,0.2,0.4,0.6,,,1.104,,0.4,0.6,0.8,0.2,0.2,0.8,0.2,0.8,1,0
,,66159b3aa54492fae356f2d1,66fc9a4bd1cbeb8e180b8272,2024-10-02_03h58.47.557,mdp,2024.2.1,Win32,166.6666667,66fa4ebf79326e780c390304,,,,,,,,,,,,,,,,,,,,,1077.991,1077.991,1077.991,1079.075,0,1,left,0.58,,1079.076,1080.432,0,0,left,1080.433,1081.572,1,0,right,1,1081.572,1081.572,1081.573,1083.067,0,10,10,10,1,0.2,0.8,0.6,0.4,,,,,,,,,,,,,,,0.851,,0.2,0.8,0.8,0.2,0.8,0.2,0.4,0.6,,,0.634,,0.4,0.6,0.8,0.2,0.2,0.8,0.2,0.8,1,0
,,66159b3aa54492fae356f2d1,66fc9a4bd1cbeb8e180b8272,2024-10-02_03h58.47.557,mdp,2024.2.1,Win32,166.6666667,66fa4ebf79326e780c390304,,,,,,,,,,,,,,,,,,,,,1083.068,1083.068,1083.069,1084.097,0,0,left,0.523,,1084.098,1085.452,1,0,right,1085.453,1087.005,1,0,right,1,1087.005,1087.005,1087.006,1088.505,0,11,11,11,1,0.2,0.8,0.6,0.4,,,,,,,,,,,,,,,0.845,,0.2,0.8,0.8,0.2,0.8,0.2,0.4,0.6,,,1.043,,0.4,0.6,0.8,0.2,0.2,0.8,0.2,0.8,1,0
,,66159b3aa54492fae356f2d1,66fc9a4bd1cbeb8e180b8272,2024-10-02_03h58.47.557,mdp,2024.2.1,Win32,166.6666667,66fa4ebf79326e780c390304,,,,,,,,,,,,,,,,,,,,,1088.506,1088.506,1088.506,1089.639,0,1,left,0.628,,1089.639,1090.877,1,1,right,1090.879,1092.311,0,1,left,0,1092.311,1092.311,1092.312,1093.813,0,12,12,12,1,0.2,0.8,0.6,0.4,,,,,,,,,,,,,,,0.729,,0.2,0.8,0.8,0.2,0.8,0.2,0.4,0.6,,,0.921,,0.4,0.6,0.8,0.2,0.2,0.8,0.2,0.8,1,0
,,66159b3aa54492fae356f2d1,66fc9a4bd1cbeb8e180b8272,2024-10-02_03h58.47.557,mdp,2024.2.1,Win32,166.6666667,66fa4ebf79326e780c390304,,,,,,,,,,,,,,,,,,,,,1093.813,1093.813,1093.814,1094.883,0,0,left,0.563,,1094.884,1096.025,1,0,right,1096.025,1097.213,1,0,right,1,1097.213,1097.213,1097.214,1098.708,0,13,13,13,1,0.8,0.2,0.8,0.2,,,,,,,,,,,,,,,0.628,,0.2,0.8,0.8,0.2,0.8,0.2,0.4,0.6,,,0.673,,0.4,0.6,0.8,0.2,0.2,0.8,0.2,0.8,1,0
,,66159b3aa54492fae356f2d1,66fc9a4bd1cbeb8e180b8272,2024-10-02_03h58.47.557,mdp,2024.2.1,Win32,166.6666667,66fa4ebf79326e780c390304,,,,,,,,,,,,,,,,,,,,,1098.708,1098.708,1098.709,1099.745,0,0,left,0.533,,1099.745,1100.864,1,0,right,1100.864,1102.047,1,0,right,1,1102.047,1102.047,1102.049,1103.549,0,14,14,14,1,0.8,0.2,0.8,0.2,,,,,,,,,,,,,,,0.614,,0.2,0.8,0.8,0.2,0.8,0.2,0.4,0.6,,,0.675,,0.4,0.6,0.8,0.2,0.2,0.8,0.2,0.8,1,0
,,66159b3aa54492fae356f2d1,66fc9a4bd1cbeb8e180b8272,2024-10-02_03h58.47.557,mdp,2024.2.1,Win32,166.6666667,66fa4ebf79326e780c390304,,,,,,,,,,,,,,,,,,,,,1103.549,1103.549,1103.55,1104.544,0,1,left,0.487,,1104.545,1106.011,0,1,left,1106.012,1107.687,1,1,right,0,1107.687,1107.687,1107.689,1109.182,0,15,15,15,1,0.8,0.2,0.8,0.2,,,,,,,,,,,,,,,0.955,,0.2,0.8,0.8,0.2,0.8,0.2,0.4,0.6,,,1.168,,0.4,0.6,0.8,0.2,0.2,0.8,0.2,0.8,1,0
,,66159b3aa54492fae356f2d1,66fc9a4bd1cbeb8e180b8272,2024-10-02_03h58.47.557,mdp,2024.2.1,Win32,166.6666667,66fa4ebf79326e780c390304,,,,,,,,,,,,,,,,,,,,,1109.183,1109.183,1109.184,1110.232,0,0,left,0.546,,1110.233,1111.331,1,0,right,1111.331,1112.569,1,0,right,1,1112.569,1112.569,1112.569,1114.071,0,16,16,16,1,0.8,0.2,0.8,0.2,,,,,,,,,,,,,,,0.591,,0.2,0.8,0.8,0.2,0.8,0.2,0.4,0.6,,,0.727,,0.4,0.6,0.8,0.2,0.2,0.8,0.2,0.8,1,0
,,66159b3aa54492fae356f2d1,66fc9a4bd1cbeb8e180b8272,2024-10-02_03h58.47.557,mdp,2024.2.1,Win32,166.6666667,66fa4ebf79326e780c390304,,,,,,,,,,,,,,,,,,,,,1114.072,1114.072,1114.072,1115.163,0,0,left,0.584,,1115.165,1116.339,1,0,right,1116.34,1117.556,1,0,right,1,1117.556,1117.556,1117.556,1119.058,0,17,17,17,1,0.8,0.2,0.8,0.2,,,,,,,,,,,,,,,0.668,,0.2,0.8,0.8,0.2,0.8,0.2,0.4,0.6,,,0.713,,0.4,0.6,0.8,0.2,0.2,0.8,0.2,0.8,1,0
,,66159b3aa54492fae356f2d1,66fc9a4bd1cbeb8e180b8272,2024-10-02_03h58.47.557,mdp,2024.2.1,Win32,166.6666667,66fa4ebf79326e780c390304,,,,,,,,,,,,,,,,,,,,,1119.058,1119.058,1119.059,1120.241,0,0,left,0.673,,1120.242,1121.464,1,0,right,1121.465,1122.667,1,0,right,1,1122.667,1122.667,1122.669,1124.163,0,18,18,18,1,0.8,0.2,0.8,0.2,,,,,,,,,,,,,,,0.716,,0.2,0.8,0.8,0.2,0.8,0.2,0.4,0.6,,,0.694,,0.4,0.6,0.8,0.2,0.2,0.8,0.2,0.8,1,0
,,66159b3aa54492fae356f2d1,66fc9a4bd1cbeb8e180b8272,2024-10-02_03h58.47.557,mdp,2024.2.1,Win32,166.6666667,66fa4ebf79326e780c390304,,,,,,,,,,,,,,,,,,,,,1124.163,1124.163,1124.164,1125.178,0,0,left,0.507,,1125.18,1126.25,1,0,right,1126.25,1127.459,1,0,right,1,1127.459,1127.459,1127.46,1128.955,0,19,19,19,1,0.8,0.2,0.8,0.2,,,,,,,,,,,,,,,0.563,,0.2,0.8,0.8,0.2,0.8,0.2,0.4,0.6,,,0.702,,0.4,0.6,0.8,0.2,0.2,0.8,0.2,0.8,1,0
,,66159b3aa54492fae356f2d1,66fc9a4bd1cbeb8e180b8272,2024-10-02_03h58.47.557,mdp,2024.2.1,Win32,166.6666667,66fa4ebf79326e780c390304,,,,,,,,,,,,,,,,,,,,,1128.955,1128.955,1128.956,1130.074,0,0,left,0.613,,1130.074,1131.104,1,0,right,1131.106,1132.146,1,1,right,0,1132.146,1132.146,1132.148,1133.649,0,20,20,20,1,0.8,0.2,0.8,0.2,,,,,,,,,,,,,,,0.522,,0.2,0.8,0.8,0.2,0.8,0.2,0.4,0.6,,,0.535,,0.4,0.6,0.8,0.2,0.2,0.8,0.2,0.8,1,0
,,66159b3aa54492fae356f2d1,66fc9a4bd1cbeb8e180b8272,2024-10-02_03h58.47.557,mdp,2024.2.1,Win32,166.6666667,66fa4ebf79326e780c390304,,,,,,,,,,,,,,,,,,,,,1133.65,1133.65,1133.65,1134.54,0,0,left,0.376,,1134.541,1135.472,1,0,right,1135.473,1136.521,1,1,right,0,1136.521,1136.521,1136.521,1138.016,0,21,21,21,1,0.8,0.2,0.8,0.2,,,,,,,,,,,,,,,0.417,,0.2,0.8,0.8,0.2,0.8,0.2,0.4,0.6,,,0.546,,0.4,0.6,0.8,0.2,0.2,0.8,0.2,0.8,1,0
,,66159b3aa54492fae356f2d1,66fc9a4bd1cbeb8e180b8272,2024-10-02_03h58.47.557,mdp,2024.2.1,Win32,166.6666667,66fa4ebf79326e780c390304,,,,,,,,,,,,,,,,,,,,,1138.017,1138.017,1138.018,1138.565,0,0,left,0.043,,1138.566,1139.546,1,0,right,1139.547,1140.395,1,0,right,1,1140.395,1140.395,1140.396,1141.89,0,22,22,22,1,0.8,0.2,0.8,0.2,,,,,,,,,,,,,,,0.476,,0.2,0.8,0.8,0.2,0.8,0.2,0.4,0.6,,,0.341,,0.4,0.6,0.8,0.2,0.2,0.8,0.2,0.8,1,0
,,66159b3aa54492fae356f2d1,66fc9a4bd1cbeb8e180b8272,2024-10-02_03h58.47.557,mdp,2024.2.1,Win32,166.6666667,66fa4ebf79326e780c390304,,,,,,,,,,,,,,,,,,,,,1141.89,1141.89,1141.891,1143.504,1,0,right,1.108,,1143.505,1144.679,1,0,right,1144.679,1145.848,1,0,right,1,1145.848,1145.848,1145.849,1147.349,0,23,23,23,1,0.8,0.2,0.8,0.2,,,,,,,,,,,,,,,0.668,,0.2,0.8,0.8,0.2,0.8,0.2,0.4,0.6,,,0.66,,0.8,0.2,0.4,0.6,0.2,0.8,0.2,0.8,1,0
,,66159b3aa54492fae356f2d1,66fc9a4bd1cbeb8e180b8272,2024-10-02_03h58.47.557,mdp,2024.2.1,Win32,166.6666667,66fa4ebf79326e780c390304,,,,,,,,,,,,,,,,,,,,,1147.349,1147.35,1147.351,1149.026,1,0,right,1.17,,1149.027,1150.11,1,1,right,1150.111,1151.572,0,1,left,0,1151.572,1151.572,1151.572,1153.067,0,24,24,24,1,0.8,0.2,0.8,0.2,,,,,,,,,,,,,,,0.577,,0.2,0.8,0.8,0.2,0.8,0.2,0.4,0.6,,,0.947,,0.8,0.2,0.4,0.6,0.2,0.8,0.2,0.8,1,0
,,66159b3aa54492fae356f2d1,66fc9a4bd1cbeb8e180b8272,2024-10-02_03h58.47.557,mdp,2024.2.1,Win32,166.6666667,66fa4ebf79326e780c390304,,,,,,,,,,,,,,,,,,,,,1153.067,1153.067,1153.067,1154.423,1,0,right,0.845,,1154.423,1155.556,1,1,right,1155.558,1157.073,1,1,right,0,1157.073,1157.073,1157.074,1158.568,0,25,25,25,1,0.8,0.2,0.8,0.2,,,,,,,,,,,,,,,0.626,,0.2,0.8,0.8,0.2,0.8,0.2,0.4,0.6,,,1.007,,0.8,0.2,0.4,0.6,0.2,0.8,0.2,0.8,1,0
,,66159b3aa54492fae356f2d1,66fc9a4bd1cbeb8e180b8272,2024-10-02_03h58.47.557,mdp,2024.2.1,Win32,166.6666667,66fa4ebf79326e780c390304,,,,,,,,,,,,,,,,,,,,,1158.569,1158.569,1158.569,1161.321,0,0,left,2.24,,1161.322,1162.246,1,0,right,1162.247,1163.206,1,0,right,1,1163.206,1163.206,1163.207,1164.702,0,26,26,26,1,0.8,0.2,0.8,0.2,,,,,,,,,,,,,,,0.421,,0.2,0.8,0.8,0.2,0.8,0.2,0.4,0.6,,,0.451,,0.8,0.2,0.4,0.6,0.4,0.6,0.4,0.6,1,0
,,66159b3aa54492fae356f2d1,66fc9a4bd1cbeb8e180b8272,2024-10-02_03h58.47.557,mdp,2024.2.1,Win32,166.6666667,66fa4ebf79326e780c390304,,,,,,,,,,,,,,,,,,,,,1164.703,1164.703,1164.704,1165.481,0,0,left,0.272,,1165.482,1166.399,1,0,right,1166.4,1167.268,1,0,right,1,1167.268,1167.268,1167.269,1168.763,0,27,27,27,1,0.8,0.2,0.8,0.2,,,,,,,,,,,,,,,0.411,,0.2,0.8,0.8,0.2,0.8,0.2,0.4,0.6,,,0.362,,0.8,0.2,0.4,0.6,0.4,0.6,0.4,0.6,1,0
,,66159b3aa54492fae356f2d1,66fc9a4bd1cbeb8e180b8272,2024-10-02_03h58.47.557,mdp,2024.2.1,Win32,166.6666667,66fa4ebf79326e780c390304,,,,,,,,,,,,,,,,,,,,,1168.764,1168.764,1168.765,1169.591,0,1,left,0.312,,1169.591,1170.369,1,1,right,1170.37,1171.371,1,1,right,0,1171.371,1171.371,1171.372,1172.867,0,28,28,28,1,0.8,0.2,0.8,0.2,,,,,,,,,,,,,,,0.267,,0.2,0.8,0.8,0.2,0.8,0.2,0.4,0.6,,,0.491,,0.8,0.2,0.4,0.6,0.4,0.6,0.4,0.6,1,0
,,66159b3aa54492fae356f2d1,66fc9a4bd1cbeb8e180b8272,2024-10-02_03h58.47.557,mdp,2024.2.1,Win32,166.6666667,66fa4ebf79326e780c390304,,,,,,,,,,,,,,,,,,,,,1172.867,1172.867,1172.868,1173.687,0,0,left,0.315,,1173.688,1174.556,1,1,right,1174.557,1175.941,0,0,left,1,1175.941,1175.941,1175.942,1177.442,0,29,29,29,1,0.8,0.2,0.8,0.2,,,,,,,,,,,,,,,0.359,,0.2,0.8,0.8,0.2,0.8,0.2,0.4,0.6,,,0.878,,0.8,0.2,0.4,0.6,0.4,0.6,0.4,0.6,1,0
,,66159b3aa54492fae356f2d1,66fc9a4bd1cbeb8e180b8272,2024-10-02_03h58.47.557,mdp,2024.2.1,Win32,166.6666667,66fa4ebf79326e780c390304,,,,,,,,,,,,,,,,,,,,,1177.443,1177.443,1177.444,1178.318,0,1,left,0.371,,1178.32,1179.577,0,1,left,1179.578,1180.997,0,0,left,1,1180.997,1180.997,1180.998,1182.498,0,30,30,30,1,0.8,0.2,0.8,0.2,,,,,,,,,,,,,,,0.752,,0.2,0.8,0.8,0.2,0.8,0.2,0.4,0.6,,,0.911,,0.2,0.8,0.8,0.2,0.4,0.6,0.4,0.6,1,0
,,66159b3aa54492fae356f2d1,66fc9a4bd1cbeb8e180b8272,2024-10-02_03h58.47.557,mdp,2024.2.1,Win32,166.6666667,66fa4ebf79326e780c390304,,,,,,,,,,,,,,,,,,,,,1182.499,1182.499,1182.5,1183.271,0,0,left,0.269,,1183.271,1184.133,1,0,right,1184.134,1184.968,1,1,right,0,1184.968,1184.968,1184.969,1186.463,0,31,31,31,1,0.8,0.2,0.8,0.2,,,,,,,,,,,,,,,0.354,,0.2,0.8,0.8,0.2,0.8,0.2,0.4,0.6,,,0.323,,0.2,0.8,0.8,0.2,0.4,0.6,0.4,0.6,1,0
,,66159b3aa54492fae356f2d1,66fc9a4bd1cbeb8e180b8272,2024-10-02_03h58.47.557,mdp,2024.2.1,Win32,166.6666667,66fa4ebf79326e780c390304,,,,,,,,,,,,,,,,,,,,,1186.463,1186.463,1186.463,1187.269,0,0,left,0.301,,1187.271,1188.166,1,1,right,1188.168,1189.87,1,0,right,1,1189.87,1189.87,1189.871,1191.365,0,32,32,32,1,0.8,0.2,0.8,0.2,,,,,,,,,,,,,,,0.391,,0.2,0.8,0.8,0.2,0.8,0.2,0.4,0.6,,,1.196,,0.2,0.8,0.8,0.2,0.4,0.6,0.4,0.6,1,0
,,66159b3aa54492fae356f2d1,66fc9a4bd1cbeb8e180b8272,2024-10-02_03h58.47.557,mdp,2024.2.1,Win32,166.6666667,66fa4ebf79326e780c390304,,,,,,,,,,,,,,,,,,,,,1191.366,1191.366,1191.367,1192.277,0,0,left,0.406,,1192.278,1193.119,1,0,right,1193.12,1194.085,1,0,right,1,1194.085,1194.085,1194.086,1195.581,0,33,33,33,1,0.8,0.2,0.8,0.2,,,,,,,,,,,,,,,0.333,,0.2,0.8,0.8,0.2,0.8,0.2,0.4,0.6,,,0.453,,0.2,0.8,0.8,0.2,0.4,0.6,0.4,0.6,1,0
,,66159b3aa54492fae356f2d1,66fc9a4bd1cbeb8e180b8272,2024-10-02_03h58.47.557,mdp,2024.2.1,Win32,166.6666667,66fa4ebf79326e780c390304,,,,,,,,,,,,,,,,,,,,,1195.582,1195.582,1195.583,1196.359,0,1,left,0.272,,1196.36,1197.25,1,0,right,1197.251,1198.209,1,0,right,1,1198.21,1198.21,1198.21,1199.712,0,34,34,34,1,0.8,0.2,0.8,0.2,,,,,,,,,,,,,,,0.38,,0.2,0.8,0.8,0.2,0.8,0.2,0.4,0.6,,,0.457,,0.2,0.8,0.8,0.2,0.4,0.6,0.4,0.6,1,0
,,66159b3aa54492fae356f2d1,66fc9a4bd1cbeb8e180b8272,2024-10-02_03h58.47.557,mdp,2024.2.1,Win32,166.6666667,66fa4ebf79326e780c390304,,,,,,,,,,,,,,,,,,,,,1199.713,1199.713,1199.714,1200.727,0,1,left,0.501,,1200.729,1201.757,1,0,right,1201.757,1202.736,1,1,right,0,1202.736,1202.736,1202.738,1204.232,0,35,35,35,1,0.8,0.2,0.8,0.2,,,,,,,,,,,,,,,0.523,,0.2,0.8,0.8,0.2,0.8,0.2,0.4,0.6,,,0.472,,0.2,0.8,0.8,0.2,0.4,0.6,0.4,0.6,1,0
,,66159b3aa54492fae356f2d1,66fc9a4bd1cbeb8e180b8272,2024-10-02_03h58.47.557,mdp,2024.2.1,Win32,166.6666667,66fa4ebf79326e780c390304,,,,,,,,,,,,,,,,,,,,,1204.232,1204.232,1204.234,1205.116,0,0,left,0.377,,1205.117,1205.999,1,0,right,1206,1207.084,1,0,right,1,1207.084,1207.084,1207.084,1208.579,0,36,36,36,1,0.8,0.2,0.8,0.2,,,,,,,,,,,,,,,0.371,,0.2,0.8,0.8,0.2,0.8,0.2,0.4,0.6,,,0.579,,0.2,0.8,0.8,0.2,0.4,0.6,0.4,0.6,1,0
,,66159b3aa54492fae356f2d1,66fc9a4bd1cbeb8e180b8272,2024-10-02_03h58.47.557,mdp,2024.2.1,Win32,166.6666667,66fa4ebf79326e780c390304,,,,,,,,,,,,,,,,,,,,,1208.579,1208.579,1208.581,1209.406,0,0,left,0.324,,1209.407,1210.296,1,1,right,1210.297,1211.543,0,0,left,1,1211.543,1211.543,1211.543,1213.044,0,37,37,37,1,0.8,0.2,0.8,0.2,,,,,,,,,,,,,,,0.385,,0.2,0.8,0.8,0.2,0.8,0.2,0.4,0.6,,,0.74,,0.2,0.8,0.8,0.2,0.4,0.6,0.4,0.6,1,0
,,66159b3aa54492fae356f2d1,66fc9a4bd1cbeb8e180b8272,2024-10-02_03h58.47.557,mdp,2024.2.1,Win32,166.6666667,66fa4ebf79326e780c390304,,,,,,,,,,,,,,,,,,,,,1213.045,1213.045,1213.046,1214.108,0,0,left,0.549,,1214.109,1214.971,1,0,right,1214.971,1216.062,1,1,right,0,1216.062,1216.062,1216.063,1217.558,0,38,38,38,1,0.8,0.2,0.8,0.2,,,,,,,,,,,,,,,0.355,,0.2,0.8,0.8,0.2,0.8,0.2,0.4,0.6,,,0.583,,0.2,0.8,0.8,0.2,0.4,0.6,0.4,0.6,1,0
,,66159b3aa54492fae356f2d1,66fc9a4bd1cbeb8e180b8272,2024-10-02_03h58.47.557,mdp,2024.2.1,Win32,166.6666667,66fa4ebf79326e780c390304,,,,,,,,,,,,,,,,,,,,,1217.558,1217.558,1217.558,1218.35,0,0,left,0.287,,1218.351,1219.247,1,0,right,1219.249,1220.089,1,0,right,1,1220.089,1220.089,1220.091,1221.585,0,39,39,39,1,0.8,0.2,0.8,0.2,,,,,,,,,,,,,,,0.389,,0.2,0.8,0.8,0.2,0.8,0.2,0.4,0.6,,,0.327,,0.2,0.8,0.8,0.2,0.4,0.6,0.4,0.6,1,0
,,66159b3aa54492fae356f2d1,66fc9a4bd1cbeb8e180b8272,2024-10-02_03h58.47.557,mdp,2024.2.1,Win32,166.6666667,66fa4ebf79326e780c390304,,,,,,,,,,,,,,,,,,,,,1221.585,1221.585,1221.586,1222.383,0,0,left,0.293,,1222.385,1223.295,1,1,right,1223.296,1224.971,1,0,right,1,1224.971,1224.971,1224.973,1226.473,0,40,40,40,1,0.8,0.2,0.8,0.2,,,,,,,,,,,,,,,0.407,,0.2,0.8,0.8,0.2,0.8,0.2,0.4,0.6,,,1.166,,0.2,0.8,0.8,0.2,0.4,0.6,0.4,0.6,1,0
,,66159b3aa54492fae356f2d1,66fc9a4bd1cbeb8e180b8272,2024-10-02_03h58.47.557,mdp,2024.2.1,Win32,166.6666667,66fa4ebf79326e780c390304,,,,,,,,,,,,,,,,,,,,,1226.474,1226.474,1226.474,1227.273,0,0,left,0.292,,1227.274,1228.226,1,0,right,1228.227,1229.276,1,0,right,1,1229.276,1229.276,1229.277,1230.772,0,41,41,41,1,0.8,0.2,0.8,0.2,,,,,,,,,,,,,,,0.445,,0.2,0.8,0.8,0.2,0.8,0.2,0.4,0.6,,,0.538,,0.2,0.8,0.8,0.2,0.4,0.6,0.4,0.6,1,0
,,66159b3aa54492fae356f2d1,66fc9a4bd1cbeb8e180b8272,2024-10-02_03h58.47.557,mdp,2024.2.1,Win32,166.6666667,66fa4ebf79326e780c390304,,,,,,,,,,,,,,,,,,,,,1230.773,1230.773,1230.774,1231.654,0,0,left,0.372,,1231.655,1232.531,1,1,right,1232.531,1233.908,1,1,right,0,1233.908,1233.908,1233.909,1235.403,0,42,42,42,1,0.8,0.2,0.8,0.2,,,,,,,,,,,,,,,0.372,,0.2,0.8,0.8,0.2,0.8,0.2,0.4,0.6,,,0.867,,0.2,0.8,0.8,0.2,0.4,0.6,0.4,0.6,1,0
,,66159b3aa54492fae356f2d1,66fc9a4bd1cbeb8e180b8272,2024-10-02_03h58.47.557,mdp,2024.2.1,Win32,166.6666667,66fa4ebf79326e780c390304,,,,,,,,,,,,,,,,,,,,,1235.404,1235.404,1235.404,1236.196,0,0,left,0.285,,1236.197,1236.968,1,0,right,1236.97,1237.9,1,0,right,1,1237.9,1237.9,1237.901,1239.396,0,43,43,43,1,0.8,0.2,0.8,0.2,,,,,,,,,,,,,,,0.265,,0.2,0.8,0.8,0.2,0.8,0.2,0.4,0.6,,,0.423,,0.2,0.8,0.8,0.2,0.4,0.6,0.4,0.6,1,0
,,66159b3aa54492fae356f2d1,66fc9a4bd1cbeb8e180b8272,2024-10-02_03h58.47.557,mdp,2024.2.1,Win32,166.6666667,66fa4ebf79326e780c390304,,,,,,,,,,,,,,,,,,,,,1239.396,1239.396,1239.397,1240.209,0,0,left,0.305,,1240.21,1241.03,1,0,right,1241.03,1242.017,1,0,right,1,1242.017,1242.017,1242.018,1243.512,0,44,44,44,1,0.8,0.2,0.8,0.2,,,,,,,,,,,,,,,0.312,,0.2,0.8,0.8,0.2,0.8,0.2,0.4,0.6,,,0.482,,0.2,0.8,0.8,0.2,0.4,0.6,0.4,0.6,1,0
,,66159b3aa54492fae356f2d1,66fc9a4bd1cbeb8e180b8272,2024-10-02_03h58.47.557,mdp,2024.2.1,Win32,166.6666667,66fa4ebf79326e780c390304,,,,,,,,,,,,,,,,,,,,,1243.512,1243.512,1243.514,1244.284,0,0,left,0.267,,1244.285,1245.105,1,1,right,1245.106,1246.058,1,1,right,0,1246.058,1246.058,1246.059,1247.553,0,45,45,45,1,0.8,0.2,0.8,0.2,,,,,,,,,,,,,,,0.314,,0.2,0.8,0.8,0.2,0.8,0.2,0.4,0.6,,,0.442,,0.6,0.4,0.4,0.6,0.4,0.6,0.4,0.6,1,0
,,66159b3aa54492fae356f2d1,66fc9a4bd1cbeb8e180b8272,2024-10-02_03h58.47.557,mdp,2024.2.1,Win32,166.6666667,66fa4ebf79326e780c390304,,,,,,,,,,,,,,,,,,,,,1247.553,1247.553,1247.554,1248.284,0,1,left,0.222,,1248.284,1249.02,1,1,right,1249.021,1250.022,0,0,left,1,1250.022,1250.022,1250.024,1251.525,0,46,46,46,1,0.8,0.2,0.8,0.2,,,,,,,,,,,,,,,0.228,,0.2,0.8,0.8,0.2,0.8,0.2,0.4,0.6,,,0.495,,0.6,0.4,0.4,0.6,0.4,0.6,0.4,0.6,1,0
,,66159b3aa54492fae356f2d1,66fc9a4bd1cbeb8e180b8272,2024-10-02_03h58.47.557,mdp,2024.2.1,Win32,166.6666667,66fa4ebf79326e780c390304,,,,,,,,,,,,,,,,,,,,,1251.525,1251.525,1251.525,1252.379,0,0,left,0.35,,1252.38,1253.249,1,0,right,1253.249,1254.243,1,1,right,0,1254.243,1254.243,1254.245,1255.739,0,47,47,47,1,0.8,0.2,0.8,0.2,,,,,,,,,,,,,,,0.364,,0.2,0.8,0.8,0.2,0.8,0.2,0.4,0.6,,,0.484,,0.6,0.4,0.4,0.6,0.4,0.6,0.4,0.6,1,0
,,66159b3aa54492fae356f2d1,66fc9a4bd1cbeb8e180b8272,2024-10-02_03h58.47.557,mdp,2024.2.1,Win32,166.6666667,66fa4ebf79326e780c390304,,,,,,,,,,,,,,,,,,,,,1255.739,1255.739,1255.741,1256.511,0,0,left,0.263,,1256.512,1257.303,1,0,right,1257.305,1258.194,1,0,right,1,1258.194,1258.194,1258.195,1259.689,0,48,48,48,1,0.8,0.2,0.8,0.2,,,,,,,,,,,,,,,0.285,,0.2,0.8,0.8,0.2,0.8,0.2,0.4,0.6,,,0.384,,0.6,0.4,0.4,0.6,0.4,0.6,0.4,0.6,1,0
,,66159b3aa54492fae356f2d1,66fc9a4bd1cbeb8e180b8272,2024-10-02_03h58.47.557,mdp,2024.2.1,Win32,166.6666667,66fa4ebf79326e780c390304,,,,,,,,,,,,,,,,,,,,,1259.689,1259.689,1259.691,1260.559,0,0,left,0.355,,1260.559,1261.477,1,0,right,1261.478,1262.435,1,1,right,0,1262.436,1262.436,1262.436,1263.931,0,49,49,49,1,0.8,0.2,0.8,0.2,,,,,,,,,,,,,,,0.41,,0.2,0.8,0.8,0.2,0.8,0.2,0.4,0.6,,,0.455,,0.6,0.4,0.4,0.6,0.4,0.6,0.4,0.6,1,0
,,66159b3aa54492fae356f2d1,66fc9a4bd1cbeb8e180b8272,2024-10-02_03h58.47.557,mdp,2024.2.1,Win32,166.6666667,66fa4ebf79326e780c390304,,,,,,,,,,,,,,,,,,,,,,,,,,,,,,,,,,,,,,,,,,,,,,,,,,,,,,,,1263.931,1322.441,0,3,3,6,1,imgs/rabbit.png,imgs/dog.png,imgs/goat.png,imgs/pig.png,imgs/kangaroo.png,,,,,,,,,,,,,,,,,,,,,,,,
,,66159b3aa54492fae356f2d1,66fc9a4bd1cbeb8e180b8272,2024-10-02_03h58.47.557,mdp,2024.2.1,Win32,166.6666667,66fa4ebf79326e780c390304,,,,,,,,,,,,,,1,seqs/st1seq5.csv,1322.446,1324.061,space,1.11,,1324.063,1324.063,1324.063,1325.494,1,0,right,0.917,,1325.494,1325.495,1,0,,1325.495,1325.495,1,0,,1,1325.495,1325.495,1325.495,1326.996,0,0,0,0,1,0.2,0.8,0.8,0.2,1,0,,,,,,,,,,,,,,,,,,,,,,,,,,,,,,,,,,,,
,,66159b3aa54492fae356f2d1,66fc9a4bd1cbeb8e180b8272,2024-10-02_03h58.47.557,mdp,2024.2.1,Win32,166.6666667,66fa4ebf79326e780c390304,,,,,,,,,,,,,,,,,,,,,1326.997,1326.997,1326.997,1328.359,1,0,right,0.858,,1328.36,1328.361,1,1,,1328.361,1328.361,1,0,,1,1328.361,1328.361,1328.361,1329.862,0,1,1,1,1,0.8,0.2,0.2,0.8,1,0,,,,,,,,,,,,,,,,,,,,,,,,,,,,,,,,,,,,
,,66159b3aa54492fae356f2d1,66fc9a4bd1cbeb8e180b8272,2024-10-02_03h58.47.557,mdp,2024.2.1,Win32,166.6666667,66fa4ebf79326e780c390304,,,,,,,,,,,,,,,,,,,,,1329.862,1329.862,1329.862,1330.975,1,1,right,0.607,,1330.975,1330.975,1,1,,1330.975,1330.976,1,1,,0,1330.976,1330.976,1330.976,1332.47,0,2,2,2,1,0.8,0.2,0.2,0.8,1,0,,,,,,,,,,,,,,,,,,,,,,,,,,,,,,,,,,,,
,,66159b3aa54492fae356f2d1,66fc9a4bd1cbeb8e180b8272,2024-10-02_03h58.47.557,mdp,2024.2.1,Win32,166.6666667,66fa4ebf79326e780c390304,,,,,,,,,,,,,,,,,,,,,1332.47,1332.47,1332.471,1333.638,1,0,right,0.664,,1333.639,1333.639,1,1,,1333.64,1333.64,1,1,,1,1333.64,1333.64,1333.64,1335.141,0,3,3,3,1,0.8,0.2,0.2,0.8,1,0,,,,,,,,,,,,,,,,,,,,,,,,,,,,,,,,,,,,
,,66159b3aa54492fae356f2d1,66fc9a4bd1cbeb8e180b8272,2024-10-02_03h58.47.557,mdp,2024.2.1,Win32,166.6666667,66fa4ebf79326e780c390304,,,,,,,,,,,,,,,,,,,,,1335.141,1335.141,1335.141,1336.468,1,1,right,0.823,,1336.469,1336.469,1,1,,1336.469,1336.47,1,1,,0,1336.47,1336.47,1336.47,1337.971,0,4,4,4,1,0.8,0.2,0.2,0.8,1,0,,,,,,,,,,,,,,,,,,,,,,,,,,,,,,,,,,,,
,,66159b3aa54492fae356f2d1,66fc9a4bd1cbeb8e180b8272,2024-10-02_03h58.47.557,mdp,2024.2.1,Win32,166.6666667,66fa4ebf79326e780c390304,,,,,,,,,,,,,,,,,,,,,1337.971,1337.971,1337.972,1339.091,1,0,right,0.617,,1339.091,1339.092,1,0,,1339.092,1339.092,1,0,,1,1339.092,1339.092,1339.092,1340.593,0,5,5,5,1,0.2,0.8,0.8,0.2,1,0,,,,,,,,,,,,,,,,,,,,,,,,,,,,,,,,,,,,
,,66159b3aa54492fae356f2d1,66fc9a4bd1cbeb8e180b8272,2024-10-02_03h58.47.557,mdp,2024.2.1,Win32,166.6666667,66fa4ebf79326e780c390304,,,,,,,,,,,,,,,,,,,,,1340.593,1340.593,1340.593,1341.942,1,0,right,0.845,,1341.942,1341.942,1,1,,1341.943,1341.943,1,1,,1,1341.943,1341.943,1341.944,1343.444,0,6,6,6,1,0.8,0.2,0.4,0.6,1,0,,,,,,,,,,,,,,,,,,,,,,,,,,,,,,,,,,,,
,,66159b3aa54492fae356f2d1,66fc9a4bd1cbeb8e180b8272,2024-10-02_03h58.47.557,mdp,2024.2.1,Win32,166.6666667,66fa4ebf79326e780c390304,,,,,,,,,,,,,,,,,,,,,1343.445,1343.445,1343.445,1344.598,1,0,right,0.641,,1344.6,1344.6,1,0,,1344.6,1344.6,1,1,,1,1344.6,1344.6,1344.6,1346.101,0,7,7,7,1,0.8,0.2,0.4,0.6,1,0,,,,,,,,,,,,,,,,,,,,,,,,,,,,,,,,,,,,
,,66159b3aa54492fae356f2d1,66fc9a4bd1cbeb8e180b8272,2024-10-02_03h58.47.557,mdp,2024.2.1,Win32,166.6666667,66fa4ebf79326e780c390304,,,,,,,,,,,,,,,,,,,,,1346.101,1346.101,1346.101,1347.332,1,0,right,0.725,,1347.332,1347.332,1,0,,1347.333,1347.333,1,0,,1,1347.333,1347.333,1347.333,1348.833,0,8,8,8,1,0.4,0.6,0.8,0.2,1,0,,,,,,,,,,,,,,,,,,,,,,,,,,,,,,,,,,,,
,,66159b3aa54492fae356f2d1,66fc9a4bd1cbeb8e180b8272,2024-10-02_03h58.47.557,mdp,2024.2.1,Win32,166.6666667,66fa4ebf79326e780c390304,,,,,,,,,,,,,,,,,,,,,1348.834,1348.834,1348.835,1350.774,1,0,right,1.432,,1350.774,1350.775,1,0,,1350.775,1350.775,1,0,,1,1350.775,1350.775,1350.776,1352.277,0,9,9,9,1,0.4,0.6,0.8,0.2,1,0,,,,,,,,,,,,,,,,,,,,,,,,,,,,,,,,,,,,
,,66159b3aa54492fae356f2d1,66fc9a4bd1cbeb8e180b8272,2024-10-02_03h58.47.557,mdp,2024.2.1,Win32,166.6666667,66fa4ebf79326e780c390304,,,,,,,,,,,,,,,,,,,,,1352.277,1352.277,1352.277,1353.486,1,0,right,0.703,,1353.487,1353.488,1,0,,1353.488,1353.488,1,0,,1,1353.488,1353.488,1353.488,1354.989,0,10,10,10,1,0.4,0.6,0.8,0.2,1,0,,,,,,,,,,,,,,,,,,,,,,,,,,,,,,,,,,,,
,,66159b3aa54492fae356f2d1,66fc9a4bd1cbeb8e180b8272,2024-10-02_03h58.47.557,mdp,2024.2.1,Win32,166.6666667,66fa4ebf79326e780c390304,,,,,,,,,,,,,,,,,,,,,1354.989,1354.989,1354.99,1356.011,1,0,right,0.515,,1356.011,1356.012,1,1,,1356.012,1356.013,1,1,,1,1356.013,1356.013,1356.013,1357.513,0,11,11,11,1,0.8,0.2,0.4,0.6,1,0,,,,,,,,,,,,,,,,,,,,,,,,,,,,,,,,,,,,
,,66159b3aa54492fae356f2d1,66fc9a4bd1cbeb8e180b8272,2024-10-02_03h58.47.557,mdp,2024.2.1,Win32,166.6666667,66fa4ebf79326e780c390304,,,,,,,,,,,,,,,,,,,,,1357.514,1357.514,1357.514,1358.286,1,1,right,0.266,,1358.286,1358.287,1,1,,1358.287,1358.287,1,1,,0,1358.287,1358.287,1358.287,1359.788,0,12,12,12,1,0.8,0.2,0.4,0.6,1,0,,,,,,,,,,,,,,,,,,,,,,,,,,,,,,,,,,,,
,,66159b3aa54492fae356f2d1,66fc9a4bd1cbeb8e180b8272,2024-10-02_03h58.47.557,mdp,2024.2.1,Win32,166.6666667,66fa4ebf79326e780c390304,,,,,,,,,,,,,,,,,,,,,1359.788,1359.788,1359.789,1360.399,1,1,right,0.105,,1360.401,1360.401,1,0,,1360.401,1360.401,1,1,,0,1360.401,1360.401,1360.401,1361.895,0,13,13,13,1,0.8,0.2,0.4,0.6,1,0,,,,,,,,,,,,,,,,,,,,,,,,,,,,,,,,,,,,
,,66159b3aa54492fae356f2d1,66fc9a4bd1cbeb8e180b8272,2024-10-02_03h58.47.557,mdp,2024.2.1,Win32,166.6666667,66fa4ebf79326e780c390304,,,,,,,,,,,,,,,,,,,,,1361.895,1361.895,1361.896,1363.119,1,0,right,0.72,,1363.12,1363.12,1,0,,1363.12,1363.12,1,1,,1,1363.12,1363.12,1363.12,1364.621,0,14,14,14,1,0.8,0.2,0.4,0.6,1,0,,,,,,,,,,,,,,,,,,,,,,,,,,,,,,,,,,,,
,,66159b3aa54492fae356f2d1,66fc9a4bd1cbeb8e180b8272,2024-10-02_03h58.47.557,mdp,2024.2.1,Win32,166.6666667,66fa4ebf79326e780c390304,,,,,,,,,,,,,,,,,,,,,1364.621,1364.621,1364.622,1365.352,1,0,right,0.225,,1365.352,1365.353,1,0,,1365.353,1365.353,1,1,,1,1365.353,1365.353,1365.353,1366.854,0,15,15,15,1,0.8,0.2,0.4,0.6,1,0,,,,,,,,,,,,,,,,,,,,,,,,,,,,,,,,,,,,
,,66159b3aa54492fae356f2d1,66fc9a4bd1cbeb8e180b8272,2024-10-02_03h58.47.557,mdp,2024.2.1,Win32,166.6666667,66fa4ebf79326e780c390304,,,,,,,,,,,,,,,,,,,,,1366.854,1366.854,1366.855,1367.577,1,0,right,0.219,,1367.577,1367.577,1,0,,1367.578,1367.578,1,1,,1,1367.578,1367.578,1367.578,1369.079,0,16,16,16,1,0.8,0.2,0.4,0.6,1,0,,,,,,,,,,,,,,,,,,,,,,,,,,,,,,,,,,,,
,,66159b3aa54492fae356f2d1,66fc9a4bd1cbeb8e180b8272,2024-10-02_03h58.47.557,mdp,2024.2.1,Win32,166.6666667,66fa4ebf79326e780c390304,,,,,,,,,,,,,,,,,,,,,1369.079,1369.079,1369.08,1369.803,1,0,right,0.22,,1369.804,1369.804,1,0,,1369.804,1369.804,1,0,,1,1369.804,1369.804,1369.804,1371.304,0,17,17,17,1,0.4,0.6,0.6,0.4,1,0,,,,,,,,,,,,,,,,,,,,,,,,,,,,,,,,,,,,
,,66159b3aa54492fae356f2d1,66fc9a4bd1cbeb8e180b8272,2024-10-02_03h58.47.557,mdp,2024.2.1,Win32,166.6666667,66fa4ebf79326e780c390304,,,,,,,,,,,,,,,,,,,,,1371.304,1371.304,1371.305,1372.042,1,0,right,0.228,,1372.043,1372.043,1,0,,1372.043,1372.043,1,0,,1,1372.043,1372.043,1372.043,1373.544,0,18,18,18,1,0.2,0.8,0.8,0.2,1,0,,,,,,,,,,,,,,,,,,,,,,,,,,,,,,,,,,,,
,,66159b3aa54492fae356f2d1,66fc9a4bd1cbeb8e180b8272,2024-10-02_03h58.47.557,mdp,2024.2.1,Win32,166.6666667,66fa4ebf79326e780c390304,,,,,,,,,,,,,,,,,,,,,1373.545,1373.545,1373.545,1374.371,1,0,right,0.322,,1374.372,1374.373,1,0,,1374.373,1374.373,1,0,,1,1374.373,1374.373,1374.373,1375.874,0,19,19,19,1,0.2,0.8,0.8,0.2,1,0,,,,,,,,,,,,,,,,,,,,,,,,,,,,,,,,,,,,
,,66159b3aa54492fae356f2d1,66fc9a4bd1cbeb8e180b8272,2024-10-02_03h58.47.557,mdp,2024.2.1,Win32,166.6666667,66fa4ebf79326e780c390304,,,,,,,,,,,,,,,,,,,,,1375.874,1375.874,1375.875,1376.577,1,0,right,0.195,,1376.577,1376.577,1,0,,1376.578,1376.578,1,1,,1,1376.578,1376.578,1376.578,1378.079,0,20,20,20,1,0.8,0.2,0.6,0.4,1,0,,,,,,,,,,,,,,,,,,,,,,,,,,,,,,,,,,,,
,,66159b3aa54492fae356f2d1,66fc9a4bd1cbeb8e180b8272,2024-10-02_03h58.47.557,mdp,2024.2.1,Win32,166.6666667,66fa4ebf79326e780c390304,,,,,,,,,,,,,,,,,,,,,1378.079,1378.079,1378.08,1378.823,1,1,right,0.239,,1378.823,1378.823,1,0,,1378.824,1378.824,1,0,,0,1378.824,1378.824,1378.824,1380.325,0,21,21,21,1,0.8,0.2,0.6,0.4,1,0,,,,,,,,,,,,,,,,,,,,,,,,,,,,,,,,,,,,
,,66159b3aa54492fae356f2d1,66fc9a4bd1cbeb8e180b8272,2024-10-02_03h58.47.557,mdp,2024.2.1,Win32,166.6666667,66fa4ebf79326e780c390304,,,,,,,,,,,,,,,,,,,,,1380.325,1380.325,1380.325,1381.11,1,0,right,0.281,,1381.111,1381.111,1,1,,1381.112,1381.112,1,1,,1,1381.112,1381.112,1381.112,1382.606,0,22,22,22,1,0.8,0.2,0.6,0.4,1,0,,,,,,,,,,,,,,,,,,,,,,,,,,,,,,,,,,,,
,,66159b3aa54492fae356f2d1,66fc9a4bd1cbeb8e180b8272,2024-10-02_03h58.47.557,mdp,2024.2.1,Win32,166.6666667,66fa4ebf79326e780c390304,,,,,,,,,,,,,,,,,,,,,1382.606,1382.606,1382.606,1383.281,1,0,right,0.167,,1383.282,1383.282,1,1,,1383.282,1383.282,1,1,,1,1383.282,1383.282,1383.282,1384.783,0,23,23,23,1,0.8,0.2,0.6,0.4,1,0,,,,,,,,,,,,,,,,,,,,,,,,,,,,,,,,,,,,
,,66159b3aa54492fae356f2d1,66fc9a4bd1cbeb8e180b8272,2024-10-02_03h58.47.557,mdp,2024.2.1,Win32,166.6666667,66fa4ebf79326e780c390304,,,,,,,,,,,,,,,,,,,,,1384.784,1384.784,1384.784,1385.506,1,1,right,0.216,,1385.506,1385.507,1,1,,1385.507,1385.508,1,1,,0,1385.508,1385.508,1385.508,1387.008,0,24,24,24,1,0.6,0.4,0.4,0.6,1,0,,,,,,,,,,,,,,,,,,,,,,,,,,,,,,,,,,,,
,,66159b3aa54492fae356f2d1,66fc9a4bd1cbeb8e180b8272,2024-10-02_03h58.47.557,mdp,2024.2.1,Win32,166.6666667,66fa4ebf79326e780c390304,,,,,,,,,,,,,,,,,,,,,1387.008,1387.008,1387.009,1387.766,1,1,right,0.251,,1387.767,1387.767,1,0,,1387.768,1387.768,1,1,,0,1387.768,1387.768,1387.768,1389.269,0,25,25,25,1,0.6,0.4,0.4,0.6,1,0,,,,,,,,,,,,,,,,,,,,,,,,,,,,,,,,,,,,
,,66159b3aa54492fae356f2d1,66fc9a4bd1cbeb8e180b8272,2024-10-02_03h58.47.557,mdp,2024.2.1,Win32,166.6666667,66fa4ebf79326e780c390304,,,,,,,,,,,,,,,,,,,,,1389.269,1389.269,1389.269,1389.943,1,0,right,0.171,,1389.943,1389.944,1,0,,1389.944,1389.944,1,0,,1,1389.944,1389.944,1389.944,1391.445,0,26,26,26,1,0.2,0.8,0.6,0.4,1,0,,,,,,,,,,,,,,,,,,,,,,,,,,,,,,,,,,,,
,,66159b3aa54492fae356f2d1,66fc9a4bd1cbeb8e180b8272,2024-10-02_03h58.47.557,mdp,2024.2.1,Win32,166.6666667,66fa4ebf79326e780c390304,,,,,,,,,,,,,,,,,,,,,1391.445,1391.445,1391.446,1392.168,1,0,right,0.215,,1392.169,1392.17,1,0,,1392.17,1392.17,1,1,,1,1392.17,1392.17,1392.17,1393.671,0,27,27,27,1,0.2,0.8,0.6,0.4,1,0,,,,,,,,,,,,,,,,,,,,,,,,,,,,,,,,,,,,
,,66159b3aa54492fae356f2d1,66fc9a4bd1cbeb8e180b8272,2024-10-02_03h58.47.557,mdp,2024.2.1,Win32,166.6666667,66fa4ebf79326e780c390304,,,,,,,,,,,,,,,,,,,,,1393.671,1393.671,1393.672,1394.283,1,0,right,0.107,,1394.283,1394.284,1,1,,1394.285,1394.285,1,0,,1,1394.285,1394.285,1394.285,1395.785,0,28,28,28,1,0.2,0.8,0.6,0.4,1,0,,,,,,,,,,,,,,,,,,,,,,,,,,,,,,,,,,,,
,,66159b3aa54492fae356f2d1,66fc9a4bd1cbeb8e180b8272,2024-10-02_03h58.47.557,mdp,2024.2.1,Win32,166.6666667,66fa4ebf79326e780c390304,,,,,,,,,,,,,,,,,,,,,1395.785,1395.785,1395.786,1396.579,1,1,right,0.283,,1396.579,1396.579,1,1,,1396.579,1396.579,1,0,,0,1396.579,1396.579,1396.58,1398.08,0,29,29,29,1,0.2,0.8,0.6,0.4,1,0,,,,,,,,,,,,,,,,,,,,,,,,,,,,,,,,,,,,
,,66159b3aa54492fae356f2d1,66fc9a4bd1cbeb8e180b8272,2024-10-02_03h58.47.557,mdp,2024.2.1,Win32,166.6666667,66fa4ebf79326e780c390304,,,,,,,,,,,,,,,,,,,,,1398.08,1398.08,1398.081,1398.811,1,0,right,0.224,,1398.811,1398.811,1,0,,1398.812,1398.812,1,1,,1,1398.812,1398.812,1398.812,1400.313,0,30,30,30,1,0.4,0.6,0.8,0.2,1,0,,,,,,,,,,,,,,,,,,,,,,,,,,,,,,,,,,,,
,,66159b3aa54492fae356f2d1,66fc9a4bd1cbeb8e180b8272,2024-10-02_03h58.47.557,mdp,2024.2.1,Win32,166.6666667,66fa4ebf79326e780c390304,,,,,,,,,,,,,,,,,,,,,1400.313,1400.313,1400.314,1400.959,1,0,right,0.14,,1400.961,1400.961,1,0,,1400.961,1400.961,1,0,,1,1400.961,1400.961,1400.961,1402.461,0,31,31,31,1,0.4,0.6,0.8,0.2,1,0,,,,,,,,,,,,,,,,,,,,,,,,,,,,,,,,,,,,
,,66159b3aa54492fae356f2d1,66fc9a4bd1cbeb8e180b8272,2024-10-02_03h58.47.557,mdp,2024.2.1,Win32,166.6666667,66fa4ebf79326e780c390304,,,,,,,,,,,,,,,,,,,,,1402.462,1402.462,1402.462,1403.192,1,0,right,0.224,,1403.192,1403.192,1,0,,1403.192,1403.193,1,0,,1,1403.193,1403.193,1403.193,1404.694,0,32,32,32,1,0.4,0.6,0.8,0.2,1,0,,,,,,,,,,,,,,,,,,,,,,,,,,,,,,,,,,,,
,,66159b3aa54492fae356f2d1,66fc9a4bd1cbeb8e180b8272,2024-10-02_03h58.47.557,mdp,2024.2.1,Win32,166.6666667,66fa4ebf79326e780c390304,,,,,,,,,,,,,,,,,,,,,1404.694,1404.694,1404.694,1405.376,1,0,right,0.176,,1405.377,1405.377,1,0,,1405.377,1405.377,1,0,,1,1405.377,1405.377,1405.377,1406.877,0,33,33,33,1,0.4,0.6,0.8,0.2,1,0,,,,,,,,,,,,,,,,,,,,,,,,,,,,,,,,,,,,
,,66159b3aa54492fae356f2d1,66fc9a4bd1cbeb8e180b8272,2024-10-02_03h58.47.557,mdp,2024.2.1,Win32,166.6666667,66fa4ebf79326e780c390304,,,,,,,,,,,,,,,,,,,,,1406.878,1406.878,1406.879,1407.608,1,0,right,0.227,,1407.608,1407.609,1,1,,1407.609,1407.61,1,0,,1,1407.61,1407.61,1407.61,1409.104,0,34,34,34,1,0.4,0.6,0.8,0.2,1,0,,,,,,,,,,,,,,,,,,,,,,,,,,,,,,,,,,,,
,,66159b3aa54492fae356f2d1,66fc9a4bd1cbeb8e180b8272,2024-10-02_03h58.47.557,mdp,2024.2.1,Win32,166.6666667,66fa4ebf79326e780c390304,,,,,,,,,,,,,,,,,,,,,1409.104,1409.104,1409.105,1409.799,1,1,right,0.192,,1409.799,1409.799,1,0,,1409.8,1409.8,1,1,,0,1409.8,1409.8,1409.801,1411.295,0,35,35,35,1,0.4,0.6,0.8,0.2,1,0,,,,,,,,,,,,,,,,,,,,,,,,,,,,,,,,,,,,
,,66159b3aa54492fae356f2d1,66fc9a4bd1cbeb8e180b8272,2024-10-02_03h58.47.557,mdp,2024.2.1,Win32,166.6666667,66fa4ebf79326e780c390304,,,,,,,,,,,,,,,,,,,,,1411.295,1411.295,1411.295,1412.136,1,0,right,0.337,,1412.136,1412.136,1,1,,1412.137,1412.137,1,0,,1,1412.137,1412.137,1412.137,1413.638,0,36,36,36,1,0.4,0.6,0.8,0.2,1,0,,,,,,,,,,,,,,,,,,,,,,,,,,,,,,,,,,,,
,,66159b3aa54492fae356f2d1,66fc9a4bd1cbeb8e180b8272,2024-10-02_03h58.47.557,mdp,2024.2.1,Win32,166.6666667,66fa4ebf79326e780c390304,,,,,,,,,,,,,,,,,,,,,1413.639,1413.639,1413.639,1414.319,1,0,right,0.172,,1414.32,1414.32,1,0,,1414.321,1414.321,1,0,,1,1414.321,1414.321,1414.321,1415.822,0,37,37,37,1,0.2,0.8,0.6,0.4,1,0,,,,,,,,,,,,,,,,,,,,,,,,,,,,,,,,,,,,
,,66159b3aa54492fae356f2d1,66fc9a4bd1cbeb8e180b8272,2024-10-02_03h58.47.557,mdp,2024.2.1,Win32,166.6666667,66fa4ebf79326e780c390304,,,,,,,,,,,,,,,,,,,,,1415.822,1415.822,1415.823,1416.531,1,1,right,0.202,,1416.532,1416.533,1,1,,1416.533,1416.533,1,1,,0,1416.533,1416.533,1416.533,1418.027,0,38,38,38,1,0.2,0.8,0.6,0.4,1,0,,,,,,,,,,,,,,,,,,,,,,,,,,,,,,,,,,,,
,,66159b3aa54492fae356f2d1,66fc9a4bd1cbeb8e180b8272,2024-10-02_03h58.47.557,mdp,2024.2.1,Win32,166.6666667,66fa4ebf79326e780c390304,,,,,,,,,,,,,,,,,,,,,1418.027,1418.027,1418.027,1418.687,1,1,right,0.158,,1418.688,1418.688,1,0,,1418.688,1418.688,1,0,,0,1418.688,1418.688,1418.688,1420.189,0,39,39,39,1,0.2,0.8,0.6,0.4,1,0,,,,,,,,,,,,,,,,,,,,,,,,,,,,,,,,,,,,
,,66159b3aa54492fae356f2d1,66fc9a4bd1cbeb8e180b8272,2024-10-02_03h58.47.557,mdp,2024.2.1,Win32,166.6666667,66fa4ebf79326e780c390304,,,,,,,,,,,,,,,,,,,,,1420.189,1420.189,1420.19,1420.752,1,0,right,0.057,,1420.753,1420.754,1,0,,1420.754,1420.754,1,1,,1,1420.754,1420.754,1420.754,1422.255,0,40,40,40,1,0.2,0.8,0.6,0.4,1,0,,,,,,,,,,,,,,,,,,,,,,,,,,,,,,,,,,,,
,,66159b3aa54492fae356f2d1,66fc9a4bd1cbeb8e180b8272,2024-10-02_03h58.47.557,mdp,2024.2.1,Win32,166.6666667,66fa4ebf79326e780c390304,,,,,,,,,,,,,,,,,,,,,1422.255,1422.255,1422.255,1422.867,1,0,right,0.103,,1422.868,1422.868,1,0,,1422.868,1422.868,1,0,,1,1422.868,1422.868,1422.868,1424.369,0,41,41,41,1,0.4,0.6,0.8,0.2,1,0,,,,,,,,,,,,,,,,,,,,,,,,,,,,,,,,,,,,
,,66159b3aa54492fae356f2d1,66fc9a4bd1cbeb8e180b8272,2024-10-02_03h58.47.557,mdp,2024.2.1,Win32,166.6666667,66fa4ebf79326e780c390304,,,,,,,,,,,,,,,,,,,,,1424.369,1424.369,1424.37,1424.96,1,1,right,0.083,,1424.961,1424.961,1,0,,1424.961,1424.962,1,1,,0,1424.962,1424.962,1424.962,1426.462,0,42,42,42,1,0.4,0.6,0.8,0.2,1,0,,,,,,,,,,,,,,,,,,,,,,,,,,,,,,,,,,,,
,,66159b3aa54492fae356f2d1,66fc9a4bd1cbeb8e180b8272,2024-10-02_03h58.47.557,mdp,2024.2.1,Win32,166.6666667,66fa4ebf79326e780c390304,,,,,,,,,,,,,,,,,,,,,1426.462,1426.463,1426.463,1427.547,1,0,right,0.58,,1427.548,1427.548,1,1,,1427.548,1427.548,1,0,,1,1427.549,1427.549,1427.549,1429.05,0,43,43,43,1,0.4,0.6,0.8,0.2,1,0,,,,,,,,,,,,,,,,,,,,,,,,,,,,,,,,,,,,
,,66159b3aa54492fae356f2d1,66fc9a4bd1cbeb8e180b8272,2024-10-02_03h58.47.557,mdp,2024.2.1,Win32,166.6666667,66fa4ebf79326e780c390304,,,,,,,,,,,,,,,,,,,,,1429.05,1429.05,1429.05,1429.647,1,0,right,0.095,,1429.648,1429.648,1,0,,1429.648,1429.649,1,0,,1,1429.649,1429.649,1429.649,1431.15,0,44,44,44,1,0.4,0.6,0.8,0.2,1,0,,,,,,,,,,,,,,,,,,,,,,,,,,,,,,,,,,,,
,,66159b3aa54492fae356f2d1,66fc9a4bd1cbeb8e180b8272,2024-10-02_03h58.47.557,mdp,2024.2.1,Win32,166.6666667,66fa4ebf79326e780c390304,,,,,,,,,,,,,,,,,,,,,1431.15,1431.15,1431.15,1432.019,1,0,right,0.365,,1432.02,1432.02,1,0,,1432.02,1432.02,1,0,,1,1432.02,1432.02,1432.02,1433.521,0,45,45,45,1,0.4,0.6,0.8,0.2,1,0,,,,,,,,,,,,,,,,,,,,,,,,,,,,,,,,,,,,
,,66159b3aa54492fae356f2d1,66fc9a4bd1cbeb8e180b8272,2024-10-02_03h58.47.557,mdp,2024.2.1,Win32,166.6666667,66fa4ebf79326e780c390304,,,,,,,,,,,,,,,,,,,,,1433.522,1433.522,1433.522,1434.37,1,0,right,0.341,,1434.371,1434.371,1,0,,1434.371,1434.371,1,1,,1,1434.371,1434.371,1434.371,1435.866,0,46,46,46,1,0.4,0.6,0.8,0.2,1,0,,,,,,,,,,,,,,,,,,,,,,,,,,,,,,,,,,,,
,,66159b3aa54492fae356f2d1,66fc9a4bd1cbeb8e180b8272,2024-10-02_03h58.47.557,mdp,2024.2.1,Win32,166.6666667,66fa4ebf79326e780c390304,,,,,,,,,,,,,,,,,,,,,1435.866,1435.866,1435.866,1437.034,1,0,right,0.658,,1437.034,1437.034,1,0,,1437.034,1437.035,1,0,,1,1437.035,1437.035,1437.035,1438.536,0,47,47,47,1,0.4,0.6,0.8,0.2,1,0,,,,,,,,,,,,,,,,,,,,,,,,,,,,,,,,,,,,
,,66159b3aa54492fae356f2d1,66fc9a4bd1cbeb8e180b8272,2024-10-02_03h58.47.557,mdp,2024.2.1,Win32,166.6666667,66fa4ebf79326e780c390304,,,,,,,,,,,,,,,,,,,,,1438.536,1438.536,1438.537,1439.405,1,0,right,0.363,,1439.406,1439.406,1,0,,1439.406,1439.407,1,0,,1,1439.407,1439.407,1439.407,1440.907,0,48,48,48,1,0.4,0.6,0.8,0.2,1,0,,,,,,,,,,,,,,,,,,,,,,,,,,,,,,,,,,,,
,,66159b3aa54492fae356f2d1,66fc9a4bd1cbeb8e180b8272,2024-10-02_03h58.47.557,mdp,2024.2.1,Win32,166.6666667,66fa4ebf79326e780c390304,,,,,,,,,,,,,,,,,,,,,1440.907,1440.907,1440.908,1441.714,1,0,right,0.299,,1441.715,1441.715,1,0,,1441.715,1441.715,1,0,,1,1441.715,1441.715,1441.715,1443.216,0,49,49,49,1,0.4,0.6,0.8,0.2,1,0,,,,,,,,,,,,,,,,,,,,,,,,,,,,,,,,,,,,
