init_exp.started,init_exp.stopped,participant,session,date,expName,psychopyVersion,OS,frameRate,study_id,disp_instruction.started,disp_instruction.stopped,instruction.thisRepN,instruction.thisTrialN,instruction.thisN,instruction.thisIndex,instruction.ran,instimg_path,consent.started,consent.stopped,key_resp_3.keys,key_resp_3.rt,key_resp_3.duration,n_steps,sequence_path,init_block.started,init_block.stopped,key_resp.keys,key_resp.rt,key_resp.duration,init_trials.started,init_trials.stopped,step0.started,step0.stopped,act0,s1,res0.keys,res0.rt,res0.duration,step1.started,step1.stopped,act1,s2,res1.keys,step2.started,step2.stopped,act2,s3,res2.keys,rew,reward_comp.started,reward_comp.stopped,reward_disp.started,reward_disp.stopped,trials.thisRepN,trials.thisTrialN,trials.thisN,trials.thisIndex,trials.ran,s00a0s10,s00a0s11,s00a1s10,s00a1s11,rew10,rew11,break_block.started,break_block.stopped,block.thisRepN,block.thisTrialN,block.thisN,block.thisIndex,block.ran,s00path,s10path,s11path,s20path,s21path,res1.rt,res1.duration,s10a0s20,s10a0s21,s10a1s20,s10a1s21,s11a0s20,s11a0s21,s11a1s20,s11a1s21,rew20,rew21,res2.rt,res2.duration,s20a0s30,s20a0s31,s20a1s30,s20a1s31,s21a0s30,s21a0s31,s21a1s30,s21a1s31,rew30,rew31
1E-04,0.0029,661564c766603e80ca4c3184,66db11f1434787354bb66570,2024-09-06_16h36.29.873,mdp,2024.2.1,Win32,60.60606061,66d7945b1baad48e845df3ce,,,,,,,,,,,,,,,,,,,,,,,,,,,,,,,,,,,,,,,,,,,,,,,,,,,,,,,,,,,,,,,,,,,,,,,,,,,,,,,,,,,,,,,,,,,
,,661564c766603e80ca4c3184,66db11f1434787354bb66570,2024-09-06_16h36.29.873,mdp,2024.2.1,Win32,60.60606061,66d7945b1baad48e845df3ce,0.0077,24.6205,0,0,0,0,1,rlnn_exp/rlnn_exp.001.png,,,,,,,,,,,,,,,,,,,,,,,,,,,,,,,,,,,,,,,,,,,,,,,,,,,,,,,,,,,,,,,,,,,,,,,,,,,,,,,,,,,
,,661564c766603e80ca4c3184,66db11f1434787354bb66570,2024-09-06_16h36.29.873,mdp,2024.2.1,Win32,60.60606061,66d7945b1baad48e845df3ce,24.6211,42.9039,0,1,1,1,1,rlnn_exp/rlnn_exp.002.png,,,,,,,,,,,,,,,,,,,,,,,,,,,,,,,,,,,,,,,,,,,,,,,,,,,,,,,,,,,,,,,,,,,,,,,,,,,,,,,,,,,
,,661564c766603e80ca4c3184,66db11f1434787354bb66570,2024-09-06_16h36.29.873,mdp,2024.2.1,Win32,60.60606061,66d7945b1baad48e845df3ce,42.9129,54.3712,0,2,2,2,1,rlnn_exp/rlnn_exp.003.png,,,,,,,,,,,,,,,,,,,,,,,,,,,,,,,,,,,,,,,,,,,,,,,,,,,,,,,,,,,,,,,,,,,,,,,,,,,,,,,,,,,
,,661564c766603e80ca4c3184,66db11f1434787354bb66570,2024-09-06_16h36.29.873,mdp,2024.2.1,Win32,60.60606061,66d7945b1baad48e845df3ce,54.38,66.8882,0,3,3,3,1,rlnn_exp/rlnn_exp.004.png,,,,,,,,,,,,,,,,,,,,,,,,,,,,,,,,,,,,,,,,,,,,,,,,,,,,,,,,,,,,,,,,,,,,,,,,,,,,,,,,,,,
,,661564c766603e80ca4c3184,66db11f1434787354bb66570,2024-09-06_16h36.29.873,mdp,2024.2.1,Win32,60.60606061,66d7945b1baad48e845df3ce,,,,,,,,,66.8957,79.5719,y,2.656,,,,,,,,,,,,,,,,,,,,,,,,,,,,,,,,,,,,,,,,,,,,,,,,,,,,,,,,,,,,,,,,,,,,,,,,,,,,,,,
,,661564c766603e80ca4c3184,66db11f1434787354bb66570,2024-09-06_16h36.29.873,mdp,2024.2.1,Win32,60.60606061,66d7945b1baad48e845df3ce,,,,,,,,,,,,,,1,seqs/st1seq32.csv,79.5843,82.0892,space,1.9892,,82.0927,82.0927,82.0931,83.4055,1,1,right,0.779,,83.4059,83.407,,1,,83.4073,83.4081,,1,,0,83.4082,83.4082,83.4084,84.9054,0,0,0,0,1,0.6,0.4,0.2,0.8,1,0,,,,,,,,,,,,,,,,,,,,,,,,,,,,,,,,,,,,
,,661564c766603e80ca4c3184,66db11f1434787354bb66570,2024-09-06_16h36.29.873,mdp,2024.2.1,Win32,60.60606061,66d7945b1baad48e845df3ce,,,,,,,,,,,,,,,,,,,,,84.9057,84.9057,84.9063,86.1388,0,1,left,0.7109,,86.1397,86.1404,,0,,86.141,86.1414,,1,,0,86.1414,86.1415,86.1419,87.6388,0,1,1,1,1,0.6,0.4,0.2,0.8,1,0,,,,,,,,,,,,,,,,,,,,,,,,,,,,,,,,,,,,
,,661564c766603e80ca4c3184,66db11f1434787354bb66570,2024-09-06_16h36.29.873,mdp,2024.2.1,Win32,60.60606061,66d7945b1baad48e845df3ce,,,,,,,,,,,,,,,,,,,,,87.6392,87.6392,87.6405,88.789,0,0,left,0.6262,,88.7898,88.7903,,0,,88.7915,88.792,,0,,1,88.7921,88.7921,88.7926,90.2887,0,2,2,2,1,0.6,0.4,0.2,0.8,1,0,,,,,,,,,,,,,,,,,,,,,,,,,,,,,,,,,,,,
,,661564c766603e80ca4c3184,66db11f1434787354bb66570,2024-09-06_16h36.29.873,mdp,2024.2.1,Win32,60.60606061,66d7945b1baad48e845df3ce,,,,,,,,,,,,,,,,,,,,,90.2891,90.2891,90.2901,91.3389,0,0,left,0.5205,,91.3397,91.3403,,0,,91.3408,91.3411,,1,,1,91.3411,91.3411,91.3414,92.839,0,3,3,3,1,0.6,0.4,0.2,0.8,1,0,,,,,,,,,,,,,,,,,,,,,,,,,,,,,,,,,,,,
,,661564c766603e80ca4c3184,66db11f1434787354bb66570,2024-09-06_16h36.29.873,mdp,2024.2.1,Win32,60.60606061,66d7945b1baad48e845df3ce,,,,,,,,,,,,,,,,,,,,,92.8394,92.8395,92.8405,93.9224,0,1,left,0.5621,,93.9231,93.9237,,1,,93.9242,93.9244,,1,,0,93.9244,93.9244,93.9251,95.4223,0,4,4,4,1,0.6,0.4,0.2,0.8,1,0,,,,,,,,,,,,,,,,,,,,,,,,,,,,,,,,,,,,
,,661564c766603e80ca4c3184,66db11f1434787354bb66570,2024-09-06_16h36.29.873,mdp,2024.2.1,Win32,60.60606061,66d7945b1baad48e845df3ce,,,,,,,,,,,,,,,,,,,,,95.4226,95.4227,95.424,96.4058,0,1,left,0.451,,96.4065,96.407,,1,,96.4075,96.4078,,0,,0,96.4078,96.4078,96.4083,97.9058,0,5,5,5,1,0.6,0.4,0.2,0.8,1,0,,,,,,,,,,,,,,,,,,,,,,,,,,,,,,,,,,,,
,,661564c766603e80ca4c3184,66db11f1434787354bb66570,2024-09-06_16h36.29.873,mdp,2024.2.1,Win32,60.60606061,66d7945b1baad48e845df3ce,,,,,,,,,,,,,,,,,,,,,97.9062,97.9062,97.9075,98.9229,0,0,left,0.4953,,98.9237,98.9243,,1,,98.9248,98.9252,,1,,1,98.9252,98.9252,98.9255,100.4224,0,6,6,6,1,0.6,0.4,0.2,0.8,1,0,,,,,,,,,,,,,,,,,,,,,,,,,,,,,,,,,,,,
,,661564c766603e80ca4c3184,66db11f1434787354bb66570,2024-09-06_16h36.29.873,mdp,2024.2.1,Win32,60.60606061,66d7945b1baad48e845df3ce,,,,,,,,,,,,,,,,,,,,,100.4226,100.4226,100.4235,101.3894,0,1,left,0.4354,,101.3905,101.3911,,0,,101.3917,101.392,,0,,0,101.3921,101.3921,101.3924,102.8893,0,7,7,7,1,0.8,0.2,0.8,0.2,1,0,,,,,,,,,,,,,,,,,,,,,,,,,,,,,,,,,,,,
,,661564c766603e80ca4c3184,66db11f1434787354bb66570,2024-09-06_16h36.29.873,mdp,2024.2.1,Win32,60.60606061,66d7945b1baad48e845df3ce,,,,,,,,,,,,,,,,,,,,,102.8897,102.8898,102.8908,103.7394,1,0,right,0.3201,,103.7407,103.7413,,0,,103.7417,103.7419,,0,,1,103.742,103.742,103.7422,105.2393,0,8,8,8,1,0.6,0.4,0.6,0.4,1,0,,,,,,,,,,,,,,,,,,,,,,,,,,,,,,,,,,,,
,,661564c766603e80ca4c3184,66db11f1434787354bb66570,2024-09-06_16h36.29.873,mdp,2024.2.1,Win32,60.60606061,66d7945b1baad48e845df3ce,,,,,,,,,,,,,,,,,,,,,105.2396,105.2396,105.2403,106.0728,1,1,right,0.3065,,106.0737,106.0744,,0,,106.0753,106.0757,,0,,0,106.0757,106.0757,106.0761,107.5728,0,9,9,9,1,0.6,0.4,0.6,0.4,1,0,,,,,,,,,,,,,,,,,,,,,,,,,,,,,,,,,,,,
,,661564c766603e80ca4c3184,66db11f1434787354bb66570,2024-09-06_16h36.29.873,mdp,2024.2.1,Win32,60.60606061,66d7945b1baad48e845df3ce,,,,,,,,,,,,,,,,,,,,,107.5733,107.5733,107.5743,108.4071,0,1,left,0.3013,,108.4082,108.4092,,0,,108.4097,108.4102,,1,,0,108.4102,108.4102,108.411,109.9062,0,10,10,10,1,0.6,0.4,0.6,0.4,1,0,,,,,,,,,,,,,,,,,,,,,,,,,,,,,,,,,,,,
,,661564c766603e80ca4c3184,66db11f1434787354bb66570,2024-09-06_16h36.29.873,mdp,2024.2.1,Win32,60.60606061,66d7945b1baad48e845df3ce,,,,,,,,,,,,,,,,,,,,,109.9065,109.9065,109.9074,110.7062,0,1,left,0.2805,,110.7072,110.7077,,0,,110.7083,110.7087,,1,,0,110.7087,110.7087,110.7091,112.2062,0,11,11,11,1,0.6,0.4,0.6,0.4,1,0,,,,,,,,,,,,,,,,,,,,,,,,,,,,,,,,,,,,
,,661564c766603e80ca4c3184,66db11f1434787354bb66570,2024-09-06_16h36.29.873,mdp,2024.2.1,Win32,60.60606061,66d7945b1baad48e845df3ce,,,,,,,,,,,,,,,,,,,,,112.2065,112.2065,112.2073,113.0396,0,1,left,0.3003,,113.0403,113.0406,,1,,113.041,113.0413,,0,,0,113.0413,113.0413,113.0416,114.5396,0,12,12,12,1,0.6,0.4,0.6,0.4,1,0,,,,,,,,,,,,,,,,,,,,,,,,,,,,,,,,,,,,
,,661564c766603e80ca4c3184,66db11f1434787354bb66570,2024-09-06_16h36.29.873,mdp,2024.2.1,Win32,60.60606061,66d7945b1baad48e845df3ce,,,,,,,,,,,,,,,,,,,,,114.5399,114.5399,114.5405,115.2565,0,1,left,0.1831,,115.2575,115.2581,,1,,115.2589,115.2592,,1,,0,115.2592,115.2592,115.2594,116.7565,0,13,13,13,1,0.4,0.6,0.8,0.2,1,0,,,,,,,,,,,,,,,,,,,,,,,,,,,,,,,,,,,,
,,661564c766603e80ca4c3184,66db11f1434787354bb66570,2024-09-06_16h36.29.873,mdp,2024.2.1,Win32,60.60606061,66d7945b1baad48e845df3ce,,,,,,,,,,,,,,,,,,,,,116.7568,116.7568,116.7579,117.3565,1,0,right,0.0698,,117.3575,117.3583,,1,,117.359,117.3593,,0,,1,117.3594,117.3594,117.3598,118.8565,0,14,14,14,1,0.2,0.8,0.6,0.4,1,0,,,,,,,,,,,,,,,,,,,,,,,,,,,,,,,,,,,,
,,661564c766603e80ca4c3184,66db11f1434787354bb66570,2024-09-06_16h36.29.873,mdp,2024.2.1,Win32,60.60606061,66d7945b1baad48e845df3ce,,,,,,,,,,,,,,,,,,,,,118.8568,118.8568,118.8574,119.4732,1,1,right,0.0898,,119.4739,119.4746,,0,,119.475,119.4753,,1,,0,119.4753,119.4754,119.4757,120.9731,0,15,15,15,1,0.8,0.2,0.8,0.2,1,0,,,,,,,,,,,,,,,,,,,,,,,,,,,,,,,,,,,,
,,661564c766603e80ca4c3184,66db11f1434787354bb66570,2024-09-06_16h36.29.873,mdp,2024.2.1,Win32,60.60606061,66d7945b1baad48e845df3ce,,,,,,,,,,,,,,,,,,,,,120.9733,120.9733,120.974,121.6732,1,1,right,0.1728,,121.6744,121.6749,,0,,121.6754,121.6757,,0,,0,121.6757,121.6757,121.6759,123.1734,0,16,16,16,1,0.8,0.2,0.8,0.2,1,0,,,,,,,,,,,,,,,,,,,,,,,,,,,,,,,,,,,,
,,661564c766603e80ca4c3184,66db11f1434787354bb66570,2024-09-06_16h36.29.873,mdp,2024.2.1,Win32,60.60606061,66d7945b1baad48e845df3ce,,,,,,,,,,,,,,,,,,,,,123.1737,123.1737,123.1744,123.8732,1,0,right,0.1733,,123.8739,123.8744,,1,,123.8748,123.875,,1,,1,123.875,123.875,123.8753,125.3734,0,17,17,17,1,0.8,0.2,0.8,0.2,1,0,,,,,,,,,,,,,,,,,,,,,,,,,,,,,,,,,,,,
,,661564c766603e80ca4c3184,66db11f1434787354bb66570,2024-09-06_16h36.29.873,mdp,2024.2.1,Win32,60.60606061,66d7945b1baad48e845df3ce,,,,,,,,,,,,,,,,,,,,,125.3738,125.3738,125.3747,125.9571,1,0,right,0.0607,,125.9584,125.9593,,0,,125.9605,125.961,,0,,1,125.961,125.961,125.9619,127.4566,0,18,18,18,1,0.8,0.2,0.8,0.2,1,0,,,,,,,,,,,,,,,,,,,,,,,,,,,,,,,,,,,,
,,661564c766603e80ca4c3184,66db11f1434787354bb66570,2024-09-06_16h36.29.873,mdp,2024.2.1,Win32,60.60606061,66d7945b1baad48e845df3ce,,,,,,,,,,,,,,,,,,,,,127.4569,127.4569,127.4575,128.2403,1,1,right,0.2573,,128.2411,128.2415,,1,,128.2421,128.2424,,1,,0,128.2424,128.2424,128.2426,129.7401,0,19,19,19,1,0.6,0.4,0.6,0.4,1,0,,,,,,,,,,,,,,,,,,,,,,,,,,,,,,,,,,,,
,,661564c766603e80ca4c3184,66db11f1434787354bb66570,2024-09-06_16h36.29.873,mdp,2024.2.1,Win32,60.60606061,66d7945b1baad48e845df3ce,,,,,,,,,,,,,,,,,,,,,129.7404,129.7404,129.7415,130.3237,0,1,left,0.0621,,130.3247,130.3254,,1,,130.3259,130.3262,,0,,0,130.3262,130.3262,130.3266,131.8235,0,20,20,20,1,0.4,0.6,0.8,0.2,1,0,,,,,,,,,,,,,,,,,,,,,,,,,,,,,,,,,,,,
,,661564c766603e80ca4c3184,66db11f1434787354bb66570,2024-09-06_16h36.29.873,mdp,2024.2.1,Win32,60.60606061,66d7945b1baad48e845df3ce,,,,,,,,,,,,,,,,,,,,,131.8238,131.8239,131.8244,132.7238,0,1,left,0.3708,,132.725,132.7254,,0,,132.7265,132.7267,,1,,0,132.7268,132.7268,132.727,134.2239,0,21,21,21,1,0.4,0.6,0.8,0.2,1,0,,,,,,,,,,,,,,,,,,,,,,,,,,,,,,,,,,,,
,,661564c766603e80ca4c3184,66db11f1434787354bb66570,2024-09-06_16h36.29.873,mdp,2024.2.1,Win32,60.60606061,66d7945b1baad48e845df3ce,,,,,,,,,,,,,,,,,,,,,134.2246,134.2246,134.226,134.8237,1,0,right,0.0744,,134.8248,134.8254,,0,,134.8263,134.827,,1,,1,134.827,134.827,134.8275,136.3236,0,22,22,22,1,0.4,0.6,0.8,0.2,1,0,,,,,,,,,,,,,,,,,,,,,,,,,,,,,,,,,,,,
,,661564c766603e80ca4c3184,66db11f1434787354bb66570,2024-09-06_16h36.29.873,mdp,2024.2.1,Win32,60.60606061,66d7945b1baad48e845df3ce,,,,,,,,,,,,,,,,,,,,,136.3238,136.3238,136.3245,137.1904,1,0,right,0.335,,137.1912,137.1915,,0,,137.1919,137.1922,,0,,1,137.1922,137.1922,137.1924,138.6905,0,23,23,23,1,0.4,0.6,0.8,0.2,1,0,,,,,,,,,,,,,,,,,,,,,,,,,,,,,,,,,,,,
,,661564c766603e80ca4c3184,66db11f1434787354bb66570,2024-09-06_16h36.29.873,mdp,2024.2.1,Win32,60.60606061,66d7945b1baad48e845df3ce,,,,,,,,,,,,,,,,,,,,,138.6907,138.6907,138.6914,139.4404,1,0,right,0.2316,,139.4411,139.4419,,0,,139.4427,139.4432,,0,,1,139.4433,139.4433,139.4438,140.9405,0,24,24,24,1,0.4,0.6,0.8,0.2,1,0,,,,,,,,,,,,,,,,,,,,,,,,,,,,,,,,,,,,
,,661564c766603e80ca4c3184,66db11f1434787354bb66570,2024-09-06_16h36.29.873,mdp,2024.2.1,Win32,60.60606061,66d7945b1baad48e845df3ce,,,,,,,,,,,,,,,,,,,,,140.9409,140.9409,140.9417,141.7738,1,0,right,0.3091,,141.7746,141.7751,,0,,141.7756,141.7759,,0,,1,141.7759,141.7759,141.7761,143.2739,0,25,25,25,1,0.4,0.6,0.8,0.2,1,0,,,,,,,,,,,,,,,,,,,,,,,,,,,,,,,,,,,,
,,661564c766603e80ca4c3184,66db11f1434787354bb66570,2024-09-06_16h36.29.873,mdp,2024.2.1,Win32,60.60606061,66d7945b1baad48e845df3ce,,,,,,,,,,,,,,,,,,,,,143.2743,143.2743,143.2751,143.9239,1,0,right,0.1149,,143.9245,143.925,,0,,143.9255,143.9259,,0,,1,143.9259,143.9259,143.9263,145.4239,0,26,26,26,1,0.4,0.6,0.8,0.2,1,0,,,,,,,,,,,,,,,,,,,,,,,,,,,,,,,,,,,,
,,661564c766603e80ca4c3184,66db11f1434787354bb66570,2024-09-06_16h36.29.873,mdp,2024.2.1,Win32,60.60606061,66d7945b1baad48e845df3ce,,,,,,,,,,,,,,,,,,,,,145.4242,145.4242,145.4248,146.0907,1,0,right,0.138,,146.0913,146.092,,0,,146.0929,146.0932,,0,,1,146.0932,146.0932,146.0934,147.591,0,27,27,27,1,0.4,0.6,0.8,0.2,1,0,,,,,,,,,,,,,,,,,,,,,,,,,,,,,,,,,,,,
,,661564c766603e80ca4c3184,66db11f1434787354bb66570,2024-09-06_16h36.29.873,mdp,2024.2.1,Win32,60.60606061,66d7945b1baad48e845df3ce,,,,,,,,,,,,,,,,,,,,,147.5913,147.5913,147.5921,148.1908,1,0,right,0.0752,,148.1916,148.1922,,0,,148.1926,148.1929,,0,,1,148.1929,148.1929,148.1932,149.6908,0,28,28,28,1,0.4,0.6,0.8,0.2,1,0,,,,,,,,,,,,,,,,,,,,,,,,,,,,,,,,,,,,
,,661564c766603e80ca4c3184,66db11f1434787354bb66570,2024-09-06_16h36.29.873,mdp,2024.2.1,Win32,60.60606061,66d7945b1baad48e845df3ce,,,,,,,,,,,,,,,,,,,,,149.6911,149.6912,149.6921,150.4247,1,0,right,0.2151,,150.4257,150.4263,,0,,150.4268,150.4272,,1,,1,150.4273,150.4273,150.4276,151.9243,0,29,29,29,1,0.4,0.6,0.8,0.2,1,0,,,,,,,,,,,,,,,,,,,,,,,,,,,,,,,,,,,,
,,661564c766603e80ca4c3184,66db11f1434787354bb66570,2024-09-06_16h36.29.873,mdp,2024.2.1,Win32,60.60606061,66d7945b1baad48e845df3ce,,,,,,,,,,,,,,,,,,,,,151.9249,151.9249,151.9257,152.6077,1,1,right,0.1572,,152.6085,152.6091,,0,,152.6095,152.6098,,0,,0,152.6099,152.6099,152.6104,154.1075,0,30,30,30,1,0.4,0.6,0.8,0.2,1,0,,,,,,,,,,,,,,,,,,,,,,,,,,,,,,,,,,,,
,,661564c766603e80ca4c3184,66db11f1434787354bb66570,2024-09-06_16h36.29.873,mdp,2024.2.1,Win32,60.60606061,66d7945b1baad48e845df3ce,,,,,,,,,,,,,,,,,,,,,154.1078,154.1078,154.1086,154.9411,1,0,right,0.3104,,154.9421,154.9428,,0,,154.9439,154.9445,,0,,1,154.9445,154.9445,154.9459,156.4409,0,31,31,31,1,0.4,0.6,0.8,0.2,1,0,,,,,,,,,,,,,,,,,,,,,,,,,,,,,,,,,,,,
,,661564c766603e80ca4c3184,66db11f1434787354bb66570,2024-09-06_16h36.29.873,mdp,2024.2.1,Win32,60.60606061,66d7945b1baad48e845df3ce,,,,,,,,,,,,,,,,,,,,,156.4412,156.4412,156.4419,157.1243,1,0,right,0.1609,,157.1251,157.1257,,1,,157.126,157.1267,,0,,1,157.1267,157.1267,157.1271,158.6246,0,32,32,32,1,0.4,0.6,0.8,0.2,1,0,,,,,,,,,,,,,,,,,,,,,,,,,,,,,,,,,,,,
,,661564c766603e80ca4c3184,66db11f1434787354bb66570,2024-09-06_16h36.29.873,mdp,2024.2.1,Win32,60.60606061,66d7945b1baad48e845df3ce,,,,,,,,,,,,,,,,,,,,,158.625,158.625,158.6257,159.2744,1,0,right,0.1296,,159.275,159.2754,,0,,159.2758,159.276,,0,,1,159.276,159.2761,159.2763,160.7747,0,33,33,33,1,0.4,0.6,0.8,0.2,1,0,,,,,,,,,,,,,,,,,,,,,,,,,,,,,,,,,,,,
,,661564c766603e80ca4c3184,66db11f1434787354bb66570,2024-09-06_16h36.29.873,mdp,2024.2.1,Win32,60.60606061,66d7945b1baad48e845df3ce,,,,,,,,,,,,,,,,,,,,,160.775,160.775,160.7758,161.5247,1,0,right,0.2281,,161.5256,161.5261,,0,,161.5267,161.5272,,1,,1,161.5273,161.5273,161.5279,163.0246,0,34,34,34,1,0.4,0.6,0.8,0.2,1,0,,,,,,,,,,,,,,,,,,,,,,,,,,,,,,,,,,,,
,,661564c766603e80ca4c3184,66db11f1434787354bb66570,2024-09-06_16h36.29.873,mdp,2024.2.1,Win32,60.60606061,66d7945b1baad48e845df3ce,,,,,,,,,,,,,,,,,,,,,163.0248,163.0248,163.0254,163.6413,1,0,right,0.0857,,163.642,163.6424,,1,,163.643,163.6433,,0,,1,163.6433,163.6433,163.6437,165.1413,0,35,35,35,1,0.4,0.6,0.8,0.2,1,0,,,,,,,,,,,,,,,,,,,,,,,,,,,,,,,,,,,,
,,661564c766603e80ca4c3184,66db11f1434787354bb66570,2024-09-06_16h36.29.873,mdp,2024.2.1,Win32,60.60606061,66d7945b1baad48e845df3ce,,,,,,,,,,,,,,,,,,,,,165.1417,165.1417,165.1428,165.7414,1,0,right,0.0769,,165.7422,165.743,,0,,165.7442,165.7451,,1,,1,165.7451,165.7451,165.7456,167.2414,0,36,36,36,1,0.4,0.6,0.8,0.2,1,0,,,,,,,,,,,,,,,,,,,,,,,,,,,,,,,,,,,,
,,661564c766603e80ca4c3184,66db11f1434787354bb66570,2024-09-06_16h36.29.873,mdp,2024.2.1,Win32,60.60606061,66d7945b1baad48e845df3ce,,,,,,,,,,,,,,,,,,,,,167.2416,167.2416,167.2425,167.9414,1,0,right,0.174,,167.9421,167.9426,,0,,167.9431,167.9434,,1,,1,167.9434,167.9434,167.9437,169.4415,0,37,37,37,1,0.2,0.8,0.6,0.4,1,0,,,,,,,,,,,,,,,,,,,,,,,,,,,,,,,,,,,,
,,661564c766603e80ca4c3184,66db11f1434787354bb66570,2024-09-06_16h36.29.873,mdp,2024.2.1,Win32,60.60606061,66d7945b1baad48e845df3ce,,,,,,,,,,,,,,,,,,,,,169.4418,169.4418,169.4426,170.1581,1,1,right,0.1932,,170.1589,170.1592,,1,,170.1595,170.1597,,1,,0,170.1597,170.1597,170.16,171.6581,0,38,38,38,1,0.8,0.2,0.2,0.8,1,0,,,,,,,,,,,,,,,,,,,,,,,,,,,,,,,,,,,,
,,661564c766603e80ca4c3184,66db11f1434787354bb66570,2024-09-06_16h36.29.873,mdp,2024.2.1,Win32,60.60606061,66d7945b1baad48e845df3ce,,,,,,,,,,,,,,,,,,,,,171.6582,171.6583,171.659,172.2915,1,1,right,0.1117,,172.2921,172.2927,,1,,172.2931,172.2935,,1,,0,172.2935,172.2935,172.2937,173.7915,0,39,39,39,1,0.8,0.2,0.2,0.8,1,0,,,,,,,,,,,,,,,,,,,,,,,,,,,,,,,,,,,,
,,661564c766603e80ca4c3184,66db11f1434787354bb66570,2024-09-06_16h36.29.873,mdp,2024.2.1,Win32,60.60606061,66d7945b1baad48e845df3ce,,,,,,,,,,,,,,,,,,,,,173.7918,173.7918,173.7936,174.4917,1,0,right,0.1683,,174.4923,174.4927,,0,,174.493,174.4932,,1,,1,174.4932,174.4933,174.4935,175.9916,0,40,40,40,1,0.8,0.2,0.2,0.8,1,0,,,,,,,,,,,,,,,,,,,,,,,,,,,,,,,,,,,,
,,661564c766603e80ca4c3184,66db11f1434787354bb66570,2024-09-06_16h36.29.873,mdp,2024.2.1,Win32,60.60606061,66d7945b1baad48e845df3ce,,,,,,,,,,,,,,,,,,,,,175.9919,175.9919,175.9926,176.7418,1,1,right,0.2184,,176.7427,176.7431,,1,,176.7436,176.7438,,1,,0,176.7439,176.7439,176.7443,178.2416,0,41,41,41,1,0.8,0.2,0.2,0.8,1,0,,,,,,,,,,,,,,,,,,,,,,,,,,,,,,,,,,,,
,,661564c766603e80ca4c3184,66db11f1434787354bb66570,2024-09-06_16h36.29.873,mdp,2024.2.1,Win32,60.60606061,66d7945b1baad48e845df3ce,,,,,,,,,,,,,,,,,,,,,178.2419,178.2419,178.2425,178.9421,0,0,left,0.1751,,178.943,178.9435,,0,,178.944,178.9443,,0,,1,178.9443,178.9443,178.9446,180.4417,0,42,42,42,1,0.8,0.2,0.2,0.8,1,0,,,,,,,,,,,,,,,,,,,,,,,,,,,,,,,,,,,,
,,661564c766603e80ca4c3184,66db11f1434787354bb66570,2024-09-06_16h36.29.873,mdp,2024.2.1,Win32,60.60606061,66d7945b1baad48e845df3ce,,,,,,,,,,,,,,,,,,,,,180.4418,180.4418,180.4425,181.1918,0,0,left,0.2245,,181.1928,181.1934,,0,,181.194,181.1949,,0,,1,181.1949,181.195,181.1953,182.6918,0,43,43,43,1,0.8,0.2,0.2,0.8,1,0,,,,,,,,,,,,,,,,,,,,,,,,,,,,,,,,,,,,
,,661564c766603e80ca4c3184,66db11f1434787354bb66570,2024-09-06_16h36.29.873,mdp,2024.2.1,Win32,60.60606061,66d7945b1baad48e845df3ce,,,,,,,,,,,,,,,,,,,,,182.692,182.692,182.6926,183.5087,0,0,left,0.2795,,183.5097,183.5103,,1,,183.5109,183.5113,,0,,1,183.5113,183.5113,183.5118,185.0087,0,44,44,44,1,0.8,0.2,0.2,0.8,1,0,,,,,,,,,,,,,,,,,,,,,,,,,,,,,,,,,,,,
,,661564c766603e80ca4c3184,66db11f1434787354bb66570,2024-09-06_16h36.29.873,mdp,2024.2.1,Win32,60.60606061,66d7945b1baad48e845df3ce,,,,,,,,,,,,,,,,,,,,,185.0089,185.0089,185.0097,185.9087,0,1,left,0.3772,,185.9096,185.9102,,1,,185.9109,185.9115,,0,,0,185.9115,185.9115,185.9121,187.4085,0,45,45,45,1,0.6,0.4,0.6,0.4,1,0,,,,,,,,,,,,,,,,,,,,,,,,,,,,,,,,,,,,
,,661564c766603e80ca4c3184,66db11f1434787354bb66570,2024-09-06_16h36.29.873,mdp,2024.2.1,Win32,60.60606061,66d7945b1baad48e845df3ce,,,,,,,,,,,,,,,,,,,,,187.4089,187.4089,187.4095,188.2257,0,1,left,0.2976,,188.2271,188.2277,,0,,188.2284,188.2288,,0,,0,188.2288,188.2288,188.2296,189.7254,0,46,46,46,1,0.6,0.4,0.6,0.4,1,0,,,,,,,,,,,,,,,,,,,,,,,,,,,,,,,,,,,,
,,661564c766603e80ca4c3184,66db11f1434787354bb66570,2024-09-06_16h36.29.873,mdp,2024.2.1,Win32,60.60606061,66d7945b1baad48e845df3ce,,,,,,,,,,,,,,,,,,,,,189.7258,189.7258,189.7267,190.3921,1,1,right,0.1404,,190.3928,190.3933,,0,,190.3941,190.3943,,0,,0,190.3943,190.3943,190.3946,191.8922,0,47,47,47,1,0.6,0.4,0.6,0.4,1,0,,,,,,,,,,,,,,,,,,,,,,,,,,,,,,,,,,,,
,,661564c766603e80ca4c3184,66db11f1434787354bb66570,2024-09-06_16h36.29.873,mdp,2024.2.1,Win32,60.60606061,66d7945b1baad48e845df3ce,,,,,,,,,,,,,,,,,,,,,191.8925,191.8925,191.8932,192.6425,0,0,left,0.2294,,192.6434,192.6442,,0,,192.645,192.6456,,0,,1,192.6456,192.6456,192.646,194.1423,0,48,48,48,1,0.6,0.4,0.6,0.4,1,0,,,,,,,,,,,,,,,,,,,,,,,,,,,,,,,,,,,,
,,661564c766603e80ca4c3184,66db11f1434787354bb66570,2024-09-06_16h36.29.873,mdp,2024.2.1,Win32,60.60606061,66d7945b1baad48e845df3ce,,,,,,,,,,,,,,,,,,,,,194.1426,194.1426,194.1436,195.6258,0,1,left,0.9646,,195.6267,195.6273,,0,,195.628,195.6284,,1,,0,195.6284,195.6284,195.6291,197.1257,0,49,49,49,1,0.4,0.6,0.8,0.2,1,0,,,,,,,,,,,,,,,,,,,,,,,,,,,,,,,,,,,,
,,661564c766603e80ca4c3184,66db11f1434787354bb66570,2024-09-06_16h36.29.873,mdp,2024.2.1,Win32,60.60606061,66d7945b1baad48e845df3ce,,,,,,,,,,,,,,,,,,,,,,,,,,,,,,,,,,,,,,,,,,,,,,,,,,,,,,,,197.1262,255.6447,0,0,0,7,1,imgs/rabbit.png,imgs/squirrel.png,imgs/dog.png,imgs/elephant.png,imgs/giraffe.png,,,,,,,,,,,,,,,,,,,,,,,,
,,661564c766603e80ca4c3184,66db11f1434787354bb66570,2024-09-06_16h36.29.873,mdp,2024.2.1,Win32,60.60606061,66d7945b1baad48e845df3ce,,,,,,,,,,,,,,2,seqs/st2seq1.csv,255.6541,257.4778,space,1.3109,,257.4822,257.4822,257.4828,258.5612,0,1,left,0.5458,,258.5621,259.7111,0,0,left,259.7118,259.7123,,0,,1,259.7124,259.7124,259.7129,261.2111,0,0,0,0,1,0.6,0.4,0.4,0.6,,,,,,,,,,,,,,,0.6182,,0.6,0.4,0.2,0.8,0.8,0.2,0.8,0.2,1,0,,,,,,,,,,,,
,,661564c766603e80ca4c3184,66db11f1434787354bb66570,2024-09-06_16h36.29.873,mdp,2024.2.1,Win32,60.60606061,66d7945b1baad48e845df3ce,,,,,,,,,,,,,,,,,,,,,261.2114,261.2114,261.2119,262.7279,0,1,left,0.9838,,262.7285,263.5613,0,0,left,263.5622,263.5626,,0,,1,263.5627,263.5627,263.5632,265.0612,0,1,1,1,1,0.2,0.8,0.6,0.4,,,,,,,,,,,,,,,0.3004,,0.6,0.4,0.2,0.8,0.8,0.2,0.8,0.2,1,0,,,,,,,,,,,,
,,661564c766603e80ca4c3184,66db11f1434787354bb66570,2024-09-06_16h36.29.873,mdp,2024.2.1,Win32,60.60606061,66d7945b1baad48e845df3ce,,,,,,,,,,,,,,,,,,,,,265.0615,265.0615,265.0622,265.8946,0,1,left,0.3086,,265.8952,266.6447,0,0,left,266.6455,266.646,,0,,1,266.646,266.646,266.6464,268.1446,0,2,2,2,1,0.2,0.8,0.6,0.4,,,,,,,,,,,,,,,0.2276,,0.6,0.4,0.2,0.8,0.8,0.2,0.8,0.2,1,0,,,,,,,,,,,,
,,661564c766603e80ca4c3184,66db11f1434787354bb66570,2024-09-06_16h36.29.873,mdp,2024.2.1,Win32,60.60606061,66d7945b1baad48e845df3ce,,,,,,,,,,,,,,,,,,,,,268.1448,268.1449,268.1454,268.8447,0,0,left,0.1703,,268.8455,269.5782,0,0,left,269.5791,269.5796,,0,,1,269.5796,269.5796,269.5802,271.078,0,3,3,3,1,0.4,0.6,0.8,0.2,,,,,,,,,,,,,,,0.2047,,0.6,0.4,0.2,0.8,0.8,0.2,0.8,0.2,1,0,,,,,,,,,,,,
,,661564c766603e80ca4c3184,66db11f1434787354bb66570,2024-09-06_16h36.29.873,mdp,2024.2.1,Win32,60.60606061,66d7945b1baad48e845df3ce,,,,,,,,,,,,,,,,,,,,,271.0783,271.0783,271.0789,271.9783,0,1,left,0.3777,,271.979,273.2949,0,0,left,273.2957,273.2962,,1,,1,273.2963,273.2963,273.2967,274.795,0,4,4,4,1,0.4,0.6,0.8,0.2,,,,,,,,,,,,,,,0.7819,,0.6,0.4,0.2,0.8,0.8,0.2,0.8,0.2,1,0,,,,,,,,,,,,
,,661564c766603e80ca4c3184,66db11f1434787354bb66570,2024-09-06_16h36.29.873,mdp,2024.2.1,Win32,60.60606061,66d7945b1baad48e845df3ce,,,,,,,,,,,,,,,,,,,,,274.7952,274.7953,274.7958,275.6617,0,1,left,0.3357,,275.6626,276.5117,0,1,left,276.5124,276.5128,,0,,0,276.5128,276.5128,276.5132,278.0117,0,5,5,5,1,0.4,0.6,0.8,0.2,,,,,,,,,,,,,,,0.3112,,0.6,0.4,0.2,0.8,0.8,0.2,0.8,0.2,1,0,,,,,,,,,,,,
,,661564c766603e80ca4c3184,66db11f1434787354bb66570,2024-09-06_16h36.29.873,mdp,2024.2.1,Win32,60.60606061,66d7945b1baad48e845df3ce,,,,,,,,,,,,,,,,,,,,,278.0121,278.0121,278.0128,278.8784,0,0,left,0.3435,,278.8791,279.5618,1,1,right,279.5624,279.5629,,1,,0,279.5629,279.5629,279.5632,281.0617,0,6,6,6,1,0.4,0.6,0.8,0.2,,,,,,,,,,,,,,,0.1479,,0.6,0.4,0.2,0.8,0.8,0.2,0.8,0.2,1,0,,,,,,,,,,,,
,,661564c766603e80ca4c3184,66db11f1434787354bb66570,2024-09-06_16h36.29.873,mdp,2024.2.1,Win32,60.60606061,66d7945b1baad48e845df3ce,,,,,,,,,,,,,,,,,,,,,281.062,281.062,281.0627,281.9118,0,1,left,0.3253,,281.9127,282.6286,0,0,left,282.6294,282.6299,,0,,1,282.63,282.63,282.6305,284.1285,0,7,7,7,1,0.4,0.6,0.8,0.2,,,,,,,,,,,,,,,0.183,,0.8,0.2,0.8,0.2,0.8,0.2,0.8,0.2,1,0,,,,,,,,,,,,
,,661564c766603e80ca4c3184,66db11f1434787354bb66570,2024-09-06_16h36.29.873,mdp,2024.2.1,Win32,60.60606061,66d7945b1baad48e845df3ce,,,,,,,,,,,,,,,,,,,,,284.1289,284.1289,284.1295,284.9287,0,1,left,0.2746,,284.93,285.6619,0,0,left,285.6627,285.6633,,1,,1,285.6634,285.6634,285.6638,287.1619,0,8,8,8,1,0.4,0.6,0.8,0.2,,,,,,,,,,,,,,,0.2098,,0.8,0.2,0.8,0.2,0.6,0.4,0.6,0.4,1,0,,,,,,,,,,,,
,,661564c766603e80ca4c3184,66db11f1434787354bb66570,2024-09-06_16h36.29.873,mdp,2024.2.1,Win32,60.60606061,66d7945b1baad48e845df3ce,,,,,,,,,,,,,,,,,,,,,287.1621,287.1621,287.1628,287.7788,0,1,left,0.0891,,287.7795,288.4954,0,1,left,288.4961,288.4965,,0,,0,288.4965,288.4965,288.4969,289.9953,0,9,9,9,1,0.4,0.6,0.8,0.2,,,,,,,,,,,,,,,0.1838,,0.8,0.2,0.8,0.2,0.6,0.4,0.6,0.4,1,0,,,,,,,,,,,,
,,661564c766603e80ca4c3184,66db11f1434787354bb66570,2024-09-06_16h36.29.873,mdp,2024.2.1,Win32,60.60606061,66d7945b1baad48e845df3ce,,,,,,,,,,,,,,,,,,,,,289.9957,289.9957,289.9964,290.7955,0,0,left,0.2798,,290.7962,292.0788,1,0,right,292.0795,292.0799,,0,,1,292.0799,292.0799,292.0803,293.5791,0,10,10,10,1,0.4,0.6,0.8,0.2,,,,,,,,,,,,,,,0.7562,,0.8,0.2,0.8,0.2,0.6,0.4,0.6,0.4,1,0,,,,,,,,,,,,
,,661564c766603e80ca4c3184,66db11f1434787354bb66570,2024-09-06_16h36.29.873,mdp,2024.2.1,Win32,60.60606061,66d7945b1baad48e845df3ce,,,,,,,,,,,,,,,,,,,,,293.5795,293.5795,293.5806,294.5457,0,0,left,0.4355,,294.5466,295.6289,1,0,right,295.6298,295.6303,,0,,1,295.6304,295.6304,295.631,297.1289,0,11,11,11,1,0.4,0.6,0.8,0.2,,,,,,,,,,,,,,,0.561,,0.8,0.2,0.8,0.2,0.6,0.4,0.6,0.4,1,0,,,,,,,,,,,,
,,661564c766603e80ca4c3184,66db11f1434787354bb66570,2024-09-06_16h36.29.873,mdp,2024.2.1,Win32,60.60606061,66d7945b1baad48e845df3ce,,,,,,,,,,,,,,,,,,,,,297.1293,297.1293,297.13,297.9125,0,1,left,0.2588,,297.9133,298.546,1,0,right,298.547,298.5474,,0,,1,298.5475,298.5475,298.5478,300.0456,0,12,12,12,1,0.4,0.6,0.8,0.2,,,,,,,,,,,,,,,0.1113,,0.8,0.2,0.8,0.2,0.6,0.4,0.6,0.4,1,0,,,,,,,,,,,,
,,661564c766603e80ca4c3184,66db11f1434787354bb66570,2024-09-06_16h36.29.873,mdp,2024.2.1,Win32,60.60606061,66d7945b1baad48e845df3ce,,,,,,,,,,,,,,,,,,,,,300.0459,300.0459,300.0467,300.9624,0,1,left,0.3897,,300.9631,301.9293,0,1,left,301.93,301.9305,,0,,0,301.9305,301.9305,301.9309,303.4292,0,13,13,13,1,0.4,0.6,0.8,0.2,,,,,,,,,,,,,,,0.4505,,0.8,0.2,0.8,0.2,0.6,0.4,0.6,0.4,1,0,,,,,,,,,,,,
,,661564c766603e80ca4c3184,66db11f1434787354bb66570,2024-09-06_16h36.29.873,mdp,2024.2.1,Win32,60.60606061,66d7945b1baad48e845df3ce,,,,,,,,,,,,,,,,,,,,,303.4295,303.4295,303.4302,304.8462,0,1,left,0.8854,,304.847,305.5793,0,0,left,305.5802,305.5807,,0,,1,305.5808,305.5808,305.5813,307.0791,0,14,14,14,1,0.4,0.6,0.8,0.2,,,,,,,,,,,,,,,0.2137,,0.8,0.2,0.8,0.2,0.6,0.4,0.6,0.4,1,0,,,,,,,,,,,,
,,661564c766603e80ca4c3184,66db11f1434787354bb66570,2024-09-06_16h36.29.873,mdp,2024.2.1,Win32,60.60606061,66d7945b1baad48e845df3ce,,,,,,,,,,,,,,,,,,,,,307.0795,307.0795,307.0801,308.6295,0,0,left,1.0182,,308.6304,309.5293,1,0,right,309.53,309.5303,,0,,1,309.5304,309.5304,309.5308,311.0295,0,15,15,15,1,0.4,0.6,0.8,0.2,,,,,,,,,,,,,,,0.3701,,0.8,0.2,0.8,0.2,0.6,0.4,0.6,0.4,1,0,,,,,,,,,,,,
,,661564c766603e80ca4c3184,66db11f1434787354bb66570,2024-09-06_16h36.29.873,mdp,2024.2.1,Win32,60.60606061,66d7945b1baad48e845df3ce,,,,,,,,,,,,,,,,,,,,,311.0297,311.0297,311.0305,312.6131,0,0,left,1.0521,,312.6141,313.7629,1,0,right,313.7638,313.7645,,1,,1,313.7646,313.7646,313.7656,315.2629,0,16,16,16,1,0.4,0.6,0.8,0.2,,,,,,,,,,,,,,,0.6311,,0.8,0.2,0.8,0.2,0.8,0.2,0.2,0.8,1,0,,,,,,,,,,,,
,,661564c766603e80ca4c3184,66db11f1434787354bb66570,2024-09-06_16h36.29.873,mdp,2024.2.1,Win32,60.60606061,66d7945b1baad48e845df3ce,,,,,,,,,,,,,,,,,,,,,315.2633,315.2633,315.2641,316.0796,0,0,left,0.2834,,316.0804,316.7964,1,1,right,316.7972,316.7977,,0,,0,316.7977,316.7977,316.7983,318.2963,0,17,17,17,1,0.4,0.6,0.8,0.2,,,,,,,,,,,,,,,0.1891,,0.8,0.2,0.8,0.2,0.8,0.2,0.2,0.8,1,0,,,,,,,,,,,,
,,661564c766603e80ca4c3184,66db11f1434787354bb66570,2024-09-06_16h36.29.873,mdp,2024.2.1,Win32,60.60606061,66d7945b1baad48e845df3ce,,,,,,,,,,,,,,,,,,,,,318.2966,318.2967,318.2974,319.3465,0,1,left,0.5229,,319.3475,320.0297,1,1,right,320.0304,320.0307,,1,,0,320.0307,320.0307,320.031,321.5298,0,18,18,18,1,0.4,0.6,0.8,0.2,,,,,,,,,,,,,,,0.1483,,0.8,0.2,0.8,0.2,0.8,0.2,0.2,0.8,1,0,,,,,,,,,,,,
,,661564c766603e80ca4c3184,66db11f1434787354bb66570,2024-09-06_16h36.29.873,mdp,2024.2.1,Win32,60.60606061,66d7945b1baad48e845df3ce,,,,,,,,,,,,,,,,,,,,,321.53,321.53,321.5307,322.6632,0,0,left,0.6092,,322.6639,323.7131,1,1,right,323.7143,323.7148,,0,,0,323.7149,323.7149,323.7157,325.2131,0,19,19,19,1,0.4,0.6,0.8,0.2,,,,,,,,,,,,,,,0.5187,,0.8,0.2,0.8,0.2,0.8,0.2,0.2,0.8,1,0,,,,,,,,,,,,
,,661564c766603e80ca4c3184,66db11f1434787354bb66570,2024-09-06_16h36.29.873,mdp,2024.2.1,Win32,60.60606061,66d7945b1baad48e845df3ce,,,,,,,,,,,,,,,,,,,,,325.2134,325.2134,325.2139,326.1966,0,1,left,0.4504,,326.1975,327.3966,0,0,left,327.3975,327.3979,,0,,1,327.398,327.398,327.3985,328.8967,0,20,20,20,1,0.4,0.6,0.8,0.2,,,,,,,,,,,,,,,0.6737,,0.8,0.2,0.8,0.2,0.8,0.2,0.2,0.8,1,0,,,,,,,,,,,,
,,661564c766603e80ca4c3184,66db11f1434787354bb66570,2024-09-06_16h36.29.873,mdp,2024.2.1,Win32,60.60606061,66d7945b1baad48e845df3ce,,,,,,,,,,,,,,,,,,,,,328.897,328.897,328.8977,329.8634,0,0,left,0.4429,,329.8642,330.9301,1,0,right,330.9311,330.9316,,0,,1,330.9317,330.9318,330.9323,332.4301,0,21,21,21,1,0.4,0.6,0.8,0.2,,,,,,,,,,,,,,,0.5307,,0.8,0.2,0.8,0.2,0.8,0.2,0.2,0.8,1,0,,,,,,,,,,,,
,,661564c766603e80ca4c3184,66db11f1434787354bb66570,2024-09-06_16h36.29.873,mdp,2024.2.1,Win32,60.60606061,66d7945b1baad48e845df3ce,,,,,,,,,,,,,,,,,,,,,332.4303,332.4303,332.431,333.0803,0,1,left,0.1172,,333.081,333.8301,1,0,right,333.8309,333.8313,,1,,1,333.8313,333.8313,333.8317,335.3302,0,22,22,22,1,0.8,0.2,0.2,0.8,,,,,,,,,,,,,,,0.2222,,0.8,0.2,0.8,0.2,0.8,0.2,0.2,0.8,1,0,,,,,,,,,,,,
,,661564c766603e80ca4c3184,66db11f1434787354bb66570,2024-09-06_16h36.29.873,mdp,2024.2.1,Win32,60.60606061,66d7945b1baad48e845df3ce,,,,,,,,,,,,,,,,,,,,,335.3305,335.3305,335.3311,336.1137,0,0,left,0.251,,336.1146,336.7469,1,0,right,336.7478,336.7483,,0,,1,336.7484,336.7484,336.7488,338.247,0,23,23,23,1,0.8,0.2,0.2,0.8,,,,,,,,,,,,,,,0.1021,,0.8,0.2,0.8,0.2,0.8,0.2,0.2,0.8,1,0,,,,,,,,,,,,
,,661564c766603e80ca4c3184,66db11f1434787354bb66570,2024-09-06_16h36.29.873,mdp,2024.2.1,Win32,60.60606061,66d7945b1baad48e845df3ce,,,,,,,,,,,,,,,,,,,,,338.2474,338.2474,338.2481,339.1304,0,0,left,0.348,,339.1311,339.6804,1,0,right,339.6812,339.6817,,0,,1,339.6817,339.6817,339.6821,341.1803,0,24,24,24,1,0.8,0.2,0.2,0.8,,,,,,,,,,,,,,,0.0129,,0.2,0.8,0.2,0.8,0.8,0.2,0.2,0.8,1,0,,,,,,,,,,,,
,,661564c766603e80ca4c3184,66db11f1434787354bb66570,2024-09-06_16h36.29.873,mdp,2024.2.1,Win32,60.60606061,66d7945b1baad48e845df3ce,,,,,,,,,,,,,,,,,,,,,341.1805,341.1805,341.1811,341.9305,0,0,left,0.2232,,341.9313,342.5471,1,1,right,342.5481,342.5487,,1,,0,342.5487,342.5487,342.5492,344.0471,0,25,25,25,1,0.8,0.2,0.2,0.8,,,,,,,,,,,,,,,0.0884,,0.2,0.8,0.2,0.8,0.8,0.2,0.2,0.8,1,0,,,,,,,,,,,,
,,661564c766603e80ca4c3184,66db11f1434787354bb66570,2024-09-06_16h36.29.873,mdp,2024.2.1,Win32,60.60606061,66d7945b1baad48e845df3ce,,,,,,,,,,,,,,,,,,,,,344.0474,344.0474,344.0482,344.8304,0,0,left,0.2601,,344.8311,345.3805,1,1,right,345.3813,345.3817,,1,,0,345.3817,345.3817,345.3821,346.8805,0,26,26,26,1,0.8,0.2,0.2,0.8,,,,,,,,,,,,,,,0.0458,,0.2,0.8,0.2,0.8,0.8,0.2,0.2,0.8,1,0,,,,,,,,,,,,
,,661564c766603e80ca4c3184,66db11f1434787354bb66570,2024-09-06_16h36.29.873,mdp,2024.2.1,Win32,60.60606061,66d7945b1baad48e845df3ce,,,,,,,,,,,,,,,,,,,,,346.8809,346.881,346.8816,347.714,0,0,left,0.3069,,347.7147,348.3641,1,1,right,348.365,348.3658,,1,,0,348.3658,348.3658,348.3664,349.864,0,27,27,27,1,0.4,0.6,0.4,0.6,,,,,,,,,,,,,,,0.1219,,0.2,0.8,0.2,0.8,0.8,0.2,0.2,0.8,1,0,,,,,,,,,,,,
,,661564c766603e80ca4c3184,66db11f1434787354bb66570,2024-09-06_16h36.29.873,mdp,2024.2.1,Win32,60.60606061,66d7945b1baad48e845df3ce,,,,,,,,,,,,,,,,,,,,,349.8644,349.8644,349.8651,350.8975,0,1,left,0.5011,,350.8984,351.5476,0,0,left,351.5486,351.5495,,1,,1,351.5497,351.5497,351.5505,353.0473,0,28,28,28,1,0.4,0.6,0.4,0.6,,,,,,,,,,,,,,,0.1183,,0.2,0.8,0.2,0.8,0.8,0.2,0.2,0.8,1,0,,,,,,,,,,,,
,,661564c766603e80ca4c3184,66db11f1434787354bb66570,2024-09-06_16h36.29.873,mdp,2024.2.1,Win32,60.60606061,66d7945b1baad48e845df3ce,,,,,,,,,,,,,,,,,,,,,353.0475,353.0475,353.0483,354.0308,0,1,left,0.4525,,354.0316,355.0475,0,0,left,355.0482,355.0488,,0,,1,355.0489,355.0489,355.0499,356.5475,0,29,29,29,1,0.4,0.6,0.4,0.6,,,,,,,,,,,,,,,0.5014,,0.2,0.8,0.2,0.8,0.8,0.2,0.2,0.8,1,0,,,,,,,,,,,,
,,661564c766603e80ca4c3184,66db11f1434787354bb66570,2024-09-06_16h36.29.873,mdp,2024.2.1,Win32,60.60606061,66d7945b1baad48e845df3ce,,,,,,,,,,,,,,,,,,,,,356.5478,356.5478,356.5484,358.1309,0,0,left,1.0642,,358.1317,359.2812,1,1,right,359.282,359.2825,,0,,0,359.2826,359.2826,359.2832,360.7809,0,30,30,30,1,0.4,0.6,0.4,0.6,,,,,,,,,,,,,,,0.6128,,0.2,0.8,0.2,0.8,0.4,0.6,0.6,0.4,1,0,,,,,,,,,,,,
,,661564c766603e80ca4c3184,66db11f1434787354bb66570,2024-09-06_16h36.29.873,mdp,2024.2.1,Win32,60.60606061,66d7945b1baad48e845df3ce,,,,,,,,,,,,,,,,,,,,,360.7812,360.7813,360.7818,361.5477,0,0,left,0.2387,,361.5482,362.1978,0,1,left,362.1987,362.1992,,1,,0,362.1992,362.1992,362.1998,363.6977,0,31,31,31,1,0.4,0.6,0.4,0.6,,,,,,,,,,,,,,,0.1285,,0.2,0.8,0.2,0.8,0.4,0.6,0.6,0.4,1,0,,,,,,,,,,,,
,,661564c766603e80ca4c3184,66db11f1434787354bb66570,2024-09-06_16h36.29.873,mdp,2024.2.1,Win32,60.60606061,66d7945b1baad48e845df3ce,,,,,,,,,,,,,,,,,,,,,363.6981,363.6981,363.6988,364.6312,0,1,left,0.4106,,364.6318,365.2313,1,1,right,365.2321,365.2326,,0,,0,365.2327,365.2327,365.2331,366.7312,0,32,32,32,1,0.2,0.8,0.6,0.4,,,,,,,,,,,,,,,0.0647,,0.2,0.8,0.2,0.8,0.4,0.6,0.6,0.4,1,0,,,,,,,,,,,,
,,661564c766603e80ca4c3184,66db11f1434787354bb66570,2024-09-06_16h36.29.873,mdp,2024.2.1,Win32,60.60606061,66d7945b1baad48e845df3ce,,,,,,,,,,,,,,,,,,,,,366.7316,366.7316,366.7326,367.5813,0,1,left,0.3208,,367.5822,368.248,0,1,left,368.2488,368.2493,,1,,0,368.2494,368.2494,368.2498,369.7479,0,33,33,33,1,0.2,0.8,0.6,0.4,,,,,,,,,,,,,,,0.1338,,0.2,0.8,0.2,0.8,0.4,0.6,0.6,0.4,1,0,,,,,,,,,,,,
,,661564c766603e80ca4c3184,66db11f1434787354bb66570,2024-09-06_16h36.29.873,mdp,2024.2.1,Win32,60.60606061,66d7945b1baad48e845df3ce,,,,,,,,,,,,,,,,,,,,,369.7481,369.7481,369.749,370.6815,0,1,left,0.4009,,370.6822,371.5648,0,0,left,371.5657,371.5662,,1,,1,371.5662,371.5662,371.5668,373.0647,0,34,34,34,1,0.2,0.8,0.6,0.4,,,,,,,,,,,,,,,0.3625,,0.2,0.8,0.2,0.8,0.4,0.6,0.6,0.4,1,0,,,,,,,,,,,,
,,661564c766603e80ca4c3184,66db11f1434787354bb66570,2024-09-06_16h36.29.873,mdp,2024.2.1,Win32,60.60606061,66d7945b1baad48e845df3ce,,,,,,,,,,,,,,,,,,,,,373.0651,373.0651,373.0659,374.0315,0,1,left,0.443,,374.0323,375.2151,0,1,left,375.2162,375.2171,,0,,0,375.2171,375.2171,375.218,376.7149,0,35,35,35,1,0.2,0.8,0.6,0.4,,,,,,,,,,,,,,,0.6609,,0.2,0.8,0.2,0.8,0.4,0.6,0.6,0.4,1,0,,,,,,,,,,,,
,,661564c766603e80ca4c3184,66db11f1434787354bb66570,2024-09-06_16h36.29.873,mdp,2024.2.1,Win32,60.60606061,66d7945b1baad48e845df3ce,,,,,,,,,,,,,,,,,,,,,376.7152,376.7152,376.716,378.2817,0,1,left,1.0348,,378.2824,379.0149,1,1,right,379.0158,379.0164,,1,,0,379.0164,379.0164,379.0169,380.5149,0,36,36,36,1,0.2,0.8,0.6,0.4,,,,,,,,,,,,,,,0.2098,,0.2,0.8,0.2,0.8,0.4,0.6,0.6,0.4,1,0,,,,,,,,,,,,
,,661564c766603e80ca4c3184,66db11f1434787354bb66570,2024-09-06_16h36.29.873,mdp,2024.2.1,Win32,60.60606061,66d7945b1baad48e845df3ce,,,,,,,,,,,,,,,,,,,,,380.5153,380.5153,380.5161,381.9152,0,0,left,0.8719,,381.9159,383.0819,1,1,right,383.0828,383.0833,,0,,0,383.0833,383.0833,383.0837,384.5817,0,37,37,37,1,0.2,0.8,0.6,0.4,,,,,,,,,,,,,,,0.6319,,0.2,0.8,0.2,0.8,0.4,0.6,0.6,0.4,1,0,,,,,,,,,,,,
,,661564c766603e80ca4c3184,66db11f1434787354bb66570,2024-09-06_16h36.29.873,mdp,2024.2.1,Win32,60.60606061,66d7945b1baad48e845df3ce,,,,,,,,,,,,,,,,,,,,,384.5821,384.5821,384.5828,385.6319,1,0,right,0.5257,,385.6328,386.7653,1,1,right,386.766,386.7668,,1,,0,386.7668,386.7668,386.7673,388.2653,0,38,38,38,1,0.2,0.8,0.6,0.4,,,,,,,,,,,,,,,0.6123,,0.2,0.8,0.2,0.8,0.6,0.4,0.4,0.6,1,0,,,,,,,,,,,,
,,661564c766603e80ca4c3184,66db11f1434787354bb66570,2024-09-06_16h36.29.873,mdp,2024.2.1,Win32,60.60606061,66d7945b1baad48e845df3ce,,,,,,,,,,,,,,,,,,,,,388.2658,388.2658,388.2668,389.5491,1,1,right,0.7549,,389.5503,390.4322,0,0,left,390.4334,390.4344,,1,,1,390.4344,390.4344,390.4351,391.9321,0,39,39,39,1,0.2,0.8,0.6,0.4,,,,,,,,,,,,,,,0.3561,,0.2,0.8,0.2,0.8,0.6,0.4,0.4,0.6,1,0,,,,,,,,,,,,
,,661564c766603e80ca4c3184,66db11f1434787354bb66570,2024-09-06_16h36.29.873,mdp,2024.2.1,Win32,60.60606061,66d7945b1baad48e845df3ce,,,,,,,,,,,,,,,,,,,,,391.9324,391.9324,391.933,393.0156,0,1,left,0.5518,,393.0165,394.0487,0,1,left,394.0495,394.0499,,0,,0,394.0499,394.0499,394.0503,395.5488,0,40,40,40,1,0.2,0.8,0.6,0.4,,,,,,,,,,,,,,,0.5082,,0.6,0.4,0.6,0.4,0.6,0.4,0.4,0.6,1,0,,,,,,,,,,,,
,,661564c766603e80ca4c3184,66db11f1434787354bb66570,2024-09-06_16h36.29.873,mdp,2024.2.1,Win32,60.60606061,66d7945b1baad48e845df3ce,,,,,,,,,,,,,,,,,,,,,395.5491,395.5491,395.5501,396.7156,0,0,left,0.6472,,396.7164,397.7158,1,0,right,397.7171,397.7178,,0,,1,397.7179,397.7179,397.7186,399.2156,0,41,41,41,1,0.2,0.8,0.6,0.4,,,,,,,,,,,,,,,0.4755,,0.6,0.4,0.6,0.4,0.6,0.4,0.4,0.6,1,0,,,,,,,,,,,,
,,661564c766603e80ca4c3184,66db11f1434787354bb66570,2024-09-06_16h36.29.873,mdp,2024.2.1,Win32,60.60606061,66d7945b1baad48e845df3ce,,,,,,,,,,,,,,,,,,,,,399.2159,399.2159,399.2166,400.5157,0,1,left,0.7722,,400.5164,401.4492,0,0,left,401.4501,401.4507,,0,,1,401.4507,401.4507,401.4513,402.949,0,42,42,42,1,0.2,0.8,0.6,0.4,,,,,,,,,,,,,,,0.3944,,0.6,0.4,0.6,0.4,0.6,0.4,0.4,0.6,1,0,,,,,,,,,,,,
,,661564c766603e80ca4c3184,66db11f1434787354bb66570,2024-09-06_16h36.29.873,mdp,2024.2.1,Win32,60.60606061,66d7945b1baad48e845df3ce,,,,,,,,,,,,,,,,,,,,,402.9493,402.9493,402.95,404.0324,1,1,right,0.5593,,404.0332,404.9993,0,1,left,405.0001,405.0007,,1,,0,405.0007,405.0007,405.0012,406.4993,0,43,43,43,1,0.2,0.8,0.6,0.4,,,,,,,,,,,,,,,0.4362,,0.6,0.4,0.6,0.4,0.6,0.4,0.4,0.6,1,0,,,,,,,,,,,,
,,661564c766603e80ca4c3184,66db11f1434787354bb66570,2024-09-06_16h36.29.873,mdp,2024.2.1,Win32,60.60606061,66d7945b1baad48e845df3ce,,,,,,,,,,,,,,,,,,,,,406.4996,406.4996,406.5008,407.4996,0,0,left,0.4731,,407.5005,408.616,0,1,left,408.6169,408.6174,,1,,0,408.6174,408.6175,408.618,410.116,0,44,44,44,1,0.2,0.8,0.6,0.4,,,,,,,,,,,,,,,0.5892,,0.6,0.4,0.6,0.4,0.6,0.4,0.4,0.6,1,0,,,,,,,,,,,,
,,661564c766603e80ca4c3184,66db11f1434787354bb66570,2024-09-06_16h36.29.873,mdp,2024.2.1,Win32,60.60606061,66d7945b1baad48e845df3ce,,,,,,,,,,,,,,,,,,,,,410.1164,410.1164,410.1171,411.1994,0,1,left,0.5533,,411.2003,411.9494,1,1,right,411.9502,411.9507,,1,,0,411.9507,411.9508,411.9512,413.4495,0,45,45,45,1,0.2,0.8,0.6,0.4,,,,,,,,,,,,,,,0.224,,0.6,0.4,0.6,0.4,0.6,0.4,0.4,0.6,1,0,,,,,,,,,,,,
,,661564c766603e80ca4c3184,66db11f1434787354bb66570,2024-09-06_16h36.29.873,mdp,2024.2.1,Win32,60.60606061,66d7945b1baad48e845df3ce,,,,,,,,,,,,,,,,,,,,,413.4497,413.4497,413.4505,414.1995,0,1,left,0.2247,,414.2004,415.5163,0,0,left,415.5172,415.5176,,1,,1,415.5176,415.5177,415.5182,417.0162,0,46,46,46,1,0.2,0.8,0.6,0.4,,,,,,,,,,,,,,,0.7964,,0.6,0.4,0.6,0.4,0.6,0.4,0.4,0.6,1,0,,,,,,,,,,,,
,,661564c766603e80ca4c3184,66db11f1434787354bb66570,2024-09-06_16h36.29.873,mdp,2024.2.1,Win32,60.60606061,66d7945b1baad48e845df3ce,,,,,,,,,,,,,,,,,,,,,417.0166,417.0166,417.0174,418.0497,0,1,left,0.5001,,418.0504,419.0497,0,1,left,419.0505,419.0509,,0,,0,419.0509,419.0509,419.0514,420.5495,0,47,47,47,1,0.2,0.8,0.6,0.4,,,,,,,,,,,,,,,0.4735,,0.6,0.4,0.6,0.4,0.6,0.4,0.4,0.6,1,0,,,,,,,,,,,,
,,661564c766603e80ca4c3184,66db11f1434787354bb66570,2024-09-06_16h36.29.873,mdp,2024.2.1,Win32,60.60606061,66d7945b1baad48e845df3ce,,,,,,,,,,,,,,,,,,,,,420.55,420.55,420.5508,421.6663,0,0,left,0.5904,,421.667,422.3997,1,1,right,422.4004,422.4008,,1,,0,422.4008,422.4008,422.4011,423.8997,0,48,48,48,1,0.2,0.8,0.6,0.4,,,,,,,,,,,,,,,0.1986,,0.4,0.6,0.4,0.6,0.6,0.4,0.4,0.6,1,0,,,,,,,,,,,,
,,661564c766603e80ca4c3184,66db11f1434787354bb66570,2024-09-06_16h36.29.873,mdp,2024.2.1,Win32,60.60606061,66d7945b1baad48e845df3ce,,,,,,,,,,,,,,,,,,,,,423.9,423.9,423.9007,424.8998,0,1,left,0.477,,424.9008,425.9499,0,0,left,425.9508,425.9513,,1,,1,425.9513,425.9513,425.9518,427.4498,0,49,49,49,1,0.2,0.8,0.6,0.4,,,,,,,,,,,,,,,0.524,,0.4,0.6,0.4,0.6,0.2,0.8,0.8,0.2,1,0,,,,,,,,,,,,
,,661564c766603e80ca4c3184,66db11f1434787354bb66570,2024-09-06_16h36.29.873,mdp,2024.2.1,Win32,60.60606061,66d7945b1baad48e845df3ce,,,,,,,,,,,,,,,,,,,,,,,,,,,,,,,,,,,,,,,,,,,,,,,,,,,,,,,,427.4498,485.9519,0,1,1,3,1,imgs/elephant.png,imgs/giraffe.png,imgs/bear.png,imgs/kangaroo.png,imgs/goat.png,,,,,,,,,,,,,,,,,,,,,,,,
,,661564c766603e80ca4c3184,66db11f1434787354bb66570,2024-09-06_16h36.29.873,mdp,2024.2.1,Win32,60.60606061,66d7945b1baad48e845df3ce,,,,,,,,,,,,,,3,seqs/st3seq28.csv,485.9607,489.3352,space,2.8539,,489.3405,489.3405,489.3411,490.2354,0,1,left,0.3607,,490.2361,491.0685,0,1,left,491.0693,492.2853,0,1,left,0,492.2853,492.2853,492.2859,493.7853,0,0,0,0,1,0.4,0.6,0.4,0.6,,,,,,,,,,,,,,,0.3012,,0.4,0.6,0.6,0.4,0.8,0.2,0.2,0.8,,,0.6901,,0.4,0.6,0.4,0.6,0.4,0.6,0.8,0.2,1,0
,,661564c766603e80ca4c3184,66db11f1434787354bb66570,2024-09-06_16h36.29.873,mdp,2024.2.1,Win32,60.60606061,66d7945b1baad48e845df3ce,,,,,,,,,,,,,,,,,,,,,493.7857,493.7857,493.7863,494.8688,0,1,left,0.5592,,494.8698,495.7521,1,1,right,495.7528,496.6187,0,1,left,0,496.6188,496.6188,496.6194,498.1189,0,1,1,1,1,0.4,0.6,0.4,0.6,,,,,,,,,,,,,,,0.3512,,0.4,0.6,0.6,0.4,0.8,0.2,0.2,0.8,,,0.3407,,0.4,0.6,0.4,0.6,0.4,0.6,0.8,0.2,1,0
,,661564c766603e80ca4c3184,66db11f1434787354bb66570,2024-09-06_16h36.29.873,mdp,2024.2.1,Win32,60.60606061,66d7945b1baad48e845df3ce,,,,,,,,,,,,,,,,,,,,,498.1193,498.1193,498.1201,499.0355,1,0,right,0.3966,,499.0363,499.936,0,1,left,499.9367,500.7857,0,1,left,0,500.7858,500.7858,500.7866,502.2857,0,2,2,2,1,0.4,0.6,0.4,0.6,,,,,,,,,,,,,,,0.379,,0.4,0.6,0.6,0.4,0.8,0.2,0.2,0.8,,,0.3235,,0.4,0.6,0.4,0.6,0.4,0.6,0.8,0.2,1,0
,,661564c766603e80ca4c3184,66db11f1434787354bb66570,2024-09-06_16h36.29.873,mdp,2024.2.1,Win32,60.60606061,66d7945b1baad48e845df3ce,,,,,,,,,,,,,,,,,,,,,502.286,502.286,502.2866,503.3857,0,0,left,0.5748,,503.3867,504.7858,0,1,left,504.7867,505.5691,1,0,right,1,505.5692,505.5692,505.5697,507.069,0,3,3,3,1,0.4,0.6,0.4,0.6,,,,,,,,,,,,,,,0.8918,,0.4,0.6,0.6,0.4,0.8,0.2,0.2,0.8,,,0.2573,,0.4,0.6,0.4,0.6,0.4,0.6,0.8,0.2,1,0
,,661564c766603e80ca4c3184,66db11f1434787354bb66570,2024-09-06_16h36.29.873,mdp,2024.2.1,Win32,60.60606061,66d7945b1baad48e845df3ce,,,,,,,,,,,,,,,,,,,,,507.0695,507.0695,507.0701,509.5193,0,0,left,1.9279,,509.5205,510.7027,0,1,left,510.704,511.8358,1,1,right,0,511.836,511.836,511.8368,513.336,0,4,4,4,1,0.4,0.6,0.4,0.6,,,,,,,,,,,,,,,0.6535,,0.4,0.6,0.6,0.4,0.8,0.2,0.2,0.8,,,0.6142,,0.4,0.6,0.4,0.6,0.4,0.6,0.8,0.2,1,0
,,661564c766603e80ca4c3184,66db11f1434787354bb66570,2024-09-06_16h36.29.873,mdp,2024.2.1,Win32,60.60606061,66d7945b1baad48e845df3ce,,,,,,,,,,,,,,,,,,,,,513.3364,513.3364,513.337,514.1526,0,1,left,0.2929,,514.1533,515.0861,1,1,right,515.0867,515.853,1,0,right,1,515.8531,515.8531,515.8539,517.3527,0,5,5,5,1,0.4,0.6,0.4,0.6,,,,,,,,,,,,,,,0.4166,,0.4,0.6,0.6,0.4,0.8,0.2,0.2,0.8,,,0.2392,,0.8,0.2,0.8,0.2,0.4,0.6,0.8,0.2,1,0
,,661564c766603e80ca4c3184,66db11f1434787354bb66570,2024-09-06_16h36.29.873,mdp,2024.2.1,Win32,60.60606061,66d7945b1baad48e845df3ce,,,,,,,,,,,,,,,,,,,,,517.3529,517.3529,517.3535,518.1362,0,1,left,0.2529,,518.1368,518.8199,1,1,right,518.8207,519.7197,1,1,right,0,519.7199,519.7199,519.7209,521.2196,0,6,6,6,1,0.4,0.6,0.4,0.6,,,,,,,,,,,,,,,0.1645,,0.4,0.6,0.6,0.4,0.8,0.2,0.2,0.8,,,0.369,,0.8,0.2,0.8,0.2,0.4,0.6,0.8,0.2,1,0
,,661564c766603e80ca4c3184,66db11f1434787354bb66570,2024-09-06_16h36.29.873,mdp,2024.2.1,Win32,60.60606061,66d7945b1baad48e845df3ce,,,,,,,,,,,,,,,,,,,,,521.22,521.22,521.2209,522.0365,0,1,left,0.2836,,522.0372,522.9364,0,0,left,522.937,523.6699,1,0,right,1,523.6699,523.67,523.6706,525.1696,0,7,7,7,1,0.4,0.6,0.4,0.6,,,,,,,,,,,,,,,0.3804,,0.4,0.6,0.6,0.4,0.8,0.2,0.2,0.8,,,0.2012,,0.8,0.2,0.8,0.2,0.4,0.6,0.8,0.2,1,0
,,661564c766603e80ca4c3184,66db11f1434787354bb66570,2024-09-06_16h36.29.873,mdp,2024.2.1,Win32,60.60606061,66d7945b1baad48e845df3ce,,,,,,,,,,,,,,,,,,,,,525.1699,525.1699,525.1706,526.1031,1,1,right,0.4115,,526.1037,526.9034,0,0,left,526.9043,527.6199,0,1,left,0,527.6201,527.6201,527.6208,529.1198,0,8,8,8,1,0.4,0.6,0.4,0.6,,,,,,,,,,,,,,,0.2777,,0.4,0.6,0.6,0.4,0.8,0.2,0.2,0.8,,,0.1903,,0.8,0.2,0.8,0.2,0.4,0.6,0.8,0.2,1,0
,,661564c766603e80ca4c3184,66db11f1434787354bb66570,2024-09-06_16h36.29.873,mdp,2024.2.1,Win32,60.60606061,66d7945b1baad48e845df3ce,,,,,,,,,,,,,,,,,,,,,529.1202,529.1202,529.1208,530.4199,0,1,left,0.7815,,530.4209,531.2199,0,0,left,531.2206,532.0367,1,0,right,1,532.0367,532.0367,532.0373,533.5366,0,9,9,9,1,0.4,0.6,0.4,0.6,,,,,,,,,,,,,,,0.2681,,0.4,0.6,0.6,0.4,0.8,0.2,0.2,0.8,,,0.2865,,0.8,0.2,0.8,0.2,0.4,0.6,0.8,0.2,1,0
,,661564c766603e80ca4c3184,66db11f1434787354bb66570,2024-09-06_16h36.29.873,mdp,2024.2.1,Win32,60.60606061,66d7945b1baad48e845df3ce,,,,,,,,,,,,,,,,,,,,,533.537,533.537,533.5379,534.4203,0,1,left,0.3559,,534.4214,535.2703,1,0,right,535.2713,536.2038,1,0,right,1,536.2039,536.2039,536.2051,537.7035,0,10,10,10,1,0.4,0.6,0.4,0.6,,,,,,,,,,,,,,,0.328,,0.4,0.6,0.6,0.4,0.6,0.4,0.8,0.2,,,0.4008,,0.8,0.2,0.8,0.2,0.4,0.6,0.8,0.2,1,0
,,661564c766603e80ca4c3184,66db11f1434787354bb66570,2024-09-06_16h36.29.873,mdp,2024.2.1,Win32,60.60606061,66d7945b1baad48e845df3ce,,,,,,,,,,,,,,,,,,,,,537.704,537.704,537.7049,538.3369,0,1,left,0.1103,,538.3374,539.4201,1,0,right,539.421,540.137,0,0,left,1,540.1371,540.1371,540.1379,541.637,0,11,11,11,1,0.4,0.6,0.4,0.6,,,,,,,,,,,,,,,0.5649,,0.4,0.6,0.6,0.4,0.6,0.4,0.8,0.2,,,0.2088,,0.8,0.2,0.8,0.2,0.4,0.6,0.8,0.2,1,0
,,661564c766603e80ca4c3184,66db11f1434787354bb66570,2024-09-06_16h36.29.873,mdp,2024.2.1,Win32,60.60606061,66d7945b1baad48e845df3ce,,,,,,,,,,,,,,,,,,,,,541.6374,541.6374,541.6381,542.4037,0,0,left,0.2407,,542.4045,543.1871,1,0,right,543.188,543.9036,0,0,left,1,543.9037,543.9038,543.9044,545.4036,0,12,12,12,1,0.4,0.6,0.4,0.6,,,,,,,,,,,,,,,0.246,,0.4,0.6,0.6,0.4,0.6,0.4,0.8,0.2,,,0.1942,,0.8,0.2,0.8,0.2,0.4,0.6,0.8,0.2,1,0
,,661564c766603e80ca4c3184,66db11f1434787354bb66570,2024-09-06_16h36.29.873,mdp,2024.2.1,Win32,60.60606061,66d7945b1baad48e845df3ce,,,,,,,,,,,,,,,,,,,,,545.404,545.404,545.4046,546.3539,0,1,left,0.4183,,546.3549,546.9371,1,0,right,546.938,547.5538,0,0,left,1,547.5539,547.5539,547.5545,549.0539,0,13,13,13,1,0.4,0.6,0.4,0.6,,,,,,,,,,,,,,,0.0562,,0.4,0.6,0.6,0.4,0.6,0.4,0.8,0.2,,,0.0918,,0.8,0.2,0.8,0.2,0.2,0.8,0.2,0.8,1,0
,,661564c766603e80ca4c3184,66db11f1434787354bb66570,2024-09-06_16h36.29.873,mdp,2024.2.1,Win32,60.60606061,66d7945b1baad48e845df3ce,,,,,,,,,,,,,,,,,,,,,549.0543,549.0543,549.055,549.8206,0,1,left,0.2432,,549.8215,550.4372,1,0,right,550.4378,551.0207,0,0,left,1,551.0207,551.0207,551.0214,552.5206,0,14,14,14,1,0.4,0.6,0.4,0.6,,,,,,,,,,,,,,,0.0949,,0.4,0.6,0.6,0.4,0.6,0.4,0.8,0.2,,,0.0643,,0.8,0.2,0.8,0.2,0.2,0.8,0.2,0.8,1,0
,,661564c766603e80ca4c3184,66db11f1434787354bb66570,2024-09-06_16h36.29.873,mdp,2024.2.1,Win32,60.60606061,66d7945b1baad48e845df3ce,,,,,,,,,,,,,,,,,,,,,552.521,552.5211,552.5217,553.2542,0,1,left,0.2136,,553.2551,553.8874,1,0,right,553.8882,554.504,0,0,left,1,554.5041,554.5041,554.5047,556.0042,0,15,15,15,1,0.4,0.6,0.4,0.6,,,,,,,,,,,,,,,0.1038,,0.4,0.6,0.6,0.4,0.6,0.4,0.8,0.2,,,0.1006,,0.8,0.2,0.8,0.2,0.2,0.8,0.2,0.8,1,0
,,661564c766603e80ca4c3184,66db11f1434787354bb66570,2024-09-06_16h36.29.873,mdp,2024.2.1,Win32,60.60606061,66d7945b1baad48e845df3ce,,,,,,,,,,,,,,,,,,,,,556.0046,556.0046,556.0058,556.8543,0,0,left,0.3297,,556.855,557.4041,1,1,right,557.4051,558.0048,0,1,left,0,558.0049,558.0049,558.0056,559.5041,0,16,16,16,1,0.4,0.6,0.4,0.6,,,,,,,,,,,,,,,0.0198,,0.4,0.6,0.6,0.4,0.6,0.4,0.8,0.2,,,0.0749,,0.8,0.2,0.8,0.2,0.2,0.8,0.2,0.8,1,0
,,661564c766603e80ca4c3184,66db11f1434787354bb66570,2024-09-06_16h36.29.873,mdp,2024.2.1,Win32,60.60606061,66d7945b1baad48e845df3ce,,,,,,,,,,,,,,,,,,,,,559.5044,559.5044,559.5051,560.3042,0,1,left,0.2694,,560.3051,560.9543,1,0,right,560.955,561.6543,0,1,left,0,561.6543,561.6543,561.6552,563.1542,0,17,17,17,1,0.4,0.6,0.4,0.6,,,,,,,,,,,,,,,0.1123,,0.4,0.6,0.6,0.4,0.6,0.4,0.8,0.2,,,0.1755,,0.8,0.2,0.8,0.2,0.2,0.8,0.2,0.8,1,0
,,661564c766603e80ca4c3184,66db11f1434787354bb66570,2024-09-06_16h36.29.873,mdp,2024.2.1,Win32,60.60606061,66d7945b1baad48e845df3ce,,,,,,,,,,,,,,,,,,,,,563.1546,563.1546,563.1553,563.7877,0,1,left,0.101,,563.7885,564.3879,1,0,right,564.389,565.0045,1,0,right,1,565.0046,565.0046,565.0054,566.5045,0,18,18,18,1,0.4,0.6,0.4,0.6,,,,,,,,,,,,,,,0.0677,,0.4,0.6,0.6,0.4,0.6,0.4,0.8,0.2,,,0.0836,,0.8,0.2,0.8,0.2,0.2,0.8,0.2,0.8,1,0
,,661564c766603e80ca4c3184,66db11f1434787354bb66570,2024-09-06_16h36.29.873,mdp,2024.2.1,Win32,60.60606061,66d7945b1baad48e845df3ce,,,,,,,,,,,,,,,,,,,,,566.5048,566.5048,566.5054,567.2045,0,1,left,0.1811,,567.2055,567.8715,1,0,right,567.8723,568.4547,1,1,right,0,568.4548,568.4548,568.4556,569.9544,0,19,19,19,1,0.4,0.6,0.4,0.6,,,,,,,,,,,,,,,0.1469,,0.4,0.6,0.6,0.4,0.6,0.4,0.8,0.2,,,0.0628,,0.8,0.2,0.8,0.2,0.2,0.8,0.2,0.8,1,0
,,661564c766603e80ca4c3184,66db11f1434787354bb66570,2024-09-06_16h36.29.873,mdp,2024.2.1,Win32,60.60606061,66d7945b1baad48e845df3ce,,,,,,,,,,,,,,,,,,,,,569.9548,569.9548,569.9554,570.6546,0,0,left,0.1792,,570.6554,571.2712,1,0,right,571.2719,571.9215,0,0,left,1,571.9216,571.9216,571.9229,573.4214,0,20,20,20,1,0.4,0.6,0.4,0.6,,,,,,,,,,,,,,,0.0913,,0.4,0.6,0.6,0.4,0.6,0.4,0.8,0.2,,,0.1339,,0.8,0.2,0.8,0.2,0.2,0.8,0.2,0.8,1,0
,,661564c766603e80ca4c3184,66db11f1434787354bb66570,2024-09-06_16h36.29.873,mdp,2024.2.1,Win32,60.60606061,66d7945b1baad48e845df3ce,,,,,,,,,,,,,,,,,,,,,573.4218,573.4218,573.4227,574.138,0,1,left,0.1929,,574.1395,574.7714,1,0,right,574.7727,575.3215,0,0,left,1,575.3215,575.3215,575.3222,576.8213,0,21,21,21,1,0.4,0.6,0.4,0.6,,,,,,,,,,,,,,,0.0968,,0.4,0.6,0.6,0.4,0.6,0.4,0.8,0.2,,,0.0235,,0.8,0.2,0.8,0.2,0.2,0.8,0.2,0.8,1,0
,,661564c766603e80ca4c3184,66db11f1434787354bb66570,2024-09-06_16h36.29.873,mdp,2024.2.1,Win32,60.60606061,66d7945b1baad48e845df3ce,,,,,,,,,,,,,,,,,,,,,576.8216,576.8216,576.8224,577.5384,0,1,left,0.1925,,577.5391,578.0882,1,0,right,578.0889,578.7051,0,0,left,1,578.7053,578.7053,578.7063,580.2048,0,22,22,22,1,0.6,0.4,0.2,0.8,,,,,,,,,,,,,,,0.0205,,0.4,0.6,0.6,0.4,0.6,0.4,0.8,0.2,,,0.091,,0.8,0.2,0.8,0.2,0.2,0.8,0.2,0.8,1,0
,,661564c766603e80ca4c3184,66db11f1434787354bb66570,2024-09-06_16h36.29.873,mdp,2024.2.1,Win32,60.60606061,66d7945b1baad48e845df3ce,,,,,,,,,,,,,,,,,,,,,580.2051,580.2051,580.2061,580.9883,0,1,left,0.2511,,580.9892,581.6217,1,0,right,581.6227,582.3717,0,0,left,1,582.3717,582.3718,582.3725,583.8716,0,23,23,23,1,0.6,0.4,0.2,0.8,,,,,,,,,,,,,,,0.1138,,0.4,0.6,0.6,0.4,0.6,0.4,0.8,0.2,,,0.2168,,0.8,0.2,0.8,0.2,0.2,0.8,0.2,0.8,1,0
,,661564c766603e80ca4c3184,66db11f1434787354bb66570,2024-09-06_16h36.29.873,mdp,2024.2.1,Win32,60.60606061,66d7945b1baad48e845df3ce,,,,,,,,,,,,,,,,,,,,,583.8719,583.8719,583.8725,584.5888,0,0,left,0.1989,,584.5897,585.2217,1,1,right,585.2226,585.8221,0,1,left,0,585.8222,585.8222,585.8234,587.3218,0,24,24,24,1,0.6,0.4,0.2,0.8,,,,,,,,,,,,,,,0.1005,,0.4,0.6,0.6,0.4,0.6,0.4,0.8,0.2,,,0.0933,,0.8,0.2,0.8,0.2,0.2,0.8,0.2,0.8,1,0
,,661564c766603e80ca4c3184,66db11f1434787354bb66570,2024-09-06_16h36.29.873,mdp,2024.2.1,Win32,60.60606061,66d7945b1baad48e845df3ce,,,,,,,,,,,,,,,,,,,,,587.3222,587.3222,587.3232,588.0718,0,0,left,0.2274,,588.0724,588.7052,1,0,right,588.7061,589.3889,0,0,left,1,589.3889,589.3889,589.3897,590.8886,0,25,25,25,1,0.6,0.4,0.2,0.8,,,,,,,,,,,,,,,0.1091,,0.4,0.6,0.6,0.4,0.6,0.4,0.8,0.2,,,0.1607,,0.8,0.2,0.8,0.2,0.2,0.8,0.2,0.8,1,0
,,661564c766603e80ca4c3184,66db11f1434787354bb66570,2024-09-06_16h36.29.873,mdp,2024.2.1,Win32,60.60606061,66d7945b1baad48e845df3ce,,,,,,,,,,,,,,,,,,,,,590.889,590.889,590.8897,591.4885,0,1,left,0.0725,,591.4893,592.0552,1,0,right,592.0559,592.7222,0,0,left,1,592.7223,592.7223,592.7236,594.222,0,26,26,26,1,0.6,0.4,0.2,0.8,,,,,,,,,,,,,,,0.0336,,0.4,0.6,0.6,0.4,0.6,0.4,0.8,0.2,,,0.1518,,0.8,0.2,0.8,0.2,0.2,0.8,0.2,0.8,1,0
,,661564c766603e80ca4c3184,66db11f1434787354bb66570,2024-09-06_16h36.29.873,mdp,2024.2.1,Win32,60.60606061,66d7945b1baad48e845df3ce,,,,,,,,,,,,,,,,,,,,,594.2224,594.2224,594.2231,594.9886,0,0,left,0.246,,594.9893,595.5887,1,0,right,595.5894,596.2392,0,1,left,0,596.2392,596.2392,596.2404,597.7387,0,27,27,27,1,0.6,0.4,0.2,0.8,,,,,,,,,,,,,,,0.0782,,0.4,0.6,0.6,0.4,0.6,0.4,0.8,0.2,,,0.1293,,0.8,0.2,0.8,0.2,0.2,0.8,0.2,0.8,1,0
,,661564c766603e80ca4c3184,66db11f1434787354bb66570,2024-09-06_16h36.29.873,mdp,2024.2.1,Win32,60.60606061,66d7945b1baad48e845df3ce,,,,,,,,,,,,,,,,,,,,,597.7391,597.7391,597.7397,598.439,0,0,left,0.1682,,598.4399,599.0056,1,0,right,599.0064,599.6389,0,0,left,1,599.6392,599.6392,599.6403,601.1389,0,28,28,28,1,0.6,0.4,0.2,0.8,,,,,,,,,,,,,,,0.0472,,0.4,0.6,0.6,0.4,0.6,0.4,0.8,0.2,,,0.1125,,0.8,0.2,0.8,0.2,0.2,0.8,0.2,0.8,1,0
,,661564c766603e80ca4c3184,66db11f1434787354bb66570,2024-09-06_16h36.29.873,mdp,2024.2.1,Win32,60.60606061,66d7945b1baad48e845df3ce,,,,,,,,,,,,,,,,,,,,,601.1391,601.1391,601.1396,601.8223,0,1,left,0.1555,,601.8231,602.4061,1,0,right,602.4072,602.989,0,1,left,0,602.9891,602.9891,602.9899,604.4891,0,29,29,29,1,0.6,0.4,0.2,0.8,,,,,,,,,,,,,,,0.0514,,0.4,0.6,0.6,0.4,0.6,0.4,0.8,0.2,,,0.0563,,0.8,0.2,0.8,0.2,0.2,0.8,0.2,0.8,1,0
,,661564c766603e80ca4c3184,66db11f1434787354bb66570,2024-09-06_16h36.29.873,mdp,2024.2.1,Win32,60.60606061,66d7945b1baad48e845df3ce,,,,,,,,,,,,,,,,,,,,,604.4895,604.4895,604.4902,605.1724,0,1,left,0.1506,,605.1732,605.8893,1,0,right,605.8904,606.6058,1,1,right,0,606.606,606.606,606.6068,608.1058,0,30,30,30,1,0.6,0.4,0.2,0.8,,,,,,,,,,,,,,,0.1941,,0.4,0.6,0.6,0.4,0.6,0.4,0.8,0.2,,,0.1886,,0.6,0.4,0.2,0.8,0.2,0.8,0.2,0.8,1,0
,,661564c766603e80ca4c3184,66db11f1434787354bb66570,2024-09-06_16h36.29.873,mdp,2024.2.1,Win32,60.60606061,66d7945b1baad48e845df3ce,,,,,,,,,,,,,,,,,,,,,608.1062,608.1062,608.1071,608.8392,0,0,left,0.205,,608.8398,609.4726,1,1,right,609.4736,610.1392,0,1,left,0,610.1393,610.1393,610.1401,611.6391,0,31,31,31,1,0.6,0.4,0.2,0.8,,,,,,,,,,,,,,,0.0975,,0.4,0.6,0.6,0.4,0.6,0.4,0.8,0.2,,,0.1372,,0.6,0.4,0.2,0.8,0.2,0.8,0.2,0.8,1,0
,,661564c766603e80ca4c3184,66db11f1434787354bb66570,2024-09-06_16h36.29.873,mdp,2024.2.1,Win32,60.60606061,66d7945b1baad48e845df3ce,,,,,,,,,,,,,,,,,,,,,611.6395,611.6395,611.6402,612.3726,0,0,left,0.2113,,612.3733,613.0393,1,0,right,613.04,613.6895,0,0,left,1,613.6895,613.6895,613.6903,615.1893,0,32,32,32,1,0.6,0.4,0.2,0.8,,,,,,,,,,,,,,,0.1374,,0.4,0.6,0.6,0.4,0.6,0.4,0.8,0.2,,,0.1223,,0.6,0.4,0.2,0.8,0.2,0.8,0.2,0.8,1,0
,,661564c766603e80ca4c3184,66db11f1434787354bb66570,2024-09-06_16h36.29.873,mdp,2024.2.1,Win32,60.60606061,66d7945b1baad48e845df3ce,,,,,,,,,,,,,,,,,,,,,615.1897,615.1897,615.1905,615.9729,0,1,left,0.2503,,615.9736,616.5228,1,0,right,616.5237,617.3061,0,0,left,1,617.3062,617.3062,617.3069,618.8062,0,33,33,33,1,0.6,0.4,0.2,0.8,,,,,,,,,,,,,,,0.0229,,0.4,0.6,0.6,0.4,0.6,0.4,0.8,0.2,,,0.2596,,0.6,0.4,0.2,0.8,0.2,0.8,0.2,0.8,1,0
,,661564c766603e80ca4c3184,66db11f1434787354bb66570,2024-09-06_16h36.29.873,mdp,2024.2.1,Win32,60.60606061,66d7945b1baad48e845df3ce,,,,,,,,,,,,,,,,,,,,,618.8067,618.8067,618.8075,619.4565,0,0,left,0.1281,,619.4576,620.0895,1,1,right,620.0902,620.7063,0,1,left,0,620.7063,620.7063,620.7071,622.2061,0,34,34,34,1,0.6,0.4,0.2,0.8,,,,,,,,,,,,,,,0.1063,,0.4,0.6,0.6,0.4,0.6,0.4,0.8,0.2,,,0.0776,,0.6,0.4,0.2,0.8,0.2,0.8,0.2,0.8,1,0
,,661564c766603e80ca4c3184,66db11f1434787354bb66570,2024-09-06_16h36.29.873,mdp,2024.2.1,Win32,60.60606061,66d7945b1baad48e845df3ce,,,,,,,,,,,,,,,,,,,,,622.2064,622.2064,622.207,622.9731,0,0,left,0.2479,,622.9739,623.6063,1,0,right,623.6071,624.8563,1,1,right,0,624.8564,624.8564,624.8571,626.3563,0,35,35,35,1,0.6,0.4,0.2,0.8,,,,,,,,,,,,,,,0.112,,0.4,0.6,0.6,0.4,0.6,0.4,0.8,0.2,,,0.7149,,0.6,0.4,0.2,0.8,0.2,0.8,0.2,0.8,1,0
,,661564c766603e80ca4c3184,66db11f1434787354bb66570,2024-09-06_16h36.29.873,mdp,2024.2.1,Win32,60.60606061,66d7945b1baad48e845df3ce,,,,,,,,,,,,,,,,,,,,,626.3566,626.3566,626.3573,627.2239,0,0,left,0.3376,,627.2249,627.8063,1,0,right,627.8071,628.4564,0,1,left,0,628.4566,628.4566,628.4573,629.9564,0,36,36,36,1,0.6,0.4,0.2,0.8,,,,,,,,,,,,,,,0.0542,,0.4,0.6,0.6,0.4,0.6,0.4,0.8,0.2,,,0.1263,,0.6,0.4,0.2,0.8,0.2,0.8,0.2,0.8,1,0
,,661564c766603e80ca4c3184,66db11f1434787354bb66570,2024-09-06_16h36.29.873,mdp,2024.2.1,Win32,60.60606061,66d7945b1baad48e845df3ce,,,,,,,,,,,,,,,,,,,,,629.9567,629.9567,629.9575,630.7731,0,0,left,0.2974,,630.7739,631.4232,1,1,right,631.4238,632.3732,0,1,left,0,632.3733,632.3733,632.3739,633.8732,0,37,37,37,1,0.6,0.4,0.2,0.8,,,,,,,,,,,,,,,0.138,,0.4,0.6,0.6,0.4,0.6,0.4,0.8,0.2,,,0.4139,,0.6,0.4,0.2,0.8,0.2,0.8,0.2,0.8,1,0
,,661564c766603e80ca4c3184,66db11f1434787354bb66570,2024-09-06_16h36.29.873,mdp,2024.2.1,Win32,60.60606061,66d7945b1baad48e845df3ce,,,,,,,,,,,,,,,,,,,,,633.8735,633.8735,633.8743,634.54,0,1,left,0.1415,,634.5407,635.1735,1,0,right,635.1742,636.0401,1,1,right,0,636.0402,636.0402,636.0408,637.5399,0,38,38,38,1,0.6,0.4,0.2,0.8,,,,,,,,,,,,,,,0.0972,,0.4,0.6,0.6,0.4,0.6,0.4,0.8,0.2,,,0.3332,,0.6,0.4,0.2,0.8,0.2,0.8,0.2,0.8,1,0
,,661564c766603e80ca4c3184,66db11f1434787354bb66570,2024-09-06_16h36.29.873,mdp,2024.2.1,Win32,60.60606061,66d7945b1baad48e845df3ce,,,,,,,,,,,,,,,,,,,,,637.5403,637.5403,637.541,638.1067,0,1,left,0.0424,,638.1077,638.7569,1,1,right,638.7576,639.7569,0,1,left,0,639.7569,639.7569,639.7577,641.2569,0,39,39,39,1,0.6,0.4,0.2,0.8,,,,,,,,,,,,,,,0.1164,,0.4,0.6,0.6,0.4,0.6,0.4,0.8,0.2,,,0.4696,,0.6,0.4,0.2,0.8,0.2,0.8,0.2,0.8,1,0
,,661564c766603e80ca4c3184,66db11f1434787354bb66570,2024-09-06_16h36.29.873,mdp,2024.2.1,Win32,60.60606061,66d7945b1baad48e845df3ce,,,,,,,,,,,,,,,,,,,,,641.2572,641.2572,641.2579,642.2235,0,1,left,0.4446,,642.2244,642.8071,1,0,right,642.8084,643.7072,1,0,right,1,643.7073,643.7073,643.7081,645.207,0,40,40,40,1,0.6,0.4,0.2,0.8,,,,,,,,,,,,,,,0.0625,,0.4,0.6,0.6,0.4,0.6,0.4,0.8,0.2,,,0.3652,,0.6,0.4,0.2,0.8,0.2,0.8,0.2,0.8,1,0
,,661564c766603e80ca4c3184,66db11f1434787354bb66570,2024-09-06_16h36.29.873,mdp,2024.2.1,Win32,60.60606061,66d7945b1baad48e845df3ce,,,,,,,,,,,,,,,,,,,,,645.2074,645.2074,645.2082,646.2736,0,0,left,0.5381,,646.2745,646.9405,1,1,right,646.9414,647.9905,1,1,right,0,647.9906,647.9906,647.9914,649.4905,0,41,41,41,1,0.6,0.4,0.2,0.8,,,,,,,,,,,,,,,0.1481,,0.4,0.6,0.6,0.4,0.6,0.4,0.8,0.2,,,0.5276,,0.6,0.4,0.2,0.8,0.2,0.8,0.2,0.8,1,0
,,661564c766603e80ca4c3184,66db11f1434787354bb66570,2024-09-06_16h36.29.873,mdp,2024.2.1,Win32,60.60606061,66d7945b1baad48e845df3ce,,,,,,,,,,,,,,,,,,,,,649.4909,649.4909,649.4918,650.6073,0,0,left,0.5883,,650.608,651.324,1,0,right,651.3251,651.9739,0,0,left,1,651.974,651.9741,651.9751,653.4741,0,42,42,42,1,0.4,0.6,0.4,0.6,,,,,,,,,,,,,,,0.192,,0.4,0.6,0.6,0.4,0.6,0.4,0.8,0.2,,,0.1264,,0.6,0.4,0.2,0.8,0.2,0.8,0.2,0.8,1,0
,,661564c766603e80ca4c3184,66db11f1434787354bb66570,2024-09-06_16h36.29.873,mdp,2024.2.1,Win32,60.60606061,66d7945b1baad48e845df3ce,,,,,,,,,,,,,,,,,,,,,653.4744,653.4745,653.4751,654.374,0,1,left,0.3725,,654.3746,655.0076,1,0,right,655.0088,655.6407,0,1,left,0,655.6408,655.6408,655.6418,657.1406,0,43,43,43,1,0.4,0.6,0.4,0.6,,,,,,,,,,,,,,,0.1087,,0.4,0.6,0.6,0.4,0.6,0.4,0.8,0.2,,,0.1108,,0.6,0.4,0.2,0.8,0.2,0.8,0.2,0.8,1,0
,,661564c766603e80ca4c3184,66db11f1434787354bb66570,2024-09-06_16h36.29.873,mdp,2024.2.1,Win32,60.60606061,66d7945b1baad48e845df3ce,,,,,,,,,,,,,,,,,,,,,657.141,657.141,657.1417,657.9576,0,1,left,0.2896,,657.9585,658.624,1,0,right,658.6247,659.4742,1,1,right,0,659.4743,659.4743,659.4751,660.9741,0,44,44,44,1,0.6,0.4,0.2,0.8,,,,,,,,,,,,,,,0.1385,,0.4,0.6,0.6,0.4,0.6,0.4,0.8,0.2,,,0.3357,,0.6,0.4,0.2,0.8,0.2,0.8,0.2,0.8,1,0
,,661564c766603e80ca4c3184,66db11f1434787354bb66570,2024-09-06_16h36.29.873,mdp,2024.2.1,Win32,60.60606061,66d7945b1baad48e845df3ce,,,,,,,,,,,,,,,,,,,,,660.9743,660.9743,660.9749,661.8076,0,0,left,0.3125,,661.8083,662.5576,1,1,right,662.5583,663.3077,0,1,left,0,663.3078,663.3078,663.3088,664.8076,0,45,45,45,1,0.6,0.4,0.2,0.8,,,,,,,,,,,,,,,0.2295,,0.4,0.6,0.6,0.4,0.6,0.4,0.8,0.2,,,0.2138,,0.6,0.4,0.2,0.8,0.2,0.8,0.2,0.8,1,0
,,661564c766603e80ca4c3184,66db11f1434787354bb66570,2024-09-06_16h36.29.873,mdp,2024.2.1,Win32,60.60606061,66d7945b1baad48e845df3ce,,,,,,,,,,,,,,,,,,,,,664.8081,664.8081,664.8089,665.8411,0,1,left,0.4999,,665.8422,666.4745,1,0,right,666.4752,667.1411,0,0,left,1,667.1412,667.1412,667.142,668.641,0,46,46,46,1,0.6,0.4,0.2,0.8,,,,,,,,,,,,,,,0.1202,,0.4,0.6,0.6,0.4,0.6,0.4,0.8,0.2,,,0.1297,,0.6,0.4,0.2,0.8,0.8,0.2,0.6,0.4,1,0
,,661564c766603e80ca4c3184,66db11f1434787354bb66570,2024-09-06_16h36.29.873,mdp,2024.2.1,Win32,60.60606061,66d7945b1baad48e845df3ce,,,,,,,,,,,,,,,,,,,,,668.6415,668.6415,668.6423,669.7078,1,1,right,0.5408,,669.7088,670.7246,1,0,right,670.7253,671.4248,0,0,left,1,671.4248,671.4248,671.4256,672.9245,0,47,47,47,1,0.6,0.4,0.2,0.8,,,,,,,,,,,,,,,0.4912,,0.4,0.6,0.6,0.4,0.6,0.4,0.8,0.2,,,0.1654,,0.6,0.4,0.2,0.8,0.8,0.2,0.6,0.4,1,0
,,661564c766603e80ca4c3184,66db11f1434787354bb66570,2024-09-06_16h36.29.873,mdp,2024.2.1,Win32,60.60606061,66d7945b1baad48e845df3ce,,,,,,,,,,,,,,,,,,,,,672.925,672.925,672.9259,673.9413,1,1,right,0.4839,,673.9421,674.758,0,0,left,674.7589,675.5413,0,0,left,1,675.5414,675.5414,675.5423,677.0414,0,48,48,48,1,0.6,0.4,0.2,0.8,,,,,,,,,,,,,,,0.2977,,0.4,0.6,0.6,0.4,0.8,0.2,0.2,0.8,,,0.2647,,0.6,0.4,0.2,0.8,0.8,0.2,0.6,0.4,1,0
,,661564c766603e80ca4c3184,66db11f1434787354bb66570,2024-09-06_16h36.29.873,mdp,2024.2.1,Win32,60.60606061,66d7945b1baad48e845df3ce,,,,,,,,,,,,,,,,,,,,,677.0417,677.0418,677.0424,677.7581,0,0,left,0.1841,,677.759,678.3915,1,1,right,678.3923,679.0748,0,0,left,1,679.0748,679.0748,679.0757,680.5748,0,49,49,49,1,0.6,0.4,0.2,0.8,,,,,,,,,,,,,,,0.124,,0.4,0.6,0.6,0.4,0.8,0.2,0.2,0.8,,,0.1467,,0.4,0.6,0.4,0.6,0.8,0.2,0.6,0.4,1,0
,,661564c766603e80ca4c3184,66db11f1434787354bb66570,2024-09-06_16h36.29.873,mdp,2024.2.1,Win32,60.60606061,66d7945b1baad48e845df3ce,,,,,,,,,,,,,,,,,,,,,,,,,,,,,,,,,,,,,,,,,,,,,,,,,,,,,,,,680.5749,739.0768,0,2,2,8,1,imgs/lion.png,imgs/dog.png,imgs/elephant.png,imgs/giraffe.png,imgs/kangaroo.png,,,,,,,,,,,,,,,,,,,,,,,,
,,661564c766603e80ca4c3184,66db11f1434787354bb66570,2024-09-06_16h36.29.873,mdp,2024.2.1,Win32,60.60606061,66d7945b1baad48e845df3ce,,,,,,,,,,,,,,3,seqs/st3seq41.csv,739.0848,759.5942,space,19.9954,,759.6076,759.6077,759.6083,760.7774,0,1,left,0.6572,,760.7781,761.4942,1,1,right,761.4951,762.1943,0,0,left,1,762.1944,762.1944,762.1953,763.6942,0,0,0,0,1,0.2,0.8,0.6,0.4,,,,,,,,,,,,,,,0.1944,,0.6,0.4,0.2,0.8,0.8,0.2,0.4,0.6,,,0.1718,,0.4,0.6,0.8,0.2,0.4,0.6,0.8,0.2,1,0
,,661564c766603e80ca4c3184,66db11f1434787354bb66570,2024-09-06_16h36.29.873,mdp,2024.2.1,Win32,60.60606061,66d7945b1baad48e845df3ce,,,,,,,,,,,,,,,,,,,,,763.6945,763.6945,763.6951,764.5443,0,1,left,0.3165,,764.5452,765.1944,1,0,right,765.1953,765.8943,0,1,left,0,765.8944,765.8944,765.8952,767.3943,0,1,1,1,1,0.2,0.8,0.6,0.4,,,,,,,,,,,,,,,0.1268,,0.6,0.4,0.2,0.8,0.8,0.2,0.4,0.6,,,0.1682,,0.4,0.6,0.8,0.2,0.4,0.6,0.8,0.2,1,0
,,661564c766603e80ca4c3184,66db11f1434787354bb66570,2024-09-06_16h36.29.873,mdp,2024.2.1,Win32,60.60606061,66d7945b1baad48e845df3ce,,,,,,,,,,,,,,,,,,,,,767.3947,767.3947,767.3956,768.1945,0,1,left,0.2772,,768.1953,768.8945,1,1,right,768.8952,769.5777,0,1,left,0,769.5777,769.5777,769.5784,771.0776,0,2,2,2,1,0.2,0.8,0.6,0.4,,,,,,,,,,,,,,,0.1671,,0.6,0.4,0.2,0.8,0.8,0.2,0.4,0.6,,,0.1502,,0.4,0.6,0.8,0.2,0.4,0.6,0.8,0.2,1,0
,,661564c766603e80ca4c3184,66db11f1434787354bb66570,2024-09-06_16h36.29.873,mdp,2024.2.1,Win32,60.60606061,66d7945b1baad48e845df3ce,,,,,,,,,,,,,,,,,,,,,771.078,771.078,771.0786,771.9444,0,1,left,0.3459,,771.945,772.6779,1,0,right,772.6789,773.3946,1,0,right,1,773.3946,773.3946,773.3952,774.8944,0,3,3,3,1,0.2,0.8,0.6,0.4,,,,,,,,,,,,,,,0.2013,,0.6,0.4,0.2,0.8,0.8,0.2,0.4,0.6,,,0.182,,0.4,0.6,0.8,0.2,0.4,0.6,0.8,0.2,1,0
,,661564c766603e80ca4c3184,66db11f1434787354bb66570,2024-09-06_16h36.29.873,mdp,2024.2.1,Win32,60.60606061,66d7945b1baad48e845df3ce,,,,,,,,,,,,,,,,,,,,,774.8947,774.8947,774.8954,776.2114,0,1,left,0.7854,,776.2128,777.228,1,0,right,777.229,778.6783,0,1,left,0,778.6784,778.6784,778.6794,780.178,0,4,4,4,1,0.2,0.8,0.6,0.4,,,,,,,,,,,,,,,0.485,,0.6,0.4,0.2,0.8,0.8,0.2,0.4,0.6,,,0.9235,,0.4,0.6,0.8,0.2,0.2,0.8,0.2,0.8,1,0
,,661564c766603e80ca4c3184,66db11f1434787354bb66570,2024-09-06_16h36.29.873,mdp,2024.2.1,Win32,60.60606061,66d7945b1baad48e845df3ce,,,,,,,,,,,,,,,,,,,,,780.1784,780.1784,780.1791,780.9781,0,1,left,0.2662,,780.9788,781.6948,1,1,right,781.6956,783.395,0,1,left,0,783.3951,783.3951,783.3958,784.895,0,5,5,5,1,0.2,0.8,0.6,0.4,,,,,,,,,,,,,,,0.1837,,0.6,0.4,0.2,0.8,0.8,0.2,0.4,0.6,,,1.1727,,0.4,0.6,0.8,0.2,0.2,0.8,0.2,0.8,1,0
,,661564c766603e80ca4c3184,66db11f1434787354bb66570,2024-09-06_16h36.29.873,mdp,2024.2.1,Win32,60.60606061,66d7945b1baad48e845df3ce,,,,,,,,,,,,,,,,,,,,,784.8952,784.8952,784.8958,785.795,0,1,left,0.3668,,785.7958,786.8451,0,0,left,786.8457,788.4283,1,0,right,1,788.4285,788.4285,788.4292,789.9284,0,6,6,6,1,0.2,0.8,0.6,0.4,,,,,,,,,,,,,,,0.5175,,0.2,0.8,0.8,0.2,0.8,0.2,0.4,0.6,,,1.0469,,0.4,0.6,0.8,0.2,0.2,0.8,0.2,0.8,1,0
,,661564c766603e80ca4c3184,66db11f1434787354bb66570,2024-09-06_16h36.29.873,mdp,2024.2.1,Win32,60.60606061,66d7945b1baad48e845df3ce,,,,,,,,,,,,,,,,,,,,,789.9288,789.9289,789.9296,790.9121,0,1,left,0.4535,,790.913,791.6953,0,0,left,791.6962,792.6786,1,0,right,1,792.6787,792.6787,792.6793,794.1784,0,7,7,7,1,0.2,0.8,0.6,0.4,,,,,,,,,,,,,,,0.2565,,0.2,0.8,0.8,0.2,0.8,0.2,0.4,0.6,,,0.4515,,0.4,0.6,0.8,0.2,0.2,0.8,0.2,0.8,1,0
,,661564c766603e80ca4c3184,66db11f1434787354bb66570,2024-09-06_16h36.29.873,mdp,2024.2.1,Win32,60.60606061,66d7945b1baad48e845df3ce,,,,,,,,,,,,,,,,,,,,,794.1787,794.1787,794.1793,794.8454,0,1,left,0.1412,,794.8466,795.5953,0,0,left,795.596,796.6119,1,0,right,1,796.612,796.612,796.6129,798.1119,0,8,8,8,1,0.2,0.8,0.6,0.4,,,,,,,,,,,,,,,0.218,,0.2,0.8,0.8,0.2,0.8,0.2,0.4,0.6,,,0.4926,,0.4,0.6,0.8,0.2,0.2,0.8,0.2,0.8,1,0
,,661564c766603e80ca4c3184,66db11f1434787354bb66570,2024-09-06_16h36.29.873,mdp,2024.2.1,Win32,60.60606061,66d7945b1baad48e845df3ce,,,,,,,,,,,,,,,,,,,,,798.1121,798.1122,798.1128,798.729,0,1,left,0.0955,,798.7305,799.4786,0,1,left,799.4793,800.2955,1,0,right,1,800.2955,800.2956,800.2963,801.7955,0,9,9,9,1,0.2,0.8,0.6,0.4,,,,,,,,,,,,,,,0.2238,0.0073,0.2,0.8,0.8,0.2,0.8,0.2,0.4,0.6,,,0.2927,,0.4,0.6,0.8,0.2,0.2,0.8,0.2,0.8,1,0
,,661564c766603e80ca4c3184,66db11f1434787354bb66570,2024-09-06_16h36.29.873,mdp,2024.2.1,Win32,60.60606061,66d7945b1baad48e845df3ce,,,,,,,,,,,,,,,,,,,,,801.796,801.796,801.7967,802.5122,0,1,left,0.184,,802.5129,803.2124,0,0,left,803.2132,803.8788,1,0,right,1,803.8789,803.8789,803.8798,805.3788,0,10,10,10,1,0.2,0.8,0.6,0.4,,,,,,,,,,,,,,,0.1699,,0.2,0.8,0.8,0.2,0.8,0.2,0.4,0.6,,,0.1362,,0.4,0.6,0.8,0.2,0.2,0.8,0.2,0.8,1,0
,,661564c766603e80ca4c3184,66db11f1434787354bb66570,2024-09-06_16h36.29.873,mdp,2024.2.1,Win32,60.60606061,66d7945b1baad48e845df3ce,,,,,,,,,,,,,,,,,,,,,805.3792,805.3792,805.38,805.9791,0,1,left,0.0775,,805.9801,806.7291,0,1,left,806.7299,807.3957,1,1,right,0,807.3958,807.3958,807.3966,808.8957,0,11,11,11,1,0.2,0.8,0.6,0.4,,,,,,,,,,,,,,,0.2209,,0.2,0.8,0.8,0.2,0.8,0.2,0.4,0.6,,,0.1312,,0.4,0.6,0.8,0.2,0.2,0.8,0.2,0.8,1,0
,,661564c766603e80ca4c3184,66db11f1434787354bb66570,2024-09-06_16h36.29.873,mdp,2024.2.1,Win32,60.60606061,66d7945b1baad48e845df3ce,,,,,,,,,,,,,,,,,,,,,808.896,808.896,808.897,809.596,0,1,left,0.1688,,809.5973,810.3292,0,1,left,810.33,811.1791,1,1,right,0,811.1792,811.1792,811.1797,812.6792,0,12,12,12,1,0.2,0.8,0.6,0.4,,,,,,,,,,,,,,,0.204,0.0076,0.2,0.8,0.8,0.2,0.8,0.2,0.4,0.6,,,0.3192,,0.4,0.6,0.8,0.2,0.2,0.8,0.2,0.8,1,0
,,661564c766603e80ca4c3184,66db11f1434787354bb66570,2024-09-06_16h36.29.873,mdp,2024.2.1,Win32,60.60606061,66d7945b1baad48e845df3ce,,,,,,,,,,,,,,,,,,,,,812.6797,812.6797,812.6807,813.5127,0,1,left,0.303,,813.5138,814.1958,1,1,right,814.1965,814.8958,0,1,left,0,814.8959,814.8959,814.8966,816.396,0,13,13,13,1,0.8,0.2,0.8,0.2,,,,,,,,,,,,,,,0.1519,,0.2,0.8,0.8,0.2,0.8,0.2,0.4,0.6,,,0.1723,0.0076,0.4,0.6,0.8,0.2,0.2,0.8,0.2,0.8,1,0
,,661564c766603e80ca4c3184,66db11f1434787354bb66570,2024-09-06_16h36.29.873,mdp,2024.2.1,Win32,60.60606061,66d7945b1baad48e845df3ce,,,,,,,,,,,,,,,,,,,,,816.3964,816.3964,816.3971,817.0126,1,0,right,0.0845,,817.0135,817.7126,0,1,left,817.7135,818.9461,1,1,right,0,818.9461,818.9461,818.9468,820.446,0,14,14,14,1,0.8,0.2,0.8,0.2,,,,,,,,,,,,,,,0.1603,,0.2,0.8,0.8,0.2,0.8,0.2,0.4,0.6,,,0.7071,,0.4,0.6,0.8,0.2,0.2,0.8,0.2,0.8,1,0
,,661564c766603e80ca4c3184,66db11f1434787354bb66570,2024-09-06_16h36.29.873,mdp,2024.2.1,Win32,60.60606061,66d7945b1baad48e845df3ce,,,,,,,,,,,,,,,,,,,,,820.4462,820.4463,820.4468,821.0964,1,1,right,0.1176,,821.097,822.0795,0,0,left,822.0802,823.5962,1,0,right,1,823.5962,823.5962,823.5969,825.0961,0,15,15,15,1,0.8,0.2,0.8,0.2,,,,,,,,,,,,,,,0.4593,,0.2,0.8,0.8,0.2,0.8,0.2,0.4,0.6,,,0.9803,,0.4,0.6,0.8,0.2,0.2,0.8,0.2,0.8,1,0
,,661564c766603e80ca4c3184,66db11f1434787354bb66570,2024-09-06_16h36.29.873,mdp,2024.2.1,Win32,60.60606061,66d7945b1baad48e845df3ce,,,,,,,,,,,,,,,,,,,,,825.0964,825.0964,825.0969,825.813,0,0,left,0.1833,,825.8138,827.3797,1,0,right,827.3807,828.1463,0,1,left,0,828.1464,828.1464,828.1471,829.6465,0,16,16,16,1,0.8,0.2,0.8,0.2,,,,,,,,,,,,,,,1.0395,,0.2,0.8,0.8,0.2,0.8,0.2,0.4,0.6,,,0.2326,,0.4,0.6,0.8,0.2,0.2,0.8,0.2,0.8,1,0
,,661564c766603e80ca4c3184,66db11f1434787354bb66570,2024-09-06_16h36.29.873,mdp,2024.2.1,Win32,60.60606061,66d7945b1baad48e845df3ce,,,,,,,,,,,,,,,,,,,,,829.6468,829.6469,829.6475,830.3964,0,1,left,0.2255,,830.3977,831.1297,0,0,left,831.1306,832.5131,1,0,right,1,832.5131,832.5131,832.5136,834.0132,0,17,17,17,1,0.8,0.2,0.8,0.2,,,,,,,,,,,,,,,0.1988,,0.2,0.8,0.8,0.2,0.8,0.2,0.4,0.6,,,0.8536,,0.4,0.6,0.8,0.2,0.2,0.8,0.2,0.8,1,0
,,661564c766603e80ca4c3184,66db11f1434787354bb66570,2024-09-06_16h36.29.873,mdp,2024.2.1,Win32,60.60606061,66d7945b1baad48e845df3ce,,,,,,,,,,,,,,,,,,,,,834.0139,834.0139,834.0148,834.6469,0,0,left,0.115,,834.6484,835.3966,0,1,left,835.3973,836.13,1,0,right,1,836.1302,836.1302,836.131,837.6299,0,18,18,18,1,0.8,0.2,0.8,0.2,,,,,,,,,,,,,,,0.2155,,0.2,0.8,0.8,0.2,0.8,0.2,0.4,0.6,,,0.2154,,0.4,0.6,0.8,0.2,0.2,0.8,0.2,0.8,1,0
,,661564c766603e80ca4c3184,66db11f1434787354bb66570,2024-09-06_16h36.29.873,mdp,2024.2.1,Win32,60.60606061,66d7945b1baad48e845df3ce,,,,,,,,,,,,,,,,,,,,,837.6303,837.6304,837.631,838.2966,0,0,left,0.138,,838.2973,838.9967,0,1,left,838.9976,839.7135,1,0,right,1,839.7136,839.7136,839.7142,841.2133,0,19,19,19,1,0.8,0.2,0.8,0.2,,,,,,,,,,,,,,,0.1761,,0.2,0.8,0.8,0.2,0.8,0.2,0.4,0.6,,,0.1878,0.0076,0.4,0.6,0.8,0.2,0.2,0.8,0.2,0.8,1,0
,,661564c766603e80ca4c3184,66db11f1434787354bb66570,2024-09-06_16h36.29.873,mdp,2024.2.1,Win32,60.60606061,66d7945b1baad48e845df3ce,,,,,,,,,,,,,,,,,,,,,841.2139,841.2139,841.2147,841.9967,0,1,left,0.251,,841.9975,842.6634,0,1,left,842.6642,843.3136,1,1,right,0,843.3136,843.3136,843.3145,844.8135,0,20,20,20,1,0.8,0.2,0.8,0.2,,,,,,,,,,,,,,,0.144,,0.2,0.8,0.8,0.2,0.8,0.2,0.4,0.6,,,0.1201,0.0078,0.4,0.6,0.8,0.2,0.2,0.8,0.2,0.8,1,0
,,661564c766603e80ca4c3184,66db11f1434787354bb66570,2024-09-06_16h36.29.873,mdp,2024.2.1,Win32,60.60606061,66d7945b1baad48e845df3ce,,,,,,,,,,,,,,,,,,,,,844.8139,844.814,844.8146,845.447,0,1,left,0.1044,,845.4478,846.1639,0,0,left,846.165,846.8471,1,1,right,0,846.8472,846.8472,846.8478,848.3469,0,21,21,21,1,0.8,0.2,0.8,0.2,,,,,,,,,,,,,,,0.1843,,0.2,0.8,0.8,0.2,0.8,0.2,0.4,0.6,,,0.1456,,0.4,0.6,0.8,0.2,0.2,0.8,0.2,0.8,1,0
,,661564c766603e80ca4c3184,66db11f1434787354bb66570,2024-09-06_16h36.29.873,mdp,2024.2.1,Win32,60.60606061,66d7945b1baad48e845df3ce,,,,,,,,,,,,,,,,,,,,,848.3472,848.3473,848.3479,848.9972,0,0,left,0.1176,,848.998,849.6473,0,1,left,849.6482,850.3473,1,1,right,0,850.3474,850.3474,850.3482,851.8471,0,22,22,22,1,0.8,0.2,0.8,0.2,,,,,,,,,,,,,,,0.1279,,0.2,0.8,0.8,0.2,0.8,0.2,0.4,0.6,,,0.1647,,0.4,0.6,0.8,0.2,0.2,0.8,0.2,0.8,1,0
,,661564c766603e80ca4c3184,66db11f1434787354bb66570,2024-09-06_16h36.29.873,mdp,2024.2.1,Win32,60.60606061,66d7945b1baad48e845df3ce,,,,,,,,,,,,,,,,,,,,,851.8474,851.8474,851.848,852.7304,0,0,left,0.361,,852.7312,853.3472,0,1,left,853.348,854.047,1,0,right,1,854.0471,854.0471,854.0479,855.5472,0,23,23,23,1,0.8,0.2,0.8,0.2,,,,,,,,,,,,,,,0.0942,,0.2,0.8,0.8,0.2,0.8,0.2,0.4,0.6,,,0.1666,,0.8,0.2,0.4,0.6,0.2,0.8,0.2,0.8,1,0
,,661564c766603e80ca4c3184,66db11f1434787354bb66570,2024-09-06_16h36.29.873,mdp,2024.2.1,Win32,60.60606061,66d7945b1baad48e845df3ce,,,,,,,,,,,,,,,,,,,,,855.5476,855.5476,855.5484,856.8806,0,0,left,0.8135,,856.8813,857.564,0,1,left,857.5648,858.2641,1,1,right,0,858.2641,858.2641,858.2648,859.7641,0,24,24,24,1,0.8,0.2,0.8,0.2,,,,,,,,,,,,,,,0.1597,,0.2,0.8,0.8,0.2,0.8,0.2,0.4,0.6,,,0.1702,,0.8,0.2,0.4,0.6,0.2,0.8,0.2,0.8,1,0
,,661564c766603e80ca4c3184,66db11f1434787354bb66570,2024-09-06_16h36.29.873,mdp,2024.2.1,Win32,60.60606061,66d7945b1baad48e845df3ce,,,,,,,,,,,,,,,,,,,,,859.7645,859.7645,859.7653,861.2974,0,0,left,1.002,,861.2988,861.8975,0,1,left,861.8983,862.5476,1,1,right,0,862.5476,862.5476,862.5484,864.0474,0,25,25,25,1,0.8,0.2,0.8,0.2,,,,,,,,,,,,,,,0.0953,,0.2,0.8,0.8,0.2,0.8,0.2,0.4,0.6,,,0.1233,,0.8,0.2,0.4,0.6,0.2,0.8,0.2,0.8,1,0
,,661564c766603e80ca4c3184,66db11f1434787354bb66570,2024-09-06_16h36.29.873,mdp,2024.2.1,Win32,60.60606061,66d7945b1baad48e845df3ce,,,,,,,,,,,,,,,,,,,,,864.0479,864.0479,864.0486,867.531,0,0,left,2.961,,867.5323,868.181,0,0,left,868.1817,868.781,1,0,right,1,868.7811,868.7811,868.782,870.2809,0,26,26,26,1,0.8,0.2,0.8,0.2,,,,,,,,,,,,,,,0.1159,,0.2,0.8,0.8,0.2,0.8,0.2,0.4,0.6,,,0.0624,,0.8,0.2,0.4,0.6,0.4,0.6,0.4,0.6,1,0
,,661564c766603e80ca4c3184,66db11f1434787354bb66570,2024-09-06_16h36.29.873,mdp,2024.2.1,Win32,60.60606061,66d7945b1baad48e845df3ce,,,,,,,,,,,,,,,,,,,,,870.2813,870.2813,870.2822,871.0143,0,0,left,0.2,,871.015,871.6315,0,0,left,871.6328,872.2321,1,1,right,0,872.2322,872.2322,872.2333,873.7311,0,27,27,27,1,0.8,0.2,0.8,0.2,,,,,,,,,,,,,,,0.0989,,0.2,0.8,0.8,0.2,0.8,0.2,0.4,0.6,,,0.081,,0.8,0.2,0.4,0.6,0.4,0.6,0.4,0.6,1,0
,,661564c766603e80ca4c3184,66db11f1434787354bb66570,2024-09-06_16h36.29.873,mdp,2024.2.1,Win32,60.60606061,66d7945b1baad48e845df3ce,,,,,,,,,,,,,,,,,,,,,873.7314,873.7314,873.7322,874.4478,0,1,left,0.1864,,874.4485,875.1645,0,0,left,875.1654,876.4646,1,1,right,0,876.4646,876.4646,876.4653,877.9647,0,28,28,28,1,0.8,0.2,0.8,0.2,,,,,,,,,,,,,,,0.1886,,0.2,0.8,0.8,0.2,0.8,0.2,0.4,0.6,,,0.7803,,0.8,0.2,0.4,0.6,0.4,0.6,0.4,0.6,1,0
,,661564c766603e80ca4c3184,66db11f1434787354bb66570,2024-09-06_16h36.29.873,mdp,2024.2.1,Win32,60.60606061,66d7945b1baad48e845df3ce,,,,,,,,,,,,,,,,,,,,,877.9651,877.9651,877.9656,878.7648,0,1,left,0.2761,,878.7657,879.4981,1,1,right,879.4992,880.6481,0,0,left,1,880.6482,880.6482,880.6489,882.1479,0,29,29,29,1,0.8,0.2,0.8,0.2,,,,,,,,,,,,,,,0.2039,,0.2,0.8,0.8,0.2,0.8,0.2,0.4,0.6,,,0.6166,,0.8,0.2,0.4,0.6,0.4,0.6,0.4,0.6,1,0
,,661564c766603e80ca4c3184,66db11f1434787354bb66570,2024-09-06_16h36.29.873,mdp,2024.2.1,Win32,60.60606061,66d7945b1baad48e845df3ce,,,,,,,,,,,,,,,,,,,,,882.1483,882.1483,882.149,882.8815,0,0,left,0.2031,,882.8822,883.5647,1,1,right,883.5654,884.6984,0,0,left,1,884.6984,884.6984,884.6991,886.1981,0,30,30,30,1,0.8,0.2,0.8,0.2,,,,,,,,,,,,,,,0.1477,,0.2,0.8,0.8,0.2,0.8,0.2,0.4,0.6,,,0.6042,,0.2,0.8,0.8,0.2,0.4,0.6,0.4,0.6,1,0
,,661564c766603e80ca4c3184,66db11f1434787354bb66570,2024-09-06_16h36.29.873,mdp,2024.2.1,Win32,60.60606061,66d7945b1baad48e845df3ce,,,,,,,,,,,,,,,,,,,,,886.1985,886.1985,886.1992,886.8317,0,0,left,0.1066,,886.8326,888.1153,0,1,left,888.1165,889.4982,0,0,left,1,889.4983,889.4983,889.4988,890.9984,0,31,31,31,1,0.8,0.2,0.8,0.2,,,,,,,,,,,,,,,0.7617,,0.2,0.8,0.8,0.2,0.8,0.2,0.4,0.6,,,0.8617,,0.2,0.8,0.8,0.2,0.4,0.6,0.4,0.6,1,0
,,661564c766603e80ca4c3184,66db11f1434787354bb66570,2024-09-06_16h36.29.873,mdp,2024.2.1,Win32,60.60606061,66d7945b1baad48e845df3ce,,,,,,,,,,,,,,,,,,,,,890.9987,890.9987,890.9995,891.7485,0,1,left,0.2256,,891.7494,893.1985,1,0,right,893.1993,894.2987,1,0,right,1,894.2987,894.2987,894.2997,895.7985,0,32,32,32,1,0.8,0.2,0.8,0.2,,,,,,,,,,,,,,,0.9151,,0.2,0.8,0.8,0.2,0.8,0.2,0.4,0.6,,,0.5655,,0.2,0.8,0.8,0.2,0.4,0.6,0.4,0.6,1,0
,,661564c766603e80ca4c3184,66db11f1434787354bb66570,2024-09-06_16h36.29.873,mdp,2024.2.1,Win32,60.60606061,66d7945b1baad48e845df3ce,,,,,,,,,,,,,,,,,,,,,895.7987,895.7987,895.7994,896.5319,0,0,left,0.2025,,896.5333,898.2485,0,1,left,898.2492,899.2153,0,1,left,0,899.2154,899.2154,899.2161,900.7153,0,33,33,33,1,0.8,0.2,0.8,0.2,,,,,,,,,,,,,,,1.1928,,0.2,0.8,0.8,0.2,0.8,0.2,0.4,0.6,,,0.4296,,0.2,0.8,0.8,0.2,0.4,0.6,0.4,0.6,1,0
,,661564c766603e80ca4c3184,66db11f1434787354bb66570,2024-09-06_16h36.29.873,mdp,2024.2.1,Win32,60.60606061,66d7945b1baad48e845df3ce,,,,,,,,,,,,,,,,,,,,,900.7156,900.7156,900.7163,901.4155,0,1,left,0.1819,,901.4163,902.7989,1,1,right,902.7999,903.5321,0,0,left,1,903.5322,903.5322,903.533,905.0322,0,34,34,34,1,0.8,0.2,0.8,0.2,,,,,,,,,,,,,,,0.8468,,0.2,0.8,0.8,0.2,0.8,0.2,0.4,0.6,,,0.1997,,0.2,0.8,0.8,0.2,0.4,0.6,0.4,0.6,1,0
,,661564c766603e80ca4c3184,66db11f1434787354bb66570,2024-09-06_16h36.29.873,mdp,2024.2.1,Win32,60.60606061,66d7945b1baad48e845df3ce,,,,,,,,,,,,,,,,,,,,,905.0326,905.0326,905.0333,905.8156,0,1,left,0.257,,905.8164,906.6327,1,1,right,906.6341,907.6658,0,1,left,0,907.666,907.666,907.6672,909.1655,0,35,35,35,1,0.8,0.2,0.8,0.2,,,,,,,,,,,,,,,0.289,,0.2,0.8,0.8,0.2,0.8,0.2,0.4,0.6,,,0.5136,,0.2,0.8,0.8,0.2,0.4,0.6,0.4,0.6,1,0
,,661564c766603e80ca4c3184,66db11f1434787354bb66570,2024-09-06_16h36.29.873,mdp,2024.2.1,Win32,60.60606061,66d7945b1baad48e845df3ce,,,,,,,,,,,,,,,,,,,,,909.1658,909.1658,909.1664,909.8659,0,0,left,0.1715,,909.8669,911.3658,0,1,left,911.3665,912.3992,0,0,left,1,912.3992,912.3992,912.4,913.899,0,36,36,36,1,0.8,0.2,0.8,0.2,,,,,,,,,,,,,,,0.9718,,0.2,0.8,0.8,0.2,0.8,0.2,0.4,0.6,,,0.5077,,0.2,0.8,0.8,0.2,0.4,0.6,0.4,0.6,1,0
,,661564c766603e80ca4c3184,66db11f1434787354bb66570,2024-09-06_16h36.29.873,mdp,2024.2.1,Win32,60.60606061,66d7945b1baad48e845df3ce,,,,,,,,,,,,,,,,,,,,,913.8994,913.8994,913.9001,914.6158,0,0,left,0.19,,914.6165,916.0825,0,1,left,916.0831,917.1828,0,1,left,0,917.1829,917.1829,917.1835,918.6825,0,37,37,37,1,0.8,0.2,0.8,0.2,,,,,,,,,,,,,,,0.9406,,0.2,0.8,0.8,0.2,0.8,0.2,0.4,0.6,,,0.5742,,0.2,0.8,0.8,0.2,0.4,0.6,0.4,0.6,1,0
,,661564c766603e80ca4c3184,66db11f1434787354bb66570,2024-09-06_16h36.29.873,mdp,2024.2.1,Win32,60.60606061,66d7945b1baad48e845df3ce,,,,,,,,,,,,,,,,,,,,,918.6829,918.6829,918.6842,919.366,0,0,left,0.1586,,919.3667,920.116,1,0,right,920.1167,920.816,0,1,left,0,920.8161,920.8161,920.8169,922.3159,0,38,38,38,1,0.8,0.2,0.8,0.2,,,,,,,,,,,,,,,0.2267,,0.2,0.8,0.8,0.2,0.8,0.2,0.4,0.6,,,0.166,,0.2,0.8,0.8,0.2,0.4,0.6,0.4,0.6,1,0
,,661564c766603e80ca4c3184,66db11f1434787354bb66570,2024-09-06_16h36.29.873,mdp,2024.2.1,Win32,60.60606061,66d7945b1baad48e845df3ce,,,,,,,,,,,,,,,,,,,,,922.3162,922.3162,922.3169,923.0327,0,0,left,0.1876,,923.0335,924.133,0,1,left,924.1341,925.2162,0,0,left,1,925.2162,925.2162,925.217,926.7162,0,39,39,39,1,0.8,0.2,0.8,0.2,,,,,,,,,,,,,,,0.5666,,0.2,0.8,0.8,0.2,0.8,0.2,0.4,0.6,,,0.5605,,0.2,0.8,0.8,0.2,0.4,0.6,0.4,0.6,1,0
,,661564c766603e80ca4c3184,66db11f1434787354bb66570,2024-09-06_16h36.29.873,mdp,2024.2.1,Win32,60.60606061,66d7945b1baad48e845df3ce,,,,,,,,,,,,,,,,,,,,,926.7166,926.7166,926.7172,927.6497,0,0,left,0.3996,,927.6506,928.3328,1,0,right,928.3334,928.9665,0,1,left,0,928.9666,928.9666,928.968,930.4664,0,40,40,40,1,0.8,0.2,0.8,0.2,,,,,,,,,,,,,,,0.1601,,0.2,0.8,0.8,0.2,0.8,0.2,0.4,0.6,,,0.1142,,0.2,0.8,0.8,0.2,0.4,0.6,0.4,0.6,1,0
,,661564c766603e80ca4c3184,66db11f1434787354bb66570,2024-09-06_16h36.29.873,mdp,2024.2.1,Win32,60.60606061,66d7945b1baad48e845df3ce,,,,,,,,,,,,,,,,,,,,,930.4668,930.4668,930.4675,931.1663,0,0,left,0.1733,,931.1673,931.7997,0,1,left,931.8005,932.6499,1,0,right,1,932.6499,932.6499,932.6508,934.15,0,41,41,41,1,0.8,0.2,0.8,0.2,,,,,,,,,,,,,,,0.1066,,0.2,0.8,0.8,0.2,0.8,0.2,0.4,0.6,,,0.3182,,0.2,0.8,0.8,0.2,0.4,0.6,0.4,0.6,1,0
,,661564c766603e80ca4c3184,66db11f1434787354bb66570,2024-09-06_16h36.29.873,mdp,2024.2.1,Win32,60.60606061,66d7945b1baad48e845df3ce,,,,,,,,,,,,,,,,,,,,,934.1504,934.1504,934.1513,934.9165,0,0,left,0.2345,,934.9171,935.6499,1,1,right,935.6505,936.2832,0,1,left,0,936.2833,936.2833,936.2839,937.7832,0,42,42,42,1,0.8,0.2,0.8,0.2,,,,,,,,,,,,,,,0.2129,,0.2,0.8,0.8,0.2,0.8,0.2,0.4,0.6,,,0.1095,,0.2,0.8,0.8,0.2,0.4,0.6,0.4,0.6,1,0
,,661564c766603e80ca4c3184,66db11f1434787354bb66570,2024-09-06_16h36.29.873,mdp,2024.2.1,Win32,60.60606061,66d7945b1baad48e845df3ce,,,,,,,,,,,,,,,,,,,,,937.7837,937.7837,937.7852,938.4666,0,0,left,0.1612,,938.4673,939.1834,0,1,left,939.1844,939.8499,1,0,right,1,939.8499,939.8499,939.8505,941.3499,0,43,43,43,1,0.8,0.2,0.8,0.2,,,,,,,,,,,,,,,0.1907,,0.2,0.8,0.8,0.2,0.8,0.2,0.4,0.6,,,0.1459,,0.2,0.8,0.8,0.2,0.4,0.6,0.4,0.6,1,0
,,661564c766603e80ca4c3184,66db11f1434787354bb66570,2024-09-06_16h36.29.873,mdp,2024.2.1,Win32,60.60606061,66d7945b1baad48e845df3ce,,,,,,,,,,,,,,,,,,,,,941.3503,941.3503,941.3509,941.9835,0,0,left,0.1006,,941.9844,942.6501,0,1,left,942.6509,943.3169,1,1,right,0,943.3169,943.3169,943.3176,944.817,0,44,44,44,1,0.8,0.2,0.8,0.2,,,,,,,,,,,,,,,0.1367,,0.2,0.8,0.8,0.2,0.8,0.2,0.4,0.6,,,0.1326,,0.2,0.8,0.8,0.2,0.4,0.6,0.4,0.6,1,0
,,661564c766603e80ca4c3184,66db11f1434787354bb66570,2024-09-06_16h36.29.873,mdp,2024.2.1,Win32,60.60606061,66d7945b1baad48e845df3ce,,,,,,,,,,,,,,,,,,,,,944.8176,944.8176,944.8184,945.617,0,1,left,0.2804,,945.6179,946.3336,0,0,left,946.3345,947.017,1,0,right,1,947.0171,947.0171,947.018,948.5169,0,45,45,45,1,0.8,0.2,0.8,0.2,,,,,,,,,,,,,,,0.1892,,0.2,0.8,0.8,0.2,0.8,0.2,0.4,0.6,,,0.1592,,0.6,0.4,0.4,0.6,0.4,0.6,0.4,0.6,1,0
,,661564c766603e80ca4c3184,66db11f1434787354bb66570,2024-09-06_16h36.29.873,mdp,2024.2.1,Win32,60.60606061,66d7945b1baad48e845df3ce,,,,,,,,,,,,,,,,,,,,,948.5172,948.5172,948.5182,949.2501,0,0,left,0.2128,,949.2508,950.0004,0,0,left,950.0014,950.817,1,0,right,1,950.8171,950.8171,950.8176,952.3171,0,46,46,46,1,0.8,0.2,0.8,0.2,,,,,,,,,,,,,,,0.2437,,0.2,0.8,0.8,0.2,0.8,0.2,0.4,0.6,,,0.2889,,0.6,0.4,0.4,0.6,0.4,0.6,0.4,0.6,1,0
,,661564c766603e80ca4c3184,66db11f1434787354bb66570,2024-09-06_16h36.29.873,mdp,2024.2.1,Win32,60.60606061,66d7945b1baad48e845df3ce,,,,,,,,,,,,,,,,,,,,,952.3174,952.3174,952.318,953.0009,0,0,left,0.1653,,953.0019,953.6837,0,0,left,953.6844,954.3171,1,1,right,0,954.3171,954.3171,954.318,955.8171,0,47,47,47,1,0.8,0.2,0.8,0.2,,,,,,,,,,,,,,,0.1584,,0.2,0.8,0.8,0.2,0.8,0.2,0.4,0.6,,,0.1099,,0.6,0.4,0.4,0.6,0.4,0.6,0.4,0.6,1,0
,,661564c766603e80ca4c3184,66db11f1434787354bb66570,2024-09-06_16h36.29.873,mdp,2024.2.1,Win32,60.60606061,66d7945b1baad48e845df3ce,,,,,,,,,,,,,,,,,,,,,955.8175,955.8175,955.8181,956.4172,0,1,left,0.0729,,956.4179,957.0507,0,0,left,957.0514,957.8841,0,0,left,1,957.8842,957.8842,957.8849,959.3837,0,48,48,48,1,0.8,0.2,0.8,0.2,,,,,,,,,,,,,,,0.1229,,0.2,0.8,0.8,0.2,0.8,0.2,0.4,0.6,,,0.3029,,0.6,0.4,0.4,0.6,0.4,0.6,0.4,0.6,1,0
,,661564c766603e80ca4c3184,66db11f1434787354bb66570,2024-09-06_16h36.29.873,mdp,2024.2.1,Win32,60.60606061,66d7945b1baad48e845df3ce,,,,,,,,,,,,,,,,,,,,,959.384,959.384,959.3845,960.1007,0,0,left,0.184,,960.1013,960.7841,0,1,left,960.7848,961.384,0,1,left,0,961.3841,961.3841,961.3847,962.884,0,49,49,49,1,0.8,0.2,0.8,0.2,,,,,,,,,,,,,,,0.1514,,0.2,0.8,0.8,0.2,0.8,0.2,0.4,0.6,,,0.0683,,0.6,0.4,0.4,0.6,0.4,0.6,0.4,0.6,1,0
,,661564c766603e80ca4c3184,66db11f1434787354bb66570,2024-09-06_16h36.29.873,mdp,2024.2.1,Win32,60.60606061,66d7945b1baad48e845df3ce,,,,,,,,,,,,,,,,,,,,,,,,,,,,,,,,,,,,,,,,,,,,,,,,,,,,,,,,962.8841,1021.3859,0,3,3,6,1,imgs/giraffe.png,imgs/horse.png,imgs/lion.png,imgs/elephant.png,imgs/rabbit.png,,,,,,,,,,,,,,,,,,,,,,,,
,,661564c766603e80ca4c3184,66db11f1434787354bb66570,2024-09-06_16h36.29.873,mdp,2024.2.1,Win32,60.60606061,66d7945b1baad48e845df3ce,,,,,,,,,,,,,,1,seqs/st1seq33.csv,1021.3941,1037.7199,space,15.8023,,1037.722,1037.7221,1037.7227,1038.8534,0,1,left,0.5956,,1038.8544,1038.855,0,0,,1038.8561,1038.8565,0,0,,0,1038.8565,1038.8565,1038.8568,1040.3534,0,0,0,0,1,0.4,0.6,0.8,0.2,1,0,,,,,,,,,,,,,,,,,,,,,,,,,,,,,,,,,,,,
,,661564c766603e80ca4c3184,66db11f1434787354bb66570,2024-09-06_16h36.29.873,mdp,2024.2.1,Win32,60.60606061,66d7945b1baad48e845df3ce,,,,,,,,,,,,,,,,,,,,,1040.3538,1040.3538,1040.3545,1041.3368,1,0,right,0.4526,,1041.3377,1041.338,0,1,,1041.3385,1041.3388,0,0,,1,1041.3388,1041.3388,1041.3392,1042.8366,0,1,1,1,1,0.4,0.6,0.8,0.2,1,0,,,,,,,,,,,,,,,,,,,,,,,,,,,,,,,,,,,,
,,661564c766603e80ca4c3184,66db11f1434787354bb66570,2024-09-06_16h36.29.873,mdp,2024.2.1,Win32,60.60606061,66d7945b1baad48e845df3ce,,,,,,,,,,,,,,,,,,,,,1042.8369,1042.8369,1042.8375,1043.4701,1,0,right,0.1023,,1043.4709,1043.4713,0,0,,1043.4718,1043.4722,0,1,,1,1043.4722,1043.4722,1043.4726,1044.9702,0,2,2,2,1,0.8,0.2,0.4,0.6,1,0,,,,,,,,,,,,,,,,,,,,,,,,,,,,,,,,,,,,
,,661564c766603e80ca4c3184,66db11f1434787354bb66570,2024-09-06_16h36.29.873,mdp,2024.2.1,Win32,60.60606061,66d7945b1baad48e845df3ce,,,,,,,,,,,,,,,,,,,,,1044.9704,1044.9704,1044.9712,1045.8202,1,1,right,0.3282,,1045.8209,1045.8213,0,1,,1045.8217,1045.8221,0,0,,0,1045.8221,1045.8221,1045.8224,1047.3202,0,3,3,3,1,0.8,0.2,0.4,0.6,1,0,,,,,,,,,,,,,,,,,,,,,,,,,,,,,,,,,,,,
,,661564c766603e80ca4c3184,66db11f1434787354bb66570,2024-09-06_16h36.29.873,mdp,2024.2.1,Win32,60.60606061,66d7945b1baad48e845df3ce,,,,,,,,,,,,,,,,,,,,,1047.3205,1047.3205,1047.3211,1048.0034,1,1,right,0.1541,,1048.004,1048.0043,0,1,,1048.0045,1048.0048,0,1,,0,1048.0048,1048.0048,1048.005,1049.5039,0,4,4,4,1,0.8,0.2,0.4,0.6,1,0,,,,,,,,,,,,,,,,,,,,,,,,,,,,,,,,,,,,
,,661564c766603e80ca4c3184,66db11f1434787354bb66570,2024-09-06_16h36.29.873,mdp,2024.2.1,Win32,60.60606061,66d7945b1baad48e845df3ce,,,,,,,,,,,,,,,,,,,,,1049.5046,1049.5046,1049.5058,1050.2038,0,0,left,0.1779,,1050.2046,1050.2051,0,0,,1050.2055,1050.2057,0,1,,1,1050.2057,1050.2057,1050.206,1051.7036,0,5,5,5,1,0.8,0.2,0.4,0.6,1,0,,,,,,,,,,,,,,,,,,,,,,,,,,,,,,,,,,,,
,,661564c766603e80ca4c3184,66db11f1434787354bb66570,2024-09-06_16h36.29.873,mdp,2024.2.1,Win32,60.60606061,66d7945b1baad48e845df3ce,,,,,,,,,,,,,,,,,,,,,1051.7041,1051.7041,1051.7053,1052.3704,0,1,left,0.1374,,1052.371,1052.3713,0,0,,1052.3717,1052.3719,0,0,,0,1052.3719,1052.372,1052.3722,1053.8705,0,6,6,6,1,0.8,0.2,0.4,0.6,1,0,,,,,,,,,,,,,,,,,,,,,,,,,,,,,,,,,,,,
,,661564c766603e80ca4c3184,66db11f1434787354bb66570,2024-09-06_16h36.29.873,mdp,2024.2.1,Win32,60.60606061,66d7945b1baad48e845df3ce,,,,,,,,,,,,,,,,,,,,,1053.8708,1053.8708,1053.8716,1054.5871,0,0,left,0.1883,,1054.5879,1054.5884,0,0,,1054.5887,1054.5889,0,0,,1,1054.589,1054.589,1054.5893,1056.0872,0,7,7,7,1,0.8,0.2,0.4,0.6,1,0,,,,,,,,,,,,,,,,,,,,,,,,,,,,,,,,,,,,
,,661564c766603e80ca4c3184,66db11f1434787354bb66570,2024-09-06_16h36.29.873,mdp,2024.2.1,Win32,60.60606061,66d7945b1baad48e845df3ce,,,,,,,,,,,,,,,,,,,,,1056.0874,1056.0874,1056.0883,1056.7705,0,1,left,0.1513,,1056.7715,1056.7719,0,0,,1056.7724,1056.7728,0,1,,0,1056.7729,1056.7729,1056.7732,1058.2704,0,8,8,8,1,0.8,0.2,0.4,0.6,1,0,,,,,,,,,,,,,,,,,,,,,,,,,,,,,,,,,,,,
,,661564c766603e80ca4c3184,66db11f1434787354bb66570,2024-09-06_16h36.29.873,mdp,2024.2.1,Win32,60.60606061,66d7945b1baad48e845df3ce,,,,,,,,,,,,,,,,,,,,,1058.2708,1058.2708,1058.2714,1059.0206,1,1,right,0.2276,,1059.0213,1059.0218,0,1,,1059.0222,1059.0224,0,1,,0,1059.0224,1059.0224,1059.0226,1060.5205,0,9,9,9,1,0.8,0.2,0.4,0.6,1,0,,,,,,,,,,,,,,,,,,,,,,,,,,,,,,,,,,,,
,,661564c766603e80ca4c3184,66db11f1434787354bb66570,2024-09-06_16h36.29.873,mdp,2024.2.1,Win32,60.60606061,66d7945b1baad48e845df3ce,,,,,,,,,,,,,,,,,,,,,1060.5209,1060.5209,1060.5215,1061.2372,0,1,left,0.193,,1061.2381,1061.2384,0,1,,1061.2388,1061.2389,0,0,,0,1061.239,1061.239,1061.2393,1062.7374,0,10,10,10,1,0.4,0.6,0.8,0.2,1,0,,,,,,,,,,,,,,,,,,,,,,,,,,,,,,,,,,,,
,,661564c766603e80ca4c3184,66db11f1434787354bb66570,2024-09-06_16h36.29.873,mdp,2024.2.1,Win32,60.60606061,66d7945b1baad48e845df3ce,,,,,,,,,,,,,,,,,,,,,1062.7376,1062.7376,1062.7383,1063.454,0,1,left,0.1926,,1063.4549,1063.4553,0,1,,1063.4558,1063.4561,0,1,,0,1063.4561,1063.4562,1063.4565,1064.9541,0,11,11,11,1,0.4,0.6,0.8,0.2,1,0,,,,,,,,,,,,,,,,,,,,,,,,,,,,,,,,,,,,
,,661564c766603e80ca4c3184,66db11f1434787354bb66570,2024-09-06_16h36.29.873,mdp,2024.2.1,Win32,60.60606061,66d7945b1baad48e845df3ce,,,,,,,,,,,,,,,,,,,,,1064.9543,1064.9543,1064.9555,1065.7041,0,1,left,0.2244,,1065.7048,1065.7052,0,0,,1065.7056,1065.7058,0,0,,0,1065.7059,1065.7059,1065.7062,1067.204,0,12,12,12,1,0.6,0.4,0.2,0.8,1,0,,,,,,,,,,,,,,,,,,,,,,,,,,,,,,,,,,,,
,,661564c766603e80ca4c3184,66db11f1434787354bb66570,2024-09-06_16h36.29.873,mdp,2024.2.1,Win32,60.60606061,66d7945b1baad48e845df3ce,,,,,,,,,,,,,,,,,,,,,1067.2044,1067.2044,1067.205,1067.9041,1,0,right,0.1734,,1067.9049,1067.9053,0,1,,1067.9057,1067.9061,0,1,,1,1067.9061,1067.9061,1067.9063,1069.4042,0,13,13,13,1,0.6,0.4,0.2,0.8,1,0,,,,,,,,,,,,,,,,,,,,,,,,,,,,,,,,,,,,
,,661564c766603e80ca4c3184,66db11f1434787354bb66570,2024-09-06_16h36.29.873,mdp,2024.2.1,Win32,60.60606061,66d7945b1baad48e845df3ce,,,,,,,,,,,,,,,,,,,,,1069.4047,1069.4047,1069.4055,1070.071,1,0,right,0.1423,,1070.0718,1070.0722,0,1,,1070.0727,1070.073,0,1,,1,1070.073,1070.073,1070.0733,1071.5711,0,14,14,14,1,0.6,0.4,0.2,0.8,1,0,,,,,,,,,,,,,,,,,,,,,,,,,,,,,,,,,,,,
,,661564c766603e80ca4c3184,66db11f1434787354bb66570,2024-09-06_16h36.29.873,mdp,2024.2.1,Win32,60.60606061,66d7945b1baad48e845df3ce,,,,,,,,,,,,,,,,,,,,,1071.5715,1071.5715,1071.5724,1072.3377,1,1,right,0.2394,,1072.3384,1072.3387,0,0,,1072.339,1072.3392,0,1,,0,1072.3392,1072.3392,1072.3395,1073.838,0,15,15,15,1,0.6,0.4,0.2,0.8,1,0,,,,,,,,,,,,,,,,,,,,,,,,,,,,,,,,,,,,
,,661564c766603e80ca4c3184,66db11f1434787354bb66570,2024-09-06_16h36.29.873,mdp,2024.2.1,Win32,60.60606061,66d7945b1baad48e845df3ce,,,,,,,,,,,,,,,,,,,,,1073.8386,1073.8386,1073.8397,1074.5379,0,0,left,0.1733,,1074.5391,1074.5396,0,1,,1074.5401,1074.5402,0,0,,1,1074.5402,1074.5402,1074.5404,1076.0378,0,16,16,16,1,0.6,0.4,0.2,0.8,1,0,,,,,,,,,,,,,,,,,,,,,,,,,,,,,,,,,,,,
,,661564c766603e80ca4c3184,66db11f1434787354bb66570,2024-09-06_16h36.29.873,mdp,2024.2.1,Win32,60.60606061,66d7945b1baad48e845df3ce,,,,,,,,,,,,,,,,,,,,,1076.0381,1076.0381,1076.0388,1076.6379,0,0,left,0.0696,,1076.6388,1076.6392,0,1,,1076.6396,1076.6399,0,1,,1,1076.6399,1076.6399,1076.6401,1078.1378,0,17,17,17,1,0.6,0.4,0.2,0.8,1,0,,,,,,,,,,,,,,,,,,,,,,,,,,,,,,,,,,,,
,,661564c766603e80ca4c3184,66db11f1434787354bb66570,2024-09-06_16h36.29.873,mdp,2024.2.1,Win32,60.60606061,66d7945b1baad48e845df3ce,,,,,,,,,,,,,,,,,,,,,1078.1381,1078.1381,1078.1387,1078.7546,0,0,left,0.0898,,1078.7554,1078.7559,0,1,,1078.7564,1078.7567,0,1,,1,1078.7567,1078.7568,1078.7572,1080.2545,0,18,18,18,1,0.6,0.4,0.2,0.8,1,0,,,,,,,,,,,,,,,,,,,,,,,,,,,,,,,,,,,,
,,661564c766603e80ca4c3184,66db11f1434787354bb66570,2024-09-06_16h36.29.873,mdp,2024.2.1,Win32,60.60606061,66d7945b1baad48e845df3ce,,,,,,,,,,,,,,,,,,,,,1080.2548,1080.2548,1080.2555,1080.9212,0,0,left,0.1486,,1080.9219,1080.9223,0,0,,1080.9227,1080.9235,0,0,,1,1080.9235,1080.9235,1080.9238,1082.4214,0,19,19,19,1,0.6,0.4,0.2,0.8,1,0,,,,,,,,,,,,,,,,,,,,,,,,,,,,,,,,,,,,
,,661564c766603e80ca4c3184,66db11f1434787354bb66570,2024-09-06_16h36.29.873,mdp,2024.2.1,Win32,60.60606061,66d7945b1baad48e845df3ce,,,,,,,,,,,,,,,,,,,,,1082.4218,1082.4218,1082.4226,1083.0213,0,0,left,0.0768,,1083.022,1083.0223,0,1,,1083.0227,1083.023,0,0,,1,1083.023,1083.023,1083.0233,1084.5214,0,20,20,20,1,0.8,0.2,0.6,0.4,1,0,,,,,,,,,,,,,,,,,,,,,,,,,,,,,,,,,,,,
,,661564c766603e80ca4c3184,66db11f1434787354bb66570,2024-09-06_16h36.29.873,mdp,2024.2.1,Win32,60.60606061,66d7945b1baad48e845df3ce,,,,,,,,,,,,,,,,,,,,,1084.5217,1084.5217,1084.5224,1085.1384,0,0,left,0.0979,,1085.1395,1085.1401,0,0,,1085.1407,1085.1411,0,0,,1,1085.1411,1085.1412,1085.1417,1086.6382,0,21,21,21,1,0.8,0.2,0.6,0.4,1,0,,,,,,,,,,,,,,,,,,,,,,,,,,,,,,,,,,,,
,,661564c766603e80ca4c3184,66db11f1434787354bb66570,2024-09-06_16h36.29.873,mdp,2024.2.1,Win32,60.60606061,66d7945b1baad48e845df3ce,,,,,,,,,,,,,,,,,,,,,1086.6385,1086.6386,1086.6398,1087.2381,0,1,left,0.0666,,1087.239,1087.2395,0,0,,1087.2398,1087.24,0,0,,0,1087.24,1087.24,1087.2403,1088.7383,0,22,22,22,1,0.8,0.2,0.6,0.4,1,0,,,,,,,,,,,,,,,,,,,,,,,,,,,,,,,,,,,,
,,661564c766603e80ca4c3184,66db11f1434787354bb66570,2024-09-06_16h36.29.873,mdp,2024.2.1,Win32,60.60606061,66d7945b1baad48e845df3ce,,,,,,,,,,,,,,,,,,,,,1088.7386,1088.7386,1088.7396,1089.355,1,0,right,0.0964,,1089.3558,1089.3561,0,0,,1089.3566,1089.3569,0,1,,1,1089.3569,1089.3569,1089.3572,1090.8551,0,23,23,23,1,0.8,0.2,0.6,0.4,1,0,,,,,,,,,,,,,,,,,,,,,,,,,,,,,,,,,,,,
,,661564c766603e80ca4c3184,66db11f1434787354bb66570,2024-09-06_16h36.29.873,mdp,2024.2.1,Win32,60.60606061,66d7945b1baad48e845df3ce,,,,,,,,,,,,,,,,,,,,,1090.8554,1090.8554,1090.8564,1091.405,0,0,left,0.0203,,1091.4056,1091.4061,0,0,,1091.4066,1091.4069,0,1,,1,1091.4069,1091.4069,1091.4072,1092.9048,0,24,24,24,1,0.8,0.2,0.6,0.4,1,0,,,,,,,,,,,,,,,,,,,,,,,,,,,,,,,,,,,,
,,661564c766603e80ca4c3184,66db11f1434787354bb66570,2024-09-06_16h36.29.873,mdp,2024.2.1,Win32,60.60606061,66d7945b1baad48e845df3ce,,,,,,,,,,,,,,,,,,,,,1092.9051,1092.9051,1092.9057,1093.4718,0,0,left,0.0424,,1093.4729,1093.4735,0,0,,1093.474,1093.4743,0,0,,1,1093.4743,1093.4743,1093.4746,1094.9718,0,25,25,25,1,0.8,0.2,0.6,0.4,1,0,,,,,,,,,,,,,,,,,,,,,,,,,,,,,,,,,,,,
,,661564c766603e80ca4c3184,66db11f1434787354bb66570,2024-09-06_16h36.29.873,mdp,2024.2.1,Win32,60.60606061,66d7945b1baad48e845df3ce,,,,,,,,,,,,,,,,,,,,,1094.9721,1094.9722,1094.9729,1095.5884,0,0,left,0.0872,,1095.5891,1095.5894,0,0,,1095.5897,1095.5899,0,0,,1,1095.59,1095.59,1095.5902,1097.0885,0,26,26,26,1,0.8,0.2,0.6,0.4,1,0,,,,,,,,,,,,,,,,,,,,,,,,,,,,,,,,,,,,
,,661564c766603e80ca4c3184,66db11f1434787354bb66570,2024-09-06_16h36.29.873,mdp,2024.2.1,Win32,60.60606061,66d7945b1baad48e845df3ce,,,,,,,,,,,,,,,,,,,,,1097.0888,1097.0888,1097.0893,1097.7552,0,0,left,0.1456,,1097.756,1097.7567,0,1,,1097.7574,1097.7578,0,0,,1,1097.7579,1097.7579,1097.7584,1099.2551,0,27,27,27,1,0.8,0.2,0.6,0.4,1,0,,,,,,,,,,,,,,,,,,,,,,,,,,,,,,,,,,,,
,,661564c766603e80ca4c3184,66db11f1434787354bb66570,2024-09-06_16h36.29.873,mdp,2024.2.1,Win32,60.60606061,66d7945b1baad48e845df3ce,,,,,,,,,,,,,,,,,,,,,1099.2555,1099.2555,1099.256,1099.8218,0,0,left,0.0441,,1099.8225,1099.8228,0,0,,1099.8231,1099.8233,0,1,,1,1099.8233,1099.8233,1099.8236,1101.3219,0,28,28,28,1,0.8,0.2,0.6,0.4,1,0,,,,,,,,,,,,,,,,,,,,,,,,,,,,,,,,,,,,
,,661564c766603e80ca4c3184,66db11f1434787354bb66570,2024-09-06_16h36.29.873,mdp,2024.2.1,Win32,60.60606061,66d7945b1baad48e845df3ce,,,,,,,,,,,,,,,,,,,,,1101.3222,1101.3222,1101.3228,1101.972,0,0,left,0.1276,,1101.9727,1101.9731,0,0,,1101.9735,1101.9737,0,0,,1,1101.9737,1101.9737,1101.9739,1103.4719,0,29,29,29,1,0.8,0.2,0.6,0.4,1,0,,,,,,,,,,,,,,,,,,,,,,,,,,,,,,,,,,,,
,,661564c766603e80ca4c3184,66db11f1434787354bb66570,2024-09-06_16h36.29.873,mdp,2024.2.1,Win32,60.60606061,66d7945b1baad48e845df3ce,,,,,,,,,,,,,,,,,,,,,1103.4722,1103.4722,1103.4729,1104.1721,1,0,right,0.1786,,1104.173,1104.1735,0,0,,1104.1742,1104.1745,0,0,,1,1104.1745,1104.1745,1104.1749,1105.672,0,30,30,30,1,0.8,0.2,0.6,0.4,1,0,,,,,,,,,,,,,,,,,,,,,,,,,,,,,,,,,,,,
,,661564c766603e80ca4c3184,66db11f1434787354bb66570,2024-09-06_16h36.29.873,mdp,2024.2.1,Win32,60.60606061,66d7945b1baad48e845df3ce,,,,,,,,,,,,,,,,,,,,,1105.6723,1105.6723,1105.6728,1106.2722,0,0,left,0.0742,,1106.2732,1106.2738,0,1,,1106.2745,1106.2752,0,0,,1,1106.2752,1106.2752,1106.2758,1107.7721,0,31,31,31,1,0.2,0.8,0.8,0.2,1,0,,,,,,,,,,,,,,,,,,,,,,,,,,,,,,,,,,,,
,,661564c766603e80ca4c3184,66db11f1434787354bb66570,2024-09-06_16h36.29.873,mdp,2024.2.1,Win32,60.60606061,66d7945b1baad48e845df3ce,,,,,,,,,,,,,,,,,,,,,1107.7725,1107.7725,1107.7733,1108.3721,0,0,left,0.0792,,1108.3728,1108.3731,0,1,,1108.3735,1108.3737,0,1,,1,1108.3737,1108.3737,1108.374,1109.8721,0,32,32,32,1,0.2,0.8,0.8,0.2,1,0,,,,,,,,,,,,,,,,,,,,,,,,,,,,,,,,,,,,
,,661564c766603e80ca4c3184,66db11f1434787354bb66570,2024-09-06_16h36.29.873,mdp,2024.2.1,Win32,60.60606061,66d7945b1baad48e845df3ce,,,,,,,,,,,,,,,,,,,,,1109.8724,1109.8724,1109.8729,1110.4723,1,0,right,0.0737,,1110.4735,1110.474,0,0,,1110.4746,1110.4754,0,0,,1,1110.4754,1110.4754,1110.4758,1111.9723,0,33,33,33,1,0.2,0.8,0.8,0.2,1,0,,,,,,,,,,,,,,,,,,,,,,,,,,,,,,,,,,,,
,,661564c766603e80ca4c3184,66db11f1434787354bb66570,2024-09-06_16h36.29.873,mdp,2024.2.1,Win32,60.60606061,66d7945b1baad48e845df3ce,,,,,,,,,,,,,,,,,,,,,1111.9727,1111.9727,1111.9733,1112.5888,0,0,left,0.0949,,1112.5897,1112.59,0,1,,1112.5904,1112.5905,0,0,,1,1112.5905,1112.5905,1112.5908,1114.0889,0,34,34,34,1,0.2,0.8,0.8,0.2,1,0,,,,,,,,,,,,,,,,,,,,,,,,,,,,,,,,,,,,
,,661564c766603e80ca4c3184,66db11f1434787354bb66570,2024-09-06_16h36.29.873,mdp,2024.2.1,Win32,60.60606061,66d7945b1baad48e845df3ce,,,,,,,,,,,,,,,,,,,,,1114.0892,1114.0892,1114.0898,1114.7058,0,1,left,0.0905,,1114.7065,1114.7068,0,1,,1114.7072,1114.7074,0,1,,0,1114.7074,1114.7074,1114.7076,1116.2058,0,35,35,35,1,0.2,0.8,0.8,0.2,1,0,,,,,,,,,,,,,,,,,,,,,,,,,,,,,,,,,,,,
,,661564c766603e80ca4c3184,66db11f1434787354bb66570,2024-09-06_16h36.29.873,mdp,2024.2.1,Win32,60.60606061,66d7945b1baad48e845df3ce,,,,,,,,,,,,,,,,,,,,,1116.2062,1116.2062,1116.2069,1116.7392,1,0,right,0.0052,,1116.7403,1116.7407,0,0,,1116.7413,1116.7416,0,1,,1,1116.7416,1116.7416,1116.7419,1118.239,0,36,36,36,1,0.8,0.2,0.6,0.4,1,0,,,,,,,,,,,,,,,,,,,,,,,,,,,,,,,,,,,,
,,661564c766603e80ca4c3184,66db11f1434787354bb66570,2024-09-06_16h36.29.873,mdp,2024.2.1,Win32,60.60606061,66d7945b1baad48e845df3ce,,,,,,,,,,,,,,,,,,,,,1118.2393,1118.2394,1118.24,1118.8058,0,0,left,0.0434,,1118.8065,1118.8071,0,0,,1118.8076,1118.8081,0,0,,1,1118.8081,1118.8081,1118.8085,1120.3057,0,37,37,37,1,0.8,0.2,0.6,0.4,1,0,,,,,,,,,,,,,,,,,,,,,,,,,,,,,,,,,,,,
,,661564c766603e80ca4c3184,66db11f1434787354bb66570,2024-09-06_16h36.29.873,mdp,2024.2.1,Win32,60.60606061,66d7945b1baad48e845df3ce,,,,,,,,,,,,,,,,,,,,,1120.306,1120.306,1120.3065,1120.856,0,0,left,0.021,,1120.8568,1120.8571,0,0,,1120.8575,1120.8578,0,1,,1,1120.8578,1120.8578,1120.8582,1122.3558,0,38,38,38,1,0.8,0.2,0.6,0.4,1,0,,,,,,,,,,,,,,,,,,,,,,,,,,,,,,,,,,,,
,,661564c766603e80ca4c3184,66db11f1434787354bb66570,2024-09-06_16h36.29.873,mdp,2024.2.1,Win32,60.60606061,66d7945b1baad48e845df3ce,,,,,,,,,,,,,,,,,,,,,1122.3561,1122.3561,1122.3566,1122.8894,0,0,left,0.0066,,1122.8905,1122.8911,0,0,,1122.8918,1122.8922,0,0,,1,1122.8922,1122.8922,1122.8927,1124.3894,0,39,39,39,1,0.8,0.2,0.6,0.4,1,0,,,,,,,,,,,,,,,,,,,,,,,,,,,,,,,,,,,,
,,661564c766603e80ca4c3184,66db11f1434787354bb66570,2024-09-06_16h36.29.873,mdp,2024.2.1,Win32,60.60606061,66d7945b1baad48e845df3ce,,,,,,,,,,,,,,,,,,,,,1124.3897,1124.3897,1124.3905,1125.056,1,0,right,0.1346,,1125.0567,1125.0572,0,1,,1125.0585,1125.0588,0,0,,1,1125.0588,1125.0588,1125.0591,1126.5559,0,40,40,40,1,0.8,0.2,0.6,0.4,1,0,,,,,,,,,,,,,,,,,,,,,,,,,,,,,,,,,,,,
,,661564c766603e80ca4c3184,66db11f1434787354bb66570,2024-09-06_16h36.29.873,mdp,2024.2.1,Win32,60.60606061,66d7945b1baad48e845df3ce,,,,,,,,,,,,,,,,,,,,,1126.5561,1126.5561,1126.5566,1127.0896,0,1,left,0.0304,,1127.0903,1127.0906,0,0,,1127.091,1127.0911,0,0,,0,1127.0911,1127.0911,1127.0914,1128.5894,0,41,41,41,1,0.8,0.2,0.6,0.4,1,0,,,,,,,,,,,,,,,,,,,,,,,,,,,,,,,,,,,,
,,661564c766603e80ca4c3184,66db11f1434787354bb66570,2024-09-06_16h36.29.873,mdp,2024.2.1,Win32,60.60606061,66d7945b1baad48e845df3ce,,,,,,,,,,,,,,,,,,,,,1128.5898,1128.5898,1128.5907,1129.2896,0,0,left,0.1673,,1129.2902,1129.2905,0,0,,1129.2908,1129.291,0,0,,1,1129.291,1129.291,1129.2913,1130.7896,0,42,42,42,1,0.8,0.2,0.6,0.4,1,0,,,,,,,,,,,,,,,,,,,,,,,,,,,,,,,,,,,,
