init_exp.started,init_exp.stopped,participant,session,date,expName,psychopyVersion,OS,frameRate,study_id,disp_instruction.started,disp_instruction.stopped,instruction.thisRepN,instruction.thisTrialN,instruction.thisN,instruction.thisIndex,instruction.ran,instimg_path,consent.started,consent.stopped,key_resp_3.keys,key_resp_3.rt,key_resp_3.duration,n_steps,sequence_path,init_block.started,init_block.stopped,key_resp.keys,key_resp.rt,key_resp.duration,init_trials.started,init_trials.stopped,step0.started,step0.stopped,act0,s1,res0.keys,res0.rt,res0.duration,step1.started,step1.stopped,act1,s2,res1.keys,step2.started,step2.stopped,act2,s3,res2.keys,rew,reward_comp.started,reward_comp.stopped,reward_disp.started,reward_disp.stopped,trials.thisRepN,trials.thisTrialN,trials.thisN,trials.thisIndex,trials.ran,s00a0s10,s00a0s11,s00a1s10,s00a1s11,rew10,rew11,break_block.started,break_block.stopped,block.thisRepN,block.thisTrialN,block.thisN,block.thisIndex,block.ran,s00path,s10path,s11path,s20path,s21path,res1.rt,res1.duration,s10a0s20,s10a0s21,s10a1s20,s10a1s21,s11a0s20,s11a0s21,s11a1s20,s11a1s21,rew20,rew21,res2.rt,res2.duration,s20a0s30,s20a0s31,s20a1s30,s20a1s31,s21a0s30,s21a0s31,s21a1s30,s21a1s31,rew30,rew31
0.0011,0.0034,66301c9c390de66737e2ae4c,66fc99e54ca15917b8ae9c8b,2024-10-01_20h57.57.012,mdp,2024.2.1,Linux x86_64,60.24096386,66fa4ebf79326e780c390304,,,,,,,,,,,,,,,,,,,,,,,,,,,,,,,,,,,,,,,,,,,,,,,,,,,,,,,,,,,,,,,,,,,,,,,,,,,,,,,,,,,,,,,,,,,
,,66301c9c390de66737e2ae4c,66fc99e54ca15917b8ae9c8b,2024-10-01_20h57.57.012,mdp,2024.2.1,Linux x86_64,60.24096386,66fa4ebf79326e780c390304,0.0098,47.0899,0,0,0,0,1,rlnn_exp/rlnn_exp.001.png,,,,,,,,,,,,,,,,,,,,,,,,,,,,,,,,,,,,,,,,,,,,,,,,,,,,,,,,,,,,,,,,,,,,,,,,,,,,,,,,,,,
,,66301c9c390de66737e2ae4c,66fc99e54ca15917b8ae9c8b,2024-10-01_20h57.57.012,mdp,2024.2.1,Linux x86_64,60.24096386,66fa4ebf79326e780c390304,47.0911,58.1969,0,1,1,1,1,rlnn_exp/rlnn_exp.002.png,,,,,,,,,,,,,,,,,,,,,,,,,,,,,,,,,,,,,,,,,,,,,,,,,,,,,,,,,,,,,,,,,,,,,,,,,,,,,,,,,,,
,,66301c9c390de66737e2ae4c,66fc99e54ca15917b8ae9c8b,2024-10-01_20h57.57.012,mdp,2024.2.1,Linux x86_64,60.24096386,66fa4ebf79326e780c390304,58.1976,76.9295,0,2,2,2,1,rlnn_exp/rlnn_exp.003.png,,,,,,,,,,,,,,,,,,,,,,,,,,,,,,,,,,,,,,,,,,,,,,,,,,,,,,,,,,,,,,,,,,,,,,,,,,,,,,,,,,,
,,66301c9c390de66737e2ae4c,66fc99e54ca15917b8ae9c8b,2024-10-01_20h57.57.012,mdp,2024.2.1,Linux x86_64,60.24096386,66fa4ebf79326e780c390304,76.942,88.2126,0,3,3,3,1,rlnn_exp/rlnn_exp.004.png,,,,,,,,,,,,,,,,,,,,,,,,,,,,,,,,,,,,,,,,,,,,,,,,,,,,,,,,,,,,,,,,,,,,,,,,,,,,,,,,,,,
,,66301c9c390de66737e2ae4c,66fc99e54ca15917b8ae9c8b,2024-10-01_20h57.57.012,mdp,2024.2.1,Linux x86_64,60.24096386,66fa4ebf79326e780c390304,,,,,,,,,88.2239,116.2946,y,15.9744,,,,,,,,,,,,,,,,,,,,,,,,,,,,,,,,,,,,,,,,,,,,,,,,,,,,,,,,,,,,,,,,,,,,,,,,,,,,,,,
,,66301c9c390de66737e2ae4c,66fc99e54ca15917b8ae9c8b,2024-10-01_20h57.57.012,mdp,2024.2.1,Linux x86_64,60.24096386,66fa4ebf79326e780c390304,,,,,,,,,,,,,,1,seqs/st1seq12.csv,116.3133,117.762,space,0.9232,,117.7735,117.7737,117.7744,120.3618,0,0,left,2.0538,,120.3729,120.3757,,1,,120.3767,120.3786,,1,,1,120.3788,120.379,120.3794,121.8776,0,0,0,0,1,0.8,0.2,0.6,0.4,1,0,,,,,,,,,,,,,,,,,,,,,,,,,,,,,,,,,,,,
,,66301c9c390de66737e2ae4c,66fc99e54ca15917b8ae9c8b,2024-10-01_20h57.57.012,mdp,2024.2.1,Linux x86_64,60.24096386,66fa4ebf79326e780c390304,,,,,,,,,,,,,,,,,,,,,121.8781,121.8781,121.8796,123.7968,0,0,left,1.3729,,123.7986,123.8,,0,,123.8014,123.8026,,0,,1,123.8027,123.8027,123.8038,125.294,0,1,1,1,1,0.8,0.2,0.6,0.4,1,0,,,,,,,,,,,,,,,,,,,,,,,,,,,,,,,,,,,,
,,66301c9c390de66737e2ae4c,66fc99e54ca15917b8ae9c8b,2024-10-01_20h57.57.012,mdp,2024.2.1,Linux x86_64,60.24096386,66fa4ebf79326e780c390304,,,,,,,,,,,,,,,,,,,,,125.2943,125.2944,125.2959,126.5607,0,1,left,0.7262,,126.5643,126.5672,,0,,126.5692,126.5704,,1,,0,126.5706,126.5707,126.5717,128.0601,0,2,2,2,1,0.8,0.2,0.6,0.4,1,0,,,,,,,,,,,,,,,,,,,,,,,,,,,,,,,,,,,,
,,66301c9c390de66737e2ae4c,66fc99e54ca15917b8ae9c8b,2024-10-01_20h57.57.012,mdp,2024.2.1,Linux x86_64,60.24096386,66fa4ebf79326e780c390304,,,,,,,,,,,,,,,,,,,,,128.0606,128.0606,128.0622,129.2108,0,0,left,0.6186,,129.2123,129.2135,,0,,129.2147,129.2157,,0,,1,129.2158,129.2158,129.2167,130.7106,0,3,3,3,1,0.8,0.2,0.6,0.4,1,0,,,,,,,,,,,,,,,,,,,,,,,,,,,,,,,,,,,,
,,66301c9c390de66737e2ae4c,66fc99e54ca15917b8ae9c8b,2024-10-01_20h57.57.012,mdp,2024.2.1,Linux x86_64,60.24096386,66fa4ebf79326e780c390304,,,,,,,,,,,,,,,,,,,,,130.711,130.7111,130.7131,132.0433,1,1,right,0.8022,,132.045,132.0461,,0,,132.0472,132.0481,,0,,0,132.0482,132.0482,132.049,133.5443,0,4,4,4,1,0.8,0.2,0.6,0.4,1,0,,,,,,,,,,,,,,,,,,,,,,,,,,,,,,,,,,,,
,,66301c9c390de66737e2ae4c,66fc99e54ca15917b8ae9c8b,2024-10-01_20h57.57.012,mdp,2024.2.1,Linux x86_64,60.24096386,66fa4ebf79326e780c390304,,,,,,,,,,,,,,,,,,,,,133.5451,133.5451,133.5479,134.9433,0,0,left,0.874,,134.9448,134.9462,,1,,134.9472,134.9485,,0,,1,134.9486,134.9486,134.9495,136.4434,0,5,5,5,1,0.8,0.2,0.6,0.4,1,0,,,,,,,,,,,,,,,,,,,,,,,,,,,,,,,,,,,,
,,66301c9c390de66737e2ae4c,66fc99e54ca15917b8ae9c8b,2024-10-01_20h57.57.012,mdp,2024.2.1,Linux x86_64,60.24096386,66fa4ebf79326e780c390304,,,,,,,,,,,,,,,,,,,,,136.4438,136.4439,136.4454,137.6769,0,0,left,0.7173,,137.6835,137.6856,,0,,137.6871,137.6884,,0,,1,137.6885,137.6885,137.6898,139.1777,0,6,6,6,1,0.8,0.2,0.6,0.4,1,0,,,,,,,,,,,,,,,,,,,,,,,,,,,,,,,,,,,,
,,66301c9c390de66737e2ae4c,66fc99e54ca15917b8ae9c8b,2024-10-01_20h57.57.012,mdp,2024.2.1,Linux x86_64,60.24096386,66fa4ebf79326e780c390304,,,,,,,,,,,,,,,,,,,,,139.1781,139.1781,139.1797,140.2932,0,0,left,0.5849,,140.2948,140.2961,,0,,140.2972,140.2981,,0,,1,140.2981,140.2982,140.299,141.7931,0,7,7,7,1,0.8,0.2,0.6,0.4,1,0,,,,,,,,,,,,,,,,,,,,,,,,,,,,,,,,,,,,
,,66301c9c390de66737e2ae4c,66fc99e54ca15917b8ae9c8b,2024-10-01_20h57.57.012,mdp,2024.2.1,Linux x86_64,60.24096386,66fa4ebf79326e780c390304,,,,,,,,,,,,,,,,,,,,,141.7937,141.7939,141.7955,143.2281,1,0,right,0.9068,,143.2309,143.2329,,0,,143.2348,143.2366,,0,,1,143.2367,143.2368,143.2387,144.7262,0,8,8,8,1,0.8,0.2,0.6,0.4,1,0,,,,,,,,,,,,,,,,,,,,,,,,,,,,,,,,,,,,
,,66301c9c390de66737e2ae4c,66fc99e54ca15917b8ae9c8b,2024-10-01_20h57.57.012,mdp,2024.2.1,Linux x86_64,60.24096386,66fa4ebf79326e780c390304,,,,,,,,,,,,,,,,,,,,,144.7266,144.7267,144.728,145.7599,0,0,left,0.5198,,145.7614,145.7625,,0,,145.764,145.7653,,0,,1,145.7654,145.7654,145.7665,147.2595,0,9,9,9,1,0.6,0.4,0.4,0.6,1,0,,,,,,,,,,,,,,,,,,,,,,,,,,,,,,,,,,,,
,,66301c9c390de66737e2ae4c,66fc99e54ca15917b8ae9c8b,2024-10-01_20h57.57.012,mdp,2024.2.1,Linux x86_64,60.24096386,66fa4ebf79326e780c390304,,,,,,,,,,,,,,,,,,,,,147.2599,147.2599,147.2612,148.2925,0,0,left,0.4986,,148.294,148.2951,,0,,148.2963,148.2973,,0,,1,148.2973,148.2973,148.2981,149.7931,0,10,10,10,1,0.6,0.4,0.4,0.6,1,0,,,,,,,,,,,,,,,,,,,,,,,,,,,,,,,,,,,,
,,66301c9c390de66737e2ae4c,66fc99e54ca15917b8ae9c8b,2024-10-01_20h57.57.012,mdp,2024.2.1,Linux x86_64,60.24096386,66fa4ebf79326e780c390304,,,,,,,,,,,,,,,,,,,,,149.7937,149.7937,149.7952,150.7427,0,0,left,0.4193,,150.7449,150.7463,,1,,150.7478,150.749,,0,,1,150.7491,150.7491,150.75,152.2437,0,11,11,11,1,0.6,0.4,0.4,0.6,1,0,,,,,,,,,,,,,,,,,,,,,,,,,,,,,,,,,,,,
,,66301c9c390de66737e2ae4c,66fc99e54ca15917b8ae9c8b,2024-10-01_20h57.57.012,mdp,2024.2.1,Linux x86_64,60.24096386,66fa4ebf79326e780c390304,,,,,,,,,,,,,,,,,,,,,152.2446,152.2447,152.2478,153.1424,1,1,right,0.3688,,153.1441,153.1453,,0,,153.1463,153.1472,,1,,0,153.1472,153.1472,153.1482,154.6429,0,12,12,12,1,0.6,0.4,0.4,0.6,1,0,,,,,,,,,,,,,,,,,,,,,,,,,,,,,,,,,,,,
,,66301c9c390de66737e2ae4c,66fc99e54ca15917b8ae9c8b,2024-10-01_20h57.57.012,mdp,2024.2.1,Linux x86_64,60.24096386,66fa4ebf79326e780c390304,,,,,,,,,,,,,,,,,,,,,154.6434,154.6434,154.6452,155.4765,0,0,left,0.3,,155.4793,155.481,,1,,155.4825,155.4841,,1,,1,155.4841,155.4841,155.4857,156.9764,0,13,13,13,1,0.6,0.4,0.4,0.6,1,0,,,,,,,,,,,,,,,,,,,,,,,,,,,,,,,,,,,,
,,66301c9c390de66737e2ae4c,66fc99e54ca15917b8ae9c8b,2024-10-01_20h57.57.012,mdp,2024.2.1,Linux x86_64,60.24096386,66fa4ebf79326e780c390304,,,,,,,,,,,,,,,,,,,,,156.9768,156.9768,156.9784,157.9604,0,0,left,0.4541,,157.9618,157.963,,1,,157.9642,157.9651,,0,,1,157.9651,157.9651,157.9658,159.4602,0,14,14,14,1,0.6,0.4,0.4,0.6,1,0,,,,,,,,,,,,,,,,,,,,,,,,,,,,,,,,,,,,
,,66301c9c390de66737e2ae4c,66fc99e54ca15917b8ae9c8b,2024-10-01_20h57.57.012,mdp,2024.2.1,Linux x86_64,60.24096386,66fa4ebf79326e780c390304,,,,,,,,,,,,,,,,,,,,,159.4612,159.4612,159.4645,160.5256,0,0,left,0.5288,,160.5307,160.5322,,0,,160.5334,160.5348,,1,,1,160.5349,160.5349,160.5359,162.0256,0,15,15,15,1,0.6,0.4,0.4,0.6,1,0,,,,,,,,,,,,,,,,,,,,,,,,,,,,,,,,,,,,
,,66301c9c390de66737e2ae4c,66fc99e54ca15917b8ae9c8b,2024-10-01_20h57.57.012,mdp,2024.2.1,Linux x86_64,60.24096386,66fa4ebf79326e780c390304,,,,,,,,,,,,,,,,,,,,,162.0261,162.0261,162.0287,163.3426,1,0,right,0.8074,,163.3472,163.3484,,0,,163.3495,163.3504,,1,,1,163.3504,163.3504,163.3515,164.8424,0,16,16,16,1,0.8,0.2,0.8,0.2,1,0,,,,,,,,,,,,,,,,,,,,,,,,,,,,,,,,,,,,
,,66301c9c390de66737e2ae4c,66fc99e54ca15917b8ae9c8b,2024-10-01_20h57.57.012,mdp,2024.2.1,Linux x86_64,60.24096386,66fa4ebf79326e780c390304,,,,,,,,,,,,,,,,,,,,,164.8431,164.8431,164.8457,166.0593,0,1,left,0.6924,,166.0619,166.063,,0,,166.064,166.0648,,0,,0,166.0649,166.0649,166.066,167.559,0,17,17,17,1,0.8,0.2,0.8,0.2,1,0,,,,,,,,,,,,,,,,,,,,,,,,,,,,,,,,,,,,
,,66301c9c390de66737e2ae4c,66fc99e54ca15917b8ae9c8b,2024-10-01_20h57.57.012,mdp,2024.2.1,Linux x86_64,60.24096386,66fa4ebf79326e780c390304,,,,,,,,,,,,,,,,,,,,,167.5597,167.5598,167.5625,168.4589,0,0,left,0.369,,168.4609,168.4627,,0,,168.4637,168.4647,,1,,1,168.4647,168.4647,168.4712,169.9583,0,18,18,18,1,0.8,0.2,0.8,0.2,1,0,,,,,,,,,,,,,,,,,,,,,,,,,,,,,,,,,,,,
,,66301c9c390de66737e2ae4c,66fc99e54ca15917b8ae9c8b,2024-10-01_20h57.57.012,mdp,2024.2.1,Linux x86_64,60.24096386,66fa4ebf79326e780c390304,,,,,,,,,,,,,,,,,,,,,169.9589,169.9589,169.9603,171.1322,0,0,left,0.6436,,171.1343,171.1356,,0,,171.1372,171.1389,,0,,1,171.139,171.139,171.1408,172.6416,0,19,19,19,1,0.8,0.2,0.8,0.2,1,0,,,,,,,,,,,,,,,,,,,,,,,,,,,,,,,,,,,,
,,66301c9c390de66737e2ae4c,66fc99e54ca15917b8ae9c8b,2024-10-01_20h57.57.012,mdp,2024.2.1,Linux x86_64,60.24096386,66fa4ebf79326e780c390304,,,,,,,,,,,,,,,,,,,,,172.6422,172.6422,172.6435,173.861,1,1,right,0.7022,,173.8627,173.8649,,1,,173.8663,173.868,,0,,0,173.868,173.868,173.8709,175.3612,0,20,20,20,1,0.4,0.6,0.6,0.4,1,0,,,,,,,,,,,,,,,,,,,,,,,,,,,,,,,,,,,,
,,66301c9c390de66737e2ae4c,66fc99e54ca15917b8ae9c8b,2024-10-01_20h57.57.012,mdp,2024.2.1,Linux x86_64,60.24096386,66fa4ebf79326e780c390304,,,,,,,,,,,,,,,,,,,,,175.3622,175.3622,175.3638,176.2845,0,0,left,0.4132,,176.2925,176.2938,,1,,176.3042,176.3055,,0,,1,176.3057,176.3057,176.3075,177.8103,0,21,21,21,1,0.4,0.6,0.6,0.4,1,0,,,,,,,,,,,,,,,,,,,,,,,,,,,,,,,,,,,,
,,66301c9c390de66737e2ae4c,66fc99e54ca15917b8ae9c8b,2024-10-01_20h57.57.012,mdp,2024.2.1,Linux x86_64,60.24096386,66fa4ebf79326e780c390304,,,,,,,,,,,,,,,,,,,,,177.811,177.811,177.8127,178.7424,0,1,left,0.4235,,178.7447,178.7472,,0,,178.7485,178.7495,,1,,0,178.7496,178.7496,178.7534,180.2443,0,22,22,22,1,0.6,0.4,0.4,0.6,1,0,,,,,,,,,,,,,,,,,,,,,,,,,,,,,,,,,,,,
,,66301c9c390de66737e2ae4c,66fc99e54ca15917b8ae9c8b,2024-10-01_20h57.57.012,mdp,2024.2.1,Linux x86_64,60.24096386,66fa4ebf79326e780c390304,,,,,,,,,,,,,,,,,,,,,180.2448,180.2448,180.2461,181.3255,0,1,left,0.5513,,181.3269,181.328,,1,,181.3291,181.33,,1,,0,181.3301,181.3301,181.3308,182.8252,0,23,23,23,1,0.6,0.4,0.4,0.6,1,0,,,,,,,,,,,,,,,,,,,,,,,,,,,,,,,,,,,,
,,66301c9c390de66737e2ae4c,66fc99e54ca15917b8ae9c8b,2024-10-01_20h57.57.012,mdp,2024.2.1,Linux x86_64,60.24096386,66fa4ebf79326e780c390304,,,,,,,,,,,,,,,,,,,,,182.8256,182.8256,182.8269,183.7743,0,0,left,0.4145,,183.7757,183.7775,,1,,183.7788,183.7798,,1,,1,183.7798,183.7798,183.7808,185.2743,0,24,24,24,1,0.6,0.4,0.4,0.6,1,0,,,,,,,,,,,,,,,,,,,,,,,,,,,,,,,,,,,,
,,66301c9c390de66737e2ae4c,66fc99e54ca15917b8ae9c8b,2024-10-01_20h57.57.012,mdp,2024.2.1,Linux x86_64,60.24096386,66fa4ebf79326e780c390304,,,,,,,,,,,,,,,,,,,,,185.2748,185.2748,185.2761,186.6244,0,1,left,0.8193,,186.6269,186.6287,,1,,186.6305,186.6323,,0,,0,186.6324,186.6324,186.6341,188.1245,0,25,25,25,1,0.6,0.4,0.4,0.6,1,0,,,,,,,,,,,,,,,,,,,,,,,,,,,,,,,,,,,,
,,66301c9c390de66737e2ae4c,66fc99e54ca15917b8ae9c8b,2024-10-01_20h57.57.012,mdp,2024.2.1,Linux x86_64,60.24096386,66fa4ebf79326e780c390304,,,,,,,,,,,,,,,,,,,,,188.1252,188.1252,188.128,189.2242,0,0,left,0.568,,189.2267,189.2295,,1,,189.2312,189.2328,,0,,1,189.233,189.233,189.2345,190.724,0,26,26,26,1,0.6,0.4,0.4,0.6,1,0,,,,,,,,,,,,,,,,,,,,,,,,,,,,,,,,,,,,
,,66301c9c390de66737e2ae4c,66fc99e54ca15917b8ae9c8b,2024-10-01_20h57.57.012,mdp,2024.2.1,Linux x86_64,60.24096386,66fa4ebf79326e780c390304,,,,,,,,,,,,,,,,,,,,,190.7245,190.7245,190.7258,191.5417,1,0,right,0.2895,,191.5436,191.5447,,1,,191.5459,191.5468,,1,,1,191.5469,191.5469,191.5478,193.0408,0,27,27,27,1,0.6,0.4,0.4,0.6,1,0,,,,,,,,,,,,,,,,,,,,,,,,,,,,,,,,,,,,
,,66301c9c390de66737e2ae4c,66fc99e54ca15917b8ae9c8b,2024-10-01_20h57.57.012,mdp,2024.2.1,Linux x86_64,60.24096386,66fa4ebf79326e780c390304,,,,,,,,,,,,,,,,,,,,,193.0412,193.0412,193.0426,193.924,0,0,left,0.3499,,193.9254,193.9269,,0,,193.9281,193.929,,0,,1,193.929,193.929,193.9298,195.4248,0,28,28,28,1,0.6,0.4,0.4,0.6,1,0,,,,,,,,,,,,,,,,,,,,,,,,,,,,,,,,,,,,
,,66301c9c390de66737e2ae4c,66fc99e54ca15917b8ae9c8b,2024-10-01_20h57.57.012,mdp,2024.2.1,Linux x86_64,60.24096386,66fa4ebf79326e780c390304,,,,,,,,,,,,,,,,,,,,,195.4253,195.4253,195.4265,196.3071,0,1,left,0.3488,,196.3085,196.3096,,0,,196.3108,196.3116,,0,,0,196.3117,196.3117,196.3124,197.8077,0,29,29,29,1,0.8,0.2,0.6,0.4,1,0,,,,,,,,,,,,,,,,,,,,,,,,,,,,,,,,,,,,
,,66301c9c390de66737e2ae4c,66fc99e54ca15917b8ae9c8b,2024-10-01_20h57.57.012,mdp,2024.2.1,Linux x86_64,60.24096386,66fa4ebf79326e780c390304,,,,,,,,,,,,,,,,,,,,,197.8082,197.8082,197.8096,198.6589,1,0,right,0.3205,,198.661,198.6626,,0,,198.6639,198.6651,,0,,1,198.6654,198.6654,198.6666,200.1591,0,30,30,30,1,0.8,0.2,0.6,0.4,1,0,,,,,,,,,,,,,,,,,,,,,,,,,,,,,,,,,,,,
,,66301c9c390de66737e2ae4c,66fc99e54ca15917b8ae9c8b,2024-10-01_20h57.57.012,mdp,2024.2.1,Linux x86_64,60.24096386,66fa4ebf79326e780c390304,,,,,,,,,,,,,,,,,,,,,200.1596,200.1596,200.1609,200.9744,0,0,left,0.2902,,200.9763,200.9791,,0,,200.9821,200.9833,,0,,1,200.9833,200.9833,200.9843,202.4738,0,31,31,31,1,0.8,0.2,0.6,0.4,1,0,,,,,,,,,,,,,,,,,,,,,,,,,,,,,,,,,,,,
,,66301c9c390de66737e2ae4c,66fc99e54ca15917b8ae9c8b,2024-10-01_20h57.57.012,mdp,2024.2.1,Linux x86_64,60.24096386,66fa4ebf79326e780c390304,,,,,,,,,,,,,,,,,,,,,202.4743,202.4743,202.4758,203.4413,1,1,right,0.4362,,203.4426,203.4437,,0,,203.4448,203.4457,,1,,0,203.4458,203.4458,203.4465,204.9402,0,32,32,32,1,0.8,0.2,0.6,0.4,1,0,,,,,,,,,,,,,,,,,,,,,,,,,,,,,,,,,,,,
,,66301c9c390de66737e2ae4c,66fc99e54ca15917b8ae9c8b,2024-10-01_20h57.57.012,mdp,2024.2.1,Linux x86_64,60.24096386,66fa4ebf79326e780c390304,,,,,,,,,,,,,,,,,,,,,204.9406,204.9406,204.942,205.8068,0,0,left,0.3351,,205.8082,205.8101,,0,,205.8111,205.8121,,0,,1,205.8122,205.8122,205.813,207.3076,0,33,33,33,1,0.6,0.4,0.2,0.8,1,0,,,,,,,,,,,,,,,,,,,,,,,,,,,,,,,,,,,,
,,66301c9c390de66737e2ae4c,66fc99e54ca15917b8ae9c8b,2024-10-01_20h57.57.012,mdp,2024.2.1,Linux x86_64,60.24096386,66fa4ebf79326e780c390304,,,,,,,,,,,,,,,,,,,,,207.308,207.308,207.3092,208.1405,0,1,left,0.3082,,208.1422,208.1433,,0,,208.1445,208.1455,,1,,0,208.1455,208.1455,208.1465,209.6397,0,34,34,34,1,0.6,0.4,0.2,0.8,1,0,,,,,,,,,,,,,,,,,,,,,,,,,,,,,,,,,,,,
,,66301c9c390de66737e2ae4c,66fc99e54ca15917b8ae9c8b,2024-10-01_20h57.57.012,mdp,2024.2.1,Linux x86_64,60.24096386,66fa4ebf79326e780c390304,,,,,,,,,,,,,,,,,,,,,209.6401,209.6401,209.6415,210.2572,0,0,left,0.0861,,210.259,210.2601,,0,,210.2611,210.2619,,0,,1,210.262,210.262,210.2627,211.7563,0,35,35,35,1,0.6,0.4,0.2,0.8,1,0,,,,,,,,,,,,,,,,,,,,,,,,,,,,,,,,,,,,
,,66301c9c390de66737e2ae4c,66fc99e54ca15917b8ae9c8b,2024-10-01_20h57.57.012,mdp,2024.2.1,Linux x86_64,60.24096386,66fa4ebf79326e780c390304,,,,,,,,,,,,,,,,,,,,,211.7567,211.7567,211.758,212.5568,1,1,right,0.291,,212.559,212.5607,,1,,212.5623,212.5636,,0,,0,212.5638,212.5638,212.5649,214.0568,0,36,36,36,1,0.6,0.4,0.2,0.8,1,0,,,,,,,,,,,,,,,,,,,,,,,,,,,,,,,,,,,,
,,66301c9c390de66737e2ae4c,66fc99e54ca15917b8ae9c8b,2024-10-01_20h57.57.012,mdp,2024.2.1,Linux x86_64,60.24096386,66fa4ebf79326e780c390304,,,,,,,,,,,,,,,,,,,,,214.0573,214.0573,214.0586,214.8898,0,0,left,0.2977,,214.8912,214.8923,,1,,214.8933,214.8946,,0,,1,214.8947,214.8947,214.8955,216.3896,0,37,37,37,1,0.6,0.4,0.2,0.8,1,0,,,,,,,,,,,,,,,,,,,,,,,,,,,,,,,,,,,,
,,66301c9c390de66737e2ae4c,66fc99e54ca15917b8ae9c8b,2024-10-01_20h57.57.012,mdp,2024.2.1,Linux x86_64,60.24096386,66fa4ebf79326e780c390304,,,,,,,,,,,,,,,,,,,,,216.39,216.39,216.3914,217.3067,0,0,left,0.3843,,217.3101,217.312,,1,,217.3137,217.3152,,0,,1,217.3152,217.3152,217.3166,218.8062,0,38,38,38,1,0.6,0.4,0.2,0.8,1,0,,,,,,,,,,,,,,,,,,,,,,,,,,,,,,,,,,,,
,,66301c9c390de66737e2ae4c,66fc99e54ca15917b8ae9c8b,2024-10-01_20h57.57.012,mdp,2024.2.1,Linux x86_64,60.24096386,66fa4ebf79326e780c390304,,,,,,,,,,,,,,,,,,,,,218.8067,218.8067,218.808,219.7393,0,1,left,0.3998,,219.7407,219.7417,,0,,219.743,219.7439,,1,,0,219.7441,219.7441,219.745,221.2396,0,39,39,39,1,0.6,0.4,0.2,0.8,1,0,,,,,,,,,,,,,,,,,,,,,,,,,,,,,,,,,,,,
,,66301c9c390de66737e2ae4c,66fc99e54ca15917b8ae9c8b,2024-10-01_20h57.57.012,mdp,2024.2.1,Linux x86_64,60.24096386,66fa4ebf79326e780c390304,,,,,,,,,,,,,,,,,,,,,221.2434,221.2435,221.2479,222.0399,1,1,right,0.2688,,222.0422,222.0438,,1,,222.0453,222.0466,,1,,0,222.0467,222.0467,222.0478,223.5399,0,40,40,40,1,0.6,0.4,0.2,0.8,1,0,,,,,,,,,,,,,,,,,,,,,,,,,,,,,,,,,,,,
,,66301c9c390de66737e2ae4c,66fc99e54ca15917b8ae9c8b,2024-10-01_20h57.57.012,mdp,2024.2.1,Linux x86_64,60.24096386,66fa4ebf79326e780c390304,,,,,,,,,,,,,,,,,,,,,223.541,223.541,223.5441,224.4895,0,0,left,0.4178,,224.4909,224.4921,,1,,224.4933,224.4942,,1,,1,224.4943,224.4943,224.4952,225.9902,0,41,41,41,1,0.6,0.4,0.2,0.8,1,0,,,,,,,,,,,,,,,,,,,,,,,,,,,,,,,,,,,,
,,66301c9c390de66737e2ae4c,66fc99e54ca15917b8ae9c8b,2024-10-01_20h57.57.012,mdp,2024.2.1,Linux x86_64,60.24096386,66fa4ebf79326e780c390304,,,,,,,,,,,,,,,,,,,,,225.991,225.9911,225.9942,226.8233,0,1,left,0.3001,,226.8253,226.8281,,1,,226.83,226.8315,,0,,0,226.8316,226.8316,226.8327,228.3222,0,42,42,42,1,0.6,0.4,0.2,0.8,1,0,,,,,,,,,,,,,,,,,,,,,,,,,,,,,,,,,,,,
,,66301c9c390de66737e2ae4c,66fc99e54ca15917b8ae9c8b,2024-10-01_20h57.57.012,mdp,2024.2.1,Linux x86_64,60.24096386,66fa4ebf79326e780c390304,,,,,,,,,,,,,,,,,,,,,228.3228,228.3228,228.3243,229.1393,0,0,left,0.2887,,229.1409,229.1419,,0,,229.1429,229.1437,,1,,1,229.1437,229.1437,229.1445,230.6389,0,43,43,43,1,0.6,0.4,0.2,0.8,1,0,,,,,,,,,,,,,,,,,,,,,,,,,,,,,,,,,,,,
,,66301c9c390de66737e2ae4c,66fc99e54ca15917b8ae9c8b,2024-10-01_20h57.57.012,mdp,2024.2.1,Linux x86_64,60.24096386,66fa4ebf79326e780c390304,,,,,,,,,,,,,,,,,,,,,230.6392,230.6393,230.6407,231.4389,1,1,right,0.2803,,231.4403,231.4419,,0,,231.4429,231.4439,,1,,0,231.444,231.444,231.4448,232.939,0,44,44,44,1,0.6,0.4,0.2,0.8,1,0,,,,,,,,,,,,,,,,,,,,,,,,,,,,,,,,,,,,
,,66301c9c390de66737e2ae4c,66fc99e54ca15917b8ae9c8b,2024-10-01_20h57.57.012,mdp,2024.2.1,Linux x86_64,60.24096386,66fa4ebf79326e780c390304,,,,,,,,,,,,,,,,,,,,,232.9401,232.9401,232.9433,233.7724,0,0,left,0.3031,,233.7739,233.7749,,1,,233.776,233.7769,,0,,1,233.7771,233.7771,233.7778,235.2726,0,45,45,45,1,0.6,0.4,0.2,0.8,1,0,,,,,,,,,,,,,,,,,,,,,,,,,,,,,,,,,,,,
,,66301c9c390de66737e2ae4c,66fc99e54ca15917b8ae9c8b,2024-10-01_20h57.57.012,mdp,2024.2.1,Linux x86_64,60.24096386,66fa4ebf79326e780c390304,,,,,,,,,,,,,,,,,,,,,235.274,235.2741,235.2761,236.289,0,0,left,0.4878,,236.2906,236.2916,,0,,236.2926,236.2934,,0,,1,236.2935,236.2935,236.2943,237.7886,0,46,46,46,1,0.8,0.2,0.6,0.4,1,0,,,,,,,,,,,,,,,,,,,,,,,,,,,,,,,,,,,,
,,66301c9c390de66737e2ae4c,66fc99e54ca15917b8ae9c8b,2024-10-01_20h57.57.012,mdp,2024.2.1,Linux x86_64,60.24096386,66fa4ebf79326e780c390304,,,,,,,,,,,,,,,,,,,,,237.7894,237.7895,237.792,238.7557,0,0,left,0.4419,,238.758,238.7598,,1,,238.762,238.7634,,0,,1,238.7635,238.7635,238.7644,240.2559,0,47,47,47,1,0.8,0.2,0.6,0.4,1,0,,,,,,,,,,,,,,,,,,,,,,,,,,,,,,,,,,,,
,,66301c9c390de66737e2ae4c,66fc99e54ca15917b8ae9c8b,2024-10-01_20h57.57.012,mdp,2024.2.1,Linux x86_64,60.24096386,66fa4ebf79326e780c390304,,,,,,,,,,,,,,,,,,,,,240.2566,240.2566,240.2584,241.7891,0,0,left,1.0022,,241.7937,241.7956,,0,,241.7973,241.7987,,0,,1,241.7988,241.7988,241.8001,243.2891,0,48,48,48,1,0.8,0.2,0.6,0.4,1,0,,,,,,,,,,,,,,,,,,,,,,,,,,,,,,,,,,,,
,,66301c9c390de66737e2ae4c,66fc99e54ca15917b8ae9c8b,2024-10-01_20h57.57.012,mdp,2024.2.1,Linux x86_64,60.24096386,66fa4ebf79326e780c390304,,,,,,,,,,,,,,,,,,,,,243.2895,243.2895,243.2908,244.2886,0,1,left,0.4694,,244.291,244.2933,,0,,244.2953,244.297,,0,,0,244.2971,244.2971,244.2986,245.7899,0,49,49,49,1,0.8,0.2,0.6,0.4,1,0,,,,,,,,,,,,,,,,,,,,,,,,,,,,,,,,,,,,
,,66301c9c390de66737e2ae4c,66fc99e54ca15917b8ae9c8b,2024-10-01_20h57.57.012,mdp,2024.2.1,Linux x86_64,60.24096386,66fa4ebf79326e780c390304,,,,,,,,,,,,,,,,,,,,,,,,,,,,,,,,,,,,,,,,,,,,,,,,,,,,,,,,245.792,304.3029,0,0,0,3,1,imgs/cat.png,imgs/bear.png,imgs/elephant.png,imgs/kangaroo.png,imgs/squirrel.png,,,,,,,,,,,,,,,,,,,,,,,,
,,66301c9c390de66737e2ae4c,66fc99e54ca15917b8ae9c8b,2024-10-01_20h57.57.012,mdp,2024.2.1,Linux x86_64,60.24096386,66fa4ebf79326e780c390304,,,,,,,,,,,,,,2,seqs/st2seq1.csv,304.3263,305.9021,space,1.0749,,305.9252,305.9253,305.9268,307.2358,0,0,left,0.7548,,307.2373,308.519,1,1,right,308.5205,308.5216,,1,,0,308.5216,308.5216,308.5226,310.0194,0,0,0,0,1,0.6,0.4,0.4,0.6,,,,,,,,,,,,,,,0.7392,,0.6,0.4,0.2,0.8,0.8,0.2,0.8,0.2,1,0,,,,,,,,,,,,
,,66301c9c390de66737e2ae4c,66fc99e54ca15917b8ae9c8b,2024-10-01_20h57.57.012,mdp,2024.2.1,Linux x86_64,60.24096386,66fa4ebf79326e780c390304,,,,,,,,,,,,,,,,,,,,,310.02,310.02,310.0213,311.0023,0,1,left,0.4543,,311.0038,312.4859,1,0,right,312.4876,312.4886,,1,,1,312.4887,312.4888,312.4897,313.985,0,1,1,1,1,0.2,0.8,0.6,0.4,,,,,,,,,,,,,,,0.9233,,0.6,0.4,0.2,0.8,0.8,0.2,0.8,0.2,1,0,,,,,,,,,,,,
,,66301c9c390de66737e2ae4c,66fc99e54ca15917b8ae9c8b,2024-10-01_20h57.57.012,mdp,2024.2.1,Linux x86_64,60.24096386,66fa4ebf79326e780c390304,,,,,,,,,,,,,,,,,,,,,313.9853,313.9854,313.9872,315.2519,0,1,left,0.7373,,315.2534,316.5851,1,1,right,316.5868,316.5881,,0,,0,316.5882,316.5882,316.5894,318.0773,0,2,2,2,1,0.2,0.8,0.6,0.4,,,,,,,,,,,,,,,0.814,,0.6,0.4,0.2,0.8,0.8,0.2,0.8,0.2,1,0,,,,,,,,,,,,
,,66301c9c390de66737e2ae4c,66fc99e54ca15917b8ae9c8b,2024-10-01_20h57.57.012,mdp,2024.2.1,Linux x86_64,60.24096386,66fa4ebf79326e780c390304,,,,,,,,,,,,,,,,,,,,,318.0789,318.0789,318.0811,319.7189,0,1,left,1.1186,,319.7221,321.2521,1,0,right,321.2536,321.2546,,0,,1,321.2547,321.2547,321.2557,322.7514,0,3,3,3,1,0.4,0.6,0.8,0.2,,,,,,,,,,,,,,,0.999,,0.6,0.4,0.2,0.8,0.8,0.2,0.8,0.2,1,0,,,,,,,,,,,,
,,66301c9c390de66737e2ae4c,66fc99e54ca15917b8ae9c8b,2024-10-01_20h57.57.012,mdp,2024.2.1,Linux x86_64,60.24096386,66fa4ebf79326e780c390304,,,,,,,,,,,,,,,,,,,,,322.752,322.7521,322.7544,324.019,0,1,left,0.7314,,324.0204,325.5513,1,0,right,325.5526,325.5538,,0,,1,325.5539,325.5539,325.5549,327.0512,0,4,4,4,1,0.4,0.6,0.8,0.2,,,,,,,,,,,,,,,0.98,,0.6,0.4,0.2,0.8,0.8,0.2,0.8,0.2,1,0,,,,,,,,,,,,
,,66301c9c390de66737e2ae4c,66fc99e54ca15917b8ae9c8b,2024-10-01_20h57.57.012,mdp,2024.2.1,Linux x86_64,60.24096386,66fa4ebf79326e780c390304,,,,,,,,,,,,,,,,,,,,,327.0516,327.0516,327.053,328.2348,0,1,left,0.6522,,328.2362,329.4013,1,0,right,329.4045,329.4065,,0,,1,329.4067,329.4067,329.4087,330.9015,0,5,5,5,1,0.4,0.6,0.8,0.2,,,,,,,,,,,,,,,0.6343,,0.6,0.4,0.2,0.8,0.8,0.2,0.8,0.2,1,0,,,,,,,,,,,,
,,66301c9c390de66737e2ae4c,66fc99e54ca15917b8ae9c8b,2024-10-01_20h57.57.012,mdp,2024.2.1,Linux x86_64,60.24096386,66fa4ebf79326e780c390304,,,,,,,,,,,,,,,,,,,,,330.9023,330.9023,330.9053,332.0018,0,1,left,0.572,,332.0056,333.0676,1,0,right,333.0691,333.0701,,0,,1,333.0702,333.0702,333.0712,334.5675,0,6,6,6,1,0.4,0.6,0.8,0.2,,,,,,,,,,,,,,,0.5363,,0.6,0.4,0.2,0.8,0.8,0.2,0.8,0.2,1,0,,,,,,,,,,,,
,,66301c9c390de66737e2ae4c,66fc99e54ca15917b8ae9c8b,2024-10-01_20h57.57.012,mdp,2024.2.1,Linux x86_64,60.24096386,66fa4ebf79326e780c390304,,,,,,,,,,,,,,,,,,,,,334.5679,334.5679,334.5693,335.6342,0,0,left,0.5309,,335.6359,336.6028,0,0,left,336.605,336.6063,,1,,1,336.6067,336.6067,336.6078,338.1009,0,7,7,7,1,0.4,0.6,0.8,0.2,,,,,,,,,,,,,,,0.4274,,0.8,0.2,0.8,0.2,0.8,0.2,0.8,0.2,1,0,,,,,,,,,,,,
,,66301c9c390de66737e2ae4c,66fc99e54ca15917b8ae9c8b,2024-10-01_20h57.57.012,mdp,2024.2.1,Linux x86_64,60.24096386,66fa4ebf79326e780c390304,,,,,,,,,,,,,,,,,,,,,338.1019,338.1019,338.1042,339.2173,0,1,left,0.5795,,339.2189,340.5508,1,1,right,340.5523,340.5533,,1,,0,340.5533,340.5533,340.5543,342.0506,0,8,8,8,1,0.4,0.6,0.8,0.2,,,,,,,,,,,,,,,0.8191,,0.8,0.2,0.8,0.2,0.6,0.4,0.6,0.4,1,0,,,,,,,,,,,,
,,66301c9c390de66737e2ae4c,66fc99e54ca15917b8ae9c8b,2024-10-01_20h57.57.012,mdp,2024.2.1,Linux x86_64,60.24096386,66fa4ebf79326e780c390304,,,,,,,,,,,,,,,,,,,,,342.0514,342.0514,342.0539,343.2672,0,1,left,0.6918,,343.2687,344.6685,0,0,left,344.6724,344.6739,,0,,1,344.6741,344.6741,344.6778,346.1668,0,9,9,9,1,0.4,0.6,0.8,0.2,,,,,,,,,,,,,,,0.8722,,0.8,0.2,0.8,0.2,0.6,0.4,0.6,0.4,1,0,,,,,,,,,,,,
,,66301c9c390de66737e2ae4c,66fc99e54ca15917b8ae9c8b,2024-10-01_20h57.57.012,mdp,2024.2.1,Linux x86_64,60.24096386,66fa4ebf79326e780c390304,,,,,,,,,,,,,,,,,,,,,346.1672,346.1672,346.1688,347.2,0,1,left,0.4992,,347.2014,348.6672,1,1,right,348.6694,348.6704,,0,,0,348.6704,348.6705,348.6713,350.1668,0,10,10,10,1,0.4,0.6,0.8,0.2,,,,,,,,,,,,,,,0.9519,,0.8,0.2,0.8,0.2,0.6,0.4,0.6,0.4,1,0,,,,,,,,,,,,
,,66301c9c390de66737e2ae4c,66fc99e54ca15917b8ae9c8b,2024-10-01_20h57.57.012,mdp,2024.2.1,Linux x86_64,60.24096386,66fa4ebf79326e780c390304,,,,,,,,,,,,,,,,,,,,,350.1673,350.1673,350.1689,351.0835,0,0,left,0.3815,,351.085,352.0842,0,0,left,352.0876,352.0894,,0,,1,352.0896,352.0896,352.0914,353.5836,0,11,11,11,1,0.4,0.6,0.8,0.2,,,,,,,,,,,,,,,0.465,,0.8,0.2,0.8,0.2,0.6,0.4,0.6,0.4,1,0,,,,,,,,,,,,
,,66301c9c390de66737e2ae4c,66fc99e54ca15917b8ae9c8b,2024-10-01_20h57.57.012,mdp,2024.2.1,Linux x86_64,60.24096386,66fa4ebf79326e780c390304,,,,,,,,,,,,,,,,,,,,,353.5842,353.5842,353.5857,354.6006,0,1,left,0.4855,,354.6023,355.5834,0,1,left,355.5848,355.586,,0,,0,355.586,355.5861,355.5877,357.083,0,12,12,12,1,0.4,0.6,0.8,0.2,,,,,,,,,,,,,,,0.4459,,0.8,0.2,0.8,0.2,0.6,0.4,0.6,0.4,1,0,,,,,,,,,,,,
,,66301c9c390de66737e2ae4c,66fc99e54ca15917b8ae9c8b,2024-10-01_20h57.57.012,mdp,2024.2.1,Linux x86_64,60.24096386,66fa4ebf79326e780c390304,,,,,,,,,,,,,,,,,,,,,357.0835,357.0835,357.0851,358.1164,0,1,left,0.5004,,358.1178,359.7502,1,0,right,359.7542,359.7566,,0,,1,359.7567,359.7567,359.7587,361.2497,0,13,13,13,1,0.4,0.6,0.8,0.2,,,,,,,,,,,,,,,1.1179,,0.8,0.2,0.8,0.2,0.6,0.4,0.6,0.4,1,0,,,,,,,,,,,,
,,66301c9c390de66737e2ae4c,66fc99e54ca15917b8ae9c8b,2024-10-01_20h57.57.012,mdp,2024.2.1,Linux x86_64,60.24096386,66fa4ebf79326e780c390304,,,,,,,,,,,,,,,,,,,,,361.2505,361.2505,361.2529,362.2994,0,1,left,0.5144,,362.3008,363.3329,1,1,right,363.3345,363.3357,,1,,0,363.3358,363.3358,363.3371,364.8329,0,14,14,14,1,0.4,0.6,0.8,0.2,,,,,,,,,,,,,,,0.5164,,0.8,0.2,0.8,0.2,0.6,0.4,0.6,0.4,1,0,,,,,,,,,,,,
,,66301c9c390de66737e2ae4c,66fc99e54ca15917b8ae9c8b,2024-10-01_20h57.57.012,mdp,2024.2.1,Linux x86_64,60.24096386,66fa4ebf79326e780c390304,,,,,,,,,,,,,,,,,,,,,364.8334,364.8334,364.835,365.7503,0,0,left,0.3848,,365.7521,366.8343,0,1,left,366.8381,366.8399,,0,,0,366.84,366.84,366.8415,368.3327,0,15,15,15,1,0.4,0.6,0.8,0.2,,,,,,,,,,,,,,,0.55,,0.8,0.2,0.8,0.2,0.6,0.4,0.6,0.4,1,0,,,,,,,,,,,,
,,66301c9c390de66737e2ae4c,66fc99e54ca15917b8ae9c8b,2024-10-01_20h57.57.012,mdp,2024.2.1,Linux x86_64,60.24096386,66fa4ebf79326e780c390304,,,,,,,,,,,,,,,,,,,,,368.333,368.333,368.3348,369.2828,0,1,left,0.4335,,369.2859,370.7668,0,0,left,370.7698,370.7717,,1,,1,370.7718,370.7718,370.7736,372.266,0,16,16,16,1,0.4,0.6,0.8,0.2,,,,,,,,,,,,,,,0.955,,0.8,0.2,0.8,0.2,0.8,0.2,0.2,0.8,1,0,,,,,,,,,,,,
,,66301c9c390de66737e2ae4c,66fc99e54ca15917b8ae9c8b,2024-10-01_20h57.57.012,mdp,2024.2.1,Linux x86_64,60.24096386,66fa4ebf79326e780c390304,,,,,,,,,,,,,,,,,,,,,372.2673,372.2673,372.2703,373.3164,0,0,left,0.5196,,373.3184,374.4655,1,0,right,374.467,374.468,,0,,1,374.468,374.4681,374.4691,375.9662,0,17,17,17,1,0.4,0.6,0.8,0.2,,,,,,,,,,,,,,,0.6129,,0.8,0.2,0.8,0.2,0.8,0.2,0.2,0.8,1,0,,,,,,,,,,,,
,,66301c9c390de66737e2ae4c,66fc99e54ca15917b8ae9c8b,2024-10-01_20h57.57.012,mdp,2024.2.1,Linux x86_64,60.24096386,66fa4ebf79326e780c390304,,,,,,,,,,,,,,,,,,,,,375.9669,375.9669,375.9693,377.0164,0,0,left,0.5222,,377.0178,378.083,1,0,right,378.0847,378.0858,,0,,1,378.0859,378.0859,378.0868,379.5832,0,18,18,18,1,0.4,0.6,0.8,0.2,,,,,,,,,,,,,,,0.54,,0.8,0.2,0.8,0.2,0.8,0.2,0.2,0.8,1,0,,,,,,,,,,,,
,,66301c9c390de66737e2ae4c,66fc99e54ca15917b8ae9c8b,2024-10-01_20h57.57.012,mdp,2024.2.1,Linux x86_64,60.24096386,66fa4ebf79326e780c390304,,,,,,,,,,,,,,,,,,,,,379.5847,379.5848,379.5875,380.4161,0,1,left,0.3023,,380.4175,381.4491,0,1,left,381.4504,381.4515,,0,,0,381.4516,381.4516,381.4526,382.9489,0,19,19,19,1,0.4,0.6,0.8,0.2,,,,,,,,,,,,,,,0.4982,,0.8,0.2,0.8,0.2,0.8,0.2,0.2,0.8,1,0,,,,,,,,,,,,
,,66301c9c390de66737e2ae4c,66fc99e54ca15917b8ae9c8b,2024-10-01_20h57.57.012,mdp,2024.2.1,Linux x86_64,60.24096386,66fa4ebf79326e780c390304,,,,,,,,,,,,,,,,,,,,,382.9494,382.9494,382.9507,384.3321,0,1,left,0.8463,,384.335,385.5319,1,1,right,385.5345,385.5365,,0,,0,385.5366,385.5366,385.5383,387.0318,0,20,20,20,1,0.4,0.6,0.8,0.2,,,,,,,,,,,,,,,0.6647,,0.8,0.2,0.8,0.2,0.8,0.2,0.2,0.8,1,0,,,,,,,,,,,,
,,66301c9c390de66737e2ae4c,66fc99e54ca15917b8ae9c8b,2024-10-01_20h57.57.012,mdp,2024.2.1,Linux x86_64,60.24096386,66fa4ebf79326e780c390304,,,,,,,,,,,,,,,,,,,,,387.0322,387.0322,387.0336,387.9496,0,1,left,0.392,,387.9523,389.1825,1,1,right,389.1865,389.1885,,1,,0,389.1886,389.1886,389.191,390.6817,0,21,21,21,1,0.4,0.6,0.8,0.2,,,,,,,,,,,,,,,0.7053,,0.8,0.2,0.8,0.2,0.8,0.2,0.2,0.8,1,0,,,,,,,,,,,,
,,66301c9c390de66737e2ae4c,66fc99e54ca15917b8ae9c8b,2024-10-01_20h57.57.012,mdp,2024.2.1,Linux x86_64,60.24096386,66fa4ebf79326e780c390304,,,,,,,,,,,,,,,,,,,,,390.6822,390.6822,390.6846,391.4987,0,0,left,0.2843,,391.5001,392.4486,0,0,left,392.4527,392.4546,,0,,1,392.4546,392.4546,392.4565,393.9483,0,22,22,22,1,0.8,0.2,0.2,0.8,,,,,,,,,,,,,,,0.4187,,0.8,0.2,0.8,0.2,0.8,0.2,0.2,0.8,1,0,,,,,,,,,,,,
,,66301c9c390de66737e2ae4c,66fc99e54ca15917b8ae9c8b,2024-10-01_20h57.57.012,mdp,2024.2.1,Linux x86_64,60.24096386,66fa4ebf79326e780c390304,,,,,,,,,,,,,,,,,,,,,393.9488,393.9488,393.9503,394.8482,0,0,left,0.3692,,394.8513,395.8645,0,0,left,395.8661,395.8674,,1,,1,395.8674,395.8674,395.8684,397.3706,0,23,23,23,1,0.8,0.2,0.2,0.8,,,,,,,,,,,,,,,0.5048,,0.8,0.2,0.8,0.2,0.8,0.2,0.2,0.8,1,0,,,,,,,,,,,,
,,66301c9c390de66737e2ae4c,66fc99e54ca15917b8ae9c8b,2024-10-01_20h57.57.012,mdp,2024.2.1,Linux x86_64,60.24096386,66fa4ebf79326e780c390304,,,,,,,,,,,,,,,,,,,,,397.3794,397.3794,397.3814,398.1722,0,0,left,0.2645,,398.1736,399.2486,0,1,left,399.2503,399.2519,,0,,0,399.252,399.252,399.2533,400.748,0,24,24,24,1,0.8,0.2,0.2,0.8,,,,,,,,,,,,,,,0.5519,,0.2,0.8,0.2,0.8,0.8,0.2,0.2,0.8,1,0,,,,,,,,,,,,
,,66301c9c390de66737e2ae4c,66fc99e54ca15917b8ae9c8b,2024-10-01_20h57.57.012,mdp,2024.2.1,Linux x86_64,60.24096386,66fa4ebf79326e780c390304,,,,,,,,,,,,,,,,,,,,,400.7484,400.7484,400.7499,401.6149,0,0,left,0.3374,,401.6166,402.7988,0,1,left,402.802,402.8037,,1,,0,402.8038,402.8038,402.8055,404.2988,0,25,25,25,1,0.8,0.2,0.2,0.8,,,,,,,,,,,,,,,0.6525,,0.2,0.8,0.2,0.8,0.8,0.2,0.2,0.8,1,0,,,,,,,,,,,,
,,66301c9c390de66737e2ae4c,66fc99e54ca15917b8ae9c8b,2024-10-01_20h57.57.012,mdp,2024.2.1,Linux x86_64,60.24096386,66fa4ebf79326e780c390304,,,,,,,,,,,,,,,,,,,,,404.2999,404.2999,404.3027,405.1151,0,0,left,0.2894,,405.1192,406.3143,0,1,left,406.3158,406.3168,,0,,0,406.3169,406.3169,406.3179,407.814,0,26,26,26,1,0.8,0.2,0.2,0.8,,,,,,,,,,,,,,,0.6741,,0.2,0.8,0.2,0.8,0.8,0.2,0.2,0.8,1,0,,,,,,,,,,,,
,,66301c9c390de66737e2ae4c,66fc99e54ca15917b8ae9c8b,2024-10-01_20h57.57.012,mdp,2024.2.1,Linux x86_64,60.24096386,66fa4ebf79326e780c390304,,,,,,,,,,,,,,,,,,,,,407.8146,407.8146,407.816,408.7139,0,1,left,0.3731,,408.7169,410.0975,0,1,left,410.0993,410.1007,,0,,0,410.1008,410.1008,410.1019,411.5974,0,27,27,27,1,0.4,0.6,0.4,0.6,,,,,,,,,,,,,,,0.8684,,0.2,0.8,0.2,0.8,0.8,0.2,0.2,0.8,1,0,,,,,,,,,,,,
,,66301c9c390de66737e2ae4c,66fc99e54ca15917b8ae9c8b,2024-10-01_20h57.57.012,mdp,2024.2.1,Linux x86_64,60.24096386,66fa4ebf79326e780c390304,,,,,,,,,,,,,,,,,,,,,411.5982,411.5982,411.6003,412.4471,0,0,left,0.32,,412.4486,413.2141,1,1,right,413.2171,413.219,,1,,0,413.2193,413.2193,413.221,414.7141,0,28,28,28,1,0.4,0.6,0.4,0.6,,,,,,,,,,,,,,,0.2469,,0.2,0.8,0.2,0.8,0.8,0.2,0.2,0.8,1,0,,,,,,,,,,,,
,,66301c9c390de66737e2ae4c,66fc99e54ca15917b8ae9c8b,2024-10-01_20h57.57.012,mdp,2024.2.1,Linux x86_64,60.24096386,66fa4ebf79326e780c390304,,,,,,,,,,,,,,,,,,,,,414.7147,414.7147,414.7164,415.5983,0,0,left,0.3529,,415.601,416.4136,1,1,right,416.415,416.4161,,1,,0,416.4162,416.4162,416.4172,417.914,0,29,29,29,1,0.4,0.6,0.4,0.6,,,,,,,,,,,,,,,0.2865,,0.2,0.8,0.2,0.8,0.8,0.2,0.2,0.8,1,0,,,,,,,,,,,,
,,66301c9c390de66737e2ae4c,66fc99e54ca15917b8ae9c8b,2024-10-01_20h57.57.012,mdp,2024.2.1,Linux x86_64,60.24096386,66fa4ebf79326e780c390304,,,,,,,,,,,,,,,,,,,,,417.9145,417.9145,417.916,418.7643,0,1,left,0.3182,,418.767,419.9651,1,0,right,419.9677,419.9696,,0,,1,419.9698,419.9699,419.9721,421.4644,0,30,30,30,1,0.4,0.6,0.4,0.6,,,,,,,,,,,,,,,0.663,,0.2,0.8,0.2,0.8,0.4,0.6,0.6,0.4,1,0,,,,,,,,,,,,
,,66301c9c390de66737e2ae4c,66fc99e54ca15917b8ae9c8b,2024-10-01_20h57.57.012,mdp,2024.2.1,Linux x86_64,60.24096386,66fa4ebf79326e780c390304,,,,,,,,,,,,,,,,,,,,,421.4649,421.4649,421.4663,422.28,0,1,left,0.2867,,422.2814,423.5802,1,0,right,423.582,423.583,,1,,1,423.5831,423.5831,423.584,425.08,0,31,31,31,1,0.4,0.6,0.4,0.6,,,,,,,,,,,,,,,0.7707,,0.2,0.8,0.2,0.8,0.4,0.6,0.6,0.4,1,0,,,,,,,,,,,,
,,66301c9c390de66737e2ae4c,66fc99e54ca15917b8ae9c8b,2024-10-01_20h57.57.012,mdp,2024.2.1,Linux x86_64,60.24096386,66fa4ebf79326e780c390304,,,,,,,,,,,,,,,,,,,,,425.0805,425.0805,425.0821,425.9299,0,1,left,0.319,,425.9312,427.1139,0,0,left,427.1171,427.1193,,1,,1,427.1194,427.1194,427.1216,428.6132,0,32,32,32,1,0.2,0.8,0.6,0.4,,,,,,,,,,,,,,,0.6667,,0.2,0.8,0.2,0.8,0.4,0.6,0.6,0.4,1,0,,,,,,,,,,,,
,,66301c9c390de66737e2ae4c,66fc99e54ca15917b8ae9c8b,2024-10-01_20h57.57.012,mdp,2024.2.1,Linux x86_64,60.24096386,66fa4ebf79326e780c390304,,,,,,,,,,,,,,,,,,,,,428.6136,428.6136,428.615,429.463,0,0,left,0.3194,,429.4645,430.497,0,1,left,430.4997,430.5018,,1,,0,430.5019,430.5019,430.5038,431.9963,0,33,33,33,1,0.2,0.8,0.6,0.4,,,,,,,,,,,,,,,0.5062,,0.2,0.8,0.2,0.8,0.4,0.6,0.6,0.4,1,0,,,,,,,,,,,,
,,66301c9c390de66737e2ae4c,66fc99e54ca15917b8ae9c8b,2024-10-01_20h57.57.012,mdp,2024.2.1,Linux x86_64,60.24096386,66fa4ebf79326e780c390304,,,,,,,,,,,,,,,,,,,,,431.9968,431.9968,431.9983,432.7297,0,0,left,0.2058,,432.7311,433.613,1,0,right,433.6147,433.6158,,1,,1,433.6158,433.6158,433.6168,435.1128,0,34,34,34,1,0.2,0.8,0.6,0.4,,,,,,,,,,,,,,,0.3629,,0.2,0.8,0.2,0.8,0.4,0.6,0.6,0.4,1,0,,,,,,,,,,,,
,,66301c9c390de66737e2ae4c,66fc99e54ca15917b8ae9c8b,2024-10-01_20h57.57.012,mdp,2024.2.1,Linux x86_64,60.24096386,66fa4ebf79326e780c390304,,,,,,,,,,,,,,,,,,,,,435.1132,435.1133,435.1145,435.9141,0,1,left,0.2697,,435.9163,437.0461,0,0,left,437.0475,437.0486,,1,,1,437.0486,437.0486,437.0498,438.5466,0,35,35,35,1,0.2,0.8,0.6,0.4,,,,,,,,,,,,,,,0.5888,,0.2,0.8,0.2,0.8,0.4,0.6,0.6,0.4,1,0,,,,,,,,,,,,
,,66301c9c390de66737e2ae4c,66fc99e54ca15917b8ae9c8b,2024-10-01_20h57.57.012,mdp,2024.2.1,Linux x86_64,60.24096386,66fa4ebf79326e780c390304,,,,,,,,,,,,,,,,,,,,,438.5471,438.5471,438.5487,439.3965,0,1,left,0.3193,,439.3982,440.263,0,0,left,440.2647,440.2663,,0,,1,440.2663,440.2663,440.2673,441.7626,0,36,36,36,1,0.2,0.8,0.6,0.4,,,,,,,,,,,,,,,0.3546,,0.2,0.8,0.2,0.8,0.4,0.6,0.6,0.4,1,0,,,,,,,,,,,,
,,66301c9c390de66737e2ae4c,66fc99e54ca15917b8ae9c8b,2024-10-01_20h57.57.012,mdp,2024.2.1,Linux x86_64,60.24096386,66fa4ebf79326e780c390304,,,,,,,,,,,,,,,,,,,,,441.7632,441.7632,441.7654,442.6292,0,1,left,0.3359,,442.6306,443.5622,0,0,left,443.5637,443.5647,,1,,1,443.5648,443.5648,443.5658,445.0623,0,37,37,37,1,0.2,0.8,0.6,0.4,,,,,,,,,,,,,,,0.4085,,0.2,0.8,0.2,0.8,0.4,0.6,0.6,0.4,1,0,,,,,,,,,,,,
,,66301c9c390de66737e2ae4c,66fc99e54ca15917b8ae9c8b,2024-10-01_20h57.57.012,mdp,2024.2.1,Linux x86_64,60.24096386,66fa4ebf79326e780c390304,,,,,,,,,,,,,,,,,,,,,445.0628,445.0628,445.0643,445.8966,0,1,left,0.3022,,445.8981,446.9789,1,1,right,446.9804,446.9814,,1,,0,446.9815,446.9815,446.9828,448.479,0,38,38,38,1,0.2,0.8,0.6,0.4,,,,,,,,,,,,,,,0.5483,,0.2,0.8,0.2,0.8,0.6,0.4,0.4,0.6,1,0,,,,,,,,,,,,
,,66301c9c390de66737e2ae4c,66fc99e54ca15917b8ae9c8b,2024-10-01_20h57.57.012,mdp,2024.2.1,Linux x86_64,60.24096386,66fa4ebf79326e780c390304,,,,,,,,,,,,,,,,,,,,,448.4796,448.4796,448.4819,449.362,0,1,left,0.3515,,449.3635,450.4626,0,0,left,450.464,450.4655,,1,,1,450.4655,450.4655,450.4666,451.9627,0,39,39,39,1,0.2,0.8,0.6,0.4,,,,,,,,,,,,,,,0.5635,,0.2,0.8,0.2,0.8,0.6,0.4,0.4,0.6,1,0,,,,,,,,,,,,
,,66301c9c390de66737e2ae4c,66fc99e54ca15917b8ae9c8b,2024-10-01_20h57.57.012,mdp,2024.2.1,Linux x86_64,60.24096386,66fa4ebf79326e780c390304,,,,,,,,,,,,,,,,,,,,,451.9638,451.9638,451.9675,452.7629,0,1,left,0.2721,,452.7667,453.4791,1,1,right,453.4826,453.4847,,0,,0,453.4848,453.4849,453.4869,454.9787,0,40,40,40,1,0.2,0.8,0.6,0.4,,,,,,,,,,,,,,,0.2022,,0.6,0.4,0.6,0.4,0.6,0.4,0.4,0.6,1,0,,,,,,,,,,,,
,,66301c9c390de66737e2ae4c,66fc99e54ca15917b8ae9c8b,2024-10-01_20h57.57.012,mdp,2024.2.1,Linux x86_64,60.24096386,66fa4ebf79326e780c390304,,,,,,,,,,,,,,,,,,,,,454.9792,454.9792,454.9805,455.8791,0,1,left,0.3679,,455.8823,456.6461,0,0,left,456.6476,456.6487,,1,,1,456.6488,456.6488,456.6498,458.1452,0,41,41,41,1,0.2,0.8,0.6,0.4,,,,,,,,,,,,,,,0.243,,0.6,0.4,0.6,0.4,0.6,0.4,0.4,0.6,1,0,,,,,,,,,,,,
,,66301c9c390de66737e2ae4c,66fc99e54ca15917b8ae9c8b,2024-10-01_20h57.57.012,mdp,2024.2.1,Linux x86_64,60.24096386,66fa4ebf79326e780c390304,,,,,,,,,,,,,,,,,,,,,458.1457,458.1457,458.1471,458.9453,0,0,left,0.2692,,458.9467,459.5624,0,1,left,459.5651,459.5672,,1,,0,459.5672,459.5672,459.5693,461.0619,0,42,42,42,1,0.2,0.8,0.6,0.4,,,,,,,,,,,,,,,0.0755,,0.6,0.4,0.6,0.4,0.6,0.4,0.4,0.6,1,0,,,,,,,,,,,,
,,66301c9c390de66737e2ae4c,66fc99e54ca15917b8ae9c8b,2024-10-01_20h57.57.012,mdp,2024.2.1,Linux x86_64,60.24096386,66fa4ebf79326e780c390304,,,,,,,,,,,,,,,,,,,,,461.0627,461.0627,461.0653,462.9627,0,1,left,1.3696,,462.9641,463.713,1,0,right,463.7148,463.7158,,0,,1,463.7159,463.7159,463.7167,465.2118,0,43,43,43,1,0.2,0.8,0.6,0.4,,,,,,,,,,,,,,,0.2188,,0.6,0.4,0.6,0.4,0.6,0.4,0.4,0.6,1,0,,,,,,,,,,,,
,,66301c9c390de66737e2ae4c,66fc99e54ca15917b8ae9c8b,2024-10-01_20h57.57.012,mdp,2024.2.1,Linux x86_64,60.24096386,66fa4ebf79326e780c390304,,,,,,,,,,,,,,,,,,,,,465.2122,465.2123,465.2136,466.0784,0,1,left,0.333,,466.081,466.9616,0,0,left,466.9631,466.9641,,0,,1,466.9641,466.9641,466.9652,468.4611,0,44,44,44,1,0.2,0.8,0.6,0.4,,,,,,,,,,,,,,,0.3673,,0.6,0.4,0.6,0.4,0.6,0.4,0.4,0.6,1,0,,,,,,,,,,,,
,,66301c9c390de66737e2ae4c,66fc99e54ca15917b8ae9c8b,2024-10-01_20h57.57.012,mdp,2024.2.1,Linux x86_64,60.24096386,66fa4ebf79326e780c390304,,,,,,,,,,,,,,,,,,,,,468.4617,468.4617,468.4631,469.3113,0,1,left,0.315,,469.3126,470.0276,1,0,right,470.029,470.0301,,1,,1,470.0302,470.0302,470.0312,471.5283,0,45,45,45,1,0.2,0.8,0.6,0.4,,,,,,,,,,,,,,,0.1843,,0.6,0.4,0.6,0.4,0.6,0.4,0.4,0.6,1,0,,,,,,,,,,,,
,,66301c9c390de66737e2ae4c,66fc99e54ca15917b8ae9c8b,2024-10-01_20h57.57.012,mdp,2024.2.1,Linux x86_64,60.24096386,66fa4ebf79326e780c390304,,,,,,,,,,,,,,,,,,,,,471.5288,471.5288,471.5303,472.3777,0,1,left,0.3194,,472.3792,473.1777,0,1,left,473.1794,473.1805,,0,,0,473.1805,473.1805,473.1815,474.6781,0,46,46,46,1,0.2,0.8,0.6,0.4,,,,,,,,,,,,,,,0.292,,0.6,0.4,0.6,0.4,0.6,0.4,0.4,0.6,1,0,,,,,,,,,,,,
,,66301c9c390de66737e2ae4c,66fc99e54ca15917b8ae9c8b,2024-10-01_20h57.57.012,mdp,2024.2.1,Linux x86_64,60.24096386,66fa4ebf79326e780c390304,,,,,,,,,,,,,,,,,,,,,474.6785,474.6785,474.6802,475.5945,0,1,left,0.3869,,475.5963,476.2942,1,0,right,476.2956,476.2966,,1,,1,476.297,476.297,476.2981,477.7941,0,47,47,47,1,0.2,0.8,0.6,0.4,,,,,,,,,,,,,,,0.1686,,0.6,0.4,0.6,0.4,0.6,0.4,0.4,0.6,1,0,,,,,,,,,,,,
,,66301c9c390de66737e2ae4c,66fc99e54ca15917b8ae9c8b,2024-10-01_20h57.57.012,mdp,2024.2.1,Linux x86_64,60.24096386,66fa4ebf79326e780c390304,,,,,,,,,,,,,,,,,,,,,477.7946,477.7947,477.796,478.7942,0,1,left,0.4731,,478.7956,479.6108,0,0,left,479.6132,479.615,,0,,1,479.6151,479.6151,479.6165,481.1115,0,48,48,48,1,0.2,0.8,0.6,0.4,,,,,,,,,,,,,,,0.2871,,0.4,0.6,0.4,0.6,0.6,0.4,0.4,0.6,1,0,,,,,,,,,,,,
,,66301c9c390de66737e2ae4c,66fc99e54ca15917b8ae9c8b,2024-10-01_20h57.57.012,mdp,2024.2.1,Linux x86_64,60.24096386,66fa4ebf79326e780c390304,,,,,,,,,,,,,,,,,,,,,481.112,481.112,481.1145,481.9777,0,0,left,0.3337,,481.9812,482.9104,1,1,right,482.9119,482.9129,,0,,0,482.913,482.913,482.914,484.4104,0,49,49,49,1,0.2,0.8,0.6,0.4,,,,,,,,,,,,,,,0.3959,,0.4,0.6,0.4,0.6,0.2,0.8,0.8,0.2,1,0,,,,,,,,,,,,
,,66301c9c390de66737e2ae4c,66fc99e54ca15917b8ae9c8b,2024-10-01_20h57.57.012,mdp,2024.2.1,Linux x86_64,60.24096386,66fa4ebf79326e780c390304,,,,,,,,,,,,,,,,,,,,,,,,,,,,,,,,,,,,,,,,,,,,,,,,,,,,,,,,484.4106,542.9251,0,1,1,2,1,imgs/dog.png,imgs/cat.png,imgs/lion.png,imgs/elephant.png,imgs/goat.png,,,,,,,,,,,,,,,,,,,,,,,,
,,66301c9c390de66737e2ae4c,66fc99e54ca15917b8ae9c8b,2024-10-01_20h57.57.012,mdp,2024.2.1,Linux x86_64,60.24096386,66fa4ebf79326e780c390304,,,,,,,,,,,,,,3,seqs/st3seq24.csv,542.9376,587.0226,space,43.567,,587.0531,587.0531,587.0557,588.5395,0,0,left,0.9647,,588.5414,590.1737,1,0,right,590.1773,592.289,1,1,right,0,592.2891,592.2891,592.2905,593.789,0,0,0,0,1,0.8,0.2,0.4,0.6,,,,,,,,,,,,,,,1.081,,0.4,0.6,0.6,0.4,0.2,0.8,0.2,0.8,,,1.5793,,0.6,0.4,0.2,0.8,0.6,0.4,0.2,0.8,1,0
,,66301c9c390de66737e2ae4c,66fc99e54ca15917b8ae9c8b,2024-10-01_20h57.57.012,mdp,2024.2.1,Linux x86_64,60.24096386,66fa4ebf79326e780c390304,,,,,,,,,,,,,,,,,,,,,593.79,593.79,593.7923,595.1556,0,0,left,0.8299,,595.157,596.2563,0,1,left,596.259,597.1897,0,1,left,0,597.1898,597.1898,597.1911,598.6891,0,1,1,1,1,0.8,0.2,0.4,0.6,,,,,,,,,,,,,,,0.5721,,0.4,0.6,0.6,0.4,0.2,0.8,0.2,0.8,,,0.4074,,0.6,0.4,0.2,0.8,0.6,0.4,0.2,0.8,1,0
,,66301c9c390de66737e2ae4c,66fc99e54ca15917b8ae9c8b,2024-10-01_20h57.57.012,mdp,2024.2.1,Linux x86_64,60.24096386,66fa4ebf79326e780c390304,,,,,,,,,,,,,,,,,,,,,598.6896,598.6896,598.6909,599.6895,0,0,left,0.4675,,599.6929,600.7227,0,1,left,600.7256,601.5227,1,1,right,0,601.5229,601.5229,601.5263,603.0221,0,2,2,2,1,0.8,0.2,0.4,0.6,,,,,,,,,,,,,,,0.4995,,0.4,0.6,0.6,0.4,0.2,0.8,0.2,0.8,,,0.2689,,0.6,0.4,0.2,0.8,0.6,0.4,0.2,0.8,1,0
,,66301c9c390de66737e2ae4c,66fc99e54ca15917b8ae9c8b,2024-10-01_20h57.57.012,mdp,2024.2.1,Linux x86_64,60.24096386,66fa4ebf79326e780c390304,,,,,,,,,,,,,,,,,,,,,603.0231,603.0232,603.026,603.9889,0,1,left,0.435,,603.9928,604.7718,1,1,right,604.7734,605.5726,1,1,right,0,605.5727,605.5727,605.574,607.0718,0,3,3,3,1,0.8,0.2,0.4,0.6,,,,,,,,,,,,,,,0.2462,,0.4,0.6,0.6,0.4,0.2,0.8,0.2,0.8,,,0.2812,,0.6,0.4,0.2,0.8,0.6,0.4,0.2,0.8,1,0
,,66301c9c390de66737e2ae4c,66fc99e54ca15917b8ae9c8b,2024-10-01_20h57.57.012,mdp,2024.2.1,Linux x86_64,60.24096386,66fa4ebf79326e780c390304,,,,,,,,,,,,,,,,,,,,,607.0723,607.0723,607.0736,608.0051,0,0,left,0.4063,,608.0065,609.9551,1,0,right,609.9571,610.8214,0,0,left,1,610.8215,610.8215,610.8237,612.3214,0,4,4,4,1,0.8,0.2,0.4,0.6,,,,,,,,,,,,,,,1.4103,,0.4,0.6,0.6,0.4,0.2,0.8,0.2,0.8,,,0.3321,,0.6,0.4,0.2,0.8,0.6,0.4,0.2,0.8,1,0
,,66301c9c390de66737e2ae4c,66fc99e54ca15917b8ae9c8b,2024-10-01_20h57.57.012,mdp,2024.2.1,Linux x86_64,60.24096386,66fa4ebf79326e780c390304,,,,,,,,,,,,,,,,,,,,,612.3219,612.3219,612.3232,613.4546,0,0,left,0.6033,,613.4559,615.0057,1,0,right,615.0079,616.2043,0,0,left,1,616.2044,616.2044,616.2057,617.7047,0,5,5,5,1,0.8,0.2,0.4,0.6,,,,,,,,,,,,,,,1.027,,0.4,0.6,0.6,0.4,0.2,0.8,0.2,0.8,,,0.6715,,0.6,0.4,0.2,0.8,0.6,0.4,0.2,0.8,1,0
,,66301c9c390de66737e2ae4c,66fc99e54ca15917b8ae9c8b,2024-10-01_20h57.57.012,mdp,2024.2.1,Linux x86_64,60.24096386,66fa4ebf79326e780c390304,,,,,,,,,,,,,,,,,,,,,617.7052,617.7052,617.7066,618.7382,0,1,left,0.5082,,618.7412,620.7377,0,1,left,620.739,622.3543,0,0,left,1,622.3544,622.3544,622.3556,623.854,0,6,6,6,1,0.8,0.2,0.4,0.6,,,,,,,,,,,,,,,1.4629,,0.4,0.6,0.6,0.4,0.2,0.8,0.2,0.8,,,1.0968,,0.6,0.4,0.2,0.8,0.6,0.4,0.2,0.8,1,0
,,66301c9c390de66737e2ae4c,66fc99e54ca15917b8ae9c8b,2024-10-01_20h57.57.012,mdp,2024.2.1,Linux x86_64,60.24096386,66fa4ebf79326e780c390304,,,,,,,,,,,,,,,,,,,,,623.8545,623.8546,623.8562,624.7211,0,0,left,0.335,,624.7227,625.9378,1,0,right,625.9395,626.9562,0,0,left,1,626.9564,626.9564,626.9577,628.4458,0,7,7,7,1,0.8,0.2,0.4,0.6,,,,,,,,,,,,,,,0.663,,0.4,0.6,0.6,0.4,0.2,0.8,0.2,0.8,,,0.4922,,0.6,0.4,0.2,0.8,0.6,0.4,0.2,0.8,1,0
,,66301c9c390de66737e2ae4c,66fc99e54ca15917b8ae9c8b,2024-10-01_20h57.57.012,mdp,2024.2.1,Linux x86_64,60.24096386,66fa4ebf79326e780c390304,,,,,,,,,,,,,,,,,,,,,628.4464,628.4464,628.4479,629.3386,0,0,left,0.3528,,629.3403,630.6705,1,0,right,630.6719,631.8037,0,1,left,0,631.8038,631.8038,631.8051,633.3036,0,8,8,8,1,0.8,0.2,0.4,0.6,,,,,,,,,,,,,,,0.7992,,0.4,0.6,0.6,0.4,0.2,0.8,0.2,0.8,,,0.5976,,0.6,0.4,0.2,0.8,0.6,0.4,0.2,0.8,1,0
,,66301c9c390de66737e2ae4c,66fc99e54ca15917b8ae9c8b,2024-10-01_20h57.57.012,mdp,2024.2.1,Linux x86_64,60.24096386,66fa4ebf79326e780c390304,,,,,,,,,,,,,,,,,,,,,633.3041,633.3041,633.3053,634.2206,0,0,left,0.3894,,634.2235,635.4869,1,0,right,635.4893,636.3533,0,1,left,0,636.3534,636.3534,636.3547,637.8539,0,9,9,9,1,0.8,0.2,0.4,0.6,,,,,,,,,,,,,,,0.7384,,0.4,0.6,0.6,0.4,0.2,0.8,0.2,0.8,,,0.34,,0.6,0.4,0.2,0.8,0.6,0.4,0.2,0.8,1,0
,,66301c9c390de66737e2ae4c,66fc99e54ca15917b8ae9c8b,2024-10-01_20h57.57.012,mdp,2024.2.1,Linux x86_64,60.24096386,66fa4ebf79326e780c390304,,,,,,,,,,,,,,,,,,,,,637.8548,637.8548,637.8572,638.7371,0,0,left,0.3489,,638.7387,639.6903,1,1,right,639.6927,640.5201,1,1,right,0,640.5203,640.5203,640.5217,642.0203,0,10,10,10,1,0.8,0.2,0.4,0.6,,,,,,,,,,,,,,,0.4267,,0.4,0.6,0.6,0.4,0.2,0.8,0.2,0.8,,,0.2852,,0.6,0.4,0.2,0.8,0.6,0.4,0.2,0.8,1,0
,,66301c9c390de66737e2ae4c,66fc99e54ca15917b8ae9c8b,2024-10-01_20h57.57.012,mdp,2024.2.1,Linux x86_64,60.24096386,66fa4ebf79326e780c390304,,,,,,,,,,,,,,,,,,,,,642.0215,642.0215,642.0243,642.8701,0,0,left,0.3199,,642.8715,643.8376,1,0,right,643.8404,644.6367,0,0,left,1,644.6368,644.6368,644.6383,646.1369,0,11,11,11,1,0.8,0.2,0.4,0.6,,,,,,,,,,,,,,,0.4401,,0.4,0.6,0.6,0.4,0.2,0.8,0.2,0.8,,,0.2569,,0.6,0.4,0.2,0.8,0.6,0.4,0.2,0.8,1,0
,,66301c9c390de66737e2ae4c,66fc99e54ca15917b8ae9c8b,2024-10-01_20h57.57.012,mdp,2024.2.1,Linux x86_64,60.24096386,66fa4ebf79326e780c390304,,,,,,,,,,,,,,,,,,,,,646.1373,646.1375,646.1388,647.0532,0,0,left,0.3911,,647.0556,648.487,1,1,right,648.492,649.7697,1,0,right,1,649.7698,649.7698,649.7711,651.2693,0,12,12,12,1,0.8,0.2,0.4,0.6,,,,,,,,,,,,,,,0.9222,,0.4,0.6,0.6,0.4,0.2,0.8,0.2,0.8,,,0.746,,0.6,0.4,0.2,0.8,0.6,0.4,0.2,0.8,1,0
,,66301c9c390de66737e2ae4c,66fc99e54ca15917b8ae9c8b,2024-10-01_20h57.57.012,mdp,2024.2.1,Linux x86_64,60.24096386,66fa4ebf79326e780c390304,,,,,,,,,,,,,,,,,,,,,651.2698,651.2698,651.2711,652.1861,0,0,left,0.3891,,652.1874,653.2861,1,1,right,653.2874,654.2546,0,0,left,1,654.2547,654.2547,654.2582,655.7534,0,13,13,13,1,0.8,0.2,0.4,0.6,,,,,,,,,,,,,,,0.5683,,0.8,0.2,0.8,0.2,0.2,0.8,0.2,0.8,,,0.4405,,0.6,0.4,0.2,0.8,0.6,0.4,0.2,0.8,1,0
,,66301c9c390de66737e2ae4c,66fc99e54ca15917b8ae9c8b,2024-10-01_20h57.57.012,mdp,2024.2.1,Linux x86_64,60.24096386,66fa4ebf79326e780c390304,,,,,,,,,,,,,,,,,,,,,655.7544,655.7544,655.7586,656.6692,0,0,left,0.391,,656.6713,657.7529,1,1,right,657.7555,658.8693,0,0,left,1,658.8694,658.8694,658.8708,660.3702,0,14,14,14,1,0.8,0.2,0.4,0.6,,,,,,,,,,,,,,,0.5746,,0.8,0.2,0.8,0.2,0.2,0.8,0.2,0.8,,,0.5852,,0.6,0.4,0.2,0.8,0.6,0.4,0.2,0.8,1,0
,,66301c9c390de66737e2ae4c,66fc99e54ca15917b8ae9c8b,2024-10-01_20h57.57.012,mdp,2024.2.1,Linux x86_64,60.24096386,66fa4ebf79326e780c390304,,,,,,,,,,,,,,,,,,,,,660.3714,660.3717,660.3765,661.4859,0,0,left,0.5861,,661.4886,662.5356,1,0,right,662.537,663.536,0,0,left,1,663.5361,663.5361,663.5382,665.0355,0,15,15,15,1,0.8,0.2,0.4,0.6,,,,,,,,,,,,,,,0.5171,,0.8,0.2,0.8,0.2,0.2,0.8,0.2,0.8,,,0.4819,,0.6,0.4,0.2,0.8,0.6,0.4,0.2,0.8,1,0
,,66301c9c390de66737e2ae4c,66fc99e54ca15917b8ae9c8b,2024-10-01_20h57.57.012,mdp,2024.2.1,Linux x86_64,60.24096386,66fa4ebf79326e780c390304,,,,,,,,,,,,,,,,,,,,,665.0359,665.0359,665.0372,666.1187,0,0,left,0.5534,,666.1201,667.1689,1,0,right,667.1705,668.3688,0,1,left,0,668.3689,668.3689,668.3705,669.8691,0,16,16,16,1,0.8,0.2,0.4,0.6,,,,,,,,,,,,,,,0.5176,,0.8,0.2,0.8,0.2,0.2,0.8,0.2,0.8,,,0.6656,,0.6,0.4,0.2,0.8,0.6,0.4,0.2,0.8,1,0
,,66301c9c390de66737e2ae4c,66fc99e54ca15917b8ae9c8b,2024-10-01_20h57.57.012,mdp,2024.2.1,Linux x86_64,60.24096386,66fa4ebf79326e780c390304,,,,,,,,,,,,,,,,,,,,,669.8699,669.8699,669.8717,670.7372,0,0,left,0.3418,,670.74,671.8692,1,1,right,671.8721,673.2687,1,1,right,0,673.2688,673.2689,673.2706,674.7687,0,17,17,17,1,0.8,0.2,0.4,0.6,,,,,,,,,,,,,,,0.6052,,0.6,0.4,0.2,0.8,0.2,0.8,0.2,0.8,,,0.8697,,0.6,0.4,0.2,0.8,0.6,0.4,0.2,0.8,1,0
,,66301c9c390de66737e2ae4c,66fc99e54ca15917b8ae9c8b,2024-10-01_20h57.57.012,mdp,2024.2.1,Linux x86_64,60.24096386,66fa4ebf79326e780c390304,,,,,,,,,,,,,,,,,,,,,674.7696,674.7696,674.772,675.935,0,0,left,0.6349,,675.9363,677.003,1,1,right,677.0044,678.2849,1,1,right,0,678.2849,678.2849,678.2863,679.785,0,18,18,18,1,0.8,0.2,0.4,0.6,,,,,,,,,,,,,,,0.5361,,0.6,0.4,0.2,0.8,0.2,0.8,0.2,0.8,,,0.7482,,0.6,0.4,0.2,0.8,0.6,0.4,0.2,0.8,1,0
,,66301c9c390de66737e2ae4c,66fc99e54ca15917b8ae9c8b,2024-10-01_20h57.57.012,mdp,2024.2.1,Linux x86_64,60.24096386,66fa4ebf79326e780c390304,,,,,,,,,,,,,,,,,,,,,679.7854,679.7855,679.7869,680.6857,0,0,left,0.3687,,680.6871,681.7183,1,1,right,681.7198,683.2851,1,1,right,0,683.2853,683.2853,683.2881,684.7851,0,19,19,19,1,0.8,0.2,0.4,0.6,,,,,,,,,,,,,,,0.4996,,0.6,0.4,0.2,0.8,0.2,0.8,0.2,0.8,,,1.0331,,0.6,0.4,0.2,0.8,0.6,0.4,0.2,0.8,1,0
,,66301c9c390de66737e2ae4c,66fc99e54ca15917b8ae9c8b,2024-10-01_20h57.57.012,mdp,2024.2.1,Linux x86_64,60.24096386,66fa4ebf79326e780c390304,,,,,,,,,,,,,,,,,,,,,684.7856,684.7856,684.7869,685.5011,0,0,left,0.1834,,685.5026,687.0845,1,1,right,687.0859,687.9513,1,1,right,0,687.9515,687.9515,687.9531,689.4513,0,20,20,20,1,0.8,0.2,0.4,0.6,,,,,,,,,,,,,,,1.0706,,0.6,0.4,0.2,0.8,0.2,0.8,0.2,0.8,,,0.3385,,0.6,0.4,0.2,0.8,0.6,0.4,0.2,0.8,1,0
,,66301c9c390de66737e2ae4c,66fc99e54ca15917b8ae9c8b,2024-10-01_20h57.57.012,mdp,2024.2.1,Linux x86_64,60.24096386,66fa4ebf79326e780c390304,,,,,,,,,,,,,,,,,,,,,689.4519,689.4519,689.4536,690.3519,0,0,left,0.3638,,690.3538,691.468,1,1,right,691.4721,692.6509,1,1,right,0,692.6509,692.6509,692.6523,694.1521,0,21,21,21,1,0.8,0.2,0.4,0.6,,,,,,,,,,,,,,,0.599,,0.4,0.6,0.8,0.2,0.2,0.8,0.2,0.8,,,0.6509,,0.6,0.4,0.2,0.8,0.6,0.4,0.2,0.8,1,0
,,66301c9c390de66737e2ae4c,66fc99e54ca15917b8ae9c8b,2024-10-01_20h57.57.012,mdp,2024.2.1,Linux x86_64,60.24096386,66fa4ebf79326e780c390304,,,,,,,,,,,,,,,,,,,,,694.1541,694.1542,694.1572,695.0509,0,1,left,0.3682,,695.0525,697.2006,0,0,left,697.2129,698.4338,0,1,left,0,698.434,698.434,698.4352,699.934,0,22,22,22,1,0.8,0.2,0.4,0.6,,,,,,,,,,,,,,,1.608,,0.4,0.6,0.8,0.2,0.2,0.8,0.2,0.8,,,0.6824,,0.6,0.4,0.2,0.8,0.6,0.4,0.2,0.8,1,0
,,66301c9c390de66737e2ae4c,66fc99e54ca15917b8ae9c8b,2024-10-01_20h57.57.012,mdp,2024.2.1,Linux x86_64,60.24096386,66fa4ebf79326e780c390304,,,,,,,,,,,,,,,,,,,,,699.9345,699.9345,699.9363,700.8838,0,0,left,0.4223,,700.8862,702.0337,1,0,right,702.0352,703.7008,0,0,left,1,703.7008,703.7008,703.7022,705.2006,0,23,23,23,1,0.8,0.2,0.4,0.6,,,,,,,,,,,,,,,0.6154,,0.4,0.6,0.8,0.2,0.2,0.8,0.2,0.8,,,1.1574,,0.6,0.4,0.2,0.8,0.6,0.4,0.2,0.8,1,0
,,66301c9c390de66737e2ae4c,66fc99e54ca15917b8ae9c8b,2024-10-01_20h57.57.012,mdp,2024.2.1,Linux x86_64,60.24096386,66fa4ebf79326e780c390304,,,,,,,,,,,,,,,,,,,,,705.2014,705.2014,705.2028,706.1507,0,0,left,0.419,,706.1536,707.5338,1,0,right,707.5364,708.8003,0,0,left,1,708.8005,708.8005,708.8017,710.3007,0,24,24,24,1,0.8,0.2,0.4,0.6,,,,,,,,,,,,,,,0.8554,,0.4,0.6,0.8,0.2,0.2,0.8,0.2,0.8,,,0.736,,0.6,0.4,0.2,0.8,0.6,0.4,0.2,0.8,1,0
,,66301c9c390de66737e2ae4c,66fc99e54ca15917b8ae9c8b,2024-10-01_20h57.57.012,mdp,2024.2.1,Linux x86_64,60.24096386,66fa4ebf79326e780c390304,,,,,,,,,,,,,,,,,,,,,710.3019,710.302,710.3073,711.5166,0,0,left,0.6879,,711.518,712.6342,1,0,right,712.6356,713.7833,0,0,left,1,713.7833,713.7834,713.7847,715.2784,0,25,25,25,1,0.8,0.2,0.4,0.6,,,,,,,,,,,,,,,0.5985,,0.4,0.6,0.8,0.2,0.2,0.8,0.2,0.8,,,0.6224,,0.6,0.4,0.2,0.8,0.6,0.4,0.2,0.8,1,0
,,66301c9c390de66737e2ae4c,66fc99e54ca15917b8ae9c8b,2024-10-01_20h57.57.012,mdp,2024.2.1,Linux x86_64,60.24096386,66fa4ebf79326e780c390304,,,,,,,,,,,,,,,,,,,,,715.28,715.28,715.2816,716.2998,0,0,left,0.5016,,716.3015,717.4501,1,0,right,717.452,718.7331,0,0,left,1,718.7331,718.7331,718.735,720.2332,0,26,26,26,1,0.8,0.2,0.4,0.6,,,,,,,,,,,,,,,0.6204,,0.4,0.6,0.8,0.2,0.2,0.8,0.2,0.8,,,0.7532,,0.6,0.4,0.2,0.8,0.6,0.4,0.2,0.8,1,0
,,66301c9c390de66737e2ae4c,66fc99e54ca15917b8ae9c8b,2024-10-01_20h57.57.012,mdp,2024.2.1,Linux x86_64,60.24096386,66fa4ebf79326e780c390304,,,,,,,,,,,,,,,,,,,,,720.2341,720.2342,720.2366,721.4536,0,1,left,0.695,0.0002,721.4579,722.7664,1,1,right,722.7677,724.2329,0,0,left,1,724.233,724.233,724.2344,725.7329,0,27,27,27,1,0.4,0.6,0.8,0.2,,,,,,,,,,,,,,,0.7802,,0.4,0.6,0.8,0.2,0.2,0.8,0.2,0.8,,,0.9272,,0.6,0.4,0.2,0.8,0.6,0.4,0.2,0.8,1,0
,,66301c9c390de66737e2ae4c,66fc99e54ca15917b8ae9c8b,2024-10-01_20h57.57.012,mdp,2024.2.1,Linux x86_64,60.24096386,66fa4ebf79326e780c390304,,,,,,,,,,,,,,,,,,,,,725.7333,725.7333,725.7347,726.7133,0,1,left,0.4601,,726.7167,727.8663,1,1,right,727.8679,729.017,0,0,left,1,729.017,729.017,729.0184,730.5161,0,28,28,28,1,0.4,0.6,0.8,0.2,,,,,,,,,,,,,,,0.6345,,0.4,0.6,0.8,0.2,0.2,0.8,0.2,0.8,,,0.6285,,0.6,0.4,0.2,0.8,0.6,0.4,0.2,0.8,1,0
,,66301c9c390de66737e2ae4c,66fc99e54ca15917b8ae9c8b,2024-10-01_20h57.57.012,mdp,2024.2.1,Linux x86_64,60.24096386,66fa4ebf79326e780c390304,,,,,,,,,,,,,,,,,,,,,730.5167,730.5167,730.5185,731.5993,0,1,left,0.5559,,731.6012,732.966,0,1,left,732.9676,734.3666,1,0,right,1,734.3667,734.3668,734.3693,735.8655,0,29,29,29,1,0.4,0.6,0.8,0.2,,,,,,,,,,,,,,,0.8465,,0.4,0.6,0.8,0.2,0.2,0.8,0.2,0.8,,,0.8732,,0.6,0.4,0.2,0.8,0.6,0.4,0.2,0.8,1,0
,,66301c9c390de66737e2ae4c,66fc99e54ca15917b8ae9c8b,2024-10-01_20h57.57.012,mdp,2024.2.1,Linux x86_64,60.24096386,66fa4ebf79326e780c390304,,,,,,,,,,,,,,,,,,,,,735.866,735.866,735.8674,736.8658,0,1,left,0.4702,,736.8672,738.1493,1,1,right,738.1508,739.2002,0,0,left,1,739.2003,739.2004,739.2028,740.6988,0,30,30,30,1,0.4,0.6,0.8,0.2,,,,,,,,,,,,,,,0.7504,,0.4,0.6,0.8,0.2,0.2,0.8,0.2,0.8,,,0.5346,,0.6,0.4,0.2,0.8,0.6,0.4,0.2,0.8,1,0
,,66301c9c390de66737e2ae4c,66fc99e54ca15917b8ae9c8b,2024-10-01_20h57.57.012,mdp,2024.2.1,Linux x86_64,60.24096386,66fa4ebf79326e780c390304,,,,,,,,,,,,,,,,,,,,,740.6996,740.6996,740.702,741.7166,0,1,left,0.4877,,741.7201,742.8492,1,1,right,742.8508,744.2488,0,0,left,1,744.2488,744.2488,744.2502,745.7488,0,31,31,31,1,0.4,0.6,0.8,0.2,,,,,,,,,,,,,,,0.6015,,0.4,0.6,0.8,0.2,0.2,0.8,0.2,0.8,,,0.8697,,0.6,0.4,0.2,0.8,0.6,0.4,0.2,0.8,1,0
,,66301c9c390de66737e2ae4c,66fc99e54ca15917b8ae9c8b,2024-10-01_20h57.57.012,mdp,2024.2.1,Linux x86_64,60.24096386,66fa4ebf79326e780c390304,,,,,,,,,,,,,,,,,,,,,745.7499,745.7499,745.753,746.665,0,0,left,0.385,,746.6664,747.7162,0,1,left,747.7177,748.6481,1,1,right,0,748.6482,748.6482,748.6495,750.1495,0,32,32,32,1,0.4,0.6,0.8,0.2,,,,,,,,,,,,,,,0.497,,0.4,0.6,0.8,0.2,0.2,0.8,0.2,0.8,,,0.3631,,0.6,0.4,0.2,0.8,0.6,0.4,0.2,0.8,1,0
,,66301c9c390de66737e2ae4c,66fc99e54ca15917b8ae9c8b,2024-10-01_20h57.57.012,mdp,2024.2.1,Linux x86_64,60.24096386,66fa4ebf79326e780c390304,,,,,,,,,,,,,,,,,,,,,750.1505,750.1506,750.1531,750.9985,0,0,left,0.3178,,750.9999,751.8481,1,0,right,751.8495,752.7162,0,0,left,1,752.7164,752.7164,752.7194,754.2149,0,33,33,33,1,0.4,0.6,0.8,0.2,,,,,,,,,,,,,,,0.3342,,0.4,0.6,0.8,0.2,0.2,0.8,0.2,0.8,,,0.3327,,0.6,0.4,0.2,0.8,0.6,0.4,0.2,0.8,1,0
,,66301c9c390de66737e2ae4c,66fc99e54ca15917b8ae9c8b,2024-10-01_20h57.57.012,mdp,2024.2.1,Linux x86_64,60.24096386,66fa4ebf79326e780c390304,,,,,,,,,,,,,,,,,,,,,754.2155,754.2155,754.2168,755.1992,0,1,left,0.4518,,755.2009,756.1668,1,1,right,756.1701,757.0649,0,0,left,1,757.0652,757.0652,757.0674,758.5652,0,34,34,34,1,0.4,0.6,0.8,0.2,,,,,,,,,,,,,,,0.4395,,0.4,0.6,0.8,0.2,0.2,0.8,0.2,0.8,,,0.3643,,0.6,0.4,0.2,0.8,0.6,0.4,0.2,0.8,1,0
,,66301c9c390de66737e2ae4c,66fc99e54ca15917b8ae9c8b,2024-10-01_20h57.57.012,mdp,2024.2.1,Linux x86_64,60.24096386,66fa4ebf79326e780c390304,,,,,,,,,,,,,,,,,,,,,758.5662,758.5663,758.5695,759.4319,0,1,left,0.3345,,759.4347,760.3651,1,1,right,760.3668,761.4819,1,1,right,0,761.4827,761.4827,761.4843,762.9814,0,35,35,35,1,0.4,0.6,0.8,0.2,,,,,,,,,,,,,,,0.4028,,0.4,0.6,0.8,0.2,0.2,0.8,0.2,0.8,,,0.5917,,0.6,0.4,0.2,0.8,0.6,0.4,0.2,0.8,1,0
,,66301c9c390de66737e2ae4c,66fc99e54ca15917b8ae9c8b,2024-10-01_20h57.57.012,mdp,2024.2.1,Linux x86_64,60.24096386,66fa4ebf79326e780c390304,,,,,,,,,,,,,,,,,,,,,762.9819,762.9819,762.9831,764.0318,0,0,left,0.5213,,764.0357,765.1147,1,0,right,765.1162,766.148,0,1,left,0,766.1482,766.1482,766.1526,767.6474,0,36,36,36,1,0.4,0.6,0.8,0.2,,,,,,,,,,,,,,,0.5406,,0.4,0.6,0.8,0.2,0.2,0.8,0.2,0.8,,,0.5018,,0.6,0.4,0.2,0.8,0.6,0.4,0.2,0.8,1,0
,,66301c9c390de66737e2ae4c,66fc99e54ca15917b8ae9c8b,2024-10-01_20h57.57.012,mdp,2024.2.1,Linux x86_64,60.24096386,66fa4ebf79326e780c390304,,,,,,,,,,,,,,,,,,,,,767.6479,767.6479,767.6492,768.464,0,0,left,0.2899,,768.4659,769.298,1,0,right,769.3007,770.0811,0,0,left,1,770.0812,770.0812,770.0826,771.5818,0,37,37,37,1,0.4,0.6,0.8,0.2,,,,,,,,,,,,,,,0.3188,,0.4,0.6,0.8,0.2,0.2,0.8,0.2,0.8,,,0.2511,,0.8,0.2,0.8,0.2,0.6,0.4,0.2,0.8,1,0
,,66301c9c390de66737e2ae4c,66fc99e54ca15917b8ae9c8b,2024-10-01_20h57.57.012,mdp,2024.2.1,Linux x86_64,60.24096386,66fa4ebf79326e780c390304,,,,,,,,,,,,,,,,,,,,,771.5824,771.5824,771.5838,772.4474,0,1,left,0.3323,,772.4492,773.3144,0,0,left,773.3191,774.1638,1,1,right,0,774.1639,774.1639,774.1652,775.6636,0,38,38,38,1,0.4,0.6,0.8,0.2,,,,,,,,,,,,,,,0.3497,,0.4,0.6,0.8,0.2,0.2,0.8,0.2,0.8,,,0.3197,,0.8,0.2,0.8,0.2,0.6,0.4,0.2,0.8,1,0
,,66301c9c390de66737e2ae4c,66fc99e54ca15917b8ae9c8b,2024-10-01_20h57.57.012,mdp,2024.2.1,Linux x86_64,60.24096386,66fa4ebf79326e780c390304,,,,,,,,,,,,,,,,,,,,,775.6642,775.6642,775.6655,776.4972,0,0,left,0.3019,,776.4985,777.4806,1,0,right,777.4823,778.3636,0,0,left,1,778.3636,778.3636,778.365,779.8647,0,39,39,39,1,0.4,0.6,0.8,0.2,,,,,,,,,,,,,,,0.4541,,0.4,0.6,0.8,0.2,0.8,0.2,0.6,0.4,,,0.3515,,0.8,0.2,0.8,0.2,0.6,0.4,0.2,0.8,1,0
,,66301c9c390de66737e2ae4c,66fc99e54ca15917b8ae9c8b,2024-10-01_20h57.57.012,mdp,2024.2.1,Linux x86_64,60.24096386,66fa4ebf79326e780c390304,,,,,,,,,,,,,,,,,,,,,779.8663,779.8664,779.8714,780.7307,0,0,left,0.333,,780.7334,781.8513,1,0,right,781.8542,782.8148,0,0,left,1,782.8149,782.8149,782.8175,784.3133,0,40,40,40,1,0.4,0.6,0.8,0.2,,,,,,,,,,,,,,,0.59,,0.4,0.6,0.8,0.2,0.8,0.2,0.6,0.4,,,0.4312,,0.8,0.2,0.8,0.2,0.6,0.4,0.2,0.8,1,0
,,66301c9c390de66737e2ae4c,66fc99e54ca15917b8ae9c8b,2024-10-01_20h57.57.012,mdp,2024.2.1,Linux x86_64,60.24096386,66fa4ebf79326e780c390304,,,,,,,,,,,,,,,,,,,,,784.3138,784.3138,784.3151,785.4307,0,1,left,0.5881,,785.4342,786.5806,1,1,right,786.5841,787.5969,0,1,left,0,787.5969,787.5969,787.5983,789.0977,0,41,41,41,1,0.4,0.6,0.8,0.2,,,,,,,,,,,,,,,0.61,,0.4,0.6,0.8,0.2,0.8,0.2,0.6,0.4,,,0.4796,,0.8,0.2,0.8,0.2,0.6,0.4,0.2,0.8,1,0
,,66301c9c390de66737e2ae4c,66fc99e54ca15917b8ae9c8b,2024-10-01_20h57.57.012,mdp,2024.2.1,Linux x86_64,60.24096386,66fa4ebf79326e780c390304,,,,,,,,,,,,,,,,,,,,,789.0983,789.0983,789.0997,790.0466,0,1,left,0.4198,,790.0498,791.2305,1,0,right,791.2322,792.3533,0,0,left,1,792.3535,792.3535,792.3549,793.847,0,42,42,42,1,0.4,0.6,0.8,0.2,,,,,,,,,,,,,,,0.6475,,0.4,0.6,0.8,0.2,0.8,0.2,0.6,0.4,,,0.6075,,0.8,0.2,0.8,0.2,0.6,0.4,0.2,0.8,1,0
,,66301c9c390de66737e2ae4c,66fc99e54ca15917b8ae9c8b,2024-10-01_20h57.57.012,mdp,2024.2.1,Linux x86_64,60.24096386,66fa4ebf79326e780c390304,,,,,,,,,,,,,,,,,,,,,793.8481,793.8482,793.8503,794.7968,0,1,left,0.4251,,794.7983,795.7796,1,0,right,795.7813,796.8134,0,1,left,0,796.8134,796.8134,796.8151,798.3135,0,43,43,43,1,0.4,0.6,0.8,0.2,,,,,,,,,,,,,,,0.4515,,0.4,0.6,0.8,0.2,0.8,0.2,0.6,0.4,,,0.5039,,0.8,0.2,0.8,0.2,0.6,0.4,0.2,0.8,1,0
,,66301c9c390de66737e2ae4c,66fc99e54ca15917b8ae9c8b,2024-10-01_20h57.57.012,mdp,2024.2.1,Linux x86_64,60.24096386,66fa4ebf79326e780c390304,,,,,,,,,,,,,,,,,,,,,798.3146,798.3146,798.3171,799.246,0,0,left,0.4029,,799.2492,800.3459,1,1,right,800.3473,801.7456,1,1,right,0,801.7457,801.7457,801.7474,803.2461,0,44,44,44,1,0.4,0.6,0.8,0.2,,,,,,,,,,,,,,,0.5782,,0.6,0.4,0.6,0.4,0.8,0.2,0.6,0.4,,,0.8681,,0.8,0.2,0.8,0.2,0.6,0.4,0.2,0.8,1,0
,,66301c9c390de66737e2ae4c,66fc99e54ca15917b8ae9c8b,2024-10-01_20h57.57.012,mdp,2024.2.1,Linux x86_64,60.24096386,66fa4ebf79326e780c390304,,,,,,,,,,,,,,,,,,,,,803.2466,803.2466,803.2482,804.1632,0,1,left,0.3845,,804.1645,805.2123,1,1,right,805.2138,806.4291,0,0,left,1,806.4291,806.4291,806.431,807.9289,0,45,45,45,1,0.4,0.6,0.8,0.2,,,,,,,,,,,,,,,0.5131,,0.6,0.4,0.6,0.4,0.8,0.2,0.6,0.4,,,0.6867,,0.8,0.2,0.8,0.2,0.6,0.4,0.2,0.8,1,0
,,66301c9c390de66737e2ae4c,66fc99e54ca15917b8ae9c8b,2024-10-01_20h57.57.012,mdp,2024.2.1,Linux x86_64,60.24096386,66fa4ebf79326e780c390304,,,,,,,,,,,,,,,,,,,,,807.9294,807.9294,807.9307,808.8954,0,0,left,0.4321,,808.8967,809.8635,1,0,right,809.8669,811.4287,1,0,right,1,811.4288,811.4288,811.43,812.93,0,46,46,46,1,0.4,0.6,0.8,0.2,,,,,,,,,,,,,,,0.4484,,0.6,0.4,0.6,0.4,0.8,0.2,0.6,0.4,,,1.0258,,0.8,0.2,0.8,0.2,0.6,0.4,0.2,0.8,1,0
,,66301c9c390de66737e2ae4c,66fc99e54ca15917b8ae9c8b,2024-10-01_20h57.57.012,mdp,2024.2.1,Linux x86_64,60.24096386,66fa4ebf79326e780c390304,,,,,,,,,,,,,,,,,,,,,812.9327,812.9327,812.9341,813.8453,0,1,left,0.388,,813.8468,814.9286,1,1,right,814.9308,816.5451,0,1,left,0,816.5452,816.5452,816.5465,818.0451,0,47,47,47,1,0.4,0.6,0.8,0.2,,,,,,,,,,,,,,,0.5491,,0.6,0.4,0.6,0.4,0.8,0.2,0.6,0.4,,,1.0812,,0.8,0.2,0.8,0.2,0.6,0.4,0.2,0.8,1,0
,,66301c9c390de66737e2ae4c,66fc99e54ca15917b8ae9c8b,2024-10-01_20h57.57.012,mdp,2024.2.1,Linux x86_64,60.24096386,66fa4ebf79326e780c390304,,,,,,,,,,,,,,,,,,,,,818.0456,818.0457,818.047,818.8791,0,0,left,0.2994,,818.8805,819.695,1,0,right,819.6964,820.5286,0,0,left,1,820.5287,820.5287,820.5309,822.0292,0,48,48,48,1,0.4,0.6,0.8,0.2,,,,,,,,,,,,,,,0.2788,,0.6,0.4,0.6,0.4,0.8,0.2,0.6,0.4,,,0.3082,,0.8,0.2,0.8,0.2,0.6,0.4,0.2,0.8,1,0
,,66301c9c390de66737e2ae4c,66fc99e54ca15917b8ae9c8b,2024-10-01_20h57.57.012,mdp,2024.2.1,Linux x86_64,60.24096386,66fa4ebf79326e780c390304,,,,,,,,,,,,,,,,,,,,,822.0302,822.0303,822.0331,825.2459,0,1,left,2.6823,,825.2694,826.0791,0,0,left,826.0816,826.8615,1,0,right,1,826.8617,826.8617,826.8642,828.3615,0,49,49,49,1,0.4,0.6,0.8,0.2,,,,,,,,,,,,,,,0.2961,,0.6,0.4,0.6,0.4,0.8,0.2,0.6,0.4,,,0.2492,,0.8,0.2,0.8,0.2,0.6,0.4,0.2,0.8,1,0
,,66301c9c390de66737e2ae4c,66fc99e54ca15917b8ae9c8b,2024-10-01_20h57.57.012,mdp,2024.2.1,Linux x86_64,60.24096386,66fa4ebf79326e780c390304,,,,,,,,,,,,,,,,,,,,,,,,,,,,,,,,,,,,,,,,,,,,,,,,,,,,,,,,828.3764,886.8757,0,2,2,0,1,imgs/cat.png,imgs/giraffe.png,imgs/lion.png,imgs/rabbit.png,imgs/kangaroo.png,,,,,,,,,,,,,,,,,,,,,,,,
,,66301c9c390de66737e2ae4c,66fc99e54ca15917b8ae9c8b,2024-10-01_20h57.57.012,mdp,2024.2.1,Linux x86_64,60.24096386,66fa4ebf79326e780c390304,,,,,,,,,,,,,,3,seqs/st3seq4.csv,886.8873,896.9005,space,9.4956,,896.934,896.934,896.9367,898.5912,0,1,left,1.1308,,898.5931,900.0249,1,1,right,900.0284,902.3746,1,1,right,0,902.3747,902.3747,902.3761,903.875,0,0,0,0,1,0.8,0.2,0.2,0.8,,,,,,,,,,,,,,,0.8885,,0.8,0.2,0.8,0.2,0.4,0.6,0.6,0.4,,,1.7663,,0.8,0.2,0.4,0.6,0.2,0.8,0.6,0.4,1,0
,,66301c9c390de66737e2ae4c,66fc99e54ca15917b8ae9c8b,2024-10-01_20h57.57.012,mdp,2024.2.1,Linux x86_64,60.24096386,66fa4ebf79326e780c390304,,,,,,,,,,,,,,,,,,,,,903.8761,903.8762,903.8794,904.9578,0,1,left,0.5478,,904.9603,906.0245,1,0,right,906.0261,907.5094,0,1,left,0,907.5096,907.5096,907.5122,909.0078,0,1,1,1,1,0.8,0.2,0.2,0.8,,,,,,,,,,,,,,,0.55,,0.8,0.2,0.8,0.2,0.4,0.6,0.6,0.4,,,0.9579,,0.8,0.2,0.4,0.6,0.2,0.8,0.6,0.4,1,0
,,66301c9c390de66737e2ae4c,66fc99e54ca15917b8ae9c8b,2024-10-01_20h57.57.012,mdp,2024.2.1,Linux x86_64,60.24096386,66fa4ebf79326e780c390304,,,,,,,,,,,,,,,,,,,,,909.0084,909.0084,909.0103,909.9927,0,0,left,0.4497,,909.9967,910.8418,0,1,left,910.8441,912.1909,1,0,right,1,912.1909,912.1909,912.193,913.6912,0,2,2,2,1,0.8,0.2,0.2,0.8,,,,,,,,,,,,,,,0.2978,,0.8,0.2,0.8,0.2,0.4,0.6,0.6,0.4,,,0.8109,,0.8,0.2,0.4,0.6,0.2,0.8,0.6,0.4,1,0
,,66301c9c390de66737e2ae4c,66fc99e54ca15917b8ae9c8b,2024-10-01_20h57.57.012,mdp,2024.2.1,Linux x86_64,60.24096386,66fa4ebf79326e780c390304,,,,,,,,,,,,,,,,,,,,,913.6922,913.6922,913.6944,914.5408,0,0,left,0.3183,,914.5428,915.7916,0,0,left,915.7952,917.2582,0,1,left,0,917.2584,917.2584,917.2614,918.7573,0,3,3,3,1,0.8,0.2,0.2,0.8,,,,,,,,,,,,,,,0.738,,0.8,0.2,0.8,0.2,0.4,0.6,0.6,0.4,,,0.9376,,0.8,0.2,0.4,0.6,0.2,0.8,0.6,0.4,1,0
,,66301c9c390de66737e2ae4c,66fc99e54ca15917b8ae9c8b,2024-10-01_20h57.57.012,mdp,2024.2.1,Linux x86_64,60.24096386,66fa4ebf79326e780c390304,,,,,,,,,,,,,,,,,,,,,918.7579,918.7579,918.7598,919.6596,0,0,left,0.3739,,919.661,920.5739,0,0,left,920.5757,921.3905,1,1,right,0,921.3906,921.3906,921.3919,922.892,0,4,4,4,1,0.8,0.2,0.2,0.8,,,,,,,,,,,,,,,0.3885,,0.8,0.2,0.8,0.2,0.4,0.6,0.6,0.4,,,0.3008,,0.8,0.2,0.4,0.6,0.2,0.8,0.6,0.4,1,0
,,66301c9c390de66737e2ae4c,66fc99e54ca15917b8ae9c8b,2024-10-01_20h57.57.012,mdp,2024.2.1,Linux x86_64,60.24096386,66fa4ebf79326e780c390304,,,,,,,,,,,,,,,,,,,,,922.8929,922.893,922.8953,923.8084,0,0,left,0.3857,,923.8099,924.6571,1,1,right,924.6596,925.407,0,1,left,0,925.4071,925.4072,925.4085,926.9077,0,5,5,5,1,0.8,0.2,0.2,0.8,,,,,,,,,,,,,,,0.3214,,0.8,0.2,0.8,0.2,0.4,0.6,0.6,0.4,,,0.231,,0.8,0.2,0.4,0.6,0.2,0.8,0.6,0.4,1,0
,,66301c9c390de66737e2ae4c,66fc99e54ca15917b8ae9c8b,2024-10-01_20h57.57.012,mdp,2024.2.1,Linux x86_64,60.24096386,66fa4ebf79326e780c390304,,,,,,,,,,,,,,,,,,,,,926.9093,926.9093,926.9121,928.0068,0,0,left,0.5653,,928.0081,929.4898,0,0,left,929.4913,931.2401,1,0,right,1,931.2402,931.2402,931.2416,932.7406,0,6,6,6,1,0.8,0.2,0.2,0.8,,,,,,,,,,,,,,,0.9517,,0.8,0.2,0.8,0.2,0.4,0.6,0.6,0.4,,,1.2136,,0.8,0.2,0.4,0.6,0.2,0.8,0.6,0.4,1,0
,,66301c9c390de66737e2ae4c,66fc99e54ca15917b8ae9c8b,2024-10-01_20h57.57.012,mdp,2024.2.1,Linux x86_64,60.24096386,66fa4ebf79326e780c390304,,,,,,,,,,,,,,,,,,,,,932.7411,932.7411,932.7426,933.6734,0,1,left,0.3992,,933.6757,935.9912,1,0,right,935.9946,937.1576,0,0,left,1,937.1577,937.1577,937.16,938.6562,0,7,7,7,1,0.8,0.2,0.2,0.8,,,,,,,,,,,,,,,1.779,,0.8,0.2,0.8,0.2,0.4,0.6,0.6,0.4,,,0.6371,,0.8,0.2,0.4,0.6,0.2,0.8,0.6,0.4,1,0
,,66301c9c390de66737e2ae4c,66fc99e54ca15917b8ae9c8b,2024-10-01_20h57.57.012,mdp,2024.2.1,Linux x86_64,60.24096386,66fa4ebf79326e780c390304,,,,,,,,,,,,,,,,,,,,,938.6567,938.6567,938.658,939.6895,0,0,left,0.5058,,939.6925,942.5232,0,0,left,942.5261,943.8728,1,0,right,1,943.8729,943.8729,943.8744,945.3726,0,8,8,8,1,0.8,0.2,0.2,0.8,,,,,,,,,,,,,,,2.2977,,0.8,0.2,0.8,0.2,0.4,0.6,0.6,0.4,,,0.8171,,0.8,0.2,0.4,0.6,0.2,0.8,0.6,0.4,1,0
,,66301c9c390de66737e2ae4c,66fc99e54ca15917b8ae9c8b,2024-10-01_20h57.57.012,mdp,2024.2.1,Linux x86_64,60.24096386,66fa4ebf79326e780c390304,,,,,,,,,,,,,,,,,,,,,945.3731,945.3731,945.3744,946.2396,0,0,left,0.3331,,946.2413,947.3399,0,1,left,947.3429,949.0061,0,0,left,1,949.0061,949.0061,949.0086,950.5065,0,9,9,9,1,0.8,0.2,0.2,0.8,,,,,,,,,,,,,,,0.5715,,0.8,0.2,0.8,0.2,0.4,0.6,0.6,0.4,,,1.1281,,0.8,0.2,0.4,0.6,0.2,0.8,0.6,0.4,1,0
,,66301c9c390de66737e2ae4c,66fc99e54ca15917b8ae9c8b,2024-10-01_20h57.57.012,mdp,2024.2.1,Linux x86_64,60.24096386,66fa4ebf79326e780c390304,,,,,,,,,,,,,,,,,,,,,950.5074,950.5074,950.5089,951.3063,0,0,left,0.2688,,951.3089,952.2724,0,0,left,952.2746,954.4722,1,0,right,1,954.4723,954.4723,954.4736,955.972,0,10,10,10,1,0.8,0.2,0.2,0.8,,,,,,,,,,,,,,,0.4405,,0.8,0.2,0.8,0.2,0.4,0.6,0.6,0.4,,,1.6803,,0.8,0.2,0.4,0.6,0.2,0.8,0.6,0.4,1,0
,,66301c9c390de66737e2ae4c,66fc99e54ca15917b8ae9c8b,2024-10-01_20h57.57.012,mdp,2024.2.1,Linux x86_64,60.24096386,66fa4ebf79326e780c390304,,,,,,,,,,,,,,,,,,,,,955.9725,955.9725,955.9739,956.8721,0,0,left,0.3753,,956.8746,957.7236,0,0,left,957.7285,959.7386,1,1,right,0,959.7387,959.7387,959.7403,961.2385,0,11,11,11,1,0.8,0.2,0.2,0.8,,,,,,,,,,,,,,,0.3345,,0.8,0.2,0.8,0.2,0.4,0.6,0.6,0.4,,,1.4837,,0.8,0.2,0.4,0.6,0.2,0.8,0.6,0.4,1,0
,,66301c9c390de66737e2ae4c,66fc99e54ca15917b8ae9c8b,2024-10-01_20h57.57.012,mdp,2024.2.1,Linux x86_64,60.24096386,66fa4ebf79326e780c390304,,,,,,,,,,,,,,,,,,,,,961.239,961.239,961.2403,962.1221,0,0,left,0.3474,,962.1235,962.972,0,0,left,962.9745,963.9718,1,1,right,0,963.9719,963.972,963.9733,965.4718,0,12,12,12,1,0.8,0.2,0.2,0.8,,,,,,,,,,,,,,,0.3198,,0.8,0.2,0.8,0.2,0.4,0.6,0.6,0.4,,,0.4822,,0.8,0.2,0.4,0.6,0.2,0.8,0.6,0.4,1,0
,,66301c9c390de66737e2ae4c,66fc99e54ca15917b8ae9c8b,2024-10-01_20h57.57.012,mdp,2024.2.1,Linux x86_64,60.24096386,66fa4ebf79326e780c390304,,,,,,,,,,,,,,,,,,,,,965.4723,965.4723,965.4738,966.3225,0,0,left,0.3207,,966.3265,967.0385,0,0,left,967.0401,968.0882,0,1,left,0,968.0883,968.0883,968.0897,969.5886,0,13,13,13,1,0.8,0.2,0.2,0.8,,,,,,,,,,,,,,,0.1665,,0.8,0.2,0.8,0.2,0.4,0.6,0.6,0.4,,,0.4945,,0.2,0.8,0.6,0.4,0.2,0.8,0.6,0.4,1,0
,,66301c9c390de66737e2ae4c,66fc99e54ca15917b8ae9c8b,2024-10-01_20h57.57.012,mdp,2024.2.1,Linux x86_64,60.24096386,66fa4ebf79326e780c390304,,,,,,,,,,,,,,,,,,,,,969.5891,969.5891,969.5907,970.455,0,0,left,0.3365,,970.4565,971.3381,0,1,left,971.3395,972.9387,1,0,right,1,972.9389,972.9389,972.942,974.4384,0,14,14,14,1,0.8,0.2,0.2,0.8,,,,,,,,,,,,,,,0.3531,,0.8,0.2,0.8,0.2,0.4,0.6,0.6,0.4,,,1.0686,,0.2,0.8,0.6,0.4,0.2,0.8,0.6,0.4,1,0
,,66301c9c390de66737e2ae4c,66fc99e54ca15917b8ae9c8b,2024-10-01_20h57.57.012,mdp,2024.2.1,Linux x86_64,60.24096386,66fa4ebf79326e780c390304,,,,,,,,,,,,,,,,,,,,,974.4394,974.4394,974.4425,975.3215,0,0,left,0.3493,,975.3229,976.3054,0,0,left,976.3072,977.7052,0,0,left,1,977.7053,977.7053,977.7068,979.2049,0,15,15,15,1,0.8,0.2,0.2,0.8,,,,,,,,,,,,,,,0.4503,,0.8,0.2,0.8,0.2,0.4,0.6,0.6,0.4,,,0.8664,,0.2,0.8,0.6,0.4,0.2,0.8,0.6,0.4,1,0
,,66301c9c390de66737e2ae4c,66fc99e54ca15917b8ae9c8b,2024-10-01_20h57.57.012,mdp,2024.2.1,Linux x86_64,60.24096386,66fa4ebf79326e780c390304,,,,,,,,,,,,,,,,,,,,,979.2058,979.2058,979.2085,980.0881,0,0,left,0.3502,,980.0925,980.9713,0,1,left,980.9738,982.0377,1,0,right,1,982.0378,982.0378,982.0392,983.5382,0,16,16,16,1,0.8,0.2,0.2,0.8,,,,,,,,,,,,,,,0.3522,,0.8,0.2,0.8,0.2,0.4,0.6,0.6,0.4,,,0.5231,,0.2,0.8,0.6,0.4,0.6,0.4,0.8,0.2,1,0
,,66301c9c390de66737e2ae4c,66fc99e54ca15917b8ae9c8b,2024-10-01_20h57.57.012,mdp,2024.2.1,Linux x86_64,60.24096386,66fa4ebf79326e780c390304,,,,,,,,,,,,,,,,,,,,,983.5386,983.5386,983.54,984.3373,0,0,left,0.267,,984.339,985.2218,0,0,left,985.2236,986.5047,0,1,left,0,986.5049,986.5049,986.5088,988.0042,0,17,17,17,1,0.8,0.2,0.2,0.8,,,,,,,,,,,,,,,0.3687,,0.8,0.2,0.8,0.2,0.4,0.6,0.6,0.4,,,0.7513,,0.2,0.8,0.6,0.4,0.6,0.4,0.8,0.2,1,0
,,66301c9c390de66737e2ae4c,66fc99e54ca15917b8ae9c8b,2024-10-01_20h57.57.012,mdp,2024.2.1,Linux x86_64,60.24096386,66fa4ebf79326e780c390304,,,,,,,,,,,,,,,,,,,,,988.0047,988.0047,988.006,988.8544,0,0,left,0.3338,,988.8559,989.6539,0,0,left,989.6553,990.7537,1,0,right,1,990.7543,990.7543,990.7556,992.2547,0,18,18,18,1,0.8,0.2,0.2,0.8,,,,,,,,,,,,,,,0.2712,,0.8,0.2,0.8,0.2,0.4,0.6,0.6,0.4,,,0.5797,,0.2,0.8,0.6,0.4,0.6,0.4,0.8,0.2,1,0
,,66301c9c390de66737e2ae4c,66fc99e54ca15917b8ae9c8b,2024-10-01_20h57.57.012,mdp,2024.2.1,Linux x86_64,60.24096386,66fa4ebf79326e780c390304,,,,,,,,,,,,,,,,,,,,,992.256,992.256,992.2595,993.0872,0,1,left,0.3006,,993.0889,993.9517,0,0,left,993.9533,995.0038,1,0,right,1,995.0039,995.0039,995.0053,996.5037,0,19,19,19,1,0.4,0.6,0.6,0.4,,,,,,,,,,,,,,,0.3343,,0.8,0.2,0.8,0.2,0.4,0.6,0.6,0.4,,,0.5408,,0.2,0.8,0.6,0.4,0.6,0.4,0.8,0.2,1,0
,,66301c9c390de66737e2ae4c,66fc99e54ca15917b8ae9c8b,2024-10-01_20h57.57.012,mdp,2024.2.1,Linux x86_64,60.24096386,66fa4ebf79326e780c390304,,,,,,,,,,,,,,,,,,,,,996.5042,996.5043,996.5058,997.4539,0,1,left,0.4216,,997.4553,998.3371,0,0,left,998.3384,999.4044,1,1,right,0,999.4045,999.4046,999.4076,1000.9042,0,20,20,20,1,0.4,0.6,0.6,0.4,,,,,,,,,,,,,,,0.3585,,0.8,0.2,0.8,0.2,0.4,0.6,0.6,0.4,,,0.5345,,0.2,0.8,0.6,0.4,0.6,0.4,0.8,0.2,1,0
,,66301c9c390de66737e2ae4c,66fc99e54ca15917b8ae9c8b,2024-10-01_20h57.57.012,mdp,2024.2.1,Linux x86_64,60.24096386,66fa4ebf79326e780c390304,,,,,,,,,,,,,,,,,,,,,1000.9053,1000.9053,1000.9085,1001.8392,0,1,left,0.3999,,1001.842,1002.704,0,1,left,1002.7074,1003.8037,0,0,left,1,1003.8038,1003.8038,1003.8074,1005.3039,0,21,21,21,1,0.4,0.6,0.6,0.4,,,,,,,,,,,,,,,0.3372,,0.8,0.2,0.8,0.2,0.4,0.6,0.6,0.4,,,0.5661,,0.2,0.8,0.6,0.4,0.6,0.4,0.8,0.2,1,0
,,66301c9c390de66737e2ae4c,66fc99e54ca15917b8ae9c8b,2024-10-01_20h57.57.012,mdp,2024.2.1,Linux x86_64,60.24096386,66fa4ebf79326e780c390304,,,,,,,,,,,,,,,,,,,,,1005.3049,1005.3049,1005.3086,1006.8863,0,1,left,1.0505,,1006.8877,1007.77,0,0,left,1007.7719,1008.7875,1,0,right,1,1008.7877,1008.7878,1008.7912,1010.2865,0,22,22,22,1,0.4,0.6,0.6,0.4,,,,,,,,,,,,,,,0.3644,,0.8,0.2,0.8,0.2,0.4,0.6,0.6,0.4,,,0.4804,,0.2,0.8,0.6,0.4,0.6,0.4,0.8,0.2,1,0
,,66301c9c390de66737e2ae4c,66fc99e54ca15917b8ae9c8b,2024-10-01_20h57.57.012,mdp,2024.2.1,Linux x86_64,60.24096386,66fa4ebf79326e780c390304,,,,,,,,,,,,,,,,,,,,,1010.2875,1010.2875,1010.29,1011.2697,0,1,left,0.4558,,1011.2735,1012.1202,0,1,left,1012.1223,1013.2695,1,0,right,1,1013.2696,1013.2696,1013.271,1014.7697,0,23,23,23,1,0.4,0.6,0.6,0.4,,,,,,,,,,,,,,,0.3182,,0.8,0.2,0.8,0.2,0.4,0.6,0.6,0.4,,,0.6115,,0.2,0.8,0.6,0.4,0.6,0.4,0.8,0.2,1,0
,,66301c9c390de66737e2ae4c,66fc99e54ca15917b8ae9c8b,2024-10-01_20h57.57.012,mdp,2024.2.1,Linux x86_64,60.24096386,66fa4ebf79326e780c390304,,,,,,,,,,,,,,,,,,,,,1014.7701,1014.7701,1014.7715,1015.8195,0,0,left,0.5175,,1015.821,1016.686,0,0,left,1016.6877,1017.57,1,0,right,1,1017.57,1017.57,1017.5713,1019.0701,0,24,24,24,1,0.4,0.6,0.6,0.4,,,,,,,,,,,,,,,0.3463,,0.8,0.2,0.8,0.2,0.4,0.6,0.6,0.4,,,0.347,,0.2,0.8,0.6,0.4,0.6,0.4,0.8,0.2,1,0
,,66301c9c390de66737e2ae4c,66fc99e54ca15917b8ae9c8b,2024-10-01_20h57.57.012,mdp,2024.2.1,Linux x86_64,60.24096386,66fa4ebf79326e780c390304,,,,,,,,,,,,,,,,,,,,,1019.0707,1019.0708,1019.0722,1019.9861,0,0,left,0.4032,,1019.9875,1020.8526,0,0,left,1020.854,1021.7528,1,0,right,1,1021.7529,1021.7529,1021.7542,1023.2526,0,25,25,25,1,0.4,0.6,0.6,0.4,,,,,,,,,,,,,,,0.3403,,0.8,0.2,0.8,0.2,0.4,0.6,0.6,0.4,,,0.3751,,0.2,0.8,0.6,0.4,0.6,0.4,0.8,0.2,1,0
,,66301c9c390de66737e2ae4c,66fc99e54ca15917b8ae9c8b,2024-10-01_20h57.57.012,mdp,2024.2.1,Linux x86_64,60.24096386,66fa4ebf79326e780c390304,,,,,,,,,,,,,,,,,,,,,1023.2534,1023.2535,1023.2556,1024.1236,0,1,left,0.346,,1024.125,1025.0527,0,1,left,1025.056,1026.2854,0,1,left,0,1026.2855,1026.2855,1026.2879,1027.7852,0,26,26,26,1,0.4,0.6,0.6,0.4,,,,,,,,,,,,,,,0.382,,0.8,0.2,0.8,0.2,0.4,0.6,0.6,0.4,,,0.6822,,0.2,0.8,0.6,0.4,0.6,0.4,0.8,0.2,1,0
,,66301c9c390de66737e2ae4c,66fc99e54ca15917b8ae9c8b,2024-10-01_20h57.57.012,mdp,2024.2.1,Linux x86_64,60.24096386,66fa4ebf79326e780c390304,,,,,,,,,,,,,,,,,,,,,1027.7858,1027.7858,1027.7874,1028.6029,0,1,left,0.2834,,1028.6044,1029.4528,0,0,left,1029.4546,1030.3186,1,0,right,1,1030.3187,1030.3187,1030.32,1031.8186,0,27,27,27,1,0.4,0.6,0.6,0.4,,,,,,,,,,,,,,,0.3245,,0.8,0.2,0.8,0.2,0.4,0.6,0.6,0.4,,,0.3292,,0.2,0.8,0.6,0.4,0.6,0.4,0.8,0.2,1,0
,,66301c9c390de66737e2ae4c,66fc99e54ca15917b8ae9c8b,2024-10-01_20h57.57.012,mdp,2024.2.1,Linux x86_64,60.24096386,66fa4ebf79326e780c390304,,,,,,,,,,,,,,,,,,,,,1031.8194,1031.8194,1031.8208,1032.6857,0,0,left,0.3413,,1032.6883,1033.5189,0,0,left,1033.522,1034.3855,1,0,right,1,1034.3857,1034.3857,1034.3892,1035.8853,0,28,28,28,1,0.4,0.6,0.6,0.4,,,,,,,,,,,,,,,0.2987,,0.8,0.2,0.8,0.2,0.4,0.6,0.6,0.4,,,0.3566,,0.2,0.8,0.6,0.4,0.6,0.4,0.8,0.2,1,0
,,66301c9c390de66737e2ae4c,66fc99e54ca15917b8ae9c8b,2024-10-01_20h57.57.012,mdp,2024.2.1,Linux x86_64,60.24096386,66fa4ebf79326e780c390304,,,,,,,,,,,,,,,,,,,,,1035.886,1035.886,1035.8886,1036.7353,0,0,left,0.3236,,1036.737,1037.5866,0,0,left,1037.5888,1038.4361,0,1,left,0,1038.4362,1038.4362,1038.4376,1039.9351,0,29,29,29,1,0.4,0.6,0.6,0.4,,,,,,,,,,,,,,,0.342,,0.8,0.2,0.8,0.2,0.4,0.6,0.6,0.4,,,0.3178,,0.2,0.8,0.6,0.4,0.6,0.4,0.8,0.2,1,0
,,66301c9c390de66737e2ae4c,66fc99e54ca15917b8ae9c8b,2024-10-01_20h57.57.012,mdp,2024.2.1,Linux x86_64,60.24096386,66fa4ebf79326e780c390304,,,,,,,,,,,,,,,,,,,,,1039.9366,1039.9367,1039.9402,1040.6868,0,1,left,0.2302,,1040.6883,1041.4515,0,1,left,1041.4529,1042.2681,1,0,right,1,1042.2682,1042.2682,1042.27,1043.7681,0,30,30,30,1,0.4,0.6,0.6,0.4,,,,,,,,,,,,,,,0.2271,,0.6,0.4,0.2,0.8,0.4,0.6,0.6,0.4,,,0.2832,,0.2,0.8,0.6,0.4,0.6,0.4,0.8,0.2,1,0
,,66301c9c390de66737e2ae4c,66fc99e54ca15917b8ae9c8b,2024-10-01_20h57.57.012,mdp,2024.2.1,Linux x86_64,60.24096386,66fa4ebf79326e780c390304,,,,,,,,,,,,,,,,,,,,,1043.7686,1043.7686,1043.7701,1044.6184,0,0,left,0.3212,,1044.6206,1045.4191,0,1,left,1045.4217,1046.268,1,1,right,0,1046.268,1046.2681,1046.2694,1047.7678,0,31,31,31,1,0.4,0.6,0.6,0.4,,,,,,,,,,,,,,,0.2709,,0.6,0.4,0.2,0.8,0.4,0.6,0.6,0.4,,,0.314,,0.8,0.2,0.8,0.2,0.6,0.4,0.8,0.2,1,0
,,66301c9c390de66737e2ae4c,66fc99e54ca15917b8ae9c8b,2024-10-01_20h57.57.012,mdp,2024.2.1,Linux x86_64,60.24096386,66fa4ebf79326e780c390304,,,,,,,,,,,,,,,,,,,,,1047.7684,1047.7684,1047.7702,1048.6182,0,1,left,0.3167,,1048.6196,1049.4344,0,0,left,1049.4357,1050.2679,0,0,left,1,1050.268,1050.268,1050.2697,1051.768,0,32,32,32,1,0.4,0.6,0.6,0.4,,,,,,,,,,,,,,,0.2816,,0.6,0.4,0.2,0.8,0.4,0.6,0.6,0.4,,,0.3112,,0.8,0.2,0.8,0.2,0.6,0.4,0.8,0.2,1,0
,,66301c9c390de66737e2ae4c,66fc99e54ca15917b8ae9c8b,2024-10-01_20h57.57.012,mdp,2024.2.1,Linux x86_64,60.24096386,66fa4ebf79326e780c390304,,,,,,,,,,,,,,,,,,,,,1051.7687,1051.7687,1051.7701,1052.5848,0,0,left,0.2922,,1052.5862,1053.8186,0,0,left,1053.8225,1054.6011,1,1,right,0,1054.6012,1054.6012,1054.6026,1056.1008,0,33,33,33,1,0.4,0.6,0.6,0.4,,,,,,,,,,,,,,,0.7042,,0.6,0.4,0.2,0.8,0.4,0.6,0.6,0.4,,,0.2523,,0.8,0.2,0.8,0.2,0.6,0.4,0.8,0.2,1,0
,,66301c9c390de66737e2ae4c,66fc99e54ca15917b8ae9c8b,2024-10-01_20h57.57.012,mdp,2024.2.1,Linux x86_64,60.24096386,66fa4ebf79326e780c390304,,,,,,,,,,,,,,,,,,,,,1056.1012,1056.1012,1056.1025,1056.9175,0,1,left,0.2884,,1056.9192,1057.7013,0,0,left,1057.7027,1058.5175,1,0,right,1,1058.5176,1058.5176,1058.519,1060.0182,0,34,34,34,1,0.4,0.6,0.6,0.4,,,,,,,,,,,,,,,0.2479,,0.6,0.4,0.2,0.8,0.4,0.6,0.6,0.4,,,0.2909,,0.8,0.2,0.8,0.2,0.6,0.4,0.8,0.2,1,0
,,66301c9c390de66737e2ae4c,66fc99e54ca15917b8ae9c8b,2024-10-01_20h57.57.012,mdp,2024.2.1,Linux x86_64,60.24096386,66fa4ebf79326e780c390304,,,,,,,,,,,,,,,,,,,,,1060.0192,1060.0192,1060.0222,1060.8506,0,1,left,0.3053,,1060.8545,1061.6844,0,0,left,1061.6873,1062.6671,0,1,left,0,1062.6672,1062.6672,1062.6688,1064.1669,0,35,35,35,1,0.4,0.6,0.6,0.4,,,,,,,,,,,,,,,0.3176,,0.6,0.4,0.2,0.8,0.4,0.6,0.6,0.4,,,0.4531,,0.8,0.2,0.8,0.2,0.6,0.4,0.8,0.2,1,0
,,66301c9c390de66737e2ae4c,66fc99e54ca15917b8ae9c8b,2024-10-01_20h57.57.012,mdp,2024.2.1,Linux x86_64,60.24096386,66fa4ebf79326e780c390304,,,,,,,,,,,,,,,,,,,,,1064.1673,1064.1673,1064.1688,1064.884,0,0,left,0.1824,,1064.8858,1065.6836,0,0,left,1065.6851,1066.5013,1,1,right,0,1066.5014,1066.5014,1066.5029,1068.0008,0,36,36,36,1,0.4,0.6,0.6,0.4,,,,,,,,,,,,,,,0.2675,,0.6,0.4,0.2,0.8,0.4,0.6,0.6,0.4,,,0.2995,,0.8,0.2,0.8,0.2,0.6,0.4,0.8,0.2,1,0
,,66301c9c390de66737e2ae4c,66fc99e54ca15917b8ae9c8b,2024-10-01_20h57.57.012,mdp,2024.2.1,Linux x86_64,60.24096386,66fa4ebf79326e780c390304,,,,,,,,,,,,,,,,,,,,,1068.0013,1068.0013,1068.0028,1068.8006,0,1,left,0.2757,,1068.8032,1069.5838,0,0,left,1069.5869,1070.4167,1,0,right,1,1070.4168,1070.4168,1070.4181,1071.9171,0,37,37,37,1,0.4,0.6,0.6,0.4,,,,,,,,,,,,,,,0.2641,,0.6,0.4,0.2,0.8,0.4,0.6,0.6,0.4,,,0.2977,,0.8,0.2,0.8,0.2,0.6,0.4,0.8,0.2,1,0
,,66301c9c390de66737e2ae4c,66fc99e54ca15917b8ae9c8b,2024-10-01_20h57.57.012,mdp,2024.2.1,Linux x86_64,60.24096386,66fa4ebf79326e780c390304,,,,,,,,,,,,,,,,,,,,,1071.9177,1071.9177,1071.9189,1072.7333,0,1,left,0.2891,,1072.7347,1073.5669,0,1,left,1073.5685,1074.4167,1,0,right,1,1074.4167,1074.4167,1074.418,1075.917,0,38,38,38,1,0.4,0.6,0.6,0.4,,,,,,,,,,,,,,,0.3217,,0.6,0.4,0.2,0.8,0.4,0.6,0.6,0.4,,,0.3233,,0.8,0.2,0.8,0.2,0.6,0.4,0.8,0.2,1,0
,,66301c9c390de66737e2ae4c,66fc99e54ca15917b8ae9c8b,2024-10-01_20h57.57.012,mdp,2024.2.1,Linux x86_64,60.24096386,66fa4ebf79326e780c390304,,,,,,,,,,,,,,,,,,,,,1075.9182,1075.9182,1075.9211,1076.7669,0,0,left,0.3239,,1076.769,1077.5841,0,1,left,1077.5868,1078.4004,1,1,right,0,1078.4004,1078.4004,1078.4023,1079.9,0,39,39,39,1,0.4,0.6,0.6,0.4,,,,,,,,,,,,,,,0.2933,,0.6,0.4,0.2,0.8,0.4,0.6,0.6,0.4,,,0.2906,,0.8,0.2,0.8,0.2,0.6,0.4,0.8,0.2,1,0
,,66301c9c390de66737e2ae4c,66fc99e54ca15917b8ae9c8b,2024-10-01_20h57.57.012,mdp,2024.2.1,Linux x86_64,60.24096386,66fa4ebf79326e780c390304,,,,,,,,,,,,,,,,,,,,,1079.9005,1079.9005,1079.9021,1080.7512,0,1,left,0.3361,,1080.754,1081.5666,0,1,left,1081.5683,1082.4165,0,1,left,0,1082.4167,1082.4167,1082.4186,1083.9163,0,40,40,40,1,0.4,0.6,0.6,0.4,,,,,,,,,,,,,,,0.2726,,0.6,0.4,0.2,0.8,0.4,0.6,0.6,0.4,,,0.3416,,0.2,0.8,0.4,0.6,0.6,0.4,0.8,0.2,1,0
,,66301c9c390de66737e2ae4c,66fc99e54ca15917b8ae9c8b,2024-10-01_20h57.57.012,mdp,2024.2.1,Linux x86_64,60.24096386,66fa4ebf79326e780c390304,,,,,,,,,,,,,,,,,,,,,1083.9168,1083.9168,1083.9183,1084.7495,0,1,left,0.3043,,1084.7509,1085.5659,0,0,left,1085.5674,1086.3496,1,0,right,1,1086.3498,1086.3498,1086.3515,1087.85,0,41,41,41,1,0.4,0.6,0.6,0.4,,,,,,,,,,,,,,,0.2973,,0.6,0.4,0.2,0.8,0.4,0.6,0.6,0.4,,,0.2547,,0.2,0.8,0.4,0.6,0.6,0.4,0.8,0.2,1,0
,,66301c9c390de66737e2ae4c,66fc99e54ca15917b8ae9c8b,2024-10-01_20h57.57.012,mdp,2024.2.1,Linux x86_64,60.24096386,66fa4ebf79326e780c390304,,,,,,,,,,,,,,,,,,,,,1087.8509,1087.8509,1087.8535,1088.7326,0,1,left,0.3519,,1088.7339,1089.549,1,0,right,1089.5504,1090.3829,0,1,left,0,1090.3831,1090.3831,1090.3856,1091.8836,0,42,42,42,1,0.4,0.6,0.6,0.4,,,,,,,,,,,,,,,0.2917,,0.6,0.4,0.2,0.8,0.4,0.6,0.6,0.4,,,0.3157,,0.2,0.8,0.4,0.6,0.6,0.4,0.8,0.2,1,0
,,66301c9c390de66737e2ae4c,66fc99e54ca15917b8ae9c8b,2024-10-01_20h57.57.012,mdp,2024.2.1,Linux x86_64,60.24096386,66fa4ebf79326e780c390304,,,,,,,,,,,,,,,,,,,,,1091.8847,1091.8847,1091.8876,1092.5825,0,0,left,0.1638,,1092.5839,1093.3826,0,1,left,1093.3849,1094.1325,1,0,right,1,1094.1326,1094.1326,1094.1348,1095.6328,0,43,43,43,1,0.6,0.4,0.2,0.8,,,,,,,,,,,,,,,0.2634,,0.6,0.4,0.2,0.8,0.4,0.6,0.6,0.4,,,0.2134,,0.2,0.8,0.4,0.6,0.6,0.4,0.8,0.2,1,0
,,66301c9c390de66737e2ae4c,66fc99e54ca15917b8ae9c8b,2024-10-01_20h57.57.012,mdp,2024.2.1,Linux x86_64,60.24096386,66fa4ebf79326e780c390304,,,,,,,,,,,,,,,,,,,,,1095.6343,1095.6343,1095.6357,1096.4829,0,0,left,0.3185,,1096.4845,1097.2996,0,0,left,1097.3025,1098.1662,1,1,right,0,1098.1663,1098.1663,1098.1676,1099.6656,0,44,44,44,1,0.6,0.4,0.2,0.8,,,,,,,,,,,,,,,0.2865,,0.6,0.4,0.2,0.8,0.4,0.6,0.6,0.4,,,0.3275,,0.2,0.8,0.4,0.6,0.6,0.4,0.8,0.2,1,0
,,66301c9c390de66737e2ae4c,66fc99e54ca15917b8ae9c8b,2024-10-01_20h57.57.012,mdp,2024.2.1,Linux x86_64,60.24096386,66fa4ebf79326e780c390304,,,,,,,,,,,,,,,,,,,,,1099.6661,1099.6661,1099.6675,1100.4497,0,1,left,0.2546,,1100.4514,1101.2834,0,1,left,1101.2848,1102.1153,0,0,left,1,1102.1155,1102.1155,1102.1168,1103.6152,0,45,45,45,1,0.6,0.4,0.2,0.8,,,,,,,,,,,,,,,0.2939,,0.6,0.4,0.2,0.8,0.4,0.6,0.6,0.4,,,0.2974,,0.2,0.8,0.4,0.6,0.6,0.4,0.8,0.2,1,0
,,66301c9c390de66737e2ae4c,66fc99e54ca15917b8ae9c8b,2024-10-01_20h57.57.012,mdp,2024.2.1,Linux x86_64,60.24096386,66fa4ebf79326e780c390304,,,,,,,,,,,,,,,,,,,,,1103.6162,1103.6162,1103.618,1104.4821,0,0,left,0.339,,1104.4848,1105.2999,0,1,left,1105.3012,1106.1321,1,0,right,1,1106.1321,1106.1321,1106.1335,1107.6321,0,46,46,46,1,0.6,0.4,0.2,0.8,,,,,,,,,,,,,,,0.2721,,0.6,0.4,0.2,0.8,0.4,0.6,0.6,0.4,,,0.3034,,0.2,0.8,0.4,0.6,0.6,0.4,0.8,0.2,1,0
,,66301c9c390de66737e2ae4c,66fc99e54ca15917b8ae9c8b,2024-10-01_20h57.57.012,mdp,2024.2.1,Linux x86_64,60.24096386,66fa4ebf79326e780c390304,,,,,,,,,,,,,,,,,,,,,1107.6327,1107.6327,1107.6342,1108.4817,0,0,left,0.3223,,1108.4841,1109.2819,0,0,left,1109.2833,1110.1487,0,1,left,0,1110.1487,1110.1487,1110.1501,1111.6483,0,47,47,47,1,0.6,0.4,0.2,0.8,,,,,,,,,,,,,,,0.2863,,0.8,0.2,0.4,0.6,0.4,0.6,0.6,0.4,,,0.3485,,0.2,0.8,0.4,0.6,0.6,0.4,0.8,0.2,1,0
,,66301c9c390de66737e2ae4c,66fc99e54ca15917b8ae9c8b,2024-10-01_20h57.57.012,mdp,2024.2.1,Linux x86_64,60.24096386,66fa4ebf79326e780c390304,,,,,,,,,,,,,,,,,,,,,1111.6492,1111.6492,1111.6513,1112.6494,0,1,left,0.4733,,1112.6509,1113.5318,0,1,left,1113.5331,1114.2649,1,1,right,0,1114.2652,1114.2652,1114.2682,1115.7653,0,48,48,48,1,0.6,0.4,0.2,0.8,,,,,,,,,,,,,,,0.3409,,0.8,0.2,0.4,0.6,0.4,0.6,0.6,0.4,,,0.208,,0.2,0.8,0.4,0.6,0.6,0.4,0.8,0.2,1,0
,,66301c9c390de66737e2ae4c,66fc99e54ca15917b8ae9c8b,2024-10-01_20h57.57.012,mdp,2024.2.1,Linux x86_64,60.24096386,66fa4ebf79326e780c390304,,,,,,,,,,,,,,,,,,,,,1115.7662,1115.7662,1115.7693,1116.6151,0,1,left,0.3133,,1116.6173,1117.3982,1,0,right,1117.3995,1118.1815,0,1,left,0,1118.1816,1118.1816,1118.1831,1119.681,0,49,49,49,1,0.6,0.4,0.2,0.8,,,,,,,,,,,,,,,0.2561,,0.8,0.2,0.4,0.6,0.4,0.6,0.6,0.4,,,0.2645,,0.2,0.8,0.4,0.6,0.6,0.4,0.8,0.2,1,0
,,66301c9c390de66737e2ae4c,66fc99e54ca15917b8ae9c8b,2024-10-01_20h57.57.012,mdp,2024.2.1,Linux x86_64,60.24096386,66fa4ebf79326e780c390304,,,,,,,,,,,,,,,,,,,,,,,,,,,,,,,,,,,,,,,,,,,,,,,,,,,,,,,,1119.6812,1178.1956,0,3,3,8,1,imgs/kangaroo.png,imgs/goat.png,imgs/rabbit.png,imgs/horse.png,imgs/pig.png,,,,,,,,,,,,,,,,,,,,,,,,
,,66301c9c390de66737e2ae4c,66fc99e54ca15917b8ae9c8b,2024-10-01_20h57.57.012,mdp,2024.2.1,Linux x86_64,60.24096386,66fa4ebf79326e780c390304,,,,,,,,,,,,,,1,seqs/st1seq4.csv,1178.2121,1181.9285,space,3.1933,,1181.9348,1181.9348,1181.9363,1183.495,0,0,left,1.0267,,1183.4964,1183.4974,1,1,,1183.4986,1183.4996,0,1,,1,1183.4996,1183.4996,1183.5003,1184.9948,0,0,0,0,1,0.6,0.4,0.4,0.6,1,0,,,,,,,,,,,,,,,,,,,,,,,,,,,,,,,,,,,,
,,66301c9c390de66737e2ae4c,66fc99e54ca15917b8ae9c8b,2024-10-01_20h57.57.012,mdp,2024.2.1,Linux x86_64,60.24096386,66fa4ebf79326e780c390304,,,,,,,,,,,,,,,,,,,,,1184.9952,1184.9952,1184.9965,1186.1782,0,1,left,0.6529,,1186.1797,1186.1807,1,0,,1186.1818,1186.1827,0,0,,0,1186.1827,1186.1827,1186.1835,1187.6783,0,1,1,1,1,0.6,0.4,0.4,0.6,1,0,,,,,,,,,,,,,,,,,,,,,,,,,,,,,,,,,,,,
,,66301c9c390de66737e2ae4c,66fc99e54ca15917b8ae9c8b,2024-10-01_20h57.57.012,mdp,2024.2.1,Linux x86_64,60.24096386,66fa4ebf79326e780c390304,,,,,,,,,,,,,,,,,,,,,1187.6789,1187.6789,1187.6803,1188.6466,0,0,left,0.4402,,1188.6492,1188.651,1,0,,1188.653,1188.6547,0,0,,1,1188.6548,1188.6548,1188.6562,1190.1446,0,2,2,2,1,0.6,0.4,0.4,0.6,1,0,,,,,,,,,,,,,,,,,,,,,,,,,,,,,,,,,,,,
,,66301c9c390de66737e2ae4c,66fc99e54ca15917b8ae9c8b,2024-10-01_20h57.57.012,mdp,2024.2.1,Linux x86_64,60.24096386,66fa4ebf79326e780c390304,,,,,,,,,,,,,,,,,,,,,1190.145,1190.145,1190.1464,1190.9612,1,0,right,0.2855,,1190.9625,1190.9635,1,1,,1190.9646,1190.9655,0,0,,1,1190.9655,1190.9655,1190.9664,1192.4624,0,3,3,3,1,0.6,0.4,0.4,0.6,1,0,,,,,,,,,,,,,,,,,,,,,,,,,,,,,,,,,,,,
,,66301c9c390de66737e2ae4c,66fc99e54ca15917b8ae9c8b,2024-10-01_20h57.57.012,mdp,2024.2.1,Linux x86_64,60.24096386,66fa4ebf79326e780c390304,,,,,,,,,,,,,,,,,,,,,1192.4629,1192.4629,1192.4642,1193.3112,0,0,left,0.3227,,1193.3125,1193.3136,1,0,,1193.3146,1193.3153,0,0,,1,1193.3153,1193.3153,1193.316,1194.8112,0,4,4,4,1,0.6,0.4,0.4,0.6,1,0,,,,,,,,,,,,,,,,,,,,,,,,,,,,,,,,,,,,
,,66301c9c390de66737e2ae4c,66fc99e54ca15917b8ae9c8b,2024-10-01_20h57.57.012,mdp,2024.2.1,Linux x86_64,60.24096386,66fa4ebf79326e780c390304,,,,,,,,,,,,,,,,,,,,,1194.8115,1194.8116,1194.8129,1195.5615,1,1,right,0.239,,1195.5629,1195.564,1,0,,1195.5651,1195.566,0,1,,0,1195.566,1195.566,1195.5667,1197.062,0,5,5,5,1,0.6,0.4,0.4,0.6,1,0,,,,,,,,,,,,,,,,,,,,,,,,,,,,,,,,,,,,
,,66301c9c390de66737e2ae4c,66fc99e54ca15917b8ae9c8b,2024-10-01_20h57.57.012,mdp,2024.2.1,Linux x86_64,60.24096386,66fa4ebf79326e780c390304,,,,,,,,,,,,,,,,,,,,,1197.0626,1197.0626,1197.0644,1198.2451,1,1,right,0.6568,,1198.2474,1198.2484,1,0,,1198.2494,1198.2501,0,1,,0,1198.2502,1198.2502,1198.2512,1199.7451,0,6,6,6,1,0.6,0.4,0.4,0.6,1,0,,,,,,,,,,,,,,,,,,,,,,,,,,,,,,,,,,,,
,,66301c9c390de66737e2ae4c,66fc99e54ca15917b8ae9c8b,2024-10-01_20h57.57.012,mdp,2024.2.1,Linux x86_64,60.24096386,66fa4ebf79326e780c390304,,,,,,,,,,,,,,,,,,,,,1199.7463,1199.7463,1199.7495,1200.5776,1,1,right,0.2985,,1200.579,1200.5801,1,0,,1200.5812,1200.582,0,0,,0,1200.5821,1200.5821,1200.583,1202.0781,0,7,7,7,1,0.6,0.4,0.4,0.6,1,0,,,,,,,,,,,,,,,,,,,,,,,,,,,,,,,,,,,,
,,66301c9c390de66737e2ae4c,66fc99e54ca15917b8ae9c8b,2024-10-01_20h57.57.012,mdp,2024.2.1,Linux x86_64,60.24096386,66fa4ebf79326e780c390304,,,,,,,,,,,,,,,,,,,,,1202.0785,1202.0785,1202.0799,1202.9452,0,0,left,0.3404,,1202.9486,1202.9508,1,0,,1202.9531,1202.9554,0,0,,1,1202.9554,1202.9555,1202.9573,1204.444,0,8,8,8,1,0.8,0.2,0.6,0.4,1,0,,,,,,,,,,,,,,,,,,,,,,,,,,,,,,,,,,,,
,,66301c9c390de66737e2ae4c,66fc99e54ca15917b8ae9c8b,2024-10-01_20h57.57.012,mdp,2024.2.1,Linux x86_64,60.24096386,66fa4ebf79326e780c390304,,,,,,,,,,,,,,,,,,,,,1204.4444,1204.4444,1204.4464,1205.4106,0,0,left,0.4354,,1205.412,1205.4132,1,0,,1205.4142,1205.415,0,0,,1,1205.4151,1205.4151,1205.4159,1206.9109,0,9,9,9,1,0.8,0.2,0.6,0.4,1,0,,,,,,,,,,,,,,,,,,,,,,,,,,,,,,,,,,,,
,,66301c9c390de66737e2ae4c,66fc99e54ca15917b8ae9c8b,2024-10-01_20h57.57.012,mdp,2024.2.1,Linux x86_64,60.24096386,66fa4ebf79326e780c390304,,,,,,,,,,,,,,,,,,,,,1206.9118,1206.9118,1206.9148,1207.7947,0,0,left,0.3514,,1207.7978,1207.7995,1,1,,1207.8014,1207.803,0,0,,1,1207.8031,1207.8031,1207.805,1209.2938,0,10,10,10,1,0.8,0.2,0.6,0.4,1,0,,,,,,,,,,,,,,,,,,,,,,,,,,,,,,,,,,,,
,,66301c9c390de66737e2ae4c,66fc99e54ca15917b8ae9c8b,2024-10-01_20h57.57.012,mdp,2024.2.1,Linux x86_64,60.24096386,66fa4ebf79326e780c390304,,,,,,,,,,,,,,,,,,,,,1209.2943,1209.2943,1209.2958,1210.2283,0,1,left,0.4087,,1210.2316,1210.2348,1,0,,1210.2376,1210.2396,0,0,,0,1210.2397,1210.2397,1210.2415,1211.7284,0,11,11,11,1,0.6,0.4,0.8,0.2,1,0,,,,,,,,,,,,,,,,,,,,,,,,,,,,,,,,,,,,
,,66301c9c390de66737e2ae4c,66fc99e54ca15917b8ae9c8b,2024-10-01_20h57.57.012,mdp,2024.2.1,Linux x86_64,60.24096386,66fa4ebf79326e780c390304,,,,,,,,,,,,,,,,,,,,,1211.7291,1211.7291,1211.7304,1212.4613,1,0,right,0.1979,,1212.4627,1212.4637,1,0,,1212.4646,1212.4655,0,0,,1,1212.4655,1212.4655,1212.4664,1213.9607,0,12,12,12,1,0.6,0.4,0.8,0.2,1,0,,,,,,,,,,,,,,,,,,,,,,,,,,,,,,,,,,,,
,,66301c9c390de66737e2ae4c,66fc99e54ca15917b8ae9c8b,2024-10-01_20h57.57.012,mdp,2024.2.1,Linux x86_64,60.24096386,66fa4ebf79326e780c390304,,,,,,,,,,,,,,,,,,,,,1213.9613,1213.9613,1213.9626,1214.7439,0,0,left,0.2551,,1214.7453,1214.7464,1,0,,1214.7474,1214.7483,0,1,,1,1214.7484,1214.7484,1214.7491,1216.2448,0,13,13,13,1,0.6,0.4,0.8,0.2,1,0,,,,,,,,,,,,,,,,,,,,,,,,,,,,,,,,,,,,
,,66301c9c390de66737e2ae4c,66fc99e54ca15917b8ae9c8b,2024-10-01_20h57.57.012,mdp,2024.2.1,Linux x86_64,60.24096386,66fa4ebf79326e780c390304,,,,,,,,,,,,,,,,,,,,,1216.2458,1216.2458,1216.2496,1217.0601,1,0,right,0.2845,,1217.0626,1217.0642,1,0,,1217.0657,1217.067,0,0,,1,1217.0671,1217.0671,1217.0682,1218.5609,0,14,14,14,1,0.6,0.4,0.8,0.2,1,0,,,,,,,,,,,,,,,,,,,,,,,,,,,,,,,,,,,,
,,66301c9c390de66737e2ae4c,66fc99e54ca15917b8ae9c8b,2024-10-01_20h57.57.012,mdp,2024.2.1,Linux x86_64,60.24096386,66fa4ebf79326e780c390304,,,,,,,,,,,,,,,,,,,,,1218.5614,1218.5614,1218.5628,1219.3945,0,0,left,0.2993,,1219.3976,1219.3999,1,0,,1219.4018,1219.4035,0,0,,1,1219.4036,1219.4037,1219.4059,1220.8935,0,15,15,15,1,0.8,0.2,0.4,0.6,1,0,,,,,,,,,,,,,,,,,,,,,,,,,,,,,,,,,,,,
,,66301c9c390de66737e2ae4c,66fc99e54ca15917b8ae9c8b,2024-10-01_20h57.57.012,mdp,2024.2.1,Linux x86_64,60.24096386,66fa4ebf79326e780c390304,,,,,,,,,,,,,,,,,,,,,1220.8942,1220.8942,1220.8969,1221.694,1,1,right,0.2685,,1221.6967,1221.6985,1,0,,1221.7003,1221.7019,0,1,,0,1221.702,1221.702,1221.7035,1223.1934,0,16,16,16,1,0.8,0.2,0.4,0.6,1,0,,,,,,,,,,,,,,,,,,,,,,,,,,,,,,,,,,,,
,,66301c9c390de66737e2ae4c,66fc99e54ca15917b8ae9c8b,2024-10-01_20h57.57.012,mdp,2024.2.1,Linux x86_64,60.24096386,66fa4ebf79326e780c390304,,,,,,,,,,,,,,,,,,,,,1223.1942,1223.1943,1223.1963,1223.995,0,1,left,0.2753,,1223.9977,1223.9993,1,0,,1224.0009,1224.0024,0,0,,0,1224.0025,1224.0025,1224.0038,1225.4933,0,17,17,17,1,0.8,0.2,0.4,0.6,1,0,,,,,,,,,,,,,,,,,,,,,,,,,,,,,,,,,,,,
,,66301c9c390de66737e2ae4c,66fc99e54ca15917b8ae9c8b,2024-10-01_20h57.57.012,mdp,2024.2.1,Linux x86_64,60.24096386,66fa4ebf79326e780c390304,,,,,,,,,,,,,,,,,,,,,1225.4941,1225.4942,1225.497,1226.2931,1,1,right,0.2696,,1226.2945,1226.2955,1,1,,1226.2966,1226.2974,0,0,,0,1226.2975,1226.2975,1226.2982,1227.7929,0,18,18,18,1,0.8,0.2,0.4,0.6,1,0,,,,,,,,,,,,,,,,,,,,,,,,,,,,,,,,,,,,
,,66301c9c390de66737e2ae4c,66fc99e54ca15917b8ae9c8b,2024-10-01_20h57.57.012,mdp,2024.2.1,Linux x86_64,60.24096386,66fa4ebf79326e780c390304,,,,,,,,,,,,,,,,,,,,,1227.7933,1227.7933,1227.7951,1228.7431,1,0,right,0.4234,,1228.7447,1228.7463,1,1,,1228.7473,1228.7482,0,0,,1,1228.7483,1228.7483,1228.7492,1230.2427,0,19,19,19,1,0.8,0.2,0.4,0.6,1,0,,,,,,,,,,,,,,,,,,,,,,,,,,,,,,,,,,,,
,,66301c9c390de66737e2ae4c,66fc99e54ca15917b8ae9c8b,2024-10-01_20h57.57.012,mdp,2024.2.1,Linux x86_64,60.24096386,66fa4ebf79326e780c390304,,,,,,,,,,,,,,,,,,,,,1230.2434,1230.2434,1230.2454,1231.0433,0,0,left,0.2633,,1231.0458,1231.0474,1,0,,1231.0491,1231.0505,0,0,,1,1231.0506,1231.0506,1231.0519,1232.5425,0,20,20,20,1,0.8,0.2,0.4,0.6,1,0,,,,,,,,,,,,,,,,,,,,,,,,,,,,,,,,,,,,
,,66301c9c390de66737e2ae4c,66fc99e54ca15917b8ae9c8b,2024-10-01_20h57.57.012,mdp,2024.2.1,Linux x86_64,60.24096386,66fa4ebf79326e780c390304,,,,,,,,,,,,,,,,,,,,,1232.5429,1232.5429,1232.5443,1233.3268,0,0,left,0.2567,,1233.3292,1233.3311,1,0,,1233.3329,1233.3343,0,0,,1,1233.3346,1233.3346,1233.3361,1234.8262,0,21,21,21,1,0.8,0.2,0.4,0.6,1,0,,,,,,,,,,,,,,,,,,,,,,,,,,,,,,,,,,,,
,,66301c9c390de66737e2ae4c,66fc99e54ca15917b8ae9c8b,2024-10-01_20h57.57.012,mdp,2024.2.1,Linux x86_64,60.24096386,66fa4ebf79326e780c390304,,,,,,,,,,,,,,,,,,,,,1234.8271,1234.8271,1234.8295,1235.7427,0,0,left,0.3912,,1235.7443,1235.7454,1,0,,1235.747,1235.7479,0,0,,1,1235.748,1235.748,1235.7492,1237.2423,0,22,22,22,1,0.8,0.2,0.4,0.6,1,0,,,,,,,,,,,,,,,,,,,,,,,,,,,,,,,,,,,,
,,66301c9c390de66737e2ae4c,66fc99e54ca15917b8ae9c8b,2024-10-01_20h57.57.012,mdp,2024.2.1,Linux x86_64,60.24096386,66fa4ebf79326e780c390304,,,,,,,,,,,,,,,,,,,,,1237.2427,1237.2427,1237.2444,1237.9927,1,0,right,0.2331,,1237.9948,1237.9959,1,1,,1237.9968,1237.9976,0,1,,1,1237.9977,1237.9977,1237.9984,1239.4922,0,23,23,23,1,0.8,0.2,0.4,0.6,1,0,,,,,,,,,,,,,,,,,,,,,,,,,,,,,,,,,,,,
,,66301c9c390de66737e2ae4c,66fc99e54ca15917b8ae9c8b,2024-10-01_20h57.57.012,mdp,2024.2.1,Linux x86_64,60.24096386,66fa4ebf79326e780c390304,,,,,,,,,,,,,,,,,,,,,1239.4926,1239.4927,1239.494,1240.309,0,0,left,0.2842,,1240.3107,1240.312,1,0,,1240.3129,1240.3138,0,1,,1,1240.3138,1240.3138,1240.3145,1241.8094,0,24,24,24,1,0.8,0.2,0.4,0.6,1,0,,,,,,,,,,,,,,,,,,,,,,,,,,,,,,,,,,,,
,,66301c9c390de66737e2ae4c,66fc99e54ca15917b8ae9c8b,2024-10-01_20h57.57.012,mdp,2024.2.1,Linux x86_64,60.24096386,66fa4ebf79326e780c390304,,,,,,,,,,,,,,,,,,,,,1241.8103,1241.8103,1241.8133,1242.5595,0,1,left,0.2235,,1242.5624,1242.5646,1,0,,1242.5673,1242.5709,0,0,,0,1242.5709,1242.5709,1242.5731,1244.0593,0,25,25,25,1,0.8,0.2,0.4,0.6,1,0,,,,,,,,,,,,,,,,,,,,,,,,,,,,,,,,,,,,
,,66301c9c390de66737e2ae4c,66fc99e54ca15917b8ae9c8b,2024-10-01_20h57.57.012,mdp,2024.2.1,Linux x86_64,60.24096386,66fa4ebf79326e780c390304,,,,,,,,,,,,,,,,,,,,,1244.06,1244.0601,1244.0628,1244.759,0,0,left,0.1681,,1244.7603,1244.7612,1,0,,1244.7624,1244.7652,0,0,,1,1244.7653,1244.7653,1244.7662,1246.2589,0,26,26,26,1,0.8,0.2,0.4,0.6,1,0,,,,,,,,,,,,,,,,,,,,,,,,,,,,,,,,,,,,
,,66301c9c390de66737e2ae4c,66fc99e54ca15917b8ae9c8b,2024-10-01_20h57.57.012,mdp,2024.2.1,Linux x86_64,60.24096386,66fa4ebf79326e780c390304,,,,,,,,,,,,,,,,,,,,,1246.2593,1246.2593,1246.2607,1247.0087,1,1,right,0.2341,,1247.0104,1247.0113,1,0,,1247.0123,1247.0131,0,1,,0,1247.0132,1247.0132,1247.0139,1248.5094,0,27,27,27,1,0.8,0.2,0.4,0.6,1,0,,,,,,,,,,,,,,,,,,,,,,,,,,,,,,,,,,,,
,,66301c9c390de66737e2ae4c,66fc99e54ca15917b8ae9c8b,2024-10-01_20h57.57.012,mdp,2024.2.1,Linux x86_64,60.24096386,66fa4ebf79326e780c390304,,,,,,,,,,,,,,,,,,,,,1248.5098,1248.5098,1248.5112,1249.1253,0,0,left,0.091,,1249.1272,1249.1285,1,1,,1249.1299,1249.1311,0,0,,1,1249.1312,1249.1313,1249.1322,1250.6252,0,28,28,28,1,0.8,0.2,0.4,0.6,1,0,,,,,,,,,,,,,,,,,,,,,,,,,,,,,,,,,,,,
,,66301c9c390de66737e2ae4c,66fc99e54ca15917b8ae9c8b,2024-10-01_20h57.57.012,mdp,2024.2.1,Linux x86_64,60.24096386,66fa4ebf79326e780c390304,,,,,,,,,,,,,,,,,,,,,1250.6259,1250.6259,1250.6282,1251.3592,0,0,left,0.1586,,1251.3636,1251.3647,1,0,,1251.3659,1251.3669,0,0,,1,1251.3669,1251.3669,1251.3679,1252.8619,0,29,29,29,1,0.8,0.2,0.4,0.6,1,0,,,,,,,,,,,,,,,,,,,,,,,,,,,,,,,,,,,,
,,66301c9c390de66737e2ae4c,66fc99e54ca15917b8ae9c8b,2024-10-01_20h57.57.012,mdp,2024.2.1,Linux x86_64,60.24096386,66fa4ebf79326e780c390304,,,,,,,,,,,,,,,,,,,,,1252.8624,1252.8624,1252.8637,1253.5089,1,1,right,0.1127,,1253.5102,1253.5112,1,1,,1253.515,1253.5183,0,1,,0,1253.5185,1253.5185,1253.5199,1255.0083,0,30,30,30,1,0.8,0.2,0.4,0.6,1,0,,,,,,,,,,,,,,,,,,,,,,,,,,,,,,,,,,,,
,,66301c9c390de66737e2ae4c,66fc99e54ca15917b8ae9c8b,2024-10-01_20h57.57.012,mdp,2024.2.1,Linux x86_64,60.24096386,66fa4ebf79326e780c390304,,,,,,,,,,,,,,,,,,,,,1255.0088,1255.0088,1255.01,1255.7747,0,1,left,0.2402,,1255.7762,1255.7771,1,0,,1255.7781,1255.7789,0,0,,0,1255.779,1255.779,1255.7796,1257.2747,0,31,31,31,1,0.8,0.2,0.4,0.6,1,0,,,,,,,,,,,,,,,,,,,,,,,,,,,,,,,,,,,,
,,66301c9c390de66737e2ae4c,66fc99e54ca15917b8ae9c8b,2024-10-01_20h57.57.012,mdp,2024.2.1,Linux x86_64,60.24096386,66fa4ebf79326e780c390304,,,,,,,,,,,,,,,,,,,,,1257.2752,1257.2752,1257.2765,1258.042,0,1,left,0.2411,,1258.0433,1258.0443,1,0,,1258.0454,1258.0462,0,0,,0,1258.0463,1258.0463,1258.0469,1259.5417,0,32,32,32,1,0.8,0.2,0.4,0.6,1,0,,,,,,,,,,,,,,,,,,,,,,,,,,,,,,,,,,,,
,,66301c9c390de66737e2ae4c,66fc99e54ca15917b8ae9c8b,2024-10-01_20h57.57.012,mdp,2024.2.1,Linux x86_64,60.24096386,66fa4ebf79326e780c390304,,,,,,,,,,,,,,,,,,,,,1259.5422,1259.5422,1259.5435,1260.3096,0,0,left,0.2382,,1260.312,1260.3135,1,0,,1260.315,1260.3163,0,1,,1,1260.3163,1260.3163,1260.3175,1261.8083,0,33,33,33,1,0.8,0.2,0.4,0.6,1,0,,,,,,,,,,,,,,,,,,,,,,,,,,,,,,,,,,,,
,,66301c9c390de66737e2ae4c,66fc99e54ca15917b8ae9c8b,2024-10-01_20h57.57.012,mdp,2024.2.1,Linux x86_64,60.24096386,66fa4ebf79326e780c390304,,,,,,,,,,,,,,,,,,,,,1261.8088,1261.8088,1261.8102,1262.6079,1,1,right,0.2726,,1262.6091,1262.6102,1,1,,1262.6112,1262.6119,0,1,,0,1262.6119,1262.612,1262.6126,1264.1085,0,34,34,34,1,0.6,0.4,0.2,0.8,1,0,,,,,,,,,,,,,,,,,,,,,,,,,,,,,,,,,,,,
,,66301c9c390de66737e2ae4c,66fc99e54ca15917b8ae9c8b,2024-10-01_20h57.57.012,mdp,2024.2.1,Linux x86_64,60.24096386,66fa4ebf79326e780c390304,,,,,,,,,,,,,,,,,,,,,1264.1094,1264.1095,1264.1125,1264.8312,0,0,left,0.1967,,1264.8334,1264.8356,1,1,,1264.8371,1264.8384,0,1,,1,1264.8384,1264.8384,1264.8396,1266.3412,0,35,35,35,1,0.4,0.6,0.6,0.4,1,0,,,,,,,,,,,,,,,,,,,,,,,,,,,,,,,,,,,,
,,66301c9c390de66737e2ae4c,66fc99e54ca15917b8ae9c8b,2024-10-01_20h57.57.012,mdp,2024.2.1,Linux x86_64,60.24096386,66fa4ebf79326e780c390304,,,,,,,,,,,,,,,,,,,,,1266.3418,1266.3419,1266.344,1267.191,0,1,left,0.3181,,1267.1924,1267.1939,1,1,,1267.1949,1267.1958,0,0,,0,1267.1958,1267.1959,1267.1966,1268.6924,0,36,36,36,1,0.4,0.6,0.6,0.4,1,0,,,,,,,,,,,,,,,,,,,,,,,,,,,,,,,,,,,,
