init_exp.started,init_exp.stopped,participant,session,date,expName,psychopyVersion,OS,frameRate,study_id,disp_instruction.started,disp_instruction.stopped,instruction.thisRepN,instruction.thisTrialN,instruction.thisN,instruction.thisIndex,instruction.ran,instimg_path,consent.started,consent.stopped,key_resp_3.keys,key_resp_3.rt,key_resp_3.duration,n_steps,sequence_path,init_block.started,init_block.stopped,key_resp.keys,key_resp.rt,key_resp.duration,init_trials.started,init_trials.stopped,step0.started,step0.stopped,act0,s1,res0.keys,res0.rt,res0.duration,step1.started,step1.stopped,act1,s2,res1.keys,step2.started,step2.stopped,act2,s3,res2.keys,rew,reward_comp.started,reward_comp.stopped,reward_disp.started,reward_disp.stopped,trials.thisRepN,trials.thisTrialN,trials.thisN,trials.thisIndex,trials.ran,s00a0s10,s00a0s11,s00a1s10,s00a1s11,rew10,rew11,break_block.started,break_block.stopped,block.thisRepN,block.thisTrialN,block.thisN,block.thisIndex,block.ran,s00path,s10path,s11path,s20path,s21path,res1.rt,res1.duration,s10a0s20,s10a0s21,s10a1s20,s10a1s21,s11a0s20,s11a0s21,s11a1s20,s11a1s21,rew20,rew21,res2.rt,res2.duration,s20a0s30,s20a0s31,s20a1s30,s20a1s31,s21a0s30,s21a0s31,s21a1s30,s21a1s31,rew30,rew31
0.0002,0.0011,6630ec3fa1752b4b2743c4cc,66fc98e9756f264e9ca11909,2024-10-01_21h52.09.193,mdp,2024.2.1,Win32,59.88023952,66fa4ebf79326e780c390304,,,,,,,,,,,,,,,,,,,,,,,,,,,,,,,,,,,,,,,,,,,,,,,,,,,,,,,,,,,,,,,,,,,,,,,,,,,,,,,,,,,,,,,,,,,
,,6630ec3fa1752b4b2743c4cc,66fc98e9756f264e9ca11909,2024-10-01_21h52.09.193,mdp,2024.2.1,Win32,59.88023952,66fa4ebf79326e780c390304,0.0037,33.137,0,0,0,0,1,rlnn_exp/rlnn_exp.001.png,,,,,,,,,,,,,,,,,,,,,,,,,,,,,,,,,,,,,,,,,,,,,,,,,,,,,,,,,,,,,,,,,,,,,,,,,,,,,,,,,,,
,,6630ec3fa1752b4b2743c4cc,66fc98e9756f264e9ca11909,2024-10-01_21h52.09.193,mdp,2024.2.1,Win32,59.88023952,66fa4ebf79326e780c390304,33.1384,64.0508,0,1,1,1,1,rlnn_exp/rlnn_exp.002.png,,,,,,,,,,,,,,,,,,,,,,,,,,,,,,,,,,,,,,,,,,,,,,,,,,,,,,,,,,,,,,,,,,,,,,,,,,,,,,,,,,,
,,6630ec3fa1752b4b2743c4cc,66fc98e9756f264e9ca11909,2024-10-01_21h52.09.193,mdp,2024.2.1,Win32,59.88023952,66fa4ebf79326e780c390304,64.0682,94.2824,0,2,2,2,1,rlnn_exp/rlnn_exp.003.png,,,,,,,,,,,,,,,,,,,,,,,,,,,,,,,,,,,,,,,,,,,,,,,,,,,,,,,,,,,,,,,,,,,,,,,,,,,,,,,,,,,
,,6630ec3fa1752b4b2743c4cc,66fc98e9756f264e9ca11909,2024-10-01_21h52.09.193,mdp,2024.2.1,Win32,59.88023952,66fa4ebf79326e780c390304,94.3014,116.7641,0,3,3,3,1,rlnn_exp/rlnn_exp.004.png,,,,,,,,,,,,,,,,,,,,,,,,,,,,,,,,,,,,,,,,,,,,,,,,,,,,,,,,,,,,,,,,,,,,,,,,,,,,,,,,,,,
,,6630ec3fa1752b4b2743c4cc,66fc98e9756f264e9ca11909,2024-10-01_21h52.09.193,mdp,2024.2.1,Win32,59.88023952,66fa4ebf79326e780c390304,,,,,,,,,116.7732,128.3308,y,1.5311,,,,,,,,,,,,,,,,,,,,,,,,,,,,,,,,,,,,,,,,,,,,,,,,,,,,,,,,,,,,,,,,,,,,,,,,,,,,,,,
,,6630ec3fa1752b4b2743c4cc,66fc98e9756f264e9ca11909,2024-10-01_21h52.09.193,mdp,2024.2.1,Win32,59.88023952,66fa4ebf79326e780c390304,,,,,,,,,,,,,,1,seqs/st1seq34.csv,128.3386,130.6136,space,1.7504,,130.619,130.6192,130.6197,145.5305,1,1,right,14.3757,,145.5494,145.5519,,1,,145.5524,145.554,,1,,0,145.5542,145.5543,145.5547,147.0463,0,0,0,0,1,0.6,0.4,0.2,0.8,1,0,,,,,,,,,,,,,,,,,,,,,,,,,,,,,,,,,,,,
,,6630ec3fa1752b4b2743c4cc,66fc98e9756f264e9ca11909,2024-10-01_21h52.09.193,mdp,2024.2.1,Win32,59.88023952,66fa4ebf79326e780c390304,,,,,,,,,,,,,,,,,,,,,147.047,147.047,147.0486,148.3122,0,0,left,0.7329,,148.314,148.3159,,1,,148.3169,148.3177,,0,,1,148.3177,148.3177,148.3184,149.812,0,1,1,1,1,0.6,0.4,0.2,0.8,1,0,,,,,,,,,,,,,,,,,,,,,,,,,,,,,,,,,,,,
,,6630ec3fa1752b4b2743c4cc,66fc98e9756f264e9ca11909,2024-10-01_21h52.09.193,mdp,2024.2.1,Win32,59.88023952,66fa4ebf79326e780c390304,,,,,,,,,,,,,,,,,,,,,149.8125,149.8125,149.814,151.1456,0,0,left,0.8089,,151.1471,151.1488,,1,,151.1498,151.1506,,1,,1,151.1507,151.1507,151.1513,152.6455,0,2,2,2,1,0.6,0.4,0.2,0.8,1,0,,,,,,,,,,,,,,,,,,,,,,,,,,,,,,,,,,,,
,,6630ec3fa1752b4b2743c4cc,66fc98e9756f264e9ca11909,2024-10-01_21h52.09.193,mdp,2024.2.1,Win32,59.88023952,66fa4ebf79326e780c390304,,,,,,,,,,,,,,,,,,,,,152.6461,152.6462,152.6484,153.6457,0,1,left,0.4683,,153.6475,153.6492,,0,,153.6502,153.651,,0,,0,153.651,153.651,153.6517,155.1453,0,3,3,3,1,0.6,0.4,0.2,0.8,1,0,,,,,,,,,,,,,,,,,,,,,,,,,,,,,,,,,,,,
,,6630ec3fa1752b4b2743c4cc,66fc98e9756f264e9ca11909,2024-10-01_21h52.09.193,mdp,2024.2.1,Win32,59.88023952,66fa4ebf79326e780c390304,,,,,,,,,,,,,,,,,,,,,155.1458,155.1459,155.1482,156.2118,0,0,left,0.5399,,156.2131,156.2141,,1,,156.2158,156.2167,,1,,1,156.2168,156.2168,156.2175,157.7113,0,4,4,4,1,0.6,0.4,0.2,0.8,1,0,,,,,,,,,,,,,,,,,,,,,,,,,,,,,,,,,,,,
,,6630ec3fa1752b4b2743c4cc,66fc98e9756f264e9ca11909,2024-10-01_21h52.09.193,mdp,2024.2.1,Win32,59.88023952,66fa4ebf79326e780c390304,,,,,,,,,,,,,,,,,,,,,157.7117,157.7117,157.7132,158.6451,0,1,left,0.4115,,158.6476,158.6491,,0,,158.65,158.6507,,0,,0,158.6508,158.6508,158.6515,160.145,0,5,5,5,1,0.6,0.4,0.2,0.8,1,0,,,,,,,,,,,,,,,,,,,,,,,,,,,,,,,,,,,,
,,6630ec3fa1752b4b2743c4cc,66fc98e9756f264e9ca11909,2024-10-01_21h52.09.193,mdp,2024.2.1,Win32,59.88023952,66fa4ebf79326e780c390304,,,,,,,,,,,,,,,,,,,,,160.1455,160.1455,160.1477,161.1611,0,0,left,0.4823,,161.1619,161.1629,,0,,161.1638,161.1642,,1,,1,161.1642,161.1642,161.1645,162.6614,0,6,6,6,1,0.6,0.4,0.2,0.8,1,0,,,,,,,,,,,,,,,,,,,,,,,,,,,,,,,,,,,,
,,6630ec3fa1752b4b2743c4cc,66fc98e9756f264e9ca11909,2024-10-01_21h52.09.193,mdp,2024.2.1,Win32,59.88023952,66fa4ebf79326e780c390304,,,,,,,,,,,,,,,,,,,,,162.6619,162.6619,162.6637,163.7114,0,0,left,0.5215,,163.713,163.7142,,0,,163.7153,163.7161,,1,,1,163.7161,163.7162,163.7168,165.2111,0,7,7,7,1,0.6,0.4,0.2,0.8,1,0,,,,,,,,,,,,,,,,,,,,,,,,,,,,,,,,,,,,
,,6630ec3fa1752b4b2743c4cc,66fc98e9756f264e9ca11909,2024-10-01_21h52.09.193,mdp,2024.2.1,Win32,59.88023952,66fa4ebf79326e780c390304,,,,,,,,,,,,,,,,,,,,,165.2115,165.2116,165.2133,166.1611,1,0,right,0.4159,,166.1625,166.1637,,0,,166.1653,166.166,,0,,1,166.166,166.166,166.1668,167.6611,0,8,8,8,1,0.2,0.8,0.8,0.2,1,0,,,,,,,,,,,,,,,,,,,,,,,,,,,,,,,,,,,,
,,6630ec3fa1752b4b2743c4cc,66fc98e9756f264e9ca11909,2024-10-01_21h52.09.193,mdp,2024.2.1,Win32,59.88023952,66fa4ebf79326e780c390304,,,,,,,,,,,,,,,,,,,,,167.6615,167.6615,167.6636,168.7445,0,0,left,0.555,,168.7461,168.7482,,1,,168.7491,168.7499,,1,,1,168.7499,168.75,168.7507,170.2444,0,9,9,9,1,0.2,0.8,0.8,0.2,1,0,,,,,,,,,,,,,,,,,,,,,,,,,,,,,,,,,,,,
,,6630ec3fa1752b4b2743c4cc,66fc98e9756f264e9ca11909,2024-10-01_21h52.09.193,mdp,2024.2.1,Win32,59.88023952,66fa4ebf79326e780c390304,,,,,,,,,,,,,,,,,,,,,170.2449,170.2449,170.2463,171.1944,0,1,left,0.4236,,171.1969,171.1983,,1,,171.1992,171.2001,,0,,0,171.2002,171.2002,171.2008,172.6942,0,10,10,10,1,0.2,0.8,0.8,0.2,1,0,,,,,,,,,,,,,,,,,,,,,,,,,,,,,,,,,,,,
,,6630ec3fa1752b4b2743c4cc,66fc98e9756f264e9ca11909,2024-10-01_21h52.09.193,mdp,2024.2.1,Win32,59.88023952,66fa4ebf79326e780c390304,,,,,,,,,,,,,,,,,,,,,172.6947,172.6947,172.6962,173.8441,0,1,left,0.6223,,173.8454,173.8467,,0,,173.8484,173.8492,,0,,0,173.8492,173.8492,173.8498,175.3436,0,11,11,11,1,0.2,0.8,0.8,0.2,1,0,,,,,,,,,,,,,,,,,,,,,,,,,,,,,,,,,,,,
,,6630ec3fa1752b4b2743c4cc,66fc98e9756f264e9ca11909,2024-10-01_21h52.09.193,mdp,2024.2.1,Win32,59.88023952,66fa4ebf79326e780c390304,,,,,,,,,,,,,,,,,,,,,175.3441,175.3442,175.3452,176.1774,0,0,left,0.3094,,176.179,176.1803,,1,,176.1813,176.182,,1,,1,176.182,176.182,176.1827,177.6772,0,12,12,12,1,0.2,0.8,0.8,0.2,1,0,,,,,,,,,,,,,,,,,,,,,,,,,,,,,,,,,,,,
,,6630ec3fa1752b4b2743c4cc,66fc98e9756f264e9ca11909,2024-10-01_21h52.09.193,mdp,2024.2.1,Win32,59.88023952,66fa4ebf79326e780c390304,,,,,,,,,,,,,,,,,,,,,177.6776,177.6776,177.6786,178.4774,1,0,right,0.2743,,178.4786,178.4798,,0,,178.4808,178.4815,,0,,1,178.4815,178.4815,178.4822,179.9774,0,13,13,13,1,0.2,0.8,0.8,0.2,1,0,,,,,,,,,,,,,,,,,,,,,,,,,,,,,,,,,,,,
,,6630ec3fa1752b4b2743c4cc,66fc98e9756f264e9ca11909,2024-10-01_21h52.09.193,mdp,2024.2.1,Win32,59.88023952,66fa4ebf79326e780c390304,,,,,,,,,,,,,,,,,,,,,179.978,179.9781,179.9796,180.9271,0,0,left,0.4264,,180.9284,180.9294,,1,,180.9307,180.9314,,1,,1,180.9314,180.9314,180.9322,182.427,0,14,14,14,1,0.2,0.8,0.8,0.2,1,0,,,,,,,,,,,,,,,,,,,,,,,,,,,,,,,,,,,,
,,6630ec3fa1752b4b2743c4cc,66fc98e9756f264e9ca11909,2024-10-01_21h52.09.193,mdp,2024.2.1,Win32,59.88023952,66fa4ebf79326e780c390304,,,,,,,,,,,,,,,,,,,,,182.4276,182.4276,182.4296,183.3772,0,0,left,0.4236,,183.379,183.3804,,1,,183.3816,183.3824,,0,,1,183.3825,183.3825,183.3834,184.8764,0,15,15,15,1,0.6,0.4,0.4,0.6,1,0,,,,,,,,,,,,,,,,,,,,,,,,,,,,,,,,,,,,
,,6630ec3fa1752b4b2743c4cc,66fc98e9756f264e9ca11909,2024-10-01_21h52.09.193,mdp,2024.2.1,Win32,59.88023952,66fa4ebf79326e780c390304,,,,,,,,,,,,,,,,,,,,,184.8768,184.8768,184.8779,185.66,1,0,right,0.2674,,185.6615,185.6628,,0,,185.664,185.6647,,0,,1,185.6648,185.6648,185.6653,187.1598,0,16,16,16,1,0.6,0.4,0.4,0.6,1,0,,,,,,,,,,,,,,,,,,,,,,,,,,,,,,,,,,,,
,,6630ec3fa1752b4b2743c4cc,66fc98e9756f264e9ca11909,2024-10-01_21h52.09.193,mdp,2024.2.1,Win32,59.88023952,66fa4ebf79326e780c390304,,,,,,,,,,,,,,,,,,,,,187.1602,187.1602,187.1613,188.0098,1,1,right,0.3255,,188.0114,188.0126,,0,,188.0138,188.0147,,0,,0,188.0147,188.0147,188.0157,189.5097,0,17,17,17,1,0.2,0.8,0.8,0.2,1,0,,,,,,,,,,,,,,,,,,,,,,,,,,,,,,,,,,,,
,,6630ec3fa1752b4b2743c4cc,66fc98e9756f264e9ca11909,2024-10-01_21h52.09.193,mdp,2024.2.1,Win32,59.88023952,66fa4ebf79326e780c390304,,,,,,,,,,,,,,,,,,,,,189.5103,189.5103,189.5122,190.4264,0,1,left,0.3837,,190.4279,190.4292,,0,,190.4304,190.4311,,0,,0,190.4311,190.4311,190.4321,191.9265,0,18,18,18,1,0.2,0.8,0.8,0.2,1,0,,,,,,,,,,,,,,,,,,,,,,,,,,,,,,,,,,,,
,,6630ec3fa1752b4b2743c4cc,66fc98e9756f264e9ca11909,2024-10-01_21h52.09.193,mdp,2024.2.1,Win32,59.88023952,66fa4ebf79326e780c390304,,,,,,,,,,,,,,,,,,,,,191.927,191.927,191.9284,192.7762,0,1,left,0.3164,,192.7774,192.7785,,1,,192.7796,192.7802,,1,,0,192.7802,192.7802,192.7808,194.276,0,19,19,19,1,0.2,0.8,0.8,0.2,1,0,,,,,,,,,,,,,,,,,,,,,,,,,,,,,,,,,,,,
,,6630ec3fa1752b4b2743c4cc,66fc98e9756f264e9ca11909,2024-10-01_21h52.09.193,mdp,2024.2.1,Win32,59.88023952,66fa4ebf79326e780c390304,,,,,,,,,,,,,,,,,,,,,194.2765,194.2765,194.2777,195.0094,0,0,left,0.2074,,195.0108,195.013,,1,,195.014,195.0149,,0,,1,195.0149,195.0149,195.0159,196.5091,0,20,20,20,1,0.8,0.2,0.4,0.6,1,0,,,,,,,,,,,,,,,,,,,,,,,,,,,,,,,,,,,,
,,6630ec3fa1752b4b2743c4cc,66fc98e9756f264e9ca11909,2024-10-01_21h52.09.193,mdp,2024.2.1,Win32,59.88023952,66fa4ebf79326e780c390304,,,,,,,,,,,,,,,,,,,,,196.5095,196.5095,196.5107,197.3428,1,1,right,0.3101,,197.344,197.345,,1,,197.3462,197.3471,,0,,0,197.3472,197.3472,197.3481,198.8426,0,21,21,21,1,0.8,0.2,0.4,0.6,1,0,,,,,,,,,,,,,,,,,,,,,,,,,,,,,,,,,,,,
,,6630ec3fa1752b4b2743c4cc,66fc98e9756f264e9ca11909,2024-10-01_21h52.09.193,mdp,2024.2.1,Win32,59.88023952,66fa4ebf79326e780c390304,,,,,,,,,,,,,,,,,,,,,198.8429,198.8429,198.8445,199.6925,0,1,left,0.3194,,199.6938,199.6948,,0,,199.6957,199.6965,,0,,0,199.6965,199.6965,199.6971,201.1926,0,22,22,22,1,0.8,0.2,0.4,0.6,1,0,,,,,,,,,,,,,,,,,,,,,,,,,,,,,,,,,,,,
,,6630ec3fa1752b4b2743c4cc,66fc98e9756f264e9ca11909,2024-10-01_21h52.09.193,mdp,2024.2.1,Win32,59.88023952,66fa4ebf79326e780c390304,,,,,,,,,,,,,,,,,,,,,201.1931,201.1931,201.1945,202.0426,0,0,left,0.3201,,202.0441,202.0454,,0,,202.0463,202.047,,0,,1,202.047,202.0471,202.0476,203.5422,0,23,23,23,1,0.8,0.2,0.4,0.6,1,0,,,,,,,,,,,,,,,,,,,,,,,,,,,,,,,,,,,,
,,6630ec3fa1752b4b2743c4cc,66fc98e9756f264e9ca11909,2024-10-01_21h52.09.193,mdp,2024.2.1,Win32,59.88023952,66fa4ebf79326e780c390304,,,,,,,,,,,,,,,,,,,,,203.5428,203.5428,203.544,204.5589,0,0,left,0.4927,,204.561,204.5627,,0,,204.5636,204.5644,,1,,1,204.5644,204.5644,204.5651,206.0586,0,24,24,24,1,0.6,0.4,0.8,0.2,1,0,,,,,,,,,,,,,,,,,,,,,,,,,,,,,,,,,,,,
,,6630ec3fa1752b4b2743c4cc,66fc98e9756f264e9ca11909,2024-10-01_21h52.09.193,mdp,2024.2.1,Win32,59.88023952,66fa4ebf79326e780c390304,,,,,,,,,,,,,,,,,,,,,206.059,206.0591,206.0602,206.9088,1,0,right,0.3181,,206.9099,206.9107,,1,,206.9119,206.9128,,1,,1,206.9129,206.9129,206.9135,208.4084,0,25,25,25,1,0.6,0.4,0.8,0.2,1,0,,,,,,,,,,,,,,,,,,,,,,,,,,,,,,,,,,,,
,,6630ec3fa1752b4b2743c4cc,66fc98e9756f264e9ca11909,2024-10-01_21h52.09.193,mdp,2024.2.1,Win32,59.88023952,66fa4ebf79326e780c390304,,,,,,,,,,,,,,,,,,,,,208.4092,208.4092,208.4112,209.2585,0,0,left,0.3193,,209.2598,209.2609,,1,,209.2621,209.2627,,1,,1,209.2628,209.2628,209.2635,210.7585,0,26,26,26,1,0.6,0.4,0.8,0.2,1,0,,,,,,,,,,,,,,,,,,,,,,,,,,,,,,,,,,,,
,,6630ec3fa1752b4b2743c4cc,66fc98e9756f264e9ca11909,2024-10-01_21h52.09.193,mdp,2024.2.1,Win32,59.88023952,66fa4ebf79326e780c390304,,,,,,,,,,,,,,,,,,,,,210.7591,210.7591,210.7606,211.5751,1,0,right,0.283,,211.5766,211.5777,,0,,211.579,211.5797,,0,,1,211.5797,211.5797,211.5803,213.0751,0,27,27,27,1,0.6,0.4,0.8,0.2,1,0,,,,,,,,,,,,,,,,,,,,,,,,,,,,,,,,,,,,
,,6630ec3fa1752b4b2743c4cc,66fc98e9756f264e9ca11909,2024-10-01_21h52.09.193,mdp,2024.2.1,Win32,59.88023952,66fa4ebf79326e780c390304,,,,,,,,,,,,,,,,,,,,,213.0757,213.0757,213.0776,213.8081,1,0,right,0.2102,,213.8092,213.81,,0,,213.8112,213.8125,,0,,1,213.8125,213.8125,213.8131,215.3084,0,28,28,28,1,0.6,0.4,0.8,0.2,1,0,,,,,,,,,,,,,,,,,,,,,,,,,,,,,,,,,,,,
,,6630ec3fa1752b4b2743c4cc,66fc98e9756f264e9ca11909,2024-10-01_21h52.09.193,mdp,2024.2.1,Win32,59.88023952,66fa4ebf79326e780c390304,,,,,,,,,,,,,,,,,,,,,215.3089,215.3089,215.3103,216.1915,0,0,left,0.3534,,216.193,216.1943,,0,,216.196,216.1967,,1,,1,216.1967,216.1968,216.1974,217.691,0,29,29,29,1,0.6,0.4,0.8,0.2,1,0,,,,,,,,,,,,,,,,,,,,,,,,,,,,,,,,,,,,
,,6630ec3fa1752b4b2743c4cc,66fc98e9756f264e9ca11909,2024-10-01_21h52.09.193,mdp,2024.2.1,Win32,59.88023952,66fa4ebf79326e780c390304,,,,,,,,,,,,,,,,,,,,,217.6913,217.6913,217.6926,218.5915,0,1,left,0.3681,,218.5933,218.595,,0,,218.596,218.5967,,0,,0,218.5967,218.5967,218.5974,220.0914,0,30,30,30,1,0.6,0.4,0.8,0.2,1,0,,,,,,,,,,,,,,,,,,,,,,,,,,,,,,,,,,,,
,,6630ec3fa1752b4b2743c4cc,66fc98e9756f264e9ca11909,2024-10-01_21h52.09.193,mdp,2024.2.1,Win32,59.88023952,66fa4ebf79326e780c390304,,,,,,,,,,,,,,,,,,,,,220.0918,220.0918,220.0933,221.0408,1,1,right,0.4171,,221.0417,221.0424,,0,,221.0433,221.044,,0,,0,221.044,221.044,221.0446,222.5409,0,31,31,31,1,0.6,0.4,0.8,0.2,1,0,,,,,,,,,,,,,,,,,,,,,,,,,,,,,,,,,,,,
,,6630ec3fa1752b4b2743c4cc,66fc98e9756f264e9ca11909,2024-10-01_21h52.09.193,mdp,2024.2.1,Win32,59.88023952,66fa4ebf79326e780c390304,,,,,,,,,,,,,,,,,,,,,222.5413,222.5413,222.5427,223.3911,1,1,right,0.3263,,223.3931,223.3946,,0,,223.3956,223.3963,,0,,0,223.3963,223.3963,223.3969,224.891,0,32,32,32,1,0.6,0.4,0.8,0.2,1,0,,,,,,,,,,,,,,,,,,,,,,,,,,,,,,,,,,,,
,,6630ec3fa1752b4b2743c4cc,66fc98e9756f264e9ca11909,2024-10-01_21h52.09.193,mdp,2024.2.1,Win32,59.88023952,66fa4ebf79326e780c390304,,,,,,,,,,,,,,,,,,,,,224.8917,224.8917,224.8929,225.7247,1,1,right,0.3026,,225.7266,225.7284,,0,,225.7292,225.7299,,0,,0,225.7299,225.7299,225.7306,227.2243,0,33,33,33,1,0.6,0.4,0.8,0.2,1,0,,,,,,,,,,,,,,,,,,,,,,,,,,,,,,,,,,,,
,,6630ec3fa1752b4b2743c4cc,66fc98e9756f264e9ca11909,2024-10-01_21h52.09.193,mdp,2024.2.1,Win32,59.88023952,66fa4ebf79326e780c390304,,,,,,,,,,,,,,,,,,,,,227.2248,227.2248,227.2267,227.9243,0,1,left,0.1664,,227.9256,227.9265,,1,,227.9279,227.9288,,1,,0,227.9289,227.9289,227.9298,229.4241,0,34,34,34,1,0.6,0.4,0.8,0.2,1,0,,,,,,,,,,,,,,,,,,,,,,,,,,,,,,,,,,,,
,,6630ec3fa1752b4b2743c4cc,66fc98e9756f264e9ca11909,2024-10-01_21h52.09.193,mdp,2024.2.1,Win32,59.88023952,66fa4ebf79326e780c390304,,,,,,,,,,,,,,,,,,,,,229.4247,229.4247,229.426,230.1574,0,0,left,0.2034,,230.1587,230.1597,,1,,230.161,230.1617,,1,,1,230.1618,230.1618,230.1625,231.6573,0,35,35,35,1,0.6,0.4,0.8,0.2,1,0,,,,,,,,,,,,,,,,,,,,,,,,,,,,,,,,,,,,
,,6630ec3fa1752b4b2743c4cc,66fc98e9756f264e9ca11909,2024-10-01_21h52.09.193,mdp,2024.2.1,Win32,59.88023952,66fa4ebf79326e780c390304,,,,,,,,,,,,,,,,,,,,,231.6576,231.6577,231.6587,232.4402,1,0,right,0.2609,,232.4416,232.4423,,0,,232.4437,232.4446,,1,,1,232.4447,232.4447,232.4454,233.9403,0,36,36,36,1,0.8,0.2,0.6,0.4,1,0,,,,,,,,,,,,,,,,,,,,,,,,,,,,,,,,,,,,
,,6630ec3fa1752b4b2743c4cc,66fc98e9756f264e9ca11909,2024-10-01_21h52.09.193,mdp,2024.2.1,Win32,59.88023952,66fa4ebf79326e780c390304,,,,,,,,,,,,,,,,,,,,,233.9407,233.9407,233.9417,234.6572,0,1,left,0.1849,,234.6584,234.6592,,0,,234.6602,234.6608,,0,,0,234.6609,234.6609,234.6615,236.1571,0,37,37,37,1,0.8,0.2,0.6,0.4,1,0,,,,,,,,,,,,,,,,,,,,,,,,,,,,,,,,,,,,
,,6630ec3fa1752b4b2743c4cc,66fc98e9756f264e9ca11909,2024-10-01_21h52.09.193,mdp,2024.2.1,Win32,59.88023952,66fa4ebf79326e780c390304,,,,,,,,,,,,,,,,,,,,,236.1575,236.1576,236.1591,236.8239,0,0,left,0.1346,,236.8253,236.8265,,0,,236.8275,236.8281,,0,,1,236.8282,236.8282,236.8287,238.3237,0,38,38,38,1,0.8,0.2,0.6,0.4,1,0,,,,,,,,,,,,,,,,,,,,,,,,,,,,,,,,,,,,
,,6630ec3fa1752b4b2743c4cc,66fc98e9756f264e9ca11909,2024-10-01_21h52.09.193,mdp,2024.2.1,Win32,59.88023952,66fa4ebf79326e780c390304,,,,,,,,,,,,,,,,,,,,,238.3242,238.3242,238.3261,239.0898,1,0,right,0.2451,,239.0914,239.0926,,0,,239.0942,239.0949,,0,,1,239.0949,239.0949,239.0955,240.5901,0,39,39,39,1,0.8,0.2,0.6,0.4,1,0,,,,,,,,,,,,,,,,,,,,,,,,,,,,,,,,,,,,
,,6630ec3fa1752b4b2743c4cc,66fc98e9756f264e9ca11909,2024-10-01_21h52.09.193,mdp,2024.2.1,Win32,59.88023952,66fa4ebf79326e780c390304,,,,,,,,,,,,,,,,,,,,,240.5906,240.5906,240.5944,241.3737,0,0,left,0.2534,,241.3748,241.3759,,0,,241.3768,241.3775,,0,,1,241.3775,241.3775,241.3782,242.8734,0,40,40,40,1,0.8,0.2,0.6,0.4,1,0,,,,,,,,,,,,,,,,,,,,,,,,,,,,,,,,,,,,
,,6630ec3fa1752b4b2743c4cc,66fc98e9756f264e9ca11909,2024-10-01_21h52.09.193,mdp,2024.2.1,Win32,59.88023952,66fa4ebf79326e780c390304,,,,,,,,,,,,,,,,,,,,,242.874,242.874,242.8762,243.6233,1,0,right,0.2239,,243.6243,243.625,,0,,243.6262,243.627,,1,,1,243.627,243.627,243.6276,245.1231,0,41,41,41,1,0.8,0.2,0.6,0.4,1,0,,,,,,,,,,,,,,,,,,,,,,,,,,,,,,,,,,,,
,,6630ec3fa1752b4b2743c4cc,66fc98e9756f264e9ca11909,2024-10-01_21h52.09.193,mdp,2024.2.1,Win32,59.88023952,66fa4ebf79326e780c390304,,,,,,,,,,,,,,,,,,,,,245.1236,245.1236,245.1249,245.9066,1,1,right,0.2518,,245.9087,245.9103,,0,,245.9112,245.9118,,0,,0,245.9118,245.9119,245.9126,247.4066,0,42,42,42,1,0.8,0.2,0.6,0.4,1,0,,,,,,,,,,,,,,,,,,,,,,,,,,,,,,,,,,,,
,,6630ec3fa1752b4b2743c4cc,66fc98e9756f264e9ca11909,2024-10-01_21h52.09.193,mdp,2024.2.1,Win32,59.88023952,66fa4ebf79326e780c390304,,,,,,,,,,,,,,,,,,,,,247.407,247.4071,247.4083,248.123,0,1,left,0.189,,248.1244,248.1259,,0,,248.1269,248.1276,,1,,0,248.1276,248.1276,248.1282,249.623,0,43,43,43,1,0.6,0.4,0.2,0.8,1,0,,,,,,,,,,,,,,,,,,,,,,,,,,,,,,,,,,,,
,,6630ec3fa1752b4b2743c4cc,66fc98e9756f264e9ca11909,2024-10-01_21h52.09.193,mdp,2024.2.1,Win32,59.88023952,66fa4ebf79326e780c390304,,,,,,,,,,,,,,,,,,,,,249.6233,249.6233,249.6244,250.4396,1,0,right,0.2899,,250.4417,250.4433,,0,,250.4442,250.4449,,0,,1,250.445,250.445,250.4457,251.9392,0,44,44,44,1,0.8,0.2,0.8,0.2,1,0,,,,,,,,,,,,,,,,,,,,,,,,,,,,,,,,,,,,
,,6630ec3fa1752b4b2743c4cc,66fc98e9756f264e9ca11909,2024-10-01_21h52.09.193,mdp,2024.2.1,Win32,59.88023952,66fa4ebf79326e780c390304,,,,,,,,,,,,,,,,,,,,,251.9398,251.9398,251.9421,252.7892,0,1,left,0.3172,,252.7906,252.7915,,1,,252.7925,252.7933,,0,,0,252.7933,252.7933,252.7938,254.2889,0,45,45,45,1,0.8,0.2,0.8,0.2,1,0,,,,,,,,,,,,,,,,,,,,,,,,,,,,,,,,,,,,
,,6630ec3fa1752b4b2743c4cc,66fc98e9756f264e9ca11909,2024-10-01_21h52.09.193,mdp,2024.2.1,Win32,59.88023952,66fa4ebf79326e780c390304,,,,,,,,,,,,,,,,,,,,,254.2907,254.2908,254.2929,255.1225,1,1,right,0.3017,,255.1238,255.1246,,1,,255.1259,255.1265,,0,,0,255.1265,255.1266,255.1271,256.6223,0,46,46,46,1,0.6,0.4,0.4,0.6,1,0,,,,,,,,,,,,,,,,,,,,,,,,,,,,,,,,,,,,
,,6630ec3fa1752b4b2743c4cc,66fc98e9756f264e9ca11909,2024-10-01_21h52.09.193,mdp,2024.2.1,Win32,59.88023952,66fa4ebf79326e780c390304,,,,,,,,,,,,,,,,,,,,,256.6227,256.6227,256.6237,257.389,1,0,right,0.2394,,257.3909,257.3927,,0,,257.3936,257.3944,,0,,1,257.3945,257.3945,257.3952,258.889,0,47,47,47,1,0.6,0.4,0.4,0.6,1,0,,,,,,,,,,,,,,,,,,,,,,,,,,,,,,,,,,,,
,,6630ec3fa1752b4b2743c4cc,66fc98e9756f264e9ca11909,2024-10-01_21h52.09.193,mdp,2024.2.1,Win32,59.88023952,66fa4ebf79326e780c390304,,,,,,,,,,,,,,,,,,,,,258.8894,258.8894,258.8907,259.6723,1,0,right,0.2503,,259.6734,259.6741,,0,,259.6754,259.6765,,0,,1,259.6766,259.6766,259.6772,261.1718,0,48,48,48,1,0.2,0.8,0.8,0.2,1,0,,,,,,,,,,,,,,,,,,,,,,,,,,,,,,,,,,,,
,,6630ec3fa1752b4b2743c4cc,66fc98e9756f264e9ca11909,2024-10-01_21h52.09.193,mdp,2024.2.1,Win32,59.88023952,66fa4ebf79326e780c390304,,,,,,,,,,,,,,,,,,,,,261.1724,261.1724,261.1744,261.9886,0,0,left,0.286,,261.9898,261.9906,,0,,261.9917,261.9923,,1,,1,261.9924,261.9924,261.9929,263.4887,0,49,49,49,1,0.6,0.4,0.6,0.4,1,0,,,,,,,,,,,,,,,,,,,,,,,,,,,,,,,,,,,,
,,6630ec3fa1752b4b2743c4cc,66fc98e9756f264e9ca11909,2024-10-01_21h52.09.193,mdp,2024.2.1,Win32,59.88023952,66fa4ebf79326e780c390304,,,,,,,,,,,,,,,,,,,,,,,,,,,,,,,,,,,,,,,,,,,,,,,,,,,,,,,,263.4901,322.0027,0,0,0,1,1,imgs/lion.png,imgs/dog.png,imgs/elephant.png,imgs/giraffe.png,imgs/kangaroo.png,,,,,,,,,,,,,,,,,,,,,,,,
,,6630ec3fa1752b4b2743c4cc,66fc98e9756f264e9ca11909,2024-10-01_21h52.09.193,mdp,2024.2.1,Win32,59.88023952,66fa4ebf79326e780c390304,,,,,,,,,,,,,,2,seqs/st2seq46.csv,322.0219,324.7181,space,2.1779,,324.7277,324.7277,324.7289,326.1847,1,1,right,0.9317,,326.1861,327.4348,0,0,left,327.4363,327.4375,,1,,1,327.4376,327.4376,327.439,328.9346,0,0,0,0,1,0.2,0.8,0.6,0.4,,,,,,,,,,,,,,,0.7083,,0.2,0.8,0.6,0.4,0.2,0.8,0.8,0.2,1,0,,,,,,,,,,,,
,,6630ec3fa1752b4b2743c4cc,66fc98e9756f264e9ca11909,2024-10-01_21h52.09.193,mdp,2024.2.1,Win32,59.88023952,66fa4ebf79326e780c390304,,,,,,,,,,,,,,,,,,,,,328.935,328.9351,328.9359,330.0349,1,0,right,0.5671,,330.036,331.0177,0,0,left,331.0191,331.0202,,1,,1,331.0203,331.0203,331.0215,332.5176,0,1,1,1,1,0.2,0.8,0.6,0.4,,,,,,,,,,,,,,,0.4466,,0.2,0.8,0.6,0.4,0.2,0.8,0.8,0.2,1,0,,,,,,,,,,,,
,,6630ec3fa1752b4b2743c4cc,66fc98e9756f264e9ca11909,2024-10-01_21h52.09.193,mdp,2024.2.1,Win32,59.88023952,66fa4ebf79326e780c390304,,,,,,,,,,,,,,,,,,,,,332.5179,332.5179,332.5188,333.5345,1,0,right,0.4854,,333.536,334.818,0,1,left,334.8192,334.8201,,1,,0,334.8203,334.8203,334.8214,336.3171,0,2,2,2,1,0.2,0.8,0.6,0.4,,,,,,,,,,,,,,,0.7516,,0.2,0.8,0.6,0.4,0.2,0.8,0.8,0.2,1,0,,,,,,,,,,,,
,,6630ec3fa1752b4b2743c4cc,66fc98e9756f264e9ca11909,2024-10-01_21h52.09.193,mdp,2024.2.1,Win32,59.88023952,66fa4ebf79326e780c390304,,,,,,,,,,,,,,,,,,,,,336.3174,336.3174,336.3183,337.5007,1,0,right,0.6732,,337.5026,338.4508,0,1,left,338.4524,338.4533,,0,,0,338.4534,338.4534,338.4544,339.9508,0,3,3,3,1,0.2,0.8,0.6,0.4,,,,,,,,,,,,,,,0.4245,,0.2,0.8,0.6,0.4,0.2,0.8,0.8,0.2,1,0,,,,,,,,,,,,
,,6630ec3fa1752b4b2743c4cc,66fc98e9756f264e9ca11909,2024-10-01_21h52.09.193,mdp,2024.2.1,Win32,59.88023952,66fa4ebf79326e780c390304,,,,,,,,,,,,,,,,,,,,,339.9512,339.9512,339.9523,340.9837,1,1,right,0.5012,,340.9848,341.9173,1,0,right,341.9188,341.9198,,0,,1,341.9199,341.9199,341.921,343.4171,0,4,4,4,1,0.8,0.2,0.4,0.6,,,,,,,,,,,,,,,0.4013,,0.2,0.8,0.6,0.4,0.2,0.8,0.8,0.2,1,0,,,,,,,,,,,,
,,6630ec3fa1752b4b2743c4cc,66fc98e9756f264e9ca11909,2024-10-01_21h52.09.193,mdp,2024.2.1,Win32,59.88023952,66fa4ebf79326e780c390304,,,,,,,,,,,,,,,,,,,,,343.4176,343.4176,343.4187,344.5508,1,0,right,0.5997,,344.5526,345.9505,1,1,right,345.9516,345.9525,,0,,0,345.9526,345.9526,345.9537,347.4501,0,5,5,5,1,0.8,0.2,0.4,0.6,,,,,,,,,,,,,,,0.8683,,0.2,0.8,0.6,0.4,0.2,0.8,0.8,0.2,1,0,,,,,,,,,,,,
,,6630ec3fa1752b4b2743c4cc,66fc98e9756f264e9ca11909,2024-10-01_21h52.09.193,mdp,2024.2.1,Win32,59.88023952,66fa4ebf79326e780c390304,,,,,,,,,,,,,,,,,,,,,347.4505,347.4506,347.4518,350.0499,1,1,right,2.0689,,350.0682,351.7996,0,1,left,351.8006,351.8015,,1,,0,351.8016,351.8016,351.8028,353.2994,0,6,6,6,1,0.8,0.2,0.4,0.6,,,,,,,,,,,,,,,1.2164,,0.8,0.2,0.4,0.6,0.2,0.8,0.8,0.2,1,0,,,,,,,,,,,,
,,6630ec3fa1752b4b2743c4cc,66fc98e9756f264e9ca11909,2024-10-01_21h52.09.193,mdp,2024.2.1,Win32,59.88023952,66fa4ebf79326e780c390304,,,,,,,,,,,,,,,,,,,,,353.2997,353.2998,353.3004,354.5494,1,1,right,0.7256,,354.5502,355.7827,0,1,left,355.7841,355.7851,,0,,0,355.7851,355.7851,355.7865,357.2825,0,7,7,7,1,0.8,0.2,0.4,0.6,,,,,,,,,,,,,,,0.7014,,0.8,0.2,0.4,0.6,0.2,0.8,0.8,0.2,1,0,,,,,,,,,,,,
,,6630ec3fa1752b4b2743c4cc,66fc98e9756f264e9ca11909,2024-10-01_21h52.09.193,mdp,2024.2.1,Win32,59.88023952,66fa4ebf79326e780c390304,,,,,,,,,,,,,,,,,,,,,357.2829,357.2829,357.2838,358.2496,1,1,right,0.4338,,358.251,359.2828,1,0,right,359.2842,359.2855,,0,,1,359.2856,359.2856,359.2867,360.7825,0,8,8,8,1,0.8,0.2,0.4,0.6,,,,,,,,,,,,,,,0.5062,,0.8,0.2,0.4,0.6,0.2,0.8,0.8,0.2,1,0,,,,,,,,,,,,
,,6630ec3fa1752b4b2743c4cc,66fc98e9756f264e9ca11909,2024-10-01_21h52.09.193,mdp,2024.2.1,Win32,59.88023952,66fa4ebf79326e780c390304,,,,,,,,,,,,,,,,,,,,,360.7831,360.7831,360.7847,361.8491,1,1,right,0.54,,361.85,363.1655,1,1,right,363.1662,363.167,,0,,0,363.167,363.1671,363.1679,364.6654,0,9,9,9,1,0.8,0.2,0.4,0.6,,,,,,,,,,,,,,,0.7842,,0.8,0.2,0.4,0.6,0.4,0.6,0.2,0.8,1,0,,,,,,,,,,,,
,,6630ec3fa1752b4b2743c4cc,66fc98e9756f264e9ca11909,2024-10-01_21h52.09.193,mdp,2024.2.1,Win32,59.88023952,66fa4ebf79326e780c390304,,,,,,,,,,,,,,,,,,,,,364.6658,364.6658,364.6665,365.5989,1,1,right,0.4052,,365.5997,366.5655,1,1,right,366.566,366.5665,,1,,0,366.5665,366.5665,366.5672,368.0656,0,10,10,10,1,0.8,0.2,0.4,0.6,,,,,,,,,,,,,,,0.4346,,0.8,0.2,0.4,0.6,0.4,0.6,0.2,0.8,1,0,,,,,,,,,,,,
,,6630ec3fa1752b4b2743c4cc,66fc98e9756f264e9ca11909,2024-10-01_21h52.09.193,mdp,2024.2.1,Win32,59.88023952,66fa4ebf79326e780c390304,,,,,,,,,,,,,,,,,,,,,368.0659,368.0659,368.0667,368.8986,1,0,right,0.2984,,368.8994,369.6824,1,0,right,369.6835,369.6842,,1,,1,369.6844,369.6844,369.6855,371.1817,0,11,11,11,1,0.8,0.2,0.4,0.6,,,,,,,,,,,,,,,0.2673,,0.8,0.2,0.4,0.6,0.4,0.6,0.2,0.8,1,0,,,,,,,,,,,,
,,6630ec3fa1752b4b2743c4cc,66fc98e9756f264e9ca11909,2024-10-01_21h52.09.193,mdp,2024.2.1,Win32,59.88023952,66fa4ebf79326e780c390304,,,,,,,,,,,,,,,,,,,,,371.1821,371.1821,371.1828,372.1152,0,1,left,0.4052,,372.1159,373.1651,1,1,right,373.1664,373.1675,,1,,0,373.1675,373.1675,373.1686,374.6649,0,12,12,12,1,0.8,0.2,0.4,0.6,,,,,,,,,,,,,,,0.519,,0.8,0.2,0.4,0.6,0.4,0.6,0.2,0.8,1,0,,,,,,,,,,,,
,,6630ec3fa1752b4b2743c4cc,66fc98e9756f264e9ca11909,2024-10-01_21h52.09.193,mdp,2024.2.1,Win32,59.88023952,66fa4ebf79326e780c390304,,,,,,,,,,,,,,,,,,,,,374.6652,374.6652,374.6658,375.5149,0,0,left,0.3202,,375.5156,376.4646,0,0,left,376.4654,376.466,,1,,1,376.4661,376.4661,376.4667,377.9649,0,13,13,13,1,0.8,0.2,0.4,0.6,,,,,,,,,,,,,,,0.4184,,0.8,0.2,0.4,0.6,0.4,0.6,0.2,0.8,1,0,,,,,,,,,,,,
,,6630ec3fa1752b4b2743c4cc,66fc98e9756f264e9ca11909,2024-10-01_21h52.09.193,mdp,2024.2.1,Win32,59.88023952,66fa4ebf79326e780c390304,,,,,,,,,,,,,,,,,,,,,377.9653,377.9653,377.9662,379.1145,0,0,left,0.617,,379.1153,380.248,0,0,left,380.2487,380.2496,,0,,1,380.2496,380.2496,380.2507,381.7477,0,14,14,14,1,0.8,0.2,0.4,0.6,,,,,,,,,,,,,,,0.604,,0.8,0.2,0.4,0.6,0.4,0.6,0.2,0.8,1,0,,,,,,,,,,,,
,,6630ec3fa1752b4b2743c4cc,66fc98e9756f264e9ca11909,2024-10-01_21h52.09.193,mdp,2024.2.1,Win32,59.88023952,66fa4ebf79326e780c390304,,,,,,,,,,,,,,,,,,,,,381.748,381.748,381.7487,382.7144,0,0,left,0.4461,,382.7152,383.5975,0,0,left,383.5982,383.5989,,1,,1,383.599,383.599,383.5996,385.0975,0,15,15,15,1,0.8,0.2,0.4,0.6,,,,,,,,,,,,,,,0.3537,,0.8,0.2,0.4,0.6,0.2,0.8,0.6,0.4,1,0,,,,,,,,,,,,
,,6630ec3fa1752b4b2743c4cc,66fc98e9756f264e9ca11909,2024-10-01_21h52.09.193,mdp,2024.2.1,Win32,59.88023952,66fa4ebf79326e780c390304,,,,,,,,,,,,,,,,,,,,,385.0978,385.0978,385.0985,386.2143,0,1,left,0.6007,,386.2149,387.5975,1,1,right,387.5983,387.5991,,1,,0,387.5992,387.5992,387.6004,389.0976,0,16,16,16,1,0.4,0.6,0.8,0.2,,,,,,,,,,,,,,,0.8508,,0.8,0.2,0.4,0.6,0.2,0.8,0.6,0.4,1,0,,,,,,,,,,,,
,,6630ec3fa1752b4b2743c4cc,66fc98e9756f264e9ca11909,2024-10-01_21h52.09.193,mdp,2024.2.1,Win32,59.88023952,66fa4ebf79326e780c390304,,,,,,,,,,,,,,,,,,,,,389.0978,389.0979,389.0985,390.5974,0,1,left,0.9694,,390.5981,391.9307,0,1,left,391.9313,391.9317,,0,,0,391.9317,391.9317,391.9324,393.4304,0,17,17,17,1,0.4,0.6,0.8,0.2,,,,,,,,,,,,,,,0.8019,,0.8,0.2,0.4,0.6,0.2,0.8,0.6,0.4,1,0,,,,,,,,,,,,
,,6630ec3fa1752b4b2743c4cc,66fc98e9756f264e9ca11909,2024-10-01_21h52.09.193,mdp,2024.2.1,Win32,59.88023952,66fa4ebf79326e780c390304,,,,,,,,,,,,,,,,,,,,,393.4308,393.4308,393.4315,394.3973,1,0,right,0.4335,,394.3981,395.9469,0,0,left,395.9478,395.9489,,0,,1,395.949,395.949,395.9501,397.4468,0,18,18,18,1,0.4,0.6,0.8,0.2,,,,,,,,,,,,,,,1.0164,,0.8,0.2,0.4,0.6,0.2,0.8,0.6,0.4,1,0,,,,,,,,,,,,
,,6630ec3fa1752b4b2743c4cc,66fc98e9756f264e9ca11909,2024-10-01_21h52.09.193,mdp,2024.2.1,Win32,59.88023952,66fa4ebf79326e780c390304,,,,,,,,,,,,,,,,,,,,,397.4471,397.4471,397.4479,400.2967,1,0,right,2.3176,,400.3042,401.6634,0,0,left,401.6648,401.6656,,1,,1,401.6657,401.6657,401.6668,403.1631,0,19,19,19,1,0.4,0.6,0.8,0.2,,,,,,,,,,,,,,,0.8452,,0.8,0.2,0.4,0.6,0.2,0.8,0.6,0.4,1,0,,,,,,,,,,,,
,,6630ec3fa1752b4b2743c4cc,66fc98e9756f264e9ca11909,2024-10-01_21h52.09.193,mdp,2024.2.1,Win32,59.88023952,66fa4ebf79326e780c390304,,,,,,,,,,,,,,,,,,,,,403.1634,403.1634,403.1641,404.213,1,0,right,0.5242,,404.2137,405.0964,0,1,left,405.0971,405.098,,0,,0,405.098,405.098,405.0989,406.5965,0,20,20,20,1,0.4,0.6,0.8,0.2,,,,,,,,,,,,,,,0.3712,,0.8,0.2,0.4,0.6,0.2,0.8,0.6,0.4,1,0,,,,,,,,,,,,
,,6630ec3fa1752b4b2743c4cc,66fc98e9756f264e9ca11909,2024-10-01_21h52.09.193,mdp,2024.2.1,Win32,59.88023952,66fa4ebf79326e780c390304,,,,,,,,,,,,,,,,,,,,,406.5969,406.5969,406.5978,407.363,0,0,left,0.2344,,407.3637,408.5129,0,0,left,408.5138,408.5146,,0,,1,408.5146,408.5146,408.5155,410.0126,0,21,21,21,1,0.4,0.6,0.8,0.2,,,,,,,,,,,,,,,0.6175,,0.8,0.2,0.4,0.6,0.2,0.8,0.6,0.4,1,0,,,,,,,,,,,,
,,6630ec3fa1752b4b2743c4cc,66fc98e9756f264e9ca11909,2024-10-01_21h52.09.193,mdp,2024.2.1,Win32,59.88023952,66fa4ebf79326e780c390304,,,,,,,,,,,,,,,,,,,,,410.0129,410.0129,410.0138,410.9795,0,1,left,0.4409,,410.9801,412.1628,1,0,right,412.1636,412.1644,,0,,1,412.1645,412.1646,412.1661,413.6624,0,22,22,22,1,0.4,0.6,0.8,0.2,,,,,,,,,,,,,,,0.6546,,0.8,0.2,0.4,0.6,0.2,0.8,0.6,0.4,1,0,,,,,,,,,,,,
,,6630ec3fa1752b4b2743c4cc,66fc98e9756f264e9ca11909,2024-10-01_21h52.09.193,mdp,2024.2.1,Win32,59.88023952,66fa4ebf79326e780c390304,,,,,,,,,,,,,,,,,,,,,413.6628,413.6628,413.6636,414.5292,0,1,left,0.3364,,414.5304,415.4127,1,0,right,415.4144,415.4161,,1,,1,415.4162,415.4162,415.4172,416.9123,0,23,23,23,1,0.4,0.6,0.8,0.2,,,,,,,,,,,,,,,0.3669,,0.8,0.2,0.4,0.6,0.2,0.8,0.6,0.4,1,0,,,,,,,,,,,,
,,6630ec3fa1752b4b2743c4cc,66fc98e9756f264e9ca11909,2024-10-01_21h52.09.193,mdp,2024.2.1,Win32,59.88023952,66fa4ebf79326e780c390304,,,,,,,,,,,,,,,,,,,,,416.9128,416.9128,416.9141,417.7294,0,1,left,0.2855,,417.7314,418.7626,1,1,right,418.7645,418.7656,,0,,0,418.7657,418.7657,418.7667,420.2623,0,24,24,24,1,0.4,0.6,0.8,0.2,,,,,,,,,,,,,,,0.5029,,0.8,0.2,0.4,0.6,0.2,0.8,0.6,0.4,1,0,,,,,,,,,,,,
,,6630ec3fa1752b4b2743c4cc,66fc98e9756f264e9ca11909,2024-10-01_21h52.09.193,mdp,2024.2.1,Win32,59.88023952,66fa4ebf79326e780c390304,,,,,,,,,,,,,,,,,,,,,420.2627,420.2627,420.2638,421.0291,0,1,left,0.2443,,421.0305,422.2792,1,0,right,422.2803,422.2815,,1,,1,422.2815,422.2815,422.2826,423.779,0,25,25,25,1,0.4,0.6,0.8,0.2,,,,,,,,,,,,,,,0.7229,,0.8,0.2,0.4,0.6,0.2,0.8,0.6,0.4,1,0,,,,,,,,,,,,
,,6630ec3fa1752b4b2743c4cc,66fc98e9756f264e9ca11909,2024-10-01_21h52.09.193,mdp,2024.2.1,Win32,59.88023952,66fa4ebf79326e780c390304,,,,,,,,,,,,,,,,,,,,,423.7795,423.7795,423.7815,424.5787,0,0,left,0.2733,,424.5795,425.5621,0,1,left,425.5632,425.564,,1,,0,425.5641,425.5641,425.5651,427.0622,0,26,26,26,1,0.4,0.6,0.8,0.2,,,,,,,,,,,,,,,0.471,,0.4,0.6,0.6,0.4,0.2,0.8,0.6,0.4,1,0,,,,,,,,,,,,
,,6630ec3fa1752b4b2743c4cc,66fc98e9756f264e9ca11909,2024-10-01_21h52.09.193,mdp,2024.2.1,Win32,59.88023952,66fa4ebf79326e780c390304,,,,,,,,,,,,,,,,,,,,,427.0627,427.0627,427.0645,427.9285,0,0,left,0.3332,,427.9299,428.8956,0,0,left,428.8973,428.899,,0,,1,428.899,428.899,428.8998,430.3952,0,27,27,27,1,0.4,0.6,0.8,0.2,,,,,,,,,,,,,,,0.4418,,0.6,0.4,0.8,0.2,0.2,0.8,0.6,0.4,1,0,,,,,,,,,,,,
,,6630ec3fa1752b4b2743c4cc,66fc98e9756f264e9ca11909,2024-10-01_21h52.09.193,mdp,2024.2.1,Win32,59.88023952,66fa4ebf79326e780c390304,,,,,,,,,,,,,,,,,,,,,430.3956,430.3956,430.3967,431.2781,0,0,left,0.3528,,431.279,432.3449,0,1,left,432.3457,432.3461,,0,,0,432.3461,432.3461,432.3467,433.845,0,28,28,28,1,0.4,0.6,0.8,0.2,,,,,,,,,,,,,,,0.5493,,0.6,0.4,0.8,0.2,0.2,0.8,0.6,0.4,1,0,,,,,,,,,,,,
,,6630ec3fa1752b4b2743c4cc,66fc98e9756f264e9ca11909,2024-10-01_21h52.09.193,mdp,2024.2.1,Win32,59.88023952,66fa4ebf79326e780c390304,,,,,,,,,,,,,,,,,,,,,433.8453,433.8453,433.8468,434.7118,0,0,left,0.3353,,434.7135,435.6618,0,1,left,435.6631,435.6641,,1,,0,435.6642,435.6642,435.6651,437.1615,0,29,29,29,1,0.2,0.8,0.6,0.4,,,,,,,,,,,,,,,0.4226,,0.6,0.4,0.8,0.2,0.2,0.8,0.6,0.4,1,0,,,,,,,,,,,,
,,6630ec3fa1752b4b2743c4cc,66fc98e9756f264e9ca11909,2024-10-01_21h52.09.193,mdp,2024.2.1,Win32,59.88023952,66fa4ebf79326e780c390304,,,,,,,,,,,,,,,,,,,,,437.1622,437.1623,437.1643,438.1948,0,0,left,0.5095,,438.1962,439.2446,0,0,left,439.246,439.2474,,0,,1,439.2475,439.2475,439.2488,440.7446,0,30,30,30,1,0.2,0.8,0.6,0.4,,,,,,,,,,,,,,,0.517,,0.6,0.4,0.8,0.2,0.2,0.8,0.6,0.4,1,0,,,,,,,,,,,,
,,6630ec3fa1752b4b2743c4cc,66fc98e9756f264e9ca11909,2024-10-01_21h52.09.193,mdp,2024.2.1,Win32,59.88023952,66fa4ebf79326e780c390304,,,,,,,,,,,,,,,,,,,,,440.7449,440.7449,440.7458,441.6115,0,0,left,0.3416,,441.6143,442.878,0,1,left,442.8794,442.8806,,1,,0,442.8806,442.8806,442.882,444.3776,0,31,31,31,1,0.2,0.8,0.6,0.4,,,,,,,,,,,,,,,0.7341,,0.4,0.6,0.6,0.4,0.2,0.8,0.6,0.4,1,0,,,,,,,,,,,,
,,6630ec3fa1752b4b2743c4cc,66fc98e9756f264e9ca11909,2024-10-01_21h52.09.193,mdp,2024.2.1,Win32,59.88023952,66fa4ebf79326e780c390304,,,,,,,,,,,,,,,,,,,,,444.3779,444.3779,444.3792,445.3276,0,1,left,0.4167,,445.3291,446.7109,1,1,right,446.7123,446.7136,,0,,0,446.7137,446.7137,446.7148,448.2108,0,32,32,32,1,0.2,0.8,0.6,0.4,,,,,,,,,,,,,,,0.8494,,0.4,0.6,0.6,0.4,0.2,0.8,0.6,0.4,1,0,,,,,,,,,,,,
,,6630ec3fa1752b4b2743c4cc,66fc98e9756f264e9ca11909,2024-10-01_21h52.09.193,mdp,2024.2.1,Win32,59.88023952,66fa4ebf79326e780c390304,,,,,,,,,,,,,,,,,,,,,448.2116,448.2116,448.2132,449.1777,0,1,left,0.4337,,449.1791,450.3439,1,0,right,450.3454,450.3464,,1,,1,450.3464,450.3464,450.3478,451.8437,0,33,33,33,1,0.2,0.8,0.6,0.4,,,,,,,,,,,,,,,0.6336,,0.4,0.6,0.6,0.4,0.2,0.8,0.6,0.4,1,0,,,,,,,,,,,,
,,6630ec3fa1752b4b2743c4cc,66fc98e9756f264e9ca11909,2024-10-01_21h52.09.193,mdp,2024.2.1,Win32,59.88023952,66fa4ebf79326e780c390304,,,,,,,,,,,,,,,,,,,,,451.8443,451.8443,451.8457,453.2105,0,1,left,0.8355,,453.2114,454.2772,1,1,right,454.2786,454.2795,,1,,0,454.2795,454.2796,454.2808,455.7771,0,34,34,34,1,0.2,0.8,0.6,0.4,,,,,,,,,,,,,,,0.54,,0.4,0.6,0.6,0.4,0.2,0.8,0.6,0.4,1,0,,,,,,,,,,,,
,,6630ec3fa1752b4b2743c4cc,66fc98e9756f264e9ca11909,2024-10-01_21h52.09.193,mdp,2024.2.1,Win32,59.88023952,66fa4ebf79326e780c390304,,,,,,,,,,,,,,,,,,,,,455.7776,455.7776,455.7788,456.5935,1,0,right,0.2844,,456.5949,457.6432,0,0,left,457.6439,457.6444,,1,,1,457.6445,457.6445,457.6451,459.1433,0,35,35,35,1,0.2,0.8,0.6,0.4,,,,,,,,,,,,,,,0.5123,,0.4,0.6,0.6,0.4,0.2,0.8,0.6,0.4,1,0,,,,,,,,,,,,
,,6630ec3fa1752b4b2743c4cc,66fc98e9756f264e9ca11909,2024-10-01_21h52.09.193,mdp,2024.2.1,Win32,59.88023952,66fa4ebf79326e780c390304,,,,,,,,,,,,,,,,,,,,,459.1437,459.1437,459.1451,460.3937,0,1,left,0.7188,,460.3954,461.1596,1,0,right,461.1603,461.1609,,0,,1,461.1609,461.1609,461.1623,462.66,0,36,36,36,1,0.2,0.8,0.6,0.4,,,,,,,,,,,,,,,0.2348,,0.4,0.6,0.6,0.4,0.2,0.8,0.6,0.4,1,0,,,,,,,,,,,,
,,6630ec3fa1752b4b2743c4cc,66fc98e9756f264e9ca11909,2024-10-01_21h52.09.193,mdp,2024.2.1,Win32,59.88023952,66fa4ebf79326e780c390304,,,,,,,,,,,,,,,,,,,,,462.6605,462.6605,462.6622,463.4932,1,1,right,0.3106,,463.4945,464.8931,1,0,right,464.8946,464.8957,,0,,1,464.8957,464.8957,464.8969,466.3929,0,37,37,37,1,0.2,0.8,0.6,0.4,,,,,,,,,,,,,,,0.8678,,0.8,0.2,0.2,0.8,0.2,0.8,0.6,0.4,1,0,,,,,,,,,,,,
,,6630ec3fa1752b4b2743c4cc,66fc98e9756f264e9ca11909,2024-10-01_21h52.09.193,mdp,2024.2.1,Win32,59.88023952,66fa4ebf79326e780c390304,,,,,,,,,,,,,,,,,,,,,466.3933,466.3933,466.3943,467.7761,0,0,left,0.8506,,467.7779,468.8263,0,0,left,468.8277,468.8287,,1,,1,468.8288,468.8288,468.8299,470.3261,0,38,38,38,1,0.2,0.8,0.6,0.4,,,,,,,,,,,,,,,0.5144,,0.8,0.2,0.2,0.8,0.2,0.8,0.6,0.4,1,0,,,,,,,,,,,,
,,6630ec3fa1752b4b2743c4cc,66fc98e9756f264e9ca11909,2024-10-01_21h52.09.193,mdp,2024.2.1,Win32,59.88023952,66fa4ebf79326e780c390304,,,,,,,,,,,,,,,,,,,,,470.3265,470.3266,470.3278,471.5093,0,1,left,0.6597,,471.511,472.5594,0,1,left,472.5605,472.5611,,1,,0,472.5612,472.5612,472.5623,474.0592,0,39,39,39,1,0.2,0.8,0.6,0.4,,,,,,,,,,,,,,,0.5189,,0.8,0.2,0.2,0.8,0.2,0.8,0.6,0.4,1,0,,,,,,,,,,,,
,,6630ec3fa1752b4b2743c4cc,66fc98e9756f264e9ca11909,2024-10-01_21h52.09.193,mdp,2024.2.1,Win32,59.88023952,66fa4ebf79326e780c390304,,,,,,,,,,,,,,,,,,,,,474.0598,474.0598,474.0612,475.4256,1,0,right,0.8448,,475.4268,476.4923,0,0,left,476.4939,476.495,,0,,1,476.4951,476.4951,476.4964,477.9923,0,40,40,40,1,0.2,0.8,0.6,0.4,,,,,,,,,,,,,,,0.5287,,0.8,0.2,0.2,0.8,0.2,0.8,0.6,0.4,1,0,,,,,,,,,,,,
,,6630ec3fa1752b4b2743c4cc,66fc98e9756f264e9ca11909,2024-10-01_21h52.09.193,mdp,2024.2.1,Win32,59.88023952,66fa4ebf79326e780c390304,,,,,,,,,,,,,,,,,,,,,477.9928,477.9929,477.994,478.7757,1,0,right,0.2516,,478.7771,479.809,0,0,left,479.8103,479.8113,,0,,1,479.8115,479.8115,479.8127,481.3088,0,41,41,41,1,0.2,0.8,0.6,0.4,,,,,,,,,,,,,,,0.5016,,0.8,0.2,0.2,0.8,0.2,0.8,0.6,0.4,1,0,,,,,,,,,,,,
,,6630ec3fa1752b4b2743c4cc,66fc98e9756f264e9ca11909,2024-10-01_21h52.09.193,mdp,2024.2.1,Win32,59.88023952,66fa4ebf79326e780c390304,,,,,,,,,,,,,,,,,,,,,481.3093,481.3093,481.3106,482.1087,1,0,right,0.2733,,482.1101,483.9086,0,0,left,483.9101,483.9116,,0,,1,483.9116,483.9116,483.9128,485.4084,0,42,42,42,1,0.2,0.8,0.6,0.4,,,,,,,,,,,,,,,1.2697,,0.8,0.2,0.2,0.8,0.2,0.8,0.6,0.4,1,0,,,,,,,,,,,,
,,6630ec3fa1752b4b2743c4cc,66fc98e9756f264e9ca11909,2024-10-01_21h52.09.193,mdp,2024.2.1,Win32,59.88023952,66fa4ebf79326e780c390304,,,,,,,,,,,,,,,,,,,,,485.409,485.409,485.4111,486.2751,1,0,right,0.3447,,486.2777,487.2252,0,1,left,487.2267,487.2278,,0,,0,487.2278,487.2278,487.2289,488.7251,0,43,43,43,1,0.4,0.6,0.8,0.2,,,,,,,,,,,,,,,0.4206,,0.8,0.2,0.2,0.8,0.2,0.8,0.6,0.4,1,0,,,,,,,,,,,,
,,6630ec3fa1752b4b2743c4cc,66fc98e9756f264e9ca11909,2024-10-01_21h52.09.193,mdp,2024.2.1,Win32,59.88023952,66fa4ebf79326e780c390304,,,,,,,,,,,,,,,,,,,,,488.7254,488.7254,488.7265,489.625,1,1,right,0.3668,,489.626,490.8582,1,0,right,490.8595,490.8607,,1,,1,490.8607,490.8608,490.8621,492.3579,0,44,44,44,1,0.4,0.6,0.8,0.2,,,,,,,,,,,,,,,0.6972,,0.8,0.2,0.2,0.8,0.2,0.8,0.6,0.4,1,0,,,,,,,,,,,,
,,6630ec3fa1752b4b2743c4cc,66fc98e9756f264e9ca11909,2024-10-01_21h52.09.193,mdp,2024.2.1,Win32,59.88023952,66fa4ebf79326e780c390304,,,,,,,,,,,,,,,,,,,,,492.3583,492.3583,492.3599,493.4583,1,0,right,0.5753,,493.4598,494.4911,0,0,left,494.4922,494.493,,0,,1,494.493,494.493,494.4939,495.9913,0,45,45,45,1,0.4,0.6,0.8,0.2,,,,,,,,,,,,,,,0.4969,,0.8,0.2,0.2,0.8,0.2,0.8,0.6,0.4,1,0,,,,,,,,,,,,
,,6630ec3fa1752b4b2743c4cc,66fc98e9756f264e9ca11909,2024-10-01_21h52.09.193,mdp,2024.2.1,Win32,59.88023952,66fa4ebf79326e780c390304,,,,,,,,,,,,,,,,,,,,,495.9918,495.9918,495.9931,497.0911,1,0,right,0.5675,,497.0925,498.1079,0,0,left,498.1092,498.11,,0,,1,498.1101,498.1101,498.1115,499.6078,0,46,46,46,1,0.4,0.6,0.8,0.2,,,,,,,,,,,,,,,0.4864,,0.6,0.4,0.4,0.6,0.2,0.8,0.6,0.4,1,0,,,,,,,,,,,,
,,6630ec3fa1752b4b2743c4cc,66fc98e9756f264e9ca11909,2024-10-01_21h52.09.193,mdp,2024.2.1,Win32,59.88023952,66fa4ebf79326e780c390304,,,,,,,,,,,,,,,,,,,,,499.6083,499.6083,499.6095,500.3578,1,0,right,0.2177,,500.3592,501.2743,0,0,left,501.2758,501.2767,,1,,1,501.2768,501.2768,501.2779,502.774,0,47,47,47,1,0.4,0.6,0.8,0.2,,,,,,,,,,,,,,,0.3829,,0.6,0.4,0.4,0.6,0.2,0.8,0.6,0.4,1,0,,,,,,,,,,,,
,,6630ec3fa1752b4b2743c4cc,66fc98e9756f264e9ca11909,2024-10-01_21h52.09.193,mdp,2024.2.1,Win32,59.88023952,66fa4ebf79326e780c390304,,,,,,,,,,,,,,,,,,,,,502.7747,502.7747,502.776,503.6741,1,0,right,0.3674,,503.6751,504.6574,0,0,left,504.6584,504.6593,,1,,1,504.6593,504.6593,504.6599,506.1574,0,48,48,48,1,0.4,0.6,0.8,0.2,,,,,,,,,,,,,,,0.458,,0.6,0.4,0.4,0.6,0.2,0.8,0.6,0.4,1,0,,,,,,,,,,,,
,,6630ec3fa1752b4b2743c4cc,66fc98e9756f264e9ca11909,2024-10-01_21h52.09.193,mdp,2024.2.1,Win32,59.88023952,66fa4ebf79326e780c390304,,,,,,,,,,,,,,,,,,,,,506.1581,506.1581,506.1595,507.0739,1,0,right,0.3867,,507.0752,508.0738,0,0,left,508.0752,508.0762,,1,,1,508.0763,508.0763,508.0773,509.5735,0,49,49,49,1,0.6,0.4,0.4,0.6,,,,,,,,,,,,,,,0.4668,,0.6,0.4,0.4,0.6,0.2,0.8,0.6,0.4,1,0,,,,,,,,,,,,
,,6630ec3fa1752b4b2743c4cc,66fc98e9756f264e9ca11909,2024-10-01_21h52.09.193,mdp,2024.2.1,Win32,59.88023952,66fa4ebf79326e780c390304,,,,,,,,,,,,,,,,,,,,,,,,,,,,,,,,,,,,,,,,,,,,,,,,,,,,,,,,509.5738,568.5931,0,1,1,4,1,imgs/rabbit.png,imgs/elephant.png,imgs/kangaroo.png,imgs/horse.png,imgs/goat.png,,,,,,,,,,,,,,,,,,,,,,,,
,,6630ec3fa1752b4b2743c4cc,66fc98e9756f264e9ca11909,2024-10-01_21h52.09.193,mdp,2024.2.1,Win32,59.88023952,66fa4ebf79326e780c390304,,,,,,,,,,,,,,3,seqs/st3seq26.csv,568.6032,569.8699,space,0.7517,,569.8771,569.8771,569.8778,572.6034,1,0,right,2.1983,,572.6051,574.0701,0,0,left,574.0719,575.337,1,0,right,1,575.3371,575.3371,575.3384,576.8366,0,0,0,0,1,0.6,0.4,0.4,0.6,,,,,,,,,,,,,,,0.9348,,0.6,0.4,0.4,0.6,0.4,0.6,0.2,0.8,,,0.7267,,0.8,0.2,0.8,0.2,0.4,0.6,0.4,0.6,1,0
,,6630ec3fa1752b4b2743c4cc,66fc98e9756f264e9ca11909,2024-10-01_21h52.09.193,mdp,2024.2.1,Win32,59.88023952,66fa4ebf79326e780c390304,,,,,,,,,,,,,,,,,,,,,576.8372,576.8373,576.8385,577.8362,1,0,right,0.4749,,577.837,579.1366,0,0,left,579.1381,580.1196,1,0,right,1,580.1197,580.1197,580.122,581.6195,0,1,1,1,1,0.6,0.4,0.4,0.6,,,,,,,,,,,,,,,0.7689,,0.6,0.4,0.4,0.6,0.4,0.6,0.2,0.8,,,0.4502,,0.2,0.8,0.6,0.4,0.4,0.6,0.4,0.6,1,0
,,6630ec3fa1752b4b2743c4cc,66fc98e9756f264e9ca11909,2024-10-01_21h52.09.193,mdp,2024.2.1,Win32,59.88023952,66fa4ebf79326e780c390304,,,,,,,,,,,,,,,,,,,,,581.6202,581.6202,581.6219,582.7527,1,1,right,0.6094,,582.7541,583.6199,0,1,left,583.6215,584.7695,0,0,left,1,584.7697,584.7697,584.7712,586.2691,0,2,2,2,1,0.6,0.4,0.4,0.6,,,,,,,,,,,,,,,0.3367,,0.6,0.4,0.4,0.6,0.8,0.2,0.8,0.2,,,0.6122,,0.2,0.8,0.6,0.4,0.4,0.6,0.4,0.6,1,0
,,6630ec3fa1752b4b2743c4cc,66fc98e9756f264e9ca11909,2024-10-01_21h52.09.193,mdp,2024.2.1,Win32,59.88023952,66fa4ebf79326e780c390304,,,,,,,,,,,,,,,,,,,,,586.2697,586.2698,586.2712,587.2192,1,0,right,0.4177,,587.2205,588.3689,0,1,left,588.3701,589.7861,1,1,right,0,589.7863,589.7863,589.7875,591.2853,0,3,3,3,1,0.6,0.4,0.4,0.6,,,,,,,,,,,,,,,0.6216,,0.6,0.4,0.4,0.6,0.4,0.6,0.4,0.6,,,0.8833,,0.2,0.8,0.6,0.4,0.4,0.6,0.4,0.6,1,0
,,6630ec3fa1752b4b2743c4cc,66fc98e9756f264e9ca11909,2024-10-01_21h52.09.193,mdp,2024.2.1,Win32,59.88023952,66fa4ebf79326e780c390304,,,,,,,,,,,,,,,,,,,,,591.2859,591.2859,591.2869,592.4191,1,1,right,0.6074,,592.4209,593.5525,0,1,left,593.5539,594.6521,0,1,left,0,594.6522,594.6522,594.6532,596.1522,0,4,4,4,1,0.6,0.4,0.4,0.6,,,,,,,,,,,,,,,0.5969,,0.6,0.4,0.4,0.6,0.4,0.6,0.4,0.6,,,0.5772,,0.2,0.8,0.6,0.4,0.4,0.6,0.4,0.6,1,0
,,6630ec3fa1752b4b2743c4cc,66fc98e9756f264e9ca11909,2024-10-01_21h52.09.193,mdp,2024.2.1,Win32,59.88023952,66fa4ebf79326e780c390304,,,,,,,,,,,,,,,,,,,,,596.1529,596.1529,596.1543,597.052,1,1,right,0.3689,,597.0533,598.8184,0,0,left,598.8198,601.402,1,0,right,1,601.4022,601.4022,601.404,602.9017,0,5,5,5,1,0.6,0.4,0.4,0.6,,,,,,,,,,,,,,,1.242,,0.6,0.4,0.4,0.6,0.4,0.6,0.4,0.6,,,2.0593,,0.2,0.8,0.6,0.4,0.4,0.6,0.4,0.6,1,0
,,6630ec3fa1752b4b2743c4cc,66fc98e9756f264e9ca11909,2024-10-01_21h52.09.193,mdp,2024.2.1,Win32,59.88023952,66fa4ebf79326e780c390304,,,,,,,,,,,,,,,,,,,,,602.9023,602.9023,602.9039,604.1518,1,1,right,0.7179,,604.1533,605.6014,0,1,left,605.6031,607.0015,0,1,left,0,607.0017,607.0017,607.0031,608.501,0,6,6,6,1,0.6,0.4,0.4,0.6,,,,,,,,,,,,,,,0.918,,0.6,0.4,0.4,0.6,0.4,0.6,0.4,0.6,,,0.8629,,0.2,0.8,0.6,0.4,0.4,0.6,0.4,0.6,1,0
,,6630ec3fa1752b4b2743c4cc,66fc98e9756f264e9ca11909,2024-10-01_21h52.09.193,mdp,2024.2.1,Win32,59.88023952,66fa4ebf79326e780c390304,,,,,,,,,,,,,,,,,,,,,608.5015,608.5016,608.5028,609.7345,1,0,right,0.7099,,609.7356,611.0841,0,1,left,611.085,612.3844,1,0,right,1,612.3846,612.3846,612.3862,613.8842,0,7,7,7,1,0.8,0.2,0.6,0.4,,,,,,,,,,,,,,,0.8229,,0.6,0.4,0.4,0.6,0.4,0.6,0.4,0.6,,,0.7758,,0.2,0.8,0.6,0.4,0.4,0.6,0.4,0.6,1,0
,,6630ec3fa1752b4b2743c4cc,66fc98e9756f264e9ca11909,2024-10-01_21h52.09.193,mdp,2024.2.1,Win32,59.88023952,66fa4ebf79326e780c390304,,,,,,,,,,,,,,,,,,,,,613.8848,613.8849,613.8864,615.0175,1,0,right,0.61,,615.0188,616.9675,0,0,left,616.9688,618.2337,1,0,right,1,618.234,618.234,618.2352,619.7339,0,8,8,8,1,0.8,0.2,0.6,0.4,,,,,,,,,,,,,,,1.4214,,0.6,0.4,0.4,0.6,0.4,0.6,0.4,0.6,,,0.7403,,0.2,0.8,0.6,0.4,0.4,0.6,0.4,0.6,1,0
,,6630ec3fa1752b4b2743c4cc,66fc98e9756f264e9ca11909,2024-10-01_21h52.09.193,mdp,2024.2.1,Win32,59.88023952,66fa4ebf79326e780c390304,,,,,,,,,,,,,,,,,,,,,619.7345,619.7345,619.7359,620.8173,1,0,right,0.5605,,620.8186,622.0838,0,0,left,622.0855,623.0673,1,0,right,1,623.0675,623.0675,623.0691,624.5669,0,9,9,9,1,0.8,0.2,0.6,0.4,,,,,,,,,,,,,,,0.7425,,0.6,0.4,0.4,0.6,0.4,0.6,0.4,0.6,,,0.4581,,0.2,0.8,0.6,0.4,0.4,0.6,0.4,0.6,1,0
,,6630ec3fa1752b4b2743c4cc,66fc98e9756f264e9ca11909,2024-10-01_21h52.09.193,mdp,2024.2.1,Win32,59.88023952,66fa4ebf79326e780c390304,,,,,,,,,,,,,,,,,,,,,624.5676,624.5676,624.5689,625.5337,1,0,right,0.4389,,625.5352,626.5005,0,1,left,626.5024,628.0336,1,1,right,0,628.0337,628.0337,628.035,629.5333,0,10,10,10,1,0.8,0.2,0.6,0.4,,,,,,,,,,,,,,,0.4387,,0.6,0.4,0.4,0.6,0.4,0.6,0.4,0.6,,,1.0044,,0.2,0.8,0.6,0.4,0.4,0.6,0.4,0.6,1,0
,,6630ec3fa1752b4b2743c4cc,66fc98e9756f264e9ca11909,2024-10-01_21h52.09.193,mdp,2024.2.1,Win32,59.88023952,66fa4ebf79326e780c390304,,,,,,,,,,,,,,,,,,,,,629.534,629.534,629.5355,630.4493,1,0,right,0.3916,,630.4501,631.6333,0,0,left,631.6345,634.1836,1,0,right,1,634.1837,634.1838,634.1856,635.6829,0,11,11,11,1,0.8,0.2,0.6,0.4,,,,,,,,,,,,,,,0.6689,,0.6,0.4,0.4,0.6,0.4,0.6,0.4,0.6,,,2.0132,,0.2,0.8,0.6,0.4,0.4,0.6,0.4,0.6,1,0
,,6630ec3fa1752b4b2743c4cc,66fc98e9756f264e9ca11909,2024-10-01_21h52.09.193,mdp,2024.2.1,Win32,59.88023952,66fa4ebf79326e780c390304,,,,,,,,,,,,,,,,,,,,,635.6837,635.6837,635.686,637.1165,1,1,right,0.901,,637.1183,642.2492,0,1,left,642.2681,643.6657,1,0,right,1,643.666,643.666,643.6673,645.1657,0,12,12,12,1,0.8,0.2,0.6,0.4,,,,,,,,,,,,,,,4.6066,,0.6,0.4,0.4,0.6,0.4,0.6,0.4,0.6,,,0.883,,0.2,0.8,0.6,0.4,0.4,0.6,0.4,0.6,1,0
,,6630ec3fa1752b4b2743c4cc,66fc98e9756f264e9ca11909,2024-10-01_21h52.09.193,mdp,2024.2.1,Win32,59.88023952,66fa4ebf79326e780c390304,,,,,,,,,,,,,,,,,,,,,645.1663,645.1663,645.168,646.1989,1,0,right,0.501,,646.2007,648.0323,0,1,left,648.0338,649.5485,1,0,right,1,649.5486,649.5486,649.5501,651.0486,0,13,13,13,1,0.8,0.2,0.6,0.4,,,,,,,,,,,,,,,1.2977,,0.6,0.4,0.4,0.6,0.4,0.6,0.4,0.6,,,0.9885,,0.2,0.8,0.6,0.4,0.4,0.6,0.4,0.6,1,0
,,6630ec3fa1752b4b2743c4cc,66fc98e9756f264e9ca11909,2024-10-01_21h52.09.193,mdp,2024.2.1,Win32,59.88023952,66fa4ebf79326e780c390304,,,,,,,,,,,,,,,,,,,,,651.0494,651.0494,651.0509,651.982,1,1,right,0.4006,,651.984,653.3984,0,1,left,653.3994,654.7484,1,1,right,0,654.7486,654.7486,654.7502,656.2482,0,14,14,14,1,0.8,0.2,0.6,0.4,,,,,,,,,,,,,,,0.8826,,0.6,0.4,0.4,0.6,0.4,0.6,0.4,0.6,,,0.8215,,0.2,0.8,0.6,0.4,0.4,0.6,0.4,0.6,1,0
,,6630ec3fa1752b4b2743c4cc,66fc98e9756f264e9ca11909,2024-10-01_21h52.09.193,mdp,2024.2.1,Win32,59.88023952,66fa4ebf79326e780c390304,,,,,,,,,,,,,,,,,,,,,656.249,656.249,656.2504,657.315,1,0,right,0.5335,,657.3163,658.865,0,0,left,658.8666,660.5149,1,0,right,1,660.5149,660.5149,660.5166,662.0146,0,15,15,15,1,0.8,0.2,0.6,0.4,,,,,,,,,,,,,,,1.0224,,0.6,0.4,0.4,0.6,0.4,0.6,0.4,0.6,,,1.1146,,0.2,0.8,0.6,0.4,0.4,0.6,0.4,0.6,1,0
,,6630ec3fa1752b4b2743c4cc,66fc98e9756f264e9ca11909,2024-10-01_21h52.09.193,mdp,2024.2.1,Win32,59.88023952,66fa4ebf79326e780c390304,,,,,,,,,,,,,,,,,,,,,662.0152,662.0152,662.0165,662.9147,1,0,right,0.3674,,662.9161,664.1479,0,0,left,664.1492,665.0313,1,0,right,1,665.0315,665.0315,665.0329,666.531,0,16,16,16,1,0.8,0.2,0.6,0.4,,,,,,,,,,,,,,,0.7087,,0.6,0.4,0.4,0.6,0.2,0.8,0.6,0.4,,,0.3669,,0.2,0.8,0.6,0.4,0.4,0.6,0.4,0.6,1,0
,,6630ec3fa1752b4b2743c4cc,66fc98e9756f264e9ca11909,2024-10-01_21h52.09.193,mdp,2024.2.1,Win32,59.88023952,66fa4ebf79326e780c390304,,,,,,,,,,,,,,,,,,,,,666.5319,666.5319,666.5335,667.4314,1,1,right,0.374,,667.433,669.1475,1,1,right,669.1493,670.0977,1,1,right,0,670.0979,670.0979,670.0994,671.5976,0,17,17,17,1,0.8,0.2,0.6,0.4,,,,,,,,,,,,,,,1.1881,,0.6,0.4,0.4,0.6,0.2,0.8,0.6,0.4,,,0.4197,,0.2,0.8,0.6,0.4,0.4,0.6,0.4,0.6,1,0
,,6630ec3fa1752b4b2743c4cc,66fc98e9756f264e9ca11909,2024-10-01_21h52.09.193,mdp,2024.2.1,Win32,59.88023952,66fa4ebf79326e780c390304,,,,,,,,,,,,,,,,,,,,,671.5982,671.5982,671.5996,672.6308,1,1,right,0.4998,,672.6323,673.5639,0,1,left,673.5652,674.4808,1,0,right,1,674.4809,674.481,674.4827,675.9804,0,18,18,18,1,0.8,0.2,0.6,0.4,,,,,,,,,,,,,,,0.4012,,0.6,0.4,0.4,0.6,0.2,0.8,0.6,0.4,,,0.3836,,0.6,0.4,0.8,0.2,0.4,0.6,0.4,0.6,1,0
,,6630ec3fa1752b4b2743c4cc,66fc98e9756f264e9ca11909,2024-10-01_21h52.09.193,mdp,2024.2.1,Win32,59.88023952,66fa4ebf79326e780c390304,,,,,,,,,,,,,,,,,,,,,675.9814,675.9815,675.9831,677.0141,1,0,right,0.5094,,677.0156,678.1971,0,1,left,678.1986,679.3636,1,0,right,1,679.3637,679.3637,679.3653,680.8634,0,19,19,19,1,0.8,0.2,0.6,0.4,,,,,,,,,,,,,,,0.6498,,0.6,0.4,0.4,0.6,0.2,0.8,0.6,0.4,,,0.6339,,0.6,0.4,0.8,0.2,0.4,0.6,0.4,0.6,1,0
,,6630ec3fa1752b4b2743c4cc,66fc98e9756f264e9ca11909,2024-10-01_21h52.09.193,mdp,2024.2.1,Win32,59.88023952,66fa4ebf79326e780c390304,,,,,,,,,,,,,,,,,,,,,680.8639,680.8639,680.8649,681.8968,1,1,right,0.5084,,681.8981,683.1135,0,1,left,683.1148,684.3799,1,1,right,0,684.38,684.38,684.3814,685.8799,0,20,20,20,1,0.8,0.2,0.6,0.4,,,,,,,,,,,,,,,0.6813,,0.6,0.4,0.4,0.6,0.2,0.8,0.6,0.4,,,0.7332,,0.6,0.4,0.8,0.2,0.4,0.6,0.4,0.6,1,0
,,6630ec3fa1752b4b2743c4cc,66fc98e9756f264e9ca11909,2024-10-01_21h52.09.193,mdp,2024.2.1,Win32,59.88023952,66fa4ebf79326e780c390304,,,,,,,,,,,,,,,,,,,,,685.8804,685.8805,685.8818,686.8799,1,0,right,0.4703,,686.8815,689.0797,0,1,left,689.0815,690.3298,1,1,right,0,690.3301,690.3301,690.3315,691.8295,0,21,21,21,1,0.8,0.2,0.6,0.4,,,,,,,,,,,,,,,1.6726,,0.6,0.4,0.4,0.6,0.2,0.8,0.6,0.4,,,0.7181,,0.6,0.4,0.8,0.2,0.4,0.6,0.4,0.6,1,0
,,6630ec3fa1752b4b2743c4cc,66fc98e9756f264e9ca11909,2024-10-01_21h52.09.193,mdp,2024.2.1,Win32,59.88023952,66fa4ebf79326e780c390304,,,,,,,,,,,,,,,,,,,,,691.83,691.83,691.8315,692.7629,1,1,right,0.4,,692.7646,693.8294,0,1,left,693.8313,695.1628,0,0,left,1,695.1629,695.1629,695.1646,696.6626,0,22,22,22,1,0.8,0.2,0.6,0.4,,,,,,,,,,,,,,,0.5352,,0.6,0.4,0.4,0.6,0.2,0.8,0.6,0.4,,,0.8094,,0.6,0.4,0.8,0.2,0.4,0.6,0.4,0.6,1,0
,,6630ec3fa1752b4b2743c4cc,66fc98e9756f264e9ca11909,2024-10-01_21h52.09.193,mdp,2024.2.1,Win32,59.88023952,66fa4ebf79326e780c390304,,,,,,,,,,,,,,,,,,,,,696.6632,696.6632,696.6648,697.5624,1,0,right,0.3717,,697.5645,698.6621,0,1,left,698.6629,700.0293,0,1,left,0,700.0295,700.0295,700.0309,701.5288,0,23,23,23,1,0.8,0.2,0.6,0.4,,,,,,,,,,,,,,,0.5704,,0.6,0.4,0.4,0.6,0.2,0.8,0.6,0.4,,,0.8325,,0.6,0.4,0.8,0.2,0.4,0.6,0.4,0.6,1,0
,,6630ec3fa1752b4b2743c4cc,66fc98e9756f264e9ca11909,2024-10-01_21h52.09.193,mdp,2024.2.1,Win32,59.88023952,66fa4ebf79326e780c390304,,,,,,,,,,,,,,,,,,,,,701.5295,701.5296,701.5309,702.3956,1,1,right,0.334,,702.3969,703.4457,0,1,left,703.4474,704.3621,1,0,right,1,704.3622,704.3622,704.3637,705.8619,0,24,24,24,1,0.8,0.2,0.6,0.4,,,,,,,,,,,,,,,0.52,,0.6,0.4,0.4,0.6,0.2,0.8,0.6,0.4,,,0.3919,,0.6,0.4,0.8,0.2,0.4,0.6,0.4,0.6,1,0
,,6630ec3fa1752b4b2743c4cc,66fc98e9756f264e9ca11909,2024-10-01_21h52.09.193,mdp,2024.2.1,Win32,59.88023952,66fa4ebf79326e780c390304,,,,,,,,,,,,,,,,,,,,,705.8626,705.8626,705.8646,706.9455,1,0,right,0.5501,,706.9469,708.2287,0,0,left,708.2304,709.1452,1,0,right,1,709.1454,709.1454,709.1471,710.6451,0,25,25,25,1,0.8,0.2,0.6,0.4,,,,,,,,,,,,,,,0.7496,,0.6,0.4,0.4,0.6,0.2,0.8,0.6,0.4,,,0.3906,,0.6,0.4,0.8,0.2,0.4,0.6,0.4,0.6,1,0
,,6630ec3fa1752b4b2743c4cc,66fc98e9756f264e9ca11909,2024-10-01_21h52.09.193,mdp,2024.2.1,Win32,59.88023952,66fa4ebf79326e780c390304,,,,,,,,,,,,,,,,,,,,,710.646,710.6461,710.6476,711.5781,1,0,right,0.4085,,711.579,712.595,0,0,left,712.5962,713.5117,1,1,right,0,713.5118,713.5118,713.5135,715.0116,0,26,26,26,1,0.8,0.2,0.6,0.4,,,,,,,,,,,,,,,0.4931,,0.6,0.4,0.4,0.6,0.2,0.8,0.6,0.4,,,0.3843,,0.6,0.4,0.8,0.2,0.4,0.6,0.4,0.6,1,0
,,6630ec3fa1752b4b2743c4cc,66fc98e9756f264e9ca11909,2024-10-01_21h52.09.193,mdp,2024.2.1,Win32,59.88023952,66fa4ebf79326e780c390304,,,,,,,,,,,,,,,,,,,,,715.0123,715.0123,715.0141,715.9614,1,0,right,0.4176,,715.963,716.9948,0,1,left,716.9964,718.4447,1,0,right,1,718.4449,718.4449,718.4461,719.9444,0,27,27,27,1,0.8,0.2,0.6,0.4,,,,,,,,,,,,,,,0.5014,,0.6,0.4,0.4,0.6,0.2,0.8,0.6,0.4,,,0.9131,,0.6,0.4,0.8,0.2,0.4,0.6,0.4,0.6,1,0
,,6630ec3fa1752b4b2743c4cc,66fc98e9756f264e9ca11909,2024-10-01_21h52.09.193,mdp,2024.2.1,Win32,59.88023952,66fa4ebf79326e780c390304,,,,,,,,,,,,,,,,,,,,,719.9451,719.9451,719.9467,720.778,1,0,right,0.3007,,720.7795,721.9778,0,0,left,721.9792,722.8777,1,0,right,1,722.8778,722.8778,722.8795,724.3774,0,28,28,28,1,0.8,0.2,0.6,0.4,,,,,,,,,,,,,,,0.6744,,0.6,0.4,0.4,0.6,0.2,0.8,0.6,0.4,,,0.3699,,0.6,0.4,0.8,0.2,0.4,0.6,0.4,0.6,1,0
,,6630ec3fa1752b4b2743c4cc,66fc98e9756f264e9ca11909,2024-10-01_21h52.09.193,mdp,2024.2.1,Win32,59.88023952,66fa4ebf79326e780c390304,,,,,,,,,,,,,,,,,,,,,724.3777,724.3777,724.3787,725.3775,1,1,right,0.4775,,725.379,726.6777,0,1,left,726.6792,728.5607,1,1,right,0,728.5608,728.5608,728.562,730.0604,0,29,29,29,1,0.8,0.2,0.6,0.4,,,,,,,,,,,,,,,0.7775,,0.6,0.4,0.4,0.6,0.2,0.8,0.6,0.4,,,1.3494,,0.6,0.4,0.8,0.2,0.4,0.6,0.4,0.6,1,0
,,6630ec3fa1752b4b2743c4cc,66fc98e9756f264e9ca11909,2024-10-01_21h52.09.193,mdp,2024.2.1,Win32,59.88023952,66fa4ebf79326e780c390304,,,,,,,,,,,,,,,,,,,,,730.0613,730.0613,730.0627,730.9608,1,0,right,0.3673,,730.9626,732.9773,0,1,left,732.979,734.0604,1,0,right,1,734.0605,734.0606,734.0619,735.5603,0,30,30,30,1,0.8,0.2,0.6,0.4,,,,,,,,,,,,,,,1.4869,,0.6,0.4,0.4,0.6,0.2,0.8,0.6,0.4,,,0.5537,,0.6,0.4,0.8,0.2,0.4,0.6,0.4,0.6,1,0
,,6630ec3fa1752b4b2743c4cc,66fc98e9756f264e9ca11909,2024-10-01_21h52.09.193,mdp,2024.2.1,Win32,59.88023952,66fa4ebf79326e780c390304,,,,,,,,,,,,,,,,,,,,,735.561,735.561,735.5625,736.5266,1,0,right,0.4326,,736.5275,737.6101,0,0,left,737.6112,738.5102,1,0,right,1,738.5103,738.5103,738.5115,740.0102,0,31,31,31,1,0.8,0.2,0.6,0.4,,,,,,,,,,,,,,,0.5735,,0.6,0.4,0.4,0.6,0.2,0.8,0.6,0.4,,,0.3646,,0.6,0.4,0.8,0.2,0.4,0.6,0.4,0.6,1,0
,,6630ec3fa1752b4b2743c4cc,66fc98e9756f264e9ca11909,2024-10-01_21h52.09.193,mdp,2024.2.1,Win32,59.88023952,66fa4ebf79326e780c390304,,,,,,,,,,,,,,,,,,,,,740.0117,740.0117,740.0129,740.9602,1,1,right,0.4168,,740.9615,742.0434,0,1,left,742.0458,742.9099,1,1,right,0,742.91,742.91,742.9115,744.4096,0,32,32,32,1,0.8,0.2,0.6,0.4,,,,,,,,,,,,,,,0.5554,,0.6,0.4,0.4,0.6,0.2,0.8,0.6,0.4,,,0.3412,,0.6,0.4,0.8,0.2,0.4,0.6,0.4,0.6,1,0
,,6630ec3fa1752b4b2743c4cc,66fc98e9756f264e9ca11909,2024-10-01_21h52.09.193,mdp,2024.2.1,Win32,59.88023952,66fa4ebf79326e780c390304,,,,,,,,,,,,,,,,,,,,,744.4102,744.4103,744.4121,745.4098,1,1,right,0.4694,,745.4112,746.5931,0,1,left,746.5943,747.5764,1,1,right,0,747.5766,747.5766,747.5783,749.0762,0,33,33,33,1,0.8,0.2,0.6,0.4,,,,,,,,,,,,,,,0.6608,,0.6,0.4,0.4,0.6,0.2,0.8,0.6,0.4,,,0.4548,,0.6,0.4,0.8,0.2,0.4,0.6,0.4,0.6,1,0
,,6630ec3fa1752b4b2743c4cc,66fc98e9756f264e9ca11909,2024-10-01_21h52.09.193,mdp,2024.2.1,Win32,59.88023952,66fa4ebf79326e780c390304,,,,,,,,,,,,,,,,,,,,,749.077,749.077,749.0786,749.9095,1,0,right,0.3004,,749.9109,751.1099,0,0,left,751.1119,752.0427,1,0,right,1,752.0428,752.0428,752.0443,753.5423,0,34,34,34,1,0.8,0.2,0.6,0.4,,,,,,,,,,,,,,,0.6634,,0.6,0.4,0.4,0.6,0.2,0.8,0.6,0.4,,,0.4074,,0.6,0.4,0.8,0.2,0.4,0.6,0.4,0.6,1,0
,,6630ec3fa1752b4b2743c4cc,66fc98e9756f264e9ca11909,2024-10-01_21h52.09.193,mdp,2024.2.1,Win32,59.88023952,66fa4ebf79326e780c390304,,,,,,,,,,,,,,,,,,,,,753.543,753.543,753.5447,754.3925,1,0,right,0.3243,,754.3939,755.5089,0,0,left,755.5101,756.3757,1,1,right,0,756.3759,756.3759,756.3773,757.8754,0,35,35,35,1,0.8,0.2,0.6,0.4,,,,,,,,,,,,,,,0.5903,,0.6,0.4,0.4,0.6,0.2,0.8,0.6,0.4,,,0.3338,,0.6,0.4,0.8,0.2,0.4,0.6,0.4,0.6,1,0
,,6630ec3fa1752b4b2743c4cc,66fc98e9756f264e9ca11909,2024-10-01_21h52.09.193,mdp,2024.2.1,Win32,59.88023952,66fa4ebf79326e780c390304,,,,,,,,,,,,,,,,,,,,,757.8758,757.8758,757.8766,758.8256,1,0,right,0.4231,,758.8267,760.2587,0,0,left,760.2601,761.3087,1,0,right,1,761.309,761.309,761.3103,762.8084,0,36,36,36,1,0.8,0.2,0.6,0.4,,,,,,,,,,,,,,,0.9079,,0.6,0.4,0.4,0.6,0.2,0.8,0.6,0.4,,,0.5187,,0.6,0.4,0.8,0.2,0.4,0.6,0.4,0.6,1,0
,,6630ec3fa1752b4b2743c4cc,66fc98e9756f264e9ca11909,2024-10-01_21h52.09.193,mdp,2024.2.1,Win32,59.88023952,66fa4ebf79326e780c390304,,,,,,,,,,,,,,,,,,,,,762.8091,762.8092,762.8107,763.8753,1,0,right,0.5389,,763.8765,764.892,0,1,left,764.8937,766.7753,1,1,right,0,766.7755,766.7755,766.7769,768.2749,0,37,37,37,1,0.8,0.2,0.6,0.4,,,,,,,,,,,,,,,0.484,,0.6,0.4,0.4,0.6,0.2,0.8,0.6,0.4,,,1.3502,,0.6,0.4,0.8,0.2,0.4,0.6,0.4,0.6,1,0
,,6630ec3fa1752b4b2743c4cc,66fc98e9756f264e9ca11909,2024-10-01_21h52.09.193,mdp,2024.2.1,Win32,59.88023952,66fa4ebf79326e780c390304,,,,,,,,,,,,,,,,,,,,,768.2755,768.2755,768.2772,769.2421,1,0,right,0.4363,,769.2436,770.9413,0,0,left,770.9427,771.9747,1,0,right,1,771.9748,771.9748,771.9763,773.4746,0,38,38,38,1,0.8,0.2,0.6,0.4,,,,,,,,,,,,,,,1.1762,,0.4,0.6,0.8,0.2,0.2,0.8,0.6,0.4,,,0.5145,,0.6,0.4,0.8,0.2,0.4,0.6,0.4,0.6,1,0
,,6630ec3fa1752b4b2743c4cc,66fc98e9756f264e9ca11909,2024-10-01_21h52.09.193,mdp,2024.2.1,Win32,59.88023952,66fa4ebf79326e780c390304,,,,,,,,,,,,,,,,,,,,,773.4752,773.4752,773.4767,774.3582,1,0,right,0.3508,,774.3606,775.2913,0,1,left,775.2927,776.2245,0,1,left,0,776.2246,776.2246,776.2261,777.7242,0,39,39,39,1,0.8,0.2,0.6,0.4,,,,,,,,,,,,,,,0.4009,,0.4,0.6,0.8,0.2,0.2,0.8,0.6,0.4,,,0.397,,0.6,0.4,0.8,0.2,0.4,0.6,0.4,0.6,1,0
,,6630ec3fa1752b4b2743c4cc,66fc98e9756f264e9ca11909,2024-10-01_21h52.09.193,mdp,2024.2.1,Win32,59.88023952,66fa4ebf79326e780c390304,,,,,,,,,,,,,,,,,,,,,777.7248,777.7248,777.7259,778.5745,1,1,right,0.3162,,778.576,780.0577,0,1,left,780.0595,781.1242,1,1,right,0,781.1244,781.1244,781.1254,782.6239,0,40,40,40,1,0.8,0.2,0.6,0.4,,,,,,,,,,,,,,,0.9533,,0.4,0.6,0.8,0.2,0.2,0.8,0.6,0.4,,,0.5411,,0.6,0.4,0.8,0.2,0.4,0.6,0.4,0.6,1,0
,,6630ec3fa1752b4b2743c4cc,66fc98e9756f264e9ca11909,2024-10-01_21h52.09.193,mdp,2024.2.1,Win32,59.88023952,66fa4ebf79326e780c390304,,,,,,,,,,,,,,,,,,,,,782.6243,782.6243,782.6257,783.4075,1,0,right,0.2559,,783.4089,784.3405,0,1,left,784.3422,785.7074,0,0,left,1,785.7075,785.7075,785.7087,787.2072,0,41,41,41,1,0.8,0.2,0.6,0.4,,,,,,,,,,,,,,,0.4058,,0.4,0.6,0.8,0.2,0.2,0.8,0.6,0.4,,,0.8411,,0.6,0.4,0.8,0.2,0.4,0.6,0.4,0.6,1,0
,,6630ec3fa1752b4b2743c4cc,66fc98e9756f264e9ca11909,2024-10-01_21h52.09.193,mdp,2024.2.1,Win32,59.88023952,66fa4ebf79326e780c390304,,,,,,,,,,,,,,,,,,,,,787.2076,787.2077,787.2089,788.0406,1,1,right,0.3025,,788.0424,789.2572,0,1,left,789.2587,790.2573,1,0,right,1,790.2575,790.2575,790.2588,791.7564,0,42,42,42,1,0.8,0.2,0.6,0.4,,,,,,,,,,,,,,,0.6805,,0.4,0.6,0.8,0.2,0.2,0.8,0.6,0.4,,,0.4676,,0.6,0.4,0.8,0.2,0.4,0.6,0.4,0.6,1,0
,,6630ec3fa1752b4b2743c4cc,66fc98e9756f264e9ca11909,2024-10-01_21h52.09.193,mdp,2024.2.1,Win32,59.88023952,66fa4ebf79326e780c390304,,,,,,,,,,,,,,,,,,,,,791.7568,791.7568,791.7581,792.5905,1,1,right,0.3044,,792.5928,793.7735,0,1,left,793.7748,794.6906,1,1,right,0,794.6906,794.6907,794.692,796.1899,0,43,43,43,1,0.8,0.2,0.6,0.4,,,,,,,,,,,,,,,0.6495,,0.4,0.6,0.8,0.2,0.2,0.8,0.6,0.4,,,0.3834,,0.6,0.4,0.8,0.2,0.4,0.6,0.4,0.6,1,0
,,6630ec3fa1752b4b2743c4cc,66fc98e9756f264e9ca11909,2024-10-01_21h52.09.193,mdp,2024.2.1,Win32,59.88023952,66fa4ebf79326e780c390304,,,,,,,,,,,,,,,,,,,,,796.1907,796.1907,796.1924,797.2232,1,1,right,0.5093,,797.2245,798.4566,1,0,right,798.4582,800.1396,1,0,right,1,800.1397,800.1398,800.1414,801.6392,0,44,44,44,1,0.8,0.2,0.6,0.4,,,,,,,,,,,,,,,0.7019,,0.4,0.6,0.8,0.2,0.8,0.2,0.2,0.8,,,1.1465,,0.6,0.4,0.8,0.2,0.4,0.6,0.4,0.6,1,0
,,6630ec3fa1752b4b2743c4cc,66fc98e9756f264e9ca11909,2024-10-01_21h52.09.193,mdp,2024.2.1,Win32,59.88023952,66fa4ebf79326e780c390304,,,,,,,,,,,,,,,,,,,,,801.6396,801.6396,801.6402,802.6397,1,1,right,0.4716,,802.6409,803.6564,1,1,right,803.6582,804.6895,0,0,left,1,804.6895,804.6896,804.6907,806.1891,0,45,45,45,1,0.8,0.2,0.6,0.4,,,,,,,,,,,,,,,0.4833,,0.4,0.6,0.8,0.2,0.8,0.2,0.2,0.8,,,0.4981,,0.6,0.4,0.8,0.2,0.4,0.6,0.4,0.6,1,0
,,6630ec3fa1752b4b2743c4cc,66fc98e9756f264e9ca11909,2024-10-01_21h52.09.193,mdp,2024.2.1,Win32,59.88023952,66fa4ebf79326e780c390304,,,,,,,,,,,,,,,,,,,,,806.1897,806.1897,806.1912,807.2393,1,0,right,0.5238,,807.2408,808.3393,0,0,left,808.3407,809.2894,1,0,right,1,809.2897,809.2897,809.291,810.789,0,46,46,46,1,0.8,0.2,0.6,0.4,,,,,,,,,,,,,,,0.5681,,0.4,0.6,0.8,0.2,0.8,0.2,0.2,0.8,,,0.419,,0.6,0.4,0.8,0.2,0.4,0.6,0.4,0.6,1,0
,,6630ec3fa1752b4b2743c4cc,66fc98e9756f264e9ca11909,2024-10-01_21h52.09.193,mdp,2024.2.1,Win32,59.88023952,66fa4ebf79326e780c390304,,,,,,,,,,,,,,,,,,,,,810.7897,810.7897,810.7911,811.5223,1,1,right,0.2006,,811.524,812.4891,1,1,right,812.4907,813.3891,0,0,left,1,813.3893,813.3893,813.3906,814.8889,0,47,47,47,1,0.8,0.2,0.6,0.4,,,,,,,,,,,,,,,0.4305,,0.4,0.6,0.8,0.2,0.8,0.2,0.2,0.8,,,0.3643,,0.6,0.4,0.8,0.2,0.4,0.6,0.4,0.6,1,0
,,6630ec3fa1752b4b2743c4cc,66fc98e9756f264e9ca11909,2024-10-01_21h52.09.193,mdp,2024.2.1,Win32,59.88023952,66fa4ebf79326e780c390304,,,,,,,,,,,,,,,,,,,,,814.8895,814.8895,814.891,815.7221,1,0,right,0.3001,,815.7238,816.8387,0,1,left,816.8401,819.1555,1,1,right,0,819.1556,819.1557,819.1578,820.6552,0,48,48,48,1,0.8,0.2,0.6,0.4,,,,,,,,,,,,,,,0.5793,,0.4,0.6,0.8,0.2,0.8,0.2,0.2,0.8,,,1.7869,,0.6,0.4,0.8,0.2,0.4,0.6,0.4,0.6,1,0
,,6630ec3fa1752b4b2743c4cc,66fc98e9756f264e9ca11909,2024-10-01_21h52.09.193,mdp,2024.2.1,Win32,59.88023952,66fa4ebf79326e780c390304,,,,,,,,,,,,,,,,,,,,,820.6558,820.6558,820.6572,821.6052,1,0,right,0.4192,,821.6066,822.7719,0,0,left,822.7731,823.8719,1,0,right,1,823.872,823.872,823.8736,825.3716,0,49,49,49,1,0.8,0.2,0.6,0.4,,,,,,,,,,,,,,,0.6377,,0.4,0.6,0.8,0.2,0.8,0.2,0.2,0.8,,,0.5718,,0.6,0.4,0.8,0.2,0.4,0.6,0.4,0.6,1,0
,,6630ec3fa1752b4b2743c4cc,66fc98e9756f264e9ca11909,2024-10-01_21h52.09.193,mdp,2024.2.1,Win32,59.88023952,66fa4ebf79326e780c390304,,,,,,,,,,,,,,,,,,,,,,,,,,,,,,,,,,,,,,,,,,,,,,,,,,,,,,,,825.3718,874.7793,0,2,2,8,1,imgs/cat.png,imgs/elephant.png,imgs/squirrel.png,imgs/pig.png,imgs/horse.png,,,,,,,,,,,,,,,,,,,,,,,,
,,6630ec3fa1752b4b2743c4cc,66fc98e9756f264e9ca11909,2024-10-01_21h52.09.193,mdp,2024.2.1,Win32,59.88023952,66fa4ebf79326e780c390304,,,,,,,,,,,,,,3,seqs/st3seq20.csv,874.7884,875.9352,space,0.6227,,875.9436,875.9436,875.9447,878.0182,0,1,left,1.5486,,878.0198,879.2849,1,1,right,879.2863,880.585,0,1,left,0,880.5851,880.5852,880.5864,882.0846,0,0,0,0,1,0.2,0.8,0.4,0.6,,,,,,,,,,,,,,,0.7438,,0.4,0.6,0.6,0.4,0.8,0.2,0.6,0.4,,,0.7674,,0.4,0.6,0.8,0.2,0.2,0.8,0.4,0.6,1,0
,,6630ec3fa1752b4b2743c4cc,66fc98e9756f264e9ca11909,2024-10-01_21h52.09.193,mdp,2024.2.1,Win32,59.88023952,66fa4ebf79326e780c390304,,,,,,,,,,,,,,,,,,,,,882.0852,882.0852,882.0867,883.1018,1,0,right,0.4888,,883.1037,884.5013,1,1,right,884.5031,885.8343,0,1,left,0,885.8344,885.8344,885.8354,887.3344,0,1,1,1,1,0.2,0.8,0.4,0.6,,,,,,,,,,,,,,,0.8604,,0.4,0.6,0.6,0.4,0.8,0.2,0.6,0.4,,,0.8096,,0.4,0.6,0.8,0.2,0.2,0.8,0.4,0.6,1,0
,,6630ec3fa1752b4b2743c4cc,66fc98e9756f264e9ca11909,2024-10-01_21h52.09.193,mdp,2024.2.1,Win32,59.88023952,66fa4ebf79326e780c390304,,,,,,,,,,,,,,,,,,,,,887.335,887.335,887.3363,888.2514,0,1,left,0.3838,,888.253,889.9509,1,1,right,889.9524,891.001,0,1,left,0,891.001,891.001,891.0023,892.5008,0,2,2,2,1,0.2,0.8,0.4,0.6,,,,,,,,,,,,,,,1.1654,,0.4,0.6,0.6,0.4,0.8,0.2,0.6,0.4,,,0.5328,,0.4,0.6,0.8,0.2,0.2,0.8,0.4,0.6,1,0
,,6630ec3fa1752b4b2743c4cc,66fc98e9756f264e9ca11909,2024-10-01_21h52.09.193,mdp,2024.2.1,Win32,59.88023952,66fa4ebf79326e780c390304,,,,,,,,,,,,,,,,,,,,,892.5015,892.5015,892.5029,893.5343,0,1,left,0.503,,893.5356,894.6173,0,0,left,894.6189,896.0841,1,0,right,1,896.0842,896.0843,896.0854,897.5837,0,3,3,3,1,0.2,0.8,0.4,0.6,,,,,,,,,,,,,,,0.5506,,0.4,0.6,0.6,0.4,0.8,0.2,0.6,0.4,,,0.9331,,0.4,0.6,0.8,0.2,0.2,0.8,0.4,0.6,1,0
,,6630ec3fa1752b4b2743c4cc,66fc98e9756f264e9ca11909,2024-10-01_21h52.09.193,mdp,2024.2.1,Win32,59.88023952,66fa4ebf79326e780c390304,,,,,,,,,,,,,,,,,,,,,897.5844,897.5844,897.5859,898.9672,0,0,left,0.8504,,898.9688,900.4507,1,0,right,900.4523,901.4837,1,0,right,1,901.4837,901.4837,901.4847,902.9832,0,4,4,4,1,0.2,0.8,0.4,0.6,,,,,,,,,,,,,,,0.9531,,0.4,0.6,0.6,0.4,0.8,0.2,0.6,0.4,,,0.4997,,0.4,0.6,0.8,0.2,0.2,0.8,0.4,0.6,1,0
,,6630ec3fa1752b4b2743c4cc,66fc98e9756f264e9ca11909,2024-10-01_21h52.09.193,mdp,2024.2.1,Win32,59.88023952,66fa4ebf79326e780c390304,,,,,,,,,,,,,,,,,,,,,902.9836,902.9836,902.9846,904.3502,0,1,left,0.8341,,904.352,905.8833,0,0,left,905.8845,907.0499,1,0,right,1,907.05,907.05,907.0513,908.5501,0,5,5,5,1,0.2,0.8,0.4,0.6,,,,,,,,,,,,,,,1.0044,,0.4,0.6,0.6,0.4,0.8,0.2,0.6,0.4,,,0.6442,,0.4,0.6,0.8,0.2,0.8,0.2,0.2,0.8,1,0
,,6630ec3fa1752b4b2743c4cc,66fc98e9756f264e9ca11909,2024-10-01_21h52.09.193,mdp,2024.2.1,Win32,59.88023952,66fa4ebf79326e780c390304,,,,,,,,,,,,,,,,,,,,,908.5507,908.5507,908.5519,910.1996,0,1,left,1.1201,,910.2004,911.3828,0,0,left,911.3841,912.5164,1,0,right,1,912.5165,912.5165,912.5188,914.0159,0,6,6,6,1,0.2,0.8,0.4,0.6,,,,,,,,,,,,,,,0.6613,,0.4,0.6,0.6,0.4,0.8,0.2,0.6,0.4,,,0.6006,,0.4,0.6,0.8,0.2,0.8,0.2,0.2,0.8,1,0
,,6630ec3fa1752b4b2743c4cc,66fc98e9756f264e9ca11909,2024-10-01_21h52.09.193,mdp,2024.2.1,Win32,59.88023952,66fa4ebf79326e780c390304,,,,,,,,,,,,,,,,,,,,,914.0163,914.0163,914.0174,914.9494,1,0,right,0.4003,,914.9511,916.2829,1,0,right,916.2843,917.5163,1,0,right,1,917.5164,917.5164,917.5178,919.016,0,7,7,7,1,0.2,0.8,0.4,0.6,,,,,,,,,,,,,,,0.8006,,0.4,0.6,0.6,0.4,0.8,0.2,0.6,0.4,,,0.7063,,0.4,0.6,0.8,0.2,0.8,0.2,0.2,0.8,1,0
,,6630ec3fa1752b4b2743c4cc,66fc98e9756f264e9ca11909,2024-10-01_21h52.09.193,mdp,2024.2.1,Win32,59.88023952,66fa4ebf79326e780c390304,,,,,,,,,,,,,,,,,,,,,919.0168,919.0168,919.0182,920.3826,0,1,left,0.8338,,920.384,922.5158,0,1,left,922.5172,923.8821,0,0,left,1,923.8822,923.8822,923.8836,925.3819,0,8,8,8,1,0.2,0.8,0.4,0.6,,,,,,,,,,,,,,,1.5976,,0.4,0.6,0.6,0.4,0.8,0.2,0.6,0.4,,,0.8297,,0.4,0.6,0.8,0.2,0.8,0.2,0.2,0.8,1,0
,,6630ec3fa1752b4b2743c4cc,66fc98e9756f264e9ca11909,2024-10-01_21h52.09.193,mdp,2024.2.1,Win32,59.88023952,66fa4ebf79326e780c390304,,,,,,,,,,,,,,,,,,,,,925.3828,925.3828,925.3842,926.7824,0,1,left,0.8702,,926.7836,928.0489,0,0,left,928.0503,929.1989,1,0,right,1,929.199,929.199,929.2006,930.6984,0,9,9,9,1,0.2,0.8,0.4,0.6,,,,,,,,,,,,,,,0.7437,,0.4,0.6,0.6,0.4,0.8,0.2,0.6,0.4,,,0.6129,,0.4,0.6,0.8,0.2,0.8,0.2,0.2,0.8,1,0
,,6630ec3fa1752b4b2743c4cc,66fc98e9756f264e9ca11909,2024-10-01_21h52.09.193,mdp,2024.2.1,Win32,59.88023952,66fa4ebf79326e780c390304,,,,,,,,,,,,,,,,,,,,,930.699,930.699,930.7014,931.8155,0,1,left,0.584,,931.8171,932.9652,0,0,left,932.9665,933.8819,1,0,right,1,933.8821,933.8821,933.8835,935.3816,0,10,10,10,1,0.2,0.8,0.4,0.6,,,,,,,,,,,,,,,0.6171,,0.2,0.8,0.4,0.6,0.8,0.2,0.6,0.4,,,0.3834,,0.4,0.6,0.8,0.2,0.8,0.2,0.2,0.8,1,0
,,6630ec3fa1752b4b2743c4cc,66fc98e9756f264e9ca11909,2024-10-01_21h52.09.193,mdp,2024.2.1,Win32,59.88023952,66fa4ebf79326e780c390304,,,,,,,,,,,,,,,,,,,,,935.3823,935.3823,935.384,936.2155,0,1,left,0.3115,,936.217,937.1319,0,0,left,937.1341,937.965,1,0,right,1,937.965,937.9651,937.9663,939.4644,0,11,11,11,1,0.4,0.6,0.2,0.8,,,,,,,,,,,,,,,0.3904,,0.2,0.8,0.4,0.6,0.8,0.2,0.6,0.4,,,0.3015,,0.4,0.6,0.8,0.2,0.8,0.2,0.2,0.8,1,0
,,6630ec3fa1752b4b2743c4cc,66fc98e9756f264e9ca11909,2024-10-01_21h52.09.193,mdp,2024.2.1,Win32,59.88023952,66fa4ebf79326e780c390304,,,,,,,,,,,,,,,,,,,,,939.4646,939.4646,939.4652,940.4646,0,1,left,0.4685,,940.466,941.7481,0,0,left,941.7498,942.5977,1,1,right,0,942.5977,942.5977,942.5991,944.0976,0,12,12,12,1,0.4,0.6,0.2,0.8,,,,,,,,,,,,,,,0.7512,,0.4,0.6,0.6,0.4,0.8,0.2,0.6,0.4,,,0.3288,,0.4,0.6,0.8,0.2,0.8,0.2,0.2,0.8,1,0
,,6630ec3fa1752b4b2743c4cc,66fc98e9756f264e9ca11909,2024-10-01_21h52.09.193,mdp,2024.2.1,Win32,59.88023952,66fa4ebf79326e780c390304,,,,,,,,,,,,,,,,,,,,,944.0984,944.0985,944.0997,945.0311,0,1,left,0.4011,,945.0325,945.9477,0,0,left,945.9491,946.9143,1,0,right,1,946.9145,946.9145,946.9161,948.414,0,13,13,13,1,0.4,0.6,0.2,0.8,,,,,,,,,,,,,,,0.3833,,0.4,0.6,0.6,0.4,0.8,0.2,0.6,0.4,,,0.436,,0.4,0.6,0.8,0.2,0.8,0.2,0.2,0.8,1,0
,,6630ec3fa1752b4b2743c4cc,66fc98e9756f264e9ca11909,2024-10-01_21h52.09.193,mdp,2024.2.1,Win32,59.88023952,66fa4ebf79326e780c390304,,,,,,,,,,,,,,,,,,,,,948.4146,948.4146,948.4159,949.214,0,0,left,0.2733,,949.2156,950.764,1,0,right,950.7658,951.8806,1,0,right,1,951.8807,951.8807,951.8825,953.3805,0,14,14,14,1,0.4,0.6,0.2,0.8,,,,,,,,,,,,,,,1.0134,,0.4,0.6,0.6,0.4,0.8,0.2,0.6,0.4,,,0.5849,,0.4,0.6,0.8,0.2,0.8,0.2,0.2,0.8,1,0
,,6630ec3fa1752b4b2743c4cc,66fc98e9756f264e9ca11909,2024-10-01_21h52.09.193,mdp,2024.2.1,Win32,59.88023952,66fa4ebf79326e780c390304,,,,,,,,,,,,,,,,,,,,,953.3813,953.3813,953.3829,954.5473,0,0,left,0.6346,,954.5486,955.7304,1,0,right,955.732,956.6302,1,0,right,1,956.6303,956.6303,956.6318,958.1303,0,15,15,15,1,0.4,0.6,0.2,0.8,,,,,,,,,,,,,,,0.6525,,0.4,0.6,0.6,0.4,0.8,0.2,0.6,0.4,,,0.3719,,0.4,0.6,0.8,0.2,0.8,0.2,0.2,0.8,1,0
,,6630ec3fa1752b4b2743c4cc,66fc98e9756f264e9ca11909,2024-10-01_21h52.09.193,mdp,2024.2.1,Win32,59.88023952,66fa4ebf79326e780c390304,,,,,,,,,,,,,,,,,,,,,958.1311,958.1312,958.1324,959.0636,0,1,left,0.4005,,959.0649,960.2134,0,0,left,960.215,961.3633,1,0,right,1,961.3633,961.3634,961.3645,962.8631,0,16,16,16,1,0.4,0.6,0.2,0.8,,,,,,,,,,,,,,,0.6124,,0.4,0.6,0.6,0.4,0.8,0.2,0.6,0.4,,,0.6227,,0.4,0.6,0.8,0.2,0.8,0.2,0.2,0.8,1,0
,,6630ec3fa1752b4b2743c4cc,66fc98e9756f264e9ca11909,2024-10-01_21h52.09.193,mdp,2024.2.1,Win32,59.88023952,66fa4ebf79326e780c390304,,,,,,,,,,,,,,,,,,,,,962.8637,962.8637,962.865,963.83,0,0,left,0.4408,,963.8315,964.9632,1,0,right,964.9647,966.0131,1,0,right,1,966.0132,966.0133,966.0147,967.5129,0,17,17,17,1,0.4,0.6,0.2,0.8,,,,,,,,,,,,,,,0.5972,,0.4,0.6,0.6,0.4,0.8,0.2,0.6,0.4,,,0.5159,,0.4,0.6,0.8,0.2,0.8,0.2,0.2,0.8,1,0
,,6630ec3fa1752b4b2743c4cc,66fc98e9756f264e9ca11909,2024-10-01_21h52.09.193,mdp,2024.2.1,Win32,59.88023952,66fa4ebf79326e780c390304,,,,,,,,,,,,,,,,,,,,,967.5136,967.5136,967.5152,968.5464,0,0,left,0.5015,,968.5474,970.1962,1,0,right,970.1978,971.2627,1,0,right,1,971.2629,971.2629,971.2641,972.7626,0,18,18,18,1,0.4,0.6,0.2,0.8,,,,,,,,,,,,,,,1.1264,,0.4,0.6,0.6,0.4,0.8,0.2,0.6,0.4,,,0.5404,,0.4,0.6,0.8,0.2,0.8,0.2,0.2,0.8,1,0
,,6630ec3fa1752b4b2743c4cc,66fc98e9756f264e9ca11909,2024-10-01_21h52.09.193,mdp,2024.2.1,Win32,59.88023952,66fa4ebf79326e780c390304,,,,,,,,,,,,,,,,,,,,,972.7631,972.7631,972.7641,973.6624,0,0,left,0.3661,,973.6639,974.8124,1,1,right,974.8136,976.0625,0,1,left,0,976.0626,976.0626,976.064,977.5621,0,19,19,19,1,0.4,0.6,0.2,0.8,,,,,,,,,,,,,,,0.6203,,0.2,0.8,0.4,0.6,0.8,0.2,0.6,0.4,,,0.721,,0.4,0.6,0.8,0.2,0.8,0.2,0.2,0.8,1,0
,,6630ec3fa1752b4b2743c4cc,66fc98e9756f264e9ca11909,2024-10-01_21h52.09.193,mdp,2024.2.1,Win32,59.88023952,66fa4ebf79326e780c390304,,,,,,,,,,,,,,,,,,,,,977.5629,977.5629,977.5646,978.6122,0,1,left,0.5177,,978.614,979.8123,0,0,left,979.8136,980.8454,1,0,right,1,980.8454,980.8454,980.8465,982.3454,0,20,20,20,1,0.4,0.6,0.2,0.8,,,,,,,,,,,,,,,0.6648,,0.2,0.8,0.4,0.6,0.8,0.2,0.6,0.4,,,0.503,,0.4,0.6,0.8,0.2,0.8,0.2,0.2,0.8,1,0
,,6630ec3fa1752b4b2743c4cc,66fc98e9756f264e9ca11909,2024-10-01_21h52.09.193,mdp,2024.2.1,Win32,59.88023952,66fa4ebf79326e780c390304,,,,,,,,,,,,,,,,,,,,,982.346,982.346,982.3474,983.1788,0,0,left,0.3102,,983.1801,984.3619,1,1,right,984.3635,985.4784,0,0,left,1,985.4786,985.4786,985.4798,986.9783,0,21,21,21,1,0.4,0.6,0.2,0.8,,,,,,,,,,,,,,,0.6461,,0.2,0.8,0.4,0.6,0.8,0.2,0.6,0.4,,,0.5878,,0.4,0.6,0.8,0.2,0.8,0.2,0.2,0.8,1,0
,,6630ec3fa1752b4b2743c4cc,66fc98e9756f264e9ca11909,2024-10-01_21h52.09.193,mdp,2024.2.1,Win32,59.88023952,66fa4ebf79326e780c390304,,,,,,,,,,,,,,,,,,,,,986.979,986.979,986.9804,987.8285,0,1,left,0.3177,,987.8296,989.0786,0,0,left,989.0801,990.145,1,0,right,1,990.1452,990.1452,990.1466,991.6448,0,22,22,22,1,0.4,0.6,0.2,0.8,,,,,,,,,,,,,,,0.7143,,0.2,0.8,0.4,0.6,0.8,0.2,0.6,0.4,,,0.5362,,0.4,0.6,0.8,0.2,0.8,0.2,0.2,0.8,1,0
,,6630ec3fa1752b4b2743c4cc,66fc98e9756f264e9ca11909,2024-10-01_21h52.09.193,mdp,2024.2.1,Win32,59.88023952,66fa4ebf79326e780c390304,,,,,,,,,,,,,,,,,,,,,991.6455,991.6455,991.6469,992.395,0,0,left,0.2258,,992.3964,993.595,1,0,right,993.5966,994.5784,0,1,left,0,994.5784,994.5785,994.58,996.0777,0,23,23,23,1,0.4,0.6,0.2,0.8,,,,,,,,,,,,,,,0.672,,0.2,0.8,0.4,0.6,0.8,0.2,0.6,0.4,,,0.452,,0.4,0.6,0.8,0.2,0.8,0.2,0.2,0.8,1,0
,,6630ec3fa1752b4b2743c4cc,66fc98e9756f264e9ca11909,2024-10-01_21h52.09.193,mdp,2024.2.1,Win32,59.88023952,66fa4ebf79326e780c390304,,,,,,,,,,,,,,,,,,,,,996.0782,996.0782,996.0794,997.1779,0,1,left,0.57,,997.1797,998.3443,0,1,left,998.3454,999.7612,0,0,left,1,999.7614,999.7614,999.7631,1001.2605,0,24,24,24,1,0.4,0.6,0.2,0.8,,,,,,,,,,,,,,,0.6405,,0.2,0.8,0.4,0.6,0.8,0.2,0.6,0.4,,,0.8803,,0.4,0.6,0.8,0.2,0.8,0.2,0.2,0.8,1,0
,,6630ec3fa1752b4b2743c4cc,66fc98e9756f264e9ca11909,2024-10-01_21h52.09.193,mdp,2024.2.1,Win32,59.88023952,66fa4ebf79326e780c390304,,,,,,,,,,,,,,,,,,,,,1001.261,1001.2611,1001.2619,1002.1945,0,0,left,0.4061,,1002.1958,1003.3442,1,0,right,1003.3455,1004.2441,1,0,right,1,1004.2444,1004.2444,1004.246,1005.7438,0,25,25,25,1,0.4,0.6,0.2,0.8,,,,,,,,,,,,,,,0.6156,,0.2,0.8,0.4,0.6,0.8,0.2,0.6,0.4,,,0.3637,,0.4,0.6,0.8,0.2,0.8,0.2,0.2,0.8,1,0
,,6630ec3fa1752b4b2743c4cc,66fc98e9756f264e9ca11909,2024-10-01_21h52.09.193,mdp,2024.2.1,Win32,59.88023952,66fa4ebf79326e780c390304,,,,,,,,,,,,,,,,,,,,,1005.7445,1005.7445,1005.7463,1006.7938,0,1,left,0.5171,,1006.7955,1008.0937,0,0,left,1008.0951,1009.6106,1,0,right,1,1009.6107,1009.6107,1009.612,1011.1103,0,26,26,26,1,0.4,0.6,0.2,0.8,,,,,,,,,,,,,,,0.7639,,0.2,0.8,0.4,0.6,0.8,0.2,0.6,0.4,,,0.9841,,0.4,0.6,0.8,0.2,0.8,0.2,0.2,0.8,1,0
,,6630ec3fa1752b4b2743c4cc,66fc98e9756f264e9ca11909,2024-10-01_21h52.09.193,mdp,2024.2.1,Win32,59.88023952,66fa4ebf79326e780c390304,,,,,,,,,,,,,,,,,,,,,1011.1111,1011.1111,1011.1126,1012.0105,0,0,left,0.3673,,1012.0121,1013.1106,1,1,right,1013.1124,1014.3769,0,1,left,0,1014.377,1014.377,1014.3785,1015.8768,0,27,27,27,1,0.4,0.6,0.2,0.8,,,,,,,,,,,,,,,0.5684,,0.2,0.8,0.4,0.6,0.8,0.2,0.6,0.4,,,0.7307,,0.4,0.6,0.8,0.2,0.8,0.2,0.2,0.8,1,0
,,6630ec3fa1752b4b2743c4cc,66fc98e9756f264e9ca11909,2024-10-01_21h52.09.193,mdp,2024.2.1,Win32,59.88023952,66fa4ebf79326e780c390304,,,,,,,,,,,,,,,,,,,,,1015.8775,1015.8775,1015.8793,1017.2768,0,0,left,0.8741,,1017.2785,1018.3266,1,1,right,1018.3281,1019.3431,1,1,right,0,1019.3432,1019.3433,1019.3447,1020.8429,0,28,28,28,1,0.4,0.6,0.2,0.8,,,,,,,,,,,,,,,0.5391,,0.2,0.8,0.4,0.6,0.8,0.2,0.6,0.4,,,0.4847,,0.4,0.6,0.8,0.2,0.8,0.2,0.2,0.8,1,0
,,6630ec3fa1752b4b2743c4cc,66fc98e9756f264e9ca11909,2024-10-01_21h52.09.193,mdp,2024.2.1,Win32,59.88023952,66fa4ebf79326e780c390304,,,,,,,,,,,,,,,,,,,,,1020.8437,1020.8437,1020.8451,1021.8431,0,1,left,0.472,,1021.8443,1022.9763,0,1,left,1022.9776,1025.6593,0,0,left,1,1025.6593,1025.6593,1025.6601,1027.1593,0,29,29,29,1,0.4,0.6,0.2,0.8,,,,,,,,,,,,,,,0.5981,,0.2,0.8,0.4,0.6,0.8,0.2,0.6,0.4,,,2.1486,,0.4,0.6,0.8,0.2,0.8,0.2,0.2,0.8,1,0
,,6630ec3fa1752b4b2743c4cc,66fc98e9756f264e9ca11909,2024-10-01_21h52.09.193,mdp,2024.2.1,Win32,59.88023952,66fa4ebf79326e780c390304,,,,,,,,,,,,,,,,,,,,,1027.16,1027.16,1027.1616,1028.2261,0,0,left,0.5345,,1028.2277,1029.476,1,1,right,1029.4774,1030.6259,0,1,left,0,1030.6261,1030.6261,1030.6274,1032.1257,0,30,30,30,1,0.4,0.6,0.2,0.8,,,,,,,,,,,,,,,0.7202,,0.2,0.8,0.4,0.6,0.2,0.8,0.8,0.2,,,0.6174,,0.4,0.6,0.8,0.2,0.8,0.2,0.2,0.8,1,0
,,6630ec3fa1752b4b2743c4cc,66fc98e9756f264e9ca11909,2024-10-01_21h52.09.193,mdp,2024.2.1,Win32,59.88023952,66fa4ebf79326e780c390304,,,,,,,,,,,,,,,,,,,,,1032.1264,1032.1264,1032.1276,1033.259,0,0,left,0.605,,1033.2605,1034.3257,1,1,right,1034.3272,1035.2255,1,1,right,0,1035.2255,1035.2255,1035.2267,1036.7254,0,31,31,31,1,0.4,0.6,0.2,0.8,,,,,,,,,,,,,,,0.5342,,0.2,0.8,0.4,0.6,0.2,0.8,0.8,0.2,,,0.3777,,0.4,0.6,0.8,0.2,0.8,0.2,0.2,0.8,1,0
,,6630ec3fa1752b4b2743c4cc,66fc98e9756f264e9ca11909,2024-10-01_21h52.09.193,mdp,2024.2.1,Win32,59.88023952,66fa4ebf79326e780c390304,,,,,,,,,,,,,,,,,,,,,1036.726,1036.726,1036.7271,1037.6587,0,1,left,0.4018,,1037.66,1038.7754,0,1,left,1038.7769,1040.3253,0,0,left,1,1040.3255,1040.3255,1040.3269,1041.8253,0,32,32,32,1,0.4,0.6,0.2,0.8,,,,,,,,,,,,,,,0.5814,,0.2,0.8,0.4,0.6,0.2,0.8,0.8,0.2,,,1.0261,,0.4,0.6,0.8,0.2,0.8,0.2,0.2,0.8,1,0
,,6630ec3fa1752b4b2743c4cc,66fc98e9756f264e9ca11909,2024-10-01_21h52.09.193,mdp,2024.2.1,Win32,59.88023952,66fa4ebf79326e780c390304,,,,,,,,,,,,,,,,,,,,,1041.8259,1041.8259,1041.827,1042.7252,0,0,left,0.3715,,1042.7265,1043.7252,1,1,right,1043.7264,1044.6419,1,0,right,1,1044.642,1044.642,1044.6435,1046.1417,0,33,33,33,1,0.8,0.2,0.4,0.6,,,,,,,,,,,,,,,0.4633,,0.2,0.8,0.4,0.6,0.2,0.8,0.8,0.2,,,0.3879,,0.4,0.6,0.8,0.2,0.8,0.2,0.2,0.8,1,0
,,6630ec3fa1752b4b2743c4cc,66fc98e9756f264e9ca11909,2024-10-01_21h52.09.193,mdp,2024.2.1,Win32,59.88023952,66fa4ebf79326e780c390304,,,,,,,,,,,,,,,,,,,,,1046.1424,1046.1424,1046.1438,1047.2414,0,1,left,0.5672,,1047.2422,1048.3082,0,1,left,1048.3097,1049.2082,0,0,left,1,1049.2082,1049.2082,1049.2099,1050.708,0,34,34,34,1,0.8,0.2,0.4,0.6,,,,,,,,,,,,,,,0.5478,,0.2,0.8,0.4,0.6,0.2,0.8,0.8,0.2,,,0.3686,,0.4,0.6,0.8,0.2,0.8,0.2,0.2,0.8,1,0
,,6630ec3fa1752b4b2743c4cc,66fc98e9756f264e9ca11909,2024-10-01_21h52.09.193,mdp,2024.2.1,Win32,59.88023952,66fa4ebf79326e780c390304,,,,,,,,,,,,,,,,,,,,,1050.7087,1050.7087,1050.71,1051.7916,0,0,left,0.5504,,1051.793,1052.9414,1,0,right,1052.9428,1054.0914,1,0,right,1,1054.0914,1054.0914,1054.0931,1055.5909,0,35,35,35,1,0.8,0.2,0.4,0.6,,,,,,,,,,,,,,,0.6118,,0.2,0.8,0.4,0.6,0.2,0.8,0.8,0.2,,,0.614,,0.4,0.6,0.8,0.2,0.8,0.2,0.2,0.8,1,0
,,6630ec3fa1752b4b2743c4cc,66fc98e9756f264e9ca11909,2024-10-01_21h52.09.193,mdp,2024.2.1,Win32,59.88023952,66fa4ebf79326e780c390304,,,,,,,,,,,,,,,,,,,,,1055.5916,1055.5916,1055.5932,1056.4243,0,1,left,0.3008,,1056.4258,1057.5073,0,1,left,1057.5087,1058.574,0,1,left,0,1058.5741,1058.5741,1058.5753,1060.0739,0,36,36,36,1,0.8,0.2,0.4,0.6,,,,,,,,,,,,,,,0.5559,,0.2,0.8,0.4,0.6,0.2,0.8,0.8,0.2,,,0.5469,,0.4,0.6,0.8,0.2,0.8,0.2,0.2,0.8,1,0
,,6630ec3fa1752b4b2743c4cc,66fc98e9756f264e9ca11909,2024-10-01_21h52.09.193,mdp,2024.2.1,Win32,59.88023952,66fa4ebf79326e780c390304,,,,,,,,,,,,,,,,,,,,,1060.0747,1060.0747,1060.0763,1060.8407,0,0,left,0.2364,,1060.8421,1062.0073,1,1,right,1062.0088,1063.3073,1,1,right,0,1063.3074,1063.3074,1063.3089,1064.807,0,37,37,37,1,0.8,0.2,0.4,0.6,,,,,,,,,,,,,,,0.6334,,0.2,0.8,0.4,0.6,0.2,0.8,0.8,0.2,,,0.775,,0.4,0.6,0.8,0.2,0.8,0.2,0.2,0.8,1,0
,,6630ec3fa1752b4b2743c4cc,66fc98e9756f264e9ca11909,2024-10-01_21h52.09.193,mdp,2024.2.1,Win32,59.88023952,66fa4ebf79326e780c390304,,,,,,,,,,,,,,,,,,,,,1064.8078,1064.8078,1064.8095,1065.7568,0,0,left,0.4222,,1065.7583,1066.9904,1,0,right,1066.9924,1067.957,1,1,right,0,1067.957,1067.9571,1067.9586,1069.4569,0,38,38,38,1,0.8,0.2,0.4,0.6,,,,,,,,,,,,,,,0.7009,,0.2,0.8,0.4,0.6,0.2,0.8,0.8,0.2,,,0.4318,,0.4,0.6,0.8,0.2,0.8,0.2,0.2,0.8,1,0
,,6630ec3fa1752b4b2743c4cc,66fc98e9756f264e9ca11909,2024-10-01_21h52.09.193,mdp,2024.2.1,Win32,59.88023952,66fa4ebf79326e780c390304,,,,,,,,,,,,,,,,,,,,,1069.4576,1069.4576,1069.4589,1070.4901,0,0,left,0.5028,,1070.492,1071.3904,0,1,left,1071.3919,1072.2902,1,1,right,0,1072.2903,1072.2903,1072.2919,1073.7898,0,39,39,39,1,0.8,0.2,0.4,0.6,,,,,,,,,,,,,,,0.3749,,0.2,0.8,0.4,0.6,0.2,0.8,0.8,0.2,,,0.3637,,0.4,0.6,0.8,0.2,0.8,0.2,0.2,0.8,1,0
,,6630ec3fa1752b4b2743c4cc,66fc98e9756f264e9ca11909,2024-10-01_21h52.09.193,mdp,2024.2.1,Win32,59.88023952,66fa4ebf79326e780c390304,,,,,,,,,,,,,,,,,,,,,1073.7905,1073.7905,1073.7924,1074.6732,0,1,left,0.3534,,1074.6745,1075.7228,0,1,left,1075.7236,1076.99,0,1,left,0,1076.9901,1076.9901,1076.9919,1078.4894,0,40,40,40,1,0.2,0.8,0.2,0.8,,,,,,,,,,,,,,,0.5265,,0.2,0.8,0.4,0.6,0.2,0.8,0.8,0.2,,,0.7401,,0.4,0.6,0.8,0.2,0.8,0.2,0.2,0.8,1,0
,,6630ec3fa1752b4b2743c4cc,66fc98e9756f264e9ca11909,2024-10-01_21h52.09.193,mdp,2024.2.1,Win32,59.88023952,66fa4ebf79326e780c390304,,,,,,,,,,,,,,,,,,,,,1078.49,1078.49,1078.4913,1079.423,0,1,left,0.4103,,1079.4248,1080.4063,0,1,left,1080.4078,1081.5228,0,0,left,1,1081.5229,1081.5229,1081.524,1083.0224,0,41,41,41,1,0.4,0.6,0.4,0.6,,,,,,,,,,,,,,,0.4553,,0.2,0.8,0.4,0.6,0.2,0.8,0.8,0.2,,,0.5924,,0.4,0.6,0.8,0.2,0.8,0.2,0.2,0.8,1,0
,,6630ec3fa1752b4b2743c4cc,66fc98e9756f264e9ca11909,2024-10-01_21h52.09.193,mdp,2024.2.1,Win32,59.88023952,66fa4ebf79326e780c390304,,,,,,,,,,,,,,,,,,,,,1083.0229,1083.0229,1083.0239,1083.8726,0,0,left,0.3193,,1083.8737,1085.0393,1,1,right,1085.0408,1086.2224,0,0,left,1,1086.2226,1086.2226,1086.2238,1087.7222,0,42,42,42,1,0.4,0.6,0.4,0.6,,,,,,,,,,,,,,,0.6299,,0.2,0.8,0.4,0.6,0.2,0.8,0.8,0.2,,,0.6501,,0.4,0.6,0.8,0.2,0.8,0.2,0.2,0.8,1,0
,,6630ec3fa1752b4b2743c4cc,66fc98e9756f264e9ca11909,2024-10-01_21h52.09.193,mdp,2024.2.1,Win32,59.88023952,66fa4ebf79326e780c390304,,,,,,,,,,,,,,,,,,,,,1087.7227,1087.7227,1087.7239,1088.7724,0,1,left,0.5217,,1088.7735,1089.7725,0,1,left,1089.7735,1091.1056,0,1,left,0,1091.1058,1091.1058,1091.1071,1092.6055,0,43,43,43,1,0.4,0.6,0.4,0.6,,,,,,,,,,,,,,,0.4646,,0.2,0.8,0.4,0.6,0.2,0.8,0.8,0.2,,,0.7999,,0.4,0.6,0.8,0.2,0.8,0.2,0.2,0.8,1,0
,,6630ec3fa1752b4b2743c4cc,66fc98e9756f264e9ca11909,2024-10-01_21h52.09.193,mdp,2024.2.1,Win32,59.88023952,66fa4ebf79326e780c390304,,,,,,,,,,,,,,,,,,,,,1092.6061,1092.6061,1092.6072,1093.4554,0,1,left,0.3255,,1093.4568,1094.4719,0,1,left,1094.4735,1095.6386,0,0,left,1,1095.6386,1095.6386,1095.6398,1097.1383,0,44,44,44,1,0.4,0.6,0.4,0.6,,,,,,,,,,,,,,,0.4837,,0.2,0.8,0.4,0.6,0.2,0.8,0.8,0.2,,,0.6432,,0.4,0.6,0.8,0.2,0.8,0.2,0.2,0.8,1,0
,,6630ec3fa1752b4b2743c4cc,66fc98e9756f264e9ca11909,2024-10-01_21h52.09.193,mdp,2024.2.1,Win32,59.88023952,66fa4ebf79326e780c390304,,,,,,,,,,,,,,,,,,,,,1097.1388,1097.1388,1097.1401,1098.0385,0,1,left,0.368,,1098.0408,1099.0552,0,1,left,1099.0565,1099.9719,0,0,left,1,1099.9721,1099.9721,1099.9733,1101.4716,0,45,45,45,1,0.4,0.6,0.4,0.6,,,,,,,,,,,,,,,0.4841,,0.2,0.8,0.4,0.6,0.2,0.8,0.8,0.2,,,0.3831,,0.4,0.6,0.8,0.2,0.8,0.2,0.2,0.8,1,0
,,6630ec3fa1752b4b2743c4cc,66fc98e9756f264e9ca11909,2024-10-01_21h52.09.193,mdp,2024.2.1,Win32,59.88023952,66fa4ebf79326e780c390304,,,,,,,,,,,,,,,,,,,,,1101.4722,1101.4722,1101.4738,1102.2883,0,1,left,0.2842,,1102.2896,1103.3549,0,1,left,1103.3563,1104.5215,0,0,left,1,1104.5216,1104.5217,1104.5232,1106.0213,0,46,46,46,1,0.4,0.6,0.4,0.6,,,,,,,,,,,,,,,0.5374,,0.2,0.8,0.4,0.6,0.2,0.8,0.8,0.2,,,0.6429,,0.4,0.6,0.8,0.2,0.8,0.2,0.2,0.8,1,0
,,6630ec3fa1752b4b2743c4cc,66fc98e9756f264e9ca11909,2024-10-01_21h52.09.193,mdp,2024.2.1,Win32,59.88023952,66fa4ebf79326e780c390304,,,,,,,,,,,,,,,,,,,,,1106.0222,1106.0222,1106.0235,1106.9046,0,1,left,0.3562,,1106.9053,1107.8712,0,1,left,1107.8724,1108.7883,0,0,left,1,1108.7884,1108.7884,1108.7896,1110.2876,0,47,47,47,1,0.4,0.6,0.4,0.6,,,,,,,,,,,,,,,0.4337,,0.2,0.8,0.4,0.6,0.2,0.8,0.8,0.2,,,0.4017,,0.4,0.6,0.8,0.2,0.8,0.2,0.2,0.8,1,0
,,6630ec3fa1752b4b2743c4cc,66fc98e9756f264e9ca11909,2024-10-01_21h52.09.193,mdp,2024.2.1,Win32,59.88023952,66fa4ebf79326e780c390304,,,,,,,,,,,,,,,,,,,,,1110.2882,1110.2883,1110.2896,1111.171,0,1,left,0.36,,1111.1725,1112.0711,0,0,left,1112.073,1113.1376,1,0,right,1,1113.1377,1113.1378,1113.1389,1114.6374,0,48,48,48,1,0.4,0.6,0.4,0.6,,,,,,,,,,,,,,,0.374,,0.2,0.8,0.4,0.6,0.2,0.8,0.8,0.2,,,0.5349,,0.4,0.6,0.8,0.2,0.8,0.2,0.2,0.8,1,0
,,6630ec3fa1752b4b2743c4cc,66fc98e9756f264e9ca11909,2024-10-01_21h52.09.193,mdp,2024.2.1,Win32,59.88023952,66fa4ebf79326e780c390304,,,,,,,,,,,,,,,,,,,,,1114.638,1114.638,1114.6393,1115.5208,0,1,left,0.3599,,1115.522,1116.7209,0,1,left,1116.7225,1117.9205,0,0,left,1,1117.9207,1117.9207,1117.922,1119.4203,0,49,49,49,1,0.4,0.6,0.4,0.6,,,,,,,,,,,,,,,0.6668,,0.2,0.8,0.4,0.6,0.2,0.8,0.8,0.2,,,0.6894,,0.4,0.6,0.8,0.2,0.8,0.2,0.2,0.8,1,0
,,6630ec3fa1752b4b2743c4cc,66fc98e9756f264e9ca11909,2024-10-01_21h52.09.193,mdp,2024.2.1,Win32,59.88023952,66fa4ebf79326e780c390304,,,,,,,,,,,,,,,,,,,,,,,,,,,,,,,,,,,,,,,,,,,,,,,,,,,,,,,,1119.4204,1170.6668,0,3,3,3,1,imgs/kangaroo.png,imgs/bear.png,imgs/giraffe.png,imgs/cat.png,imgs/elephant.png,,,,,,,,,,,,,,,,,,,,,,,,
,,6630ec3fa1752b4b2743c4cc,66fc98e9756f264e9ca11909,2024-10-01_21h52.09.193,mdp,2024.2.1,Win32,59.88023952,66fa4ebf79326e780c390304,,,,,,,,,,,,,,1,seqs/st1seq42.csv,1170.6756,1171.634,space,0.4412,,1171.6376,1171.6376,1171.6387,1173.4171,0,1,left,1.2455,,1173.4185,1173.4197,0,1,,1173.4207,1173.4214,0,1,,0,1173.4214,1173.4214,1173.4219,1174.917,0,0,0,0,1,0.2,0.8,0.6,0.4,1,0,,,,,,,,,,,,,,,,,,,,,,,,,,,,,,,,,,,,
,,6630ec3fa1752b4b2743c4cc,66fc98e9756f264e9ca11909,2024-10-01_21h52.09.193,mdp,2024.2.1,Win32,59.88023952,66fa4ebf79326e780c390304,,,,,,,,,,,,,,,,,,,,,1174.9175,1174.9175,1174.9186,1176.6503,0,0,left,1.2102,,1176.6522,1176.6532,0,0,,1176.6542,1176.6548,0,0,,1,1176.6548,1176.6548,1176.6554,1178.1501,0,1,1,1,1,0.8,0.2,0.4,0.6,1,0,,,,,,,,,,,,,,,,,,,,,,,,,,,,,,,,,,,,
,,6630ec3fa1752b4b2743c4cc,66fc98e9756f264e9ca11909,2024-10-01_21h52.09.193,mdp,2024.2.1,Win32,59.88023952,66fa4ebf79326e780c390304,,,,,,,,,,,,,,,,,,,,,1178.1504,1178.1504,1178.1516,1178.9667,0,0,left,0.2934,,1178.9676,1178.9682,0,0,,1178.969,1178.9693,0,0,,1,1178.9693,1178.9693,1178.9696,1180.467,0,2,2,2,1,0.8,0.2,0.4,0.6,1,0,,,,,,,,,,,,,,,,,,,,,,,,,,,,,,,,,,,,
,,6630ec3fa1752b4b2743c4cc,66fc98e9756f264e9ca11909,2024-10-01_21h52.09.193,mdp,2024.2.1,Win32,59.88023952,66fa4ebf79326e780c390304,,,,,,,,,,,,,,,,,,,,,1180.4675,1180.4675,1180.4693,1181.0668,0,1,left,0.0675,,1181.0682,1181.0691,0,0,,1181.0701,1181.0707,0,0,,0,1181.0707,1181.0707,1181.0713,1182.567,0,3,3,3,1,0.8,0.2,0.4,0.6,1,0,,,,,,,,,,,,,,,,,,,,,,,,,,,,,,,,,,,,
,,6630ec3fa1752b4b2743c4cc,66fc98e9756f264e9ca11909,2024-10-01_21h52.09.193,mdp,2024.2.1,Win32,59.88023952,66fa4ebf79326e780c390304,,,,,,,,,,,,,,,,,,,,,1182.5674,1182.5674,1182.5686,1183.2,0,0,left,0.1016,,1183.2016,1183.2024,0,0,,1183.2036,1183.2043,0,0,,1,1183.2044,1183.2044,1183.2049,1184.6995,0,4,4,4,1,0.8,0.2,0.4,0.6,1,0,,,,,,,,,,,,,,,,,,,,,,,,,,,,,,,,,,,,
,,6630ec3fa1752b4b2743c4cc,66fc98e9756f264e9ca11909,2024-10-01_21h52.09.193,mdp,2024.2.1,Win32,59.88023952,66fa4ebf79326e780c390304,,,,,,,,,,,,,,,,,,,,,1184.6999,1184.6999,1184.7011,1185.2328,0,1,left,0.0024,,1185.2337,1185.2348,0,1,,1185.2355,1185.2358,0,1,,0,1185.2359,1185.2359,1185.2362,1186.733,0,5,5,5,1,0.2,0.8,0.6,0.4,1,0,,,,,,,,,,,,,,,,,,,,,,,,,,,,,,,,,,,,
,,6630ec3fa1752b4b2743c4cc,66fc98e9756f264e9ca11909,2024-10-01_21h52.09.193,mdp,2024.2.1,Win32,59.88023952,66fa4ebf79326e780c390304,,,,,,,,,,,,,,,,,,,,,1186.7333,1186.7334,1186.7342,1187.3165,1,0,right,0.0577,,1187.3179,1187.3193,0,0,,1187.3203,1187.3209,0,1,,1,1187.321,1187.3211,1187.3216,1188.8161,0,6,6,6,1,0.2,0.8,0.6,0.4,1,0,,,,,,,,,,,,,,,,,,,,,,,,,,,,,,,,,,,,
,,6630ec3fa1752b4b2743c4cc,66fc98e9756f264e9ca11909,2024-10-01_21h52.09.193,mdp,2024.2.1,Win32,59.88023952,66fa4ebf79326e780c390304,,,,,,,,,,,,,,,,,,,,,1188.8163,1188.8164,1188.8174,1189.3827,1,0,right,0.0501,,1189.3836,1189.3843,0,0,,1189.385,1189.3853,0,1,,1,1189.3853,1189.3853,1189.3856,1190.8826,0,7,7,7,1,0.2,0.8,0.6,0.4,1,0,,,,,,,,,,,,,,,,,,,,,,,,,,,,,,,,,,,,
,,6630ec3fa1752b4b2743c4cc,66fc98e9756f264e9ca11909,2024-10-01_21h52.09.193,mdp,2024.2.1,Win32,59.88023952,66fa4ebf79326e780c390304,,,,,,,,,,,,,,,,,,,,,1190.8829,1190.883,1190.884,1191.4659,1,1,right,0.0537,,1191.4667,1191.4674,0,0,,1191.4682,1191.4687,0,0,,0,1191.4688,1191.4688,1191.4691,1192.966,0,8,8,8,1,0.2,0.8,0.6,0.4,1,0,,,,,,,,,,,,,,,,,,,,,,,,,,,,,,,,,,,,
,,6630ec3fa1752b4b2743c4cc,66fc98e9756f264e9ca11909,2024-10-01_21h52.09.193,mdp,2024.2.1,Win32,59.88023952,66fa4ebf79326e780c390304,,,,,,,,,,,,,,,,,,,,,1192.9664,1192.9665,1192.9678,1193.6161,1,0,right,0.1186,,1193.6172,1193.6181,0,0,,1193.619,1193.6195,0,0,,1,1193.6196,1193.6196,1193.6201,1195.116,0,9,9,9,1,0.2,0.8,0.6,0.4,1,0,,,,,,,,,,,,,,,,,,,,,,,,,,,,,,,,,,,,
,,6630ec3fa1752b4b2743c4cc,66fc98e9756f264e9ca11909,2024-10-01_21h52.09.193,mdp,2024.2.1,Win32,59.88023952,66fa4ebf79326e780c390304,,,,,,,,,,,,,,,,,,,,,1195.1165,1195.1165,1195.1181,1195.6491,1,1,right,0.002,,1195.6509,1195.652,0,0,,1195.653,1195.6536,0,1,,0,1195.6537,1195.6537,1195.6542,1197.149,0,10,10,10,1,0.2,0.8,0.6,0.4,1,0,,,,,,,,,,,,,,,,,,,,,,,,,,,,,,,,,,,,
,,6630ec3fa1752b4b2743c4cc,66fc98e9756f264e9ca11909,2024-10-01_21h52.09.193,mdp,2024.2.1,Win32,59.88023952,66fa4ebf79326e780c390304,,,,,,,,,,,,,,,,,,,,,1197.1496,1197.1496,1197.1511,1197.6823,1,0,right,0.0004,,1197.6839,1197.6849,0,0,,1197.6859,1197.6865,0,1,,1,1197.6866,1197.6866,1197.6871,1199.1822,0,11,11,11,1,0.2,0.8,0.6,0.4,1,0,,,,,,,,,,,,,,,,,,,,,,,,,,,,,,,,,,,,
,,6630ec3fa1752b4b2743c4cc,66fc98e9756f264e9ca11909,2024-10-01_21h52.09.193,mdp,2024.2.1,Win32,59.88023952,66fa4ebf79326e780c390304,,,,,,,,,,,,,,,,,,,,,1199.1829,1199.1829,1199.1844,1199.7991,1,0,right,0.0843,,1199.8015,1199.8027,0,1,,1199.8037,1199.8043,0,0,,1,1199.8043,1199.8044,1199.8048,1201.2988,0,12,12,12,1,0.6,0.4,0.8,0.2,1,0,,,,,,,,,,,,,,,,,,,,,,,,,,,,,,,,,,,,
,,6630ec3fa1752b4b2743c4cc,66fc98e9756f264e9ca11909,2024-10-01_21h52.09.193,mdp,2024.2.1,Win32,59.88023952,66fa4ebf79326e780c390304,,,,,,,,,,,,,,,,,,,,,1201.2994,1201.2994,1201.3005,1201.8986,1,0,right,0.074,,1201.9001,1201.9012,0,0,,1201.9024,1201.903,0,0,,1,1201.903,1201.903,1201.9035,1203.3986,0,13,13,13,1,0.6,0.4,0.8,0.2,1,0,,,,,,,,,,,,,,,,,,,,,,,,,,,,,,,,,,,,
,,6630ec3fa1752b4b2743c4cc,66fc98e9756f264e9ca11909,2024-10-01_21h52.09.193,mdp,2024.2.1,Win32,59.88023952,66fa4ebf79326e780c390304,,,,,,,,,,,,,,,,,,,,,1203.3992,1203.3992,1203.4006,1204.0488,1,0,right,0.1192,,1204.0502,1204.0514,0,1,,1204.0525,1204.053,0,0,,1,1204.053,1204.0531,1204.0536,1205.5486,0,14,14,14,1,0.6,0.4,0.8,0.2,1,0,,,,,,,,,,,,,,,,,,,,,,,,,,,,,,,,,,,,
,,6630ec3fa1752b4b2743c4cc,66fc98e9756f264e9ca11909,2024-10-01_21h52.09.193,mdp,2024.2.1,Win32,59.88023952,66fa4ebf79326e780c390304,,,,,,,,,,,,,,,,,,,,,1205.5492,1205.5492,1205.5505,1206.0821,1,0,right,0.0078,,1206.0832,1206.0841,0,1,,1206.085,1206.0856,0,0,,1,1206.0856,1206.0856,1206.0861,1207.5819,0,15,15,15,1,0.8,0.2,0.6,0.4,1,0,,,,,,,,,,,,,,,,,,,,,,,,,,,,,,,,,,,,
,,6630ec3fa1752b4b2743c4cc,66fc98e9756f264e9ca11909,2024-10-01_21h52.09.193,mdp,2024.2.1,Win32,59.88023952,66fa4ebf79326e780c390304,,,,,,,,,,,,,,,,,,,,,1207.5825,1207.5825,1207.5843,1208.1652,1,0,right,0.0509,,1208.1667,1208.1677,0,0,,1208.1689,1208.1694,0,0,,1,1208.1695,1208.1695,1208.17,1209.6652,0,16,16,16,1,0.8,0.2,0.6,0.4,1,0,,,,,,,,,,,,,,,,,,,,,,,,,,,,,,,,,,,,
,,6630ec3fa1752b4b2743c4cc,66fc98e9756f264e9ca11909,2024-10-01_21h52.09.193,mdp,2024.2.1,Win32,59.88023952,66fa4ebf79326e780c390304,,,,,,,,,,,,,,,,,,,,,1209.6657,1209.6657,1209.667,1210.2821,1,0,right,0.0841,,1210.2836,1210.2845,0,0,,1210.2854,1210.2861,0,1,,1,1210.2861,1210.2861,1210.2867,1211.7815,0,17,17,17,1,0.8,0.2,0.6,0.4,1,0,,,,,,,,,,,,,,,,,,,,,,,,,,,,,,,,,,,,
,,6630ec3fa1752b4b2743c4cc,66fc98e9756f264e9ca11909,2024-10-01_21h52.09.193,mdp,2024.2.1,Win32,59.88023952,66fa4ebf79326e780c390304,,,,,,,,,,,,,,,,,,,,,1211.7822,1211.7822,1211.7839,1212.3818,1,0,right,0.0681,,1212.3832,1212.3842,0,0,,1212.3852,1212.3857,0,1,,1,1212.3859,1212.3859,1212.3864,1213.8819,0,18,18,18,1,0.8,0.2,0.6,0.4,1,0,,,,,,,,,,,,,,,,,,,,,,,,,,,,,,,,,,,,
,,6630ec3fa1752b4b2743c4cc,66fc98e9756f264e9ca11909,2024-10-01_21h52.09.193,mdp,2024.2.1,Win32,59.88023952,66fa4ebf79326e780c390304,,,,,,,,,,,,,,,,,,,,,1213.8824,1213.8824,1213.884,1214.4816,1,0,right,0.0721,,1214.4828,1214.4839,0,1,,1214.4851,1214.4858,0,0,,1,1214.4858,1214.4858,1214.4864,1215.9812,0,19,19,19,1,0.8,0.2,0.6,0.4,1,0,,,,,,,,,,,,,,,,,,,,,,,,,,,,,,,,,,,,
,,6630ec3fa1752b4b2743c4cc,66fc98e9756f264e9ca11909,2024-10-01_21h52.09.193,mdp,2024.2.1,Win32,59.88023952,66fa4ebf79326e780c390304,,,,,,,,,,,,,,,,,,,,,1215.9817,1215.9817,1215.9832,1216.5981,1,1,right,0.0835,,1216.5996,1216.6009,0,0,,1216.6018,1216.6024,0,1,,0,1216.6025,1216.6025,1216.6031,1218.0979,0,20,20,20,1,0.6,0.4,0.4,0.6,1,0,,,,,,,,,,,,,,,,,,,,,,,,,,,,,,,,,,,,
,,6630ec3fa1752b4b2743c4cc,66fc98e9756f264e9ca11909,2024-10-01_21h52.09.193,mdp,2024.2.1,Win32,59.88023952,66fa4ebf79326e780c390304,,,,,,,,,,,,,,,,,,,,,1218.0984,1218.0984,1218.0997,1218.6981,1,1,right,0.0683,,1218.6996,1218.7007,0,0,,1218.7015,1218.7021,0,1,,0,1218.7022,1218.7022,1218.7027,1220.1979,0,21,21,21,1,0.6,0.4,0.4,0.6,1,0,,,,,,,,,,,,,,,,,,,,,,,,,,,,,,,,,,,,
,,6630ec3fa1752b4b2743c4cc,66fc98e9756f264e9ca11909,2024-10-01_21h52.09.193,mdp,2024.2.1,Win32,59.88023952,66fa4ebf79326e780c390304,,,,,,,,,,,,,,,,,,,,,1220.1984,1220.1985,1220.2001,1220.7812,1,0,right,0.0592,,1220.7825,1220.7833,0,1,,1220.7845,1220.785,0,1,,1,1220.785,1220.785,1220.7856,1222.2811,0,22,22,22,1,0.6,0.4,0.4,0.6,1,0,,,,,,,,,,,,,,,,,,,,,,,,,,,,,,,,,,,,
,,6630ec3fa1752b4b2743c4cc,66fc98e9756f264e9ca11909,2024-10-01_21h52.09.193,mdp,2024.2.1,Win32,59.88023952,66fa4ebf79326e780c390304,,,,,,,,,,,,,,,,,,,,,1222.2817,1222.2817,1222.2834,1222.9143,1,1,right,0.1006,,1222.9157,1222.9166,0,0,,1222.9177,1222.9182,0,0,,0,1222.9183,1222.9183,1222.9188,1224.414,0,23,23,23,1,0.6,0.4,0.4,0.6,1,0,,,,,,,,,,,,,,,,,,,,,,,,,,,,,,,,,,,,
,,6630ec3fa1752b4b2743c4cc,66fc98e9756f264e9ca11909,2024-10-01_21h52.09.193,mdp,2024.2.1,Win32,59.88023952,66fa4ebf79326e780c390304,,,,,,,,,,,,,,,,,,,,,1224.4145,1224.4145,1224.4158,1225.0639,1,0,right,0.1207,,1225.0651,1225.0664,0,1,,1225.0677,1225.0682,0,1,,1,1225.0683,1225.0683,1225.0689,1226.5643,0,24,24,24,1,0.2,0.8,0.6,0.4,1,0,,,,,,,,,,,,,,,,,,,,,,,,,,,,,,,,,,,,
,,6630ec3fa1752b4b2743c4cc,66fc98e9756f264e9ca11909,2024-10-01_21h52.09.193,mdp,2024.2.1,Win32,59.88023952,66fa4ebf79326e780c390304,,,,,,,,,,,,,,,,,,,,,1226.5647,1226.5647,1226.5661,1227.1308,1,1,right,0.0352,,1227.1326,1227.1335,0,0,,1227.1347,1227.1353,0,0,,0,1227.1353,1227.1353,1227.1359,1228.6302,0,25,25,25,1,0.2,0.8,0.6,0.4,1,0,,,,,,,,,,,,,,,,,,,,,,,,,,,,,,,,,,,,
,,6630ec3fa1752b4b2743c4cc,66fc98e9756f264e9ca11909,2024-10-01_21h52.09.193,mdp,2024.2.1,Win32,59.88023952,66fa4ebf79326e780c390304,,,,,,,,,,,,,,,,,,,,,1228.6306,1228.6306,1228.632,1229.2306,1,0,right,0.068,,1229.2323,1229.233,0,1,,1229.234,1229.2347,0,0,,1,1229.2348,1229.2348,1229.2353,1230.7305,0,26,26,26,1,0.2,0.8,0.6,0.4,1,0,,,,,,,,,,,,,,,,,,,,,,,,,,,,,,,,,,,,
,,6630ec3fa1752b4b2743c4cc,66fc98e9756f264e9ca11909,2024-10-01_21h52.09.193,mdp,2024.2.1,Win32,59.88023952,66fa4ebf79326e780c390304,,,,,,,,,,,,,,,,,,,,,1230.7311,1230.7311,1230.7325,1231.3971,1,0,right,0.1341,,1231.3984,1231.3993,0,0,,1231.4004,1231.401,0,0,,1,1231.401,1231.401,1231.4016,1232.8972,0,27,27,27,1,0.2,0.8,0.6,0.4,1,0,,,,,,,,,,,,,,,,,,,,,,,,,,,,,,,,,,,,
,,6630ec3fa1752b4b2743c4cc,66fc98e9756f264e9ca11909,2024-10-01_21h52.09.193,mdp,2024.2.1,Win32,59.88023952,66fa4ebf79326e780c390304,,,,,,,,,,,,,,,,,,,,,1232.8976,1232.8976,1232.899,1233.6978,1,0,right,0.2682,,1233.6994,1233.7009,0,1,,1233.702,1233.703,0,0,,1,1233.703,1233.703,1233.7035,1235.1968,0,28,28,28,1,0.2,0.8,0.6,0.4,1,0,,,,,,,,,,,,,,,,,,,,,,,,,,,,,,,,,,,,
,,6630ec3fa1752b4b2743c4cc,66fc98e9756f264e9ca11909,2024-10-01_21h52.09.193,mdp,2024.2.1,Win32,59.88023952,66fa4ebf79326e780c390304,,,,,,,,,,,,,,,,,,,,,1235.1972,1235.1972,1235.1985,1235.8633,1,0,right,0.1339,,1235.8644,1235.8653,0,0,,1235.8662,1235.8671,0,0,,1,1235.8671,1235.8671,1235.8676,1237.3633,0,29,29,29,1,0.2,0.8,0.6,0.4,1,0,,,,,,,,,,,,,,,,,,,,,,,,,,,,,,,,,,,,
,,6630ec3fa1752b4b2743c4cc,66fc98e9756f264e9ca11909,2024-10-01_21h52.09.193,mdp,2024.2.1,Win32,59.88023952,66fa4ebf79326e780c390304,,,,,,,,,,,,,,,,,,,,,1237.3638,1237.3638,1237.3651,1237.9302,1,0,right,0.0343,,1237.9316,1237.9325,0,1,,1237.9339,1237.9346,0,0,,1,1237.9346,1237.9346,1237.9352,1239.4297,0,30,30,30,1,0.6,0.4,0.4,0.6,1,0,,,,,,,,,,,,,,,,,,,,,,,,,,,,,,,,,,,,
,,6630ec3fa1752b4b2743c4cc,66fc98e9756f264e9ca11909,2024-10-01_21h52.09.193,mdp,2024.2.1,Win32,59.88023952,66fa4ebf79326e780c390304,,,,,,,,,,,,,,,,,,,,,1239.4302,1239.4302,1239.4315,1239.9798,1,1,right,0.0259,,1239.9813,1239.9824,0,1,,1239.9837,1239.9843,0,0,,0,1239.9843,1239.9843,1239.9849,1241.4793,0,31,31,31,1,0.6,0.4,0.4,0.6,1,0,,,,,,,,,,,,,,,,,,,,,,,,,,,,,,,,,,,,
,,6630ec3fa1752b4b2743c4cc,66fc98e9756f264e9ca11909,2024-10-01_21h52.09.193,mdp,2024.2.1,Win32,59.88023952,66fa4ebf79326e780c390304,,,,,,,,,,,,,,,,,,,,,1241.4795,1241.4795,1241.4801,1242.2966,1,0,right,0.3071,,1242.2981,1242.2994,0,1,,1242.3002,1242.3007,0,1,,1,1242.3007,1242.3007,1242.3014,1243.7962,0,32,32,32,1,0.6,0.4,0.4,0.6,1,0,,,,,,,,,,,,,,,,,,,,,,,,,,,,,,,,,,,,
,,6630ec3fa1752b4b2743c4cc,66fc98e9756f264e9ca11909,2024-10-01_21h52.09.193,mdp,2024.2.1,Win32,59.88023952,66fa4ebf79326e780c390304,,,,,,,,,,,,,,,,,,,,,1243.7966,1243.7966,1243.7978,1244.3464,1,1,right,0.0161,,1244.3477,1244.3488,0,1,,1244.3496,1244.3501,0,0,,0,1244.3502,1244.3502,1244.3506,1245.8461,0,33,33,33,1,0.6,0.4,0.4,0.6,1,0,,,,,,,,,,,,,,,,,,,,,,,,,,,,,,,,,,,,
,,6630ec3fa1752b4b2743c4cc,66fc98e9756f264e9ca11909,2024-10-01_21h52.09.193,mdp,2024.2.1,Win32,59.88023952,66fa4ebf79326e780c390304,,,,,,,,,,,,,,,,,,,,,1245.8466,1245.8466,1245.8482,1246.3796,1,1,right,0.0049,,1246.3811,1246.3824,0,0,,1246.3832,1246.3837,0,1,,0,1246.3838,1246.3838,1246.3844,1247.8793,0,34,34,34,1,0.6,0.4,0.4,0.6,1,0,,,,,,,,,,,,,,,,,,,,,,,,,,,,,,,,,,,,
,,6630ec3fa1752b4b2743c4cc,66fc98e9756f264e9ca11909,2024-10-01_21h52.09.193,mdp,2024.2.1,Win32,59.88023952,66fa4ebf79326e780c390304,,,,,,,,,,,,,,,,,,,,,1247.8798,1247.8798,1247.8813,1248.4292,1,1,right,0.0237,,1248.4299,1248.4305,0,1,,1248.4312,1248.4317,0,0,,0,1248.4317,1248.4317,1248.432,1249.9293,0,35,35,35,1,0.6,0.4,0.4,0.6,1,0,,,,,,,,,,,,,,,,,,,,,,,,,,,,,,,,,,,,
,,6630ec3fa1752b4b2743c4cc,66fc98e9756f264e9ca11909,2024-10-01_21h52.09.193,mdp,2024.2.1,Win32,59.88023952,66fa4ebf79326e780c390304,,,,,,,,,,,,,,,,,,,,,1249.9297,1249.9297,1249.9312,1250.5795,1,1,right,0.1223,,1250.5808,1250.5818,0,0,,1250.5827,1250.5834,0,1,,0,1250.5834,1250.5834,1250.584,1252.0792,0,36,36,36,1,0.6,0.4,0.4,0.6,1,0,,,,,,,,,,,,,,,,,,,,,,,,,,,,,,,,,,,,
,,6630ec3fa1752b4b2743c4cc,66fc98e9756f264e9ca11909,2024-10-01_21h52.09.193,mdp,2024.2.1,Win32,59.88023952,66fa4ebf79326e780c390304,,,,,,,,,,,,,,,,,,,,,1252.08,1252.08,1252.0817,1252.6961,1,0,right,0.0841,,1252.6975,1252.6984,0,1,,1252.6995,1252.7,0,0,,1,1252.7,1252.7,1252.7006,1254.1958,0,37,37,37,1,0.6,0.4,0.4,0.6,1,0,,,,,,,,,,,,,,,,,,,,,,,,,,,,,,,,,,,,
,,6630ec3fa1752b4b2743c4cc,66fc98e9756f264e9ca11909,2024-10-01_21h52.09.193,mdp,2024.2.1,Win32,59.88023952,66fa4ebf79326e780c390304,,,,,,,,,,,,,,,,,,,,,1254.1963,1254.1963,1254.1978,1254.8791,1,0,right,0.1504,,1254.8804,1254.8815,0,0,,1254.8827,1254.8834,0,1,,1,1254.8834,1254.8834,1254.8839,1256.3788,0,38,38,38,1,0.6,0.4,0.4,0.6,1,0,,,,,,,,,,,,,,,,,,,,,,,,,,,,,,,,,,,,
,,6630ec3fa1752b4b2743c4cc,66fc98e9756f264e9ca11909,2024-10-01_21h52.09.193,mdp,2024.2.1,Win32,59.88023952,66fa4ebf79326e780c390304,,,,,,,,,,,,,,,,,,,,,1256.3792,1256.3792,1256.3802,1256.9451,1,0,right,0.034,,1256.9458,1256.9464,0,1,,1256.9473,1256.9477,0,0,,1,1256.9477,1256.9477,1256.9479,1258.4449,0,39,39,39,1,0.6,0.4,0.4,0.6,1,0,,,,,,,,,,,,,,,,,,,,,,,,,,,,,,,,,,,,
,,6630ec3fa1752b4b2743c4cc,66fc98e9756f264e9ca11909,2024-10-01_21h52.09.193,mdp,2024.2.1,Win32,59.88023952,66fa4ebf79326e780c390304,,,,,,,,,,,,,,,,,,,,,1258.4452,1258.4452,1258.4462,1259.0283,1,0,right,0.0592,,1259.029,1259.0298,0,1,,1259.0307,1259.0311,0,0,,1,1259.0311,1259.0311,1259.0314,1260.5283,0,40,40,40,1,0.4,0.6,0.8,0.2,1,0,,,,,,,,,,,,,,,,,,,,,,,,,,,,,,,,,,,,
