init_exp.started,init_exp.stopped,participant,session,date,expName,psychopyVersion,OS,frameRate,study_id,disp_instruction.started,disp_instruction.stopped,instruction.thisRepN,instruction.thisTrialN,instruction.thisN,instruction.thisIndex,instruction.ran,instimg_path,consent.started,consent.stopped,key_resp_3.keys,key_resp_3.rt,key_resp_3.duration,n_steps,sequence_path,init_block.started,init_block.stopped,key_resp.keys,key_resp.rt,key_resp.duration,init_trials.started,init_trials.stopped,step0.started,step0.stopped,act0,s1,res0.keys,res0.rt,res0.duration,step1.started,step1.stopped,act1,s2,res1.keys,step2.started,step2.stopped,act2,s3,res2.keys,rew,reward_comp.started,reward_comp.stopped,reward_disp.started,reward_disp.stopped,trials.thisRepN,trials.thisTrialN,trials.thisN,trials.thisIndex,trials.ran,s00a0s10,s00a0s11,s00a1s10,s00a1s11,rew10,rew11,break_block.started,break_block.stopped,block.thisRepN,block.thisTrialN,block.thisN,block.thisIndex,block.ran,s00path,s10path,s11path,s20path,s21path,res1.rt,res1.duration,s10a0s20,s10a0s21,s10a1s20,s10a1s21,s11a0s20,s11a0s21,s11a1s20,s11a1s21,rew20,rew21,res2.rt,res2.duration,s20a0s30,s20a0s31,s20a1s30,s20a1s31,s21a0s30,s21a0s31,s21a1s30,s21a1s31,rew30,rew31
0.0002,0.0012,66378dbfb9c884b35b7c3c09,66fc997acf04201ab0491d45,2024-10-02_10h56.34.511,mdp,2024.2.1,MacIntel,29.94011976,66fa4ebf79326e780c390304,,,,,,,,,,,,,,,,,,,,,,,,,,,,,,,,,,,,,,,,,,,,,,,,,,,,,,,,,,,,,,,,,,,,,,,,,,,,,,,,,,,,,,,,,,,
,,66378dbfb9c884b35b7c3c09,66fc997acf04201ab0491d45,2024-10-02_10h56.34.511,mdp,2024.2.1,MacIntel,29.94011976,66fa4ebf79326e780c390304,0.0042,23.8698,0,0,0,0,1,rlnn_exp/rlnn_exp.001.png,,,,,,,,,,,,,,,,,,,,,,,,,,,,,,,,,,,,,,,,,,,,,,,,,,,,,,,,,,,,,,,,,,,,,,,,,,,,,,,,,,,
,,66378dbfb9c884b35b7c3c09,66fc997acf04201ab0491d45,2024-10-02_10h56.34.511,mdp,2024.2.1,MacIntel,29.94011976,66fa4ebf79326e780c390304,23.8702,34.8635,0,1,1,1,1,rlnn_exp/rlnn_exp.002.png,,,,,,,,,,,,,,,,,,,,,,,,,,,,,,,,,,,,,,,,,,,,,,,,,,,,,,,,,,,,,,,,,,,,,,,,,,,,,,,,,,,
,,66378dbfb9c884b35b7c3c09,66fc997acf04201ab0491d45,2024-10-02_10h56.34.511,mdp,2024.2.1,MacIntel,29.94011976,66fa4ebf79326e780c390304,34.8711,48.3302,0,2,2,2,1,rlnn_exp/rlnn_exp.003.png,,,,,,,,,,,,,,,,,,,,,,,,,,,,,,,,,,,,,,,,,,,,,,,,,,,,,,,,,,,,,,,,,,,,,,,,,,,,,,,,,,,
,,66378dbfb9c884b35b7c3c09,66fc997acf04201ab0491d45,2024-10-02_10h56.34.511,mdp,2024.2.1,MacIntel,29.94011976,66fa4ebf79326e780c390304,48.3372,60.8628,0,3,3,3,1,rlnn_exp/rlnn_exp.004.png,,,,,,,,,,,,,,,,,,,,,,,,,,,,,,,,,,,,,,,,,,,,,,,,,,,,,,,,,,,,,,,,,,,,,,,,,,,,,,,,,,,
,,66378dbfb9c884b35b7c3c09,66fc997acf04201ab0491d45,2024-10-02_10h56.34.511,mdp,2024.2.1,MacIntel,29.94011976,66fa4ebf79326e780c390304,,,,,,,,,60.8697,72.863,y,1.9581,,,,,,,,,,,,,,,,,,,,,,,,,,,,,,,,,,,,,,,,,,,,,,,,,,,,,,,,,,,,,,,,,,,,,,,,,,,,,,,
,,66378dbfb9c884b35b7c3c09,66fc997acf04201ab0491d45,2024-10-02_10h56.34.511,mdp,2024.2.1,MacIntel,29.94011976,66fa4ebf79326e780c390304,,,,,,,,,,,,,,1,seqs/st1seq27.csv,72.8715,76.3631,space,2.9548,,76.3712,76.3713,76.3714,78.6298,1,1,right,1.7242,,78.63,78.6307,,1,,78.6309,78.6314,,0,,0,78.6314,78.6314,78.6316,80.1307,0,0,0,0,1,0.6,0.4,0.4,0.6,1,0,,,,,,,,,,,,,,,,,,,,,,,,,,,,,,,,,,,,
,,66378dbfb9c884b35b7c3c09,66fc997acf04201ab0491d45,2024-10-02_10h56.34.511,mdp,2024.2.1,MacIntel,29.94011976,66fa4ebf79326e780c390304,,,,,,,,,,,,,,,,,,,,,80.1309,80.1309,80.1313,81.6963,0,0,left,1.0243,,81.6968,81.6972,,0,,81.6975,81.6977,,0,,1,81.6977,81.6977,81.6978,83.1967,0,1,1,1,1,0.6,0.4,0.4,0.6,1,0,,,,,,,,,,,,,,,,,,,,,,,,,,,,,,,,,,,,
,,66378dbfb9c884b35b7c3c09,66fc997acf04201ab0491d45,2024-10-02_10h56.34.511,mdp,2024.2.1,MacIntel,29.94011976,66fa4ebf79326e780c390304,,,,,,,,,,,,,,,,,,,,,83.1968,83.1969,83.1973,84.7297,0,1,left,1.0251,,84.7302,84.7304,,1,,84.7307,84.7309,,0,,0,84.7309,84.7309,84.731,86.2306,0,2,2,2,1,0.6,0.4,0.4,0.6,1,0,,,,,,,,,,,,,,,,,,,,,,,,,,,,,,,,,,,,
,,66378dbfb9c884b35b7c3c09,66fc997acf04201ab0491d45,2024-10-02_10h56.34.511,mdp,2024.2.1,MacIntel,29.94011976,66fa4ebf79326e780c390304,,,,,,,,,,,,,,,,,,,,,86.2308,86.2308,86.2313,87.5307,1,1,right,0.7572,,87.5312,87.5314,,0,,87.5318,87.5319,,1,,0,87.5319,87.5319,87.532,89.0307,0,3,3,3,1,0.6,0.4,0.4,0.6,1,0,,,,,,,,,,,,,,,,,,,,,,,,,,,,,,,,,,,,
,,66378dbfb9c884b35b7c3c09,66fc997acf04201ab0491d45,2024-10-02_10h56.34.511,mdp,2024.2.1,MacIntel,29.94011976,66fa4ebf79326e780c390304,,,,,,,,,,,,,,,,,,,,,89.0308,89.0309,89.0312,90.0974,0,1,left,0.5213,,90.0979,90.0981,,0,,90.0984,90.0985,,1,,0,90.0985,90.0985,90.0987,91.5964,0,4,4,4,1,0.6,0.4,0.4,0.6,1,0,,,,,,,,,,,,,,,,,,,,,,,,,,,,,,,,,,,,
,,66378dbfb9c884b35b7c3c09,66fc997acf04201ab0491d45,2024-10-02_10h56.34.511,mdp,2024.2.1,MacIntel,29.94011976,66fa4ebf79326e780c390304,,,,,,,,,,,,,,,,,,,,,91.5966,91.5966,91.5971,92.7974,1,1,right,0.6558,,92.7979,92.7981,,0,,92.7983,92.7985,,1,,0,92.7985,92.7985,92.7986,94.2973,0,5,5,5,1,0.2,0.8,0.6,0.4,1,0,,,,,,,,,,,,,,,,,,,,,,,,,,,,,,,,,,,,
,,66378dbfb9c884b35b7c3c09,66fc997acf04201ab0491d45,2024-10-02_10h56.34.511,mdp,2024.2.1,MacIntel,29.94011976,66fa4ebf79326e780c390304,,,,,,,,,,,,,,,,,,,,,94.2975,94.2975,94.298,95.5308,0,0,left,0.6891,,95.5312,95.5315,,0,,95.5318,95.5319,,0,,1,95.5319,95.5319,95.5321,97.0308,0,6,6,6,1,0.8,0.2,0.2,0.8,1,0,,,,,,,,,,,,,,,,,,,,,,,,,,,,,,,,,,,,
,,66378dbfb9c884b35b7c3c09,66fc997acf04201ab0491d45,2024-10-02_10h56.34.511,mdp,2024.2.1,MacIntel,29.94011976,66fa4ebf79326e780c390304,,,,,,,,,,,,,,,,,,,,,97.0309,97.0309,97.0313,99.4975,1,1,right,1.9223,,99.498,99.4982,,1,,99.4984,99.4985,,1,,0,99.4986,99.4986,99.4987,100.9975,0,7,7,7,1,0.8,0.2,0.2,0.8,1,0,,,,,,,,,,,,,,,,,,,,,,,,,,,,,,,,,,,,
,,66378dbfb9c884b35b7c3c09,66fc997acf04201ab0491d45,2024-10-02_10h56.34.511,mdp,2024.2.1,MacIntel,29.94011976,66fa4ebf79326e780c390304,,,,,,,,,,,,,,,,,,,,,100.9975,100.9976,100.9979,102.0642,0,0,left,0.5224,,102.0646,102.0649,,0,,102.065,102.0652,,0,,1,102.0652,102.0652,102.0654,103.5642,0,8,8,8,1,0.8,0.2,0.2,0.8,1,0,,,,,,,,,,,,,,,,,,,,,,,,,,,,,,,,,,,,
,,66378dbfb9c884b35b7c3c09,66fc997acf04201ab0491d45,2024-10-02_10h56.34.511,mdp,2024.2.1,MacIntel,29.94011976,66fa4ebf79326e780c390304,,,,,,,,,,,,,,,,,,,,,103.5643,103.5643,103.5647,105.0642,0,0,left,0.9558,,105.0646,105.0649,,0,,105.0651,105.0652,,0,,1,105.0653,105.0653,105.0654,106.5642,0,9,9,9,1,0.8,0.2,0.2,0.8,1,0,,,,,,,,,,,,,,,,,,,,,,,,,,,,,,,,,,,,
,,66378dbfb9c884b35b7c3c09,66fc997acf04201ab0491d45,2024-10-02_10h56.34.511,mdp,2024.2.1,MacIntel,29.94011976,66fa4ebf79326e780c390304,,,,,,,,,,,,,,,,,,,,,106.5643,106.5643,106.5648,108.0967,0,0,left,0.9891,,108.0972,108.0974,,0,,108.0976,108.0977,,1,,1,108.0977,108.0977,108.0979,109.5976,0,10,10,10,1,0.8,0.2,0.2,0.8,1,0,,,,,,,,,,,,,,,,,,,,,,,,,,,,,,,,,,,,
,,66378dbfb9c884b35b7c3c09,66fc997acf04201ab0491d45,2024-10-02_10h56.34.511,mdp,2024.2.1,MacIntel,29.94011976,66fa4ebf79326e780c390304,,,,,,,,,,,,,,,,,,,,,109.5977,109.5977,109.5981,110.8976,0,1,left,0.7548,,110.898,110.8984,,0,,110.8985,110.8987,,0,,0,110.8987,110.8987,110.8989,112.3966,0,11,11,11,1,0.6,0.4,0.6,0.4,1,0,,,,,,,,,,,,,,,,,,,,,,,,,,,,,,,,,,,,
,,66378dbfb9c884b35b7c3c09,66fc997acf04201ab0491d45,2024-10-02_10h56.34.511,mdp,2024.2.1,MacIntel,29.94011976,66fa4ebf79326e780c390304,,,,,,,,,,,,,,,,,,,,,112.3968,112.3968,112.3972,114.2976,0,0,left,1.3567,,114.2981,114.2984,,0,,114.2987,114.2988,,1,,1,114.2988,114.2988,114.2989,115.7976,0,12,12,12,1,0.6,0.4,0.6,0.4,1,0,,,,,,,,,,,,,,,,,,,,,,,,,,,,,,,,,,,,
,,66378dbfb9c884b35b7c3c09,66fc997acf04201ab0491d45,2024-10-02_10h56.34.511,mdp,2024.2.1,MacIntel,29.94011976,66fa4ebf79326e780c390304,,,,,,,,,,,,,,,,,,,,,115.7977,115.7978,115.7981,116.8643,1,0,right,0.5225,,116.8648,116.8651,,1,,116.8652,116.8654,,1,,1,116.8654,116.8654,116.8655,118.3642,0,13,13,13,1,0.6,0.4,0.6,0.4,1,0,,,,,,,,,,,,,,,,,,,,,,,,,,,,,,,,,,,,
,,66378dbfb9c884b35b7c3c09,66fc997acf04201ab0491d45,2024-10-02_10h56.34.511,mdp,2024.2.1,MacIntel,29.94011976,66fa4ebf79326e780c390304,,,,,,,,,,,,,,,,,,,,,118.3645,118.3645,118.3648,119.2977,1,0,right,0.3891,,119.2981,119.2984,,0,,119.2985,119.2987,,1,,1,119.2987,119.2987,119.2988,120.7977,0,14,14,14,1,0.8,0.2,0.8,0.2,1,0,,,,,,,,,,,,,,,,,,,,,,,,,,,,,,,,,,,,
,,66378dbfb9c884b35b7c3c09,66fc997acf04201ab0491d45,2024-10-02_10h56.34.511,mdp,2024.2.1,MacIntel,29.94011976,66fa4ebf79326e780c390304,,,,,,,,,,,,,,,,,,,,,120.7978,120.7978,120.7982,121.7977,0,1,left,0.4557,,121.7982,121.7984,,0,,121.7987,121.7988,,0,,0,121.7988,121.7988,121.799,123.2977,0,15,15,15,1,0.8,0.2,0.8,0.2,1,0,,,,,,,,,,,,,,,,,,,,,,,,,,,,,,,,,,,,
,,66378dbfb9c884b35b7c3c09,66fc997acf04201ab0491d45,2024-10-02_10h56.34.511,mdp,2024.2.1,MacIntel,29.94011976,66fa4ebf79326e780c390304,,,,,,,,,,,,,,,,,,,,,123.2979,123.2979,123.2982,124.4311,1,1,right,0.5918,,124.4315,124.4318,,1,,124.4319,124.4321,,1,,0,124.4321,124.4321,124.4323,125.931,0,16,16,16,1,0.8,0.2,0.8,0.2,1,0,,,,,,,,,,,,,,,,,,,,,,,,,,,,,,,,,,,,
,,66378dbfb9c884b35b7c3c09,66fc997acf04201ab0491d45,2024-10-02_10h56.34.511,mdp,2024.2.1,MacIntel,29.94011976,66fa4ebf79326e780c390304,,,,,,,,,,,,,,,,,,,,,125.9312,125.9312,125.9317,126.8311,1,0,right,0.3643,,126.8316,126.8318,,0,,126.832,126.8322,,1,,1,126.8322,126.8322,126.8324,128.33,0,17,17,17,1,0.8,0.2,0.8,0.2,1,0,,,,,,,,,,,,,,,,,,,,,,,,,,,,,,,,,,,,
,,66378dbfb9c884b35b7c3c09,66fc997acf04201ab0491d45,2024-10-02_10h56.34.511,mdp,2024.2.1,MacIntel,29.94011976,66fa4ebf79326e780c390304,,,,,,,,,,,,,,,,,,,,,128.3302,128.3302,128.3306,129.1978,1,0,right,0.3659,,129.1983,129.1985,,0,,129.1987,129.1989,,0,,1,129.1989,129.1989,129.1991,130.6977,0,18,18,18,1,0.8,0.2,0.8,0.2,1,0,,,,,,,,,,,,,,,,,,,,,,,,,,,,,,,,,,,,
,,66378dbfb9c884b35b7c3c09,66fc997acf04201ab0491d45,2024-10-02_10h56.34.511,mdp,2024.2.1,MacIntel,29.94011976,66fa4ebf79326e780c390304,,,,,,,,,,,,,,,,,,,,,130.6979,130.6979,130.6982,131.9636,0,0,left,0.7225,,131.9641,131.9643,,1,,131.9644,131.9646,,0,,1,131.9646,131.9646,131.9648,133.4644,0,19,19,19,1,0.8,0.2,0.8,0.2,1,0,,,,,,,,,,,,,,,,,,,,,,,,,,,,,,,,,,,,
,,66378dbfb9c884b35b7c3c09,66fc997acf04201ab0491d45,2024-10-02_10h56.34.511,mdp,2024.2.1,MacIntel,29.94011976,66fa4ebf79326e780c390304,,,,,,,,,,,,,,,,,,,,,133.4646,133.4646,133.465,134.5645,1,1,right,0.5567,,134.5649,134.5652,,1,,134.5654,134.5655,,0,,0,134.5656,134.5656,134.5657,136.069,0,20,20,20,1,0.2,0.8,0.6,0.4,1,0,,,,,,,,,,,,,,,,,,,,,,,,,,,,,,,,,,,,
,,66378dbfb9c884b35b7c3c09,66fc997acf04201ab0491d45,2024-10-02_10h56.34.511,mdp,2024.2.1,MacIntel,29.94011976,66fa4ebf79326e780c390304,,,,,,,,,,,,,,,,,,,,,136.0693,136.0693,136.07,137.1312,0,1,left,0.5224,,137.1317,137.1319,,1,,137.1321,137.1322,,1,,0,137.1323,137.1323,137.1324,138.6302,0,21,21,21,1,0.2,0.8,0.6,0.4,1,0,,,,,,,,,,,,,,,,,,,,,,,,,,,,,,,,,,,,
,,66378dbfb9c884b35b7c3c09,66fc997acf04201ab0491d45,2024-10-02_10h56.34.511,mdp,2024.2.1,MacIntel,29.94011976,66fa4ebf79326e780c390304,,,,,,,,,,,,,,,,,,,,,138.6303,138.6303,138.6306,139.4979,0,1,left,0.3558,,139.4983,139.4986,,1,,139.4987,139.4989,,1,,0,139.4989,139.4989,139.499,140.9979,0,22,22,22,1,0.2,0.8,0.6,0.4,1,0,,,,,,,,,,,,,,,,,,,,,,,,,,,,,,,,,,,,
,,66378dbfb9c884b35b7c3c09,66fc997acf04201ab0491d45,2024-10-02_10h56.34.511,mdp,2024.2.1,MacIntel,29.94011976,66fa4ebf79326e780c390304,,,,,,,,,,,,,,,,,,,,,140.998,140.998,140.9984,141.9979,0,0,left,0.4549,,141.9984,141.9987,,1,,141.9989,141.999,,1,,1,141.999,141.999,141.9992,143.4979,0,23,23,23,1,0.2,0.8,0.6,0.4,1,0,,,,,,,,,,,,,,,,,,,,,,,,,,,,,,,,,,,,
,,66378dbfb9c884b35b7c3c09,66fc997acf04201ab0491d45,2024-10-02_10h56.34.511,mdp,2024.2.1,MacIntel,29.94011976,66fa4ebf79326e780c390304,,,,,,,,,,,,,,,,,,,,,143.498,143.498,143.4984,144.6313,0,1,left,0.589,,144.6318,144.632,,1,,144.6322,144.6323,,1,,0,144.6323,144.6324,144.6325,146.1303,0,24,24,24,1,0.2,0.8,0.6,0.4,1,0,,,,,,,,,,,,,,,,,,,,,,,,,,,,,,,,,,,,
,,66378dbfb9c884b35b7c3c09,66fc997acf04201ab0491d45,2024-10-02_10h56.34.511,mdp,2024.2.1,MacIntel,29.94011976,66fa4ebf79326e780c390304,,,,,,,,,,,,,,,,,,,,,146.1305,146.1305,146.1309,146.9313,0,1,left,0.2987,,146.9317,146.932,,0,,146.9321,146.9323,,0,,0,146.9324,146.9324,146.9325,148.4312,0,25,25,25,1,0.2,0.8,0.6,0.4,1,0,,,,,,,,,,,,,,,,,,,,,,,,,,,,,,,,,,,,
,,66378dbfb9c884b35b7c3c09,66fc997acf04201ab0491d45,2024-10-02_10h56.34.511,mdp,2024.2.1,MacIntel,29.94011976,66fa4ebf79326e780c390304,,,,,,,,,,,,,,,,,,,,,148.4315,148.4315,148.4318,149.6303,1,0,right,0.6549,,149.6308,149.631,,1,,149.6312,149.6314,,1,,1,149.6314,149.6314,149.6316,151.1313,0,26,26,26,1,0.6,0.4,0.4,0.6,1,0,,,,,,,,,,,,,,,,,,,,,,,,,,,,,,,,,,,,
,,66378dbfb9c884b35b7c3c09,66fc997acf04201ab0491d45,2024-10-02_10h56.34.511,mdp,2024.2.1,MacIntel,29.94011976,66fa4ebf79326e780c390304,,,,,,,,,,,,,,,,,,,,,151.1315,151.1315,151.1319,152.1313,1,0,right,0.4558,,152.1318,152.1321,,1,,152.1322,152.1324,,0,,1,152.1324,152.1324,152.1326,153.6313,0,27,27,27,1,0.6,0.4,0.4,0.6,1,0,,,,,,,,,,,,,,,,,,,,,,,,,,,,,,,,,,,,
,,66378dbfb9c884b35b7c3c09,66fc997acf04201ab0491d45,2024-10-02_10h56.34.511,mdp,2024.2.1,MacIntel,29.94011976,66fa4ebf79326e780c390304,,,,,,,,,,,,,,,,,,,,,153.6314,153.6314,153.6318,154.1981,1,0,right,0.0225,,154.1985,154.1987,,0,,154.1989,154.199,,1,,1,154.199,154.199,154.1992,155.698,0,28,28,28,1,0.6,0.4,0.4,0.6,1,0,,,,,,,,,,,,,,,,,,,,,,,,,,,,,,,,,,,,
,,66378dbfb9c884b35b7c3c09,66fc997acf04201ab0491d45,2024-10-02_10h56.34.511,mdp,2024.2.1,MacIntel,29.94011976,66fa4ebf79326e780c390304,,,,,,,,,,,,,,,,,,,,,155.6982,155.6982,155.6986,156.2981,0,0,left,0.0558,,156.2985,156.2987,,0,,156.2989,156.299,,1,,1,156.299,156.299,156.2992,157.798,0,29,29,29,1,0.4,0.6,0.6,0.4,1,0,,,,,,,,,,,,,,,,,,,,,,,,,,,,,,,,,,,,
,,66378dbfb9c884b35b7c3c09,66fc997acf04201ab0491d45,2024-10-02_10h56.34.511,mdp,2024.2.1,MacIntel,29.94011976,66fa4ebf79326e780c390304,,,,,,,,,,,,,,,,,,,,,157.7982,157.7982,157.7985,158.4982,1,0,right,0.1547,,158.4986,158.4989,,0,,158.4991,158.4993,,0,,1,158.4993,158.4993,158.4994,159.998,0,30,30,30,1,0.4,0.6,0.6,0.4,1,0,,,,,,,,,,,,,,,,,,,,,,,,,,,,,,,,,,,,
,,66378dbfb9c884b35b7c3c09,66fc997acf04201ab0491d45,2024-10-02_10h56.34.511,mdp,2024.2.1,MacIntel,29.94011976,66fa4ebf79326e780c390304,,,,,,,,,,,,,,,,,,,,,159.9982,159.9982,159.9986,160.8646,0,0,left,0.3224,,160.8651,160.8653,,1,,160.8655,160.8656,,0,,1,160.8656,160.8656,160.8658,162.3638,0,31,31,31,1,0.4,0.6,0.6,0.4,1,0,,,,,,,,,,,,,,,,,,,,,,,,,,,,,,,,,,,,
,,66378dbfb9c884b35b7c3c09,66fc997acf04201ab0491d45,2024-10-02_10h56.34.511,mdp,2024.2.1,MacIntel,29.94011976,66fa4ebf79326e780c390304,,,,,,,,,,,,,,,,,,,,,162.3639,162.3639,162.3642,163.2971,1,0,right,0.4225,,163.2975,163.2978,,1,,163.2979,163.2981,,0,,1,163.2981,163.2981,163.2982,164.7971,0,32,32,32,1,0.8,0.2,0.8,0.2,1,0,,,,,,,,,,,,,,,,,,,,,,,,,,,,,,,,,,,,
,,66378dbfb9c884b35b7c3c09,66fc997acf04201ab0491d45,2024-10-02_10h56.34.511,mdp,2024.2.1,MacIntel,29.94011976,66fa4ebf79326e780c390304,,,,,,,,,,,,,,,,,,,,,164.7972,164.7973,164.7977,165.6648,0,0,left,0.3558,,165.6652,165.6655,,0,,165.6656,165.6658,,0,,1,165.6658,165.6658,165.6659,167.1648,0,33,33,33,1,0.8,0.2,0.8,0.2,1,0,,,,,,,,,,,,,,,,,,,,,,,,,,,,,,,,,,,,
,,66378dbfb9c884b35b7c3c09,66fc997acf04201ab0491d45,2024-10-02_10h56.34.511,mdp,2024.2.1,MacIntel,29.94011976,66fa4ebf79326e780c390304,,,,,,,,,,,,,,,,,,,,,167.165,167.165,167.1654,168.0648,0,0,left,0.357,,168.0654,168.0656,,1,,168.0658,168.0659,,0,,1,168.066,168.066,168.0661,169.5648,0,34,34,34,1,0.6,0.4,0.2,0.8,1,0,,,,,,,,,,,,,,,,,,,,,,,,,,,,,,,,,,,,
,,66378dbfb9c884b35b7c3c09,66fc997acf04201ab0491d45,2024-10-02_10h56.34.511,mdp,2024.2.1,MacIntel,29.94011976,66fa4ebf79326e780c390304,,,,,,,,,,,,,,,,,,,,,169.5649,169.5649,169.5654,170.4648,1,1,right,0.3651,,170.4653,170.4656,,1,,170.4658,170.466,,1,,0,170.466,170.466,170.4661,171.9648,0,35,35,35,1,0.6,0.4,0.2,0.8,1,0,,,,,,,,,,,,,,,,,,,,,,,,,,,,,,,,,,,,
,,66378dbfb9c884b35b7c3c09,66fc997acf04201ab0491d45,2024-10-02_10h56.34.511,mdp,2024.2.1,MacIntel,29.94011976,66fa4ebf79326e780c390304,,,,,,,,,,,,,,,,,,,,,171.965,171.965,171.9653,176.0315,0,1,left,3.5224,,176.032,176.0323,,0,,176.0325,176.0326,,1,,0,176.0326,176.0326,176.0327,177.5316,0,36,36,36,1,0.6,0.4,0.2,0.8,1,0,,,,,,,,,,,,,,,,,,,,,,,,,,,,,,,,,,,,
,,66378dbfb9c884b35b7c3c09,66fc997acf04201ab0491d45,2024-10-02_10h56.34.511,mdp,2024.2.1,MacIntel,29.94011976,66fa4ebf79326e780c390304,,,,,,,,,,,,,,,,,,,,,177.5317,177.5317,177.532,178.3973,0,1,left,0.3223,,178.3978,178.398,,0,,178.3981,178.3983,,0,,0,178.3983,178.3983,178.3985,179.8983,0,37,37,37,1,0.6,0.4,0.2,0.8,1,0,,,,,,,,,,,,,,,,,,,,,,,,,,,,,,,,,,,,
,,66378dbfb9c884b35b7c3c09,66fc997acf04201ab0491d45,2024-10-02_10h56.34.511,mdp,2024.2.1,MacIntel,29.94011976,66fa4ebf79326e780c390304,,,,,,,,,,,,,,,,,,,,,179.8984,179.8984,179.8987,180.9983,1,0,right,0.5558,,180.9987,180.999,,0,,180.9991,180.9993,,0,,1,180.9993,180.9993,180.9995,182.4983,0,38,38,38,1,0.8,0.2,0.6,0.4,1,0,,,,,,,,,,,,,,,,,,,,,,,,,,,,,,,,,,,,
,,66378dbfb9c884b35b7c3c09,66fc997acf04201ab0491d45,2024-10-02_10h56.34.511,mdp,2024.2.1,MacIntel,29.94011976,66fa4ebf79326e780c390304,,,,,,,,,,,,,,,,,,,,,182.4984,182.4984,182.4989,183.4983,1,1,right,0.4577,,183.4988,183.499,,0,,183.4992,183.4995,,0,,0,183.4995,183.4995,183.4998,184.9983,0,39,39,39,1,0.6,0.4,0.4,0.6,1,0,,,,,,,,,,,,,,,,,,,,,,,,,,,,,,,,,,,,
,,66378dbfb9c884b35b7c3c09,66fc997acf04201ab0491d45,2024-10-02_10h56.34.511,mdp,2024.2.1,MacIntel,29.94011976,66fa4ebf79326e780c390304,,,,,,,,,,,,,,,,,,,,,184.9985,184.9985,184.9991,185.765,1,1,right,0.2241,,185.7654,185.7657,,1,,185.7658,185.7659,,1,,0,185.766,185.766,185.7661,187.265,0,40,40,40,1,0.4,0.6,0.6,0.4,1,0,,,,,,,,,,,,,,,,,,,,,,,,,,,,,,,,,,,,
,,66378dbfb9c884b35b7c3c09,66fc997acf04201ab0491d45,2024-10-02_10h56.34.511,mdp,2024.2.1,MacIntel,29.94011976,66fa4ebf79326e780c390304,,,,,,,,,,,,,,,,,,,,,187.2652,187.2652,187.2655,189.1984,1,0,right,1.3892,,189.1988,189.1991,,1,,189.1992,189.1994,,0,,1,189.1994,189.1994,189.1995,190.6984,0,41,41,41,1,0.4,0.6,0.6,0.4,1,0,,,,,,,,,,,,,,,,,,,,,,,,,,,,,,,,,,,,
,,66378dbfb9c884b35b7c3c09,66fc997acf04201ab0491d45,2024-10-02_10h56.34.511,mdp,2024.2.1,MacIntel,29.94011976,66fa4ebf79326e780c390304,,,,,,,,,,,,,,,,,,,,,190.6985,190.6985,190.6989,192.6318,0,1,left,1.3892,,192.6322,192.6324,,0,,192.6326,192.6327,,0,,0,192.6327,192.6328,192.6328,194.1317,0,42,42,42,1,0.4,0.6,0.6,0.4,1,0,,,,,,,,,,,,,,,,,,,,,,,,,,,,,,,,,,,,
,,66378dbfb9c884b35b7c3c09,66fc997acf04201ab0491d45,2024-10-02_10h56.34.511,mdp,2024.2.1,MacIntel,29.94011976,66fa4ebf79326e780c390304,,,,,,,,,,,,,,,,,,,,,194.1318,194.1318,194.1322,195.6308,0,0,left,0.9567,,195.6312,195.6314,,1,,195.6316,195.6318,,1,,1,195.6318,195.6318,195.6318,197.1317,0,43,43,43,1,0.4,0.6,0.6,0.4,1,0,,,,,,,,,,,,,,,,,,,,,,,,,,,,,,,,,,,,
,,66378dbfb9c884b35b7c3c09,66fc997acf04201ab0491d45,2024-10-02_10h56.34.511,mdp,2024.2.1,MacIntel,29.94011976,66fa4ebf79326e780c390304,,,,,,,,,,,,,,,,,,,,,197.1319,197.1319,197.1323,198.3985,0,1,left,0.7235,,198.3989,198.3992,,0,,198.3994,198.3996,,1,,0,198.3996,198.3996,198.3997,199.8985,0,44,44,44,1,0.4,0.6,0.6,0.4,1,0,,,,,,,,,,,,,,,,,,,,,,,,,,,,,,,,,,,,
,,66378dbfb9c884b35b7c3c09,66fc997acf04201ab0491d45,2024-10-02_10h56.34.511,mdp,2024.2.1,MacIntel,29.94011976,66fa4ebf79326e780c390304,,,,,,,,,,,,,,,,,,,,,199.8986,199.8986,199.899,201.3318,0,1,left,0.8901,,201.3322,201.3325,,1,,201.3327,201.3329,,1,,0,201.3329,201.3329,201.333,202.8307,0,45,45,45,1,0.4,0.6,0.6,0.4,1,0,,,,,,,,,,,,,,,,,,,,,,,,,,,,,,,,,,,,
,,66378dbfb9c884b35b7c3c09,66fc997acf04201ab0491d45,2024-10-02_10h56.34.511,mdp,2024.2.1,MacIntel,29.94011976,66fa4ebf79326e780c390304,,,,,,,,,,,,,,,,,,,,,202.8309,202.831,202.8313,203.5319,1,0,right,0.1893,,203.5323,203.5326,,0,,203.5327,203.5329,,0,,1,203.5329,203.5329,203.533,205.0318,0,46,46,46,1,0.4,0.6,0.6,0.4,1,0,,,,,,,,,,,,,,,,,,,,,,,,,,,,,,,,,,,,
,,66378dbfb9c884b35b7c3c09,66fc997acf04201ab0491d45,2024-10-02_10h56.34.511,mdp,2024.2.1,MacIntel,29.94011976,66fa4ebf79326e780c390304,,,,,,,,,,,,,,,,,,,,,205.032,205.032,205.0323,205.9976,1,0,right,0.4215,,205.998,205.9983,,0,,205.9985,205.9986,,0,,1,205.9986,205.9986,205.9988,207.4984,0,47,47,47,1,0.4,0.6,0.6,0.4,1,0,,,,,,,,,,,,,,,,,,,,,,,,,,,,,,,,,,,,
,,66378dbfb9c884b35b7c3c09,66fc997acf04201ab0491d45,2024-10-02_10h56.34.511,mdp,2024.2.1,MacIntel,29.94011976,66fa4ebf79326e780c390304,,,,,,,,,,,,,,,,,,,,,207.4987,207.4987,207.499,208.9986,0,1,left,0.9549,,208.999,208.9993,,1,,208.9995,208.9997,,1,,0,208.9997,208.9997,208.9998,210.4986,0,48,48,48,1,0.4,0.6,0.6,0.4,1,0,,,,,,,,,,,,,,,,,,,,,,,,,,,,,,,,,,,,
,,66378dbfb9c884b35b7c3c09,66fc997acf04201ab0491d45,2024-10-02_10h56.34.511,mdp,2024.2.1,MacIntel,29.94011976,66fa4ebf79326e780c390304,,,,,,,,,,,,,,,,,,,,,210.4987,210.4987,210.4991,211.3986,0,1,left,0.357,,211.399,211.3993,,1,,211.3994,211.3996,,0,,0,211.3996,211.3996,211.3998,212.8976,0,49,49,49,1,0.4,0.6,0.6,0.4,1,0,,,,,,,,,,,,,,,,,,,,,,,,,,,,,,,,,,,,
,,66378dbfb9c884b35b7c3c09,66fc997acf04201ab0491d45,2024-10-02_10h56.34.511,mdp,2024.2.1,MacIntel,29.94011976,66fa4ebf79326e780c390304,,,,,,,,,,,,,,,,,,,,,,,,,,,,,,,,,,,,,,,,,,,,,,,,,,,,,,,,212.8989,278.1646,0,0,0,1,1,imgs/kangaroo.png,imgs/giraffe.png,imgs/pig.png,imgs/lion.png,imgs/cat.png,,,,,,,,,,,,,,,,,,,,,,,,
,,66378dbfb9c884b35b7c3c09,66fc997acf04201ab0491d45,2024-10-02_10h56.34.511,mdp,2024.2.1,MacIntel,29.94011976,66fa4ebf79326e780c390304,,,,,,,,,,,,,,2,seqs/st2seq8.csv,278.1744,279.615,space,0.9225,,279.6172,279.6172,279.6175,281.3159,0,0,left,1.1585,,281.3164,282.9827,1,0,right,282.9832,282.9834,,1,,1,282.9834,282.9834,282.9837,284.4816,0,0,0,0,1,0.8,0.2,0.2,0.8,,,,,,,,,,,,,,,1.1553,,0.4,0.6,0.8,0.2,0.4,0.6,0.8,0.2,1,0,,,,,,,,,,,,
,,66378dbfb9c884b35b7c3c09,66fc997acf04201ab0491d45,2024-10-02_10h56.34.511,mdp,2024.2.1,MacIntel,29.94011976,66fa4ebf79326e780c390304,,,,,,,,,,,,,,,,,,,,,284.4818,284.4818,284.4822,285.4493,0,0,left,0.4556,,285.4498,286.3494,1,0,right,286.3499,286.3502,,0,,1,286.3502,286.3502,286.3503,287.8482,0,1,1,1,1,0.8,0.2,0.2,0.8,,,,,,,,,,,,,,,0.3547,,0.4,0.6,0.8,0.2,0.4,0.6,0.8,0.2,1,0,,,,,,,,,,,,
,,66378dbfb9c884b35b7c3c09,66fc997acf04201ab0491d45,2024-10-02_10h56.34.511,mdp,2024.2.1,MacIntel,29.94011976,66fa4ebf79326e780c390304,,,,,,,,,,,,,,,,,,,,,287.8485,287.8485,287.8489,288.7818,0,0,left,0.3909,,288.7822,289.6494,1,1,right,289.6499,289.6502,,0,,0,289.6502,289.6502,289.6504,291.1493,0,2,2,2,1,0.8,0.2,0.2,0.8,,,,,,,,,,,,,,,0.3665,,0.4,0.6,0.8,0.2,0.4,0.6,0.8,0.2,1,0,,,,,,,,,,,,
,,66378dbfb9c884b35b7c3c09,66fc997acf04201ab0491d45,2024-10-02_10h56.34.511,mdp,2024.2.1,MacIntel,29.94011976,66fa4ebf79326e780c390304,,,,,,,,,,,,,,,,,,,,,291.1495,291.1495,291.1499,292.1494,1,1,right,0.4556,,292.1498,293.1827,0,1,left,293.1833,293.1835,,1,,0,293.1835,293.1835,293.1837,294.6817,0,3,3,3,1,0.8,0.2,0.2,0.8,,,,,,,,,,,,,,,0.4999,,0.4,0.6,0.8,0.2,0.6,0.4,0.4,0.6,1,0,,,,,,,,,,,,
,,66378dbfb9c884b35b7c3c09,66fc997acf04201ab0491d45,2024-10-02_10h56.34.511,mdp,2024.2.1,MacIntel,29.94011976,66fa4ebf79326e780c390304,,,,,,,,,,,,,,,,,,,,,294.6819,294.6819,294.6822,295.6484,0,0,left,0.4548,,295.6489,296.6817,1,0,right,296.6822,296.6825,,0,,1,296.6825,296.6825,296.6827,298.1827,0,4,4,4,1,0.8,0.2,0.2,0.8,,,,,,,,,,,,,,,0.4901,,0.4,0.6,0.8,0.2,0.6,0.4,0.4,0.6,1,0,,,,,,,,,,,,
,,66378dbfb9c884b35b7c3c09,66fc997acf04201ab0491d45,2024-10-02_10h56.34.511,mdp,2024.2.1,MacIntel,29.94011976,66fa4ebf79326e780c390304,,,,,,,,,,,,,,,,,,,,,298.1829,298.1829,298.1833,299.2485,0,1,left,0.5234,,299.2489,301.6161,0,0,left,301.6231,301.6234,,1,,1,301.6234,301.6234,301.6237,303.1161,0,5,5,5,1,0.8,0.2,0.2,0.8,,,,,,,,,,,,,,,1.8556,,0.4,0.6,0.8,0.2,0.6,0.4,0.4,0.6,1,0,,,,,,,,,,,,
,,66378dbfb9c884b35b7c3c09,66fc997acf04201ab0491d45,2024-10-02_10h56.34.511,mdp,2024.2.1,MacIntel,29.94011976,66fa4ebf79326e780c390304,,,,,,,,,,,,,,,,,,,,,303.1163,303.1163,303.1167,304.2828,0,0,left,0.626,,304.2832,305.5496,1,0,right,305.5499,305.5502,,0,,1,305.5502,305.5502,305.5503,307.0495,0,6,6,6,1,0.8,0.2,0.2,0.8,,,,,,,,,,,,,,,0.7246,,0.4,0.6,0.8,0.2,0.6,0.4,0.4,0.6,1,0,,,,,,,,,,,,
,,66378dbfb9c884b35b7c3c09,66fc997acf04201ab0491d45,2024-10-02_10h56.34.511,mdp,2024.2.1,MacIntel,29.94011976,66fa4ebf79326e780c390304,,,,,,,,,,,,,,,,,,,,,307.0497,307.0497,307.05,308.0153,0,0,left,0.4225,,308.0157,309.2486,1,1,right,309.2491,309.2493,,0,,0,309.2493,309.2493,309.2495,310.7486,0,7,7,7,1,0.8,0.2,0.2,0.8,,,,,,,,,,,,,,,0.6901,,0.4,0.6,0.8,0.2,0.6,0.4,0.4,0.6,1,0,,,,,,,,,,,,
,,66378dbfb9c884b35b7c3c09,66fc997acf04201ab0491d45,2024-10-02_10h56.34.511,mdp,2024.2.1,MacIntel,29.94011976,66fa4ebf79326e780c390304,,,,,,,,,,,,,,,,,,,,,310.7487,310.7487,310.7491,312.4496,0,0,left,1.1548,,312.45,313.7153,1,1,right,313.7158,313.716,,0,,0,313.716,313.716,313.7161,315.2163,0,8,8,8,1,0.8,0.2,0.2,0.8,,,,,,,,,,,,,,,0.7226,,0.4,0.6,0.8,0.2,0.8,0.2,0.2,0.8,1,0,,,,,,,,,,,,
,,66378dbfb9c884b35b7c3c09,66fc997acf04201ab0491d45,2024-10-02_10h56.34.511,mdp,2024.2.1,MacIntel,29.94011976,66fa4ebf79326e780c390304,,,,,,,,,,,,,,,,,,,,,315.2164,315.2164,315.2168,316.382,0,0,left,0.6214,,316.3824,317.783,0,1,left,317.7834,317.7836,,0,,0,317.7836,317.7836,317.7838,319.2829,0,9,9,9,1,0.8,0.2,0.2,0.8,,,,,,,,,,,,,,,0.8908,,0.4,0.6,0.8,0.2,0.8,0.2,0.2,0.8,1,0,,,,,,,,,,,,
,,66378dbfb9c884b35b7c3c09,66fc997acf04201ab0491d45,2024-10-02_10h56.34.511,mdp,2024.2.1,MacIntel,29.94011976,66fa4ebf79326e780c390304,,,,,,,,,,,,,,,,,,,,,319.2831,319.2831,319.2835,320.2496,0,0,left,0.4224,,320.2501,321.6497,1,1,right,321.6501,321.6504,,0,,0,321.6504,321.6504,321.6506,323.1496,0,10,10,10,1,0.8,0.2,0.2,0.8,,,,,,,,,,,,,,,0.8548,,0.4,0.6,0.8,0.2,0.8,0.2,0.2,0.8,1,0,,,,,,,,,,,,
,,66378dbfb9c884b35b7c3c09,66fc997acf04201ab0491d45,2024-10-02_10h56.34.511,mdp,2024.2.1,MacIntel,29.94011976,66fa4ebf79326e780c390304,,,,,,,,,,,,,,,,,,,,,323.1498,323.1498,323.1501,324.3164,1,0,right,0.6224,,324.3168,325.3497,0,0,left,325.3501,325.3504,,1,,1,325.3504,325.3504,325.3506,326.8496,0,11,11,11,1,0.8,0.2,0.2,0.8,,,,,,,,,,,,,,,0.4895,,0.4,0.6,0.8,0.2,0.8,0.2,0.2,0.8,1,0,,,,,,,,,,,,
,,66378dbfb9c884b35b7c3c09,66fc997acf04201ab0491d45,2024-10-02_10h56.34.511,mdp,2024.2.1,MacIntel,29.94011976,66fa4ebf79326e780c390304,,,,,,,,,,,,,,,,,,,,,326.8498,326.8498,326.8502,327.9498,1,0,right,0.5585,,327.9501,328.8831,0,0,left,328.8835,328.8837,,1,,1,328.8837,328.8837,328.8839,330.3831,0,12,12,12,1,0.2,0.8,0.8,0.2,,,,,,,,,,,,,,,0.3891,,0.4,0.6,0.8,0.2,0.8,0.2,0.2,0.8,1,0,,,,,,,,,,,,
,,66378dbfb9c884b35b7c3c09,66fc997acf04201ab0491d45,2024-10-02_10h56.34.511,mdp,2024.2.1,MacIntel,29.94011976,66fa4ebf79326e780c390304,,,,,,,,,,,,,,,,,,,,,330.3832,330.3832,330.3836,332.1831,1,0,right,1.2557,,332.1836,333.4155,0,1,left,333.416,333.4162,,0,,0,333.4162,333.4162,333.4164,334.9164,0,13,13,13,1,0.2,0.8,0.8,0.2,,,,,,,,,,,,,,,0.6891,,0.4,0.6,0.8,0.2,0.2,0.8,0.8,0.2,1,0,,,,,,,,,,,,
,,66378dbfb9c884b35b7c3c09,66fc997acf04201ab0491d45,2024-10-02_10h56.34.511,mdp,2024.2.1,MacIntel,29.94011976,66fa4ebf79326e780c390304,,,,,,,,,,,,,,,,,,,,,334.9166,334.9166,334.917,337.4488,0,1,left,1.9891,,337.4557,338.3831,1,0,right,338.3837,338.3838,,0,,1,338.3839,338.3839,338.3841,339.8822,0,14,14,14,1,0.2,0.8,0.8,0.2,,,,,,,,,,,,,,,0.4223,,0.4,0.6,0.8,0.2,0.2,0.8,0.8,0.2,1,0,,,,,,,,,,,,
,,66378dbfb9c884b35b7c3c09,66fc997acf04201ab0491d45,2024-10-02_10h56.34.511,mdp,2024.2.1,MacIntel,29.94011976,66fa4ebf79326e780c390304,,,,,,,,,,,,,,,,,,,,,339.8823,339.8823,339.8827,340.8823,0,1,left,0.4881,,340.8827,343.1165,0,1,left,343.117,343.1173,,0,,0,343.1173,343.1173,343.1174,344.6156,0,15,15,15,1,0.2,0.8,0.8,0.2,,,,,,,,,,,,,,,1.7224,,0.4,0.6,0.8,0.2,0.4,0.6,0.4,0.6,1,0,,,,,,,,,,,,
,,66378dbfb9c884b35b7c3c09,66fc997acf04201ab0491d45,2024-10-02_10h56.34.511,mdp,2024.2.1,MacIntel,29.94011976,66fa4ebf79326e780c390304,,,,,,,,,,,,,,,,,,,,,344.6158,344.6158,344.6162,345.5499,0,1,left,0.389,,345.5503,346.5157,1,0,right,346.5162,346.5163,,0,,1,346.5164,346.5164,346.5165,348.0156,0,16,16,16,1,0.2,0.8,0.8,0.2,,,,,,,,,,,,,,,0.4224,,0.4,0.6,0.8,0.2,0.4,0.6,0.4,0.6,1,0,,,,,,,,,,,,
,,66378dbfb9c884b35b7c3c09,66fc997acf04201ab0491d45,2024-10-02_10h56.34.511,mdp,2024.2.1,MacIntel,29.94011976,66fa4ebf79326e780c390304,,,,,,,,,,,,,,,,,,,,,348.0158,348.0158,348.0161,348.5499,0,0,left,0.0225,,348.5504,349.4166,1,0,right,349.417,349.4172,,0,,1,349.4172,349.4172,349.4175,350.9156,0,17,17,17,1,0.2,0.8,0.8,0.2,,,,,,,,,,,,,,,0.3222,,0.4,0.6,0.8,0.2,0.4,0.6,0.4,0.6,1,0,,,,,,,,,,,,
,,66378dbfb9c884b35b7c3c09,66fc997acf04201ab0491d45,2024-10-02_10h56.34.511,mdp,2024.2.1,MacIntel,29.94011976,66fa4ebf79326e780c390304,,,,,,,,,,,,,,,,,,,,,350.9157,350.9157,350.9161,351.749,0,1,left,0.3216,,351.7494,353.55,0,0,left,353.5504,353.5507,,1,,1,353.5507,353.5507,353.5508,355.0489,0,18,18,18,1,0.2,0.8,0.8,0.2,,,,,,,,,,,,,,,1.2556,,0.4,0.6,0.8,0.2,0.4,0.6,0.4,0.6,1,0,,,,,,,,,,,,
,,66378dbfb9c884b35b7c3c09,66fc997acf04201ab0491d45,2024-10-02_10h56.34.511,mdp,2024.2.1,MacIntel,29.94011976,66fa4ebf79326e780c390304,,,,,,,,,,,,,,,,,,,,,355.0492,355.0492,355.0495,356.0825,0,1,left,0.5215,,356.0829,357.3833,0,1,left,357.3838,357.384,,0,,0,357.384,357.384,357.3842,358.8823,0,19,19,19,1,0.2,0.8,0.8,0.2,,,,,,,,,,,,,,,0.7881,,0.4,0.6,0.8,0.2,0.4,0.6,0.4,0.6,1,0,,,,,,,,,,,,
,,66378dbfb9c884b35b7c3c09,66fc997acf04201ab0491d45,2024-10-02_10h56.34.511,mdp,2024.2.1,MacIntel,29.94011976,66fa4ebf79326e780c390304,,,,,,,,,,,,,,,,,,,,,358.8825,358.8825,358.8829,359.7825,0,0,left,0.3567,,359.7829,360.6167,1,0,right,360.6171,360.6174,,0,,1,360.6174,360.6174,360.6176,362.1157,0,20,20,20,1,0.2,0.8,0.8,0.2,,,,,,,,,,,,,,,0.288,,0.4,0.6,0.8,0.2,0.4,0.6,0.4,0.6,1,0,,,,,,,,,,,,
,,66378dbfb9c884b35b7c3c09,66fc997acf04201ab0491d45,2024-10-02_10h56.34.511,mdp,2024.2.1,MacIntel,29.94011976,66fa4ebf79326e780c390304,,,,,,,,,,,,,,,,,,,,,362.116,362.116,362.1163,363.0158,0,0,left,0.3567,,363.0162,363.8825,1,0,right,363.8829,363.8831,,0,,1,363.8831,363.8831,363.8833,365.3833,0,21,21,21,1,0.2,0.8,0.8,0.2,,,,,,,,,,,,,,,0.355,,0.4,0.6,0.8,0.2,0.4,0.6,0.4,0.6,1,0,,,,,,,,,,,,
,,66378dbfb9c884b35b7c3c09,66fc997acf04201ab0491d45,2024-10-02_10h56.34.511,mdp,2024.2.1,MacIntel,29.94011976,66fa4ebf79326e780c390304,,,,,,,,,,,,,,,,,,,,,365.3835,365.3835,365.3839,366.3158,0,0,left,0.3882,,366.3162,367.1825,1,0,right,367.183,367.1832,,1,,1,367.1832,367.1832,367.1835,368.6824,0,22,22,22,1,0.2,0.8,0.8,0.2,,,,,,,,,,,,,,,0.3236,,0.4,0.6,0.8,0.2,0.2,0.8,0.8,0.2,1,0,,,,,,,,,,,,
,,66378dbfb9c884b35b7c3c09,66fc997acf04201ab0491d45,2024-10-02_10h56.34.511,mdp,2024.2.1,MacIntel,29.94011976,66fa4ebf79326e780c390304,,,,,,,,,,,,,,,,,,,,,368.6825,368.6825,368.683,369.5501,0,1,left,0.3225,,369.5505,370.5825,0,1,left,370.5829,370.5832,,1,,0,370.5832,370.5832,370.5834,372.0825,0,23,23,23,1,0.2,0.8,0.8,0.2,,,,,,,,,,,,,,,0.4881,,0.4,0.6,0.8,0.2,0.2,0.8,0.8,0.2,1,0,,,,,,,,,,,,
,,66378dbfb9c884b35b7c3c09,66fc997acf04201ab0491d45,2024-10-02_10h56.34.511,mdp,2024.2.1,MacIntel,29.94011976,66fa4ebf79326e780c390304,,,,,,,,,,,,,,,,,,,,,372.0826,372.0826,372.083,372.9835,0,1,left,0.388,,372.9839,373.9168,1,0,right,373.9173,373.9175,,0,,1,373.9176,373.9176,373.9177,375.4169,0,24,24,24,1,0.2,0.8,0.8,0.2,,,,,,,,,,,,,,,0.3882,,0.4,0.6,0.8,0.2,0.2,0.8,0.8,0.2,1,0,,,,,,,,,,,,
,,66378dbfb9c884b35b7c3c09,66fc997acf04201ab0491d45,2024-10-02_10h56.34.511,mdp,2024.2.1,MacIntel,29.94011976,66fa4ebf79326e780c390304,,,,,,,,,,,,,,,,,,,,,375.417,375.417,375.4173,376.5826,0,0,left,0.6223,,376.5831,377.6502,1,0,right,377.6507,377.6509,,0,,1,377.6509,377.6509,377.6511,379.1502,0,25,25,25,1,0.8,0.2,0.2,0.8,,,,,,,,,,,,,,,0.5222,,0.4,0.6,0.8,0.2,0.2,0.8,0.8,0.2,1,0,,,,,,,,,,,,
,,66378dbfb9c884b35b7c3c09,66fc997acf04201ab0491d45,2024-10-02_10h56.34.511,mdp,2024.2.1,MacIntel,29.94011976,66fa4ebf79326e780c390304,,,,,,,,,,,,,,,,,,,,,379.1503,379.1503,379.1507,380.0835,0,0,left,0.3901,,380.0839,381.0169,1,1,right,381.0173,381.0176,,0,,0,381.0176,381.0176,381.0177,382.5159,0,26,26,26,1,0.8,0.2,0.2,0.8,,,,,,,,,,,,,,,0.4226,,0.4,0.6,0.8,0.2,0.2,0.8,0.8,0.2,1,0,,,,,,,,,,,,
,,66378dbfb9c884b35b7c3c09,66fc997acf04201ab0491d45,2024-10-02_10h56.34.511,mdp,2024.2.1,MacIntel,29.94011976,66fa4ebf79326e780c390304,,,,,,,,,,,,,,,,,,,,,382.516,382.516,382.5165,383.7836,0,0,left,0.7547,,383.784,384.6493,0,0,left,384.6498,384.65,,0,,1,384.65,384.65,384.6502,386.1503,0,27,27,27,1,0.8,0.2,0.2,0.8,,,,,,,,,,,,,,,0.3225,,0.4,0.6,0.8,0.2,0.2,0.8,0.8,0.2,1,0,,,,,,,,,,,,
,,66378dbfb9c884b35b7c3c09,66fc997acf04201ab0491d45,2024-10-02_10h56.34.511,mdp,2024.2.1,MacIntel,29.94011976,66fa4ebf79326e780c390304,,,,,,,,,,,,,,,,,,,,,386.1504,386.1504,386.1508,387.017,0,0,left,0.3233,,387.0174,388.0836,0,0,left,388.0841,388.0843,,0,,1,388.0844,388.0844,388.0845,389.5827,0,28,28,28,1,0.8,0.2,0.2,0.8,,,,,,,,,,,,,,,0.5224,,0.4,0.6,0.8,0.2,0.2,0.8,0.8,0.2,1,0,,,,,,,,,,,,
,,66378dbfb9c884b35b7c3c09,66fc997acf04201ab0491d45,2024-10-02_10h56.34.511,mdp,2024.2.1,MacIntel,29.94011976,66fa4ebf79326e780c390304,,,,,,,,,,,,,,,,,,,,,389.5829,389.5829,389.5832,390.4494,0,0,left,0.3549,,390.4498,391.8494,1,0,right,391.8498,391.85,,0,,1,391.8501,391.8501,391.8502,393.3494,0,29,29,29,1,0.8,0.2,0.2,0.8,,,,,,,,,,,,,,,0.8556,,0.4,0.6,0.8,0.2,0.2,0.8,0.8,0.2,1,0,,,,,,,,,,,,
,,66378dbfb9c884b35b7c3c09,66fc997acf04201ab0491d45,2024-10-02_10h56.34.511,mdp,2024.2.1,MacIntel,29.94011976,66fa4ebf79326e780c390304,,,,,,,,,,,,,,,,,,,,,393.3495,393.3495,393.3499,394.317,0,1,left,0.4333,,394.3174,395.3161,0,1,left,395.3166,395.3167,,1,,0,395.3168,395.3168,395.317,396.817,0,30,30,30,1,0.2,0.8,0.8,0.2,,,,,,,,,,,,,,,0.4557,,0.4,0.6,0.8,0.2,0.2,0.8,0.8,0.2,1,0,,,,,,,,,,,,
,,66378dbfb9c884b35b7c3c09,66fc997acf04201ab0491d45,2024-10-02_10h56.34.511,mdp,2024.2.1,MacIntel,29.94011976,66fa4ebf79326e780c390304,,,,,,,,,,,,,,,,,,,,,396.8171,396.8171,396.8175,397.7504,0,1,left,0.389,,397.7508,398.6828,1,0,right,398.6832,398.6835,,1,,1,398.6835,398.6835,398.6836,400.1828,0,31,31,31,1,0.2,0.8,0.8,0.2,,,,,,,,,,,,,,,0.3882,,0.6,0.4,0.6,0.4,0.2,0.8,0.8,0.2,1,0,,,,,,,,,,,,
,,66378dbfb9c884b35b7c3c09,66fc997acf04201ab0491d45,2024-10-02_10h56.34.511,mdp,2024.2.1,MacIntel,29.94011976,66fa4ebf79326e780c390304,,,,,,,,,,,,,,,,,,,,,400.183,400.183,400.1833,401.0496,0,1,left,0.3312,,401.05,402.217,1,0,right,402.2175,402.2178,,0,,1,402.2178,402.2178,402.218,403.7161,0,32,32,32,1,0.2,0.8,0.8,0.2,,,,,,,,,,,,,,,0.655,,0.6,0.4,0.6,0.4,0.2,0.8,0.8,0.2,1,0,,,,,,,,,,,,
,,66378dbfb9c884b35b7c3c09,66fc997acf04201ab0491d45,2024-10-02_10h56.34.511,mdp,2024.2.1,MacIntel,29.94011976,66fa4ebf79326e780c390304,,,,,,,,,,,,,,,,,,,,,403.7163,403.7163,403.7167,404.5495,0,1,left,0.3225,,404.55,405.9496,0,0,left,405.9502,405.9506,,1,,1,405.9506,405.9506,405.9507,407.4504,0,33,33,33,1,0.2,0.8,0.8,0.2,,,,,,,,,,,,,,,0.8595,,0.6,0.4,0.6,0.4,0.2,0.8,0.8,0.2,1,0,,,,,,,,,,,,
,,66378dbfb9c884b35b7c3c09,66fc997acf04201ab0491d45,2024-10-02_10h56.34.511,mdp,2024.2.1,MacIntel,29.94011976,66fa4ebf79326e780c390304,,,,,,,,,,,,,,,,,,,,,407.4507,407.4507,407.451,408.8172,0,1,left,0.8226,,408.8177,409.6839,1,0,right,409.6843,409.6846,,0,,1,409.6846,409.6846,409.6847,411.1838,0,34,34,34,1,0.2,0.8,0.8,0.2,,,,,,,,,,,,,,,0.3225,,0.6,0.4,0.6,0.4,0.2,0.8,0.8,0.2,1,0,,,,,,,,,,,,
,,66378dbfb9c884b35b7c3c09,66fc997acf04201ab0491d45,2024-10-02_10h56.34.511,mdp,2024.2.1,MacIntel,29.94011976,66fa4ebf79326e780c390304,,,,,,,,,,,,,,,,,,,,,411.1839,411.1839,411.1843,412.1172,0,1,left,0.389,,412.1176,412.9163,1,0,right,412.9168,412.917,,0,,1,412.917,412.917,412.9172,414.4171,0,35,35,35,1,0.6,0.4,0.2,0.8,,,,,,,,,,,,,,,0.2559,,0.6,0.4,0.6,0.4,0.2,0.8,0.8,0.2,1,0,,,,,,,,,,,,
,,66378dbfb9c884b35b7c3c09,66fc997acf04201ab0491d45,2024-10-02_10h56.34.511,mdp,2024.2.1,MacIntel,29.94011976,66fa4ebf79326e780c390304,,,,,,,,,,,,,,,,,,,,,414.4173,414.4173,414.4177,415.2172,0,1,left,0.2566,,415.2176,416.0506,1,0,right,416.0511,416.0513,,0,,1,416.0513,416.0513,416.0515,417.5505,0,36,36,36,1,0.6,0.4,0.2,0.8,,,,,,,,,,,,,,,0.288,,0.6,0.4,0.6,0.4,0.2,0.8,0.8,0.2,1,0,,,,,,,,,,,,
,,66378dbfb9c884b35b7c3c09,66fc997acf04201ab0491d45,2024-10-02_10h56.34.511,mdp,2024.2.1,MacIntel,29.94011976,66fa4ebf79326e780c390304,,,,,,,,,,,,,,,,,,,,,417.5506,417.5507,417.551,418.4164,0,0,left,0.3223,,418.4167,419.2839,0,0,left,419.2844,419.2847,,0,,1,419.2847,419.2847,419.2848,420.7829,0,37,37,37,1,0.6,0.4,0.2,0.8,,,,,,,,,,,,,,,0.3223,,0.6,0.4,0.6,0.4,0.2,0.8,0.8,0.2,1,0,,,,,,,,,,,,
,,66378dbfb9c884b35b7c3c09,66fc997acf04201ab0491d45,2024-10-02_10h56.34.511,mdp,2024.2.1,MacIntel,29.94011976,66fa4ebf79326e780c390304,,,,,,,,,,,,,,,,,,,,,420.7831,420.7831,420.7835,421.9506,0,0,left,0.6558,,421.951,422.9164,1,0,right,422.9168,422.9171,,0,,1,422.9171,422.9171,422.9173,424.4172,0,38,38,38,1,0.6,0.4,0.2,0.8,,,,,,,,,,,,,,,0.4313,,0.8,0.2,0.8,0.2,0.2,0.8,0.8,0.2,1,0,,,,,,,,,,,,
,,66378dbfb9c884b35b7c3c09,66fc997acf04201ab0491d45,2024-10-02_10h56.34.511,mdp,2024.2.1,MacIntel,29.94011976,66fa4ebf79326e780c390304,,,,,,,,,,,,,,,,,,,,,424.4174,424.4174,424.4178,425.2497,0,0,left,0.2926,,425.2502,426.1164,1,0,right,426.1168,426.117,,0,,1,426.1171,426.1171,426.1172,427.6173,0,39,39,39,1,0.6,0.4,0.2,0.8,,,,,,,,,,,,,,,0.3549,,0.8,0.2,0.8,0.2,0.2,0.8,0.8,0.2,1,0,,,,,,,,,,,,
,,66378dbfb9c884b35b7c3c09,66fc997acf04201ab0491d45,2024-10-02_10h56.34.511,mdp,2024.2.1,MacIntel,29.94011976,66fa4ebf79326e780c390304,,,,,,,,,,,,,,,,,,,,,427.6174,427.6175,427.6179,428.4831,0,0,left,0.3225,,428.4835,429.5506,1,1,right,429.5511,429.5514,,0,,0,429.5514,429.5514,429.5517,431.0507,0,40,40,40,1,0.6,0.4,0.2,0.8,,,,,,,,,,,,,,,0.5553,,0.8,0.2,0.8,0.2,0.2,0.8,0.8,0.2,1,0,,,,,,,,,,,,
,,66378dbfb9c884b35b7c3c09,66fc997acf04201ab0491d45,2024-10-02_10h56.34.511,mdp,2024.2.1,MacIntel,29.94011976,66fa4ebf79326e780c390304,,,,,,,,,,,,,,,,,,,,,431.0508,431.0508,431.0513,431.9173,0,0,left,0.3234,,431.9179,432.7841,0,0,left,432.7845,432.7848,,0,,1,432.7848,432.7848,432.7849,434.284,0,41,41,41,1,0.6,0.4,0.2,0.8,,,,,,,,,,,,,,,0.3235,,0.8,0.2,0.8,0.2,0.2,0.8,0.8,0.2,1,0,,,,,,,,,,,,
,,66378dbfb9c884b35b7c3c09,66fc997acf04201ab0491d45,2024-10-02_10h56.34.511,mdp,2024.2.1,MacIntel,29.94011976,66fa4ebf79326e780c390304,,,,,,,,,,,,,,,,,,,,,434.2842,434.2842,434.2845,435.184,0,0,left,0.3558,,435.1844,436.1842,1,1,right,436.1848,436.1852,,1,,0,436.1852,436.1852,436.1854,437.684,0,42,42,42,1,0.6,0.4,0.2,0.8,,,,,,,,,,,,,,,0.4667,,0.8,0.2,0.8,0.2,0.2,0.8,0.8,0.2,1,0,,,,,,,,,,,,
,,66378dbfb9c884b35b7c3c09,66fc997acf04201ab0491d45,2024-10-02_10h56.34.511,mdp,2024.2.1,MacIntel,29.94011976,66fa4ebf79326e780c390304,,,,,,,,,,,,,,,,,,,,,437.6841,437.6841,437.6845,438.5841,0,1,left,0.3558,,438.5845,439.6166,0,1,left,439.617,439.6173,,0,,0,439.6173,439.6173,439.6175,441.1166,0,43,43,43,1,0.6,0.4,0.2,0.8,,,,,,,,,,,,,,,0.4899,,0.8,0.2,0.8,0.2,0.2,0.8,0.8,0.2,1,0,,,,,,,,,,,,
,,66378dbfb9c884b35b7c3c09,66fc997acf04201ab0491d45,2024-10-02_10h56.34.511,mdp,2024.2.1,MacIntel,29.94011976,66fa4ebf79326e780c390304,,,,,,,,,,,,,,,,,,,,,441.1168,441.1168,441.1172,442.0841,0,0,left,0.4234,,442.0845,442.9165,1,0,right,442.917,442.9172,,0,,1,442.9172,442.9172,442.9174,444.4165,0,44,44,44,1,0.6,0.4,0.2,0.8,,,,,,,,,,,,,,,0.3217,,0.8,0.2,0.8,0.2,0.2,0.8,0.8,0.2,1,0,,,,,,,,,,,,
,,66378dbfb9c884b35b7c3c09,66fc997acf04201ab0491d45,2024-10-02_10h56.34.511,mdp,2024.2.1,MacIntel,29.94011976,66fa4ebf79326e780c390304,,,,,,,,,,,,,,,,,,,,,444.4168,444.4168,444.417,445.3166,0,1,left,0.3558,,445.3171,446.1834,1,0,right,446.1838,446.1841,,1,,1,446.1841,446.1841,446.1843,447.6832,0,45,45,45,1,0.6,0.4,0.2,0.8,,,,,,,,,,,,,,,0.3224,,0.8,0.2,0.8,0.2,0.2,0.8,0.8,0.2,1,0,,,,,,,,,,,,
,,66378dbfb9c884b35b7c3c09,66fc997acf04201ab0491d45,2024-10-02_10h56.34.511,mdp,2024.2.1,MacIntel,29.94011976,66fa4ebf79326e780c390304,,,,,,,,,,,,,,,,,,,,,447.6834,447.6834,447.6838,448.7833,0,0,left,0.5899,,448.7838,449.6167,1,0,right,449.6171,449.6174,,1,,1,449.6174,449.6174,449.6175,451.1175,0,46,46,46,1,0.6,0.4,0.2,0.8,,,,,,,,,,,,,,,0.2899,,0.8,0.2,0.8,0.2,0.2,0.8,0.8,0.2,1,0,,,,,,,,,,,,
,,66378dbfb9c884b35b7c3c09,66fc997acf04201ab0491d45,2024-10-02_10h56.34.511,mdp,2024.2.1,MacIntel,29.94011976,66fa4ebf79326e780c390304,,,,,,,,,,,,,,,,,,,,,451.1177,451.1177,451.118,452.0842,0,1,left,0.4233,,452.0846,453.0175,1,0,right,453.018,453.0183,,0,,1,453.0183,453.0183,453.0184,454.5166,0,47,47,47,1,0.6,0.4,0.2,0.8,,,,,,,,,,,,,,,0.3995,,0.8,0.2,0.8,0.2,0.2,0.8,0.8,0.2,1,0,,,,,,,,,,,,
,,66378dbfb9c884b35b7c3c09,66fc997acf04201ab0491d45,2024-10-02_10h56.34.511,mdp,2024.2.1,MacIntel,29.94011976,66fa4ebf79326e780c390304,,,,,,,,,,,,,,,,,,,,,454.5169,454.5169,454.5171,455.3833,0,0,left,0.3574,,455.3838,456.1843,1,0,right,456.1847,456.185,,1,,1,456.185,456.185,456.1852,457.6833,0,48,48,48,1,0.6,0.4,0.2,0.8,,,,,,,,,,,,,,,0.2881,,0.8,0.2,0.8,0.2,0.2,0.8,0.8,0.2,1,0,,,,,,,,,,,,
,,66378dbfb9c884b35b7c3c09,66fc997acf04201ab0491d45,2024-10-02_10h56.34.511,mdp,2024.2.1,MacIntel,29.94011976,66fa4ebf79326e780c390304,,,,,,,,,,,,,,,,,,,,,457.6835,457.6835,457.6838,458.3834,0,1,left,0.1892,,458.3838,459.1167,1,0,right,459.1172,459.1174,,0,,1,459.1174,459.1174,459.1176,460.6175,0,49,49,49,1,0.6,0.4,0.2,0.8,,,,,,,,,,,,,,,0.189,,0.8,0.2,0.8,0.2,0.2,0.8,0.8,0.2,1,0,,,,,,,,,,,,
,,66378dbfb9c884b35b7c3c09,66fc997acf04201ab0491d45,2024-10-02_10h56.34.511,mdp,2024.2.1,MacIntel,29.94011976,66fa4ebf79326e780c390304,,,,,,,,,,,,,,,,,,,,,,,,,,,,,,,,,,,,,,,,,,,,,,,,,,,,,,,,460.6176,511.5901,0,1,1,8,1,imgs/kangaroo.png,imgs/goat.png,imgs/rabbit.png,imgs/horse.png,imgs/pig.png,,,,,,,,,,,,,,,,,,,,,,,,
,,66378dbfb9c884b35b7c3c09,66fc997acf04201ab0491d45,2024-10-02_10h56.34.511,mdp,2024.2.1,MacIntel,29.94011976,66fa4ebf79326e780c390304,,,,,,,,,,,,,,3,seqs/st3seq8.csv,511.5993,514.8182,space,2.6878,,514.8215,514.8215,514.8218,516.4181,0,1,left,1.0574,,516.4187,517.0849,0,0,left,517.0855,517.985,1,0,right,1,517.985,517.985,517.9854,519.4849,0,0,0,0,1,0.2,0.8,0.6,0.4,,,,,,,,,,,,,,,0.1225,,0.6,0.4,0.2,0.8,0.6,0.4,0.8,0.2,,,0.3544,,0.6,0.4,0.8,0.2,0.8,0.2,0.8,0.2,1,0
,,66378dbfb9c884b35b7c3c09,66fc997acf04201ab0491d45,2024-10-02_10h56.34.511,mdp,2024.2.1,MacIntel,29.94011976,66fa4ebf79326e780c390304,,,,,,,,,,,,,,,,,,,,,519.4851,519.4851,519.4855,520.4183,0,0,left,0.3917,,520.4187,521.2849,0,1,left,521.2854,522.1849,1,0,right,1,522.185,522.185,522.1855,523.6849,0,1,1,1,1,0.2,0.8,0.6,0.4,,,,,,,,,,,,,,,0.3316,,0.6,0.4,0.2,0.8,0.6,0.4,0.8,0.2,,,0.3558,,0.6,0.4,0.8,0.2,0.8,0.2,0.8,0.2,1,0
,,66378dbfb9c884b35b7c3c09,66fc997acf04201ab0491d45,2024-10-02_10h56.34.511,mdp,2024.2.1,MacIntel,29.94011976,66fa4ebf79326e780c390304,,,,,,,,,,,,,,,,,,,,,523.6851,523.6851,523.6856,524.5183,0,0,left,0.2917,,524.5187,525.4517,0,1,left,525.452,526.3516,1,0,right,1,526.3517,526.3517,526.3522,527.8516,0,2,2,2,1,0.2,0.8,0.6,0.4,,,,,,,,,,,,,,,0.3892,,0.6,0.4,0.2,0.8,0.6,0.4,0.8,0.2,,,0.3556,,0.6,0.4,0.8,0.2,0.8,0.2,0.8,0.2,1,0
,,66378dbfb9c884b35b7c3c09,66fc997acf04201ab0491d45,2024-10-02_10h56.34.511,mdp,2024.2.1,MacIntel,29.94011976,66fa4ebf79326e780c390304,,,,,,,,,,,,,,,,,,,,,527.8518,527.8518,527.8523,528.7517,0,1,left,0.3557,,528.7521,529.6184,0,0,left,529.6188,530.5517,1,0,right,1,530.5517,530.5517,530.5522,532.0517,0,3,3,3,1,0.2,0.8,0.6,0.4,,,,,,,,,,,,,,,0.3329,,0.6,0.4,0.2,0.8,0.6,0.4,0.8,0.2,,,0.3889,,0.6,0.4,0.8,0.2,0.4,0.6,0.6,0.4,1,0
,,66378dbfb9c884b35b7c3c09,66fc997acf04201ab0491d45,2024-10-02_10h56.34.511,mdp,2024.2.1,MacIntel,29.94011976,66fa4ebf79326e780c390304,,,,,,,,,,,,,,,,,,,,,532.0518,532.0519,532.0523,532.9518,0,1,left,0.3558,,532.9522,533.7851,0,1,left,533.7855,534.6851,1,1,right,0,534.6851,534.6851,534.6856,536.185,0,4,4,4,1,0.2,0.8,0.6,0.4,,,,,,,,,,,,,,,0.3221,,0.6,0.4,0.2,0.8,0.6,0.4,0.8,0.2,,,0.3558,,0.6,0.4,0.8,0.2,0.6,0.4,0.8,0.2,1,0
,,66378dbfb9c884b35b7c3c09,66fc997acf04201ab0491d45,2024-10-02_10h56.34.511,mdp,2024.2.1,MacIntel,29.94011976,66fa4ebf79326e780c390304,,,,,,,,,,,,,,,,,,,,,536.1852,536.1852,536.1856,537.0518,0,1,left,0.3233,,537.0522,537.9184,1,0,right,537.9189,538.7851,0,0,left,1,538.7851,538.7851,538.7856,540.2851,0,5,5,5,1,0.2,0.8,0.6,0.4,,,,,,,,,,,,,,,0.3224,,0.8,0.2,0.4,0.6,0.6,0.4,0.8,0.2,,,0.3222,,0.6,0.4,0.8,0.2,0.6,0.4,0.8,0.2,1,0
,,66378dbfb9c884b35b7c3c09,66fc997acf04201ab0491d45,2024-10-02_10h56.34.511,mdp,2024.2.1,MacIntel,29.94011976,66fa4ebf79326e780c390304,,,,,,,,,,,,,,,,,,,,,540.2853,540.2853,540.2857,541.3185,0,1,left,0.4891,,541.3189,542.1852,1,0,right,542.1857,543.0519,0,0,left,1,543.0519,543.0519,543.0523,544.5518,0,6,6,6,1,0.2,0.8,0.6,0.4,,,,,,,,,,,,,,,0.3224,,0.8,0.2,0.4,0.6,0.6,0.4,0.8,0.2,,,0.3332,,0.6,0.4,0.8,0.2,0.6,0.4,0.8,0.2,1,0
,,66378dbfb9c884b35b7c3c09,66fc997acf04201ab0491d45,2024-10-02_10h56.34.511,mdp,2024.2.1,MacIntel,29.94011976,66fa4ebf79326e780c390304,,,,,,,,,,,,,,,,,,,,,544.552,544.552,544.5523,545.5519,0,0,left,0.4557,,545.5522,546.4518,1,1,right,546.4523,547.3186,0,0,left,1,547.3186,547.3186,547.319,548.8185,0,7,7,7,1,0.2,0.8,0.6,0.4,,,,,,,,,,,,,,,0.3574,,0.8,0.2,0.4,0.6,0.6,0.4,0.8,0.2,,,0.3568,,0.6,0.4,0.8,0.2,0.6,0.4,0.8,0.2,1,0
,,66378dbfb9c884b35b7c3c09,66fc997acf04201ab0491d45,2024-10-02_10h56.34.511,mdp,2024.2.1,MacIntel,29.94011976,66fa4ebf79326e780c390304,,,,,,,,,,,,,,,,,,,,,548.8187,548.8187,548.8191,549.7519,0,1,left,0.389,,549.7525,550.5853,1,0,right,550.5857,551.2852,0,0,left,1,551.2853,551.2853,551.2858,552.7852,0,8,8,8,1,0.2,0.8,0.6,0.4,,,,,,,,,,,,,,,0.2889,,0.8,0.2,0.4,0.6,0.6,0.4,0.8,0.2,,,0.1556,,0.6,0.4,0.8,0.2,0.6,0.4,0.8,0.2,1,0
,,66378dbfb9c884b35b7c3c09,66fc997acf04201ab0491d45,2024-10-02_10h56.34.511,mdp,2024.2.1,MacIntel,29.94011976,66fa4ebf79326e780c390304,,,,,,,,,,,,,,,,,,,,,552.7854,552.7854,552.7858,553.6852,0,0,left,0.3559,,553.6857,554.6519,1,1,right,554.6524,555.552,0,0,left,1,555.552,555.552,555.5524,557.0519,0,9,9,9,1,0.2,0.8,0.6,0.4,,,,,,,,,,,,,,,0.4222,,0.8,0.2,0.4,0.6,0.6,0.4,0.8,0.2,,,0.3557,,0.2,0.8,0.2,0.8,0.6,0.4,0.8,0.2,1,0
,,66378dbfb9c884b35b7c3c09,66fc997acf04201ab0491d45,2024-10-02_10h56.34.511,mdp,2024.2.1,MacIntel,29.94011976,66fa4ebf79326e780c390304,,,,,,,,,,,,,,,,,,,,,557.0521,557.0521,557.0525,558.052,0,1,left,0.4558,,558.0524,558.952,1,0,right,558.9525,559.9186,0,1,left,0,559.9187,559.9187,559.9192,561.4186,0,10,10,10,1,0.2,0.8,0.6,0.4,,,,,,,,,,,,,,,0.3559,,0.8,0.2,0.4,0.6,0.6,0.4,0.8,0.2,,,0.4224,,0.2,0.8,0.2,0.8,0.6,0.4,0.8,0.2,1,0
,,66378dbfb9c884b35b7c3c09,66fc997acf04201ab0491d45,2024-10-02_10h56.34.511,mdp,2024.2.1,MacIntel,29.94011976,66fa4ebf79326e780c390304,,,,,,,,,,,,,,,,,,,,,561.4188,561.4188,561.4192,562.3854,0,1,left,0.4223,,562.3858,563.2187,0,0,left,563.2191,564.1187,1,1,right,0,564.1187,564.1187,564.1192,565.6187,0,11,11,11,1,0.2,0.8,0.6,0.4,,,,,,,,,,,,,,,0.2968,,0.8,0.2,0.4,0.6,0.6,0.4,0.8,0.2,,,0.3556,,0.2,0.8,0.2,0.8,0.6,0.4,0.8,0.2,1,0
,,66378dbfb9c884b35b7c3c09,66fc997acf04201ab0491d45,2024-10-02_10h56.34.511,mdp,2024.2.1,MacIntel,29.94011976,66fa4ebf79326e780c390304,,,,,,,,,,,,,,,,,,,,,565.6189,565.6189,565.6192,566.5187,1,1,right,0.3558,,566.5191,567.3854,1,1,right,567.3858,568.2188,0,0,left,1,568.2188,568.2188,568.2192,569.7187,0,12,12,12,1,0.2,0.8,0.6,0.4,,,,,,,,,,,,,,,0.3332,,0.8,0.2,0.4,0.6,0.6,0.4,0.8,0.2,,,0.324,,0.2,0.8,0.2,0.8,0.6,0.4,0.8,0.2,1,0
,,66378dbfb9c884b35b7c3c09,66fc997acf04201ab0491d45,2024-10-02_10h56.34.511,mdp,2024.2.1,MacIntel,29.94011976,66fa4ebf79326e780c390304,,,,,,,,,,,,,,,,,,,,,569.719,569.719,569.7193,570.6521,1,0,right,0.3892,,570.6526,571.5854,1,0,right,571.5859,572.5188,0,1,left,0,572.5188,572.5188,572.5192,574.0188,0,13,13,13,1,0.2,0.8,0.6,0.4,,,,,,,,,,,,,,,0.389,,0.8,0.2,0.4,0.6,0.6,0.4,0.8,0.2,,,0.3917,,0.2,0.8,0.2,0.8,0.6,0.4,0.8,0.2,1,0
,,66378dbfb9c884b35b7c3c09,66fc997acf04201ab0491d45,2024-10-02_10h56.34.511,mdp,2024.2.1,MacIntel,29.94011976,66fa4ebf79326e780c390304,,,,,,,,,,,,,,,,,,,,,574.019,574.019,574.0194,574.7855,0,1,left,0.2226,,574.7859,575.8188,1,0,right,575.8193,576.6854,0,1,left,0,576.6855,576.6855,576.6859,578.1855,0,14,14,14,1,0.2,0.8,0.6,0.4,,,,,,,,,,,,,,,0.4888,,0.2,0.8,0.2,0.8,0.6,0.4,0.8,0.2,,,0.3328,,0.2,0.8,0.2,0.8,0.6,0.4,0.8,0.2,1,0
,,66378dbfb9c884b35b7c3c09,66fc997acf04201ab0491d45,2024-10-02_10h56.34.511,mdp,2024.2.1,MacIntel,29.94011976,66fa4ebf79326e780c390304,,,,,,,,,,,,,,,,,,,,,578.1857,578.1857,578.1861,579.0856,0,1,left,0.3559,,579.086,579.9188,0,0,left,579.9193,580.8189,1,0,right,1,580.8189,580.8189,580.8194,582.3188,0,15,15,15,1,0.2,0.8,0.6,0.4,,,,,,,,,,,,,,,0.299,,0.2,0.8,0.2,0.8,0.6,0.4,0.8,0.2,,,0.3558,,0.4,0.6,0.6,0.4,0.6,0.4,0.8,0.2,1,0
,,66378dbfb9c884b35b7c3c09,66fc997acf04201ab0491d45,2024-10-02_10h56.34.511,mdp,2024.2.1,MacIntel,29.94011976,66fa4ebf79326e780c390304,,,,,,,,,,,,,,,,,,,,,582.319,582.319,582.3194,583.219,0,0,left,0.3557,,583.2194,584.1855,0,1,left,584.1859,585.0856,1,0,right,1,585.0856,585.0856,585.086,586.5855,0,16,16,16,1,0.2,0.8,0.6,0.4,,,,,,,,,,,,,,,0.4222,,0.2,0.8,0.2,0.8,0.6,0.4,0.8,0.2,,,0.3889,,0.4,0.6,0.6,0.4,0.6,0.4,0.8,0.2,1,0
,,66378dbfb9c884b35b7c3c09,66fc997acf04201ab0491d45,2024-10-02_10h56.34.511,mdp,2024.2.1,MacIntel,29.94011976,66fa4ebf79326e780c390304,,,,,,,,,,,,,,,,,,,,,586.5857,586.5857,586.5861,587.9189,0,1,left,0.7891,,587.9194,588.8856,0,0,left,588.886,589.5523,1,0,right,1,589.5523,589.5523,589.5527,591.0523,0,17,17,17,1,0.2,0.8,0.6,0.4,,,,,,,,,,,,,,,0.4226,,0.2,0.8,0.2,0.8,0.6,0.4,0.8,0.2,,,0.1227,,0.4,0.6,0.6,0.4,0.6,0.4,0.8,0.2,1,0
,,66378dbfb9c884b35b7c3c09,66fc997acf04201ab0491d45,2024-10-02_10h56.34.511,mdp,2024.2.1,MacIntel,29.94011976,66fa4ebf79326e780c390304,,,,,,,,,,,,,,,,,,,,,591.0524,591.0524,591.0528,591.9189,0,1,left,0.3223,,591.9194,592.819,0,0,left,592.8194,593.6524,1,1,right,0,593.6524,593.6524,593.6528,595.1523,0,18,18,18,1,0.2,0.8,0.6,0.4,,,,,,,,,,,,,,,0.3558,,0.2,0.8,0.2,0.8,0.6,0.4,0.8,0.2,,,0.2891,,0.4,0.6,0.6,0.4,0.6,0.4,0.8,0.2,1,0
,,66378dbfb9c884b35b7c3c09,66fc997acf04201ab0491d45,2024-10-02_10h56.34.511,mdp,2024.2.1,MacIntel,29.94011976,66fa4ebf79326e780c390304,,,,,,,,,,,,,,,,,,,,,595.1524,595.1524,595.1529,596.0524,1,1,right,0.3559,,596.0528,596.9857,0,0,left,596.9862,597.9857,1,0,right,1,597.9858,597.9858,597.9861,599.4856,0,19,19,19,1,0.2,0.8,0.6,0.4,,,,,,,,,,,,,,,0.3892,,0.2,0.8,0.2,0.8,0.6,0.4,0.8,0.2,,,0.4557,,0.4,0.6,0.6,0.4,0.6,0.4,0.8,0.2,1,0
,,66378dbfb9c884b35b7c3c09,66fc997acf04201ab0491d45,2024-10-02_10h56.34.511,mdp,2024.2.1,MacIntel,29.94011976,66fa4ebf79326e780c390304,,,,,,,,,,,,,,,,,,,,,599.4858,599.4859,599.4863,600.3524,1,1,right,0.3226,,600.3528,601.2524,0,1,left,601.2528,602.1524,1,0,right,1,602.1525,602.1525,602.1528,603.6514,0,20,20,20,1,0.2,0.8,0.6,0.4,,,,,,,,,,,,,,,0.3659,,0.2,0.8,0.2,0.8,0.2,0.8,0.6,0.4,,,0.3559,,0.4,0.6,0.6,0.4,0.6,0.4,0.8,0.2,1,0
,,66378dbfb9c884b35b7c3c09,66fc997acf04201ab0491d45,2024-10-02_10h56.34.511,mdp,2024.2.1,MacIntel,29.94011976,66fa4ebf79326e780c390304,,,,,,,,,,,,,,,,,,,,,603.6515,603.6515,603.6519,604.9191,1,0,right,0.7557,,604.9195,605.5514,0,1,left,605.5518,606.1858,1,0,right,1,606.1858,606.1858,606.1862,607.6847,0,21,21,21,1,0.2,0.8,0.6,0.4,,,,,,,,,,,,,,,0.0906,,0.2,0.8,0.2,0.8,0.2,0.8,0.6,0.4,,,0.1233,,0.4,0.6,0.6,0.4,0.6,0.4,0.8,0.2,1,0
,,66378dbfb9c884b35b7c3c09,66fc997acf04201ab0491d45,2024-10-02_10h56.34.511,mdp,2024.2.1,MacIntel,29.94011976,66fa4ebf79326e780c390304,,,,,,,,,,,,,,,,,,,,,607.6849,607.6849,607.6853,608.5858,1,0,right,0.3567,,608.5862,609.2858,0,1,left,609.2863,610.1525,1,0,right,1,610.1525,610.1525,610.1529,611.6524,0,22,22,22,1,0.2,0.8,0.6,0.4,,,,,,,,,,,,,,,0.1556,,0.2,0.8,0.2,0.8,0.2,0.8,0.6,0.4,,,0.3237,,0.4,0.6,0.6,0.4,0.6,0.4,0.8,0.2,1,0
,,66378dbfb9c884b35b7c3c09,66fc997acf04201ab0491d45,2024-10-02_10h56.34.511,mdp,2024.2.1,MacIntel,29.94011976,66fa4ebf79326e780c390304,,,,,,,,,,,,,,,,,,,,,611.6526,611.6526,611.653,613.0525,1,0,right,0.8557,,613.053,613.6858,0,0,left,613.6863,614.5859,1,0,right,1,614.5859,614.5859,614.5863,616.0858,0,23,23,23,1,0.2,0.8,0.6,0.4,,,,,,,,,,,,,,,0.0929,,0.2,0.8,0.2,0.8,0.2,0.8,0.6,0.4,,,0.3891,,0.4,0.6,0.6,0.4,0.6,0.4,0.8,0.2,1,0
,,66378dbfb9c884b35b7c3c09,66fc997acf04201ab0491d45,2024-10-02_10h56.34.511,mdp,2024.2.1,MacIntel,29.94011976,66fa4ebf79326e780c390304,,,,,,,,,,,,,,,,,,,,,616.086,616.086,616.0863,617.5859,1,1,right,0.9558,,617.5863,618.2849,0,0,left,618.2853,619.0849,1,0,right,1,619.0849,619.0849,619.0853,620.5859,0,24,24,24,1,0.2,0.8,0.6,0.4,,,,,,,,,,,,,,,0.1584,,0.2,0.8,0.2,0.8,0.2,0.8,0.6,0.4,,,0.2893,,0.4,0.6,0.6,0.4,0.6,0.4,0.8,0.2,1,0
,,66378dbfb9c884b35b7c3c09,66fc997acf04201ab0491d45,2024-10-02_10h56.34.511,mdp,2024.2.1,MacIntel,29.94011976,66fa4ebf79326e780c390304,,,,,,,,,,,,,,,,,,,,,620.5861,620.5861,620.5865,621.5182,0,1,left,0.3916,,621.5186,622.3183,0,1,left,622.3187,622.9859,1,1,right,0,622.9859,622.9859,622.9864,624.4859,0,25,25,25,1,0.2,0.8,0.6,0.4,,,,,,,,,,,,,,,0.2892,,0.2,0.8,0.2,0.8,0.2,0.8,0.6,0.4,,,0.1548,,0.4,0.6,0.6,0.4,0.4,0.6,0.6,0.4,1,0
,,66378dbfb9c884b35b7c3c09,66fc997acf04201ab0491d45,2024-10-02_10h56.34.511,mdp,2024.2.1,MacIntel,29.94011976,66fa4ebf79326e780c390304,,,,,,,,,,,,,,,,,,,,,624.4861,624.4861,624.4865,625.3526,1,0,right,0.3235,,625.353,626.0849,0,1,left,626.0853,626.8193,1,1,right,0,626.8194,626.8194,626.8198,628.3193,0,26,26,26,1,0.2,0.8,0.6,0.4,,,,,,,,,,,,,,,0.19,,0.2,0.8,0.2,0.8,0.2,0.8,0.6,0.4,,,0.2233,,0.4,0.6,0.6,0.4,0.4,0.6,0.6,0.4,1,0
,,66378dbfb9c884b35b7c3c09,66fc997acf04201ab0491d45,2024-10-02_10h56.34.511,mdp,2024.2.1,MacIntel,29.94011976,66fa4ebf79326e780c390304,,,,,,,,,,,,,,,,,,,,,628.3194,628.3194,628.3198,629.2526,0,1,left,0.3891,,629.2531,630.086,0,1,left,630.0863,630.8526,1,1,right,0,630.8527,630.8527,630.8531,632.3526,0,27,27,27,1,0.2,0.8,0.6,0.4,,,,,,,,,,,,,,,0.2892,,0.2,0.8,0.2,0.8,0.2,0.8,0.6,0.4,,,0.2224,,0.4,0.6,0.6,0.4,0.4,0.6,0.6,0.4,1,0
,,66378dbfb9c884b35b7c3c09,66fc997acf04201ab0491d45,2024-10-02_10h56.34.511,mdp,2024.2.1,MacIntel,29.94011976,66fa4ebf79326e780c390304,,,,,,,,,,,,,,,,,,,,,632.3528,632.3528,632.3531,633.486,1,0,right,0.5901,,633.4864,634.1861,0,1,left,634.1864,634.8194,1,0,right,1,634.8194,634.8194,634.8198,636.3193,0,28,28,28,1,0.2,0.8,0.6,0.4,,,,,,,,,,,,,,,0.1555,,0.2,0.8,0.2,0.8,0.2,0.8,0.6,0.4,,,0.0908,,0.4,0.6,0.6,0.4,0.4,0.6,0.6,0.4,1,0
,,66378dbfb9c884b35b7c3c09,66fc997acf04201ab0491d45,2024-10-02_10h56.34.511,mdp,2024.2.1,MacIntel,29.94011976,66fa4ebf79326e780c390304,,,,,,,,,,,,,,,,,,,,,636.3195,636.3195,636.3198,637.286,1,1,right,0.4225,,637.2864,638.1861,0,1,left,638.1865,639.0194,1,0,right,1,639.0195,639.0195,639.0198,640.5193,0,29,29,29,1,0.2,0.8,0.6,0.4,,,,,,,,,,,,,,,0.3556,,0.2,0.8,0.2,0.8,0.2,0.8,0.6,0.4,,,0.2891,,0.4,0.6,0.6,0.4,0.2,0.8,0.8,0.2,1,0
,,66378dbfb9c884b35b7c3c09,66fc997acf04201ab0491d45,2024-10-02_10h56.34.511,mdp,2024.2.1,MacIntel,29.94011976,66fa4ebf79326e780c390304,,,,,,,,,,,,,,,,,,,,,640.5195,640.5195,640.5199,641.4528,1,0,right,0.3882,,641.4532,642.2518,0,1,left,642.2523,643.1518,1,1,right,0,643.1519,643.1519,643.1523,644.6527,0,30,30,30,1,0.2,0.8,0.6,0.4,,,,,,,,,,,,,,,0.2546,,0.2,0.8,0.2,0.8,0.2,0.8,0.6,0.4,,,0.3548,,0.4,0.6,0.6,0.4,0.2,0.8,0.8,0.2,1,0
,,66378dbfb9c884b35b7c3c09,66fc997acf04201ab0491d45,2024-10-02_10h56.34.511,mdp,2024.2.1,MacIntel,29.94011976,66fa4ebf79326e780c390304,,,,,,,,,,,,,,,,,,,,,644.6529,644.6529,644.6533,645.5518,0,1,left,0.3576,,645.5522,646.4195,1,0,right,646.4199,647.2528,0,1,left,0,647.2528,647.2528,647.2532,648.7518,0,31,31,31,1,0.2,0.8,0.6,0.4,,,,,,,,,,,,,,,0.3555,,0.2,0.8,0.2,0.8,0.2,0.8,0.6,0.4,,,0.2889,,0.4,0.6,0.6,0.4,0.2,0.8,0.8,0.2,1,0
,,66378dbfb9c884b35b7c3c09,66fc997acf04201ab0491d45,2024-10-02_10h56.34.511,mdp,2024.2.1,MacIntel,29.94011976,66fa4ebf79326e780c390304,,,,,,,,,,,,,,,,,,,,,648.752,648.752,648.7523,649.9853,1,0,right,0.6892,,649.9857,650.9195,1,1,right,650.92,651.7528,0,1,left,0,651.7528,651.7528,651.7533,653.2529,0,32,32,32,1,0.2,0.8,0.6,0.4,,,,,,,,,,,,,,,0.4302,,0.2,0.8,0.2,0.8,0.2,0.8,0.6,0.4,,,0.2893,,0.4,0.6,0.6,0.4,0.2,0.8,0.8,0.2,1,0
,,66378dbfb9c884b35b7c3c09,66fc997acf04201ab0491d45,2024-10-02_10h56.34.511,mdp,2024.2.1,MacIntel,29.94011976,66fa4ebf79326e780c390304,,,,,,,,,,,,,,,,,,,,,653.253,653.253,653.2534,654.0196,0,0,left,0.2224,,654.0199,654.9196,0,1,left,654.92,655.6852,1,0,right,1,655.6852,655.6852,655.6856,657.1862,0,33,33,33,1,0.2,0.8,0.6,0.4,,,,,,,,,,,,,,,0.3559,,0.2,0.8,0.2,0.8,0.2,0.8,0.6,0.4,,,0.2225,,0.4,0.6,0.6,0.4,0.2,0.8,0.8,0.2,1,0
,,66378dbfb9c884b35b7c3c09,66fc997acf04201ab0491d45,2024-10-02_10h56.34.511,mdp,2024.2.1,MacIntel,29.94011976,66fa4ebf79326e780c390304,,,,,,,,,,,,,,,,,,,,,657.1864,657.1864,657.1867,658.052,0,1,left,0.3223,,658.0524,658.9529,0,1,left,658.9533,659.6853,1,0,right,1,659.6853,659.6853,659.6858,661.1862,0,34,34,34,1,0.2,0.8,0.6,0.4,,,,,,,,,,,,,,,0.388,,0.2,0.8,0.2,0.8,0.2,0.8,0.6,0.4,,,0.1881,,0.4,0.6,0.6,0.4,0.2,0.8,0.8,0.2,1,0
,,66378dbfb9c884b35b7c3c09,66fc997acf04201ab0491d45,2024-10-02_10h56.34.511,mdp,2024.2.1,MacIntel,29.94011976,66fa4ebf79326e780c390304,,,,,,,,,,,,,,,,,,,,,661.1864,661.1864,661.1867,662.6186,0,1,left,0.8897,,662.6191,663.5521,0,1,left,663.5524,664.452,1,1,right,0,664.4521,664.4521,664.4525,665.952,0,35,35,35,1,0.2,0.8,0.6,0.4,,,,,,,,,,,,,,,0.3881,,0.2,0.8,0.2,0.8,0.2,0.8,0.6,0.4,,,0.358,,0.4,0.6,0.6,0.4,0.2,0.8,0.8,0.2,1,0
,,66378dbfb9c884b35b7c3c09,66fc997acf04201ab0491d45,2024-10-02_10h56.34.511,mdp,2024.2.1,MacIntel,29.94011976,66fa4ebf79326e780c390304,,,,,,,,,,,,,,,,,,,,,665.9522,665.9522,665.9525,666.8854,1,1,right,0.3891,,666.8858,667.6187,1,1,right,667.6191,668.2863,0,1,left,0,668.2863,668.2863,668.2868,669.7854,0,36,36,36,1,0.2,0.8,0.6,0.4,,,,,,,,,,,,,,,0.1927,,0.2,0.8,0.2,0.8,0.2,0.8,0.6,0.4,,,0.1653,,0.4,0.6,0.6,0.4,0.2,0.8,0.8,0.2,1,0
,,66378dbfb9c884b35b7c3c09,66fc997acf04201ab0491d45,2024-10-02_10h56.34.511,mdp,2024.2.1,MacIntel,29.94011976,66fa4ebf79326e780c390304,,,,,,,,,,,,,,,,,,,,,669.7856,669.7856,669.7859,670.3197,0,0,left,0.0238,,670.3201,671.1863,1,0,right,671.1868,671.9864,0,1,left,0,671.9864,671.9864,671.9868,673.4853,0,37,37,37,1,0.2,0.8,0.6,0.4,,,,,,,,,,,,,,,0.3223,,0.2,0.8,0.2,0.8,0.2,0.8,0.6,0.4,,,0.2651,,0.4,0.6,0.6,0.4,0.2,0.8,0.8,0.2,1,0
,,66378dbfb9c884b35b7c3c09,66fc997acf04201ab0491d45,2024-10-02_10h56.34.511,mdp,2024.2.1,MacIntel,29.94011976,66fa4ebf79326e780c390304,,,,,,,,,,,,,,,,,,,,,673.4855,673.4855,673.4859,674.3197,0,1,left,0.3226,,674.3202,675.0864,1,1,right,675.0869,675.9188,0,0,left,1,675.9188,675.9188,675.9192,677.4188,0,38,38,38,1,0.2,0.8,0.6,0.4,,,,,,,,,,,,,,,0.2222,,0.2,0.8,0.2,0.8,0.2,0.8,0.6,0.4,,,0.2909,,0.4,0.6,0.6,0.4,0.2,0.8,0.8,0.2,1,0
,,66378dbfb9c884b35b7c3c09,66fc997acf04201ab0491d45,2024-10-02_10h56.34.511,mdp,2024.2.1,MacIntel,29.94011976,66fa4ebf79326e780c390304,,,,,,,,,,,,,,,,,,,,,677.419,677.419,677.4193,677.9865,1,1,right,0.0225,,677.9868,678.6855,0,1,left,678.6859,679.3188,1,1,right,0,679.3188,679.3188,679.3193,680.8198,0,39,39,39,1,0.2,0.8,0.6,0.4,,,,,,,,,,,,,,,0.1557,,0.2,0.8,0.2,0.8,0.2,0.8,0.6,0.4,,,0.0892,,0.4,0.6,0.6,0.4,0.2,0.8,0.8,0.2,1,0
,,66378dbfb9c884b35b7c3c09,66fc997acf04201ab0491d45,2024-10-02_10h56.34.511,mdp,2024.2.1,MacIntel,29.94011976,66fa4ebf79326e780c390304,,,,,,,,,,,,,,,,,,,,,680.8199,680.8199,680.8203,681.7865,0,1,left,0.4223,,681.787,682.4531,1,0,right,682.4535,683.1188,0,1,left,0,683.1189,683.1189,683.1193,684.6198,0,40,40,40,1,0.2,0.8,0.6,0.4,,,,,,,,,,,,,,,0.1259,,0.6,0.4,0.8,0.2,0.2,0.8,0.6,0.4,,,0.1233,,0.4,0.6,0.6,0.4,0.2,0.8,0.8,0.2,1,0
,,66378dbfb9c884b35b7c3c09,66fc997acf04201ab0491d45,2024-10-02_10h56.34.511,mdp,2024.2.1,MacIntel,29.94011976,66fa4ebf79326e780c390304,,,,,,,,,,,,,,,,,,,,,684.62,684.62,684.6204,685.2199,0,1,left,0.0548,,685.2203,686.3532,1,1,right,686.3536,687.3189,1,0,right,1,687.3189,687.3189,687.3193,688.8198,0,41,41,41,1,0.2,0.8,0.6,0.4,,,,,,,,,,,,,,,0.588,,0.6,0.4,0.8,0.2,0.2,0.8,0.6,0.4,,,0.4223,,0.4,0.6,0.6,0.4,0.2,0.8,0.8,0.2,1,0
,,66378dbfb9c884b35b7c3c09,66fc997acf04201ab0491d45,2024-10-02_10h56.34.511,mdp,2024.2.1,MacIntel,29.94011976,66fa4ebf79326e780c390304,,,,,,,,,,,,,,,,,,,,,688.82,688.82,688.8205,689.7199,0,1,left,0.3559,,689.7203,690.5865,1,0,right,690.587,691.6523,1,0,right,1,691.6523,691.6523,691.6528,693.1522,0,42,42,42,1,0.2,0.8,0.6,0.4,,,,,,,,,,,,,,,0.3225,,0.6,0.4,0.8,0.2,0.2,0.8,0.6,0.4,,,0.5223,,0.4,0.6,0.6,0.4,0.2,0.8,0.8,0.2,1,0
,,66378dbfb9c884b35b7c3c09,66fc997acf04201ab0491d45,2024-10-02_10h56.34.511,mdp,2024.2.1,MacIntel,29.94011976,66fa4ebf79326e780c390304,,,,,,,,,,,,,,,,,,,,,693.1524,693.1524,693.1528,694.2533,0,1,left,0.5559,,694.2537,695.3857,0,1,left,695.3861,696.2524,1,0,right,1,696.2524,696.2524,696.2528,697.7523,0,43,43,43,1,0.2,0.8,0.6,0.4,,,,,,,,,,,,,,,0.5882,,0.6,0.4,0.8,0.2,0.2,0.8,0.6,0.4,,,0.3233,,0.4,0.6,0.6,0.4,0.4,0.6,0.4,0.6,1,0
,,66378dbfb9c884b35b7c3c09,66fc997acf04201ab0491d45,2024-10-02_10h56.34.511,mdp,2024.2.1,MacIntel,29.94011976,66fa4ebf79326e780c390304,,,,,,,,,,,,,,,,,,,,,697.7525,697.7525,697.7529,698.6857,1,1,right,0.4215,,698.6861,699.5199,1,1,right,699.5203,700.3524,0,1,left,0,700.3525,700.3525,700.3528,701.8532,0,44,44,44,1,0.2,0.8,0.6,0.4,,,,,,,,,,,,,,,0.289,,0.6,0.4,0.8,0.2,0.2,0.8,0.6,0.4,,,0.2888,,0.4,0.6,0.6,0.4,0.4,0.6,0.4,0.6,1,0
,,66378dbfb9c884b35b7c3c09,66fc997acf04201ab0491d45,2024-10-02_10h56.34.511,mdp,2024.2.1,MacIntel,29.94011976,66fa4ebf79326e780c390304,,,,,,,,,,,,,,,,,,,,,701.8534,701.8534,701.8538,702.7191,0,1,left,0.3242,,702.7195,703.5523,0,0,left,703.5528,704.2866,1,1,right,0,704.2866,704.2867,704.287,705.7866,0,45,45,45,1,0.2,0.8,0.6,0.4,,,,,,,,,,,,,,,0.289,,0.6,0.4,0.8,0.2,0.2,0.8,0.6,0.4,,,0.2216,,0.4,0.6,0.6,0.4,0.6,0.4,0.8,0.2,1,0
,,66378dbfb9c884b35b7c3c09,66fc997acf04201ab0491d45,2024-10-02_10h56.34.511,mdp,2024.2.1,MacIntel,29.94011976,66fa4ebf79326e780c390304,,,,,,,,,,,,,,,,,,,,,705.7868,705.7868,705.7872,706.5533,1,0,right,0.2246,,706.5537,707.3534,0,0,left,707.3537,707.9524,1,0,right,1,707.9524,707.9524,707.9528,709.4533,0,46,46,46,1,0.2,0.8,0.6,0.4,,,,,,,,,,,,,,,0.2559,,0.6,0.4,0.8,0.2,0.2,0.8,0.6,0.4,,,0.0558,,0.4,0.6,0.6,0.4,0.6,0.4,0.8,0.2,1,0
,,66378dbfb9c884b35b7c3c09,66fc997acf04201ab0491d45,2024-10-02_10h56.34.511,mdp,2024.2.1,MacIntel,29.94011976,66fa4ebf79326e780c390304,,,,,,,,,,,,,,,,,,,,,709.4535,709.4535,709.4539,710.3525,1,0,right,0.3559,,710.3529,710.9525,0,1,left,710.9529,711.5867,1,0,right,1,711.5868,711.5868,711.5872,713.0867,0,47,47,47,1,0.2,0.8,0.6,0.4,,,,,,,,,,,,,,,0.0881,,0.6,0.4,0.8,0.2,0.2,0.8,0.6,0.4,,,0.089,,0.4,0.6,0.6,0.4,0.6,0.4,0.8,0.2,1,0
,,66378dbfb9c884b35b7c3c09,66fc997acf04201ab0491d45,2024-10-02_10h56.34.511,mdp,2024.2.1,MacIntel,29.94011976,66fa4ebf79326e780c390304,,,,,,,,,,,,,,,,,,,,,713.0869,713.0869,713.0872,713.9867,1,0,right,0.3549,,713.9872,714.5859,0,1,left,714.5862,715.1868,1,0,right,1,715.1868,715.1868,715.1872,716.6866,0,48,48,48,1,0.2,0.8,0.6,0.4,,,,,,,,,,,,,,,0.0552,,0.4,0.6,0.4,0.6,0.2,0.8,0.6,0.4,,,0.0889,,0.4,0.6,0.6,0.4,0.6,0.4,0.8,0.2,1,0
,,66378dbfb9c884b35b7c3c09,66fc997acf04201ab0491d45,2024-10-02_10h56.34.511,mdp,2024.2.1,MacIntel,29.94011976,66fa4ebf79326e780c390304,,,,,,,,,,,,,,,,,,,,,716.6869,716.6869,716.6873,717.6201,1,0,right,0.3892,,717.6205,718.1867,0,1,left,718.1872,719.2535,1,0,right,1,719.2535,719.2536,719.254,720.7525,0,49,49,49,1,0.2,0.8,0.6,0.4,,,,,,,,,,,,,,,0.0224,,0.4,0.6,0.4,0.6,0.2,0.8,0.6,0.4,,,0.5214,,0.4,0.6,0.6,0.4,0.6,0.4,0.8,0.2,1,0
,,66378dbfb9c884b35b7c3c09,66fc997acf04201ab0491d45,2024-10-02_10h56.34.511,mdp,2024.2.1,MacIntel,29.94011976,66fa4ebf79326e780c390304,,,,,,,,,,,,,,,,,,,,,,,,,,,,,,,,,,,,,,,,,,,,,,,,,,,,,,,,720.7526,779.2539,0,2,2,7,1,imgs/goat.png,imgs/lion.png,imgs/giraffe.png,imgs/dog.png,imgs/bear.png,,,,,,,,,,,,,,,,,,,,,,,,
,,66378dbfb9c884b35b7c3c09,66fc997acf04201ab0491d45,2024-10-02_10h56.34.511,mdp,2024.2.1,MacIntel,29.94011976,66fa4ebf79326e780c390304,,,,,,,,,,,,,,3,seqs/st3seq34.csv,779.2608,784.0541,space,4.2558,,784.0634,784.0634,784.0638,785.254,0,1,left,0.6574,,785.2545,785.9207,0,0,left,785.9212,786.5206,1,0,right,1,786.5207,786.5207,786.5211,788.0207,0,0,0,0,1,0.2,0.8,0.6,0.4,,,,,,,,,,,,,,,0.1313,,0.8,0.2,0.4,0.6,0.8,0.2,0.2,0.8,,,0.0653,,0.8,0.2,0.4,0.6,0.6,0.4,0.8,0.2,1,0
,,66378dbfb9c884b35b7c3c09,66fc997acf04201ab0491d45,2024-10-02_10h56.34.511,mdp,2024.2.1,MacIntel,29.94011976,66fa4ebf79326e780c390304,,,,,,,,,,,,,,,,,,,,,788.0209,788.0209,788.0213,788.9874,0,1,left,0.4225,,788.9878,789.6541,0,0,left,789.6545,790.2208,1,0,right,1,790.2208,790.2208,790.2212,791.7207,0,1,1,1,1,0.2,0.8,0.6,0.4,,,,,,,,,,,,,,,0.1221,,0.8,0.2,0.4,0.6,0.8,0.2,0.2,0.8,,,0.0225,,0.8,0.2,0.4,0.6,0.6,0.4,0.8,0.2,1,0
,,66378dbfb9c884b35b7c3c09,66fc997acf04201ab0491d45,2024-10-02_10h56.34.511,mdp,2024.2.1,MacIntel,29.94011976,66fa4ebf79326e780c390304,,,,,,,,,,,,,,,,,,,,,791.7209,791.7209,791.7213,792.8541,0,1,left,0.589,,792.8545,793.7208,0,0,left,793.7212,794.4208,1,0,right,1,794.4208,794.4208,794.4212,795.9207,0,2,2,2,1,0.2,0.8,0.6,0.4,,,,,,,,,,,,,,,0.3224,,0.8,0.2,0.4,0.6,0.8,0.2,0.2,0.8,,,0.1558,,0.8,0.2,0.4,0.6,0.6,0.4,0.8,0.2,1,0
,,66378dbfb9c884b35b7c3c09,66fc997acf04201ab0491d45,2024-10-02_10h56.34.511,mdp,2024.2.1,MacIntel,29.94011976,66fa4ebf79326e780c390304,,,,,,,,,,,,,,,,,,,,,795.921,795.921,795.9213,796.6875,0,0,left,0.2225,,796.6879,797.4875,0,0,left,797.488,798.1874,1,0,right,1,798.1874,798.1874,798.1879,799.6875,0,3,3,3,1,0.2,0.8,0.6,0.4,,,,,,,,,,,,,,,0.2565,,0.8,0.2,0.4,0.6,0.8,0.2,0.2,0.8,,,0.1559,,0.8,0.2,0.4,0.6,0.6,0.4,0.8,0.2,1,0
,,66378dbfb9c884b35b7c3c09,66fc997acf04201ab0491d45,2024-10-02_10h56.34.511,mdp,2024.2.1,MacIntel,29.94011976,66fa4ebf79326e780c390304,,,,,,,,,,,,,,,,,,,,,799.6876,799.6876,799.688,800.6541,0,1,left,0.4224,,800.6546,801.4875,0,0,left,801.4879,802.3875,1,1,right,0,802.3875,802.3875,802.3879,803.8874,0,4,4,4,1,0.2,0.8,0.6,0.4,,,,,,,,,,,,,,,0.2996,,0.8,0.2,0.4,0.6,0.8,0.2,0.2,0.8,,,0.3561,,0.8,0.2,0.4,0.6,0.6,0.4,0.8,0.2,1,0
,,66378dbfb9c884b35b7c3c09,66fc997acf04201ab0491d45,2024-10-02_10h56.34.511,mdp,2024.2.1,MacIntel,29.94011976,66fa4ebf79326e780c390304,,,,,,,,,,,,,,,,,,,,,803.8876,803.8876,803.888,804.8542,0,1,left,0.4224,,804.8546,805.8208,1,1,right,805.8213,806.5542,0,1,left,0,806.5543,806.5543,806.5546,808.0542,0,5,5,5,1,0.2,0.8,0.6,0.4,,,,,,,,,,,,,,,0.4224,,0.8,0.2,0.4,0.6,0.8,0.2,0.2,0.8,,,0.189,,0.8,0.2,0.4,0.6,0.6,0.4,0.8,0.2,1,0
,,66378dbfb9c884b35b7c3c09,66fc997acf04201ab0491d45,2024-10-02_10h56.34.511,mdp,2024.2.1,MacIntel,29.94011976,66fa4ebf79326e780c390304,,,,,,,,,,,,,,,,,,,,,808.0544,808.0544,808.0547,809.0876,1,0,right,0.499,,809.0879,809.9209,1,1,right,809.9213,810.6209,0,0,left,1,810.621,810.621,810.6214,812.1209,0,6,6,6,1,0.8,0.2,0.4,0.6,,,,,,,,,,,,,,,0.289,,0.8,0.2,0.4,0.6,0.8,0.2,0.2,0.8,,,0.1585,,0.8,0.2,0.4,0.6,0.6,0.4,0.8,0.2,1,0
,,66378dbfb9c884b35b7c3c09,66fc997acf04201ab0491d45,2024-10-02_10h56.34.511,mdp,2024.2.1,MacIntel,29.94011976,66fa4ebf79326e780c390304,,,,,,,,,,,,,,,,,,,,,812.1211,812.1211,812.1214,813.421,1,1,right,0.7558,,813.4214,814.321,1,0,right,814.3214,815.2543,0,0,left,1,815.2543,815.2543,815.2548,816.7542,0,7,7,7,1,0.8,0.2,0.4,0.6,,,,,,,,,,,,,,,0.3557,,0.8,0.2,0.4,0.6,0.8,0.2,0.2,0.8,,,0.3887,,0.8,0.2,0.4,0.6,0.6,0.4,0.8,0.2,1,0
,,66378dbfb9c884b35b7c3c09,66fc997acf04201ab0491d45,2024-10-02_10h56.34.511,mdp,2024.2.1,MacIntel,29.94011976,66fa4ebf79326e780c390304,,,,,,,,,,,,,,,,,,,,,816.7544,816.7544,816.7548,817.521,1,1,right,0.2224,,817.5214,818.421,1,1,right,818.4214,819.3543,0,0,left,1,819.3543,819.3543,819.3548,820.8542,0,8,8,8,1,0.8,0.2,0.4,0.6,,,,,,,,,,,,,,,0.3559,,0.8,0.2,0.4,0.6,0.8,0.2,0.2,0.8,,,0.389,,0.8,0.2,0.4,0.6,0.6,0.4,0.8,0.2,1,0
,,66378dbfb9c884b35b7c3c09,66fc997acf04201ab0491d45,2024-10-02_10h56.34.511,mdp,2024.2.1,MacIntel,29.94011976,66fa4ebf79326e780c390304,,,,,,,,,,,,,,,,,,,,,820.8544,820.8545,820.8548,829.221,0,0,left,7.8253,,829.2282,829.9211,0,0,left,829.9215,830.5544,1,1,right,0,830.5544,830.5544,830.5548,832.0543,0,9,9,9,1,0.8,0.2,0.4,0.6,,,,,,,,,,,,,,,0.1557,,0.8,0.2,0.4,0.6,0.8,0.2,0.2,0.8,,,0.0889,,0.8,0.2,0.4,0.6,0.6,0.4,0.8,0.2,1,0
,,66378dbfb9c884b35b7c3c09,66fc997acf04201ab0491d45,2024-10-02_10h56.34.511,mdp,2024.2.1,MacIntel,29.94011976,66fa4ebf79326e780c390304,,,,,,,,,,,,,,,,,,,,,832.0546,832.0546,832.055,832.9878,1,0,right,0.3893,,832.9882,833.7544,0,1,left,833.7549,834.5878,1,0,right,1,834.5879,834.5879,834.5882,836.0878,0,10,10,10,1,0.8,0.2,0.4,0.6,,,,,,,,,,,,,,,0.2223,,0.8,0.2,0.4,0.6,0.8,0.2,0.2,0.8,,,0.2889,,0.8,0.2,0.4,0.6,0.6,0.4,0.8,0.2,1,0
,,66378dbfb9c884b35b7c3c09,66fc997acf04201ab0491d45,2024-10-02_10h56.34.511,mdp,2024.2.1,MacIntel,29.94011976,66fa4ebf79326e780c390304,,,,,,,,,,,,,,,,,,,,,836.0879,836.0879,836.0883,837.5545,1,0,right,0.9325,,837.5549,838.4546,0,0,left,838.4551,839.3545,1,0,right,1,839.3546,839.3546,839.355,840.8544,0,11,11,11,1,0.8,0.2,0.4,0.6,,,,,,,,,,,,,,,0.3666,,0.8,0.2,0.4,0.6,0.8,0.2,0.2,0.8,,,0.3556,,0.8,0.2,0.4,0.6,0.6,0.4,0.8,0.2,1,0
,,66378dbfb9c884b35b7c3c09,66fc997acf04201ab0491d45,2024-10-02_10h56.34.511,mdp,2024.2.1,MacIntel,29.94011976,66fa4ebf79326e780c390304,,,,,,,,,,,,,,,,,,,,,840.8546,840.8546,840.855,842.2878,1,1,right,0.8892,,842.2883,843.1212,0,0,left,843.1216,843.8878,1,1,right,0,843.8879,843.8879,843.8883,845.3878,0,12,12,12,1,0.8,0.2,0.4,0.6,,,,,,,,,,,,,,,0.2892,,0.8,0.2,0.4,0.6,0.8,0.2,0.2,0.8,,,0.2224,,0.8,0.2,0.4,0.6,0.6,0.4,0.8,0.2,1,0
,,66378dbfb9c884b35b7c3c09,66fc997acf04201ab0491d45,2024-10-02_10h56.34.511,mdp,2024.2.1,MacIntel,29.94011976,66fa4ebf79326e780c390304,,,,,,,,,,,,,,,,,,,,,845.3879,845.3879,845.3883,845.9879,0,0,left,0.0558,,845.9883,846.7212,1,0,right,846.7216,847.4879,0,1,left,0,847.488,847.488,847.4883,848.9878,0,13,13,13,1,0.8,0.2,0.4,0.6,,,,,,,,,,,,,,,0.191,,0.8,0.2,0.4,0.6,0.8,0.2,0.2,0.8,,,0.2225,,0.8,0.2,0.4,0.6,0.2,0.8,0.4,0.6,1,0
,,66378dbfb9c884b35b7c3c09,66fc997acf04201ab0491d45,2024-10-02_10h56.34.511,mdp,2024.2.1,MacIntel,29.94011976,66fa4ebf79326e780c390304,,,,,,,,,,,,,,,,,,,,,848.9881,848.9881,848.9884,850.2213,0,0,left,0.688,,850.2217,850.988,1,1,right,850.9883,852.888,0,1,left,0,852.888,852.888,852.8885,854.3879,0,14,14,14,1,0.8,0.2,0.4,0.6,,,,,,,,,,,,,,,0.2234,,0.8,0.2,0.4,0.6,0.8,0.2,0.2,0.8,,,1.3548,,0.8,0.2,0.4,0.6,0.2,0.8,0.4,0.6,1,0
,,66378dbfb9c884b35b7c3c09,66fc997acf04201ab0491d45,2024-10-02_10h56.34.511,mdp,2024.2.1,MacIntel,29.94011976,66fa4ebf79326e780c390304,,,,,,,,,,,,,,,,,,,,,854.3881,854.3881,854.3884,856.7879,0,1,left,1.856,,856.7885,857.488,0,0,left,857.4884,858.288,1,1,right,0,858.288,858.288,858.2885,859.7879,0,15,15,15,1,0.8,0.2,0.4,0.6,,,,,,,,,,,,,,,0.1557,,0.8,0.2,0.4,0.6,0.8,0.2,0.2,0.8,,,0.2559,,0.8,0.2,0.4,0.6,0.2,0.8,0.4,0.6,1,0
,,66378dbfb9c884b35b7c3c09,66fc997acf04201ab0491d45,2024-10-02_10h56.34.511,mdp,2024.2.1,MacIntel,29.94011976,66fa4ebf79326e780c390304,,,,,,,,,,,,,,,,,,,,,859.7882,859.7882,859.7885,860.6546,1,0,right,0.3226,,860.6551,861.4213,0,0,left,861.4218,862.1546,1,0,right,1,862.1546,862.1546,862.155,863.6546,0,16,16,16,1,0.8,0.2,0.4,0.6,,,,,,,,,,,,,,,0.2329,,0.8,0.2,0.4,0.6,0.8,0.2,0.2,0.8,,,0.225,,0.8,0.2,0.4,0.6,0.2,0.8,0.4,0.6,1,0
,,66378dbfb9c884b35b7c3c09,66fc997acf04201ab0491d45,2024-10-02_10h56.34.511,mdp,2024.2.1,MacIntel,29.94011976,66fa4ebf79326e780c390304,,,,,,,,,,,,,,,,,,,,,863.6548,863.6548,863.6552,864.5214,1,1,right,0.3227,,864.5218,865.2548,1,1,right,865.2552,865.9215,0,1,left,0,865.9216,865.9216,865.9219,867.4214,0,17,17,17,1,0.8,0.2,0.4,0.6,,,,,,,,,,,,,,,0.1891,,0.8,0.2,0.4,0.6,0.8,0.2,0.2,0.8,,,0.1331,,0.8,0.2,0.4,0.6,0.2,0.8,0.4,0.6,1,0
,,66378dbfb9c884b35b7c3c09,66fc997acf04201ab0491d45,2024-10-02_10h56.34.511,mdp,2024.2.1,MacIntel,29.94011976,66fa4ebf79326e780c390304,,,,,,,,,,,,,,,,,,,,,867.4216,867.4216,867.4219,868.1214,1,1,right,0.1559,,868.1218,868.9881,1,1,right,868.9885,869.8548,0,1,left,0,869.8548,869.8548,869.8553,871.3547,0,18,18,18,1,0.8,0.2,0.4,0.6,,,,,,,,,,,,,,,0.3557,,0.8,0.2,0.4,0.6,0.4,0.6,0.4,0.6,,,0.3226,,0.8,0.2,0.4,0.6,0.2,0.8,0.4,0.6,1,0
,,66378dbfb9c884b35b7c3c09,66fc997acf04201ab0491d45,2024-10-02_10h56.34.511,mdp,2024.2.1,MacIntel,29.94011976,66fa4ebf79326e780c390304,,,,,,,,,,,,,,,,,,,,,871.3549,871.3549,871.3554,873.3881,1,0,right,1.4892,,873.3886,874.2548,1,1,right,874.2552,874.9882,0,1,left,0,874.9882,874.9882,874.9886,876.4881,0,19,19,19,1,0.8,0.2,0.4,0.6,,,,,,,,,,,,,,,0.3223,,0.8,0.2,0.4,0.6,0.4,0.6,0.4,0.6,,,0.1891,,0.8,0.2,0.4,0.6,0.2,0.8,0.4,0.6,1,0
,,66378dbfb9c884b35b7c3c09,66fc997acf04201ab0491d45,2024-10-02_10h56.34.511,mdp,2024.2.1,MacIntel,29.94011976,66fa4ebf79326e780c390304,,,,,,,,,,,,,,,,,,,,,876.4883,876.4883,876.4886,877.1882,1,1,right,0.1557,,877.1885,877.8882,0,1,left,877.8886,878.6549,1,1,right,0,878.6549,878.6549,878.6552,880.1548,0,20,20,20,1,0.8,0.2,0.4,0.6,,,,,,,,,,,,,,,0.1558,,0.8,0.2,0.4,0.6,0.4,0.6,0.4,0.6,,,0.2225,,0.8,0.2,0.4,0.6,0.2,0.8,0.4,0.6,1,0
,,66378dbfb9c884b35b7c3c09,66fc997acf04201ab0491d45,2024-10-02_10h56.34.511,mdp,2024.2.1,MacIntel,29.94011976,66fa4ebf79326e780c390304,,,,,,,,,,,,,,,,,,,,,880.155,880.155,880.1554,881.2881,1,0,right,0.5964,,881.2886,882.1215,0,1,left,882.1219,882.9215,1,0,right,1,882.9216,882.9216,882.922,884.4215,0,21,21,21,1,0.8,0.2,0.4,0.6,,,,,,,,,,,,,,,0.2893,,0.8,0.2,0.4,0.6,0.4,0.6,0.4,0.6,,,0.2893,,0.8,0.2,0.4,0.6,0.2,0.8,0.4,0.6,1,0
,,66378dbfb9c884b35b7c3c09,66fc997acf04201ab0491d45,2024-10-02_10h56.34.511,mdp,2024.2.1,MacIntel,29.94011976,66fa4ebf79326e780c390304,,,,,,,,,,,,,,,,,,,,,884.4217,884.4217,884.422,885.5216,1,1,right,0.5559,,885.522,886.3216,0,0,left,886.322,887.2216,1,1,right,0,887.2216,887.2216,887.2219,888.7215,0,22,22,22,1,0.8,0.2,0.4,0.6,,,,,,,,,,,,,,,0.2557,,0.8,0.2,0.4,0.6,0.4,0.6,0.4,0.6,,,0.3558,,0.8,0.2,0.4,0.6,0.2,0.8,0.4,0.6,1,0
,,66378dbfb9c884b35b7c3c09,66fc997acf04201ab0491d45,2024-10-02_10h56.34.511,mdp,2024.2.1,MacIntel,29.94011976,66fa4ebf79326e780c390304,,,,,,,,,,,,,,,,,,,,,888.7217,888.7218,888.7221,889.7549,1,0,right,0.4889,,889.7554,890.5216,1,0,right,890.522,891.5883,0,1,left,0,891.5883,891.5883,891.5887,893.0882,0,23,23,23,1,0.8,0.2,0.4,0.6,,,,,,,,,,,,,,,0.2224,,0.8,0.2,0.4,0.6,0.4,0.6,0.4,0.6,,,0.5224,,0.4,0.6,0.8,0.2,0.2,0.8,0.4,0.6,1,0
,,66378dbfb9c884b35b7c3c09,66fc997acf04201ab0491d45,2024-10-02_10h56.34.511,mdp,2024.2.1,MacIntel,29.94011976,66fa4ebf79326e780c390304,,,,,,,,,,,,,,,,,,,,,893.0884,893.0884,893.0888,894.3216,0,0,left,0.6996,,894.322,895.2883,1,1,right,895.2887,896.055,0,1,left,0,896.055,896.055,896.0554,897.5549,0,24,24,24,1,0.8,0.2,0.4,0.6,,,,,,,,,,,,,,,0.4223,,0.8,0.2,0.4,0.6,0.4,0.6,0.4,0.6,,,0.2583,,0.4,0.6,0.8,0.2,0.2,0.8,0.4,0.6,1,0
,,66378dbfb9c884b35b7c3c09,66fc997acf04201ab0491d45,2024-10-02_10h56.34.511,mdp,2024.2.1,MacIntel,29.94011976,66fa4ebf79326e780c390304,,,,,,,,,,,,,,,,,,,,,897.5551,897.5551,897.5554,898.755,0,0,left,0.6557,,898.7554,899.555,1,1,right,899.5554,900.3217,0,1,left,0,900.3217,900.3217,900.3221,901.8216,0,25,25,25,1,0.8,0.2,0.4,0.6,,,,,,,,,,,,,,,0.2559,,0.8,0.2,0.4,0.6,0.4,0.6,0.4,0.6,,,0.2226,,0.4,0.6,0.8,0.2,0.2,0.8,0.4,0.6,1,0
,,66378dbfb9c884b35b7c3c09,66fc997acf04201ab0491d45,2024-10-02_10h56.34.511,mdp,2024.2.1,MacIntel,29.94011976,66fa4ebf79326e780c390304,,,,,,,,,,,,,,,,,,,,,901.8218,901.8218,901.8222,902.9217,0,1,left,0.5658,,902.9222,903.8883,0,1,left,903.8888,904.8217,1,1,right,0,904.8217,904.8217,904.8222,906.3217,0,26,26,26,1,0.8,0.2,0.4,0.6,,,,,,,,,,,,,,,0.425,,0.8,0.2,0.4,0.6,0.4,0.6,0.4,0.6,,,0.3989,,0.4,0.6,0.8,0.2,0.2,0.8,0.4,0.6,1,0
,,66378dbfb9c884b35b7c3c09,66fc997acf04201ab0491d45,2024-10-02_10h56.34.511,mdp,2024.2.1,MacIntel,29.94011976,66fa4ebf79326e780c390304,,,,,,,,,,,,,,,,,,,,,906.3219,906.3219,906.3222,907.8884,0,0,left,1.0224,,907.8888,908.7884,0,0,left,908.7888,909.6884,1,0,right,1,909.6884,909.6884,909.6888,911.1883,0,27,27,27,1,0.8,0.2,0.4,0.6,,,,,,,,,,,,,,,0.3557,,0.8,0.2,0.4,0.6,0.4,0.6,0.4,0.6,,,0.3557,,0.4,0.6,0.8,0.2,0.6,0.4,0.2,0.8,1,0
,,66378dbfb9c884b35b7c3c09,66fc997acf04201ab0491d45,2024-10-02_10h56.34.511,mdp,2024.2.1,MacIntel,29.94011976,66fa4ebf79326e780c390304,,,,,,,,,,,,,,,,,,,,,911.1886,911.1886,911.1889,912.4551,0,0,left,0.7223,,912.4556,913.5218,0,0,left,913.5222,914.3218,1,0,right,1,914.3218,914.3218,914.3222,915.8218,0,28,28,28,1,0.8,0.2,0.4,0.6,,,,,,,,,,,,,,,0.5225,,0.8,0.2,0.4,0.6,0.4,0.6,0.4,0.6,,,0.2558,,0.4,0.6,0.8,0.2,0.6,0.4,0.2,0.8,1,0
,,66378dbfb9c884b35b7c3c09,66fc997acf04201ab0491d45,2024-10-02_10h56.34.511,mdp,2024.2.1,MacIntel,29.94011976,66fa4ebf79326e780c390304,,,,,,,,,,,,,,,,,,,,,915.822,915.822,915.8223,917.7218,1,0,right,1.3558,,917.7222,918.7552,1,1,right,918.7556,919.5217,0,0,left,1,919.5217,919.5217,919.5221,921.0218,0,29,29,29,1,0.8,0.2,0.4,0.6,,,,,,,,,,,,,,,0.4892,,0.8,0.2,0.4,0.6,0.4,0.6,0.4,0.6,,,0.2222,,0.4,0.6,0.8,0.2,0.6,0.4,0.2,0.8,1,0
,,66378dbfb9c884b35b7c3c09,66fc997acf04201ab0491d45,2024-10-02_10h56.34.511,mdp,2024.2.1,MacIntel,29.94011976,66fa4ebf79326e780c390304,,,,,,,,,,,,,,,,,,,,,921.022,921.022,921.0224,922.3552,0,0,left,0.7891,,922.3556,923.3553,0,0,left,923.3556,924.3885,1,0,right,1,924.3885,924.3886,924.3889,925.8885,0,30,30,30,1,0.8,0.2,0.4,0.6,,,,,,,,,,,,,,,0.4558,,0.8,0.2,0.4,0.6,0.4,0.6,0.4,0.6,,,0.4889,,0.4,0.6,0.8,0.2,0.6,0.4,0.2,0.8,1,0
,,66378dbfb9c884b35b7c3c09,66fc997acf04201ab0491d45,2024-10-02_10h56.34.511,mdp,2024.2.1,MacIntel,29.94011976,66fa4ebf79326e780c390304,,,,,,,,,,,,,,,,,,,,,925.8887,925.8887,925.8891,927.522,0,1,left,1.0892,,927.5223,928.4553,0,1,left,928.4557,929.2552,1,1,right,0,929.2553,929.2553,929.2557,930.7553,0,31,31,31,1,0.8,0.2,0.4,0.6,,,,,,,,,,,,,,,0.3892,,0.8,0.2,0.4,0.6,0.4,0.6,0.4,0.6,,,0.2648,,0.4,0.6,0.8,0.2,0.6,0.4,0.2,0.8,1,0
,,66378dbfb9c884b35b7c3c09,66fc997acf04201ab0491d45,2024-10-02_10h56.34.511,mdp,2024.2.1,MacIntel,29.94011976,66fa4ebf79326e780c390304,,,,,,,,,,,,,,,,,,,,,930.7554,930.7554,930.7558,932.3886,0,1,left,1.0891,,932.389,933.2887,0,1,left,933.2891,934.1886,1,1,right,0,934.1887,934.1887,934.1891,935.6886,0,32,32,32,1,0.8,0.2,0.4,0.6,,,,,,,,,,,,,,,0.3558,,0.8,0.2,0.4,0.6,0.4,0.6,0.4,0.6,,,0.3557,,0.4,0.6,0.8,0.2,0.6,0.4,0.2,0.8,1,0
,,66378dbfb9c884b35b7c3c09,66fc997acf04201ab0491d45,2024-10-02_10h56.34.511,mdp,2024.2.1,MacIntel,29.94011976,66fa4ebf79326e780c390304,,,,,,,,,,,,,,,,,,,,,935.6888,935.6888,935.6891,937.1553,0,0,left,0.9224,,937.1558,937.8554,1,0,right,937.8558,938.5553,0,1,left,0,938.5554,938.5554,938.5557,940.0553,0,33,33,33,1,0.8,0.2,0.4,0.6,,,,,,,,,,,,,,,0.1889,,0.8,0.2,0.4,0.6,0.4,0.6,0.4,0.6,,,0.1557,,0.4,0.6,0.8,0.2,0.6,0.4,0.2,0.8,1,0
,,66378dbfb9c884b35b7c3c09,66fc997acf04201ab0491d45,2024-10-02_10h56.34.511,mdp,2024.2.1,MacIntel,29.94011976,66fa4ebf79326e780c390304,,,,,,,,,,,,,,,,,,,,,940.0555,940.0555,940.0559,941.3554,1,0,right,0.7558,,941.3558,942.5887,1,1,right,942.5892,943.5221,0,0,left,1,943.5221,943.5221,943.5224,945.0219,0,34,34,34,1,0.8,0.2,0.4,0.6,,,,,,,,,,,,,,,0.6892,,0.8,0.2,0.4,0.6,0.4,0.6,0.4,0.6,,,0.3889,,0.4,0.6,0.8,0.2,0.6,0.4,0.2,0.8,1,0
,,66378dbfb9c884b35b7c3c09,66fc997acf04201ab0491d45,2024-10-02_10h56.34.511,mdp,2024.2.1,MacIntel,29.94011976,66fa4ebf79326e780c390304,,,,,,,,,,,,,,,,,,,,,945.0222,945.0222,945.0226,946.0221,1,0,right,0.4586,,946.0225,946.9888,1,1,right,946.9892,947.8554,0,1,left,0,947.8555,947.8555,947.8558,949.3554,0,35,35,35,1,0.8,0.2,0.4,0.6,,,,,,,,,,,,,,,0.4253,,0.8,0.2,0.4,0.6,0.4,0.6,0.4,0.6,,,0.3227,,0.4,0.6,0.8,0.2,0.4,0.6,0.4,0.6,1,0
,,66378dbfb9c884b35b7c3c09,66fc997acf04201ab0491d45,2024-10-02_10h56.34.511,mdp,2024.2.1,MacIntel,29.94011976,66fa4ebf79326e780c390304,,,,,,,,,,,,,,,,,,,,,949.3556,949.3556,949.356,950.5554,0,1,left,0.6639,,950.5559,951.5888,1,1,right,951.5892,952.5222,0,1,left,0,952.5222,952.5222,952.5225,954.022,0,36,36,36,1,0.8,0.2,0.4,0.6,,,,,,,,,,,,,,,0.4889,,0.8,0.2,0.4,0.6,0.4,0.6,0.4,0.6,,,0.3891,,0.4,0.6,0.8,0.2,0.4,0.6,0.4,0.6,1,0
,,66378dbfb9c884b35b7c3c09,66fc997acf04201ab0491d45,2024-10-02_10h56.34.511,mdp,2024.2.1,MacIntel,29.94011976,66fa4ebf79326e780c390304,,,,,,,,,,,,,,,,,,,,,954.0222,954.0222,954.0226,954.9221,1,1,right,0.3555,,954.9225,955.6888,0,1,left,955.6892,956.4555,1,0,right,1,956.4555,956.4555,956.456,957.9555,0,37,37,37,1,0.8,0.2,0.4,0.6,,,,,,,,,,,,,,,0.2239,,0.8,0.2,0.4,0.6,0.4,0.6,0.4,0.6,,,0.2223,,0.4,0.6,0.8,0.2,0.4,0.6,0.4,0.6,1,0
,,66378dbfb9c884b35b7c3c09,66fc997acf04201ab0491d45,2024-10-02_10h56.34.511,mdp,2024.2.1,MacIntel,29.94011976,66fa4ebf79326e780c390304,,,,,,,,,,,,,,,,,,,,,957.9556,957.9556,957.956,959.3889,1,1,right,0.8891,,959.3893,960.0221,0,0,left,960.0226,960.8554,1,0,right,1,960.8554,960.8555,960.8558,962.3555,0,38,38,38,1,0.8,0.2,0.4,0.6,,,,,,,,,,,,,,,0.0917,,0.8,0.2,0.4,0.6,0.4,0.6,0.4,0.6,,,0.289,,0.4,0.6,0.8,0.2,0.4,0.6,0.4,0.6,1,0
,,66378dbfb9c884b35b7c3c09,66fc997acf04201ab0491d45,2024-10-02_10h56.34.511,mdp,2024.2.1,MacIntel,29.94011976,66fa4ebf79326e780c390304,,,,,,,,,,,,,,,,,,,,,962.3557,962.3557,962.3561,963.4222,1,0,right,0.5224,,963.4227,964.1889,0,0,left,964.1893,965.0556,1,0,right,1,965.0556,965.0556,965.056,966.5555,0,39,39,39,1,0.8,0.2,0.4,0.6,,,,,,,,,,,,,,,0.2223,,0.8,0.2,0.4,0.6,0.6,0.4,0.6,0.4,,,0.3313,,0.4,0.6,0.8,0.2,0.4,0.6,0.4,0.6,1,0
,,66378dbfb9c884b35b7c3c09,66fc997acf04201ab0491d45,2024-10-02_10h56.34.511,mdp,2024.2.1,MacIntel,29.94011976,66fa4ebf79326e780c390304,,,,,,,,,,,,,,,,,,,,,966.5557,966.5557,966.5561,968.3556,1,1,right,1.2578,,968.356,969.0889,0,0,left,969.0894,969.7556,1,0,right,1,969.7556,969.7556,969.7561,971.2556,0,40,40,40,1,0.2,0.8,0.6,0.4,,,,,,,,,,,,,,,0.1889,,0.8,0.2,0.4,0.6,0.6,0.4,0.6,0.4,,,0.1223,,0.4,0.6,0.8,0.2,0.4,0.6,0.4,0.6,1,0
,,66378dbfb9c884b35b7c3c09,66fc997acf04201ab0491d45,2024-10-02_10h56.34.511,mdp,2024.2.1,MacIntel,29.94011976,66fa4ebf79326e780c390304,,,,,,,,,,,,,,,,,,,,,971.2558,971.2558,971.2561,972.589,1,0,right,0.789,,972.5894,973.2889,0,0,left,973.2893,973.9548,1,1,right,0,973.9548,973.9548,973.9552,975.4546,0,41,41,41,1,0.2,0.8,0.6,0.4,,,,,,,,,,,,,,,0.1558,,0.8,0.2,0.4,0.6,0.6,0.4,0.6,0.4,,,0.1557,,0.4,0.6,0.8,0.2,0.4,0.6,0.4,0.6,1,0
,,66378dbfb9c884b35b7c3c09,66fc997acf04201ab0491d45,2024-10-02_10h56.34.511,mdp,2024.2.1,MacIntel,29.94011976,66fa4ebf79326e780c390304,,,,,,,,,,,,,,,,,,,,,975.4548,975.4548,975.4551,977.489,1,0,right,1.5215,,977.4894,978.1879,0,0,left,978.1884,978.888,1,0,right,1,978.8881,978.8881,978.8884,980.389,0,42,42,42,1,0.2,0.8,0.6,0.4,,,,,,,,,,,,,,,0.1595,,0.8,0.2,0.4,0.6,0.6,0.4,0.6,0.4,,,0.1559,,0.4,0.6,0.8,0.2,0.4,0.6,0.4,0.6,1,0
,,66378dbfb9c884b35b7c3c09,66fc997acf04201ab0491d45,2024-10-02_10h56.34.511,mdp,2024.2.1,MacIntel,29.94011976,66fa4ebf79326e780c390304,,,,,,,,,,,,,,,,,,,,,980.3892,980.3892,980.3895,982.2223,1,1,right,1.2891,,982.2228,983.0223,0,1,left,983.0228,983.6548,1,1,right,0,983.6548,983.6548,983.6552,985.1557,0,43,43,43,1,0.2,0.8,0.6,0.4,,,,,,,,,,,,,,,0.2557,,0.8,0.2,0.4,0.6,0.6,0.4,0.6,0.4,,,0.089,,0.4,0.6,0.8,0.2,0.4,0.6,0.4,0.6,1,0
,,66378dbfb9c884b35b7c3c09,66fc997acf04201ab0491d45,2024-10-02_10h56.34.511,mdp,2024.2.1,MacIntel,29.94011976,66fa4ebf79326e780c390304,,,,,,,,,,,,,,,,,,,,,985.1559,985.1559,985.1562,986.2224,0,1,left,0.5224,,986.2229,986.9557,0,0,left,986.9562,987.7891,1,0,right,1,987.7892,987.7892,987.7896,989.289,0,44,44,44,1,0.2,0.8,0.6,0.4,,,,,,,,,,,,,,,0.1891,,0.8,0.2,0.4,0.6,0.8,0.2,0.8,0.2,,,0.289,,0.4,0.6,0.8,0.2,0.4,0.6,0.4,0.6,1,0
,,66378dbfb9c884b35b7c3c09,66fc997acf04201ab0491d45,2024-10-02_10h56.34.511,mdp,2024.2.1,MacIntel,29.94011976,66fa4ebf79326e780c390304,,,,,,,,,,,,,,,,,,,,,989.2893,989.2893,989.2895,991.3225,0,0,left,1.4901,,991.3228,992.1891,0,0,left,992.1896,993.1226,1,1,right,0,993.1227,993.1227,993.1232,994.6224,0,45,45,45,1,0.2,0.8,0.6,0.4,,,,,,,,,,,,,,,0.3224,,0.8,0.2,0.4,0.6,0.8,0.2,0.8,0.2,,,0.4,,0.4,0.6,0.8,0.2,0.4,0.6,0.4,0.6,1,0
,,66378dbfb9c884b35b7c3c09,66fc997acf04201ab0491d45,2024-10-02_10h56.34.511,mdp,2024.2.1,MacIntel,29.94011976,66fa4ebf79326e780c390304,,,,,,,,,,,,,,,,,,,,,994.6226,994.6226,994.6229,996.2558,0,0,left,1.0891,,996.2563,997.1892,0,0,left,997.1895,997.9891,1,0,right,1,997.9892,997.9892,997.9896,999.4891,0,46,46,46,1,0.2,0.8,0.6,0.4,,,,,,,,,,,,,,,0.3891,,0.8,0.2,0.4,0.6,0.8,0.2,0.8,0.2,,,0.2586,,0.4,0.6,0.8,0.2,0.4,0.6,0.4,0.6,1,0
,,66378dbfb9c884b35b7c3c09,66fc997acf04201ab0491d45,2024-10-02_10h56.34.511,mdp,2024.2.1,MacIntel,29.94011976,66fa4ebf79326e780c390304,,,,,,,,,,,,,,,,,,,,,999.4894,999.4894,999.4897,1000.8892,0,1,left,0.8655,,1000.8897,1001.9225,0,0,left,1001.9229,1002.9226,1,1,right,0,1002.9226,1002.9226,1002.923,1004.4225,0,47,47,47,1,0.2,0.8,0.6,0.4,,,,,,,,,,,,,,,0.4907,,0.8,0.2,0.4,0.6,0.8,0.2,0.8,0.2,,,0.4558,,0.4,0.6,0.8,0.2,0.4,0.6,0.4,0.6,1,0
,,66378dbfb9c884b35b7c3c09,66fc997acf04201ab0491d45,2024-10-02_10h56.34.511,mdp,2024.2.1,MacIntel,29.94011976,66fa4ebf79326e780c390304,,,,,,,,,,,,,,,,,,,,,1004.4227,1004.4227,1004.4232,1005.4225,1,0,right,0.4559,,1005.423,1006.2217,0,0,left,1006.2221,1007.0217,1,0,right,1,1007.0217,1007.0217,1007.0221,1008.5215,0,48,48,48,1,0.2,0.8,0.6,0.4,,,,,,,,,,,,,,,0.2556,,0.8,0.2,0.4,0.6,0.8,0.2,0.8,0.2,,,0.2894,,0.4,0.6,0.8,0.2,0.4,0.6,0.4,0.6,1,0
,,66378dbfb9c884b35b7c3c09,66fc997acf04201ab0491d45,2024-10-02_10h56.34.511,mdp,2024.2.1,MacIntel,29.94011976,66fa4ebf79326e780c390304,,,,,,,,,,,,,,,,,,,,,1008.5218,1008.5218,1008.5221,1009.5226,0,1,left,0.4586,,1009.523,1010.255,1,0,right,1010.2554,1011.155,0,0,left,1,1011.155,1011.155,1011.1554,1012.6549,0,49,49,49,1,0.2,0.8,0.6,0.4,,,,,,,,,,,,,,,0.1898,,0.8,0.2,0.4,0.6,0.8,0.2,0.8,0.2,,,0.3881,,0.4,0.6,0.8,0.2,0.4,0.6,0.4,0.6,1,0
,,66378dbfb9c884b35b7c3c09,66fc997acf04201ab0491d45,2024-10-02_10h56.34.511,mdp,2024.2.1,MacIntel,29.94011976,66fa4ebf79326e780c390304,,,,,,,,,,,,,,,,,,,,,,,,,,,,,,,,,,,,,,,,,,,,,,,,,,,,,,,,1012.655,1069.9801,0,3,3,3,1,imgs/rabbit.png,imgs/squirrel.png,imgs/lion.png,imgs/goat.png,imgs/cat.png,,,,,,,,,,,,,,,,,,,,,,,,
,,66378dbfb9c884b35b7c3c09,66fc997acf04201ab0491d45,2024-10-02_10h56.34.511,mdp,2024.2.1,MacIntel,29.94011976,66fa4ebf79326e780c390304,,,,,,,,,,,,,,1,seqs/st1seq11.csv,1069.9886,1071.339,space,0.8179,,1071.3413,1071.3413,1071.3417,1073.0057,0,1,left,1.1231,,1073.0061,1073.0064,1,0,,1073.0066,1073.0068,0,0,,0,1073.0068,1073.0068,1073.0069,1074.5055,0,0,0,0,1,0.8,0.2,0.4,0.6,1,0,,,,,,,,,,,,,,,,,,,,,,,,,,,,,,,,,,,,
,,66378dbfb9c884b35b7c3c09,66fc997acf04201ab0491d45,2024-10-02_10h56.34.511,mdp,2024.2.1,MacIntel,29.94011976,66fa4ebf79326e780c390304,,,,,,,,,,,,,,,,,,,,,1074.5058,1074.5058,1074.5062,1075.3724,1,0,right,0.3548,,1075.3727,1075.3731,1,0,,1075.3732,1075.3733,0,1,,1,1075.3734,1075.3734,1075.3735,1076.8723,0,1,1,1,1,0.6,0.4,0.8,0.2,1,0,,,,,,,,,,,,,,,,,,,,,,,,,,,,,,,,,,,,
,,66378dbfb9c884b35b7c3c09,66fc997acf04201ab0491d45,2024-10-02_10h56.34.511,mdp,2024.2.1,MacIntel,29.94011976,66fa4ebf79326e780c390304,,,,,,,,,,,,,,,,,,,,,1076.8725,1076.8725,1076.8729,1078.2399,1,0,right,0.8224,,1078.2404,1078.2407,1,0,,1078.2409,1078.2409,0,1,,1,1078.2409,1078.2409,1078.2411,1079.74,0,2,2,2,1,0.2,0.8,0.6,0.4,1,0,,,,,,,,,,,,,,,,,,,,,,,,,,,,,,,,,,,,
,,66378dbfb9c884b35b7c3c09,66fc997acf04201ab0491d45,2024-10-02_10h56.34.511,mdp,2024.2.1,MacIntel,29.94011976,66fa4ebf79326e780c390304,,,,,,,,,,,,,,,,,,,,,1079.7401,1079.7401,1079.7405,1080.8733,1,1,right,0.5892,,1080.8738,1080.874,1,0,,1080.8741,1080.8743,0,0,,0,1080.8743,1080.8743,1080.8745,1082.3733,0,3,3,3,1,0.2,0.8,0.6,0.4,1,0,,,,,,,,,,,,,,,,,,,,,,,,,,,,,,,,,,,,
,,66378dbfb9c884b35b7c3c09,66fc997acf04201ab0491d45,2024-10-02_10h56.34.511,mdp,2024.2.1,MacIntel,29.94011976,66fa4ebf79326e780c390304,,,,,,,,,,,,,,,,,,,,,1082.3734,1082.3734,1082.3738,1083.2733,0,1,left,0.3567,,1083.2738,1083.2741,1,1,,1083.2742,1083.2743,0,1,,0,1083.2743,1083.2744,1083.2745,1084.7734,0,4,4,4,1,0.2,0.8,0.6,0.4,1,0,,,,,,,,,,,,,,,,,,,,,,,,,,,,,,,,,,,,
,,66378dbfb9c884b35b7c3c09,66fc997acf04201ab0491d45,2024-10-02_10h56.34.511,mdp,2024.2.1,MacIntel,29.94011976,66fa4ebf79326e780c390304,,,,,,,,,,,,,,,,,,,,,1084.7735,1084.7735,1084.7738,1085.3724,1,0,right,0.0576,,1085.3728,1085.373,1,0,,1085.3731,1085.3732,0,0,,1,1085.3732,1085.3732,1085.3734,1086.8723,0,5,5,5,1,0.2,0.8,0.6,0.4,1,0,,,,,,,,,,,,,,,,,,,,,,,,,,,,,,,,,,,,
,,66378dbfb9c884b35b7c3c09,66fc997acf04201ab0491d45,2024-10-02_10h56.34.511,mdp,2024.2.1,MacIntel,29.94011976,66fa4ebf79326e780c390304,,,,,,,,,,,,,,,,,,,,,1086.8725,1086.8725,1086.873,1087.8058,1,1,right,0.4224,,1087.8062,1087.8064,1,0,,1087.8066,1087.8067,0,1,,0,1087.8067,1087.8067,1087.8068,1089.3057,0,6,6,6,1,0.2,0.8,0.6,0.4,1,0,,,,,,,,,,,,,,,,,,,,,,,,,,,,,,,,,,,,
,,66378dbfb9c884b35b7c3c09,66fc997acf04201ab0491d45,2024-10-02_10h56.34.511,mdp,2024.2.1,MacIntel,29.94011976,66fa4ebf79326e780c390304,,,,,,,,,,,,,,,,,,,,,1089.3059,1089.3059,1089.3063,1090.3067,1,0,right,0.4663,,1090.3072,1090.3074,1,1,,1090.3076,1090.3077,0,1,,1,1090.3077,1090.3077,1090.3079,1091.8057,0,7,7,7,1,0.2,0.8,0.6,0.4,1,0,,,,,,,,,,,,,,,,,,,,,,,,,,,,,,,,,,,,
,,66378dbfb9c884b35b7c3c09,66fc997acf04201ab0491d45,2024-10-02_10h56.34.511,mdp,2024.2.1,MacIntel,29.94011976,66fa4ebf79326e780c390304,,,,,,,,,,,,,,,,,,,,,1091.8059,1091.8059,1091.8063,1092.8068,1,1,right,0.4558,,1092.8073,1092.8076,1,0,,1092.8077,1092.8078,0,1,,0,1092.8078,1092.8078,1092.808,1094.3057,0,8,8,8,1,0.2,0.8,0.6,0.4,1,0,,,,,,,,,,,,,,,,,,,,,,,,,,,,,,,,,,,,
,,66378dbfb9c884b35b7c3c09,66fc997acf04201ab0491d45,2024-10-02_10h56.34.511,mdp,2024.2.1,MacIntel,29.94011976,66fa4ebf79326e780c390304,,,,,,,,,,,,,,,,,,,,,1094.3059,1094.3059,1094.3064,1095.1391,0,1,left,0.3214,,1095.1395,1095.1398,1,1,,1095.14,1095.1401,0,0,,0,1095.1401,1095.1401,1095.1403,1096.6391,0,9,9,9,1,0.6,0.4,0.2,0.8,1,0,,,,,,,,,,,,,,,,,,,,,,,,,,,,,,,,,,,,
,,66378dbfb9c884b35b7c3c09,66fc997acf04201ab0491d45,2024-10-02_10h56.34.511,mdp,2024.2.1,MacIntel,29.94011976,66fa4ebf79326e780c390304,,,,,,,,,,,,,,,,,,,,,1096.6393,1096.6393,1096.6397,1097.2402,0,0,left,0.0668,,1097.2406,1097.2408,1,0,,1097.241,1097.2412,0,0,,1,1097.2412,1097.2412,1097.2414,1098.7391,0,10,10,10,1,0.6,0.4,0.2,0.8,1,0,,,,,,,,,,,,,,,,,,,,,,,,,,,,,,,,,,,,
,,66378dbfb9c884b35b7c3c09,66fc997acf04201ab0491d45,2024-10-02_10h56.34.511,mdp,2024.2.1,MacIntel,29.94011976,66fa4ebf79326e780c390304,,,,,,,,,,,,,,,,,,,,,1098.7393,1098.7393,1098.7397,1099.5726,0,0,left,0.3215,,1099.573,1099.5732,1,0,,1099.5734,1099.5736,0,0,,1,1099.5736,1099.5736,1099.5736,1101.0725,0,11,11,11,1,0.8,0.2,0.8,0.2,1,0,,,,,,,,,,,,,,,,,,,,,,,,,,,,,,,,,,,,
,,66378dbfb9c884b35b7c3c09,66fc997acf04201ab0491d45,2024-10-02_10h56.34.511,mdp,2024.2.1,MacIntel,29.94011976,66fa4ebf79326e780c390304,,,,,,,,,,,,,,,,,,,,,1101.0726,1101.0726,1101.0731,1102.1392,1,0,right,0.5224,,1102.1397,1102.1399,1,0,,1102.14,1102.1402,0,0,,1,1102.1402,1102.1402,1102.1403,1103.6392,0,12,12,12,1,0.8,0.2,0.8,0.2,1,0,,,,,,,,,,,,,,,,,,,,,,,,,,,,,,,,,,,,
,,66378dbfb9c884b35b7c3c09,66fc997acf04201ab0491d45,2024-10-02_10h56.34.511,mdp,2024.2.1,MacIntel,29.94011976,66fa4ebf79326e780c390304,,,,,,,,,,,,,,,,,,,,,1103.6393,1103.6393,1103.6397,1104.5726,0,0,left,0.3882,,1104.573,1104.5733,1,1,,1104.5734,1104.5736,0,1,,1,1104.5736,1104.5736,1104.5737,1106.0736,0,13,13,13,1,0.2,0.8,0.6,0.4,1,0,,,,,,,,,,,,,,,,,,,,,,,,,,,,,,,,,,,,
,,66378dbfb9c884b35b7c3c09,66fc997acf04201ab0491d45,2024-10-02_10h56.34.511,mdp,2024.2.1,MacIntel,29.94011976,66fa4ebf79326e780c390304,,,,,,,,,,,,,,,,,,,,,1106.0737,1106.0737,1106.0741,1107.007,1,0,right,0.39,0.0092,1107.0074,1107.0075,1,1,,1107.0077,1107.0078,0,0,,1,1107.0078,1107.0078,1107.008,1108.5059,0,14,14,14,1,0.2,0.8,0.6,0.4,1,0,,,,,,,,,,,,,,,,,,,,,,,,,,,,,,,,,,,,
,,66378dbfb9c884b35b7c3c09,66fc997acf04201ab0491d45,2024-10-02_10h56.34.511,mdp,2024.2.1,MacIntel,29.94011976,66fa4ebf79326e780c390304,,,,,,,,,,,,,,,,,,,,,1108.5061,1108.5061,1108.5064,1109.406,1,1,right,0.3881,,1109.4064,1109.4067,1,0,,1109.4068,1109.4069,0,0,,0,1109.407,1109.407,1109.4071,1110.9059,0,15,15,15,1,0.2,0.8,0.6,0.4,1,0,,,,,,,,,,,,,,,,,,,,,,,,,,,,,,,,,,,,
,,66378dbfb9c884b35b7c3c09,66fc997acf04201ab0491d45,2024-10-02_10h56.34.511,mdp,2024.2.1,MacIntel,29.94011976,66fa4ebf79326e780c390304,,,,,,,,,,,,,,,,,,,,,1110.9061,1110.9061,1110.9065,1111.8736,1,0,right,0.426,,1111.874,1111.8743,1,0,,1111.8745,1111.8746,0,0,,1,1111.8746,1111.8746,1111.8747,1113.3727,0,16,16,16,1,0.2,0.8,0.6,0.4,1,0,,,,,,,,,,,,,,,,,,,,,,,,,,,,,,,,,,,,
,,66378dbfb9c884b35b7c3c09,66fc997acf04201ab0491d45,2024-10-02_10h56.34.511,mdp,2024.2.1,MacIntel,29.94011976,66fa4ebf79326e780c390304,,,,,,,,,,,,,,,,,,,,,1113.3728,1113.3728,1113.3732,1114.2737,1,0,right,0.3883,,1114.2741,1114.2743,1,1,,1114.2745,1114.2746,0,0,,1,1114.2746,1114.2746,1114.2747,1115.7736,0,17,17,17,1,0.2,0.8,0.6,0.4,1,0,,,,,,,,,,,,,,,,,,,,,,,,,,,,,,,,,,,,
,,66378dbfb9c884b35b7c3c09,66fc997acf04201ab0491d45,2024-10-02_10h56.34.511,mdp,2024.2.1,MacIntel,29.94011976,66fa4ebf79326e780c390304,,,,,,,,,,,,,,,,,,,,,1115.7738,1115.7738,1115.7741,1116.3728,0,1,left,0.0568,,1116.3731,1116.3734,1,0,,1116.3735,1116.3737,0,0,,0,1116.3737,1116.3737,1116.3738,1117.8736,0,18,18,18,1,0.2,0.8,0.6,0.4,1,0,,,,,,,,,,,,,,,,,,,,,,,,,,,,,,,,,,,,
,,66378dbfb9c884b35b7c3c09,66fc997acf04201ab0491d45,2024-10-02_10h56.34.511,mdp,2024.2.1,MacIntel,29.94011976,66fa4ebf79326e780c390304,,,,,,,,,,,,,,,,,,,,,1117.8737,1117.8737,1117.8742,1118.9737,1,1,right,0.5557,,1118.9741,1118.9743,1,0,,1118.9745,1118.9746,0,0,,0,1118.9746,1118.9746,1118.9748,1120.4727,0,19,19,19,1,0.2,0.8,0.6,0.4,1,0,,,,,,,,,,,,,,,,,,,,,,,,,,,,,,,,,,,,
,,66378dbfb9c884b35b7c3c09,66fc997acf04201ab0491d45,2024-10-02_10h56.34.511,mdp,2024.2.1,MacIntel,29.94011976,66fa4ebf79326e780c390304,,,,,,,,,,,,,,,,,,,,,1120.4728,1120.4728,1120.4732,1121.0061,1,0,right,0.0224,,1121.0065,1121.0068,1,0,,1121.007,1121.0071,0,0,,1,1121.0071,1121.0071,1121.0073,1122.506,0,20,20,20,1,0.4,0.6,0.8,0.2,1,0,,,,,,,,,,,,,,,,,,,,,,,,,,,,,,,,,,,,
,,66378dbfb9c884b35b7c3c09,66fc997acf04201ab0491d45,2024-10-02_10h56.34.511,mdp,2024.2.1,MacIntel,29.94011976,66fa4ebf79326e780c390304,,,,,,,,,,,,,,,,,,,,,1122.5063,1122.5063,1122.5066,1123.4061,1,1,right,0.3892,,1123.4065,1123.4068,1,1,,1123.407,1123.4071,0,0,,0,1123.4071,1123.4071,1123.4072,1124.907,0,21,21,21,1,0.6,0.4,0.6,0.4,1,0,,,,,,,,,,,,,,,,,,,,,,,,,,,,,,,,,,,,
,,66378dbfb9c884b35b7c3c09,66fc997acf04201ab0491d45,2024-10-02_10h56.34.511,mdp,2024.2.1,MacIntel,29.94011976,66fa4ebf79326e780c390304,,,,,,,,,,,,,,,,,,,,,1124.9071,1124.9071,1124.9075,1125.7062,1,1,right,0.258,,1125.7066,1125.7067,1,1,,1125.7069,1125.707,0,0,,0,1125.7071,1125.7071,1125.7072,1127.207,0,22,22,22,1,0.6,0.4,0.6,0.4,1,0,,,,,,,,,,,,,,,,,,,,,,,,,,,,,,,,,,,,
,,66378dbfb9c884b35b7c3c09,66fc997acf04201ab0491d45,2024-10-02_10h56.34.511,mdp,2024.2.1,MacIntel,29.94011976,66fa4ebf79326e780c390304,,,,,,,,,,,,,,,,,,,,,1127.2072,1127.2072,1127.2076,1128.1404,1,0,right,0.3881,0.0108,1128.1409,1128.1411,1,0,,1128.1413,1128.1414,0,0,,1,1128.1414,1128.1414,1128.1416,1129.6404,0,23,23,23,1,0.6,0.4,0.6,0.4,1,0,,,,,,,,,,,,,,,,,,,,,,,,,,,,,,,,,,,,
,,66378dbfb9c884b35b7c3c09,66fc997acf04201ab0491d45,2024-10-02_10h56.34.511,mdp,2024.2.1,MacIntel,29.94011976,66fa4ebf79326e780c390304,,,,,,,,,,,,,,,,,,,,,1129.6406,1129.6406,1129.6409,1130.5405,1,0,right,0.3552,,1130.541,1130.5412,1,1,,1130.5413,1130.5415,0,0,,1,1130.5415,1130.5415,1130.5417,1132.0405,0,24,24,24,1,0.6,0.4,0.6,0.4,1,0,,,,,,,,,,,,,,,,,,,,,,,,,,,,,,,,,,,,
,,66378dbfb9c884b35b7c3c09,66fc997acf04201ab0491d45,2024-10-02_10h56.34.511,mdp,2024.2.1,MacIntel,29.94011976,66fa4ebf79326e780c390304,,,,,,,,,,,,,,,,,,,,,1132.0407,1132.0407,1132.041,1132.9395,0,0,left,0.3556,,1132.94,1132.9402,1,0,,1132.9404,1132.9405,0,0,,1,1132.9405,1132.9406,1132.9407,1134.4395,0,25,25,25,1,0.6,0.4,0.6,0.4,1,0,,,,,,,,,,,,,,,,,,,,,,,,,,,,,,,,,,,,
,,66378dbfb9c884b35b7c3c09,66fc997acf04201ab0491d45,2024-10-02_10h56.34.511,mdp,2024.2.1,MacIntel,29.94011976,66fa4ebf79326e780c390304,,,,,,,,,,,,,,,,,,,,,1134.4396,1134.4396,1134.4401,1135.3395,0,1,left,0.3547,,1135.34,1135.3402,1,0,,1135.3404,1135.3406,0,0,,0,1135.3406,1135.3406,1135.3407,1136.8396,0,26,26,26,1,0.6,0.4,0.6,0.4,1,0,,,,,,,,,,,,,,,,,,,,,,,,,,,,,,,,,,,,
,,66378dbfb9c884b35b7c3c09,66fc997acf04201ab0491d45,2024-10-02_10h56.34.511,mdp,2024.2.1,MacIntel,29.94011976,66fa4ebf79326e780c390304,,,,,,,,,,,,,,,,,,,,,1136.8397,1136.8397,1136.8401,1148.0231,1,0,right,10.6756,,1148.0311,1148.0315,1,1,,1148.0318,1148.032,0,0,,1,1148.032,1148.032,1148.0321,1149.5229,0,27,27,27,1,0.6,0.4,0.6,0.4,1,0,,,,,,,,,,,,,,,,,,,,,,,,,,,,,,,,,,,,
,,66378dbfb9c884b35b7c3c09,66fc997acf04201ab0491d45,2024-10-02_10h56.34.511,mdp,2024.2.1,MacIntel,29.94011976,66fa4ebf79326e780c390304,,,,,,,,,,,,,,,,,,,,,1149.5231,1149.5231,1149.5236,1150.5573,1,0,right,0.5223,,1150.5577,1150.558,1,1,,1150.5582,1150.5583,0,1,,1,1150.5583,1150.5583,1150.5584,1152.0563,0,28,28,28,1,0.6,0.4,0.6,0.4,1,0,,,,,,,,,,,,,,,,,,,,,,,,,,,,,,,,,,,,
,,66378dbfb9c884b35b7c3c09,66fc997acf04201ab0491d45,2024-10-02_10h56.34.511,mdp,2024.2.1,MacIntel,29.94011976,66fa4ebf79326e780c390304,,,,,,,,,,,,,,,,,,,,,1152.0565,1152.0565,1152.0569,1153.524,1,0,right,0.9564,,1153.5245,1153.5247,1,0,,1153.5249,1153.525,0,1,,1,1153.525,1153.525,1153.5252,1155.0231,0,29,29,29,1,0.6,0.4,0.6,0.4,1,0,,,,,,,,,,,,,,,,,,,,,,,,,,,,,,,,,,,,
,,66378dbfb9c884b35b7c3c09,66fc997acf04201ab0491d45,2024-10-02_10h56.34.511,mdp,2024.2.1,MacIntel,29.94011976,66fa4ebf79326e780c390304,,,,,,,,,,,,,,,,,,,,,1155.0232,1155.0232,1155.0236,1155.9908,0,1,left,0.4263,,1155.9913,1155.9916,1,0,,1155.9918,1155.9919,0,0,,0,1155.9919,1155.9919,1155.9921,1157.4906,0,30,30,30,1,0.6,0.4,0.6,0.4,1,0,,,,,,,,,,,,,,,,,,,,,,,,,,,,,,,,,,,,
,,66378dbfb9c884b35b7c3c09,66fc997acf04201ab0491d45,2024-10-02_10h56.34.511,mdp,2024.2.1,MacIntel,29.94011976,66fa4ebf79326e780c390304,,,,,,,,,,,,,,,,,,,,,1157.4908,1157.4908,1157.4911,1158.8907,1,1,right,0.8547,,1158.8912,1158.8914,1,0,,1158.8916,1158.8918,0,0,,0,1158.8918,1158.8918,1158.8919,1160.3898,0,31,31,31,1,0.6,0.4,0.6,0.4,1,0,,,,,,,,,,,,,,,,,,,,,,,,,,,,,,,,,,,,
,,66378dbfb9c884b35b7c3c09,66fc997acf04201ab0491d45,2024-10-02_10h56.34.511,mdp,2024.2.1,MacIntel,29.94011976,66fa4ebf79326e780c390304,,,,,,,,,,,,,,,,,,,,,1160.3899,1160.3899,1160.3902,1161.1241,1,1,right,0.1891,,1161.1245,1161.1248,1,0,,1161.125,1161.1251,0,0,,0,1161.1251,1161.1251,1161.1252,1162.6231,0,32,32,32,1,0.6,0.4,0.6,0.4,1,0,,,,,,,,,,,,,,,,,,,,,,,,,,,,,,,,,,,,
,,66378dbfb9c884b35b7c3c09,66fc997acf04201ab0491d45,2024-10-02_10h56.34.511,mdp,2024.2.1,MacIntel,29.94011976,66fa4ebf79326e780c390304,,,,,,,,,,,,,,,,,,,,,1162.6232,1162.6233,1162.6237,1163.9241,0,0,left,0.7566,,1163.9245,1163.9248,1,0,,1163.9249,1163.925,0,0,,1,1163.9251,1163.9251,1163.9252,1165.424,0,33,33,33,1,0.6,0.4,0.6,0.4,1,0,,,,,,,,,,,,,,,,,,,,,,,,,,,,,,,,,,,,
,,66378dbfb9c884b35b7c3c09,66fc997acf04201ab0491d45,2024-10-02_10h56.34.511,mdp,2024.2.1,MacIntel,29.94011976,66fa4ebf79326e780c390304,,,,,,,,,,,,,,,,,,,,,1165.4243,1165.4243,1165.4246,1198.9902,1,0,right,33.0219,,1198.9975,1198.9978,1,0,,1198.9981,1198.9983,0,1,,1,1198.9983,1198.9983,1198.9984,1200.4902,0,34,34,34,1,0.6,0.4,0.6,0.4,1,0,,,,,,,,,,,,,,,,,,,,,,,,,,,,,,,,,,,,
,,66378dbfb9c884b35b7c3c09,66fc997acf04201ab0491d45,2024-10-02_10h56.34.511,mdp,2024.2.1,MacIntel,29.94011976,66fa4ebf79326e780c390304,,,,,,,,,,,,,,,,,,,,,1200.4903,1200.4904,1200.4908,1201.1245,1,0,right,0.1215,,1201.125,1201.1252,1,0,,1201.1254,1201.1255,0,0,,1,1201.1255,1201.1255,1201.1257,1202.6235,0,35,35,35,1,0.6,0.4,0.6,0.4,1,0,,,,,,,,,,,,,,,,,,,,,,,,,,,,,,,,,,,,
,,66378dbfb9c884b35b7c3c09,66fc997acf04201ab0491d45,2024-10-02_10h56.34.511,mdp,2024.2.1,MacIntel,29.94011976,66fa4ebf79326e780c390304,,,,,,,,,,,,,,,,,,,,,1202.6237,1202.6237,1202.624,1203.5912,1,0,right,0.4253,,1203.5916,1203.5919,1,0,,1203.5921,1203.5922,0,0,,1,1203.5922,1203.5922,1203.5923,1205.0912,0,36,36,36,1,0.6,0.4,0.6,0.4,1,0,,,,,,,,,,,,,,,,,,,,,,,,,,,,,,,,,,,,
,,66378dbfb9c884b35b7c3c09,66fc997acf04201ab0491d45,2024-10-02_10h56.34.511,mdp,2024.2.1,MacIntel,29.94011976,66fa4ebf79326e780c390304,,,,,,,,,,,,,,,,,,,,,1205.0913,1205.0913,1205.0918,1206.9912,1,1,right,1.3575,,1206.9918,1206.992,1,1,,1206.9922,1206.9923,0,1,,0,1206.9924,1206.9924,1206.9925,1208.4903,0,37,37,37,1,0.8,0.2,0.2,0.8,1,0,,,,,,,,,,,,,,,,,,,,,,,,,,,,,,,,,,,,
,,66378dbfb9c884b35b7c3c09,66fc997acf04201ab0491d45,2024-10-02_10h56.34.511,mdp,2024.2.1,MacIntel,29.94011976,66fa4ebf79326e780c390304,,,,,,,,,,,,,,,,,,,,,1208.4904,1208.4904,1208.4908,1209.3912,0,0,left,0.388,,1209.3917,1209.392,1,0,,1209.3922,1209.3923,0,0,,1,1209.3923,1209.3923,1209.3924,1210.8903,0,38,38,38,1,0.8,0.2,0.2,0.8,1,0,,,,,,,,,,,,,,,,,,,,,,,,,,,,,,,,,,,,
,,66378dbfb9c884b35b7c3c09,66fc997acf04201ab0491d45,2024-10-02_10h56.34.511,mdp,2024.2.1,MacIntel,29.94011976,66fa4ebf79326e780c390304,,,,,,,,,,,,,,,,,,,,,1210.8904,1210.8904,1210.8908,1211.6903,0,0,left,0.2557,,1211.6908,1211.691,1,0,,1211.6912,1211.6913,0,0,,1,1211.6913,1211.6913,1211.6914,1213.1912,0,39,39,39,1,0.8,0.2,0.2,0.8,1,0,,,,,,,,,,,,,,,,,,,,,,,,,,,,,,,,,,,,
