init_exp.started,init_exp.stopped,participant,session,date,expName,psychopyVersion,OS,frameRate,study_id,disp_instruction.started,disp_instruction.stopped,instruction.thisRepN,instruction.thisTrialN,instruction.thisN,instruction.thisIndex,instruction.ran,instimg_path,consent.started,consent.stopped,key_resp_3.keys,key_resp_3.rt,key_resp_3.duration,n_steps,sequence_path,init_block.started,init_block.stopped,key_resp.keys,key_resp.rt,key_resp.duration,init_trials.started,init_trials.stopped,step0.started,step0.stopped,act0,s1,res0.keys,res0.rt,res0.duration,step1.started,step1.stopped,act1,s2,res1.keys,step2.started,step2.stopped,act2,s3,res2.keys,rew,reward_comp.started,reward_comp.stopped,reward_disp.started,reward_disp.stopped,trials.thisRepN,trials.thisTrialN,trials.thisN,trials.thisIndex,trials.ran,s00a0s10,s00a0s11,s00a1s10,s00a1s11,rew10,rew11,break_block.started,break_block.stopped,block.thisRepN,block.thisTrialN,block.thisN,block.thisIndex,block.ran,s00path,s10path,s11path,s20path,s21path,res1.rt,res1.duration,s10a0s20,s10a0s21,s10a1s20,s10a1s21,s11a0s20,s11a0s21,s11a1s20,s11a1s21,rew20,rew21,res2.rt,res2.duration,s20a0s30,s20a0s31,s20a1s30,s20a1s31,s21a0s30,s21a0s31,s21a1s30,s21a1s31,rew30,rew31
0.0003,0.0021,664382feed568375e3bf2618,66fc990f09a53c5aae5f09df,2024-10-02_02h59.28.387,mdp,2024.2.1,Win32,6.402048656,66fa4ebf79326e780c390304,,,,,,,,,,,,,,,,,,,,,,,,,,,,,,,,,,,,,,,,,,,,,,,,,,,,,,,,,,,,,,,,,,,,,,,,,,,,,,,,,,,,,,,,,,,
,,664382feed568375e3bf2618,66fc990f09a53c5aae5f09df,2024-10-02_02h59.28.387,mdp,2024.2.1,Win32,6.402048656,66fa4ebf79326e780c390304,0.008,12.0765,0,0,0,0,1,rlnn_exp/rlnn_exp.001.png,,,,,,,,,,,,,,,,,,,,,,,,,,,,,,,,,,,,,,,,,,,,,,,,,,,,,,,,,,,,,,,,,,,,,,,,,,,,,,,,,,,
,,664382feed568375e3bf2618,66fc990f09a53c5aae5f09df,2024-10-02_02h59.28.387,mdp,2024.2.1,Win32,6.402048656,66fa4ebf79326e780c390304,12.0772,23.9134,0,1,1,1,1,rlnn_exp/rlnn_exp.002.png,,,,,,,,,,,,,,,,,,,,,,,,,,,,,,,,,,,,,,,,,,,,,,,,,,,,,,,,,,,,,,,,,,,,,,,,,,,,,,,,,,,
,,664382feed568375e3bf2618,66fc990f09a53c5aae5f09df,2024-10-02_02h59.28.387,mdp,2024.2.1,Win32,6.402048656,66fa4ebf79326e780c390304,23.9139,35.1706,0,2,2,2,1,rlnn_exp/rlnn_exp.003.png,,,,,,,,,,,,,,,,,,,,,,,,,,,,,,,,,,,,,,,,,,,,,,,,,,,,,,,,,,,,,,,,,,,,,,,,,,,,,,,,,,,
,,664382feed568375e3bf2618,66fc990f09a53c5aae5f09df,2024-10-02_02h59.28.387,mdp,2024.2.1,Win32,6.402048656,66fa4ebf79326e780c390304,35.1711,47.3417,0,3,3,3,1,rlnn_exp/rlnn_exp.004.png,,,,,,,,,,,,,,,,,,,,,,,,,,,,,,,,,,,,,,,,,,,,,,,,,,,,,,,,,,,,,,,,,,,,,,,,,,,,,,,,,,,
,,664382feed568375e3bf2618,66fc990f09a53c5aae5f09df,2024-10-02_02h59.28.387,mdp,2024.2.1,Win32,6.402048656,66fa4ebf79326e780c390304,,,,,,,,,47.3421,217.7056,y,160.0735,,,,,,,,,,,,,,,,,,,,,,,,,,,,,,,,,,,,,,,,,,,,,,,,,,,,,,,,,,,,,,,,,,,,,,,,,,,,,,,
,,664382feed568375e3bf2618,66fc990f09a53c5aae5f09df,2024-10-02_02h59.28.387,mdp,2024.2.1,Win32,6.402048656,66fa4ebf79326e780c390304,,,,,,,,,,,,,,1,seqs/st1seq40.csv,217.7105,222.0843,space,3.7005,,222.089,222.0891,222.0896,235.0307,0,0,left,12.2603,,235.0313,235.0334,,1,,235.0339,235.0356,,0,,1,235.0358,235.0359,235.0364,236.5619,0,0,0,0,1,0.6,0.4,0.8,0.2,1,0,,,,,,,,,,,,,,,,,,,,,,,,,,,,,,,,,,,,
,,664382feed568375e3bf2618,66fc990f09a53c5aae5f09df,2024-10-02_02h59.28.387,mdp,2024.2.1,Win32,6.402048656,66fa4ebf79326e780c390304,,,,,,,,,,,,,,,,,,,,,236.5624,236.5624,236.5634,241.3989,0,0,left,4.1652,,241.3998,241.4005,,0,,241.4012,241.4018,,1,,1,241.4018,241.4018,241.4024,242.9167,0,1,1,1,1,0.6,0.4,0.8,0.2,1,0,,,,,,,,,,,,,,,,,,,,,,,,,,,,,,,,,,,,
,,664382feed568375e3bf2618,66fc990f09a53c5aae5f09df,2024-10-02_02h59.28.387,mdp,2024.2.1,Win32,6.402048656,66fa4ebf79326e780c390304,,,,,,,,,,,,,,,,,,,,,242.9172,242.9172,242.9188,246.7666,1,1,right,3.0358,,246.7675,246.7682,,1,,246.7691,246.7698,,0,,0,246.7698,246.7698,246.7704,248.2707,0,2,2,2,1,0.2,0.8,0.6,0.4,1,0,,,,,,,,,,,,,,,,,,,,,,,,,,,,,,,,,,,,
,,664382feed568375e3bf2618,66fc990f09a53c5aae5f09df,2024-10-02_02h59.28.387,mdp,2024.2.1,Win32,6.402048656,66fa4ebf79326e780c390304,,,,,,,,,,,,,,,,,,,,,248.2713,248.2713,248.2728,251.1049,0,1,left,2.0059,,251.1059,251.1064,,0,,251.1073,251.1078,,1,,0,251.1079,251.1079,251.1084,252.6004,0,3,3,3,1,0.2,0.8,0.6,0.4,1,0,,,,,,,,,,,,,,,,,,,,,,,,,,,,,,,,,,,,
,,664382feed568375e3bf2618,66fc990f09a53c5aae5f09df,2024-10-02_02h59.28.387,mdp,2024.2.1,Win32,6.402048656,66fa4ebf79326e780c390304,,,,,,,,,,,,,,,,,,,,,252.6009,252.6009,252.602,256.9722,0,1,left,3.7116,,256.9733,256.974,,1,,256.9747,256.9753,,1,,0,256.9753,256.9753,256.9759,258.4908,0,4,4,4,1,0.2,0.8,0.6,0.4,1,0,,,,,,,,,,,,,,,,,,,,,,,,,,,,,,,,,,,,
,,664382feed568375e3bf2618,66fc990f09a53c5aae5f09df,2024-10-02_02h59.28.387,mdp,2024.2.1,Win32,6.402048656,66fa4ebf79326e780c390304,,,,,,,,,,,,,,,,,,,,,258.4913,258.4913,258.4924,259.8589,1,0,right,0.6963,0.0002,259.8599,259.8605,,0,,259.8611,259.8618,,0,,1,259.8619,259.8619,259.8624,261.3631,0,5,5,5,1,0.6,0.4,0.8,0.2,1,0,,,,,,,,,,,,,,,,,,,,,,,,,,,,,,,,,,,,
,,664382feed568375e3bf2618,66fc990f09a53c5aae5f09df,2024-10-02_02h59.28.387,mdp,2024.2.1,Win32,6.402048656,66fa4ebf79326e780c390304,,,,,,,,,,,,,,,,,,,,,261.3635,261.3635,261.3648,263.2143,0,1,left,1.1822,,263.2151,263.2157,,0,,263.2163,263.2171,,1,,0,263.2171,263.2172,263.2178,264.7563,0,6,6,6,1,0.6,0.4,0.8,0.2,1,0,,,,,,,,,,,,,,,,,,,,,,,,,,,,,,,,,,,,
,,664382feed568375e3bf2618,66fc990f09a53c5aae5f09df,2024-10-02_02h59.28.387,mdp,2024.2.1,Win32,6.402048656,66fa4ebf79326e780c390304,,,,,,,,,,,,,,,,,,,,,264.7568,264.7568,264.758,266.0961,1,0,right,0.6761,,266.0972,266.0979,,1,,266.0988,266.0994,,1,,1,266.0994,266.0995,266.1,267.6105,0,7,7,7,1,0.2,0.8,0.6,0.4,1,0,,,,,,,,,,,,,,,,,,,,,,,,,,,,,,,,,,,,
,,664382feed568375e3bf2618,66fc990f09a53c5aae5f09df,2024-10-02_02h59.28.387,mdp,2024.2.1,Win32,6.402048656,66fa4ebf79326e780c390304,,,,,,,,,,,,,,,,,,,,,267.6109,267.6109,267.612,269.124,1,0,right,0.6828,,269.1249,269.1254,,1,,269.126,269.1265,,0,,1,269.1265,269.1265,269.127,270.6136,0,8,8,8,1,0.2,0.8,0.6,0.4,1,0,,,,,,,,,,,,,,,,,,,,,,,,,,,,,,,,,,,,
,,664382feed568375e3bf2618,66fc990f09a53c5aae5f09df,2024-10-02_02h59.28.387,mdp,2024.2.1,Win32,6.402048656,66fa4ebf79326e780c390304,,,,,,,,,,,,,,,,,,,,,270.6142,270.6142,270.6153,273.1626,1,0,right,1.8738,0.0004,273.1636,273.1643,,0,,273.1651,273.1657,,0,,1,273.1657,273.1658,273.1665,274.6789,0,9,9,9,1,0.2,0.8,0.6,0.4,1,0,,,,,,,,,,,,,,,,,,,,,,,,,,,,,,,,,,,,
,,664382feed568375e3bf2618,66fc990f09a53c5aae5f09df,2024-10-02_02h59.28.387,mdp,2024.2.1,Win32,6.402048656,66fa4ebf79326e780c390304,,,,,,,,,,,,,,,,,,,,,274.6794,274.6795,274.6803,277.0171,1,0,right,1.6723,0.0002,277.0179,277.0184,,1,,277.019,277.0195,,1,,1,277.0196,277.0196,277.02,278.5159,0,10,10,10,1,0.2,0.8,0.6,0.4,1,0,,,,,,,,,,,,,,,,,,,,,,,,,,,,,,,,,,,,
,,664382feed568375e3bf2618,66fc990f09a53c5aae5f09df,2024-10-02_02h59.28.387,mdp,2024.2.1,Win32,6.402048656,66fa4ebf79326e780c390304,,,,,,,,,,,,,,,,,,,,,278.5163,278.5164,278.5173,280.1703,1,0,right,0.8399,0.0001,280.1713,280.1719,,1,,280.1726,280.1732,,0,,1,280.1733,280.1733,280.1739,281.6756,0,11,11,11,1,0.2,0.8,0.6,0.4,1,0,,,,,,,,,,,,,,,,,,,,,,,,,,,,,,,,,,,,
,,664382feed568375e3bf2618,66fc990f09a53c5aae5f09df,2024-10-02_02h59.28.387,mdp,2024.2.1,Win32,6.402048656,66fa4ebf79326e780c390304,,,,,,,,,,,,,,,,,,,,,281.6761,281.6761,281.677,283.3582,1,0,right,1.0217,,283.3591,283.3597,,1,,283.3602,283.3607,,1,,1,283.3608,283.3608,283.3612,284.8593,0,12,12,12,1,0.2,0.8,0.6,0.4,1,0,,,,,,,,,,,,,,,,,,,,,,,,,,,,,,,,,,,,
,,664382feed568375e3bf2618,66fc990f09a53c5aae5f09df,2024-10-02_02h59.28.387,mdp,2024.2.1,Win32,6.402048656,66fa4ebf79326e780c390304,,,,,,,,,,,,,,,,,,,,,284.8598,284.8599,284.861,286.8972,1,0,right,1.3656,0.0003,286.8983,286.8991,,0,,286.8999,286.9006,,0,,1,286.9006,286.9006,286.9013,288.4006,0,13,13,13,1,0.2,0.8,0.6,0.4,1,0,,,,,,,,,,,,,,,,,,,,,,,,,,,,,,,,,,,,
,,664382feed568375e3bf2618,66fc990f09a53c5aae5f09df,2024-10-02_02h59.28.387,mdp,2024.2.1,Win32,6.402048656,66fa4ebf79326e780c390304,,,,,,,,,,,,,,,,,,,,,288.4011,288.4011,288.4023,289.7369,1,0,right,0.6766,,289.7377,289.7384,,0,,289.7389,289.7394,,0,,1,289.7395,289.7395,289.7399,291.2261,0,14,14,14,1,0.2,0.8,0.6,0.4,1,0,,,,,,,,,,,,,,,,,,,,,,,,,,,,,,,,,,,,
,,664382feed568375e3bf2618,66fc990f09a53c5aae5f09df,2024-10-02_02h59.28.387,mdp,2024.2.1,Win32,6.402048656,66fa4ebf79326e780c390304,,,,,,,,,,,,,,,,,,,,,291.2267,291.2267,291.2278,292.8602,1,0,right,0.8168,0.0002,292.861,292.8616,,0,,292.8622,292.8627,,1,,1,292.8627,292.8627,292.8631,294.3511,0,15,15,15,1,0.6,0.4,0.4,0.6,1,0,,,,,,,,,,,,,,,,,,,,,,,,,,,,,,,,,,,,
,,664382feed568375e3bf2618,66fc990f09a53c5aae5f09df,2024-10-02_02h59.28.387,mdp,2024.2.1,Win32,6.402048656,66fa4ebf79326e780c390304,,,,,,,,,,,,,,,,,,,,,294.3519,294.3519,294.3528,295.8494,1,0,right,0.6715,,295.8502,295.8508,,0,,295.8514,295.852,,0,,1,295.852,295.852,295.8528,297.3751,0,16,16,16,1,0.2,0.8,0.8,0.2,1,0,,,,,,,,,,,,,,,,,,,,,,,,,,,,,,,,,,,,
,,664382feed568375e3bf2618,66fc990f09a53c5aae5f09df,2024-10-02_02h59.28.387,mdp,2024.2.1,Win32,6.402048656,66fa4ebf79326e780c390304,,,,,,,,,,,,,,,,,,,,,297.3758,297.3758,297.3772,298.7149,1,0,right,0.6818,,298.7156,298.7162,,0,,298.7168,298.7173,,0,,1,298.7173,298.7173,298.7179,300.2353,0,17,17,17,1,0.2,0.8,0.8,0.2,1,0,,,,,,,,,,,,,,,,,,,,,,,,,,,,,,,,,,,,
,,664382feed568375e3bf2618,66fc990f09a53c5aae5f09df,2024-10-02_02h59.28.387,mdp,2024.2.1,Win32,6.402048656,66fa4ebf79326e780c390304,,,,,,,,,,,,,,,,,,,,,300.2357,300.2357,300.2371,302.0644,1,0,right,1.0122,,302.0657,302.0666,,0,,302.0676,302.0684,,0,,1,302.0684,302.0684,302.0696,303.5773,0,18,18,18,1,0.2,0.8,0.8,0.2,1,0,,,,,,,,,,,,,,,,,,,,,,,,,,,,,,,,,,,,
,,664382feed568375e3bf2618,66fc990f09a53c5aae5f09df,2024-10-02_02h59.28.387,mdp,2024.2.1,Win32,6.402048656,66fa4ebf79326e780c390304,,,,,,,,,,,,,,,,,,,,,303.5777,303.5777,303.5788,305.0891,1,0,right,0.8459,,305.0899,305.0904,,1,,305.0911,305.0916,,0,,1,305.0916,305.0916,305.092,306.5995,0,19,19,19,1,0.2,0.8,0.8,0.2,1,0,,,,,,,,,,,,,,,,,,,,,,,,,,,,,,,,,,,,
,,664382feed568375e3bf2618,66fc990f09a53c5aae5f09df,2024-10-02_02h59.28.387,mdp,2024.2.1,Win32,6.402048656,66fa4ebf79326e780c390304,,,,,,,,,,,,,,,,,,,,,306.6001,306.6001,306.601,307.9396,1,0,right,0.6759,,307.9404,307.9412,,1,,307.942,307.9426,,1,,1,307.9426,307.9426,307.9431,309.4438,0,20,20,20,1,0.2,0.8,0.8,0.2,1,0,,,,,,,,,,,,,,,,,,,,,,,,,,,,,,,,,,,,
,,664382feed568375e3bf2618,66fc990f09a53c5aae5f09df,2024-10-02_02h59.28.387,mdp,2024.2.1,Win32,6.402048656,66fa4ebf79326e780c390304,,,,,,,,,,,,,,,,,,,,,309.4443,309.4443,309.4452,310.6246,1,0,right,0.516,,310.6256,310.6261,,0,,310.6267,310.6272,,0,,1,310.6272,310.6272,310.6278,312.1293,0,21,21,21,1,0.2,0.8,0.8,0.2,1,0,,,,,,,,,,,,,,,,,,,,,,,,,,,,,,,,,,,,
,,664382feed568375e3bf2618,66fc990f09a53c5aae5f09df,2024-10-02_02h59.28.387,mdp,2024.2.1,Win32,6.402048656,66fa4ebf79326e780c390304,,,,,,,,,,,,,,,,,,,,,312.1299,312.1299,312.131,313.4541,1,0,right,0.5183,,313.455,313.4556,,1,,313.4564,313.457,,0,,1,313.4571,313.4571,313.4575,314.9503,0,22,22,22,1,0.8,0.2,0.6,0.4,1,0,,,,,,,,,,,,,,,,,,,,,,,,,,,,,,,,,,,,
,,664382feed568375e3bf2618,66fc990f09a53c5aae5f09df,2024-10-02_02h59.28.387,mdp,2024.2.1,Win32,6.402048656,66fa4ebf79326e780c390304,,,,,,,,,,,,,,,,,,,,,314.9511,314.9511,314.9522,316.3068,1,0,right,0.6864,0.0002,316.3076,316.3081,,1,,316.3088,316.3092,,0,,1,316.3092,316.3092,316.3097,317.8207,0,23,23,23,1,0.6,0.4,0.2,0.8,1,0,,,,,,,,,,,,,,,,,,,,,,,,,,,,,,,,,,,,
,,664382feed568375e3bf2618,66fc990f09a53c5aae5f09df,2024-10-02_02h59.28.387,mdp,2024.2.1,Win32,6.402048656,66fa4ebf79326e780c390304,,,,,,,,,,,,,,,,,,,,,317.8212,317.8212,317.822,319.1438,1,0,right,0.5023,,319.1449,319.1456,,1,,319.1464,319.147,,0,,1,319.147,319.1471,319.1478,320.6508,0,24,24,24,1,0.8,0.2,0.6,0.4,1,0,,,,,,,,,,,,,,,,,,,,,,,,,,,,,,,,,,,,
,,664382feed568375e3bf2618,66fc990f09a53c5aae5f09df,2024-10-02_02h59.28.387,mdp,2024.2.1,Win32,6.402048656,66fa4ebf79326e780c390304,,,,,,,,,,,,,,,,,,,,,320.6514,320.6514,320.6524,321.9712,1,0,right,0.5022,,321.972,321.9725,,0,,321.9732,321.9737,,1,,1,321.9737,321.9737,321.9742,323.4542,0,25,25,25,1,0.8,0.2,0.6,0.4,1,0,,,,,,,,,,,,,,,,,,,,,,,,,,,,,,,,,,,,
,,664382feed568375e3bf2618,66fc990f09a53c5aae5f09df,2024-10-02_02h59.28.387,mdp,2024.2.1,Win32,6.402048656,66fa4ebf79326e780c390304,,,,,,,,,,,,,,,,,,,,,323.4549,323.4549,323.4559,324.4684,1,1,right,0.3377,0.001,324.4693,324.47,,0,,324.4708,324.4715,,1,,0,324.4715,324.4715,324.4722,325.9916,0,26,26,26,1,0.4,0.6,0.8,0.2,1,0,,,,,,,,,,,,,,,,,,,,,,,,,,,,,,,,,,,,
,,664382feed568375e3bf2618,66fc990f09a53c5aae5f09df,2024-10-02_02h59.28.387,mdp,2024.2.1,Win32,6.402048656,66fa4ebf79326e780c390304,,,,,,,,,,,,,,,,,,,,,325.9922,325.9922,325.9933,327.0102,0,0,left,0.3477,,327.0111,327.0116,,0,,327.0121,327.0127,,0,,1,327.0128,327.0128,327.0133,328.5239,0,27,27,27,1,0.4,0.6,0.8,0.2,1,0,,,,,,,,,,,,,,,,,,,,,,,,,,,,,,,,,,,,
,,664382feed568375e3bf2618,66fc990f09a53c5aae5f09df,2024-10-02_02h59.28.387,mdp,2024.2.1,Win32,6.402048656,66fa4ebf79326e780c390304,,,,,,,,,,,,,,,,,,,,,328.5244,328.5244,328.5252,329.5285,0,0,left,0.1788,,329.5293,329.5298,,0,,329.5304,329.5309,,1,,1,329.5309,329.5309,329.5314,331.057,0,28,28,28,1,0.4,0.6,0.8,0.2,1,0,,,,,,,,,,,,,,,,,,,,,,,,,,,,,,,,,,,,
,,664382feed568375e3bf2618,66fc990f09a53c5aae5f09df,2024-10-02_02h59.28.387,mdp,2024.2.1,Win32,6.402048656,66fa4ebf79326e780c390304,,,,,,,,,,,,,,,,,,,,,331.0574,331.0574,331.0584,332.0636,0,0,left,0.1738,,332.0645,332.0651,,1,,332.066,332.0667,,0,,1,332.0667,332.0667,332.0673,333.5834,0,29,29,29,1,0.6,0.4,0.6,0.4,1,0,,,,,,,,,,,,,,,,,,,,,,,,,,,,,,,,,,,,
,,664382feed568375e3bf2618,66fc990f09a53c5aae5f09df,2024-10-02_02h59.28.387,mdp,2024.2.1,Win32,6.402048656,66fa4ebf79326e780c390304,,,,,,,,,,,,,,,,,,,,,333.5839,333.5839,333.5848,334.9165,0,0,left,0.5003,,334.9172,334.9178,,0,,334.9183,334.9189,,0,,1,334.9189,334.9189,334.9194,336.4207,0,30,30,30,1,0.6,0.4,0.6,0.4,1,0,,,,,,,,,,,,,,,,,,,,,,,,,,,,,,,,,,,,
,,664382feed568375e3bf2618,66fc990f09a53c5aae5f09df,2024-10-02_02h59.28.387,mdp,2024.2.1,Win32,6.402048656,66fa4ebf79326e780c390304,,,,,,,,,,,,,,,,,,,,,336.4211,336.4211,336.4225,337.9221,0,1,left,0.8368,,337.9231,337.9237,,0,,337.9245,337.9251,,0,,0,337.9252,337.9252,337.926,339.3004,0,31,31,31,1,0.6,0.4,0.6,0.4,1,0,,,,,,,,,,,,,,,,,,,,,,,,,,,,,,,,,,,,
,,664382feed568375e3bf2618,66fc990f09a53c5aae5f09df,2024-10-02_02h59.28.387,mdp,2024.2.1,Win32,6.402048656,66fa4ebf79326e780c390304,,,,,,,,,,,,,,,,,,,,,339.3011,339.3012,339.3022,340.8037,1,0,right,0.8466,,340.8046,340.8051,,1,,340.8058,340.8064,,0,,1,340.8064,340.8064,340.807,342.3032,0,32,32,32,1,0.6,0.4,0.6,0.4,1,0,,,,,,,,,,,,,,,,,,,,,,,,,,,,,,,,,,,,
,,664382feed568375e3bf2618,66fc990f09a53c5aae5f09df,2024-10-02_02h59.28.387,mdp,2024.2.1,Win32,6.402048656,66fa4ebf79326e780c390304,,,,,,,,,,,,,,,,,,,,,342.3039,342.3039,342.3047,343.469,1,0,right,0.3385,,343.4701,343.4708,,0,,343.4715,343.4722,,1,,1,343.4722,343.4722,343.4729,344.961,0,33,33,33,1,0.8,0.2,0.4,0.6,1,0,,,,,,,,,,,,,,,,,,,,,,,,,,,,,,,,,,,,
,,664382feed568375e3bf2618,66fc990f09a53c5aae5f09df,2024-10-02_02h59.28.387,mdp,2024.2.1,Win32,6.402048656,66fa4ebf79326e780c390304,,,,,,,,,,,,,,,,,,,,,344.9613,344.9613,344.9624,346.4699,1,1,right,0.8451,,346.4708,346.4712,,1,,346.4721,346.4729,,1,,0,346.4729,346.4729,346.4736,347.9911,0,34,34,34,1,0.8,0.2,0.4,0.6,1,0,,,,,,,,,,,,,,,,,,,,,,,,,,,,,,,,,,,,
,,664382feed568375e3bf2618,66fc990f09a53c5aae5f09df,2024-10-02_02h59.28.387,mdp,2024.2.1,Win32,6.402048656,66fa4ebf79326e780c390304,,,,,,,,,,,,,,,,,,,,,347.9918,347.9918,347.993,349.0019,0,0,left,0.1838,,349.0028,349.0034,,0,,349.004,349.0046,,0,,1,349.0047,349.0047,349.0053,350.5324,0,35,35,35,1,0.8,0.2,0.4,0.6,1,0,,,,,,,,,,,,,,,,,,,,,,,,,,,,,,,,,,,,
,,664382feed568375e3bf2618,66fc990f09a53c5aae5f09df,2024-10-02_02h59.28.387,mdp,2024.2.1,Win32,6.402048656,66fa4ebf79326e780c390304,,,,,,,,,,,,,,,,,,,,,350.5328,350.5328,350.5338,351.3694,0,0,left,0.1743,,351.3707,351.3716,,1,,351.3727,351.3734,,0,,1,351.3734,351.3734,351.3741,352.8629,0,36,36,36,1,0.8,0.2,0.4,0.6,1,0,,,,,,,,,,,,,,,,,,,,,,,,,,,,,,,,,,,,
,,664382feed568375e3bf2618,66fc990f09a53c5aae5f09df,2024-10-02_02h59.28.387,mdp,2024.2.1,Win32,6.402048656,66fa4ebf79326e780c390304,,,,,,,,,,,,,,,,,,,,,352.8633,352.8633,352.8644,354.0514,1,0,right,0.5239,,354.0523,354.0528,,0,,354.0533,354.0538,,1,,1,354.0538,354.0538,354.0543,355.554,0,37,37,37,1,0.8,0.2,0.4,0.6,1,0,,,,,,,,,,,,,,,,,,,,,,,,,,,,,,,,,,,,
,,664382feed568375e3bf2618,66fc990f09a53c5aae5f09df,2024-10-02_02h59.28.387,mdp,2024.2.1,Win32,6.402048656,66fa4ebf79326e780c390304,,,,,,,,,,,,,,,,,,,,,355.5547,355.5547,355.5557,357.0476,1,0,right,0.6737,0.0003,357.0485,357.0491,,1,,357.0498,357.0502,,0,,1,357.0503,357.0503,357.0508,358.5717,0,38,38,38,1,0.8,0.2,0.4,0.6,1,0,,,,,,,,,,,,,,,,,,,,,,,,,,,,,,,,,,,,
,,664382feed568375e3bf2618,66fc990f09a53c5aae5f09df,2024-10-02_02h59.28.387,mdp,2024.2.1,Win32,6.402048656,66fa4ebf79326e780c390304,,,,,,,,,,,,,,,,,,,,,358.5723,358.5723,358.5732,359.4112,0,0,left,0.0091,,359.4121,359.4126,,1,,359.4135,359.4141,,1,,1,359.4141,359.4141,359.4146,360.9285,0,39,39,39,1,0.2,0.8,0.8,0.2,1,0,,,,,,,,,,,,,,,,,,,,,,,,,,,,,,,,,,,,
,,664382feed568375e3bf2618,66fc990f09a53c5aae5f09df,2024-10-02_02h59.28.387,mdp,2024.2.1,Win32,6.402048656,66fa4ebf79326e780c390304,,,,,,,,,,,,,,,,,,,,,360.9289,360.9289,360.9314,361.9217,0,1,left,0.1782,,361.9227,361.9233,,0,,361.924,361.9244,,1,,0,361.9244,361.9244,361.9249,363.4506,0,40,40,40,1,0.2,0.8,0.8,0.2,1,0,,,,,,,,,,,,,,,,,,,,,,,,,,,,,,,,,,,,
,,664382feed568375e3bf2618,66fc990f09a53c5aae5f09df,2024-10-02_02h59.28.387,mdp,2024.2.1,Win32,6.402048656,66fa4ebf79326e780c390304,,,,,,,,,,,,,,,,,,,,,363.4511,363.4511,363.4523,364.4742,1,1,right,0.3578,0.0001,364.4751,364.4758,,0,,364.4765,364.4773,,0,,0,364.4773,364.4773,364.478,365.9998,0,41,41,41,1,0.2,0.8,0.8,0.2,1,0,,,,,,,,,,,,,,,,,,,,,,,,,,,,,,,,,,,,
,,664382feed568375e3bf2618,66fc990f09a53c5aae5f09df,2024-10-02_02h59.28.387,mdp,2024.2.1,Win32,6.402048656,66fa4ebf79326e780c390304,,,,,,,,,,,,,,,,,,,,,366.0002,366.0002,366.0012,367.1743,1,0,right,0.5025,,367.1758,367.1766,,0,,367.1774,367.178,,0,,1,367.178,367.178,367.1787,368.6627,0,42,42,42,1,0.2,0.8,0.8,0.2,1,0,,,,,,,,,,,,,,,,,,,,,,,,,,,,,,,,,,,,
,,664382feed568375e3bf2618,66fc990f09a53c5aae5f09df,2024-10-02_02h59.28.387,mdp,2024.2.1,Win32,6.402048656,66fa4ebf79326e780c390304,,,,,,,,,,,,,,,,,,,,,368.6634,368.6634,368.6644,369.6713,0,1,left,0.1797,,369.672,369.6725,,1,,369.6731,369.6735,,1,,0,369.6736,369.6736,369.674,371.1659,0,43,43,43,1,0.2,0.8,0.8,0.2,1,0,,,,,,,,,,,,,,,,,,,,,,,,,,,,,,,,,,,,
,,664382feed568375e3bf2618,66fc990f09a53c5aae5f09df,2024-10-02_02h59.28.387,mdp,2024.2.1,Win32,6.402048656,66fa4ebf79326e780c390304,,,,,,,,,,,,,,,,,,,,,371.1665,371.1665,371.1677,372.5084,0,0,left,0.5096,0.0008,372.5091,372.5098,,1,,372.5104,372.511,,1,,1,372.511,372.5111,372.512,374.0258,0,44,44,44,1,0.2,0.8,0.8,0.2,1,0,,,,,,,,,,,,,,,,,,,,,,,,,,,,,,,,,,,,
,,664382feed568375e3bf2618,66fc990f09a53c5aae5f09df,2024-10-02_02h59.28.387,mdp,2024.2.1,Win32,6.402048656,66fa4ebf79326e780c390304,,,,,,,,,,,,,,,,,,,,,374.0262,374.0262,374.0271,375.1914,0,1,left,0.343,,375.1924,375.1928,,1,,375.1933,375.1938,,1,,0,375.1938,375.1938,375.1943,376.6867,0,45,45,45,1,0.2,0.8,0.8,0.2,1,0,,,,,,,,,,,,,,,,,,,,,,,,,,,,,,,,,,,,
,,664382feed568375e3bf2618,66fc990f09a53c5aae5f09df,2024-10-02_02h59.28.387,mdp,2024.2.1,Win32,6.402048656,66fa4ebf79326e780c390304,,,,,,,,,,,,,,,,,,,,,376.6873,376.6873,376.6883,378.7013,1,0,right,1.35,0.0002,378.7021,378.7026,,0,,378.7031,378.7036,,0,,1,378.7036,378.7036,378.7039,380.2187,0,46,46,46,1,0.2,0.8,0.8,0.2,1,0,,,,,,,,,,,,,,,,,,,,,,,,,,,,,,,,,,,,
,,664382feed568375e3bf2618,66fc990f09a53c5aae5f09df,2024-10-02_02h59.28.387,mdp,2024.2.1,Win32,6.402048656,66fa4ebf79326e780c390304,,,,,,,,,,,,,,,,,,,,,380.2191,380.2191,380.22,381.5651,0,1,left,0.6726,0.0002,381.566,381.5665,,1,,381.5672,381.5676,,0,,0,381.5676,381.5676,381.5682,383.0758,0,47,47,47,1,0.6,0.4,0.6,0.4,1,0,,,,,,,,,,,,,,,,,,,,,,,,,,,,,,,,,,,,
,,664382feed568375e3bf2618,66fc990f09a53c5aae5f09df,2024-10-02_02h59.28.387,mdp,2024.2.1,Win32,6.402048656,66fa4ebf79326e780c390304,,,,,,,,,,,,,,,,,,,,,383.0764,383.0765,383.0774,384.4008,1,0,right,0.5128,,384.4018,384.4025,,0,,384.4031,384.4038,,1,,1,384.4038,384.4039,384.4043,385.8807,0,48,48,48,1,0.6,0.4,0.6,0.4,1,0,,,,,,,,,,,,,,,,,,,,,,,,,,,,,,,,,,,,
,,664382feed568375e3bf2618,66fc990f09a53c5aae5f09df,2024-10-02_02h59.28.387,mdp,2024.2.1,Win32,6.402048656,66fa4ebf79326e780c390304,,,,,,,,,,,,,,,,,,,,,385.8812,385.8812,385.8823,388.8864,1,1,right,2.1737,0.0003,388.8873,388.8878,,1,,388.8883,388.8889,,0,,0,388.8889,388.8889,388.8896,390.391,0,49,49,49,1,0.6,0.4,0.6,0.4,1,0,,,,,,,,,,,,,,,,,,,,,,,,,,,,,,,,,,,,
,,664382feed568375e3bf2618,66fc990f09a53c5aae5f09df,2024-10-02_02h59.28.387,mdp,2024.2.1,Win32,6.402048656,66fa4ebf79326e780c390304,,,,,,,,,,,,,,,,,,,,,,,,,,,,,,,,,,,,,,,,,,,,,,,,,,,,,,,,390.3916,448.946,0,0,0,7,1,imgs/giraffe.png,imgs/horse.png,imgs/squirrel.png,imgs/bear.png,imgs/rabbit.png,,,,,,,,,,,,,,,,,,,,,,,,
,,664382feed568375e3bf2618,66fc990f09a53c5aae5f09df,2024-10-02_02h59.28.387,mdp,2024.2.1,Win32,6.402048656,66fa4ebf79326e780c390304,,,,,,,,,,,,,,2,seqs/st2seq44.csv,448.9472,454.0071,space,4.3804,,454.0122,454.0122,454.013,458.1766,0,0,left,3.5089,,458.1775,460.8312,1,0,right,460.8321,460.8327,,1,,1,460.8327,460.8327,460.8334,462.3652,0,0,0,0,1,0.8,0.2,0.8,0.2,,,,,,,,,,,,,,,1.9818,,0.8,0.2,0.8,0.2,0.6,0.4,0.6,0.4,1,0,,,,,,,,,,,,
,,664382feed568375e3bf2618,66fc990f09a53c5aae5f09df,2024-10-02_02h59.28.387,mdp,2024.2.1,Win32,6.402048656,66fa4ebf79326e780c390304,,,,,,,,,,,,,,,,,,,,,462.3659,462.3659,462.3667,464.0606,0,1,left,1.0156,,464.0614,466.5637,1,0,right,466.5645,466.565,,1,,1,466.565,466.565,466.5655,468.0687,0,1,1,1,1,0.8,0.2,0.8,0.2,,,,,,,,,,,,,,,1.831,,0.8,0.2,0.8,0.2,0.6,0.4,0.6,0.4,1,0,,,,,,,,,,,,
,,664382feed568375e3bf2618,66fc990f09a53c5aae5f09df,2024-10-02_02h59.28.387,mdp,2024.2.1,Win32,6.402048656,66fa4ebf79326e780c390304,,,,,,,,,,,,,,,,,,,,,468.0694,468.0694,468.0704,470.1626,0,0,left,1.2943,,470.1634,474.4786,1,0,right,474.4795,474.4801,,0,,1,474.4802,474.4802,474.4808,475.9071,0,2,2,2,1,0.8,0.2,0.8,0.2,,,,,,,,,,,,,,,3.5308,,0.8,0.2,0.8,0.2,0.6,0.4,0.6,0.4,1,0,,,,,,,,,,,,
,,664382feed568375e3bf2618,66fc990f09a53c5aae5f09df,2024-10-02_02h59.28.387,mdp,2024.2.1,Win32,6.402048656,66fa4ebf79326e780c390304,,,,,,,,,,,,,,,,,,,,,475.9078,475.9078,475.9088,477.6698,0,0,left,0.9765,,477.6707,479.1363,1,0,right,479.1371,479.1377,,1,,1,479.1378,479.1378,479.1384,480.5928,0,3,3,3,1,0.8,0.2,0.8,0.2,,,,,,,,,,,,,,,0.6738,,0.8,0.2,0.8,0.2,0.6,0.4,0.6,0.4,1,0,,,,,,,,,,,,
,,664382feed568375e3bf2618,66fc990f09a53c5aae5f09df,2024-10-02_02h59.28.387,mdp,2024.2.1,Win32,6.402048656,66fa4ebf79326e780c390304,,,,,,,,,,,,,,,,,,,,,480.5932,480.5932,480.5941,481.545,0,1,left,0.1688,,481.5457,482.8259,1,1,right,482.827,482.8275,,1,,0,482.8276,482.8276,482.8281,484.2538,0,4,4,4,1,0.8,0.2,0.8,0.2,,,,,,,,,,,,,,,0.4911,0.0002,0.8,0.2,0.8,0.2,0.6,0.4,0.6,0.4,1,0,,,,,,,,,,,,
,,664382feed568375e3bf2618,66fc990f09a53c5aae5f09df,2024-10-02_02h59.28.387,mdp,2024.2.1,Win32,6.402048656,66fa4ebf79326e780c390304,,,,,,,,,,,,,,,,,,,,,484.2542,484.2542,484.255,486.3449,1,0,right,1.3053,,486.3456,487.6325,0,1,left,487.6335,487.634,,0,,0,487.6341,487.6341,487.6349,489.0746,0,5,5,5,1,0.8,0.2,0.8,0.2,,,,,,,,,,,,,,,0.4936,,0.8,0.2,0.8,0.2,0.6,0.4,0.6,0.4,1,0,,,,,,,,,,,,
,,664382feed568375e3bf2618,66fc990f09a53c5aae5f09df,2024-10-02_02h59.28.387,mdp,2024.2.1,Win32,6.402048656,66fa4ebf79326e780c390304,,,,,,,,,,,,,,,,,,,,,489.0751,489.0751,489.0759,490.3469,0,1,left,0.4853,,490.3476,491.6254,1,0,right,491.626,491.6265,,0,,1,491.6265,491.6265,491.627,493.0711,0,6,6,6,1,0.8,0.2,0.8,0.2,,,,,,,,,,,,,,,0.4845,0,0.6,0.4,0.2,0.8,0.6,0.4,0.6,0.4,1,0,,,,,,,,,,,,
,,664382feed568375e3bf2618,66fc990f09a53c5aae5f09df,2024-10-02_02h59.28.387,mdp,2024.2.1,Win32,6.402048656,66fa4ebf79326e780c390304,,,,,,,,,,,,,,,,,,,,,493.0718,493.0718,493.0729,495.4751,0,0,left,1.6083,,495.4758,497.0801,1,0,right,497.0809,497.0816,,1,,1,497.0816,497.0816,497.0823,498.5365,0,7,7,7,1,0.8,0.2,0.8,0.2,,,,,,,,,,,,,,,0.8136,,0.6,0.4,0.2,0.8,0.6,0.4,0.6,0.4,1,0,,,,,,,,,,,,
,,664382feed568375e3bf2618,66fc990f09a53c5aae5f09df,2024-10-02_02h59.28.387,mdp,2024.2.1,Win32,6.402048656,66fa4ebf79326e780c390304,,,,,,,,,,,,,,,,,,,,,498.537,498.537,498.538,501.2966,0,0,left,1.9664,,501.2973,503.7319,1,0,right,503.7327,503.7331,,0,,1,503.7332,503.7332,503.7336,505.1869,0,8,8,8,1,0.8,0.2,0.8,0.2,,,,,,,,,,,,,,,1.6319,0.0003,0.8,0.2,0.6,0.4,0.6,0.4,0.6,0.4,1,0,,,,,,,,,,,,
,,664382feed568375e3bf2618,66fc990f09a53c5aae5f09df,2024-10-02_02h59.28.387,mdp,2024.2.1,Win32,6.402048656,66fa4ebf79326e780c390304,,,,,,,,,,,,,,,,,,,,,505.1874,505.1874,505.1884,506.6394,0,0,left,0.6593,,506.6403,508.2515,1,0,right,508.2524,508.253,,1,,1,508.253,508.253,508.2535,509.7075,0,9,9,9,1,0.8,0.2,0.8,0.2,,,,,,,,,,,,,,,0.8124,,0.8,0.2,0.6,0.4,0.6,0.4,0.6,0.4,1,0,,,,,,,,,,,,
,,664382feed568375e3bf2618,66fc990f09a53c5aae5f09df,2024-10-02_02h59.28.387,mdp,2024.2.1,Win32,6.402048656,66fa4ebf79326e780c390304,,,,,,,,,,,,,,,,,,,,,509.7081,509.7081,509.7091,511.0068,0,0,left,0.5022,,511.0074,512.4686,1,0,right,512.4696,512.4701,,1,,1,512.4701,512.4701,512.4708,513.9403,0,10,10,10,1,0.8,0.2,0.8,0.2,,,,,,,,,,,,,,,0.6607,,0.8,0.2,0.6,0.4,0.2,0.8,0.4,0.6,1,0,,,,,,,,,,,,
,,664382feed568375e3bf2618,66fc990f09a53c5aae5f09df,2024-10-02_02h59.28.387,mdp,2024.2.1,Win32,6.402048656,66fa4ebf79326e780c390304,,,,,,,,,,,,,,,,,,,,,513.9409,513.9409,513.9418,515.2326,0,1,left,0.4849,,515.2335,517.0227,0,0,left,517.0234,517.0239,,1,,1,517.0239,517.0239,517.0243,518.4735,0,11,11,11,1,0.8,0.2,0.8,0.2,,,,,,,,,,,,,,,0.991,,0.8,0.2,0.6,0.4,0.2,0.8,0.4,0.6,1,0,,,,,,,,,,,,
,,664382feed568375e3bf2618,66fc990f09a53c5aae5f09df,2024-10-02_02h59.28.387,mdp,2024.2.1,Win32,6.402048656,66fa4ebf79326e780c390304,,,,,,,,,,,,,,,,,,,,,518.474,518.4741,518.4752,519.9282,0,0,left,0.649,,519.929,521.5352,1,0,right,521.5361,521.5366,,1,,1,521.5366,521.5366,521.5372,523.0004,0,12,12,12,1,0.6,0.4,0.2,0.8,,,,,,,,,,,,,,,0.8199,,0.8,0.2,0.6,0.4,0.2,0.8,0.4,0.6,1,0,,,,,,,,,,,,
,,664382feed568375e3bf2618,66fc990f09a53c5aae5f09df,2024-10-02_02h59.28.387,mdp,2024.2.1,Win32,6.402048656,66fa4ebf79326e780c390304,,,,,,,,,,,,,,,,,,,,,523.001,523.001,523.0019,524.298,0,0,left,0.5017,,524.2988,526.0789,1,0,right,526.0796,526.0803,,0,,1,526.0803,526.0803,526.081,527.5292,0,13,13,13,1,0.8,0.2,0.8,0.2,,,,,,,,,,,,,,,0.981,,0.8,0.2,0.6,0.4,0.2,0.8,0.4,0.6,1,0,,,,,,,,,,,,
,,664382feed568375e3bf2618,66fc990f09a53c5aae5f09df,2024-10-02_02h59.28.387,mdp,2024.2.1,Win32,6.402048656,66fa4ebf79326e780c390304,,,,,,,,,,,,,,,,,,,,,527.5297,527.5297,527.5306,529.1631,0,1,left,0.8275,,529.164,531.6184,0,1,left,531.6192,531.6196,,0,,0,531.6196,531.6196,531.6201,533.0815,0,14,14,14,1,0.8,0.2,0.8,0.2,,,,,,,,,,,,,,,1.6476,,0.8,0.2,0.6,0.4,0.2,0.8,0.4,0.6,1,0,,,,,,,,,,,,
,,664382feed568375e3bf2618,66fc990f09a53c5aae5f09df,2024-10-02_02h59.28.387,mdp,2024.2.1,Win32,6.402048656,66fa4ebf79326e780c390304,,,,,,,,,,,,,,,,,,,,,533.0819,533.0819,533.0828,534.554,0,0,left,0.6607,0.0002,534.5548,536.0163,1,1,right,536.017,536.0175,,0,,0,536.0175,536.0175,536.0181,537.4752,0,15,15,15,1,0.8,0.2,0.8,0.2,,,,,,,,,,,,,,,0.66,,0.8,0.2,0.6,0.4,0.2,0.8,0.4,0.6,1,0,,,,,,,,,,,,
,,664382feed568375e3bf2618,66fc990f09a53c5aae5f09df,2024-10-02_02h59.28.387,mdp,2024.2.1,Win32,6.402048656,66fa4ebf79326e780c390304,,,,,,,,,,,,,,,,,,,,,537.4758,537.4759,537.4767,539.2567,0,0,left,0.9816,,539.2576,541.5592,1,0,right,541.5601,541.5606,,0,,1,541.5606,541.5606,541.5611,543.0228,0,16,16,16,1,0.8,0.2,0.8,0.2,,,,,,,,,,,,,,,1.491,,0.8,0.2,0.6,0.4,0.2,0.8,0.4,0.6,1,0,,,,,,,,,,,,
,,664382feed568375e3bf2618,66fc990f09a53c5aae5f09df,2024-10-02_02h59.28.387,mdp,2024.2.1,Win32,6.402048656,66fa4ebf79326e780c390304,,,,,,,,,,,,,,,,,,,,,543.0233,543.0233,543.0242,544.4931,0,0,left,0.6605,,544.4938,546.1148,1,1,right,546.1155,546.1161,,0,,0,546.1161,546.1161,546.1167,547.5873,0,17,17,17,1,0.8,0.2,0.8,0.2,,,,,,,,,,,,,,,0.8236,,0.8,0.2,0.6,0.4,0.2,0.8,0.4,0.6,1,0,,,,,,,,,,,,
,,664382feed568375e3bf2618,66fc990f09a53c5aae5f09df,2024-10-02_02h59.28.387,mdp,2024.2.1,Win32,6.402048656,66fa4ebf79326e780c390304,,,,,,,,,,,,,,,,,,,,,547.5877,547.5878,547.5888,549.3652,0,1,left,0.9811,,549.366,550.8203,1,1,right,550.8213,550.8219,,1,,0,550.822,550.822,550.8225,552.28,0,18,18,18,1,0.8,0.2,0.8,0.2,,,,,,,,,,,,,,,0.6583,,0.8,0.2,0.6,0.4,0.2,0.8,0.4,0.6,1,0,,,,,,,,,,,,
,,664382feed568375e3bf2618,66fc990f09a53c5aae5f09df,2024-10-02_02h59.28.387,mdp,2024.2.1,Win32,6.402048656,66fa4ebf79326e780c390304,,,,,,,,,,,,,,,,,,,,,552.2804,552.2804,552.2812,554.7388,1,0,right,1.6537,,554.7397,557.9939,1,1,right,557.9947,557.9951,,0,,0,557.9952,557.9952,557.9956,559.4588,0,19,19,19,1,0.8,0.2,0.8,0.2,,,,,,,,,,,,,,,2.4541,,0.8,0.2,0.6,0.4,0.2,0.8,0.4,0.6,1,0,,,,,,,,,,,,
,,664382feed568375e3bf2618,66fc990f09a53c5aae5f09df,2024-10-02_02h59.28.387,mdp,2024.2.1,Win32,6.402048656,66fa4ebf79326e780c390304,,,,,,,,,,,,,,,,,,,,,559.4593,559.4593,559.4602,560.7581,0,0,left,0.5004,,560.7589,562.051,0,0,left,562.0518,562.0523,,0,,1,562.0524,562.0524,562.053,563.5262,0,20,20,20,1,0.8,0.2,0.8,0.2,,,,,,,,,,,,,,,0.4861,,0.8,0.2,0.6,0.4,0.2,0.8,0.4,0.6,1,0,,,,,,,,,,,,
,,664382feed568375e3bf2618,66fc990f09a53c5aae5f09df,2024-10-02_02h59.28.387,mdp,2024.2.1,Win32,6.402048656,66fa4ebf79326e780c390304,,,,,,,,,,,,,,,,,,,,,563.5265,563.5265,563.5275,564.653,0,0,left,0.3363,0.0002,564.6536,566.1082,0,1,left,566.1091,566.1097,,0,,0,566.1097,566.1097,566.1102,567.5699,0,21,21,21,1,0.8,0.2,0.8,0.2,,,,,,,,,,,,,,,0.6507,,0.8,0.2,0.6,0.4,0.4,0.6,0.6,0.4,1,0,,,,,,,,,,,,
,,664382feed568375e3bf2618,66fc990f09a53c5aae5f09df,2024-10-02_02h59.28.387,mdp,2024.2.1,Win32,6.402048656,66fa4ebf79326e780c390304,,,,,,,,,,,,,,,,,,,,,567.5703,567.5703,567.5711,569.8599,0,1,left,1.4894,,569.8607,570.9881,1,0,right,570.989,570.9895,,1,,1,570.9895,570.9895,570.9903,572.4679,0,22,22,22,1,0.8,0.2,0.8,0.2,,,,,,,,,,,,,,,0.3268,,0.8,0.2,0.6,0.4,0.4,0.6,0.6,0.4,1,0,,,,,,,,,,,,
,,664382feed568375e3bf2618,66fc990f09a53c5aae5f09df,2024-10-02_02h59.28.387,mdp,2024.2.1,Win32,6.402048656,66fa4ebf79326e780c390304,,,,,,,,,,,,,,,,,,,,,572.4683,572.4684,572.4691,574.1091,0,0,left,0.8298,,574.1099,576.3915,0,0,left,576.3923,576.3929,,0,,1,576.393,576.393,576.3935,577.8677,0,23,23,23,1,0.8,0.2,0.8,0.2,,,,,,,,,,,,,,,1.4704,,0.8,0.2,0.6,0.4,0.4,0.6,0.6,0.4,1,0,,,,,,,,,,,,
,,664382feed568375e3bf2618,66fc990f09a53c5aae5f09df,2024-10-02_02h59.28.387,mdp,2024.2.1,Win32,6.402048656,66fa4ebf79326e780c390304,,,,,,,,,,,,,,,,,,,,,577.8681,577.8682,577.8689,579.8177,0,0,left,1.1442,,579.8186,581.5995,0,1,left,581.6001,581.6006,,1,,0,581.6006,581.6006,581.6011,583.069,0,24,24,24,1,0.8,0.2,0.8,0.2,,,,,,,,,,,,,,,0.9916,0.0001,0.2,0.8,0.8,0.2,0.4,0.6,0.6,0.4,1,0,,,,,,,,,,,,
,,664382feed568375e3bf2618,66fc990f09a53c5aae5f09df,2024-10-02_02h59.28.387,mdp,2024.2.1,Win32,6.402048656,66fa4ebf79326e780c390304,,,,,,,,,,,,,,,,,,,,,583.0695,583.0695,583.0704,584.8635,0,0,left,0.991,,584.8642,586.327,1,0,right,586.3281,586.3287,,0,,1,586.3287,586.3287,586.3294,587.7836,0,25,25,25,1,0.8,0.2,0.8,0.2,,,,,,,,,,,,,,,0.6591,,0.2,0.8,0.8,0.2,0.4,0.6,0.6,0.4,1,0,,,,,,,,,,,,
,,664382feed568375e3bf2618,66fc990f09a53c5aae5f09df,2024-10-02_02h59.28.387,mdp,2024.2.1,Win32,6.402048656,66fa4ebf79326e780c390304,,,,,,,,,,,,,,,,,,,,,587.784,587.7841,587.7849,589.0892,0,0,left,0.5042,,589.0901,590.409,0,1,left,590.4097,590.4101,,1,,0,590.4102,590.4102,590.4106,591.8792,0,26,26,26,1,0.8,0.2,0.8,0.2,,,,,,,,,,,,,,,0.5027,,0.2,0.8,0.8,0.2,0.4,0.6,0.6,0.4,1,0,,,,,,,,,,,,
,,664382feed568375e3bf2618,66fc990f09a53c5aae5f09df,2024-10-02_02h59.28.387,mdp,2024.2.1,Win32,6.402048656,66fa4ebf79326e780c390304,,,,,,,,,,,,,,,,,,,,,591.8795,591.8796,591.8805,593.1907,0,0,left,0.5116,,593.1915,594.5012,1,0,right,594.502,594.5025,,0,,1,594.5026,594.5026,594.5031,595.982,0,27,27,27,1,0.8,0.2,0.8,0.2,,,,,,,,,,,,,,,0.5048,,0.2,0.8,0.8,0.2,0.4,0.6,0.6,0.4,1,0,,,,,,,,,,,,
,,664382feed568375e3bf2618,66fc990f09a53c5aae5f09df,2024-10-02_02h59.28.387,mdp,2024.2.1,Win32,6.402048656,66fa4ebf79326e780c390304,,,,,,,,,,,,,,,,,,,,,595.9825,595.9825,595.9833,597.7842,0,1,left,0.9869,,597.785,599.9188,1,0,right,599.9199,599.9205,,0,,1,599.9205,599.9205,599.9211,601.386,0,28,28,28,1,0.8,0.2,0.8,0.2,,,,,,,,,,,,,,,1.333,,0.2,0.8,0.8,0.2,0.4,0.6,0.6,0.4,1,0,,,,,,,,,,,,
,,664382feed568375e3bf2618,66fc990f09a53c5aae5f09df,2024-10-02_02h59.28.387,mdp,2024.2.1,Win32,6.402048656,66fa4ebf79326e780c390304,,,,,,,,,,,,,,,,,,,,,601.3867,601.3868,601.3877,602.7064,0,0,left,0.6694,,602.7073,604.3473,1,0,right,604.3482,604.3486,,1,,1,604.3487,604.3487,604.3491,605.842,0,29,29,29,1,0.8,0.2,0.8,0.2,,,,,,,,,,,,,,,0.8298,,0.2,0.8,0.8,0.2,0.6,0.4,0.8,0.2,1,0,,,,,,,,,,,,
,,664382feed568375e3bf2618,66fc990f09a53c5aae5f09df,2024-10-02_02h59.28.387,mdp,2024.2.1,Win32,6.402048656,66fa4ebf79326e780c390304,,,,,,,,,,,,,,,,,,,,,605.8428,605.8428,605.8438,606.8801,0,0,left,0.3546,,606.8811,608.4301,1,0,right,608.4309,608.4313,,0,,1,608.4313,608.4313,608.4319,609.8927,0,30,30,30,1,0.8,0.2,0.8,0.2,,,,,,,,,,,,,,,0.8616,0.0002,0.2,0.8,0.8,0.2,0.6,0.4,0.8,0.2,1,0,,,,,,,,,,,,
,,664382feed568375e3bf2618,66fc990f09a53c5aae5f09df,2024-10-02_02h59.28.387,mdp,2024.2.1,Win32,6.402048656,66fa4ebf79326e780c390304,,,,,,,,,,,,,,,,,,,,,609.8933,609.8933,609.8941,611.2067,0,0,left,0.5053,,611.2075,612.512,1,1,right,612.5129,612.5134,,0,,0,612.5134,612.5134,612.514,613.9944,0,31,31,31,1,0.8,0.2,0.8,0.2,,,,,,,,,,,,,,,0.4925,,0.2,0.8,0.8,0.2,0.6,0.4,0.8,0.2,1,0,,,,,,,,,,,,
,,664382feed568375e3bf2618,66fc990f09a53c5aae5f09df,2024-10-02_02h59.28.387,mdp,2024.2.1,Win32,6.402048656,66fa4ebf79326e780c390304,,,,,,,,,,,,,,,,,,,,,613.9953,613.9953,613.9962,615.659,0,0,left,0.8539,,615.6599,616.8847,0,0,left,616.8862,616.8869,,1,,1,616.8869,616.8869,616.8886,618.4075,0,32,32,32,1,0.8,0.2,0.8,0.2,,,,,,,,,,,,,,,0.3817,,0.2,0.8,0.8,0.2,0.2,0.8,0.2,0.8,1,0,,,,,,,,,,,,
,,664382feed568375e3bf2618,66fc990f09a53c5aae5f09df,2024-10-02_02h59.28.387,mdp,2024.2.1,Win32,6.402048656,66fa4ebf79326e780c390304,,,,,,,,,,,,,,,,,,,,,618.4079,618.408,618.4089,619.2274,0,0,left,0.0086,,619.2281,620.6978,0,1,left,620.6987,620.6992,,1,,0,620.6993,620.6993,620.6999,622.1654,0,33,33,33,1,0.8,0.2,0.8,0.2,,,,,,,,,,,,,,,0.6738,,0.2,0.8,0.8,0.2,0.6,0.4,0.4,0.6,1,0,,,,,,,,,,,,
,,664382feed568375e3bf2618,66fc990f09a53c5aae5f09df,2024-10-02_02h59.28.387,mdp,2024.2.1,Win32,6.402048656,66fa4ebf79326e780c390304,,,,,,,,,,,,,,,,,,,,,622.166,622.166,622.1669,623.6247,0,0,left,0.6607,,623.6257,624.9185,1,0,right,624.9194,624.9199,,0,,1,624.9199,624.9199,624.9205,626.3976,0,34,34,34,1,0.8,0.2,0.8,0.2,,,,,,,,,,,,,,,0.4932,,0.2,0.8,0.8,0.2,0.6,0.4,0.4,0.6,1,0,,,,,,,,,,,,
,,664382feed568375e3bf2618,66fc990f09a53c5aae5f09df,2024-10-02_02h59.28.387,mdp,2024.2.1,Win32,6.402048656,66fa4ebf79326e780c390304,,,,,,,,,,,,,,,,,,,,,626.3981,626.3981,626.3991,628.8638,0,0,left,1.6588,0.0002,628.8645,630.0152,1,1,right,630.0159,630.0165,,0,,0,630.0165,630.0165,630.017,631.5064,0,35,35,35,1,0.8,0.2,0.8,0.2,,,,,,,,,,,,,,,0.3388,,0.2,0.8,0.8,0.2,0.6,0.4,0.4,0.6,1,0,,,,,,,,,,,,
,,664382feed568375e3bf2618,66fc990f09a53c5aae5f09df,2024-10-02_02h59.28.387,mdp,2024.2.1,Win32,6.402048656,66fa4ebf79326e780c390304,,,,,,,,,,,,,,,,,,,,,631.5068,631.5068,631.5077,632.3392,0,0,left,0.1772,,632.34,633.4753,0,1,left,633.4761,633.4765,,1,,0,633.4766,633.4767,633.4771,634.9559,0,36,36,36,1,0.8,0.2,0.8,0.2,,,,,,,,,,,,,,,0.3319,,0.6,0.4,0.6,0.4,0.6,0.4,0.4,0.6,1,0,,,,,,,,,,,,
,,664382feed568375e3bf2618,66fc990f09a53c5aae5f09df,2024-10-02_02h59.28.387,mdp,2024.2.1,Win32,6.402048656,66fa4ebf79326e780c390304,,,,,,,,,,,,,,,,,,,,,634.9563,634.9563,634.9572,635.9366,0,0,left,0.1727,,635.9373,637.232,1,0,right,637.2327,637.2332,,0,,1,637.2332,637.2332,637.2337,638.7222,0,37,37,37,1,0.8,0.2,0.8,0.2,,,,,,,,,,,,,,,0.4998,,0.6,0.4,0.6,0.4,0.6,0.4,0.4,0.6,1,0,,,,,,,,,,,,
,,664382feed568375e3bf2618,66fc990f09a53c5aae5f09df,2024-10-02_02h59.28.387,mdp,2024.2.1,Win32,6.402048656,66fa4ebf79326e780c390304,,,,,,,,,,,,,,,,,,,,,638.7228,638.7229,638.7237,639.8627,0,0,left,0.3333,,639.8636,641.1736,1,1,right,641.1743,641.175,,0,,0,641.1751,641.1751,641.1759,642.6583,0,38,38,38,1,0.8,0.2,0.8,0.2,,,,,,,,,,,,,,,0.5009,0.0002,0.6,0.4,0.6,0.4,0.6,0.4,0.4,0.6,1,0,,,,,,,,,,,,
,,664382feed568375e3bf2618,66fc990f09a53c5aae5f09df,2024-10-02_02h59.28.387,mdp,2024.2.1,Win32,6.402048656,66fa4ebf79326e780c390304,,,,,,,,,,,,,,,,,,,,,642.6587,642.6587,642.6594,644.7916,0,1,left,1.3235,,644.7925,646.6155,0,1,left,646.6164,646.6169,,0,,0,646.6169,646.6169,646.6173,648.076,0,39,39,39,1,0.8,0.2,0.8,0.2,,,,,,,,,,,,,,,1.0029,,0.8,0.2,0.2,0.8,0.6,0.4,0.4,0.6,1,0,,,,,,,,,,,,
,,664382feed568375e3bf2618,66fc990f09a53c5aae5f09df,2024-10-02_02h59.28.387,mdp,2024.2.1,Win32,6.402048656,66fa4ebf79326e780c390304,,,,,,,,,,,,,,,,,,,,,648.0762,648.0762,648.0771,649.7219,0,0,left,0.8442,,649.7226,651.0154,1,0,right,651.0161,651.0165,,0,,1,651.0166,651.0166,651.017,652.4987,0,40,40,40,1,0.8,0.2,0.8,0.2,,,,,,,,,,,,,,,0.4949,,0.2,0.8,0.6,0.4,0.6,0.4,0.4,0.6,1,0,,,,,,,,,,,,
,,664382feed568375e3bf2618,66fc990f09a53c5aae5f09df,2024-10-02_02h59.28.387,mdp,2024.2.1,Win32,6.402048656,66fa4ebf79326e780c390304,,,,,,,,,,,,,,,,,,,,,652.4991,652.4991,652.4999,653.3282,0,0,left,0.0088,,653.329,655.2865,1,0,right,655.2872,655.2876,,0,,1,655.2877,655.2877,655.2881,656.7904,0,41,41,41,1,0.8,0.2,0.8,0.2,,,,,,,,,,,,,,,1.1509,,0.2,0.8,0.6,0.4,0.6,0.4,0.4,0.6,1,0,,,,,,,,,,,,
,,664382feed568375e3bf2618,66fc990f09a53c5aae5f09df,2024-10-02_02h59.28.387,mdp,2024.2.1,Win32,6.402048656,66fa4ebf79326e780c390304,,,,,,,,,,,,,,,,,,,,,656.7908,656.7908,656.7925,658.1027,0,0,left,0.5036,,658.1037,659.9084,1,0,right,659.9091,659.9096,,0,,1,659.9096,659.9096,659.91,661.3881,0,42,42,42,1,0.8,0.2,0.8,0.2,,,,,,,,,,,,,,,0.9961,,0.6,0.4,0.4,0.6,0.6,0.4,0.4,0.6,1,0,,,,,,,,,,,,
,,664382feed568375e3bf2618,66fc990f09a53c5aae5f09df,2024-10-02_02h59.28.387,mdp,2024.2.1,Win32,6.402048656,66fa4ebf79326e780c390304,,,,,,,,,,,,,,,,,,,,,661.3887,661.3887,661.3896,662.6981,0,1,left,0.4976,,662.6987,664.1887,1,1,right,664.1898,664.1903,,1,,0,664.1904,664.1904,664.1911,665.6556,0,43,43,43,1,0.2,0.8,0.6,0.4,,,,,,,,,,,,,,,0.6674,0.0002,0.6,0.4,0.4,0.6,0.6,0.4,0.4,0.6,1,0,,,,,,,,,,,,
,,664382feed568375e3bf2618,66fc990f09a53c5aae5f09df,2024-10-02_02h59.28.387,mdp,2024.2.1,Win32,6.402048656,66fa4ebf79326e780c390304,,,,,,,,,,,,,,,,,,,,,665.6561,665.6561,665.6569,668.127,0,0,left,1.6551,,668.1279,669.4371,0,1,left,669.4384,669.4389,,1,,0,669.439,669.439,669.4395,670.9252,0,44,44,44,1,0.2,0.8,0.6,0.4,,,,,,,,,,,,,,,0.499,,0.6,0.4,0.4,0.6,0.6,0.4,0.4,0.6,1,0,,,,,,,,,,,,
,,664382feed568375e3bf2618,66fc990f09a53c5aae5f09df,2024-10-02_02h59.28.387,mdp,2024.2.1,Win32,6.402048656,66fa4ebf79326e780c390304,,,,,,,,,,,,,,,,,,,,,670.9258,670.9258,670.9266,671.7592,0,0,left,0.1745,,671.7601,673.0767,1,0,right,673.0776,673.0782,,0,,1,673.0782,673.0783,673.0787,674.5712,0,45,45,45,1,0.2,0.8,0.6,0.4,,,,,,,,,,,,,,,0.5079,,0.6,0.4,0.4,0.6,0.6,0.4,0.4,0.6,1,0,,,,,,,,,,,,
,,664382feed568375e3bf2618,66fc990f09a53c5aae5f09df,2024-10-02_02h59.28.387,mdp,2024.2.1,Win32,6.402048656,66fa4ebf79326e780c390304,,,,,,,,,,,,,,,,,,,,,674.5717,674.5717,674.5726,676.0733,0,0,left,0.6779,0.0001,676.074,677.5392,1,0,right,677.54,677.5404,,0,,1,677.5404,677.5404,677.5409,679.0241,0,46,46,46,1,0.2,0.8,0.6,0.4,,,,,,,,,,,,,,,0.6663,,0.6,0.4,0.4,0.6,0.6,0.4,0.4,0.6,1,0,,,,,,,,,,,,
,,664382feed568375e3bf2618,66fc990f09a53c5aae5f09df,2024-10-02_02h59.28.387,mdp,2024.2.1,Win32,6.402048656,66fa4ebf79326e780c390304,,,,,,,,,,,,,,,,,,,,,679.0246,679.0246,679.0256,680.2332,0,1,left,0.5216,,680.2341,681.5656,1,0,right,681.5664,681.5669,,1,,1,681.5669,681.567,681.5678,683.0393,0,47,47,47,1,0.2,0.8,0.6,0.4,,,,,,,,,,,,,,,0.5064,,0.6,0.4,0.4,0.6,0.6,0.4,0.4,0.6,1,0,,,,,,,,,,,,
,,664382feed568375e3bf2618,66fc990f09a53c5aae5f09df,2024-10-02_02h59.28.387,mdp,2024.2.1,Win32,6.402048656,66fa4ebf79326e780c390304,,,,,,,,,,,,,,,,,,,,,683.0402,683.0402,683.041,684.3491,0,1,left,0.5072,,684.3499,685.6715,1,1,right,685.6721,685.6726,,1,,0,685.6726,685.6726,685.6732,687.164,0,48,48,48,1,0.2,0.8,0.6,0.4,,,,,,,,,,,,,,,0.509,,0.6,0.4,0.4,0.6,0.6,0.4,0.4,0.6,1,0,,,,,,,,,,,,
,,664382feed568375e3bf2618,66fc990f09a53c5aae5f09df,2024-10-02_02h59.28.387,mdp,2024.2.1,Win32,6.402048656,66fa4ebf79326e780c390304,,,,,,,,,,,,,,,,,,,,,687.1645,687.1645,687.1652,689.7972,0,1,left,1.8305,,689.7981,691.7884,0,1,left,691.7891,691.7896,,0,,0,691.7896,691.7896,691.79,693.277,0,49,49,49,1,0.2,0.8,0.6,0.4,,,,,,,,,,,,,,,1.1713,,0.6,0.4,0.4,0.6,0.6,0.4,0.4,0.6,1,0,,,,,,,,,,,,
,,664382feed568375e3bf2618,66fc990f09a53c5aae5f09df,2024-10-02_02h59.28.387,mdp,2024.2.1,Win32,6.402048656,66fa4ebf79326e780c390304,,,,,,,,,,,,,,,,,,,,,,,,,,,,,,,,,,,,,,,,,,,,,,,,,,,,,,,,693.2771,751.902,0,1,1,2,1,imgs/giraffe.png,imgs/bear.png,imgs/pig.png,imgs/horse.png,imgs/kangaroo.png,,,,,,,,,,,,,,,,,,,,,,,,
,,664382feed568375e3bf2618,66fc990f09a53c5aae5f09df,2024-10-02_02h59.28.387,mdp,2024.2.1,Win32,6.402048656,66fa4ebf79326e780c390304,,,,,,,,,,,,,,3,seqs/st3seq32.csv,751.903,754.885,space,2.1592,,754.8912,754.8912,754.8921,758.5494,0,0,left,2.9945,,758.5502,760.1897,0,1,left,760.1907,763.0149,0,0,left,1,763.0149,763.0149,763.0157,764.5138,0,0,0,0,1,0.4,0.6,0.6,0.4,,,,,,,,,,,,,,,0.8284,,0.2,0.8,0.8,0.2,0.6,0.4,0.8,0.2,,,1.9999,,0.6,0.4,0.2,0.8,0.4,0.6,0.6,0.4,1,0
,,664382feed568375e3bf2618,66fc990f09a53c5aae5f09df,2024-10-02_02h59.28.387,mdp,2024.2.1,Win32,6.402048656,66fa4ebf79326e780c390304,,,,,,,,,,,,,,,,,,,,,764.5144,764.5144,764.5151,771.8138,0,1,left,6.4851,,771.8146,773.3106,0,0,left,773.3116,776.6362,0,1,left,0,776.6362,776.6362,776.6374,778.143,0,1,1,1,1,0.4,0.6,0.6,0.4,,,,,,,,,,,,,,,0.6795,,0.2,0.8,0.8,0.2,0.6,0.4,0.8,0.2,,,2.5036,,0.6,0.4,0.2,0.8,0.4,0.6,0.6,0.4,1,0
,,664382feed568375e3bf2618,66fc990f09a53c5aae5f09df,2024-10-02_02h59.28.387,mdp,2024.2.1,Win32,6.402048656,66fa4ebf79326e780c390304,,,,,,,,,,,,,,,,,,,,,778.1436,778.1436,778.1443,779.6416,0,1,left,0.6771,,779.6426,781.2976,0,0,left,781.2985,782.7929,1,1,right,0,782.7929,782.7929,782.7936,784.2818,0,2,2,2,1,0.4,0.6,0.6,0.4,,,,,,,,,,,,,,,0.8411,,0.2,0.8,0.8,0.2,0.6,0.4,0.8,0.2,,,0.6742,,0.2,0.8,0.4,0.6,0.4,0.6,0.6,0.4,1,0
,,664382feed568375e3bf2618,66fc990f09a53c5aae5f09df,2024-10-02_02h59.28.387,mdp,2024.2.1,Win32,6.402048656,66fa4ebf79326e780c390304,,,,,,,,,,,,,,,,,,,,,784.2823,784.2823,784.2832,785.4615,0,1,left,0.5133,,785.4622,786.7955,0,0,left,786.7962,788.2873,0,1,left,0,788.2873,788.2874,788.2883,789.7845,0,3,3,3,1,0.4,0.6,0.6,0.4,,,,,,,,,,,,,,,0.5125,,0.2,0.8,0.8,0.2,0.6,0.4,0.8,0.2,,,0.6746,,0.2,0.8,0.4,0.6,0.4,0.6,0.6,0.4,1,0
,,664382feed568375e3bf2618,66fc990f09a53c5aae5f09df,2024-10-02_02h59.28.387,mdp,2024.2.1,Win32,6.402048656,66fa4ebf79326e780c390304,,,,,,,,,,,,,,,,,,,,,789.7851,789.7852,789.786,790.6325,0,1,left,0.1802,,790.6334,793.3072,1,0,right,793.3079,794.8108,0,0,left,1,794.811,794.811,794.8116,796.3128,0,4,4,4,1,0.4,0.6,0.6,0.4,,,,,,,,,,,,,,,2.0136,,0.2,0.8,0.8,0.2,0.6,0.4,0.8,0.2,,,0.6785,,0.2,0.8,0.4,0.6,0.4,0.6,0.6,0.4,1,0
,,664382feed568375e3bf2618,66fc990f09a53c5aae5f09df,2024-10-02_02h59.28.387,mdp,2024.2.1,Win32,6.402048656,66fa4ebf79326e780c390304,,,,,,,,,,,,,,,,,,,,,796.3134,796.3134,796.3144,798.6345,0,0,left,1.4938,,798.6355,799.8135,1,0,right,799.8145,800.9832,0,1,left,0,800.9832,800.9833,800.984,802.4852,0,5,5,5,1,0.4,0.6,0.6,0.4,,,,,,,,,,,,,,,0.5053,,0.2,0.8,0.8,0.2,0.6,0.4,0.8,0.2,,,0.5057,,0.2,0.8,0.4,0.6,0.4,0.6,0.6,0.4,1,0
,,664382feed568375e3bf2618,66fc990f09a53c5aae5f09df,2024-10-02_02h59.28.387,mdp,2024.2.1,Win32,6.402048656,66fa4ebf79326e780c390304,,,,,,,,,,,,,,,,,,,,,802.4856,802.4856,802.4864,803.6618,0,1,left,0.5118,,803.6625,804.9991,1,0,right,804.9997,806.3305,0,1,left,0,806.3306,806.3306,806.3314,807.8227,0,6,6,6,1,0.4,0.6,0.6,0.4,,,,,,,,,,,,,,,0.5136,,0.2,0.8,0.8,0.2,0.6,0.4,0.8,0.2,,,0.6684,,0.2,0.8,0.4,0.6,0.4,0.6,0.6,0.4,1,0
,,664382feed568375e3bf2618,66fc990f09a53c5aae5f09df,2024-10-02_02h59.28.387,mdp,2024.2.1,Win32,6.402048656,66fa4ebf79326e780c390304,,,,,,,,,,,,,,,,,,,,,807.8233,807.8233,807.8242,809.1811,0,0,left,0.5391,,809.1821,810.02,1,1,right,810.0208,811.0271,1,1,right,0,811.0272,811.0272,811.0279,812.5132,0,7,7,7,1,0.4,0.6,0.6,0.4,,,,,,,,,,,,,,,0.1798,,0.2,0.8,0.8,0.2,0.6,0.4,0.8,0.2,,,0.3409,,0.2,0.8,0.4,0.6,0.4,0.6,0.6,0.4,1,0
,,664382feed568375e3bf2618,66fc990f09a53c5aae5f09df,2024-10-02_02h59.28.387,mdp,2024.2.1,Win32,6.402048656,66fa4ebf79326e780c390304,,,,,,,,,,,,,,,,,,,,,812.5137,812.5137,812.5144,813.6666,0,1,left,0.3421,,813.6674,815.1684,0,1,left,815.1694,816.66,0,0,left,1,816.6601,816.6601,816.6609,818.163,0,8,8,8,1,0.4,0.6,0.6,0.4,,,,,,,,,,,,,,,0.6732,,0.2,0.8,0.8,0.2,0.6,0.4,0.8,0.2,,,0.6725,,0.2,0.8,0.4,0.6,0.4,0.6,0.6,0.4,1,0
,,664382feed568375e3bf2618,66fc990f09a53c5aae5f09df,2024-10-02_02h59.28.387,mdp,2024.2.1,Win32,6.402048656,66fa4ebf79326e780c390304,,,,,,,,,,,,,,,,,,,,,818.1639,818.1639,818.1648,819.8423,0,1,left,1.0137,,819.8431,821.4966,0,0,left,821.4976,823.3309,1,1,right,0,823.3309,823.331,823.3319,824.8399,0,9,9,9,1,0.4,0.6,0.6,0.4,,,,,,,,,,,,,,,0.8433,,0.2,0.8,0.8,0.2,0.6,0.4,0.8,0.2,,,1.1708,,0.2,0.8,0.4,0.6,0.4,0.6,0.6,0.4,1,0
,,664382feed568375e3bf2618,66fc990f09a53c5aae5f09df,2024-10-02_02h59.28.387,mdp,2024.2.1,Win32,6.402048656,66fa4ebf79326e780c390304,,,,,,,,,,,,,,,,,,,,,824.8405,824.8406,824.8414,826.1657,0,1,left,0.5138,0.0003,826.1664,827.3338,1,0,right,827.3344,828.6674,0,1,left,0,828.6676,828.6676,828.6683,830.157,0,10,10,10,1,0.4,0.6,0.6,0.4,,,,,,,,,,,,,,,0.504,,0.2,0.8,0.8,0.2,0.6,0.4,0.8,0.2,,,0.5126,,0.2,0.8,0.4,0.6,0.4,0.6,0.6,0.4,1,0
,,664382feed568375e3bf2618,66fc990f09a53c5aae5f09df,2024-10-02_02h59.28.387,mdp,2024.2.1,Win32,6.402048656,66fa4ebf79326e780c390304,,,,,,,,,,,,,,,,,,,,,830.1577,830.1577,830.1586,831.5007,0,0,left,0.5198,,831.5014,832.6679,1,0,right,832.6688,834.4925,0,1,left,0,834.4925,834.4925,834.4932,835.9944,0,11,11,11,1,0.4,0.6,0.6,0.4,,,,,,,,,,,,,,,0.3416,,0.2,0.8,0.8,0.2,0.6,0.4,0.8,0.2,,,1.0075,,0.2,0.8,0.4,0.6,0.4,0.6,0.6,0.4,1,0
,,664382feed568375e3bf2618,66fc990f09a53c5aae5f09df,2024-10-02_02h59.28.387,mdp,2024.2.1,Win32,6.402048656,66fa4ebf79326e780c390304,,,,,,,,,,,,,,,,,,,,,835.9948,835.9948,835.9958,837.0084,0,0,left,0.3467,,837.0092,839.0084,0,1,left,839.0093,840.364,0,1,left,0,840.3641,840.3641,840.3648,841.8634,0,12,12,12,1,0.4,0.6,0.6,0.4,,,,,,,,,,,,,,,1.1817,,0.2,0.8,0.8,0.2,0.6,0.4,0.8,0.2,,,0.6795,,0.2,0.8,0.4,0.6,0.4,0.6,0.6,0.4,1,0
,,664382feed568375e3bf2618,66fc990f09a53c5aae5f09df,2024-10-02_02h59.28.387,mdp,2024.2.1,Win32,6.402048656,66fa4ebf79326e780c390304,,,,,,,,,,,,,,,,,,,,,841.8639,841.8639,841.8647,843.5302,0,1,left,0.8425,,843.5312,845.3741,1,0,right,845.375,846.5476,1,0,right,1,846.5476,846.5477,846.5483,848.041,0,13,13,13,1,0.4,0.6,0.6,0.4,,,,,,,,,,,,,,,1.1774,,0.2,0.8,0.8,0.2,0.6,0.4,0.8,0.2,,,0.504,0.0004,0.2,0.8,0.4,0.6,0.4,0.6,0.6,0.4,1,0
,,664382feed568375e3bf2618,66fc990f09a53c5aae5f09df,2024-10-02_02h59.28.387,mdp,2024.2.1,Win32,6.402048656,66fa4ebf79326e780c390304,,,,,,,,,,,,,,,,,,,,,848.0416,848.0416,848.0425,849.5402,0,1,left,0.6751,,849.541,851.0359,1,0,right,851.0368,852.3609,1,1,right,0,852.3609,852.3609,852.3617,853.8656,0,14,14,14,1,0.4,0.6,0.6,0.4,,,,,,,,,,,,,,,0.6735,,0.2,0.8,0.8,0.2,0.6,0.4,0.8,0.2,,,0.5076,,0.2,0.8,0.4,0.6,0.4,0.6,0.6,0.4,1,0
,,664382feed568375e3bf2618,66fc990f09a53c5aae5f09df,2024-10-02_02h59.28.387,mdp,2024.2.1,Win32,6.402048656,66fa4ebf79326e780c390304,,,,,,,,,,,,,,,,,,,,,853.8663,853.8663,853.8671,854.8533,0,0,left,0.1746,,854.8545,856.5369,1,1,right,856.5377,857.8809,0,0,left,1,857.8809,857.8809,857.8816,859.3843,0,15,15,15,1,0.4,0.6,0.6,0.4,,,,,,,,,,,,,,,1.0159,,0.2,0.8,0.8,0.2,0.6,0.4,0.8,0.2,,,0.6811,,0.2,0.8,0.4,0.6,0.4,0.6,0.6,0.4,1,0
,,664382feed568375e3bf2618,66fc990f09a53c5aae5f09df,2024-10-02_02h59.28.387,mdp,2024.2.1,Win32,6.402048656,66fa4ebf79326e780c390304,,,,,,,,,,,,,,,,,,,,,859.3849,859.385,859.3859,862.2445,0,0,left,2.1956,,862.2452,863.5791,1,0,right,863.5799,865.0638,1,0,right,1,865.0639,865.0639,865.0646,866.5577,0,16,16,16,1,0.4,0.6,0.6,0.4,,,,,,,,,,,,,,,0.6734,,0.2,0.8,0.8,0.2,0.6,0.4,0.8,0.2,,,0.6671,,0.8,0.2,0.2,0.8,0.4,0.6,0.6,0.4,1,0
,,664382feed568375e3bf2618,66fc990f09a53c5aae5f09df,2024-10-02_02h59.28.387,mdp,2024.2.1,Win32,6.402048656,66fa4ebf79326e780c390304,,,,,,,,,,,,,,,,,,,,,866.5583,866.5583,866.5592,867.7342,0,0,left,0.512,,867.7351,869.399,1,0,right,869.3998,871.7265,0,0,left,1,871.7266,871.7267,871.7274,873.2288,0,17,17,17,1,0.4,0.6,0.6,0.4,,,,,,,,,,,,,,,0.8476,,0.2,0.8,0.8,0.2,0.6,0.4,0.8,0.2,,,1.5129,,0.8,0.2,0.2,0.8,0.4,0.6,0.6,0.4,1,0
,,664382feed568375e3bf2618,66fc990f09a53c5aae5f09df,2024-10-02_02h59.28.387,mdp,2024.2.1,Win32,6.402048656,66fa4ebf79326e780c390304,,,,,,,,,,,,,,,,,,,,,873.2293,873.2293,873.2303,874.4066,0,1,left,0.5172,,874.4076,875.7235,1,1,right,875.7246,877.4058,1,0,right,1,877.4058,877.4059,877.4066,878.9078,0,18,18,18,1,0.4,0.6,0.6,0.4,,,,,,,,,,,,,,,0.504,,0.2,0.8,0.8,0.2,0.6,0.4,0.8,0.2,,,1.0182,0.0004,0.8,0.2,0.2,0.8,0.4,0.6,0.6,0.4,1,0
,,664382feed568375e3bf2618,66fc990f09a53c5aae5f09df,2024-10-02_02h59.28.387,mdp,2024.2.1,Win32,6.402048656,66fa4ebf79326e780c390304,,,,,,,,,,,,,,,,,,,,,878.9083,878.9083,878.909,880.5763,0,1,left,0.8519,,880.5772,882.0731,1,0,right,882.0739,883.5607,0,0,left,1,883.5608,883.5608,883.5616,885.0597,0,19,19,19,1,0.4,0.6,0.6,0.4,,,,,,,,,,,,,,,0.6737,,0.2,0.8,0.8,0.2,0.6,0.4,0.8,0.2,,,0.6661,,0.8,0.2,0.2,0.8,0.4,0.6,0.6,0.4,1,0
,,664382feed568375e3bf2618,66fc990f09a53c5aae5f09df,2024-10-02_02h59.28.387,mdp,2024.2.1,Win32,6.402048656,66fa4ebf79326e780c390304,,,,,,,,,,,,,,,,,,,,,885.0604,885.0604,885.0613,886.0572,0,1,left,0.179,,886.0581,887.3936,1,1,right,887.3944,889.0502,1,0,right,1,889.0503,889.0503,889.0509,890.5402,0,20,20,20,1,0.8,0.2,0.2,0.8,,,,,,,,,,,,,,,0.6775,0.0002,0.2,0.8,0.8,0.2,0.6,0.4,0.8,0.2,,,0.8264,,0.8,0.2,0.2,0.8,0.4,0.6,0.6,0.4,1,0
,,664382feed568375e3bf2618,66fc990f09a53c5aae5f09df,2024-10-02_02h59.28.387,mdp,2024.2.1,Win32,6.402048656,66fa4ebf79326e780c390304,,,,,,,,,,,,,,,,,,,,,890.5408,890.5408,890.5417,891.5435,0,1,left,0.3474,,891.5442,893.5517,1,1,right,893.5524,894.8903,0,1,left,0,894.8904,894.8904,894.8912,896.4081,0,21,21,21,1,0.8,0.2,0.2,0.8,,,,,,,,,,,,,,,1.1846,,0.2,0.8,0.8,0.2,0.6,0.4,0.8,0.2,,,0.6762,,0.8,0.2,0.2,0.8,0.4,0.6,0.6,0.4,1,0
,,664382feed568375e3bf2618,66fc990f09a53c5aae5f09df,2024-10-02_02h59.28.387,mdp,2024.2.1,Win32,6.402048656,66fa4ebf79326e780c390304,,,,,,,,,,,,,,,,,,,,,896.4086,896.4086,896.4094,897.9195,0,1,left,0.6815,,897.9202,899.2539,1,1,right,899.2545,901.41,1,1,right,0,901.4101,901.4101,901.4111,902.9183,0,22,22,22,1,0.8,0.2,0.2,0.8,,,,,,,,,,,,,,,0.5099,0.0002,0.2,0.8,0.8,0.2,0.6,0.4,0.8,0.2,,,1.4981,,0.8,0.2,0.2,0.8,0.4,0.6,0.6,0.4,1,0
,,664382feed568375e3bf2618,66fc990f09a53c5aae5f09df,2024-10-02_02h59.28.387,mdp,2024.2.1,Win32,6.402048656,66fa4ebf79326e780c390304,,,,,,,,,,,,,,,,,,,,,902.9187,902.9187,902.9196,903.9012,0,0,left,0.1722,,903.9023,904.91,1,0,right,904.9109,906.7633,0,1,left,0,906.7634,906.7634,906.7642,908.269,0,23,23,23,1,0.8,0.2,0.2,0.8,,,,,,,,,,,,,,,0.3477,0.0004,0.2,0.8,0.8,0.2,0.6,0.4,0.8,0.2,,,1.022,,0.8,0.2,0.2,0.8,0.4,0.6,0.6,0.4,1,0
,,664382feed568375e3bf2618,66fc990f09a53c5aae5f09df,2024-10-02_02h59.28.387,mdp,2024.2.1,Win32,6.402048656,66fa4ebf79326e780c390304,,,,,,,,,,,,,,,,,,,,,908.2695,908.2695,908.2702,908.9403,0,1,left,0.0084,,908.941,910.2751,1,1,right,910.2762,911.6201,1,0,right,1,911.6202,911.6202,911.621,913.1332,0,24,24,24,1,0.8,0.2,0.2,0.8,,,,,,,,,,,,,,,0.5075,0.0001,0.2,0.8,0.8,0.2,0.6,0.4,0.8,0.2,,,0.682,,0.8,0.2,0.2,0.8,0.4,0.6,0.6,0.4,1,0
,,664382feed568375e3bf2618,66fc990f09a53c5aae5f09df,2024-10-02_02h59.28.387,mdp,2024.2.1,Win32,6.402048656,66fa4ebf79326e780c390304,,,,,,,,,,,,,,,,,,,,,913.1339,913.1339,913.1348,914.6217,0,0,left,0.678,0.0001,914.6224,915.9559,1,1,right,915.9568,918.6123,0,1,left,0,918.6124,918.6124,918.613,920.1155,0,25,25,25,1,0.8,0.2,0.2,0.8,,,,,,,,,,,,,,,0.5079,,0.2,0.8,0.8,0.2,0.8,0.2,0.2,0.8,,,1.8396,,0.8,0.2,0.2,0.8,0.4,0.6,0.6,0.4,1,0
,,664382feed568375e3bf2618,66fc990f09a53c5aae5f09df,2024-10-02_02h59.28.387,mdp,2024.2.1,Win32,6.402048656,66fa4ebf79326e780c390304,,,,,,,,,,,,,,,,,,,,,920.116,920.1161,920.1169,920.7906,0,0,left,0.009,,920.7916,922.292,1,0,right,922.2928,923.6301,1,1,right,0,923.6301,923.6301,923.6309,925.1361,0,26,26,26,1,0.8,0.2,0.2,0.8,,,,,,,,,,,,,,,0.68,,0.2,0.8,0.8,0.2,0.8,0.2,0.2,0.8,,,0.5126,0.0002,0.8,0.2,0.2,0.8,0.4,0.6,0.6,0.4,1,0
,,664382feed568375e3bf2618,66fc990f09a53c5aae5f09df,2024-10-02_02h59.28.387,mdp,2024.2.1,Win32,6.402048656,66fa4ebf79326e780c390304,,,,,,,,,,,,,,,,,,,,,925.1368,925.1368,925.1376,926.1502,0,1,left,0.3486,,926.1511,927.6599,0,0,left,927.6608,929.4984,0,0,left,1,929.4985,929.4985,929.4993,931.0124,0,27,27,27,1,0.4,0.6,0.6,0.4,,,,,,,,,,,,,,,0.6867,0.0001,0.2,0.8,0.8,0.2,0.8,0.2,0.2,0.8,,,1.0218,,0.8,0.2,0.2,0.8,0.4,0.6,0.6,0.4,1,0
,,664382feed568375e3bf2618,66fc990f09a53c5aae5f09df,2024-10-02_02h59.28.387,mdp,2024.2.1,Win32,6.402048656,66fa4ebf79326e780c390304,,,,,,,,,,,,,,,,,,,,,931.0129,931.0129,931.0139,931.8683,0,0,left,0.1868,,931.8691,933.2048,1,0,right,933.2056,935.5466,0,0,left,1,935.5466,935.5466,935.5475,937.0522,0,28,28,28,1,0.4,0.6,0.6,0.4,,,,,,,,,,,,,,,0.6767,,0.2,0.8,0.8,0.2,0.8,0.2,0.2,0.8,,,1.6753,,0.8,0.2,0.2,0.8,0.4,0.6,0.6,0.4,1,0
,,664382feed568375e3bf2618,66fc990f09a53c5aae5f09df,2024-10-02_02h59.28.387,mdp,2024.2.1,Win32,6.402048656,66fa4ebf79326e780c390304,,,,,,,,,,,,,,,,,,,,,937.0528,937.0528,937.0535,938.5412,0,0,left,0.6705,,938.5421,940.0352,1,0,right,940.036,941.8787,0,0,left,1,941.8788,941.8788,941.8796,943.3877,0,29,29,29,1,0.4,0.6,0.6,0.4,,,,,,,,,,,,,,,0.6733,,0.2,0.8,0.8,0.2,0.8,0.2,0.2,0.8,,,1.014,0.0002,0.8,0.2,0.2,0.8,0.4,0.6,0.6,0.4,1,0
,,664382feed568375e3bf2618,66fc990f09a53c5aae5f09df,2024-10-02_02h59.28.387,mdp,2024.2.1,Win32,6.402048656,66fa4ebf79326e780c390304,,,,,,,,,,,,,,,,,,,,,943.3882,943.3882,943.3889,944.8876,0,0,left,0.6833,,944.8883,946.8924,1,0,right,946.8931,948.7267,0,1,left,0,948.7267,948.7267,948.7277,950.2182,0,30,30,30,1,0.4,0.6,0.6,0.4,,,,,,,,,,,,,,,1.1834,,0.2,0.8,0.8,0.2,0.8,0.2,0.2,0.8,,,1.0145,,0.8,0.2,0.2,0.8,0.4,0.6,0.6,0.4,1,0
,,664382feed568375e3bf2618,66fc990f09a53c5aae5f09df,2024-10-02_02h59.28.387,mdp,2024.2.1,Win32,6.402048656,66fa4ebf79326e780c390304,,,,,,,,,,,,,,,,,,,,,950.2188,950.2188,950.2199,951.0476,0,0,left,0.0089,,951.0485,952.7226,1,1,right,952.7234,954.7334,1,0,right,1,954.7336,954.7336,954.7344,956.2313,0,31,31,31,1,0.4,0.6,0.6,0.4,,,,,,,,,,,,,,,0.8502,,0.2,0.8,0.8,0.2,0.8,0.2,0.2,0.8,,,1.1806,,0.8,0.2,0.2,0.8,0.4,0.6,0.6,0.4,1,0
,,664382feed568375e3bf2618,66fc990f09a53c5aae5f09df,2024-10-02_02h59.28.387,mdp,2024.2.1,Win32,6.402048656,66fa4ebf79326e780c390304,,,,,,,,,,,,,,,,,,,,,956.2319,956.2319,956.2326,957.2337,0,1,left,0.1773,0.0004,957.2346,959.2459,1,0,right,959.2466,961.5897,0,0,left,1,961.5897,961.5897,961.5905,963.0974,0,32,32,32,1,0.4,0.6,0.6,0.4,,,,,,,,,,,,,,,1.3482,,0.2,0.8,0.8,0.2,0.8,0.2,0.2,0.8,,,1.5219,,0.8,0.2,0.2,0.8,0.4,0.6,0.6,0.4,1,0
,,664382feed568375e3bf2618,66fc990f09a53c5aae5f09df,2024-10-02_02h59.28.387,mdp,2024.2.1,Win32,6.402048656,66fa4ebf79326e780c390304,,,,,,,,,,,,,,,,,,,,,963.0979,963.0979,963.0987,963.9462,0,1,left,0.1829,,963.947,965.2918,1,0,right,965.2926,967.9656,0,1,left,0,967.9656,967.9656,967.9663,969.4866,0,33,33,33,1,0.4,0.6,0.6,0.4,,,,,,,,,,,,,,,0.5189,,0.2,0.8,0.8,0.2,0.8,0.2,0.2,0.8,,,2.0139,,0.4,0.6,0.4,0.6,0.4,0.6,0.6,0.4,1,0
,,664382feed568375e3bf2618,66fc990f09a53c5aae5f09df,2024-10-02_02h59.28.387,mdp,2024.2.1,Win32,6.402048656,66fa4ebf79326e780c390304,,,,,,,,,,,,,,,,,,,,,969.4872,969.4872,969.4881,970.4989,0,0,left,0.1777,,970.4998,971.5097,1,0,right,971.5105,972.8381,1,1,right,0,972.8381,972.8381,972.8389,974.3412,0,34,34,34,1,0.4,0.6,0.6,0.4,,,,,,,,,,,,,,,0.3431,,0.2,0.8,0.8,0.2,0.8,0.2,0.2,0.8,,,0.5102,0.0002,0.4,0.6,0.4,0.6,0.4,0.6,0.6,0.4,1,0
,,664382feed568375e3bf2618,66fc990f09a53c5aae5f09df,2024-10-02_02h59.28.387,mdp,2024.2.1,Win32,6.402048656,66fa4ebf79326e780c390304,,,,,,,,,,,,,,,,,,,,,974.3416,974.3416,974.3425,975.0122,0,0,left,0.0101,,975.013,976.3349,1,0,right,976.3358,977.8217,0,0,left,1,977.8219,977.8219,977.8227,979.3329,0,35,35,35,1,0.4,0.6,0.6,0.4,,,,,,,,,,,,,,,0.5078,,0.2,0.8,0.8,0.2,0.8,0.2,0.2,0.8,,,0.6734,,0.4,0.6,0.4,0.6,0.4,0.6,0.6,0.4,1,0
,,664382feed568375e3bf2618,66fc990f09a53c5aae5f09df,2024-10-02_02h59.28.387,mdp,2024.2.1,Win32,6.402048656,66fa4ebf79326e780c390304,,,,,,,,,,,,,,,,,,,,,979.3334,979.3334,979.3342,980.6552,0,1,left,0.498,,980.6561,982.3159,1,1,right,982.317,984.1534,1,0,right,1,984.1535,984.1536,984.1541,985.6728,0,36,36,36,1,0.4,0.6,0.6,0.4,,,,,,,,,,,,,,,0.8433,0.0003,0.2,0.8,0.8,0.2,0.8,0.2,0.2,0.8,,,1.0145,,0.4,0.6,0.4,0.6,0.4,0.6,0.6,0.4,1,0
,,664382feed568375e3bf2618,66fc990f09a53c5aae5f09df,2024-10-02_02h59.28.387,mdp,2024.2.1,Win32,6.402048656,66fa4ebf79326e780c390304,,,,,,,,,,,,,,,,,,,,,985.6734,985.6735,985.6743,986.5022,0,1,left,0.0091,,986.503,989.3449,1,0,right,989.3456,991.0038,0,0,left,1,991.0038,991.0038,991.0048,992.5105,0,37,37,37,1,0.4,0.6,0.6,0.4,,,,,,,,,,,,,,,2.0191,,0.2,0.8,0.8,0.2,0.8,0.2,0.2,0.8,,,0.8303,,0.6,0.4,0.8,0.2,0.4,0.6,0.6,0.4,1,0
,,664382feed568375e3bf2618,66fc990f09a53c5aae5f09df,2024-10-02_02h59.28.387,mdp,2024.2.1,Win32,6.402048656,66fa4ebf79326e780c390304,,,,,,,,,,,,,,,,,,,,,992.5111,992.5111,992.5119,994.1893,0,0,left,1.0121,,994.1901,995.3788,1,1,right,995.3798,997.5558,1,0,right,1,997.5558,997.5558,997.5566,999.0601,0,38,38,38,1,0.4,0.6,0.6,0.4,,,,,,,,,,,,,,,0.5161,,0.2,0.8,0.8,0.2,0.8,0.2,0.2,0.8,,,1.3509,,0.6,0.4,0.8,0.2,0.4,0.6,0.6,0.4,1,0
,,664382feed568375e3bf2618,66fc990f09a53c5aae5f09df,2024-10-02_02h59.28.387,mdp,2024.2.1,Win32,6.402048656,66fa4ebf79326e780c390304,,,,,,,,,,,,,,,,,,,,,999.0607,999.0607,999.0615,1000.7351,0,0,left,0.8502,0.0006,1000.7358,1002.9071,1,0,right,1002.9078,1004.4142,0,1,left,0,1004.4143,1004.4143,1004.4151,1005.9236,0,39,39,39,1,0.4,0.6,0.6,0.4,,,,,,,,,,,,,,,1.3517,,0.2,0.8,0.8,0.2,0.8,0.2,0.2,0.8,,,0.6835,,0.6,0.4,0.8,0.2,0.4,0.6,0.6,0.4,1,0
,,664382feed568375e3bf2618,66fc990f09a53c5aae5f09df,2024-10-02_02h59.28.387,mdp,2024.2.1,Win32,6.402048656,66fa4ebf79326e780c390304,,,,,,,,,,,,,,,,,,,,,1005.9242,1005.9242,1005.925,1006.9302,0,1,left,0.176,,1006.9311,1008.271,1,1,right,1008.2718,1010.2901,1,0,right,1,1010.2902,1010.2902,1010.2908,1011.7892,0,40,40,40,1,0.4,0.6,0.6,0.4,,,,,,,,,,,,,,,0.5144,,0.2,0.8,0.8,0.2,0.8,0.2,0.2,0.8,,,1.192,,0.6,0.4,0.8,0.2,0.4,0.6,0.6,0.4,1,0
,,664382feed568375e3bf2618,66fc990f09a53c5aae5f09df,2024-10-02_02h59.28.387,mdp,2024.2.1,Win32,6.402048656,66fa4ebf79326e780c390304,,,,,,,,,,,,,,,,,,,,,1011.7896,1011.7896,1011.7905,1012.6304,0,0,left,0.1766,,1012.6312,1014.2943,1,1,right,1014.2949,1016.4647,1,1,right,0,1016.4648,1016.4648,1016.4656,1017.967,0,41,41,41,1,0.4,0.6,0.6,0.4,,,,,,,,,,,,,,,0.8422,,0.2,0.8,0.8,0.2,0.8,0.2,0.2,0.8,,,1.3464,0.0002,0.6,0.4,0.8,0.2,0.4,0.6,0.6,0.4,1,0
,,664382feed568375e3bf2618,66fc990f09a53c5aae5f09df,2024-10-02_02h59.28.387,mdp,2024.2.1,Win32,6.402048656,66fa4ebf79326e780c390304,,,,,,,,,,,,,,,,,,,,,1017.9678,1017.9678,1017.9687,1018.7972,0,1,left,0.0087,,1018.798,1019.9694,1,0,right,1019.9701,1021.1504,0,0,left,1,1021.1504,1021.1504,1021.1512,1022.6692,0,42,42,42,1,0.4,0.6,0.6,0.4,,,,,,,,,,,,,,,0.3458,,0.2,0.8,0.8,0.2,0.8,0.2,0.2,0.8,,,0.5156,,0.6,0.4,0.8,0.2,0.2,0.8,0.2,0.8,1,0
,,664382feed568375e3bf2618,66fc990f09a53c5aae5f09df,2024-10-02_02h59.28.387,mdp,2024.2.1,Win32,6.402048656,66fa4ebf79326e780c390304,,,,,,,,,,,,,,,,,,,,,1022.6699,1022.6699,1022.6705,1023.4971,1,0,right,0.0088,,1023.4979,1024.6584,0,1,left,1024.6591,1026.3273,0,1,left,0,1026.3274,1026.3274,1026.3284,1027.8587,0,43,43,43,1,0.4,0.6,0.6,0.4,,,,,,,,,,,,,,,0.342,,0.2,0.8,0.8,0.2,0.8,0.2,0.2,0.8,,,0.8551,,0.6,0.4,0.8,0.2,0.2,0.8,0.2,0.8,1,0
,,664382feed568375e3bf2618,66fc990f09a53c5aae5f09df,2024-10-02_02h59.28.387,mdp,2024.2.1,Win32,6.402048656,66fa4ebf79326e780c390304,,,,,,,,,,,,,,,,,,,,,1027.8592,1027.8592,1027.86,1028.5356,0,1,left,0.0086,,1028.5363,1029.7153,1,1,right,1029.7159,1032.0589,1,0,right,1,1032.0589,1032.0589,1032.0595,1033.5491,0,44,44,44,1,0.4,0.6,0.6,0.4,,,,,,,,,,,,,,,0.5105,,0.2,0.8,0.8,0.2,0.8,0.2,0.2,0.8,,,1.5167,,0.6,0.4,0.8,0.2,0.2,0.8,0.2,0.8,1,0
,,664382feed568375e3bf2618,66fc990f09a53c5aae5f09df,2024-10-02_02h59.28.387,mdp,2024.2.1,Win32,6.402048656,66fa4ebf79326e780c390304,,,,,,,,,,,,,,,,,,,,,1033.5495,1033.5495,1033.5504,1034.2258,0,1,left,0.0104,,1034.2268,1035.381,1,1,right,1035.3824,1036.7212,1,0,right,1,1036.7213,1036.7213,1036.7218,1038.2251,0,45,45,45,1,0.4,0.6,0.6,0.4,,,,,,,,,,,,,,,0.3378,,0.2,0.8,0.8,0.2,0.8,0.2,0.2,0.8,,,0.6744,,0.6,0.4,0.8,0.2,0.4,0.6,0.8,0.2,1,0
,,664382feed568375e3bf2618,66fc990f09a53c5aae5f09df,2024-10-02_02h59.28.387,mdp,2024.2.1,Win32,6.402048656,66fa4ebf79326e780c390304,,,,,,,,,,,,,,,,,,,,,1038.2258,1038.2258,1038.2267,1039.8949,1,1,right,0.8457,,1039.8957,1041.2453,1,1,right,1041.2462,1043.2501,1,0,right,1,1043.2501,1043.2501,1043.2508,1044.7508,0,46,46,46,1,0.4,0.6,0.6,0.4,,,,,,,,,,,,,,,0.6857,,0.2,0.8,0.8,0.2,0.8,0.2,0.2,0.8,,,1.1878,,0.6,0.4,0.8,0.2,0.4,0.6,0.8,0.2,1,0
,,664382feed568375e3bf2618,66fc990f09a53c5aae5f09df,2024-10-02_02h59.28.387,mdp,2024.2.1,Win32,6.402048656,66fa4ebf79326e780c390304,,,,,,,,,,,,,,,,,,,,,1044.7512,1044.7512,1044.7522,1046.5931,1,0,right,1.0148,0.0003,1046.5937,1048.6085,1,0,right,1048.6093,1050.2973,0,1,left,0,1050.2975,1050.2975,1050.2983,1051.8073,0,47,47,47,1,0.4,0.6,0.6,0.4,,,,,,,,,,,,,,,1.1917,,0.2,0.8,0.8,0.2,0.8,0.2,0.2,0.8,,,1.0212,,0.6,0.4,0.8,0.2,0.4,0.6,0.8,0.2,1,0
,,664382feed568375e3bf2618,66fc990f09a53c5aae5f09df,2024-10-02_02h59.28.387,mdp,2024.2.1,Win32,6.402048656,66fa4ebf79326e780c390304,,,,,,,,,,,,,,,,,,,,,1051.8078,1051.8078,1051.8088,1052.6482,0,1,left,0.1817,,1052.649,1054.1461,1,1,right,1054.1469,1055.3232,1,1,right,0,1055.3232,1055.3233,1055.3241,1056.8367,0,48,48,48,1,0.4,0.6,0.6,0.4,,,,,,,,,,,,,,,0.6724,,0.2,0.8,0.8,0.2,0.8,0.2,0.2,0.8,,,0.3495,,0.6,0.4,0.8,0.2,0.4,0.6,0.8,0.2,1,0
,,664382feed568375e3bf2618,66fc990f09a53c5aae5f09df,2024-10-02_02h59.28.387,mdp,2024.2.1,Win32,6.402048656,66fa4ebf79326e780c390304,,,,,,,,,,,,,,,,,,,,,1056.8372,1056.8372,1056.8382,1058.0216,0,0,left,0.5133,,1058.0225,1059.366,1,0,right,1059.3671,1061.0475,1,1,right,0,1061.0476,1061.0476,1061.0486,1062.5608,0,49,49,49,1,0.4,0.6,0.6,0.4,,,,,,,,,,,,,,,0.5184,,0.6,0.4,0.4,0.6,0.8,0.2,0.2,0.8,,,0.8547,0.0005,0.6,0.4,0.8,0.2,0.4,0.6,0.8,0.2,1,0
,,664382feed568375e3bf2618,66fc990f09a53c5aae5f09df,2024-10-02_02h59.28.387,mdp,2024.2.1,Win32,6.402048656,66fa4ebf79326e780c390304,,,,,,,,,,,,,,,,,,,,,,,,,,,,,,,,,,,,,,,,,,,,,,,,,,,,,,,,1062.561,1121.1674,0,2,2,0,1,imgs/lion.png,imgs/dog.png,imgs/elephant.png,imgs/giraffe.png,imgs/kangaroo.png,,,,,,,,,,,,,,,,,,,,,,,,
,,664382feed568375e3bf2618,66fc990f09a53c5aae5f09df,2024-10-02_02h59.28.387,mdp,2024.2.1,Win32,6.402048656,66fa4ebf79326e780c390304,,,,,,,,,,,,,,3,seqs/st3seq45.csv,1121.1682,1122.6936,space,0.8592,,1122.7012,1122.7012,1122.7021,1127.1028,0,0,left,3.7259,,1127.1037,1129.6308,1,1,right,1129.6319,1133.6983,0,0,left,1,1133.6984,1133.6984,1133.6994,1135.216,0,0,0,0,1,0.2,0.8,0.2,0.8,,,,,,,,,,,,,,,1.8621,,0.8,0.2,0.6,0.4,0.6,0.4,0.2,0.8,,,3.3913,,0.2,0.8,0.4,0.6,0.2,0.8,0.8,0.2,1,0
,,664382feed568375e3bf2618,66fc990f09a53c5aae5f09df,2024-10-02_02h59.28.387,mdp,2024.2.1,Win32,6.402048656,66fa4ebf79326e780c390304,,,,,,,,,,,,,,,,,,,,,1135.2165,1135.2166,1135.2175,1138.9505,0,1,left,2.9016,,1138.9512,1141.9973,0,0,left,1141.998,1144.2367,0,1,left,0,1144.2368,1144.2368,1144.2376,1145.6615,0,1,1,1,1,0.2,0.8,0.2,0.8,,,,,,,,,,,,,,,2.3753,0.0002,0.8,0.2,0.6,0.4,0.6,0.4,0.2,0.8,,,1.5593,0.0002,0.2,0.8,0.4,0.6,0.2,0.8,0.8,0.2,1,0
,,664382feed568375e3bf2618,66fc990f09a53c5aae5f09df,2024-10-02_02h59.28.387,mdp,2024.2.1,Win32,6.402048656,66fa4ebf79326e780c390304,,,,,,,,,,,,,,,,,,,,,1145.6622,1145.6622,1145.6631,1147.3087,0,1,left,0.921,0.0002,1147.3095,1150.1827,0,1,left,1150.1839,1151.8411,1,1,right,0,1151.8412,1151.8412,1151.8424,1153.338,0,2,2,2,1,0.2,0.8,0.2,0.8,,,,,,,,,,,,,,,2.1684,,0.8,0.2,0.6,0.4,0.4,0.6,0.4,0.6,,,0.9358,,0.2,0.8,0.4,0.6,0.2,0.8,0.8,0.2,1,0
,,664382feed568375e3bf2618,66fc990f09a53c5aae5f09df,2024-10-02_02h59.28.387,mdp,2024.2.1,Win32,6.402048656,66fa4ebf79326e780c390304,,,,,,,,,,,,,,,,,,,,,1153.3387,1153.3387,1153.3397,1154.8064,0,1,left,0.7362,,1154.8075,1156.1178,0,1,left,1156.1187,1157.6036,0,1,left,0,1157.6037,1157.6037,1157.6045,1159.067,0,3,3,3,1,0.2,0.8,0.2,0.8,,,,,,,,,,,,,,,0.5683,,0.8,0.2,0.6,0.4,0.6,0.4,0.2,0.8,,,0.7656,,0.2,0.8,0.4,0.6,0.2,0.8,0.8,0.2,1,0
,,664382feed568375e3bf2618,66fc990f09a53c5aae5f09df,2024-10-02_02h59.28.387,mdp,2024.2.1,Win32,6.402048656,66fa4ebf79326e780c390304,,,,,,,,,,,,,,,,,,,,,1159.0676,1159.0676,1159.0684,1159.7626,0,1,left,0.0105,,1159.7635,1161.7235,1,1,right,1161.7246,1163.2036,0,1,left,0,1163.2037,1163.2037,1163.2048,1164.6708,0,4,4,4,1,0.2,0.8,0.2,0.8,,,,,,,,,,,,,,,1.2678,,0.8,0.2,0.6,0.4,0.6,0.4,0.2,0.8,,,0.7482,,0.2,0.8,0.4,0.6,0.2,0.8,0.8,0.2,1,0
,,664382feed568375e3bf2618,66fc990f09a53c5aae5f09df,2024-10-02_02h59.28.387,mdp,2024.2.1,Win32,6.402048656,66fa4ebf79326e780c390304,,,,,,,,,,,,,,,,,,,,,1164.6715,1164.6715,1164.6724,1165.9308,0,1,left,0.5548,,1165.9317,1167.0243,1,0,right,1167.0253,1168.4767,1,0,right,1,1168.4768,1168.4768,1168.4776,1169.951,0,5,5,5,1,0.2,0.8,0.2,0.8,,,,,,,,,,,,,,,0.3791,,0.8,0.2,0.6,0.4,0.6,0.4,0.2,0.8,,,0.7351,,0.2,0.8,0.4,0.6,0.2,0.8,0.8,0.2,1,0
,,664382feed568375e3bf2618,66fc990f09a53c5aae5f09df,2024-10-02_02h59.28.387,mdp,2024.2.1,Win32,6.402048656,66fa4ebf79326e780c390304,,,,,,,,,,,,,,,,,,,,,1169.9518,1169.9518,1169.9528,1171.2539,0,1,left,0.576,,1171.2549,1172.3618,1,1,right,1172.3628,1174.1981,1,1,right,0,1174.1982,1174.1982,1174.199,1175.6197,0,6,6,6,1,0.2,0.8,0.2,0.8,,,,,,,,,,,,,,,0.3782,,0.8,0.2,0.6,0.4,0.6,0.4,0.2,0.8,,,1.1069,,0.2,0.8,0.4,0.6,0.2,0.8,0.8,0.2,1,0
,,664382feed568375e3bf2618,66fc990f09a53c5aae5f09df,2024-10-02_02h59.28.387,mdp,2024.2.1,Win32,6.402048656,66fa4ebf79326e780c390304,,,,,,,,,,,,,,,,,,,,,1175.6204,1175.6204,1175.6212,1176.8695,0,1,left,0.5383,,1176.8705,1178.2837,1,1,right,1178.2846,1179.9474,0,1,left,0,1179.9474,1179.9474,1179.9483,1181.4297,0,7,7,7,1,0.2,0.8,0.2,0.8,,,,,,,,,,,,,,,0.7371,,0.8,0.2,0.6,0.4,0.6,0.4,0.2,0.8,,,0.9333,,0.2,0.8,0.4,0.6,0.2,0.8,0.8,0.2,1,0
,,664382feed568375e3bf2618,66fc990f09a53c5aae5f09df,2024-10-02_02h59.28.387,mdp,2024.2.1,Win32,6.402048656,66fa4ebf79326e780c390304,,,,,,,,,,,,,,,,,,,,,1181.4305,1181.4305,1181.4316,1182.725,0,0,left,0.5703,,1182.7261,1184.0342,1,0,right,1184.0352,1185.1473,1,0,right,1,1185.1473,1185.1473,1185.1483,1186.5799,0,8,8,8,1,0.2,0.8,0.2,0.8,,,,,,,,,,,,,,,0.5661,0.0003,0.8,0.2,0.6,0.4,0.6,0.4,0.2,0.8,,,0.385,,0.2,0.8,0.4,0.6,0.2,0.8,0.8,0.2,1,0
,,664382feed568375e3bf2618,66fc990f09a53c5aae5f09df,2024-10-02_02h59.28.387,mdp,2024.2.1,Win32,6.402048656,66fa4ebf79326e780c390304,,,,,,,,,,,,,,,,,,,,,1186.5806,1186.5806,1186.5816,1187.6896,0,1,left,0.3827,,1187.691,1190.4734,0,0,left,1190.4743,1191.9544,1,1,right,0,1191.9545,1191.9545,1191.9555,1193.4214,0,9,9,9,1,0.2,0.8,0.2,0.8,,,,,,,,,,,,,,,2.0605,0.0004,0.8,0.2,0.6,0.4,0.6,0.4,0.2,0.8,,,0.7476,,0.2,0.8,0.4,0.6,0.2,0.8,0.8,0.2,1,0
,,664382feed568375e3bf2618,66fc990f09a53c5aae5f09df,2024-10-02_02h59.28.387,mdp,2024.2.1,Win32,6.402048656,66fa4ebf79326e780c390304,,,,,,,,,,,,,,,,,,,,,1193.4225,1193.4225,1193.4235,1194.1639,0,1,left,0.0119,0.0003,1194.165,1195.2801,1,1,right,1195.2812,1197.3164,1,0,right,1,1197.3165,1197.3165,1197.3176,1198.8011,0,10,10,10,1,0.2,0.8,0.2,0.8,,,,,,,,,,,,,,,0.3827,,0.8,0.2,0.6,0.4,0.6,0.4,0.2,0.8,,,1.3073,,0.2,0.8,0.4,0.6,0.2,0.8,0.8,0.2,1,0
,,664382feed568375e3bf2618,66fc990f09a53c5aae5f09df,2024-10-02_02h59.28.387,mdp,2024.2.1,Win32,6.402048656,66fa4ebf79326e780c390304,,,,,,,,,,,,,,,,,,,,,1198.8019,1198.8019,1198.8028,1199.5077,0,1,left,0.0105,,1199.5084,1200.526,0,0,left,1200.5267,1201.8802,1,0,right,1,1201.8803,1201.8803,1201.8811,1203.3917,0,11,11,11,1,0.2,0.8,0.2,0.8,,,,,,,,,,,,,,,0.3509,,0.8,0.2,0.6,0.4,0.6,0.4,0.2,0.8,,,0.6851,,0.2,0.8,0.4,0.6,0.2,0.8,0.8,0.2,1,0
,,664382feed568375e3bf2618,66fc990f09a53c5aae5f09df,2024-10-02_02h59.28.387,mdp,2024.2.1,Win32,6.402048656,66fa4ebf79326e780c390304,,,,,,,,,,,,,,,,,,,,,1203.3921,1203.3922,1203.3929,1204.2265,0,1,left,0.009,0.0005,1204.2272,1205.2376,1,1,right,1205.2383,1207.2539,1,0,right,1,1207.254,1207.254,1207.2546,1208.7633,0,12,12,12,1,0.2,0.8,0.2,0.8,,,,,,,,,,,,,,,0.3427,,0.8,0.2,0.6,0.4,0.6,0.4,0.2,0.8,,,1.191,,0.2,0.8,0.4,0.6,0.2,0.8,0.8,0.2,1,0
,,664382feed568375e3bf2618,66fc990f09a53c5aae5f09df,2024-10-02_02h59.28.387,mdp,2024.2.1,Win32,6.402048656,66fa4ebf79326e780c390304,,,,,,,,,,,,,,,,,,,,,1208.7639,1208.764,1208.7647,1209.4348,0,1,left,0.0086,,1209.4355,1210.8018,1,1,right,1210.8026,1213.0103,1,0,right,1,1213.0104,1213.0104,1213.0112,1214.5466,0,13,13,13,1,0.2,0.8,0.2,0.8,,,,,,,,,,,,,,,0.6906,,0.8,0.2,0.6,0.4,0.6,0.4,0.2,0.8,,,1.5485,,0.2,0.8,0.4,0.6,0.2,0.8,0.8,0.2,1,0
,,664382feed568375e3bf2618,66fc990f09a53c5aae5f09df,2024-10-02_02h59.28.387,mdp,2024.2.1,Win32,6.402048656,66fa4ebf79326e780c390304,,,,,,,,,,,,,,,,,,,,,1214.5471,1214.5472,1214.5481,1215.2316,0,1,left,0.0086,,1215.2323,1216.4294,1,1,right,1216.4304,1218.6417,1,0,right,1,1218.6418,1218.6418,1218.6427,1220.1512,0,14,14,14,1,0.2,0.8,0.2,0.8,,,,,,,,,,,,,,,0.5268,0.0002,0.8,0.2,0.6,0.4,0.6,0.4,0.2,0.8,,,1.5442,,0.2,0.8,0.4,0.6,0.2,0.8,0.8,0.2,1,0
,,664382feed568375e3bf2618,66fc990f09a53c5aae5f09df,2024-10-02_02h59.28.387,mdp,2024.2.1,Win32,6.402048656,66fa4ebf79326e780c390304,,,,,,,,,,,,,,,,,,,,,1220.1519,1220.1519,1220.1527,1220.8394,0,0,left,0.0089,,1220.8402,1222.5259,1,0,right,1222.5265,1224.5681,0,0,left,1,1224.5682,1224.5682,1224.5689,1226.0962,0,15,15,15,1,0.2,0.8,0.2,0.8,,,,,,,,,,,,,,,0.8534,,0.8,0.2,0.6,0.4,0.6,0.4,0.2,0.8,,,1.3731,,0.2,0.8,0.4,0.6,0.2,0.8,0.8,0.2,1,0
,,664382feed568375e3bf2618,66fc990f09a53c5aae5f09df,2024-10-02_02h59.28.387,mdp,2024.2.1,Win32,6.402048656,66fa4ebf79326e780c390304,,,,,,,,,,,,,,,,,,,,,1226.0967,1226.0967,1226.0976,1227.2814,0,1,left,0.512,,1227.2827,1229.8428,1,1,right,1229.8436,1232.2418,1,0,right,1,1232.2419,1232.2419,1232.2427,1233.7816,0,16,16,16,1,0.2,0.8,0.2,0.8,,,,,,,,,,,,,,,1.8836,,0.8,0.2,0.6,0.4,0.6,0.4,0.2,0.8,,,1.731,,0.2,0.8,0.4,0.6,0.2,0.8,0.8,0.2,1,0
,,664382feed568375e3bf2618,66fc990f09a53c5aae5f09df,2024-10-02_02h59.28.387,mdp,2024.2.1,Win32,6.402048656,66fa4ebf79326e780c390304,,,,,,,,,,,,,,,,,,,,,1233.7821,1233.7821,1233.7829,1234.8079,0,0,left,0.3502,,1234.8088,1237.3668,0,1,left,1237.3675,1239.2541,1,0,right,1,1239.2541,1239.2541,1239.255,1240.7751,0,17,17,17,1,0.2,0.8,0.2,0.8,,,,,,,,,,,,,,,1.8841,,0.8,0.2,0.6,0.4,0.6,0.4,0.2,0.8,,,1.2163,,0.2,0.8,0.4,0.6,0.2,0.8,0.8,0.2,1,0
,,664382feed568375e3bf2618,66fc990f09a53c5aae5f09df,2024-10-02_02h59.28.387,mdp,2024.2.1,Win32,6.402048656,66fa4ebf79326e780c390304,,,,,,,,,,,,,,,,,,,,,1240.7757,1240.7757,1240.7765,1241.9653,0,1,left,0.5235,,1241.9663,1244.3514,1,1,right,1244.3525,1246.0553,1,1,right,0,1246.0554,1246.0554,1246.0562,1247.5797,0,18,18,18,1,0.2,0.8,0.2,0.8,,,,,,,,,,,,,,,1.7178,,0.8,0.2,0.6,0.4,0.6,0.4,0.2,0.8,,,1.0321,,0.2,0.8,0.4,0.6,0.6,0.4,0.2,0.8,1,0
,,664382feed568375e3bf2618,66fc990f09a53c5aae5f09df,2024-10-02_02h59.28.387,mdp,2024.2.1,Win32,6.402048656,66fa4ebf79326e780c390304,,,,,,,,,,,,,,,,,,,,,1247.5801,1247.5802,1247.5809,1248.7867,0,1,left,0.5306,0.0004,1248.7877,1250.1392,0,0,left,1250.1403,1251.8421,1,1,right,0,1251.8422,1251.8422,1251.8429,1253.3594,0,19,19,19,1,0.2,0.8,0.2,0.8,,,,,,,,,,,,,,,0.6857,0.0002,0.8,0.2,0.6,0.4,0.6,0.4,0.2,0.8,,,1.0294,,0.2,0.8,0.4,0.6,0.6,0.4,0.2,0.8,1,0
,,664382feed568375e3bf2618,66fc990f09a53c5aae5f09df,2024-10-02_02h59.28.387,mdp,2024.2.1,Win32,6.402048656,66fa4ebf79326e780c390304,,,,,,,,,,,,,,,,,,,,,1253.3598,1253.3598,1253.3607,1254.5461,0,1,left,0.5154,,1254.5468,1255.9071,0,0,left,1255.9079,1257.2654,0,1,left,0,1257.2655,1257.2655,1257.2662,1258.81,0,20,20,20,1,0.2,0.8,0.2,0.8,,,,,,,,,,,,,,,0.6866,0.0002,0.8,0.2,0.6,0.4,0.6,0.4,0.2,0.8,,,0.6911,,0.2,0.8,0.4,0.6,0.6,0.4,0.2,0.8,1,0
,,664382feed568375e3bf2618,66fc990f09a53c5aae5f09df,2024-10-02_02h59.28.387,mdp,2024.2.1,Win32,6.402048656,66fa4ebf79326e780c390304,,,,,,,,,,,,,,,,,,,,,1258.8105,1258.8105,1258.8114,1260.1692,0,1,left,0.5237,,1260.1698,1261.3611,1,1,right,1261.3619,1263.3248,1,1,right,0,1263.3249,1263.3249,1263.326,1264.7187,0,21,21,21,1,0.2,0.8,0.2,0.8,,,,,,,,,,,,,,,0.5225,0.0003,0.8,0.2,0.6,0.4,0.6,0.4,0.2,0.8,,,1.295,,0.2,0.8,0.4,0.6,0.6,0.4,0.2,0.8,1,0
,,664382feed568375e3bf2618,66fc990f09a53c5aae5f09df,2024-10-02_02h59.28.387,mdp,2024.2.1,Win32,6.402048656,66fa4ebf79326e780c390304,,,,,,,,,,,,,,,,,,,,,1264.7192,1264.7192,1264.7203,1266.2849,0,0,left,0.7912,,1266.2856,1267.3184,1,1,right,1267.3195,1268.5089,0,0,left,1,1268.5089,1268.509,1268.5096,1269.8888,0,22,22,22,1,0.2,0.8,0.2,0.8,,,,,,,,,,,,,,,0.3567,,0.8,0.2,0.6,0.4,0.6,0.4,0.2,0.8,,,0.5117,,0.2,0.8,0.4,0.6,0.6,0.4,0.2,0.8,1,0
,,664382feed568375e3bf2618,66fc990f09a53c5aae5f09df,2024-10-02_02h59.28.387,mdp,2024.2.1,Win32,6.402048656,66fa4ebf79326e780c390304,,,,,,,,,,,,,,,,,,,,,1269.8893,1269.8893,1269.8901,1270.964,0,1,left,0.3649,,1270.9652,1272.7649,1,0,right,1272.7658,1274.1518,0,0,left,1,1274.1519,1274.1519,1274.1528,1275.6749,0,23,23,23,1,0.2,0.8,0.2,0.8,,,,,,,,,,,,,,,1.073,,0.8,0.2,0.6,0.4,0.6,0.4,0.2,0.8,,,0.695,,0.2,0.8,0.4,0.6,0.6,0.4,0.2,0.8,1,0
,,664382feed568375e3bf2618,66fc990f09a53c5aae5f09df,2024-10-02_02h59.28.387,mdp,2024.2.1,Win32,6.402048656,66fa4ebf79326e780c390304,,,,,,,,,,,,,,,,,,,,,1275.6755,1275.6755,1275.6764,1276.3665,0,1,left,0.0086,,1276.3679,1277.5655,1,1,right,1277.5664,1279.6209,1,1,right,0,1279.621,1279.621,1279.6219,1281.1574,0,24,24,24,1,0.2,0.8,0.2,0.8,,,,,,,,,,,,,,,0.5213,,0.8,0.2,0.6,0.4,0.6,0.4,0.2,0.8,,,1.3769,,0.2,0.8,0.4,0.6,0.6,0.4,0.2,0.8,1,0
,,664382feed568375e3bf2618,66fc990f09a53c5aae5f09df,2024-10-02_02h59.28.387,mdp,2024.2.1,Win32,6.402048656,66fa4ebf79326e780c390304,,,,,,,,,,,,,,,,,,,,,1281.1579,1281.1579,1281.1588,1281.8361,0,1,left,0.0108,,1281.8371,1282.8466,1,1,right,1282.8475,1283.8583,0,0,left,1,1283.8584,1283.8584,1283.8591,1285.3895,0,25,25,25,1,0.2,0.8,0.2,0.8,,,,,,,,,,,,,,,0.3447,,0.8,0.2,0.6,0.4,0.2,0.8,0.4,0.6,,,0.3514,,0.2,0.8,0.4,0.6,0.6,0.4,0.2,0.8,1,0
,,664382feed568375e3bf2618,66fc990f09a53c5aae5f09df,2024-10-02_02h59.28.387,mdp,2024.2.1,Win32,6.402048656,66fa4ebf79326e780c390304,,,,,,,,,,,,,,,,,,,,,1285.3902,1285.3902,1285.3913,1286.2257,0,1,left,0.0086,,1286.2265,1287.4171,1,1,right,1287.4179,1288.596,0,1,left,0,1288.596,1288.596,1288.5968,1289.9684,0,26,26,26,1,0.2,0.8,0.2,0.8,,,,,,,,,,,,,,,0.5194,0.0002,0.8,0.2,0.6,0.4,0.2,0.8,0.4,0.6,,,0.5121,,0.2,0.8,0.4,0.6,0.6,0.4,0.2,0.8,1,0
,,664382feed568375e3bf2618,66fc990f09a53c5aae5f09df,2024-10-02_02h59.28.387,mdp,2024.2.1,Win32,6.402048656,66fa4ebf79326e780c390304,,,,,,,,,,,,,,,,,,,,,1289.9689,1289.9689,1289.9698,1291.1461,0,1,left,0.5088,,1291.147,1292.3433,1,0,right,1292.3441,1293.3692,0,0,left,1,1293.3694,1293.3694,1293.3702,1294.8941,0,27,27,27,1,0.2,0.8,0.2,0.8,,,,,,,,,,,,,,,0.517,,0.8,0.2,0.6,0.4,0.2,0.8,0.4,0.6,,,0.3523,,0.2,0.8,0.4,0.6,0.8,0.2,0.6,0.4,1,0
,,664382feed568375e3bf2618,66fc990f09a53c5aae5f09df,2024-10-02_02h59.28.387,mdp,2024.2.1,Win32,6.402048656,66fa4ebf79326e780c390304,,,,,,,,,,,,,,,,,,,,,1294.8947,1294.8947,1294.8955,1295.5619,0,1,left,0.0092,,1295.5627,1296.5748,1,0,right,1296.5755,1297.7692,1,0,right,1,1297.7693,1297.7694,1297.7703,1299.1315,0,28,28,28,1,0.2,0.8,0.2,0.8,,,,,,,,,,,,,,,0.3446,0.0002,0.8,0.2,0.6,0.4,0.2,0.8,0.4,0.6,,,0.5297,0.0003,0.2,0.8,0.4,0.6,0.8,0.2,0.6,0.4,1,0
,,664382feed568375e3bf2618,66fc990f09a53c5aae5f09df,2024-10-02_02h59.28.387,mdp,2024.2.1,Win32,6.402048656,66fa4ebf79326e780c390304,,,,,,,,,,,,,,,,,,,,,1299.132,1299.132,1299.1328,1299.9844,0,0,left,0.1785,,1299.985,1301.0029,1,0,right,1301.0036,1302.1795,0,1,left,0,1302.1796,1302.1796,1302.1803,1303.7075,0,29,29,29,1,0.2,0.8,0.2,0.8,,,,,,,,,,,,,,,0.3508,,0.8,0.2,0.6,0.4,0.2,0.8,0.4,0.6,,,0.5107,,0.2,0.8,0.4,0.6,0.8,0.2,0.6,0.4,1,0
,,664382feed568375e3bf2618,66fc990f09a53c5aae5f09df,2024-10-02_02h59.28.387,mdp,2024.2.1,Win32,6.402048656,66fa4ebf79326e780c390304,,,,,,,,,,,,,,,,,,,,,1303.7084,1303.7085,1303.7094,1304.7297,0,1,left,0.3475,,1304.7306,1305.5827,1,1,right,1305.5836,1306.9411,1,1,right,0,1306.9412,1306.9412,1306.9421,1308.4775,0,30,30,30,1,0.2,0.8,0.2,0.8,,,,,,,,,,,,,,,0.185,,0.8,0.2,0.6,0.4,0.2,0.8,0.4,0.6,,,0.6864,,0.2,0.8,0.4,0.6,0.8,0.2,0.6,0.4,1,0
,,664382feed568375e3bf2618,66fc990f09a53c5aae5f09df,2024-10-02_02h59.28.387,mdp,2024.2.1,Win32,6.402048656,66fa4ebf79326e780c390304,,,,,,,,,,,,,,,,,,,,,1308.4781,1308.4781,1308.479,1309.1661,1,1,right,0.0087,,1309.167,1310.3625,0,1,left,1310.3634,1311.3916,1,0,right,1,1311.3917,1311.3917,1311.3924,1312.9225,0,31,31,31,1,0.2,0.8,0.2,0.8,,,,,,,,,,,,,,,0.5224,,0.8,0.2,0.6,0.4,0.2,0.8,0.4,0.6,,,0.3494,0.0002,0.2,0.8,0.4,0.6,0.8,0.2,0.6,0.4,1,0
,,664382feed568375e3bf2618,66fc990f09a53c5aae5f09df,2024-10-02_02h59.28.387,mdp,2024.2.1,Win32,6.402048656,66fa4ebf79326e780c390304,,,,,,,,,,,,,,,,,,,,,1312.923,1312.923,1312.9238,1314.2674,0,0,left,0.6798,,1314.2681,1316.4686,0,0,left,1316.4695,1317.9974,1,0,right,1,1317.9974,1317.9974,1317.9982,1319.5318,0,32,32,32,1,0.2,0.8,0.2,0.8,,,,,,,,,,,,,,,1.5323,,0.8,0.2,0.6,0.4,0.2,0.8,0.4,0.6,,,0.8502,,0.4,0.6,0.6,0.4,0.8,0.2,0.6,0.4,1,0
,,664382feed568375e3bf2618,66fc990f09a53c5aae5f09df,2024-10-02_02h59.28.387,mdp,2024.2.1,Win32,6.402048656,66fa4ebf79326e780c390304,,,,,,,,,,,,,,,,,,,,,1319.5325,1319.5325,1319.5332,1320.3764,0,0,left,0.1781,,1320.3771,1321.5601,1,1,right,1321.5608,1322.8945,1,0,right,1,1322.8945,1322.8946,1322.8955,1324.2905,0,33,33,33,1,0.8,0.2,0.4,0.6,,,,,,,,,,,,,,,0.3482,,0.8,0.2,0.6,0.4,0.2,0.8,0.4,0.6,,,0.5136,,0.4,0.6,0.6,0.4,0.8,0.2,0.6,0.4,1,0
,,664382feed568375e3bf2618,66fc990f09a53c5aae5f09df,2024-10-02_02h59.28.387,mdp,2024.2.1,Win32,6.402048656,66fa4ebf79326e780c390304,,,,,,,,,,,,,,,,,,,,,1324.2912,1324.2912,1324.2922,1325.0288,0,0,left,0.0114,,1325.0297,1325.9307,1,0,right,1325.9316,1327.1953,1,0,right,1,1327.1954,1327.1954,1327.1962,1328.6089,0,34,34,34,1,0.8,0.2,0.4,0.6,,,,,,,,,,,,,,,0.1945,,0.8,0.2,0.6,0.4,0.2,0.8,0.4,0.6,,,0.5484,,0.4,0.6,0.6,0.4,0.8,0.2,0.6,0.4,1,0
,,664382feed568375e3bf2618,66fc990f09a53c5aae5f09df,2024-10-02_02h59.28.387,mdp,2024.2.1,Win32,6.402048656,66fa4ebf79326e780c390304,,,,,,,,,,,,,,,,,,,,,1328.6093,1328.6093,1328.61,1329.2963,0,0,left,0.0086,,1329.2972,1330.503,1,1,right,1330.5039,1331.8424,1,0,right,1,1331.8424,1331.8424,1331.8433,1333.2042,0,35,35,35,1,0.8,0.2,0.4,0.6,,,,,,,,,,,,,,,0.5265,,0.8,0.2,0.6,0.4,0.2,0.8,0.4,0.6,,,0.5783,,0.4,0.6,0.6,0.4,0.8,0.2,0.6,0.4,1,0
,,664382feed568375e3bf2618,66fc990f09a53c5aae5f09df,2024-10-02_02h59.28.387,mdp,2024.2.1,Win32,6.402048656,66fa4ebf79326e780c390304,,,,,,,,,,,,,,,,,,,,,1333.2049,1333.2049,1333.206,1333.9766,0,0,left,0.0136,,1333.9779,1335.2083,1,0,right,1335.2095,1336.3277,1,0,right,1,1336.3278,1336.3278,1336.3289,1337.8521,0,36,36,36,1,0.8,0.2,0.4,0.6,,,,,,,,,,,,,,,0.542,0.0008,0.8,0.2,0.6,0.4,0.2,0.8,0.4,0.6,,,0.3843,0.0004,0.4,0.6,0.6,0.4,0.8,0.2,0.6,0.4,1,0
,,664382feed568375e3bf2618,66fc990f09a53c5aae5f09df,2024-10-02_02h59.28.387,mdp,2024.2.1,Win32,6.402048656,66fa4ebf79326e780c390304,,,,,,,,,,,,,,,,,,,,,1337.8527,1337.8527,1337.8538,1338.5919,0,0,left,0.0151,,1338.5929,1339.8202,1,0,right,1339.8209,1341.3547,1,1,right,0,1341.3548,1341.3548,1341.3557,1342.7609,0,37,37,37,1,0.8,0.2,0.4,0.6,,,,,,,,,,,,,,,0.5312,,0.8,0.2,0.6,0.4,0.2,0.8,0.4,0.6,,,0.7043,,0.4,0.6,0.6,0.4,0.8,0.2,0.6,0.4,1,0
,,664382feed568375e3bf2618,66fc990f09a53c5aae5f09df,2024-10-02_02h59.28.387,mdp,2024.2.1,Win32,6.402048656,66fa4ebf79326e780c390304,,,,,,,,,,,,,,,,,,,,,1342.7616,1342.7616,1342.7629,1343.5078,0,1,left,0.0115,0.0003,1343.509,1345.0005,1,1,right,1345.0015,1346.8714,1,1,right,0,1346.8715,1346.8715,1346.8723,1348.2748,0,38,38,38,1,0.8,0.2,0.4,0.6,,,,,,,,,,,,,,,0.7609,,0.8,0.2,0.6,0.4,0.2,0.8,0.4,0.6,,,1.1479,0.0002,0.4,0.6,0.6,0.4,0.8,0.2,0.6,0.4,1,0
,,664382feed568375e3bf2618,66fc990f09a53c5aae5f09df,2024-10-02_02h59.28.387,mdp,2024.2.1,Win32,6.402048656,66fa4ebf79326e780c390304,,,,,,,,,,,,,,,,,,,,,1348.2754,1348.2754,1348.2764,1348.9798,0,0,left,0.0085,,1348.9805,1350.9011,1,1,right,1350.9019,1352.1772,0,0,left,1,1352.1772,1352.1773,1352.1779,1353.6547,0,39,39,39,1,0.8,0.2,0.4,0.6,,,,,,,,,,,,,,,1.2395,0.0004,0.8,0.2,0.6,0.4,0.2,0.8,0.4,0.6,,,0.5647,,0.4,0.6,0.6,0.4,0.8,0.2,0.6,0.4,1,0
,,664382feed568375e3bf2618,66fc990f09a53c5aae5f09df,2024-10-02_02h59.28.387,mdp,2024.2.1,Win32,6.402048656,66fa4ebf79326e780c390304,,,,,,,,,,,,,,,,,,,,,1353.656,1353.656,1353.6577,1354.4323,0,0,left,0.0133,,1354.4338,1355.5355,1,1,right,1355.5366,1357.019,0,0,left,1,1357.019,1357.0191,1357.0201,1358.5382,0,40,40,40,1,0.8,0.2,0.4,0.6,,,,,,,,,,,,,,,0.3927,,0.8,0.2,0.6,0.4,0.2,0.8,0.4,0.6,,,0.7554,,0.4,0.6,0.6,0.4,0.8,0.2,0.6,0.4,1,0
,,664382feed568375e3bf2618,66fc990f09a53c5aae5f09df,2024-10-02_02h59.28.387,mdp,2024.2.1,Win32,6.402048656,66fa4ebf79326e780c390304,,,,,,,,,,,,,,,,,,,,,1358.5389,1358.5389,1358.5404,1359.8379,0,0,left,0.572,0.0002,1359.8388,1361.5407,1,1,right,1361.5423,1363.1954,0,0,left,1,1363.1955,1363.1955,1363.1963,1364.6725,0,41,41,41,1,0.8,0.2,0.4,0.6,,,,,,,,,,,,,,,0.9743,,0.8,0.2,0.6,0.4,0.2,0.8,0.4,0.6,,,0.922,,0.6,0.4,0.4,0.6,0.8,0.2,0.6,0.4,1,0
,,664382feed568375e3bf2618,66fc990f09a53c5aae5f09df,2024-10-02_02h59.28.387,mdp,2024.2.1,Win32,6.402048656,66fa4ebf79326e780c390304,,,,,,,,,,,,,,,,,,,,,1364.6732,1364.6732,1364.6741,1365.7904,0,0,left,0.3739,,1365.7915,1367.1332,1,1,right,1367.1349,1369.0754,0,0,left,1,1369.0754,1369.0754,1369.0762,1370.5956,0,42,42,42,1,0.8,0.2,0.4,0.6,,,,,,,,,,,,,,,0.5917,,0.8,0.2,0.6,0.4,0.2,0.8,0.4,0.6,,,1.2084,,0.6,0.4,0.4,0.6,0.8,0.2,0.6,0.4,1,0
,,664382feed568375e3bf2618,66fc990f09a53c5aae5f09df,2024-10-02_02h59.28.387,mdp,2024.2.1,Win32,6.402048656,66fa4ebf79326e780c390304,,,,,,,,,,,,,,,,,,,,,1370.5961,1370.5961,1370.5968,1371.6078,0,0,left,0.3404,,1371.6085,1372.7934,1,1,right,1372.7942,1374.4972,0,0,left,1,1374.4973,1374.4973,1374.4981,1376.0254,0,43,43,43,1,0.8,0.2,0.4,0.6,,,,,,,,,,,,,,,0.5191,,0.8,0.2,0.6,0.4,0.2,0.8,0.4,0.6,,,1.0356,,0.6,0.4,0.4,0.6,0.8,0.2,0.6,0.4,1,0
,,664382feed568375e3bf2618,66fc990f09a53c5aae5f09df,2024-10-02_02h59.28.387,mdp,2024.2.1,Win32,6.402048656,66fa4ebf79326e780c390304,,,,,,,,,,,,,,,,,,,,,1376.0262,1376.0262,1376.027,1376.8781,0,0,left,0.1864,0.0002,1376.8787,1378.2591,1,0,right,1378.26,1379.6305,1,1,right,0,1379.6306,1379.6306,1379.6314,1381.1614,0,44,44,44,1,0.8,0.2,0.4,0.6,,,,,,,,,,,,,,,0.6965,0.0001,0.8,0.2,0.6,0.4,0.2,0.8,0.4,0.6,,,0.6869,,0.6,0.4,0.4,0.6,0.8,0.2,0.6,0.4,1,0
,,664382feed568375e3bf2618,66fc990f09a53c5aae5f09df,2024-10-02_02h59.28.387,mdp,2024.2.1,Win32,6.402048656,66fa4ebf79326e780c390304,,,,,,,,,,,,,,,,,,,,,1381.162,1381.162,1381.1629,1381.8469,0,0,left,0.0083,,1381.8478,1383.0508,1,0,right,1383.0515,1384.236,0,0,left,1,1384.236,1384.236,1384.2369,1385.7729,0,45,45,45,1,0.8,0.2,0.4,0.6,,,,,,,,,,,,,,,0.5265,9.99999E-05,0.8,0.2,0.6,0.4,0.2,0.8,0.4,0.6,,,0.5178,,0.6,0.4,0.4,0.6,0.8,0.2,0.6,0.4,1,0
,,664382feed568375e3bf2618,66fc990f09a53c5aae5f09df,2024-10-02_02h59.28.387,mdp,2024.2.1,Win32,6.402048656,66fa4ebf79326e780c390304,,,,,,,,,,,,,,,,,,,,,1385.7736,1385.7736,1385.7745,1386.6172,0,0,left,0.1775,,1386.6181,1387.7963,1,1,right,1387.797,1389.8316,0,1,left,0,1389.8316,1389.8316,1389.8325,1391.2082,0,46,46,46,1,0.8,0.2,0.4,0.6,,,,,,,,,,,,,,,0.5166,,0.8,0.2,0.6,0.4,0.2,0.8,0.4,0.6,,,1.3702,,0.6,0.4,0.4,0.6,0.8,0.2,0.6,0.4,1,0
,,664382feed568375e3bf2618,66fc990f09a53c5aae5f09df,2024-10-02_02h59.28.387,mdp,2024.2.1,Win32,6.402048656,66fa4ebf79326e780c390304,,,,,,,,,,,,,,,,,,,,,1391.2087,1391.2087,1391.2093,1391.8877,0,0,left,0.0084,,1391.8885,1393.0809,1,1,right,1393.0816,1394.2669,1,1,right,0,1394.267,1394.267,1394.2678,1395.7996,0,47,47,47,1,0.8,0.2,0.4,0.6,,,,,,,,,,,,,,,0.5216,0.0002,0.8,0.2,0.6,0.4,0.2,0.8,0.4,0.6,,,0.5212,,0.6,0.4,0.4,0.6,0.8,0.2,0.6,0.4,1,0
,,664382feed568375e3bf2618,66fc990f09a53c5aae5f09df,2024-10-02_02h59.28.387,mdp,2024.2.1,Win32,6.402048656,66fa4ebf79326e780c390304,,,,,,,,,,,,,,,,,,,,,1395.8002,1395.8002,1395.801,1396.6487,0,0,left,0.1738,,1396.6495,1397.6583,1,0,right,1397.6592,1399.377,0,1,left,0,1399.377,1399.377,1399.3778,1400.9109,0,48,48,48,1,0.8,0.2,0.4,0.6,,,,,,,,,,,,,,,0.1748,,0.8,0.2,0.6,0.4,0.8,0.2,0.2,0.8,,,1.0371,,0.6,0.4,0.4,0.6,0.8,0.2,0.6,0.4,1,0
,,664382feed568375e3bf2618,66fc990f09a53c5aae5f09df,2024-10-02_02h59.28.387,mdp,2024.2.1,Win32,6.402048656,66fa4ebf79326e780c390304,,,,,,,,,,,,,,,,,,,,,1400.9114,1400.9114,1400.9121,1403.1392,0,0,left,1.5625,,1403.1403,1404.4912,1,0,right,1404.4924,1406.0209,1,1,right,0,1406.0211,1406.0211,1406.0218,1407.5471,0,49,49,49,1,0.4,0.6,0.6,0.4,,,,,,,,,,,,,,,0.687,,0.8,0.2,0.6,0.4,0.8,0.2,0.2,0.8,,,0.8629,,0.6,0.4,0.4,0.6,0.8,0.2,0.6,0.4,1,0
,,664382feed568375e3bf2618,66fc990f09a53c5aae5f09df,2024-10-02_02h59.28.387,mdp,2024.2.1,Win32,6.402048656,66fa4ebf79326e780c390304,,,,,,,,,,,,,,,,,,,,,,,,,,,,,,,,,,,,,,,,,,,,,,,,,,,,,,,,1407.5472,1466.0569,0,3,3,6,1,imgs/giraffe.png,imgs/rabbit.png,imgs/dog.png,imgs/squirrel.png,imgs/pig.png,,,,,,,,,,,,,,,,,,,,,,,,
,,664382feed568375e3bf2618,66fc990f09a53c5aae5f09df,2024-10-02_02h59.28.387,mdp,2024.2.1,Win32,6.402048656,66fa4ebf79326e780c390304,,,,,,,,,,,,,,1,seqs/st1seq40.csv,1466.0585,1471.4261,space,4.7076,0.0004,1471.4286,1471.4287,1471.4298,1472.9314,0,1,left,0.8301,,1472.9321,1472.9325,1,1,,1472.933,1472.9334,1,1,,0,1472.9334,1472.9334,1472.9338,1474.4335,0,0,0,0,1,0.6,0.4,0.8,0.2,1,0,,,,,,,,,,,,,,,,,,,,,,,,,,,,,,,,,,,,
,,664382feed568375e3bf2618,66fc990f09a53c5aae5f09df,2024-10-02_02h59.28.387,mdp,2024.2.1,Win32,6.402048656,66fa4ebf79326e780c390304,,,,,,,,,,,,,,,,,,,,,1474.434,1474.434,1474.4348,1477.2729,1,0,right,2.0036,,1477.2739,1477.2744,1,0,,1477.2749,1477.2755,1,0,,1,1477.2755,1477.2755,1477.2759,1478.8155,0,1,1,1,1,0.6,0.4,0.8,0.2,1,0,,,,,,,,,,,,,,,,,,,,,,,,,,,,,,,,,,,,
,,664382feed568375e3bf2618,66fc990f09a53c5aae5f09df,2024-10-02_02h59.28.387,mdp,2024.2.1,Win32,6.402048656,66fa4ebf79326e780c390304,,,,,,,,,,,,,,,,,,,,,1478.8158,1478.8158,1478.8167,1481.1482,0,1,left,1.5116,0.0004,1481.1489,1481.1495,1,1,,1481.15,1481.1505,1,1,,0,1481.1505,1481.1505,1481.1512,1482.6505,0,2,2,2,1,0.2,0.8,0.6,0.4,1,0,,,,,,,,,,,,,,,,,,,,,,,,,,,,,,,,,,,,
,,664382feed568375e3bf2618,66fc990f09a53c5aae5f09df,2024-10-02_02h59.28.387,mdp,2024.2.1,Win32,6.402048656,66fa4ebf79326e780c390304,,,,,,,,,,,,,,,,,,,,,1482.651,1482.6511,1482.6519,1483.9803,1,1,right,0.5085,,1483.9812,1483.9816,1,0,,1483.9821,1483.9826,1,1,,0,1483.9826,1483.9827,1483.9831,1485.4753,0,3,3,3,1,0.2,0.8,0.6,0.4,1,0,,,,,,,,,,,,,,,,,,,,,,,,,,,,,,,,,,,,
,,664382feed568375e3bf2618,66fc990f09a53c5aae5f09df,2024-10-02_02h59.28.387,mdp,2024.2.1,Win32,6.402048656,66fa4ebf79326e780c390304,,,,,,,,,,,,,,,,,,,,,1485.4758,1485.4758,1485.4766,1486.7997,1,0,right,0.5067,0.0002,1486.8005,1486.8009,1,0,,1486.8013,1486.8017,1,1,,1,1486.8018,1486.8018,1486.8021,1488.2974,0,4,4,4,1,0.2,0.8,0.6,0.4,1,0,,,,,,,,,,,,,,,,,,,,,,,,,,,,,,,,,,,,
,,664382feed568375e3bf2618,66fc990f09a53c5aae5f09df,2024-10-02_02h59.28.387,mdp,2024.2.1,Win32,6.402048656,66fa4ebf79326e780c390304,,,,,,,,,,,,,,,,,,,,,1488.2979,1488.2979,1488.2986,1489.63,1,0,right,0.5093,,1489.6309,1489.6313,1,0,,1489.6317,1489.6321,1,0,,1,1489.6321,1489.6321,1489.6325,1491.1246,0,5,5,5,1,0.6,0.4,0.8,0.2,1,0,,,,,,,,,,,,,,,,,,,,,,,,,,,,,,,,,,,,
,,664382feed568375e3bf2618,66fc990f09a53c5aae5f09df,2024-10-02_02h59.28.387,mdp,2024.2.1,Win32,6.402048656,66fa4ebf79326e780c390304,,,,,,,,,,,,,,,,,,,,,1491.1252,1491.1252,1491.1262,1492.6284,1,0,right,0.8375,,1492.6292,1492.6297,1,0,,1492.6301,1492.6306,1,0,,1,1492.6306,1492.6306,1492.6309,1494.1147,0,6,6,6,1,0.6,0.4,0.8,0.2,1,0,,,,,,,,,,,,,,,,,,,,,,,,,,,,,,,,,,,,
,,664382feed568375e3bf2618,66fc990f09a53c5aae5f09df,2024-10-02_02h59.28.387,mdp,2024.2.1,Win32,6.402048656,66fa4ebf79326e780c390304,,,,,,,,,,,,,,,,,,,,,1494.115,1494.1151,1494.1159,1495.7538,1,1,right,0.8272,0.0001,1495.7549,1495.7556,1,0,,1495.7564,1495.757,1,0,,0,1495.757,1495.757,1495.7575,1497.2577,0,7,7,7,1,0.2,0.8,0.6,0.4,1,0,,,,,,,,,,,,,,,,,,,,,,,,,,,,,,,,,,,,
,,664382feed568375e3bf2618,66fc990f09a53c5aae5f09df,2024-10-02_02h59.28.387,mdp,2024.2.1,Win32,6.402048656,66fa4ebf79326e780c390304,,,,,,,,,,,,,,,,,,,,,1497.2582,1497.2582,1497.2591,1498.5767,0,1,left,0.5079,,1498.5775,1498.578,1,1,,1498.5784,1498.5788,1,0,,0,1498.5788,1498.5788,1498.5795,1500.0697,0,8,8,8,1,0.2,0.8,0.6,0.4,1,0,,,,,,,,,,,,,,,,,,,,,,,,,,,,,,,,,,,,
,,664382feed568375e3bf2618,66fc990f09a53c5aae5f09df,2024-10-02_02h59.28.387,mdp,2024.2.1,Win32,6.402048656,66fa4ebf79326e780c390304,,,,,,,,,,,,,,,,,,,,,1500.0702,1500.0702,1500.071,1501.3799,1,0,right,0.5015,,1501.3811,1501.3817,1,0,,1501.3824,1501.3829,1,0,,1,1501.3829,1501.3829,1501.3834,1502.8894,0,9,9,9,1,0.2,0.8,0.6,0.4,1,0,,,,,,,,,,,,,,,,,,,,,,,,,,,,,,,,,,,,
,,664382feed568375e3bf2618,66fc990f09a53c5aae5f09df,2024-10-02_02h59.28.387,mdp,2024.2.1,Win32,6.402048656,66fa4ebf79326e780c390304,,,,,,,,,,,,,,,,,,,,,1502.8898,1502.8899,1502.8906,1504.3933,1,0,right,0.8401,,1504.3944,1504.395,1,0,,1504.3956,1504.3961,1,1,,1,1504.3961,1504.3962,1504.3967,1505.8862,0,10,10,10,1,0.2,0.8,0.6,0.4,1,0,,,,,,,,,,,,,,,,,,,,,,,,,,,,,,,,,,,,
,,664382feed568375e3bf2618,66fc990f09a53c5aae5f09df,2024-10-02_02h59.28.387,mdp,2024.2.1,Win32,6.402048656,66fa4ebf79326e780c390304,,,,,,,,,,,,,,,,,,,,,1505.8866,1505.8866,1505.8876,1507.3745,0,1,left,0.6734,,1507.3753,1507.3758,1,1,,1507.3762,1507.3766,1,1,,0,1507.3766,1507.3766,1507.377,1508.8554,0,11,11,11,1,0.2,0.8,0.6,0.4,1,0,,,,,,,,,,,,,,,,,,,,,,,,,,,,,,,,,,,,
,,664382feed568375e3bf2618,66fc990f09a53c5aae5f09df,2024-10-02_02h59.28.387,mdp,2024.2.1,Win32,6.402048656,66fa4ebf79326e780c390304,,,,,,,,,,,,,,,,,,,,,1508.8559,1508.8559,1508.8566,1510.5181,1,0,right,0.8425,,1510.5189,1510.5194,1,0,,1510.5202,1510.5206,1,0,,1,1510.5206,1510.5206,1510.5213,1512.0125,0,12,12,12,1,0.2,0.8,0.6,0.4,1,0,,,,,,,,,,,,,,,,,,,,,,,,,,,,,,,,,,,,
,,664382feed568375e3bf2618,66fc990f09a53c5aae5f09df,2024-10-02_02h59.28.387,mdp,2024.2.1,Win32,6.402048656,66fa4ebf79326e780c390304,,,,,,,,,,,,,,,,,,,,,1512.0131,1512.0131,1512.014,1513.6678,1,1,right,0.8383,0.0004,1513.6687,1513.6691,1,0,,1513.6696,1513.6701,1,0,,0,1513.6701,1513.6701,1513.6706,1515.1516,0,13,13,13,1,0.2,0.8,0.6,0.4,1,0,,,,,,,,,,,,,,,,,,,,,,,,,,,,,,,,,,,,
,,664382feed568375e3bf2618,66fc990f09a53c5aae5f09df,2024-10-02_02h59.28.387,mdp,2024.2.1,Win32,6.402048656,66fa4ebf79326e780c390304,,,,,,,,,,,,,,,,,,,,,1515.1521,1515.1521,1515.1529,1516.7955,0,1,left,0.8397,,1516.7964,1516.7969,1,1,,1516.7974,1516.7978,1,0,,0,1516.7978,1516.7978,1516.7982,1518.2792,0,14,14,14,1,0.2,0.8,0.6,0.4,1,0,,,,,,,,,,,,,,,,,,,,,,,,,,,,,,,,,,,,
,,664382feed568375e3bf2618,66fc990f09a53c5aae5f09df,2024-10-02_02h59.28.387,mdp,2024.2.1,Win32,6.402048656,66fa4ebf79326e780c390304,,,,,,,,,,,,,,,,,,,,,1518.2797,1518.2798,1518.2811,1519.6031,1,0,right,0.5135,,1519.6042,1519.6047,1,1,,1519.6053,1519.6057,1,1,,1,1519.6057,1519.6057,1519.6062,1521.0861,0,15,15,15,1,0.6,0.4,0.4,0.6,1,0,,,,,,,,,,,,,,,,,,,,,,,,,,,,,,,,,,,,
,,664382feed568375e3bf2618,66fc990f09a53c5aae5f09df,2024-10-02_02h59.28.387,mdp,2024.2.1,Win32,6.402048656,66fa4ebf79326e780c390304,,,,,,,,,,,,,,,,,,,,,1521.0865,1521.0865,1521.0873,1522.407,1,0,right,0.5072,,1522.4079,1522.4083,1,0,,1522.4088,1522.4091,1,1,,1,1522.4091,1522.4091,1522.4096,1523.902,0,16,16,16,1,0.2,0.8,0.8,0.2,1,0,,,,,,,,,,,,,,,,,,,,,,,,,,,,,,,,,,,,
,,664382feed568375e3bf2618,66fc990f09a53c5aae5f09df,2024-10-02_02h59.28.387,mdp,2024.2.1,Win32,6.402048656,66fa4ebf79326e780c390304,,,,,,,,,,,,,,,,,,,,,1523.9024,1523.9025,1523.9034,1525.5507,1,0,right,0.836,0.0002,1525.5515,1525.552,1,0,,1525.5524,1525.5528,1,0,,1,1525.5528,1525.5528,1525.5532,1527.0416,0,17,17,17,1,0.2,0.8,0.8,0.2,1,0,,,,,,,,,,,,,,,,,,,,,,,,,,,,,,,,,,,,
,,664382feed568375e3bf2618,66fc990f09a53c5aae5f09df,2024-10-02_02h59.28.387,mdp,2024.2.1,Win32,6.402048656,66fa4ebf79326e780c390304,,,,,,,,,,,,,,,,,,,,,1527.0422,1527.0422,1527.043,1528.6901,1,0,right,0.835,,1528.6909,1528.6913,1,1,,1528.692,1528.6924,1,0,,1,1528.6924,1528.6924,1528.6929,1530.1725,0,18,18,18,1,0.2,0.8,0.8,0.2,1,0,,,,,,,,,,,,,,,,,,,,,,,,,,,,,,,,,,,,
,,664382feed568375e3bf2618,66fc990f09a53c5aae5f09df,2024-10-02_02h59.28.387,mdp,2024.2.1,Win32,6.402048656,66fa4ebf79326e780c390304,,,,,,,,,,,,,,,,,,,,,1530.173,1530.173,1530.174,1531.8309,1,0,right,0.8459,0.0002,1531.8319,1531.8325,1,0,,1531.8332,1531.8337,1,1,,1,1531.8338,1531.8338,1531.8342,1533.3209,0,19,19,19,1,0.2,0.8,0.8,0.2,1,0,,,,,,,,,,,,,,,,,,,,,,,,,,,,,,,,,,,,
,,664382feed568375e3bf2618,66fc990f09a53c5aae5f09df,2024-10-02_02h59.28.387,mdp,2024.2.1,Win32,6.402048656,66fa4ebf79326e780c390304,,,,,,,,,,,,,,,,,,,,,1533.3213,1533.3213,1533.3221,1534.9699,1,0,right,0.8389,,1534.9708,1534.9714,1,0,,1534.9721,1534.9725,1,0,,1,1534.9725,1534.9725,1534.9729,1536.4491,0,20,20,20,1,0.2,0.8,0.8,0.2,1,0,,,,,,,,,,,,,,,,,,,,,,,,,,,,,,,,,,,,
,,664382feed568375e3bf2618,66fc990f09a53c5aae5f09df,2024-10-02_02h59.28.387,mdp,2024.2.1,Win32,6.402048656,66fa4ebf79326e780c390304,,,,,,,,,,,,,,,,,,,,,1536.4495,1536.4495,1536.4505,1537.9639,1,0,right,0.698,0.0002,1537.9646,1537.9651,1,0,,1537.9655,1537.9659,1,0,,1,1537.966,1537.966,1537.9663,1539.4638,0,21,21,21,1,0.2,0.8,0.8,0.2,1,0,,,,,,,,,,,,,,,,,,,,,,,,,,,,,,,,,,,,
,,664382feed568375e3bf2618,66fc990f09a53c5aae5f09df,2024-10-02_02h59.28.387,mdp,2024.2.1,Win32,6.402048656,66fa4ebf79326e780c390304,,,,,,,,,,,,,,,,,,,,,1539.4642,1539.4643,1539.4653,1540.936,1,0,right,0.673,,1540.9367,1540.9372,1,0,,1540.9377,1540.9381,1,1,,1,1540.9381,1540.9381,1540.9385,1542.4,0,22,22,22,1,0.8,0.2,0.6,0.4,1,0,,,,,,,,,,,,,,,,,,,,,,,,,,,,,,,,,,,,
,,664382feed568375e3bf2618,66fc990f09a53c5aae5f09df,2024-10-02_02h59.28.387,mdp,2024.2.1,Win32,6.402048656,66fa4ebf79326e780c390304,,,,,,,,,,,,,,,,,,,,,1542.4003,1542.4003,1542.4012,1543.874,1,1,right,0.6731,,1543.8748,1543.8753,1,1,,1543.8757,1543.8761,1,1,,0,1543.8761,1543.8761,1543.8765,1545.3574,0,23,23,23,1,0.6,0.4,0.2,0.8,1,0,,,,,,,,,,,,,,,,,,,,,,,,,,,,,,,,,,,,
,,664382feed568375e3bf2618,66fc990f09a53c5aae5f09df,2024-10-02_02h59.28.387,mdp,2024.2.1,Win32,6.402048656,66fa4ebf79326e780c390304,,,,,,,,,,,,,,,,,,,,,1545.3579,1545.3579,1545.3587,1546.997,0,0,left,0.8339,,1546.9979,1546.9983,1,0,,1546.9988,1546.9991,1,0,,1,1546.9992,1546.9992,1546.9995,1548.4872,0,24,24,24,1,0.8,0.2,0.6,0.4,1,0,,,,,,,,,,,,,,,,,,,,,,,,,,,,,,,,,,,,
,,664382feed568375e3bf2618,66fc990f09a53c5aae5f09df,2024-10-02_02h59.28.387,mdp,2024.2.1,Win32,6.402048656,66fa4ebf79326e780c390304,,,,,,,,,,,,,,,,,,,,,1548.4879,1548.4879,1548.4912,1550.1457,0,1,left,0.9988,,1550.1466,1550.1472,1,0,,1550.1478,1550.1483,1,0,,0,1550.1483,1550.1483,1550.1487,1551.6336,0,25,25,25,1,0.8,0.2,0.6,0.4,1,0,,,,,,,,,,,,,,,,,,,,,,,,,,,,,,,,,,,,
,,664382feed568375e3bf2618,66fc990f09a53c5aae5f09df,2024-10-02_02h59.28.387,mdp,2024.2.1,Win32,6.402048656,66fa4ebf79326e780c390304,,,,,,,,,,,,,,,,,,,,,1551.6341,1551.6342,1551.6351,1553.2705,0,0,left,0.8284,,1553.2715,1553.272,1,0,,1553.2726,1553.2731,1,0,,1,1553.2731,1553.2731,1553.2737,1554.7651,0,26,26,26,1,0.4,0.6,0.8,0.2,1,0,,,,,,,,,,,,,,,,,,,,,,,,,,,,,,,,,,,,
,,664382feed568375e3bf2618,66fc990f09a53c5aae5f09df,2024-10-02_02h59.28.387,mdp,2024.2.1,Win32,6.402048656,66fa4ebf79326e780c390304,,,,,,,,,,,,,,,,,,,,,1554.7654,1554.7654,1554.7664,1556.4245,1,0,right,0.8369,0.0001,1556.4253,1556.4257,1,0,,1556.4261,1556.4265,1,0,,1,1556.4265,1556.4265,1556.427,1557.9088,0,27,27,27,1,0.4,0.6,0.8,0.2,1,0,,,,,,,,,,,,,,,,,,,,,,,,,,,,,,,,,,,,
,,664382feed568375e3bf2618,66fc990f09a53c5aae5f09df,2024-10-02_02h59.28.387,mdp,2024.2.1,Win32,6.402048656,66fa4ebf79326e780c390304,,,,,,,,,,,,,,,,,,,,,1557.9092,1557.9092,1557.9103,1559.5612,0,0,left,0.8455,,1559.5621,1559.5625,1,0,,1559.5631,1559.5635,1,0,,1,1559.5635,1559.5635,1559.564,1561.0523,0,28,28,28,1,0.4,0.6,0.8,0.2,1,0,,,,,,,,,,,,,,,,,,,,,,,,,,,,,,,,,,,,
,,664382feed568375e3bf2618,66fc990f09a53c5aae5f09df,2024-10-02_02h59.28.387,mdp,2024.2.1,Win32,6.402048656,66fa4ebf79326e780c390304,,,,,,,,,,,,,,,,,,,,,1561.0527,1561.0527,1561.0535,1562.6942,1,0,right,0.8269,0.0003,1562.695,1562.6954,1,0,,1562.6958,1562.6961,1,0,,1,1562.6962,1562.6962,1562.6966,1564.1697,0,29,29,29,1,0.6,0.4,0.6,0.4,1,0,,,,,,,,,,,,,,,,,,,,,,,,,,,,,,,,,,,,
,,664382feed568375e3bf2618,66fc990f09a53c5aae5f09df,2024-10-02_02h59.28.387,mdp,2024.2.1,Win32,6.402048656,66fa4ebf79326e780c390304,,,,,,,,,,,,,,,,,,,,,1564.1701,1564.1701,1564.1714,1565.6387,0,1,left,0.659,,1565.6395,1565.64,1,0,,1565.6406,1565.6409,1,0,,0,1565.6409,1565.641,1565.6413,1567.1118,0,30,30,30,1,0.6,0.4,0.6,0.4,1,0,,,,,,,,,,,,,,,,,,,,,,,,,,,,,,,,,,,,
,,664382feed568375e3bf2618,66fc990f09a53c5aae5f09df,2024-10-02_02h59.28.387,mdp,2024.2.1,Win32,6.402048656,66fa4ebf79326e780c390304,,,,,,,,,,,,,,,,,,,,,1567.1124,1567.1124,1567.1133,1568.5946,0,1,left,0.6679,,1568.5955,1568.5959,1,1,,1568.5965,1568.597,1,0,,0,1568.597,1568.597,1568.5974,1570.073,0,31,31,31,1,0.6,0.4,0.6,0.4,1,0,,,,,,,,,,,,,,,,,,,,,,,,,,,,,,,,,,,,
,,664382feed568375e3bf2618,66fc990f09a53c5aae5f09df,2024-10-02_02h59.28.387,mdp,2024.2.1,Win32,6.402048656,66fa4ebf79326e780c390304,,,,,,,,,,,,,,,,,,,,,1570.0734,1570.0734,1570.0742,1571.3949,1,1,right,0.5028,,1571.3958,1571.3962,1,0,,1571.3968,1571.3971,1,0,,0,1571.3972,1571.3972,1571.3976,1572.8653,0,32,32,32,1,0.6,0.4,0.6,0.4,1,0,,,,,,,,,,,,,,,,,,,,,,,,,,,,,,,,,,,,
,,664382feed568375e3bf2618,66fc990f09a53c5aae5f09df,2024-10-02_02h59.28.387,mdp,2024.2.1,Win32,6.402048656,66fa4ebf79326e780c390304,,,,,,,,,,,,,,,,,,,,,1572.8657,1572.8657,1572.8665,1574.3362,1,1,right,0.6634,0.0001,1574.337,1574.3374,1,1,,1574.3378,1574.3382,1,0,,0,1574.3382,1574.3382,1574.3386,1575.8106,0,33,33,33,1,0.8,0.2,0.4,0.6,1,0,,,,,,,,,,,,,,,,,,,,,,,,,,,,,,,,,,,,
,,664382feed568375e3bf2618,66fc990f09a53c5aae5f09df,2024-10-02_02h59.28.387,mdp,2024.2.1,Win32,6.402048656,66fa4ebf79326e780c390304,,,,,,,,,,,,,,,,,,,,,1575.8111,1575.8111,1575.8121,1577.4515,1,1,right,0.8341,0.0003,1577.4522,1577.4527,1,0,,1577.4533,1577.4537,1,1,,0,1577.4537,1577.4537,1577.4542,1578.9262,0,34,34,34,1,0.8,0.2,0.4,0.6,1,0,,,,,,,,,,,,,,,,,,,,,,,,,,,,,,,,,,,,
,,664382feed568375e3bf2618,66fc990f09a53c5aae5f09df,2024-10-02_02h59.28.387,mdp,2024.2.1,Win32,6.402048656,66fa4ebf79326e780c390304,,,,,,,,,,,,,,,,,,,,,1578.9266,1578.9267,1578.9277,1580.2476,0,1,left,0.5011,,1580.2484,1580.2488,1,0,,1580.2493,1580.2496,1,0,,0,1580.2496,1580.2496,1580.2502,1581.7458,0,35,35,35,1,0.8,0.2,0.4,0.6,1,0,,,,,,,,,,,,,,,,,,,,,,,,,,,,,,,,,,,,
,,664382feed568375e3bf2618,66fc990f09a53c5aae5f09df,2024-10-02_02h59.28.387,mdp,2024.2.1,Win32,6.402048656,66fa4ebf79326e780c390304,,,,,,,,,,,,,,,,,,,,,1581.7463,1581.7463,1581.7471,1583.7074,1,1,right,1.1565,,1583.7082,1583.7086,1,0,,1583.7091,1583.7094,1,1,,0,1583.7094,1583.7094,1583.7098,1585.185,0,36,36,36,1,0.8,0.2,0.4,0.6,1,0,,,,,,,,,,,,,,,,,,,,,,,,,,,,,,,,,,,,
,,664382feed568375e3bf2618,66fc990f09a53c5aae5f09df,2024-10-02_02h59.28.387,mdp,2024.2.1,Win32,6.402048656,66fa4ebf79326e780c390304,,,,,,,,,,,,,,,,,,,,,1585.1857,1585.1858,1585.1866,1586.6639,1,1,right,0.6705,,1586.6647,1586.6652,1,1,,1586.6656,1586.666,1,1,,0,1586.666,1586.666,1586.6664,1588.1382,0,37,37,37,1,0.8,0.2,0.4,0.6,1,0,,,,,,,,,,,,,,,,,,,,,,,,,,,,,,,,,,,,
,,664382feed568375e3bf2618,66fc990f09a53c5aae5f09df,2024-10-02_02h59.28.387,mdp,2024.2.1,Win32,6.402048656,66fa4ebf79326e780c390304,,,,,,,,,,,,,,,,,,,,,1588.1386,1588.1387,1588.1397,1589.6135,0,1,left,0.6711,,1589.6144,1589.6147,1,0,,1589.6153,1589.6157,1,0,,0,1589.6157,1589.6157,1589.6162,1591.0929,0,38,38,38,1,0.8,0.2,0.4,0.6,1,0,,,,,,,,,,,,,,,,,,,,,,,,,,,,,,,,,,,,
