init_exp.started,init_exp.stopped,participant,session,date,expName,psychopyVersion,OS,frameRate,study_id,disp_instruction.started,disp_instruction.stopped,instruction.thisRepN,instruction.thisTrialN,instruction.thisN,instruction.thisIndex,instruction.ran,instimg_path,consent.started,consent.stopped,key_resp_3.keys,key_resp_3.rt,key_resp_3.duration,n_steps,sequence_path,init_block.started,init_block.stopped,key_resp.keys,key_resp.rt,key_resp.duration,init_trials.started,init_trials.stopped,step0.started,step0.stopped,act0,s1,res0.keys,res0.rt,res0.duration,step1.started,step1.stopped,act1,s2,res1.keys,step2.started,step2.stopped,act2,s3,res2.keys,rew,reward_comp.started,reward_comp.stopped,reward_disp.started,reward_disp.stopped,trials.thisRepN,trials.thisTrialN,trials.thisN,trials.thisIndex,trials.ran,s00a0s10,s00a0s11,s00a1s10,s00a1s11,rew10,rew11,break_block.started,break_block.stopped,block.thisRepN,block.thisTrialN,block.thisN,block.thisIndex,block.ran,s00path,s10path,s11path,s20path,s21path,res1.rt,res1.duration,s10a0s20,s10a0s21,s10a1s20,s10a1s21,s11a0s20,s11a0s21,s11a1s20,s11a1s21,rew20,rew21,res2.rt,res2.duration,s20a0s30,s20a0s31,s20a1s30,s20a1s31,s21a0s30,s21a0s31,s21a1s30,s21a1s31,rew30,rew31
0.001,0.005,6646052f36c0bd14aafa0f0f,66fc98f5141f86454daa7cf4,2024-10-02_02h51.43.028,mdp,2024.2.1,Win32,142.8571429,66fa4ebf79326e780c390304,,,,,,,,,,,,,,,,,,,,,,,,,,,,,,,,,,,,,,,,,,,,,,,,,,,,,,,,,,,,,,,,,,,,,,,,,,,,,,,,,,,,,,,,,,,
,,6646052f36c0bd14aafa0f0f,66fc98f5141f86454daa7cf4,2024-10-02_02h51.43.028,mdp,2024.2.1,Win32,142.8571429,66fa4ebf79326e780c390304,0.009,25.078,0,0,0,0,1,rlnn_exp/rlnn_exp.001.png,,,,,,,,,,,,,,,,,,,,,,,,,,,,,,,,,,,,,,,,,,,,,,,,,,,,,,,,,,,,,,,,,,,,,,,,,,,,,,,,,,,
,,6646052f36c0bd14aafa0f0f,66fc98f5141f86454daa7cf4,2024-10-02_02h51.43.028,mdp,2024.2.1,Win32,142.8571429,66fa4ebf79326e780c390304,25.078,36.02,0,1,1,1,1,rlnn_exp/rlnn_exp.002.png,,,,,,,,,,,,,,,,,,,,,,,,,,,,,,,,,,,,,,,,,,,,,,,,,,,,,,,,,,,,,,,,,,,,,,,,,,,,,,,,,,,
,,6646052f36c0bd14aafa0f0f,66fc98f5141f86454daa7cf4,2024-10-02_02h51.43.028,mdp,2024.2.1,Win32,142.8571429,66fa4ebf79326e780c390304,36.02,77.832,0,2,2,2,1,rlnn_exp/rlnn_exp.003.png,,,,,,,,,,,,,,,,,,,,,,,,,,,,,,,,,,,,,,,,,,,,,,,,,,,,,,,,,,,,,,,,,,,,,,,,,,,,,,,,,,,
,,6646052f36c0bd14aafa0f0f,66fc98f5141f86454daa7cf4,2024-10-02_02h51.43.028,mdp,2024.2.1,Win32,142.8571429,66fa4ebf79326e780c390304,77.842,100.825,0,3,3,3,1,rlnn_exp/rlnn_exp.004.png,,,,,,,,,,,,,,,,,,,,,,,,,,,,,,,,,,,,,,,,,,,,,,,,,,,,,,,,,,,,,,,,,,,,,,,,,,,,,,,,,,,
,,6646052f36c0bd14aafa0f0f,66fc98f5141f86454daa7cf4,2024-10-02_02h51.43.028,mdp,2024.2.1,Win32,142.8571429,66fa4ebf79326e780c390304,,,,,,,,,100.838,286.568,y,142.052,,,,,,,,,,,,,,,,,,,,,,,,,,,,,,,,,,,,,,,,,,,,,,,,,,,,,,,,,,,,,,,,,,,,,,,,,,,,,,,
,,6646052f36c0bd14aafa0f0f,66fc98f5141f86454daa7cf4,2024-10-02_02h51.43.028,mdp,2024.2.1,Win32,142.8571429,66fa4ebf79326e780c390304,,,,,,,,,,,,,,1,seqs/st1seq33.csv,286.585,288.305,space,1.21,,288.316,288.316,288.316,289.728,0,0,left,0.894,,289.728,289.73,,0,,289.73,289.733,,0,,1,289.733,289.733,289.733,291.227,0,0,0,0,1,0.4,0.6,0.8,0.2,1,0,,,,,,,,,,,,,,,,,,,,,,,,,,,,,,,,,,,,
,,6646052f36c0bd14aafa0f0f,66fc98f5141f86454daa7cf4,2024-10-02_02h51.43.028,mdp,2024.2.1,Win32,142.8571429,66fa4ebf79326e780c390304,,,,,,,,,,,,,,,,,,,,,291.228,291.228,291.23,292.332,0,1,left,0.592,,292.333,292.335,,1,,292.335,292.336,,0,,0,292.336,292.336,292.336,293.831,0,1,1,1,1,0.4,0.6,0.8,0.2,1,0,,,,,,,,,,,,,,,,,,,,,,,,,,,,,,,,,,,,
,,6646052f36c0bd14aafa0f0f,66fc98f5141f86454daa7cf4,2024-10-02_02h51.43.028,mdp,2024.2.1,Win32,142.8571429,66fa4ebf79326e780c390304,,,,,,,,,,,,,,,,,,,,,293.831,293.831,293.832,294.873,0,0,left,0.536,,294.874,294.875,,1,,294.877,294.878,,1,,1,294.878,294.878,294.879,296.373,0,2,2,2,1,0.8,0.2,0.4,0.6,1,0,,,,,,,,,,,,,,,,,,,,,,,,,,,,,,,,,,,,
,,6646052f36c0bd14aafa0f0f,66fc98f5141f86454daa7cf4,2024-10-02_02h51.43.028,mdp,2024.2.1,Win32,142.8571429,66fa4ebf79326e780c390304,,,,,,,,,,,,,,,,,,,,,296.374,296.374,296.376,297.381,0,0,left,0.494,,297.381,297.383,,0,,297.384,297.384,,0,,1,297.384,297.385,297.386,298.887,0,3,3,3,1,0.8,0.2,0.4,0.6,1,0,,,,,,,,,,,,,,,,,,,,,,,,,,,,,,,,,,,,
,,6646052f36c0bd14aafa0f0f,66fc98f5141f86454daa7cf4,2024-10-02_02h51.43.028,mdp,2024.2.1,Win32,142.8571429,66fa4ebf79326e780c390304,,,,,,,,,,,,,,,,,,,,,298.887,298.887,298.89,299.846,0,0,left,0.446,,299.846,299.847,,0,,299.847,299.849,,0,,1,299.849,299.849,299.849,301.345,0,4,4,4,1,0.8,0.2,0.4,0.6,1,0,,,,,,,,,,,,,,,,,,,,,,,,,,,,,,,,,,,,
,,6646052f36c0bd14aafa0f0f,66fc98f5141f86454daa7cf4,2024-10-02_02h51.43.028,mdp,2024.2.1,Win32,142.8571429,66fa4ebf79326e780c390304,,,,,,,,,,,,,,,,,,,,,301.346,301.346,301.347,302.194,0,0,left,0.343,,302.196,302.197,,0,,302.197,302.198,,1,,1,302.198,302.198,302.199,303.693,0,5,5,5,1,0.8,0.2,0.4,0.6,1,0,,,,,,,,,,,,,,,,,,,,,,,,,,,,,,,,,,,,
,,6646052f36c0bd14aafa0f0f,66fc98f5141f86454daa7cf4,2024-10-02_02h51.43.028,mdp,2024.2.1,Win32,142.8571429,66fa4ebf79326e780c390304,,,,,,,,,,,,,,,,,,,,,303.693,303.693,303.694,304.616,0,1,left,0.413,,304.617,304.619,,0,,304.619,304.621,,0,,0,304.621,304.621,304.621,306.123,0,6,6,6,1,0.8,0.2,0.4,0.6,1,0,,,,,,,,,,,,,,,,,,,,,,,,,,,,,,,,,,,,
,,6646052f36c0bd14aafa0f0f,66fc98f5141f86454daa7cf4,2024-10-02_02h51.43.028,mdp,2024.2.1,Win32,142.8571429,66fa4ebf79326e780c390304,,,,,,,,,,,,,,,,,,,,,306.124,306.124,306.126,307.019,0,1,left,0.382,,307.02,307.02,,1,,307.021,307.022,,0,,0,307.022,307.022,307.022,308.519,0,7,7,7,1,0.8,0.2,0.4,0.6,1,0,,,,,,,,,,,,,,,,,,,,,,,,,,,,,,,,,,,,
,,6646052f36c0bd14aafa0f0f,66fc98f5141f86454daa7cf4,2024-10-02_02h51.43.028,mdp,2024.2.1,Win32,142.8571429,66fa4ebf79326e780c390304,,,,,,,,,,,,,,,,,,,,,308.52,308.52,308.52,309.346,1,0,right,0.312,,309.348,309.349,,0,,309.35,309.351,,1,,1,309.351,309.351,309.351,310.852,0,8,8,8,1,0.8,0.2,0.4,0.6,1,0,,,,,,,,,,,,,,,,,,,,,,,,,,,,,,,,,,,,
,,6646052f36c0bd14aafa0f0f,66fc98f5141f86454daa7cf4,2024-10-02_02h51.43.028,mdp,2024.2.1,Win32,142.8571429,66fa4ebf79326e780c390304,,,,,,,,,,,,,,,,,,,,,310.853,310.853,310.854,311.7,1,0,right,0.336,,311.7,311.702,,1,,311.702,311.703,,0,,1,311.703,311.703,311.705,313.199,0,9,9,9,1,0.8,0.2,0.4,0.6,1,0,,,,,,,,,,,,,,,,,,,,,,,,,,,,,,,,,,,,
,,6646052f36c0bd14aafa0f0f,66fc98f5141f86454daa7cf4,2024-10-02_02h51.43.028,mdp,2024.2.1,Win32,142.8571429,66fa4ebf79326e780c390304,,,,,,,,,,,,,,,,,,,,,313.199,313.199,313.2,314.095,1,0,right,0.39,,314.096,314.097,,0,,314.098,314.098,,0,,1,314.098,314.098,314.098,315.595,0,10,10,10,1,0.4,0.6,0.8,0.2,1,0,,,,,,,,,,,,,,,,,,,,,,,,,,,,,,,,,,,,
,,6646052f36c0bd14aafa0f0f,66fc98f5141f86454daa7cf4,2024-10-02_02h51.43.028,mdp,2024.2.1,Win32,142.8571429,66fa4ebf79326e780c390304,,,,,,,,,,,,,,,,,,,,,315.595,315.595,315.597,316.359,1,0,right,0.259,,316.36,316.361,,0,,316.362,316.363,,1,,1,316.363,316.363,316.364,317.866,0,11,11,11,1,0.4,0.6,0.8,0.2,1,0,,,,,,,,,,,,,,,,,,,,,,,,,,,,,,,,,,,,
,,6646052f36c0bd14aafa0f0f,66fc98f5141f86454daa7cf4,2024-10-02_02h51.43.028,mdp,2024.2.1,Win32,142.8571429,66fa4ebf79326e780c390304,,,,,,,,,,,,,,,,,,,,,317.866,317.866,317.867,318.637,1,0,right,0.267,,318.638,318.64,,1,,318.64,318.641,,1,,1,318.641,318.641,318.642,320.137,0,12,12,12,1,0.6,0.4,0.2,0.8,1,0,,,,,,,,,,,,,,,,,,,,,,,,,,,,,,,,,,,,
,,6646052f36c0bd14aafa0f0f,66fc98f5141f86454daa7cf4,2024-10-02_02h51.43.028,mdp,2024.2.1,Win32,142.8571429,66fa4ebf79326e780c390304,,,,,,,,,,,,,,,,,,,,,320.137,320.137,320.138,320.915,1,1,right,0.272,,320.916,320.916,,1,,320.918,320.919,,0,,0,320.919,320.919,320.919,322.415,0,13,13,13,1,0.6,0.4,0.2,0.8,1,0,,,,,,,,,,,,,,,,,,,,,,,,,,,,,,,,,,,,
,,6646052f36c0bd14aafa0f0f,66fc98f5141f86454daa7cf4,2024-10-02_02h51.43.028,mdp,2024.2.1,Win32,142.8571429,66fa4ebf79326e780c390304,,,,,,,,,,,,,,,,,,,,,322.415,322.415,322.416,323.838,0,0,left,0.912,,323.839,323.84,,0,,323.84,323.841,,1,,1,323.841,323.841,323.842,325.338,0,14,14,14,1,0.6,0.4,0.2,0.8,1,0,,,,,,,,,,,,,,,,,,,,,,,,,,,,,,,,,,,,
,,6646052f36c0bd14aafa0f0f,66fc98f5141f86454daa7cf4,2024-10-02_02h51.43.028,mdp,2024.2.1,Win32,142.8571429,66fa4ebf79326e780c390304,,,,,,,,,,,,,,,,,,,,,325.338,325.338,325.339,326.06,0,0,left,0.215,,326.061,326.063,,1,,326.064,326.064,,0,,1,326.064,326.064,326.065,327.56,0,15,15,15,1,0.6,0.4,0.2,0.8,1,0,,,,,,,,,,,,,,,,,,,,,,,,,,,,,,,,,,,,
,,6646052f36c0bd14aafa0f0f,66fc98f5141f86454daa7cf4,2024-10-02_02h51.43.028,mdp,2024.2.1,Win32,142.8571429,66fa4ebf79326e780c390304,,,,,,,,,,,,,,,,,,,,,327.56,327.56,327.561,328.116,0,1,left,0.051,,328.117,328.118,,1,,328.119,328.119,,0,,0,328.119,328.119,328.12,329.615,0,16,16,16,1,0.6,0.4,0.2,0.8,1,0,,,,,,,,,,,,,,,,,,,,,,,,,,,,,,,,,,,,
,,6646052f36c0bd14aafa0f0f,66fc98f5141f86454daa7cf4,2024-10-02_02h51.43.028,mdp,2024.2.1,Win32,142.8571429,66fa4ebf79326e780c390304,,,,,,,,,,,,,,,,,,,,,329.617,329.617,329.617,330.415,1,0,right,0.285,,330.416,330.417,,1,,330.418,330.418,,1,,1,330.418,330.418,330.419,331.915,0,17,17,17,1,0.6,0.4,0.2,0.8,1,0,,,,,,,,,,,,,,,,,,,,,,,,,,,,,,,,,,,,
,,6646052f36c0bd14aafa0f0f,66fc98f5141f86454daa7cf4,2024-10-02_02h51.43.028,mdp,2024.2.1,Win32,142.8571429,66fa4ebf79326e780c390304,,,,,,,,,,,,,,,,,,,,,331.916,331.916,331.917,333.31,1,1,right,0.883,,333.311,333.312,,1,,333.314,333.315,,1,,0,333.315,333.315,333.316,334.81,0,18,18,18,1,0.6,0.4,0.2,0.8,1,0,,,,,,,,,,,,,,,,,,,,,,,,,,,,,,,,,,,,
,,6646052f36c0bd14aafa0f0f,66fc98f5141f86454daa7cf4,2024-10-02_02h51.43.028,mdp,2024.2.1,Win32,142.8571429,66fa4ebf79326e780c390304,,,,,,,,,,,,,,,,,,,,,334.81,334.81,334.812,350.401,1,1,right,15.085,,350.415,350.416,,1,,350.417,350.418,,1,,0,350.418,350.418,350.418,351.915,0,19,19,19,1,0.6,0.4,0.2,0.8,1,0,,,,,,,,,,,,,,,,,,,,,,,,,,,,,,,,,,,,
,,6646052f36c0bd14aafa0f0f,66fc98f5141f86454daa7cf4,2024-10-02_02h51.43.028,mdp,2024.2.1,Win32,142.8571429,66fa4ebf79326e780c390304,,,,,,,,,,,,,,,,,,,,,351.915,351.915,351.916,352.866,0,1,left,0.441,,352.868,352.869,,1,,352.87,352.87,,0,,0,352.87,352.87,352.872,354.366,0,20,20,20,1,0.8,0.2,0.6,0.4,1,0,,,,,,,,,,,,,,,,,,,,,,,,,,,,,,,,,,,,
,,6646052f36c0bd14aafa0f0f,66fc98f5141f86454daa7cf4,2024-10-02_02h51.43.028,mdp,2024.2.1,Win32,142.8571429,66fa4ebf79326e780c390304,,,,,,,,,,,,,,,,,,,,,354.367,354.367,354.368,355.143,0,0,left,0.267,,355.145,355.145,,0,,355.146,355.147,,0,,1,355.147,355.147,355.147,356.644,0,21,21,21,1,0.8,0.2,0.6,0.4,1,0,,,,,,,,,,,,,,,,,,,,,,,,,,,,,,,,,,,,
,,6646052f36c0bd14aafa0f0f,66fc98f5141f86454daa7cf4,2024-10-02_02h51.43.028,mdp,2024.2.1,Win32,142.8571429,66fa4ebf79326e780c390304,,,,,,,,,,,,,,,,,,,,,356.644,356.644,356.645,357.943,0,0,left,0.797,,357.944,357.945,,0,,357.947,357.948,,0,,1,357.949,357.949,357.95,359.45,0,22,22,22,1,0.8,0.2,0.6,0.4,1,0,,,,,,,,,,,,,,,,,,,,,,,,,,,,,,,,,,,,
,,6646052f36c0bd14aafa0f0f,66fc98f5141f86454daa7cf4,2024-10-02_02h51.43.028,mdp,2024.2.1,Win32,142.8571429,66fa4ebf79326e780c390304,,,,,,,,,,,,,,,,,,,,,359.45,359.45,359.451,360.248,0,0,left,0.288,,360.25,360.25,,0,,360.25,360.251,,0,,1,360.251,360.251,360.252,361.749,0,23,23,23,1,0.8,0.2,0.6,0.4,1,0,,,,,,,,,,,,,,,,,,,,,,,,,,,,,,,,,,,,
,,6646052f36c0bd14aafa0f0f,66fc98f5141f86454daa7cf4,2024-10-02_02h51.43.028,mdp,2024.2.1,Win32,142.8571429,66fa4ebf79326e780c390304,,,,,,,,,,,,,,,,,,,,,361.749,361.749,361.749,362.623,0,0,left,0.363,,362.625,362.626,,0,,362.626,362.626,,0,,1,362.626,362.626,362.627,364.123,0,24,24,24,1,0.8,0.2,0.6,0.4,1,0,,,,,,,,,,,,,,,,,,,,,,,,,,,,,,,,,,,,
,,6646052f36c0bd14aafa0f0f,66fc98f5141f86454daa7cf4,2024-10-02_02h51.43.028,mdp,2024.2.1,Win32,142.8571429,66fa4ebf79326e780c390304,,,,,,,,,,,,,,,,,,,,,364.124,364.124,364.125,364.831,0,0,left,0.195,,364.832,364.833,,0,,364.834,364.835,,0,,1,364.835,364.835,364.835,366.331,0,25,25,25,1,0.8,0.2,0.6,0.4,1,0,,,,,,,,,,,,,,,,,,,,,,,,,,,,,,,,,,,,
,,6646052f36c0bd14aafa0f0f,66fc98f5141f86454daa7cf4,2024-10-02_02h51.43.028,mdp,2024.2.1,Win32,142.8571429,66fa4ebf79326e780c390304,,,,,,,,,,,,,,,,,,,,,366.331,366.331,366.332,367.2,0,0,left,0.364,,367.201,367.203,,0,,367.203,367.204,,0,,1,367.204,367.204,367.206,368.7,0,26,26,26,1,0.8,0.2,0.6,0.4,1,0,,,,,,,,,,,,,,,,,,,,,,,,,,,,,,,,,,,,
,,6646052f36c0bd14aafa0f0f,66fc98f5141f86454daa7cf4,2024-10-02_02h51.43.028,mdp,2024.2.1,Win32,142.8571429,66fa4ebf79326e780c390304,,,,,,,,,,,,,,,,,,,,,368.7,368.7,368.701,371.97,1,0,right,2.759,,371.971,371.971,,0,,371.972,371.973,,1,,1,371.973,371.973,371.973,373.47,0,27,27,27,1,0.8,0.2,0.6,0.4,1,0,,,,,,,,,,,,,,,,,,,,,,,,,,,,,,,,,,,,
,,6646052f36c0bd14aafa0f0f,66fc98f5141f86454daa7cf4,2024-10-02_02h51.43.028,mdp,2024.2.1,Win32,142.8571429,66fa4ebf79326e780c390304,,,,,,,,,,,,,,,,,,,,,373.47,373.47,373.471,376.533,1,1,right,2.556,,376.543,376.544,,0,,376.545,376.545,,1,,0,376.546,376.546,376.547,378.047,0,28,28,28,1,0.8,0.2,0.6,0.4,1,0,,,,,,,,,,,,,,,,,,,,,,,,,,,,,,,,,,,,
,,6646052f36c0bd14aafa0f0f,66fc98f5141f86454daa7cf4,2024-10-02_02h51.43.028,mdp,2024.2.1,Win32,142.8571429,66fa4ebf79326e780c390304,,,,,,,,,,,,,,,,,,,,,378.047,378.047,378.049,378.79,0,0,left,0.229,,378.791,378.792,,0,,378.793,378.794,,0,,1,378.794,378.794,378.795,380.289,0,29,29,29,1,0.8,0.2,0.6,0.4,1,0,,,,,,,,,,,,,,,,,,,,,,,,,,,,,,,,,,,,
,,6646052f36c0bd14aafa0f0f,66fc98f5141f86454daa7cf4,2024-10-02_02h51.43.028,mdp,2024.2.1,Win32,142.8571429,66fa4ebf79326e780c390304,,,,,,,,,,,,,,,,,,,,,380.29,380.29,380.291,381.157,0,0,left,0.358,,381.158,381.159,,0,,381.16,381.16,,0,,1,381.161,381.161,381.161,382.657,0,30,30,30,1,0.8,0.2,0.6,0.4,1,0,,,,,,,,,,,,,,,,,,,,,,,,,,,,,,,,,,,,
,,6646052f36c0bd14aafa0f0f,66fc98f5141f86454daa7cf4,2024-10-02_02h51.43.028,mdp,2024.2.1,Win32,142.8571429,66fa4ebf79326e780c390304,,,,,,,,,,,,,,,,,,,,,382.658,382.658,382.659,383.372,0,1,left,0.205,,383.374,383.375,,1,,383.375,383.376,,1,,0,383.376,383.376,383.376,384.873,0,31,31,31,1,0.2,0.8,0.8,0.2,1,0,,,,,,,,,,,,,,,,,,,,,,,,,,,,,,,,,,,,
,,6646052f36c0bd14aafa0f0f,66fc98f5141f86454daa7cf4,2024-10-02_02h51.43.028,mdp,2024.2.1,Win32,142.8571429,66fa4ebf79326e780c390304,,,,,,,,,,,,,,,,,,,,,384.873,384.873,384.874,407.422,0,1,left,22.041,,407.435,407.435,,1,,407.436,407.437,,1,,0,407.437,407.437,407.438,408.935,0,32,32,32,1,0.2,0.8,0.8,0.2,1,0,,,,,,,,,,,,,,,,,,,,,,,,,,,,,,,,,,,,
,,6646052f36c0bd14aafa0f0f,66fc98f5141f86454daa7cf4,2024-10-02_02h51.43.028,mdp,2024.2.1,Win32,142.8571429,66fa4ebf79326e780c390304,,,,,,,,,,,,,,,,,,,,,408.935,408.935,408.936,409.63,0,1,left,0.19,,409.631,409.631,,1,,409.632,409.633,,0,,0,409.633,409.633,409.634,411.13,0,33,33,33,1,0.2,0.8,0.8,0.2,1,0,,,,,,,,,,,,,,,,,,,,,,,,,,,,,,,,,,,,
,,6646052f36c0bd14aafa0f0f,66fc98f5141f86454daa7cf4,2024-10-02_02h51.43.028,mdp,2024.2.1,Win32,142.8571429,66fa4ebf79326e780c390304,,,,,,,,,,,,,,,,,,,,,411.13,411.13,411.131,412.032,0,1,left,0.389,,412.034,412.034,,1,,412.036,412.036,,1,,0,412.036,412.036,412.037,413.532,0,34,34,34,1,0.2,0.8,0.8,0.2,1,0,,,,,,,,,,,,,,,,,,,,,,,,,,,,,,,,,,,,
,,6646052f36c0bd14aafa0f0f,66fc98f5141f86454daa7cf4,2024-10-02_02h51.43.028,mdp,2024.2.1,Win32,142.8571429,66fa4ebf79326e780c390304,,,,,,,,,,,,,,,,,,,,,413.533,413.533,413.535,414.06,1,0,right,0.016,,414.061,414.063,,0,,414.064,414.064,,1,,1,414.064,414.064,414.065,415.561,0,35,35,35,1,0.2,0.8,0.8,0.2,1,0,,,,,,,,,,,,,,,,,,,,,,,,,,,,,,,,,,,,
,,6646052f36c0bd14aafa0f0f,66fc98f5141f86454daa7cf4,2024-10-02_02h51.43.028,mdp,2024.2.1,Win32,142.8571429,66fa4ebf79326e780c390304,,,,,,,,,,,,,,,,,,,,,415.561,415.561,415.563,416.15,1,0,right,0.078,,416.152,416.152,,0,,416.154,416.155,,0,,1,416.155,416.155,416.155,417.652,0,36,36,36,1,0.8,0.2,0.6,0.4,1,0,,,,,,,,,,,,,,,,,,,,,,,,,,,,,,,,,,,,
,,6646052f36c0bd14aafa0f0f,66fc98f5141f86454daa7cf4,2024-10-02_02h51.43.028,mdp,2024.2.1,Win32,142.8571429,66fa4ebf79326e780c390304,,,,,,,,,,,,,,,,,,,,,417.652,417.652,417.653,418.47,1,0,right,0.306,,418.472,418.473,,0,,418.474,418.475,,1,,1,418.475,418.475,418.475,419.977,0,37,37,37,1,0.8,0.2,0.6,0.4,1,0,,,,,,,,,,,,,,,,,,,,,,,,,,,,,,,,,,,,
,,6646052f36c0bd14aafa0f0f,66fc98f5141f86454daa7cf4,2024-10-02_02h51.43.028,mdp,2024.2.1,Win32,142.8571429,66fa4ebf79326e780c390304,,,,,,,,,,,,,,,,,,,,,419.978,419.978,419.979,420.609,1,0,right,0.119,,420.61,420.61,,0,,420.612,420.612,,0,,1,420.612,420.612,420.612,422.108,0,38,38,38,1,0.8,0.2,0.6,0.4,1,0,,,,,,,,,,,,,,,,,,,,,,,,,,,,,,,,,,,,
,,6646052f36c0bd14aafa0f0f,66fc98f5141f86454daa7cf4,2024-10-02_02h51.43.028,mdp,2024.2.1,Win32,142.8571429,66fa4ebf79326e780c390304,,,,,,,,,,,,,,,,,,,,,422.109,422.109,422.11,422.888,1,0,right,0.276,,422.889,422.89,,1,,422.89,422.892,,0,,1,422.892,422.892,422.892,424.387,0,39,39,39,1,0.8,0.2,0.6,0.4,1,0,,,,,,,,,,,,,,,,,,,,,,,,,,,,,,,,,,,,
,,6646052f36c0bd14aafa0f0f,66fc98f5141f86454daa7cf4,2024-10-02_02h51.43.028,mdp,2024.2.1,Win32,142.8571429,66fa4ebf79326e780c390304,,,,,,,,,,,,,,,,,,,,,424.387,424.387,424.39,424.942,1,0,right,0.042,,424.944,424.944,,0,,424.944,424.945,,1,,1,424.945,424.945,424.945,426.442,0,40,40,40,1,0.8,0.2,0.6,0.4,1,0,,,,,,,,,,,,,,,,,,,,,,,,,,,,,,,,,,,,
,,6646052f36c0bd14aafa0f0f,66fc98f5141f86454daa7cf4,2024-10-02_02h51.43.028,mdp,2024.2.1,Win32,142.8571429,66fa4ebf79326e780c390304,,,,,,,,,,,,,,,,,,,,,426.443,426.443,426.443,427.151,1,1,right,0.202,,427.152,427.153,,1,,427.153,427.154,,0,,0,427.154,427.154,427.155,428.651,0,41,41,41,1,0.8,0.2,0.6,0.4,1,0,,,,,,,,,,,,,,,,,,,,,,,,,,,,,,,,,,,,
,,6646052f36c0bd14aafa0f0f,66fc98f5141f86454daa7cf4,2024-10-02_02h51.43.028,mdp,2024.2.1,Win32,142.8571429,66fa4ebf79326e780c390304,,,,,,,,,,,,,,,,,,,,,428.651,428.651,428.653,429.297,0,0,left,0.139,,429.298,429.299,,0,,429.299,429.3,,0,,1,429.3,429.3,429.301,430.797,0,42,42,42,1,0.8,0.2,0.6,0.4,1,0,,,,,,,,,,,,,,,,,,,,,,,,,,,,,,,,,,,,
,,6646052f36c0bd14aafa0f0f,66fc98f5141f86454daa7cf4,2024-10-02_02h51.43.028,mdp,2024.2.1,Win32,142.8571429,66fa4ebf79326e780c390304,,,,,,,,,,,,,,,,,,,,,430.797,430.797,430.798,431.394,0,0,left,0.084,,431.395,431.396,,0,,431.397,431.398,,0,,1,431.398,431.398,431.398,432.894,0,43,43,43,1,0.8,0.2,0.6,0.4,1,0,,,,,,,,,,,,,,,,,,,,,,,,,,,,,,,,,,,,
,,6646052f36c0bd14aafa0f0f,66fc98f5141f86454daa7cf4,2024-10-02_02h51.43.028,mdp,2024.2.1,Win32,142.8571429,66fa4ebf79326e780c390304,,,,,,,,,,,,,,,,,,,,,432.894,432.894,432.896,433.741,0,0,left,0.341,,433.742,433.744,,0,,433.745,433.746,,0,,1,433.746,433.746,433.746,435.241,0,44,44,44,1,0.8,0.2,0.6,0.4,1,0,,,,,,,,,,,,,,,,,,,,,,,,,,,,,,,,,,,,
,,6646052f36c0bd14aafa0f0f,66fc98f5141f86454daa7cf4,2024-10-02_02h51.43.028,mdp,2024.2.1,Win32,142.8571429,66fa4ebf79326e780c390304,,,,,,,,,,,,,,,,,,,,,435.241,435.241,435.243,435.97,1,1,right,0.226,,435.971,435.973,,0,,435.974,435.974,,1,,0,435.975,435.975,435.975,437.477,0,45,45,45,1,0.8,0.2,0.6,0.4,1,0,,,,,,,,,,,,,,,,,,,,,,,,,,,,,,,,,,,,
,,6646052f36c0bd14aafa0f0f,66fc98f5141f86454daa7cf4,2024-10-02_02h51.43.028,mdp,2024.2.1,Win32,142.8571429,66fa4ebf79326e780c390304,,,,,,,,,,,,,,,,,,,,,437.478,437.478,437.479,438.171,0,1,left,0.184,,438.173,438.174,,0,,438.174,438.176,,1,,0,438.176,438.176,438.176,439.671,0,46,46,46,1,0.6,0.4,0.4,0.6,1,0,,,,,,,,,,,,,,,,,,,,,,,,,,,,,,,,,,,,
,,6646052f36c0bd14aafa0f0f,66fc98f5141f86454daa7cf4,2024-10-02_02h51.43.028,mdp,2024.2.1,Win32,142.8571429,66fa4ebf79326e780c390304,,,,,,,,,,,,,,,,,,,,,439.672,439.672,439.673,440.352,0,0,left,0.169,,440.353,440.354,,0,,440.355,440.355,,0,,1,440.356,440.356,440.357,441.852,0,47,47,47,1,0.6,0.4,0.4,0.6,1,0,,,,,,,,,,,,,,,,,,,,,,,,,,,,,,,,,,,,
,,6646052f36c0bd14aafa0f0f,66fc98f5141f86454daa7cf4,2024-10-02_02h51.43.028,mdp,2024.2.1,Win32,142.8571429,66fa4ebf79326e780c390304,,,,,,,,,,,,,,,,,,,,,441.853,441.853,441.854,442.484,0,0,left,0.119,,442.485,442.486,,0,,442.487,442.488,,1,,1,442.488,442.488,442.489,443.984,0,48,48,48,1,0.6,0.4,0.4,0.6,1,0,,,,,,,,,,,,,,,,,,,,,,,,,,,,,,,,,,,,
,,6646052f36c0bd14aafa0f0f,66fc98f5141f86454daa7cf4,2024-10-02_02h51.43.028,mdp,2024.2.1,Win32,142.8571429,66fa4ebf79326e780c390304,,,,,,,,,,,,,,,,,,,,,443.984,443.984,443.985,445.027,0,0,left,0.539,,445.029,445.03,,0,,445.031,445.032,,0,,1,445.032,445.032,445.033,446.533,0,49,49,49,1,0.8,0.2,0.8,0.2,1,0,,,,,,,,,,,,,,,,,,,,,,,,,,,,,,,,,,,,
,,6646052f36c0bd14aafa0f0f,66fc98f5141f86454daa7cf4,2024-10-02_02h51.43.028,mdp,2024.2.1,Win32,142.8571429,66fa4ebf79326e780c390304,,,,,,,,,,,,,,,,,,,,,,,,,,,,,,,,,,,,,,,,,,,,,,,,,,,,,,,,446.534,505.034,0,0,0,0,1,imgs/dog.png,imgs/cat.png,imgs/kangaroo.png,imgs/bear.png,imgs/pig.png,,,,,,,,,,,,,,,,,,,,,,,,
,,6646052f36c0bd14aafa0f0f,66fc98f5141f86454daa7cf4,2024-10-02_02h51.43.028,mdp,2024.2.1,Win32,142.8571429,66fa4ebf79326e780c390304,,,,,,,,,,,,,,2,seqs/st2seq16.csv,505.044,515.734,space,10.183,,515.758,515.758,515.761,517.831,1,0,right,1.549,,517.832,520.595,0,0,left,520.596,520.598,,0,,1,520.598,520.598,520.599,522.095,0,0,0,0,1,0.8,0.2,0.6,0.4,,,,,,,,,,,,,,,2.229,,0.8,0.2,0.2,0.8,0.2,0.8,0.4,0.6,1,0,,,,,,,,,,,,
,,6646052f36c0bd14aafa0f0f,66fc98f5141f86454daa7cf4,2024-10-02_02h51.43.028,mdp,2024.2.1,Win32,142.8571429,66fa4ebf79326e780c390304,,,,,,,,,,,,,,,,,,,,,522.095,522.095,522.096,523.22,1,0,right,0.611,,523.221,524.401,0,0,left,524.403,524.404,,0,,1,524.405,524.405,524.405,525.901,0,1,1,1,1,0.8,0.2,0.6,0.4,,,,,,,,,,,,,,,0.677,,0.8,0.2,0.2,0.8,0.2,0.8,0.4,0.6,1,0,,,,,,,,,,,,
,,6646052f36c0bd14aafa0f0f,66fc98f5141f86454daa7cf4,2024-10-02_02h51.43.028,mdp,2024.2.1,Win32,142.8571429,66fa4ebf79326e780c390304,,,,,,,,,,,,,,,,,,,,,525.902,525.902,525.903,526.665,1,1,right,0.252,,526.667,529.298,1,1,right,529.3,529.3,,1,,0,529.3,529.3,529.301,530.796,0,2,2,2,1,0.8,0.2,0.6,0.4,,,,,,,,,,,,,,,2.116,,0.6,0.4,0.8,0.2,0.2,0.8,0.4,0.6,1,0,,,,,,,,,,,,
,,6646052f36c0bd14aafa0f0f,66fc98f5141f86454daa7cf4,2024-10-02_02h51.43.028,mdp,2024.2.1,Win32,142.8571429,66fa4ebf79326e780c390304,,,,,,,,,,,,,,,,,,,,,530.797,530.797,530.798,531.782,1,0,right,0.478,,531.784,533.033,0,0,left,533.034,533.035,,1,,1,533.035,533.035,533.035,534.534,0,3,3,3,1,0.8,0.2,0.6,0.4,,,,,,,,,,,,,,,0.735,,0.6,0.4,0.8,0.2,0.2,0.8,0.4,0.6,1,0,,,,,,,,,,,,
,,6646052f36c0bd14aafa0f0f,66fc98f5141f86454daa7cf4,2024-10-02_02h51.43.028,mdp,2024.2.1,Win32,142.8571429,66fa4ebf79326e780c390304,,,,,,,,,,,,,,,,,,,,,534.534,534.534,534.535,535.519,1,0,right,0.476,,535.519,536.783,0,0,left,536.784,536.785,,0,,1,536.785,536.785,536.785,538.284,0,4,4,4,1,0.8,0.2,0.6,0.4,,,,,,,,,,,,,,,0.75,,0.6,0.4,0.8,0.2,0.6,0.4,0.8,0.2,1,0,,,,,,,,,,,,
,,6646052f36c0bd14aafa0f0f,66fc98f5141f86454daa7cf4,2024-10-02_02h51.43.028,mdp,2024.2.1,Win32,142.8571429,66fa4ebf79326e780c390304,,,,,,,,,,,,,,,,,,,,,538.284,538.284,538.286,539.408,1,0,right,0.613,,539.409,540.623,0,0,left,540.624,540.625,,0,,1,540.625,540.625,540.626,542.123,0,5,5,5,1,0.8,0.2,0.6,0.4,,,,,,,,,,,,,,,0.711,,0.6,0.4,0.8,0.2,0.6,0.4,0.8,0.2,1,0,,,,,,,,,,,,
,,6646052f36c0bd14aafa0f0f,66fc98f5141f86454daa7cf4,2024-10-02_02h51.43.028,mdp,2024.2.1,Win32,142.8571429,66fa4ebf79326e780c390304,,,,,,,,,,,,,,,,,,,,,542.124,542.124,542.125,543.172,1,0,right,0.534,,543.173,544.367,0,0,left,544.368,544.368,,0,,1,544.369,544.369,544.37,545.866,0,6,6,6,1,0.8,0.2,0.6,0.4,,,,,,,,,,,,,,,0.682,,0.6,0.4,0.8,0.2,0.6,0.4,0.8,0.2,1,0,,,,,,,,,,,,
,,6646052f36c0bd14aafa0f0f,66fc98f5141f86454daa7cf4,2024-10-02_02h51.43.028,mdp,2024.2.1,Win32,142.8571429,66fa4ebf79326e780c390304,,,,,,,,,,,,,,,,,,,,,545.867,545.867,545.868,546.893,1,0,right,0.52,,546.895,548.012,0,1,left,548.013,548.014,,1,,0,548.014,548.014,548.015,549.512,0,7,7,7,1,0.8,0.2,0.6,0.4,,,,,,,,,,,,,,,0.606,,0.6,0.4,0.8,0.2,0.6,0.4,0.8,0.2,1,0,,,,,,,,,,,,
,,6646052f36c0bd14aafa0f0f,66fc98f5141f86454daa7cf4,2024-10-02_02h51.43.028,mdp,2024.2.1,Win32,142.8571429,66fa4ebf79326e780c390304,,,,,,,,,,,,,,,,,,,,,549.513,549.513,549.514,550.409,1,1,right,0.385,,550.41,551.66,1,0,right,551.66,551.661,,0,,1,551.661,551.661,551.662,553.157,0,8,8,8,1,0.8,0.2,0.6,0.4,,,,,,,,,,,,,,,0.733,,0.6,0.4,0.8,0.2,0.6,0.4,0.8,0.2,1,0,,,,,,,,,,,,
,,6646052f36c0bd14aafa0f0f,66fc98f5141f86454daa7cf4,2024-10-02_02h51.43.028,mdp,2024.2.1,Win32,142.8571429,66fa4ebf79326e780c390304,,,,,,,,,,,,,,,,,,,,,553.158,553.158,553.16,554.061,1,0,right,0.389,,554.062,555.303,0,0,left,555.305,555.306,,0,,1,555.306,555.306,555.306,556.803,0,9,9,9,1,0.8,0.2,0.6,0.4,,,,,,,,,,,,,,,0.725,,0.8,0.2,0.4,0.6,0.6,0.4,0.8,0.2,1,0,,,,,,,,,,,,
,,6646052f36c0bd14aafa0f0f,66fc98f5141f86454daa7cf4,2024-10-02_02h51.43.028,mdp,2024.2.1,Win32,142.8571429,66fa4ebf79326e780c390304,,,,,,,,,,,,,,,,,,,,,556.803,556.803,556.806,557.881,1,0,right,0.567,,557.881,559.612,0,0,left,559.613,559.614,,0,,1,559.614,559.614,559.615,561.11,0,10,10,10,1,0.8,0.2,0.6,0.4,,,,,,,,,,,,,,,1.217,0,0.8,0.2,0.4,0.6,0.6,0.4,0.8,0.2,1,0,,,,,,,,,,,,
,,6646052f36c0bd14aafa0f0f,66fc98f5141f86454daa7cf4,2024-10-02_02h51.43.028,mdp,2024.2.1,Win32,142.8571429,66fa4ebf79326e780c390304,,,,,,,,,,,,,,,,,,,,,561.11,561.11,561.112,561.915,1,1,right,0.293,,561.916,563.998,0,0,left,563.999,564,,1,,1,564.001,564.001,564.001,565.498,0,11,11,11,1,0.8,0.2,0.6,0.4,,,,,,,,,,,,,,,1.57,,0.8,0.2,0.4,0.6,0.6,0.4,0.8,0.2,1,0,,,,,,,,,,,,
,,6646052f36c0bd14aafa0f0f,66fc98f5141f86454daa7cf4,2024-10-02_02h51.43.028,mdp,2024.2.1,Win32,142.8571429,66fa4ebf79326e780c390304,,,,,,,,,,,,,,,,,,,,,565.498,565.498,565.499,566.303,1,0,right,0.301,,566.305,567.388,0,0,left,567.388,567.39,,1,,1,567.39,567.39,567.39,568.887,0,12,12,12,1,0.8,0.2,0.6,0.4,,,,,,,,,,,,,,,0.569,,0.8,0.2,0.4,0.6,0.4,0.6,0.2,0.8,1,0,,,,,,,,,,,,
,,6646052f36c0bd14aafa0f0f,66fc98f5141f86454daa7cf4,2024-10-02_02h51.43.028,mdp,2024.2.1,Win32,142.8571429,66fa4ebf79326e780c390304,,,,,,,,,,,,,,,,,,,,,568.888,568.888,568.889,569.852,1,0,right,0.453,,569.854,570.853,1,0,right,570.855,570.856,,1,,1,570.856,570.856,570.857,572.353,0,13,13,13,1,0.8,0.2,0.6,0.4,,,,,,,,,,,,,,,0.496,,0.8,0.2,0.4,0.6,0.4,0.6,0.2,0.8,1,0,,,,,,,,,,,,
,,6646052f36c0bd14aafa0f0f,66fc98f5141f86454daa7cf4,2024-10-02_02h51.43.028,mdp,2024.2.1,Win32,142.8571429,66fa4ebf79326e780c390304,,,,,,,,,,,,,,,,,,,,,572.354,572.354,572.355,573.186,1,1,right,0.32,,573.187,574.699,0,0,left,574.7,574.702,,1,,1,574.702,574.702,574.703,576.199,0,14,14,14,1,0.8,0.2,0.6,0.4,,,,,,,,,,,,,,,0.999,,0.8,0.2,0.4,0.6,0.4,0.6,0.2,0.8,1,0,,,,,,,,,,,,
,,6646052f36c0bd14aafa0f0f,66fc98f5141f86454daa7cf4,2024-10-02_02h51.43.028,mdp,2024.2.1,Win32,142.8571429,66fa4ebf79326e780c390304,,,,,,,,,,,,,,,,,,,,,576.2,576.2,576.201,577.081,1,0,right,0.377,,577.083,578.29,0,0,left,578.291,578.292,,0,,1,578.293,578.293,578.293,579.79,0,15,15,15,1,0.8,0.2,0.6,0.4,,,,,,,,,,,,,,,0.697,,0.8,0.2,0.4,0.6,0.6,0.4,0.8,0.2,1,0,,,,,,,,,,,,
,,6646052f36c0bd14aafa0f0f,66fc98f5141f86454daa7cf4,2024-10-02_02h51.43.028,mdp,2024.2.1,Win32,142.8571429,66fa4ebf79326e780c390304,,,,,,,,,,,,,,,,,,,,,579.79,579.79,579.791,580.675,1,0,right,0.381,,580.676,581.935,0,0,left,581.936,581.938,,0,,1,581.938,581.938,581.939,583.437,0,16,16,16,1,0.8,0.2,0.6,0.4,,,,,,,,,,,,,,,0.751,,0.8,0.2,0.4,0.6,0.6,0.4,0.8,0.2,1,0,,,,,,,,,,,,
,,6646052f36c0bd14aafa0f0f,66fc98f5141f86454daa7cf4,2024-10-02_02h51.43.028,mdp,2024.2.1,Win32,142.8571429,66fa4ebf79326e780c390304,,,,,,,,,,,,,,,,,,,,,583.438,583.438,583.439,584.256,1,1,right,0.306,,584.258,585.513,1,0,right,585.514,585.515,,1,,1,585.515,585.515,585.515,587.013,0,17,17,17,1,0.8,0.2,0.6,0.4,,,,,,,,,,,,,,,0.737,,0.8,0.2,0.4,0.6,0.6,0.4,0.8,0.2,1,0,,,,,,,,,,,,
,,6646052f36c0bd14aafa0f0f,66fc98f5141f86454daa7cf4,2024-10-02_02h51.43.028,mdp,2024.2.1,Win32,142.8571429,66fa4ebf79326e780c390304,,,,,,,,,,,,,,,,,,,,,587.013,587.013,587.014,587.804,1,1,right,0.277,,587.805,589.075,0,1,left,589.076,589.077,,1,,0,589.077,589.077,589.078,590.574,0,18,18,18,1,0.8,0.2,0.6,0.4,,,,,,,,,,,,,,,0.764,,0.8,0.2,0.4,0.6,0.6,0.4,0.8,0.2,1,0,,,,,,,,,,,,
,,6646052f36c0bd14aafa0f0f,66fc98f5141f86454daa7cf4,2024-10-02_02h51.43.028,mdp,2024.2.1,Win32,142.8571429,66fa4ebf79326e780c390304,,,,,,,,,,,,,,,,,,,,,590.575,590.575,590.577,591.58,1,0,right,0.495,,591.582,592.526,0,0,left,592.527,592.529,,0,,1,592.529,592.529,592.529,594.027,0,19,19,19,1,0.6,0.4,0.8,0.2,,,,,,,,,,,,,,,0.437,,0.8,0.2,0.4,0.6,0.6,0.4,0.8,0.2,1,0,,,,,,,,,,,,
,,6646052f36c0bd14aafa0f0f,66fc98f5141f86454daa7cf4,2024-10-02_02h51.43.028,mdp,2024.2.1,Win32,142.8571429,66fa4ebf79326e780c390304,,,,,,,,,,,,,,,,,,,,,594.027,594.027,594.029,595.026,1,0,right,0.486,,595.027,596.393,0,0,left,596.394,596.395,,1,,1,596.395,596.395,596.396,597.894,0,20,20,20,1,0.6,0.4,0.8,0.2,,,,,,,,,,,,,,,0.863,,0.8,0.2,0.4,0.6,0.6,0.4,0.8,0.2,1,0,,,,,,,,,,,,
,,6646052f36c0bd14aafa0f0f,66fc98f5141f86454daa7cf4,2024-10-02_02h51.43.028,mdp,2024.2.1,Win32,142.8571429,66fa4ebf79326e780c390304,,,,,,,,,,,,,,,,,,,,,597.894,597.894,597.895,598.818,1,0,right,0.415,,598.819,600.109,0,0,left,600.111,600.112,,0,,1,600.112,600.112,600.113,601.61,0,21,21,21,1,0.6,0.4,0.8,0.2,,,,,,,,,,,,,,,0.778,,0.8,0.2,0.4,0.6,0.6,0.4,0.8,0.2,1,0,,,,,,,,,,,,
,,6646052f36c0bd14aafa0f0f,66fc98f5141f86454daa7cf4,2024-10-02_02h51.43.028,mdp,2024.2.1,Win32,142.8571429,66fa4ebf79326e780c390304,,,,,,,,,,,,,,,,,,,,,601.61,601.61,601.612,603.422,1,1,right,1.301,,603.423,604.665,1,0,right,604.666,604.667,,1,,1,604.667,604.667,604.668,606.164,0,22,22,22,1,0.6,0.4,0.8,0.2,,,,,,,,,,,,,,,0.728,,0.8,0.2,0.4,0.6,0.8,0.2,0.2,0.8,1,0,,,,,,,,,,,,
,,6646052f36c0bd14aafa0f0f,66fc98f5141f86454daa7cf4,2024-10-02_02h51.43.028,mdp,2024.2.1,Win32,142.8571429,66fa4ebf79326e780c390304,,,,,,,,,,,,,,,,,,,,,606.165,606.165,606.166,607.082,1,0,right,0.411,,607.083,608.089,0,0,left,608.089,608.091,,0,,1,608.091,608.091,608.092,609.589,0,23,23,23,1,0.6,0.4,0.8,0.2,,,,,,,,,,,,,,,0.491,,0.8,0.2,0.4,0.6,0.8,0.2,0.2,0.8,1,0,,,,,,,,,,,,
,,6646052f36c0bd14aafa0f0f,66fc98f5141f86454daa7cf4,2024-10-02_02h51.43.028,mdp,2024.2.1,Win32,142.8571429,66fa4ebf79326e780c390304,,,,,,,,,,,,,,,,,,,,,609.589,609.589,609.59,610.679,1,0,right,0.583,,610.68,611.943,0,0,left,611.946,611.948,,0,,1,611.948,611.948,611.949,613.442,0,24,24,24,1,0.6,0.4,0.8,0.2,,,,,,,,,,,,,,,0.753,,0.8,0.2,0.4,0.6,0.8,0.2,0.2,0.8,1,0,,,,,,,,,,,,
,,6646052f36c0bd14aafa0f0f,66fc98f5141f86454daa7cf4,2024-10-02_02h51.43.028,mdp,2024.2.1,Win32,142.8571429,66fa4ebf79326e780c390304,,,,,,,,,,,,,,,,,,,,,613.444,613.444,613.444,614.818,1,0,right,0.861,,614.819,615.935,0,1,left,615.937,615.937,,0,,0,615.937,615.937,615.938,617.436,0,25,25,25,1,0.6,0.4,0.8,0.2,,,,,,,,,,,,,,,0.614,,0.8,0.2,0.4,0.6,0.8,0.2,0.2,0.8,1,0,,,,,,,,,,,,
,,6646052f36c0bd14aafa0f0f,66fc98f5141f86454daa7cf4,2024-10-02_02h51.43.028,mdp,2024.2.1,Win32,142.8571429,66fa4ebf79326e780c390304,,,,,,,,,,,,,,,,,,,,,617.437,617.437,617.437,618.269,1,0,right,0.327,,618.271,619.285,0,0,left,619.286,619.287,,0,,1,619.287,619.287,619.289,620.783,0,26,26,26,1,0.6,0.4,0.8,0.2,,,,,,,,,,,,,,,0.508,,0.8,0.2,0.4,0.6,0.8,0.2,0.2,0.8,1,0,,,,,,,,,,,,
,,6646052f36c0bd14aafa0f0f,66fc98f5141f86454daa7cf4,2024-10-02_02h51.43.028,mdp,2024.2.1,Win32,142.8571429,66fa4ebf79326e780c390304,,,,,,,,,,,,,,,,,,,,,620.784,620.784,620.785,621.741,1,1,right,0.446,,621.743,622.915,1,1,right,622.916,622.917,,1,,0,622.917,622.917,622.917,624.415,0,27,27,27,1,0.6,0.4,0.8,0.2,,,,,,,,,,,,,,,0.665,,0.8,0.2,0.4,0.6,0.8,0.2,0.2,0.8,1,0,,,,,,,,,,,,
,,6646052f36c0bd14aafa0f0f,66fc98f5141f86454daa7cf4,2024-10-02_02h51.43.028,mdp,2024.2.1,Win32,142.8571429,66fa4ebf79326e780c390304,,,,,,,,,,,,,,,,,,,,,624.415,624.415,624.417,626.096,1,0,right,1.17,,626.097,627.034,0,0,left,627.035,627.035,,0,,1,627.035,627.035,627.036,628.532,0,28,28,28,1,0.6,0.4,0.8,0.2,,,,,,,,,,,,,,,0.418,,0.8,0.2,0.4,0.6,0.8,0.2,0.2,0.8,1,0,,,,,,,,,,,,
,,6646052f36c0bd14aafa0f0f,66fc98f5141f86454daa7cf4,2024-10-02_02h51.43.028,mdp,2024.2.1,Win32,142.8571429,66fa4ebf79326e780c390304,,,,,,,,,,,,,,,,,,,,,628.533,628.533,628.534,629.541,1,0,right,0.5,,629.542,630.873,0,1,left,630.875,630.876,,0,,0,630.876,630.876,630.876,632.373,0,29,29,29,1,0.6,0.4,0.8,0.2,,,,,,,,,,,,,,,0.821,,0.8,0.2,0.4,0.6,0.8,0.2,0.2,0.8,1,0,,,,,,,,,,,,
,,6646052f36c0bd14aafa0f0f,66fc98f5141f86454daa7cf4,2024-10-02_02h51.43.028,mdp,2024.2.1,Win32,142.8571429,66fa4ebf79326e780c390304,,,,,,,,,,,,,,,,,,,,,632.374,632.374,632.375,634.832,1,0,right,1.946,,634.833,635.637,0,0,left,635.639,635.639,,0,,1,635.639,635.639,635.641,637.137,0,30,30,30,1,0.6,0.4,0.8,0.2,,,,,,,,,,,,,,,0.288,,0.8,0.2,0.4,0.6,0.8,0.2,0.2,0.8,1,0,,,,,,,,,,,,
,,6646052f36c0bd14aafa0f0f,66fc98f5141f86454daa7cf4,2024-10-02_02h51.43.028,mdp,2024.2.1,Win32,142.8571429,66fa4ebf79326e780c390304,,,,,,,,,,,,,,,,,,,,,637.138,637.138,637.139,639.478,0,1,left,1.82,,639.479,640.567,0,0,left,640.569,640.57,,1,,1,640.57,640.57,640.571,642.068,0,31,31,31,1,0.6,0.4,0.8,0.2,,,,,,,,,,,,,,,0.576,,0.8,0.2,0.4,0.6,0.8,0.2,0.2,0.8,1,0,,,,,,,,,,,,
,,6646052f36c0bd14aafa0f0f,66fc98f5141f86454daa7cf4,2024-10-02_02h51.43.028,mdp,2024.2.1,Win32,142.8571429,66fa4ebf79326e780c390304,,,,,,,,,,,,,,,,,,,,,642.068,642.068,642.07,643.187,0,0,left,0.616,,643.189,644.179,0,0,left,644.18,644.181,,0,,1,644.181,644.181,644.182,645.679,0,32,32,32,1,0.6,0.4,0.8,0.2,,,,,,,,,,,,,,,0.474,,0.8,0.2,0.4,0.6,0.6,0.4,0.4,0.6,1,0,,,,,,,,,,,,
,,6646052f36c0bd14aafa0f0f,66fc98f5141f86454daa7cf4,2024-10-02_02h51.43.028,mdp,2024.2.1,Win32,142.8571429,66fa4ebf79326e780c390304,,,,,,,,,,,,,,,,,,,,,645.679,645.679,645.68,646.596,0,0,left,0.405,,646.597,647.581,0,0,left,647.583,647.583,,0,,1,647.583,647.583,647.585,649.082,0,33,33,33,1,0.6,0.4,0.8,0.2,,,,,,,,,,,,,,,0.473,,0.8,0.2,0.4,0.6,0.6,0.4,0.4,0.6,1,0,,,,,,,,,,,,
,,6646052f36c0bd14aafa0f0f,66fc98f5141f86454daa7cf4,2024-10-02_02h51.43.028,mdp,2024.2.1,Win32,142.8571429,66fa4ebf79326e780c390304,,,,,,,,,,,,,,,,,,,,,649.083,649.083,649.084,649.957,0,0,left,0.353,,649.958,650.929,0,0,left,650.93,650.93,,0,,1,650.93,650.93,650.931,652.428,0,34,34,34,1,0.8,0.2,0.4,0.6,,,,,,,,,,,,,,,0.466,,0.8,0.2,0.4,0.6,0.6,0.4,0.4,0.6,1,0,,,,,,,,,,,,
,,6646052f36c0bd14aafa0f0f,66fc98f5141f86454daa7cf4,2024-10-02_02h51.43.028,mdp,2024.2.1,Win32,142.8571429,66fa4ebf79326e780c390304,,,,,,,,,,,,,,,,,,,,,652.429,652.429,652.431,653.241,0,0,left,0.307,,653.242,654.179,0,0,left,654.18,654.181,,0,,1,654.181,654.181,654.182,655.679,0,35,35,35,1,0.8,0.2,0.4,0.6,,,,,,,,,,,,,,,0.431,,0.8,0.2,0.4,0.6,0.6,0.4,0.4,0.6,1,0,,,,,,,,,,,,
,,6646052f36c0bd14aafa0f0f,66fc98f5141f86454daa7cf4,2024-10-02_02h51.43.028,mdp,2024.2.1,Win32,142.8571429,66fa4ebf79326e780c390304,,,,,,,,,,,,,,,,,,,,,655.679,655.679,655.68,656.492,0,0,left,0.308,,656.493,657.61,0,0,left,657.61,657.611,,0,,1,657.611,657.611,657.611,659.109,0,36,36,36,1,0.8,0.2,0.4,0.6,,,,,,,,,,,,,,,0.607,,0.8,0.2,0.4,0.6,0.8,0.2,0.8,0.2,1,0,,,,,,,,,,,,
,,6646052f36c0bd14aafa0f0f,66fc98f5141f86454daa7cf4,2024-10-02_02h51.43.028,mdp,2024.2.1,Win32,142.8571429,66fa4ebf79326e780c390304,,,,,,,,,,,,,,,,,,,,,659.11,659.11,659.111,660.019,0,0,left,0.396,,660.02,660.908,0,0,left,660.909,660.91,,0,,1,660.91,660.91,660.911,662.409,0,37,37,37,1,0.8,0.2,0.4,0.6,,,,,,,,,,,,,,,0.383,,0.8,0.2,0.4,0.6,0.8,0.2,0.8,0.2,1,0,,,,,,,,,,,,
,,6646052f36c0bd14aafa0f0f,66fc98f5141f86454daa7cf4,2024-10-02_02h51.43.028,mdp,2024.2.1,Win32,142.8571429,66fa4ebf79326e780c390304,,,,,,,,,,,,,,,,,,,,,662.409,662.409,662.411,663.347,0,0,left,0.43,,663.349,664.332,0,1,left,664.333,664.334,,0,,0,664.334,664.334,664.335,665.831,0,38,38,38,1,0.8,0.2,0.4,0.6,,,,,,,,,,,,,,,0.474,,0.8,0.2,0.4,0.6,0.8,0.2,0.8,0.2,1,0,,,,,,,,,,,,
,,6646052f36c0bd14aafa0f0f,66fc98f5141f86454daa7cf4,2024-10-02_02h51.43.028,mdp,2024.2.1,Win32,142.8571429,66fa4ebf79326e780c390304,,,,,,,,,,,,,,,,,,,,,665.832,665.832,665.833,666.852,1,1,right,0.51,,666.855,667.845,0,0,left,667.846,667.847,,0,,1,667.847,667.847,667.847,669.346,0,39,39,39,1,0.8,0.2,0.4,0.6,,,,,,,,,,,,,,,0.473,,0.8,0.2,0.4,0.6,0.8,0.2,0.8,0.2,1,0,,,,,,,,,,,,
,,6646052f36c0bd14aafa0f0f,66fc98f5141f86454daa7cf4,2024-10-02_02h51.43.028,mdp,2024.2.1,Win32,142.8571429,66fa4ebf79326e780c390304,,,,,,,,,,,,,,,,,,,,,669.346,669.346,669.347,670.241,1,0,right,0.386,,670.243,671.207,0,0,left,671.208,671.209,,0,,1,671.209,671.209,671.21,672.707,0,40,40,40,1,0.8,0.2,0.4,0.6,,,,,,,,,,,,,,,0.455,,0.8,0.2,0.4,0.6,0.4,0.6,0.2,0.8,1,0,,,,,,,,,,,,
,,6646052f36c0bd14aafa0f0f,66fc98f5141f86454daa7cf4,2024-10-02_02h51.43.028,mdp,2024.2.1,Win32,142.8571429,66fa4ebf79326e780c390304,,,,,,,,,,,,,,,,,,,,,672.707,672.707,672.708,673.588,1,1,right,0.371,,673.59,674.588,0,0,left,674.59,674.591,,1,,1,674.591,674.591,674.591,676.089,0,41,41,41,1,0.8,0.2,0.4,0.6,,,,,,,,,,,,,,,0.489,,0.8,0.2,0.4,0.6,0.4,0.6,0.2,0.8,1,0,,,,,,,,,,,,
,,6646052f36c0bd14aafa0f0f,66fc98f5141f86454daa7cf4,2024-10-02_02h51.43.028,mdp,2024.2.1,Win32,142.8571429,66fa4ebf79326e780c390304,,,,,,,,,,,,,,,,,,,,,676.089,676.089,676.09,676.922,1,1,right,0.32,,676.923,677.755,0,0,left,677.756,677.757,,1,,1,677.757,677.757,677.758,679.255,0,42,42,42,1,0.8,0.2,0.4,0.6,,,,,,,,,,,,,,,0.327,,0.8,0.2,0.4,0.6,0.4,0.6,0.2,0.8,1,0,,,,,,,,,,,,
,,6646052f36c0bd14aafa0f0f,66fc98f5141f86454daa7cf4,2024-10-02_02h51.43.028,mdp,2024.2.1,Win32,142.8571429,66fa4ebf79326e780c390304,,,,,,,,,,,,,,,,,,,,,679.255,679.255,679.256,680.13,1,1,right,0.37,,680.131,680.999,0,0,left,680.999,681,,0,,1,681,681,681,682.498,0,43,43,43,1,0.8,0.2,0.4,0.6,,,,,,,,,,,,,,,0.364,,0.8,0.2,0.4,0.6,0.4,0.6,0.2,0.8,1,0,,,,,,,,,,,,
,,6646052f36c0bd14aafa0f0f,66fc98f5141f86454daa7cf4,2024-10-02_02h51.43.028,mdp,2024.2.1,Win32,142.8571429,66fa4ebf79326e780c390304,,,,,,,,,,,,,,,,,,,,,682.499,682.499,682.5,683.311,1,1,right,0.3,,683.312,684.193,0,1,left,684.194,684.195,,1,,0,684.195,684.195,684.195,685.692,0,44,44,44,1,0.8,0.2,0.4,0.6,,,,,,,,,,,,,,,0.376,,0.8,0.2,0.4,0.6,0.4,0.6,0.2,0.8,1,0,,,,,,,,,,,,
,,6646052f36c0bd14aafa0f0f,66fc98f5141f86454daa7cf4,2024-10-02_02h51.43.028,mdp,2024.2.1,Win32,142.8571429,66fa4ebf79326e780c390304,,,,,,,,,,,,,,,,,,,,,685.693,685.694,685.694,686.672,1,1,right,0.466,,686.673,687.554,0,1,left,687.554,687.556,,1,,0,687.556,687.556,687.557,689.053,0,45,45,45,1,0.8,0.2,0.4,0.6,,,,,,,,,,,,,,,0.378,,0.8,0.2,0.4,0.6,0.4,0.6,0.2,0.8,1,0,,,,,,,,,,,,
,,6646052f36c0bd14aafa0f0f,66fc98f5141f86454daa7cf4,2024-10-02_02h51.43.028,mdp,2024.2.1,Win32,142.8571429,66fa4ebf79326e780c390304,,,,,,,,,,,,,,,,,,,,,689.054,689.054,689.055,689.951,1,1,right,0.383,,689.952,690.783,1,1,right,690.784,690.786,,1,,0,690.786,690.786,690.787,692.282,0,46,46,46,1,0.8,0.2,0.4,0.6,,,,,,,,,,,,,,,0.319,,0.8,0.2,0.4,0.6,0.4,0.6,0.2,0.8,1,0,,,,,,,,,,,,
,,6646052f36c0bd14aafa0f0f,66fc98f5141f86454daa7cf4,2024-10-02_02h51.43.028,mdp,2024.2.1,Win32,142.8571429,66fa4ebf79326e780c390304,,,,,,,,,,,,,,,,,,,,,692.283,692.283,692.286,693.13,1,1,right,0.343,,693.131,693.964,1,1,right,693.966,693.967,,1,,0,693.967,693.967,693.967,695.464,0,47,47,47,1,0.8,0.2,0.4,0.6,,,,,,,,,,,,,,,0.328,,0.8,0.2,0.4,0.6,0.4,0.6,0.2,0.8,1,0,,,,,,,,,,,,
,,6646052f36c0bd14aafa0f0f,66fc98f5141f86454daa7cf4,2024-10-02_02h51.43.028,mdp,2024.2.1,Win32,142.8571429,66fa4ebf79326e780c390304,,,,,,,,,,,,,,,,,,,,,695.464,695.464,695.465,696.192,1,1,right,0.215,,696.194,696.991,0,1,left,696.992,696.993,,0,,0,696.993,696.993,696.993,698.491,0,48,48,48,1,0.8,0.2,0.4,0.6,,,,,,,,,,,,,,,0.291,,0.8,0.2,0.4,0.6,0.4,0.6,0.2,0.8,1,0,,,,,,,,,,,,
,,6646052f36c0bd14aafa0f0f,66fc98f5141f86454daa7cf4,2024-10-02_02h51.43.028,mdp,2024.2.1,Win32,142.8571429,66fa4ebf79326e780c390304,,,,,,,,,,,,,,,,,,,,,698.491,698.491,698.492,699.326,0,0,left,0.327,,699.327,700.102,0,0,left,700.104,700.105,,0,,1,700.105,700.105,700.106,701.603,0,49,49,49,1,0.8,0.2,0.4,0.6,,,,,,,,,,,,,,,0.257,,0.8,0.2,0.4,0.6,0.4,0.6,0.2,0.8,1,0,,,,,,,,,,,,
,,6646052f36c0bd14aafa0f0f,66fc98f5141f86454daa7cf4,2024-10-02_02h51.43.028,mdp,2024.2.1,Win32,142.8571429,66fa4ebf79326e780c390304,,,,,,,,,,,,,,,,,,,,,,,,,,,,,,,,,,,,,,,,,,,,,,,,,,,,,,,,701.603,760.109,0,1,1,1,1,imgs/elephant.png,imgs/dog.png,imgs/goat.png,imgs/lion.png,imgs/pig.png,,,,,,,,,,,,,,,,,,,,,,,,
,,6646052f36c0bd14aafa0f0f,66fc98f5141f86454daa7cf4,2024-10-02_02h51.43.028,mdp,2024.2.1,Win32,142.8571429,66fa4ebf79326e780c390304,,,,,,,,,,,,,,3,seqs/st3seq25.csv,760.12,769.741,space,8.917,,769.753,769.753,769.754,771.854,0,1,left,1.582,,771.855,773.401,1,0,right,773.402,774.873,1,0,right,1,774.873,774.873,774.875,776.373,0,0,0,0,1,0.4,0.6,0.8,0.2,,,,,,,,,,,,,,,1.026,,0.6,0.4,0.6,0.4,0.8,0.2,0.6,0.4,,,0.955,,0.8,0.2,0.8,0.2,0.8,0.2,0.6,0.4,1,0
,,6646052f36c0bd14aafa0f0f,66fc98f5141f86454daa7cf4,2024-10-02_02h51.43.028,mdp,2024.2.1,Win32,142.8571429,66fa4ebf79326e780c390304,,,,,,,,,,,,,,,,,,,,,776.374,776.374,776.375,777.554,0,1,left,0.675,,777.555,778.588,1,0,right,778.59,779.763,1,0,right,1,779.763,779.763,779.764,781.262,0,1,1,1,1,0.4,0.6,0.8,0.2,,,,,,,,,,,,,,,0.531,,0.8,0.2,0.8,0.2,0.8,0.2,0.6,0.4,,,0.668,,0.8,0.2,0.8,0.2,0.8,0.2,0.6,0.4,1,0
,,6646052f36c0bd14aafa0f0f,66fc98f5141f86454daa7cf4,2024-10-02_02h51.43.028,mdp,2024.2.1,Win32,142.8571429,66fa4ebf79326e780c390304,,,,,,,,,,,,,,,,,,,,,781.263,781.263,781.263,782.236,0,1,left,0.46,,782.237,783.387,1,1,right,783.389,785.083,0,0,left,1,785.083,785.083,785.083,786.581,0,2,2,2,1,0.4,0.6,0.8,0.2,,,,,,,,,,,,,,,0.64,,0.8,0.2,0.8,0.2,0.8,0.2,0.6,0.4,,,1.182,,0.8,0.2,0.8,0.2,0.8,0.2,0.6,0.4,1,0
,,6646052f36c0bd14aafa0f0f,66fc98f5141f86454daa7cf4,2024-10-02_02h51.43.028,mdp,2024.2.1,Win32,142.8571429,66fa4ebf79326e780c390304,,,,,,,,,,,,,,,,,,,,,786.582,786.582,786.584,787.534,0,1,left,0.437,,787.535,788.672,1,0,right,788.673,789.771,1,1,right,0,789.771,789.771,789.772,791.269,0,3,3,3,1,0.4,0.6,0.8,0.2,,,,,,,,,,,,,,,0.632,,0.8,0.2,0.8,0.2,0.8,0.2,0.6,0.4,,,0.589,,0.8,0.2,0.8,0.2,0.8,0.2,0.6,0.4,1,0
,,6646052f36c0bd14aafa0f0f,66fc98f5141f86454daa7cf4,2024-10-02_02h51.43.028,mdp,2024.2.1,Win32,142.8571429,66fa4ebf79326e780c390304,,,,,,,,,,,,,,,,,,,,,791.269,791.269,791.27,792.172,0,1,left,0.397,,792.173,793.248,1,1,right,793.249,794.575,0,1,left,0,794.575,794.575,794.576,796.074,0,4,4,4,1,0.4,0.6,0.8,0.2,,,,,,,,,,,,,,,0.569,,0.8,0.2,0.8,0.2,0.8,0.2,0.6,0.4,,,0.815,,0.8,0.2,0.8,0.2,0.8,0.2,0.6,0.4,1,0
,,6646052f36c0bd14aafa0f0f,66fc98f5141f86454daa7cf4,2024-10-02_02h51.43.028,mdp,2024.2.1,Win32,142.8571429,66fa4ebf79326e780c390304,,,,,,,,,,,,,,,,,,,,,796.075,796.075,796.077,797.033,0,1,left,0.452,,797.034,798.13,1,1,right,798.131,799.255,1,0,right,1,799.255,799.255,799.257,800.755,0,5,5,5,1,0.4,0.6,0.8,0.2,,,,,,,,,,,,,,,0.593,,0.8,0.2,0.8,0.2,0.8,0.2,0.6,0.4,,,0.62,,0.8,0.2,0.8,0.2,0.8,0.2,0.6,0.4,1,0
,,6646052f36c0bd14aafa0f0f,66fc98f5141f86454daa7cf4,2024-10-02_02h51.43.028,mdp,2024.2.1,Win32,142.8571429,66fa4ebf79326e780c390304,,,,,,,,,,,,,,,,,,,,,800.756,800.756,800.758,801.672,0,1,left,0.403,,801.673,802.714,1,1,right,802.714,804.13,1,0,right,1,804.13,804.13,804.132,805.63,0,6,6,6,1,0.4,0.6,0.8,0.2,,,,,,,,,,,,,,,0.528,,0.8,0.2,0.8,0.2,0.8,0.2,0.6,0.4,,,0.911,,0.8,0.2,0.8,0.2,0.8,0.2,0.6,0.4,1,0
,,6646052f36c0bd14aafa0f0f,66fc98f5141f86454daa7cf4,2024-10-02_02h51.43.028,mdp,2024.2.1,Win32,142.8571429,66fa4ebf79326e780c390304,,,,,,,,,,,,,,,,,,,,,805.631,805.631,805.632,806.464,0,1,left,0.327,,806.464,807.54,1,0,right,807.542,808.506,1,0,right,1,808.506,808.506,808.508,810.007,0,7,7,7,1,0.4,0.6,0.8,0.2,,,,,,,,,,,,,,,0.571,,0.8,0.2,0.8,0.2,0.8,0.2,0.6,0.4,,,0.454,,0.8,0.2,0.8,0.2,0.8,0.2,0.6,0.4,1,0
,,6646052f36c0bd14aafa0f0f,66fc98f5141f86454daa7cf4,2024-10-02_02h51.43.028,mdp,2024.2.1,Win32,142.8571429,66fa4ebf79326e780c390304,,,,,,,,,,,,,,,,,,,,,810.008,810.008,810.009,812.978,0,0,left,2.459,,812.992,814.798,1,0,right,814.799,815.741,1,0,right,1,815.741,815.741,815.743,817.241,0,8,8,8,1,0.4,0.6,0.8,0.2,,,,,,,,,,,,,,,1.302,,0.8,0.2,0.8,0.2,0.8,0.2,0.6,0.4,,,0.433,,0.8,0.2,0.8,0.2,0.8,0.2,0.6,0.4,1,0
,,6646052f36c0bd14aafa0f0f,66fc98f5141f86454daa7cf4,2024-10-02_02h51.43.028,mdp,2024.2.1,Win32,142.8571429,66fa4ebf79326e780c390304,,,,,,,,,,,,,,,,,,,,,817.242,817.242,817.244,819.839,0,0,left,2.086,,819.84,820.95,1,0,right,820.951,821.902,1,1,right,0,821.902,821.902,821.904,823.403,0,9,9,9,1,0.4,0.6,0.8,0.2,,,,,,,,,,,,,,,0.597,,0.8,0.2,0.8,0.2,0.8,0.2,0.6,0.4,,,0.44,,0.8,0.2,0.8,0.2,0.8,0.2,0.6,0.4,1,0
,,6646052f36c0bd14aafa0f0f,66fc98f5141f86454daa7cf4,2024-10-02_02h51.43.028,mdp,2024.2.1,Win32,142.8571429,66fa4ebf79326e780c390304,,,,,,,,,,,,,,,,,,,,,823.403,823.403,823.405,824.291,0,1,left,0.377,,824.293,825.462,1,0,right,825.463,826.346,0,0,left,1,826.346,826.346,826.348,827.847,0,10,10,10,1,0.4,0.6,0.8,0.2,,,,,,,,,,,,,,,0.658,,0.8,0.2,0.8,0.2,0.8,0.2,0.6,0.4,,,0.376,,0.8,0.2,0.8,0.2,0.2,0.8,0.2,0.8,1,0
,,6646052f36c0bd14aafa0f0f,66fc98f5141f86454daa7cf4,2024-10-02_02h51.43.028,mdp,2024.2.1,Win32,142.8571429,66fa4ebf79326e780c390304,,,,,,,,,,,,,,,,,,,,,827.847,827.847,827.85,829.486,0,0,left,1.127,,829.487,830.846,1,0,right,830.846,832.193,1,0,right,1,832.193,832.193,832.195,833.688,0,11,11,11,1,0.4,0.6,0.8,0.2,,,,,,,,,,,,,,,0.847,,0.8,0.2,0.8,0.2,0.8,0.2,0.6,0.4,,,0.842,,0.8,0.2,0.8,0.2,0.2,0.8,0.2,0.8,1,0
,,6646052f36c0bd14aafa0f0f,66fc98f5141f86454daa7cf4,2024-10-02_02h51.43.028,mdp,2024.2.1,Win32,142.8571429,66fa4ebf79326e780c390304,,,,,,,,,,,,,,,,,,,,,833.688,833.688,833.689,834.547,0,1,left,0.347,,834.548,835.61,1,0,right,835.611,836.672,1,0,right,1,836.672,836.672,836.674,838.172,0,12,12,12,1,0.4,0.6,0.8,0.2,,,,,,,,,,,,,,,0.552,,0.8,0.2,0.8,0.2,0.8,0.2,0.6,0.4,,,0.553,,0.8,0.2,0.8,0.2,0.2,0.8,0.2,0.8,1,0
,,6646052f36c0bd14aafa0f0f,66fc98f5141f86454daa7cf4,2024-10-02_02h51.43.028,mdp,2024.2.1,Win32,142.8571429,66fa4ebf79326e780c390304,,,,,,,,,,,,,,,,,,,,,838.173,838.173,838.174,839.241,0,0,left,0.558,,839.243,840.298,1,1,right,840.299,841.557,0,1,left,0,841.557,841.557,841.558,843.054,0,13,13,13,1,0.4,0.6,0.8,0.2,,,,,,,,,,,,,,,0.543,,0.8,0.2,0.8,0.2,0.8,0.2,0.6,0.4,,,0.741,,0.8,0.2,0.8,0.2,0.2,0.8,0.2,0.8,1,0
,,6646052f36c0bd14aafa0f0f,66fc98f5141f86454daa7cf4,2024-10-02_02h51.43.028,mdp,2024.2.1,Win32,142.8571429,66fa4ebf79326e780c390304,,,,,,,,,,,,,,,,,,,,,843.055,843.055,843.055,843.828,0,1,left,0.263,,843.83,844.818,1,1,right,844.819,845.755,1,1,right,0,845.755,845.755,845.757,847.258,0,14,14,14,1,0.4,0.6,0.8,0.2,,,,,,,,,,,,,,,0.48,,0.8,0.2,0.8,0.2,0.8,0.2,0.6,0.4,,,0.427,,0.8,0.2,0.8,0.2,0.2,0.8,0.2,0.8,1,0
,,6646052f36c0bd14aafa0f0f,66fc98f5141f86454daa7cf4,2024-10-02_02h51.43.028,mdp,2024.2.1,Win32,142.8571429,66fa4ebf79326e780c390304,,,,,,,,,,,,,,,,,,,,,847.259,847.259,847.259,848.138,0,1,left,0.369,,848.139,849.123,1,1,right,849.126,849.957,1,1,right,0,849.957,849.957,849.958,851.457,0,15,15,15,1,0.4,0.6,0.8,0.2,,,,,,,,,,,,,,,0.476,,0.8,0.2,0.8,0.2,0.8,0.2,0.6,0.4,,,0.321,,0.8,0.2,0.8,0.2,0.2,0.8,0.2,0.8,1,0
,,6646052f36c0bd14aafa0f0f,66fc98f5141f86454daa7cf4,2024-10-02_02h51.43.028,mdp,2024.2.1,Win32,142.8571429,66fa4ebf79326e780c390304,,,,,,,,,,,,,,,,,,,,,851.458,851.458,851.459,852.338,0,0,left,0.368,,852.34,853.2,0,0,left,853.201,853.991,1,0,right,1,853.991,853.991,853.993,855.491,0,16,16,16,1,0.4,0.6,0.8,0.2,,,,,,,,,,,,,,,0.349,,0.8,0.2,0.8,0.2,0.8,0.2,0.6,0.4,,,0.279,,0.8,0.2,0.8,0.2,0.2,0.8,0.2,0.8,1,0
,,6646052f36c0bd14aafa0f0f,66fc98f5141f86454daa7cf4,2024-10-02_02h51.43.028,mdp,2024.2.1,Win32,142.8571429,66fa4ebf79326e780c390304,,,,,,,,,,,,,,,,,,,,,855.492,855.492,855.493,856.234,0,1,left,0.229,,856.236,857.095,0,0,left,857.097,857.852,1,0,right,1,857.852,857.852,857.853,859.352,0,17,17,17,1,0.4,0.6,0.8,0.2,,,,,,,,,,,,,,,0.353,,0.8,0.2,0.8,0.2,0.8,0.2,0.6,0.4,,,0.252,,0.8,0.2,0.8,0.2,0.2,0.8,0.2,0.8,1,0
,,6646052f36c0bd14aafa0f0f,66fc98f5141f86454daa7cf4,2024-10-02_02h51.43.028,mdp,2024.2.1,Win32,142.8571429,66fa4ebf79326e780c390304,,,,,,,,,,,,,,,,,,,,,859.353,859.353,859.353,860.783,0,0,left,0.918,,860.785,861.609,0,1,left,861.611,862.339,1,1,right,0,862.339,862.339,862.34,863.839,0,18,18,18,1,0.4,0.6,0.8,0.2,,,,,,,,,,,,,,,0.311,,0.8,0.2,0.8,0.2,0.8,0.2,0.6,0.4,,,0.222,,0.8,0.2,0.8,0.2,0.2,0.8,0.2,0.8,1,0
,,6646052f36c0bd14aafa0f0f,66fc98f5141f86454daa7cf4,2024-10-02_02h51.43.028,mdp,2024.2.1,Win32,142.8571429,66fa4ebf79326e780c390304,,,,,,,,,,,,,,,,,,,,,863.839,863.839,863.84,864.429,0,0,left,0.087,,864.43,865.241,1,0,right,865.242,866.075,1,1,right,0,866.075,866.075,866.076,867.575,0,19,19,19,1,0.4,0.6,0.8,0.2,,,,,,,,,,,,,,,0.307,,0.8,0.2,0.8,0.2,0.8,0.2,0.6,0.4,,,0.32,,0.8,0.2,0.8,0.2,0.2,0.8,0.2,0.8,1,0
,,6646052f36c0bd14aafa0f0f,66fc98f5141f86454daa7cf4,2024-10-02_02h51.43.028,mdp,2024.2.1,Win32,142.8571429,66fa4ebf79326e780c390304,,,,,,,,,,,,,,,,,,,,,867.576,867.576,867.576,868.575,0,0,left,0.487,,868.577,869.687,1,1,right,869.688,870.519,1,1,right,0,870.519,870.519,870.521,872.019,0,20,20,20,1,0.4,0.6,0.8,0.2,,,,,,,,,,,,,,,0.599,,0.8,0.2,0.8,0.2,0.8,0.2,0.6,0.4,,,0.318,,0.8,0.2,0.8,0.2,0.2,0.8,0.2,0.8,1,0
,,6646052f36c0bd14aafa0f0f,66fc98f5141f86454daa7cf4,2024-10-02_02h51.43.028,mdp,2024.2.1,Win32,142.8571429,66fa4ebf79326e780c390304,,,,,,,,,,,,,,,,,,,,,872.02,872.02,872.02,872.831,0,0,left,0.3,,872.832,873.769,1,0,right,873.77,874.575,1,0,right,1,874.575,874.575,874.576,876.075,0,21,21,21,1,0.4,0.6,0.8,0.2,,,,,,,,,,,,,,,0.431,,0.8,0.2,0.8,0.2,0.8,0.2,0.6,0.4,,,0.296,,0.8,0.2,0.8,0.2,0.2,0.8,0.2,0.8,1,0
,,6646052f36c0bd14aafa0f0f,66fc98f5141f86454daa7cf4,2024-10-02_02h51.43.028,mdp,2024.2.1,Win32,142.8571429,66fa4ebf79326e780c390304,,,,,,,,,,,,,,,,,,,,,876.075,876.075,876.077,876.887,0,0,left,0.307,,876.889,877.742,1,0,right,877.743,878.554,1,0,right,1,878.554,878.554,878.556,880.049,0,22,22,22,1,0.4,0.6,0.8,0.2,,,,,,,,,,,,,,,0.347,,0.8,0.2,0.8,0.2,0.8,0.2,0.6,0.4,,,0.298,,0.8,0.2,0.8,0.2,0.2,0.8,0.2,0.8,1,0
,,6646052f36c0bd14aafa0f0f,66fc98f5141f86454daa7cf4,2024-10-02_02h51.43.028,mdp,2024.2.1,Win32,142.8571429,66fa4ebf79326e780c390304,,,,,,,,,,,,,,,,,,,,,880.049,880.049,880.052,880.928,0,1,left,0.369,,880.93,881.772,1,1,right,881.774,882.555,1,1,right,0,882.555,882.555,882.556,884.054,0,23,23,23,1,0.4,0.6,0.8,0.2,,,,,,,,,,,,,,,0.331,,0.8,0.2,0.8,0.2,0.8,0.2,0.6,0.4,,,0.273,,0.8,0.2,0.8,0.2,0.2,0.8,0.2,0.8,1,0
,,6646052f36c0bd14aafa0f0f,66fc98f5141f86454daa7cf4,2024-10-02_02h51.43.028,mdp,2024.2.1,Win32,142.8571429,66fa4ebf79326e780c390304,,,,,,,,,,,,,,,,,,,,,884.054,884.054,884.055,884.827,0,1,left,0.263,,884.828,885.61,1,0,right,885.611,887.109,1,0,right,1,887.109,887.109,887.112,888.609,0,24,24,24,1,0.8,0.2,0.6,0.4,,,,,,,,,,,,,,,0.271,,0.8,0.2,0.8,0.2,0.8,0.2,0.6,0.4,,,0.985,,0.8,0.2,0.8,0.2,0.2,0.8,0.2,0.8,1,0
,,6646052f36c0bd14aafa0f0f,66fc98f5141f86454daa7cf4,2024-10-02_02h51.43.028,mdp,2024.2.1,Win32,142.8571429,66fa4ebf79326e780c390304,,,,,,,,,,,,,,,,,,,,,888.61,888.61,888.611,889.484,0,0,left,0.363,,889.487,890.478,1,1,right,890.479,891.499,0,0,left,1,891.499,891.499,891.5,892.998,0,25,25,25,1,0.8,0.2,0.6,0.4,,,,,,,,,,,,,,,0.483,,0.8,0.2,0.8,0.2,0.8,0.2,0.6,0.4,,,0.512,,0.8,0.2,0.8,0.2,0.8,0.2,0.8,0.2,1,0
,,6646052f36c0bd14aafa0f0f,66fc98f5141f86454daa7cf4,2024-10-02_02h51.43.028,mdp,2024.2.1,Win32,142.8571429,66fa4ebf79326e780c390304,,,,,,,,,,,,,,,,,,,,,892.999,892.999,893,893.715,0,0,left,0.212,,893.717,894.825,1,0,right,894.828,895.824,1,0,right,1,895.825,895.825,895.827,897.325,0,26,26,26,1,0.8,0.2,0.6,0.4,,,,,,,,,,,,,,,0.602,,0.8,0.2,0.8,0.2,0.8,0.2,0.6,0.4,,,0.485,,0.8,0.2,0.8,0.2,0.8,0.2,0.8,0.2,1,0
,,6646052f36c0bd14aafa0f0f,66fc98f5141f86454daa7cf4,2024-10-02_02h51.43.028,mdp,2024.2.1,Win32,142.8571429,66fa4ebf79326e780c390304,,,,,,,,,,,,,,,,,,,,,897.326,897.326,897.328,897.852,0,0,left,0.015,,897.855,898.644,1,0,right,898.645,899.422,1,0,right,1,899.422,899.422,899.423,900.922,0,27,27,27,1,0.8,0.2,0.6,0.4,,,,,,,,,,,,,,,0.279,,0.8,0.2,0.8,0.2,0.8,0.2,0.6,0.4,,,0.27,,0.8,0.2,0.8,0.2,0.8,0.2,0.8,0.2,1,0
,,6646052f36c0bd14aafa0f0f,66fc98f5141f86454daa7cf4,2024-10-02_02h51.43.028,mdp,2024.2.1,Win32,142.8571429,66fa4ebf79326e780c390304,,,,,,,,,,,,,,,,,,,,,900.923,900.923,900.924,901.477,0,0,left,0.042,,901.478,902.36,1,0,right,902.361,903.111,1,0,right,1,903.111,903.111,903.111,904.609,0,28,28,28,1,0.8,0.2,0.6,0.4,,,,,,,,,,,,,,,0.377,,0.8,0.2,0.8,0.2,0.8,0.2,0.6,0.4,,,0.238,,0.8,0.2,0.8,0.2,0.8,0.2,0.8,0.2,1,0
,,6646052f36c0bd14aafa0f0f,66fc98f5141f86454daa7cf4,2024-10-02_02h51.43.028,mdp,2024.2.1,Win32,142.8571429,66fa4ebf79326e780c390304,,,,,,,,,,,,,,,,,,,,,904.611,904.611,904.611,905.339,0,1,left,0.216,,905.34,906.13,1,1,right,906.132,906.957,1,0,right,1,906.957,906.957,906.958,908.457,0,29,29,29,1,0.8,0.2,0.6,0.4,,,,,,,,,,,,,,,0.285,,0.8,0.2,0.8,0.2,0.4,0.6,0.2,0.8,,,0.316,,0.8,0.2,0.8,0.2,0.8,0.2,0.8,0.2,1,0
,,6646052f36c0bd14aafa0f0f,66fc98f5141f86454daa7cf4,2024-10-02_02h51.43.028,mdp,2024.2.1,Win32,142.8571429,66fa4ebf79326e780c390304,,,,,,,,,,,,,,,,,,,,,908.457,908.457,908.459,909.054,0,0,left,0.091,,909.055,909.826,1,1,right,909.828,910.527,1,1,right,0,910.527,910.527,910.528,912.026,0,30,30,30,1,0.8,0.2,0.6,0.4,,,,,,,,,,,,,,,0.265,,0.8,0.2,0.8,0.2,0.4,0.6,0.2,0.8,,,0.189,,0.8,0.2,0.8,0.2,0.4,0.6,0.4,0.6,1,0
,,6646052f36c0bd14aafa0f0f,66fc98f5141f86454daa7cf4,2024-10-02_02h51.43.028,mdp,2024.2.1,Win32,142.8571429,66fa4ebf79326e780c390304,,,,,,,,,,,,,,,,,,,,,912.027,912.027,912.028,912.839,0,0,left,0.306,,912.841,913.582,1,1,right,913.584,914.269,1,1,right,0,914.269,914.269,914.271,915.769,0,31,31,31,1,0.6,0.4,0.4,0.6,,,,,,,,,,,,,,,0.231,,0.8,0.2,0.8,0.2,0.4,0.6,0.2,0.8,,,0.182,,0.8,0.2,0.8,0.2,0.4,0.6,0.4,0.6,1,0
,,6646052f36c0bd14aafa0f0f,66fc98f5141f86454daa7cf4,2024-10-02_02h51.43.028,mdp,2024.2.1,Win32,142.8571429,66fa4ebf79326e780c390304,,,,,,,,,,,,,,,,,,,,,915.769,915.769,915.77,918.38,0,1,left,2.107,,918.393,919.145,1,1,right,919.147,919.929,1,1,right,0,919.929,919.929,919.931,921.429,0,32,32,32,1,0.6,0.4,0.4,0.6,,,,,,,,,,,,,,,0.254,,0.8,0.2,0.8,0.2,0.4,0.6,0.2,0.8,,,0.273,,0.8,0.2,0.8,0.2,0.4,0.6,0.4,0.6,1,0
,,6646052f36c0bd14aafa0f0f,66fc98f5141f86454daa7cf4,2024-10-02_02h51.43.028,mdp,2024.2.1,Win32,142.8571429,66fa4ebf79326e780c390304,,,,,,,,,,,,,,,,,,,,,921.429,921.429,921.431,938.616,0,0,left,16.682,,938.631,939.311,1,0,right,939.312,940.096,1,1,right,0,940.096,940.096,940.098,941.596,0,33,33,33,1,0.6,0.4,0.4,0.6,,,,,,,,,,,,,,,0.181,,0.8,0.2,0.8,0.2,0.4,0.6,0.2,0.8,,,0.273,,0.8,0.2,0.8,0.2,0.4,0.6,0.4,0.6,1,0
,,6646052f36c0bd14aafa0f0f,66fc98f5141f86454daa7cf4,2024-10-02_02h51.43.028,mdp,2024.2.1,Win32,142.8571429,66fa4ebf79326e780c390304,,,,,,,,,,,,,,,,,,,,,941.597,941.597,941.598,942.505,0,1,left,0.398,,942.506,943.255,0,1,left,943.256,944.013,1,1,right,0,944.013,944.013,944.014,945.512,0,34,34,34,1,0.6,0.4,0.4,0.6,,,,,,,,,,,,,,,0.242,,0.8,0.2,0.8,0.2,0.4,0.6,0.2,0.8,,,0.245,,0.8,0.2,0.8,0.2,0.4,0.6,0.4,0.6,1,0
,,6646052f36c0bd14aafa0f0f,66fc98f5141f86454daa7cf4,2024-10-02_02h51.43.028,mdp,2024.2.1,Win32,142.8571429,66fa4ebf79326e780c390304,,,,,,,,,,,,,,,,,,,,,945.512,945.512,945.513,946.06,0,1,left,0.041,,946.062,946.763,1,1,right,946.765,947.506,1,1,right,0,947.506,947.506,947.507,949.006,0,35,35,35,1,0.6,0.4,0.4,0.6,,,,,,,,,,,,,,,0.197,,0.8,0.2,0.8,0.2,0.4,0.6,0.2,0.8,,,0.236,,0.8,0.2,0.8,0.2,0.4,0.6,0.4,0.6,1,0
,,6646052f36c0bd14aafa0f0f,66fc98f5141f86454daa7cf4,2024-10-02_02h51.43.028,mdp,2024.2.1,Win32,142.8571429,66fa4ebf79326e780c390304,,,,,,,,,,,,,,,,,,,,,949.006,949.006,949.007,949.651,0,0,left,0.139,,949.653,950.325,0,0,left,950.327,950.978,1,0,right,1,950.978,950.978,950.98,952.478,0,36,36,36,1,0.6,0.4,0.4,0.6,,,,,,,,,,,,,,,0.157,,0.8,0.2,0.8,0.2,0.4,0.6,0.2,0.8,,,0.134,,0.8,0.2,0.8,0.2,0.4,0.6,0.4,0.6,1,0
,,6646052f36c0bd14aafa0f0f,66fc98f5141f86454daa7cf4,2024-10-02_02h51.43.028,mdp,2024.2.1,Win32,142.8571429,66fa4ebf79326e780c390304,,,,,,,,,,,,,,,,,,,,,952.479,952.479,952.479,953.304,0,0,left,0.313,,953.306,954.026,1,0,right,954.027,954.721,1,1,right,0,954.721,954.721,954.722,956.22,0,37,37,37,1,0.6,0.4,0.4,0.6,,,,,,,,,,,,,,,0.216,,0.8,0.2,0.8,0.2,0.4,0.6,0.2,0.8,,,0.188,,0.8,0.2,0.8,0.2,0.4,0.6,0.4,0.6,1,0
,,6646052f36c0bd14aafa0f0f,66fc98f5141f86454daa7cf4,2024-10-02_02h51.43.028,mdp,2024.2.1,Win32,142.8571429,66fa4ebf79326e780c390304,,,,,,,,,,,,,,,,,,,,,956.221,956.221,956.222,956.742,0,1,left,0.015,,956.743,957.367,0,1,left,957.369,957.991,0,1,left,0,957.991,957.991,957.992,959.492,0,38,38,38,1,0.6,0.4,0.4,0.6,,,,,,,,,,,,,,,0.116,,0.8,0.2,0.8,0.2,0.4,0.6,0.2,0.8,,,0.111,,0.8,0.2,0.8,0.2,0.4,0.6,0.4,0.6,1,0
,,6646052f36c0bd14aafa0f0f,66fc98f5141f86454daa7cf4,2024-10-02_02h51.43.028,mdp,2024.2.1,Win32,142.8571429,66fa4ebf79326e780c390304,,,,,,,,,,,,,,,,,,,,,959.493,959.493,959.494,960.326,0,0,left,0.321,,960.327,960.95,1,0,right,960.951,961.554,0,0,left,1,961.554,961.554,961.555,963.054,0,39,39,39,1,0.6,0.4,0.4,0.6,,,,,,,,,,,,,,,0.112,,0.8,0.2,0.8,0.2,0.4,0.6,0.2,0.8,,,0.095,,0.8,0.2,0.8,0.2,0.4,0.6,0.4,0.6,1,0
,,6646052f36c0bd14aafa0f0f,66fc98f5141f86454daa7cf4,2024-10-02_02h51.43.028,mdp,2024.2.1,Win32,142.8571429,66fa4ebf79326e780c390304,,,,,,,,,,,,,,,,,,,,,963.055,963.055,963.056,964.061,0,0,left,0.491,,964.063,964.819,1,1,right,964.819,965.506,0,0,left,1,965.506,965.506,965.507,967.006,0,40,40,40,1,0.6,0.4,0.4,0.6,,,,,,,,,,,,,,,0.251,,0.6,0.4,0.4,0.6,0.4,0.6,0.2,0.8,,,0.176,,0.8,0.2,0.8,0.2,0.4,0.6,0.4,0.6,1,0
,,6646052f36c0bd14aafa0f0f,66fc98f5141f86454daa7cf4,2024-10-02_02h51.43.028,mdp,2024.2.1,Win32,142.8571429,66fa4ebf79326e780c390304,,,,,,,,,,,,,,,,,,,,,967.007,967.007,967.009,967.762,0,1,left,0.244,,967.764,968.491,1,1,right,968.492,969.152,1,0,right,1,969.152,969.152,969.153,970.647,0,41,41,41,1,0.6,0.4,0.4,0.6,,,,,,,,,,,,,,,0.217,,0.6,0.4,0.4,0.6,0.4,0.6,0.2,0.8,,,0.156,,0.8,0.2,0.8,0.2,0.4,0.6,0.4,0.6,1,0
,,6646052f36c0bd14aafa0f0f,66fc98f5141f86454daa7cf4,2024-10-02_02h51.43.028,mdp,2024.2.1,Win32,142.8571429,66fa4ebf79326e780c390304,,,,,,,,,,,,,,,,,,,,,970.647,970.647,970.648,971.298,0,0,left,0.138,,971.298,971.991,1,1,right,971.992,972.655,1,1,right,0,972.656,972.656,972.657,974.152,0,42,42,42,1,0.6,0.4,0.4,0.6,,,,,,,,,,,,,,,0.177,,0.6,0.4,0.4,0.6,0.4,0.6,0.2,0.8,,,0.16,,0.8,0.2,0.8,0.2,0.4,0.6,0.4,0.6,1,0
,,6646052f36c0bd14aafa0f0f,66fc98f5141f86454daa7cf4,2024-10-02_02h51.43.028,mdp,2024.2.1,Win32,142.8571429,66fa4ebf79326e780c390304,,,,,,,,,,,,,,,,,,,,,974.152,974.152,974.153,976.7,0,1,left,2.038,,976.711,977.263,1,1,right,977.264,977.875,0,0,left,1,977.875,977.875,977.875,979.373,0,43,43,43,1,0.6,0.4,0.4,0.6,,,,,,,,,,,,,,,0.046,,0.6,0.4,0.4,0.6,0.4,0.6,0.2,0.8,,,0.101,,0.8,0.2,0.8,0.2,0.4,0.6,0.4,0.6,1,0
,,6646052f36c0bd14aafa0f0f,66fc98f5141f86454daa7cf4,2024-10-02_02h51.43.028,mdp,2024.2.1,Win32,142.8571429,66fa4ebf79326e780c390304,,,,,,,,,,,,,,,,,,,,,979.374,979.374,979.375,980.152,0,1,left,0.273,,980.153,980.769,1,1,right,980.771,981.465,1,1,right,0,981.465,981.465,981.467,982.963,0,44,44,44,1,0.6,0.4,0.4,0.6,,,,,,,,,,,,,,,0.108,,0.6,0.4,0.4,0.6,0.4,0.6,0.2,0.8,,,0.183,,0.8,0.2,0.8,0.2,0.4,0.6,0.4,0.6,1,0
,,6646052f36c0bd14aafa0f0f,66fc98f5141f86454daa7cf4,2024-10-02_02h51.43.028,mdp,2024.2.1,Win32,142.8571429,66fa4ebf79326e780c390304,,,,,,,,,,,,,,,,,,,,,982.964,982.964,982.966,983.561,0,1,left,0.092,,983.562,984.283,0,1,left,984.285,984.895,1,1,right,0,984.895,984.895,984.895,986.394,0,45,45,45,1,0.6,0.4,0.4,0.6,,,,,,,,,,,,,,,0.219,,0.6,0.4,0.4,0.6,0.4,0.6,0.2,0.8,,,0.105,,0.8,0.2,0.8,0.2,0.4,0.6,0.4,0.6,1,0
,,6646052f36c0bd14aafa0f0f,66fc98f5141f86454daa7cf4,2024-10-02_02h51.43.028,mdp,2024.2.1,Win32,142.8571429,66fa4ebf79326e780c390304,,,,,,,,,,,,,,,,,,,,,986.394,986.394,986.395,987.111,0,0,left,0.203,,987.112,987.763,1,1,right,987.764,988.408,0,1,left,0,988.409,988.409,988.41,989.908,0,46,46,46,1,0.6,0.4,0.4,0.6,,,,,,,,,,,,,,,0.136,,0.6,0.4,0.4,0.6,0.4,0.6,0.2,0.8,,,0.134,,0.8,0.2,0.8,0.2,0.4,0.6,0.4,0.6,1,0
,,6646052f36c0bd14aafa0f0f,66fc98f5141f86454daa7cf4,2024-10-02_02h51.43.028,mdp,2024.2.1,Win32,142.8571429,66fa4ebf79326e780c390304,,,,,,,,,,,,,,,,,,,,,989.909,989.909,989.91,990.477,0,0,left,0.057,,990.479,991.082,1,0,right,991.083,991.66,1,0,right,1,991.66,991.66,991.66,993.158,0,47,47,47,1,0.6,0.4,0.4,0.6,,,,,,,,,,,,,,,0.097,,0.6,0.4,0.4,0.6,0.4,0.6,0.2,0.8,,,0.023,,0.8,0.2,0.8,0.2,0.4,0.6,0.4,0.6,1,0
,,6646052f36c0bd14aafa0f0f,66fc98f5141f86454daa7cf4,2024-10-02_02h51.43.028,mdp,2024.2.1,Win32,142.8571429,66fa4ebf79326e780c390304,,,,,,,,,,,,,,,,,,,,,993.158,993.158,993.159,994.346,0,0,left,0.681,,994.346,995.007,1,0,right,995.008,995.727,0,0,left,1,995.728,995.728,995.729,997.228,0,48,48,48,1,0.6,0.4,0.4,0.6,,,,,,,,,,,,,,,0.148,,0.6,0.4,0.4,0.6,0.4,0.6,0.2,0.8,,,0.207,,0.8,0.2,0.8,0.2,0.4,0.6,0.4,0.6,1,0
,,6646052f36c0bd14aafa0f0f,66fc98f5141f86454daa7cf4,2024-10-02_02h51.43.028,mdp,2024.2.1,Win32,142.8571429,66fa4ebf79326e780c390304,,,,,,,,,,,,,,,,,,,,,997.229,997.229,997.231,998.061,0,1,left,0.322,,998.062,998.797,1,1,right,998.798,999.832,0,1,left,0,999.832,999.832,999.834,1001.331,0,49,49,49,1,0.6,0.4,0.4,0.6,,,,,,,,,,,,,,,0.225,,0.6,0.4,0.4,0.6,0.4,0.6,0.2,0.8,,,0.52,,0.8,0.2,0.8,0.2,0.4,0.6,0.4,0.6,1,0
,,6646052f36c0bd14aafa0f0f,66fc98f5141f86454daa7cf4,2024-10-02_02h51.43.028,mdp,2024.2.1,Win32,142.8571429,66fa4ebf79326e780c390304,,,,,,,,,,,,,,,,,,,,,,,,,,,,,,,,,,,,,,,,,,,,,,,,,,,,,,,,1001.332,1059.839,0,2,2,4,1,imgs/cat.png,imgs/kangaroo.png,imgs/horse.png,imgs/squirrel.png,imgs/rabbit.png,,,,,,,,,,,,,,,,,,,,,,,,
,,6646052f36c0bd14aafa0f0f,66fc98f5141f86454daa7cf4,2024-10-02_02h51.43.028,mdp,2024.2.1,Win32,142.8571429,66fa4ebf79326e780c390304,,,,,,,,,,,,,,3,seqs/st3seq27.csv,1059.854,1105.555,space,45.188,,1105.577,1105.577,1105.578,1107.221,1,1,right,1.127,,1107.222,1108.555,0,0,left,1108.556,1109.881,0,0,left,1,1109.881,1109.881,1109.882,1111.381,0,0,0,0,1,0.8,0.2,0.6,0.4,,,,,,,,,,,,,,,0.822,,0.4,0.6,0.8,0.2,0.8,0.2,0.2,0.8,,,0.804,,0.6,0.4,0.8,0.2,0.4,0.6,0.4,0.6,1,0
,,6646052f36c0bd14aafa0f0f,66fc98f5141f86454daa7cf4,2024-10-02_02h51.43.028,mdp,2024.2.1,Win32,142.8571429,66fa4ebf79326e780c390304,,,,,,,,,,,,,,,,,,,,,1111.381,1111.381,1111.382,1112.193,1,1,right,0.298,,1112.194,1113.207,0,0,left,1113.208,1114.048,0,1,left,0,1114.048,1114.048,1114.049,1115.547,0,1,1,1,1,0.8,0.2,0.6,0.4,,,,,,,,,,,,,,,0.509,,0.4,0.6,0.8,0.2,0.8,0.2,0.2,0.8,,,0.333,,0.6,0.4,0.8,0.2,0.4,0.6,0.4,0.6,1,0
,,6646052f36c0bd14aafa0f0f,66fc98f5141f86454daa7cf4,2024-10-02_02h51.43.028,mdp,2024.2.1,Win32,142.8571429,66fa4ebf79326e780c390304,,,,,,,,,,,,,,,,,,,,,1115.548,1115.548,1115.55,1116.325,1,1,right,0.263,,1116.326,1117.221,0,0,left,1117.222,1117.992,1,0,right,1,1117.992,1117.992,1117.993,1119.492,0,2,2,2,1,0.8,0.2,0.6,0.4,,,,,,,,,,,,,,,0.389,,0.4,0.6,0.8,0.2,0.8,0.2,0.2,0.8,,,0.256,,0.6,0.4,0.8,0.2,0.4,0.6,0.4,0.6,1,0
,,6646052f36c0bd14aafa0f0f,66fc98f5141f86454daa7cf4,2024-10-02_02h51.43.028,mdp,2024.2.1,Win32,142.8571429,66fa4ebf79326e780c390304,,,,,,,,,,,,,,,,,,,,,1119.492,1119.492,1119.494,1120.298,1,1,right,0.3,,1120.32,1121.257,0,0,left,1121.258,1122.089,1,1,right,0,1122.089,1122.089,1122.09,1123.59,0,3,3,3,1,0.8,0.2,0.6,0.4,,,,,,,,,,,,,,,0.439,,0.4,0.6,0.8,0.2,0.8,0.2,0.2,0.8,,,0.327,,0.6,0.4,0.8,0.2,0.4,0.6,0.4,0.6,1,0
,,6646052f36c0bd14aafa0f0f,66fc98f5141f86454daa7cf4,2024-10-02_02h51.43.028,mdp,2024.2.1,Win32,142.8571429,66fa4ebf79326e780c390304,,,,,,,,,,,,,,,,,,,,,1123.59,1123.59,1123.592,1124.381,1,0,right,0.278,,1124.382,1125.179,1,0,right,1125.181,1126.423,1,1,right,0,1126.423,1126.423,1126.424,1127.922,0,4,4,4,1,0.8,0.2,0.6,0.4,,,,,,,,,,,,,,,0.287,,0.4,0.6,0.8,0.2,0.8,0.2,0.2,0.8,,,0.736,,0.6,0.4,0.8,0.2,0.8,0.2,0.2,0.8,1,0
,,6646052f36c0bd14aafa0f0f,66fc98f5141f86454daa7cf4,2024-10-02_02h51.43.028,mdp,2024.2.1,Win32,142.8571429,66fa4ebf79326e780c390304,,,,,,,,,,,,,,,,,,,,,1127.922,1127.922,1127.924,1128.826,1,1,right,0.399,,1128.827,1129.867,1,1,right,1129.868,1130.735,0,0,left,1,1130.735,1130.735,1130.736,1132.235,0,5,5,5,1,0.8,0.2,0.6,0.4,,,,,,,,,,,,,,,0.525,,0.4,0.6,0.8,0.2,0.8,0.2,0.2,0.8,,,0.357,,0.6,0.4,0.8,0.2,0.8,0.2,0.2,0.8,1,0
,,6646052f36c0bd14aafa0f0f,66fc98f5141f86454daa7cf4,2024-10-02_02h51.43.028,mdp,2024.2.1,Win32,142.8571429,66fa4ebf79326e780c390304,,,,,,,,,,,,,,,,,,,,,1132.235,1132.235,1132.236,1141.158,1,1,right,8.418,,1141.174,1141.799,0,0,left,1141.801,1142.415,0,0,left,1,1142.415,1142.415,1142.417,1143.915,0,6,6,6,1,0.8,0.2,0.6,0.4,,,,,,,,,,,,,,,0.136,,0.4,0.6,0.8,0.2,0.8,0.2,0.2,0.8,,,0.101,,0.6,0.4,0.8,0.2,0.8,0.2,0.2,0.8,1,0
,,6646052f36c0bd14aafa0f0f,66fc98f5141f86454daa7cf4,2024-10-02_02h51.43.028,mdp,2024.2.1,Win32,142.8571429,66fa4ebf79326e780c390304,,,,,,,,,,,,,,,,,,,,,1143.916,1143.916,1143.918,1144.721,1,0,right,0.292,,1144.722,1145.443,1,0,right,1145.445,1146.208,0,0,left,1,1146.208,1146.208,1146.211,1147.708,0,7,7,7,1,0.8,0.2,0.6,0.4,,,,,,,,,,,,,,,0.211,,0.4,0.6,0.8,0.2,0.8,0.2,0.2,0.8,,,0.257,,0.6,0.4,0.8,0.2,0.8,0.2,0.2,0.8,1,0
,,6646052f36c0bd14aafa0f0f,66fc98f5141f86454daa7cf4,2024-10-02_02h51.43.028,mdp,2024.2.1,Win32,142.8571429,66fa4ebf79326e780c390304,,,,,,,,,,,,,,,,,,,,,1147.709,1147.709,1147.71,1148.596,1,1,right,0.375,,1148.598,1149.277,1,0,right,1149.278,1150.545,0,1,left,0,1150.546,1150.546,1150.549,1152.079,0,8,8,8,1,0.8,0.2,0.6,0.4,,,,,,,,,,,,,,,0.169,,0.4,0.6,0.8,0.2,0.8,0.2,0.2,0.8,,,0.762,,0.6,0.4,0.8,0.2,0.8,0.2,0.2,0.8,1,0
,,6646052f36c0bd14aafa0f0f,66fc98f5141f86454daa7cf4,2024-10-02_02h51.43.028,mdp,2024.2.1,Win32,142.8571429,66fa4ebf79326e780c390304,,,,,,,,,,,,,,,,,,,,,1152.08,1152.08,1152.081,1155.589,1,1,right,3.002,,1155.591,1156.291,0,0,left,1156.292,1156.958,0,0,left,1,1156.958,1156.958,1156.959,1158.458,0,9,9,9,1,0.8,0.2,0.6,0.4,,,,,,,,,,,,,,,0.193,,0.4,0.6,0.8,0.2,0.8,0.2,0.2,0.8,,,0.159,,0.6,0.4,0.8,0.2,0.8,0.2,0.2,0.8,1,0
,,6646052f36c0bd14aafa0f0f,66fc98f5141f86454daa7cf4,2024-10-02_02h51.43.028,mdp,2024.2.1,Win32,142.8571429,66fa4ebf79326e780c390304,,,,,,,,,,,,,,,,,,,,,1158.458,1158.458,1158.459,1159.228,1,0,right,0.258,,1159.23,1159.965,0,1,left,1159.966,1160.631,0,0,left,1,1160.631,1160.631,1160.632,1162.13,0,10,10,10,1,0.8,0.2,0.6,0.4,,,,,,,,,,,,,,,0.223,,0.4,0.6,0.8,0.2,0.8,0.2,0.2,0.8,,,0.151,,0.6,0.4,0.8,0.2,0.8,0.2,0.2,0.8,1,0
,,6646052f36c0bd14aafa0f0f,66fc98f5141f86454daa7cf4,2024-10-02_02h51.43.028,mdp,2024.2.1,Win32,142.8571429,66fa4ebf79326e780c390304,,,,,,,,,,,,,,,,,,,,,1162.131,1162.131,1162.132,1162.652,1,1,right,0.009,,1162.653,1163.249,0,0,left,1163.25,1163.827,0,1,left,0,1163.827,1163.827,1163.829,1165.325,0,11,11,11,1,0.6,0.4,0.2,0.8,,,,,,,,,,,,,,,0.077,,0.4,0.6,0.8,0.2,0.8,0.2,0.2,0.8,,,0.07,,0.6,0.4,0.8,0.2,0.8,0.2,0.2,0.8,1,0
,,6646052f36c0bd14aafa0f0f,66fc98f5141f86454daa7cf4,2024-10-02_02h51.43.028,mdp,2024.2.1,Win32,142.8571429,66fa4ebf79326e780c390304,,,,,,,,,,,,,,,,,,,,,1165.326,1165.326,1165.328,1167.124,1,1,right,1.286,,1167.125,1167.859,0,0,left,1167.861,1168.528,0,1,left,0,1168.528,1168.528,1168.529,1170.027,0,12,12,12,1,0.8,0.2,0.6,0.4,,,,,,,,,,,,,,,0.226,,0.4,0.6,0.8,0.2,0.8,0.2,0.2,0.8,,,0.16,,0.6,0.4,0.8,0.2,0.8,0.2,0.2,0.8,1,0
,,6646052f36c0bd14aafa0f0f,66fc98f5141f86454daa7cf4,2024-10-02_02h51.43.028,mdp,2024.2.1,Win32,142.8571429,66fa4ebf79326e780c390304,,,,,,,,,,,,,,,,,,,,,1170.027,1170.027,1170.029,1170.88,1,1,right,0.346,,1170.883,1171.624,0,0,left,1171.626,1172.332,1,0,right,1,1172.332,1172.332,1172.333,1173.832,0,13,13,13,1,0.8,0.2,0.6,0.4,,,,,,,,,,,,,,,0.23,,0.4,0.6,0.8,0.2,0.8,0.2,0.2,0.8,,,0.196,,0.6,0.4,0.8,0.2,0.8,0.2,0.2,0.8,1,0
,,6646052f36c0bd14aafa0f0f,66fc98f5141f86454daa7cf4,2024-10-02_02h51.43.028,mdp,2024.2.1,Win32,142.8571429,66fa4ebf79326e780c390304,,,,,,,,,,,,,,,,,,,,,1173.833,1173.833,1173.833,1174.686,1,1,right,0.341,,1174.687,1175.415,0,0,left,1175.417,1175.978,1,0,right,1,1175.978,1175.978,1175.98,1177.478,0,14,14,14,1,0.6,0.4,0.2,0.8,,,,,,,,,,,,,,,0.217,,0.4,0.6,0.8,0.2,0.8,0.2,0.2,0.8,,,0.059,,0.6,0.4,0.8,0.2,0.8,0.2,0.2,0.8,1,0
,,6646052f36c0bd14aafa0f0f,66fc98f5141f86454daa7cf4,2024-10-02_02h51.43.028,mdp,2024.2.1,Win32,142.8571429,66fa4ebf79326e780c390304,,,,,,,,,,,,,,,,,,,,,1177.478,1177.478,1177.48,1192.451,1,0,right,14.465,,1192.466,1193.159,0,0,left,1193.16,1193.818,1,0,right,1,1193.818,1193.818,1193.819,1195.318,0,15,15,15,1,0.6,0.4,0.2,0.8,,,,,,,,,,,,,,,0.196,,0.8,0.2,0.6,0.4,0.8,0.2,0.2,0.8,,,0.154,,0.6,0.4,0.8,0.2,0.8,0.2,0.2,0.8,1,0
,,6646052f36c0bd14aafa0f0f,66fc98f5141f86454daa7cf4,2024-10-02_02h51.43.028,mdp,2024.2.1,Win32,142.8571429,66fa4ebf79326e780c390304,,,,,,,,,,,,,,,,,,,,,1195.318,1195.318,1195.32,1196.319,1,1,right,0.495,,1196.319,1202.784,1,1,right,1202.799,1203.423,0,0,left,1,1203.423,1203.423,1203.424,1204.923,0,16,16,16,1,0.6,0.4,0.2,0.8,,,,,,,,,,,,,,,5.949,,0.8,0.2,0.6,0.4,0.8,0.2,0.2,0.8,,,0.13,,0.6,0.4,0.8,0.2,0.8,0.2,0.2,0.8,1,0
,,6646052f36c0bd14aafa0f0f,66fc98f5141f86454daa7cf4,2024-10-02_02h51.43.028,mdp,2024.2.1,Win32,142.8571429,66fa4ebf79326e780c390304,,,,,,,,,,,,,,,,,,,,,1204.924,1204.924,1204.925,1206.721,1,1,right,1.287,,1206.723,1207.36,0,0,left,1207.361,1208.033,1,0,right,1,1208.033,1208.033,1208.035,1209.534,0,17,17,17,1,0.6,0.4,0.2,0.8,,,,,,,,,,,,,,,0.126,,0.8,0.2,0.6,0.4,0.8,0.2,0.2,0.8,,,0.154,,0.6,0.4,0.8,0.2,0.8,0.2,0.2,0.8,1,0
,,6646052f36c0bd14aafa0f0f,66fc98f5141f86454daa7cf4,2024-10-02_02h51.43.028,mdp,2024.2.1,Win32,142.8571429,66fa4ebf79326e780c390304,,,,,,,,,,,,,,,,,,,,,1209.534,1209.534,1209.535,1210.347,1,1,right,0.293,,1210.348,1211.089,1,1,right,1211.091,1211.757,0,0,left,1,1211.757,1211.757,1211.758,1213.256,0,18,18,18,1,0.6,0.4,0.2,0.8,,,,,,,,,,,,,,,0.235,,0.8,0.2,0.6,0.4,0.8,0.2,0.2,0.8,,,0.149,,0.6,0.4,0.8,0.2,0.8,0.2,0.2,0.8,1,0
,,6646052f36c0bd14aafa0f0f,66fc98f5141f86454daa7cf4,2024-10-02_02h51.43.028,mdp,2024.2.1,Win32,142.8571429,66fa4ebf79326e780c390304,,,,,,,,,,,,,,,,,,,,,1213.256,1213.256,1213.258,1214.076,0,1,left,0.304,,1214.076,1214.749,1,0,right,1214.75,1215.527,0,0,left,1,1215.527,1215.527,1215.528,1217.022,0,19,19,19,1,0.6,0.4,0.2,0.8,,,,,,,,,,,,,,,0.163,,0.8,0.2,0.6,0.4,0.8,0.2,0.2,0.8,,,0.265,,0.6,0.4,0.8,0.2,0.8,0.2,0.2,0.8,1,0
,,6646052f36c0bd14aafa0f0f,66fc98f5141f86454daa7cf4,2024-10-02_02h51.43.028,mdp,2024.2.1,Win32,142.8571429,66fa4ebf79326e780c390304,,,,,,,,,,,,,,,,,,,,,1217.022,1217.022,1217.024,1217.763,1,1,right,0.231,,1217.766,1218.443,0,0,left,1218.445,1219.172,1,0,right,1,1219.172,1219.172,1219.174,1220.673,0,20,20,20,1,0.6,0.4,0.2,0.8,,,,,,,,,,,,,,,0.171,,0.8,0.2,0.6,0.4,0.8,0.2,0.2,0.8,,,0.223,,0.6,0.4,0.8,0.2,0.8,0.2,0.2,0.8,1,0
,,6646052f36c0bd14aafa0f0f,66fc98f5141f86454daa7cf4,2024-10-02_02h51.43.028,mdp,2024.2.1,Win32,142.8571429,66fa4ebf79326e780c390304,,,,,,,,,,,,,,,,,,,,,1220.673,1220.673,1220.675,1221.312,1,1,right,0.134,,1221.313,1221.95,0,1,left,1221.951,1222.747,1,0,right,1,1222.747,1222.747,1222.748,1224.242,0,21,21,21,1,0.6,0.4,0.2,0.8,,,,,,,,,,,,,,,0.125,,0.8,0.2,0.6,0.4,0.8,0.2,0.2,0.8,,,0.284,,0.6,0.4,0.8,0.2,0.8,0.2,0.2,0.8,1,0
,,6646052f36c0bd14aafa0f0f,66fc98f5141f86454daa7cf4,2024-10-02_02h51.43.028,mdp,2024.2.1,Win32,142.8571429,66fa4ebf79326e780c390304,,,,,,,,,,,,,,,,,,,,,1224.243,1224.243,1224.246,1225.805,0,0,left,1.05,,1225.806,1226.416,1,1,right,1226.417,1227.027,0,0,left,1,1227.027,1227.027,1227.029,1228.527,0,22,22,22,1,0.6,0.4,0.2,0.8,,,,,,,,,,,,,,,0.089,,0.8,0.2,0.6,0.4,0.8,0.2,0.2,0.8,,,0.1,,0.8,0.2,0.4,0.6,0.8,0.2,0.2,0.8,1,0
,,6646052f36c0bd14aafa0f0f,66fc98f5141f86454daa7cf4,2024-10-02_02h51.43.028,mdp,2024.2.1,Win32,142.8571429,66fa4ebf79326e780c390304,,,,,,,,,,,,,,,,,,,,,1228.528,1228.528,1228.529,1229.306,0,1,left,0.272,,1229.307,1229.951,1,0,right,1229.951,1230.596,0,0,left,1,1230.596,1230.596,1230.597,1232.096,0,23,23,23,1,0.6,0.4,0.2,0.8,,,,,,,,,,,,,,,0.12,,0.8,0.2,0.6,0.4,0.8,0.2,0.2,0.8,,,0.131,,0.2,0.8,0.8,0.2,0.8,0.2,0.2,0.8,1,0
,,6646052f36c0bd14aafa0f0f,66fc98f5141f86454daa7cf4,2024-10-02_02h51.43.028,mdp,2024.2.1,Win32,142.8571429,66fa4ebf79326e780c390304,,,,,,,,,,,,,,,,,,,,,1232.096,1232.096,1232.097,1232.816,0,0,left,0.214,,1232.818,1233.451,1,0,right,1233.452,1234.061,0,1,left,0,1234.061,1234.062,1234.063,1235.561,0,24,24,24,1,0.6,0.4,0.2,0.8,,,,,,,,,,,,,,,0.114,,0.8,0.2,0.6,0.4,0.8,0.2,0.2,0.8,,,0.1,,0.2,0.8,0.8,0.2,0.8,0.2,0.2,0.8,1,0
,,6646052f36c0bd14aafa0f0f,66fc98f5141f86454daa7cf4,2024-10-02_02h51.43.028,mdp,2024.2.1,Win32,142.8571429,66fa4ebf79326e780c390304,,,,,,,,,,,,,,,,,,,,,1235.562,1235.562,1235.564,1236.284,0,0,left,0.216,,1236.285,1237.173,0,1,left,1237.177,1237.916,1,0,right,1,1237.916,1237.916,1237.918,1239.416,0,25,25,25,1,0.6,0.4,0.2,0.8,,,,,,,,,,,,,,,0.384,,0.8,0.2,0.6,0.4,0.8,0.2,0.2,0.8,,,0.216,,0.2,0.8,0.8,0.2,0.4,0.6,0.8,0.2,1,0
,,6646052f36c0bd14aafa0f0f,66fc98f5141f86454daa7cf4,2024-10-02_02h51.43.028,mdp,2024.2.1,Win32,142.8571429,66fa4ebf79326e780c390304,,,,,,,,,,,,,,,,,,,,,1239.416,1239.416,1239.418,1240.022,0,1,left,0.099,,1240.024,1240.979,1,1,right,1240.982,1241.888,0,0,left,1,1241.888,1241.888,1241.89,1243.388,0,26,26,26,1,0.6,0.4,0.2,0.8,,,,,,,,,,,,,,,0.442,,0.8,0.2,0.6,0.4,0.8,0.2,0.2,0.8,,,0.396,,0.2,0.8,0.8,0.2,0.4,0.6,0.8,0.2,1,0
,,6646052f36c0bd14aafa0f0f,66fc98f5141f86454daa7cf4,2024-10-02_02h51.43.028,mdp,2024.2.1,Win32,142.8571429,66fa4ebf79326e780c390304,,,,,,,,,,,,,,,,,,,,,1243.388,1243.388,1243.389,1243.918,0,0,left,0.025,,1243.919,1244.826,0,0,left,1244.827,1245.541,1,0,right,1,1245.541,1245.541,1245.542,1247.041,0,27,27,27,1,0.6,0.4,0.2,0.8,,,,,,,,,,,,,,,0.388,,0.8,0.2,0.6,0.4,0.8,0.2,0.2,0.8,,,0.2,,0.2,0.8,0.8,0.2,0.4,0.6,0.8,0.2,1,0
,,6646052f36c0bd14aafa0f0f,66fc98f5141f86454daa7cf4,2024-10-02_02h51.43.028,mdp,2024.2.1,Win32,142.8571429,66fa4ebf79326e780c390304,,,,,,,,,,,,,,,,,,,,,1247.042,1247.042,1247.043,1247.797,0,1,left,0.24,,1247.799,1248.847,1,1,right,1248.847,1250.034,0,0,left,1,1250.034,1250.034,1250.035,1251.533,0,28,28,28,1,0.6,0.4,0.2,0.8,,,,,,,,,,,,,,,0.534,,0.8,0.2,0.6,0.4,0.8,0.2,0.2,0.8,,,0.668,,0.2,0.8,0.8,0.2,0.4,0.6,0.8,0.2,1,0
,,6646052f36c0bd14aafa0f0f,66fc98f5141f86454daa7cf4,2024-10-02_02h51.43.028,mdp,2024.2.1,Win32,142.8571429,66fa4ebf79326e780c390304,,,,,,,,,,,,,,,,,,,,,1251.534,1251.534,1251.535,1252.117,0,1,left,0.068,,1252.118,1252.784,1,1,right,1252.785,1253.52,0,1,left,0,1253.52,1253.52,1253.521,1255.02,0,29,29,29,1,0.6,0.4,0.2,0.8,,,,,,,,,,,,,,,0.161,,0.8,0.2,0.6,0.4,0.8,0.2,0.2,0.8,,,0.232,,0.2,0.8,0.8,0.2,0.4,0.6,0.8,0.2,1,0
,,6646052f36c0bd14aafa0f0f,66fc98f5141f86454daa7cf4,2024-10-02_02h51.43.028,mdp,2024.2.1,Win32,142.8571429,66fa4ebf79326e780c390304,,,,,,,,,,,,,,,,,,,,,1255.02,1255.02,1255.022,1255.554,0,1,left,0.022,,1255.556,1256.208,1,1,right,1256.209,1256.839,1,0,right,1,1256.839,1256.839,1256.84,1258.34,0,30,30,30,1,0.6,0.4,0.2,0.8,,,,,,,,,,,,,,,0.145,,0.8,0.2,0.6,0.4,0.8,0.2,0.2,0.8,,,0.119,,0.2,0.8,0.8,0.2,0.4,0.6,0.8,0.2,1,0
,,6646052f36c0bd14aafa0f0f,66fc98f5141f86454daa7cf4,2024-10-02_02h51.43.028,mdp,2024.2.1,Win32,142.8571429,66fa4ebf79326e780c390304,,,,,,,,,,,,,,,,,,,,,1258.34,1258.34,1258.341,1259.189,0,0,left,0.336,,1259.19,1259.868,1,1,right,1259.869,1260.519,0,0,left,1,1260.519,1260.519,1260.521,1262.019,0,31,31,31,1,0.6,0.4,0.2,0.8,,,,,,,,,,,,,,,0.159,,0.8,0.2,0.6,0.4,0.8,0.2,0.2,0.8,,,0.14,,0.2,0.8,0.8,0.2,0.4,0.6,0.8,0.2,1,0
,,6646052f36c0bd14aafa0f0f,66fc98f5141f86454daa7cf4,2024-10-02_02h51.43.028,mdp,2024.2.1,Win32,142.8571429,66fa4ebf79326e780c390304,,,,,,,,,,,,,,,,,,,,,1262.021,1262.021,1262.022,1262.972,0,1,left,0.44,,1262.974,1263.777,1,1,right,1263.778,1264.395,0,1,left,0,1264.395,1264.395,1264.396,1265.898,0,32,32,32,1,0.6,0.4,0.2,0.8,,,,,,,,,,,,,,,0.29,,0.6,0.4,0.8,0.2,0.8,0.2,0.2,0.8,,,0.112,,0.2,0.8,0.8,0.2,0.4,0.6,0.8,0.2,1,0
,,6646052f36c0bd14aafa0f0f,66fc98f5141f86454daa7cf4,2024-10-02_02h51.43.028,mdp,2024.2.1,Win32,142.8571429,66fa4ebf79326e780c390304,,,,,,,,,,,,,,,,,,,,,1265.898,1265.898,1265.901,1266.798,0,0,left,0.392,,1266.799,1267.508,1,0,right,1267.509,1268.173,1,0,right,1,1268.173,1268.173,1268.175,1269.673,0,33,33,33,1,0.6,0.4,0.2,0.8,,,,,,,,,,,,,,,0.189,,0.6,0.4,0.8,0.2,0.8,0.2,0.2,0.8,,,0.147,,0.2,0.8,0.8,0.2,0.4,0.6,0.8,0.2,1,0
,,6646052f36c0bd14aafa0f0f,66fc98f5141f86454daa7cf4,2024-10-02_02h51.43.028,mdp,2024.2.1,Win32,142.8571429,66fa4ebf79326e780c390304,,,,,,,,,,,,,,,,,,,,,1269.673,1269.673,1269.675,1270.499,0,0,left,0.313,,1270.5,1271.124,1,0,right,1271.125,1271.854,1,1,right,0,1271.854,1271.854,1271.856,1273.353,0,34,34,34,1,0.6,0.4,0.2,0.8,,,,,,,,,,,,,,,0.122,,0.6,0.4,0.8,0.2,0.8,0.2,0.2,0.8,,,0.218,,0.2,0.8,0.8,0.2,0.4,0.6,0.8,0.2,1,0
,,6646052f36c0bd14aafa0f0f,66fc98f5141f86454daa7cf4,2024-10-02_02h51.43.028,mdp,2024.2.1,Win32,142.8571429,66fa4ebf79326e780c390304,,,,,,,,,,,,,,,,,,,,,1273.353,1273.353,1273.355,1273.943,0,0,left,0.085,,1273.945,1274.661,1,0,right,1274.662,1275.252,0,0,left,1,1275.252,1275.252,1275.254,1276.749,0,35,35,35,1,0.6,0.4,0.2,0.8,,,,,,,,,,,,,,,0.213,,0.6,0.4,0.8,0.2,0.8,0.2,0.2,0.8,,,0.078,,0.2,0.8,0.8,0.2,0.4,0.6,0.8,0.2,1,0
,,6646052f36c0bd14aafa0f0f,66fc98f5141f86454daa7cf4,2024-10-02_02h51.43.028,mdp,2024.2.1,Win32,142.8571429,66fa4ebf79326e780c390304,,,,,,,,,,,,,,,,,,,,,1276.749,1276.749,1276.751,1277.283,0,1,left,0.022,,1277.285,1277.895,1,1,right,1277.896,1278.561,0,0,left,1,1278.561,1278.561,1278.563,1280.061,0,36,36,36,1,0.6,0.4,0.2,0.8,,,,,,,,,,,,,,,0.091,,0.6,0.4,0.8,0.2,0.8,0.2,0.2,0.8,,,0.146,,0.2,0.8,0.8,0.2,0.4,0.6,0.8,0.2,1,0
,,6646052f36c0bd14aafa0f0f,66fc98f5141f86454daa7cf4,2024-10-02_02h51.43.028,mdp,2024.2.1,Win32,142.8571429,66fa4ebf79326e780c390304,,,,,,,,,,,,,,,,,,,,,1280.061,1280.061,1280.063,1280.694,0,1,left,0.126,,1280.695,1281.299,0,1,left,1281.299,1281.895,1,1,right,0,1281.895,1281.895,1281.897,1283.395,0,37,37,37,1,0.6,0.4,0.2,0.8,,,,,,,,,,,,,,,0.092,,0.6,0.4,0.8,0.2,0.8,0.2,0.2,0.8,,,0.087,,0.4,0.6,0.4,0.6,0.4,0.6,0.8,0.2,1,0
,,6646052f36c0bd14aafa0f0f,66fc98f5141f86454daa7cf4,2024-10-02_02h51.43.028,mdp,2024.2.1,Win32,142.8571429,66fa4ebf79326e780c390304,,,,,,,,,,,,,,,,,,,,,1283.395,1283.395,1283.396,1284.034,0,0,left,0.131,,1284.036,1284.596,0,0,left,1284.597,1285.166,1,1,right,0,1285.166,1285.166,1285.168,1286.666,0,38,38,38,1,0.6,0.4,0.2,0.8,,,,,,,,,,,,,,,0.042,,0.6,0.4,0.8,0.2,0.8,0.2,0.2,0.8,,,0.051,,0.4,0.6,0.4,0.6,0.4,0.6,0.8,0.2,1,0
,,6646052f36c0bd14aafa0f0f,66fc98f5141f86454daa7cf4,2024-10-02_02h51.43.028,mdp,2024.2.1,Win32,142.8571429,66fa4ebf79326e780c390304,,,,,,,,,,,,,,,,,,,,,1286.667,1286.667,1286.668,1287.548,0,0,left,0.37,,1287.549,1288.145,1,1,right,1288.146,1288.763,0,0,left,1,1288.763,1288.763,1288.765,1290.263,0,39,39,39,1,0.6,0.4,0.2,0.8,,,,,,,,,,,,,,,0.088,,0.6,0.4,0.8,0.2,0.8,0.2,0.2,0.8,,,0.105,,0.4,0.6,0.4,0.6,0.4,0.6,0.8,0.2,1,0
,,6646052f36c0bd14aafa0f0f,66fc98f5141f86454daa7cf4,2024-10-02_02h51.43.028,mdp,2024.2.1,Win32,142.8571429,66fa4ebf79326e780c390304,,,,,,,,,,,,,,,,,,,,,1290.264,1290.264,1290.265,1290.971,0,1,left,0.196,,1290.972,1291.605,1,1,right,1291.607,1292.215,0,0,left,1,1292.215,1292.215,1292.216,1293.712,0,40,40,40,1,0.6,0.4,0.2,0.8,,,,,,,,,,,,,,,0.107,,0.6,0.4,0.8,0.2,0.8,0.2,0.2,0.8,,,0.097,,0.4,0.6,0.4,0.6,0.4,0.6,0.8,0.2,1,0
,,6646052f36c0bd14aafa0f0f,66fc98f5141f86454daa7cf4,2024-10-02_02h51.43.028,mdp,2024.2.1,Win32,142.8571429,66fa4ebf79326e780c390304,,,,,,,,,,,,,,,,,,,,,1293.712,1293.712,1293.714,1294.659,0,1,left,0.437,,1294.66,1295.276,1,1,right,1295.278,1295.874,0,0,left,1,1295.874,1295.874,1295.875,1297.373,0,41,41,41,1,0.4,0.6,0.4,0.6,,,,,,,,,,,,,,,0.114,,0.6,0.4,0.8,0.2,0.8,0.2,0.2,0.8,,,0.089,,0.4,0.6,0.4,0.6,0.4,0.6,0.8,0.2,1,0
,,6646052f36c0bd14aafa0f0f,66fc98f5141f86454daa7cf4,2024-10-02_02h51.43.028,mdp,2024.2.1,Win32,142.8571429,66fa4ebf79326e780c390304,,,,,,,,,,,,,,,,,,,,,1297.374,1297.374,1297.375,1298.131,0,0,left,0.25,,1298.132,1298.77,1,0,right,1298.771,1299.437,0,1,left,0,1299.437,1299.437,1299.438,1300.938,0,42,42,42,1,0.4,0.6,0.4,0.6,,,,,,,,,,,,,,,0.125,,0.6,0.4,0.8,0.2,0.8,0.2,0.2,0.8,,,0.154,,0.4,0.6,0.4,0.6,0.4,0.6,0.8,0.2,1,0
,,6646052f36c0bd14aafa0f0f,66fc98f5141f86454daa7cf4,2024-10-02_02h51.43.028,mdp,2024.2.1,Win32,142.8571429,66fa4ebf79326e780c390304,,,,,,,,,,,,,,,,,,,,,1300.938,1300.938,1300.939,1301.696,0,0,left,0.246,,1301.697,1302.465,1,0,right,1302.465,1303.147,1,1,right,0,1303.147,1303.147,1303.149,1304.644,0,43,43,43,1,0.4,0.6,0.4,0.6,,,,,,,,,,,,,,,0.256,,0.4,0.6,0.6,0.4,0.8,0.2,0.2,0.8,,,0.171,,0.4,0.6,0.4,0.6,0.4,0.6,0.8,0.2,1,0
,,6646052f36c0bd14aafa0f0f,66fc98f5141f86454daa7cf4,2024-10-02_02h51.43.028,mdp,2024.2.1,Win32,142.8571429,66fa4ebf79326e780c390304,,,,,,,,,,,,,,,,,,,,,1304.645,1304.645,1304.646,1305.264,0,0,left,0.114,,1305.266,1305.978,1,0,right,1305.979,1306.638,1,1,right,0,1306.638,1306.638,1306.639,1308.138,0,44,44,44,1,0.4,0.6,0.4,0.6,,,,,,,,,,,,,,,0.207,,0.4,0.6,0.6,0.4,0.8,0.2,0.2,0.8,,,0.154,,0.4,0.6,0.4,0.6,0.4,0.6,0.8,0.2,1,0
,,6646052f36c0bd14aafa0f0f,66fc98f5141f86454daa7cf4,2024-10-02_02h51.43.028,mdp,2024.2.1,Win32,142.8571429,66fa4ebf79326e780c390304,,,,,,,,,,,,,,,,,,,,,1308.138,1308.138,1308.139,1308.902,0,1,left,0.257,,1308.903,1309.54,1,0,right,1309.543,1310.188,1,1,right,0,1310.188,1310.188,1310.189,1311.687,0,45,45,45,1,0.4,0.6,0.4,0.6,,,,,,,,,,,,,,,0.117,,0.4,0.6,0.6,0.4,0.8,0.2,0.2,0.8,,,0.136,,0.4,0.6,0.4,0.6,0.4,0.6,0.8,0.2,1,0
,,6646052f36c0bd14aafa0f0f,66fc98f5141f86454daa7cf4,2024-10-02_02h51.43.028,mdp,2024.2.1,Win32,142.8571429,66fa4ebf79326e780c390304,,,,,,,,,,,,,,,,,,,,,1311.688,1311.688,1311.69,1312.409,0,0,left,0.211,,1312.411,1313.103,1,0,right,1313.106,1313.785,0,0,left,1,1313.785,1313.785,1313.787,1315.284,0,46,46,46,1,0.4,0.6,0.4,0.6,,,,,,,,,,,,,,,0.18,,0.4,0.6,0.6,0.4,0.8,0.2,0.2,0.8,,,0.171,,0.4,0.6,0.4,0.6,0.4,0.6,0.8,0.2,1,0
,,6646052f36c0bd14aafa0f0f,66fc98f5141f86454daa7cf4,2024-10-02_02h51.43.028,mdp,2024.2.1,Win32,142.8571429,66fa4ebf79326e780c390304,,,,,,,,,,,,,,,,,,,,,1315.284,1315.284,1315.286,1315.943,0,1,left,0.155,,1315.945,1316.68,1,1,right,1316.681,1317.409,0,0,left,1,1317.41,1317.41,1317.411,1318.909,0,47,47,47,1,0.4,0.6,0.4,0.6,,,,,,,,,,,,,,,0.218,,0.4,0.6,0.6,0.4,0.8,0.2,0.2,0.8,,,0.211,,0.4,0.6,0.4,0.6,0.4,0.6,0.8,0.2,1,0
,,6646052f36c0bd14aafa0f0f,66fc98f5141f86454daa7cf4,2024-10-02_02h51.43.028,mdp,2024.2.1,Win32,142.8571429,66fa4ebf79326e780c390304,,,,,,,,,,,,,,,,,,,,,1318.909,1318.909,1318.91,1319.659,0,1,left,0.245,,1319.66,1320.248,1,0,right,1320.25,1320.881,0,1,left,0,1320.881,1320.881,1320.89,1322.381,0,48,48,48,1,0.4,0.6,0.4,0.6,,,,,,,,,,,,,,,0.085,,0.4,0.6,0.6,0.4,0.8,0.2,0.2,0.8,,,0.118,,0.4,0.6,0.4,0.6,0.4,0.6,0.8,0.2,1,0
,,6646052f36c0bd14aafa0f0f,66fc98f5141f86454daa7cf4,2024-10-02_02h51.43.028,mdp,2024.2.1,Win32,142.8571429,66fa4ebf79326e780c390304,,,,,,,,,,,,,,,,,,,,,1322.381,1322.381,1322.383,1322.95,0,0,left,0.063,,1322.952,1323.506,1,0,right,1323.506,1324.11,1,1,right,0,1324.11,1324.11,1324.111,1325.71,0,49,49,49,1,0.4,0.6,0.4,0.6,,,,,,,,,,,,,,,0.042,,0.4,0.6,0.6,0.4,0.8,0.2,0.2,0.8,,,0.097,,0.4,0.6,0.4,0.6,0.4,0.6,0.8,0.2,1,0
,,6646052f36c0bd14aafa0f0f,66fc98f5141f86454daa7cf4,2024-10-02_02h51.43.028,mdp,2024.2.1,Win32,142.8571429,66fa4ebf79326e780c390304,,,,,,,,,,,,,,,,,,,,,,,,,,,,,,,,,,,,,,,,,,,,,,,,,,,,,,,,1325.711,1384.11,0,3,3,3,1,imgs/giraffe.png,imgs/horse.png,imgs/squirrel.png,imgs/bear.png,imgs/rabbit.png,,,,,,,,,,,,,,,,,,,,,,,,
,,6646052f36c0bd14aafa0f0f,66fc98f5141f86454daa7cf4,2024-10-02_02h51.43.028,mdp,2024.2.1,Win32,142.8571429,66fa4ebf79326e780c390304,,,,,,,,,,,,,,1,seqs/st1seq37.csv,1384.121,1433.479,space,48.847,,1433.507,1433.507,1433.508,1435.146,0,0,left,1.121,,1435.147,1435.149,1,1,,1435.15,1435.15,1,1,,1,1435.15,1435.15,1435.15,1436.646,0,0,0,0,1,0.2,0.8,0.6,0.4,1,0,,,,,,,,,,,,,,,,,,,,,,,,,,,,,,,,,,,,
,,6646052f36c0bd14aafa0f0f,66fc98f5141f86454daa7cf4,2024-10-02_02h51.43.028,mdp,2024.2.1,Win32,142.8571429,66fa4ebf79326e780c390304,,,,,,,,,,,,,,,,,,,,,1436.646,1436.646,1436.647,1437.624,0,0,left,0.469,,1437.625,1437.628,1,1,,1437.629,1437.629,1,1,,1,1437.629,1437.629,1437.629,1439.125,0,1,1,1,1,0.2,0.8,0.6,0.4,1,0,,,,,,,,,,,,,,,,,,,,,,,,,,,,,,,,,,,,
,,6646052f36c0bd14aafa0f0f,66fc98f5141f86454daa7cf4,2024-10-02_02h51.43.028,mdp,2024.2.1,Win32,142.8571429,66fa4ebf79326e780c390304,,,,,,,,,,,,,,,,,,,,,1439.125,1439.125,1439.128,1440.013,0,1,left,0.376,,1440.014,1440.015,1,0,,1440.016,1440.016,1,0,,0,1440.016,1440.016,1440.017,1441.513,0,2,2,2,1,0.6,0.4,0.4,0.6,1,0,,,,,,,,,,,,,,,,,,,,,,,,,,,,,,,,,,,,
,,6646052f36c0bd14aafa0f0f,66fc98f5141f86454daa7cf4,2024-10-02_02h51.43.028,mdp,2024.2.1,Win32,142.8571429,66fa4ebf79326e780c390304,,,,,,,,,,,,,,,,,,,,,1441.514,1441.514,1441.514,1442.277,1,1,right,0.244,,1442.278,1442.279,1,1,,1442.281,1442.281,1,1,,0,1442.281,1442.281,1442.282,1443.779,0,3,3,3,1,0.6,0.4,0.4,0.6,1,0,,,,,,,,,,,,,,,,,,,,,,,,,,,,,,,,,,,,
,,6646052f36c0bd14aafa0f0f,66fc98f5141f86454daa7cf4,2024-10-02_02h51.43.028,mdp,2024.2.1,Win32,142.8571429,66fa4ebf79326e780c390304,,,,,,,,,,,,,,,,,,,,,1443.779,1443.779,1443.781,1444.36,0,1,left,0.071,,1444.361,1444.362,1,0,,1444.364,1444.366,1,1,,0,1444.366,1444.366,1444.368,1445.868,0,4,4,4,1,0.6,0.4,0.4,0.6,1,0,,,,,,,,,,,,,,,,,,,,,,,,,,,,,,,,,,,,
,,6646052f36c0bd14aafa0f0f,66fc98f5141f86454daa7cf4,2024-10-02_02h51.43.028,mdp,2024.2.1,Win32,142.8571429,66fa4ebf79326e780c390304,,,,,,,,,,,,,,,,,,,,,1445.869,1445.869,1445.869,1446.755,0,0,left,0.377,,1446.757,1446.758,1,0,,1446.758,1446.759,1,0,,1,1446.759,1446.759,1446.76,1448.256,0,5,5,5,1,0.6,0.4,0.4,0.6,1,0,,,,,,,,,,,,,,,,,,,,,,,,,,,,,,,,,,,,
,,6646052f36c0bd14aafa0f0f,66fc98f5141f86454daa7cf4,2024-10-02_02h51.43.028,mdp,2024.2.1,Win32,142.8571429,66fa4ebf79326e780c390304,,,,,,,,,,,,,,,,,,,,,1448.256,1448.256,1448.257,1458.652,0,0,left,9.892,,1458.668,1458.687,1,0,,1458.688,1458.689,1,1,,1,1458.689,1458.689,1458.69,1460.187,0,6,6,6,1,0.6,0.4,0.4,0.6,1,0,,,,,,,,,,,,,,,,,,,,,,,,,,,,,,,,,,,,
,,6646052f36c0bd14aafa0f0f,66fc98f5141f86454daa7cf4,2024-10-02_02h51.43.028,mdp,2024.2.1,Win32,142.8571429,66fa4ebf79326e780c390304,,,,,,,,,,,,,,,,,,,,,1460.187,1460.187,1460.189,1460.944,0,0,left,0.246,,1460.946,1460.946,1,0,,1460.947,1460.947,1,0,,1,1460.947,1460.947,1460.948,1462.444,0,7,7,7,1,0.6,0.4,0.4,0.6,1,0,,,,,,,,,,,,,,,,,,,,,,,,,,,,,,,,,,,,
,,6646052f36c0bd14aafa0f0f,66fc98f5141f86454daa7cf4,2024-10-02_02h51.43.028,mdp,2024.2.1,Win32,142.8571429,66fa4ebf79326e780c390304,,,,,,,,,,,,,,,,,,,,,1462.445,1462.445,1462.446,1463.2,0,1,left,0.245,,1463.202,1463.204,1,0,,1463.205,1463.205,1,1,,0,1463.205,1463.205,1463.205,1464.7,0,8,8,8,1,0.6,0.4,0.4,0.6,1,0,,,,,,,,,,,,,,,,,,,,,,,,,,,,,,,,,,,,
,,6646052f36c0bd14aafa0f0f,66fc98f5141f86454daa7cf4,2024-10-02_02h51.43.028,mdp,2024.2.1,Win32,142.8571429,66fa4ebf79326e780c390304,,,,,,,,,,,,,,,,,,,,,1464.7,1464.7,1464.702,1465.305,0,1,left,0.097,,1465.307,1465.308,1,0,,1465.31,1465.311,1,0,,0,1465.311,1465.311,1465.311,1466.811,0,9,9,9,1,0.6,0.4,0.4,0.6,1,0,,,,,,,,,,,,,,,,,,,,,,,,,,,,,,,,,,,,
,,6646052f36c0bd14aafa0f0f,66fc98f5141f86454daa7cf4,2024-10-02_02h51.43.028,mdp,2024.2.1,Win32,142.8571429,66fa4ebf79326e780c390304,,,,,,,,,,,,,,,,,,,,,1466.812,1466.812,1466.813,1467.374,0,0,left,0.05,,1467.376,1467.376,1,0,,1467.378,1467.378,1,0,,1,1467.378,1467.378,1467.378,1468.873,0,10,10,10,1,0.6,0.4,0.4,0.6,1,0,,,,,,,,,,,,,,,,,,,,,,,,,,,,,,,,,,,,
,,6646052f36c0bd14aafa0f0f,66fc98f5141f86454daa7cf4,2024-10-02_02h51.43.028,mdp,2024.2.1,Win32,142.8571429,66fa4ebf79326e780c390304,,,,,,,,,,,,,,,,,,,,,1468.874,1468.875,1468.875,1469.478,0,0,left,0.099,,1469.48,1469.481,1,0,,1469.482,1469.482,1,1,,1,1469.482,1469.482,1469.483,1470.988,0,11,11,11,1,0.8,0.2,0.2,0.8,1,0,,,,,,,,,,,,,,,,,,,,,,,,,,,,,,,,,,,,
,,6646052f36c0bd14aafa0f0f,66fc98f5141f86454daa7cf4,2024-10-02_02h51.43.028,mdp,2024.2.1,Win32,142.8571429,66fa4ebf79326e780c390304,,,,,,,,,,,,,,,,,,,,,1470.988,1470.988,1470.989,1471.652,0,1,left,0.155,,1471.654,1471.655,1,0,,1471.656,1471.657,1,0,,0,1471.657,1471.657,1471.658,1473.152,0,12,12,12,1,0.8,0.2,0.2,0.8,1,0,,,,,,,,,,,,,,,,,,,,,,,,,,,,,,,,,,,,
,,6646052f36c0bd14aafa0f0f,66fc98f5141f86454daa7cf4,2024-10-02_02h51.43.028,mdp,2024.2.1,Win32,142.8571429,66fa4ebf79326e780c390304,,,,,,,,,,,,,,,,,,,,,1473.152,1473.152,1473.153,1473.742,0,0,left,0.083,,1473.744,1473.744,1,0,,1473.745,1473.745,1,0,,1,1473.745,1473.745,1473.745,1475.242,0,13,13,13,1,0.8,0.2,0.2,0.8,1,0,,,,,,,,,,,,,,,,,,,,,,,,,,,,,,,,,,,,
,,6646052f36c0bd14aafa0f0f,66fc98f5141f86454daa7cf4,2024-10-02_02h51.43.028,mdp,2024.2.1,Win32,142.8571429,66fa4ebf79326e780c390304,,,,,,,,,,,,,,,,,,,,,1475.243,1475.243,1475.244,1475.777,0,0,left,0.012,,1475.778,1475.779,1,0,,1475.779,1475.779,1,1,,1,1475.779,1475.779,1475.78,1477.277,0,14,14,14,1,0.8,0.2,0.2,0.8,1,0,,,,,,,,,,,,,,,,,,,,,,,,,,,,,,,,,,,,
,,6646052f36c0bd14aafa0f0f,66fc98f5141f86454daa7cf4,2024-10-02_02h51.43.028,mdp,2024.2.1,Win32,142.8571429,66fa4ebf79326e780c390304,,,,,,,,,,,,,,,,,,,,,1477.278,1477.278,1477.279,1477.915,0,0,left,0.126,,1477.917,1477.918,1,0,,1477.919,1477.919,1,0,,1,1477.919,1477.919,1477.92,1479.415,0,15,15,15,1,0.8,0.2,0.2,0.8,1,0,,,,,,,,,,,,,,,,,,,,,,,,,,,,,,,,,,,,
,,6646052f36c0bd14aafa0f0f,66fc98f5141f86454daa7cf4,2024-10-02_02h51.43.028,mdp,2024.2.1,Win32,142.8571429,66fa4ebf79326e780c390304,,,,,,,,,,,,,,,,,,,,,1479.416,1479.416,1479.417,1480.131,1,0,right,0.2,,1480.132,1480.133,1,1,,1480.133,1480.134,1,0,,1,1480.134,1480.134,1480.135,1481.63,0,16,16,16,1,0.4,0.6,0.6,0.4,1,0,,,,,,,,,,,,,,,,,,,,,,,,,,,,,,,,,,,,
,,6646052f36c0bd14aafa0f0f,66fc98f5141f86454daa7cf4,2024-10-02_02h51.43.028,mdp,2024.2.1,Win32,142.8571429,66fa4ebf79326e780c390304,,,,,,,,,,,,,,,,,,,,,1481.631,1481.631,1481.632,1482.301,0,0,left,0.166,,1482.303,1482.306,1,0,,1482.306,1482.307,1,1,,1,1482.307,1482.307,1482.308,1483.805,0,17,17,17,1,0.8,0.2,0.2,0.8,1,0,,,,,,,,,,,,,,,,,,,,,,,,,,,,,,,,,,,,
,,6646052f36c0bd14aafa0f0f,66fc98f5141f86454daa7cf4,2024-10-02_02h51.43.028,mdp,2024.2.1,Win32,142.8571429,66fa4ebf79326e780c390304,,,,,,,,,,,,,,,,,,,,,1483.805,1483.805,1483.807,1484.347,0,1,left,0.033,,1484.348,1484.351,1,1,,1484.352,1484.354,1,1,,0,1484.354,1484.354,1484.355,1485.854,0,18,18,18,1,0.2,0.8,0.6,0.4,1,0,,,,,,,,,,,,,,,,,,,,,,,,,,,,,,,,,,,,
,,6646052f36c0bd14aafa0f0f,66fc98f5141f86454daa7cf4,2024-10-02_02h51.43.028,mdp,2024.2.1,Win32,142.8571429,66fa4ebf79326e780c390304,,,,,,,,,,,,,,,,,,,,,1485.855,1485.855,1485.857,1486.688,0,1,left,0.321,,1486.689,1486.69,1,0,,1486.691,1486.693,1,0,,0,1486.693,1486.693,1486.693,1488.193,0,19,19,19,1,0.8,0.2,0.2,0.8,1,0,,,,,,,,,,,,,,,,,,,,,,,,,,,,,,,,,,,,
,,6646052f36c0bd14aafa0f0f,66fc98f5141f86454daa7cf4,2024-10-02_02h51.43.028,mdp,2024.2.1,Win32,142.8571429,66fa4ebf79326e780c390304,,,,,,,,,,,,,,,,,,,,,1488.194,1488.194,1488.195,1488.791,0,0,left,0.086,,1488.793,1488.794,1,0,,1488.795,1488.797,1,0,,1,1488.797,1488.797,1488.798,1490.298,0,20,20,20,1,0.8,0.2,0.2,0.8,1,0,,,,,,,,,,,,,,,,,,,,,,,,,,,,,,,,,,,,
,,6646052f36c0bd14aafa0f0f,66fc98f5141f86454daa7cf4,2024-10-02_02h51.43.028,mdp,2024.2.1,Win32,142.8571429,66fa4ebf79326e780c390304,,,,,,,,,,,,,,,,,,,,,1490.298,1490.298,1490.299,1491.186,1,0,right,0.378,,1491.188,1491.189,1,0,,1491.19,1491.191,1,0,,1,1491.191,1491.191,1491.191,1492.686,0,21,21,21,1,0.4,0.6,0.8,0.2,1,0,,,,,,,,,,,,,,,,,,,,,,,,,,,,,,,,,,,,
,,6646052f36c0bd14aafa0f0f,66fc98f5141f86454daa7cf4,2024-10-02_02h51.43.028,mdp,2024.2.1,Win32,142.8571429,66fa4ebf79326e780c390304,,,,,,,,,,,,,,,,,,,,,1492.687,1492.687,1492.688,1493.332,0,1,left,0.14,,1493.333,1493.334,1,0,,1493.335,1493.336,1,0,,0,1493.336,1493.336,1493.337,1494.833,0,22,22,22,1,0.4,0.6,0.8,0.2,1,0,,,,,,,,,,,,,,,,,,,,,,,,,,,,,,,,,,,,
,,6646052f36c0bd14aafa0f0f,66fc98f5141f86454daa7cf4,2024-10-02_02h51.43.028,mdp,2024.2.1,Win32,142.8571429,66fa4ebf79326e780c390304,,,,,,,,,,,,,,,,,,,,,1494.833,1494.833,1494.834,1495.528,0,0,left,0.192,,1495.529,1495.53,1,1,,1495.531,1495.532,1,1,,1,1495.532,1495.532,1495.533,1497.027,0,23,23,23,1,0.4,0.6,0.8,0.2,1,0,,,,,,,,,,,,,,,,,,,,,,,,,,,,,,,,,,,,
,,6646052f36c0bd14aafa0f0f,66fc98f5141f86454daa7cf4,2024-10-02_02h51.43.028,mdp,2024.2.1,Win32,142.8571429,66fa4ebf79326e780c390304,,,,,,,,,,,,,,,,,,,,,1497.027,1497.027,1497.029,1497.756,1,0,right,0.223,,1497.758,1497.758,1,1,,1497.759,1497.76,1,1,,1,1497.76,1497.76,1497.76,1499.256,0,24,24,24,1,0.6,0.4,0.2,0.8,1,0,,,,,,,,,,,,,,,,,,,,,,,,,,,,,,,,,,,,
,,6646052f36c0bd14aafa0f0f,66fc98f5141f86454daa7cf4,2024-10-02_02h51.43.028,mdp,2024.2.1,Win32,142.8571429,66fa4ebf79326e780c390304,,,,,,,,,,,,,,,,,,,,,1499.256,1499.256,1499.257,1499.855,0,0,left,0.087,,1499.857,1499.857,1,1,,1499.859,1499.859,1,0,,1,1499.859,1499.859,1499.861,1501.36,0,25,25,25,1,0.6,0.4,0.2,0.8,1,0,,,,,,,,,,,,,,,,,,,,,,,,,,,,,,,,,,,,
,,6646052f36c0bd14aafa0f0f,66fc98f5141f86454daa7cf4,2024-10-02_02h51.43.028,mdp,2024.2.1,Win32,142.8571429,66fa4ebf79326e780c390304,,,,,,,,,,,,,,,,,,,,,1501.361,1501.361,1501.361,1501.965,1,1,right,0.094,,1501.967,1501.969,1,1,,1501.97,1501.97,1,1,,0,1501.97,1501.97,1501.971,1503.466,0,26,26,26,1,0.6,0.4,0.2,0.8,1,0,,,,,,,,,,,,,,,,,,,,,,,,,,,,,,,,,,,,
,,6646052f36c0bd14aafa0f0f,66fc98f5141f86454daa7cf4,2024-10-02_02h51.43.028,mdp,2024.2.1,Win32,142.8571429,66fa4ebf79326e780c390304,,,,,,,,,,,,,,,,,,,,,1503.466,1503.466,1503.468,1504.118,1,1,right,0.14,,1504.118,1504.119,1,1,,1504.12,1504.121,1,1,,0,1504.121,1504.121,1504.121,1505.617,0,27,27,27,1,0.6,0.4,0.2,0.8,1,0,,,,,,,,,,,,,,,,,,,,,,,,,,,,,,,,,,,,
,,6646052f36c0bd14aafa0f0f,66fc98f5141f86454daa7cf4,2024-10-02_02h51.43.028,mdp,2024.2.1,Win32,142.8571429,66fa4ebf79326e780c390304,,,,,,,,,,,,,,,,,,,,,1505.618,1505.618,1505.619,1506.207,0,1,left,0.084,,1506.208,1506.21,1,0,,1506.21,1506.211,1,1,,0,1506.211,1506.211,1506.212,1507.708,0,28,28,28,1,0.2,0.8,0.8,0.2,1,0,,,,,,,,,,,,,,,,,,,,,,,,,,,,,,,,,,,,
,,6646052f36c0bd14aafa0f0f,66fc98f5141f86454daa7cf4,2024-10-02_02h51.43.028,mdp,2024.2.1,Win32,142.8571429,66fa4ebf79326e780c390304,,,,,,,,,,,,,,,,,,,,,1507.708,1507.708,1507.709,1508.541,0,1,left,0.32,,1508.542,1508.543,1,1,,1508.544,1508.545,1,1,,0,1508.545,1508.545,1508.546,1510.041,0,29,29,29,1,0.2,0.8,0.8,0.2,1,0,,,,,,,,,,,,,,,,,,,,,,,,,,,,,,,,,,,,
,,6646052f36c0bd14aafa0f0f,66fc98f5141f86454daa7cf4,2024-10-02_02h51.43.028,mdp,2024.2.1,Win32,142.8571429,66fa4ebf79326e780c390304,,,,,,,,,,,,,,,,,,,,,1510.041,1510.041,1510.043,1510.889,0,1,left,0.344,,1510.89,1510.891,1,1,,1510.892,1510.892,1,0,,0,1510.892,1510.892,1510.894,1512.388,0,30,30,30,1,0.2,0.8,0.8,0.2,1,0,,,,,,,,,,,,,,,,,,,,,,,,,,,,,,,,,,,,
,,6646052f36c0bd14aafa0f0f,66fc98f5141f86454daa7cf4,2024-10-02_02h51.43.028,mdp,2024.2.1,Win32,142.8571429,66fa4ebf79326e780c390304,,,,,,,,,,,,,,,,,,,,,1512.389,1512.389,1512.39,1513.077,0,1,left,0.17,,1513.079,1513.08,1,1,,1513.081,1513.082,1,1,,0,1513.082,1513.082,1513.082,1514.582,0,31,31,31,1,0.2,0.8,0.8,0.2,1,0,,,,,,,,,,,,,,,,,,,,,,,,,,,,,,,,,,,,
,,6646052f36c0bd14aafa0f0f,66fc98f5141f86454daa7cf4,2024-10-02_02h51.43.028,mdp,2024.2.1,Win32,142.8571429,66fa4ebf79326e780c390304,,,,,,,,,,,,,,,,,,,,,1514.583,1514.583,1514.585,1515.256,1,0,right,0.161,,1515.257,1515.259,1,0,,1515.259,1515.26,1,0,,1,1515.26,1515.26,1515.26,1516.756,0,32,32,32,1,0.2,0.8,0.8,0.2,1,0,,,,,,,,,,,,,,,,,,,,,,,,,,,,,,,,,,,,
,,6646052f36c0bd14aafa0f0f,66fc98f5141f86454daa7cf4,2024-10-02_02h51.43.028,mdp,2024.2.1,Win32,142.8571429,66fa4ebf79326e780c390304,,,,,,,,,,,,,,,,,,,,,1516.756,1516.756,1516.757,1517.312,1,0,right,0.042,,1517.313,1517.314,1,0,,1517.315,1517.315,1,0,,1,1517.315,1517.315,1517.316,1518.811,0,33,33,33,1,0.2,0.8,0.8,0.2,1,0,,,,,,,,,,,,,,,,,,,,,,,,,,,,,,,,,,,,
,,6646052f36c0bd14aafa0f0f,66fc98f5141f86454daa7cf4,2024-10-02_02h51.43.028,mdp,2024.2.1,Win32,142.8571429,66fa4ebf79326e780c390304,,,,,,,,,,,,,,,,,,,,,1518.812,1518.812,1518.813,1519.534,1,1,right,0.217,,1519.535,1519.536,1,1,,1519.536,1519.538,1,1,,0,1519.538,1519.538,1519.538,1521.034,0,34,34,34,1,0.8,0.2,0.2,0.8,1,0,,,,,,,,,,,,,,,,,,,,,,,,,,,,,,,,,,,,
,,6646052f36c0bd14aafa0f0f,66fc98f5141f86454daa7cf4,2024-10-02_02h51.43.028,mdp,2024.2.1,Win32,142.8571429,66fa4ebf79326e780c390304,,,,,,,,,,,,,,,,,,,,,1521.035,1521.035,1521.036,1521.702,0,1,left,0.158,,1521.703,1521.704,1,1,,1521.705,1521.705,1,1,,0,1521.705,1521.705,1521.706,1523.2,0,35,35,35,1,0.8,0.2,0.2,0.8,1,0,,,,,,,,,,,,,,,,,,,,,,,,,,,,,,,,,,,,
,,6646052f36c0bd14aafa0f0f,66fc98f5141f86454daa7cf4,2024-10-02_02h51.43.028,mdp,2024.2.1,Win32,142.8571429,66fa4ebf79326e780c390304,,,,,,,,,,,,,,,,,,,,,1523.201,1523.201,1523.201,1524.207,0,1,left,0.501,,1524.209,1524.209,1,0,,1524.21,1524.21,1,0,,0,1524.21,1524.21,1524.213,1525.707,0,36,36,36,1,0.8,0.2,0.2,0.8,1,0,,,,,,,,,,,,,,,,,,,,,,,,,,,,,,,,,,,,
,,6646052f36c0bd14aafa0f0f,66fc98f5141f86454daa7cf4,2024-10-02_02h51.43.028,mdp,2024.2.1,Win32,142.8571429,66fa4ebf79326e780c390304,,,,,,,,,,,,,,,,,,,,,1525.708,1525.708,1525.71,1526.29,1,0,right,0.078,,1526.293,1526.293,1,1,,1526.294,1526.294,1,1,,1,1526.294,1526.294,1526.295,1527.787,0,37,37,37,1,0.2,0.8,0.8,0.2,1,0,,,,,,,,,,,,,,,,,,,,,,,,,,,,,,,,,,,,
,,6646052f36c0bd14aafa0f0f,66fc98f5141f86454daa7cf4,2024-10-02_02h51.43.028,mdp,2024.2.1,Win32,142.8571429,66fa4ebf79326e780c390304,,,,,,,,,,,,,,,,,,,,,1527.788,1527.788,1527.789,1528.561,1,0,right,0.266,,1528.563,1528.564,1,0,,1528.564,1528.565,1,0,,1,1528.565,1528.565,1528.565,1530.062,0,38,38,38,1,0.2,0.8,0.8,0.2,1,0,,,,,,,,,,,,,,,,,,,,,,,,,,,,,,,,,,,,
,,6646052f36c0bd14aafa0f0f,66fc98f5141f86454daa7cf4,2024-10-02_02h51.43.028,mdp,2024.2.1,Win32,142.8571429,66fa4ebf79326e780c390304,,,,,,,,,,,,,,,,,,,,,1530.062,1530.062,1530.063,1530.646,1,0,right,0.077,,1530.647,1530.648,1,0,,1530.65,1530.651,1,0,,1,1530.651,1530.651,1530.651,1532.152,0,39,39,39,1,0.2,0.8,0.8,0.2,1,0,,,,,,,,,,,,,,,,,,,,,,,,,,,,,,,,,,,,
,,6646052f36c0bd14aafa0f0f,66fc98f5141f86454daa7cf4,2024-10-02_02h51.43.028,mdp,2024.2.1,Win32,142.8571429,66fa4ebf79326e780c390304,,,,,,,,,,,,,,,,,,,,,1532.153,1532.153,1532.155,1533.105,1,0,right,0.439,,1533.106,1533.107,1,0,,1533.108,1533.109,1,0,,1,1533.109,1533.109,1533.111,1534.605,0,40,40,40,1,0.2,0.8,0.8,0.2,1,0,,,,,,,,,,,,,,,,,,,,,,,,,,,,,,,,,,,,
,,6646052f36c0bd14aafa0f0f,66fc98f5141f86454daa7cf4,2024-10-02_02h51.43.028,mdp,2024.2.1,Win32,142.8571429,66fa4ebf79326e780c390304,,,,,,,,,,,,,,,,,,,,,1534.605,1534.605,1534.607,1535.508,1,0,right,0.39,,1535.509,1535.51,1,1,,1535.511,1535.512,1,0,,1,1535.512,1535.512,1535.512,1537.012,0,41,41,41,1,0.2,0.8,0.8,0.2,1,0,,,,,,,,,,,,,,,,,,,,,,,,,,,,,,,,,,,,
,,6646052f36c0bd14aafa0f0f,66fc98f5141f86454daa7cf4,2024-10-02_02h51.43.028,mdp,2024.2.1,Win32,142.8571429,66fa4ebf79326e780c390304,,,,,,,,,,,,,,,,,,,,,1537.013,1537.013,1537.014,1537.753,1,0,right,0.235,,1537.754,1537.755,1,0,,1537.756,1537.758,1,0,,1,1537.758,1537.758,1537.758,1539.256,0,42,42,42,1,0.2,0.8,0.8,0.2,1,0,,,,,,,,,,,,,,,,,,,,,,,,,,,,,,,,,,,,
,,6646052f36c0bd14aafa0f0f,66fc98f5141f86454daa7cf4,2024-10-02_02h51.43.028,mdp,2024.2.1,Win32,142.8571429,66fa4ebf79326e780c390304,,,,,,,,,,,,,,,,,,,,,1539.256,1539.256,1539.258,1539.905,1,0,right,0.146,,1539.906,1539.907,1,0,,1539.908,1539.909,1,1,,1,1539.909,1539.909,1539.91,1541.405,0,43,43,43,1,0.8,0.2,0.4,0.6,1,0,,,,,,,,,,,,,,,,,,,,,,,,,,,,,,,,,,,,
,,6646052f36c0bd14aafa0f0f,66fc98f5141f86454daa7cf4,2024-10-02_02h51.43.028,mdp,2024.2.1,Win32,142.8571429,66fa4ebf79326e780c390304,,,,,,,,,,,,,,,,,,,,,1541.406,1541.406,1541.406,1542.096,1,1,right,0.183,,1542.097,1542.099,1,0,,1542.099,1542.099,1,1,,0,1542.099,1542.099,1542.101,1543.597,0,44,44,44,1,0.8,0.2,0.4,0.6,1,0,,,,,,,,,,,,,,,,,,,,,,,,,,,,,,,,,,,,
,,6646052f36c0bd14aafa0f0f,66fc98f5141f86454daa7cf4,2024-10-02_02h51.43.028,mdp,2024.2.1,Win32,142.8571429,66fa4ebf79326e780c390304,,,,,,,,,,,,,,,,,,,,,1543.597,1543.597,1543.597,1544.256,1,0,right,0.148,,1544.257,1544.258,1,0,,1544.259,1544.26,1,1,,1,1544.26,1544.26,1544.26,1545.756,0,45,45,45,1,0.6,0.4,0.8,0.2,1,0,,,,,,,,,,,,,,,,,,,,,,,,,,,,,,,,,,,,
,,6646052f36c0bd14aafa0f0f,66fc98f5141f86454daa7cf4,2024-10-02_02h51.43.028,mdp,2024.2.1,Win32,142.8571429,66fa4ebf79326e780c390304,,,,,,,,,,,,,,,,,,,,,1545.756,1545.756,1545.757,1546.472,1,1,right,0.211,,1546.473,1546.474,1,1,,1546.474,1546.476,1,1,,0,1546.476,1546.476,1546.476,1547.971,0,46,46,46,1,0.6,0.4,0.8,0.2,1,0,,,,,,,,,,,,,,,,,,,,,,,,,,,,,,,,,,,,
,,6646052f36c0bd14aafa0f0f,66fc98f5141f86454daa7cf4,2024-10-02_02h51.43.028,mdp,2024.2.1,Win32,142.8571429,66fa4ebf79326e780c390304,,,,,,,,,,,,,,,,,,,,,1547.972,1547.972,1547.973,1548.666,0,0,left,0.183,,1548.668,1548.669,1,1,,1548.67,1548.67,1,1,,1,1548.671,1548.671,1548.671,1550.173,0,47,47,47,1,0.6,0.4,0.8,0.2,1,0,,,,,,,,,,,,,,,,,,,,,,,,,,,,,,,,,,,,
,,6646052f36c0bd14aafa0f0f,66fc98f5141f86454daa7cf4,2024-10-02_02h51.43.028,mdp,2024.2.1,Win32,142.8571429,66fa4ebf79326e780c390304,,,,,,,,,,,,,,,,,,,,,1550.173,1550.173,1550.174,1550.874,0,1,left,0.196,,1550.875,1550.875,1,1,,1550.876,1550.876,1,0,,0,1550.876,1550.876,1550.877,1552.375,0,48,48,48,1,0.6,0.4,0.8,0.2,1,0,,,,,,,,,,,,,,,,,,,,,,,,,,,,,,,,,,,,
,,6646052f36c0bd14aafa0f0f,66fc98f5141f86454daa7cf4,2024-10-02_02h51.43.028,mdp,2024.2.1,Win32,142.8571429,66fa4ebf79326e780c390304,,,,,,,,,,,,,,,,,,,,,1552.375,1552.375,1552.377,1552.909,1,0,right,0.024,,1552.91,1552.911,1,0,,1552.911,1552.912,1,0,,1,1552.913,1552.913,1552.914,1554.409,0,49,49,49,1,0.6,0.4,0.8,0.2,1,0,,,,,,,,,,,,,,,,,,,,,,,,,,,,,,,,,,,,
