init_exp.started,init_exp.stopped,participant,session,date,expName,psychopyVersion,OS,frameRate,study_id,disp_instruction.started,disp_instruction.stopped,instruction.thisRepN,instruction.thisTrialN,instruction.thisN,instruction.thisIndex,instruction.ran,instimg_path,consent.started,consent.stopped,key_resp_3.keys,key_resp_3.rt,key_resp_3.duration,n_steps,sequence_path,init_block.started,init_block.stopped,key_resp.keys,key_resp.rt,key_resp.duration,init_trials.started,init_trials.stopped,step0.started,step0.stopped,act0,s1,res0.keys,res0.rt,res0.duration,step1.started,step1.stopped,act1,s2,res1.keys,step2.started,step2.stopped,act2,s3,res2.keys,rew,reward_comp.started,reward_comp.stopped,reward_disp.started,reward_disp.stopped,trials.thisRepN,trials.thisTrialN,trials.thisN,trials.thisIndex,trials.ran,s00a0s10,s00a0s11,s00a1s10,s00a1s11,rew10,rew11,break_block.started,break_block.stopped,block.thisRepN,block.thisTrialN,block.thisN,block.thisIndex,block.ran,s00path,s10path,s11path,s20path,s21path,res1.rt,res1.duration,s10a0s20,s10a0s21,s10a1s20,s10a1s21,s11a0s20,s11a0s21,s11a1s20,s11a1s21,rew20,rew21,res2.rt,res2.duration,s20a0s30,s20a0s31,s20a1s30,s20a1s31,s21a0s30,s21a0s31,s21a1s30,s21a1s31,rew30,rew31
0.0009,0.0101,664c9a37d570871d534dd3c2,66fcb86f91dea1675b35d97b,2024-10-02_06h07.48.448,mdp,2024.2.1,Win32,59.88023952,66fa4ebf79326e780c390304,,,,,,,,,,,,,,,,,,,,,,,,,,,,,,,,,,,,,,,,,,,,,,,,,,,,,,,,,,,,,,,,,,,,,,,,,,,,,,,,,,,,,,,,,,,
,,664c9a37d570871d534dd3c2,66fcb86f91dea1675b35d97b,2024-10-02_06h07.48.448,mdp,2024.2.1,Win32,59.88023952,66fa4ebf79326e780c390304,0.0274,119.1502,0,0,0,0,1,rlnn_exp/rlnn_exp.001.png,,,,,,,,,,,,,,,,,,,,,,,,,,,,,,,,,,,,,,,,,,,,,,,,,,,,,,,,,,,,,,,,,,,,,,,,,,,,,,,,,,,
,,664c9a37d570871d534dd3c2,66fcb86f91dea1675b35d97b,2024-10-02_06h07.48.448,mdp,2024.2.1,Win32,59.88023952,66fa4ebf79326e780c390304,119.1518,133.413,0,1,1,1,1,rlnn_exp/rlnn_exp.002.png,,,,,,,,,,,,,,,,,,,,,,,,,,,,,,,,,,,,,,,,,,,,,,,,,,,,,,,,,,,,,,,,,,,,,,,,,,,,,,,,,,,
,,664c9a37d570871d534dd3c2,66fcb86f91dea1675b35d97b,2024-10-02_06h07.48.448,mdp,2024.2.1,Win32,59.88023952,66fa4ebf79326e780c390304,133.4167,180.1819,0,2,2,2,1,rlnn_exp/rlnn_exp.003.png,,,,,,,,,,,,,,,,,,,,,,,,,,,,,,,,,,,,,,,,,,,,,,,,,,,,,,,,,,,,,,,,,,,,,,,,,,,,,,,,,,,
,,664c9a37d570871d534dd3c2,66fcb86f91dea1675b35d97b,2024-10-02_06h07.48.448,mdp,2024.2.1,Win32,59.88023952,66fa4ebf79326e780c390304,180.1846,199.1302,0,3,3,3,1,rlnn_exp/rlnn_exp.004.png,,,,,,,,,,,,,,,,,,,,,,,,,,,,,,,,,,,,,,,,,,,,,,,,,,,,,,,,,,,,,,,,,,,,,,,,,,,,,,,,,,,
,,664c9a37d570871d534dd3c2,66fcb86f91dea1675b35d97b,2024-10-02_06h07.48.448,mdp,2024.2.1,Win32,59.88023952,66fa4ebf79326e780c390304,,,,,,,,,199.1313,220.7268,y,11.557,,,,,,,,,,,,,,,,,,,,,,,,,,,,,,,,,,,,,,,,,,,,,,,,,,,,,,,,,,,,,,,,,,,,,,,,,,,,,,,
,,664c9a37d570871d534dd3c2,66fcb86f91dea1675b35d97b,2024-10-02_06h07.48.448,mdp,2024.2.1,Win32,59.88023952,66fa4ebf79326e780c390304,,,,,,,,,,,,,,1,seqs/st1seq7.csv,220.741,224.2066,space,2.9497,,224.2174,224.2177,224.2187,225.489,1,0,right,0.7228,,225.4913,225.4965,,0,,225.4975,225.5012,,1,,1,225.5015,225.5017,225.5029,227.0045,0,0,0,0,1,0.2,0.8,0.8,0.2,1,0,,,,,,,,,,,,,,,,,,,,,,,,,,,,,,,,,,,,
,,664c9a37d570871d534dd3c2,66fcb86f91dea1675b35d97b,2024-10-02_06h07.48.448,mdp,2024.2.1,Win32,59.88023952,66fa4ebf79326e780c390304,,,,,,,,,,,,,,,,,,,,,227.0063,227.0067,227.0099,228.3022,1,0,right,0.7721,,228.3057,228.3081,,0,,228.3104,228.3125,,1,,1,228.313,228.313,228.3165,229.8174,0,1,1,1,1,0.2,0.8,0.8,0.2,1,0,,,,,,,,,,,,,,,,,,,,,,,,,,,,,,,,,,,,
,,664c9a37d570871d534dd3c2,66fcb86f91dea1675b35d97b,2024-10-02_06h07.48.448,mdp,2024.2.1,Win32,59.88023952,66fa4ebf79326e780c390304,,,,,,,,,,,,,,,,,,,,,229.8187,229.8187,229.8231,233.5972,1,0,right,3.248,,233.6011,233.6045,,0,,233.6067,233.6084,,1,,1,233.6084,233.6085,233.61,235.1125,0,2,2,2,1,0.2,0.8,0.8,0.2,1,0,,,,,,,,,,,,,,,,,,,,,,,,,,,,,,,,,,,,
,,664c9a37d570871d534dd3c2,66fcb86f91dea1675b35d97b,2024-10-02_06h07.48.448,mdp,2024.2.1,Win32,59.88023952,66fa4ebf79326e780c390304,,,,,,,,,,,,,,,,,,,,,235.1136,235.1137,235.1176,236.5277,1,1,right,0.8842,,236.5307,236.533,,0,,236.5355,236.5371,,0,,0,236.5372,236.5373,236.5387,238.0269,0,3,3,3,1,0.2,0.8,0.8,0.2,1,0,,,,,,,,,,,,,,,,,,,,,,,,,,,,,,,,,,,,
,,664c9a37d570871d534dd3c2,66fcb86f91dea1675b35d97b,2024-10-02_06h07.48.448,mdp,2024.2.1,Win32,59.88023952,66fa4ebf79326e780c390304,,,,,,,,,,,,,,,,,,,,,238.0282,238.0283,238.0315,242.3227,0,1,left,3.7632,,242.3261,242.3278,,1,,242.3304,242.3321,,1,,0,242.3322,242.3323,242.3337,243.8212,0,4,4,4,1,0.2,0.8,0.8,0.2,1,0,,,,,,,,,,,,,,,,,,,,,,,,,,,,,,,,,,,,
,,664c9a37d570871d534dd3c2,66fcb86f91dea1675b35d97b,2024-10-02_06h07.48.448,mdp,2024.2.1,Win32,59.88023952,66fa4ebf79326e780c390304,,,,,,,,,,,,,,,,,,,,,243.8227,243.8228,243.8265,244.8204,1,1,right,0.4675,,244.8242,244.8259,,1,,244.8287,244.8303,,0,,0,244.8305,244.8305,244.8323,246.3188,0,5,5,5,1,0.6,0.4,0.2,0.8,1,0,,,,,,,,,,,,,,,,,,,,,,,,,,,,,,,,,,,,
,,664c9a37d570871d534dd3c2,66fcb86f91dea1675b35d97b,2024-10-02_06h07.48.448,mdp,2024.2.1,Win32,59.88023952,66fa4ebf79326e780c390304,,,,,,,,,,,,,,,,,,,,,246.3203,246.3204,246.3239,247.3512,0,1,left,0.5009,,247.3547,247.3564,,1,,247.359,247.3606,,1,,0,247.3607,247.3607,247.3622,248.8494,0,6,6,6,1,0.6,0.4,0.2,0.8,1,0,,,,,,,,,,,,,,,,,,,,,,,,,,,,,,,,,,,,
,,664c9a37d570871d534dd3c2,66fcb86f91dea1675b35d97b,2024-10-02_06h07.48.448,mdp,2024.2.1,Win32,59.88023952,66fa4ebf79326e780c390304,,,,,,,,,,,,,,,,,,,,,248.8506,248.8506,248.855,249.8983,1,1,right,0.5201,,249.9012,249.9033,,1,,249.9057,249.9072,,0,,0,249.9072,249.9073,249.9087,251.3972,0,7,7,7,1,0.6,0.4,0.2,0.8,1,0,,,,,,,,,,,,,,,,,,,,,,,,,,,,,,,,,,,,
,,664c9a37d570871d534dd3c2,66fcb86f91dea1675b35d97b,2024-10-02_06h07.48.448,mdp,2024.2.1,Win32,59.88023952,66fa4ebf79326e780c390304,,,,,,,,,,,,,,,,,,,,,251.3988,251.399,251.402,252.3986,0,1,left,0.4724,,252.4012,252.4034,,0,,252.4055,252.4069,,1,,0,252.407,252.4071,252.4088,253.9116,0,8,8,8,1,0.6,0.4,0.2,0.8,1,0,,,,,,,,,,,,,,,,,,,,,,,,,,,,,,,,,,,,
,,664c9a37d570871d534dd3c2,66fcb86f91dea1675b35d97b,2024-10-02_06h07.48.448,mdp,2024.2.1,Win32,59.88023952,66fa4ebf79326e780c390304,,,,,,,,,,,,,,,,,,,,,253.913,253.9131,253.916,254.9436,1,1,right,0.501,,254.9472,254.949,,1,,254.9518,254.9534,,1,,0,254.9536,254.9536,254.9553,256.4423,0,9,9,9,1,0.6,0.4,0.2,0.8,1,0,,,,,,,,,,,,,,,,,,,,,,,,,,,,,,,,,,,,
,,664c9a37d570871d534dd3c2,66fcb86f91dea1675b35d97b,2024-10-02_06h07.48.448,mdp,2024.2.1,Win32,59.88023952,66fa4ebf79326e780c390304,,,,,,,,,,,,,,,,,,,,,256.4439,256.444,256.447,257.4412,0,1,left,0.4665,,257.4453,257.4472,,0,,257.4495,257.4508,,1,,0,257.451,257.451,257.4524,258.9402,0,10,10,10,1,0.4,0.6,0.8,0.2,1,0,,,,,,,,,,,,,,,,,,,,,,,,,,,,,,,,,,,,
,,664c9a37d570871d534dd3c2,66fcb86f91dea1675b35d97b,2024-10-02_06h07.48.448,mdp,2024.2.1,Win32,59.88023952,66fa4ebf79326e780c390304,,,,,,,,,,,,,,,,,,,,,258.9415,258.9416,258.9443,260.0887,1,0,right,0.6178,,260.0925,260.0944,,1,,260.0967,260.0986,,1,,1,260.0987,260.0987,260.1004,261.5877,0,11,11,11,1,0.4,0.6,0.8,0.2,1,0,,,,,,,,,,,,,,,,,,,,,,,,,,,,,,,,,,,,
,,664c9a37d570871d534dd3c2,66fcb86f91dea1675b35d97b,2024-10-02_06h07.48.448,mdp,2024.2.1,Win32,59.88023952,66fa4ebf79326e780c390304,,,,,,,,,,,,,,,,,,,,,261.5888,261.5891,261.5921,262.8052,1,0,right,0.6829,,262.8084,262.8109,,1,,262.8128,262.8143,,0,,1,262.8143,262.8144,262.8159,264.3182,0,12,12,12,1,0.4,0.6,0.8,0.2,1,0,,,,,,,,,,,,,,,,,,,,,,,,,,,,,,,,,,,,
,,664c9a37d570871d534dd3c2,66fcb86f91dea1675b35d97b,2024-10-02_06h07.48.448,mdp,2024.2.1,Win32,59.88023952,66fa4ebf79326e780c390304,,,,,,,,,,,,,,,,,,,,,264.3197,264.3199,264.3228,265.4169,1,0,right,0.5676,,265.4208,265.4231,,0,,265.4254,265.4267,,0,,1,265.4268,265.4268,265.4282,266.9157,0,13,13,13,1,0.4,0.6,0.8,0.2,1,0,,,,,,,,,,,,,,,,,,,,,,,,,,,,,,,,,,,,
,,664c9a37d570871d534dd3c2,66fcb86f91dea1675b35d97b,2024-10-02_06h07.48.448,mdp,2024.2.1,Win32,59.88023952,66fa4ebf79326e780c390304,,,,,,,,,,,,,,,,,,,,,266.9174,266.9174,266.9204,267.9982,1,0,right,0.5514,,268.0017,268.0033,,0,,268.0056,268.0069,,0,,1,268.007,268.007,268.0084,269.4967,0,14,14,14,1,0.4,0.6,0.8,0.2,1,0,,,,,,,,,,,,,,,,,,,,,,,,,,,,,,,,,,,,
,,664c9a37d570871d534dd3c2,66fcb86f91dea1675b35d97b,2024-10-02_06h07.48.448,mdp,2024.2.1,Win32,59.88023952,66fa4ebf79326e780c390304,,,,,,,,,,,,,,,,,,,,,269.498,269.4982,269.5011,270.7119,1,1,right,0.686,,270.7157,270.7172,,0,,270.7199,270.7212,,1,,0,270.7214,270.7214,270.7228,272.2107,0,15,15,15,1,0.4,0.6,0.8,0.2,1,0,,,,,,,,,,,,,,,,,,,,,,,,,,,,,,,,,,,,
,,664c9a37d570871d534dd3c2,66fcb86f91dea1675b35d97b,2024-10-02_06h07.48.448,mdp,2024.2.1,Win32,59.88023952,66fa4ebf79326e780c390304,,,,,,,,,,,,,,,,,,,,,272.2122,272.2124,272.2155,273.2262,0,1,left,0.486,,273.2302,273.2319,,1,,273.2343,273.236,,0,,0,273.236,273.236,273.2379,274.725,0,16,16,16,1,0.4,0.6,0.8,0.2,1,0,,,,,,,,,,,,,,,,,,,,,,,,,,,,,,,,,,,,
,,664c9a37d570871d534dd3c2,66fcb86f91dea1675b35d97b,2024-10-02_06h07.48.448,mdp,2024.2.1,Win32,59.88023952,66fa4ebf79326e780c390304,,,,,,,,,,,,,,,,,,,,,274.7265,274.7266,274.7297,275.6407,1,0,right,0.385,,275.6447,275.6465,,0,,275.6492,275.6509,,1,,1,275.6509,275.6509,275.653,277.1392,0,17,17,17,1,0.4,0.6,0.8,0.2,1,0,,,,,,,,,,,,,,,,,,,,,,,,,,,,,,,,,,,,
,,664c9a37d570871d534dd3c2,66fcb86f91dea1675b35d97b,2024-10-02_06h07.48.448,mdp,2024.2.1,Win32,59.88023952,66fa4ebf79326e780c390304,,,,,,,,,,,,,,,,,,,,,277.1407,277.1409,277.1438,278.2887,1,1,right,0.617,,278.293,278.296,,0,,278.2982,278.3001,,0,,0,278.3002,278.3003,278.3031,279.8029,0,18,18,18,1,0.4,0.6,0.8,0.2,1,0,,,,,,,,,,,,,,,,,,,,,,,,,,,,,,,,,,,,
,,664c9a37d570871d534dd3c2,66fcb86f91dea1675b35d97b,2024-10-02_06h07.48.448,mdp,2024.2.1,Win32,59.88023952,66fa4ebf79326e780c390304,,,,,,,,,,,,,,,,,,,,,279.8042,279.8043,279.808,280.9186,0,0,left,0.5809,,280.922,280.924,,0,,280.9267,280.928,,1,,1,280.9282,280.9282,280.9297,282.417,0,19,19,19,1,0.6,0.4,0.2,0.8,1,0,,,,,,,,,,,,,,,,,,,,,,,,,,,,,,,,,,,,
,,664c9a37d570871d534dd3c2,66fcb86f91dea1675b35d97b,2024-10-02_06h07.48.448,mdp,2024.2.1,Win32,59.88023952,66fa4ebf79326e780c390304,,,,,,,,,,,,,,,,,,,,,282.4182,282.4183,282.4214,283.4661,0,0,left,0.5144,,283.4698,283.4723,,0,,283.475,283.4768,,0,,1,283.4769,283.4769,283.4785,284.9812,0,20,20,20,1,0.8,0.2,0.4,0.6,1,0,,,,,,,,,,,,,,,,,,,,,,,,,,,,,,,,,,,,
,,664c9a37d570871d534dd3c2,66fcb86f91dea1675b35d97b,2024-10-02_06h07.48.448,mdp,2024.2.1,Win32,59.88023952,66fa4ebf79326e780c390304,,,,,,,,,,,,,,,,,,,,,284.9822,284.9822,284.9861,286.1483,1,1,right,0.6409,,286.1518,286.1534,,1,,286.1553,286.157,,1,,0,286.1571,286.1572,286.159,287.6452,0,21,21,21,1,0.8,0.2,0.4,0.6,1,0,,,,,,,,,,,,,,,,,,,,,,,,,,,,,,,,,,,,
,,664c9a37d570871d534dd3c2,66fcb86f91dea1675b35d97b,2024-10-02_06h07.48.448,mdp,2024.2.1,Win32,59.88023952,66fa4ebf79326e780c390304,,,,,,,,,,,,,,,,,,,,,287.6468,287.6468,287.6515,288.8277,0,1,left,0.6534,,288.8306,288.833,,1,,288.8357,288.8371,,0,,0,288.8371,288.8371,288.8386,290.3263,0,22,22,22,1,0.4,0.6,0.8,0.2,1,0,,,,,,,,,,,,,,,,,,,,,,,,,,,,,,,,,,,,
,,664c9a37d570871d534dd3c2,66fcb86f91dea1675b35d97b,2024-10-02_06h07.48.448,mdp,2024.2.1,Win32,59.88023952,66fa4ebf79326e780c390304,,,,,,,,,,,,,,,,,,,,,290.3275,290.3275,290.331,291.4255,1,1,right,0.5647,,291.4292,291.431,,0,,291.4332,291.4345,,0,,0,291.4346,291.4346,291.4361,292.9236,0,23,23,23,1,0.4,0.6,0.8,0.2,1,0,,,,,,,,,,,,,,,,,,,,,,,,,,,,,,,,,,,,
,,664c9a37d570871d534dd3c2,66fcb86f91dea1675b35d97b,2024-10-02_06h07.48.448,mdp,2024.2.1,Win32,59.88023952,66fa4ebf79326e780c390304,,,,,,,,,,,,,,,,,,,,,292.9245,292.9248,292.9279,294.0062,0,1,left,0.55,,294.0096,294.0118,,0,,294.0143,294.0157,,1,,0,294.0158,294.0158,294.0173,295.5048,0,24,24,24,1,0.4,0.6,0.8,0.2,1,0,,,,,,,,,,,,,,,,,,,,,,,,,,,,,,,,,,,,
,,664c9a37d570871d534dd3c2,66fcb86f91dea1675b35d97b,2024-10-02_06h07.48.448,mdp,2024.2.1,Win32,59.88023952,66fa4ebf79326e780c390304,,,,,,,,,,,,,,,,,,,,,295.5061,295.5061,295.5102,296.4537,0,0,left,0.4166,,296.4571,296.459,,0,,296.4617,296.463,,0,,1,296.4631,296.4631,296.4645,297.9523,0,25,25,25,1,0.4,0.6,0.8,0.2,1,0,,,,,,,,,,,,,,,,,,,,,,,,,,,,,,,,,,,,
,,664c9a37d570871d534dd3c2,66fcb86f91dea1675b35d97b,2024-10-02_06h07.48.448,mdp,2024.2.1,Win32,59.88023952,66fa4ebf79326e780c390304,,,,,,,,,,,,,,,,,,,,,297.9536,297.9536,297.9572,299.4343,0,0,left,0.951,,299.4374,299.4398,,1,,299.4424,299.4442,,0,,1,299.4443,299.4443,299.4458,300.9327,0,26,26,26,1,0.4,0.6,0.8,0.2,1,0,,,,,,,,,,,,,,,,,,,,,,,,,,,,,,,,,,,,
,,664c9a37d570871d534dd3c2,66fcb86f91dea1675b35d97b,2024-10-02_06h07.48.448,mdp,2024.2.1,Win32,59.88023952,66fa4ebf79326e780c390304,,,,,,,,,,,,,,,,,,,,,300.9338,300.934,300.9375,301.9319,0,1,left,0.4689,,301.9357,301.938,,1,,301.9403,301.9419,,1,,0,301.9421,301.9421,301.9436,303.4302,0,27,27,27,1,0.4,0.6,0.8,0.2,1,0,,,,,,,,,,,,,,,,,,,,,,,,,,,,,,,,,,,,
,,664c9a37d570871d534dd3c2,66fcb86f91dea1675b35d97b,2024-10-02_06h07.48.448,mdp,2024.2.1,Win32,59.88023952,66fa4ebf79326e780c390304,,,,,,,,,,,,,,,,,,,,,303.4312,303.4312,303.4348,304.4792,1,0,right,0.5203,,304.4825,304.485,,1,,304.4873,304.4886,,0,,1,304.4887,304.4887,304.4901,305.9778,0,28,28,28,1,0.4,0.6,0.8,0.2,1,0,,,,,,,,,,,,,,,,,,,,,,,,,,,,,,,,,,,,
,,664c9a37d570871d534dd3c2,66fcb86f91dea1675b35d97b,2024-10-02_06h07.48.448,mdp,2024.2.1,Win32,59.88023952,66fa4ebf79326e780c390304,,,,,,,,,,,,,,,,,,,,,305.9787,305.979,305.9824,306.9937,1,1,right,0.4847,,306.997,306.999,,0,,307.0019,307.0032,,0,,0,307.0033,307.0033,307.0047,308.492,0,29,29,29,1,0.4,0.6,0.8,0.2,1,0,,,,,,,,,,,,,,,,,,,,,,,,,,,,,,,,,,,,
,,664c9a37d570871d534dd3c2,66fcb86f91dea1675b35d97b,2024-10-02_06h07.48.448,mdp,2024.2.1,Win32,59.88023952,66fa4ebf79326e780c390304,,,,,,,,,,,,,,,,,,,,,308.493,308.4933,308.4969,309.4245,0,0,left,0.4009,,309.4279,309.43,,0,,309.4322,309.4337,,0,,1,309.4337,309.4337,309.4352,310.9233,0,30,30,30,1,0.8,0.2,0.6,0.4,1,0,,,,,,,,,,,,,,,,,,,,,,,,,,,,,,,,,,,,
,,664c9a37d570871d534dd3c2,66fcb86f91dea1675b35d97b,2024-10-02_06h07.48.448,mdp,2024.2.1,Win32,59.88023952,66fa4ebf79326e780c390304,,,,,,,,,,,,,,,,,,,,,310.9244,310.9244,310.9282,311.8388,0,1,left,0.3796,,311.8422,311.8444,,0,,311.847,311.8485,,0,,0,311.8487,311.8487,311.8502,313.3373,0,31,31,31,1,0.6,0.4,0.4,0.6,1,0,,,,,,,,,,,,,,,,,,,,,,,,,,,,,,,,,,,,
,,664c9a37d570871d534dd3c2,66fcb86f91dea1675b35d97b,2024-10-02_06h07.48.448,mdp,2024.2.1,Win32,59.88023952,66fa4ebf79326e780c390304,,,,,,,,,,,,,,,,,,,,,313.3384,313.3387,313.3422,314.2533,0,0,left,0.3816,,314.2567,314.2587,,0,,314.2614,314.2629,,0,,1,314.263,314.263,314.2647,315.7522,0,32,32,32,1,0.6,0.4,0.4,0.6,1,0,,,,,,,,,,,,,,,,,,,,,,,,,,,,,,,,,,,,
,,664c9a37d570871d534dd3c2,66fcb86f91dea1675b35d97b,2024-10-02_06h07.48.448,mdp,2024.2.1,Win32,59.88023952,66fa4ebf79326e780c390304,,,,,,,,,,,,,,,,,,,,,315.7531,315.7533,315.7568,317.3337,1,0,right,1.0539,,317.3378,317.341,,0,,317.3431,317.3445,,0,,1,317.3445,317.3445,317.3459,318.8488,0,33,33,33,1,0.6,0.4,0.4,0.6,1,0,,,,,,,,,,,,,,,,,,,,,,,,,,,,,,,,,,,,
,,664c9a37d570871d534dd3c2,66fcb86f91dea1675b35d97b,2024-10-02_06h07.48.448,mdp,2024.2.1,Win32,59.88023952,66fa4ebf79326e780c390304,,,,,,,,,,,,,,,,,,,,,318.8498,318.8502,318.8536,319.8481,1,1,right,0.4677,,319.8516,319.8535,,0,,319.8559,319.8572,,0,,0,319.8573,319.8574,319.8587,321.3464,0,34,34,34,1,0.6,0.4,0.4,0.6,1,0,,,,,,,,,,,,,,,,,,,,,,,,,,,,,,,,,,,,
,,664c9a37d570871d534dd3c2,66fcb86f91dea1675b35d97b,2024-10-02_06h07.48.448,mdp,2024.2.1,Win32,59.88023952,66fa4ebf79326e780c390304,,,,,,,,,,,,,,,,,,,,,321.3474,321.3476,321.3516,322.3621,0,1,left,0.4843,,322.3655,322.3676,,0,,322.37,322.3715,,0,,0,322.3716,322.3716,322.373,323.8607,0,35,35,35,1,0.6,0.4,0.4,0.6,1,0,,,,,,,,,,,,,,,,,,,,,,,,,,,,,,,,,,,,
,,664c9a37d570871d534dd3c2,66fcb86f91dea1675b35d97b,2024-10-02_06h07.48.448,mdp,2024.2.1,Win32,59.88023952,66fa4ebf79326e780c390304,,,,,,,,,,,,,,,,,,,,,323.8616,323.862,323.8656,325.1263,1,1,right,0.7345,,325.1292,325.1318,,1,,325.1343,325.1359,,1,,0,325.1361,325.1361,325.1376,326.6247,0,36,36,36,1,0.6,0.4,0.4,0.6,1,0,,,,,,,,,,,,,,,,,,,,,,,,,,,,,,,,,,,,
,,664c9a37d570871d534dd3c2,66fcb86f91dea1675b35d97b,2024-10-02_06h07.48.448,mdp,2024.2.1,Win32,59.88023952,66fa4ebf79326e780c390304,,,,,,,,,,,,,,,,,,,,,326.6261,326.6261,326.6298,327.5571,0,0,left,0.4044,,327.5611,327.5634,,0,,327.5657,327.567,,0,,1,327.5671,327.5671,327.5686,329.0557,0,37,37,37,1,0.6,0.4,0.4,0.6,1,0,,,,,,,,,,,,,,,,,,,,,,,,,,,,,,,,,,,,
,,664c9a37d570871d534dd3c2,66fcb86f91dea1675b35d97b,2024-10-02_06h07.48.448,mdp,2024.2.1,Win32,59.88023952,66fa4ebf79326e780c390304,,,,,,,,,,,,,,,,,,,,,329.057,329.057,329.0604,330.0548,0,1,left,0.4692,,330.0583,330.0604,,0,,330.0627,330.0641,,0,,0,330.0642,330.0642,330.0655,331.5533,0,38,38,38,1,0.6,0.4,0.4,0.6,1,0,,,,,,,,,,,,,,,,,,,,,,,,,,,,,,,,,,,,
,,664c9a37d570871d534dd3c2,66fcb86f91dea1675b35d97b,2024-10-02_06h07.48.448,mdp,2024.2.1,Win32,59.88023952,66fa4ebf79326e780c390304,,,,,,,,,,,,,,,,,,,,,331.5542,331.5543,331.5582,332.5192,1,1,right,0.434,,332.5224,332.5245,,1,,332.5274,332.5288,,1,,0,332.5288,332.5289,332.5302,334.0176,0,39,39,39,1,0.6,0.4,0.4,0.6,1,0,,,,,,,,,,,,,,,,,,,,,,,,,,,,,,,,,,,,
,,664c9a37d570871d534dd3c2,66fcb86f91dea1675b35d97b,2024-10-02_06h07.48.448,mdp,2024.2.1,Win32,59.88023952,66fa4ebf79326e780c390304,,,,,,,,,,,,,,,,,,,,,334.0187,334.0187,334.0273,334.9834,1,1,right,0.4338,,334.9866,334.9888,,1,,334.9912,334.9927,,1,,0,334.9928,334.9928,334.9945,336.4821,0,40,40,40,1,0.6,0.4,0.4,0.6,1,0,,,,,,,,,,,,,,,,,,,,,,,,,,,,,,,,,,,,
,,664c9a37d570871d534dd3c2,66fcb86f91dea1675b35d97b,2024-10-02_06h07.48.448,mdp,2024.2.1,Win32,59.88023952,66fa4ebf79326e780c390304,,,,,,,,,,,,,,,,,,,,,336.4835,336.4835,336.4868,337.4645,0,0,left,0.4483,,337.4674,337.4697,,0,,337.4721,337.4735,,0,,1,337.4736,337.4736,337.475,338.9631,0,41,41,41,1,0.6,0.4,0.4,0.6,1,0,,,,,,,,,,,,,,,,,,,,,,,,,,,,,,,,,,,,
,,664c9a37d570871d534dd3c2,66fcb86f91dea1675b35d97b,2024-10-02_06h07.48.448,mdp,2024.2.1,Win32,59.88023952,66fa4ebf79326e780c390304,,,,,,,,,,,,,,,,,,,,,338.9644,338.9644,338.968,339.9786,0,0,left,0.4818,,339.9819,339.9839,,0,,339.9863,339.9877,,1,,1,339.9879,339.9879,339.9892,341.4771,0,42,42,42,1,0.6,0.4,0.4,0.6,1,0,,,,,,,,,,,,,,,,,,,,,,,,,,,,,,,,,,,,
,,664c9a37d570871d534dd3c2,66fcb86f91dea1675b35d97b,2024-10-02_06h07.48.448,mdp,2024.2.1,Win32,59.88023952,66fa4ebf79326e780c390304,,,,,,,,,,,,,,,,,,,,,341.4782,341.4782,341.4819,342.343,1,0,right,0.3311,,342.346,342.3481,,1,,342.3502,342.3518,,0,,1,342.3518,342.3518,342.3533,343.8419,0,43,43,43,1,0.6,0.4,0.4,0.6,1,0,,,,,,,,,,,,,,,,,,,,,,,,,,,,,,,,,,,,
,,664c9a37d570871d534dd3c2,66fcb86f91dea1675b35d97b,2024-10-02_06h07.48.448,mdp,2024.2.1,Win32,59.88023952,66fa4ebf79326e780c390304,,,,,,,,,,,,,,,,,,,,,343.8432,343.8432,343.8469,344.874,1,1,right,0.5007,,344.8771,344.8797,,1,,344.8826,344.8843,,0,,0,344.8844,344.8844,344.8861,346.3726,0,44,44,44,1,0.6,0.4,0.4,0.6,1,0,,,,,,,,,,,,,,,,,,,,,,,,,,,,,,,,,,,,
,,664c9a37d570871d534dd3c2,66fcb86f91dea1675b35d97b,2024-10-02_06h07.48.448,mdp,2024.2.1,Win32,59.88023952,66fa4ebf79326e780c390304,,,,,,,,,,,,,,,,,,,,,346.3739,346.374,346.3771,347.255,0,0,left,0.3512,,347.2583,347.2606,,1,,347.2631,347.2644,,0,,1,347.2645,347.2645,347.266,348.7535,0,45,45,45,1,0.6,0.4,0.4,0.6,1,0,,,,,,,,,,,,,,,,,,,,,,,,,,,,,,,,,,,,
,,664c9a37d570871d534dd3c2,66fcb86f91dea1675b35d97b,2024-10-02_06h07.48.448,mdp,2024.2.1,Win32,59.88023952,66fa4ebf79326e780c390304,,,,,,,,,,,,,,,,,,,,,348.7549,348.7549,348.7584,349.6361,0,1,left,0.3544,,349.6394,349.6414,,1,,349.6439,349.6453,,0,,0,349.6454,349.6455,349.6469,351.1346,0,46,46,46,1,0.6,0.4,0.4,0.6,1,0,,,,,,,,,,,,,,,,,,,,,,,,,,,,,,,,,,,,
,,664c9a37d570871d534dd3c2,66fcb86f91dea1675b35d97b,2024-10-02_06h07.48.448,mdp,2024.2.1,Win32,59.88023952,66fa4ebf79326e780c390304,,,,,,,,,,,,,,,,,,,,,351.1359,351.1359,351.1394,351.8506,0,0,left,0.1842,,351.8539,351.8559,,0,,351.8584,351.8598,,0,,1,351.8598,351.8599,351.8613,353.3493,0,47,47,47,1,0.6,0.4,0.4,0.6,1,0,,,,,,,,,,,,,,,,,,,,,,,,,,,,,,,,,,,,
,,664c9a37d570871d534dd3c2,66fcb86f91dea1675b35d97b,2024-10-02_06h07.48.448,mdp,2024.2.1,Win32,59.88023952,66fa4ebf79326e780c390304,,,,,,,,,,,,,,,,,,,,,353.3503,353.3503,353.3539,354.0821,0,0,left,0.2035,,354.0864,354.0886,,1,,354.0914,354.093,,1,,1,354.0933,354.0933,354.095,355.5972,0,48,48,48,1,0.8,0.2,0.8,0.2,1,0,,,,,,,,,,,,,,,,,,,,,,,,,,,,,,,,,,,,
,,664c9a37d570871d534dd3c2,66fcb86f91dea1675b35d97b,2024-10-02_06h07.48.448,mdp,2024.2.1,Win32,59.88023952,66fa4ebf79326e780c390304,,,,,,,,,,,,,,,,,,,,,355.5983,355.5984,355.6016,356.5629,1,0,right,0.4372,,356.566,356.5684,,0,,356.5708,356.5722,,0,,1,356.5722,356.5722,356.5737,358.0616,0,49,49,49,1,0.8,0.2,0.8,0.2,1,0,,,,,,,,,,,,,,,,,,,,,,,,,,,,,,,,,,,,
,,664c9a37d570871d534dd3c2,66fcb86f91dea1675b35d97b,2024-10-02_06h07.48.448,mdp,2024.2.1,Win32,59.88023952,66fa4ebf79326e780c390304,,,,,,,,,,,,,,,,,,,,,,,,,,,,,,,,,,,,,,,,,,,,,,,,,,,,,,,,358.0632,416.5898,0,0,0,2,1,imgs/kangaroo.png,imgs/lion.png,imgs/horse.png,imgs/rabbit.png,imgs/bear.png,,,,,,,,,,,,,,,,,,,,,,,,
,,664c9a37d570871d534dd3c2,66fcb86f91dea1675b35d97b,2024-10-02_06h07.48.448,mdp,2024.2.1,Win32,59.88023952,66fa4ebf79326e780c390304,,,,,,,,,,,,,,2,seqs/st2seq32.csv,416.5939,419.8026,space,2.6814,,419.8216,419.8217,419.8248,421.0192,1,0,right,0.6633,,421.0231,423.033,0,0,left,423.0361,423.0384,,1,,1,423.0384,423.0384,423.0414,424.5312,0,0,0,0,1,0.4,0.6,0.8,0.2,,,,,,,,,,,,,,,1.463,,0.2,0.8,0.8,0.2,0.8,0.2,0.6,0.4,1,0,,,,,,,,,,,,
,,664c9a37d570871d534dd3c2,66fcb86f91dea1675b35d97b,2024-10-02_06h07.48.448,mdp,2024.2.1,Win32,59.88023952,66fa4ebf79326e780c390304,,,,,,,,,,,,,,,,,,,,,424.5327,424.5328,424.5361,425.3472,0,0,left,0.2853,,425.3503,427.3454,1,0,right,427.3487,427.3507,,0,,1,427.3508,427.3509,427.3532,428.844,0,1,1,1,1,0.4,0.6,0.8,0.2,,,,,,,,,,,,,,,1.4663,,0.2,0.8,0.8,0.2,0.8,0.2,0.6,0.4,1,0,,,,,,,,,,,,
,,664c9a37d570871d534dd3c2,66fcb86f91dea1675b35d97b,2024-10-02_06h07.48.448,mdp,2024.2.1,Win32,59.88023952,66fa4ebf79326e780c390304,,,,,,,,,,,,,,,,,,,,,428.8459,428.8459,428.8494,431.8908,1,0,right,2.5152,,431.8941,433.5891,0,0,left,433.5921,433.5946,,1,,1,433.5947,433.5947,433.5969,435.0879,0,2,2,2,1,0.4,0.6,0.8,0.2,,,,,,,,,,,,,,,1.1646,,0.2,0.8,0.8,0.2,0.8,0.2,0.6,0.4,1,0,,,,,,,,,,,,
,,664c9a37d570871d534dd3c2,66fcb86f91dea1675b35d97b,2024-10-02_06h07.48.448,mdp,2024.2.1,Win32,59.88023952,66fa4ebf79326e780c390304,,,,,,,,,,,,,,,,,,,,,435.0892,435.0893,435.0936,435.7873,1,1,right,0.1681,,435.7905,437.1859,0,0,left,437.1889,437.191,,0,,1,437.1911,437.1911,437.1934,438.6843,0,3,3,3,1,0.4,0.6,0.8,0.2,,,,,,,,,,,,,,,0.842,,0.2,0.8,0.8,0.2,0.8,0.2,0.6,0.4,1,0,,,,,,,,,,,,
,,664c9a37d570871d534dd3c2,66fcb86f91dea1675b35d97b,2024-10-02_06h07.48.448,mdp,2024.2.1,Win32,59.88023952,66fa4ebf79326e780c390304,,,,,,,,,,,,,,,,,,,,,438.6854,438.6855,438.6891,439.75,1,0,right,0.5345,,439.7534,441.4818,0,1,left,441.4856,441.488,,0,,0,441.4881,441.4881,441.4908,442.9803,0,4,4,4,1,0.8,0.2,0.6,0.4,,,,,,,,,,,,,,,1.1878,,0.2,0.8,0.8,0.2,0.8,0.2,0.6,0.4,1,0,,,,,,,,,,,,
,,664c9a37d570871d534dd3c2,66fcb86f91dea1675b35d97b,2024-10-02_06h07.48.448,mdp,2024.2.1,Win32,59.88023952,66fa4ebf79326e780c390304,,,,,,,,,,,,,,,,,,,,,442.9817,442.9817,442.9854,444.5456,1,0,right,1.0364,,444.5493,446.1271,0,0,left,446.1305,446.133,,0,,1,446.1331,446.1331,446.1355,447.6259,0,5,5,5,1,0.8,0.2,0.6,0.4,,,,,,,,,,,,,,,1.0469,,0.2,0.8,0.8,0.2,0.2,0.8,0.8,0.2,1,0,,,,,,,,,,,,
,,664c9a37d570871d534dd3c2,66fcb86f91dea1675b35d97b,2024-10-02_06h07.48.448,mdp,2024.2.1,Win32,59.88023952,66fa4ebf79326e780c390304,,,,,,,,,,,,,,,,,,,,,447.6271,447.6272,447.6316,449.8736,0,0,left,1.7181,,449.8768,451.4556,0,1,left,451.4586,451.4609,,1,,0,451.4611,451.4611,451.4637,452.9545,0,6,6,6,1,0.8,0.2,0.6,0.4,,,,,,,,,,,,,,,1.0495,,0.2,0.8,0.8,0.2,0.2,0.8,0.8,0.2,1,0,,,,,,,,,,,,
,,664c9a37d570871d534dd3c2,66fcb86f91dea1675b35d97b,2024-10-02_06h07.48.448,mdp,2024.2.1,Win32,59.88023952,66fa4ebf79326e780c390304,,,,,,,,,,,,,,,,,,,,,452.9558,452.9559,452.9597,454.5192,0,0,left,1.031,,454.5222,456.4009,1,0,right,456.4042,456.4066,,0,,1,456.4068,456.4068,456.4097,457.8993,0,7,7,7,1,0.8,0.2,0.6,0.4,,,,,,,,,,,,,,,1.3475,,0.2,0.8,0.8,0.2,0.2,0.8,0.8,0.2,1,0,,,,,,,,,,,,
,,664c9a37d570871d534dd3c2,66fcb86f91dea1675b35d97b,2024-10-02_06h07.48.448,mdp,2024.2.1,Win32,59.88023952,66fa4ebf79326e780c390304,,,,,,,,,,,,,,,,,,,,,457.9008,457.9009,457.9043,459.2815,0,1,left,0.8512,,459.2847,460.7967,1,1,right,460.7999,460.8024,,0,,0,460.8025,460.8025,460.8054,462.2953,0,8,8,8,1,0.8,0.2,0.6,0.4,,,,,,,,,,,,,,,0.968,,0.2,0.8,0.8,0.2,0.2,0.8,0.8,0.2,1,0,,,,,,,,,,,,
,,664c9a37d570871d534dd3c2,66fcb86f91dea1675b35d97b,2024-10-02_06h07.48.448,mdp,2024.2.1,Win32,59.88023952,66fa4ebf79326e780c390304,,,,,,,,,,,,,,,,,,,,,462.2966,462.2966,462.3002,463.4774,0,0,left,0.651,,463.4808,464.9759,0,0,left,464.9794,464.9818,,0,,1,464.9819,464.9819,464.9844,466.4744,0,9,9,9,1,0.8,0.2,0.6,0.4,,,,,,,,,,,,,,,0.9548,,0.2,0.8,0.8,0.2,0.2,0.8,0.8,0.2,1,0,,,,,,,,,,,,
,,664c9a37d570871d534dd3c2,66fcb86f91dea1675b35d97b,2024-10-02_06h07.48.448,mdp,2024.2.1,Win32,59.88023952,66fa4ebf79326e780c390304,,,,,,,,,,,,,,,,,,,,,466.4758,466.4758,466.479,467.5736,0,1,left,0.565,,467.5772,468.6558,0,0,left,468.6588,468.6615,,1,,1,468.6616,468.6616,468.6647,470.1544,0,10,10,10,1,0.6,0.4,0.2,0.8,,,,,,,,,,,,,,,0.5334,,0.2,0.8,0.8,0.2,0.2,0.8,0.8,0.2,1,0,,,,,,,,,,,,
,,664c9a37d570871d534dd3c2,66fcb86f91dea1675b35d97b,2024-10-02_06h07.48.448,mdp,2024.2.1,Win32,59.88023952,66fa4ebf79326e780c390304,,,,,,,,,,,,,,,,,,,,,470.1558,470.1558,470.16,471.1366,0,1,left,0.4511,,471.1399,472.1192,0,1,left,472.1229,472.125,,0,,0,472.1252,472.1252,472.1281,473.6177,0,11,11,11,1,0.6,0.4,0.2,0.8,,,,,,,,,,,,,,,0.4526,,0.2,0.8,0.8,0.2,0.6,0.4,0.2,0.8,1,0,,,,,,,,,,,,
,,664c9a37d570871d534dd3c2,66fcb86f91dea1675b35d97b,2024-10-02_06h07.48.448,mdp,2024.2.1,Win32,59.88023952,66fa4ebf79326e780c390304,,,,,,,,,,,,,,,,,,,,,473.6192,473.6192,473.6232,474.3004,0,0,left,0.1514,,474.304,475.4659,1,0,right,475.4695,475.4718,,0,,1,475.4719,475.4719,475.4741,476.9643,0,12,12,12,1,0.6,0.4,0.2,0.8,,,,,,,,,,,,,,,0.6231,,0.2,0.8,0.8,0.2,0.6,0.4,0.2,0.8,1,0,,,,,,,,,,,,
,,664c9a37d570871d534dd3c2,66fcb86f91dea1675b35d97b,2024-10-02_06h07.48.448,mdp,2024.2.1,Win32,59.88023952,66fa4ebf79326e780c390304,,,,,,,,,,,,,,,,,,,,,476.9654,476.9657,476.9691,478.0309,0,0,left,0.5376,,478.0336,479.0959,1,0,right,479.0991,479.1015,,1,,1,479.1016,479.1016,479.104,480.5945,0,13,13,13,1,0.6,0.4,0.2,0.8,,,,,,,,,,,,,,,0.5327,,0.2,0.8,0.8,0.2,0.6,0.4,0.2,0.8,1,0,,,,,,,,,,,,
,,664c9a37d570871d534dd3c2,66fcb86f91dea1675b35d97b,2024-10-02_06h07.48.448,mdp,2024.2.1,Win32,59.88023952,66fa4ebf79326e780c390304,,,,,,,,,,,,,,,,,,,,,480.5957,480.5957,480.599,481.5435,0,0,left,0.4193,,481.5464,482.4425,1,0,right,482.4455,482.4477,,0,,1,482.4478,482.4479,482.4501,483.941,0,14,14,14,1,0.6,0.4,0.2,0.8,,,,,,,,,,,,,,,0.3673,,0.2,0.8,0.8,0.2,0.6,0.4,0.2,0.8,1,0,,,,,,,,,,,,
,,664c9a37d570871d534dd3c2,66fcb86f91dea1675b35d97b,2024-10-02_06h07.48.448,mdp,2024.2.1,Win32,59.88023952,66fa4ebf79326e780c390304,,,,,,,,,,,,,,,,,,,,,483.9423,483.9423,483.9456,485.1233,0,0,left,0.6483,,485.1263,486.074,1,0,right,486.0773,486.0791,,0,,1,486.0792,486.0793,486.0815,487.5709,0,15,15,15,1,0.6,0.4,0.2,0.8,,,,,,,,,,,,,,,0.4211,,0.2,0.8,0.8,0.2,0.6,0.4,0.2,0.8,1,0,,,,,,,,,,,,
,,664c9a37d570871d534dd3c2,66fcb86f91dea1675b35d97b,2024-10-02_06h07.48.448,mdp,2024.2.1,Win32,59.88023952,66fa4ebf79326e780c390304,,,,,,,,,,,,,,,,,,,,,487.5722,487.5723,487.5756,488.4203,0,1,left,0.3192,,488.4236,489.3193,1,1,right,489.3228,489.3253,,0,,0,489.3253,489.3254,489.328,490.8178,0,16,16,16,1,0.6,0.4,0.2,0.8,,,,,,,,,,,,,,,0.3564,,0.2,0.8,0.8,0.2,0.6,0.4,0.2,0.8,1,0,,,,,,,,,,,,
,,664c9a37d570871d534dd3c2,66fcb86f91dea1675b35d97b,2024-10-02_06h07.48.448,mdp,2024.2.1,Win32,59.88023952,66fa4ebf79326e780c390304,,,,,,,,,,,,,,,,,,,,,490.8192,490.8192,490.8225,491.6504,0,1,left,0.3032,,491.6534,492.5996,0,0,left,492.6029,492.6048,,1,,1,492.6049,492.6049,492.6077,494.098,0,17,17,17,1,0.6,0.4,0.2,0.8,,,,,,,,,,,,,,,0.4167,,0.2,0.8,0.8,0.2,0.8,0.2,0.6,0.4,1,0,,,,,,,,,,,,
,,664c9a37d570871d534dd3c2,66fcb86f91dea1675b35d97b,2024-10-02_06h07.48.448,mdp,2024.2.1,Win32,59.88023952,66fa4ebf79326e780c390304,,,,,,,,,,,,,,,,,,,,,494.0994,494.0995,494.1032,494.964,0,0,left,0.3352,,494.9673,495.9796,0,1,left,495.9826,495.985,,1,,0,495.9851,495.9851,495.9874,497.4791,0,18,18,18,1,0.6,0.4,0.2,0.8,,,,,,,,,,,,,,,0.4765,,0.2,0.8,0.8,0.2,0.8,0.2,0.6,0.4,1,0,,,,,,,,,,,,
,,664c9a37d570871d534dd3c2,66fcb86f91dea1675b35d97b,2024-10-02_06h07.48.448,mdp,2024.2.1,Win32,59.88023952,66fa4ebf79326e780c390304,,,,,,,,,,,,,,,,,,,,,497.4821,497.4825,497.4866,498.0779,0,0,left,0.0662,,498.0814,499.0433,1,0,right,499.0467,499.0487,,0,,1,499.0488,499.0488,499.0514,500.5418,0,19,19,19,1,0.6,0.4,0.2,0.8,,,,,,,,,,,,,,,0.4331,,0.2,0.8,0.8,0.2,0.8,0.2,0.6,0.4,1,0,,,,,,,,,,,,
,,664c9a37d570871d534dd3c2,66fcb86f91dea1675b35d97b,2024-10-02_06h07.48.448,mdp,2024.2.1,Win32,59.88023952,66fa4ebf79326e780c390304,,,,,,,,,,,,,,,,,,,,,500.5433,500.5433,500.5469,501.9408,1,1,right,0.8694,,501.944,503.1063,0,0,left,503.1097,503.1122,,0,,1,503.1123,503.1123,503.1148,504.6045,0,20,20,20,1,0.6,0.4,0.2,0.8,,,,,,,,,,,,,,,0.6164,,0.2,0.8,0.8,0.2,0.8,0.2,0.6,0.4,1,0,,,,,,,,,,,,
,,664c9a37d570871d534dd3c2,66fcb86f91dea1675b35d97b,2024-10-02_06h07.48.448,mdp,2024.2.1,Win32,59.88023952,66fa4ebf79326e780c390304,,,,,,,,,,,,,,,,,,,,,504.606,504.606,504.6099,505.1708,0,1,left,0.033,,505.1737,506.0869,1,0,right,506.0908,506.0926,,0,,1,506.0929,506.0929,506.0957,507.5851,0,21,21,21,1,0.6,0.4,0.2,0.8,,,,,,,,,,,,,,,0.3836,,0.2,0.8,0.8,0.2,0.8,0.2,0.6,0.4,1,0,,,,,,,,,,,,
,,664c9a37d570871d534dd3c2,66fcb86f91dea1675b35d97b,2024-10-02_06h07.48.448,mdp,2024.2.1,Win32,59.88023952,66fa4ebf79326e780c390304,,,,,,,,,,,,,,,,,,,,,507.5861,507.5864,507.5896,508.4509,0,0,left,0.3363,,508.4543,509.3668,1,0,right,509.37,509.3724,,0,,1,509.3724,509.3724,509.3748,510.8653,0,22,22,22,1,0.6,0.4,0.2,0.8,,,,,,,,,,,,,,,0.3751,,0.2,0.8,0.8,0.2,0.8,0.2,0.6,0.4,1,0,,,,,,,,,,,,
,,664c9a37d570871d534dd3c2,66fcb86f91dea1675b35d97b,2024-10-02_06h07.48.448,mdp,2024.2.1,Win32,59.88023952,66fa4ebf79326e780c390304,,,,,,,,,,,,,,,,,,,,,510.8664,510.8664,510.8697,511.5813,0,0,left,0.187,,511.5846,512.4972,1,1,right,512.5003,512.5023,,0,,0,512.5024,512.5024,512.5047,513.9957,0,23,23,23,1,0.6,0.4,0.2,0.8,,,,,,,,,,,,,,,0.3849,,0.2,0.8,0.8,0.2,0.8,0.2,0.6,0.4,1,0,,,,,,,,,,,,
,,664c9a37d570871d534dd3c2,66fcb86f91dea1675b35d97b,2024-10-02_06h07.48.448,mdp,2024.2.1,Win32,59.88023952,66fa4ebf79326e780c390304,,,,,,,,,,,,,,,,,,,,,513.9966,513.997,514.0004,515.1447,1,0,right,0.6219,,515.1476,516.1437,0,1,left,516.1466,516.1488,,1,,0,516.1491,516.1491,516.1514,517.6421,0,24,24,24,1,0.6,0.4,0.2,0.8,,,,,,,,,,,,,,,0.4672,,0.2,0.8,0.8,0.2,0.2,0.8,0.8,0.2,1,0,,,,,,,,,,,,
,,664c9a37d570871d534dd3c2,66fcb86f91dea1675b35d97b,2024-10-02_06h07.48.448,mdp,2024.2.1,Win32,59.88023952,66fa4ebf79326e780c390304,,,,,,,,,,,,,,,,,,,,,517.6432,517.6435,517.6473,518.7914,1,1,right,0.6185,,518.7944,519.8902,1,0,right,519.8935,519.8956,,0,,1,519.8956,519.8956,519.8979,521.3888,0,25,25,25,1,0.6,0.4,0.2,0.8,,,,,,,,,,,,,,,0.5588,,0.2,0.8,0.8,0.2,0.2,0.8,0.8,0.2,1,0,,,,,,,,,,,,
,,664c9a37d570871d534dd3c2,66fcb86f91dea1675b35d97b,2024-10-02_06h07.48.448,mdp,2024.2.1,Win32,59.88023952,66fa4ebf79326e780c390304,,,,,,,,,,,,,,,,,,,,,521.39,521.3901,521.3934,522.0548,0,1,left,0.1355,,522.0581,522.9039,1,0,right,522.9071,522.9094,,0,,1,522.9094,522.9095,522.9118,524.4025,0,26,26,26,1,0.6,0.4,0.2,0.8,,,,,,,,,,,,,,,0.3187,,0.6,0.4,0.4,0.6,0.2,0.8,0.8,0.2,1,0,,,,,,,,,,,,
,,664c9a37d570871d534dd3c2,66fcb86f91dea1675b35d97b,2024-10-02_06h07.48.448,mdp,2024.2.1,Win32,59.88023952,66fa4ebf79326e780c390304,,,,,,,,,,,,,,,,,,,,,524.4042,524.4042,524.4073,525.5182,1,0,right,0.5844,,525.5217,526.5339,0,1,left,526.5369,526.5391,,1,,0,526.5393,526.5393,526.5417,528.0325,0,27,27,27,1,0.6,0.4,0.2,0.8,,,,,,,,,,,,,,,0.4752,,0.4,0.6,0.8,0.2,0.2,0.8,0.8,0.2,1,0,,,,,,,,,,,,
,,664c9a37d570871d534dd3c2,66fcb86f91dea1675b35d97b,2024-10-02_06h07.48.448,mdp,2024.2.1,Win32,59.88023952,66fa4ebf79326e780c390304,,,,,,,,,,,,,,,,,,,,,528.0336,528.0336,528.0368,528.5985,0,1,left,0.0464,,528.6017,529.5641,1,0,right,529.5695,529.5726,,0,,1,529.5728,529.5728,529.5746,531.0627,0,28,28,28,1,0.6,0.4,0.2,0.8,,,,,,,,,,,,,,,0.4214,,0.4,0.6,0.8,0.2,0.2,0.8,0.8,0.2,1,0,,,,,,,,,,,,
,,664c9a37d570871d534dd3c2,66fcb86f91dea1675b35d97b,2024-10-02_06h07.48.448,mdp,2024.2.1,Win32,59.88023952,66fa4ebf79326e780c390304,,,,,,,,,,,,,,,,,,,,,531.0637,531.064,531.0671,532.0619,0,0,left,0.4695,,532.0651,532.961,1,0,right,532.9659,532.9679,,0,,1,532.9681,532.9681,532.9698,534.4595,0,29,29,29,1,0.6,0.4,0.2,0.8,,,,,,,,,,,,,,,0.3617,,0.4,0.6,0.8,0.2,0.2,0.8,0.8,0.2,1,0,,,,,,,,,,,,
,,664c9a37d570871d534dd3c2,66fcb86f91dea1675b35d97b,2024-10-02_06h07.48.448,mdp,2024.2.1,Win32,59.88023952,66fa4ebf79326e780c390304,,,,,,,,,,,,,,,,,,,,,534.4609,534.461,534.4645,535.0258,0,1,left,0.0387,,535.029,535.9414,1,0,right,535.9448,535.9473,,1,,1,535.9474,535.9474,535.9504,537.44,0,30,30,30,1,0.6,0.4,0.2,0.8,,,,,,,,,,,,,,,0.3716,,0.4,0.6,0.8,0.2,0.2,0.8,0.8,0.2,1,0,,,,,,,,,,,,
,,664c9a37d570871d534dd3c2,66fcb86f91dea1675b35d97b,2024-10-02_06h07.48.448,mdp,2024.2.1,Win32,59.88023952,66fa4ebf79326e780c390304,,,,,,,,,,,,,,,,,,,,,537.4413,537.4414,537.445,538.0064,0,0,left,0.0355,,538.0105,538.972,1,1,right,538.9751,538.9775,,1,,0,538.9777,538.9777,538.9804,540.4704,0,31,31,31,1,0.6,0.4,0.2,0.8,,,,,,,,,,,,,,,0.4199,,0.2,0.8,0.4,0.6,0.2,0.8,0.8,0.2,1,0,,,,,,,,,,,,
,,664c9a37d570871d534dd3c2,66fcb86f91dea1675b35d97b,2024-10-02_06h07.48.448,mdp,2024.2.1,Win32,59.88023952,66fa4ebf79326e780c390304,,,,,,,,,,,,,,,,,,,,,540.4718,540.4718,540.4755,541.0532,0,0,left,0.0508,,541.0564,542.0024,1,1,right,542.0059,542.0083,,1,,0,542.0084,542.0085,542.0113,543.5009,0,32,32,32,1,0.6,0.4,0.2,0.8,,,,,,,,,,,,,,,0.4222,,0.2,0.8,0.4,0.6,0.2,0.8,0.8,0.2,1,0,,,,,,,,,,,,
,,664c9a37d570871d534dd3c2,66fcb86f91dea1675b35d97b,2024-10-02_06h07.48.448,mdp,2024.2.1,Win32,59.88023952,66fa4ebf79326e780c390304,,,,,,,,,,,,,,,,,,,,,543.5026,543.5027,543.5065,544.0837,1,1,right,0.0479,,544.0868,545.0676,0,1,left,545.0711,545.0729,,0,,0,545.073,545.0731,545.0747,546.5646,0,33,33,33,1,0.6,0.4,0.2,0.8,,,,,,,,,,,,,,,0.4454,,0.2,0.8,0.4,0.6,0.2,0.8,0.8,0.2,1,0,,,,,,,,,,,,
,,664c9a37d570871d534dd3c2,66fcb86f91dea1675b35d97b,2024-10-02_06h07.48.448,mdp,2024.2.1,Win32,59.88023952,66fa4ebf79326e780c390304,,,,,,,,,,,,,,,,,,,,,546.5661,546.5661,546.5693,547.4637,0,0,left,0.3701,,547.4672,548.4627,1,1,right,548.4661,548.4681,,0,,0,548.4682,548.4682,548.4705,549.9613,0,34,34,34,1,0.6,0.4,0.2,0.8,,,,,,,,,,,,,,,0.4554,,0.2,0.8,0.4,0.6,0.2,0.8,0.8,0.2,1,0,,,,,,,,,,,,
,,664c9a37d570871d534dd3c2,66fcb86f91dea1675b35d97b,2024-10-02_06h07.48.448,mdp,2024.2.1,Win32,59.88023952,66fa4ebf79326e780c390304,,,,,,,,,,,,,,,,,,,,,549.9623,549.9627,549.9662,550.5775,1,1,right,0.0873,,550.5808,551.4604,1,0,right,551.464,551.4662,,1,,1,551.4663,551.4663,551.4685,552.9583,0,35,35,35,1,0.6,0.4,0.2,0.8,,,,,,,,,,,,,,,0.3428,,0.2,0.8,0.4,0.6,0.2,0.8,0.8,0.2,1,0,,,,,,,,,,,,
,,664c9a37d570871d534dd3c2,66fcb86f91dea1675b35d97b,2024-10-02_06h07.48.448,mdp,2024.2.1,Win32,59.88023952,66fa4ebf79326e780c390304,,,,,,,,,,,,,,,,,,,,,552.9598,552.9598,552.9631,553.8416,0,0,left,0.3572,,553.8447,554.7735,0,1,left,554.7765,554.7786,,1,,0,554.7787,554.7787,554.7809,556.272,0,36,36,36,1,0.6,0.4,0.2,0.8,,,,,,,,,,,,,,,0.3926,,0.2,0.8,0.4,0.6,0.2,0.8,0.8,0.2,1,0,,,,,,,,,,,,
,,664c9a37d570871d534dd3c2,66fcb86f91dea1675b35d97b,2024-10-02_06h07.48.448,mdp,2024.2.1,Win32,59.88023952,66fa4ebf79326e780c390304,,,,,,,,,,,,,,,,,,,,,556.2733,556.2734,556.277,557.5375,1,1,right,0.7367,,557.5405,558.4867,1,0,right,558.49,558.4925,,1,,1,558.4926,558.4927,558.4957,559.985,0,37,37,37,1,0.6,0.4,0.2,0.8,,,,,,,,,,,,,,,0.4059,,0.2,0.8,0.4,0.6,0.2,0.8,0.8,0.2,1,0,,,,,,,,,,,,
,,664c9a37d570871d534dd3c2,66fcb86f91dea1675b35d97b,2024-10-02_06h07.48.448,mdp,2024.2.1,Win32,59.88023952,66fa4ebf79326e780c390304,,,,,,,,,,,,,,,,,,,,,559.9863,559.9864,559.9898,560.701,0,1,left,0.1847,,560.7041,561.6177,0,0,left,561.6215,561.6235,,0,,1,561.6237,561.6237,561.6263,563.1155,0,38,38,38,1,0.6,0.4,0.2,0.8,,,,,,,,,,,,,,,0.3906,,0.2,0.8,0.4,0.6,0.8,0.2,0.6,0.4,1,0,,,,,,,,,,,,
,,664c9a37d570871d534dd3c2,66fcb86f91dea1675b35d97b,2024-10-02_06h07.48.448,mdp,2024.2.1,Win32,59.88023952,66fa4ebf79326e780c390304,,,,,,,,,,,,,,,,,,,,,563.1167,563.1168,563.12,563.7982,1,1,right,0.1481,,563.8013,564.7141,1,0,right,564.717,564.7194,,0,,1,564.7195,564.7195,564.7218,566.2124,0,39,39,39,1,0.6,0.4,0.2,0.8,,,,,,,,,,,,,,,0.3832,,0.2,0.8,0.4,0.6,0.8,0.2,0.6,0.4,1,0,,,,,,,,,,,,
,,664c9a37d570871d534dd3c2,66fcb86f91dea1675b35d97b,2024-10-02_06h07.48.448,mdp,2024.2.1,Win32,59.88023952,66fa4ebf79326e780c390304,,,,,,,,,,,,,,,,,,,,,566.2138,566.2138,566.2174,567.4446,0,1,left,0.7008,,567.4479,568.4602,0,0,left,568.4634,568.4655,,1,,1,568.4656,568.4656,568.468,569.9588,0,40,40,40,1,0.6,0.4,0.2,0.8,,,,,,,,,,,,,,,0.4833,,0.2,0.8,0.4,0.6,0.8,0.2,0.6,0.4,1,0,,,,,,,,,,,,
,,664c9a37d570871d534dd3c2,66fcb86f91dea1675b35d97b,2024-10-02_06h07.48.448,mdp,2024.2.1,Win32,59.88023952,66fa4ebf79326e780c390304,,,,,,,,,,,,,,,,,,,,,569.9598,569.9601,569.9636,571.2243,0,0,left,0.7336,,571.2277,572.5067,1,1,right,572.5102,572.5128,,0,,0,572.5128,572.5129,572.5153,574.0051,0,41,41,41,1,0.6,0.4,0.2,0.8,,,,,,,,,,,,,,,0.741,,0.2,0.8,0.4,0.6,0.8,0.2,0.6,0.4,1,0,,,,,,,,,,,,
,,664c9a37d570871d534dd3c2,66fcb86f91dea1675b35d97b,2024-10-02_06h07.48.448,mdp,2024.2.1,Win32,59.88023952,66fa4ebf79326e780c390304,,,,,,,,,,,,,,,,,,,,,574.0066,574.0066,574.0102,575.1874,0,1,left,0.6504,,575.1904,576.1718,0,0,left,576.1751,576.177,,0,,1,576.1772,576.1772,576.1795,577.6683,0,42,42,42,1,0.6,0.4,0.2,0.8,,,,,,,,,,,,,,,0.4388,,0.2,0.8,0.4,0.6,0.8,0.2,0.6,0.4,1,0,,,,,,,,,,,,
,,664c9a37d570871d534dd3c2,66fcb86f91dea1675b35d97b,2024-10-02_06h07.48.448,mdp,2024.2.1,Win32,59.88023952,66fa4ebf79326e780c390304,,,,,,,,,,,,,,,,,,,,,577.6696,577.6696,577.6731,578.4341,0,1,left,0.2312,,578.4372,579.2835,0,0,left,579.2865,579.2886,,1,,1,579.2887,579.2887,579.291,580.7819,0,43,43,43,1,0.4,0.6,0.8,0.2,,,,,,,,,,,,,,,0.3174,,0.2,0.8,0.4,0.6,0.8,0.2,0.6,0.4,1,0,,,,,,,,,,,,
,,664c9a37d570871d534dd3c2,66fcb86f91dea1675b35d97b,2024-10-02_06h07.48.448,mdp,2024.2.1,Win32,59.88023952,66fa4ebf79326e780c390304,,,,,,,,,,,,,,,,,,,,,580.7829,580.7829,580.7864,581.9476,1,1,right,0.635,,581.9508,582.8635,1,1,right,582.8671,582.8693,,0,,0,582.8694,582.8695,582.872,584.3619,0,44,44,44,1,0.4,0.6,0.8,0.2,,,,,,,,,,,,,,,0.3827,,0.2,0.8,0.4,0.6,0.8,0.2,0.6,0.4,1,0,,,,,,,,,,,,
,,664c9a37d570871d534dd3c2,66fcb86f91dea1675b35d97b,2024-10-02_06h07.48.448,mdp,2024.2.1,Win32,59.88023952,66fa4ebf79326e780c390304,,,,,,,,,,,,,,,,,,,,,584.3632,584.3632,584.3667,584.9947,1,0,right,0.1014,,584.998,585.877,1,0,right,585.8803,585.8822,,1,,1,585.8822,585.8823,585.8848,587.3756,0,45,45,45,1,0.4,0.6,0.8,0.2,,,,,,,,,,,,,,,0.3402,,0.2,0.8,0.4,0.6,0.6,0.4,0.4,0.6,1,0,,,,,,,,,,,,
,,664c9a37d570871d534dd3c2,66fcb86f91dea1675b35d97b,2024-10-02_06h07.48.448,mdp,2024.2.1,Win32,59.88023952,66fa4ebf79326e780c390304,,,,,,,,,,,,,,,,,,,,,587.3769,587.377,587.3806,588.5745,1,0,right,0.6671,,588.5774,589.5572,1,0,right,589.5604,589.5626,,1,,1,589.5627,589.5627,589.5649,591.0553,0,46,46,46,1,0.4,0.6,0.8,0.2,,,,,,,,,,,,,,,0.4528,,0.2,0.8,0.4,0.6,0.6,0.4,0.4,0.6,1,0,,,,,,,,,,,,
,,664c9a37d570871d534dd3c2,66fcb86f91dea1675b35d97b,2024-10-02_06h07.48.448,mdp,2024.2.1,Win32,59.88023952,66fa4ebf79326e780c390304,,,,,,,,,,,,,,,,,,,,,591.0567,591.0567,591.0599,591.5883,0,1,left,0.0044,,591.5917,592.5206,0,0,left,592.524,592.5261,,1,,1,592.5262,592.5262,592.5303,594.0191,0,47,47,47,1,0.2,0.8,0.6,0.4,,,,,,,,,,,,,,,0.3906,,0.2,0.8,0.4,0.6,0.6,0.4,0.4,0.6,1,0,,,,,,,,,,,,
,,664c9a37d570871d534dd3c2,66fcb86f91dea1675b35d97b,2024-10-02_06h07.48.448,mdp,2024.2.1,Win32,59.88023952,66fa4ebf79326e780c390304,,,,,,,,,,,,,,,,,,,,,594.0206,594.0206,594.0242,594.8684,1,1,right,0.3179,,594.8719,595.7841,1,1,right,595.7875,595.7897,,1,,0,595.7898,595.7898,595.7925,597.283,0,48,48,48,1,0.2,0.8,0.6,0.4,,,,,,,,,,,,,,,0.3832,,0.2,0.8,0.4,0.6,0.6,0.4,0.4,0.6,1,0,,,,,,,,,,,,
,,664c9a37d570871d534dd3c2,66fcb86f91dea1675b35d97b,2024-10-02_06h07.48.448,mdp,2024.2.1,Win32,59.88023952,66fa4ebf79326e780c390304,,,,,,,,,,,,,,,,,,,,,597.2843,597.2843,597.2875,598.1987,1,0,right,0.382,,598.202,599.1476,1,1,right,599.1507,599.1531,,0,,0,599.1532,599.1532,599.1554,600.6462,0,49,49,49,1,0.2,0.8,0.6,0.4,,,,,,,,,,,,,,,0.4072,,0.2,0.8,0.4,0.6,0.6,0.4,0.4,0.6,1,0,,,,,,,,,,,,
,,664c9a37d570871d534dd3c2,66fcb86f91dea1675b35d97b,2024-10-02_06h07.48.448,mdp,2024.2.1,Win32,59.88023952,66fa4ebf79326e780c390304,,,,,,,,,,,,,,,,,,,,,,,,,,,,,,,,,,,,,,,,,,,,,,,,,,,,,,,,600.6464,659.1572,0,1,1,1,1,imgs/kangaroo.png,imgs/goat.png,imgs/rabbit.png,imgs/horse.png,imgs/pig.png,,,,,,,,,,,,,,,,,,,,,,,,
,,664c9a37d570871d534dd3c2,66fcb86f91dea1675b35d97b,2024-10-02_06h07.48.448,mdp,2024.2.1,Win32,59.88023952,66fa4ebf79326e780c390304,,,,,,,,,,,,,,3,seqs/st3seq17.csv,659.1609,662.2733,space,2.5857,,662.2974,662.2975,662.2996,663.6863,0,1,left,0.8559,,663.69,664.5519,0,0,left,664.5552,665.7675,1,1,right,0,665.7678,665.7679,665.7715,667.2658,0,0,0,0,1,0.4,0.6,0.6,0.4,,,,,,,,,,,,,,,0.3105,,0.6,0.4,0.2,0.8,0.6,0.4,0.2,0.8,,,0.6661,,0.2,0.8,0.6,0.4,0.8,0.2,0.6,0.4,1,0
,,664c9a37d570871d534dd3c2,66fcb86f91dea1675b35d97b,2024-10-02_06h07.48.448,mdp,2024.2.1,Win32,59.88023952,66fa4ebf79326e780c390304,,,,,,,,,,,,,,,,,,,,,667.2676,667.2676,667.2709,667.8653,0,1,left,0.0678,,667.8686,668.5981,0,0,left,668.6014,669.4306,0,1,left,0,669.4307,669.4307,669.4336,670.9291,0,1,1,1,1,0.4,0.6,0.6,0.4,,,,,,,,,,,,,,,0.2012,,0.6,0.4,0.2,0.8,0.6,0.4,0.2,0.8,,,0.2992,,0.2,0.8,0.6,0.4,0.8,0.2,0.6,0.4,1,0
,,664c9a37d570871d534dd3c2,66fcb86f91dea1675b35d97b,2024-10-02_06h07.48.448,mdp,2024.2.1,Win32,59.88023952,66fa4ebf79326e780c390304,,,,,,,,,,,,,,,,,,,,,670.9304,670.9305,670.9338,672.0115,1,1,right,0.55,,672.0143,673.0605,0,0,left,673.0642,674.0762,0,0,left,1,674.0764,674.0765,674.0797,675.5748,0,2,2,2,1,0.4,0.6,0.6,0.4,,,,,,,,,,,,,,,0.5226,,0.6,0.4,0.2,0.8,0.6,0.4,0.2,0.8,,,0.4815,,0.2,0.8,0.6,0.4,0.4,0.6,0.8,0.2,1,0
,,664c9a37d570871d534dd3c2,66fcb86f91dea1675b35d97b,2024-10-02_06h07.48.448,mdp,2024.2.1,Win32,59.88023952,66fa4ebf79326e780c390304,,,,,,,,,,,,,,,,,,,,,675.5761,675.5762,675.5794,676.4239,1,1,right,0.3158,,676.4273,677.3564,0,0,left,677.3597,678.2389,0,1,left,0,678.2392,678.2392,678.2423,679.7373,0,3,3,3,1,0.4,0.6,0.6,0.4,,,,,,,,,,,,,,,0.4047,,0.6,0.4,0.2,0.8,0.6,0.4,0.2,0.8,,,0.3548,,0.2,0.8,0.6,0.4,0.4,0.6,0.8,0.2,1,0
,,664c9a37d570871d534dd3c2,66fcb86f91dea1675b35d97b,2024-10-02_06h07.48.448,mdp,2024.2.1,Win32,59.88023952,66fa4ebf79326e780c390304,,,,,,,,,,,,,,,,,,,,,679.7386,679.7387,679.7421,680.7698,0,1,left,0.5028,,680.7727,681.6523,0,0,left,681.6551,682.8177,0,1,left,0,682.8178,682.8178,682.8207,684.3162,0,4,4,4,1,0.4,0.6,0.6,0.4,,,,,,,,,,,,,,,0.3493,,0.6,0.4,0.2,0.8,0.6,0.4,0.2,0.8,,,0.6354,,0.2,0.8,0.6,0.4,0.4,0.6,0.8,0.2,1,0
,,664c9a37d570871d534dd3c2,66fcb86f91dea1675b35d97b,2024-10-02_06h07.48.448,mdp,2024.2.1,Win32,59.88023952,66fa4ebf79326e780c390304,,,,,,,,,,,,,,,,,,,,,684.3175,684.3176,684.321,685.2987,1,0,right,0.4557,,685.302,686.0814,1,0,right,686.0847,687.0802,1,1,right,0,687.0804,687.0804,687.0838,688.5788,0,5,5,5,1,0.4,0.6,0.6,0.4,,,,,,,,,,,,,,,0.2308,,0.6,0.4,0.2,0.8,0.6,0.4,0.2,0.8,,,0.4665,,0.2,0.8,0.6,0.4,0.4,0.6,0.8,0.2,1,0
,,664c9a37d570871d534dd3c2,66fcb86f91dea1675b35d97b,2024-10-02_06h07.48.448,mdp,2024.2.1,Win32,59.88023952,66fa4ebf79326e780c390304,,,,,,,,,,,,,,,,,,,,,688.5801,688.5801,688.5837,689.3114,0,0,left,0.2009,,689.3147,690.2106,0,1,left,690.2139,691.1264,0,1,left,0,691.1266,691.1267,691.1297,692.6249,0,6,6,6,1,0.4,0.6,0.6,0.4,,,,,,,,,,,,,,,0.3692,,0.6,0.4,0.2,0.8,0.6,0.4,0.2,0.8,,,0.3629,,0.2,0.8,0.6,0.4,0.4,0.6,0.8,0.2,1,0
,,664c9a37d570871d534dd3c2,66fcb86f91dea1675b35d97b,2024-10-02_06h07.48.448,mdp,2024.2.1,Win32,59.88023952,66fa4ebf79326e780c390304,,,,,,,,,,,,,,,,,,,,,692.6262,692.6263,692.6297,693.9739,1,0,right,0.8183,,693.9773,695.5222,1,1,right,695.5252,696.7545,0,1,left,0,696.7546,696.7546,696.7575,698.2529,0,7,7,7,1,0.4,0.6,0.6,0.4,,,,,,,,,,,,,,,1.021,,0.6,0.4,0.2,0.8,0.6,0.4,0.2,0.8,,,0.705,,0.2,0.8,0.6,0.4,0.4,0.6,0.8,0.2,1,0
,,664c9a37d570871d534dd3c2,66fcb86f91dea1675b35d97b,2024-10-02_06h07.48.448,mdp,2024.2.1,Win32,59.88023952,66fa4ebf79326e780c390304,,,,,,,,,,,,,,,,,,,,,698.2545,698.2545,698.2588,699.4684,1,1,right,0.6857,,699.4728,700.451,1,1,right,700.4542,701.3502,1,0,right,1,701.3504,701.3504,701.3532,702.8486,0,8,8,8,1,0.6,0.4,0.2,0.8,,,,,,,,,,,,,,,0.4379,,0.6,0.4,0.2,0.8,0.6,0.4,0.2,0.8,,,0.3698,,0.2,0.8,0.6,0.4,0.4,0.6,0.8,0.2,1,0
,,664c9a37d570871d534dd3c2,66fcb86f91dea1675b35d97b,2024-10-02_06h07.48.448,mdp,2024.2.1,Win32,59.88023952,66fa4ebf79326e780c390304,,,,,,,,,,,,,,,,,,,,,702.8499,702.8499,702.8538,703.4815,1,0,right,0.1052,,703.485,704.4971,1,1,right,704.5005,705.4626,1,0,right,1,705.4629,705.4629,705.4657,706.9612,0,9,9,9,1,0.6,0.4,0.2,0.8,,,,,,,,,,,,,,,0.4717,,0.6,0.4,0.2,0.8,0.6,0.4,0.2,0.8,,,0.4387,,0.2,0.8,0.6,0.4,0.4,0.6,0.8,0.2,1,0
,,664c9a37d570871d534dd3c2,66fcb86f91dea1675b35d97b,2024-10-02_06h07.48.448,mdp,2024.2.1,Win32,59.88023952,66fa4ebf79326e780c390304,,,,,,,,,,,,,,,,,,,,,706.9626,706.9626,706.9669,707.9604,0,1,left,0.4679,,707.9635,708.8427,1,1,right,708.846,709.7751,1,0,right,1,709.7754,709.7754,709.7788,711.2738,0,10,10,10,1,0.6,0.4,0.2,0.8,,,,,,,,,,,,,,,0.3363,,0.6,0.4,0.2,0.8,0.6,0.4,0.2,0.8,,,0.4031,,0.2,0.8,0.6,0.4,0.4,0.6,0.8,0.2,1,0
,,664c9a37d570871d534dd3c2,66fcb86f91dea1675b35d97b,2024-10-02_06h07.48.448,mdp,2024.2.1,Win32,59.88023952,66fa4ebf79326e780c390304,,,,,,,,,,,,,,,,,,,,,711.2752,711.2752,711.2784,712.2395,0,0,left,0.4322,,712.2428,713.2219,1,0,right,713.2249,714.1211,1,0,right,1,714.1212,714.1212,714.1242,715.6196,0,11,11,11,1,0.6,0.4,0.2,0.8,,,,,,,,,,,,,,,0.4388,,0.6,0.4,0.2,0.8,0.6,0.4,0.2,0.8,,,0.3564,,0.2,0.8,0.6,0.4,0.2,0.8,0.4,0.6,1,0
,,664c9a37d570871d534dd3c2,66fcb86f91dea1675b35d97b,2024-10-02_06h07.48.448,mdp,2024.2.1,Win32,59.88023952,66fa4ebf79326e780c390304,,,,,,,,,,,,,,,,,,,,,715.621,715.6211,715.6243,716.5854,0,0,left,0.4337,,716.5887,717.5015,1,1,right,717.5046,718.3836,1,1,right,0,718.3839,718.3839,718.3872,719.8826,0,12,12,12,1,0.6,0.4,0.2,0.8,,,,,,,,,,,,,,,0.3836,,0.6,0.4,0.2,0.8,0.6,0.4,0.2,0.8,,,0.3373,,0.2,0.8,0.6,0.4,0.2,0.8,0.4,0.6,1,0
,,664c9a37d570871d534dd3c2,66fcb86f91dea1675b35d97b,2024-10-02_06h07.48.448,mdp,2024.2.1,Win32,59.88023952,66fa4ebf79326e780c390304,,,,,,,,,,,,,,,,,,,,,719.8836,719.8837,719.8868,720.5482,1,1,right,0.1341,,720.5514,721.514,1,1,right,721.5172,722.4466,0,1,left,0,722.4467,722.4467,722.4498,723.945,0,13,13,13,1,0.6,0.4,0.2,0.8,,,,,,,,,,,,,,,0.4217,,0.6,0.4,0.2,0.8,0.6,0.4,0.2,0.8,,,0.4009,,0.2,0.8,0.6,0.4,0.2,0.8,0.4,0.6,1,0
,,664c9a37d570871d534dd3c2,66fcb86f91dea1675b35d97b,2024-10-02_06h07.48.448,mdp,2024.2.1,Win32,59.88023952,66fa4ebf79326e780c390304,,,,,,,,,,,,,,,,,,,,,723.9463,723.9464,723.9496,724.4944,1,1,right,0.0158,,724.4977,725.6108,0,1,left,725.6139,726.5925,1,0,right,1,726.5927,726.5927,726.5957,728.0914,0,14,14,14,1,0.6,0.4,0.2,0.8,,,,,,,,,,,,,,,0.5862,,0.6,0.4,0.2,0.8,0.6,0.4,0.2,0.8,,,0.4537,,0.2,0.8,0.6,0.4,0.2,0.8,0.4,0.6,1,0
,,664c9a37d570871d534dd3c2,66fcb86f91dea1675b35d97b,2024-10-02_06h07.48.448,mdp,2024.2.1,Win32,59.88023952,66fa4ebf79326e780c390304,,,,,,,,,,,,,,,,,,,,,728.0926,728.0926,728.096,728.9404,1,1,right,0.32,,728.9437,729.9059,1,1,right,729.9088,730.8887,0,1,left,0,730.889,730.8891,730.8919,732.3869,0,15,15,15,1,0.6,0.4,0.2,0.8,,,,,,,,,,,,,,,0.4346,,0.2,0.8,0.6,0.4,0.6,0.4,0.2,0.8,,,0.4486,,0.2,0.8,0.6,0.4,0.2,0.8,0.4,0.6,1,0
,,664c9a37d570871d534dd3c2,66fcb86f91dea1675b35d97b,2024-10-02_06h07.48.448,mdp,2024.2.1,Win32,59.88023952,66fa4ebf79326e780c390304,,,,,,,,,,,,,,,,,,,,,732.3885,732.3885,732.3918,733.2862,0,1,left,0.3707,,733.2894,734.3853,0,0,left,734.3886,735.3508,1,0,right,1,735.351,735.351,735.3544,736.8493,0,16,16,16,1,0.6,0.4,0.2,0.8,,,,,,,,,,,,,,,0.5721,,0.2,0.8,0.6,0.4,0.6,0.4,0.2,0.8,,,0.4252,,0.2,0.8,0.6,0.4,0.2,0.8,0.4,0.6,1,0
,,664c9a37d570871d534dd3c2,66fcb86f91dea1675b35d97b,2024-10-02_06h07.48.448,mdp,2024.2.1,Win32,59.88023952,66fa4ebf79326e780c390304,,,,,,,,,,,,,,,,,,,,,736.8506,736.8506,736.8537,737.4157,0,0,left,0.0329,,737.4187,738.298,1,0,right,738.302,739.2472,1,1,right,0,739.2474,739.2475,739.2507,740.7456,0,17,17,17,1,0.6,0.4,0.2,0.8,,,,,,,,,,,,,,,0.3381,,0.2,0.8,0.6,0.4,0.6,0.4,0.2,0.8,,,0.414,,0.2,0.8,0.6,0.4,0.2,0.8,0.4,0.6,1,0
,,664c9a37d570871d534dd3c2,66fcb86f91dea1675b35d97b,2024-10-02_06h07.48.448,mdp,2024.2.1,Win32,59.88023952,66fa4ebf79326e780c390304,,,,,,,,,,,,,,,,,,,,,740.7469,740.7469,740.7503,742.2942,0,0,left,1.017,,742.2974,743.1767,0,1,left,743.1799,744.1091,0,1,left,0,744.1092,744.1093,744.1129,745.6078,0,18,18,18,1,0.6,0.4,0.2,0.8,,,,,,,,,,,,,,,0.3529,,0.2,0.8,0.6,0.4,0.6,0.4,0.2,0.8,,,0.3896,,0.2,0.8,0.6,0.4,0.2,0.8,0.4,0.6,1,0
,,664c9a37d570871d534dd3c2,66fcb86f91dea1675b35d97b,2024-10-02_06h07.48.448,mdp,2024.2.1,Win32,59.88023952,66fa4ebf79326e780c390304,,,,,,,,,,,,,,,,,,,,,745.6092,745.6092,745.6125,746.7898,1,0,right,0.6529,,746.7929,747.6892,1,0,right,747.6927,748.6047,1,0,right,1,748.6051,748.6051,748.6085,750.1034,0,19,19,19,1,0.6,0.4,0.2,0.8,,,,,,,,,,,,,,,0.3687,,0.2,0.8,0.6,0.4,0.6,0.4,0.2,0.8,,,0.3735,,0.2,0.8,0.6,0.4,0.2,0.8,0.4,0.6,1,0
,,664c9a37d570871d534dd3c2,66fcb86f91dea1675b35d97b,2024-10-02_06h07.48.448,mdp,2024.2.1,Win32,59.88023952,66fa4ebf79326e780c390304,,,,,,,,,,,,,,,,,,,,,750.1047,750.1047,750.108,750.7194,1,1,right,0.0833,,750.7224,751.6852,0,0,left,751.6883,752.6345,1,1,right,0,752.6347,752.6348,752.6381,754.1329,0,20,20,20,1,0.6,0.4,0.2,0.8,,,,,,,,,,,,,,,0.4262,,0.2,0.8,0.6,0.4,0.6,0.4,0.2,0.8,,,0.4195,,0.2,0.8,0.6,0.4,0.2,0.8,0.4,0.6,1,0
,,664c9a37d570871d534dd3c2,66fcb86f91dea1675b35d97b,2024-10-02_06h07.48.448,mdp,2024.2.1,Win32,59.88023952,66fa4ebf79326e780c390304,,,,,,,,,,,,,,,,,,,,,754.1342,754.1342,754.1373,755.565,1,0,right,0.9015,,755.568,756.5637,1,0,right,756.5669,757.6298,0,1,left,0,757.6301,757.6301,757.6337,759.1281,0,21,21,21,1,0.8,0.2,0.8,0.2,,,,,,,,,,,,,,,0.4566,,0.2,0.8,0.6,0.4,0.6,0.4,0.2,0.8,,,0.5347,,0.2,0.8,0.6,0.4,0.2,0.8,0.4,0.6,1,0
,,664c9a37d570871d534dd3c2,66fcb86f91dea1675b35d97b,2024-10-02_06h07.48.448,mdp,2024.2.1,Win32,59.88023952,66fa4ebf79326e780c390304,,,,,,,,,,,,,,,,,,,,,759.1293,759.1294,759.1324,760.2769,1,0,right,0.6151,,760.2801,761.1098,1,0,right,761.1128,762.0587,1,0,right,1,762.0591,762.0592,762.0623,763.5575,0,22,22,22,1,0.8,0.2,0.8,0.2,,,,,,,,,,,,,,,0.3002,,0.2,0.8,0.6,0.4,0.6,0.4,0.2,0.8,,,0.4174,,0.2,0.8,0.6,0.4,0.2,0.8,0.4,0.6,1,0
,,664c9a37d570871d534dd3c2,66fcb86f91dea1675b35d97b,2024-10-02_06h07.48.448,mdp,2024.2.1,Win32,59.88023952,66fa4ebf79326e780c390304,,,,,,,,,,,,,,,,,,,,,763.5587,763.5588,763.5625,764.1068,1,1,right,0.0179,,764.1101,765.1059,1,1,right,765.1088,766.1714,1,1,right,0,766.1717,766.1717,766.1748,767.6699,0,23,23,23,1,0.8,0.2,0.8,0.2,,,,,,,,,,,,,,,0.4603,,0.2,0.8,0.6,0.4,0.6,0.4,0.2,0.8,,,0.5199,,0.2,0.8,0.6,0.4,0.4,0.6,0.2,0.8,1,0
,,664c9a37d570871d534dd3c2,66fcb86f91dea1675b35d97b,2024-10-02_06h07.48.448,mdp,2024.2.1,Win32,59.88023952,66fa4ebf79326e780c390304,,,,,,,,,,,,,,,,,,,,,767.6714,767.6715,767.6747,768.2193,1,0,right,0.0156,,768.2229,769.1358,0,1,left,769.139,770.0677,1,0,right,1,770.0682,770.0682,770.0728,771.5662,0,24,24,24,1,0.8,0.2,0.8,0.2,,,,,,,,,,,,,,,0.3687,,0.2,0.8,0.6,0.4,0.6,0.4,0.2,0.8,,,0.401,,0.2,0.8,0.6,0.4,0.4,0.6,0.2,0.8,1,0
,,664c9a37d570871d534dd3c2,66fcb86f91dea1675b35d97b,2024-10-02_06h07.48.448,mdp,2024.2.1,Win32,59.88023952,66fa4ebf79326e780c390304,,,,,,,,,,,,,,,,,,,,,771.5679,771.5679,771.5718,772.9652,0,1,left,0.8681,,772.9686,774.0973,1,0,right,774.1006,775.2294,1,0,right,1,775.2296,775.2297,775.2326,776.7279,0,25,25,25,1,0.8,0.2,0.8,0.2,,,,,,,,,,,,,,,0.5876,,0.2,0.8,0.6,0.4,0.6,0.4,0.2,0.8,,,0.5884,,0.2,0.8,0.6,0.4,0.4,0.6,0.2,0.8,1,0
,,664c9a37d570871d534dd3c2,66fcb86f91dea1675b35d97b,2024-10-02_06h07.48.448,mdp,2024.2.1,Win32,59.88023952,66fa4ebf79326e780c390304,,,,,,,,,,,,,,,,,,,,,776.7293,776.7293,776.7326,777.3441,0,1,left,0.082,,777.3476,778.3266,0,0,left,778.3298,779.2256,1,0,right,1,779.2259,779.2259,779.2293,780.724,0,26,26,26,1,0.8,0.2,0.8,0.2,,,,,,,,,,,,,,,0.448,,0.2,0.8,0.6,0.4,0.6,0.4,0.2,0.8,,,0.3701,,0.2,0.8,0.6,0.4,0.4,0.6,0.2,0.8,1,0
,,664c9a37d570871d534dd3c2,66fcb86f91dea1675b35d97b,2024-10-02_06h07.48.448,mdp,2024.2.1,Win32,59.88023952,66fa4ebf79326e780c390304,,,,,,,,,,,,,,,,,,,,,780.7254,780.7254,780.7285,781.3735,0,0,left,0.1165,,781.3767,782.3062,1,1,right,782.3095,783.2717,1,0,right,1,783.272,783.272,783.2751,784.7702,0,27,27,27,1,0.8,0.2,0.8,0.2,,,,,,,,,,,,,,,0.383,,0.2,0.8,0.6,0.4,0.6,0.4,0.2,0.8,,,0.4231,,0.2,0.8,0.6,0.4,0.8,0.2,0.8,0.2,1,0
,,664c9a37d570871d534dd3c2,66fcb86f91dea1675b35d97b,2024-10-02_06h07.48.448,mdp,2024.2.1,Win32,59.88023952,66fa4ebf79326e780c390304,,,,,,,,,,,,,,,,,,,,,784.7716,784.7717,784.7752,785.5196,0,0,left,0.2208,,785.523,786.4519,1,0,right,786.4553,787.5843,0,1,left,0,787.5847,787.5847,787.5877,789.0829,0,28,28,28,1,0.8,0.2,0.8,0.2,,,,,,,,,,,,,,,0.404,,0.2,0.8,0.6,0.4,0.4,0.6,0.6,0.4,,,0.594,,0.2,0.8,0.6,0.4,0.8,0.2,0.8,0.2,1,0
,,664c9a37d570871d534dd3c2,66fcb86f91dea1675b35d97b,2024-10-02_06h07.48.448,mdp,2024.2.1,Win32,59.88023952,66fa4ebf79326e780c390304,,,,,,,,,,,,,,,,,,,,,789.0843,789.0844,789.088,790.2982,1,0,right,0.6872,,790.3018,791.2307,1,0,right,791.2341,792.2798,1,0,right,1,792.28,792.2801,792.2834,793.7782,0,29,29,29,1,0.8,0.2,0.8,0.2,,,,,,,,,,,,,,,0.4041,,0.2,0.8,0.6,0.4,0.4,0.6,0.6,0.4,,,0.5188,,0.2,0.8,0.6,0.4,0.8,0.2,0.8,0.2,1,0
,,664c9a37d570871d534dd3c2,66fcb86f91dea1675b35d97b,2024-10-02_06h07.48.448,mdp,2024.2.1,Win32,59.88023952,66fa4ebf79326e780c390304,,,,,,,,,,,,,,,,,,,,,793.7797,793.7797,793.7829,794.411,0,0,left,0.0985,,794.4141,795.2768,1,0,right,795.28,796.2259,1,1,right,0,796.2261,796.2261,796.229,797.7248,0,30,30,30,1,0.8,0.2,0.8,0.2,,,,,,,,,,,,,,,0.3369,,0.2,0.8,0.6,0.4,0.4,0.6,0.6,0.4,,,0.4211,,0.2,0.8,0.6,0.4,0.8,0.2,0.8,0.2,1,0
,,664c9a37d570871d534dd3c2,66fcb86f91dea1675b35d97b,2024-10-02_06h07.48.448,mdp,2024.2.1,Win32,59.88023952,66fa4ebf79326e780c390304,,,,,,,,,,,,,,,,,,,,,797.726,797.726,797.7295,799.1399,1,0,right,0.8842,,799.143,800.039,0,1,left,800.0422,801.0215,1,0,right,1,801.0217,801.0217,801.0247,802.5199,0,31,31,31,1,0.8,0.2,0.8,0.2,,,,,,,,,,,,,,,0.3647,,0.6,0.4,0.2,0.8,0.4,0.6,0.6,0.4,,,0.4405,,0.2,0.8,0.6,0.4,0.8,0.2,0.8,0.2,1,0
,,664c9a37d570871d534dd3c2,66fcb86f91dea1675b35d97b,2024-10-02_06h07.48.448,mdp,2024.2.1,Win32,59.88023952,66fa4ebf79326e780c390304,,,,,,,,,,,,,,,,,,,,,802.5214,802.5215,802.5249,803.2199,0,0,left,0.1706,,803.2233,804.135,1,0,right,804.1382,805.0841,1,0,right,1,805.0843,805.0843,805.0872,806.5826,0,32,32,32,1,0.8,0.2,0.8,0.2,,,,,,,,,,,,,,,0.383,,0.6,0.4,0.2,0.8,0.4,0.6,0.6,0.4,,,0.4095,,0.2,0.8,0.6,0.4,0.8,0.2,0.8,0.2,1,0
,,664c9a37d570871d534dd3c2,66fcb86f91dea1675b35d97b,2024-10-02_06h07.48.448,mdp,2024.2.1,Win32,59.88023952,66fa4ebf79326e780c390304,,,,,,,,,,,,,,,,,,,,,806.584,806.5841,806.5874,807.865,0,0,left,0.7481,,807.8681,808.8308,1,1,right,808.8336,810.0129,1,0,right,1,810.0132,810.0133,810.0163,811.5113,0,33,33,33,1,0.8,0.2,0.8,0.2,,,,,,,,,,,,,,,0.4378,,0.6,0.4,0.2,0.8,0.4,0.6,0.6,0.4,,,0.6405,,0.2,0.8,0.6,0.4,0.8,0.2,0.8,0.2,1,0
,,664c9a37d570871d534dd3c2,66fcb86f91dea1675b35d97b,2024-10-02_06h07.48.448,mdp,2024.2.1,Win32,59.88023952,66fa4ebf79326e780c390304,,,,,,,,,,,,,,,,,,,,,811.5127,811.5128,811.5158,812.7936,1,1,right,0.7544,,812.7968,813.6759,1,1,right,813.6792,814.5597,0,0,left,1,814.5599,814.5599,814.5634,816.0571,0,34,34,34,1,0.8,0.2,0.8,0.2,,,,,,,,,,,,,,,0.3435,,0.6,0.4,0.2,0.8,0.4,0.6,0.6,0.4,,,0.3574,,0.2,0.8,0.6,0.4,0.8,0.2,0.8,0.2,1,0
,,664c9a37d570871d534dd3c2,66fcb86f91dea1675b35d97b,2024-10-02_06h07.48.448,mdp,2024.2.1,Win32,59.88023952,66fa4ebf79326e780c390304,,,,,,,,,,,,,,,,,,,,,816.0592,816.0592,816.0627,816.5901,0,0,left,0.005,,816.5936,817.5889,0,1,left,817.5921,818.6046,1,0,right,1,818.6052,818.6052,818.6082,820.1034,0,35,35,35,1,0.8,0.2,0.8,0.2,,,,,,,,,,,,,,,0.4491,,0.6,0.4,0.2,0.8,0.4,0.6,0.6,0.4,,,0.4857,,0.2,0.8,0.6,0.4,0.8,0.2,0.8,0.2,1,0
,,664c9a37d570871d534dd3c2,66fcb86f91dea1675b35d97b,2024-10-02_06h07.48.448,mdp,2024.2.1,Win32,59.88023952,66fa4ebf79326e780c390304,,,,,,,,,,,,,,,,,,,,,820.1052,820.1053,820.1093,821.452,1,0,right,0.8156,,821.4553,822.3513,0,0,left,822.3544,823.3005,0,1,left,0,823.3009,823.3009,823.3048,824.7986,0,36,36,36,1,0.8,0.2,0.8,0.2,,,,,,,,,,,,,,,0.3674,,0.6,0.4,0.2,0.8,0.4,0.6,0.6,0.4,,,0.4056,,0.2,0.8,0.6,0.4,0.8,0.2,0.8,0.2,1,0
,,664c9a37d570871d534dd3c2,66fcb86f91dea1675b35d97b,2024-10-02_06h07.48.448,mdp,2024.2.1,Win32,59.88023952,66fa4ebf79326e780c390304,,,,,,,,,,,,,,,,,,,,,824.8,824.8,824.8036,826.1808,1,0,right,0.8481,,826.1836,827.1633,0,1,left,827.1666,828.129,1,0,right,1,828.1293,828.1294,828.134,829.6273,0,37,37,37,1,0.8,0.2,0.8,0.2,,,,,,,,,,,,,,,0.4489,,0.6,0.4,0.2,0.8,0.4,0.6,0.6,0.4,,,0.4232,,0.2,0.8,0.6,0.4,0.8,0.2,0.8,0.2,1,0
,,664c9a37d570871d534dd3c2,66fcb86f91dea1675b35d97b,2024-10-02_06h07.48.448,mdp,2024.2.1,Win32,59.88023952,66fa4ebf79326e780c390304,,,,,,,,,,,,,,,,,,,,,829.6286,829.6287,829.632,830.6764,1,0,right,0.523,,830.6797,831.4924,1,1,right,831.4953,832.4249,0,0,left,1,832.4252,832.4252,832.428,833.9233,0,38,38,38,1,0.8,0.2,0.8,0.2,,,,,,,,,,,,,,,0.2832,,0.6,0.4,0.2,0.8,0.4,0.6,0.6,0.4,,,0.4056,,0.2,0.8,0.6,0.4,0.8,0.2,0.8,0.2,1,0
,,664c9a37d570871d534dd3c2,66fcb86f91dea1675b35d97b,2024-10-02_06h07.48.448,mdp,2024.2.1,Win32,59.88023952,66fa4ebf79326e780c390304,,,,,,,,,,,,,,,,,,,,,833.9247,833.9247,833.9282,835.0388,1,0,right,0.5869,,835.042,836.0379,0,1,left,836.0413,837.0536,1,0,right,1,837.0538,837.0538,837.0567,838.5524,0,39,39,39,1,0.8,0.2,0.8,0.2,,,,,,,,,,,,,,,0.4671,,0.6,0.4,0.2,0.8,0.4,0.6,0.6,0.4,,,0.4825,,0.2,0.8,0.6,0.4,0.8,0.2,0.8,0.2,1,0
,,664c9a37d570871d534dd3c2,66fcb86f91dea1675b35d97b,2024-10-02_06h07.48.448,mdp,2024.2.1,Win32,59.88023952,66fa4ebf79326e780c390304,,,,,,,,,,,,,,,,,,,,,838.5536,838.5536,838.5569,839.6011,1,0,right,0.5199,,839.6042,840.5003,1,0,right,840.5042,841.3831,0,1,left,0,841.3833,841.3834,841.3871,842.8815,0,40,40,40,1,0.8,0.2,0.8,0.2,,,,,,,,,,,,,,,0.3679,,0.6,0.4,0.2,0.8,0.4,0.6,0.6,0.4,,,0.3402,,0.2,0.8,0.6,0.4,0.8,0.2,0.8,0.2,1,0
,,664c9a37d570871d534dd3c2,66fcb86f91dea1675b35d97b,2024-10-02_06h07.48.448,mdp,2024.2.1,Win32,59.88023952,66fa4ebf79326e780c390304,,,,,,,,,,,,,,,,,,,,,842.8828,842.8829,842.8862,844.1804,0,0,left,0.7689,,844.1839,845.1294,1,0,right,845.1333,846.1616,1,1,right,0,846.1618,846.1618,846.1646,847.6603,0,41,41,41,1,0.8,0.2,0.8,0.2,,,,,,,,,,,,,,,0.4177,,0.6,0.4,0.2,0.8,0.4,0.6,0.6,0.4,,,0.5046,,0.2,0.8,0.6,0.4,0.8,0.2,0.8,0.2,1,0
,,664c9a37d570871d534dd3c2,66fcb86f91dea1675b35d97b,2024-10-02_06h07.48.448,mdp,2024.2.1,Win32,59.88023952,66fa4ebf79326e780c390304,,,,,,,,,,,,,,,,,,,,,847.6616,847.6617,847.6654,848.9923,1,0,right,0.7994,,848.9957,850.0744,0,0,left,850.0776,851.1736,0,1,left,0,851.1739,851.1739,851.1769,852.672,0,42,42,42,1,0.8,0.2,0.8,0.2,,,,,,,,,,,,,,,0.5515,,0.6,0.4,0.2,0.8,0.4,0.6,0.6,0.4,,,0.5694,,0.2,0.8,0.6,0.4,0.8,0.2,0.8,0.2,1,0
,,664c9a37d570871d534dd3c2,66fcb86f91dea1675b35d97b,2024-10-02_06h07.48.448,mdp,2024.2.1,Win32,59.88023952,66fa4ebf79326e780c390304,,,,,,,,,,,,,,,,,,,,,852.6733,852.6734,852.6768,853.8209,0,0,left,0.6153,,853.8242,854.7368,1,0,right,854.7404,855.636,1,0,right,1,855.6361,855.6361,855.6394,857.1345,0,43,43,43,1,0.8,0.2,0.8,0.2,,,,,,,,,,,,,,,0.3842,,0.2,0.8,0.4,0.6,0.4,0.6,0.6,0.4,,,0.3671,,0.2,0.8,0.6,0.4,0.8,0.2,0.8,0.2,1,0
,,664c9a37d570871d534dd3c2,66fcb86f91dea1675b35d97b,2024-10-02_06h07.48.448,mdp,2024.2.1,Win32,59.88023952,66fa4ebf79326e780c390304,,,,,,,,,,,,,,,,,,,,,857.1358,857.1358,857.1391,858.6163,0,0,left,0.9531,,858.6197,859.7992,0,0,left,859.8033,860.7976,1,1,right,0,860.7979,860.7979,860.8011,862.2963,0,44,44,44,1,0.4,0.6,0.6,0.4,,,,,,,,,,,,,,,0.6541,,0.2,0.8,0.4,0.6,0.4,0.6,0.6,0.4,,,0.4691,,0.2,0.8,0.6,0.4,0.8,0.2,0.8,0.2,1,0
,,664c9a37d570871d534dd3c2,66fcb86f91dea1675b35d97b,2024-10-02_06h07.48.448,mdp,2024.2.1,Win32,59.88023952,66fa4ebf79326e780c390304,,,,,,,,,,,,,,,,,,,,,862.2975,862.2975,862.301,863.7781,1,1,right,0.9521,,863.7814,864.7283,0,1,left,864.7318,865.6597,0,0,left,1,865.66,865.6601,865.6634,867.1582,0,45,45,45,1,0.8,0.2,0.8,0.2,,,,,,,,,,,,,,,0.4071,,0.2,0.8,0.4,0.6,0.4,0.6,0.6,0.4,,,0.3928,,0.2,0.8,0.6,0.4,0.8,0.2,0.8,0.2,1,0
,,664c9a37d570871d534dd3c2,66fcb86f91dea1675b35d97b,2024-10-02_06h07.48.448,mdp,2024.2.1,Win32,59.88023952,66fa4ebf79326e780c390304,,,,,,,,,,,,,,,,,,,,,867.1598,867.1598,867.1633,867.7246,1,0,right,0.0377,,867.728,868.7567,1,1,right,868.7596,869.7391,0,0,left,1,869.7393,869.7393,869.7421,871.2376,0,46,46,46,1,0.8,0.2,0.8,0.2,,,,,,,,,,,,,,,0.4908,,0.2,0.8,0.4,0.6,0.4,0.6,0.6,0.4,,,0.4508,,0.2,0.8,0.6,0.4,0.8,0.2,0.8,0.2,1,0
,,664c9a37d570871d534dd3c2,66fcb86f91dea1675b35d97b,2024-10-02_06h07.48.448,mdp,2024.2.1,Win32,59.88023952,66fa4ebf79326e780c390304,,,,,,,,,,,,,,,,,,,,,871.2389,871.2389,871.2419,872.6533,1,0,right,0.8878,,872.6566,873.6694,0,1,left,873.6729,874.8341,0,1,left,0,874.8344,874.8344,874.8379,876.3327,0,47,47,47,1,0.8,0.2,0.8,0.2,,,,,,,,,,,,,,,0.4871,,0.2,0.8,0.4,0.6,0.6,0.4,0.4,0.6,,,0.6364,,0.2,0.8,0.6,0.4,0.8,0.2,0.8,0.2,1,0
,,664c9a37d570871d534dd3c2,66fcb86f91dea1675b35d97b,2024-10-02_06h07.48.448,mdp,2024.2.1,Win32,59.88023952,66fa4ebf79326e780c390304,,,,,,,,,,,,,,,,,,,,,876.3342,876.3342,876.3377,877.6151,0,1,left,0.7505,,877.6183,878.5975,0,0,left,878.6013,879.7631,1,0,right,1,879.7634,879.7634,879.7668,881.2613,0,48,48,48,1,0.8,0.2,0.8,0.2,,,,,,,,,,,,,,,0.4417,,0.2,0.8,0.4,0.6,0.6,0.4,0.4,0.6,,,0.6227,,0.2,0.8,0.6,0.4,0.8,0.2,0.8,0.2,1,0
,,664c9a37d570871d534dd3c2,66fcb86f91dea1675b35d97b,2024-10-02_06h07.48.448,mdp,2024.2.1,Win32,59.88023952,66fa4ebf79326e780c390304,,,,,,,,,,,,,,,,,,,,,881.2627,881.2628,881.2665,882.0773,0,0,left,0.2889,,882.0805,883.4096,1,0,right,883.4127,884.3418,1,1,right,0,884.3421,884.3422,884.3453,885.8405,0,49,49,49,1,0.8,0.2,0.8,0.2,,,,,,,,,,,,,,,0.7885,,0.2,0.8,0.4,0.6,0.6,0.4,0.4,0.6,,,0.4014,,0.6,0.4,0.2,0.8,0.8,0.2,0.8,0.2,1,0
,,664c9a37d570871d534dd3c2,66fcb86f91dea1675b35d97b,2024-10-02_06h07.48.448,mdp,2024.2.1,Win32,59.88023952,66fa4ebf79326e780c390304,,,,,,,,,,,,,,,,,,,,,,,,,,,,,,,,,,,,,,,,,,,,,,,,,,,,,,,,885.8408,944.3518,0,2,2,5,1,imgs/goat.png,imgs/lion.png,imgs/giraffe.png,imgs/dog.png,imgs/bear.png,,,,,,,,,,,,,,,,,,,,,,,,
,,664c9a37d570871d534dd3c2,66fcb86f91dea1675b35d97b,2024-10-02_06h07.48.448,mdp,2024.2.1,Win32,59.88023952,66fa4ebf79326e780c390304,,,,,,,,,,,,,,3,seqs/st3seq11.csv,944.3533,960.2026,space,15.3233,,960.2263,960.2264,960.2284,961.6345,0,0,left,0.8606,,961.6375,962.6004,0,0,left,962.6039,963.5329,0,1,left,0,963.5331,963.5331,963.536,965.0313,0,0,0,0,1,0.8,0.2,0.2,0.8,,,,,,,,,,,,,,,0.4213,,0.8,0.2,0.2,0.8,0.2,0.8,0.2,0.8,,,0.3854,,0.6,0.4,0.2,0.8,0.2,0.8,0.4,0.6,1,0
,,664c9a37d570871d534dd3c2,66fcb86f91dea1675b35d97b,2024-10-02_06h07.48.448,mdp,2024.2.1,Win32,59.88023952,66fa4ebf79326e780c390304,,,,,,,,,,,,,,,,,,,,,965.0327,965.0328,965.036,965.8806,1,0,right,0.317,,965.885,966.713,1,1,right,966.7165,967.6623,0,1,left,0,967.6625,967.6626,967.6658,969.1608,0,1,1,1,1,0.8,0.2,0.2,0.8,,,,,,,,,,,,,,,0.2977,,0.8,0.2,0.2,0.8,0.2,0.8,0.2,0.8,,,0.4048,,0.6,0.4,0.2,0.8,0.2,0.8,0.4,0.6,1,0
,,664c9a37d570871d534dd3c2,66fcb86f91dea1675b35d97b,2024-10-02_06h07.48.448,mdp,2024.2.1,Win32,59.88023952,66fa4ebf79326e780c390304,,,,,,,,,,,,,,,,,,,,,969.1621,969.1621,969.1659,970.0268,1,0,right,0.3377,,970.0301,971.0602,0,1,left,971.0637,972.2246,0,1,left,0,972.2247,972.2248,972.2275,973.7233,0,2,2,2,1,0.8,0.2,0.2,0.8,,,,,,,,,,,,,,,0.5079,,0.8,0.2,0.2,0.8,0.2,0.8,0.2,0.8,,,0.6313,,0.6,0.4,0.2,0.8,0.2,0.8,0.4,0.6,1,0
,,664c9a37d570871d534dd3c2,66fcb86f91dea1675b35d97b,2024-10-02_06h07.48.448,mdp,2024.2.1,Win32,59.88023952,66fa4ebf79326e780c390304,,,,,,,,,,,,,,,,,,,,,973.7246,973.7247,973.7283,974.9552,1,1,right,0.702,,974.9584,975.7714,1,1,right,975.7749,976.8036,0,1,left,0,976.8037,976.8037,976.8068,978.3018,0,3,3,3,1,0.8,0.2,0.2,0.8,,,,,,,,,,,,,,,0.266,,0.8,0.2,0.2,0.8,0.2,0.8,0.2,0.8,,,0.5053,,0.6,0.4,0.2,0.8,0.2,0.8,0.4,0.6,1,0
,,664c9a37d570871d534dd3c2,66fcb86f91dea1675b35d97b,2024-10-02_06h07.48.448,mdp,2024.2.1,Win32,59.88023952,66fa4ebf79326e780c390304,,,,,,,,,,,,,,,,,,,,,978.3032,978.3033,978.3068,979.3343,1,1,right,0.5004,,979.3372,980.4167,1,1,right,980.42,981.3823,1,0,right,1,981.3826,981.3826,981.3858,982.8809,0,4,4,4,1,0.8,0.2,0.2,0.8,,,,,,,,,,,,,,,0.5496,,0.8,0.2,0.2,0.8,0.4,0.6,0.4,0.6,,,0.4375,,0.6,0.4,0.2,0.8,0.2,0.8,0.4,0.6,1,0
,,664c9a37d570871d534dd3c2,66fcb86f91dea1675b35d97b,2024-10-02_06h07.48.448,mdp,2024.2.1,Win32,59.88023952,66fa4ebf79326e780c390304,,,,,,,,,,,,,,,,,,,,,982.8822,982.8822,982.8857,983.5303,0,0,left,0.1154,,983.5333,984.4629,0,0,left,984.4658,985.4286,0,1,left,0,985.4287,985.4288,985.4317,986.9272,0,5,5,5,1,0.8,0.2,0.2,0.8,,,,,,,,,,,,,,,0.3924,,0.8,0.2,0.2,0.8,0.4,0.6,0.4,0.6,,,0.4227,,0.6,0.4,0.2,0.8,0.2,0.8,0.4,0.6,1,0
,,664c9a37d570871d534dd3c2,66fcb86f91dea1675b35d97b,2024-10-02_06h07.48.448,mdp,2024.2.1,Win32,59.88023952,66fa4ebf79326e780c390304,,,,,,,,,,,,,,,,,,,,,986.9286,986.9286,986.9317,988.1093,1,1,right,0.6497,,988.1129,988.9919,1,0,right,988.995,990.0574,1,1,right,0,990.0577,990.0577,990.0608,991.5559,0,6,6,6,1,0.8,0.2,0.2,0.8,,,,,,,,,,,,,,,0.3411,,0.8,0.2,0.2,0.8,0.4,0.6,0.4,0.6,,,0.5338,,0.6,0.4,0.2,0.8,0.2,0.8,0.4,0.6,1,0
,,664c9a37d570871d534dd3c2,66fcb86f91dea1675b35d97b,2024-10-02_06h07.48.448,mdp,2024.2.1,Win32,59.88023952,66fa4ebf79326e780c390304,,,,,,,,,,,,,,,,,,,,,991.5573,991.5573,991.5607,992.8547,0,0,left,0.7639,,992.8576,993.704,0,0,left,993.7073,994.603,0,1,left,0,994.6033,994.6034,994.6065,996.1017,0,7,7,7,1,0.8,0.2,0.2,0.8,,,,,,,,,,,,,,,0.304,,0.8,0.2,0.2,0.8,0.4,0.6,0.4,0.6,,,0.3661,,0.6,0.4,0.2,0.8,0.2,0.8,0.4,0.6,1,0
,,664c9a37d570871d534dd3c2,66fcb86f91dea1675b35d97b,2024-10-02_06h07.48.448,mdp,2024.2.1,Win32,59.88023952,66fa4ebf79326e780c390304,,,,,,,,,,,,,,,,,,,,,996.1033,996.1033,996.1068,997.234,0,0,left,0.6028,,997.237,998.1675,1,0,right,998.1711,999.1321,1,1,right,0,999.1322,999.1323,999.1355,1000.6306,0,8,8,8,1,0.8,0.2,0.2,0.8,,,,,,,,,,,,,,,0.4028,,0.8,0.2,0.2,0.8,0.4,0.6,0.4,0.6,,,0.4331,,0.6,0.4,0.2,0.8,0.2,0.8,0.4,0.6,1,0
,,664c9a37d570871d534dd3c2,66fcb86f91dea1675b35d97b,2024-10-02_06h07.48.448,mdp,2024.2.1,Win32,59.88023952,66fa4ebf79326e780c390304,,,,,,,,,,,,,,,,,,,,,1000.6321,1000.6321,1000.6354,1001.8794,0,0,left,0.7142,,1001.8823,1002.8121,1,1,right,1002.8154,1003.8276,1,1,right,0,1003.8279,1003.8279,1003.8307,1005.3263,0,9,9,9,1,0.8,0.2,0.2,0.8,,,,,,,,,,,,,,,0.4041,,0.8,0.2,0.2,0.8,0.4,0.6,0.4,0.6,,,0.4753,,0.6,0.4,0.2,0.8,0.2,0.8,0.4,0.6,1,0
,,664c9a37d570871d534dd3c2,66fcb86f91dea1675b35d97b,2024-10-02_06h07.48.448,mdp,2024.2.1,Win32,59.88023952,66fa4ebf79326e780c390304,,,,,,,,,,,,,,,,,,,,,1005.3278,1005.3278,1005.3315,1006.4417,0,1,left,0.5882,,1006.4447,1007.3421,0,1,left,1007.3459,1008.3911,0,1,left,0,1008.3913,1008.3913,1008.3943,1009.8884,0,10,10,10,1,0.8,0.2,0.2,0.8,,,,,,,,,,,,,,,0.3628,,0.8,0.2,0.2,0.8,0.4,0.6,0.4,0.6,,,0.5218,,0.6,0.4,0.2,0.8,0.2,0.8,0.4,0.6,1,0
,,664c9a37d570871d534dd3c2,66fcb86f91dea1675b35d97b,2024-10-02_06h07.48.448,mdp,2024.2.1,Win32,59.88023952,66fa4ebf79326e780c390304,,,,,,,,,,,,,,,,,,,,,1009.8897,1009.8897,1009.8932,1011.4537,1,1,right,1.0333,,1011.4569,1012.5026,1,1,right,1012.5057,1013.8347,0,1,left,0,1013.835,1013.8351,1013.838,1015.3333,0,11,11,11,1,0.8,0.2,0.2,0.8,,,,,,,,,,,,,,,0.5171,,0.8,0.2,0.2,0.8,0.4,0.6,0.4,0.6,,,0.798,,0.6,0.4,0.2,0.8,0.2,0.8,0.4,0.6,1,0
,,664c9a37d570871d534dd3c2,66fcb86f91dea1675b35d97b,2024-10-02_06h07.48.448,mdp,2024.2.1,Win32,59.88023952,66fa4ebf79326e780c390304,,,,,,,,,,,,,,,,,,,,,1015.3346,1015.3347,1015.338,1016.5489,1,1,right,0.6836,,1016.5521,1017.3981,1,1,right,1017.4009,1018.2807,1,0,right,1,1018.281,1018.281,1018.2846,1019.7791,0,12,12,12,1,0.8,0.2,0.2,0.8,,,,,,,,,,,,,,,0.3204,,0.8,0.2,0.2,0.8,0.4,0.6,0.4,0.6,,,0.3544,,0.6,0.4,0.2,0.8,0.2,0.8,0.4,0.6,1,0
,,664c9a37d570871d534dd3c2,66fcb86f91dea1675b35d97b,2024-10-02_06h07.48.448,mdp,2024.2.1,Win32,59.88023952,66fa4ebf79326e780c390304,,,,,,,,,,,,,,,,,,,,,1019.7804,1019.7804,1019.7834,1021.1443,1,1,right,0.8306,,1021.1476,1022.06,1,0,right,1022.0631,1022.9094,1,0,right,1,1022.9096,1022.9096,1022.9123,1024.4081,0,13,13,13,1,0.8,0.2,0.2,0.8,,,,,,,,,,,,,,,0.3796,,0.8,0.2,0.2,0.8,0.4,0.6,0.4,0.6,,,0.3058,,0.2,0.8,0.8,0.2,0.2,0.8,0.4,0.6,1,0
,,664c9a37d570871d534dd3c2,66fcb86f91dea1675b35d97b,2024-10-02_06h07.48.448,mdp,2024.2.1,Win32,59.88023952,66fa4ebf79326e780c390304,,,,,,,,,,,,,,,,,,,,,1024.4093,1024.4094,1024.4126,1025.0241,1,1,right,0.0867,,1025.0273,1025.9066,1,1,right,1025.9095,1026.8555,1,0,right,1,1026.8557,1026.8557,1026.8589,1028.3542,0,14,14,14,1,0.8,0.2,0.2,0.8,,,,,,,,,,,,,,,0.3498,,0.8,0.2,0.2,0.8,0.4,0.6,0.4,0.6,,,0.4094,,0.2,0.8,0.8,0.2,0.2,0.8,0.4,0.6,1,0
,,664c9a37d570871d534dd3c2,66fcb86f91dea1675b35d97b,2024-10-02_06h07.48.448,mdp,2024.2.1,Win32,59.88023952,66fa4ebf79326e780c390304,,,,,,,,,,,,,,,,,,,,,1028.3556,1028.3556,1028.3591,1029.5544,1,1,right,0.672,,1029.558,1030.4356,1,0,right,1030.4387,1031.3514,1,0,right,1,1031.3517,1031.3517,1031.3552,1032.85,0,15,15,15,1,0.8,0.2,0.2,0.8,,,,,,,,,,,,,,,0.3499,,0.8,0.2,0.2,0.8,0.4,0.6,0.4,0.6,,,0.3709,,0.2,0.8,0.8,0.2,0.2,0.8,0.4,0.6,1,0
,,664c9a37d570871d534dd3c2,66fcb86f91dea1675b35d97b,2024-10-02_06h07.48.448,mdp,2024.2.1,Win32,59.88023952,66fa4ebf79326e780c390304,,,,,,,,,,,,,,,,,,,,,1032.8515,1032.8515,1032.8552,1034.1177,1,0,right,0.7369,,1034.1218,1035.0315,1,1,right,1035.0348,1035.9816,1,1,right,0,1035.982,1035.982,1035.989,1037.4789,0,16,16,16,1,0.8,0.2,0.2,0.8,,,,,,,,,,,,,,,0.3696,,0.8,0.2,0.2,0.8,0.4,0.6,0.4,0.6,,,0.4186,,0.2,0.8,0.8,0.2,0.2,0.8,0.4,0.6,1,0
,,664c9a37d570871d534dd3c2,66fcb86f91dea1675b35d97b,2024-10-02_06h07.48.448,mdp,2024.2.1,Win32,59.88023952,66fa4ebf79326e780c390304,,,,,,,,,,,,,,,,,,,,,1037.4805,1037.4806,1037.4845,1038.6942,0,0,left,0.6829,,1038.6977,1039.5935,0,0,left,1039.597,1040.6257,0,0,left,1,1040.6259,1040.6259,1040.6287,1042.1244,0,17,17,17,1,0.6,0.4,0.6,0.4,,,,,,,,,,,,,,,0.3673,,0.8,0.2,0.2,0.8,0.4,0.6,0.4,0.6,,,0.4862,,0.2,0.8,0.8,0.2,0.2,0.8,0.4,0.6,1,0
,,664c9a37d570871d534dd3c2,66fcb86f91dea1675b35d97b,2024-10-02_06h07.48.448,mdp,2024.2.1,Win32,59.88023952,66fa4ebf79326e780c390304,,,,,,,,,,,,,,,,,,,,,1042.1257,1042.1257,1042.129,1043.3398,0,1,left,0.6847,,1043.3428,1044.1891,0,1,left,1044.1924,1045.0882,0,1,left,0,1045.0885,1045.0885,1045.0917,1046.5866,0,18,18,18,1,0.6,0.4,0.6,0.4,,,,,,,,,,,,,,,0.3061,,0.8,0.2,0.2,0.8,0.4,0.6,0.4,0.6,,,0.358,,0.2,0.8,0.8,0.2,0.2,0.8,0.4,0.6,1,0
,,664c9a37d570871d534dd3c2,66fcb86f91dea1675b35d97b,2024-10-02_06h07.48.448,mdp,2024.2.1,Win32,59.88023952,66fa4ebf79326e780c390304,,,,,,,,,,,,,,,,,,,,,1046.588,1046.588,1046.5916,1047.8189,1,0,right,0.7022,,1047.8223,1048.668,1,1,right,1048.6711,1049.5838,1,0,right,1,1049.584,1049.584,1049.5868,1051.0826,0,19,19,19,1,0.6,0.4,0.6,0.4,,,,,,,,,,,,,,,0.3068,,0.8,0.2,0.2,0.8,0.4,0.6,0.4,0.6,,,0.3839,,0.2,0.8,0.8,0.2,0.2,0.8,0.4,0.6,1,0
,,664c9a37d570871d534dd3c2,66fcb86f91dea1675b35d97b,2024-10-02_06h07.48.448,mdp,2024.2.1,Win32,59.88023952,66fa4ebf79326e780c390304,,,,,,,,,,,,,,,,,,,,,1051.0839,1051.0839,1051.0872,1051.6818,1,0,right,0.0678,,1051.6849,1052.6808,1,1,right,1052.6837,1053.6136,1,0,right,1,1053.6138,1053.6138,1053.6171,1055.1123,0,20,20,20,1,0.6,0.4,0.6,0.4,,,,,,,,,,,,,,,0.4685,,0.8,0.2,0.2,0.8,0.4,0.6,0.4,0.6,,,0.4069,,0.2,0.8,0.8,0.2,0.2,0.8,0.4,0.6,1,0
,,664c9a37d570871d534dd3c2,66fcb86f91dea1675b35d97b,2024-10-02_06h07.48.448,mdp,2024.2.1,Win32,59.88023952,66fa4ebf79326e780c390304,,,,,,,,,,,,,,,,,,,,,1055.1136,1055.1137,1055.1174,1056.3275,1,0,right,0.6871,,1056.3306,1057.195,1,1,right,1057.1983,1058.0926,1,1,right,0,1058.0928,1058.0929,1058.096,1059.5911,0,21,21,21,1,0.6,0.4,0.6,0.4,,,,,,,,,,,,,,,0.3417,,0.8,0.2,0.2,0.8,0.6,0.4,0.2,0.8,,,0.3729,,0.2,0.8,0.8,0.2,0.2,0.8,0.4,0.6,1,0
,,664c9a37d570871d534dd3c2,66fcb86f91dea1675b35d97b,2024-10-02_06h07.48.448,mdp,2024.2.1,Win32,59.88023952,66fa4ebf79326e780c390304,,,,,,,,,,,,,,,,,,,,,1059.5924,1059.5925,1059.5958,1060.6733,0,1,left,0.554,,1060.6763,1061.6558,0,0,left,1061.659,1062.5882,0,1,left,0,1062.5883,1062.5883,1062.5913,1064.0866,0,22,22,22,1,0.6,0.4,0.6,0.4,,,,,,,,,,,,,,,0.4425,,0.8,0.2,0.2,0.8,0.6,0.4,0.2,0.8,,,0.3931,,0.2,0.8,0.8,0.2,0.8,0.2,0.2,0.8,1,0
,,664c9a37d570871d534dd3c2,66fcb86f91dea1675b35d97b,2024-10-02_06h07.48.448,mdp,2024.2.1,Win32,59.88023952,66fa4ebf79326e780c390304,,,,,,,,,,,,,,,,,,,,,1064.0879,1064.088,1064.0912,1065.2023,1,0,right,0.5816,,1065.2054,1066.1845,1,0,right,1066.1877,1067.0838,1,0,right,1,1067.0839,1067.0839,1067.0868,1068.5823,0,23,23,23,1,0.6,0.4,0.6,0.4,,,,,,,,,,,,,,,0.4432,,0.6,0.4,0.6,0.4,0.6,0.4,0.2,0.8,,,0.3708,,0.2,0.8,0.8,0.2,0.8,0.2,0.2,0.8,1,0
,,664c9a37d570871d534dd3c2,66fcb86f91dea1675b35d97b,2024-10-02_06h07.48.448,mdp,2024.2.1,Win32,59.88023952,66fa4ebf79326e780c390304,,,,,,,,,,,,,,,,,,,,,1068.5837,1068.5837,1068.587,1069.1818,0,0,left,0.07,,1069.1847,1070.081,0,0,left,1070.0841,1071.0303,0,1,left,0,1071.0304,1071.0304,1071.0333,1072.5286,0,24,24,24,1,0.6,0.4,0.6,0.4,,,,,,,,,,,,,,,0.381,,0.6,0.4,0.6,0.4,0.6,0.4,0.2,0.8,,,0.4155,,0.2,0.8,0.8,0.2,0.8,0.2,0.2,0.8,1,0
,,664c9a37d570871d534dd3c2,66fcb86f91dea1675b35d97b,2024-10-02_06h07.48.448,mdp,2024.2.1,Win32,59.88023952,66fa4ebf79326e780c390304,,,,,,,,,,,,,,,,,,,,,1072.5301,1072.5301,1072.5339,1073.1447,0,0,left,0.0842,,1073.148,1074.0105,1,1,right,1074.0137,1074.9098,1,0,right,1,1074.9101,1074.9102,1074.9135,1076.4082,0,25,25,25,1,0.6,0.4,0.6,0.4,,,,,,,,,,,,,,,0.3368,,0.6,0.4,0.6,0.4,0.6,0.4,0.2,0.8,,,0.3499,,0.2,0.8,0.8,0.2,0.8,0.2,0.2,0.8,1,0
,,664c9a37d570871d534dd3c2,66fcb86f91dea1675b35d97b,2024-10-02_06h07.48.448,mdp,2024.2.1,Win32,59.88023952,66fa4ebf79326e780c390304,,,,,,,,,,,,,,,,,,,,,1076.4096,1076.4096,1076.4135,1077.474,1,1,right,0.5325,,1077.4774,1078.3729,0,0,left,1078.3761,1079.3386,0,1,left,0,1079.3388,1079.3388,1079.3429,1080.8374,0,26,26,26,1,0.6,0.4,0.6,0.4,,,,,,,,,,,,,,,0.3596,,0.6,0.4,0.6,0.4,0.6,0.4,0.2,0.8,,,0.4213,,0.2,0.8,0.8,0.2,0.8,0.2,0.2,0.8,1,0
,,664c9a37d570871d534dd3c2,66fcb86f91dea1675b35d97b,2024-10-02_06h07.48.448,mdp,2024.2.1,Win32,59.88023952,66fa4ebf79326e780c390304,,,,,,,,,,,,,,,,,,,,,1080.8387,1080.8387,1080.8418,1082.0029,0,0,left,0.6347,,1082.006,1083.0351,1,0,right,1083.0383,1083.8677,0,1,left,0,1083.8679,1083.8681,1083.8711,1085.3664,0,27,27,27,1,0.6,0.4,0.6,0.4,,,,,,,,,,,,,,,0.4938,,0.6,0.4,0.6,0.4,0.6,0.4,0.2,0.8,,,0.2988,,0.2,0.8,0.8,0.2,0.8,0.2,0.2,0.8,1,0
,,664c9a37d570871d534dd3c2,66fcb86f91dea1675b35d97b,2024-10-02_06h07.48.448,mdp,2024.2.1,Win32,59.88023952,66fa4ebf79326e780c390304,,,,,,,,,,,,,,,,,,,,,1085.368,1085.368,1085.3717,1085.9992,1,0,right,0.1038,,1086.0024,1086.7984,1,0,right,1086.802,1087.8151,1,0,right,1,1087.8153,1087.8154,1087.8183,1089.3126,0,28,28,28,1,0.6,0.4,0.6,0.4,,,,,,,,,,,,,,,0.2698,,0.6,0.4,0.6,0.4,0.6,0.4,0.2,0.8,,,0.4908,,0.2,0.8,0.8,0.2,0.8,0.2,0.2,0.8,1,0
,,664c9a37d570871d534dd3c2,66fcb86f91dea1675b35d97b,2024-10-02_06h07.48.448,mdp,2024.2.1,Win32,59.88023952,66fa4ebf79326e780c390304,,,,,,,,,,,,,,,,,,,,,1089.314,1089.3141,1089.317,1090.7613,1,0,right,0.9151,,1090.7643,1091.6936,1,0,right,1091.6965,1092.7093,1,0,right,1,1092.7094,1092.7095,1092.7126,1094.2081,0,29,29,29,1,0.6,0.4,0.6,0.4,,,,,,,,,,,,,,,0.3997,,0.6,0.4,0.6,0.4,0.6,0.4,0.2,0.8,,,0.4873,,0.2,0.8,0.8,0.2,0.8,0.2,0.2,0.8,1,0
,,664c9a37d570871d534dd3c2,66fcb86f91dea1675b35d97b,2024-10-02_06h07.48.448,mdp,2024.2.1,Win32,59.88023952,66fa4ebf79326e780c390304,,,,,,,,,,,,,,,,,,,,,1094.2095,1094.2095,1094.2129,1095.3402,1,1,right,0.6033,,1095.3434,1096.3892,1,0,right,1096.3926,1097.355,1,0,right,1,1097.3553,1097.3553,1097.3585,1098.8534,0,30,30,30,1,0.6,0.4,0.6,0.4,,,,,,,,,,,,,,,0.5021,,0.6,0.4,0.6,0.4,0.6,0.4,0.2,0.8,,,0.4348,,0.2,0.8,0.8,0.2,0.8,0.2,0.2,0.8,1,0
,,664c9a37d570871d534dd3c2,66fcb86f91dea1675b35d97b,2024-10-02_06h07.48.448,mdp,2024.2.1,Win32,59.88023952,66fa4ebf79326e780c390304,,,,,,,,,,,,,,,,,,,,,1098.8547,1098.8548,1098.8581,1100.1356,1,0,right,0.7508,,1100.1388,1101.2012,1,1,right,1101.2044,1102.1335,1,1,right,0,1102.1338,1102.1339,1102.1367,1103.6321,0,31,31,31,1,0.6,0.4,0.6,0.4,,,,,,,,,,,,,,,0.5229,,0.6,0.4,0.6,0.4,0.6,0.4,0.2,0.8,,,0.3896,,0.2,0.8,0.8,0.2,0.8,0.2,0.2,0.8,1,0
,,664c9a37d570871d534dd3c2,66fcb86f91dea1675b35d97b,2024-10-02_06h07.48.448,mdp,2024.2.1,Win32,59.88023952,66fa4ebf79326e780c390304,,,,,,,,,,,,,,,,,,,,,1103.6335,1103.6335,1103.6367,1104.6481,0,1,left,0.4838,,1104.651,1105.5469,1,1,right,1105.55,1106.5794,0,0,left,1,1106.5796,1106.5796,1106.5825,1108.0781,0,32,32,32,1,0.6,0.4,0.6,0.4,,,,,,,,,,,,,,,0.3563,,0.6,0.4,0.6,0.4,0.6,0.4,0.2,0.8,,,0.5021,,0.2,0.8,0.8,0.2,0.8,0.2,0.2,0.8,1,0
,,664c9a37d570871d534dd3c2,66fcb86f91dea1675b35d97b,2024-10-02_06h07.48.448,mdp,2024.2.1,Win32,59.88023952,66fa4ebf79326e780c390304,,,,,,,,,,,,,,,,,,,,,1108.0793,1108.0794,1108.0827,1109.51,1,1,right,0.9021,,1109.5131,1110.4259,0,0,left,1110.429,1111.4247,1,0,right,1,1111.4248,1111.4249,1111.4277,1112.9233,0,33,33,33,1,0.6,0.4,0.6,0.4,,,,,,,,,,,,,,,0.3836,,0.6,0.4,0.6,0.4,0.6,0.4,0.2,0.8,,,0.4534,,0.2,0.8,0.8,0.2,0.8,0.2,0.2,0.8,1,0
,,664c9a37d570871d534dd3c2,66fcb86f91dea1675b35d97b,2024-10-02_06h07.48.448,mdp,2024.2.1,Win32,59.88023952,66fa4ebf79326e780c390304,,,,,,,,,,,,,,,,,,,,,1112.9249,1112.925,1112.9284,1113.5893,0,1,left,0.1335,,1113.5922,1114.555,0,1,left,1114.5583,1115.5208,1,1,right,0,1115.521,1115.521,1115.5243,1117.0194,0,34,34,34,1,0.6,0.4,0.6,0.4,,,,,,,,,,,,,,,0.4342,,0.6,0.4,0.6,0.4,0.6,0.4,0.2,0.8,,,0.4234,,0.2,0.8,0.8,0.2,0.8,0.2,0.2,0.8,1,0
,,664c9a37d570871d534dd3c2,66fcb86f91dea1675b35d97b,2024-10-02_06h07.48.448,mdp,2024.2.1,Win32,59.88023952,66fa4ebf79326e780c390304,,,,,,,,,,,,,,,,,,,,,1117.0208,1117.0208,1117.0241,1118.1682,1,0,right,0.6168,,1118.1715,1119.1009,1,0,right,1119.1042,1120.0497,0,1,left,0,1120.05,1120.05,1120.0528,1121.5483,0,35,35,35,1,0.6,0.4,0.6,0.4,,,,,,,,,,,,,,,0.3919,,0.6,0.4,0.6,0.4,0.6,0.4,0.2,0.8,,,0.402,,0.2,0.8,0.8,0.2,0.8,0.2,0.2,0.8,1,0
,,664c9a37d570871d534dd3c2,66fcb86f91dea1675b35d97b,2024-10-02_06h07.48.448,mdp,2024.2.1,Win32,59.88023952,66fa4ebf79326e780c390304,,,,,,,,,,,,,,,,,,,,,1121.5497,1121.5497,1121.5534,1122.6644,1,0,right,0.5872,,1122.6689,1123.6633,0,0,left,1123.6668,1124.6787,1,0,right,1,1124.679,1124.6791,1124.6822,1126.1772,0,36,36,36,1,0.6,0.4,0.6,0.4,,,,,,,,,,,,,,,0.4676,,0.6,0.4,0.6,0.4,0.6,0.4,0.2,0.8,,,0.4847,,0.2,0.8,0.8,0.2,0.8,0.2,0.2,0.8,1,0
,,664c9a37d570871d534dd3c2,66fcb86f91dea1675b35d97b,2024-10-02_06h07.48.448,mdp,2024.2.1,Win32,59.88023952,66fa4ebf79326e780c390304,,,,,,,,,,,,,,,,,,,,,1126.1786,1126.1786,1126.1817,1127.5596,0,0,left,0.8487,,1127.5629,1128.4264,1,0,right,1128.4304,1129.6075,1,1,right,0,1129.6078,1129.6078,1129.6109,1131.1059,0,37,37,37,1,0.6,0.4,0.6,0.4,,,,,,,,,,,,,,,0.3393,,0.6,0.4,0.6,0.4,0.6,0.4,0.2,0.8,,,0.6512,,0.2,0.8,0.8,0.2,0.8,0.2,0.2,0.8,1,0
,,664c9a37d570871d534dd3c2,66fcb86f91dea1675b35d97b,2024-10-02_06h07.48.448,mdp,2024.2.1,Win32,59.88023952,66fa4ebf79326e780c390304,,,,,,,,,,,,,,,,,,,,,1131.1074,1131.1074,1131.1109,1132.3382,0,0,left,0.7039,,1132.3415,1133.2704,0,1,left,1133.2738,1134.203,1,1,right,0,1134.2032,1134.2032,1134.206,1135.7015,0,38,38,38,1,0.6,0.4,0.6,0.4,,,,,,,,,,,,,,,0.3981,,0.6,0.4,0.6,0.4,0.6,0.4,0.2,0.8,,,0.3894,,0.2,0.8,0.8,0.2,0.8,0.2,0.2,0.8,1,0
,,664c9a37d570871d534dd3c2,66fcb86f91dea1675b35d97b,2024-10-02_06h07.48.448,mdp,2024.2.1,Win32,59.88023952,66fa4ebf79326e780c390304,,,,,,,,,,,,,,,,,,,,,1135.703,1135.703,1135.7063,1136.9346,0,0,left,0.701,,1136.9377,1137.9161,1,0,right,1137.9191,1138.965,0,1,left,0,1138.9653,1138.9654,1138.9683,1140.4638,0,39,39,39,1,0.6,0.4,0.6,0.4,,,,,,,,,,,,,,,0.4489,,0.6,0.4,0.6,0.4,0.6,0.4,0.2,0.8,,,0.5052,,0.2,0.8,0.8,0.2,0.8,0.2,0.2,0.8,1,0
,,664c9a37d570871d534dd3c2,66fcb86f91dea1675b35d97b,2024-10-02_06h07.48.448,mdp,2024.2.1,Win32,59.88023952,66fa4ebf79326e780c390304,,,,,,,,,,,,,,,,,,,,,1140.465,1140.465,1140.4685,1141.5461,0,1,left,0.5539,,1141.5494,1142.3953,0,1,left,1142.3983,1143.4276,0,0,left,1,1143.4278,1143.4278,1143.431,1144.9262,0,40,40,40,1,0.6,0.4,0.6,0.4,,,,,,,,,,,,,,,0.3032,,0.6,0.4,0.6,0.4,0.6,0.4,0.2,0.8,,,0.4956,,0.2,0.8,0.8,0.2,0.8,0.2,0.2,0.8,1,0
,,664c9a37d570871d534dd3c2,66fcb86f91dea1675b35d97b,2024-10-02_06h07.48.448,mdp,2024.2.1,Win32,59.88023952,66fa4ebf79326e780c390304,,,,,,,,,,,,,,,,,,,,,1144.9287,1144.9287,1144.9326,1145.5423,0,0,left,0.0848,,1145.5461,1146.4587,0,1,left,1146.4633,1147.4071,0,0,left,1,1147.4074,1147.4074,1147.4104,1148.9056,0,41,41,41,1,0.6,0.4,0.6,0.4,,,,,,,,,,,,,,,0.3766,,0.6,0.4,0.6,0.4,0.6,0.4,0.2,0.8,,,0.4178,,0.2,0.8,0.8,0.2,0.8,0.2,0.2,0.8,1,0
,,664c9a37d570871d534dd3c2,66fcb86f91dea1675b35d97b,2024-10-02_06h07.48.448,mdp,2024.2.1,Win32,59.88023952,66fa4ebf79326e780c390304,,,,,,,,,,,,,,,,,,,,,1148.9069,1148.9071,1148.9104,1149.8052,1,1,right,0.3704,,1149.8082,1150.7205,0,1,left,1150.7239,1151.6363,0,0,left,1,1151.6365,1151.6365,1151.6393,1153.135,0,42,42,42,1,0.6,0.4,0.6,0.4,,,,,,,,,,,,,,,0.3713,,0.6,0.4,0.6,0.4,0.6,0.4,0.2,0.8,,,0.3833,,0.2,0.8,0.8,0.2,0.8,0.2,0.2,0.8,1,0
,,664c9a37d570871d534dd3c2,66fcb86f91dea1675b35d97b,2024-10-02_06h07.48.448,mdp,2024.2.1,Win32,59.88023952,66fa4ebf79326e780c390304,,,,,,,,,,,,,,,,,,,,,1153.1363,1153.1363,1153.1398,1154.3506,0,1,left,0.6838,,1154.3534,1155.2663,0,1,left,1155.2696,1156.2653,0,0,left,1,1156.2656,1156.2656,1156.2686,1157.764,0,43,43,43,1,0.6,0.4,0.6,0.4,,,,,,,,,,,,,,,0.3842,,0.6,0.4,0.6,0.4,0.6,0.4,0.2,0.8,,,0.4679,,0.2,0.8,0.8,0.2,0.8,0.2,0.2,0.8,1,0
,,664c9a37d570871d534dd3c2,66fcb86f91dea1675b35d97b,2024-10-02_06h07.48.448,mdp,2024.2.1,Win32,59.88023952,66fa4ebf79326e780c390304,,,,,,,,,,,,,,,,,,,,,1157.7653,1157.7653,1157.7689,1158.8629,0,0,left,0.5679,,1158.8663,1159.7453,0,1,left,1159.7482,1160.7275,0,0,left,1,1160.7279,1160.7279,1160.7308,1162.2261,0,44,44,44,1,0.6,0.4,0.6,0.4,,,,,,,,,,,,,,,0.3412,,0.6,0.4,0.6,0.4,0.6,0.4,0.2,0.8,,,0.4546,,0.2,0.8,0.8,0.2,0.8,0.2,0.2,0.8,1,0
,,664c9a37d570871d534dd3c2,66fcb86f91dea1675b35d97b,2024-10-02_06h07.48.448,mdp,2024.2.1,Win32,59.88023952,66fa4ebf79326e780c390304,,,,,,,,,,,,,,,,,,,,,1162.2275,1162.2275,1162.2311,1163.3085,0,0,left,0.5533,,1163.3115,1164.2243,0,0,left,1164.2278,1165.1402,0,1,left,0,1165.1404,1165.1404,1165.1434,1166.6386,0,45,45,45,1,0.6,0.4,0.6,0.4,,,,,,,,,,,,,,,0.3868,,0.6,0.4,0.6,0.4,0.6,0.4,0.2,0.8,,,0.3751,,0.2,0.8,0.8,0.2,0.8,0.2,0.2,0.8,1,0
,,664c9a37d570871d534dd3c2,66fcb86f91dea1675b35d97b,2024-10-02_06h07.48.448,mdp,2024.2.1,Win32,59.88023952,66fa4ebf79326e780c390304,,,,,,,,,,,,,,,,,,,,,1166.6402,1166.6403,1166.6441,1167.7708,0,0,left,0.6003,,1167.7739,1168.8035,1,0,right,1168.807,1169.6862,1,0,right,1,1169.6863,1169.6864,1169.6896,1171.1845,0,46,46,46,1,0.6,0.4,0.6,0.4,,,,,,,,,,,,,,,0.5045,,0.6,0.4,0.6,0.4,0.6,0.4,0.2,0.8,,,0.3492,,0.2,0.8,0.8,0.2,0.8,0.2,0.2,0.8,1,0
,,664c9a37d570871d534dd3c2,66fcb86f91dea1675b35d97b,2024-10-02_06h07.48.448,mdp,2024.2.1,Win32,59.88023952,66fa4ebf79326e780c390304,,,,,,,,,,,,,,,,,,,,,1171.1857,1171.1858,1171.1891,1172.3165,0,1,left,0.5981,,1172.3197,1173.1992,1,1,right,1173.2021,1174.2148,1,1,right,0,1174.2152,1174.2153,1174.2181,1175.7134,0,47,47,47,1,0.6,0.4,0.6,0.4,,,,,,,,,,,,,,,0.3443,,0.6,0.4,0.6,0.4,0.6,0.4,0.2,0.8,,,0.4729,,0.2,0.8,0.8,0.2,0.8,0.2,0.2,0.8,1,0
,,664c9a37d570871d534dd3c2,66fcb86f91dea1675b35d97b,2024-10-02_06h07.48.448,mdp,2024.2.1,Win32,59.88023952,66fa4ebf79326e780c390304,,,,,,,,,,,,,,,,,,,,,1175.7146,1175.7147,1175.718,1176.8954,0,1,left,0.6534,,1176.8987,1177.8114,0,0,left,1177.8151,1178.7771,0,0,left,1,1178.7773,1178.7773,1178.78,1180.2755,0,48,48,48,1,0.6,0.4,0.6,0.4,,,,,,,,,,,,,,,0.3878,,0.6,0.4,0.6,0.4,0.6,0.4,0.2,0.8,,,0.4244,,0.2,0.8,0.8,0.2,0.8,0.2,0.2,0.8,1,0
,,664c9a37d570871d534dd3c2,66fcb86f91dea1675b35d97b,2024-10-02_06h07.48.448,mdp,2024.2.1,Win32,59.88023952,66fa4ebf79326e780c390304,,,,,,,,,,,,,,,,,,,,,1180.2769,1180.2769,1180.2802,1180.8584,1,0,right,0.0535,,1180.8617,1181.8907,0,0,left,1181.894,1182.7731,0,0,left,1,1182.7732,1182.7733,1182.7762,1184.2717,0,49,49,49,1,0.8,0.2,0.4,0.6,,,,,,,,,,,,,,,0.4905,,0.6,0.4,0.6,0.4,0.6,0.4,0.2,0.8,,,0.3492,,0.2,0.8,0.8,0.2,0.8,0.2,0.2,0.8,1,0
,,664c9a37d570871d534dd3c2,66fcb86f91dea1675b35d97b,2024-10-02_06h07.48.448,mdp,2024.2.1,Win32,59.88023952,66fa4ebf79326e780c390304,,,,,,,,,,,,,,,,,,,,,,,,,,,,,,,,,,,,,,,,,,,,,,,,,,,,,,,,1184.2719,1242.7824,0,3,3,3,1,imgs/squirrel.png,imgs/lion.png,imgs/pig.png,imgs/bear.png,imgs/dog.png,,,,,,,,,,,,,,,,,,,,,,,,
,,664c9a37d570871d534dd3c2,66fcb86f91dea1675b35d97b,2024-10-02_06h07.48.448,mdp,2024.2.1,Win32,59.88023952,66fa4ebf79326e780c390304,,,,,,,,,,,,,,1,seqs/st1seq5.csv,1242.7866,1262.3807,space,19.065,,1262.3893,1262.3893,1262.3915,1263.8792,1,0,right,0.9503,,1263.8824,1263.8843,0,1,,1263.8865,1263.8878,0,0,,1,1263.8878,1263.8879,1263.8893,1265.3775,0,0,0,0,1,0.2,0.8,0.8,0.2,1,0,,,,,,,,,,,,,,,,,,,,,,,,,,,,,,,,,,,,
,,664c9a37d570871d534dd3c2,66fcb86f91dea1675b35d97b,2024-10-02_06h07.48.448,mdp,2024.2.1,Win32,59.88023952,66fa4ebf79326e780c390304,,,,,,,,,,,,,,,,,,,,,1265.3789,1265.3789,1265.382,1266.36,1,1,right,0.4506,,1266.3631,1266.3652,0,0,,1266.3676,1266.369,0,1,,0,1266.3691,1266.3691,1266.3706,1267.8587,0,1,1,1,1,0.8,0.2,0.2,0.8,1,0,,,,,,,,,,,,,,,,,,,,,,,,,,,,,,,,,,,,
,,664c9a37d570871d534dd3c2,66fcb86f91dea1675b35d97b,2024-10-02_06h07.48.448,mdp,2024.2.1,Win32,59.88023952,66fa4ebf79326e780c390304,,,,,,,,,,,,,,,,,,,,,1267.8599,1267.86,1267.8632,1268.6918,0,0,left,0.3076,,1268.6953,1268.6977,0,0,,1268.7001,1268.7014,0,0,,1,1268.7015,1268.7016,1268.7033,1270.1896,0,2,2,2,1,0.8,0.2,0.2,0.8,1,0,,,,,,,,,,,,,,,,,,,,,,,,,,,,,,,,,,,,
,,664c9a37d570871d534dd3c2,66fcb86f91dea1675b35d97b,2024-10-02_06h07.48.448,mdp,2024.2.1,Win32,59.88023952,66fa4ebf79326e780c390304,,,,,,,,,,,,,,,,,,,,,1270.1909,1270.191,1270.1942,1271.1056,1,1,right,0.3873,,1271.1086,1271.1109,0,1,,1271.1129,1271.1144,0,0,,0,1271.1145,1271.1145,1271.1158,1272.6042,0,3,3,3,1,0.8,0.2,0.2,0.8,1,0,,,,,,,,,,,,,,,,,,,,,,,,,,,,,,,,,,,,
,,664c9a37d570871d534dd3c2,66fcb86f91dea1675b35d97b,2024-10-02_06h07.48.448,mdp,2024.2.1,Win32,59.88023952,66fa4ebf79326e780c390304,,,,,,,,,,,,,,,,,,,,,1272.6054,1272.6054,1272.6085,1273.5365,0,0,left,0.4002,,1273.5396,1273.5418,0,0,,1273.5447,1273.5462,0,0,,1,1273.5463,1273.5463,1273.5478,1275.035,0,4,4,4,1,0.8,0.2,0.2,0.8,1,0,,,,,,,,,,,,,,,,,,,,,,,,,,,,,,,,,,,,
,,664c9a37d570871d534dd3c2,66fcb86f91dea1675b35d97b,2024-10-02_06h07.48.448,mdp,2024.2.1,Win32,59.88023952,66fa4ebf79326e780c390304,,,,,,,,,,,,,,,,,,,,,1275.0359,1275.036,1275.0389,1276.7002,1,1,right,1.1358,,1276.7033,1276.7054,0,0,,1276.7078,1276.7091,0,0,,0,1276.7092,1276.7093,1276.7106,1278.1986,0,5,5,5,1,0.2,0.8,0.8,0.2,1,0,,,,,,,,,,,,,,,,,,,,,,,,,,,,,,,,,,,,
,,664c9a37d570871d534dd3c2,66fcb86f91dea1675b35d97b,2024-10-02_06h07.48.448,mdp,2024.2.1,Win32,59.88023952,66fa4ebf79326e780c390304,,,,,,,,,,,,,,,,,,,,,1278.1997,1278.2,1278.2033,1279.7138,0,0,left,0.9843,,1279.7171,1279.719,0,0,,1279.7212,1279.7226,0,0,,1,1279.7226,1279.7227,1279.724,1281.2124,0,6,6,6,1,0.8,0.2,0.4,0.6,1,0,,,,,,,,,,,,,,,,,,,,,,,,,,,,,,,,,,,,
,,664c9a37d570871d534dd3c2,66fcb86f91dea1675b35d97b,2024-10-02_06h07.48.448,mdp,2024.2.1,Win32,59.88023952,66fa4ebf79326e780c390304,,,,,,,,,,,,,,,,,,,,,1281.2134,1281.2134,1281.2164,1282.112,0,0,left,0.3705,,1282.115,1282.1169,0,0,,1282.1195,1282.1207,0,0,,1,1282.1208,1282.1208,1282.1222,1283.6101,0,7,7,7,1,0.8,0.2,0.4,0.6,1,0,,,,,,,,,,,,,,,,,,,,,,,,,,,,,,,,,,,,
,,664c9a37d570871d534dd3c2,66fcb86f91dea1675b35d97b,2024-10-02_06h07.48.448,mdp,2024.2.1,Win32,59.88023952,66fa4ebf79326e780c390304,,,,,,,,,,,,,,,,,,,,,1283.6115,1283.6116,1283.6149,1284.5094,0,1,left,0.3711,,1284.5126,1284.515,0,0,,1284.518,1284.5196,0,1,,0,1284.5197,1284.5197,1284.5215,1286.008,0,8,8,8,1,0.4,0.6,0.8,0.2,1,0,,,,,,,,,,,,,,,,,,,,,,,,,,,,,,,,,,,,
,,664c9a37d570871d534dd3c2,66fcb86f91dea1675b35d97b,2024-10-02_06h07.48.448,mdp,2024.2.1,Win32,59.88023952,66fa4ebf79326e780c390304,,,,,,,,,,,,,,,,,,,,,1286.0094,1286.0094,1286.0124,1287.0402,1,0,right,0.4975,,1287.0431,1287.0451,0,0,,1287.0471,1287.0487,0,1,,1,1287.0488,1287.0488,1287.0502,1288.5388,0,9,9,9,1,0.4,0.6,0.8,0.2,1,0,,,,,,,,,,,,,,,,,,,,,,,,,,,,,,,,,,,,
,,664c9a37d570871d534dd3c2,66fcb86f91dea1675b35d97b,2024-10-02_06h07.48.448,mdp,2024.2.1,Win32,59.88023952,66fa4ebf79326e780c390304,,,,,,,,,,,,,,,,,,,,,1288.5401,1288.5402,1288.5438,1289.6044,1,0,right,0.5357,,1289.6075,1289.6095,0,0,,1289.6116,1289.6132,0,0,,1,1289.6133,1289.6133,1289.6146,1291.1029,0,10,10,10,1,0.4,0.6,0.8,0.2,1,0,,,,,,,,,,,,,,,,,,,,,,,,,,,,,,,,,,,,
,,664c9a37d570871d534dd3c2,66fcb86f91dea1675b35d97b,2024-10-02_06h07.48.448,mdp,2024.2.1,Win32,59.88023952,66fa4ebf79326e780c390304,,,,,,,,,,,,,,,,,,,,,1291.1042,1291.1042,1291.1075,1292.2521,1,0,right,0.6183,,1292.2554,1292.2576,0,1,,1292.2607,1292.262,0,1,,1,1292.2622,1292.2622,1292.2637,1293.7503,0,11,11,11,1,0.8,0.2,0.4,0.6,1,0,,,,,,,,,,,,,,,,,,,,,,,,,,,,,,,,,,,,
,,664c9a37d570871d534dd3c2,66fcb86f91dea1675b35d97b,2024-10-02_06h07.48.448,mdp,2024.2.1,Win32,59.88023952,66fa4ebf79326e780c390304,,,,,,,,,,,,,,,,,,,,,1293.7512,1293.7516,1293.7548,1294.6994,1,0,right,0.4161,,1294.7027,1294.7048,0,1,,1294.7072,1294.7084,0,1,,1,1294.7086,1294.7086,1294.7099,1296.1981,0,12,12,12,1,0.8,0.2,0.4,0.6,1,0,,,,,,,,,,,,,,,,,,,,,,,,,,,,,,,,,,,,
,,664c9a37d570871d534dd3c2,66fcb86f91dea1675b35d97b,2024-10-02_06h07.48.448,mdp,2024.2.1,Win32,59.88023952,66fa4ebf79326e780c390304,,,,,,,,,,,,,,,,,,,,,1296.1991,1296.1991,1296.2029,1297.1974,1,1,right,0.4664,,1297.2004,1297.2025,0,1,,1297.2049,1297.206,0,0,,0,1297.2061,1297.2061,1297.2075,1298.6958,0,13,13,13,1,0.8,0.2,0.4,0.6,1,0,,,,,,,,,,,,,,,,,,,,,,,,,,,,,,,,,,,,
,,664c9a37d570871d534dd3c2,66fcb86f91dea1675b35d97b,2024-10-02_06h07.48.448,mdp,2024.2.1,Win32,59.88023952,66fa4ebf79326e780c390304,,,,,,,,,,,,,,,,,,,,,1298.6971,1298.6971,1298.7004,1299.6451,0,0,left,0.4175,,1299.6481,1299.6502,0,0,,1299.6524,1299.6537,0,0,,1,1299.6538,1299.6538,1299.6553,1301.1434,0,14,14,14,1,0.8,0.2,0.4,0.6,1,0,,,,,,,,,,,,,,,,,,,,,,,,,,,,,,,,,,,,
,,664c9a37d570871d534dd3c2,66fcb86f91dea1675b35d97b,2024-10-02_06h07.48.448,mdp,2024.2.1,Win32,59.88023952,66fa4ebf79326e780c390304,,,,,,,,,,,,,,,,,,,,,1301.1444,1301.1444,1301.1474,1302.1591,0,0,left,0.4837,,1302.1623,1302.1645,0,0,,1302.167,1302.1684,0,0,,1,1302.1685,1302.1685,1302.1699,1303.6576,0,15,15,15,1,0.8,0.2,0.4,0.6,1,0,,,,,,,,,,,,,,,,,,,,,,,,,,,,,,,,,,,,
,,664c9a37d570871d534dd3c2,66fcb86f91dea1675b35d97b,2024-10-02_06h07.48.448,mdp,2024.2.1,Win32,59.88023952,66fa4ebf79326e780c390304,,,,,,,,,,,,,,,,,,,,,1303.6586,1303.6587,1303.6616,1304.5572,0,0,left,0.3737,,1304.5607,1304.5626,0,1,,1304.565,1304.5662,0,0,,1,1304.5664,1304.5664,1304.5677,1306.0555,0,16,16,16,1,0.8,0.2,0.4,0.6,1,0,,,,,,,,,,,,,,,,,,,,,,,,,,,,,,,,,,,,
,,664c9a37d570871d534dd3c2,66fcb86f91dea1675b35d97b,2024-10-02_06h07.48.448,mdp,2024.2.1,Win32,59.88023952,66fa4ebf79326e780c390304,,,,,,,,,,,,,,,,,,,,,1306.0567,1306.0567,1306.0601,1306.9711,0,1,left,0.3843,,1306.9744,1306.9765,0,0,,1306.979,1306.9803,0,1,,0,1306.9803,1306.9803,1306.9817,1308.4697,0,17,17,17,1,0.4,0.6,0.6,0.4,1,0,,,,,,,,,,,,,,,,,,,,,,,,,,,,,,,,,,,,
,,664c9a37d570871d534dd3c2,66fcb86f91dea1675b35d97b,2024-10-02_06h07.48.448,mdp,2024.2.1,Win32,59.88023952,66fa4ebf79326e780c390304,,,,,,,,,,,,,,,,,,,,,1308.4706,1308.4708,1308.4742,1309.4189,1,0,right,0.4148,,1309.4223,1309.4248,0,0,,1309.4273,1309.4287,0,0,,1,1309.4288,1309.4288,1309.4303,1310.9173,0,18,18,18,1,0.2,0.8,0.8,0.2,1,0,,,,,,,,,,,,,,,,,,,,,,,,,,,,,,,,,,,,
,,664c9a37d570871d534dd3c2,66fcb86f91dea1675b35d97b,2024-10-02_06h07.48.448,mdp,2024.2.1,Win32,59.88023952,66fa4ebf79326e780c390304,,,,,,,,,,,,,,,,,,,,,1310.9184,1310.9184,1310.9216,1311.7835,1,0,right,0.3376,,1311.787,1311.7893,0,0,,1311.7919,1311.7933,0,0,,1,1311.7934,1311.7934,1311.7949,1313.2818,0,19,19,19,1,0.2,0.8,0.8,0.2,1,0,,,,,,,,,,,,,,,,,,,,,,,,,,,,,,,,,,,,
,,664c9a37d570871d534dd3c2,66fcb86f91dea1675b35d97b,2024-10-02_06h07.48.448,mdp,2024.2.1,Win32,59.88023952,66fa4ebf79326e780c390304,,,,,,,,,,,,,,,,,,,,,1313.2827,1313.283,1313.2863,1314.3476,1,1,right,0.5342,,1314.3506,1314.3527,0,0,,1314.3552,1314.3565,0,1,,0,1314.3566,1314.3566,1314.358,1315.8465,0,20,20,20,1,0.8,0.2,0.6,0.4,1,0,,,,,,,,,,,,,,,,,,,,,,,,,,,,,,,,,,,,
,,664c9a37d570871d534dd3c2,66fcb86f91dea1675b35d97b,2024-10-02_06h07.48.448,mdp,2024.2.1,Win32,59.88023952,66fa4ebf79326e780c390304,,,,,,,,,,,,,,,,,,,,,1315.8476,1315.8477,1315.8513,1316.6786,0,0,left,0.3031,,1316.6818,1316.6838,0,0,,1316.686,1316.6873,0,0,,1,1316.6874,1316.6875,1316.6887,1318.1773,0,21,21,21,1,0.8,0.2,0.6,0.4,1,0,,,,,,,,,,,,,,,,,,,,,,,,,,,,,,,,,,,,
,,664c9a37d570871d534dd3c2,66fcb86f91dea1675b35d97b,2024-10-02_06h07.48.448,mdp,2024.2.1,Win32,59.88023952,66fa4ebf79326e780c390304,,,,,,,,,,,,,,,,,,,,,1318.1782,1318.1786,1318.1821,1319.3263,0,0,left,0.6172,,1319.33,1319.3321,0,0,,1319.3347,1319.336,0,0,,1,1319.3361,1319.3361,1319.3375,1320.8246,0,22,22,22,1,0.8,0.2,0.6,0.4,1,0,,,,,,,,,,,,,,,,,,,,,,,,,,,,,,,,,,,,
,,664c9a37d570871d534dd3c2,66fcb86f91dea1675b35d97b,2024-10-02_06h07.48.448,mdp,2024.2.1,Win32,59.88023952,66fa4ebf79326e780c390304,,,,,,,,,,,,,,,,,,,,,1320.8254,1320.8258,1320.8291,1321.7236,0,0,left,0.3657,,1321.7267,1321.7288,0,0,,1321.7313,1321.7325,0,0,,1,1321.7326,1321.7326,1321.7341,1323.2222,0,23,23,23,1,0.8,0.2,0.6,0.4,1,0,,,,,,,,,,,,,,,,,,,,,,,,,,,,,,,,,,,,
,,664c9a37d570871d534dd3c2,66fcb86f91dea1675b35d97b,2024-10-02_06h07.48.448,mdp,2024.2.1,Win32,59.88023952,66fa4ebf79326e780c390304,,,,,,,,,,,,,,,,,,,,,1323.2236,1323.2236,1323.2269,1324.2548,0,1,left,0.4992,,1324.2579,1324.2603,0,0,,1324.2632,1324.2647,0,1,,0,1324.2649,1324.2649,1324.2665,1325.7532,0,24,24,24,1,0.6,0.4,0.4,0.6,1,0,,,,,,,,,,,,,,,,,,,,,,,,,,,,,,,,,,,,
,,664c9a37d570871d534dd3c2,66fcb86f91dea1675b35d97b,2024-10-02_06h07.48.448,mdp,2024.2.1,Win32,59.88023952,66fa4ebf79326e780c390304,,,,,,,,,,,,,,,,,,,,,1325.7547,1325.7547,1325.7579,1326.6524,1,0,right,0.3647,,1326.6557,1326.6579,0,0,,1326.6605,1326.662,0,0,,1,1326.6621,1326.6621,1326.6638,1328.1509,0,25,25,25,1,0.6,0.4,0.4,0.6,1,0,,,,,,,,,,,,,,,,,,,,,,,,,,,,,,,,,,,,
,,664c9a37d570871d534dd3c2,66fcb86f91dea1675b35d97b,2024-10-02_06h07.48.448,mdp,2024.2.1,Win32,59.88023952,66fa4ebf79326e780c390304,,,,,,,,,,,,,,,,,,,,,1328.1522,1328.1523,1328.156,1328.967,1,0,right,0.2807,,1328.97,1328.9724,0,0,,1328.9754,1328.9767,0,1,,1,1328.9768,1328.9768,1328.9784,1330.4652,0,26,26,26,1,0.2,0.8,0.6,0.4,1,0,,,,,,,,,,,,,,,,,,,,,,,,,,,,,,,,,,,,
,,664c9a37d570871d534dd3c2,66fcb86f91dea1675b35d97b,2024-10-02_06h07.48.448,mdp,2024.2.1,Win32,59.88023952,66fa4ebf79326e780c390304,,,,,,,,,,,,,,,,,,,,,1330.4662,1330.4663,1330.4694,1331.2814,1,0,right,0.2855,,1331.2846,1331.2866,0,1,,1331.2889,1331.2901,0,0,,1,1331.2902,1331.2902,1331.2915,1332.7798,0,27,27,27,1,0.2,0.8,0.6,0.4,1,0,,,,,,,,,,,,,,,,,,,,,,,,,,,,,,,,,,,,
,,664c9a37d570871d534dd3c2,66fcb86f91dea1675b35d97b,2024-10-02_06h07.48.448,mdp,2024.2.1,Win32,59.88023952,66fa4ebf79326e780c390304,,,,,,,,,,,,,,,,,,,,,1332.7811,1332.7811,1332.7844,1333.463,1,0,right,0.1574,,1333.4659,1333.4677,0,0,,1333.4697,1333.4712,0,0,,1,1333.4713,1333.4713,1333.4727,1334.9614,0,28,28,28,1,0.2,0.8,0.6,0.4,1,0,,,,,,,,,,,,,,,,,,,,,,,,,,,,,,,,,,,,
,,664c9a37d570871d534dd3c2,66fcb86f91dea1675b35d97b,2024-10-02_06h07.48.448,mdp,2024.2.1,Win32,59.88023952,66fa4ebf79326e780c390304,,,,,,,,,,,,,,,,,,,,,1334.9627,1334.9627,1334.9663,1335.8769,1,0,right,0.3862,,1335.8799,1335.8821,0,1,,1335.8843,1335.8858,0,1,,1,1335.8858,1335.8858,1335.8872,1337.3755,0,29,29,29,1,0.2,0.8,0.6,0.4,1,0,,,,,,,,,,,,,,,,,,,,,,,,,,,,,,,,,,,,
,,664c9a37d570871d534dd3c2,66fcb86f91dea1675b35d97b,2024-10-02_06h07.48.448,mdp,2024.2.1,Win32,59.88023952,66fa4ebf79326e780c390304,,,,,,,,,,,,,,,,,,,,,1337.3767,1337.3767,1337.3801,1338.2247,0,1,left,0.3158,,1338.2281,1338.2303,0,0,,1338.2336,1338.2349,0,0,,0,1338.235,1338.2351,1338.2365,1339.7235,0,30,30,30,1,0.4,0.6,0.8,0.2,1,0,,,,,,,,,,,,,,,,,,,,,,,,,,,,,,,,,,,,
,,664c9a37d570871d534dd3c2,66fcb86f91dea1675b35d97b,2024-10-02_06h07.48.448,mdp,2024.2.1,Win32,59.88023952,66fa4ebf79326e780c390304,,,,,,,,,,,,,,,,,,,,,1339.7252,1339.7252,1339.7289,1340.4392,0,1,left,0.1881,,1340.4422,1340.4445,0,1,,1340.4467,1340.4479,0,0,,0,1340.448,1340.448,1340.4493,1341.938,0,31,31,31,1,0.4,0.6,0.8,0.2,1,0,,,,,,,,,,,,,,,,,,,,,,,,,,,,,,,,,,,,
,,664c9a37d570871d534dd3c2,66fcb86f91dea1675b35d97b,2024-10-02_06h07.48.448,mdp,2024.2.1,Win32,59.88023952,66fa4ebf79326e780c390304,,,,,,,,,,,,,,,,,,,,,1341.9387,1341.9387,1341.9422,1342.6037,1,0,right,0.1364,,1342.6069,1342.6089,0,1,,1342.6111,1342.6124,0,0,,1,1342.6125,1342.6125,1342.6137,1344.1023,0,32,32,32,1,0.4,0.6,0.8,0.2,1,0,,,,,,,,,,,,,,,,,,,,,,,,,,,,,,,,,,,,
,,664c9a37d570871d534dd3c2,66fcb86f91dea1675b35d97b,2024-10-02_06h07.48.448,mdp,2024.2.1,Win32,59.88023952,66fa4ebf79326e780c390304,,,,,,,,,,,,,,,,,,,,,1344.1036,1344.1036,1344.1069,1344.8684,1,0,right,0.2334,,1344.8715,1344.8735,0,0,,1344.8759,1344.8771,0,0,,1,1344.8772,1344.8772,1344.8787,1346.3671,0,33,33,33,1,0.4,0.6,0.8,0.2,1,0,,,,,,,,,,,,,,,,,,,,,,,,,,,,,,,,,,,,
,,664c9a37d570871d534dd3c2,66fcb86f91dea1675b35d97b,2024-10-02_06h07.48.448,mdp,2024.2.1,Win32,59.88023952,66fa4ebf79326e780c390304,,,,,,,,,,,,,,,,,,,,,1346.3683,1346.3683,1346.3715,1347.083,1,0,right,0.1867,,1347.0865,1347.0885,0,0,,1347.091,1347.0923,0,0,,1,1347.0924,1347.0924,1347.0938,1348.5814,0,34,34,34,1,0.4,0.6,0.8,0.2,1,0,,,,,,,,,,,,,,,,,,,,,,,,,,,,,,,,,,,,
,,664c9a37d570871d534dd3c2,66fcb86f91dea1675b35d97b,2024-10-02_06h07.48.448,mdp,2024.2.1,Win32,59.88023952,66fa4ebf79326e780c390304,,,,,,,,,,,,,,,,,,,,,1348.5827,1348.5829,1348.586,1349.6471,1,1,right,0.5368,,1349.6502,1349.6523,0,0,,1349.6548,1349.6559,0,0,,0,1349.656,1349.656,1349.6575,1351.1456,0,35,35,35,1,0.4,0.6,0.8,0.2,1,0,,,,,,,,,,,,,,,,,,,,,,,,,,,,,,,,,,,,
,,664c9a37d570871d534dd3c2,66fcb86f91dea1675b35d97b,2024-10-02_06h07.48.448,mdp,2024.2.1,Win32,59.88023952,66fa4ebf79326e780c390304,,,,,,,,,,,,,,,,,,,,,1351.1465,1351.1469,1351.1501,1352.0619,0,1,left,0.3893,,1352.0648,1352.0671,0,1,,1352.0697,1352.0711,0,1,,0,1352.0713,1352.0713,1352.0728,1353.5599,0,36,36,36,1,0.4,0.6,0.8,0.2,1,0,,,,,,,,,,,,,,,,,,,,,,,,,,,,,,,,,,,,
,,664c9a37d570871d534dd3c2,66fcb86f91dea1675b35d97b,2024-10-02_06h07.48.448,mdp,2024.2.1,Win32,59.88023952,66fa4ebf79326e780c390304,,,,,,,,,,,,,,,,,,,,,1353.561,1353.561,1353.5641,1354.4757,1,1,right,0.3821,,1354.4789,1354.4816,0,0,,1354.4838,1354.485,0,0,,0,1354.4851,1354.4851,1354.4864,1355.9743,0,37,37,37,1,0.2,0.8,0.6,0.4,1,0,,,,,,,,,,,,,,,,,,,,,,,,,,,,,,,,,,,,
,,664c9a37d570871d534dd3c2,66fcb86f91dea1675b35d97b,2024-10-02_06h07.48.448,mdp,2024.2.1,Win32,59.88023952,66fa4ebf79326e780c390304,,,,,,,,,,,,,,,,,,,,,1355.9752,1355.9755,1355.979,1356.9733,0,1,left,0.4682,,1356.9763,1356.9785,0,1,,1356.9811,1356.9824,0,1,,0,1356.9825,1356.9825,1356.9839,1358.4721,0,38,38,38,1,0.2,0.8,0.6,0.4,1,0,,,,,,,,,,,,,,,,,,,,,,,,,,,,,,,,,,,,
,,664c9a37d570871d534dd3c2,66fcb86f91dea1675b35d97b,2024-10-02_06h07.48.448,mdp,2024.2.1,Win32,59.88023952,66fa4ebf79326e780c390304,,,,,,,,,,,,,,,,,,,,,1358.4732,1358.4733,1358.4762,1359.6541,1,1,right,0.6502,,1359.6571,1359.659,0,0,,1359.6609,1359.6626,0,0,,0,1359.6626,1359.6627,1359.6644,1361.1528,0,39,39,39,1,0.2,0.8,0.6,0.4,1,0,,,,,,,,,,,,,,,,,,,,,,,,,,,,,,,,,,,,
,,664c9a37d570871d534dd3c2,66fcb86f91dea1675b35d97b,2024-10-02_06h07.48.448,mdp,2024.2.1,Win32,59.88023952,66fa4ebf79326e780c390304,,,,,,,,,,,,,,,,,,,,,1361.1542,1361.1542,1361.1579,1361.9521,0,1,left,0.2675,0.0032,1361.9549,1361.9579,0,1,,1361.9605,1361.9617,0,1,,0,1361.9618,1361.9618,1361.9631,1363.4506,0,40,40,40,1,0.2,0.8,0.6,0.4,1,0,,,,,,,,,,,,,,,,,,,,,,,,,,,,,,,,,,,,
