init_exp.started,init_exp.stopped,participant,session,date,expName,psychopyVersion,OS,frameRate,study_id,disp_instruction.started,disp_instruction.stopped,instruction.thisRepN,instruction.thisTrialN,instruction.thisN,instruction.thisIndex,instruction.ran,instimg_path,consent.started,consent.stopped,key_resp_3.keys,key_resp_3.rt,key_resp_3.duration,n_steps,sequence_path,init_block.started,init_block.stopped,key_resp.keys,key_resp.rt,key_resp.duration,init_trials.started,init_trials.stopped,step0.started,step0.stopped,act0,s1,res0.keys,res0.rt,res0.duration,step1.started,step1.stopped,act1,s2,res1.keys,step2.started,step2.stopped,act2,s3,res2.keys,rew,reward_comp.started,reward_comp.stopped,reward_disp.started,reward_disp.stopped,trials.thisRepN,trials.thisTrialN,trials.thisN,trials.thisIndex,trials.ran,s00a0s10,s00a0s11,s00a1s10,s00a1s11,rew10,rew11,break_block.started,break_block.stopped,block.thisRepN,block.thisTrialN,block.thisN,block.thisIndex,block.ran,s00path,s10path,s11path,s20path,s21path,res1.rt,res1.duration,s10a0s20,s10a0s21,s10a1s20,s10a1s21,s11a0s20,s11a0s21,s11a1s20,s11a1s21,rew20,rew21,res2.rt,res2.duration,s20a0s30,s20a0s31,s20a1s30,s20a1s31,s21a0s30,s21a0s31,s21a1s30,s21a1s31,rew30,rew31
0.0003,0.0018,66559244530907c5dd7b77be,66fc976b2b1a9d10569acf87,2024-10-02_08h59.23.830,mdp,2024.2.1,Win32,59.17159763,66fa4ebf79326e780c390304,,,,,,,,,,,,,,,,,,,,,,,,,,,,,,,,,,,,,,,,,,,,,,,,,,,,,,,,,,,,,,,,,,,,,,,,,,,,,,,,,,,,,,,,,,,
,,66559244530907c5dd7b77be,66fc976b2b1a9d10569acf87,2024-10-02_08h59.23.830,mdp,2024.2.1,Win32,59.17159763,66fa4ebf79326e780c390304,0.02,34.4914,0,0,0,0,1,rlnn_exp/rlnn_exp.001.png,,,,,,,,,,,,,,,,,,,,,,,,,,,,,,,,,,,,,,,,,,,,,,,,,,,,,,,,,,,,,,,,,,,,,,,,,,,,,,,,,,,
,,66559244530907c5dd7b77be,66fc976b2b1a9d10569acf87,2024-10-02_08h59.23.830,mdp,2024.2.1,Win32,59.17159763,66fa4ebf79326e780c390304,34.4921,57.642,0,1,1,1,1,rlnn_exp/rlnn_exp.002.png,,,,,,,,,,,,,,,,,,,,,,,,,,,,,,,,,,,,,,,,,,,,,,,,,,,,,,,,,,,,,,,,,,,,,,,,,,,,,,,,,,,
,,66559244530907c5dd7b77be,66fc976b2b1a9d10569acf87,2024-10-02_08h59.23.830,mdp,2024.2.1,Win32,59.17159763,66fa4ebf79326e780c390304,57.6428,80.0588,0,2,2,2,1,rlnn_exp/rlnn_exp.003.png,,,,,,,,,,,,,,,,,,,,,,,,,,,,,,,,,,,,,,,,,,,,,,,,,,,,,,,,,,,,,,,,,,,,,,,,,,,,,,,,,,,
,,66559244530907c5dd7b77be,66fc976b2b1a9d10569acf87,2024-10-02_08h59.23.830,mdp,2024.2.1,Win32,59.17159763,66fa4ebf79326e780c390304,80.0598,100.805,0,3,3,3,1,rlnn_exp/rlnn_exp.004.png,,,,,,,,,,,,,,,,,,,,,,,,,,,,,,,,,,,,,,,,,,,,,,,,,,,,,,,,,,,,,,,,,,,,,,,,,,,,,,,,,,,
,,66559244530907c5dd7b77be,66fc976b2b1a9d10569acf87,2024-10-02_08h59.23.830,mdp,2024.2.1,Win32,59.17159763,66fa4ebf79326e780c390304,,,,,,,,,100.806,167.1027,y,56.2776,,,,,,,,,,,,,,,,,,,,,,,,,,,,,,,,,,,,,,,,,,,,,,,,,,,,,,,,,,,,,,,,,,,,,,,,,,,,,,,
,,66559244530907c5dd7b77be,66fc976b2b1a9d10569acf87,2024-10-02_08h59.23.830,mdp,2024.2.1,Win32,59.17159763,66fa4ebf79326e780c390304,,,,,,,,,,,,,,1,seqs/st1seq46.csv,167.1074,170.059,space,2.4266,,170.0634,170.0635,170.0639,203.0829,0,1,left,32.4828,,203.0839,203.0858,,0,,203.0862,203.0873,,1,,0,203.0875,203.0876,203.0881,204.5864,0,0,0,0,1,0.4,0.6,0.6,0.4,1,0,,,,,,,,,,,,,,,,,,,,,,,,,,,,,,,,,,,,
,,66559244530907c5dd7b77be,66fc976b2b1a9d10569acf87,2024-10-02_08h59.23.830,mdp,2024.2.1,Win32,59.17159763,66fa4ebf79326e780c390304,,,,,,,,,,,,,,,,,,,,,204.5871,204.5871,204.5883,211.9523,1,0,right,6.8391,,211.9539,211.9548,,1,,211.9553,211.9558,,0,,1,211.9559,211.9559,211.9564,213.4557,0,1,1,1,1,0.8,0.2,0.8,0.2,1,0,,,,,,,,,,,,,,,,,,,,,,,,,,,,,,,,,,,,
,,66559244530907c5dd7b77be,66fc976b2b1a9d10569acf87,2024-10-02_08h59.23.830,mdp,2024.2.1,Win32,59.17159763,66fa4ebf79326e780c390304,,,,,,,,,,,,,,,,,,,,,213.456,213.4561,213.4583,215.9614,0,0,left,1.994,,215.9631,215.9645,,1,,215.9655,215.9662,,1,,1,215.9663,215.9663,215.9671,217.4648,0,2,2,2,1,0.8,0.2,0.8,0.2,1,0,,,,,,,,,,,,,,,,,,,,,,,,,,,,,,,,,,,,
,,66559244530907c5dd7b77be,66fc976b2b1a9d10569acf87,2024-10-02_08h59.23.830,mdp,2024.2.1,Win32,59.17159763,66fa4ebf79326e780c390304,,,,,,,,,,,,,,,,,,,,,217.4655,217.4655,217.4677,218.0494,1,0,right,0.0717,,218.0516,218.0526,,0,,218.0536,218.0542,,0,,1,218.0543,218.0543,218.0551,219.5528,0,3,3,3,1,0.8,0.2,0.8,0.2,1,0,,,,,,,,,,,,,,,,,,,,,,,,,,,,,,,,,,,,
,,66559244530907c5dd7b77be,66fc976b2b1a9d10569acf87,2024-10-02_08h59.23.830,mdp,2024.2.1,Win32,59.17159763,66fa4ebf79326e780c390304,,,,,,,,,,,,,,,,,,,,,219.5535,219.5535,219.5555,223.0939,0,0,left,3.0248,,223.0959,223.097,,0,,223.098,223.0989,,0,,1,223.0989,223.0989,223.0999,224.5972,0,4,4,4,1,0.8,0.2,0.8,0.2,1,0,,,,,,,,,,,,,,,,,,,,,,,,,,,,,,,,,,,,
,,66559244530907c5dd7b77be,66fc976b2b1a9d10569acf87,2024-10-02_08h59.23.830,mdp,2024.2.1,Win32,59.17159763,66fa4ebf79326e780c390304,,,,,,,,,,,,,,,,,,,,,224.5979,224.598,224.5999,225.4991,1,0,right,0.3885,,225.5008,225.5017,,1,,225.5026,225.5033,,0,,1,225.5033,225.5033,225.504,227.0027,0,5,5,5,1,0.8,0.2,0.8,0.2,1,0,,,,,,,,,,,,,,,,,,,,,,,,,,,,,,,,,,,,
,,66559244530907c5dd7b77be,66fc976b2b1a9d10569acf87,2024-10-02_08h59.23.830,mdp,2024.2.1,Win32,59.17159763,66fa4ebf79326e780c390304,,,,,,,,,,,,,,,,,,,,,227.0033,227.0034,227.0056,229.2744,0,0,left,1.7543,,229.276,229.2773,,0,,229.2782,229.279,,0,,1,229.2791,229.2791,229.2799,230.7775,0,6,6,6,1,0.8,0.2,0.8,0.2,1,0,,,,,,,,,,,,,,,,,,,,,,,,,,,,,,,,,,,,
,,66559244530907c5dd7b77be,66fc976b2b1a9d10569acf87,2024-10-02_08h59.23.830,mdp,2024.2.1,Win32,59.17159763,66fa4ebf79326e780c390304,,,,,,,,,,,,,,,,,,,,,230.7779,230.7779,230.7798,231.8133,1,0,right,0.5188,,231.8147,231.8157,,0,,231.8164,231.8169,,0,,1,231.8169,231.817,231.8174,233.3166,0,7,7,7,1,0.8,0.2,0.8,0.2,1,0,,,,,,,,,,,,,,,,,,,,,,,,,,,,,,,,,,,,
,,66559244530907c5dd7b77be,66fc976b2b1a9d10569acf87,2024-10-02_08h59.23.830,mdp,2024.2.1,Win32,59.17159763,66fa4ebf79326e780c390304,,,,,,,,,,,,,,,,,,,,,233.3172,233.3173,233.3188,235.9223,0,0,left,2.1002,,235.924,235.9253,,0,,235.9264,235.9271,,1,,1,235.9272,235.9272,235.9279,237.4258,0,8,8,8,1,0.8,0.2,0.8,0.2,1,0,,,,,,,,,,,,,,,,,,,,,,,,,,,,,,,,,,,,
,,66559244530907c5dd7b77be,66fc976b2b1a9d10569acf87,2024-10-02_08h59.23.830,mdp,2024.2.1,Win32,59.17159763,66fa4ebf79326e780c390304,,,,,,,,,,,,,,,,,,,,,237.4266,237.4266,237.4284,238.428,1,1,right,0.4881,,238.43,238.4308,,0,,238.4318,238.4324,,0,,0,238.4325,238.4325,238.4333,239.9314,0,9,9,9,1,0.8,0.2,0.8,0.2,1,0,,,,,,,,,,,,,,,,,,,,,,,,,,,,,,,,,,,,
,,66559244530907c5dd7b77be,66fc976b2b1a9d10569acf87,2024-10-02_08h59.23.830,mdp,2024.2.1,Win32,59.17159763,66fa4ebf79326e780c390304,,,,,,,,,,,,,,,,,,,,,239.9317,239.9318,239.9332,260.1096,0,0,left,19.6625,,260.1109,260.112,,0,,260.1126,260.1131,,1,,1,260.1131,260.1131,260.1136,261.613,0,10,10,10,1,0.8,0.2,0.8,0.2,1,0,,,,,,,,,,,,,,,,,,,,,,,,,,,,,,,,,,,,
,,66559244530907c5dd7b77be,66fc976b2b1a9d10569acf87,2024-10-02_08h59.23.830,mdp,2024.2.1,Win32,59.17159763,66fa4ebf79326e780c390304,,,,,,,,,,,,,,,,,,,,,261.6134,261.6134,261.6145,262.2984,1,1,right,0.1805,,262.2999,262.3009,,0,,262.3018,262.3026,,0,,0,262.3026,262.3026,262.3036,263.8011,0,11,11,11,1,0.8,0.2,0.8,0.2,1,0,,,,,,,,,,,,,,,,,,,,,,,,,,,,,,,,,,,,
,,66559244530907c5dd7b77be,66fc976b2b1a9d10569acf87,2024-10-02_08h59.23.830,mdp,2024.2.1,Win32,59.17159763,66fa4ebf79326e780c390304,,,,,,,,,,,,,,,,,,,,,263.8015,263.8016,263.8027,265.0708,0,0,left,0.7518,,265.0724,265.0736,,0,,265.0747,265.0758,,0,,1,265.0758,265.0758,265.0768,266.574,0,12,12,12,1,0.8,0.2,0.8,0.2,1,0,,,,,,,,,,,,,,,,,,,,,,,,,,,,,,,,,,,,
,,66559244530907c5dd7b77be,66fc976b2b1a9d10569acf87,2024-10-02_08h59.23.830,mdp,2024.2.1,Win32,59.17159763,66fa4ebf79326e780c390304,,,,,,,,,,,,,,,,,,,,,266.5746,266.5746,266.5762,271.5517,0,0,left,4.4672,,271.553,271.5542,,0,,271.555,271.5556,,0,,1,271.5556,271.5556,271.5562,273.0553,0,13,13,13,1,0.8,0.2,0.8,0.2,1,0,,,,,,,,,,,,,,,,,,,,,,,,,,,,,,,,,,,,
,,66559244530907c5dd7b77be,66fc976b2b1a9d10569acf87,2024-10-02_08h59.23.830,mdp,2024.2.1,Win32,59.17159763,66fa4ebf79326e780c390304,,,,,,,,,,,,,,,,,,,,,273.056,273.056,273.0578,273.6565,1,1,right,0.0838,,273.6576,273.6588,,0,,273.6595,273.66,,0,,0,273.66,273.66,273.6605,275.16,0,14,14,14,1,0.8,0.2,0.8,0.2,1,0,,,,,,,,,,,,,,,,,,,,,,,,,,,,,,,,,,,,
,,66559244530907c5dd7b77be,66fc976b2b1a9d10569acf87,2024-10-02_08h59.23.830,mdp,2024.2.1,Win32,59.17159763,66fa4ebf79326e780c390304,,,,,,,,,,,,,,,,,,,,,275.1605,275.1605,275.1619,275.9951,0,1,left,0.3301,,275.9968,275.9979,,0,,275.9987,275.9994,,0,,0,275.9994,275.9994,276.0001,277.4985,0,15,15,15,1,0.6,0.4,0.2,0.8,1,0,,,,,,,,,,,,,,,,,,,,,,,,,,,,,,,,,,,,
,,66559244530907c5dd7b77be,66fc976b2b1a9d10569acf87,2024-10-02_08h59.23.830,mdp,2024.2.1,Win32,59.17159763,66fa4ebf79326e780c390304,,,,,,,,,,,,,,,,,,,,,277.4991,277.4991,277.5006,278.0663,1,1,right,0.0498,,278.0677,278.0688,,1,,278.0694,278.0699,,1,,0,278.07,278.07,278.0704,279.5699,0,16,16,16,1,0.6,0.4,0.2,0.8,1,0,,,,,,,,,,,,,,,,,,,,,,,,,,,,,,,,,,,,
,,66559244530907c5dd7b77be,66fc976b2b1a9d10569acf87,2024-10-02_08h59.23.830,mdp,2024.2.1,Win32,59.17159763,66fa4ebf79326e780c390304,,,,,,,,,,,,,,,,,,,,,279.5705,279.5706,279.5723,284.4639,0,0,left,4.3841,,284.4652,284.4662,,0,,284.4668,284.4672,,0,,1,284.4673,284.4673,284.4678,285.9672,0,17,17,17,1,0.6,0.4,0.2,0.8,1,0,,,,,,,,,,,,,,,,,,,,,,,,,,,,,,,,,,,,
,,66559244530907c5dd7b77be,66fc976b2b1a9d10569acf87,2024-10-02_08h59.23.830,mdp,2024.2.1,Win32,59.17159763,66fa4ebf79326e780c390304,,,,,,,,,,,,,,,,,,,,,285.9676,285.9676,285.9687,286.8694,0,1,left,0.386,,286.8711,286.872,,0,,286.8725,286.873,,1,,0,286.8731,286.8731,286.8741,288.3728,0,18,18,18,1,0.6,0.4,0.2,0.8,1,0,,,,,,,,,,,,,,,,,,,,,,,,,,,,,,,,,,,,
,,66559244530907c5dd7b77be,66fc976b2b1a9d10569acf87,2024-10-02_08h59.23.830,mdp,2024.2.1,Win32,59.17159763,66fa4ebf79326e780c390304,,,,,,,,,,,,,,,,,,,,,288.3733,288.3733,288.3754,289.5086,0,0,left,0.6205,,289.5101,289.5112,,0,,289.5121,289.5128,,1,,1,289.5128,289.5128,289.5135,291.0119,0,19,19,19,1,0.6,0.4,0.2,0.8,1,0,,,,,,,,,,,,,,,,,,,,,,,,,,,,,,,,,,,,
,,66559244530907c5dd7b77be,66fc976b2b1a9d10569acf87,2024-10-02_08h59.23.830,mdp,2024.2.1,Win32,59.17159763,66fa4ebf79326e780c390304,,,,,,,,,,,,,,,,,,,,,291.0126,291.0126,291.014,292.3648,0,1,left,0.8461,,292.3667,292.3681,,1,,292.369,292.3698,,1,,0,292.3698,292.3698,292.3706,293.8683,0,20,20,20,1,0.6,0.4,0.2,0.8,1,0,,,,,,,,,,,,,,,,,,,,,,,,,,,,,,,,,,,,
,,66559244530907c5dd7b77be,66fc976b2b1a9d10569acf87,2024-10-02_08h59.23.830,mdp,2024.2.1,Win32,59.17159763,66fa4ebf79326e780c390304,,,,,,,,,,,,,,,,,,,,,293.8691,293.8691,293.8709,297.1925,1,0,right,2.8127,,297.1944,297.1955,,0,,297.1964,297.1972,,0,,1,297.1972,297.1973,297.198,298.6957,0,21,21,21,1,0.4,0.6,0.8,0.2,1,0,,,,,,,,,,,,,,,,,,,,,,,,,,,,,,,,,,,,
,,66559244530907c5dd7b77be,66fc976b2b1a9d10569acf87,2024-10-02_08h59.23.830,mdp,2024.2.1,Win32,59.17159763,66fa4ebf79326e780c390304,,,,,,,,,,,,,,,,,,,,,298.696,298.696,298.6973,299.9149,0,0,left,0.7145,,299.9164,299.9177,,1,,299.9186,299.9193,,1,,1,299.9193,299.9193,299.92,301.4184,0,22,22,22,1,0.4,0.6,0.8,0.2,1,0,,,,,,,,,,,,,,,,,,,,,,,,,,,,,,,,,,,,
,,66559244530907c5dd7b77be,66fc976b2b1a9d10569acf87,2024-10-02_08h59.23.830,mdp,2024.2.1,Win32,59.17159763,66fa4ebf79326e780c390304,,,,,,,,,,,,,,,,,,,,,301.419,301.419,301.4202,355.4226,0,0,left,53.4877,,355.4248,355.4255,,0,,355.4264,355.4271,,0,,1,355.4271,355.4271,355.4278,356.9255,0,23,23,23,1,0.4,0.6,0.8,0.2,1,0,,,,,,,,,,,,,,,,,,,,,,,,,,,,,,,,,,,,
,,66559244530907c5dd7b77be,66fc976b2b1a9d10569acf87,2024-10-02_08h59.23.830,mdp,2024.2.1,Win32,59.17159763,66fa4ebf79326e780c390304,,,,,,,,,,,,,,,,,,,,,356.9261,356.9262,356.9279,357.5603,1,1,right,0.1158,,357.5621,357.5632,,0,,357.5641,357.5648,,0,,0,357.5648,357.5648,357.5655,359.0633,0,24,24,24,1,0.4,0.6,0.8,0.2,1,0,,,,,,,,,,,,,,,,,,,,,,,,,,,,,,,,,,,,
,,66559244530907c5dd7b77be,66fc976b2b1a9d10569acf87,2024-10-02_08h59.23.830,mdp,2024.2.1,Win32,59.17159763,66fa4ebf79326e780c390304,,,,,,,,,,,,,,,,,,,,,359.0639,359.0639,359.0652,359.5813,0,1,left,0.0027,,359.5831,359.584,,1,,359.5847,359.5852,,0,,0,359.5853,359.5853,359.5858,361.0847,0,25,25,25,1,0.4,0.6,0.8,0.2,1,0,,,,,,,,,,,,,,,,,,,,,,,,,,,,,,,,,,,,
,,66559244530907c5dd7b77be,66fc976b2b1a9d10569acf87,2024-10-02_08h59.23.830,mdp,2024.2.1,Win32,59.17159763,66fa4ebf79326e780c390304,,,,,,,,,,,,,,,,,,,,,361.0852,361.0852,361.0869,363.3566,0,1,left,1.7642,,363.3589,363.3596,,1,,363.3604,363.3613,,0,,0,363.3613,363.3614,363.3621,364.8598,0,26,26,26,1,0.4,0.6,0.8,0.2,1,0,,,,,,,,,,,,,,,,,,,,,,,,,,,,,,,,,,,,
,,66559244530907c5dd7b77be,66fc976b2b1a9d10569acf87,2024-10-02_08h59.23.830,mdp,2024.2.1,Win32,59.17159763,66fa4ebf79326e780c390304,,,,,,,,,,,,,,,,,,,,,364.8603,364.8604,364.8621,366.1297,1,1,right,0.7513,,366.1313,366.1324,,0,,366.1335,366.1343,,0,,0,366.1343,366.1343,366.1352,367.6327,0,27,27,27,1,0.4,0.6,0.8,0.2,1,0,,,,,,,,,,,,,,,,,,,,,,,,,,,,,,,,,,,,
,,66559244530907c5dd7b77be,66fc976b2b1a9d10569acf87,2024-10-02_08h59.23.830,mdp,2024.2.1,Win32,59.17159763,66fa4ebf79326e780c390304,,,,,,,,,,,,,,,,,,,,,367.6332,367.6332,367.6352,368.5013,1,0,right,0.3539,,368.5036,368.5045,,0,,368.5053,368.5061,,0,,1,368.5061,368.5061,368.5069,370.0046,0,28,28,28,1,0.4,0.6,0.8,0.2,1,0,,,,,,,,,,,,,,,,,,,,,,,,,,,,,,,,,,,,
,,66559244530907c5dd7b77be,66fc976b2b1a9d10569acf87,2024-10-02_08h59.23.830,mdp,2024.2.1,Win32,59.17159763,66fa4ebf79326e780c390304,,,,,,,,,,,,,,,,,,,,,370.0051,370.0052,370.007,370.8065,1,0,right,0.2936,,370.8087,370.8097,,1,,370.8109,370.8118,,0,,1,370.8118,370.8118,370.8126,372.3097,0,29,29,29,1,0.4,0.6,0.8,0.2,1,0,,,,,,,,,,,,,,,,,,,,,,,,,,,,,,,,,,,,
,,66559244530907c5dd7b77be,66fc976b2b1a9d10569acf87,2024-10-02_08h59.23.830,mdp,2024.2.1,Win32,59.17159763,66fa4ebf79326e780c390304,,,,,,,,,,,,,,,,,,,,,372.3102,372.3103,372.3119,374.331,1,0,right,1.5111,,374.3329,374.334,,0,,374.3347,374.3353,,1,,1,374.3353,374.3353,374.336,375.8342,0,30,30,30,1,0.4,0.6,0.8,0.2,1,0,,,,,,,,,,,,,,,,,,,,,,,,,,,,,,,,,,,,
,,66559244530907c5dd7b77be,66fc976b2b1a9d10569acf87,2024-10-02_08h59.23.830,mdp,2024.2.1,Win32,59.17159763,66fa4ebf79326e780c390304,,,,,,,,,,,,,,,,,,,,,375.8348,375.8348,375.8364,377.5382,1,0,right,1.1909,,377.5402,377.541,,0,,377.5418,377.5425,,1,,1,377.5425,377.5425,377.5433,379.0414,0,31,31,31,1,0.4,0.6,0.8,0.2,1,0,,,,,,,,,,,,,,,,,,,,,,,,,,,,,,,,,,,,
,,66559244530907c5dd7b77be,66fc976b2b1a9d10569acf87,2024-10-02_08h59.23.830,mdp,2024.2.1,Win32,59.17159763,66fa4ebf79326e780c390304,,,,,,,,,,,,,,,,,,,,,379.0422,379.0422,379.044,380.0605,1,0,right,0.5126,,380.0622,380.0633,,0,,380.0642,380.0648,,0,,1,380.0648,380.0648,380.0656,381.5641,0,32,32,32,1,0.4,0.6,0.8,0.2,1,0,,,,,,,,,,,,,,,,,,,,,,,,,,,,,,,,,,,,
,,66559244530907c5dd7b77be,66fc976b2b1a9d10569acf87,2024-10-02_08h59.23.830,mdp,2024.2.1,Win32,59.17159763,66fa4ebf79326e780c390304,,,,,,,,,,,,,,,,,,,,,381.565,381.565,381.5666,382.4991,1,0,right,0.4139,,382.5004,382.5012,,0,,382.502,382.5023,,0,,1,382.5024,382.5024,382.5028,384.0024,0,33,33,33,1,0.4,0.6,0.8,0.2,1,0,,,,,,,,,,,,,,,,,,,,,,,,,,,,,,,,,,,,
,,66559244530907c5dd7b77be,66fc976b2b1a9d10569acf87,2024-10-02_08h59.23.830,mdp,2024.2.1,Win32,59.17159763,66fa4ebf79326e780c390304,,,,,,,,,,,,,,,,,,,,,384.003,384.0031,384.0054,388.5126,1,0,right,3.9915,,388.5143,388.5155,,1,,388.5164,388.517,,1,,1,388.517,388.517,388.5177,390.0157,0,34,34,34,1,0.8,0.2,0.2,0.8,1,0,,,,,,,,,,,,,,,,,,,,,,,,,,,,,,,,,,,,
,,66559244530907c5dd7b77be,66fc976b2b1a9d10569acf87,2024-10-02_08h59.23.830,mdp,2024.2.1,Win32,59.17159763,66fa4ebf79326e780c390304,,,,,,,,,,,,,,,,,,,,,390.0162,390.0162,390.0174,391.7198,1,0,right,1.1942,,391.721,391.7218,,0,,391.7225,391.7229,,0,,1,391.7229,391.7229,391.7234,393.2229,0,35,35,35,1,0.2,0.8,0.8,0.2,1,0,,,,,,,,,,,,,,,,,,,,,,,,,,,,,,,,,,,,
,,66559244530907c5dd7b77be,66fc976b2b1a9d10569acf87,2024-10-02_08h59.23.830,mdp,2024.2.1,Win32,59.17159763,66fa4ebf79326e780c390304,,,,,,,,,,,,,,,,,,,,,393.2234,393.2234,393.2245,395.3784,1,0,right,1.651,,395.3798,395.3807,,0,,395.3815,395.3821,,0,,1,395.3822,395.3822,395.3829,396.8811,0,36,36,36,1,0.2,0.8,0.8,0.2,1,0,,,,,,,,,,,,,,,,,,,,,,,,,,,,,,,,,,,,
,,66559244530907c5dd7b77be,66fc976b2b1a9d10569acf87,2024-10-02_08h59.23.830,mdp,2024.2.1,Win32,59.17159763,66fa4ebf79326e780c390304,,,,,,,,,,,,,,,,,,,,,396.8817,396.8818,396.8833,399.1529,1,0,right,1.7555,,399.1546,399.1559,,0,,399.1567,399.1573,,0,,1,399.1574,399.1575,399.1581,400.6561,0,37,37,37,1,0.2,0.8,0.8,0.2,1,0,,,,,,,,,,,,,,,,,,,,,,,,,,,,,,,,,,,,
,,66559244530907c5dd7b77be,66fc976b2b1a9d10569acf87,2024-10-02_08h59.23.830,mdp,2024.2.1,Win32,59.17159763,66fa4ebf79326e780c390304,,,,,,,,,,,,,,,,,,,,,400.6567,400.6568,400.6585,401.1742,1,1,right,0.01,,401.1759,401.177,,0,,401.1779,401.1786,,0,,0,401.1787,401.1787,401.1794,402.6774,0,38,38,38,1,0.2,0.8,0.8,0.2,1,0,,,,,,,,,,,,,,,,,,,,,,,,,,,,,,,,,,,,
,,66559244530907c5dd7b77be,66fc976b2b1a9d10569acf87,2024-10-02_08h59.23.830,mdp,2024.2.1,Win32,59.17159763,66fa4ebf79326e780c390304,,,,,,,,,,,,,,,,,,,,,402.678,402.6781,402.6798,403.4124,1,0,right,0.2205,,403.4144,403.4155,,0,,403.4167,403.4173,,1,,1,403.4174,403.4174,403.4181,404.9156,0,39,39,39,1,0.2,0.8,0.8,0.2,1,0,,,,,,,,,,,,,,,,,,,,,,,,,,,,,,,,,,,,
,,66559244530907c5dd7b77be,66fc976b2b1a9d10569acf87,2024-10-02_08h59.23.830,mdp,2024.2.1,Win32,59.17159763,66fa4ebf79326e780c390304,,,,,,,,,,,,,,,,,,,,,404.9162,404.9163,404.9207,405.9848,1,0,right,0.5581,,405.9865,405.9875,,0,,405.9882,405.9888,,0,,1,405.9889,405.9889,405.9896,407.4881,0,40,40,40,1,0.2,0.8,0.8,0.2,1,0,,,,,,,,,,,,,,,,,,,,,,,,,,,,,,,,,,,,
,,66559244530907c5dd7b77be,66fc976b2b1a9d10569acf87,2024-10-02_08h59.23.830,mdp,2024.2.1,Win32,59.17159763,66fa4ebf79326e780c390304,,,,,,,,,,,,,,,,,,,,,407.4888,407.4888,407.4907,409.1418,1,1,right,1.1448,,409.1439,409.1447,,0,,409.1455,409.1461,,1,,0,409.1461,409.1461,409.1468,410.6453,0,41,41,41,1,0.2,0.8,0.8,0.2,1,0,,,,,,,,,,,,,,,,,,,,,,,,,,,,,,,,,,,,
,,66559244530907c5dd7b77be,66fc976b2b1a9d10569acf87,2024-10-02_08h59.23.830,mdp,2024.2.1,Win32,59.17159763,66fa4ebf79326e780c390304,,,,,,,,,,,,,,,,,,,,,410.6458,410.6458,410.6476,411.3635,0,1,left,0.2041,,411.3652,411.3662,,1,,411.3672,411.3678,,0,,0,411.3679,411.3679,411.3685,412.8667,0,42,42,42,1,0.2,0.8,0.8,0.2,1,0,,,,,,,,,,,,,,,,,,,,,,,,,,,,,,,,,,,,
,,66559244530907c5dd7b77be,66fc976b2b1a9d10569acf87,2024-10-02_08h59.23.830,mdp,2024.2.1,Win32,59.17159763,66fa4ebf79326e780c390304,,,,,,,,,,,,,,,,,,,,,412.8673,412.8673,412.8687,414.2703,1,0,right,0.8869,,414.2723,414.2731,,0,,414.274,414.2745,,0,,1,414.2746,414.2746,414.2753,415.7732,0,43,43,43,1,0.2,0.8,0.8,0.2,1,0,,,,,,,,,,,,,,,,,,,,,,,,,,,,,,,,,,,,
,,66559244530907c5dd7b77be,66fc976b2b1a9d10569acf87,2024-10-02_08h59.23.830,mdp,2024.2.1,Win32,59.17159763,66fa4ebf79326e780c390304,,,,,,,,,,,,,,,,,,,,,415.7738,415.7739,415.776,418.0117,1,0,right,1.7325,,418.0134,418.0144,,1,,418.0152,418.0158,,0,,1,418.0159,418.0159,418.0167,419.5148,0,44,44,44,1,0.2,0.8,0.8,0.2,1,0,,,,,,,,,,,,,,,,,,,,,,,,,,,,,,,,,,,,
,,66559244530907c5dd7b77be,66fc976b2b1a9d10569acf87,2024-10-02_08h59.23.830,mdp,2024.2.1,Win32,59.17159763,66fa4ebf79326e780c390304,,,,,,,,,,,,,,,,,,,,,419.5156,419.5156,419.5171,420.8344,1,0,right,0.8148,,420.8364,420.8374,,0,,420.8383,420.8389,,0,,1,420.839,420.839,420.8397,422.3376,0,45,45,45,1,0.2,0.8,0.8,0.2,1,0,,,,,,,,,,,,,,,,,,,,,,,,,,,,,,,,,,,,
,,66559244530907c5dd7b77be,66fc976b2b1a9d10569acf87,2024-10-02_08h59.23.830,mdp,2024.2.1,Win32,59.17159763,66fa4ebf79326e780c390304,,,,,,,,,,,,,,,,,,,,,422.3382,422.3382,422.3395,422.9394,1,0,right,0.0881,,422.9406,422.9415,,0,,422.9419,422.9424,,0,,1,422.9424,422.9424,422.943,424.4425,0,46,46,46,1,0.2,0.8,0.8,0.2,1,0,,,,,,,,,,,,,,,,,,,,,,,,,,,,,,,,,,,,
,,66559244530907c5dd7b77be,66fc976b2b1a9d10569acf87,2024-10-02_08h59.23.830,mdp,2024.2.1,Win32,59.17159763,66fa4ebf79326e780c390304,,,,,,,,,,,,,,,,,,,,,424.4434,424.4434,424.4451,425.3447,1,1,right,0.3911,,425.3469,425.3477,,1,,425.3485,425.3492,,1,,0,425.3492,425.3492,425.3498,426.8479,0,47,47,47,1,0.8,0.2,0.4,0.6,1,0,,,,,,,,,,,,,,,,,,,,,,,,,,,,,,,,,,,,
,,66559244530907c5dd7b77be,66fc976b2b1a9d10569acf87,2024-10-02_08h59.23.830,mdp,2024.2.1,Win32,59.17159763,66fa4ebf79326e780c390304,,,,,,,,,,,,,,,,,,,,,426.8484,426.8486,426.8501,428.8357,0,0,left,1.474,,428.8379,428.8387,,0,,428.8396,428.8404,,0,,1,428.8404,428.8404,428.8411,430.339,0,48,48,48,1,0.8,0.2,0.4,0.6,1,0,,,,,,,,,,,,,,,,,,,,,,,,,,,,,,,,,,,,
,,66559244530907c5dd7b77be,66fc976b2b1a9d10569acf87,2024-10-02_08h59.23.830,mdp,2024.2.1,Win32,59.17159763,66fa4ebf79326e780c390304,,,,,,,,,,,,,,,,,,,,,430.3395,430.3395,430.3411,431.9594,1,0,right,1.1099,,431.9611,431.9621,,1,,431.9629,431.9635,,1,,1,431.9635,431.9635,431.9643,433.4627,0,49,49,49,1,0.8,0.2,0.4,0.6,1,0,,,,,,,,,,,,,,,,,,,,,,,,,,,,,,,,,,,,
,,66559244530907c5dd7b77be,66fc976b2b1a9d10569acf87,2024-10-02_08h59.23.830,mdp,2024.2.1,Win32,59.17159763,66fa4ebf79326e780c390304,,,,,,,,,,,,,,,,,,,,,,,,,,,,,,,,,,,,,,,,,,,,,,,,,,,,,,,,433.4634,485.7324,0,0,0,4,1,imgs/giraffe.png,imgs/rabbit.png,imgs/dog.png,imgs/squirrel.png,imgs/pig.png,,,,,,,,,,,,,,,,,,,,,,,,
,,66559244530907c5dd7b77be,66fc976b2b1a9d10569acf87,2024-10-02_08h59.23.830,mdp,2024.2.1,Win32,59.17159763,66fa4ebf79326e780c390304,,,,,,,,,,,,,,2,seqs/st2seq41.csv,485.7334,488.8362,space,2.5847,,488.8445,488.8446,488.8457,507.0767,1,0,right,17.7046,,507.0791,508.647,1,1,right,508.6493,508.6501,,1,,0,508.6502,508.6502,508.6512,510.1501,0,0,0,0,1,0.8,0.2,0.2,0.8,,,,,,,,,,,,,,,1.0429,,0.6,0.4,0.2,0.8,0.8,0.2,0.4,0.6,1,0,,,,,,,,,,,,
,,66559244530907c5dd7b77be,66fc976b2b1a9d10569acf87,2024-10-02_08h59.23.830,mdp,2024.2.1,Win32,59.17159763,66fa4ebf79326e780c390304,,,,,,,,,,,,,,,,,,,,,510.1509,510.151,510.1528,511.5535,1,1,right,0.8847,,511.5552,524.6994,0,0,left,524.7013,524.7021,,0,,1,524.7022,524.7022,524.703,526.2026,0,1,1,1,1,0.8,0.2,0.2,0.8,,,,,,,,,,,,,,,12.6243,,0.6,0.4,0.2,0.8,0.8,0.2,0.4,0.6,1,0,,,,,,,,,,,,
,,66559244530907c5dd7b77be,66fc976b2b1a9d10569acf87,2024-10-02_08h59.23.830,mdp,2024.2.1,Win32,59.17159763,66fa4ebf79326e780c390304,,,,,,,,,,,,,,,,,,,,,526.2033,526.2033,526.2048,530.6459,0,0,left,3.9269,,530.6475,532.617,1,1,right,532.6192,532.6204,,1,,0,532.6204,532.6204,532.6214,534.1202,0,2,2,2,1,0.8,0.2,0.2,0.8,,,,,,,,,,,,,,,1.4432,,0.6,0.4,0.2,0.8,0.8,0.2,0.4,0.6,1,0,,,,,,,,,,,,
,,66559244530907c5dd7b77be,66fc976b2b1a9d10569acf87,2024-10-02_08h59.23.830,mdp,2024.2.1,Win32,59.17159763,66fa4ebf79326e780c390304,,,,,,,,,,,,,,,,,,,,,534.121,534.121,534.1228,534.6548,0,0,left,0.0248,,534.6565,536.3921,0,0,left,536.3939,536.3948,,1,,1,536.3949,536.3949,536.3957,537.8953,0,3,3,3,1,0.8,0.2,0.2,0.8,,,,,,,,,,,,,,,1.2208,,0.6,0.4,0.2,0.8,0.8,0.2,0.4,0.6,1,0,,,,,,,,,,,,
,,66559244530907c5dd7b77be,66fc976b2b1a9d10569acf87,2024-10-02_08h59.23.830,mdp,2024.2.1,Win32,59.17159763,66fa4ebf79326e780c390304,,,,,,,,,,,,,,,,,,,,,537.896,537.8961,537.898,539.3987,1,1,right,0.9866,,539.4009,542.7062,1,0,right,542.708,542.7089,,1,,1,542.7089,542.7089,542.7096,544.2093,0,4,4,4,1,0.8,0.2,0.2,0.8,,,,,,,,,,,,,,,2.7815,,0.6,0.4,0.2,0.8,0.8,0.2,0.4,0.6,1,0,,,,,,,,,,,,
,,66559244530907c5dd7b77be,66fc976b2b1a9d10569acf87,2024-10-02_08h59.23.830,mdp,2024.2.1,Win32,59.17159763,66fa4ebf79326e780c390304,,,,,,,,,,,,,,,,,,,,,544.2099,544.21,544.2117,545.5293,0,0,left,0.8074,,545.5316,547.1493,1,1,right,547.1514,547.1523,,1,,0,547.1524,547.1524,547.1532,548.6526,0,5,5,5,1,0.8,0.2,0.2,0.8,,,,,,,,,,,,,,,1.1016,,0.6,0.4,0.2,0.8,0.8,0.2,0.4,0.6,1,0,,,,,,,,,,,,
,,66559244530907c5dd7b77be,66fc976b2b1a9d10569acf87,2024-10-02_08h59.23.830,mdp,2024.2.1,Win32,59.17159763,66fa4ebf79326e780c390304,,,,,,,,,,,,,,,,,,,,,548.6533,548.6533,548.655,549.1709,0,0,left,0.0007,,549.1727,550.1394,1,1,right,550.1407,550.1417,,1,,0,550.1418,550.1418,550.1424,551.6426,0,6,6,6,1,0.8,0.2,0.2,0.8,,,,,,,,,,,,,,,0.4631,,0.6,0.4,0.2,0.8,0.8,0.2,0.4,0.6,1,0,,,,,,,,,,,,
,,66559244530907c5dd7b77be,66fc976b2b1a9d10569acf87,2024-10-02_08h59.23.830,mdp,2024.2.1,Win32,59.17159763,66fa4ebf79326e780c390304,,,,,,,,,,,,,,,,,,,,,551.6431,551.6431,551.6445,552.745,0,0,left,0.5904,,552.7462,553.6973,0,1,left,553.6987,553.6997,,0,,0,553.6997,553.6997,553.7004,555.2003,0,7,7,7,1,0.8,0.2,0.2,0.8,,,,,,,,,,,,,,,0.4333,,0.6,0.4,0.2,0.8,0.8,0.2,0.4,0.6,1,0,,,,,,,,,,,,
,,66559244530907c5dd7b77be,66fc976b2b1a9d10569acf87,2024-10-02_08h59.23.830,mdp,2024.2.1,Win32,59.17159763,66fa4ebf79326e780c390304,,,,,,,,,,,,,,,,,,,,,555.201,555.201,555.2023,557.0881,0,0,left,1.37,,557.0898,557.9902,1,0,right,557.992,557.9932,,1,,1,557.9933,557.9933,557.9941,559.4934,0,8,8,8,1,0.8,0.2,0.2,0.8,,,,,,,,,,,,,,,0.3852,,0.6,0.4,0.2,0.8,0.8,0.2,0.4,0.6,1,0,,,,,,,,,,,,
,,66559244530907c5dd7b77be,66fc976b2b1a9d10569acf87,2024-10-02_08h59.23.830,mdp,2024.2.1,Win32,59.17159763,66fa4ebf79326e780c390304,,,,,,,,,,,,,,,,,,,,,559.494,559.494,559.4956,560.4794,0,0,left,0.469,,560.4814,561.9992,1,1,right,562.001,562.0017,,1,,0,562.0017,562.0017,562.0023,563.5025,0,9,9,9,1,0.8,0.2,0.2,0.8,,,,,,,,,,,,,,,1.0103,,0.6,0.4,0.2,0.8,0.8,0.2,0.4,0.6,1,0,,,,,,,,,,,,
,,66559244530907c5dd7b77be,66fc976b2b1a9d10569acf87,2024-10-02_08h59.23.830,mdp,2024.2.1,Win32,59.17159763,66fa4ebf79326e780c390304,,,,,,,,,,,,,,,,,,,,,563.5032,563.5032,563.5047,564.037,0,0,left,0.0192,,564.0392,564.9728,0,0,left,564.9742,564.9754,,0,,1,564.9754,564.9754,564.9763,566.4757,0,10,10,10,1,0.8,0.2,0.2,0.8,,,,,,,,,,,,,,,0.4206,,0.6,0.4,0.2,0.8,0.8,0.2,0.4,0.6,1,0,,,,,,,,,,,,
,,66559244530907c5dd7b77be,66fc976b2b1a9d10569acf87,2024-10-02_08h59.23.830,mdp,2024.2.1,Win32,59.17159763,66fa4ebf79326e780c390304,,,,,,,,,,,,,,,,,,,,,566.4764,566.4764,566.4784,567.595,0,0,left,0.6049,,567.5968,568.5302,1,0,right,568.532,568.533,,1,,1,568.533,568.533,568.5337,570.0335,0,11,11,11,1,0.8,0.2,0.2,0.8,,,,,,,,,,,,,,,0.4311,,0.6,0.4,0.2,0.8,0.8,0.2,0.4,0.6,1,0,,,,,,,,,,,,
,,66559244530907c5dd7b77be,66fc976b2b1a9d10569acf87,2024-10-02_08h59.23.830,mdp,2024.2.1,Win32,59.17159763,66fa4ebf79326e780c390304,,,,,,,,,,,,,,,,,,,,,570.0341,570.0341,570.0361,571.0025,0,0,left,0.4555,,571.0047,572.2721,1,1,right,572.2742,572.275,,1,,0,572.2751,572.2751,572.2759,573.7752,0,12,12,12,1,0.8,0.2,0.2,0.8,,,,,,,,,,,,,,,0.7525,,0.6,0.4,0.2,0.8,0.8,0.2,0.4,0.6,1,0,,,,,,,,,,,,
,,66559244530907c5dd7b77be,66fc976b2b1a9d10569acf87,2024-10-02_08h59.23.830,mdp,2024.2.1,Win32,59.17159763,66fa4ebf79326e780c390304,,,,,,,,,,,,,,,,,,,,,573.7758,573.7759,573.7778,574.4271,0,0,left,0.1385,,574.429,575.3622,0,1,left,575.3638,575.3648,,0,,0,575.3648,575.3649,575.3659,576.8654,0,13,13,13,1,0.8,0.2,0.2,0.8,,,,,,,,,,,,,,,0.4171,,0.6,0.4,0.2,0.8,0.8,0.2,0.4,0.6,1,0,,,,,,,,,,,,
,,66559244530907c5dd7b77be,66fc976b2b1a9d10569acf87,2024-10-02_08h59.23.830,mdp,2024.2.1,Win32,59.17159763,66fa4ebf79326e780c390304,,,,,,,,,,,,,,,,,,,,,576.8662,576.8662,576.8682,578.9536,0,0,left,1.5714,,578.9553,580.0728,1,1,right,580.0744,580.0755,,0,,0,580.0755,580.0755,580.0763,581.576,0,14,14,14,1,0.8,0.2,0.2,0.8,,,,,,,,,,,,,,,0.6084,,0.6,0.4,0.2,0.8,0.8,0.2,0.4,0.6,1,0,,,,,,,,,,,,
,,66559244530907c5dd7b77be,66fc976b2b1a9d10569acf87,2024-10-02_08h59.23.830,mdp,2024.2.1,Win32,59.17159763,66fa4ebf79326e780c390304,,,,,,,,,,,,,,,,,,,,,581.5766,581.5766,581.5784,582.2276,0,0,left,0.1449,,582.229,582.7954,0,0,left,582.7972,582.798,,0,,1,582.7981,582.7981,582.7988,584.2988,0,15,15,15,1,0.8,0.2,0.2,0.8,,,,,,,,,,,,,,,0.0617,,0.6,0.4,0.2,0.8,0.8,0.2,0.4,0.6,1,0,,,,,,,,,,,,
,,66559244530907c5dd7b77be,66fc976b2b1a9d10569acf87,2024-10-02_08h59.23.830,mdp,2024.2.1,Win32,59.17159763,66fa4ebf79326e780c390304,,,,,,,,,,,,,,,,,,,,,584.2997,584.2997,584.3014,585.3345,1,1,right,0.5261,,585.3363,586.504,1,0,right,586.5054,586.5063,,1,,1,586.5064,586.5064,586.5071,588.007,0,16,16,16,1,0.8,0.2,0.2,0.8,,,,,,,,,,,,,,,0.6407,,0.6,0.4,0.2,0.8,0.8,0.2,0.4,0.6,1,0,,,,,,,,,,,,
,,66559244530907c5dd7b77be,66fc976b2b1a9d10569acf87,2024-10-02_08h59.23.830,mdp,2024.2.1,Win32,59.17159763,66fa4ebf79326e780c390304,,,,,,,,,,,,,,,,,,,,,588.0077,588.0077,588.0095,588.7254,1,1,right,0.2108,,588.7274,589.8445,1,0,right,589.8463,589.8473,,1,,1,589.8473,589.8474,589.8482,591.3477,0,17,17,17,1,0.8,0.2,0.2,0.8,,,,,,,,,,,,,,,0.6044,,0.6,0.4,0.2,0.8,0.8,0.2,0.4,0.6,1,0,,,,,,,,,,,,
,,66559244530907c5dd7b77be,66fc976b2b1a9d10569acf87,2024-10-02_08h59.23.830,mdp,2024.2.1,Win32,59.17159763,66fa4ebf79326e780c390304,,,,,,,,,,,,,,,,,,,,,591.3485,591.3485,591.3505,592.0996,1,1,right,0.2385,,592.1013,593.0518,1,1,right,593.0534,593.0544,,1,,0,593.0544,593.0544,593.0553,594.5549,0,18,18,18,1,0.8,0.2,0.2,0.8,,,,,,,,,,,,,,,0.4456,,0.6,0.4,0.2,0.8,0.8,0.2,0.4,0.6,1,0,,,,,,,,,,,,
,,66559244530907c5dd7b77be,66fc976b2b1a9d10569acf87,2024-10-02_08h59.23.830,mdp,2024.2.1,Win32,59.17159763,66fa4ebf79326e780c390304,,,,,,,,,,,,,,,,,,,,,594.5555,594.5556,594.5572,595.3067,0,0,left,0.247,,595.3084,596.0416,0,0,left,596.0437,596.0445,,0,,1,596.0447,596.0447,596.0457,597.5449,0,19,19,19,1,0.8,0.2,0.2,0.8,,,,,,,,,,,,,,,0.2128,,0.6,0.4,0.2,0.8,0.8,0.2,0.4,0.6,1,0,,,,,,,,,,,,
,,66559244530907c5dd7b77be,66fc976b2b1a9d10569acf87,2024-10-02_08h59.23.830,mdp,2024.2.1,Win32,59.17159763,66fa4ebf79326e780c390304,,,,,,,,,,,,,,,,,,,,,597.5455,597.5455,597.547,598.0629,1,0,right,0.0009,,598.0646,598.9147,1,1,right,598.9166,598.9172,,0,,0,598.9173,598.9173,598.9177,600.4179,0,20,20,20,1,0.8,0.2,0.2,0.8,,,,,,,,,,,,,,,0.3391,,0.6,0.4,0.2,0.8,0.8,0.2,0.4,0.6,1,0,,,,,,,,,,,,
,,66559244530907c5dd7b77be,66fc976b2b1a9d10569acf87,2024-10-02_08h59.23.830,mdp,2024.2.1,Win32,59.17159763,66fa4ebf79326e780c390304,,,,,,,,,,,,,,,,,,,,,600.4185,600.4185,600.4201,601.3032,0,0,left,0.3743,,601.3049,602.2889,0,1,left,602.2911,602.292,,1,,0,602.292,602.292,602.2928,603.7921,0,21,21,21,1,0.8,0.2,0.2,0.8,,,,,,,,,,,,,,,0.4676,,0.6,0.4,0.2,0.8,0.8,0.2,0.4,0.6,1,0,,,,,,,,,,,,
,,66559244530907c5dd7b77be,66fc976b2b1a9d10569acf87,2024-10-02_08h59.23.830,mdp,2024.2.1,Win32,59.17159763,66fa4ebf79326e780c390304,,,,,,,,,,,,,,,,,,,,,603.7927,603.7927,603.7939,604.544,1,0,right,0.2345,,604.5453,605.5461,1,1,right,605.5481,605.549,,1,,0,605.5491,605.5491,605.5498,607.0495,0,22,22,22,1,0.8,0.2,0.2,0.8,,,,,,,,,,,,,,,0.4861,,0.6,0.4,0.2,0.8,0.8,0.2,0.4,0.6,1,0,,,,,,,,,,,,
,,66559244530907c5dd7b77be,66fc976b2b1a9d10569acf87,2024-10-02_08h59.23.830,mdp,2024.2.1,Win32,59.17159763,66fa4ebf79326e780c390304,,,,,,,,,,,,,,,,,,,,,607.0501,607.0501,607.0519,608.2522,1,1,right,0.6872,,608.2545,608.9705,1,1,right,608.9722,608.9732,,1,,0,608.9732,608.9732,608.974,610.4737,0,23,23,23,1,0.8,0.2,0.2,0.8,,,,,,,,,,,,,,,0.1952,,0.6,0.4,0.2,0.8,0.6,0.4,0.2,0.8,1,0,,,,,,,,,,,,
,,66559244530907c5dd7b77be,66fc976b2b1a9d10569acf87,2024-10-02_08h59.23.830,mdp,2024.2.1,Win32,59.17159763,66fa4ebf79326e780c390304,,,,,,,,,,,,,,,,,,,,,610.4743,610.4743,610.476,612.4283,0,0,left,1.4479,,612.4298,613.3467,0,0,left,613.3483,613.3492,,1,,1,613.3493,613.3493,613.35,614.8502,0,24,24,24,1,0.8,0.2,0.2,0.8,,,,,,,,,,,,,,,0.4032,,0.6,0.4,0.2,0.8,0.6,0.4,0.2,0.8,1,0,,,,,,,,,,,,
,,66559244530907c5dd7b77be,66fc976b2b1a9d10569acf87,2024-10-02_08h59.23.830,mdp,2024.2.1,Win32,59.17159763,66fa4ebf79326e780c390304,,,,,,,,,,,,,,,,,,,,,614.8507,614.8507,614.852,616.6209,1,1,right,1.263,,616.6232,617.9739,1,1,right,617.9759,617.9769,,1,,0,617.9769,617.9769,617.9777,619.4771,0,25,25,25,1,0.8,0.2,0.2,0.8,,,,,,,,,,,,,,,0.8284,,0.6,0.4,0.2,0.8,0.8,0.2,0.4,0.6,1,0,,,,,,,,,,,,
,,66559244530907c5dd7b77be,66fc976b2b1a9d10569acf87,2024-10-02_08h59.23.830,mdp,2024.2.1,Win32,59.17159763,66fa4ebf79326e780c390304,,,,,,,,,,,,,,,,,,,,,619.4779,619.478,619.4796,621.7155,0,0,left,1.7321,,621.7173,622.5842,0,0,left,622.586,622.587,,0,,1,622.5871,622.5871,622.588,624.0874,0,26,26,26,1,0.8,0.2,0.2,0.8,,,,,,,,,,,,,,,0.3479,,0.6,0.4,0.2,0.8,0.8,0.2,0.4,0.6,1,0,,,,,,,,,,,,
,,66559244530907c5dd7b77be,66fc976b2b1a9d10569acf87,2024-10-02_08h59.23.830,mdp,2024.2.1,Win32,59.17159763,66fa4ebf79326e780c390304,,,,,,,,,,,,,,,,,,,,,624.088,624.088,624.0897,625.8414,1,1,right,1.2425,,625.8439,626.4262,1,1,right,626.4282,626.4291,,1,,0,626.4291,626.4291,626.4299,627.9293,0,27,27,27,1,0.8,0.2,0.2,0.8,,,,,,,,,,,,,,,0.063,,0.6,0.4,0.2,0.8,0.2,0.8,0.2,0.8,1,0,,,,,,,,,,,,
,,66559244530907c5dd7b77be,66fc976b2b1a9d10569acf87,2024-10-02_08h59.23.830,mdp,2024.2.1,Win32,59.17159763,66fa4ebf79326e780c390304,,,,,,,,,,,,,,,,,,,,,627.9299,627.93,627.932,628.5146,0,1,left,0.0802,,628.5163,629.8002,1,1,right,629.8026,629.8033,,0,,0,629.8033,629.8034,629.8041,631.3034,0,28,28,28,1,0.2,0.8,0.6,0.4,,,,,,,,,,,,,,,0.7692,,0.6,0.4,0.2,0.8,0.2,0.8,0.2,0.8,1,0,,,,,,,,,,,,
,,66559244530907c5dd7b77be,66fc976b2b1a9d10569acf87,2024-10-02_08h59.23.830,mdp,2024.2.1,Win32,59.17159763,66fa4ebf79326e780c390304,,,,,,,,,,,,,,,,,,,,,631.3038,631.3038,631.3049,632.2224,0,1,left,0.4016,,632.2241,633.392,0,1,left,633.3934,633.3945,,0,,0,633.3946,633.3946,633.3956,634.8949,0,29,29,29,1,0.2,0.8,0.6,0.4,,,,,,,,,,,,,,,0.6583,,0.6,0.4,0.2,0.8,0.2,0.8,0.2,0.8,1,0,,,,,,,,,,,,
,,66559244530907c5dd7b77be,66fc976b2b1a9d10569acf87,2024-10-02_08h59.23.830,mdp,2024.2.1,Win32,59.17159763,66fa4ebf79326e780c390304,,,,,,,,,,,,,,,,,,,,,634.8956,634.8956,634.8969,635.7135,1,0,right,0.3059,,635.7157,636.7993,1,1,right,636.801,636.8021,,0,,0,636.8021,636.8021,636.803,638.3023,0,30,30,30,1,0.2,0.8,0.6,0.4,,,,,,,,,,,,,,,0.5679,,0.6,0.4,0.2,0.8,0.2,0.8,0.2,0.8,1,0,,,,,,,,,,,,
,,66559244530907c5dd7b77be,66fc976b2b1a9d10569acf87,2024-10-02_08h59.23.830,mdp,2024.2.1,Win32,59.17159763,66fa4ebf79326e780c390304,,,,,,,,,,,,,,,,,,,,,638.3029,638.3029,638.3045,639.0709,1,0,right,0.2582,,639.0729,639.689,1,1,right,639.6905,639.6917,,1,,0,639.6918,639.6918,639.6926,641.192,0,31,31,31,1,0.2,0.8,0.6,0.4,,,,,,,,,,,,,,,0.1016,,0.6,0.4,0.2,0.8,0.2,0.8,0.2,0.8,1,0,,,,,,,,,,,,
,,66559244530907c5dd7b77be,66fc976b2b1a9d10569acf87,2024-10-02_08h59.23.830,mdp,2024.2.1,Win32,59.17159763,66fa4ebf79326e780c390304,,,,,,,,,,,,,,,,,,,,,641.1929,641.193,641.1948,641.7268,0,1,left,0.0245,,641.7286,642.3448,0,1,left,642.346,642.3468,,0,,0,642.3469,642.3469,642.3476,643.8479,0,32,32,32,1,0.2,0.8,0.6,0.4,,,,,,,,,,,,,,,0.0916,,0.6,0.4,0.2,0.8,0.2,0.8,0.2,0.8,1,0,,,,,,,,,,,,
,,66559244530907c5dd7b77be,66fc976b2b1a9d10569acf87,2024-10-02_08h59.23.830,mdp,2024.2.1,Win32,59.17159763,66fa4ebf79326e780c390304,,,,,,,,,,,,,,,,,,,,,643.8486,643.8486,643.8501,644.7335,0,1,left,0.3697,,644.7357,645.8859,1,1,right,645.8874,645.8885,,1,,0,645.8886,645.8886,645.8895,647.3892,0,33,33,33,1,0.2,0.8,0.6,0.4,,,,,,,,,,,,,,,0.6362,,0.6,0.4,0.2,0.8,0.2,0.8,0.2,0.8,1,0,,,,,,,,,,,,
,,66559244530907c5dd7b77be,66fc976b2b1a9d10569acf87,2024-10-02_08h59.23.830,mdp,2024.2.1,Win32,59.17159763,66fa4ebf79326e780c390304,,,,,,,,,,,,,,,,,,,,,647.3898,647.3898,647.391,648.3083,1,0,right,0.4037,,648.31,649.9618,0,0,left,649.9634,649.9643,,1,,1,649.9644,649.9644,649.9653,651.4651,0,34,34,34,1,0.2,0.8,0.6,0.4,,,,,,,,,,,,,,,1.1258,,0.6,0.4,0.2,0.8,0.2,0.8,0.2,0.8,1,0,,,,,,,,,,,,
,,66559244530907c5dd7b77be,66fc976b2b1a9d10569acf87,2024-10-02_08h59.23.830,mdp,2024.2.1,Win32,59.17159763,66fa4ebf79326e780c390304,,,,,,,,,,,,,,,,,,,,,651.4657,651.4657,651.4675,652.1667,0,1,left,0.1919,,652.1684,653.0853,0,1,left,653.0871,653.088,,1,,0,653.0881,653.0881,653.0889,654.5887,0,35,35,35,1,0.2,0.8,0.6,0.4,,,,,,,,,,,,,,,0.3919,,0.6,0.4,0.2,0.8,0.6,0.4,0.8,0.2,1,0,,,,,,,,,,,,
,,66559244530907c5dd7b77be,66fc976b2b1a9d10569acf87,2024-10-02_08h59.23.830,mdp,2024.2.1,Win32,59.17159763,66fa4ebf79326e780c390304,,,,,,,,,,,,,,,,,,,,,654.5893,654.5893,654.5909,655.4907,1,0,right,0.3962,,655.4922,656.393,1,1,right,656.3948,656.3956,,1,,0,656.3957,656.3957,656.3964,657.8961,0,36,36,36,1,0.2,0.8,0.6,0.4,,,,,,,,,,,,,,,0.3801,,0.6,0.4,0.2,0.8,0.6,0.4,0.8,0.2,1,0,,,,,,,,,,,,
,,66559244530907c5dd7b77be,66fc976b2b1a9d10569acf87,2024-10-02_08h59.23.830,mdp,2024.2.1,Win32,59.17159763,66fa4ebf79326e780c390304,,,,,,,,,,,,,,,,,,,,,657.8966,657.8966,657.8984,658.5476,0,1,left,0.1369,,658.5493,659.4662,1,0,right,659.4683,659.4692,,0,,1,659.4693,659.4693,659.47,660.9696,0,37,37,37,1,0.2,0.8,0.6,0.4,,,,,,,,,,,,,,,0.402,,0.6,0.4,0.2,0.8,0.6,0.4,0.8,0.2,1,0,,,,,,,,,,,,
,,66559244530907c5dd7b77be,66fc976b2b1a9d10569acf87,2024-10-02_08h59.23.830,mdp,2024.2.1,Win32,59.17159763,66fa4ebf79326e780c390304,,,,,,,,,,,,,,,,,,,,,660.9703,660.9704,660.972,661.688,0,1,left,0.2082,,661.69,662.4732,0,1,left,662.4748,662.4759,,1,,0,662.476,662.476,662.4768,663.9762,0,38,38,38,1,0.2,0.8,0.6,0.4,,,,,,,,,,,,,,,0.2729,,0.6,0.4,0.2,0.8,0.4,0.6,0.6,0.4,1,0,,,,,,,,,,,,
,,66559244530907c5dd7b77be,66fc976b2b1a9d10569acf87,2024-10-02_08h59.23.830,mdp,2024.2.1,Win32,59.17159763,66fa4ebf79326e780c390304,,,,,,,,,,,,,,,,,,,,,663.9767,663.9768,663.9782,664.7949,1,1,right,0.3047,,664.7965,665.814,1,0,right,665.8157,665.8165,,0,,1,665.8166,665.8166,665.8175,667.3171,0,39,39,39,1,0.2,0.8,0.6,0.4,,,,,,,,,,,,,,,0.5096,,0.6,0.4,0.2,0.8,0.4,0.6,0.6,0.4,1,0,,,,,,,,,,,,
,,66559244530907c5dd7b77be,66fc976b2b1a9d10569acf87,2024-10-02_08h59.23.830,mdp,2024.2.1,Win32,59.17159763,66fa4ebf79326e780c390304,,,,,,,,,,,,,,,,,,,,,667.3177,667.3177,667.3194,667.8349,0,1,left,0.0129,,667.8366,668.6869,1,0,right,668.6885,668.6894,,1,,1,668.6895,668.6895,668.6902,670.1901,0,40,40,40,1,0.2,0.8,0.6,0.4,,,,,,,,,,,,,,,0.342,,0.6,0.4,0.2,0.8,0.4,0.6,0.6,0.4,1,0,,,,,,,,,,,,
,,66559244530907c5dd7b77be,66fc976b2b1a9d10569acf87,2024-10-02_08h59.23.830,mdp,2024.2.1,Win32,59.17159763,66fa4ebf79326e780c390304,,,,,,,,,,,,,,,,,,,,,670.1908,670.1908,670.1926,670.8085,0,1,left,0.1001,,670.81,671.7436,1,1,right,671.7453,671.746,,0,,0,671.746,671.746,671.7466,673.2469,0,41,41,41,1,0.2,0.8,0.6,0.4,,,,,,,,,,,,,,,0.4169,,0.6,0.4,0.2,0.8,0.4,0.6,0.6,0.4,1,0,,,,,,,,,,,,
,,66559244530907c5dd7b77be,66fc976b2b1a9d10569acf87,2024-10-02_08h59.23.830,mdp,2024.2.1,Win32,59.17159763,66fa4ebf79326e780c390304,,,,,,,,,,,,,,,,,,,,,673.2476,673.2476,673.2493,674.2326,0,1,left,0.4695,,674.2345,675.2181,0,0,left,675.2198,675.2207,,1,,1,675.2208,675.2208,675.2215,676.7213,0,42,42,42,1,0.2,0.8,0.6,0.4,,,,,,,,,,,,,,,0.4726,,0.6,0.4,0.2,0.8,0.4,0.6,0.6,0.4,1,0,,,,,,,,,,,,
,,66559244530907c5dd7b77be,66fc976b2b1a9d10569acf87,2024-10-02_08h59.23.830,mdp,2024.2.1,Win32,59.17159763,66fa4ebf79326e780c390304,,,,,,,,,,,,,,,,,,,,,676.7219,676.722,676.7236,677.6737,0,1,left,0.434,,677.6752,678.3921,1,0,right,678.3933,678.3941,,0,,1,678.3942,678.3942,678.3947,679.8951,0,43,43,43,1,0.2,0.8,0.6,0.4,,,,,,,,,,,,,,,0.2011,,0.6,0.4,0.2,0.8,0.4,0.6,0.6,0.4,1,0,,,,,,,,,,,,
,,66559244530907c5dd7b77be,66fc976b2b1a9d10569acf87,2024-10-02_08h59.23.830,mdp,2024.2.1,Win32,59.17159763,66fa4ebf79326e780c390304,,,,,,,,,,,,,,,,,,,,,679.8957,679.8957,679.8978,680.814,0,1,left,0.4027,,680.8158,681.482,1,1,right,681.4842,681.485,,0,,0,681.485,681.485,681.4859,682.9852,0,44,44,44,1,0.2,0.8,0.6,0.4,,,,,,,,,,,,,,,0.1512,,0.2,0.8,0.8,0.2,0.4,0.6,0.6,0.4,1,0,,,,,,,,,,,,
,,66559244530907c5dd7b77be,66fc976b2b1a9d10569acf87,2024-10-02_08h59.23.830,mdp,2024.2.1,Win32,59.17159763,66fa4ebf79326e780c390304,,,,,,,,,,,,,,,,,,,,,682.9859,682.986,682.9879,684.2215,0,1,left,0.719,,684.2235,685.2572,0,1,left,685.2591,685.2599,,0,,0,685.26,685.26,685.2609,686.7603,0,45,45,45,1,0.2,0.8,0.6,0.4,,,,,,,,,,,,,,,0.5243,,0.2,0.8,0.8,0.2,0.4,0.6,0.6,0.4,1,0,,,,,,,,,,,,
,,66559244530907c5dd7b77be,66fc976b2b1a9d10569acf87,2024-10-02_08h59.23.830,mdp,2024.2.1,Win32,59.17159763,66fa4ebf79326e780c390304,,,,,,,,,,,,,,,,,,,,,686.761,686.761,686.7628,687.6958,0,1,left,0.4251,,687.6976,688.3305,1,0,right,688.3328,688.3335,,1,,1,688.3335,688.3335,688.3342,689.8339,0,46,46,46,1,0.2,0.8,0.6,0.4,,,,,,,,,,,,,,,0.1291,,0.2,0.8,0.8,0.2,0.4,0.6,0.6,0.4,1,0,,,,,,,,,,,,
,,66559244530907c5dd7b77be,66fc976b2b1a9d10569acf87,2024-10-02_08h59.23.830,mdp,2024.2.1,Win32,59.17159763,66fa4ebf79326e780c390304,,,,,,,,,,,,,,,,,,,,,689.8343,689.8344,689.836,690.7861,0,1,left,0.4338,,690.7882,691.4376,1,1,right,691.4398,691.4405,,0,,0,691.4405,691.4405,691.4413,692.9408,0,47,47,47,1,0.2,0.8,0.6,0.4,,,,,,,,,,,,,,,0.1429,,0.2,0.8,0.8,0.2,0.4,0.6,0.6,0.4,1,0,,,,,,,,,,,,
,,66559244530907c5dd7b77be,66fc976b2b1a9d10569acf87,2024-10-02_08h59.23.830,mdp,2024.2.1,Win32,59.17159763,66fa4ebf79326e780c390304,,,,,,,,,,,,,,,,,,,,,692.9415,692.9415,692.9433,693.7427,0,0,left,0.2852,,693.7446,695.1291,0,0,left,695.1307,695.1316,,1,,1,695.1317,695.1317,695.1326,696.6323,0,48,48,48,1,0.2,0.8,0.6,0.4,,,,,,,,,,,,,,,0.8654,,0.2,0.8,0.8,0.2,0.4,0.6,0.6,0.4,1,0,,,,,,,,,,,,
,,66559244530907c5dd7b77be,66fc976b2b1a9d10569acf87,2024-10-02_08h59.23.830,mdp,2024.2.1,Win32,59.17159763,66fa4ebf79326e780c390304,,,,,,,,,,,,,,,,,,,,,696.6332,696.6332,696.635,697.3006,1,0,right,0.1521,,697.3025,698.0524,1,0,right,698.0539,698.055,,0,,1,698.055,698.055,698.0558,699.5554,0,49,49,49,1,0.2,0.8,0.6,0.4,,,,,,,,,,,,,,,0.2442,,0.2,0.8,0.8,0.2,0.6,0.4,0.2,0.8,1,0,,,,,,,,,,,,
,,66559244530907c5dd7b77be,66fc976b2b1a9d10569acf87,2024-10-02_08h59.23.830,mdp,2024.2.1,Win32,59.17159763,66fa4ebf79326e780c390304,,,,,,,,,,,,,,,,,,,,,,,,,,,,,,,,,,,,,,,,,,,,,,,,,,,,,,,,699.5556,758.0694,0,1,1,7,1,imgs/kangaroo.png,imgs/giraffe.png,imgs/pig.png,imgs/lion.png,imgs/cat.png,,,,,,,,,,,,,,,,,,,,,,,,
,,66559244530907c5dd7b77be,66fc976b2b1a9d10569acf87,2024-10-02_08h59.23.830,mdp,2024.2.1,Win32,59.17159763,66fa4ebf79326e780c390304,,,,,,,,,,,,,,3,seqs/st3seq34.csv,758.071,761.7107,space,3.1327,,761.7235,761.7235,761.7248,768.3921,0,1,left,6.1298,,768.3939,769.2275,0,0,left,769.2291,770.0122,1,0,right,1,770.0124,770.0124,770.0139,771.5159,0,0,0,0,1,0.2,0.8,0.6,0.4,,,,,,,,,,,,,,,0.3219,,0.8,0.2,0.4,0.6,0.8,0.2,0.2,0.8,,,0.2642,,0.8,0.2,0.4,0.6,0.6,0.4,0.8,0.2,1,0
,,66559244530907c5dd7b77be,66fc976b2b1a9d10569acf87,2024-10-02_08h59.23.830,mdp,2024.2.1,Win32,59.17159763,66fa4ebf79326e780c390304,,,,,,,,,,,,,,,,,,,,,771.5166,771.5167,771.5185,772.2341,0,1,left,0.2003,,772.2359,772.8525,0,0,left,772.8543,773.4033,0,0,left,1,773.4035,773.4035,773.4049,774.9066,0,1,1,1,1,0.2,0.8,0.6,0.4,,,,,,,,,,,,,,,0.1115,,0.8,0.2,0.4,0.6,0.8,0.2,0.2,0.8,,,0.0458,,0.8,0.2,0.4,0.6,0.6,0.4,0.8,0.2,1,0
,,66559244530907c5dd7b77be,66fc976b2b1a9d10569acf87,2024-10-02_08h59.23.830,mdp,2024.2.1,Win32,59.17159763,66fa4ebf79326e780c390304,,,,,,,,,,,,,,,,,,,,,774.9073,774.9073,774.9089,775.4581,0,1,left,0.0345,,775.4597,776.0093,1,1,right,776.0108,777.045,1,1,right,0,777.045,777.045,777.0465,778.5481,0,2,2,2,1,0.2,0.8,0.6,0.4,,,,,,,,,,,,,,,0.0396,,0.8,0.2,0.4,0.6,0.8,0.2,0.2,0.8,,,0.512,,0.8,0.2,0.4,0.6,0.6,0.4,0.8,0.2,1,0
,,66559244530907c5dd7b77be,66fc976b2b1a9d10569acf87,2024-10-02_08h59.23.830,mdp,2024.2.1,Win32,59.17159763,66fa4ebf79326e780c390304,,,,,,,,,,,,,,,,,,,,,778.5488,778.5488,778.5503,779.2665,1,1,right,0.2057,,779.2681,779.9012,0,1,left,779.9028,780.6195,0,0,left,1,780.6196,780.6196,780.6212,782.1229,0,3,3,3,1,0.2,0.8,0.6,0.4,,,,,,,,,,,,,,,0.119,,0.8,0.2,0.4,0.6,0.8,0.2,0.2,0.8,,,0.2032,,0.8,0.2,0.4,0.6,0.6,0.4,0.8,0.2,1,0
,,66559244530907c5dd7b77be,66fc976b2b1a9d10569acf87,2024-10-02_08h59.23.830,mdp,2024.2.1,Win32,59.17159763,66fa4ebf79326e780c390304,,,,,,,,,,,,,,,,,,,,,782.1235,782.1236,782.1251,782.7244,1,0,right,0.087,,782.7266,783.2922,1,1,right,783.2941,783.9937,1,0,right,1,783.9938,783.9938,783.9955,785.497,0,4,4,4,1,0.2,0.8,0.6,0.4,,,,,,,,,,,,,,,0.039,,0.8,0.2,0.4,0.6,0.8,0.2,0.2,0.8,,,0.1839,,0.8,0.2,0.4,0.6,0.6,0.4,0.8,0.2,1,0
,,66559244530907c5dd7b77be,66fc976b2b1a9d10569acf87,2024-10-02_08h59.23.830,mdp,2024.2.1,Win32,59.17159763,66fa4ebf79326e780c390304,,,,,,,,,,,,,,,,,,,,,785.4978,785.4979,785.4996,786.2822,0,1,left,0.267,,786.2838,786.8667,1,1,right,786.8683,787.4346,1,0,right,1,787.4347,787.4347,787.4367,788.9378,0,5,5,5,1,0.2,0.8,0.6,0.4,,,,,,,,,,,,,,,0.0604,,0.8,0.2,0.4,0.6,0.8,0.2,0.2,0.8,,,0.0635,,0.8,0.2,0.4,0.6,0.6,0.4,0.8,0.2,1,0
,,66559244530907c5dd7b77be,66fc976b2b1a9d10569acf87,2024-10-02_08h59.23.830,mdp,2024.2.1,Win32,59.17159763,66fa4ebf79326e780c390304,,,,,,,,,,,,,,,,,,,,,788.9384,788.9384,788.9397,789.7733,1,1,right,0.3277,,789.775,790.8255,1,1,right,790.8271,791.9281,1,0,right,1,791.9282,791.9282,791.9297,793.4315,0,6,6,6,1,0.8,0.2,0.4,0.6,,,,,,,,,,,,,,,0.5355,,0.8,0.2,0.4,0.6,0.8,0.2,0.2,0.8,,,0.5859,,0.8,0.2,0.4,0.6,0.6,0.4,0.8,0.2,1,0
,,66559244530907c5dd7b77be,66fc976b2b1a9d10569acf87,2024-10-02_08h59.23.830,mdp,2024.2.1,Win32,59.17159763,66fa4ebf79326e780c390304,,,,,,,,,,,,,,,,,,,,,793.4323,793.4323,793.4337,794.1998,1,0,right,0.2496,,794.2015,794.8679,0,0,left,794.8696,795.8534,0,0,left,1,795.8535,795.8535,795.8556,797.3569,0,7,7,7,1,0.8,0.2,0.4,0.6,,,,,,,,,,,,,,,0.1498,,0.8,0.2,0.4,0.6,0.8,0.2,0.2,0.8,,,0.4669,,0.8,0.2,0.4,0.6,0.6,0.4,0.8,0.2,1,0
,,66559244530907c5dd7b77be,66fc976b2b1a9d10569acf87,2024-10-02_08h59.23.830,mdp,2024.2.1,Win32,59.17159763,66fa4ebf79326e780c390304,,,,,,,,,,,,,,,,,,,,,797.3575,797.3575,797.3593,798.0751,1,1,right,0.2041,,798.0773,799.0774,1,0,right,799.0792,799.6787,1,1,right,0,799.6788,799.6788,799.6806,801.1819,0,8,8,8,1,0.8,0.2,0.4,0.6,,,,,,,,,,,,,,,0.4752,,0.8,0.2,0.4,0.6,0.8,0.2,0.2,0.8,,,0.0924,,0.8,0.2,0.4,0.6,0.6,0.4,0.8,0.2,1,0
,,66559244530907c5dd7b77be,66fc976b2b1a9d10569acf87,2024-10-02_08h59.23.830,mdp,2024.2.1,Win32,59.17159763,66fa4ebf79326e780c390304,,,,,,,,,,,,,,,,,,,,,801.1825,801.1826,801.184,802.1675,0,0,left,0.4748,,802.1691,802.8523,1,1,right,802.8541,803.5705,0,1,left,0,803.5706,803.5706,803.5723,805.0738,0,9,9,9,1,0.8,0.2,0.4,0.6,,,,,,,,,,,,,,,0.1599,,0.8,0.2,0.4,0.6,0.8,0.2,0.2,0.8,,,0.202,,0.8,0.2,0.4,0.6,0.6,0.4,0.8,0.2,1,0
,,66559244530907c5dd7b77be,66fc976b2b1a9d10569acf87,2024-10-02_08h59.23.830,mdp,2024.2.1,Win32,59.17159763,66fa4ebf79326e780c390304,,,,,,,,,,,,,,,,,,,,,805.0744,805.0744,805.0762,805.8258,1,0,right,0.247,,805.8274,806.427,0,0,left,806.4286,807.5294,0,0,left,1,807.5296,807.5296,807.5311,809.0328,0,10,10,10,1,0.8,0.2,0.4,0.6,,,,,,,,,,,,,,,0.0962,,0.8,0.2,0.4,0.6,0.8,0.2,0.2,0.8,,,0.5823,,0.8,0.2,0.4,0.6,0.6,0.4,0.8,0.2,1,0
,,66559244530907c5dd7b77be,66fc976b2b1a9d10569acf87,2024-10-02_08h59.23.830,mdp,2024.2.1,Win32,59.17159763,66fa4ebf79326e780c390304,,,,,,,,,,,,,,,,,,,,,809.0336,809.0337,809.0354,809.5507,0,0,left,0.0085,,809.5526,810.3023,1,0,right,810.3039,811.2043,1,1,right,0,811.2044,811.2044,811.2062,812.7075,0,11,11,11,1,0.8,0.2,0.4,0.6,,,,,,,,,,,,,,,0.2413,,0.8,0.2,0.4,0.6,0.8,0.2,0.2,0.8,,,0.3953,,0.8,0.2,0.4,0.6,0.6,0.4,0.8,0.2,1,0
,,66559244530907c5dd7b77be,66fc976b2b1a9d10569acf87,2024-10-02_08h59.23.830,mdp,2024.2.1,Win32,59.17159763,66fa4ebf79326e780c390304,,,,,,,,,,,,,,,,,,,,,812.7081,812.7081,812.7096,813.4092,0,0,left,0.1844,,813.4109,814.0441,1,1,right,814.0462,815.2801,1,1,right,0,815.2802,815.2803,815.2821,816.7833,0,12,12,12,1,0.8,0.2,0.4,0.6,,,,,,,,,,,,,,,0.1194,,0.8,0.2,0.4,0.6,0.8,0.2,0.2,0.8,,,0.7144,,0.8,0.2,0.4,0.6,0.6,0.4,0.8,0.2,1,0
,,66559244530907c5dd7b77be,66fc976b2b1a9d10569acf87,2024-10-02_08h59.23.830,mdp,2024.2.1,Win32,59.17159763,66fa4ebf79326e780c390304,,,,,,,,,,,,,,,,,,,,,816.784,816.784,816.7861,817.3013,0,1,left,0.0017,,817.303,818.0863,1,0,right,818.088,819.0551,0,0,left,1,819.0552,819.0553,819.0571,820.5585,0,13,13,13,1,0.8,0.2,0.4,0.6,,,,,,,,,,,,,,,0.2568,,0.8,0.2,0.4,0.6,0.8,0.2,0.2,0.8,,,0.4418,,0.8,0.2,0.4,0.6,0.2,0.8,0.4,0.6,1,0
,,66559244530907c5dd7b77be,66fc976b2b1a9d10569acf87,2024-10-02_08h59.23.830,mdp,2024.2.1,Win32,59.17159763,66fa4ebf79326e780c390304,,,,,,,,,,,,,,,,,,,,,820.5593,820.5593,820.5609,821.1932,1,1,right,0.1163,,821.1954,822.2623,1,1,right,822.2639,822.9303,0,1,left,0,822.9304,822.9304,822.9323,824.4338,0,14,14,14,1,0.8,0.2,0.4,0.6,,,,,,,,,,,,,,,0.5594,,0.8,0.2,0.4,0.6,0.8,0.2,0.2,0.8,,,0.1515,,0.8,0.2,0.4,0.6,0.2,0.8,0.4,0.6,1,0
,,66559244530907c5dd7b77be,66fc976b2b1a9d10569acf87,2024-10-02_08h59.23.830,mdp,2024.2.1,Win32,59.17159763,66fa4ebf79326e780c390304,,,,,,,,,,,,,,,,,,,,,824.4346,824.4346,824.4361,825.219,0,0,left,0.2718,,825.2202,825.9539,1,1,right,825.956,826.6888,1,1,right,0,826.6889,826.6889,826.6904,828.1922,0,15,15,15,1,0.8,0.2,0.4,0.6,,,,,,,,,,,,,,,0.2208,,0.8,0.2,0.4,0.6,0.8,0.2,0.2,0.8,,,0.2244,,0.8,0.2,0.4,0.6,0.2,0.8,0.4,0.6,1,0
,,66559244530907c5dd7b77be,66fc976b2b1a9d10569acf87,2024-10-02_08h59.23.830,mdp,2024.2.1,Win32,59.17159763,66fa4ebf79326e780c390304,,,,,,,,,,,,,,,,,,,,,828.1929,828.193,828.1946,830.3636,0,1,left,1.6576,,830.3652,831.1823,1,0,right,831.184,831.8668,1,0,right,1,831.8669,831.8669,831.8684,833.3704,0,16,16,16,1,0.8,0.2,0.4,0.6,,,,,,,,,,,,,,,0.2989,,0.8,0.2,0.4,0.6,0.8,0.2,0.2,0.8,,,0.1709,,0.8,0.2,0.4,0.6,0.2,0.8,0.4,0.6,1,0
,,66559244530907c5dd7b77be,66fc976b2b1a9d10569acf87,2024-10-02_08h59.23.830,mdp,2024.2.1,Win32,59.17159763,66fa4ebf79326e780c390304,,,,,,,,,,,,,,,,,,,,,833.3712,833.3712,833.3726,850.1578,0,1,left,16.2798,,850.1596,851.4272,0,1,left,851.4289,852.2958,1,0,right,1,852.2959,852.2959,852.297,853.7992,0,17,17,17,1,0.8,0.2,0.4,0.6,,,,,,,,,,,,,,,0.7559,,0.8,0.2,0.4,0.6,0.8,0.2,0.2,0.8,,,0.3401,,0.8,0.2,0.4,0.6,0.2,0.8,0.4,0.6,1,0
,,66559244530907c5dd7b77be,66fc976b2b1a9d10569acf87,2024-10-02_08h59.23.830,mdp,2024.2.1,Win32,59.17159763,66fa4ebf79326e780c390304,,,,,,,,,,,,,,,,,,,,,853.7998,853.7999,853.8018,854.7848,0,0,left,0.4677,,854.7865,855.5532,0,1,left,855.5548,856.2383,1,0,right,1,856.2383,856.2383,856.2397,857.7413,0,18,18,18,1,0.8,0.2,0.4,0.6,,,,,,,,,,,,,,,0.2404,,0.8,0.2,0.4,0.6,0.4,0.6,0.4,0.6,,,0.1766,,0.8,0.2,0.4,0.6,0.2,0.8,0.4,0.6,1,0
,,66559244530907c5dd7b77be,66fc976b2b1a9d10569acf87,2024-10-02_08h59.23.830,mdp,2024.2.1,Win32,59.17159763,66fa4ebf79326e780c390304,,,,,,,,,,,,,,,,,,,,,857.7421,857.7421,857.7437,858.4428,0,0,left,0.1961,,858.4442,859.1612,0,0,left,859.1628,859.7959,1,0,right,1,859.7961,859.7962,859.7977,861.2992,0,19,19,19,1,0.8,0.2,0.4,0.6,,,,,,,,,,,,,,,0.206,,0.8,0.2,0.4,0.6,0.4,0.6,0.4,0.6,,,0.1105,,0.8,0.2,0.4,0.6,0.2,0.8,0.4,0.6,1,0
,,66559244530907c5dd7b77be,66fc976b2b1a9d10569acf87,2024-10-02_08h59.23.830,mdp,2024.2.1,Win32,59.17159763,66fa4ebf79326e780c390304,,,,,,,,,,,,,,,,,,,,,861.2999,861.2999,861.3014,862.0844,0,1,left,0.2705,,862.0863,862.7358,0,0,left,862.7374,863.3542,0,1,left,0,863.3543,863.3543,863.3559,864.8572,0,20,20,20,1,0.8,0.2,0.4,0.6,,,,,,,,,,,,,,,0.123,,0.8,0.2,0.4,0.6,0.4,0.6,0.4,0.6,,,0.106,,0.8,0.2,0.4,0.6,0.2,0.8,0.4,0.6,1,0
,,66559244530907c5dd7b77be,66fc976b2b1a9d10569acf87,2024-10-02_08h59.23.830,mdp,2024.2.1,Win32,59.17159763,66fa4ebf79326e780c390304,,,,,,,,,,,,,,,,,,,,,864.8579,864.8579,864.8599,865.7257,1,0,right,0.3521,,865.7273,866.4606,1,0,right,866.462,869.7681,0,1,left,0,869.7682,869.7682,869.7695,871.2716,0,21,21,21,1,0.8,0.2,0.4,0.6,,,,,,,,,,,,,,,0.2097,,0.8,0.2,0.4,0.6,0.4,0.6,0.4,0.6,,,2.7888,,0.8,0.2,0.4,0.6,0.2,0.8,0.4,0.6,1,0
,,66559244530907c5dd7b77be,66fc976b2b1a9d10569acf87,2024-10-02_08h59.23.830,mdp,2024.2.1,Win32,59.17159763,66fa4ebf79326e780c390304,,,,,,,,,,,,,,,,,,,,,871.2723,871.2723,871.2737,872.0566,1,0,right,0.2737,,872.0581,872.6744,1,1,right,872.6759,873.2592,1,1,right,0,873.2594,873.2594,873.2612,874.7626,0,22,22,22,1,0.8,0.2,0.4,0.6,,,,,,,,,,,,,,,0.1048,,0.8,0.2,0.4,0.6,0.4,0.6,0.4,0.6,,,0.061,,0.8,0.2,0.4,0.6,0.2,0.8,0.4,0.6,1,0
,,66559244530907c5dd7b77be,66fc976b2b1a9d10569acf87,2024-10-02_08h59.23.830,mdp,2024.2.1,Win32,59.17159763,66fa4ebf79326e780c390304,,,,,,,,,,,,,,,,,,,,,874.7635,874.7635,874.7655,875.7314,0,0,left,0.4547,,875.7332,876.3327,0,0,left,876.3344,877.2682,0,1,left,0,877.2683,877.2684,877.2701,878.7715,0,23,23,23,1,0.8,0.2,0.4,0.6,,,,,,,,,,,,,,,0.0865,,0.8,0.2,0.4,0.6,0.4,0.6,0.4,0.6,,,0.4183,,0.4,0.6,0.8,0.2,0.2,0.8,0.4,0.6,1,0
,,66559244530907c5dd7b77be,66fc976b2b1a9d10569acf87,2024-10-02_08h59.23.830,mdp,2024.2.1,Win32,59.17159763,66fa4ebf79326e780c390304,,,,,,,,,,,,,,,,,,,,,878.7723,878.7724,878.7741,879.4398,1,1,right,0.1499,,879.442,879.9575,1,1,right,879.9597,880.5254,0,1,left,0,880.5256,880.5257,880.5272,882.0288,0,24,24,24,1,0.8,0.2,0.4,0.6,,,,,,,,,,,,,,,0.0006,,0.8,0.2,0.4,0.6,0.4,0.6,0.4,0.6,,,0.0423,,0.4,0.6,0.8,0.2,0.2,0.8,0.4,0.6,1,0
,,66559244530907c5dd7b77be,66fc976b2b1a9d10569acf87,2024-10-02_08h59.23.830,mdp,2024.2.1,Win32,59.17159763,66fa4ebf79326e780c390304,,,,,,,,,,,,,,,,,,,,,882.0297,882.0298,882.0312,882.697,1,1,right,0.1402,,882.6986,891.266,1,0,right,891.2677,892.0343,0,1,left,0,892.0344,892.0344,892.036,893.5378,0,25,25,25,1,0.8,0.2,0.4,0.6,,,,,,,,,,,,,,,8.0505,,0.8,0.2,0.4,0.6,0.4,0.6,0.4,0.6,,,0.2514,,0.4,0.6,0.8,0.2,0.2,0.8,0.4,0.6,1,0
,,66559244530907c5dd7b77be,66fc976b2b1a9d10569acf87,2024-10-02_08h59.23.830,mdp,2024.2.1,Win32,59.17159763,66fa4ebf79326e780c390304,,,,,,,,,,,,,,,,,,,,,893.5385,893.5385,893.5405,894.6068,0,1,left,0.552,,894.6084,895.2749,1,1,right,895.277,895.9765,1,1,right,0,895.9766,895.9766,895.9782,897.4799,0,26,26,26,1,0.8,0.2,0.4,0.6,,,,,,,,,,,,,,,0.1631,,0.8,0.2,0.4,0.6,0.4,0.6,0.4,0.6,,,0.1776,,0.4,0.6,0.8,0.2,0.2,0.8,0.4,0.6,1,0
,,66559244530907c5dd7b77be,66fc976b2b1a9d10569acf87,2024-10-02_08h59.23.830,mdp,2024.2.1,Win32,59.17159763,66fa4ebf79326e780c390304,,,,,,,,,,,,,,,,,,,,,897.4806,897.4807,897.4825,898.5823,0,0,left,0.5937,,898.5838,899.4676,0,0,left,899.4689,900.1526,1,0,right,1,900.1527,900.1527,900.1546,901.6557,0,27,27,27,1,0.8,0.2,0.4,0.6,,,,,,,,,,,,,,,0.3596,,0.8,0.2,0.4,0.6,0.4,0.6,0.4,0.6,,,0.1588,,0.4,0.6,0.8,0.2,0.6,0.4,0.2,0.8,1,0
,,66559244530907c5dd7b77be,66fc976b2b1a9d10569acf87,2024-10-02_08h59.23.830,mdp,2024.2.1,Win32,59.17159763,66fa4ebf79326e780c390304,,,,,,,,,,,,,,,,,,,,,901.6561,901.6562,901.6573,902.3072,0,1,left,0.1452,,902.3093,903.1926,1,1,right,903.1942,903.8441,1,1,right,0,903.8443,903.8443,903.8462,905.3474,0,28,28,28,1,0.8,0.2,0.4,0.6,,,,,,,,,,,,,,,0.3579,,0.8,0.2,0.4,0.6,0.4,0.6,0.4,0.6,,,0.1353,,0.4,0.6,0.8,0.2,0.6,0.4,0.2,0.8,1,0
,,66559244530907c5dd7b77be,66fc976b2b1a9d10569acf87,2024-10-02_08h59.23.830,mdp,2024.2.1,Win32,59.17159763,66fa4ebf79326e780c390304,,,,,,,,,,,,,,,,,,,,,905.3482,905.3482,905.3502,906.0656,0,0,left,0.2059,,906.0674,907.0179,0,1,left,907.0198,907.8697,1,1,right,0,907.8698,907.8698,907.8712,909.373,0,29,29,29,1,0.8,0.2,0.4,0.6,,,,,,,,,,,,,,,0.4299,,0.8,0.2,0.4,0.6,0.4,0.6,0.4,0.6,,,0.3426,,0.4,0.6,0.8,0.2,0.6,0.4,0.2,0.8,1,0
,,66559244530907c5dd7b77be,66fc976b2b1a9d10569acf87,2024-10-02_08h59.23.830,mdp,2024.2.1,Win32,59.17159763,66fa4ebf79326e780c390304,,,,,,,,,,,,,,,,,,,,,909.3737,909.3737,909.3756,911.0434,0,0,left,1.1558,,911.045,911.9621,0,0,left,911.9638,912.7638,1,0,right,1,912.7639,912.7639,912.7658,914.2673,0,30,30,30,1,0.8,0.2,0.4,0.6,,,,,,,,,,,,,,,0.4064,,0.8,0.2,0.4,0.6,0.4,0.6,0.4,0.6,,,0.2834,,0.4,0.6,0.8,0.2,0.6,0.4,0.2,0.8,1,0
,,66559244530907c5dd7b77be,66fc976b2b1a9d10569acf87,2024-10-02_08h59.23.830,mdp,2024.2.1,Win32,59.17159763,66fa4ebf79326e780c390304,,,,,,,,,,,,,,,,,,,,,914.2682,914.2682,914.2699,915.1191,0,0,left,0.3181,,915.1207,915.8041,1,0,right,915.8058,916.6893,1,0,right,1,916.6894,916.6895,916.6909,918.1929,0,31,31,31,1,0.8,0.2,0.4,0.6,,,,,,,,,,,,,,,0.1693,,0.8,0.2,0.4,0.6,0.4,0.6,0.4,0.6,,,0.373,,0.4,0.6,0.8,0.2,0.6,0.4,0.2,0.8,1,0
,,66559244530907c5dd7b77be,66fc976b2b1a9d10569acf87,2024-10-02_08h59.23.830,mdp,2024.2.1,Win32,59.17159763,66fa4ebf79326e780c390304,,,,,,,,,,,,,,,,,,,,,918.1935,918.1936,918.1954,934.8798,0,0,left,16.176,,934.8815,935.5815,1,1,right,935.5831,936.2663,1,1,right,0,936.2665,936.2665,936.268,937.7697,0,32,32,32,1,0.8,0.2,0.4,0.6,,,,,,,,,,,,,,,0.1844,,0.8,0.2,0.4,0.6,0.4,0.6,0.4,0.6,,,0.1552,,0.4,0.6,0.8,0.2,0.6,0.4,0.2,0.8,1,0
,,66559244530907c5dd7b77be,66fc976b2b1a9d10569acf87,2024-10-02_08h59.23.830,mdp,2024.2.1,Win32,59.17159763,66fa4ebf79326e780c390304,,,,,,,,,,,,,,,,,,,,,937.7705,937.7706,937.7719,939.2396,0,0,left,0.9593,,939.2412,940.3922,0,0,left,940.3938,941.0771,1,0,right,1,941.0771,941.0772,941.079,942.5803,0,33,33,33,1,0.8,0.2,0.4,0.6,,,,,,,,,,,,,,,0.6421,,0.8,0.2,0.4,0.6,0.4,0.6,0.4,0.6,,,0.1668,,0.4,0.6,0.8,0.2,0.6,0.4,0.2,0.8,1,0
,,66559244530907c5dd7b77be,66fc976b2b1a9d10569acf87,2024-10-02_08h59.23.830,mdp,2024.2.1,Win32,59.17159763,66fa4ebf79326e780c390304,,,,,,,,,,,,,,,,,,,,,942.5812,942.5813,942.583,943.332,0,0,left,0.2456,,943.3337,944.3844,0,0,left,944.3861,945.1861,1,0,right,1,945.1863,945.1863,945.1878,946.6895,0,34,34,34,1,0.8,0.2,0.4,0.6,,,,,,,,,,,,,,,0.5359,,0.8,0.2,0.4,0.6,0.4,0.6,0.4,0.6,,,0.2974,,0.4,0.6,0.8,0.2,0.6,0.4,0.2,0.8,1,0
,,66559244530907c5dd7b77be,66fc976b2b1a9d10569acf87,2024-10-02_08h59.23.830,mdp,2024.2.1,Win32,59.17159763,66fa4ebf79326e780c390304,,,,,,,,,,,,,,,,,,,,,946.6902,946.6902,946.6923,947.6085,0,0,left,0.4074,,947.6105,948.3098,1,1,right,948.3117,948.9946,1,1,right,0,948.9948,948.9948,948.9959,950.4981,0,35,35,35,1,0.8,0.2,0.4,0.6,,,,,,,,,,,,,,,0.1856,,0.8,0.2,0.4,0.6,0.4,0.6,0.4,0.6,,,0.1632,,0.4,0.6,0.8,0.2,0.4,0.6,0.4,0.6,1,0
,,66559244530907c5dd7b77be,66fc976b2b1a9d10569acf87,2024-10-02_08h59.23.830,mdp,2024.2.1,Win32,59.17159763,66fa4ebf79326e780c390304,,,,,,,,,,,,,,,,,,,,,950.4988,950.4989,950.5004,951.233,0,0,left,0.2237,,951.2345,951.8009,1,0,right,951.8022,952.4022,1,0,right,1,952.4023,952.4024,952.4043,953.9056,0,36,36,36,1,0.8,0.2,0.4,0.6,,,,,,,,,,,,,,,0.0568,,0.8,0.2,0.4,0.6,0.4,0.6,0.4,0.6,,,0.0867,,0.4,0.6,0.8,0.2,0.4,0.6,0.4,0.6,1,0
,,66559244530907c5dd7b77be,66fc976b2b1a9d10569acf87,2024-10-02_08h59.23.830,mdp,2024.2.1,Win32,59.17159763,66fa4ebf79326e780c390304,,,,,,,,,,,,,,,,,,,,,953.9062,953.9063,953.9077,954.4569,0,0,left,0.0342,,954.4586,955.1584,0,0,left,955.16,955.9267,0,1,left,0,955.9269,955.9269,955.9289,957.4302,0,37,37,37,1,0.8,0.2,0.4,0.6,,,,,,,,,,,,,,,0.185,,0.8,0.2,0.4,0.6,0.4,0.6,0.4,0.6,,,0.2511,,0.4,0.6,0.8,0.2,0.4,0.6,0.4,0.6,1,0
,,66559244530907c5dd7b77be,66fc976b2b1a9d10569acf87,2024-10-02_08h59.23.830,mdp,2024.2.1,Win32,59.17159763,66fa4ebf79326e780c390304,,,,,,,,,,,,,,,,,,,,,957.4308,957.4308,957.4329,958.1651,1,1,right,0.2283,,958.1669,959.0004,1,1,right,959.002,960.1863,1,1,right,0,960.1864,960.1865,960.1883,961.6896,0,38,38,38,1,0.8,0.2,0.4,0.6,,,,,,,,,,,,,,,0.3141,,0.8,0.2,0.4,0.6,0.4,0.6,0.4,0.6,,,0.6632,,0.4,0.6,0.8,0.2,0.4,0.6,0.4,0.6,1,0
,,66559244530907c5dd7b77be,66fc976b2b1a9d10569acf87,2024-10-02_08h59.23.830,mdp,2024.2.1,Win32,59.17159763,66fa4ebf79326e780c390304,,,,,,,,,,,,,,,,,,,,,961.6902,961.6903,961.692,962.2241,0,0,left,0.0174,,962.2259,962.8254,1,0,right,962.8273,963.7109,1,0,right,1,963.711,963.711,963.7125,965.2141,0,39,39,39,1,0.8,0.2,0.4,0.6,,,,,,,,,,,,,,,0.0782,,0.8,0.2,0.4,0.6,0.6,0.4,0.6,0.4,,,0.3576,,0.4,0.6,0.8,0.2,0.4,0.6,0.4,0.6,1,0
,,66559244530907c5dd7b77be,66fc976b2b1a9d10569acf87,2024-10-02_08h59.23.830,mdp,2024.2.1,Win32,59.17159763,66fa4ebf79326e780c390304,,,,,,,,,,,,,,,,,,,,,965.2145,965.2145,965.2158,966.0827,0,1,left,0.3551,,966.0846,966.9179,0,1,left,966.9198,967.8701,0,0,left,1,967.8701,967.8702,967.8716,969.3734,0,40,40,40,1,0.2,0.8,0.6,0.4,,,,,,,,,,,,,,,0.3083,,0.8,0.2,0.4,0.6,0.6,0.4,0.6,0.4,,,0.4272,,0.4,0.6,0.8,0.2,0.4,0.6,0.4,0.6,1,0
,,66559244530907c5dd7b77be,66fc976b2b1a9d10569acf87,2024-10-02_08h59.23.830,mdp,2024.2.1,Win32,59.17159763,66fa4ebf79326e780c390304,,,,,,,,,,,,,,,,,,,,,969.3741,969.3742,969.376,970.2419,1,1,right,0.3517,,970.2437,970.9436,1,0,right,970.9454,971.5117,1,0,right,1,971.5117,971.5117,971.5133,973.0149,0,41,41,41,1,0.2,0.8,0.6,0.4,,,,,,,,,,,,,,,0.1844,,0.8,0.2,0.4,0.6,0.6,0.4,0.6,0.4,,,0.0467,,0.4,0.6,0.8,0.2,0.4,0.6,0.4,0.6,1,0
,,66559244530907c5dd7b77be,66fc976b2b1a9d10569acf87,2024-10-02_08h59.23.830,mdp,2024.2.1,Win32,59.17159763,66fa4ebf79326e780c390304,,,,,,,,,,,,,,,,,,,,,973.0158,973.0158,973.0177,973.6329,1,1,right,0.1069,,973.6348,974.3011,0,0,left,974.3028,975.2866,0,1,left,0,975.2867,975.2867,975.2882,976.7899,0,42,42,42,1,0.2,0.8,0.6,0.4,,,,,,,,,,,,,,,0.1601,,0.8,0.2,0.4,0.6,0.6,0.4,0.6,0.4,,,0.4765,,0.4,0.6,0.8,0.2,0.4,0.6,0.4,0.6,1,0
,,66559244530907c5dd7b77be,66fc976b2b1a9d10569acf87,2024-10-02_08h59.23.830,mdp,2024.2.1,Win32,59.17159763,66fa4ebf79326e780c390304,,,,,,,,,,,,,,,,,,,,,976.7907,976.7907,976.7925,977.4247,0,1,left,0.1241,,977.4264,978.1264,0,0,left,978.1279,978.7109,1,0,right,1,978.711,978.711,978.7126,980.2142,0,43,43,43,1,0.2,0.8,0.6,0.4,,,,,,,,,,,,,,,0.1922,,0.8,0.2,0.4,0.6,0.6,0.4,0.6,0.4,,,0.0744,,0.4,0.6,0.8,0.2,0.4,0.6,0.4,0.6,1,0
,,66559244530907c5dd7b77be,66fc976b2b1a9d10569acf87,2024-10-02_08h59.23.830,mdp,2024.2.1,Win32,59.17159763,66fa4ebf79326e780c390304,,,,,,,,,,,,,,,,,,,,,980.2146,980.2146,980.2162,981.0327,1,0,right,0.307,,981.0343,981.801,0,0,left,981.8027,982.3525,1,0,right,1,982.3526,982.3526,982.3543,983.8558,0,44,44,44,1,0.2,0.8,0.6,0.4,,,,,,,,,,,,,,,0.2422,,0.8,0.2,0.4,0.6,0.8,0.2,0.8,0.2,,,0.0394,,0.4,0.6,0.8,0.2,0.4,0.6,0.4,0.6,1,0
,,66559244530907c5dd7b77be,66fc976b2b1a9d10569acf87,2024-10-02_08h59.23.830,mdp,2024.2.1,Win32,59.17159763,66fa4ebf79326e780c390304,,,,,,,,,,,,,,,,,,,,,983.8566,983.8566,983.8583,984.7076,0,1,left,0.3458,,984.7091,985.2755,0,0,left,985.277,985.9102,0,1,left,0,985.9104,985.9104,985.9118,987.4135,0,45,45,45,1,0.2,0.8,0.6,0.4,,,,,,,,,,,,,,,0.0509,,0.8,0.2,0.4,0.6,0.8,0.2,0.8,0.2,,,0.1254,,0.4,0.6,0.8,0.2,0.4,0.6,0.4,0.6,1,0
,,66559244530907c5dd7b77be,66fc976b2b1a9d10569acf87,2024-10-02_08h59.23.830,mdp,2024.2.1,Win32,59.17159763,66fa4ebf79326e780c390304,,,,,,,,,,,,,,,,,,,,,987.4144,987.4145,987.4164,988.2322,0,1,left,0.3078,,988.2339,989.0173,1,0,right,989.0189,989.9192,0,1,left,0,989.9192,989.9193,989.9208,991.4229,0,46,46,46,1,0.2,0.8,0.6,0.4,,,,,,,,,,,,,,,0.2729,,0.8,0.2,0.4,0.6,0.8,0.2,0.8,0.2,,,0.3851,,0.4,0.6,0.8,0.2,0.4,0.6,0.4,0.6,1,0
,,66559244530907c5dd7b77be,66fc976b2b1a9d10569acf87,2024-10-02_08h59.23.830,mdp,2024.2.1,Win32,59.17159763,66fa4ebf79326e780c390304,,,,,,,,,,,,,,,,,,,,,991.4238,991.4238,991.4253,992.3079,0,1,left,0.3613,,992.3095,993.0261,1,1,right,993.0278,993.5939,0,1,left,0,993.5943,993.5943,993.5963,995.0973,0,47,47,47,1,0.2,0.8,0.6,0.4,,,,,,,,,,,,,,,0.2049,,0.8,0.2,0.4,0.6,0.8,0.2,0.8,0.2,,,0.0527,,0.4,0.6,0.8,0.2,0.4,0.6,0.4,0.6,1,0
,,66559244530907c5dd7b77be,66fc976b2b1a9d10569acf87,2024-10-02_08h59.23.830,mdp,2024.2.1,Win32,59.17159763,66fa4ebf79326e780c390304,,,,,,,,,,,,,,,,,,,,,995.098,995.098,995.0996,995.9492,0,1,left,0.3433,,995.9509,996.6007,1,0,right,996.602,997.2855,0,1,left,0,997.2856,997.2856,997.2871,998.7889,0,48,48,48,1,0.2,0.8,0.6,0.4,,,,,,,,,,,,,,,0.1394,,0.8,0.2,0.4,0.6,0.8,0.2,0.8,0.2,,,0.1689,,0.4,0.6,0.8,0.2,0.4,0.6,0.4,0.6,1,0
,,66559244530907c5dd7b77be,66fc976b2b1a9d10569acf87,2024-10-02_08h59.23.830,mdp,2024.2.1,Win32,59.17159763,66fa4ebf79326e780c390304,,,,,,,,,,,,,,,,,,,,,998.7896,998.7896,998.7915,999.4072,0,1,left,0.1076,,999.4086,1000.075,0,0,left,1000.0769,1000.8937,0,1,left,0,1000.8938,1000.8938,1000.8954,1002.397,0,49,49,49,1,0.2,0.8,0.6,0.4,,,,,,,,,,,,,,,0.1625,,0.8,0.2,0.4,0.6,0.8,0.2,0.8,0.2,,,0.3014,,0.4,0.6,0.8,0.2,0.4,0.6,0.4,0.6,1,0
,,66559244530907c5dd7b77be,66fc976b2b1a9d10569acf87,2024-10-02_08h59.23.830,mdp,2024.2.1,Win32,59.17159763,66fa4ebf79326e780c390304,,,,,,,,,,,,,,,,,,,,,,,,,,,,,,,,,,,,,,,,,,,,,,,,,,,,,,,,1002.3973,1060.8942,0,2,2,0,1,imgs/squirrel.png,imgs/lion.png,imgs/pig.png,imgs/bear.png,imgs/dog.png,,,,,,,,,,,,,,,,,,,,,,,,
,,66559244530907c5dd7b77be,66fc976b2b1a9d10569acf87,2024-10-02_08h59.23.830,mdp,2024.2.1,Win32,59.17159763,66fa4ebf79326e780c390304,,,,,,,,,,,,,,3,seqs/st3seq17.csv,1060.8952,1070.2652,space,8.859,,1070.2745,1070.2746,1070.2758,1072.6373,1,1,right,1.8285,,1072.6389,1073.1716,0,0,left,1073.1736,1073.6905,1,0,right,1,1073.6906,1073.6907,1073.6918,1075.1928,0,0,0,0,1,0.4,0.6,0.6,0.4,,,,,,,,,,,,,,,0.008,,0.6,0.4,0.2,0.8,0.6,0.4,0.2,0.8,,,0.0012,,0.2,0.8,0.6,0.4,0.8,0.2,0.6,0.4,1,0
,,66559244530907c5dd7b77be,66fc976b2b1a9d10569acf87,2024-10-02_08h59.23.830,mdp,2024.2.1,Win32,59.17159763,66fa4ebf79326e780c390304,,,,,,,,,,,,,,,,,,,,,1075.194,1075.194,1075.1955,1076.0615,0,0,left,0.3354,,1076.0635,1076.7143,0,1,left,1076.7156,1077.2498,1,0,right,1,1077.2498,1077.2498,1077.2509,1078.7508,0,1,1,1,1,0.4,0.6,0.6,0.4,,,,,,,,,,,,,,,0.1373,,0.6,0.4,0.2,0.8,0.6,0.4,0.2,0.8,,,0.0011,,0.2,0.8,0.6,0.4,0.8,0.2,0.6,0.4,1,0
,,66559244530907c5dd7b77be,66fc976b2b1a9d10569acf87,2024-10-02_08h59.23.830,mdp,2024.2.1,Win32,59.17159763,66fa4ebf79326e780c390304,,,,,,,,,,,,,,,,,,,,,1078.7517,1078.7517,1078.753,1079.5857,1,0,right,0.3137,,1079.5872,1080.1373,0,1,left,1080.1389,1080.8054,1,0,right,1,1080.8055,1080.8056,1080.8074,1082.3088,0,2,2,2,1,0.4,0.6,0.6,0.4,,,,,,,,,,,,,,,0.0393,,0.6,0.4,0.2,0.8,0.6,0.4,0.2,0.8,,,0.1518,,0.2,0.8,0.6,0.4,0.4,0.6,0.8,0.2,1,0
,,66559244530907c5dd7b77be,66fc976b2b1a9d10569acf87,2024-10-02_08h59.23.830,mdp,2024.2.1,Win32,59.17159763,66fa4ebf79326e780c390304,,,,,,,,,,,,,,,,,,,,,1082.3094,1082.3095,1082.3108,1083.0435,0,0,left,0.2206,,1083.0455,1083.7452,0,0,left,1083.7472,1084.6137,0,1,left,0,1084.614,1084.614,1084.6156,1086.1172,0,3,3,3,1,0.4,0.6,0.6,0.4,,,,,,,,,,,,,,,0.1845,,0.6,0.4,0.2,0.8,0.6,0.4,0.2,0.8,,,0.3413,,0.2,0.8,0.6,0.4,0.4,0.6,0.8,0.2,1,0
,,66559244530907c5dd7b77be,66fc976b2b1a9d10569acf87,2024-10-02_08h59.23.830,mdp,2024.2.1,Win32,59.17159763,66fa4ebf79326e780c390304,,,,,,,,,,,,,,,,,,,,,1086.118,1086.118,1086.1192,1086.635,1,1,right,0.0036,,1086.6367,1087.3699,1,1,right,1087.3721,1088.2218,1,0,right,1,1088.222,1088.2221,1088.2239,1089.7251,0,4,4,4,1,0.4,0.6,0.6,0.4,,,,,,,,,,,,,,,0.2124,,0.6,0.4,0.2,0.8,0.6,0.4,0.2,0.8,,,0.3253,,0.2,0.8,0.6,0.4,0.4,0.6,0.8,0.2,1,0
,,66559244530907c5dd7b77be,66fc976b2b1a9d10569acf87,2024-10-02_08h59.23.830,mdp,2024.2.1,Win32,59.17159763,66fa4ebf79326e780c390304,,,,,,,,,,,,,,,,,,,,,1089.7262,1089.7262,1089.7275,1090.2429,1,0,right,0.0118,,1090.2449,1090.7787,0,1,left,1090.7801,1091.3788,1,0,right,1,1091.3788,1091.3788,1091.3804,1092.8822,0,5,5,5,1,0.4,0.6,0.6,0.4,,,,,,,,,,,,,,,0.0221,,0.6,0.4,0.2,0.8,0.6,0.4,0.2,0.8,,,0.0712,,0.2,0.8,0.6,0.4,0.4,0.6,0.8,0.2,1,0
,,66559244530907c5dd7b77be,66fc976b2b1a9d10569acf87,2024-10-02_08h59.23.830,mdp,2024.2.1,Win32,59.17159763,66fa4ebf79326e780c390304,,,,,,,,,,,,,,,,,,,,,1092.8828,1092.8829,1092.8841,1093.5169,1,0,right,0.1188,,1093.5182,1094.0684,0,0,left,1094.0703,1094.7364,0,1,left,0,1094.7365,1094.7366,1094.7381,1096.2398,0,6,6,6,1,0.4,0.6,0.6,0.4,,,,,,,,,,,,,,,0.0361,,0.6,0.4,0.2,0.8,0.6,0.4,0.2,0.8,,,0.1465,,0.2,0.8,0.6,0.4,0.4,0.6,0.8,0.2,1,0
,,66559244530907c5dd7b77be,66fc976b2b1a9d10569acf87,2024-10-02_08h59.23.830,mdp,2024.2.1,Win32,59.17159763,66fa4ebf79326e780c390304,,,,,,,,,,,,,,,,,,,,,1096.2408,1096.2408,1096.2421,1096.8742,1,1,right,0.1125,,1096.8763,1097.6595,0,1,left,1097.6616,1098.7286,1,0,right,1,1098.7287,1098.7287,1098.7299,1100.2318,0,7,7,7,1,0.4,0.6,0.6,0.4,,,,,,,,,,,,,,,0.2601,,0.6,0.4,0.2,0.8,0.6,0.4,0.2,0.8,,,0.5477,,0.2,0.8,0.6,0.4,0.4,0.6,0.8,0.2,1,0
,,66559244530907c5dd7b77be,66fc976b2b1a9d10569acf87,2024-10-02_08h59.23.830,mdp,2024.2.1,Win32,59.17159763,66fa4ebf79326e780c390304,,,,,,,,,,,,,,,,,,,,,1100.2327,1100.2328,1100.2339,1100.9167,0,0,left,0.1692,,1100.9185,1101.8856,0,0,left,1101.8877,1102.9713,0,1,left,0,1102.9715,1102.9715,1102.9734,1104.4748,0,8,8,8,1,0.6,0.4,0.2,0.8,,,,,,,,,,,,,,,0.4503,,0.6,0.4,0.2,0.8,0.6,0.4,0.2,0.8,,,0.5608,,0.2,0.8,0.6,0.4,0.4,0.6,0.8,0.2,1,0
,,66559244530907c5dd7b77be,66fc976b2b1a9d10569acf87,2024-10-02_08h59.23.830,mdp,2024.2.1,Win32,59.17159763,66fa4ebf79326e780c390304,,,,,,,,,,,,,,,,,,,,,1104.4758,1104.4758,1104.4772,1105.0424,1,1,right,0.045,,1105.0443,1105.6607,1,1,right,1105.6627,1106.3288,0,0,left,1,1106.329,1106.329,1106.3307,1107.8322,0,9,9,9,1,0.6,0.4,0.2,0.8,,,,,,,,,,,,,,,0.0928,,0.6,0.4,0.2,0.8,0.6,0.4,0.2,0.8,,,0.1476,,0.2,0.8,0.6,0.4,0.4,0.6,0.8,0.2,1,0
,,66559244530907c5dd7b77be,66fc976b2b1a9d10569acf87,2024-10-02_08h59.23.830,mdp,2024.2.1,Win32,59.17159763,66fa4ebf79326e780c390304,,,,,,,,,,,,,,,,,,,,,1107.833,1107.8331,1107.8346,1108.4671,0,0,left,0.1208,,1108.4691,1108.9845,1,1,right,1108.9863,1109.5706,0,0,left,1,1109.5706,1109.5707,1109.5719,1111.0727,0,10,10,10,1,0.6,0.4,0.2,0.8,,,,,,,,,,,,,,,0.0006,,0.6,0.4,0.2,0.8,0.6,0.4,0.2,0.8,,,0.0809,,0.2,0.8,0.6,0.4,0.4,0.6,0.8,0.2,1,0
,,66559244530907c5dd7b77be,66fc976b2b1a9d10569acf87,2024-10-02_08h59.23.830,mdp,2024.2.1,Win32,59.17159763,66fa4ebf79326e780c390304,,,,,,,,,,,,,,,,,,,,,1111.0735,1111.0735,1111.0748,1111.7079,1,1,right,0.128,,1111.7094,1112.3088,0,0,left,1112.3107,1112.8433,0,0,left,1,1112.8433,1112.8433,1112.8448,1114.3464,0,11,11,11,1,0.6,0.4,0.2,0.8,,,,,,,,,,,,,,,0.0829,,0.6,0.4,0.2,0.8,0.6,0.4,0.2,0.8,,,0.0206,,0.2,0.8,0.6,0.4,0.2,0.8,0.4,0.6,1,0
,,66559244530907c5dd7b77be,66fc976b2b1a9d10569acf87,2024-10-02_08h59.23.830,mdp,2024.2.1,Win32,59.17159763,66fa4ebf79326e780c390304,,,,,,,,,,,,,,,,,,,,,1114.347,1114.3471,1114.3482,1114.8644,1,0,right,0.006,,1114.8663,1115.4157,0,0,left,1115.4177,1115.9502,1,0,right,1,1115.9502,1115.9502,1115.9514,1117.4536,0,12,12,12,1,0.6,0.4,0.2,0.8,,,,,,,,,,,,,,,0.0303,,0.6,0.4,0.2,0.8,0.6,0.4,0.2,0.8,,,0.0174,,0.2,0.8,0.6,0.4,0.2,0.8,0.4,0.6,1,0
,,66559244530907c5dd7b77be,66fc976b2b1a9d10569acf87,2024-10-02_08h59.23.830,mdp,2024.2.1,Win32,59.17159763,66fa4ebf79326e780c390304,,,,,,,,,,,,,,,,,,,,,1117.4546,1117.4546,1117.456,1118.0216,0,0,left,0.0593,,1118.0237,1118.5727,0,1,left,1118.5747,1119.7923,0,1,left,0,1119.7924,1119.7924,1119.7938,1121.2956,0,13,13,13,1,0.6,0.4,0.2,0.8,,,,,,,,,,,,,,,0.0433,,0.6,0.4,0.2,0.8,0.6,0.4,0.2,0.8,,,0.6989,,0.2,0.8,0.6,0.4,0.2,0.8,0.4,0.6,1,0
,,66559244530907c5dd7b77be,66fc976b2b1a9d10569acf87,2024-10-02_08h59.23.830,mdp,2024.2.1,Win32,59.17159763,66fa4ebf79326e780c390304,,,,,,,,,,,,,,,,,,,,,1121.2964,1121.2964,1121.2978,1121.8636,0,0,left,0.0574,,1121.8653,1122.4315,1,1,right,1122.4335,1123.4333,1,0,right,1,1123.4335,1123.4335,1123.4349,1124.9368,0,14,14,14,1,0.6,0.4,0.2,0.8,,,,,,,,,,,,,,,0.0505,,0.6,0.4,0.2,0.8,0.6,0.4,0.2,0.8,,,0.4846,,0.2,0.8,0.6,0.4,0.2,0.8,0.4,0.6,1,0
,,66559244530907c5dd7b77be,66fc976b2b1a9d10569acf87,2024-10-02_08h59.23.830,mdp,2024.2.1,Win32,59.17159763,66fa4ebf79326e780c390304,,,,,,,,,,,,,,,,,,,,,1124.9375,1124.9375,1124.9389,1125.6054,0,1,left,0.1518,,1125.6073,1126.1396,1,1,right,1126.1416,1126.9747,0,0,left,1,1126.9748,1126.9748,1126.9764,1128.4782,0,15,15,15,1,0.6,0.4,0.2,0.8,,,,,,,,,,,,,,,0.0098,,0.2,0.8,0.6,0.4,0.6,0.4,0.2,0.8,,,0.3172,,0.2,0.8,0.6,0.4,0.2,0.8,0.4,0.6,1,0
,,66559244530907c5dd7b77be,66fc976b2b1a9d10569acf87,2024-10-02_08h59.23.830,mdp,2024.2.1,Win32,59.17159763,66fa4ebf79326e780c390304,,,,,,,,,,,,,,,,,,,,,1128.4795,1128.4795,1128.4807,1129.2633,1,0,right,0.2507,,1129.2649,1130.1317,0,1,left,1130.1329,1131.1511,1,1,right,0,1131.1512,1131.1512,1131.1528,1132.6541,0,16,16,16,1,0.6,0.4,0.2,0.8,,,,,,,,,,,,,,,0.3431,,0.2,0.8,0.6,0.4,0.6,0.4,0.2,0.8,,,0.5089,,0.2,0.8,0.6,0.4,0.2,0.8,0.4,0.6,1,0
,,66559244530907c5dd7b77be,66fc976b2b1a9d10569acf87,2024-10-02_08h59.23.830,mdp,2024.2.1,Win32,59.17159763,66fa4ebf79326e780c390304,,,,,,,,,,,,,,,,,,,,,1132.6546,1132.6546,1132.6561,1133.2386,1,0,right,0.0748,,1133.2406,1133.7732,1,0,right,1133.775,1134.6085,1,0,right,1,1134.6088,1134.6088,1134.6105,1136.1118,0,17,17,17,1,0.6,0.4,0.2,0.8,,,,,,,,,,,,,,,0.018,,0.2,0.8,0.6,0.4,0.6,0.4,0.2,0.8,,,0.3081,,0.2,0.8,0.6,0.4,0.2,0.8,0.4,0.6,1,0
,,66559244530907c5dd7b77be,66fc976b2b1a9d10569acf87,2024-10-02_08h59.23.830,mdp,2024.2.1,Win32,59.17159763,66fa4ebf79326e780c390304,,,,,,,,,,,,,,,,,,,,,1136.1125,1136.1125,1136.114,1136.8301,0,0,left,0.2089,,1136.832,1137.6653,1,0,right,1137.6673,1138.534,1,0,right,1,1138.5342,1138.5342,1138.5359,1140.0373,0,18,18,18,1,0.6,0.4,0.2,0.8,,,,,,,,,,,,,,,0.3234,,0.2,0.8,0.6,0.4,0.6,0.4,0.2,0.8,,,0.3599,,0.2,0.8,0.6,0.4,0.2,0.8,0.4,0.6,1,0
,,66559244530907c5dd7b77be,66fc976b2b1a9d10569acf87,2024-10-02_08h59.23.830,mdp,2024.2.1,Win32,59.17159763,66fa4ebf79326e780c390304,,,,,,,,,,,,,,,,,,,,,1140.0381,1140.0381,1140.0395,1140.5549,1,1,right,0.0118,,1140.5569,1141.1065,1,1,right,1141.1082,1141.7912,1,1,right,0,1141.7914,1141.7914,1141.7933,1143.2947,0,19,19,19,1,0.6,0.4,0.2,0.8,,,,,,,,,,,,,,,0.036,,0.2,0.8,0.6,0.4,0.6,0.4,0.2,0.8,,,0.1564,,0.2,0.8,0.6,0.4,0.2,0.8,0.4,0.6,1,0
,,66559244530907c5dd7b77be,66fc976b2b1a9d10569acf87,2024-10-02_08h59.23.830,mdp,2024.2.1,Win32,59.17159763,66fa4ebf79326e780c390304,,,,,,,,,,,,,,,,,,,,,1143.2957,1143.2957,1143.297,1144.3466,1,0,right,0.5297,,1144.3487,1145.5998,0,1,left,1145.6018,1146.2512,0,1,left,0,1146.2514,1146.2514,1146.2529,1147.7543,0,20,20,20,1,0.6,0.4,0.2,0.8,,,,,,,,,,,,,,,0.7254,,0.2,0.8,0.6,0.4,0.6,0.4,0.2,0.8,,,0.1454,,0.2,0.8,0.6,0.4,0.2,0.8,0.4,0.6,1,0
,,66559244530907c5dd7b77be,66fc976b2b1a9d10569acf87,2024-10-02_08h59.23.830,mdp,2024.2.1,Win32,59.17159763,66fa4ebf79326e780c390304,,,,,,,,,,,,,,,,,,,,,1147.755,1147.7551,1147.7564,1148.7569,1,0,right,0.4946,,1148.7585,1149.7257,1,0,right,1149.7274,1150.2602,0,1,left,0,1150.2602,1150.2603,1150.2619,1151.7635,0,21,21,21,1,0.8,0.2,0.8,0.2,,,,,,,,,,,,,,,0.4605,,0.2,0.8,0.6,0.4,0.6,0.4,0.2,0.8,,,0.0094,,0.2,0.8,0.6,0.4,0.2,0.8,0.4,0.6,1,0
,,66559244530907c5dd7b77be,66fc976b2b1a9d10569acf87,2024-10-02_08h59.23.830,mdp,2024.2.1,Win32,59.17159763,66fa4ebf79326e780c390304,,,,,,,,,,,,,,,,,,,,,1151.7645,1151.7646,1151.7658,1152.4316,1,0,right,0.1342,,1152.4327,1153.0164,0,1,left,1153.018,1153.6844,0,1,left,0,1153.6845,1153.6846,1153.6861,1155.1878,0,22,22,22,1,0.8,0.2,0.8,0.2,,,,,,,,,,,,,,,0.0671,,0.2,0.8,0.6,0.4,0.6,0.4,0.2,0.8,,,0.1436,,0.2,0.8,0.6,0.4,0.2,0.8,0.4,0.6,1,0
,,66559244530907c5dd7b77be,66fc976b2b1a9d10569acf87,2024-10-02_08h59.23.830,mdp,2024.2.1,Win32,59.17159763,66fa4ebf79326e780c390304,,,,,,,,,,,,,,,,,,,,,1155.1882,1155.1883,1155.1896,1155.7388,0,0,left,0.0455,,1155.74,1156.3735,0,1,left,1156.375,1156.9917,0,0,left,1,1156.992,1156.992,1156.9936,1158.4952,0,23,23,23,1,0.8,0.2,0.8,0.2,,,,,,,,,,,,,,,0.1183,,0.2,0.8,0.6,0.4,0.6,0.4,0.2,0.8,,,0.1009,,0.2,0.8,0.6,0.4,0.4,0.6,0.2,0.8,1,0
,,66559244530907c5dd7b77be,66fc976b2b1a9d10569acf87,2024-10-02_08h59.23.830,mdp,2024.2.1,Win32,59.17159763,66fa4ebf79326e780c390304,,,,,,,,,,,,,,,,,,,,,1158.4959,1158.4959,1158.4971,1159.0129,1,0,right,0.0024,,1159.0146,1159.6811,0,1,left,1159.6827,1160.3327,1,0,right,1,1160.3328,1160.3328,1160.3343,1161.8356,0,24,24,24,1,0.8,0.2,0.8,0.2,,,,,,,,,,,,,,,0.1559,,0.2,0.8,0.6,0.4,0.6,0.4,0.2,0.8,,,0.1364,,0.2,0.8,0.6,0.4,0.4,0.6,0.2,0.8,1,0
,,66559244530907c5dd7b77be,66fc976b2b1a9d10569acf87,2024-10-02_08h59.23.830,mdp,2024.2.1,Win32,59.17159763,66fa4ebf79326e780c390304,,,,,,,,,,,,,,,,,,,,,1161.8361,1161.8361,1161.8372,1162.3704,0,1,left,0.0212,,1162.3724,1163.0554,0,1,left,1163.0573,1163.7401,0,1,left,0,1163.7403,1163.7403,1163.7422,1165.2434,0,25,25,25,1,0.8,0.2,0.8,0.2,,,,,,,,,,,,,,,0.165,,0.2,0.8,0.6,0.4,0.6,0.4,0.2,0.8,,,0.1699,,0.2,0.8,0.6,0.4,0.4,0.6,0.2,0.8,1,0
,,66559244530907c5dd7b77be,66fc976b2b1a9d10569acf87,2024-10-02_08h59.23.830,mdp,2024.2.1,Win32,59.17159763,66fa4ebf79326e780c390304,,,,,,,,,,,,,,,,,,,,,1165.2444,1165.2444,1165.2458,1165.8949,0,0,left,0.1409,,1165.897,1166.5963,1,0,right,1166.5979,1167.1479,0,1,left,0,1167.1479,1167.1479,1167.1495,1168.6511,0,26,26,26,1,0.8,0.2,0.8,0.2,,,,,,,,,,,,,,,0.1753,,0.2,0.8,0.6,0.4,0.6,0.4,0.2,0.8,,,0.0345,,0.2,0.8,0.6,0.4,0.4,0.6,0.2,0.8,1,0
,,66559244530907c5dd7b77be,66fc976b2b1a9d10569acf87,2024-10-02_08h59.23.830,mdp,2024.2.1,Win32,59.17159763,66fa4ebf79326e780c390304,,,,,,,,,,,,,,,,,,,,,1168.6519,1168.652,1168.6532,1169.286,0,0,left,0.1259,,1169.2875,1170.1044,1,1,right,1170.1063,1170.8558,0,1,left,0,1170.856,1170.856,1170.8575,1172.3595,0,27,27,27,1,0.8,0.2,0.8,0.2,,,,,,,,,,,,,,,0.3074,,0.2,0.8,0.6,0.4,0.6,0.4,0.2,0.8,,,0.2249,,0.2,0.8,0.6,0.4,0.8,0.2,0.8,0.2,1,0
,,66559244530907c5dd7b77be,66fc976b2b1a9d10569acf87,2024-10-02_08h59.23.830,mdp,2024.2.1,Win32,59.17159763,66fa4ebf79326e780c390304,,,,,,,,,,,,,,,,,,,,,1172.3602,1172.3602,1172.3615,1173.2779,1,0,right,0.3934,,1173.2791,1173.8627,1,0,right,1173.8644,1174.4303,0,1,left,0,1174.4305,1174.4305,1174.4318,1175.934,0,28,28,28,1,0.8,0.2,0.8,0.2,,,,,,,,,,,,,,,0.075,,0.2,0.8,0.6,0.4,0.4,0.6,0.6,0.4,,,0.0399,,0.2,0.8,0.6,0.4,0.8,0.2,0.8,0.2,1,0
,,66559244530907c5dd7b77be,66fc976b2b1a9d10569acf87,2024-10-02_08h59.23.830,mdp,2024.2.1,Win32,59.17159763,66fa4ebf79326e780c390304,,,,,,,,,,,,,,,,,,,,,1175.9346,1175.9347,1175.936,1176.552,1,0,right,0.1071,,1176.554,1177.1368,0,1,left,1177.1387,1177.6546,1,0,right,1,1177.6548,1177.6548,1177.6563,1179.1578,0,29,29,29,1,0.8,0.2,0.8,0.2,,,,,,,,,,,,,,,0.073,,0.2,0.8,0.6,0.4,0.4,0.6,0.6,0.4,,,0.0006,,0.2,0.8,0.6,0.4,0.8,0.2,0.8,0.2,1,0
,,66559244530907c5dd7b77be,66fc976b2b1a9d10569acf87,2024-10-02_08h59.23.830,mdp,2024.2.1,Win32,59.17159763,66fa4ebf79326e780c390304,,,,,,,,,,,,,,,,,,,,,1179.1585,1179.1585,1179.1598,1179.8929,0,0,left,0.2274,,1179.8948,1180.494,0,1,left,1180.4961,1181.0622,1,1,right,0,1181.0623,1181.0623,1181.0638,1182.5652,0,30,30,30,1,0.8,0.2,0.8,0.2,,,,,,,,,,,,,,,0.084,,0.2,0.8,0.6,0.4,0.4,0.6,0.6,0.4,,,0.0508,,0.2,0.8,0.6,0.4,0.8,0.2,0.8,0.2,1,0
,,66559244530907c5dd7b77be,66fc976b2b1a9d10569acf87,2024-10-02_08h59.23.830,mdp,2024.2.1,Win32,59.17159763,66fa4ebf79326e780c390304,,,,,,,,,,,,,,,,,,,,,1182.5661,1182.5661,1182.5674,1183.2003,0,0,left,0.1175,,1183.2019,1183.8349,0,1,left,1183.8366,1184.453,1,0,right,1,1184.4531,1184.4531,1184.4547,1185.9562,0,31,31,31,1,0.8,0.2,0.8,0.2,,,,,,,,,,,,,,,0.1207,,0.6,0.4,0.2,0.8,0.4,0.6,0.6,0.4,,,0.1021,,0.2,0.8,0.6,0.4,0.8,0.2,0.8,0.2,1,0
,,66559244530907c5dd7b77be,66fc976b2b1a9d10569acf87,2024-10-02_08h59.23.830,mdp,2024.2.1,Win32,59.17159763,66fa4ebf79326e780c390304,,,,,,,,,,,,,,,,,,,,,1185.957,1185.957,1185.9586,1186.5576,0,0,left,0.0933,,1186.559,1187.0918,1,1,right,1187.0934,1187.71,1,0,right,1,1187.7102,1187.7102,1187.7115,1189.2138,0,32,32,32,1,0.8,0.2,0.8,0.2,,,,,,,,,,,,,,,0.0195,,0.6,0.4,0.2,0.8,0.4,0.6,0.6,0.4,,,0.1008,,0.2,0.8,0.6,0.4,0.8,0.2,0.8,0.2,1,0
,,66559244530907c5dd7b77be,66fc976b2b1a9d10569acf87,2024-10-02_08h59.23.830,mdp,2024.2.1,Win32,59.17159763,66fa4ebf79326e780c390304,,,,,,,,,,,,,,,,,,,,,1189.2145,1189.2145,1189.2158,1189.7821,0,0,left,0.0596,,1189.7838,1190.5503,0,1,left,1190.5519,1191.2849,0,0,left,1,1191.285,1191.285,1191.2868,1192.7883,0,33,33,33,1,0.8,0.2,0.8,0.2,,,,,,,,,,,,,,,0.2514,,0.6,0.4,0.2,0.8,0.4,0.6,0.6,0.4,,,0.2193,,0.2,0.8,0.6,0.4,0.8,0.2,0.8,0.2,1,0
,,66559244530907c5dd7b77be,66fc976b2b1a9d10569acf87,2024-10-02_08h59.23.830,mdp,2024.2.1,Win32,59.17159763,66fa4ebf79326e780c390304,,,,,,,,,,,,,,,,,,,,,1192.7893,1192.7893,1192.7907,1193.8405,1,0,right,0.5246,,1193.8422,1194.659,1,1,right,1194.6611,1195.628,0,0,left,1,1195.6281,1195.6281,1195.63,1197.1311,0,34,34,34,1,0.8,0.2,0.8,0.2,,,,,,,,,,,,,,,0.3046,,0.6,0.4,0.2,0.8,0.4,0.6,0.6,0.4,,,0.4618,,0.2,0.8,0.6,0.4,0.8,0.2,0.8,0.2,1,0
,,66559244530907c5dd7b77be,66fc976b2b1a9d10569acf87,2024-10-02_08h59.23.830,mdp,2024.2.1,Win32,59.17159763,66fa4ebf79326e780c390304,,,,,,,,,,,,,,,,,,,,,1197.1318,1197.1318,1197.133,1197.7158,1,0,right,0.078,,1197.7171,1198.3504,0,0,left,1198.3519,1198.9687,1,0,right,1,1198.9688,1198.9688,1198.9703,1200.4718,0,35,35,35,1,0.8,0.2,0.8,0.2,,,,,,,,,,,,,,,0.1252,,0.6,0.4,0.2,0.8,0.4,0.6,0.6,0.4,,,0.0984,,0.2,0.8,0.6,0.4,0.8,0.2,0.8,0.2,1,0
,,66559244530907c5dd7b77be,66fc976b2b1a9d10569acf87,2024-10-02_08h59.23.830,mdp,2024.2.1,Win32,59.17159763,66fa4ebf79326e780c390304,,,,,,,,,,,,,,,,,,,,,1200.4724,1200.4724,1200.4739,1201.0733,0,1,left,0.0891,,1201.0752,1201.6246,1,0,right,1201.6264,1202.1924,1,1,right,0,1202.1927,1202.1927,1202.1943,1203.6956,0,36,36,36,1,0.8,0.2,0.8,0.2,,,,,,,,,,,,,,,0.0294,,0.6,0.4,0.2,0.8,0.4,0.6,0.6,0.4,,,0.0511,,0.2,0.8,0.6,0.4,0.8,0.2,0.8,0.2,1,0
,,66559244530907c5dd7b77be,66fc976b2b1a9d10569acf87,2024-10-02_08h59.23.830,mdp,2024.2.1,Win32,59.17159763,66fa4ebf79326e780c390304,,,,,,,,,,,,,,,,,,,,,1203.6963,1203.6963,1203.6975,1204.2471,0,0,left,0.0338,,1204.2484,1204.765,0,1,left,1204.7667,1206.2345,1,1,right,0,1206.2345,1206.2345,1206.236,1207.7381,0,37,37,37,1,0.8,0.2,0.8,0.2,,,,,,,,,,,,,,,0.0004,,0.6,0.4,0.2,0.8,0.4,0.6,0.6,0.4,,,0.9487,,0.2,0.8,0.6,0.4,0.8,0.2,0.8,0.2,1,0
,,66559244530907c5dd7b77be,66fc976b2b1a9d10569acf87,2024-10-02_08h59.23.830,mdp,2024.2.1,Win32,59.17159763,66fa4ebf79326e780c390304,,,,,,,,,,,,,,,,,,,,,1207.7389,1207.7389,1207.7406,1208.4064,1,0,right,0.1511,,1208.408,1209.091,1,1,right,1209.0926,1209.6092,1,0,right,1,1209.6093,1209.6093,1209.6108,1211.1123,0,38,38,38,1,0.8,0.2,0.8,0.2,,,,,,,,,,,,,,,0.1703,,0.6,0.4,0.2,0.8,0.4,0.6,0.6,0.4,,,0.0005,,0.2,0.8,0.6,0.4,0.8,0.2,0.8,0.2,1,0
,,66559244530907c5dd7b77be,66fc976b2b1a9d10569acf87,2024-10-02_08h59.23.830,mdp,2024.2.1,Win32,59.17159763,66fa4ebf79326e780c390304,,,,,,,,,,,,,,,,,,,,,1211.113,1211.113,1211.1146,1211.6468,0,1,left,0.0171,,1211.6489,1212.2146,0,0,left,1212.2158,1213.1336,1,0,right,1,1213.1337,1213.1337,1213.1353,1214.6368,0,39,39,39,1,0.8,0.2,0.8,0.2,,,,,,,,,,,,,,,0.0408,,0.6,0.4,0.2,0.8,0.4,0.6,0.6,0.4,,,0.3926,,0.2,0.8,0.6,0.4,0.8,0.2,0.8,0.2,1,0
,,66559244530907c5dd7b77be,66fc976b2b1a9d10569acf87,2024-10-02_08h59.23.830,mdp,2024.2.1,Win32,59.17159763,66fa4ebf79326e780c390304,,,,,,,,,,,,,,,,,,,,,1214.6376,1214.6377,1214.6392,1215.4552,1,0,right,0.3008,,1215.4566,1216.0401,0,0,left,1216.0417,1216.6585,0,1,left,0,1216.6586,1216.6586,1216.66,1218.161,0,40,40,40,1,0.8,0.2,0.8,0.2,,,,,,,,,,,,,,,0.0636,,0.6,0.4,0.2,0.8,0.4,0.6,0.6,0.4,,,0.1136,,0.2,0.8,0.6,0.4,0.8,0.2,0.8,0.2,1,0
,,66559244530907c5dd7b77be,66fc976b2b1a9d10569acf87,2024-10-02_08h59.23.830,mdp,2024.2.1,Win32,59.17159763,66fa4ebf79326e780c390304,,,,,,,,,,,,,,,,,,,,,1218.1617,1218.1617,1218.1629,1218.7459,0,0,left,0.08,,1218.7472,1219.4307,0,0,left,1219.4326,1219.9987,0,0,left,1,1219.9989,1219.9989,1220,1221.5019,0,41,41,41,1,0.8,0.2,0.8,0.2,,,,,,,,,,,,,,,0.1752,,0.6,0.4,0.2,0.8,0.4,0.6,0.6,0.4,,,0.0509,,0.2,0.8,0.6,0.4,0.8,0.2,0.8,0.2,1,0
,,66559244530907c5dd7b77be,66fc976b2b1a9d10569acf87,2024-10-02_08h59.23.830,mdp,2024.2.1,Win32,59.17159763,66fa4ebf79326e780c390304,,,,,,,,,,,,,,,,,,,,,1221.5025,1221.5025,1221.5035,1222.0368,0,1,left,0.0188,,1222.0388,1222.9227,0,1,left,1222.9241,1223.8574,1,0,right,1,1223.8576,1223.8576,1223.8595,1225.3608,0,42,42,42,1,0.8,0.2,0.8,0.2,,,,,,,,,,,,,,,0.37,,0.6,0.4,0.2,0.8,0.4,0.6,0.6,0.4,,,0.4156,,0.2,0.8,0.6,0.4,0.8,0.2,0.8,0.2,1,0
,,66559244530907c5dd7b77be,66fc976b2b1a9d10569acf87,2024-10-02_08h59.23.830,mdp,2024.2.1,Win32,59.17159763,66fa4ebf79326e780c390304,,,,,,,,,,,,,,,,,,,,,1225.3619,1225.3619,1225.3632,1225.9287,0,0,left,0.0393,,1225.9308,1226.5803,1,0,right,1226.5819,1227.148,1,1,right,0,1227.1482,1227.1482,1227.15,1228.6513,0,43,43,43,1,0.8,0.2,0.8,0.2,,,,,,,,,,,,,,,0.1367,,0.2,0.8,0.4,0.6,0.4,0.6,0.6,0.4,,,0.0433,,0.2,0.8,0.6,0.4,0.8,0.2,0.8,0.2,1,0
,,66559244530907c5dd7b77be,66fc976b2b1a9d10569acf87,2024-10-02_08h59.23.830,mdp,2024.2.1,Win32,59.17159763,66fa4ebf79326e780c390304,,,,,,,,,,,,,,,,,,,,,1228.6517,1228.6518,1228.6532,1229.2192,0,0,left,0.0616,,1229.2207,1229.8547,1,0,right,1229.8562,1230.3887,1,0,right,1,1230.3889,1230.3889,1230.3907,1231.892,0,44,44,44,1,0.4,0.6,0.6,0.4,,,,,,,,,,,,,,,0.1257,,0.2,0.8,0.4,0.6,0.4,0.6,0.6,0.4,,,0.0269,,0.2,0.8,0.6,0.4,0.8,0.2,0.8,0.2,1,0
,,66559244530907c5dd7b77be,66fc976b2b1a9d10569acf87,2024-10-02_08h59.23.830,mdp,2024.2.1,Win32,59.17159763,66fa4ebf79326e780c390304,,,,,,,,,,,,,,,,,,,,,1231.8926,1231.8926,1231.8943,1232.4599,0,0,left,0.0531,,1232.4617,1233.0781,1,1,right,1233.0802,1233.646,0,0,left,1,1233.6462,1233.6462,1233.6479,1235.1494,0,45,45,45,1,0.8,0.2,0.8,0.2,,,,,,,,,,,,,,,0.101,,0.2,0.8,0.4,0.6,0.4,0.6,0.6,0.4,,,0.0409,,0.2,0.8,0.6,0.4,0.8,0.2,0.8,0.2,1,0
,,66559244530907c5dd7b77be,66fc976b2b1a9d10569acf87,2024-10-02_08h59.23.830,mdp,2024.2.1,Win32,59.17159763,66fa4ebf79326e780c390304,,,,,,,,,,,,,,,,,,,,,1235.1504,1235.1504,1235.1517,1235.8347,0,0,left,0.1804,,1235.8362,1236.4354,1,1,right,1236.4374,1237.0702,1,1,right,0,1237.0703,1237.0703,1237.072,1238.5735,0,46,46,46,1,0.8,0.2,0.8,0.2,,,,,,,,,,,,,,,0.0869,,0.2,0.8,0.4,0.6,0.4,0.6,0.6,0.4,,,0.1254,,0.2,0.8,0.6,0.4,0.8,0.2,0.8,0.2,1,0
,,66559244530907c5dd7b77be,66fc976b2b1a9d10569acf87,2024-10-02_08h59.23.830,mdp,2024.2.1,Win32,59.17159763,66fa4ebf79326e780c390304,,,,,,,,,,,,,,,,,,,,,1238.5742,1238.5742,1238.5756,1239.108,0,0,left,0.0278,,1239.1101,1239.6427,0,0,left,1239.6444,1240.1772,0,1,left,0,1240.1773,1240.1773,1240.1792,1241.6808,0,47,47,47,1,0.8,0.2,0.8,0.2,,,,,,,,,,,,,,,0.021,,0.2,0.8,0.4,0.6,0.6,0.4,0.4,0.6,,,0.0128,,0.2,0.8,0.6,0.4,0.8,0.2,0.8,0.2,1,0
,,66559244530907c5dd7b77be,66fc976b2b1a9d10569acf87,2024-10-02_08h59.23.830,mdp,2024.2.1,Win32,59.17159763,66fa4ebf79326e780c390304,,,,,,,,,,,,,,,,,,,,,1241.6815,1241.6815,1241.6827,1242.2985,1,0,right,0.0881,,1242.3002,1242.8998,0,0,left,1242.9015,1243.5846,1,1,right,0,1243.5847,1243.5847,1243.5865,1245.0881,0,48,48,48,1,0.8,0.2,0.8,0.2,,,,,,,,,,,,,,,0.0944,,0.2,0.8,0.4,0.6,0.6,0.4,0.4,0.6,,,0.1677,,0.2,0.8,0.6,0.4,0.8,0.2,0.8,0.2,1,0
,,66559244530907c5dd7b77be,66fc976b2b1a9d10569acf87,2024-10-02_08h59.23.830,mdp,2024.2.1,Win32,59.17159763,66fa4ebf79326e780c390304,,,,,,,,,,,,,,,,,,,,,1245.0888,1245.0888,1245.0904,1245.6394,1,0,right,0.0338,,1245.6412,1246.2577,0,1,left,1246.2593,1246.8085,1,0,right,1,1246.8086,1246.8087,1246.8106,1248.3117,0,49,49,49,1,0.8,0.2,0.8,0.2,,,,,,,,,,,,,,,0.1008,,0.2,0.8,0.4,0.6,0.6,0.4,0.4,0.6,,,0.0286,,0.6,0.4,0.2,0.8,0.8,0.2,0.8,0.2,1,0
,,66559244530907c5dd7b77be,66fc976b2b1a9d10569acf87,2024-10-02_08h59.23.830,mdp,2024.2.1,Win32,59.17159763,66fa4ebf79326e780c390304,,,,,,,,,,,,,,,,,,,,,,,,,,,,,,,,,,,,,,,,,,,,,,,,,,,,,,,,1248.3118,1306.8091,0,3,3,1,1,imgs/dog.png,imgs/pig.png,imgs/cat.png,imgs/squirrel.png,imgs/goat.png,,,,,,,,,,,,,,,,,,,,,,,,
,,66559244530907c5dd7b77be,66fc976b2b1a9d10569acf87,2024-10-02_08h59.23.830,mdp,2024.2.1,Win32,59.17159763,66fa4ebf79326e780c390304,,,,,,,,,,,,,,1,seqs/st1seq47.csv,1306.8109,1309.3312,space,1.9917,,1309.3356,1309.3357,1309.3367,1311.2688,0,0,left,1.3936,,1311.2706,1311.2712,0,1,,1311.272,1311.2725,1,1,,1,1311.2726,1311.2726,1311.2731,1312.7723,0,0,0,0,1,0.8,0.2,0.4,0.6,1,0,,,,,,,,,,,,,,,,,,,,,,,,,,,,,,,,,,,,
,,66559244530907c5dd7b77be,66fc976b2b1a9d10569acf87,2024-10-02_08h59.23.830,mdp,2024.2.1,Win32,59.17159763,66fa4ebf79326e780c390304,,,,,,,,,,,,,,,,,,,,,1312.7729,1312.7729,1312.7745,1313.5568,0,0,left,0.26,,1313.5586,1313.5592,0,0,,1313.5598,1313.5602,1,0,,1,1313.5603,1313.5603,1313.5606,1315.0605,0,1,1,1,1,0.8,0.2,0.4,0.6,1,0,,,,,,,,,,,,,,,,,,,,,,,,,,,,,,,,,,,,
,,66559244530907c5dd7b77be,66fc976b2b1a9d10569acf87,2024-10-02_08h59.23.830,mdp,2024.2.1,Win32,59.17159763,66fa4ebf79326e780c390304,,,,,,,,,,,,,,,,,,,,,1315.0612,1315.0612,1315.0623,1315.7121,0,1,left,0.1402,,1315.7142,1315.7149,0,0,,1315.7157,1315.7162,1,0,,0,1315.7163,1315.7163,1315.7168,1317.2152,0,2,2,2,1,0.8,0.2,0.4,0.6,1,0,,,,,,,,,,,,,,,,,,,,,,,,,,,,,,,,,,,,
,,66559244530907c5dd7b77be,66fc976b2b1a9d10569acf87,2024-10-02_08h59.23.830,mdp,2024.2.1,Win32,59.17159763,66fa4ebf79326e780c390304,,,,,,,,,,,,,,,,,,,,,1317.2157,1317.2157,1317.217,1319.437,0,0,left,1.7057,,1319.4392,1319.4398,0,0,,1319.4405,1319.441,1,0,,1,1319.4411,1319.4411,1319.4416,1320.9405,0,3,3,3,1,0.8,0.2,0.4,0.6,1,0,,,,,,,,,,,,,,,,,,,,,,,,,,,,,,,,,,,,
,,66559244530907c5dd7b77be,66fc976b2b1a9d10569acf87,2024-10-02_08h59.23.830,mdp,2024.2.1,Win32,59.17159763,66fa4ebf79326e780c390304,,,,,,,,,,,,,,,,,,,,,1320.9408,1320.9409,1320.9421,1321.7755,1,1,right,0.3181,,1321.7774,1321.7781,0,1,,1321.7789,1321.7794,1,0,,0,1321.7794,1321.7794,1321.78,1323.279,0,4,4,4,1,0.8,0.2,0.4,0.6,1,0,,,,,,,,,,,,,,,,,,,,,,,,,,,,,,,,,,,,
,,66559244530907c5dd7b77be,66fc976b2b1a9d10569acf87,2024-10-02_08h59.23.830,mdp,2024.2.1,Win32,59.17159763,66fa4ebf79326e780c390304,,,,,,,,,,,,,,,,,,,,,1323.2797,1323.2797,1323.2812,1324.5816,0,0,left,0.7944,,1324.5834,1324.584,0,0,,1324.5845,1324.5848,1,0,,1,1324.5848,1324.5848,1324.5853,1326.0851,0,5,5,5,1,0.8,0.2,0.4,0.6,1,0,,,,,,,,,,,,,,,,,,,,,,,,,,,,,,,,,,,,
,,66559244530907c5dd7b77be,66fc976b2b1a9d10569acf87,2024-10-02_08h59.23.830,mdp,2024.2.1,Win32,59.17159763,66fa4ebf79326e780c390304,,,,,,,,,,,,,,,,,,,,,1326.0858,1326.0859,1326.0875,1326.6699,0,1,left,0.0755,,1326.6716,1326.6722,0,0,,1326.673,1326.6734,1,0,,0,1326.6735,1326.6735,1326.6741,1328.1729,0,6,6,6,1,0.8,0.2,0.4,0.6,1,0,,,,,,,,,,,,,,,,,,,,,,,,,,,,,,,,,,,,
,,66559244530907c5dd7b77be,66fc976b2b1a9d10569acf87,2024-10-02_08h59.23.830,mdp,2024.2.1,Win32,59.17159763,66fa4ebf79326e780c390304,,,,,,,,,,,,,,,,,,,,,1328.1732,1328.1732,1328.1746,1328.8581,0,0,left,0.1804,,1328.86,1328.8606,0,0,,1328.8612,1328.8618,1,0,,1,1328.8619,1328.8619,1328.8625,1330.3613,0,7,7,7,1,0.8,0.2,0.4,0.6,1,0,,,,,,,,,,,,,,,,,,,,,,,,,,,,,,,,,,,,
,,66559244530907c5dd7b77be,66fc976b2b1a9d10569acf87,2024-10-02_08h59.23.830,mdp,2024.2.1,Win32,59.17159763,66fa4ebf79326e780c390304,,,,,,,,,,,,,,,,,,,,,1330.3619,1330.3619,1330.3631,1331.2132,0,0,left,0.3353,,1331.215,1331.2157,0,0,,1331.2164,1331.217,1,0,,1,1331.217,1331.217,1331.2176,1332.7166,0,8,8,8,1,0.6,0.4,0.8,0.2,1,0,,,,,,,,,,,,,,,,,,,,,,,,,,,,,,,,,,,,
,,66559244530907c5dd7b77be,66fc976b2b1a9d10569acf87,2024-10-02_08h59.23.830,mdp,2024.2.1,Win32,59.17159763,66fa4ebf79326e780c390304,,,,,,,,,,,,,,,,,,,,,1332.7174,1332.7174,1332.7187,1333.2846,1,0,right,0.0607,,1333.2866,1333.2872,0,1,,1333.288,1333.2886,1,0,,1,1333.2886,1333.2886,1333.2891,1334.7879,0,9,9,9,1,0.6,0.4,0.8,0.2,1,0,,,,,,,,,,,,,,,,,,,,,,,,,,,,,,,,,,,,
,,66559244530907c5dd7b77be,66fc976b2b1a9d10569acf87,2024-10-02_08h59.23.830,mdp,2024.2.1,Win32,59.17159763,66fa4ebf79326e780c390304,,,,,,,,,,,,,,,,,,,,,1334.7886,1334.7887,1334.7903,1335.3727,1,1,right,0.069,,1335.3745,1335.375,0,0,,1335.3755,1335.3758,1,0,,0,1335.3758,1335.3758,1335.3762,1336.8758,0,10,10,10,1,0.8,0.2,0.4,0.6,1,0,,,,,,,,,,,,,,,,,,,,,,,,,,,,,,,,,,,,
,,66559244530907c5dd7b77be,66fc976b2b1a9d10569acf87,2024-10-02_08h59.23.830,mdp,2024.2.1,Win32,59.17159763,66fa4ebf79326e780c390304,,,,,,,,,,,,,,,,,,,,,1336.8764,1336.8764,1336.878,1337.4605,0,0,left,0.0691,,1337.4626,1337.4632,0,0,,1337.464,1337.4645,1,1,,1,1337.4646,1337.4646,1337.4651,1338.9639,0,11,11,11,1,0.8,0.2,0.4,0.6,1,0,,,,,,,,,,,,,,,,,,,,,,,,,,,,,,,,,,,,
,,66559244530907c5dd7b77be,66fc976b2b1a9d10569acf87,2024-10-02_08h59.23.830,mdp,2024.2.1,Win32,59.17159763,66fa4ebf79326e780c390304,,,,,,,,,,,,,,,,,,,,,1338.9644,1338.9644,1338.9656,1339.6824,0,0,left,0.2001,,1339.684,1339.6847,0,0,,1339.6857,1339.6863,1,0,,1,1339.6864,1339.6864,1339.687,1341.1858,0,12,12,12,1,0.8,0.2,0.4,0.6,1,0,,,,,,,,,,,,,,,,,,,,,,,,,,,,,,,,,,,,
,,66559244530907c5dd7b77be,66fc976b2b1a9d10569acf87,2024-10-02_08h59.23.830,mdp,2024.2.1,Win32,59.17159763,66fa4ebf79326e780c390304,,,,,,,,,,,,,,,,,,,,,1341.1864,1341.1864,1341.1876,1341.8538,0,0,left,0.1428,,1341.8554,1341.8561,0,0,,1341.857,1341.8576,1,0,,1,1341.8577,1341.8577,1341.8583,1343.3571,0,13,13,13,1,0.8,0.2,0.4,0.6,1,0,,,,,,,,,,,,,,,,,,,,,,,,,,,,,,,,,,,,
,,66559244530907c5dd7b77be,66fc976b2b1a9d10569acf87,2024-10-02_08h59.23.830,mdp,2024.2.1,Win32,59.17159763,66fa4ebf79326e780c390304,,,,,,,,,,,,,,,,,,,,,1343.3577,1343.3577,1343.3588,1343.8917,1,1,right,0.0277,,1343.8932,1343.8939,0,1,,1343.8947,1343.8953,1,0,,0,1343.8953,1343.8953,1343.896,1345.3948,0,14,14,14,1,0.8,0.2,0.4,0.6,1,0,,,,,,,,,,,,,,,,,,,,,,,,,,,,,,,,,,,,
,,66559244530907c5dd7b77be,66fc976b2b1a9d10569acf87,2024-10-02_08h59.23.830,mdp,2024.2.1,Win32,59.17159763,66fa4ebf79326e780c390304,,,,,,,,,,,,,,,,,,,,,1345.3952,1345.3953,1345.3967,1346.0628,0,0,left,0.1585,,1346.0645,1346.0651,0,0,,1346.0657,1346.0662,1,0,,1,1346.0662,1346.0662,1346.0669,1347.5663,0,15,15,15,1,0.8,0.2,0.4,0.6,1,0,,,,,,,,,,,,,,,,,,,,,,,,,,,,,,,,,,,,
,,66559244530907c5dd7b77be,66fc976b2b1a9d10569acf87,2024-10-02_08h59.23.830,mdp,2024.2.1,Win32,59.17159763,66fa4ebf79326e780c390304,,,,,,,,,,,,,,,,,,,,,1347.5669,1347.5669,1347.5688,1348.2514,1,0,right,0.1789,,1348.2529,1348.2536,0,1,,1348.2544,1348.2548,1,1,,1,1348.2548,1348.2549,1348.2555,1349.7546,0,16,16,16,1,0.8,0.2,0.4,0.6,1,0,,,,,,,,,,,,,,,,,,,,,,,,,,,,,,,,,,,,
,,66559244530907c5dd7b77be,66fc976b2b1a9d10569acf87,2024-10-02_08h59.23.830,mdp,2024.2.1,Win32,59.17159763,66fa4ebf79326e780c390304,,,,,,,,,,,,,,,,,,,,,1349.7554,1349.7554,1349.7568,1350.3228,0,0,left,0.0547,,1350.3243,1350.325,0,0,,1350.3258,1350.3263,1,0,,1,1350.3263,1350.3263,1350.3269,1351.8258,0,17,17,17,1,0.8,0.2,0.4,0.6,1,0,,,,,,,,,,,,,,,,,,,,,,,,,,,,,,,,,,,,
,,66559244530907c5dd7b77be,66fc976b2b1a9d10569acf87,2024-10-02_08h59.23.830,mdp,2024.2.1,Win32,59.17159763,66fa4ebf79326e780c390304,,,,,,,,,,,,,,,,,,,,,1351.8264,1351.8265,1351.8281,1352.379,1,0,right,0.0483,,1352.3802,1352.3807,0,1,,1352.3815,1352.382,1,1,,1,1352.382,1352.382,1352.3826,1353.8805,0,18,18,18,1,0.8,0.2,0.4,0.6,1,0,,,,,,,,,,,,,,,,,,,,,,,,,,,,,,,,,,,,
,,66559244530907c5dd7b77be,66fc976b2b1a9d10569acf87,2024-10-02_08h59.23.830,mdp,2024.2.1,Win32,59.17159763,66fa4ebf79326e780c390304,,,,,,,,,,,,,,,,,,,,,1353.8814,1353.8815,1353.8827,1354.5988,0,0,left,0.2007,,1354.6005,1354.6011,0,0,,1354.6019,1354.6024,1,1,,1,1354.6025,1354.6025,1354.603,1356.1022,0,19,19,19,1,0.6,0.4,0.6,0.4,1,0,,,,,,,,,,,,,,,,,,,,,,,,,,,,,,,,,,,,
,,66559244530907c5dd7b77be,66fc976b2b1a9d10569acf87,2024-10-02_08h59.23.830,mdp,2024.2.1,Win32,59.17159763,66fa4ebf79326e780c390304,,,,,,,,,,,,,,,,,,,,,1356.1028,1356.1028,1356.1045,1356.6201,0,0,left,0.003,,1356.6218,1356.6224,0,0,,1356.6231,1356.6237,1,0,,1,1356.6237,1356.6237,1356.6243,1358.1235,0,20,20,20,1,0.6,0.4,0.6,0.4,1,0,,,,,,,,,,,,,,,,,,,,,,,,,,,,,,,,,,,,
,,66559244530907c5dd7b77be,66fc976b2b1a9d10569acf87,2024-10-02_08h59.23.830,mdp,2024.2.1,Win32,59.17159763,66fa4ebf79326e780c390304,,,,,,,,,,,,,,,,,,,,,1358.1241,1358.1242,1358.1255,1358.7247,0,0,left,0.0854,,1358.7264,1358.7271,0,0,,1358.7278,1358.7283,1,0,,1,1358.7284,1358.7284,1358.729,1360.2281,0,21,21,21,1,0.6,0.4,0.6,0.4,1,0,,,,,,,,,,,,,,,,,,,,,,,,,,,,,,,,,,,,
,,66559244530907c5dd7b77be,66fc976b2b1a9d10569acf87,2024-10-02_08h59.23.830,mdp,2024.2.1,Win32,59.17159763,66fa4ebf79326e780c390304,,,,,,,,,,,,,,,,,,,,,1360.2287,1360.2287,1360.2301,1360.8625,1,0,right,0.1249,,1360.8639,1360.8645,0,0,,1360.8651,1360.8654,1,0,,1,1360.8654,1360.8654,1360.8658,1362.366,0,22,22,22,1,0.8,0.2,0.8,0.2,1,0,,,,,,,,,,,,,,,,,,,,,,,,,,,,,,,,,,,,
,,66559244530907c5dd7b77be,66fc976b2b1a9d10569acf87,2024-10-02_08h59.23.830,mdp,2024.2.1,Win32,59.17159763,66fa4ebf79326e780c390304,,,,,,,,,,,,,,,,,,,,,1362.3665,1362.3665,1362.368,1362.9007,0,0,left,0.0269,,1362.9024,1362.903,0,0,,1362.9037,1362.9042,1,0,,1,1362.9043,1362.9043,1362.905,1364.4041,0,23,23,23,1,0.8,0.2,0.8,0.2,1,0,,,,,,,,,,,,,,,,,,,,,,,,,,,,,,,,,,,,
,,66559244530907c5dd7b77be,66fc976b2b1a9d10569acf87,2024-10-02_08h59.23.830,mdp,2024.2.1,Win32,59.17159763,66fa4ebf79326e780c390304,,,,,,,,,,,,,,,,,,,,,1364.4046,1364.4047,1364.4061,1365.122,0,1,left,0.213,,1365.1239,1365.1247,0,0,,1365.1256,1365.126,1,0,,0,1365.1261,1365.1261,1365.1267,1366.6253,0,24,24,24,1,0.8,0.2,0.8,0.2,1,0,,,,,,,,,,,,,,,,,,,,,,,,,,,,,,,,,,,,
,,66559244530907c5dd7b77be,66fc976b2b1a9d10569acf87,2024-10-02_08h59.23.830,mdp,2024.2.1,Win32,59.17159763,66fa4ebf79326e780c390304,,,,,,,,,,,,,,,,,,,,,1366.626,1366.6261,1366.6277,1367.1433,0,1,left,0.0005,,1367.1451,1367.1457,0,0,,1367.1464,1367.147,1,0,,0,1367.147,1367.147,1367.1476,1368.6467,0,25,25,25,1,0.8,0.2,0.8,0.2,1,0,,,,,,,,,,,,,,,,,,,,,,,,,,,,,,,,,,,,
,,66559244530907c5dd7b77be,66fc976b2b1a9d10569acf87,2024-10-02_08h59.23.830,mdp,2024.2.1,Win32,59.17159763,66fa4ebf79326e780c390304,,,,,,,,,,,,,,,,,,,,,1368.6473,1368.6474,1368.6491,1369.3146,0,0,left,0.1624,,1369.3166,1369.3172,0,0,,1369.318,1369.3185,1,1,,1,1369.3186,1369.3186,1369.3192,1370.8183,0,26,26,26,1,0.8,0.2,0.8,0.2,1,0,,,,,,,,,,,,,,,,,,,,,,,,,,,,,,,,,,,,
,,66559244530907c5dd7b77be,66fc976b2b1a9d10569acf87,2024-10-02_08h59.23.830,mdp,2024.2.1,Win32,59.17159763,66fa4ebf79326e780c390304,,,,,,,,,,,,,,,,,,,,,1370.8189,1370.8189,1370.8203,1371.3358,0,0,left,0.0069,,1371.3378,1371.3385,0,0,,1371.3393,1371.3398,1,1,,1,1371.3398,1371.3398,1371.3404,1372.8394,0,27,27,27,1,0.6,0.4,0.2,0.8,1,0,,,,,,,,,,,,,,,,,,,,,,,,,,,,,,,,,,,,
,,66559244530907c5dd7b77be,66fc976b2b1a9d10569acf87,2024-10-02_08h59.23.830,mdp,2024.2.1,Win32,59.17159763,66fa4ebf79326e780c390304,,,,,,,,,,,,,,,,,,,,,1372.84,1372.84,1372.8415,1373.3571,0,0,left,0.0099,,1373.3589,1373.3595,0,0,,1373.3603,1373.3608,1,0,,1,1373.3608,1373.3608,1373.3614,1374.8604,0,28,28,28,1,0.6,0.4,0.2,0.8,1,0,,,,,,,,,,,,,,,,,,,,,,,,,,,,,,,,,,,,
,,66559244530907c5dd7b77be,66fc976b2b1a9d10569acf87,2024-10-02_08h59.23.830,mdp,2024.2.1,Win32,59.17159763,66fa4ebf79326e780c390304,,,,,,,,,,,,,,,,,,,,,1374.8608,1374.8608,1374.8622,1375.5469,1,0,right,0.1814,,1375.548,1375.5486,0,0,,1375.5493,1375.5498,1,0,,1,1375.5499,1375.5499,1375.5505,1377.0485,0,29,29,29,1,0.6,0.4,0.2,0.8,1,0,,,,,,,,,,,,,,,,,,,,,,,,,,,,,,,,,,,,
,,66559244530907c5dd7b77be,66fc976b2b1a9d10569acf87,2024-10-02_08h59.23.830,mdp,2024.2.1,Win32,59.17159763,66fa4ebf79326e780c390304,,,,,,,,,,,,,,,,,,,,,1377.049,1377.049,1377.0504,1377.583,1,1,right,0.0174,,1377.5846,1377.5852,0,0,,1377.5858,1377.5862,1,0,,0,1377.5862,1377.5862,1377.5866,1379.0865,0,30,30,30,1,0.2,0.8,0.6,0.4,1,0,,,,,,,,,,,,,,,,,,,,,,,,,,,,,,,,,,,,
,,66559244530907c5dd7b77be,66fc976b2b1a9d10569acf87,2024-10-02_08h59.23.830,mdp,2024.2.1,Win32,59.17159763,66fa4ebf79326e780c390304,,,,,,,,,,,,,,,,,,,,,1379.0873,1379.0873,1379.089,1379.6212,1,0,right,0.0187,,1379.6231,1379.6239,0,0,,1379.6248,1379.6255,1,1,,1,1379.6256,1379.6256,1379.6262,1381.1245,0,31,31,31,1,0.4,0.6,0.8,0.2,1,0,,,,,,,,,,,,,,,,,,,,,,,,,,,,,,,,,,,,
,,66559244530907c5dd7b77be,66fc976b2b1a9d10569acf87,2024-10-02_08h59.23.830,mdp,2024.2.1,Win32,59.17159763,66fa4ebf79326e780c390304,,,,,,,,,,,,,,,,,,,,,1381.1249,1381.1249,1381.126,1381.8104,0,0,left,0.1813,,1381.8114,1381.8118,0,1,,1381.8123,1381.8126,1,0,,1,1381.8126,1381.8126,1381.813,1383.3127,0,32,32,32,1,0.6,0.4,0.4,0.6,1,0,,,,,,,,,,,,,,,,,,,,,,,,,,,,,,,,,,,,
,,66559244530907c5dd7b77be,66fc976b2b1a9d10569acf87,2024-10-02_08h59.23.830,mdp,2024.2.1,Win32,59.17159763,66fa4ebf79326e780c390304,,,,,,,,,,,,,,,,,,,,,1383.3133,1383.3133,1383.3148,1383.8474,1,1,right,0.0242,,1383.849,1383.8497,0,1,,1383.8505,1383.851,1,1,,0,1383.851,1383.851,1383.8516,1385.3506,0,33,33,33,1,0.6,0.4,0.4,0.6,1,0,,,,,,,,,,,,,,,,,,,,,,,,,,,,,,,,,,,,
,,66559244530907c5dd7b77be,66fc976b2b1a9d10569acf87,2024-10-02_08h59.23.830,mdp,2024.2.1,Win32,59.17159763,66fa4ebf79326e780c390304,,,,,,,,,,,,,,,,,,,,,1385.3513,1385.3513,1385.353,1385.9184,0,1,left,0.0587,,1385.9199,1385.9206,0,0,,1385.9212,1385.9217,1,1,,0,1385.9217,1385.9217,1385.9221,1387.4217,0,34,34,34,1,0.6,0.4,0.4,0.6,1,0,,,,,,,,,,,,,,,,,,,,,,,,,,,,,,,,,,,,
,,66559244530907c5dd7b77be,66fc976b2b1a9d10569acf87,2024-10-02_08h59.23.830,mdp,2024.2.1,Win32,59.17159763,66fa4ebf79326e780c390304,,,,,,,,,,,,,,,,,,,,,1387.4223,1387.4223,1387.4235,1388.2739,0,0,left,0.3389,,1388.2756,1388.2765,0,0,,1388.2774,1388.278,1,1,,1,1388.278,1388.278,1388.2786,1389.7771,0,35,35,35,1,0.6,0.4,0.4,0.6,1,0,,,,,,,,,,,,,,,,,,,,,,,,,,,,,,,,,,,,
,,66559244530907c5dd7b77be,66fc976b2b1a9d10569acf87,2024-10-02_08h59.23.830,mdp,2024.2.1,Win32,59.17159763,66fa4ebf79326e780c390304,,,,,,,,,,,,,,,,,,,,,1389.7778,1389.778,1389.7793,1390.6122,0,0,left,0.3278,,1390.614,1390.6146,0,0,,1390.6151,1390.6155,1,0,,1,1390.6155,1390.6155,1390.6159,1392.1155,0,36,36,36,1,0.6,0.4,0.4,0.6,1,0,,,,,,,,,,,,,,,,,,,,,,,,,,,,,,,,,,,,
,,66559244530907c5dd7b77be,66fc976b2b1a9d10569acf87,2024-10-02_08h59.23.830,mdp,2024.2.1,Win32,59.17159763,66fa4ebf79326e780c390304,,,,,,,,,,,,,,,,,,,,,1392.1162,1392.1162,1392.1175,1392.9843,0,1,left,0.3515,,1392.9859,1392.9866,0,0,,1392.9873,1392.9879,1,1,,0,1392.9879,1392.988,1392.9886,1394.4876,0,37,37,37,1,0.6,0.4,0.4,0.6,1,0,,,,,,,,,,,,,,,,,,,,,,,,,,,,,,,,,,,,
,,66559244530907c5dd7b77be,66fc976b2b1a9d10569acf87,2024-10-02_08h59.23.830,mdp,2024.2.1,Win32,59.17159763,66fa4ebf79326e780c390304,,,,,,,,,,,,,,,,,,,,,1394.4883,1394.4883,1394.4896,1395.2058,1,0,right,0.2092,,1395.2078,1395.2085,0,0,,1395.2093,1395.2098,1,1,,1,1395.2098,1395.2099,1395.2105,1396.7092,0,38,38,38,1,0.6,0.4,0.4,0.6,1,0,,,,,,,,,,,,,,,,,,,,,,,,,,,,,,,,,,,,
,,66559244530907c5dd7b77be,66fc976b2b1a9d10569acf87,2024-10-02_08h59.23.830,mdp,2024.2.1,Win32,59.17159763,66fa4ebf79326e780c390304,,,,,,,,,,,,,,,,,,,,,1396.7099,1396.7099,1396.7116,1397.2438,1,1,right,0.0201,,1397.2455,1397.2462,0,0,,1397.247,1397.2475,1,1,,0,1397.2476,1397.2476,1397.2482,1398.7472,0,39,39,39,1,0.6,0.4,0.4,0.6,1,0,,,,,,,,,,,,,,,,,,,,,,,,,,,,,,,,,,,,
,,66559244530907c5dd7b77be,66fc976b2b1a9d10569acf87,2024-10-02_08h59.23.830,mdp,2024.2.1,Win32,59.17159763,66fa4ebf79326e780c390304,,,,,,,,,,,,,,,,,,,,,1398.7478,1398.7479,1398.7495,1399.3986,1,0,right,0.1418,,1399.4006,1399.4013,0,1,,1399.4021,1399.4026,1,0,,1,1399.4026,1399.4026,1399.4033,1400.902,0,40,40,40,1,0.6,0.4,0.4,0.6,1,0,,,,,,,,,,,,,,,,,,,,,,,,,,,,,,,,,,,,
