init_exp.started,init_exp.stopped,participant,session,date,expName,psychopyVersion,OS,frameRate,study_id,disp_instruction.started,disp_instruction.stopped,instruction.thisRepN,instruction.thisTrialN,instruction.thisN,instruction.thisIndex,instruction.ran,instimg_path,consent.started,consent.stopped,key_resp_3.keys,key_resp_3.rt,key_resp_3.duration,n_steps,sequence_path,init_block.started,init_block.stopped,key_resp.keys,key_resp.rt,key_resp.duration,init_trials.started,init_trials.stopped,step0.started,step0.stopped,act0,s1,res0.keys,res0.rt,res0.duration,step1.started,step1.stopped,act1,s2,res1.keys,step2.started,step2.stopped,act2,s3,res2.keys,rew,reward_comp.started,reward_comp.stopped,reward_disp.started,reward_disp.stopped,trials.thisRepN,trials.thisTrialN,trials.thisN,trials.thisIndex,trials.ran,s00a0s10,s00a0s11,s00a1s10,s00a1s11,rew10,rew11,break_block.started,break_block.stopped,block.thisRepN,block.thisTrialN,block.thisN,block.thisIndex,block.ran,s00path,s10path,s11path,s20path,s21path,res1.rt,res1.duration,s10a0s20,s10a0s21,s10a1s20,s10a1s21,s11a0s20,s11a0s21,s11a1s20,s11a1s21,rew20,rew21,res2.rt,res2.duration,s20a0s30,s20a0s31,s20a1s30,s20a1s31,s21a0s30,s21a0s31,s21a1s30,s21a1s31,rew30,rew31
0.0006,0.006,6659e2d753ad8a42fde08e10,66fce6e823cb6f3a8e498543,2024-10-02_08h33.54.491,mdp,2024.2.1,Win32,59.88023952,66fa4ebf79326e780c390304,,,,,,,,,,,,,,,,,,,,,,,,,,,,,,,,,,,,,,,,,,,,,,,,,,,,,,,,,,,,,,,,,,,,,,,,,,,,,,,,,,,,,,,,,,,
,,6659e2d753ad8a42fde08e10,66fce6e823cb6f3a8e498543,2024-10-02_08h33.54.491,mdp,2024.2.1,Win32,59.88023952,66fa4ebf79326e780c390304,0.0254,110.9012,0,0,0,0,1,rlnn_exp/rlnn_exp.001.png,,,,,,,,,,,,,,,,,,,,,,,,,,,,,,,,,,,,,,,,,,,,,,,,,,,,,,,,,,,,,,,,,,,,,,,,,,,,,,,,,,,
,,6659e2d753ad8a42fde08e10,66fce6e823cb6f3a8e498543,2024-10-02_08h33.54.491,mdp,2024.2.1,Win32,59.88023952,66fa4ebf79326e780c390304,110.9033,153.6804,0,1,1,1,1,rlnn_exp/rlnn_exp.002.png,,,,,,,,,,,,,,,,,,,,,,,,,,,,,,,,,,,,,,,,,,,,,,,,,,,,,,,,,,,,,,,,,,,,,,,,,,,,,,,,,,,
,,6659e2d753ad8a42fde08e10,66fce6e823cb6f3a8e498543,2024-10-02_08h33.54.491,mdp,2024.2.1,Win32,59.88023952,66fa4ebf79326e780c390304,153.6827,227.2169,0,2,2,2,1,rlnn_exp/rlnn_exp.003.png,,,,,,,,,,,,,,,,,,,,,,,,,,,,,,,,,,,,,,,,,,,,,,,,,,,,,,,,,,,,,,,,,,,,,,,,,,,,,,,,,,,
,,6659e2d753ad8a42fde08e10,66fce6e823cb6f3a8e498543,2024-10-02_08h33.54.491,mdp,2024.2.1,Win32,59.88023952,66fa4ebf79326e780c390304,227.2194,269.3509,0,3,3,3,1,rlnn_exp/rlnn_exp.004.png,,,,,,,,,,,,,,,,,,,,,,,,,,,,,,,,,,,,,,,,,,,,,,,,,,,,,,,,,,,,,,,,,,,,,,,,,,,,,,,,,,,
,,6659e2d753ad8a42fde08e10,66fce6e823cb6f3a8e498543,2024-10-02_08h33.54.491,mdp,2024.2.1,Win32,59.88023952,66fa4ebf79326e780c390304,,,,,,,,,269.3519,326.7702,y,47.3674,,,,,,,,,,,,,,,,,,,,,,,,,,,,,,,,,,,,,,,,,,,,,,,,,,,,,,,,,,,,,,,,,,,,,,,,,,,,,,,
,,6659e2d753ad8a42fde08e10,66fce6e823cb6f3a8e498543,2024-10-02_08h33.54.491,mdp,2024.2.1,Win32,59.88023952,66fa4ebf79326e780c390304,,,,,,,,,,,,,,1,seqs/st1seq11.csv,326.7835,330.9528,space,3.6508,,330.9619,330.9622,330.9633,334.9704,1,1,right,3.4523,,334.9727,334.9778,,1,,334.9789,334.9834,,1,,0,334.9836,334.9839,334.9855,336.4863,0,0,0,0,1,0.8,0.2,0.4,0.6,1,0,,,,,,,,,,,,,,,,,,,,,,,,,,,,,,,,,,,,
,,6659e2d753ad8a42fde08e10,66fce6e823cb6f3a8e498543,2024-10-02_08h33.54.491,mdp,2024.2.1,Win32,59.88023952,66fa4ebf79326e780c390304,,,,,,,,,,,,,,,,,,,,,336.4879,336.4882,336.4913,340.3037,0,0,left,3.2866,,340.3068,340.3087,,1,,340.3108,340.3134,,0,,1,340.3136,340.3136,340.3174,341.8027,0,1,1,1,1,0.6,0.4,0.8,0.2,1,0,,,,,,,,,,,,,,,,,,,,,,,,,,,,,,,,,,,,
,,6659e2d753ad8a42fde08e10,66fce6e823cb6f3a8e498543,2024-10-02_08h33.54.491,mdp,2024.2.1,Win32,59.88023952,66fa4ebf79326e780c390304,,,,,,,,,,,,,,,,,,,,,341.8043,341.8043,341.8078,344.9876,0,0,left,2.6504,,344.9906,344.9929,,1,,344.9951,344.9971,,1,,1,344.9972,344.9973,344.9992,346.4865,0,2,2,2,1,0.2,0.8,0.6,0.4,1,0,,,,,,,,,,,,,,,,,,,,,,,,,,,,,,,,,,,,
,,6659e2d753ad8a42fde08e10,66fce6e823cb6f3a8e498543,2024-10-02_08h33.54.491,mdp,2024.2.1,Win32,59.88023952,66fa4ebf79326e780c390304,,,,,,,,,,,,,,,,,,,,,346.4879,346.4881,346.4915,347.9875,0,1,left,0.9688,,347.9905,347.9923,,1,,347.9948,347.9966,,0,,0,347.9967,347.9967,347.9984,349.4869,0,3,3,3,1,0.2,0.8,0.6,0.4,1,0,,,,,,,,,,,,,,,,,,,,,,,,,,,,,,,,,,,,
,,6659e2d753ad8a42fde08e10,66fce6e823cb6f3a8e498543,2024-10-02_08h33.54.491,mdp,2024.2.1,Win32,59.88023952,66fa4ebf79326e780c390304,,,,,,,,,,,,,,,,,,,,,349.4881,349.4885,349.4909,350.6902,0,1,left,0.6781,,350.6952,350.697,,1,,350.6991,350.705,,1,,0,350.7052,350.7052,350.707,352.2028,0,4,4,4,1,0.2,0.8,0.6,0.4,1,0,,,,,,,,,,,,,,,,,,,,,,,,,,,,,,,,,,,,
,,6659e2d753ad8a42fde08e10,66fce6e823cb6f3a8e498543,2024-10-02_08h33.54.491,mdp,2024.2.1,Win32,59.88023952,66fa4ebf79326e780c390304,,,,,,,,,,,,,,,,,,,,,352.2049,352.2049,352.2081,353.3575,1,1,right,0.617,,353.3603,353.3621,,0,,353.3644,353.3672,,1,,0,353.3674,353.3674,353.3704,354.8702,0,5,5,5,1,0.2,0.8,0.6,0.4,1,0,,,,,,,,,,,,,,,,,,,,,,,,,,,,,,,,,,,,
,,6659e2d753ad8a42fde08e10,66fce6e823cb6f3a8e498543,2024-10-02_08h33.54.491,mdp,2024.2.1,Win32,59.88023952,66fa4ebf79326e780c390304,,,,,,,,,,,,,,,,,,,,,354.8714,354.8717,354.8751,355.9727,0,1,left,0.5765,,355.975,355.977,,1,,355.9791,355.981,,1,,0,355.9811,355.9811,355.9855,357.4704,0,6,6,6,1,0.2,0.8,0.6,0.4,1,0,,,,,,,,,,,,,,,,,,,,,,,,,,,,,,,,,,,,
,,6659e2d753ad8a42fde08e10,66fce6e823cb6f3a8e498543,2024-10-02_08h33.54.491,mdp,2024.2.1,Win32,59.88023952,66fa4ebf79326e780c390304,,,,,,,,,,,,,,,,,,,,,357.4718,357.472,357.4752,358.5537,0,1,left,0.5522,,358.5572,358.5589,,1,,358.5612,358.5629,,0,,0,358.563,358.563,358.5648,360.0538,0,7,7,7,1,0.2,0.8,0.6,0.4,1,0,,,,,,,,,,,,,,,,,,,,,,,,,,,,,,,,,,,,
,,6659e2d753ad8a42fde08e10,66fce6e823cb6f3a8e498543,2024-10-02_08h33.54.491,mdp,2024.2.1,Win32,59.88023952,66fa4ebf79326e780c390304,,,,,,,,,,,,,,,,,,,,,360.0551,360.0553,360.058,361.0043,0,1,left,0.4184,,361.0073,361.0091,,1,,361.0111,361.0129,,0,,0,361.013,361.0131,361.0154,362.5045,0,8,8,8,1,0.2,0.8,0.6,0.4,1,0,,,,,,,,,,,,,,,,,,,,,,,,,,,,,,,,,,,,
,,6659e2d753ad8a42fde08e10,66fce6e823cb6f3a8e498543,2024-10-02_08h33.54.491,mdp,2024.2.1,Win32,59.88023952,66fa4ebf79326e780c390304,,,,,,,,,,,,,,,,,,,,,362.5057,362.5058,362.5082,363.5044,1,1,right,0.4663,,363.5075,363.5094,,1,,363.5125,363.5143,,1,,0,363.5144,363.5145,363.5199,365.0037,0,9,9,9,1,0.6,0.4,0.2,0.8,1,0,,,,,,,,,,,,,,,,,,,,,,,,,,,,,,,,,,,,
,,6659e2d753ad8a42fde08e10,66fce6e823cb6f3a8e498543,2024-10-02_08h33.54.491,mdp,2024.2.1,Win32,59.88023952,66fa4ebf79326e780c390304,,,,,,,,,,,,,,,,,,,,,365.0059,365.0059,365.0088,365.8538,1,1,right,0.3198,,365.8589,365.8607,,1,,365.8627,365.8644,,1,,0,365.8645,365.8645,365.8665,367.357,0,10,10,10,1,0.6,0.4,0.2,0.8,1,0,,,,,,,,,,,,,,,,,,,,,,,,,,,,,,,,,,,,
,,6659e2d753ad8a42fde08e10,66fce6e823cb6f3a8e498543,2024-10-02_08h33.54.491,mdp,2024.2.1,Win32,59.88023952,66fa4ebf79326e780c390304,,,,,,,,,,,,,,,,,,,,,367.3585,367.3585,367.3617,368.6221,1,0,right,0.7355,,368.6256,368.6282,,0,,368.6303,368.6326,,1,,1,368.6328,368.6328,368.6362,370.1374,0,11,11,11,1,0.8,0.2,0.8,0.2,1,0,,,,,,,,,,,,,,,,,,,,,,,,,,,,,,,,,,,,
,,6659e2d753ad8a42fde08e10,66fce6e823cb6f3a8e498543,2024-10-02_08h33.54.491,mdp,2024.2.1,Win32,59.88023952,66fa4ebf79326e780c390304,,,,,,,,,,,,,,,,,,,,,370.1386,370.1387,370.143,371.2379,1,0,right,0.5752,,371.2425,371.2447,,0,,371.2477,371.2494,,0,,1,371.2495,371.2495,371.2536,372.7374,0,12,12,12,1,0.8,0.2,0.8,0.2,1,0,,,,,,,,,,,,,,,,,,,,,,,,,,,,,,,,,,,,
,,6659e2d753ad8a42fde08e10,66fce6e823cb6f3a8e498543,2024-10-02_08h33.54.491,mdp,2024.2.1,Win32,59.88023952,66fa4ebf79326e780c390304,,,,,,,,,,,,,,,,,,,,,372.7387,372.7388,372.7415,373.5545,1,1,right,0.2921,,373.559,373.5608,,0,,373.5628,373.5647,,0,,0,373.5648,373.5648,373.5667,375.0543,0,13,13,13,1,0.2,0.8,0.6,0.4,1,0,,,,,,,,,,,,,,,,,,,,,,,,,,,,,,,,,,,,
,,6659e2d753ad8a42fde08e10,66fce6e823cb6f3a8e498543,2024-10-02_08h33.54.491,mdp,2024.2.1,Win32,59.88023952,66fa4ebf79326e780c390304,,,,,,,,,,,,,,,,,,,,,375.0556,375.0557,375.0585,376.022,0,1,left,0.4363,,376.0253,376.0271,,1,,376.0291,376.0308,,1,,0,376.0308,376.0308,376.0327,377.5227,0,14,14,14,1,0.2,0.8,0.6,0.4,1,0,,,,,,,,,,,,,,,,,,,,,,,,,,,,,,,,,,,,
,,6659e2d753ad8a42fde08e10,66fce6e823cb6f3a8e498543,2024-10-02_08h33.54.491,mdp,2024.2.1,Win32,59.88023952,66fa4ebf79326e780c390304,,,,,,,,,,,,,,,,,,,,,377.5233,377.5233,377.5262,378.2879,1,0,right,0.2359,,378.291,378.2927,,0,,378.2947,378.2964,,0,,1,378.2964,378.2965,378.2983,379.7877,0,15,15,15,1,0.2,0.8,0.6,0.4,1,0,,,,,,,,,,,,,,,,,,,,,,,,,,,,,,,,,,,,
,,6659e2d753ad8a42fde08e10,66fce6e823cb6f3a8e498543,2024-10-02_08h33.54.491,mdp,2024.2.1,Win32,59.88023952,66fa4ebf79326e780c390304,,,,,,,,,,,,,,,,,,,,,379.789,379.789,379.7933,381.1223,0,0,left,0.8093,,381.1263,381.1282,,1,,381.1303,381.1323,,1,,1,381.1324,381.1324,381.1355,382.622,0,16,16,16,1,0.2,0.8,0.6,0.4,1,0,,,,,,,,,,,,,,,,,,,,,,,,,,,,,,,,,,,,
,,6659e2d753ad8a42fde08e10,66fce6e823cb6f3a8e498543,2024-10-02_08h33.54.491,mdp,2024.2.1,Win32,59.88023952,66fa4ebf79326e780c390304,,,,,,,,,,,,,,,,,,,,,382.623,382.623,382.6258,383.5397,1,0,right,0.3856,,383.5427,383.5443,,0,,383.5462,383.548,,1,,1,383.5481,383.5481,383.55,385.0374,0,17,17,17,1,0.2,0.8,0.6,0.4,1,0,,,,,,,,,,,,,,,,,,,,,,,,,,,,,,,,,,,,
,,6659e2d753ad8a42fde08e10,66fce6e823cb6f3a8e498543,2024-10-02_08h33.54.491,mdp,2024.2.1,Win32,59.88023952,66fa4ebf79326e780c390304,,,,,,,,,,,,,,,,,,,,,385.0381,385.0382,385.0421,385.9051,0,1,left,0.3378,,385.9085,385.9102,,0,,385.9121,385.9138,,1,,0,385.9139,385.9139,385.9169,387.409,0,18,18,18,1,0.2,0.8,0.6,0.4,1,0,,,,,,,,,,,,,,,,,,,,,,,,,,,,,,,,,,,,
,,6659e2d753ad8a42fde08e10,66fce6e823cb6f3a8e498543,2024-10-02_08h33.54.491,mdp,2024.2.1,Win32,59.88023952,66fa4ebf79326e780c390304,,,,,,,,,,,,,,,,,,,,,387.4097,387.4097,387.4121,388.108,0,1,left,0.1773,,388.1103,388.1119,,1,,388.1143,388.116,,1,,0,388.1161,388.1161,388.1212,389.6047,0,19,19,19,1,0.2,0.8,0.6,0.4,1,0,,,,,,,,,,,,,,,,,,,,,,,,,,,,,,,,,,,,
,,6659e2d753ad8a42fde08e10,66fce6e823cb6f3a8e498543,2024-10-02_08h33.54.491,mdp,2024.2.1,Win32,59.88023952,66fa4ebf79326e780c390304,,,,,,,,,,,,,,,,,,,,,389.6061,389.6063,389.6088,390.4093,1,0,right,0.2681,,390.4122,390.414,,0,,390.4158,390.4183,,0,,1,390.4185,390.4185,390.4215,391.9217,0,20,20,20,1,0.4,0.6,0.8,0.2,1,0,,,,,,,,,,,,,,,,,,,,,,,,,,,,,,,,,,,,
,,6659e2d753ad8a42fde08e10,66fce6e823cb6f3a8e498543,2024-10-02_08h33.54.491,mdp,2024.2.1,Win32,59.88023952,66fa4ebf79326e780c390304,,,,,,,,,,,,,,,,,,,,,391.9232,391.9232,391.9258,392.7388,1,0,right,0.2831,,392.7419,392.7435,,0,,392.7457,392.7474,,1,,1,392.7475,392.7476,392.7493,394.2383,0,21,21,21,1,0.6,0.4,0.6,0.4,1,0,,,,,,,,,,,,,,,,,,,,,,,,,,,,,,,,,,,,
,,6659e2d753ad8a42fde08e10,66fce6e823cb6f3a8e498543,2024-10-02_08h33.54.491,mdp,2024.2.1,Win32,59.88023952,66fa4ebf79326e780c390304,,,,,,,,,,,,,,,,,,,,,394.2397,394.2397,394.2426,394.9551,1,1,right,0.1856,,394.9584,394.9601,,1,,394.9621,394.9638,,1,,0,394.9638,394.9638,394.9657,396.4553,0,22,22,22,1,0.6,0.4,0.6,0.4,1,0,,,,,,,,,,,,,,,,,,,,,,,,,,,,,,,,,,,,
,,6659e2d753ad8a42fde08e10,66fce6e823cb6f3a8e498543,2024-10-02_08h33.54.491,mdp,2024.2.1,Win32,59.88023952,66fa4ebf79326e780c390304,,,,,,,,,,,,,,,,,,,,,396.4569,396.4569,396.4591,397.139,0,0,left,0.152,,397.1419,397.1436,,1,,397.1456,397.1473,,0,,1,397.1474,397.1474,397.1493,398.6385,0,23,23,23,1,0.6,0.4,0.6,0.4,1,0,,,,,,,,,,,,,,,,,,,,,,,,,,,,,,,,,,,,
,,6659e2d753ad8a42fde08e10,66fce6e823cb6f3a8e498543,2024-10-02_08h33.54.491,mdp,2024.2.1,Win32,59.88023952,66fa4ebf79326e780c390304,,,,,,,,,,,,,,,,,,,,,398.6396,398.6397,398.6427,399.4219,1,1,right,0.251,,399.4255,399.4272,,0,,399.4293,399.4314,,0,,0,399.4314,399.4315,399.4342,400.9221,0,24,24,24,1,0.6,0.4,0.6,0.4,1,0,,,,,,,,,,,,,,,,,,,,,,,,,,,,,,,,,,,,
,,6659e2d753ad8a42fde08e10,66fce6e823cb6f3a8e498543,2024-10-02_08h33.54.491,mdp,2024.2.1,Win32,59.88023952,66fa4ebf79326e780c390304,,,,,,,,,,,,,,,,,,,,,400.9234,400.9235,400.9259,401.6723,0,1,left,0.2171,,401.6755,401.6772,,1,,401.6791,401.6812,,1,,0,401.6813,401.6813,401.6836,403.1719,0,25,25,25,1,0.6,0.4,0.6,0.4,1,0,,,,,,,,,,,,,,,,,,,,,,,,,,,,,,,,,,,,
,,6659e2d753ad8a42fde08e10,66fce6e823cb6f3a8e498543,2024-10-02_08h33.54.491,mdp,2024.2.1,Win32,59.88023952,66fa4ebf79326e780c390304,,,,,,,,,,,,,,,,,,,,,403.1733,403.1734,403.1757,404.0396,1,0,right,0.3356,,404.0423,404.0439,,1,,404.0457,404.048,,1,,1,404.0482,404.0482,404.05,405.5384,0,26,26,26,1,0.6,0.4,0.6,0.4,1,0,,,,,,,,,,,,,,,,,,,,,,,,,,,,,,,,,,,,
,,6659e2d753ad8a42fde08e10,66fce6e823cb6f3a8e498543,2024-10-02_08h33.54.491,mdp,2024.2.1,Win32,59.88023952,66fa4ebf79326e780c390304,,,,,,,,,,,,,,,,,,,,,405.5409,405.5409,405.5449,406.3391,1,0,right,0.2697,,406.3423,406.3442,,1,,406.3461,406.3478,,0,,1,406.3479,406.348,406.3497,407.8404,0,27,27,27,1,0.6,0.4,0.6,0.4,1,0,,,,,,,,,,,,,,,,,,,,,,,,,,,,,,,,,,,,
,,6659e2d753ad8a42fde08e10,66fce6e823cb6f3a8e498543,2024-10-02_08h33.54.491,mdp,2024.2.1,Win32,59.88023952,66fa4ebf79326e780c390304,,,,,,,,,,,,,,,,,,,,,407.8415,407.8415,407.8438,408.6896,1,1,right,0.317,,408.6925,408.6943,,0,,408.6966,408.6982,,0,,0,408.6984,408.6984,408.7002,410.1888,0,28,28,28,1,0.6,0.4,0.6,0.4,1,0,,,,,,,,,,,,,,,,,,,,,,,,,,,,,,,,,,,,
,,6659e2d753ad8a42fde08e10,66fce6e823cb6f3a8e498543,2024-10-02_08h33.54.491,mdp,2024.2.1,Win32,59.88023952,66fa4ebf79326e780c390304,,,,,,,,,,,,,,,,,,,,,410.1902,410.1904,410.1933,410.8391,0,0,left,0.1199,,410.8423,410.8439,,1,,410.8465,410.8484,,1,,1,410.8484,410.8485,410.8506,412.3395,0,29,29,29,1,0.6,0.4,0.6,0.4,1,0,,,,,,,,,,,,,,,,,,,,,,,,,,,,,,,,,,,,
,,6659e2d753ad8a42fde08e10,66fce6e823cb6f3a8e498543,2024-10-02_08h33.54.491,mdp,2024.2.1,Win32,59.88023952,66fa4ebf79326e780c390304,,,,,,,,,,,,,,,,,,,,,412.3405,412.3406,412.3431,413.3232,1,0,right,0.4516,,413.3261,413.3279,,0,,413.3306,413.3323,,0,,1,413.3324,413.3324,413.3342,414.8222,0,30,30,30,1,0.6,0.4,0.6,0.4,1,0,,,,,,,,,,,,,,,,,,,,,,,,,,,,,,,,,,,,
,,6659e2d753ad8a42fde08e10,66fce6e823cb6f3a8e498543,2024-10-02_08h33.54.491,mdp,2024.2.1,Win32,59.88023952,66fa4ebf79326e780c390304,,,,,,,,,,,,,,,,,,,,,414.8228,414.8228,414.8267,415.6893,1,1,right,0.3344,,415.6927,415.6945,,0,,415.6964,415.6981,,0,,0,415.6982,415.6982,415.7002,417.1902,0,31,31,31,1,0.6,0.4,0.6,0.4,1,0,,,,,,,,,,,,,,,,,,,,,,,,,,,,,,,,,,,,
,,6659e2d753ad8a42fde08e10,66fce6e823cb6f3a8e498543,2024-10-02_08h33.54.491,mdp,2024.2.1,Win32,59.88023952,66fa4ebf79326e780c390304,,,,,,,,,,,,,,,,,,,,,417.1922,417.1923,417.1949,418.0232,0,1,left,0.3022,,418.0276,418.0292,,1,,418.0313,418.033,,0,,0,418.0332,418.0332,418.0349,419.5226,0,32,32,32,1,0.6,0.4,0.6,0.4,1,0,,,,,,,,,,,,,,,,,,,,,,,,,,,,,,,,,,,,
,,6659e2d753ad8a42fde08e10,66fce6e823cb6f3a8e498543,2024-10-02_08h33.54.491,mdp,2024.2.1,Win32,59.88023952,66fa4ebf79326e780c390304,,,,,,,,,,,,,,,,,,,,,419.5239,419.524,419.5269,420.5396,1,0,right,0.4846,,420.543,420.5445,,1,,420.5465,420.5481,,0,,1,420.5482,420.5482,420.55,422.0393,0,33,33,33,1,0.6,0.4,0.6,0.4,1,0,,,,,,,,,,,,,,,,,,,,,,,,,,,,,,,,,,,,
,,6659e2d753ad8a42fde08e10,66fce6e823cb6f3a8e498543,2024-10-02_08h33.54.491,mdp,2024.2.1,Win32,59.88023952,66fa4ebf79326e780c390304,,,,,,,,,,,,,,,,,,,,,422.0407,422.0408,422.0432,422.6397,0,0,left,0.072,,422.6432,422.6448,,1,,422.6468,422.6485,,0,,1,422.6486,422.6486,422.6502,424.1394,0,34,34,34,1,0.6,0.4,0.6,0.4,1,0,,,,,,,,,,,,,,,,,,,,,,,,,,,,,,,,,,,,
,,6659e2d753ad8a42fde08e10,66fce6e823cb6f3a8e498543,2024-10-02_08h33.54.491,mdp,2024.2.1,Win32,59.88023952,66fa4ebf79326e780c390304,,,,,,,,,,,,,,,,,,,,,424.1414,424.1414,424.1438,424.873,1,0,right,0.2015,,424.8761,424.8778,,1,,424.8798,424.8815,,0,,1,424.8816,424.8816,424.8833,426.3729,0,35,35,35,1,0.6,0.4,0.6,0.4,1,0,,,,,,,,,,,,,,,,,,,,,,,,,,,,,,,,,,,,
,,6659e2d753ad8a42fde08e10,66fce6e823cb6f3a8e498543,2024-10-02_08h33.54.491,mdp,2024.2.1,Win32,59.88023952,66fa4ebf79326e780c390304,,,,,,,,,,,,,,,,,,,,,426.3757,426.3757,426.3779,426.9735,0,0,left,0.0691,,426.9764,426.9782,,1,,426.9802,426.9819,,1,,1,426.982,426.982,426.9838,428.4731,0,36,36,36,1,0.6,0.4,0.6,0.4,1,0,,,,,,,,,,,,,,,,,,,,,,,,,,,,,,,,,,,,
,,6659e2d753ad8a42fde08e10,66fce6e823cb6f3a8e498543,2024-10-02_08h33.54.491,mdp,2024.2.1,Win32,59.88023952,66fa4ebf79326e780c390304,,,,,,,,,,,,,,,,,,,,,428.4747,428.4748,428.478,429.1762,1,1,right,0.1767,,429.1787,429.1802,,1,,429.1822,429.1838,,1,,0,429.1839,429.1839,429.1856,430.673,0,37,37,37,1,0.8,0.2,0.2,0.8,1,0,,,,,,,,,,,,,,,,,,,,,,,,,,,,,,,,,,,,
,,6659e2d753ad8a42fde08e10,66fce6e823cb6f3a8e498543,2024-10-02_08h33.54.491,mdp,2024.2.1,Win32,59.88023952,66fa4ebf79326e780c390304,,,,,,,,,,,,,,,,,,,,,430.6742,430.6743,430.677,439.0903,0,1,left,7.9,,439.0941,439.0959,,0,,439.098,439.1,,1,,0,439.1,439.1,439.1019,440.5899,0,38,38,38,1,0.8,0.2,0.2,0.8,1,0,,,,,,,,,,,,,,,,,,,,,,,,,,,,,,,,,,,,
,,6659e2d753ad8a42fde08e10,66fce6e823cb6f3a8e498543,2024-10-02_08h33.54.491,mdp,2024.2.1,Win32,59.88023952,66fa4ebf79326e780c390304,,,,,,,,,,,,,,,,,,,,,440.5912,440.5912,440.5943,441.4404,1,1,right,0.325,,441.4441,441.4466,,1,,441.4491,441.4506,,0,,0,441.4507,441.4507,441.4525,442.9418,0,39,39,39,1,0.8,0.2,0.2,0.8,1,0,,,,,,,,,,,,,,,,,,,,,,,,,,,,,,,,,,,,
,,6659e2d753ad8a42fde08e10,66fce6e823cb6f3a8e498543,2024-10-02_08h33.54.491,mdp,2024.2.1,Win32,59.88023952,66fa4ebf79326e780c390304,,,,,,,,,,,,,,,,,,,,,442.9447,442.9447,442.9516,443.5245,0,0,left,0.0518,,443.5275,443.529,,1,,443.531,443.5327,,0,,1,443.5328,443.5328,443.5346,445.0245,0,40,40,40,1,0.8,0.2,0.2,0.8,1,0,,,,,,,,,,,,,,,,,,,,,,,,,,,,,,,,,,,,
,,6659e2d753ad8a42fde08e10,66fce6e823cb6f3a8e498543,2024-10-02_08h33.54.491,mdp,2024.2.1,Win32,59.88023952,66fa4ebf79326e780c390304,,,,,,,,,,,,,,,,,,,,,445.0253,445.0254,445.0277,445.8776,0,1,left,0.3283,,445.881,445.8832,,1,,445.8852,445.8902,,0,,0,445.8903,445.8904,445.8942,447.3903,0,41,41,41,1,0.2,0.8,0.6,0.4,1,0,,,,,,,,,,,,,,,,,,,,,,,,,,,,,,,,,,,,
,,6659e2d753ad8a42fde08e10,66fce6e823cb6f3a8e498543,2024-10-02_08h33.54.491,mdp,2024.2.1,Win32,59.88023952,66fa4ebf79326e780c390304,,,,,,,,,,,,,,,,,,,,,447.3917,447.3918,447.3942,447.9574,1,0,right,0.0362,,447.961,447.9627,,0,,447.9649,447.9666,,0,,1,447.9667,447.9667,447.9687,449.4573,0,42,42,42,1,0.6,0.4,0.8,0.2,1,0,,,,,,,,,,,,,,,,,,,,,,,,,,,,,,,,,,,,
,,6659e2d753ad8a42fde08e10,66fce6e823cb6f3a8e498543,2024-10-02_08h33.54.491,mdp,2024.2.1,Win32,59.88023952,66fa4ebf79326e780c390304,,,,,,,,,,,,,,,,,,,,,449.4587,449.4588,449.4609,451.0417,1,0,right,1.0531,,451.0443,451.0459,,0,,451.0477,451.0494,,1,,1,451.0494,451.0494,451.051,452.5403,0,43,43,43,1,0.6,0.4,0.8,0.2,1,0,,,,,,,,,,,,,,,,,,,,,,,,,,,,,,,,,,,,
,,6659e2d753ad8a42fde08e10,66fce6e823cb6f3a8e498543,2024-10-02_08h33.54.491,mdp,2024.2.1,Win32,59.88023952,66fa4ebf79326e780c390304,,,,,,,,,,,,,,,,,,,,,452.5419,452.5419,452.5443,453.7419,1,0,right,0.6691,,453.7459,453.7476,,0,,453.7496,453.7513,,0,,1,453.7514,453.7514,453.7533,455.2401,0,44,44,44,1,0.6,0.4,0.8,0.2,1,0,,,,,,,,,,,,,,,,,,,,,,,,,,,,,,,,,,,,
,,6659e2d753ad8a42fde08e10,66fce6e823cb6f3a8e498543,2024-10-02_08h33.54.491,mdp,2024.2.1,Win32,59.88023952,66fa4ebf79326e780c390304,,,,,,,,,,,,,,,,,,,,,455.2408,455.2408,455.2449,455.9715,0,0,left,0.2032,,455.9755,455.9791,,0,,455.9811,455.9826,,1,,1,455.9827,455.9827,455.9843,457.4732,0,45,45,45,1,0.6,0.4,0.8,0.2,1,0,,,,,,,,,,,,,,,,,,,,,,,,,,,,,,,,,,,,
,,6659e2d753ad8a42fde08e10,66fce6e823cb6f3a8e498543,2024-10-02_08h33.54.491,mdp,2024.2.1,Win32,59.88023952,66fa4ebf79326e780c390304,,,,,,,,,,,,,,,,,,,,,457.4755,457.4757,457.4784,458.1932,0,0,left,0.1821,,458.1962,458.1981,,0,,458.1999,458.2015,,0,,1,458.2016,458.2016,458.2034,459.6897,0,46,46,46,1,0.6,0.4,0.8,0.2,1,0,,,,,,,,,,,,,,,,,,,,,,,,,,,,,,,,,,,,
,,6659e2d753ad8a42fde08e10,66fce6e823cb6f3a8e498543,2024-10-02_08h33.54.491,mdp,2024.2.1,Win32,59.88023952,66fa4ebf79326e780c390304,,,,,,,,,,,,,,,,,,,,,459.6905,459.6906,459.694,460.292,1,0,right,0.076,,460.2959,460.2979,,0,,460.2997,460.3012,,1,,1,460.3013,460.3013,460.3029,461.7898,0,47,47,47,1,0.6,0.4,0.8,0.2,1,0,,,,,,,,,,,,,,,,,,,,,,,,,,,,,,,,,,,,
,,6659e2d753ad8a42fde08e10,66fce6e823cb6f3a8e498543,2024-10-02_08h33.54.491,mdp,2024.2.1,Win32,59.88023952,66fa4ebf79326e780c390304,,,,,,,,,,,,,,,,,,,,,461.792,461.7921,461.7949,464.6589,1,0,right,2.3419,,464.6628,464.6645,,0,,464.6666,464.6682,,1,,1,464.6684,464.6684,464.67,466.1565,0,48,48,48,1,0.6,0.4,0.8,0.2,1,0,,,,,,,,,,,,,,,,,,,,,,,,,,,,,,,,,,,,
,,6659e2d753ad8a42fde08e10,66fce6e823cb6f3a8e498543,2024-10-02_08h33.54.491,mdp,2024.2.1,Win32,59.88023952,66fa4ebf79326e780c390304,,,,,,,,,,,,,,,,,,,,,466.1587,466.1588,466.1616,467.4941,0,0,left,0.8093,,467.497,467.4986,,0,,467.5006,467.5021,,0,,1,467.5023,467.5023,467.5038,469.0075,0,49,49,49,1,0.8,0.2,0.6,0.4,1,0,,,,,,,,,,,,,,,,,,,,,,,,,,,,,,,,,,,,
,,6659e2d753ad8a42fde08e10,66fce6e823cb6f3a8e498543,2024-10-02_08h33.54.491,mdp,2024.2.1,Win32,59.88023952,66fa4ebf79326e780c390304,,,,,,,,,,,,,,,,,,,,,,,,,,,,,,,,,,,,,,,,,,,,,,,,,,,,,,,,469.0087,527.5099,0,0,0,4,1,imgs/elephant.png,imgs/dog.png,imgs/squirrel.png,imgs/goat.png,imgs/lion.png,,,,,,,,,,,,,,,,,,,,,,,,
,,6659e2d753ad8a42fde08e10,66fce6e823cb6f3a8e498543,2024-10-02_08h33.54.491,mdp,2024.2.1,Win32,59.88023952,66fa4ebf79326e780c390304,,,,,,,,,,,,,,2,seqs/st2seq48.csv,527.5139,531.1095,space,3.0706,,531.1266,531.1268,531.1291,534.4941,0,1,left,2.7981,,534.499,541.5118,0,0,left,541.5149,541.5165,,0,,1,541.5167,541.5167,541.5187,543.0105,0,0,0,0,1,0.2,0.8,0.6,0.4,,,,,,,,,,,,,,,6.4601,,0.6,0.4,0.4,0.6,0.6,0.4,0.2,0.8,1,0,,,,,,,,,,,,
,,6659e2d753ad8a42fde08e10,66fce6e823cb6f3a8e498543,2024-10-02_08h33.54.491,mdp,2024.2.1,Win32,59.88023952,66fa4ebf79326e780c390304,,,,,,,,,,,,,,,,,,,,,543.0123,543.0123,543.0146,544.3625,0,0,left,0.819,,544.365,546.1119,0,0,left,546.1142,546.1161,,0,,1,546.1162,546.1162,546.118,547.6117,0,1,1,1,1,0.2,0.8,0.6,0.4,,,,,,,,,,,,,,,1.1543,,0.6,0.4,0.4,0.6,0.6,0.4,0.2,0.8,1,0,,,,,,,,,,,,
,,6659e2d753ad8a42fde08e10,66fce6e823cb6f3a8e498543,2024-10-02_08h33.54.491,mdp,2024.2.1,Win32,59.88023952,66fa4ebf79326e780c390304,,,,,,,,,,,,,,,,,,,,,547.6128,547.6128,547.615,549.0128,0,1,left,0.8765,,549.0154,550.8781,0,1,left,550.881,550.8826,,0,,0,550.8827,550.8827,550.8847,552.3781,0,2,2,2,1,0.2,0.8,0.6,0.4,,,,,,,,,,,,,,,1.3175,,0.6,0.4,0.4,0.6,0.8,0.2,0.8,0.2,1,0,,,,,,,,,,,,
,,6659e2d753ad8a42fde08e10,66fce6e823cb6f3a8e498543,2024-10-02_08h33.54.491,mdp,2024.2.1,Win32,59.88023952,66fa4ebf79326e780c390304,,,,,,,,,,,,,,,,,,,,,552.3792,552.3792,552.3815,555.9115,0,1,left,3.0028,,555.9147,558.2639,1,0,right,558.2661,558.2678,,0,,1,558.2678,558.2678,558.2702,559.7617,0,3,3,3,1,0.2,0.8,0.6,0.4,,,,,,,,,,,,,,,1.8275,,0.6,0.4,0.4,0.6,0.8,0.2,0.8,0.2,1,0,,,,,,,,,,,,
,,6659e2d753ad8a42fde08e10,66fce6e823cb6f3a8e498543,2024-10-02_08h33.54.491,mdp,2024.2.1,Win32,59.88023952,66fa4ebf79326e780c390304,,,,,,,,,,,,,,,,,,,,,559.7628,559.7628,559.7652,562.1286,1,1,right,1.8347,,562.1319,564.914,1,0,right,564.9163,564.9189,,0,,1,564.919,564.919,564.922,566.4127,0,4,4,4,1,0.2,0.8,0.6,0.4,,,,,,,,,,,,,,,2.2727,,0.6,0.4,0.4,0.6,0.8,0.2,0.8,0.2,1,0,,,,,,,,,,,,
,,6659e2d753ad8a42fde08e10,66fce6e823cb6f3a8e498543,2024-10-02_08h33.54.491,mdp,2024.2.1,Win32,59.88023952,66fa4ebf79326e780c390304,,,,,,,,,,,,,,,,,,,,,566.4143,566.4144,566.4165,568.6617,0,0,left,1.7209,,568.6649,572.3314,1,0,right,572.3337,572.3357,,1,,1,572.3358,572.3358,572.3378,573.8292,0,5,5,5,1,0.8,0.2,0.2,0.8,,,,,,,,,,,,,,,3.1447,,0.6,0.4,0.4,0.6,0.8,0.2,0.8,0.2,1,0,,,,,,,,,,,,
,,6659e2d753ad8a42fde08e10,66fce6e823cb6f3a8e498543,2024-10-02_08h33.54.491,mdp,2024.2.1,Win32,59.88023952,66fa4ebf79326e780c390304,,,,,,,,,,,,,,,,,,,,,573.8301,573.8301,573.8324,575.8313,0,0,left,1.4772,,575.8337,577.9644,1,1,right,577.9667,577.969,,1,,0,577.969,577.9691,577.9713,579.4607,0,6,6,6,1,0.8,0.2,0.2,0.8,,,,,,,,,,,,,,,1.6071,,0.6,0.4,0.4,0.6,0.8,0.2,0.8,0.2,1,0,,,,,,,,,,,,
,,6659e2d753ad8a42fde08e10,66fce6e823cb6f3a8e498543,2024-10-02_08h33.54.491,mdp,2024.2.1,Win32,59.88023952,66fa4ebf79326e780c390304,,,,,,,,,,,,,,,,,,,,,579.4629,579.463,579.4657,580.5597,0,0,left,0.571,,580.5633,582.7114,0,1,left,582.7156,582.7179,,1,,0,582.718,582.718,582.7199,584.2114,0,7,7,7,1,0.8,0.2,0.2,0.8,,,,,,,,,,,,,,,1.6334,,0.6,0.4,0.4,0.6,0.8,0.2,0.8,0.2,1,0,,,,,,,,,,,,
,,6659e2d753ad8a42fde08e10,66fce6e823cb6f3a8e498543,2024-10-02_08h33.54.491,mdp,2024.2.1,Win32,59.88023952,66fa4ebf79326e780c390304,,,,,,,,,,,,,,,,,,,,,584.213,584.213,584.2165,585.53,0,0,left,0.793,,585.5342,588.0787,0,0,left,588.0821,588.0841,,1,,1,588.0843,588.0843,588.0862,589.578,0,8,8,8,1,0.8,0.2,0.2,0.8,,,,,,,,,,,,,,,2.0189,,0.6,0.4,0.4,0.6,0.8,0.2,0.8,0.2,1,0,,,,,,,,,,,,
,,6659e2d753ad8a42fde08e10,66fce6e823cb6f3a8e498543,2024-10-02_08h33.54.491,mdp,2024.2.1,Win32,59.88023952,66fa4ebf79326e780c390304,,,,,,,,,,,,,,,,,,,,,589.5801,589.5801,589.583,590.7158,1,1,right,0.6113,,590.7203,592.0457,1,0,right,592.0498,592.0515,,0,,1,592.0517,592.0517,592.0538,593.5448,0,9,9,9,1,0.8,0.2,0.2,0.8,,,,,,,,,,,,,,,0.7937,,0.6,0.4,0.4,0.6,0.8,0.2,0.8,0.2,1,0,,,,,,,,,,,,
,,6659e2d753ad8a42fde08e10,66fce6e823cb6f3a8e498543,2024-10-02_08h33.54.491,mdp,2024.2.1,Win32,59.88023952,66fa4ebf79326e780c390304,,,,,,,,,,,,,,,,,,,,,593.5473,593.5474,593.55,594.6443,1,1,right,0.568,,594.6485,595.6979,1,0,right,595.7004,595.7025,,0,,1,595.7027,595.7027,595.7047,597.1961,0,10,10,10,1,0.8,0.2,0.2,0.8,,,,,,,,,,,,,,,0.5433,,0.6,0.4,0.4,0.6,0.8,0.2,0.8,0.2,1,0,,,,,,,,,,,,
,,6659e2d753ad8a42fde08e10,66fce6e823cb6f3a8e498543,2024-10-02_08h33.54.491,mdp,2024.2.1,Win32,59.88023952,66fa4ebf79326e780c390304,,,,,,,,,,,,,,,,,,,,,597.198,597.198,597.2012,598.2289,1,1,right,0.5028,,598.2321,599.5792,1,0,right,599.5827,599.5843,,0,,1,599.5844,599.5844,599.5863,601.0785,0,11,11,11,1,0.8,0.2,0.2,0.8,,,,,,,,,,,,,,,0.8349,,0.6,0.4,0.4,0.6,0.8,0.2,0.8,0.2,1,0,,,,,,,,,,,,
,,6659e2d753ad8a42fde08e10,66fce6e823cb6f3a8e498543,2024-10-02_08h33.54.491,mdp,2024.2.1,Win32,59.88023952,66fa4ebf79326e780c390304,,,,,,,,,,,,,,,,,,,,,601.0803,601.0803,601.0831,602.4793,1,0,right,0.8696,,602.4826,604.3127,0,0,left,604.3163,604.3178,,0,,1,604.3179,604.318,604.3199,605.8118,0,12,12,12,1,0.2,0.8,0.6,0.4,,,,,,,,,,,,,,,1.2887,,0.6,0.4,0.4,0.6,0.8,0.2,0.8,0.2,1,0,,,,,,,,,,,,
,,6659e2d753ad8a42fde08e10,66fce6e823cb6f3a8e498543,2024-10-02_08h33.54.491,mdp,2024.2.1,Win32,59.88023952,66fa4ebf79326e780c390304,,,,,,,,,,,,,,,,,,,,,605.8139,605.8139,605.8168,606.9327,1,1,right,0.5934,,606.935,608.3968,1,0,right,608.4002,608.4019,,0,,1,608.402,608.4021,608.404,609.8959,0,13,13,13,1,0.2,0.8,0.6,0.4,,,,,,,,,,,,,,,0.9211,,0.6,0.4,0.4,0.6,0.8,0.2,0.8,0.2,1,0,,,,,,,,,,,,
,,6659e2d753ad8a42fde08e10,66fce6e823cb6f3a8e498543,2024-10-02_08h33.54.491,mdp,2024.2.1,Win32,59.88023952,66fa4ebf79326e780c390304,,,,,,,,,,,,,,,,,,,,,609.8972,609.8974,609.9,611.4161,1,1,right,0.9959,,611.4189,612.9998,0,0,left,613.0029,613.0044,,0,,1,613.0045,613.0045,613.0067,614.4957,0,14,14,14,1,0.2,0.8,0.6,0.4,,,,,,,,,,,,,,,1.0511,,0.6,0.4,0.4,0.6,0.8,0.2,0.8,0.2,1,0,,,,,,,,,,,,
,,6659e2d753ad8a42fde08e10,66fce6e823cb6f3a8e498543,2024-10-02_08h33.54.491,mdp,2024.2.1,Win32,59.88023952,66fa4ebf79326e780c390304,,,,,,,,,,,,,,,,,,,,,614.4976,614.4976,614.5004,615.7463,1,0,right,0.7187,,615.7498,618.9641,0,0,left,618.967,618.9686,,0,,1,618.9687,618.9687,618.9708,620.4641,0,15,15,15,1,0.2,0.8,0.6,0.4,,,,,,,,,,,,,,,2.6712,,0.6,0.4,0.4,0.6,0.8,0.2,0.8,0.2,1,0,,,,,,,,,,,,
,,6659e2d753ad8a42fde08e10,66fce6e823cb6f3a8e498543,2024-10-02_08h33.54.491,mdp,2024.2.1,Win32,59.88023952,66fa4ebf79326e780c390304,,,,,,,,,,,,,,,,,,,,,620.4652,620.4652,620.4674,621.9147,1,0,right,0.9178,,621.9175,623.4634,0,1,left,623.467,623.4686,,0,,0,623.4687,623.4687,623.4707,624.9631,0,16,16,16,1,0.2,0.8,0.6,0.4,,,,,,,,,,,,,,,1.0185,,0.6,0.4,0.4,0.6,0.8,0.2,0.8,0.2,1,0,,,,,,,,,,,,
,,6659e2d753ad8a42fde08e10,66fce6e823cb6f3a8e498543,2024-10-02_08h33.54.491,mdp,2024.2.1,Win32,59.88023952,66fa4ebf79326e780c390304,,,,,,,,,,,,,,,,,,,,,624.965,624.9651,624.9678,626.3135,1,0,right,0.8204,,626.3167,627.5325,1,1,right,627.5358,627.5374,,1,,0,627.5375,627.5375,627.5393,629.0321,0,17,17,17,1,0.2,0.8,0.6,0.4,,,,,,,,,,,,,,,0.6939,,0.6,0.4,0.4,0.6,0.8,0.2,0.8,0.2,1,0,,,,,,,,,,,,
,,6659e2d753ad8a42fde08e10,66fce6e823cb6f3a8e498543,2024-10-02_08h33.54.491,mdp,2024.2.1,Win32,59.88023952,66fa4ebf79326e780c390304,,,,,,,,,,,,,,,,,,,,,629.0328,629.0329,629.0354,630.1486,1,0,right,0.5858,,630.1512,631.7669,0,0,left,631.7694,631.7712,,0,,1,631.7712,631.7713,631.7733,633.2638,0,18,18,18,1,0.2,0.8,0.6,0.4,,,,,,,,,,,,,,,1.0946,,0.6,0.4,0.4,0.6,0.8,0.2,0.8,0.2,1,0,,,,,,,,,,,,
,,6659e2d753ad8a42fde08e10,66fce6e823cb6f3a8e498543,2024-10-02_08h33.54.491,mdp,2024.2.1,Win32,59.88023952,66fa4ebf79326e780c390304,,,,,,,,,,,,,,,,,,,,,633.2653,633.2653,633.2676,634.4012,0,0,left,0.6018,,634.4038,636.1327,1,1,right,636.1356,636.1372,,1,,0,636.1373,636.1373,636.1394,637.6305,0,19,19,19,1,0.2,0.8,0.6,0.4,,,,,,,,,,,,,,,1.202,,0.6,0.4,0.4,0.6,0.8,0.2,0.8,0.2,1,0,,,,,,,,,,,,
,,6659e2d753ad8a42fde08e10,66fce6e823cb6f3a8e498543,2024-10-02_08h33.54.491,mdp,2024.2.1,Win32,59.88023952,66fa4ebf79326e780c390304,,,,,,,,,,,,,,,,,,,,,637.6318,637.6318,637.6345,638.6174,1,1,right,0.4603,,638.6198,640.0801,0,0,left,640.0839,640.0855,,1,,1,640.0856,640.0856,640.0876,641.5799,0,20,20,20,1,0.2,0.8,0.6,0.4,,,,,,,,,,,,,,,0.9259,,0.6,0.4,0.4,0.6,0.8,0.2,0.8,0.2,1,0,,,,,,,,,,,,
,,6659e2d753ad8a42fde08e10,66fce6e823cb6f3a8e498543,2024-10-02_08h33.54.491,mdp,2024.2.1,Win32,59.88023952,66fa4ebf79326e780c390304,,,,,,,,,,,,,,,,,,,,,641.5807,641.5807,641.5844,643.1975,0,1,left,1.0867,,643.2014,644.5808,0,0,left,644.5842,644.5858,,0,,1,644.5859,644.5859,644.588,646.0809,0,21,21,21,1,0.2,0.8,0.6,0.4,,,,,,,,,,,,,,,0.8512,,0.6,0.4,0.4,0.6,0.8,0.2,0.8,0.2,1,0,,,,,,,,,,,,
,,6659e2d753ad8a42fde08e10,66fce6e823cb6f3a8e498543,2024-10-02_08h33.54.491,mdp,2024.2.1,Win32,59.88023952,66fa4ebf79326e780c390304,,,,,,,,,,,,,,,,,,,,,646.0818,646.082,646.0856,647.068,0,1,left,0.4614,,647.0714,648.2814,0,0,left,648.2846,648.2862,,1,,1,648.2863,648.2863,648.2888,649.7803,0,22,22,22,1,0.2,0.8,0.6,0.4,,,,,,,,,,,,,,,0.6855,,0.6,0.4,0.4,0.6,0.8,0.2,0.8,0.2,1,0,,,,,,,,,,,,
,,6659e2d753ad8a42fde08e10,66fce6e823cb6f3a8e498543,2024-10-02_08h33.54.491,mdp,2024.2.1,Win32,59.88023952,66fa4ebf79326e780c390304,,,,,,,,,,,,,,,,,,,,,649.7825,649.7825,649.7853,650.7844,0,1,left,0.4691,,650.7872,651.8526,0,1,left,651.8561,651.8588,,0,,0,651.8588,651.8589,651.8624,653.348,0,23,23,23,1,0.2,0.8,0.6,0.4,,,,,,,,,,,,,,,0.5465,,0.6,0.4,0.4,0.6,0.8,0.2,0.8,0.2,1,0,,,,,,,,,,,,
,,6659e2d753ad8a42fde08e10,66fce6e823cb6f3a8e498543,2024-10-02_08h33.54.491,mdp,2024.2.1,Win32,59.88023952,66fa4ebf79326e780c390304,,,,,,,,,,,,,,,,,,,,,653.3496,653.3496,653.3518,654.8321,1,0,right,0.9493,,654.8362,656.1828,1,0,right,656.1854,656.187,,0,,1,656.1871,656.1871,656.1891,657.6816,0,24,24,24,1,0.2,0.8,0.6,0.4,,,,,,,,,,,,,,,0.8011,,0.6,0.4,0.4,0.6,0.8,0.2,0.8,0.2,1,0,,,,,,,,,,,,
,,6659e2d753ad8a42fde08e10,66fce6e823cb6f3a8e498543,2024-10-02_08h33.54.491,mdp,2024.2.1,Win32,59.88023952,66fa4ebf79326e780c390304,,,,,,,,,,,,,,,,,,,,,657.6829,657.6829,657.6855,658.518,1,1,right,0.3118,,658.5201,660.5723,1,1,right,660.5749,660.5766,,0,,0,660.5767,660.5767,660.5816,662.0648,0,25,25,25,1,0.6,0.4,0.2,0.8,,,,,,,,,,,,,,,1.5173,,0.6,0.4,0.4,0.6,0.8,0.2,0.8,0.2,1,0,,,,,,,,,,,,
,,6659e2d753ad8a42fde08e10,66fce6e823cb6f3a8e498543,2024-10-02_08h33.54.491,mdp,2024.2.1,Win32,59.88023952,66fa4ebf79326e780c390304,,,,,,,,,,,,,,,,,,,,,662.0668,662.0668,662.0692,663.0503,0,1,left,0.4595,,663.0538,664.6144,1,0,right,664.6184,664.62,,1,,1,664.6201,664.6201,664.6223,666.1147,0,26,26,26,1,0.6,0.4,0.2,0.8,,,,,,,,,,,,,,,1.0355,,0.6,0.4,0.4,0.6,0.8,0.2,0.8,0.2,1,0,,,,,,,,,,,,
,,6659e2d753ad8a42fde08e10,66fce6e823cb6f3a8e498543,2024-10-02_08h33.54.491,mdp,2024.2.1,Win32,59.88023952,66fa4ebf79326e780c390304,,,,,,,,,,,,,,,,,,,,,666.1159,666.1161,666.1187,667.0331,0,0,left,0.3925,,667.0362,668.315,0,1,left,668.3188,668.321,,1,,0,668.3211,668.3211,668.3231,669.8141,0,27,27,27,1,0.6,0.4,0.2,0.8,,,,,,,,,,,,,,,0.7385,,0.6,0.4,0.4,0.6,0.8,0.2,0.8,0.2,1,0,,,,,,,,,,,,
,,6659e2d753ad8a42fde08e10,66fce6e823cb6f3a8e498543,2024-10-02_08h33.54.491,mdp,2024.2.1,Win32,59.88023952,66fa4ebf79326e780c390304,,,,,,,,,,,,,,,,,,,,,669.8162,669.8163,669.8191,670.5701,1,0,right,0.2188,,670.5745,672.3823,1,1,right,672.3858,672.3875,,1,,0,672.3877,672.3877,672.3899,673.8818,0,28,28,28,1,0.6,0.4,0.2,0.8,,,,,,,,,,,,,,,1.2849,,0.6,0.4,0.4,0.6,0.8,0.2,0.8,0.2,1,0,,,,,,,,,,,,
,,6659e2d753ad8a42fde08e10,66fce6e823cb6f3a8e498543,2024-10-02_08h33.54.491,mdp,2024.2.1,Win32,59.88023952,66fa4ebf79326e780c390304,,,,,,,,,,,,,,,,,,,,,673.883,673.8833,673.886,675.9329,1,1,right,1.5183,,675.9401,677.2503,0,0,left,677.2568,677.259,,0,,1,677.259,677.259,677.2614,678.7528,0,29,29,29,1,0.2,0.8,0.4,0.6,,,,,,,,,,,,,,,0.7745,,0.6,0.4,0.4,0.6,0.8,0.2,0.8,0.2,1,0,,,,,,,,,,,,
,,6659e2d753ad8a42fde08e10,66fce6e823cb6f3a8e498543,2024-10-02_08h33.54.491,mdp,2024.2.1,Win32,59.88023952,66fa4ebf79326e780c390304,,,,,,,,,,,,,,,,,,,,,678.7537,678.7538,678.7571,679.9827,0,1,left,0.6996,,679.9857,681.5206,0,0,left,681.5314,681.5333,,0,,1,681.5334,681.5334,681.5356,683.0322,0,30,30,30,1,0.2,0.8,0.4,0.6,,,,,,,,,,,,,,,1.0269,,0.4,0.6,0.2,0.8,0.8,0.2,0.8,0.2,1,0,,,,,,,,,,,,
,,6659e2d753ad8a42fde08e10,66fce6e823cb6f3a8e498543,2024-10-02_08h33.54.491,mdp,2024.2.1,Win32,59.88023952,66fa4ebf79326e780c390304,,,,,,,,,,,,,,,,,,,,,683.0333,683.0334,683.0363,684.0551,0,0,left,0.4956,,684.3148,685.3329,0,1,left,685.3361,685.3376,,1,,0,685.3377,685.3377,685.3396,686.8322,0,31,31,31,1,0.2,0.8,0.4,0.6,,,,,,,,,,,,,,,0.7364,,0.4,0.6,0.2,0.8,0.8,0.2,0.8,0.2,1,0,,,,,,,,,,,,
,,6659e2d753ad8a42fde08e10,66fce6e823cb6f3a8e498543,2024-10-02_08h33.54.491,mdp,2024.2.1,Win32,59.88023952,66fa4ebf79326e780c390304,,,,,,,,,,,,,,,,,,,,,686.8338,686.8338,686.8476,687.8917,0,1,left,0.5317,,687.8941,689.2825,0,1,left,689.2859,689.2877,,0,,0,689.2878,689.2878,689.2907,690.7825,0,32,32,32,1,0.2,0.8,0.4,0.6,,,,,,,,,,,,,,,0.8583,,0.4,0.6,0.2,0.8,0.8,0.2,0.8,0.2,1,0,,,,,,,,,,,,
,,6659e2d753ad8a42fde08e10,66fce6e823cb6f3a8e498543,2024-10-02_08h33.54.491,mdp,2024.2.1,Win32,59.88023952,66fa4ebf79326e780c390304,,,,,,,,,,,,,,,,,,,,,690.7839,690.784,690.7867,692.1331,1,0,right,0.8181,,692.137,693.4163,0,0,left,693.4196,693.4211,,1,,1,693.4212,693.4212,693.4237,694.9158,0,33,33,33,1,0.2,0.8,0.4,0.6,,,,,,,,,,,,,,,0.736,,0.4,0.6,0.2,0.8,0.8,0.2,0.8,0.2,1,0,,,,,,,,,,,,
,,6659e2d753ad8a42fde08e10,66fce6e823cb6f3a8e498543,2024-10-02_08h33.54.491,mdp,2024.2.1,Win32,59.88023952,66fa4ebf79326e780c390304,,,,,,,,,,,,,,,,,,,,,694.918,694.918,694.9207,696.2501,1,1,right,0.8012,,696.2529,697.6835,0,0,left,697.6864,697.6883,,1,,1,697.6883,697.6883,697.6904,699.183,0,34,34,34,1,0.2,0.8,0.4,0.6,,,,,,,,,,,,,,,0.8877,,0.4,0.6,0.2,0.8,0.8,0.2,0.8,0.2,1,0,,,,,,,,,,,,
,,6659e2d753ad8a42fde08e10,66fce6e823cb6f3a8e498543,2024-10-02_08h33.54.491,mdp,2024.2.1,Win32,59.88023952,66fa4ebf79326e780c390304,,,,,,,,,,,,,,,,,,,,,699.1845,699.1845,699.1876,700.2168,1,1,right,0.5023,,700.2201,701.3681,0,0,left,701.3709,701.3723,,0,,1,701.3724,701.3724,701.3742,702.8666,0,35,35,35,1,0.2,0.8,0.4,0.6,,,,,,,,,,,,,,,0.6259,,0.4,0.6,0.2,0.8,0.8,0.2,0.8,0.2,1,0,,,,,,,,,,,,
,,6659e2d753ad8a42fde08e10,66fce6e823cb6f3a8e498543,2024-10-02_08h33.54.491,mdp,2024.2.1,Win32,59.88023952,66fa4ebf79326e780c390304,,,,,,,,,,,,,,,,,,,,,702.8678,702.868,702.8707,705.1332,1,1,right,1.737,,705.1367,706.3319,0,1,left,706.3365,706.3384,,1,,0,706.3385,706.3385,706.3405,707.8331,0,36,36,36,1,0.2,0.8,0.4,0.6,,,,,,,,,,,,,,,0.6834,,0.4,0.6,0.2,0.8,0.8,0.2,0.8,0.2,1,0,,,,,,,,,,,,
,,6659e2d753ad8a42fde08e10,66fce6e823cb6f3a8e498543,2024-10-02_08h33.54.491,mdp,2024.2.1,Win32,59.88023952,66fa4ebf79326e780c390304,,,,,,,,,,,,,,,,,,,,,707.8342,707.8343,707.8369,709.4176,1,0,right,1.0543,,709.4206,710.6502,1,1,right,710.6535,710.6551,,0,,0,710.6552,710.6552,710.6571,712.15,0,37,37,37,1,0.2,0.8,0.4,0.6,,,,,,,,,,,,,,,0.6884,,0.4,0.6,0.2,0.8,0.8,0.2,0.8,0.2,1,0,,,,,,,,,,,,
,,6659e2d753ad8a42fde08e10,66fce6e823cb6f3a8e498543,2024-10-02_08h33.54.491,mdp,2024.2.1,Win32,59.88023952,66fa4ebf79326e780c390304,,,,,,,,,,,,,,,,,,,,,712.1514,712.1514,712.154,713.668,1,0,right,0.9923,,713.6718,714.7313,0,0,left,714.7362,714.7392,,0,,1,714.7393,714.7393,714.7414,716.2347,0,38,38,38,1,0.2,0.8,0.4,0.6,,,,,,,,,,,,,,,0.5345,,0.4,0.6,0.2,0.8,0.8,0.2,0.8,0.2,1,0,,,,,,,,,,,,
,,6659e2d753ad8a42fde08e10,66fce6e823cb6f3a8e498543,2024-10-02_08h33.54.491,mdp,2024.2.1,Win32,59.88023952,66fa4ebf79326e780c390304,,,,,,,,,,,,,,,,,,,,,716.2355,716.2357,716.2387,717.4169,1,1,right,0.652,,717.4212,718.5199,0,1,left,718.5223,718.5239,,0,,0,718.524,718.524,718.526,720.017,0,39,39,39,1,0.2,0.8,0.4,0.6,,,,,,,,,,,,,,,0.5621,,0.4,0.6,0.2,0.8,0.8,0.2,0.8,0.2,1,0,,,,,,,,,,,,
,,6659e2d753ad8a42fde08e10,66fce6e823cb6f3a8e498543,2024-10-02_08h33.54.491,mdp,2024.2.1,Win32,59.88023952,66fa4ebf79326e780c390304,,,,,,,,,,,,,,,,,,,,,720.0184,720.0185,720.0208,721.2173,1,1,right,0.6696,,721.2206,722.7508,0,0,left,722.7541,722.7556,,0,,1,722.7558,722.7558,722.7577,724.2505,0,40,40,40,1,0.2,0.8,0.4,0.6,,,,,,,,,,,,,,,1.0017,,0.4,0.6,0.2,0.8,0.8,0.2,0.8,0.2,1,0,,,,,,,,,,,,
,,6659e2d753ad8a42fde08e10,66fce6e823cb6f3a8e498543,2024-10-02_08h33.54.491,mdp,2024.2.1,Win32,59.88023952,66fa4ebf79326e780c390304,,,,,,,,,,,,,,,,,,,,,724.2526,724.2526,724.2553,725.2842,1,0,right,0.495,,725.288,727.9513,1,0,right,727.9544,727.9559,,0,,1,727.9561,727.9561,727.958,729.4506,0,41,41,41,1,0.2,0.8,0.4,0.6,,,,,,,,,,,,,,,2.1198,,0.4,0.6,0.2,0.8,0.8,0.2,0.8,0.2,1,0,,,,,,,,,,,,
,,6659e2d753ad8a42fde08e10,66fce6e823cb6f3a8e498543,2024-10-02_08h33.54.491,mdp,2024.2.1,Win32,59.88023952,66fa4ebf79326e780c390304,,,,,,,,,,,,,,,,,,,,,729.4518,729.452,729.4545,730.7014,1,0,right,0.7186,,730.7042,732.1678,1,1,right,732.1712,732.1728,,1,,0,732.1728,732.1728,732.1748,733.6676,0,42,42,42,1,0.2,0.8,0.4,0.6,,,,,,,,,,,,,,,0.9343,,0.4,0.6,0.2,0.8,0.8,0.2,0.8,0.2,1,0,,,,,,,,,,,,
,,6659e2d753ad8a42fde08e10,66fce6e823cb6f3a8e498543,2024-10-02_08h33.54.491,mdp,2024.2.1,Win32,59.88023952,66fa4ebf79326e780c390304,,,,,,,,,,,,,,,,,,,,,733.6692,733.6693,733.6718,734.7682,1,0,right,0.5679,,734.771,735.9177,0,1,left,735.921,735.9225,,1,,0,735.9226,735.9226,735.9245,737.4176,0,43,43,43,1,0.2,0.8,0.4,0.6,,,,,,,,,,,,,,,0.6195,,0.4,0.6,0.2,0.8,0.8,0.2,0.8,0.2,1,0,,,,,,,,,,,,
,,6659e2d753ad8a42fde08e10,66fce6e823cb6f3a8e498543,2024-10-02_08h33.54.491,mdp,2024.2.1,Win32,59.88023952,66fa4ebf79326e780c390304,,,,,,,,,,,,,,,,,,,,,737.4188,737.4188,737.4217,739.1352,1,0,right,1.1863,,739.1385,740.2513,1,1,right,740.2555,740.2571,,1,,0,740.2571,740.2571,740.2591,741.751,0,44,44,44,1,0.2,0.8,0.4,0.6,,,,,,,,,,,,,,,0.5891,,0.4,0.6,0.2,0.8,0.8,0.2,0.8,0.2,1,0,,,,,,,,,,,,
,,6659e2d753ad8a42fde08e10,66fce6e823cb6f3a8e498543,2024-10-02_08h33.54.491,mdp,2024.2.1,Win32,59.88023952,66fa4ebf79326e780c390304,,,,,,,,,,,,,,,,,,,,,741.7522,741.7523,741.7548,743.2518,1,1,right,0.9686,,743.2548,744.2526,0,0,left,744.2562,744.2578,,0,,1,744.2578,744.2579,744.2604,745.7508,0,45,45,45,1,0.2,0.8,0.4,0.6,,,,,,,,,,,,,,,0.4618,,0.4,0.6,0.2,0.8,0.8,0.2,0.8,0.2,1,0,,,,,,,,,,,,
,,6659e2d753ad8a42fde08e10,66fce6e823cb6f3a8e498543,2024-10-02_08h33.54.491,mdp,2024.2.1,Win32,59.88023952,66fa4ebf79326e780c390304,,,,,,,,,,,,,,,,,,,,,745.753,745.7531,745.7558,746.6698,0,1,left,0.3931,,746.6728,747.8181,0,0,left,747.822,747.824,,0,,1,747.824,747.824,747.8263,749.3181,0,46,46,46,1,0.2,0.8,0.4,0.6,,,,,,,,,,,,,,,0.6206,,0.4,0.6,0.2,0.8,0.8,0.2,0.8,0.2,1,0,,,,,,,,,,,,
,,6659e2d753ad8a42fde08e10,66fce6e823cb6f3a8e498543,2024-10-02_08h33.54.491,mdp,2024.2.1,Win32,59.88023952,66fa4ebf79326e780c390304,,,,,,,,,,,,,,,,,,,,,749.3195,749.3195,749.3219,750.3019,0,1,left,0.4522,,750.305,751.7023,1,0,right,751.7058,751.7074,,0,,1,751.7075,751.7075,751.7097,753.2022,0,47,47,47,1,0.2,0.8,0.4,0.6,,,,,,,,,,,,,,,0.8852,,0.4,0.6,0.2,0.8,0.8,0.2,0.8,0.2,1,0,,,,,,,,,,,,
,,6659e2d753ad8a42fde08e10,66fce6e823cb6f3a8e498543,2024-10-02_08h33.54.491,mdp,2024.2.1,Win32,59.88023952,66fa4ebf79326e780c390304,,,,,,,,,,,,,,,,,,,,,753.2035,753.2036,753.2059,754.2527,0,1,left,0.5184,,754.2557,755.8198,0,0,left,755.8229,755.8245,,0,,1,755.8246,755.8246,755.8266,757.3194,0,48,48,48,1,0.2,0.8,0.4,0.6,,,,,,,,,,,,,,,1.0415,,0.4,0.6,0.2,0.8,0.8,0.2,0.8,0.2,1,0,,,,,,,,,,,,
,,6659e2d753ad8a42fde08e10,66fce6e823cb6f3a8e498543,2024-10-02_08h33.54.491,mdp,2024.2.1,Win32,59.88023952,66fa4ebf79326e780c390304,,,,,,,,,,,,,,,,,,,,,757.3205,757.3205,757.3229,759.8524,1,0,right,2.0006,,759.8554,761.9858,1,0,right,761.9891,761.9908,,1,,1,761.991,761.991,761.9929,763.4859,0,49,49,49,1,0.2,0.8,0.4,0.6,,,,,,,,,,,,,,,1.5869,,0.4,0.6,0.2,0.8,0.8,0.2,0.8,0.2,1,0,,,,,,,,,,,,
,,6659e2d753ad8a42fde08e10,66fce6e823cb6f3a8e498543,2024-10-02_08h33.54.491,mdp,2024.2.1,Win32,59.88023952,66fa4ebf79326e780c390304,,,,,,,,,,,,,,,,,,,,,,,,,,,,,,,,,,,,,,,,,,,,,,,,,,,,,,,,763.4863,822.0043,0,1,1,8,1,imgs/squirrel.png,imgs/goat.png,imgs/dog.png,imgs/bear.png,imgs/horse.png,,,,,,,,,,,,,,,,,,,,,,,,
,,6659e2d753ad8a42fde08e10,66fce6e823cb6f3a8e498543,2024-10-02_08h33.54.491,mdp,2024.2.1,Win32,59.88023952,66fa4ebf79326e780c390304,,,,,,,,,,,,,,3,seqs/st3seq33.csv,822.0078,824.9548,space,2.4187,,824.9772,824.9773,824.9799,827.3552,1,1,right,1.7658,,827.3592,829.0721,0,0,left,829.0757,830.9718,1,0,right,1,830.9722,830.9722,830.9749,832.4712,0,0,0,0,1,0.8,0.2,0.2,0.8,,,,,,,,,,,,,,,1.1782,,0.6,0.4,0.4,0.6,0.8,0.2,0.2,0.8,,,1.345,,0.6,0.4,0.8,0.2,0.4,0.6,0.8,0.2,1,0
,,6659e2d753ad8a42fde08e10,66fce6e823cb6f3a8e498543,2024-10-02_08h33.54.491,mdp,2024.2.1,Win32,59.88023952,66fa4ebf79326e780c390304,,,,,,,,,,,,,,,,,,,,,832.4728,832.4731,832.4755,833.4053,0,1,left,0.4022,,833.4082,834.4882,1,1,right,834.4916,835.8888,0,0,left,1,835.8889,835.8892,835.8921,837.3881,0,1,1,1,1,0.8,0.2,0.2,0.8,,,,,,,,,,,,,,,0.5539,,0.6,0.4,0.4,0.6,0.8,0.2,0.2,0.8,,,0.7847,,0.6,0.4,0.8,0.2,0.4,0.6,0.8,0.2,1,0
,,6659e2d753ad8a42fde08e10,66fce6e823cb6f3a8e498543,2024-10-02_08h33.54.491,mdp,2024.2.1,Win32,59.88023952,66fa4ebf79326e780c390304,,,,,,,,,,,,,,,,,,,,,837.3894,837.3895,837.392,838.3554,1,1,right,0.4345,,838.3584,839.6389,0,0,left,839.6417,840.7058,1,0,right,1,840.706,840.7061,840.7086,842.2049,0,2,2,2,1,0.8,0.2,0.2,0.8,,,,,,,,,,,,,,,0.7527,,0.6,0.4,0.4,0.6,0.8,0.2,0.2,0.8,,,0.521,,0.6,0.4,0.8,0.2,0.4,0.6,0.8,0.2,1,0
,,6659e2d753ad8a42fde08e10,66fce6e823cb6f3a8e498543,2024-10-02_08h33.54.491,mdp,2024.2.1,Win32,59.88023952,66fa4ebf79326e780c390304,,,,,,,,,,,,,,,,,,,,,842.2063,842.2065,842.2088,843.1388,0,0,left,0.4033,,843.1424,844.1605,1,1,right,844.1638,845.2223,0,1,left,0,845.2228,845.2229,845.2257,846.7217,0,3,3,3,1,0.8,0.2,0.2,0.8,,,,,,,,,,,,,,,0.4451,,0.6,0.4,0.4,0.6,0.8,0.2,0.2,0.8,,,0.5228,,0.6,0.4,0.8,0.2,0.4,0.6,0.8,0.2,1,0
,,6659e2d753ad8a42fde08e10,66fce6e823cb6f3a8e498543,2024-10-02_08h33.54.491,mdp,2024.2.1,Win32,59.88023952,66fa4ebf79326e780c390304,,,,,,,,,,,,,,,,,,,,,846.7233,846.7234,846.7264,847.6724,0,0,left,0.4182,,847.6754,848.9891,1,0,right,848.9923,850.1052,1,0,right,1,850.1053,850.1053,850.1087,851.6051,0,4,4,4,1,0.8,0.2,0.2,0.8,,,,,,,,,,,,,,,0.7882,,0.6,0.4,0.4,0.6,0.8,0.2,0.2,0.8,,,0.5731,,0.6,0.4,0.8,0.2,0.4,0.6,0.8,0.2,1,0
,,6659e2d753ad8a42fde08e10,66fce6e823cb6f3a8e498543,2024-10-02_08h33.54.491,mdp,2024.2.1,Win32,59.88023952,66fa4ebf79326e780c390304,,,,,,,,,,,,,,,,,,,,,851.6065,851.6065,851.6095,853.0561,0,1,left,0.9336,,853.0595,854.456,0,1,left,854.4591,855.706,1,1,right,0,855.7061,855.7061,855.7097,857.2053,0,5,5,5,1,0.8,0.2,0.2,0.8,,,,,,,,,,,,,,,0.8567,,0.6,0.4,0.4,0.6,0.8,0.2,0.2,0.8,,,0.7097,,0.6,0.4,0.8,0.2,0.6,0.4,0.2,0.8,1,0
,,6659e2d753ad8a42fde08e10,66fce6e823cb6f3a8e498543,2024-10-02_08h33.54.491,mdp,2024.2.1,Win32,59.88023952,66fa4ebf79326e780c390304,,,,,,,,,,,,,,,,,,,,,857.2068,857.2069,857.2096,858.2237,0,0,left,0.4899,,858.2271,859.5749,1,1,right,859.5773,861.4733,1,1,right,0,861.4734,861.4734,861.4759,862.9742,0,6,6,6,1,0.8,0.2,0.2,0.8,,,,,,,,,,,,,,,0.8148,,0.6,0.4,0.4,0.6,0.8,0.2,0.2,0.8,,,1.3708,,0.6,0.4,0.8,0.2,0.6,0.4,0.2,0.8,1,0
,,6659e2d753ad8a42fde08e10,66fce6e823cb6f3a8e498543,2024-10-02_08h33.54.491,mdp,2024.2.1,Win32,59.88023952,66fa4ebf79326e780c390304,,,,,,,,,,,,,,,,,,,,,862.9759,862.976,862.9781,863.8395,1,0,right,0.3377,,863.8425,864.9743,0,0,left,864.9777,866.1897,0,0,left,1,866.1899,866.1899,866.1927,867.6891,0,7,7,7,1,0.8,0.2,0.2,0.8,,,,,,,,,,,,,,,0.6018,,0.6,0.4,0.4,0.6,0.8,0.2,0.2,0.8,,,0.67,,0.6,0.4,0.8,0.2,0.6,0.4,0.2,0.8,1,0
,,6659e2d753ad8a42fde08e10,66fce6e823cb6f3a8e498543,2024-10-02_08h33.54.491,mdp,2024.2.1,Win32,59.88023952,66fa4ebf79326e780c390304,,,,,,,,,,,,,,,,,,,,,867.6905,867.6906,867.6931,869.0562,1,1,right,0.8343,,869.0597,870.3895,0,0,left,870.3928,872.39,0,1,left,0,872.3904,872.3905,872.393,873.8894,0,8,8,8,1,0.8,0.2,0.2,0.8,,,,,,,,,,,,,,,0.7898,,0.6,0.4,0.4,0.6,0.8,0.2,0.2,0.8,,,1.4693,,0.6,0.4,0.8,0.2,0.6,0.4,0.2,0.8,1,0
,,6659e2d753ad8a42fde08e10,66fce6e823cb6f3a8e498543,2024-10-02_08h33.54.491,mdp,2024.2.1,Win32,59.88023952,66fa4ebf79326e780c390304,,,,,,,,,,,,,,,,,,,,,873.8911,873.8911,873.8936,874.9897,1,0,right,0.5689,,874.9931,876.5396,0,1,left,876.543,878.0735,0,0,left,1,878.0739,878.0739,878.0764,879.573,0,9,9,9,1,0.8,0.2,0.2,0.8,,,,,,,,,,,,,,,1.0029,,0.6,0.4,0.4,0.6,0.8,0.2,0.2,0.8,,,0.9906,,0.6,0.4,0.8,0.2,0.6,0.4,0.2,0.8,1,0
,,6659e2d753ad8a42fde08e10,66fce6e823cb6f3a8e498543,2024-10-02_08h33.54.491,mdp,2024.2.1,Win32,59.88023952,66fa4ebf79326e780c390304,,,,,,,,,,,,,,,,,,,,,879.5743,879.5744,879.577,880.9231,1,0,right,0.817,,880.9264,882.1565,0,0,left,882.1603,883.8899,1,0,right,1,883.89,883.8901,883.8933,885.3898,0,10,10,10,1,0.8,0.2,0.2,0.8,,,,,,,,,,,,,,,0.7019,,0.6,0.4,0.4,0.6,0.8,0.2,0.2,0.8,,,1.2057,,0.6,0.4,0.8,0.2,0.6,0.4,0.2,0.8,1,0
,,6659e2d753ad8a42fde08e10,66fce6e823cb6f3a8e498543,2024-10-02_08h33.54.491,mdp,2024.2.1,Win32,59.88023952,66fa4ebf79326e780c390304,,,,,,,,,,,,,,,,,,,,,885.3912,885.3914,885.3939,886.5926,1,0,right,0.6705,,886.5948,887.8235,0,1,left,887.8267,889.2568,0,0,left,1,889.2574,889.2574,889.2608,890.7568,0,11,11,11,1,0.8,0.2,0.2,0.8,,,,,,,,,,,,,,,0.7023,,0.6,0.4,0.4,0.6,0.8,0.2,0.2,0.8,,,0.8881,,0.6,0.4,0.8,0.2,0.6,0.4,0.2,0.8,1,0
,,6659e2d753ad8a42fde08e10,66fce6e823cb6f3a8e498543,2024-10-02_08h33.54.491,mdp,2024.2.1,Win32,59.88023952,66fa4ebf79326e780c390304,,,,,,,,,,,,,,,,,,,,,890.7583,890.7584,890.7608,892.807,1,1,right,1.5181,,892.8102,894.257,0,0,left,894.2603,895.9075,1,0,right,1,895.9077,895.9077,895.9106,897.4069,0,12,12,12,1,0.8,0.2,0.2,0.8,,,,,,,,,,,,,,,0.9186,,0.6,0.4,0.4,0.6,0.8,0.2,0.2,0.8,,,1.1032,,0.6,0.4,0.8,0.2,0.2,0.8,0.4,0.6,1,0
,,6659e2d753ad8a42fde08e10,66fce6e823cb6f3a8e498543,2024-10-02_08h33.54.491,mdp,2024.2.1,Win32,59.88023952,66fa4ebf79326e780c390304,,,,,,,,,,,,,,,,,,,,,897.4084,897.4085,897.4109,898.7072,1,1,right,0.7691,,898.7106,900.3912,0,1,left,900.3942,901.7923,0,0,left,1,901.7924,901.7924,901.7959,903.2906,0,13,13,13,1,0.8,0.2,0.2,0.8,,,,,,,,,,,,,,,1.1523,,0.6,0.4,0.4,0.6,0.8,0.2,0.2,0.8,,,0.8637,,0.6,0.4,0.8,0.2,0.2,0.8,0.4,0.6,1,0
,,6659e2d753ad8a42fde08e10,66fce6e823cb6f3a8e498543,2024-10-02_08h33.54.491,mdp,2024.2.1,Win32,59.88023952,66fa4ebf79326e780c390304,,,,,,,,,,,,,,,,,,,,,903.2935,903.2936,903.297,904.6412,1,1,right,0.8184,,904.6441,906.1248,0,0,left,906.1278,907.459,1,0,right,1,907.4592,907.4592,907.4622,908.9575,0,14,14,14,1,0.8,0.2,0.2,0.8,,,,,,,,,,,,,,,0.9532,,0.6,0.4,0.4,0.6,0.8,0.2,0.2,0.8,,,0.7966,,0.6,0.4,0.8,0.2,0.2,0.8,0.4,0.6,1,0
,,6659e2d753ad8a42fde08e10,66fce6e823cb6f3a8e498543,2024-10-02_08h33.54.491,mdp,2024.2.1,Win32,59.88023952,66fa4ebf79326e780c390304,,,,,,,,,,,,,,,,,,,,,908.959,908.9591,908.9616,910.1082,1,1,right,0.6186,,910.1113,911.6588,0,0,left,911.6615,913.2578,1,0,right,1,913.2583,913.2584,913.2611,914.7576,0,15,15,15,1,0.8,0.2,0.2,0.8,,,,,,,,,,,,,,,1.0327,,0.2,0.8,0.6,0.4,0.8,0.2,0.2,0.8,,,1.0688,,0.6,0.4,0.8,0.2,0.2,0.8,0.4,0.6,1,0
,,6659e2d753ad8a42fde08e10,66fce6e823cb6f3a8e498543,2024-10-02_08h33.54.491,mdp,2024.2.1,Win32,59.88023952,66fa4ebf79326e780c390304,,,,,,,,,,,,,,,,,,,,,914.7589,914.7591,914.7617,915.8582,1,1,right,0.5733,,915.8627,917.1247,0,0,left,917.1282,918.4583,1,0,right,1,918.4585,918.4585,918.4613,919.9579,0,16,16,16,1,0.8,0.2,0.2,0.8,,,,,,,,,,,,,,,0.7343,,0.2,0.8,0.6,0.4,0.8,0.2,0.2,0.8,,,0.8021,,0.6,0.4,0.8,0.2,0.6,0.4,0.8,0.2,1,0
,,6659e2d753ad8a42fde08e10,66fce6e823cb6f3a8e498543,2024-10-02_08h33.54.491,mdp,2024.2.1,Win32,59.88023952,66fa4ebf79326e780c390304,,,,,,,,,,,,,,,,,,,,,919.9594,919.9595,919.962,921.1415,1,0,right,0.6553,,921.1451,922.308,0,1,left,922.3114,923.8419,0,0,left,1,923.8422,923.8423,923.8449,925.3413,0,17,17,17,1,0.8,0.2,0.2,0.8,,,,,,,,,,,,,,,0.6213,,0.2,0.8,0.6,0.4,0.8,0.2,0.2,0.8,,,0.9869,,0.6,0.4,0.8,0.2,0.6,0.4,0.8,0.2,1,0
,,6659e2d753ad8a42fde08e10,66fce6e823cb6f3a8e498543,2024-10-02_08h33.54.491,mdp,2024.2.1,Win32,59.88023952,66fa4ebf79326e780c390304,,,,,,,,,,,,,,,,,,,,,925.343,925.3432,925.3457,926.4252,1,1,right,0.5584,,926.4297,927.5768,0,0,left,927.5797,929.1086,1,0,right,1,929.1089,929.1089,929.1117,930.6083,0,18,18,18,1,0.2,0.8,0.4,0.6,,,,,,,,,,,,,,,0.6136,,0.2,0.8,0.6,0.4,0.8,0.2,0.2,0.8,,,0.9905,,0.6,0.4,0.8,0.2,0.6,0.4,0.8,0.2,1,0
,,6659e2d753ad8a42fde08e10,66fce6e823cb6f3a8e498543,2024-10-02_08h33.54.491,mdp,2024.2.1,Win32,59.88023952,66fa4ebf79326e780c390304,,,,,,,,,,,,,,,,,,,,,930.6096,930.6098,930.6123,931.776,1,1,right,0.6355,,931.7789,932.8918,0,0,left,932.8951,934.1774,1,0,right,1,934.1774,934.1775,934.1804,935.675,0,19,19,19,1,0.2,0.8,0.4,0.6,,,,,,,,,,,,,,,0.5865,,0.2,0.8,0.6,0.4,0.8,0.2,0.2,0.8,,,0.7603,,0.6,0.4,0.8,0.2,0.6,0.4,0.8,0.2,1,0
,,6659e2d753ad8a42fde08e10,66fce6e823cb6f3a8e498543,2024-10-02_08h33.54.491,mdp,2024.2.1,Win32,59.88023952,66fa4ebf79326e780c390304,,,,,,,,,,,,,,,,,,,,,935.6763,935.6765,935.6791,936.7589,1,0,right,0.5533,,936.7624,938.076,0,0,left,938.0789,939.4425,1,0,right,1,939.4429,939.4429,939.4459,940.9421,0,20,20,20,1,0.2,0.8,0.4,0.6,,,,,,,,,,,,,,,0.7718,,0.2,0.8,0.6,0.4,0.8,0.2,0.2,0.8,,,0.8343,,0.6,0.4,0.8,0.2,0.6,0.4,0.8,0.2,1,0
,,6659e2d753ad8a42fde08e10,66fce6e823cb6f3a8e498543,2024-10-02_08h33.54.491,mdp,2024.2.1,Win32,59.88023952,66fa4ebf79326e780c390304,,,,,,,,,,,,,,,,,,,,,940.9435,940.9436,940.9465,942.0592,1,0,right,0.585,,942.0624,943.2592,0,1,left,943.2622,945.143,0,0,left,1,945.1434,945.1434,945.146,946.6421,0,21,21,21,1,0.2,0.8,0.4,0.6,,,,,,,,,,,,,,,0.6704,,0.2,0.8,0.6,0.4,0.8,0.2,0.2,0.8,,,1.3403,,0.6,0.4,0.8,0.2,0.6,0.4,0.8,0.2,1,0
,,6659e2d753ad8a42fde08e10,66fce6e823cb6f3a8e498543,2024-10-02_08h33.54.491,mdp,2024.2.1,Win32,59.88023952,66fa4ebf79326e780c390304,,,,,,,,,,,,,,,,,,,,,946.6437,946.6437,946.6465,947.9096,1,1,right,0.7359,,947.9124,949.2116,1,1,right,949.2137,950.5762,0,1,left,0,950.5768,950.5768,950.5794,952.0756,0,22,22,22,1,0.2,0.8,0.4,0.6,,,,,,,,,,,,,,,0.7635,,0.2,0.8,0.6,0.4,0.8,0.2,0.2,0.8,,,0.8346,,0.6,0.4,0.8,0.2,0.6,0.4,0.8,0.2,1,0
,,6659e2d753ad8a42fde08e10,66fce6e823cb6f3a8e498543,2024-10-02_08h33.54.491,mdp,2024.2.1,Win32,59.88023952,66fa4ebf79326e780c390304,,,,,,,,,,,,,,,,,,,,,952.0775,952.0775,952.08,953.0264,1,1,right,0.418,,953.0296,954.226,0,0,left,954.2302,955.5425,1,1,right,0,955.5426,955.5426,955.5461,957.0425,0,23,23,23,1,0.2,0.8,0.4,0.6,,,,,,,,,,,,,,,0.6681,,0.2,0.8,0.6,0.4,0.8,0.2,0.2,0.8,,,0.7736,,0.6,0.4,0.8,0.2,0.6,0.4,0.8,0.2,1,0
,,6659e2d753ad8a42fde08e10,66fce6e823cb6f3a8e498543,2024-10-02_08h33.54.491,mdp,2024.2.1,Win32,59.88023952,66fa4ebf79326e780c390304,,,,,,,,,,,,,,,,,,,,,957.0438,957.0439,957.0464,958.0774,1,1,right,0.5013,,958.0802,959.174,0,0,left,959.1805,960.6132,1,0,right,1,960.6134,960.6134,960.6158,962.1094,0,24,24,24,1,0.2,0.8,0.4,0.6,,,,,,,,,,,,,,,0.5696,,0.2,0.8,0.6,0.4,0.8,0.2,0.2,0.8,,,0.9194,,0.6,0.4,0.8,0.2,0.6,0.4,0.8,0.2,1,0
,,6659e2d753ad8a42fde08e10,66fce6e823cb6f3a8e498543,2024-10-02_08h33.54.491,mdp,2024.2.1,Win32,59.88023952,66fa4ebf79326e780c390304,,,,,,,,,,,,,,,,,,,,,962.111,962.111,962.1141,963.1604,1,1,right,0.5178,,963.163,964.3434,0,0,left,964.3467,965.9765,1,0,right,1,965.977,965.977,965.9799,967.476,0,25,25,25,1,0.2,0.8,0.4,0.6,,,,,,,,,,,,,,,0.6529,,0.2,0.8,0.6,0.4,0.8,0.2,0.2,0.8,,,1.1047,,0.6,0.4,0.8,0.2,0.6,0.4,0.8,0.2,1,0
,,6659e2d753ad8a42fde08e10,66fce6e823cb6f3a8e498543,2024-10-02_08h33.54.491,mdp,2024.2.1,Win32,59.88023952,66fa4ebf79326e780c390304,,,,,,,,,,,,,,,,,,,,,967.4777,967.4777,967.481,968.6765,1,1,right,0.6677,,968.6797,969.8767,0,0,left,969.8802,971.2302,1,0,right,1,971.2304,971.2304,971.2333,972.7263,0,26,26,26,1,0.2,0.8,0.4,0.6,,,,,,,,,,,,,,,0.672,,0.2,0.8,0.6,0.4,0.8,0.2,0.2,0.8,,,0.8193,,0.6,0.4,0.8,0.2,0.6,0.4,0.8,0.2,1,0
,,6659e2d753ad8a42fde08e10,66fce6e823cb6f3a8e498543,2024-10-02_08h33.54.491,mdp,2024.2.1,Win32,59.88023952,66fa4ebf79326e780c390304,,,,,,,,,,,,,,,,,,,,,972.728,972.7281,972.7318,973.8608,1,1,right,0.6015,,973.864,975.1101,0,0,left,975.1135,976.5266,1,0,right,1,976.5267,976.5267,976.53,978.0267,0,27,27,27,1,0.2,0.8,0.4,0.6,,,,,,,,,,,,,,,0.7176,,0.2,0.8,0.6,0.4,0.8,0.2,0.2,0.8,,,0.8862,,0.6,0.4,0.8,0.2,0.6,0.4,0.8,0.2,1,0
,,6659e2d753ad8a42fde08e10,66fce6e823cb6f3a8e498543,2024-10-02_08h33.54.491,mdp,2024.2.1,Win32,59.88023952,66fa4ebf79326e780c390304,,,,,,,,,,,,,,,,,,,,,978.0284,978.0285,978.0311,979.4436,1,1,right,0.8846,,979.4469,981.1441,0,0,left,981.147,982.46,1,1,right,0,982.4602,982.4605,982.4638,983.9602,0,28,28,28,1,0.2,0.8,0.4,0.6,,,,,,,,,,,,,,,1.1669,,0.2,0.8,0.6,0.4,0.8,0.2,0.2,0.8,,,0.7852,,0.6,0.4,0.8,0.2,0.6,0.4,0.8,0.2,1,0
,,6659e2d753ad8a42fde08e10,66fce6e823cb6f3a8e498543,2024-10-02_08h33.54.491,mdp,2024.2.1,Win32,59.88023952,66fa4ebf79326e780c390304,,,,,,,,,,,,,,,,,,,,,983.9617,983.9617,983.9642,984.9943,1,1,right,0.5008,,984.9974,986.1945,0,1,left,986.199,987.9773,0,0,left,1,987.9778,987.9778,987.9808,989.4765,0,29,29,29,1,0.4,0.6,0.2,0.8,,,,,,,,,,,,,,,0.6752,,0.2,0.8,0.6,0.4,0.8,0.2,0.2,0.8,,,1.2403,,0.6,0.4,0.8,0.2,0.6,0.4,0.8,0.2,1,0
,,6659e2d753ad8a42fde08e10,66fce6e823cb6f3a8e498543,2024-10-02_08h33.54.491,mdp,2024.2.1,Win32,59.88023952,66fa4ebf79326e780c390304,,,,,,,,,,,,,,,,,,,,,989.4785,989.4785,989.4814,990.6778,1,1,right,0.6655,,990.6809,991.8106,0,0,left,991.8144,993.5261,1,0,right,1,993.5262,993.5263,993.5304,995.0274,0,30,30,30,1,0.4,0.6,0.2,0.8,,,,,,,,,,,,,,,0.6075,,0.2,0.8,0.6,0.4,0.8,0.2,0.2,0.8,,,1.1739,,0.6,0.4,0.8,0.2,0.6,0.4,0.8,0.2,1,0
,,6659e2d753ad8a42fde08e10,66fce6e823cb6f3a8e498543,2024-10-02_08h33.54.491,mdp,2024.2.1,Win32,59.88023952,66fa4ebf79326e780c390304,,,,,,,,,,,,,,,,,,,,,995.0286,995.0288,995.0317,996.1618,1,1,right,0.6032,,996.1645,997.5276,0,0,left,997.5316,998.9109,1,1,right,0,998.9114,998.9114,998.9142,1000.4108,0,31,31,31,1,0.4,0.6,0.2,0.8,,,,,,,,,,,,,,,0.8385,,0.2,0.8,0.6,0.4,0.8,0.2,0.2,0.8,,,0.8514,,0.8,0.2,0.4,0.6,0.6,0.4,0.8,0.2,1,0
,,6659e2d753ad8a42fde08e10,66fce6e823cb6f3a8e498543,2024-10-02_08h33.54.491,mdp,2024.2.1,Win32,59.88023952,66fa4ebf79326e780c390304,,,,,,,,,,,,,,,,,,,,,1000.412,1000.4122,1000.4147,1001.362,1,1,right,0.4188,,1001.3648,1002.53,0,1,left,1002.5324,1004.011,0,0,left,1,1004.0111,1004.0111,1004.0141,1005.5111,0,32,32,32,1,0.4,0.6,0.2,0.8,,,,,,,,,,,,,,,0.6433,,0.2,0.8,0.6,0.4,0.8,0.2,0.2,0.8,,,0.9399,,0.8,0.2,0.4,0.6,0.6,0.4,0.8,0.2,1,0
,,6659e2d753ad8a42fde08e10,66fce6e823cb6f3a8e498543,2024-10-02_08h33.54.491,mdp,2024.2.1,Win32,59.88023952,66fa4ebf79326e780c390304,,,,,,,,,,,,,,,,,,,,,1005.5126,1005.5128,1005.5151,1006.7613,1,1,right,0.7189,,1006.7649,1007.9445,0,0,left,1007.9492,1010.2448,1,1,right,0,1010.2453,1010.2453,1010.2482,1011.7446,0,33,33,33,1,0.4,0.6,0.2,0.8,,,,,,,,,,,,,,,0.6524,,0.2,0.8,0.6,0.4,0.8,0.2,0.2,0.8,,,1.755,,0.8,0.2,0.4,0.6,0.6,0.4,0.8,0.2,1,0
,,6659e2d753ad8a42fde08e10,66fce6e823cb6f3a8e498543,2024-10-02_08h33.54.491,mdp,2024.2.1,Win32,59.88023952,66fa4ebf79326e780c390304,,,,,,,,,,,,,,,,,,,,,1011.7461,1011.7462,1011.7486,1012.6785,1,1,right,0.4026,,1012.6815,1013.9954,0,0,left,1013.9992,1015.6454,1,1,right,0,1015.6458,1015.6458,1015.6484,1017.1447,0,34,34,34,1,0.4,0.6,0.2,0.8,,,,,,,,,,,,,,,0.792,,0.2,0.8,0.6,0.4,0.8,0.2,0.2,0.8,,,1.1169,,0.8,0.2,0.4,0.6,0.6,0.4,0.8,0.2,1,0
,,6659e2d753ad8a42fde08e10,66fce6e823cb6f3a8e498543,2024-10-02_08h33.54.491,mdp,2024.2.1,Win32,59.88023952,66fa4ebf79326e780c390304,,,,,,,,,,,,,,,,,,,,,1017.1462,1017.1462,1017.1487,1018.2452,1,1,right,0.5704,,1018.2483,1019.2287,0,0,left,1019.2317,1020.9464,1,1,right,0,1020.9471,1020.9471,1020.9496,1022.4449,0,35,35,35,1,0.4,0.6,0.2,0.8,,,,,,,,,,,,,,,0.4525,,0.2,0.8,0.6,0.4,0.8,0.2,0.2,0.8,,,1.193,,0.8,0.2,0.4,0.6,0.6,0.4,0.8,0.2,1,0
,,6659e2d753ad8a42fde08e10,66fce6e823cb6f3a8e498543,2024-10-02_08h33.54.491,mdp,2024.2.1,Win32,59.88023952,66fa4ebf79326e780c390304,,,,,,,,,,,,,,,,,,,,,1022.4462,1022.4464,1022.4488,1023.3622,1,1,right,0.3858,,1023.3651,1024.2786,0,0,left,1024.2818,1025.2293,0,0,left,1,1025.2295,1025.2295,1025.2329,1026.7285,0,36,36,36,1,0.4,0.6,0.2,0.8,,,,,,,,,,,,,,,0.3854,,0.2,0.8,0.6,0.4,0.8,0.2,0.2,0.8,,,0.4181,,0.8,0.2,0.4,0.6,0.6,0.4,0.8,0.2,1,0
,,6659e2d753ad8a42fde08e10,66fce6e823cb6f3a8e498543,2024-10-02_08h33.54.491,mdp,2024.2.1,Win32,59.88023952,66fa4ebf79326e780c390304,,,,,,,,,,,,,,,,,,,,,1026.7298,1026.73,1026.7324,1027.6118,1,1,right,0.3552,,1027.6155,1028.6467,0,1,left,1028.6493,1030.1292,0,0,left,1,1030.1296,1030.1296,1030.1323,1031.6286,0,37,37,37,1,0.4,0.6,0.2,0.8,,,,,,,,,,,,,,,0.5021,,0.2,0.8,0.6,0.4,0.8,0.2,0.2,0.8,,,0.9388,,0.8,0.2,0.4,0.6,0.6,0.4,0.8,0.2,1,0
,,6659e2d753ad8a42fde08e10,66fce6e823cb6f3a8e498543,2024-10-02_08h33.54.491,mdp,2024.2.1,Win32,59.88023952,66fa4ebf79326e780c390304,,,,,,,,,,,,,,,,,,,,,1031.6299,1031.63,1031.6327,1032.6624,1,1,right,0.5015,,1032.6659,1033.8794,0,0,left,1033.8822,1036.2626,0,0,left,1,1036.263,1036.263,1036.2658,1037.7622,0,38,38,38,1,0.4,0.6,0.2,0.8,,,,,,,,,,,,,,,0.6866,,0.2,0.8,0.6,0.4,0.8,0.2,0.2,0.8,,,1.8374,,0.8,0.2,0.4,0.6,0.6,0.4,0.8,0.2,1,0
,,6659e2d753ad8a42fde08e10,66fce6e823cb6f3a8e498543,2024-10-02_08h33.54.491,mdp,2024.2.1,Win32,59.88023952,66fa4ebf79326e780c390304,,,,,,,,,,,,,,,,,,,,,1037.7635,1037.7636,1037.7662,1038.8791,1,1,right,0.5879,,1038.8825,1040.0962,0,0,left,1040.0991,1041.7297,1,1,right,0,1041.7298,1041.73,1041.7328,1043.2293,0,39,39,39,1,0.4,0.6,0.2,0.8,,,,,,,,,,,,,,,0.6849,,0.2,0.8,0.6,0.4,0.8,0.2,0.2,0.8,,,1.104,,0.8,0.2,0.4,0.6,0.6,0.4,0.8,0.2,1,0
,,6659e2d753ad8a42fde08e10,66fce6e823cb6f3a8e498543,2024-10-02_08h33.54.491,mdp,2024.2.1,Win32,59.88023952,66fa4ebf79326e780c390304,,,,,,,,,,,,,,,,,,,,,1043.2305,1043.2308,1043.2335,1044.1126,1,1,right,0.3518,,1044.1161,1045.3794,0,0,left,1045.3828,1046.6974,0,0,left,1,1046.6975,1046.6975,1046.701,1048.1958,0,40,40,40,1,0.4,0.6,0.2,0.8,,,,,,,,,,,,,,,0.7357,,0.2,0.8,0.6,0.4,0.8,0.2,0.2,0.8,,,0.7926,,0.8,0.2,0.4,0.6,0.6,0.4,0.8,0.2,1,0
,,6659e2d753ad8a42fde08e10,66fce6e823cb6f3a8e498543,2024-10-02_08h33.54.491,mdp,2024.2.1,Win32,59.88023952,66fa4ebf79326e780c390304,,,,,,,,,,,,,,,,,,,,,1048.198,1048.1981,1048.2004,1049.2133,1,1,right,0.485,,1049.2162,1050.3299,0,0,left,1050.3333,1051.7806,0,1,left,0,1051.7808,1051.7808,1051.7835,1053.2794,0,41,41,41,1,0.4,0.6,0.2,0.8,,,,,,,,,,,,,,,0.5855,,0.2,0.8,0.6,0.4,0.8,0.2,0.2,0.8,,,0.919,,0.8,0.2,0.4,0.6,0.6,0.4,0.8,0.2,1,0
,,6659e2d753ad8a42fde08e10,66fce6e823cb6f3a8e498543,2024-10-02_08h33.54.491,mdp,2024.2.1,Win32,59.88023952,66fa4ebf79326e780c390304,,,,,,,,,,,,,,,,,,,,,1053.2807,1053.2808,1053.2835,1054.23,1,1,right,0.4183,,1054.2329,1055.9303,0,0,left,1055.9332,1057.1803,1,1,right,0,1057.1805,1057.1805,1057.1831,1058.6796,0,42,42,42,1,0.4,0.6,0.2,0.8,,,,,,,,,,,,,,,1.1701,,0.2,0.8,0.6,0.4,0.8,0.2,0.2,0.8,,,0.7184,,0.8,0.2,0.4,0.6,0.6,0.4,0.8,0.2,1,0
,,6659e2d753ad8a42fde08e10,66fce6e823cb6f3a8e498543,2024-10-02_08h33.54.491,mdp,2024.2.1,Win32,59.88023952,66fa4ebf79326e780c390304,,,,,,,,,,,,,,,,,,,,,1058.681,1058.6811,1058.6837,1059.9132,1,1,right,0.7009,,1059.9165,1061.8971,0,0,left,1061.8999,1063.0807,0,0,left,1,1063.081,1063.081,1063.0836,1064.5799,0,43,43,43,1,0.2,0.8,0.6,0.4,,,,,,,,,,,,,,,1.4514,,0.2,0.8,0.6,0.4,0.8,0.2,0.2,0.8,,,0.6515,,0.8,0.2,0.4,0.6,0.6,0.4,0.8,0.2,1,0
,,6659e2d753ad8a42fde08e10,66fce6e823cb6f3a8e498543,2024-10-02_08h33.54.491,mdp,2024.2.1,Win32,59.88023952,66fa4ebf79326e780c390304,,,,,,,,,,,,,,,,,,,,,1064.5813,1064.5814,1064.5844,1065.6978,1,0,right,0.5872,,1065.7005,1066.9157,0,0,left,1066.9189,1068.3141,1,1,right,0,1068.3143,1068.3144,1068.3171,1069.8139,0,44,44,44,1,0.2,0.8,0.6,0.4,,,,,,,,,,,,,,,0.6772,,0.2,0.8,0.6,0.4,0.8,0.2,0.2,0.8,,,0.8681,,0.8,0.2,0.4,0.6,0.6,0.4,0.8,0.2,1,0
,,6659e2d753ad8a42fde08e10,66fce6e823cb6f3a8e498543,2024-10-02_08h33.54.491,mdp,2024.2.1,Win32,59.88023952,66fa4ebf79326e780c390304,,,,,,,,,,,,,,,,,,,,,1069.8159,1069.816,1069.8181,1070.697,1,0,right,0.3524,,1070.7001,1071.6639,0,1,left,1071.6671,1073.281,0,0,left,1,1073.2812,1073.2815,1073.2839,1074.7806,0,45,45,45,1,0.2,0.8,0.6,0.4,,,,,,,,,,,,,,,0.4334,,0.4,0.6,0.2,0.8,0.8,0.2,0.2,0.8,,,1.072,,0.8,0.2,0.4,0.6,0.6,0.4,0.8,0.2,1,0
,,6659e2d753ad8a42fde08e10,66fce6e823cb6f3a8e498543,2024-10-02_08h33.54.491,mdp,2024.2.1,Win32,59.88023952,66fa4ebf79326e780c390304,,,,,,,,,,,,,,,,,,,,,1074.7818,1074.7818,1074.7844,1075.7143,1,0,right,0.4031,,1075.7171,1076.7978,0,1,left,1076.8005,1078.0984,0,0,left,1,1078.0986,1078.0986,1078.1008,1079.5976,0,46,46,46,1,0.2,0.8,0.6,0.4,,,,,,,,,,,,,,,0.5512,,0.4,0.6,0.2,0.8,0.8,0.2,0.2,0.8,,,0.7687,,0.8,0.2,0.4,0.6,0.6,0.4,0.8,0.2,1,0
,,6659e2d753ad8a42fde08e10,66fce6e823cb6f3a8e498543,2024-10-02_08h33.54.491,mdp,2024.2.1,Win32,59.88023952,66fa4ebf79326e780c390304,,,,,,,,,,,,,,,,,,,,,1079.599,1079.5991,1079.6012,1080.5491,1,0,right,0.4223,,1080.5512,1081.7143,0,1,left,1081.7173,1082.9476,0,1,left,0,1082.9478,1082.9478,1082.9508,1084.4481,0,47,47,47,1,0.2,0.8,0.6,0.4,,,,,,,,,,,,,,,0.6369,,0.4,0.6,0.2,0.8,0.8,0.2,0.2,0.8,,,0.7017,,0.8,0.2,0.4,0.6,0.6,0.4,0.8,0.2,1,0
,,6659e2d753ad8a42fde08e10,66fce6e823cb6f3a8e498543,2024-10-02_08h33.54.491,mdp,2024.2.1,Win32,59.88023952,66fa4ebf79326e780c390304,,,,,,,,,,,,,,,,,,,,,1084.4495,1084.4495,1084.4516,1085.3811,1,0,right,0.4027,,1085.3842,1086.4149,0,0,left,1086.4181,1087.4813,1,0,right,1,1087.4815,1087.4816,1087.4845,1088.9815,0,48,48,48,1,0.2,0.8,0.6,0.4,,,,,,,,,,,,,,,0.5014,,0.4,0.6,0.2,0.8,0.8,0.2,0.2,0.8,,,0.5222,,0.8,0.2,0.4,0.6,0.6,0.4,0.8,0.2,1,0
,,6659e2d753ad8a42fde08e10,66fce6e823cb6f3a8e498543,2024-10-02_08h33.54.491,mdp,2024.2.1,Win32,59.88023952,66fa4ebf79326e780c390304,,,,,,,,,,,,,,,,,,,,,1088.9829,1088.983,1088.9854,1090.5986,1,1,right,1.0841,,1090.6013,1091.5486,0,0,left,1091.5514,1092.9313,0,0,left,1,1092.9316,1092.9316,1092.9344,1094.4315,0,49,49,49,1,0.2,0.8,0.6,0.4,,,,,,,,,,,,,,,0.4087,,0.8,0.2,0.4,0.6,0.8,0.2,0.2,0.8,,,0.8549,,0.8,0.2,0.4,0.6,0.6,0.4,0.8,0.2,1,0
,,6659e2d753ad8a42fde08e10,66fce6e823cb6f3a8e498543,2024-10-02_08h33.54.491,mdp,2024.2.1,Win32,59.88023952,66fa4ebf79326e780c390304,,,,,,,,,,,,,,,,,,,,,,,,,,,,,,,,,,,,,,,,,,,,,,,,,,,,,,,,1094.432,1152.9332,0,2,2,1,1,imgs/giraffe.png,imgs/horse.png,imgs/squirrel.png,imgs/bear.png,imgs/rabbit.png,,,,,,,,,,,,,,,,,,,,,,,,
,,6659e2d753ad8a42fde08e10,66fce6e823cb6f3a8e498543,2024-10-02_08h33.54.491,mdp,2024.2.1,Win32,59.88023952,66fa4ebf79326e780c390304,,,,,,,,,,,,,,3,seqs/st3seq7.csv,1152.9351,1155.5832,space,2.1201,,1155.6011,1155.6012,1155.6037,1160.9669,1,1,right,4.8014,,1160.97,1162.3162,0,0,left,1162.3204,1163.867,0,1,left,0,1163.8674,1163.8674,1163.8704,1165.367,0,0,0,0,1,0.6,0.4,0.4,0.6,,,,,,,,,,,,,,,0.8097,,0.2,0.8,0.2,0.8,0.8,0.2,0.4,0.6,,,1.006,,0.2,0.8,0.6,0.4,0.6,0.4,0.2,0.8,1,0
,,6659e2d753ad8a42fde08e10,66fce6e823cb6f3a8e498543,2024-10-02_08h33.54.491,mdp,2024.2.1,Win32,59.88023952,66fa4ebf79326e780c390304,,,,,,,,,,,,,,,,,,,,,1165.3685,1165.3685,1165.3709,1166.5337,1,1,right,0.6345,,1166.5367,1167.7338,0,0,left,1167.7371,1169.0005,1,1,right,0,1169.0006,1169.0007,1169.0036,1170.5004,0,1,1,1,1,0.6,0.4,0.4,0.6,,,,,,,,,,,,,,,0.6689,,0.2,0.8,0.2,0.8,0.8,0.2,0.4,0.6,,,0.736,,0.2,0.8,0.6,0.4,0.6,0.4,0.2,0.8,1,0
,,6659e2d753ad8a42fde08e10,66fce6e823cb6f3a8e498543,2024-10-02_08h33.54.491,mdp,2024.2.1,Win32,59.88023952,66fa4ebf79326e780c390304,,,,,,,,,,,,,,,,,,,,,1170.502,1170.502,1170.5044,1171.7173,1,1,right,0.6844,,1171.7204,1172.734,0,1,left,1172.737,1173.7513,0,1,left,0,1173.7515,1173.7515,1173.7541,1175.2506,0,2,2,2,1,0.6,0.4,0.4,0.6,,,,,,,,,,,,,,,0.4859,,0.2,0.8,0.2,0.8,0.8,0.2,0.4,0.6,,,0.4747,,0.2,0.8,0.6,0.4,0.6,0.4,0.2,0.8,1,0
,,6659e2d753ad8a42fde08e10,66fce6e823cb6f3a8e498543,2024-10-02_08h33.54.491,mdp,2024.2.1,Win32,59.88023952,66fa4ebf79326e780c390304,,,,,,,,,,,,,,,,,,,,,1175.252,1175.2521,1175.2547,1176.1187,0,1,left,0.3432,,1176.1222,1177.2175,1,1,right,1177.2206,1178.4905,0,1,left,0,1178.4907,1178.4908,1178.4941,1179.9842,0,3,3,3,1,0.6,0.4,0.4,0.6,,,,,,,,,,,,,,,0.5703,,0.2,0.8,0.2,0.8,0.8,0.2,0.4,0.6,,,0.7356,,0.2,0.8,0.6,0.4,0.6,0.4,0.2,0.8,1,0
,,6659e2d753ad8a42fde08e10,66fce6e823cb6f3a8e498543,2024-10-02_08h33.54.491,mdp,2024.2.1,Win32,59.88023952,66fa4ebf79326e780c390304,,,,,,,,,,,,,,,,,,,,,1179.9857,1179.9857,1179.9885,1180.8009,0,0,left,0.2839,,1180.804,1182.6344,1,1,right,1182.6375,1183.7511,0,0,left,1,1183.7515,1183.7515,1183.7543,1185.251,0,4,4,4,1,0.6,0.4,0.4,0.6,,,,,,,,,,,,,,,1.2289,,0.2,0.8,0.2,0.8,0.8,0.2,0.4,0.6,,,0.5878,,0.2,0.8,0.6,0.4,0.6,0.4,0.2,0.8,1,0
,,6659e2d753ad8a42fde08e10,66fce6e823cb6f3a8e498543,2024-10-02_08h33.54.491,mdp,2024.2.1,Win32,59.88023952,66fa4ebf79326e780c390304,,,,,,,,,,,,,,,,,,,,,1185.2525,1185.2525,1185.2549,1186.3007,0,0,left,0.5181,,1186.304,1188.0525,1,1,right,1188.0564,1189.0845,0,1,left,0,1189.085,1189.085,1189.0878,1190.5846,0,5,5,5,1,0.6,0.4,0.4,0.6,,,,,,,,,,,,,,,1.2264,,0.2,0.8,0.2,0.8,0.8,0.2,0.4,0.6,,,0.5019,,0.2,0.8,0.6,0.4,0.6,0.4,0.2,0.8,1,0
,,6659e2d753ad8a42fde08e10,66fce6e823cb6f3a8e498543,2024-10-02_08h33.54.491,mdp,2024.2.1,Win32,59.88023952,66fa4ebf79326e780c390304,,,,,,,,,,,,,,,,,,,,,1190.586,1190.5861,1190.5886,1191.4512,1,0,right,0.335,,1191.4545,1192.1023,0,1,left,1192.1057,1193.518,1,0,right,1,1193.5182,1193.5182,1193.5213,1195.0179,0,6,6,6,1,0.6,0.4,0.4,0.6,,,,,,,,,,,,,,,0.126,,0.2,0.8,0.2,0.8,0.8,0.2,0.4,0.6,,,0.8848,,0.2,0.8,0.6,0.4,0.6,0.4,0.2,0.8,1,0
,,6659e2d753ad8a42fde08e10,66fce6e823cb6f3a8e498543,2024-10-02_08h33.54.491,mdp,2024.2.1,Win32,59.88023952,66fa4ebf79326e780c390304,,,,,,,,,,,,,,,,,,,,,1195.0193,1195.0194,1195.022,1195.8846,1,1,right,0.3349,,1195.8881,1196.9516,0,0,left,1196.9549,1197.9682,1,1,right,0,1197.9684,1197.9684,1197.9717,1199.4681,0,7,7,7,1,0.6,0.4,0.4,0.6,,,,,,,,,,,,,,,0.5221,,0.2,0.8,0.2,0.8,0.8,0.2,0.4,0.6,,,0.4766,,0.8,0.2,0.4,0.6,0.6,0.4,0.2,0.8,1,0
,,6659e2d753ad8a42fde08e10,66fce6e823cb6f3a8e498543,2024-10-02_08h33.54.491,mdp,2024.2.1,Win32,59.88023952,66fa4ebf79326e780c390304,,,,,,,,,,,,,,,,,,,,,1199.4696,1199.4696,1199.4722,1200.3191,1,1,right,0.326,,1200.3229,1201.2183,0,0,left,1201.2214,1202.3351,0,0,left,1,1202.3352,1202.3353,1202.3384,1203.8351,0,8,8,8,1,0.6,0.4,0.4,0.6,,,,,,,,,,,,,,,0.3681,,0.2,0.8,0.2,0.8,0.8,0.2,0.4,0.6,,,0.5983,,0.8,0.2,0.4,0.6,0.6,0.4,0.2,0.8,1,0
,,6659e2d753ad8a42fde08e10,66fce6e823cb6f3a8e498543,2024-10-02_08h33.54.491,mdp,2024.2.1,Win32,59.88023952,66fa4ebf79326e780c390304,,,,,,,,,,,,,,,,,,,,,1203.8365,1203.8366,1203.8392,1204.7185,1,1,right,0.3513,,1204.7216,1205.8019,0,0,left,1205.8059,1206.902,0,0,left,1,1206.9021,1206.9021,1206.9051,1208.4018,0,9,9,9,1,0.6,0.4,0.4,0.6,,,,,,,,,,,,,,,0.5514,,0.2,0.8,0.2,0.8,0.8,0.2,0.4,0.6,,,0.5722,,0.8,0.2,0.4,0.6,0.6,0.4,0.2,0.8,1,0
,,6659e2d753ad8a42fde08e10,66fce6e823cb6f3a8e498543,2024-10-02_08h33.54.491,mdp,2024.2.1,Win32,59.88023952,66fa4ebf79326e780c390304,,,,,,,,,,,,,,,,,,,,,1208.4039,1208.4039,1208.4062,1209.502,1,1,right,0.5712,,1209.5052,1210.667,0,0,left,1210.671,1211.9854,0,0,left,1,1211.9859,1211.9859,1211.9884,1213.4854,0,10,10,10,1,0.6,0.4,0.4,0.6,,,,,,,,,,,,,,,0.6351,,0.2,0.8,0.2,0.8,0.8,0.2,0.4,0.6,,,0.8006,,0.8,0.2,0.4,0.6,0.6,0.4,0.2,0.8,1,0
,,6659e2d753ad8a42fde08e10,66fce6e823cb6f3a8e498543,2024-10-02_08h33.54.491,mdp,2024.2.1,Win32,59.88023952,66fa4ebf79326e780c390304,,,,,,,,,,,,,,,,,,,,,1213.4867,1213.4868,1213.4894,1214.5867,1,1,right,0.5771,,1214.5906,1215.7856,0,1,left,1215.789,1217.7357,1,0,right,1,1217.7362,1217.7363,1217.7389,1219.2356,0,11,11,11,1,0.6,0.4,0.4,0.6,,,,,,,,,,,,,,,0.6692,,0.2,0.8,0.2,0.8,0.8,0.2,0.4,0.6,,,1.4016,,0.8,0.2,0.4,0.6,0.8,0.2,0.8,0.2,1,0
,,6659e2d753ad8a42fde08e10,66fce6e823cb6f3a8e498543,2024-10-02_08h33.54.491,mdp,2024.2.1,Win32,59.88023952,66fa4ebf79326e780c390304,,,,,,,,,,,,,,,,,,,,,1219.2379,1219.238,1219.2403,1220.3695,1,1,right,0.6078,,1220.3733,1221.5199,0,1,left,1221.5232,1223.5358,1,1,right,0,1223.5359,1223.5359,1223.539,1225.0358,0,12,12,12,1,0.6,0.4,0.4,0.6,,,,,,,,,,,,,,,0.6261,,0.2,0.8,0.2,0.8,0.8,0.2,0.4,0.6,,,1.4879,,0.8,0.2,0.4,0.6,0.8,0.2,0.8,0.2,1,0
,,6659e2d753ad8a42fde08e10,66fce6e823cb6f3a8e498543,2024-10-02_08h33.54.491,mdp,2024.2.1,Win32,59.88023952,66fa4ebf79326e780c390304,,,,,,,,,,,,,,,,,,,,,1225.0374,1225.0375,1225.0398,1226.886,1,0,right,1.3192,,1226.8892,1228.3694,0,1,left,1228.3725,1231.0194,0,0,left,1,1231.0201,1231.0201,1231.0227,1232.5195,0,13,13,13,1,0.6,0.4,0.4,0.6,,,,,,,,,,,,,,,0.9394,,0.2,0.8,0.2,0.8,0.8,0.2,0.4,0.6,,,2.1178,,0.8,0.2,0.4,0.6,0.8,0.2,0.8,0.2,1,0
,,6659e2d753ad8a42fde08e10,66fce6e823cb6f3a8e498543,2024-10-02_08h33.54.491,mdp,2024.2.1,Win32,59.88023952,66fa4ebf79326e780c390304,,,,,,,,,,,,,,,,,,,,,1232.5209,1232.521,1232.5235,1233.5694,1,1,right,0.5187,,1233.5727,1234.67,0,0,left,1234.6733,1236.3362,1,0,right,1,1236.3362,1236.3362,1236.3393,1237.8363,0,14,14,14,1,0.6,0.4,0.4,0.6,,,,,,,,,,,,,,,0.5567,,0.2,0.8,0.2,0.8,0.8,0.2,0.4,0.6,,,1.123,,0.8,0.2,0.4,0.6,0.8,0.2,0.8,0.2,1,0
,,6659e2d753ad8a42fde08e10,66fce6e823cb6f3a8e498543,2024-10-02_08h33.54.491,mdp,2024.2.1,Win32,59.88023952,66fa4ebf79326e780c390304,,,,,,,,,,,,,,,,,,,,,1237.8379,1237.8379,1237.8404,1238.937,1,1,right,0.5674,,1238.9401,1239.9364,0,0,left,1239.9394,1241.7027,1,1,right,0,1241.7029,1241.7032,1241.7067,1243.2032,0,15,15,15,1,0.6,0.4,0.4,0.6,,,,,,,,,,,,,,,0.469,,0.2,0.8,0.2,0.8,0.8,0.2,0.4,0.6,,,1.238,,0.8,0.2,0.4,0.6,0.8,0.2,0.8,0.2,1,0
,,6659e2d753ad8a42fde08e10,66fce6e823cb6f3a8e498543,2024-10-02_08h33.54.491,mdp,2024.2.1,Win32,59.88023952,66fa4ebf79326e780c390304,,,,,,,,,,,,,,,,,,,,,1243.2047,1243.2047,1243.2074,1244.17,1,1,right,0.4369,,1244.1731,1245.27,0,0,left,1245.2734,1246.3867,0,0,left,1,1246.3868,1246.3873,1246.3899,1247.8873,0,16,16,16,1,0.6,0.4,0.4,0.6,,,,,,,,,,,,,,,0.5683,,0.2,0.8,0.2,0.8,0.8,0.2,0.4,0.6,,,0.5876,,0.8,0.2,0.4,0.6,0.8,0.2,0.8,0.2,1,0
,,6659e2d753ad8a42fde08e10,66fce6e823cb6f3a8e498543,2024-10-02_08h33.54.491,mdp,2024.2.1,Win32,59.88023952,66fa4ebf79326e780c390304,,,,,,,,,,,,,,,,,,,,,1247.8883,1247.8883,1247.8916,1249.3545,1,0,right,0.9435,,1249.3581,1250.8536,0,1,left,1250.8579,1252.6702,0,0,left,1,1252.6703,1252.6704,1252.6733,1254.1701,0,17,17,17,1,0.6,0.4,0.4,0.6,,,,,,,,,,,,,,,0.9637,,0.2,0.8,0.2,0.8,0.8,0.2,0.4,0.6,,,1.2742,,0.8,0.2,0.4,0.6,0.8,0.2,0.8,0.2,1,0
,,6659e2d753ad8a42fde08e10,66fce6e823cb6f3a8e498543,2024-10-02_08h33.54.491,mdp,2024.2.1,Win32,59.88023952,66fa4ebf79326e780c390304,,,,,,,,,,,,,,,,,,,,,1254.1714,1254.1716,1254.1741,1255.3871,1,0,right,0.6852,,1255.3901,1256.6038,0,1,left,1256.6068,1257.7039,0,1,left,0,1257.7041,1257.7041,1257.7072,1259.2037,0,18,18,18,1,0.6,0.4,0.4,0.6,,,,,,,,,,,,,,,0.6882,,0.2,0.8,0.2,0.8,0.8,0.2,0.4,0.6,,,0.5684,,0.8,0.2,0.4,0.6,0.8,0.2,0.8,0.2,1,0
,,6659e2d753ad8a42fde08e10,66fce6e823cb6f3a8e498543,2024-10-02_08h33.54.491,mdp,2024.2.1,Win32,59.88023952,66fa4ebf79326e780c390304,,,,,,,,,,,,,,,,,,,,,1259.2053,1259.2053,1259.2077,1260.2543,1,1,right,0.523,,1260.2584,1261.2205,0,1,left,1261.2237,1262.7034,0,0,left,1,1262.7038,1262.7039,1262.7076,1264.204,0,19,19,19,1,0.6,0.4,0.4,0.6,,,,,,,,,,,,,,,0.4202,,0.2,0.8,0.2,0.8,0.6,0.4,0.8,0.2,,,0.952,,0.8,0.2,0.4,0.6,0.8,0.2,0.8,0.2,1,0
,,6659e2d753ad8a42fde08e10,66fce6e823cb6f3a8e498543,2024-10-02_08h33.54.491,mdp,2024.2.1,Win32,59.88023952,66fa4ebf79326e780c390304,,,,,,,,,,,,,,,,,,,,,1264.2054,1264.2055,1264.2082,1265.054,1,0,right,0.3191,,1265.0573,1265.9206,0,1,left,1265.9237,1266.7709,1,1,right,0,1266.7711,1266.7711,1266.7749,1268.2721,0,20,20,20,1,0.6,0.4,0.4,0.6,,,,,,,,,,,,,,,0.3228,,0.2,0.8,0.2,0.8,0.6,0.4,0.8,0.2,,,0.3183,,0.8,0.2,0.4,0.6,0.8,0.2,0.8,0.2,1,0
,,6659e2d753ad8a42fde08e10,66fce6e823cb6f3a8e498543,2024-10-02_08h33.54.491,mdp,2024.2.1,Win32,59.88023952,66fa4ebf79326e780c390304,,,,,,,,,,,,,,,,,,,,,1268.273,1268.2731,1268.2761,1269.3563,1,1,right,0.5605,,1269.3588,1271.1376,0,1,left,1271.1406,1273.6377,1,0,right,1,1273.6378,1273.6382,1273.6408,1275.1377,0,21,21,21,1,0.6,0.4,0.4,0.6,,,,,,,,,,,,,,,1.2409,,0.2,0.8,0.2,0.8,0.6,0.4,0.8,0.2,,,1.9689,,0.8,0.2,0.4,0.6,0.8,0.2,0.8,0.2,1,0
,,6659e2d753ad8a42fde08e10,66fce6e823cb6f3a8e498543,2024-10-02_08h33.54.491,mdp,2024.2.1,Win32,59.88023952,66fa4ebf79326e780c390304,,,,,,,,,,,,,,,,,,,,,1275.1392,1275.1393,1275.1416,1276.5545,1,0,right,0.8861,,1276.5585,1277.9712,0,0,left,1277.9749,1279.1378,0,0,left,1,1279.138,1279.138,1279.1409,1280.6378,0,22,22,22,1,0.2,0.8,0.6,0.4,,,,,,,,,,,,,,,0.8722,,0.2,0.8,0.2,0.8,0.6,0.4,0.8,0.2,,,0.6234,,0.8,0.2,0.4,0.6,0.8,0.2,0.8,0.2,1,0
,,6659e2d753ad8a42fde08e10,66fce6e823cb6f3a8e498543,2024-10-02_08h33.54.491,mdp,2024.2.1,Win32,59.88023952,66fa4ebf79326e780c390304,,,,,,,,,,,,,,,,,,,,,1280.6392,1280.6394,1280.6417,1281.7713,1,1,right,0.6014,,1281.7747,1282.8208,0,0,left,1282.8247,1283.8385,0,0,left,1,1283.8386,1283.8387,1283.8416,1285.3383,0,23,23,23,1,0.2,0.8,0.6,0.4,,,,,,,,,,,,,,,0.5097,,0.2,0.8,0.2,0.8,0.6,0.4,0.8,0.2,,,0.4866,,0.8,0.2,0.4,0.6,0.8,0.2,0.8,0.2,1,0
,,6659e2d753ad8a42fde08e10,66fce6e823cb6f3a8e498543,2024-10-02_08h33.54.491,mdp,2024.2.1,Win32,59.88023952,66fa4ebf79326e780c390304,,,,,,,,,,,,,,,,,,,,,1285.3397,1285.3399,1285.3426,1286.405,1,0,right,0.5345,,1286.4085,1287.5049,0,0,left,1287.5083,1288.8882,0,0,left,1,1288.8888,1288.8888,1288.8916,1290.3881,0,24,24,24,1,0.2,0.8,0.6,0.4,,,,,,,,,,,,,,,0.5544,,0.2,0.8,0.2,0.8,0.6,0.4,0.8,0.2,,,0.8542,,0.8,0.2,0.4,0.6,0.8,0.2,0.8,0.2,1,0
,,6659e2d753ad8a42fde08e10,66fce6e823cb6f3a8e498543,2024-10-02_08h33.54.491,mdp,2024.2.1,Win32,59.88023952,66fa4ebf79326e780c390304,,,,,,,,,,,,,,,,,,,,,1290.3897,1290.3897,1290.3923,1291.2718,1,1,right,0.3507,,1291.2753,1292.439,0,0,left,1292.4417,1294.5551,1,1,right,0,1294.5552,1294.5553,1294.5583,1296.0551,0,25,25,25,1,0.2,0.8,0.6,0.4,,,,,,,,,,,,,,,0.6371,,0.2,0.8,0.2,0.8,0.6,0.4,0.8,0.2,,,1.5852,,0.8,0.2,0.4,0.6,0.8,0.2,0.8,0.2,1,0
,,6659e2d753ad8a42fde08e10,66fce6e823cb6f3a8e498543,2024-10-02_08h33.54.491,mdp,2024.2.1,Win32,59.88023952,66fa4ebf79326e780c390304,,,,,,,,,,,,,,,,,,,,,1296.0578,1296.0578,1296.0601,1297.0218,0,1,left,0.4342,,1297.025,1298.1886,1,0,right,1298.1923,1299.322,0,1,left,0,1299.3225,1299.3225,1299.3251,1300.822,0,26,26,26,1,0.2,0.8,0.6,0.4,,,,,,,,,,,,,,,0.6419,,0.2,0.8,0.2,0.8,0.6,0.4,0.8,0.2,,,0.6028,,0.8,0.2,0.4,0.6,0.8,0.2,0.8,0.2,1,0
,,6659e2d753ad8a42fde08e10,66fce6e823cb6f3a8e498543,2024-10-02_08h33.54.491,mdp,2024.2.1,Win32,59.88023952,66fa4ebf79326e780c390304,,,,,,,,,,,,,,,,,,,,,1300.8242,1300.8242,1300.8266,1303.2722,0,1,left,1.9191,,1303.2753,1304.4223,0,1,left,1304.4257,1305.7556,0,1,left,0,1305.7561,1305.7561,1305.7587,1307.2555,0,27,27,27,1,0.2,0.8,0.6,0.4,,,,,,,,,,,,,,,0.6189,,0.2,0.8,0.2,0.8,0.6,0.4,0.8,0.2,,,0.787,,0.8,0.2,0.4,0.6,0.8,0.2,0.8,0.2,1,0
,,6659e2d753ad8a42fde08e10,66fce6e823cb6f3a8e498543,2024-10-02_08h33.54.491,mdp,2024.2.1,Win32,59.88023952,66fa4ebf79326e780c390304,,,,,,,,,,,,,,,,,,,,,1307.257,1307.2571,1307.2594,1308.0889,1,1,right,0.3013,,1308.092,1309.1557,0,1,left,1309.1588,1310.7394,1,0,right,1,1310.7406,1310.7406,1310.7431,1312.2391,0,28,28,28,1,0.2,0.8,0.6,0.4,,,,,,,,,,,,,,,0.537,,0.2,0.8,0.2,0.8,0.6,0.4,0.8,0.2,,,1.0535,,0.8,0.2,0.4,0.6,0.8,0.2,0.8,0.2,1,0
,,6659e2d753ad8a42fde08e10,66fce6e823cb6f3a8e498543,2024-10-02_08h33.54.491,mdp,2024.2.1,Win32,59.88023952,66fa4ebf79326e780c390304,,,,,,,,,,,,,,,,,,,,,1312.2406,1312.2407,1312.243,1313.4225,1,0,right,0.6516,,1313.4257,1314.839,0,1,left,1314.8423,1315.9059,0,0,left,1,1315.9061,1315.9061,1315.9091,1317.406,0,29,29,29,1,0.2,0.8,0.6,0.4,,,,,,,,,,,,,,,0.8717,,0.2,0.8,0.2,0.8,0.6,0.4,0.8,0.2,,,0.5351,,0.8,0.2,0.4,0.6,0.8,0.2,0.8,0.2,1,0
,,6659e2d753ad8a42fde08e10,66fce6e823cb6f3a8e498543,2024-10-02_08h33.54.491,mdp,2024.2.1,Win32,59.88023952,66fa4ebf79326e780c390304,,,,,,,,,,,,,,,,,,,,,1317.4077,1317.4078,1317.4106,1318.5894,1,1,right,0.6536,,1318.5925,1319.5896,0,1,left,1319.5926,1321.1061,0,0,left,1,1321.1063,1321.1063,1321.1093,1322.6062,0,30,30,30,1,0.2,0.8,0.6,0.4,,,,,,,,,,,,,,,0.4558,,0.2,0.8,0.2,0.8,0.6,0.4,0.8,0.2,,,0.9843,,0.8,0.2,0.4,0.6,0.8,0.2,0.8,0.2,1,0
,,6659e2d753ad8a42fde08e10,66fce6e823cb6f3a8e498543,2024-10-02_08h33.54.491,mdp,2024.2.1,Win32,59.88023952,66fa4ebf79326e780c390304,,,,,,,,,,,,,,,,,,,,,1322.6075,1322.6077,1322.6101,1323.6728,1,0,right,0.5381,,1323.6761,1324.8066,0,1,left,1324.8091,1326.1397,0,0,left,1,1326.1398,1326.1399,1326.1431,1327.6397,0,31,31,31,1,0.2,0.8,0.6,0.4,,,,,,,,,,,,,,,0.5881,,0.2,0.8,0.2,0.8,0.6,0.4,0.8,0.2,,,0.803,,0.8,0.2,0.4,0.6,0.8,0.2,0.8,0.2,1,0
,,6659e2d753ad8a42fde08e10,66fce6e823cb6f3a8e498543,2024-10-02_08h33.54.491,mdp,2024.2.1,Win32,59.88023952,66fa4ebf79326e780c390304,,,,,,,,,,,,,,,,,,,,,1327.6411,1327.6412,1327.6436,1328.7898,1,0,right,0.6188,,1328.7934,1329.8065,0,1,left,1329.8099,1330.9728,0,1,left,0,1330.973,1330.973,1330.9764,1332.4733,0,32,32,32,1,0.2,0.8,0.6,0.4,,,,,,,,,,,,,,,0.4855,,0.2,0.8,0.2,0.8,0.6,0.4,0.8,0.2,,,0.6399,,0.8,0.2,0.4,0.6,0.8,0.2,0.8,0.2,1,0
,,6659e2d753ad8a42fde08e10,66fce6e823cb6f3a8e498543,2024-10-02_08h33.54.491,mdp,2024.2.1,Win32,59.88023952,66fa4ebf79326e780c390304,,,,,,,,,,,,,,,,,,,,,1332.4745,1332.4747,1332.4771,1334.5749,0,1,left,1.5753,,1334.5781,1335.8072,1,0,right,1335.8103,1337.0401,1,0,right,1,1337.0402,1337.0402,1337.0434,1338.54,0,33,33,33,1,0.2,0.8,0.6,0.4,,,,,,,,,,,,,,,0.6909,,0.2,0.8,0.2,0.8,0.6,0.4,0.8,0.2,,,0.6877,,0.8,0.2,0.4,0.6,0.8,0.2,0.8,0.2,1,0
,,6659e2d753ad8a42fde08e10,66fce6e823cb6f3a8e498543,2024-10-02_08h33.54.491,mdp,2024.2.1,Win32,59.88023952,66fa4ebf79326e780c390304,,,,,,,,,,,,,,,,,,,,,1338.5413,1338.5415,1338.5445,1339.8569,1,1,right,0.7847,,1339.86,1341.524,0,0,left,1341.5271,1342.8069,1,1,right,0,1342.8074,1342.8075,1342.8101,1344.307,0,34,34,34,1,0.2,0.8,0.6,0.4,,,,,,,,,,,,,,,1.1345,,0.2,0.8,0.2,0.8,0.6,0.4,0.8,0.2,,,0.7523,,0.8,0.2,0.4,0.6,0.8,0.2,0.8,0.2,1,0
,,6659e2d753ad8a42fde08e10,66fce6e823cb6f3a8e498543,2024-10-02_08h33.54.491,mdp,2024.2.1,Win32,59.88023952,66fa4ebf79326e780c390304,,,,,,,,,,,,,,,,,,,,,1344.3084,1344.3086,1344.3113,1345.2751,1,1,right,0.4348,,1345.2789,1346.2736,0,1,left,1346.2768,1347.6238,0,0,left,1,1347.6244,1347.6244,1347.627,1349.1239,0,35,35,35,1,0.2,0.8,0.6,0.4,,,,,,,,,,,,,,,0.4682,,0.2,0.8,0.2,0.8,0.6,0.4,0.8,0.2,,,0.805,,0.8,0.2,0.4,0.6,0.8,0.2,0.8,0.2,1,0
,,6659e2d753ad8a42fde08e10,66fce6e823cb6f3a8e498543,2024-10-02_08h33.54.491,mdp,2024.2.1,Win32,59.88023952,66fa4ebf79326e780c390304,,,,,,,,,,,,,,,,,,,,,1349.1254,1349.1255,1349.1279,1349.9906,1,0,right,0.3354,,1349.9938,1351.0406,0,1,left,1351.0438,1352.3237,0,0,left,1,1352.3239,1352.3239,1352.327,1353.8239,0,36,36,36,1,0.2,0.8,0.6,0.4,,,,,,,,,,,,,,,0.5058,,0.2,0.8,0.2,0.8,0.6,0.4,0.8,0.2,,,0.7517,,0.8,0.2,0.4,0.6,0.8,0.2,0.8,0.2,1,0
,,6659e2d753ad8a42fde08e10,66fce6e823cb6f3a8e498543,2024-10-02_08h33.54.491,mdp,2024.2.1,Win32,59.88023952,66fa4ebf79326e780c390304,,,,,,,,,,,,,,,,,,,,,1353.8254,1353.8254,1353.8278,1354.8739,1,1,right,0.5211,,1354.8772,1355.9743,0,0,left,1355.9779,1357.3405,1,0,right,1,1357.3409,1357.3409,1357.3441,1358.8409,0,37,37,37,1,0.2,0.8,0.6,0.4,,,,,,,,,,,,,,,0.5562,,0.8,0.2,0.4,0.6,0.6,0.4,0.8,0.2,,,0.8227,,0.8,0.2,0.4,0.6,0.8,0.2,0.8,0.2,1,0
,,6659e2d753ad8a42fde08e10,66fce6e823cb6f3a8e498543,2024-10-02_08h33.54.491,mdp,2024.2.1,Win32,59.88023952,66fa4ebf79326e780c390304,,,,,,,,,,,,,,,,,,,,,1358.8433,1358.8433,1358.8459,1359.9575,1,0,right,0.584,,1359.9607,1360.9407,0,0,left,1360.944,1362.541,1,0,right,1,1362.5411,1362.5411,1362.5444,1364.0411,0,38,38,38,1,0.2,0.8,0.6,0.4,,,,,,,,,,,,,,,0.4401,,0.8,0.2,0.4,0.6,0.6,0.4,0.8,0.2,,,1.0848,,0.8,0.2,0.4,0.6,0.8,0.2,0.8,0.2,1,0
,,6659e2d753ad8a42fde08e10,66fce6e823cb6f3a8e498543,2024-10-02_08h33.54.491,mdp,2024.2.1,Win32,59.88023952,66fa4ebf79326e780c390304,,,,,,,,,,,,,,,,,,,,,1364.0424,1364.0426,1364.0451,1365.3745,1,1,right,0.8015,,1365.3777,1366.3911,0,0,left,1366.3942,1367.9578,1,0,right,1,1367.9579,1367.958,1367.9609,1369.4577,0,39,39,39,1,0.2,0.8,0.6,0.4,,,,,,,,,,,,,,,0.4748,,0.8,0.2,0.4,0.6,0.6,0.4,0.8,0.2,,,1.0347,,0.8,0.2,0.4,0.6,0.8,0.2,0.8,0.2,1,0
,,6659e2d753ad8a42fde08e10,66fce6e823cb6f3a8e498543,2024-10-02_08h33.54.491,mdp,2024.2.1,Win32,59.88023952,66fa4ebf79326e780c390304,,,,,,,,,,,,,,,,,,,,,1369.4596,1369.4596,1369.4619,1370.758,1,0,right,0.7682,,1370.7611,1371.7582,0,0,left,1371.7615,1372.9414,1,0,right,1,1372.9416,1372.9416,1372.9448,1374.4414,0,40,40,40,1,0.2,0.8,0.6,0.4,,,,,,,,,,,,,,,0.4546,,0.8,0.2,0.4,0.6,0.6,0.4,0.8,0.2,,,0.6504,,0.8,0.2,0.4,0.6,0.8,0.2,0.8,0.2,1,0
,,6659e2d753ad8a42fde08e10,66fce6e823cb6f3a8e498543,2024-10-02_08h33.54.491,mdp,2024.2.1,Win32,59.88023952,66fa4ebf79326e780c390304,,,,,,,,,,,,,,,,,,,,,1374.4427,1374.4429,1374.4453,1375.7414,1,1,right,0.7686,,1375.7451,1376.7083,0,0,left,1376.7117,1377.8918,1,1,right,0,1377.8919,1377.892,1377.8962,1379.3915,0,41,41,41,1,0.2,0.8,0.6,0.4,,,,,,,,,,,,,,,0.4228,,0.8,0.2,0.4,0.6,0.6,0.4,0.8,0.2,,,0.6589,,0.8,0.2,0.4,0.6,0.8,0.2,0.8,0.2,1,0
,,6659e2d753ad8a42fde08e10,66fce6e823cb6f3a8e498543,2024-10-02_08h33.54.491,mdp,2024.2.1,Win32,59.88023952,66fa4ebf79326e780c390304,,,,,,,,,,,,,,,,,,,,,1379.3929,1379.393,1379.3955,1380.3583,1,0,right,0.4352,,1380.3614,1381.3582,0,0,left,1381.3615,1383.2918,1,1,right,0,1383.2919,1383.2919,1383.2949,1384.7917,0,42,42,42,1,0.2,0.8,0.6,0.4,,,,,,,,,,,,,,,0.4573,,0.8,0.2,0.4,0.6,0.6,0.4,0.8,0.2,,,1.4021,,0.8,0.2,0.4,0.6,0.8,0.2,0.8,0.2,1,0
,,6659e2d753ad8a42fde08e10,66fce6e823cb6f3a8e498543,2024-10-02_08h33.54.491,mdp,2024.2.1,Win32,59.88023952,66fa4ebf79326e780c390304,,,,,,,,,,,,,,,,,,,,,1384.7931,1384.7932,1384.7958,1385.7087,1,0,right,0.3852,,1385.7117,1386.6418,0,1,left,1386.6451,1387.7087,0,0,left,1,1387.7088,1387.7088,1387.7118,1389.2082,0,43,43,43,1,0.2,0.8,0.6,0.4,,,,,,,,,,,,,,,0.4028,,0.8,0.2,0.4,0.6,0.6,0.4,0.8,0.2,,,0.5223,,0.6,0.4,0.8,0.2,0.8,0.2,0.8,0.2,1,0
,,6659e2d753ad8a42fde08e10,66fce6e823cb6f3a8e498543,2024-10-02_08h33.54.491,mdp,2024.2.1,Win32,59.88023952,66fa4ebf79326e780c390304,,,,,,,,,,,,,,,,,,,,,1389.2104,1389.2104,1389.213,1391.8754,1,1,right,2.1354,,1391.8785,1392.9755,0,0,left,1392.9788,1394.7422,0,0,left,1,1394.7427,1394.7427,1394.7458,1396.2422,0,44,44,44,1,0.2,0.8,0.6,0.4,,,,,,,,,,,,,,,0.5552,,0.8,0.2,0.4,0.6,0.6,0.4,0.8,0.2,,,1.2246,,0.6,0.4,0.8,0.2,0.8,0.2,0.8,0.2,1,0
,,6659e2d753ad8a42fde08e10,66fce6e823cb6f3a8e498543,2024-10-02_08h33.54.491,mdp,2024.2.1,Win32,59.88023952,66fa4ebf79326e780c390304,,,,,,,,,,,,,,,,,,,,,1396.244,1396.244,1396.2466,1397.2762,1,0,right,0.507,,1397.2794,1398.2924,0,0,left,1398.2957,1400.1127,0,0,left,1,1400.1131,1400.1132,1400.116,1401.6096,0,45,45,45,1,0.2,0.8,0.6,0.4,,,,,,,,,,,,,,,0.4727,,0.8,0.2,0.4,0.6,0.6,0.4,0.8,0.2,,,1.2952,,0.6,0.4,0.8,0.2,0.8,0.2,0.8,0.2,1,0
,,6659e2d753ad8a42fde08e10,66fce6e823cb6f3a8e498543,2024-10-02_08h33.54.491,mdp,2024.2.1,Win32,59.88023952,66fa4ebf79326e780c390304,,,,,,,,,,,,,,,,,,,,,1401.6112,1401.6112,1401.6133,1402.5108,1,0,right,0.3868,,1402.5131,1403.5433,0,0,left,1403.5457,1404.9927,1,1,right,0,1404.9929,1404.9929,1404.9956,1406.4926,0,46,46,46,1,0.2,0.8,0.6,0.4,,,,,,,,,,,,,,,0.5037,,0.8,0.2,0.4,0.6,0.6,0.4,0.8,0.2,,,0.9208,,0.6,0.4,0.8,0.2,0.8,0.2,0.8,0.2,1,0
,,6659e2d753ad8a42fde08e10,66fce6e823cb6f3a8e498543,2024-10-02_08h33.54.491,mdp,2024.2.1,Win32,59.88023952,66fa4ebf79326e780c390304,,,,,,,,,,,,,,,,,,,,,1406.494,1406.4941,1406.4964,1407.4782,1,1,right,0.4513,0.0088,1407.4804,1408.3944,0,0,left,1408.3968,1410.1261,1,0,right,1,1410.1264,1410.1265,1410.1292,1411.6272,0,47,47,47,1,0.2,0.8,0.6,0.4,,,,,,,,,,,,,,,0.3727,,0.8,0.2,0.4,0.6,0.6,0.4,0.8,0.2,,,1.2047,,0.6,0.4,0.8,0.2,0.8,0.2,0.8,0.2,1,0
,,6659e2d753ad8a42fde08e10,66fce6e823cb6f3a8e498543,2024-10-02_08h33.54.491,mdp,2024.2.1,Win32,59.88023952,66fa4ebf79326e780c390304,,,,,,,,,,,,,,,,,,,,,1411.6283,1411.6283,1411.6308,1412.5606,1,0,right,0.4043,,1412.5632,1413.4604,0,1,left,1413.4627,1414.3265,0,0,left,1,1414.3267,1414.3267,1414.3294,1415.8261,0,48,48,48,1,0.2,0.8,0.6,0.4,,,,,,,,,,,,,,,0.3561,,0.6,0.4,0.2,0.8,0.6,0.4,0.8,0.2,,,0.3233,,0.6,0.4,0.8,0.2,0.8,0.2,0.8,0.2,1,0
,,6659e2d753ad8a42fde08e10,66fce6e823cb6f3a8e498543,2024-10-02_08h33.54.491,mdp,2024.2.1,Win32,59.88023952,66fa4ebf79326e780c390304,,,,,,,,,,,,,,,,,,,,,1415.828,1415.8281,1415.8305,1416.8099,1,1,right,0.4489,,1416.8128,1417.6957,0,0,left,1417.6989,1419.0099,1,0,right,1,1419.0102,1419.0102,1419.0128,1420.5103,0,49,49,49,1,0.2,0.8,0.6,0.4,,,,,,,,,,,,,,,0.3375,,0.6,0.4,0.2,0.8,0.6,0.4,0.8,0.2,,,0.7723,,0.6,0.4,0.8,0.2,0.8,0.2,0.8,0.2,1,0
,,6659e2d753ad8a42fde08e10,66fce6e823cb6f3a8e498543,2024-10-02_08h33.54.491,mdp,2024.2.1,Win32,59.88023952,66fa4ebf79326e780c390304,,,,,,,,,,,,,,,,,,,,,,,,,,,,,,,,,,,,,,,,,,,,,,,,,,,,,,,,1420.5106,1479.0125,0,3,3,6,1,imgs/cat.png,imgs/kangaroo.png,imgs/horse.png,imgs/squirrel.png,imgs/rabbit.png,,,,,,,,,,,,,,,,,,,,,,,,
,,6659e2d753ad8a42fde08e10,66fce6e823cb6f3a8e498543,2024-10-02_08h33.54.491,mdp,2024.2.1,Win32,59.88023952,66fa4ebf79326e780c390304,,,,,,,,,,,,,,1,seqs/st1seq10.csv,1479.0162,1482.1455,space,2.6143,,1482.1527,1482.1527,1482.1549,1485.7793,1,0,right,3.0914,,1485.7821,1485.7837,0,0,,1485.7856,1485.787,1,0,,1,1485.7871,1485.7871,1485.7886,1487.279,0,0,0,0,1,0.2,0.8,0.8,0.2,1,0,,,,,,,,,,,,,,,,,,,,,,,,,,,,,,,,,,,,
,,6659e2d753ad8a42fde08e10,66fce6e823cb6f3a8e498543,2024-10-02_08h33.54.491,mdp,2024.2.1,Win32,59.88023952,66fa4ebf79326e780c390304,,,,,,,,,,,,,,,,,,,,,1487.2803,1487.2804,1487.2826,1489.7966,0,1,left,1.9849,,1489.799,1489.8006,0,1,,1489.8025,1489.804,1,1,,0,1489.8041,1489.8041,1489.8058,1491.2955,0,1,1,1,1,0.2,0.8,0.8,0.2,1,0,,,,,,,,,,,,,,,,,,,,,,,,,,,,,,,,,,,,
,,6659e2d753ad8a42fde08e10,66fce6e823cb6f3a8e498543,2024-10-02_08h33.54.491,mdp,2024.2.1,Win32,59.88023952,66fa4ebf79326e780c390304,,,,,,,,,,,,,,,,,,,,,1491.2972,1491.2973,1491.2998,1493.1125,1,0,right,1.2849,,1493.1156,1493.1171,0,0,,1493.1189,1493.1204,1,0,,1,1493.1204,1493.1204,1493.1221,1494.6123,0,2,2,2,1,0.2,0.8,0.8,0.2,1,0,,,,,,,,,,,,,,,,,,,,,,,,,,,,,,,,,,,,
,,6659e2d753ad8a42fde08e10,66fce6e823cb6f3a8e498543,2024-10-02_08h33.54.491,mdp,2024.2.1,Win32,59.88023952,66fa4ebf79326e780c390304,,,,,,,,,,,,,,,,,,,,,1494.6137,1494.6137,1494.6162,1496.0959,1,0,right,0.9509,,1496.099,1496.1006,0,0,,1496.1026,1496.1041,1,0,,1,1496.1042,1496.1042,1496.1058,1497.596,0,3,3,3,1,0.2,0.8,0.8,0.2,1,0,,,,,,,,,,,,,,,,,,,,,,,,,,,,,,,,,,,,
,,6659e2d753ad8a42fde08e10,66fce6e823cb6f3a8e498543,2024-10-02_08h33.54.491,mdp,2024.2.1,Win32,59.88023952,66fa4ebf79326e780c390304,,,,,,,,,,,,,,,,,,,,,1497.5971,1497.5972,1497.6,1498.6961,1,1,right,0.569,,1498.6992,1498.7007,0,0,,1498.7029,1498.7045,1,0,,0,1498.7046,1498.7046,1498.7062,1500.1961,0,4,4,4,1,0.2,0.8,0.8,0.2,1,0,,,,,,,,,,,,,,,,,,,,,,,,,,,,,,,,,,,,
,,6659e2d753ad8a42fde08e10,66fce6e823cb6f3a8e498543,2024-10-02_08h33.54.491,mdp,2024.2.1,Win32,59.88023952,66fa4ebf79326e780c390304,,,,,,,,,,,,,,,,,,,,,1500.1972,1500.1972,1500.2,1501.7127,1,0,right,0.9846,,1501.7159,1501.7177,0,0,,1501.7194,1501.721,1,0,,1,1501.7211,1501.7211,1501.7227,1503.2128,0,5,5,5,1,0.2,0.8,0.8,0.2,1,0,,,,,,,,,,,,,,,,,,,,,,,,,,,,,,,,,,,,
,,6659e2d753ad8a42fde08e10,66fce6e823cb6f3a8e498543,2024-10-02_08h33.54.491,mdp,2024.2.1,Win32,59.88023952,66fa4ebf79326e780c390304,,,,,,,,,,,,,,,,,,,,,1503.2139,1503.2141,1503.2167,1504.8129,0,0,left,1.0683,,1504.8165,1504.8188,0,1,,1504.8213,1504.8229,1,0,,1,1504.823,1504.823,1504.8255,1506.313,0,6,6,6,1,0.2,0.8,0.8,0.2,1,0,,,,,,,,,,,,,,,,,,,,,,,,,,,,,,,,,,,,
,,6659e2d753ad8a42fde08e10,66fce6e823cb6f3a8e498543,2024-10-02_08h33.54.491,mdp,2024.2.1,Win32,59.88023952,66fa4ebf79326e780c390304,,,,,,,,,,,,,,,,,,,,,1506.3142,1506.3143,1506.3168,1507.7464,0,0,left,0.9012,,1507.7495,1507.7509,0,1,,1507.7527,1507.7543,1,0,,1,1507.7544,1507.7544,1507.756,1509.2464,0,7,7,7,1,0.2,0.8,0.8,0.2,1,0,,,,,,,,,,,,,,,,,,,,,,,,,,,,,,,,,,,,
,,6659e2d753ad8a42fde08e10,66fce6e823cb6f3a8e498543,2024-10-02_08h33.54.491,mdp,2024.2.1,Win32,59.88023952,66fa4ebf79326e780c390304,,,,,,,,,,,,,,,,,,,,,1509.2476,1509.2476,1509.2504,1514.301,1,0,right,4.5248,,1514.3043,1514.3061,0,0,,1514.309,1514.3133,1,0,,1,1514.3133,1514.3133,1514.3159,1515.8166,0,8,8,8,1,0.2,0.8,0.8,0.2,1,0,,,,,,,,,,,,,,,,,,,,,,,,,,,,,,,,,,,,
,,6659e2d753ad8a42fde08e10,66fce6e823cb6f3a8e498543,2024-10-02_08h33.54.491,mdp,2024.2.1,Win32,59.88023952,66fa4ebf79326e780c390304,,,,,,,,,,,,,,,,,,,,,1515.8182,1515.8183,1515.8225,1524.2157,1,1,right,7.8713,,1524.2182,1524.22,0,0,,1524.2226,1524.224,1,0,,0,1524.2241,1524.2242,1524.2257,1525.7137,0,9,9,9,1,0.2,0.8,0.8,0.2,1,0,,,,,,,,,,,,,,,,,,,,,,,,,,,,,,,,,,,,
,,6659e2d753ad8a42fde08e10,66fce6e823cb6f3a8e498543,2024-10-02_08h33.54.491,mdp,2024.2.1,Win32,59.88023952,66fa4ebf79326e780c390304,,,,,,,,,,,,,,,,,,,,,1525.715,1525.7151,1525.7178,1527.1471,0,1,left,0.9022,,1527.1502,1527.1518,0,1,,1527.1543,1527.1559,1,1,,0,1527.156,1527.156,1527.1577,1528.6471,0,10,10,10,1,0.6,0.4,0.4,0.6,1,0,,,,,,,,,,,,,,,,,,,,,,,,,,,,,,,,,,,,
,,6659e2d753ad8a42fde08e10,66fce6e823cb6f3a8e498543,2024-10-02_08h33.54.491,mdp,2024.2.1,Win32,59.88023952,66fa4ebf79326e780c390304,,,,,,,,,,,,,,,,,,,,,1528.6482,1528.6482,1528.6511,1532.1973,1,1,right,3.0186,,1532.2007,1532.2021,0,0,,1532.2038,1532.2052,1,0,,0,1532.2054,1532.2054,1532.2069,1533.6974,0,11,11,11,1,0.6,0.4,0.4,0.6,1,0,,,,,,,,,,,,,,,,,,,,,,,,,,,,,,,,,,,,
,,6659e2d753ad8a42fde08e10,66fce6e823cb6f3a8e498543,2024-10-02_08h33.54.491,mdp,2024.2.1,Win32,59.88023952,66fa4ebf79326e780c390304,,,,,,,,,,,,,,,,,,,,,1533.6988,1533.6989,1533.7011,1534.8477,1,0,right,0.6195,,1534.8511,1534.8525,0,0,,1534.8544,1534.8557,1,1,,1,1534.8558,1534.8559,1534.8576,1536.3472,0,12,12,12,1,0.6,0.4,0.4,0.6,1,0,,,,,,,,,,,,,,,,,,,,,,,,,,,,,,,,,,,,
,,6659e2d753ad8a42fde08e10,66fce6e823cb6f3a8e498543,2024-10-02_08h33.54.491,mdp,2024.2.1,Win32,59.88023952,66fa4ebf79326e780c390304,,,,,,,,,,,,,,,,,,,,,1536.3493,1536.3493,1536.3514,1537.2315,1,1,right,0.3535,,1537.2345,1537.236,0,1,,1537.2378,1537.2393,1,0,,0,1537.2394,1537.2394,1537.241,1538.7313,0,13,13,13,1,0.6,0.4,0.4,0.6,1,0,,,,,,,,,,,,,,,,,,,,,,,,,,,,,,,,,,,,
,,6659e2d753ad8a42fde08e10,66fce6e823cb6f3a8e498543,2024-10-02_08h33.54.491,mdp,2024.2.1,Win32,59.88023952,66fa4ebf79326e780c390304,,,,,,,,,,,,,,,,,,,,,1538.7325,1538.7326,1538.7347,1539.9484,0,1,left,0.686,,1539.9513,1539.953,0,0,,1539.9548,1539.9564,1,1,,0,1539.9564,1539.9565,1539.958,1541.4475,0,14,14,14,1,0.6,0.4,0.4,0.6,1,0,,,,,,,,,,,,,,,,,,,,,,,,,,,,,,,,,,,,
,,6659e2d753ad8a42fde08e10,66fce6e823cb6f3a8e498543,2024-10-02_08h33.54.491,mdp,2024.2.1,Win32,59.88023952,66fa4ebf79326e780c390304,,,,,,,,,,,,,,,,,,,,,1541.449,1541.449,1541.4513,1542.5152,1,1,right,0.5316,,1542.5179,1542.5193,0,1,,1542.5212,1542.5226,1,1,,0,1542.5227,1542.5227,1542.5244,1544.0143,0,15,15,15,1,0.6,0.4,0.4,0.6,1,0,,,,,,,,,,,,,,,,,,,,,,,,,,,,,,,,,,,,
,,6659e2d753ad8a42fde08e10,66fce6e823cb6f3a8e498543,2024-10-02_08h33.54.491,mdp,2024.2.1,Win32,59.88023952,66fa4ebf79326e780c390304,,,,,,,,,,,,,,,,,,,,,1544.0157,1544.0157,1544.0182,1544.9314,0,1,left,0.3848,,1544.9342,1544.9357,0,0,,1544.9374,1544.9389,1,1,,0,1544.939,1544.939,1544.9407,1546.4315,0,16,16,16,1,0.6,0.4,0.4,0.6,1,0,,,,,,,,,,,,,,,,,,,,,,,,,,,,,,,,,,,,
,,6659e2d753ad8a42fde08e10,66fce6e823cb6f3a8e498543,2024-10-02_08h33.54.491,mdp,2024.2.1,Win32,59.88023952,66fa4ebf79326e780c390304,,,,,,,,,,,,,,,,,,,,,1546.433,1546.433,1546.4351,1547.2656,0,0,left,0.3023,,1547.2684,1547.27,0,0,,1547.2721,1547.2736,1,0,,1,1547.2736,1547.2737,1547.2753,1548.7646,0,17,17,17,1,0.6,0.4,0.4,0.6,1,0,,,,,,,,,,,,,,,,,,,,,,,,,,,,,,,,,,,,
,,6659e2d753ad8a42fde08e10,66fce6e823cb6f3a8e498543,2024-10-02_08h33.54.491,mdp,2024.2.1,Win32,59.88023952,66fa4ebf79326e780c390304,,,,,,,,,,,,,,,,,,,,,1548.7657,1548.7658,1548.7683,1549.8818,0,0,left,0.5842,,1549.8855,1549.887,0,0,,1549.8887,1549.8901,1,1,,1,1549.8901,1549.8902,1549.8919,1551.3814,0,18,18,18,1,0.6,0.4,0.4,0.6,1,0,,,,,,,,,,,,,,,,,,,,,,,,,,,,,,,,,,,,
,,6659e2d753ad8a42fde08e10,66fce6e823cb6f3a8e498543,2024-10-02_08h33.54.491,mdp,2024.2.1,Win32,59.88023952,66fa4ebf79326e780c390304,,,,,,,,,,,,,,,,,,,,,1551.3825,1551.3826,1551.3853,1552.5982,1,0,right,0.6843,,1552.6014,1552.6028,0,1,,1552.6046,1552.606,1,1,,1,1552.6061,1552.6062,1552.608,1554.0977,0,19,19,19,1,0.6,0.4,0.4,0.6,1,0,,,,,,,,,,,,,,,,,,,,,,,,,,,,,,,,,,,,
,,6659e2d753ad8a42fde08e10,66fce6e823cb6f3a8e498543,2024-10-02_08h33.54.491,mdp,2024.2.1,Win32,59.88023952,66fa4ebf79326e780c390304,,,,,,,,,,,,,,,,,,,,,1554.1,1554.1,1554.1029,1555.0648,1,0,right,0.4352,,1555.0681,1555.0696,0,1,,1555.0713,1555.0728,1,1,,1,1555.0729,1555.0729,1555.0744,1556.5647,0,20,20,20,1,0.6,0.4,0.4,0.6,1,0,,,,,,,,,,,,,,,,,,,,,,,,,,,,,,,,,,,,
,,6659e2d753ad8a42fde08e10,66fce6e823cb6f3a8e498543,2024-10-02_08h33.54.491,mdp,2024.2.1,Win32,59.88023952,66fa4ebf79326e780c390304,,,,,,,,,,,,,,,,,,,,,1556.5661,1556.5662,1556.5689,1557.4664,0,0,left,0.3704,,1557.4692,1557.4706,0,0,,1557.4722,1557.4736,1,0,,1,1557.4737,1557.4737,1557.4753,1558.9649,0,21,21,21,1,0.6,0.4,0.4,0.6,1,0,,,,,,,,,,,,,,,,,,,,,,,,,,,,,,,,,,,,
,,6659e2d753ad8a42fde08e10,66fce6e823cb6f3a8e498543,2024-10-02_08h33.54.491,mdp,2024.2.1,Win32,59.88023952,66fa4ebf79326e780c390304,,,,,,,,,,,,,,,,,,,,,1558.9661,1558.9661,1558.9686,1559.5666,0,0,left,0.0758,,1559.5701,1559.5716,0,0,,1559.5735,1559.5749,1,0,,1,1559.5749,1559.575,1559.5765,1561.0629,0,22,22,22,1,0.8,0.2,0.6,0.4,1,0,,,,,,,,,,,,,,,,,,,,,,,,,,,,,,,,,,,,
,,6659e2d753ad8a42fde08e10,66fce6e823cb6f3a8e498543,2024-10-02_08h33.54.491,mdp,2024.2.1,Win32,59.88023952,66fa4ebf79326e780c390304,,,,,,,,,,,,,,,,,,,,,1561.0644,1561.0645,1561.0684,1561.782,1,0,right,0.1834,,1561.7861,1561.7898,0,0,,1561.7918,1561.799,1,0,,1,1561.7991,1561.7992,1561.8013,1563.2982,0,23,23,23,1,0.4,0.6,0.8,0.2,1,0,,,,,,,,,,,,,,,,,,,,,,,,,,,,,,,,,,,,
,,6659e2d753ad8a42fde08e10,66fce6e823cb6f3a8e498543,2024-10-02_08h33.54.491,mdp,2024.2.1,Win32,59.88023952,66fa4ebf79326e780c390304,,,,,,,,,,,,,,,,,,,,,1563.2996,1563.2996,1563.3022,1564.1324,1,0,right,0.3031,,1564.1355,1564.1371,0,1,,1564.1401,1564.1419,1,0,,1,1564.1421,1564.1421,1564.1441,1565.6317,0,24,24,24,1,0.4,0.6,0.8,0.2,1,0,,,,,,,,,,,,,,,,,,,,,,,,,,,,,,,,,,,,
,,6659e2d753ad8a42fde08e10,66fce6e823cb6f3a8e498543,2024-10-02_08h33.54.491,mdp,2024.2.1,Win32,59.88023952,66fa4ebf79326e780c390304,,,,,,,,,,,,,,,,,,,,,1565.6331,1565.6331,1565.6356,1566.3327,0,0,left,0.1693,,1566.3358,1566.3373,0,0,,1566.3391,1566.3408,1,1,,1,1566.3409,1566.341,1566.3426,1567.8328,0,25,25,25,1,0.4,0.6,0.8,0.2,1,0,,,,,,,,,,,,,,,,,,,,,,,,,,,,,,,,,,,,
,,6659e2d753ad8a42fde08e10,66fce6e823cb6f3a8e498543,2024-10-02_08h33.54.491,mdp,2024.2.1,Win32,59.88023952,66fa4ebf79326e780c390304,,,,,,,,,,,,,,,,,,,,,1567.8338,1567.8338,1567.836,1568.5337,0,0,left,0.1709,,1568.5359,1568.5374,0,1,,1568.5392,1568.5406,1,0,,1,1568.5407,1568.5407,1568.5422,1570.0327,0,26,26,26,1,0.4,0.6,0.8,0.2,1,0,,,,,,,,,,,,,,,,,,,,,,,,,,,,,,,,,,,,
,,6659e2d753ad8a42fde08e10,66fce6e823cb6f3a8e498543,2024-10-02_08h33.54.491,mdp,2024.2.1,Win32,59.88023952,66fa4ebf79326e780c390304,,,,,,,,,,,,,,,,,,,,,1570.034,1570.0342,1570.0365,1570.9019,1,0,right,0.3447,,1570.904,1570.9055,0,0,,1570.9073,1570.9087,1,0,,1,1570.9088,1570.9088,1570.9104,1572.3985,0,27,27,27,1,0.4,0.6,0.8,0.2,1,0,,,,,,,,,,,,,,,,,,,,,,,,,,,,,,,,,,,,
,,6659e2d753ad8a42fde08e10,66fce6e823cb6f3a8e498543,2024-10-02_08h33.54.491,mdp,2024.2.1,Win32,59.88023952,66fa4ebf79326e780c390304,,,,,,,,,,,,,,,,,,,,,1572.4001,1572.4002,1572.4026,1573.1988,1,0,right,0.2683,,1573.2021,1573.2036,0,0,,1573.2056,1573.2072,1,0,,1,1573.2073,1573.2073,1573.2091,1574.6981,0,28,28,28,1,0.4,0.6,0.8,0.2,1,0,,,,,,,,,,,,,,,,,,,,,,,,,,,,,,,,,,,,
,,6659e2d753ad8a42fde08e10,66fce6e823cb6f3a8e498543,2024-10-02_08h33.54.491,mdp,2024.2.1,Win32,59.88023952,66fa4ebf79326e780c390304,,,,,,,,,,,,,,,,,,,,,1574.699,1574.6991,1574.7025,1575.4825,0,0,left,0.2506,,1575.4861,1575.4874,0,0,,1575.4891,1575.4906,1,1,,1,1575.4907,1575.4907,1575.4925,1576.9823,0,29,29,29,1,0.4,0.6,0.8,0.2,1,0,,,,,,,,,,,,,,,,,,,,,,,,,,,,,,,,,,,,
,,6659e2d753ad8a42fde08e10,66fce6e823cb6f3a8e498543,2024-10-02_08h33.54.491,mdp,2024.2.1,Win32,59.88023952,66fa4ebf79326e780c390304,,,,,,,,,,,,,,,,,,,,,1576.9837,1576.9838,1576.9864,1577.6656,0,1,left,0.1511,,1577.669,1577.6704,0,1,,1577.6723,1577.6737,1,0,,0,1577.6737,1577.6738,1577.6754,1579.1651,0,30,30,30,1,0.4,0.6,0.8,0.2,1,0,,,,,,,,,,,,,,,,,,,,,,,,,,,,,,,,,,,,
,,6659e2d753ad8a42fde08e10,66fce6e823cb6f3a8e498543,2024-10-02_08h33.54.491,mdp,2024.2.1,Win32,59.88023952,66fa4ebf79326e780c390304,,,,,,,,,,,,,,,,,,,,,1579.1673,1579.1673,1579.1701,1580.0681,1,1,right,0.3682,,1580.0714,1580.0735,0,0,,1580.0757,1580.0773,1,0,,0,1580.0775,1580.0775,1580.0809,1581.5673,0,31,31,31,1,0.4,0.6,0.8,0.2,1,0,,,,,,,,,,,,,,,,,,,,,,,,,,,,,,,,,,,,
,,6659e2d753ad8a42fde08e10,66fce6e823cb6f3a8e498543,2024-10-02_08h33.54.491,mdp,2024.2.1,Win32,59.88023952,66fa4ebf79326e780c390304,,,,,,,,,,,,,,,,,,,,,1581.5689,1581.569,1581.572,1582.2993,1,0,right,0.2032,,1582.3033,1582.3047,0,0,,1582.3066,1582.3083,1,0,,1,1582.3084,1582.3084,1582.3109,1583.8003,0,32,32,32,1,0.4,0.6,0.8,0.2,1,0,,,,,,,,,,,,,,,,,,,,,,,,,,,,,,,,,,,,
,,6659e2d753ad8a42fde08e10,66fce6e823cb6f3a8e498543,2024-10-02_08h33.54.491,mdp,2024.2.1,Win32,59.88023952,66fa4ebf79326e780c390304,,,,,,,,,,,,,,,,,,,,,1583.8012,1583.8013,1583.8035,1584.4833,0,1,left,0.1544,,1584.4859,1584.4873,0,1,,1584.4891,1584.4906,1,0,,0,1584.4907,1584.4907,1584.4923,1585.9826,0,33,33,33,1,0.4,0.6,0.8,0.2,1,0,,,,,,,,,,,,,,,,,,,,,,,,,,,,,,,,,,,,
,,6659e2d753ad8a42fde08e10,66fce6e823cb6f3a8e498543,2024-10-02_08h33.54.491,mdp,2024.2.1,Win32,59.88023952,66fa4ebf79326e780c390304,,,,,,,,,,,,,,,,,,,,,1585.9838,1585.984,1585.9866,1586.9015,1,0,right,0.3934,,1586.9041,1586.9064,0,0,,1586.9083,1586.91,1,0,,1,1586.9101,1586.9101,1586.9119,1588.3995,0,34,34,34,1,0.4,0.6,0.8,0.2,1,0,,,,,,,,,,,,,,,,,,,,,,,,,,,,,,,,,,,,
,,6659e2d753ad8a42fde08e10,66fce6e823cb6f3a8e498543,2024-10-02_08h33.54.491,mdp,2024.2.1,Win32,59.88023952,66fa4ebf79326e780c390304,,,,,,,,,,,,,,,,,,,,,1588.4008,1588.4008,1588.4032,1590.2501,0,0,left,1.3176,,1590.2529,1590.2544,0,0,,1590.2563,1590.2577,1,1,,1,1590.2578,1590.2578,1590.2593,1591.7505,0,35,35,35,1,0.4,0.6,0.8,0.2,1,0,,,,,,,,,,,,,,,,,,,,,,,,,,,,,,,,,,,,
,,6659e2d753ad8a42fde08e10,66fce6e823cb6f3a8e498543,2024-10-02_08h33.54.491,mdp,2024.2.1,Win32,59.88023952,66fa4ebf79326e780c390304,,,,,,,,,,,,,,,,,,,,,1591.7515,1591.7515,1591.7536,1592.5003,0,0,left,0.2186,,1592.503,1592.5044,0,0,,1592.5062,1592.5079,1,1,,1,1592.5079,1592.508,1592.5096,1593.9996,0,36,36,36,1,0.4,0.6,0.8,0.2,1,0,,,,,,,,,,,,,,,,,,,,,,,,,,,,,,,,,,,,
,,6659e2d753ad8a42fde08e10,66fce6e823cb6f3a8e498543,2024-10-02_08h33.54.491,mdp,2024.2.1,Win32,59.88023952,66fa4ebf79326e780c390304,,,,,,,,,,,,,,,,,,,,,1594.0009,1594.001,1594.0033,1594.867,1,0,right,0.335,,1594.8699,1594.8713,0,0,,1594.8731,1594.8745,1,0,,1,1594.8746,1594.8746,1594.8762,1596.3663,0,37,37,37,1,0.4,0.6,0.8,0.2,1,0,,,,,,,,,,,,,,,,,,,,,,,,,,,,,,,,,,,,
,,6659e2d753ad8a42fde08e10,66fce6e823cb6f3a8e498543,2024-10-02_08h33.54.491,mdp,2024.2.1,Win32,59.88023952,66fa4ebf79326e780c390304,,,,,,,,,,,,,,,,,,,,,1596.3676,1596.3678,1596.3702,1597.4336,1,0,right,0.5352,,1597.4365,1597.4384,0,1,,1597.4403,1597.4418,1,0,,1,1597.4419,1597.4419,1597.4434,1598.9329,0,38,38,38,1,0.4,0.6,0.8,0.2,1,0,,,,,,,,,,,,,,,,,,,,,,,,,,,,,,,,,,,,
,,6659e2d753ad8a42fde08e10,66fce6e823cb6f3a8e498543,2024-10-02_08h33.54.491,mdp,2024.2.1,Win32,59.88023952,66fa4ebf79326e780c390304,,,,,,,,,,,,,,,,,,,,,1598.9348,1598.9355,1598.9376,1601.0837,0,1,left,1.6185,,1601.0866,1601.0881,0,1,,1601.0899,1601.0913,1,1,,0,1601.0914,1601.0914,1601.093,1602.5839,0,39,39,39,1,0.4,0.6,0.8,0.2,1,0,,,,,,,,,,,,,,,,,,,,,,,,,,,,,,,,,,,,
