init_exp.started,init_exp.stopped,participant,session,date,expName,psychopyVersion,OS,frameRate,study_id,disp_instruction.started,disp_instruction.stopped,instruction.thisRepN,instruction.thisTrialN,instruction.thisN,instruction.thisIndex,instruction.ran,instimg_path,consent.started,consent.stopped,key_resp_3.keys,key_resp_3.rt,key_resp_3.duration,n_steps,sequence_path,init_block.started,init_block.stopped,key_resp.keys,key_resp.rt,key_resp.duration,init_trials.started,init_trials.stopped,step0.started,step0.stopped,act0,s1,res0.keys,res0.rt,res0.duration,step1.started,step1.stopped,act1,s2,res1.keys,step2.started,step2.stopped,act2,s3,res2.keys,rew,reward_comp.started,reward_comp.stopped,reward_disp.started,reward_disp.stopped,trials.thisRepN,trials.thisTrialN,trials.thisN,trials.thisIndex,trials.ran,s00a0s10,s00a0s11,s00a1s10,s00a1s11,rew10,rew11,break_block.started,break_block.stopped,block.thisRepN,block.thisTrialN,block.thisN,block.thisIndex,block.ran,s00path,s10path,s11path,s20path,s21path,res1.rt,res1.duration,s10a0s20,s10a0s21,s10a1s20,s10a1s21,s11a0s20,s11a0s21,s11a1s20,s11a1s21,rew20,rew21,res2.rt,res2.duration,s20a0s30,s20a0s31,s20a1s30,s20a1s31,s21a0s30,s21a0s31,s21a1s30,s21a1s31,rew30,rew31
0.0001,0.0012,666b0a3508c2f3faa9cd0057,66fc9dbef4f2c861eb39a9de,2024-10-02_04h10.33.824,mdp,2024.2.1,Win32,59.88023952,66fa4ebf79326e780c390304,,,,,,,,,,,,,,,,,,,,,,,,,,,,,,,,,,,,,,,,,,,,,,,,,,,,,,,,,,,,,,,,,,,,,,,,,,,,,,,,,,,,,,,,,,,
,,666b0a3508c2f3faa9cd0057,66fc9dbef4f2c861eb39a9de,2024-10-02_04h10.33.824,mdp,2024.2.1,Win32,59.88023952,66fa4ebf79326e780c390304,0.0039,19.9902,0,0,0,0,1,rlnn_exp/rlnn_exp.001.png,,,,,,,,,,,,,,,,,,,,,,,,,,,,,,,,,,,,,,,,,,,,,,,,,,,,,,,,,,,,,,,,,,,,,,,,,,,,,,,,,,,
,,666b0a3508c2f3faa9cd0057,66fc9dbef4f2c861eb39a9de,2024-10-02_04h10.33.824,mdp,2024.2.1,Win32,59.88023952,66fa4ebf79326e780c390304,19.9924,34.1402,0,1,1,1,1,rlnn_exp/rlnn_exp.002.png,,,,,,,,,,,,,,,,,,,,,,,,,,,,,,,,,,,,,,,,,,,,,,,,,,,,,,,,,,,,,,,,,,,,,,,,,,,,,,,,,,,
,,666b0a3508c2f3faa9cd0057,66fc9dbef4f2c861eb39a9de,2024-10-02_04h10.33.824,mdp,2024.2.1,Win32,59.88023952,66fa4ebf79326e780c390304,34.1417,47.8724,0,2,2,2,1,rlnn_exp/rlnn_exp.003.png,,,,,,,,,,,,,,,,,,,,,,,,,,,,,,,,,,,,,,,,,,,,,,,,,,,,,,,,,,,,,,,,,,,,,,,,,,,,,,,,,,,
,,666b0a3508c2f3faa9cd0057,66fc9dbef4f2c861eb39a9de,2024-10-02_04h10.33.824,mdp,2024.2.1,Win32,59.88023952,66fa4ebf79326e780c390304,47.8741,61.1898,0,3,3,3,1,rlnn_exp/rlnn_exp.004.png,,,,,,,,,,,,,,,,,,,,,,,,,,,,,,,,,,,,,,,,,,,,,,,,,,,,,,,,,,,,,,,,,,,,,,,,,,,,,,,,,,,
,,666b0a3508c2f3faa9cd0057,66fc9dbef4f2c861eb39a9de,2024-10-02_04h10.33.824,mdp,2024.2.1,Win32,59.88023952,66fa4ebf79326e780c390304,,,,,,,,,61.1901,73.9152,y,2.7024,,,,,,,,,,,,,,,,,,,,,,,,,,,,,,,,,,,,,,,,,,,,,,,,,,,,,,,,,,,,,,,,,,,,,,,,,,,,,,,
,,666b0a3508c2f3faa9cd0057,66fc9dbef4f2c861eb39a9de,2024-10-02_04h10.33.824,mdp,2024.2.1,Win32,59.88023952,66fa4ebf79326e780c390304,,,,,,,,,,,,,,1,seqs/st1seq23.csv,73.9278,75.8817,space,1.4346,,75.8916,75.8916,75.8927,154.2322,1,0,right,77.7773,,154.2328,154.2346,,0,,154.235,154.2362,,0,,1,154.2365,154.2365,154.2369,155.7355,0,0,0,0,1,0.2,0.8,0.8,0.2,1,0,,,,,,,,,,,,,,,,,,,,,,,,,,,,,,,,,,,,
,,666b0a3508c2f3faa9cd0057,66fc9dbef4f2c861eb39a9de,2024-10-02_04h10.33.824,mdp,2024.2.1,Win32,59.88023952,66fa4ebf79326e780c390304,,,,,,,,,,,,,,,,,,,,,155.7375,155.7375,155.7401,160.22,1,0,right,3.9517,,160.2241,160.2265,,0,,160.2287,160.2307,,0,,1,160.2308,160.2309,160.2335,161.719,0,1,1,1,1,0.2,0.8,0.8,0.2,1,0,,,,,,,,,,,,,,,,,,,,,,,,,,,,,,,,,,,,
,,666b0a3508c2f3faa9cd0057,66fc9dbef4f2c861eb39a9de,2024-10-02_04h10.33.824,mdp,2024.2.1,Win32,59.88023952,66fa4ebf79326e780c390304,,,,,,,,,,,,,,,,,,,,,161.7209,161.7209,161.7247,163.5558,1,0,right,1.303,,163.5595,163.5613,,0,,163.5639,163.5657,,1,,1,163.5658,163.5659,163.5678,165.0686,0,2,2,2,1,0.2,0.8,0.8,0.2,1,0,,,,,,,,,,,,,,,,,,,,,,,,,,,,,,,,,,,,
,,666b0a3508c2f3faa9cd0057,66fc9dbef4f2c861eb39a9de,2024-10-02_04h10.33.824,mdp,2024.2.1,Win32,59.88023952,66fa4ebf79326e780c390304,,,,,,,,,,,,,,,,,,,,,165.0705,165.0705,165.0741,168.0624,1,0,right,2.4576,,168.0652,168.0673,,0,,168.0695,168.0711,,0,,1,168.0712,168.0712,168.073,169.5691,0,3,3,3,1,0.2,0.8,0.8,0.2,1,0,,,,,,,,,,,,,,,,,,,,,,,,,,,,,,,,,,,,
,,666b0a3508c2f3faa9cd0057,66fc9dbef4f2c861eb39a9de,2024-10-02_04h10.33.824,mdp,2024.2.1,Win32,59.88023952,66fa4ebf79326e780c390304,,,,,,,,,,,,,,,,,,,,,169.5708,169.5708,169.5741,171.1934,1,0,right,1.0908,,171.1966,171.1987,,1,,171.201,171.2027,,0,,1,171.2028,171.2029,171.2048,172.7026,0,4,4,4,1,0.2,0.8,0.8,0.2,1,0,,,,,,,,,,,,,,,,,,,,,,,,,,,,,,,,,,,,
,,666b0a3508c2f3faa9cd0057,66fc9dbef4f2c861eb39a9de,2024-10-02_04h10.33.824,mdp,2024.2.1,Win32,59.88023952,66fa4ebf79326e780c390304,,,,,,,,,,,,,,,,,,,,,172.7043,172.7044,172.7085,175.0541,1,1,right,1.8185,,175.0577,175.0603,,0,,175.0626,175.0646,,0,,0,175.0647,175.0648,175.0666,176.553,0,5,5,5,1,0.6,0.4,0.6,0.4,1,0,,,,,,,,,,,,,,,,,,,,,,,,,,,,,,,,,,,,
,,666b0a3508c2f3faa9cd0057,66fc9dbef4f2c861eb39a9de,2024-10-02_04h10.33.824,mdp,2024.2.1,Win32,59.88023952,66fa4ebf79326e780c390304,,,,,,,,,,,,,,,,,,,,,176.5549,176.555,176.5588,178.1386,0,0,left,1.0518,,178.1415,178.1439,,0,,178.1462,178.1484,,0,,1,178.1485,178.1485,178.1507,179.6444,0,6,6,6,1,0.8,0.2,0.8,0.2,1,0,,,,,,,,,,,,,,,,,,,,,,,,,,,,,,,,,,,,
,,666b0a3508c2f3faa9cd0057,66fc9dbef4f2c861eb39a9de,2024-10-02_04h10.33.824,mdp,2024.2.1,Win32,59.88023952,66fa4ebf79326e780c390304,,,,,,,,,,,,,,,,,,,,,179.6466,179.647,179.6507,181.0777,0,0,left,0.9053,,181.0812,181.083,,0,,181.085,181.0868,,0,,1,181.0868,181.0869,181.0884,182.5867,0,7,7,7,1,0.8,0.2,0.8,0.2,1,0,,,,,,,,,,,,,,,,,,,,,,,,,,,,,,,,,,,,
,,666b0a3508c2f3faa9cd0057,66fc9dbef4f2c861eb39a9de,2024-10-02_04h10.33.824,mdp,2024.2.1,Win32,59.88023952,66fa4ebf79326e780c390304,,,,,,,,,,,,,,,,,,,,,182.5885,182.5886,182.592,184.0126,0,0,left,0.9018,,184.0152,184.0169,,0,,184.0191,184.0209,,0,,1,184.021,184.0211,184.0227,185.5128,0,8,8,8,1,0.8,0.2,0.8,0.2,1,0,,,,,,,,,,,,,,,,,,,,,,,,,,,,,,,,,,,,
,,666b0a3508c2f3faa9cd0057,66fc9dbef4f2c861eb39a9de,2024-10-02_04h10.33.824,mdp,2024.2.1,Win32,59.88023952,66fa4ebf79326e780c390304,,,,,,,,,,,,,,,,,,,,,185.5136,185.5136,185.5164,186.8489,0,0,left,0.811,,186.852,186.8536,,0,,186.8556,186.857,,0,,1,186.8572,186.8572,186.8587,188.3453,0,9,9,9,1,0.8,0.2,0.8,0.2,1,0,,,,,,,,,,,,,,,,,,,,,,,,,,,,,,,,,,,,
,,666b0a3508c2f3faa9cd0057,66fc9dbef4f2c861eb39a9de,2024-10-02_04h10.33.824,mdp,2024.2.1,Win32,59.88023952,66fa4ebf79326e780c390304,,,,,,,,,,,,,,,,,,,,,188.3465,188.3468,188.3491,189.7131,0,0,left,0.8343,,189.7154,189.7174,,0,,189.7195,189.7209,,0,,1,189.7211,189.7211,189.7226,191.214,0,10,10,10,1,0.8,0.2,0.8,0.2,1,0,,,,,,,,,,,,,,,,,,,,,,,,,,,,,,,,,,,,
,,666b0a3508c2f3faa9cd0057,66fc9dbef4f2c861eb39a9de,2024-10-02_04h10.33.824,mdp,2024.2.1,Win32,59.88023952,66fa4ebf79326e780c390304,,,,,,,,,,,,,,,,,,,,,191.2156,191.2156,191.2184,192.5636,0,0,left,0.8181,,192.5662,192.5682,,1,,192.5701,192.572,,0,,1,192.572,192.572,192.5738,194.0632,0,11,11,11,1,0.6,0.4,0.4,0.6,1,0,,,,,,,,,,,,,,,,,,,,,,,,,,,,,,,,,,,,
,,666b0a3508c2f3faa9cd0057,66fc9dbef4f2c861eb39a9de,2024-10-02_04h10.33.824,mdp,2024.2.1,Win32,59.88023952,66fa4ebf79326e780c390304,,,,,,,,,,,,,,,,,,,,,194.064,194.064,194.0662,195.3787,0,0,left,0.7985,,195.3799,195.3807,,0,,195.3816,195.3824,,1,,1,195.3825,195.3825,195.3834,196.8799,0,12,12,12,1,0.6,0.4,0.4,0.6,1,0,,,,,,,,,,,,,,,,,,,,,,,,,,,,,,,,,,,,
,,666b0a3508c2f3faa9cd0057,66fc9dbef4f2c861eb39a9de,2024-10-02_04h10.33.824,mdp,2024.2.1,Win32,59.88023952,66fa4ebf79326e780c390304,,,,,,,,,,,,,,,,,,,,,196.8806,196.8806,196.8827,198.18,0,1,left,0.7724,,198.1826,198.1846,,0,,198.1865,198.1882,,0,,0,198.1883,198.1883,198.1898,199.68,0,13,13,13,1,0.8,0.2,0.6,0.4,1,0,,,,,,,,,,,,,,,,,,,,,,,,,,,,,,,,,,,,
,,666b0a3508c2f3faa9cd0057,66fc9dbef4f2c861eb39a9de,2024-10-02_04h10.33.824,mdp,2024.2.1,Win32,59.88023952,66fa4ebf79326e780c390304,,,,,,,,,,,,,,,,,,,,,199.6807,199.6807,199.6827,202.1452,1,0,right,1.927,,202.1473,202.1482,,0,,202.149,202.1496,,0,,1,202.1496,202.1497,202.1505,203.6455,0,14,14,14,1,0.8,0.2,0.6,0.4,1,0,,,,,,,,,,,,,,,,,,,,,,,,,,,,,,,,,,,,
,,666b0a3508c2f3faa9cd0057,66fc9dbef4f2c861eb39a9de,2024-10-02_04h10.33.824,mdp,2024.2.1,Win32,59.88023952,66fa4ebf79326e780c390304,,,,,,,,,,,,,,,,,,,,,203.647,203.6471,203.6498,205.2724,1,1,right,1.1022,,205.276,205.279,,1,,205.2813,205.2833,,0,,0,205.2835,205.2835,205.2853,206.7783,0,15,15,15,1,0.8,0.2,0.6,0.4,1,0,,,,,,,,,,,,,,,,,,,,,,,,,,,,,,,,,,,,
,,666b0a3508c2f3faa9cd0057,66fc9dbef4f2c861eb39a9de,2024-10-02_04h10.33.824,mdp,2024.2.1,Win32,59.88023952,66fa4ebf79326e780c390304,,,,,,,,,,,,,,,,,,,,,206.7792,206.7792,206.7807,207.9204,0,0,left,0.6142,,207.9239,207.9255,,0,,207.9284,207.9304,,0,,1,207.9304,207.9304,207.9321,209.4296,0,16,16,16,1,0.8,0.2,0.6,0.4,1,0,,,,,,,,,,,,,,,,,,,,,,,,,,,,,,,,,,,,
,,666b0a3508c2f3faa9cd0057,66fc9dbef4f2c861eb39a9de,2024-10-02_04h10.33.824,mdp,2024.2.1,Win32,59.88023952,66fa4ebf79326e780c390304,,,,,,,,,,,,,,,,,,,,,209.4312,209.4312,209.434,210.7126,0,0,left,0.7518,,210.7161,210.7176,,1,,210.7199,210.7215,,0,,1,210.7216,210.7216,210.7232,212.2218,0,17,17,17,1,0.6,0.4,0.4,0.6,1,0,,,,,,,,,,,,,,,,,,,,,,,,,,,,,,,,,,,,
,,666b0a3508c2f3faa9cd0057,66fc9dbef4f2c861eb39a9de,2024-10-02_04h10.33.824,mdp,2024.2.1,Win32,59.88023952,66fa4ebf79326e780c390304,,,,,,,,,,,,,,,,,,,,,212.2247,212.2248,212.2276,213.4122,0,0,left,0.6676,,213.4136,213.4145,,1,,213.4157,213.4165,,0,,1,213.4166,213.4166,213.4175,214.9147,0,18,18,18,1,0.6,0.4,0.4,0.6,1,0,,,,,,,,,,,,,,,,,,,,,,,,,,,,,,,,,,,,
,,666b0a3508c2f3faa9cd0057,66fc9dbef4f2c861eb39a9de,2024-10-02_04h10.33.824,mdp,2024.2.1,Win32,59.88023952,66fa4ebf79326e780c390304,,,,,,,,,,,,,,,,,,,,,214.916,214.916,214.9192,216.3169,0,0,left,0.8774,,216.3193,216.3209,,0,,216.3227,216.324,,1,,1,216.324,216.3242,216.3256,217.8146,0,19,19,19,1,0.8,0.2,0.8,0.2,1,0,,,,,,,,,,,,,,,,,,,,,,,,,,,,,,,,,,,,
,,666b0a3508c2f3faa9cd0057,66fc9dbef4f2c861eb39a9de,2024-10-02_04h10.33.824,mdp,2024.2.1,Win32,59.88023952,66fa4ebf79326e780c390304,,,,,,,,,,,,,,,,,,,,,217.8153,217.8155,217.8178,219.3316,0,0,left,0.9881,,219.3341,219.3359,,0,,219.338,219.3399,,0,,1,219.34,219.34,219.3418,220.8396,0,20,20,20,1,0.8,0.2,0.8,0.2,1,0,,,,,,,,,,,,,,,,,,,,,,,,,,,,,,,,,,,,
,,666b0a3508c2f3faa9cd0057,66fc9dbef4f2c861eb39a9de,2024-10-02_04h10.33.824,mdp,2024.2.1,Win32,59.88023952,66fa4ebf79326e780c390304,,,,,,,,,,,,,,,,,,,,,220.8405,220.8406,220.8432,222.2805,0,0,left,0.9058,,222.2847,222.2866,,0,,222.2886,222.2906,,0,,1,222.2908,222.2908,222.293,223.7891,0,21,21,21,1,0.8,0.2,0.8,0.2,1,0,,,,,,,,,,,,,,,,,,,,,,,,,,,,,,,,,,,,
,,666b0a3508c2f3faa9cd0057,66fc9dbef4f2c861eb39a9de,2024-10-02_04h10.33.824,mdp,2024.2.1,Win32,59.88023952,66fa4ebf79326e780c390304,,,,,,,,,,,,,,,,,,,,,223.7908,223.7909,223.7937,225.4904,0,0,left,1.1691,,225.4931,225.4948,,0,,225.4975,225.4992,,0,,1,225.4994,225.4994,225.5016,226.997,0,22,22,22,1,0.8,0.2,0.8,0.2,1,0,,,,,,,,,,,,,,,,,,,,,,,,,,,,,,,,,,,,
,,666b0a3508c2f3faa9cd0057,66fc9dbef4f2c861eb39a9de,2024-10-02_04h10.33.824,mdp,2024.2.1,Win32,59.88023952,66fa4ebf79326e780c390304,,,,,,,,,,,,,,,,,,,,,226.9988,226.9988,227.002,228.5924,0,0,left,1.0707,,228.5955,228.598,,0,,228.6,228.6019,,1,,1,228.602,228.602,228.6037,230.0975,0,23,23,23,1,0.8,0.2,0.8,0.2,1,0,,,,,,,,,,,,,,,,,,,,,,,,,,,,,,,,,,,,
,,666b0a3508c2f3faa9cd0057,66fc9dbef4f2c861eb39a9de,2024-10-02_04h10.33.824,mdp,2024.2.1,Win32,59.88023952,66fa4ebf79326e780c390304,,,,,,,,,,,,,,,,,,,,,230.0992,230.0993,230.1023,231.5848,0,1,left,0.9596,,231.5876,231.5894,,0,,231.5916,231.5933,,0,,0,231.5934,231.5934,231.5951,233.088,0,24,24,24,1,0.8,0.2,0.8,0.2,1,0,,,,,,,,,,,,,,,,,,,,,,,,,,,,,,,,,,,,
,,666b0a3508c2f3faa9cd0057,66fc9dbef4f2c861eb39a9de,2024-10-02_04h10.33.824,mdp,2024.2.1,Win32,59.88023952,66fa4ebf79326e780c390304,,,,,,,,,,,,,,,,,,,,,233.0897,233.0897,233.0925,234.4744,0,0,left,0.8523,,234.4775,234.4798,,0,,234.4818,234.4834,,0,,1,234.4835,234.4835,234.4854,235.9727,0,25,25,25,1,0.8,0.2,0.8,0.2,1,0,,,,,,,,,,,,,,,,,,,,,,,,,,,,,,,,,,,,
,,666b0a3508c2f3faa9cd0057,66fc9dbef4f2c861eb39a9de,2024-10-02_04h10.33.824,mdp,2024.2.1,Win32,59.88023952,66fa4ebf79326e780c390304,,,,,,,,,,,,,,,,,,,,,235.9746,235.9746,235.9775,237.5076,0,1,left,1.0018,,237.5107,237.5139,,0,,237.5159,237.5186,,0,,0,237.5188,237.5189,237.5207,239.0239,0,26,26,26,1,0.8,0.2,0.8,0.2,1,0,,,,,,,,,,,,,,,,,,,,,,,,,,,,,,,,,,,,
,,666b0a3508c2f3faa9cd0057,66fc9dbef4f2c861eb39a9de,2024-10-02_04h10.33.824,mdp,2024.2.1,Win32,59.88023952,66fa4ebf79326e780c390304,,,,,,,,,,,,,,,,,,,,,239.0256,239.0257,239.0286,240.5244,0,0,left,0.9682,,240.5285,240.5309,,0,,240.5328,240.5345,,0,,1,240.5347,240.5347,240.5365,242.0312,0,27,27,27,1,0.8,0.2,0.8,0.2,1,0,,,,,,,,,,,,,,,,,,,,,,,,,,,,,,,,,,,,
,,666b0a3508c2f3faa9cd0057,66fc9dbef4f2c861eb39a9de,2024-10-02_04h10.33.824,mdp,2024.2.1,Win32,59.88023952,66fa4ebf79326e780c390304,,,,,,,,,,,,,,,,,,,,,242.0333,242.0333,242.0363,243.1314,0,0,left,0.5679,,243.1347,243.1361,,0,,243.1376,243.1392,,0,,1,243.1393,243.1394,243.1412,244.6313,0,28,28,28,1,0.8,0.2,0.8,0.2,1,0,,,,,,,,,,,,,,,,,,,,,,,,,,,,,,,,,,,,
,,666b0a3508c2f3faa9cd0057,66fc9dbef4f2c861eb39a9de,2024-10-02_04h10.33.824,mdp,2024.2.1,Win32,59.88023952,66fa4ebf79326e780c390304,,,,,,,,,,,,,,,,,,,,,244.6334,244.6334,244.6364,245.7652,1,0,right,0.6019,,245.7689,245.7706,,0,,245.7728,245.7745,,0,,1,245.7746,245.7747,245.7766,247.2732,0,29,29,29,1,0.8,0.2,0.8,0.2,1,0,,,,,,,,,,,,,,,,,,,,,,,,,,,,,,,,,,,,
,,666b0a3508c2f3faa9cd0057,66fc9dbef4f2c861eb39a9de,2024-10-02_04h10.33.824,mdp,2024.2.1,Win32,59.88023952,66fa4ebf79326e780c390304,,,,,,,,,,,,,,,,,,,,,247.275,247.2751,247.2778,248.6251,0,0,left,0.8189,,248.6283,248.6309,,0,,248.6331,248.6352,,0,,1,248.6354,248.6354,248.6371,250.1317,0,30,30,30,1,0.8,0.2,0.8,0.2,1,0,,,,,,,,,,,,,,,,,,,,,,,,,,,,,,,,,,,,
,,666b0a3508c2f3faa9cd0057,66fc9dbef4f2c861eb39a9de,2024-10-02_04h10.33.824,mdp,2024.2.1,Win32,59.88023952,66fa4ebf79326e780c390304,,,,,,,,,,,,,,,,,,,,,250.1337,250.1337,250.137,251.259,0,0,left,0.6026,,251.2622,251.2645,,1,,251.2666,251.2686,,1,,1,251.2687,251.2687,251.2704,252.7651,0,31,31,31,1,0.6,0.4,0.6,0.4,1,0,,,,,,,,,,,,,,,,,,,,,,,,,,,,,,,,,,,,
,,666b0a3508c2f3faa9cd0057,66fc9dbef4f2c861eb39a9de,2024-10-02_04h10.33.824,mdp,2024.2.1,Win32,59.88023952,66fa4ebf79326e780c390304,,,,,,,,,,,,,,,,,,,,,252.767,252.767,252.7701,253.7985,1,1,right,0.5011,,253.8022,253.8039,,0,,253.8058,253.8074,,0,,0,253.8075,253.8076,253.8093,255.3062,0,32,32,32,1,0.6,0.4,0.6,0.4,1,0,,,,,,,,,,,,,,,,,,,,,,,,,,,,,,,,,,,,
,,666b0a3508c2f3faa9cd0057,66fc9dbef4f2c861eb39a9de,2024-10-02_04h10.33.824,mdp,2024.2.1,Win32,59.88023952,66fa4ebf79326e780c390304,,,,,,,,,,,,,,,,,,,,,255.308,255.3081,255.3111,256.3092,0,0,left,0.4685,,256.3125,256.3152,,0,,256.3172,256.3189,,0,,1,256.319,256.3191,256.3207,257.8157,0,33,33,33,1,0.6,0.4,0.6,0.4,1,0,,,,,,,,,,,,,,,,,,,,,,,,,,,,,,,,,,,,
,,666b0a3508c2f3faa9cd0057,66fc9dbef4f2c861eb39a9de,2024-10-02_04h10.33.824,mdp,2024.2.1,Win32,59.88023952,66fa4ebf79326e780c390304,,,,,,,,,,,,,,,,,,,,,257.8179,257.8179,257.8205,258.9152,0,0,left,0.5678,,258.9202,258.9229,,0,,258.9255,258.9271,,1,,1,258.9273,258.9273,258.9297,260.4249,0,34,34,34,1,0.6,0.4,0.6,0.4,1,0,,,,,,,,,,,,,,,,,,,,,,,,,,,,,,,,,,,,
,,666b0a3508c2f3faa9cd0057,66fc9dbef4f2c861eb39a9de,2024-10-02_04h10.33.824,mdp,2024.2.1,Win32,59.88023952,66fa4ebf79326e780c390304,,,,,,,,,,,,,,,,,,,,,260.4267,260.4267,260.4294,261.6572,0,0,left,0.7003,,261.6611,261.663,,1,,261.6656,261.6675,,0,,1,261.6675,261.6675,261.671,263.1659,0,35,35,35,1,0.6,0.4,0.6,0.4,1,0,,,,,,,,,,,,,,,,,,,,,,,,,,,,,,,,,,,,
,,666b0a3508c2f3faa9cd0057,66fc9dbef4f2c861eb39a9de,2024-10-02_04h10.33.824,mdp,2024.2.1,Win32,59.88023952,66fa4ebf79326e780c390304,,,,,,,,,,,,,,,,,,,,,263.1678,263.1679,263.1701,264.0492,0,1,left,0.3528,,264.0523,264.0539,,1,,264.0556,264.0572,,0,,0,264.0573,264.0573,264.0589,265.5492,0,36,36,36,1,0.6,0.4,0.6,0.4,1,0,,,,,,,,,,,,,,,,,,,,,,,,,,,,,,,,,,,,
,,666b0a3508c2f3faa9cd0057,66fc9dbef4f2c861eb39a9de,2024-10-02_04h10.33.824,mdp,2024.2.1,Win32,59.88023952,66fa4ebf79326e780c390304,,,,,,,,,,,,,,,,,,,,,265.5509,265.551,265.5542,266.2818,0,0,left,0.2006,,266.2836,266.2845,,0,,266.2857,266.2867,,0,,1,266.2867,266.2868,266.2884,267.7913,0,37,37,37,1,0.8,0.2,0.8,0.2,1,0,,,,,,,,,,,,,,,,,,,,,,,,,,,,,,,,,,,,
,,666b0a3508c2f3faa9cd0057,66fc9dbef4f2c861eb39a9de,2024-10-02_04h10.33.824,mdp,2024.2.1,Win32,59.88023952,66fa4ebf79326e780c390304,,,,,,,,,,,,,,,,,,,,,267.7933,267.7933,267.7962,268.6929,0,1,left,0.3701,,268.6965,268.6991,,0,,268.7011,268.7029,,0,,0,268.703,268.703,268.7056,270.1998,0,38,38,38,1,0.8,0.2,0.8,0.2,1,0,,,,,,,,,,,,,,,,,,,,,,,,,,,,,,,,,,,,
,,666b0a3508c2f3faa9cd0057,66fc9dbef4f2c861eb39a9de,2024-10-02_04h10.33.824,mdp,2024.2.1,Win32,59.88023952,66fa4ebf79326e780c390304,,,,,,,,,,,,,,,,,,,,,270.2024,270.2025,270.2051,271.0995,0,0,left,0.3672,,271.1055,271.1087,,0,,271.111,271.1127,,0,,1,271.1128,271.1128,271.1154,272.6081,0,39,39,39,1,0.8,0.2,0.8,0.2,1,0,,,,,,,,,,,,,,,,,,,,,,,,,,,,,,,,,,,,
,,666b0a3508c2f3faa9cd0057,66fc9dbef4f2c861eb39a9de,2024-10-02_04h10.33.824,mdp,2024.2.1,Win32,59.88023952,66fa4ebf79326e780c390304,,,,,,,,,,,,,,,,,,,,,272.6098,272.6098,272.6126,273.5755,1,0,right,0.4349,,273.5792,273.5809,,0,,273.5836,273.5852,,0,,1,273.5853,273.5853,273.5879,275.075,0,40,40,40,1,0.8,0.2,0.8,0.2,1,0,,,,,,,,,,,,,,,,,,,,,,,,,,,,,,,,,,,,
,,666b0a3508c2f3faa9cd0057,66fc9dbef4f2c861eb39a9de,2024-10-02_04h10.33.824,mdp,2024.2.1,Win32,59.88023952,66fa4ebf79326e780c390304,,,,,,,,,,,,,,,,,,,,,275.0759,275.0759,275.0772,276.0073,0,0,left,0.3987,,276.0103,276.012,,1,,276.0139,276.0161,,0,,1,276.0161,276.0162,276.018,277.5164,0,41,41,41,1,0.8,0.2,0.8,0.2,1,0,,,,,,,,,,,,,,,,,,,,,,,,,,,,,,,,,,,,
,,666b0a3508c2f3faa9cd0057,66fc9dbef4f2c861eb39a9de,2024-10-02_04h10.33.824,mdp,2024.2.1,Win32,59.88023952,66fa4ebf79326e780c390304,,,,,,,,,,,,,,,,,,,,,277.5178,277.5179,277.5206,278.3164,0,0,left,0.269,,278.3197,278.3212,,0,,278.3227,278.3245,,0,,1,278.3246,278.3246,278.326,279.8171,0,42,42,42,1,0.8,0.2,0.8,0.2,1,0,,,,,,,,,,,,,,,,,,,,,,,,,,,,,,,,,,,,
,,666b0a3508c2f3faa9cd0057,66fc9dbef4f2c861eb39a9de,2024-10-02_04h10.33.824,mdp,2024.2.1,Win32,59.88023952,66fa4ebf79326e780c390304,,,,,,,,,,,,,,,,,,,,,279.8191,279.8191,279.8214,280.5333,1,0,right,0.1849,,280.5371,280.5386,,0,,280.5404,280.5421,,0,,1,280.5423,280.5423,280.5438,282.0331,0,43,43,43,1,0.8,0.2,0.8,0.2,1,0,,,,,,,,,,,,,,,,,,,,,,,,,,,,,,,,,,,,
,,666b0a3508c2f3faa9cd0057,66fc9dbef4f2c861eb39a9de,2024-10-02_04h10.33.824,mdp,2024.2.1,Win32,59.88023952,66fa4ebf79326e780c390304,,,,,,,,,,,,,,,,,,,,,282.0349,282.0349,282.0376,282.5592,0,0,left,0.0014,,282.5634,282.5661,,0,,282.5682,282.5702,,0,,1,282.5703,282.5703,282.5721,284.0669,0,44,44,44,1,0.6,0.4,0.2,0.8,1,0,,,,,,,,,,,,,,,,,,,,,,,,,,,,,,,,,,,,
,,666b0a3508c2f3faa9cd0057,66fc9dbef4f2c861eb39a9de,2024-10-02_04h10.33.824,mdp,2024.2.1,Win32,59.88023952,66fa4ebf79326e780c390304,,,,,,,,,,,,,,,,,,,,,284.0688,284.0689,284.0718,284.6679,0,1,left,0.0727,,284.6714,284.673,,0,,284.6753,284.6768,,0,,0,284.6769,284.677,284.6785,286.1749,0,45,45,45,1,0.6,0.4,0.2,0.8,1,0,,,,,,,,,,,,,,,,,,,,,,,,,,,,,,,,,,,,
,,666b0a3508c2f3faa9cd0057,66fc9dbef4f2c861eb39a9de,2024-10-02_04h10.33.824,mdp,2024.2.1,Win32,59.88023952,66fa4ebf79326e780c390304,,,,,,,,,,,,,,,,,,,,,286.177,286.177,286.1798,287.2932,1,0,right,0.5848,,287.2967,287.2993,,1,,287.3015,287.3029,,1,,1,287.303,287.3031,287.3048,288.8004,0,46,46,46,1,0.6,0.4,0.2,0.8,1,0,,,,,,,,,,,,,,,,,,,,,,,,,,,,,,,,,,,,
,,666b0a3508c2f3faa9cd0057,66fc9dbef4f2c861eb39a9de,2024-10-02_04h10.33.824,mdp,2024.2.1,Win32,59.88023952,66fa4ebf79326e780c390304,,,,,,,,,,,,,,,,,,,,,288.8021,288.8022,288.8052,289.6881,1,1,right,0.3589,,289.6907,289.6923,,1,,289.6942,289.6957,,0,,0,289.6959,289.6959,289.6975,291.1926,0,47,47,47,1,0.6,0.4,0.2,0.8,1,0,,,,,,,,,,,,,,,,,,,,,,,,,,,,,,,,,,,,
,,666b0a3508c2f3faa9cd0057,66fc9dbef4f2c861eb39a9de,2024-10-02_04h10.33.824,mdp,2024.2.1,Win32,59.88023952,66fa4ebf79326e780c390304,,,,,,,,,,,,,,,,,,,,,291.1945,291.1945,291.1975,292.0176,0,0,left,0.3005,,292.0218,292.0234,,0,,292.0254,292.027,,1,,1,292.0271,292.0271,292.0287,293.5261,0,48,48,48,1,0.6,0.4,0.2,0.8,1,0,,,,,,,,,,,,,,,,,,,,,,,,,,,,,,,,,,,,
,,666b0a3508c2f3faa9cd0057,66fc9dbef4f2c861eb39a9de,2024-10-02_04h10.33.824,mdp,2024.2.1,Win32,59.88023952,66fa4ebf79326e780c390304,,,,,,,,,,,,,,,,,,,,,293.528,293.528,293.5308,294.7747,0,1,left,0.7158,,294.7779,294.7795,,0,,294.7814,294.7837,,1,,0,294.7838,294.7838,294.7855,296.2847,0,49,49,49,1,0.6,0.4,0.2,0.8,1,0,,,,,,,,,,,,,,,,,,,,,,,,,,,,,,,,,,,,
,,666b0a3508c2f3faa9cd0057,66fc9dbef4f2c861eb39a9de,2024-10-02_04h10.33.824,mdp,2024.2.1,Win32,59.88023952,66fa4ebf79326e780c390304,,,,,,,,,,,,,,,,,,,,,,,,,,,,,,,,,,,,,,,,,,,,,,,,,,,,,,,,296.2859,354.7889,0,0,0,1,1,imgs/dog.png,imgs/goat.png,imgs/elephant.png,imgs/rabbit.png,imgs/kangaroo.png,,,,,,,,,,,,,,,,,,,,,,,,
,,666b0a3508c2f3faa9cd0057,66fc9dbef4f2c861eb39a9de,2024-10-02_04h10.33.824,mdp,2024.2.1,Win32,59.88023952,66fa4ebf79326e780c390304,,,,,,,,,,,,,,2,seqs/st2seq19.csv,354.7913,358.1396,space,2.8216,,358.1572,358.1573,358.1605,360.9148,0,0,left,2.2129,,360.918,362.5547,1,1,right,362.5588,362.5609,,0,,0,362.561,362.561,362.5638,364.0643,0,0,0,0,1,0.8,0.2,0.2,0.8,,,,,,,,,,,,,,,1.0942,,0.2,0.8,0.4,0.6,0.4,0.6,0.8,0.2,1,0,,,,,,,,,,,,
,,666b0a3508c2f3faa9cd0057,66fc9dbef4f2c861eb39a9de,2024-10-02_04h10.33.824,mdp,2024.2.1,Win32,59.88023952,66fa4ebf79326e780c390304,,,,,,,,,,,,,,,,,,,,,364.0663,364.0663,364.0689,365.1984,0,0,left,0.6103,,365.2016,367.5322,0,1,left,367.536,367.5387,,0,,0,367.5389,367.5389,367.5407,369.0383,0,1,1,1,1,0.8,0.2,0.2,0.8,,,,,,,,,,,,,,,1.8025,,0.6,0.4,0.8,0.2,0.4,0.6,0.8,0.2,1,0,,,,,,,,,,,,
,,666b0a3508c2f3faa9cd0057,66fc9dbef4f2c861eb39a9de,2024-10-02_04h10.33.824,mdp,2024.2.1,Win32,59.88023952,66fa4ebf79326e780c390304,,,,,,,,,,,,,,,,,,,,,369.0396,369.0396,369.0431,371.139,1,1,right,1.568,,371.1426,372.8646,0,1,left,372.8688,372.8713,,0,,0,372.8714,372.8715,372.8735,374.3736,0,2,2,2,1,0.8,0.2,0.2,0.8,,,,,,,,,,,,,,,1.1818,,0.6,0.4,0.8,0.2,0.4,0.6,0.8,0.2,1,0,,,,,,,,,,,,
,,666b0a3508c2f3faa9cd0057,66fc9dbef4f2c861eb39a9de,2024-10-02_04h10.33.824,mdp,2024.2.1,Win32,59.88023952,66fa4ebf79326e780c390304,,,,,,,,,,,,,,,,,,,,,374.3744,374.3745,374.3768,376.3075,1,1,right,1.4068,,376.3099,377.5737,1,1,right,377.5762,377.5778,,1,,0,377.578,377.578,377.5801,379.0739,0,3,3,3,1,0.8,0.2,0.2,0.8,,,,,,,,,,,,,,,0.736,,0.6,0.4,0.8,0.2,0.4,0.6,0.8,0.2,1,0,,,,,,,,,,,,
,,666b0a3508c2f3faa9cd0057,66fc9dbef4f2c861eb39a9de,2024-10-02_04h10.33.824,mdp,2024.2.1,Win32,59.88023952,66fa4ebf79326e780c390304,,,,,,,,,,,,,,,,,,,,,379.0747,379.0748,379.0774,382.2251,1,1,right,2.6261,,382.2285,383.4742,1,0,right,383.4767,383.4783,,0,,1,383.4785,383.4785,383.4804,384.9739,0,4,4,4,1,0.8,0.2,0.2,0.8,,,,,,,,,,,,,,,0.7181,,0.6,0.4,0.8,0.2,0.4,0.6,0.8,0.2,1,0,,,,,,,,,,,,
,,666b0a3508c2f3faa9cd0057,66fc9dbef4f2c861eb39a9de,2024-10-02_04h10.33.824,mdp,2024.2.1,Win32,59.88023952,66fa4ebf79326e780c390304,,,,,,,,,,,,,,,,,,,,,384.975,384.975,384.9783,386.1723,1,1,right,0.6671,,386.1735,387.4399,1,0,right,387.4428,387.4443,,1,,1,387.4445,387.4445,387.4465,388.9411,0,5,5,5,1,0.8,0.2,0.2,0.8,,,,,,,,,,,,,,,0.7549,,0.6,0.4,0.8,0.2,0.4,0.6,0.8,0.2,1,0,,,,,,,,,,,,
,,666b0a3508c2f3faa9cd0057,66fc9dbef4f2c861eb39a9de,2024-10-02_04h10.33.824,mdp,2024.2.1,Win32,59.88023952,66fa4ebf79326e780c390304,,,,,,,,,,,,,,,,,,,,,388.9419,388.942,388.9444,389.9098,1,0,right,0.4442,,389.9118,391.4909,0,1,left,391.493,391.4943,,1,,0,391.4944,391.4944,391.4963,392.9905,0,6,6,6,1,0.4,0.6,0.6,0.4,,,,,,,,,,,,,,,1.0436,,0.6,0.4,0.8,0.2,0.4,0.6,0.8,0.2,1,0,,,,,,,,,,,,
,,666b0a3508c2f3faa9cd0057,66fc9dbef4f2c861eb39a9de,2024-10-02_04h10.33.824,mdp,2024.2.1,Win32,59.88023952,66fa4ebf79326e780c390304,,,,,,,,,,,,,,,,,,,,,392.9918,392.9918,392.9945,393.5414,1,0,right,0.0181,,393.5439,394.7399,1,0,right,394.7411,394.7418,,1,,1,394.7419,394.7419,394.7427,396.2415,0,7,7,7,1,0.4,0.6,0.6,0.4,,,,,,,,,,,,,,,0.6725,,0.6,0.4,0.8,0.2,0.4,0.6,0.8,0.2,1,0,,,,,,,,,,,,
,,666b0a3508c2f3faa9cd0057,66fc9dbef4f2c861eb39a9de,2024-10-02_04h10.33.824,mdp,2024.2.1,Win32,59.88023952,66fa4ebf79326e780c390304,,,,,,,,,,,,,,,,,,,,,396.2424,396.2424,396.245,397.16,1,0,right,0.3938,,397.1625,398.2416,1,0,right,398.244,398.2456,,0,,1,398.2458,398.2458,398.2479,399.7413,0,8,8,8,1,0.4,0.6,0.6,0.4,,,,,,,,,,,,,,,0.5516,,0.6,0.4,0.8,0.2,0.6,0.4,0.6,0.4,1,0,,,,,,,,,,,,
,,666b0a3508c2f3faa9cd0057,66fc9dbef4f2c861eb39a9de,2024-10-02_04h10.33.824,mdp,2024.2.1,Win32,59.88023952,66fa4ebf79326e780c390304,,,,,,,,,,,,,,,,,,,,,399.7426,399.7426,399.745,400.7921,1,0,right,0.524,,400.7946,401.8918,1,0,right,401.8943,401.8959,,0,,1,401.8961,401.8961,401.8982,403.3919,0,9,9,9,1,0.4,0.6,0.6,0.4,,,,,,,,,,,,,,,0.5681,,0.6,0.4,0.8,0.2,0.6,0.4,0.6,0.4,1,0,,,,,,,,,,,,
,,666b0a3508c2f3faa9cd0057,66fc9dbef4f2c861eb39a9de,2024-10-02_04h10.33.824,mdp,2024.2.1,Win32,59.88023952,66fa4ebf79326e780c390304,,,,,,,,,,,,,,,,,,,,,403.3928,403.3928,403.3952,404.328,1,0,right,0.4106,,404.3304,405.4255,1,0,right,405.4283,405.4304,,0,,1,405.4305,405.4305,405.4325,406.9254,0,10,10,10,1,0.4,0.6,0.6,0.4,,,,,,,,,,,,,,,0.574,,0.6,0.4,0.8,0.2,0.6,0.4,0.6,0.4,1,0,,,,,,,,,,,,
,,666b0a3508c2f3faa9cd0057,66fc9dbef4f2c861eb39a9de,2024-10-02_04h10.33.824,mdp,2024.2.1,Win32,59.88023952,66fa4ebf79326e780c390304,,,,,,,,,,,,,,,,,,,,,406.9263,406.9263,406.9288,407.8921,1,0,right,0.4348,,407.8946,408.9923,1,0,right,408.9947,408.9963,,0,,1,408.9965,408.9966,408.9984,410.4924,0,11,11,11,1,0.4,0.6,0.6,0.4,,,,,,,,,,,,,,,0.5679,,0.6,0.4,0.8,0.2,0.4,0.6,0.8,0.2,1,0,,,,,,,,,,,,
,,666b0a3508c2f3faa9cd0057,66fc9dbef4f2c861eb39a9de,2024-10-02_04h10.33.824,mdp,2024.2.1,Win32,59.88023952,66fa4ebf79326e780c390304,,,,,,,,,,,,,,,,,,,,,410.4933,410.4934,410.4958,411.2931,1,1,right,0.2757,,411.2958,413.9436,0,1,left,413.9462,413.9487,,1,,0,413.9488,413.9488,413.951,415.4426,0,12,12,12,1,0.4,0.6,0.6,0.4,,,,,,,,,,,,,,,2.1167,,0.6,0.4,0.8,0.2,0.4,0.6,0.8,0.2,1,0,,,,,,,,,,,,
,,666b0a3508c2f3faa9cd0057,66fc9dbef4f2c861eb39a9de,2024-10-02_04h10.33.824,mdp,2024.2.1,Win32,59.88023952,66fa4ebf79326e780c390304,,,,,,,,,,,,,,,,,,,,,415.4435,415.4435,415.4459,416.1092,1,1,right,0.1359,,416.1117,417.2093,1,0,right,417.2118,417.2138,,0,,1,417.2139,417.2141,417.2163,418.7094,0,13,13,13,1,0.4,0.6,0.6,0.4,,,,,,,,,,,,,,,0.5681,,0.6,0.4,0.8,0.2,0.4,0.6,0.8,0.2,1,0,,,,,,,,,,,,
,,666b0a3508c2f3faa9cd0057,66fc9dbef4f2c861eb39a9de,2024-10-02_04h10.33.824,mdp,2024.2.1,Win32,59.88023952,66fa4ebf79326e780c390304,,,,,,,,,,,,,,,,,,,,,418.7103,418.7104,418.7128,420.2788,1,0,right,1.0443,,420.2829,421.4426,1,0,right,421.4449,421.4465,,0,,1,421.447,421.447,421.4488,422.9419,0,14,14,14,1,0.4,0.6,0.6,0.4,,,,,,,,,,,,,,,0.6262,,0.6,0.4,0.8,0.2,0.4,0.6,0.8,0.2,1,0,,,,,,,,,,,,
,,666b0a3508c2f3faa9cd0057,66fc9dbef4f2c861eb39a9de,2024-10-02_04h10.33.824,mdp,2024.2.1,Win32,59.88023952,66fa4ebf79326e780c390304,,,,,,,,,,,,,,,,,,,,,422.9435,422.9436,422.9459,423.7585,1,1,right,0.285,,423.7619,424.845,1,0,right,424.8472,424.8491,,0,,1,424.8493,424.8493,424.851,426.3429,0,15,15,15,1,0.4,0.6,0.6,0.4,,,,,,,,,,,,,,,0.5696,,0.6,0.4,0.8,0.2,0.4,0.6,0.8,0.2,1,0,,,,,,,,,,,,
,,666b0a3508c2f3faa9cd0057,66fc9dbef4f2c861eb39a9de,2024-10-02_04h10.33.824,mdp,2024.2.1,Win32,59.88023952,66fa4ebf79326e780c390304,,,,,,,,,,,,,,,,,,,,,426.3438,426.3438,426.3461,427.2098,1,0,right,0.3347,,427.2121,428.2767,1,0,right,428.279,428.2804,,0,,1,428.2806,428.2806,428.2822,429.7765,0,16,16,16,1,0.4,0.6,0.6,0.4,,,,,,,,,,,,,,,0.5292,,0.6,0.4,0.8,0.2,0.4,0.6,0.8,0.2,1,0,,,,,,,,,,,,
,,666b0a3508c2f3faa9cd0057,66fc9dbef4f2c861eb39a9de,2024-10-02_04h10.33.824,mdp,2024.2.1,Win32,59.88023952,66fa4ebf79326e780c390304,,,,,,,,,,,,,,,,,,,,,429.7774,429.7774,429.7796,430.8433,1,1,right,0.5347,,430.8457,431.963,1,0,right,431.9659,431.9675,,0,,1,431.9676,431.9676,431.9696,433.4602,0,17,17,17,1,0.4,0.6,0.6,0.4,,,,,,,,,,,,,,,0.5856,,0.6,0.4,0.8,0.2,0.4,0.6,0.8,0.2,1,0,,,,,,,,,,,,
,,666b0a3508c2f3faa9cd0057,66fc9dbef4f2c861eb39a9de,2024-10-02_04h10.33.824,mdp,2024.2.1,Win32,59.88023952,66fa4ebf79326e780c390304,,,,,,,,,,,,,,,,,,,,,433.461,433.461,433.4635,434.4276,1,1,right,0.4355,,434.4306,435.6605,1,0,right,435.6629,435.6646,,0,,1,435.6647,435.6648,435.6667,437.1604,0,18,18,18,1,0.4,0.6,0.6,0.4,,,,,,,,,,,,,,,0.7039,,0.6,0.4,0.8,0.2,0.4,0.6,0.8,0.2,1,0,,,,,,,,,,,,
,,666b0a3508c2f3faa9cd0057,66fc9dbef4f2c861eb39a9de,2024-10-02_04h10.33.824,mdp,2024.2.1,Win32,59.88023952,66fa4ebf79326e780c390304,,,,,,,,,,,,,,,,,,,,,437.1619,437.1619,437.165,437.9618,1,1,right,0.2763,,437.9648,439.0097,1,0,right,439.0121,439.0137,,1,,1,439.0141,439.0141,439.0163,440.5101,0,19,19,19,1,0.4,0.6,0.6,0.4,,,,,,,,,,,,,,,0.5219,,0.6,0.4,0.8,0.2,0.4,0.6,0.8,0.2,1,0,,,,,,,,,,,,
,,666b0a3508c2f3faa9cd0057,66fc9dbef4f2c861eb39a9de,2024-10-02_04h10.33.824,mdp,2024.2.1,Win32,59.88023952,66fa4ebf79326e780c390304,,,,,,,,,,,,,,,,,,,,,440.5107,440.5107,440.5127,441.044,1,1,right,0.0014,,441.0466,442.2263,1,1,right,442.2292,442.2307,,0,,0,442.2308,442.2308,442.2333,443.7272,0,20,20,20,1,0.4,0.6,0.6,0.4,,,,,,,,,,,,,,,0.6537,,0.6,0.4,0.8,0.2,0.2,0.8,0.4,0.6,1,0,,,,,,,,,,,,
,,666b0a3508c2f3faa9cd0057,66fc9dbef4f2c861eb39a9de,2024-10-02_04h10.33.824,mdp,2024.2.1,Win32,59.88023952,66fa4ebf79326e780c390304,,,,,,,,,,,,,,,,,,,,,443.7281,443.7281,443.7303,445.094,1,0,right,0.8356,,445.0963,446.2431,1,1,right,446.2453,446.2467,,1,,0,446.2468,446.2468,446.2485,447.7444,0,21,21,21,1,0.4,0.6,0.6,0.4,,,,,,,,,,,,,,,0.61,,0.6,0.4,0.8,0.2,0.2,0.8,0.4,0.6,1,0,,,,,,,,,,,,
,,666b0a3508c2f3faa9cd0057,66fc9dbef4f2c861eb39a9de,2024-10-02_04h10.33.824,mdp,2024.2.1,Win32,59.88023952,66fa4ebf79326e780c390304,,,,,,,,,,,,,,,,,,,,,447.7454,447.7454,447.748,449.2107,1,1,right,0.9341,,449.2129,450.3613,1,0,right,450.3641,450.3662,,0,,1,450.3663,450.3663,450.3684,451.861,0,22,22,22,1,0.8,0.2,0.2,0.8,,,,,,,,,,,,,,,0.6281,,0.6,0.4,0.8,0.2,0.2,0.8,0.4,0.6,1,0,,,,,,,,,,,,
,,666b0a3508c2f3faa9cd0057,66fc9dbef4f2c861eb39a9de,2024-10-02_04h10.33.824,mdp,2024.2.1,Win32,59.88023952,66fa4ebf79326e780c390304,,,,,,,,,,,,,,,,,,,,,451.862,451.862,451.8643,452.8947,1,1,right,0.5013,,452.8971,454.0946,1,1,right,454.097,454.0985,,1,,0,454.0986,454.0987,454.1004,455.5947,0,23,23,23,1,0.8,0.2,0.2,0.8,,,,,,,,,,,,,,,0.669,,0.6,0.4,0.8,0.2,0.2,0.8,0.4,0.6,1,0,,,,,,,,,,,,
,,666b0a3508c2f3faa9cd0057,66fc9dbef4f2c861eb39a9de,2024-10-02_04h10.33.824,mdp,2024.2.1,Win32,59.88023952,66fa4ebf79326e780c390304,,,,,,,,,,,,,,,,,,,,,455.5952,455.5952,455.5963,456.4636,1,1,right,0.3446,,456.466,457.6783,1,0,right,457.6808,457.6823,,0,,1,457.6825,457.6825,457.6857,459.1783,0,24,24,24,1,0.8,0.2,0.2,0.8,,,,,,,,,,,,,,,0.6865,,0.6,0.4,0.8,0.2,0.4,0.6,0.6,0.4,1,0,,,,,,,,,,,,
,,666b0a3508c2f3faa9cd0057,66fc9dbef4f2c861eb39a9de,2024-10-02_04h10.33.824,mdp,2024.2.1,Win32,59.88023952,66fa4ebf79326e780c390304,,,,,,,,,,,,,,,,,,,,,459.179,459.179,459.1811,460.295,1,1,right,0.5852,,460.2972,461.4137,1,0,right,461.4158,461.418,,0,,1,461.4181,461.4181,461.4199,462.9114,0,25,25,25,1,0.8,0.2,0.2,0.8,,,,,,,,,,,,,,,0.594,,0.6,0.4,0.8,0.2,0.4,0.6,0.6,0.4,1,0,,,,,,,,,,,,
,,666b0a3508c2f3faa9cd0057,66fc9dbef4f2c861eb39a9de,2024-10-02_04h10.33.824,mdp,2024.2.1,Win32,59.88023952,66fa4ebf79326e780c390304,,,,,,,,,,,,,,,,,,,,,462.9121,462.9121,462.9142,463.7326,1,1,right,0.2958,,463.7356,464.7616,1,1,right,464.7644,464.7665,,1,,0,464.7667,464.7667,464.7689,466.262,0,26,26,26,1,0.8,0.2,0.2,0.8,,,,,,,,,,,,,,,0.505,,0.6,0.4,0.8,0.2,0.6,0.4,0.2,0.8,1,0,,,,,,,,,,,,
,,666b0a3508c2f3faa9cd0057,66fc9dbef4f2c861eb39a9de,2024-10-02_04h10.33.824,mdp,2024.2.1,Win32,59.88023952,66fa4ebf79326e780c390304,,,,,,,,,,,,,,,,,,,,,466.2628,466.2629,466.2653,467.2448,1,1,right,0.4525,,467.2478,468.6622,1,1,right,468.6648,468.6664,,1,,0,468.6665,468.6665,468.6685,470.1622,0,27,27,27,1,0.8,0.2,0.2,0.8,,,,,,,,,,,,,,,0.9006,,0.6,0.4,0.8,0.2,0.6,0.4,0.2,0.8,1,0,,,,,,,,,,,,
,,666b0a3508c2f3faa9cd0057,66fc9dbef4f2c861eb39a9de,2024-10-02_04h10.33.824,mdp,2024.2.1,Win32,59.88023952,66fa4ebf79326e780c390304,,,,,,,,,,,,,,,,,,,,,470.1636,470.1637,470.1662,470.8321,0,0,left,0.1446,,470.8347,471.8787,0,0,left,471.8812,471.8835,,0,,1,471.8836,471.8836,471.8858,473.3788,0,28,28,28,1,0.8,0.2,0.2,0.8,,,,,,,,,,,,,,,0.5106,,0.6,0.4,0.8,0.2,0.6,0.4,0.2,0.8,1,0,,,,,,,,,,,,
,,666b0a3508c2f3faa9cd0057,66fc9dbef4f2c861eb39a9de,2024-10-02_04h10.33.824,mdp,2024.2.1,Win32,59.88023952,66fa4ebf79326e780c390304,,,,,,,,,,,,,,,,,,,,,473.3796,473.3796,473.3818,473.9296,0,1,left,0.0188,,473.9319,475.0439,0,0,left,475.0452,475.0459,,1,,1,475.046,475.046,475.0467,476.5453,0,29,29,29,1,0.4,0.6,0.6,0.4,,,,,,,,,,,,,,,0.5806,,0.6,0.4,0.8,0.2,0.6,0.4,0.2,0.8,1,0,,,,,,,,,,,,
,,666b0a3508c2f3faa9cd0057,66fc9dbef4f2c861eb39a9de,2024-10-02_04h10.33.824,mdp,2024.2.1,Win32,59.88023952,66fa4ebf79326e780c390304,,,,,,,,,,,,,,,,,,,,,476.5456,476.5456,476.547,477.1964,0,0,left,0.1399,,477.1977,478.6788,0,1,left,478.6807,478.682,,0,,0,478.6821,478.6821,478.6837,480.1794,0,30,30,30,1,0.4,0.6,0.6,0.4,,,,,,,,,,,,,,,0.9468,,0.6,0.4,0.8,0.2,0.6,0.4,0.2,0.8,1,0,,,,,,,,,,,,
,,666b0a3508c2f3faa9cd0057,66fc9dbef4f2c861eb39a9de,2024-10-02_04h10.33.824,mdp,2024.2.1,Win32,59.88023952,66fa4ebf79326e780c390304,,,,,,,,,,,,,,,,,,,,,480.1803,480.1803,480.1828,480.7296,1,1,right,0.0178,,480.7324,481.763,1,1,right,481.7655,481.7671,,1,,0,481.7672,481.7672,481.7691,483.2631,0,31,31,31,1,0.4,0.6,0.6,0.4,,,,,,,,,,,,,,,0.4932,,0.6,0.4,0.8,0.2,0.6,0.4,0.2,0.8,1,0,,,,,,,,,,,,
,,666b0a3508c2f3faa9cd0057,66fc9dbef4f2c861eb39a9de,2024-10-02_04h10.33.824,mdp,2024.2.1,Win32,59.88023952,66fa4ebf79326e780c390304,,,,,,,,,,,,,,,,,,,,,483.264,483.264,483.2668,483.9117,0,1,left,0.1167,,483.913,484.8967,1,1,right,484.8987,484.9002,,1,,0,484.9003,484.9003,484.9021,486.3967,0,32,32,32,1,0.4,0.6,0.6,0.4,,,,,,,,,,,,,,,0.4743,,0.6,0.4,0.8,0.2,0.6,0.4,0.2,0.8,1,0,,,,,,,,,,,,
,,666b0a3508c2f3faa9cd0057,66fc9dbef4f2c861eb39a9de,2024-10-02_04h10.33.824,mdp,2024.2.1,Win32,59.88023952,66fa4ebf79326e780c390304,,,,,,,,,,,,,,,,,,,,,486.3975,486.3975,486.3999,487.664,0,0,left,0.7379,,487.6667,489.147,1,0,right,489.1499,489.1524,,0,,1,489.1525,489.1525,489.1549,490.6466,0,33,33,33,1,0.4,0.6,0.6,0.4,,,,,,,,,,,,,,,0.945,,0.6,0.4,0.8,0.2,0.6,0.4,0.2,0.8,1,0,,,,,,,,,,,,
,,666b0a3508c2f3faa9cd0057,66fc9dbef4f2c861eb39a9de,2024-10-02_04h10.33.824,mdp,2024.2.1,Win32,59.88023952,66fa4ebf79326e780c390304,,,,,,,,,,,,,,,,,,,,,490.6473,490.6473,490.6495,491.533,0,1,left,0.3614,,491.5354,492.8472,0,1,left,492.8495,492.851,,1,,0,492.8511,492.8511,492.8528,494.3451,0,34,34,34,1,0.4,0.6,0.6,0.4,,,,,,,,,,,,,,,0.779,,0.4,0.6,0.4,0.6,0.6,0.4,0.2,0.8,1,0,,,,,,,,,,,,
,,666b0a3508c2f3faa9cd0057,66fc9dbef4f2c861eb39a9de,2024-10-02_04h10.33.824,mdp,2024.2.1,Win32,59.88023952,66fa4ebf79326e780c390304,,,,,,,,,,,,,,,,,,,,,494.3455,494.3456,494.3468,495.7484,1,0,right,0.8929,,495.7509,496.7497,1,0,right,496.7522,496.7541,,1,,1,496.7541,496.7542,496.7561,498.2472,0,35,35,35,1,0.4,0.6,0.6,0.4,,,,,,,,,,,,,,,0.4671,,0.4,0.6,0.4,0.6,0.6,0.4,0.2,0.8,1,0,,,,,,,,,,,,
,,666b0a3508c2f3faa9cd0057,66fc9dbef4f2c861eb39a9de,2024-10-02_04h10.33.824,mdp,2024.2.1,Win32,59.88023952,66fa4ebf79326e780c390304,,,,,,,,,,,,,,,,,,,,,498.2481,498.2481,498.2507,499.1141,1,0,right,0.3349,,499.1167,500.0795,1,1,right,500.0825,500.0842,,0,,0,500.0843,500.0844,500.0864,501.5811,0,36,36,36,1,0.4,0.6,0.6,0.4,,,,,,,,,,,,,,,0.4338,,0.4,0.6,0.4,0.6,0.6,0.4,0.2,0.8,1,0,,,,,,,,,,,,
,,666b0a3508c2f3faa9cd0057,66fc9dbef4f2c861eb39a9de,2024-10-02_04h10.33.824,mdp,2024.2.1,Win32,59.88023952,66fa4ebf79326e780c390304,,,,,,,,,,,,,,,,,,,,,501.5827,501.5827,501.5856,502.3813,1,1,right,0.2677,,502.3838,503.5472,1,1,right,503.5498,503.5514,,1,,0,503.5516,503.5516,503.5535,505.0481,0,37,37,37,1,0.4,0.6,0.6,0.4,,,,,,,,,,,,,,,0.6268,,0.4,0.6,0.4,0.6,0.6,0.4,0.2,0.8,1,0,,,,,,,,,,,,
,,666b0a3508c2f3faa9cd0057,66fc9dbef4f2c861eb39a9de,2024-10-02_04h10.33.824,mdp,2024.2.1,Win32,59.88023952,66fa4ebf79326e780c390304,,,,,,,,,,,,,,,,,,,,,505.0488,505.0488,505.0504,506.2307,0,1,left,0.6509,,506.2333,507.2496,0,1,left,507.2518,507.2539,,0,,0,507.2541,507.2541,507.2557,508.747,0,38,38,38,1,0.4,0.6,0.6,0.4,,,,,,,,,,,,,,,0.4943,,0.4,0.6,0.4,0.6,0.6,0.4,0.2,0.8,1,0,,,,,,,,,,,,
,,666b0a3508c2f3faa9cd0057,66fc9dbef4f2c861eb39a9de,2024-10-02_04h10.33.824,mdp,2024.2.1,Win32,59.88023952,66fa4ebf79326e780c390304,,,,,,,,,,,,,,,,,,,,,508.7477,508.7477,508.7496,509.8145,1,1,right,0.5534,,509.817,510.7996,1,0,right,510.8023,510.8041,,0,,1,510.8043,510.8043,510.8061,512.298,0,39,39,39,1,0.4,0.6,0.6,0.4,,,,,,,,,,,,,,,0.4596,,0.4,0.6,0.4,0.6,0.4,0.6,0.6,0.4,1,0,,,,,,,,,,,,
,,666b0a3508c2f3faa9cd0057,66fc9dbef4f2c861eb39a9de,2024-10-02_04h10.33.824,mdp,2024.2.1,Win32,59.88023952,66fa4ebf79326e780c390304,,,,,,,,,,,,,,,,,,,,,512.2988,512.2989,512.3013,513.1646,1,1,right,0.3374,,513.1676,514.1673,1,0,right,514.1697,514.1719,,0,,1,514.1721,514.1721,514.174,515.6648,0,40,40,40,1,0.4,0.6,0.6,0.4,,,,,,,,,,,,,,,0.4774,,0.4,0.6,0.4,0.6,0.4,0.6,0.6,0.4,1,0,,,,,,,,,,,,
,,666b0a3508c2f3faa9cd0057,66fc9dbef4f2c861eb39a9de,2024-10-02_04h10.33.824,mdp,2024.2.1,Win32,59.88023952,66fa4ebf79326e780c390304,,,,,,,,,,,,,,,,,,,,,515.6658,515.6658,515.6681,516.8485,1,1,right,0.6515,,516.8511,517.9659,1,0,right,517.9684,517.9704,,1,,1,517.9705,517.9705,517.9725,519.465,0,41,41,41,1,0.4,0.6,0.6,0.4,,,,,,,,,,,,,,,0.5929,,0.4,0.6,0.4,0.6,0.4,0.6,0.6,0.4,1,0,,,,,,,,,,,,
,,666b0a3508c2f3faa9cd0057,66fc9dbef4f2c861eb39a9de,2024-10-02_04h10.33.824,mdp,2024.2.1,Win32,59.88023952,66fa4ebf79326e780c390304,,,,,,,,,,,,,,,,,,,,,519.466,519.466,519.4684,520.0508,1,1,right,0.0608,,520.0532,521.0968,1,1,right,521.098,521.0987,,0,,0,521.0987,521.0987,521.0995,522.5982,0,42,42,42,1,0.4,0.6,0.6,0.4,,,,,,,,,,,,,,,0.5159,,0.4,0.6,0.4,0.6,0.4,0.6,0.6,0.4,1,0,,,,,,,,,,,,
,,666b0a3508c2f3faa9cd0057,66fc9dbef4f2c861eb39a9de,2024-10-02_04h10.33.824,mdp,2024.2.1,Win32,59.88023952,66fa4ebf79326e780c390304,,,,,,,,,,,,,,,,,,,,,522.599,522.599,522.601,524.5985,0,0,left,1.4702,,524.6008,525.5985,0,0,left,525.6009,525.6024,,0,,1,525.6024,525.6024,525.6043,527.0986,0,43,43,43,1,0.4,0.6,0.6,0.4,,,,,,,,,,,,,,,0.4604,,0.4,0.6,0.4,0.6,0.4,0.6,0.6,0.4,1,0,,,,,,,,,,,,
,,666b0a3508c2f3faa9cd0057,66fc9dbef4f2c861eb39a9de,2024-10-02_04h10.33.824,mdp,2024.2.1,Win32,59.88023952,66fa4ebf79326e780c390304,,,,,,,,,,,,,,,,,,,,,527.0994,527.0994,527.1017,528.1318,1,1,right,0.5014,,528.1342,529.1838,1,0,right,529.1865,529.1882,,0,,1,529.1883,529.1883,529.1901,530.6818,0,44,44,44,1,0.4,0.6,0.6,0.4,,,,,,,,,,,,,,,0.5351,,0.4,0.6,0.4,0.6,0.4,0.6,0.6,0.4,1,0,,,,,,,,,,,,
,,666b0a3508c2f3faa9cd0057,66fc9dbef4f2c861eb39a9de,2024-10-02_04h10.33.824,mdp,2024.2.1,Win32,59.88023952,66fa4ebf79326e780c390304,,,,,,,,,,,,,,,,,,,,,530.6828,530.6828,530.685,531.5988,0,1,left,0.3877,,531.6015,533.0154,0,1,left,533.0176,533.0189,,1,,0,533.0189,533.019,533.0209,534.5157,0,45,45,45,1,0.4,0.6,0.6,0.4,,,,,,,,,,,,,,,0.8858,,0.4,0.6,0.4,0.6,0.4,0.6,0.6,0.4,1,0,,,,,,,,,,,,
,,666b0a3508c2f3faa9cd0057,66fc9dbef4f2c861eb39a9de,2024-10-02_04h10.33.824,mdp,2024.2.1,Win32,59.88023952,66fa4ebf79326e780c390304,,,,,,,,,,,,,,,,,,,,,534.5167,534.5167,534.519,535.9158,1,1,right,0.868,,535.9182,536.9659,1,1,right,536.9683,536.9698,,1,,0,536.9698,536.9698,536.9716,538.4656,0,46,46,46,1,0.4,0.6,0.6,0.4,,,,,,,,,,,,,,,0.5185,,0.8,0.2,0.8,0.2,0.4,0.6,0.6,0.4,1,0,,,,,,,,,,,,
,,666b0a3508c2f3faa9cd0057,66fc9dbef4f2c861eb39a9de,2024-10-02_04h10.33.824,mdp,2024.2.1,Win32,59.88023952,66fa4ebf79326e780c390304,,,,,,,,,,,,,,,,,,,,,538.467,538.467,538.469,540.185,0,0,left,1.1943,,540.1875,541.1849,1,0,right,541.1872,541.1888,,0,,1,541.189,541.189,541.1906,542.6827,0,47,47,47,1,0.4,0.6,0.6,0.4,,,,,,,,,,,,,,,0.4685,,0.8,0.2,0.8,0.2,0.4,0.6,0.6,0.4,1,0,,,,,,,,,,,,
,,666b0a3508c2f3faa9cd0057,66fc9dbef4f2c861eb39a9de,2024-10-02_04h10.33.824,mdp,2024.2.1,Win32,59.88023952,66fa4ebf79326e780c390304,,,,,,,,,,,,,,,,,,,,,542.6836,542.6836,542.6857,544.0496,0,0,left,0.8353,,544.052,545.052,1,0,right,545.0543,545.056,,1,,1,545.0561,545.0561,545.0579,546.5498,0,48,48,48,1,0.4,0.6,0.6,0.4,,,,,,,,,,,,,,,0.4775,,0.8,0.2,0.8,0.2,0.4,0.6,0.6,0.4,1,0,,,,,,,,,,,,
,,666b0a3508c2f3faa9cd0057,66fc9dbef4f2c861eb39a9de,2024-10-02_04h10.33.824,mdp,2024.2.1,Win32,59.88023952,66fa4ebf79326e780c390304,,,,,,,,,,,,,,,,,,,,,546.5505,546.5506,546.5527,547.733,0,1,left,0.6522,,547.7356,549.0332,1,0,right,549.0356,549.037,,1,,1,549.0372,549.0372,549.0389,550.5333,0,49,49,49,1,0.4,0.6,0.6,0.4,,,,,,,,,,,,,,,0.7595,,0.8,0.2,0.8,0.2,0.4,0.6,0.6,0.4,1,0,,,,,,,,,,,,
,,666b0a3508c2f3faa9cd0057,66fc9dbef4f2c861eb39a9de,2024-10-02_04h10.33.824,mdp,2024.2.1,Win32,59.88023952,66fa4ebf79326e780c390304,,,,,,,,,,,,,,,,,,,,,,,,,,,,,,,,,,,,,,,,,,,,,,,,,,,,,,,,550.5335,609.0534,0,1,1,4,1,imgs/cat.png,imgs/kangaroo.png,imgs/horse.png,imgs/squirrel.png,imgs/rabbit.png,,,,,,,,,,,,,,,,,,,,,,,,
,,666b0a3508c2f3faa9cd0057,66fc9dbef4f2c861eb39a9de,2024-10-02_04h10.33.824,mdp,2024.2.1,Win32,59.88023952,66fa4ebf79326e780c390304,,,,,,,,,,,,,,3,seqs/st3seq16.csv,609.0561,611.4731,space,1.8944,,611.497,611.4971,611.4994,614.1953,1,1,right,2.1718,,614.1983,615.6354,1,0,right,615.639,617.0776,1,1,right,0,617.0778,617.0778,617.0805,618.5772,0,0,0,0,1,0.4,0.6,0.6,0.4,,,,,,,,,,,,,,,0.8983,,0.8,0.2,0.2,0.8,0.2,0.8,0.8,0.2,,,0.9004,,0.4,0.6,0.8,0.2,0.8,0.2,0.6,0.4,1,0
,,666b0a3508c2f3faa9cd0057,66fc9dbef4f2c861eb39a9de,2024-10-02_04h10.33.824,mdp,2024.2.1,Win32,59.88023952,66fa4ebf79326e780c390304,,,,,,,,,,,,,,,,,,,,,618.5795,618.5795,618.5822,620.0288,1,0,right,0.9184,,620.0319,622.0025,1,1,right,622.0062,623.9626,0,0,left,1,623.9628,623.9629,623.9664,625.46,0,1,1,1,1,0.4,0.6,0.6,0.4,,,,,,,,,,,,,,,1.4288,,0.8,0.2,0.2,0.8,0.2,0.8,0.8,0.2,,,1.4346,,0.4,0.6,0.8,0.2,0.8,0.2,0.6,0.4,1,0
,,666b0a3508c2f3faa9cd0057,66fc9dbef4f2c861eb39a9de,2024-10-02_04h10.33.824,mdp,2024.2.1,Win32,59.88023952,66fa4ebf79326e780c390304,,,,,,,,,,,,,,,,,,,,,625.4621,625.4621,625.4649,626.4784,1,0,right,0.4846,,626.4819,628.6617,1,1,right,628.6654,629.8959,0,0,left,1,629.8961,629.8961,629.8995,631.3948,0,2,2,2,1,0.4,0.6,0.6,0.4,,,,,,,,,,,,,,,1.6511,,0.8,0.2,0.2,0.8,0.2,0.8,0.8,0.2,,,0.7015,,0.4,0.6,0.8,0.2,0.8,0.2,0.6,0.4,1,0
,,666b0a3508c2f3faa9cd0057,66fc9dbef4f2c861eb39a9de,2024-10-02_04h10.33.824,mdp,2024.2.1,Win32,59.88023952,66fa4ebf79326e780c390304,,,,,,,,,,,,,,,,,,,,,631.3968,631.3968,631.3995,632.4834,1,0,right,0.5523,,632.4876,633.8138,1,1,right,633.8169,634.9301,0,0,left,1,634.9303,634.9303,634.9334,636.428,0,3,3,3,1,0.4,0.6,0.6,0.4,,,,,,,,,,,,,,,0.8026,,0.8,0.2,0.2,0.8,0.2,0.8,0.8,0.2,,,0.5857,,0.4,0.6,0.8,0.2,0.8,0.2,0.6,0.4,1,0
,,666b0a3508c2f3faa9cd0057,66fc9dbef4f2c861eb39a9de,2024-10-02_04h10.33.824,mdp,2024.2.1,Win32,59.88023952,66fa4ebf79326e780c390304,,,,,,,,,,,,,,,,,,,,,636.43,636.43,636.4328,637.461,1,1,right,0.4997,,637.4643,640.7294,1,1,right,640.7329,642.4302,0,0,left,1,642.4303,642.4304,642.4334,643.9279,0,4,4,4,1,0.4,0.6,0.6,0.4,,,,,,,,,,,,,,,2.7514,,0.8,0.2,0.2,0.8,0.2,0.8,0.8,0.2,,,1.1685,,0.4,0.6,0.8,0.2,0.8,0.2,0.6,0.4,1,0
,,666b0a3508c2f3faa9cd0057,66fc9dbef4f2c861eb39a9de,2024-10-02_04h10.33.824,mdp,2024.2.1,Win32,59.88023952,66fa4ebf79326e780c390304,,,,,,,,,,,,,,,,,,,,,643.93,643.93,643.9328,645.0474,1,0,right,0.6023,,645.0505,646.5615,1,1,right,646.5653,647.7534,0,0,left,1,647.7534,647.7534,647.7549,649.2447,0,5,5,5,1,0.4,0.6,0.6,0.4,,,,,,,,,,,,,,,0.9809,,0.8,0.2,0.2,0.8,0.2,0.8,0.8,0.2,,,0.6555,,0.4,0.6,0.8,0.2,0.8,0.2,0.6,0.4,1,0
,,666b0a3508c2f3faa9cd0057,66fc9dbef4f2c861eb39a9de,2024-10-02_04h10.33.824,mdp,2024.2.1,Win32,59.88023952,66fa4ebf79326e780c390304,,,,,,,,,,,,,,,,,,,,,649.2466,649.2466,649.2494,650.5138,1,0,right,0.7349,,650.5168,651.8141,0,0,left,651.8173,654.1467,0,1,left,0,654.1468,654.1468,654.1496,655.6435,0,6,6,6,1,0.4,0.6,0.6,0.4,,,,,,,,,,,,,,,0.769,,0.8,0.2,0.2,0.8,0.2,0.8,0.8,0.2,,,1.8011,,0.4,0.6,0.8,0.2,0.8,0.2,0.6,0.4,1,0
,,666b0a3508c2f3faa9cd0057,66fc9dbef4f2c861eb39a9de,2024-10-02_04h10.33.824,mdp,2024.2.1,Win32,59.88023952,66fa4ebf79326e780c390304,,,,,,,,,,,,,,,,,,,,,655.6454,655.6455,655.6485,656.7136,0,0,left,0.5516,,656.7176,657.8315,0,0,left,657.8347,658.8633,1,0,right,1,658.8638,658.8638,658.867,660.3631,0,7,7,7,1,0.4,0.6,0.6,0.4,,,,,,,,,,,,,,,0.5856,,0.8,0.2,0.2,0.8,0.2,0.8,0.8,0.2,,,0.5008,,0.4,0.6,0.8,0.2,0.8,0.2,0.6,0.4,1,0
,,666b0a3508c2f3faa9cd0057,66fc9dbef4f2c861eb39a9de,2024-10-02_04h10.33.824,mdp,2024.2.1,Win32,59.88023952,66fa4ebf79326e780c390304,,,,,,,,,,,,,,,,,,,,,660.3655,660.3656,660.3684,661.4149,0,1,left,0.5192,,661.4179,663.1482,0,1,left,663.1516,664.9626,1,0,right,1,664.9628,664.9628,664.9644,666.4623,0,8,8,8,1,0.4,0.6,0.6,0.4,,,,,,,,,,,,,,,1.2019,,0.8,0.2,0.2,0.8,0.2,0.8,0.8,0.2,,,1.2834,,0.4,0.6,0.8,0.2,0.8,0.2,0.6,0.4,1,0
,,666b0a3508c2f3faa9cd0057,66fc9dbef4f2c861eb39a9de,2024-10-02_04h10.33.824,mdp,2024.2.1,Win32,59.88023952,66fa4ebf79326e780c390304,,,,,,,,,,,,,,,,,,,,,666.4632,666.4633,666.4645,667.3772,0,1,left,0.3813,,667.3786,668.4802,0,1,left,668.4836,669.4799,1,1,right,0,669.4804,669.4804,669.4844,670.9808,0,9,9,9,1,0.4,0.6,0.6,0.4,,,,,,,,,,,,,,,0.568,,0.8,0.2,0.2,0.8,0.2,0.8,0.8,0.2,,,0.4669,,0.4,0.6,0.8,0.2,0.4,0.6,0.4,0.6,1,0
,,666b0a3508c2f3faa9cd0057,66fc9dbef4f2c861eb39a9de,2024-10-02_04h10.33.824,mdp,2024.2.1,Win32,59.88023952,66fa4ebf79326e780c390304,,,,,,,,,,,,,,,,,,,,,670.9832,670.9833,670.9861,671.8736,0,0,left,0.3677,,671.8765,673.1232,0,0,left,673.1255,674.3405,0,0,left,1,674.3407,674.3407,674.3435,675.8406,0,10,10,10,1,0.4,0.6,0.6,0.4,,,,,,,,,,,,,,,0.7031,,0.8,0.2,0.2,0.8,0.2,0.8,0.8,0.2,,,0.6935,,0.4,0.6,0.8,0.2,0.4,0.6,0.4,0.6,1,0
,,666b0a3508c2f3faa9cd0057,66fc9dbef4f2c861eb39a9de,2024-10-02_04h10.33.824,mdp,2024.2.1,Win32,59.88023952,66fa4ebf79326e780c390304,,,,,,,,,,,,,,,,,,,,,675.8416,675.8416,675.844,676.5239,0,0,left,0.1516,,676.5264,677.5735,0,0,left,677.5757,678.624,0,0,left,1,678.6241,678.6241,678.6266,680.1244,0,11,11,11,1,0.4,0.6,0.6,0.4,,,,,,,,,,,,,,,0.519,,0.8,0.2,0.2,0.8,0.2,0.8,0.8,0.2,,,0.5186,,0.4,0.6,0.8,0.2,0.4,0.6,0.4,0.6,1,0
,,666b0a3508c2f3faa9cd0057,66fc9dbef4f2c861eb39a9de,2024-10-02_04h10.33.824,mdp,2024.2.1,Win32,59.88023952,66fa4ebf79326e780c390304,,,,,,,,,,,,,,,,,,,,,680.1254,680.1256,680.1284,680.6741,0,1,left,0.0191,,680.6767,681.7908,0,0,left,681.7933,683.0594,0,0,left,1,683.0596,683.0596,683.062,684.5571,0,12,12,12,1,0.4,0.6,0.6,0.4,,,,,,,,,,,,,,,0.5763,,0.8,0.2,0.2,0.8,0.2,0.8,0.8,0.2,,,0.7438,,0.4,0.6,0.8,0.2,0.4,0.6,0.4,0.6,1,0
,,666b0a3508c2f3faa9cd0057,66fc9dbef4f2c861eb39a9de,2024-10-02_04h10.33.824,mdp,2024.2.1,Win32,59.88023952,66fa4ebf79326e780c390304,,,,,,,,,,,,,,,,,,,,,684.5582,684.5582,684.5606,685.391,0,1,left,0.3024,,685.3939,686.5405,0,1,left,686.5427,688.1743,0,0,left,1,688.1745,688.1745,688.1768,689.674,0,13,13,13,1,0.4,0.6,0.6,0.4,,,,,,,,,,,,,,,0.6203,,0.8,0.2,0.2,0.8,0.2,0.8,0.8,0.2,,,1.101,,0.4,0.6,0.8,0.2,0.8,0.2,0.6,0.4,1,0
,,666b0a3508c2f3faa9cd0057,66fc9dbef4f2c861eb39a9de,2024-10-02_04h10.33.824,mdp,2024.2.1,Win32,59.88023952,66fa4ebf79326e780c390304,,,,,,,,,,,,,,,,,,,,,689.6748,689.6748,689.6768,690.377,0,1,left,0.1777,,690.3795,691.5251,0,1,left,691.5279,692.509,1,0,right,1,692.5092,692.5092,692.5111,694.0081,0,14,14,14,1,0.4,0.6,0.6,0.4,,,,,,,,,,,,,,,0.6243,,0.8,0.2,0.2,0.8,0.2,0.8,0.8,0.2,,,0.4608,,0.4,0.6,0.8,0.2,0.8,0.2,0.6,0.4,1,0
,,666b0a3508c2f3faa9cd0057,66fc9dbef4f2c861eb39a9de,2024-10-02_04h10.33.824,mdp,2024.2.1,Win32,59.88023952,66fa4ebf79326e780c390304,,,,,,,,,,,,,,,,,,,,,694.0091,694.0091,694.0116,694.8578,0,1,left,0.3219,,694.8604,696.0082,0,0,left,696.0109,697.2248,0,1,left,0,697.225,697.2251,697.2276,698.7251,0,15,15,15,1,0.4,0.6,0.6,0.4,,,,,,,,,,,,,,,0.6182,,0.4,0.6,0.4,0.6,0.2,0.8,0.8,0.2,,,0.6769,,0.4,0.6,0.8,0.2,0.8,0.2,0.6,0.4,1,0
,,666b0a3508c2f3faa9cd0057,66fc9dbef4f2c861eb39a9de,2024-10-02_04h10.33.824,mdp,2024.2.1,Win32,59.88023952,66fa4ebf79326e780c390304,,,,,,,,,,,,,,,,,,,,,698.7262,698.7262,698.7286,699.4256,0,0,left,0.1735,,699.4281,700.6106,0,1,left,700.6131,701.8584,1,1,right,0,701.8586,701.8586,701.861,703.3587,0,16,16,16,1,0.4,0.6,0.6,0.4,,,,,,,,,,,,,,,0.6522,,0.4,0.6,0.4,0.6,0.2,0.8,0.8,0.2,,,0.7091,,0.2,0.8,0.6,0.4,0.8,0.2,0.6,0.4,1,0
,,666b0a3508c2f3faa9cd0057,66fc9dbef4f2c861eb39a9de,2024-10-02_04h10.33.824,mdp,2024.2.1,Win32,59.88023952,66fa4ebf79326e780c390304,,,,,,,,,,,,,,,,,,,,,703.3598,703.3598,703.3623,704.5084,0,0,left,0.6181,,704.5109,705.8097,0,0,left,705.8122,706.8928,0,1,left,0,706.893,706.893,706.8954,708.3913,0,17,17,17,1,0.4,0.6,0.6,0.4,,,,,,,,,,,,,,,0.7764,,0.4,0.6,0.4,0.6,0.2,0.8,0.8,0.2,,,0.5456,,0.2,0.8,0.6,0.4,0.8,0.2,0.6,0.4,1,0
,,666b0a3508c2f3faa9cd0057,66fc9dbef4f2c861eb39a9de,2024-10-02_04h10.33.824,mdp,2024.2.1,Win32,59.88023952,66fa4ebf79326e780c390304,,,,,,,,,,,,,,,,,,,,,708.3929,708.3931,708.3954,709.5423,0,0,left,0.6181,,709.5448,710.7257,1,1,right,710.7284,712.0092,1,0,right,1,712.0094,712.0094,712.0119,713.5093,0,18,18,18,1,0.4,0.6,0.6,0.4,,,,,,,,,,,,,,,0.6679,,0.4,0.6,0.4,0.6,0.2,0.8,0.8,0.2,,,0.7434,,0.2,0.8,0.6,0.4,0.8,0.2,0.6,0.4,1,0
,,666b0a3508c2f3faa9cd0057,66fc9dbef4f2c861eb39a9de,2024-10-02_04h10.33.824,mdp,2024.2.1,Win32,59.88023952,66fa4ebf79326e780c390304,,,,,,,,,,,,,,,,,,,,,713.5102,713.5103,713.5127,714.8595,0,1,left,0.8182,,714.8622,716.276,0,0,left,716.2787,717.6412,0,1,left,0,717.6413,717.6413,717.6425,719.1424,0,19,19,19,1,0.4,0.6,0.6,0.4,,,,,,,,,,,,,,,0.8772,,0.4,0.6,0.4,0.6,0.2,0.8,0.8,0.2,,,0.825,,0.2,0.8,0.6,0.4,0.8,0.2,0.6,0.4,1,0
,,666b0a3508c2f3faa9cd0057,66fc9dbef4f2c861eb39a9de,2024-10-02_04h10.33.824,mdp,2024.2.1,Win32,59.88023952,66fa4ebf79326e780c390304,,,,,,,,,,,,,,,,,,,,,719.1433,719.1433,719.1457,720.693,0,0,left,1.0207,,720.6956,722.4599,0,1,left,722.4627,723.9764,1,0,right,1,723.9766,723.9766,723.979,725.4766,0,20,20,20,1,0.4,0.6,0.6,0.4,,,,,,,,,,,,,,,1.2284,,0.4,0.6,0.4,0.6,0.2,0.8,0.8,0.2,,,0.9731,,0.4,0.6,0.2,0.8,0.8,0.2,0.6,0.4,1,0
,,666b0a3508c2f3faa9cd0057,66fc9dbef4f2c861eb39a9de,2024-10-02_04h10.33.824,mdp,2024.2.1,Win32,59.88023952,66fa4ebf79326e780c390304,,,,,,,,,,,,,,,,,,,,,725.4776,725.4776,725.481,726.0952,0,0,left,0.0874,,726.0992,727.11,0,0,left,727.1125,728.9265,1,0,right,1,728.9267,728.9267,728.9298,730.4252,0,21,21,21,1,0.4,0.6,0.6,0.4,,,,,,,,,,,,,,,0.4862,,0.4,0.6,0.4,0.6,0.2,0.8,0.8,0.2,,,1.278,,0.4,0.6,0.2,0.8,0.8,0.2,0.6,0.4,1,0
,,666b0a3508c2f3faa9cd0057,66fc9dbef4f2c861eb39a9de,2024-10-02_04h10.33.824,mdp,2024.2.1,Win32,59.88023952,66fa4ebf79326e780c390304,,,,,,,,,,,,,,,,,,,,,730.4256,730.4256,730.4269,731.3645,0,1,left,0.4302,,731.3679,732.6418,0,1,left,732.643,733.944,1,1,right,0,733.9442,733.9443,733.9464,735.4436,0,22,22,22,1,0.4,0.6,0.6,0.4,,,,,,,,,,,,,,,0.7447,,0.4,0.6,0.4,0.6,0.2,0.8,0.8,0.2,,,0.7851,,0.4,0.6,0.2,0.8,0.8,0.2,0.6,0.4,1,0
,,666b0a3508c2f3faa9cd0057,66fc9dbef4f2c861eb39a9de,2024-10-02_04h10.33.824,mdp,2024.2.1,Win32,59.88023952,66fa4ebf79326e780c390304,,,,,,,,,,,,,,,,,,,,,735.4444,735.4445,735.4466,737.2094,0,0,left,1.2338,,737.2119,738.4106,0,0,left,738.4118,739.7938,0,1,left,0,739.7939,739.7939,739.7963,741.2939,0,23,23,23,1,0.4,0.6,0.6,0.4,,,,,,,,,,,,,,,0.6745,,0.4,0.6,0.4,0.6,0.2,0.8,0.8,0.2,,,0.8467,,0.4,0.6,0.2,0.8,0.8,0.2,0.6,0.4,1,0
,,666b0a3508c2f3faa9cd0057,66fc9dbef4f2c861eb39a9de,2024-10-02_04h10.33.824,mdp,2024.2.1,Win32,59.88023952,66fa4ebf79326e780c390304,,,,,,,,,,,,,,,,,,,,,741.2948,741.2948,741.297,741.8274,0,1,left,0.0014,,741.8299,742.8938,0,1,left,742.896,743.9467,1,0,right,1,743.9468,743.9468,743.95,745.4444,0,24,24,24,1,0.4,0.6,0.6,0.4,,,,,,,,,,,,,,,0.5256,,0.4,0.6,0.4,0.6,0.2,0.8,0.8,0.2,,,0.5327,,0.4,0.6,0.2,0.8,0.8,0.2,0.6,0.4,1,0
,,666b0a3508c2f3faa9cd0057,66fc9dbef4f2c861eb39a9de,2024-10-02_04h10.33.824,mdp,2024.2.1,Win32,59.88023952,66fa4ebf79326e780c390304,,,,,,,,,,,,,,,,,,,,,745.4456,745.4456,745.4487,747.1451,0,0,left,1.1759,,747.1473,748.4443,0,1,left,748.4464,749.3613,1,0,right,1,749.3614,749.3615,749.3639,750.8613,0,25,25,25,1,0.4,0.6,0.6,0.4,,,,,,,,,,,,,,,0.7647,,0.4,0.6,0.4,0.6,0.2,0.8,0.8,0.2,,,0.3861,,0.4,0.6,0.2,0.8,0.8,0.2,0.6,0.4,1,0
,,666b0a3508c2f3faa9cd0057,66fc9dbef4f2c861eb39a9de,2024-10-02_04h10.33.824,mdp,2024.2.1,Win32,59.88023952,66fa4ebf79326e780c390304,,,,,,,,,,,,,,,,,,,,,750.8623,750.8623,750.8648,752.7281,0,0,left,1.335,,752.7308,753.8812,1,1,right,753.8837,755.1609,1,0,right,1,755.1611,755.1611,755.1638,756.6616,0,26,26,26,1,0.4,0.6,0.6,0.4,,,,,,,,,,,,,,,0.6283,,0.4,0.6,0.4,0.6,0.2,0.8,0.8,0.2,,,0.752,,0.4,0.6,0.2,0.8,0.8,0.2,0.6,0.4,1,0
,,666b0a3508c2f3faa9cd0057,66fc9dbef4f2c861eb39a9de,2024-10-02_04h10.33.824,mdp,2024.2.1,Win32,59.88023952,66fa4ebf79326e780c390304,,,,,,,,,,,,,,,,,,,,,756.6626,756.6627,756.6653,758.1794,0,0,left,1.0035,,758.1824,759.3963,0,0,left,759.3984,760.4635,1,1,right,0,760.4636,760.4636,760.4655,761.9619,0,27,27,27,1,0.4,0.6,0.6,0.4,,,,,,,,,,,,,,,0.6934,,0.4,0.6,0.4,0.6,0.6,0.4,0.2,0.8,,,0.5369,,0.4,0.6,0.2,0.8,0.8,0.2,0.6,0.4,1,0
,,666b0a3508c2f3faa9cd0057,66fc9dbef4f2c861eb39a9de,2024-10-02_04h10.33.824,mdp,2024.2.1,Win32,59.88023952,66fa4ebf79326e780c390304,,,,,,,,,,,,,,,,,,,,,761.9629,761.9629,761.9653,763.0786,0,1,left,0.5861,,763.0813,764.1286,0,1,left,764.1313,765.3289,0,1,left,0,765.3291,765.3291,765.3316,766.8289,0,28,28,28,1,0.4,0.6,0.6,0.4,,,,,,,,,,,,,,,0.5094,,0.4,0.6,0.4,0.6,0.6,0.4,0.2,0.8,,,0.6576,,0.4,0.6,0.2,0.8,0.8,0.2,0.6,0.4,1,0
,,666b0a3508c2f3faa9cd0057,66fc9dbef4f2c861eb39a9de,2024-10-02_04h10.33.824,mdp,2024.2.1,Win32,59.88023952,66fa4ebf79326e780c390304,,,,,,,,,,,,,,,,,,,,,766.8298,766.8299,766.8332,767.3981,0,1,left,0.0443,,767.4011,768.4623,0,0,left,768.4648,769.5286,0,1,left,0,769.5287,769.5287,769.5312,771.0294,0,29,29,29,1,0.4,0.6,0.6,0.4,,,,,,,,,,,,,,,0.5348,,0.4,0.6,0.4,0.6,0.6,0.4,0.2,0.8,,,0.5264,,0.4,0.6,0.2,0.8,0.8,0.2,0.6,0.4,1,0
,,666b0a3508c2f3faa9cd0057,66fc9dbef4f2c861eb39a9de,2024-10-02_04h10.33.824,mdp,2024.2.1,Win32,59.88023952,66fa4ebf79326e780c390304,,,,,,,,,,,,,,,,,,,,,771.0303,771.0303,771.0327,772.6775,0,1,left,1.1171,,772.6807,774.2124,1,1,right,774.2147,775.4941,1,0,right,1,775.4941,775.4942,775.4953,776.9952,0,30,30,30,1,0.4,0.6,0.6,0.4,,,,,,,,,,,,,,,1.0226,,0.4,0.6,0.4,0.6,0.6,0.4,0.2,0.8,,,0.7415,,0.4,0.6,0.2,0.8,0.8,0.2,0.6,0.4,1,0
,,666b0a3508c2f3faa9cd0057,66fc9dbef4f2c861eb39a9de,2024-10-02_04h10.33.824,mdp,2024.2.1,Win32,59.88023952,66fa4ebf79326e780c390304,,,,,,,,,,,,,,,,,,,,,776.996,776.996,776.9977,777.9842,0,0,left,0.4795,,777.9878,780.1201,0,1,left,780.1224,782.7187,0,0,left,1,782.7188,782.7188,782.7221,784.219,0,31,31,31,1,0.4,0.6,0.6,0.4,,,,,,,,,,,,,,,1.6167,,0.4,0.6,0.4,0.6,0.6,0.4,0.2,0.8,,,2.066,,0.4,0.6,0.2,0.8,0.8,0.2,0.6,0.4,1,0
,,666b0a3508c2f3faa9cd0057,66fc9dbef4f2c861eb39a9de,2024-10-02_04h10.33.824,mdp,2024.2.1,Win32,59.88023952,66fa4ebf79326e780c390304,,,,,,,,,,,,,,,,,,,,,784.2212,784.2212,784.224,785.0389,0,1,left,0.3026,,785.0421,785.9899,0,1,left,785.993,787.1376,0,0,left,1,787.1379,787.138,787.1413,788.6328,0,32,32,32,1,0.4,0.6,0.6,0.4,,,,,,,,,,,,,,,0.42,,0.4,0.6,0.4,0.6,0.6,0.4,0.2,0.8,,,0.6177,,0.4,0.6,0.2,0.8,0.8,0.2,0.6,0.4,1,0
,,666b0a3508c2f3faa9cd0057,66fc9dbef4f2c861eb39a9de,2024-10-02_04h10.33.824,mdp,2024.2.1,Win32,59.88023952,66fa4ebf79326e780c390304,,,,,,,,,,,,,,,,,,,,,788.6338,788.6339,788.6352,790.3048,0,0,left,1.1352,,790.3076,791.5024,0,1,left,791.5043,793.1879,1,0,right,1,793.1881,793.1881,793.1915,794.6877,0,33,33,33,1,0.4,0.6,0.6,0.4,,,,,,,,,,,,,,,0.6663,,0.4,0.6,0.4,0.6,0.6,0.4,0.2,0.8,,,1.1682,,0.4,0.6,0.2,0.8,0.8,0.2,0.6,0.4,1,0
,,666b0a3508c2f3faa9cd0057,66fc9dbef4f2c861eb39a9de,2024-10-02_04h10.33.824,mdp,2024.2.1,Win32,59.88023952,66fa4ebf79326e780c390304,,,,,,,,,,,,,,,,,,,,,794.6898,794.6899,794.6925,796.4385,0,0,left,1.2184,,796.4413,797.8713,0,1,left,797.8747,799.1046,1,0,right,1,799.1049,799.1049,799.1077,800.604,0,34,34,34,1,0.4,0.6,0.6,0.4,,,,,,,,,,,,,,,0.9012,,0.4,0.6,0.4,0.6,0.6,0.4,0.2,0.8,,,0.702,,0.4,0.6,0.2,0.8,0.8,0.2,0.6,0.4,1,0
,,666b0a3508c2f3faa9cd0057,66fc9dbef4f2c861eb39a9de,2024-10-02_04h10.33.824,mdp,2024.2.1,Win32,59.88023952,66fa4ebf79326e780c390304,,,,,,,,,,,,,,,,,,,,,800.6058,800.6059,800.608,801.2711,0,0,left,0.1342,,801.2745,802.3714,0,0,left,802.3755,803.7204,0,0,left,1,803.7207,803.7207,803.7236,805.2202,0,35,35,35,1,0.4,0.6,0.6,0.4,,,,,,,,,,,,,,,0.5677,,0.4,0.6,0.4,0.6,0.6,0.4,0.2,0.8,,,0.8155,,0.4,0.6,0.2,0.8,0.8,0.2,0.6,0.4,1,0
,,666b0a3508c2f3faa9cd0057,66fc9dbef4f2c861eb39a9de,2024-10-02_04h10.33.824,mdp,2024.2.1,Win32,59.88023952,66fa4ebf79326e780c390304,,,,,,,,,,,,,,,,,,,,,805.2224,805.2224,805.2251,805.8528,0,0,left,0.0986,,805.8561,807.2391,0,1,left,807.2418,808.8711,0,0,left,1,808.8712,808.8714,808.8746,810.3714,0,36,36,36,1,0.4,0.6,0.6,0.4,,,,,,,,,,,,,,,0.8688,,0.4,0.6,0.4,0.6,0.6,0.4,0.2,0.8,,,1.0988,,0.4,0.6,0.2,0.8,0.8,0.2,0.6,0.4,1,0
,,666b0a3508c2f3faa9cd0057,66fc9dbef4f2c861eb39a9de,2024-10-02_04h10.33.824,mdp,2024.2.1,Win32,59.88023952,66fa4ebf79326e780c390304,,,,,,,,,,,,,,,,,,,,,810.3733,810.3735,810.3761,811.7564,0,1,left,0.8532,,811.7597,812.8232,0,0,left,812.8262,814.0551,1,1,right,0,814.0552,814.0553,814.0583,815.5554,0,37,37,37,1,0.4,0.6,0.6,0.4,,,,,,,,,,,,,,,0.5346,,0.4,0.6,0.4,0.6,0.6,0.4,0.2,0.8,,,0.7006,,0.4,0.6,0.2,0.8,0.8,0.2,0.6,0.4,1,0
,,666b0a3508c2f3faa9cd0057,66fc9dbef4f2c861eb39a9de,2024-10-02_04h10.33.824,mdp,2024.2.1,Win32,59.88023952,66fa4ebf79326e780c390304,,,,,,,,,,,,,,,,,,,,,815.5575,815.5577,815.5605,816.1888,0,1,left,0.1007,,816.1919,817.2397,0,1,left,817.2428,818.4397,0,0,left,1,818.4398,818.4399,818.4433,819.9377,0,38,38,38,1,0.4,0.6,0.6,0.4,,,,,,,,,,,,,,,0.5185,,0.4,0.6,0.4,0.6,0.6,0.4,0.2,0.8,,,0.668,,0.4,0.6,0.2,0.8,0.8,0.2,0.6,0.4,1,0
,,666b0a3508c2f3faa9cd0057,66fc9dbef4f2c861eb39a9de,2024-10-02_04h10.33.824,mdp,2024.2.1,Win32,59.88023952,66fa4ebf79326e780c390304,,,,,,,,,,,,,,,,,,,,,819.9396,819.9396,819.9421,821.2433,0,1,left,0.7719,,821.2465,822.3528,0,0,left,822.3559,823.431,0,1,left,0,823.4312,823.4312,823.4347,824.9225,0,39,39,39,1,0.4,0.6,0.6,0.4,,,,,,,,,,,,,,,0.5815,,0.4,0.6,0.4,0.6,0.6,0.4,0.2,0.8,,,0.558,,0.4,0.6,0.2,0.8,0.8,0.2,0.6,0.4,1,0
,,666b0a3508c2f3faa9cd0057,66fc9dbef4f2c861eb39a9de,2024-10-02_04h10.33.824,mdp,2024.2.1,Win32,59.88023952,66fa4ebf79326e780c390304,,,,,,,,,,,,,,,,,,,,,824.9245,824.9245,824.9273,826.1569,0,0,left,0.7028,,826.1599,827.4558,1,0,right,827.459,828.6879,1,1,right,0,828.6882,828.6882,828.6911,830.1817,0,40,40,40,1,0.4,0.6,0.6,0.4,,,,,,,,,,,,,,,0.7661,,0.4,0.6,0.4,0.6,0.6,0.4,0.2,0.8,,,0.6996,,0.4,0.6,0.2,0.8,0.8,0.2,0.6,0.4,1,0
,,666b0a3508c2f3faa9cd0057,66fc9dbef4f2c861eb39a9de,2024-10-02_04h10.33.824,mdp,2024.2.1,Win32,59.88023952,66fa4ebf79326e780c390304,,,,,,,,,,,,,,,,,,,,,830.1836,830.1836,830.1865,831.5902,0,1,left,0.8848,,831.5933,832.6909,0,1,left,832.694,833.8898,0,0,left,1,833.8903,833.8903,833.8936,835.3897,0,41,41,41,1,0.4,0.6,0.6,0.4,,,,,,,,,,,,,,,0.5672,,0.4,0.6,0.4,0.6,0.6,0.4,0.2,0.8,,,0.6655,,0.2,0.8,0.6,0.4,0.8,0.2,0.6,0.4,1,0
,,666b0a3508c2f3faa9cd0057,66fc9dbef4f2c861eb39a9de,2024-10-02_04h10.33.824,mdp,2024.2.1,Win32,59.88023952,66fa4ebf79326e780c390304,,,,,,,,,,,,,,,,,,,,,835.3918,835.3918,835.3945,837.2123,0,0,left,1.29,,837.219,838.4312,0,1,left,838.4351,839.5476,0,0,left,1,839.5478,839.5479,839.5516,841.048,0,42,42,42,1,0.4,0.6,0.6,0.4,,,,,,,,,,,,,,,0.6967,,0.4,0.6,0.4,0.6,0.6,0.4,0.2,0.8,,,0.5886,,0.2,0.8,0.6,0.4,0.8,0.2,0.6,0.4,1,0
,,666b0a3508c2f3faa9cd0057,66fc9dbef4f2c861eb39a9de,2024-10-02_04h10.33.824,mdp,2024.2.1,Win32,59.88023952,66fa4ebf79326e780c390304,,,,,,,,,,,,,,,,,,,,,841.05,841.0501,841.0532,842.2685,0,1,left,0.6862,,842.2712,843.3308,0,0,left,843.3339,844.4186,0,0,left,1,844.4188,844.4188,844.422,845.9149,0,43,43,43,1,0.4,0.6,0.6,0.4,,,,,,,,,,,,,,,0.5334,,0.6,0.4,0.2,0.8,0.6,0.4,0.2,0.8,,,0.5702,,0.2,0.8,0.6,0.4,0.8,0.2,0.6,0.4,1,0
,,666b0a3508c2f3faa9cd0057,66fc9dbef4f2c861eb39a9de,2024-10-02_04h10.33.824,mdp,2024.2.1,Win32,59.88023952,66fa4ebf79326e780c390304,,,,,,,,,,,,,,,,,,,,,845.9161,845.9162,845.9195,846.4817,0,0,left,0.0345,,846.4855,847.415,0,0,left,847.4192,848.5153,0,1,left,0,848.5156,848.5156,848.5193,850.0156,0,44,44,44,1,0.4,0.6,0.6,0.4,,,,,,,,,,,,,,,0.4121,,0.6,0.4,0.2,0.8,0.6,0.4,0.2,0.8,,,0.5675,,0.2,0.8,0.6,0.4,0.8,0.2,0.6,0.4,1,0
,,666b0a3508c2f3faa9cd0057,66fc9dbef4f2c861eb39a9de,2024-10-02_04h10.33.824,mdp,2024.2.1,Win32,59.88023952,66fa4ebf79326e780c390304,,,,,,,,,,,,,,,,,,,,,850.0178,850.0179,850.0205,851.5486,0,0,left,1.0021,,851.5524,853.1017,0,1,left,853.1047,854.0987,1,1,right,0,854.0988,854.0989,854.1022,855.5989,0,45,45,45,1,0.4,0.6,0.6,0.4,,,,,,,,,,,,,,,1.0251,,0.6,0.4,0.2,0.8,0.6,0.4,0.2,0.8,,,0.4636,,0.2,0.8,0.6,0.4,0.8,0.2,0.6,0.4,1,0
,,666b0a3508c2f3faa9cd0057,66fc9dbef4f2c861eb39a9de,2024-10-02_04h10.33.824,mdp,2024.2.1,Win32,59.88023952,66fa4ebf79326e780c390304,,,,,,,,,,,,,,,,,,,,,855.6015,855.6016,855.6043,856.5987,0,1,left,0.4679,,856.6024,857.6487,0,1,left,857.6522,858.7342,0,0,left,1,858.7343,858.7343,858.7375,860.2321,0,46,46,46,1,0.4,0.6,0.6,0.4,,,,,,,,,,,,,,,0.5118,,0.6,0.4,0.2,0.8,0.6,0.4,0.2,0.8,,,0.5577,,0.2,0.8,0.6,0.4,0.8,0.2,0.6,0.4,1,0
,,666b0a3508c2f3faa9cd0057,66fc9dbef4f2c861eb39a9de,2024-10-02_04h10.33.824,mdp,2024.2.1,Win32,59.88023952,66fa4ebf79326e780c390304,,,,,,,,,,,,,,,,,,,,,860.2338,860.2339,860.2367,861.8657,0,1,left,1.1021,,861.8695,862.9991,0,1,left,863.003,864.199,0,0,left,1,864.1992,864.1992,864.2024,865.6989,0,47,47,47,1,0.4,0.6,0.6,0.4,,,,,,,,,,,,,,,0.5985,,0.6,0.4,0.2,0.8,0.6,0.4,0.2,0.8,,,0.6692,,0.2,0.8,0.6,0.4,0.8,0.2,0.6,0.4,1,0
,,666b0a3508c2f3faa9cd0057,66fc9dbef4f2c861eb39a9de,2024-10-02_04h10.33.824,mdp,2024.2.1,Win32,59.88023952,66fa4ebf79326e780c390304,,,,,,,,,,,,,,,,,,,,,865.7007,865.7007,865.7035,867.2486,0,0,left,1.0173,,867.2505,868.4827,0,0,left,868.4861,869.7497,0,1,left,0,869.7499,869.7499,869.7536,871.2501,0,48,48,48,1,0.4,0.6,0.6,0.4,,,,,,,,,,,,,,,0.7144,,0.6,0.4,0.2,0.8,0.6,0.4,0.2,0.8,,,0.7319,,0.2,0.8,0.6,0.4,0.8,0.2,0.6,0.4,1,0
,,666b0a3508c2f3faa9cd0057,66fc9dbef4f2c861eb39a9de,2024-10-02_04h10.33.824,mdp,2024.2.1,Win32,59.88023952,66fa4ebf79326e780c390304,,,,,,,,,,,,,,,,,,,,,871.2529,871.253,871.2554,872.6999,0,1,left,0.9203,,872.7032,873.833,0,0,left,873.8364,875.1664,1,0,right,1,875.1666,875.1666,875.1698,876.6666,0,49,49,49,1,0.4,0.6,0.6,0.4,,,,,,,,,,,,,,,0.5964,,0.6,0.4,0.2,0.8,0.6,0.4,0.2,0.8,,,0.8024,,0.2,0.8,0.6,0.4,0.8,0.2,0.6,0.4,1,0
,,666b0a3508c2f3faa9cd0057,66fc9dbef4f2c861eb39a9de,2024-10-02_04h10.33.824,mdp,2024.2.1,Win32,59.88023952,66fa4ebf79326e780c390304,,,,,,,,,,,,,,,,,,,,,,,,,,,,,,,,,,,,,,,,,,,,,,,,,,,,,,,,876.6672,935.179,0,2,2,8,1,imgs/cat.png,imgs/lion.png,imgs/goat.png,imgs/rabbit.png,imgs/horse.png,,,,,,,,,,,,,,,,,,,,,,,,
,,666b0a3508c2f3faa9cd0057,66fc9dbef4f2c861eb39a9de,2024-10-02_04h10.33.824,mdp,2024.2.1,Win32,59.88023952,66fa4ebf79326e780c390304,,,,,,,,,,,,,,3,seqs/st3seq49.csv,935.1812,938.2166,space,2.5054,,938.2361,938.2363,938.2392,941.704,0,1,left,2.9403,,941.7078,942.8806,0,1,left,942.8836,944.4706,1,1,right,0,944.4707,944.4707,944.4745,945.9705,0,0,0,0,1,0.2,0.8,0.6,0.4,,,,,,,,,,,,,,,0.6435,,0.6,0.4,0.6,0.4,0.2,0.8,0.6,0.4,,,1.0474,,0.2,0.8,0.2,0.8,0.6,0.4,0.2,0.8,1,0
,,666b0a3508c2f3faa9cd0057,66fc9dbef4f2c861eb39a9de,2024-10-02_04h10.33.824,mdp,2024.2.1,Win32,59.88023952,66fa4ebf79326e780c390304,,,,,,,,,,,,,,,,,,,,,945.9734,945.9734,945.9761,947.3289,0,0,left,0.836,,947.3321,949.6873,1,0,right,949.691,951.1379,0,0,left,1,951.1381,951.1382,951.1418,952.6374,0,1,1,1,1,0.2,0.8,0.6,0.4,,,,,,,,,,,,,,,1.81,,0.6,0.4,0.6,0.4,0.2,0.8,0.6,0.4,,,0.9117,,0.2,0.8,0.2,0.8,0.6,0.4,0.2,0.8,1,0
,,666b0a3508c2f3faa9cd0057,66fc9dbef4f2c861eb39a9de,2024-10-02_04h10.33.824,mdp,2024.2.1,Win32,59.88023952,66fa4ebf79326e780c390304,,,,,,,,,,,,,,,,,,,,,952.6394,952.6395,952.6416,953.2058,0,1,left,0.0357,,953.2088,954.4546,0,1,left,954.4586,955.9544,0,0,left,1,955.9547,955.9547,955.9584,957.4545,0,2,2,2,1,0.2,0.8,0.6,0.4,,,,,,,,,,,,,,,0.7128,,0.6,0.4,0.6,0.4,0.4,0.6,0.2,0.8,,,0.9624,,0.2,0.8,0.2,0.8,0.6,0.4,0.2,0.8,1,0
,,666b0a3508c2f3faa9cd0057,66fc9dbef4f2c861eb39a9de,2024-10-02_04h10.33.824,mdp,2024.2.1,Win32,59.88023952,66fa4ebf79326e780c390304,,,,,,,,,,,,,,,,,,,,,957.4566,957.4567,957.4596,959.0061,0,1,left,1.0228,,959.0096,960.2095,0,1,left,960.212,961.3048,0,1,left,0,961.3049,961.3049,961.3091,962.8048,0,3,3,3,1,0.2,0.8,0.6,0.4,,,,,,,,,,,,,,,0.6768,,0.6,0.4,0.6,0.4,0.4,0.6,0.2,0.8,,,0.5691,,0.2,0.8,0.2,0.8,0.6,0.4,0.2,0.8,1,0
,,666b0a3508c2f3faa9cd0057,66fc9dbef4f2c861eb39a9de,2024-10-02_04h10.33.824,mdp,2024.2.1,Win32,59.88023952,66fa4ebf79326e780c390304,,,,,,,,,,,,,,,,,,,,,962.8078,962.8078,962.8103,964.0225,0,1,left,0.6848,,964.026,965.0882,0,1,left,965.092,966.1559,1,1,right,0,966.1561,966.1561,966.1591,967.6549,0,4,4,4,1,0.2,0.8,0.6,0.4,,,,,,,,,,,,,,,0.5362,,0.6,0.4,0.6,0.4,0.4,0.6,0.2,0.8,,,0.5399,,0.2,0.8,0.2,0.8,0.6,0.4,0.2,0.8,1,0
,,666b0a3508c2f3faa9cd0057,66fc9dbef4f2c861eb39a9de,2024-10-02_04h10.33.824,mdp,2024.2.1,Win32,59.88023952,66fa4ebf79326e780c390304,,,,,,,,,,,,,,,,,,,,,967.6571,967.6571,967.6594,968.9388,0,1,left,0.7523,,968.9421,969.7552,0,1,left,969.7587,970.5554,0,1,left,0,970.5555,970.5555,970.5589,972.055,0,5,5,5,1,0.2,0.8,0.6,0.4,,,,,,,,,,,,,,,0.3,,0.6,0.4,0.6,0.4,0.4,0.6,0.2,0.8,,,0.2673,,0.2,0.8,0.2,0.8,0.6,0.4,0.2,0.8,1,0
,,666b0a3508c2f3faa9cd0057,66fc9dbef4f2c861eb39a9de,2024-10-02_04h10.33.824,mdp,2024.2.1,Win32,59.88023952,66fa4ebf79326e780c390304,,,,,,,,,,,,,,,,,,,,,972.0573,972.0574,972.0598,973.0383,0,1,left,0.4524,,973.042,973.822,0,1,left,973.8255,974.7053,0,1,left,0,974.7055,974.7055,974.709,976.2054,0,6,6,6,1,0.2,0.8,0.6,0.4,,,,,,,,,,,,,,,0.2525,,0.6,0.4,0.6,0.4,0.4,0.6,0.2,0.8,,,0.367,,0.2,0.8,0.2,0.8,0.6,0.4,0.2,0.8,1,0
,,666b0a3508c2f3faa9cd0057,66fc9dbef4f2c861eb39a9de,2024-10-02_04h10.33.824,mdp,2024.2.1,Win32,59.88023952,66fa4ebf79326e780c390304,,,,,,,,,,,,,,,,,,,,,976.2065,976.2065,976.2098,977.1488,0,1,left,0.4185,,977.152,977.9828,0,1,left,977.9863,979.8334,1,1,right,0,979.8336,979.8337,979.837,981.3312,0,7,7,7,1,0.2,0.8,0.6,0.4,,,,,,,,,,,,,,,0.3026,,0.6,0.4,0.6,0.4,0.4,0.6,0.2,0.8,,,1.3196,,0.2,0.8,0.2,0.8,0.6,0.4,0.2,0.8,1,0
,,666b0a3508c2f3faa9cd0057,66fc9dbef4f2c861eb39a9de,2024-10-02_04h10.33.824,mdp,2024.2.1,Win32,59.88023952,66fa4ebf79326e780c390304,,,,,,,,,,,,,,,,,,,,,981.3333,981.3333,981.3362,982.8166,1,1,right,0.9527,,982.8205,983.9149,0,0,left,983.9183,984.8313,0,0,left,1,984.8319,984.8319,984.8352,986.3303,0,8,8,8,1,0.2,0.8,0.6,0.4,,,,,,,,,,,,,,,0.5673,,0.6,0.4,0.6,0.4,0.4,0.6,0.2,0.8,,,0.3832,,0.2,0.8,0.2,0.8,0.6,0.4,0.2,0.8,1,0
,,666b0a3508c2f3faa9cd0057,66fc9dbef4f2c861eb39a9de,2024-10-02_04h10.33.824,mdp,2024.2.1,Win32,59.88023952,66fa4ebf79326e780c390304,,,,,,,,,,,,,,,,,,,,,986.3323,986.3323,986.3348,986.8666,0,0,left,0.0015,,986.8702,988.3624,1,0,right,988.3662,989.8264,0,1,left,0,989.8265,989.8265,989.8298,991.3314,0,9,9,9,1,0.2,0.8,0.6,0.4,,,,,,,,,,,,,,,0.9618,,0.6,0.4,0.6,0.4,0.4,0.6,0.2,0.8,,,0.9286,,0.2,0.8,0.2,0.8,0.6,0.4,0.2,0.8,1,0
,,666b0a3508c2f3faa9cd0057,66fc9dbef4f2c861eb39a9de,2024-10-02_04h10.33.824,mdp,2024.2.1,Win32,59.88023952,66fa4ebf79326e780c390304,,,,,,,,,,,,,,,,,,,,,991.3333,991.3333,991.3357,992.5499,0,0,left,0.6856,,992.5532,994.3006,0,0,left,994.3043,995.4311,0,0,left,1,995.4316,995.4316,995.4348,996.9321,0,10,10,10,1,0.2,0.8,0.6,0.4,,,,,,,,,,,,,,,1.2198,,0.6,0.4,0.6,0.4,0.4,0.6,0.2,0.8,,,0.6091,,0.2,0.8,0.2,0.8,0.6,0.4,0.2,0.8,1,0
,,666b0a3508c2f3faa9cd0057,66fc9dbef4f2c861eb39a9de,2024-10-02_04h10.33.824,mdp,2024.2.1,Win32,59.88023952,66fa4ebf79326e780c390304,,,,,,,,,,,,,,,,,,,,,996.934,996.9341,996.9369,997.8656,0,1,left,0.4008,,997.8692,999.0076,0,0,left,999.0112,1000.4569,0,1,left,0,1000.4571,1000.4572,1000.461,1001.957,0,11,11,11,1,0.2,0.8,0.6,0.4,,,,,,,,,,,,,,,0.5907,,0.6,0.4,0.6,0.4,0.4,0.6,0.2,0.8,,,0.9178,,0.2,0.8,0.2,0.8,0.6,0.4,0.2,0.8,1,0
,,666b0a3508c2f3faa9cd0057,66fc9dbef4f2c861eb39a9de,2024-10-02_04h10.33.824,mdp,2024.2.1,Win32,59.88023952,66fa4ebf79326e780c390304,,,,,,,,,,,,,,,,,,,,,1001.959,1001.959,1001.9621,1003.057,0,0,left,0.5674,,1003.0611,1004.4905,1,0,right,1004.4943,1005.6239,0,1,left,0,1005.6241,1005.6241,1005.6278,1007.1237,0,12,12,12,1,0.2,0.8,0.6,0.4,,,,,,,,,,,,,,,0.9113,,0.6,0.4,0.6,0.4,0.8,0.2,0.4,0.6,,,0.6035,,0.2,0.8,0.2,0.8,0.6,0.4,0.2,0.8,1,0
,,666b0a3508c2f3faa9cd0057,66fc9dbef4f2c861eb39a9de,2024-10-02_04h10.33.824,mdp,2024.2.1,Win32,59.88023952,66fa4ebf79326e780c390304,,,,,,,,,,,,,,,,,,,,,1007.1257,1007.1257,1007.1288,1008.2078,0,0,left,0.5511,,1008.2115,1009.1576,0,0,left,1009.1614,1010.0577,0,1,left,0,1010.0578,1010.0578,1010.0614,1011.5576,0,13,13,13,1,0.2,0.8,0.6,0.4,,,,,,,,,,,,,,,0.4196,,0.6,0.4,0.6,0.4,0.8,0.2,0.4,0.6,,,0.3677,,0.2,0.8,0.2,0.8,0.6,0.4,0.2,0.8,1,0
,,666b0a3508c2f3faa9cd0057,66fc9dbef4f2c861eb39a9de,2024-10-02_04h10.33.824,mdp,2024.2.1,Win32,59.88023952,66fa4ebf79326e780c390304,,,,,,,,,,,,,,,,,,,,,1011.5602,1011.5604,1011.5628,1012.2066,0,1,left,0.1163,,1012.2083,1013.0741,0,0,left,1013.0778,1013.9409,1,1,right,0,1013.9411,1013.9411,1013.9449,1015.4414,0,14,14,14,1,0.2,0.8,0.6,0.4,,,,,,,,,,,,,,,0.3455,,0.6,0.4,0.6,0.4,0.8,0.2,0.4,0.6,,,0.3366,,0.2,0.8,0.2,0.8,0.4,0.6,0.6,0.4,1,0
,,666b0a3508c2f3faa9cd0057,66fc9dbef4f2c861eb39a9de,2024-10-02_04h10.33.824,mdp,2024.2.1,Win32,59.88023952,66fa4ebf79326e780c390304,,,,,,,,,,,,,,,,,,,,,1015.4437,1015.4437,1015.4461,1016.2243,0,1,left,0.2519,,1016.2278,1017.1914,1,0,right,1017.1951,1018.0092,0,1,left,0,1018.0093,1018.0094,1018.0126,1019.5083,0,15,15,15,1,0.2,0.8,0.6,0.4,,,,,,,,,,,,,,,0.4352,,0.6,0.4,0.6,0.4,0.8,0.2,0.4,0.6,,,0.2897,,0.2,0.8,0.2,0.8,0.4,0.6,0.6,0.4,1,0
,,666b0a3508c2f3faa9cd0057,66fc9dbef4f2c861eb39a9de,2024-10-02_04h10.33.824,mdp,2024.2.1,Win32,59.88023952,66fa4ebf79326e780c390304,,,,,,,,,,,,,,,,,,,,,1019.5108,1019.5108,1019.5135,1020.6081,1,0,right,0.5676,,1020.6121,1021.608,1,0,right,1021.6115,1022.5754,1,1,right,0,1022.5755,1022.5755,1022.5787,1024.0748,0,16,16,16,1,0.2,0.8,0.6,0.4,,,,,,,,,,,,,,,0.4659,,0.6,0.4,0.6,0.4,0.8,0.2,0.4,0.6,,,0.4349,,0.2,0.8,0.2,0.8,0.4,0.6,0.6,0.4,1,0
,,666b0a3508c2f3faa9cd0057,66fc9dbef4f2c861eb39a9de,2024-10-02_04h10.33.824,mdp,2024.2.1,Win32,59.88023952,66fa4ebf79326e780c390304,,,,,,,,,,,,,,,,,,,,,1024.0769,1024.0771,1024.0797,1026.8747,0,1,left,2.2676,,1026.8786,1028.4925,1,1,right,1028.4957,1029.6418,0,0,left,1,1029.6421,1029.6421,1029.6452,1031.1418,0,17,17,17,1,0.2,0.8,0.6,0.4,,,,,,,,,,,,,,,1.0797,,0.6,0.4,0.6,0.4,0.8,0.2,0.4,0.6,,,0.6128,,0.2,0.8,0.2,0.8,0.4,0.6,0.6,0.4,1,0
,,666b0a3508c2f3faa9cd0057,66fc9dbef4f2c861eb39a9de,2024-10-02_04h10.33.824,mdp,2024.2.1,Win32,59.88023952,66fa4ebf79326e780c390304,,,,,,,,,,,,,,,,,,,,,1031.1437,1031.1438,1031.1467,1032.342,0,1,left,0.6683,,1032.3459,1033.6582,1,1,right,1033.6615,1034.7949,0,1,left,0,1034.7951,1034.7951,1034.7986,1036.3016,0,18,18,18,1,0.2,0.8,0.6,0.4,,,,,,,,,,,,,,,0.7844,,0.6,0.4,0.6,0.4,0.8,0.2,0.4,0.6,,,0.611,,0.2,0.8,0.2,0.8,0.4,0.6,0.6,0.4,1,0
,,666b0a3508c2f3faa9cd0057,66fc9dbef4f2c861eb39a9de,2024-10-02_04h10.33.824,mdp,2024.2.1,Win32,59.88023952,66fa4ebf79326e780c390304,,,,,,,,,,,,,,,,,,,,,1036.3024,1036.3024,1036.3037,1037.2752,1,0,right,0.4508,,1037.2771,1039.5257,1,1,right,1039.5288,1040.7423,0,1,left,0,1040.7424,1040.7425,1040.7456,1042.2425,0,19,19,19,1,0.2,0.8,0.6,0.4,,,,,,,,,,,,,,,1.7172,,0.6,0.4,0.6,0.4,0.8,0.2,0.4,0.6,,,0.6847,,0.2,0.8,0.2,0.8,0.4,0.6,0.6,0.4,1,0
,,666b0a3508c2f3faa9cd0057,66fc9dbef4f2c861eb39a9de,2024-10-02_04h10.33.824,mdp,2024.2.1,Win32,59.88023952,66fa4ebf79326e780c390304,,,,,,,,,,,,,,,,,,,,,1042.2449,1042.2449,1042.2469,1042.7757,1,0,right,0.0038,,1042.7787,1043.809,1,1,right,1043.8131,1046.4173,1,0,right,1,1046.4176,1046.4177,1046.4201,1047.9097,0,20,20,20,1,0.2,0.8,0.6,0.4,,,,,,,,,,,,,,,0.5027,,0.6,0.4,0.6,0.4,0.8,0.2,0.4,0.6,,,2.0805,,0.2,0.8,0.2,0.8,0.4,0.6,0.6,0.4,1,0
,,666b0a3508c2f3faa9cd0057,66fc9dbef4f2c861eb39a9de,2024-10-02_04h10.33.824,mdp,2024.2.1,Win32,59.88023952,66fa4ebf79326e780c390304,,,,,,,,,,,,,,,,,,,,,1047.9118,1047.9119,1047.9142,1049.043,1,1,right,0.6021,,1049.0462,1050.2532,1,1,right,1050.2564,1051.37,1,0,right,1,1051.3701,1051.3702,1051.3732,1052.8686,0,21,21,21,1,0.2,0.8,0.6,0.4,,,,,,,,,,,,,,,0.6852,,0.6,0.4,0.6,0.4,0.6,0.4,0.2,0.8,,,0.5865,,0.2,0.8,0.2,0.8,0.4,0.6,0.6,0.4,1,0
,,666b0a3508c2f3faa9cd0057,66fc9dbef4f2c861eb39a9de,2024-10-02_04h10.33.824,mdp,2024.2.1,Win32,59.88023952,66fa4ebf79326e780c390304,,,,,,,,,,,,,,,,,,,,,1052.8709,1052.8709,1052.8735,1066.2454,1,0,right,12.8383,,1066.2477,1067.1286,1,1,right,1067.1308,1068.1954,1,1,right,0,1068.1956,1068.1956,1068.1979,1069.6951,0,22,22,22,1,0.2,0.8,0.6,0.4,,,,,,,,,,,,,,,0.3434,,0.6,0.4,0.6,0.4,0.6,0.4,0.2,0.8,,,0.5379,,0.2,0.8,0.2,0.8,0.8,0.2,0.2,0.8,1,0
,,666b0a3508c2f3faa9cd0057,66fc9dbef4f2c861eb39a9de,2024-10-02_04h10.33.824,mdp,2024.2.1,Win32,59.88023952,66fa4ebf79326e780c390304,,,,,,,,,,,,,,,,,,,,,1069.696,1069.6961,1069.6982,1070.3122,0,1,left,0.0867,,1070.3145,1071.3619,0,1,left,1071.3641,1072.2109,1,1,right,0,1072.2109,1072.2109,1072.2121,1073.7128,0,23,23,23,1,0.2,0.8,0.6,0.4,,,,,,,,,,,,,,,0.5163,,0.6,0.4,0.6,0.4,0.6,0.4,0.2,0.8,,,0.3337,,0.2,0.8,0.2,0.8,0.8,0.2,0.2,0.8,1,0
,,666b0a3508c2f3faa9cd0057,66fc9dbef4f2c861eb39a9de,2024-10-02_04h10.33.824,mdp,2024.2.1,Win32,59.88023952,66fa4ebf79326e780c390304,,,,,,,,,,,,,,,,,,,,,1073.7135,1073.7136,1073.7156,1074.9622,1,0,right,0.7179,,1074.9642,1075.8142,0,1,left,1075.8167,1076.6135,1,1,right,0,1076.6137,1076.6137,1076.6158,1078.1125,0,24,24,24,1,0.2,0.8,0.6,0.4,,,,,,,,,,,,,,,0.3211,,0.6,0.4,0.6,0.4,0.6,0.4,0.2,0.8,,,0.2766,,0.2,0.8,0.2,0.8,0.8,0.2,0.2,0.8,1,0
,,666b0a3508c2f3faa9cd0057,66fc9dbef4f2c861eb39a9de,2024-10-02_04h10.33.824,mdp,2024.2.1,Win32,59.88023952,66fa4ebf79326e780c390304,,,,,,,,,,,,,,,,,,,,,1078.1134,1078.1134,1078.1153,1078.6958,0,1,left,0.0511,,1078.698,1079.5288,0,0,left,1079.5309,1080.4293,0,1,left,0,1080.4294,1080.4294,1080.4314,1081.9298,0,25,25,25,1,0.2,0.8,0.6,0.4,,,,,,,,,,,,,,,0.2985,,0.6,0.4,0.6,0.4,0.6,0.4,0.2,0.8,,,0.3798,,0.2,0.8,0.2,0.8,0.8,0.2,0.2,0.8,1,0
,,666b0a3508c2f3faa9cd0057,66fc9dbef4f2c861eb39a9de,2024-10-02_04h10.33.824,mdp,2024.2.1,Win32,59.88023952,66fa4ebf79326e780c390304,,,,,,,,,,,,,,,,,,,,,1081.9308,1081.9309,1081.9333,1083.0779,1,0,right,0.6205,,1083.0794,1083.9825,0,0,left,1083.9845,1084.7798,1,1,right,0,1084.7799,1084.7799,1084.7821,1086.2799,0,26,26,26,1,0.2,0.8,0.6,0.4,,,,,,,,,,,,,,,0.3511,,0.6,0.4,0.6,0.4,0.6,0.4,0.2,0.8,,,0.2678,,0.2,0.8,0.2,0.8,0.8,0.2,0.2,0.8,1,0
,,666b0a3508c2f3faa9cd0057,66fc9dbef4f2c861eb39a9de,2024-10-02_04h10.33.824,mdp,2024.2.1,Win32,59.88023952,66fa4ebf79326e780c390304,,,,,,,,,,,,,,,,,,,,,1086.2809,1086.2809,1086.2831,1086.8629,1,0,right,0.0509,,1086.8652,1087.7299,0,0,left,1087.7324,1088.6306,0,1,left,0,1088.6308,1088.6308,1088.633,1090.1298,0,27,27,27,1,0.2,0.8,0.6,0.4,,,,,,,,,,,,,,,0.3513,,0.6,0.4,0.6,0.4,0.6,0.4,0.2,0.8,,,0.3686,,0.2,0.8,0.2,0.8,0.8,0.2,0.2,0.8,1,0
,,666b0a3508c2f3faa9cd0057,66fc9dbef4f2c861eb39a9de,2024-10-02_04h10.33.824,mdp,2024.2.1,Win32,59.88023952,66fa4ebf79326e780c390304,,,,,,,,,,,,,,,,,,,,,1090.1302,1090.1302,1090.1313,1091.0132,0,0,left,0.3511,,1091.0152,1092.1298,1,0,right,1092.1324,1093.0805,0,1,left,0,1093.0806,1093.0806,1093.083,1094.5806,0,28,28,28,1,0.2,0.8,0.6,0.4,,,,,,,,,,,,,,,0.588,,0.6,0.4,0.6,0.4,0.6,0.4,0.2,0.8,,,0.4348,,0.2,0.8,0.2,0.8,0.8,0.2,0.2,0.8,1,0
,,666b0a3508c2f3faa9cd0057,66fc9dbef4f2c861eb39a9de,2024-10-02_04h10.33.824,mdp,2024.2.1,Win32,59.88023952,66fa4ebf79326e780c390304,,,,,,,,,,,,,,,,,,,,,1094.5815,1094.5815,1094.584,1095.1807,1,0,right,0.0682,,1095.1838,1096.0971,0,0,left,1096.0995,1096.964,1,1,right,0,1096.964,1096.964,1096.9666,1098.4637,0,29,29,29,1,0.2,0.8,0.6,0.4,,,,,,,,,,,,,,,0.3844,,0.6,0.4,0.6,0.4,0.2,0.8,0.4,0.6,,,0.3347,,0.2,0.8,0.2,0.8,0.8,0.2,0.2,0.8,1,0
,,666b0a3508c2f3faa9cd0057,66fc9dbef4f2c861eb39a9de,2024-10-02_04h10.33.824,mdp,2024.2.1,Win32,59.88023952,66fa4ebf79326e780c390304,,,,,,,,,,,,,,,,,,,,,1098.4646,1098.4646,1098.4671,1099.5805,0,1,left,0.6051,,1099.5828,1100.4787,0,1,left,1100.4801,1101.4976,0,0,left,1,1101.4977,1101.4977,1101.5003,1102.9964,0,30,30,30,1,0.8,0.2,0.2,0.8,,,,,,,,,,,,,,,0.3605,,0.6,0.4,0.6,0.4,0.2,0.8,0.4,0.6,,,0.4936,,0.2,0.8,0.2,0.8,0.8,0.2,0.2,0.8,1,0
,,666b0a3508c2f3faa9cd0057,66fc9dbef4f2c861eb39a9de,2024-10-02_04h10.33.824,mdp,2024.2.1,Win32,59.88023952,66fa4ebf79326e780c390304,,,,,,,,,,,,,,,,,,,,,1102.9979,1102.998,1103.0004,1104.1813,0,0,left,0.6506,,1104.1839,1105.134,0,0,left,1105.1381,1105.9636,0,1,left,0,1105.9638,1105.9638,1105.9658,1107.4625,0,31,31,31,1,0.8,0.2,0.2,0.8,,,,,,,,,,,,,,,0.4205,,0.6,0.4,0.6,0.4,0.2,0.8,0.4,0.6,,,0.2964,,0.2,0.8,0.2,0.8,0.8,0.2,0.2,0.8,1,0
,,666b0a3508c2f3faa9cd0057,66fc9dbef4f2c861eb39a9de,2024-10-02_04h10.33.824,mdp,2024.2.1,Win32,59.88023952,66fa4ebf79326e780c390304,,,,,,,,,,,,,,,,,,,,,1107.4631,1107.4631,1107.4641,1108.1132,1,0,right,0.12,,1108.1144,1108.9471,1,0,right,1108.9483,1109.7815,1,1,right,0,1109.7816,1109.7817,1109.7841,1111.2813,0,32,32,32,1,0.8,0.2,0.2,0.8,,,,,,,,,,,,,,,0.3097,,0.6,0.4,0.6,0.4,0.2,0.8,0.4,0.6,,,0.318,,0.2,0.8,0.2,0.8,0.8,0.2,0.2,0.8,1,0
,,666b0a3508c2f3faa9cd0057,66fc9dbef4f2c861eb39a9de,2024-10-02_04h10.33.824,mdp,2024.2.1,Win32,59.88023952,66fa4ebf79326e780c390304,,,,,,,,,,,,,,,,,,,,,1111.2823,1111.2824,1111.2848,1112.3646,1,0,right,0.5515,,1112.367,1113.298,0,1,left,1113.301,1113.8979,1,1,right,0,1113.8981,1113.8981,1113.9009,1115.3984,0,33,33,33,1,0.8,0.2,0.2,0.8,,,,,,,,,,,,,,,0.405,,0.6,0.4,0.6,0.4,0.2,0.8,0.4,0.6,,,0.0798,,0.2,0.8,0.2,0.8,0.8,0.2,0.2,0.8,1,0
,,666b0a3508c2f3faa9cd0057,66fc9dbef4f2c861eb39a9de,2024-10-02_04h10.33.824,mdp,2024.2.1,Win32,59.88023952,66fa4ebf79326e780c390304,,,,,,,,,,,,,,,,,,,,,1115.3993,1115.3994,1115.4018,1116.4147,0,0,left,0.4847,,1116.4173,1117.4173,0,0,left,1117.4214,1118.3484,0,1,left,0,1118.3487,1118.3487,1118.351,1119.8488,0,34,34,34,1,0.4,0.6,0.6,0.4,,,,,,,,,,,,,,,0.4881,,0.6,0.4,0.6,0.4,0.2,0.8,0.4,0.6,,,0.3933,,0.2,0.8,0.2,0.8,0.8,0.2,0.2,0.8,1,0
,,666b0a3508c2f3faa9cd0057,66fc9dbef4f2c861eb39a9de,2024-10-02_04h10.33.824,mdp,2024.2.1,Win32,59.88023952,66fa4ebf79326e780c390304,,,,,,,,,,,,,,,,,,,,,1119.8499,1119.8499,1119.8523,1121.0148,1,1,right,0.6389,,1121.0173,1121.8824,0,1,left,1121.8847,1122.8822,1,1,right,0,1122.8823,1122.8823,1122.8853,1124.382,0,35,35,35,1,0.4,0.6,0.6,0.4,,,,,,,,,,,,,,,0.3452,,0.6,0.4,0.6,0.4,0.2,0.8,0.4,0.6,,,0.4603,,0.2,0.8,0.2,0.8,0.8,0.2,0.2,0.8,1,0
,,666b0a3508c2f3faa9cd0057,66fc9dbef4f2c861eb39a9de,2024-10-02_04h10.33.824,mdp,2024.2.1,Win32,59.88023952,66fa4ebf79326e780c390304,,,,,,,,,,,,,,,,,,,,,1124.3829,1124.3829,1124.3851,1124.9999,1,1,right,0.0932,,1125.0021,1125.7649,1,1,right,1125.7673,1126.582,0,0,left,1,1126.5822,1126.5822,1126.5847,1128.0824,0,36,36,36,1,0.6,0.4,0.2,0.8,,,,,,,,,,,,,,,0.2388,,0.6,0.4,0.6,0.4,0.2,0.8,0.4,0.6,,,0.2845,,0.2,0.8,0.2,0.8,0.8,0.2,0.2,0.8,1,0
,,666b0a3508c2f3faa9cd0057,66fc9dbef4f2c861eb39a9de,2024-10-02_04h10.33.824,mdp,2024.2.1,Win32,59.88023952,66fa4ebf79326e780c390304,,,,,,,,,,,,,,,,,,,,,1128.0833,1128.0833,1128.0855,1129.1489,1,0,right,0.5345,,1129.1514,1130.199,1,0,right,1130.2018,1132.3658,0,1,left,0,1132.366,1132.366,1132.3683,1133.8673,0,37,37,37,1,0.6,0.4,0.2,0.8,,,,,,,,,,,,,,,0.5128,,0.6,0.4,0.6,0.4,0.2,0.8,0.4,0.6,,,1.6288,,0.2,0.8,0.2,0.8,0.8,0.2,0.2,0.8,1,0
,,666b0a3508c2f3faa9cd0057,66fc9dbef4f2c861eb39a9de,2024-10-02_04h10.33.824,mdp,2024.2.1,Win32,59.88023952,66fa4ebf79326e780c390304,,,,,,,,,,,,,,,,,,,,,1133.8687,1133.8688,1133.8723,1135.1188,1,0,right,0.728,,1135.1216,1136.4324,1,1,right,1136.4348,1137.7326,0,1,left,0,1137.7327,1137.7328,1137.7348,1139.2326,0,38,38,38,1,0.6,0.4,0.2,0.8,,,,,,,,,,,,,,,0.7861,,0.6,0.4,0.6,0.4,0.2,0.8,0.4,0.6,,,0.7624,,0.2,0.8,0.2,0.8,0.8,0.2,0.2,0.8,1,0
,,666b0a3508c2f3faa9cd0057,66fc9dbef4f2c861eb39a9de,2024-10-02_04h10.33.824,mdp,2024.2.1,Win32,59.88023952,66fa4ebf79326e780c390304,,,,,,,,,,,,,,,,,,,,,1139.2335,1139.2336,1139.2355,1139.9024,0,0,left,0.1441,,1139.9048,1140.7331,0,0,left,1140.7356,1141.7165,1,0,right,1,1141.7166,1141.7167,1141.7193,1143.2187,0,39,39,39,1,0.6,0.4,0.2,0.8,,,,,,,,,,,,,,,0.302,,0.6,0.4,0.6,0.4,0.2,0.8,0.4,0.6,,,0.4425,,0.2,0.8,0.2,0.8,0.8,0.2,0.2,0.8,1,0
,,666b0a3508c2f3faa9cd0057,66fc9dbef4f2c861eb39a9de,2024-10-02_04h10.33.824,mdp,2024.2.1,Win32,59.88023952,66fa4ebf79326e780c390304,,,,,,,,,,,,,,,,,,,,,1143.2199,1143.22,1143.2226,1143.9666,0,1,left,0.2181,,1143.9691,1144.9668,0,1,left,1144.9694,1145.8182,1,1,right,0,1145.8185,1145.8186,1145.8214,1147.3167,0,40,40,40,1,0.6,0.4,0.2,0.8,,,,,,,,,,,,,,,0.4593,,0.6,0.4,0.6,0.4,0.2,0.8,0.4,0.6,,,0.3092,,0.2,0.8,0.2,0.8,0.8,0.2,0.2,0.8,1,0
,,666b0a3508c2f3faa9cd0057,66fc9dbef4f2c861eb39a9de,2024-10-02_04h10.33.824,mdp,2024.2.1,Win32,59.88023952,66fa4ebf79326e780c390304,,,,,,,,,,,,,,,,,,,,,1147.3178,1147.3179,1147.3202,1148.2168,0,0,left,0.3682,,1148.2193,1149.0527,0,1,left,1149.0557,1149.9666,0,0,left,1,1149.9668,1149.9668,1149.9688,1151.4666,0,41,41,41,1,0.6,0.4,0.2,0.8,,,,,,,,,,,,,,,0.3023,,0.6,0.4,0.6,0.4,0.2,0.8,0.4,0.6,,,0.3862,,0.2,0.8,0.2,0.8,0.8,0.2,0.2,0.8,1,0
,,666b0a3508c2f3faa9cd0057,66fc9dbef4f2c861eb39a9de,2024-10-02_04h10.33.824,mdp,2024.2.1,Win32,59.88023952,66fa4ebf79326e780c390304,,,,,,,,,,,,,,,,,,,,,1151.4675,1151.4675,1151.4696,1152.4333,0,0,left,0.4347,,1152.4357,1153.2833,0,0,left,1153.2856,1154.3665,0,1,left,0,1154.3671,1154.3671,1154.3693,1155.867,0,42,42,42,1,0.6,0.4,0.2,0.8,,,,,,,,,,,,,,,0.3209,,0.6,0.4,0.6,0.4,0.2,0.8,0.4,0.6,,,0.5452,,0.2,0.8,0.2,0.8,0.8,0.2,0.2,0.8,1,0
,,666b0a3508c2f3faa9cd0057,66fc9dbef4f2c861eb39a9de,2024-10-02_04h10.33.824,mdp,2024.2.1,Win32,59.88023952,66fa4ebf79326e780c390304,,,,,,,,,,,,,,,,,,,,,1155.8679,1155.8679,1155.8699,1156.4168,1,1,right,0.0179,,1156.4189,1157.2336,1,1,right,1157.2368,1158.068,1,1,right,0,1158.0681,1158.0681,1158.07,1159.5671,0,43,43,43,1,0.6,0.4,0.2,0.8,,,,,,,,,,,,,,,0.2939,,0.6,0.4,0.6,0.4,0.2,0.8,0.4,0.6,,,0.3021,,0.2,0.8,0.2,0.8,0.8,0.2,0.2,0.8,1,0
,,666b0a3508c2f3faa9cd0057,66fc9dbef4f2c861eb39a9de,2024-10-02_04h10.33.824,mdp,2024.2.1,Win32,59.88023952,66fa4ebf79326e780c390304,,,,,,,,,,,,,,,,,,,,,1159.568,1159.568,1159.57,1160.1671,0,0,left,0.0681,,1160.1694,1160.9506,1,0,right,1160.9528,1161.851,0,1,left,0,1161.8511,1161.8511,1161.8535,1163.3508,0,44,44,44,1,0.6,0.4,0.2,0.8,,,,,,,,,,,,,,,0.2461,,0.6,0.4,0.6,0.4,0.2,0.8,0.4,0.6,,,0.3764,,0.4,0.6,0.8,0.2,0.8,0.2,0.2,0.8,1,0
,,666b0a3508c2f3faa9cd0057,66fc9dbef4f2c861eb39a9de,2024-10-02_04h10.33.824,mdp,2024.2.1,Win32,59.88023952,66fa4ebf79326e780c390304,,,,,,,,,,,,,,,,,,,,,1163.3516,1163.3516,1163.3536,1164.3338,1,1,right,0.4552,,1164.336,1165.2007,1,0,right,1165.2028,1166.2846,0,1,left,0,1166.2847,1166.2847,1166.2873,1167.7841,0,45,45,45,1,0.6,0.4,0.2,0.8,,,,,,,,,,,,,,,0.341,,0.6,0.4,0.6,0.4,0.2,0.8,0.4,0.6,,,0.5516,,0.4,0.6,0.8,0.2,0.8,0.2,0.2,0.8,1,0
,,666b0a3508c2f3faa9cd0057,66fc9dbef4f2c861eb39a9de,2024-10-02_04h10.33.824,mdp,2024.2.1,Win32,59.88023952,66fa4ebf79326e780c390304,,,,,,,,,,,,,,,,,,,,,1167.785,1167.7851,1167.7878,1169.0867,0,0,left,0.7772,,1169.0888,1170.3662,0,1,left,1170.3676,1171.6348,0,0,left,1,1171.6349,1171.635,1171.6374,1173.1343,0,46,46,46,1,0.6,0.4,0.2,0.8,,,,,,,,,,,,,,,0.7443,,0.6,0.4,0.6,0.4,0.2,0.8,0.4,0.6,,,0.7419,,0.4,0.6,0.8,0.2,0.4,0.6,0.6,0.4,1,0
,,666b0a3508c2f3faa9cd0057,66fc9dbef4f2c861eb39a9de,2024-10-02_04h10.33.824,mdp,2024.2.1,Win32,59.88023952,66fa4ebf79326e780c390304,,,,,,,,,,,,,,,,,,,,,1173.1354,1173.1354,1173.1376,1174.7518,0,1,left,1.0852,,1174.7543,1175.6516,0,1,left,1175.6541,1176.854,1,0,right,1,1176.8541,1176.8541,1176.8563,1178.3516,0,47,47,47,1,0.6,0.4,0.2,0.8,,,,,,,,,,,,,,,0.364,,0.6,0.4,0.6,0.4,0.2,0.8,0.4,0.6,,,0.677,,0.4,0.6,0.8,0.2,0.4,0.6,0.6,0.4,1,0
,,666b0a3508c2f3faa9cd0057,66fc9dbef4f2c861eb39a9de,2024-10-02_04h10.33.824,mdp,2024.2.1,Win32,59.88023952,66fa4ebf79326e780c390304,,,,,,,,,,,,,,,,,,,,,1178.3525,1178.3525,1178.3546,1179.8014,1,1,right,0.9226,,1179.8036,1180.7355,0,0,left,1180.7381,1181.8521,0,1,left,0,1181.8522,1181.8522,1181.8546,1183.3517,0,48,48,48,1,0.6,0.4,0.2,0.8,,,,,,,,,,,,,,,0.4033,,0.6,0.4,0.6,0.4,0.4,0.6,0.8,0.2,,,0.577,,0.4,0.6,0.8,0.2,0.4,0.6,0.6,0.4,1,0
,,666b0a3508c2f3faa9cd0057,66fc9dbef4f2c861eb39a9de,2024-10-02_04h10.33.824,mdp,2024.2.1,Win32,59.88023952,66fa4ebf79326e780c390304,,,,,,,,,,,,,,,,,,,,,1183.3528,1183.3528,1183.3551,1184.4541,1,1,right,0.5771,,1184.4566,1185.3356,1,0,right,1185.3382,1186.6716,0,0,left,1,1186.6717,1186.6718,1186.6747,1188.1691,0,49,49,49,1,0.6,0.4,0.2,0.8,,,,,,,,,,,,,,,0.3527,,0.6,0.4,0.6,0.4,0.4,0.6,0.8,0.2,,,0.811,,0.4,0.6,0.8,0.2,0.4,0.6,0.6,0.4,1,0
,,666b0a3508c2f3faa9cd0057,66fc9dbef4f2c861eb39a9de,2024-10-02_04h10.33.824,mdp,2024.2.1,Win32,59.88023952,66fa4ebf79326e780c390304,,,,,,,,,,,,,,,,,,,,,,,,,,,,,,,,,,,,,,,,,,,,,,,,,,,,,,,,1188.1695,1246.6891,0,3,3,5,1,imgs/kangaroo.png,imgs/giraffe.png,imgs/cat.png,imgs/goat.png,imgs/pig.png,,,,,,,,,,,,,,,,,,,,,,,,
,,666b0a3508c2f3faa9cd0057,66fc9dbef4f2c861eb39a9de,2024-10-02_04h10.33.824,mdp,2024.2.1,Win32,59.88023952,66fa4ebf79326e780c390304,,,,,,,,,,,,,,1,seqs/st1seq21.csv,1246.6921,1249.1335,space,1.9205,,1249.1433,1249.1433,1249.1458,1252.0376,0,1,left,2.3604,,1252.0417,1252.0433,1,0,,1252.0453,1252.0468,0,0,,0,1252.0469,1252.047,1252.0485,1253.5378,0,0,0,0,1,0.8,0.2,0.4,0.6,1,0,,,,,,,,,,,,,,,,,,,,,,,,,,,,,,,,,,,,
,,666b0a3508c2f3faa9cd0057,66fc9dbef4f2c861eb39a9de,2024-10-02_04h10.33.824,mdp,2024.2.1,Win32,59.88023952,66fa4ebf79326e780c390304,,,,,,,,,,,,,,,,,,,,,1253.5396,1253.5399,1253.542,1254.8307,1,0,right,0.7656,,1254.8334,1254.8348,1,1,,1254.8371,1254.8385,0,1,,1,1254.8386,1254.8386,1254.8401,1256.3378,0,1,1,1,1,0.8,0.2,0.4,0.6,1,0,,,,,,,,,,,,,,,,,,,,,,,,,,,,,,,,,,,,
,,666b0a3508c2f3faa9cd0057,66fc9dbef4f2c861eb39a9de,2024-10-02_04h10.33.824,mdp,2024.2.1,Win32,59.88023952,66fa4ebf79326e780c390304,,,,,,,,,,,,,,,,,,,,,1256.3396,1256.3396,1256.3423,1257.421,1,0,right,0.5559,,1257.4244,1257.4258,1,1,,1257.4281,1257.4294,0,1,,1,1257.4294,1257.4295,1257.4311,1258.9215,0,2,2,2,1,0.8,0.2,0.4,0.6,1,0,,,,,,,,,,,,,,,,,,,,,,,,,,,,,,,,,,,,
,,666b0a3508c2f3faa9cd0057,66fc9dbef4f2c861eb39a9de,2024-10-02_04h10.33.824,mdp,2024.2.1,Win32,59.88023952,66fa4ebf79326e780c390304,,,,,,,,,,,,,,,,,,,,,1258.9231,1258.9232,1258.9259,1260.1549,1,1,right,0.7015,,1260.1584,1260.1599,1,1,,1260.162,1260.1634,0,0,,0,1260.1635,1260.1635,1260.165,1261.6551,0,3,3,3,1,0.6,0.4,0.2,0.8,1,0,,,,,,,,,,,,,,,,,,,,,,,,,,,,,,,,,,,,
,,666b0a3508c2f3faa9cd0057,66fc9dbef4f2c861eb39a9de,2024-10-02_04h10.33.824,mdp,2024.2.1,Win32,59.88023952,66fa4ebf79326e780c390304,,,,,,,,,,,,,,,,,,,,,1261.6571,1261.6571,1261.6594,1262.6047,0,0,left,0.4194,,1262.609,1262.6104,1,1,,1262.6122,1262.6136,0,1,,1,1262.6136,1262.6137,1262.6152,1264.1045,0,4,4,4,1,0.6,0.4,0.2,0.8,1,0,,,,,,,,,,,,,,,,,,,,,,,,,,,,,,,,,,,,
,,666b0a3508c2f3faa9cd0057,66fc9dbef4f2c861eb39a9de,2024-10-02_04h10.33.824,mdp,2024.2.1,Win32,59.88023952,66fa4ebf79326e780c390304,,,,,,,,,,,,,,,,,,,,,1264.1064,1264.1065,1264.1092,1264.9728,1,1,right,0.3403,,1264.9757,1264.9772,1,0,,1264.9791,1264.9803,0,1,,0,1264.9804,1264.9804,1264.9818,1266.4715,0,5,5,5,1,0.6,0.4,0.2,0.8,1,0,,,,,,,,,,,,,,,,,,,,,,,,,,,,,,,,,,,,
,,666b0a3508c2f3faa9cd0057,66fc9dbef4f2c861eb39a9de,2024-10-02_04h10.33.824,mdp,2024.2.1,Win32,59.88023952,66fa4ebf79326e780c390304,,,,,,,,,,,,,,,,,,,,,1266.4733,1266.4733,1266.4758,1267.9376,0,0,left,0.932,,1267.9392,1267.94,1,1,,1267.9408,1267.9413,0,1,,1,1267.9413,1267.9413,1267.9418,1269.4383,0,6,6,6,1,0.6,0.4,0.2,0.8,1,0,,,,,,,,,,,,,,,,,,,,,,,,,,,,,,,,,,,,
,,666b0a3508c2f3faa9cd0057,66fc9dbef4f2c861eb39a9de,2024-10-02_04h10.33.824,mdp,2024.2.1,Win32,59.88023952,66fa4ebf79326e780c390304,,,,,,,,,,,,,,,,,,,,,1269.4391,1269.4391,1269.4423,1270.4052,0,0,left,0.4347,,1270.4089,1270.4103,1,0,,1270.412,1270.4135,0,0,,1,1270.4136,1270.4137,1270.4155,1271.9054,0,7,7,7,1,0.8,0.2,0.6,0.4,1,0,,,,,,,,,,,,,,,,,,,,,,,,,,,,,,,,,,,,
,,666b0a3508c2f3faa9cd0057,66fc9dbef4f2c861eb39a9de,2024-10-02_04h10.33.824,mdp,2024.2.1,Win32,59.88023952,66fa4ebf79326e780c390304,,,,,,,,,,,,,,,,,,,,,1271.9073,1271.9073,1271.9095,1272.8076,0,1,left,0.3689,,1272.8117,1272.8135,1,1,,1272.8171,1272.8184,0,1,,0,1272.8186,1272.8186,1272.82,1274.3143,0,8,8,8,1,0.4,0.6,0.8,0.2,1,0,,,,,,,,,,,,,,,,,,,,,,,,,,,,,,,,,,,,
,,666b0a3508c2f3faa9cd0057,66fc9dbef4f2c861eb39a9de,2024-10-02_04h10.33.824,mdp,2024.2.1,Win32,59.88023952,66fa4ebf79326e780c390304,,,,,,,,,,,,,,,,,,,,,1274.3162,1274.3162,1274.3189,1275.7489,0,1,left,0.9191,,1275.7519,1275.7537,1,0,,1275.7562,1275.7576,0,1,,0,1275.7578,1275.7578,1275.7597,1277.2567,0,9,9,9,1,0.4,0.6,0.8,0.2,1,0,,,,,,,,,,,,,,,,,,,,,,,,,,,,,,,,,,,,
,,666b0a3508c2f3faa9cd0057,66fc9dbef4f2c861eb39a9de,2024-10-02_04h10.33.824,mdp,2024.2.1,Win32,59.88023952,66fa4ebf79326e780c390304,,,,,,,,,,,,,,,,,,,,,1277.2573,1277.2573,1277.2584,1278.2219,0,1,left,0.4348,,1278.2238,1278.2247,1,0,,1278.2256,1278.2262,0,0,,0,1278.2263,1278.2263,1278.227,1279.7225,0,10,10,10,1,0.4,0.6,0.8,0.2,1,0,,,,,,,,,,,,,,,,,,,,,,,,,,,,,,,,,,,,
,,666b0a3508c2f3faa9cd0057,66fc9dbef4f2c861eb39a9de,2024-10-02_04h10.33.824,mdp,2024.2.1,Win32,59.88023952,66fa4ebf79326e780c390304,,,,,,,,,,,,,,,,,,,,,1279.7246,1279.7246,1279.7276,1280.589,1,0,right,0.3344,,1280.5927,1280.5943,1,0,,1280.5961,1280.5977,0,1,,1,1280.5978,1280.5978,1280.5995,1282.0978,0,11,11,11,1,0.4,0.6,0.8,0.2,1,0,,,,,,,,,,,,,,,,,,,,,,,,,,,,,,,,,,,,
,,666b0a3508c2f3faa9cd0057,66fc9dbef4f2c861eb39a9de,2024-10-02_04h10.33.824,mdp,2024.2.1,Win32,59.88023952,66fa4ebf79326e780c390304,,,,,,,,,,,,,,,,,,,,,1282.0995,1282.0996,1282.1024,1283.2826,1,0,right,0.652,,1283.2851,1283.2864,1,0,,1283.2885,1283.2896,0,0,,1,1283.2897,1283.2897,1283.2909,1284.7804,0,12,12,12,1,0.4,0.6,0.8,0.2,1,0,,,,,,,,,,,,,,,,,,,,,,,,,,,,,,,,,,,,
,,666b0a3508c2f3faa9cd0057,66fc9dbef4f2c861eb39a9de,2024-10-02_04h10.33.824,mdp,2024.2.1,Win32,59.88023952,66fa4ebf79326e780c390304,,,,,,,,,,,,,,,,,,,,,1284.7822,1284.7822,1284.785,1285.5661,1,0,right,0.2519,,1285.569,1285.5707,1,0,,1285.5732,1285.5747,0,0,,1,1285.5748,1285.5748,1285.5768,1287.0731,0,13,13,13,1,0.4,0.6,0.8,0.2,1,0,,,,,,,,,,,,,,,,,,,,,,,,,,,,,,,,,,,,
,,666b0a3508c2f3faa9cd0057,66fc9dbef4f2c861eb39a9de,2024-10-02_04h10.33.824,mdp,2024.2.1,Win32,59.88023952,66fa4ebf79326e780c390304,,,,,,,,,,,,,,,,,,,,,1287.0748,1287.0748,1287.0779,1287.823,1,1,right,0.2192,,1287.8267,1287.8284,1,0,,1287.8304,1287.8319,0,0,,0,1287.832,1287.832,1287.8336,1289.3315,0,14,14,14,1,0.4,0.6,0.8,0.2,1,0,,,,,,,,,,,,,,,,,,,,,,,,,,,,,,,,,,,,
,,666b0a3508c2f3faa9cd0057,66fc9dbef4f2c861eb39a9de,2024-10-02_04h10.33.824,mdp,2024.2.1,Win32,59.88023952,66fa4ebf79326e780c390304,,,,,,,,,,,,,,,,,,,,,1289.3332,1289.3332,1289.336,1289.9826,0,0,left,0.1178,,1289.9857,1289.9872,1,0,,1289.9895,1289.9908,0,0,,1,1289.9909,1289.9909,1289.9924,1291.4895,0,15,15,15,1,0.8,0.2,0.6,0.4,1,0,,,,,,,,,,,,,,,,,,,,,,,,,,,,,,,,,,,,
,,666b0a3508c2f3faa9cd0057,66fc9dbef4f2c861eb39a9de,2024-10-02_04h10.33.824,mdp,2024.2.1,Win32,59.88023952,66fa4ebf79326e780c390304,,,,,,,,,,,,,,,,,,,,,1291.4912,1291.4912,1291.4938,1292.2735,0,0,left,0.2558,,1292.2773,1292.2787,1,0,,1292.2806,1292.282,0,1,,1,1292.2821,1292.2821,1292.2836,1293.773,0,16,16,16,1,0.8,0.2,0.6,0.4,1,0,,,,,,,,,,,,,,,,,,,,,,,,,,,,,,,,,,,,
,,666b0a3508c2f3faa9cd0057,66fc9dbef4f2c861eb39a9de,2024-10-02_04h10.33.824,mdp,2024.2.1,Win32,59.88023952,66fa4ebf79326e780c390304,,,,,,,,,,,,,,,,,,,,,1293.7749,1293.7749,1293.7777,1294.3938,0,0,left,0.0859,,1294.3974,1294.3992,1,0,,1294.4017,1294.4032,0,1,,1,1294.4033,1294.4034,1294.4061,1295.8986,0,17,17,17,1,0.4,0.6,0.8,0.2,1,0,,,,,,,,,,,,,,,,,,,,,,,,,,,,,,,,,,,,
,,666b0a3508c2f3faa9cd0057,66fc9dbef4f2c861eb39a9de,2024-10-02_04h10.33.824,mdp,2024.2.1,Win32,59.88023952,66fa4ebf79326e780c390304,,,,,,,,,,,,,,,,,,,,,1295.9002,1295.9003,1295.9031,1296.4668,0,1,left,0.0357,,1296.4701,1296.4724,1,1,,1296.4743,1296.4758,0,0,,0,1296.4759,1296.4759,1296.4779,1297.9736,0,18,18,18,1,0.4,0.6,0.8,0.2,1,0,,,,,,,,,,,,,,,,,,,,,,,,,,,,,,,,,,,,
,,666b0a3508c2f3faa9cd0057,66fc9dbef4f2c861eb39a9de,2024-10-02_04h10.33.824,mdp,2024.2.1,Win32,59.88023952,66fa4ebf79326e780c390304,,,,,,,,,,,,,,,,,,,,,1297.9753,1297.9753,1297.9784,1298.957,1,0,right,0.4687,,1298.9607,1298.9626,1,0,,1298.9646,1298.9662,0,0,,1,1298.9664,1298.9664,1298.968,1300.4587,0,19,19,19,1,0.4,0.6,0.8,0.2,1,0,,,,,,,,,,,,,,,,,,,,,,,,,,,,,,,,,,,,
,,666b0a3508c2f3faa9cd0057,66fc9dbef4f2c861eb39a9de,2024-10-02_04h10.33.824,mdp,2024.2.1,Win32,59.88023952,66fa4ebf79326e780c390304,,,,,,,,,,,,,,,,,,,,,1300.4596,1300.4596,1300.462,1301.1588,1,0,right,0.1679,,1301.162,1301.1639,1,0,,1301.1658,1301.1673,0,0,,1,1301.1674,1301.1674,1301.1691,1302.6589,0,20,20,20,1,0.4,0.6,0.8,0.2,1,0,,,,,,,,,,,,,,,,,,,,,,,,,,,,,,,,,,,,
,,666b0a3508c2f3faa9cd0057,66fc9dbef4f2c861eb39a9de,2024-10-02_04h10.33.824,mdp,2024.2.1,Win32,59.88023952,66fa4ebf79326e780c390304,,,,,,,,,,,,,,,,,,,,,1302.6597,1302.6597,1302.6622,1303.1921,1,0,right,0.0041,,1303.1947,1303.1963,1,0,,1303.1981,1303.1997,0,1,,1,1303.1999,1303.1999,1303.2014,1304.6922,0,21,21,21,1,0.6,0.4,0.6,0.4,1,0,,,,,,,,,,,,,,,,,,,,,,,,,,,,,,,,,,,,
,,666b0a3508c2f3faa9cd0057,66fc9dbef4f2c861eb39a9de,2024-10-02_04h10.33.824,mdp,2024.2.1,Win32,59.88023952,66fa4ebf79326e780c390304,,,,,,,,,,,,,,,,,,,,,1304.693,1304.6931,1304.6954,1305.2255,0,0,left,0.0014,,1305.2283,1305.2302,1,1,,1305.2322,1305.2336,0,0,,1,1305.2337,1305.2337,1305.2355,1306.7252,0,22,22,22,1,0.6,0.4,0.6,0.4,1,0,,,,,,,,,,,,,,,,,,,,,,,,,,,,,,,,,,,,
,,666b0a3508c2f3faa9cd0057,66fc9dbef4f2c861eb39a9de,2024-10-02_04h10.33.824,mdp,2024.2.1,Win32,59.88023952,66fa4ebf79326e780c390304,,,,,,,,,,,,,,,,,,,,,1306.7261,1306.7261,1306.7285,1309.1409,0,0,left,1.8845,,1309.1445,1309.1466,1,0,,1309.149,1309.1507,0,0,,1,1309.1509,1309.1509,1309.1526,1310.6496,0,23,23,23,1,0.6,0.4,0.6,0.4,1,0,,,,,,,,,,,,,,,,,,,,,,,,,,,,,,,,,,,,
,,666b0a3508c2f3faa9cd0057,66fc9dbef4f2c861eb39a9de,2024-10-02_04h10.33.824,mdp,2024.2.1,Win32,59.88023952,66fa4ebf79326e780c390304,,,,,,,,,,,,,,,,,,,,,1310.6515,1310.6515,1310.6543,1311.2511,0,0,left,0.0685,,1311.2545,1311.2569,1,0,,1311.259,1311.2604,0,1,,1,1311.2605,1311.2605,1311.2625,1312.7575,0,24,24,24,1,0.6,0.4,0.6,0.4,1,0,,,,,,,,,,,,,,,,,,,,,,,,,,,,,,,,,,,,
,,666b0a3508c2f3faa9cd0057,66fc9dbef4f2c861eb39a9de,2024-10-02_04h10.33.824,mdp,2024.2.1,Win32,59.88023952,66fa4ebf79326e780c390304,,,,,,,,,,,,,,,,,,,,,1312.7596,1312.7596,1312.7625,1314.208,0,0,left,0.9179,,1314.2118,1314.2134,1,0,,1314.2153,1314.2167,0,0,,1,1314.2169,1314.2169,1314.2186,1315.7081,0,25,25,25,1,0.6,0.4,0.6,0.4,1,0,,,,,,,,,,,,,,,,,,,,,,,,,,,,,,,,,,,,
,,666b0a3508c2f3faa9cd0057,66fc9dbef4f2c861eb39a9de,2024-10-02_04h10.33.824,mdp,2024.2.1,Win32,59.88023952,66fa4ebf79326e780c390304,,,,,,,,,,,,,,,,,,,,,1315.7099,1315.7099,1315.7126,1316.5846,1,0,right,0.352,,1316.5875,1316.589,1,0,,1316.5913,1316.5927,0,1,,1,1316.5928,1316.5929,1316.5948,1318.0914,0,26,26,26,1,0.6,0.4,0.6,0.4,1,0,,,,,,,,,,,,,,,,,,,,,,,,,,,,,,,,,,,,
,,666b0a3508c2f3faa9cd0057,66fc9dbef4f2c861eb39a9de,2024-10-02_04h10.33.824,mdp,2024.2.1,Win32,59.88023952,66fa4ebf79326e780c390304,,,,,,,,,,,,,,,,,,,,,1318.0932,1318.0933,1318.0967,1318.6349,1,0,right,0.02,,1318.6379,1318.6395,1,0,,1318.6419,1318.6434,0,0,,1,1318.6435,1318.6435,1318.6455,1320.1414,0,27,27,27,1,0.6,0.4,0.6,0.4,1,0,,,,,,,,,,,,,,,,,,,,,,,,,,,,,,,,,,,,
,,666b0a3508c2f3faa9cd0057,66fc9dbef4f2c861eb39a9de,2024-10-02_04h10.33.824,mdp,2024.2.1,Win32,59.88023952,66fa4ebf79326e780c390304,,,,,,,,,,,,,,,,,,,,,1320.1445,1320.1445,1320.1477,1320.8249,1,0,right,0.1529,,1320.8286,1320.8304,1,0,,1320.8328,1320.8344,0,0,,1,1320.8346,1320.8346,1320.8362,1322.331,0,28,28,28,1,0.6,0.4,0.6,0.4,1,0,,,,,,,,,,,,,,,,,,,,,,,,,,,,,,,,,,,,
,,666b0a3508c2f3faa9cd0057,66fc9dbef4f2c861eb39a9de,2024-10-02_04h10.33.824,mdp,2024.2.1,Win32,59.88023952,66fa4ebf79326e780c390304,,,,,,,,,,,,,,,,,,,,,1322.3328,1322.3328,1322.3369,1322.8585,1,1,right,0.0013,,1322.8626,1322.8642,1,0,,1322.8704,1322.8725,0,1,,0,1322.8727,1322.8727,1322.8757,1324.375,0,29,29,29,1,0.6,0.4,0.6,0.4,1,0,,,,,,,,,,,,,,,,,,,,,,,,,,,,,,,,,,,,
,,666b0a3508c2f3faa9cd0057,66fc9dbef4f2c861eb39a9de,2024-10-02_04h10.33.824,mdp,2024.2.1,Win32,59.88023952,66fa4ebf79326e780c390304,,,,,,,,,,,,,,,,,,,,,1324.377,1324.377,1324.3801,1324.9255,0,0,left,0.0174,,1324.9293,1324.931,1,0,,1324.9328,1324.9343,0,1,,1,1324.9345,1324.9345,1324.9361,1326.434,0,30,30,30,1,0.6,0.4,0.6,0.4,1,0,,,,,,,,,,,,,,,,,,,,,,,,,,,,,,,,,,,,
,,666b0a3508c2f3faa9cd0057,66fc9dbef4f2c861eb39a9de,2024-10-02_04h10.33.824,mdp,2024.2.1,Win32,59.88023952,66fa4ebf79326e780c390304,,,,,,,,,,,,,,,,,,,,,1326.4359,1326.4359,1326.4385,1327.1351,0,0,left,0.1683,,1327.1386,1327.1408,1,0,,1327.1428,1327.1442,0,0,,1,1327.1444,1327.1444,1327.1466,1328.642,0,31,31,31,1,0.6,0.4,0.6,0.4,1,0,,,,,,,,,,,,,,,,,,,,,,,,,,,,,,,,,,,,
,,666b0a3508c2f3faa9cd0057,66fc9dbef4f2c861eb39a9de,2024-10-02_04h10.33.824,mdp,2024.2.1,Win32,59.88023952,66fa4ebf79326e780c390304,,,,,,,,,,,,,,,,,,,,,1328.644,1328.6441,1328.647,1329.3454,0,0,left,0.1757,,1329.3488,1329.3508,1,0,,1329.3528,1329.3543,0,0,,1,1329.3545,1329.3545,1329.3561,1330.8492,0,32,32,32,1,0.6,0.4,0.6,0.4,1,0,,,,,,,,,,,,,,,,,,,,,,,,,,,,,,,,,,,,
,,666b0a3508c2f3faa9cd0057,66fc9dbef4f2c861eb39a9de,2024-10-02_04h10.33.824,mdp,2024.2.1,Win32,59.88023952,66fa4ebf79326e780c390304,,,,,,,,,,,,,,,,,,,,,1330.8516,1330.8517,1330.8542,1332.0875,0,0,left,0.704,,1332.0904,1332.0927,1,0,,1332.0947,1332.0964,0,1,,1,1332.0964,1332.0965,1332.0981,1333.5925,0,33,33,33,1,0.4,0.6,0.8,0.2,1,0,,,,,,,,,,,,,,,,,,,,,,,,,,,,,,,,,,,,
,,666b0a3508c2f3faa9cd0057,66fc9dbef4f2c861eb39a9de,2024-10-02_04h10.33.824,mdp,2024.2.1,Win32,59.88023952,66fa4ebf79326e780c390304,,,,,,,,,,,,,,,,,,,,,1333.5943,1333.5943,1333.5975,1334.1262,1,1,right,0.0013,,1334.1299,1334.1315,1,1,,1334.1338,1334.1354,0,0,,0,1334.1354,1334.1354,1334.1371,1335.6317,0,34,34,34,1,0.4,0.6,0.8,0.2,1,0,,,,,,,,,,,,,,,,,,,,,,,,,,,,,,,,,,,,
,,666b0a3508c2f3faa9cd0057,66fc9dbef4f2c861eb39a9de,2024-10-02_04h10.33.824,mdp,2024.2.1,Win32,59.88023952,66fa4ebf79326e780c390304,,,,,,,,,,,,,,,,,,,,,1335.6335,1335.6336,1335.6363,1336.4857,0,0,left,0.3356,,1336.4888,1336.4904,1,0,,1336.4933,1336.4946,0,0,,1,1336.4948,1336.4948,1336.4969,1337.9924,0,35,35,35,1,0.6,0.4,0.6,0.4,1,0,,,,,,,,,,,,,,,,,,,,,,,,,,,,,,,,,,,,
,,666b0a3508c2f3faa9cd0057,66fc9dbef4f2c861eb39a9de,2024-10-02_04h10.33.824,mdp,2024.2.1,Win32,59.88023952,66fa4ebf79326e780c390304,,,,,,,,,,,,,,,,,,,,,1337.9943,1337.9944,1337.9968,1339.0923,0,0,left,0.5704,,1339.0957,1339.097,1,0,,1339.0985,1339.1018,0,1,,1,1339.102,1339.102,1339.1045,1340.6022,0,36,36,36,1,0.6,0.4,0.6,0.4,1,0,,,,,,,,,,,,,,,,,,,,,,,,,,,,,,,,,,,,
,,666b0a3508c2f3faa9cd0057,66fc9dbef4f2c861eb39a9de,2024-10-02_04h10.33.824,mdp,2024.2.1,Win32,59.88023952,66fa4ebf79326e780c390304,,,,,,,,,,,,,,,,,,,,,1340.6038,1340.6039,1340.6064,1341.1685,0,1,left,0.0352,,1341.1723,1341.1742,1,0,,1341.1768,1341.1785,0,1,,0,1341.1785,1341.1785,1341.1807,1342.6761,0,37,37,37,1,0.4,0.6,0.8,0.2,1,0,,,,,,,,,,,,,,,,,,,,,,,,,,,,,,,,,,,,
,,666b0a3508c2f3faa9cd0057,66fc9dbef4f2c861eb39a9de,2024-10-02_04h10.33.824,mdp,2024.2.1,Win32,59.88023952,66fa4ebf79326e780c390304,,,,,,,,,,,,,,,,,,,,,1342.678,1342.678,1342.681,1344.0431,1,0,right,0.832,,1344.0467,1344.0484,1,0,,1344.0504,1344.0518,0,0,,1,1344.0519,1344.052,1344.0543,1345.5513,0,38,38,38,1,0.4,0.6,0.8,0.2,1,0,,,,,,,,,,,,,,,,,,,,,,,,,,,,,,,,,,,,
,,666b0a3508c2f3faa9cd0057,66fc9dbef4f2c861eb39a9de,2024-10-02_04h10.33.824,mdp,2024.2.1,Win32,59.88023952,66fa4ebf79326e780c390304,,,,,,,,,,,,,,,,,,,,,1345.5531,1345.5531,1345.5558,1346.8856,1,0,right,0.8094,,1346.8881,1346.8895,1,0,,1346.891,1346.8929,0,0,,1,1346.8929,1346.8929,1346.8943,1348.3851,0,39,39,39,1,0.4,0.6,0.8,0.2,1,0,,,,,,,,,,,,,,,,,,,,,,,,,,,,,,,,,,,,
,,666b0a3508c2f3faa9cd0057,66fc9dbef4f2c861eb39a9de,2024-10-02_04h10.33.824,mdp,2024.2.1,Win32,59.88023952,66fa4ebf79326e780c390304,,,,,,,,,,,,,,,,,,,,,1348.3871,1348.3872,1348.3899,1349.0848,1,0,right,0.1668,,1349.0877,1349.0893,1,1,,1349.0913,1349.0936,0,1,,1,1349.0936,1349.0936,1349.0952,1350.5931,0,40,40,40,1,0.6,0.4,0.2,0.8,1,0,,,,,,,,,,,,,,,,,,,,,,,,,,,,,,,,,,,,
