init_exp.started,init_exp.stopped,participant,session,date,expName,psychopyVersion,OS,frameRate,study_id,disp_instruction.started,disp_instruction.stopped,instruction.thisRepN,instruction.thisTrialN,instruction.thisN,instruction.thisIndex,instruction.ran,instimg_path,consent.started,consent.stopped,key_resp_3.keys,key_resp_3.rt,key_resp_3.duration,n_steps,sequence_path,init_block.started,init_block.stopped,key_resp.keys,key_resp.rt,key_resp.duration,init_trials.started,init_trials.stopped,step0.started,step0.stopped,act0,s1,res0.keys,res0.rt,res0.duration,step1.started,step1.stopped,act1,s2,res1.keys,step2.started,step2.stopped,act2,s3,res2.keys,rew,reward_comp.started,reward_comp.stopped,reward_disp.started,reward_disp.stopped,trials.thisRepN,trials.thisTrialN,trials.thisN,trials.thisIndex,trials.ran,s00a0s10,s00a0s11,s00a1s10,s00a1s11,rew10,rew11,break_block.started,break_block.stopped,block.thisRepN,block.thisTrialN,block.thisN,block.thisIndex,block.ran,s00path,s10path,s11path,s20path,s21path,res1.rt,res1.duration,s10a0s20,s10a0s21,s10a1s20,s10a1s21,s11a0s20,s11a0s21,s11a1s20,s11a1s21,rew20,rew21,res2.rt,res2.duration,s20a0s30,s20a0s31,s20a1s30,s20a1s31,s21a0s30,s21a0s31,s21a1s30,s21a1s31,rew30,rew31
0,0.002,666c6160d7613a472a88bc12,66fc97825bc6dc80a61d51bd,2024-10-02_02h54.52.878,mdp,2024.2.1,Win32,142.8571429,66fa4ebf79326e780c390304,,,,,,,,,,,,,,,,,,,,,,,,,,,,,,,,,,,,,,,,,,,,,,,,,,,,,,,,,,,,,,,,,,,,,,,,,,,,,,,,,,,,,,,,,,,
,,666c6160d7613a472a88bc12,66fc97825bc6dc80a61d51bd,2024-10-02_02h54.52.878,mdp,2024.2.1,Win32,142.8571429,66fa4ebf79326e780c390304,0.005,38.609,0,0,0,0,1,rlnn_exp/rlnn_exp.001.png,,,,,,,,,,,,,,,,,,,,,,,,,,,,,,,,,,,,,,,,,,,,,,,,,,,,,,,,,,,,,,,,,,,,,,,,,,,,,,,,,,,
,,666c6160d7613a472a88bc12,66fc97825bc6dc80a61d51bd,2024-10-02_02h54.52.878,mdp,2024.2.1,Win32,142.8571429,66fa4ebf79326e780c390304,38.609,85.165,0,1,1,1,1,rlnn_exp/rlnn_exp.002.png,,,,,,,,,,,,,,,,,,,,,,,,,,,,,,,,,,,,,,,,,,,,,,,,,,,,,,,,,,,,,,,,,,,,,,,,,,,,,,,,,,,
,,666c6160d7613a472a88bc12,66fc97825bc6dc80a61d51bd,2024-10-02_02h54.52.878,mdp,2024.2.1,Win32,142.8571429,66fa4ebf79326e780c390304,85.166,130.254,0,2,2,2,1,rlnn_exp/rlnn_exp.003.png,,,,,,,,,,,,,,,,,,,,,,,,,,,,,,,,,,,,,,,,,,,,,,,,,,,,,,,,,,,,,,,,,,,,,,,,,,,,,,,,,,,
,,666c6160d7613a472a88bc12,66fc97825bc6dc80a61d51bd,2024-10-02_02h54.52.878,mdp,2024.2.1,Win32,142.8571429,66fa4ebf79326e780c390304,130.261,198.088,0,3,3,3,1,rlnn_exp/rlnn_exp.004.png,,,,,,,,,,,,,,,,,,,,,,,,,,,,,,,,,,,,,,,,,,,,,,,,,,,,,,,,,,,,,,,,,,,,,,,,,,,,,,,,,,,
,,666c6160d7613a472a88bc12,66fc97825bc6dc80a61d51bd,2024-10-02_02h54.52.878,mdp,2024.2.1,Win32,142.8571429,66fa4ebf79326e780c390304,,,,,,,,,198.088,221.407,y,13.298,,,,,,,,,,,,,,,,,,,,,,,,,,,,,,,,,,,,,,,,,,,,,,,,,,,,,,,,,,,,,,,,,,,,,,,,,,,,,,,
,,666c6160d7613a472a88bc12,66fc97825bc6dc80a61d51bd,2024-10-02_02h54.52.878,mdp,2024.2.1,Win32,142.8571429,66fa4ebf79326e780c390304,,,,,,,,,,,,,,1,seqs/st1seq43.csv,221.42,222.588,space,0.662,,222.589,222.589,222.589,227.108,0,0,left,4.001,,227.109,227.11,,0,,227.11,227.111,,1,,1,227.111,227.111,227.111,228.608,0,0,0,0,1,0.8,0.2,0.4,0.6,1,0,,,,,,,,,,,,,,,,,,,,,,,,,,,,,,,,,,,,
,,666c6160d7613a472a88bc12,66fc97825bc6dc80a61d51bd,2024-10-02_02h54.52.878,mdp,2024.2.1,Win32,142.8571429,66fa4ebf79326e780c390304,,,,,,,,,,,,,,,,,,,,,228.608,228.608,228.61,234.748,0,0,left,5.635,,234.753,234.753,,0,,234.753,234.754,,1,,1,234.754,234.754,234.755,236.254,0,1,1,1,1,0.8,0.2,0.4,0.6,1,0,,,,,,,,,,,,,,,,,,,,,,,,,,,,,,,,,,,,
,,666c6160d7613a472a88bc12,66fc97825bc6dc80a61d51bd,2024-10-02_02h54.52.878,mdp,2024.2.1,Win32,142.8571429,66fa4ebf79326e780c390304,,,,,,,,,,,,,,,,,,,,,236.254,236.254,236.255,237.803,0,1,left,1.041,,237.803,237.804,,0,,237.804,237.804,,1,,0,237.804,237.804,237.805,239.302,0,2,2,2,1,0.8,0.2,0.4,0.6,1,0,,,,,,,,,,,,,,,,,,,,,,,,,,,,,,,,,,,,
,,666c6160d7613a472a88bc12,66fc97825bc6dc80a61d51bd,2024-10-02_02h54.52.878,mdp,2024.2.1,Win32,142.8571429,66fa4ebf79326e780c390304,,,,,,,,,,,,,,,,,,,,,239.303,239.303,239.304,240.442,1,1,right,0.632,,240.442,240.442,,0,,240.443,240.444,,1,,0,240.444,240.444,240.444,241.942,0,3,3,3,1,0.8,0.2,0.4,0.6,1,0,,,,,,,,,,,,,,,,,,,,,,,,,,,,,,,,,,,,
,,666c6160d7613a472a88bc12,66fc97825bc6dc80a61d51bd,2024-10-02_02h54.52.878,mdp,2024.2.1,Win32,142.8571429,66fa4ebf79326e780c390304,,,,,,,,,,,,,,,,,,,,,241.942,241.942,241.942,243.22,0,1,left,0.777,,243.22,243.22,,0,,243.221,243.221,,1,,0,243.221,243.221,243.221,244.719,0,4,4,4,1,0.8,0.2,0.4,0.6,1,0,,,,,,,,,,,,,,,,,,,,,,,,,,,,,,,,,,,,
,,666c6160d7613a472a88bc12,66fc97825bc6dc80a61d51bd,2024-10-02_02h54.52.878,mdp,2024.2.1,Win32,142.8571429,66fa4ebf79326e780c390304,,,,,,,,,,,,,,,,,,,,,244.719,244.719,244.721,257.066,0,1,left,11.841,,257.073,257.074,,0,,257.074,257.075,,0,,0,257.075,257.075,257.076,258.573,0,5,5,5,1,0.8,0.2,0.4,0.6,1,0,,,,,,,,,,,,,,,,,,,,,,,,,,,,,,,,,,,,
,,666c6160d7613a472a88bc12,66fc97825bc6dc80a61d51bd,2024-10-02_02h54.52.878,mdp,2024.2.1,Win32,142.8571429,66fa4ebf79326e780c390304,,,,,,,,,,,,,,,,,,,,,258.573,258.573,258.575,259.602,0,0,left,0.521,,259.602,259.602,,0,,259.602,259.603,,0,,1,259.603,259.603,259.603,261.101,0,6,6,6,1,0.8,0.2,0.4,0.6,1,0,,,,,,,,,,,,,,,,,,,,,,,,,,,,,,,,,,,,
,,666c6160d7613a472a88bc12,66fc97825bc6dc80a61d51bd,2024-10-02_02h54.52.878,mdp,2024.2.1,Win32,142.8571429,66fa4ebf79326e780c390304,,,,,,,,,,,,,,,,,,,,,261.101,261.101,261.102,261.963,1,0,right,0.359,,261.963,261.963,,1,,261.964,261.964,,0,,1,261.964,261.964,261.964,263.463,0,7,7,7,1,0.8,0.2,0.4,0.6,1,0,,,,,,,,,,,,,,,,,,,,,,,,,,,,,,,,,,,,
,,666c6160d7613a472a88bc12,66fc97825bc6dc80a61d51bd,2024-10-02_02h54.52.878,mdp,2024.2.1,Win32,142.8571429,66fa4ebf79326e780c390304,,,,,,,,,,,,,,,,,,,,,263.463,263.463,263.464,264.685,1,0,right,0.711,,264.685,264.685,,1,,264.686,264.686,,1,,1,264.686,264.686,264.686,266.185,0,8,8,8,1,0.8,0.2,0.4,0.6,1,0,,,,,,,,,,,,,,,,,,,,,,,,,,,,,,,,,,,,
,,666c6160d7613a472a88bc12,66fc97825bc6dc80a61d51bd,2024-10-02_02h54.52.878,mdp,2024.2.1,Win32,142.8571429,66fa4ebf79326e780c390304,,,,,,,,,,,,,,,,,,,,,266.185,266.185,266.186,267.171,1,0,right,0.481,,267.171,267.172,,0,,267.172,267.173,,0,,1,267.173,267.173,267.173,268.67,0,9,9,9,1,0.8,0.2,0.4,0.6,1,0,,,,,,,,,,,,,,,,,,,,,,,,,,,,,,,,,,,,
,,666c6160d7613a472a88bc12,66fc97825bc6dc80a61d51bd,2024-10-02_02h54.52.878,mdp,2024.2.1,Win32,142.8571429,66fa4ebf79326e780c390304,,,,,,,,,,,,,,,,,,,,,268.67,268.67,268.672,269.441,0,0,left,0.265,,269.442,269.443,,1,,269.443,269.443,,0,,1,269.443,269.443,269.443,270.942,0,10,10,10,1,0.8,0.2,0.4,0.6,1,0,,,,,,,,,,,,,,,,,,,,,,,,,,,,,,,,,,,,
,,666c6160d7613a472a88bc12,66fc97825bc6dc80a61d51bd,2024-10-02_02h54.52.878,mdp,2024.2.1,Win32,142.8571429,66fa4ebf79326e780c390304,,,,,,,,,,,,,,,,,,,,,270.942,270.942,270.943,271.837,0,0,left,0.385,,271.838,271.839,,0,,271.839,271.839,,1,,1,271.839,271.839,271.839,273.337,0,11,11,11,1,0.8,0.2,0.4,0.6,1,0,,,,,,,,,,,,,,,,,,,,,,,,,,,,,,,,,,,,
,,666c6160d7613a472a88bc12,66fc97825bc6dc80a61d51bd,2024-10-02_02h54.52.878,mdp,2024.2.1,Win32,142.8571429,66fa4ebf79326e780c390304,,,,,,,,,,,,,,,,,,,,,273.337,273.337,273.338,273.976,0,1,left,0.135,,273.977,273.977,,0,,273.978,273.978,,0,,0,273.978,273.978,273.978,275.477,0,12,12,12,1,0.8,0.2,0.4,0.6,1,0,,,,,,,,,,,,,,,,,,,,,,,,,,,,,,,,,,,,
,,666c6160d7613a472a88bc12,66fc97825bc6dc80a61d51bd,2024-10-02_02h54.52.878,mdp,2024.2.1,Win32,142.8571429,66fa4ebf79326e780c390304,,,,,,,,,,,,,,,,,,,,,275.477,275.477,275.477,276.289,1,1,right,0.301,,276.289,276.29,,1,,276.29,276.291,,0,,0,276.291,276.291,276.291,277.789,0,13,13,13,1,0.8,0.2,0.4,0.6,1,0,,,,,,,,,,,,,,,,,,,,,,,,,,,,,,,,,,,,
,,666c6160d7613a472a88bc12,66fc97825bc6dc80a61d51bd,2024-10-02_02h54.52.878,mdp,2024.2.1,Win32,142.8571429,66fa4ebf79326e780c390304,,,,,,,,,,,,,,,,,,,,,277.789,277.789,277.789,278.795,0,0,left,0.493,,278.796,278.797,,0,,278.797,278.797,,0,,1,278.797,278.797,278.797,280.296,0,14,14,14,1,0.8,0.2,0.4,0.6,1,0,,,,,,,,,,,,,,,,,,,,,,,,,,,,,,,,,,,,
,,666c6160d7613a472a88bc12,66fc97825bc6dc80a61d51bd,2024-10-02_02h54.52.878,mdp,2024.2.1,Win32,142.8571429,66fa4ebf79326e780c390304,,,,,,,,,,,,,,,,,,,,,280.296,280.296,280.296,284.122,0,0,left,3.315,,284.127,284.129,,1,,284.129,284.129,,0,,1,284.129,284.129,284.129,285.629,0,15,15,15,1,0.8,0.2,0.4,0.6,1,0,,,,,,,,,,,,,,,,,,,,,,,,,,,,,,,,,,,,
,,666c6160d7613a472a88bc12,66fc97825bc6dc80a61d51bd,2024-10-02_02h54.52.878,mdp,2024.2.1,Win32,142.8571429,66fa4ebf79326e780c390304,,,,,,,,,,,,,,,,,,,,,285.63,285.63,285.63,287.337,1,1,right,1.194,,287.338,287.339,,1,,287.339,287.339,,1,,0,287.339,287.339,287.339,288.837,0,16,16,16,1,0.8,0.2,0.4,0.6,1,0,,,,,,,,,,,,,,,,,,,,,,,,,,,,,,,,,,,,
,,666c6160d7613a472a88bc12,66fc97825bc6dc80a61d51bd,2024-10-02_02h54.52.878,mdp,2024.2.1,Win32,142.8571429,66fa4ebf79326e780c390304,,,,,,,,,,,,,,,,,,,,,288.837,288.837,288.837,290.4,0,0,left,1.052,,290.4,290.401,,0,,290.401,290.402,,0,,1,290.402,290.402,290.402,291.9,0,17,17,17,1,0.8,0.2,0.4,0.6,1,0,,,,,,,,,,,,,,,,,,,,,,,,,,,,,,,,,,,,
,,666c6160d7613a472a88bc12,66fc97825bc6dc80a61d51bd,2024-10-02_02h54.52.878,mdp,2024.2.1,Win32,142.8571429,66fa4ebf79326e780c390304,,,,,,,,,,,,,,,,,,,,,291.9,291.9,291.9,292.837,0,0,left,0.43,,292.838,292.838,,1,,292.839,292.839,,1,,1,292.839,292.839,292.84,294.337,0,18,18,18,1,0.8,0.2,0.4,0.6,1,0,,,,,,,,,,,,,,,,,,,,,,,,,,,,,,,,,,,,
,,666c6160d7613a472a88bc12,66fc97825bc6dc80a61d51bd,2024-10-02_02h54.52.878,mdp,2024.2.1,Win32,142.8571429,66fa4ebf79326e780c390304,,,,,,,,,,,,,,,,,,,,,294.337,294.337,294.338,296.254,0,0,left,1.412,,296.254,296.255,,0,,296.255,296.255,,0,,1,296.255,296.255,296.255,297.754,0,19,19,19,1,0.4,0.6,0.6,0.4,1,0,,,,,,,,,,,,,,,,,,,,,,,,,,,,,,,,,,,,
,,666c6160d7613a472a88bc12,66fc97825bc6dc80a61d51bd,2024-10-02_02h54.52.878,mdp,2024.2.1,Win32,142.8571429,66fa4ebf79326e780c390304,,,,,,,,,,,,,,,,,,,,,297.754,297.754,297.755,298.608,1,0,right,0.349,,298.609,298.61,,0,,298.61,298.61,,0,,1,298.61,298.61,298.61,300.109,0,20,20,20,1,0.4,0.6,0.6,0.4,1,0,,,,,,,,,,,,,,,,,,,,,,,,,,,,,,,,,,,,
,,666c6160d7613a472a88bc12,66fc97825bc6dc80a61d51bd,2024-10-02_02h54.52.878,mdp,2024.2.1,Win32,142.8571429,66fa4ebf79326e780c390304,,,,,,,,,,,,,,,,,,,,,300.109,300.109,300.109,301.288,1,0,right,0.666,,301.289,301.289,,0,,301.29,301.29,,0,,1,301.29,301.29,301.29,302.788,0,21,21,21,1,0.4,0.6,0.6,0.4,1,0,,,,,,,,,,,,,,,,,,,,,,,,,,,,,,,,,,,,
,,666c6160d7613a472a88bc12,66fc97825bc6dc80a61d51bd,2024-10-02_02h54.52.878,mdp,2024.2.1,Win32,142.8571429,66fa4ebf79326e780c390304,,,,,,,,,,,,,,,,,,,,,302.789,302.789,302.79,303.691,1,0,right,0.4,,303.692,303.692,,1,,303.693,303.693,,1,,1,303.693,303.693,303.693,305.191,0,22,22,22,1,0.8,0.2,0.2,0.8,1,0,,,,,,,,,,,,,,,,,,,,,,,,,,,,,,,,,,,,
,,666c6160d7613a472a88bc12,66fc97825bc6dc80a61d51bd,2024-10-02_02h54.52.878,mdp,2024.2.1,Win32,142.8571429,66fa4ebf79326e780c390304,,,,,,,,,,,,,,,,,,,,,305.191,305.191,305.192,306.296,0,0,left,0.599,,306.296,306.296,,0,,306.297,306.297,,0,,1,306.297,306.297,306.297,307.795,0,23,23,23,1,0.8,0.2,0.2,0.8,1,0,,,,,,,,,,,,,,,,,,,,,,,,,,,,,,,,,,,,
,,666c6160d7613a472a88bc12,66fc97825bc6dc80a61d51bd,2024-10-02_02h54.52.878,mdp,2024.2.1,Win32,142.8571429,66fa4ebf79326e780c390304,,,,,,,,,,,,,,,,,,,,,307.795,307.795,307.796,308.72,0,0,left,0.418,,308.72,308.72,,0,,308.72,308.721,,0,,1,308.721,308.721,308.721,310.219,0,24,24,24,1,0.8,0.2,0.2,0.8,1,0,,,,,,,,,,,,,,,,,,,,,,,,,,,,,,,,,,,,
,,666c6160d7613a472a88bc12,66fc97825bc6dc80a61d51bd,2024-10-02_02h54.52.878,mdp,2024.2.1,Win32,142.8571429,66fa4ebf79326e780c390304,,,,,,,,,,,,,,,,,,,,,310.219,310.219,310.22,311.038,0,0,left,0.313,,311.039,311.04,,1,,311.041,311.041,,0,,1,311.041,311.041,311.041,312.538,0,25,25,25,1,0.8,0.2,0.2,0.8,1,0,,,,,,,,,,,,,,,,,,,,,,,,,,,,,,,,,,,,
,,666c6160d7613a472a88bc12,66fc97825bc6dc80a61d51bd,2024-10-02_02h54.52.878,mdp,2024.2.1,Win32,142.8571429,66fa4ebf79326e780c390304,,,,,,,,,,,,,,,,,,,,,312.538,312.538,312.539,313.587,1,1,right,0.543,,313.588,313.588,,1,,313.588,313.589,,1,,0,313.589,313.589,313.589,315.087,0,26,26,26,1,0.8,0.2,0.2,0.8,1,0,,,,,,,,,,,,,,,,,,,,,,,,,,,,,,,,,,,,
,,666c6160d7613a472a88bc12,66fc97825bc6dc80a61d51bd,2024-10-02_02h54.52.878,mdp,2024.2.1,Win32,142.8571429,66fa4ebf79326e780c390304,,,,,,,,,,,,,,,,,,,,,315.087,315.087,315.088,315.803,1,1,right,0.208,,315.803,315.803,,1,,315.804,315.805,,0,,0,315.805,315.805,315.805,317.303,0,27,27,27,1,0.8,0.2,0.2,0.8,1,0,,,,,,,,,,,,,,,,,,,,,,,,,,,,,,,,,,,,
,,666c6160d7613a472a88bc12,66fc97825bc6dc80a61d51bd,2024-10-02_02h54.52.878,mdp,2024.2.1,Win32,142.8571429,66fa4ebf79326e780c390304,,,,,,,,,,,,,,,,,,,,,317.303,317.303,317.303,317.851,0,0,left,0.046,,317.852,317.852,,0,,317.852,317.852,,0,,1,317.852,317.852,317.853,319.351,0,28,28,28,1,0.8,0.2,0.2,0.8,1,0,,,,,,,,,,,,,,,,,,,,,,,,,,,,,,,,,,,,
,,666c6160d7613a472a88bc12,66fc97825bc6dc80a61d51bd,2024-10-02_02h54.52.878,mdp,2024.2.1,Win32,142.8571429,66fa4ebf79326e780c390304,,,,,,,,,,,,,,,,,,,,,319.351,319.351,319.351,320.24,0,0,left,0.384,,320.241,320.241,,0,,320.241,320.242,,1,,1,320.242,320.242,320.242,321.74,0,29,29,29,1,0.8,0.2,0.2,0.8,1,0,,,,,,,,,,,,,,,,,,,,,,,,,,,,,,,,,,,,
,,666c6160d7613a472a88bc12,66fc97825bc6dc80a61d51bd,2024-10-02_02h54.52.878,mdp,2024.2.1,Win32,142.8571429,66fa4ebf79326e780c390304,,,,,,,,,,,,,,,,,,,,,321.741,321.741,321.741,322.531,0,0,left,0.282,,322.533,322.533,,0,,322.533,322.533,,0,,1,322.533,322.533,322.533,324.032,0,30,30,30,1,0.8,0.2,0.2,0.8,1,0,,,,,,,,,,,,,,,,,,,,,,,,,,,,,,,,,,,,
,,666c6160d7613a472a88bc12,66fc97825bc6dc80a61d51bd,2024-10-02_02h54.52.878,mdp,2024.2.1,Win32,142.8571429,66fa4ebf79326e780c390304,,,,,,,,,,,,,,,,,,,,,324.032,324.032,324.032,324.65,1,0,right,0.106,,324.65,324.651,,1,,324.651,324.652,,0,,1,324.652,324.652,324.652,326.15,0,31,31,31,1,0.8,0.2,0.2,0.8,1,0,,,,,,,,,,,,,,,,,,,,,,,,,,,,,,,,,,,,
,,666c6160d7613a472a88bc12,66fc97825bc6dc80a61d51bd,2024-10-02_02h54.52.878,mdp,2024.2.1,Win32,142.8571429,66fa4ebf79326e780c390304,,,,,,,,,,,,,,,,,,,,,326.15,326.15,326.151,327.101,1,1,right,0.439,,327.102,327.102,,1,,327.102,327.103,,1,,0,327.103,327.103,327.103,328.601,0,32,32,32,1,0.8,0.2,0.2,0.8,1,0,,,,,,,,,,,,,,,,,,,,,,,,,,,,,,,,,,,,
,,666c6160d7613a472a88bc12,66fc97825bc6dc80a61d51bd,2024-10-02_02h54.52.878,mdp,2024.2.1,Win32,142.8571429,66fa4ebf79326e780c390304,,,,,,,,,,,,,,,,,,,,,328.601,328.601,328.602,329.609,0,1,left,0.5,,329.609,329.61,,1,,329.61,329.61,,1,,0,329.61,329.61,329.611,331.108,0,33,33,33,1,0.2,0.8,0.8,0.2,1,0,,,,,,,,,,,,,,,,,,,,,,,,,,,,,,,,,,,,
,,666c6160d7613a472a88bc12,66fc97825bc6dc80a61d51bd,2024-10-02_02h54.52.878,mdp,2024.2.1,Win32,142.8571429,66fa4ebf79326e780c390304,,,,,,,,,,,,,,,,,,,,,331.108,331.108,331.109,331.81,0,0,left,0.198,,331.81,331.811,,1,,331.811,331.811,,1,,1,331.811,331.811,331.811,333.31,0,34,34,34,1,0.2,0.8,0.8,0.2,1,0,,,,,,,,,,,,,,,,,,,,,,,,,,,,,,,,,,,,
,,666c6160d7613a472a88bc12,66fc97825bc6dc80a61d51bd,2024-10-02_02h54.52.878,mdp,2024.2.1,Win32,142.8571429,66fa4ebf79326e780c390304,,,,,,,,,,,,,,,,,,,,,333.31,333.31,333.31,334.879,0,1,left,1.056,,334.879,334.88,,1,,334.88,334.881,,1,,0,334.881,334.881,334.881,336.379,0,35,35,35,1,0.2,0.8,0.8,0.2,1,0,,,,,,,,,,,,,,,,,,,,,,,,,,,,,,,,,,,,
,,666c6160d7613a472a88bc12,66fc97825bc6dc80a61d51bd,2024-10-02_02h54.52.878,mdp,2024.2.1,Win32,142.8571429,66fa4ebf79326e780c390304,,,,,,,,,,,,,,,,,,,,,336.379,336.379,336.379,337.094,1,0,right,0.21,,337.095,337.095,,0,,337.095,337.096,,0,,1,337.096,337.096,337.096,338.594,0,36,36,36,1,0.2,0.8,0.8,0.2,1,0,,,,,,,,,,,,,,,,,,,,,,,,,,,,,,,,,,,,
,,666c6160d7613a472a88bc12,66fc97825bc6dc80a61d51bd,2024-10-02_02h54.52.878,mdp,2024.2.1,Win32,142.8571429,66fa4ebf79326e780c390304,,,,,,,,,,,,,,,,,,,,,338.594,338.595,338.595,339.559,1,0,right,0.452,,339.56,339.561,,0,,339.561,339.561,,0,,1,339.561,339.561,339.561,341.059,0,37,37,37,1,0.2,0.8,0.8,0.2,1,0,,,,,,,,,,,,,,,,,,,,,,,,,,,,,,,,,,,,
,,666c6160d7613a472a88bc12,66fc97825bc6dc80a61d51bd,2024-10-02_02h54.52.878,mdp,2024.2.1,Win32,142.8571429,66fa4ebf79326e780c390304,,,,,,,,,,,,,,,,,,,,,341.06,341.06,341.06,342.011,1,1,right,0.441,,342.011,342.012,,0,,342.012,342.012,,0,,0,342.012,342.012,342.012,343.511,0,38,38,38,1,0.2,0.8,0.8,0.2,1,0,,,,,,,,,,,,,,,,,,,,,,,,,,,,,,,,,,,,
,,666c6160d7613a472a88bc12,66fc97825bc6dc80a61d51bd,2024-10-02_02h54.52.878,mdp,2024.2.1,Win32,142.8571429,66fa4ebf79326e780c390304,,,,,,,,,,,,,,,,,,,,,343.511,343.511,343.511,344.497,0,1,left,0.48,,344.497,344.497,,1,,344.498,344.499,,1,,0,344.499,344.499,344.499,345.996,0,39,39,39,1,0.2,0.8,0.8,0.2,1,0,,,,,,,,,,,,,,,,,,,,,,,,,,,,,,,,,,,,
,,666c6160d7613a472a88bc12,66fc97825bc6dc80a61d51bd,2024-10-02_02h54.52.878,mdp,2024.2.1,Win32,142.8571429,66fa4ebf79326e780c390304,,,,,,,,,,,,,,,,,,,,,345.997,345.997,345.998,346.865,0,1,left,0.361,,346.866,346.866,,1,,346.866,346.866,,1,,0,346.866,346.866,346.866,348.364,0,40,40,40,1,0.2,0.8,0.8,0.2,1,0,,,,,,,,,,,,,,,,,,,,,,,,,,,,,,,,,,,,
,,666c6160d7613a472a88bc12,66fc97825bc6dc80a61d51bd,2024-10-02_02h54.52.878,mdp,2024.2.1,Win32,142.8571429,66fa4ebf79326e780c390304,,,,,,,,,,,,,,,,,,,,,348.365,348.365,348.365,349.145,0,0,left,0.272,,349.146,349.146,,0,,349.147,349.147,,0,,1,349.147,349.147,349.147,350.642,0,41,41,41,1,0.8,0.2,0.2,0.8,1,0,,,,,,,,,,,,,,,,,,,,,,,,,,,,,,,,,,,,
,,666c6160d7613a472a88bc12,66fc97825bc6dc80a61d51bd,2024-10-02_02h54.52.878,mdp,2024.2.1,Win32,142.8571429,66fa4ebf79326e780c390304,,,,,,,,,,,,,,,,,,,,,350.643,350.643,350.644,351.442,0,0,left,0.282,,351.442,351.442,,1,,351.442,351.443,,0,,1,351.443,351.443,351.443,352.941,0,42,42,42,1,0.8,0.2,0.2,0.8,1,0,,,,,,,,,,,,,,,,,,,,,,,,,,,,,,,,,,,,
,,666c6160d7613a472a88bc12,66fc97825bc6dc80a61d51bd,2024-10-02_02h54.52.878,mdp,2024.2.1,Win32,142.8571429,66fa4ebf79326e780c390304,,,,,,,,,,,,,,,,,,,,,352.941,352.941,352.942,353.733,0,0,left,0.283,,353.733,353.734,,0,,353.735,353.735,,0,,1,353.735,353.735,353.735,355.233,0,43,43,43,1,0.8,0.2,0.2,0.8,1,0,,,,,,,,,,,,,,,,,,,,,,,,,,,,,,,,,,,,
,,666c6160d7613a472a88bc12,66fc97825bc6dc80a61d51bd,2024-10-02_02h54.52.878,mdp,2024.2.1,Win32,142.8571429,66fa4ebf79326e780c390304,,,,,,,,,,,,,,,,,,,,,355.233,355.233,355.234,356.177,1,1,right,0.439,,356.177,356.178,,1,,356.178,356.179,,1,,0,356.179,356.179,356.179,357.678,0,44,44,44,1,0.4,0.6,0.8,0.2,1,0,,,,,,,,,,,,,,,,,,,,,,,,,,,,,,,,,,,,
,,666c6160d7613a472a88bc12,66fc97825bc6dc80a61d51bd,2024-10-02_02h54.52.878,mdp,2024.2.1,Win32,142.8571429,66fa4ebf79326e780c390304,,,,,,,,,,,,,,,,,,,,,357.678,357.678,357.678,358.212,0,0,left,0.021,,358.213,358.214,,1,,358.214,358.214,,0,,1,358.214,358.214,358.214,359.713,0,45,45,45,1,0.6,0.4,0.6,0.4,1,0,,,,,,,,,,,,,,,,,,,,,,,,,,,,,,,,,,,,
,,666c6160d7613a472a88bc12,66fc97825bc6dc80a61d51bd,2024-10-02_02h54.52.878,mdp,2024.2.1,Win32,142.8571429,66fa4ebf79326e780c390304,,,,,,,,,,,,,,,,,,,,,359.713,359.713,359.713,360.323,0,0,left,0.108,,360.324,360.324,,1,,360.324,360.324,,1,,1,360.324,360.324,360.324,361.823,0,46,46,46,1,0.6,0.4,0.6,0.4,1,0,,,,,,,,,,,,,,,,,,,,,,,,,,,,,,,,,,,,
,,666c6160d7613a472a88bc12,66fc97825bc6dc80a61d51bd,2024-10-02_02h54.52.878,mdp,2024.2.1,Win32,142.8571429,66fa4ebf79326e780c390304,,,,,,,,,,,,,,,,,,,,,361.823,361.823,361.823,362.587,0,0,left,0.255,,362.588,362.588,,0,,362.588,362.588,,0,,1,362.588,362.588,362.589,364.087,0,47,47,47,1,0.6,0.4,0.6,0.4,1,0,,,,,,,,,,,,,,,,,,,,,,,,,,,,,,,,,,,,
,,666c6160d7613a472a88bc12,66fc97825bc6dc80a61d51bd,2024-10-02_02h54.52.878,mdp,2024.2.1,Win32,142.8571429,66fa4ebf79326e780c390304,,,,,,,,,,,,,,,,,,,,,364.087,364.087,364.088,364.969,1,1,right,0.375,,364.97,364.971,,1,,364.971,364.971,,1,,0,364.971,364.971,364.971,366.469,0,48,48,48,1,0.6,0.4,0.6,0.4,1,0,,,,,,,,,,,,,,,,,,,,,,,,,,,,,,,,,,,,
,,666c6160d7613a472a88bc12,66fc97825bc6dc80a61d51bd,2024-10-02_02h54.52.878,mdp,2024.2.1,Win32,142.8571429,66fa4ebf79326e780c390304,,,,,,,,,,,,,,,,,,,,,366.469,366.469,366.47,368.052,0,0,left,1.078,,368.053,368.054,,0,,368.054,368.054,,0,,1,368.054,368.054,368.055,369.553,0,49,49,49,1,0.8,0.2,0.2,0.8,1,0,,,,,,,,,,,,,,,,,,,,,,,,,,,,,,,,,,,,
,,666c6160d7613a472a88bc12,66fc97825bc6dc80a61d51bd,2024-10-02_02h54.52.878,mdp,2024.2.1,Win32,142.8571429,66fa4ebf79326e780c390304,,,,,,,,,,,,,,,,,,,,,,,,,,,,,,,,,,,,,,,,,,,,,,,,,,,,,,,,369.553,429.502,0,0,0,6,1,imgs/kangaroo.png,imgs/dog.png,imgs/giraffe.png,imgs/rabbit.png,imgs/squirrel.png,,,,,,,,,,,,,,,,,,,,,,,,
,,666c6160d7613a472a88bc12,66fc97825bc6dc80a61d51bd,2024-10-02_02h54.52.878,mdp,2024.2.1,Win32,142.8571429,66fa4ebf79326e780c390304,,,,,,,,,,,,,,2,seqs/st2seq33.csv,429.51,432.212,space,2.197,,432.214,432.214,432.215,433.538,0,1,left,0.813,,433.539,435.164,1,1,right,435.164,435.164,,1,,0,435.164,435.164,435.165,436.663,0,0,0,0,1,0.2,0.8,0.6,0.4,,,,,,,,,,,,,,,1.114,,0.2,0.8,0.4,0.6,0.8,0.2,0.2,0.8,1,0,,,,,,,,,,,,
,,666c6160d7613a472a88bc12,66fc97825bc6dc80a61d51bd,2024-10-02_02h54.52.878,mdp,2024.2.1,Win32,142.8571429,66fa4ebf79326e780c390304,,,,,,,,,,,,,,,,,,,,,436.663,436.663,436.664,437.559,0,1,left,0.391,,437.559,438.656,0,1,left,438.657,438.657,,1,,0,438.657,438.657,438.658,440.156,0,1,1,1,1,0.2,0.8,0.6,0.4,,,,,,,,,,,,,,,0.59,,0.2,0.8,0.4,0.6,0.8,0.2,0.2,0.8,1,0,,,,,,,,,,,,
,,666c6160d7613a472a88bc12,66fc97825bc6dc80a61d51bd,2024-10-02_02h54.52.878,mdp,2024.2.1,Win32,142.8571429,66fa4ebf79326e780c390304,,,,,,,,,,,,,,,,,,,,,440.157,440.157,440.157,440.969,1,1,right,0.298,,440.97,441.907,1,1,right,441.907,441.907,,1,,0,441.907,441.907,441.907,443.406,0,2,2,2,1,0.4,0.6,0.4,0.6,,,,,,,,,,,,,,,0.434,,0.2,0.8,0.4,0.6,0.8,0.2,0.2,0.8,1,0,,,,,,,,,,,,
,,666c6160d7613a472a88bc12,66fc97825bc6dc80a61d51bd,2024-10-02_02h54.52.878,mdp,2024.2.1,Win32,142.8571429,66fa4ebf79326e780c390304,,,,,,,,,,,,,,,,,,,,,443.406,443.406,443.407,444.17,1,1,right,0.257,,444.171,445.004,0,0,left,445.004,445.004,,0,,1,445.004,445.004,445.004,446.504,0,3,3,3,1,0.4,0.6,0.4,0.6,,,,,,,,,,,,,,,0.332,,0.2,0.8,0.4,0.6,0.8,0.2,0.2,0.8,1,0,,,,,,,,,,,,
,,666c6160d7613a472a88bc12,66fc97825bc6dc80a61d51bd,2024-10-02_02h54.52.878,mdp,2024.2.1,Win32,142.8571429,66fa4ebf79326e780c390304,,,,,,,,,,,,,,,,,,,,,446.504,446.504,446.504,448.239,0,0,left,1.224,,448.24,449.642,1,0,right,449.643,449.644,,1,,1,449.644,449.644,449.644,451.148,0,4,4,4,1,0.4,0.6,0.4,0.6,,,,,,,,,,,,,,,0.893,,0.2,0.8,0.4,0.6,0.8,0.2,0.2,0.8,1,0,,,,,,,,,,,,
,,666c6160d7613a472a88bc12,66fc97825bc6dc80a61d51bd,2024-10-02_02h54.52.878,mdp,2024.2.1,Win32,142.8571429,66fa4ebf79326e780c390304,,,,,,,,,,,,,,,,,,,,,451.148,451.148,451.149,452.101,0,1,left,0.449,,452.101,453.448,0,0,left,453.448,453.448,,0,,1,453.448,453.448,453.449,454.948,0,5,5,5,1,0.4,0.6,0.4,0.6,,,,,,,,,,,,,,,0.837,,0.2,0.8,0.4,0.6,0.8,0.2,0.2,0.8,1,0,,,,,,,,,,,,
,,666c6160d7613a472a88bc12,66fc97825bc6dc80a61d51bd,2024-10-02_02h54.52.878,mdp,2024.2.1,Win32,142.8571429,66fa4ebf79326e780c390304,,,,,,,,,,,,,,,,,,,,,454.948,454.948,454.948,455.906,0,1,left,0.448,,455.907,458.74,1,1,right,458.74,458.741,,1,,0,458.741,458.741,458.742,460.24,0,6,6,6,1,0.4,0.6,0.4,0.6,,,,,,,,,,,,,,,2.329,,0.2,0.8,0.4,0.6,0.8,0.2,0.2,0.8,1,0,,,,,,,,,,,,
,,666c6160d7613a472a88bc12,66fc97825bc6dc80a61d51bd,2024-10-02_02h54.52.878,mdp,2024.2.1,Win32,142.8571429,66fa4ebf79326e780c390304,,,,,,,,,,,,,,,,,,,,,460.24,460.24,460.241,461.663,1,1,right,0.912,,461.664,462.517,0,0,left,462.518,462.518,,1,,1,462.518,462.518,462.518,464.017,0,7,7,7,1,0.4,0.6,0.4,0.6,,,,,,,,,,,,,,,0.351,,0.2,0.8,0.4,0.6,0.8,0.2,0.2,0.8,1,0,,,,,,,,,,,,
,,666c6160d7613a472a88bc12,66fc97825bc6dc80a61d51bd,2024-10-02_02h54.52.878,mdp,2024.2.1,Win32,142.8571429,66fa4ebf79326e780c390304,,,,,,,,,,,,,,,,,,,,,464.018,464.018,464.018,467.045,1,1,right,2.524,,467.045,468.483,1,1,right,468.483,468.483,,1,,0,468.484,468.484,468.484,469.982,0,8,8,8,1,0.4,0.6,0.4,0.6,,,,,,,,,,,,,,,0.928,,0.2,0.8,0.4,0.6,0.8,0.2,0.2,0.8,1,0,,,,,,,,,,,,
,,666c6160d7613a472a88bc12,66fc97825bc6dc80a61d51bd,2024-10-02_02h54.52.878,mdp,2024.2.1,Win32,142.8571429,66fa4ebf79326e780c390304,,,,,,,,,,,,,,,,,,,,,469.983,469.983,469.983,471.185,1,1,right,0.696,,471.185,472.1,0,1,left,472.101,472.102,,0,,0,472.102,472.102,472.102,473.601,0,9,9,9,1,0.4,0.6,0.4,0.6,,,,,,,,,,,,,,,0.408,,0.2,0.8,0.4,0.6,0.2,0.8,0.8,0.2,1,0,,,,,,,,,,,,
,,666c6160d7613a472a88bc12,66fc97825bc6dc80a61d51bd,2024-10-02_02h54.52.878,mdp,2024.2.1,Win32,142.8571429,66fa4ebf79326e780c390304,,,,,,,,,,,,,,,,,,,,,473.601,473.601,473.601,474.455,0,1,left,0.34,,474.455,475.253,1,0,right,475.253,475.254,,0,,1,475.254,475.254,475.254,476.753,0,10,10,10,1,0.4,0.6,0.4,0.6,,,,,,,,,,,,,,,0.287,,0.2,0.8,0.4,0.6,0.2,0.8,0.8,0.2,1,0,,,,,,,,,,,,
,,666c6160d7613a472a88bc12,66fc97825bc6dc80a61d51bd,2024-10-02_02h54.52.878,mdp,2024.2.1,Win32,142.8571429,66fa4ebf79326e780c390304,,,,,,,,,,,,,,,,,,,,,476.753,476.753,476.754,478.018,0,1,left,0.756,,478.018,478.865,1,0,right,478.865,478.866,,0,,1,478.866,478.866,478.866,480.364,0,11,11,11,1,0.2,0.8,0.6,0.4,,,,,,,,,,,,,,,0.33,,0.2,0.8,0.4,0.6,0.2,0.8,0.8,0.2,1,0,,,,,,,,,,,,
,,666c6160d7613a472a88bc12,66fc97825bc6dc80a61d51bd,2024-10-02_02h54.52.878,mdp,2024.2.1,Win32,142.8571429,66fa4ebf79326e780c390304,,,,,,,,,,,,,,,,,,,,,480.365,480.365,480.366,481.274,0,1,left,0.4,,481.275,482.15,1,0,right,482.15,482.15,,0,,1,482.15,482.15,482.151,483.65,0,12,12,12,1,0.2,0.8,0.6,0.4,,,,,,,,,,,,,,,0.368,,0.2,0.8,0.4,0.6,0.2,0.8,0.8,0.2,1,0,,,,,,,,,,,,
,,666c6160d7613a472a88bc12,66fc97825bc6dc80a61d51bd,2024-10-02_02h54.52.878,mdp,2024.2.1,Win32,142.8571429,66fa4ebf79326e780c390304,,,,,,,,,,,,,,,,,,,,,483.65,483.65,483.65,484.559,0,1,left,0.406,,484.56,485.427,1,0,right,485.427,485.428,,1,,1,485.428,485.428,485.428,486.927,0,13,13,13,1,0.6,0.4,0.4,0.6,,,,,,,,,,,,,,,0.36,,0.2,0.8,0.4,0.6,0.2,0.8,0.8,0.2,1,0,,,,,,,,,,,,
,,666c6160d7613a472a88bc12,66fc97825bc6dc80a61d51bd,2024-10-02_02h54.52.878,mdp,2024.2.1,Win32,142.8571429,66fa4ebf79326e780c390304,,,,,,,,,,,,,,,,,,,,,486.927,486.927,486.928,487.761,0,1,left,0.33,,487.761,488.663,1,1,right,488.663,488.664,,0,,0,488.664,488.664,488.664,490.164,0,14,14,14,1,0.6,0.4,0.4,0.6,,,,,,,,,,,,,,,0.392,,0.2,0.8,0.4,0.6,0.2,0.8,0.8,0.2,1,0,,,,,,,,,,,,
,,666c6160d7613a472a88bc12,66fc97825bc6dc80a61d51bd,2024-10-02_02h54.52.878,mdp,2024.2.1,Win32,142.8571429,66fa4ebf79326e780c390304,,,,,,,,,,,,,,,,,,,,,490.164,490.164,490.164,491.683,0,1,left,1.012,,491.685,492.504,1,1,right,492.504,492.505,,1,,0,492.505,492.505,492.505,494.003,0,15,15,15,1,0.6,0.4,0.4,0.6,,,,,,,,,,,,,,,0.316,,0.2,0.8,0.4,0.6,0.4,0.6,0.6,0.4,1,0,,,,,,,,,,,,
,,666c6160d7613a472a88bc12,66fc97825bc6dc80a61d51bd,2024-10-02_02h54.52.878,mdp,2024.2.1,Win32,142.8571429,66fa4ebf79326e780c390304,,,,,,,,,,,,,,,,,,,,,494.004,494.004,494.004,494.788,1,1,right,0.284,,494.788,495.566,0,0,left,495.566,495.567,,0,,1,495.567,495.567,495.567,497.065,0,16,16,16,1,0.6,0.4,0.4,0.6,,,,,,,,,,,,,,,0.271,,0.2,0.8,0.4,0.6,0.4,0.6,0.6,0.4,1,0,,,,,,,,,,,,
,,666c6160d7613a472a88bc12,66fc97825bc6dc80a61d51bd,2024-10-02_02h54.52.878,mdp,2024.2.1,Win32,142.8571429,66fa4ebf79326e780c390304,,,,,,,,,,,,,,,,,,,,,497.066,497.066,497.067,497.968,0,0,left,0.401,,497.97,499.489,1,1,right,499.49,499.49,,0,,0,499.491,499.491,499.491,500.989,0,17,17,17,1,0.6,0.4,0.4,0.6,,,,,,,,,,,,,,,1.01,,0.2,0.8,0.4,0.6,0.4,0.6,0.6,0.4,1,0,,,,,,,,,,,,
,,666c6160d7613a472a88bc12,66fc97825bc6dc80a61d51bd,2024-10-02_02h54.52.878,mdp,2024.2.1,Win32,142.8571429,66fa4ebf79326e780c390304,,,,,,,,,,,,,,,,,,,,,500.989,500.989,500.99,501.823,1,0,right,0.332,,501.824,502.579,0,1,left,502.581,502.581,,0,,0,502.581,502.581,502.581,504.08,0,18,18,18,1,0.6,0.4,0.4,0.6,,,,,,,,,,,,,,,0.248,,0.2,0.8,0.4,0.6,0.4,0.6,0.6,0.4,1,0,,,,,,,,,,,,
,,666c6160d7613a472a88bc12,66fc97825bc6dc80a61d51bd,2024-10-02_02h54.52.878,mdp,2024.2.1,Win32,142.8571429,66fa4ebf79326e780c390304,,,,,,,,,,,,,,,,,,,,,504.08,504.08,504.08,505.024,0,0,left,0.432,,505.025,505.802,0,1,left,505.802,505.803,,1,,0,505.803,505.803,505.803,507.302,0,19,19,19,1,0.6,0.4,0.4,0.6,,,,,,,,,,,,,,,0.272,,0.2,0.8,0.4,0.6,0.4,0.6,0.6,0.4,1,0,,,,,,,,,,,,
,,666c6160d7613a472a88bc12,66fc97825bc6dc80a61d51bd,2024-10-02_02h54.52.878,mdp,2024.2.1,Win32,142.8571429,66fa4ebf79326e780c390304,,,,,,,,,,,,,,,,,,,,,507.302,507.302,507.303,508.129,1,0,right,0.312,,508.129,508.878,1,0,right,508.879,508.879,,1,,1,508.879,508.879,508.88,510.378,0,20,20,20,1,0.6,0.4,0.4,0.6,,,,,,,,,,,,,,,0.236,,0.2,0.8,0.4,0.6,0.4,0.6,0.6,0.4,1,0,,,,,,,,,,,,
,,666c6160d7613a472a88bc12,66fc97825bc6dc80a61d51bd,2024-10-02_02h54.52.878,mdp,2024.2.1,Win32,142.8571429,66fa4ebf79326e780c390304,,,,,,,,,,,,,,,,,,,,,510.379,510.379,510.379,511.607,0,1,left,0.723,,511.608,512.615,1,0,right,512.615,512.615,,0,,1,512.615,512.615,512.615,514.114,0,21,21,21,1,0.6,0.4,0.4,0.6,,,,,,,,,,,,,,,0.499,,0.2,0.8,0.4,0.6,0.4,0.6,0.6,0.4,1,0,,,,,,,,,,,,
,,666c6160d7613a472a88bc12,66fc97825bc6dc80a61d51bd,2024-10-02_02h54.52.878,mdp,2024.2.1,Win32,142.8571429,66fa4ebf79326e780c390304,,,,,,,,,,,,,,,,,,,,,514.115,514.115,514.115,515.024,0,0,left,0.4,,515.025,516.767,0,1,left,516.768,516.768,,0,,0,516.768,516.768,516.768,518.267,0,22,22,22,1,0.6,0.4,0.4,0.6,,,,,,,,,,,,,,,1.232,,0.6,0.4,0.6,0.4,0.4,0.6,0.6,0.4,1,0,,,,,,,,,,,,
,,666c6160d7613a472a88bc12,66fc97825bc6dc80a61d51bd,2024-10-02_02h54.52.878,mdp,2024.2.1,Win32,142.8571429,66fa4ebf79326e780c390304,,,,,,,,,,,,,,,,,,,,,518.268,518.268,518.268,519.136,1,1,right,0.357,,519.136,519.899,1,0,right,519.9,519.901,,0,,1,519.901,519.901,519.901,521.399,0,23,23,23,1,0.6,0.4,0.4,0.6,,,,,,,,,,,,,,,0.25,,0.6,0.4,0.6,0.4,0.4,0.6,0.6,0.4,1,0,,,,,,,,,,,,
,,666c6160d7613a472a88bc12,66fc97825bc6dc80a61d51bd,2024-10-02_02h54.52.878,mdp,2024.2.1,Win32,142.8571429,66fa4ebf79326e780c390304,,,,,,,,,,,,,,,,,,,,,521.399,521.399,521.4,522.711,0,0,left,0.811,,522.712,524.198,1,0,right,524.198,524.199,,1,,1,524.199,524.199,524.199,525.698,0,24,24,24,1,0.8,0.2,0.8,0.2,,,,,,,,,,,,,,,0.979,,0.6,0.4,0.6,0.4,0.4,0.6,0.6,0.4,1,0,,,,,,,,,,,,
,,666c6160d7613a472a88bc12,66fc97825bc6dc80a61d51bd,2024-10-02_02h54.52.878,mdp,2024.2.1,Win32,142.8571429,66fa4ebf79326e780c390304,,,,,,,,,,,,,,,,,,,,,525.698,525.698,525.698,526.572,0,0,left,0.372,,526.573,528.108,1,0,right,528.108,528.108,,1,,1,528.108,528.108,528.109,529.608,0,25,25,25,1,0.6,0.4,0.6,0.4,,,,,,,,,,,,,,,1.029,,0.6,0.4,0.6,0.4,0.4,0.6,0.6,0.4,1,0,,,,,,,,,,,,
,,666c6160d7613a472a88bc12,66fc97825bc6dc80a61d51bd,2024-10-02_02h54.52.878,mdp,2024.2.1,Win32,142.8571429,66fa4ebf79326e780c390304,,,,,,,,,,,,,,,,,,,,,529.608,529.608,529.608,530.559,0,0,left,0.439,,530.56,531.607,1,0,right,531.608,531.609,,0,,1,531.609,531.609,531.609,533.107,0,26,26,26,1,0.6,0.4,0.6,0.4,,,,,,,,,,,,,,,0.537,,0.6,0.4,0.6,0.4,0.4,0.6,0.6,0.4,1,0,,,,,,,,,,,,
,,666c6160d7613a472a88bc12,66fc97825bc6dc80a61d51bd,2024-10-02_02h54.52.878,mdp,2024.2.1,Win32,142.8571429,66fa4ebf79326e780c390304,,,,,,,,,,,,,,,,,,,,,533.107,533.107,533.108,534.433,0,1,left,0.823,,534.434,535.67,1,0,right,535.67,535.67,,0,,1,535.67,535.67,535.671,537.17,0,27,27,27,1,0.6,0.4,0.6,0.4,,,,,,,,,,,,,,,0.731,,0.6,0.4,0.6,0.4,0.4,0.6,0.6,0.4,1,0,,,,,,,,,,,,
,,666c6160d7613a472a88bc12,66fc97825bc6dc80a61d51bd,2024-10-02_02h54.52.878,mdp,2024.2.1,Win32,142.8571429,66fa4ebf79326e780c390304,,,,,,,,,,,,,,,,,,,,,537.17,537.17,537.17,538.038,0,0,left,0.365,,538.038,539.072,1,1,right,539.073,539.073,,1,,0,539.073,539.073,539.073,540.573,0,28,28,28,1,0.6,0.4,0.6,0.4,,,,,,,,,,,,,,,0.526,,0.6,0.4,0.6,0.4,0.4,0.6,0.6,0.4,1,0,,,,,,,,,,,,
,,666c6160d7613a472a88bc12,66fc97825bc6dc80a61d51bd,2024-10-02_02h54.52.878,mdp,2024.2.1,Win32,142.8571429,66fa4ebf79326e780c390304,,,,,,,,,,,,,,,,,,,,,540.573,540.573,540.574,541.44,0,1,left,0.356,,541.441,542.511,1,1,right,542.511,542.511,,0,,0,542.511,542.511,542.511,544.01,0,29,29,29,1,0.6,0.4,0.6,0.4,,,,,,,,,,,,,,,0.562,,0.6,0.4,0.6,0.4,0.4,0.6,0.6,0.4,1,0,,,,,,,,,,,,
,,666c6160d7613a472a88bc12,66fc97825bc6dc80a61d51bd,2024-10-02_02h54.52.878,mdp,2024.2.1,Win32,142.8571429,66fa4ebf79326e780c390304,,,,,,,,,,,,,,,,,,,,,544.01,544.01,544.011,544.801,1,0,right,0.287,,544.803,545.801,1,0,right,545.803,545.803,,0,,1,545.803,545.803,545.804,547.302,0,30,30,30,1,0.6,0.4,0.6,0.4,,,,,,,,,,,,,,,0.494,,0.6,0.4,0.6,0.4,0.4,0.6,0.6,0.4,1,0,,,,,,,,,,,,
,,666c6160d7613a472a88bc12,66fc97825bc6dc80a61d51bd,2024-10-02_02h54.52.878,mdp,2024.2.1,Win32,142.8571429,66fa4ebf79326e780c390304,,,,,,,,,,,,,,,,,,,,,547.302,547.302,547.303,548.115,0,1,left,0.309,,548.115,549.151,1,0,right,549.152,549.152,,1,,1,549.152,549.152,549.152,550.648,0,31,31,31,1,0.6,0.4,0.6,0.4,,,,,,,,,,,,,,,0.533,,0.6,0.4,0.6,0.4,0.4,0.6,0.6,0.4,1,0,,,,,,,,,,,,
,,666c6160d7613a472a88bc12,66fc97825bc6dc80a61d51bd,2024-10-02_02h54.52.878,mdp,2024.2.1,Win32,142.8571429,66fa4ebf79326e780c390304,,,,,,,,,,,,,,,,,,,,,550.649,550.649,550.65,551.504,0,0,left,0.351,,551.504,552.268,1,0,right,552.268,552.268,,1,,1,552.268,552.268,552.268,553.767,0,32,32,32,1,0.6,0.4,0.6,0.4,,,,,,,,,,,,,,,0.253,,0.8,0.2,0.4,0.6,0.4,0.6,0.6,0.4,1,0,,,,,,,,,,,,
,,666c6160d7613a472a88bc12,66fc97825bc6dc80a61d51bd,2024-10-02_02h54.52.878,mdp,2024.2.1,Win32,142.8571429,66fa4ebf79326e780c390304,,,,,,,,,,,,,,,,,,,,,553.767,553.767,553.768,554.656,0,0,left,0.385,,554.656,555.524,1,1,right,555.525,555.525,,0,,0,555.525,555.525,555.525,557.024,0,33,33,33,1,0.6,0.4,0.6,0.4,,,,,,,,,,,,,,,0.364,,0.8,0.2,0.4,0.6,0.4,0.6,0.6,0.4,1,0,,,,,,,,,,,,
,,666c6160d7613a472a88bc12,66fc97825bc6dc80a61d51bd,2024-10-02_02h54.52.878,mdp,2024.2.1,Win32,142.8571429,66fa4ebf79326e780c390304,,,,,,,,,,,,,,,,,,,,,557.024,557.024,557.025,557.774,1,0,right,0.246,,557.775,558.663,1,1,right,558.663,558.664,,0,,0,558.664,558.664,558.665,560.163,0,34,34,34,1,0.6,0.4,0.6,0.4,,,,,,,,,,,,,,,0.382,,0.8,0.2,0.4,0.6,0.4,0.6,0.6,0.4,1,0,,,,,,,,,,,,
,,666c6160d7613a472a88bc12,66fc97825bc6dc80a61d51bd,2024-10-02_02h54.52.878,mdp,2024.2.1,Win32,142.8571429,66fa4ebf79326e780c390304,,,,,,,,,,,,,,,,,,,,,560.164,560.164,560.164,560.948,0,0,left,0.273,,560.948,561.684,1,1,right,561.685,561.685,,0,,0,561.685,561.685,561.685,563.184,0,35,35,35,1,0.6,0.4,0.6,0.4,,,,,,,,,,,,,,,0.227,,0.4,0.6,0.6,0.4,0.4,0.6,0.6,0.4,1,0,,,,,,,,,,,,
,,666c6160d7613a472a88bc12,66fc97825bc6dc80a61d51bd,2024-10-02_02h54.52.878,mdp,2024.2.1,Win32,142.8571429,66fa4ebf79326e780c390304,,,,,,,,,,,,,,,,,,,,,563.184,563.184,563.184,563.955,0,0,left,0.267,,563.955,564.733,0,1,left,564.733,564.733,,0,,0,564.733,564.733,564.733,566.232,0,36,36,36,1,0.6,0.4,0.6,0.4,,,,,,,,,,,,,,,0.269,,0.4,0.6,0.6,0.4,0.4,0.6,0.6,0.4,1,0,,,,,,,,,,,,
,,666c6160d7613a472a88bc12,66fc97825bc6dc80a61d51bd,2024-10-02_02h54.52.878,mdp,2024.2.1,Win32,142.8571429,66fa4ebf79326e780c390304,,,,,,,,,,,,,,,,,,,,,566.233,566.233,566.233,567.017,1,0,right,0.271,,567.017,567.92,0,0,left,567.921,567.921,,1,,1,567.921,567.921,567.921,569.42,0,37,37,37,1,0.6,0.4,0.6,0.4,,,,,,,,,,,,,,,0.4,,0.8,0.2,0.2,0.8,0.4,0.6,0.6,0.4,1,0,,,,,,,,,,,,
,,666c6160d7613a472a88bc12,66fc97825bc6dc80a61d51bd,2024-10-02_02h54.52.878,mdp,2024.2.1,Win32,142.8571429,66fa4ebf79326e780c390304,,,,,,,,,,,,,,,,,,,,,569.42,569.42,569.42,570.274,0,0,left,0.347,,570.275,571.115,1,1,right,571.115,571.115,,0,,0,571.115,571.115,571.115,572.614,0,38,38,38,1,0.6,0.4,0.6,0.4,,,,,,,,,,,,,,,0.339,,0.8,0.2,0.2,0.8,0.6,0.4,0.4,0.6,1,0,,,,,,,,,,,,
,,666c6160d7613a472a88bc12,66fc97825bc6dc80a61d51bd,2024-10-02_02h54.52.878,mdp,2024.2.1,Win32,142.8571429,66fa4ebf79326e780c390304,,,,,,,,,,,,,,,,,,,,,572.614,572.614,572.615,573.455,1,0,right,0.339,,573.455,574.281,0,0,left,574.282,574.282,,0,,1,574.282,574.282,574.283,575.781,0,39,39,39,1,0.6,0.4,0.6,0.4,,,,,,,,,,,,,,,0.316,,0.8,0.2,0.2,0.8,0.6,0.4,0.4,0.6,1,0,,,,,,,,,,,,
,,666c6160d7613a472a88bc12,66fc97825bc6dc80a61d51bd,2024-10-02_02h54.52.878,mdp,2024.2.1,Win32,142.8571429,66fa4ebf79326e780c390304,,,,,,,,,,,,,,,,,,,,,575.781,575.781,575.782,576.732,0,1,left,0.449,,576.733,577.76,1,0,right,577.761,577.762,,1,,1,577.762,577.762,577.762,579.26,0,40,40,40,1,0.6,0.4,0.6,0.4,,,,,,,,,,,,,,,0.521,,0.6,0.4,0.8,0.2,0.6,0.4,0.4,0.6,1,0,,,,,,,,,,,,
,,666c6160d7613a472a88bc12,66fc97825bc6dc80a61d51bd,2024-10-02_02h54.52.878,mdp,2024.2.1,Win32,142.8571429,66fa4ebf79326e780c390304,,,,,,,,,,,,,,,,,,,,,579.26,579.26,579.261,580.059,0,1,left,0.295,,580.059,581.024,1,0,right,581.025,581.025,,0,,1,581.025,581.025,581.025,582.524,0,41,41,41,1,0.6,0.4,0.6,0.4,,,,,,,,,,,,,,,0.461,,0.6,0.4,0.8,0.2,0.6,0.4,0.4,0.6,1,0,,,,,,,,,,,,
,,666c6160d7613a472a88bc12,66fc97825bc6dc80a61d51bd,2024-10-02_02h54.52.878,mdp,2024.2.1,Win32,142.8571429,66fa4ebf79326e780c390304,,,,,,,,,,,,,,,,,,,,,582.524,582.524,582.525,583.545,0,0,left,0.508,,583.545,584.392,1,0,right,584.393,584.393,,0,,1,584.393,584.393,584.393,585.892,0,42,42,42,1,0.6,0.4,0.6,0.4,,,,,,,,,,,,,,,0.34,,0.6,0.4,0.8,0.2,0.6,0.4,0.4,0.6,1,0,,,,,,,,,,,,
,,666c6160d7613a472a88bc12,66fc97825bc6dc80a61d51bd,2024-10-02_02h54.52.878,mdp,2024.2.1,Win32,142.8571429,66fa4ebf79326e780c390304,,,,,,,,,,,,,,,,,,,,,585.892,585.892,585.893,586.864,0,0,left,0.471,,586.865,587.614,1,0,right,587.615,587.615,,0,,1,587.616,587.616,587.616,589.114,0,43,43,43,1,0.6,0.4,0.6,0.4,,,,,,,,,,,,,,,0.248,,0.6,0.4,0.8,0.2,0.6,0.4,0.4,0.6,1,0,,,,,,,,,,,,
,,666c6160d7613a472a88bc12,66fc97825bc6dc80a61d51bd,2024-10-02_02h54.52.878,mdp,2024.2.1,Win32,142.8571429,66fa4ebf79326e780c390304,,,,,,,,,,,,,,,,,,,,,589.115,589.115,589.115,589.843,0,1,left,0.221,,589.844,590.663,1,1,right,590.663,590.665,,1,,0,590.665,590.665,590.665,592.163,0,44,44,44,1,0.6,0.4,0.6,0.4,,,,,,,,,,,,,,,0.309,,0.6,0.4,0.8,0.2,0.6,0.4,0.4,0.6,1,0,,,,,,,,,,,,
,,666c6160d7613a472a88bc12,66fc97825bc6dc80a61d51bd,2024-10-02_02h54.52.878,mdp,2024.2.1,Win32,142.8571429,66fa4ebf79326e780c390304,,,,,,,,,,,,,,,,,,,,,592.163,592.163,592.163,592.989,1,0,right,0.319,,592.99,594.739,0,0,left,594.74,594.741,,1,,1,594.741,594.741,594.741,596.239,0,45,45,45,1,0.6,0.4,0.6,0.4,,,,,,,,,,,,,,,1.246,,0.6,0.4,0.8,0.2,0.6,0.4,0.4,0.6,1,0,,,,,,,,,,,,
,,666c6160d7613a472a88bc12,66fc97825bc6dc80a61d51bd,2024-10-02_02h54.52.878,mdp,2024.2.1,Win32,142.8571429,66fa4ebf79326e780c390304,,,,,,,,,,,,,,,,,,,,,596.239,596.239,596.24,597.044,0,0,left,0.298,,597.045,599.399,0,0,left,599.4,599.4,,0,,1,599.4,599.4,599.4,600.899,0,46,46,46,1,0.6,0.4,0.6,0.4,,,,,,,,,,,,,,,1.85,,0.6,0.4,0.8,0.2,0.6,0.4,0.4,0.6,1,0,,,,,,,,,,,,
,,666c6160d7613a472a88bc12,66fc97825bc6dc80a61d51bd,2024-10-02_02h54.52.878,mdp,2024.2.1,Win32,142.8571429,66fa4ebf79326e780c390304,,,,,,,,,,,,,,,,,,,,,600.899,600.899,600.9,601.719,0,0,left,0.314,,601.719,603.017,0,0,left,603.018,603.018,,1,,1,603.018,603.018,603.019,604.517,0,47,47,47,1,0.6,0.4,0.6,0.4,,,,,,,,,,,,,,,0.786,,0.6,0.4,0.8,0.2,0.6,0.4,0.4,0.6,1,0,,,,,,,,,,,,
,,666c6160d7613a472a88bc12,66fc97825bc6dc80a61d51bd,2024-10-02_02h54.52.878,mdp,2024.2.1,Win32,142.8571429,66fa4ebf79326e780c390304,,,,,,,,,,,,,,,,,,,,,604.517,604.517,604.518,605.246,0,0,left,0.224,,605.246,606.364,0,0,left,606.364,606.365,,0,,1,606.365,606.365,606.365,607.865,0,48,48,48,1,0.6,0.4,0.6,0.4,,,,,,,,,,,,,,,0.616,,0.6,0.4,0.8,0.2,0.2,0.8,0.2,0.8,1,0,,,,,,,,,,,,
,,666c6160d7613a472a88bc12,66fc97825bc6dc80a61d51bd,2024-10-02_02h54.52.878,mdp,2024.2.1,Win32,142.8571429,66fa4ebf79326e780c390304,,,,,,,,,,,,,,,,,,,,,607.865,607.865,607.865,608.712,0,0,left,0.338,,608.712,609.663,0,1,left,609.663,609.664,,1,,0,609.664,609.664,609.664,611.163,0,49,49,49,1,0.6,0.4,0.6,0.4,,,,,,,,,,,,,,,0.438,,0.6,0.4,0.8,0.2,0.2,0.8,0.2,0.8,1,0,,,,,,,,,,,,
,,666c6160d7613a472a88bc12,66fc97825bc6dc80a61d51bd,2024-10-02_02h54.52.878,mdp,2024.2.1,Win32,142.8571429,66fa4ebf79326e780c390304,,,,,,,,,,,,,,,,,,,,,,,,,,,,,,,,,,,,,,,,,,,,,,,,,,,,,,,,611.163,669.669,0,1,1,7,1,imgs/kangaroo.png,imgs/giraffe.png,imgs/pig.png,imgs/lion.png,imgs/cat.png,,,,,,,,,,,,,,,,,,,,,,,,
,,666c6160d7613a472a88bc12,66fc97825bc6dc80a61d51bd,2024-10-02_02h54.52.878,mdp,2024.2.1,Win32,142.8571429,66fa4ebf79326e780c390304,,,,,,,,,,,,,,3,seqs/st3seq16.csv,669.676,678.253,space,8.072,,678.256,678.256,678.256,679.634,0,0,left,0.865,,679.635,680.669,0,0,left,680.67,682.301,0,0,left,1,682.301,682.301,682.302,683.801,0,0,0,0,1,0.4,0.6,0.6,0.4,,,,,,,,,,,,,,,0.525,,0.8,0.2,0.2,0.8,0.2,0.8,0.8,0.2,,,1.119,,0.4,0.6,0.8,0.2,0.8,0.2,0.6,0.4,1,0
,,666c6160d7613a472a88bc12,66fc97825bc6dc80a61d51bd,2024-10-02_02h54.52.878,mdp,2024.2.1,Win32,142.8571429,66fa4ebf79326e780c390304,,,,,,,,,,,,,,,,,,,,,683.802,683.802,683.802,684.711,0,0,left,0.398,,684.712,685.76,0,0,left,685.76,686.732,0,0,left,1,686.732,686.732,686.732,688.232,0,1,1,1,1,0.4,0.6,0.6,0.4,,,,,,,,,,,,,,,0.545,,0.8,0.2,0.2,0.8,0.2,0.8,0.8,0.2,,,0.466,,0.4,0.6,0.8,0.2,0.8,0.2,0.6,0.4,1,0
,,666c6160d7613a472a88bc12,66fc97825bc6dc80a61d51bd,2024-10-02_02h54.52.878,mdp,2024.2.1,Win32,142.8571429,66fa4ebf79326e780c390304,,,,,,,,,,,,,,,,,,,,,688.232,688.232,688.233,689.058,0,0,left,0.321,,689.059,690.003,0,0,left,690.004,690.878,0,0,left,1,690.878,690.878,690.878,692.378,0,2,2,2,1,0.4,0.6,0.6,0.4,,,,,,,,,,,,,,,0.444,,0.8,0.2,0.2,0.8,0.2,0.8,0.8,0.2,,,0.368,,0.4,0.6,0.8,0.2,0.8,0.2,0.6,0.4,1,0
,,666c6160d7613a472a88bc12,66fc97825bc6dc80a61d51bd,2024-10-02_02h54.52.878,mdp,2024.2.1,Win32,142.8571429,66fa4ebf79326e780c390304,,,,,,,,,,,,,,,,,,,,,692.378,692.378,692.378,693.03,0,1,left,0.139,,693.031,696.301,1,0,right,696.307,697.718,0,1,left,0,697.718,697.718,697.718,699.218,0,3,3,3,1,0.4,0.6,0.6,0.4,,,,,,,,,,,,,,,2.758,,0.8,0.2,0.2,0.8,0.2,0.8,0.8,0.2,,,0.911,,0.4,0.6,0.8,0.2,0.8,0.2,0.6,0.4,1,0
,,666c6160d7613a472a88bc12,66fc97825bc6dc80a61d51bd,2024-10-02_02h54.52.878,mdp,2024.2.1,Win32,142.8571429,66fa4ebf79326e780c390304,,,,,,,,,,,,,,,,,,,,,699.218,699.218,699.219,727.502,0,1,left,27.782,,727.509,729.559,1,0,right,729.559,730.662,1,1,right,0,730.662,730.662,730.663,732.162,0,4,4,4,1,0.4,0.6,0.6,0.4,,,,,,,,,,,,,,,1.551,,0.8,0.2,0.2,0.8,0.2,0.8,0.8,0.2,,,0.592,,0.4,0.6,0.8,0.2,0.8,0.2,0.6,0.4,1,0
,,666c6160d7613a472a88bc12,66fc97825bc6dc80a61d51bd,2024-10-02_02h54.52.878,mdp,2024.2.1,Win32,142.8571429,66fa4ebf79326e780c390304,,,,,,,,,,,,,,,,,,,,,732.163,732.163,732.164,732.968,0,1,left,0.294,,732.969,734.259,0,1,left,734.26,735.684,1,1,right,0,735.684,735.684,735.684,737.184,0,5,5,5,1,0.4,0.6,0.6,0.4,,,,,,,,,,,,,,,0.789,,0.8,0.2,0.2,0.8,0.2,0.8,0.8,0.2,,,0.913,,0.4,0.6,0.8,0.2,0.8,0.2,0.6,0.4,1,0
,,666c6160d7613a472a88bc12,66fc97825bc6dc80a61d51bd,2024-10-02_02h54.52.878,mdp,2024.2.1,Win32,142.8571429,66fa4ebf79326e780c390304,,,,,,,,,,,,,,,,,,,,,737.184,737.184,737.184,738.551,0,0,left,0.858,,738.551,740.614,0,1,left,740.614,741.912,1,0,right,1,741.912,741.912,741.912,743.412,0,6,6,6,1,0.4,0.6,0.6,0.4,,,,,,,,,,,,,,,1.557,,0.8,0.2,0.2,0.8,0.2,0.8,0.8,0.2,,,0.794,,0.4,0.6,0.8,0.2,0.8,0.2,0.6,0.4,1,0
,,666c6160d7613a472a88bc12,66fc97825bc6dc80a61d51bd,2024-10-02_02h54.52.878,mdp,2024.2.1,Win32,142.8571429,66fa4ebf79326e780c390304,,,,,,,,,,,,,,,,,,,,,743.412,743.412,743.413,760.628,0,0,left,16.707,,760.634,761.856,0,0,left,761.858,763.204,0,1,left,0,763.204,763.204,763.204,764.704,0,7,7,7,1,0.4,0.6,0.6,0.4,,,,,,,,,,,,,,,0.724,,0.8,0.2,0.2,0.8,0.2,0.8,0.8,0.2,,,0.841,,0.4,0.6,0.8,0.2,0.8,0.2,0.6,0.4,1,0
,,666c6160d7613a472a88bc12,66fc97825bc6dc80a61d51bd,2024-10-02_02h54.52.878,mdp,2024.2.1,Win32,142.8571429,66fa4ebf79326e780c390304,,,,,,,,,,,,,,,,,,,,,764.704,764.704,764.705,790.113,1,0,right,24.906,,790.12,791.357,0,0,left,791.357,792.433,0,1,left,0,792.433,792.433,792.434,793.933,0,8,8,8,1,0.4,0.6,0.6,0.4,,,,,,,,,,,,,,,0.739,,0.8,0.2,0.2,0.8,0.2,0.8,0.8,0.2,,,0.568,,0.4,0.6,0.8,0.2,0.8,0.2,0.6,0.4,1,0
,,666c6160d7613a472a88bc12,66fc97825bc6dc80a61d51bd,2024-10-02_02h54.52.878,mdp,2024.2.1,Win32,142.8571429,66fa4ebf79326e780c390304,,,,,,,,,,,,,,,,,,,,,793.933,793.933,793.934,794.62,0,1,left,0.185,,794.621,796.051,1,1,right,796.051,797.239,1,1,right,0,797.239,797.239,797.239,798.738,0,9,9,9,1,0.4,0.6,0.6,0.4,,,,,,,,,,,,,,,0.926,,0.8,0.2,0.2,0.8,0.2,0.8,0.8,0.2,,,0.681,,0.4,0.6,0.8,0.2,0.4,0.6,0.4,0.6,1,0
,,666c6160d7613a472a88bc12,66fc97825bc6dc80a61d51bd,2024-10-02_02h54.52.878,mdp,2024.2.1,Win32,142.8571429,66fa4ebf79326e780c390304,,,,,,,,,,,,,,,,,,,,,798.738,798.738,798.739,799.662,0,0,left,0.418,,799.663,800.822,0,0,left,800.822,801.759,0,0,left,1,801.76,801.76,801.76,803.259,0,10,10,10,1,0.4,0.6,0.6,0.4,,,,,,,,,,,,,,,0.654,,0.8,0.2,0.2,0.8,0.2,0.8,0.8,0.2,,,0.432,,0.4,0.6,0.8,0.2,0.4,0.6,0.4,0.6,1,0
,,666c6160d7613a472a88bc12,66fc97825bc6dc80a61d51bd,2024-10-02_02h54.52.878,mdp,2024.2.1,Win32,142.8571429,66fa4ebf79326e780c390304,,,,,,,,,,,,,,,,,,,,,803.259,803.259,803.26,804.092,0,1,left,0.328,,804.093,806.15,1,0,right,806.156,807.801,1,0,right,1,807.801,807.801,807.802,809.301,0,11,11,11,1,0.4,0.6,0.6,0.4,,,,,,,,,,,,,,,1.549,,0.8,0.2,0.2,0.8,0.2,0.8,0.8,0.2,,,1.138,,0.4,0.6,0.8,0.2,0.4,0.6,0.4,0.6,1,0
,,666c6160d7613a472a88bc12,66fc97825bc6dc80a61d51bd,2024-10-02_02h54.52.878,mdp,2024.2.1,Win32,142.8571429,66fa4ebf79326e780c390304,,,,,,,,,,,,,,,,,,,,,809.302,809.302,809.302,810.336,0,1,left,0.522,,810.336,811.496,1,0,right,811.496,812.703,1,0,right,1,812.703,812.703,812.705,814.204,0,12,12,12,1,0.4,0.6,0.6,0.4,,,,,,,,,,,,,,,0.645,,0.8,0.2,0.2,0.8,0.2,0.8,0.8,0.2,,,0.697,,0.4,0.6,0.8,0.2,0.4,0.6,0.4,0.6,1,0
,,666c6160d7613a472a88bc12,66fc97825bc6dc80a61d51bd,2024-10-02_02h54.52.878,mdp,2024.2.1,Win32,142.8571429,66fa4ebf79326e780c390304,,,,,,,,,,,,,,,,,,,,,814.204,814.204,814.204,815.024,0,0,left,0.314,,815.024,816.51,0,0,left,816.51,817.461,0,1,left,0,817.461,817.461,817.462,818.961,0,13,13,13,1,0.4,0.6,0.6,0.4,,,,,,,,,,,,,,,0.967,,0.8,0.2,0.2,0.8,0.2,0.8,0.8,0.2,,,0.441,,0.4,0.6,0.8,0.2,0.8,0.2,0.6,0.4,1,0
,,666c6160d7613a472a88bc12,66fc97825bc6dc80a61d51bd,2024-10-02_02h54.52.878,mdp,2024.2.1,Win32,142.8571429,66fa4ebf79326e780c390304,,,,,,,,,,,,,,,,,,,,,818.961,818.961,818.962,820.051,0,0,left,0.586,,820.051,821.086,0,0,left,821.086,822.045,1,1,right,0,822.045,822.045,822.045,823.544,0,14,14,14,1,0.4,0.6,0.6,0.4,,,,,,,,,,,,,,,0.531,,0.8,0.2,0.2,0.8,0.2,0.8,0.8,0.2,,,0.425,,0.4,0.6,0.8,0.2,0.8,0.2,0.6,0.4,1,0
,,666c6160d7613a472a88bc12,66fc97825bc6dc80a61d51bd,2024-10-02_02h54.52.878,mdp,2024.2.1,Win32,142.8571429,66fa4ebf79326e780c390304,,,,,,,,,,,,,,,,,,,,,823.544,823.544,823.545,824.503,0,1,left,0.453,,824.503,825.76,1,0,right,825.76,827.398,1,0,right,1,827.398,827.398,827.399,828.899,0,15,15,15,1,0.4,0.6,0.6,0.4,,,,,,,,,,,,,,,0.744,,0.4,0.6,0.4,0.6,0.2,0.8,0.8,0.2,,,1.125,,0.4,0.6,0.8,0.2,0.8,0.2,0.6,0.4,1,0
,,666c6160d7613a472a88bc12,66fc97825bc6dc80a61d51bd,2024-10-02_02h54.52.878,mdp,2024.2.1,Win32,142.8571429,66fa4ebf79326e780c390304,,,,,,,,,,,,,,,,,,,,,828.899,828.899,828.9,829.76,0,1,left,0.349,,829.76,830.995,1,0,right,830.996,832.655,1,0,right,1,832.655,832.655,832.656,834.155,0,16,16,16,1,0.4,0.6,0.6,0.4,,,,,,,,,,,,,,,0.722,,0.4,0.6,0.4,0.6,0.2,0.8,0.8,0.2,,,1.156,,0.2,0.8,0.6,0.4,0.8,0.2,0.6,0.4,1,0
,,666c6160d7613a472a88bc12,66fc97825bc6dc80a61d51bd,2024-10-02_02h54.52.878,mdp,2024.2.1,Win32,142.8571429,66fa4ebf79326e780c390304,,,,,,,,,,,,,,,,,,,,,834.155,834.155,834.156,834.94,0,0,left,0.28,,834.94,837.989,0,1,left,837.989,839.107,1,1,right,0,839.107,839.107,839.107,840.606,0,17,17,17,1,0.4,0.6,0.6,0.4,,,,,,,,,,,,,,,2.538,,0.4,0.6,0.4,0.6,0.2,0.8,0.8,0.2,,,0.603,,0.2,0.8,0.6,0.4,0.8,0.2,0.6,0.4,1,0
,,666c6160d7613a472a88bc12,66fc97825bc6dc80a61d51bd,2024-10-02_02h54.52.878,mdp,2024.2.1,Win32,142.8571429,66fa4ebf79326e780c390304,,,,,,,,,,,,,,,,,,,,,840.606,840.606,840.607,841.377,0,0,left,0.265,,841.378,842.746,0,1,left,842.746,843.731,0,0,left,1,843.731,843.731,843.732,845.232,0,18,18,18,1,0.4,0.6,0.6,0.4,,,,,,,,,,,,,,,0.866,,0.4,0.6,0.4,0.6,0.2,0.8,0.8,0.2,,,0.48,,0.2,0.8,0.6,0.4,0.8,0.2,0.6,0.4,1,0
,,666c6160d7613a472a88bc12,66fc97825bc6dc80a61d51bd,2024-10-02_02h54.52.878,mdp,2024.2.1,Win32,142.8571429,66fa4ebf79326e780c390304,,,,,,,,,,,,,,,,,,,,,845.232,845.232,845.232,846.224,0,0,left,0.485,,846.225,847.446,0,0,left,847.447,848.593,1,1,right,0,848.593,848.593,848.594,850.093,0,19,19,19,1,0.4,0.6,0.6,0.4,,,,,,,,,,,,,,,0.717,,0.4,0.6,0.4,0.6,0.2,0.8,0.8,0.2,,,0.638,,0.2,0.8,0.6,0.4,0.8,0.2,0.6,0.4,1,0
,,666c6160d7613a472a88bc12,66fc97825bc6dc80a61d51bd,2024-10-02_02h54.52.878,mdp,2024.2.1,Win32,142.8571429,66fa4ebf79326e780c390304,,,,,,,,,,,,,,,,,,,,,850.093,850.093,850.093,851.017,0,0,left,0.417,,851.017,853.037,0,0,left,853.037,854.245,1,1,right,0,854.245,854.245,854.246,855.745,0,20,20,20,1,0.4,0.6,0.6,0.4,,,,,,,,,,,,,,,1.511,,0.4,0.6,0.4,0.6,0.2,0.8,0.8,0.2,,,0.702,,0.4,0.6,0.2,0.8,0.8,0.2,0.6,0.4,1,0
,,666c6160d7613a472a88bc12,66fc97825bc6dc80a61d51bd,2024-10-02_02h54.52.878,mdp,2024.2.1,Win32,142.8571429,66fa4ebf79326e780c390304,,,,,,,,,,,,,,,,,,,,,855.745,855.745,855.747,856.62,0,0,left,0.37,,856.621,857.523,1,0,right,857.523,859.87,0,1,left,0,859.87,859.87,859.871,861.37,0,21,21,21,1,0.4,0.6,0.6,0.4,,,,,,,,,,,,,,,0.399,,0.4,0.6,0.4,0.6,0.2,0.8,0.8,0.2,,,1.844,,0.4,0.6,0.2,0.8,0.8,0.2,0.6,0.4,1,0
,,666c6160d7613a472a88bc12,66fc97825bc6dc80a61d51bd,2024-10-02_02h54.52.878,mdp,2024.2.1,Win32,142.8571429,66fa4ebf79326e780c390304,,,,,,,,,,,,,,,,,,,,,861.37,861.37,861.371,862.176,0,1,left,0.299,,862.176,863.55,1,1,right,863.551,864.822,1,0,right,1,864.822,864.822,864.822,866.322,0,22,22,22,1,0.4,0.6,0.6,0.4,,,,,,,,,,,,,,,0.87,,0.4,0.6,0.4,0.6,0.2,0.8,0.8,0.2,,,0.761,,0.4,0.6,0.2,0.8,0.8,0.2,0.6,0.4,1,0
,,666c6160d7613a472a88bc12,66fc97825bc6dc80a61d51bd,2024-10-02_02h54.52.878,mdp,2024.2.1,Win32,142.8571429,66fa4ebf79326e780c390304,,,,,,,,,,,,,,,,,,,,,866.322,866.322,866.323,867.135,0,0,left,0.306,,867.137,868.864,1,0,right,868.864,870.142,1,1,right,0,870.142,870.142,870.143,871.642,0,23,23,23,1,0.4,0.6,0.6,0.4,,,,,,,,,,,,,,,1.213,,0.4,0.6,0.4,0.6,0.2,0.8,0.8,0.2,,,0.764,,0.4,0.6,0.2,0.8,0.8,0.2,0.6,0.4,1,0
,,666c6160d7613a472a88bc12,66fc97825bc6dc80a61d51bd,2024-10-02_02h54.52.878,mdp,2024.2.1,Win32,142.8571429,66fa4ebf79326e780c390304,,,,,,,,,,,,,,,,,,,,,871.642,871.642,871.642,872.558,0,1,left,0.411,,872.559,873.773,1,0,right,873.774,875.655,1,1,right,0,875.655,875.655,875.655,877.155,0,24,24,24,1,0.4,0.6,0.6,0.4,,,,,,,,,,,,,,,0.71,,0.4,0.6,0.4,0.6,0.2,0.8,0.8,0.2,,,1.378,,0.4,0.6,0.2,0.8,0.8,0.2,0.6,0.4,1,0
,,666c6160d7613a472a88bc12,66fc97825bc6dc80a61d51bd,2024-10-02_02h54.52.878,mdp,2024.2.1,Win32,142.8571429,66fa4ebf79326e780c390304,,,,,,,,,,,,,,,,,,,,,877.155,877.155,877.156,877.835,0,1,left,0.174,,877.837,878.898,1,0,right,878.899,879.939,0,0,left,1,879.939,879.939,879.941,881.44,0,25,25,25,1,0.4,0.6,0.6,0.4,,,,,,,,,,,,,,,0.555,,0.4,0.6,0.4,0.6,0.2,0.8,0.8,0.2,,,0.537,,0.4,0.6,0.2,0.8,0.8,0.2,0.6,0.4,1,0
,,666c6160d7613a472a88bc12,66fc97825bc6dc80a61d51bd,2024-10-02_02h54.52.878,mdp,2024.2.1,Win32,142.8571429,66fa4ebf79326e780c390304,,,,,,,,,,,,,,,,,,,,,881.44,881.44,881.441,882.231,0,1,left,0.276,,882.233,883.739,1,0,right,883.739,885.391,0,0,left,1,885.391,885.391,885.391,886.891,0,26,26,26,1,0.4,0.6,0.6,0.4,,,,,,,,,,,,,,,1,,0.4,0.6,0.4,0.6,0.2,0.8,0.8,0.2,,,1.142,,0.4,0.6,0.2,0.8,0.8,0.2,0.6,0.4,1,0
,,666c6160d7613a472a88bc12,66fc97825bc6dc80a61d51bd,2024-10-02_02h54.52.878,mdp,2024.2.1,Win32,142.8571429,66fa4ebf79326e780c390304,,,,,,,,,,,,,,,,,,,,,886.891,886.891,886.892,887.704,0,1,left,0.307,,887.704,889.363,1,0,right,889.363,890.475,0,0,left,1,890.475,890.475,890.475,891.974,0,27,27,27,1,0.4,0.6,0.6,0.4,,,,,,,,,,,,,,,1.145,,0.4,0.6,0.4,0.6,0.6,0.4,0.2,0.8,,,0.61,,0.4,0.6,0.2,0.8,0.8,0.2,0.6,0.4,1,0
,,666c6160d7613a472a88bc12,66fc97825bc6dc80a61d51bd,2024-10-02_02h54.52.878,mdp,2024.2.1,Win32,142.8571429,66fa4ebf79326e780c390304,,,,,,,,,,,,,,,,,,,,,891.975,891.975,891.976,892.752,0,0,left,0.267,,892.753,894.968,1,0,right,894.968,897.419,0,0,left,1,897.419,897.419,897.42,898.919,0,28,28,28,1,0.4,0.6,0.6,0.4,,,,,,,,,,,,,,,1.711,,0.4,0.6,0.4,0.6,0.6,0.4,0.2,0.8,,,1.938,,0.4,0.6,0.2,0.8,0.8,0.2,0.6,0.4,1,0
,,666c6160d7613a472a88bc12,66fc97825bc6dc80a61d51bd,2024-10-02_02h54.52.878,mdp,2024.2.1,Win32,142.8571429,66fa4ebf79326e780c390304,,,,,,,,,,,,,,,,,,,,,898.919,898.919,898.92,899.793,0,0,left,0.369,,899.794,901.149,1,0,right,901.149,902.03,0,0,left,1,902.03,902.03,902.031,903.53,0,29,29,29,1,0.4,0.6,0.6,0.4,,,,,,,,,,,,,,,0.853,,0.4,0.6,0.4,0.6,0.6,0.4,0.2,0.8,,,0.368,,0.4,0.6,0.2,0.8,0.8,0.2,0.6,0.4,1,0
,,666c6160d7613a472a88bc12,66fc97825bc6dc80a61d51bd,2024-10-02_02h54.52.878,mdp,2024.2.1,Win32,142.8571429,66fa4ebf79326e780c390304,,,,,,,,,,,,,,,,,,,,,903.53,903.531,903.531,904.426,0,1,left,0.383,,904.426,905.731,1,1,right,905.732,906.759,1,1,right,0,906.759,906.759,906.76,908.259,0,30,30,30,1,0.4,0.6,0.6,0.4,,,,,,,,,,,,,,,0.799,,0.4,0.6,0.4,0.6,0.6,0.4,0.2,0.8,,,0.518,,0.4,0.6,0.2,0.8,0.8,0.2,0.6,0.4,1,0
,,666c6160d7613a472a88bc12,66fc97825bc6dc80a61d51bd,2024-10-02_02h54.52.878,mdp,2024.2.1,Win32,142.8571429,66fa4ebf79326e780c390304,,,,,,,,,,,,,,,,,,,,,908.26,908.26,908.26,909.418,0,1,left,0.646,,909.42,910.412,1,1,right,910.413,911.447,0,0,left,1,911.447,911.447,911.447,912.947,0,31,31,31,1,0.4,0.6,0.6,0.4,,,,,,,,,,,,,,,0.482,,0.4,0.6,0.4,0.6,0.6,0.4,0.2,0.8,,,0.532,,0.4,0.6,0.2,0.8,0.8,0.2,0.6,0.4,1,0
,,666c6160d7613a472a88bc12,66fc97825bc6dc80a61d51bd,2024-10-02_02h54.52.878,mdp,2024.2.1,Win32,142.8571429,66fa4ebf79326e780c390304,,,,,,,,,,,,,,,,,,,,,912.947,912.947,912.948,913.752,0,1,left,0.299,,913.753,914.995,1,1,right,914.996,916.023,0,0,left,1,916.023,916.023,916.024,917.523,0,32,32,32,1,0.4,0.6,0.6,0.4,,,,,,,,,,,,,,,0.733,,0.4,0.6,0.4,0.6,0.6,0.4,0.2,0.8,,,0.525,,0.4,0.6,0.2,0.8,0.8,0.2,0.6,0.4,1,0
,,666c6160d7613a472a88bc12,66fc97825bc6dc80a61d51bd,2024-10-02_02h54.52.878,mdp,2024.2.1,Win32,142.8571429,66fa4ebf79326e780c390304,,,,,,,,,,,,,,,,,,,,,917.524,917.524,917.524,918.349,0,0,left,0.313,,918.35,920.044,1,1,right,920.044,921.287,1,1,right,0,921.287,921.287,921.288,922.787,0,33,33,33,1,0.4,0.6,0.6,0.4,,,,,,,,,,,,,,,1.186,,0.4,0.6,0.4,0.6,0.6,0.4,0.2,0.8,,,0.736,,0.4,0.6,0.2,0.8,0.8,0.2,0.6,0.4,1,0
,,666c6160d7613a472a88bc12,66fc97825bc6dc80a61d51bd,2024-10-02_02h54.52.878,mdp,2024.2.1,Win32,142.8571429,66fa4ebf79326e780c390304,,,,,,,,,,,,,,,,,,,,,922.787,922.787,922.787,923.599,0,1,left,0.306,,923.6,924.731,1,1,right,924.732,926.287,0,1,left,0,926.287,926.287,926.287,927.787,0,34,34,34,1,0.4,0.6,0.6,0.4,,,,,,,,,,,,,,,0.624,,0.4,0.6,0.4,0.6,0.6,0.4,0.2,0.8,,,1.054,,0.4,0.6,0.2,0.8,0.8,0.2,0.6,0.4,1,0
,,666c6160d7613a472a88bc12,66fc97825bc6dc80a61d51bd,2024-10-02_02h54.52.878,mdp,2024.2.1,Win32,142.8571429,66fa4ebf79326e780c390304,,,,,,,,,,,,,,,,,,,,,927.787,927.787,927.788,928.586,0,0,left,0.294,,928.587,929.69,1,1,right,929.69,931.036,1,1,right,0,931.037,931.037,931.037,932.536,0,35,35,35,1,0.4,0.6,0.6,0.4,,,,,,,,,,,,,,,0.587,,0.4,0.6,0.4,0.6,0.6,0.4,0.2,0.8,,,0.843,,0.4,0.6,0.2,0.8,0.8,0.2,0.6,0.4,1,0
,,666c6160d7613a472a88bc12,66fc97825bc6dc80a61d51bd,2024-10-02_02h54.52.878,mdp,2024.2.1,Win32,142.8571429,66fa4ebf79326e780c390304,,,,,,,,,,,,,,,,,,,,,932.537,932.537,932.538,933.391,0,0,left,0.348,,933.391,934.446,0,0,left,934.447,935.579,1,1,right,0,935.579,935.579,935.579,937.079,0,36,36,36,1,0.4,0.6,0.6,0.4,,,,,,,,,,,,,,,0.551,,0.4,0.6,0.4,0.6,0.6,0.4,0.2,0.8,,,0.621,,0.4,0.6,0.2,0.8,0.8,0.2,0.6,0.4,1,0
,,666c6160d7613a472a88bc12,66fc97825bc6dc80a61d51bd,2024-10-02_02h54.52.878,mdp,2024.2.1,Win32,142.8571429,66fa4ebf79326e780c390304,,,,,,,,,,,,,,,,,,,,,937.079,937.079,937.079,938.154,0,0,left,0.572,,938.155,938.912,1,1,right,938.912,940.28,0,0,left,1,940.28,940.28,940.281,941.78,0,37,37,37,1,0.4,0.6,0.6,0.4,,,,,,,,,,,,,,,0.251,,0.4,0.6,0.4,0.6,0.6,0.4,0.2,0.8,,,0.851,,0.4,0.6,0.2,0.8,0.8,0.2,0.6,0.4,1,0
,,666c6160d7613a472a88bc12,66fc97825bc6dc80a61d51bd,2024-10-02_02h54.52.878,mdp,2024.2.1,Win32,142.8571429,66fa4ebf79326e780c390304,,,,,,,,,,,,,,,,,,,,,941.781,941.781,941.781,942.495,0,1,left,0.207,,942.496,943.579,1,1,right,943.579,944.898,0,0,left,1,944.898,944.898,944.899,946.398,0,38,38,38,1,0.4,0.6,0.6,0.4,,,,,,,,,,,,,,,0.576,,0.4,0.6,0.4,0.6,0.6,0.4,0.2,0.8,,,0.808,,0.4,0.6,0.2,0.8,0.8,0.2,0.6,0.4,1,0
,,666c6160d7613a472a88bc12,66fc97825bc6dc80a61d51bd,2024-10-02_02h54.52.878,mdp,2024.2.1,Win32,142.8571429,66fa4ebf79326e780c390304,,,,,,,,,,,,,,,,,,,,,946.398,946.398,946.399,947.176,0,1,left,0.275,,947.176,948.142,1,1,right,948.142,949.05,0,1,left,0,949.05,949.05,949.051,950.551,0,39,39,39,1,0.4,0.6,0.6,0.4,,,,,,,,,,,,,,,0.459,,0.4,0.6,0.4,0.6,0.6,0.4,0.2,0.8,,,0.396,,0.4,0.6,0.2,0.8,0.8,0.2,0.6,0.4,1,0
,,666c6160d7613a472a88bc12,66fc97825bc6dc80a61d51bd,2024-10-02_02h54.52.878,mdp,2024.2.1,Win32,142.8571429,66fa4ebf79326e780c390304,,,,,,,,,,,,,,,,,,,,,950.551,950.551,950.551,951.37,0,1,left,0.305,,951.37,952.238,1,1,right,952.238,953.308,0,0,left,1,953.308,953.308,953.309,954.807,0,40,40,40,1,0.4,0.6,0.6,0.4,,,,,,,,,,,,,,,0.364,,0.4,0.6,0.4,0.6,0.6,0.4,0.2,0.8,,,0.56,,0.4,0.6,0.2,0.8,0.8,0.2,0.6,0.4,1,0
,,666c6160d7613a472a88bc12,66fc97825bc6dc80a61d51bd,2024-10-02_02h54.52.878,mdp,2024.2.1,Win32,142.8571429,66fa4ebf79326e780c390304,,,,,,,,,,,,,,,,,,,,,954.808,954.808,954.809,956.03,0,1,left,0.708,,956.03,957.071,1,1,right,957.072,958.259,0,0,left,1,958.259,958.259,958.259,959.759,0,41,41,41,1,0.4,0.6,0.6,0.4,,,,,,,,,,,,,,,0.538,,0.4,0.6,0.4,0.6,0.6,0.4,0.2,0.8,,,0.685,,0.2,0.8,0.6,0.4,0.8,0.2,0.6,0.4,1,0
,,666c6160d7613a472a88bc12,66fc97825bc6dc80a61d51bd,2024-10-02_02h54.52.878,mdp,2024.2.1,Win32,142.8571429,66fa4ebf79326e780c390304,,,,,,,,,,,,,,,,,,,,,959.76,959.76,959.76,960.53,0,0,left,0.258,,960.531,962.009,1,0,right,962.01,963.328,1,1,right,0,963.328,963.328,963.329,964.829,0,42,42,42,1,0.4,0.6,0.6,0.4,,,,,,,,,,,,,,,0.967,,0.4,0.6,0.4,0.6,0.6,0.4,0.2,0.8,,,0.811,,0.2,0.8,0.6,0.4,0.8,0.2,0.6,0.4,1,0
,,666c6160d7613a472a88bc12,66fc97825bc6dc80a61d51bd,2024-10-02_02h54.52.878,mdp,2024.2.1,Win32,142.8571429,66fa4ebf79326e780c390304,,,,,,,,,,,,,,,,,,,,,964.829,964.829,964.829,965.634,0,1,left,0.302,,965.635,966.829,1,1,right,966.829,967.898,0,0,left,1,967.898,967.898,967.898,969.398,0,43,43,43,1,0.4,0.6,0.6,0.4,,,,,,,,,,,,,,,0.684,,0.6,0.4,0.2,0.8,0.6,0.4,0.2,0.8,,,0.564,,0.2,0.8,0.6,0.4,0.8,0.2,0.6,0.4,1,0
,,666c6160d7613a472a88bc12,66fc97825bc6dc80a61d51bd,2024-10-02_02h54.52.878,mdp,2024.2.1,Win32,142.8571429,66fa4ebf79326e780c390304,,,,,,,,,,,,,,,,,,,,,969.398,969.398,969.399,970.364,0,0,left,0.46,,970.364,971.627,1,0,right,971.627,973.606,0,1,left,0,973.606,973.606,973.607,975.106,0,44,44,44,1,0.4,0.6,0.6,0.4,,,,,,,,,,,,,,,0.75,,0.6,0.4,0.2,0.8,0.6,0.4,0.2,0.8,,,1.472,,0.2,0.8,0.6,0.4,0.8,0.2,0.6,0.4,1,0
,,666c6160d7613a472a88bc12,66fc97825bc6dc80a61d51bd,2024-10-02_02h54.52.878,mdp,2024.2.1,Win32,142.8571429,66fa4ebf79326e780c390304,,,,,,,,,,,,,,,,,,,,,975.106,975.106,975.107,976.099,0,1,left,0.487,,976.1,977.008,1,1,right,977.009,978.246,0,0,left,1,978.246,978.246,978.246,979.744,0,45,45,45,1,0.4,0.6,0.6,0.4,,,,,,,,,,,,,,,0.405,,0.6,0.4,0.2,0.8,0.6,0.4,0.2,0.8,,,0.731,,0.2,0.8,0.6,0.4,0.8,0.2,0.6,0.4,1,0
,,666c6160d7613a472a88bc12,66fc97825bc6dc80a61d51bd,2024-10-02_02h54.52.878,mdp,2024.2.1,Win32,142.8571429,66fa4ebf79326e780c390304,,,,,,,,,,,,,,,,,,,,,979.744,979.744,979.744,980.578,0,1,left,0.325,,980.579,981.544,1,1,right,981.544,982.704,0,0,left,1,982.704,982.704,982.704,984.204,0,46,46,46,1,0.4,0.6,0.6,0.4,,,,,,,,,,,,,,,0.461,,0.6,0.4,0.2,0.8,0.6,0.4,0.2,0.8,,,0.655,,0.2,0.8,0.6,0.4,0.8,0.2,0.6,0.4,1,0
,,666c6160d7613a472a88bc12,66fc97825bc6dc80a61d51bd,2024-10-02_02h54.52.878,mdp,2024.2.1,Win32,142.8571429,66fa4ebf79326e780c390304,,,,,,,,,,,,,,,,,,,,,984.204,984.204,984.204,985.454,0,1,left,0.739,,985.454,986.724,1,1,right,986.725,987.683,0,1,left,0,987.683,987.683,987.683,989.183,0,47,47,47,1,0.4,0.6,0.6,0.4,,,,,,,,,,,,,,,0.759,,0.6,0.4,0.2,0.8,0.6,0.4,0.2,0.8,,,0.455,,0.2,0.8,0.6,0.4,0.8,0.2,0.6,0.4,1,0
,,666c6160d7613a472a88bc12,66fc97825bc6dc80a61d51bd,2024-10-02_02h54.52.878,mdp,2024.2.1,Win32,142.8571429,66fa4ebf79326e780c390304,,,,,,,,,,,,,,,,,,,,,989.183,989.183,989.183,990.002,0,1,left,0.315,,990.002,990.891,1,1,right,990.891,991.849,0,0,left,1,991.849,991.849,991.85,993.349,0,48,48,48,1,0.4,0.6,0.6,0.4,,,,,,,,,,,,,,,0.387,,0.6,0.4,0.2,0.8,0.6,0.4,0.2,0.8,,,0.454,,0.2,0.8,0.6,0.4,0.8,0.2,0.6,0.4,1,0
,,666c6160d7613a472a88bc12,66fc97825bc6dc80a61d51bd,2024-10-02_02h54.52.878,mdp,2024.2.1,Win32,142.8571429,66fa4ebf79326e780c390304,,,,,,,,,,,,,,,,,,,,,993.349,993.349,993.349,994.252,0,1,left,0.398,,994.253,995.154,1,0,right,995.155,996.294,1,0,right,1,996.294,996.294,996.294,997.794,0,49,49,49,1,0.4,0.6,0.6,0.4,,,,,,,,,,,,,,,0.399,,0.6,0.4,0.2,0.8,0.6,0.4,0.2,0.8,,,0.632,,0.2,0.8,0.6,0.4,0.8,0.2,0.6,0.4,1,0
,,666c6160d7613a472a88bc12,66fc97825bc6dc80a61d51bd,2024-10-02_02h54.52.878,mdp,2024.2.1,Win32,142.8571429,66fa4ebf79326e780c390304,,,,,,,,,,,,,,,,,,,,,,,,,,,,,,,,,,,,,,,,,,,,,,,,,,,,,,,,997.794,1056.3,0,2,2,2,1,imgs/elephant.png,imgs/goat.png,imgs/horse.png,imgs/bear.png,imgs/cat.png,,,,,,,,,,,,,,,,,,,,,,,,
,,666c6160d7613a472a88bc12,66fc97825bc6dc80a61d51bd,2024-10-02_02h54.52.878,mdp,2024.2.1,Win32,142.8571429,66fa4ebf79326e780c390304,,,,,,,,,,,,,,3,seqs/st3seq2.csv,1056.306,1135.085,space,78.272,0,1135.088,1135.088,1135.089,1136.273,0,0,left,0.671,,1136.273,1137.28,1,1,right,1137.28,1138.348,0,1,left,0,1138.348,1138.348,1138.349,1139.849,0,0,0,0,1,0.6,0.4,0.4,0.6,,,,,,,,,,,,,,,0.488,,0.4,0.6,0.4,0.6,0.4,0.6,0.6,0.4,,,0.554,,0.4,0.6,0.2,0.8,0.2,0.8,0.8,0.2,1,0
,,666c6160d7613a472a88bc12,66fc97825bc6dc80a61d51bd,2024-10-02_02h54.52.878,mdp,2024.2.1,Win32,142.8571429,66fa4ebf79326e780c390304,,,,,,,,,,,,,,,,,,,,,1139.849,1139.849,1139.85,1140.675,0,0,left,0.322,,1140.675,1141.641,0,1,left,1141.641,1142.515,0,1,left,0,1142.515,1142.515,1142.516,1144.015,0,1,1,1,1,0.6,0.4,0.4,0.6,,,,,,,,,,,,,,,0.437,,0.4,0.6,0.4,0.6,0.4,0.6,0.6,0.4,,,0.366,,0.4,0.6,0.2,0.8,0.2,0.8,0.8,0.2,1,0
,,666c6160d7613a472a88bc12,66fc97825bc6dc80a61d51bd,2024-10-02_02h54.52.878,mdp,2024.2.1,Win32,142.8571429,66fa4ebf79326e780c390304,,,,,,,,,,,,,,,,,,,,,1144.015,1144.015,1144.016,1144.863,1,1,right,0.334,,1144.864,1146.411,1,0,right,1146.412,1147.231,1,1,right,0,1147.231,1147.231,1147.231,1148.73,0,2,2,2,1,0.6,0.4,0.4,0.6,,,,,,,,,,,,,,,1.033,,0.4,0.6,0.4,0.6,0.4,0.6,0.6,0.4,,,0.311,,0.4,0.6,0.2,0.8,0.2,0.8,0.8,0.2,1,0
,,666c6160d7613a472a88bc12,66fc97825bc6dc80a61d51bd,2024-10-02_02h54.52.878,mdp,2024.2.1,Win32,142.8571429,66fa4ebf79326e780c390304,,,,,,,,,,,,,,,,,,,,,1148.731,1148.731,1148.731,1149.696,1,1,right,0.458,,1149.697,1150.703,0,0,left,1150.703,1151.604,0,1,left,0,1151.604,1151.604,1151.605,1153.099,0,3,3,3,1,0.6,0.4,0.4,0.6,,,,,,,,,,,,,,,0.501,,0.4,0.6,0.4,0.6,0.6,0.4,0.2,0.8,,,0.399,,0.4,0.6,0.2,0.8,0.2,0.8,0.8,0.2,1,0
,,666c6160d7613a472a88bc12,66fc97825bc6dc80a61d51bd,2024-10-02_02h54.52.878,mdp,2024.2.1,Win32,142.8571429,66fa4ebf79326e780c390304,,,,,,,,,,,,,,,,,,,,,1153.099,1153.099,1153.1,1154.092,1,1,right,0.489,,1154.092,1154.96,0,1,left,1154.96,1155.71,1,0,right,1,1155.71,1155.71,1155.711,1157.21,0,4,4,4,1,0.6,0.4,0.4,0.6,,,,,,,,,,,,,,,0.365,,0.4,0.6,0.4,0.6,0.6,0.4,0.2,0.8,,,0.245,,0.4,0.6,0.2,0.8,0.2,0.8,0.8,0.2,1,0
,,666c6160d7613a472a88bc12,66fc97825bc6dc80a61d51bd,2024-10-02_02h54.52.878,mdp,2024.2.1,Win32,142.8571429,66fa4ebf79326e780c390304,,,,,,,,,,,,,,,,,,,,,1157.21,1157.21,1157.211,1157.863,1,0,right,0.148,,1157.863,1158.794,0,0,left,1158.794,1159.815,1,0,right,1,1159.815,1159.815,1159.815,1161.314,0,5,5,5,1,0.6,0.4,0.4,0.6,,,,,,,,,,,,,,,0.424,,0.4,0.6,0.4,0.6,0.6,0.4,0.2,0.8,,,0.506,,0.4,0.6,0.2,0.8,0.2,0.8,0.8,0.2,1,0
,,666c6160d7613a472a88bc12,66fc97825bc6dc80a61d51bd,2024-10-02_02h54.52.878,mdp,2024.2.1,Win32,142.8571429,66fa4ebf79326e780c390304,,,,,,,,,,,,,,,,,,,,,1161.314,1161.314,1161.315,1162.189,1,1,right,0.361,,1162.19,1163.293,0,1,left,1163.294,1164.425,1,0,right,1,1164.426,1164.426,1164.426,1165.925,0,6,6,6,1,0.6,0.4,0.4,0.6,,,,,,,,,,,,,,,0.596,,0.4,0.6,0.4,0.6,0.6,0.4,0.2,0.8,,,0.624,,0.4,0.6,0.2,0.8,0.2,0.8,0.8,0.2,1,0
,,666c6160d7613a472a88bc12,66fc97825bc6dc80a61d51bd,2024-10-02_02h54.52.878,mdp,2024.2.1,Win32,142.8571429,66fa4ebf79326e780c390304,,,,,,,,,,,,,,,,,,,,,1165.925,1165.925,1165.926,1166.807,1,1,right,0.376,,1166.807,1167.64,0,1,left,1167.641,1168.502,1,0,right,1,1168.502,1168.502,1168.502,1170.002,0,7,7,7,1,0.6,0.4,0.4,0.6,,,,,,,,,,,,,,,0.327,,0.4,0.6,0.4,0.6,0.6,0.4,0.2,0.8,,,0.352,,0.4,0.6,0.2,0.8,0.2,0.8,0.8,0.2,1,0
,,666c6160d7613a472a88bc12,66fc97825bc6dc80a61d51bd,2024-10-02_02h54.52.878,mdp,2024.2.1,Win32,142.8571429,66fa4ebf79326e780c390304,,,,,,,,,,,,,,,,,,,,,1170.002,1170.002,1170.003,1170.89,1,0,right,0.375,,1170.891,1171.807,0,1,left,1171.808,1172.897,1,0,right,1,1172.897,1172.897,1172.897,1174.397,0,8,8,8,1,0.6,0.4,0.4,0.6,,,,,,,,,,,,,,,0.409,,0.4,0.6,0.4,0.6,0.6,0.4,0.2,0.8,,,0.582,,0.4,0.6,0.2,0.8,0.2,0.8,0.8,0.2,1,0
,,666c6160d7613a472a88bc12,66fc97825bc6dc80a61d51bd,2024-10-02_02h54.52.878,mdp,2024.2.1,Win32,142.8571429,66fa4ebf79326e780c390304,,,,,,,,,,,,,,,,,,,,,1174.397,1174.397,1174.398,1175.21,1,1,right,0.306,,1175.211,1176.091,0,0,left,1176.093,1177.001,1,0,right,1,1177.002,1177.002,1177.002,1178.502,0,9,9,9,1,0.6,0.4,0.4,0.6,,,,,,,,,,,,,,,0.375,,0.4,0.6,0.4,0.6,0.6,0.4,0.2,0.8,,,0.404,,0.4,0.6,0.2,0.8,0.2,0.8,0.8,0.2,1,0
,,666c6160d7613a472a88bc12,66fc97825bc6dc80a61d51bd,2024-10-02_02h54.52.878,mdp,2024.2.1,Win32,142.8571429,66fa4ebf79326e780c390304,,,,,,,,,,,,,,,,,,,,,1178.502,1178.502,1178.503,1179.356,1,0,right,0.339,,1179.356,1180.175,0,1,left,1180.175,1180.932,1,0,right,1,1180.932,1180.932,1180.932,1182.432,0,10,10,10,1,0.6,0.4,0.4,0.6,,,,,,,,,,,,,,,0.305,,0.4,0.6,0.4,0.6,0.6,0.4,0.2,0.8,,,0.251,,0.4,0.6,0.2,0.8,0.2,0.8,0.8,0.2,1,0
,,666c6160d7613a472a88bc12,66fc97825bc6dc80a61d51bd,2024-10-02_02h54.52.878,mdp,2024.2.1,Win32,142.8571429,66fa4ebf79326e780c390304,,,,,,,,,,,,,,,,,,,,,1182.432,1182.432,1182.433,1183.314,1,0,right,0.374,,1183.314,1184.099,0,1,left,1184.099,1184.876,1,0,right,1,1184.876,1184.876,1184.877,1186.376,0,11,11,11,1,0.6,0.4,0.4,0.6,,,,,,,,,,,,,,,0.28,,0.4,0.6,0.4,0.6,0.6,0.4,0.2,0.8,,,0.268,,0.4,0.6,0.2,0.8,0.2,0.8,0.8,0.2,1,0
,,666c6160d7613a472a88bc12,66fc97825bc6dc80a61d51bd,2024-10-02_02h54.52.878,mdp,2024.2.1,Win32,142.8571429,66fa4ebf79326e780c390304,,,,,,,,,,,,,,,,,,,,,1186.376,1186.376,1186.377,1187.383,1,1,right,0.501,,1187.384,1188.155,0,1,left,1188.155,1188.89,1,1,right,0,1188.89,1188.89,1188.891,1190.39,0,12,12,12,1,0.6,0.4,0.4,0.6,,,,,,,,,,,,,,,0.264,,0.4,0.6,0.4,0.6,0.6,0.4,0.2,0.8,,,0.225,,0.4,0.6,0.2,0.8,0.2,0.8,0.8,0.2,1,0
,,666c6160d7613a472a88bc12,66fc97825bc6dc80a61d51bd,2024-10-02_02h54.52.878,mdp,2024.2.1,Win32,142.8571429,66fa4ebf79326e780c390304,,,,,,,,,,,,,,,,,,,,,1190.39,1190.39,1190.391,1191.21,1,1,right,0.313,,1191.211,1191.973,0,0,left,1191.975,1192.689,1,1,right,0,1192.689,1192.689,1192.689,1194.189,0,13,13,13,1,0.6,0.4,0.4,0.6,,,,,,,,,,,,,,,0.25,,0.4,0.6,0.4,0.6,0.6,0.4,0.2,0.8,,,0.205,,0.4,0.6,0.2,0.8,0.2,0.8,0.8,0.2,1,0
,,666c6160d7613a472a88bc12,66fc97825bc6dc80a61d51bd,2024-10-02_02h54.52.878,mdp,2024.2.1,Win32,142.8571429,66fa4ebf79326e780c390304,,,,,,,,,,,,,,,,,,,,,1194.189,1194.189,1194.19,1194.966,1,1,right,0.272,,1194.967,1195.8,1,1,right,1195.801,1196.543,0,1,left,0,1196.544,1196.544,1196.544,1198.043,0,14,14,14,1,0.6,0.4,0.4,0.6,,,,,,,,,,,,,,,0.326,,0.2,0.8,0.2,0.8,0.6,0.4,0.2,0.8,,,0.233,,0.4,0.6,0.2,0.8,0.2,0.8,0.8,0.2,1,0
,,666c6160d7613a472a88bc12,66fc97825bc6dc80a61d51bd,2024-10-02_02h54.52.878,mdp,2024.2.1,Win32,142.8571429,66fa4ebf79326e780c390304,,,,,,,,,,,,,,,,,,,,,1198.043,1198.043,1198.044,1198.953,0,1,left,0.403,,1198.953,1199.682,1,1,right,1199.683,1200.591,0,1,left,0,1200.591,1200.591,1200.593,1202.091,0,15,15,15,1,0.6,0.4,0.4,0.6,,,,,,,,,,,,,,,0.226,,0.2,0.8,0.2,0.8,0.6,0.4,0.2,0.8,,,0.403,,0.4,0.6,0.2,0.8,0.2,0.8,0.8,0.2,1,0
,,666c6160d7613a472a88bc12,66fc97825bc6dc80a61d51bd,2024-10-02_02h54.52.878,mdp,2024.2.1,Win32,142.8571429,66fa4ebf79326e780c390304,,,,,,,,,,,,,,,,,,,,,1202.092,1202.092,1202.092,1203.356,0,1,left,0.755,,1203.356,1205.348,0,0,left,1205.349,1206.119,1,0,right,1,1206.119,1206.119,1206.12,1207.619,0,16,16,16,1,0.6,0.4,0.4,0.6,,,,,,,,,,,,,,,1.479,,0.2,0.8,0.2,0.8,0.6,0.4,0.2,0.8,,,0.262,,0.4,0.6,0.2,0.8,0.2,0.8,0.8,0.2,1,0
,,666c6160d7613a472a88bc12,66fc97825bc6dc80a61d51bd,2024-10-02_02h54.52.878,mdp,2024.2.1,Win32,142.8571429,66fa4ebf79326e780c390304,,,,,,,,,,,,,,,,,,,,,1207.619,1207.619,1207.62,1208.445,0,0,left,0.321,,1208.446,1209.182,0,1,left,1209.183,1209.806,1,0,right,1,1209.807,1209.807,1209.807,1211.307,0,17,17,17,1,0.6,0.4,0.4,0.6,,,,,,,,,,,,,,,0.227,,0.2,0.8,0.2,0.8,0.6,0.4,0.2,0.8,,,0.12,,0.4,0.6,0.2,0.8,0.8,0.2,0.6,0.4,1,0
,,666c6160d7613a472a88bc12,66fc97825bc6dc80a61d51bd,2024-10-02_02h54.52.878,mdp,2024.2.1,Win32,142.8571429,66fa4ebf79326e780c390304,,,,,,,,,,,,,,,,,,,,,1211.307,1211.307,1211.307,1212.154,0,1,left,0.331,,1212.155,1213.161,0,0,left,1213.161,1213.967,1,1,right,0,1213.967,1213.967,1213.967,1215.467,0,18,18,18,1,0.6,0.4,0.4,0.6,,,,,,,,,,,,,,,0.498,,0.2,0.8,0.2,0.8,0.6,0.4,0.2,0.8,,,0.297,,0.4,0.6,0.2,0.8,0.8,0.2,0.6,0.4,1,0
,,666c6160d7613a472a88bc12,66fc97825bc6dc80a61d51bd,2024-10-02_02h54.52.878,mdp,2024.2.1,Win32,142.8571429,66fa4ebf79326e780c390304,,,,,,,,,,,,,,,,,,,,,1215.467,1215.467,1215.467,1216.78,0,0,left,0.805,,1216.78,1218.327,1,1,right,1218.328,1219.425,1,1,right,0,1219.425,1219.425,1219.426,1220.925,0,19,19,19,1,0.8,0.2,0.2,0.8,,,,,,,,,,,,,,,1.035,,0.2,0.8,0.2,0.8,0.6,0.4,0.2,0.8,,,0.588,,0.4,0.6,0.2,0.8,0.8,0.2,0.6,0.4,1,0
,,666c6160d7613a472a88bc12,66fc97825bc6dc80a61d51bd,2024-10-02_02h54.52.878,mdp,2024.2.1,Win32,142.8571429,66fa4ebf79326e780c390304,,,,,,,,,,,,,,,,,,,,,1220.925,1220.925,1220.926,1224.008,1,1,right,2.572,,1224.008,1227.21,0,1,left,1227.216,1228.689,0,0,left,1,1228.689,1228.689,1228.689,1230.189,0,20,20,20,1,0.8,0.2,0.2,0.8,,,,,,,,,,,,,,,2.694,,0.2,0.8,0.2,0.8,0.6,0.4,0.2,0.8,,,0.964,,0.4,0.6,0.2,0.8,0.8,0.2,0.6,0.4,1,0
,,666c6160d7613a472a88bc12,66fc97825bc6dc80a61d51bd,2024-10-02_02h54.52.878,mdp,2024.2.1,Win32,142.8571429,66fa4ebf79326e780c390304,,,,,,,,,,,,,,,,,,,,,1230.189,1230.189,1230.19,1231.008,1,1,right,0.304,,1231.009,1232.064,0,0,left,1232.064,1233.23,1,0,right,1,1233.23,1233.23,1233.231,1234.731,0,21,21,21,1,0.8,0.2,0.2,0.8,,,,,,,,,,,,,,,0.549,,0.2,0.8,0.2,0.8,0.6,0.4,0.2,0.8,,,0.66,,0.4,0.6,0.2,0.8,0.8,0.2,0.6,0.4,1,0
,,666c6160d7613a472a88bc12,66fc97825bc6dc80a61d51bd,2024-10-02_02h54.52.878,mdp,2024.2.1,Win32,142.8571429,66fa4ebf79326e780c390304,,,,,,,,,,,,,,,,,,,,,1234.731,1234.731,1234.731,1235.522,1,1,right,0.278,,1235.523,1237.016,0,0,left,1237.016,1237.987,1,1,right,0,1237.987,1237.987,1237.987,1239.488,0,22,22,22,1,0.8,0.2,0.2,0.8,,,,,,,,,,,,,,,0.991,,0.2,0.8,0.2,0.8,0.6,0.4,0.2,0.8,,,0.46,,0.4,0.6,0.2,0.8,0.8,0.2,0.6,0.4,1,0
,,666c6160d7613a472a88bc12,66fc97825bc6dc80a61d51bd,2024-10-02_02h54.52.878,mdp,2024.2.1,Win32,142.8571429,66fa4ebf79326e780c390304,,,,,,,,,,,,,,,,,,,,,1239.488,1239.488,1239.488,1240.355,1,1,right,0.357,,1240.356,1241.223,0,0,left,1241.224,1242.307,0,1,left,0,1242.307,1242.307,1242.308,1243.807,0,23,23,23,1,0.8,0.2,0.2,0.8,,,,,,,,,,,,,,,0.365,,0.2,0.8,0.2,0.8,0.6,0.4,0.2,0.8,,,0.576,,0.4,0.6,0.2,0.8,0.8,0.2,0.6,0.4,1,0
,,666c6160d7613a472a88bc12,66fc97825bc6dc80a61d51bd,2024-10-02_02h54.52.878,mdp,2024.2.1,Win32,142.8571429,66fa4ebf79326e780c390304,,,,,,,,,,,,,,,,,,,,,1243.807,1243.807,1243.808,1244.717,1,1,right,0.403,,1244.717,1245.495,0,1,left,1245.495,1247.251,0,0,left,1,1247.251,1247.251,1247.252,1248.745,0,24,24,24,1,0.8,0.2,0.2,0.8,,,,,,,,,,,,,,,0.27,,0.2,0.8,0.2,0.8,0.6,0.4,0.2,0.8,,,1.241,,0.4,0.6,0.2,0.8,0.8,0.2,0.6,0.4,1,0
,,666c6160d7613a472a88bc12,66fc97825bc6dc80a61d51bd,2024-10-02_02h54.52.878,mdp,2024.2.1,Win32,142.8571429,66fa4ebf79326e780c390304,,,,,,,,,,,,,,,,,,,,,1248.745,1248.745,1248.745,1249.612,1,1,right,0.355,,1249.612,1250.494,0,1,left,1250.494,1251.904,0,0,left,1,1251.904,1251.904,1251.905,1253.404,0,25,25,25,1,0.8,0.2,0.2,0.8,,,,,,,,,,,,,,,0.377,,0.2,0.8,0.2,0.8,0.6,0.4,0.2,0.8,,,0.906,,0.4,0.6,0.2,0.8,0.8,0.2,0.6,0.4,1,0
,,666c6160d7613a472a88bc12,66fc97825bc6dc80a61d51bd,2024-10-02_02h54.52.878,mdp,2024.2.1,Win32,142.8571429,66fa4ebf79326e780c390304,,,,,,,,,,,,,,,,,,,,,1253.405,1253.405,1253.405,1254.439,1,1,right,0.522,,1254.439,1255.223,0,1,left,1255.224,1256.105,0,0,left,1,1256.105,1256.105,1256.106,1257.606,0,26,26,26,1,0.8,0.2,0.2,0.8,,,,,,,,,,,,,,,0.271,,0.2,0.8,0.2,0.8,0.4,0.6,0.6,0.4,,,0.377,,0.4,0.6,0.2,0.8,0.8,0.2,0.6,0.4,1,0
,,666c6160d7613a472a88bc12,66fc97825bc6dc80a61d51bd,2024-10-02_02h54.52.878,mdp,2024.2.1,Win32,142.8571429,66fa4ebf79326e780c390304,,,,,,,,,,,,,,,,,,,,,1257.606,1257.606,1257.606,1258.661,1,1,right,0.55,,1258.661,1259.446,0,1,left,1259.446,1260.39,0,0,left,1,1260.39,1260.39,1260.391,1261.891,0,27,27,27,1,0.8,0.2,0.2,0.8,,,,,,,,,,,,,,,0.278,,0.2,0.8,0.2,0.8,0.4,0.6,0.6,0.4,,,0.437,,0.4,0.6,0.2,0.8,0.8,0.2,0.6,0.4,1,0
,,666c6160d7613a472a88bc12,66fc97825bc6dc80a61d51bd,2024-10-02_02h54.52.878,mdp,2024.2.1,Win32,142.8571429,66fa4ebf79326e780c390304,,,,,,,,,,,,,,,,,,,,,1261.891,1261.891,1261.891,1263.578,1,0,right,1.174,,1263.578,1265.314,1,1,right,1265.314,1266.418,0,1,left,0,1266.418,1266.418,1266.418,1267.918,0,28,28,28,1,0.8,0.2,0.2,0.8,,,,,,,,,,,,,,,1.225,,0.2,0.8,0.2,0.8,0.4,0.6,0.6,0.4,,,0.599,,0.4,0.6,0.2,0.8,0.8,0.2,0.6,0.4,1,0
,,666c6160d7613a472a88bc12,66fc97825bc6dc80a61d51bd,2024-10-02_02h54.52.878,mdp,2024.2.1,Win32,142.8571429,66fa4ebf79326e780c390304,,,,,,,,,,,,,,,,,,,,,1267.918,1267.918,1267.918,1268.73,1,1,right,0.306,,1268.73,1269.689,0,0,left,1269.689,1271.001,1,1,right,0,1271.001,1271.001,1271.002,1272.501,0,29,29,29,1,0.8,0.2,0.2,0.8,,,,,,,,,,,,,,,0.45,,0.2,0.8,0.2,0.8,0.4,0.6,0.6,0.4,,,0.797,,0.4,0.6,0.2,0.8,0.8,0.2,0.6,0.4,1,0
,,666c6160d7613a472a88bc12,66fc97825bc6dc80a61d51bd,2024-10-02_02h54.52.878,mdp,2024.2.1,Win32,142.8571429,66fa4ebf79326e780c390304,,,,,,,,,,,,,,,,,,,,,1272.502,1272.502,1272.502,1273.535,0,0,left,0.524,,1273.536,1275.209,0,0,left,1275.21,1276.348,1,0,right,1,1276.348,1276.348,1276.349,1277.848,0,30,30,30,1,0.8,0.2,0.2,0.8,,,,,,,,,,,,,,,1.165,,0.2,0.8,0.2,0.8,0.4,0.6,0.6,0.4,,,0.635,,0.4,0.6,0.2,0.8,0.8,0.2,0.6,0.4,1,0
,,666c6160d7613a472a88bc12,66fc97825bc6dc80a61d51bd,2024-10-02_02h54.52.878,mdp,2024.2.1,Win32,142.8571429,66fa4ebf79326e780c390304,,,,,,,,,,,,,,,,,,,,,1277.849,1277.849,1277.849,1278.723,0,0,left,0.365,,1278.724,1279.758,0,1,left,1279.758,1280.931,0,0,left,1,1280.931,1280.931,1280.933,1282.431,0,31,31,31,1,0.8,0.2,0.2,0.8,,,,,,,,,,,,,,,0.531,,0.2,0.8,0.2,0.8,0.4,0.6,0.6,0.4,,,0.665,,0.4,0.6,0.2,0.8,0.8,0.2,0.6,0.4,1,0
,,666c6160d7613a472a88bc12,66fc97825bc6dc80a61d51bd,2024-10-02_02h54.52.878,mdp,2024.2.1,Win32,142.8571429,66fa4ebf79326e780c390304,,,,,,,,,,,,,,,,,,,,,1282.432,1282.432,1282.432,1283.334,0,0,left,0.389,,1283.335,1284.411,0,0,left,1284.411,1285.3,1,1,right,0,1285.3,1285.3,1285.3,1286.8,0,32,32,32,1,0.8,0.2,0.2,0.8,,,,,,,,,,,,,,,0.57,,0.2,0.8,0.2,0.8,0.4,0.6,0.6,0.4,,,0.38,,0.4,0.6,0.2,0.8,0.8,0.2,0.6,0.4,1,0
,,666c6160d7613a472a88bc12,66fc97825bc6dc80a61d51bd,2024-10-02_02h54.52.878,mdp,2024.2.1,Win32,142.8571429,66fa4ebf79326e780c390304,,,,,,,,,,,,,,,,,,,,,1286.8,1286.8,1286.801,1287.675,0,1,left,0.363,,1287.675,1288.897,1,0,right,1288.897,1290.035,1,0,right,1,1290.036,1290.036,1290.036,1291.535,0,33,33,33,1,0.8,0.2,0.2,0.8,,,,,,,,,,,,,,,0.714,,0.2,0.8,0.2,0.8,0.4,0.6,0.6,0.4,,,0.626,,0.4,0.6,0.2,0.8,0.8,0.2,0.6,0.4,1,0
,,666c6160d7613a472a88bc12,66fc97825bc6dc80a61d51bd,2024-10-02_02h54.52.878,mdp,2024.2.1,Win32,142.8571429,66fa4ebf79326e780c390304,,,,,,,,,,,,,,,,,,,,,1291.536,1291.536,1291.536,1292.41,0,1,left,0.372,,1292.412,1293.661,1,0,right,1293.661,1294.536,1,1,right,0,1294.536,1294.536,1294.536,1296.036,0,34,34,34,1,0.8,0.2,0.2,0.8,,,,,,,,,,,,,,,0.743,,0.2,0.8,0.2,0.8,0.4,0.6,0.6,0.4,,,0.368,,0.4,0.6,0.2,0.8,0.8,0.2,0.6,0.4,1,0
,,666c6160d7613a472a88bc12,66fc97825bc6dc80a61d51bd,2024-10-02_02h54.52.878,mdp,2024.2.1,Win32,142.8571429,66fa4ebf79326e780c390304,,,,,,,,,,,,,,,,,,,,,1296.036,1296.036,1296.037,1296.98,0,1,left,0.437,,1296.981,1298.014,1,1,right,1298.015,1298.98,0,0,left,1,1298.98,1298.98,1298.98,1300.481,0,35,35,35,1,0.8,0.2,0.2,0.8,,,,,,,,,,,,,,,0.53,,0.2,0.8,0.2,0.8,0.4,0.6,0.6,0.4,,,0.459,,0.4,0.6,0.2,0.8,0.8,0.2,0.6,0.4,1,0
,,666c6160d7613a472a88bc12,66fc97825bc6dc80a61d51bd,2024-10-02_02h54.52.878,mdp,2024.2.1,Win32,142.8571429,66fa4ebf79326e780c390304,,,,,,,,,,,,,,,,,,,,,1300.481,1300.481,1300.481,1301.431,0,0,left,0.437,,1301.433,1303.723,0,1,left,1303.724,1305.28,0,1,left,0,1305.28,1305.28,1305.28,1306.779,0,36,36,36,1,0.8,0.2,0.2,0.8,,,,,,,,,,,,,,,1.786,,0.2,0.8,0.2,0.8,0.4,0.6,0.6,0.4,,,1.054,,0.4,0.6,0.2,0.8,0.8,0.2,0.6,0.4,1,0
,,666c6160d7613a472a88bc12,66fc97825bc6dc80a61d51bd,2024-10-02_02h54.52.878,mdp,2024.2.1,Win32,142.8571429,66fa4ebf79326e780c390304,,,,,,,,,,,,,,,,,,,,,1306.779,1306.779,1306.78,1307.383,0,0,left,0.091,,1307.383,1308.321,0,1,left,1308.321,1309.156,1,1,right,0,1309.156,1309.156,1309.156,1310.654,0,37,37,37,1,0.8,0.2,0.2,0.8,,,,,,,,,,,,,,,0.431,,0.2,0.8,0.2,0.8,0.4,0.6,0.6,0.4,,,0.319,,0.4,0.6,0.2,0.8,0.8,0.2,0.6,0.4,1,0
,,666c6160d7613a472a88bc12,66fc97825bc6dc80a61d51bd,2024-10-02_02h54.52.878,mdp,2024.2.1,Win32,142.8571429,66fa4ebf79326e780c390304,,,,,,,,,,,,,,,,,,,,,1310.654,1310.654,1310.655,1311.55,0,1,left,0.389,,1311.55,1312.48,1,0,right,1312.481,1313.612,1,0,right,1,1313.612,1313.612,1313.613,1315.112,0,38,38,38,1,0.8,0.2,0.2,0.8,,,,,,,,,,,,,,,0.424,,0.2,0.8,0.2,0.8,0.4,0.6,0.6,0.4,,,0.626,,0.4,0.6,0.2,0.8,0.8,0.2,0.6,0.4,1,0
,,666c6160d7613a472a88bc12,66fc97825bc6dc80a61d51bd,2024-10-02_02h54.52.878,mdp,2024.2.1,Win32,142.8571429,66fa4ebf79326e780c390304,,,,,,,,,,,,,,,,,,,,,1315.112,1315.112,1315.113,1315.903,1,1,right,0.284,,1315.904,1317.154,1,1,right,1317.154,1318.355,0,1,left,0,1318.355,1318.355,1318.355,1319.855,0,39,39,39,1,0.8,0.2,0.2,0.8,,,,,,,,,,,,,,,0.745,,0.2,0.8,0.2,0.8,0.4,0.6,0.6,0.4,,,0.695,,0.4,0.6,0.2,0.8,0.8,0.2,0.6,0.4,1,0
,,666c6160d7613a472a88bc12,66fc97825bc6dc80a61d51bd,2024-10-02_02h54.52.878,mdp,2024.2.1,Win32,142.8571429,66fa4ebf79326e780c390304,,,,,,,,,,,,,,,,,,,,,1319.856,1319.856,1319.856,1320.834,1,1,right,0.47,,1320.835,1321.814,0,0,left,1321.814,1322.897,1,1,right,0,1322.897,1322.897,1322.897,1324.396,0,40,40,40,1,0.8,0.2,0.2,0.8,,,,,,,,,,,,,,,0.474,,0.4,0.6,0.6,0.4,0.4,0.6,0.6,0.4,,,0.572,,0.4,0.6,0.2,0.8,0.8,0.2,0.6,0.4,1,0
,,666c6160d7613a472a88bc12,66fc97825bc6dc80a61d51bd,2024-10-02_02h54.52.878,mdp,2024.2.1,Win32,142.8571429,66fa4ebf79326e780c390304,,,,,,,,,,,,,,,,,,,,,1324.397,1324.397,1324.398,1325.265,1,1,right,0.355,,1325.266,1326.112,1,1,right,1326.112,1327.056,0,0,left,1,1327.056,1327.056,1327.057,1328.556,0,41,41,41,1,0.8,0.2,0.2,0.8,,,,,,,,,,,,,,,0.342,,0.4,0.6,0.6,0.4,0.4,0.6,0.6,0.4,,,0.434,,0.4,0.6,0.2,0.8,0.8,0.2,0.6,0.4,1,0
,,666c6160d7613a472a88bc12,66fc97825bc6dc80a61d51bd,2024-10-02_02h54.52.878,mdp,2024.2.1,Win32,142.8571429,66fa4ebf79326e780c390304,,,,,,,,,,,,,,,,,,,,,1328.557,1328.557,1328.557,1329.445,1,1,right,0.385,,1329.446,1330.279,1,0,right,1330.279,1331.446,1,1,right,0,1331.446,1331.446,1331.446,1332.946,0,42,42,42,1,0.8,0.2,0.2,0.8,,,,,,,,,,,,,,,0.326,,0.8,0.2,0.2,0.8,0.4,0.6,0.6,0.4,,,0.651,,0.4,0.6,0.2,0.8,0.8,0.2,0.6,0.4,1,0
,,666c6160d7613a472a88bc12,66fc97825bc6dc80a61d51bd,2024-10-02_02h54.52.878,mdp,2024.2.1,Win32,142.8571429,66fa4ebf79326e780c390304,,,,,,,,,,,,,,,,,,,,,1332.946,1332.946,1332.946,1333.924,0,0,left,0.468,,1333.925,1334.959,0,1,left,1334.959,1335.959,1,0,right,1,1335.959,1335.959,1335.96,1337.46,0,43,43,43,1,0.8,0.2,0.2,0.8,,,,,,,,,,,,,,,0.527,,0.8,0.2,0.2,0.8,0.4,0.6,0.6,0.4,,,0.492,,0.4,0.6,0.2,0.8,0.8,0.2,0.6,0.4,1,0
,,666c6160d7613a472a88bc12,66fc97825bc6dc80a61d51bd,2024-10-02_02h54.52.878,mdp,2024.2.1,Win32,142.8571429,66fa4ebf79326e780c390304,,,,,,,,,,,,,,,,,,,,,1337.46,1337.46,1337.46,1338.431,0,0,left,0.463,,1338.432,1339.438,0,0,left,1339.439,1340.792,0,1,left,0,1340.792,1340.792,1340.793,1342.292,0,44,44,44,1,0.8,0.2,0.2,0.8,,,,,,,,,,,,,,,0.5,,0.8,0.2,0.2,0.8,0.4,0.6,0.6,0.4,,,0.847,,0.4,0.6,0.2,0.8,0.6,0.4,0.4,0.6,1,0
,,666c6160d7613a472a88bc12,66fc97825bc6dc80a61d51bd,2024-10-02_02h54.52.878,mdp,2024.2.1,Win32,142.8571429,66fa4ebf79326e780c390304,,,,,,,,,,,,,,,,,,,,,1342.292,1342.292,1342.293,1343.161,0,1,left,0.362,,1343.161,1344.973,0,1,left,1344.973,1345.862,1,1,right,0,1345.862,1345.862,1345.863,1347.362,0,45,45,45,1,0.8,0.2,0.2,0.8,,,,,,,,,,,,,,,1.303,,0.8,0.2,0.2,0.8,0.4,0.6,0.6,0.4,,,0.385,,0.4,0.6,0.2,0.8,0.6,0.4,0.4,0.6,1,0
,,666c6160d7613a472a88bc12,66fc97825bc6dc80a61d51bd,2024-10-02_02h54.52.878,mdp,2024.2.1,Win32,142.8571429,66fa4ebf79326e780c390304,,,,,,,,,,,,,,,,,,,,,1347.362,1347.362,1347.362,1348.348,0,0,left,0.48,,1348.349,1349.493,0,0,left,1349.495,1350.917,1,1,right,0,1350.918,1350.918,1350.918,1352.417,0,46,46,46,1,0.8,0.2,0.2,0.8,,,,,,,,,,,,,,,0.638,,0.8,0.2,0.2,0.8,0.4,0.6,0.6,0.4,,,0.918,,0.4,0.6,0.2,0.8,0.6,0.4,0.4,0.6,1,0
,,666c6160d7613a472a88bc12,66fc97825bc6dc80a61d51bd,2024-10-02_02h54.52.878,mdp,2024.2.1,Win32,142.8571429,66fa4ebf79326e780c390304,,,,,,,,,,,,,,,,,,,,,1352.417,1352.417,1352.418,1353.133,0,0,left,0.208,,1353.133,1354.16,1,1,right,1354.16,1355.049,0,0,left,1,1355.049,1355.049,1355.05,1356.55,0,47,47,47,1,0.8,0.2,0.2,0.8,,,,,,,,,,,,,,,0.513,,0.8,0.2,0.2,0.8,0.4,0.6,0.6,0.4,,,0.382,,0.4,0.6,0.2,0.8,0.6,0.4,0.4,0.6,1,0
,,666c6160d7613a472a88bc12,66fc97825bc6dc80a61d51bd,2024-10-02_02h54.52.878,mdp,2024.2.1,Win32,142.8571429,66fa4ebf79326e780c390304,,,,,,,,,,,,,,,,,,,,,1356.55,1356.55,1356.55,1357.459,0,0,left,0.405,,1357.46,1358.299,1,1,right,1358.3,1359.091,0,0,left,1,1359.091,1359.091,1359.092,1360.591,0,48,48,48,1,0.8,0.2,0.2,0.8,,,,,,,,,,,,,,,0.328,,0.8,0.2,0.2,0.8,0.4,0.6,0.6,0.4,,,0.287,,0.4,0.6,0.2,0.8,0.6,0.4,0.4,0.6,1,0
,,666c6160d7613a472a88bc12,66fc97825bc6dc80a61d51bd,2024-10-02_02h54.52.878,mdp,2024.2.1,Win32,142.8571429,66fa4ebf79326e780c390304,,,,,,,,,,,,,,,,,,,,,1360.591,1360.591,1360.592,1361.501,0,0,left,0.406,,1361.501,1362.327,1,1,right,1362.328,1363.189,0,1,left,0,1363.189,1363.189,1363.189,1364.688,0,49,49,49,1,0.8,0.2,0.2,0.8,,,,,,,,,,,,,,,0.313,,0.8,0.2,0.2,0.8,0.4,0.6,0.6,0.4,,,0.355,,0.4,0.6,0.2,0.8,0.6,0.4,0.4,0.6,1,0
,,666c6160d7613a472a88bc12,66fc97825bc6dc80a61d51bd,2024-10-02_02h54.52.878,mdp,2024.2.1,Win32,142.8571429,66fa4ebf79326e780c390304,,,,,,,,,,,,,,,,,,,,,,,,,,,,,,,,,,,,,,,,,,,,,,,,,,,,,,,,1364.688,1423.195,0,3,3,8,1,imgs/kangaroo.png,imgs/lion.png,imgs/horse.png,imgs/rabbit.png,imgs/bear.png,,,,,,,,,,,,,,,,,,,,,,,,
,,666c6160d7613a472a88bc12,66fc97825bc6dc80a61d51bd,2024-10-02_02h54.52.878,mdp,2024.2.1,Win32,142.8571429,66fa4ebf79326e780c390304,,,,,,,,,,,,,,1,seqs/st1seq41.csv,1423.201,1427.646,space,3.942,,1427.648,1427.648,1427.649,1428.604,0,1,left,0.442,,1428.605,1428.606,1,0,,1428.606,1428.606,0,1,,0,1428.606,1428.606,1428.606,1430.105,0,0,0,0,1,0.2,0.8,0.8,0.2,1,0,,,,,,,,,,,,,,,,,,,,,,,,,,,,,,,,,,,,
,,666c6160d7613a472a88bc12,66fc97825bc6dc80a61d51bd,2024-10-02_02h54.52.878,mdp,2024.2.1,Win32,142.8571429,66fa4ebf79326e780c390304,,,,,,,,,,,,,,,,,,,,,1430.105,1430.105,1430.105,1430.931,1,0,right,0.31,,1430.932,1430.932,1,0,,1430.932,1430.932,0,0,,1,1430.932,1430.932,1430.932,1432.431,0,1,1,1,1,0.2,0.8,0.8,0.2,1,0,,,,,,,,,,,,,,,,,,,,,,,,,,,,,,,,,,,,
,,666c6160d7613a472a88bc12,66fc97825bc6dc80a61d51bd,2024-10-02_02h54.52.878,mdp,2024.2.1,Win32,142.8571429,66fa4ebf79326e780c390304,,,,,,,,,,,,,,,,,,,,,1432.431,1432.431,1432.432,1433.313,1,1,right,0.376,,1433.313,1433.314,1,1,,1433.315,1433.315,0,1,,0,1433.315,1433.315,1433.315,1434.815,0,2,2,2,1,0.6,0.4,0.2,0.8,1,0,,,,,,,,,,,,,,,,,,,,,,,,,,,,,,,,,,,,
,,666c6160d7613a472a88bc12,66fc97825bc6dc80a61d51bd,2024-10-02_02h54.52.878,mdp,2024.2.1,Win32,142.8571429,66fa4ebf79326e780c390304,,,,,,,,,,,,,,,,,,,,,1434.816,1434.816,1434.816,1435.757,1,0,right,0.435,,1435.758,1435.758,1,1,,1435.759,1435.759,0,1,,1,1435.759,1435.759,1435.759,1437.258,0,3,3,3,1,0.6,0.4,0.2,0.8,1,0,,,,,,,,,,,,,,,,,,,,,,,,,,,,,,,,,,,,
,,666c6160d7613a472a88bc12,66fc97825bc6dc80a61d51bd,2024-10-02_02h54.52.878,mdp,2024.2.1,Win32,142.8571429,66fa4ebf79326e780c390304,,,,,,,,,,,,,,,,,,,,,1437.258,1437.258,1437.258,1438.091,1,1,right,0.321,,1438.091,1438.091,1,1,,1438.092,1438.092,0,1,,0,1438.092,1438.092,1438.092,1439.591,0,4,4,4,1,0.6,0.4,0.2,0.8,1,0,,,,,,,,,,,,,,,,,,,,,,,,,,,,,,,,,,,,
,,666c6160d7613a472a88bc12,66fc97825bc6dc80a61d51bd,2024-10-02_02h54.52.878,mdp,2024.2.1,Win32,142.8571429,66fa4ebf79326e780c390304,,,,,,,,,,,,,,,,,,,,,1439.591,1439.591,1439.591,1440.369,1,1,right,0.274,,1440.369,1440.369,1,1,,1440.369,1440.369,0,1,,0,1440.369,1440.369,1440.37,1441.869,0,5,5,5,1,0.6,0.4,0.2,0.8,1,0,,,,,,,,,,,,,,,,,,,,,,,,,,,,,,,,,,,,
,,666c6160d7613a472a88bc12,66fc97825bc6dc80a61d51bd,2024-10-02_02h54.52.878,mdp,2024.2.1,Win32,142.8571429,66fa4ebf79326e780c390304,,,,,,,,,,,,,,,,,,,,,1441.869,1441.869,1441.87,1442.785,0,0,left,0.406,,1442.786,1442.786,1,0,,1442.786,1442.787,0,0,,1,1442.787,1442.787,1442.787,1444.285,0,6,6,6,1,0.8,0.2,0.6,0.4,1,0,,,,,,,,,,,,,,,,,,,,,,,,,,,,,,,,,,,,
,,666c6160d7613a472a88bc12,66fc97825bc6dc80a61d51bd,2024-10-02_02h54.52.878,mdp,2024.2.1,Win32,142.8571429,66fa4ebf79326e780c390304,,,,,,,,,,,,,,,,,,,,,1444.285,1444.285,1444.286,1445.091,1,0,right,0.299,,1445.091,1445.092,1,1,,1445.092,1445.093,0,0,,1,1445.093,1445.093,1445.093,1446.591,0,7,7,7,1,0.8,0.2,0.6,0.4,1,0,,,,,,,,,,,,,,,,,,,,,,,,,,,,,,,,,,,,
,,666c6160d7613a472a88bc12,66fc97825bc6dc80a61d51bd,2024-10-02_02h54.52.878,mdp,2024.2.1,Win32,142.8571429,66fa4ebf79326e780c390304,,,,,,,,,,,,,,,,,,,,,1446.591,1446.591,1446.591,1447.445,0,1,left,0.342,,1447.445,1447.446,1,0,,1447.446,1447.446,0,0,,0,1447.446,1447.446,1447.446,1448.945,0,8,8,8,1,0.8,0.2,0.6,0.4,1,0,,,,,,,,,,,,,,,,,,,,,,,,,,,,,,,,,,,,
,,666c6160d7613a472a88bc12,66fc97825bc6dc80a61d51bd,2024-10-02_02h54.52.878,mdp,2024.2.1,Win32,142.8571429,66fa4ebf79326e780c390304,,,,,,,,,,,,,,,,,,,,,1448.945,1448.945,1448.946,1449.75,0,0,left,0.299,,1449.75,1449.751,1,0,,1449.752,1449.752,0,0,,1,1449.752,1449.752,1449.753,1451.251,0,9,9,9,1,0.8,0.2,0.6,0.4,1,0,,,,,,,,,,,,,,,,,,,,,,,,,,,,,,,,,,,,
,,666c6160d7613a472a88bc12,66fc97825bc6dc80a61d51bd,2024-10-02_02h54.52.878,mdp,2024.2.1,Win32,142.8571429,66fa4ebf79326e780c390304,,,,,,,,,,,,,,,,,,,,,1451.251,1451.251,1451.251,1452.104,1,0,right,0.341,,1452.106,1452.106,1,1,,1452.106,1452.106,0,1,,1,1452.106,1452.106,1452.107,1453.605,0,10,10,10,1,0.8,0.2,0.6,0.4,1,0,,,,,,,,,,,,,,,,,,,,,,,,,,,,,,,,,,,,
,,666c6160d7613a472a88bc12,66fc97825bc6dc80a61d51bd,2024-10-02_02h54.52.878,mdp,2024.2.1,Win32,142.8571429,66fa4ebf79326e780c390304,,,,,,,,,,,,,,,,,,,,,1453.605,1453.605,1453.606,1454.48,0,0,left,0.363,,1454.48,1454.481,1,0,,1454.481,1454.481,0,0,,1,1454.481,1454.481,1454.482,1455.98,0,11,11,11,1,0.8,0.2,0.6,0.4,1,0,,,,,,,,,,,,,,,,,,,,,,,,,,,,,,,,,,,,
,,666c6160d7613a472a88bc12,66fc97825bc6dc80a61d51bd,2024-10-02_02h54.52.878,mdp,2024.2.1,Win32,142.8571429,66fa4ebf79326e780c390304,,,,,,,,,,,,,,,,,,,,,1455.98,1455.98,1455.98,1456.973,0,1,left,0.485,,1456.974,1456.974,1,1,,1456.974,1456.974,0,0,,0,1456.974,1456.974,1456.975,1458.473,0,12,12,12,1,0.8,0.2,0.6,0.4,1,0,,,,,,,,,,,,,,,,,,,,,,,,,,,,,,,,,,,,
,,666c6160d7613a472a88bc12,66fc97825bc6dc80a61d51bd,2024-10-02_02h54.52.878,mdp,2024.2.1,Win32,142.8571429,66fa4ebf79326e780c390304,,,,,,,,,,,,,,,,,,,,,1458.473,1458.473,1458.474,1459.258,1,0,right,0.272,,1459.258,1459.258,1,1,,1459.258,1459.259,0,1,,1,1459.259,1459.259,1459.259,1460.757,0,13,13,13,1,0.8,0.2,0.6,0.4,1,0,,,,,,,,,,,,,,,,,,,,,,,,,,,,,,,,,,,,
,,666c6160d7613a472a88bc12,66fc97825bc6dc80a61d51bd,2024-10-02_02h54.52.878,mdp,2024.2.1,Win32,142.8571429,66fa4ebf79326e780c390304,,,,,,,,,,,,,,,,,,,,,1460.758,1460.758,1460.758,1461.466,0,0,left,0.202,,1461.467,1461.467,1,0,,1461.467,1461.467,0,1,,1,1461.467,1461.467,1461.467,1462.966,0,14,14,14,1,0.8,0.2,0.6,0.4,1,0,,,,,,,,,,,,,,,,,,,,,,,,,,,,,,,,,,,,
,,666c6160d7613a472a88bc12,66fc97825bc6dc80a61d51bd,2024-10-02_02h54.52.878,mdp,2024.2.1,Win32,142.8571429,66fa4ebf79326e780c390304,,,,,,,,,,,,,,,,,,,,,1462.966,1462.966,1462.967,1463.751,1,1,right,0.279,,1463.751,1463.752,1,1,,1463.752,1463.752,0,1,,0,1463.752,1463.752,1463.752,1465.25,0,15,15,15,1,0.6,0.4,0.2,0.8,1,0,,,,,,,,,,,,,,,,,,,,,,,,,,,,,,,,,,,,
,,666c6160d7613a472a88bc12,66fc97825bc6dc80a61d51bd,2024-10-02_02h54.52.878,mdp,2024.2.1,Win32,142.8571429,66fa4ebf79326e780c390304,,,,,,,,,,,,,,,,,,,,,1465.25,1465.25,1465.251,1466.056,0,0,left,0.302,,1466.057,1466.057,1,0,,1466.058,1466.058,0,0,,1,1466.058,1466.058,1466.058,1467.556,0,16,16,16,1,0.6,0.4,0.2,0.8,1,0,,,,,,,,,,,,,,,,,,,,,,,,,,,,,,,,,,,,
,,666c6160d7613a472a88bc12,66fc97825bc6dc80a61d51bd,2024-10-02_02h54.52.878,mdp,2024.2.1,Win32,142.8571429,66fa4ebf79326e780c390304,,,,,,,,,,,,,,,,,,,,,1467.556,1467.556,1467.557,1468.32,1,1,right,0.256,,1468.321,1468.321,1,1,,1468.322,1468.322,0,1,,0,1468.322,1468.322,1468.322,1469.82,0,17,17,17,1,0.6,0.4,0.2,0.8,1,0,,,,,,,,,,,,,,,,,,,,,,,,,,,,,,,,,,,,
,,666c6160d7613a472a88bc12,66fc97825bc6dc80a61d51bd,2024-10-02_02h54.52.878,mdp,2024.2.1,Win32,142.8571429,66fa4ebf79326e780c390304,,,,,,,,,,,,,,,,,,,,,1469.82,1469.82,1469.82,1470.521,0,0,left,0.197,,1470.521,1470.522,1,1,,1470.522,1470.523,0,0,,1,1470.523,1470.523,1470.523,1472.022,0,18,18,18,1,0.6,0.4,0.2,0.8,1,0,,,,,,,,,,,,,,,,,,,,,,,,,,,,,,,,,,,,
,,666c6160d7613a472a88bc12,66fc97825bc6dc80a61d51bd,2024-10-02_02h54.52.878,mdp,2024.2.1,Win32,142.8571429,66fa4ebf79326e780c390304,,,,,,,,,,,,,,,,,,,,,1472.022,1472.022,1472.022,1472.917,1,1,right,0.388,,1472.918,1472.918,1,1,,1472.918,1472.918,0,1,,0,1472.918,1472.918,1472.918,1474.417,0,19,19,19,1,0.6,0.4,0.2,0.8,1,0,,,,,,,,,,,,,,,,,,,,,,,,,,,,,,,,,,,,
,,666c6160d7613a472a88bc12,66fc97825bc6dc80a61d51bd,2024-10-02_02h54.52.878,mdp,2024.2.1,Win32,142.8571429,66fa4ebf79326e780c390304,,,,,,,,,,,,,,,,,,,,,1474.417,1474.417,1474.417,1475.758,0,0,left,0.833,,1475.758,1475.758,1,1,,1475.758,1475.759,0,0,,1,1475.759,1475.759,1475.759,1477.257,0,20,20,20,1,0.6,0.4,0.2,0.8,1,0,,,,,,,,,,,,,,,,,,,,,,,,,,,,,,,,,,,,
,,666c6160d7613a472a88bc12,66fc97825bc6dc80a61d51bd,2024-10-02_02h54.52.878,mdp,2024.2.1,Win32,142.8571429,66fa4ebf79326e780c390304,,,,,,,,,,,,,,,,,,,,,1477.257,1477.257,1477.259,1477.966,0,0,left,0.2,,1477.966,1477.967,1,0,,1477.967,1477.968,0,0,,1,1477.968,1477.968,1477.968,1479.465,0,21,21,21,1,0.6,0.4,0.2,0.8,1,0,,,,,,,,,,,,,,,,,,,,,,,,,,,,,,,,,,,,
,,666c6160d7613a472a88bc12,66fc97825bc6dc80a61d51bd,2024-10-02_02h54.52.878,mdp,2024.2.1,Win32,142.8571429,66fa4ebf79326e780c390304,,,,,,,,,,,,,,,,,,,,,1479.466,1479.466,1479.467,1480.327,0,0,left,0.353,,1480.327,1480.327,1,0,,1480.328,1480.329,0,0,,1,1480.329,1480.329,1480.329,1481.827,0,22,22,22,1,0.8,0.2,0.8,0.2,1,0,,,,,,,,,,,,,,,,,,,,,,,,,,,,,,,,,,,,
,,666c6160d7613a472a88bc12,66fc97825bc6dc80a61d51bd,2024-10-02_02h54.52.878,mdp,2024.2.1,Win32,142.8571429,66fa4ebf79326e780c390304,,,,,,,,,,,,,,,,,,,,,1481.827,1481.827,1481.828,1482.667,1,0,right,0.327,,1482.667,1482.668,1,0,,1482.668,1482.669,0,0,,1,1482.669,1482.669,1482.669,1484.167,0,23,23,23,1,0.8,0.2,0.8,0.2,1,0,,,,,,,,,,,,,,,,,,,,,,,,,,,,,,,,,,,,
,,666c6160d7613a472a88bc12,66fc97825bc6dc80a61d51bd,2024-10-02_02h54.52.878,mdp,2024.2.1,Win32,142.8571429,66fa4ebf79326e780c390304,,,,,,,,,,,,,,,,,,,,,1484.168,1484.168,1484.168,1485.181,1,0,right,0.5,,1485.181,1485.182,1,1,,1485.182,1485.182,0,0,,1,1485.182,1485.182,1485.182,1486.681,0,24,24,24,1,0.8,0.2,0.8,0.2,1,0,,,,,,,,,,,,,,,,,,,,,,,,,,,,,,,,,,,,
,,666c6160d7613a472a88bc12,66fc97825bc6dc80a61d51bd,2024-10-02_02h54.52.878,mdp,2024.2.1,Win32,142.8571429,66fa4ebf79326e780c390304,,,,,,,,,,,,,,,,,,,,,1486.681,1486.681,1486.682,1487.493,0,0,left,0.308,,1487.494,1487.494,1,0,,1487.494,1487.494,0,1,,1,1487.494,1487.494,1487.495,1488.993,0,25,25,25,1,0.8,0.2,0.8,0.2,1,0,,,,,,,,,,,,,,,,,,,,,,,,,,,,,,,,,,,,
,,666c6160d7613a472a88bc12,66fc97825bc6dc80a61d51bd,2024-10-02_02h54.52.878,mdp,2024.2.1,Win32,142.8571429,66fa4ebf79326e780c390304,,,,,,,,,,,,,,,,,,,,,1488.993,1488.993,1488.994,1489.765,0,0,left,0.267,,1489.765,1489.765,1,0,,1489.765,1489.765,0,0,,1,1489.765,1489.765,1489.766,1491.265,0,26,26,26,1,0.8,0.2,0.8,0.2,1,0,,,,,,,,,,,,,,,,,,,,,,,,,,,,,,,,,,,,
,,666c6160d7613a472a88bc12,66fc97825bc6dc80a61d51bd,2024-10-02_02h54.52.878,mdp,2024.2.1,Win32,142.8571429,66fa4ebf79326e780c390304,,,,,,,,,,,,,,,,,,,,,1491.265,1491.265,1491.265,1491.812,1,0,right,0.035,,1491.814,1491.815,1,0,,1491.815,1491.815,0,0,,1,1491.815,1491.815,1491.816,1493.313,0,27,27,27,1,0.8,0.2,0.8,0.2,1,0,,,,,,,,,,,,,,,,,,,,,,,,,,,,,,,,,,,,
,,666c6160d7613a472a88bc12,66fc97825bc6dc80a61d51bd,2024-10-02_02h54.52.878,mdp,2024.2.1,Win32,142.8571429,66fa4ebf79326e780c390304,,,,,,,,,,,,,,,,,,,,,1493.313,1493.313,1493.314,1494.139,1,0,right,0.32,,1494.139,1494.14,1,0,,1494.141,1494.141,0,0,,1,1494.141,1494.141,1494.141,1495.639,0,28,28,28,1,0.8,0.2,0.8,0.2,1,0,,,,,,,,,,,,,,,,,,,,,,,,,,,,,,,,,,,,
,,666c6160d7613a472a88bc12,66fc97825bc6dc80a61d51bd,2024-10-02_02h54.52.878,mdp,2024.2.1,Win32,142.8571429,66fa4ebf79326e780c390304,,,,,,,,,,,,,,,,,,,,,1495.639,1495.639,1495.64,1496.681,0,1,left,0.533,,1496.681,1496.682,1,1,,1496.683,1496.683,0,0,,0,1496.683,1496.683,1496.683,1498.181,0,29,29,29,1,0.6,0.4,0.4,0.6,1,0,,,,,,,,,,,,,,,,,,,,,,,,,,,,,,,,,,,,
,,666c6160d7613a472a88bc12,66fc97825bc6dc80a61d51bd,2024-10-02_02h54.52.878,mdp,2024.2.1,Win32,142.8571429,66fa4ebf79326e780c390304,,,,,,,,,,,,,,,,,,,,,1498.181,1498.181,1498.181,1498.688,0,1,left,0.003,,1498.689,1498.689,1,0,,1498.689,1498.689,0,0,,0,1498.689,1498.689,1498.689,1500.187,0,30,30,30,1,0.6,0.4,0.4,0.6,1,0,,,,,,,,,,,,,,,,,,,,,,,,,,,,,,,,,,,,
,,666c6160d7613a472a88bc12,66fc97825bc6dc80a61d51bd,2024-10-02_02h54.52.878,mdp,2024.2.1,Win32,142.8571429,66fa4ebf79326e780c390304,,,,,,,,,,,,,,,,,,,,,1500.188,1500.188,1500.188,1501.063,1,0,right,0.365,,1501.064,1501.064,1,0,,1501.064,1501.064,0,1,,1,1501.064,1501.064,1501.064,1502.563,0,31,31,31,1,0.6,0.4,0.4,0.6,1,0,,,,,,,,,,,,,,,,,,,,,,,,,,,,,,,,,,,,
,,666c6160d7613a472a88bc12,66fc97825bc6dc80a61d51bd,2024-10-02_02h54.52.878,mdp,2024.2.1,Win32,142.8571429,66fa4ebf79326e780c390304,,,,,,,,,,,,,,,,,,,,,1502.563,1502.563,1502.563,1503.465,1,0,right,0.392,,1503.466,1503.467,1,1,,1503.467,1503.467,0,1,,1,1503.467,1503.467,1503.467,1504.966,0,32,32,32,1,0.6,0.4,0.4,0.6,1,0,,,,,,,,,,,,,,,,,,,,,,,,,,,,,,,,,,,,
,,666c6160d7613a472a88bc12,66fc97825bc6dc80a61d51bd,2024-10-02_02h54.52.878,mdp,2024.2.1,Win32,142.8571429,66fa4ebf79326e780c390304,,,,,,,,,,,,,,,,,,,,,1504.966,1504.966,1504.966,1505.798,0,1,left,0.323,,1505.8,1505.8,1,0,,1505.801,1505.801,0,1,,0,1505.801,1505.801,1505.801,1507.299,0,33,33,33,1,0.6,0.4,0.4,0.6,1,0,,,,,,,,,,,,,,,,,,,,,,,,,,,,,,,,,,,,
,,666c6160d7613a472a88bc12,66fc97825bc6dc80a61d51bd,2024-10-02_02h54.52.878,mdp,2024.2.1,Win32,142.8571429,66fa4ebf79326e780c390304,,,,,,,,,,,,,,,,,,,,,1507.299,1507.299,1507.3,1508.161,1,0,right,0.357,,1508.162,1508.162,1,0,,1508.163,1508.163,0,1,,1,1508.163,1508.163,1508.163,1509.66,0,34,34,34,1,0.6,0.4,0.4,0.6,1,0,,,,,,,,,,,,,,,,,,,,,,,,,,,,,,,,,,,,
,,666c6160d7613a472a88bc12,66fc97825bc6dc80a61d51bd,2024-10-02_02h54.52.878,mdp,2024.2.1,Win32,142.8571429,66fa4ebf79326e780c390304,,,,,,,,,,,,,,,,,,,,,1509.66,1509.66,1509.66,1510.458,1,1,right,0.295,,1510.459,1510.46,1,1,,1510.46,1510.46,0,0,,0,1510.46,1510.46,1510.46,1511.959,0,35,35,35,1,0.8,0.2,0.2,0.8,1,0,,,,,,,,,,,,,,,,,,,,,,,,,,,,,,,,,,,,
,,666c6160d7613a472a88bc12,66fc97825bc6dc80a61d51bd,2024-10-02_02h54.52.878,mdp,2024.2.1,Win32,142.8571429,66fa4ebf79326e780c390304,,,,,,,,,,,,,,,,,,,,,1511.959,1511.959,1511.959,1512.514,0,0,left,0.04,,1512.514,1512.515,1,0,,1512.516,1512.516,0,1,,1,1512.516,1512.516,1512.516,1514.014,0,36,36,36,1,0.8,0.2,0.2,0.8,1,0,,,,,,,,,,,,,,,,,,,,,,,,,,,,,,,,,,,,
,,666c6160d7613a472a88bc12,66fc97825bc6dc80a61d51bd,2024-10-02_02h54.52.878,mdp,2024.2.1,Win32,142.8571429,66fa4ebf79326e780c390304,,,,,,,,,,,,,,,,,,,,,1514.014,1514.014,1514.015,1514.938,0,0,left,0.416,,1514.938,1514.938,1,1,,1514.939,1514.939,0,0,,1,1514.939,1514.939,1514.94,1516.438,0,37,37,37,1,0.8,0.2,0.2,0.8,1,0,,,,,,,,,,,,,,,,,,,,,,,,,,,,,,,,,,,,
,,666c6160d7613a472a88bc12,66fc97825bc6dc80a61d51bd,2024-10-02_02h54.52.878,mdp,2024.2.1,Win32,142.8571429,66fa4ebf79326e780c390304,,,,,,,,,,,,,,,,,,,,,1516.438,1516.438,1516.439,1517.306,0,0,left,0.356,,1517.307,1517.307,1,0,,1517.307,1517.307,0,0,,1,1517.307,1517.307,1517.307,1518.806,0,38,38,38,1,0.8,0.2,0.2,0.8,1,0,,,,,,,,,,,,,,,,,,,,,,,,,,,,,,,,,,,,
,,666c6160d7613a472a88bc12,66fc97825bc6dc80a61d51bd,2024-10-02_02h54.52.878,mdp,2024.2.1,Win32,142.8571429,66fa4ebf79326e780c390304,,,,,,,,,,,,,,,,,,,,,1518.806,1518.806,1518.806,1519.612,0,0,left,0.292,,1519.612,1519.612,1,0,,1519.613,1519.613,0,0,,1,1519.613,1519.613,1519.613,1521.112,0,39,39,39,1,0.2,0.8,0.6,0.4,1,0,,,,,,,,,,,,,,,,,,,,,,,,,,,,,,,,,,,,
,,666c6160d7613a472a88bc12,66fc97825bc6dc80a61d51bd,2024-10-02_02h54.52.878,mdp,2024.2.1,Win32,142.8571429,66fa4ebf79326e780c390304,,,,,,,,,,,,,,,,,,,,,1521.112,1521.112,1521.112,1521.938,1,1,right,0.317,,1521.938,1521.939,1,1,,1521.939,1521.939,0,1,,0,1521.939,1521.939,1521.939,1523.438,0,40,40,40,1,0.2,0.8,0.6,0.4,1,0,,,,,,,,,,,,,,,,,,,,,,,,,,,,,,,,,,,,
,,666c6160d7613a472a88bc12,66fc97825bc6dc80a61d51bd,2024-10-02_02h54.52.878,mdp,2024.2.1,Win32,142.8571429,66fa4ebf79326e780c390304,,,,,,,,,,,,,,,,,,,,,1523.438,1523.438,1523.438,1524.014,0,1,left,0.072,,1524.014,1524.015,1,1,,1524.015,1524.016,0,1,,0,1524.016,1524.016,1524.016,1525.514,0,41,41,41,1,0.2,0.8,0.6,0.4,1,0,,,,,,,,,,,,,,,,,,,,,,,,,,,,,,,,,,,,
,,666c6160d7613a472a88bc12,66fc97825bc6dc80a61d51bd,2024-10-02_02h54.52.878,mdp,2024.2.1,Win32,142.8571429,66fa4ebf79326e780c390304,,,,,,,,,,,,,,,,,,,,,1525.515,1525.515,1525.515,1526.445,1,0,right,0.419,,1526.445,1526.446,1,0,,1526.446,1526.446,0,1,,1,1526.447,1526.447,1526.447,1527.944,0,42,42,42,1,0.2,0.8,0.6,0.4,1,0,,,,,,,,,,,,,,,,,,,,,,,,,,,,,,,,,,,,
,,666c6160d7613a472a88bc12,66fc97825bc6dc80a61d51bd,2024-10-02_02h54.52.878,mdp,2024.2.1,Win32,142.8571429,66fa4ebf79326e780c390304,,,,,,,,,,,,,,,,,,,,,1527.945,1527.945,1527.945,1528.847,1,0,right,0.399,,1528.848,1528.848,1,0,,1528.849,1528.849,0,0,,1,1528.849,1528.849,1528.85,1530.347,0,43,43,43,1,0.2,0.8,0.6,0.4,1,0,,,,,,,,,,,,,,,,,,,,,,,,,,,,,,,,,,,,
,,666c6160d7613a472a88bc12,66fc97825bc6dc80a61d51bd,2024-10-02_02h54.52.878,mdp,2024.2.1,Win32,142.8571429,66fa4ebf79326e780c390304,,,,,,,,,,,,,,,,,,,,,1530.348,1530.348,1530.348,1531.327,1,1,right,0.472,,1531.327,1531.327,1,1,,1531.328,1531.329,0,0,,0,1531.329,1531.329,1531.329,1532.826,0,44,44,44,1,0.2,0.8,0.6,0.4,1,0,,,,,,,,,,,,,,,,,,,,,,,,,,,,,,,,,,,,
,,666c6160d7613a472a88bc12,66fc97825bc6dc80a61d51bd,2024-10-02_02h54.52.878,mdp,2024.2.1,Win32,142.8571429,66fa4ebf79326e780c390304,,,,,,,,,,,,,,,,,,,,,1532.826,1532.826,1532.828,1533.688,0,1,left,0.355,,1533.688,1533.689,1,1,,1533.689,1533.689,0,1,,0,1533.689,1533.689,1533.689,1535.187,0,45,45,45,1,0.2,0.8,0.6,0.4,1,0,,,,,,,,,,,,,,,,,,,,,,,,,,,,,,,,,,,,
,,666c6160d7613a472a88bc12,66fc97825bc6dc80a61d51bd,2024-10-02_02h54.52.878,mdp,2024.2.1,Win32,142.8571429,66fa4ebf79326e780c390304,,,,,,,,,,,,,,,,,,,,,1535.188,1535.188,1535.189,1536.194,0,1,left,0.5,,1536.195,1536.195,1,1,,1536.196,1536.196,0,0,,0,1536.196,1536.196,1536.196,1537.694,0,46,46,46,1,0.2,0.8,0.6,0.4,1,0,,,,,,,,,,,,,,,,,,,,,,,,,,,,,,,,,,,,
,,666c6160d7613a472a88bc12,66fc97825bc6dc80a61d51bd,2024-10-02_02h54.52.878,mdp,2024.2.1,Win32,142.8571429,66fa4ebf79326e780c390304,,,,,,,,,,,,,,,,,,,,,1537.695,1537.695,1537.695,1538.459,1,1,right,0.256,,1538.459,1538.459,1,0,,1538.459,1538.46,0,0,,0,1538.46,1538.46,1538.46,1539.959,0,47,47,47,1,0.2,0.8,0.6,0.4,1,0,,,,,,,,,,,,,,,,,,,,,,,,,,,,,,,,,,,,
,,666c6160d7613a472a88bc12,66fc97825bc6dc80a61d51bd,2024-10-02_02h54.52.878,mdp,2024.2.1,Win32,142.8571429,66fa4ebf79326e780c390304,,,,,,,,,,,,,,,,,,,,,1539.959,1539.959,1539.959,1540.736,1,0,right,0.271,,1540.736,1540.737,1,1,,1540.737,1540.738,0,0,,1,1540.738,1540.738,1540.738,1542.237,0,48,48,48,1,0.2,0.8,0.6,0.4,1,0,,,,,,,,,,,,,,,,,,,,,,,,,,,,,,,,,,,,
,,666c6160d7613a472a88bc12,66fc97825bc6dc80a61d51bd,2024-10-02_02h54.52.878,mdp,2024.2.1,Win32,142.8571429,66fa4ebf79326e780c390304,,,,,,,,,,,,,,,,,,,,,1542.237,1542.237,1542.237,1542.958,0,0,left,0.208,,1542.959,1542.959,1,0,,1542.96,1542.96,0,1,,1,1542.96,1542.96,1542.961,1544.459,0,49,49,49,1,0.2,0.8,0.6,0.4,1,0,,,,,,,,,,,,,,,,,,,,,,,,,,,,,,,,,,,,
