init_exp.started,init_exp.stopped,participant,session,date,expName,psychopyVersion,OS,frameRate,study_id,disp_instruction.started,disp_instruction.stopped,instruction.thisRepN,instruction.thisTrialN,instruction.thisN,instruction.thisIndex,instruction.ran,instimg_path,consent.started,consent.stopped,key_resp_3.keys,key_resp_3.rt,key_resp_3.duration,n_steps,sequence_path,init_block.started,init_block.stopped,key_resp.keys,key_resp.rt,key_resp.duration,init_trials.started,init_trials.stopped,step0.started,step0.stopped,act0,s1,res0.keys,res0.rt,res0.duration,step1.started,step1.stopped,act1,s2,res1.keys,step2.started,step2.stopped,act2,s3,res2.keys,rew,reward_comp.started,reward_comp.stopped,reward_disp.started,reward_disp.stopped,trials.thisRepN,trials.thisTrialN,trials.thisN,trials.thisIndex,trials.ran,s00a0s10,s00a0s11,s00a1s10,s00a1s11,rew10,rew11,break_block.started,break_block.stopped,block.thisRepN,block.thisTrialN,block.thisN,block.thisIndex,block.ran,s00path,s10path,s11path,s20path,s21path,res1.rt,res1.duration,s10a0s20,s10a0s21,s10a1s20,s10a1s21,s11a0s20,s11a0s21,s11a1s20,s11a1s21,rew20,rew21,res2.rt,res2.duration,s20a0s30,s20a0s31,s20a1s30,s20a1s31,s21a0s30,s21a0s31,s21a1s30,s21a1s31,rew30,rew31
0,0.001,666ee913519a8d810a4c38d9,66daf5ae64fec735e0a30d52,2024-09-06_14h30.16.701,mdp,2024.2.1,Win32,58.82352941,66d7945b1baad48e845df3ce,,,,,,,,,,,,,,,,,,,,,,,,,,,,,,,,,,,,,,,,,,,,,,,,,,,,,,,,,,,,,,,,,,,,,,,,,,,,,,,,,,,,,,,,,,,
,,666ee913519a8d810a4c38d9,66daf5ae64fec735e0a30d52,2024-09-06_14h30.16.701,mdp,2024.2.1,Win32,58.82352941,66d7945b1baad48e845df3ce,0.004,45.771,0,0,0,0,1,rlnn_exp/rlnn_exp.001.png,,,,,,,,,,,,,,,,,,,,,,,,,,,,,,,,,,,,,,,,,,,,,,,,,,,,,,,,,,,,,,,,,,,,,,,,,,,,,,,,,,,
,,666ee913519a8d810a4c38d9,66daf5ae64fec735e0a30d52,2024-09-06_14h30.16.701,mdp,2024.2.1,Win32,58.82352941,66d7945b1baad48e845df3ce,45.772,69.176,0,1,1,1,1,rlnn_exp/rlnn_exp.002.png,,,,,,,,,,,,,,,,,,,,,,,,,,,,,,,,,,,,,,,,,,,,,,,,,,,,,,,,,,,,,,,,,,,,,,,,,,,,,,,,,,,
,,666ee913519a8d810a4c38d9,66daf5ae64fec735e0a30d52,2024-09-06_14h30.16.701,mdp,2024.2.1,Win32,58.82352941,66d7945b1baad48e845df3ce,69.181,91.582,0,2,2,2,1,rlnn_exp/rlnn_exp.003.png,,,,,,,,,,,,,,,,,,,,,,,,,,,,,,,,,,,,,,,,,,,,,,,,,,,,,,,,,,,,,,,,,,,,,,,,,,,,,,,,,,,
,,666ee913519a8d810a4c38d9,66daf5ae64fec735e0a30d52,2024-09-06_14h30.16.701,mdp,2024.2.1,Win32,58.82352941,66d7945b1baad48e845df3ce,91.602,109.297,0,3,3,3,1,rlnn_exp/rlnn_exp.004.png,,,,,,,,,,,,,,,,,,,,,,,,,,,,,,,,,,,,,,,,,,,,,,,,,,,,,,,,,,,,,,,,,,,,,,,,,,,,,,,,,,,
,,666ee913519a8d810a4c38d9,66daf5ae64fec735e0a30d52,2024-09-06_14h30.16.701,mdp,2024.2.1,Win32,58.82352941,66d7945b1baad48e845df3ce,,,,,,,,,109.303,176.245,y,56.923,,,,,,,,,,,,,,,,,,,,,,,,,,,,,,,,,,,,,,,,,,,,,,,,,,,,,,,,,,,,,,,,,,,,,,,,,,,,,,,
,,666ee913519a8d810a4c38d9,66daf5ae64fec735e0a30d52,2024-09-06_14h30.16.701,mdp,2024.2.1,Win32,58.82352941,66d7945b1baad48e845df3ce,,,,,,,,,,,,,,1,seqs/st1seq27.csv,176.247,178.38,space,1.612,,178.386,178.386,178.386,181.284,0,0,left,2.372,,181.285,181.289,,0,,181.289,181.292,,1,,1,181.293,181.293,181.294,182.784,0,0,0,0,1,0.6,0.4,0.4,0.6,1,0,,,,,,,,,,,,,,,,,,,,,,,,,,,,,,,,,,,,
,,666ee913519a8d810a4c38d9,66daf5ae64fec735e0a30d52,2024-09-06_14h30.16.701,mdp,2024.2.1,Win32,58.82352941,66d7945b1baad48e845df3ce,,,,,,,,,,,,,,,,,,,,,182.784,182.784,182.784,184.602,0,1,left,1.304,,184.602,184.602,,0,,184.603,184.604,,0,,0,184.604,184.604,184.604,186.104,0,1,1,1,1,0.6,0.4,0.4,0.6,1,0,,,,,,,,,,,,,,,,,,,,,,,,,,,,,,,,,,,,
,,666ee913519a8d810a4c38d9,66daf5ae64fec735e0a30d52,2024-09-06_14h30.16.701,mdp,2024.2.1,Win32,58.82352941,66d7945b1baad48e845df3ce,,,,,,,,,,,,,,,,,,,,,186.104,186.104,186.105,187.172,0,1,left,0.547,,187.172,187.172,,1,,187.172,187.173,,1,,0,187.173,187.173,187.173,188.672,0,2,2,2,1,0.6,0.4,0.4,0.6,1,0,,,,,,,,,,,,,,,,,,,,,,,,,,,,,,,,,,,,
,,666ee913519a8d810a4c38d9,66daf5ae64fec735e0a30d52,2024-09-06_14h30.16.701,mdp,2024.2.1,Win32,58.82352941,66d7945b1baad48e845df3ce,,,,,,,,,,,,,,,,,,,,,188.673,188.673,188.673,189.858,0,0,left,0.668,,189.858,189.858,,0,,189.859,189.859,,0,,1,189.859,189.859,189.859,191.358,0,3,3,3,1,0.6,0.4,0.4,0.6,1,0,,,,,,,,,,,,,,,,,,,,,,,,,,,,,,,,,,,,
,,666ee913519a8d810a4c38d9,66daf5ae64fec735e0a30d52,2024-09-06_14h30.16.701,mdp,2024.2.1,Win32,58.82352941,66d7945b1baad48e845df3ce,,,,,,,,,,,,,,,,,,,,,191.358,191.358,191.359,192.276,1,0,right,0.405,,192.277,192.277,,0,,192.277,192.277,,1,,1,192.277,192.277,192.277,193.778,0,4,4,4,1,0.6,0.4,0.4,0.6,1,0,,,,,,,,,,,,,,,,,,,,,,,,,,,,,,,,,,,,
,,666ee913519a8d810a4c38d9,66daf5ae64fec735e0a30d52,2024-09-06_14h30.16.701,mdp,2024.2.1,Win32,58.82352941,66d7945b1baad48e845df3ce,,,,,,,,,,,,,,,,,,,,,193.778,193.778,193.779,194.678,0,1,left,0.393,,194.678,194.679,,1,,194.679,194.679,,1,,0,194.679,194.679,194.679,196.18,0,5,5,5,1,0.2,0.8,0.6,0.4,1,0,,,,,,,,,,,,,,,,,,,,,,,,,,,,,,,,,,,,
,,666ee913519a8d810a4c38d9,66daf5ae64fec735e0a30d52,2024-09-06_14h30.16.701,mdp,2024.2.1,Win32,58.82352941,66d7945b1baad48e845df3ce,,,,,,,,,,,,,,,,,,,,,196.18,196.18,196.181,197.048,0,0,left,0.353,,197.05,197.052,,0,,197.053,197.053,,0,,1,197.053,197.053,197.053,198.549,0,6,6,6,1,0.8,0.2,0.2,0.8,1,0,,,,,,,,,,,,,,,,,,,,,,,,,,,,,,,,,,,,
,,666ee913519a8d810a4c38d9,66daf5ae64fec735e0a30d52,2024-09-06_14h30.16.701,mdp,2024.2.1,Win32,58.82352941,66d7945b1baad48e845df3ce,,,,,,,,,,,,,,,,,,,,,198.55,198.55,198.55,199.434,1,1,right,0.358,,199.436,199.437,,1,,199.439,199.439,,1,,0,199.439,199.439,199.44,200.935,0,7,7,7,1,0.8,0.2,0.2,0.8,1,0,,,,,,,,,,,,,,,,,,,,,,,,,,,,,,,,,,,,
,,666ee913519a8d810a4c38d9,66daf5ae64fec735e0a30d52,2024-09-06_14h30.16.701,mdp,2024.2.1,Win32,58.82352941,66d7945b1baad48e845df3ce,,,,,,,,,,,,,,,,,,,,,200.935,200.935,200.935,202.686,1,1,right,1.218,,202.687,202.687,,1,,202.687,202.687,,0,,0,202.687,202.687,202.687,204.188,0,8,8,8,1,0.8,0.2,0.2,0.8,1,0,,,,,,,,,,,,,,,,,,,,,,,,,,,,,,,,,,,,
,,666ee913519a8d810a4c38d9,66daf5ae64fec735e0a30d52,2024-09-06_14h30.16.701,mdp,2024.2.1,Win32,58.82352941,66d7945b1baad48e845df3ce,,,,,,,,,,,,,,,,,,,,,204.188,204.188,204.188,205.539,1,1,right,0.84,,205.541,205.543,,1,,205.544,205.545,,1,,0,205.545,205.545,205.545,207.041,0,9,9,9,1,0.8,0.2,0.2,0.8,1,0,,,,,,,,,,,,,,,,,,,,,,,,,,,,,,,,,,,,
,,666ee913519a8d810a4c38d9,66daf5ae64fec735e0a30d52,2024-09-06_14h30.16.701,mdp,2024.2.1,Win32,58.82352941,66d7945b1baad48e845df3ce,,,,,,,,,,,,,,,,,,,,,207.041,207.041,207.041,207.841,1,1,right,0.285,,207.841,207.842,,0,,207.842,207.842,,1,,0,207.842,207.842,207.843,209.343,0,10,10,10,1,0.8,0.2,0.2,0.8,1,0,,,,,,,,,,,,,,,,,,,,,,,,,,,,,,,,,,,,
,,666ee913519a8d810a4c38d9,66daf5ae64fec735e0a30d52,2024-09-06_14h30.16.701,mdp,2024.2.1,Win32,58.82352941,66d7945b1baad48e845df3ce,,,,,,,,,,,,,,,,,,,,,209.343,209.343,209.343,210.144,0,1,left,0.288,,210.144,210.144,,1,,210.144,210.145,,0,,0,210.145,210.145,210.145,211.645,0,11,11,11,1,0.6,0.4,0.6,0.4,1,0,,,,,,,,,,,,,,,,,,,,,,,,,,,,,,,,,,,,
,,666ee913519a8d810a4c38d9,66daf5ae64fec735e0a30d52,2024-09-06_14h30.16.701,mdp,2024.2.1,Win32,58.82352941,66d7945b1baad48e845df3ce,,,,,,,,,,,,,,,,,,,,,211.645,211.645,211.645,212.579,0,1,left,0.427,,212.579,212.58,,0,,212.58,212.58,,0,,0,212.58,212.58,212.581,214.081,0,12,12,12,1,0.6,0.4,0.6,0.4,1,0,,,,,,,,,,,,,,,,,,,,,,,,,,,,,,,,,,,,
,,666ee913519a8d810a4c38d9,66daf5ae64fec735e0a30d52,2024-09-06_14h30.16.701,mdp,2024.2.1,Win32,58.82352941,66d7945b1baad48e845df3ce,,,,,,,,,,,,,,,,,,,,,214.081,214.081,214.081,214.814,1,1,right,0.216,,214.815,214.815,,1,,214.815,214.815,,0,,0,214.815,214.815,214.815,216.316,0,13,13,13,1,0.6,0.4,0.6,0.4,1,0,,,,,,,,,,,,,,,,,,,,,,,,,,,,,,,,,,,,
,,666ee913519a8d810a4c38d9,66daf5ae64fec735e0a30d52,2024-09-06_14h30.16.701,mdp,2024.2.1,Win32,58.82352941,66d7945b1baad48e845df3ce,,,,,,,,,,,,,,,,,,,,,216.316,216.316,216.317,217.033,0,0,left,0.201,,217.034,217.034,,0,,217.034,217.034,,0,,1,217.034,217.034,217.035,218.535,0,14,14,14,1,0.8,0.2,0.8,0.2,1,0,,,,,,,,,,,,,,,,,,,,,,,,,,,,,,,,,,,,
,,666ee913519a8d810a4c38d9,66daf5ae64fec735e0a30d52,2024-09-06_14h30.16.701,mdp,2024.2.1,Win32,58.82352941,66d7945b1baad48e845df3ce,,,,,,,,,,,,,,,,,,,,,218.535,218.535,218.535,219.185,0,0,left,0.139,,219.185,219.185,,0,,219.186,219.186,,0,,1,219.186,219.186,219.186,220.686,0,15,15,15,1,0.8,0.2,0.8,0.2,1,0,,,,,,,,,,,,,,,,,,,,,,,,,,,,,,,,,,,,
,,666ee913519a8d810a4c38d9,66daf5ae64fec735e0a30d52,2024-09-06_14h30.16.701,mdp,2024.2.1,Win32,58.82352941,66d7945b1baad48e845df3ce,,,,,,,,,,,,,,,,,,,,,220.686,220.686,220.687,221.721,0,0,left,0.517,,221.722,221.722,,0,,221.722,221.722,,0,,1,221.722,221.722,221.722,223.222,0,16,16,16,1,0.8,0.2,0.8,0.2,1,0,,,,,,,,,,,,,,,,,,,,,,,,,,,,,,,,,,,,
,,666ee913519a8d810a4c38d9,66daf5ae64fec735e0a30d52,2024-09-06_14h30.16.701,mdp,2024.2.1,Win32,58.82352941,66d7945b1baad48e845df3ce,,,,,,,,,,,,,,,,,,,,,223.222,223.222,223.223,223.839,1,0,right,0.101,,223.84,223.84,,1,,223.84,223.84,,0,,1,223.84,223.84,223.84,225.34,0,17,17,17,1,0.8,0.2,0.8,0.2,1,0,,,,,,,,,,,,,,,,,,,,,,,,,,,,,,,,,,,,
,,666ee913519a8d810a4c38d9,66daf5ae64fec735e0a30d52,2024-09-06_14h30.16.701,mdp,2024.2.1,Win32,58.82352941,66d7945b1baad48e845df3ce,,,,,,,,,,,,,,,,,,,,,225.341,225.341,225.342,226.092,1,0,right,0.234,,226.092,226.092,,0,,226.092,226.092,,0,,1,226.092,226.092,226.093,227.593,0,18,18,18,1,0.8,0.2,0.8,0.2,1,0,,,,,,,,,,,,,,,,,,,,,,,,,,,,,,,,,,,,
,,666ee913519a8d810a4c38d9,66daf5ae64fec735e0a30d52,2024-09-06_14h30.16.701,mdp,2024.2.1,Win32,58.82352941,66d7945b1baad48e845df3ce,,,,,,,,,,,,,,,,,,,,,227.593,227.593,227.593,228.344,1,0,right,0.245,,228.344,228.344,,0,,228.344,228.344,,0,,1,228.344,228.344,228.345,229.845,0,19,19,19,1,0.8,0.2,0.8,0.2,1,0,,,,,,,,,,,,,,,,,,,,,,,,,,,,,,,,,,,,
,,666ee913519a8d810a4c38d9,66daf5ae64fec735e0a30d52,2024-09-06_14h30.16.701,mdp,2024.2.1,Win32,58.82352941,66d7945b1baad48e845df3ce,,,,,,,,,,,,,,,,,,,,,229.845,229.845,229.845,230.479,0,0,left,0.122,,230.48,230.48,,1,,230.481,230.481,,1,,1,230.481,230.481,230.481,231.981,0,20,20,20,1,0.2,0.8,0.6,0.4,1,0,,,,,,,,,,,,,,,,,,,,,,,,,,,,,,,,,,,,
,,666ee913519a8d810a4c38d9,66daf5ae64fec735e0a30d52,2024-09-06_14h30.16.701,mdp,2024.2.1,Win32,58.82352941,66d7945b1baad48e845df3ce,,,,,,,,,,,,,,,,,,,,,231.981,231.981,231.981,232.614,0,0,left,0.128,,232.615,232.615,,0,,232.615,232.615,,1,,1,232.615,232.615,232.615,234.115,0,21,21,21,1,0.2,0.8,0.6,0.4,1,0,,,,,,,,,,,,,,,,,,,,,,,,,,,,,,,,,,,,
,,666ee913519a8d810a4c38d9,66daf5ae64fec735e0a30d52,2024-09-06_14h30.16.701,mdp,2024.2.1,Win32,58.82352941,66d7945b1baad48e845df3ce,,,,,,,,,,,,,,,,,,,,,234.116,234.116,234.116,235.251,0,1,left,0.627,,235.251,235.251,,1,,235.251,235.251,,0,,0,235.251,235.251,235.251,236.752,0,22,22,22,1,0.2,0.8,0.6,0.4,1,0,,,,,,,,,,,,,,,,,,,,,,,,,,,,,,,,,,,,
,,666ee913519a8d810a4c38d9,66daf5ae64fec735e0a30d52,2024-09-06_14h30.16.701,mdp,2024.2.1,Win32,58.82352941,66d7945b1baad48e845df3ce,,,,,,,,,,,,,,,,,,,,,236.752,236.752,236.752,237.603,0,1,left,0.334,,237.603,237.603,,0,,237.604,237.604,,1,,0,237.604,237.604,237.604,239.104,0,23,23,23,1,0.2,0.8,0.6,0.4,1,0,,,,,,,,,,,,,,,,,,,,,,,,,,,,,,,,,,,,
,,666ee913519a8d810a4c38d9,66daf5ae64fec735e0a30d52,2024-09-06_14h30.16.701,mdp,2024.2.1,Win32,58.82352941,66d7945b1baad48e845df3ce,,,,,,,,,,,,,,,,,,,,,239.104,239.104,239.105,239.922,0,1,left,0.301,,239.924,239.925,,1,,239.926,239.927,,1,,0,239.927,239.927,239.927,241.423,0,24,24,24,1,0.2,0.8,0.6,0.4,1,0,,,,,,,,,,,,,,,,,,,,,,,,,,,,,,,,,,,,
,,666ee913519a8d810a4c38d9,66daf5ae64fec735e0a30d52,2024-09-06_14h30.16.701,mdp,2024.2.1,Win32,58.82352941,66d7945b1baad48e845df3ce,,,,,,,,,,,,,,,,,,,,,241.423,241.423,241.423,242.106,0,1,left,0.176,,242.107,242.107,,1,,242.107,242.108,,1,,0,242.108,242.108,242.108,243.608,0,25,25,25,1,0.2,0.8,0.6,0.4,1,0,,,,,,,,,,,,,,,,,,,,,,,,,,,,,,,,,,,,
,,666ee913519a8d810a4c38d9,66daf5ae64fec735e0a30d52,2024-09-06_14h30.16.701,mdp,2024.2.1,Win32,58.82352941,66d7945b1baad48e845df3ce,,,,,,,,,,,,,,,,,,,,,243.608,243.608,243.609,244.292,0,0,left,0.167,,244.293,244.293,,0,,244.293,244.293,,0,,1,244.293,244.293,244.294,245.794,0,26,26,26,1,0.6,0.4,0.4,0.6,1,0,,,,,,,,,,,,,,,,,,,,,,,,,,,,,,,,,,,,
,,666ee913519a8d810a4c38d9,66daf5ae64fec735e0a30d52,2024-09-06_14h30.16.701,mdp,2024.2.1,Win32,58.82352941,66d7945b1baad48e845df3ce,,,,,,,,,,,,,,,,,,,,,245.794,245.794,245.794,246.544,0,1,left,0.238,,246.544,246.545,,1,,246.545,246.545,,0,,0,246.545,246.545,246.545,248.045,0,27,27,27,1,0.6,0.4,0.4,0.6,1,0,,,,,,,,,,,,,,,,,,,,,,,,,,,,,,,,,,,,
,,666ee913519a8d810a4c38d9,66daf5ae64fec735e0a30d52,2024-09-06_14h30.16.701,mdp,2024.2.1,Win32,58.82352941,66d7945b1baad48e845df3ce,,,,,,,,,,,,,,,,,,,,,248.045,248.045,248.046,248.747,0,0,left,0.194,,248.747,248.747,,1,,248.748,248.748,,0,,1,248.748,248.748,248.748,250.248,0,28,28,28,1,0.6,0.4,0.4,0.6,1,0,,,,,,,,,,,,,,,,,,,,,,,,,,,,,,,,,,,,
,,666ee913519a8d810a4c38d9,66daf5ae64fec735e0a30d52,2024-09-06_14h30.16.701,mdp,2024.2.1,Win32,58.82352941,66d7945b1baad48e845df3ce,,,,,,,,,,,,,,,,,,,,,250.25,250.25,250.251,250.916,1,1,right,0.135,,250.917,250.919,,1,,250.92,250.921,,0,,0,250.921,250.921,250.921,252.417,0,29,29,29,1,0.4,0.6,0.6,0.4,1,0,,,,,,,,,,,,,,,,,,,,,,,,,,,,,,,,,,,,
,,666ee913519a8d810a4c38d9,66daf5ae64fec735e0a30d52,2024-09-06_14h30.16.701,mdp,2024.2.1,Win32,58.82352941,66d7945b1baad48e845df3ce,,,,,,,,,,,,,,,,,,,,,252.417,252.417,252.417,253.167,1,1,right,0.241,,253.167,253.168,,0,,253.168,253.168,,0,,0,253.168,253.168,253.168,254.669,0,30,30,30,1,0.4,0.6,0.6,0.4,1,0,,,,,,,,,,,,,,,,,,,,,,,,,,,,,,,,,,,,
,,666ee913519a8d810a4c38d9,66daf5ae64fec735e0a30d52,2024-09-06_14h30.16.701,mdp,2024.2.1,Win32,58.82352941,66d7945b1baad48e845df3ce,,,,,,,,,,,,,,,,,,,,,254.67,254.67,254.672,255.469,0,0,left,0.275,,255.47,255.47,,1,,255.47,255.47,,0,,1,255.47,255.47,255.471,256.971,0,31,31,31,1,0.4,0.6,0.6,0.4,1,0,,,,,,,,,,,,,,,,,,,,,,,,,,,,,,,,,,,,
,,666ee913519a8d810a4c38d9,66daf5ae64fec735e0a30d52,2024-09-06_14h30.16.701,mdp,2024.2.1,Win32,58.82352941,66d7945b1baad48e845df3ce,,,,,,,,,,,,,,,,,,,,,256.971,256.971,256.972,257.671,1,0,right,0.184,,257.671,257.672,,0,,257.672,257.673,,0,,1,257.673,257.673,257.673,259.173,0,32,32,32,1,0.8,0.2,0.8,0.2,1,0,,,,,,,,,,,,,,,,,,,,,,,,,,,,,,,,,,,,
,,666ee913519a8d810a4c38d9,66daf5ae64fec735e0a30d52,2024-09-06_14h30.16.701,mdp,2024.2.1,Win32,58.82352941,66d7945b1baad48e845df3ce,,,,,,,,,,,,,,,,,,,,,259.173,259.173,259.173,259.941,0,0,left,0.249,,259.942,259.943,,0,,259.945,259.946,,0,,1,259.946,259.946,259.947,261.442,0,33,33,33,1,0.8,0.2,0.8,0.2,1,0,,,,,,,,,,,,,,,,,,,,,,,,,,,,,,,,,,,,
,,666ee913519a8d810a4c38d9,66daf5ae64fec735e0a30d52,2024-09-06_14h30.16.701,mdp,2024.2.1,Win32,58.82352941,66d7945b1baad48e845df3ce,,,,,,,,,,,,,,,,,,,,,261.442,261.442,261.442,262.559,0,0,left,0.601,,262.56,262.56,,1,,262.56,262.561,,0,,1,262.561,262.561,262.561,264.06,0,34,34,34,1,0.6,0.4,0.2,0.8,1,0,,,,,,,,,,,,,,,,,,,,,,,,,,,,,,,,,,,,
,,666ee913519a8d810a4c38d9,66daf5ae64fec735e0a30d52,2024-09-06_14h30.16.701,mdp,2024.2.1,Win32,58.82352941,66d7945b1baad48e845df3ce,,,,,,,,,,,,,,,,,,,,,264.061,264.061,264.061,264.794,1,0,right,0.226,,264.795,264.795,,1,,264.795,264.795,,0,,1,264.795,264.795,264.796,266.296,0,35,35,35,1,0.6,0.4,0.2,0.8,1,0,,,,,,,,,,,,,,,,,,,,,,,,,,,,,,,,,,,,
,,666ee913519a8d810a4c38d9,66daf5ae64fec735e0a30d52,2024-09-06_14h30.16.701,mdp,2024.2.1,Win32,58.82352941,66d7945b1baad48e845df3ce,,,,,,,,,,,,,,,,,,,,,266.296,266.296,266.297,266.963,1,0,right,0.149,,266.964,266.964,,1,,266.965,266.965,,0,,1,266.965,266.965,266.965,268.465,0,36,36,36,1,0.6,0.4,0.2,0.8,1,0,,,,,,,,,,,,,,,,,,,,,,,,,,,,,,,,,,,,
,,666ee913519a8d810a4c38d9,66daf5ae64fec735e0a30d52,2024-09-06_14h30.16.701,mdp,2024.2.1,Win32,58.82352941,66d7945b1baad48e845df3ce,,,,,,,,,,,,,,,,,,,,,268.466,268.466,268.468,269.116,0,1,left,0.141,,269.116,269.116,,0,,269.117,269.117,,0,,0,269.117,269.117,269.117,270.617,0,37,37,37,1,0.6,0.4,0.2,0.8,1,0,,,,,,,,,,,,,,,,,,,,,,,,,,,,,,,,,,,,
,,666ee913519a8d810a4c38d9,66daf5ae64fec735e0a30d52,2024-09-06_14h30.16.701,mdp,2024.2.1,Win32,58.82352941,66d7945b1baad48e845df3ce,,,,,,,,,,,,,,,,,,,,,270.617,270.617,270.618,271.235,0,0,left,0.1,,271.235,271.235,,0,,271.235,271.235,,1,,1,271.235,271.235,271.235,272.735,0,38,38,38,1,0.8,0.2,0.6,0.4,1,0,,,,,,,,,,,,,,,,,,,,,,,,,,,,,,,,,,,,
,,666ee913519a8d810a4c38d9,66daf5ae64fec735e0a30d52,2024-09-06_14h30.16.701,mdp,2024.2.1,Win32,58.82352941,66d7945b1baad48e845df3ce,,,,,,,,,,,,,,,,,,,,,272.736,272.736,272.737,273.404,1,1,right,0.153,,273.404,273.404,,0,,273.405,273.405,,0,,0,273.405,273.405,273.405,274.905,0,39,39,39,1,0.6,0.4,0.4,0.6,1,0,,,,,,,,,,,,,,,,,,,,,,,,,,,,,,,,,,,,
,,666ee913519a8d810a4c38d9,66daf5ae64fec735e0a30d52,2024-09-06_14h30.16.701,mdp,2024.2.1,Win32,58.82352941,66d7945b1baad48e845df3ce,,,,,,,,,,,,,,,,,,,,,274.905,274.905,274.905,275.706,1,0,right,0.287,,275.706,275.707,,1,,275.708,275.709,,0,,1,275.709,275.709,275.709,277.207,0,40,40,40,1,0.4,0.6,0.6,0.4,1,0,,,,,,,,,,,,,,,,,,,,,,,,,,,,,,,,,,,,
,,666ee913519a8d810a4c38d9,66daf5ae64fec735e0a30d52,2024-09-06_14h30.16.701,mdp,2024.2.1,Win32,58.82352941,66d7945b1baad48e845df3ce,,,,,,,,,,,,,,,,,,,,,277.207,277.207,277.208,277.924,0,1,left,0.203,,277.924,277.925,,1,,277.925,277.925,,1,,0,277.925,277.925,277.925,279.426,0,41,41,41,1,0.4,0.6,0.6,0.4,1,0,,,,,,,,,,,,,,,,,,,,,,,,,,,,,,,,,,,,
,,666ee913519a8d810a4c38d9,66daf5ae64fec735e0a30d52,2024-09-06_14h30.16.701,mdp,2024.2.1,Win32,58.82352941,66d7945b1baad48e845df3ce,,,,,,,,,,,,,,,,,,,,,279.426,279.426,279.426,280.043,0,0,left,0.109,,280.043,280.044,,1,,280.044,280.044,,1,,1,280.044,280.044,280.044,281.544,0,42,42,42,1,0.4,0.6,0.6,0.4,1,0,,,,,,,,,,,,,,,,,,,,,,,,,,,,,,,,,,,,
,,666ee913519a8d810a4c38d9,66daf5ae64fec735e0a30d52,2024-09-06_14h30.16.701,mdp,2024.2.1,Win32,58.82352941,66d7945b1baad48e845df3ce,,,,,,,,,,,,,,,,,,,,,281.544,281.544,281.544,282.162,1,0,right,0.104,,282.162,282.162,,0,,282.162,282.163,,0,,1,282.163,282.163,282.163,283.663,0,43,43,43,1,0.4,0.6,0.6,0.4,1,0,,,,,,,,,,,,,,,,,,,,,,,,,,,,,,,,,,,,
,,666ee913519a8d810a4c38d9,66daf5ae64fec735e0a30d52,2024-09-06_14h30.16.701,mdp,2024.2.1,Win32,58.82352941,66d7945b1baad48e845df3ce,,,,,,,,,,,,,,,,,,,,,283.663,283.663,283.663,284.33,0,0,left,0.158,,284.331,284.331,,0,,284.331,284.331,,1,,1,284.331,284.331,284.331,285.831,0,44,44,44,1,0.4,0.6,0.6,0.4,1,0,,,,,,,,,,,,,,,,,,,,,,,,,,,,,,,,,,,,
,,666ee913519a8d810a4c38d9,66daf5ae64fec735e0a30d52,2024-09-06_14h30.16.701,mdp,2024.2.1,Win32,58.82352941,66d7945b1baad48e845df3ce,,,,,,,,,,,,,,,,,,,,,285.832,285.832,285.832,286.449,1,0,right,0.1,,286.45,286.45,,0,,286.45,286.45,,0,,1,286.45,286.45,286.45,287.95,0,45,45,45,1,0.4,0.6,0.6,0.4,1,0,,,,,,,,,,,,,,,,,,,,,,,,,,,,,,,,,,,,
,,666ee913519a8d810a4c38d9,66daf5ae64fec735e0a30d52,2024-09-06_14h30.16.701,mdp,2024.2.1,Win32,58.82352941,66d7945b1baad48e845df3ce,,,,,,,,,,,,,,,,,,,,,287.95,287.95,287.95,288.701,1,0,right,0.238,,288.701,288.701,,1,,288.701,288.702,,1,,1,288.702,288.702,288.702,290.202,0,46,46,46,1,0.4,0.6,0.6,0.4,1,0,,,,,,,,,,,,,,,,,,,,,,,,,,,,,,,,,,,,
,,666ee913519a8d810a4c38d9,66daf5ae64fec735e0a30d52,2024-09-06_14h30.16.701,mdp,2024.2.1,Win32,58.82352941,66d7945b1baad48e845df3ce,,,,,,,,,,,,,,,,,,,,,290.202,290.202,290.203,290.853,0,1,left,0.144,,290.854,290.854,,1,,290.854,290.854,,1,,0,290.854,290.854,290.855,292.355,0,47,47,47,1,0.4,0.6,0.6,0.4,1,0,,,,,,,,,,,,,,,,,,,,,,,,,,,,,,,,,,,,
,,666ee913519a8d810a4c38d9,66daf5ae64fec735e0a30d52,2024-09-06_14h30.16.701,mdp,2024.2.1,Win32,58.82352941,66d7945b1baad48e845df3ce,,,,,,,,,,,,,,,,,,,,,292.355,292.355,292.355,293.006,1,1,right,0.134,,293.008,293.009,,0,,293.01,293.011,,0,,0,293.011,293.011,293.011,294.506,0,48,48,48,1,0.4,0.6,0.6,0.4,1,0,,,,,,,,,,,,,,,,,,,,,,,,,,,,,,,,,,,,
,,666ee913519a8d810a4c38d9,66daf5ae64fec735e0a30d52,2024-09-06_14h30.16.701,mdp,2024.2.1,Win32,58.82352941,66d7945b1baad48e845df3ce,,,,,,,,,,,,,,,,,,,,,294.507,294.507,294.507,295.391,1,1,right,0.367,,295.391,295.391,,0,,295.391,295.391,,1,,0,295.391,295.391,295.392,296.892,0,49,49,49,1,0.4,0.6,0.6,0.4,1,0,,,,,,,,,,,,,,,,,,,,,,,,,,,,,,,,,,,,
,,666ee913519a8d810a4c38d9,66daf5ae64fec735e0a30d52,2024-09-06_14h30.16.701,mdp,2024.2.1,Win32,58.82352941,66d7945b1baad48e845df3ce,,,,,,,,,,,,,,,,,,,,,,,,,,,,,,,,,,,,,,,,,,,,,,,,,,,,,,,,296.893,355.397,0,0,0,7,1,imgs/goat.png,imgs/kangaroo.png,imgs/rabbit.png,imgs/lion.png,imgs/horse.png,,,,,,,,,,,,,,,,,,,,,,,,
,,666ee913519a8d810a4c38d9,66daf5ae64fec735e0a30d52,2024-09-06_14h30.16.701,mdp,2024.2.1,Win32,58.82352941,66d7945b1baad48e845df3ce,,,,,,,,,,,,,,2,seqs/st2seq8.csv,355.404,356.649,space,0.717,,356.65,356.65,356.651,357.934,0,0,left,0.754,,357.936,359.501,0,1,left,359.502,359.502,,1,,0,359.502,359.502,359.502,361.003,0,0,0,0,1,0.8,0.2,0.2,0.8,,,,,,,,,,,,,,,1.043,,0.4,0.6,0.8,0.2,0.4,0.6,0.8,0.2,1,0,,,,,,,,,,,,
,,666ee913519a8d810a4c38d9,66daf5ae64fec735e0a30d52,2024-09-06_14h30.16.701,mdp,2024.2.1,Win32,58.82352941,66d7945b1baad48e845df3ce,,,,,,,,,,,,,,,,,,,,,361.003,361.003,361.003,362.188,0,0,left,0.671,,362.189,362.905,1,0,right,362.905,362.905,,0,,1,362.905,362.905,362.905,364.406,0,1,1,1,1,0.8,0.2,0.2,0.8,,,,,,,,,,,,,,,0.188,,0.4,0.6,0.8,0.2,0.4,0.6,0.8,0.2,1,0,,,,,,,,,,,,
,,666ee913519a8d810a4c38d9,66daf5ae64fec735e0a30d52,2024-09-06_14h30.16.701,mdp,2024.2.1,Win32,58.82352941,66d7945b1baad48e845df3ce,,,,,,,,,,,,,,,,,,,,,364.407,364.407,364.407,365.224,1,0,right,0.308,,365.224,365.825,0,1,left,365.825,365.825,,1,,0,365.825,365.825,365.825,367.326,0,2,2,2,1,0.8,0.2,0.2,0.8,,,,,,,,,,,,,,,0.09,,0.4,0.6,0.8,0.2,0.4,0.6,0.8,0.2,1,0,,,,,,,,,,,,
,,666ee913519a8d810a4c38d9,66daf5ae64fec735e0a30d52,2024-09-06_14h30.16.701,mdp,2024.2.1,Win32,58.82352941,66d7945b1baad48e845df3ce,,,,,,,,,,,,,,,,,,,,,367.326,367.326,367.326,368.427,1,1,right,0.593,,368.428,369.027,1,0,right,369.028,369.028,,1,,1,369.028,369.028,369.028,370.529,0,3,3,3,1,0.8,0.2,0.2,0.8,,,,,,,,,,,,,,,0.086,,0.4,0.6,0.8,0.2,0.6,0.4,0.4,0.6,1,0,,,,,,,,,,,,
,,666ee913519a8d810a4c38d9,66daf5ae64fec735e0a30d52,2024-09-06_14h30.16.701,mdp,2024.2.1,Win32,58.82352941,66d7945b1baad48e845df3ce,,,,,,,,,,,,,,,,,,,,,370.529,370.529,370.529,371.363,0,0,left,0.317,,371.363,371.98,1,0,right,371.981,371.981,,0,,1,371.981,371.981,371.981,373.481,0,4,4,4,1,0.8,0.2,0.2,0.8,,,,,,,,,,,,,,,0.104,,0.4,0.6,0.8,0.2,0.6,0.4,0.4,0.6,1,0,,,,,,,,,,,,
,,666ee913519a8d810a4c38d9,66daf5ae64fec735e0a30d52,2024-09-06_14h30.16.701,mdp,2024.2.1,Win32,58.82352941,66d7945b1baad48e845df3ce,,,,,,,,,,,,,,,,,,,,,373.481,373.481,373.482,374.549,0,0,left,0.551,,374.55,375.133,1,0,right,375.133,375.134,,0,,1,375.134,375.134,375.134,376.635,0,5,5,5,1,0.8,0.2,0.2,0.8,,,,,,,,,,,,,,,0.067,,0.4,0.6,0.8,0.2,0.6,0.4,0.4,0.6,1,0,,,,,,,,,,,,
,,666ee913519a8d810a4c38d9,66daf5ae64fec735e0a30d52,2024-09-06_14h30.16.701,mdp,2024.2.1,Win32,58.82352941,66d7945b1baad48e845df3ce,,,,,,,,,,,,,,,,,,,,,376.635,376.635,376.635,377.585,0,1,left,0.445,,377.585,378.719,1,1,right,378.72,378.72,,1,,0,378.72,378.72,378.721,380.221,0,6,6,6,1,0.8,0.2,0.2,0.8,,,,,,,,,,,,,,,0.62,,0.4,0.6,0.8,0.2,0.6,0.4,0.4,0.6,1,0,,,,,,,,,,,,
,,666ee913519a8d810a4c38d9,66daf5ae64fec735e0a30d52,2024-09-06_14h30.16.701,mdp,2024.2.1,Win32,58.82352941,66d7945b1baad48e845df3ce,,,,,,,,,,,,,,,,,,,,,380.221,380.221,380.222,381.556,0,0,left,0.827,,381.556,382.473,1,0,right,382.474,382.474,,0,,1,382.474,382.474,382.474,383.975,0,7,7,7,1,0.8,0.2,0.2,0.8,,,,,,,,,,,,,,,0.41,,0.4,0.6,0.8,0.2,0.6,0.4,0.4,0.6,1,0,,,,,,,,,,,,
,,666ee913519a8d810a4c38d9,66daf5ae64fec735e0a30d52,2024-09-06_14h30.16.701,mdp,2024.2.1,Win32,58.82352941,66d7945b1baad48e845df3ce,,,,,,,,,,,,,,,,,,,,,383.975,383.975,383.976,385.526,0,0,left,1.04,,385.526,386.628,1,0,right,386.63,386.63,,1,,1,386.63,386.63,386.632,388.129,0,8,8,8,1,0.8,0.2,0.2,0.8,,,,,,,,,,,,,,,0.595,,0.4,0.6,0.8,0.2,0.8,0.2,0.2,0.8,1,0,,,,,,,,,,,,
,,666ee913519a8d810a4c38d9,66daf5ae64fec735e0a30d52,2024-09-06_14h30.16.701,mdp,2024.2.1,Win32,58.82352941,66d7945b1baad48e845df3ce,,,,,,,,,,,,,,,,,,,,,388.129,388.129,388.129,389.097,0,0,left,0.455,,389.099,390.248,1,1,right,390.25,390.251,,0,,0,390.251,390.251,390.252,391.748,0,9,9,9,1,0.8,0.2,0.2,0.8,,,,,,,,,,,,,,,0.641,,0.4,0.6,0.8,0.2,0.8,0.2,0.2,0.8,1,0,,,,,,,,,,,,
,,666ee913519a8d810a4c38d9,66daf5ae64fec735e0a30d52,2024-09-06_14h30.16.701,mdp,2024.2.1,Win32,58.82352941,66d7945b1baad48e845df3ce,,,,,,,,,,,,,,,,,,,,,391.748,391.748,391.749,392.8,0,0,left,0.538,,392.8,393.718,1,0,right,393.72,393.721,,0,,1,393.721,393.721,393.722,395.218,0,10,10,10,1,0.8,0.2,0.2,0.8,,,,,,,,,,,,,,,0.408,,0.4,0.6,0.8,0.2,0.8,0.2,0.2,0.8,1,0,,,,,,,,,,,,
,,666ee913519a8d810a4c38d9,66daf5ae64fec735e0a30d52,2024-09-06_14h30.16.701,mdp,2024.2.1,Win32,58.82352941,66d7945b1baad48e845df3ce,,,,,,,,,,,,,,,,,,,,,395.218,395.218,395.219,396.086,0,0,left,0.36,,396.087,397.154,1,1,right,397.154,397.154,,0,,0,397.155,397.155,397.155,398.655,0,11,11,11,1,0.8,0.2,0.2,0.8,,,,,,,,,,,,,,,0.563,,0.4,0.6,0.8,0.2,0.8,0.2,0.2,0.8,1,0,,,,,,,,,,,,
,,666ee913519a8d810a4c38d9,66daf5ae64fec735e0a30d52,2024-09-06_14h30.16.701,mdp,2024.2.1,Win32,58.82352941,66d7945b1baad48e845df3ce,,,,,,,,,,,,,,,,,,,,,398.656,398.656,398.656,399.724,0,1,left,0.553,,399.725,401.058,0,0,left,401.058,401.058,,1,,1,401.058,401.058,401.058,402.559,0,12,12,12,1,0.2,0.8,0.8,0.2,,,,,,,,,,,,,,,0.823,,0.4,0.6,0.8,0.2,0.8,0.2,0.2,0.8,1,0,,,,,,,,,,,,
,,666ee913519a8d810a4c38d9,66daf5ae64fec735e0a30d52,2024-09-06_14h30.16.701,mdp,2024.2.1,Win32,58.82352941,66d7945b1baad48e845df3ce,,,,,,,,,,,,,,,,,,,,,402.559,402.559,402.559,403.527,0,1,left,0.453,,403.529,404.811,0,1,left,404.811,404.812,,1,,0,404.812,404.812,404.812,406.312,0,13,13,13,1,0.2,0.8,0.8,0.2,,,,,,,,,,,,,,,0.75,,0.4,0.6,0.8,0.2,0.2,0.8,0.8,0.2,1,0,,,,,,,,,,,,
,,666ee913519a8d810a4c38d9,66daf5ae64fec735e0a30d52,2024-09-06_14h30.16.701,mdp,2024.2.1,Win32,58.82352941,66d7945b1baad48e845df3ce,,,,,,,,,,,,,,,,,,,,,406.312,406.312,406.313,407.147,0,1,left,0.317,,407.148,408.682,0,1,left,408.682,408.682,,1,,0,408.682,408.682,408.682,410.183,0,14,14,14,1,0.2,0.8,0.8,0.2,,,,,,,,,,,,,,,1.019,,0.4,0.6,0.8,0.2,0.2,0.8,0.8,0.2,1,0,,,,,,,,,,,,
,,666ee913519a8d810a4c38d9,66daf5ae64fec735e0a30d52,2024-09-06_14h30.16.701,mdp,2024.2.1,Win32,58.82352941,66d7945b1baad48e845df3ce,,,,,,,,,,,,,,,,,,,,,410.183,410.183,410.183,411.001,0,1,left,0.301,,411.003,411.934,1,0,right,411.935,411.935,,1,,1,411.935,411.935,411.936,413.436,0,15,15,15,1,0.2,0.8,0.8,0.2,,,,,,,,,,,,,,,0.4,,0.4,0.6,0.8,0.2,0.4,0.6,0.4,0.6,1,0,,,,,,,,,,,,
,,666ee913519a8d810a4c38d9,66daf5ae64fec735e0a30d52,2024-09-06_14h30.16.701,mdp,2024.2.1,Win32,58.82352941,66d7945b1baad48e845df3ce,,,,,,,,,,,,,,,,,,,,,413.436,413.436,413.437,414.353,0,1,left,0.401,,414.354,416.089,0,0,left,416.089,416.089,,0,,1,416.089,416.089,416.09,417.59,0,16,16,16,1,0.2,0.8,0.8,0.2,,,,,,,,,,,,,,,1.218,,0.4,0.6,0.8,0.2,0.4,0.6,0.4,0.6,1,0,,,,,,,,,,,,
,,666ee913519a8d810a4c38d9,66daf5ae64fec735e0a30d52,2024-09-06_14h30.16.701,mdp,2024.2.1,Win32,58.82352941,66d7945b1baad48e845df3ce,,,,,,,,,,,,,,,,,,,,,417.59,417.59,417.59,418.407,0,1,left,0.3,,418.407,419.958,0,1,left,419.959,419.959,,0,,0,419.959,419.959,419.959,421.461,0,17,17,17,1,0.2,0.8,0.8,0.2,,,,,,,,,,,,,,,1.039,,0.4,0.6,0.8,0.2,0.4,0.6,0.4,0.6,1,0,,,,,,,,,,,,
,,666ee913519a8d810a4c38d9,66daf5ae64fec735e0a30d52,2024-09-06_14h30.16.701,mdp,2024.2.1,Win32,58.82352941,66d7945b1baad48e845df3ce,,,,,,,,,,,,,,,,,,,,,421.461,421.461,421.461,422.295,0,1,left,0.316,,422.297,423.796,0,1,left,423.796,423.797,,0,,0,423.797,423.797,423.797,425.297,0,18,18,18,1,0.2,0.8,0.8,0.2,,,,,,,,,,,,,,,0.969,,0.4,0.6,0.8,0.2,0.4,0.6,0.4,0.6,1,0,,,,,,,,,,,,
,,666ee913519a8d810a4c38d9,66daf5ae64fec735e0a30d52,2024-09-06_14h30.16.701,mdp,2024.2.1,Win32,58.82352941,66d7945b1baad48e845df3ce,,,,,,,,,,,,,,,,,,,,,425.297,425.297,425.298,426.048,0,1,left,0.238,,426.049,426.916,1,1,right,426.916,426.916,,1,,0,426.916,426.916,426.916,428.417,0,19,19,19,1,0.2,0.8,0.8,0.2,,,,,,,,,,,,,,,0.359,,0.4,0.6,0.8,0.2,0.4,0.6,0.4,0.6,1,0,,,,,,,,,,,,
,,666ee913519a8d810a4c38d9,66daf5ae64fec735e0a30d52,2024-09-06_14h30.16.701,mdp,2024.2.1,Win32,58.82352941,66d7945b1baad48e845df3ce,,,,,,,,,,,,,,,,,,,,,428.417,428.417,428.417,429.251,0,1,left,0.317,,429.251,430.686,0,0,left,430.686,430.686,,0,,1,430.686,430.686,430.686,432.187,0,20,20,20,1,0.2,0.8,0.8,0.2,,,,,,,,,,,,,,,0.92,,0.4,0.6,0.8,0.2,0.4,0.6,0.4,0.6,1,0,,,,,,,,,,,,
,,666ee913519a8d810a4c38d9,66daf5ae64fec735e0a30d52,2024-09-06_14h30.16.701,mdp,2024.2.1,Win32,58.82352941,66d7945b1baad48e845df3ce,,,,,,,,,,,,,,,,,,,,,432.188,432.188,432.19,432.987,0,1,left,0.294,,432.988,433.905,1,0,right,433.906,433.906,,0,,1,433.906,433.906,433.906,435.407,0,21,21,21,1,0.2,0.8,0.8,0.2,,,,,,,,,,,,,,,0.401,,0.4,0.6,0.8,0.2,0.4,0.6,0.4,0.6,1,0,,,,,,,,,,,,
,,666ee913519a8d810a4c38d9,66daf5ae64fec735e0a30d52,2024-09-06_14h30.16.701,mdp,2024.2.1,Win32,58.82352941,66d7945b1baad48e845df3ce,,,,,,,,,,,,,,,,,,,,,435.407,435.407,435.407,436.259,0,1,left,0.338,,436.26,437.275,0,0,left,437.276,437.276,,0,,1,437.276,437.276,437.276,438.777,0,22,22,22,1,0.2,0.8,0.8,0.2,,,,,,,,,,,,,,,0.513,,0.4,0.6,0.8,0.2,0.2,0.8,0.8,0.2,1,0,,,,,,,,,,,,
,,666ee913519a8d810a4c38d9,66daf5ae64fec735e0a30d52,2024-09-06_14h30.16.701,mdp,2024.2.1,Win32,58.82352941,66d7945b1baad48e845df3ce,,,,,,,,,,,,,,,,,,,,,438.777,438.777,438.777,439.577,0,1,left,0.284,,439.577,440.395,1,1,right,440.397,440.399,,1,,0,440.399,440.399,440.4,441.896,0,23,23,23,1,0.2,0.8,0.8,0.2,,,,,,,,,,,,,,,0.309,,0.4,0.6,0.8,0.2,0.2,0.8,0.8,0.2,1,0,,,,,,,,,,,,
,,666ee913519a8d810a4c38d9,66daf5ae64fec735e0a30d52,2024-09-06_14h30.16.701,mdp,2024.2.1,Win32,58.82352941,66d7945b1baad48e845df3ce,,,,,,,,,,,,,,,,,,,,,441.896,441.896,441.897,442.713,0,1,left,0.303,,442.715,443.565,0,0,left,443.565,443.565,,0,,1,443.565,443.565,443.565,445.066,0,24,24,24,1,0.2,0.8,0.8,0.2,,,,,,,,,,,,,,,0.333,,0.4,0.6,0.8,0.2,0.2,0.8,0.8,0.2,1,0,,,,,,,,,,,,
,,666ee913519a8d810a4c38d9,66daf5ae64fec735e0a30d52,2024-09-06_14h30.16.701,mdp,2024.2.1,Win32,58.82352941,66d7945b1baad48e845df3ce,,,,,,,,,,,,,,,,,,,,,445.066,445.066,445.067,445.783,0,0,left,0.211,,445.784,446.867,1,1,right,446.868,446.868,,0,,0,446.868,446.868,446.869,448.369,0,25,25,25,1,0.8,0.2,0.2,0.8,,,,,,,,,,,,,,,0.565,,0.4,0.6,0.8,0.2,0.2,0.8,0.8,0.2,1,0,,,,,,,,,,,,
,,666ee913519a8d810a4c38d9,66daf5ae64fec735e0a30d52,2024-09-06_14h30.16.701,mdp,2024.2.1,Win32,58.82352941,66d7945b1baad48e845df3ce,,,,,,,,,,,,,,,,,,,,,448.37,448.37,448.372,449.22,0,0,left,0.317,,449.22,450.355,1,0,right,450.355,450.355,,1,,1,450.355,450.355,450.355,451.856,0,26,26,26,1,0.8,0.2,0.2,0.8,,,,,,,,,,,,,,,0.619,,0.4,0.6,0.8,0.2,0.2,0.8,0.8,0.2,1,0,,,,,,,,,,,,
,,666ee913519a8d810a4c38d9,66daf5ae64fec735e0a30d52,2024-09-06_14h30.16.701,mdp,2024.2.1,Win32,58.82352941,66d7945b1baad48e845df3ce,,,,,,,,,,,,,,,,,,,,,451.856,451.856,451.856,452.656,0,0,left,0.29,,452.656,453.674,1,1,right,453.674,453.674,,0,,0,453.674,453.674,453.675,455.175,0,27,27,27,1,0.8,0.2,0.2,0.8,,,,,,,,,,,,,,,0.504,,0.4,0.6,0.8,0.2,0.2,0.8,0.8,0.2,1,0,,,,,,,,,,,,
,,666ee913519a8d810a4c38d9,66daf5ae64fec735e0a30d52,2024-09-06_14h30.16.701,mdp,2024.2.1,Win32,58.82352941,66d7945b1baad48e845df3ce,,,,,,,,,,,,,,,,,,,,,455.175,455.175,455.176,456.16,0,0,left,0.475,,456.16,457.028,0,1,left,457.03,457.031,,1,,0,457.031,457.031,457.032,458.528,0,28,28,28,1,0.8,0.2,0.2,0.8,,,,,,,,,,,,,,,0.359,,0.4,0.6,0.8,0.2,0.2,0.8,0.8,0.2,1,0,,,,,,,,,,,,
,,666ee913519a8d810a4c38d9,66daf5ae64fec735e0a30d52,2024-09-06_14h30.16.701,mdp,2024.2.1,Win32,58.82352941,66d7945b1baad48e845df3ce,,,,,,,,,,,,,,,,,,,,,458.529,458.529,458.529,459.33,0,0,left,0.288,,459.332,460.197,0,0,left,460.198,460.198,,0,,1,460.198,460.198,460.198,461.699,0,29,29,29,1,0.8,0.2,0.2,0.8,,,,,,,,,,,,,,,0.352,,0.4,0.6,0.8,0.2,0.2,0.8,0.8,0.2,1,0,,,,,,,,,,,,
,,666ee913519a8d810a4c38d9,66daf5ae64fec735e0a30d52,2024-09-06_14h30.16.701,mdp,2024.2.1,Win32,58.82352941,66d7945b1baad48e845df3ce,,,,,,,,,,,,,,,,,,,,,461.699,461.699,461.699,462.382,0,1,left,0.151,,462.382,464.084,0,1,left,464.084,464.084,,1,,0,464.084,464.084,464.085,465.585,0,30,30,30,1,0.2,0.8,0.8,0.2,,,,,,,,,,,,,,,1.184,,0.4,0.6,0.8,0.2,0.2,0.8,0.8,0.2,1,0,,,,,,,,,,,,
,,666ee913519a8d810a4c38d9,66daf5ae64fec735e0a30d52,2024-09-06_14h30.16.701,mdp,2024.2.1,Win32,58.82352941,66d7945b1baad48e845df3ce,,,,,,,,,,,,,,,,,,,,,465.585,465.585,465.586,466.503,0,0,left,0.4,,466.503,467.587,1,1,right,467.587,467.588,,1,,0,467.588,467.588,467.588,469.088,0,31,31,31,1,0.2,0.8,0.8,0.2,,,,,,,,,,,,,,,0.575,,0.6,0.4,0.6,0.4,0.2,0.8,0.8,0.2,1,0,,,,,,,,,,,,
,,666ee913519a8d810a4c38d9,66daf5ae64fec735e0a30d52,2024-09-06_14h30.16.701,mdp,2024.2.1,Win32,58.82352941,66d7945b1baad48e845df3ce,,,,,,,,,,,,,,,,,,,,,469.089,469.089,469.09,469.907,0,1,left,0.302,,469.907,471.742,0,1,left,471.743,471.745,,1,,0,471.745,471.745,471.746,473.242,0,32,32,32,1,0.2,0.8,0.8,0.2,,,,,,,,,,,,,,,1.322,,0.6,0.4,0.6,0.4,0.2,0.8,0.8,0.2,1,0,,,,,,,,,,,,
,,666ee913519a8d810a4c38d9,66daf5ae64fec735e0a30d52,2024-09-06_14h30.16.701,mdp,2024.2.1,Win32,58.82352941,66d7945b1baad48e845df3ce,,,,,,,,,,,,,,,,,,,,,473.242,473.242,473.243,473.76,0,1,left,0.007,,473.76,475.228,1,0,right,475.228,475.228,,1,,1,475.228,475.228,475.228,476.729,0,33,33,33,1,0.2,0.8,0.8,0.2,,,,,,,,,,,,,,,0.951,,0.6,0.4,0.6,0.4,0.2,0.8,0.8,0.2,1,0,,,,,,,,,,,,
,,666ee913519a8d810a4c38d9,66daf5ae64fec735e0a30d52,2024-09-06_14h30.16.701,mdp,2024.2.1,Win32,58.82352941,66d7945b1baad48e845df3ce,,,,,,,,,,,,,,,,,,,,,476.73,476.73,476.73,477.665,0,1,left,0.422,,477.666,479.198,1,0,right,479.199,479.199,,0,,1,479.199,479.199,479.199,480.7,0,34,34,34,1,0.2,0.8,0.8,0.2,,,,,,,,,,,,,,,1.012,,0.6,0.4,0.6,0.4,0.2,0.8,0.8,0.2,1,0,,,,,,,,,,,,
,,666ee913519a8d810a4c38d9,66daf5ae64fec735e0a30d52,2024-09-06_14h30.16.701,mdp,2024.2.1,Win32,58.82352941,66d7945b1baad48e845df3ce,,,,,,,,,,,,,,,,,,,,,480.701,480.701,480.703,481.551,0,0,left,0.323,,481.551,482.852,1,1,right,482.852,482.852,,1,,0,482.852,482.852,482.853,484.354,0,35,35,35,1,0.6,0.4,0.2,0.8,,,,,,,,,,,,,,,0.779,,0.6,0.4,0.6,0.4,0.2,0.8,0.8,0.2,1,0,,,,,,,,,,,,
,,666ee913519a8d810a4c38d9,66daf5ae64fec735e0a30d52,2024-09-06_14h30.16.701,mdp,2024.2.1,Win32,58.82352941,66d7945b1baad48e845df3ce,,,,,,,,,,,,,,,,,,,,,484.354,484.354,484.354,484.987,0,1,left,0.105,,484.987,486.655,1,0,right,486.656,486.656,,1,,1,486.657,486.657,486.657,488.157,0,36,36,36,1,0.6,0.4,0.2,0.8,,,,,,,,,,,,,,,1.157,,0.6,0.4,0.6,0.4,0.2,0.8,0.8,0.2,1,0,,,,,,,,,,,,
,,666ee913519a8d810a4c38d9,66daf5ae64fec735e0a30d52,2024-09-06_14h30.16.701,mdp,2024.2.1,Win32,58.82352941,66d7945b1baad48e845df3ce,,,,,,,,,,,,,,,,,,,,,488.157,488.157,488.158,488.907,0,0,left,0.244,,488.908,489.775,0,0,left,489.775,489.775,,1,,1,489.775,489.775,489.776,491.276,0,37,37,37,1,0.6,0.4,0.2,0.8,,,,,,,,,,,,,,,0.36,,0.6,0.4,0.6,0.4,0.2,0.8,0.8,0.2,1,0,,,,,,,,,,,,
,,666ee913519a8d810a4c38d9,66daf5ae64fec735e0a30d52,2024-09-06_14h30.16.701,mdp,2024.2.1,Win32,58.82352941,66d7945b1baad48e845df3ce,,,,,,,,,,,,,,,,,,,,,491.277,491.277,491.277,492.177,0,1,left,0.385,,492.177,493.479,1,0,right,493.479,493.479,,0,,1,493.479,493.479,493.479,494.981,0,38,38,38,1,0.6,0.4,0.2,0.8,,,,,,,,,,,,,,,0.794,,0.8,0.2,0.8,0.2,0.2,0.8,0.8,0.2,1,0,,,,,,,,,,,,
,,666ee913519a8d810a4c38d9,66daf5ae64fec735e0a30d52,2024-09-06_14h30.16.701,mdp,2024.2.1,Win32,58.82352941,66d7945b1baad48e845df3ce,,,,,,,,,,,,,,,,,,,,,494.981,494.981,494.983,495.864,0,1,left,0.377,,495.864,497.249,1,0,right,497.249,497.25,,0,,1,497.25,497.25,497.25,498.75,0,39,39,39,1,0.6,0.4,0.2,0.8,,,,,,,,,,,,,,,0.869,,0.8,0.2,0.8,0.2,0.2,0.8,0.8,0.2,1,0,,,,,,,,,,,,
,,666ee913519a8d810a4c38d9,66daf5ae64fec735e0a30d52,2024-09-06_14h30.16.701,mdp,2024.2.1,Win32,58.82352941,66d7945b1baad48e845df3ce,,,,,,,,,,,,,,,,,,,,,498.75,498.75,498.75,499.484,0,0,left,0.217,,499.484,500.835,0,1,left,500.836,500.836,,0,,0,500.836,500.836,500.836,502.336,0,40,40,40,1,0.6,0.4,0.2,0.8,,,,,,,,,,,,,,,0.834,,0.8,0.2,0.8,0.2,0.2,0.8,0.8,0.2,1,0,,,,,,,,,,,,
,,666ee913519a8d810a4c38d9,66daf5ae64fec735e0a30d52,2024-09-06_14h30.16.701,mdp,2024.2.1,Win32,58.82352941,66d7945b1baad48e845df3ce,,,,,,,,,,,,,,,,,,,,,502.337,502.337,502.338,503.089,0,1,left,0.238,,503.09,504.923,0,1,left,504.924,504.924,,1,,0,504.924,504.924,504.924,506.424,0,41,41,41,1,0.6,0.4,0.2,0.8,,,,,,,,,,,,,,,1.305,,0.8,0.2,0.8,0.2,0.2,0.8,0.8,0.2,1,0,,,,,,,,,,,,
,,666ee913519a8d810a4c38d9,66daf5ae64fec735e0a30d52,2024-09-06_14h30.16.701,mdp,2024.2.1,Win32,58.82352941,66d7945b1baad48e845df3ce,,,,,,,,,,,,,,,,,,,,,506.424,506.424,506.424,507.208,0,1,left,0.267,,507.208,508.043,1,0,right,508.043,508.043,,0,,1,508.043,508.043,508.043,509.544,0,42,42,42,1,0.6,0.4,0.2,0.8,,,,,,,,,,,,,,,0.32,,0.8,0.2,0.8,0.2,0.2,0.8,0.8,0.2,1,0,,,,,,,,,,,,
,,666ee913519a8d810a4c38d9,66daf5ae64fec735e0a30d52,2024-09-06_14h30.16.701,mdp,2024.2.1,Win32,58.82352941,66d7945b1baad48e845df3ce,,,,,,,,,,,,,,,,,,,,,509.544,509.544,509.544,510.328,0,0,left,0.269,,510.33,511.129,1,1,right,511.131,511.132,,1,,0,511.132,511.132,511.133,512.63,0,43,43,43,1,0.6,0.4,0.2,0.8,,,,,,,,,,,,,,,0.276,,0.8,0.2,0.8,0.2,0.2,0.8,0.8,0.2,1,0,,,,,,,,,,,,
,,666ee913519a8d810a4c38d9,66daf5ae64fec735e0a30d52,2024-09-06_14h30.16.701,mdp,2024.2.1,Win32,58.82352941,66d7945b1baad48e845df3ce,,,,,,,,,,,,,,,,,,,,,512.63,512.63,512.63,513.364,0,0,left,0.22,,513.364,514.315,0,1,left,514.317,514.318,,1,,0,514.318,514.318,514.318,515.817,0,44,44,44,1,0.6,0.4,0.2,0.8,,,,,,,,,,,,,,,0.439,,0.8,0.2,0.8,0.2,0.2,0.8,0.8,0.2,1,0,,,,,,,,,,,,
,,666ee913519a8d810a4c38d9,66daf5ae64fec735e0a30d52,2024-09-06_14h30.16.701,mdp,2024.2.1,Win32,58.82352941,66d7945b1baad48e845df3ce,,,,,,,,,,,,,,,,,,,,,515.817,515.817,515.817,516.651,0,0,left,0.325,,516.652,518.319,1,0,right,518.319,518.319,,0,,1,518.319,518.319,518.32,519.82,0,45,45,45,1,0.6,0.4,0.2,0.8,,,,,,,,,,,,,,,1.163,,0.8,0.2,0.8,0.2,0.2,0.8,0.8,0.2,1,0,,,,,,,,,,,,
,,666ee913519a8d810a4c38d9,66daf5ae64fec735e0a30d52,2024-09-06_14h30.16.701,mdp,2024.2.1,Win32,58.82352941,66d7945b1baad48e845df3ce,,,,,,,,,,,,,,,,,,,,,519.82,519.82,519.821,520.621,0,0,left,0.288,,520.621,521.488,1,0,right,521.489,521.489,,1,,1,521.489,521.489,521.49,522.99,0,46,46,46,1,0.6,0.4,0.2,0.8,,,,,,,,,,,,,,,0.353,,0.8,0.2,0.8,0.2,0.2,0.8,0.8,0.2,1,0,,,,,,,,,,,,
,,666ee913519a8d810a4c38d9,66daf5ae64fec735e0a30d52,2024-09-06_14h30.16.701,mdp,2024.2.1,Win32,58.82352941,66d7945b1baad48e845df3ce,,,,,,,,,,,,,,,,,,,,,522.99,522.99,522.991,523.791,0,1,left,0.294,,523.791,524.608,1,0,right,524.609,524.609,,0,,1,524.609,524.609,524.609,526.109,0,47,47,47,1,0.6,0.4,0.2,0.8,,,,,,,,,,,,,,,0.298,,0.8,0.2,0.8,0.2,0.2,0.8,0.8,0.2,1,0,,,,,,,,,,,,
,,666ee913519a8d810a4c38d9,66daf5ae64fec735e0a30d52,2024-09-06_14h30.16.701,mdp,2024.2.1,Win32,58.82352941,66d7945b1baad48e845df3ce,,,,,,,,,,,,,,,,,,,,,526.11,526.11,526.11,526.728,0,0,left,0.107,,526.729,527.495,0,0,left,527.497,527.498,,0,,1,527.498,527.498,527.499,528.995,0,48,48,48,1,0.6,0.4,0.2,0.8,,,,,,,,,,,,,,,0.245,,0.8,0.2,0.8,0.2,0.2,0.8,0.8,0.2,1,0,,,,,,,,,,,,
,,666ee913519a8d810a4c38d9,66daf5ae64fec735e0a30d52,2024-09-06_14h30.16.701,mdp,2024.2.1,Win32,58.82352941,66d7945b1baad48e845df3ce,,,,,,,,,,,,,,,,,,,,,528.995,528.995,528.996,529.779,0,0,left,0.277,,529.78,530.73,0,0,left,530.731,530.731,,0,,1,530.731,530.731,530.731,532.232,0,49,49,49,1,0.6,0.4,0.2,0.8,,,,,,,,,,,,,,,0.445,,0.8,0.2,0.8,0.2,0.2,0.8,0.8,0.2,1,0,,,,,,,,,,,,
,,666ee913519a8d810a4c38d9,66daf5ae64fec735e0a30d52,2024-09-06_14h30.16.701,mdp,2024.2.1,Win32,58.82352941,66d7945b1baad48e845df3ce,,,,,,,,,,,,,,,,,,,,,,,,,,,,,,,,,,,,,,,,,,,,,,,,,,,,,,,,532.232,590.737,0,1,1,6,1,imgs/rabbit.png,imgs/cat.png,imgs/bear.png,imgs/goat.png,imgs/dog.png,,,,,,,,,,,,,,,,,,,,,,,,
,,666ee913519a8d810a4c38d9,66daf5ae64fec735e0a30d52,2024-09-06_14h30.16.701,mdp,2024.2.1,Win32,58.82352941,66d7945b1baad48e845df3ce,,,,,,,,,,,,,,3,seqs/st3seq19.csv,590.743,594.458,space,3.187,,594.461,594.461,594.461,596.043,0,0,left,1.044,,596.045,597.344,0,1,left,597.344,598.445,0,0,left,1,598.445,598.445,598.445,599.946,0,0,0,0,1,0.8,0.2,0.4,0.6,,,,,,,,,,,,,,,0.778,,0.4,0.6,0.6,0.4,0.8,0.2,0.4,0.6,,,0.579,,0.6,0.4,0.2,0.8,0.8,0.2,0.8,0.2,1,0
,,666ee913519a8d810a4c38d9,66daf5ae64fec735e0a30d52,2024-09-06_14h30.16.701,mdp,2024.2.1,Win32,58.82352941,66d7945b1baad48e845df3ce,,,,,,,,,,,,,,,,,,,,,599.946,599.946,599.947,601.086,0,0,left,0.622,,601.087,602.132,0,1,left,602.132,602.966,0,0,left,1,602.966,602.966,602.966,604.467,0,1,1,1,1,0.8,0.2,0.4,0.6,,,,,,,,,,,,,,,0.518,,0.4,0.6,0.6,0.4,0.8,0.2,0.4,0.6,,,0.319,,0.6,0.4,0.2,0.8,0.8,0.2,0.8,0.2,1,0
,,666ee913519a8d810a4c38d9,66daf5ae64fec735e0a30d52,2024-09-06_14h30.16.701,mdp,2024.2.1,Win32,58.82352941,66d7945b1baad48e845df3ce,,,,,,,,,,,,,,,,,,,,,604.468,604.468,604.468,605.385,0,0,left,0.403,,605.385,606.319,0,1,left,606.319,607.304,0,1,left,0,607.304,607.304,607.304,608.805,0,2,2,2,1,0.8,0.2,0.4,0.6,,,,,,,,,,,,,,,0.419,,0.4,0.6,0.6,0.4,0.8,0.2,0.4,0.6,,,0.466,,0.6,0.4,0.2,0.8,0.8,0.2,0.8,0.2,1,0
,,666ee913519a8d810a4c38d9,66daf5ae64fec735e0a30d52,2024-09-06_14h30.16.701,mdp,2024.2.1,Win32,58.82352941,66d7945b1baad48e845df3ce,,,,,,,,,,,,,,,,,,,,,608.805,608.805,608.805,609.639,0,1,left,0.316,,609.641,610.439,0,0,left,610.44,611.458,1,1,right,0,611.458,611.458,611.459,612.958,0,3,3,3,1,0.8,0.2,0.4,0.6,,,,,,,,,,,,,,,0.291,,0.4,0.6,0.6,0.4,0.8,0.2,0.4,0.6,,,0.512,,0.6,0.4,0.2,0.8,0.8,0.2,0.8,0.2,1,0
,,666ee913519a8d810a4c38d9,66daf5ae64fec735e0a30d52,2024-09-06_14h30.16.701,mdp,2024.2.1,Win32,58.82352941,66d7945b1baad48e845df3ce,,,,,,,,,,,,,,,,,,,,,612.959,612.959,612.96,613.743,0,0,left,0.274,,613.743,614.761,1,1,right,614.761,615.677,1,0,right,1,615.677,615.677,615.678,617.179,0,4,4,4,1,0.8,0.2,0.4,0.6,,,,,,,,,,,,,,,0.51,,0.4,0.6,0.6,0.4,0.8,0.2,0.4,0.6,,,0.408,,0.6,0.4,0.2,0.8,0.8,0.2,0.8,0.2,1,0
,,666ee913519a8d810a4c38d9,66daf5ae64fec735e0a30d52,2024-09-06_14h30.16.701,mdp,2024.2.1,Win32,58.82352941,66d7945b1baad48e845df3ce,,,,,,,,,,,,,,,,,,,,,617.179,617.179,617.179,618.015,0,0,left,0.322,,618.015,619.983,0,1,left,619.985,621.333,1,0,right,1,621.333,621.333,621.333,622.835,0,5,5,5,1,0.8,0.2,0.4,0.6,,,,,,,,,,,,,,,1.435,,0.4,0.6,0.6,0.4,0.8,0.2,0.4,0.6,,,0.819,,0.2,0.8,0.6,0.4,0.8,0.2,0.8,0.2,1,0
,,666ee913519a8d810a4c38d9,66daf5ae64fec735e0a30d52,2024-09-06_14h30.16.701,mdp,2024.2.1,Win32,58.82352941,66d7945b1baad48e845df3ce,,,,,,,,,,,,,,,,,,,,,622.835,622.835,622.836,623.652,0,0,left,0.308,,623.652,625.003,0,0,left,625.003,626.605,1,1,right,0,626.605,626.605,626.605,628.106,0,6,6,6,1,0.8,0.2,0.4,0.6,,,,,,,,,,,,,,,0.843,,0.4,0.6,0.6,0.4,0.8,0.2,0.4,0.6,,,1.084,,0.2,0.8,0.6,0.4,0.8,0.2,0.8,0.2,1,0
,,666ee913519a8d810a4c38d9,66daf5ae64fec735e0a30d52,2024-09-06_14h30.16.701,mdp,2024.2.1,Win32,58.82352941,66d7945b1baad48e845df3ce,,,,,,,,,,,,,,,,,,,,,628.106,628.106,628.107,628.707,0,0,left,0.083,,628.707,629.808,0,1,left,629.808,630.725,0,0,left,1,630.725,630.725,630.726,632.227,0,7,7,7,1,0.8,0.2,0.4,0.6,,,,,,,,,,,,,,,0.589,,0.4,0.6,0.6,0.4,0.8,0.2,0.4,0.6,,,0.403,,0.2,0.8,0.6,0.4,0.8,0.2,0.8,0.2,1,0
,,666ee913519a8d810a4c38d9,66daf5ae64fec735e0a30d52,2024-09-06_14h30.16.701,mdp,2024.2.1,Win32,58.82352941,66d7945b1baad48e845df3ce,,,,,,,,,,,,,,,,,,,,,632.227,632.227,632.228,632.978,0,0,left,0.235,,632.98,633.895,0,1,left,633.896,634.896,1,0,right,1,634.896,634.896,634.896,636.398,0,8,8,8,1,0.8,0.2,0.4,0.6,,,,,,,,,,,,,,,0.413,,0.4,0.6,0.6,0.4,0.8,0.2,0.4,0.6,,,0.49,,0.2,0.8,0.6,0.4,0.8,0.2,0.8,0.2,1,0
,,666ee913519a8d810a4c38d9,66daf5ae64fec735e0a30d52,2024-09-06_14h30.16.701,mdp,2024.2.1,Win32,58.82352941,66d7945b1baad48e845df3ce,,,,,,,,,,,,,,,,,,,,,636.398,636.398,636.398,637.231,0,0,left,0.328,,637.233,638.082,0,1,left,638.083,638.833,1,0,right,1,638.833,638.833,638.834,640.334,0,9,9,9,1,0.8,0.2,0.4,0.6,,,,,,,,,,,,,,,0.342,,0.4,0.6,0.6,0.4,0.8,0.2,0.4,0.6,,,0.244,,0.2,0.8,0.6,0.4,0.8,0.2,0.8,0.2,1,0
,,666ee913519a8d810a4c38d9,66daf5ae64fec735e0a30d52,2024-09-06_14h30.16.701,mdp,2024.2.1,Win32,58.82352941,66d7945b1baad48e845df3ce,,,,,,,,,,,,,,,,,,,,,640.335,640.335,640.335,641.136,1,1,right,0.283,,641.136,641.903,1,1,right,641.903,642.57,1,0,right,1,642.57,642.57,642.57,644.071,0,10,10,10,1,0.8,0.2,0.4,0.6,,,,,,,,,,,,,,,0.244,,0.4,0.6,0.6,0.4,0.4,0.6,0.6,0.4,,,0.158,,0.2,0.8,0.6,0.4,0.8,0.2,0.8,0.2,1,0
,,666ee913519a8d810a4c38d9,66daf5ae64fec735e0a30d52,2024-09-06_14h30.16.701,mdp,2024.2.1,Win32,58.82352941,66d7945b1baad48e845df3ce,,,,,,,,,,,,,,,,,,,,,644.071,644.071,644.072,644.839,1,0,right,0.261,,644.84,645.573,1,1,right,645.573,646.273,0,0,left,1,646.273,646.273,646.274,647.775,0,11,11,11,1,0.8,0.2,0.4,0.6,,,,,,,,,,,,,,,0.216,,0.4,0.6,0.6,0.4,0.4,0.6,0.6,0.4,,,0.184,,0.2,0.8,0.6,0.4,0.8,0.2,0.8,0.2,1,0
,,666ee913519a8d810a4c38d9,66daf5ae64fec735e0a30d52,2024-09-06_14h30.16.701,mdp,2024.2.1,Win32,58.82352941,66d7945b1baad48e845df3ce,,,,,,,,,,,,,,,,,,,,,647.775,647.775,647.776,648.91,1,0,right,0.623,,648.911,649.778,0,0,left,649.779,650.579,1,0,right,1,650.579,650.579,650.579,652.079,0,12,12,12,1,0.8,0.2,0.4,0.6,,,,,,,,,,,,,,,0.342,,0.4,0.6,0.6,0.4,0.4,0.6,0.6,0.4,,,0.268,,0.2,0.8,0.6,0.4,0.2,0.8,0.4,0.6,1,0
,,666ee913519a8d810a4c38d9,66daf5ae64fec735e0a30d52,2024-09-06_14h30.16.701,mdp,2024.2.1,Win32,58.82352941,66d7945b1baad48e845df3ce,,,,,,,,,,,,,,,,,,,,,652.08,652.08,652.082,652.647,1,1,right,0.044,,652.647,653.364,0,0,left,653.364,654.098,0,1,left,0,654.098,654.098,654.098,655.599,0,13,13,13,1,0.8,0.2,0.4,0.6,,,,,,,,,,,,,,,0.209,,0.4,0.6,0.6,0.4,0.4,0.6,0.6,0.4,,,0.221,,0.2,0.8,0.6,0.4,0.2,0.8,0.4,0.6,1,0
,,666ee913519a8d810a4c38d9,66daf5ae64fec735e0a30d52,2024-09-06_14h30.16.701,mdp,2024.2.1,Win32,58.82352941,66d7945b1baad48e845df3ce,,,,,,,,,,,,,,,,,,,,,655.6,655.6,655.6,656.216,1,1,right,0.107,,656.217,656.917,0,0,left,656.918,657.501,1,1,right,0,657.501,657.501,657.501,659.002,0,14,14,14,1,0.8,0.2,0.4,0.6,,,,,,,,,,,,,,,0.194,,0.4,0.6,0.6,0.4,0.4,0.6,0.6,0.4,,,0.078,,0.2,0.8,0.6,0.4,0.2,0.8,0.4,0.6,1,0
,,666ee913519a8d810a4c38d9,66daf5ae64fec735e0a30d52,2024-09-06_14h30.16.701,mdp,2024.2.1,Win32,58.82352941,66d7945b1baad48e845df3ce,,,,,,,,,,,,,,,,,,,,,659.002,659.002,659.003,659.72,1,1,right,0.208,,659.72,660.386,1,0,right,660.387,661.037,0,1,left,0,661.037,661.037,661.038,662.539,0,15,15,15,1,0.8,0.2,0.4,0.6,,,,,,,,,,,,,,,0.15,,0.4,0.6,0.6,0.4,0.4,0.6,0.6,0.4,,,0.139,,0.2,0.8,0.6,0.4,0.2,0.8,0.4,0.6,1,0
,,666ee913519a8d810a4c38d9,66daf5ae64fec735e0a30d52,2024-09-06_14h30.16.701,mdp,2024.2.1,Win32,58.82352941,66d7945b1baad48e845df3ce,,,,,,,,,,,,,,,,,,,,,662.539,662.539,662.539,663.09,1,1,right,0.035,,663.09,663.64,1,0,right,663.64,664.19,1,0,right,1,664.19,664.19,664.19,665.692,0,16,16,16,1,0.8,0.2,0.4,0.6,,,,,,,,,,,,,,,0.04,,0.4,0.6,0.6,0.4,0.2,0.8,0.8,0.2,,,0.034,,0.2,0.8,0.6,0.4,0.2,0.8,0.4,0.6,1,0
,,666ee913519a8d810a4c38d9,66daf5ae64fec735e0a30d52,2024-09-06_14h30.16.701,mdp,2024.2.1,Win32,58.82352941,66d7945b1baad48e845df3ce,,,,,,,,,,,,,,,,,,,,,665.692,665.692,665.693,666.96,0,0,left,0.751,,666.96,668.061,0,1,left,668.061,668.862,0,0,left,1,668.862,668.862,668.862,670.363,0,17,17,17,1,0.8,0.2,0.4,0.6,,,,,,,,,,,,,,,0.594,,0.4,0.6,0.6,0.4,0.2,0.8,0.8,0.2,,,0.284,,0.2,0.8,0.6,0.4,0.2,0.8,0.4,0.6,1,0
,,666ee913519a8d810a4c38d9,66daf5ae64fec735e0a30d52,2024-09-06_14h30.16.701,mdp,2024.2.1,Win32,58.82352941,66d7945b1baad48e845df3ce,,,,,,,,,,,,,,,,,,,,,670.363,670.363,670.363,671.063,0,1,left,0.183,,671.064,672.048,1,1,right,672.05,672.849,1,1,right,0,672.849,672.849,672.849,674.35,0,18,18,18,1,0.4,0.6,0.8,0.2,,,,,,,,,,,,,,,0.473,,0.4,0.6,0.6,0.4,0.2,0.8,0.8,0.2,,,0.284,,0.2,0.8,0.6,0.4,0.2,0.8,0.4,0.6,1,0
,,666ee913519a8d810a4c38d9,66daf5ae64fec735e0a30d52,2024-09-06_14h30.16.701,mdp,2024.2.1,Win32,58.82352941,66d7945b1baad48e845df3ce,,,,,,,,,,,,,,,,,,,,,674.35,674.35,674.351,675.151,0,1,left,0.29,,675.152,675.869,1,1,right,675.869,676.468,0,1,left,0,676.468,676.468,676.469,677.97,0,19,19,19,1,0.4,0.6,0.8,0.2,,,,,,,,,,,,,,,0.2,,0.4,0.6,0.6,0.4,0.4,0.6,0.4,0.6,,,0.067,,0.2,0.8,0.6,0.4,0.2,0.8,0.4,0.6,1,0
,,666ee913519a8d810a4c38d9,66daf5ae64fec735e0a30d52,2024-09-06_14h30.16.701,mdp,2024.2.1,Win32,58.82352941,66d7945b1baad48e845df3ce,,,,,,,,,,,,,,,,,,,,,677.97,677.97,677.97,678.57,0,1,left,0.086,,678.571,680.689,1,0,right,680.69,681.49,1,0,right,1,681.49,681.49,681.49,682.992,0,20,20,20,1,0.4,0.6,0.8,0.2,,,,,,,,,,,,,,,1.601,,0.4,0.6,0.6,0.4,0.6,0.4,0.8,0.2,,,0.279,,0.2,0.8,0.6,0.4,0.2,0.8,0.4,0.6,1,0
,,666ee913519a8d810a4c38d9,66daf5ae64fec735e0a30d52,2024-09-06_14h30.16.701,mdp,2024.2.1,Win32,58.82352941,66d7945b1baad48e845df3ce,,,,,,,,,,,,,,,,,,,,,682.992,682.992,682.992,683.643,1,0,right,0.138,,683.643,684.326,0,1,left,684.326,684.96,0,1,left,0,684.96,684.96,684.961,686.461,0,21,21,21,1,0.4,0.6,0.8,0.2,,,,,,,,,,,,,,,0.15,,0.4,0.6,0.6,0.4,0.6,0.4,0.8,0.2,,,0.118,,0.2,0.8,0.6,0.4,0.2,0.8,0.4,0.6,1,0
,,666ee913519a8d810a4c38d9,66daf5ae64fec735e0a30d52,2024-09-06_14h30.16.701,mdp,2024.2.1,Win32,58.82352941,66d7945b1baad48e845df3ce,,,,,,,,,,,,,,,,,,,,,686.461,686.461,686.462,688.096,1,0,right,1.116,,688.096,688.981,0,0,left,688.981,689.615,1,0,right,1,689.615,689.615,689.615,691.116,0,22,22,22,1,0.4,0.6,0.8,0.2,,,,,,,,,,,,,,,0.367,,0.4,0.6,0.6,0.4,0.6,0.4,0.8,0.2,,,0.124,,0.2,0.8,0.6,0.4,0.2,0.8,0.4,0.6,1,0
,,666ee913519a8d810a4c38d9,66daf5ae64fec735e0a30d52,2024-09-06_14h30.16.701,mdp,2024.2.1,Win32,58.82352941,66d7945b1baad48e845df3ce,,,,,,,,,,,,,,,,,,,,,691.116,691.116,691.116,692.05,1,0,right,0.419,,692.05,692.701,1,1,right,692.701,693.351,0,0,left,1,693.351,693.351,693.351,694.853,0,23,23,23,1,0.4,0.6,0.8,0.2,,,,,,,,,,,,,,,0.137,,0.4,0.6,0.6,0.4,0.6,0.4,0.8,0.2,,,0.141,,0.2,0.8,0.6,0.4,0.2,0.8,0.4,0.6,1,0
,,666ee913519a8d810a4c38d9,66daf5ae64fec735e0a30d52,2024-09-06_14h30.16.701,mdp,2024.2.1,Win32,58.82352941,66d7945b1baad48e845df3ce,,,,,,,,,,,,,,,,,,,,,694.853,694.853,694.853,695.487,1,0,right,0.127,,695.487,696.121,1,0,right,696.121,696.738,1,0,right,1,696.738,696.738,696.738,698.24,0,24,24,24,1,0.4,0.6,0.8,0.2,,,,,,,,,,,,,,,0.117,,0.4,0.6,0.6,0.4,0.6,0.4,0.8,0.2,,,0.111,,0.2,0.8,0.6,0.4,0.2,0.8,0.4,0.6,1,0
,,666ee913519a8d810a4c38d9,66daf5ae64fec735e0a30d52,2024-09-06_14h30.16.701,mdp,2024.2.1,Win32,58.82352941,66d7945b1baad48e845df3ce,,,,,,,,,,,,,,,,,,,,,698.24,698.24,698.24,699.074,0,1,left,0.306,,699.074,699.741,0,0,left,699.741,700.309,0,1,left,0,700.309,700.309,700.31,701.81,0,25,25,25,1,0.2,0.8,0.4,0.6,,,,,,,,,,,,,,,0.149,,0.4,0.6,0.6,0.4,0.6,0.4,0.8,0.2,,,0.058,,0.2,0.8,0.6,0.4,0.2,0.8,0.4,0.6,1,0
,,666ee913519a8d810a4c38d9,66daf5ae64fec735e0a30d52,2024-09-06_14h30.16.701,mdp,2024.2.1,Win32,58.82352941,66d7945b1baad48e845df3ce,,,,,,,,,,,,,,,,,,,,,701.81,701.81,701.81,702.56,1,1,right,0.224,,702.561,703.211,0,0,left,703.212,703.794,0,0,left,1,703.794,703.794,703.795,705.296,0,26,26,26,1,0.2,0.8,0.4,0.6,,,,,,,,,,,,,,,0.135,,0.4,0.6,0.6,0.4,0.6,0.4,0.8,0.2,,,0.077,,0.2,0.8,0.6,0.4,0.2,0.8,0.4,0.6,1,0
,,666ee913519a8d810a4c38d9,66daf5ae64fec735e0a30d52,2024-09-06_14h30.16.701,mdp,2024.2.1,Win32,58.82352941,66d7945b1baad48e845df3ce,,,,,,,,,,,,,,,,,,,,,705.296,705.296,705.297,705.947,1,1,right,0.135,,705.948,706.514,0,0,left,706.514,707.081,1,1,right,0,707.081,707.081,707.081,708.583,0,27,27,27,1,0.2,0.8,0.4,0.6,,,,,,,,,,,,,,,0.06,,0.4,0.6,0.6,0.4,0.6,0.4,0.8,0.2,,,0.06,,0.2,0.8,0.6,0.4,0.2,0.8,0.4,0.6,1,0
,,666ee913519a8d810a4c38d9,66daf5ae64fec735e0a30d52,2024-09-06_14h30.16.701,mdp,2024.2.1,Win32,58.82352941,66d7945b1baad48e845df3ce,,,,,,,,,,,,,,,,,,,,,708.583,708.583,708.583,709.117,1,1,right,0.027,,709.117,709.783,1,0,right,709.784,710.418,1,1,right,0,710.418,710.418,710.42,711.919,0,28,28,28,1,0.2,0.8,0.4,0.6,,,,,,,,,,,,,,,0.152,,0.4,0.6,0.6,0.4,0.6,0.4,0.8,0.2,,,0.119,,0.2,0.8,0.6,0.4,0.2,0.8,0.4,0.6,1,0
,,666ee913519a8d810a4c38d9,66daf5ae64fec735e0a30d52,2024-09-06_14h30.16.701,mdp,2024.2.1,Win32,58.82352941,66d7945b1baad48e845df3ce,,,,,,,,,,,,,,,,,,,,,711.919,711.919,711.92,712.719,0,1,left,0.285,,712.72,713.338,0,1,left,713.339,713.854,0,1,left,0,713.855,713.855,713.856,715.356,0,29,29,29,1,0.2,0.8,0.4,0.6,,,,,,,,,,,,,,,0.108,,0.4,0.6,0.6,0.4,0.6,0.4,0.8,0.2,,,0.002,,0.2,0.8,0.6,0.4,0.2,0.8,0.4,0.6,1,0
,,666ee913519a8d810a4c38d9,66daf5ae64fec735e0a30d52,2024-09-06_14h30.16.701,mdp,2024.2.1,Win32,58.82352941,66d7945b1baad48e845df3ce,,,,,,,,,,,,,,,,,,,,,715.356,715.356,715.356,716.006,0,1,left,0.133,,716.007,716.64,1,0,right,716.641,717.24,1,0,right,1,717.24,717.24,717.241,718.742,0,30,30,30,1,0.2,0.8,0.4,0.6,,,,,,,,,,,,,,,0.118,,0.4,0.6,0.6,0.4,0.6,0.4,0.8,0.2,,,0.087,,0.2,0.8,0.6,0.4,0.2,0.8,0.4,0.6,1,0
,,666ee913519a8d810a4c38d9,66daf5ae64fec735e0a30d52,2024-09-06_14h30.16.701,mdp,2024.2.1,Win32,58.82352941,66d7945b1baad48e845df3ce,,,,,,,,,,,,,,,,,,,,,718.742,718.742,718.743,719.327,0,1,left,0.071,,719.328,719.96,0,0,left,719.96,720.594,0,1,left,0,720.594,720.594,720.594,722.096,0,31,31,31,1,0.2,0.8,0.4,0.6,,,,,,,,,,,,,,,0.1,,0.4,0.6,0.6,0.4,0.6,0.4,0.8,0.2,,,0.127,,0.2,0.8,0.6,0.4,0.2,0.8,0.4,0.6,1,0
,,666ee913519a8d810a4c38d9,66daf5ae64fec735e0a30d52,2024-09-06_14h30.16.701,mdp,2024.2.1,Win32,58.82352941,66d7945b1baad48e845df3ce,,,,,,,,,,,,,,,,,,,,,722.096,722.096,722.096,722.997,1,0,right,0.378,,722.997,723.58,0,1,left,723.581,724.147,1,1,right,0,724.147,724.147,724.148,725.649,0,32,32,32,1,0.2,0.8,0.4,0.6,,,,,,,,,,,,,,,0.067,,0.4,0.6,0.6,0.4,0.8,0.2,0.6,0.4,,,0.054,,0.2,0.8,0.6,0.4,0.2,0.8,0.4,0.6,1,0
,,666ee913519a8d810a4c38d9,66daf5ae64fec735e0a30d52,2024-09-06_14h30.16.701,mdp,2024.2.1,Win32,58.82352941,66d7945b1baad48e845df3ce,,,,,,,,,,,,,,,,,,,,,725.65,725.65,725.652,726.584,1,1,right,0.407,,726.585,727.2,0,1,left,727.2,727.767,0,0,left,1,727.768,727.768,727.768,729.269,0,33,33,33,1,0.2,0.8,0.4,0.6,,,,,,,,,,,,,,,0.085,,0.4,0.6,0.6,0.4,0.8,0.2,0.6,0.4,,,0.061,,0.2,0.8,0.6,0.4,0.2,0.8,0.4,0.6,1,0
,,666ee913519a8d810a4c38d9,66daf5ae64fec735e0a30d52,2024-09-06_14h30.16.701,mdp,2024.2.1,Win32,58.82352941,66d7945b1baad48e845df3ce,,,,,,,,,,,,,,,,,,,,,729.269,729.269,729.269,730.137,1,0,right,0.351,,730.137,730.737,1,0,right,730.737,731.337,1,0,right,1,731.337,731.337,731.337,732.839,0,34,34,34,1,0.2,0.8,0.4,0.6,,,,,,,,,,,,,,,0.093,,0.4,0.6,0.6,0.4,0.8,0.2,0.6,0.4,,,0.092,,0.2,0.8,0.6,0.4,0.2,0.8,0.4,0.6,1,0
,,666ee913519a8d810a4c38d9,66daf5ae64fec735e0a30d52,2024-09-06_14h30.16.701,mdp,2024.2.1,Win32,58.82352941,66d7945b1baad48e845df3ce,,,,,,,,,,,,,,,,,,,,,732.839,732.839,732.839,733.389,1,0,right,0.034,,733.39,733.923,1,0,right,733.924,734.44,1,0,right,1,734.44,734.44,734.44,735.941,0,35,35,35,1,0.2,0.8,0.4,0.6,,,,,,,,,,,,,,,0.018,,0.4,0.6,0.6,0.4,0.8,0.2,0.6,0.4,,,0.005,,0.2,0.8,0.6,0.4,0.2,0.8,0.4,0.6,1,0
,,666ee913519a8d810a4c38d9,66daf5ae64fec735e0a30d52,2024-09-06_14h30.16.701,mdp,2024.2.1,Win32,58.82352941,66d7945b1baad48e845df3ce,,,,,,,,,,,,,,,,,,,,,735.942,735.942,735.943,737.026,0,0,left,0.567,,737.026,737.66,0,1,left,737.661,738.244,0,1,left,0,738.244,738.244,738.244,739.746,0,36,36,36,1,0.2,0.8,0.4,0.6,,,,,,,,,,,,,,,0.116,,0.4,0.6,0.6,0.4,0.8,0.2,0.6,0.4,,,0.07,,0.2,0.8,0.6,0.4,0.2,0.8,0.4,0.6,1,0
,,666ee913519a8d810a4c38d9,66daf5ae64fec735e0a30d52,2024-09-06_14h30.16.701,mdp,2024.2.1,Win32,58.82352941,66d7945b1baad48e845df3ce,,,,,,,,,,,,,,,,,,,,,739.746,739.746,739.746,740.58,1,1,right,0.301,,740.58,741.246,1,0,right,741.247,741.848,1,0,right,1,741.848,741.848,741.85,743.348,0,37,37,37,1,0.2,0.8,0.4,0.6,,,,,,,,,,,,,,,0.14,,0.4,0.6,0.6,0.4,0.8,0.2,0.6,0.4,,,0.083,,0.2,0.8,0.6,0.4,0.2,0.8,0.4,0.6,1,0
,,666ee913519a8d810a4c38d9,66daf5ae64fec735e0a30d52,2024-09-06_14h30.16.701,mdp,2024.2.1,Win32,58.82352941,66d7945b1baad48e845df3ce,,,,,,,,,,,,,,,,,,,,,743.349,743.349,743.349,744.034,1,1,right,0.17,,744.035,744.65,1,1,right,744.65,745.267,1,1,right,0,745.267,745.267,745.267,746.769,0,38,38,38,1,0.2,0.8,0.4,0.6,,,,,,,,,,,,,,,0.086,,0.4,0.6,0.6,0.4,0.8,0.2,0.6,0.4,,,0.1,,0.2,0.8,0.6,0.4,0.2,0.8,0.4,0.6,1,0
,,666ee913519a8d810a4c38d9,66daf5ae64fec735e0a30d52,2024-09-06_14h30.16.701,mdp,2024.2.1,Win32,58.82352941,66d7945b1baad48e845df3ce,,,,,,,,,,,,,,,,,,,,,746.769,746.769,746.769,747.352,1,0,right,0.076,,747.353,747.92,1,1,right,747.921,748.487,1,0,right,1,748.487,748.487,748.488,749.988,0,39,39,39,1,0.2,0.8,0.4,0.6,,,,,,,,,,,,,,,0.057,,0.4,0.6,0.6,0.4,0.8,0.2,0.6,0.4,,,0.058,,0.2,0.8,0.6,0.4,0.2,0.8,0.4,0.6,1,0
,,666ee913519a8d810a4c38d9,66daf5ae64fec735e0a30d52,2024-09-06_14h30.16.701,mdp,2024.2.1,Win32,58.82352941,66d7945b1baad48e845df3ce,,,,,,,,,,,,,,,,,,,,,749.988,749.988,749.989,750.789,1,1,right,0.291,,750.789,751.424,1,0,right,751.426,752.041,0,1,left,0,752.041,752.041,752.042,753.542,0,40,40,40,1,0.2,0.8,0.4,0.6,,,,,,,,,,,,,,,0.123,,0.4,0.6,0.6,0.4,0.8,0.2,0.6,0.4,,,0.101,,0.2,0.8,0.6,0.4,0.2,0.8,0.4,0.6,1,0
,,666ee913519a8d810a4c38d9,66daf5ae64fec735e0a30d52,2024-09-06_14h30.16.701,mdp,2024.2.1,Win32,58.82352941,66d7945b1baad48e845df3ce,,,,,,,,,,,,,,,,,,,,,753.542,753.542,753.542,754.409,1,1,right,0.355,,754.41,754.977,1,0,right,754.977,755.577,1,0,right,1,755.577,755.577,755.578,757.079,0,41,41,41,1,0.2,0.8,0.4,0.6,,,,,,,,,,,,,,,0.054,,0.4,0.6,0.6,0.4,0.8,0.2,0.6,0.4,,,0.068,,0.2,0.8,0.6,0.4,0.2,0.8,0.4,0.6,1,0
,,666ee913519a8d810a4c38d9,66daf5ae64fec735e0a30d52,2024-09-06_14h30.16.701,mdp,2024.2.1,Win32,58.82352941,66d7945b1baad48e845df3ce,,,,,,,,,,,,,,,,,,,,,757.079,757.079,757.079,757.679,1,1,right,0.083,,757.679,758.33,0,0,left,758.33,758.947,1,0,right,1,758.947,758.947,758.947,760.449,0,42,42,42,1,0.2,0.8,0.4,0.6,,,,,,,,,,,,,,,0.144,,0.4,0.6,0.6,0.4,0.8,0.2,0.6,0.4,,,0.1,,0.4,0.6,0.8,0.2,0.2,0.8,0.4,0.6,1,0
,,666ee913519a8d810a4c38d9,66daf5ae64fec735e0a30d52,2024-09-06_14h30.16.701,mdp,2024.2.1,Win32,58.82352941,66d7945b1baad48e845df3ce,,,,,,,,,,,,,,,,,,,,,760.449,760.449,760.452,761.516,1,1,right,0.552,,761.516,762.217,1,0,right,762.218,762.784,0,1,left,0,762.784,762.784,762.784,764.285,0,43,43,43,1,0.2,0.8,0.4,0.6,,,,,,,,,,,,,,,0.187,,0.4,0.6,0.6,0.4,0.8,0.2,0.6,0.4,,,0.054,,0.4,0.6,0.8,0.2,0.2,0.8,0.4,0.6,1,0
,,666ee913519a8d810a4c38d9,66daf5ae64fec735e0a30d52,2024-09-06_14h30.16.701,mdp,2024.2.1,Win32,58.82352941,66d7945b1baad48e845df3ce,,,,,,,,,,,,,,,,,,,,,764.285,764.285,764.286,765.203,1,0,right,0.401,,765.203,765.82,1,0,right,765.821,766.404,1,0,right,1,766.404,766.404,766.405,767.905,0,44,44,44,1,0.2,0.8,0.4,0.6,,,,,,,,,,,,,,,0.107,,0.4,0.6,0.6,0.4,0.8,0.2,0.6,0.4,,,0.072,,0.4,0.6,0.8,0.2,0.2,0.8,0.4,0.6,1,0
,,666ee913519a8d810a4c38d9,66daf5ae64fec735e0a30d52,2024-09-06_14h30.16.701,mdp,2024.2.1,Win32,58.82352941,66d7945b1baad48e845df3ce,,,,,,,,,,,,,,,,,,,,,767.905,767.905,767.906,768.973,1,1,right,0.555,,768.973,770.641,0,0,left,770.641,771.893,0,1,left,0,771.893,771.894,771.895,773.394,0,45,45,45,1,0.2,0.8,0.4,0.6,,,,,,,,,,,,,,,1.151,,0.4,0.6,0.6,0.4,0.8,0.2,0.6,0.4,,,0.735,,0.4,0.6,0.8,0.2,0.2,0.8,0.4,0.6,1,0
,,666ee913519a8d810a4c38d9,66daf5ae64fec735e0a30d52,2024-09-06_14h30.16.701,mdp,2024.2.1,Win32,58.82352941,66d7945b1baad48e845df3ce,,,,,,,,,,,,,,,,,,,,,773.394,773.394,773.394,774.111,0,1,left,0.206,,774.112,774.712,1,1,right,774.712,775.295,1,0,right,1,775.295,775.295,775.296,776.798,0,46,46,46,1,0.2,0.8,0.4,0.6,,,,,,,,,,,,,,,0.093,,0.4,0.6,0.6,0.4,0.8,0.2,0.6,0.4,,,0.076,,0.4,0.6,0.8,0.2,0.2,0.8,0.4,0.6,1,0
,,666ee913519a8d810a4c38d9,66daf5ae64fec735e0a30d52,2024-09-06_14h30.16.701,mdp,2024.2.1,Win32,58.82352941,66d7945b1baad48e845df3ce,,,,,,,,,,,,,,,,,,,,,776.798,776.798,776.798,777.681,0,1,left,0.375,,777.682,778.416,1,1,right,778.416,779.084,0,1,left,0,779.084,779.084,779.085,780.584,0,47,47,47,1,0.2,0.8,0.4,0.6,,,,,,,,,,,,,,,0.219,,0.4,0.6,0.6,0.4,0.8,0.2,0.6,0.4,,,0.152,,0.4,0.6,0.8,0.2,0.2,0.8,0.4,0.6,1,0
,,666ee913519a8d810a4c38d9,66daf5ae64fec735e0a30d52,2024-09-06_14h30.16.701,mdp,2024.2.1,Win32,58.82352941,66d7945b1baad48e845df3ce,,,,,,,,,,,,,,,,,,,,,780.584,780.584,780.584,781.287,0,1,left,0.193,,781.287,781.852,0,0,left,781.852,782.386,0,0,left,1,782.386,782.386,782.386,783.887,0,48,48,48,1,0.2,0.8,0.4,0.6,,,,,,,,,,,,,,,0.034,,0.4,0.6,0.6,0.4,0.8,0.2,0.6,0.4,,,0.018,,0.4,0.6,0.8,0.2,0.2,0.8,0.4,0.6,1,0
,,666ee913519a8d810a4c38d9,66daf5ae64fec735e0a30d52,2024-09-06_14h30.16.701,mdp,2024.2.1,Win32,58.82352941,66d7945b1baad48e845df3ce,,,,,,,,,,,,,,,,,,,,,783.887,783.887,783.888,784.871,0,1,left,0.474,,784.872,785.422,0,0,left,785.422,786.023,0,0,left,1,786.023,786.023,786.023,787.524,0,49,49,49,1,0.2,0.8,0.4,0.6,,,,,,,,,,,,,,,0.041,,0.4,0.6,0.6,0.4,0.8,0.2,0.6,0.4,,,0.083,,0.4,0.6,0.8,0.2,0.2,0.8,0.4,0.6,1,0
,,666ee913519a8d810a4c38d9,66daf5ae64fec735e0a30d52,2024-09-06_14h30.16.701,mdp,2024.2.1,Win32,58.82352941,66d7945b1baad48e845df3ce,,,,,,,,,,,,,,,,,,,,,,,,,,,,,,,,,,,,,,,,,,,,,,,,,,,,,,,,787.524,846.029,0,2,2,8,1,imgs/elephant.png,imgs/dog.png,imgs/goat.png,imgs/lion.png,imgs/pig.png,,,,,,,,,,,,,,,,,,,,,,,,
,,666ee913519a8d810a4c38d9,66daf5ae64fec735e0a30d52,2024-09-06_14h30.16.701,mdp,2024.2.1,Win32,58.82352941,66d7945b1baad48e845df3ce,,,,,,,,,,,,,,3,seqs/st3seq35.csv,846.035,848.131,space,1.576,,848.134,848.134,848.134,849.382,0,1,left,0.724,,849.383,850.017,0,0,left,850.017,850.583,0,0,left,1,850.584,850.584,850.585,852.085,0,0,0,0,1,0.2,0.8,0.6,0.4,,,,,,,,,,,,,,,0.099,,0.8,0.2,0.4,0.6,0.8,0.2,0.8,0.2,,,0.061,,0.4,0.6,0.8,0.2,0.4,0.6,0.4,0.6,1,0
,,666ee913519a8d810a4c38d9,66daf5ae64fec735e0a30d52,2024-09-06_14h30.16.701,mdp,2024.2.1,Win32,58.82352941,66d7945b1baad48e845df3ce,,,,,,,,,,,,,,,,,,,,,852.085,852.085,852.086,852.702,0,1,left,0.11,,852.703,853.303,0,1,left,853.304,853.871,0,1,left,0,853.871,853.871,853.871,855.371,0,1,1,1,1,0.2,0.8,0.6,0.4,,,,,,,,,,,,,,,0.083,,0.8,0.2,0.4,0.6,0.8,0.2,0.8,0.2,,,0.053,,0.4,0.6,0.8,0.2,0.4,0.6,0.4,0.6,1,0
,,666ee913519a8d810a4c38d9,66daf5ae64fec735e0a30d52,2024-09-06_14h30.16.701,mdp,2024.2.1,Win32,58.82352941,66d7945b1baad48e845df3ce,,,,,,,,,,,,,,,,,,,,,855.371,855.371,855.372,856.239,0,0,left,0.352,,856.24,856.823,0,0,left,856.823,857.457,0,1,left,0,857.457,857.457,857.457,858.959,0,2,2,2,1,0.2,0.8,0.6,0.4,,,,,,,,,,,,,,,0.066,,0.8,0.2,0.4,0.6,0.8,0.2,0.8,0.2,,,0.125,,0.4,0.6,0.8,0.2,0.4,0.6,0.4,0.6,1,0
,,666ee913519a8d810a4c38d9,66daf5ae64fec735e0a30d52,2024-09-06_14h30.16.701,mdp,2024.2.1,Win32,58.82352941,66d7945b1baad48e845df3ce,,,,,,,,,,,,,,,,,,,,,858.959,858.959,858.959,859.626,0,1,left,0.15,,859.626,860.177,0,0,left,860.178,860.71,0,1,left,0,860.71,860.71,860.71,862.212,0,3,3,3,1,0.2,0.8,0.6,0.4,,,,,,,,,,,,,,,0.038,,0.8,0.2,0.4,0.6,0.8,0.2,0.8,0.2,,,0,,0.4,0.6,0.8,0.2,0.4,0.6,0.4,0.6,1,0
,,666ee913519a8d810a4c38d9,66daf5ae64fec735e0a30d52,2024-09-06_14h30.16.701,mdp,2024.2.1,Win32,58.82352941,66d7945b1baad48e845df3ce,,,,,,,,,,,,,,,,,,,,,862.212,862.212,862.212,862.929,0,1,left,0.207,,862.931,863.446,0,0,left,863.447,863.981,0,0,left,1,863.981,863.981,863.982,865.482,0,4,4,4,1,0.2,0.8,0.6,0.4,,,,,,,,,,,,,,,0.003,,0.8,0.2,0.4,0.6,0.8,0.2,0.8,0.2,,,0.017,,0.4,0.6,0.8,0.2,0.4,0.6,0.4,0.6,1,0
,,666ee913519a8d810a4c38d9,66daf5ae64fec735e0a30d52,2024-09-06_14h30.16.701,mdp,2024.2.1,Win32,58.82352941,66d7945b1baad48e845df3ce,,,,,,,,,,,,,,,,,,,,,865.482,865.482,865.482,866.332,0,1,left,0.337,,866.332,866.882,0,0,left,866.883,867.851,1,0,right,1,867.851,867.851,867.851,869.351,0,5,5,5,1,0.2,0.8,0.6,0.4,,,,,,,,,,,,,,,0.038,,0.8,0.2,0.4,0.6,0.8,0.2,0.8,0.2,,,0.455,,0.4,0.6,0.8,0.2,0.4,0.6,0.4,0.6,1,0
,,666ee913519a8d810a4c38d9,66daf5ae64fec735e0a30d52,2024-09-06_14h30.16.701,mdp,2024.2.1,Win32,58.82352941,66d7945b1baad48e845df3ce,,,,,,,,,,,,,,,,,,,,,869.351,869.351,869.352,870.637,0,1,left,0.769,,870.637,871.37,1,0,right,871.37,871.987,0,0,left,1,871.987,871.987,871.987,873.489,0,6,6,6,1,0.2,0.8,0.6,0.4,,,,,,,,,,,,,,,0.222,,0.8,0.2,0.4,0.6,0.8,0.2,0.8,0.2,,,0.101,,0.6,0.4,0.4,0.6,0.4,0.6,0.4,0.6,1,0
,,666ee913519a8d810a4c38d9,66daf5ae64fec735e0a30d52,2024-09-06_14h30.16.701,mdp,2024.2.1,Win32,58.82352941,66d7945b1baad48e845df3ce,,,,,,,,,,,,,,,,,,,,,873.489,873.489,873.49,874.073,0,0,left,0.077,,874.075,874.857,1,1,right,874.857,875.507,1,0,right,1,875.507,875.507,875.508,877.009,0,7,7,7,1,0.2,0.8,0.6,0.4,,,,,,,,,,,,,,,0.26,,0.6,0.4,0.2,0.8,0.8,0.2,0.8,0.2,,,0.141,,0.6,0.4,0.4,0.6,0.4,0.6,0.4,0.6,1,0
,,666ee913519a8d810a4c38d9,66daf5ae64fec735e0a30d52,2024-09-06_14h30.16.701,mdp,2024.2.1,Win32,58.82352941,66d7945b1baad48e845df3ce,,,,,,,,,,,,,,,,,,,,,877.009,877.009,877.009,877.643,0,1,left,0.121,,877.643,878.494,0,0,left,878.494,879.178,1,1,right,0,879.178,879.178,879.178,880.679,0,8,8,8,1,0.2,0.8,0.6,0.4,,,,,,,,,,,,,,,0.334,,0.6,0.4,0.2,0.8,0.8,0.2,0.8,0.2,,,0.168,,0.6,0.4,0.4,0.6,0.4,0.6,0.4,0.6,1,0
,,666ee913519a8d810a4c38d9,66daf5ae64fec735e0a30d52,2024-09-06_14h30.16.701,mdp,2024.2.1,Win32,58.82352941,66d7945b1baad48e845df3ce,,,,,,,,,,,,,,,,,,,,,880.679,880.679,880.679,881.48,0,0,left,0.293,,881.48,882.097,1,1,right,882.098,882.648,0,0,left,1,882.648,882.648,882.648,884.149,0,9,9,9,1,0.2,0.8,0.6,0.4,,,,,,,,,,,,,,,0.11,,0.6,0.4,0.2,0.8,0.8,0.2,0.8,0.2,,,0.033,,0.6,0.4,0.4,0.6,0.4,0.6,0.4,0.6,1,0
,,666ee913519a8d810a4c38d9,66daf5ae64fec735e0a30d52,2024-09-06_14h30.16.701,mdp,2024.2.1,Win32,58.82352941,66d7945b1baad48e845df3ce,,,,,,,,,,,,,,,,,,,,,884.149,884.149,884.149,884.733,0,1,left,0.076,,884.733,885.35,0,0,left,885.353,885.934,0,0,left,1,885.934,885.934,885.934,887.436,0,10,10,10,1,0.2,0.8,0.6,0.4,,,,,,,,,,,,,,,0.105,,0.6,0.4,0.2,0.8,0.8,0.2,0.8,0.2,,,0.074,,0.6,0.4,0.4,0.6,0.4,0.6,0.4,0.6,1,0
,,666ee913519a8d810a4c38d9,66daf5ae64fec735e0a30d52,2024-09-06_14h30.16.701,mdp,2024.2.1,Win32,58.82352941,66d7945b1baad48e845df3ce,,,,,,,,,,,,,,,,,,,,,887.436,887.436,887.436,887.986,1,1,right,0.033,,887.986,888.537,1,0,right,888.537,889.103,1,1,right,0,889.103,889.103,889.104,890.606,0,11,11,11,1,0.2,0.8,0.6,0.4,,,,,,,,,,,,,,,0.034,,0.6,0.4,0.2,0.8,0.8,0.2,0.8,0.2,,,0.058,,0.6,0.4,0.4,0.6,0.4,0.6,0.4,0.6,1,0
,,666ee913519a8d810a4c38d9,66daf5ae64fec735e0a30d52,2024-09-06_14h30.16.701,mdp,2024.2.1,Win32,58.82352941,66d7945b1baad48e845df3ce,,,,,,,,,,,,,,,,,,,,,890.606,890.606,890.607,891.155,1,0,right,0.019,,891.156,891.706,1,0,right,891.707,892.223,0,1,left,0,892.223,892.223,892.224,893.725,0,12,12,12,1,0.2,0.8,0.6,0.4,,,,,,,,,,,,,,,0.032,,0.6,0.4,0.2,0.8,0.8,0.2,0.8,0.2,,,0,,0.6,0.4,0.4,0.6,0.4,0.6,0.4,0.6,1,0
,,666ee913519a8d810a4c38d9,66daf5ae64fec735e0a30d52,2024-09-06_14h30.16.701,mdp,2024.2.1,Win32,58.82352941,66d7945b1baad48e845df3ce,,,,,,,,,,,,,,,,,,,,,893.725,893.725,893.726,894.759,0,1,left,0.518,,894.76,895.76,1,1,right,895.761,896.343,1,1,right,0,896.343,896.343,896.344,897.845,0,13,13,13,1,0.2,0.8,0.6,0.4,,,,,,,,,,,,,,,0.49,,0.6,0.4,0.2,0.8,0.8,0.2,0.8,0.2,,,0.066,,0.6,0.4,0.4,0.6,0.4,0.6,0.4,0.6,1,0
,,666ee913519a8d810a4c38d9,66daf5ae64fec735e0a30d52,2024-09-06_14h30.16.701,mdp,2024.2.1,Win32,58.82352941,66d7945b1baad48e845df3ce,,,,,,,,,,,,,,,,,,,,,897.846,897.846,897.846,898.546,0,1,left,0.188,,898.547,899.181,1,0,right,899.182,899.747,0,1,left,0,899.747,899.747,899.748,901.249,0,14,14,14,1,0.2,0.8,0.6,0.4,,,,,,,,,,,,,,,0.117,,0.6,0.4,0.2,0.8,0.8,0.2,0.8,0.2,,,0.035,,0.6,0.4,0.4,0.6,0.4,0.6,0.4,0.6,1,0
,,666ee913519a8d810a4c38d9,66daf5ae64fec735e0a30d52,2024-09-06_14h30.16.701,mdp,2024.2.1,Win32,58.82352941,66d7945b1baad48e845df3ce,,,,,,,,,,,,,,,,,,,,,901.249,901.249,901.249,902.116,1,0,right,0.353,,902.117,902.867,1,1,right,902.867,903.501,1,1,right,0,903.501,903.501,903.501,905.002,0,15,15,15,1,0.2,0.8,0.6,0.4,,,,,,,,,,,,,,,0.233,,0.6,0.4,0.2,0.8,0.8,0.2,0.8,0.2,,,0.123,,0.6,0.4,0.4,0.6,0.4,0.6,0.4,0.6,1,0
,,666ee913519a8d810a4c38d9,66daf5ae64fec735e0a30d52,2024-09-06_14h30.16.701,mdp,2024.2.1,Win32,58.82352941,66d7945b1baad48e845df3ce,,,,,,,,,,,,,,,,,,,,,905.002,905.002,905.002,906.186,1,0,right,0.675,,906.187,906.904,0,1,left,906.905,907.504,1,0,right,1,907.504,907.504,907.504,909.006,0,16,16,16,1,0.2,0.8,0.6,0.4,,,,,,,,,,,,,,,0.204,,0.6,0.4,0.2,0.8,0.8,0.2,0.8,0.2,,,0.088,,0.6,0.4,0.4,0.6,0.8,0.2,0.8,0.2,1,0
,,666ee913519a8d810a4c38d9,66daf5ae64fec735e0a30d52,2024-09-06_14h30.16.701,mdp,2024.2.1,Win32,58.82352941,66d7945b1baad48e845df3ce,,,,,,,,,,,,,,,,,,,,,909.006,909.006,909.006,909.573,1,0,right,0.053,,909.574,910.257,0,0,left,910.257,910.907,0,0,left,1,910.907,910.907,910.908,912.409,0,17,17,17,1,0.2,0.8,0.6,0.4,,,,,,,,,,,,,,,0.167,,0.6,0.4,0.2,0.8,0.8,0.2,0.8,0.2,,,0.135,,0.4,0.6,0.8,0.2,0.8,0.2,0.8,0.2,1,0
,,666ee913519a8d810a4c38d9,66daf5ae64fec735e0a30d52,2024-09-06_14h30.16.701,mdp,2024.2.1,Win32,58.82352941,66d7945b1baad48e845df3ce,,,,,,,,,,,,,,,,,,,,,912.409,912.409,912.41,913.126,1,0,right,0.201,,913.127,914.228,0,1,left,914.228,914.944,0,1,left,0,914.944,914.944,914.945,916.446,0,18,18,18,1,0.2,0.8,0.6,0.4,,,,,,,,,,,,,,,0.592,,0.6,0.4,0.2,0.8,0.8,0.2,0.8,0.2,,,0.21,,0.4,0.6,0.8,0.2,0.8,0.2,0.8,0.2,1,0
,,666ee913519a8d810a4c38d9,66daf5ae64fec735e0a30d52,2024-09-06_14h30.16.701,mdp,2024.2.1,Win32,58.82352941,66d7945b1baad48e845df3ce,,,,,,,,,,,,,,,,,,,,,916.446,916.446,916.446,917.315,1,0,right,0.351,,917.316,918.015,0,0,left,918.017,918.749,1,0,right,1,918.749,918.749,918.749,920.25,0,19,19,19,1,0.2,0.8,0.6,0.4,,,,,,,,,,,,,,,0.169,,0.6,0.4,0.2,0.8,0.8,0.2,0.8,0.2,,,0.216,,0.4,0.6,0.8,0.2,0.8,0.2,0.8,0.2,1,0
,,666ee913519a8d810a4c38d9,66daf5ae64fec735e0a30d52,2024-09-06_14h30.16.701,mdp,2024.2.1,Win32,58.82352941,66d7945b1baad48e845df3ce,,,,,,,,,,,,,,,,,,,,,920.25,920.25,920.251,921.117,1,0,right,0.361,,921.118,921.885,1,1,right,921.887,922.652,1,0,right,1,922.652,922.652,922.653,924.153,0,20,20,20,1,0.2,0.8,0.6,0.4,,,,,,,,,,,,,,,0.255,,0.6,0.4,0.2,0.8,0.8,0.2,0.8,0.2,,,0.246,,0.4,0.6,0.8,0.2,0.8,0.2,0.8,0.2,1,0
,,666ee913519a8d810a4c38d9,66daf5ae64fec735e0a30d52,2024-09-06_14h30.16.701,mdp,2024.2.1,Win32,58.82352941,66d7945b1baad48e845df3ce,,,,,,,,,,,,,,,,,,,,,924.153,924.153,924.154,925.288,1,1,right,0.617,,925.288,925.955,0,0,left,925.956,926.64,0,0,left,1,926.64,926.64,926.64,928.14,0,21,21,21,1,0.2,0.8,0.6,0.4,,,,,,,,,,,,,,,0.161,,0.6,0.4,0.2,0.8,0.8,0.2,0.8,0.2,,,0.167,,0.4,0.6,0.8,0.2,0.8,0.2,0.8,0.2,1,0
,,666ee913519a8d810a4c38d9,66daf5ae64fec735e0a30d52,2024-09-06_14h30.16.701,mdp,2024.2.1,Win32,58.82352941,66d7945b1baad48e845df3ce,,,,,,,,,,,,,,,,,,,,,928.141,928.141,928.141,928.775,1,0,right,0.117,,928.775,929.408,0,0,left,929.409,930.076,1,1,right,0,930.076,930.076,930.078,931.577,0,22,22,22,1,0.2,0.8,0.6,0.4,,,,,,,,,,,,,,,0.118,,0.6,0.4,0.2,0.8,0.8,0.2,0.8,0.2,,,0.155,,0.6,0.4,0.4,0.6,0.8,0.2,0.8,0.2,1,0
,,666ee913519a8d810a4c38d9,66daf5ae64fec735e0a30d52,2024-09-06_14h30.16.701,mdp,2024.2.1,Win32,58.82352941,66d7945b1baad48e845df3ce,,,,,,,,,,,,,,,,,,,,,931.577,931.577,931.577,932.394,0,1,left,0.3,,932.395,933.012,1,0,right,933.013,933.646,0,0,left,1,933.646,933.646,933.647,935.147,0,23,23,23,1,0.2,0.8,0.6,0.4,,,,,,,,,,,,,,,0.105,,0.6,0.4,0.2,0.8,0.8,0.2,0.8,0.2,,,0.12,,0.6,0.4,0.4,0.6,0.8,0.2,0.8,0.2,1,0
,,666ee913519a8d810a4c38d9,66daf5ae64fec735e0a30d52,2024-09-06_14h30.16.701,mdp,2024.2.1,Win32,58.82352941,66d7945b1baad48e845df3ce,,,,,,,,,,,,,,,,,,,,,935.148,935.148,935.148,935.915,0,1,left,0.252,,935.916,936.532,1,0,right,936.532,937.15,1,1,right,0,937.15,937.15,937.15,938.651,0,24,24,24,1,0.2,0.8,0.6,0.4,,,,,,,,,,,,,,,0.1,,0.6,0.4,0.2,0.8,0.8,0.2,0.8,0.2,,,0.1,,0.6,0.4,0.4,0.6,0.8,0.2,0.8,0.2,1,0
,,666ee913519a8d810a4c38d9,66daf5ae64fec735e0a30d52,2024-09-06_14h30.16.701,mdp,2024.2.1,Win32,58.82352941,66d7945b1baad48e845df3ce,,,,,,,,,,,,,,,,,,,,,938.651,938.651,938.652,940.236,0,1,left,1.067,,940.238,941.453,0,0,left,941.454,942.271,1,0,right,1,942.271,942.271,942.274,943.773,0,25,25,25,1,0.2,0.8,0.6,0.4,,,,,,,,,,,,,,,0.702,,0.6,0.4,0.2,0.8,0.8,0.2,0.8,0.2,,,0.306,,0.6,0.4,0.4,0.6,0.8,0.2,0.8,0.2,1,0
,,666ee913519a8d810a4c38d9,66daf5ae64fec735e0a30d52,2024-09-06_14h30.16.701,mdp,2024.2.1,Win32,58.82352941,66d7945b1baad48e845df3ce,,,,,,,,,,,,,,,,,,,,,943.773,943.773,943.773,944.69,0,1,left,0.409,,944.691,945.442,0,1,left,945.442,946.092,1,0,right,1,946.092,946.092,946.093,947.593,0,26,26,26,1,0.2,0.8,0.6,0.4,,,,,,,,,,,,,,,0.237,,0.6,0.4,0.2,0.8,0.8,0.2,0.8,0.2,,,0.119,,0.6,0.4,0.4,0.6,0.8,0.2,0.8,0.2,1,0
,,666ee913519a8d810a4c38d9,66daf5ae64fec735e0a30d52,2024-09-06_14h30.16.701,mdp,2024.2.1,Win32,58.82352941,66d7945b1baad48e845df3ce,,,,,,,,,,,,,,,,,,,,,947.593,947.593,947.593,948.193,0,0,left,0.071,,948.194,948.91,0,1,left,948.91,949.561,0,0,left,1,949.561,949.562,949.564,951.062,0,27,27,27,1,0.2,0.8,0.6,0.4,,,,,,,,,,,,,,,0.208,,0.6,0.4,0.2,0.8,0.8,0.2,0.8,0.2,,,0.135,,0.6,0.4,0.4,0.6,0.8,0.2,0.8,0.2,1,0
,,666ee913519a8d810a4c38d9,66daf5ae64fec735e0a30d52,2024-09-06_14h30.16.701,mdp,2024.2.1,Win32,58.82352941,66d7945b1baad48e845df3ce,,,,,,,,,,,,,,,,,,,,,951.062,951.062,951.063,952.297,0,1,left,0.725,,952.299,952.98,0,0,left,952.981,954.031,0,0,left,1,954.031,954.031,954.032,955.534,0,28,28,28,1,0.2,0.8,0.6,0.4,,,,,,,,,,,,,,,0.176,,0.6,0.4,0.2,0.8,0.8,0.2,0.8,0.2,,,0.534,,0.6,0.4,0.4,0.6,0.8,0.2,0.8,0.2,1,0
,,666ee913519a8d810a4c38d9,66daf5ae64fec735e0a30d52,2024-09-06_14h30.16.701,mdp,2024.2.1,Win32,58.82352941,66d7945b1baad48e845df3ce,,,,,,,,,,,,,,,,,,,,,955.534,955.534,955.534,956.05,0,1,left,0,,956.051,956.685,1,0,right,956.685,957.235,0,1,left,0,957.235,957.235,957.236,958.737,0,29,29,29,1,0.2,0.8,0.6,0.4,,,,,,,,,,,,,,,0.117,,0.6,0.4,0.2,0.8,0.8,0.2,0.8,0.2,,,0.035,,0.6,0.4,0.4,0.6,0.8,0.2,0.8,0.2,1,0
,,666ee913519a8d810a4c38d9,66daf5ae64fec735e0a30d52,2024-09-06_14h30.16.701,mdp,2024.2.1,Win32,58.82352941,66d7945b1baad48e845df3ce,,,,,,,,,,,,,,,,,,,,,958.737,958.737,958.739,959.454,0,1,left,0.206,,959.454,960.105,0,0,left,960.105,960.788,0,1,left,0,960.788,960.788,960.789,962.289,0,30,30,30,1,0.2,0.8,0.6,0.4,,,,,,,,,,,,,,,0.145,,0.2,0.8,0.8,0.2,0.8,0.2,0.8,0.2,,,0.175,,0.6,0.4,0.4,0.6,0.8,0.2,0.8,0.2,1,0
,,666ee913519a8d810a4c38d9,66daf5ae64fec735e0a30d52,2024-09-06_14h30.16.701,mdp,2024.2.1,Win32,58.82352941,66d7945b1baad48e845df3ce,,,,,,,,,,,,,,,,,,,,,962.29,962.29,962.291,963.207,0,1,left,0.4,,963.207,963.941,1,0,right,963.942,964.643,1,0,right,1,964.643,964.643,964.644,966.144,0,31,31,31,1,0.2,0.8,0.6,0.4,,,,,,,,,,,,,,,0.229,,0.2,0.8,0.8,0.2,0.8,0.2,0.8,0.2,,,0.187,,0.6,0.4,0.4,0.6,0.8,0.2,0.8,0.2,1,0
,,666ee913519a8d810a4c38d9,66daf5ae64fec735e0a30d52,2024-09-06_14h30.16.701,mdp,2024.2.1,Win32,58.82352941,66d7945b1baad48e845df3ce,,,,,,,,,,,,,,,,,,,,,966.144,966.144,966.144,966.728,0,0,left,0.069,,966.73,967.261,1,0,right,967.261,967.912,0,0,left,1,967.912,967.912,967.913,969.413,0,32,32,32,1,0.2,0.8,0.6,0.4,,,,,,,,,,,,,,,0.014,,0.2,0.8,0.8,0.2,0.8,0.2,0.8,0.2,,,0.134,,0.6,0.4,0.4,0.6,0.6,0.4,0.6,0.4,1,0
,,666ee913519a8d810a4c38d9,66daf5ae64fec735e0a30d52,2024-09-06_14h30.16.701,mdp,2024.2.1,Win32,58.82352941,66d7945b1baad48e845df3ce,,,,,,,,,,,,,,,,,,,,,969.413,969.413,969.413,970.08,0,1,left,0.151,,970.08,970.648,0,0,left,970.648,971.182,0,1,left,0,971.182,971.182,971.182,972.683,0,33,33,33,1,0.2,0.8,0.6,0.4,,,,,,,,,,,,,,,0.05,,0.2,0.8,0.8,0.2,0.8,0.2,0.8,0.2,,,0.022,,0.6,0.4,0.4,0.6,0.6,0.4,0.6,0.4,1,0
,,666ee913519a8d810a4c38d9,66daf5ae64fec735e0a30d52,2024-09-06_14h30.16.701,mdp,2024.2.1,Win32,58.82352941,66d7945b1baad48e845df3ce,,,,,,,,,,,,,,,,,,,,,972.683,972.683,972.684,973.351,0,1,left,0.15,,973.352,973.885,0,0,left,973.885,974.568,0,1,left,0,974.568,974.568,974.568,976.07,0,34,34,34,1,0.2,0.8,0.6,0.4,,,,,,,,,,,,,,,0.02,,0.2,0.8,0.8,0.2,0.8,0.2,0.8,0.2,,,0.16,,0.6,0.4,0.4,0.6,0.6,0.4,0.6,0.4,1,0
,,666ee913519a8d810a4c38d9,66daf5ae64fec735e0a30d52,2024-09-06_14h30.16.701,mdp,2024.2.1,Win32,58.82352941,66d7945b1baad48e845df3ce,,,,,,,,,,,,,,,,,,,,,976.07,976.07,976.072,976.687,0,0,left,0.093,,976.687,977.254,0,1,left,977.254,977.821,0,1,left,0,977.821,977.821,977.822,979.323,0,35,35,35,1,0.2,0.8,0.6,0.4,,,,,,,,,,,,,,,0.053,,0.2,0.8,0.8,0.2,0.8,0.2,0.8,0.2,,,0.049,,0.6,0.4,0.4,0.6,0.6,0.4,0.6,0.4,1,0
,,666ee913519a8d810a4c38d9,66daf5ae64fec735e0a30d52,2024-09-06_14h30.16.701,mdp,2024.2.1,Win32,58.82352941,66d7945b1baad48e845df3ce,,,,,,,,,,,,,,,,,,,,,979.323,979.323,979.324,980.424,1,0,right,0.588,,980.425,981.159,0,1,left,981.16,981.891,1,0,right,1,981.891,981.891,981.892,983.393,0,36,36,36,1,0.2,0.8,0.6,0.4,,,,,,,,,,,,,,,0.222,,0.2,0.8,0.8,0.2,0.8,0.2,0.8,0.2,,,0.204,,0.6,0.4,0.4,0.6,0.6,0.4,0.6,0.4,1,0
,,666ee913519a8d810a4c38d9,66daf5ae64fec735e0a30d52,2024-09-06_14h30.16.701,mdp,2024.2.1,Win32,58.82352941,66d7945b1baad48e845df3ce,,,,,,,,,,,,,,,,,,,,,983.393,983.393,983.394,984.278,1,1,right,0.369,,984.28,984.945,0,0,left,984.945,985.579,0,1,left,0,985.579,985.579,985.581,987.08,0,37,37,37,1,0.2,0.8,0.6,0.4,,,,,,,,,,,,,,,0.154,,0.2,0.8,0.8,0.2,0.8,0.2,0.8,0.2,,,0.122,,0.6,0.4,0.4,0.6,0.6,0.4,0.6,0.4,1,0
,,666ee913519a8d810a4c38d9,66daf5ae64fec735e0a30d52,2024-09-06_14h30.16.701,mdp,2024.2.1,Win32,58.82352941,66d7945b1baad48e845df3ce,,,,,,,,,,,,,,,,,,,,,987.08,987.08,987.08,987.698,1,0,right,0.102,,987.7,988.332,0,1,left,988.333,988.932,0,1,left,0,988.932,988.932,988.932,990.433,0,38,38,38,1,0.2,0.8,0.6,0.4,,,,,,,,,,,,,,,0.11,,0.2,0.8,0.8,0.2,0.8,0.2,0.8,0.2,,,0.071,,0.6,0.4,0.4,0.6,0.6,0.4,0.6,0.4,1,0
,,666ee913519a8d810a4c38d9,66daf5ae64fec735e0a30d52,2024-09-06_14h30.16.701,mdp,2024.2.1,Win32,58.82352941,66d7945b1baad48e845df3ce,,,,,,,,,,,,,,,,,,,,,990.433,990.433,990.433,991.384,0,1,left,0.434,,991.387,992.101,1,0,right,992.101,992.686,0,0,left,1,992.686,992.686,992.686,994.186,0,39,39,39,1,0.2,0.8,0.6,0.4,,,,,,,,,,,,,,,0.212,,0.2,0.8,0.8,0.2,0.8,0.2,0.8,0.2,,,0.061,,0.6,0.4,0.4,0.6,0.6,0.4,0.6,0.4,1,0
,,666ee913519a8d810a4c38d9,66daf5ae64fec735e0a30d52,2024-09-06_14h30.16.701,mdp,2024.2.1,Win32,58.82352941,66d7945b1baad48e845df3ce,,,,,,,,,,,,,,,,,,,,,994.187,994.187,994.187,994.787,0,1,left,0.084,,994.788,995.438,0,0,left,995.438,996.039,0,0,left,1,996.039,996.039,996.039,997.54,0,40,40,40,1,0.2,0.8,0.6,0.4,,,,,,,,,,,,,,,0.137,,0.2,0.8,0.8,0.2,0.8,0.2,0.8,0.2,,,0.09,,0.6,0.4,0.4,0.6,0.6,0.4,0.6,0.4,1,0
,,666ee913519a8d810a4c38d9,66daf5ae64fec735e0a30d52,2024-09-06_14h30.16.701,mdp,2024.2.1,Win32,58.82352941,66d7945b1baad48e845df3ce,,,,,,,,,,,,,,,,,,,,,997.54,997.54,997.541,998.407,0,1,left,0.35,,998.408,999.091,0,0,left,999.091,999.742,0,0,left,1,999.742,999.743,999.743,1001.243,0,41,41,41,1,0.2,0.8,0.6,0.4,,,,,,,,,,,,,,,0.177,,0.4,0.6,0.6,0.4,0.8,0.2,0.8,0.2,,,0.143,,0.6,0.4,0.4,0.6,0.6,0.4,0.6,0.4,1,0
,,666ee913519a8d810a4c38d9,66daf5ae64fec735e0a30d52,2024-09-06_14h30.16.701,mdp,2024.2.1,Win32,58.82352941,66d7945b1baad48e845df3ce,,,,,,,,,,,,,,,,,,,,,1001.243,1001.243,1001.244,1002.112,0,1,left,0.353,,1002.113,1002.795,1,0,right,1002.795,1003.395,0,0,left,1,1003.395,1003.395,1003.396,1004.897,0,42,42,42,1,0.2,0.8,0.6,0.4,,,,,,,,,,,,,,,0.154,,0.4,0.6,0.6,0.4,0.8,0.2,0.8,0.2,,,0.094,,0.6,0.4,0.4,0.6,0.6,0.4,0.6,0.4,1,0
,,666ee913519a8d810a4c38d9,66daf5ae64fec735e0a30d52,2024-09-06_14h30.16.701,mdp,2024.2.1,Win32,58.82352941,66d7945b1baad48e845df3ce,,,,,,,,,,,,,,,,,,,,,1004.897,1004.898,1004.899,1005.564,1,1,right,0.141,,1005.565,1006.182,0,1,left,1006.182,1006.799,0,0,left,1,1006.799,1006.799,1006.799,1008.3,0,43,43,43,1,0.2,0.8,0.6,0.4,,,,,,,,,,,,,,,0.111,,0.4,0.6,0.6,0.4,0.8,0.2,0.8,0.2,,,0.1,,0.6,0.4,0.4,0.6,0.6,0.4,0.6,0.4,1,0
,,666ee913519a8d810a4c38d9,66daf5ae64fec735e0a30d52,2024-09-06_14h30.16.701,mdp,2024.2.1,Win32,58.82352941,66d7945b1baad48e845df3ce,,,,,,,,,,,,,,,,,,,,,1008.302,1008.302,1008.303,1009.418,1,1,right,0.584,,1009.418,1010.169,0,0,left,1010.169,1010.852,0,0,left,1,1010.852,1010.852,1010.852,1012.354,0,44,44,44,1,0.2,0.8,0.6,0.4,,,,,,,,,,,,,,,0.234,,0.4,0.6,0.6,0.4,0.8,0.2,0.8,0.2,,,0.175,,0.6,0.4,0.4,0.6,0.6,0.4,0.6,0.4,1,0
,,666ee913519a8d810a4c38d9,66daf5ae64fec735e0a30d52,2024-09-06_14h30.16.701,mdp,2024.2.1,Win32,58.82352941,66d7945b1baad48e845df3ce,,,,,,,,,,,,,,,,,,,,,1012.354,1012.354,1012.355,1013.054,1,1,right,0.191,,1013.055,1013.739,0,0,left,1013.741,1014.424,1,1,right,0,1014.424,1014.424,1014.425,1015.924,0,45,45,45,1,0.2,0.8,0.6,0.4,,,,,,,,,,,,,,,0.171,,0.4,0.6,0.6,0.4,0.8,0.2,0.8,0.2,,,0.152,,0.6,0.4,0.4,0.6,0.6,0.4,0.6,0.4,1,0
,,666ee913519a8d810a4c38d9,66daf5ae64fec735e0a30d52,2024-09-06_14h30.16.701,mdp,2024.2.1,Win32,58.82352941,66d7945b1baad48e845df3ce,,,,,,,,,,,,,,,,,,,,,1015.924,1015.924,1015.924,1017.042,1,1,right,0.6,,1017.042,1017.643,0,0,left,1017.645,1018.259,0,0,left,1,1018.259,1018.259,1018.26,1019.76,0,46,46,46,1,0.2,0.8,0.6,0.4,,,,,,,,,,,,,,,0.085,,0.4,0.6,0.6,0.4,0.8,0.2,0.8,0.2,,,0.088,,0.6,0.4,0.4,0.6,0.6,0.4,0.6,0.4,1,0
,,666ee913519a8d810a4c38d9,66daf5ae64fec735e0a30d52,2024-09-06_14h30.16.701,mdp,2024.2.1,Win32,58.82352941,66d7945b1baad48e845df3ce,,,,,,,,,,,,,,,,,,,,,1019.761,1019.761,1019.762,1020.661,0,1,left,0.388,,1020.662,1021.396,0,1,left,1021.396,1022.03,0,1,left,0,1022.03,1022.03,1022.031,1023.531,0,47,47,47,1,0.2,0.8,0.6,0.4,,,,,,,,,,,,,,,0.23,,0.4,0.6,0.6,0.4,0.8,0.2,0.8,0.2,,,0.113,,0.8,0.2,0.2,0.8,0.6,0.4,0.6,0.4,1,0
,,666ee913519a8d810a4c38d9,66daf5ae64fec735e0a30d52,2024-09-06_14h30.16.701,mdp,2024.2.1,Win32,58.82352941,66d7945b1baad48e845df3ce,,,,,,,,,,,,,,,,,,,,,1023.531,1023.531,1023.531,1024.282,0,1,left,0.236,,1024.282,1024.866,0,0,left,1024.866,1025.45,0,0,left,1,1025.451,1025.451,1025.452,1026.951,0,48,48,48,1,0.2,0.8,0.6,0.4,,,,,,,,,,,,,,,0.075,,0.4,0.6,0.6,0.4,0.8,0.2,0.8,0.2,,,0.07,,0.8,0.2,0.2,0.8,0.6,0.4,0.6,0.4,1,0
,,666ee913519a8d810a4c38d9,66daf5ae64fec735e0a30d52,2024-09-06_14h30.16.701,mdp,2024.2.1,Win32,58.82352941,66d7945b1baad48e845df3ce,,,,,,,,,,,,,,,,,,,,,1026.951,1026.951,1026.952,1028.252,1,0,right,0.791,,1028.253,1028.853,0,0,left,1028.854,1029.503,0,0,left,1,1029.503,1029.503,1029.504,1031.005,0,49,49,49,1,0.2,0.8,0.6,0.4,,,,,,,,,,,,,,,0.087,,0.4,0.6,0.6,0.4,0.8,0.2,0.8,0.2,,,0.134,,0.8,0.2,0.2,0.8,0.6,0.4,0.6,0.4,1,0
,,666ee913519a8d810a4c38d9,66daf5ae64fec735e0a30d52,2024-09-06_14h30.16.701,mdp,2024.2.1,Win32,58.82352941,66d7945b1baad48e845df3ce,,,,,,,,,,,,,,,,,,,,,,,,,,,,,,,,,,,,,,,,,,,,,,,,,,,,,,,,1031.005,1089.51,0,3,3,3,1,imgs/goat.png,imgs/lion.png,imgs/giraffe.png,imgs/dog.png,imgs/bear.png,,,,,,,,,,,,,,,,,,,,,,,,
,,666ee913519a8d810a4c38d9,66daf5ae64fec735e0a30d52,2024-09-06_14h30.16.701,mdp,2024.2.1,Win32,58.82352941,66d7945b1baad48e845df3ce,,,,,,,,,,,,,,1,seqs/st1seq8.csv,1089.516,1092.213,space,2.176,,1092.219,1092.219,1092.22,1093.098,0,0,left,0.351,,1093.099,1093.1,0,0,,1093.102,1093.102,0,1,,1,1093.102,1093.102,1093.102,1094.598,0,0,0,0,1,0.8,0.2,0.8,0.2,1,0,,,,,,,,,,,,,,,,,,,,,,,,,,,,,,,,,,,,
,,666ee913519a8d810a4c38d9,66daf5ae64fec735e0a30d52,2024-09-06_14h30.16.701,mdp,2024.2.1,Win32,58.82352941,66d7945b1baad48e845df3ce,,,,,,,,,,,,,,,,,,,,,1094.598,1094.598,1094.599,1095.85,0,0,left,0.738,,1095.852,1095.853,0,0,,1095.854,1095.855,0,0,,1,1095.855,1095.855,1095.856,1097.351,0,1,1,1,1,0.8,0.2,0.8,0.2,1,0,,,,,,,,,,,,,,,,,,,,,,,,,,,,,,,,,,,,
,,666ee913519a8d810a4c38d9,66daf5ae64fec735e0a30d52,2024-09-06_14h30.16.701,mdp,2024.2.1,Win32,58.82352941,66d7945b1baad48e845df3ce,,,,,,,,,,,,,,,,,,,,,1097.351,1097.351,1097.351,1098.319,0,0,left,0.46,,1098.321,1098.322,0,0,,1098.324,1098.324,0,0,,1,1098.324,1098.324,1098.324,1099.821,0,2,2,2,1,0.8,0.2,0.8,0.2,1,0,,,,,,,,,,,,,,,,,,,,,,,,,,,,,,,,,,,,
,,666ee913519a8d810a4c38d9,66daf5ae64fec735e0a30d52,2024-09-06_14h30.16.701,mdp,2024.2.1,Win32,58.82352941,66d7945b1baad48e845df3ce,,,,,,,,,,,,,,,,,,,,,1099.821,1099.821,1099.821,1101.039,0,0,left,0.706,,1101.04,1101.041,0,0,,1101.043,1101.043,0,0,,1,1101.043,1101.043,1101.044,1102.54,0,3,3,3,1,0.8,0.2,0.8,0.2,1,0,,,,,,,,,,,,,,,,,,,,,,,,,,,,,,,,,,,,
,,666ee913519a8d810a4c38d9,66daf5ae64fec735e0a30d52,2024-09-06_14h30.16.701,mdp,2024.2.1,Win32,58.82352941,66d7945b1baad48e845df3ce,,,,,,,,,,,,,,,,,,,,,1102.54,1102.54,1102.54,1103.958,0,0,left,0.911,,1103.958,1103.958,0,0,,1103.959,1103.959,0,0,,1,1103.959,1103.959,1103.959,1105.459,0,4,4,4,1,0.8,0.2,0.8,0.2,1,0,,,,,,,,,,,,,,,,,,,,,,,,,,,,,,,,,,,,
,,666ee913519a8d810a4c38d9,66daf5ae64fec735e0a30d52,2024-09-06_14h30.16.701,mdp,2024.2.1,Win32,58.82352941,66d7945b1baad48e845df3ce,,,,,,,,,,,,,,,,,,,,,1105.459,1105.459,1105.46,1106.393,0,0,left,0.421,,1106.393,1106.393,0,0,,1106.393,1106.395,0,0,,1,1106.395,1106.395,1106.395,1107.894,0,5,5,5,1,0.8,0.2,0.8,0.2,1,0,,,,,,,,,,,,,,,,,,,,,,,,,,,,,,,,,,,,
,,666ee913519a8d810a4c38d9,66daf5ae64fec735e0a30d52,2024-09-06_14h30.16.701,mdp,2024.2.1,Win32,58.82352941,66d7945b1baad48e845df3ce,,,,,,,,,,,,,,,,,,,,,1107.895,1107.895,1107.895,1108.929,0,0,left,0.517,,1108.929,1108.93,0,0,,1108.93,1108.93,0,1,,1,1108.93,1108.93,1108.93,1110.43,0,6,6,6,1,0.8,0.2,0.8,0.2,1,0,,,,,,,,,,,,,,,,,,,,,,,,,,,,,,,,,,,,
,,666ee913519a8d810a4c38d9,66daf5ae64fec735e0a30d52,2024-09-06_14h30.16.701,mdp,2024.2.1,Win32,58.82352941,66d7945b1baad48e845df3ce,,,,,,,,,,,,,,,,,,,,,1110.43,1110.43,1110.43,1110.947,0,0,left,0.006,,1110.947,1110.948,0,1,,1110.948,1110.948,0,0,,1,1110.948,1110.948,1110.949,1112.449,0,7,7,7,1,0.8,0.2,0.8,0.2,1,0,,,,,,,,,,,,,,,,,,,,,,,,,,,,,,,,,,,,
,,666ee913519a8d810a4c38d9,66daf5ae64fec735e0a30d52,2024-09-06_14h30.16.701,mdp,2024.2.1,Win32,58.82352941,66d7945b1baad48e845df3ce,,,,,,,,,,,,,,,,,,,,,1112.45,1112.45,1112.451,1113.25,0,0,left,0.267,,1113.25,1113.25,0,1,,1113.25,1113.25,0,1,,1,1113.25,1113.25,1113.25,1114.752,0,8,8,8,1,0.8,0.2,0.8,0.2,1,0,,,,,,,,,,,,,,,,,,,,,,,,,,,,,,,,,,,,
,,666ee913519a8d810a4c38d9,66daf5ae64fec735e0a30d52,2024-09-06_14h30.16.701,mdp,2024.2.1,Win32,58.82352941,66d7945b1baad48e845df3ce,,,,,,,,,,,,,,,,,,,,,1114.753,1114.753,1114.753,1115.685,1,1,right,0.402,,1115.685,1115.686,0,0,,1115.686,1115.686,0,0,,0,1115.686,1115.686,1115.686,1117.186,0,9,9,9,1,0.8,0.2,0.8,0.2,1,0,,,,,,,,,,,,,,,,,,,,,,,,,,,,,,,,,,,,
,,666ee913519a8d810a4c38d9,66daf5ae64fec735e0a30d52,2024-09-06_14h30.16.701,mdp,2024.2.1,Win32,58.82352941,66d7945b1baad48e845df3ce,,,,,,,,,,,,,,,,,,,,,1117.187,1117.187,1117.187,1117.771,0,0,left,0.067,,1117.771,1117.771,0,0,,1117.772,1117.772,0,0,,1,1117.772,1117.772,1117.772,1119.272,0,10,10,10,1,0.8,0.2,0.8,0.2,1,0,,,,,,,,,,,,,,,,,,,,,,,,,,,,,,,,,,,,
,,666ee913519a8d810a4c38d9,66daf5ae64fec735e0a30d52,2024-09-06_14h30.16.701,mdp,2024.2.1,Win32,58.82352941,66d7945b1baad48e845df3ce,,,,,,,,,,,,,,,,,,,,,1119.272,1119.272,1119.273,1119.956,0,0,left,0.173,,1119.957,1119.957,0,0,,1119.957,1119.957,0,0,,1,1119.957,1119.957,1119.957,1121.458,0,11,11,11,1,0.8,0.2,0.8,0.2,1,0,,,,,,,,,,,,,,,,,,,,,,,,,,,,,,,,,,,,
,,666ee913519a8d810a4c38d9,66daf5ae64fec735e0a30d52,2024-09-06_14h30.16.701,mdp,2024.2.1,Win32,58.82352941,66d7945b1baad48e845df3ce,,,,,,,,,,,,,,,,,,,,,1121.458,1121.458,1121.458,1122.275,0,0,left,0.289,,1122.275,1122.275,0,0,,1122.275,1122.276,0,0,,1,1122.276,1122.276,1122.276,1123.776,0,12,12,12,1,0.8,0.2,0.8,0.2,1,0,,,,,,,,,,,,,,,,,,,,,,,,,,,,,,,,,,,,
,,666ee913519a8d810a4c38d9,66daf5ae64fec735e0a30d52,2024-09-06_14h30.16.701,mdp,2024.2.1,Win32,58.82352941,66d7945b1baad48e845df3ce,,,,,,,,,,,,,,,,,,,,,1123.776,1123.776,1123.776,1125.011,0,1,left,0.724,,1125.013,1125.014,0,0,,1125.015,1125.016,0,0,,0,1125.016,1125.016,1125.016,1126.512,0,13,13,13,1,0.8,0.2,0.8,0.2,1,0,,,,,,,,,,,,,,,,,,,,,,,,,,,,,,,,,,,,
,,666ee913519a8d810a4c38d9,66daf5ae64fec735e0a30d52,2024-09-06_14h30.16.701,mdp,2024.2.1,Win32,58.82352941,66d7945b1baad48e845df3ce,,,,,,,,,,,,,,,,,,,,,1126.512,1126.512,1126.513,1127.362,1,0,right,0.334,,1127.363,1127.363,0,0,,1127.364,1127.364,0,0,,1,1127.364,1127.364,1127.364,1128.864,0,14,14,14,1,0.8,0.2,0.8,0.2,1,0,,,,,,,,,,,,,,,,,,,,,,,,,,,,,,,,,,,,
,,666ee913519a8d810a4c38d9,66daf5ae64fec735e0a30d52,2024-09-06_14h30.16.701,mdp,2024.2.1,Win32,58.82352941,66d7945b1baad48e845df3ce,,,,,,,,,,,,,,,,,,,,,1128.864,1128.864,1128.865,1129.482,1,1,right,0.112,,1129.482,1129.482,0,0,,1129.482,1129.482,0,1,,0,1129.482,1129.482,1129.482,1130.983,0,15,15,15,1,0.4,0.6,0.6,0.4,1,0,,,,,,,,,,,,,,,,,,,,,,,,,,,,,,,,,,,,
,,666ee913519a8d810a4c38d9,66daf5ae64fec735e0a30d52,2024-09-06_14h30.16.701,mdp,2024.2.1,Win32,58.82352941,66d7945b1baad48e845df3ce,,,,,,,,,,,,,,,,,,,,,1130.983,1130.983,1130.984,1131.801,0,1,left,0.311,,1131.801,1131.801,0,1,,1131.801,1131.801,0,1,,0,1131.801,1131.801,1131.801,1133.302,0,16,16,16,1,0.4,0.6,0.6,0.4,1,0,,,,,,,,,,,,,,,,,,,,,,,,,,,,,,,,,,,,
,,666ee913519a8d810a4c38d9,66daf5ae64fec735e0a30d52,2024-09-06_14h30.16.701,mdp,2024.2.1,Win32,58.82352941,66d7945b1baad48e845df3ce,,,,,,,,,,,,,,,,,,,,,1133.302,1133.302,1133.302,1134.687,1,0,right,0.867,,1134.687,1134.687,0,0,,1134.687,1134.687,0,1,,1,1134.687,1134.687,1134.687,1136.188,0,17,17,17,1,0.4,0.6,0.6,0.4,1,0,,,,,,,,,,,,,,,,,,,,,,,,,,,,,,,,,,,,
,,666ee913519a8d810a4c38d9,66daf5ae64fec735e0a30d52,2024-09-06_14h30.16.701,mdp,2024.2.1,Win32,58.82352941,66d7945b1baad48e845df3ce,,,,,,,,,,,,,,,,,,,,,1136.188,1136.188,1136.188,1136.955,0,1,left,0.252,,1136.955,1136.956,0,0,,1136.956,1136.956,0,0,,0,1136.956,1136.956,1136.956,1138.457,0,18,18,18,1,0.4,0.6,0.6,0.4,1,0,,,,,,,,,,,,,,,,,,,,,,,,,,,,,,,,,,,,
,,666ee913519a8d810a4c38d9,66daf5ae64fec735e0a30d52,2024-09-06_14h30.16.701,mdp,2024.2.1,Win32,58.82352941,66d7945b1baad48e845df3ce,,,,,,,,,,,,,,,,,,,,,1138.457,1138.457,1138.457,1139.007,0,0,left,0.038,,1139.008,1139.008,0,0,,1139.008,1139.008,0,1,,1,1139.008,1139.008,1139.008,1140.509,0,19,19,19,1,0.4,0.6,0.6,0.4,1,0,,,,,,,,,,,,,,,,,,,,,,,,,,,,,,,,,,,,
,,666ee913519a8d810a4c38d9,66daf5ae64fec735e0a30d52,2024-09-06_14h30.16.701,mdp,2024.2.1,Win32,58.82352941,66d7945b1baad48e845df3ce,,,,,,,,,,,,,,,,,,,,,1140.509,1140.509,1140.509,1141.227,0,1,left,0.206,,1141.228,1141.23,0,0,,1141.23,1141.232,0,0,,0,1141.232,1141.232,1141.232,1142.728,0,20,20,20,1,0.4,0.6,0.6,0.4,1,0,,,,,,,,,,,,,,,,,,,,,,,,,,,,,,,,,,,,
,,666ee913519a8d810a4c38d9,66daf5ae64fec735e0a30d52,2024-09-06_14h30.16.701,mdp,2024.2.1,Win32,58.82352941,66d7945b1baad48e845df3ce,,,,,,,,,,,,,,,,,,,,,1142.728,1142.728,1142.728,1143.445,0,1,left,0.201,,1143.445,1143.445,0,0,,1143.445,1143.445,0,1,,0,1143.445,1143.445,1143.446,1144.946,0,21,21,21,1,0.4,0.6,0.6,0.4,1,0,,,,,,,,,,,,,,,,,,,,,,,,,,,,,,,,,,,,
,,666ee913519a8d810a4c38d9,66daf5ae64fec735e0a30d52,2024-09-06_14h30.16.701,mdp,2024.2.1,Win32,58.82352941,66d7945b1baad48e845df3ce,,,,,,,,,,,,,,,,,,,,,1144.946,1144.946,1144.946,1145.63,1,0,right,0.177,,1145.63,1145.632,0,0,,1145.632,1145.632,0,0,,1,1145.632,1145.632,1145.632,1147.132,0,22,22,22,1,0.4,0.6,0.6,0.4,1,0,,,,,,,,,,,,,,,,,,,,,,,,,,,,,,,,,,,,
,,666ee913519a8d810a4c38d9,66daf5ae64fec735e0a30d52,2024-09-06_14h30.16.701,mdp,2024.2.1,Win32,58.82352941,66d7945b1baad48e845df3ce,,,,,,,,,,,,,,,,,,,,,1147.132,1147.132,1147.132,1147.933,1,0,right,0.289,,1147.935,1147.935,0,1,,1147.936,1147.937,0,0,,1,1147.937,1147.937,1147.937,1149.434,0,23,23,23,1,0.4,0.6,0.6,0.4,1,0,,,,,,,,,,,,,,,,,,,,,,,,,,,,,,,,,,,,
,,666ee913519a8d810a4c38d9,66daf5ae64fec735e0a30d52,2024-09-06_14h30.16.701,mdp,2024.2.1,Win32,58.82352941,66d7945b1baad48e845df3ce,,,,,,,,,,,,,,,,,,,,,1149.434,1149.434,1149.434,1150.051,1,0,right,0.102,,1150.052,1150.053,0,0,,1150.055,1150.055,0,1,,1,1150.055,1150.055,1150.055,1151.553,0,24,24,24,1,0.4,0.6,0.6,0.4,1,0,,,,,,,,,,,,,,,,,,,,,,,,,,,,,,,,,,,,
,,666ee913519a8d810a4c38d9,66daf5ae64fec735e0a30d52,2024-09-06_14h30.16.701,mdp,2024.2.1,Win32,58.82352941,66d7945b1baad48e845df3ce,,,,,,,,,,,,,,,,,,,,,1151.553,1151.553,1151.553,1152.37,1,0,right,0.289,,1152.371,1152.371,0,0,,1152.371,1152.371,0,0,,1,1152.371,1152.371,1152.371,1153.871,0,25,25,25,1,0.4,0.6,0.6,0.4,1,0,,,,,,,,,,,,,,,,,,,,,,,,,,,,,,,,,,,,
,,666ee913519a8d810a4c38d9,66daf5ae64fec735e0a30d52,2024-09-06_14h30.16.701,mdp,2024.2.1,Win32,58.82352941,66d7945b1baad48e845df3ce,,,,,,,,,,,,,,,,,,,,,1153.871,1153.871,1153.872,1154.455,1,1,right,0.077,,1154.455,1154.455,0,0,,1154.456,1154.457,0,1,,0,1154.457,1154.457,1154.457,1155.956,0,26,26,26,1,0.4,0.6,0.6,0.4,1,0,,,,,,,,,,,,,,,,,,,,,,,,,,,,,,,,,,,,
,,666ee913519a8d810a4c38d9,66daf5ae64fec735e0a30d52,2024-09-06_14h30.16.701,mdp,2024.2.1,Win32,58.82352941,66d7945b1baad48e845df3ce,,,,,,,,,,,,,,,,,,,,,1155.957,1155.957,1155.957,1156.657,1,1,right,0.183,,1156.657,1156.658,0,0,,1156.658,1156.658,0,1,,0,1156.658,1156.658,1156.658,1158.159,0,27,27,27,1,0.4,0.6,0.6,0.4,1,0,,,,,,,,,,,,,,,,,,,,,,,,,,,,,,,,,,,,
,,666ee913519a8d810a4c38d9,66daf5ae64fec735e0a30d52,2024-09-06_14h30.16.701,mdp,2024.2.1,Win32,58.82352941,66d7945b1baad48e845df3ce,,,,,,,,,,,,,,,,,,,,,1158.159,1158.159,1158.16,1159.093,1,0,right,0.42,,1159.094,1159.095,0,0,,1159.096,1159.097,0,1,,1,1159.097,1159.097,1159.098,1160.594,0,28,28,28,1,0.4,0.6,0.6,0.4,1,0,,,,,,,,,,,,,,,,,,,,,,,,,,,,,,,,,,,,
,,666ee913519a8d810a4c38d9,66daf5ae64fec735e0a30d52,2024-09-06_14h30.16.701,mdp,2024.2.1,Win32,58.82352941,66d7945b1baad48e845df3ce,,,,,,,,,,,,,,,,,,,,,1160.595,1160.595,1160.595,1161.446,1,0,right,0.334,,1161.448,1161.449,0,1,,1161.45,1161.451,0,1,,1,1161.451,1161.451,1161.452,1162.948,0,29,29,29,1,0.4,0.6,0.6,0.4,1,0,,,,,,,,,,,,,,,,,,,,,,,,,,,,,,,,,,,,
,,666ee913519a8d810a4c38d9,66daf5ae64fec735e0a30d52,2024-09-06_14h30.16.701,mdp,2024.2.1,Win32,58.82352941,66d7945b1baad48e845df3ce,,,,,,,,,,,,,,,,,,,,,1162.948,1162.948,1162.949,1163.731,1,1,right,0.25,,1163.731,1163.731,0,0,,1163.731,1163.731,0,1,,0,1163.731,1163.731,1163.732,1165.232,0,30,30,30,1,0.4,0.6,0.6,0.4,1,0,,,,,,,,,,,,,,,,,,,,,,,,,,,,,,,,,,,,
,,666ee913519a8d810a4c38d9,66daf5ae64fec735e0a30d52,2024-09-06_14h30.16.701,mdp,2024.2.1,Win32,58.82352941,66d7945b1baad48e845df3ce,,,,,,,,,,,,,,,,,,,,,1165.232,1165.232,1165.232,1166.151,0,0,left,0.401,,1166.152,1166.153,0,0,,1166.154,1166.155,0,0,,1,1166.155,1166.155,1166.156,1167.652,0,31,31,31,1,0.4,0.6,0.6,0.4,1,0,,,,,,,,,,,,,,,,,,,,,,,,,,,,,,,,,,,,
,,666ee913519a8d810a4c38d9,66daf5ae64fec735e0a30d52,2024-09-06_14h30.16.701,mdp,2024.2.1,Win32,58.82352941,66d7945b1baad48e845df3ce,,,,,,,,,,,,,,,,,,,,,1167.652,1167.652,1167.652,1168.902,1,0,right,0.72,,1168.903,1168.903,0,1,,1168.903,1168.904,0,1,,1,1168.904,1168.904,1168.904,1170.403,0,32,32,32,1,0.8,0.2,0.4,0.6,1,0,,,,,,,,,,,,,,,,,,,,,,,,,,,,,,,,,,,,
,,666ee913519a8d810a4c38d9,66daf5ae64fec735e0a30d52,2024-09-06_14h30.16.701,mdp,2024.2.1,Win32,58.82352941,66d7945b1baad48e845df3ce,,,,,,,,,,,,,,,,,,,,,1170.404,1170.404,1170.405,1171.071,1,0,right,0.161,,1171.071,1171.072,0,0,,1171.072,1171.072,0,1,,1,1171.072,1171.072,1171.073,1172.572,0,33,33,33,1,0.8,0.2,0.4,0.6,1,0,,,,,,,,,,,,,,,,,,,,,,,,,,,,,,,,,,,,
,,666ee913519a8d810a4c38d9,66daf5ae64fec735e0a30d52,2024-09-06_14h30.16.701,mdp,2024.2.1,Win32,58.82352941,66d7945b1baad48e845df3ce,,,,,,,,,,,,,,,,,,,,,1172.573,1172.573,1172.574,1173.374,0,0,left,0.285,,1173.374,1173.374,0,0,,1173.375,1173.375,0,0,,1,1173.375,1173.375,1173.375,1174.875,0,34,34,34,1,0.8,0.2,0.4,0.6,1,0,,,,,,,,,,,,,,,,,,,,,,,,,,,,,,,,,,,,
,,666ee913519a8d810a4c38d9,66daf5ae64fec735e0a30d52,2024-09-06_14h30.16.701,mdp,2024.2.1,Win32,58.82352941,66d7945b1baad48e845df3ce,,,,,,,,,,,,,,,,,,,,,1174.875,1174.875,1174.876,1175.692,0,0,left,0.305,,1175.693,1175.693,0,0,,1175.693,1175.693,0,1,,1,1175.693,1175.693,1175.694,1177.194,0,35,35,35,1,0.8,0.2,0.4,0.6,1,0,,,,,,,,,,,,,,,,,,,,,,,,,,,,,,,,,,,,
,,666ee913519a8d810a4c38d9,66daf5ae64fec735e0a30d52,2024-09-06_14h30.16.701,mdp,2024.2.1,Win32,58.82352941,66d7945b1baad48e845df3ce,,,,,,,,,,,,,,,,,,,,,1177.194,1177.194,1177.194,1177.945,1,0,right,0.236,,1177.945,1177.945,0,1,,1177.945,1177.945,0,0,,1,1177.945,1177.945,1177.945,1179.445,0,36,36,36,1,0.8,0.2,0.4,0.6,1,0,,,,,,,,,,,,,,,,,,,,,,,,,,,,,,,,,,,,
,,666ee913519a8d810a4c38d9,66daf5ae64fec735e0a30d52,2024-09-06_14h30.16.701,mdp,2024.2.1,Win32,58.82352941,66d7945b1baad48e845df3ce,,,,,,,,,,,,,,,,,,,,,1179.446,1179.446,1179.446,1180.163,1,1,right,0.2,,1180.164,1180.164,0,1,,1180.164,1180.164,0,0,,0,1180.164,1180.164,1180.165,1181.666,0,37,37,37,1,0.8,0.2,0.4,0.6,1,0,,,,,,,,,,,,,,,,,,,,,,,,,,,,,,,,,,,,
,,666ee913519a8d810a4c38d9,66daf5ae64fec735e0a30d52,2024-09-06_14h30.16.701,mdp,2024.2.1,Win32,58.82352941,66d7945b1baad48e845df3ce,,,,,,,,,,,,,,,,,,,,,1181.666,1181.666,1181.667,1182.298,0,0,left,0.109,,1182.298,1182.299,0,0,,1182.299,1182.299,0,0,,1,1182.299,1182.299,1182.299,1183.8,0,38,38,38,1,0.8,0.2,0.4,0.6,1,0,,,,,,,,,,,,,,,,,,,,,,,,,,,,,,,,,,,,
,,666ee913519a8d810a4c38d9,66daf5ae64fec735e0a30d52,2024-09-06_14h30.16.701,mdp,2024.2.1,Win32,58.82352941,66d7945b1baad48e845df3ce,,,,,,,,,,,,,,,,,,,,,1183.8,1183.8,1183.8,1184.768,0,1,left,0.452,,1184.77,1184.77,0,0,,1184.772,1184.773,0,0,,0,1184.773,1184.773,1184.773,1186.268,0,39,39,39,1,0.4,0.6,0.6,0.4,1,0,,,,,,,,,,,,,,,,,,,,,,,,,,,,,,,,,,,,
,,666ee913519a8d810a4c38d9,66daf5ae64fec735e0a30d52,2024-09-06_14h30.16.701,mdp,2024.2.1,Win32,58.82352941,66d7945b1baad48e845df3ce,,,,,,,,,,,,,,,,,,,,,1186.268,1186.268,1186.269,1187.002,0,0,left,0.218,,1187.003,1187.003,0,1,,1187.004,1187.004,0,0,,1,1187.004,1187.004,1187.004,1188.505,0,40,40,40,1,0.4,0.6,0.6,0.4,1,0,,,,,,,,,,,,,,,,,,,,,,,,,,,,,,,,,,,,
,,666ee913519a8d810a4c38d9,66daf5ae64fec735e0a30d52,2024-09-06_14h30.16.701,mdp,2024.2.1,Win32,58.82352941,66d7945b1baad48e845df3ce,,,,,,,,,,,,,,,,,,,,,1188.505,1188.505,1188.505,1189.622,1,0,right,0.601,,1189.622,1189.623,0,1,,1189.623,1189.623,0,1,,1,1189.623,1189.623,1189.623,1191.123,0,41,41,41,1,0.4,0.6,0.6,0.4,1,0,,,,,,,,,,,,,,,,,,,,,,,,,,,,,,,,,,,,
,,666ee913519a8d810a4c38d9,66daf5ae64fec735e0a30d52,2024-09-06_14h30.16.701,mdp,2024.2.1,Win32,58.82352941,66d7945b1baad48e845df3ce,,,,,,,,,,,,,,,,,,,,,1191.124,1191.124,1191.124,1191.725,0,0,left,0.083,,1191.726,1191.727,0,0,,1191.728,1191.729,0,0,,1,1191.729,1191.729,1191.73,1193.226,0,42,42,42,1,0.8,0.2,0.4,0.6,1,0,,,,,,,,,,,,,,,,,,,,,,,,,,,,,,,,,,,,
,,666ee913519a8d810a4c38d9,66daf5ae64fec735e0a30d52,2024-09-06_14h30.16.701,mdp,2024.2.1,Win32,58.82352941,66d7945b1baad48e845df3ce,,,,,,,,,,,,,,,,,,,,,1193.227,1193.227,1193.228,1193.893,1,1,right,0.138,,1193.895,1193.896,0,0,,1193.897,1193.898,0,1,,0,1193.898,1193.898,1193.898,1195.394,0,43,43,43,1,0.8,0.2,0.4,0.6,1,0,,,,,,,,,,,,,,,,,,,,,,,,,,,,,,,,,,,,
,,666ee913519a8d810a4c38d9,66daf5ae64fec735e0a30d52,2024-09-06_14h30.16.701,mdp,2024.2.1,Win32,58.82352941,66d7945b1baad48e845df3ce,,,,,,,,,,,,,,,,,,,,,1195.394,1195.394,1195.394,1196.696,1,1,right,0.794,,1196.696,1196.696,0,0,,1196.696,1196.696,0,1,,0,1196.696,1196.696,1196.696,1198.197,0,44,44,44,1,0.8,0.2,0.4,0.6,1,0,,,,,,,,,,,,,,,,,,,,,,,,,,,,,,,,,,,,
,,666ee913519a8d810a4c38d9,66daf5ae64fec735e0a30d52,2024-09-06_14h30.16.701,mdp,2024.2.1,Win32,58.82352941,66d7945b1baad48e845df3ce,,,,,,,,,,,,,,,,,,,,,1198.197,1198.197,1198.198,1198.948,1,0,right,0.239,,1198.948,1198.948,0,0,,1198.948,1198.949,0,0,,1,1198.949,1198.949,1198.949,1200.449,0,45,45,45,1,0.8,0.2,0.4,0.6,1,0,,,,,,,,,,,,,,,,,,,,,,,,,,,,,,,,,,,,
,,666ee913519a8d810a4c38d9,66daf5ae64fec735e0a30d52,2024-09-06_14h30.16.701,mdp,2024.2.1,Win32,58.82352941,66d7945b1baad48e845df3ce,,,,,,,,,,,,,,,,,,,,,1200.449,1200.449,1200.45,1201.217,1,1,right,0.256,,1201.218,1201.219,0,1,,1201.221,1201.222,0,1,,0,1201.222,1201.222,1201.222,1202.718,0,46,46,46,1,0.8,0.2,0.4,0.6,1,0,,,,,,,,,,,,,,,,,,,,,,,,,,,,,,,,,,,,
,,666ee913519a8d810a4c38d9,66daf5ae64fec735e0a30d52,2024-09-06_14h30.16.701,mdp,2024.2.1,Win32,58.82352941,66d7945b1baad48e845df3ce,,,,,,,,,,,,,,,,,,,,,1202.718,1202.718,1202.718,1203.435,0,1,left,0.2,,1203.437,1203.438,0,0,,1203.439,1203.44,0,1,,0,1203.44,1203.44,1203.441,1204.936,0,47,47,47,1,0.6,0.4,0.8,0.2,1,0,,,,,,,,,,,,,,,,,,,,,,,,,,,,,,,,,,,,
,,666ee913519a8d810a4c38d9,66daf5ae64fec735e0a30d52,2024-09-06_14h30.16.701,mdp,2024.2.1,Win32,58.82352941,66d7945b1baad48e845df3ce,,,,,,,,,,,,,,,,,,,,,1204.936,1204.936,1204.937,1205.571,0,0,left,0.117,,1205.572,1205.574,0,0,,1205.575,1205.576,0,0,,1,1205.576,1205.576,1205.576,1207.072,0,48,48,48,1,0.8,0.2,0.2,0.8,1,0,,,,,,,,,,,,,,,,,,,,,,,,,,,,,,,,,,,,
,,666ee913519a8d810a4c38d9,66daf5ae64fec735e0a30d52,2024-09-06_14h30.16.701,mdp,2024.2.1,Win32,58.82352941,66d7945b1baad48e845df3ce,,,,,,,,,,,,,,,,,,,,,1207.072,1207.072,1207.073,1207.739,0,0,left,0.151,,1207.739,1207.739,0,0,,1207.74,1207.74,0,0,,1,1207.74,1207.74,1207.74,1209.241,0,49,49,49,1,0.8,0.2,0.2,0.8,1,0,,,,,,,,,,,,,,,,,,,,,,,,,,,,,,,,,,,,
,,666ee913519a8d810a4c38d9,66daf5ae64fec735e0a30d52,2024-09-06_14h30.16.701,mdp,2024.2.1,Win32,58.82352941,66d7945b1baad48e845df3ce,,,,,,,,,,,,,,,,,,,,,,,,,,,,,,,,,,,,,,,,,,,,,,,,,,,,,,,,1209.241,1267.746,0,4,4,2,1,imgs/kangaroo.png,imgs/giraffe.png,imgs/pig.png,imgs/lion.png,imgs/cat.png,,,,,,,,,,,,,,,,,,,,,,,,
,,666ee913519a8d810a4c38d9,66daf5ae64fec735e0a30d52,2024-09-06_14h30.16.701,mdp,2024.2.1,Win32,58.82352941,66d7945b1baad48e845df3ce,,,,,,,,,,,,,,2,seqs/st2seq13.csv,1267.765,1269.398,space,1.111,,1269.399,1269.399,1269.399,1271.433,0,1,left,1.501,,1271.433,1273.985,0,1,left,1273.991,1273.991,0,1,,0,1273.991,1273.991,1273.991,1275.487,0,0,0,0,1,0.2,0.8,0.8,0.2,,,,,,,,,,,,,,,2.036,,0.8,0.2,0.2,0.8,0.2,0.8,0.2,0.8,1,0,,,,,,,,,,,,
