init_exp.started,init_exp.stopped,participant,session,date,expName,psychopyVersion,OS,frameRate,study_id,disp_instruction.started,disp_instruction.stopped,instruction.thisRepN,instruction.thisTrialN,instruction.thisN,instruction.thisIndex,instruction.ran,instimg_path,consent.started,consent.stopped,key_resp_3.keys,key_resp_3.rt,key_resp_3.duration,n_steps,sequence_path,init_block.started,init_block.stopped,key_resp.keys,key_resp.rt,key_resp.duration,init_trials.started,init_trials.stopped,step0.started,step0.stopped,act0,s1,res0.keys,res0.rt,res0.duration,step1.started,step1.stopped,act1,s2,res1.keys,step2.started,step2.stopped,act2,s3,res2.keys,rew,reward_comp.started,reward_comp.stopped,reward_disp.started,reward_disp.stopped,trials.thisRepN,trials.thisTrialN,trials.thisN,trials.thisIndex,trials.ran,s00a0s10,s00a0s11,s00a1s10,s00a1s11,rew10,rew11,break_block.started,break_block.stopped,block.thisRepN,block.thisTrialN,block.thisN,block.thisIndex,block.ran,s00path,s10path,s11path,s20path,s21path,res1.rt,res1.duration,s10a0s20,s10a0s21,s10a1s20,s10a1s21,s11a0s20,s11a0s21,s11a1s20,s11a1s21,rew20,rew21,res2.rt,res2.duration,s20a0s30,s20a0s31,s20a1s30,s20a1s31,s21a0s30,s21a0s31,s21a1s30,s21a1s31,rew30,rew31
0.0001,0.0019,66715c98b42ef93f2389ce3f,66fc99c266b2bce0bebea4c5,2024-10-01_17h58.21.726,mdp,2024.2.1,Win32,119.047619,66fa4ebf79326e780c390304,,,,,,,,,,,,,,,,,,,,,,,,,,,,,,,,,,,,,,,,,,,,,,,,,,,,,,,,,,,,,,,,,,,,,,,,,,,,,,,,,,,,,,,,,,,
,,66715c98b42ef93f2389ce3f,66fc99c266b2bce0bebea4c5,2024-10-01_17h58.21.726,mdp,2024.2.1,Win32,119.047619,66fa4ebf79326e780c390304,0.0083,53.1393,0,0,0,0,1,rlnn_exp/rlnn_exp.001.png,,,,,,,,,,,,,,,,,,,,,,,,,,,,,,,,,,,,,,,,,,,,,,,,,,,,,,,,,,,,,,,,,,,,,,,,,,,,,,,,,,,
,,66715c98b42ef93f2389ce3f,66fc99c266b2bce0bebea4c5,2024-10-01_17h58.21.726,mdp,2024.2.1,Win32,119.047619,66fa4ebf79326e780c390304,53.1415,69.2605,0,1,1,1,1,rlnn_exp/rlnn_exp.002.png,,,,,,,,,,,,,,,,,,,,,,,,,,,,,,,,,,,,,,,,,,,,,,,,,,,,,,,,,,,,,,,,,,,,,,,,,,,,,,,,,,,
,,66715c98b42ef93f2389ce3f,66fc99c266b2bce0bebea4c5,2024-10-01_17h58.21.726,mdp,2024.2.1,Win32,119.047619,66fa4ebf79326e780c390304,69.263,110.2962,0,2,2,2,1,rlnn_exp/rlnn_exp.003.png,,,,,,,,,,,,,,,,,,,,,,,,,,,,,,,,,,,,,,,,,,,,,,,,,,,,,,,,,,,,,,,,,,,,,,,,,,,,,,,,,,,
,,66715c98b42ef93f2389ce3f,66fc99c266b2bce0bebea4c5,2024-10-01_17h58.21.726,mdp,2024.2.1,Win32,119.047619,66fa4ebf79326e780c390304,110.2984,140.1722,0,3,3,3,1,rlnn_exp/rlnn_exp.004.png,,,,,,,,,,,,,,,,,,,,,,,,,,,,,,,,,,,,,,,,,,,,,,,,,,,,,,,,,,,,,,,,,,,,,,,,,,,,,,,,,,,
,,66715c98b42ef93f2389ce3f,66fc99c266b2bce0bebea4c5,2024-10-01_17h58.21.726,mdp,2024.2.1,Win32,119.047619,66fa4ebf79326e780c390304,,,,,,,,,140.1737,165.7035,y,15.5059,,,,,,,,,,,,,,,,,,,,,,,,,,,,,,,,,,,,,,,,,,,,,,,,,,,,,,,,,,,,,,,,,,,,,,,,,,,,,,,
,,66715c98b42ef93f2389ce3f,66fc99c266b2bce0bebea4c5,2024-10-01_17h58.21.726,mdp,2024.2.1,Win32,119.047619,66fa4ebf79326e780c390304,,,,,,,,,,,,,,1,seqs/st1seq25.csv,165.7228,168.7873,space,2.5537,,168.8071,168.8081,168.8098,175.3253,1,1,right,5.9707,,175.3278,175.3365,,1,,175.3379,175.3446,,0,,0,175.3453,175.3456,175.3474,176.8384,0,0,0,0,1,0.6,0.4,0.4,0.6,1,0,,,,,,,,,,,,,,,,,,,,,,,,,,,,,,,,,,,,
,,66715c98b42ef93f2389ce3f,66fc99c266b2bce0bebea4c5,2024-10-01_17h58.21.726,mdp,2024.2.1,Win32,119.047619,66fa4ebf79326e780c390304,,,,,,,,,,,,,,,,,,,,,176.8415,176.8416,176.8447,180.0049,1,0,right,2.6508,,180.0087,180.0106,,0,,180.0124,180.0146,,0,,1,180.0147,180.0148,180.0169,181.5112,0,1,1,1,1,0.4,0.6,0.8,0.2,1,0,,,,,,,,,,,,,,,,,,,,,,,,,,,,,,,,,,,,
,,66715c98b42ef93f2389ce3f,66fc99c266b2bce0bebea4c5,2024-10-01_17h58.21.726,mdp,2024.2.1,Win32,119.047619,66fa4ebf79326e780c390304,,,,,,,,,,,,,,,,,,,,,181.5122,181.5122,181.5164,183.489,0,0,left,1.4601,,183.492,183.4939,,0,,183.4956,183.4975,,1,,1,183.4977,183.4977,183.4991,184.9924,0,2,2,2,1,0.4,0.6,0.8,0.2,1,0,,,,,,,,,,,,,,,,,,,,,,,,,,,,,,,,,,,,
,,66715c98b42ef93f2389ce3f,66fc99c266b2bce0bebea4c5,2024-10-01_17h58.21.726,mdp,2024.2.1,Win32,119.047619,66fa4ebf79326e780c390304,,,,,,,,,,,,,,,,,,,,,184.9941,184.9941,184.9978,187.4551,1,0,right,1.9432,,187.4596,187.4612,,0,,187.4636,187.4654,,1,,1,187.4655,187.4655,187.4674,188.9671,0,3,3,3,1,0.4,0.6,0.8,0.2,1,0,,,,,,,,,,,,,,,,,,,,,,,,,,,,,,,,,,,,
,,66715c98b42ef93f2389ce3f,66fc99c266b2bce0bebea4c5,2024-10-01_17h58.21.726,mdp,2024.2.1,Win32,119.047619,66fa4ebf79326e780c390304,,,,,,,,,,,,,,,,,,,,,188.9689,188.9689,188.9722,190.0435,1,0,right,0.5594,,190.0459,190.0479,,0,,190.0497,190.0508,,0,,1,190.0509,190.051,190.0521,191.5435,0,4,4,4,1,0.4,0.6,0.8,0.2,1,0,,,,,,,,,,,,,,,,,,,,,,,,,,,,,,,,,,,,
,,66715c98b42ef93f2389ce3f,66fc99c266b2bce0bebea4c5,2024-10-01_17h58.21.726,mdp,2024.2.1,Win32,119.047619,66fa4ebf79326e780c390304,,,,,,,,,,,,,,,,,,,,,191.5448,191.5449,191.5507,193.6362,1,0,right,1.5742,,193.6406,193.6424,,1,,193.6442,193.6467,,1,,1,193.6469,193.6469,193.649,195.1421,0,5,5,5,1,0.4,0.6,0.8,0.2,1,0,,,,,,,,,,,,,,,,,,,,,,,,,,,,,,,,,,,,
,,66715c98b42ef93f2389ce3f,66fc99c266b2bce0bebea4c5,2024-10-01_17h58.21.726,mdp,2024.2.1,Win32,119.047619,66fa4ebf79326e780c390304,,,,,,,,,,,,,,,,,,,,,195.1431,195.1431,195.1478,196.1269,0,0,left,0.4679,,196.1303,196.1322,,1,,196.1338,196.1358,,1,,1,196.1359,196.136,196.1389,197.634,0,6,6,6,1,0.4,0.6,0.8,0.2,1,0,,,,,,,,,,,,,,,,,,,,,,,,,,,,,,,,,,,,
,,66715c98b42ef93f2389ce3f,66fc99c266b2bce0bebea4c5,2024-10-01_17h58.21.726,mdp,2024.2.1,Win32,119.047619,66fa4ebf79326e780c390304,,,,,,,,,,,,,,,,,,,,,197.635,197.635,197.6393,199.6865,0,0,left,1.5344,,199.6901,199.6921,,1,,199.6952,199.6967,,1,,1,199.6969,199.6969,199.6985,201.1993,0,7,7,7,1,0.4,0.6,0.8,0.2,1,0,,,,,,,,,,,,,,,,,,,,,,,,,,,,,,,,,,,,
,,66715c98b42ef93f2389ce3f,66fc99c266b2bce0bebea4c5,2024-10-01_17h58.21.726,mdp,2024.2.1,Win32,119.047619,66fa4ebf79326e780c390304,,,,,,,,,,,,,,,,,,,,,201.2003,201.2005,201.2037,206.2935,0,0,left,4.5759,,206.2973,206.2988,,0,,206.3003,206.3021,,0,,1,206.3022,206.3023,206.3041,207.7981,0,8,8,8,1,0.8,0.2,0.6,0.4,1,0,,,,,,,,,,,,,,,,,,,,,,,,,,,,,,,,,,,,
,,66715c98b42ef93f2389ce3f,66fc99c266b2bce0bebea4c5,2024-10-01_17h58.21.726,mdp,2024.2.1,Win32,119.047619,66fa4ebf79326e780c390304,,,,,,,,,,,,,,,,,,,,,207.799,207.7991,207.8021,209.5251,0,0,left,1.2123,,209.5298,209.5315,,0,,209.5331,209.5355,,0,,1,209.5355,209.5356,209.5371,211.0308,0,9,9,9,1,0.8,0.2,0.6,0.4,1,0,,,,,,,,,,,,,,,,,,,,,,,,,,,,,,,,,,,,
,,66715c98b42ef93f2389ce3f,66fc99c266b2bce0bebea4c5,2024-10-01_17h58.21.726,mdp,2024.2.1,Win32,119.047619,66fa4ebf79326e780c390304,,,,,,,,,,,,,,,,,,,,,211.032,211.032,211.035,213.0832,0,0,left,1.5375,,213.0869,213.0885,,0,,213.0901,213.0915,,0,,1,213.0917,213.0918,213.0939,214.5878,0,10,10,10,1,0.8,0.2,0.6,0.4,1,0,,,,,,,,,,,,,,,,,,,,,,,,,,,,,,,,,,,,
,,66715c98b42ef93f2389ce3f,66fc99c266b2bce0bebea4c5,2024-10-01_17h58.21.726,mdp,2024.2.1,Win32,119.047619,66fa4ebf79326e780c390304,,,,,,,,,,,,,,,,,,,,,214.5887,214.5888,214.5908,215.8078,1,0,right,0.7018,,215.8113,215.8129,,0,,215.8145,215.8168,,1,,1,215.817,215.8171,215.8191,217.3221,0,11,11,11,1,0.8,0.2,0.6,0.4,1,0,,,,,,,,,,,,,,,,,,,,,,,,,,,,,,,,,,,,
,,66715c98b42ef93f2389ce3f,66fc99c266b2bce0bebea4c5,2024-10-01_17h58.21.726,mdp,2024.2.1,Win32,119.047619,66fa4ebf79326e780c390304,,,,,,,,,,,,,,,,,,,,,217.3231,217.3231,217.3271,218.5311,1,0,right,0.6952,,218.5343,218.5365,,1,,218.5382,218.5398,,0,,1,218.5398,218.5398,218.5423,220.0366,0,12,12,12,1,0.8,0.2,0.6,0.4,1,0,,,,,,,,,,,,,,,,,,,,,,,,,,,,,,,,,,,,
,,66715c98b42ef93f2389ce3f,66fc99c266b2bce0bebea4c5,2024-10-01_17h58.21.726,mdp,2024.2.1,Win32,119.047619,66fa4ebf79326e780c390304,,,,,,,,,,,,,,,,,,,,,220.0377,220.0378,220.0402,221.192,1,1,right,0.6381,,221.1953,221.1972,,0,,221.1999,221.2015,,0,,0,221.2016,221.2016,221.2036,222.6962,0,13,13,13,1,0.8,0.2,0.6,0.4,1,0,,,,,,,,,,,,,,,,,,,,,,,,,,,,,,,,,,,,
,,66715c98b42ef93f2389ce3f,66fc99c266b2bce0bebea4c5,2024-10-01_17h58.21.726,mdp,2024.2.1,Win32,119.047619,66fa4ebf79326e780c390304,,,,,,,,,,,,,,,,,,,,,222.6973,222.6973,222.7019,224.6973,1,0,right,1.4862,,224.7015,224.7043,,0,,224.7062,224.7086,,1,,1,224.7088,224.7088,224.7106,226.2042,0,14,14,14,1,0.8,0.2,0.6,0.4,1,0,,,,,,,,,,,,,,,,,,,,,,,,,,,,,,,,,,,,
,,66715c98b42ef93f2389ce3f,66fc99c266b2bce0bebea4c5,2024-10-01_17h58.21.726,mdp,2024.2.1,Win32,119.047619,66fa4ebf79326e780c390304,,,,,,,,,,,,,,,,,,,,,226.2056,226.2057,226.2094,227.7813,0,0,left,1.0626,,227.7849,227.7884,,1,,227.7915,227.7935,,0,,1,227.7939,227.794,227.7962,229.2922,0,15,15,15,1,0.8,0.2,0.6,0.4,1,0,,,,,,,,,,,,,,,,,,,,,,,,,,,,,,,,,,,,
,,66715c98b42ef93f2389ce3f,66fc99c266b2bce0bebea4c5,2024-10-01_17h58.21.726,mdp,2024.2.1,Win32,119.047619,66fa4ebf79326e780c390304,,,,,,,,,,,,,,,,,,,,,229.294,229.294,229.2964,230.3912,1,0,right,0.5807,,230.3951,230.3973,,0,,230.4,230.4023,,0,,1,230.4024,230.4024,230.4047,231.9038,0,16,16,16,1,0.8,0.2,0.6,0.4,1,0,,,,,,,,,,,,,,,,,,,,,,,,,,,,,,,,,,,,
,,66715c98b42ef93f2389ce3f,66fc99c266b2bce0bebea4c5,2024-10-01_17h58.21.726,mdp,2024.2.1,Win32,119.047619,66fa4ebf79326e780c390304,,,,,,,,,,,,,,,,,,,,,231.9049,231.9049,231.9113,233.3374,1,1,right,0.9181,,233.3413,233.3433,,0,,233.3451,233.3464,,0,,0,233.3465,233.3465,233.3495,234.8427,0,17,17,17,1,0.8,0.2,0.6,0.4,1,0,,,,,,,,,,,,,,,,,,,,,,,,,,,,,,,,,,,,
,,66715c98b42ef93f2389ce3f,66fc99c266b2bce0bebea4c5,2024-10-01_17h58.21.726,mdp,2024.2.1,Win32,119.047619,66fa4ebf79326e780c390304,,,,,,,,,,,,,,,,,,,,,234.8444,234.8444,234.8472,236.3259,0,1,left,0.9639,,236.3315,236.3345,,0,,236.3372,236.3402,,0,,0,236.3403,236.3404,236.3452,237.8358,0,18,18,18,1,0.8,0.2,0.6,0.4,1,0,,,,,,,,,,,,,,,,,,,,,,,,,,,,,,,,,,,,
,,66715c98b42ef93f2389ce3f,66fc99c266b2bce0bebea4c5,2024-10-01_17h58.21.726,mdp,2024.2.1,Win32,119.047619,66fa4ebf79326e780c390304,,,,,,,,,,,,,,,,,,,,,237.8373,237.8374,237.843,240.1713,0,0,left,1.8153,,240.1746,240.1769,,0,,240.1803,240.1824,,1,,1,240.1826,240.1826,240.1849,241.6758,0,19,19,19,1,0.2,0.8,0.8,0.2,1,0,,,,,,,,,,,,,,,,,,,,,,,,,,,,,,,,,,,,
,,66715c98b42ef93f2389ce3f,66fc99c266b2bce0bebea4c5,2024-10-01_17h58.21.726,mdp,2024.2.1,Win32,119.047619,66fa4ebf79326e780c390304,,,,,,,,,,,,,,,,,,,,,241.6783,241.6783,241.6837,243.4321,0,0,left,1.2297,,243.4366,243.4405,,1,,243.4446,243.4473,,1,,1,243.4475,243.4475,243.4494,244.9417,0,20,20,20,1,0.2,0.8,0.8,0.2,1,0,,,,,,,,,,,,,,,,,,,,,,,,,,,,,,,,,,,,
,,66715c98b42ef93f2389ce3f,66fc99c266b2bce0bebea4c5,2024-10-01_17h58.21.726,mdp,2024.2.1,Win32,119.047619,66fa4ebf79326e780c390304,,,,,,,,,,,,,,,,,,,,,244.9429,244.9429,244.9474,246.4804,1,0,right,1.0233,,246.4833,246.4848,,1,,246.4874,246.4893,,1,,1,246.4894,246.4894,246.4914,247.9842,0,21,21,21,1,0.8,0.2,0.4,0.6,1,0,,,,,,,,,,,,,,,,,,,,,,,,,,,,,,,,,,,,
,,66715c98b42ef93f2389ce3f,66fc99c266b2bce0bebea4c5,2024-10-01_17h58.21.726,mdp,2024.2.1,Win32,119.047619,66fa4ebf79326e780c390304,,,,,,,,,,,,,,,,,,,,,247.9858,247.9859,247.9903,250.2171,1,0,right,1.7162,,250.2234,250.2259,,0,,250.2289,250.2309,,0,,1,250.231,250.2311,250.2329,251.7341,0,22,22,22,1,0.8,0.2,0.4,0.6,1,0,,,,,,,,,,,,,,,,,,,,,,,,,,,,,,,,,,,,
,,66715c98b42ef93f2389ce3f,66fc99c266b2bce0bebea4c5,2024-10-01_17h58.21.726,mdp,2024.2.1,Win32,119.047619,66fa4ebf79326e780c390304,,,,,,,,,,,,,,,,,,,,,251.7351,251.7351,251.7386,253.6656,1,1,right,1.4152,,253.6668,253.6674,,1,,253.668,253.6687,,1,,0,253.6688,253.6688,253.6701,255.1661,0,23,23,23,1,0.8,0.2,0.4,0.6,1,0,,,,,,,,,,,,,,,,,,,,,,,,,,,,,,,,,,,,
,,66715c98b42ef93f2389ce3f,66fc99c266b2bce0bebea4c5,2024-10-01_17h58.21.726,mdp,2024.2.1,Win32,119.047619,66fa4ebf79326e780c390304,,,,,,,,,,,,,,,,,,,,,255.1667,255.1668,255.17,256.8269,0,0,left,1.1427,,256.8306,256.8329,,0,,256.8358,256.8373,,1,,1,256.8374,256.8374,256.8391,258.3322,0,24,24,24,1,0.8,0.2,0.4,0.6,1,0,,,,,,,,,,,,,,,,,,,,,,,,,,,,,,,,,,,,
,,66715c98b42ef93f2389ce3f,66fc99c266b2bce0bebea4c5,2024-10-01_17h58.21.726,mdp,2024.2.1,Win32,119.047619,66fa4ebf79326e780c390304,,,,,,,,,,,,,,,,,,,,,258.333,258.333,258.3364,259.7684,0,1,left,0.9189,,259.7729,259.7757,,0,,259.7797,259.7817,,1,,0,259.7818,259.7818,259.7835,261.2793,0,25,25,25,1,0.8,0.2,0.4,0.6,1,0,,,,,,,,,,,,,,,,,,,,,,,,,,,,,,,,,,,,
,,66715c98b42ef93f2389ce3f,66fc99c266b2bce0bebea4c5,2024-10-01_17h58.21.726,mdp,2024.2.1,Win32,119.047619,66fa4ebf79326e780c390304,,,,,,,,,,,,,,,,,,,,,261.2807,261.2807,261.2828,262.9494,1,0,right,1.1533,,262.9531,262.955,,0,,262.9567,262.9578,,1,,1,262.9578,262.9578,262.9597,264.4572,0,26,26,26,1,0.6,0.4,0.6,0.4,1,0,,,,,,,,,,,,,,,,,,,,,,,,,,,,,,,,,,,,
,,66715c98b42ef93f2389ce3f,66fc99c266b2bce0bebea4c5,2024-10-01_17h58.21.726,mdp,2024.2.1,Win32,119.047619,66fa4ebf79326e780c390304,,,,,,,,,,,,,,,,,,,,,264.4602,264.4602,264.464,265.9265,1,0,right,0.9425,,265.9309,265.9341,,0,,265.9368,265.9391,,1,,1,265.9392,265.9392,265.9424,267.4368,0,27,27,27,1,0.6,0.4,0.6,0.4,1,0,,,,,,,,,,,,,,,,,,,,,,,,,,,,,,,,,,,,
,,66715c98b42ef93f2389ce3f,66fc99c266b2bce0bebea4c5,2024-10-01_17h58.21.726,mdp,2024.2.1,Win32,119.047619,66fa4ebf79326e780c390304,,,,,,,,,,,,,,,,,,,,,267.438,267.438,267.4407,269.2318,1,1,right,1.2762,,269.2361,269.2378,,0,,269.2395,269.2409,,0,,0,269.2413,269.2414,269.2432,270.7434,0,28,28,28,1,0.6,0.4,0.6,0.4,1,0,,,,,,,,,,,,,,,,,,,,,,,,,,,,,,,,,,,,
,,66715c98b42ef93f2389ce3f,66fc99c266b2bce0bebea4c5,2024-10-01_17h58.21.726,mdp,2024.2.1,Win32,119.047619,66fa4ebf79326e780c390304,,,,,,,,,,,,,,,,,,,,,270.7451,270.7451,270.7497,272.686,1,1,right,1.4287,,272.6896,272.6929,,0,,272.6957,272.6984,,1,,0,272.6984,272.6984,272.701,274.1951,0,29,29,29,1,0.8,0.2,0.4,0.6,1,0,,,,,,,,,,,,,,,,,,,,,,,,,,,,,,,,,,,,
,,66715c98b42ef93f2389ce3f,66fc99c266b2bce0bebea4c5,2024-10-01_17h58.21.726,mdp,2024.2.1,Win32,119.047619,66fa4ebf79326e780c390304,,,,,,,,,,,,,,,,,,,,,274.1962,274.1963,274.2002,275.8507,0,0,left,1.1419,,275.8539,275.8563,,0,,275.859,275.8609,,0,,1,275.8611,275.8611,275.8628,277.362,0,30,30,30,1,0.6,0.4,0.2,0.8,1,0,,,,,,,,,,,,,,,,,,,,,,,,,,,,,,,,,,,,
,,66715c98b42ef93f2389ce3f,66fc99c266b2bce0bebea4c5,2024-10-01_17h58.21.726,mdp,2024.2.1,Win32,119.047619,66fa4ebf79326e780c390304,,,,,,,,,,,,,,,,,,,,,277.3638,277.3639,277.3685,279.4463,0,0,left,1.5675,,279.4497,279.4523,,0,,279.4541,279.4552,,0,,1,279.4552,279.4552,279.4576,280.9525,0,31,31,31,1,0.6,0.4,0.2,0.8,1,0,,,,,,,,,,,,,,,,,,,,,,,,,,,,,,,,,,,,
,,66715c98b42ef93f2389ce3f,66fc99c266b2bce0bebea4c5,2024-10-01_17h58.21.726,mdp,2024.2.1,Win32,119.047619,66fa4ebf79326e780c390304,,,,,,,,,,,,,,,,,,,,,280.9534,280.9534,280.9565,282.7117,0,0,left,1.2451,,282.7134,282.716,,0,,282.7186,282.7201,,0,,1,282.7202,282.7202,282.7216,284.2202,0,32,32,32,1,0.6,0.4,0.2,0.8,1,0,,,,,,,,,,,,,,,,,,,,,,,,,,,,,,,,,,,,
,,66715c98b42ef93f2389ce3f,66fc99c266b2bce0bebea4c5,2024-10-01_17h58.21.726,mdp,2024.2.1,Win32,119.047619,66fa4ebf79326e780c390304,,,,,,,,,,,,,,,,,,,,,284.221,284.2211,284.2251,285.8654,1,1,right,1.1231,,285.8693,285.8713,,1,,285.8744,285.8764,,0,,0,285.8764,285.8765,285.8781,287.3779,0,33,33,33,1,0.6,0.4,0.2,0.8,1,0,,,,,,,,,,,,,,,,,,,,,,,,,,,,,,,,,,,,
,,66715c98b42ef93f2389ce3f,66fc99c266b2bce0bebea4c5,2024-10-01_17h58.21.726,mdp,2024.2.1,Win32,119.047619,66fa4ebf79326e780c390304,,,,,,,,,,,,,,,,,,,,,287.3788,287.3789,287.3831,288.5548,1,1,right,0.6609,,288.5588,288.5602,,1,,288.5617,288.564,,0,,0,288.564,288.5641,288.5668,290.06,0,34,34,34,1,0.6,0.4,0.2,0.8,1,0,,,,,,,,,,,,,,,,,,,,,,,,,,,,,,,,,,,,
,,66715c98b42ef93f2389ce3f,66fc99c266b2bce0bebea4c5,2024-10-01_17h58.21.726,mdp,2024.2.1,Win32,119.047619,66fa4ebf79326e780c390304,,,,,,,,,,,,,,,,,,,,,290.0611,290.0611,290.0644,291.224,1,1,right,0.6501,,291.225,291.2256,,1,,291.2263,291.227,,1,,0,291.227,291.227,291.2275,292.7251,0,35,35,35,1,0.6,0.4,0.2,0.8,1,0,,,,,,,,,,,,,,,,,,,,,,,,,,,,,,,,,,,,
,,66715c98b42ef93f2389ce3f,66fc99c266b2bce0bebea4c5,2024-10-01_17h58.21.726,mdp,2024.2.1,Win32,119.047619,66fa4ebf79326e780c390304,,,,,,,,,,,,,,,,,,,,,292.7256,292.7256,292.7267,313.5889,1,1,right,20.3575,,313.5899,313.5908,,1,,313.5914,313.5922,,1,,0,313.5923,313.5923,313.5941,315.0989,0,36,36,36,1,0.6,0.4,0.2,0.8,1,0,,,,,,,,,,,,,,,,,,,,,,,,,,,,,,,,,,,,
,,66715c98b42ef93f2389ce3f,66fc99c266b2bce0bebea4c5,2024-10-01_17h58.21.726,mdp,2024.2.1,Win32,119.047619,66fa4ebf79326e780c390304,,,,,,,,,,,,,,,,,,,,,315.1013,315.1014,315.1059,316.5656,0,0,left,0.9517,,316.57,316.5711,,0,,316.5723,316.5732,,0,,1,316.5733,316.5733,316.5743,318.0705,0,37,37,37,1,0.6,0.4,0.2,0.8,1,0,,,,,,,,,,,,,,,,,,,,,,,,,,,,,,,,,,,,
,,66715c98b42ef93f2389ce3f,66fc99c266b2bce0bebea4c5,2024-10-01_17h58.21.726,mdp,2024.2.1,Win32,119.047619,66fa4ebf79326e780c390304,,,,,,,,,,,,,,,,,,,,,318.0716,318.0716,318.0736,323.1332,0,1,left,4.5449,,323.138,323.1453,,1,,323.1484,323.1517,,1,,0,323.152,323.1521,323.1549,324.6534,0,38,38,38,1,0.2,0.8,0.6,0.4,1,0,,,,,,,,,,,,,,,,,,,,,,,,,,,,,,,,,,,,
,,66715c98b42ef93f2389ce3f,66fc99c266b2bce0bebea4c5,2024-10-01_17h58.21.726,mdp,2024.2.1,Win32,119.047619,66fa4ebf79326e780c390304,,,,,,,,,,,,,,,,,,,,,324.6546,324.6547,324.6574,326.414,1,1,right,1.2446,,326.417,326.4193,,0,,326.4215,326.4227,,1,,0,326.4228,326.4229,326.4248,327.9203,0,39,39,39,1,0.2,0.8,0.6,0.4,1,0,,,,,,,,,,,,,,,,,,,,,,,,,,,,,,,,,,,,
,,66715c98b42ef93f2389ce3f,66fc99c266b2bce0bebea4c5,2024-10-01_17h58.21.726,mdp,2024.2.1,Win32,119.047619,66fa4ebf79326e780c390304,,,,,,,,,,,,,,,,,,,,,327.9212,327.9212,327.9292,331.306,1,0,right,2.8711,,331.3093,331.3112,,0,,331.3128,331.314,,0,,1,331.3143,331.3143,331.3161,332.8104,0,40,40,40,1,0.2,0.8,0.6,0.4,1,0,,,,,,,,,,,,,,,,,,,,,,,,,,,,,,,,,,,,
,,66715c98b42ef93f2389ce3f,66fc99c266b2bce0bebea4c5,2024-10-01_17h58.21.726,mdp,2024.2.1,Win32,119.047619,66fa4ebf79326e780c390304,,,,,,,,,,,,,,,,,,,,,332.8114,332.8115,332.8138,335.3755,0,1,left,2.0471,,335.3801,335.3834,,1,,335.3866,335.3904,,1,,0,335.3905,335.3905,335.3945,336.8832,0,41,41,41,1,0.2,0.8,0.6,0.4,1,0,,,,,,,,,,,,,,,,,,,,,,,,,,,,,,,,,,,,
,,66715c98b42ef93f2389ce3f,66fc99c266b2bce0bebea4c5,2024-10-01_17h58.21.726,mdp,2024.2.1,Win32,119.047619,66fa4ebf79326e780c390304,,,,,,,,,,,,,,,,,,,,,336.8848,336.8848,336.8881,338.4142,1,0,right,1.0098,,338.4183,338.4209,,0,,338.4242,338.4259,,0,,1,338.426,338.426,338.4276,339.9268,0,42,42,42,1,0.2,0.8,0.6,0.4,1,0,,,,,,,,,,,,,,,,,,,,,,,,,,,,,,,,,,,,
,,66715c98b42ef93f2389ce3f,66fc99c266b2bce0bebea4c5,2024-10-01_17h58.21.726,mdp,2024.2.1,Win32,119.047619,66fa4ebf79326e780c390304,,,,,,,,,,,,,,,,,,,,,339.9277,339.9277,339.9307,341.4801,0,0,left,1.0378,,341.4831,341.485,,1,,341.4865,341.4882,,0,,1,341.4883,341.4883,341.4899,342.9843,0,43,43,43,1,0.2,0.8,0.6,0.4,1,0,,,,,,,,,,,,,,,,,,,,,,,,,,,,,,,,,,,,
,,66715c98b42ef93f2389ce3f,66fc99c266b2bce0bebea4c5,2024-10-01_17h58.21.726,mdp,2024.2.1,Win32,119.047619,66fa4ebf79326e780c390304,,,,,,,,,,,,,,,,,,,,,342.9853,342.9853,342.9883,344.6533,0,1,left,1.1514,,344.6572,344.6589,,1,,344.6605,344.6617,,1,,0,344.6618,344.6618,344.6653,346.1573,0,44,44,44,1,0.2,0.8,0.6,0.4,1,0,,,,,,,,,,,,,,,,,,,,,,,,,,,,,,,,,,,,
,,66715c98b42ef93f2389ce3f,66fc99c266b2bce0bebea4c5,2024-10-01_17h58.21.726,mdp,2024.2.1,Win32,119.047619,66fa4ebf79326e780c390304,,,,,,,,,,,,,,,,,,,,,346.1587,346.1588,346.1611,347.9902,1,0,right,1.3124,,347.9924,347.994,,1,,347.9968,347.9989,,0,,1,347.999,347.999,348.0003,349.4953,0,45,45,45,1,0.2,0.8,0.6,0.4,1,0,,,,,,,,,,,,,,,,,,,,,,,,,,,,,,,,,,,,
,,66715c98b42ef93f2389ce3f,66fc99c266b2bce0bebea4c5,2024-10-01_17h58.21.726,mdp,2024.2.1,Win32,119.047619,66fa4ebf79326e780c390304,,,,,,,,,,,,,,,,,,,,,349.4965,349.4966,349.4985,352.5881,1,1,right,1.4398,,352.5915,352.5938,,1,,352.5966,352.5983,,1,,0,352.5984,352.5984,352.6004,354.0995,0,46,46,46,1,0.8,0.2,0.4,0.6,1,0,,,,,,,,,,,,,,,,,,,,,,,,,,,,,,,,,,,,
,,66715c98b42ef93f2389ce3f,66fc99c266b2bce0bebea4c5,2024-10-01_17h58.21.726,mdp,2024.2.1,Win32,119.047619,66fa4ebf79326e780c390304,,,,,,,,,,,,,,,,,,,,,354.1006,354.1006,354.1036,355.4544,0,0,left,0.8455,,355.4589,355.4612,,0,,355.4632,355.4666,,1,,1,355.4667,355.4667,355.4693,356.9594,0,47,47,47,1,0.8,0.2,0.4,0.6,1,0,,,,,,,,,,,,,,,,,,,,,,,,,,,,,,,,,,,,
,,66715c98b42ef93f2389ce3f,66fc99c266b2bce0bebea4c5,2024-10-01_17h58.21.726,mdp,2024.2.1,Win32,119.047619,66fa4ebf79326e780c390304,,,,,,,,,,,,,,,,,,,,,356.9619,356.9619,356.9646,358.0624,0,1,left,0.5838,,358.0653,358.0672,,1,,358.0697,358.0716,,1,,0,358.0717,358.0717,358.0734,359.5665,0,48,48,48,1,0.4,0.6,0.6,0.4,1,0,,,,,,,,,,,,,,,,,,,,,,,,,,,,,,,,,,,,
,,66715c98b42ef93f2389ce3f,66fc99c266b2bce0bebea4c5,2024-10-01_17h58.21.726,mdp,2024.2.1,Win32,119.047619,66fa4ebf79326e780c390304,,,,,,,,,,,,,,,,,,,,,359.5679,359.5687,359.5713,360.9433,1,0,right,0.8629,,360.947,360.9487,,0,,360.9506,360.9527,,1,,1,360.9528,360.9528,360.9543,362.4488,0,49,49,49,1,0.6,0.4,0.8,0.2,1,0,,,,,,,,,,,,,,,,,,,,,,,,,,,,,,,,,,,,
,,66715c98b42ef93f2389ce3f,66fc99c266b2bce0bebea4c5,2024-10-01_17h58.21.726,mdp,2024.2.1,Win32,119.047619,66fa4ebf79326e780c390304,,,,,,,,,,,,,,,,,,,,,,,,,,,,,,,,,,,,,,,,,,,,,,,,,,,,,,,,362.4512,420.9619,0,0,0,2,1,imgs/giraffe.png,imgs/rabbit.png,imgs/dog.png,imgs/squirrel.png,imgs/pig.png,,,,,,,,,,,,,,,,,,,,,,,,
,,66715c98b42ef93f2389ce3f,66fc99c266b2bce0bebea4c5,2024-10-01_17h58.21.726,mdp,2024.2.1,Win32,119.047619,66fa4ebf79326e780c390304,,,,,,,,,,,,,,2,seqs/st2seq31.csv,420.9656,428.0636,space,6.5843,,428.0872,428.0873,428.0895,429.8979,1,0,right,1.274,,429.9024,431.6573,1,1,right,431.6606,431.6619,,1,,0,431.662,431.662,431.664,433.1649,0,0,0,0,1,0.4,0.6,0.8,0.2,,,,,,,,,,,,,,,1.2224,,0.8,0.2,0.4,0.6,0.8,0.2,0.4,0.6,1,0,,,,,,,,,,,,
,,66715c98b42ef93f2389ce3f,66fc99c266b2bce0bebea4c5,2024-10-01_17h58.21.726,mdp,2024.2.1,Win32,119.047619,66fa4ebf79326e780c390304,,,,,,,,,,,,,,,,,,,,,433.1675,433.1676,433.1713,434.8907,1,1,right,1.2099,,434.8941,436.7511,1,1,right,436.7538,436.7561,,1,,0,436.7564,436.7564,436.7585,438.2513,0,1,1,1,1,0.4,0.6,0.8,0.2,,,,,,,,,,,,,,,1.3087,,0.8,0.2,0.4,0.6,0.8,0.2,0.4,0.6,1,0,,,,,,,,,,,,
,,66715c98b42ef93f2389ce3f,66fc99c266b2bce0bebea4c5,2024-10-01_17h58.21.726,mdp,2024.2.1,Win32,119.047619,66fa4ebf79326e780c390304,,,,,,,,,,,,,,,,,,,,,438.2522,438.2522,438.255,439.7849,0,0,left,1.0171,,439.7892,440.9393,0,0,left,440.9433,440.9449,,0,,1,440.9449,440.945,440.9473,442.4441,0,2,2,2,1,0.4,0.6,0.8,0.2,,,,,,,,,,,,,,,0.6273,,0.8,0.2,0.4,0.6,0.8,0.2,0.4,0.6,1,0,,,,,,,,,,,,
,,66715c98b42ef93f2389ce3f,66fc99c266b2bce0bebea4c5,2024-10-01_17h58.21.726,mdp,2024.2.1,Win32,119.047619,66fa4ebf79326e780c390304,,,,,,,,,,,,,,,,,,,,,442.4459,442.4459,442.449,444.1556,0,0,left,1.1939,,444.1586,445.0124,0,0,left,445.0158,445.0179,,1,,1,445.0179,445.0179,445.0197,446.5208,0,3,3,3,1,0.4,0.6,0.8,0.2,,,,,,,,,,,,,,,0.3445,,0.8,0.2,0.4,0.6,0.8,0.2,0.4,0.6,1,0,,,,,,,,,,,,
,,66715c98b42ef93f2389ce3f,66fc99c266b2bce0bebea4c5,2024-10-01_17h58.21.726,mdp,2024.2.1,Win32,119.047619,66fa4ebf79326e780c390304,,,,,,,,,,,,,,,,,,,,,446.5224,446.5224,446.526,448.0388,0,0,left,1.0046,,448.0415,449.022,0,0,left,449.025,449.0265,,0,,1,449.0265,449.0267,449.0293,450.5293,0,4,4,4,1,0.4,0.6,0.8,0.2,,,,,,,,,,,,,,,0.4712,,0.8,0.2,0.4,0.6,0.8,0.2,0.4,0.6,1,0,,,,,,,,,,,,
,,66715c98b42ef93f2389ce3f,66fc99c266b2bce0bebea4c5,2024-10-01_17h58.21.726,mdp,2024.2.1,Win32,119.047619,66fa4ebf79326e780c390304,,,,,,,,,,,,,,,,,,,,,450.5302,450.5302,450.5322,451.7109,1,0,right,0.6617,,451.7158,452.8595,1,0,right,452.8646,452.867,,0,,1,452.8672,452.8672,452.8713,454.3651,0,5,5,5,1,0.4,0.6,0.8,0.2,,,,,,,,,,,,,,,0.6277,,0.6,0.4,0.8,0.2,0.8,0.2,0.4,0.6,1,0,,,,,,,,,,,,
,,66715c98b42ef93f2389ce3f,66fc99c266b2bce0bebea4c5,2024-10-01_17h58.21.726,mdp,2024.2.1,Win32,119.047619,66fa4ebf79326e780c390304,,,,,,,,,,,,,,,,,,,,,454.3665,454.3666,454.3711,455.6968,0,0,left,0.8081,,455.701,456.6329,0,1,left,456.6369,456.6389,,0,,0,456.639,456.639,456.641,458.1334,0,6,6,6,1,0.4,0.6,0.8,0.2,,,,,,,,,,,,,,,0.4253,,0.6,0.4,0.8,0.2,0.8,0.2,0.4,0.6,1,0,,,,,,,,,,,,
,,66715c98b42ef93f2389ce3f,66fc99c266b2bce0bebea4c5,2024-10-01_17h58.21.726,mdp,2024.2.1,Win32,119.047619,66fa4ebf79326e780c390304,,,,,,,,,,,,,,,,,,,,,458.1351,458.1352,458.1391,459.9166,1,0,right,1.2632,,459.924,460.8218,1,0,right,460.8248,460.827,,0,,1,460.8272,460.8272,460.8294,462.3287,0,7,7,7,1,0.4,0.6,0.8,0.2,,,,,,,,,,,,,,,0.3875,,0.6,0.4,0.8,0.2,0.8,0.2,0.4,0.6,1,0,,,,,,,,,,,,
,,66715c98b42ef93f2389ce3f,66fc99c266b2bce0bebea4c5,2024-10-01_17h58.21.726,mdp,2024.2.1,Win32,119.047619,66fa4ebf79326e780c390304,,,,,,,,,,,,,,,,,,,,,462.3302,462.3303,462.3334,463.2995,1,0,right,0.452,,463.3027,464.2109,1,0,right,464.2136,464.215,,0,,1,464.2151,464.2151,464.2171,465.7128,0,8,8,8,1,0.4,0.6,0.8,0.2,,,,,,,,,,,,,,,0.396,,0.6,0.4,0.8,0.2,0.8,0.2,0.4,0.6,1,0,,,,,,,,,,,,
,,66715c98b42ef93f2389ce3f,66fc99c266b2bce0bebea4c5,2024-10-01_17h58.21.726,mdp,2024.2.1,Win32,119.047619,66fa4ebf79326e780c390304,,,,,,,,,,,,,,,,,,,,,465.7143,465.7143,465.7165,466.6129,1,1,right,0.3816,,466.6154,467.6467,1,1,right,467.6488,467.6499,,0,,0,467.65,467.65,467.6515,469.1408,0,9,9,9,1,0.4,0.6,0.8,0.2,,,,,,,,,,,,,,,0.511,,0.6,0.4,0.8,0.2,0.8,0.2,0.4,0.6,1,0,,,,,,,,,,,,
,,66715c98b42ef93f2389ce3f,66fc99c266b2bce0bebea4c5,2024-10-01_17h58.21.726,mdp,2024.2.1,Win32,119.047619,66fa4ebf79326e780c390304,,,,,,,,,,,,,,,,,,,,,469.142,469.1429,469.1458,470.1652,0,1,left,0.5103,,470.1682,471.4873,0,0,left,471.4904,471.4928,,0,,1,471.4929,471.4929,471.4947,472.9876,0,10,10,10,1,0.4,0.6,0.8,0.2,,,,,,,,,,,,,,,0.815,,0.6,0.4,0.8,0.2,0.8,0.2,0.4,0.6,1,0,,,,,,,,,,,,
,,66715c98b42ef93f2389ce3f,66fc99c266b2bce0bebea4c5,2024-10-01_17h58.21.726,mdp,2024.2.1,Win32,119.047619,66fa4ebf79326e780c390304,,,,,,,,,,,,,,,,,,,,,472.9885,472.9886,472.991,474.5483,0,0,left,1.0427,,474.5512,475.4846,0,0,left,475.4883,475.4902,,0,,1,475.4904,475.4904,475.4931,476.9893,0,11,11,11,1,0.4,0.6,0.8,0.2,,,,,,,,,,,,,,,0.4048,,0.6,0.4,0.8,0.2,0.8,0.2,0.4,0.6,1,0,,,,,,,,,,,,
,,66715c98b42ef93f2389ce3f,66fc99c266b2bce0bebea4c5,2024-10-01_17h58.21.726,mdp,2024.2.1,Win32,119.047619,66fa4ebf79326e780c390304,,,,,,,,,,,,,,,,,,,,,476.9903,476.9903,476.9935,478.0091,0,1,left,0.5027,,478.0124,479.0085,0,0,left,479.0125,479.0138,,0,,1,479.0139,479.0139,479.0152,480.5098,0,12,12,12,1,0.4,0.6,0.8,0.2,,,,,,,,,,,,,,,0.4722,,0.6,0.4,0.8,0.2,0.8,0.2,0.4,0.6,1,0,,,,,,,,,,,,
,,66715c98b42ef93f2389ce3f,66fc99c266b2bce0bebea4c5,2024-10-01_17h58.21.726,mdp,2024.2.1,Win32,119.047619,66fa4ebf79326e780c390304,,,,,,,,,,,,,,,,,,,,,480.5123,480.5125,480.5165,481.6629,1,1,right,0.637,,481.6683,482.7761,1,1,right,482.7785,482.7799,,1,,0,482.7799,482.7799,482.7813,484.2773,0,13,13,13,1,0.4,0.6,0.8,0.2,,,,,,,,,,,,,,,0.5959,,0.6,0.4,0.8,0.2,0.4,0.6,0.2,0.8,1,0,,,,,,,,,,,,
,,66715c98b42ef93f2389ce3f,66fc99c266b2bce0bebea4c5,2024-10-01_17h58.21.726,mdp,2024.2.1,Win32,119.047619,66fa4ebf79326e780c390304,,,,,,,,,,,,,,,,,,,,,484.2784,484.2784,484.2808,485.462,0,1,left,0.662,,485.4651,486.3825,0,0,left,486.3867,486.3902,,0,,1,486.3904,486.3904,486.3929,487.8884,0,14,14,14,1,0.4,0.6,0.8,0.2,,,,,,,,,,,,,,,0.4042,,0.6,0.4,0.8,0.2,0.4,0.6,0.2,0.8,1,0,,,,,,,,,,,,
,,66715c98b42ef93f2389ce3f,66fc99c266b2bce0bebea4c5,2024-10-01_17h58.21.726,mdp,2024.2.1,Win32,119.047619,66fa4ebf79326e780c390304,,,,,,,,,,,,,,,,,,,,,487.8903,487.8905,487.8945,489.2959,0,0,left,0.882,,489.3004,490.304,0,0,left,490.3081,490.31,,1,,1,490.3101,490.3101,490.312,491.8007,0,15,15,15,1,0.4,0.6,0.8,0.2,,,,,,,,,,,,,,,0.4835,,0.6,0.4,0.8,0.2,0.4,0.6,0.2,0.8,1,0,,,,,,,,,,,,
,,66715c98b42ef93f2389ce3f,66fc99c266b2bce0bebea4c5,2024-10-01_17h58.21.726,mdp,2024.2.1,Win32,119.047619,66fa4ebf79326e780c390304,,,,,,,,,,,,,,,,,,,,,491.8024,491.8025,491.8066,493.1156,1,1,right,0.8045,,493.1188,494.0471,1,1,right,494.0512,494.0528,,1,,0,494.0529,494.0529,494.0545,495.553,0,16,16,16,1,0.4,0.6,0.8,0.2,,,,,,,,,,,,,,,0.4148,,0.6,0.4,0.8,0.2,0.4,0.6,0.2,0.8,1,0,,,,,,,,,,,,
,,66715c98b42ef93f2389ce3f,66fc99c266b2bce0bebea4c5,2024-10-01_17h58.21.726,mdp,2024.2.1,Win32,119.047619,66fa4ebf79326e780c390304,,,,,,,,,,,,,,,,,,,,,495.5552,495.5552,495.5584,497.0892,1,0,right,1.0201,,497.0924,498.019,1,1,right,498.0235,498.0251,,1,,0,498.0252,498.0252,498.0267,499.5274,0,17,17,17,1,0.4,0.6,0.8,0.2,,,,,,,,,,,,,,,0.4103,,0.8,0.2,0.2,0.8,0.4,0.6,0.2,0.8,1,0,,,,,,,,,,,,
,,66715c98b42ef93f2389ce3f,66fc99c266b2bce0bebea4c5,2024-10-01_17h58.21.726,mdp,2024.2.1,Win32,119.047619,66fa4ebf79326e780c390304,,,,,,,,,,,,,,,,,,,,,499.5283,499.5284,499.5316,501.0349,0,1,left,0.991,,501.0389,501.9946,0,1,left,501.9982,501.9995,,0,,0,501.9997,501.9997,502.0014,503.4995,0,18,18,18,1,0.4,0.6,0.8,0.2,,,,,,,,,,,,,,,0.4368,,0.8,0.2,0.2,0.8,0.4,0.6,0.2,0.8,1,0,,,,,,,,,,,,
,,66715c98b42ef93f2389ce3f,66fc99c266b2bce0bebea4c5,2024-10-01_17h58.21.726,mdp,2024.2.1,Win32,119.047619,66fa4ebf79326e780c390304,,,,,,,,,,,,,,,,,,,,,503.5005,503.5005,503.5041,504.8625,0,1,left,0.8459,,504.8655,505.8924,0,1,left,505.8975,505.8994,,0,,0,505.8997,505.8997,505.9015,507.3945,0,19,19,19,1,0.4,0.6,0.8,0.2,,,,,,,,,,,,,,,0.5083,,0.8,0.2,0.2,0.8,0.4,0.6,0.2,0.8,1,0,,,,,,,,,,,,
,,66715c98b42ef93f2389ce3f,66fc99c266b2bce0bebea4c5,2024-10-01_17h58.21.726,mdp,2024.2.1,Win32,119.047619,66fa4ebf79326e780c390304,,,,,,,,,,,,,,,,,,,,,507.3971,507.3971,507.3998,509.3699,1,0,right,1.4596,,509.3737,510.3726,1,1,right,510.3761,510.3786,,1,,0,510.3788,510.3788,510.3822,511.874,0,20,20,20,1,0.4,0.6,0.8,0.2,,,,,,,,,,,,,,,0.4827,,0.8,0.2,0.2,0.8,0.4,0.6,0.2,0.8,1,0,,,,,,,,,,,,
,,66715c98b42ef93f2389ce3f,66fc99c266b2bce0bebea4c5,2024-10-01_17h58.21.726,mdp,2024.2.1,Win32,119.047619,66fa4ebf79326e780c390304,,,,,,,,,,,,,,,,,,,,,511.8759,511.8759,511.8807,512.8438,0,1,left,0.4444,,512.8458,513.8488,0,1,left,513.8526,513.855,,0,,0,513.8552,513.8553,513.8583,515.3579,0,21,21,21,1,0.4,0.6,0.8,0.2,,,,,,,,,,,,,,,0.4829,,0.8,0.2,0.2,0.8,0.4,0.6,0.2,0.8,1,0,,,,,,,,,,,,
,,66715c98b42ef93f2389ce3f,66fc99c266b2bce0bebea4c5,2024-10-01_17h58.21.726,mdp,2024.2.1,Win32,119.047619,66fa4ebf79326e780c390304,,,,,,,,,,,,,,,,,,,,,515.3613,515.3615,515.3651,516.4804,0,1,left,0.6052,,516.4835,517.4204,0,1,left,517.4235,517.425,,1,,0,517.4252,517.4252,517.4278,518.9234,0,22,22,22,1,0.4,0.6,0.8,0.2,,,,,,,,,,,,,,,0.4251,,0.8,0.2,0.2,0.8,0.4,0.6,0.2,0.8,1,0,,,,,,,,,,,,
,,66715c98b42ef93f2389ce3f,66fc99c266b2bce0bebea4c5,2024-10-01_17h58.21.726,mdp,2024.2.1,Win32,119.047619,66fa4ebf79326e780c390304,,,,,,,,,,,,,,,,,,,,,518.9247,518.9247,518.9297,520.5117,1,1,right,1.0746,,520.5155,521.5161,1,1,right,521.5219,521.5236,,1,,0,521.5238,521.5239,521.5265,523.0234,0,23,23,23,1,0.4,0.6,0.8,0.2,,,,,,,,,,,,,,,0.4837,,0.8,0.2,0.2,0.8,0.4,0.6,0.2,0.8,1,0,,,,,,,,,,,,
,,66715c98b42ef93f2389ce3f,66fc99c266b2bce0bebea4c5,2024-10-01_17h58.21.726,mdp,2024.2.1,Win32,119.047619,66fa4ebf79326e780c390304,,,,,,,,,,,,,,,,,,,,,523.0245,523.0246,523.0277,524.6131,1,0,right,1.0736,,524.6161,525.6177,1,1,right,525.6209,525.6227,,0,,0,525.6228,525.6229,525.6252,527.1211,0,24,24,24,1,0.4,0.6,0.8,0.2,,,,,,,,,,,,,,,0.4813,,0.8,0.2,0.2,0.8,0.4,0.6,0.2,0.8,1,0,,,,,,,,,,,,
,,66715c98b42ef93f2389ce3f,66fc99c266b2bce0bebea4c5,2024-10-01_17h58.21.726,mdp,2024.2.1,Win32,119.047619,66fa4ebf79326e780c390304,,,,,,,,,,,,,,,,,,,,,527.123,527.123,527.1265,528.397,1,0,right,0.7537,,528.4015,529.3832,1,0,right,529.3864,529.3889,,0,,1,529.389,529.3891,529.3919,530.8868,0,25,25,25,1,0.4,0.6,0.8,0.2,,,,,,,,,,,,,,,0.4685,,0.8,0.2,0.2,0.8,0.4,0.6,0.2,0.8,1,0,,,,,,,,,,,,
,,66715c98b42ef93f2389ce3f,66fc99c266b2bce0bebea4c5,2024-10-01_17h58.21.726,mdp,2024.2.1,Win32,119.047619,66fa4ebf79326e780c390304,,,,,,,,,,,,,,,,,,,,,530.8878,530.8878,530.8908,532.0732,1,0,right,0.6746,,532.0782,533.1552,1,1,right,533.1586,533.1602,,1,,0,533.1603,533.1603,533.1621,534.6556,0,26,26,26,1,0.4,0.6,0.8,0.2,,,,,,,,,,,,,,,0.5694,,0.8,0.2,0.2,0.8,0.4,0.6,0.2,0.8,1,0,,,,,,,,,,,,
,,66715c98b42ef93f2389ce3f,66fc99c266b2bce0bebea4c5,2024-10-01_17h58.21.726,mdp,2024.2.1,Win32,119.047619,66fa4ebf79326e780c390304,,,,,,,,,,,,,,,,,,,,,534.657,534.6571,534.6601,535.7694,0,1,left,0.5976,,535.7738,536.7906,0,1,left,536.794,536.7956,,0,,0,536.7957,536.7958,536.7992,538.2951,0,27,27,27,1,0.4,0.6,0.8,0.2,,,,,,,,,,,,,,,0.4971,,0.8,0.2,0.2,0.8,0.8,0.2,0.6,0.4,1,0,,,,,,,,,,,,
,,66715c98b42ef93f2389ce3f,66fc99c266b2bce0bebea4c5,2024-10-01_17h58.21.726,mdp,2024.2.1,Win32,119.047619,66fa4ebf79326e780c390304,,,,,,,,,,,,,,,,,,,,,538.2968,538.2968,538.301,539.4234,1,0,right,0.6109,,539.4263,540.4227,1,1,right,540.4246,540.4259,,1,,0,540.4259,540.4259,540.4272,541.9284,0,28,28,28,1,0.4,0.6,0.8,0.2,,,,,,,,,,,,,,,0.4779,,0.8,0.2,0.2,0.8,0.8,0.2,0.6,0.4,1,0,,,,,,,,,,,,
,,66715c98b42ef93f2389ce3f,66fc99c266b2bce0bebea4c5,2024-10-01_17h58.21.726,mdp,2024.2.1,Win32,119.047619,66fa4ebf79326e780c390304,,,,,,,,,,,,,,,,,,,,,541.9295,541.9296,541.9341,543.8659,1,1,right,1.4143,,543.8685,544.7638,1,0,right,544.7674,544.769,,1,,1,544.7691,544.7691,544.7737,546.2652,0,29,29,29,1,0.4,0.6,0.8,0.2,,,,,,,,,,,,,,,0.3615,,0.8,0.2,0.2,0.8,0.8,0.2,0.6,0.4,1,0,,,,,,,,,,,,
,,66715c98b42ef93f2389ce3f,66fc99c266b2bce0bebea4c5,2024-10-01_17h58.21.726,mdp,2024.2.1,Win32,119.047619,66fa4ebf79326e780c390304,,,,,,,,,,,,,,,,,,,,,546.2671,546.2672,546.2697,547.1421,1,0,right,0.3615,,547.145,547.975,1,1,right,547.9806,547.9827,,1,,0,547.9828,547.9828,547.9849,549.481,0,30,30,30,1,0.4,0.6,0.8,0.2,,,,,,,,,,,,,,,0.307,,0.2,0.8,0.8,0.2,0.8,0.2,0.6,0.4,1,0,,,,,,,,,,,,
,,66715c98b42ef93f2389ce3f,66fc99c266b2bce0bebea4c5,2024-10-01_17h58.21.726,mdp,2024.2.1,Win32,119.047619,66fa4ebf79326e780c390304,,,,,,,,,,,,,,,,,,,,,549.4823,549.4823,549.4843,550.3763,1,0,right,0.3844,,550.382,551.2865,1,0,right,551.2902,551.2914,,0,,1,551.2915,551.2915,551.2933,552.7934,0,31,31,31,1,0.4,0.6,0.8,0.2,,,,,,,,,,,,,,,0.3932,,0.2,0.8,0.8,0.2,0.8,0.2,0.6,0.4,1,0,,,,,,,,,,,,
,,66715c98b42ef93f2389ce3f,66fc99c266b2bce0bebea4c5,2024-10-01_17h58.21.726,mdp,2024.2.1,Win32,119.047619,66fa4ebf79326e780c390304,,,,,,,,,,,,,,,,,,,,,552.7947,552.7947,552.7982,553.6753,1,0,right,0.3673,,553.6777,554.5361,1,1,right,554.5393,554.5407,,0,,0,554.5408,554.5408,554.5425,556.0411,0,32,32,32,1,0.4,0.6,0.8,0.2,,,,,,,,,,,,,,,0.3436,,0.2,0.8,0.8,0.2,0.8,0.2,0.6,0.4,1,0,,,,,,,,,,,,
,,66715c98b42ef93f2389ce3f,66fc99c266b2bce0bebea4c5,2024-10-01_17h58.21.726,mdp,2024.2.1,Win32,119.047619,66fa4ebf79326e780c390304,,,,,,,,,,,,,,,,,,,,,556.042,556.042,556.0444,557.0685,0,1,left,0.5121,,557.0716,558.1198,0,0,left,558.122,558.1237,,0,,1,558.1238,558.1239,558.1256,559.6238,0,33,33,33,1,0.4,0.6,0.8,0.2,,,,,,,,,,,,,,,0.53,,0.2,0.8,0.8,0.2,0.8,0.2,0.6,0.4,1,0,,,,,,,,,,,,
,,66715c98b42ef93f2389ce3f,66fc99c266b2bce0bebea4c5,2024-10-01_17h58.21.726,mdp,2024.2.1,Win32,119.047619,66fa4ebf79326e780c390304,,,,,,,,,,,,,,,,,,,,,559.6256,559.6256,559.6282,560.6519,0,1,left,0.5147,,560.6554,561.7776,0,0,left,561.7795,561.7807,,0,,1,561.7807,561.7807,561.7829,563.2814,0,34,34,34,1,0.4,0.6,0.8,0.2,,,,,,,,,,,,,,,0.6138,,0.2,0.8,0.8,0.2,0.8,0.2,0.6,0.4,1,0,,,,,,,,,,,,
,,66715c98b42ef93f2389ce3f,66fc99c266b2bce0bebea4c5,2024-10-01_17h58.21.726,mdp,2024.2.1,Win32,119.047619,66fa4ebf79326e780c390304,,,,,,,,,,,,,,,,,,,,,563.2823,563.2824,563.2857,564.5487,0,1,left,0.7504,,564.5515,565.4396,0,0,left,565.4433,565.4447,,1,,1,565.4448,565.4448,565.4464,566.9473,0,35,35,35,1,0.4,0.6,0.8,0.2,,,,,,,,,,,,,,,0.3747,,0.2,0.8,0.8,0.2,0.8,0.2,0.6,0.4,1,0,,,,,,,,,,,,
,,66715c98b42ef93f2389ce3f,66fc99c266b2bce0bebea4c5,2024-10-01_17h58.21.726,mdp,2024.2.1,Win32,119.047619,66fa4ebf79326e780c390304,,,,,,,,,,,,,,,,,,,,,566.9486,566.9486,566.9509,568.0378,0,1,left,0.5759,,568.0407,568.8606,0,0,left,568.8636,568.865,,0,,1,568.865,568.865,568.8672,570.3609,0,36,36,36,1,0.4,0.6,0.8,0.2,,,,,,,,,,,,,,,0.3066,,0.2,0.8,0.8,0.2,0.8,0.2,0.6,0.4,1,0,,,,,,,,,,,,
,,66715c98b42ef93f2389ce3f,66fc99c266b2bce0bebea4c5,2024-10-01_17h58.21.726,mdp,2024.2.1,Win32,119.047619,66fa4ebf79326e780c390304,,,,,,,,,,,,,,,,,,,,,570.3614,570.3615,570.3632,571.5815,0,1,left,0.7091,,571.5835,572.5339,0,1,left,572.5363,572.5368,,0,,0,572.5369,572.5369,572.5375,574.0391,0,37,37,37,1,0.4,0.6,0.8,0.2,,,,,,,,,,,,,,,0.4364,,0.2,0.8,0.8,0.2,0.8,0.2,0.6,0.4,1,0,,,,,,,,,,,,
,,66715c98b42ef93f2389ce3f,66fc99c266b2bce0bebea4c5,2024-10-01_17h58.21.726,mdp,2024.2.1,Win32,119.047619,66fa4ebf79326e780c390304,,,,,,,,,,,,,,,,,,,,,574.04,574.0401,574.0431,574.981,1,0,right,0.433,,574.9852,575.9005,1,0,right,575.9042,575.9068,,1,,1,575.9069,575.9069,575.91,577.406,0,38,38,38,1,0.4,0.6,0.8,0.2,,,,,,,,,,,,,,,0.3782,,0.2,0.8,0.8,0.2,0.8,0.2,0.6,0.4,1,0,,,,,,,,,,,,
,,66715c98b42ef93f2389ce3f,66fc99c266b2bce0bebea4c5,2024-10-01_17h58.21.726,mdp,2024.2.1,Win32,119.047619,66fa4ebf79326e780c390304,,,,,,,,,,,,,,,,,,,,,577.4075,577.4075,577.4111,578.498,1,0,right,0.576,,578.5014,579.5116,1,0,right,579.5139,579.5149,,1,,1,579.515,579.515,579.5174,581.0119,0,39,39,39,1,0.4,0.6,0.8,0.2,,,,,,,,,,,,,,,0.5002,,0.2,0.8,0.8,0.2,0.8,0.2,0.6,0.4,1,0,,,,,,,,,,,,
,,66715c98b42ef93f2389ce3f,66fc99c266b2bce0bebea4c5,2024-10-01_17h58.21.726,mdp,2024.2.1,Win32,119.047619,66fa4ebf79326e780c390304,,,,,,,,,,,,,,,,,,,,,581.0127,581.0127,581.0154,582.1424,1,0,right,0.611,,582.1453,582.9838,1,0,right,582.9869,582.9882,,0,,1,582.9882,582.9882,582.9896,584.4902,0,40,40,40,1,0.4,0.6,0.8,0.2,,,,,,,,,,,,,,,0.3301,,0.2,0.8,0.8,0.2,0.8,0.2,0.6,0.4,1,0,,,,,,,,,,,,
,,66715c98b42ef93f2389ce3f,66fc99c266b2bce0bebea4c5,2024-10-01_17h58.21.726,mdp,2024.2.1,Win32,119.047619,66fa4ebf79326e780c390304,,,,,,,,,,,,,,,,,,,,,584.4918,584.4918,584.493,585.5803,1,1,right,0.5671,,585.5825,586.4881,1,0,right,586.4918,586.4938,,1,,1,586.4938,586.4938,586.4959,587.9941,0,41,41,41,1,0.4,0.6,0.8,0.2,,,,,,,,,,,,,,,0.3773,,0.2,0.8,0.8,0.2,0.8,0.2,0.6,0.4,1,0,,,,,,,,,,,,
,,66715c98b42ef93f2389ce3f,66fc99c266b2bce0bebea4c5,2024-10-01_17h58.21.726,mdp,2024.2.1,Win32,119.047619,66fa4ebf79326e780c390304,,,,,,,,,,,,,,,,,,,,,587.9954,587.9954,587.9988,589.109,1,0,right,0.5938,,589.1155,590.3384,1,1,right,590.3425,590.3448,,1,,0,590.345,590.345,590.3471,591.8435,0,42,42,42,1,0.4,0.6,0.8,0.2,,,,,,,,,,,,,,,0.7018,,0.6,0.4,0.6,0.4,0.8,0.2,0.6,0.4,1,0,,,,,,,,,,,,
,,66715c98b42ef93f2389ce3f,66fc99c266b2bce0bebea4c5,2024-10-01_17h58.21.726,mdp,2024.2.1,Win32,119.047619,66fa4ebf79326e780c390304,,,,,,,,,,,,,,,,,,,,,591.8445,591.8445,591.8465,592.8059,0,1,left,0.4449,,592.8085,593.7461,0,0,left,593.7494,593.751,,0,,1,593.7511,593.7511,593.7526,595.2523,0,43,43,43,1,0.4,0.6,0.8,0.2,,,,,,,,,,,,,,,0.4198,,0.6,0.4,0.6,0.4,0.8,0.2,0.6,0.4,1,0,,,,,,,,,,,,
,,66715c98b42ef93f2389ce3f,66fc99c266b2bce0bebea4c5,2024-10-01_17h58.21.726,mdp,2024.2.1,Win32,119.047619,66fa4ebf79326e780c390304,,,,,,,,,,,,,,,,,,,,,595.2532,595.2532,595.2561,596.2026,0,1,left,0.4339,,596.2052,597.1541,0,0,left,597.1573,597.1593,,0,,1,597.1594,597.1595,597.1608,598.659,0,44,44,44,1,0.4,0.6,0.8,0.2,,,,,,,,,,,,,,,0.4356,,0.6,0.4,0.6,0.4,0.8,0.2,0.6,0.4,1,0,,,,,,,,,,,,
,,66715c98b42ef93f2389ce3f,66fc99c266b2bce0bebea4c5,2024-10-01_17h58.21.726,mdp,2024.2.1,Win32,119.047619,66fa4ebf79326e780c390304,,,,,,,,,,,,,,,,,,,,,598.6604,598.6604,598.6623,599.8552,0,0,left,0.6798,,599.8582,601.1696,0,0,left,601.1738,601.1751,,0,,1,601.1752,601.1752,601.1768,602.6743,0,45,45,45,1,0.4,0.6,0.8,0.2,,,,,,,,,,,,,,,0.7908,,0.6,0.4,0.6,0.4,0.8,0.2,0.6,0.4,1,0,,,,,,,,,,,,
,,66715c98b42ef93f2389ce3f,66fc99c266b2bce0bebea4c5,2024-10-01_17h58.21.726,mdp,2024.2.1,Win32,119.047619,66fa4ebf79326e780c390304,,,,,,,,,,,,,,,,,,,,,602.6759,602.6759,602.6778,604.1444,0,1,left,0.9512,,604.1482,605.0531,0,0,left,605.0564,605.0583,,0,,1,605.0584,605.0584,605.0597,606.5588,0,46,46,46,1,0.4,0.6,0.8,0.2,,,,,,,,,,,,,,,0.3893,,0.6,0.4,0.6,0.4,0.8,0.2,0.6,0.4,1,0,,,,,,,,,,,,
,,66715c98b42ef93f2389ce3f,66fc99c266b2bce0bebea4c5,2024-10-01_17h58.21.726,mdp,2024.2.1,Win32,119.047619,66fa4ebf79326e780c390304,,,,,,,,,,,,,,,,,,,,,606.5596,606.5596,606.5626,607.9263,0,1,left,0.8511,,607.9296,608.9354,0,0,left,608.9393,608.9408,,0,,1,608.9409,608.9409,608.9425,610.4408,0,47,47,47,1,0.4,0.6,0.8,0.2,,,,,,,,,,,,,,,0.4937,,0.6,0.4,0.6,0.4,0.8,0.2,0.6,0.4,1,0,,,,,,,,,,,,
,,66715c98b42ef93f2389ce3f,66fc99c266b2bce0bebea4c5,2024-10-01_17h58.21.726,mdp,2024.2.1,Win32,119.047619,66fa4ebf79326e780c390304,,,,,,,,,,,,,,,,,,,,,610.4419,610.442,610.4446,611.6838,0,0,left,0.7259,,611.688,612.5512,1,0,right,612.5551,612.5567,,0,,1,612.5569,612.5569,612.5584,614.0595,0,48,48,48,1,0.4,0.6,0.8,0.2,,,,,,,,,,,,,,,0.3434,,0.6,0.4,0.6,0.4,0.8,0.2,0.6,0.4,1,0,,,,,,,,,,,,
,,66715c98b42ef93f2389ce3f,66fc99c266b2bce0bebea4c5,2024-10-01_17h58.21.726,mdp,2024.2.1,Win32,119.047619,66fa4ebf79326e780c390304,,,,,,,,,,,,,,,,,,,,,614.0623,614.0623,614.0669,615.0338,1,0,right,0.4601,,615.037,616.3345,1,0,right,616.3388,616.3403,,0,,1,616.3403,616.3403,616.3419,617.8395,0,49,49,49,1,0.4,0.6,0.8,0.2,,,,,,,,,,,,,,,0.7768,,0.2,0.8,0.8,0.2,0.8,0.2,0.6,0.4,1,0,,,,,,,,,,,,
,,66715c98b42ef93f2389ce3f,66fc99c266b2bce0bebea4c5,2024-10-01_17h58.21.726,mdp,2024.2.1,Win32,119.047619,66fa4ebf79326e780c390304,,,,,,,,,,,,,,,,,,,,,,,,,,,,,,,,,,,,,,,,,,,,,,,,,,,,,,,,617.8403,676.349,0,1,1,0,1,imgs/goat.png,imgs/cat.png,imgs/elephant.png,imgs/dog.png,imgs/kangaroo.png,,,,,,,,,,,,,,,,,,,,,,,,
,,66715c98b42ef93f2389ce3f,66fc99c266b2bce0bebea4c5,2024-10-01_17h58.21.726,mdp,2024.2.1,Win32,119.047619,66fa4ebf79326e780c390304,,,,,,,,,,,,,,3,seqs/st3seq2.csv,676.3568,679.6565,space,2.7894,,679.713,679.7131,679.7145,681.9719,1,1,right,1.7209,,681.9793,682.7405,1,1,right,682.7449,683.8429,1,0,right,1,683.843,683.843,683.8463,685.344,0,0,0,0,1,0.6,0.4,0.4,0.6,,,,,,,,,,,,,,,0.2358,,0.4,0.6,0.4,0.6,0.4,0.6,0.6,0.4,,,0.5576,,0.4,0.6,0.2,0.8,0.2,0.8,0.8,0.2,1,0
,,66715c98b42ef93f2389ce3f,66fc99c266b2bce0bebea4c5,2024-10-01_17h58.21.726,mdp,2024.2.1,Win32,119.047619,66fa4ebf79326e780c390304,,,,,,,,,,,,,,,,,,,,,685.3469,685.347,685.3508,686.4857,0,1,left,0.6235,,686.4881,687.2076,0,0,left,687.2107,688.1301,0,1,left,0,688.1304,688.1304,688.1337,689.6275,0,1,1,1,1,0.6,0.4,0.4,0.6,,,,,,,,,,,,,,,0.2142,,0.4,0.6,0.4,0.6,0.4,0.6,0.6,0.4,,,0.3945,,0.4,0.6,0.2,0.8,0.2,0.8,0.8,0.2,1,0
,,66715c98b42ef93f2389ce3f,66fc99c266b2bce0bebea4c5,2024-10-01_17h58.21.726,mdp,2024.2.1,Win32,119.047619,66fa4ebf79326e780c390304,,,,,,,,,,,,,,,,,,,,,689.6288,689.6289,689.631,690.9844,0,1,left,0.8388,,690.9867,691.9299,0,0,left,691.9336,692.5468,0,1,left,0,692.547,692.547,692.5502,694.0433,0,2,2,2,1,0.6,0.4,0.4,0.6,,,,,,,,,,,,,,,0.429,,0.4,0.6,0.4,0.6,0.4,0.6,0.6,0.4,,,0.1021,,0.4,0.6,0.2,0.8,0.2,0.8,0.8,0.2,1,0
,,66715c98b42ef93f2389ce3f,66fc99c266b2bce0bebea4c5,2024-10-01_17h58.21.726,mdp,2024.2.1,Win32,119.047619,66fa4ebf79326e780c390304,,,,,,,,,,,,,,,,,,,,,694.0447,694.0448,694.047,695.2884,1,0,right,0.7292,,695.2924,696.1391,1,1,right,696.1418,696.8872,1,0,right,1,696.8874,696.8874,696.8906,698.3837,0,3,3,3,1,0.6,0.4,0.4,0.6,,,,,,,,,,,,,,,0.3158,,0.4,0.6,0.4,0.6,0.6,0.4,0.2,0.8,,,0.2177,,0.4,0.6,0.2,0.8,0.2,0.8,0.8,0.2,1,0
,,66715c98b42ef93f2389ce3f,66fc99c266b2bce0bebea4c5,2024-10-01_17h58.21.726,mdp,2024.2.1,Win32,119.047619,66fa4ebf79326e780c390304,,,,,,,,,,,,,,,,,,,,,698.3852,698.3853,698.3872,699.1697,1,0,right,0.2772,,699.1732,699.862,1,0,right,699.8657,700.3925,1,1,right,0,700.3927,700.3927,700.3952,701.8911,0,4,4,4,1,0.6,0.4,0.4,0.6,,,,,,,,,,,,,,,0.1784,,0.4,0.6,0.4,0.6,0.6,0.4,0.2,0.8,,,0.0016,,0.4,0.6,0.2,0.8,0.2,0.8,0.8,0.2,1,0
,,66715c98b42ef93f2389ce3f,66fc99c266b2bce0bebea4c5,2024-10-01_17h58.21.726,mdp,2024.2.1,Win32,119.047619,66fa4ebf79326e780c390304,,,,,,,,,,,,,,,,,,,,,701.8923,701.8923,701.895,703.42,1,1,right,1.0125,,703.4233,704.0502,1,1,right,704.0532,705.554,1,0,right,1,705.5543,705.5544,705.5567,707.0564,0,5,5,5,1,0.6,0.4,0.4,0.6,,,,,,,,,,,,,,,0.1057,,0.4,0.6,0.4,0.6,0.6,0.4,0.2,0.8,,,0.9787,,0.4,0.6,0.2,0.8,0.2,0.8,0.8,0.2,1,0
,,66715c98b42ef93f2389ce3f,66fc99c266b2bce0bebea4c5,2024-10-01_17h58.21.726,mdp,2024.2.1,Win32,119.047619,66fa4ebf79326e780c390304,,,,,,,,,,,,,,,,,,,,,707.0588,707.0588,707.0633,708.7679,1,0,right,1.1948,,708.7718,709.7059,1,0,right,709.7091,710.5439,1,0,right,1,710.5441,710.5441,710.5482,712.041,0,6,6,6,1,0.6,0.4,0.4,0.6,,,,,,,,,,,,,,,0.4157,,0.4,0.6,0.4,0.6,0.6,0.4,0.2,0.8,,,0.3193,,0.4,0.6,0.2,0.8,0.2,0.8,0.8,0.2,1,0
,,66715c98b42ef93f2389ce3f,66fc99c266b2bce0bebea4c5,2024-10-01_17h58.21.726,mdp,2024.2.1,Win32,119.047619,66fa4ebf79326e780c390304,,,,,,,,,,,,,,,,,,,,,712.0431,712.0431,712.0474,712.8621,1,1,right,0.3034,,712.8652,714.1288,1,1,right,714.1321,714.9273,1,0,right,1,714.9276,714.9277,714.9308,716.4228,0,7,7,7,1,0.6,0.4,0.4,0.6,,,,,,,,,,,,,,,0.7381,,0.4,0.6,0.4,0.6,0.6,0.4,0.2,0.8,,,0.2779,,0.4,0.6,0.2,0.8,0.2,0.8,0.8,0.2,1,0
,,66715c98b42ef93f2389ce3f,66fc99c266b2bce0bebea4c5,2024-10-01_17h58.21.726,mdp,2024.2.1,Win32,119.047619,66fa4ebf79326e780c390304,,,,,,,,,,,,,,,,,,,,,716.4242,716.4243,716.4275,717.6172,1,0,right,0.6759,,717.6208,718.4929,1,1,right,718.4978,719.3729,1,0,right,1,719.3732,719.3732,719.3775,720.8729,0,8,8,8,1,0.6,0.4,0.4,0.6,,,,,,,,,,,,,,,0.3561,,0.4,0.6,0.4,0.6,0.6,0.4,0.2,0.8,,,0.3629,,0.4,0.6,0.2,0.8,0.2,0.8,0.8,0.2,1,0
,,66715c98b42ef93f2389ce3f,66fc99c266b2bce0bebea4c5,2024-10-01_17h58.21.726,mdp,2024.2.1,Win32,119.047619,66fa4ebf79326e780c390304,,,,,,,,,,,,,,,,,,,,,720.8736,720.8736,720.8757,722.0091,1,0,right,0.6255,,722.0135,723.1503,1,1,right,723.1551,724.0519,1,0,right,1,724.0523,724.0523,724.0561,725.5561,0,9,9,9,1,0.6,0.4,0.4,0.6,,,,,,,,,,,,,,,0.627,,0.4,0.6,0.4,0.6,0.6,0.4,0.2,0.8,,,0.3893,,0.4,0.6,0.2,0.8,0.2,0.8,0.8,0.2,1,0
,,66715c98b42ef93f2389ce3f,66fc99c266b2bce0bebea4c5,2024-10-01_17h58.21.726,mdp,2024.2.1,Win32,119.047619,66fa4ebf79326e780c390304,,,,,,,,,,,,,,,,,,,,,725.5574,725.5575,725.5606,727.8882,1,1,right,1.8139,,727.8904,728.824,1,1,right,728.8279,729.7113,1,0,right,1,729.7116,729.7116,729.7145,731.2135,0,10,10,10,1,0.6,0.4,0.4,0.6,,,,,,,,,,,,,,,0.4166,,0.4,0.6,0.4,0.6,0.6,0.4,0.2,0.8,,,0.3755,,0.4,0.6,0.2,0.8,0.2,0.8,0.8,0.2,1,0
,,66715c98b42ef93f2389ce3f,66fc99c266b2bce0bebea4c5,2024-10-01_17h58.21.726,mdp,2024.2.1,Win32,119.047619,66fa4ebf79326e780c390304,,,,,,,,,,,,,,,,,,,,,731.2147,731.2148,731.2177,732.4821,0,0,left,0.7545,,732.4858,733.1321,0,1,left,733.1356,733.9568,0,1,left,0,733.9569,733.9569,733.96,735.4523,0,11,11,11,1,0.6,0.4,0.4,0.6,,,,,,,,,,,,,,,0.1263,,0.4,0.6,0.4,0.6,0.6,0.4,0.2,0.8,,,0.3119,,0.4,0.6,0.2,0.8,0.2,0.8,0.8,0.2,1,0
,,66715c98b42ef93f2389ce3f,66fc99c266b2bce0bebea4c5,2024-10-01_17h58.21.726,mdp,2024.2.1,Win32,119.047619,66fa4ebf79326e780c390304,,,,,,,,,,,,,,,,,,,,,735.4548,735.4549,735.4587,736.1389,1,1,right,0.1678,,736.1419,737.0394,1,1,right,737.0426,737.7387,1,0,right,1,737.7389,737.7389,737.7428,739.2359,0,12,12,12,1,0.6,0.4,0.4,0.6,,,,,,,,,,,,,,,0.3787,,0.4,0.6,0.4,0.6,0.6,0.4,0.2,0.8,,,0.187,,0.4,0.6,0.2,0.8,0.2,0.8,0.8,0.2,1,0
,,66715c98b42ef93f2389ce3f,66fc99c266b2bce0bebea4c5,2024-10-01_17h58.21.726,mdp,2024.2.1,Win32,119.047619,66fa4ebf79326e780c390304,,,,,,,,,,,,,,,,,,,,,739.2372,739.2373,739.2397,740.6887,1,0,right,0.9346,,740.6926,741.3762,1,1,right,741.3806,742.0393,1,0,right,1,742.0399,742.04,742.0433,743.5366,0,13,13,13,1,0.6,0.4,0.4,0.6,,,,,,,,,,,,,,,0.1667,,0.4,0.6,0.4,0.6,0.6,0.4,0.2,0.8,,,0.143,,0.4,0.6,0.2,0.8,0.2,0.8,0.8,0.2,1,0
,,66715c98b42ef93f2389ce3f,66fc99c266b2bce0bebea4c5,2024-10-01_17h58.21.726,mdp,2024.2.1,Win32,119.047619,66fa4ebf79326e780c390304,,,,,,,,,,,,,,,,,,,,,743.5379,743.5379,743.5411,744.456,1,1,right,0.4022,,744.4592,745.3665,1,1,right,745.37,745.9907,1,0,right,1,745.9908,745.9908,745.9936,747.4941,0,14,14,14,1,0.6,0.4,0.4,0.6,,,,,,,,,,,,,,,0.3909,,0.2,0.8,0.2,0.8,0.6,0.4,0.2,0.8,,,0.1153,,0.4,0.6,0.2,0.8,0.2,0.8,0.8,0.2,1,0
,,66715c98b42ef93f2389ce3f,66fc99c266b2bce0bebea4c5,2024-10-01_17h58.21.726,mdp,2024.2.1,Win32,119.047619,66fa4ebf79326e780c390304,,,,,,,,,,,,,,,,,,,,,747.4956,747.4956,747.4987,748.7725,1,1,right,0.761,,748.7757,749.6614,1,1,right,749.6644,750.2966,1,0,right,1,750.2972,750.2974,750.3015,751.8,0,15,15,15,1,0.6,0.4,0.4,0.6,,,,,,,,,,,,,,,0.3757,,0.2,0.8,0.2,0.8,0.6,0.4,0.2,0.8,,,0.1232,,0.4,0.6,0.2,0.8,0.2,0.8,0.8,0.2,1,0
,,66715c98b42ef93f2389ce3f,66fc99c266b2bce0bebea4c5,2024-10-01_17h58.21.726,mdp,2024.2.1,Win32,119.047619,66fa4ebf79326e780c390304,,,,,,,,,,,,,,,,,,,,,751.8021,751.8022,751.8067,752.9065,1,1,right,0.5866,,752.9112,753.7905,1,1,right,753.7934,754.6033,1,1,right,0,754.6034,754.6034,754.6071,756.0998,0,16,16,16,1,0.6,0.4,0.4,0.6,,,,,,,,,,,,,,,0.3649,,0.2,0.8,0.2,0.8,0.6,0.4,0.2,0.8,,,0.304,,0.4,0.6,0.2,0.8,0.2,0.8,0.8,0.2,1,0
,,66715c98b42ef93f2389ce3f,66fc99c266b2bce0bebea4c5,2024-10-01_17h58.21.726,mdp,2024.2.1,Win32,119.047619,66fa4ebf79326e780c390304,,,,,,,,,,,,,,,,,,,,,756.1014,756.1014,756.1035,757.1775,1,1,right,0.5588,,757.1828,758.0708,1,1,right,758.0758,758.8881,1,0,right,1,758.8884,758.8884,758.8912,760.3844,0,17,17,17,1,0.6,0.4,0.4,0.6,,,,,,,,,,,,,,,0.3768,,0.2,0.8,0.2,0.8,0.6,0.4,0.2,0.8,,,0.3053,,0.4,0.6,0.2,0.8,0.8,0.2,0.6,0.4,1,0
,,66715c98b42ef93f2389ce3f,66fc99c266b2bce0bebea4c5,2024-10-01_17h58.21.726,mdp,2024.2.1,Win32,119.047619,66fa4ebf79326e780c390304,,,,,,,,,,,,,,,,,,,,,760.3859,760.386,760.3896,761.0955,0,1,left,0.1921,,761.0986,762.0611,0,1,left,762.065,762.8177,0,1,left,0,762.8179,762.8179,762.821,764.3166,0,18,18,18,1,0.6,0.4,0.4,0.6,,,,,,,,,,,,,,,0.4524,,0.2,0.8,0.2,0.8,0.6,0.4,0.2,0.8,,,0.2437,,0.4,0.6,0.2,0.8,0.8,0.2,0.6,0.4,1,0
,,66715c98b42ef93f2389ce3f,66fc99c266b2bce0bebea4c5,2024-10-01_17h58.21.726,mdp,2024.2.1,Win32,119.047619,66fa4ebf79326e780c390304,,,,,,,,,,,,,,,,,,,,,764.3176,764.3176,764.3212,765.4353,0,0,left,0.602,,765.4388,766.3884,0,1,left,766.3935,767.0935,0,1,left,0,767.094,767.0941,767.0981,768.5913,0,19,19,19,1,0.8,0.2,0.2,0.8,,,,,,,,,,,,,,,0.4314,,0.2,0.8,0.2,0.8,0.6,0.4,0.2,0.8,,,0.1941,,0.4,0.6,0.2,0.8,0.8,0.2,0.6,0.4,1,0
,,66715c98b42ef93f2389ce3f,66fc99c266b2bce0bebea4c5,2024-10-01_17h58.21.726,mdp,2024.2.1,Win32,119.047619,66fa4ebf79326e780c390304,,,,,,,,,,,,,,,,,,,,,768.5923,768.5923,768.5956,769.2591,1,0,right,0.1516,,769.2627,770.594,1,1,right,770.5987,771.2409,1,0,right,1,771.2411,771.2411,771.2429,772.7403,0,20,20,20,1,0.8,0.2,0.2,0.8,,,,,,,,,,,,,,,0.8103,,0.2,0.8,0.2,0.8,0.6,0.4,0.2,0.8,,,0.129,,0.4,0.6,0.2,0.8,0.8,0.2,0.6,0.4,1,0
,,66715c98b42ef93f2389ce3f,66fc99c266b2bce0bebea4c5,2024-10-01_17h58.21.726,mdp,2024.2.1,Win32,119.047619,66fa4ebf79326e780c390304,,,,,,,,,,,,,,,,,,,,,772.7415,772.7416,772.7446,773.6163,1,1,right,0.3596,,773.6211,774.5402,1,1,right,774.5418,775.1589,1,0,right,1,775.1591,775.1596,775.1632,776.6564,0,21,21,21,1,0.8,0.2,0.2,0.8,,,,,,,,,,,,,,,0.4,,0.2,0.8,0.2,0.8,0.6,0.4,0.2,0.8,,,0.0956,,0.4,0.6,0.2,0.8,0.8,0.2,0.6,0.4,1,0
,,66715c98b42ef93f2389ce3f,66fc99c266b2bce0bebea4c5,2024-10-01_17h58.21.726,mdp,2024.2.1,Win32,119.047619,66fa4ebf79326e780c390304,,,,,,,,,,,,,,,,,,,,,776.6578,776.6578,776.6617,777.3325,1,1,right,0.1598,,777.3364,778.1744,1,1,right,778.179,778.9489,1,1,right,0,778.9493,778.9494,778.9534,780.4466,0,22,22,22,1,0.8,0.2,0.2,0.8,,,,,,,,,,,,,,,0.3246,,0.2,0.8,0.2,0.8,0.6,0.4,0.2,0.8,,,0.2614,,0.4,0.6,0.2,0.8,0.8,0.2,0.6,0.4,1,0
,,66715c98b42ef93f2389ce3f,66fc99c266b2bce0bebea4c5,2024-10-01_17h58.21.726,mdp,2024.2.1,Win32,119.047619,66fa4ebf79326e780c390304,,,,,,,,,,,,,,,,,,,,,780.4481,780.4482,780.4523,781.2511,1,1,right,0.2859,,781.2549,781.9005,1,1,right,781.9017,782.4239,1,0,right,1,782.4241,782.4242,782.4273,783.9197,0,23,23,23,1,0.8,0.2,0.2,0.8,,,,,,,,,,,,,,,0.1365,,0.2,0.8,0.2,0.8,0.6,0.4,0.2,0.8,,,0.0096,,0.4,0.6,0.2,0.8,0.8,0.2,0.6,0.4,1,0
,,66715c98b42ef93f2389ce3f,66fc99c266b2bce0bebea4c5,2024-10-01_17h58.21.726,mdp,2024.2.1,Win32,119.047619,66fa4ebf79326e780c390304,,,,,,,,,,,,,,,,,,,,,783.9211,783.9212,783.9234,784.8821,1,1,right,0.4435,,784.8855,785.53,1,1,right,785.5322,786.43,1,0,right,1,786.4302,786.4302,786.4319,787.929,0,24,24,24,1,0.8,0.2,0.2,0.8,,,,,,,,,,,,,,,0.1359,,0.2,0.8,0.2,0.8,0.6,0.4,0.2,0.8,,,0.391,,0.4,0.6,0.2,0.8,0.8,0.2,0.6,0.4,1,0
,,66715c98b42ef93f2389ce3f,66fc99c266b2bce0bebea4c5,2024-10-01_17h58.21.726,mdp,2024.2.1,Win32,119.047619,66fa4ebf79326e780c390304,,,,,,,,,,,,,,,,,,,,,787.9303,787.9304,787.9334,789.097,1,1,right,0.651,,789.1001,790.2615,1,1,right,790.2644,790.8554,1,1,right,0,790.8556,790.8556,790.8585,792.354,0,25,25,25,1,0.8,0.2,0.2,0.8,,,,,,,,,,,,,,,0.6535,,0.2,0.8,0.2,0.8,0.6,0.4,0.2,0.8,,,0.079,,0.4,0.6,0.2,0.8,0.8,0.2,0.6,0.4,1,0
,,66715c98b42ef93f2389ce3f,66fc99c266b2bce0bebea4c5,2024-10-01_17h58.21.726,mdp,2024.2.1,Win32,119.047619,66fa4ebf79326e780c390304,,,,,,,,,,,,,,,,,,,,,792.3558,792.3559,792.3604,793.5886,1,1,right,0.7186,,793.5919,794.1718,1,0,right,794.1752,795.5294,1,0,right,1,795.5296,795.5296,795.5333,797.0269,0,26,26,26,1,0.8,0.2,0.2,0.8,,,,,,,,,,,,,,,0.0685,,0.2,0.8,0.2,0.8,0.4,0.6,0.6,0.4,,,0.8349,,0.4,0.6,0.2,0.8,0.8,0.2,0.6,0.4,1,0
,,66715c98b42ef93f2389ce3f,66fc99c266b2bce0bebea4c5,2024-10-01_17h58.21.726,mdp,2024.2.1,Win32,119.047619,66fa4ebf79326e780c390304,,,,,,,,,,,,,,,,,,,,,797.0287,797.0287,797.0316,798.1288,0,0,left,0.5897,,798.1318,799.0372,0,1,left,799.0398,800.1798,0,1,left,0,800.1805,800.1806,800.1842,801.6785,0,27,27,27,1,0.8,0.2,0.2,0.8,,,,,,,,,,,,,,,0.384,,0.2,0.8,0.2,0.8,0.4,0.6,0.6,0.4,,,0.6052,,0.4,0.6,0.2,0.8,0.8,0.2,0.6,0.4,1,0
,,66715c98b42ef93f2389ce3f,66fc99c266b2bce0bebea4c5,2024-10-01_17h58.21.726,mdp,2024.2.1,Win32,119.047619,66fa4ebf79326e780c390304,,,,,,,,,,,,,,,,,,,,,801.6824,801.6824,801.6864,803.0887,0,0,left,0.8966,,803.0926,803.9112,0,1,left,803.9146,804.5207,0,1,left,0,804.5209,804.5209,804.5237,806.0175,0,28,28,28,1,0.8,0.2,0.2,0.8,,,,,,,,,,,,,,,0.3096,,0.2,0.8,0.2,0.8,0.4,0.6,0.6,0.4,,,0.0957,,0.4,0.6,0.2,0.8,0.8,0.2,0.6,0.4,1,0
,,66715c98b42ef93f2389ce3f,66fc99c266b2bce0bebea4c5,2024-10-01_17h58.21.726,mdp,2024.2.1,Win32,119.047619,66fa4ebf79326e780c390304,,,,,,,,,,,,,,,,,,,,,806.0188,806.0188,806.0214,809.0117,0,0,left,2.4767,,809.0151,809.8185,0,0,left,809.8213,810.3486,0,0,left,1,810.3487,810.3487,810.3517,811.8431,0,29,29,29,1,0.8,0.2,0.2,0.8,,,,,,,,,,,,,,,0.2922,,0.2,0.8,0.2,0.8,0.4,0.6,0.6,0.4,,,0.0031,,0.4,0.6,0.2,0.8,0.8,0.2,0.6,0.4,1,0
,,66715c98b42ef93f2389ce3f,66fc99c266b2bce0bebea4c5,2024-10-01_17h58.21.726,mdp,2024.2.1,Win32,119.047619,66fa4ebf79326e780c390304,,,,,,,,,,,,,,,,,,,,,811.8442,811.8442,811.8481,813.2856,0,0,left,0.9262,,813.289,814.188,0,0,left,814.192,816.7197,0,0,left,1,816.7199,816.7199,816.7224,818.216,0,30,30,30,1,0.8,0.2,0.2,0.8,,,,,,,,,,,,,,,0.386,,0.2,0.8,0.2,0.8,0.4,0.6,0.6,0.4,,,2.0041,,0.4,0.6,0.2,0.8,0.8,0.2,0.6,0.4,1,0
,,66715c98b42ef93f2389ce3f,66fc99c266b2bce0bebea4c5,2024-10-01_17h58.21.726,mdp,2024.2.1,Win32,119.047619,66fa4ebf79326e780c390304,,,,,,,,,,,,,,,,,,,,,818.2175,818.2175,818.2206,819.1086,0,0,left,0.3828,,819.1131,819.9086,0,1,left,819.912,820.5092,0,0,left,1,820.5094,820.5096,820.513,822.0073,0,31,31,31,1,0.8,0.2,0.2,0.8,,,,,,,,,,,,,,,0.2861,,0.2,0.8,0.2,0.8,0.4,0.6,0.6,0.4,,,0.0769,,0.4,0.6,0.2,0.8,0.8,0.2,0.6,0.4,1,0
,,66715c98b42ef93f2389ce3f,66fc99c266b2bce0bebea4c5,2024-10-01_17h58.21.726,mdp,2024.2.1,Win32,119.047619,66fa4ebf79326e780c390304,,,,,,,,,,,,,,,,,,,,,822.0084,822.0086,822.0119,822.9893,0,0,left,0.4678,,822.9943,823.8644,0,1,left,823.8686,824.3844,0,0,left,1,824.3849,824.3849,824.3889,825.8867,0,32,32,32,1,0.8,0.2,0.2,0.8,,,,,,,,,,,,,,,0.3693,,0.2,0.8,0.2,0.8,0.4,0.6,0.6,0.4,,,0.004,,0.4,0.6,0.2,0.8,0.8,0.2,0.6,0.4,1,0
,,66715c98b42ef93f2389ce3f,66fc99c266b2bce0bebea4c5,2024-10-01_17h58.21.726,mdp,2024.2.1,Win32,119.047619,66fa4ebf79326e780c390304,,,,,,,,,,,,,,,,,,,,,825.8902,825.8902,825.8942,826.8589,0,0,left,0.452,,826.8634,827.4987,0,1,left,827.5005,828.1392,0,0,left,1,828.1393,828.1394,828.1415,829.6384,0,33,33,33,1,0.8,0.2,0.2,0.8,,,,,,,,,,,,,,,0.1273,,0.2,0.8,0.2,0.8,0.4,0.6,0.6,0.4,,,0.1244,,0.4,0.6,0.2,0.8,0.8,0.2,0.6,0.4,1,0
,,66715c98b42ef93f2389ce3f,66fc99c266b2bce0bebea4c5,2024-10-01_17h58.21.726,mdp,2024.2.1,Win32,119.047619,66fa4ebf79326e780c390304,,,,,,,,,,,,,,,,,,,,,829.6399,829.6399,829.6428,830.1672,0,0,left,0.0112,,830.1717,830.9084,0,1,left,830.9139,831.4754,0,1,left,0,831.4755,831.4756,831.4799,832.9726,0,34,34,34,1,0.8,0.2,0.2,0.8,,,,,,,,,,,,,,,0.2288,,0.2,0.8,0.2,0.8,0.4,0.6,0.6,0.4,,,0.0532,,0.4,0.6,0.2,0.8,0.8,0.2,0.6,0.4,1,0
,,66715c98b42ef93f2389ce3f,66fc99c266b2bce0bebea4c5,2024-10-01_17h58.21.726,mdp,2024.2.1,Win32,119.047619,66fa4ebf79326e780c390304,,,,,,,,,,,,,,,,,,,,,832.9744,832.9745,832.9801,833.5837,1,1,right,0.0966,,833.5877,834.35,1,0,right,834.3529,835.1183,1,1,right,0,835.1187,835.1188,835.1214,836.6214,0,35,35,35,1,0.8,0.2,0.2,0.8,,,,,,,,,,,,,,,0.2447,,0.2,0.8,0.2,0.8,0.4,0.6,0.6,0.4,,,0.2455,,0.4,0.6,0.2,0.8,0.8,0.2,0.6,0.4,1,0
,,66715c98b42ef93f2389ce3f,66fc99c266b2bce0bebea4c5,2024-10-01_17h58.21.726,mdp,2024.2.1,Win32,119.047619,66fa4ebf79326e780c390304,,,,,,,,,,,,,,,,,,,,,836.6234,836.6235,836.6273,837.3025,1,1,right,0.1629,,837.3055,838.3898,1,0,right,838.3939,838.9427,1,1,right,0,838.9429,838.9429,838.9464,840.4447,0,36,36,36,1,0.8,0.2,0.2,0.8,,,,,,,,,,,,,,,0.5767,,0.2,0.8,0.2,0.8,0.4,0.6,0.6,0.4,,,0.0391,,0.4,0.6,0.2,0.8,0.8,0.2,0.6,0.4,1,0
,,66715c98b42ef93f2389ce3f,66fc99c266b2bce0bebea4c5,2024-10-01_17h58.21.726,mdp,2024.2.1,Win32,119.047619,66fa4ebf79326e780c390304,,,,,,,,,,,,,,,,,,,,,840.4466,840.4466,840.4497,841.8829,1,0,right,0.9196,,841.8866,842.6113,1,1,right,842.6144,843.1366,1,0,right,1,843.1367,843.1367,843.1388,844.6341,0,37,37,37,1,0.8,0.2,0.2,0.8,,,,,,,,,,,,,,,0.204,,0.2,0.8,0.2,0.8,0.4,0.6,0.6,0.4,,,0.0016,,0.4,0.6,0.2,0.8,0.8,0.2,0.6,0.4,1,0
,,66715c98b42ef93f2389ce3f,66fc99c266b2bce0bebea4c5,2024-10-01_17h58.21.726,mdp,2024.2.1,Win32,119.047619,66fa4ebf79326e780c390304,,,,,,,,,,,,,,,,,,,,,844.6364,844.6364,844.639,845.8012,1,0,right,0.654,,845.8024,846.785,1,1,right,846.7883,847.66,1,1,right,0,847.6602,847.6602,847.6635,849.1604,0,38,38,38,1,0.8,0.2,0.2,0.8,,,,,,,,,,,,,,,0.4731,,0.2,0.8,0.2,0.8,0.4,0.6,0.6,0.4,,,0.3655,,0.4,0.6,0.2,0.8,0.8,0.2,0.6,0.4,1,0
,,66715c98b42ef93f2389ce3f,66fc99c266b2bce0bebea4c5,2024-10-01_17h58.21.726,mdp,2024.2.1,Win32,119.047619,66fa4ebf79326e780c390304,,,,,,,,,,,,,,,,,,,,,849.1624,849.1624,849.1652,849.7232,1,1,right,0.044,,849.7266,850.2516,1,1,right,850.2541,852.1636,1,1,right,0,852.1643,852.1643,852.1681,853.6606,0,39,39,39,1,0.8,0.2,0.2,0.8,,,,,,,,,,,,,,,0.0021,,0.2,0.8,0.2,0.8,0.4,0.6,0.6,0.4,,,1.4043,,0.4,0.6,0.2,0.8,0.8,0.2,0.6,0.4,1,0
,,66715c98b42ef93f2389ce3f,66fc99c266b2bce0bebea4c5,2024-10-01_17h58.21.726,mdp,2024.2.1,Win32,119.047619,66fa4ebf79326e780c390304,,,,,,,,,,,,,,,,,,,,,853.6616,853.6617,853.6647,854.2554,1,1,right,0.0794,,854.2591,854.8645,1,0,right,854.8684,855.4598,1,1,right,0,855.4599,855.4599,855.4611,856.9688,0,40,40,40,1,0.8,0.2,0.2,0.8,,,,,,,,,,,,,,,0.0946,,0.4,0.6,0.6,0.4,0.4,0.6,0.6,0.4,,,0.0681,,0.4,0.6,0.2,0.8,0.8,0.2,0.6,0.4,1,0
,,66715c98b42ef93f2389ce3f,66fc99c266b2bce0bebea4c5,2024-10-01_17h58.21.726,mdp,2024.2.1,Win32,119.047619,66fa4ebf79326e780c390304,,,,,,,,,,,,,,,,,,,,,856.973,856.973,856.9767,857.831,0,0,left,0.3447,,857.8341,858.6227,0,1,left,858.6265,859.3535,0,0,left,1,859.3544,859.3545,859.3583,860.8519,0,41,41,41,1,0.8,0.2,0.2,0.8,,,,,,,,,,,,,,,0.2741,,0.4,0.6,0.6,0.4,0.4,0.6,0.6,0.4,,,0.1966,,0.4,0.6,0.2,0.8,0.8,0.2,0.6,0.4,1,0
,,66715c98b42ef93f2389ce3f,66fc99c266b2bce0bebea4c5,2024-10-01_17h58.21.726,mdp,2024.2.1,Win32,119.047619,66fa4ebf79326e780c390304,,,,,,,,,,,,,,,,,,,,,860.8531,860.8531,860.8562,861.7723,0,0,left,0.4037,,861.7755,862.4271,0,0,left,862.4306,862.9682,0,1,left,0,862.9684,862.9684,862.9723,864.4667,0,42,42,42,1,0.8,0.2,0.2,0.8,,,,,,,,,,,,,,,0.1454,,0.8,0.2,0.2,0.8,0.4,0.6,0.6,0.4,,,0.02,,0.4,0.6,0.2,0.8,0.8,0.2,0.6,0.4,1,0
,,66715c98b42ef93f2389ce3f,66fc99c266b2bce0bebea4c5,2024-10-01_17h58.21.726,mdp,2024.2.1,Win32,119.047619,66fa4ebf79326e780c390304,,,,,,,,,,,,,,,,,,,,,864.4682,864.4682,864.4713,865.194,0,0,left,0.2101,,865.1988,865.836,0,0,left,865.8405,866.3555,0,1,left,0,866.3556,866.3557,866.3593,867.8582,0,43,43,43,1,0.8,0.2,0.2,0.8,,,,,,,,,,,,,,,0.1299,,0.8,0.2,0.2,0.8,0.4,0.6,0.6,0.4,,,0.003,,0.4,0.6,0.2,0.8,0.8,0.2,0.6,0.4,1,0
,,66715c98b42ef93f2389ce3f,66fc99c266b2bce0bebea4c5,2024-10-01_17h58.21.726,mdp,2024.2.1,Win32,119.047619,66fa4ebf79326e780c390304,,,,,,,,,,,,,,,,,,,,,867.8593,867.8595,867.8634,869.5511,0,0,left,1.176,,869.5543,870.8796,0,0,left,870.8829,871.7749,0,0,left,1,871.7749,871.775,871.7767,873.2733,0,44,44,44,1,0.8,0.2,0.2,0.8,,,,,,,,,,,,,,,0.815,,0.8,0.2,0.2,0.8,0.4,0.6,0.6,0.4,,,0.3849,,0.4,0.6,0.2,0.8,0.6,0.4,0.4,0.6,1,0
,,66715c98b42ef93f2389ce3f,66fc99c266b2bce0bebea4c5,2024-10-01_17h58.21.726,mdp,2024.2.1,Win32,119.047619,66fa4ebf79326e780c390304,,,,,,,,,,,,,,,,,,,,,873.2749,873.275,873.2775,874.5237,0,0,left,0.7378,,874.5257,875.202,0,0,left,875.2059,875.842,0,0,left,1,875.8423,875.8423,875.8481,877.3403,0,45,45,45,1,0.8,0.2,0.2,0.8,,,,,,,,,,,,,,,0.1679,,0.8,0.2,0.2,0.8,0.4,0.6,0.6,0.4,,,0.1262,,0.4,0.6,0.2,0.8,0.6,0.4,0.4,0.6,1,0
,,66715c98b42ef93f2389ce3f,66fc99c266b2bce0bebea4c5,2024-10-01_17h58.21.726,mdp,2024.2.1,Win32,119.047619,66fa4ebf79326e780c390304,,,,,,,,,,,,,,,,,,,,,877.3417,877.3418,877.3468,878.0793,0,0,left,0.2124,,878.0829,878.6931,0,0,left,878.6972,880.2416,0,1,left,0,880.2418,880.2418,880.2453,881.7408,0,46,46,46,1,0.8,0.2,0.2,0.8,,,,,,,,,,,,,,,0.1029,,0.8,0.2,0.2,0.8,0.4,0.6,0.6,0.4,,,1.0342,,0.4,0.6,0.2,0.8,0.6,0.4,0.4,0.6,1,0
,,66715c98b42ef93f2389ce3f,66fc99c266b2bce0bebea4c5,2024-10-01_17h58.21.726,mdp,2024.2.1,Win32,119.047619,66fa4ebf79326e780c390304,,,,,,,,,,,,,,,,,,,,,881.7431,881.7431,881.7468,882.9525,0,0,left,0.6837,,882.9557,883.6161,0,0,left,883.6203,885.5786,0,1,left,0,885.5788,885.5788,885.5808,887.0827,0,47,47,47,1,0.8,0.2,0.2,0.8,,,,,,,,,,,,,,,0.1535,,0.8,0.2,0.2,0.8,0.4,0.6,0.6,0.4,,,1.4485,,0.4,0.6,0.2,0.8,0.6,0.4,0.4,0.6,1,0
,,66715c98b42ef93f2389ce3f,66fc99c266b2bce0bebea4c5,2024-10-01_17h58.21.726,mdp,2024.2.1,Win32,119.047619,66fa4ebf79326e780c390304,,,,,,,,,,,,,,,,,,,,,887.0869,887.0869,887.0907,888.823,0,1,left,1.2252,,888.8268,889.492,0,1,left,889.4956,891.4647,0,0,left,1,891.4648,891.4648,891.4678,892.9625,0,48,48,48,1,0.8,0.2,0.2,0.8,,,,,,,,,,,,,,,0.1434,,0.8,0.2,0.2,0.8,0.4,0.6,0.6,0.4,,,1.4544,,0.4,0.6,0.2,0.8,0.6,0.4,0.4,0.6,1,0
,,66715c98b42ef93f2389ce3f,66fc99c266b2bce0bebea4c5,2024-10-01_17h58.21.726,mdp,2024.2.1,Win32,119.047619,66fa4ebf79326e780c390304,,,,,,,,,,,,,,,,,,,,,892.9638,892.9639,892.9672,893.9991,1,1,right,0.5192,,894.0032,894.517,1,0,right,894.52,895.1804,1,1,right,0,895.1806,895.1806,895.1835,896.6784,0,49,49,49,1,0.8,0.2,0.2,0.8,,,,,,,,,,,,,,,0.0025,,0.8,0.2,0.2,0.8,0.4,0.6,0.6,0.4,,,0.1448,,0.4,0.6,0.2,0.8,0.6,0.4,0.4,0.6,1,0
,,66715c98b42ef93f2389ce3f,66fc99c266b2bce0bebea4c5,2024-10-01_17h58.21.726,mdp,2024.2.1,Win32,119.047619,66fa4ebf79326e780c390304,,,,,,,,,,,,,,,,,,,,,,,,,,,,,,,,,,,,,,,,,,,,,,,,,,,,,,,,896.6791,955.1859,0,2,2,7,1,imgs/goat.png,imgs/kangaroo.png,imgs/rabbit.png,imgs/lion.png,imgs/horse.png,,,,,,,,,,,,,,,,,,,,,,,,
,,66715c98b42ef93f2389ce3f,66fc99c266b2bce0bebea4c5,2024-10-01_17h58.21.726,mdp,2024.2.1,Win32,119.047619,66fa4ebf79326e780c390304,,,,,,,,,,,,,,3,seqs/st3seq16.csv,955.1899,962.9285,space,7.2248,,962.9532,962.9533,962.956,964.6693,1,1,right,1.1897,,964.6729,965.5008,1,0,right,965.5025,966.518,1,1,right,0,966.5181,966.5181,966.5202,968.0179,0,0,0,0,1,0.4,0.6,0.6,0.4,,,,,,,,,,,,,,,0.3032,,0.8,0.2,0.2,0.8,0.2,0.8,0.8,0.2,,,0.4934,,0.4,0.6,0.8,0.2,0.8,0.2,0.6,0.4,1,0
,,66715c98b42ef93f2389ce3f,66fc99c266b2bce0bebea4c5,2024-10-01_17h58.21.726,mdp,2024.2.1,Win32,119.047619,66fa4ebf79326e780c390304,,,,,,,,,,,,,,,,,,,,,968.0201,968.0202,968.0249,968.8781,1,0,right,0.3457,,968.8809,969.793,1,1,right,969.7974,970.5927,1,0,right,1,970.5929,970.593,970.5969,972.0945,0,1,1,1,1,0.4,0.6,0.6,0.4,,,,,,,,,,,,,,,0.3874,,0.8,0.2,0.2,0.8,0.2,0.8,0.8,0.2,,,0.2784,,0.4,0.6,0.8,0.2,0.8,0.2,0.6,0.4,1,0
,,66715c98b42ef93f2389ce3f,66fc99c266b2bce0bebea4c5,2024-10-01_17h58.21.726,mdp,2024.2.1,Win32,119.047619,66fa4ebf79326e780c390304,,,,,,,,,,,,,,,,,,,,,972.0954,972.0955,972.0966,973.1404,1,1,right,0.531,,973.1457,974.065,1,0,right,974.067,974.7908,1,1,right,0,974.7908,974.7908,974.7918,976.2905,0,2,2,2,1,0.4,0.6,0.6,0.4,,,,,,,,,,,,,,,0.4039,,0.8,0.2,0.2,0.8,0.2,0.8,0.8,0.2,,,0.2112,,0.4,0.6,0.8,0.2,0.8,0.2,0.6,0.4,1,0
,,66715c98b42ef93f2389ce3f,66fc99c266b2bce0bebea4c5,2024-10-01_17h58.21.726,mdp,2024.2.1,Win32,119.047619,66fa4ebf79326e780c390304,,,,,,,,,,,,,,,,,,,,,976.2919,976.2919,976.2951,977.9257,0,0,left,1.1204,,977.9293,978.5954,0,0,left,978.6007,979.3367,0,0,left,1,979.3372,979.3372,979.3416,980.8317,0,3,3,3,1,0.4,0.6,0.6,0.4,,,,,,,,,,,,,,,0.1402,,0.8,0.2,0.2,0.8,0.2,0.8,0.8,0.2,,,0.2275,,0.4,0.6,0.8,0.2,0.8,0.2,0.6,0.4,1,0
,,66715c98b42ef93f2389ce3f,66fc99c266b2bce0bebea4c5,2024-10-01_17h58.21.726,mdp,2024.2.1,Win32,119.047619,66fa4ebf79326e780c390304,,,,,,,,,,,,,,,,,,,,,980.8333,980.8334,980.837,981.6328,0,0,left,0.2843,,981.6356,982.4927,0,0,left,982.4961,983.5163,0,1,left,0,983.5164,983.5164,983.5198,985.015,0,4,4,4,1,0.4,0.6,0.6,0.4,,,,,,,,,,,,,,,0.3464,,0.8,0.2,0.2,0.8,0.2,0.8,0.8,0.2,,,0.5108,,0.4,0.6,0.8,0.2,0.8,0.2,0.6,0.4,1,0
,,66715c98b42ef93f2389ce3f,66fc99c266b2bce0bebea4c5,2024-10-01_17h58.21.726,mdp,2024.2.1,Win32,119.047619,66fa4ebf79326e780c390304,,,,,,,,,,,,,,,,,,,,,985.0183,985.0183,985.023,985.9197,0,1,left,0.3856,,985.9235,986.7964,0,1,left,986.8013,987.7634,0,0,left,1,987.7636,987.7637,987.7675,989.2635,0,5,5,5,1,0.4,0.6,0.6,0.4,,,,,,,,,,,,,,,0.353,,0.8,0.2,0.2,0.8,0.2,0.8,0.8,0.2,,,0.4364,,0.4,0.6,0.8,0.2,0.8,0.2,0.6,0.4,1,0
,,66715c98b42ef93f2389ce3f,66fc99c266b2bce0bebea4c5,2024-10-01_17h58.21.726,mdp,2024.2.1,Win32,119.047619,66fa4ebf79326e780c390304,,,,,,,,,,,,,,,,,,,,,989.2644,989.2645,989.268,990.3738,0,0,left,0.5963,,990.3773,991.5313,0,0,left,991.5344,992.251,0,0,left,1,992.2512,992.2512,992.2543,993.7479,0,6,6,6,1,0.4,0.6,0.6,0.4,,,,,,,,,,,,,,,0.6367,,0.8,0.2,0.2,0.8,0.2,0.8,0.8,0.2,,,0.1941,,0.4,0.6,0.8,0.2,0.8,0.2,0.6,0.4,1,0
,,66715c98b42ef93f2389ce3f,66fc99c266b2bce0bebea4c5,2024-10-01_17h58.21.726,mdp,2024.2.1,Win32,119.047619,66fa4ebf79326e780c390304,,,,,,,,,,,,,,,,,,,,,993.7508,993.7508,993.7543,995.1229,1,1,right,0.8598,,995.1262,996.2325,1,0,right,996.2365,997.1414,1,0,right,1,997.1415,997.1415,997.1448,998.6439,0,7,7,7,1,0.4,0.6,0.6,0.4,,,,,,,,,,,,,,,0.5894,,0.8,0.2,0.2,0.8,0.2,0.8,0.8,0.2,,,0.393,,0.4,0.6,0.8,0.2,0.8,0.2,0.6,0.4,1,0
,,66715c98b42ef93f2389ce3f,66fc99c266b2bce0bebea4c5,2024-10-01_17h58.21.726,mdp,2024.2.1,Win32,119.047619,66fa4ebf79326e780c390304,,,,,,,,,,,,,,,,,,,,,998.6462,998.6463,998.6508,1001.0223,1,0,right,1.8602,,1001.0271,1001.9938,1,1,right,1001.9964,1003.0406,1,0,right,1,1003.041,1003.041,1003.0443,1004.5382,0,8,8,8,1,0.4,0.6,0.6,0.4,,,,,,,,,,,,,,,0.446,,0.8,0.2,0.2,0.8,0.2,0.8,0.8,0.2,,,0.5249,,0.4,0.6,0.8,0.2,0.8,0.2,0.6,0.4,1,0
,,66715c98b42ef93f2389ce3f,66fc99c266b2bce0bebea4c5,2024-10-01_17h58.21.726,mdp,2024.2.1,Win32,119.047619,66fa4ebf79326e780c390304,,,,,,,,,,,,,,,,,,,,,1004.5414,1004.5414,1004.5461,1005.9618,1,1,right,0.9027,,1005.9656,1006.9129,1,0,right,1006.9171,1007.5376,1,0,right,1,1007.5379,1007.5379,1007.5428,1009.0362,0,9,9,9,1,0.4,0.6,0.6,0.4,,,,,,,,,,,,,,,0.4262,,0.8,0.2,0.2,0.8,0.2,0.8,0.8,0.2,,,0.1014,,0.4,0.6,0.8,0.2,0.4,0.6,0.4,0.6,1,0
,,66715c98b42ef93f2389ce3f,66fc99c266b2bce0bebea4c5,2024-10-01_17h58.21.726,mdp,2024.2.1,Win32,119.047619,66fa4ebf79326e780c390304,,,,,,,,,,,,,,,,,,,,,1009.0387,1009.0387,1009.0425,1010.6881,1,1,right,1.1368,,1010.6911,1011.5417,1,0,right,1011.5456,1012.3519,1,1,right,0,1012.3521,1012.3522,1012.3576,1013.8526,0,10,10,10,1,0.4,0.6,0.6,0.4,,,,,,,,,,,,,,,0.3379,,0.8,0.2,0.2,0.8,0.2,0.8,0.8,0.2,,,0.3023,,0.4,0.6,0.8,0.2,0.4,0.6,0.4,0.6,1,0
,,66715c98b42ef93f2389ce3f,66fc99c266b2bce0bebea4c5,2024-10-01_17h58.21.726,mdp,2024.2.1,Win32,119.047619,66fa4ebf79326e780c390304,,,,,,,,,,,,,,,,,,,,,1013.8565,1013.8565,1013.8594,1015.1362,0,1,left,0.7555,,1015.1405,1015.7853,0,1,left,1015.793,1017.4231,0,1,left,0,1017.4233,1017.4234,1017.4317,1018.9256,0,11,11,11,1,0.4,0.6,0.6,0.4,,,,,,,,,,,,,,,0.1318,,0.8,0.2,0.2,0.8,0.2,0.8,0.8,0.2,,,1.1226,,0.4,0.6,0.8,0.2,0.4,0.6,0.4,0.6,1,0
,,66715c98b42ef93f2389ce3f,66fc99c266b2bce0bebea4c5,2024-10-01_17h58.21.726,mdp,2024.2.1,Win32,119.047619,66fa4ebf79326e780c390304,,,,,,,,,,,,,,,,,,,,,1018.9269,1018.9269,1018.9309,1019.559,1,1,right,0.1093,,1019.5608,1020.2554,1,0,right,1020.2601,1020.8186,1,1,right,0,1020.8187,1020.8187,1020.8211,1022.3156,0,12,12,12,1,0.4,0.6,0.6,0.4,,,,,,,,,,,,,,,0.1788,,0.8,0.2,0.2,0.8,0.2,0.8,0.8,0.2,,,0.0348,,0.4,0.6,0.8,0.2,0.4,0.6,0.4,0.6,1,0
,,66715c98b42ef93f2389ce3f,66fc99c266b2bce0bebea4c5,2024-10-01_17h58.21.726,mdp,2024.2.1,Win32,119.047619,66fa4ebf79326e780c390304,,,,,,,,,,,,,,,,,,,,,1022.316,1022.316,1022.3168,1023.5157,1,0,right,0.6914,,1023.5169,1024.2102,1,0,right,1024.2142,1024.7942,1,0,right,1,1024.7944,1024.7944,1024.798,1026.2833,0,13,13,13,1,0.4,0.6,0.6,0.4,,,,,,,,,,,,,,,0.1764,,0.8,0.2,0.2,0.8,0.2,0.8,0.8,0.2,,,0.0677,,0.4,0.6,0.8,0.2,0.8,0.2,0.6,0.4,1,0
,,66715c98b42ef93f2389ce3f,66fc99c266b2bce0bebea4c5,2024-10-01_17h58.21.726,mdp,2024.2.1,Win32,119.047619,66fa4ebf79326e780c390304,,,,,,,,,,,,,,,,,,,,,1026.2867,1026.2868,1026.2903,1027.3144,1,0,right,0.5109,,1027.3194,1027.8436,1,1,right,1027.846,1028.4316,1,0,right,1,1028.4317,1028.4317,1028.4329,1029.9266,0,14,14,14,1,0.4,0.6,0.6,0.4,,,,,,,,,,,,,,,0.0113,,0.8,0.2,0.2,0.8,0.2,0.8,0.8,0.2,,,0.0668,,0.4,0.6,0.8,0.2,0.8,0.2,0.6,0.4,1,0
,,66715c98b42ef93f2389ce3f,66fc99c266b2bce0bebea4c5,2024-10-01_17h58.21.726,mdp,2024.2.1,Win32,119.047619,66fa4ebf79326e780c390304,,,,,,,,,,,,,,,,,,,,,1029.9282,1029.9282,1029.9293,1031.105,1,0,right,0.663,,1031.1092,1031.7577,1,1,right,1031.7626,1032.4076,1,1,right,0,1032.4077,1032.4077,1032.4116,1033.9155,0,15,15,15,1,0.4,0.6,0.6,0.4,,,,,,,,,,,,,,,0.1405,,0.4,0.6,0.4,0.6,0.2,0.8,0.8,0.2,,,0.137,,0.4,0.6,0.8,0.2,0.8,0.2,0.6,0.4,1,0
,,66715c98b42ef93f2389ce3f,66fc99c266b2bce0bebea4c5,2024-10-01_17h58.21.726,mdp,2024.2.1,Win32,119.047619,66fa4ebf79326e780c390304,,,,,,,,,,,,,,,,,,,,,1033.917,1033.917,1033.9234,1034.8633,1,1,right,0.4318,,1034.8664,1035.7282,1,1,right,1035.7314,1036.6138,1,0,right,1,1036.6139,1036.6139,1036.615,1038.114,0,16,16,16,1,0.4,0.6,0.6,0.4,,,,,,,,,,,,,,,0.3412,,0.4,0.6,0.4,0.6,0.2,0.8,0.8,0.2,,,0.3752,,0.2,0.8,0.6,0.4,0.8,0.2,0.6,0.4,1,0
,,66715c98b42ef93f2389ce3f,66fc99c266b2bce0bebea4c5,2024-10-01_17h58.21.726,mdp,2024.2.1,Win32,119.047619,66fa4ebf79326e780c390304,,,,,,,,,,,,,,,,,,,,,1038.115,1038.115,1038.1179,1039.4631,1,0,right,0.8372,,1039.4644,1040.3955,1,1,right,1040.4007,1041.0593,1,1,right,0,1041.0594,1041.0594,1041.0632,1042.5538,0,17,17,17,1,0.4,0.6,0.6,0.4,,,,,,,,,,,,,,,0.4086,,0.4,0.6,0.4,0.6,0.2,0.8,0.8,0.2,,,0.1548,,0.2,0.8,0.6,0.4,0.8,0.2,0.6,0.4,1,0
,,66715c98b42ef93f2389ce3f,66fc99c266b2bce0bebea4c5,2024-10-01_17h58.21.726,mdp,2024.2.1,Win32,119.047619,66fa4ebf79326e780c390304,,,,,,,,,,,,,,,,,,,,,1042.555,1042.555,1042.5585,1044.5978,1,0,right,1.5264,,1044.6008,1045.1911,1,1,right,1045.194,1045.7898,1,1,right,0,1045.79,1045.7901,1045.7943,1047.2873,0,18,18,18,1,0.4,0.6,0.6,0.4,,,,,,,,,,,,,,,0.0813,,0.4,0.6,0.4,0.6,0.2,0.8,0.8,0.2,,,0.0878,,0.2,0.8,0.6,0.4,0.8,0.2,0.6,0.4,1,0
,,66715c98b42ef93f2389ce3f,66fc99c266b2bce0bebea4c5,2024-10-01_17h58.21.726,mdp,2024.2.1,Win32,119.047619,66fa4ebf79326e780c390304,,,,,,,,,,,,,,,,,,,,,1047.2884,1047.2885,1047.2925,1048.4248,1,1,right,0.6191,,1048.4284,1048.9474,1,0,right,1048.9516,1050.1624,1,0,right,1,1050.1626,1050.1626,1050.1663,1051.6608,0,19,19,19,1,0.4,0.6,0.6,0.4,,,,,,,,,,,,,,,0.0026,,0.4,0.6,0.4,0.6,0.2,0.8,0.8,0.2,,,0.6906,,0.2,0.8,0.6,0.4,0.8,0.2,0.6,0.4,1,0
,,66715c98b42ef93f2389ce3f,66fc99c266b2bce0bebea4c5,2024-10-01_17h58.21.726,mdp,2024.2.1,Win32,119.047619,66fa4ebf79326e780c390304,,,,,,,,,,,,,,,,,,,,,1051.6622,1051.6622,1051.6652,1053.6911,0,1,left,1.5121,,1053.6953,1054.5917,0,0,left,1054.5949,1056.0131,0,0,left,1,1056.0133,1056.0133,1056.0166,1057.5162,0,20,20,20,1,0.4,0.6,0.6,0.4,,,,,,,,,,,,,,,0.3789,,0.4,0.6,0.4,0.6,0.2,0.8,0.8,0.2,,,0.91,,0.4,0.6,0.2,0.8,0.8,0.2,0.6,0.4,1,0
,,66715c98b42ef93f2389ce3f,66fc99c266b2bce0bebea4c5,2024-10-01_17h58.21.726,mdp,2024.2.1,Win32,119.047619,66fa4ebf79326e780c390304,,,,,,,,,,,,,,,,,,,,,1057.5179,1057.518,1057.521,1060.7267,0,0,left,2.6985,,1060.7285,1061.6066,0,1,left,1061.6098,1062.1611,0,0,left,1,1062.1613,1062.1614,1062.1641,1063.6601,0,21,21,21,1,0.4,0.6,0.6,0.4,,,,,,,,,,,,,,,0.356,,0.4,0.6,0.4,0.6,0.2,0.8,0.8,0.2,,,0.0375,,0.4,0.6,0.2,0.8,0.8,0.2,0.6,0.4,1,0
,,66715c98b42ef93f2389ce3f,66fc99c266b2bce0bebea4c5,2024-10-01_17h58.21.726,mdp,2024.2.1,Win32,119.047619,66fa4ebf79326e780c390304,,,,,,,,,,,,,,,,,,,,,1063.6615,1063.6616,1063.6668,1064.9461,0,0,left,0.76,,1064.9496,1065.4834,0,0,left,1065.488,1066.5483,0,1,left,0,1066.5486,1066.5487,1066.5513,1068.043,0,22,22,22,1,0.4,0.6,0.6,0.4,,,,,,,,,,,,,,,0.0262,,0.4,0.6,0.4,0.6,0.2,0.8,0.8,0.2,,,0.54,,0.4,0.6,0.2,0.8,0.8,0.2,0.6,0.4,1,0
,,66715c98b42ef93f2389ce3f,66fc99c266b2bce0bebea4c5,2024-10-01_17h58.21.726,mdp,2024.2.1,Win32,119.047619,66fa4ebf79326e780c390304,,,,,,,,,,,,,,,,,,,,,1068.044,1068.044,1068.0472,1068.6765,1,1,right,0.1212,,1068.6793,1069.5362,1,0,right,1069.5396,1070.1433,1,1,right,0,1070.1435,1070.1435,1070.1462,1071.6409,0,23,23,23,1,0.4,0.6,0.6,0.4,,,,,,,,,,,,,,,0.3374,,0.4,0.6,0.4,0.6,0.2,0.8,0.8,0.2,,,0.099,,0.4,0.6,0.2,0.8,0.8,0.2,0.6,0.4,1,0
,,66715c98b42ef93f2389ce3f,66fc99c266b2bce0bebea4c5,2024-10-01_17h58.21.726,mdp,2024.2.1,Win32,119.047619,66fa4ebf79326e780c390304,,,,,,,,,,,,,,,,,,,,,1071.6424,1071.6425,1071.645,1072.9269,1,0,right,0.7684,,1072.9304,1073.777,1,1,right,1073.7806,1074.3129,1,0,right,1,1074.313,1074.313,1074.3165,1075.8081,0,24,24,24,1,0.4,0.6,0.6,0.4,,,,,,,,,,,,,,,0.3272,,0.4,0.6,0.4,0.6,0.2,0.8,0.8,0.2,,,0.0114,,0.4,0.6,0.2,0.8,0.8,0.2,0.6,0.4,1,0
,,66715c98b42ef93f2389ce3f,66fc99c266b2bce0bebea4c5,2024-10-01_17h58.21.726,mdp,2024.2.1,Win32,119.047619,66fa4ebf79326e780c390304,,,,,,,,,,,,,,,,,,,,,1075.8103,1075.8103,1075.8147,1077.0544,1,0,right,0.7271,,1077.0595,1077.7036,1,0,right,1077.7065,1078.3096,1,1,right,0,1078.3099,1078.3099,1078.3134,1079.8062,0,25,25,25,1,0.4,0.6,0.6,0.4,,,,,,,,,,,,,,,0.1361,,0.4,0.6,0.4,0.6,0.2,0.8,0.8,0.2,,,0.084,,0.4,0.6,0.2,0.8,0.8,0.2,0.6,0.4,1,0
,,66715c98b42ef93f2389ce3f,66fc99c266b2bce0bebea4c5,2024-10-01_17h58.21.726,mdp,2024.2.1,Win32,119.047619,66fa4ebf79326e780c390304,,,,,,,,,,,,,,,,,,,,,1079.809,1079.8091,1079.8125,1081.0616,1,1,right,0.7379,,1081.0656,1081.6424,1,0,right,1081.6471,1082.6477,1,1,right,0,1082.6479,1082.6479,1082.6509,1084.15,0,26,26,26,1,0.4,0.6,0.6,0.4,,,,,,,,,,,,,,,0.0546,,0.4,0.6,0.4,0.6,0.2,0.8,0.8,0.2,,,0.4854,,0.4,0.6,0.2,0.8,0.8,0.2,0.6,0.4,1,0
,,66715c98b42ef93f2389ce3f,66fc99c266b2bce0bebea4c5,2024-10-01_17h58.21.726,mdp,2024.2.1,Win32,119.047619,66fa4ebf79326e780c390304,,,,,,,,,,,,,,,,,,,,,1084.1528,1084.1529,1084.1561,1085.2578,1,1,right,0.5948,,1085.2632,1085.9788,1,0,right,1085.9813,1086.523,1,1,right,0,1086.5231,1086.5231,1086.5247,1088.0124,0,27,27,27,1,0.4,0.6,0.6,0.4,,,,,,,,,,,,,,,0.208,,0.4,0.6,0.4,0.6,0.6,0.4,0.2,0.8,,,0.0299,,0.4,0.6,0.2,0.8,0.8,0.2,0.6,0.4,1,0
,,66715c98b42ef93f2389ce3f,66fc99c266b2bce0bebea4c5,2024-10-01_17h58.21.726,mdp,2024.2.1,Win32,119.047619,66fa4ebf79326e780c390304,,,,,,,,,,,,,,,,,,,,,1088.0143,1088.0143,1088.0182,1089.9961,1,0,right,1.4674,,1089.999,1090.7736,1,1,right,1090.7763,1091.3076,1,1,right,0,1091.3077,1091.3077,1091.3112,1092.8065,0,28,28,28,1,0.4,0.6,0.6,0.4,,,,,,,,,,,,,,,0.2492,,0.4,0.6,0.4,0.6,0.6,0.4,0.2,0.8,,,0.0106,,0.4,0.6,0.2,0.8,0.8,0.2,0.6,0.4,1,0
,,66715c98b42ef93f2389ce3f,66fc99c266b2bce0bebea4c5,2024-10-01_17h58.21.726,mdp,2024.2.1,Win32,119.047619,66fa4ebf79326e780c390304,,,,,,,,,,,,,,,,,,,,,1092.8096,1092.8099,1092.8128,1095.4188,1,1,right,2.0952,,1095.4231,1096.2765,1,1,right,1096.2812,1096.9694,1,0,right,1,1096.9696,1096.9696,1096.9729,1098.4656,0,29,29,29,1,0.4,0.6,0.6,0.4,,,,,,,,,,,,,,,0.3277,,0.4,0.6,0.4,0.6,0.6,0.4,0.2,0.8,,,0.1821,,0.4,0.6,0.2,0.8,0.8,0.2,0.6,0.4,1,0
,,66715c98b42ef93f2389ce3f,66fc99c266b2bce0bebea4c5,2024-10-01_17h58.21.726,mdp,2024.2.1,Win32,119.047619,66fa4ebf79326e780c390304,,,,,,,,,,,,,,,,,,,,,1098.4666,1098.4666,1098.4681,1099.4702,1,1,right,0.4912,,1099.4714,1100.0503,1,0,right,1100.0558,1100.5941,1,1,right,0,1100.5942,1100.5943,1100.5979,1102.1026,0,30,30,30,1,0.4,0.6,0.6,0.4,,,,,,,,,,,,,,,0.0611,,0.4,0.6,0.4,0.6,0.6,0.4,0.2,0.8,,,0.0146,,0.4,0.6,0.2,0.8,0.8,0.2,0.6,0.4,1,0
,,66715c98b42ef93f2389ce3f,66fc99c266b2bce0bebea4c5,2024-10-01_17h58.21.726,mdp,2024.2.1,Win32,119.047619,66fa4ebf79326e780c390304,,,,,,,,,,,,,,,,,,,,,1102.1058,1102.1058,1102.1157,1103.2226,1,0,right,0.597,,1103.2274,1103.7414,1,0,right,1103.7444,1104.2655,1,1,right,0,1104.2658,1104.2659,1104.269,1105.7624,0,31,31,31,1,0.4,0.6,0.6,0.4,,,,,,,,,,,,,,,0.0016,,0.4,0.6,0.4,0.6,0.6,0.4,0.2,0.8,,,0.0023,,0.4,0.6,0.2,0.8,0.8,0.2,0.6,0.4,1,0
,,66715c98b42ef93f2389ce3f,66fc99c266b2bce0bebea4c5,2024-10-01_17h58.21.726,mdp,2024.2.1,Win32,119.047619,66fa4ebf79326e780c390304,,,,,,,,,,,,,,,,,,,,,1105.7638,1105.7638,1105.7685,1106.9624,1,0,right,0.6863,,1106.966,1107.6734,1,1,right,1107.6766,1108.2292,1,1,right,0,1108.2295,1108.2295,1108.2333,1109.7272,0,32,32,32,1,0.4,0.6,0.6,0.4,,,,,,,,,,,,,,,0.1946,,0.4,0.6,0.4,0.6,0.6,0.4,0.2,0.8,,,0.0362,,0.4,0.6,0.2,0.8,0.8,0.2,0.6,0.4,1,0
,,66715c98b42ef93f2389ce3f,66fc99c266b2bce0bebea4c5,2024-10-01_17h58.21.726,mdp,2024.2.1,Win32,119.047619,66fa4ebf79326e780c390304,,,,,,,,,,,,,,,,,,,,,1109.7286,1109.7286,1109.7318,1110.8119,1,1,right,0.5679,,1110.8158,1111.6573,1,1,right,1111.6607,1112.1812,1,0,right,1,1112.1814,1112.1814,1112.1858,1113.6773,0,33,33,33,1,0.4,0.6,0.6,0.4,,,,,,,,,,,,,,,0.3189,,0.4,0.6,0.4,0.6,0.6,0.4,0.2,0.8,,,0.011,,0.4,0.6,0.2,0.8,0.8,0.2,0.6,0.4,1,0
,,66715c98b42ef93f2389ce3f,66fc99c266b2bce0bebea4c5,2024-10-01_17h58.21.726,mdp,2024.2.1,Win32,119.047619,66fa4ebf79326e780c390304,,,,,,,,,,,,,,,,,,,,,1113.679,1113.679,1113.6839,1114.3435,1,0,right,0.1463,,1114.3486,1115.3999,1,1,right,1115.4031,1116.1209,1,0,right,1,1116.1214,1116.1214,1116.125,1117.6174,0,34,34,34,1,0.4,0.6,0.6,0.4,,,,,,,,,,,,,,,0.5246,,0.4,0.6,0.4,0.6,0.6,0.4,0.2,0.8,,,0.2018,,0.4,0.6,0.2,0.8,0.8,0.2,0.6,0.4,1,0
,,66715c98b42ef93f2389ce3f,66fc99c266b2bce0bebea4c5,2024-10-01_17h58.21.726,mdp,2024.2.1,Win32,119.047619,66fa4ebf79326e780c390304,,,,,,,,,,,,,,,,,,,,,1117.6186,1117.6187,1117.6213,1118.7363,1,0,right,0.6045,,1118.7399,1119.5674,1,1,right,1119.5695,1120.412,1,0,right,1,1120.4122,1120.4123,1120.4155,1121.9089,0,35,35,35,1,0.4,0.6,0.6,0.4,,,,,,,,,,,,,,,0.3206,,0.4,0.6,0.4,0.6,0.6,0.4,0.2,0.8,,,0.3298,,0.4,0.6,0.2,0.8,0.8,0.2,0.6,0.4,1,0
,,66715c98b42ef93f2389ce3f,66fc99c266b2bce0bebea4c5,2024-10-01_17h58.21.726,mdp,2024.2.1,Win32,119.047619,66fa4ebf79326e780c390304,,,,,,,,,,,,,,,,,,,,,1121.9097,1121.9097,1121.9112,1122.4921,0,0,left,0.0624,,1122.4932,1123.4541,0,0,left,1123.4584,1124.2858,0,1,left,0,1124.2864,1124.2865,1124.2901,1125.7838,0,36,36,36,1,0.4,0.6,0.6,0.4,,,,,,,,,,,,,,,0.4441,,0.4,0.6,0.4,0.6,0.6,0.4,0.2,0.8,,,0.3023,,0.4,0.6,0.2,0.8,0.8,0.2,0.6,0.4,1,0
,,66715c98b42ef93f2389ce3f,66fc99c266b2bce0bebea4c5,2024-10-01_17h58.21.726,mdp,2024.2.1,Win32,119.047619,66fa4ebf79326e780c390304,,,,,,,,,,,,,,,,,,,,,1125.7853,1125.7854,1125.7909,1126.4923,0,1,left,0.1917,,1126.4949,1127.3626,0,0,left,1127.367,1128.2222,0,1,left,0,1128.2225,1128.2225,1128.226,1129.7241,0,37,37,37,1,0.4,0.6,0.6,0.4,,,,,,,,,,,,,,,0.344,,0.4,0.6,0.4,0.6,0.6,0.4,0.2,0.8,,,0.3462,,0.4,0.6,0.2,0.8,0.8,0.2,0.6,0.4,1,0
,,66715c98b42ef93f2389ce3f,66fc99c266b2bce0bebea4c5,2024-10-01_17h58.21.726,mdp,2024.2.1,Win32,119.047619,66fa4ebf79326e780c390304,,,,,,,,,,,,,,,,,,,,,1129.7254,1129.7254,1129.7279,1130.5834,0,0,left,0.3427,,1130.5866,1131.4164,0,0,left,1131.4196,1132.2519,0,0,left,1,1132.2522,1132.2522,1132.2556,1133.7501,0,38,38,38,1,0.4,0.6,0.6,0.4,,,,,,,,,,,,,,,0.3103,,0.4,0.6,0.4,0.6,0.6,0.4,0.2,0.8,,,0.3196,,0.4,0.6,0.2,0.8,0.8,0.2,0.6,0.4,1,0
,,66715c98b42ef93f2389ce3f,66fc99c266b2bce0bebea4c5,2024-10-01_17h58.21.726,mdp,2024.2.1,Win32,119.047619,66fa4ebf79326e780c390304,,,,,,,,,,,,,,,,,,,,,1133.752,1133.7522,1133.7547,1134.8948,0,0,left,0.6319,,1134.8978,1135.5658,0,1,left,1135.5689,1136.1504,0,0,left,1,1136.1506,1136.1506,1136.1536,1137.6479,0,39,39,39,1,0.4,0.6,0.6,0.4,,,,,,,,,,,,,,,0.159,,0.4,0.6,0.4,0.6,0.6,0.4,0.2,0.8,,,0.0623,,0.4,0.6,0.2,0.8,0.8,0.2,0.6,0.4,1,0
,,66715c98b42ef93f2389ce3f,66fc99c266b2bce0bebea4c5,2024-10-01_17h58.21.726,mdp,2024.2.1,Win32,119.047619,66fa4ebf79326e780c390304,,,,,,,,,,,,,,,,,,,,,1137.6515,1137.6515,1137.6549,1138.7359,1,0,right,0.5612,,1138.7389,1139.5539,1,1,right,1139.5575,1140.4908,1,0,right,1,1140.4908,1140.4908,1140.4942,1141.9889,0,40,40,40,1,0.4,0.6,0.6,0.4,,,,,,,,,,,,,,,0.3049,,0.4,0.6,0.4,0.6,0.6,0.4,0.2,0.8,,,0.4262,,0.4,0.6,0.2,0.8,0.8,0.2,0.6,0.4,1,0
,,66715c98b42ef93f2389ce3f,66fc99c266b2bce0bebea4c5,2024-10-01_17h58.21.726,mdp,2024.2.1,Win32,119.047619,66fa4ebf79326e780c390304,,,,,,,,,,,,,,,,,,,,,1141.9902,1141.9902,1141.9935,1142.6274,1,1,right,0.1275,,1142.6316,1143.6509,1,1,right,1143.6544,1144.6857,1,1,right,0,1144.6859,1144.6859,1144.6882,1146.1868,0,41,41,41,1,0.4,0.6,0.6,0.4,,,,,,,,,,,,,,,0.4973,,0.4,0.6,0.4,0.6,0.6,0.4,0.2,0.8,,,0.5223,,0.2,0.8,0.6,0.4,0.8,0.2,0.6,0.4,1,0
,,66715c98b42ef93f2389ce3f,66fc99c266b2bce0bebea4c5,2024-10-01_17h58.21.726,mdp,2024.2.1,Win32,119.047619,66fa4ebf79326e780c390304,,,,,,,,,,,,,,,,,,,,,1146.1885,1146.1885,1146.1915,1147.4504,1,0,right,0.7525,,1147.4527,1148.4056,1,1,right,1148.4111,1149.0893,1,0,right,1,1149.0895,1149.0896,1149.0927,1150.5877,0,42,42,42,1,0.4,0.6,0.6,0.4,,,,,,,,,,,,,,,0.4186,,0.4,0.6,0.4,0.6,0.6,0.4,0.2,0.8,,,0.1589,,0.2,0.8,0.6,0.4,0.8,0.2,0.6,0.4,1,0
,,66715c98b42ef93f2389ce3f,66fc99c266b2bce0bebea4c5,2024-10-01_17h58.21.726,mdp,2024.2.1,Win32,119.047619,66fa4ebf79326e780c390304,,,,,,,,,,,,,,,,,,,,,1150.5896,1150.5896,1150.5956,1151.5852,1,0,right,0.4811,,1151.5892,1152.8029,1,1,right,1152.8084,1153.705,1,0,right,1,1153.7051,1153.7052,1153.7083,1155.1937,0,43,43,43,1,0.4,0.6,0.6,0.4,,,,,,,,,,,,,,,0.6979,,0.6,0.4,0.2,0.8,0.6,0.4,0.2,0.8,,,0.3866,,0.2,0.8,0.6,0.4,0.8,0.2,0.6,0.4,1,0
,,66715c98b42ef93f2389ce3f,66fc99c266b2bce0bebea4c5,2024-10-01_17h58.21.726,mdp,2024.2.1,Win32,119.047619,66fa4ebf79326e780c390304,,,,,,,,,,,,,,,,,,,,,1155.1953,1155.1954,1155.1983,1156.8136,1,0,right,1.1043,,1156.8171,1157.8658,1,0,right,1157.8691,1158.5641,1,0,right,1,1158.5649,1158.565,1158.5688,1160.0695,0,44,44,44,1,0.4,0.6,0.6,0.4,,,,,,,,,,,,,,,0.5369,,0.6,0.4,0.2,0.8,0.6,0.4,0.2,0.8,,,0.1697,,0.2,0.8,0.6,0.4,0.8,0.2,0.6,0.4,1,0
,,66715c98b42ef93f2389ce3f,66fc99c266b2bce0bebea4c5,2024-10-01_17h58.21.726,mdp,2024.2.1,Win32,119.047619,66fa4ebf79326e780c390304,,,,,,,,,,,,,,,,,,,,,1160.0709,1160.071,1160.0746,1161.6235,1,0,right,1.0391,,1161.6289,1162.4012,1,1,right,1162.4044,1163.131,1,1,right,0,1163.1311,1163.1311,1163.1344,1164.6276,0,45,45,45,1,0.4,0.6,0.6,0.4,,,,,,,,,,,,,,,0.2681,,0.6,0.4,0.2,0.8,0.6,0.4,0.2,0.8,,,0.2092,,0.2,0.8,0.6,0.4,0.8,0.2,0.6,0.4,1,0
,,66715c98b42ef93f2389ce3f,66fc99c266b2bce0bebea4c5,2024-10-01_17h58.21.726,mdp,2024.2.1,Win32,119.047619,66fa4ebf79326e780c390304,,,,,,,,,,,,,,,,,,,,,1164.6309,1164.631,1164.6347,1165.178,1,1,right,0.0259,,1165.1818,1165.8023,1,1,right,1165.8063,1167.1015,1,0,right,1,1167.1017,1167.1017,1167.106,1168.6023,0,46,46,46,1,0.4,0.6,0.6,0.4,,,,,,,,,,,,,,,0.0947,,0.6,0.4,0.2,0.8,0.6,0.4,0.2,0.8,,,0.7819,,0.2,0.8,0.6,0.4,0.8,0.2,0.6,0.4,1,0
,,66715c98b42ef93f2389ce3f,66fc99c266b2bce0bebea4c5,2024-10-01_17h58.21.726,mdp,2024.2.1,Win32,119.047619,66fa4ebf79326e780c390304,,,,,,,,,,,,,,,,,,,,,1168.6045,1168.6045,1168.6079,1169.745,1,0,right,0.6166,,1169.7496,1170.3447,1,1,right,1170.3488,1171.5772,1,0,right,1,1171.5773,1171.5773,1171.5805,1173.0755,0,47,47,47,1,0.4,0.6,0.6,0.4,,,,,,,,,,,,,,,0.0754,,0.6,0.4,0.2,0.8,0.6,0.4,0.2,0.8,,,0.7198,,0.2,0.8,0.6,0.4,0.8,0.2,0.6,0.4,1,0
,,66715c98b42ef93f2389ce3f,66fc99c266b2bce0bebea4c5,2024-10-01_17h58.21.726,mdp,2024.2.1,Win32,119.047619,66fa4ebf79326e780c390304,,,,,,,,,,,,,,,,,,,,,1173.0765,1173.0765,1173.0792,1173.9361,0,1,left,0.344,,1173.9399,1174.7659,0,1,left,1174.7692,1175.5616,0,0,left,1,1175.5619,1175.562,1175.5655,1177.06,0,48,48,48,1,0.4,0.6,0.6,0.4,,,,,,,,,,,,,,,0.3155,,0.6,0.4,0.2,0.8,0.6,0.4,0.2,0.8,,,0.2776,,0.2,0.8,0.6,0.4,0.8,0.2,0.6,0.4,1,0
,,66715c98b42ef93f2389ce3f,66fc99c266b2bce0bebea4c5,2024-10-01_17h58.21.726,mdp,2024.2.1,Win32,119.047619,66fa4ebf79326e780c390304,,,,,,,,,,,,,,,,,,,,,1177.0616,1177.0616,1177.0643,1177.8037,0,0,left,0.2276,,1177.8078,1178.418,0,0,left,1178.4231,1179.0708,0,1,left,0,1179.071,1179.071,1179.0738,1180.5719,0,49,49,49,1,0.4,0.6,0.6,0.4,,,,,,,,,,,,,,,0.0938,,0.6,0.4,0.2,0.8,0.6,0.4,0.2,0.8,,,0.1263,,0.2,0.8,0.6,0.4,0.8,0.2,0.6,0.4,1,0
,,66715c98b42ef93f2389ce3f,66fc99c266b2bce0bebea4c5,2024-10-01_17h58.21.726,mdp,2024.2.1,Win32,119.047619,66fa4ebf79326e780c390304,,,,,,,,,,,,,,,,,,,,,,,,,,,,,,,,,,,,,,,,,,,,,,,,,,,,,,,,1180.5725,1239.0738,0,3,3,3,1,imgs/dog.png,imgs/goat.png,imgs/elephant.png,imgs/rabbit.png,imgs/kangaroo.png,,,,,,,,,,,,,,,,,,,,,,,,
,,66715c98b42ef93f2389ce3f,66fc99c266b2bce0bebea4c5,2024-10-01_17h58.21.726,mdp,2024.2.1,Win32,119.047619,66fa4ebf79326e780c390304,,,,,,,,,,,,,,1,seqs/st1seq28.csv,1239.0793,1265.8273,space,26.2284,,1265.8453,1265.8453,1265.8486,1268.0787,1,0,right,1.6732,,1268.0824,1268.0837,0,0,,1268.0855,1268.0864,0,0,,1,1268.0865,1268.0865,1268.0877,1269.5851,0,0,0,0,1,0.8,0.2,0.8,0.2,1,0,,,,,,,,,,,,,,,,,,,,,,,,,,,,,,,,,,,,
,,66715c98b42ef93f2389ce3f,66fc99c266b2bce0bebea4c5,2024-10-01_17h58.21.726,mdp,2024.2.1,Win32,119.047619,66fa4ebf79326e780c390304,,,,,,,,,,,,,,,,,,,,,1269.5865,1269.5868,1269.5934,1270.9579,1,0,right,0.8591,,1270.9595,1270.9603,0,1,,1270.9613,1270.9628,0,0,,1,1270.963,1270.963,1270.9647,1272.4581,0,1,1,1,1,0.8,0.2,0.8,0.2,1,0,,,,,,,,,,,,,,,,,,,,,,,,,,,,,,,,,,,,
,,66715c98b42ef93f2389ce3f,66fc99c266b2bce0bebea4c5,2024-10-01_17h58.21.726,mdp,2024.2.1,Win32,119.047619,66fa4ebf79326e780c390304,,,,,,,,,,,,,,,,,,,,,1272.4585,1272.4585,1272.4597,1274.0408,0,0,left,1.0608,,1274.0445,1274.047,0,0,,1274.0494,1274.0511,0,0,,1,1274.0512,1274.0513,1274.0529,1275.5508,0,2,2,2,1,0.8,0.2,0.8,0.2,1,0,,,,,,,,,,,,,,,,,,,,,,,,,,,,,,,,,,,,
,,66715c98b42ef93f2389ce3f,66fc99c266b2bce0bebea4c5,2024-10-01_17h58.21.726,mdp,2024.2.1,Win32,119.047619,66fa4ebf79326e780c390304,,,,,,,,,,,,,,,,,,,,,1275.5518,1275.5519,1275.5558,1277.4575,0,0,left,1.3832,,1277.4601,1277.4622,0,0,,1277.4643,1277.4655,0,0,,1,1277.4656,1277.4656,1277.4669,1278.9607,0,3,3,3,1,0.8,0.2,0.8,0.2,1,0,,,,,,,,,,,,,,,,,,,,,,,,,,,,,,,,,,,,
,,66715c98b42ef93f2389ce3f,66fc99c266b2bce0bebea4c5,2024-10-01_17h58.21.726,mdp,2024.2.1,Win32,119.047619,66fa4ebf79326e780c390304,,,,,,,,,,,,,,,,,,,,,1278.9641,1278.9641,1278.967,1281.0676,0,0,left,1.5951,,1281.0708,1281.0723,0,0,,1281.0739,1281.0751,0,0,,1,1281.0752,1281.0752,1281.0767,1282.5746,0,4,4,4,1,0.8,0.2,0.8,0.2,1,0,,,,,,,,,,,,,,,,,,,,,,,,,,,,,,,,,,,,
,,66715c98b42ef93f2389ce3f,66fc99c266b2bce0bebea4c5,2024-10-01_17h58.21.726,mdp,2024.2.1,Win32,119.047619,66fa4ebf79326e780c390304,,,,,,,,,,,,,,,,,,,,,1282.5759,1282.5759,1282.5798,1283.8572,0,0,left,0.7624,,1283.8618,1283.8639,0,0,,1283.8666,1283.8682,0,0,,1,1283.8683,1283.8684,1283.8717,1285.3661,0,5,5,5,1,0.8,0.2,0.8,0.2,1,0,,,,,,,,,,,,,,,,,,,,,,,,,,,,,,,,,,,,
,,66715c98b42ef93f2389ce3f,66fc99c266b2bce0bebea4c5,2024-10-01_17h58.21.726,mdp,2024.2.1,Win32,119.047619,66fa4ebf79326e780c390304,,,,,,,,,,,,,,,,,,,,,1285.3672,1285.3672,1285.3711,1286.1582,1,1,right,0.2751,,1286.1611,1286.1632,0,0,,1286.1649,1286.1661,0,1,,0,1286.1662,1286.1662,1286.1674,1287.6637,0,6,6,6,1,0.6,0.4,0.2,0.8,1,0,,,,,,,,,,,,,,,,,,,,,,,,,,,,,,,,,,,,
,,66715c98b42ef93f2389ce3f,66fc99c266b2bce0bebea4c5,2024-10-01_17h58.21.726,mdp,2024.2.1,Win32,119.047619,66fa4ebf79326e780c390304,,,,,,,,,,,,,,,,,,,,,1287.6649,1287.6649,1287.6671,1288.7652,1,1,right,0.5852,,1288.7685,1288.7708,0,1,,1288.7734,1288.7747,0,0,,0,1288.7748,1288.7748,1288.7768,1290.2751,0,7,7,7,1,0.6,0.4,0.2,0.8,1,0,,,,,,,,,,,,,,,,,,,,,,,,,,,,,,,,,,,,
,,66715c98b42ef93f2389ce3f,66fc99c266b2bce0bebea4c5,2024-10-01_17h58.21.726,mdp,2024.2.1,Win32,119.047619,66fa4ebf79326e780c390304,,,,,,,,,,,,,,,,,,,,,1290.2774,1290.2775,1290.2822,1291.3461,1,0,right,0.5539,,1291.3489,1291.3519,0,1,,1291.356,1291.3597,0,1,,1,1291.3601,1291.3602,1291.3631,1292.8617,0,8,8,8,1,0.8,0.2,0.4,0.6,1,0,,,,,,,,,,,,,,,,,,,,,,,,,,,,,,,,,,,,
,,66715c98b42ef93f2389ce3f,66fc99c266b2bce0bebea4c5,2024-10-01_17h58.21.726,mdp,2024.2.1,Win32,119.047619,66fa4ebf79326e780c390304,,,,,,,,,,,,,,,,,,,,,1292.8634,1292.8634,1292.8669,1294.1485,1,1,right,0.7752,,1294.1516,1294.1536,0,1,,1294.1559,1294.1574,0,1,,0,1294.1575,1294.1575,1294.1593,1295.6557,0,9,9,9,1,0.8,0.2,0.4,0.6,1,0,,,,,,,,,,,,,,,,,,,,,,,,,,,,,,,,,,,,
,,66715c98b42ef93f2389ce3f,66fc99c266b2bce0bebea4c5,2024-10-01_17h58.21.726,mdp,2024.2.1,Win32,119.047619,66fa4ebf79326e780c390304,,,,,,,,,,,,,,,,,,,,,1295.6569,1295.6569,1295.6605,1296.9159,0,0,left,0.7463,,1296.9193,1296.9208,0,0,,1296.9224,1296.9236,0,0,,1,1296.9237,1296.9237,1296.9255,1298.4221,0,10,10,10,1,0.8,0.2,0.4,0.6,1,0,,,,,,,,,,,,,,,,,,,,,,,,,,,,,,,,,,,,
,,66715c98b42ef93f2389ce3f,66fc99c266b2bce0bebea4c5,2024-10-01_17h58.21.726,mdp,2024.2.1,Win32,119.047619,66fa4ebf79326e780c390304,,,,,,,,,,,,,,,,,,,,,1298.4231,1298.4231,1298.4275,1299.5072,0,0,left,0.5714,,1299.511,1299.5126,0,0,,1299.5141,1299.5153,0,0,,1,1299.5153,1299.5153,1299.5174,1301.0118,0,11,11,11,1,0.8,0.2,0.4,0.6,1,0,,,,,,,,,,,,,,,,,,,,,,,,,,,,,,,,,,,,
,,66715c98b42ef93f2389ce3f,66fc99c266b2bce0bebea4c5,2024-10-01_17h58.21.726,mdp,2024.2.1,Win32,119.047619,66fa4ebf79326e780c390304,,,,,,,,,,,,,,,,,,,,,1301.0134,1301.0134,1301.0155,1302.0885,1,1,right,0.5616,,1302.0914,1302.0938,0,1,,1302.0954,1302.0965,0,1,,0,1302.0966,1302.0967,1302.0978,1303.5941,0,12,12,12,1,0.8,0.2,0.4,0.6,1,0,,,,,,,,,,,,,,,,,,,,,,,,,,,,,,,,,,,,
,,66715c98b42ef93f2389ce3f,66fc99c266b2bce0bebea4c5,2024-10-01_17h58.21.726,mdp,2024.2.1,Win32,119.047619,66fa4ebf79326e780c390304,,,,,,,,,,,,,,,,,,,,,1303.5954,1303.5961,1303.6011,1304.8473,0,0,left,0.7361,,1304.8505,1304.8521,0,0,,1304.8538,1304.8548,0,0,,1,1304.8549,1304.8549,1304.8561,1306.3518,0,13,13,13,1,0.8,0.2,0.4,0.6,1,0,,,,,,,,,,,,,,,,,,,,,,,,,,,,,,,,,,,,
,,66715c98b42ef93f2389ce3f,66fc99c266b2bce0bebea4c5,2024-10-01_17h58.21.726,mdp,2024.2.1,Win32,119.047619,66fa4ebf79326e780c390304,,,,,,,,,,,,,,,,,,,,,1306.3531,1306.3532,1306.3563,1308.1923,0,0,left,1.325,,1308.1953,1308.1971,0,0,,1308.1993,1308.2008,0,0,,1,1308.2009,1308.2009,1308.2027,1309.6949,0,14,14,14,1,0.8,0.2,0.4,0.6,1,0,,,,,,,,,,,,,,,,,,,,,,,,,,,,,,,,,,,,
,,66715c98b42ef93f2389ce3f,66fc99c266b2bce0bebea4c5,2024-10-01_17h58.21.726,mdp,2024.2.1,Win32,119.047619,66fa4ebf79326e780c390304,,,,,,,,,,,,,,,,,,,,,1309.6959,1309.6959,1309.6989,1310.8868,0,1,left,0.6738,,1310.8889,1310.8915,0,0,,1310.8938,1310.895,0,0,,0,1310.8951,1310.8951,1310.8965,1312.3949,0,15,15,15,1,0.8,0.2,0.4,0.6,1,0,,,,,,,,,,,,,,,,,,,,,,,,,,,,,,,,,,,,
,,66715c98b42ef93f2389ce3f,66fc99c266b2bce0bebea4c5,2024-10-01_17h58.21.726,mdp,2024.2.1,Win32,119.047619,66fa4ebf79326e780c390304,,,,,,,,,,,,,,,,,,,,,1312.3955,1312.3955,1312.3979,1313.6026,1,0,right,0.6928,,1313.6065,1313.6097,0,1,,1313.6123,1313.6143,0,0,,1,1313.6146,1313.6146,1313.617,1315.1058,0,16,16,16,1,0.8,0.2,0.4,0.6,1,0,,,,,,,,,,,,,,,,,,,,,,,,,,,,,,,,,,,,
,,66715c98b42ef93f2389ce3f,66fc99c266b2bce0bebea4c5,2024-10-01_17h58.21.726,mdp,2024.2.1,Win32,119.047619,66fa4ebf79326e780c390304,,,,,,,,,,,,,,,,,,,,,1315.1067,1315.1067,1315.1088,1316.47,1,1,right,0.8449,,1316.474,1316.4757,0,1,,1316.4779,1316.4793,0,1,,0,1316.4794,1316.4794,1316.4844,1317.9861,0,17,17,17,1,0.8,0.2,0.4,0.6,1,0,,,,,,,,,,,,,,,,,,,,,,,,,,,,,,,,,,,,
,,66715c98b42ef93f2389ce3f,66fc99c266b2bce0bebea4c5,2024-10-01_17h58.21.726,mdp,2024.2.1,Win32,119.047619,66fa4ebf79326e780c390304,,,,,,,,,,,,,,,,,,,,,1317.9875,1317.9875,1317.9927,1319.8882,0,1,left,1.3765,,1319.8917,1319.8932,0,1,,1319.8946,1319.8957,0,1,,0,1319.8958,1319.8958,1319.8981,1321.3933,0,18,18,18,1,0.2,0.8,0.6,0.4,1,0,,,,,,,,,,,,,,,,,,,,,,,,,,,,,,,,,,,,
,,66715c98b42ef93f2389ce3f,66fc99c266b2bce0bebea4c5,2024-10-01_17h58.21.726,mdp,2024.2.1,Win32,119.047619,66fa4ebf79326e780c390304,,,,,,,,,,,,,,,,,,,,,1321.3943,1321.3943,1321.3974,1322.1343,0,0,left,0.2265,,1322.1361,1322.1375,0,0,,1322.1401,1322.1414,0,0,,1,1322.1414,1322.1414,1322.1425,1323.6417,0,19,19,19,1,0.6,0.4,0.2,0.8,1,0,,,,,,,,,,,,,,,,,,,,,,,,,,,,,,,,,,,,
,,66715c98b42ef93f2389ce3f,66fc99c266b2bce0bebea4c5,2024-10-01_17h58.21.726,mdp,2024.2.1,Win32,119.047619,66fa4ebf79326e780c390304,,,,,,,,,,,,,,,,,,,,,1323.643,1323.6431,1323.6453,1324.9812,0,0,left,0.8197,,1324.9837,1324.9851,0,1,,1324.9878,1324.9892,0,0,,1,1324.9892,1324.9892,1324.9908,1326.4923,0,20,20,20,1,0.6,0.4,0.2,0.8,1,0,,,,,,,,,,,,,,,,,,,,,,,,,,,,,,,,,,,,
,,66715c98b42ef93f2389ce3f,66fc99c266b2bce0bebea4c5,2024-10-01_17h58.21.726,mdp,2024.2.1,Win32,119.047619,66fa4ebf79326e780c390304,,,,,,,,,,,,,,,,,,,,,1326.4935,1326.4936,1326.4974,1327.3958,1,1,right,0.3897,,1327.4012,1327.4034,0,0,,1327.4064,1327.4084,0,1,,0,1327.4086,1327.4086,1327.4108,1328.9025,0,21,21,21,1,0.6,0.4,0.2,0.8,1,0,,,,,,,,,,,,,,,,,,,,,,,,,,,,,,,,,,,,
,,66715c98b42ef93f2389ce3f,66fc99c266b2bce0bebea4c5,2024-10-01_17h58.21.726,mdp,2024.2.1,Win32,119.047619,66fa4ebf79326e780c390304,,,,,,,,,,,,,,,,,,,,,1328.9045,1328.9045,1328.9089,1329.9432,1,1,right,0.5178,,1329.9463,1329.9477,0,1,,1329.9495,1329.9504,0,1,,0,1329.9505,1329.9505,1329.9516,1331.4397,0,22,22,22,1,0.6,0.4,0.2,0.8,1,0,,,,,,,,,,,,,,,,,,,,,,,,,,,,,,,,,,,,
,,66715c98b42ef93f2389ce3f,66fc99c266b2bce0bebea4c5,2024-10-01_17h58.21.726,mdp,2024.2.1,Win32,119.047619,66fa4ebf79326e780c390304,,,,,,,,,,,,,,,,,,,,,1331.4416,1331.4418,1331.4474,1332.3926,1,0,right,0.441,,1332.3977,1332.4001,0,1,,1332.4038,1332.4056,0,1,,1,1332.4057,1332.4058,1332.4078,1333.9054,0,23,23,23,1,0.6,0.4,0.2,0.8,1,0,,,,,,,,,,,,,,,,,,,,,,,,,,,,,,,,,,,,
,,66715c98b42ef93f2389ce3f,66fc99c266b2bce0bebea4c5,2024-10-01_17h58.21.726,mdp,2024.2.1,Win32,119.047619,66fa4ebf79326e780c390304,,,,,,,,,,,,,,,,,,,,,1333.9065,1333.9065,1333.9083,1334.9345,1,0,right,0.5123,,1334.9383,1334.9397,0,1,,1334.9412,1334.9423,0,1,,1,1334.9424,1334.9424,1334.9443,1336.4408,0,24,24,24,1,0.6,0.4,0.2,0.8,1,0,,,,,,,,,,,,,,,,,,,,,,,,,,,,,,,,,,,,
,,66715c98b42ef93f2389ce3f,66fc99c266b2bce0bebea4c5,2024-10-01_17h58.21.726,mdp,2024.2.1,Win32,119.047619,66fa4ebf79326e780c390304,,,,,,,,,,,,,,,,,,,,,1336.4416,1336.4416,1336.4446,1337.794,1,1,right,0.8375,,1337.7966,1337.7984,0,1,,1337.8,1337.8012,0,0,,0,1337.8012,1337.8012,1337.8031,1339.299,0,25,25,25,1,0.6,0.4,0.2,0.8,1,0,,,,,,,,,,,,,,,,,,,,,,,,,,,,,,,,,,,,
,,66715c98b42ef93f2389ce3f,66fc99c266b2bce0bebea4c5,2024-10-01_17h58.21.726,mdp,2024.2.1,Win32,119.047619,66fa4ebf79326e780c390304,,,,,,,,,,,,,,,,,,,,,1339.2999,1339.3,1339.303,1340.3191,0,0,left,0.5038,,1340.3224,1340.3236,0,1,,1340.3251,1340.3271,0,0,,1,1340.3273,1340.3273,1340.329,1341.8219,0,26,26,26,1,0.6,0.4,0.2,0.8,1,0,,,,,,,,,,,,,,,,,,,,,,,,,,,,,,,,,,,,
,,66715c98b42ef93f2389ce3f,66fc99c266b2bce0bebea4c5,2024-10-01_17h58.21.726,mdp,2024.2.1,Win32,119.047619,66fa4ebf79326e780c390304,,,,,,,,,,,,,,,,,,,,,1341.8232,1341.8232,1341.8255,1342.7996,0,0,left,0.4623,,1342.8032,1342.8046,0,0,,1342.806,1342.8071,0,1,,1,1342.8073,1342.8073,1342.8088,1344.3069,0,27,27,27,1,0.6,0.4,0.2,0.8,1,0,,,,,,,,,,,,,,,,,,,,,,,,,,,,,,,,,,,,
,,66715c98b42ef93f2389ce3f,66fc99c266b2bce0bebea4c5,2024-10-01_17h58.21.726,mdp,2024.2.1,Win32,119.047619,66fa4ebf79326e780c390304,,,,,,,,,,,,,,,,,,,,,1344.3097,1344.3101,1344.3144,1345.433,0,0,left,0.6085,,1345.4385,1345.4412,0,1,,1345.447,1345.4495,0,0,,1,1345.4496,1345.4497,1345.4548,1346.9474,0,28,28,28,1,0.6,0.4,0.2,0.8,1,0,,,,,,,,,,,,,,,,,,,,,,,,,,,,,,,,,,,,
,,66715c98b42ef93f2389ce3f,66fc99c266b2bce0bebea4c5,2024-10-01_17h58.21.726,mdp,2024.2.1,Win32,119.047619,66fa4ebf79326e780c390304,,,,,,,,,,,,,,,,,,,,,1346.9486,1346.9486,1346.9513,1348.3089,0,1,left,0.8436,,1348.3126,1348.3138,0,1,,1348.3151,1348.3161,0,0,,0,1348.3161,1348.3161,1348.3181,1349.8125,0,29,29,29,1,0.6,0.4,0.2,0.8,1,0,,,,,,,,,,,,,,,,,,,,,,,,,,,,,,,,,,,,
,,66715c98b42ef93f2389ce3f,66fc99c266b2bce0bebea4c5,2024-10-01_17h58.21.726,mdp,2024.2.1,Win32,119.047619,66fa4ebf79326e780c390304,,,,,,,,,,,,,,,,,,,,,1349.8136,1349.8137,1349.8161,1351.698,1,1,right,1.3679,,1351.7015,1351.7033,0,1,,1351.705,1351.706,0,1,,0,1351.7061,1351.7061,1351.7073,1353.203,0,30,30,30,1,0.6,0.4,0.2,0.8,1,0,,,,,,,,,,,,,,,,,,,,,,,,,,,,,,,,,,,,
,,66715c98b42ef93f2389ce3f,66fc99c266b2bce0bebea4c5,2024-10-01_17h58.21.726,mdp,2024.2.1,Win32,119.047619,66fa4ebf79326e780c390304,,,,,,,,,,,,,,,,,,,,,1353.2042,1353.2042,1353.2068,1354.5895,1,1,right,0.8707,,1354.5933,1354.5959,0,1,,1354.5982,1354.6001,0,1,,0,1354.6002,1354.6002,1354.6017,1356.0946,0,31,31,31,1,0.6,0.4,0.2,0.8,1,0,,,,,,,,,,,,,,,,,,,,,,,,,,,,,,,,,,,,
,,66715c98b42ef93f2389ce3f,66fc99c266b2bce0bebea4c5,2024-10-01_17h58.21.726,mdp,2024.2.1,Win32,119.047619,66fa4ebf79326e780c390304,,,,,,,,,,,,,,,,,,,,,1356.0964,1356.0965,1356.0983,1357.7386,1,0,right,1.1261,,1357.742,1357.7437,0,0,,1357.7456,1357.7468,0,1,,1,1357.7469,1357.7469,1357.7485,1359.2443,0,32,32,32,1,0.4,0.6,0.6,0.4,1,0,,,,,,,,,,,,,,,,,,,,,,,,,,,,,,,,,,,,
,,66715c98b42ef93f2389ce3f,66fc99c266b2bce0bebea4c5,2024-10-01_17h58.21.726,mdp,2024.2.1,Win32,119.047619,66fa4ebf79326e780c390304,,,,,,,,,,,,,,,,,,,,,1359.2455,1359.2455,1359.2486,1360.7082,1,1,right,0.9448,,1360.7121,1360.7139,0,0,,1360.7167,1360.7186,0,0,,0,1360.7187,1360.7187,1360.7206,1362.22,0,33,33,33,1,0.4,0.6,0.6,0.4,1,0,,,,,,,,,,,,,,,,,,,,,,,,,,,,,,,,,,,,
,,66715c98b42ef93f2389ce3f,66fc99c266b2bce0bebea4c5,2024-10-01_17h58.21.726,mdp,2024.2.1,Win32,119.047619,66fa4ebf79326e780c390304,,,,,,,,,,,,,,,,,,,,,1362.2212,1362.2212,1362.225,1363.9832,0,0,left,1.2476,,1363.9857,1363.9872,0,1,,1363.9887,1363.9907,0,1,,1,1363.9909,1363.9909,1363.9925,1365.487,0,34,34,34,1,0.4,0.6,0.6,0.4,1,0,,,,,,,,,,,,,,,,,,,,,,,,,,,,,,,,,,,,
,,66715c98b42ef93f2389ce3f,66fc99c266b2bce0bebea4c5,2024-10-01_17h58.21.726,mdp,2024.2.1,Win32,119.047619,66fa4ebf79326e780c390304,,,,,,,,,,,,,,,,,,,,,1365.4882,1365.4883,1365.4919,1367.6754,0,1,left,1.6723,,1367.6786,1367.681,0,1,,1367.6839,1367.6859,0,1,,0,1367.6861,1367.6861,1367.6879,1369.1874,0,35,35,35,1,0.4,0.6,0.6,0.4,1,0,,,,,,,,,,,,,,,,,,,,,,,,,,,,,,,,,,,,
,,66715c98b42ef93f2389ce3f,66fc99c266b2bce0bebea4c5,2024-10-01_17h58.21.726,mdp,2024.2.1,Win32,119.047619,66fa4ebf79326e780c390304,,,,,,,,,,,,,,,,,,,,,1369.1901,1369.1901,1369.1936,1370.5333,1,0,right,0.8316,,1370.5369,1370.539,0,0,,1370.5409,1370.5424,0,1,,1,1370.5425,1370.5425,1370.5439,1372.0434,0,36,36,36,1,0.4,0.6,0.6,0.4,1,0,,,,,,,,,,,,,,,,,,,,,,,,,,,,,,,,,,,,
,,66715c98b42ef93f2389ce3f,66fc99c266b2bce0bebea4c5,2024-10-01_17h58.21.726,mdp,2024.2.1,Win32,119.047619,66fa4ebf79326e780c390304,,,,,,,,,,,,,,,,,,,,,1372.0442,1372.0443,1372.0476,1375.5692,1,0,right,3.0104,,1375.572,1375.5737,0,0,,1375.5753,1375.5763,0,1,,1,1375.5764,1375.5764,1375.5775,1377.077,0,37,37,37,1,0.4,0.6,0.6,0.4,1,0,,,,,,,,,,,,,,,,,,,,,,,,,,,,,,,,,,,,
,,66715c98b42ef93f2389ce3f,66fc99c266b2bce0bebea4c5,2024-10-01_17h58.21.726,mdp,2024.2.1,Win32,119.047619,66fa4ebf79326e780c390304,,,,,,,,,,,,,,,,,,,,,1377.0784,1377.0784,1377.0833,1378.1774,1,1,right,0.5883,,1378.1811,1378.1826,0,1,,1378.184,1378.1851,0,0,,0,1378.1852,1378.1852,1378.1864,1379.6837,0,38,38,38,1,0.4,0.6,0.6,0.4,1,0,,,,,,,,,,,,,,,,,,,,,,,,,,,,,,,,,,,,
,,66715c98b42ef93f2389ce3f,66fc99c266b2bce0bebea4c5,2024-10-01_17h58.21.726,mdp,2024.2.1,Win32,119.047619,66fa4ebf79326e780c390304,,,,,,,,,,,,,,,,,,,,,1379.6849,1379.6849,1379.6875,1380.8171,0,0,left,0.6214,,1380.819,1380.8213,0,1,,1380.8239,1380.8252,0,0,,1,1380.8252,1380.8252,1380.8267,1382.3256,0,39,39,39,1,0.4,0.6,0.6,0.4,1,0,,,,,,,,,,,,,,,,,,,,,,,,,,,,,,,,,,,,
,,66715c98b42ef93f2389ce3f,66fc99c266b2bce0bebea4c5,2024-10-01_17h58.21.726,mdp,2024.2.1,Win32,119.047619,66fa4ebf79326e780c390304,,,,,,,,,,,,,,,,,,,,,1382.3272,1382.3274,1382.3312,1383.344,0,1,left,0.5024,,1383.3482,1383.3502,0,0,,1383.3522,1383.3552,0,0,,0,1383.3553,1383.3553,1383.3583,1384.8593,0,40,40,40,1,0.4,0.6,0.6,0.4,1,0,,,,,,,,,,,,,,,,,,,,,,,,,,,,,,,,,,,,
