init_exp.started,init_exp.stopped,participant,session,date,expName,psychopyVersion,OS,frameRate,study_id,disp_instruction.started,disp_instruction.stopped,instruction.thisRepN,instruction.thisTrialN,instruction.thisN,instruction.thisIndex,instruction.ran,instimg_path,consent.started,consent.stopped,key_resp_3.keys,key_resp_3.rt,key_resp_3.duration,n_steps,sequence_path,init_block.started,init_block.stopped,key_resp.keys,key_resp.rt,key_resp.duration,init_trials.started,init_trials.stopped,step0.started,step0.stopped,act0,s1,res0.keys,res0.rt,res0.duration,step1.started,step1.stopped,act1,s2,res1.keys,step2.started,step2.stopped,act2,s3,res2.keys,rew,reward_comp.started,reward_comp.stopped,reward_disp.started,reward_disp.stopped,trials.thisRepN,trials.thisTrialN,trials.thisN,trials.thisIndex,trials.ran,s00a0s10,s00a0s11,s00a1s10,s00a1s11,rew10,rew11,break_block.started,break_block.stopped,block.thisRepN,block.thisTrialN,block.thisN,block.thisIndex,block.ran,s00path,s10path,s11path,s20path,s21path,res1.rt,res1.duration,s10a0s20,s10a0s21,s10a1s20,s10a1s21,s11a0s20,s11a0s21,s11a1s20,s11a1s21,rew20,rew21,res2.rt,res2.duration,s20a0s30,s20a0s31,s20a1s30,s20a1s31,s21a0s30,s21a0s31,s21a1s30,s21a1s31,rew30,rew31
0.0005,0.0042,6672d9dfb3878b6f6c5fa763,66fc9871dd51ea4de981dbf1,2024-10-02_02h51.11.589,mdp,2024.2.1,Win32,59.88023952,66fa4ebf79326e780c390304,,,,,,,,,,,,,,,,,,,,,,,,,,,,,,,,,,,,,,,,,,,,,,,,,,,,,,,,,,,,,,,,,,,,,,,,,,,,,,,,,,,,,,,,,,,
,,6672d9dfb3878b6f6c5fa763,66fc9871dd51ea4de981dbf1,2024-10-02_02h51.11.589,mdp,2024.2.1,Win32,59.88023952,66fa4ebf79326e780c390304,0.0917,23.9386,0,0,0,0,1,rlnn_exp/rlnn_exp.001.png,,,,,,,,,,,,,,,,,,,,,,,,,,,,,,,,,,,,,,,,,,,,,,,,,,,,,,,,,,,,,,,,,,,,,,,,,,,,,,,,,,,
,,6672d9dfb3878b6f6c5fa763,66fc9871dd51ea4de981dbf1,2024-10-02_02h51.11.589,mdp,2024.2.1,Win32,59.88023952,66fa4ebf79326e780c390304,23.9404,41.3835,0,1,1,1,1,rlnn_exp/rlnn_exp.002.png,,,,,,,,,,,,,,,,,,,,,,,,,,,,,,,,,,,,,,,,,,,,,,,,,,,,,,,,,,,,,,,,,,,,,,,,,,,,,,,,,,,
,,6672d9dfb3878b6f6c5fa763,66fc9871dd51ea4de981dbf1,2024-10-02_02h51.11.589,mdp,2024.2.1,Win32,59.88023952,66fa4ebf79326e780c390304,41.3862,63.7007,0,2,2,2,1,rlnn_exp/rlnn_exp.003.png,,,,,,,,,,,,,,,,,,,,,,,,,,,,,,,,,,,,,,,,,,,,,,,,,,,,,,,,,,,,,,,,,,,,,,,,,,,,,,,,,,,
,,6672d9dfb3878b6f6c5fa763,66fc9871dd51ea4de981dbf1,2024-10-02_02h51.11.589,mdp,2024.2.1,Win32,59.88023952,66fa4ebf79326e780c390304,63.7035,86.5681,0,3,3,3,1,rlnn_exp/rlnn_exp.004.png,,,,,,,,,,,,,,,,,,,,,,,,,,,,,,,,,,,,,,,,,,,,,,,,,,,,,,,,,,,,,,,,,,,,,,,,,,,,,,,,,,,
,,6672d9dfb3878b6f6c5fa763,66fc9871dd51ea4de981dbf1,2024-10-02_02h51.11.589,mdp,2024.2.1,Win32,59.88023952,66fa4ebf79326e780c390304,,,,,,,,,86.5695,422.3437,y,325.6907,,,,,,,,,,,,,,,,,,,,,,,,,,,,,,,,,,,,,,,,,,,,,,,,,,,,,,,,,,,,,,,,,,,,,,,,,,,,,,,
,,6672d9dfb3878b6f6c5fa763,66fc9871dd51ea4de981dbf1,2024-10-02_02h51.11.589,mdp,2024.2.1,Win32,59.88023952,66fa4ebf79326e780c390304,,,,,,,,,,,,,,1,seqs/st1seq23.csv,422.3625,426.7598,space,3.868,,426.7694,426.7696,426.7706,620.3991,1,0,right,192.9637,,620.4012,620.4054,,0,,620.4062,620.4094,,1,,1,620.4096,620.4099,620.4106,621.9049,0,0,0,0,1,0.2,0.8,0.8,0.2,1,0,,,,,,,,,,,,,,,,,,,,,,,,,,,,,,,,,,,,
,,6672d9dfb3878b6f6c5fa763,66fc9871dd51ea4de981dbf1,2024-10-02_02h51.11.589,mdp,2024.2.1,Win32,59.88023952,66fa4ebf79326e780c390304,,,,,,,,,,,,,,,,,,,,,621.9065,621.9065,621.9083,622.4989,0,1,left,0.0593,,622.5023,622.5037,,1,,622.5054,622.5069,,0,,0,622.507,622.507,622.5085,623.9984,0,1,1,1,1,0.2,0.8,0.8,0.2,1,0,,,,,,,,,,,,,,,,,,,,,,,,,,,,,,,,,,,,
,,6672d9dfb3878b6f6c5fa763,66fc9871dd51ea4de981dbf1,2024-10-02_02h51.11.589,mdp,2024.2.1,Win32,59.88023952,66fa4ebf79326e780c390304,,,,,,,,,,,,,,,,,,,,,623.9998,623.9998,624.0034,628.3317,0,1,left,3.8018,,628.3349,628.3369,,1,,628.3384,628.3399,,1,,0,628.3401,628.3401,628.3415,629.8314,0,2,2,2,1,0.2,0.8,0.8,0.2,1,0,,,,,,,,,,,,,,,,,,,,,,,,,,,,,,,,,,,,
,,6672d9dfb3878b6f6c5fa763,66fc9871dd51ea4de981dbf1,2024-10-02_02h51.11.589,mdp,2024.2.1,Win32,59.88023952,66fa4ebf79326e780c390304,,,,,,,,,,,,,,,,,,,,,629.8327,629.8328,629.8364,653.8494,1,0,right,23.4862,,653.8529,653.8546,,0,,653.8562,653.8576,,0,,1,653.8578,653.8578,653.8591,655.3571,0,3,3,3,1,0.2,0.8,0.8,0.2,1,0,,,,,,,,,,,,,,,,,,,,,,,,,,,,,,,,,,,,
,,6672d9dfb3878b6f6c5fa763,66fc9871dd51ea4de981dbf1,2024-10-02_02h51.11.589,mdp,2024.2.1,Win32,59.88023952,66fa4ebf79326e780c390304,,,,,,,,,,,,,,,,,,,,,655.3595,655.3595,655.3614,657.5889,1,0,right,1.6995,,657.5912,657.5924,,0,,657.594,657.5956,,1,,1,657.5957,657.5957,657.597,659.0901,0,4,4,4,1,0.2,0.8,0.8,0.2,1,0,,,,,,,,,,,,,,,,,,,,,,,,,,,,,,,,,,,,
,,6672d9dfb3878b6f6c5fa763,66fc9871dd51ea4de981dbf1,2024-10-02_02h51.11.589,mdp,2024.2.1,Win32,59.88023952,66fa4ebf79326e780c390304,,,,,,,,,,,,,,,,,,,,,659.0922,659.0923,659.0973,660.6839,1,0,right,1.0668,,660.6871,660.6888,,0,,660.6906,660.6923,,0,,1,660.6924,660.6924,660.694,662.1851,0,5,5,5,1,0.6,0.4,0.6,0.4,1,0,,,,,,,,,,,,,,,,,,,,,,,,,,,,,,,,,,,,
,,6672d9dfb3878b6f6c5fa763,66fc9871dd51ea4de981dbf1,2024-10-02_02h51.11.589,mdp,2024.2.1,Win32,59.88023952,66fa4ebf79326e780c390304,,,,,,,,,,,,,,,,,,,,,662.1862,662.1863,662.1894,664.6906,1,1,right,1.9937,,664.6935,664.695,,0,,664.6966,664.6981,,0,,0,664.6993,664.6993,664.7015,666.1992,0,6,6,6,1,0.8,0.2,0.8,0.2,1,0,,,,,,,,,,,,,,,,,,,,,,,,,,,,,,,,,,,,
,,6672d9dfb3878b6f6c5fa763,66fc9871dd51ea4de981dbf1,2024-10-02_02h51.11.589,mdp,2024.2.1,Win32,59.88023952,66fa4ebf79326e780c390304,,,,,,,,,,,,,,,,,,,,,666.2004,666.2005,666.204,667.9828,1,0,right,1.2525,,667.9861,667.9879,,1,,667.9895,667.9909,,0,,1,667.991,667.9911,667.9925,669.4824,0,7,7,7,1,0.8,0.2,0.8,0.2,1,0,,,,,,,,,,,,,,,,,,,,,,,,,,,,,,,,,,,,
,,6672d9dfb3878b6f6c5fa763,66fc9871dd51ea4de981dbf1,2024-10-02_02h51.11.589,mdp,2024.2.1,Win32,59.88023952,66fa4ebf79326e780c390304,,,,,,,,,,,,,,,,,,,,,669.4841,669.4843,669.4872,670.2494,1,0,right,0.2343,,670.2527,670.2547,,0,,670.2564,670.2577,,0,,1,670.2578,670.2579,670.2593,671.7491,0,8,8,8,1,0.8,0.2,0.8,0.2,1,0,,,,,,,,,,,,,,,,,,,,,,,,,,,,,,,,,,,,
,,6672d9dfb3878b6f6c5fa763,66fc9871dd51ea4de981dbf1,2024-10-02_02h51.11.589,mdp,2024.2.1,Win32,59.88023952,66fa4ebf79326e780c390304,,,,,,,,,,,,,,,,,,,,,671.7503,671.7504,671.7535,672.483,1,1,right,0.2068,,672.4863,672.4881,,0,,672.4896,672.4911,,1,,0,672.4912,672.4912,672.4929,673.9824,0,9,9,9,1,0.8,0.2,0.8,0.2,1,0,,,,,,,,,,,,,,,,,,,,,,,,,,,,,,,,,,,,
,,6672d9dfb3878b6f6c5fa763,66fc9871dd51ea4de981dbf1,2024-10-02_02h51.11.589,mdp,2024.2.1,Win32,59.88023952,66fa4ebf79326e780c390304,,,,,,,,,,,,,,,,,,,,,673.9836,673.9837,673.9863,674.6163,1,0,right,0.101,,674.6195,674.6213,,0,,674.6229,674.6244,,0,,1,674.6244,674.6244,674.6258,676.1159,0,10,10,10,1,0.8,0.2,0.8,0.2,1,0,,,,,,,,,,,,,,,,,,,,,,,,,,,,,,,,,,,,
,,6672d9dfb3878b6f6c5fa763,66fc9871dd51ea4de981dbf1,2024-10-02_02h51.11.589,mdp,2024.2.1,Win32,59.88023952,66fa4ebf79326e780c390304,,,,,,,,,,,,,,,,,,,,,676.1172,676.1172,676.1198,676.7664,1,1,right,0.1178,,676.7695,676.7714,,0,,676.7731,676.7744,,1,,0,676.7745,676.7745,676.7759,678.2664,0,11,11,11,1,0.6,0.4,0.4,0.6,1,0,,,,,,,,,,,,,,,,,,,,,,,,,,,,,,,,,,,,
,,6672d9dfb3878b6f6c5fa763,66fc9871dd51ea4de981dbf1,2024-10-02_02h51.11.589,mdp,2024.2.1,Win32,59.88023952,66fa4ebf79326e780c390304,,,,,,,,,,,,,,,,,,,,,678.2676,678.2676,678.2703,680.5831,1,0,right,1.7887,,680.5865,680.5883,,1,,680.5899,680.5914,,1,,1,680.5915,680.5915,680.5928,682.0832,0,12,12,12,1,0.6,0.4,0.4,0.6,1,0,,,,,,,,,,,,,,,,,,,,,,,,,,,,,,,,,,,,
,,6672d9dfb3878b6f6c5fa763,66fc9871dd51ea4de981dbf1,2024-10-02_02h51.11.589,mdp,2024.2.1,Win32,59.88023952,66fa4ebf79326e780c390304,,,,,,,,,,,,,,,,,,,,,682.0844,682.0844,682.0872,682.6672,1,0,right,0.0584,,682.6705,682.6722,,0,,682.6738,682.6752,,1,,1,682.6753,682.6753,682.6766,684.1664,0,13,13,13,1,0.8,0.2,0.6,0.4,1,0,,,,,,,,,,,,,,,,,,,,,,,,,,,,,,,,,,,,
,,6672d9dfb3878b6f6c5fa763,66fc9871dd51ea4de981dbf1,2024-10-02_02h51.11.589,mdp,2024.2.1,Win32,59.88023952,66fa4ebf79326e780c390304,,,,,,,,,,,,,,,,,,,,,684.1679,684.1679,684.1709,684.8335,1,1,right,0.1341,,684.8373,684.839,,0,,684.8411,684.8425,,1,,0,684.8425,684.8426,684.844,686.3333,0,14,14,14,1,0.8,0.2,0.6,0.4,1,0,,,,,,,,,,,,,,,,,,,,,,,,,,,,,,,,,,,,
,,6672d9dfb3878b6f6c5fa763,66fc9871dd51ea4de981dbf1,2024-10-02_02h51.11.589,mdp,2024.2.1,Win32,59.88023952,66fa4ebf79326e780c390304,,,,,,,,,,,,,,,,,,,,,686.3346,686.3346,686.3373,686.9833,1,0,right,0.1177,,686.9866,686.9883,,1,,686.9899,686.9912,,1,,1,686.9913,686.9913,686.9926,688.4835,0,15,15,15,1,0.8,0.2,0.6,0.4,1,0,,,,,,,,,,,,,,,,,,,,,,,,,,,,,,,,,,,,
,,6672d9dfb3878b6f6c5fa763,66fc9871dd51ea4de981dbf1,2024-10-02_02h51.11.589,mdp,2024.2.1,Win32,59.88023952,66fa4ebf79326e780c390304,,,,,,,,,,,,,,,,,,,,,688.4849,688.4849,688.4877,689.1669,1,0,right,0.151,,689.1703,689.1719,,0,,689.1735,689.175,,1,,1,689.1751,689.1751,689.1764,690.6662,0,16,16,16,1,0.8,0.2,0.6,0.4,1,0,,,,,,,,,,,,,,,,,,,,,,,,,,,,,,,,,,,,
,,6672d9dfb3878b6f6c5fa763,66fc9871dd51ea4de981dbf1,2024-10-02_02h51.11.589,mdp,2024.2.1,Win32,59.88023952,66fa4ebf79326e780c390304,,,,,,,,,,,,,,,,,,,,,690.6674,690.6675,690.6703,691.25,1,0,right,0.0565,,691.2536,691.2555,,0,,691.2571,691.2584,,1,,1,691.2585,691.2585,691.2599,692.7496,0,17,17,17,1,0.6,0.4,0.4,0.6,1,0,,,,,,,,,,,,,,,,,,,,,,,,,,,,,,,,,,,,
,,6672d9dfb3878b6f6c5fa763,66fc9871dd51ea4de981dbf1,2024-10-02_02h51.11.589,mdp,2024.2.1,Win32,59.88023952,66fa4ebf79326e780c390304,,,,,,,,,,,,,,,,,,,,,692.7507,692.7508,692.7536,693.3836,1,1,right,0.1011,,693.3872,693.3892,,1,,693.3909,693.3925,,1,,0,693.3926,693.3927,693.3952,694.8833,0,18,18,18,1,0.6,0.4,0.4,0.6,1,0,,,,,,,,,,,,,,,,,,,,,,,,,,,,,,,,,,,,
,,6672d9dfb3878b6f6c5fa763,66fc9871dd51ea4de981dbf1,2024-10-02_02h51.11.589,mdp,2024.2.1,Win32,59.88023952,66fa4ebf79326e780c390304,,,,,,,,,,,,,,,,,,,,,694.885,694.885,694.8876,695.4338,1,1,right,0.018,,695.4371,695.4386,,1,,695.4403,695.4417,,0,,0,695.4418,695.4418,695.4432,696.933,0,19,19,19,1,0.8,0.2,0.8,0.2,1,0,,,,,,,,,,,,,,,,,,,,,,,,,,,,,,,,,,,,
,,6672d9dfb3878b6f6c5fa763,66fc9871dd51ea4de981dbf1,2024-10-02_02h51.11.589,mdp,2024.2.1,Win32,59.88023952,66fa4ebf79326e780c390304,,,,,,,,,,,,,,,,,,,,,696.9343,696.9343,696.9372,697.5503,1,1,right,0.0846,,697.5537,697.5554,,0,,697.5571,697.5586,,0,,0,697.5588,697.5588,697.5605,699.0499,0,20,20,20,1,0.8,0.2,0.8,0.2,1,0,,,,,,,,,,,,,,,,,,,,,,,,,,,,,,,,,,,,
,,6672d9dfb3878b6f6c5fa763,66fc9871dd51ea4de981dbf1,2024-10-02_02h51.11.589,mdp,2024.2.1,Win32,59.88023952,66fa4ebf79326e780c390304,,,,,,,,,,,,,,,,,,,,,699.0525,699.0525,699.0551,699.767,1,0,right,0.184,,699.77,699.7719,,0,,699.7733,699.7747,,0,,1,699.7748,699.7748,699.7763,701.2664,0,21,21,21,1,0.8,0.2,0.8,0.2,1,0,,,,,,,,,,,,,,,,,,,,,,,,,,,,,,,,,,,,
,,6672d9dfb3878b6f6c5fa763,66fc9871dd51ea4de981dbf1,2024-10-02_02h51.11.589,mdp,2024.2.1,Win32,59.88023952,66fa4ebf79326e780c390304,,,,,,,,,,,,,,,,,,,,,701.2677,701.2677,701.2717,701.8171,1,1,right,0.0249,,701.8202,701.8222,,0,,701.8239,701.8253,,0,,0,701.8253,701.8254,701.8269,703.3168,0,22,22,22,1,0.8,0.2,0.8,0.2,1,0,,,,,,,,,,,,,,,,,,,,,,,,,,,,,,,,,,,,
,,6672d9dfb3878b6f6c5fa763,66fc9871dd51ea4de981dbf1,2024-10-02_02h51.11.589,mdp,2024.2.1,Win32,59.88023952,66fa4ebf79326e780c390304,,,,,,,,,,,,,,,,,,,,,703.3179,703.318,703.3209,704.0177,1,0,right,0.1679,,704.0206,704.0221,,0,,704.0237,704.0249,,0,,1,704.025,704.025,704.0264,705.5166,0,23,23,23,1,0.8,0.2,0.8,0.2,1,0,,,,,,,,,,,,,,,,,,,,,,,,,,,,,,,,,,,,
,,6672d9dfb3878b6f6c5fa763,66fc9871dd51ea4de981dbf1,2024-10-02_02h51.11.589,mdp,2024.2.1,Win32,59.88023952,66fa4ebf79326e780c390304,,,,,,,,,,,,,,,,,,,,,705.5178,705.5179,705.5206,706.1512,1,0,right,0.1082,,706.1543,706.1562,,1,,706.1577,706.159,,1,,1,706.1591,706.1591,706.1603,707.65,0,24,24,24,1,0.8,0.2,0.8,0.2,1,0,,,,,,,,,,,,,,,,,,,,,,,,,,,,,,,,,,,,
,,6672d9dfb3878b6f6c5fa763,66fc9871dd51ea4de981dbf1,2024-10-02_02h51.11.589,mdp,2024.2.1,Win32,59.88023952,66fa4ebf79326e780c390304,,,,,,,,,,,,,,,,,,,,,707.6512,707.6512,707.6541,708.384,1,0,right,0.2025,,708.3871,708.3888,,0,,708.3903,708.3917,,0,,1,708.3917,708.3918,708.3932,709.8835,0,25,25,25,1,0.8,0.2,0.8,0.2,1,0,,,,,,,,,,,,,,,,,,,,,,,,,,,,,,,,,,,,
,,6672d9dfb3878b6f6c5fa763,66fc9871dd51ea4de981dbf1,2024-10-02_02h51.11.589,mdp,2024.2.1,Win32,59.88023952,66fa4ebf79326e780c390304,,,,,,,,,,,,,,,,,,,,,709.8842,709.8842,709.8873,710.5339,1,0,right,0.1177,,710.537,710.5389,,0,,710.5405,710.5424,,0,,1,710.5424,710.5424,710.5437,712.034,0,26,26,26,1,0.8,0.2,0.8,0.2,1,0,,,,,,,,,,,,,,,,,,,,,,,,,,,,,,,,,,,,
,,6672d9dfb3878b6f6c5fa763,66fc9871dd51ea4de981dbf1,2024-10-02_02h51.11.589,mdp,2024.2.1,Win32,59.88023952,66fa4ebf79326e780c390304,,,,,,,,,,,,,,,,,,,,,712.0353,712.0353,712.038,712.8509,1,1,right,0.2894,,712.854,712.8556,,1,,712.8572,712.8584,,1,,0,712.8585,712.8585,712.8598,714.3507,0,27,27,27,1,0.8,0.2,0.8,0.2,1,0,,,,,,,,,,,,,,,,,,,,,,,,,,,,,,,,,,,,
,,6672d9dfb3878b6f6c5fa763,66fc9871dd51ea4de981dbf1,2024-10-02_02h51.11.589,mdp,2024.2.1,Win32,59.88023952,66fa4ebf79326e780c390304,,,,,,,,,,,,,,,,,,,,,714.3522,714.3523,714.3552,716.9177,1,0,right,2.0344,,716.9211,716.9228,,0,,716.9244,716.9257,,0,,1,716.9258,716.9258,716.9272,718.4176,0,28,28,28,1,0.8,0.2,0.8,0.2,1,0,,,,,,,,,,,,,,,,,,,,,,,,,,,,,,,,,,,,
,,6672d9dfb3878b6f6c5fa763,66fc9871dd51ea4de981dbf1,2024-10-02_02h51.11.589,mdp,2024.2.1,Win32,59.88023952,66fa4ebf79326e780c390304,,,,,,,,,,,,,,,,,,,,,718.4188,718.4189,718.4215,719.2512,1,0,right,0.3013,,719.2543,719.2559,,0,,719.2578,719.2594,,0,,1,719.2595,719.2595,719.2612,720.7509,0,29,29,29,1,0.8,0.2,0.8,0.2,1,0,,,,,,,,,,,,,,,,,,,,,,,,,,,,,,,,,,,,
,,6672d9dfb3878b6f6c5fa763,66fc9871dd51ea4de981dbf1,2024-10-02_02h51.11.589,mdp,2024.2.1,Win32,59.88023952,66fa4ebf79326e780c390304,,,,,,,,,,,,,,,,,,,,,720.7517,720.7517,720.7546,722.0183,1,0,right,0.7354,,722.0214,722.0231,,0,,722.0247,722.026,,0,,1,722.0261,722.0261,722.0274,723.5181,0,30,30,30,1,0.8,0.2,0.8,0.2,1,0,,,,,,,,,,,,,,,,,,,,,,,,,,,,,,,,,,,,
,,6672d9dfb3878b6f6c5fa763,66fc9871dd51ea4de981dbf1,2024-10-02_02h51.11.589,mdp,2024.2.1,Win32,59.88023952,66fa4ebf79326e780c390304,,,,,,,,,,,,,,,,,,,,,723.5198,723.5198,723.5222,724.2754,1,0,right,0.234,,724.2778,724.2791,,1,,724.2805,724.2819,,0,,1,724.2819,724.2819,724.2846,725.7913,0,31,31,31,1,0.6,0.4,0.6,0.4,1,0,,,,,,,,,,,,,,,,,,,,,,,,,,,,,,,,,,,,
,,6672d9dfb3878b6f6c5fa763,66fc9871dd51ea4de981dbf1,2024-10-02_02h51.11.589,mdp,2024.2.1,Win32,59.88023952,66fa4ebf79326e780c390304,,,,,,,,,,,,,,,,,,,,,725.793,725.7931,725.796,726.8185,1,0,right,0.495,,726.8219,726.8232,,1,,726.8249,726.8262,,1,,1,726.8263,726.8263,726.8277,728.319,0,32,32,32,1,0.6,0.4,0.6,0.4,1,0,,,,,,,,,,,,,,,,,,,,,,,,,,,,,,,,,,,,
,,6672d9dfb3878b6f6c5fa763,66fc9871dd51ea4de981dbf1,2024-10-02_02h51.11.589,mdp,2024.2.1,Win32,59.88023952,66fa4ebf79326e780c390304,,,,,,,,,,,,,,,,,,,,,728.3211,728.3211,728.3245,729.0762,1,0,right,0.2341,,729.0812,729.0844,,0,,729.0878,729.0906,,0,,1,729.0907,729.0907,729.093,730.584,0,33,33,33,1,0.6,0.4,0.6,0.4,1,0,,,,,,,,,,,,,,,,,,,,,,,,,,,,,,,,,,,,
,,6672d9dfb3878b6f6c5fa763,66fc9871dd51ea4de981dbf1,2024-10-02_02h51.11.589,mdp,2024.2.1,Win32,59.88023952,66fa4ebf79326e780c390304,,,,,,,,,,,,,,,,,,,,,730.5851,730.5851,730.5879,746.169,1,0,right,15.0524,,746.172,746.1737,,0,,746.1753,746.1765,,1,,1,746.1766,746.1767,746.178,747.668,0,34,34,34,1,0.6,0.4,0.6,0.4,1,0,,,,,,,,,,,,,,,,,,,,,,,,,,,,,,,,,,,,
,,6672d9dfb3878b6f6c5fa763,66fc9871dd51ea4de981dbf1,2024-10-02_02h51.11.589,mdp,2024.2.1,Win32,59.88023952,66fa4ebf79326e780c390304,,,,,,,,,,,,,,,,,,,,,747.6693,747.6694,747.6725,748.4016,1,0,right,0.2068,,748.4047,748.4064,,1,,748.4079,748.4092,,0,,1,748.4092,748.4092,748.4107,749.9016,0,35,35,35,1,0.6,0.4,0.6,0.4,1,0,,,,,,,,,,,,,,,,,,,,,,,,,,,,,,,,,,,,
,,6672d9dfb3878b6f6c5fa763,66fc9871dd51ea4de981dbf1,2024-10-02_02h51.11.589,mdp,2024.2.1,Win32,59.88023952,66fa4ebf79326e780c390304,,,,,,,,,,,,,,,,,,,,,749.9023,749.9023,749.9054,750.6196,1,0,right,0.1922,,750.6229,750.6244,,1,,750.6259,750.6272,,1,,1,750.6273,750.6273,750.6287,752.1179,0,36,36,36,1,0.6,0.4,0.6,0.4,1,0,,,,,,,,,,,,,,,,,,,,,,,,,,,,,,,,,,,,
,,6672d9dfb3878b6f6c5fa763,66fc9871dd51ea4de981dbf1,2024-10-02_02h51.11.589,mdp,2024.2.1,Win32,59.88023952,66fa4ebf79326e780c390304,,,,,,,,,,,,,,,,,,,,,752.119,752.1191,752.1229,755.1854,1,0,right,2.5351,,755.1884,755.1902,,0,,755.1917,755.1931,,1,,1,755.1931,755.1932,755.1945,756.6847,0,37,37,37,1,0.8,0.2,0.8,0.2,1,0,,,,,,,,,,,,,,,,,,,,,,,,,,,,,,,,,,,,
,,6672d9dfb3878b6f6c5fa763,66fc9871dd51ea4de981dbf1,2024-10-02_02h51.11.589,mdp,2024.2.1,Win32,59.88023952,66fa4ebf79326e780c390304,,,,,,,,,,,,,,,,,,,,,756.6859,756.6859,756.6887,757.3851,1,0,right,0.1672,,757.3887,757.3903,,0,,757.3919,757.3931,,0,,1,757.3932,757.3932,757.3945,758.8848,0,38,38,38,1,0.8,0.2,0.8,0.2,1,0,,,,,,,,,,,,,,,,,,,,,,,,,,,,,,,,,,,,
,,6672d9dfb3878b6f6c5fa763,66fc9871dd51ea4de981dbf1,2024-10-02_02h51.11.589,mdp,2024.2.1,Win32,59.88023952,66fa4ebf79326e780c390304,,,,,,,,,,,,,,,,,,,,,758.8859,758.8859,758.8888,759.5853,1,0,right,0.1682,,759.5886,759.5903,,0,,759.5921,759.5934,,0,,1,759.5935,759.5935,759.5948,761.0855,0,39,39,39,1,0.8,0.2,0.8,0.2,1,0,,,,,,,,,,,,,,,,,,,,,,,,,,,,,,,,,,,,
,,6672d9dfb3878b6f6c5fa763,66fc9871dd51ea4de981dbf1,2024-10-02_02h51.11.589,mdp,2024.2.1,Win32,59.88023952,66fa4ebf79326e780c390304,,,,,,,,,,,,,,,,,,,,,761.0879,761.088,761.0961,761.7024,1,0,right,0.0852,,761.7057,761.7074,,0,,761.709,761.7102,,0,,1,761.7103,761.7104,761.7117,763.2016,0,40,40,40,1,0.8,0.2,0.8,0.2,1,0,,,,,,,,,,,,,,,,,,,,,,,,,,,,,,,,,,,,
,,6672d9dfb3878b6f6c5fa763,66fc9871dd51ea4de981dbf1,2024-10-02_02h51.11.589,mdp,2024.2.1,Win32,59.88023952,66fa4ebf79326e780c390304,,,,,,,,,,,,,,,,,,,,,763.203,763.2031,763.2058,763.852,1,0,right,0.1221,,763.8553,763.8571,,0,,763.8585,763.8599,,0,,1,763.86,763.86,763.8613,765.3516,0,41,41,41,1,0.8,0.2,0.8,0.2,1,0,,,,,,,,,,,,,,,,,,,,,,,,,,,,,,,,,,,,
,,6672d9dfb3878b6f6c5fa763,66fc9871dd51ea4de981dbf1,2024-10-02_02h51.11.589,mdp,2024.2.1,Win32,59.88023952,66fa4ebf79326e780c390304,,,,,,,,,,,,,,,,,,,,,765.3528,765.3528,765.3555,765.9021,1,0,right,0.0159,,765.9053,765.907,,0,,765.9085,765.9098,,0,,1,765.9099,765.9099,765.9112,767.4016,0,42,42,42,1,0.8,0.2,0.8,0.2,1,0,,,,,,,,,,,,,,,,,,,,,,,,,,,,,,,,,,,,
,,6672d9dfb3878b6f6c5fa763,66fc9871dd51ea4de981dbf1,2024-10-02_02h51.11.589,mdp,2024.2.1,Win32,59.88023952,66fa4ebf79326e780c390304,,,,,,,,,,,,,,,,,,,,,767.4031,767.4031,767.4059,768.0356,1,1,right,0.1007,,768.0388,768.0405,,1,,768.042,768.0433,,1,,0,768.0433,768.0433,768.0447,769.5351,0,43,43,43,1,0.8,0.2,0.8,0.2,1,0,,,,,,,,,,,,,,,,,,,,,,,,,,,,,,,,,,,,
,,6672d9dfb3878b6f6c5fa763,66fc9871dd51ea4de981dbf1,2024-10-02_02h51.11.589,mdp,2024.2.1,Win32,59.88023952,66fa4ebf79326e780c390304,,,,,,,,,,,,,,,,,,,,,769.5362,769.5362,769.539,770.153,1,1,right,0.0848,,770.1559,770.1574,,1,,770.1589,770.1603,,1,,0,770.1605,770.1605,770.1625,771.6518,0,44,44,44,1,0.6,0.4,0.2,0.8,1,0,,,,,,,,,,,,,,,,,,,,,,,,,,,,,,,,,,,,
,,6672d9dfb3878b6f6c5fa763,66fc9871dd51ea4de981dbf1,2024-10-02_02h51.11.589,mdp,2024.2.1,Win32,59.88023952,66fa4ebf79326e780c390304,,,,,,,,,,,,,,,,,,,,,771.6531,771.6531,771.6558,772.3522,1,1,right,0.167,,772.3553,772.3571,,1,,772.3586,772.3602,,1,,0,772.3602,772.3602,772.3615,773.8519,0,45,45,45,1,0.6,0.4,0.2,0.8,1,0,,,,,,,,,,,,,,,,,,,,,,,,,,,,,,,,,,,,
,,6672d9dfb3878b6f6c5fa763,66fc9871dd51ea4de981dbf1,2024-10-02_02h51.11.589,mdp,2024.2.1,Win32,59.88023952,66fa4ebf79326e780c390304,,,,,,,,,,,,,,,,,,,,,773.8533,773.8533,773.8561,774.5358,1,1,right,0.151,,774.5391,774.5408,,1,,774.5423,774.5435,,1,,0,774.5436,774.5436,774.5449,776.0363,0,46,46,46,1,0.6,0.4,0.2,0.8,1,0,,,,,,,,,,,,,,,,,,,,,,,,,,,,,,,,,,,,
,,6672d9dfb3878b6f6c5fa763,66fc9871dd51ea4de981dbf1,2024-10-02_02h51.11.589,mdp,2024.2.1,Win32,59.88023952,66fa4ebf79326e780c390304,,,,,,,,,,,,,,,,,,,,,776.0375,776.0375,776.0403,776.7528,1,1,right,0.189,,776.7558,776.7575,,1,,776.7591,776.7605,,1,,0,776.7606,776.7606,776.7625,778.2524,0,47,47,47,1,0.6,0.4,0.2,0.8,1,0,,,,,,,,,,,,,,,,,,,,,,,,,,,,,,,,,,,,
,,6672d9dfb3878b6f6c5fa763,66fc9871dd51ea4de981dbf1,2024-10-02_02h51.11.589,mdp,2024.2.1,Win32,59.88023952,66fa4ebf79326e780c390304,,,,,,,,,,,,,,,,,,,,,778.2536,778.2537,778.2564,778.8528,1,1,right,0.0675,,778.8558,778.8575,,1,,778.8595,778.8608,,1,,0,778.8609,778.8609,778.8624,780.3527,0,48,48,48,1,0.6,0.4,0.2,0.8,1,0,,,,,,,,,,,,,,,,,,,,,,,,,,,,,,,,,,,,
,,6672d9dfb3878b6f6c5fa763,66fc9871dd51ea4de981dbf1,2024-10-02_02h51.11.589,mdp,2024.2.1,Win32,59.88023952,66fa4ebf79326e780c390304,,,,,,,,,,,,,,,,,,,,,780.3541,780.3541,780.3568,781.2029,1,1,right,0.3225,,781.2061,781.2078,,1,,781.2094,781.2107,,0,,0,781.2108,781.2108,781.212,782.7026,0,49,49,49,1,0.6,0.4,0.2,0.8,1,0,,,,,,,,,,,,,,,,,,,,,,,,,,,,,,,,,,,,
,,6672d9dfb3878b6f6c5fa763,66fc9871dd51ea4de981dbf1,2024-10-02_02h51.11.589,mdp,2024.2.1,Win32,59.88023952,66fa4ebf79326e780c390304,,,,,,,,,,,,,,,,,,,,,,,,,,,,,,,,,,,,,,,,,,,,,,,,,,,,,,,,782.754,841.215,0,0,0,4,1,imgs/cat.png,imgs/bear.png,imgs/elephant.png,imgs/kangaroo.png,imgs/squirrel.png,,,,,,,,,,,,,,,,,,,,,,,,
,,6672d9dfb3878b6f6c5fa763,66fc9871dd51ea4de981dbf1,2024-10-02_02h51.11.589,mdp,2024.2.1,Win32,59.88023952,66fa4ebf79326e780c390304,,,,,,,,,,,,,,2,seqs/st2seq23.csv,841.2183,848.23,space,6.485,,848.2572,848.2572,848.2593,855.8716,1,1,right,7.0405,,855.8748,856.4552,1,0,right,856.4583,856.46,,0,,1,856.46,856.46,856.4618,857.9541,0,0,0,0,1,0.6,0.4,0.4,0.6,,,,,,,,,,,,,,,0.036,,0.2,0.8,0.6,0.4,0.6,0.4,0.8,0.2,1,0,,,,,,,,,,,,
,,6672d9dfb3878b6f6c5fa763,66fc9871dd51ea4de981dbf1,2024-10-02_02h51.11.589,mdp,2024.2.1,Win32,59.88023952,66fa4ebf79326e780c390304,,,,,,,,,,,,,,,,,,,,,857.9556,857.9556,857.9584,858.5047,1,1,right,0.0173,,858.5082,859.1715,1,1,right,859.1748,859.1765,,1,,0,859.1766,859.1766,859.1781,860.6712,0,1,1,1,1,0.6,0.4,0.4,0.6,,,,,,,,,,,,,,,0.1375,,0.2,0.8,0.6,0.4,0.4,0.6,0.2,0.8,1,0,,,,,,,,,,,,
,,6672d9dfb3878b6f6c5fa763,66fc9871dd51ea4de981dbf1,2024-10-02_02h51.11.589,mdp,2024.2.1,Win32,59.88023952,66fa4ebf79326e780c390304,,,,,,,,,,,,,,,,,,,,,860.6726,860.6726,860.6755,861.3879,1,1,right,0.1853,,861.3911,862.0382,1,1,right,862.0414,862.0432,,1,,0,862.0433,862.0433,862.0448,863.5376,0,2,2,2,1,0.6,0.4,0.4,0.6,,,,,,,,,,,,,,,0.1214,,0.2,0.8,0.6,0.4,0.4,0.6,0.2,0.8,1,0,,,,,,,,,,,,
,,6672d9dfb3878b6f6c5fa763,66fc9871dd51ea4de981dbf1,2024-10-02_02h51.11.589,mdp,2024.2.1,Win32,59.88023952,66fa4ebf79326e780c390304,,,,,,,,,,,,,,,,,,,,,863.539,863.539,863.5417,864.3223,1,1,right,0.2525,,864.3254,864.9055,1,0,right,864.9086,864.9103,,1,,1,864.9104,864.9105,864.912,866.4046,0,3,3,3,1,0.6,0.4,0.4,0.6,,,,,,,,,,,,,,,0.0551,,0.2,0.8,0.6,0.4,0.2,0.8,0.6,0.4,1,0,,,,,,,,,,,,
,,6672d9dfb3878b6f6c5fa763,66fc9871dd51ea4de981dbf1,2024-10-02_02h51.11.589,mdp,2024.2.1,Win32,59.88023952,66fa4ebf79326e780c390304,,,,,,,,,,,,,,,,,,,,,866.4059,866.406,866.4086,867.0049,1,0,right,0.0676,,867.0081,867.7052,1,1,right,867.7086,867.7105,,0,,0,867.7106,867.7107,867.7124,869.2045,0,4,4,4,1,0.6,0.4,0.4,0.6,,,,,,,,,,,,,,,0.0973,,0.2,0.8,0.6,0.4,0.2,0.8,0.6,0.4,1,0,,,,,,,,,,,,
,,6672d9dfb3878b6f6c5fa763,66fc9871dd51ea4de981dbf1,2024-10-02_02h51.11.589,mdp,2024.2.1,Win32,59.88023952,66fa4ebf79326e780c390304,,,,,,,,,,,,,,,,,,,,,869.2057,869.2057,869.2085,869.7715,1,1,right,0.0344,,869.7747,870.3894,1,0,right,870.3925,870.394,,0,,1,870.3941,870.3941,870.3956,871.8878,0,5,5,5,1,0.6,0.4,0.4,0.6,,,,,,,,,,,,,,,0.0829,,0.2,0.8,0.6,0.4,0.2,0.8,0.6,0.4,1,0,,,,,,,,,,,,
,,6672d9dfb3878b6f6c5fa763,66fc9871dd51ea4de981dbf1,2024-10-02_02h51.11.589,mdp,2024.2.1,Win32,59.88023952,66fa4ebf79326e780c390304,,,,,,,,,,,,,,,,,,,,,871.8891,871.8891,871.8918,872.7887,1,1,right,0.3707,,872.7917,873.405,1,0,right,873.4079,873.4102,,0,,1,873.4103,873.4104,873.412,874.9047,0,6,6,6,1,0.6,0.4,0.4,0.6,,,,,,,,,,,,,,,0.0838,,0.2,0.8,0.6,0.4,0.2,0.8,0.6,0.4,1,0,,,,,,,,,,,,
,,6672d9dfb3878b6f6c5fa763,66fc9871dd51ea4de981dbf1,2024-10-02_02h51.11.589,mdp,2024.2.1,Win32,59.88023952,66fa4ebf79326e780c390304,,,,,,,,,,,,,,,,,,,,,874.906,874.906,874.9094,875.6552,1,1,right,0.22,,875.6583,876.3886,1,1,right,876.3919,876.3935,,0,,0,876.3936,876.3936,876.3951,877.8881,0,7,7,7,1,0.6,0.4,0.4,0.6,,,,,,,,,,,,,,,0.201,,0.2,0.8,0.6,0.4,0.2,0.8,0.6,0.4,1,0,,,,,,,,,,,,
,,6672d9dfb3878b6f6c5fa763,66fc9871dd51ea4de981dbf1,2024-10-02_02h51.11.589,mdp,2024.2.1,Win32,59.88023952,66fa4ebf79326e780c390304,,,,,,,,,,,,,,,,,,,,,877.8892,877.8892,877.8919,878.6221,1,1,right,0.2071,,878.6254,879.1553,1,1,right,879.1586,879.1604,,0,,0,879.1604,879.1605,879.162,880.6548,0,8,8,8,1,0.6,0.4,0.4,0.6,,,,,,,,,,,,,,,0.0008,,0.2,0.8,0.6,0.4,0.2,0.8,0.6,0.4,1,0,,,,,,,,,,,,
,,6672d9dfb3878b6f6c5fa763,66fc9871dd51ea4de981dbf1,2024-10-02_02h51.11.589,mdp,2024.2.1,Win32,59.88023952,66fa4ebf79326e780c390304,,,,,,,,,,,,,,,,,,,,,880.6559,880.656,880.6587,881.2221,1,0,right,0.0344,,881.2253,881.7579,1,1,right,881.7611,881.7629,,1,,0,881.7629,881.7629,881.7645,883.2549,0,9,9,9,1,0.6,0.4,0.4,0.6,,,,,,,,,,,,,,,0.0007,,0.2,0.8,0.6,0.4,0.2,0.8,0.6,0.4,1,0,,,,,,,,,,,,
,,6672d9dfb3878b6f6c5fa763,66fc9871dd51ea4de981dbf1,2024-10-02_02h51.11.589,mdp,2024.2.1,Win32,59.88023952,66fa4ebf79326e780c390304,,,,,,,,,,,,,,,,,,,,,883.2563,883.2563,883.2589,883.8297,1,1,right,0.0363,,883.8385,884.5464,1,0,right,884.5503,884.5517,,0,,1,884.5518,884.5518,884.5532,886.0462,0,10,10,10,1,0.6,0.4,0.4,0.6,,,,,,,,,,,,,,,0.1829,,0.2,0.8,0.6,0.4,0.2,0.8,0.6,0.4,1,0,,,,,,,,,,,,
,,6672d9dfb3878b6f6c5fa763,66fc9871dd51ea4de981dbf1,2024-10-02_02h51.11.589,mdp,2024.2.1,Win32,59.88023952,66fa4ebf79326e780c390304,,,,,,,,,,,,,,,,,,,,,886.0477,886.0477,886.0499,886.7804,1,0,right,0.2014,,886.7828,887.4632,1,0,right,887.4663,887.4679,,0,,1,887.468,887.468,887.4697,888.9625,0,11,11,11,1,0.6,0.4,0.4,0.6,,,,,,,,,,,,,,,0.1489,,0.2,0.8,0.6,0.4,0.2,0.8,0.6,0.4,1,0,,,,,,,,,,,,
,,6672d9dfb3878b6f6c5fa763,66fc9871dd51ea4de981dbf1,2024-10-02_02h51.11.589,mdp,2024.2.1,Win32,59.88023952,66fa4ebf79326e780c390304,,,,,,,,,,,,,,,,,,,,,888.9639,888.9639,888.9657,889.6831,1,0,right,0.1872,,889.6866,890.4305,1,0,right,890.4338,890.4358,,0,,1,890.4359,890.4359,890.4387,891.9289,0,12,12,12,1,0.6,0.4,0.4,0.6,,,,,,,,,,,,,,,0.2163,,0.2,0.8,0.6,0.4,0.2,0.8,0.6,0.4,1,0,,,,,,,,,,,,
,,6672d9dfb3878b6f6c5fa763,66fc9871dd51ea4de981dbf1,2024-10-02_02h51.11.589,mdp,2024.2.1,Win32,59.88023952,66fa4ebf79326e780c390304,,,,,,,,,,,,,,,,,,,,,891.9304,891.9304,891.9327,892.6774,1,1,right,0.2133,,892.6809,893.206,1,1,right,893.209,893.2106,,0,,0,893.2107,893.2107,893.2125,894.7059,0,13,13,13,1,0.6,0.4,0.4,0.6,,,,,,,,,,,,,,,0.001,,0.2,0.8,0.6,0.4,0.2,0.8,0.6,0.4,1,0,,,,,,,,,,,,
,,6672d9dfb3878b6f6c5fa763,66fc9871dd51ea4de981dbf1,2024-10-02_02h51.11.589,mdp,2024.2.1,Win32,59.88023952,66fa4ebf79326e780c390304,,,,,,,,,,,,,,,,,,,,,894.7073,894.7073,894.71,895.4055,1,0,right,0.166,,895.4086,895.9557,1,0,right,895.9592,895.9608,,0,,1,895.9609,895.961,895.9624,897.4554,0,14,14,14,1,0.6,0.4,0.4,0.6,,,,,,,,,,,,,,,0.0109,,0.2,0.8,0.6,0.4,0.2,0.8,0.6,0.4,1,0,,,,,,,,,,,,
,,6672d9dfb3878b6f6c5fa763,66fc9871dd51ea4de981dbf1,2024-10-02_02h51.11.589,mdp,2024.2.1,Win32,59.88023952,66fa4ebf79326e780c390304,,,,,,,,,,,,,,,,,,,,,897.4567,897.4567,897.4593,898.3559,1,1,right,0.3665,,898.3591,898.9898,1,1,right,898.9927,898.9942,,0,,0,898.9942,898.9943,898.9958,900.4889,0,15,15,15,1,0.6,0.4,0.4,0.6,,,,,,,,,,,,,,,0.0931,,0.2,0.8,0.6,0.4,0.2,0.8,0.6,0.4,1,0,,,,,,,,,,,,
,,6672d9dfb3878b6f6c5fa763,66fc9871dd51ea4de981dbf1,2024-10-02_02h51.11.589,mdp,2024.2.1,Win32,59.88023952,66fa4ebf79326e780c390304,,,,,,,,,,,,,,,,,,,,,900.4905,900.4906,900.4933,901.1391,1,1,right,0.1199,,901.1421,901.8057,1,1,right,901.8088,901.8105,,0,,0,901.8106,901.8106,901.8121,903.3059,0,16,16,16,1,0.6,0.4,0.4,0.6,,,,,,,,,,,,,,,0.1325,,0.2,0.8,0.6,0.4,0.2,0.8,0.6,0.4,1,0,,,,,,,,,,,,
,,6672d9dfb3878b6f6c5fa763,66fc9871dd51ea4de981dbf1,2024-10-02_02h51.11.589,mdp,2024.2.1,Win32,59.88023952,66fa4ebf79326e780c390304,,,,,,,,,,,,,,,,,,,,,903.3077,903.3077,903.3105,904.0229,1,1,right,0.1911,,904.0264,904.8058,1,0,right,904.8091,904.8107,,0,,1,904.8108,904.8108,904.8124,906.3058,0,17,17,17,1,0.6,0.4,0.4,0.6,,,,,,,,,,,,,,,0.2535,,0.2,0.8,0.6,0.4,0.2,0.8,0.6,0.4,1,0,,,,,,,,,,,,
,,6672d9dfb3878b6f6c5fa763,66fc9871dd51ea4de981dbf1,2024-10-02_02h51.11.589,mdp,2024.2.1,Win32,59.88023952,66fa4ebf79326e780c390304,,,,,,,,,,,,,,,,,,,,,906.3071,906.3072,906.3098,906.973,1,1,right,0.1346,,906.9763,907.7729,1,1,right,907.776,907.7778,,1,,0,907.7778,907.7779,907.7794,909.2726,0,18,18,18,1,0.6,0.4,0.4,0.6,,,,,,,,,,,,,,,0.2678,,0.2,0.8,0.6,0.4,0.2,0.8,0.6,0.4,1,0,,,,,,,,,,,,
,,6672d9dfb3878b6f6c5fa763,66fc9871dd51ea4de981dbf1,2024-10-02_02h51.11.589,mdp,2024.2.1,Win32,59.88023952,66fa4ebf79326e780c390304,,,,,,,,,,,,,,,,,,,,,909.274,909.2741,909.2768,910.1064,1,1,right,0.3005,,910.1098,910.6397,1,1,right,910.6427,910.6444,,1,,0,910.6445,910.6445,910.6459,912.1396,0,19,19,19,1,0.6,0.4,0.4,0.6,,,,,,,,,,,,,,,0.0021,,0.2,0.8,0.6,0.4,0.2,0.8,0.6,0.4,1,0,,,,,,,,,,,,
,,6672d9dfb3878b6f6c5fa763,66fc9871dd51ea4de981dbf1,2024-10-02_02h51.11.589,mdp,2024.2.1,Win32,59.88023952,66fa4ebf79326e780c390304,,,,,,,,,,,,,,,,,,,,,912.1409,912.141,912.1435,912.7397,1,1,right,0.0674,,912.7428,913.2899,1,0,right,913.2929,913.2945,,0,,1,913.2946,913.2946,913.296,914.7896,0,20,20,20,1,0.6,0.4,0.4,0.6,,,,,,,,,,,,,,,0.0222,,0.2,0.8,0.6,0.4,0.4,0.6,0.8,0.2,1,0,,,,,,,,,,,,
,,6672d9dfb3878b6f6c5fa763,66fc9871dd51ea4de981dbf1,2024-10-02_02h51.11.589,mdp,2024.2.1,Win32,59.88023952,66fa4ebf79326e780c390304,,,,,,,,,,,,,,,,,,,,,914.791,914.791,914.7936,915.4898,1,1,right,0.1707,,915.4929,916.1897,1,0,right,916.193,916.1946,,0,,1,916.1947,916.1947,916.1962,917.6901,0,21,21,21,1,0.6,0.4,0.4,0.6,,,,,,,,,,,,,,,0.1694,,0.2,0.8,0.6,0.4,0.4,0.6,0.8,0.2,1,0,,,,,,,,,,,,
,,6672d9dfb3878b6f6c5fa763,66fc9871dd51ea4de981dbf1,2024-10-02_02h51.11.589,mdp,2024.2.1,Win32,59.88023952,66fa4ebf79326e780c390304,,,,,,,,,,,,,,,,,,,,,917.6915,917.6915,917.6944,918.3566,1,1,right,0.1379,,918.3596,919.0399,1,0,right,919.0434,919.0449,,0,,1,919.045,919.0451,919.0464,920.5398,0,22,22,22,1,0.6,0.4,0.4,0.6,,,,,,,,,,,,,,,0.1509,,0.2,0.8,0.6,0.4,0.4,0.6,0.8,0.2,1,0,,,,,,,,,,,,
,,6672d9dfb3878b6f6c5fa763,66fc9871dd51ea4de981dbf1,2024-10-02_02h51.11.589,mdp,2024.2.1,Win32,59.88023952,66fa4ebf79326e780c390304,,,,,,,,,,,,,,,,,,,,,920.5411,920.5413,920.545,921.2733,1,1,right,0.2043,,921.2764,922.1899,1,0,right,922.1931,922.195,,0,,1,922.195,922.195,922.1966,923.6893,0,23,23,23,1,0.6,0.4,0.4,0.6,,,,,,,,,,,,,,,0.3892,,0.2,0.8,0.6,0.4,0.4,0.6,0.8,0.2,1,0,,,,,,,,,,,,
,,6672d9dfb3878b6f6c5fa763,66fc9871dd51ea4de981dbf1,2024-10-02_02h51.11.589,mdp,2024.2.1,Win32,59.88023952,66fa4ebf79326e780c390304,,,,,,,,,,,,,,,,,,,,,923.6909,923.6909,923.6937,924.323,1,1,right,0.0998,,924.3261,924.94,1,0,right,924.9432,924.9448,,0,,1,924.945,924.945,924.9464,926.4396,0,24,24,24,1,0.6,0.4,0.4,0.6,,,,,,,,,,,,,,,0.0848,,0.2,0.8,0.6,0.4,0.4,0.6,0.8,0.2,1,0,,,,,,,,,,,,
,,6672d9dfb3878b6f6c5fa763,66fc9871dd51ea4de981dbf1,2024-10-02_02h51.11.589,mdp,2024.2.1,Win32,59.88023952,66fa4ebf79326e780c390304,,,,,,,,,,,,,,,,,,,,,926.441,926.441,926.4436,927.0065,1,0,right,0.0334,,927.0099,927.6066,1,1,right,927.6099,927.6117,,0,,0,927.6118,927.6119,927.6133,929.1061,0,25,25,25,1,0.6,0.4,0.4,0.6,,,,,,,,,,,,,,,0.0585,,0.2,0.8,0.6,0.4,0.4,0.6,0.8,0.2,1,0,,,,,,,,,,,,
,,6672d9dfb3878b6f6c5fa763,66fc9871dd51ea4de981dbf1,2024-10-02_02h51.11.589,mdp,2024.2.1,Win32,59.88023952,66fa4ebf79326e780c390304,,,,,,,,,,,,,,,,,,,,,929.1075,929.1075,929.1114,929.6732,1,0,right,0.0324,,929.6763,930.4734,1,0,right,930.4766,930.4784,,0,,1,930.4785,930.4785,930.4799,931.9729,0,26,26,26,1,0.6,0.4,0.4,0.6,,,,,,,,,,,,,,,0.2683,,0.2,0.8,0.6,0.4,0.4,0.6,0.8,0.2,1,0,,,,,,,,,,,,
,,6672d9dfb3878b6f6c5fa763,66fc9871dd51ea4de981dbf1,2024-10-02_02h51.11.589,mdp,2024.2.1,Win32,59.88023952,66fa4ebf79326e780c390304,,,,,,,,,,,,,,,,,,,,,931.9741,931.9741,931.9767,932.608,1,1,right,0.109,,932.6116,933.3735,1,1,right,933.3769,933.3785,,0,,0,933.3785,933.3786,933.38,934.873,0,27,27,27,1,0.6,0.4,0.4,0.6,,,,,,,,,,,,,,,0.2247,,0.2,0.8,0.6,0.4,0.4,0.6,0.8,0.2,1,0,,,,,,,,,,,,
,,6672d9dfb3878b6f6c5fa763,66fc9871dd51ea4de981dbf1,2024-10-02_02h51.11.589,mdp,2024.2.1,Win32,59.88023952,66fa4ebf79326e780c390304,,,,,,,,,,,,,,,,,,,,,934.8742,934.8742,934.877,935.4406,1,1,right,0.0354,,935.4437,936.2069,1,0,right,936.2104,936.2122,,1,,1,936.2123,936.2123,936.2138,937.7066,0,28,28,28,1,0.6,0.4,0.4,0.6,,,,,,,,,,,,,,,0.2369,,0.2,0.8,0.6,0.4,0.4,0.6,0.8,0.2,1,0,,,,,,,,,,,,
,,6672d9dfb3878b6f6c5fa763,66fc9871dd51ea4de981dbf1,2024-10-02_02h51.11.589,mdp,2024.2.1,Win32,59.88023952,66fa4ebf79326e780c390304,,,,,,,,,,,,,,,,,,,,,937.7078,937.7079,937.7107,938.2402,1,0,right,0.0008,,938.2435,938.99,1,0,right,938.9941,938.9955,,0,,1,938.9955,938.9956,938.9969,940.4898,0,29,29,29,1,0.6,0.4,0.4,0.6,,,,,,,,,,,,,,,0.2066,,0.2,0.8,0.6,0.4,0.4,0.6,0.8,0.2,1,0,,,,,,,,,,,,
,,6672d9dfb3878b6f6c5fa763,66fc9871dd51ea4de981dbf1,2024-10-02_02h51.11.589,mdp,2024.2.1,Win32,59.88023952,66fa4ebf79326e780c390304,,,,,,,,,,,,,,,,,,,,,940.4911,940.4911,940.4939,941.1568,1,0,right,0.1326,,941.1603,942.4239,1,1,right,942.4272,942.4287,,0,,0,942.4289,942.4289,942.4305,943.9234,0,30,30,30,1,0.6,0.4,0.4,0.6,,,,,,,,,,,,,,,0.7348,,0.2,0.8,0.6,0.4,0.4,0.6,0.8,0.2,1,0,,,,,,,,,,,,
,,6672d9dfb3878b6f6c5fa763,66fc9871dd51ea4de981dbf1,2024-10-02_02h51.11.589,mdp,2024.2.1,Win32,59.88023952,66fa4ebf79326e780c390304,,,,,,,,,,,,,,,,,,,,,943.9251,943.9251,943.9277,944.574,1,1,right,0.118,,944.6192,945.3571,1,0,right,945.3602,945.3619,,1,,1,945.3621,945.3621,945.3635,946.8566,0,31,31,31,1,0.6,0.4,0.4,0.6,,,,,,,,,,,,,,,0.2565,,0.2,0.8,0.6,0.4,0.4,0.6,0.8,0.2,1,0,,,,,,,,,,,,
,,6672d9dfb3878b6f6c5fa763,66fc9871dd51ea4de981dbf1,2024-10-02_02h51.11.589,mdp,2024.2.1,Win32,59.88023952,66fa4ebf79326e780c390304,,,,,,,,,,,,,,,,,,,,,946.8581,946.8581,946.8609,947.7082,1,1,right,0.3255,,947.7112,948.5072,1,0,right,948.5102,948.5119,,1,,1,948.512,948.512,948.5134,950.0068,0,32,32,32,1,0.6,0.4,0.4,0.6,,,,,,,,,,,,,,,0.2707,,0.2,0.8,0.6,0.4,0.2,0.8,0.6,0.4,1,0,,,,,,,,,,,,
,,6672d9dfb3878b6f6c5fa763,66fc9871dd51ea4de981dbf1,2024-10-02_02h51.11.589,mdp,2024.2.1,Win32,59.88023952,66fa4ebf79326e780c390304,,,,,,,,,,,,,,,,,,,,,950.008,950.008,950.0107,950.6404,1,1,right,0.0994,,950.644,951.374,1,0,right,951.3772,951.379,,1,,1,951.379,951.379,951.3805,952.8735,0,33,33,33,1,0.4,0.6,0.6,0.4,,,,,,,,,,,,,,,0.2021,,0.2,0.8,0.6,0.4,0.2,0.8,0.6,0.4,1,0,,,,,,,,,,,,
,,6672d9dfb3878b6f6c5fa763,66fc9871dd51ea4de981dbf1,2024-10-02_02h51.11.589,mdp,2024.2.1,Win32,59.88023952,66fa4ebf79326e780c390304,,,,,,,,,,,,,,,,,,,,,952.8747,952.8748,952.8773,953.5578,1,1,right,0.1579,,953.5611,954.2905,1,0,right,954.2941,954.2957,,0,,1,954.2958,954.2958,954.2973,955.7907,0,34,34,34,1,0.6,0.4,0.4,0.6,,,,,,,,,,,,,,,0.1992,,0.2,0.8,0.6,0.4,0.2,0.8,0.6,0.4,1,0,,,,,,,,,,,,
,,6672d9dfb3878b6f6c5fa763,66fc9871dd51ea4de981dbf1,2024-10-02_02h51.11.589,mdp,2024.2.1,Win32,59.88023952,66fa4ebf79326e780c390304,,,,,,,,,,,,,,,,,,,,,955.7928,955.7928,955.7955,956.7406,1,1,right,0.42,,956.744,957.4575,1,0,right,957.4608,957.4627,,0,,1,957.4628,957.4628,957.4644,958.957,0,35,35,35,1,0.6,0.4,0.4,0.6,,,,,,,,,,,,,,,0.1845,,0.2,0.8,0.6,0.4,0.2,0.8,0.6,0.4,1,0,,,,,,,,,,,,
,,6672d9dfb3878b6f6c5fa763,66fc9871dd51ea4de981dbf1,2024-10-02_02h51.11.589,mdp,2024.2.1,Win32,59.88023952,66fa4ebf79326e780c390304,,,,,,,,,,,,,,,,,,,,,958.9582,958.9582,958.9609,959.5076,1,1,right,0.0228,,959.5108,960.274,1,0,right,960.2771,960.2787,,0,,1,960.2788,960.2788,960.2803,961.774,0,36,36,36,1,0.6,0.4,0.4,0.6,,,,,,,,,,,,,,,0.2325,,0.2,0.8,0.6,0.4,0.2,0.8,0.6,0.4,1,0,,,,,,,,,,,,
,,6672d9dfb3878b6f6c5fa763,66fc9871dd51ea4de981dbf1,2024-10-02_02h51.11.589,mdp,2024.2.1,Win32,59.88023952,66fa4ebf79326e780c390304,,,,,,,,,,,,,,,,,,,,,961.7755,961.7757,961.7785,962.3911,1,1,right,0.0923,,962.3944,963.6912,1,1,right,963.6947,963.6962,,0,,0,963.6963,963.6963,963.6979,965.1905,0,37,37,37,1,0.6,0.4,0.4,0.6,,,,,,,,,,,,,,,0.7676,,0.2,0.8,0.6,0.4,0.2,0.8,0.6,0.4,1,0,,,,,,,,,,,,
,,6672d9dfb3878b6f6c5fa763,66fc9871dd51ea4de981dbf1,2024-10-02_02h51.11.589,mdp,2024.2.1,Win32,59.88023952,66fa4ebf79326e780c390304,,,,,,,,,,,,,,,,,,,,,965.1918,965.1918,965.1947,965.9409,1,1,right,0.2217,,965.9437,966.6747,1,0,right,966.6779,966.6795,,0,,1,966.6796,966.6796,966.681,968.1738,0,38,38,38,1,0.6,0.4,0.4,0.6,,,,,,,,,,,,,,,0.2011,,0.2,0.8,0.6,0.4,0.2,0.8,0.6,0.4,1,0,,,,,,,,,,,,
,,6672d9dfb3878b6f6c5fa763,66fc9871dd51ea4de981dbf1,2024-10-02_02h51.11.589,mdp,2024.2.1,Win32,59.88023952,66fa4ebf79326e780c390304,,,,,,,,,,,,,,,,,,,,,968.1751,968.1752,968.1779,968.741,1,0,right,0.0346,,968.7446,969.5411,1,0,right,969.5444,969.546,,1,,1,969.546,969.546,969.5475,971.0414,0,39,39,39,1,0.6,0.4,0.4,0.6,,,,,,,,,,,,,,,0.258,,0.2,0.8,0.6,0.4,0.2,0.8,0.6,0.4,1,0,,,,,,,,,,,,
,,6672d9dfb3878b6f6c5fa763,66fc9871dd51ea4de981dbf1,2024-10-02_02h51.11.589,mdp,2024.2.1,Win32,59.88023952,66fa4ebf79326e780c390304,,,,,,,,,,,,,,,,,,,,,971.0428,971.0428,971.0457,971.6411,1,1,right,0.0661,,971.6444,972.1772,1,0,right,972.1801,972.1819,,1,,1,972.182,972.182,972.1834,973.6745,0,40,40,40,1,0.6,0.4,0.4,0.6,,,,,,,,,,,,,,,0.0013,,0.2,0.8,0.6,0.4,0.2,0.8,0.6,0.4,1,0,,,,,,,,,,,,
,,6672d9dfb3878b6f6c5fa763,66fc9871dd51ea4de981dbf1,2024-10-02_02h51.11.589,mdp,2024.2.1,Win32,59.88023952,66fa4ebf79326e780c390304,,,,,,,,,,,,,,,,,,,,,973.6759,973.6759,973.6786,974.3746,1,1,right,0.1715,,974.3776,975.0748,1,0,right,975.0785,975.0798,,1,,1,975.08,975.08,975.0814,976.5746,0,41,41,41,1,0.6,0.4,0.4,0.6,,,,,,,,,,,,,,,0.1681,,0.2,0.8,0.6,0.4,0.2,0.8,0.6,0.4,1,0,,,,,,,,,,,,
,,6672d9dfb3878b6f6c5fa763,66fc9871dd51ea4de981dbf1,2024-10-02_02h51.11.589,mdp,2024.2.1,Win32,59.88023952,66fa4ebf79326e780c390304,,,,,,,,,,,,,,,,,,,,,976.5762,976.5763,976.5799,977.1915,1,1,right,0.0896,,977.1948,977.9249,1,1,right,977.9279,977.9296,,0,,0,977.9297,977.9297,977.9311,979.4247,0,42,42,42,1,0.6,0.4,0.4,0.6,,,,,,,,,,,,,,,0.2048,,0.2,0.8,0.6,0.4,0.2,0.8,0.6,0.4,1,0,,,,,,,,,,,,
,,6672d9dfb3878b6f6c5fa763,66fc9871dd51ea4de981dbf1,2024-10-02_02h51.11.589,mdp,2024.2.1,Win32,59.88023952,66fa4ebf79326e780c390304,,,,,,,,,,,,,,,,,,,,,979.426,979.426,979.4287,980.1087,1,1,right,0.1531,,980.1125,980.875,1,0,right,980.8783,980.88,,1,,1,980.8801,980.8801,980.8816,982.3753,0,43,43,43,1,0.6,0.4,0.4,0.6,,,,,,,,,,,,,,,0.2364,,0.2,0.8,0.6,0.4,0.2,0.8,0.6,0.4,1,0,,,,,,,,,,,,
,,6672d9dfb3878b6f6c5fa763,66fc9871dd51ea4de981dbf1,2024-10-02_02h51.11.589,mdp,2024.2.1,Win32,59.88023952,66fa4ebf79326e780c390304,,,,,,,,,,,,,,,,,,,,,982.3767,982.3768,982.3797,982.9751,1,1,right,0.0744,,982.9785,983.9584,1,1,right,983.9616,983.9632,,0,,0,983.9633,983.9633,983.9649,985.4582,0,44,44,44,1,0.6,0.4,0.4,0.6,,,,,,,,,,,,,,,0.456,,0.2,0.8,0.6,0.4,0.2,0.8,0.6,0.4,1,0,,,,,,,,,,,,
,,6672d9dfb3878b6f6c5fa763,66fc9871dd51ea4de981dbf1,2024-10-02_02h51.11.589,mdp,2024.2.1,Win32,59.88023952,66fa4ebf79326e780c390304,,,,,,,,,,,,,,,,,,,,,985.4595,985.4595,985.4622,986.3085,1,1,right,0.3173,,986.3117,987.0419,1,1,right,987.0449,987.0466,,0,,0,987.0466,987.0466,987.048,988.5411,0,45,45,45,1,0.6,0.4,0.4,0.6,,,,,,,,,,,,,,,0.2013,,0.2,0.8,0.6,0.4,0.2,0.8,0.6,0.4,1,0,,,,,,,,,,,,
,,6672d9dfb3878b6f6c5fa763,66fc9871dd51ea4de981dbf1,2024-10-02_02h51.11.589,mdp,2024.2.1,Win32,59.88023952,66fa4ebf79326e780c390304,,,,,,,,,,,,,,,,,,,,,988.5423,988.5423,988.5449,989.3251,1,1,right,0.2514,,989.3283,989.9083,1,1,right,989.9115,989.9132,,0,,0,989.9133,989.9134,989.9148,991.4082,0,46,46,46,1,0.6,0.4,0.4,0.6,,,,,,,,,,,,,,,0.0544,,0.2,0.8,0.6,0.4,0.2,0.8,0.6,0.4,1,0,,,,,,,,,,,,
,,6672d9dfb3878b6f6c5fa763,66fc9871dd51ea4de981dbf1,2024-10-02_02h51.11.589,mdp,2024.2.1,Win32,59.88023952,66fa4ebf79326e780c390304,,,,,,,,,,,,,,,,,,,,,991.4095,991.4096,991.4121,992.1252,1,0,right,0.185,,992.1282,992.6754,1,0,right,992.6788,992.6804,,1,,1,992.6804,992.6804,992.682,994.1746,0,47,47,47,1,0.6,0.4,0.4,0.6,,,,,,,,,,,,,,,0.0109,,0.2,0.8,0.6,0.4,0.2,0.8,0.6,0.4,1,0,,,,,,,,,,,,
,,6672d9dfb3878b6f6c5fa763,66fc9871dd51ea4de981dbf1,2024-10-02_02h51.11.589,mdp,2024.2.1,Win32,59.88023952,66fa4ebf79326e780c390304,,,,,,,,,,,,,,,,,,,,,994.1761,994.1761,994.179,996.3586,1,0,right,1.6517,,996.3619,997.0919,1,0,right,997.0952,997.0968,,0,,1,997.0968,997.0968,997.0983,998.5913,0,48,48,48,1,0.6,0.4,0.4,0.6,,,,,,,,,,,,,,,0.2013,,0.2,0.8,0.6,0.4,0.2,0.8,0.6,0.4,1,0,,,,,,,,,,,,
,,6672d9dfb3878b6f6c5fa763,66fc9871dd51ea4de981dbf1,2024-10-02_02h51.11.589,mdp,2024.2.1,Win32,59.88023952,66fa4ebf79326e780c390304,,,,,,,,,,,,,,,,,,,,,998.5927,998.5927,998.5954,999.4755,1,0,right,0.3509,,999.4788,1000.1251,1,0,right,1000.1281,1000.1515,,0,,1,1000.1516,1000.1517,1000.1538,1001.6416,0,49,49,49,1,0.6,0.4,0.4,0.6,,,,,,,,,,,,,,,0.1159,,0.2,0.8,0.6,0.4,0.2,0.8,0.6,0.4,1,0,,,,,,,,,,,,
,,6672d9dfb3878b6f6c5fa763,66fc9871dd51ea4de981dbf1,2024-10-02_02h51.11.589,mdp,2024.2.1,Win32,59.88023952,66fa4ebf79326e780c390304,,,,,,,,,,,,,,,,,,,,,,,,,,,,,,,,,,,,,,,,,,,,,,,,,,,,,,,,1001.6425,1060.1626,0,1,1,3,1,imgs/bear.png,imgs/pig.png,imgs/cat.png,imgs/elephant.png,imgs/goat.png,,,,,,,,,,,,,,,,,,,,,,,,
,,6672d9dfb3878b6f6c5fa763,66fc9871dd51ea4de981dbf1,2024-10-02_02h51.11.589,mdp,2024.2.1,Win32,59.88023952,66fa4ebf79326e780c390304,,,,,,,,,,,,,,3,seqs/st3seq21.csv,1060.1658,1062.7318,space,2.0438,,1062.7587,1062.7587,1062.7619,1064.5804,1,0,right,1.2308,,1064.5834,1065.1736,1,1,right,1065.1779,1065.7617,1,1,right,0,1065.762,1065.762,1065.7651,1067.2619,0,0,0,0,1,0.4,0.6,0.4,0.6,,,,,,,,,,,,,,,0.0015,,0.2,0.8,0.4,0.6,0.2,0.8,0.8,0.2,,,0.0613,,0.4,0.6,0.8,0.2,0.8,0.2,0.2,0.8,1,0
,,6672d9dfb3878b6f6c5fa763,66fc9871dd51ea4de981dbf1,2024-10-02_02h51.11.589,mdp,2024.2.1,Win32,59.88023952,66fa4ebf79326e780c390304,,,,,,,,,,,,,,,,,,,,,1067.2634,1067.2635,1067.2664,1067.8782,1,0,right,0.0861,,1067.8816,1068.6282,1,0,right,1068.6316,1069.3786,1,0,right,1,1069.3786,1069.3787,1069.3816,1070.8782,0,1,1,1,1,0.4,0.6,0.4,0.6,,,,,,,,,,,,,,,0.2164,,0.2,0.8,0.4,0.6,0.2,0.8,0.8,0.2,,,0.1564,,0.4,0.6,0.8,0.2,0.8,0.2,0.2,0.8,1,0
,,6672d9dfb3878b6f6c5fa763,66fc9871dd51ea4de981dbf1,2024-10-02_02h51.11.589,mdp,2024.2.1,Win32,59.88023952,66fa4ebf79326e780c390304,,,,,,,,,,,,,,,,,,,,,1070.8798,1070.8798,1070.8823,1071.4305,1,1,right,0.0175,,1071.4335,1073.2287,1,0,right,1073.232,1073.8783,1,0,right,1,1073.8786,1073.8786,1073.8817,1075.3788,0,2,2,2,1,0.4,0.6,0.4,0.6,,,,,,,,,,,,,,,1.2578,,0.2,0.8,0.4,0.6,0.2,0.8,0.8,0.2,,,0.1209,,0.4,0.6,0.8,0.2,0.8,0.2,0.2,0.8,1,0
,,6672d9dfb3878b6f6c5fa763,66fc9871dd51ea4de981dbf1,2024-10-02_02h51.11.589,mdp,2024.2.1,Win32,59.88023952,66fa4ebf79326e780c390304,,,,,,,,,,,,,,,,,,,,,1075.3804,1075.3804,1075.3828,1076.0454,1,1,right,0.136,,1076.0485,1076.6117,1,0,right,1076.6149,1077.162,1,0,right,1,1077.1622,1077.1622,1077.1652,1078.6617,0,3,3,3,1,0.4,0.6,0.4,0.6,,,,,,,,,,,,,,,0.0344,,0.2,0.8,0.4,0.6,0.2,0.8,0.8,0.2,,,0.0179,,0.4,0.6,0.8,0.2,0.8,0.2,0.2,0.8,1,0
,,6672d9dfb3878b6f6c5fa763,66fc9871dd51ea4de981dbf1,2024-10-02_02h51.11.589,mdp,2024.2.1,Win32,59.88023952,66fa4ebf79326e780c390304,,,,,,,,,,,,,,,,,,,,,1078.6636,1078.6636,1078.6662,1079.4118,1,0,right,0.2173,,1079.4152,1080.1286,1,1,right,1080.1321,1080.8118,1,0,right,1,1080.8121,1080.8121,1080.8153,1082.3116,0,4,4,4,1,0.4,0.6,0.4,0.6,,,,,,,,,,,,,,,0.1727,,0.2,0.8,0.4,0.6,0.2,0.8,0.8,0.2,,,0.1406,,0.4,0.6,0.8,0.2,0.8,0.2,0.2,0.8,1,0
,,6672d9dfb3878b6f6c5fa763,66fc9871dd51ea4de981dbf1,2024-10-02_02h51.11.589,mdp,2024.2.1,Win32,59.88023952,66fa4ebf79326e780c390304,,,,,,,,,,,,,,,,,,,,,1082.3134,1082.3135,1082.316,1083.3956,1,1,right,0.5514,,1083.3987,1084.1468,1,0,right,1084.1497,1084.7464,1,0,right,1,1084.7466,1084.7466,1084.7495,1086.245,0,5,5,5,1,0.4,0.6,0.4,0.6,,,,,,,,,,,,,,,0.215,,0.2,0.8,0.4,0.6,0.2,0.8,0.8,0.2,,,0.0634,,0.4,0.6,0.8,0.2,0.8,0.2,0.2,0.8,1,0
,,6672d9dfb3878b6f6c5fa763,66fc9871dd51ea4de981dbf1,2024-10-02_02h51.11.589,mdp,2024.2.1,Win32,59.88023952,66fa4ebf79326e780c390304,,,,,,,,,,,,,,,,,,,,,1086.2469,1086.2469,1086.2495,1086.8287,1,0,right,0.0519,,1086.832,1087.9483,1,1,right,1087.9507,1088.4836,1,1,right,0,1088.4837,1088.4839,1088.4877,1089.9787,0,6,6,6,1,0.4,0.6,0.4,0.6,,,,,,,,,,,,,,,0.5831,,0.2,0.8,0.4,0.6,0.2,0.8,0.8,0.2,,,0.0009,,0.4,0.6,0.8,0.2,0.8,0.2,0.2,0.8,1,0
,,6672d9dfb3878b6f6c5fa763,66fc9871dd51ea4de981dbf1,2024-10-02_02h51.11.589,mdp,2024.2.1,Win32,59.88023952,66fa4ebf79326e780c390304,,,,,,,,,,,,,,,,,,,,,1089.9803,1089.9804,1089.9829,1090.5131,1,1,right,0.0036,,1090.5161,1091.08,1,1,right,1091.083,1091.8455,1,0,right,1,1091.8458,1091.8458,1091.8488,1093.3452,0,7,7,7,1,0.4,0.6,0.4,0.6,,,,,,,,,,,,,,,0.0318,,0.6,0.4,0.6,0.4,0.2,0.8,0.8,0.2,,,0.2357,,0.4,0.6,0.8,0.2,0.8,0.2,0.2,0.8,1,0
,,6672d9dfb3878b6f6c5fa763,66fc9871dd51ea4de981dbf1,2024-10-02_02h51.11.589,mdp,2024.2.1,Win32,59.88023952,66fa4ebf79326e780c390304,,,,,,,,,,,,,,,,,,,,,1093.3473,1093.3473,1093.3496,1094.0456,1,1,right,0.1677,,1094.0492,1094.5956,1,0,right,1094.5988,1095.1962,1,0,right,1,1095.1963,1095.1963,1095.199,1096.6955,0,8,8,8,1,0.4,0.6,0.4,0.6,,,,,,,,,,,,,,,0.0207,,0.6,0.4,0.6,0.4,0.2,0.8,0.8,0.2,,,0.0588,,0.4,0.6,0.8,0.2,0.8,0.2,0.2,0.8,1,0
,,6672d9dfb3878b6f6c5fa763,66fc9871dd51ea4de981dbf1,2024-10-02_02h51.11.589,mdp,2024.2.1,Win32,59.88023952,66fa4ebf79326e780c390304,,,,,,,,,,,,,,,,,,,,,1096.6976,1096.6976,1096.7,1097.6458,1,0,right,0.4175,,1097.6491,1098.3458,1,0,right,1098.3491,1099.129,1,0,right,1,1099.1293,1099.1293,1099.1324,1100.6292,0,9,9,9,1,0.4,0.6,0.4,0.6,,,,,,,,,,,,,,,0.1589,,0.6,0.4,0.6,0.4,0.2,0.8,0.8,0.2,,,0.2545,,0.4,0.6,0.8,0.2,0.8,0.2,0.2,0.8,1,0
,,6672d9dfb3878b6f6c5fa763,66fc9871dd51ea4de981dbf1,2024-10-02_02h51.11.589,mdp,2024.2.1,Win32,59.88023952,66fa4ebf79326e780c390304,,,,,,,,,,,,,,,,,,,,,1100.6307,1100.6307,1100.6334,1101.346,1,1,right,0.1859,,1101.3492,1101.9625,1,0,right,1101.9658,1102.7127,1,0,right,1,1102.713,1102.713,1102.717,1104.2126,0,10,10,10,1,0.4,0.6,0.4,0.6,,,,,,,,,,,,,,,0.0744,,0.6,0.4,0.6,0.4,0.2,0.8,0.8,0.2,,,0.2188,,0.4,0.6,0.8,0.2,0.8,0.2,0.2,0.8,1,0
,,6672d9dfb3878b6f6c5fa763,66fc9871dd51ea4de981dbf1,2024-10-02_02h51.11.589,mdp,2024.2.1,Win32,59.88023952,66fa4ebf79326e780c390304,,,,,,,,,,,,,,,,,,,,,1104.2142,1104.2143,1104.2168,1104.8795,1,1,right,0.1343,,1104.8827,1105.4128,1,0,right,1105.416,1106.1293,1,0,right,1,1106.1297,1106.1297,1106.1326,1107.6293,0,11,11,11,1,0.4,0.6,0.4,0.6,,,,,,,,,,,,,,,0.0009,,0.6,0.4,0.6,0.4,0.2,0.8,0.8,0.2,,,0.1894,,0.4,0.6,0.8,0.2,0.8,0.2,0.2,0.8,1,0
,,6672d9dfb3878b6f6c5fa763,66fc9871dd51ea4de981dbf1,2024-10-02_02h51.11.589,mdp,2024.2.1,Win32,59.88023952,66fa4ebf79326e780c390304,,,,,,,,,,,,,,,,,,,,,1107.6312,1107.6312,1107.6335,1108.2961,1,1,right,0.1352,,1108.2994,1108.8467,1,1,right,1108.8499,1109.6963,1,1,right,0,1109.6963,1109.6963,1109.6996,1111.1959,0,12,12,12,1,0.4,0.6,0.4,0.6,,,,,,,,,,,,,,,0.0176,,0.6,0.4,0.6,0.4,0.2,0.8,0.8,0.2,,,0.3074,,0.4,0.6,0.8,0.2,0.8,0.2,0.2,0.8,1,0
,,6672d9dfb3878b6f6c5fa763,66fc9871dd51ea4de981dbf1,2024-10-02_02h51.11.589,mdp,2024.2.1,Win32,59.88023952,66fa4ebf79326e780c390304,,,,,,,,,,,,,,,,,,,,,1111.1978,1111.1978,1111.2001,1111.8299,1,0,right,0.1009,,1111.8329,1113.0633,1,0,right,1113.0663,1113.6795,1,1,right,0,1113.6798,1113.6798,1113.6827,1115.1794,0,13,13,13,1,0.2,0.8,0.2,0.8,,,,,,,,,,,,,,,0.6898,,0.6,0.4,0.6,0.4,0.2,0.8,0.8,0.2,,,0.0766,,0.4,0.6,0.8,0.2,0.8,0.2,0.2,0.8,1,0
,,6672d9dfb3878b6f6c5fa763,66fc9871dd51ea4de981dbf1,2024-10-02_02h51.11.589,mdp,2024.2.1,Win32,59.88023952,66fa4ebf79326e780c390304,,,,,,,,,,,,,,,,,,,,,1115.1815,1115.1815,1115.1842,1115.7133,1,1,right,0.0007,,1115.7161,1116.4124,1,1,right,1116.4166,1116.98,1,0,right,1,1116.9801,1116.9802,1116.9833,1118.4794,0,14,14,14,1,0.2,0.8,0.2,0.8,,,,,,,,,,,,,,,0.1575,,0.6,0.4,0.6,0.4,0.2,0.8,0.8,0.2,,,0.0227,,0.4,0.6,0.8,0.2,0.8,0.2,0.2,0.8,1,0
,,6672d9dfb3878b6f6c5fa763,66fc9871dd51ea4de981dbf1,2024-10-02_02h51.11.589,mdp,2024.2.1,Win32,59.88023952,66fa4ebf79326e780c390304,,,,,,,,,,,,,,,,,,,,,1118.4811,1118.4811,1118.4837,1119.0296,1,1,right,0.0171,,1119.0328,1119.7133,1,0,right,1119.7165,1120.2797,1,0,right,1,1120.2799,1120.2799,1120.2829,1121.7793,0,15,15,15,1,0.2,0.8,0.2,0.8,,,,,,,,,,,,,,,0.1517,,0.6,0.4,0.6,0.4,0.2,0.8,0.8,0.2,,,0.0233,,0.4,0.6,0.8,0.2,0.8,0.2,0.2,0.8,1,0
,,6672d9dfb3878b6f6c5fa763,66fc9871dd51ea4de981dbf1,2024-10-02_02h51.11.589,mdp,2024.2.1,Win32,59.88023952,66fa4ebf79326e780c390304,,,,,,,,,,,,,,,,,,,,,1121.7811,1121.7812,1121.7838,1122.447,1,0,right,0.1344,,1122.4497,1123.1467,1,1,right,1123.1498,1123.9301,1,1,right,0,1123.9302,1123.9302,1123.9332,1125.4299,0,16,16,16,1,0.2,0.8,0.2,0.8,,,,,,,,,,,,,,,0.1618,,0.6,0.4,0.6,0.4,0.2,0.8,0.8,0.2,,,0.2401,,0.4,0.6,0.8,0.2,0.8,0.2,0.2,0.8,1,0
,,6672d9dfb3878b6f6c5fa763,66fc9871dd51ea4de981dbf1,2024-10-02_02h51.11.589,mdp,2024.2.1,Win32,59.88023952,66fa4ebf79326e780c390304,,,,,,,,,,,,,,,,,,,,,1125.4315,1125.4315,1125.4339,1126.0467,1,1,right,0.0891,,1126.0499,1126.7633,1,0,right,1126.7668,1142.3652,1,0,right,1,1142.3655,1142.3655,1142.3677,1143.8648,0,17,17,17,1,0.2,0.8,0.2,0.8,,,,,,,,,,,,,,,0.1766,,0.6,0.4,0.6,0.4,0.2,0.8,0.8,0.2,,,15.0601,,0.4,0.6,0.8,0.2,0.8,0.2,0.2,0.8,1,0
,,6672d9dfb3878b6f6c5fa763,66fc9871dd51ea4de981dbf1,2024-10-02_02h51.11.589,mdp,2024.2.1,Win32,59.88023952,66fa4ebf79326e780c390304,,,,,,,,,,,,,,,,,,,,,1143.8658,1143.8658,1143.8679,1144.5335,1,1,right,0.1426,,1144.5357,1145.1484,1,0,right,1145.1506,1145.8985,1,0,right,1,1145.8987,1145.8988,1145.9008,1147.3982,0,18,18,18,1,0.2,0.8,0.2,0.8,,,,,,,,,,,,,,,0.0897,,0.6,0.4,0.6,0.4,0.2,0.8,0.8,0.2,,,0.218,,0.6,0.4,0.6,0.4,0.8,0.2,0.2,0.8,1,0
,,6672d9dfb3878b6f6c5fa763,66fc9871dd51ea4de981dbf1,2024-10-02_02h51.11.589,mdp,2024.2.1,Win32,59.88023952,66fa4ebf79326e780c390304,,,,,,,,,,,,,,,,,,,,,1147.3991,1147.3992,1147.4013,1148.0986,1,1,right,0.1676,,1148.1009,1148.8481,1,0,right,1148.8505,1149.499,1,1,right,0,1149.4992,1149.4992,1149.5015,1150.9983,0,19,19,19,1,0.2,0.8,0.2,0.8,,,,,,,,,,,,,,,0.2221,,0.6,0.4,0.6,0.4,0.2,0.8,0.8,0.2,,,0.1181,,0.6,0.4,0.6,0.4,0.8,0.2,0.2,0.8,1,0
,,6672d9dfb3878b6f6c5fa763,66fc9871dd51ea4de981dbf1,2024-10-02_02h51.11.589,mdp,2024.2.1,Win32,59.88023952,66fa4ebf79326e780c390304,,,,,,,,,,,,,,,,,,,,,1150.9991,1150.9992,1151.0014,1153.8507,1,1,right,2.3279,,1153.8525,1155.1821,1,0,right,1155.1842,1155.732,1,1,right,0,1155.7322,1155.7322,1155.7345,1157.2323,0,20,20,20,1,0.2,0.8,0.2,0.8,,,,,,,,,,,,,,,0.8008,,0.6,0.4,0.6,0.4,0.2,0.8,0.8,0.2,,,0.0199,,0.6,0.4,0.6,0.4,0.8,0.2,0.2,0.8,1,0
,,6672d9dfb3878b6f6c5fa763,66fc9871dd51ea4de981dbf1,2024-10-02_02h51.11.589,mdp,2024.2.1,Win32,59.88023952,66fa4ebf79326e780c390304,,,,,,,,,,,,,,,,,,,,,1157.2334,1157.2336,1157.2354,1157.8321,1,1,right,0.0682,,1157.8345,1158.6818,1,0,right,1158.6843,1159.2326,1,0,right,1,1159.2327,1159.2327,1159.2348,1160.7315,0,21,21,21,1,0.2,0.8,0.2,0.8,,,,,,,,,,,,,,,0.3225,,0.6,0.4,0.6,0.4,0.2,0.8,0.8,0.2,,,0.0233,,0.2,0.8,0.8,0.2,0.8,0.2,0.2,0.8,1,0
,,6672d9dfb3878b6f6c5fa763,66fc9871dd51ea4de981dbf1,2024-10-02_02h51.11.589,mdp,2024.2.1,Win32,59.88023952,66fa4ebf79326e780c390304,,,,,,,,,,,,,,,,,,,,,1160.7326,1160.7327,1160.7348,1161.4342,1,1,right,0.1779,,1161.4359,1161.9654,1,0,right,1161.9678,1162.8322,1,1,right,0,1162.8325,1162.8326,1162.8352,1164.3321,0,22,22,22,1,0.2,0.8,0.2,0.8,,,,,,,,,,,,,,,0.0007,,0.6,0.4,0.6,0.4,0.2,0.8,0.8,0.2,,,0.3347,,0.2,0.8,0.8,0.2,0.8,0.2,0.2,0.8,1,0
,,6672d9dfb3878b6f6c5fa763,66fc9871dd51ea4de981dbf1,2024-10-02_02h51.11.589,mdp,2024.2.1,Win32,59.88023952,66fa4ebf79326e780c390304,,,,,,,,,,,,,,,,,,,,,1164.3331,1164.3331,1164.3354,1165.0325,1,1,right,0.1676,,1165.0351,1165.6695,1,0,right,1165.6713,1166.2158,1,0,right,1,1166.2159,1166.2159,1166.2182,1167.7154,0,23,23,23,1,0.2,0.8,0.2,0.8,,,,,,,,,,,,,,,0.1125,,0.6,0.4,0.6,0.4,0.2,0.8,0.8,0.2,,,0.0174,,0.2,0.8,0.8,0.2,0.4,0.6,0.4,0.6,1,0
,,6672d9dfb3878b6f6c5fa763,66fc9871dd51ea4de981dbf1,2024-10-02_02h51.11.589,mdp,2024.2.1,Win32,59.88023952,66fa4ebf79326e780c390304,,,,,,,,,,,,,,,,,,,,,1167.7163,1167.7163,1167.7185,1168.3345,1,0,right,0.0929,,1168.3367,1169.2661,1,1,right,1169.2686,1170.0158,1,1,right,0,1170.0159,1170.016,1170.0181,1171.5155,0,24,24,24,1,0.2,0.8,0.2,0.8,,,,,,,,,,,,,,,0.3887,,0.6,0.4,0.6,0.4,0.2,0.8,0.8,0.2,,,0.2073,,0.2,0.8,0.8,0.2,0.4,0.6,0.4,0.6,1,0
,,6672d9dfb3878b6f6c5fa763,66fc9871dd51ea4de981dbf1,2024-10-02_02h51.11.589,mdp,2024.2.1,Win32,59.88023952,66fa4ebf79326e780c390304,,,,,,,,,,,,,,,,,,,,,1171.5166,1171.5168,1171.519,1172.1328,1,1,right,0.0843,,1172.1351,1172.7827,1,0,right,1172.7853,1173.5993,1,0,right,1,1173.5994,1173.5994,1173.6015,1175.099,0,25,25,25,1,0.2,0.8,0.2,0.8,,,,,,,,,,,,,,,0.1151,,0.6,0.4,0.6,0.4,0.2,0.8,0.8,0.2,,,0.2751,,0.2,0.8,0.8,0.2,0.8,0.2,0.2,0.8,1,0
,,6672d9dfb3878b6f6c5fa763,66fc9871dd51ea4de981dbf1,2024-10-02_02h51.11.589,mdp,2024.2.1,Win32,59.88023952,66fa4ebf79326e780c390304,,,,,,,,,,,,,,,,,,,,,1175.1003,1175.1004,1175.1024,1175.7328,1,1,right,0.1007,,1175.7351,1176.4324,1,0,right,1176.4351,1177.2011,1,0,right,1,1177.2012,1177.2012,1177.2033,1178.6989,0,26,26,26,1,0.2,0.8,0.2,0.8,,,,,,,,,,,,,,,0.1676,,0.6,0.4,0.6,0.4,0.2,0.8,0.8,0.2,,,0.2443,,0.2,0.8,0.8,0.2,0.8,0.2,0.2,0.8,1,0
,,6672d9dfb3878b6f6c5fa763,66fc9871dd51ea4de981dbf1,2024-10-02_02h51.11.589,mdp,2024.2.1,Win32,59.88023952,66fa4ebf79326e780c390304,,,,,,,,,,,,,,,,,,,,,1178.6998,1178.6998,1178.7019,1179.2494,1,0,right,0.0175,,1179.2517,1180.5167,1,0,right,1180.5192,1181.0678,1,0,right,1,1181.0679,1181.0679,1181.0697,1182.5659,0,27,27,27,1,0.2,0.8,0.2,0.8,,,,,,,,,,,,,,,0.7247,,0.6,0.4,0.6,0.4,0.2,0.8,0.8,0.2,,,0.0277,,0.2,0.8,0.8,0.2,0.8,0.2,0.2,0.8,1,0
,,6672d9dfb3878b6f6c5fa763,66fc9871dd51ea4de981dbf1,2024-10-02_02h51.11.589,mdp,2024.2.1,Win32,59.88023952,66fa4ebf79326e780c390304,,,,,,,,,,,,,,,,,,,,,1182.5674,1182.5675,1182.5694,1183.2162,1,1,right,0.117,,1183.2185,1183.7552,1,0,right,1183.757,1184.3991,1,0,right,1,1184.3993,1184.3993,1184.4017,1185.8992,0,28,28,28,1,0.2,0.8,0.2,0.8,,,,,,,,,,,,,,,0.0024,,0.6,0.4,0.6,0.4,0.2,0.8,0.8,0.2,,,0.1213,,0.2,0.8,0.8,0.2,0.8,0.2,0.2,0.8,1,0
,,6672d9dfb3878b6f6c5fa763,66fc9871dd51ea4de981dbf1,2024-10-02_02h51.11.589,mdp,2024.2.1,Win32,59.88023952,66fa4ebf79326e780c390304,,,,,,,,,,,,,,,,,,,,,1185.9001,1185.9001,1185.9022,1186.9664,1,1,right,0.5346,,1186.9684,1187.5663,1,0,right,1187.5689,1188.4825,1,0,right,1,1188.483,1188.4831,1188.4852,1189.9827,0,29,29,29,1,0.2,0.8,0.2,0.8,,,,,,,,,,,,,,,0.0677,,0.6,0.4,0.6,0.4,0.2,0.8,0.8,0.2,,,0.3846,,0.2,0.8,0.8,0.2,0.8,0.2,0.2,0.8,1,0
,,6672d9dfb3878b6f6c5fa763,66fc9871dd51ea4de981dbf1,2024-10-02_02h51.11.589,mdp,2024.2.1,Win32,59.88023952,66fa4ebf79326e780c390304,,,,,,,,,,,,,,,,,,,,,1189.9836,1189.9837,1189.9857,1190.6492,1,0,right,0.1385,,1190.6518,1191.3165,1,0,right,1191.3187,1191.883,1,0,right,1,1191.8832,1191.8832,1191.8855,1193.3828,0,30,30,30,1,0.6,0.4,0.4,0.6,,,,,,,,,,,,,,,0.1254,,0.6,0.4,0.6,0.4,0.2,0.8,0.8,0.2,,,0.0343,,0.2,0.8,0.8,0.2,0.8,0.2,0.2,0.8,1,0
,,6672d9dfb3878b6f6c5fa763,66fc9871dd51ea4de981dbf1,2024-10-02_02h51.11.589,mdp,2024.2.1,Win32,59.88023952,66fa4ebf79326e780c390304,,,,,,,,,,,,,,,,,,,,,1193.3839,1193.384,1193.386,1194.5329,1,0,right,0.618,,1194.5354,1195.1498,1,0,right,1195.1522,1195.8664,1,1,right,0,1195.8667,1195.8667,1195.8688,1197.3662,0,31,31,31,1,0.6,0.4,0.4,0.6,,,,,,,,,,,,,,,0.0845,,0.6,0.4,0.6,0.4,0.2,0.8,0.8,0.2,,,0.1894,,0.2,0.8,0.8,0.2,0.8,0.2,0.2,0.8,1,0
,,6672d9dfb3878b6f6c5fa763,66fc9871dd51ea4de981dbf1,2024-10-02_02h51.11.589,mdp,2024.2.1,Win32,59.88023952,66fa4ebf79326e780c390304,,,,,,,,,,,,,,,,,,,,,1197.3672,1197.3672,1197.3692,1199.3681,1,0,right,1.4776,,1199.3701,1200.0498,1,0,right,1200.0521,1201.0998,1,0,right,1,1201.0999,1201.1,1201.1023,1202.5996,0,32,32,32,1,0.6,0.4,0.4,0.6,,,,,,,,,,,,,,,0.1511,,0.6,0.4,0.6,0.4,0.2,0.8,0.8,0.2,,,0.5226,,0.2,0.8,0.8,0.2,0.8,0.2,0.2,0.8,1,0
,,6672d9dfb3878b6f6c5fa763,66fc9871dd51ea4de981dbf1,2024-10-02_02h51.11.589,mdp,2024.2.1,Win32,59.88023952,66fa4ebf79326e780c390304,,,,,,,,,,,,,,,,,,,,,1202.6005,1202.6006,1202.6026,1203.35,1,0,right,0.2175,,1203.3523,1204.0837,1,0,right,1204.0857,1205.0167,1,0,right,1,1205.017,1205.017,1205.0192,1206.5184,0,33,33,33,1,0.6,0.4,0.4,0.6,,,,,,,,,,,,,,,0.201,,0.6,0.4,0.6,0.4,0.2,0.8,0.8,0.2,,,0.4012,,0.2,0.8,0.8,0.2,0.8,0.2,0.2,0.8,1,0
,,6672d9dfb3878b6f6c5fa763,66fc9871dd51ea4de981dbf1,2024-10-02_02h51.11.589,mdp,2024.2.1,Win32,59.88023952,66fa4ebf79326e780c390304,,,,,,,,,,,,,,,,,,,,,1206.5192,1206.5192,1206.521,1207.4504,1,0,right,0.4013,,1207.4526,1208.0336,1,0,right,1208.0358,1208.7502,1,0,right,1,1208.7503,1208.7503,1208.7525,1210.2498,0,34,34,34,1,0.6,0.4,0.4,0.6,,,,,,,,,,,,,,,0.0505,,0.6,0.4,0.6,0.4,0.2,0.8,0.8,0.2,,,0.1884,,0.2,0.8,0.8,0.2,0.8,0.2,0.2,0.8,1,0
,,6672d9dfb3878b6f6c5fa763,66fc9871dd51ea4de981dbf1,2024-10-02_02h51.11.589,mdp,2024.2.1,Win32,59.88023952,66fa4ebf79326e780c390304,,,,,,,,,,,,,,,,,,,,,1210.2508,1210.2508,1210.2528,1211.1169,1,0,right,0.3343,,1211.1195,1211.6837,1,0,right,1211.686,1213.5837,1,1,right,0,1213.5841,1213.5841,1213.5862,1215.0837,0,35,35,35,1,0.6,0.4,0.4,0.6,,,,,,,,,,,,,,,0.0347,,0.6,0.4,0.6,0.4,0.2,0.8,0.8,0.2,,,1.3712,,0.2,0.8,0.8,0.2,0.8,0.2,0.2,0.8,1,0
,,6672d9dfb3878b6f6c5fa763,66fc9871dd51ea4de981dbf1,2024-10-02_02h51.11.589,mdp,2024.2.1,Win32,59.88023952,66fa4ebf79326e780c390304,,,,,,,,,,,,,,,,,,,,,1215.0847,1215.0848,1215.0867,1215.6839,1,1,right,0.0678,,1215.6861,1216.3339,1,0,right,1216.337,1217,1,0,right,1,1217.0001,1217.0002,1217.0027,1218.5002,0,36,36,36,1,0.6,0.4,0.4,0.6,,,,,,,,,,,,,,,0.1091,,0.6,0.4,0.6,0.4,0.2,0.8,0.8,0.2,,,0.1345,,0.2,0.8,0.8,0.2,0.8,0.2,0.2,0.8,1,0
,,6672d9dfb3878b6f6c5fa763,66fc9871dd51ea4de981dbf1,2024-10-02_02h51.11.589,mdp,2024.2.1,Win32,59.88023952,66fa4ebf79326e780c390304,,,,,,,,,,,,,,,,,,,,,1218.5012,1218.5012,1218.5032,1219.0338,1,1,right,0.0033,,1219.0361,1219.7506,1,1,right,1219.7531,1220.3169,1,1,right,0,1220.3171,1220.3171,1220.3194,1221.8168,0,37,37,37,1,0.6,0.4,0.4,0.6,,,,,,,,,,,,,,,0.193,,0.6,0.4,0.6,0.4,0.2,0.8,0.8,0.2,,,0.0227,,0.2,0.8,0.8,0.2,0.8,0.2,0.2,0.8,1,0
,,6672d9dfb3878b6f6c5fa763,66fc9871dd51ea4de981dbf1,2024-10-02_02h51.11.589,mdp,2024.2.1,Win32,59.88023952,66fa4ebf79326e780c390304,,,,,,,,,,,,,,,,,,,,,1221.8177,1221.8177,1221.8198,1222.4007,1,1,right,0.0512,,1222.4029,1223.0007,1,0,right,1223.0029,1223.6012,1,0,right,1,1223.6014,1223.6014,1223.6042,1225.0999,0,38,38,38,1,0.6,0.4,0.4,0.6,,,,,,,,,,,,,,,0.0678,,0.6,0.4,0.6,0.4,0.2,0.8,0.8,0.2,,,0.0598,,0.2,0.8,0.8,0.2,0.8,0.2,0.2,0.8,1,0
,,6672d9dfb3878b6f6c5fa763,66fc9871dd51ea4de981dbf1,2024-10-02_02h51.11.589,mdp,2024.2.1,Win32,59.88023952,66fa4ebf79326e780c390304,,,,,,,,,,,,,,,,,,,,,1225.1009,1225.101,1225.1033,1225.6341,1,1,right,0.0008,,1225.6363,1226.3523,1,0,right,1226.3543,1227.1005,1,0,right,1,1227.1008,1227.1008,1227.1031,1228.6004,0,39,39,39,1,0.6,0.4,0.4,0.6,,,,,,,,,,,,,,,0.1945,,0.6,0.4,0.6,0.4,0.2,0.8,0.8,0.2,,,0.218,,0.2,0.8,0.8,0.2,0.8,0.2,0.2,0.8,1,0
,,6672d9dfb3878b6f6c5fa763,66fc9871dd51ea4de981dbf1,2024-10-02_02h51.11.589,mdp,2024.2.1,Win32,59.88023952,66fa4ebf79326e780c390304,,,,,,,,,,,,,,,,,,,,,1228.6014,1228.6015,1228.6034,1229.4174,1,0,right,0.2898,,1229.4198,1230.2509,1,0,right,1230.2532,1230.9841,1,0,right,1,1230.9845,1230.9845,1230.9866,1232.4838,0,40,40,40,1,0.6,0.4,0.4,0.6,,,,,,,,,,,,,,,0.2895,,0.6,0.4,0.6,0.4,0.2,0.8,0.8,0.2,,,0.2013,,0.2,0.8,0.8,0.2,0.8,0.2,0.2,0.8,1,0
,,6672d9dfb3878b6f6c5fa763,66fc9871dd51ea4de981dbf1,2024-10-02_02h51.11.589,mdp,2024.2.1,Win32,59.88023952,66fa4ebf79326e780c390304,,,,,,,,,,,,,,,,,,,,,1232.4851,1232.4852,1232.4872,1233.201,1,1,right,0.1887,,1233.2035,1233.7387,1,1,right,1233.7405,1234.3362,1,1,right,0,1234.3362,1234.3363,1234.3381,1235.8341,0,41,41,41,1,0.6,0.4,0.4,0.6,,,,,,,,,,,,,,,0.0014,,0.4,0.6,0.4,0.6,0.2,0.8,0.8,0.2,,,0.0658,,0.2,0.8,0.8,0.2,0.8,0.2,0.2,0.8,1,0
,,6672d9dfb3878b6f6c5fa763,66fc9871dd51ea4de981dbf1,2024-10-02_02h51.11.589,mdp,2024.2.1,Win32,59.88023952,66fa4ebf79326e780c390304,,,,,,,,,,,,,,,,,,,,,1235.835,1235.8351,1235.8371,1236.384,1,1,right,0.0174,,1236.3865,1237.1012,1,0,right,1237.1038,1237.8343,1,0,right,1,1237.8346,1237.8346,1237.8366,1239.3338,0,42,42,42,1,0.6,0.4,0.4,0.6,,,,,,,,,,,,,,,0.1929,,0.4,0.6,0.4,0.6,0.2,0.8,0.8,0.2,,,0.193,,0.2,0.8,0.8,0.2,0.8,0.2,0.2,0.8,1,0
,,6672d9dfb3878b6f6c5fa763,66fc9871dd51ea4de981dbf1,2024-10-02_02h51.11.589,mdp,2024.2.1,Win32,59.88023952,66fa4ebf79326e780c390304,,,,,,,,,,,,,,,,,,,,,1239.3349,1239.3349,1239.3372,1239.9024,1,0,right,0.044,,1239.9044,1240.4375,1,0,right,1240.44,1241.0005,1,0,right,1,1241.0007,1241.0008,1241.0033,1242.5007,0,43,43,43,1,0.6,0.4,0.4,0.6,,,,,,,,,,,,,,,0.0013,,0.4,0.6,0.4,0.6,0.2,0.8,0.8,0.2,,,0.0395,,0.2,0.8,0.8,0.2,0.8,0.2,0.2,0.8,1,0
,,6672d9dfb3878b6f6c5fa763,66fc9871dd51ea4de981dbf1,2024-10-02_02h51.11.589,mdp,2024.2.1,Win32,59.88023952,66fa4ebf79326e780c390304,,,,,,,,,,,,,,,,,,,,,1242.5017,1242.5017,1242.5037,1243.1189,1,0,right,0.094,,1243.1215,1243.6694,1,0,right,1243.6715,1244.4843,1,0,right,1,1244.4845,1244.4845,1244.4868,1245.984,0,44,44,44,1,0.6,0.4,0.4,0.6,,,,,,,,,,,,,,,0.0277,,0.4,0.6,0.4,0.6,0.2,0.8,0.8,0.2,,,0.286,,0.2,0.8,0.8,0.2,0.8,0.2,0.2,0.8,1,0
,,6672d9dfb3878b6f6c5fa763,66fc9871dd51ea4de981dbf1,2024-10-02_02h51.11.589,mdp,2024.2.1,Win32,59.88023952,66fa4ebf79326e780c390304,,,,,,,,,,,,,,,,,,,,,1245.985,1245.9851,1245.9871,1246.8681,1,1,right,0.3502,,1246.8703,1247.5835,1,0,right,1247.5869,1248.2332,1,1,right,0,1248.2335,1248.2335,1248.2365,1249.7331,0,45,45,45,1,0.6,0.4,0.4,0.6,,,,,,,,,,,,,,,0.175,,0.4,0.6,0.4,0.6,0.2,0.8,0.8,0.2,,,0.1173,,0.2,0.8,0.8,0.2,0.8,0.2,0.2,0.8,1,0
,,6672d9dfb3878b6f6c5fa763,66fc9871dd51ea4de981dbf1,2024-10-02_02h51.11.589,mdp,2024.2.1,Win32,59.88023952,66fa4ebf79326e780c390304,,,,,,,,,,,,,,,,,,,,,1249.735,1249.735,1249.7379,1250.2668,1,1,right,0.001,,1250.2701,1250.8002,1,0,right,1250.8032,1251.5501,1,0,right,1,1251.5502,1251.5502,1251.5533,1253.0497,0,46,46,46,1,0.6,0.4,0.4,0.6,,,,,,,,,,,,,,,0.0009,,0.4,0.6,0.4,0.6,0.2,0.8,0.8,0.2,,,0.2211,,0.2,0.8,0.8,0.2,0.8,0.2,0.2,0.8,1,0
,,6672d9dfb3878b6f6c5fa763,66fc9871dd51ea4de981dbf1,2024-10-02_02h51.11.589,mdp,2024.2.1,Win32,59.88023952,66fa4ebf79326e780c390304,,,,,,,,,,,,,,,,,,,,,1253.0515,1253.0516,1253.054,1253.65,1,1,right,0.0712,,1253.6538,1254.2,1,0,right,1254.2032,1254.9667,1,1,right,0,1254.967,1254.967,1254.9701,1256.4667,0,47,47,47,1,0.6,0.4,0.4,0.6,,,,,,,,,,,,,,,0.0178,,0.4,0.6,0.4,0.6,0.2,0.8,0.8,0.2,,,0.2338,,0.4,0.6,0.2,0.8,0.8,0.2,0.2,0.8,1,0
,,6672d9dfb3878b6f6c5fa763,66fc9871dd51ea4de981dbf1,2024-10-02_02h51.11.589,mdp,2024.2.1,Win32,59.88023952,66fa4ebf79326e780c390304,,,,,,,,,,,,,,,,,,,,,1256.4684,1256.4684,1256.4709,1257.203,1,1,right,0.2103,,1257.2052,1257.984,1,1,right,1257.9868,1258.6505,1,1,right,0,1258.6506,1258.6506,1258.6536,1260.1498,0,48,48,48,1,0.6,0.4,0.4,0.6,,,,,,,,,,,,,,,0.2507,,0.8,0.2,0.6,0.4,0.2,0.8,0.8,0.2,,,0.1267,,0.4,0.6,0.2,0.8,0.8,0.2,0.2,0.8,1,0
,,6672d9dfb3878b6f6c5fa763,66fc9871dd51ea4de981dbf1,2024-10-02_02h51.11.589,mdp,2024.2.1,Win32,59.88023952,66fa4ebf79326e780c390304,,,,,,,,,,,,,,,,,,,,,1260.1508,1260.1508,1260.154,1294.8848,1,0,right,34.2021,,1294.888,1295.4348,1,1,right,1295.438,1296.1345,1,1,right,0,1296.1348,1296.1349,1296.1379,1297.6341,0,49,49,49,1,0.6,0.4,0.4,0.6,,,,,,,,,,,,,,,0.0121,,0.8,0.2,0.6,0.4,0.2,0.8,0.8,0.2,,,0.1684,,0.4,0.6,0.2,0.8,0.8,0.2,0.2,0.8,1,0
,,6672d9dfb3878b6f6c5fa763,66fc9871dd51ea4de981dbf1,2024-10-02_02h51.11.589,mdp,2024.2.1,Win32,59.88023952,66fa4ebf79326e780c390304,,,,,,,,,,,,,,,,,,,,,,,,,,,,,,,,,,,,,,,,,,,,,,,,,,,,,,,,1297.6351,1356.1362,0,2,2,8,1,imgs/kangaroo.png,imgs/giraffe.png,imgs/cat.png,imgs/goat.png,imgs/pig.png,,,,,,,,,,,,,,,,,,,,,,,,
,,6672d9dfb3878b6f6c5fa763,66fc9871dd51ea4de981dbf1,2024-10-02_02h51.11.589,mdp,2024.2.1,Win32,59.88023952,66fa4ebf79326e780c390304,,,,,,,,,,,,,,3,seqs/st3seq11.csv,1356.1378,1359.2702,space,2.607,,1359.2947,1359.2948,1359.2974,1361.0193,0,0,left,1.1912,,1361.0233,1361.9198,0,1,left,1361.9233,1363.3531,1,0,right,1,1363.3533,1363.3533,1363.3565,1364.853,0,0,0,0,1,0.8,0.2,0.2,0.8,,,,,,,,,,,,,,,0.3583,,0.8,0.2,0.2,0.8,0.2,0.8,0.2,0.8,,,0.8907,,0.6,0.4,0.2,0.8,0.2,0.8,0.4,0.6,1,0
,,6672d9dfb3878b6f6c5fa763,66fc9871dd51ea4de981dbf1,2024-10-02_02h51.11.589,mdp,2024.2.1,Win32,59.88023952,66fa4ebf79326e780c390304,,,,,,,,,,,,,,,,,,,,,1364.8549,1364.8549,1364.8572,1365.5868,0,0,left,0.2037,,1365.5898,1366.3867,0,0,left,1366.39,1367.5032,1,1,right,0,1367.5035,1367.5036,1367.5072,1369.0033,0,1,1,1,1,0.8,0.2,0.2,0.8,,,,,,,,,,,,,,,0.2678,,0.8,0.2,0.2,0.8,0.2,0.8,0.2,0.8,,,0.5316,,0.6,0.4,0.2,0.8,0.2,0.8,0.4,0.6,1,0
,,6672d9dfb3878b6f6c5fa763,66fc9871dd51ea4de981dbf1,2024-10-02_02h51.11.589,mdp,2024.2.1,Win32,59.88023952,66fa4ebf79326e780c390304,,,,,,,,,,,,,,,,,,,,,1369.005,1369.0051,1369.0075,1369.5376,1,1,right,0.0072,,1369.5405,1370.08,1,1,right,1370.0832,1370.6538,1,1,right,0,1370.6539,1370.6539,1370.6567,1372.1532,0,2,2,2,1,0.8,0.2,0.2,0.8,,,,,,,,,,,,,,,0.0012,,0.8,0.2,0.2,0.8,0.2,0.8,0.2,0.8,,,0.0417,,0.6,0.4,0.2,0.8,0.2,0.8,0.4,0.6,1,0
,,6672d9dfb3878b6f6c5fa763,66fc9871dd51ea4de981dbf1,2024-10-02_02h51.11.589,mdp,2024.2.1,Win32,59.88023952,66fa4ebf79326e780c390304,,,,,,,,,,,,,,,,,,,,,1372.1548,1372.1548,1372.1573,1372.7538,1,1,right,0.0668,,1372.7567,1373.3379,1,0,right,1373.3413,1373.9539,1,1,right,0,1373.954,1373.954,1373.9571,1375.4533,0,3,3,3,1,0.8,0.2,0.2,0.8,,,,,,,,,,,,,,,0.0591,,0.8,0.2,0.2,0.8,0.2,0.8,0.2,0.8,,,0.0737,,0.6,0.4,0.2,0.8,0.2,0.8,0.4,0.6,1,0
,,6672d9dfb3878b6f6c5fa763,66fc9871dd51ea4de981dbf1,2024-10-02_02h51.11.589,mdp,2024.2.1,Win32,59.88023952,66fa4ebf79326e780c390304,,,,,,,,,,,,,,,,,,,,,1375.4549,1375.4549,1375.4576,1376.1704,1,0,right,0.1842,,1376.1735,1376.8538,1,1,right,1376.8569,1377.5207,1,1,right,0,1377.5208,1377.5208,1377.5236,1379.0213,0,4,4,4,1,0.8,0.2,0.2,0.8,,,,,,,,,,,,,,,0.139,,0.8,0.2,0.2,0.8,0.4,0.6,0.4,0.6,,,0.1245,,0.6,0.4,0.2,0.8,0.2,0.8,0.4,0.6,1,0
,,6672d9dfb3878b6f6c5fa763,66fc9871dd51ea4de981dbf1,2024-10-02_02h51.11.589,mdp,2024.2.1,Win32,59.88023952,66fa4ebf79326e780c390304,,,,,,,,,,,,,,,,,,,,,1379.0229,1379.0229,1379.0249,1379.6545,1,1,right,0.1013,,1379.657,1380.3059,1,1,right,1380.3085,1380.9883,1,1,right,0,1380.9885,1380.9885,1380.9907,1382.488,0,5,5,5,1,0.8,0.2,0.2,0.8,,,,,,,,,,,,,,,0.1131,,0.8,0.2,0.2,0.8,0.4,0.6,0.4,0.6,,,0.1514,,0.6,0.4,0.2,0.8,0.2,0.8,0.4,0.6,1,0
,,6672d9dfb3878b6f6c5fa763,66fc9871dd51ea4de981dbf1,2024-10-02_02h51.11.589,mdp,2024.2.1,Win32,59.88023952,66fa4ebf79326e780c390304,,,,,,,,,,,,,,,,,,,,,1382.489,1382.489,1382.4911,1383.1899,1,1,right,0.1774,,1383.1922,1383.8546,1,1,right,1383.8571,1384.5218,1,0,right,1,1384.5219,1384.5219,1384.524,1386.0217,0,6,6,6,1,0.8,0.2,0.2,0.8,,,,,,,,,,,,,,,0.1367,,0.8,0.2,0.2,0.8,0.4,0.6,0.4,0.6,,,0.1341,,0.6,0.4,0.2,0.8,0.2,0.8,0.4,0.6,1,0
,,6672d9dfb3878b6f6c5fa763,66fc9871dd51ea4de981dbf1,2024-10-02_02h51.11.589,mdp,2024.2.1,Win32,59.88023952,66fa4ebf79326e780c390304,,,,,,,,,,,,,,,,,,,,,1386.0226,1386.0227,1386.0246,1386.6229,1,1,right,0.0771,,1386.6248,1387.3232,1,0,right,1387.3252,1388.0717,1,1,right,0,1388.0718,1388.0719,1388.074,1389.5722,0,7,7,7,1,0.8,0.2,0.2,0.8,,,,,,,,,,,,,,,0.1776,,0.8,0.2,0.2,0.8,0.4,0.6,0.4,0.6,,,0.205,,0.6,0.4,0.2,0.8,0.2,0.8,0.4,0.6,1,0
,,6672d9dfb3878b6f6c5fa763,66fc9871dd51ea4de981dbf1,2024-10-02_02h51.11.589,mdp,2024.2.1,Win32,59.88023952,66fa4ebf79326e780c390304,,,,,,,,,,,,,,,,,,,,,1389.5732,1389.5732,1389.575,1390.2884,1,1,right,0.1844,,1390.2907,1391.039,1,0,right,1391.0411,1391.7052,1,1,right,0,1391.7054,1391.7054,1391.7077,1393.205,0,8,8,8,1,0.8,0.2,0.2,0.8,,,,,,,,,,,,,,,0.2182,,0.8,0.2,0.2,0.8,0.4,0.6,0.4,0.6,,,0.1359,,0.6,0.4,0.2,0.8,0.2,0.8,0.4,0.6,1,0
,,6672d9dfb3878b6f6c5fa763,66fc9871dd51ea4de981dbf1,2024-10-02_02h51.11.589,mdp,2024.2.1,Win32,59.88023952,66fa4ebf79326e780c390304,,,,,,,,,,,,,,,,,,,,,1393.2059,1393.2059,1393.208,1393.9388,1,1,right,0.2008,,1393.9413,1394.6052,1,0,right,1394.6075,1395.2059,1,1,right,0,1395.2061,1395.2061,1395.2083,1396.7039,0,9,9,9,1,0.8,0.2,0.2,0.8,,,,,,,,,,,,,,,0.1344,,0.8,0.2,0.2,0.8,0.4,0.6,0.4,0.6,,,0.0762,,0.6,0.4,0.2,0.8,0.2,0.8,0.4,0.6,1,0
,,6672d9dfb3878b6f6c5fa763,66fc9871dd51ea4de981dbf1,2024-10-02_02h51.11.589,mdp,2024.2.1,Win32,59.88023952,66fa4ebf79326e780c390304,,,,,,,,,,,,,,,,,,,,,1396.7058,1396.7058,1396.7081,1397.3542,1,1,right,0.1195,,1397.3571,1397.9043,1,0,right,1397.9074,1398.4375,1,0,right,1,1398.4377,1398.4377,1398.4408,1399.9374,0,10,10,10,1,0.8,0.2,0.2,0.8,,,,,,,,,,,,,,,0.0175,,0.8,0.2,0.2,0.8,0.4,0.6,0.4,0.6,,,0.0036,,0.6,0.4,0.2,0.8,0.2,0.8,0.4,0.6,1,0
,,6672d9dfb3878b6f6c5fa763,66fc9871dd51ea4de981dbf1,2024-10-02_02h51.11.589,mdp,2024.2.1,Win32,59.88023952,66fa4ebf79326e780c390304,,,,,,,,,,,,,,,,,,,,,1399.9391,1399.9392,1399.9418,1400.6375,1,1,right,0.1688,,1400.6405,1401.3378,1,1,right,1401.3408,1402.1545,1,0,right,1,1402.1546,1402.1546,1402.1575,1403.654,0,11,11,11,1,0.8,0.2,0.2,0.8,,,,,,,,,,,,,,,0.1679,,0.8,0.2,0.2,0.8,0.4,0.6,0.4,0.6,,,0.2743,,0.6,0.4,0.2,0.8,0.2,0.8,0.4,0.6,1,0
,,6672d9dfb3878b6f6c5fa763,66fc9871dd51ea4de981dbf1,2024-10-02_02h51.11.589,mdp,2024.2.1,Win32,59.88023952,66fa4ebf79326e780c390304,,,,,,,,,,,,,,,,,,,,,1403.6559,1403.656,1403.6583,1404.4545,1,1,right,0.2675,,1404.4576,1405.0542,1,1,right,1405.0574,1405.6042,1,1,right,0,1405.6044,1405.6044,1405.6074,1407.1042,0,12,12,12,1,0.8,0.2,0.2,0.8,,,,,,,,,,,,,,,0.0677,,0.8,0.2,0.2,0.8,0.4,0.6,0.4,0.6,,,0.019,,0.6,0.4,0.2,0.8,0.2,0.8,0.4,0.6,1,0
,,6672d9dfb3878b6f6c5fa763,66fc9871dd51ea4de981dbf1,2024-10-02_02h51.11.589,mdp,2024.2.1,Win32,59.88023952,66fa4ebf79326e780c390304,,,,,,,,,,,,,,,,,,,,,1407.1058,1407.1059,1407.1083,1407.7376,1,0,right,0.1052,,1407.7409,1408.3042,1,1,right,1408.3073,1408.921,1,0,right,1,1408.9213,1408.9213,1408.9244,1410.4208,0,13,13,13,1,0.8,0.2,0.2,0.8,,,,,,,,,,,,,,,0.024,,0.8,0.2,0.2,0.8,0.4,0.6,0.4,0.6,,,0.0843,,0.2,0.8,0.8,0.2,0.2,0.8,0.4,0.6,1,0
,,6672d9dfb3878b6f6c5fa763,66fc9871dd51ea4de981dbf1,2024-10-02_02h51.11.589,mdp,2024.2.1,Win32,59.88023952,66fa4ebf79326e780c390304,,,,,,,,,,,,,,,,,,,,,1410.4216,1410.4217,1410.4247,1410.9896,1,1,right,0.0429,,1410.9925,1411.6377,1,0,right,1411.6411,1412.2548,1,0,right,1,1412.2548,1412.2549,1412.2577,1413.7541,0,14,14,14,1,0.8,0.2,0.2,0.8,,,,,,,,,,,,,,,0.1063,,0.8,0.2,0.2,0.8,0.4,0.6,0.4,0.6,,,0.0728,,0.2,0.8,0.8,0.2,0.2,0.8,0.4,0.6,1,0
,,6672d9dfb3878b6f6c5fa763,66fc9871dd51ea4de981dbf1,2024-10-02_02h51.11.589,mdp,2024.2.1,Win32,59.88023952,66fa4ebf79326e780c390304,,,,,,,,,,,,,,,,,,,,,1413.7558,1413.7559,1413.7583,1414.3211,1,1,right,0.0428,,1414.3245,1414.9544,1,0,right,1414.9576,1415.5712,1,0,right,1,1415.5715,1415.5715,1415.5745,1417.0717,0,15,15,15,1,0.8,0.2,0.2,0.8,,,,,,,,,,,,,,,0.1011,,0.8,0.2,0.2,0.8,0.4,0.6,0.4,0.6,,,0.0844,,0.2,0.8,0.8,0.2,0.2,0.8,0.4,0.6,1,0
,,6672d9dfb3878b6f6c5fa763,66fc9871dd51ea4de981dbf1,2024-10-02_02h51.11.589,mdp,2024.2.1,Win32,59.88023952,66fa4ebf79326e780c390304,,,,,,,,,,,,,,,,,,,,,1417.0735,1417.0735,1417.0763,1417.7546,1,1,right,0.1538,,1417.7577,1418.3882,1,1,right,1418.3913,1419.1213,1,0,right,1,1419.1216,1419.1216,1419.1246,1420.6212,0,16,16,16,1,0.8,0.2,0.2,0.8,,,,,,,,,,,,,,,0.106,,0.8,0.2,0.2,0.8,0.4,0.6,0.4,0.6,,,0.2074,,0.2,0.8,0.8,0.2,0.2,0.8,0.4,0.6,1,0
,,6672d9dfb3878b6f6c5fa763,66fc9871dd51ea4de981dbf1,2024-10-02_02h51.11.589,mdp,2024.2.1,Win32,59.88023952,66fa4ebf79326e780c390304,,,,,,,,,,,,,,,,,,,,,1420.6228,1420.6229,1420.6255,1421.3548,1,0,right,0.2006,,1421.3581,1421.9716,1,1,right,1421.9746,1422.6213,1,0,right,1,1422.6217,1422.6217,1422.6247,1424.1211,0,17,17,17,1,0.6,0.4,0.6,0.4,,,,,,,,,,,,,,,0.0743,,0.8,0.2,0.2,0.8,0.4,0.6,0.4,0.6,,,0.1174,,0.2,0.8,0.8,0.2,0.2,0.8,0.4,0.6,1,0
,,6672d9dfb3878b6f6c5fa763,66fc9871dd51ea4de981dbf1,2024-10-02_02h51.11.589,mdp,2024.2.1,Win32,59.88023952,66fa4ebf79326e780c390304,,,,,,,,,,,,,,,,,,,,,1424.1229,1424.1229,1424.1254,1424.7047,1,0,right,0.0513,,1424.708,1425.3715,1,1,right,1425.3748,1426.0383,1,1,right,0,1426.0385,1426.0385,1426.0416,1427.5382,0,18,18,18,1,0.6,0.4,0.6,0.4,,,,,,,,,,,,,,,0.135,,0.8,0.2,0.2,0.8,0.4,0.6,0.4,0.6,,,0.1342,,0.2,0.8,0.8,0.2,0.2,0.8,0.4,0.6,1,0
,,6672d9dfb3878b6f6c5fa763,66fc9871dd51ea4de981dbf1,2024-10-02_02h51.11.589,mdp,2024.2.1,Win32,59.88023952,66fa4ebf79326e780c390304,,,,,,,,,,,,,,,,,,,,,1427.5398,1427.5398,1427.5424,1428.1883,1,0,right,0.118,,1428.1916,1428.8714,1,0,right,1428.8748,1429.5384,1,0,right,1,1429.5386,1429.5386,1429.5416,1431.0383,0,19,19,19,1,0.6,0.4,0.6,0.4,,,,,,,,,,,,,,,0.1513,,0.8,0.2,0.2,0.8,0.4,0.6,0.4,0.6,,,0.1242,,0.2,0.8,0.8,0.2,0.2,0.8,0.4,0.6,1,0
,,6672d9dfb3878b6f6c5fa763,66fc9871dd51ea4de981dbf1,2024-10-02_02h51.11.589,mdp,2024.2.1,Win32,59.88023952,66fa4ebf79326e780c390304,,,,,,,,,,,,,,,,,,,,,1431.0398,1431.0399,1431.0424,1431.6387,1,1,right,0.0678,,1431.6421,1432.3552,1,0,right,1432.3584,1432.9888,1,0,right,1,1432.9889,1432.9889,1432.9918,1434.4884,0,20,20,20,1,0.6,0.4,0.6,0.4,,,,,,,,,,,,,,,0.1748,,0.8,0.2,0.2,0.8,0.4,0.6,0.4,0.6,,,0.1017,,0.2,0.8,0.8,0.2,0.2,0.8,0.4,0.6,1,0
,,6672d9dfb3878b6f6c5fa763,66fc9871dd51ea4de981dbf1,2024-10-02_02h51.11.589,mdp,2024.2.1,Win32,59.88023952,66fa4ebf79326e780c390304,,,,,,,,,,,,,,,,,,,,,1434.4896,1434.4897,1434.4926,1435.2221,1,0,right,0.2007,,1435.2252,1435.9555,1,1,right,1435.9584,1436.6551,1,0,right,1,1436.6553,1436.6553,1436.658,1438.1551,0,21,21,21,1,0.6,0.4,0.6,0.4,,,,,,,,,,,,,,,0.1913,,0.8,0.2,0.2,0.8,0.6,0.4,0.2,0.8,,,0.1563,,0.2,0.8,0.8,0.2,0.2,0.8,0.4,0.6,1,0
,,6672d9dfb3878b6f6c5fa763,66fc9871dd51ea4de981dbf1,2024-10-02_02h51.11.589,mdp,2024.2.1,Win32,59.88023952,66fa4ebf79326e780c390304,,,,,,,,,,,,,,,,,,,,,1438.1569,1438.1569,1438.1592,1438.7719,1,0,right,0.084,,1438.775,1439.7232,1,1,right,1439.7262,1440.2719,1,1,right,0,1440.2723,1440.2724,1440.2752,1441.7718,0,22,22,22,1,0.6,0.4,0.6,0.4,,,,,,,,,,,,,,,0.425,,0.8,0.2,0.2,0.8,0.6,0.4,0.2,0.8,,,0.0178,,0.2,0.8,0.8,0.2,0.8,0.2,0.2,0.8,1,0
,,6672d9dfb3878b6f6c5fa763,66fc9871dd51ea4de981dbf1,2024-10-02_02h51.11.589,mdp,2024.2.1,Win32,59.88023952,66fa4ebf79326e780c390304,,,,,,,,,,,,,,,,,,,,,1441.7734,1441.7735,1441.7761,1442.4057,1,0,right,0.1012,,1442.4086,1443.1224,1,1,right,1443.1253,1443.8553,1,1,right,0,1443.8557,1443.8557,1443.8587,1445.3553,0,23,23,23,1,0.6,0.4,0.6,0.4,,,,,,,,,,,,,,,0.1844,,0.6,0.4,0.6,0.4,0.6,0.4,0.2,0.8,,,0.2015,,0.2,0.8,0.8,0.2,0.8,0.2,0.2,0.8,1,0
,,6672d9dfb3878b6f6c5fa763,66fc9871dd51ea4de981dbf1,2024-10-02_02h51.11.589,mdp,2024.2.1,Win32,59.88023952,66fa4ebf79326e780c390304,,,,,,,,,,,,,,,,,,,,,1445.3569,1445.357,1445.3596,1446.0555,1,1,right,0.1683,,1446.0587,1446.6219,1,1,right,1446.625,1447.1553,1,1,right,0,1447.1556,1447.1556,1447.1586,1448.6434,0,24,24,24,1,0.6,0.4,0.6,0.4,,,,,,,,,,,,,,,0.0247,,0.6,0.4,0.6,0.4,0.6,0.4,0.2,0.8,,,0.0009,,0.2,0.8,0.8,0.2,0.8,0.2,0.2,0.8,1,0
,,6672d9dfb3878b6f6c5fa763,66fc9871dd51ea4de981dbf1,2024-10-02_02h51.11.589,mdp,2024.2.1,Win32,59.88023952,66fa4ebf79326e780c390304,,,,,,,,,,,,,,,,,,,,,1448.6451,1448.6451,1448.648,1449.2721,1,0,right,0.1009,,1449.2756,1449.8892,1,0,right,1449.8924,1450.4277,1,0,right,1,1450.4278,1450.4278,1450.4309,1451.9219,0,25,25,25,1,0.6,0.4,0.6,0.4,,,,,,,,,,,,,,,0.0744,,0.6,0.4,0.6,0.4,0.6,0.4,0.2,0.8,,,0.0008,,0.2,0.8,0.8,0.2,0.8,0.2,0.2,0.8,1,0
,,6672d9dfb3878b6f6c5fa763,66fc9871dd51ea4de981dbf1,2024-10-02_02h51.11.589,mdp,2024.2.1,Win32,59.88023952,66fa4ebf79326e780c390304,,,,,,,,,,,,,,,,,,,,,1451.9238,1451.9239,1451.9264,1452.6889,1,0,right,0.2343,,1452.6919,1453.3223,1,1,right,1453.3255,1454.0394,1,1,right,0,1454.0396,1454.0396,1454.0423,1455.5389,0,26,26,26,1,0.6,0.4,0.6,0.4,,,,,,,,,,,,,,,0.1047,,0.6,0.4,0.6,0.4,0.6,0.4,0.2,0.8,,,0.1755,,0.2,0.8,0.8,0.2,0.8,0.2,0.2,0.8,1,0
,,6672d9dfb3878b6f6c5fa763,66fc9871dd51ea4de981dbf1,2024-10-02_02h51.11.589,mdp,2024.2.1,Win32,59.88023952,66fa4ebf79326e780c390304,,,,,,,,,,,,,,,,,,,,,1455.5405,1455.5405,1455.5432,1456.2069,1,0,right,0.1422,,1456.2099,1456.7724,1,0,right,1456.7756,1457.406,1,1,right,0,1457.4062,1457.4062,1457.4091,1458.9053,0,27,27,27,1,0.6,0.4,0.6,0.4,,,,,,,,,,,,,,,0.0366,,0.6,0.4,0.6,0.4,0.6,0.4,0.2,0.8,,,0.0912,,0.2,0.8,0.8,0.2,0.8,0.2,0.2,0.8,1,0
,,6672d9dfb3878b6f6c5fa763,66fc9871dd51ea4de981dbf1,2024-10-02_02h51.11.589,mdp,2024.2.1,Win32,59.88023952,66fa4ebf79326e780c390304,,,,,,,,,,,,,,,,,,,,,1458.9072,1458.9072,1458.9096,1459.6223,1,0,right,0.1879,,1459.6253,1460.3064,1,1,right,1460.3095,1461.0391,1,0,right,1,1461.0394,1461.0395,1461.0427,1462.539,0,28,28,28,1,0.6,0.4,0.6,0.4,,,,,,,,,,,,,,,0.1539,,0.6,0.4,0.6,0.4,0.6,0.4,0.2,0.8,,,0.1907,,0.2,0.8,0.8,0.2,0.8,0.2,0.2,0.8,1,0
,,6672d9dfb3878b6f6c5fa763,66fc9871dd51ea4de981dbf1,2024-10-02_02h51.11.589,mdp,2024.2.1,Win32,59.88023952,66fa4ebf79326e780c390304,,,,,,,,,,,,,,,,,,,,,1462.5407,1462.5407,1462.5433,1463.1891,1,0,right,0.1193,,1463.1922,1463.8058,1,0,right,1463.809,1464.4063,1,0,right,1,1464.4063,1464.4064,1464.4092,1465.9069,0,29,29,29,1,0.6,0.4,0.6,0.4,,,,,,,,,,,,,,,0.0843,,0.6,0.4,0.6,0.4,0.6,0.4,0.2,0.8,,,0.0575,,0.2,0.8,0.8,0.2,0.8,0.2,0.2,0.8,1,0
,,6672d9dfb3878b6f6c5fa763,66fc9871dd51ea4de981dbf1,2024-10-02_02h51.11.589,mdp,2024.2.1,Win32,59.88023952,66fa4ebf79326e780c390304,,,,,,,,,,,,,,,,,,,,,1465.9089,1465.909,1465.9116,1466.6228,1,0,right,0.1845,,1466.626,1467.2893,1,1,right,1467.2925,1467.9895,1,1,right,0,1467.9897,1467.9897,1467.9928,1469.4896,0,30,30,30,1,0.6,0.4,0.6,0.4,,,,,,,,,,,,,,,0.1345,,0.6,0.4,0.6,0.4,0.6,0.4,0.2,0.8,,,0.1576,,0.2,0.8,0.8,0.2,0.8,0.2,0.2,0.8,1,0
,,6672d9dfb3878b6f6c5fa763,66fc9871dd51ea4de981dbf1,2024-10-02_02h51.11.589,mdp,2024.2.1,Win32,59.88023952,66fa4ebf79326e780c390304,,,,,,,,,,,,,,,,,,,,,1469.4913,1469.4913,1469.4936,1470.106,1,1,right,0.0844,,1470.1094,1470.7728,1,1,right,1470.7761,1471.3896,1,1,right,0,1471.3897,1471.3897,1471.3929,1472.8893,0,31,31,31,1,0.6,0.4,0.6,0.4,,,,,,,,,,,,,,,0.1234,,0.6,0.4,0.6,0.4,0.6,0.4,0.2,0.8,,,0.0845,,0.2,0.8,0.8,0.2,0.8,0.2,0.2,0.8,1,0
,,6672d9dfb3878b6f6c5fa763,66fc9871dd51ea4de981dbf1,2024-10-02_02h51.11.589,mdp,2024.2.1,Win32,59.88023952,66fa4ebf79326e780c390304,,,,,,,,,,,,,,,,,,,,,1472.8908,1472.8909,1472.8934,1473.5065,1,1,right,0.0887,,1473.5094,1474.0564,1,0,right,1474.0594,1474.6561,1,0,right,1,1474.6564,1474.6564,1474.6594,1476.1561,0,32,32,32,1,0.6,0.4,0.6,0.4,,,,,,,,,,,,,,,0.0176,,0.6,0.4,0.6,0.4,0.6,0.4,0.2,0.8,,,0.0622,,0.2,0.8,0.8,0.2,0.8,0.2,0.2,0.8,1,0
,,6672d9dfb3878b6f6c5fa763,66fc9871dd51ea4de981dbf1,2024-10-02_02h51.11.589,mdp,2024.2.1,Win32,59.88023952,66fa4ebf79326e780c390304,,,,,,,,,,,,,,,,,,,,,1476.1577,1476.1578,1476.1603,1476.8899,1,1,right,0.2002,,1476.893,1477.5232,1,1,right,1477.5269,1478.1229,1,1,right,0,1478.1231,1478.1231,1478.1261,1479.6226,0,33,33,33,1,0.6,0.4,0.6,0.4,,,,,,,,,,,,,,,0.1061,,0.6,0.4,0.6,0.4,0.6,0.4,0.2,0.8,,,0.0569,,0.2,0.8,0.8,0.2,0.8,0.2,0.2,0.8,1,0
,,6672d9dfb3878b6f6c5fa763,66fc9871dd51ea4de981dbf1,2024-10-02_02h51.11.589,mdp,2024.2.1,Win32,59.88023952,66fa4ebf79326e780c390304,,,,,,,,,,,,,,,,,,,,,1479.6246,1479.6246,1479.6274,1480.2729,1,0,right,0.1176,,1480.2759,1480.923,1,1,right,1480.9261,1481.6563,1,0,right,1,1481.6566,1481.6566,1481.6597,1483.1566,0,34,34,34,1,0.6,0.4,0.6,0.4,,,,,,,,,,,,,,,0.1067,,0.6,0.4,0.6,0.4,0.6,0.4,0.2,0.8,,,0.1998,,0.2,0.8,0.8,0.2,0.8,0.2,0.2,0.8,1,0
,,6672d9dfb3878b6f6c5fa763,66fc9871dd51ea4de981dbf1,2024-10-02_02h51.11.589,mdp,2024.2.1,Win32,59.88023952,66fa4ebf79326e780c390304,,,,,,,,,,,,,,,,,,,,,1483.1579,1483.158,1483.1609,1483.8731,1,0,right,0.1847,,1483.8765,1484.507,1,0,right,1484.5103,1485.1732,1,0,right,1,1485.1735,1485.1735,1485.1765,1486.6728,0,35,35,35,1,0.6,0.4,0.6,0.4,,,,,,,,,,,,,,,0.1084,,0.6,0.4,0.6,0.4,0.6,0.4,0.2,0.8,,,0.1241,,0.2,0.8,0.8,0.2,0.8,0.2,0.2,0.8,1,0
,,6672d9dfb3878b6f6c5fa763,66fc9871dd51ea4de981dbf1,2024-10-02_02h51.11.589,mdp,2024.2.1,Win32,59.88023952,66fa4ebf79326e780c390304,,,,,,,,,,,,,,,,,,,,,1486.6749,1486.6749,1486.6774,1487.4398,1,1,right,0.2356,,1487.4432,1488.1067,1,0,right,1488.1099,1488.8065,1,1,right,0,1488.8067,1488.8068,1488.8098,1490.3064,0,36,36,36,1,0.6,0.4,0.6,0.4,,,,,,,,,,,,,,,0.1223,,0.6,0.4,0.6,0.4,0.6,0.4,0.2,0.8,,,0.1881,,0.2,0.8,0.8,0.2,0.8,0.2,0.2,0.8,1,0
,,6672d9dfb3878b6f6c5fa763,66fc9871dd51ea4de981dbf1,2024-10-02_02h51.11.589,mdp,2024.2.1,Win32,59.88023952,66fa4ebf79326e780c390304,,,,,,,,,,,,,,,,,,,,,1490.308,1490.308,1490.3105,1490.8902,1,1,right,0.051,,1490.8932,1491.6571,1,0,right,1491.6599,1492.6067,1,1,right,0,1492.6069,1492.6069,1492.61,1494.1064,0,37,37,37,1,0.6,0.4,0.6,0.4,,,,,,,,,,,,,,,0.2394,,0.6,0.4,0.6,0.4,0.6,0.4,0.2,0.8,,,0.4221,,0.2,0.8,0.8,0.2,0.8,0.2,0.2,0.8,1,0
,,6672d9dfb3878b6f6c5fa763,66fc9871dd51ea4de981dbf1,2024-10-02_02h51.11.589,mdp,2024.2.1,Win32,59.88023952,66fa4ebf79326e780c390304,,,,,,,,,,,,,,,,,,,,,1494.1083,1494.1083,1494.1107,1494.9572,1,0,right,0.3174,,1494.9602,1495.8571,1,0,right,1495.86,1496.4234,1,0,right,1,1496.4238,1496.4239,1496.427,1497.9233,0,38,38,38,1,0.6,0.4,0.6,0.4,,,,,,,,,,,,,,,0.3577,,0.6,0.4,0.6,0.4,0.6,0.4,0.2,0.8,,,0.0343,,0.2,0.8,0.8,0.2,0.8,0.2,0.2,0.8,1,0
,,6672d9dfb3878b6f6c5fa763,66fc9871dd51ea4de981dbf1,2024-10-02_02h51.11.589,mdp,2024.2.1,Win32,59.88023952,66fa4ebf79326e780c390304,,,,,,,,,,,,,,,,,,,,,1497.9251,1497.9252,1497.9274,1498.6739,1,0,right,0.2176,,1498.6768,1499.4265,1,0,right,1499.4285,1499.9902,1,0,right,1,1499.9906,1499.9906,1499.9936,1501.4902,0,39,39,39,1,0.6,0.4,0.6,0.4,,,,,,,,,,,,,,,0.2266,,0.6,0.4,0.6,0.4,0.6,0.4,0.2,0.8,,,0.0387,,0.2,0.8,0.8,0.2,0.8,0.2,0.2,0.8,1,0
,,6672d9dfb3878b6f6c5fa763,66fc9871dd51ea4de981dbf1,2024-10-02_02h51.11.589,mdp,2024.2.1,Win32,59.88023952,66fa4ebf79326e780c390304,,,,,,,,,,,,,,,,,,,,,1501.4919,1501.4919,1501.4942,1502.2574,1,0,right,0.2343,,1502.2608,1502.8074,1,0,right,1502.8107,1503.3584,1,0,right,1,1503.3586,1503.3586,1503.3613,1504.857,0,40,40,40,1,0.6,0.4,0.6,0.4,,,,,,,,,,,,,,,0.0235,,0.6,0.4,0.6,0.4,0.6,0.4,0.2,0.8,,,0.0255,,0.2,0.8,0.8,0.2,0.8,0.2,0.2,0.8,1,0
,,6672d9dfb3878b6f6c5fa763,66fc9871dd51ea4de981dbf1,2024-10-02_02h51.11.589,mdp,2024.2.1,Win32,59.88023952,66fa4ebf79326e780c390304,,,,,,,,,,,,,,,,,,,,,1504.8587,1504.8587,1504.8613,1505.4405,1,0,right,0.0509,,1505.4438,1505.974,1,0,right,1505.9769,1506.5405,1,1,right,0,1506.5407,1506.5408,1506.5438,1508.0404,0,41,41,41,1,0.6,0.4,0.6,0.4,,,,,,,,,,,,,,,0.0033,,0.6,0.4,0.6,0.4,0.6,0.4,0.2,0.8,,,0.0344,,0.2,0.8,0.8,0.2,0.8,0.2,0.2,0.8,1,0
,,6672d9dfb3878b6f6c5fa763,66fc9871dd51ea4de981dbf1,2024-10-02_02h51.11.589,mdp,2024.2.1,Win32,59.88023952,66fa4ebf79326e780c390304,,,,,,,,,,,,,,,,,,,,,1508.0419,1508.0421,1508.0446,1508.6925,1,1,right,0.1257,,1508.6949,1509.4072,1,1,right,1509.4105,1510.1573,1,1,right,0,1510.1576,1510.1576,1510.1606,1511.6573,0,42,42,42,1,0.6,0.4,0.6,0.4,,,,,,,,,,,,,,,0.1745,,0.6,0.4,0.6,0.4,0.6,0.4,0.2,0.8,,,0.2125,,0.2,0.8,0.8,0.2,0.8,0.2,0.2,0.8,1,0
,,6672d9dfb3878b6f6c5fa763,66fc9871dd51ea4de981dbf1,2024-10-02_02h51.11.589,mdp,2024.2.1,Win32,59.88023952,66fa4ebf79326e780c390304,,,,,,,,,,,,,,,,,,,,,1511.659,1511.659,1511.6614,1512.3575,1,0,right,0.1724,,1512.3606,1513.1071,1,0,right,1513.1103,1513.8239,1,0,right,1,1513.8242,1513.8242,1513.8271,1515.3239,0,43,43,43,1,0.6,0.4,0.6,0.4,,,,,,,,,,,,,,,0.2069,,0.6,0.4,0.6,0.4,0.6,0.4,0.2,0.8,,,0.1731,,0.2,0.8,0.8,0.2,0.8,0.2,0.2,0.8,1,0
,,6672d9dfb3878b6f6c5fa763,66fc9871dd51ea4de981dbf1,2024-10-02_02h51.11.589,mdp,2024.2.1,Win32,59.88023952,66fa4ebf79326e780c390304,,,,,,,,,,,,,,,,,,,,,1515.3254,1515.3255,1515.3278,1515.9574,1,1,right,0.1007,,1515.9607,1516.5578,1,1,right,1516.5607,1517.1409,1,1,right,0,1517.141,1517.141,1517.1441,1518.6404,0,44,44,44,1,0.6,0.4,0.6,0.4,,,,,,,,,,,,,,,0.0567,,0.6,0.4,0.6,0.4,0.6,0.4,0.2,0.8,,,0.041,,0.2,0.8,0.8,0.2,0.8,0.2,0.2,0.8,1,0
,,6672d9dfb3878b6f6c5fa763,66fc9871dd51ea4de981dbf1,2024-10-02_02h51.11.589,mdp,2024.2.1,Win32,59.88023952,66fa4ebf79326e780c390304,,,,,,,,,,,,,,,,,,,,,1518.6421,1518.6422,1518.6447,1519.1744,1,0,right,0.0012,,1519.1795,1519.8575,1,1,right,1519.8609,1520.5245,1,0,right,1,1520.5245,1520.5246,1520.5276,1522.0238,0,45,45,45,1,0.6,0.4,0.6,0.4,,,,,,,,,,,,,,,0.1411,,0.6,0.4,0.6,0.4,0.6,0.4,0.2,0.8,,,0.1405,,0.2,0.8,0.8,0.2,0.8,0.2,0.2,0.8,1,0
,,6672d9dfb3878b6f6c5fa763,66fc9871dd51ea4de981dbf1,2024-10-02_02h51.11.589,mdp,2024.2.1,Win32,59.88023952,66fa4ebf79326e780c390304,,,,,,,,,,,,,,,,,,,,,1522.0258,1522.0258,1522.0283,1522.7241,1,1,right,0.1676,,1522.7272,1523.4408,1,1,right,1523.4441,1523.9911,1,1,right,0,1523.9912,1523.9912,1523.9944,1525.4908,0,46,46,46,1,0.6,0.4,0.6,0.4,,,,,,,,,,,,,,,0.1762,,0.6,0.4,0.6,0.4,0.6,0.4,0.2,0.8,,,0.0206,,0.2,0.8,0.8,0.2,0.8,0.2,0.2,0.8,1,0
,,6672d9dfb3878b6f6c5fa763,66fc9871dd51ea4de981dbf1,2024-10-02_02h51.11.589,mdp,2024.2.1,Win32,59.88023952,66fa4ebf79326e780c390304,,,,,,,,,,,,,,,,,,,,,1525.4927,1525.4927,1525.4951,1526.2742,1,1,right,0.2526,,1526.2773,1526.8076,1,1,right,1526.8108,1527.3409,1,0,right,1,1527.3412,1527.3412,1527.3441,1528.8406,0,47,47,47,1,0.6,0.4,0.6,0.4,,,,,,,,,,,,,,,0.0007,,0.6,0.4,0.6,0.4,0.6,0.4,0.2,0.8,,,0.0006,,0.2,0.8,0.8,0.2,0.8,0.2,0.2,0.8,1,0
,,6672d9dfb3878b6f6c5fa763,66fc9871dd51ea4de981dbf1,2024-10-02_02h51.11.589,mdp,2024.2.1,Win32,59.88023952,66fa4ebf79326e780c390304,,,,,,,,,,,,,,,,,,,,,1528.8424,1528.8425,1528.845,1529.5758,1,0,right,0.2085,,1529.5787,1530.112,1,1,right,1530.1152,1530.8743,1,1,right,0,1530.8744,1530.8745,1530.8775,1532.3743,0,48,48,48,1,0.6,0.4,0.6,0.4,,,,,,,,,,,,,,,0.0009,,0.6,0.4,0.6,0.4,0.6,0.4,0.2,0.8,,,0.2392,,0.2,0.8,0.8,0.2,0.8,0.2,0.2,0.8,1,0
,,6672d9dfb3878b6f6c5fa763,66fc9871dd51ea4de981dbf1,2024-10-02_02h51.11.589,mdp,2024.2.1,Win32,59.88023952,66fa4ebf79326e780c390304,,,,,,,,,,,,,,,,,,,,,1532.3758,1532.3758,1532.3784,1533.4081,1,1,right,0.5013,,1533.4112,1534.258,1,1,right,1534.261,1534.9745,1,0,right,1,1534.9748,1534.9748,1534.9777,1536.4741,0,49,49,49,1,0.8,0.2,0.4,0.6,,,,,,,,,,,,,,,0.3068,,0.6,0.4,0.6,0.4,0.6,0.4,0.2,0.8,,,0.1845,,0.2,0.8,0.8,0.2,0.8,0.2,0.2,0.8,1,0
,,6672d9dfb3878b6f6c5fa763,66fc9871dd51ea4de981dbf1,2024-10-02_02h51.11.589,mdp,2024.2.1,Win32,59.88023952,66fa4ebf79326e780c390304,,,,,,,,,,,,,,,,,,,,,,,,,,,,,,,,,,,,,,,,,,,,,,,,,,,,,,,,1536.4749,1594.9761,0,3,3,7,1,imgs/goat.png,imgs/cat.png,imgs/elephant.png,imgs/dog.png,imgs/kangaroo.png,,,,,,,,,,,,,,,,,,,,,,,,
,,6672d9dfb3878b6f6c5fa763,66fc9871dd51ea4de981dbf1,2024-10-02_02h51.11.589,mdp,2024.2.1,Win32,59.88023952,66fa4ebf79326e780c390304,,,,,,,,,,,,,,1,seqs/st1seq30.csv,1594.9795,1601.5599,space,6.051,,1601.5704,1601.5704,1601.5723,1602.2097,1,0,right,0.111,,1602.2133,1602.2146,1,1,,1602.2161,1602.2174,1,1,,1,1602.2174,1602.2175,1602.2187,1603.7097,0,0,0,0,1,0.6,0.4,0.4,0.6,1,0,,,,,,,,,,,,,,,,,,,,,,,,,,,,,,,,,,,,
,,6672d9dfb3878b6f6c5fa763,66fc9871dd51ea4de981dbf1,2024-10-02_02h51.11.589,mdp,2024.2.1,Win32,59.88023952,66fa4ebf79326e780c390304,,,,,,,,,,,,,,,,,,,,,1603.7115,1603.7116,1603.7138,1604.3458,1,0,right,0.1099,,1604.348,1604.3491,1,0,,1604.3507,1604.3521,1,1,,1,1604.3521,1604.3522,1604.3537,1605.8428,0,1,1,1,1,0.6,0.4,0.4,0.6,1,0,,,,,,,,,,,,,,,,,,,,,,,,,,,,,,,,,,,,
,,6672d9dfb3878b6f6c5fa763,66fc9871dd51ea4de981dbf1,2024-10-02_02h51.11.589,mdp,2024.2.1,Win32,59.88023952,66fa4ebf79326e780c390304,,,,,,,,,,,,,,,,,,,,,1605.8444,1605.8446,1605.847,1606.4098,1,1,right,0.0346,,1606.4132,1606.4146,1,0,,1606.4161,1606.4173,1,0,,0,1606.4173,1606.4174,1606.4187,1607.9095,0,2,2,2,1,0.8,0.2,0.6,0.4,1,0,,,,,,,,,,,,,,,,,,,,,,,,,,,,,,,,,,,,
,,6672d9dfb3878b6f6c5fa763,66fc9871dd51ea4de981dbf1,2024-10-02_02h51.11.589,mdp,2024.2.1,Win32,59.88023952,66fa4ebf79326e780c390304,,,,,,,,,,,,,,,,,,,,,1607.9111,1607.9111,1607.9138,1608.6432,1,1,right,0.201,,1608.6463,1608.6477,1,1,,1608.6492,1608.6504,1,1,,0,1608.6505,1608.6505,1608.6519,1610.1431,0,3,3,3,1,0.8,0.2,0.6,0.4,1,0,,,,,,,,,,,,,,,,,,,,,,,,,,,,,,,,,,,,
,,6672d9dfb3878b6f6c5fa763,66fc9871dd51ea4de981dbf1,2024-10-02_02h51.11.589,mdp,2024.2.1,Win32,59.88023952,66fa4ebf79326e780c390304,,,,,,,,,,,,,,,,,,,,,1610.1446,1610.1447,1610.1472,1610.6933,1,0,right,0.0184,,1610.6964,1610.6977,1,0,,1610.6993,1610.7005,1,1,,1,1610.7006,1610.7006,1610.7019,1612.1929,0,4,4,4,1,0.8,0.2,0.6,0.4,1,0,,,,,,,,,,,,,,,,,,,,,,,,,,,,,,,,,,,,
,,6672d9dfb3878b6f6c5fa763,66fc9871dd51ea4de981dbf1,2024-10-02_02h51.11.589,mdp,2024.2.1,Win32,59.88023952,66fa4ebf79326e780c390304,,,,,,,,,,,,,,,,,,,,,1612.1944,1612.1945,1612.1972,1612.8766,1,0,right,0.1508,,1612.8798,1612.8813,1,1,,1612.8829,1612.8842,1,0,,1,1612.8842,1612.8843,1612.8855,1614.3769,0,5,5,5,1,0.8,0.2,0.6,0.4,1,0,,,,,,,,,,,,,,,,,,,,,,,,,,,,,,,,,,,,
,,6672d9dfb3878b6f6c5fa763,66fc9871dd51ea4de981dbf1,2024-10-02_02h51.11.589,mdp,2024.2.1,Win32,59.88023952,66fa4ebf79326e780c390304,,,,,,,,,,,,,,,,,,,,,1614.3783,1614.3784,1614.3807,1615.0274,1,0,right,0.1201,,1615.0299,1615.0314,1,1,,1615.0329,1615.0341,1,0,,1,1615.0341,1615.0341,1615.0353,1616.5267,0,6,6,6,1,0.8,0.2,0.6,0.4,1,0,,,,,,,,,,,,,,,,,,,,,,,,,,,,,,,,,,,,
,,6672d9dfb3878b6f6c5fa763,66fc9871dd51ea4de981dbf1,2024-10-02_02h51.11.589,mdp,2024.2.1,Win32,59.88023952,66fa4ebf79326e780c390304,,,,,,,,,,,,,,,,,,,,,1616.5281,1616.5281,1616.5306,1617.26,1,0,right,0.2009,,1617.2633,1617.2647,1,0,,1617.2662,1617.2674,1,0,,1,1617.2675,1617.2675,1617.2687,1618.7603,0,7,7,7,1,0.8,0.2,0.6,0.4,1,0,,,,,,,,,,,,,,,,,,,,,,,,,,,,,,,,,,,,
,,6672d9dfb3878b6f6c5fa763,66fc9871dd51ea4de981dbf1,2024-10-02_02h51.11.589,mdp,2024.2.1,Win32,59.88023952,66fa4ebf79326e780c390304,,,,,,,,,,,,,,,,,,,,,1618.7619,1618.762,1618.7645,1619.4269,1,0,right,0.1345,,1619.43,1619.4314,1,0,,1619.433,1619.4341,1,1,,1,1619.4342,1619.4343,1619.4355,1620.9264,0,8,8,8,1,0.8,0.2,0.6,0.4,1,0,,,,,,,,,,,,,,,,,,,,,,,,,,,,,,,,,,,,
,,6672d9dfb3878b6f6c5fa763,66fc9871dd51ea4de981dbf1,2024-10-02_02h51.11.589,mdp,2024.2.1,Win32,59.88023952,66fa4ebf79326e780c390304,,,,,,,,,,,,,,,,,,,,,1620.9278,1620.9278,1620.9307,1621.4953,1,0,right,0.0428,,1621.4982,1621.4993,1,0,,1621.5009,1621.5031,1,0,,1,1621.5032,1621.5033,1621.5053,1622.9938,0,9,9,9,1,0.8,0.2,0.6,0.4,1,0,,,,,,,,,,,,,,,,,,,,,,,,,,,,,,,,,,,,
,,6672d9dfb3878b6f6c5fa763,66fc9871dd51ea4de981dbf1,2024-10-02_02h51.11.589,mdp,2024.2.1,Win32,59.88023952,66fa4ebf79326e780c390304,,,,,,,,,,,,,,,,,,,,,1622.9955,1622.9955,1622.9978,1623.7272,1,1,right,0.2008,,1623.7305,1623.7319,1,1,,1623.7334,1623.7348,1,0,,0,1623.7349,1623.7349,1623.7366,1625.227,0,10,10,10,1,0.8,0.2,0.6,0.4,1,0,,,,,,,,,,,,,,,,,,,,,,,,,,,,,,,,,,,,
,,6672d9dfb3878b6f6c5fa763,66fc9871dd51ea4de981dbf1,2024-10-02_02h51.11.589,mdp,2024.2.1,Win32,59.88023952,66fa4ebf79326e780c390304,,,,,,,,,,,,,,,,,,,,,1625.2287,1625.2288,1625.2317,1625.7607,1,1,right,0.0009,,1625.7638,1625.7652,1,0,,1625.7666,1625.7678,1,1,,0,1625.7679,1625.7679,1625.7692,1627.2602,0,11,11,11,1,0.8,0.2,0.6,0.4,1,0,,,,,,,,,,,,,,,,,,,,,,,,,,,,,,,,,,,,
,,6672d9dfb3878b6f6c5fa763,66fc9871dd51ea4de981dbf1,2024-10-02_02h51.11.589,mdp,2024.2.1,Win32,59.88023952,66fa4ebf79326e780c390304,,,,,,,,,,,,,,,,,,,,,1627.2615,1627.2616,1627.2644,1627.9108,1,1,right,0.1181,,1627.9139,1627.9152,1,1,,1627.9167,1627.9181,1,0,,0,1627.9181,1627.9181,1627.9195,1629.4102,0,12,12,12,1,0.8,0.2,0.6,0.4,1,0,,,,,,,,,,,,,,,,,,,,,,,,,,,,,,,,,,,,
,,6672d9dfb3878b6f6c5fa763,66fc9871dd51ea4de981dbf1,2024-10-02_02h51.11.589,mdp,2024.2.1,Win32,59.88023952,66fa4ebf79326e780c390304,,,,,,,,,,,,,,,,,,,,,1629.4116,1629.4116,1629.4143,1629.9605,1,0,right,0.0175,,1629.9638,1629.9652,1,1,,1629.9665,1629.9677,1,0,,1,1629.9679,1629.9679,1629.9691,1631.4603,0,13,13,13,1,0.8,0.2,0.6,0.4,1,0,,,,,,,,,,,,,,,,,,,,,,,,,,,,,,,,,,,,
,,6672d9dfb3878b6f6c5fa763,66fc9871dd51ea4de981dbf1,2024-10-02_02h51.11.589,mdp,2024.2.1,Win32,59.88023952,66fa4ebf79326e780c390304,,,,,,,,,,,,,,,,,,,,,1631.4618,1631.4619,1631.4643,1631.9943,1,0,right,0.0007,,1631.9971,1631.9984,1,1,,1631.9999,1632.0011,1,0,,1,1632.0011,1632.0012,1632.0024,1633.4937,0,14,14,14,1,0.8,0.2,0.6,0.4,1,0,,,,,,,,,,,,,,,,,,,,,,,,,,,,,,,,,,,,
,,6672d9dfb3878b6f6c5fa763,66fc9871dd51ea4de981dbf1,2024-10-02_02h51.11.589,mdp,2024.2.1,Win32,59.88023952,66fa4ebf79326e780c390304,,,,,,,,,,,,,,,,,,,,,1633.4952,1633.4953,1633.4977,1634.394,1,0,right,0.368,,1634.397,1634.3985,1,0,,1634.3999,1634.4011,1,0,,1,1634.4012,1634.4012,1634.4025,1635.8943,0,15,15,15,1,0.8,0.2,0.6,0.4,1,0,,,,,,,,,,,,,,,,,,,,,,,,,,,,,,,,,,,,
,,6672d9dfb3878b6f6c5fa763,66fc9871dd51ea4de981dbf1,2024-10-02_02h51.11.589,mdp,2024.2.1,Win32,59.88023952,66fa4ebf79326e780c390304,,,,,,,,,,,,,,,,,,,,,1635.8957,1635.8958,1635.898,1636.5607,1,0,right,0.1372,,1636.564,1636.5654,1,0,,1636.5668,1636.568,1,1,,1,1636.5681,1636.5681,1636.5692,1638.0605,0,16,16,16,1,0.4,0.6,0.8,0.2,1,0,,,,,,,,,,,,,,,,,,,,,,,,,,,,,,,,,,,,
,,6672d9dfb3878b6f6c5fa763,66fc9871dd51ea4de981dbf1,2024-10-02_02h51.11.589,mdp,2024.2.1,Win32,59.88023952,66fa4ebf79326e780c390304,,,,,,,,,,,,,,,,,,,,,1638.0621,1638.0622,1638.0645,1638.8277,1,0,right,0.2341,,1638.8309,1638.8324,1,0,,1638.8338,1638.8349,1,0,,1,1638.835,1638.835,1638.8363,1640.3272,0,17,17,17,1,0.4,0.6,0.8,0.2,1,0,,,,,,,,,,,,,,,,,,,,,,,,,,,,,,,,,,,,
,,6672d9dfb3878b6f6c5fa763,66fc9871dd51ea4de981dbf1,2024-10-02_02h51.11.589,mdp,2024.2.1,Win32,59.88023952,66fa4ebf79326e780c390304,,,,,,,,,,,,,,,,,,,,,1640.3288,1640.3288,1640.3313,1640.9612,1,0,right,0.1038,,1640.9642,1640.9654,1,0,,1640.9669,1640.968,1,0,,1,1640.9681,1640.9681,1640.9694,1642.4604,0,18,18,18,1,0.4,0.6,0.8,0.2,1,0,,,,,,,,,,,,,,,,,,,,,,,,,,,,,,,,,,,,
,,6672d9dfb3878b6f6c5fa763,66fc9871dd51ea4de981dbf1,2024-10-02_02h51.11.589,mdp,2024.2.1,Win32,59.88023952,66fa4ebf79326e780c390304,,,,,,,,,,,,,,,,,,,,,1642.4631,1642.4633,1642.4668,1643.0946,1,0,right,0.1008,,1643.0977,1643.0993,1,0,,1643.1007,1643.1019,1,1,,1,1643.102,1643.102,1643.1033,1644.5939,0,19,19,19,1,0.4,0.6,0.8,0.2,1,0,,,,,,,,,,,,,,,,,,,,,,,,,,,,,,,,,,,,
,,6672d9dfb3878b6f6c5fa763,66fc9871dd51ea4de981dbf1,2024-10-02_02h51.11.589,mdp,2024.2.1,Win32,59.88023952,66fa4ebf79326e780c390304,,,,,,,,,,,,,,,,,,,,,1644.5955,1644.5957,1644.5981,1645.1942,1,0,right,0.0675,,1645.1972,1645.1987,1,0,,1645.2003,1645.2015,1,1,,1,1645.2015,1645.2016,1645.2029,1646.6939,0,20,20,20,1,0.4,0.6,0.8,0.2,1,0,,,,,,,,,,,,,,,,,,,,,,,,,,,,,,,,,,,,
,,6672d9dfb3878b6f6c5fa763,66fc9871dd51ea4de981dbf1,2024-10-02_02h51.11.589,mdp,2024.2.1,Win32,59.88023952,66fa4ebf79326e780c390304,,,,,,,,,,,,,,,,,,,,,1646.6953,1646.6954,1646.6979,1647.312,1,1,right,0.0922,,1647.3152,1647.3164,1,0,,1647.3178,1647.319,1,0,,0,1647.3191,1647.3191,1647.3203,1648.8105,0,21,21,21,1,0.4,0.6,0.8,0.2,1,0,,,,,,,,,,,,,,,,,,,,,,,,,,,,,,,,,,,,
,,6672d9dfb3878b6f6c5fa763,66fc9871dd51ea4de981dbf1,2024-10-02_02h51.11.589,mdp,2024.2.1,Win32,59.88023952,66fa4ebf79326e780c390304,,,,,,,,,,,,,,,,,,,,,1648.8126,1648.8126,1648.815,1649.4113,1,0,right,0.0715,,1649.4144,1649.4157,1,0,,1649.4171,1649.4184,1,0,,1,1649.4185,1649.4185,1649.4197,1650.9109,0,22,22,22,1,0.4,0.6,0.8,0.2,1,0,,,,,,,,,,,,,,,,,,,,,,,,,,,,,,,,,,,,
,,6672d9dfb3878b6f6c5fa763,66fc9871dd51ea4de981dbf1,2024-10-02_02h51.11.589,mdp,2024.2.1,Win32,59.88023952,66fa4ebf79326e780c390304,,,,,,,,,,,,,,,,,,,,,1650.9124,1650.9124,1650.915,1651.5443,1,0,right,0.1011,,1651.5475,1651.5489,1,0,,1651.5504,1651.5516,1,0,,1,1651.5516,1651.5516,1651.5529,1653.043,0,23,23,23,1,0.4,0.6,0.8,0.2,1,0,,,,,,,,,,,,,,,,,,,,,,,,,,,,,,,,,,,,
,,6672d9dfb3878b6f6c5fa763,66fc9871dd51ea4de981dbf1,2024-10-02_02h51.11.589,mdp,2024.2.1,Win32,59.88023952,66fa4ebf79326e780c390304,,,,,,,,,,,,,,,,,,,,,1653.0444,1653.0444,1653.0473,1653.6447,1,0,right,0.0658,,1653.6476,1653.649,1,0,,1653.6506,1653.6518,1,0,,1,1653.6519,1653.6519,1653.6531,1655.1441,0,24,24,24,1,0.8,0.2,0.4,0.6,1,0,,,,,,,,,,,,,,,,,,,,,,,,,,,,,,,,,,,,
,,6672d9dfb3878b6f6c5fa763,66fc9871dd51ea4de981dbf1,2024-10-02_02h51.11.589,mdp,2024.2.1,Win32,59.88023952,66fa4ebf79326e780c390304,,,,,,,,,,,,,,,,,,,,,1655.1456,1655.1456,1655.1482,1655.7116,1,1,right,0.0417,,1655.7149,1655.7167,1,1,,1655.7182,1655.7194,1,0,,0,1655.7195,1655.7195,1655.7208,1657.211,0,25,25,25,1,0.8,0.2,0.4,0.6,1,0,,,,,,,,,,,,,,,,,,,,,,,,,,,,,,,,,,,,
,,6672d9dfb3878b6f6c5fa763,66fc9871dd51ea4de981dbf1,2024-10-02_02h51.11.589,mdp,2024.2.1,Win32,59.88023952,66fa4ebf79326e780c390304,,,,,,,,,,,,,,,,,,,,,1657.2118,1657.2118,1657.2148,1657.7612,1,1,right,0.0176,,1657.7644,1657.7658,1,0,,1657.7673,1657.7684,1,0,,0,1657.7685,1657.7686,1657.7698,1659.261,0,26,26,26,1,0.8,0.2,0.4,0.6,1,0,,,,,,,,,,,,,,,,,,,,,,,,,,,,,,,,,,,,
,,6672d9dfb3878b6f6c5fa763,66fc9871dd51ea4de981dbf1,2024-10-02_02h51.11.589,mdp,2024.2.1,Win32,59.88023952,66fa4ebf79326e780c390304,,,,,,,,,,,,,,,,,,,,,1659.2627,1659.2627,1659.2652,1659.9282,1,1,right,0.1336,,1659.9312,1659.9326,1,1,,1659.934,1659.9352,1,0,,0,1659.9352,1659.9353,1659.9366,1661.4276,0,27,27,27,1,0.8,0.2,0.4,0.6,1,0,,,,,,,,,,,,,,,,,,,,,,,,,,,,,,,,,,,,
,,6672d9dfb3878b6f6c5fa763,66fc9871dd51ea4de981dbf1,2024-10-02_02h51.11.589,mdp,2024.2.1,Win32,59.88023952,66fa4ebf79326e780c390304,,,,,,,,,,,,,,,,,,,,,1661.4291,1661.4292,1661.4316,1662.1116,1,0,right,0.1509,,1662.1148,1662.1161,1,1,,1662.1176,1662.1187,1,1,,1,1662.1188,1662.1188,1662.12,1663.6109,0,28,28,28,1,0.8,0.2,0.4,0.6,1,0,,,,,,,,,,,,,,,,,,,,,,,,,,,,,,,,,,,,
,,6672d9dfb3878b6f6c5fa763,66fc9871dd51ea4de981dbf1,2024-10-02_02h51.11.589,mdp,2024.2.1,Win32,59.88023952,66fa4ebf79326e780c390304,,,,,,,,,,,,,,,,,,,,,1663.6125,1663.6126,1663.6153,1664.1456,1,1,right,0.0047,,1664.1491,1664.1507,1,1,,1664.1524,1664.1538,1,1,,0,1664.1539,1664.1539,1664.1555,1665.6446,0,29,29,29,1,0.8,0.2,0.4,0.6,1,0,,,,,,,,,,,,,,,,,,,,,,,,,,,,,,,,,,,,
,,6672d9dfb3878b6f6c5fa763,66fc9871dd51ea4de981dbf1,2024-10-02_02h51.11.589,mdp,2024.2.1,Win32,59.88023952,66fa4ebf79326e780c390304,,,,,,,,,,,,,,,,,,,,,1665.6463,1665.6463,1665.6488,1666.1969,1,1,right,0.0207,,1666.2,1666.2013,1,0,,1666.2029,1666.2042,1,1,,0,1666.2043,1666.2043,1666.2056,1667.6947,0,30,30,30,1,0.8,0.2,0.4,0.6,1,0,,,,,,,,,,,,,,,,,,,,,,,,,,,,,,,,,,,,
,,6672d9dfb3878b6f6c5fa763,66fc9871dd51ea4de981dbf1,2024-10-02_02h51.11.589,mdp,2024.2.1,Win32,59.88023952,66fa4ebf79326e780c390304,,,,,,,,,,,,,,,,,,,,,1667.696,1667.6962,1667.6988,1668.2784,1,1,right,0.0512,,1668.2815,1668.2829,1,0,,1668.2843,1668.2856,1,1,,0,1668.2857,1668.2857,1668.2871,1669.7782,0,31,31,31,1,0.8,0.2,0.4,0.6,1,0,,,,,,,,,,,,,,,,,,,,,,,,,,,,,,,,,,,,
,,6672d9dfb3878b6f6c5fa763,66fc9871dd51ea4de981dbf1,2024-10-02_02h51.11.589,mdp,2024.2.1,Win32,59.88023952,66fa4ebf79326e780c390304,,,,,,,,,,,,,,,,,,,,,1669.7797,1669.7798,1669.7822,1670.3116,1,1,right,0.0009,,1670.3148,1670.3162,1,1,,1670.3177,1670.3188,1,1,,0,1670.3189,1670.3189,1670.3203,1671.8119,0,32,32,32,1,0.8,0.2,0.4,0.6,1,0,,,,,,,,,,,,,,,,,,,,,,,,,,,,,,,,,,,,
,,6672d9dfb3878b6f6c5fa763,66fc9871dd51ea4de981dbf1,2024-10-02_02h51.11.589,mdp,2024.2.1,Win32,59.88023952,66fa4ebf79326e780c390304,,,,,,,,,,,,,,,,,,,,,1671.8134,1671.8134,1671.8159,1672.3449,1,1,right,0.0041,,1672.3479,1672.3495,1,0,,1672.351,1672.3522,1,1,,0,1672.3523,1672.3523,1672.3535,1673.8448,0,33,33,33,1,0.8,0.2,0.4,0.6,1,0,,,,,,,,,,,,,,,,,,,,,,,,,,,,,,,,,,,,
,,6672d9dfb3878b6f6c5fa763,66fc9871dd51ea4de981dbf1,2024-10-02_02h51.11.589,mdp,2024.2.1,Win32,59.88023952,66fa4ebf79326e780c390304,,,,,,,,,,,,,,,,,,,,,1673.8462,1673.8462,1673.8488,1674.5118,1,0,right,0.1342,,1674.5149,1674.5163,1,1,,1674.5179,1674.519,1,1,,1,1674.5191,1674.5192,1674.5205,1676.0114,0,34,34,34,1,0.8,0.2,0.4,0.6,1,0,,,,,,,,,,,,,,,,,,,,,,,,,,,,,,,,,,,,
,,6672d9dfb3878b6f6c5fa763,66fc9871dd51ea4de981dbf1,2024-10-02_02h51.11.589,mdp,2024.2.1,Win32,59.88023952,66fa4ebf79326e780c390304,,,,,,,,,,,,,,,,,,,,,1676.0124,1676.0124,1676.0153,1676.679,1,0,right,0.1575,,1676.6824,1676.6841,1,1,,1676.6856,1676.6867,1,1,,1,1676.6869,1676.6869,1676.688,1678.1783,0,35,35,35,1,0.8,0.2,0.4,0.6,1,0,,,,,,,,,,,,,,,,,,,,,,,,,,,,,,,,,,,,
,,6672d9dfb3878b6f6c5fa763,66fc9871dd51ea4de981dbf1,2024-10-02_02h51.11.589,mdp,2024.2.1,Win32,59.88023952,66fa4ebf79326e780c390304,,,,,,,,,,,,,,,,,,,,,1678.179,1678.179,1678.1823,1678.7952,1,0,right,0.0848,,1678.7983,1678.7999,1,0,,1678.8014,1678.8026,1,0,,1,1678.8026,1678.8026,1678.8041,1680.295,0,36,36,36,1,0.8,0.2,0.4,0.6,1,0,,,,,,,,,,,,,,,,,,,,,,,,,,,,,,,,,,,,
,,6672d9dfb3878b6f6c5fa763,66fc9871dd51ea4de981dbf1,2024-10-02_02h51.11.589,mdp,2024.2.1,Win32,59.88023952,66fa4ebf79326e780c390304,,,,,,,,,,,,,,,,,,,,,1680.2965,1680.2965,1680.299,1680.8786,1,0,right,0.0508,,1680.882,1680.8833,1,1,,1680.8848,1680.8859,1,0,,1,1680.886,1680.886,1680.8873,1682.3783,0,37,37,37,1,0.8,0.2,0.4,0.6,1,0,,,,,,,,,,,,,,,,,,,,,,,,,,,,,,,,,,,,
