init_exp.started,init_exp.stopped,participant,session,date,expName,psychopyVersion,OS,frameRate,study_id,disp_instruction.started,disp_instruction.stopped,instruction.thisRepN,instruction.thisTrialN,instruction.thisN,instruction.thisIndex,instruction.ran,instimg_path,consent.started,consent.stopped,key_resp_3.keys,key_resp_3.rt,key_resp_3.duration,n_steps,sequence_path,init_block.started,init_block.stopped,key_resp.keys,key_resp.rt,key_resp.duration,init_trials.started,init_trials.stopped,step0.started,step0.stopped,act0,s1,res0.keys,res0.rt,res0.duration,step1.started,step1.stopped,act1,s2,res1.keys,step2.started,step2.stopped,act2,s3,res2.keys,rew,reward_comp.started,reward_comp.stopped,reward_disp.started,reward_disp.stopped,trials.thisRepN,trials.thisTrialN,trials.thisN,trials.thisIndex,trials.ran,s00a0s10,s00a0s11,s00a1s10,s00a1s11,rew10,rew11,break_block.started,break_block.stopped,block.thisRepN,block.thisTrialN,block.thisN,block.thisIndex,block.ran,s00path,s10path,s11path,s20path,s21path,res1.rt,res1.duration,s10a0s20,s10a0s21,s10a1s20,s10a1s21,s11a0s20,s11a0s21,s11a1s20,s11a1s21,rew20,rew21,res2.rt,res2.duration,s20a0s30,s20a0s31,s20a1s30,s20a1s31,s21a0s30,s21a0s31,s21a1s30,s21a1s31,rew30,rew31
0.0002,0.0011,667783ecd51176477fc57977,66fc998046fcc5b0e60e50d4,2024-10-02_09h54.55.563,mdp,2024.2.1,Win32,60.24096386,66fa4ebf79326e780c390304,,,,,,,,,,,,,,,,,,,,,,,,,,,,,,,,,,,,,,,,,,,,,,,,,,,,,,,,,,,,,,,,,,,,,,,,,,,,,,,,,,,,,,,,,,,
,,667783ecd51176477fc57977,66fc998046fcc5b0e60e50d4,2024-10-02_09h54.55.563,mdp,2024.2.1,Win32,60.24096386,66fa4ebf79326e780c390304,0.0047,16.0129,0,0,0,0,1,rlnn_exp/rlnn_exp.001.png,,,,,,,,,,,,,,,,,,,,,,,,,,,,,,,,,,,,,,,,,,,,,,,,,,,,,,,,,,,,,,,,,,,,,,,,,,,,,,,,,,,
,,667783ecd51176477fc57977,66fc998046fcc5b0e60e50d4,2024-10-02_09h54.55.563,mdp,2024.2.1,Win32,60.24096386,66fa4ebf79326e780c390304,16.0133,27.5596,0,1,1,1,1,rlnn_exp/rlnn_exp.002.png,,,,,,,,,,,,,,,,,,,,,,,,,,,,,,,,,,,,,,,,,,,,,,,,,,,,,,,,,,,,,,,,,,,,,,,,,,,,,,,,,,,
,,667783ecd51176477fc57977,66fc998046fcc5b0e60e50d4,2024-10-02_09h54.55.563,mdp,2024.2.1,Win32,60.24096386,66fa4ebf79326e780c390304,27.5608,38.3407,0,2,2,2,1,rlnn_exp/rlnn_exp.003.png,,,,,,,,,,,,,,,,,,,,,,,,,,,,,,,,,,,,,,,,,,,,,,,,,,,,,,,,,,,,,,,,,,,,,,,,,,,,,,,,,,,
,,667783ecd51176477fc57977,66fc998046fcc5b0e60e50d4,2024-10-02_09h54.55.563,mdp,2024.2.1,Win32,60.24096386,66fa4ebf79326e780c390304,38.3421,49.073,0,3,3,3,1,rlnn_exp/rlnn_exp.004.png,,,,,,,,,,,,,,,,,,,,,,,,,,,,,,,,,,,,,,,,,,,,,,,,,,,,,,,,,,,,,,,,,,,,,,,,,,,,,,,,,,,
,,667783ecd51176477fc57977,66fc998046fcc5b0e60e50d4,2024-10-02_09h54.55.563,mdp,2024.2.1,Win32,60.24096386,66fa4ebf79326e780c390304,,,,,,,,,49.0739,76.586,y,17.4649,,,,,,,,,,,,,,,,,,,,,,,,,,,,,,,,,,,,,,,,,,,,,,,,,,,,,,,,,,,,,,,,,,,,,,,,,,,,,,,
,,667783ecd51176477fc57977,66fc998046fcc5b0e60e50d4,2024-10-02_09h54.55.563,mdp,2024.2.1,Win32,60.24096386,66fa4ebf79326e780c390304,,,,,,,,,,,,,,1,seqs/st1seq18.csv,76.5882,78.119,space,0.9998,,78.1212,78.1212,78.1213,110.5642,0,1,left,31.9041,,110.5647,110.5659,,1,,110.5662,110.567,,1,,0,110.5671,110.5671,110.5672,112.0629,0,0,0,0,1,0.2,0.8,0.8,0.2,1,0,,,,,,,,,,,,,,,,,,,,,,,,,,,,,,,,,,,,
,,667783ecd51176477fc57977,66fc998046fcc5b0e60e50d4,2024-10-02_09h54.55.563,mdp,2024.2.1,Win32,60.24096386,66fa4ebf79326e780c390304,,,,,,,,,,,,,,,,,,,,,112.0641,112.0641,112.0649,113.113,1,0,right,0.5168,,113.1143,113.1148,,0,,113.1151,113.1153,,0,,1,113.1153,113.1153,113.1154,114.6122,0,1,1,1,1,0.2,0.8,0.8,0.2,1,0,,,,,,,,,,,,,,,,,,,,,,,,,,,,,,,,,,,,
,,667783ecd51176477fc57977,66fc998046fcc5b0e60e50d4,2024-10-02_09h54.55.563,mdp,2024.2.1,Win32,60.24096386,66fa4ebf79326e780c390304,,,,,,,,,,,,,,,,,,,,,114.6137,114.6138,114.6147,115.8286,1,0,right,0.6837,,115.8303,115.8308,,0,,115.8311,115.8313,,0,,1,115.8314,115.8314,115.8315,117.3285,0,2,2,2,1,0.2,0.8,0.8,0.2,1,0,,,,,,,,,,,,,,,,,,,,,,,,,,,,,,,,,,,,
,,667783ecd51176477fc57977,66fc998046fcc5b0e60e50d4,2024-10-02_09h54.55.563,mdp,2024.2.1,Win32,60.24096386,66fa4ebf79326e780c390304,,,,,,,,,,,,,,,,,,,,,117.3297,117.3298,117.3309,118.4783,1,0,right,0.6255,,118.4802,118.4806,,0,,118.4809,118.4812,,0,,1,118.4812,118.4812,118.4814,119.9776,0,3,3,3,1,0.2,0.8,0.8,0.2,1,0,,,,,,,,,,,,,,,,,,,,,,,,,,,,,,,,,,,,
,,667783ecd51176477fc57977,66fc998046fcc5b0e60e50d4,2024-10-02_09h54.55.563,mdp,2024.2.1,Win32,60.24096386,66fa4ebf79326e780c390304,,,,,,,,,,,,,,,,,,,,,119.9784,119.9784,119.98,120.9119,1,0,right,0.4004,,120.9132,120.9137,,0,,120.914,120.9143,,1,,1,120.9143,120.9143,120.9145,122.4112,0,4,4,4,1,0.2,0.8,0.8,0.2,1,0,,,,,,,,,,,,,,,,,,,,,,,,,,,,,,,,,,,,
,,667783ecd51176477fc57977,66fc998046fcc5b0e60e50d4,2024-10-02_09h54.55.563,mdp,2024.2.1,Win32,60.24096386,66fa4ebf79326e780c390304,,,,,,,,,,,,,,,,,,,,,122.4125,122.4125,122.4136,123.2606,1,0,right,0.3203,,123.2626,123.2629,,0,,123.2633,123.2636,,0,,1,123.2636,123.2636,123.2638,124.7601,0,5,5,5,1,0.2,0.8,0.8,0.2,1,0,,,,,,,,,,,,,,,,,,,,,,,,,,,,,,,,,,,,
,,667783ecd51176477fc57977,66fc998046fcc5b0e60e50d4,2024-10-02_09h54.55.563,mdp,2024.2.1,Win32,60.24096386,66fa4ebf79326e780c390304,,,,,,,,,,,,,,,,,,,,,124.7607,124.7608,124.7626,125.6439,1,1,right,0.3543,,125.6456,125.646,,0,,125.6463,125.6466,,1,,0,125.6467,125.6467,125.6468,127.1438,0,6,6,6,1,0.2,0.8,0.8,0.2,1,0,,,,,,,,,,,,,,,,,,,,,,,,,,,,,,,,,,,,
,,667783ecd51176477fc57977,66fc998046fcc5b0e60e50d4,2024-10-02_09h54.55.563,mdp,2024.2.1,Win32,60.24096386,66fa4ebf79326e780c390304,,,,,,,,,,,,,,,,,,,,,127.1451,127.1451,127.1459,127.9596,0,1,left,0.29,,127.9615,127.9619,,1,,127.9623,127.9626,,1,,0,127.9626,127.9626,127.9627,129.46,0,7,7,7,1,0.2,0.8,0.8,0.2,1,0,,,,,,,,,,,,,,,,,,,,,,,,,,,,,,,,,,,,
,,667783ecd51176477fc57977,66fc998046fcc5b0e60e50d4,2024-10-02_09h54.55.563,mdp,2024.2.1,Win32,60.24096386,66fa4ebf79326e780c390304,,,,,,,,,,,,,,,,,,,,,129.4613,129.4614,129.462,130.3094,1,1,right,0.3191,,130.3115,130.3118,,0,,130.3121,130.3124,,0,,0,130.3124,130.3124,130.3126,131.8092,0,8,8,8,1,0.2,0.8,0.8,0.2,1,0,,,,,,,,,,,,,,,,,,,,,,,,,,,,,,,,,,,,
,,667783ecd51176477fc57977,66fc998046fcc5b0e60e50d4,2024-10-02_09h54.55.563,mdp,2024.2.1,Win32,60.24096386,66fa4ebf79326e780c390304,,,,,,,,,,,,,,,,,,,,,131.8104,131.8105,131.8118,132.6922,1,0,right,0.3593,,132.6941,132.6945,,0,,132.6947,132.6951,,0,,1,132.6951,132.6951,132.6953,134.1919,0,9,9,9,1,0.2,0.8,0.8,0.2,1,0,,,,,,,,,,,,,,,,,,,,,,,,,,,,,,,,,,,,
,,667783ecd51176477fc57977,66fc998046fcc5b0e60e50d4,2024-10-02_09h54.55.563,mdp,2024.2.1,Win32,60.24096386,66fa4ebf79326e780c390304,,,,,,,,,,,,,,,,,,,,,134.1925,134.1925,134.1943,135.1087,1,0,right,0.3875,,135.1108,135.1112,,1,,135.1114,135.1118,,0,,1,135.1118,135.1118,135.112,136.6095,0,10,10,10,1,0.2,0.8,0.8,0.2,1,0,,,,,,,,,,,,,,,,,,,,,,,,,,,,,,,,,,,,
,,667783ecd51176477fc57977,66fc998046fcc5b0e60e50d4,2024-10-02_09h54.55.563,mdp,2024.2.1,Win32,60.24096386,66fa4ebf79326e780c390304,,,,,,,,,,,,,,,,,,,,,136.6105,136.6105,136.6112,137.4586,1,1,right,0.3244,,137.4606,137.4611,,1,,137.4615,137.4617,,0,,0,137.4617,137.4617,137.462,138.958,0,11,11,11,1,0.8,0.2,0.2,0.8,1,0,,,,,,,,,,,,,,,,,,,,,,,,,,,,,,,,,,,,
,,667783ecd51176477fc57977,66fc998046fcc5b0e60e50d4,2024-10-02_09h54.55.563,mdp,2024.2.1,Win32,60.24096386,66fa4ebf79326e780c390304,,,,,,,,,,,,,,,,,,,,,138.9584,138.9584,138.9601,139.9415,1,0,right,0.4554,,139.9434,139.9438,,1,,139.9442,139.9444,,1,,1,139.9444,139.9444,139.9446,141.4409,0,12,12,12,1,0.6,0.4,0.4,0.6,1,0,,,,,,,,,,,,,,,,,,,,,,,,,,,,,,,,,,,,
,,667783ecd51176477fc57977,66fc998046fcc5b0e60e50d4,2024-10-02_09h54.55.563,mdp,2024.2.1,Win32,60.24096386,66fa4ebf79326e780c390304,,,,,,,,,,,,,,,,,,,,,141.4415,141.4415,141.443,142.4748,1,1,right,0.5104,,142.4763,142.4767,,1,,142.477,142.4773,,1,,0,142.4773,142.4773,142.4776,143.9739,0,13,13,13,1,0.6,0.4,0.4,0.6,1,0,,,,,,,,,,,,,,,,,,,,,,,,,,,,,,,,,,,,
,,667783ecd51176477fc57977,66fc998046fcc5b0e60e50d4,2024-10-02_09h54.55.563,mdp,2024.2.1,Win32,60.24096386,66fa4ebf79326e780c390304,,,,,,,,,,,,,,,,,,,,,143.9747,143.9747,143.9763,144.8077,1,0,right,0.3051,,144.8092,144.8097,,1,,144.81,144.8102,,1,,1,144.8102,144.8102,144.8105,146.3072,0,14,14,14,1,0.6,0.4,0.4,0.6,1,0,,,,,,,,,,,,,,,,,,,,,,,,,,,,,,,,,,,,
,,667783ecd51176477fc57977,66fc998046fcc5b0e60e50d4,2024-10-02_09h54.55.563,mdp,2024.2.1,Win32,60.24096386,66fa4ebf79326e780c390304,,,,,,,,,,,,,,,,,,,,,146.3085,146.3085,146.3093,147.6734,1,1,right,0.8339,,147.6753,147.6758,,1,,147.6761,147.6764,,0,,0,147.6764,147.6764,147.6765,149.1729,0,15,15,15,1,0.6,0.4,0.4,0.6,1,0,,,,,,,,,,,,,,,,,,,,,,,,,,,,,,,,,,,,
,,667783ecd51176477fc57977,66fc998046fcc5b0e60e50d4,2024-10-02_09h54.55.563,mdp,2024.2.1,Win32,60.24096386,66fa4ebf79326e780c390304,,,,,,,,,,,,,,,,,,,,,149.1737,149.1738,149.1752,150.6569,1,0,right,0.9524,,150.6586,150.6591,,0,,150.6593,150.6596,,0,,1,150.6596,150.6596,150.6599,152.156,0,16,16,16,1,0.8,0.2,0.6,0.4,1,0,,,,,,,,,,,,,,,,,,,,,,,,,,,,,,,,,,,,
,,667783ecd51176477fc57977,66fc998046fcc5b0e60e50d4,2024-10-02_09h54.55.563,mdp,2024.2.1,Win32,60.24096386,66fa4ebf79326e780c390304,,,,,,,,,,,,,,,,,,,,,152.1568,152.1568,152.1583,153.8222,1,1,right,1.1341,,153.8243,153.8248,,1,,153.8252,153.8254,,0,,0,153.8254,153.8254,153.8256,155.3222,0,17,17,17,1,0.8,0.2,0.6,0.4,1,0,,,,,,,,,,,,,,,,,,,,,,,,,,,,,,,,,,,,
,,667783ecd51176477fc57977,66fc998046fcc5b0e60e50d4,2024-10-02_09h54.55.563,mdp,2024.2.1,Win32,60.24096386,66fa4ebf79326e780c390304,,,,,,,,,,,,,,,,,,,,,155.3234,155.3234,155.3247,156.8384,1,0,right,0.9927,,156.8408,156.8413,,1,,156.8416,156.8418,,0,,1,156.8419,156.8419,156.8422,158.3382,0,18,18,18,1,0.6,0.4,0.8,0.2,1,0,,,,,,,,,,,,,,,,,,,,,,,,,,,,,,,,,,,,
,,667783ecd51176477fc57977,66fc998046fcc5b0e60e50d4,2024-10-02_09h54.55.563,mdp,2024.2.1,Win32,60.24096386,66fa4ebf79326e780c390304,,,,,,,,,,,,,,,,,,,,,158.3388,158.3389,158.3406,159.3547,1,0,right,0.4898,,159.3567,159.3571,,0,,159.3574,159.3577,,0,,1,159.3577,159.3577,159.3579,160.8545,0,19,19,19,1,0.6,0.4,0.8,0.2,1,0,,,,,,,,,,,,,,,,,,,,,,,,,,,,,,,,,,,,
,,667783ecd51176477fc57977,66fc998046fcc5b0e60e50d4,2024-10-02_09h54.55.563,mdp,2024.2.1,Win32,60.24096386,66fa4ebf79326e780c390304,,,,,,,,,,,,,,,,,,,,,160.8554,160.8554,160.857,163.3546,1,0,right,1.9671,,163.3563,163.3569,,0,,163.3571,163.3574,,1,,1,163.3574,163.3574,163.3576,164.8545,0,20,20,20,1,0.6,0.4,0.8,0.2,1,0,,,,,,,,,,,,,,,,,,,,,,,,,,,,,,,,,,,,
,,667783ecd51176477fc57977,66fc998046fcc5b0e60e50d4,2024-10-02_09h54.55.563,mdp,2024.2.1,Win32,60.24096386,66fa4ebf79326e780c390304,,,,,,,,,,,,,,,,,,,,,164.8556,164.8556,164.8561,167.3208,1,0,right,1.9333,,167.3223,167.3227,,0,,167.323,167.3232,,0,,1,167.3232,167.3232,167.3234,168.82,0,21,21,21,1,0.6,0.4,0.8,0.2,1,0,,,,,,,,,,,,,,,,,,,,,,,,,,,,,,,,,,,,
,,667783ecd51176477fc57977,66fc998046fcc5b0e60e50d4,2024-10-02_09h54.55.563,mdp,2024.2.1,Win32,60.24096386,66fa4ebf79326e780c390304,,,,,,,,,,,,,,,,,,,,,168.8209,168.8209,168.8223,169.7374,1,0,right,0.3834,,169.7387,169.7391,,0,,169.7394,169.7397,,0,,1,169.7397,169.7397,169.7398,171.2361,0,22,22,22,1,0.6,0.4,0.8,0.2,1,0,,,,,,,,,,,,,,,,,,,,,,,,,,,,,,,,,,,,
,,667783ecd51176477fc57977,66fc998046fcc5b0e60e50d4,2024-10-02_09h54.55.563,mdp,2024.2.1,Win32,60.24096386,66fa4ebf79326e780c390304,,,,,,,,,,,,,,,,,,,,,171.2365,171.2365,171.2383,171.8361,1,0,right,0.0668,,171.8379,171.8383,,0,,171.8387,171.8389,,0,,1,171.839,171.839,171.8392,173.3358,0,23,23,23,1,0.6,0.4,0.8,0.2,1,0,,,,,,,,,,,,,,,,,,,,,,,,,,,,,,,,,,,,
,,667783ecd51176477fc57977,66fc998046fcc5b0e60e50d4,2024-10-02_09h54.55.563,mdp,2024.2.1,Win32,60.24096386,66fa4ebf79326e780c390304,,,,,,,,,,,,,,,,,,,,,173.3364,173.3364,173.338,174.0201,1,1,right,0.1533,,174.0214,174.0219,,0,,174.0222,174.0224,,1,,0,174.0224,174.0225,174.0226,175.5189,0,24,24,24,1,0.4,0.6,0.6,0.4,1,0,,,,,,,,,,,,,,,,,,,,,,,,,,,,,,,,,,,,
,,667783ecd51176477fc57977,66fc998046fcc5b0e60e50d4,2024-10-02_09h54.55.563,mdp,2024.2.1,Win32,60.24096386,66fa4ebf79326e780c390304,,,,,,,,,,,,,,,,,,,,,175.5195,175.5195,175.5211,177.919,1,0,right,1.8676,,177.9207,177.921,,1,,177.9214,177.9217,,1,,1,177.9217,177.9217,177.922,179.4181,0,25,25,25,1,0.8,0.2,0.4,0.6,1,0,,,,,,,,,,,,,,,,,,,,,,,,,,,,,,,,,,,,
,,667783ecd51176477fc57977,66fc998046fcc5b0e60e50d4,2024-10-02_09h54.55.563,mdp,2024.2.1,Win32,60.24096386,66fa4ebf79326e780c390304,,,,,,,,,,,,,,,,,,,,,179.4189,179.4189,179.4205,180.2681,1,1,right,0.328,,180.27,180.2704,,1,,180.2707,180.2709,,1,,0,180.2709,180.2709,180.2711,181.7684,0,26,26,26,1,0.8,0.2,0.4,0.6,1,0,,,,,,,,,,,,,,,,,,,,,,,,,,,,,,,,,,,,
,,667783ecd51176477fc57977,66fc998046fcc5b0e60e50d4,2024-10-02_09h54.55.563,mdp,2024.2.1,Win32,60.24096386,66fa4ebf79326e780c390304,,,,,,,,,,,,,,,,,,,,,181.7693,181.7693,181.7705,183.0513,1,0,right,0.7569,,183.0532,183.0536,,0,,183.0538,183.054,,0,,1,183.054,183.0541,183.0543,184.5514,0,27,27,27,1,0.2,0.8,0.8,0.2,1,0,,,,,,,,,,,,,,,,,,,,,,,,,,,,,,,,,,,,
,,667783ecd51176477fc57977,66fc998046fcc5b0e60e50d4,2024-10-02_09h54.55.563,mdp,2024.2.1,Win32,60.24096386,66fa4ebf79326e780c390304,,,,,,,,,,,,,,,,,,,,,184.5523,184.5523,184.5529,185.451,1,1,right,0.3671,,185.4527,185.4532,,0,,185.4535,185.4537,,0,,0,185.4538,185.4538,185.4539,186.9508,0,28,28,28,1,0.2,0.8,0.8,0.2,1,0,,,,,,,,,,,,,,,,,,,,,,,,,,,,,,,,,,,,
,,667783ecd51176477fc57977,66fc998046fcc5b0e60e50d4,2024-10-02_09h54.55.563,mdp,2024.2.1,Win32,60.24096386,66fa4ebf79326e780c390304,,,,,,,,,,,,,,,,,,,,,186.9517,186.9518,186.9524,187.7338,1,1,right,0.2528,,187.7358,187.7364,,0,,187.7367,187.7369,,0,,0,187.7369,187.7369,187.7371,189.2333,0,29,29,29,1,0.2,0.8,0.8,0.2,1,0,,,,,,,,,,,,,,,,,,,,,,,,,,,,,,,,,,,,
,,667783ecd51176477fc57977,66fc998046fcc5b0e60e50d4,2024-10-02_09h54.55.563,mdp,2024.2.1,Win32,60.24096386,66fa4ebf79326e780c390304,,,,,,,,,,,,,,,,,,,,,189.2336,189.2337,189.2353,190.0166,1,1,right,0.2609,,190.0184,190.0188,,1,,190.0191,190.0193,,1,,0,190.0193,190.0193,190.0195,191.5165,0,30,30,30,1,0.6,0.4,0.2,0.8,1,0,,,,,,,,,,,,,,,,,,,,,,,,,,,,,,,,,,,,
,,667783ecd51176477fc57977,66fc998046fcc5b0e60e50d4,2024-10-02_09h54.55.563,mdp,2024.2.1,Win32,60.24096386,66fa4ebf79326e780c390304,,,,,,,,,,,,,,,,,,,,,191.5174,191.5174,191.5184,192.6001,1,1,right,0.5598,,192.602,192.6023,,1,,192.6025,192.6028,,1,,0,192.6028,192.6028,192.603,194.099,0,31,31,31,1,0.6,0.4,0.2,0.8,1,0,,,,,,,,,,,,,,,,,,,,,,,,,,,,,,,,,,,,
,,667783ecd51176477fc57977,66fc998046fcc5b0e60e50d4,2024-10-02_09h54.55.563,mdp,2024.2.1,Win32,60.24096386,66fa4ebf79326e780c390304,,,,,,,,,,,,,,,,,,,,,194.0996,194.0996,194.1011,196.3658,1,0,right,1.7439,,196.3676,196.3679,,1,,196.3682,196.3683,,1,,1,196.3684,196.3684,196.3686,197.8651,0,32,32,32,1,0.6,0.4,0.2,0.8,1,0,,,,,,,,,,,,,,,,,,,,,,,,,,,,,,,,,,,,
,,667783ecd51176477fc57977,66fc998046fcc5b0e60e50d4,2024-10-02_09h54.55.563,mdp,2024.2.1,Win32,60.24096386,66fa4ebf79326e780c390304,,,,,,,,,,,,,,,,,,,,,197.8656,197.8656,197.8677,199.2822,1,1,right,0.8892,,199.2842,199.2845,,1,,199.2848,199.285,,1,,0,199.2851,199.2851,199.2852,200.7813,0,33,33,33,1,0.6,0.4,0.2,0.8,1,0,,,,,,,,,,,,,,,,,,,,,,,,,,,,,,,,,,,,
,,667783ecd51176477fc57977,66fc998046fcc5b0e60e50d4,2024-10-02_09h54.55.563,mdp,2024.2.1,Win32,60.24096386,66fa4ebf79326e780c390304,,,,,,,,,,,,,,,,,,,,,200.7819,200.7819,200.7836,201.9819,1,0,right,0.6672,,201.9834,201.9839,,0,,201.9843,201.9845,,0,,1,201.9845,201.9845,201.9847,203.481,0,34,34,34,1,0.8,0.2,0.8,0.2,1,0,,,,,,,,,,,,,,,,,,,,,,,,,,,,,,,,,,,,
,,667783ecd51176477fc57977,66fc998046fcc5b0e60e50d4,2024-10-02_09h54.55.563,mdp,2024.2.1,Win32,60.24096386,66fa4ebf79326e780c390304,,,,,,,,,,,,,,,,,,,,,203.4818,203.4818,203.4833,204.481,1,0,right,0.4671,,204.4831,204.4835,,1,,204.4839,204.4842,,1,,1,204.4842,204.4842,204.4843,205.9807,0,35,35,35,1,0.8,0.2,0.8,0.2,1,0,,,,,,,,,,,,,,,,,,,,,,,,,,,,,,,,,,,,
,,667783ecd51176477fc57977,66fc998046fcc5b0e60e50d4,2024-10-02_09h54.55.563,mdp,2024.2.1,Win32,60.24096386,66fa4ebf79326e780c390304,,,,,,,,,,,,,,,,,,,,,205.9813,205.9813,205.9828,206.8148,1,0,right,0.3009,,206.8163,206.8167,,0,,206.817,206.8172,,0,,1,206.8173,206.8173,206.8174,208.3135,0,36,36,36,1,0.8,0.2,0.8,0.2,1,0,,,,,,,,,,,,,,,,,,,,,,,,,,,,,,,,,,,,
,,667783ecd51176477fc57977,66fc998046fcc5b0e60e50d4,2024-10-02_09h54.55.563,mdp,2024.2.1,Win32,60.24096386,66fa4ebf79326e780c390304,,,,,,,,,,,,,,,,,,,,,208.3142,208.3142,208.3159,208.897,1,1,right,0.04,,208.8987,208.899,,0,,208.8993,208.8995,,0,,0,208.8995,208.8995,208.8997,210.3965,0,37,37,37,1,0.6,0.4,0.4,0.6,1,0,,,,,,,,,,,,,,,,,,,,,,,,,,,,,,,,,,,,
,,667783ecd51176477fc57977,66fc998046fcc5b0e60e50d4,2024-10-02_09h54.55.563,mdp,2024.2.1,Win32,60.24096386,66fa4ebf79326e780c390304,,,,,,,,,,,,,,,,,,,,,210.3972,210.3972,210.3987,212.1467,1,1,right,1.2182,,212.1484,212.1488,,1,,212.1491,212.1493,,0,,0,212.1493,212.1493,212.1495,213.6467,0,38,38,38,1,0.6,0.4,0.4,0.6,1,0,,,,,,,,,,,,,,,,,,,,,,,,,,,,,,,,,,,,
,,667783ecd51176477fc57977,66fc998046fcc5b0e60e50d4,2024-10-02_09h54.55.563,mdp,2024.2.1,Win32,60.24096386,66fa4ebf79326e780c390304,,,,,,,,,,,,,,,,,,,,,213.6475,213.6475,213.6484,214.3128,1,1,right,0.1396,,214.3146,214.3149,,0,,214.3153,214.3156,,1,,0,214.3156,214.3156,214.3158,215.8129,0,39,39,39,1,0.6,0.4,0.4,0.6,1,0,,,,,,,,,,,,,,,,,,,,,,,,,,,,,,,,,,,,
,,667783ecd51176477fc57977,66fc998046fcc5b0e60e50d4,2024-10-02_09h54.55.563,mdp,2024.2.1,Win32,60.24096386,66fa4ebf79326e780c390304,,,,,,,,,,,,,,,,,,,,,215.814,215.8141,215.8154,217.0963,1,1,right,0.7501,,217.0979,217.0982,,1,,217.0986,217.0988,,0,,0,217.0988,217.0988,217.0989,218.5955,0,40,40,40,1,0.6,0.4,0.4,0.6,1,0,,,,,,,,,,,,,,,,,,,,,,,,,,,,,,,,,,,,
,,667783ecd51176477fc57977,66fc998046fcc5b0e60e50d4,2024-10-02_09h54.55.563,mdp,2024.2.1,Win32,60.24096386,66fa4ebf79326e780c390304,,,,,,,,,,,,,,,,,,,,,218.5966,218.5966,218.5977,219.8783,1,0,right,0.7502,,219.8804,219.8808,,1,,219.8811,219.8813,,1,,1,219.8813,219.8813,219.8815,221.3786,0,41,41,41,1,0.6,0.4,0.4,0.6,1,0,,,,,,,,,,,,,,,,,,,,,,,,,,,,,,,,,,,,
,,667783ecd51176477fc57977,66fc998046fcc5b0e60e50d4,2024-10-02_09h54.55.563,mdp,2024.2.1,Win32,60.24096386,66fa4ebf79326e780c390304,,,,,,,,,,,,,,,,,,,,,221.3796,221.3797,221.381,222.0118,1,1,right,0.0996,,222.0135,222.0139,,1,,222.0143,222.0144,,0,,0,222.0145,222.0145,222.0147,223.512,0,42,42,42,1,0.6,0.4,0.4,0.6,1,0,,,,,,,,,,,,,,,,,,,,,,,,,,,,,,,,,,,,
,,667783ecd51176477fc57977,66fc998046fcc5b0e60e50d4,2024-10-02_09h54.55.563,mdp,2024.2.1,Win32,60.24096386,66fa4ebf79326e780c390304,,,,,,,,,,,,,,,,,,,,,223.5131,223.5131,223.5137,224.1109,1,0,right,0.0773,,224.113,224.1135,,0,,224.1139,224.1141,,0,,1,224.1141,224.1141,224.1143,225.611,0,43,43,43,1,0.6,0.4,0.4,0.6,1,0,,,,,,,,,,,,,,,,,,,,,,,,,,,,,,,,,,,,
,,667783ecd51176477fc57977,66fc998046fcc5b0e60e50d4,2024-10-02_09h54.55.563,mdp,2024.2.1,Win32,60.24096386,66fa4ebf79326e780c390304,,,,,,,,,,,,,,,,,,,,,225.6118,225.6118,225.6131,226.9104,1,0,right,0.7771,,226.9124,226.9129,,0,,226.9133,226.9134,,1,,1,226.9134,226.9134,226.9137,228.4106,0,44,44,44,1,0.8,0.2,0.8,0.2,1,0,,,,,,,,,,,,,,,,,,,,,,,,,,,,,,,,,,,,
,,667783ecd51176477fc57977,66fc998046fcc5b0e60e50d4,2024-10-02_09h54.55.563,mdp,2024.2.1,Win32,60.24096386,66fa4ebf79326e780c390304,,,,,,,,,,,,,,,,,,,,,228.4115,228.4115,228.4127,230.3601,1,0,right,1.4255,,230.3619,230.3624,,0,,230.3627,230.3631,,0,,1,230.3631,230.3631,230.3633,231.8597,0,45,45,45,1,0.8,0.2,0.8,0.2,1,0,,,,,,,,,,,,,,,,,,,,,,,,,,,,,,,,,,,,
,,667783ecd51176477fc57977,66fc998046fcc5b0e60e50d4,2024-10-02_09h54.55.563,mdp,2024.2.1,Win32,60.24096386,66fa4ebf79326e780c390304,,,,,,,,,,,,,,,,,,,,,231.8606,231.8606,231.8622,232.427,1,0,right,0.0341,,232.4285,232.4289,,1,,232.4292,232.4294,,0,,1,232.4294,232.4294,232.4296,233.9271,0,46,46,46,1,0.8,0.2,0.8,0.2,1,0,,,,,,,,,,,,,,,,,,,,,,,,,,,,,,,,,,,,
,,667783ecd51176477fc57977,66fc998046fcc5b0e60e50d4,2024-10-02_09h54.55.563,mdp,2024.2.1,Win32,60.24096386,66fa4ebf79326e780c390304,,,,,,,,,,,,,,,,,,,,,233.9281,233.9281,233.9289,234.9767,1,0,right,0.5173,,234.9783,234.9787,,0,,234.9789,234.9792,,1,,1,234.9792,234.9792,234.9793,236.4757,0,47,47,47,1,0.8,0.2,0.8,0.2,1,0,,,,,,,,,,,,,,,,,,,,,,,,,,,,,,,,,,,,
,,667783ecd51176477fc57977,66fc998046fcc5b0e60e50d4,2024-10-02_09h54.55.563,mdp,2024.2.1,Win32,60.24096386,66fa4ebf79326e780c390304,,,,,,,,,,,,,,,,,,,,,236.4762,236.4763,236.4779,237.3756,1,0,right,0.3655,,237.3775,237.378,,1,,237.3783,237.3785,,1,,1,237.3785,237.3785,237.3788,238.8757,0,48,48,48,1,0.8,0.2,0.8,0.2,1,0,,,,,,,,,,,,,,,,,,,,,,,,,,,,,,,,,,,,
,,667783ecd51176477fc57977,66fc998046fcc5b0e60e50d4,2024-10-02_09h54.55.563,mdp,2024.2.1,Win32,60.24096386,66fa4ebf79326e780c390304,,,,,,,,,,,,,,,,,,,,,238.8765,238.8765,238.8778,239.7752,1,0,right,0.3756,,239.777,239.7775,,1,,239.7777,239.7779,,0,,1,239.778,239.778,239.7782,241.2758,0,49,49,49,1,0.8,0.2,0.8,0.2,1,0,,,,,,,,,,,,,,,,,,,,,,,,,,,,,,,,,,,,
,,667783ecd51176477fc57977,66fc998046fcc5b0e60e50d4,2024-10-02_09h54.55.563,mdp,2024.2.1,Win32,60.24096386,66fa4ebf79326e780c390304,,,,,,,,,,,,,,,,,,,,,,,,,,,,,,,,,,,,,,,,,,,,,,,,,,,,,,,,241.2771,299.7837,0,0,0,4,1,imgs/giraffe.png,imgs/horse.png,imgs/lion.png,imgs/elephant.png,imgs/rabbit.png,,,,,,,,,,,,,,,,,,,,,,,,
,,667783ecd51176477fc57977,66fc998046fcc5b0e60e50d4,2024-10-02_09h54.55.563,mdp,2024.2.1,Win32,60.24096386,66fa4ebf79326e780c390304,,,,,,,,,,,,,,2,seqs/st2seq35.csv,299.7847,302.0662,space,1.7511,,302.0693,302.0693,302.0698,305.6656,1,1,right,3.051,,305.6671,306.6154,1,0,right,306.6169,306.6174,,0,,1,306.6174,306.6174,306.6177,308.1144,0,0,0,0,1,0.8,0.2,0.2,0.8,,,,,,,,,,,,,,,0.4004,,0.2,0.8,0.6,0.4,0.6,0.4,0.8,0.2,1,0,,,,,,,,,,,,
,,667783ecd51176477fc57977,66fc998046fcc5b0e60e50d4,2024-10-02_09h54.55.563,mdp,2024.2.1,Win32,60.24096386,66fa4ebf79326e780c390304,,,,,,,,,,,,,,,,,,,,,308.1158,308.1158,308.117,309.0141,1,1,right,0.3749,,309.0162,309.831,1,0,right,309.8327,309.8331,,0,,1,309.8331,309.8331,309.8334,311.3304,0,1,1,1,1,0.8,0.2,0.2,0.8,,,,,,,,,,,,,,,0.2879,,0.2,0.8,0.6,0.4,0.6,0.4,0.8,0.2,1,0,,,,,,,,,,,,
,,667783ecd51176477fc57977,66fc998046fcc5b0e60e50d4,2024-10-02_09h54.55.563,mdp,2024.2.1,Win32,60.24096386,66fa4ebf79326e780c390304,,,,,,,,,,,,,,,,,,,,,311.3311,311.3311,311.3325,311.9972,1,1,right,0.1348,,311.9992,313.1147,1,0,right,313.1157,313.1163,,0,,1,313.1163,313.1163,313.1166,314.6137,0,2,2,2,1,0.8,0.2,0.2,0.8,,,,,,,,,,,,,,,0.5893,,0.4,0.6,0.4,0.6,0.6,0.4,0.8,0.2,1,0,,,,,,,,,,,,
,,667783ecd51176477fc57977,66fc998046fcc5b0e60e50d4,2024-10-02_09h54.55.563,mdp,2024.2.1,Win32,60.24096386,66fa4ebf79326e780c390304,,,,,,,,,,,,,,,,,,,,,314.6145,314.6145,314.6156,315.313,1,0,right,0.1778,,315.315,317.1797,1,0,right,317.1817,317.1821,,0,,1,317.1821,317.1821,317.1824,318.6794,0,3,3,3,1,0.8,0.2,0.2,0.8,,,,,,,,,,,,,,,1.3407,,0.4,0.6,0.4,0.6,0.6,0.4,0.8,0.2,1,0,,,,,,,,,,,,
,,667783ecd51176477fc57977,66fc998046fcc5b0e60e50d4,2024-10-02_09h54.55.563,mdp,2024.2.1,Win32,60.24096386,66fa4ebf79326e780c390304,,,,,,,,,,,,,,,,,,,,,318.6801,318.6801,318.6815,319.3468,1,1,right,0.1399,,319.3481,319.9291,1,0,right,319.9311,319.9314,,1,,1,319.9315,319.9315,319.9318,321.4292,0,4,4,4,1,0.8,0.2,0.2,0.8,,,,,,,,,,,,,,,0.0341,,0.4,0.6,0.4,0.6,0.6,0.4,0.8,0.2,1,0,,,,,,,,,,,,
,,667783ecd51176477fc57977,66fc998046fcc5b0e60e50d4,2024-10-02_09h54.55.563,mdp,2024.2.1,Win32,60.24096386,66fa4ebf79326e780c390304,,,,,,,,,,,,,,,,,,,,,321.4302,321.4302,321.4312,322.8788,1,1,right,0.9168,,322.8805,323.7953,1,0,right,323.7974,323.7979,,0,,1,323.7979,323.7979,323.7982,325.2955,0,5,5,5,1,0.8,0.2,0.2,0.8,,,,,,,,,,,,,,,0.3896,,0.4,0.6,0.4,0.6,0.6,0.4,0.8,0.2,1,0,,,,,,,,,,,,
,,667783ecd51176477fc57977,66fc998046fcc5b0e60e50d4,2024-10-02_09h54.55.563,mdp,2024.2.1,Win32,60.24096386,66fa4ebf79326e780c390304,,,,,,,,,,,,,,,,,,,,,325.2965,325.2966,325.2976,326.1947,1,1,right,0.3758,,326.1967,327.5283,1,0,right,327.5299,327.5303,,1,,1,327.5303,327.5303,327.5305,329.0281,0,6,6,6,1,0.8,0.2,0.2,0.8,,,,,,,,,,,,,,,0.8169,,0.4,0.6,0.4,0.6,0.6,0.4,0.8,0.2,1,0,,,,,,,,,,,,
,,667783ecd51176477fc57977,66fc998046fcc5b0e60e50d4,2024-10-02_09h54.55.563,mdp,2024.2.1,Win32,60.24096386,66fa4ebf79326e780c390304,,,,,,,,,,,,,,,,,,,,,329.029,329.0291,329.0301,329.8949,1,1,right,0.335,,329.8965,331.6608,1,1,right,331.6627,331.6631,,0,,0,331.6631,331.6631,331.6634,333.1602,0,7,7,7,1,0.8,0.2,0.2,0.8,,,,,,,,,,,,,,,1.2353,,0.4,0.6,0.4,0.6,0.6,0.4,0.8,0.2,1,0,,,,,,,,,,,,
,,667783ecd51176477fc57977,66fc998046fcc5b0e60e50d4,2024-10-02_09h54.55.563,mdp,2024.2.1,Win32,60.24096386,66fa4ebf79326e780c390304,,,,,,,,,,,,,,,,,,,,,333.1608,333.1608,333.1624,334.1102,1,1,right,0.4177,,334.1125,335.1778,1,1,right,335.1793,335.1798,,0,,0,335.1798,335.1798,335.1801,336.6769,0,8,8,8,1,0.8,0.2,0.2,0.8,,,,,,,,,,,,,,,0.5499,,0.4,0.6,0.4,0.6,0.8,0.2,0.2,0.8,1,0,,,,,,,,,,,,
,,667783ecd51176477fc57977,66fc998046fcc5b0e60e50d4,2024-10-02_09h54.55.563,mdp,2024.2.1,Win32,60.24096386,66fa4ebf79326e780c390304,,,,,,,,,,,,,,,,,,,,,336.6777,336.6777,336.6785,337.6765,1,0,right,0.4671,,337.6784,338.4438,1,0,right,338.4453,338.4456,,0,,1,338.4456,338.4456,338.4459,339.9426,0,9,9,9,1,0.8,0.2,0.2,0.8,,,,,,,,,,,,,,,0.2224,,0.4,0.6,0.4,0.6,0.8,0.2,0.2,0.8,1,0,,,,,,,,,,,,
,,667783ecd51176477fc57977,66fc998046fcc5b0e60e50d4,2024-10-02_09h54.55.563,mdp,2024.2.1,Win32,60.24096386,66fa4ebf79326e780c390304,,,,,,,,,,,,,,,,,,,,,339.9433,339.9433,339.9448,340.6257,1,1,right,0.1608,,340.6276,341.4424,1,1,right,341.4445,341.4449,,1,,0,341.4449,341.4449,341.4452,342.9421,0,10,10,10,1,0.8,0.2,0.2,0.8,,,,,,,,,,,,,,,0.2844,,0.4,0.6,0.4,0.6,0.8,0.2,0.2,0.8,1,0,,,,,,,,,,,,
,,667783ecd51176477fc57977,66fc998046fcc5b0e60e50d4,2024-10-02_09h54.55.563,mdp,2024.2.1,Win32,60.24096386,66fa4ebf79326e780c390304,,,,,,,,,,,,,,,,,,,,,342.9428,342.9428,342.9444,343.7096,1,1,right,0.2426,,343.7108,344.4753,1,1,right,344.4771,344.4775,,1,,0,344.4776,344.4776,344.4779,345.9749,0,11,11,11,1,0.8,0.2,0.2,0.8,,,,,,,,,,,,,,,0.2427,,0.4,0.6,0.4,0.6,0.8,0.2,0.2,0.8,1,0,,,,,,,,,,,,
,,667783ecd51176477fc57977,66fc998046fcc5b0e60e50d4,2024-10-02_09h54.55.563,mdp,2024.2.1,Win32,60.24096386,66fa4ebf79326e780c390304,,,,,,,,,,,,,,,,,,,,,345.9753,345.9753,345.9772,346.7751,1,1,right,0.2788,,346.7769,347.608,1,1,right,347.6099,347.6103,,1,,0,347.6103,347.6103,347.6105,349.1077,0,12,12,12,1,0.8,0.2,0.2,0.8,,,,,,,,,,,,,,,0.317,,0.4,0.6,0.4,0.6,0.8,0.2,0.2,0.8,1,0,,,,,,,,,,,,
,,667783ecd51176477fc57977,66fc998046fcc5b0e60e50d4,2024-10-02_09h54.55.563,mdp,2024.2.1,Win32,60.24096386,66fa4ebf79326e780c390304,,,,,,,,,,,,,,,,,,,,,349.1084,349.1084,349.1101,349.9076,1,1,right,0.2728,,349.9095,350.7249,1,1,right,350.7264,350.7268,,1,,0,350.7268,350.7268,350.7272,352.224,0,13,13,13,1,0.8,0.2,0.2,0.8,,,,,,,,,,,,,,,0.2839,,0.4,0.6,0.4,0.6,0.8,0.2,0.2,0.8,1,0,,,,,,,,,,,,
,,667783ecd51176477fc57977,66fc998046fcc5b0e60e50d4,2024-10-02_09h54.55.563,mdp,2024.2.1,Win32,60.24096386,66fa4ebf79326e780c390304,,,,,,,,,,,,,,,,,,,,,352.2245,352.2246,352.2261,353.0411,0,0,left,0.2865,,353.043,353.824,0,0,left,353.8258,353.8261,,1,,1,353.8261,353.8261,353.8264,355.3235,0,14,14,14,1,0.8,0.2,0.2,0.8,,,,,,,,,,,,,,,0.2346,,0.4,0.6,0.4,0.6,0.8,0.2,0.2,0.8,1,0,,,,,,,,,,,,
,,667783ecd51176477fc57977,66fc998046fcc5b0e60e50d4,2024-10-02_09h54.55.563,mdp,2024.2.1,Win32,60.24096386,66fa4ebf79326e780c390304,,,,,,,,,,,,,,,,,,,,,355.3242,355.3242,355.3258,355.9903,0,1,left,0.1371,,355.9921,356.7399,0,0,left,356.742,356.7425,,0,,1,356.7425,356.7425,356.7427,358.24,0,15,15,15,1,0.8,0.2,0.2,0.8,,,,,,,,,,,,,,,0.2093,,0.4,0.6,0.4,0.6,0.8,0.2,0.2,0.8,1,0,,,,,,,,,,,,
,,667783ecd51176477fc57977,66fc998046fcc5b0e60e50d4,2024-10-02_09h54.55.563,mdp,2024.2.1,Win32,60.24096386,66fa4ebf79326e780c390304,,,,,,,,,,,,,,,,,,,,,358.2412,358.2413,358.2422,358.8232,0,0,left,0.055,,358.825,359.4731,0,1,left,359.4749,359.4753,,1,,0,359.4753,359.4753,359.4755,360.9725,0,16,16,16,1,0.8,0.2,0.2,0.8,,,,,,,,,,,,,,,0.1048,,0.4,0.6,0.4,0.6,0.8,0.2,0.2,0.8,1,0,,,,,,,,,,,,
,,667783ecd51176477fc57977,66fc998046fcc5b0e60e50d4,2024-10-02_09h54.55.563,mdp,2024.2.1,Win32,60.24096386,66fa4ebf79326e780c390304,,,,,,,,,,,,,,,,,,,,,360.9731,360.9731,360.9746,361.539,0,0,left,0.0448,,361.5409,362.1732,0,0,left,362.1745,362.1748,,0,,1,362.1748,362.1749,362.1752,363.6725,0,17,17,17,1,0.8,0.2,0.2,0.8,,,,,,,,,,,,,,,0.1174,,0.4,0.6,0.4,0.6,0.8,0.2,0.2,0.8,1,0,,,,,,,,,,,,
,,667783ecd51176477fc57977,66fc998046fcc5b0e60e50d4,2024-10-02_09h54.55.563,mdp,2024.2.1,Win32,60.24096386,66fa4ebf79326e780c390304,,,,,,,,,,,,,,,,,,,,,363.6733,363.6734,363.6745,364.2885,0,0,left,0.0949,,364.2904,364.8387,0,0,left,364.8406,364.841,,1,,1,364.841,364.841,364.8412,366.339,0,18,18,18,1,0.8,0.2,0.2,0.8,,,,,,,,,,,,,,,0.0409,,0.4,0.6,0.4,0.6,0.4,0.6,0.8,0.2,1,0,,,,,,,,,,,,
,,667783ecd51176477fc57977,66fc998046fcc5b0e60e50d4,2024-10-02_09h54.55.563,mdp,2024.2.1,Win32,60.24096386,66fa4ebf79326e780c390304,,,,,,,,,,,,,,,,,,,,,366.34,366.34,366.3405,366.9882,0,0,left,0.1222,,366.9902,367.738,0,1,left,367.7398,367.7403,,1,,0,367.7403,367.7403,367.7406,369.2378,0,19,19,19,1,0.8,0.2,0.2,0.8,,,,,,,,,,,,,,,0.2438,,0.4,0.6,0.4,0.6,0.6,0.4,0.4,0.6,1,0,,,,,,,,,,,,
,,667783ecd51176477fc57977,66fc998046fcc5b0e60e50d4,2024-10-02_09h54.55.563,mdp,2024.2.1,Win32,60.24096386,66fa4ebf79326e780c390304,,,,,,,,,,,,,,,,,,,,,369.2386,369.2386,369.2401,369.9209,0,1,left,0.1603,,369.9229,370.7054,0,0,left,370.7066,370.707,,1,,1,370.707,370.707,370.7073,372.2047,0,20,20,20,1,0.8,0.2,0.2,0.8,,,,,,,,,,,,,,,0.2339,,0.4,0.6,0.4,0.6,0.6,0.4,0.4,0.6,1,0,,,,,,,,,,,,
,,667783ecd51176477fc57977,66fc998046fcc5b0e60e50d4,2024-10-02_09h54.55.563,mdp,2024.2.1,Win32,60.24096386,66fa4ebf79326e780c390304,,,,,,,,,,,,,,,,,,,,,372.2058,372.2058,372.2064,372.9048,0,0,left,0.1673,,372.9062,373.4705,0,0,left,373.4725,373.4729,,1,,1,373.4729,373.4729,373.4733,374.9703,0,21,21,21,1,0.8,0.2,0.2,0.8,,,,,,,,,,,,,,,0.0279,,0.4,0.6,0.4,0.6,0.6,0.4,0.4,0.6,1,0,,,,,,,,,,,,
,,667783ecd51176477fc57977,66fc998046fcc5b0e60e50d4,2024-10-02_09h54.55.563,mdp,2024.2.1,Win32,60.24096386,66fa4ebf79326e780c390304,,,,,,,,,,,,,,,,,,,,,374.9714,374.9714,374.9728,375.7034,0,0,left,0.2048,,375.705,376.22,0,1,left,376.2222,376.2226,,1,,0,376.2226,376.2226,376.2229,377.7204,0,22,22,22,1,0.8,0.2,0.2,0.8,,,,,,,,,,,,,,,0.003,,0.4,0.6,0.4,0.6,0.6,0.4,0.4,0.6,1,0,,,,,,,,,,,,
,,667783ecd51176477fc57977,66fc998046fcc5b0e60e50d4,2024-10-02_09h54.55.563,mdp,2024.2.1,Win32,60.24096386,66fa4ebf79326e780c390304,,,,,,,,,,,,,,,,,,,,,377.7214,377.7214,377.7221,378.2863,0,0,left,0.0371,,378.2885,378.853,0,0,left,378.8552,378.8556,,0,,1,378.8556,378.8556,378.8558,380.3531,0,23,23,23,1,0.8,0.2,0.2,0.8,,,,,,,,,,,,,,,0.0569,,0.4,0.6,0.4,0.6,0.6,0.4,0.4,0.6,1,0,,,,,,,,,,,,
,,667783ecd51176477fc57977,66fc998046fcc5b0e60e50d4,2024-10-02_09h54.55.563,mdp,2024.2.1,Win32,60.24096386,66fa4ebf79326e780c390304,,,,,,,,,,,,,,,,,,,,,380.3545,380.3545,380.3552,381.1035,0,0,left,0.2187,,381.1053,381.6528,0,0,left,381.6547,381.6551,,1,,1,381.6552,381.6552,381.6555,383.1529,0,24,24,24,1,0.8,0.2,0.2,0.8,,,,,,,,,,,,,,,0.0209,,0.2,0.8,0.8,0.2,0.6,0.4,0.4,0.6,1,0,,,,,,,,,,,,
,,667783ecd51176477fc57977,66fc998046fcc5b0e60e50d4,2024-10-02_09h54.55.563,mdp,2024.2.1,Win32,60.24096386,66fa4ebf79326e780c390304,,,,,,,,,,,,,,,,,,,,,383.154,383.154,383.1548,383.7188,0,1,left,0.0386,,383.7208,384.2856,0,0,left,384.2877,384.2882,,0,,1,384.2882,384.2882,384.2884,385.7853,0,25,25,25,1,0.8,0.2,0.2,0.8,,,,,,,,,,,,,,,0.0263,,0.2,0.8,0.8,0.2,0.6,0.4,0.4,0.6,1,0,,,,,,,,,,,,
,,667783ecd51176477fc57977,66fc998046fcc5b0e60e50d4,2024-10-02_09h54.55.563,mdp,2024.2.1,Win32,60.24096386,66fa4ebf79326e780c390304,,,,,,,,,,,,,,,,,,,,,385.786,385.786,385.7875,386.4353,0,0,left,0.1169,,386.4374,386.9858,0,1,left,386.9874,386.9877,,1,,0,386.9878,386.9878,386.9881,388.4848,0,26,26,26,1,0.8,0.2,0.2,0.8,,,,,,,,,,,,,,,0.0054,,0.2,0.8,0.8,0.2,0.6,0.4,0.4,0.6,1,0,,,,,,,,,,,,
,,667783ecd51176477fc57977,66fc998046fcc5b0e60e50d4,2024-10-02_09h54.55.563,mdp,2024.2.1,Win32,60.24096386,66fa4ebf79326e780c390304,,,,,,,,,,,,,,,,,,,,,388.4858,388.4858,388.4873,389.2516,0,0,left,0.2248,,389.254,389.9689,0,1,left,389.9702,389.9705,,1,,0,389.9706,389.9706,389.9708,391.4681,0,27,27,27,1,0.8,0.2,0.2,0.8,,,,,,,,,,,,,,,0.1882,,0.2,0.8,0.8,0.2,0.8,0.2,0.2,0.8,1,0,,,,,,,,,,,,
,,667783ecd51176477fc57977,66fc998046fcc5b0e60e50d4,2024-10-02_09h54.55.563,mdp,2024.2.1,Win32,60.24096386,66fa4ebf79326e780c390304,,,,,,,,,,,,,,,,,,,,,391.469,391.469,391.4701,392.7683,0,0,left,0.7669,,392.7699,393.3517,0,1,left,393.3531,393.3535,,1,,0,393.3535,393.3535,393.3538,394.8504,0,28,28,28,1,0.8,0.2,0.2,0.8,,,,,,,,,,,,,,,0.0536,,0.2,0.8,0.8,0.2,0.8,0.2,0.2,0.8,1,0,,,,,,,,,,,,
,,667783ecd51176477fc57977,66fc998046fcc5b0e60e50d4,2024-10-02_09h54.55.563,mdp,2024.2.1,Win32,60.24096386,66fa4ebf79326e780c390304,,,,,,,,,,,,,,,,,,,,,394.8514,394.8515,394.8527,395.6345,0,1,left,0.2511,,395.6361,396.3669,0,0,left,396.3691,396.3695,,1,,1,396.3695,396.3695,396.3698,397.8673,0,29,29,29,1,0.8,0.2,0.2,0.8,,,,,,,,,,,,,,,0.1895,,0.2,0.8,0.8,0.2,0.8,0.2,0.2,0.8,1,0,,,,,,,,,,,,
,,667783ecd51176477fc57977,66fc998046fcc5b0e60e50d4,2024-10-02_09h54.55.563,mdp,2024.2.1,Win32,60.24096386,66fa4ebf79326e780c390304,,,,,,,,,,,,,,,,,,,,,397.8684,397.8684,397.869,398.4337,0,0,left,0.0338,,398.4354,399.1664,0,0,left,399.1686,399.1689,,0,,1,399.169,399.169,399.1693,400.6669,0,30,30,30,1,0.8,0.2,0.2,0.8,,,,,,,,,,,,,,,0.1843,,0.8,0.2,0.4,0.6,0.8,0.2,0.2,0.8,1,0,,,,,,,,,,,,
,,667783ecd51176477fc57977,66fc998046fcc5b0e60e50d4,2024-10-02_09h54.55.563,mdp,2024.2.1,Win32,60.24096386,66fa4ebf79326e780c390304,,,,,,,,,,,,,,,,,,,,,400.6681,400.6681,400.6688,401.2668,0,0,left,0.067,,401.2683,402.1167,0,0,left,402.1181,402.1184,,0,,1,402.1184,402.1184,402.1187,403.6161,0,31,31,31,1,0.8,0.2,0.2,0.8,,,,,,,,,,,,,,,0.3018,,0.8,0.2,0.4,0.6,0.8,0.2,0.2,0.8,1,0,,,,,,,,,,,,
,,667783ecd51176477fc57977,66fc998046fcc5b0e60e50d4,2024-10-02_09h54.55.563,mdp,2024.2.1,Win32,60.24096386,66fa4ebf79326e780c390304,,,,,,,,,,,,,,,,,,,,,403.6175,403.6176,403.6185,404.5659,0,0,left,0.4197,,404.5678,405.5326,0,0,left,405.5343,405.5348,,0,,1,405.5349,405.5349,405.5351,407.0318,0,32,32,32,1,0.8,0.2,0.2,0.8,,,,,,,,,,,,,,,0.4343,,0.8,0.2,0.4,0.6,0.8,0.2,0.2,0.8,1,0,,,,,,,,,,,,
,,667783ecd51176477fc57977,66fc998046fcc5b0e60e50d4,2024-10-02_09h54.55.563,mdp,2024.2.1,Win32,60.24096386,66fa4ebf79326e780c390304,,,,,,,,,,,,,,,,,,,,,407.0324,407.0324,407.0341,407.8822,0,0,left,0.3175,,407.8838,408.4652,0,0,left,408.4671,408.4676,,0,,1,408.4676,408.4676,408.4679,409.9651,0,33,33,33,1,0.8,0.2,0.2,0.8,,,,,,,,,,,,,,,0.0503,,0.8,0.2,0.4,0.6,0.8,0.2,0.2,0.8,1,0,,,,,,,,,,,,
,,667783ecd51176477fc57977,66fc998046fcc5b0e60e50d4,2024-10-02_09h54.55.563,mdp,2024.2.1,Win32,60.24096386,66fa4ebf79326e780c390304,,,,,,,,,,,,,,,,,,,,,409.9664,409.9664,409.9671,410.9312,0,0,left,0.4202,,410.9335,411.5153,0,0,left,411.5166,411.517,,0,,1,411.517,411.517,411.5173,413.0147,0,34,34,34,1,0.8,0.2,0.2,0.8,,,,,,,,,,,,,,,0.0525,,0.8,0.2,0.4,0.6,0.8,0.2,0.2,0.8,1,0,,,,,,,,,,,,
,,667783ecd51176477fc57977,66fc998046fcc5b0e60e50d4,2024-10-02_09h54.55.563,mdp,2024.2.1,Win32,60.24096386,66fa4ebf79326e780c390304,,,,,,,,,,,,,,,,,,,,,413.0158,413.0158,413.0164,413.5479,0,0,left,0.0097,,413.5497,414.6979,0,0,left,414.6996,414.7001,,0,,1,414.7001,414.7001,414.7004,416.1971,0,35,35,35,1,0.8,0.2,0.2,0.8,,,,,,,,,,,,,,,0.6182,,0.8,0.2,0.4,0.6,0.2,0.8,0.4,0.6,1,0,,,,,,,,,,,,
,,667783ecd51176477fc57977,66fc998046fcc5b0e60e50d4,2024-10-02_09h54.55.563,mdp,2024.2.1,Win32,60.24096386,66fa4ebf79326e780c390304,,,,,,,,,,,,,,,,,,,,,416.1977,416.1978,416.1993,417.0635,0,1,left,0.3342,,417.0654,417.764,0,1,left,417.766,417.7666,,1,,0,417.7666,417.7666,417.767,419.2632,0,36,36,36,1,0.8,0.2,0.2,0.8,,,,,,,,,,,,,,,0.1533,,0.8,0.2,0.4,0.6,0.2,0.8,0.4,0.6,1,0,,,,,,,,,,,,
,,667783ecd51176477fc57977,66fc998046fcc5b0e60e50d4,2024-10-02_09h54.55.563,mdp,2024.2.1,Win32,60.24096386,66fa4ebf79326e780c390304,,,,,,,,,,,,,,,,,,,,,419.2638,419.2638,419.2654,419.9131,0,0,left,0.1172,,419.9152,420.451,0,0,left,420.4517,420.4521,,1,,1,420.4521,420.4521,420.4524,421.9461,0,37,37,37,1,0.8,0.2,0.2,0.8,,,,,,,,,,,,,,,0.0005,,0.8,0.2,0.4,0.6,0.2,0.8,0.4,0.6,1,0,,,,,,,,,,,,
,,667783ecd51176477fc57977,66fc998046fcc5b0e60e50d4,2024-10-02_09h54.55.563,mdp,2024.2.1,Win32,60.24096386,66fa4ebf79326e780c390304,,,,,,,,,,,,,,,,,,,,,421.9468,421.9469,421.9484,422.6128,0,0,left,0.1347,,422.6148,423.146,0,0,left,423.148,423.1484,,1,,1,423.1485,423.1485,423.1487,424.646,0,38,38,38,1,0.8,0.2,0.2,0.8,,,,,,,,,,,,,,,0.0113,,0.8,0.2,0.4,0.6,0.2,0.8,0.4,0.6,1,0,,,,,,,,,,,,
,,667783ecd51176477fc57977,66fc998046fcc5b0e60e50d4,2024-10-02_09h54.55.563,mdp,2024.2.1,Win32,60.24096386,66fa4ebf79326e780c390304,,,,,,,,,,,,,,,,,,,,,424.6468,424.6468,424.648,425.2965,0,0,left,0.1206,,425.2981,425.8287,0,1,left,425.8307,425.831,,0,,0,425.831,425.831,425.8313,427.3286,0,39,39,39,1,0.8,0.2,0.2,0.8,,,,,,,,,,,,,,,0.0084,,0.8,0.2,0.4,0.6,0.2,0.8,0.4,0.6,1,0,,,,,,,,,,,,
,,667783ecd51176477fc57977,66fc998046fcc5b0e60e50d4,2024-10-02_09h54.55.563,mdp,2024.2.1,Win32,60.24096386,66fa4ebf79326e780c390304,,,,,,,,,,,,,,,,,,,,,427.3291,427.3291,427.3306,428.1794,0,1,left,0.3187,,428.1809,428.7955,0,1,left,428.7972,428.7975,,0,,0,428.7975,428.7975,428.7978,430.295,0,40,40,40,1,0.8,0.2,0.2,0.8,,,,,,,,,,,,,,,0.0677,,0.8,0.2,0.4,0.6,0.2,0.8,0.4,0.6,1,0,,,,,,,,,,,,
,,667783ecd51176477fc57977,66fc998046fcc5b0e60e50d4,2024-10-02_09h54.55.563,mdp,2024.2.1,Win32,60.24096386,66fa4ebf79326e780c390304,,,,,,,,,,,,,,,,,,,,,430.2958,430.2958,430.2971,430.9783,0,0,left,0.1592,,430.98,431.5613,0,0,left,431.5633,431.5637,,0,,1,431.5637,431.5638,431.564,433.0618,0,41,41,41,1,0.8,0.2,0.2,0.8,,,,,,,,,,,,,,,0.0368,,0.8,0.2,0.4,0.6,0.2,0.8,0.4,0.6,1,0,,,,,,,,,,,,
,,667783ecd51176477fc57977,66fc998046fcc5b0e60e50d4,2024-10-02_09h54.55.563,mdp,2024.2.1,Win32,60.24096386,66fa4ebf79326e780c390304,,,,,,,,,,,,,,,,,,,,,433.0628,433.0628,433.0634,433.5948,0,0,left,0.0004,,433.5964,434.3442,0,0,left,434.3462,434.3467,,1,,1,434.3467,434.3467,434.347,435.844,0,42,42,42,1,0.8,0.2,0.2,0.8,,,,,,,,,,,,,,,0.2177,,0.8,0.2,0.4,0.6,0.2,0.8,0.4,0.6,1,0,,,,,,,,,,,,
,,667783ecd51176477fc57977,66fc998046fcc5b0e60e50d4,2024-10-02_09h54.55.563,mdp,2024.2.1,Win32,60.24096386,66fa4ebf79326e780c390304,,,,,,,,,,,,,,,,,,,,,435.8451,435.8452,435.8462,436.7117,0,0,left,0.3358,,436.7128,437.4773,0,0,left,437.479,437.4793,,0,,1,437.4793,437.4794,437.4796,438.9772,0,43,43,43,1,0.8,0.2,0.2,0.8,,,,,,,,,,,,,,,0.2422,,0.8,0.2,0.4,0.6,0.2,0.8,0.4,0.6,1,0,,,,,,,,,,,,
,,667783ecd51176477fc57977,66fc998046fcc5b0e60e50d4,2024-10-02_09h54.55.563,mdp,2024.2.1,Win32,60.24096386,66fa4ebf79326e780c390304,,,,,,,,,,,,,,,,,,,,,438.9785,438.9785,438.9794,439.5934,0,1,left,0.088,,439.5954,440.21,0,1,left,440.2118,440.2121,,1,,0,440.2121,440.2121,440.2123,441.7099,0,44,44,44,1,0.8,0.2,0.2,0.8,,,,,,,,,,,,,,,0.0722,,0.8,0.2,0.4,0.6,0.2,0.8,0.4,0.6,1,0,,,,,,,,,,,,
,,667783ecd51176477fc57977,66fc998046fcc5b0e60e50d4,2024-10-02_09h54.55.563,mdp,2024.2.1,Win32,60.24096386,66fa4ebf79326e780c390304,,,,,,,,,,,,,,,,,,,,,441.7109,441.711,441.7118,442.3433,0,1,left,0.1067,,442.3451,442.9436,0,0,left,442.9454,442.9458,,0,,1,442.9458,442.9458,442.946,444.4424,0,45,45,45,1,0.8,0.2,0.2,0.8,,,,,,,,,,,,,,,0.0692,,0.8,0.2,0.4,0.6,0.2,0.8,0.4,0.6,1,0,,,,,,,,,,,,
,,667783ecd51176477fc57977,66fc998046fcc5b0e60e50d4,2024-10-02_09h54.55.563,mdp,2024.2.1,Win32,60.24096386,66fa4ebf79326e780c390304,,,,,,,,,,,,,,,,,,,,,444.4426,444.4426,444.4445,445.0095,0,0,left,0.0343,,445.0113,445.659,0,0,left,445.661,445.6615,,0,,1,445.6615,445.6615,445.6617,447.1587,0,46,46,46,1,0.8,0.2,0.2,0.8,,,,,,,,,,,,,,,0.1058,,0.8,0.2,0.4,0.6,0.2,0.8,0.4,0.6,1,0,,,,,,,,,,,,
,,667783ecd51176477fc57977,66fc998046fcc5b0e60e50d4,2024-10-02_09h54.55.563,mdp,2024.2.1,Win32,60.24096386,66fa4ebf79326e780c390304,,,,,,,,,,,,,,,,,,,,,447.1597,447.1598,447.1611,447.8753,0,1,left,0.1941,,447.8773,448.4422,0,1,left,448.4442,448.4446,,1,,0,448.4446,448.4446,448.4451,449.9417,0,47,47,47,1,0.8,0.2,0.2,0.8,,,,,,,,,,,,,,,0.0179,,0.2,0.8,0.8,0.2,0.2,0.8,0.4,0.6,1,0,,,,,,,,,,,,
,,667783ecd51176477fc57977,66fc998046fcc5b0e60e50d4,2024-10-02_09h54.55.563,mdp,2024.2.1,Win32,60.24096386,66fa4ebf79326e780c390304,,,,,,,,,,,,,,,,,,,,,449.9424,449.9424,449.9438,450.8924,0,1,left,0.4223,,450.8939,451.708,0,1,left,451.7102,451.7105,,1,,0,451.7105,451.7106,451.7108,453.2078,0,48,48,48,1,0.8,0.2,0.2,0.8,,,,,,,,,,,,,,,0.2881,,0.2,0.8,0.8,0.2,0.2,0.8,0.4,0.6,1,0,,,,,,,,,,,,
,,667783ecd51176477fc57977,66fc998046fcc5b0e60e50d4,2024-10-02_09h54.55.563,mdp,2024.2.1,Win32,60.24096386,66fa4ebf79326e780c390304,,,,,,,,,,,,,,,,,,,,,453.2082,453.2082,453.21,453.8253,0,0,left,0.0884,,453.8267,454.575,0,1,left,454.5764,454.5767,,1,,0,454.5768,454.5768,454.5769,456.0748,0,49,49,49,1,0.8,0.2,0.2,0.8,,,,,,,,,,,,,,,0.211,,0.2,0.8,0.8,0.2,0.2,0.8,0.4,0.6,1,0,,,,,,,,,,,,
,,667783ecd51176477fc57977,66fc998046fcc5b0e60e50d4,2024-10-02_09h54.55.563,mdp,2024.2.1,Win32,60.24096386,66fa4ebf79326e780c390304,,,,,,,,,,,,,,,,,,,,,,,,,,,,,,,,,,,,,,,,,,,,,,,,,,,,,,,,456.0751,514.5814,0,1,1,0,1,imgs/cat.png,imgs/lion.png,imgs/goat.png,imgs/rabbit.png,imgs/horse.png,,,,,,,,,,,,,,,,,,,,,,,,
,,667783ecd51176477fc57977,66fc998046fcc5b0e60e50d4,2024-10-02_09h54.55.563,mdp,2024.2.1,Win32,60.24096386,66fa4ebf79326e780c390304,,,,,,,,,,,,,,3,seqs/st3seq34.csv,514.5834,516.8651,space,1.7585,,516.8689,516.8689,516.8694,519.5308,1,1,right,2.1331,,519.5327,520.1644,1,1,right,520.1659,520.8812,1,0,right,1,520.8813,520.8814,520.8826,522.38,0,0,0,0,1,0.2,0.8,0.6,0.4,,,,,,,,,,,,,,,0.0841,,0.8,0.2,0.4,0.6,0.8,0.2,0.2,0.8,,,0.1745,,0.8,0.2,0.4,0.6,0.6,0.4,0.8,0.2,1,0
,,667783ecd51176477fc57977,66fc998046fcc5b0e60e50d4,2024-10-02_09h54.55.563,mdp,2024.2.1,Win32,60.24096386,66fa4ebf79326e780c390304,,,,,,,,,,,,,,,,,,,,,522.3805,522.3806,522.3824,522.9968,1,0,right,0.1005,,522.9987,523.6799,1,1,right,523.6819,524.3797,1,0,right,1,524.3798,524.3798,524.3817,525.8801,0,1,1,1,1,0.2,0.8,0.6,0.4,,,,,,,,,,,,,,,0.1435,,0.8,0.2,0.4,0.6,0.8,0.2,0.2,0.8,,,0.178,,0.8,0.2,0.4,0.6,0.6,0.4,0.8,0.2,1,0
,,667783ecd51176477fc57977,66fc998046fcc5b0e60e50d4,2024-10-02_09h54.55.563,mdp,2024.2.1,Win32,60.24096386,66fa4ebf79326e780c390304,,,,,,,,,,,,,,,,,,,,,525.8814,525.8814,525.8822,526.9464,1,0,right,0.5446,,526.9483,527.5792,1,0,right,527.5811,528.2966,1,1,right,0,528.2969,528.2969,528.2982,529.7962,0,2,2,2,1,0.2,0.8,0.6,0.4,,,,,,,,,,,,,,,0.1058,,0.8,0.2,0.4,0.6,0.8,0.2,0.2,0.8,,,0.1675,,0.8,0.2,0.4,0.6,0.6,0.4,0.8,0.2,1,0
,,667783ecd51176477fc57977,66fc998046fcc5b0e60e50d4,2024-10-02_09h54.55.563,mdp,2024.2.1,Win32,60.24096386,66fa4ebf79326e780c390304,,,,,,,,,,,,,,,,,,,,,529.7974,529.7975,529.7979,530.5623,1,1,right,0.2344,,530.5644,531.1012,1,1,right,531.1018,533.1284,1,0,right,1,533.1284,533.1284,533.1304,534.6285,0,3,3,3,1,0.2,0.8,0.6,0.4,,,,,,,,,,,,,,,0.0014,,0.8,0.2,0.4,0.6,0.8,0.2,0.2,0.8,,,1.4865,,0.8,0.2,0.4,0.6,0.6,0.4,0.8,0.2,1,0
,,667783ecd51176477fc57977,66fc998046fcc5b0e60e50d4,2024-10-02_09h54.55.563,mdp,2024.2.1,Win32,60.24096386,66fa4ebf79326e780c390304,,,,,,,,,,,,,,,,,,,,,534.6298,534.6298,534.6305,535.3116,1,1,right,0.157,,535.3133,535.8612,1,1,right,535.8632,537.7943,1,1,right,0,537.7945,537.7945,537.7962,539.2947,0,4,4,4,1,0.2,0.8,0.6,0.4,,,,,,,,,,,,,,,0.0255,,0.8,0.2,0.4,0.6,0.8,0.2,0.2,0.8,,,1.4077,,0.8,0.2,0.4,0.6,0.6,0.4,0.8,0.2,1,0
,,667783ecd51176477fc57977,66fc998046fcc5b0e60e50d4,2024-10-02_09h54.55.563,mdp,2024.2.1,Win32,60.24096386,66fa4ebf79326e780c390304,,,,,,,,,,,,,,,,,,,,,539.2959,539.2959,539.2968,539.8782,1,1,right,0.0583,,539.8796,540.4776,1,1,right,540.4797,541.2105,1,0,right,1,541.2106,541.2107,541.2129,542.7102,0,5,5,5,1,0.2,0.8,0.6,0.4,,,,,,,,,,,,,,,0.0667,,0.8,0.2,0.4,0.6,0.8,0.2,0.2,0.8,,,0.2027,,0.8,0.2,0.4,0.6,0.6,0.4,0.8,0.2,1,0
,,667783ecd51176477fc57977,66fc998046fcc5b0e60e50d4,2024-10-02_09h54.55.563,mdp,2024.2.1,Win32,60.24096386,66fa4ebf79326e780c390304,,,,,,,,,,,,,,,,,,,,,542.7111,542.7111,542.7125,543.86,1,1,right,0.6268,,543.8621,544.5598,1,1,right,544.562,545.1432,1,0,right,1,545.1435,545.1435,545.1452,546.6428,0,6,6,6,1,0.8,0.2,0.4,0.6,,,,,,,,,,,,,,,0.1687,,0.8,0.2,0.4,0.6,0.8,0.2,0.2,0.8,,,0.0581,,0.8,0.2,0.4,0.6,0.6,0.4,0.8,0.2,1,0
,,667783ecd51176477fc57977,66fc998046fcc5b0e60e50d4,2024-10-02_09h54.55.563,mdp,2024.2.1,Win32,60.24096386,66fa4ebf79326e780c390304,,,,,,,,,,,,,,,,,,,,,546.6433,546.6433,546.6452,547.2761,1,0,right,0.128,,547.2783,548.6431,1,1,right,548.6448,550.4757,1,0,right,1,550.4759,550.4759,550.4779,551.9759,0,7,7,7,1,0.8,0.2,0.4,0.6,,,,,,,,,,,,,,,0.8218,,0.8,0.2,0.4,0.6,0.8,0.2,0.2,0.8,,,1.3015,,0.8,0.2,0.4,0.6,0.6,0.4,0.8,0.2,1,0
,,667783ecd51176477fc57977,66fc998046fcc5b0e60e50d4,2024-10-02_09h54.55.563,mdp,2024.2.1,Win32,60.24096386,66fa4ebf79326e780c390304,,,,,,,,,,,,,,,,,,,,,551.9773,551.9773,551.978,552.592,1,1,right,0.0836,,552.5943,553.7083,1,1,right,553.7104,554.5592,1,0,right,1,554.5594,554.5594,554.5608,556.0583,0,8,8,8,1,0.8,0.2,0.4,0.6,,,,,,,,,,,,,,,0.5719,,0.8,0.2,0.4,0.6,0.8,0.2,0.2,0.8,,,0.3171,,0.8,0.2,0.4,0.6,0.6,0.4,0.8,0.2,1,0
,,667783ecd51176477fc57977,66fc998046fcc5b0e60e50d4,2024-10-02_09h54.55.563,mdp,2024.2.1,Win32,60.24096386,66fa4ebf79326e780c390304,,,,,,,,,,,,,,,,,,,,,556.0592,556.0592,556.0605,557.7089,1,0,right,1.1166,,557.7103,558.2754,1,1,right,558.2766,558.9414,1,0,right,1,558.9416,558.9416,558.9432,560.4408,0,9,9,9,1,0.8,0.2,0.4,0.6,,,,,,,,,,,,,,,0.0175,,0.8,0.2,0.4,0.6,0.8,0.2,0.2,0.8,,,0.1336,,0.8,0.2,0.4,0.6,0.6,0.4,0.8,0.2,1,0
,,667783ecd51176477fc57977,66fc998046fcc5b0e60e50d4,2024-10-02_09h54.55.563,mdp,2024.2.1,Win32,60.24096386,66fa4ebf79326e780c390304,,,,,,,,,,,,,,,,,,,,,560.4415,560.4415,560.4428,561.0912,1,0,right,0.1174,,561.0928,561.7572,1,1,right,561.7591,562.408,1,0,right,1,562.4082,562.4082,562.4093,563.9068,0,10,10,10,1,0.8,0.2,0.4,0.6,,,,,,,,,,,,,,,0.1337,,0.8,0.2,0.4,0.6,0.8,0.2,0.2,0.8,,,0.1337,,0.8,0.2,0.4,0.6,0.6,0.4,0.8,0.2,1,0
,,667783ecd51176477fc57977,66fc998046fcc5b0e60e50d4,2024-10-02_09h54.55.563,mdp,2024.2.1,Win32,60.24096386,66fa4ebf79326e780c390304,,,,,,,,,,,,,,,,,,,,,563.9074,563.9074,563.9088,564.6238,1,0,right,0.1866,,564.6257,565.3566,1,1,right,565.3586,565.8759,1,0,right,1,565.8759,565.8759,565.8764,567.377,0,11,11,11,1,0.8,0.2,0.4,0.6,,,,,,,,,,,,,,,0.2012,,0.8,0.2,0.4,0.6,0.8,0.2,0.2,0.8,,,0.0003,,0.8,0.2,0.4,0.6,0.6,0.4,0.8,0.2,1,0
,,667783ecd51176477fc57977,66fc998046fcc5b0e60e50d4,2024-10-02_09h54.55.563,mdp,2024.2.1,Win32,60.24096386,66fa4ebf79326e780c390304,,,,,,,,,,,,,,,,,,,,,567.3773,567.3773,567.3778,567.9895,1,1,right,0.0922,,567.9917,568.6228,1,1,right,568.6249,569.2061,1,0,right,1,569.2063,569.2063,569.2081,570.7065,0,12,12,12,1,0.8,0.2,0.4,0.6,,,,,,,,,,,,,,,0.0839,,0.8,0.2,0.4,0.6,0.8,0.2,0.2,0.8,,,0.0504,,0.8,0.2,0.4,0.6,0.6,0.4,0.8,0.2,1,0
,,667783ecd51176477fc57977,66fc998046fcc5b0e60e50d4,2024-10-02_09h54.55.563,mdp,2024.2.1,Win32,60.24096386,66fa4ebf79326e780c390304,,,,,,,,,,,,,,,,,,,,,570.7076,570.7077,570.7083,571.3561,1,1,right,0.122,,571.3578,571.9054,1,1,right,571.9072,572.572,1,0,right,1,572.5721,572.5721,572.574,574.0722,0,13,13,13,1,0.8,0.2,0.4,0.6,,,,,,,,,,,,,,,0.0282,,0.8,0.2,0.4,0.6,0.8,0.2,0.2,0.8,,,0.1611,,0.8,0.2,0.4,0.6,0.2,0.8,0.4,0.6,1,0
,,667783ecd51176477fc57977,66fc998046fcc5b0e60e50d4,2024-10-02_09h54.55.563,mdp,2024.2.1,Win32,60.24096386,66fa4ebf79326e780c390304,,,,,,,,,,,,,,,,,,,,,574.0736,574.0736,574.0743,574.7718,1,1,right,0.1728,,574.7737,575.4891,1,1,right,575.4908,576.0717,1,1,right,0,576.0718,576.0719,576.0738,577.5716,0,14,14,14,1,0.8,0.2,0.4,0.6,,,,,,,,,,,,,,,0.1835,,0.8,0.2,0.4,0.6,0.8,0.2,0.2,0.8,,,0.0521,,0.8,0.2,0.4,0.6,0.2,0.8,0.4,0.6,1,0
,,667783ecd51176477fc57977,66fc998046fcc5b0e60e50d4,2024-10-02_09h54.55.563,mdp,2024.2.1,Win32,60.24096386,66fa4ebf79326e780c390304,,,,,,,,,,,,,,,,,,,,,577.5726,577.5727,577.5738,578.2215,1,0,right,0.127,,578.2233,578.7591,1,0,right,578.7597,579.3713,1,1,right,0,579.3715,579.3715,579.373,580.8708,0,15,15,15,1,0.8,0.2,0.4,0.6,,,,,,,,,,,,,,,0.0004,,0.8,0.2,0.4,0.6,0.8,0.2,0.2,0.8,,,0.0738,,0.8,0.2,0.4,0.6,0.2,0.8,0.4,0.6,1,0
,,667783ecd51176477fc57977,66fc998046fcc5b0e60e50d4,2024-10-02_09h54.55.563,mdp,2024.2.1,Win32,60.24096386,66fa4ebf79326e780c390304,,,,,,,,,,,,,,,,,,,,,580.8719,580.872,580.8731,581.5213,1,1,right,0.1226,,581.5229,582.1041,1,0,right,582.1061,582.8711,1,1,right,0,582.8713,582.8713,582.8727,584.3702,0,16,16,16,1,0.8,0.2,0.4,0.6,,,,,,,,,,,,,,,0.0353,,0.8,0.2,0.4,0.6,0.8,0.2,0.2,0.8,,,0.2342,,0.8,0.2,0.4,0.6,0.2,0.8,0.4,0.6,1,0
,,667783ecd51176477fc57977,66fc998046fcc5b0e60e50d4,2024-10-02_09h54.55.563,mdp,2024.2.1,Win32,60.24096386,66fa4ebf79326e780c390304,,,,,,,,,,,,,,,,,,,,,584.3708,584.3708,584.3723,584.9206,1,1,right,0.0194,,584.9223,585.4541,1,1,right,585.4557,586.12,1,1,right,0,586.1201,586.1202,586.1219,587.6197,0,17,17,17,1,0.8,0.2,0.4,0.6,,,,,,,,,,,,,,,0.0004,,0.8,0.2,0.4,0.6,0.8,0.2,0.2,0.8,,,0.1189,,0.8,0.2,0.4,0.6,0.2,0.8,0.4,0.6,1,0
,,667783ecd51176477fc57977,66fc998046fcc5b0e60e50d4,2024-10-02_09h54.55.563,mdp,2024.2.1,Win32,60.24096386,66fa4ebf79326e780c390304,,,,,,,,,,,,,,,,,,,,,587.6203,587.6203,587.6219,588.2366,1,0,right,0.084,,588.2382,588.8363,1,1,right,588.8382,589.4862,1,1,right,0,589.4864,589.4864,589.4882,590.9864,0,18,18,18,1,0.8,0.2,0.4,0.6,,,,,,,,,,,,,,,0.0731,,0.8,0.2,0.4,0.6,0.4,0.6,0.4,0.6,,,0.1284,,0.8,0.2,0.4,0.6,0.2,0.8,0.4,0.6,1,0
,,667783ecd51176477fc57977,66fc998046fcc5b0e60e50d4,2024-10-02_09h54.55.563,mdp,2024.2.1,Win32,60.24096386,66fa4ebf79326e780c390304,,,,,,,,,,,,,,,,,,,,,590.9878,590.9878,590.9883,591.7189,1,0,right,0.2005,,591.7211,592.2862,1,0,right,592.288,592.9356,1,1,right,0,592.9356,592.9356,592.9378,594.4354,0,19,19,19,1,0.8,0.2,0.4,0.6,,,,,,,,,,,,,,,0.0532,,0.8,0.2,0.4,0.6,0.4,0.6,0.4,0.6,,,0.1087,,0.8,0.2,0.4,0.6,0.2,0.8,0.4,0.6,1,0
,,667783ecd51176477fc57977,66fc998046fcc5b0e60e50d4,2024-10-02_09h54.55.563,mdp,2024.2.1,Win32,60.24096386,66fa4ebf79326e780c390304,,,,,,,,,,,,,,,,,,,,,594.4362,594.4363,594.4377,595.0684,1,0,right,0.1111,,595.0702,595.6018,1,1,right,595.604,596.2683,1,0,right,1,596.2684,596.2684,596.2704,597.7684,0,20,20,20,1,0.8,0.2,0.4,0.6,,,,,,,,,,,,,,,0.0095,,0.8,0.2,0.4,0.6,0.4,0.6,0.4,0.6,,,0.1176,,0.8,0.2,0.4,0.6,0.2,0.8,0.4,0.6,1,0
,,667783ecd51176477fc57977,66fc998046fcc5b0e60e50d4,2024-10-02_09h54.55.563,mdp,2024.2.1,Win32,60.24096386,66fa4ebf79326e780c390304,,,,,,,,,,,,,,,,,,,,,597.7695,597.7695,597.7705,598.3853,1,1,right,0.0839,,598.387,598.9229,1,1,right,598.9237,599.852,1,1,right,0,599.8523,599.8524,599.8533,601.3507,0,21,21,21,1,0.8,0.2,0.4,0.6,,,,,,,,,,,,,,,0.0004,,0.8,0.2,0.4,0.6,0.4,0.6,0.4,0.6,,,0.4006,,0.8,0.2,0.4,0.6,0.2,0.8,0.4,0.6,1,0
,,667783ecd51176477fc57977,66fc998046fcc5b0e60e50d4,2024-10-02_09h54.55.563,mdp,2024.2.1,Win32,60.24096386,66fa4ebf79326e780c390304,,,,,,,,,,,,,,,,,,,,,601.3515,601.3515,601.353,602.2675,1,1,right,0.3834,,602.2696,602.9505,1,1,right,602.9525,603.6007,1,1,right,0,603.601,603.601,603.6027,605.1011,0,22,22,22,1,0.8,0.2,0.4,0.6,,,,,,,,,,,,,,,0.1615,,0.8,0.2,0.4,0.6,0.4,0.6,0.4,0.6,,,0.122,,0.8,0.2,0.4,0.6,0.2,0.8,0.4,0.6,1,0
,,667783ecd51176477fc57977,66fc998046fcc5b0e60e50d4,2024-10-02_09h54.55.563,mdp,2024.2.1,Win32,60.24096386,66fa4ebf79326e780c390304,,,,,,,,,,,,,,,,,,,,,605.1021,605.1021,605.1026,606.5337,1,1,right,0.9052,,606.5356,607.367,1,1,right,607.3687,608.2004,1,1,right,0,608.2005,608.2005,608.202,609.7001,0,23,23,23,1,0.8,0.2,0.4,0.6,,,,,,,,,,,,,,,0.3012,,0.8,0.2,0.4,0.6,0.4,0.6,0.4,0.6,,,0.3036,,0.4,0.6,0.8,0.2,0.2,0.8,0.4,0.6,1,0
,,667783ecd51176477fc57977,66fc998046fcc5b0e60e50d4,2024-10-02_09h54.55.563,mdp,2024.2.1,Win32,60.24096386,66fa4ebf79326e780c390304,,,,,,,,,,,,,,,,,,,,,609.7012,609.7012,609.7019,610.416,1,1,right,0.1911,,610.4179,610.9665,1,1,right,610.9682,611.8004,1,1,right,0,611.8007,611.8007,611.8015,613.2992,0,24,24,24,1,0.8,0.2,0.4,0.6,,,,,,,,,,,,,,,0.0177,,0.8,0.2,0.4,0.6,0.4,0.6,0.4,0.6,,,0.3003,,0.4,0.6,0.8,0.2,0.2,0.8,0.4,0.6,1,0
,,667783ecd51176477fc57977,66fc998046fcc5b0e60e50d4,2024-10-02_09h54.55.563,mdp,2024.2.1,Win32,60.24096386,66fa4ebf79326e780c390304,,,,,,,,,,,,,,,,,,,,,613.3004,613.3004,613.3011,613.9322,0,0,left,0.1061,,613.9343,614.5487,0,0,left,614.5506,615.1319,0,1,left,0,615.1319,615.1319,615.134,616.6317,0,25,25,25,1,0.8,0.2,0.4,0.6,,,,,,,,,,,,,,,0.0676,,0.8,0.2,0.4,0.6,0.4,0.6,0.4,0.6,,,0.0446,,0.4,0.6,0.8,0.2,0.2,0.8,0.4,0.6,1,0
,,667783ecd51176477fc57977,66fc998046fcc5b0e60e50d4,2024-10-02_09h54.55.563,mdp,2024.2.1,Win32,60.24096386,66fa4ebf79326e780c390304,,,,,,,,,,,,,,,,,,,,,616.6324,616.6324,616.634,617.1821,0,1,left,0.0246,,617.1838,617.8321,0,1,left,617.8336,618.5325,0,1,left,0,618.5327,618.5328,618.5337,620.0311,0,26,26,26,1,0.8,0.2,0.4,0.6,,,,,,,,,,,,,,,0.1048,,0.8,0.2,0.4,0.6,0.4,0.6,0.4,0.6,,,0.1534,,0.4,0.6,0.8,0.2,0.2,0.8,0.4,0.6,1,0
,,667783ecd51176477fc57977,66fc998046fcc5b0e60e50d4,2024-10-02_09h54.55.563,mdp,2024.2.1,Win32,60.24096386,66fa4ebf79326e780c390304,,,,,,,,,,,,,,,,,,,,,620.0317,620.0318,620.0334,620.8818,0,0,left,0.3189,,620.8834,621.5143,0,1,left,621.5162,622.1811,0,0,left,1,622.1813,622.1813,622.1833,623.6809,0,27,27,27,1,0.8,0.2,0.4,0.6,,,,,,,,,,,,,,,0.0945,,0.8,0.2,0.4,0.6,0.4,0.6,0.4,0.6,,,0.1542,,0.4,0.6,0.8,0.2,0.6,0.4,0.2,0.8,1,0
,,667783ecd51176477fc57977,66fc998046fcc5b0e60e50d4,2024-10-02_09h54.55.563,mdp,2024.2.1,Win32,60.24096386,66fa4ebf79326e780c390304,,,,,,,,,,,,,,,,,,,,,623.6821,623.6822,623.683,624.2474,0,1,left,0.041,,624.2493,624.814,0,1,left,624.8159,625.4974,0,0,left,1,625.4977,625.4977,625.4993,626.9976,0,28,28,28,1,0.8,0.2,0.4,0.6,,,,,,,,,,,,,,,0.0213,,0.8,0.2,0.4,0.6,0.4,0.6,0.4,0.6,,,0.1515,,0.4,0.6,0.8,0.2,0.6,0.4,0.2,0.8,1,0
,,667783ecd51176477fc57977,66fc998046fcc5b0e60e50d4,2024-10-02_09h54.55.563,mdp,2024.2.1,Win32,60.24096386,66fa4ebf79326e780c390304,,,,,,,,,,,,,,,,,,,,,626.9986,626.9986,626.9991,627.73,0,0,left,0.2004,,627.7323,628.4132,0,0,left,628.4153,629.6801,0,0,left,1,629.6804,629.6804,629.6821,631.1795,0,29,29,29,1,0.8,0.2,0.4,0.6,,,,,,,,,,,,,,,0.135,,0.8,0.2,0.4,0.6,0.4,0.6,0.4,0.6,,,0.7178,,0.4,0.6,0.8,0.2,0.6,0.4,0.2,0.8,1,0
,,667783ecd51176477fc57977,66fc998046fcc5b0e60e50d4,2024-10-02_09h54.55.563,mdp,2024.2.1,Win32,60.24096386,66fa4ebf79326e780c390304,,,,,,,,,,,,,,,,,,,,,631.1808,631.1808,631.1817,632.1308,0,0,left,0.4284,,632.1318,632.8457,0,0,left,632.8478,633.5132,0,1,left,0,633.5134,633.5134,633.5147,635.012,0,30,30,30,1,0.8,0.2,0.4,0.6,,,,,,,,,,,,,,,0.1947,,0.8,0.2,0.4,0.6,0.4,0.6,0.4,0.6,,,0.1503,,0.4,0.6,0.8,0.2,0.6,0.4,0.2,0.8,1,0
,,667783ecd51176477fc57977,66fc998046fcc5b0e60e50d4,2024-10-02_09h54.55.563,mdp,2024.2.1,Win32,60.24096386,66fa4ebf79326e780c390304,,,,,,,,,,,,,,,,,,,,,635.0127,635.0127,635.0143,635.5458,0,0,left,0.0006,,635.5476,636.1457,0,1,left,636.1476,636.7791,0,0,left,1,636.7793,636.7794,636.7807,638.2785,0,31,31,31,1,0.8,0.2,0.4,0.6,,,,,,,,,,,,,,,0.0738,,0.8,0.2,0.4,0.6,0.4,0.6,0.4,0.6,,,0.0846,,0.4,0.6,0.8,0.2,0.6,0.4,0.2,0.8,1,0
,,667783ecd51176477fc57977,66fc998046fcc5b0e60e50d4,2024-10-02_09h54.55.563,mdp,2024.2.1,Win32,60.24096386,66fa4ebf79326e780c390304,,,,,,,,,,,,,,,,,,,,,638.2798,638.2798,638.2808,639.0117,0,0,left,0.2005,,639.0139,639.6116,0,0,left,639.6134,640.1788,0,1,left,0,640.179,640.179,640.1803,641.6781,0,32,32,32,1,0.8,0.2,0.4,0.6,,,,,,,,,,,,,,,0.0706,,0.8,0.2,0.4,0.6,0.4,0.6,0.4,0.6,,,0.0225,,0.4,0.6,0.8,0.2,0.6,0.4,0.2,0.8,1,0
,,667783ecd51176477fc57977,66fc998046fcc5b0e60e50d4,2024-10-02_09h54.55.563,mdp,2024.2.1,Win32,60.24096386,66fa4ebf79326e780c390304,,,,,,,,,,,,,,,,,,,,,641.6795,641.6795,641.6802,642.378,0,0,left,0.1741,,642.3799,642.9448,0,0,left,642.9464,643.4948,0,1,left,0,643.4951,643.4951,643.4967,644.994,0,33,33,33,1,0.8,0.2,0.4,0.6,,,,,,,,,,,,,,,0.0359,,0.8,0.2,0.4,0.6,0.4,0.6,0.4,0.6,,,0.0216,,0.4,0.6,0.8,0.2,0.6,0.4,0.2,0.8,1,0
,,667783ecd51176477fc57977,66fc998046fcc5b0e60e50d4,2024-10-02_09h54.55.563,mdp,2024.2.1,Win32,60.24096386,66fa4ebf79326e780c390304,,,,,,,,,,,,,,,,,,,,,644.9951,644.9951,644.9962,645.5779,0,0,left,0.0567,,645.5793,646.3102,0,0,left,646.3121,647.0268,0,0,left,1,647.0269,647.0269,647.0288,648.5266,0,34,34,34,1,0.8,0.2,0.4,0.6,,,,,,,,,,,,,,,0.2054,,0.8,0.2,0.4,0.6,0.4,0.6,0.4,0.6,,,0.206,,0.4,0.6,0.8,0.2,0.6,0.4,0.2,0.8,1,0
,,667783ecd51176477fc57977,66fc998046fcc5b0e60e50d4,2024-10-02_09h54.55.563,mdp,2024.2.1,Win32,60.24096386,66fa4ebf79326e780c390304,,,,,,,,,,,,,,,,,,,,,648.5276,648.5276,648.5292,649.0769,0,1,left,0.0275,,649.079,650.0098,0,1,left,650.0117,650.8102,0,0,left,1,650.8105,650.8105,650.8119,652.3098,0,35,35,35,1,0.8,0.2,0.4,0.6,,,,,,,,,,,,,,,0.393,,0.8,0.2,0.4,0.6,0.4,0.6,0.4,0.6,,,0.2598,,0.4,0.6,0.8,0.2,0.4,0.6,0.4,0.6,1,0
,,667783ecd51176477fc57977,66fc998046fcc5b0e60e50d4,2024-10-02_09h54.55.563,mdp,2024.2.1,Win32,60.24096386,66fa4ebf79326e780c390304,,,,,,,,,,,,,,,,,,,,,652.3111,652.3111,652.3117,653.093,0,0,left,0.2529,,653.0951,653.9759,0,0,left,653.978,654.5804,0,0,left,1,654.5804,654.5804,654.581,656.0754,0,36,36,36,1,0.8,0.2,0.4,0.6,,,,,,,,,,,,,,,0.3371,,0.8,0.2,0.4,0.6,0.4,0.6,0.4,0.6,,,0.0665,,0.4,0.6,0.8,0.2,0.4,0.6,0.4,0.6,1,0
,,667783ecd51176477fc57977,66fc998046fcc5b0e60e50d4,2024-10-02_09h54.55.563,mdp,2024.2.1,Win32,60.24096386,66fa4ebf79326e780c390304,,,,,,,,,,,,,,,,,,,,,656.0767,656.0767,656.0777,656.8592,0,0,left,0.2579,,656.8608,657.5761,0,0,left,657.5778,658.2595,0,0,left,1,658.2598,658.2598,658.2607,659.7583,0,37,37,37,1,0.8,0.2,0.4,0.6,,,,,,,,,,,,,,,0.1841,,0.8,0.2,0.4,0.6,0.4,0.6,0.4,0.6,,,0.1505,,0.4,0.6,0.8,0.2,0.4,0.6,0.4,0.6,1,0
,,667783ecd51176477fc57977,66fc998046fcc5b0e60e50d4,2024-10-02_09h54.55.563,mdp,2024.2.1,Win32,60.24096386,66fa4ebf79326e780c390304,,,,,,,,,,,,,,,,,,,,,659.7597,659.7598,659.7609,660.3423,0,0,left,0.0607,,660.3438,661.0747,0,1,left,661.0768,662.3586,0,1,left,0,662.3588,662.3588,662.3603,663.8579,0,38,38,38,1,0.8,0.2,0.4,0.6,,,,,,,,,,,,,,,0.2083,,0.8,0.2,0.4,0.6,0.4,0.6,0.4,0.6,,,0.7402,,0.4,0.6,0.8,0.2,0.4,0.6,0.4,0.6,1,0
,,667783ecd51176477fc57977,66fc998046fcc5b0e60e50d4,2024-10-02_09h54.55.563,mdp,2024.2.1,Win32,60.24096386,66fa4ebf79326e780c390304,,,,,,,,,,,,,,,,,,,,,663.8593,663.8593,663.8602,664.5912,0,1,left,0.2005,,664.5932,665.1289,0,0,left,665.1297,665.7246,0,0,left,1,665.7249,665.7249,665.7265,667.2239,0,39,39,39,1,0.8,0.2,0.4,0.6,,,,,,,,,,,,,,,0.0008,,0.8,0.2,0.4,0.6,0.6,0.4,0.6,0.4,,,0.0561,,0.4,0.6,0.8,0.2,0.4,0.6,0.4,0.6,1,0
,,667783ecd51176477fc57977,66fc998046fcc5b0e60e50d4,2024-10-02_09h54.55.563,mdp,2024.2.1,Win32,60.24096386,66fa4ebf79326e780c390304,,,,,,,,,,,,,,,,,,,,,667.2254,667.2254,667.2264,667.7739,0,1,left,0.024,,667.7759,668.4568,0,0,left,668.4591,669.1574,0,0,left,1,669.1577,669.1577,669.159,670.657,0,40,40,40,1,0.2,0.8,0.6,0.4,,,,,,,,,,,,,,,0.1595,,0.8,0.2,0.4,0.6,0.6,0.4,0.6,0.4,,,0.167,,0.4,0.6,0.8,0.2,0.4,0.6,0.4,0.6,1,0
,,667783ecd51176477fc57977,66fc998046fcc5b0e60e50d4,2024-10-02_09h54.55.563,mdp,2024.2.1,Win32,60.24096386,66fa4ebf79326e780c390304,,,,,,,,,,,,,,,,,,,,,670.6585,670.6585,670.6591,671.2574,0,1,left,0.079,,671.2587,671.7903,0,0,left,671.7925,672.3572,0,1,left,0,672.3575,672.3575,672.3585,673.8565,0,41,41,41,1,0.2,0.8,0.6,0.4,,,,,,,,,,,,,,,0.0007,,0.8,0.2,0.4,0.6,0.6,0.4,0.6,0.4,,,0.034,,0.4,0.6,0.8,0.2,0.4,0.6,0.4,0.6,1,0
,,667783ecd51176477fc57977,66fc998046fcc5b0e60e50d4,2024-10-02_09h54.55.563,mdp,2024.2.1,Win32,60.24096386,66fa4ebf79326e780c390304,,,,,,,,,,,,,,,,,,,,,673.8577,673.8577,673.8585,674.4733,0,1,left,0.0834,,674.475,675.1395,0,0,left,675.1416,675.7892,0,1,left,0,675.7893,675.7893,675.791,677.2888,0,42,42,42,1,0.2,0.8,0.6,0.4,,,,,,,,,,,,,,,0.137,,0.8,0.2,0.4,0.6,0.6,0.4,0.6,0.4,,,0.1206,,0.4,0.6,0.8,0.2,0.4,0.6,0.4,0.6,1,0
,,667783ecd51176477fc57977,66fc998046fcc5b0e60e50d4,2024-10-02_09h54.55.563,mdp,2024.2.1,Win32,60.24096386,66fa4ebf79326e780c390304,,,,,,,,,,,,,,,,,,,,,677.2903,677.2903,677.2911,677.8556,0,0,left,0.043,,677.8577,678.456,0,0,left,678.4578,679.1218,0,1,left,0,679.1218,679.1218,679.1238,680.6215,0,43,43,43,1,0.2,0.8,0.6,0.4,,,,,,,,,,,,,,,0.0589,,0.8,0.2,0.4,0.6,0.6,0.4,0.6,0.4,,,0.139,,0.4,0.6,0.8,0.2,0.4,0.6,0.4,0.6,1,0
,,667783ecd51176477fc57977,66fc998046fcc5b0e60e50d4,2024-10-02_09h54.55.563,mdp,2024.2.1,Win32,60.24096386,66fa4ebf79326e780c390304,,,,,,,,,,,,,,,,,,,,,680.6229,680.6229,680.6241,681.3057,0,0,left,0.1589,,681.3072,681.9882,0,1,left,681.9904,682.555,0,1,left,0,682.5551,682.5551,682.5566,684.0542,0,44,44,44,1,0.2,0.8,0.6,0.4,,,,,,,,,,,,,,,0.1506,,0.8,0.2,0.4,0.6,0.8,0.2,0.8,0.2,,,0.0246,,0.4,0.6,0.8,0.2,0.4,0.6,0.4,0.6,1,0
,,667783ecd51176477fc57977,66fc998046fcc5b0e60e50d4,2024-10-02_09h54.55.563,mdp,2024.2.1,Win32,60.24096386,66fa4ebf79326e780c390304,,,,,,,,,,,,,,,,,,,,,684.0551,684.0551,684.0567,684.7044,0,0,left,0.1285,,684.7062,685.2543,0,0,left,685.2564,685.7925,0,0,left,1,685.7925,685.7925,685.793,687.287,0,45,45,45,1,0.2,0.8,0.6,0.4,,,,,,,,,,,,,,,0.0218,,0.8,0.2,0.4,0.6,0.8,0.2,0.8,0.2,,,0.0005,,0.4,0.6,0.8,0.2,0.4,0.6,0.4,0.6,1,0
,,667783ecd51176477fc57977,66fc998046fcc5b0e60e50d4,2024-10-02_09h54.55.563,mdp,2024.2.1,Win32,60.24096386,66fa4ebf79326e780c390304,,,,,,,,,,,,,,,,,,,,,687.288,687.288,687.2894,687.9037,0,1,left,0.0765,,687.9057,688.5206,0,0,left,688.5226,689.4036,0,1,left,0,689.4037,689.4037,689.4055,690.9033,0,46,46,46,1,0.2,0.8,0.6,0.4,,,,,,,,,,,,,,,0.0669,,0.8,0.2,0.4,0.6,0.8,0.2,0.8,0.2,,,0.3538,,0.4,0.6,0.8,0.2,0.4,0.6,0.4,0.6,1,0
,,667783ecd51176477fc57977,66fc998046fcc5b0e60e50d4,2024-10-02_09h54.55.563,mdp,2024.2.1,Win32,60.24096386,66fa4ebf79326e780c390304,,,,,,,,,,,,,,,,,,,,,690.9042,690.9043,690.9056,691.5702,0,1,left,0.1381,,691.5719,692.1037,0,0,left,692.1055,692.6698,0,1,left,0,692.6699,692.6699,692.6717,694.1695,0,47,47,47,1,0.2,0.8,0.6,0.4,,,,,,,,,,,,,,,0.0003,,0.8,0.2,0.4,0.6,0.8,0.2,0.8,0.2,,,0.0336,,0.4,0.6,0.8,0.2,0.4,0.6,0.4,0.6,1,0
,,667783ecd51176477fc57977,66fc998046fcc5b0e60e50d4,2024-10-02_09h54.55.563,mdp,2024.2.1,Win32,60.24096386,66fa4ebf79326e780c390304,,,,,,,,,,,,,,,,,,,,,694.1702,694.1703,694.1717,695.236,0,0,left,0.5443,,695.2379,695.9693,0,0,left,695.971,696.8024,0,0,left,1,696.8026,696.8026,696.8043,698.302,0,48,48,48,1,0.2,0.8,0.6,0.4,,,,,,,,,,,,,,,0.1895,,0.8,0.2,0.4,0.6,0.8,0.2,0.8,0.2,,,0.3036,,0.4,0.6,0.8,0.2,0.4,0.6,0.4,0.6,1,0
,,667783ecd51176477fc57977,66fc998046fcc5b0e60e50d4,2024-10-02_09h54.55.563,mdp,2024.2.1,Win32,60.24096386,66fa4ebf79326e780c390304,,,,,,,,,,,,,,,,,,,,,698.3027,698.3027,698.3043,699.5363,0,1,left,0.7003,,699.5374,700.2182,0,0,left,700.2205,701.2518,0,0,left,1,701.2519,701.2519,701.2537,702.7521,0,49,49,49,1,0.2,0.8,0.6,0.4,,,,,,,,,,,,,,,0.1435,,0.8,0.2,0.4,0.6,0.8,0.2,0.8,0.2,,,0.5284,,0.4,0.6,0.8,0.2,0.4,0.6,0.4,0.6,1,0
,,667783ecd51176477fc57977,66fc998046fcc5b0e60e50d4,2024-10-02_09h54.55.563,mdp,2024.2.1,Win32,60.24096386,66fa4ebf79326e780c390304,,,,,,,,,,,,,,,,,,,,,,,,,,,,,,,,,,,,,,,,,,,,,,,,,,,,,,,,702.7525,742.0955,0,2,2,1,1,imgs/cat.png,imgs/elephant.png,imgs/squirrel.png,imgs/pig.png,imgs/horse.png,,,,,,,,,,,,,,,,,,,,,,,,
,,667783ecd51176477fc57977,66fc998046fcc5b0e60e50d4,2024-10-02_09h54.55.563,mdp,2024.2.1,Win32,60.24096386,66fa4ebf79326e780c390304,,,,,,,,,,,,,,3,seqs/st3seq41.csv,742.1048,743.0788,space,0.4366,,743.0822,743.0822,743.0828,745.0445,1,1,right,1.4274,,745.0466,745.6284,1,0,right,745.6299,746.2112,1,0,right,1,746.2113,746.2113,746.213,747.7114,0,0,0,0,1,0.2,0.8,0.6,0.4,,,,,,,,,,,,,,,0.0423,,0.6,0.4,0.2,0.8,0.8,0.2,0.4,0.6,,,0.0519,,0.4,0.6,0.8,0.2,0.4,0.6,0.8,0.2,1,0
,,667783ecd51176477fc57977,66fc998046fcc5b0e60e50d4,2024-10-02_09h54.55.563,mdp,2024.2.1,Win32,60.24096386,66fa4ebf79326e780c390304,,,,,,,,,,,,,,,,,,,,,747.7126,747.7126,747.7131,748.2781,1,1,right,0.0361,,748.2797,748.8946,1,0,right,748.8962,749.494,1,0,right,1,749.4942,749.4942,749.4959,750.9942,0,1,1,1,1,0.2,0.8,0.6,0.4,,,,,,,,,,,,,,,0.0871,,0.6,0.4,0.2,0.8,0.8,0.2,0.4,0.6,,,0.0723,,0.4,0.6,0.8,0.2,0.4,0.6,0.8,0.2,1,0
,,667783ecd51176477fc57977,66fc998046fcc5b0e60e50d4,2024-10-02_09h54.55.563,mdp,2024.2.1,Win32,60.24096386,66fa4ebf79326e780c390304,,,,,,,,,,,,,,,,,,,,,750.9953,750.9954,750.9961,751.7602,1,0,right,0.2335,,751.7625,752.3943,1,1,right,752.3961,753.0434,1,0,right,1,753.0436,753.0436,753.0455,754.5434,0,2,2,2,1,0.2,0.8,0.6,0.4,,,,,,,,,,,,,,,0.0843,,0.6,0.4,0.2,0.8,0.8,0.2,0.4,0.6,,,0.1048,,0.4,0.6,0.8,0.2,0.4,0.6,0.8,0.2,1,0
,,667783ecd51176477fc57977,66fc998046fcc5b0e60e50d4,2024-10-02_09h54.55.563,mdp,2024.2.1,Win32,60.24096386,66fa4ebf79326e780c390304,,,,,,,,,,,,,,,,,,,,,754.5448,754.5448,754.5456,756.5094,1,0,right,1.443,,756.5112,757.5264,1,1,right,757.5282,758.8089,1,0,right,1,758.809,758.809,758.8109,760.3091,0,3,3,3,1,0.2,0.8,0.6,0.4,,,,,,,,,,,,,,,0.5001,,0.6,0.4,0.2,0.8,0.8,0.2,0.4,0.6,,,0.7546,,0.4,0.6,0.8,0.2,0.4,0.6,0.8,0.2,1,0
,,667783ecd51176477fc57977,66fc998046fcc5b0e60e50d4,2024-10-02_09h54.55.563,mdp,2024.2.1,Win32,60.24096386,66fa4ebf79326e780c390304,,,,,,,,,,,,,,,,,,,,,760.3101,760.3102,760.3112,761.8468,1,0,right,1.0165,,761.8473,762.4923,1,1,right,762.4938,763.1591,1,0,right,1,763.1594,763.1594,763.1605,764.6588,0,4,4,4,1,0.2,0.8,0.6,0.4,,,,,,,,,,,,,,,0.1222,,0.6,0.4,0.2,0.8,0.8,0.2,0.4,0.6,,,0.137,,0.4,0.6,0.8,0.2,0.2,0.8,0.2,0.8,1,0
,,667783ecd51176477fc57977,66fc998046fcc5b0e60e50d4,2024-10-02_09h54.55.563,mdp,2024.2.1,Win32,60.24096386,66fa4ebf79326e780c390304,,,,,,,,,,,,,,,,,,,,,764.6599,764.66,764.6606,765.2746,1,1,right,0.0932,,765.2765,765.8246,1,0,right,765.8267,766.5583,1,0,right,1,766.5584,766.5584,766.5601,768.0576,0,5,5,5,1,0.2,0.8,0.6,0.4,,,,,,,,,,,,,,,0.0219,,0.6,0.4,0.2,0.8,0.8,0.2,0.4,0.6,,,0.1843,,0.4,0.6,0.8,0.2,0.2,0.8,0.2,0.8,1,0
,,667783ecd51176477fc57977,66fc998046fcc5b0e60e50d4,2024-10-02_09h54.55.563,mdp,2024.2.1,Win32,60.24096386,66fa4ebf79326e780c390304,,,,,,,,,,,,,,,,,,,,,768.0585,768.0586,768.0601,768.791,1,0,right,0.2006,,768.7932,769.5073,1,0,right,769.5095,770.1906,1,0,right,1,770.1907,770.1907,770.1926,771.6909,0,6,6,6,1,0.2,0.8,0.6,0.4,,,,,,,,,,,,,,,0.1678,,0.2,0.8,0.8,0.2,0.8,0.2,0.4,0.6,,,0.154,,0.4,0.6,0.8,0.2,0.2,0.8,0.2,0.8,1,0
,,667783ecd51176477fc57977,66fc998046fcc5b0e60e50d4,2024-10-02_09h54.55.563,mdp,2024.2.1,Win32,60.24096386,66fa4ebf79326e780c390304,,,,,,,,,,,,,,,,,,,,,771.6921,771.6922,771.6928,772.2736,1,0,right,0.0507,,772.2757,772.9401,1,0,right,772.9421,774.0399,1,0,right,1,774.0401,774.0401,774.0417,775.5397,0,7,7,7,1,0.2,0.8,0.6,0.4,,,,,,,,,,,,,,,0.14,,0.2,0.8,0.8,0.2,0.8,0.2,0.4,0.6,,,0.5762,,0.4,0.6,0.8,0.2,0.2,0.8,0.2,0.8,1,0
,,667783ecd51176477fc57977,66fc998046fcc5b0e60e50d4,2024-10-02_09h54.55.563,mdp,2024.2.1,Win32,60.24096386,66fa4ebf79326e780c390304,,,,,,,,,,,,,,,,,,,,,775.5408,775.5408,775.5421,776.1062,1,0,right,0.0431,,776.1081,776.7231,1,1,right,776.7255,777.4072,1,1,right,0,777.4074,777.4074,777.4089,778.9058,0,8,8,8,1,0.2,0.8,0.6,0.4,,,,,,,,,,,,,,,0.1004,,0.2,0.8,0.8,0.2,0.8,0.2,0.4,0.6,,,0.1342,,0.4,0.6,0.8,0.2,0.2,0.8,0.2,0.8,1,0
,,667783ecd51176477fc57977,66fc998046fcc5b0e60e50d4,2024-10-02_09h54.55.563,mdp,2024.2.1,Win32,60.24096386,66fa4ebf79326e780c390304,,,,,,,,,,,,,,,,,,,,,778.9061,778.9061,778.9079,779.5225,1,1,right,0.0914,,779.5245,780.2556,1,0,right,780.2576,780.9388,1,0,right,1,780.9389,780.9389,780.9409,782.4394,0,9,9,9,1,0.2,0.8,0.6,0.4,,,,,,,,,,,,,,,0.1949,,0.2,0.8,0.8,0.2,0.8,0.2,0.4,0.6,,,0.1509,,0.4,0.6,0.8,0.2,0.2,0.8,0.2,0.8,1,0
,,667783ecd51176477fc57977,66fc998046fcc5b0e60e50d4,2024-10-02_09h54.55.563,mdp,2024.2.1,Win32,60.24096386,66fa4ebf79326e780c390304,,,,,,,,,,,,,,,,,,,,,782.4406,782.4406,782.4413,783.106,1,0,right,0.1339,,783.1076,783.6596,1,0,right,783.6603,784.2884,1,0,right,1,784.2886,784.2887,784.2905,785.7888,0,10,10,10,1,0.2,0.8,0.6,0.4,,,,,,,,,,,,,,,0.0167,,0.2,0.8,0.8,0.2,0.8,0.2,0.4,0.6,,,0.1067,,0.4,0.6,0.8,0.2,0.2,0.8,0.2,0.8,1,0
,,667783ecd51176477fc57977,66fc998046fcc5b0e60e50d4,2024-10-02_09h54.55.563,mdp,2024.2.1,Win32,60.24096386,66fa4ebf79326e780c390304,,,,,,,,,,,,,,,,,,,,,785.7901,785.7901,785.7907,786.4217,1,1,right,0.1056,,786.4234,787.0716,1,0,right,787.0735,787.7882,1,0,right,1,787.7884,787.7884,787.7901,789.2876,0,11,11,11,1,0.2,0.8,0.6,0.4,,,,,,,,,,,,,,,0.101,,0.2,0.8,0.8,0.2,0.8,0.2,0.4,0.6,,,0.1862,,0.4,0.6,0.8,0.2,0.2,0.8,0.2,0.8,1,0
,,667783ecd51176477fc57977,66fc998046fcc5b0e60e50d4,2024-10-02_09h54.55.563,mdp,2024.2.1,Win32,60.24096386,66fa4ebf79326e780c390304,,,,,,,,,,,,,,,,,,,,,789.2887,789.2887,789.29,789.9873,1,0,right,0.1774,,789.9897,790.621,1,0,right,790.6227,791.154,1,0,right,1,791.1541,791.1541,791.156,792.6542,0,12,12,12,1,0.2,0.8,0.6,0.4,,,,,,,,,,,,,,,0.0914,,0.2,0.8,0.8,0.2,0.8,0.2,0.4,0.6,,,0.0043,,0.4,0.6,0.8,0.2,0.2,0.8,0.2,0.8,1,0
,,667783ecd51176477fc57977,66fc998046fcc5b0e60e50d4,2024-10-02_09h54.55.563,mdp,2024.2.1,Win32,60.24096386,66fa4ebf79326e780c390304,,,,,,,,,,,,,,,,,,,,,792.6551,792.6551,792.6562,793.2037,1,0,right,0.0289,,793.2055,793.8041,1,1,right,793.8055,794.5534,1,1,right,0,794.5535,794.5535,794.5555,796.0538,0,13,13,13,1,0.8,0.2,0.8,0.2,,,,,,,,,,,,,,,0.0867,,0.2,0.8,0.8,0.2,0.8,0.2,0.4,0.6,,,0.2016,,0.4,0.6,0.8,0.2,0.2,0.8,0.2,0.8,1,0
,,667783ecd51176477fc57977,66fc998046fcc5b0e60e50d4,2024-10-02_09h54.55.563,mdp,2024.2.1,Win32,60.24096386,66fa4ebf79326e780c390304,,,,,,,,,,,,,,,,,,,,,796.055,796.055,796.0556,796.6864,1,0,right,0.1106,,796.6883,797.3366,1,1,right,797.3384,798.0864,1,1,right,0,798.0865,798.0865,798.0882,799.5859,0,14,14,14,1,0.8,0.2,0.8,0.2,,,,,,,,,,,,,,,0.1176,,0.2,0.8,0.8,0.2,0.8,0.2,0.4,0.6,,,0.2204,,0.4,0.6,0.8,0.2,0.2,0.8,0.2,0.8,1,0
,,667783ecd51176477fc57977,66fc998046fcc5b0e60e50d4,2024-10-02_09h54.55.563,mdp,2024.2.1,Win32,60.24096386,66fa4ebf79326e780c390304,,,,,,,,,,,,,,,,,,,,,799.5864,799.5864,799.588,800.1858,1,0,right,0.077,,800.1876,800.8034,1,1,right,800.8047,801.3689,1,1,right,0,801.3689,801.3689,801.3709,802.8691,0,15,15,15,1,0.8,0.2,0.8,0.2,,,,,,,,,,,,,,,0.0836,,0.2,0.8,0.8,0.2,0.8,0.2,0.4,0.6,,,0.0355,,0.4,0.6,0.8,0.2,0.2,0.8,0.2,0.8,1,0
,,667783ecd51176477fc57977,66fc998046fcc5b0e60e50d4,2024-10-02_09h54.55.563,mdp,2024.2.1,Win32,60.24096386,66fa4ebf79326e780c390304,,,,,,,,,,,,,,,,,,,,,802.8699,802.8699,802.8708,803.5185,1,0,right,0.1199,,803.5208,804.1523,1,0,right,804.1541,804.7352,1,0,right,1,804.7354,804.7354,804.737,806.2356,0,16,16,16,1,0.8,0.2,0.8,0.2,,,,,,,,,,,,,,,0.1001,,0.2,0.8,0.8,0.2,0.8,0.2,0.4,0.6,,,0.036,,0.4,0.6,0.8,0.2,0.2,0.8,0.2,0.8,1,0
,,667783ecd51176477fc57977,66fc998046fcc5b0e60e50d4,2024-10-02_09h54.55.563,mdp,2024.2.1,Win32,60.24096386,66fa4ebf79326e780c390304,,,,,,,,,,,,,,,,,,,,,806.2365,806.2365,806.2371,806.9022,1,1,right,0.1338,,806.9038,807.5015,1,0,right,807.5034,808.1681,1,0,right,1,808.1682,808.1682,808.1699,809.6676,0,17,17,17,1,0.8,0.2,0.8,0.2,,,,,,,,,,,,,,,0.0519,,0.2,0.8,0.8,0.2,0.8,0.2,0.4,0.6,,,0.1336,,0.4,0.6,0.8,0.2,0.2,0.8,0.2,0.8,1,0
,,667783ecd51176477fc57977,66fc998046fcc5b0e60e50d4,2024-10-02_09h54.55.563,mdp,2024.2.1,Win32,60.24096386,66fa4ebf79326e780c390304,,,,,,,,,,,,,,,,,,,,,809.6686,809.6687,809.67,810.2511,1,0,right,0.0495,,810.2531,810.801,1,0,right,810.8028,811.3508,1,0,right,1,811.3512,811.3512,811.353,812.8504,0,18,18,18,1,0.8,0.2,0.8,0.2,,,,,,,,,,,,,,,0.0045,,0.2,0.8,0.8,0.2,0.8,0.2,0.4,0.6,,,0.0172,,0.4,0.6,0.8,0.2,0.2,0.8,0.2,0.8,1,0
,,667783ecd51176477fc57977,66fc998046fcc5b0e60e50d4,2024-10-02_09h54.55.563,mdp,2024.2.1,Win32,60.24096386,66fa4ebf79326e780c390304,,,,,,,,,,,,,,,,,,,,,812.8509,812.8509,812.8529,813.4007,1,0,right,0.017,,813.4027,814.2342,1,0,right,814.2359,814.9845,1,0,right,1,814.9847,814.9847,814.9858,816.4839,0,19,19,19,1,0.8,0.2,0.8,0.2,,,,,,,,,,,,,,,0.3193,,0.2,0.8,0.8,0.2,0.8,0.2,0.4,0.6,,,0.2178,,0.4,0.6,0.8,0.2,0.2,0.8,0.2,0.8,1,0
,,667783ecd51176477fc57977,66fc998046fcc5b0e60e50d4,2024-10-02_09h54.55.563,mdp,2024.2.1,Win32,60.24096386,66fa4ebf79326e780c390304,,,,,,,,,,,,,,,,,,,,,816.4851,816.4851,816.4857,817.1831,1,0,right,0.1766,,817.1851,817.7831,1,0,right,817.7853,818.3839,1,0,right,1,818.3841,818.3841,818.3856,819.8828,0,20,20,20,1,0.8,0.2,0.8,0.2,,,,,,,,,,,,,,,0.0677,,0.2,0.8,0.8,0.2,0.8,0.2,0.4,0.6,,,0.067,,0.4,0.6,0.8,0.2,0.2,0.8,0.2,0.8,1,0
,,667783ecd51176477fc57977,66fc998046fcc5b0e60e50d4,2024-10-02_09h54.55.563,mdp,2024.2.1,Win32,60.24096386,66fa4ebf79326e780c390304,,,,,,,,,,,,,,,,,,,,,819.8837,819.8837,819.885,820.4505,1,0,right,0.0337,,820.4519,821.066,1,0,right,821.0679,821.7158,1,0,right,1,821.7158,821.7158,821.718,823.216,0,21,21,21,1,0.8,0.2,0.8,0.2,,,,,,,,,,,,,,,0.0842,,0.2,0.8,0.8,0.2,0.8,0.2,0.4,0.6,,,0.1171,,0.4,0.6,0.8,0.2,0.2,0.8,0.2,0.8,1,0
,,667783ecd51176477fc57977,66fc998046fcc5b0e60e50d4,2024-10-02_09h54.55.563,mdp,2024.2.1,Win32,60.24096386,66fa4ebf79326e780c390304,,,,,,,,,,,,,,,,,,,,,823.2168,823.2169,823.2178,823.9321,1,1,right,0.1862,,823.934,824.6319,1,1,right,824.6337,825.4988,1,0,right,1,825.499,825.499,825.5003,826.9981,0,22,22,22,1,0.8,0.2,0.8,0.2,,,,,,,,,,,,,,,0.1508,,0.2,0.8,0.8,0.2,0.8,0.2,0.4,0.6,,,0.3286,,0.4,0.6,0.8,0.2,0.2,0.8,0.2,0.8,1,0
,,667783ecd51176477fc57977,66fc998046fcc5b0e60e50d4,2024-10-02_09h54.55.563,mdp,2024.2.1,Win32,60.24096386,66fa4ebf79326e780c390304,,,,,,,,,,,,,,,,,,,,,826.9987,826.9987,827.0001,827.6315,1,0,right,0.1006,,827.6334,828.6811,1,0,right,828.6834,829.3313,1,1,right,0,829.3313,829.3313,829.3333,830.8312,0,23,23,23,1,0.8,0.2,0.8,0.2,,,,,,,,,,,,,,,0.5183,,0.2,0.8,0.8,0.2,0.8,0.2,0.4,0.6,,,0.1043,,0.8,0.2,0.4,0.6,0.2,0.8,0.2,0.8,1,0
,,667783ecd51176477fc57977,66fc998046fcc5b0e60e50d4,2024-10-02_09h54.55.563,mdp,2024.2.1,Win32,60.24096386,66fa4ebf79326e780c390304,,,,,,,,,,,,,,,,,,,,,830.8321,830.8321,830.8329,831.5646,1,1,right,0.2063,,831.5663,832.1028,1,1,right,832.1034,832.7472,1,1,right,0,832.7473,832.7473,832.7493,834.2478,0,24,24,24,1,0.8,0.2,0.8,0.2,,,,,,,,,,,,,,,0.0006,,0.2,0.8,0.8,0.2,0.8,0.2,0.4,0.6,,,0.104,,0.8,0.2,0.4,0.6,0.2,0.8,0.2,0.8,1,0
,,667783ecd51176477fc57977,66fc998046fcc5b0e60e50d4,2024-10-02_09h54.55.563,mdp,2024.2.1,Win32,60.24096386,66fa4ebf79326e780c390304,,,,,,,,,,,,,,,,,,,,,834.2489,834.2489,834.2498,834.9473,1,0,right,0.1668,,834.9493,835.5136,1,1,right,835.5158,836.1299,1,0,right,1,836.13,836.13,836.1323,837.6299,0,25,25,25,1,0.8,0.2,0.8,0.2,,,,,,,,,,,,,,,0.0257,,0.2,0.8,0.8,0.2,0.8,0.2,0.4,0.6,,,0.0845,,0.8,0.2,0.4,0.6,0.2,0.8,0.2,0.8,1,0
,,667783ecd51176477fc57977,66fc998046fcc5b0e60e50d4,2024-10-02_09h54.55.563,mdp,2024.2.1,Win32,60.24096386,66fa4ebf79326e780c390304,,,,,,,,,,,,,,,,,,,,,837.6313,837.6313,837.6323,838.3298,1,0,right,0.1721,,838.3316,839.1133,1,0,right,839.1152,839.6797,1,0,right,1,839.6799,839.6799,839.6818,841.1798,0,26,26,26,1,0.8,0.2,0.8,0.2,,,,,,,,,,,,,,,0.2605,,0.2,0.8,0.8,0.2,0.8,0.2,0.4,0.6,,,0.0176,,0.8,0.2,0.4,0.6,0.4,0.6,0.4,0.6,1,0
,,667783ecd51176477fc57977,66fc998046fcc5b0e60e50d4,2024-10-02_09h54.55.563,mdp,2024.2.1,Win32,60.24096386,66fa4ebf79326e780c390304,,,,,,,,,,,,,,,,,,,,,841.1809,841.1809,841.1818,841.8458,1,0,right,0.1434,,841.848,842.4959,1,0,right,842.4975,843.2289,1,0,right,1,843.2291,843.2291,843.2308,844.7287,0,27,27,27,1,0.8,0.2,0.8,0.2,,,,,,,,,,,,,,,0.1286,,0.2,0.8,0.8,0.2,0.8,0.2,0.4,0.6,,,0.2289,,0.8,0.2,0.4,0.6,0.4,0.6,0.4,0.6,1,0
,,667783ecd51176477fc57977,66fc998046fcc5b0e60e50d4,2024-10-02_09h54.55.563,mdp,2024.2.1,Win32,60.24096386,66fa4ebf79326e780c390304,,,,,,,,,,,,,,,,,,,,,844.7294,844.7294,844.7309,845.3954,1,1,right,0.1353,,845.3972,846.0953,1,1,right,846.0972,846.6168,1,1,right,0,846.6169,846.6169,846.6174,848.1121,0,28,28,28,1,0.8,0.2,0.8,0.2,,,,,,,,,,,,,,,0.1518,,0.2,0.8,0.8,0.2,0.8,0.2,0.4,0.6,,,0.0005,,0.8,0.2,0.4,0.6,0.4,0.6,0.4,0.6,1,0
,,667783ecd51176477fc57977,66fc998046fcc5b0e60e50d4,2024-10-02_09h54.55.563,mdp,2024.2.1,Win32,60.24096386,66fa4ebf79326e780c390304,,,,,,,,,,,,,,,,,,,,,848.1136,848.1136,848.1145,848.6615,1,1,right,0.0184,,848.6634,849.228,1,0,right,849.23,849.9637,1,0,right,1,849.9637,849.9637,849.9642,851.4614,0,29,29,29,1,0.8,0.2,0.8,0.2,,,,,,,,,,,,,,,0.036,,0.2,0.8,0.8,0.2,0.8,0.2,0.4,0.6,,,0.1985,,0.8,0.2,0.4,0.6,0.4,0.6,0.4,0.6,1,0
,,667783ecd51176477fc57977,66fc998046fcc5b0e60e50d4,2024-10-02_09h54.55.563,mdp,2024.2.1,Win32,60.24096386,66fa4ebf79326e780c390304,,,,,,,,,,,,,,,,,,,,,851.4622,851.4623,851.4632,852.1116,1,1,right,0.117,,852.1131,852.8778,1,1,right,852.8796,853.4778,1,1,right,0,853.478,853.478,853.4794,854.9771,0,30,30,30,1,0.8,0.2,0.8,0.2,,,,,,,,,,,,,,,0.243,,0.2,0.8,0.8,0.2,0.8,0.2,0.4,0.6,,,0.0544,,0.2,0.8,0.8,0.2,0.4,0.6,0.4,0.6,1,0
,,667783ecd51176477fc57977,66fc998046fcc5b0e60e50d4,2024-10-02_09h54.55.563,mdp,2024.2.1,Win32,60.24096386,66fa4ebf79326e780c390304,,,,,,,,,,,,,,,,,,,,,854.9785,854.9786,854.9796,855.6103,1,0,right,0.109,,855.6123,856.2935,1,0,right,856.2954,856.9099,1,1,right,0,856.91,856.91,856.9119,858.4106,0,31,31,31,1,0.8,0.2,0.8,0.2,,,,,,,,,,,,,,,0.1403,,0.2,0.8,0.8,0.2,0.8,0.2,0.4,0.6,,,0.0778,,0.2,0.8,0.8,0.2,0.4,0.6,0.4,0.6,1,0
,,667783ecd51176477fc57977,66fc998046fcc5b0e60e50d4,2024-10-02_09h54.55.563,mdp,2024.2.1,Win32,60.24096386,66fa4ebf79326e780c390304,,,,,,,,,,,,,,,,,,,,,858.4116,858.4116,858.4122,859.2271,1,0,right,0.2851,,859.2288,859.8936,1,0,right,859.8955,860.4928,1,1,right,0,860.493,860.493,860.4947,861.993,0,32,32,32,1,0.8,0.2,0.8,0.2,,,,,,,,,,,,,,,0.1337,,0.2,0.8,0.8,0.2,0.8,0.2,0.4,0.6,,,0.0789,,0.2,0.8,0.8,0.2,0.4,0.6,0.4,0.6,1,0
,,667783ecd51176477fc57977,66fc998046fcc5b0e60e50d4,2024-10-02_09h54.55.563,mdp,2024.2.1,Win32,60.24096386,66fa4ebf79326e780c390304,,,,,,,,,,,,,,,,,,,,,861.9942,861.9942,861.9952,862.5425,1,0,right,0.0173,,862.5446,863.1926,1,0,right,863.1943,863.8757,1,0,right,1,863.876,863.876,863.8777,865.3753,0,33,33,33,1,0.8,0.2,0.8,0.2,,,,,,,,,,,,,,,0.1174,,0.2,0.8,0.8,0.2,0.8,0.2,0.4,0.6,,,0.167,,0.2,0.8,0.8,0.2,0.4,0.6,0.4,0.6,1,0
,,667783ecd51176477fc57977,66fc998046fcc5b0e60e50d4,2024-10-02_09h54.55.563,mdp,2024.2.1,Win32,60.24096386,66fa4ebf79326e780c390304,,,,,,,,,,,,,,,,,,,,,865.3762,865.3762,865.3777,865.9591,1,0,right,0.0519,,865.9608,866.7584,1,1,right,866.7603,867.4418,1,0,right,1,867.442,867.442,867.4439,868.9415,0,34,34,34,1,0.8,0.2,0.8,0.2,,,,,,,,,,,,,,,0.2753,,0.2,0.8,0.8,0.2,0.8,0.2,0.4,0.6,,,0.1526,,0.2,0.8,0.8,0.2,0.4,0.6,0.4,0.6,1,0
,,667783ecd51176477fc57977,66fc998046fcc5b0e60e50d4,2024-10-02_09h54.55.563,mdp,2024.2.1,Win32,60.24096386,66fa4ebf79326e780c390304,,,,,,,,,,,,,,,,,,,,,868.9422,868.9422,868.9437,869.5922,1,1,right,0.1173,,869.5936,870.475,1,0,right,870.4769,871.3744,1,0,right,1,871.3744,871.3744,871.3764,872.8741,0,35,35,35,1,0.8,0.2,0.8,0.2,,,,,,,,,,,,,,,0.3364,,0.2,0.8,0.8,0.2,0.8,0.2,0.4,0.6,,,0.3608,,0.2,0.8,0.8,0.2,0.4,0.6,0.4,0.6,1,0
,,667783ecd51176477fc57977,66fc998046fcc5b0e60e50d4,2024-10-02_09h54.55.563,mdp,2024.2.1,Win32,60.24096386,66fa4ebf79326e780c390304,,,,,,,,,,,,,,,,,,,,,872.8749,872.8749,872.8763,873.4077,1,0,right,0.0004,,873.4094,873.9913,1,0,right,873.9928,874.6739,1,1,right,0,874.674,874.674,874.6759,876.1737,0,36,36,36,1,0.8,0.2,0.8,0.2,,,,,,,,,,,,,,,0.035,,0.2,0.8,0.8,0.2,0.8,0.2,0.4,0.6,,,0.1517,,0.2,0.8,0.8,0.2,0.4,0.6,0.4,0.6,1,0
,,667783ecd51176477fc57977,66fc998046fcc5b0e60e50d4,2024-10-02_09h54.55.563,mdp,2024.2.1,Win32,60.24096386,66fa4ebf79326e780c390304,,,,,,,,,,,,,,,,,,,,,876.1746,876.1747,876.1762,876.7241,1,0,right,0.0228,,876.7256,877.3244,1,0,right,877.3256,878.0736,1,1,right,0,878.0738,878.0738,878.0757,879.5731,0,37,37,37,1,0.8,0.2,0.8,0.2,,,,,,,,,,,,,,,0.0691,,0.2,0.8,0.8,0.2,0.8,0.2,0.4,0.6,,,0.2164,,0.2,0.8,0.8,0.2,0.4,0.6,0.4,0.6,1,0
,,667783ecd51176477fc57977,66fc998046fcc5b0e60e50d4,2024-10-02_09h54.55.563,mdp,2024.2.1,Win32,60.24096386,66fa4ebf79326e780c390304,,,,,,,,,,,,,,,,,,,,,879.5741,879.5742,879.5757,880.2402,1,1,right,0.1398,,880.2419,880.8729,1,1,right,880.8748,881.4113,1,0,right,1,881.4114,881.4114,881.412,882.9065,0,38,38,38,1,0.8,0.2,0.8,0.2,,,,,,,,,,,,,,,0.0845,,0.2,0.8,0.8,0.2,0.8,0.2,0.4,0.6,,,0.0006,,0.2,0.8,0.8,0.2,0.4,0.6,0.4,0.6,1,0
,,667783ecd51176477fc57977,66fc998046fcc5b0e60e50d4,2024-10-02_09h54.55.563,mdp,2024.2.1,Win32,60.24096386,66fa4ebf79326e780c390304,,,,,,,,,,,,,,,,,,,,,882.9076,882.9076,882.9084,883.5393,1,1,right,0.1005,,883.5413,884.2394,1,0,right,884.2414,884.8894,1,0,right,1,884.8896,884.8896,884.8911,886.3886,0,39,39,39,1,0.8,0.2,0.8,0.2,,,,,,,,,,,,,,,0.1769,,0.2,0.8,0.8,0.2,0.8,0.2,0.4,0.6,,,0.1026,,0.2,0.8,0.8,0.2,0.4,0.6,0.4,0.6,1,0
,,667783ecd51176477fc57977,66fc998046fcc5b0e60e50d4,2024-10-02_09h54.55.563,mdp,2024.2.1,Win32,60.24096386,66fa4ebf79326e780c390304,,,,,,,,,,,,,,,,,,,,,886.3894,886.3894,886.3909,886.9888,1,0,right,0.0736,,886.9907,887.6225,1,0,right,887.6244,888.2551,1,1,right,0,888.2553,888.2553,888.257,889.7553,0,40,40,40,1,0.8,0.2,0.8,0.2,,,,,,,,,,,,,,,0.0866,,0.2,0.8,0.8,0.2,0.8,0.2,0.4,0.6,,,0.1114,,0.2,0.8,0.8,0.2,0.4,0.6,0.4,0.6,1,0
,,667783ecd51176477fc57977,66fc998046fcc5b0e60e50d4,2024-10-02_09h54.55.563,mdp,2024.2.1,Win32,60.24096386,66fa4ebf79326e780c390304,,,,,,,,,,,,,,,,,,,,,889.7566,889.7566,889.7572,890.2881,1,0,right,0.0006,,890.2901,890.8722,1,0,right,890.8736,891.4712,1,0,right,1,891.4714,891.4714,891.4732,892.9714,0,41,41,41,1,0.8,0.2,0.8,0.2,,,,,,,,,,,,,,,0.0505,,0.2,0.8,0.8,0.2,0.8,0.2,0.4,0.6,,,0.0674,,0.2,0.8,0.8,0.2,0.4,0.6,0.4,0.6,1,0
,,667783ecd51176477fc57977,66fc998046fcc5b0e60e50d4,2024-10-02_09h54.55.563,mdp,2024.2.1,Win32,60.24096386,66fa4ebf79326e780c390304,,,,,,,,,,,,,,,,,,,,,892.9722,892.9723,892.9733,893.6543,1,1,right,0.1508,,893.6563,894.3215,1,1,right,894.323,894.8748,1,0,right,1,894.8748,894.8748,894.8754,896.3708,0,42,42,42,1,0.8,0.2,0.8,0.2,,,,,,,,,,,,,,,0.1183,,0.2,0.8,0.8,0.2,0.8,0.2,0.4,0.6,,,0.0167,,0.2,0.8,0.8,0.2,0.4,0.6,0.4,0.6,1,0
,,667783ecd51176477fc57977,66fc998046fcc5b0e60e50d4,2024-10-02_09h54.55.563,mdp,2024.2.1,Win32,60.24096386,66fa4ebf79326e780c390304,,,,,,,,,,,,,,,,,,,,,896.3717,896.3718,896.3728,897.0536,1,0,right,0.1588,,897.0556,897.7045,1,1,right,897.7061,898.2372,1,1,right,0,898.2374,898.2374,898.2392,899.7365,0,43,43,43,1,0.8,0.2,0.8,0.2,,,,,,,,,,,,,,,0.117,,0.2,0.8,0.8,0.2,0.8,0.2,0.4,0.6,,,0.0076,,0.2,0.8,0.8,0.2,0.4,0.6,0.4,0.6,1,0
,,667783ecd51176477fc57977,66fc998046fcc5b0e60e50d4,2024-10-02_09h54.55.563,mdp,2024.2.1,Win32,60.24096386,66fa4ebf79326e780c390304,,,,,,,,,,,,,,,,,,,,,899.7377,899.7377,899.7391,900.5037,1,0,right,0.2334,,900.5055,901.0535,1,1,right,901.0552,901.6196,1,0,right,1,901.6197,901.6197,901.6213,903.1193,0,44,44,44,1,0.8,0.2,0.8,0.2,,,,,,,,,,,,,,,0.0176,,0.2,0.8,0.8,0.2,0.8,0.2,0.4,0.6,,,0.0429,,0.2,0.8,0.8,0.2,0.4,0.6,0.4,0.6,1,0
,,667783ecd51176477fc57977,66fc998046fcc5b0e60e50d4,2024-10-02_09h54.55.563,mdp,2024.2.1,Win32,60.24096386,66fa4ebf79326e780c390304,,,,,,,,,,,,,,,,,,,,,903.1202,903.1202,903.1214,904.3695,1,0,right,0.7251,,904.3716,905.019,1,0,right,905.0211,905.5862,1,1,right,0,905.5864,905.5864,905.5878,907.0853,0,45,45,45,1,0.8,0.2,0.8,0.2,,,,,,,,,,,,,,,0.1194,,0.2,0.8,0.8,0.2,0.8,0.2,0.4,0.6,,,0.0408,,0.6,0.4,0.4,0.6,0.4,0.6,0.4,0.6,1,0
,,667783ecd51176477fc57977,66fc998046fcc5b0e60e50d4,2024-10-02_09h54.55.563,mdp,2024.2.1,Win32,60.24096386,66fa4ebf79326e780c390304,,,,,,,,,,,,,,,,,,,,,907.0858,907.0858,907.0875,907.7693,1,1,right,0.1558,,907.771,908.3356,1,1,right,908.3375,909.0849,1,0,right,1,909.085,909.085,909.0868,910.585,0,46,46,46,1,0.8,0.2,0.8,0.2,,,,,,,,,,,,,,,0.0214,,0.2,0.8,0.8,0.2,0.8,0.2,0.4,0.6,,,0.2111,,0.6,0.4,0.4,0.6,0.4,0.6,0.4,0.6,1,0
,,667783ecd51176477fc57977,66fc998046fcc5b0e60e50d4,2024-10-02_09h54.55.563,mdp,2024.2.1,Win32,60.24096386,66fa4ebf79326e780c390304,,,,,,,,,,,,,,,,,,,,,910.5857,910.5858,910.5873,911.185,1,0,right,0.0672,,911.1868,911.7689,1,0,right,911.7704,912.3347,1,0,right,1,912.3348,912.3348,912.3367,913.8347,0,47,47,47,1,0.8,0.2,0.8,0.2,,,,,,,,,,,,,,,0.0337,,0.2,0.8,0.8,0.2,0.8,0.2,0.4,0.6,,,0.0258,,0.6,0.4,0.4,0.6,0.4,0.6,0.4,0.6,1,0
,,667783ecd51176477fc57977,66fc998046fcc5b0e60e50d4,2024-10-02_09h54.55.563,mdp,2024.2.1,Win32,60.24096386,66fa4ebf79326e780c390304,,,,,,,,,,,,,,,,,,,,,913.8356,913.8356,913.8367,914.8175,1,0,right,0.461,,914.8193,915.4675,1,0,right,915.4693,916.2013,1,0,right,1,916.2014,916.2014,916.2029,917.7004,0,48,48,48,1,0.8,0.2,0.8,0.2,,,,,,,,,,,,,,,0.1359,,0.2,0.8,0.8,0.2,0.8,0.2,0.4,0.6,,,0.2004,,0.6,0.4,0.4,0.6,0.4,0.6,0.4,0.6,1,0
,,667783ecd51176477fc57977,66fc998046fcc5b0e60e50d4,2024-10-02_09h54.55.563,mdp,2024.2.1,Win32,60.24096386,66fa4ebf79326e780c390304,,,,,,,,,,,,,,,,,,,,,917.7011,917.7012,917.7027,918.234,1,0,right,0.0096,,918.236,918.884,1,0,right,918.8857,919.5499,1,0,right,1,919.55,919.55,919.5519,921.0501,0,49,49,49,1,0.8,0.2,0.8,0.2,,,,,,,,,,,,,,,0.1231,,0.2,0.8,0.8,0.2,0.8,0.2,0.4,0.6,,,0.1339,,0.6,0.4,0.4,0.6,0.4,0.6,0.4,0.6,1,0
,,667783ecd51176477fc57977,66fc998046fcc5b0e60e50d4,2024-10-02_09h54.55.563,mdp,2024.2.1,Win32,60.24096386,66fa4ebf79326e780c390304,,,,,,,,,,,,,,,,,,,,,,,,,,,,,,,,,,,,,,,,,,,,,,,,,,,,,,,,921.0502,979.5575,0,3,3,5,1,imgs/kangaroo.png,imgs/lion.png,imgs/giraffe.png,imgs/pig.png,imgs/rabbit.png,,,,,,,,,,,,,,,,,,,,,,,,
,,667783ecd51176477fc57977,66fc998046fcc5b0e60e50d4,2024-10-02_09h54.55.563,mdp,2024.2.1,Win32,60.24096386,66fa4ebf79326e780c390304,,,,,,,,,,,,,,1,seqs/st1seq45.csv,979.5633,981.2244,space,1.131,,981.2266,981.2266,981.227,982.9572,1,0,right,1.1843,,982.9589,982.9591,1,0,,982.9595,982.9597,1,1,,1,982.9597,982.9597,982.9598,984.4563,0,0,0,0,1,0.8,0.2,0.8,0.2,1,0,,,,,,,,,,,,,,,,,,,,,,,,,,,,,,,,,,,,
,,667783ecd51176477fc57977,66fc998046fcc5b0e60e50d4,2024-10-02_09h54.55.563,mdp,2024.2.1,Win32,60.24096386,66fa4ebf79326e780c390304,,,,,,,,,,,,,,,,,,,,,984.457,984.457,984.4588,990.5396,1,1,right,5.5497,,990.5414,990.5417,1,0,,990.542,990.5422,1,0,,0,990.5423,990.5423,990.5425,992.0386,0,1,1,1,1,0.8,0.2,0.8,0.2,1,0,,,,,,,,,,,,,,,,,,,,,,,,,,,,,,,,,,,,
,,667783ecd51176477fc57977,66fc998046fcc5b0e60e50d4,2024-10-02_09h54.55.563,mdp,2024.2.1,Win32,60.24096386,66fa4ebf79326e780c390304,,,,,,,,,,,,,,,,,,,,,992.0394,992.0394,992.0406,992.5718,1,0,right,0.0074,,992.574,992.5743,1,1,,992.5746,992.5748,1,1,,1,992.5748,992.5748,992.5749,994.0719,0,2,2,2,1,0.8,0.2,0.8,0.2,1,0,,,,,,,,,,,,,,,,,,,,,,,,,,,,,,,,,,,,
,,667783ecd51176477fc57977,66fc998046fcc5b0e60e50d4,2024-10-02_09h54.55.563,mdp,2024.2.1,Win32,60.24096386,66fa4ebf79326e780c390304,,,,,,,,,,,,,,,,,,,,,994.0726,994.0726,994.0738,994.7053,1,0,right,0.1026,,994.7068,994.7072,1,1,,994.7075,994.7077,1,0,,1,994.7077,994.7077,994.7079,996.2045,0,3,3,3,1,0.8,0.2,0.8,0.2,1,0,,,,,,,,,,,,,,,,,,,,,,,,,,,,,,,,,,,,
,,667783ecd51176477fc57977,66fc998046fcc5b0e60e50d4,2024-10-02_09h54.55.563,mdp,2024.2.1,Win32,60.24096386,66fa4ebf79326e780c390304,,,,,,,,,,,,,,,,,,,,,996.2052,996.2052,996.2067,996.9713,1,1,right,0.2437,,996.9731,996.9735,1,1,,996.9738,996.974,1,1,,0,996.974,996.974,996.9741,998.4709,0,4,4,4,1,0.6,0.4,0.6,0.4,1,0,,,,,,,,,,,,,,,,,,,,,,,,,,,,,,,,,,,,
,,667783ecd51176477fc57977,66fc998046fcc5b0e60e50d4,2024-10-02_09h54.55.563,mdp,2024.2.1,Win32,60.24096386,66fa4ebf79326e780c390304,,,,,,,,,,,,,,,,,,,,,998.4715,998.4715,998.4731,999.0208,1,0,right,0.0185,,999.0228,999.0232,1,1,,999.0235,999.0237,1,1,,1,999.0237,999.0237,999.0239,1000.5209,0,5,5,5,1,0.6,0.4,0.6,0.4,1,0,,,,,,,,,,,,,,,,,,,,,,,,,,,,,,,,,,,,
,,667783ecd51176477fc57977,66fc998046fcc5b0e60e50d4,2024-10-02_09h54.55.563,mdp,2024.2.1,Win32,60.24096386,66fa4ebf79326e780c390304,,,,,,,,,,,,,,,,,,,,,1000.5221,1000.5221,1000.5231,1001.138,1,0,right,0.0838,,1001.1396,1001.1399,1,0,,1001.1403,1001.1404,1,1,,1,1001.1404,1001.1404,1001.1407,1002.6374,0,6,6,6,1,0.6,0.4,0.6,0.4,1,0,,,,,,,,,,,,,,,,,,,,,,,,,,,,,,,,,,,,
,,667783ecd51176477fc57977,66fc998046fcc5b0e60e50d4,2024-10-02_09h54.55.563,mdp,2024.2.1,Win32,60.24096386,66fa4ebf79326e780c390304,,,,,,,,,,,,,,,,,,,,,1002.6386,1002.6386,1002.6392,1003.2034,1,1,right,0.0309,,1003.2057,1003.2061,1,0,,1003.2065,1003.2067,1,0,,0,1003.2067,1003.2067,1003.207,1004.7036,0,7,7,7,1,0.6,0.4,0.6,0.4,1,0,,,,,,,,,,,,,,,,,,,,,,,,,,,,,,,,,,,,
,,667783ecd51176477fc57977,66fc998046fcc5b0e60e50d4,2024-10-02_09h54.55.563,mdp,2024.2.1,Win32,60.24096386,66fa4ebf79326e780c390304,,,,,,,,,,,,,,,,,,,,,1004.7048,1004.7048,1004.7055,1005.4368,1,0,right,0.2064,,1005.4384,1005.4388,1,0,,1005.4391,1005.4393,1,1,,1,1005.4393,1005.4393,1005.4395,1006.936,0,8,8,8,1,0.8,0.2,0.8,0.2,1,0,,,,,,,,,,,,,,,,,,,,,,,,,,,,,,,,,,,,
,,667783ecd51176477fc57977,66fc998046fcc5b0e60e50d4,2024-10-02_09h54.55.563,mdp,2024.2.1,Win32,60.24096386,66fa4ebf79326e780c390304,,,,,,,,,,,,,,,,,,,,,1006.9369,1006.9369,1006.9384,1007.6526,1,0,right,0.1913,,1007.6547,1007.6551,1,0,,1007.6554,1007.6556,1,0,,1,1007.6557,1007.6557,1007.6559,1009.1526,0,9,9,9,1,0.8,0.2,0.8,0.2,1,0,,,,,,,,,,,,,,,,,,,,,,,,,,,,,,,,,,,,
,,667783ecd51176477fc57977,66fc998046fcc5b0e60e50d4,2024-10-02_09h54.55.563,mdp,2024.2.1,Win32,60.24096386,66fa4ebf79326e780c390304,,,,,,,,,,,,,,,,,,,,,1009.1537,1009.1538,1009.155,1009.9191,1,0,right,0.2376,,1009.921,1009.9213,1,0,,1009.9216,1009.9218,1,0,,1,1009.9218,1009.9218,1009.922,1011.4189,0,10,10,10,1,0.8,0.2,0.8,0.2,1,0,,,,,,,,,,,,,,,,,,,,,,,,,,,,,,,,,,,,
,,667783ecd51176477fc57977,66fc998046fcc5b0e60e50d4,2024-10-02_09h54.55.563,mdp,2024.2.1,Win32,60.24096386,66fa4ebf79326e780c390304,,,,,,,,,,,,,,,,,,,,,1011.4194,1011.4194,1011.4206,1012.2187,1,1,right,0.2746,,1012.2207,1012.2211,1,1,,1012.2213,1012.2216,1,0,,0,1012.2216,1012.2216,1012.2217,1013.7183,0,11,11,11,1,0.8,0.2,0.8,0.2,1,0,,,,,,,,,,,,,,,,,,,,,,,,,,,,,,,,,,,,
,,667783ecd51176477fc57977,66fc998046fcc5b0e60e50d4,2024-10-02_09h54.55.563,mdp,2024.2.1,Win32,60.24096386,66fa4ebf79326e780c390304,,,,,,,,,,,,,,,,,,,,,1013.7191,1013.7191,1013.7206,1014.385,1,0,right,0.1337,,1014.387,1014.3875,1,0,,1014.3878,1014.3881,1,0,,1,1014.3881,1014.3881,1014.3883,1015.8849,0,12,12,12,1,0.8,0.2,0.8,0.2,1,0,,,,,,,,,,,,,,,,,,,,,,,,,,,,,,,,,,,,
,,667783ecd51176477fc57977,66fc998046fcc5b0e60e50d4,2024-10-02_09h54.55.563,mdp,2024.2.1,Win32,60.24096386,66fa4ebf79326e780c390304,,,,,,,,,,,,,,,,,,,,,1015.8857,1015.8857,1015.8871,1017.9512,1,0,right,1.5386,,1017.9532,1017.9536,1,0,,1017.9538,1017.954,1,0,,1,1017.954,1017.954,1017.9543,1019.451,0,13,13,13,1,0.8,0.2,0.8,0.2,1,0,,,,,,,,,,,,,,,,,,,,,,,,,,,,,,,,,,,,
,,667783ecd51176477fc57977,66fc998046fcc5b0e60e50d4,2024-10-02_09h54.55.563,mdp,2024.2.1,Win32,60.24096386,66fa4ebf79326e780c390304,,,,,,,,,,,,,,,,,,,,,1019.4516,1019.4516,1019.453,1020.1674,1,0,right,0.1837,,1020.1693,1020.1697,1,0,,1020.17,1020.1702,1,0,,1,1020.1702,1020.1702,1020.1704,1021.6676,0,14,14,14,1,0.8,0.2,0.8,0.2,1,0,,,,,,,,,,,,,,,,,,,,,,,,,,,,,,,,,,,,
,,667783ecd51176477fc57977,66fc998046fcc5b0e60e50d4,2024-10-02_09h54.55.563,mdp,2024.2.1,Win32,60.24096386,66fa4ebf79326e780c390304,,,,,,,,,,,,,,,,,,,,,1021.6687,1021.6687,1021.6695,1022.2341,1,0,right,0.039,,1022.2358,1022.2362,1,0,,1022.2364,1022.2365,1,1,,1,1022.2365,1022.2365,1022.2368,1023.7334,0,15,15,15,1,0.8,0.2,0.8,0.2,1,0,,,,,,,,,,,,,,,,,,,,,,,,,,,,,,,,,,,,
,,667783ecd51176477fc57977,66fc998046fcc5b0e60e50d4,2024-10-02_09h54.55.563,mdp,2024.2.1,Win32,60.24096386,66fa4ebf79326e780c390304,,,,,,,,,,,,,,,,,,,,,1023.734,1023.734,1023.7354,1024.3341,1,1,right,0.0544,,1024.3356,1024.336,1,1,,1024.3362,1024.3365,1,1,,0,1024.3365,1024.3365,1024.3368,1025.8338,0,16,16,16,1,0.6,0.4,0.4,0.6,1,0,,,,,,,,,,,,,,,,,,,,,,,,,,,,,,,,,,,,
,,667783ecd51176477fc57977,66fc998046fcc5b0e60e50d4,2024-10-02_09h54.55.563,mdp,2024.2.1,Win32,60.24096386,66fa4ebf79326e780c390304,,,,,,,,,,,,,,,,,,,,,1025.8349,1025.8349,1025.8355,1026.4837,1,1,right,0.117,,1026.4852,1026.4856,1,0,,1026.4858,1026.486,1,0,,0,1026.486,1026.486,1026.4861,1027.983,0,17,17,17,1,0.6,0.4,0.4,0.6,1,0,,,,,,,,,,,,,,,,,,,,,,,,,,,,,,,,,,,,
,,667783ecd51176477fc57977,66fc998046fcc5b0e60e50d4,2024-10-02_09h54.55.563,mdp,2024.2.1,Win32,60.24096386,66fa4ebf79326e780c390304,,,,,,,,,,,,,,,,,,,,,1027.9836,1027.9836,1027.9851,1028.8163,1,1,right,0.2889,,1028.8182,1028.8186,1,1,,1028.8188,1028.819,1,1,,0,1028.819,1028.819,1028.8192,1030.3158,0,18,18,18,1,0.6,0.4,0.4,0.6,1,0,,,,,,,,,,,,,,,,,,,,,,,,,,,,,,,,,,,,
,,667783ecd51176477fc57977,66fc998046fcc5b0e60e50d4,2024-10-02_09h54.55.563,mdp,2024.2.1,Win32,60.24096386,66fa4ebf79326e780c390304,,,,,,,,,,,,,,,,,,,,,1030.3166,1030.3166,1030.318,1030.8991,1,1,right,0.0584,,1030.901,1030.9013,1,1,,1030.9016,1030.9017,1,0,,0,1030.9017,1030.9017,1030.902,1032.3996,0,19,19,19,1,0.6,0.4,0.4,0.6,1,0,,,,,,,,,,,,,,,,,,,,,,,,,,,,,,,,,,,,
,,667783ecd51176477fc57977,66fc998046fcc5b0e60e50d4,2024-10-02_09h54.55.563,mdp,2024.2.1,Win32,60.24096386,66fa4ebf79326e780c390304,,,,,,,,,,,,,,,,,,,,,1032.4005,1032.4005,1032.4011,1033.1491,1,0,right,0.2171,,1033.1508,1033.1512,1,0,,1033.1515,1033.1517,1,0,,1,1033.1517,1033.1517,1033.152,1034.6489,0,20,20,20,1,0.2,0.8,0.8,0.2,1,0,,,,,,,,,,,,,,,,,,,,,,,,,,,,,,,,,,,,
,,667783ecd51176477fc57977,66fc998046fcc5b0e60e50d4,2024-10-02_09h54.55.563,mdp,2024.2.1,Win32,60.24096386,66fa4ebf79326e780c390304,,,,,,,,,,,,,,,,,,,,,1034.6498,1034.6498,1034.651,1035.2154,1,0,right,0.0444,,1035.217,1035.2173,1,1,,1035.2175,1035.2178,1,0,,1,1035.2178,1035.2178,1035.218,1036.7147,0,21,21,21,1,0.2,0.8,0.8,0.2,1,0,,,,,,,,,,,,,,,,,,,,,,,,,,,,,,,,,,,,
,,667783ecd51176477fc57977,66fc998046fcc5b0e60e50d4,2024-10-02_09h54.55.563,mdp,2024.2.1,Win32,60.24096386,66fa4ebf79326e780c390304,,,,,,,,,,,,,,,,,,,,,1036.7151,1036.7151,1036.7168,1037.365,1,0,right,0.1271,,1037.3665,1037.367,1,0,,1037.3672,1037.3675,1,0,,1,1037.3675,1037.3675,1037.3677,1038.8644,0,22,22,22,1,0.2,0.8,0.8,0.2,1,0,,,,,,,,,,,,,,,,,,,,,,,,,,,,,,,,,,,,
,,667783ecd51176477fc57977,66fc998046fcc5b0e60e50d4,2024-10-02_09h54.55.563,mdp,2024.2.1,Win32,60.24096386,66fa4ebf79326e780c390304,,,,,,,,,,,,,,,,,,,,,1038.865,1038.8651,1038.8665,1039.4145,1,0,right,0.0176,,1039.4164,1039.4168,1,1,,1039.417,1039.4173,1,1,,1,1039.4173,1039.4173,1039.4175,1040.914,0,23,23,23,1,0.2,0.8,0.8,0.2,1,0,,,,,,,,,,,,,,,,,,,,,,,,,,,,,,,,,,,,
,,667783ecd51176477fc57977,66fc998046fcc5b0e60e50d4,2024-10-02_09h54.55.563,mdp,2024.2.1,Win32,60.24096386,66fa4ebf79326e780c390304,,,,,,,,,,,,,,,,,,,,,1040.9147,1040.9147,1040.9161,1041.6139,1,0,right,0.1739,,1041.616,1041.6164,1,1,,1041.6168,1041.617,1,0,,1,1041.617,1041.617,1041.6172,1043.1139,0,24,24,24,1,0.2,0.8,0.8,0.2,1,0,,,,,,,,,,,,,,,,,,,,,,,,,,,,,,,,,,,,
,,667783ecd51176477fc57977,66fc998046fcc5b0e60e50d4,2024-10-02_09h54.55.563,mdp,2024.2.1,Win32,60.24096386,66fa4ebf79326e780c390304,,,,,,,,,,,,,,,,,,,,,1043.1149,1043.1149,1043.1159,1043.831,1,1,right,0.1862,,1043.8326,1043.833,1,0,,1043.8333,1043.8335,1,0,,0,1043.8335,1043.8335,1043.8338,1045.331,0,25,25,25,1,0.4,0.6,0.6,0.4,1,0,,,,,,,,,,,,,,,,,,,,,,,,,,,,,,,,,,,,
,,667783ecd51176477fc57977,66fc998046fcc5b0e60e50d4,2024-10-02_09h54.55.563,mdp,2024.2.1,Win32,60.24096386,66fa4ebf79326e780c390304,,,,,,,,,,,,,,,,,,,,,1045.3319,1045.3319,1045.3325,1046.347,1,1,right,0.4936,,1046.3487,1046.349,1,1,,1046.3494,1046.3495,1,0,,0,1046.3495,1046.3495,1046.3497,1047.8461,0,26,26,26,1,0.4,0.6,0.6,0.4,1,0,,,,,,,,,,,,,,,,,,,,,,,,,,,,,,,,,,,,
,,667783ecd51176477fc57977,66fc998046fcc5b0e60e50d4,2024-10-02_09h54.55.563,mdp,2024.2.1,Win32,60.24096386,66fa4ebf79326e780c390304,,,,,,,,,,,,,,,,,,,,,1047.8463,1047.8463,1047.8482,1048.4796,1,0,right,0.11,,1048.4815,1048.4818,1,1,,1048.4821,1048.4823,1,1,,1,1048.4823,1048.4823,1048.4826,1049.9792,0,27,27,27,1,0.6,0.4,0.4,0.6,1,0,,,,,,,,,,,,,,,,,,,,,,,,,,,,,,,,,,,,
,,667783ecd51176477fc57977,66fc998046fcc5b0e60e50d4,2024-10-02_09h54.55.563,mdp,2024.2.1,Win32,60.24096386,66fa4ebf79326e780c390304,,,,,,,,,,,,,,,,,,,,,1049.9794,1049.9795,1049.9814,1050.5791,1,1,right,0.0838,,1050.5807,1050.5815,1,0,,1050.5817,1050.582,1,0,,0,1050.582,1050.582,1050.5822,1052.079,0,28,28,28,1,0.4,0.6,0.6,0.4,1,0,,,,,,,,,,,,,,,,,,,,,,,,,,,,,,,,,,,,
,,667783ecd51176477fc57977,66fc998046fcc5b0e60e50d4,2024-10-02_09h54.55.563,mdp,2024.2.1,Win32,60.24096386,66fa4ebf79326e780c390304,,,,,,,,,,,,,,,,,,,,,1052.0797,1052.0797,1052.0811,1052.8288,1,0,right,0.2197,,1052.8306,1052.8313,1,1,,1052.8317,1052.8319,1,0,,1,1052.8319,1052.8319,1052.8321,1054.329,0,29,29,29,1,0.4,0.6,0.6,0.4,1,0,,,,,,,,,,,,,,,,,,,,,,,,,,,,,,,,,,,,
,,667783ecd51176477fc57977,66fc998046fcc5b0e60e50d4,2024-10-02_09h54.55.563,mdp,2024.2.1,Win32,60.24096386,66fa4ebf79326e780c390304,,,,,,,,,,,,,,,,,,,,,1054.3299,1054.3299,1054.3308,1055.0453,1,0,right,0.1838,,1055.0471,1055.0475,1,0,,1055.0479,1055.048,1,0,,1,1055.048,1055.048,1055.0483,1056.5449,0,30,30,30,1,0.4,0.6,0.6,0.4,1,0,,,,,,,,,,,,,,,,,,,,,,,,,,,,,,,,,,,,
,,667783ecd51176477fc57977,66fc998046fcc5b0e60e50d4,2024-10-02_09h54.55.563,mdp,2024.2.1,Win32,60.24096386,66fa4ebf79326e780c390304,,,,,,,,,,,,,,,,,,,,,1056.5455,1056.5455,1056.5472,1057.3781,1,1,right,0.3099,,1057.38,1057.3803,1,0,,1057.3805,1057.3808,1,0,,0,1057.3808,1057.3808,1057.381,1058.8786,0,31,31,31,1,0.4,0.6,0.6,0.4,1,0,,,,,,,,,,,,,,,,,,,,,,,,,,,,,,,,,,,,
,,667783ecd51176477fc57977,66fc998046fcc5b0e60e50d4,2024-10-02_09h54.55.563,mdp,2024.2.1,Win32,60.24096386,66fa4ebf79326e780c390304,,,,,,,,,,,,,,,,,,,,,1058.8796,1058.8796,1058.8802,1060.2116,1,0,right,0.8079,,1060.2132,1060.2135,1,0,,1060.2137,1060.2139,1,0,,1,1060.2139,1060.2139,1060.2142,1061.7115,0,32,32,32,1,0.4,0.6,0.6,0.4,1,0,,,,,,,,,,,,,,,,,,,,,,,,,,,,,,,,,,,,
,,667783ecd51176477fc57977,66fc998046fcc5b0e60e50d4,2024-10-02_09h54.55.563,mdp,2024.2.1,Win32,60.24096386,66fa4ebf79326e780c390304,,,,,,,,,,,,,,,,,,,,,1061.7127,1061.7127,1061.7135,1063.1938,1,0,right,0.9603,,1063.1956,1063.196,1,1,,1063.1963,1063.1965,1,0,,1,1063.1965,1063.1965,1063.1967,1064.6935,0,33,33,33,1,0.4,0.6,0.6,0.4,1,0,,,,,,,,,,,,,,,,,,,,,,,,,,,,,,,,,,,,
,,667783ecd51176477fc57977,66fc998046fcc5b0e60e50d4,2024-10-02_09h54.55.563,mdp,2024.2.1,Win32,60.24096386,66fa4ebf79326e780c390304,,,,,,,,,,,,,,,,,,,,,1064.6942,1064.6942,1064.6957,1065.227,1,1,right,0.0017,,1065.2288,1065.2291,1,1,,1065.2294,1065.2296,1,1,,0,1065.2296,1065.2296,1065.2298,1066.7273,0,34,34,34,1,0.4,0.6,0.6,0.4,1,0,,,,,,,,,,,,,,,,,,,,,,,,,,,,,,,,,,,,
,,667783ecd51176477fc57977,66fc998046fcc5b0e60e50d4,2024-10-02_09h54.55.563,mdp,2024.2.1,Win32,60.24096386,66fa4ebf79326e780c390304,,,,,,,,,,,,,,,,,,,,,1066.7284,1066.7284,1066.7292,1067.3771,1,0,right,0.1291,,1067.3787,1067.3791,1,1,,1067.3793,1067.3794,1,1,,1,1067.3794,1067.3794,1067.3796,1068.8764,0,35,35,35,1,0.4,0.6,0.6,0.4,1,0,,,,,,,,,,,,,,,,,,,,,,,,,,,,,,,,,,,,
,,667783ecd51176477fc57977,66fc998046fcc5b0e60e50d4,2024-10-02_09h54.55.563,mdp,2024.2.1,Win32,60.24096386,66fa4ebf79326e780c390304,,,,,,,,,,,,,,,,,,,,,1068.877,1068.877,1068.8785,1069.8097,1,0,right,0.4036,,1069.8116,1069.8119,1,0,,1069.8122,1069.8124,1,0,,1,1069.8124,1069.8124,1069.8126,1071.3092,0,36,36,36,1,0.4,0.6,0.6,0.4,1,0,,,,,,,,,,,,,,,,,,,,,,,,,,,,,,,,,,,,
,,667783ecd51176477fc57977,66fc998046fcc5b0e60e50d4,2024-10-02_09h54.55.563,mdp,2024.2.1,Win32,60.24096386,66fa4ebf79326e780c390304,,,,,,,,,,,,,,,,,,,,,1071.3098,1071.3098,1071.3115,1072.0258,1,1,right,0.1679,,1072.028,1072.0284,1,1,,1072.0286,1072.0288,1,1,,0,1072.0288,1072.0289,1072.0291,1073.5257,0,37,37,37,1,0.4,0.6,0.6,0.4,1,0,,,,,,,,,,,,,,,,,,,,,,,,,,,,,,,,,,,,
,,667783ecd51176477fc57977,66fc998046fcc5b0e60e50d4,2024-10-02_09h54.55.563,mdp,2024.2.1,Win32,60.24096386,66fa4ebf79326e780c390304,,,,,,,,,,,,,,,,,,,,,1073.5263,1073.5264,1073.5275,1074.2594,1,1,right,0.2011,,1074.2607,1074.2611,1,0,,1074.2613,1074.2616,1,0,,0,1074.2616,1074.2616,1074.2617,1075.7588,0,38,38,38,1,0.4,0.6,0.6,0.4,1,0,,,,,,,,,,,,,,,,,,,,,,,,,,,,,,,,,,,,
,,667783ecd51176477fc57977,66fc998046fcc5b0e60e50d4,2024-10-02_09h54.55.563,mdp,2024.2.1,Win32,60.24096386,66fa4ebf79326e780c390304,,,,,,,,,,,,,,,,,,,,,1075.7598,1075.7598,1075.7608,1076.3751,1,0,right,0.0936,,1076.3768,1076.3772,1,0,,1076.3775,1076.3778,1,0,,1,1076.3778,1076.3778,1076.3779,1077.8748,0,39,39,39,1,0.4,0.6,0.6,0.4,1,0,,,,,,,,,,,,,,,,,,,,,,,,,,,,,,,,,,,,
,,667783ecd51176477fc57977,66fc998046fcc5b0e60e50d4,2024-10-02_09h54.55.563,mdp,2024.2.1,Win32,60.24096386,66fa4ebf79326e780c390304,,,,,,,,,,,,,,,,,,,,,1077.8753,1077.8753,1077.877,1078.4084,1,0,right,0.0005,,1078.4101,1078.4104,1,1,,1078.4107,1078.4109,1,0,,1,1078.4109,1078.4109,1078.411,1079.9082,0,40,40,40,1,0.4,0.6,0.6,0.4,1,0,,,,,,,,,,,,,,,,,,,,,,,,,,,,,,,,,,,,
,,667783ecd51176477fc57977,66fc998046fcc5b0e60e50d4,2024-10-02_09h54.55.563,mdp,2024.2.1,Win32,60.24096386,66fa4ebf79326e780c390304,,,,,,,,,,,,,,,,,,,,,1079.9092,1079.9092,1079.9103,1080.5086,1,0,right,0.0706,,1080.51,1080.5104,1,1,,1080.5106,1080.511,1,0,,1,1080.511,1080.511,1080.5112,1082.0075,0,41,41,41,1,0.4,0.6,0.6,0.4,1,0,,,,,,,,,,,,,,,,,,,,,,,,,,,,,,,,,,,,
