init_exp.started,init_exp.stopped,participant,session,date,expName,psychopyVersion,OS,frameRate,study_id,disp_instruction.started,disp_instruction.stopped,instruction.thisRepN,instruction.thisTrialN,instruction.thisN,instruction.thisIndex,instruction.ran,instimg_path,consent.started,consent.stopped,key_resp_3.keys,key_resp_3.rt,key_resp_3.duration,n_steps,sequence_path,init_block.started,init_block.stopped,key_resp.keys,key_resp.rt,key_resp.duration,init_trials.started,init_trials.stopped,step0.started,step0.stopped,act0,s1,res0.keys,res0.rt,res0.duration,step1.started,step1.stopped,act1,s2,res1.keys,step2.started,step2.stopped,act2,s3,res2.keys,rew,reward_comp.started,reward_comp.stopped,reward_disp.started,reward_disp.stopped,trials.thisRepN,trials.thisTrialN,trials.thisN,trials.thisIndex,trials.ran,s00a0s10,s00a0s11,s00a1s10,s00a1s11,rew10,rew11,break_block.started,break_block.stopped,block.thisRepN,block.thisTrialN,block.thisN,block.thisIndex,block.ran,s00path,s10path,s11path,s20path,s21path,res1.rt,res1.duration,s10a0s20,s10a0s21,s10a1s20,s10a1s21,s11a0s20,s11a0s21,s11a1s20,s11a1s21,rew20,rew21,res2.rt,res2.duration,s20a0s30,s20a0s31,s20a1s30,s20a1s31,s21a0s30,s21a0s31,s21a1s30,s21a1s31,rew30,rew31
0.0015,0.0032,667f23d046fa0aeeb5153736,66fc990304c12e3f4733d4ad,2024-10-01_18h52.41.794,mdp,2024.2.1,Win32,59.88023952,66fa4ebf79326e780c390304,,,,,,,,,,,,,,,,,,,,,,,,,,,,,,,,,,,,,,,,,,,,,,,,,,,,,,,,,,,,,,,,,,,,,,,,,,,,,,,,,,,,,,,,,,,
,,667f23d046fa0aeeb5153736,66fc990304c12e3f4733d4ad,2024-10-01_18h52.41.794,mdp,2024.2.1,Win32,59.88023952,66fa4ebf79326e780c390304,0.007,41.4306,0,0,0,0,1,rlnn_exp/rlnn_exp.001.png,,,,,,,,,,,,,,,,,,,,,,,,,,,,,,,,,,,,,,,,,,,,,,,,,,,,,,,,,,,,,,,,,,,,,,,,,,,,,,,,,,,
,,667f23d046fa0aeeb5153736,66fc990304c12e3f4733d4ad,2024-10-01_18h52.41.794,mdp,2024.2.1,Win32,59.88023952,66fa4ebf79326e780c390304,41.4327,158.3347,0,1,1,1,1,rlnn_exp/rlnn_exp.002.png,,,,,,,,,,,,,,,,,,,,,,,,,,,,,,,,,,,,,,,,,,,,,,,,,,,,,,,,,,,,,,,,,,,,,,,,,,,,,,,,,,,
,,667f23d046fa0aeeb5153736,66fc990304c12e3f4733d4ad,2024-10-01_18h52.41.794,mdp,2024.2.1,Win32,59.88023952,66fa4ebf79326e780c390304,158.3369,168.5637,0,2,2,2,1,rlnn_exp/rlnn_exp.003.png,,,,,,,,,,,,,,,,,,,,,,,,,,,,,,,,,,,,,,,,,,,,,,,,,,,,,,,,,,,,,,,,,,,,,,,,,,,,,,,,,,,
,,667f23d046fa0aeeb5153736,66fc990304c12e3f4733d4ad,2024-10-01_18h52.41.794,mdp,2024.2.1,Win32,59.88023952,66fa4ebf79326e780c390304,168.5646,205.0975,0,3,3,3,1,rlnn_exp/rlnn_exp.004.png,,,,,,,,,,,,,,,,,,,,,,,,,,,,,,,,,,,,,,,,,,,,,,,,,,,,,,,,,,,,,,,,,,,,,,,,,,,,,,,,,,,
,,667f23d046fa0aeeb5153736,66fc990304c12e3f4733d4ad,2024-10-01_18h52.41.794,mdp,2024.2.1,Win32,59.88023952,66fa4ebf79326e780c390304,,,,,,,,,205.098,240.3647,y,25.232,,,,,,,,,,,,,,,,,,,,,,,,,,,,,,,,,,,,,,,,,,,,,,,,,,,,,,,,,,,,,,,,,,,,,,,,,,,,,,,
,,667f23d046fa0aeeb5153736,66fc990304c12e3f4733d4ad,2024-10-01_18h52.41.794,mdp,2024.2.1,Win32,59.88023952,66fa4ebf79326e780c390304,,,,,,,,,,,,,,1,seqs/st1seq37.csv,240.372,242.5305,space,1.6372,,242.5361,242.5362,242.5367,246.4998,0,1,left,3.4282,,246.5006,246.5043,,1,,246.5048,246.5064,,1,,0,246.5066,246.5067,246.5072,247.9973,0,0,0,0,1,0.2,0.8,0.6,0.4,1,0,,,,,,,,,,,,,,,,,,,,,,,,,,,,,,,,,,,,
,,667f23d046fa0aeeb5153736,66fc990304c12e3f4733d4ad,2024-10-01_18h52.41.794,mdp,2024.2.1,Win32,59.88023952,66fa4ebf79326e780c390304,,,,,,,,,,,,,,,,,,,,,247.9981,247.9981,248.0008,250.6806,0,1,left,2.1507,,250.6833,250.6854,,1,,250.6866,250.6876,,1,,0,250.6876,250.6876,250.6881,252.1811,0,1,1,1,1,0.2,0.8,0.6,0.4,1,0,,,,,,,,,,,,,,,,,,,,,,,,,,,,,,,,,,,,
,,667f23d046fa0aeeb5153736,66fc990304c12e3f4733d4ad,2024-10-01_18h52.41.794,mdp,2024.2.1,Win32,59.88023952,66fa4ebf79326e780c390304,,,,,,,,,,,,,,,,,,,,,252.1818,252.1818,252.1847,255.5807,0,1,left,2.8671,,255.5825,255.5839,,0,,255.5855,255.5866,,0,,0,255.5866,255.5866,255.5872,257.0805,0,2,2,2,1,0.6,0.4,0.4,0.6,1,0,,,,,,,,,,,,,,,,,,,,,,,,,,,,,,,,,,,,
,,667f23d046fa0aeeb5153736,66fc990304c12e3f4733d4ad,2024-10-01_18h52.41.794,mdp,2024.2.1,Win32,59.88023952,66fa4ebf79326e780c390304,,,,,,,,,,,,,,,,,,,,,257.0809,257.081,257.0833,259.6642,0,0,left,2.0543,,259.6665,259.6684,,0,,259.6702,259.671,,0,,1,259.671,259.671,259.6716,261.1641,0,3,3,3,1,0.6,0.4,0.4,0.6,1,0,,,,,,,,,,,,,,,,,,,,,,,,,,,,,,,,,,,,
,,667f23d046fa0aeeb5153736,66fc990304c12e3f4733d4ad,2024-10-01_18h52.41.794,mdp,2024.2.1,Win32,59.88023952,66fa4ebf79326e780c390304,,,,,,,,,,,,,,,,,,,,,261.1644,261.1644,261.1662,262.9637,1,1,right,1.267,,262.9658,262.9672,,1,,262.9697,262.9707,,0,,0,262.9708,262.9708,262.9716,264.4637,0,4,4,4,1,0.6,0.4,0.4,0.6,1,0,,,,,,,,,,,,,,,,,,,,,,,,,,,,,,,,,,,,
,,667f23d046fa0aeeb5153736,66fc990304c12e3f4733d4ad,2024-10-01_18h52.41.794,mdp,2024.2.1,Win32,59.88023952,66fa4ebf79326e780c390304,,,,,,,,,,,,,,,,,,,,,264.4642,264.4642,264.4665,266.7973,0,1,left,1.8174,,266.7997,266.8016,,0,,266.8038,266.8047,,1,,0,266.8048,266.8048,266.8054,268.2968,0,5,5,5,1,0.6,0.4,0.4,0.6,1,0,,,,,,,,,,,,,,,,,,,,,,,,,,,,,,,,,,,,
,,667f23d046fa0aeeb5153736,66fc990304c12e3f4733d4ad,2024-10-01_18h52.41.794,mdp,2024.2.1,Win32,59.88023952,66fa4ebf79326e780c390304,,,,,,,,,,,,,,,,,,,,,268.2971,268.2971,268.3002,269.9142,0,1,left,1.086,,269.9168,269.9189,,0,,269.9202,269.9209,,1,,0,269.921,269.921,269.9215,271.4138,0,6,6,6,1,0.6,0.4,0.4,0.6,1,0,,,,,,,,,,,,,,,,,,,,,,,,,,,,,,,,,,,,
,,667f23d046fa0aeeb5153736,66fc990304c12e3f4733d4ad,2024-10-01_18h52.41.794,mdp,2024.2.1,Win32,59.88023952,66fa4ebf79326e780c390304,,,,,,,,,,,,,,,,,,,,,271.4143,271.4143,271.4167,272.4637,1,1,right,0.5334,,272.4666,272.468,,1,,272.4699,272.4707,,0,,0,272.4708,272.4708,272.4714,273.9642,0,7,7,7,1,0.6,0.4,0.4,0.6,1,0,,,,,,,,,,,,,,,,,,,,,,,,,,,,,,,,,,,,
,,667f23d046fa0aeeb5153736,66fc990304c12e3f4733d4ad,2024-10-01_18h52.41.794,mdp,2024.2.1,Win32,59.88023952,66fa4ebf79326e780c390304,,,,,,,,,,,,,,,,,,,,,273.9646,273.9646,273.9668,276.2141,0,0,left,1.7258,,276.2151,276.2169,,0,,276.2196,276.2204,,0,,1,276.2205,276.2205,276.2212,277.7141,0,8,8,8,1,0.6,0.4,0.4,0.6,1,0,,,,,,,,,,,,,,,,,,,,,,,,,,,,,,,,,,,,
,,667f23d046fa0aeeb5153736,66fc990304c12e3f4733d4ad,2024-10-01_18h52.41.794,mdp,2024.2.1,Win32,59.88023952,66fa4ebf79326e780c390304,,,,,,,,,,,,,,,,,,,,,277.7147,277.7147,277.7168,280.7139,0,1,left,2.4711,,280.7169,280.7194,,0,,280.7204,280.7211,,0,,0,280.7212,280.7212,280.7216,282.2136,0,9,9,9,1,0.6,0.4,0.4,0.6,1,0,,,,,,,,,,,,,,,,,,,,,,,,,,,,,,,,,,,,
,,667f23d046fa0aeeb5153736,66fc990304c12e3f4733d4ad,2024-10-01_18h52.41.794,mdp,2024.2.1,Win32,59.88023952,66fa4ebf79326e780c390304,,,,,,,,,,,,,,,,,,,,,282.2141,282.2141,282.216,284.0141,0,0,left,1.2762,,284.0159,284.0172,,1,,284.0192,284.02,,0,,1,284.02,284.02,284.0205,285.5142,0,10,10,10,1,0.6,0.4,0.4,0.6,1,0,,,,,,,,,,,,,,,,,,,,,,,,,,,,,,,,,,,,
,,667f23d046fa0aeeb5153736,66fc990304c12e3f4733d4ad,2024-10-01_18h52.41.794,mdp,2024.2.1,Win32,59.88023952,66fa4ebf79326e780c390304,,,,,,,,,,,,,,,,,,,,,285.5145,285.5145,285.5173,288.8805,0,0,left,2.8337,,288.8824,288.8843,,1,,288.886,288.8868,,1,,1,288.8868,288.8868,288.8872,290.3809,0,11,11,11,1,0.8,0.2,0.2,0.8,1,0,,,,,,,,,,,,,,,,,,,,,,,,,,,,,,,,,,,,
,,667f23d046fa0aeeb5153736,66fc990304c12e3f4733d4ad,2024-10-01_18h52.41.794,mdp,2024.2.1,Win32,59.88023952,66fa4ebf79326e780c390304,,,,,,,,,,,,,,,,,,,,,290.3815,290.3815,290.3832,292.0805,0,0,left,1.1695,,292.0823,292.084,,1,,292.0864,292.0872,,0,,1,292.0873,292.0873,292.088,293.5838,0,12,12,12,1,0.8,0.2,0.2,0.8,1,0,,,,,,,,,,,,,,,,,,,,,,,,,,,,,,,,,,,,
,,667f23d046fa0aeeb5153736,66fc990304c12e3f4733d4ad,2024-10-01_18h52.41.794,mdp,2024.2.1,Win32,59.88023952,66fa4ebf79326e780c390304,,,,,,,,,,,,,,,,,,,,,293.5842,293.5842,293.5859,295.4639,0,0,left,1.3523,,295.4653,295.467,,0,,295.4694,295.47,,1,,1,295.47,295.47,295.4706,296.9637,0,13,13,13,1,0.8,0.2,0.2,0.8,1,0,,,,,,,,,,,,,,,,,,,,,,,,,,,,,,,,,,,,
,,667f23d046fa0aeeb5153736,66fc990304c12e3f4733d4ad,2024-10-01_18h52.41.794,mdp,2024.2.1,Win32,59.88023952,66fa4ebf79326e780c390304,,,,,,,,,,,,,,,,,,,,,296.9643,296.9643,296.9662,298.648,0,0,left,1.1508,,298.6501,298.6517,,0,,298.6534,298.6543,,1,,1,298.6544,298.6544,298.6551,300.1474,0,14,14,14,1,0.8,0.2,0.2,0.8,1,0,,,,,,,,,,,,,,,,,,,,,,,,,,,,,,,,,,,,
,,667f23d046fa0aeeb5153736,66fc990304c12e3f4733d4ad,2024-10-01_18h52.41.794,mdp,2024.2.1,Win32,59.88023952,66fa4ebf79326e780c390304,,,,,,,,,,,,,,,,,,,,,300.1479,300.1479,300.1501,301.3137,0,1,left,0.6324,,301.3155,301.317,,1,,301.3192,301.3199,,0,,0,301.32,301.32,301.3206,302.814,0,15,15,15,1,0.8,0.2,0.2,0.8,1,0,,,,,,,,,,,,,,,,,,,,,,,,,,,,,,,,,,,,
,,667f23d046fa0aeeb5153736,66fc990304c12e3f4733d4ad,2024-10-01_18h52.41.794,mdp,2024.2.1,Win32,59.88023952,66fa4ebf79326e780c390304,,,,,,,,,,,,,,,,,,,,,302.8143,302.8143,302.8165,304.3135,1,1,right,0.9676,,304.3155,304.3167,,1,,304.3192,304.3203,,1,,0,304.3204,304.3204,304.3212,305.8138,0,16,16,16,1,0.4,0.6,0.6,0.4,1,0,,,,,,,,,,,,,,,,,,,,,,,,,,,,,,,,,,,,
,,667f23d046fa0aeeb5153736,66fc990304c12e3f4733d4ad,2024-10-01_18h52.41.794,mdp,2024.2.1,Win32,59.88023952,66fa4ebf79326e780c390304,,,,,,,,,,,,,,,,,,,,,305.8143,305.8143,305.8161,306.7978,1,0,right,0.453,,306.8002,306.8012,,1,,306.8033,306.8039,,0,,1,306.804,306.804,306.8045,308.2968,0,17,17,17,1,0.8,0.2,0.2,0.8,1,0,,,,,,,,,,,,,,,,,,,,,,,,,,,,,,,,,,,,
,,667f23d046fa0aeeb5153736,66fc990304c12e3f4733d4ad,2024-10-01_18h52.41.794,mdp,2024.2.1,Win32,59.88023952,66fa4ebf79326e780c390304,,,,,,,,,,,,,,,,,,,,,308.2971,308.2971,308.2992,309.0802,1,1,right,0.2696,,309.0827,309.0846,,0,,309.0863,309.0871,,0,,0,309.0872,309.0872,309.0882,310.5807,0,18,18,18,1,0.2,0.8,0.6,0.4,1,0,,,,,,,,,,,,,,,,,,,,,,,,,,,,,,,,,,,,
,,667f23d046fa0aeeb5153736,66fc990304c12e3f4733d4ad,2024-10-01_18h52.41.794,mdp,2024.2.1,Win32,59.88023952,66fa4ebf79326e780c390304,,,,,,,,,,,,,,,,,,,,,310.581,310.5811,310.5833,311.614,1,1,right,0.5033,,311.6157,311.6173,,0,,311.6199,311.621,,0,,0,311.621,311.621,311.6216,313.1137,0,19,19,19,1,0.8,0.2,0.2,0.8,1,0,,,,,,,,,,,,,,,,,,,,,,,,,,,,,,,,,,,,
,,667f23d046fa0aeeb5153736,66fc990304c12e3f4733d4ad,2024-10-01_18h52.41.794,mdp,2024.2.1,Win32,59.88023952,66fa4ebf79326e780c390304,,,,,,,,,,,,,,,,,,,,,313.1142,313.1142,313.1162,314.1972,1,0,right,0.5514,,314.199,314.2002,,1,,314.2022,314.2038,,0,,1,314.2039,314.2039,314.2045,315.6971,0,20,20,20,1,0.8,0.2,0.2,0.8,1,0,,,,,,,,,,,,,,,,,,,,,,,,,,,,,,,,,,,,
,,667f23d046fa0aeeb5153736,66fc990304c12e3f4733d4ad,2024-10-01_18h52.41.794,mdp,2024.2.1,Win32,59.88023952,66fa4ebf79326e780c390304,,,,,,,,,,,,,,,,,,,,,315.6976,315.6976,315.6995,317.7812,1,0,right,1.5734,,317.7829,317.784,,1,,317.7851,317.7868,,0,,1,317.7868,317.7868,317.7875,319.28,0,21,21,21,1,0.4,0.6,0.8,0.2,1,0,,,,,,,,,,,,,,,,,,,,,,,,,,,,,,,,,,,,
,,667f23d046fa0aeeb5153736,66fc990304c12e3f4733d4ad,2024-10-01_18h52.41.794,mdp,2024.2.1,Win32,59.88023952,66fa4ebf79326e780c390304,,,,,,,,,,,,,,,,,,,,,319.2803,319.2803,319.2821,320.5644,1,1,right,0.7741,,320.5664,320.568,,0,,320.5705,320.5712,,0,,0,320.5713,320.5713,320.5721,322.0637,0,22,22,22,1,0.4,0.6,0.8,0.2,1,0,,,,,,,,,,,,,,,,,,,,,,,,,,,,,,,,,,,,
,,667f23d046fa0aeeb5153736,66fc990304c12e3f4733d4ad,2024-10-01_18h52.41.794,mdp,2024.2.1,Win32,59.88023952,66fa4ebf79326e780c390304,,,,,,,,,,,,,,,,,,,,,322.0643,322.0643,322.0659,323.2979,0,0,left,0.6992,,323.3005,323.3024,,0,,323.3038,323.3046,,0,,1,323.3046,323.3046,323.3052,324.7972,0,23,23,23,1,0.4,0.6,0.8,0.2,1,0,,,,,,,,,,,,,,,,,,,,,,,,,,,,,,,,,,,,
,,667f23d046fa0aeeb5153736,66fc990304c12e3f4733d4ad,2024-10-01_18h52.41.794,mdp,2024.2.1,Win32,59.88023952,66fa4ebf79326e780c390304,,,,,,,,,,,,,,,,,,,,,324.7975,324.7975,324.7998,326.098,0,0,left,0.7674,,326.1007,326.1016,,0,,326.1035,326.1041,,0,,1,326.1041,326.1041,326.1048,327.5969,0,24,24,24,1,0.6,0.4,0.2,0.8,1,0,,,,,,,,,,,,,,,,,,,,,,,,,,,,,,,,,,,,
,,667f23d046fa0aeeb5153736,66fc990304c12e3f4733d4ad,2024-10-01_18h52.41.794,mdp,2024.2.1,Win32,59.88023952,66fa4ebf79326e780c390304,,,,,,,,,,,,,,,,,,,,,327.5975,327.5975,327.5995,328.8973,0,1,left,0.769,,328.8993,328.9007,,0,,328.903,328.904,,0,,0,328.904,328.904,328.9048,330.3968,0,25,25,25,1,0.6,0.4,0.2,0.8,1,0,,,,,,,,,,,,,,,,,,,,,,,,,,,,,,,,,,,,
,,667f23d046fa0aeeb5153736,66fc990304c12e3f4733d4ad,2024-10-01_18h52.41.794,mdp,2024.2.1,Win32,59.88023952,66fa4ebf79326e780c390304,,,,,,,,,,,,,,,,,,,,,330.3972,330.3972,330.3992,332.5306,1,1,right,1.6009,,332.5318,332.5336,,1,,332.5354,332.5368,,1,,0,332.5369,332.5369,332.5375,334.0305,0,26,26,26,1,0.6,0.4,0.2,0.8,1,0,,,,,,,,,,,,,,,,,,,,,,,,,,,,,,,,,,,,
,,667f23d046fa0aeeb5153736,66fc990304c12e3f4733d4ad,2024-10-01_18h52.41.794,mdp,2024.2.1,Win32,59.88023952,66fa4ebf79326e780c390304,,,,,,,,,,,,,,,,,,,,,334.0311,334.0311,334.0327,334.8143,1,1,right,0.2583,,334.8154,334.8171,,1,,334.8184,334.8203,,1,,0,334.8204,334.8204,334.8211,336.3137,0,27,27,27,1,0.6,0.4,0.2,0.8,1,0,,,,,,,,,,,,,,,,,,,,,,,,,,,,,,,,,,,,
,,667f23d046fa0aeeb5153736,66fc990304c12e3f4733d4ad,2024-10-01_18h52.41.794,mdp,2024.2.1,Win32,59.88023952,66fa4ebf79326e780c390304,,,,,,,,,,,,,,,,,,,,,336.3141,336.3141,336.3161,337.2302,1,0,right,0.392,,337.2318,337.2331,,0,,337.2353,337.2364,,1,,1,337.2365,337.2365,337.2371,338.7308,0,28,28,28,1,0.2,0.8,0.8,0.2,1,0,,,,,,,,,,,,,,,,,,,,,,,,,,,,,,,,,,,,
,,667f23d046fa0aeeb5153736,66fc990304c12e3f4733d4ad,2024-10-01_18h52.41.794,mdp,2024.2.1,Win32,59.88023952,66fa4ebf79326e780c390304,,,,,,,,,,,,,,,,,,,,,338.7311,338.7311,338.7329,339.5972,1,1,right,0.3418,,339.5991,339.6006,,1,,339.6034,339.6042,,0,,0,339.6043,339.6043,339.6049,341.0976,0,29,29,29,1,0.2,0.8,0.8,0.2,1,0,,,,,,,,,,,,,,,,,,,,,,,,,,,,,,,,,,,,
,,667f23d046fa0aeeb5153736,66fc990304c12e3f4733d4ad,2024-10-01_18h52.41.794,mdp,2024.2.1,Win32,59.88023952,66fa4ebf79326e780c390304,,,,,,,,,,,,,,,,,,,,,341.0979,341.098,341.1004,342.097,1,0,right,0.47,,342.099,342.1007,,0,,342.103,342.104,,0,,1,342.104,342.104,342.1047,343.5971,0,30,30,30,1,0.2,0.8,0.8,0.2,1,0,,,,,,,,,,,,,,,,,,,,,,,,,,,,,,,,,,,,
,,667f23d046fa0aeeb5153736,66fc990304c12e3f4733d4ad,2024-10-01_18h52.41.794,mdp,2024.2.1,Win32,59.88023952,66fa4ebf79326e780c390304,,,,,,,,,,,,,,,,,,,,,343.5977,343.5977,343.5997,344.8639,1,0,right,0.7336,,344.8654,344.8668,,0,,344.8691,344.8699,,0,,1,344.8699,344.8699,344.8707,346.3642,0,31,31,31,1,0.2,0.8,0.8,0.2,1,0,,,,,,,,,,,,,,,,,,,,,,,,,,,,,,,,,,,,
,,667f23d046fa0aeeb5153736,66fc990304c12e3f4733d4ad,2024-10-01_18h52.41.794,mdp,2024.2.1,Win32,59.88023952,66fa4ebf79326e780c390304,,,,,,,,,,,,,,,,,,,,,346.3646,346.3646,346.3664,347.2982,1,0,right,0.4033,,347.3008,347.3021,,0,,347.3037,347.3043,,1,,1,347.3043,347.3043,347.3048,348.7971,0,32,32,32,1,0.2,0.8,0.8,0.2,1,0,,,,,,,,,,,,,,,,,,,,,,,,,,,,,,,,,,,,
,,667f23d046fa0aeeb5153736,66fc990304c12e3f4733d4ad,2024-10-01_18h52.41.794,mdp,2024.2.1,Win32,59.88023952,66fa4ebf79326e780c390304,,,,,,,,,,,,,,,,,,,,,348.7974,348.7974,348.8,349.7315,1,0,right,0.4014,,349.7334,349.7346,,0,,349.736,349.7373,,0,,1,349.7373,349.7374,349.7387,351.2304,0,33,33,33,1,0.2,0.8,0.8,0.2,1,0,,,,,,,,,,,,,,,,,,,,,,,,,,,,,,,,,,,,
,,667f23d046fa0aeeb5153736,66fc990304c12e3f4733d4ad,2024-10-01_18h52.41.794,mdp,2024.2.1,Win32,59.88023952,66fa4ebf79326e780c390304,,,,,,,,,,,,,,,,,,,,,351.231,351.231,351.2326,352.2139,1,1,right,0.4553,,352.2157,352.2171,,1,,352.2193,352.22,,1,,0,352.22,352.22,352.2207,353.7137,0,34,34,34,1,0.8,0.2,0.2,0.8,1,0,,,,,,,,,,,,,,,,,,,,,,,,,,,,,,,,,,,,
,,667f23d046fa0aeeb5153736,66fc990304c12e3f4733d4ad,2024-10-01_18h52.41.794,mdp,2024.2.1,Win32,59.88023952,66fa4ebf79326e780c390304,,,,,,,,,,,,,,,,,,,,,353.7142,353.7142,353.7164,354.5306,0,1,left,0.2838,,354.5328,354.5341,,0,,354.5361,354.5369,,1,,0,354.537,354.537,354.5375,356.031,0,35,35,35,1,0.8,0.2,0.2,0.8,1,0,,,,,,,,,,,,,,,,,,,,,,,,,,,,,,,,,,,,
,,667f23d046fa0aeeb5153736,66fc990304c12e3f4733d4ad,2024-10-01_18h52.41.794,mdp,2024.2.1,Win32,59.88023952,66fa4ebf79326e780c390304,,,,,,,,,,,,,,,,,,,,,356.0316,356.0316,356.0333,356.914,0,0,left,0.3551,,356.9155,356.9171,,0,,356.9194,356.9203,,0,,1,356.9204,356.9204,356.921,358.4141,0,36,36,36,1,0.8,0.2,0.2,0.8,1,0,,,,,,,,,,,,,,,,,,,,,,,,,,,,,,,,,,,,
,,667f23d046fa0aeeb5153736,66fc990304c12e3f4733d4ad,2024-10-01_18h52.41.794,mdp,2024.2.1,Win32,59.88023952,66fa4ebf79326e780c390304,,,,,,,,,,,,,,,,,,,,,358.4144,358.4145,358.4161,359.3643,0,1,left,0.4247,,359.3661,359.3678,,1,,359.3704,359.3714,,0,,0,359.3715,359.3715,359.3722,360.8634,0,37,37,37,1,0.2,0.8,0.8,0.2,1,0,,,,,,,,,,,,,,,,,,,,,,,,,,,,,,,,,,,,
,,667f23d046fa0aeeb5153736,66fc990304c12e3f4733d4ad,2024-10-01_18h52.41.794,mdp,2024.2.1,Win32,59.88023952,66fa4ebf79326e780c390304,,,,,,,,,,,,,,,,,,,,,360.8638,360.8638,360.8656,362.2142,0,1,left,0.8199,,362.2167,362.2198,,1,,362.2207,362.2215,,0,,0,362.2215,362.2215,362.2222,363.7141,0,38,38,38,1,0.2,0.8,0.8,0.2,1,0,,,,,,,,,,,,,,,,,,,,,,,,,,,,,,,,,,,,
,,667f23d046fa0aeeb5153736,66fc990304c12e3f4733d4ad,2024-10-01_18h52.41.794,mdp,2024.2.1,Win32,59.88023952,66fa4ebf79326e780c390304,,,,,,,,,,,,,,,,,,,,,363.7149,363.7149,363.7172,364.2472,0,1,left,0.0072,,364.2491,364.2503,,1,,364.2527,364.2534,,0,,0,364.2535,364.2535,364.2541,365.747,0,39,39,39,1,0.2,0.8,0.8,0.2,1,0,,,,,,,,,,,,,,,,,,,,,,,,,,,,,,,,,,,,
,,667f23d046fa0aeeb5153736,66fc990304c12e3f4733d4ad,2024-10-01_18h52.41.794,mdp,2024.2.1,Win32,59.88023952,66fa4ebf79326e780c390304,,,,,,,,,,,,,,,,,,,,,365.7473,365.7474,365.7517,367.7813,1,1,right,1.5005,,367.7833,367.7846,,0,,367.7867,367.7873,,0,,0,367.7874,367.7874,367.788,369.2804,0,40,40,40,1,0.2,0.8,0.8,0.2,1,0,,,,,,,,,,,,,,,,,,,,,,,,,,,,,,,,,,,,
,,667f23d046fa0aeeb5153736,66fc990304c12e3f4733d4ad,2024-10-01_18h52.41.794,mdp,2024.2.1,Win32,59.88023952,66fa4ebf79326e780c390304,,,,,,,,,,,,,,,,,,,,,369.2809,369.2809,369.2829,369.9491,1,1,right,0.1449,,369.9513,369.9531,,0,,369.954,369.9545,,0,,0,369.9546,369.9546,369.955,371.4466,0,41,41,41,1,0.2,0.8,0.8,0.2,1,0,,,,,,,,,,,,,,,,,,,,,,,,,,,,,,,,,,,,
,,667f23d046fa0aeeb5153736,66fc990304c12e3f4733d4ad,2024-10-01_18h52.41.794,mdp,2024.2.1,Win32,59.88023952,66fa4ebf79326e780c390304,,,,,,,,,,,,,,,,,,,,,371.4471,371.4471,371.4495,372.7475,1,0,right,0.7914,,372.7499,372.7514,,1,,372.7529,372.7536,,1,,1,372.7537,372.7537,372.7541,374.2469,0,42,42,42,1,0.2,0.8,0.8,0.2,1,0,,,,,,,,,,,,,,,,,,,,,,,,,,,,,,,,,,,,
,,667f23d046fa0aeeb5153736,66fc990304c12e3f4733d4ad,2024-10-01_18h52.41.794,mdp,2024.2.1,Win32,59.88023952,66fa4ebf79326e780c390304,,,,,,,,,,,,,,,,,,,,,374.2477,374.2477,374.2501,375.1639,1,0,right,0.384,,375.1655,375.1669,,0,,375.1691,375.17,,0,,1,375.1701,375.1701,375.1707,376.664,0,43,43,43,1,0.8,0.2,0.4,0.6,1,0,,,,,,,,,,,,,,,,,,,,,,,,,,,,,,,,,,,,
,,667f23d046fa0aeeb5153736,66fc990304c12e3f4733d4ad,2024-10-01_18h52.41.794,mdp,2024.2.1,Win32,59.88023952,66fa4ebf79326e780c390304,,,,,,,,,,,,,,,,,,,,,376.6644,376.6644,376.6662,377.4139,1,0,right,0.2168,,377.4155,377.4167,,1,,377.4178,377.4199,,1,,1,377.42,377.42,377.4207,378.9135,0,44,44,44,1,0.8,0.2,0.4,0.6,1,0,,,,,,,,,,,,,,,,,,,,,,,,,,,,,,,,,,,,
,,667f23d046fa0aeeb5153736,66fc990304c12e3f4733d4ad,2024-10-01_18h52.41.794,mdp,2024.2.1,Win32,59.88023952,66fa4ebf79326e780c390304,,,,,,,,,,,,,,,,,,,,,378.9139,378.9139,378.9159,379.7972,1,0,right,0.3563,,379.7991,379.8003,,0,,379.8017,379.8033,,0,,1,379.8033,379.8033,379.804,381.2976,0,45,45,45,1,0.6,0.4,0.8,0.2,1,0,,,,,,,,,,,,,,,,,,,,,,,,,,,,,,,,,,,,
,,667f23d046fa0aeeb5153736,66fc990304c12e3f4733d4ad,2024-10-01_18h52.41.794,mdp,2024.2.1,Win32,59.88023952,66fa4ebf79326e780c390304,,,,,,,,,,,,,,,,,,,,,381.2982,381.2982,381.3005,382.2482,1,0,right,0.4158,,382.251,382.2532,,0,,382.2539,382.2546,,1,,1,382.2546,382.2547,382.2551,383.7469,0,46,46,46,1,0.6,0.4,0.8,0.2,1,0,,,,,,,,,,,,,,,,,,,,,,,,,,,,,,,,,,,,
,,667f23d046fa0aeeb5153736,66fc990304c12e3f4733d4ad,2024-10-01_18h52.41.794,mdp,2024.2.1,Win32,59.88023952,66fa4ebf79326e780c390304,,,,,,,,,,,,,,,,,,,,,383.7472,383.7472,383.7492,384.5981,1,0,right,0.3251,,384.6005,384.6017,,0,,384.6039,384.6047,,0,,1,384.6048,384.6048,384.6053,386.0969,0,47,47,47,1,0.6,0.4,0.8,0.2,1,0,,,,,,,,,,,,,,,,,,,,,,,,,,,,,,,,,,,,
,,667f23d046fa0aeeb5153736,66fc990304c12e3f4733d4ad,2024-10-01_18h52.41.794,mdp,2024.2.1,Win32,59.88023952,66fa4ebf79326e780c390304,,,,,,,,,,,,,,,,,,,,,386.0974,386.0974,386.0995,386.9973,1,0,right,0.3759,,386.9997,387.0015,,0,,387.0033,387.004,,1,,1,387.004,387.004,387.0046,388.4968,0,48,48,48,1,0.6,0.4,0.8,0.2,1,0,,,,,,,,,,,,,,,,,,,,,,,,,,,,,,,,,,,,
,,667f23d046fa0aeeb5153736,66fc990304c12e3f4733d4ad,2024-10-01_18h52.41.794,mdp,2024.2.1,Win32,59.88023952,66fa4ebf79326e780c390304,,,,,,,,,,,,,,,,,,,,,388.4971,388.4972,388.4996,391.4971,1,1,right,2.465,,391.4999,391.5018,,0,,391.5033,391.5041,,0,,0,391.5041,391.5041,391.5045,392.9987,0,49,49,49,1,0.6,0.4,0.8,0.2,1,0,,,,,,,,,,,,,,,,,,,,,,,,,,,,,,,,,,,,
,,667f23d046fa0aeeb5153736,66fc990304c12e3f4733d4ad,2024-10-01_18h52.41.794,mdp,2024.2.1,Win32,59.88023952,66fa4ebf79326e780c390304,,,,,,,,,,,,,,,,,,,,,,,,,,,,,,,,,,,,,,,,,,,,,,,,,,,,,,,,392.9999,451.514,0,0,0,3,1,imgs/dog.png,imgs/cat.png,imgs/kangaroo.png,imgs/bear.png,imgs/pig.png,,,,,,,,,,,,,,,,,,,,,,,,
,,667f23d046fa0aeeb5153736,66fc990304c12e3f4733d4ad,2024-10-01_18h52.41.794,mdp,2024.2.1,Win32,59.88023952,66fa4ebf79326e780c390304,,,,,,,,,,,,,,2,seqs/st2seq2.csv,451.5166,454.0636,space,2.0218,,454.0728,454.0728,454.0738,456.6811,0,0,left,2.0803,,456.6828,460.5802,0,1,left,460.5825,460.584,,1,,0,460.5841,460.5841,460.5862,462.0801,0,0,0,0,1,0.2,0.8,0.6,0.4,,,,,,,,,,,,,,,3.3644,,0.4,0.6,0.4,0.6,0.2,0.8,0.8,0.2,1,0,,,,,,,,,,,,
,,667f23d046fa0aeeb5153736,66fc990304c12e3f4733d4ad,2024-10-01_18h52.41.794,mdp,2024.2.1,Win32,59.88023952,66fa4ebf79326e780c390304,,,,,,,,,,,,,,,,,,,,,462.0805,462.0805,462.0828,465.0644,0,1,left,2.4706,,465.0663,466.5804,1,0,right,466.5821,466.5837,,0,,1,466.5838,466.5838,466.5864,468.081,0,1,1,1,1,0.2,0.8,0.6,0.4,,,,,,,,,,,,,,,0.981,,0.4,0.6,0.4,0.6,0.2,0.8,0.8,0.2,1,0,,,,,,,,,,,,
,,667f23d046fa0aeeb5153736,66fc990304c12e3f4733d4ad,2024-10-01_18h52.41.794,mdp,2024.2.1,Win32,59.88023952,66fa4ebf79326e780c390304,,,,,,,,,,,,,,,,,,,,,468.0814,468.0814,468.083,469.3306,0,1,left,0.7173,,469.3323,470.5812,1,0,right,470.5828,470.5843,,0,,1,470.5844,470.5844,470.5859,472.0802,0,2,2,2,1,0.2,0.8,0.6,0.4,,,,,,,,,,,,,,,0.7165,,0.4,0.6,0.4,0.6,0.2,0.8,0.8,0.2,1,0,,,,,,,,,,,,
,,667f23d046fa0aeeb5153736,66fc990304c12e3f4733d4ad,2024-10-01_18h52.41.794,mdp,2024.2.1,Win32,59.88023952,66fa4ebf79326e780c390304,,,,,,,,,,,,,,,,,,,,,472.0806,472.0806,472.0829,473.4307,0,1,left,0.8166,,473.4323,474.5806,1,0,right,474.5827,474.5844,,0,,1,474.5846,474.5846,474.5868,476.0807,0,3,3,3,1,0.2,0.8,0.6,0.4,,,,,,,,,,,,,,,0.6178,,0.4,0.6,0.4,0.6,0.2,0.8,0.8,0.2,1,0,,,,,,,,,,,,
,,667f23d046fa0aeeb5153736,66fc990304c12e3f4733d4ad,2024-10-01_18h52.41.794,mdp,2024.2.1,Win32,59.88023952,66fa4ebf79326e780c390304,,,,,,,,,,,,,,,,,,,,,476.0813,476.0813,476.083,477.8636,0,1,left,1.2545,,477.8655,478.9303,1,0,right,478.9329,478.9343,,0,,1,478.9343,478.9343,478.9366,480.4302,0,4,4,4,1,0.2,0.8,0.6,0.4,,,,,,,,,,,,,,,0.551,,0.4,0.6,0.4,0.6,0.2,0.8,0.8,0.2,1,0,,,,,,,,,,,,
,,667f23d046fa0aeeb5153736,66fc990304c12e3f4733d4ad,2024-10-01_18h52.41.794,mdp,2024.2.1,Win32,59.88023952,66fa4ebf79326e780c390304,,,,,,,,,,,,,,,,,,,,,480.4307,480.4307,480.4328,481.7805,0,1,left,0.8246,,481.7829,482.8636,1,0,right,482.8648,482.8669,,0,,1,482.8669,482.8669,482.8694,484.3635,0,5,5,5,1,0.2,0.8,0.6,0.4,,,,,,,,,,,,,,,0.5699,,0.4,0.6,0.4,0.6,0.2,0.8,0.8,0.2,1,0,,,,,,,,,,,,
,,667f23d046fa0aeeb5153736,66fc990304c12e3f4733d4ad,2024-10-01_18h52.41.794,mdp,2024.2.1,Win32,59.88023952,66fa4ebf79326e780c390304,,,,,,,,,,,,,,,,,,,,,484.3639,484.364,484.3662,485.3142,0,1,left,0.4356,,485.3162,486.4305,1,0,right,486.4321,486.4335,,0,,1,486.4338,486.4338,486.436,487.9309,0,6,6,6,1,0.6,0.4,0.4,0.6,,,,,,,,,,,,,,,0.5888,,0.4,0.6,0.4,0.6,0.2,0.8,0.8,0.2,1,0,,,,,,,,,,,,
,,667f23d046fa0aeeb5153736,66fc990304c12e3f4733d4ad,2024-10-01_18h52.41.794,mdp,2024.2.1,Win32,59.88023952,66fa4ebf79326e780c390304,,,,,,,,,,,,,,,,,,,,,487.9314,487.9314,487.9337,488.9802,0,1,left,0.5242,,488.9821,490.1806,1,0,right,490.1822,490.1836,,0,,1,490.1836,490.1836,490.185,491.6802,0,7,7,7,1,0.2,0.8,0.6,0.4,,,,,,,,,,,,,,,0.6929,,0.4,0.6,0.4,0.6,0.2,0.8,0.8,0.2,1,0,,,,,,,,,,,,
,,667f23d046fa0aeeb5153736,66fc990304c12e3f4733d4ad,2024-10-01_18h52.41.794,mdp,2024.2.1,Win32,59.88023952,66fa4ebf79326e780c390304,,,,,,,,,,,,,,,,,,,,,491.6808,491.6808,491.683,492.6474,0,1,left,0.4357,,492.6492,493.647,1,0,right,493.6497,493.6513,,0,,1,493.6514,493.6514,493.6529,495.1471,0,8,8,8,1,0.2,0.8,0.6,0.4,,,,,,,,,,,,,,,0.4726,,0.4,0.6,0.4,0.6,0.2,0.8,0.8,0.2,1,0,,,,,,,,,,,,
,,667f23d046fa0aeeb5153736,66fc990304c12e3f4733d4ad,2024-10-01_18h52.41.794,mdp,2024.2.1,Win32,59.88023952,66fa4ebf79326e780c390304,,,,,,,,,,,,,,,,,,,,,495.1475,495.1475,495.1494,495.9641,0,0,left,0.2933,,495.9678,500.5636,0,0,left,500.5653,500.5671,,0,,1,500.5672,500.5672,500.5695,502.0638,0,9,9,9,1,0.2,0.8,0.6,0.4,,,,,,,,,,,,,,,4.063,,0.4,0.6,0.4,0.6,0.2,0.8,0.8,0.2,1,0,,,,,,,,,,,,
,,667f23d046fa0aeeb5153736,66fc990304c12e3f4733d4ad,2024-10-01_18h52.41.794,mdp,2024.2.1,Win32,59.88023952,66fa4ebf79326e780c390304,,,,,,,,,,,,,,,,,,,,,502.0643,502.0643,502.0663,503.5482,0,0,left,0.9597,,503.551,504.8305,0,0,left,504.8322,504.8333,,1,,1,504.8333,504.8333,504.8351,506.3308,0,10,10,10,1,0.2,0.8,0.6,0.4,,,,,,,,,,,,,,,0.7505,,0.4,0.6,0.4,0.6,0.2,0.8,0.8,0.2,1,0,,,,,,,,,,,,
,,667f23d046fa0aeeb5153736,66fc990304c12e3f4733d4ad,2024-10-01_18h52.41.794,mdp,2024.2.1,Win32,59.88023952,66fa4ebf79326e780c390304,,,,,,,,,,,,,,,,,,,,,506.3312,506.3312,506.3337,507.5646,0,0,left,0.7118,,507.567,508.7313,0,1,left,508.7339,508.7352,,1,,0,508.7353,508.7353,508.737,510.2304,0,11,11,11,1,0.2,0.8,0.6,0.4,,,,,,,,,,,,,,,0.6341,,0.4,0.6,0.4,0.6,0.2,0.8,0.8,0.2,1,0,,,,,,,,,,,,
,,667f23d046fa0aeeb5153736,66fc990304c12e3f4733d4ad,2024-10-01_18h52.41.794,mdp,2024.2.1,Win32,59.88023952,66fa4ebf79326e780c390304,,,,,,,,,,,,,,,,,,,,,510.2309,510.2309,510.2327,513.314,0,0,left,2.5552,,513.316,514.9138,0,1,left,514.9155,514.9172,,1,,0,514.9173,514.9173,514.9197,516.4135,0,12,12,12,1,0.2,0.8,0.6,0.4,,,,,,,,,,,,,,,1.0703,,0.4,0.6,0.4,0.6,0.2,0.8,0.8,0.2,1,0,,,,,,,,,,,,
,,667f23d046fa0aeeb5153736,66fc990304c12e3f4733d4ad,2024-10-01_18h52.41.794,mdp,2024.2.1,Win32,59.88023952,66fa4ebf79326e780c390304,,,,,,,,,,,,,,,,,,,,,516.4138,516.4138,516.4159,517.881,1,1,right,0.9507,,517.8833,520.664,1,1,right,520.6661,520.6693,,0,,0,520.6694,520.6694,520.67,522.1635,0,13,13,13,1,0.2,0.8,0.6,0.4,,,,,,,,,,,,,,,2.2477,,0.4,0.6,0.4,0.6,0.2,0.8,0.8,0.2,1,0,,,,,,,,,,,,
,,667f23d046fa0aeeb5153736,66fc990304c12e3f4733d4ad,2024-10-01_18h52.41.794,mdp,2024.2.1,Win32,59.88023952,66fa4ebf79326e780c390304,,,,,,,,,,,,,,,,,,,,,522.164,522.164,522.1662,524.2139,0,1,left,1.5329,,524.2157,525.4977,1,0,right,525.5004,525.5018,,0,,1,525.502,525.502,525.5039,526.9972,0,14,14,14,1,0.2,0.8,0.6,0.4,,,,,,,,,,,,,,,0.7533,,0.4,0.6,0.4,0.6,0.2,0.8,0.8,0.2,1,0,,,,,,,,,,,,
,,667f23d046fa0aeeb5153736,66fc990304c12e3f4733d4ad,2024-10-01_18h52.41.794,mdp,2024.2.1,Win32,59.88023952,66fa4ebf79326e780c390304,,,,,,,,,,,,,,,,,,,,,526.9977,526.9977,527.0001,528.2972,0,1,left,0.772,,528.2993,529.4637,1,1,right,529.4652,529.4677,,0,,0,529.4679,529.4679,529.4699,530.9636,0,15,15,15,1,0.2,0.8,0.6,0.4,,,,,,,,,,,,,,,0.6539,,0.6,0.4,0.6,0.4,0.2,0.8,0.8,0.2,1,0,,,,,,,,,,,,
,,667f23d046fa0aeeb5153736,66fc990304c12e3f4733d4ad,2024-10-01_18h52.41.794,mdp,2024.2.1,Win32,59.88023952,66fa4ebf79326e780c390304,,,,,,,,,,,,,,,,,,,,,530.964,530.964,530.966,534.5809,0,1,left,3.0838,,534.5825,535.8144,1,1,right,535.8157,535.8172,,0,,0,535.8173,535.8173,535.8202,537.3143,0,16,16,16,1,0.2,0.8,0.6,0.4,,,,,,,,,,,,,,,0.701,,0.6,0.4,0.6,0.4,0.4,0.6,0.6,0.4,1,0,,,,,,,,,,,,
,,667f23d046fa0aeeb5153736,66fc990304c12e3f4733d4ad,2024-10-01_18h52.41.794,mdp,2024.2.1,Win32,59.88023952,66fa4ebf79326e780c390304,,,,,,,,,,,,,,,,,,,,,537.3146,537.3146,537.3168,539.614,0,1,left,1.7748,,539.6158,541.1475,0,1,left,541.1492,541.1504,,0,,0,541.1505,541.1505,541.1514,542.6469,0,17,17,17,1,0.2,0.8,0.6,0.4,,,,,,,,,,,,,,,1.0006,,0.6,0.4,0.6,0.4,0.4,0.6,0.6,0.4,1,0,,,,,,,,,,,,
,,667f23d046fa0aeeb5153736,66fc990304c12e3f4733d4ad,2024-10-01_18h52.41.794,mdp,2024.2.1,Win32,59.88023952,66fa4ebf79326e780c390304,,,,,,,,,,,,,,,,,,,,,542.6474,542.6475,542.6501,544.9306,0,0,left,1.7514,,544.9329,546.4472,0,0,left,546.4498,546.4508,,0,,1,546.4508,546.4508,546.4527,547.9474,0,18,18,18,1,0.4,0.6,0.8,0.2,,,,,,,,,,,,,,,0.9824,,0.6,0.4,0.6,0.4,0.4,0.6,0.6,0.4,1,0,,,,,,,,,,,,
,,667f23d046fa0aeeb5153736,66fc990304c12e3f4733d4ad,2024-10-01_18h52.41.794,mdp,2024.2.1,Win32,59.88023952,66fa4ebf79326e780c390304,,,,,,,,,,,,,,,,,,,,,547.9482,547.9482,547.9509,549.2144,0,1,left,0.7414,,549.2155,550.6139,1,0,right,550.6158,550.617,,1,,1,550.617,550.617,550.6192,552.1133,0,19,19,19,1,0.4,0.6,0.8,0.2,,,,,,,,,,,,,,,0.8641,,0.6,0.4,0.6,0.4,0.4,0.6,0.6,0.4,1,0,,,,,,,,,,,,
,,667f23d046fa0aeeb5153736,66fc990304c12e3f4733d4ad,2024-10-01_18h52.41.794,mdp,2024.2.1,Win32,59.88023952,66fa4ebf79326e780c390304,,,,,,,,,,,,,,,,,,,,,552.1138,552.1138,552.1156,553.3802,0,1,left,0.7434,,553.3814,555.3306,1,0,right,555.3325,555.3337,,0,,1,555.3337,555.3337,555.3358,556.8303,0,20,20,20,1,0.4,0.6,0.8,0.2,,,,,,,,,,,,,,,1.4371,,0.6,0.4,0.6,0.4,0.4,0.6,0.6,0.4,1,0,,,,,,,,,,,,
,,667f23d046fa0aeeb5153736,66fc990304c12e3f4733d4ad,2024-10-01_18h52.41.794,mdp,2024.2.1,Win32,59.88023952,66fa4ebf79326e780c390304,,,,,,,,,,,,,,,,,,,,,556.8308,556.8309,556.8324,558.014,0,1,left,0.6645,,558.0153,559.3474,1,0,right,559.3494,559.3507,,1,,1,559.3507,559.3507,559.3525,560.847,0,21,21,21,1,0.4,0.6,0.8,0.2,,,,,,,,,,,,,,,0.8008,,0.6,0.4,0.6,0.4,0.4,0.6,0.6,0.4,1,0,,,,,,,,,,,,
,,667f23d046fa0aeeb5153736,66fc990304c12e3f4733d4ad,2024-10-01_18h52.41.794,mdp,2024.2.1,Win32,59.88023952,66fa4ebf79326e780c390304,,,,,,,,,,,,,,,,,,,,,560.8476,560.8476,560.85,562.1555,0,1,left,0.7677,,562.1572,563.5311,1,0,right,563.5331,563.5343,,0,,1,563.5344,563.5344,563.536,565.0308,0,22,22,22,1,0.4,0.6,0.8,0.2,,,,,,,,,,,,,,,0.8503,,0.2,0.8,0.2,0.8,0.4,0.6,0.6,0.4,1,0,,,,,,,,,,,,
,,667f23d046fa0aeeb5153736,66fc990304c12e3f4733d4ad,2024-10-01_18h52.41.794,mdp,2024.2.1,Win32,59.88023952,66fa4ebf79326e780c390304,,,,,,,,,,,,,,,,,,,,,565.0312,565.0312,565.0333,566.1474,0,0,left,0.5845,,566.1497,567.7312,0,1,left,567.733,567.7342,,1,,0,567.7342,567.7342,567.7364,569.2303,0,23,23,23,1,0.4,0.6,0.8,0.2,,,,,,,,,,,,,,,1.0494,,0.2,0.8,0.2,0.8,0.4,0.6,0.6,0.4,1,0,,,,,,,,,,,,
,,667f23d046fa0aeeb5153736,66fc990304c12e3f4733d4ad,2024-10-01_18h52.41.794,mdp,2024.2.1,Win32,59.88023952,66fa4ebf79326e780c390304,,,,,,,,,,,,,,,,,,,,,569.2307,569.2307,569.2325,572.6975,0,0,left,2.9351,,572.6995,574.8805,0,1,left,574.8832,574.884,,1,,0,574.8841,574.8841,574.8859,576.38,0,24,24,24,1,0.4,0.6,0.8,0.2,,,,,,,,,,,,,,,1.6503,,0.2,0.8,0.2,0.8,0.4,0.6,0.6,0.4,1,0,,,,,,,,,,,,
,,667f23d046fa0aeeb5153736,66fc990304c12e3f4733d4ad,2024-10-01_18h52.41.794,mdp,2024.2.1,Win32,59.88023952,66fa4ebf79326e780c390304,,,,,,,,,,,,,,,,,,,,,576.3807,576.3807,576.3831,577.597,0,1,left,0.6935,,577.599,578.6635,1,0,right,578.6651,578.6668,,0,,1,578.6669,578.667,578.6694,580.1638,0,25,25,25,1,0.4,0.6,0.8,0.2,,,,,,,,,,,,,,,0.5522,,0.2,0.8,0.2,0.8,0.4,0.6,0.6,0.4,1,0,,,,,,,,,,,,
,,667f23d046fa0aeeb5153736,66fc990304c12e3f4733d4ad,2024-10-01_18h52.41.794,mdp,2024.2.1,Win32,59.88023952,66fa4ebf79326e780c390304,,,,,,,,,,,,,,,,,,,,,580.1643,580.1644,580.1664,581.4306,0,1,left,0.7336,,581.432,582.7474,1,0,right,582.7507,582.7525,,1,,1,582.7526,582.7526,582.7533,584.2481,0,26,26,26,1,0.4,0.6,0.8,0.2,,,,,,,,,,,,,,,0.8012,,0.2,0.8,0.2,0.8,0.4,0.6,0.6,0.4,1,0,,,,,,,,,,,,
,,667f23d046fa0aeeb5153736,66fc990304c12e3f4733d4ad,2024-10-01_18h52.41.794,mdp,2024.2.1,Win32,59.88023952,66fa4ebf79326e780c390304,,,,,,,,,,,,,,,,,,,,,584.249,584.249,584.2515,585.4478,0,0,left,0.6688,,585.4508,587.5138,1,1,right,587.5155,587.5171,,0,,0,587.5171,587.5171,587.5194,589.0142,0,27,27,27,1,0.4,0.6,0.8,0.2,,,,,,,,,,,,,,,1.5282,,0.2,0.8,0.2,0.8,0.4,0.6,0.6,0.4,1,0,,,,,,,,,,,,
,,667f23d046fa0aeeb5153736,66fc990304c12e3f4733d4ad,2024-10-01_18h52.41.794,mdp,2024.2.1,Win32,59.88023952,66fa4ebf79326e780c390304,,,,,,,,,,,,,,,,,,,,,589.0145,589.0145,589.0166,590.2139,0,1,left,0.683,,590.2158,591.5473,1,1,right,591.5502,591.5524,,0,,0,591.5527,591.5527,591.5535,593.0469,0,28,28,28,1,0.4,0.6,0.8,0.2,,,,,,,,,,,,,,,0.8145,,0.2,0.8,0.2,0.8,0.4,0.6,0.6,0.4,1,0,,,,,,,,,,,,
,,667f23d046fa0aeeb5153736,66fc990304c12e3f4733d4ad,2024-10-01_18h52.41.794,mdp,2024.2.1,Win32,59.88023952,66fa4ebf79326e780c390304,,,,,,,,,,,,,,,,,,,,,593.0474,593.0474,593.05,594.2806,0,1,left,0.7169,,594.2822,595.7995,1,1,right,595.8014,595.8032,,0,,0,595.8033,595.8033,595.8042,597.2978,0,29,29,29,1,0.4,0.6,0.8,0.2,,,,,,,,,,,,,,,0.9832,,0.2,0.8,0.2,0.8,0.4,0.6,0.6,0.4,1,0,,,,,,,,,,,,
,,667f23d046fa0aeeb5153736,66fc990304c12e3f4733d4ad,2024-10-01_18h52.41.794,mdp,2024.2.1,Win32,59.88023952,66fa4ebf79326e780c390304,,,,,,,,,,,,,,,,,,,,,597.2983,597.2983,597.3004,598.5482,0,0,left,0.7262,,598.5503,601.6481,0,1,left,601.6499,601.6513,,1,,0,601.6515,601.6515,601.6536,603.1472,0,30,30,30,1,0.4,0.6,0.8,0.2,,,,,,,,,,,,,,,2.5698,,0.2,0.8,0.2,0.8,0.4,0.6,0.6,0.4,1,0,,,,,,,,,,,,
,,667f23d046fa0aeeb5153736,66fc990304c12e3f4733d4ad,2024-10-01_18h52.41.794,mdp,2024.2.1,Win32,59.88023952,66fa4ebf79326e780c390304,,,,,,,,,,,,,,,,,,,,,603.1478,603.1478,603.1502,604.3637,0,1,left,0.684,,604.3651,606.1143,0,0,left,606.116,606.1175,,1,,1,606.1176,606.1176,606.1201,607.6141,0,31,31,31,1,0.4,0.6,0.8,0.2,,,,,,,,,,,,,,,1.2342,,0.2,0.8,0.2,0.8,0.4,0.6,0.6,0.4,1,0,,,,,,,,,,,,
,,667f23d046fa0aeeb5153736,66fc990304c12e3f4733d4ad,2024-10-01_18h52.41.794,mdp,2024.2.1,Win32,59.88023952,66fa4ebf79326e780c390304,,,,,,,,,,,,,,,,,,,,,607.6147,607.6147,607.6165,608.9308,0,0,left,0.788,,608.9346,610.5305,1,0,right,610.5327,610.5341,,0,,1,610.5342,610.5342,610.536,612.0301,0,32,32,32,1,0.4,0.6,0.8,0.2,,,,,,,,,,,,,,,1.067,,0.2,0.8,0.2,0.8,0.4,0.6,0.6,0.4,1,0,,,,,,,,,,,,
,,667f23d046fa0aeeb5153736,66fc990304c12e3f4733d4ad,2024-10-01_18h52.41.794,mdp,2024.2.1,Win32,59.88023952,66fa4ebf79326e780c390304,,,,,,,,,,,,,,,,,,,,,612.0305,612.0305,612.032,613.3143,0,1,left,0.7694,,613.3164,614.9638,0,0,left,614.9659,614.9668,,1,,1,614.9669,614.9669,614.9691,616.4639,0,33,33,33,1,0.4,0.6,0.8,0.2,,,,,,,,,,,,,,,1.1236,,0.2,0.8,0.2,0.8,0.8,0.2,0.2,0.8,1,0,,,,,,,,,,,,
,,667f23d046fa0aeeb5153736,66fc990304c12e3f4733d4ad,2024-10-01_18h52.41.794,mdp,2024.2.1,Win32,59.88023952,66fa4ebf79326e780c390304,,,,,,,,,,,,,,,,,,,,,616.4645,616.4645,616.466,617.5302,0,0,left,0.535,,617.5311,618.7143,1,1,right,618.7162,618.7174,,0,,0,618.7175,618.7175,618.7196,620.2141,0,34,34,34,1,0.4,0.6,0.8,0.2,,,,,,,,,,,,,,,0.6495,,0.2,0.8,0.2,0.8,0.8,0.2,0.2,0.8,1,0,,,,,,,,,,,,
,,667f23d046fa0aeeb5153736,66fc990304c12e3f4733d4ad,2024-10-01_18h52.41.794,mdp,2024.2.1,Win32,59.88023952,66fa4ebf79326e780c390304,,,,,,,,,,,,,,,,,,,,,620.2145,620.2145,620.2162,621.764,0,1,left,1.0158,,621.7653,623.2639,1,0,right,623.2664,623.2692,,1,,1,623.2693,623.2693,623.2705,624.7642,0,35,35,35,1,0.4,0.6,0.8,0.2,,,,,,,,,,,,,,,0.9648,,0.2,0.8,0.2,0.8,0.8,0.2,0.2,0.8,1,0,,,,,,,,,,,,
,,667f23d046fa0aeeb5153736,66fc990304c12e3f4733d4ad,2024-10-01_18h52.41.794,mdp,2024.2.1,Win32,59.88023952,66fa4ebf79326e780c390304,,,,,,,,,,,,,,,,,,,,,624.7647,624.7647,624.7669,625.9145,0,1,left,0.6194,,625.9159,627.3467,1,1,right,627.3488,627.3498,,1,,0,627.3499,627.3499,627.3516,628.8473,0,36,36,36,1,0.4,0.6,0.8,0.2,,,,,,,,,,,,,,,0.9027,,0.2,0.8,0.2,0.8,0.8,0.2,0.2,0.8,1,0,,,,,,,,,,,,
,,667f23d046fa0aeeb5153736,66fc990304c12e3f4733d4ad,2024-10-01_18h52.41.794,mdp,2024.2.1,Win32,59.88023952,66fa4ebf79326e780c390304,,,,,,,,,,,,,,,,,,,,,628.8479,628.8479,628.8499,630.9308,0,1,left,1.5511,,630.9327,632.5489,0,1,left,632.5514,632.5536,,0,,0,632.5536,632.5536,632.5545,634.0473,0,37,37,37,1,0.4,0.6,0.8,0.2,,,,,,,,,,,,,,,1.0812,,0.2,0.8,0.2,0.8,0.2,0.8,0.8,0.2,1,0,,,,,,,,,,,,
,,667f23d046fa0aeeb5153736,66fc990304c12e3f4733d4ad,2024-10-01_18h52.41.794,mdp,2024.2.1,Win32,59.88023952,66fa4ebf79326e780c390304,,,,,,,,,,,,,,,,,,,,,634.0476,634.0476,634.0495,635.1478,0,1,left,0.5759,,635.1502,637.6971,1,0,right,637.6991,637.7003,,0,,1,637.7003,637.7003,637.7021,639.1968,0,38,38,38,1,0.4,0.6,0.8,0.2,,,,,,,,,,,,,,,2.0329,,0.2,0.8,0.2,0.8,0.2,0.8,0.8,0.2,1,0,,,,,,,,,,,,
,,667f23d046fa0aeeb5153736,66fc990304c12e3f4733d4ad,2024-10-01_18h52.41.794,mdp,2024.2.1,Win32,59.88023952,66fa4ebf79326e780c390304,,,,,,,,,,,,,,,,,,,,,639.1975,639.1976,639.1994,640.3807,0,1,left,0.6572,,640.382,641.6477,1,0,right,641.6492,641.6504,,0,,1,641.6505,641.6505,641.6515,643.1474,0,39,39,39,1,0.4,0.6,0.8,0.2,,,,,,,,,,,,,,,0.7354,,0.2,0.8,0.2,0.8,0.2,0.8,0.8,0.2,1,0,,,,,,,,,,,,
,,667f23d046fa0aeeb5153736,66fc990304c12e3f4733d4ad,2024-10-01_18h52.41.794,mdp,2024.2.1,Win32,59.88023952,66fa4ebf79326e780c390304,,,,,,,,,,,,,,,,,,,,,643.1483,643.1484,643.151,644.2639,0,1,left,0.5838,,644.2652,645.4309,1,0,right,645.4324,645.4336,,1,,1,645.4337,645.4337,645.4352,646.9303,0,40,40,40,1,0.4,0.6,0.8,0.2,,,,,,,,,,,,,,,0.6487,,0.2,0.8,0.2,0.8,0.2,0.8,0.8,0.2,1,0,,,,,,,,,,,,
,,667f23d046fa0aeeb5153736,66fc990304c12e3f4733d4ad,2024-10-01_18h52.41.794,mdp,2024.2.1,Win32,59.88023952,66fa4ebf79326e780c390304,,,,,,,,,,,,,,,,,,,,,646.9307,646.9307,646.9327,648.4472,0,0,left,0.9893,,648.449,650.0314,0,1,left,650.0332,650.0344,,0,,0,650.0344,650.0344,650.0361,651.5313,0,41,41,41,1,0.4,0.6,0.8,0.2,,,,,,,,,,,,,,,1.0492,,0.2,0.8,0.2,0.8,0.2,0.8,0.8,0.2,1,0,,,,,,,,,,,,
,,667f23d046fa0aeeb5153736,66fc990304c12e3f4733d4ad,2024-10-01_18h52.41.794,mdp,2024.2.1,Win32,59.88023952,66fa4ebf79326e780c390304,,,,,,,,,,,,,,,,,,,,,651.5318,651.5318,651.5343,653.1141,0,1,left,1.0508,,653.1158,654.1476,1,1,right,654.1495,654.1506,,0,,0,654.1506,654.1506,654.1518,655.6467,0,42,42,42,1,0.4,0.6,0.8,0.2,,,,,,,,,,,,,,,0.5076,,0.2,0.8,0.2,0.8,0.2,0.8,0.8,0.2,1,0,,,,,,,,,,,,
,,667f23d046fa0aeeb5153736,66fc990304c12e3f4733d4ad,2024-10-01_18h52.41.794,mdp,2024.2.1,Win32,59.88023952,66fa4ebf79326e780c390304,,,,,,,,,,,,,,,,,,,,,655.6471,655.6471,655.6494,656.8805,0,1,left,0.7005,,656.8819,658.2976,0,1,left,658.3001,658.3014,,1,,0,658.3014,658.3014,658.3025,659.7977,0,43,43,43,1,0.4,0.6,0.8,0.2,,,,,,,,,,,,,,,0.8811,,0.2,0.8,0.2,0.8,0.2,0.8,0.8,0.2,1,0,,,,,,,,,,,,
,,667f23d046fa0aeeb5153736,66fc990304c12e3f4733d4ad,2024-10-01_18h52.41.794,mdp,2024.2.1,Win32,59.88023952,66fa4ebf79326e780c390304,,,,,,,,,,,,,,,,,,,,,659.7983,659.7983,659.8004,661.0141,0,1,left,0.689,,661.0154,662.3977,1,0,right,662.4007,662.4018,,0,,1,662.4018,662.4018,662.4039,663.8968,0,44,44,44,1,0.4,0.6,0.8,0.2,,,,,,,,,,,,,,,0.8659,,0.2,0.8,0.2,0.8,0.2,0.8,0.8,0.2,1,0,,,,,,,,,,,,
,,667f23d046fa0aeeb5153736,66fc990304c12e3f4733d4ad,2024-10-01_18h52.41.794,mdp,2024.2.1,Win32,59.88023952,66fa4ebf79326e780c390304,,,,,,,,,,,,,,,,,,,,,663.8971,663.8971,663.8996,665.147,0,1,left,0.7196,,665.1489,666.2976,1,0,right,666.3003,666.3016,,0,,1,666.3017,666.3017,666.3032,667.7967,0,45,45,45,1,0.4,0.6,0.8,0.2,,,,,,,,,,,,,,,0.6216,,0.4,0.6,0.4,0.6,0.2,0.8,0.8,0.2,1,0,,,,,,,,,,,,
,,667f23d046fa0aeeb5153736,66fc990304c12e3f4733d4ad,2024-10-01_18h52.41.794,mdp,2024.2.1,Win32,59.88023952,66fa4ebf79326e780c390304,,,,,,,,,,,,,,,,,,,,,667.7972,667.7972,667.7993,668.8472,0,1,left,0.5197,,668.8485,669.832,1,0,right,669.834,669.8362,,0,,1,669.8363,669.8364,669.837,671.3304,0,46,46,46,1,0.4,0.6,0.8,0.2,,,,,,,,,,,,,,,0.4738,,0.4,0.6,0.4,0.6,0.2,0.8,0.8,0.2,1,0,,,,,,,,,,,,
,,667f23d046fa0aeeb5153736,66fc990304c12e3f4733d4ad,2024-10-01_18h52.41.794,mdp,2024.2.1,Win32,59.88023952,66fa4ebf79326e780c390304,,,,,,,,,,,,,,,,,,,,,671.331,671.331,671.3328,672.3471,0,0,left,0.4868,,672.3487,673.3305,1,0,right,673.3322,673.3335,,0,,1,673.3335,673.3335,673.3347,674.8309,0,47,47,47,1,0.4,0.6,0.8,0.2,,,,,,,,,,,,,,,0.4672,,0.4,0.6,0.4,0.6,0.2,0.8,0.8,0.2,1,0,,,,,,,,,,,,
,,667f23d046fa0aeeb5153736,66fc990304c12e3f4733d4ad,2024-10-01_18h52.41.794,mdp,2024.2.1,Win32,59.88023952,66fa4ebf79326e780c390304,,,,,,,,,,,,,,,,,,,,,674.8316,674.8316,674.8333,676.1481,0,1,left,0.7841,,676.1498,677.7975,1,0,right,677.8004,677.8019,,0,,1,677.802,677.8021,677.8035,679.2979,0,48,48,48,1,0.4,0.6,0.8,0.2,,,,,,,,,,,,,,,1.1212,,0.4,0.6,0.4,0.6,0.2,0.8,0.8,0.2,1,0,,,,,,,,,,,,
,,667f23d046fa0aeeb5153736,66fc990304c12e3f4733d4ad,2024-10-01_18h52.41.794,mdp,2024.2.1,Win32,59.88023952,66fa4ebf79326e780c390304,,,,,,,,,,,,,,,,,,,,,679.2986,679.2986,679.3006,680.4808,0,1,left,0.6513,,680.4822,681.6141,1,1,right,681.6151,681.6167,,0,,0,681.6167,681.6167,681.6177,683.1138,0,49,49,49,1,0.4,0.6,0.8,0.2,,,,,,,,,,,,,,,0.6233,,0.4,0.6,0.4,0.6,0.2,0.8,0.8,0.2,1,0,,,,,,,,,,,,
,,667f23d046fa0aeeb5153736,66fc990304c12e3f4733d4ad,2024-10-01_18h52.41.794,mdp,2024.2.1,Win32,59.88023952,66fa4ebf79326e780c390304,,,,,,,,,,,,,,,,,,,,,,,,,,,,,,,,,,,,,,,,,,,,,,,,,,,,,,,,683.1139,741.6303,0,1,1,0,1,imgs/pig.png,imgs/bear.png,imgs/dog.png,imgs/kangaroo.png,imgs/elephant.png,,,,,,,,,,,,,,,,,,,,,,,,
,,667f23d046fa0aeeb5153736,66fc990304c12e3f4733d4ad,2024-10-01_18h52.41.794,mdp,2024.2.1,Win32,59.88023952,66fa4ebf79326e780c390304,,,,,,,,,,,,,,3,seqs/st3seq18.csv,741.6324,744.664,space,2.5064,,744.6726,744.6726,744.6734,747.681,0,0,left,2.4791,,747.6824,749.6803,0,0,left,749.682,751.4475,0,0,left,1,751.4476,751.4476,751.4492,752.9474,0,0,0,0,1,0.8,0.2,0.8,0.2,,,,,,,,,,,,,,,1.457,,0.2,0.8,0.4,0.6,0.6,0.4,0.4,0.6,,,1.2534,,0.6,0.4,0.2,0.8,0.8,0.2,0.8,0.2,1,0
,,667f23d046fa0aeeb5153736,66fc990304c12e3f4733d4ad,2024-10-01_18h52.41.794,mdp,2024.2.1,Win32,59.88023952,66fa4ebf79326e780c390304,,,,,,,,,,,,,,,,,,,,,752.948,752.948,752.9505,754.1967,0,0,left,0.7251,,754.1983,755.314,0,1,left,755.3153,756.981,1,0,right,1,756.9811,756.9812,756.9825,758.4806,0,1,1,1,1,0.8,0.2,0.8,0.2,,,,,,,,,,,,,,,0.6011,,0.2,0.8,0.4,0.6,0.6,0.4,0.4,0.6,,,1.1385,,0.6,0.4,0.2,0.8,0.8,0.2,0.8,0.2,1,0
,,667f23d046fa0aeeb5153736,66fc990304c12e3f4733d4ad,2024-10-01_18h52.41.794,mdp,2024.2.1,Win32,59.88023952,66fa4ebf79326e780c390304,,,,,,,,,,,,,,,,,,,,,758.4812,758.4812,758.4831,759.9136,0,0,left,0.9018,,759.9163,761.2467,0,0,left,761.2481,765.247,1,1,right,0,765.2471,765.2471,765.249,766.7468,0,2,2,2,1,0.8,0.2,0.8,0.2,,,,,,,,,,,,,,,0.8176,,0.2,0.8,0.4,0.6,0.6,0.4,0.4,0.6,,,3.4829,,0.6,0.4,0.2,0.8,0.8,0.2,0.8,0.2,1,0
,,667f23d046fa0aeeb5153736,66fc990304c12e3f4733d4ad,2024-10-01_18h52.41.794,mdp,2024.2.1,Win32,59.88023952,66fa4ebf79326e780c390304,,,,,,,,,,,,,,,,,,,,,766.7472,766.7472,766.7495,768.4136,0,0,left,1.1396,,768.4164,769.6135,0,0,left,769.6148,771.4802,0,1,left,0,771.4803,771.4803,771.482,772.9804,0,3,3,3,1,0.8,0.2,0.8,0.2,,,,,,,,,,,,,,,0.6897,,0.2,0.8,0.4,0.6,0.6,0.4,0.4,0.6,,,1.3366,,0.2,0.8,0.4,0.6,0.8,0.2,0.8,0.2,1,0
,,667f23d046fa0aeeb5153736,66fc990304c12e3f4733d4ad,2024-10-01_18h52.41.794,mdp,2024.2.1,Win32,59.88023952,66fa4ebf79326e780c390304,,,,,,,,,,,,,,,,,,,,,772.981,772.981,772.9826,774.514,0,0,left,1.0035,,774.5153,778.197,0,1,left,778.1989,779.7643,1,0,right,1,779.7644,779.7644,779.7659,781.2636,0,4,4,4,1,0.8,0.2,0.8,0.2,,,,,,,,,,,,,,,3.1526,,0.2,0.8,0.4,0.6,0.6,0.4,0.4,0.6,,,1.0489,,0.2,0.8,0.4,0.6,0.8,0.2,0.8,0.2,1,0
,,667f23d046fa0aeeb5153736,66fc990304c12e3f4733d4ad,2024-10-01_18h52.41.794,mdp,2024.2.1,Win32,59.88023952,66fa4ebf79326e780c390304,,,,,,,,,,,,,,,,,,,,,781.2643,781.2643,781.2661,782.5644,0,0,left,0.7743,,782.5659,783.7302,0,1,left,783.7321,785.1971,1,0,right,1,785.1972,785.1972,785.1998,786.6973,0,5,5,5,1,0.8,0.2,0.8,0.2,,,,,,,,,,,,,,,0.652,,0.2,0.8,0.4,0.6,0.6,0.4,0.4,0.6,,,0.9574,,0.2,0.8,0.4,0.6,0.8,0.2,0.8,0.2,1,0
,,667f23d046fa0aeeb5153736,66fc990304c12e3f4733d4ad,2024-10-01_18h52.41.794,mdp,2024.2.1,Win32,59.88023952,66fa4ebf79326e780c390304,,,,,,,,,,,,,,,,,,,,,786.698,786.698,786.7007,787.9803,0,0,left,0.752,,787.9817,789.0475,0,1,left,789.0505,790.3804,1,1,right,0,790.3804,790.3804,790.3822,791.8816,0,6,6,6,1,0.8,0.2,0.8,0.2,,,,,,,,,,,,,,,0.5547,,0.2,0.8,0.4,0.6,0.6,0.4,0.4,0.6,,,0.8002,,0.2,0.8,0.4,0.6,0.8,0.2,0.8,0.2,1,0
,,667f23d046fa0aeeb5153736,66fc990304c12e3f4733d4ad,2024-10-01_18h52.41.794,mdp,2024.2.1,Win32,59.88023952,66fa4ebf79326e780c390304,,,,,,,,,,,,,,,,,,,,,791.8829,791.8829,791.8845,795.5467,0,1,left,3.1343,,795.5489,799.3634,1,1,right,799.3653,801.2336,1,0,right,1,801.2336,801.2336,801.2385,802.7312,0,7,7,7,1,0.8,0.2,0.8,0.2,,,,,,,,,,,,,,,3.2798,,0.2,0.8,0.4,0.6,0.6,0.4,0.4,0.6,,,1.331,,0.2,0.8,0.4,0.6,0.8,0.2,0.8,0.2,1,0
,,667f23d046fa0aeeb5153736,66fc990304c12e3f4733d4ad,2024-10-01_18h52.41.794,mdp,2024.2.1,Win32,59.88023952,66fa4ebf79326e780c390304,,,,,,,,,,,,,,,,,,,,,802.7318,802.7319,802.734,803.8968,0,0,left,0.6313,,803.899,806.5136,0,1,left,806.5151,807.6636,1,0,right,1,807.6636,807.6636,807.6671,809.1642,0,8,8,8,1,0.8,0.2,0.8,0.2,,,,,,,,,,,,,,,2.0997,,0.6,0.4,0.2,0.8,0.6,0.4,0.4,0.6,,,0.6218,,0.2,0.8,0.4,0.6,0.8,0.2,0.8,0.2,1,0
,,667f23d046fa0aeeb5153736,66fc990304c12e3f4733d4ad,2024-10-01_18h52.41.794,mdp,2024.2.1,Win32,59.88023952,66fa4ebf79326e780c390304,,,,,,,,,,,,,,,,,,,,,809.1649,809.1649,809.1673,810.6997,0,0,left,1.0059,,810.7166,812.2802,0,1,left,812.2823,813.6803,1,0,right,1,813.6804,813.6804,813.6822,815.1801,0,9,9,9,1,0.8,0.2,0.8,0.2,,,,,,,,,,,,,,,1.0537,,0.4,0.6,0.6,0.4,0.6,0.4,0.4,0.6,,,0.8895,,0.2,0.8,0.4,0.6,0.8,0.2,0.8,0.2,1,0
,,667f23d046fa0aeeb5153736,66fc990304c12e3f4733d4ad,2024-10-01_18h52.41.794,mdp,2024.2.1,Win32,59.88023952,66fa4ebf79326e780c390304,,,,,,,,,,,,,,,,,,,,,815.1807,815.1807,815.183,816.9134,0,0,left,1.1978,,816.9155,818.2468,0,0,left,818.2487,822.2142,1,1,right,0,822.2143,822.2143,822.2163,823.714,0,10,10,10,1,0.2,0.8,0.6,0.4,,,,,,,,,,,,,,,0.8227,,0.4,0.6,0.6,0.4,0.6,0.4,0.4,0.6,,,3.4535,,0.2,0.8,0.4,0.6,0.8,0.2,0.8,0.2,1,0
,,667f23d046fa0aeeb5153736,66fc990304c12e3f4733d4ad,2024-10-01_18h52.41.794,mdp,2024.2.1,Win32,59.88023952,66fa4ebf79326e780c390304,,,,,,,,,,,,,,,,,,,,,823.7148,823.7148,823.7172,825.1488,0,1,left,0.8999,,825.1514,831.7136,0,1,left,831.715,833.7476,0,0,left,1,833.7477,833.7477,833.7496,835.2471,0,11,11,11,1,0.2,0.8,0.6,0.4,,,,,,,,,,,,,,,6.0358,,0.4,0.6,0.6,0.4,0.6,0.4,0.4,0.6,,,1.5235,,0.2,0.8,0.4,0.6,0.8,0.2,0.8,0.2,1,0
,,667f23d046fa0aeeb5153736,66fc990304c12e3f4733d4ad,2024-10-01_18h52.41.794,mdp,2024.2.1,Win32,59.88023952,66fa4ebf79326e780c390304,,,,,,,,,,,,,,,,,,,,,835.248,835.248,835.2501,836.4804,0,1,left,0.7198,,836.4818,837.764,0,1,left,837.7657,840.731,0,1,left,0,840.731,840.731,840.7327,842.2308,0,12,12,12,1,0.2,0.8,0.6,0.4,,,,,,,,,,,,,,,0.7528,,0.4,0.6,0.6,0.4,0.6,0.4,0.4,0.6,,,2.4349,,0.2,0.8,0.4,0.6,0.8,0.2,0.8,0.2,1,0
,,667f23d046fa0aeeb5153736,66fc990304c12e3f4733d4ad,2024-10-01_18h52.41.794,mdp,2024.2.1,Win32,59.88023952,66fa4ebf79326e780c390304,,,,,,,,,,,,,,,,,,,,,842.2312,842.2312,842.233,843.6142,0,1,left,0.858,,843.6154,846.7307,1,1,right,846.7329,848.1803,1,0,right,1,848.1803,848.1804,848.1816,849.6805,0,13,13,13,1,0.2,0.8,0.6,0.4,,,,,,,,,,,,,,,2.5827,,0.4,0.6,0.6,0.4,0.6,0.4,0.4,0.6,,,0.9333,,0.2,0.8,0.4,0.6,0.8,0.2,0.8,0.2,1,0
,,667f23d046fa0aeeb5153736,66fc990304c12e3f4733d4ad,2024-10-01_18h52.41.794,mdp,2024.2.1,Win32,59.88023952,66fa4ebf79326e780c390304,,,,,,,,,,,,,,,,,,,,,849.6813,849.6813,849.6837,850.9642,0,1,left,0.7507,,850.9664,852.4302,1,0,right,852.4317,855.9639,1,0,right,1,855.964,855.964,855.9654,857.4636,0,14,14,14,1,0.2,0.8,0.6,0.4,,,,,,,,,,,,,,,0.9405,,0.4,0.6,0.6,0.4,0.6,0.4,0.4,0.6,,,3.0229,,0.2,0.8,0.4,0.6,0.8,0.2,0.8,0.2,1,0
,,667f23d046fa0aeeb5153736,66fc990304c12e3f4733d4ad,2024-10-01_18h52.41.794,mdp,2024.2.1,Win32,59.88023952,66fa4ebf79326e780c390304,,,,,,,,,,,,,,,,,,,,,857.4643,857.4643,857.4663,859.4303,0,1,left,1.4356,,859.4316,860.8804,1,0,right,860.8817,862.1637,1,1,right,0,862.1637,862.1638,862.165,863.6641,0,15,15,15,1,0.2,0.8,0.6,0.4,,,,,,,,,,,,,,,0.9323,,0.4,0.6,0.6,0.4,0.6,0.4,0.4,0.6,,,0.7689,,0.2,0.8,0.4,0.6,0.8,0.2,0.8,0.2,1,0
,,667f23d046fa0aeeb5153736,66fc990304c12e3f4733d4ad,2024-10-01_18h52.41.794,mdp,2024.2.1,Win32,59.88023952,66fa4ebf79326e780c390304,,,,,,,,,,,,,,,,,,,,,863.6648,863.6648,863.6672,866.6639,0,1,left,2.4696,,866.6651,868.147,1,1,right,868.149,869.5139,1,1,right,0,869.514,869.514,869.5159,871.0144,0,16,16,16,1,0.2,0.8,0.6,0.4,,,,,,,,,,,,,,,0.9587,,0.4,0.6,0.6,0.4,0.6,0.4,0.4,0.6,,,0.8478,,0.2,0.8,0.4,0.6,0.8,0.2,0.8,0.2,1,0
,,667f23d046fa0aeeb5153736,66fc990304c12e3f4733d4ad,2024-10-01_18h52.41.794,mdp,2024.2.1,Win32,59.88023952,66fa4ebf79326e780c390304,,,,,,,,,,,,,,,,,,,,,871.0149,871.0149,871.0171,872.7167,0,1,left,1.1768,,872.7199,874.2969,1,1,right,874.2993,875.7968,1,0,right,1,875.7968,875.7968,875.7991,877.2972,0,17,17,17,1,0.2,0.8,0.6,0.4,,,,,,,,,,,,,,,1.0527,,0.4,0.6,0.6,0.4,0.6,0.4,0.4,0.6,,,0.9903,,0.2,0.8,0.4,0.6,0.8,0.2,0.8,0.2,1,0
,,667f23d046fa0aeeb5153736,66fc990304c12e3f4733d4ad,2024-10-01_18h52.41.794,mdp,2024.2.1,Win32,59.88023952,66fa4ebf79326e780c390304,,,,,,,,,,,,,,,,,,,,,877.2977,877.2977,877.3003,878.8137,0,0,left,0.9899,,878.8151,880.5308,0,1,left,880.5324,882.0303,1,0,right,1,882.0303,882.0303,882.0315,883.5307,0,18,18,18,1,0.2,0.8,0.6,0.4,,,,,,,,,,,,,,,1.1987,,0.4,0.6,0.6,0.4,0.6,0.4,0.4,0.6,,,0.9722,,0.2,0.8,0.4,0.6,0.8,0.2,0.8,0.2,1,0
,,667f23d046fa0aeeb5153736,66fc990304c12e3f4733d4ad,2024-10-01_18h52.41.794,mdp,2024.2.1,Win32,59.88023952,66fa4ebf79326e780c390304,,,,,,,,,,,,,,,,,,,,,883.5311,883.5311,883.5334,884.8637,0,1,left,0.7988,,884.8656,886.1805,1,1,right,886.1818,887.5137,1,0,right,1,887.5138,887.5138,887.5152,889.0139,0,19,19,19,1,0.2,0.8,0.6,0.4,,,,,,,,,,,,,,,0.7976,,0.4,0.6,0.6,0.4,0.6,0.4,0.4,0.6,,,0.7983,,0.2,0.8,0.4,0.6,0.8,0.2,0.8,0.2,1,0
,,667f23d046fa0aeeb5153736,66fc990304c12e3f4733d4ad,2024-10-01_18h52.41.794,mdp,2024.2.1,Win32,59.88023952,66fa4ebf79326e780c390304,,,,,,,,,,,,,,,,,,,,,889.0144,889.0144,889.0164,890.264,0,0,left,0.7178,,890.2658,891.7135,0,0,left,891.715,894.4638,0,1,left,0,894.4639,894.4639,894.4659,895.9634,0,20,20,20,1,0.8,0.2,0.4,0.6,,,,,,,,,,,,,,,0.9142,,0.4,0.6,0.6,0.4,0.6,0.4,0.4,0.6,,,2.2326,,0.2,0.8,0.4,0.6,0.8,0.2,0.8,0.2,1,0
,,667f23d046fa0aeeb5153736,66fc990304c12e3f4733d4ad,2024-10-01_18h52.41.794,mdp,2024.2.1,Win32,59.88023952,66fa4ebf79326e780c390304,,,,,,,,,,,,,,,,,,,,,895.9639,895.9639,895.9656,897.1805,0,0,left,0.6866,,897.1826,901.8643,0,1,left,901.8653,903.1801,1,1,right,0,903.1802,903.1802,903.1818,904.6803,0,21,21,21,1,0.8,0.2,0.4,0.6,,,,,,,,,,,,,,,4.1661,,0.4,0.6,0.6,0.4,0.6,0.4,0.4,0.6,,,0.7819,,0.2,0.8,0.4,0.6,0.8,0.2,0.8,0.2,1,0
,,667f23d046fa0aeeb5153736,66fc990304c12e3f4733d4ad,2024-10-01_18h52.41.794,mdp,2024.2.1,Win32,59.88023952,66fa4ebf79326e780c390304,,,,,,,,,,,,,,,,,,,,,904.681,904.681,904.6832,905.9136,0,0,left,0.7007,,905.9149,907.331,0,1,left,907.332,908.7139,1,0,right,1,908.7141,908.7141,908.7163,910.2138,0,22,22,22,1,0.8,0.2,0.4,0.6,,,,,,,,,,,,,,,0.8944,,0.4,0.6,0.6,0.4,0.6,0.4,0.4,0.6,,,0.8513,,0.2,0.8,0.4,0.6,0.8,0.2,0.8,0.2,1,0
,,667f23d046fa0aeeb5153736,66fc990304c12e3f4733d4ad,2024-10-01_18h52.41.794,mdp,2024.2.1,Win32,59.88023952,66fa4ebf79326e780c390304,,,,,,,,,,,,,,,,,,,,,910.2143,910.2143,910.2167,911.4305,0,0,left,0.6829,,911.4326,913.4305,0,1,left,913.4321,914.7314,1,0,right,1,914.7314,914.7314,914.7336,916.2311,0,23,23,23,1,0.8,0.2,0.4,0.6,,,,,,,,,,,,,,,1.4859,,0.4,0.6,0.6,0.4,0.6,0.4,0.4,0.6,,,0.7759,,0.2,0.8,0.4,0.6,0.8,0.2,0.8,0.2,1,0
,,667f23d046fa0aeeb5153736,66fc990304c12e3f4733d4ad,2024-10-01_18h52.41.794,mdp,2024.2.1,Win32,59.88023952,66fa4ebf79326e780c390304,,,,,,,,,,,,,,,,,,,,,916.2317,916.2318,916.2334,917.5471,0,1,left,0.7857,,917.5497,919.5968,1,1,right,919.5988,920.7803,1,0,right,1,920.7804,920.7804,920.7823,922.2809,0,24,24,24,1,0.8,0.2,0.4,0.6,,,,,,,,,,,,,,,1.5144,,0.4,0.6,0.6,0.4,0.6,0.4,0.4,0.6,,,0.6762,,0.2,0.8,0.4,0.6,0.8,0.2,0.8,0.2,1,0
,,667f23d046fa0aeeb5153736,66fc990304c12e3f4733d4ad,2024-10-01_18h52.41.794,mdp,2024.2.1,Win32,59.88023952,66fa4ebf79326e780c390304,,,,,,,,,,,,,,,,,,,,,922.2819,922.2819,922.2845,923.5308,0,0,left,0.7139,,923.5326,924.764,0,0,left,924.7657,928.9302,1,1,right,0,928.9302,928.9303,928.9328,930.4306,0,25,25,25,1,0.8,0.2,0.4,0.6,,,,,,,,,,,,,,,0.6971,,0.4,0.6,0.6,0.4,0.2,0.8,0.8,0.2,,,3.6323,,0.2,0.8,0.4,0.6,0.8,0.2,0.8,0.2,1,0
,,667f23d046fa0aeeb5153736,66fc990304c12e3f4733d4ad,2024-10-01_18h52.41.794,mdp,2024.2.1,Win32,59.88023952,66fa4ebf79326e780c390304,,,,,,,,,,,,,,,,,,,,,930.4311,930.4312,930.4338,934.1303,0,1,left,3.1711,,934.1317,939.63,1,0,right,939.6315,943.6635,1,1,right,0,943.6636,943.6636,943.6656,945.1635,0,26,26,26,1,0.8,0.2,0.4,0.6,,,,,,,,,,,,,,,4.9867,,0.4,0.6,0.6,0.4,0.2,0.8,0.8,0.2,,,3.5211,,0.2,0.8,0.4,0.6,0.8,0.2,0.8,0.2,1,0
,,667f23d046fa0aeeb5153736,66fc990304c12e3f4733d4ad,2024-10-01_18h52.41.794,mdp,2024.2.1,Win32,59.88023952,66fa4ebf79326e780c390304,,,,,,,,,,,,,,,,,,,,,945.1639,945.1639,945.1655,946.4325,0,1,left,0.7332,,946.4347,947.9317,1,0,right,947.9341,950.2975,0,0,left,1,950.2976,950.2976,950.2995,951.7976,0,27,27,27,1,0.8,0.2,0.4,0.6,,,,,,,,,,,,,,,0.976,,0.4,0.6,0.6,0.4,0.2,0.8,0.8,0.2,,,1.8326,,0.4,0.6,0.6,0.4,0.8,0.2,0.8,0.2,1,0
,,667f23d046fa0aeeb5153736,66fc990304c12e3f4733d4ad,2024-10-01_18h52.41.794,mdp,2024.2.1,Win32,59.88023952,66fa4ebf79326e780c390304,,,,,,,,,,,,,,,,,,,,,951.798,951.798,951.8,953.0143,0,0,left,0.692,,953.016,957.2637,0,0,left,957.2654,961.5643,1,1,right,0,961.5643,961.5643,961.5659,963.0648,0,28,28,28,1,0.8,0.2,0.4,0.6,,,,,,,,,,,,,,,3.7185,,0.4,0.6,0.6,0.4,0.2,0.8,0.8,0.2,,,3.7913,,0.4,0.6,0.6,0.4,0.8,0.2,0.8,0.2,1,0
,,667f23d046fa0aeeb5153736,66fc990304c12e3f4733d4ad,2024-10-01_18h52.41.794,mdp,2024.2.1,Win32,59.88023952,66fa4ebf79326e780c390304,,,,,,,,,,,,,,,,,,,,,963.0657,963.0657,963.069,964.7807,0,1,left,1.1911,,964.7823,972.0636,1,0,right,972.0649,974.7648,0,0,left,1,974.7649,974.7649,974.7677,976.2635,0,29,29,29,1,0.8,0.2,0.4,0.6,,,,,,,,,,,,,,,6.7479,,0.4,0.6,0.6,0.4,0.2,0.8,0.8,0.2,,,2.1914,,0.4,0.6,0.6,0.4,0.8,0.2,0.8,0.2,1,0
,,667f23d046fa0aeeb5153736,66fc990304c12e3f4733d4ad,2024-10-01_18h52.41.794,mdp,2024.2.1,Win32,59.88023952,66fa4ebf79326e780c390304,,,,,,,,,,,,,,,,,,,,,976.264,976.264,976.2657,977.4813,0,0,left,0.7017,,977.4838,982.9317,1,0,right,982.9333,986.0157,0,1,left,0,986.0159,986.0159,986.0188,987.514,0,30,30,30,1,0.8,0.2,0.4,0.6,,,,,,,,,,,,,,,4.9238,,0.4,0.6,0.6,0.4,0.2,0.8,0.8,0.2,,,2.5532,,0.4,0.6,0.6,0.4,0.8,0.2,0.8,0.2,1,0
,,667f23d046fa0aeeb5153736,66fc990304c12e3f4733d4ad,2024-10-01_18h52.41.794,mdp,2024.2.1,Win32,59.88023952,66fa4ebf79326e780c390304,,,,,,,,,,,,,,,,,,,,,987.5147,987.5147,987.5166,989.1972,0,0,left,1.1576,,989.1989,991.3976,1,0,right,991.3997,993.2305,1,1,right,0,993.2306,993.2306,993.2324,994.7312,0,31,31,31,1,0.8,0.2,0.4,0.6,,,,,,,,,,,,,,,1.685,,0.4,0.6,0.6,0.4,0.8,0.2,0.4,0.6,,,1.3012,,0.4,0.6,0.6,0.4,0.8,0.2,0.8,0.2,1,0
,,667f23d046fa0aeeb5153736,66fc990304c12e3f4733d4ad,2024-10-01_18h52.41.794,mdp,2024.2.1,Win32,59.88023952,66fa4ebf79326e780c390304,,,,,,,,,,,,,,,,,,,,,994.7319,994.7319,994.7345,999.2806,0,0,left,4.017,,999.2822,1000.5639,1,0,right,1000.5656,1006.5314,0,1,left,0,1006.5315,1006.5315,1006.533,1008.0305,0,32,32,32,1,0.8,0.2,0.4,0.6,,,,,,,,,,,,,,,0.775,,0.4,0.6,0.6,0.4,0.8,0.2,0.4,0.6,,,5.4515,,0.4,0.6,0.6,0.4,0.8,0.2,0.8,0.2,1,0
,,667f23d046fa0aeeb5153736,66fc990304c12e3f4733d4ad,2024-10-01_18h52.41.794,mdp,2024.2.1,Win32,59.88023952,66fa4ebf79326e780c390304,,,,,,,,,,,,,,,,,,,,,1008.031,1008.031,1008.0326,1011.9474,1,1,right,3.3835,,1011.949,1018.4981,1,0,right,1018.4998,1020.2141,1,0,right,1,1020.2143,1020.2143,1020.2161,1021.7146,0,33,33,33,1,0.8,0.2,0.4,0.6,,,,,,,,,,,,,,,6.0347,,0.4,0.6,0.6,0.4,0.8,0.2,0.4,0.6,,,1.1837,,0.6,0.4,0.2,0.8,0.8,0.2,0.8,0.2,1,0
,,667f23d046fa0aeeb5153736,66fc990304c12e3f4733d4ad,2024-10-01_18h52.41.794,mdp,2024.2.1,Win32,59.88023952,66fa4ebf79326e780c390304,,,,,,,,,,,,,,,,,,,,,1021.7152,1021.7152,1021.7168,1025.7471,0,0,left,3.5016,,1025.7489,1027.5473,0,1,left,1027.5493,1029.1148,1,0,right,1,1029.1149,1029.1149,1029.1164,1030.6146,0,34,34,34,1,0.8,0.2,0.4,0.6,,,,,,,,,,,,,,,1.2816,,0.4,0.6,0.6,0.4,0.8,0.2,0.4,0.6,,,1.0324,,0.6,0.4,0.2,0.8,0.8,0.2,0.8,0.2,1,0
,,667f23d046fa0aeeb5153736,66fc990304c12e3f4733d4ad,2024-10-01_18h52.41.794,mdp,2024.2.1,Win32,59.88023952,66fa4ebf79326e780c390304,,,,,,,,,,,,,,,,,,,,,1030.6151,1030.6151,1030.6165,1032.3635,0,0,left,1.2179,,1032.3652,1033.914,0,1,left,1033.9158,1035.248,1,0,right,1,1035.2481,1035.2481,1035.2498,1036.7478,0,35,35,35,1,0.8,0.2,0.4,0.6,,,,,,,,,,,,,,,1.0376,,0.4,0.6,0.6,0.4,0.8,0.2,0.4,0.6,,,0.8171,,0.6,0.4,0.2,0.8,0.8,0.2,0.8,0.2,1,0
,,667f23d046fa0aeeb5153736,66fc990304c12e3f4733d4ad,2024-10-01_18h52.41.794,mdp,2024.2.1,Win32,59.88023952,66fa4ebf79326e780c390304,,,,,,,,,,,,,,,,,,,,,1036.749,1036.749,1036.7506,1037.8645,0,0,left,0.5865,,1037.8662,1040.1972,0,1,left,1040.1988,1041.6305,1,0,right,1,1041.6306,1041.6306,1041.632,1043.131,0,36,36,36,1,0.8,0.2,0.4,0.6,,,,,,,,,,,,,,,1.8074,,0.4,0.6,0.6,0.4,0.8,0.2,0.4,0.6,,,0.925,,0.6,0.4,0.2,0.8,0.8,0.2,0.8,0.2,1,0
,,667f23d046fa0aeeb5153736,66fc990304c12e3f4733d4ad,2024-10-01_18h52.41.794,mdp,2024.2.1,Win32,59.88023952,66fa4ebf79326e780c390304,,,,,,,,,,,,,,,,,,,,,1043.1314,1043.1314,1043.1333,1044.364,0,1,left,0.7099,,1044.3654,1046.5474,1,1,right,1046.5491,1048.7637,1,0,right,1,1048.7638,1048.7638,1048.7653,1050.2648,0,37,37,37,1,0.8,0.2,0.4,0.6,,,,,,,,,,,,,,,1.648,,0.4,0.6,0.6,0.4,0.8,0.2,0.4,0.6,,,1.7005,,0.6,0.4,0.2,0.8,0.8,0.2,0.8,0.2,1,0
,,667f23d046fa0aeeb5153736,66fc990304c12e3f4733d4ad,2024-10-01_18h52.41.794,mdp,2024.2.1,Win32,59.88023952,66fa4ebf79326e780c390304,,,,,,,,,,,,,,,,,,,,,1050.2656,1050.2656,1050.2671,1051.6478,0,0,left,0.8504,,1051.6496,1053.3144,0,1,left,1053.3157,1054.698,1,1,right,0,1054.6981,1054.6981,1054.7002,1056.1978,0,38,38,38,1,0.8,0.2,0.4,0.6,,,,,,,,,,,,,,,1.131,,0.4,0.6,0.6,0.4,0.8,0.2,0.4,0.6,,,0.8512,,0.6,0.4,0.2,0.8,0.8,0.2,0.8,0.2,1,0
,,667f23d046fa0aeeb5153736,66fc990304c12e3f4733d4ad,2024-10-01_18h52.41.794,mdp,2024.2.1,Win32,59.88023952,66fa4ebf79326e780c390304,,,,,,,,,,,,,,,,,,,,,1056.1988,1056.1989,1056.201,1057.8969,0,0,left,1.1661,,1057.8989,1060.2473,0,0,left,1060.2492,1063.6303,1,1,right,0,1063.6304,1063.6304,1063.6319,1065.1307,0,39,39,39,1,0.8,0.2,0.4,0.6,,,,,,,,,,,,,,,1.82,,0.4,0.6,0.6,0.4,0.8,0.2,0.4,0.6,,,2.8547,,0.6,0.4,0.2,0.8,0.8,0.2,0.8,0.2,1,0
,,667f23d046fa0aeeb5153736,66fc990304c12e3f4733d4ad,2024-10-01_18h52.41.794,mdp,2024.2.1,Win32,59.88023952,66fa4ebf79326e780c390304,,,,,,,,,,,,,,,,,,,,,1065.1313,1065.1313,1065.133,1067.6972,1,0,right,2.0332,,1067.6987,1071.4312,1,0,right,1071.4331,1072.7315,0,0,left,1,1072.7316,1072.7317,1072.733,1074.2306,0,40,40,40,1,0.8,0.2,0.4,0.6,,,,,,,,,,,,,,,3.2,,0.4,0.6,0.6,0.4,0.8,0.2,0.4,0.6,,,0.7768,,0.6,0.4,0.2,0.8,0.8,0.2,0.8,0.2,1,0
,,667f23d046fa0aeeb5153736,66fc990304c12e3f4733d4ad,2024-10-01_18h52.41.794,mdp,2024.2.1,Win32,59.88023952,66fa4ebf79326e780c390304,,,,,,,,,,,,,,,,,,,,,1074.2311,1074.2311,1074.2331,1076.5471,1,0,right,1.7843,,1076.5487,1077.8137,1,0,right,1077.8156,1078.9639,0,0,left,1,1078.9639,1078.964,1078.9655,1080.4643,0,41,41,41,1,0.8,0.2,0.4,0.6,,,,,,,,,,,,,,,0.7506,,0.4,0.6,0.6,0.4,0.8,0.2,0.4,0.6,,,0.6345,,0.6,0.4,0.2,0.8,0.8,0.2,0.8,0.2,1,0
,,667f23d046fa0aeeb5153736,66fc990304c12e3f4733d4ad,2024-10-01_18h52.41.794,mdp,2024.2.1,Win32,59.88023952,66fa4ebf79326e780c390304,,,,,,,,,,,,,,,,,,,,,1080.4646,1080.4646,1080.4661,1081.7978,1,1,right,0.8063,,1081.7997,1086.9498,1,1,right,1086.9525,1088.4307,1,0,right,1,1088.4308,1088.4308,1088.4324,1089.9306,0,42,42,42,1,0.8,0.2,0.4,0.6,,,,,,,,,,,,,,,4.6239,,0.4,0.6,0.6,0.4,0.8,0.2,0.4,0.6,,,0.9493,,0.6,0.4,0.2,0.8,0.8,0.2,0.8,0.2,1,0
,,667f23d046fa0aeeb5153736,66fc990304c12e3f4733d4ad,2024-10-01_18h52.41.794,mdp,2024.2.1,Win32,59.88023952,66fa4ebf79326e780c390304,,,,,,,,,,,,,,,,,,,,,1089.9311,1089.9311,1089.9329,1093.5805,1,1,right,3.1174,,1093.582,1096.9811,1,1,right,1096.9834,1097.9991,1,0,right,1,1097.9993,1097.9993,1098.0016,1099.4976,0,43,43,43,1,0.8,0.2,0.4,0.6,,,,,,,,,,,,,,,2.8698,,0.4,0.6,0.6,0.4,0.8,0.2,0.4,0.6,,,0.503,,0.6,0.4,0.2,0.8,0.8,0.2,0.8,0.2,1,0
,,667f23d046fa0aeeb5153736,66fc990304c12e3f4733d4ad,2024-10-01_18h52.41.794,mdp,2024.2.1,Win32,59.88023952,66fa4ebf79326e780c390304,,,,,,,,,,,,,,,,,,,,,1099.498,1099.4981,1099.5,1100.9472,1,0,right,0.9254,,1100.9491,1103.3971,1,0,right,1103.3992,1104.9472,0,1,left,0,1104.9473,1104.9473,1104.9492,1106.4477,0,44,44,44,1,0.8,0.2,0.4,0.6,,,,,,,,,,,,,,,1.921,,0.4,0.6,0.6,0.4,0.8,0.2,0.4,0.6,,,1.0404,,0.6,0.4,0.2,0.8,0.8,0.2,0.8,0.2,1,0
,,667f23d046fa0aeeb5153736,66fc990304c12e3f4733d4ad,2024-10-01_18h52.41.794,mdp,2024.2.1,Win32,59.88023952,66fa4ebf79326e780c390304,,,,,,,,,,,,,,,,,,,,,1106.4486,1106.4486,1106.451,1108.6475,1,1,right,1.6747,,1108.6509,1113.5968,1,0,right,1113.599,1115.0803,0,1,left,0,1115.0803,1115.0803,1115.0815,1116.5802,0,45,45,45,1,0.8,0.2,0.4,0.6,,,,,,,,,,,,,,,4.4166,,0.4,0.6,0.6,0.4,0.8,0.2,0.4,0.6,,,0.9715,,0.6,0.4,0.2,0.8,0.8,0.2,0.8,0.2,1,0
,,667f23d046fa0aeeb5153736,66fc990304c12e3f4733d4ad,2024-10-01_18h52.41.794,mdp,2024.2.1,Win32,59.88023952,66fa4ebf79326e780c390304,,,,,,,,,,,,,,,,,,,,,1116.5806,1116.5806,1116.5826,1118.2643,0,0,left,1.154,,1118.2657,1120.4975,0,1,left,1120.4992,1121.8802,1,0,right,1,1121.8802,1121.8802,1121.8817,1123.3802,0,46,46,46,1,0.8,0.2,0.4,0.6,,,,,,,,,,,,,,,1.7009,,0.4,0.6,0.6,0.4,0.8,0.2,0.4,0.6,,,0.8527,,0.6,0.4,0.2,0.8,0.8,0.2,0.8,0.2,1,0
,,667f23d046fa0aeeb5153736,66fc990304c12e3f4733d4ad,2024-10-01_18h52.41.794,mdp,2024.2.1,Win32,59.88023952,66fa4ebf79326e780c390304,,,,,,,,,,,,,,,,,,,,,1123.3808,1123.3808,1123.3831,1124.3469,0,0,left,0.4337,,1124.3491,1125.8478,0,1,left,1125.8494,1127.1967,1,0,right,1,1127.1969,1127.1969,1127.1982,1128.6968,0,47,47,47,1,0.8,0.2,0.4,0.6,,,,,,,,,,,,,,,0.9826,,0.4,0.6,0.6,0.4,0.8,0.2,0.4,0.6,,,0.8238,,0.6,0.4,0.2,0.8,0.8,0.2,0.8,0.2,1,0
,,667f23d046fa0aeeb5153736,66fc990304c12e3f4733d4ad,2024-10-01_18h52.41.794,mdp,2024.2.1,Win32,59.88023952,66fa4ebf79326e780c390304,,,,,,,,,,,,,,,,,,,,,1128.6977,1128.6977,1128.7004,1129.5972,0,0,left,0.3739,,1129.5996,1131.1143,0,0,left,1131.1163,1134.4974,0,0,left,1,1134.4974,1134.4974,1134.4999,1135.9968,0,48,48,48,1,0.8,0.2,0.4,0.6,,,,,,,,,,,,,,,0.9833,,0.4,0.6,0.6,0.4,0.8,0.2,0.4,0.6,,,2.8505,,0.6,0.4,0.2,0.8,0.8,0.2,0.8,0.2,1,0
,,667f23d046fa0aeeb5153736,66fc990304c12e3f4733d4ad,2024-10-01_18h52.41.794,mdp,2024.2.1,Win32,59.88023952,66fa4ebf79326e780c390304,,,,,,,,,,,,,,,,,,,,,1135.9971,1135.9972,1135.999,1137.1468,0,0,left,0.6177,,1137.149,1138.1307,0,1,left,1138.1323,1140.0808,1,1,right,0,1140.081,1140.081,1140.0829,1141.5808,0,49,49,49,1,0.8,0.2,0.4,0.6,,,,,,,,,,,,,,,0.4687,,0.4,0.6,0.6,0.4,0.8,0.2,0.4,0.6,,,1.4206,,0.6,0.4,0.2,0.8,0.8,0.2,0.8,0.2,1,0
,,667f23d046fa0aeeb5153736,66fc990304c12e3f4733d4ad,2024-10-01_18h52.41.794,mdp,2024.2.1,Win32,59.88023952,66fa4ebf79326e780c390304,,,,,,,,,,,,,,,,,,,,,,,,,,,,,,,,,,,,,,,,,,,,,,,,,,,,,,,,1141.581,1200.0968,0,2,2,4,1,imgs/giraffe.png,imgs/horse.png,imgs/squirrel.png,imgs/bear.png,imgs/rabbit.png,,,,,,,,,,,,,,,,,,,,,,,,
,,667f23d046fa0aeeb5153736,66fc990304c12e3f4733d4ad,2024-10-01_18h52.41.794,mdp,2024.2.1,Win32,59.88023952,66fa4ebf79326e780c390304,,,,,,,,,,,,,,3,seqs/st3seq16.csv,1200.0972,1202.0637,space,1.4347,,1202.0713,1202.0713,1202.072,1206.1139,1,0,right,3.5126,,1206.1151,1208.9474,1,1,right,1208.9491,1211.6637,1,0,right,1,1211.6638,1211.6638,1211.6651,1213.1634,0,0,0,0,1,0.4,0.6,0.6,0.4,,,,,,,,,,,,,,,2.3225,,0.8,0.2,0.2,0.8,0.2,0.8,0.8,0.2,,,2.1729,,0.4,0.6,0.8,0.2,0.8,0.2,0.6,0.4,1,0
,,667f23d046fa0aeeb5153736,66fc990304c12e3f4733d4ad,2024-10-01_18h52.41.794,mdp,2024.2.1,Win32,59.88023952,66fa4ebf79326e780c390304,,,,,,,,,,,,,,,,,,,,,1213.1639,1213.164,1213.1658,1215.5641,1,1,right,1.8754,,1215.5652,1216.9973,1,1,right,1216.9997,1218.1638,1,0,right,1,1218.1638,1218.1638,1218.1651,1219.6638,0,1,1,1,1,0.4,0.6,0.6,0.4,,,,,,,,,,,,,,,0.9016,,0.8,0.2,0.2,0.8,0.2,0.8,0.8,0.2,,,0.6335,,0.4,0.6,0.8,0.2,0.8,0.2,0.6,0.4,1,0
,,667f23d046fa0aeeb5153736,66fc990304c12e3f4733d4ad,2024-10-01_18h52.41.794,mdp,2024.2.1,Win32,59.88023952,66fa4ebf79326e780c390304,,,,,,,,,,,,,,,,,,,,,1219.6644,1219.6644,1219.6662,1222.1472,1,1,right,1.9516,,1222.1486,1223.1803,1,0,right,1223.1819,1224.9639,0,1,left,0,1224.964,1224.964,1224.9651,1226.464,0,2,2,2,1,0.4,0.6,0.6,0.4,,,,,,,,,,,,,,,0.4996,,0.8,0.2,0.2,0.8,0.2,0.8,0.8,0.2,,,1.2488,,0.4,0.6,0.8,0.2,0.8,0.2,0.6,0.4,1,0
,,667f23d046fa0aeeb5153736,66fc990304c12e3f4733d4ad,2024-10-01_18h52.41.794,mdp,2024.2.1,Win32,59.88023952,66fa4ebf79326e780c390304,,,,,,,,,,,,,,,,,,,,,1226.4644,1226.4644,1226.4662,1227.9308,1,1,right,0.9354,,1227.9326,1229.1472,1,0,right,1229.1486,1230.547,1,1,right,0,1230.547,1230.547,1230.549,1232.047,0,3,3,3,1,0.4,0.6,0.6,0.4,,,,,,,,,,,,,,,0.685,,0.8,0.2,0.2,0.8,0.2,0.8,0.8,0.2,,,0.8771,,0.4,0.6,0.8,0.2,0.8,0.2,0.6,0.4,1,0
,,667f23d046fa0aeeb5153736,66fc990304c12e3f4733d4ad,2024-10-01_18h52.41.794,mdp,2024.2.1,Win32,59.88023952,66fa4ebf79326e780c390304,,,,,,,,,,,,,,,,,,,,,1232.0477,1232.0477,1232.0496,1233.598,1,0,right,1.0177,,1233.6007,1235.7806,1,1,right,1235.7817,1236.9319,1,1,right,0,1236.9319,1236.9319,1236.934,1238.4309,0,4,4,4,1,0.4,0.6,0.6,0.4,,,,,,,,,,,,,,,1.6553,,0.8,0.2,0.2,0.8,0.2,0.8,0.8,0.2,,,0.6241,,0.4,0.6,0.8,0.2,0.8,0.2,0.6,0.4,1,0
,,667f23d046fa0aeeb5153736,66fc990304c12e3f4733d4ad,2024-10-01_18h52.41.794,mdp,2024.2.1,Win32,59.88023952,66fa4ebf79326e780c390304,,,,,,,,,,,,,,,,,,,,,1238.4314,1238.4314,1238.4339,1240.7473,1,0,right,1.7841,,1240.7485,1242.3636,0,1,left,1242.3649,1244.281,1,1,right,0,1244.281,1244.281,1244.2822,1245.7809,0,5,5,5,1,0.4,0.6,0.6,0.4,,,,,,,,,,,,,,,1.0814,,0.8,0.2,0.2,0.8,0.2,0.8,0.8,0.2,,,1.4007,,0.4,0.6,0.8,0.2,0.8,0.2,0.6,0.4,1,0
,,667f23d046fa0aeeb5153736,66fc990304c12e3f4733d4ad,2024-10-01_18h52.41.794,mdp,2024.2.1,Win32,59.88023952,66fa4ebf79326e780c390304,,,,,,,,,,,,,,,,,,,,,1245.7814,1245.7814,1245.783,1248.7969,1,1,right,2.4826,,1248.7988,1250.1805,1,0,right,1250.1819,1253.6633,0,0,left,1,1253.6634,1253.6634,1253.6647,1255.1643,0,6,6,6,1,0.4,0.6,0.6,0.4,,,,,,,,,,,,,,,0.8485,,0.8,0.2,0.2,0.8,0.2,0.8,0.8,0.2,,,2.9489,,0.4,0.6,0.8,0.2,0.8,0.2,0.6,0.4,1,0
,,667f23d046fa0aeeb5153736,66fc990304c12e3f4733d4ad,2024-10-01_18h52.41.794,mdp,2024.2.1,Win32,59.88023952,66fa4ebf79326e780c390304,,,,,,,,,,,,,,,,,,,,,1255.1648,1255.1648,1255.1672,1259.4159,1,1,right,3.7144,,1259.4176,1261.9805,1,0,right,1261.9819,1263.3476,0,1,left,0,1263.3485,1263.3491,1263.3525,1264.847,0,7,7,7,1,0.4,0.6,0.6,0.4,,,,,,,,,,,,,,,2.0337,,0.8,0.2,0.2,0.8,0.2,0.8,0.8,0.2,,,0.8361,,0.4,0.6,0.8,0.2,0.8,0.2,0.6,0.4,1,0
,,667f23d046fa0aeeb5153736,66fc990304c12e3f4733d4ad,2024-10-01_18h52.41.794,mdp,2024.2.1,Win32,59.88023952,66fa4ebf79326e780c390304,,,,,,,,,,,,,,,,,,,,,1264.8481,1264.8481,1264.8503,1267.1636,1,0,right,1.7837,,1267.1649,1270.5475,1,0,right,1270.5489,1271.8976,1,1,right,0,1271.8977,1271.8977,1271.9,1273.3974,0,8,8,8,1,0.4,0.6,0.6,0.4,,,,,,,,,,,,,,,2.8665,,0.8,0.2,0.2,0.8,0.2,0.8,0.8,0.2,,,0.8201,,0.4,0.6,0.8,0.2,0.8,0.2,0.6,0.4,1,0
,,667f23d046fa0aeeb5153736,66fc990304c12e3f4733d4ad,2024-10-01_18h52.41.794,mdp,2024.2.1,Win32,59.88023952,66fa4ebf79326e780c390304,,,,,,,,,,,,,,,,,,,,,1273.3985,1273.3986,1273.4007,1277.181,0,1,left,3.2501,,1277.1824,1279.0976,0,1,left,1279.1003,1280.5307,1,1,right,0,1280.5308,1280.5308,1280.5323,1282.0309,0,9,9,9,1,0.4,0.6,0.6,0.4,,,,,,,,,,,,,,,1.3837,,0.8,0.2,0.2,0.8,0.2,0.8,0.8,0.2,,,0.8992,,0.4,0.6,0.8,0.2,0.4,0.6,0.4,0.6,1,0
,,667f23d046fa0aeeb5153736,66fc990304c12e3f4733d4ad,2024-10-01_18h52.41.794,mdp,2024.2.1,Win32,59.88023952,66fa4ebf79326e780c390304,,,,,,,,,,,,,,,,,,,,,1282.0313,1282.0313,1282.0337,1283.3468,0,0,left,0.7805,,1283.3488,1285.0139,1,1,right,1285.0152,1286.4142,0,0,left,1,1286.4142,1286.4143,1286.4158,1287.9159,0,10,10,10,1,0.4,0.6,0.6,0.4,,,,,,,,,,,,,,,1.1549,,0.8,0.2,0.2,0.8,0.2,0.8,0.8,0.2,,,0.8896,,0.4,0.6,0.8,0.2,0.4,0.6,0.4,0.6,1,0
,,667f23d046fa0aeeb5153736,66fc990304c12e3f4733d4ad,2024-10-01_18h52.41.794,mdp,2024.2.1,Win32,59.88023952,66fa4ebf79326e780c390304,,,,,,,,,,,,,,,,,,,,,1287.9167,1287.9167,1287.9183,1289.1308,0,1,left,0.6853,,1289.1326,1290.6467,1,0,right,1290.6482,1291.9471,0,1,left,0,1291.9471,1291.9471,1291.9489,1293.4469,0,11,11,11,1,0.4,0.6,0.6,0.4,,,,,,,,,,,,,,,0.9979,,0.8,0.2,0.2,0.8,0.2,0.8,0.8,0.2,,,0.7826,,0.4,0.6,0.8,0.2,0.4,0.6,0.4,0.6,1,0
,,667f23d046fa0aeeb5153736,66fc990304c12e3f4733d4ad,2024-10-01_18h52.41.794,mdp,2024.2.1,Win32,59.88023952,66fa4ebf79326e780c390304,,,,,,,,,,,,,,,,,,,,,1293.4475,1293.4475,1293.4493,1295.2971,0,0,left,1.3208,,1295.2985,1297.2476,0,0,left,1297.2507,1298.5969,1,0,right,1,1298.597,1298.597,1298.599,1300.0981,0,12,12,12,1,0.4,0.6,0.6,0.4,,,,,,,,,,,,,,,1.4142,,0.8,0.2,0.2,0.8,0.2,0.8,0.8,0.2,,,0.8164,,0.4,0.6,0.8,0.2,0.4,0.6,0.4,0.6,1,0
,,667f23d046fa0aeeb5153736,66fc990304c12e3f4733d4ad,2024-10-01_18h52.41.794,mdp,2024.2.1,Win32,59.88023952,66fa4ebf79326e780c390304,,,,,,,,,,,,,,,,,,,,,1300.0986,1300.0986,1300.1002,1301.3137,0,1,left,0.6828,,1301.3151,1306.5642,1,0,right,1306.5656,1308.131,0,0,left,1,1308.131,1308.131,1308.1323,1309.6304,0,13,13,13,1,0.4,0.6,0.6,0.4,,,,,,,,,,,,,,,4.7328,,0.8,0.2,0.2,0.8,0.2,0.8,0.8,0.2,,,1.0371,,0.4,0.6,0.8,0.2,0.8,0.2,0.6,0.4,1,0
,,667f23d046fa0aeeb5153736,66fc990304c12e3f4733d4ad,2024-10-01_18h52.41.794,mdp,2024.2.1,Win32,59.88023952,66fa4ebf79326e780c390304,,,,,,,,,,,,,,,,,,,,,1309.6309,1309.6309,1309.6328,1313.1137,0,1,left,2.9522,,1313.1157,1314.5302,1,1,right,1314.5316,1316.0142,0,0,left,1,1316.0143,1316.0143,1316.0158,1317.514,0,14,14,14,1,0.4,0.6,0.6,0.4,,,,,,,,,,,,,,,0.8842,,0.8,0.2,0.2,0.8,0.2,0.8,0.8,0.2,,,0.9657,,0.4,0.6,0.8,0.2,0.8,0.2,0.6,0.4,1,0
,,667f23d046fa0aeeb5153736,66fc990304c12e3f4733d4ad,2024-10-01_18h52.41.794,mdp,2024.2.1,Win32,59.88023952,66fa4ebf79326e780c390304,,,,,,,,,,,,,,,,,,,,,1317.5147,1317.5151,1317.5173,1318.7803,0,1,left,0.7357,,1318.7817,1319.8635,1,1,right,1319.8655,1322.1467,0,0,left,1,1322.1469,1322.1469,1322.1489,1323.6467,0,15,15,15,1,0.4,0.6,0.6,0.4,,,,,,,,,,,,,,,0.5536,,0.4,0.6,0.4,0.6,0.2,0.8,0.8,0.2,,,1.7586,,0.4,0.6,0.8,0.2,0.8,0.2,0.6,0.4,1,0
,,667f23d046fa0aeeb5153736,66fc990304c12e3f4733d4ad,2024-10-01_18h52.41.794,mdp,2024.2.1,Win32,59.88023952,66fa4ebf79326e780c390304,,,,,,,,,,,,,,,,,,,,,1323.6473,1323.6473,1323.6496,1325.0475,0,0,left,0.8893,,1325.0506,1328.9137,0,1,left,1328.9149,1330.6806,0,0,left,1,1330.6807,1330.6807,1330.6818,1332.1807,0,16,16,16,1,0.4,0.6,0.6,0.4,,,,,,,,,,,,,,,3.3317,,0.4,0.6,0.4,0.6,0.2,0.8,0.8,0.2,,,1.2551,,0.2,0.8,0.6,0.4,0.8,0.2,0.6,0.4,1,0
,,667f23d046fa0aeeb5153736,66fc990304c12e3f4733d4ad,2024-10-01_18h52.41.794,mdp,2024.2.1,Win32,59.88023952,66fa4ebf79326e780c390304,,,,,,,,,,,,,,,,,,,,,1332.1813,1332.1813,1332.1834,1334.4141,0,1,left,1.706,,1334.4154,1339.2474,0,1,left,1339.2491,1340.4137,0,1,left,0,1340.4139,1340.4139,1340.4153,1341.9138,0,17,17,17,1,0.4,0.6,0.6,0.4,,,,,,,,,,,,,,,4.3035,,0.4,0.6,0.4,0.6,0.2,0.8,0.8,0.2,,,0.6391,,0.2,0.8,0.6,0.4,0.8,0.2,0.6,0.4,1,0
,,667f23d046fa0aeeb5153736,66fc990304c12e3f4733d4ad,2024-10-01_18h52.41.794,mdp,2024.2.1,Win32,59.88023952,66fa4ebf79326e780c390304,,,,,,,,,,,,,,,,,,,,,1341.9143,1341.9143,1341.9163,1343.0975,0,0,left,0.6523,,1343.0997,1347.5136,1,1,right,1347.5152,1348.5968,0,0,left,1,1348.597,1348.597,1348.5991,1350.097,0,18,18,18,1,0.4,0.6,0.6,0.4,,,,,,,,,,,,,,,3.8996,,0.4,0.6,0.4,0.6,0.2,0.8,0.8,0.2,,,0.5746,,0.2,0.8,0.6,0.4,0.8,0.2,0.6,0.4,1,0
,,667f23d046fa0aeeb5153736,66fc990304c12e3f4733d4ad,2024-10-01_18h52.41.794,mdp,2024.2.1,Win32,59.88023952,66fa4ebf79326e780c390304,,,,,,,,,,,,,,,,,,,,,1350.0977,1350.0977,1350.0997,1351.7802,0,1,left,1.1652,,1351.7812,1355.6138,0,0,left,1355.6151,1356.6975,1,0,right,1,1356.6975,1356.6975,1356.7,1358.1981,0,19,19,19,1,0.4,0.6,0.6,0.4,,,,,,,,,,,,,,,3.3161,,0.4,0.6,0.4,0.6,0.2,0.8,0.8,0.2,,,0.5655,,0.2,0.8,0.6,0.4,0.8,0.2,0.6,0.4,1,0
,,667f23d046fa0aeeb5153736,66fc990304c12e3f4733d4ad,2024-10-01_18h52.41.794,mdp,2024.2.1,Win32,59.88023952,66fa4ebf79326e780c390304,,,,,,,,,,,,,,,,,,,,,1358.1988,1358.1988,1358.201,1359.647,0,1,left,0.9168,,1359.6492,1366.2977,1,1,right,1366.3007,1367.4978,0,0,left,1,1367.4978,1367.4978,1367.5007,1368.9972,0,20,20,20,1,0.4,0.6,0.6,0.4,,,,,,,,,,,,,,,6.1172,,0.4,0.6,0.4,0.6,0.2,0.8,0.8,0.2,,,0.6671,,0.4,0.6,0.2,0.8,0.8,0.2,0.6,0.4,1,0
,,667f23d046fa0aeeb5153736,66fc990304c12e3f4733d4ad,2024-10-01_18h52.41.794,mdp,2024.2.1,Win32,59.88023952,66fa4ebf79326e780c390304,,,,,,,,,,,,,,,,,,,,,1368.9976,1368.9976,1368.9998,1370.2803,0,0,left,0.7531,,1370.2818,1371.7472,0,1,left,1371.7486,1373.1324,1,0,right,1,1373.1326,1373.1327,1373.1347,1374.6303,0,21,21,21,1,0.4,0.6,0.6,0.4,,,,,,,,,,,,,,,0.9406,,0.4,0.6,0.4,0.6,0.2,0.8,0.8,0.2,,,0.8583,,0.4,0.6,0.2,0.8,0.8,0.2,0.6,0.4,1,0
,,667f23d046fa0aeeb5153736,66fc990304c12e3f4733d4ad,2024-10-01_18h52.41.794,mdp,2024.2.1,Win32,59.88023952,66fa4ebf79326e780c390304,,,,,,,,,,,,,,,,,,,,,1374.6309,1374.6309,1374.6325,1375.7139,0,0,left,0.5657,,1375.715,1377.5975,0,0,left,1377.5987,1383.0303,0,1,left,0,1383.0303,1383.0303,1383.0315,1384.5311,0,22,22,22,1,0.4,0.6,0.6,0.4,,,,,,,,,,,,,,,1.3579,,0.4,0.6,0.4,0.6,0.2,0.8,0.8,0.2,,,4.8999,,0.4,0.6,0.2,0.8,0.8,0.2,0.6,0.4,1,0
,,667f23d046fa0aeeb5153736,66fc990304c12e3f4733d4ad,2024-10-01_18h52.41.794,mdp,2024.2.1,Win32,59.88023952,66fa4ebf79326e780c390304,,,,,,,,,,,,,,,,,,,,,1384.5316,1384.5316,1384.5334,1386.3974,0,1,left,1.3399,,1386.3993,1387.9637,0,1,left,1387.9648,1389.7976,1,1,right,0,1389.7978,1389.7978,1389.7993,1391.2971,0,23,23,23,1,0.4,0.6,0.6,0.4,,,,,,,,,,,,,,,1.0322,,0.4,0.6,0.4,0.6,0.2,0.8,0.8,0.2,,,1.3208,,0.4,0.6,0.2,0.8,0.8,0.2,0.6,0.4,1,0
,,667f23d046fa0aeeb5153736,66fc990304c12e3f4733d4ad,2024-10-01_18h52.41.794,mdp,2024.2.1,Win32,59.88023952,66fa4ebf79326e780c390304,,,,,,,,,,,,,,,,,,,,,1391.2976,1391.2976,1391.3002,1392.647,0,1,left,0.8208,,1392.6491,1394.6972,0,1,left,1394.7,1396.2976,1,0,right,1,1396.2976,1396.2976,1396.2999,1397.797,0,24,24,24,1,0.4,0.6,0.6,0.4,,,,,,,,,,,,,,,1.5328,,0.4,0.6,0.4,0.6,0.2,0.8,0.8,0.2,,,1.0673,,0.4,0.6,0.2,0.8,0.8,0.2,0.6,0.4,1,0
,,667f23d046fa0aeeb5153736,66fc990304c12e3f4733d4ad,2024-10-01_18h52.41.794,mdp,2024.2.1,Win32,59.88023952,66fa4ebf79326e780c390304,,,,,,,,,,,,,,,,,,,,,1397.7974,1397.7974,1397.7999,1401.5802,0,0,left,3.2644,,1401.5816,1404.0467,1,0,right,1404.049,1415.6803,0,0,left,1,1415.6804,1415.6804,1415.6819,1417.1804,0,25,25,25,1,0.4,0.6,0.6,0.4,,,,,,,,,,,,,,,1.9363,,0.4,0.6,0.4,0.6,0.2,0.8,0.8,0.2,,,11.1171,,0.4,0.6,0.2,0.8,0.8,0.2,0.6,0.4,1,0
,,667f23d046fa0aeeb5153736,66fc990304c12e3f4733d4ad,2024-10-01_18h52.41.794,mdp,2024.2.1,Win32,59.88023952,66fa4ebf79326e780c390304,,,,,,,,,,,,,,,,,,,,,1417.1809,1417.181,1417.1832,1418.9978,0,1,left,1.2847,,1419.0001,1420.9644,0,0,left,1420.9659,1423.747,1,1,right,0,1423.7471,1423.7471,1423.7492,1425.2468,0,26,26,26,1,0.4,0.6,0.6,0.4,,,,,,,,,,,,,,,1.4394,,0.4,0.6,0.4,0.6,0.2,0.8,0.8,0.2,,,2.2484,,0.4,0.6,0.2,0.8,0.8,0.2,0.6,0.4,1,0
,,667f23d046fa0aeeb5153736,66fc990304c12e3f4733d4ad,2024-10-01_18h52.41.794,mdp,2024.2.1,Win32,59.88023952,66fa4ebf79326e780c390304,,,,,,,,,,,,,,,,,,,,,1425.2473,1425.2473,1425.2496,1429.4802,0,1,left,3.7033,,1429.4812,1431.3475,0,0,left,1431.3495,1433.6311,0,0,left,1,1433.6311,1433.6311,1433.6326,1435.1308,0,27,27,27,1,0.4,0.6,0.6,0.4,,,,,,,,,,,,,,,1.3508,,0.4,0.6,0.4,0.6,0.6,0.4,0.2,0.8,,,1.7559,,0.4,0.6,0.2,0.8,0.8,0.2,0.6,0.4,1,0
,,667f23d046fa0aeeb5153736,66fc990304c12e3f4733d4ad,2024-10-01_18h52.41.794,mdp,2024.2.1,Win32,59.88023952,66fa4ebf79326e780c390304,,,,,,,,,,,,,,,,,,,,,1435.1312,1435.1312,1435.1332,1437.5809,0,0,left,1.9235,,1437.5828,1439.6476,1,0,right,1439.6495,1441.3143,0,0,left,1,1441.3143,1441.3143,1441.3155,1442.8137,0,28,28,28,1,0.4,0.6,0.6,0.4,,,,,,,,,,,,,,,1.5318,,0.4,0.6,0.4,0.6,0.6,0.4,0.2,0.8,,,1.134,,0.4,0.6,0.2,0.8,0.8,0.2,0.6,0.4,1,0
,,667f23d046fa0aeeb5153736,66fc990304c12e3f4733d4ad,2024-10-01_18h52.41.794,mdp,2024.2.1,Win32,59.88023952,66fa4ebf79326e780c390304,,,,,,,,,,,,,,,,,,,,,1442.8141,1442.8141,1442.8163,1444.2635,0,0,left,0.9216,,1444.2649,1445.7305,1,1,right,1445.732,1447.3473,1,1,right,0,1447.3474,1447.3475,1447.3494,1448.8467,0,29,29,29,1,0.4,0.6,0.6,0.4,,,,,,,,,,,,,,,0.9534,,0.4,0.6,0.4,0.6,0.6,0.4,0.2,0.8,,,1.0814,,0.4,0.6,0.2,0.8,0.8,0.2,0.6,0.4,1,0
,,667f23d046fa0aeeb5153736,66fc990304c12e3f4733d4ad,2024-10-01_18h52.41.794,mdp,2024.2.1,Win32,59.88023952,66fa4ebf79326e780c390304,,,,,,,,,,,,,,,,,,,,,1448.8472,1448.8472,1448.8497,1450.1646,0,1,left,0.7987,,1450.1661,1451.8635,0,0,left,1451.8646,1454.3971,0,0,left,1,1454.3972,1454.3972,1454.3988,1455.8972,0,30,30,30,1,0.4,0.6,0.6,0.4,,,,,,,,,,,,,,,1.1689,,0.4,0.6,0.4,0.6,0.6,0.4,0.2,0.8,,,2.0212,,0.4,0.6,0.2,0.8,0.8,0.2,0.6,0.4,1,0
,,667f23d046fa0aeeb5153736,66fc990304c12e3f4733d4ad,2024-10-01_18h52.41.794,mdp,2024.2.1,Win32,59.88023952,66fa4ebf79326e780c390304,,,,,,,,,,,,,,,,,,,,,1455.8976,1455.8977,1455.9004,1457.1642,0,1,left,0.7337,,1457.1661,1458.5977,0,1,left,1458.5998,1460.7635,1,1,right,0,1460.7637,1460.7637,1460.7655,1462.2635,0,31,31,31,1,0.4,0.6,0.6,0.4,,,,,,,,,,,,,,,0.9067,,0.4,0.6,0.4,0.6,0.6,0.4,0.2,0.8,,,1.6406,,0.4,0.6,0.2,0.8,0.8,0.2,0.6,0.4,1,0
,,667f23d046fa0aeeb5153736,66fc990304c12e3f4733d4ad,2024-10-01_18h52.41.794,mdp,2024.2.1,Win32,59.88023952,66fa4ebf79326e780c390304,,,,,,,,,,,,,,,,,,,,,1462.264,1462.264,1462.2661,1463.6638,0,0,left,0.8842,,1463.6652,1465.7654,1,1,right,1465.7678,1468.6809,1,1,right,0,1468.6809,1468.6809,1468.6826,1470.18,0,32,32,32,1,0.4,0.6,0.6,0.4,,,,,,,,,,,,,,,1.5823,,0.4,0.6,0.4,0.6,0.6,0.4,0.2,0.8,,,2.386,,0.4,0.6,0.2,0.8,0.8,0.2,0.6,0.4,1,0
,,667f23d046fa0aeeb5153736,66fc990304c12e3f4733d4ad,2024-10-01_18h52.41.794,mdp,2024.2.1,Win32,59.88023952,66fa4ebf79326e780c390304,,,,,,,,,,,,,,,,,,,,,1470.1805,1470.1805,1470.1822,1471.4302,0,0,left,0.738,,1471.4327,1473.9639,1,0,right,1473.9651,1476.297,0,1,left,0,1476.2971,1476.2971,1476.299,1477.7974,0,33,33,33,1,0.4,0.6,0.6,0.4,,,,,,,,,,,,,,,2.0171,,0.4,0.6,0.4,0.6,0.6,0.4,0.2,0.8,,,1.7991,,0.4,0.6,0.2,0.8,0.8,0.2,0.6,0.4,1,0
,,667f23d046fa0aeeb5153736,66fc990304c12e3f4733d4ad,2024-10-01_18h52.41.794,mdp,2024.2.1,Win32,59.88023952,66fa4ebf79326e780c390304,,,,,,,,,,,,,,,,,,,,,1477.7984,1477.7984,1477.8008,1479.0807,0,0,left,0.7531,,1479.0821,1482.847,1,1,right,1482.8487,1485.6644,0,1,left,0,1485.6644,1485.6644,1485.6666,1487.1633,0,34,34,34,1,0.4,0.6,0.6,0.4,,,,,,,,,,,,,,,3.2383,,0.4,0.6,0.4,0.6,0.6,0.4,0.2,0.8,,,2.2986,,0.4,0.6,0.2,0.8,0.8,0.2,0.6,0.4,1,0
,,667f23d046fa0aeeb5153736,66fc990304c12e3f4733d4ad,2024-10-01_18h52.41.794,mdp,2024.2.1,Win32,59.88023952,66fa4ebf79326e780c390304,,,,,,,,,,,,,,,,,,,,,1487.1638,1487.1638,1487.1654,1489.7471,1,0,right,2.0504,,1489.7497,1492.2806,1,0,right,1492.2827,1493.9471,0,1,left,0,1493.9472,1493.9473,1493.9488,1495.447,0,35,35,35,1,0.4,0.6,0.6,0.4,,,,,,,,,,,,,,,2.0178,,0.4,0.6,0.4,0.6,0.6,0.4,0.2,0.8,,,1.1328,,0.4,0.6,0.2,0.8,0.8,0.2,0.6,0.4,1,0
,,667f23d046fa0aeeb5153736,66fc990304c12e3f4733d4ad,2024-10-01_18h52.41.794,mdp,2024.2.1,Win32,59.88023952,66fa4ebf79326e780c390304,,,,,,,,,,,,,,,,,,,,,1495.4475,1495.4476,1495.4501,1498.5637,0,0,left,2.5827,,1498.5654,1502.8138,0,1,left,1502.815,1504.9636,1,0,right,1,1504.9638,1504.9638,1504.9652,1506.4636,0,36,36,36,1,0.4,0.6,0.6,0.4,,,,,,,,,,,,,,,3.722,,0.4,0.6,0.4,0.6,0.6,0.4,0.2,0.8,,,1.6297,,0.4,0.6,0.2,0.8,0.8,0.2,0.6,0.4,1,0
,,667f23d046fa0aeeb5153736,66fc990304c12e3f4733d4ad,2024-10-01_18h52.41.794,mdp,2024.2.1,Win32,59.88023952,66fa4ebf79326e780c390304,,,,,,,,,,,,,,,,,,,,,1506.4642,1506.4643,1506.4658,1507.9634,0,0,left,0.9686,,1507.9647,1509.4809,0,1,left,1509.4827,1511.1639,1,1,right,0,1511.1639,1511.164,1511.1652,1512.6637,0,37,37,37,1,0.4,0.6,0.6,0.4,,,,,,,,,,,,,,,1.0031,,0.4,0.6,0.4,0.6,0.6,0.4,0.2,0.8,,,1.1583,,0.4,0.6,0.2,0.8,0.8,0.2,0.6,0.4,1,0
,,667f23d046fa0aeeb5153736,66fc990304c12e3f4733d4ad,2024-10-01_18h52.41.794,mdp,2024.2.1,Win32,59.88023952,66fa4ebf79326e780c390304,,,,,,,,,,,,,,,,,,,,,1512.664,1512.664,1512.6662,1515.4303,0,1,left,2.2548,,1515.4317,1516.9489,0,0,left,1516.951,1518.0472,0,1,left,0,1518.0473,1518.0473,1518.0495,1519.5474,0,38,38,38,1,0.4,0.6,0.6,0.4,,,,,,,,,,,,,,,0.9964,,0.4,0.6,0.4,0.6,0.6,0.4,0.2,0.8,,,0.5659,,0.4,0.6,0.2,0.8,0.8,0.2,0.6,0.4,1,0
,,667f23d046fa0aeeb5153736,66fc990304c12e3f4733d4ad,2024-10-01_18h52.41.794,mdp,2024.2.1,Win32,59.88023952,66fa4ebf79326e780c390304,,,,,,,,,,,,,,,,,,,,,1519.548,1519.548,1519.55,1522.6302,0,0,left,2.5495,,1522.6314,1524.731,0,1,left,1524.7326,1526.1801,1,1,right,0,1526.1801,1526.1801,1526.1816,1527.6803,0,39,39,39,1,0.4,0.6,0.6,0.4,,,,,,,,,,,,,,,1.5832,,0.4,0.6,0.4,0.6,0.6,0.4,0.2,0.8,,,0.9237,,0.4,0.6,0.2,0.8,0.8,0.2,0.6,0.4,1,0
,,667f23d046fa0aeeb5153736,66fc990304c12e3f4733d4ad,2024-10-01_18h52.41.794,mdp,2024.2.1,Win32,59.88023952,66fa4ebf79326e780c390304,,,,,,,,,,,,,,,,,,,,,1527.681,1527.681,1527.6836,1533.1806,1,0,right,4.9764,,1533.1819,1535.8636,0,1,left,1535.865,1537.0475,0,0,left,1,1537.0477,1537.0477,1537.0504,1538.5484,0,40,40,40,1,0.4,0.6,0.6,0.4,,,,,,,,,,,,,,,2.1551,,0.4,0.6,0.4,0.6,0.6,0.4,0.2,0.8,,,0.6547,,0.4,0.6,0.2,0.8,0.8,0.2,0.6,0.4,1,0
,,667f23d046fa0aeeb5153736,66fc990304c12e3f4733d4ad,2024-10-01_18h52.41.794,mdp,2024.2.1,Win32,59.88023952,66fa4ebf79326e780c390304,,,,,,,,,,,,,,,,,,,,,1538.5488,1538.5488,1538.5509,1539.9471,1,0,right,0.8668,,1539.9494,1544.4137,0,1,left,1544.4152,1545.6467,0,0,left,1,1545.6469,1545.6469,1545.6488,1547.1492,0,41,41,41,1,0.4,0.6,0.6,0.4,,,,,,,,,,,,,,,3.9345,,0.4,0.6,0.4,0.6,0.6,0.4,0.2,0.8,,,0.7055,,0.2,0.8,0.6,0.4,0.8,0.2,0.6,0.4,1,0
,,667f23d046fa0aeeb5153736,66fc990304c12e3f4733d4ad,2024-10-01_18h52.41.794,mdp,2024.2.1,Win32,59.88023952,66fa4ebf79326e780c390304,,,,,,,,,,,,,,,,,,,,,1547.1498,1547.1498,1547.151,1548.5969,1,0,right,0.9174,,1548.5982,1549.8309,0,0,left,1549.8336,1552.481,1,0,right,1,1552.481,1552.481,1552.4823,1553.9805,0,42,42,42,1,0.4,0.6,0.6,0.4,,,,,,,,,,,,,,,0.7215,,0.4,0.6,0.4,0.6,0.6,0.4,0.2,0.8,,,2.1154,,0.2,0.8,0.6,0.4,0.8,0.2,0.6,0.4,1,0
,,667f23d046fa0aeeb5153736,66fc990304c12e3f4733d4ad,2024-10-01_18h52.41.794,mdp,2024.2.1,Win32,59.88023952,66fa4ebf79326e780c390304,,,,,,,,,,,,,,,,,,,,,1553.981,1553.981,1553.983,1555.4142,1,1,right,0.9,,1555.4167,1560.6803,1,0,right,1560.6817,1562.2641,1,0,right,1,1562.2643,1562.2643,1562.2664,1563.7636,0,43,43,43,1,0.4,0.6,0.6,0.4,,,,,,,,,,,,,,,4.732,,0.6,0.4,0.2,0.8,0.6,0.4,0.2,0.8,,,1.0527,,0.2,0.8,0.6,0.4,0.8,0.2,0.6,0.4,1,0
,,667f23d046fa0aeeb5153736,66fc990304c12e3f4733d4ad,2024-10-01_18h52.41.794,mdp,2024.2.1,Win32,59.88023952,66fa4ebf79326e780c390304,,,,,,,,,,,,,,,,,,,,,1563.7641,1563.7641,1563.7664,1565.1469,1,1,right,0.8587,,1565.1484,1566.5817,1,1,right,1566.5837,1568.264,0,1,left,0,1568.2641,1568.2641,1568.2656,1569.7637,0,44,44,44,1,0.4,0.6,0.6,0.4,,,,,,,,,,,,,,,0.9254,,0.6,0.4,0.2,0.8,0.6,0.4,0.2,0.8,,,1.1506,,0.2,0.8,0.6,0.4,0.8,0.2,0.6,0.4,1,0
,,667f23d046fa0aeeb5153736,66fc990304c12e3f4733d4ad,2024-10-01_18h52.41.794,mdp,2024.2.1,Win32,59.88023952,66fa4ebf79326e780c390304,,,,,,,,,,,,,,,,,,,,,1569.7643,1569.7643,1569.7659,1574.0135,0,1,left,3.7171,,1574.0149,1576.38,0,1,left,1576.3813,1578.2301,1,1,right,0,1578.2303,1578.2303,1578.2319,1579.7308,0,45,45,45,1,0.4,0.6,0.6,0.4,,,,,,,,,,,,,,,1.8571,,0.6,0.4,0.2,0.8,0.6,0.4,0.2,0.8,,,1.3337,,0.2,0.8,0.6,0.4,0.8,0.2,0.6,0.4,1,0
,,667f23d046fa0aeeb5153736,66fc990304c12e3f4733d4ad,2024-10-01_18h52.41.794,mdp,2024.2.1,Win32,59.88023952,66fa4ebf79326e780c390304,,,,,,,,,,,,,,,,,,,,,1579.7314,1579.7314,1579.7331,1581.0969,1,0,right,0.8357,,1581.1005,1583.5638,0,0,left,1583.5668,1585.247,1,1,right,0,1585.2471,1585.2471,1585.2488,1586.7475,0,46,46,46,1,0.4,0.6,0.6,0.4,,,,,,,,,,,,,,,1.9486,,0.6,0.4,0.2,0.8,0.6,0.4,0.2,0.8,,,1.1686,,0.2,0.8,0.6,0.4,0.8,0.2,0.6,0.4,1,0
,,667f23d046fa0aeeb5153736,66fc990304c12e3f4733d4ad,2024-10-01_18h52.41.794,mdp,2024.2.1,Win32,59.88023952,66fa4ebf79326e780c390304,,,,,,,,,,,,,,,,,,,,,1586.7485,1586.7485,1586.7504,1588.0809,1,1,right,0.8028,,1588.0823,1590.1635,1,1,right,1590.1647,1591.5967,0,0,left,1,1591.5967,1591.5968,1591.599,1593.0979,0,47,47,47,1,0.4,0.6,0.6,0.4,,,,,,,,,,,,,,,1.5564,,0.6,0.4,0.2,0.8,0.6,0.4,0.2,0.8,,,0.9234,,0.2,0.8,0.6,0.4,0.8,0.2,0.6,0.4,1,0
,,667f23d046fa0aeeb5153736,66fc990304c12e3f4733d4ad,2024-10-01_18h52.41.794,mdp,2024.2.1,Win32,59.88023952,66fa4ebf79326e780c390304,,,,,,,,,,,,,,,,,,,,,1593.099,1593.099,1593.1012,1594.6473,1,1,right,1.0232,,1594.6495,1596.1973,1,1,right,1596.1991,1599.0478,0,0,left,1,1599.0479,1599.0479,1599.0506,1600.547,0,48,48,48,1,0.4,0.6,0.6,0.4,,,,,,,,,,,,,,,1.0415,,0.6,0.4,0.2,0.8,0.6,0.4,0.2,0.8,,,2.3351,,0.2,0.8,0.6,0.4,0.8,0.2,0.6,0.4,1,0
,,667f23d046fa0aeeb5153736,66fc990304c12e3f4733d4ad,2024-10-01_18h52.41.794,mdp,2024.2.1,Win32,59.88023952,66fa4ebf79326e780c390304,,,,,,,,,,,,,,,,,,,,,1600.5477,1600.5477,1600.5496,1602.1304,1,0,right,1.0496,,1602.1315,1606.7476,0,0,left,1606.7505,1609.7136,1,0,right,1,1609.7136,1609.7136,1609.7149,1611.2136,0,49,49,49,1,0.4,0.6,0.6,0.4,,,,,,,,,,,,,,,4.0989,,0.6,0.4,0.2,0.8,0.6,0.4,0.2,0.8,,,2.4349,,0.2,0.8,0.6,0.4,0.8,0.2,0.6,0.4,1,0
,,667f23d046fa0aeeb5153736,66fc990304c12e3f4733d4ad,2024-10-01_18h52.41.794,mdp,2024.2.1,Win32,59.88023952,66fa4ebf79326e780c390304,,,,,,,,,,,,,,,,,,,,,,,,,,,,,,,,,,,,,,,,,,,,,,,,,,,,,,,,1611.2139,1669.7136,0,3,3,2,1,imgs/rabbit.png,imgs/elephant.png,imgs/kangaroo.png,imgs/horse.png,imgs/goat.png,,,,,,,,,,,,,,,,,,,,,,,,
,,667f23d046fa0aeeb5153736,66fc990304c12e3f4733d4ad,2024-10-01_18h52.41.794,mdp,2024.2.1,Win32,59.88023952,66fa4ebf79326e780c390304,,,,,,,,,,,,,,1,seqs/st1seq39.csv,1669.7155,1671.8142,space,1.5695,,1671.8212,1671.8212,1671.822,1674.3801,0,1,left,2.0382,,1674.3822,1674.3836,0,1,,1674.3854,1674.3864,1,1,,0,1674.3864,1674.3864,1674.3871,1675.881,0,0,0,0,1,0.2,0.8,0.8,0.2,1,0,,,,,,,,,,,,,,,,,,,,,,,,,,,,,,,,,,,,
,,667f23d046fa0aeeb5153736,66fc990304c12e3f4733d4ad,2024-10-01_18h52.41.794,mdp,2024.2.1,Win32,59.88023952,66fa4ebf79326e780c390304,,,,,,,,,,,,,,,,,,,,,1675.8815,1675.8815,1675.8831,1678.3309,1,0,right,1.9186,,1678.3333,1678.335,0,0,,1678.3368,1678.3375,1,0,,1,1678.3375,1678.3375,1678.3382,1679.83,0,1,1,1,1,0.2,0.8,0.8,0.2,1,0,,,,,,,,,,,,,,,,,,,,,,,,,,,,,,,,,,,,
,,667f23d046fa0aeeb5153736,66fc990304c12e3f4733d4ad,2024-10-01_18h52.41.794,mdp,2024.2.1,Win32,59.88023952,66fa4ebf79326e780c390304,,,,,,,,,,,,,,,,,,,,,1679.8304,1679.8304,1679.832,1681.4638,1,0,right,1.1162,,1681.465,1681.4673,0,0,,1681.4695,1681.47,1,1,,1,1681.4701,1681.4701,1681.4707,1682.9636,0,2,2,2,1,0.2,0.8,0.8,0.2,1,0,,,,,,,,,,,,,,,,,,,,,,,,,,,,,,,,,,,,
,,667f23d046fa0aeeb5153736,66fc990304c12e3f4733d4ad,2024-10-01_18h52.41.794,mdp,2024.2.1,Win32,59.88023952,66fa4ebf79326e780c390304,,,,,,,,,,,,,,,,,,,,,1682.9639,1682.9641,1682.9663,1684.3642,1,1,right,0.8687,,1684.3655,1684.3673,0,0,,1684.3694,1684.3706,1,0,,0,1684.3706,1684.3706,1684.3712,1685.8641,0,3,3,3,1,0.2,0.8,0.8,0.2,1,0,,,,,,,,,,,,,,,,,,,,,,,,,,,,,,,,,,,,
,,667f23d046fa0aeeb5153736,66fc990304c12e3f4733d4ad,2024-10-01_18h52.41.794,mdp,2024.2.1,Win32,59.88023952,66fa4ebf79326e780c390304,,,,,,,,,,,,,,,,,,,,,1685.8644,1685.8644,1685.8664,1687.6804,0,0,left,1.2877,,1687.6817,1687.6834,0,1,,1687.6842,1687.6863,1,0,,1,1687.6864,1687.6864,1687.687,1689.1803,0,4,4,4,1,0.4,0.6,0.6,0.4,1,0,,,,,,,,,,,,,,,,,,,,,,,,,,,,,,,,,,,,
,,667f23d046fa0aeeb5153736,66fc990304c12e3f4733d4ad,2024-10-01_18h52.41.794,mdp,2024.2.1,Win32,59.88023952,66fa4ebf79326e780c390304,,,,,,,,,,,,,,,,,,,,,1689.1812,1689.1812,1689.1835,1690.4976,0,1,left,0.7876,,1690.4997,1690.501,0,1,,1690.503,1690.5039,1,0,,0,1690.5039,1690.5039,1690.5045,1691.9975,0,5,5,5,1,0.4,0.6,0.6,0.4,1,0,,,,,,,,,,,,,,,,,,,,,,,,,,,,,,,,,,,,
,,667f23d046fa0aeeb5153736,66fc990304c12e3f4733d4ad,2024-10-01_18h52.41.794,mdp,2024.2.1,Win32,59.88023952,66fa4ebf79326e780c390304,,,,,,,,,,,,,,,,,,,,,1691.9978,1691.9978,1691.9996,1694.3967,1,1,right,1.8742,,1694.3987,1694.3999,0,0,,1694.4014,1694.4026,1,0,,0,1694.4027,1694.4027,1694.4033,1695.8973,0,6,6,6,1,0.6,0.4,0.8,0.2,1,0,,,,,,,,,,,,,,,,,,,,,,,,,,,,,,,,,,,,
,,667f23d046fa0aeeb5153736,66fc990304c12e3f4733d4ad,2024-10-01_18h52.41.794,mdp,2024.2.1,Win32,59.88023952,66fa4ebf79326e780c390304,,,,,,,,,,,,,,,,,,,,,1695.8976,1695.8976,1695.9006,1697.0135,1,0,right,0.5901,,1697.0156,1697.0177,0,0,,1697.0189,1697.021,1,0,,1,1697.0211,1697.0211,1697.0218,1698.5137,0,7,7,7,1,0.6,0.4,0.8,0.2,1,0,,,,,,,,,,,,,,,,,,,,,,,,,,,,,,,,,,,,
,,667f23d046fa0aeeb5153736,66fc990304c12e3f4733d4ad,2024-10-01_18h52.41.794,mdp,2024.2.1,Win32,59.88023952,66fa4ebf79326e780c390304,,,,,,,,,,,,,,,,,,,,,1698.5142,1698.5142,1698.5165,1699.864,0,1,left,0.8222,,1699.8653,1699.867,0,1,,1699.8689,1699.8703,1,0,,0,1699.8703,1699.8703,1699.8709,1701.3632,0,8,8,8,1,0.4,0.6,0.6,0.4,1,0,,,,,,,,,,,,,,,,,,,,,,,,,,,,,,,,,,,,
,,667f23d046fa0aeeb5153736,66fc990304c12e3f4733d4ad,2024-10-01_18h52.41.794,mdp,2024.2.1,Win32,59.88023952,66fa4ebf79326e780c390304,,,,,,,,,,,,,,,,,,,,,1701.3637,1701.3637,1701.3646,1702.8806,1,0,right,0.9893,,1702.8825,1702.8837,0,0,,1702.8852,1702.8865,1,1,,1,1702.8865,1702.8865,1702.887,1704.3805,0,9,9,9,1,0.4,0.6,0.6,0.4,1,0,,,,,,,,,,,,,,,,,,,,,,,,,,,,,,,,,,,,
,,667f23d046fa0aeeb5153736,66fc990304c12e3f4733d4ad,2024-10-01_18h52.41.794,mdp,2024.2.1,Win32,59.88023952,66fa4ebf79326e780c390304,,,,,,,,,,,,,,,,,,,,,1704.3809,1704.3809,1704.3824,1705.6306,1,1,right,0.7164,,1705.6318,1705.633,0,0,,1705.6344,1705.6367,1,1,,0,1705.6367,1705.6367,1705.6375,1707.1311,0,10,10,10,1,0.4,0.6,0.6,0.4,1,0,,,,,,,,,,,,,,,,,,,,,,,,,,,,,,,,,,,,
,,667f23d046fa0aeeb5153736,66fc990304c12e3f4733d4ad,2024-10-01_18h52.41.794,mdp,2024.2.1,Win32,59.88023952,66fa4ebf79326e780c390304,,,,,,,,,,,,,,,,,,,,,1707.1315,1707.1315,1707.1333,1709.6808,1,0,right,2.0196,,1709.6823,1709.6836,0,1,,1709.6857,1709.6869,1,1,,1,1709.687,1709.687,1709.6877,1711.1804,0,11,11,11,1,0.4,0.6,0.6,0.4,1,0,,,,,,,,,,,,,,,,,,,,,,,,,,,,,,,,,,,,
,,667f23d046fa0aeeb5153736,66fc990304c12e3f4733d4ad,2024-10-01_18h52.41.794,mdp,2024.2.1,Win32,59.88023952,66fa4ebf79326e780c390304,,,,,,,,,,,,,,,,,,,,,1711.1808,1711.1808,1711.1824,1712.9978,0,1,left,1.2904,,1712.9996,1713.0013,0,1,,1713.0035,1713.0043,1,1,,0,1713.0044,1713.0044,1713.0051,1714.4971,0,12,12,12,1,0.4,0.6,0.6,0.4,1,0,,,,,,,,,,,,,,,,,,,,,,,,,,,,,,,,,,,,
,,667f23d046fa0aeeb5153736,66fc990304c12e3f4733d4ad,2024-10-01_18h52.41.794,mdp,2024.2.1,Win32,59.88023952,66fa4ebf79326e780c390304,,,,,,,,,,,,,,,,,,,,,1714.4978,1714.4978,1714.5001,1715.6145,1,0,right,0.606,,1715.6162,1715.6172,0,1,,1715.6191,1715.6205,1,0,,1,1715.6205,1715.6206,1715.6212,1717.1136,0,13,13,13,1,0.4,0.6,0.6,0.4,1,0,,,,,,,,,,,,,,,,,,,,,,,,,,,,,,,,,,,,
,,667f23d046fa0aeeb5153736,66fc990304c12e3f4733d4ad,2024-10-01_18h52.41.794,mdp,2024.2.1,Win32,59.88023952,66fa4ebf79326e780c390304,,,,,,,,,,,,,,,,,,,,,1717.1141,1717.1141,1717.1167,1718.4135,1,0,right,0.7922,,1718.4151,1718.4167,0,0,,1718.4189,1718.4195,1,0,,1,1718.4195,1718.4195,1718.42,1719.9143,0,14,14,14,1,0.4,0.6,0.6,0.4,1,0,,,,,,,,,,,,,,,,,,,,,,,,,,,,,,,,,,,,
,,667f23d046fa0aeeb5153736,66fc990304c12e3f4733d4ad,2024-10-01_18h52.41.794,mdp,2024.2.1,Win32,59.88023952,66fa4ebf79326e780c390304,,,,,,,,,,,,,,,,,,,,,1719.9145,1719.9145,1719.9162,1721.1808,1,1,right,0.7336,,1721.1824,1721.1835,0,0,,1721.1863,1721.1874,1,0,,0,1721.1874,1721.1874,1721.1881,1722.6809,0,15,15,15,1,0.4,0.6,0.6,0.4,1,0,,,,,,,,,,,,,,,,,,,,,,,,,,,,,,,,,,,,
,,667f23d046fa0aeeb5153736,66fc990304c12e3f4733d4ad,2024-10-01_18h52.41.794,mdp,2024.2.1,Win32,59.88023952,66fa4ebf79326e780c390304,,,,,,,,,,,,,,,,,,,,,1722.6813,1722.6813,1722.6831,1723.7805,1,0,right,0.5733,,1723.7817,1723.7827,0,0,,1723.7838,1723.7851,1,0,,1,1723.7852,1723.7852,1723.7865,1725.2803,0,16,16,16,1,0.4,0.6,0.6,0.4,1,0,,,,,,,,,,,,,,,,,,,,,,,,,,,,,,,,,,,,
,,667f23d046fa0aeeb5153736,66fc990304c12e3f4733d4ad,2024-10-01_18h52.41.794,mdp,2024.2.1,Win32,59.88023952,66fa4ebf79326e780c390304,,,,,,,,,,,,,,,,,,,,,1725.2806,1725.2806,1725.2822,1726.3138,1,0,right,0.5013,,1726.3154,1726.3165,0,0,,1726.3188,1726.3199,1,1,,1,1726.3199,1726.3199,1726.3206,1727.8138,0,17,17,17,1,0.4,0.6,0.6,0.4,1,0,,,,,,,,,,,,,,,,,,,,,,,,,,,,,,,,,,,,
,,667f23d046fa0aeeb5153736,66fc990304c12e3f4733d4ad,2024-10-01_18h52.41.794,mdp,2024.2.1,Win32,59.88023952,66fa4ebf79326e780c390304,,,,,,,,,,,,,,,,,,,,,1727.8142,1727.8142,1727.8156,1729.0304,1,0,right,0.6907,,1729.0319,1729.0328,0,0,,1729.0341,1729.0359,1,1,,1,1729.0359,1729.036,1729.0365,1730.5302,0,18,18,18,1,0.4,0.6,0.6,0.4,1,0,,,,,,,,,,,,,,,,,,,,,,,,,,,,,,,,,,,,
,,667f23d046fa0aeeb5153736,66fc990304c12e3f4733d4ad,2024-10-01_18h52.41.794,mdp,2024.2.1,Win32,59.88023952,66fa4ebf79326e780c390304,,,,,,,,,,,,,,,,,,,,,1730.5305,1730.5305,1730.5323,1731.981,1,0,right,0.9409,,1731.9826,1731.9836,0,0,,1731.9856,1731.9872,1,0,,1,1731.9872,1731.9872,1731.9881,1733.4805,0,19,19,19,1,0.4,0.6,0.6,0.4,1,0,,,,,,,,,,,,,,,,,,,,,,,,,,,,,,,,,,,,
,,667f23d046fa0aeeb5153736,66fc990304c12e3f4733d4ad,2024-10-01_18h52.41.794,mdp,2024.2.1,Win32,59.88023952,66fa4ebf79326e780c390304,,,,,,,,,,,,,,,,,,,,,1733.4811,1733.4811,1733.4831,1734.5474,1,0,right,0.5418,,1734.5494,1734.5512,0,1,,1734.5527,1734.5533,1,1,,1,1734.5534,1734.5534,1734.554,1736.0468,0,20,20,20,1,0.6,0.4,0.4,0.6,1,0,,,,,,,,,,,,,,,,,,,,,,,,,,,,,,,,,,,,
,,667f23d046fa0aeeb5153736,66fc990304c12e3f4733d4ad,2024-10-01_18h52.41.794,mdp,2024.2.1,Win32,59.88023952,66fa4ebf79326e780c390304,,,,,,,,,,,,,,,,,,,,,1736.0471,1736.0471,1736.0494,1737.0638,1,0,right,0.4839,,1737.0652,1737.0663,0,0,,1737.0691,1737.0703,1,1,,1,1737.0703,1737.0703,1737.0709,1738.5639,0,21,21,21,1,0.4,0.6,0.6,0.4,1,0,,,,,,,,,,,,,,,,,,,,,,,,,,,,,,,,,,,,
,,667f23d046fa0aeeb5153736,66fc990304c12e3f4733d4ad,2024-10-01_18h52.41.794,mdp,2024.2.1,Win32,59.88023952,66fa4ebf79326e780c390304,,,,,,,,,,,,,,,,,,,,,1738.5643,1738.5643,1738.5659,1739.6807,1,0,right,0.5821,,1739.6822,1739.6831,0,0,,1739.6847,1739.6861,1,1,,1,1739.6862,1739.6862,1739.6866,1741.1805,0,22,22,22,1,0.4,0.6,0.6,0.4,1,0,,,,,,,,,,,,,,,,,,,,,,,,,,,,,,,,,,,,
,,667f23d046fa0aeeb5153736,66fc990304c12e3f4733d4ad,2024-10-01_18h52.41.794,mdp,2024.2.1,Win32,59.88023952,66fa4ebf79326e780c390304,,,,,,,,,,,,,,,,,,,,,1741.181,1741.181,1741.1824,1742.2139,1,1,right,0.5063,,1742.2152,1742.2162,0,1,,1742.2175,1742.2197,1,1,,0,1742.2197,1742.2198,1742.2205,1743.7139,0,23,23,23,1,0.4,0.6,0.6,0.4,1,0,,,,,,,,,,,,,,,,,,,,,,,,,,,,,,,,,,,,
,,667f23d046fa0aeeb5153736,66fc990304c12e3f4733d4ad,2024-10-01_18h52.41.794,mdp,2024.2.1,Win32,59.88023952,66fa4ebf79326e780c390304,,,,,,,,,,,,,,,,,,,,,1743.7142,1743.7142,1743.7159,1745.0304,1,1,right,0.7907,,1745.032,1745.0333,0,1,,1745.0351,1745.0366,1,1,,0,1745.0366,1745.0366,1745.0374,1746.5313,0,24,24,24,1,0.4,0.6,0.6,0.4,1,0,,,,,,,,,,,,,,,,,,,,,,,,,,,,,,,,,,,,
,,667f23d046fa0aeeb5153736,66fc990304c12e3f4733d4ad,2024-10-01_18h52.41.794,mdp,2024.2.1,Win32,59.88023952,66fa4ebf79326e780c390304,,,,,,,,,,,,,,,,,,,,,1746.5319,1746.5319,1746.5335,1747.5476,1,0,right,0.4842,,1747.5511,1747.5522,0,0,,1747.5539,1747.5546,1,0,,1,1747.5546,1747.5546,1747.5553,1749.0476,0,25,25,25,1,0.6,0.4,0.8,0.2,1,0,,,,,,,,,,,,,,,,,,,,,,,,,,,,,,,,,,,,
,,667f23d046fa0aeeb5153736,66fc990304c12e3f4733d4ad,2024-10-01_18h52.41.794,mdp,2024.2.1,Win32,59.88023952,66fa4ebf79326e780c390304,,,,,,,,,,,,,,,,,,,,,1749.048,1749.048,1749.0499,1750.1974,1,0,right,0.6178,,1750.1994,1750.2013,0,0,,1750.2034,1750.2042,1,0,,1,1750.2043,1750.2043,1750.2049,1751.6972,0,26,26,26,1,0.6,0.4,0.8,0.2,1,0,,,,,,,,,,,,,,,,,,,,,,,,,,,,,,,,,,,,
,,667f23d046fa0aeeb5153736,66fc990304c12e3f4733d4ad,2024-10-01_18h52.41.794,mdp,2024.2.1,Win32,59.88023952,66fa4ebf79326e780c390304,,,,,,,,,,,,,,,,,,,,,1751.6976,1751.6976,1751.6992,1752.7147,1,0,right,0.5013,,1752.7162,1752.7177,0,1,,1752.7191,1752.7203,1,0,,1,1752.7203,1752.7203,1752.7208,1754.2138,0,27,27,27,1,0.6,0.4,0.8,0.2,1,0,,,,,,,,,,,,,,,,,,,,,,,,,,,,,,,,,,,,
,,667f23d046fa0aeeb5153736,66fc990304c12e3f4733d4ad,2024-10-01_18h52.41.794,mdp,2024.2.1,Win32,59.88023952,66fa4ebf79326e780c390304,,,,,,,,,,,,,,,,,,,,,1754.2142,1754.2142,1754.2161,1755.1815,1,0,right,0.4337,,1755.1833,1755.1852,0,0,,1755.187,1755.1878,1,0,,1,1755.1878,1755.1878,1755.1883,1756.6806,0,28,28,28,1,0.6,0.4,0.8,0.2,1,0,,,,,,,,,,,,,,,,,,,,,,,,,,,,,,,,,,,,
,,667f23d046fa0aeeb5153736,66fc990304c12e3f4733d4ad,2024-10-01_18h52.41.794,mdp,2024.2.1,Win32,59.88023952,66fa4ebf79326e780c390304,,,,,,,,,,,,,,,,,,,,,1756.6809,1756.6809,1756.6826,1757.7977,1,1,right,0.5921,,1757.7994,1757.8001,0,0,,1757.8018,1757.8035,1,0,,0,1757.8036,1757.8036,1757.8043,1759.2992,0,29,29,29,1,0.6,0.4,0.8,0.2,1,0,,,,,,,,,,,,,,,,,,,,,,,,,,,,,,,,,,,,
,,667f23d046fa0aeeb5153736,66fc990304c12e3f4733d4ad,2024-10-01_18h52.41.794,mdp,2024.2.1,Win32,59.88023952,66fa4ebf79326e780c390304,,,,,,,,,,,,,,,,,,,,,1759.2997,1759.2997,1759.3018,1760.4313,1,0,right,0.6078,,1760.433,1760.4343,0,0,,1760.4364,1760.4375,1,0,,1,1760.4375,1760.4375,1760.4383,1761.9309,0,30,30,30,1,0.6,0.4,0.8,0.2,1,0,,,,,,,,,,,,,,,,,,,,,,,,,,,,,,,,,,,,
,,667f23d046fa0aeeb5153736,66fc990304c12e3f4733d4ad,2024-10-01_18h52.41.794,mdp,2024.2.1,Win32,59.88023952,66fa4ebf79326e780c390304,,,,,,,,,,,,,,,,,,,,,1761.9312,1761.9315,1761.933,1762.9485,1,0,right,0.4861,,1762.9505,1762.9523,0,0,,1762.9538,1762.9546,1,1,,1,1762.9546,1762.9546,1762.9553,1764.4481,0,31,31,31,1,0.8,0.2,0.4,0.6,1,0,,,,,,,,,,,,,,,,,,,,,,,,,,,,,,,,,,,,
,,667f23d046fa0aeeb5153736,66fc990304c12e3f4733d4ad,2024-10-01_18h52.41.794,mdp,2024.2.1,Win32,59.88023952,66fa4ebf79326e780c390304,,,,,,,,,,,,,,,,,,,,,1764.4488,1764.4488,1764.4506,1765.4807,1,1,right,0.5007,,1765.4823,1765.4834,0,1,,1765.4859,1765.4873,1,1,,0,1765.4873,1765.4873,1765.4884,1766.9806,0,32,32,32,1,0.8,0.2,0.4,0.6,1,0,,,,,,,,,,,,,,,,,,,,,,,,,,,,,,,,,,,,
,,667f23d046fa0aeeb5153736,66fc990304c12e3f4733d4ad,2024-10-01_18h52.41.794,mdp,2024.2.1,Win32,59.88023952,66fa4ebf79326e780c390304,,,,,,,,,,,,,,,,,,,,,1766.9811,1766.9811,1766.9828,1768.3313,1,0,right,0.8162,,1768.3328,1768.3338,0,1,,1768.3352,1768.3369,1,0,,1,1768.3369,1768.3369,1768.3375,1769.8312,0,33,33,33,1,0.8,0.2,0.4,0.6,1,0,,,,,,,,,,,,,,,,,,,,,,,,,,,,,,,,,,,,
,,667f23d046fa0aeeb5153736,66fc990304c12e3f4733d4ad,2024-10-01_18h52.41.794,mdp,2024.2.1,Win32,59.88023952,66fa4ebf79326e780c390304,,,,,,,,,,,,,,,,,,,,,1769.8316,1769.8316,1769.8339,1771.1809,1,0,right,0.8264,,1771.1823,1771.1833,0,0,,1771.1848,1771.1863,1,0,,1,1771.1863,1771.1863,1771.1868,1772.6806,0,34,34,34,1,0.6,0.4,0.8,0.2,1,0,,,,,,,,,,,,,,,,,,,,,,,,,,,,,,,,,,,,
,,667f23d046fa0aeeb5153736,66fc990304c12e3f4733d4ad,2024-10-01_18h52.41.794,mdp,2024.2.1,Win32,59.88023952,66fa4ebf79326e780c390304,,,,,,,,,,,,,,,,,,,,,1772.681,1772.681,1772.683,1773.897,1,0,right,0.7038,,1773.8994,1773.9008,0,0,,1773.9028,1773.9036,1,0,,1,1773.9036,1773.9036,1773.9043,1775.3972,0,35,35,35,1,0.6,0.4,0.8,0.2,1,0,,,,,,,,,,,,,,,,,,,,,,,,,,,,,,,,,,,,
,,667f23d046fa0aeeb5153736,66fc990304c12e3f4733d4ad,2024-10-01_18h52.41.794,mdp,2024.2.1,Win32,59.88023952,66fa4ebf79326e780c390304,,,,,,,,,,,,,,,,,,,,,1775.3975,1775.3975,1775.3993,1776.4972,1,1,right,0.569,,1776.4992,1776.5008,0,0,,1776.5025,1776.5032,1,0,,0,1776.5032,1776.5032,1776.5038,1777.998,0,36,36,36,1,0.6,0.4,0.8,0.2,1,0,,,,,,,,,,,,,,,,,,,,,,,,,,,,,,,,,,,,
,,667f23d046fa0aeeb5153736,66fc990304c12e3f4733d4ad,2024-10-01_18h52.41.794,mdp,2024.2.1,Win32,59.88023952,66fa4ebf79326e780c390304,,,,,,,,,,,,,,,,,,,,,1777.9986,1777.9986,1778.0004,1779.2805,1,0,right,0.7659,,1779.2819,1779.283,0,0,,1779.2842,1779.286,1,0,,1,1779.286,1779.286,1779.2865,1780.7801,0,37,37,37,1,0.6,0.4,0.8,0.2,1,0,,,,,,,,,,,,,,,,,,,,,,,,,,,,,,,,,,,,
,,667f23d046fa0aeeb5153736,66fc990304c12e3f4733d4ad,2024-10-01_18h52.41.794,mdp,2024.2.1,Win32,59.88023952,66fa4ebf79326e780c390304,,,,,,,,,,,,,,,,,,,,,1780.7804,1780.7804,1780.782,1782.0313,1,0,right,0.7326,,1782.0333,1782.0342,0,0,,1782.0354,1782.0368,1,1,,1,1782.0368,1782.0368,1782.0375,1783.5306,0,38,38,38,1,0.6,0.4,0.8,0.2,1,0,,,,,,,,,,,,,,,,,,,,,,,,,,,,,,,,,,,,
,,667f23d046fa0aeeb5153736,66fc990304c12e3f4733d4ad,2024-10-01_18h52.41.794,mdp,2024.2.1,Win32,59.88023952,66fa4ebf79326e780c390304,,,,,,,,,,,,,,,,,,,,,1783.5311,1783.5311,1783.5331,1784.9473,1,0,right,0.892,,1784.9488,1784.95,0,1,,1784.9518,1784.9529,1,0,,1,1784.9529,1784.9529,1784.9535,1786.4473,0,39,39,39,1,0.6,0.4,0.8,0.2,1,0,,,,,,,,,,,,,,,,,,,,,,,,,,,,,,,,,,,,
