init_exp.started,init_exp.stopped,participant,session,date,expName,psychopyVersion,OS,frameRate,study_id,disp_instruction.started,disp_instruction.stopped,instruction.thisRepN,instruction.thisTrialN,instruction.thisN,instruction.thisIndex,instruction.ran,instimg_path,consent.started,consent.stopped,key_resp_3.keys,key_resp_3.rt,key_resp_3.duration,n_steps,sequence_path,init_block.started,init_block.stopped,key_resp.keys,key_resp.rt,key_resp.duration,init_trials.started,init_trials.stopped,step0.started,step0.stopped,act0,s1,res0.keys,res0.rt,res0.duration,step1.started,step1.stopped,act1,s2,res1.keys,step2.started,step2.stopped,act2,s3,res2.keys,rew,reward_comp.started,reward_comp.stopped,reward_disp.started,reward_disp.stopped,trials.thisRepN,trials.thisTrialN,trials.thisN,trials.thisIndex,trials.ran,s00a0s10,s00a0s11,s00a1s10,s00a1s11,rew10,rew11,break_block.started,break_block.stopped,block.thisRepN,block.thisTrialN,block.thisN,block.thisIndex,block.ran,s00path,s10path,s11path,s20path,s21path,res1.rt,res1.duration,s10a0s20,s10a0s21,s10a1s20,s10a1s21,s11a0s20,s11a0s21,s11a1s20,s11a1s21,rew20,rew21,res2.rt,res2.duration,s20a0s30,s20a0s31,s20a1s30,s20a1s31,s21a0s30,s21a0s31,s21a1s30,s21a1s31,rew30,rew31
0.001,0.002,6681e779f60d20a3b2b27bb3,66fc97fb6b85299257412df2,2024-10-01_21h47.32.747,mdp,2024.2.1,MacIntel,32.25806452,66fa4ebf79326e780c390304,,,,,,,,,,,,,,,,,,,,,,,,,,,,,,,,,,,,,,,,,,,,,,,,,,,,,,,,,,,,,,,,,,,,,,,,,,,,,,,,,,,,,,,,,,,
,,6681e779f60d20a3b2b27bb3,66fc97fb6b85299257412df2,2024-10-01_21h47.32.747,mdp,2024.2.1,MacIntel,32.25806452,66fa4ebf79326e780c390304,0.009,31.537,0,0,0,0,1,rlnn_exp/rlnn_exp.001.png,,,,,,,,,,,,,,,,,,,,,,,,,,,,,,,,,,,,,,,,,,,,,,,,,,,,,,,,,,,,,,,,,,,,,,,,,,,,,,,,,,,
,,6681e779f60d20a3b2b27bb3,66fc97fb6b85299257412df2,2024-10-01_21h47.32.747,mdp,2024.2.1,MacIntel,32.25806452,66fa4ebf79326e780c390304,31.538,43.487,0,1,1,1,1,rlnn_exp/rlnn_exp.002.png,,,,,,,,,,,,,,,,,,,,,,,,,,,,,,,,,,,,,,,,,,,,,,,,,,,,,,,,,,,,,,,,,,,,,,,,,,,,,,,,,,,
,,6681e779f60d20a3b2b27bb3,66fc97fb6b85299257412df2,2024-10-01_21h47.32.747,mdp,2024.2.1,MacIntel,32.25806452,66fa4ebf79326e780c390304,43.487,55.438,0,2,2,2,1,rlnn_exp/rlnn_exp.003.png,,,,,,,,,,,,,,,,,,,,,,,,,,,,,,,,,,,,,,,,,,,,,,,,,,,,,,,,,,,,,,,,,,,,,,,,,,,,,,,,,,,
,,6681e779f60d20a3b2b27bb3,66fc97fb6b85299257412df2,2024-10-01_21h47.32.747,mdp,2024.2.1,MacIntel,32.25806452,66fa4ebf79326e780c390304,55.44,66.055,0,3,3,3,1,rlnn_exp/rlnn_exp.004.png,,,,,,,,,,,,,,,,,,,,,,,,,,,,,,,,,,,,,,,,,,,,,,,,,,,,,,,,,,,,,,,,,,,,,,,,,,,,,,,,,,,
,,6681e779f60d20a3b2b27bb3,66fc97fb6b85299257412df2,2024-10-01_21h47.32.747,mdp,2024.2.1,MacIntel,32.25806452,66fa4ebf79326e780c390304,,,,,,,,,66.059,76.872,y,0.78,,,,,,,,,,,,,,,,,,,,,,,,,,,,,,,,,,,,,,,,,,,,,,,,,,,,,,,,,,,,,,,,,,,,,,,,,,,,,,,
,,6681e779f60d20a3b2b27bb3,66fc97fb6b85299257412df2,2024-10-01_21h47.32.747,mdp,2024.2.1,MacIntel,32.25806452,66fa4ebf79326e780c390304,,,,,,,,,,,,,,1,seqs/st1seq45.csv,76.88,79.356,space,1.95,,79.362,79.362,79.363,82.188,0,0,left,2.292,,82.189,82.191,,0,,82.191,82.193,,0,,1,82.193,82.193,82.194,83.689,0,0,0,0,1,0.8,0.2,0.8,0.2,1,0,,,,,,,,,,,,,,,,,,,,,,,,,,,,,,,,,,,,
,,6681e779f60d20a3b2b27bb3,66fc97fb6b85299257412df2,2024-10-01_21h47.32.747,mdp,2024.2.1,MacIntel,32.25806452,66fa4ebf79326e780c390304,,,,,,,,,,,,,,,,,,,,,83.69,83.69,83.692,85.772,0,1,left,1.55,,85.774,85.777,,0,,85.779,85.781,,1,,0,85.781,85.781,85.782,87.272,0,1,1,1,1,0.8,0.2,0.8,0.2,1,0,,,,,,,,,,,,,,,,,,,,,,,,,,,,,,,,,,,,
,,6681e779f60d20a3b2b27bb3,66fc97fb6b85299257412df2,2024-10-01_21h47.32.747,mdp,2024.2.1,MacIntel,32.25806452,66fa4ebf79326e780c390304,,,,,,,,,,,,,,,,,,,,,87.273,87.273,87.275,88.789,0,0,left,0.985,,88.791,88.795,,0,,88.797,88.798,,0,,1,88.798,88.798,88.798,90.289,0,2,2,2,1,0.8,0.2,0.8,0.2,1,0,,,,,,,,,,,,,,,,,,,,,,,,,,,,,,,,,,,,
,,6681e779f60d20a3b2b27bb3,66fc97fb6b85299257412df2,2024-10-01_21h47.32.747,mdp,2024.2.1,MacIntel,32.25806452,66fa4ebf79326e780c390304,,,,,,,,,,,,,,,,,,,,,90.29,90.29,90.291,91.305,1,0,right,0.482,,91.31,91.311,,1,,91.313,91.314,,0,,1,91.314,91.314,91.314,92.806,0,3,3,3,1,0.8,0.2,0.8,0.2,1,0,,,,,,,,,,,,,,,,,,,,,,,,,,,,,,,,,,,,
,,6681e779f60d20a3b2b27bb3,66fc97fb6b85299257412df2,2024-10-01_21h47.32.747,mdp,2024.2.1,MacIntel,32.25806452,66fa4ebf79326e780c390304,,,,,,,,,,,,,,,,,,,,,92.807,92.808,92.81,93.756,0,1,left,0.419,,93.758,93.76,,0,,93.761,93.762,,0,,0,93.762,93.762,93.763,95.256,0,4,4,4,1,0.6,0.4,0.6,0.4,1,0,,,,,,,,,,,,,,,,,,,,,,,,,,,,,,,,,,,,
,,6681e779f60d20a3b2b27bb3,66fc97fb6b85299257412df2,2024-10-01_21h47.32.747,mdp,2024.2.1,MacIntel,32.25806452,66fa4ebf79326e780c390304,,,,,,,,,,,,,,,,,,,,,95.257,95.257,95.258,96.422,0,1,left,0.635,,96.424,96.427,,0,,96.429,96.43,,1,,0,96.43,96.43,96.43,97.922,0,5,5,5,1,0.6,0.4,0.6,0.4,1,0,,,,,,,,,,,,,,,,,,,,,,,,,,,,,,,,,,,,
,,6681e779f60d20a3b2b27bb3,66fc97fb6b85299257412df2,2024-10-01_21h47.32.747,mdp,2024.2.1,MacIntel,32.25806452,66fa4ebf79326e780c390304,,,,,,,,,,,,,,,,,,,,,97.923,97.923,97.925,98.756,0,0,left,0.307,,98.757,98.759,,0,,98.76,98.762,,1,,1,98.762,98.762,98.762,100.256,0,6,6,6,1,0.6,0.4,0.6,0.4,1,0,,,,,,,,,,,,,,,,,,,,,,,,,,,,,,,,,,,,
,,6681e779f60d20a3b2b27bb3,66fc97fb6b85299257412df2,2024-10-01_21h47.32.747,mdp,2024.2.1,MacIntel,32.25806452,66fa4ebf79326e780c390304,,,,,,,,,,,,,,,,,,,,,100.257,100.257,100.259,101.072,1,0,right,0.284,,101.074,101.077,,1,,101.078,101.08,,0,,1,101.08,101.08,101.081,102.572,0,7,7,7,1,0.6,0.4,0.6,0.4,1,0,,,,,,,,,,,,,,,,,,,,,,,,,,,,,,,,,,,,
,,6681e779f60d20a3b2b27bb3,66fc97fb6b85299257412df2,2024-10-01_21h47.32.747,mdp,2024.2.1,MacIntel,32.25806452,66fa4ebf79326e780c390304,,,,,,,,,,,,,,,,,,,,,102.573,102.574,102.576,103.389,1,0,right,0.289,,103.392,103.394,,0,,103.395,103.396,,0,,1,103.396,103.396,103.397,104.889,0,8,8,8,1,0.8,0.2,0.8,0.2,1,0,,,,,,,,,,,,,,,,,,,,,,,,,,,,,,,,,,,,
,,6681e779f60d20a3b2b27bb3,66fc97fb6b85299257412df2,2024-10-01_21h47.32.747,mdp,2024.2.1,MacIntel,32.25806452,66fa4ebf79326e780c390304,,,,,,,,,,,,,,,,,,,,,104.89,104.89,104.892,105.972,1,1,right,0.559,,105.974,105.976,,0,,105.977,105.978,,0,,0,105.978,105.978,105.979,107.473,0,9,9,9,1,0.8,0.2,0.8,0.2,1,0,,,,,,,,,,,,,,,,,,,,,,,,,,,,,,,,,,,,
,,6681e779f60d20a3b2b27bb3,66fc97fb6b85299257412df2,2024-10-01_21h47.32.747,mdp,2024.2.1,MacIntel,32.25806452,66fa4ebf79326e780c390304,,,,,,,,,,,,,,,,,,,,,107.474,107.474,107.475,108.323,1,0,right,0.324,,108.324,108.327,,0,,108.327,108.328,,0,,1,108.328,108.328,108.329,109.823,0,10,10,10,1,0.8,0.2,0.8,0.2,1,0,,,,,,,,,,,,,,,,,,,,,,,,,,,,,,,,,,,,
,,6681e779f60d20a3b2b27bb3,66fc97fb6b85299257412df2,2024-10-01_21h47.32.747,mdp,2024.2.1,MacIntel,32.25806452,66fa4ebf79326e780c390304,,,,,,,,,,,,,,,,,,,,,109.824,109.824,109.826,110.673,0,1,left,0.326,,110.675,110.676,,0,,110.678,110.679,,0,,0,110.679,110.679,110.679,112.173,0,11,11,11,1,0.8,0.2,0.8,0.2,1,0,,,,,,,,,,,,,,,,,,,,,,,,,,,,,,,,,,,,
,,6681e779f60d20a3b2b27bb3,66fc97fb6b85299257412df2,2024-10-01_21h47.32.747,mdp,2024.2.1,MacIntel,32.25806452,66fa4ebf79326e780c390304,,,,,,,,,,,,,,,,,,,,,112.174,112.174,112.175,112.989,0,0,left,0.285,,112.991,112.993,,0,,112.994,112.996,,1,,1,112.996,112.996,112.996,114.49,0,12,12,12,1,0.8,0.2,0.8,0.2,1,0,,,,,,,,,,,,,,,,,,,,,,,,,,,,,,,,,,,,
,,6681e779f60d20a3b2b27bb3,66fc97fb6b85299257412df2,2024-10-01_21h47.32.747,mdp,2024.2.1,MacIntel,32.25806452,66fa4ebf79326e780c390304,,,,,,,,,,,,,,,,,,,,,114.49,114.49,114.491,115.306,0,0,left,0.287,,115.308,115.31,,0,,115.311,115.313,,1,,1,115.313,115.313,115.314,116.805,0,13,13,13,1,0.8,0.2,0.8,0.2,1,0,,,,,,,,,,,,,,,,,,,,,,,,,,,,,,,,,,,,
,,6681e779f60d20a3b2b27bb3,66fc97fb6b85299257412df2,2024-10-01_21h47.32.747,mdp,2024.2.1,MacIntel,32.25806452,66fa4ebf79326e780c390304,,,,,,,,,,,,,,,,,,,,,116.806,116.806,116.807,117.623,1,0,right,0.305,,117.625,117.627,,0,,117.628,117.629,,0,,1,117.629,117.629,117.63,119.123,0,14,14,14,1,0.8,0.2,0.8,0.2,1,0,,,,,,,,,,,,,,,,,,,,,,,,,,,,,,,,,,,,
,,6681e779f60d20a3b2b27bb3,66fc97fb6b85299257412df2,2024-10-01_21h47.32.747,mdp,2024.2.1,MacIntel,32.25806452,66fa4ebf79326e780c390304,,,,,,,,,,,,,,,,,,,,,119.124,119.124,119.125,120.14,1,1,right,0.49,,120.142,120.143,,1,,120.145,120.146,,0,,0,120.146,120.146,120.146,121.64,0,15,15,15,1,0.8,0.2,0.8,0.2,1,0,,,,,,,,,,,,,,,,,,,,,,,,,,,,,,,,,,,,
,,6681e779f60d20a3b2b27bb3,66fc97fb6b85299257412df2,2024-10-01_21h47.32.747,mdp,2024.2.1,MacIntel,32.25806452,66fa4ebf79326e780c390304,,,,,,,,,,,,,,,,,,,,,121.64,121.64,121.642,122.49,0,0,left,0.319,,122.492,122.494,,0,,122.495,122.497,,0,,1,122.497,122.497,122.498,123.99,0,16,16,16,1,0.6,0.4,0.4,0.6,1,0,,,,,,,,,,,,,,,,,,,,,,,,,,,,,,,,,,,,
,,6681e779f60d20a3b2b27bb3,66fc97fb6b85299257412df2,2024-10-01_21h47.32.747,mdp,2024.2.1,MacIntel,32.25806452,66fa4ebf79326e780c390304,,,,,,,,,,,,,,,,,,,,,123.991,123.991,123.994,124.756,0,0,left,0.244,,124.758,124.76,,1,,124.762,124.762,,0,,1,124.762,124.762,124.763,126.256,0,17,17,17,1,0.6,0.4,0.4,0.6,1,0,,,,,,,,,,,,,,,,,,,,,,,,,,,,,,,,,,,,
,,6681e779f60d20a3b2b27bb3,66fc97fb6b85299257412df2,2024-10-01_21h47.32.747,mdp,2024.2.1,MacIntel,32.25806452,66fa4ebf79326e780c390304,,,,,,,,,,,,,,,,,,,,,126.257,126.257,126.258,127.106,0,1,left,0.315,,127.107,127.109,,1,,127.11,127.112,,0,,0,127.112,127.112,127.113,128.607,0,18,18,18,1,0.6,0.4,0.4,0.6,1,0,,,,,,,,,,,,,,,,,,,,,,,,,,,,,,,,,,,,
,,6681e779f60d20a3b2b27bb3,66fc97fb6b85299257412df2,2024-10-01_21h47.32.747,mdp,2024.2.1,MacIntel,32.25806452,66fa4ebf79326e780c390304,,,,,,,,,,,,,,,,,,,,,128.608,128.608,128.609,129.157,0,1,left,0.019,,129.159,129.161,,1,,129.162,129.162,,1,,0,129.162,129.162,129.162,130.658,0,19,19,19,1,0.6,0.4,0.4,0.6,1,0,,,,,,,,,,,,,,,,,,,,,,,,,,,,,,,,,,,,
,,6681e779f60d20a3b2b27bb3,66fc97fb6b85299257412df2,2024-10-01_21h47.32.747,mdp,2024.2.1,MacIntel,32.25806452,66fa4ebf79326e780c390304,,,,,,,,,,,,,,,,,,,,,130.658,130.658,130.66,131.44,0,1,left,0.255,,131.442,131.444,,0,,131.445,131.446,,1,,0,131.446,131.447,131.447,132.94,0,20,20,20,1,0.2,0.8,0.8,0.2,1,0,,,,,,,,,,,,,,,,,,,,,,,,,,,,,,,,,,,,
,,6681e779f60d20a3b2b27bb3,66fc97fb6b85299257412df2,2024-10-01_21h47.32.747,mdp,2024.2.1,MacIntel,32.25806452,66fa4ebf79326e780c390304,,,,,,,,,,,,,,,,,,,,,132.941,132.941,132.943,133.857,0,1,left,0.385,,133.86,133.862,,1,,133.862,133.864,,1,,0,133.864,133.864,133.864,135.357,0,21,21,21,1,0.2,0.8,0.8,0.2,1,0,,,,,,,,,,,,,,,,,,,,,,,,,,,,,,,,,,,,
,,6681e779f60d20a3b2b27bb3,66fc97fb6b85299257412df2,2024-10-01_21h47.32.747,mdp,2024.2.1,MacIntel,32.25806452,66fa4ebf79326e780c390304,,,,,,,,,,,,,,,,,,,,,135.358,135.358,135.36,136.19,0,1,left,0.299,,136.192,136.194,,0,,136.195,136.196,,1,,0,136.196,136.196,136.197,137.69,0,22,22,22,1,0.2,0.8,0.8,0.2,1,0,,,,,,,,,,,,,,,,,,,,,,,,,,,,,,,,,,,,
,,6681e779f60d20a3b2b27bb3,66fc97fb6b85299257412df2,2024-10-01_21h47.32.747,mdp,2024.2.1,MacIntel,32.25806452,66fa4ebf79326e780c390304,,,,,,,,,,,,,,,,,,,,,137.692,137.692,137.694,138.54,0,1,left,0.327,,138.541,138.541,,1,,138.542,138.543,,1,,0,138.543,138.543,138.544,140.041,0,23,23,23,1,0.2,0.8,0.8,0.2,1,0,,,,,,,,,,,,,,,,,,,,,,,,,,,,,,,,,,,,
,,6681e779f60d20a3b2b27bb3,66fc97fb6b85299257412df2,2024-10-01_21h47.32.747,mdp,2024.2.1,MacIntel,32.25806452,66fa4ebf79326e780c390304,,,,,,,,,,,,,,,,,,,,,140.041,140.042,140.043,140.906,0,1,left,0.336,,140.908,140.911,,1,,140.911,140.912,,1,,0,140.912,140.912,140.912,142.407,0,24,24,24,1,0.2,0.8,0.8,0.2,1,0,,,,,,,,,,,,,,,,,,,,,,,,,,,,,,,,,,,,
,,6681e779f60d20a3b2b27bb3,66fc97fb6b85299257412df2,2024-10-01_21h47.32.747,mdp,2024.2.1,MacIntel,32.25806452,66fa4ebf79326e780c390304,,,,,,,,,,,,,,,,,,,,,142.408,142.408,142.409,143.174,1,0,right,0.239,,143.176,143.178,,1,,143.179,143.18,,1,,1,143.18,143.18,143.181,144.677,0,25,25,25,1,0.4,0.6,0.6,0.4,1,0,,,,,,,,,,,,,,,,,,,,,,,,,,,,,,,,,,,,
,,6681e779f60d20a3b2b27bb3,66fc97fb6b85299257412df2,2024-10-01_21h47.32.747,mdp,2024.2.1,MacIntel,32.25806452,66fa4ebf79326e780c390304,,,,,,,,,,,,,,,,,,,,,144.678,144.678,144.68,145.474,1,0,right,0.273,,145.476,145.478,,1,,145.479,145.479,,1,,1,145.479,145.479,145.48,146.974,0,26,26,26,1,0.4,0.6,0.6,0.4,1,0,,,,,,,,,,,,,,,,,,,,,,,,,,,,,,,,,,,,
,,6681e779f60d20a3b2b27bb3,66fc97fb6b85299257412df2,2024-10-01_21h47.32.747,mdp,2024.2.1,MacIntel,32.25806452,66fa4ebf79326e780c390304,,,,,,,,,,,,,,,,,,,,,146.975,146.975,146.976,147.774,1,1,right,0.274,,147.776,147.777,,1,,147.778,147.778,,0,,0,147.778,147.778,147.779,149.273,0,27,27,27,1,0.6,0.4,0.4,0.6,1,0,,,,,,,,,,,,,,,,,,,,,,,,,,,,,,,,,,,,
,,6681e779f60d20a3b2b27bb3,66fc97fb6b85299257412df2,2024-10-01_21h47.32.747,mdp,2024.2.1,MacIntel,32.25806452,66fa4ebf79326e780c390304,,,,,,,,,,,,,,,,,,,,,149.274,149.274,149.276,149.974,0,1,left,0.192,,149.976,149.977,,1,,149.978,149.979,,1,,0,149.979,149.979,149.98,151.474,0,28,28,28,1,0.4,0.6,0.6,0.4,1,0,,,,,,,,,,,,,,,,,,,,,,,,,,,,,,,,,,,,
,,6681e779f60d20a3b2b27bb3,66fc97fb6b85299257412df2,2024-10-01_21h47.32.747,mdp,2024.2.1,MacIntel,32.25806452,66fa4ebf79326e780c390304,,,,,,,,,,,,,,,,,,,,,151.475,151.475,151.477,152.258,0,1,left,0.255,,152.259,152.261,,1,,152.262,152.263,,0,,0,152.263,152.263,152.264,153.758,0,29,29,29,1,0.4,0.6,0.6,0.4,1,0,,,,,,,,,,,,,,,,,,,,,,,,,,,,,,,,,,,,
,,6681e779f60d20a3b2b27bb3,66fc97fb6b85299257412df2,2024-10-01_21h47.32.747,mdp,2024.2.1,MacIntel,32.25806452,66fa4ebf79326e780c390304,,,,,,,,,,,,,,,,,,,,,153.759,153.759,153.76,154.557,1,0,right,0.275,,154.56,154.561,,1,,154.562,154.562,,1,,1,154.562,154.562,154.562,156.058,0,30,30,30,1,0.4,0.6,0.6,0.4,1,0,,,,,,,,,,,,,,,,,,,,,,,,,,,,,,,,,,,,
,,6681e779f60d20a3b2b27bb3,66fc97fb6b85299257412df2,2024-10-01_21h47.32.747,mdp,2024.2.1,MacIntel,32.25806452,66fa4ebf79326e780c390304,,,,,,,,,,,,,,,,,,,,,156.059,156.059,156.061,156.84,1,1,right,0.26,,156.842,156.843,,1,,156.844,156.844,,1,,0,156.844,156.844,156.845,158.341,0,31,31,31,1,0.4,0.6,0.6,0.4,1,0,,,,,,,,,,,,,,,,,,,,,,,,,,,,,,,,,,,,
,,6681e779f60d20a3b2b27bb3,66fc97fb6b85299257412df2,2024-10-01_21h47.32.747,mdp,2024.2.1,MacIntel,32.25806452,66fa4ebf79326e780c390304,,,,,,,,,,,,,,,,,,,,,158.342,158.342,158.343,159.124,0,0,left,0.258,,159.126,159.128,,0,,159.129,159.131,,0,,1,159.131,159.131,159.132,160.624,0,32,32,32,1,0.4,0.6,0.6,0.4,1,0,,,,,,,,,,,,,,,,,,,,,,,,,,,,,,,,,,,,
,,6681e779f60d20a3b2b27bb3,66fc97fb6b85299257412df2,2024-10-01_21h47.32.747,mdp,2024.2.1,MacIntel,32.25806452,66fa4ebf79326e780c390304,,,,,,,,,,,,,,,,,,,,,160.625,160.625,160.627,161.458,0,0,left,0.307,,161.459,161.461,,1,,161.462,161.463,,1,,1,161.463,161.463,161.464,162.958,0,33,33,33,1,0.4,0.6,0.6,0.4,1,0,,,,,,,,,,,,,,,,,,,,,,,,,,,,,,,,,,,,
,,6681e779f60d20a3b2b27bb3,66fc97fb6b85299257412df2,2024-10-01_21h47.32.747,mdp,2024.2.1,MacIntel,32.25806452,66fa4ebf79326e780c390304,,,,,,,,,,,,,,,,,,,,,162.959,162.959,162.961,163.775,0,1,left,0.292,,163.777,163.779,,1,,163.78,163.782,,1,,0,163.782,163.782,163.782,165.274,0,34,34,34,1,0.4,0.6,0.6,0.4,1,0,,,,,,,,,,,,,,,,,,,,,,,,,,,,,,,,,,,,
,,6681e779f60d20a3b2b27bb3,66fc97fb6b85299257412df2,2024-10-01_21h47.32.747,mdp,2024.2.1,MacIntel,32.25806452,66fa4ebf79326e780c390304,,,,,,,,,,,,,,,,,,,,,165.276,165.276,165.278,166.041,0,0,left,0.233,,166.043,166.046,,0,,166.047,166.047,,0,,1,166.047,166.047,166.048,167.541,0,35,35,35,1,0.4,0.6,0.6,0.4,1,0,,,,,,,,,,,,,,,,,,,,,,,,,,,,,,,,,,,,
,,6681e779f60d20a3b2b27bb3,66fc97fb6b85299257412df2,2024-10-01_21h47.32.747,mdp,2024.2.1,MacIntel,32.25806452,66fa4ebf79326e780c390304,,,,,,,,,,,,,,,,,,,,,167.543,167.543,167.544,168.34,0,1,left,0.268,,168.342,168.343,,1,,168.344,168.344,,1,,0,168.344,168.344,168.345,169.841,0,36,36,36,1,0.4,0.6,0.6,0.4,1,0,,,,,,,,,,,,,,,,,,,,,,,,,,,,,,,,,,,,
,,6681e779f60d20a3b2b27bb3,66fc97fb6b85299257412df2,2024-10-01_21h47.32.747,mdp,2024.2.1,MacIntel,32.25806452,66fa4ebf79326e780c390304,,,,,,,,,,,,,,,,,,,,,169.842,169.842,169.844,170.525,0,1,left,0.155,,170.527,170.529,,0,,170.53,170.532,,1,,0,170.532,170.532,170.533,172.025,0,37,37,37,1,0.4,0.6,0.6,0.4,1,0,,,,,,,,,,,,,,,,,,,,,,,,,,,,,,,,,,,,
,,6681e779f60d20a3b2b27bb3,66fc97fb6b85299257412df2,2024-10-01_21h47.32.747,mdp,2024.2.1,MacIntel,32.25806452,66fa4ebf79326e780c390304,,,,,,,,,,,,,,,,,,,,,172.026,172.026,172.027,172.891,1,1,right,0.344,,172.892,172.894,,0,,172.895,172.898,,1,,0,172.898,172.898,172.898,174.392,0,38,38,38,1,0.4,0.6,0.6,0.4,1,0,,,,,,,,,,,,,,,,,,,,,,,,,,,,,,,,,,,,
,,6681e779f60d20a3b2b27bb3,66fc97fb6b85299257412df2,2024-10-01_21h47.32.747,mdp,2024.2.1,MacIntel,32.25806452,66fa4ebf79326e780c390304,,,,,,,,,,,,,,,,,,,,,174.393,174.393,174.394,175.175,0,1,left,0.257,,175.176,175.178,,1,,175.179,175.18,,0,,0,175.18,175.18,175.181,176.675,0,39,39,39,1,0.4,0.6,0.6,0.4,1,0,,,,,,,,,,,,,,,,,,,,,,,,,,,,,,,,,,,,
,,6681e779f60d20a3b2b27bb3,66fc97fb6b85299257412df2,2024-10-01_21h47.32.747,mdp,2024.2.1,MacIntel,32.25806452,66fa4ebf79326e780c390304,,,,,,,,,,,,,,,,,,,,,176.676,176.676,176.677,177.275,0,0,left,0.07,,177.277,177.279,,1,,177.28,177.281,,0,,1,177.281,177.281,177.282,178.775,0,40,40,40,1,0.4,0.6,0.6,0.4,1,0,,,,,,,,,,,,,,,,,,,,,,,,,,,,,,,,,,,,
,,6681e779f60d20a3b2b27bb3,66fc97fb6b85299257412df2,2024-10-01_21h47.32.747,mdp,2024.2.1,MacIntel,32.25806452,66fa4ebf79326e780c390304,,,,,,,,,,,,,,,,,,,,,178.776,178.776,178.777,179.575,0,0,left,0.27,,179.577,179.579,,1,,179.58,179.582,,0,,1,179.582,179.582,179.583,181.074,0,41,41,41,1,0.4,0.6,0.6,0.4,1,0,,,,,,,,,,,,,,,,,,,,,,,,,,,,,,,,,,,,
,,6681e779f60d20a3b2b27bb3,66fc97fb6b85299257412df2,2024-10-01_21h47.32.747,mdp,2024.2.1,MacIntel,32.25806452,66fa4ebf79326e780c390304,,,,,,,,,,,,,,,,,,,,,181.075,181.075,181.076,181.926,0,0,left,0.337,,181.928,181.93,,0,,181.931,181.931,,1,,1,181.931,181.931,181.931,183.425,0,42,42,42,1,0.4,0.6,0.6,0.4,1,0,,,,,,,,,,,,,,,,,,,,,,,,,,,,,,,,,,,,
,,6681e779f60d20a3b2b27bb3,66fc97fb6b85299257412df2,2024-10-01_21h47.32.747,mdp,2024.2.1,MacIntel,32.25806452,66fa4ebf79326e780c390304,,,,,,,,,,,,,,,,,,,,,183.427,183.427,183.428,184.242,0,0,left,0.287,,184.244,184.246,,1,,184.247,184.247,,1,,1,184.247,184.247,184.247,185.743,0,43,43,43,1,0.4,0.6,0.6,0.4,1,0,,,,,,,,,,,,,,,,,,,,,,,,,,,,,,,,,,,,
,,6681e779f60d20a3b2b27bb3,66fc97fb6b85299257412df2,2024-10-01_21h47.32.747,mdp,2024.2.1,MacIntel,32.25806452,66fa4ebf79326e780c390304,,,,,,,,,,,,,,,,,,,,,185.744,185.744,185.745,186.592,0,0,left,0.316,,186.594,186.596,,0,,186.598,186.602,,0,,1,186.602,186.602,186.602,188.091,0,44,44,44,1,0.4,0.6,0.6,0.4,1,0,,,,,,,,,,,,,,,,,,,,,,,,,,,,,,,,,,,,
,,6681e779f60d20a3b2b27bb3,66fc97fb6b85299257412df2,2024-10-01_21h47.32.747,mdp,2024.2.1,MacIntel,32.25806452,66fa4ebf79326e780c390304,,,,,,,,,,,,,,,,,,,,,188.092,188.092,188.095,188.842,0,1,left,0.234,,188.844,188.846,,1,,188.847,188.849,,1,,0,188.849,188.849,188.85,190.342,0,45,45,45,1,0.4,0.6,0.6,0.4,1,0,,,,,,,,,,,,,,,,,,,,,,,,,,,,,,,,,,,,
,,6681e779f60d20a3b2b27bb3,66fc97fb6b85299257412df2,2024-10-01_21h47.32.747,mdp,2024.2.1,MacIntel,32.25806452,66fa4ebf79326e780c390304,,,,,,,,,,,,,,,,,,,,,190.343,190.343,190.344,191.059,1,0,right,0.188,,191.06,191.062,,0,,191.063,191.064,,1,,1,191.064,191.064,191.064,192.559,0,46,46,46,1,0.4,0.6,0.6,0.4,1,0,,,,,,,,,,,,,,,,,,,,,,,,,,,,,,,,,,,,
,,6681e779f60d20a3b2b27bb3,66fc97fb6b85299257412df2,2024-10-01_21h47.32.747,mdp,2024.2.1,MacIntel,32.25806452,66fa4ebf79326e780c390304,,,,,,,,,,,,,,,,,,,,,192.56,192.56,192.561,193.325,1,0,right,0.235,,193.327,193.33,,1,,193.331,193.333,,0,,1,193.333,193.333,193.334,194.826,0,47,47,47,1,0.4,0.6,0.6,0.4,1,0,,,,,,,,,,,,,,,,,,,,,,,,,,,,,,,,,,,,
,,6681e779f60d20a3b2b27bb3,66fc97fb6b85299257412df2,2024-10-01_21h47.32.747,mdp,2024.2.1,MacIntel,32.25806452,66fa4ebf79326e780c390304,,,,,,,,,,,,,,,,,,,,,194.827,194.827,194.828,195.659,1,0,right,0.302,,195.661,195.663,,0,,195.664,195.665,,0,,1,195.665,195.665,195.666,197.159,0,48,48,48,1,0.4,0.6,0.6,0.4,1,0,,,,,,,,,,,,,,,,,,,,,,,,,,,,,,,,,,,,
,,6681e779f60d20a3b2b27bb3,66fc97fb6b85299257412df2,2024-10-01_21h47.32.747,mdp,2024.2.1,MacIntel,32.25806452,66fa4ebf79326e780c390304,,,,,,,,,,,,,,,,,,,,,197.16,197.16,197.161,197.959,1,1,right,0.268,,197.96,197.961,,0,,197.962,197.963,,0,,0,197.963,197.963,197.964,199.46,0,49,49,49,1,0.4,0.6,0.6,0.4,1,0,,,,,,,,,,,,,,,,,,,,,,,,,,,,,,,,,,,,
,,6681e779f60d20a3b2b27bb3,66fc97fb6b85299257412df2,2024-10-01_21h47.32.747,mdp,2024.2.1,MacIntel,32.25806452,66fa4ebf79326e780c390304,,,,,,,,,,,,,,,,,,,,,,,,,,,,,,,,,,,,,,,,,,,,,,,,,,,,,,,,199.461,276.413,0,0,0,2,1,imgs/lion.png,imgs/bear.png,imgs/dog.png,imgs/cat.png,imgs/kangaroo.png,,,,,,,,,,,,,,,,,,,,,,,,
,,6681e779f60d20a3b2b27bb3,66fc97fb6b85299257412df2,2024-10-01_21h47.32.747,mdp,2024.2.1,MacIntel,32.25806452,66fa4ebf79326e780c390304,,,,,,,,,,,,,,2,seqs/st2seq5.csv,276.417,277.762,space,0.818,,277.771,277.771,277.772,279.662,1,0,right,1.369,,279.662,282.096,1,1,right,282.098,282.099,,0,,0,282.099,282.099,282.1,283.596,0,0,0,0,1,0.6,0.4,0.4,0.6,,,,,,,,,,,,,,,1.912,,0.2,0.8,0.2,0.8,0.8,0.2,0.6,0.4,1,0,,,,,,,,,,,,
,,6681e779f60d20a3b2b27bb3,66fc97fb6b85299257412df2,2024-10-01_21h47.32.747,mdp,2024.2.1,MacIntel,32.25806452,66fa4ebf79326e780c390304,,,,,,,,,,,,,,,,,,,,,283.597,283.597,283.598,285.678,1,0,right,1.56,,285.68,286.596,0,1,left,286.597,286.599,,1,,0,286.599,286.599,286.599,288.095,0,1,1,1,1,0.4,0.6,0.6,0.4,,,,,,,,,,,,,,,0.387,,0.2,0.8,0.2,0.8,0.8,0.2,0.6,0.4,1,0,,,,,,,,,,,,
,,6681e779f60d20a3b2b27bb3,66fc97fb6b85299257412df2,2024-10-01_21h47.32.747,mdp,2024.2.1,MacIntel,32.25806452,66fa4ebf79326e780c390304,,,,,,,,,,,,,,,,,,,,,288.095,288.095,288.096,290.279,0,1,left,1.669,,290.281,291.096,1,0,right,291.098,291.1,,0,,1,291.1,291.1,291.101,292.596,0,2,2,2,1,0.4,0.6,0.6,0.4,,,,,,,,,,,,,,,0.294,,0.6,0.4,0.8,0.2,0.8,0.2,0.6,0.4,1,0,,,,,,,,,,,,
,,6681e779f60d20a3b2b27bb3,66fc97fb6b85299257412df2,2024-10-01_21h47.32.747,mdp,2024.2.1,MacIntel,32.25806452,66fa4ebf79326e780c390304,,,,,,,,,,,,,,,,,,,,,292.597,292.597,292.598,293.461,0,1,left,0.345,,293.463,294.262,1,1,right,294.264,294.266,,1,,0,294.266,294.267,294.268,295.763,0,3,3,3,1,0.4,0.6,0.6,0.4,,,,,,,,,,,,,,,0.284,,0.6,0.4,0.8,0.2,0.8,0.2,0.6,0.4,1,0,,,,,,,,,,,,
,,6681e779f60d20a3b2b27bb3,66fc97fb6b85299257412df2,2024-10-01_21h47.32.747,mdp,2024.2.1,MacIntel,32.25806452,66fa4ebf79326e780c390304,,,,,,,,,,,,,,,,,,,,,295.764,295.764,295.765,296.646,1,0,right,0.351,,296.648,297.429,0,1,left,297.431,297.434,,0,,0,297.434,297.434,297.434,298.929,0,4,4,4,1,0.4,0.6,0.6,0.4,,,,,,,,,,,,,,,0.262,,0.6,0.4,0.8,0.2,0.8,0.2,0.6,0.4,1,0,,,,,,,,,,,,
,,6681e779f60d20a3b2b27bb3,66fc97fb6b85299257412df2,2024-10-01_21h47.32.747,mdp,2024.2.1,MacIntel,32.25806452,66fa4ebf79326e780c390304,,,,,,,,,,,,,,,,,,,,,298.93,298.93,298.932,299.729,1,0,right,0.265,,299.731,300.545,1,0,right,300.547,300.549,,0,,1,300.549,300.549,300.55,302.046,0,5,5,5,1,0.4,0.6,0.6,0.4,,,,,,,,,,,,,,,0.284,,0.6,0.4,0.8,0.2,0.8,0.2,0.6,0.4,1,0,,,,,,,,,,,,
,,6681e779f60d20a3b2b27bb3,66fc97fb6b85299257412df2,2024-10-01_21h47.32.747,mdp,2024.2.1,MacIntel,32.25806452,66fa4ebf79326e780c390304,,,,,,,,,,,,,,,,,,,,,302.047,302.047,302.049,302.879,0,1,left,0.301,,302.881,303.696,0,0,left,303.698,303.699,,0,,1,303.699,303.699,303.7,305.198,0,6,6,6,1,0.4,0.6,0.6,0.4,,,,,,,,,,,,,,,0.28,,0.4,0.6,0.6,0.4,0.8,0.2,0.6,0.4,1,0,,,,,,,,,,,,
,,6681e779f60d20a3b2b27bb3,66fc97fb6b85299257412df2,2024-10-01_21h47.32.747,mdp,2024.2.1,MacIntel,32.25806452,66fa4ebf79326e780c390304,,,,,,,,,,,,,,,,,,,,,305.205,305.205,305.207,306.063,0,0,left,0.339,,306.066,306.847,1,1,right,306.849,306.85,,1,,0,306.85,306.85,306.852,308.346,0,7,7,7,1,0.4,0.6,0.6,0.4,,,,,,,,,,,,,,,0.263,,0.4,0.6,0.6,0.4,0.8,0.2,0.6,0.4,1,0,,,,,,,,,,,,
,,6681e779f60d20a3b2b27bb3,66fc97fb6b85299257412df2,2024-10-01_21h47.32.747,mdp,2024.2.1,MacIntel,32.25806452,66fa4ebf79326e780c390304,,,,,,,,,,,,,,,,,,,,,308.348,308.348,308.349,309.096,0,0,left,0.219,,309.098,309.846,1,0,right,309.848,309.85,,0,,1,309.85,309.85,309.851,311.346,0,8,8,8,1,0.4,0.6,0.6,0.4,,,,,,,,,,,,,,,0.241,,0.4,0.6,0.6,0.4,0.8,0.2,0.6,0.4,1,0,,,,,,,,,,,,
,,6681e779f60d20a3b2b27bb3,66fc97fb6b85299257412df2,2024-10-01_21h47.32.747,mdp,2024.2.1,MacIntel,32.25806452,66fa4ebf79326e780c390304,,,,,,,,,,,,,,,,,,,,,311.347,311.347,311.348,312.379,1,0,right,0.503,,312.382,313.097,1,1,right,313.098,313.1,,0,,0,313.1,313.1,313.101,314.597,0,9,9,9,1,0.4,0.6,0.6,0.4,,,,,,,,,,,,,,,0.202,,0.4,0.6,0.6,0.4,0.8,0.2,0.6,0.4,1,0,,,,,,,,,,,,
,,6681e779f60d20a3b2b27bb3,66fc97fb6b85299257412df2,2024-10-01_21h47.32.747,mdp,2024.2.1,MacIntel,32.25806452,66fa4ebf79326e780c390304,,,,,,,,,,,,,,,,,,,,,314.598,314.598,314.601,316.297,1,0,right,1.169,,316.298,317.097,1,0,right,317.099,317.1,,1,,1,317.1,317.1,317.101,318.596,0,10,10,10,1,0.4,0.6,0.6,0.4,,,,,,,,,,,,,,,0.268,,0.4,0.6,0.6,0.4,0.8,0.2,0.6,0.4,1,0,,,,,,,,,,,,
,,6681e779f60d20a3b2b27bb3,66fc97fb6b85299257412df2,2024-10-01_21h47.32.747,mdp,2024.2.1,MacIntel,32.25806452,66fa4ebf79326e780c390304,,,,,,,,,,,,,,,,,,,,,318.597,318.597,318.599,319.462,1,0,right,0.339,,319.464,320.28,0,0,left,320.282,320.284,,1,,1,320.285,320.285,320.286,321.779,0,11,11,11,1,0.4,0.6,0.6,0.4,,,,,,,,,,,,,,,0.302,,0.4,0.6,0.6,0.4,0.8,0.2,0.6,0.4,1,0,,,,,,,,,,,,
,,6681e779f60d20a3b2b27bb3,66fc97fb6b85299257412df2,2024-10-01_21h47.32.747,mdp,2024.2.1,MacIntel,32.25806452,66fa4ebf79326e780c390304,,,,,,,,,,,,,,,,,,,,,321.78,321.78,321.782,322.613,0,0,left,0.307,,322.615,323.363,1,0,right,323.365,323.366,,0,,1,323.366,323.366,323.366,324.863,0,12,12,12,1,0.4,0.6,0.6,0.4,,,,,,,,,,,,,,,0.241,,0.4,0.6,0.6,0.4,0.8,0.2,0.6,0.4,1,0,,,,,,,,,,,,
,,6681e779f60d20a3b2b27bb3,66fc97fb6b85299257412df2,2024-10-01_21h47.32.747,mdp,2024.2.1,MacIntel,32.25806452,66fa4ebf79326e780c390304,,,,,,,,,,,,,,,,,,,,,324.863,324.863,324.865,325.714,0,0,left,0.32,,325.716,326.53,0,1,left,326.532,326.534,,1,,0,326.534,326.534,326.536,328.03,0,13,13,13,1,0.4,0.6,0.6,0.4,,,,,,,,,,,,,,,0.284,,0.4,0.6,0.6,0.4,0.8,0.2,0.6,0.4,1,0,,,,,,,,,,,,
,,6681e779f60d20a3b2b27bb3,66fc97fb6b85299257412df2,2024-10-01_21h47.32.747,mdp,2024.2.1,MacIntel,32.25806452,66fa4ebf79326e780c390304,,,,,,,,,,,,,,,,,,,,,328.031,328.031,328.033,329.397,0,1,left,0.835,,329.399,330.197,0,0,left,330.199,330.2,,0,,1,330.2,330.2,330.201,331.697,0,14,14,14,1,0.4,0.6,0.6,0.4,,,,,,,,,,,,,,,0.277,,0.4,0.6,0.6,0.4,0.8,0.2,0.6,0.4,1,0,,,,,,,,,,,,
,,6681e779f60d20a3b2b27bb3,66fc97fb6b85299257412df2,2024-10-01_21h47.32.747,mdp,2024.2.1,MacIntel,32.25806452,66fa4ebf79326e780c390304,,,,,,,,,,,,,,,,,,,,,331.697,331.697,331.698,332.68,0,1,left,0.47,,332.682,333.314,1,0,right,333.316,333.318,,0,,1,333.319,333.319,333.319,334.813,0,15,15,15,1,0.4,0.6,0.6,0.4,,,,,,,,,,,,,,,0.126,,0.4,0.6,0.6,0.4,0.8,0.2,0.6,0.4,1,0,,,,,,,,,,,,
,,6681e779f60d20a3b2b27bb3,66fc97fb6b85299257412df2,2024-10-01_21h47.32.747,mdp,2024.2.1,MacIntel,32.25806452,66fa4ebf79326e780c390304,,,,,,,,,,,,,,,,,,,,,334.815,334.815,334.816,335.631,1,1,right,0.282,,335.633,336.464,0,1,left,336.466,336.467,,0,,0,336.467,336.467,336.468,337.964,0,16,16,16,1,0.2,0.8,0.8,0.2,,,,,,,,,,,,,,,0.31,,0.4,0.6,0.6,0.4,0.8,0.2,0.6,0.4,1,0,,,,,,,,,,,,
,,6681e779f60d20a3b2b27bb3,66fc97fb6b85299257412df2,2024-10-01_21h47.32.747,mdp,2024.2.1,MacIntel,32.25806452,66fa4ebf79326e780c390304,,,,,,,,,,,,,,,,,,,,,337.965,337.965,337.966,338.913,1,0,right,0.415,,338.915,339.697,0,1,left,339.699,339.701,,0,,0,339.701,339.701,339.701,341.197,0,17,17,17,1,0.2,0.8,0.8,0.2,,,,,,,,,,,,,,,0.263,,0.2,0.8,0.2,0.8,0.8,0.2,0.6,0.4,1,0,,,,,,,,,,,,
,,6681e779f60d20a3b2b27bb3,66fc97fb6b85299257412df2,2024-10-01_21h47.32.747,mdp,2024.2.1,MacIntel,32.25806452,66fa4ebf79326e780c390304,,,,,,,,,,,,,,,,,,,,,341.198,341.198,341.2,341.997,1,0,right,0.269,,341.998,342.765,1,1,right,342.766,342.768,,1,,0,342.768,342.768,342.769,344.264,0,18,18,18,1,0.2,0.8,0.8,0.2,,,,,,,,,,,,,,,0.263,,0.2,0.8,0.2,0.8,0.8,0.2,0.6,0.4,1,0,,,,,,,,,,,,
,,6681e779f60d20a3b2b27bb3,66fc97fb6b85299257412df2,2024-10-01_21h47.32.747,mdp,2024.2.1,MacIntel,32.25806452,66fa4ebf79326e780c390304,,,,,,,,,,,,,,,,,,,,,344.264,344.265,344.266,345.381,1,1,right,0.585,,345.382,346.181,0,0,left,346.183,346.184,,1,,1,346.184,346.184,346.185,347.68,0,19,19,19,1,0.2,0.8,0.8,0.2,,,,,,,,,,,,,,,0.266,,0.2,0.8,0.2,0.8,0.8,0.2,0.6,0.4,1,0,,,,,,,,,,,,
,,6681e779f60d20a3b2b27bb3,66fc97fb6b85299257412df2,2024-10-01_21h47.32.747,mdp,2024.2.1,MacIntel,32.25806452,66fa4ebf79326e780c390304,,,,,,,,,,,,,,,,,,,,,347.681,347.681,347.683,348.514,0,1,left,0.318,,348.516,349.298,0,1,left,349.299,349.301,,1,,0,349.301,349.301,349.302,350.797,0,20,20,20,1,0.2,0.8,0.8,0.2,,,,,,,,,,,,,,,0.267,,0.2,0.8,0.2,0.8,0.8,0.2,0.6,0.4,1,0,,,,,,,,,,,,
,,6681e779f60d20a3b2b27bb3,66fc97fb6b85299257412df2,2024-10-01_21h47.32.747,mdp,2024.2.1,MacIntel,32.25806452,66fa4ebf79326e780c390304,,,,,,,,,,,,,,,,,,,,,350.798,350.798,350.8,351.531,0,0,left,0.199,,351.531,352.081,0,1,left,352.082,352.083,,0,,0,352.083,352.083,352.083,353.581,0,21,21,21,1,0.2,0.8,0.8,0.2,,,,,,,,,,,,,,,0.039,,0.2,0.8,0.2,0.8,0.8,0.2,0.6,0.4,1,0,,,,,,,,,,,,
,,6681e779f60d20a3b2b27bb3,66fc97fb6b85299257412df2,2024-10-01_21h47.32.747,mdp,2024.2.1,MacIntel,32.25806452,66fa4ebf79326e780c390304,,,,,,,,,,,,,,,,,,,,,353.581,353.581,353.582,354.415,0,1,left,0.317,,354.416,354.981,0,1,left,354.983,354.984,,0,,0,354.985,354.985,354.985,356.481,0,22,22,22,1,0.2,0.8,0.8,0.2,,,,,,,,,,,,,,,0.031,,0.2,0.8,0.2,0.8,0.8,0.2,0.6,0.4,1,0,,,,,,,,,,,,
,,6681e779f60d20a3b2b27bb3,66fc97fb6b85299257412df2,2024-10-01_21h47.32.747,mdp,2024.2.1,MacIntel,32.25806452,66fa4ebf79326e780c390304,,,,,,,,,,,,,,,,,,,,,356.482,356.482,356.484,357.298,0,1,left,0.283,,357.3,357.981,0,1,left,357.982,357.984,,0,,0,357.984,357.984,357.985,359.48,0,23,23,23,1,0.2,0.8,0.8,0.2,,,,,,,,,,,,,,,0.168,,0.2,0.8,0.2,0.8,0.8,0.2,0.6,0.4,1,0,,,,,,,,,,,,
,,6681e779f60d20a3b2b27bb3,66fc97fb6b85299257412df2,2024-10-01_21h47.32.747,mdp,2024.2.1,MacIntel,32.25806452,66fa4ebf79326e780c390304,,,,,,,,,,,,,,,,,,,,,359.481,359.481,359.483,360.131,0,1,left,0.119,,360.133,360.665,0,0,left,360.666,360.668,,1,,1,360.668,360.668,360.669,362.165,0,24,24,24,1,0.2,0.8,0.8,0.2,,,,,,,,,,,,,,,0.025,,0.2,0.8,0.2,0.8,0.8,0.2,0.6,0.4,1,0,,,,,,,,,,,,
,,6681e779f60d20a3b2b27bb3,66fc97fb6b85299257412df2,2024-10-01_21h47.32.747,mdp,2024.2.1,MacIntel,32.25806452,66fa4ebf79326e780c390304,,,,,,,,,,,,,,,,,,,,,362.165,362.165,362.166,362.948,1,0,right,0.266,,362.95,363.532,1,0,right,363.533,363.535,,1,,1,363.535,363.535,363.536,365.031,0,25,25,25,1,0.2,0.8,0.8,0.2,,,,,,,,,,,,,,,0.046,,0.2,0.8,0.2,0.8,0.8,0.2,0.6,0.4,1,0,,,,,,,,,,,,
,,6681e779f60d20a3b2b27bb3,66fc97fb6b85299257412df2,2024-10-01_21h47.32.747,mdp,2024.2.1,MacIntel,32.25806452,66fa4ebf79326e780c390304,,,,,,,,,,,,,,,,,,,,,365.032,365.032,365.034,366.181,1,0,right,0.628,,366.183,366.965,0,1,left,366.966,366.968,,1,,0,366.968,366.968,366.969,368.464,0,26,26,26,1,0.2,0.8,0.8,0.2,,,,,,,,,,,,,,,0.254,,0.2,0.8,0.2,0.8,0.8,0.2,0.6,0.4,1,0,,,,,,,,,,,,
,,6681e779f60d20a3b2b27bb3,66fc97fb6b85299257412df2,2024-10-01_21h47.32.747,mdp,2024.2.1,MacIntel,32.25806452,66fa4ebf79326e780c390304,,,,,,,,,,,,,,,,,,,,,368.465,368.465,368.467,369.298,1,0,right,0.3,,369.3,370.015,0,1,left,370.016,370.018,,1,,0,370.018,370.018,370.018,371.515,0,27,27,27,1,0.2,0.8,0.8,0.2,,,,,,,,,,,,,,,0.182,,0.2,0.8,0.2,0.8,0.8,0.2,0.6,0.4,1,0,,,,,,,,,,,,
,,6681e779f60d20a3b2b27bb3,66fc97fb6b85299257412df2,2024-10-01_21h47.32.747,mdp,2024.2.1,MacIntel,32.25806452,66fa4ebf79326e780c390304,,,,,,,,,,,,,,,,,,,,,371.516,371.516,371.518,372.349,1,0,right,0.313,,372.351,373.082,0,1,left,373.084,373.085,,1,,0,373.085,373.085,373.086,374.582,0,28,28,28,1,0.2,0.8,0.8,0.2,,,,,,,,,,,,,,,0.2,,0.2,0.8,0.2,0.8,0.8,0.2,0.6,0.4,1,0,,,,,,,,,,,,
,,6681e779f60d20a3b2b27bb3,66fc97fb6b85299257412df2,2024-10-01_21h47.32.747,mdp,2024.2.1,MacIntel,32.25806452,66fa4ebf79326e780c390304,,,,,,,,,,,,,,,,,,,,,374.583,374.583,374.584,375.448,0,0,left,0.34,,375.449,376.082,1,0,right,376.084,376.085,,1,,1,376.085,376.085,376.085,377.582,0,29,29,29,1,0.2,0.8,0.8,0.2,,,,,,,,,,,,,,,0.119,,0.8,0.2,0.8,0.2,0.8,0.2,0.6,0.4,1,0,,,,,,,,,,,,
,,6681e779f60d20a3b2b27bb3,66fc97fb6b85299257412df2,2024-10-01_21h47.32.747,mdp,2024.2.1,MacIntel,32.25806452,66fa4ebf79326e780c390304,,,,,,,,,,,,,,,,,,,,,377.583,377.583,377.585,378.315,0,1,left,0.202,,378.317,378.998,1,1,right,378.999,378.999,,0,,0,378.999,378.999,379,380.499,0,30,30,30,1,0.2,0.8,0.8,0.2,,,,,,,,,,,,,,,0.167,,0.8,0.2,0.8,0.2,0.8,0.2,0.6,0.4,1,0,,,,,,,,,,,,
,,6681e779f60d20a3b2b27bb3,66fc97fb6b85299257412df2,2024-10-01_21h47.32.747,mdp,2024.2.1,MacIntel,32.25806452,66fa4ebf79326e780c390304,,,,,,,,,,,,,,,,,,,,,380.5,380.5,380.501,381.349,1,0,right,0.318,,381.35,381.982,1,0,right,381.984,381.986,,0,,1,381.986,381.986,381.987,383.482,0,31,31,31,1,0.2,0.8,0.8,0.2,,,,,,,,,,,,,,,0.095,,0.8,0.2,0.8,0.2,0.8,0.2,0.6,0.4,1,0,,,,,,,,,,,,
,,6681e779f60d20a3b2b27bb3,66fc97fb6b85299257412df2,2024-10-01_21h47.32.747,mdp,2024.2.1,MacIntel,32.25806452,66fa4ebf79326e780c390304,,,,,,,,,,,,,,,,,,,,,383.483,383.483,383.484,384.082,0,1,left,0.069,,384.084,384.682,1,1,right,384.684,384.686,,0,,0,384.686,384.686,384.687,386.182,0,32,32,32,1,0.2,0.8,0.8,0.2,,,,,,,,,,,,,,,0.082,,0.8,0.2,0.8,0.2,0.8,0.2,0.6,0.4,1,0,,,,,,,,,,,,
,,6681e779f60d20a3b2b27bb3,66fc97fb6b85299257412df2,2024-10-01_21h47.32.747,mdp,2024.2.1,MacIntel,32.25806452,66fa4ebf79326e780c390304,,,,,,,,,,,,,,,,,,,,,386.183,386.183,386.185,387.016,1,1,right,0.301,,387.017,387.599,0,0,left,387.6,387.602,,0,,1,387.602,387.602,387.603,389.099,0,33,33,33,1,0.2,0.8,0.8,0.2,,,,,,,,,,,,,,,0.054,,0.8,0.2,0.8,0.2,0.8,0.2,0.6,0.4,1,0,,,,,,,,,,,,
,,6681e779f60d20a3b2b27bb3,66fc97fb6b85299257412df2,2024-10-01_21h47.32.747,mdp,2024.2.1,MacIntel,32.25806452,66fa4ebf79326e780c390304,,,,,,,,,,,,,,,,,,,,,389.1,389.1,389.101,390.066,0,0,left,0.439,,390.068,390.832,0,1,left,390.834,390.836,,0,,0,390.836,390.836,390.837,392.332,0,34,34,34,1,0.2,0.8,0.8,0.2,,,,,,,,,,,,,,,0.24,,0.8,0.2,0.8,0.2,0.8,0.2,0.6,0.4,1,0,,,,,,,,,,,,
,,6681e779f60d20a3b2b27bb3,66fc97fb6b85299257412df2,2024-10-01_21h47.32.747,mdp,2024.2.1,MacIntel,32.25806452,66fa4ebf79326e780c390304,,,,,,,,,,,,,,,,,,,,,392.333,392.333,392.334,393.199,0,1,left,0.335,,393.201,393.966,0,0,left,393.968,393.969,,1,,1,393.969,393.97,393.97,395.465,0,35,35,35,1,0.2,0.8,0.8,0.2,,,,,,,,,,,,,,,0.252,,0.8,0.2,0.8,0.2,0.8,0.2,0.6,0.4,1,0,,,,,,,,,,,,
,,6681e779f60d20a3b2b27bb3,66fc97fb6b85299257412df2,2024-10-01_21h47.32.747,mdp,2024.2.1,MacIntel,32.25806452,66fa4ebf79326e780c390304,,,,,,,,,,,,,,,,,,,,,395.466,395.466,395.468,396.282,1,1,right,0.309,,396.284,396.915,1,0,right,396.917,396.919,,1,,1,396.919,396.919,396.92,398.416,0,36,36,36,1,0.2,0.8,0.8,0.2,,,,,,,,,,,,,,,0.102,,0.8,0.2,0.8,0.2,0.4,0.6,0.4,0.6,1,0,,,,,,,,,,,,
,,6681e779f60d20a3b2b27bb3,66fc97fb6b85299257412df2,2024-10-01_21h47.32.747,mdp,2024.2.1,MacIntel,32.25806452,66fa4ebf79326e780c390304,,,,,,,,,,,,,,,,,,,,,398.416,398.416,398.417,399.365,0,1,left,0.438,,399.367,400.099,0,1,left,400.101,400.103,,0,,0,400.103,400.103,400.103,401.6,0,37,37,37,1,0.2,0.8,0.8,0.2,,,,,,,,,,,,,,,0.2,,0.8,0.2,0.8,0.2,0.4,0.6,0.4,0.6,1,0,,,,,,,,,,,,
,,6681e779f60d20a3b2b27bb3,66fc97fb6b85299257412df2,2024-10-01_21h47.32.747,mdp,2024.2.1,MacIntel,32.25806452,66fa4ebf79326e780c390304,,,,,,,,,,,,,,,,,,,,,401.601,401.601,401.602,402.283,1,1,right,0.15,,402.283,402.933,1,1,right,402.935,402.937,,1,,0,402.937,402.937,402.939,404.433,0,38,38,38,1,0.6,0.4,0.2,0.8,,,,,,,,,,,,,,,0.144,,0.8,0.2,0.8,0.2,0.4,0.6,0.4,0.6,1,0,,,,,,,,,,,,
,,6681e779f60d20a3b2b27bb3,66fc97fb6b85299257412df2,2024-10-01_21h47.32.747,mdp,2024.2.1,MacIntel,32.25806452,66fa4ebf79326e780c390304,,,,,,,,,,,,,,,,,,,,,404.434,404.434,404.436,405.216,0,0,left,0.251,,405.218,405.816,0,0,left,405.818,405.82,,0,,1,405.82,405.82,405.821,407.316,0,39,39,39,1,0.6,0.4,0.2,0.8,,,,,,,,,,,,,,,0.087,,0.8,0.2,0.8,0.2,0.4,0.6,0.4,0.6,1,0,,,,,,,,,,,,
,,6681e779f60d20a3b2b27bb3,66fc97fb6b85299257412df2,2024-10-01_21h47.32.747,mdp,2024.2.1,MacIntel,32.25806452,66fa4ebf79326e780c390304,,,,,,,,,,,,,,,,,,,,,407.317,407.317,407.319,408.116,1,1,right,0.269,,408.117,408.733,1,0,right,408.735,408.736,,0,,1,408.736,408.736,408.736,410.233,0,40,40,40,1,0.6,0.4,0.2,0.8,,,,,,,,,,,,,,,0.108,,0.8,0.2,0.8,0.2,0.2,0.8,0.8,0.2,1,0,,,,,,,,,,,,
,,6681e779f60d20a3b2b27bb3,66fc97fb6b85299257412df2,2024-10-01_21h47.32.747,mdp,2024.2.1,MacIntel,32.25806452,66fa4ebf79326e780c390304,,,,,,,,,,,,,,,,,,,,,410.234,410.234,410.235,411.066,0,1,left,0.301,,411.068,411.683,1,0,right,411.685,411.687,,0,,1,411.687,411.687,411.688,413.183,0,41,41,41,1,0.6,0.4,0.2,0.8,,,,,,,,,,,,,,,0.1,,0.8,0.2,0.8,0.2,0.2,0.8,0.8,0.2,1,0,,,,,,,,,,,,
,,6681e779f60d20a3b2b27bb3,66fc97fb6b85299257412df2,2024-10-01_21h47.32.747,mdp,2024.2.1,MacIntel,32.25806452,66fa4ebf79326e780c390304,,,,,,,,,,,,,,,,,,,,,413.184,413.184,413.186,413.95,1,1,right,0.235,,413.952,414.583,0,0,left,414.585,414.586,,1,,1,414.586,414.586,414.586,416.083,0,42,42,42,1,0.6,0.4,0.2,0.8,,,,,,,,,,,,,,,0.107,,0.8,0.2,0.8,0.2,0.2,0.8,0.8,0.2,1,0,,,,,,,,,,,,
,,6681e779f60d20a3b2b27bb3,66fc97fb6b85299257412df2,2024-10-01_21h47.32.747,mdp,2024.2.1,MacIntel,32.25806452,66fa4ebf79326e780c390304,,,,,,,,,,,,,,,,,,,,,416.084,416.084,416.086,416.85,0,1,left,0.234,,416.85,417.616,0,1,left,417.618,417.62,,1,,0,417.62,417.62,417.621,419.117,0,43,43,43,1,0.6,0.4,0.2,0.8,,,,,,,,,,,,,,,0.256,,0.8,0.2,0.8,0.2,0.2,0.8,0.8,0.2,1,0,,,,,,,,,,,,
,,6681e779f60d20a3b2b27bb3,66fc97fb6b85299257412df2,2024-10-01_21h47.32.747,mdp,2024.2.1,MacIntel,32.25806452,66fa4ebf79326e780c390304,,,,,,,,,,,,,,,,,,,,,419.118,419.118,419.119,419.883,0,0,left,0.242,,419.885,420.55,0,0,left,420.552,420.553,,0,,1,420.554,420.554,420.555,422.05,0,44,44,44,1,0.6,0.4,0.2,0.8,,,,,,,,,,,,,,,0.129,,0.8,0.2,0.8,0.2,0.2,0.8,0.8,0.2,1,0,,,,,,,,,,,,
,,6681e779f60d20a3b2b27bb3,66fc97fb6b85299257412df2,2024-10-01_21h47.32.747,mdp,2024.2.1,MacIntel,32.25806452,66fa4ebf79326e780c390304,,,,,,,,,,,,,,,,,,,,,422.051,422.051,422.052,422.834,1,1,right,0.251,,422.835,423.567,0,0,left,423.568,423.57,,1,,1,423.57,423.57,423.57,425.067,0,45,45,45,1,0.6,0.4,0.2,0.8,,,,,,,,,,,,,,,0.197,,0.8,0.2,0.8,0.2,0.4,0.6,0.4,0.6,1,0,,,,,,,,,,,,
,,6681e779f60d20a3b2b27bb3,66fc97fb6b85299257412df2,2024-10-01_21h47.32.747,mdp,2024.2.1,MacIntel,32.25806452,66fa4ebf79326e780c390304,,,,,,,,,,,,,,,,,,,,,425.068,425.068,425.069,425.767,0,1,left,0.168,,425.769,426.35,1,0,right,426.352,426.354,,1,,1,426.354,426.354,426.355,427.85,0,46,46,46,1,0.6,0.4,0.2,0.8,,,,,,,,,,,,,,,0.051,,0.8,0.2,0.8,0.2,0.4,0.6,0.4,0.6,1,0,,,,,,,,,,,,
,,6681e779f60d20a3b2b27bb3,66fc97fb6b85299257412df2,2024-10-01_21h47.32.747,mdp,2024.2.1,MacIntel,32.25806452,66fa4ebf79326e780c390304,,,,,,,,,,,,,,,,,,,,,427.851,427.851,427.853,428.433,1,0,right,0.055,,428.434,429.05,1,0,right,429.052,429.054,,0,,1,429.054,429.054,429.055,430.55,0,47,47,47,1,0.8,0.2,0.6,0.4,,,,,,,,,,,,,,,0.096,,0.8,0.2,0.8,0.2,0.4,0.6,0.4,0.6,1,0,,,,,,,,,,,,
,,6681e779f60d20a3b2b27bb3,66fc97fb6b85299257412df2,2024-10-01_21h47.32.747,mdp,2024.2.1,MacIntel,32.25806452,66fa4ebf79326e780c390304,,,,,,,,,,,,,,,,,,,,,430.551,430.551,430.552,431.367,0,0,left,0.285,,431.368,432.001,0,0,left,432.002,432.003,,0,,1,432.003,432.003,432.004,433.5,0,48,48,48,1,0.8,0.2,0.6,0.4,,,,,,,,,,,,,,,0.103,,0.8,0.2,0.8,0.2,0.4,0.6,0.4,0.6,1,0,,,,,,,,,,,,
,,6681e779f60d20a3b2b27bb3,66fc97fb6b85299257412df2,2024-10-01_21h47.32.747,mdp,2024.2.1,MacIntel,32.25806452,66fa4ebf79326e780c390304,,,,,,,,,,,,,,,,,,,,,433.501,433.501,433.503,435.985,0,0,left,1.949,,435.987,436.7,1,0,right,436.702,436.704,,1,,1,436.704,436.704,436.705,438.2,0,49,49,49,1,0.8,0.2,0.6,0.4,,,,,,,,,,,,,,,0.185,,0.8,0.2,0.8,0.2,0.4,0.6,0.4,0.6,1,0,,,,,,,,,,,,
,,6681e779f60d20a3b2b27bb3,66fc97fb6b85299257412df2,2024-10-01_21h47.32.747,mdp,2024.2.1,MacIntel,32.25806452,66fa4ebf79326e780c390304,,,,,,,,,,,,,,,,,,,,,,,,,,,,,,,,,,,,,,,,,,,,,,,,,,,,,,,,438.201,666.14,0,1,1,7,1,imgs/kangaroo.png,imgs/goat.png,imgs/rabbit.png,imgs/horse.png,imgs/pig.png,,,,,,,,,,,,,,,,,,,,,,,,
,,6681e779f60d20a3b2b27bb3,66fc97fb6b85299257412df2,2024-10-01_21h47.32.747,mdp,2024.2.1,MacIntel,32.25806452,66fa4ebf79326e780c390304,,,,,,,,,,,,,,3,seqs/st3seq36.csv,666.147,667.676,space,1.002,,667.685,667.685,667.686,669.293,0,1,left,1.073,,669.294,671.127,1,0,right,671.13,672.226,0,0,left,1,672.227,672.227,672.228,673.727,0,0,0,0,1,0.2,0.8,0.6,0.4,,,,,,,,,,,,,,,1.31,,0.4,0.6,0.6,0.4,0.8,0.2,0.8,0.2,,,0.566,,0.8,0.2,0.2,0.8,0.6,0.4,0.6,0.4,1,0
,,6681e779f60d20a3b2b27bb3,66fc97fb6b85299257412df2,2024-10-01_21h47.32.747,mdp,2024.2.1,MacIntel,32.25806452,66fa4ebf79326e780c390304,,,,,,,,,,,,,,,,,,,,,673.728,673.728,673.73,674.559,1,0,right,0.301,,674.561,675.376,0,0,left,675.379,676.159,1,1,right,0,676.16,676.16,676.162,677.659,0,1,1,1,1,0.2,0.8,0.6,0.4,,,,,,,,,,,,,,,0.276,,0.4,0.6,0.6,0.4,0.8,0.2,0.8,0.2,,,0.25,,0.8,0.2,0.2,0.8,0.6,0.4,0.6,0.4,1,0
,,6681e779f60d20a3b2b27bb3,66fc97fb6b85299257412df2,2024-10-01_21h47.32.747,mdp,2024.2.1,MacIntel,32.25806452,66fa4ebf79326e780c390304,,,,,,,,,,,,,,,,,,,,,677.66,677.66,677.661,680.026,1,0,right,1.841,,680.027,680.793,0,1,left,680.795,681.577,1,0,right,1,681.577,681.577,681.578,683.076,0,2,2,2,1,0.2,0.8,0.6,0.4,,,,,,,,,,,,,,,0.251,,0.4,0.6,0.6,0.4,0.8,0.2,0.8,0.2,,,0.246,,0.8,0.2,0.2,0.8,0.6,0.4,0.6,0.4,1,0
,,6681e779f60d20a3b2b27bb3,66fc97fb6b85299257412df2,2024-10-01_21h47.32.747,mdp,2024.2.1,MacIntel,32.25806452,66fa4ebf79326e780c390304,,,,,,,,,,,,,,,,,,,,,683.077,683.077,683.079,684.077,0,1,left,0.47,,684.08,684.926,1,0,right,684.927,685.627,0,0,left,1,685.628,685.628,685.629,687.126,0,3,3,3,1,0.2,0.8,0.6,0.4,,,,,,,,,,,,,,,0.312,,0.4,0.6,0.6,0.4,0.8,0.2,0.8,0.2,,,0.183,,0.8,0.2,0.2,0.8,0.6,0.4,0.6,0.4,1,0
,,6681e779f60d20a3b2b27bb3,66fc97fb6b85299257412df2,2024-10-01_21h47.32.747,mdp,2024.2.1,MacIntel,32.25806452,66fa4ebf79326e780c390304,,,,,,,,,,,,,,,,,,,,,687.127,687.127,687.129,687.976,1,1,right,0.318,,687.977,688.76,0,0,left,688.761,689.526,1,1,right,0,689.527,689.527,689.528,691.026,0,4,4,4,1,0.2,0.8,0.6,0.4,,,,,,,,,,,,,,,0.275,,0.4,0.6,0.6,0.4,0.8,0.2,0.8,0.2,,,0.243,,0.8,0.2,0.2,0.8,0.6,0.4,0.6,0.4,1,0
,,6681e779f60d20a3b2b27bb3,66fc97fb6b85299257412df2,2024-10-01_21h47.32.747,mdp,2024.2.1,MacIntel,32.25806452,66fa4ebf79326e780c390304,,,,,,,,,,,,,,,,,,,,,691.027,691.027,691.029,691.626,1,0,right,0.072,,691.628,692.393,0,1,left,692.394,693.009,1,0,right,1,693.009,693.009,693.011,694.51,0,5,5,5,1,0.8,0.2,0.4,0.6,,,,,,,,,,,,,,,0.228,,0.4,0.6,0.6,0.4,0.8,0.2,0.8,0.2,,,0.096,,0.8,0.2,0.2,0.8,0.6,0.4,0.6,0.4,1,0
,,6681e779f60d20a3b2b27bb3,66fc97fb6b85299257412df2,2024-10-01_21h47.32.747,mdp,2024.2.1,MacIntel,32.25806452,66fa4ebf79326e780c390304,,,,,,,,,,,,,,,,,,,,,694.511,694.511,694.512,695.36,0,0,left,0.319,,695.362,696.127,1,0,right,696.128,696.793,0,0,left,1,696.793,696.793,696.794,698.293,0,6,6,6,1,0.8,0.2,0.4,0.6,,,,,,,,,,,,,,,0.236,,0.4,0.6,0.6,0.4,0.8,0.2,0.8,0.2,,,0.13,,0.8,0.2,0.2,0.8,0.6,0.4,0.6,0.4,1,0
,,6681e779f60d20a3b2b27bb3,66fc97fb6b85299257412df2,2024-10-01_21h47.32.747,mdp,2024.2.1,MacIntel,32.25806452,66fa4ebf79326e780c390304,,,,,,,,,,,,,,,,,,,,,698.294,698.294,698.295,699.093,0,1,left,0.271,,699.095,699.843,1,0,right,699.845,700.592,0,0,left,1,700.593,700.593,700.595,702.093,0,7,7,7,1,0.8,0.2,0.4,0.6,,,,,,,,,,,,,,,0.211,,0.4,0.6,0.6,0.4,0.8,0.2,0.8,0.2,,,0.227,,0.8,0.2,0.2,0.8,0.6,0.4,0.6,0.4,1,0
,,6681e779f60d20a3b2b27bb3,66fc97fb6b85299257412df2,2024-10-01_21h47.32.747,mdp,2024.2.1,MacIntel,32.25806452,66fa4ebf79326e780c390304,,,,,,,,,,,,,,,,,,,,,702.095,702.095,702.097,702.86,1,1,right,0.233,,702.862,703.493,0,0,left,703.496,704.276,1,1,right,0,704.276,704.276,704.277,705.777,0,8,8,8,1,0.8,0.2,0.4,0.6,,,,,,,,,,,,,,,0.126,,0.4,0.6,0.6,0.4,0.8,0.2,0.8,0.2,,,0.252,,0.8,0.2,0.2,0.8,0.6,0.4,0.6,0.4,1,0
,,6681e779f60d20a3b2b27bb3,66fc97fb6b85299257412df2,2024-10-01_21h47.32.747,mdp,2024.2.1,MacIntel,32.25806452,66fa4ebf79326e780c390304,,,,,,,,,,,,,,,,,,,,,705.778,705.778,705.78,706.577,1,0,right,0.267,,706.579,707.343,0,0,left,707.345,708.06,1,1,right,0,708.061,708.061,708.062,709.56,0,9,9,9,1,0.8,0.2,0.4,0.6,,,,,,,,,,,,,,,0.242,,0.4,0.6,0.6,0.4,0.8,0.2,0.8,0.2,,,0.2,,0.8,0.2,0.2,0.8,0.6,0.4,0.6,0.4,1,0
,,6681e779f60d20a3b2b27bb3,66fc97fb6b85299257412df2,2024-10-01_21h47.32.747,mdp,2024.2.1,MacIntel,32.25806452,66fa4ebf79326e780c390304,,,,,,,,,,,,,,,,,,,,,709.561,709.561,709.562,710.176,1,0,right,0.091,,710.178,710.86,0,1,left,710.862,711.494,1,0,right,1,711.494,711.494,711.495,712.994,0,10,10,10,1,0.8,0.2,0.4,0.6,,,,,,,,,,,,,,,0.168,,0.4,0.6,0.6,0.4,0.8,0.2,0.8,0.2,,,0.101,,0.8,0.2,0.2,0.8,0.6,0.4,0.6,0.4,1,0
,,6681e779f60d20a3b2b27bb3,66fc97fb6b85299257412df2,2024-10-01_21h47.32.747,mdp,2024.2.1,MacIntel,32.25806452,66fa4ebf79326e780c390304,,,,,,,,,,,,,,,,,,,,,712.995,712.995,712.996,713.794,0,0,left,0.268,,713.796,714.527,1,1,right,714.529,715.261,0,1,left,0,715.261,715.261,715.263,716.76,0,11,11,11,1,0.8,0.2,0.4,0.6,,,,,,,,,,,,,,,0.218,,0.4,0.6,0.6,0.4,0.8,0.2,0.8,0.2,,,0.218,,0.8,0.2,0.2,0.8,0.6,0.4,0.6,0.4,1,0
,,6681e779f60d20a3b2b27bb3,66fc97fb6b85299257412df2,2024-10-01_21h47.32.747,mdp,2024.2.1,MacIntel,32.25806452,66fa4ebf79326e780c390304,,,,,,,,,,,,,,,,,,,,,716.761,716.762,716.763,717.527,1,1,right,0.243,,717.529,718.127,0,0,left,718.129,718.744,1,1,right,0,718.744,718.744,718.746,720.244,0,12,12,12,1,0.8,0.2,0.4,0.6,,,,,,,,,,,,,,,0.079,,0.6,0.4,0.8,0.2,0.8,0.2,0.8,0.2,,,0.1,,0.8,0.2,0.2,0.8,0.6,0.4,0.6,0.4,1,0
,,6681e779f60d20a3b2b27bb3,66fc97fb6b85299257412df2,2024-10-01_21h47.32.747,mdp,2024.2.1,MacIntel,32.25806452,66fa4ebf79326e780c390304,,,,,,,,,,,,,,,,,,,,,720.245,720.245,720.247,720.86,1,0,right,0.082,,720.86,721.694,1,0,right,721.696,722.428,1,1,right,0,722.428,722.428,722.43,723.927,0,13,13,13,1,0.8,0.2,0.4,0.6,,,,,,,,,,,,,,,0.317,,0.6,0.4,0.8,0.2,0.6,0.4,0.2,0.8,,,0.201,,0.8,0.2,0.2,0.8,0.6,0.4,0.6,0.4,1,0
,,6681e779f60d20a3b2b27bb3,66fc97fb6b85299257412df2,2024-10-01_21h47.32.747,mdp,2024.2.1,MacIntel,32.25806452,66fa4ebf79326e780c390304,,,,,,,,,,,,,,,,,,,,,723.929,723.929,723.93,724.478,0,1,left,0.02,,724.479,725.144,0,0,left,725.146,725.794,0,0,left,1,725.794,725.794,725.796,727.294,0,14,14,14,1,0.8,0.2,0.4,0.6,,,,,,,,,,,,,,,0.13,,0.6,0.4,0.8,0.2,0.6,0.4,0.2,0.8,,,0.141,,0.8,0.2,0.2,0.8,0.6,0.4,0.6,0.4,1,0
,,6681e779f60d20a3b2b27bb3,66fc97fb6b85299257412df2,2024-10-01_21h47.32.747,mdp,2024.2.1,MacIntel,32.25806452,66fa4ebf79326e780c390304,,,,,,,,,,,,,,,,,,,,,727.295,727.295,727.296,727.944,0,0,left,0.128,,727.946,728.611,0,0,left,728.612,729.128,0,0,left,1,729.128,729.128,729.13,730.628,0,15,15,15,1,0.8,0.2,0.4,0.6,,,,,,,,,,,,,,,0.148,,0.6,0.4,0.8,0.2,0.6,0.4,0.2,0.8,,,0.01,,0.8,0.2,0.2,0.8,0.6,0.4,0.6,0.4,1,0
,,6681e779f60d20a3b2b27bb3,66fc97fb6b85299257412df2,2024-10-01_21h47.32.747,mdp,2024.2.1,MacIntel,32.25806452,66fa4ebf79326e780c390304,,,,,,,,,,,,,,,,,,,,,730.628,730.628,730.63,731.211,0,1,left,0.051,,731.213,731.727,0,0,left,731.728,732.244,0,1,left,0,732.245,732.245,732.247,733.744,0,16,16,16,1,0.8,0.2,0.4,0.6,,,,,,,,,,,,,,,0.007,,0.6,0.4,0.8,0.2,0.6,0.4,0.2,0.8,,,0.003,,0.2,0.8,0.4,0.6,0.6,0.4,0.6,0.4,1,0
,,6681e779f60d20a3b2b27bb3,66fc97fb6b85299257412df2,2024-10-01_21h47.32.747,mdp,2024.2.1,MacIntel,32.25806452,66fa4ebf79326e780c390304,,,,,,,,,,,,,,,,,,,,,733.746,733.746,733.747,734.327,1,0,right,0.06,,734.329,734.961,1,0,right,734.963,735.477,1,0,right,1,735.477,735.477,735.479,736.978,0,17,17,17,1,0.8,0.2,0.4,0.6,,,,,,,,,,,,,,,0.119,,0.8,0.2,0.6,0.4,0.6,0.4,0.2,0.8,,,0.006,,0.2,0.8,0.4,0.6,0.6,0.4,0.6,0.4,1,0
,,6681e779f60d20a3b2b27bb3,66fc97fb6b85299257412df2,2024-10-01_21h47.32.747,mdp,2024.2.1,MacIntel,32.25806452,66fa4ebf79326e780c390304,,,,,,,,,,,,,,,,,,,,,736.979,736.979,736.98,737.645,1,0,right,0.134,,737.647,738.178,1,0,right,738.18,738.927,1,0,right,1,738.927,738.927,738.929,740.428,0,18,18,18,1,0.8,0.2,0.4,0.6,,,,,,,,,,,,,,,0,,0.8,0.2,0.6,0.4,0.6,0.4,0.2,0.8,,,0.233,,0.2,0.8,0.4,0.6,0.6,0.4,0.6,0.4,1,0
,,6681e779f60d20a3b2b27bb3,66fc97fb6b85299257412df2,2024-10-01_21h47.32.747,mdp,2024.2.1,MacIntel,32.25806452,66fa4ebf79326e780c390304,,,,,,,,,,,,,,,,,,,,,740.428,740.428,740.43,740.961,0,1,left,0.001,,740.962,741.627,0,0,left,741.629,742.145,0,1,left,0,742.145,742.145,742.147,743.645,0,19,19,19,1,0.8,0.2,0.4,0.6,,,,,,,,,,,,,,,0.15,,0.8,0.2,0.6,0.4,0.8,0.2,0.4,0.6,,,0,,0.2,0.8,0.4,0.6,0.6,0.4,0.6,0.4,1,0
,,6681e779f60d20a3b2b27bb3,66fc97fb6b85299257412df2,2024-10-01_21h47.32.747,mdp,2024.2.1,MacIntel,32.25806452,66fa4ebf79326e780c390304,,,,,,,,,,,,,,,,,,,,,743.646,743.646,743.647,744.278,0,0,left,0.111,,744.278,744.795,0,0,left,744.797,745.345,0,1,left,0,745.345,745.345,745.346,746.845,0,20,20,20,1,0.8,0.2,0.4,0.6,,,,,,,,,,,,,,,0.001,,0.8,0.2,0.6,0.4,0.8,0.2,0.4,0.6,,,0.019,,0.2,0.8,0.4,0.6,0.6,0.4,0.6,0.4,1,0
,,6681e779f60d20a3b2b27bb3,66fc97fb6b85299257412df2,2024-10-01_21h47.32.747,mdp,2024.2.1,MacIntel,32.25806452,66fa4ebf79326e780c390304,,,,,,,,,,,,,,,,,,,,,746.846,746.846,746.848,747.428,0,0,left,0.052,,747.43,747.995,0,0,left,747.997,748.545,0,1,left,0,748.545,748.545,748.547,750.045,0,21,21,21,1,0.8,0.2,0.4,0.6,,,,,,,,,,,,,,,0.041,,0.8,0.2,0.6,0.4,0.8,0.2,0.4,0.6,,,0.021,,0.2,0.8,0.4,0.6,0.6,0.4,0.6,0.4,1,0
,,6681e779f60d20a3b2b27bb3,66fc97fb6b85299257412df2,2024-10-01_21h47.32.747,mdp,2024.2.1,MacIntel,32.25806452,66fa4ebf79326e780c390304,,,,,,,,,,,,,,,,,,,,,750.046,750.046,750.047,750.795,0,0,left,0.226,,750.797,751.412,1,0,right,751.414,752.045,0,1,left,0,752.045,752.045,752.047,753.545,0,22,22,22,1,0.8,0.2,0.4,0.6,,,,,,,,,,,,,,,0.106,,0.8,0.2,0.6,0.4,0.8,0.2,0.4,0.6,,,0.116,,0.2,0.8,0.4,0.6,0.6,0.4,0.6,0.4,1,0
,,6681e779f60d20a3b2b27bb3,66fc97fb6b85299257412df2,2024-10-01_21h47.32.747,mdp,2024.2.1,MacIntel,32.25806452,66fa4ebf79326e780c390304,,,,,,,,,,,,,,,,,,,,,753.546,753.546,753.547,754.412,0,0,left,0.334,,754.414,755.029,1,0,right,755.031,755.562,0,0,left,1,755.562,755.562,755.564,757.062,0,23,23,23,1,0.8,0.2,0.4,0.6,,,,,,,,,,,,,,,0.102,,0.8,0.2,0.6,0.4,0.8,0.2,0.4,0.6,,,0,,0.2,0.8,0.4,0.6,0.6,0.4,0.6,0.4,1,0
,,6681e779f60d20a3b2b27bb3,66fc97fb6b85299257412df2,2024-10-01_21h47.32.747,mdp,2024.2.1,MacIntel,32.25806452,66fa4ebf79326e780c390304,,,,,,,,,,,,,,,,,,,,,757.063,757.063,757.064,757.845,0,1,left,0.252,,757.846,758.495,1,0,right,758.497,759.112,0,1,left,0,759.112,759.112,759.114,760.611,0,24,24,24,1,0.2,0.8,0.8,0.2,,,,,,,,,,,,,,,0.131,,0.8,0.2,0.6,0.4,0.8,0.2,0.4,0.6,,,0.082,,0.2,0.8,0.4,0.6,0.6,0.4,0.6,0.4,1,0
,,6681e779f60d20a3b2b27bb3,66fc97fb6b85299257412df2,2024-10-01_21h47.32.747,mdp,2024.2.1,MacIntel,32.25806452,66fa4ebf79326e780c390304,,,,,,,,,,,,,,,,,,,,,760.612,760.612,760.613,761.245,0,1,left,0.117,,761.247,761.812,1,1,right,761.813,762.345,0,0,left,1,762.345,762.345,762.346,763.845,0,25,25,25,1,0.2,0.8,0.8,0.2,,,,,,,,,,,,,,,0.05,,0.8,0.2,0.6,0.4,0.8,0.2,0.4,0.6,,,0.022,,0.2,0.8,0.4,0.6,0.6,0.4,0.6,0.4,1,0
,,6681e779f60d20a3b2b27bb3,66fc97fb6b85299257412df2,2024-10-01_21h47.32.747,mdp,2024.2.1,MacIntel,32.25806452,66fa4ebf79326e780c390304,,,,,,,,,,,,,,,,,,,,,763.846,763.846,763.847,764.595,1,0,right,0.224,,764.597,765.212,0,0,left,765.214,765.778,1,1,right,0,765.779,765.779,765.78,767.279,0,26,26,26,1,0.2,0.8,0.8,0.2,,,,,,,,,,,,,,,0.082,,0.8,0.2,0.6,0.4,0.8,0.2,0.4,0.6,,,0.048,,0.2,0.8,0.4,0.6,0.6,0.4,0.6,0.4,1,0
,,6681e779f60d20a3b2b27bb3,66fc97fb6b85299257412df2,2024-10-01_21h47.32.747,mdp,2024.2.1,MacIntel,32.25806452,66fa4ebf79326e780c390304,,,,,,,,,,,,,,,,,,,,,767.28,767.28,767.281,768.078,1,0,right,0.268,,768.08,768.678,1,0,right,768.68,769.196,1,0,right,1,769.196,769.196,769.198,770.696,0,27,27,27,1,0.2,0.8,0.8,0.2,,,,,,,,,,,,,,,0.083,,0.8,0.2,0.6,0.4,0.8,0.2,0.4,0.6,,,0.002,,0.2,0.8,0.4,0.6,0.6,0.4,0.6,0.4,1,0
,,6681e779f60d20a3b2b27bb3,66fc97fb6b85299257412df2,2024-10-01_21h47.32.747,mdp,2024.2.1,MacIntel,32.25806452,66fa4ebf79326e780c390304,,,,,,,,,,,,,,,,,,,,,770.697,770.697,770.698,771.379,0,1,left,0.151,,771.38,772.046,0,0,left,772.047,772.612,0,1,left,0,772.612,772.612,772.613,774.112,0,28,28,28,1,0.2,0.8,0.8,0.2,,,,,,,,,,,,,,,0.159,,0.8,0.2,0.6,0.4,0.8,0.2,0.4,0.6,,,0.034,,0.2,0.8,0.4,0.6,0.6,0.4,0.6,0.4,1,0
,,6681e779f60d20a3b2b27bb3,66fc97fb6b85299257412df2,2024-10-01_21h47.32.747,mdp,2024.2.1,MacIntel,32.25806452,66fa4ebf79326e780c390304,,,,,,,,,,,,,,,,,,,,,774.113,774.113,774.113,774.929,1,0,right,0.284,,774.93,775.479,0,0,left,775.481,776.046,1,0,right,1,776.046,776.046,776.048,777.546,0,29,29,29,1,0.2,0.8,0.8,0.2,,,,,,,,,,,,,,,0.034,,0.8,0.2,0.6,0.4,0.8,0.2,0.4,0.6,,,0.033,,0.6,0.4,0.8,0.2,0.6,0.4,0.6,0.4,1,0
,,6681e779f60d20a3b2b27bb3,66fc97fb6b85299257412df2,2024-10-01_21h47.32.747,mdp,2024.2.1,MacIntel,32.25806452,66fa4ebf79326e780c390304,,,,,,,,,,,,,,,,,,,,,777.546,777.547,777.548,778.213,1,0,right,0.133,,778.215,778.846,1,0,right,778.847,779.496,1,0,right,1,779.496,779.497,779.498,780.996,0,30,30,30,1,0.2,0.8,0.8,0.2,,,,,,,,,,,,,,,0.101,,0.4,0.6,0.4,0.6,0.8,0.2,0.4,0.6,,,0.134,,0.6,0.4,0.8,0.2,0.6,0.4,0.6,0.4,1,0
,,6681e779f60d20a3b2b27bb3,66fc97fb6b85299257412df2,2024-10-01_21h47.32.747,mdp,2024.2.1,MacIntel,32.25806452,66fa4ebf79326e780c390304,,,,,,,,,,,,,,,,,,,,,780.997,780.997,780.999,781.563,0,1,left,0.045,,781.564,782.246,0,0,left,782.248,782.779,0,0,left,1,782.78,782.78,782.781,784.279,0,31,31,31,1,0.2,0.8,0.8,0.2,,,,,,,,,,,,,,,0.155,,0.4,0.6,0.4,0.6,0.8,0.2,0.4,0.6,,,0.021,,0.6,0.4,0.8,0.2,0.6,0.4,0.6,0.4,1,0
,,6681e779f60d20a3b2b27bb3,66fc97fb6b85299257412df2,2024-10-01_21h47.32.747,mdp,2024.2.1,MacIntel,32.25806452,66fa4ebf79326e780c390304,,,,,,,,,,,,,,,,,,,,,784.28,784.28,784.282,785.079,0,0,left,0.267,,785.08,785.729,1,1,right,785.731,786.446,0,0,left,1,786.447,786.447,786.448,787.945,0,32,32,32,1,0.2,0.8,0.8,0.2,,,,,,,,,,,,,,,0.134,,0.4,0.6,0.4,0.6,0.8,0.2,0.4,0.6,,,0.181,,0.6,0.4,0.8,0.2,0.6,0.4,0.6,0.4,1,0
,,6681e779f60d20a3b2b27bb3,66fc97fb6b85299257412df2,2024-10-01_21h47.32.747,mdp,2024.2.1,MacIntel,32.25806452,66fa4ebf79326e780c390304,,,,,,,,,,,,,,,,,,,,,787.947,787.947,787.949,788.63,1,0,right,0.152,,788.631,789.38,0,1,left,789.381,790.096,1,1,right,0,790.097,790.097,790.098,791.596,0,33,33,33,1,0.2,0.8,0.8,0.2,,,,,,,,,,,,,,,0.216,,0.4,0.6,0.4,0.6,0.8,0.2,0.4,0.6,,,0.19,,0.6,0.4,0.8,0.2,0.6,0.4,0.6,0.4,1,0
,,6681e779f60d20a3b2b27bb3,66fc97fb6b85299257412df2,2024-10-01_21h47.32.747,mdp,2024.2.1,MacIntel,32.25806452,66fa4ebf79326e780c390304,,,,,,,,,,,,,,,,,,,,,791.597,791.597,791.598,792.246,1,0,right,0.123,,792.248,793.013,1,1,right,793.014,793.612,0,1,left,0,793.612,793.613,793.614,795.113,0,34,34,34,1,0.2,0.8,0.8,0.2,,,,,,,,,,,,,,,0.233,,0.4,0.6,0.4,0.6,0.8,0.2,0.4,0.6,,,0.083,,0.6,0.4,0.8,0.2,0.6,0.4,0.6,0.4,1,0
,,6681e779f60d20a3b2b27bb3,66fc97fb6b85299257412df2,2024-10-01_21h47.32.747,mdp,2024.2.1,MacIntel,32.25806452,66fa4ebf79326e780c390304,,,,,,,,,,,,,,,,,,,,,795.114,795.114,795.116,795.713,1,0,right,0.071,,795.714,796.23,0,1,left,796.23,796.813,1,1,right,0,796.813,796.813,796.814,798.313,0,35,35,35,1,0.2,0.8,0.8,0.2,,,,,,,,,,,,,,,0.003,,0.4,0.6,0.4,0.6,0.8,0.2,0.4,0.6,,,0.059,,0.6,0.4,0.8,0.2,0.4,0.6,0.4,0.6,1,0
,,6681e779f60d20a3b2b27bb3,66fc97fb6b85299257412df2,2024-10-01_21h47.32.747,mdp,2024.2.1,MacIntel,32.25806452,66fa4ebf79326e780c390304,,,,,,,,,,,,,,,,,,,,,798.314,798.314,798.316,799.013,1,1,right,0.167,,799.015,799.546,1,1,right,799.547,800.08,1,1,right,0,800.08,800.08,800.081,801.58,0,36,36,36,1,0.2,0.8,0.8,0.2,,,,,,,,,,,,,,,0.005,,0.4,0.6,0.4,0.6,0.8,0.2,0.4,0.6,,,0.016,,0.6,0.4,0.8,0.2,0.4,0.6,0.4,0.6,1,0
,,6681e779f60d20a3b2b27bb3,66fc97fb6b85299257412df2,2024-10-01_21h47.32.747,mdp,2024.2.1,MacIntel,32.25806452,66fa4ebf79326e780c390304,,,,,,,,,,,,,,,,,,,,,801.581,801.581,801.583,802.113,1,1,right,0.006,,802.115,802.68,1,1,right,802.682,803.347,1,1,right,0,803.347,803.347,803.349,804.847,0,37,37,37,1,0.2,0.8,0.8,0.2,,,,,,,,,,,,,,,0.052,,0.6,0.4,0.8,0.2,0.8,0.2,0.4,0.6,,,0.142,,0.6,0.4,0.8,0.2,0.4,0.6,0.4,0.6,1,0
,,6681e779f60d20a3b2b27bb3,66fc97fb6b85299257412df2,2024-10-01_21h47.32.747,mdp,2024.2.1,MacIntel,32.25806452,66fa4ebf79326e780c390304,,,,,,,,,,,,,,,,,,,,,804.848,804.848,804.849,805.38,1,1,right,0.009,,805.382,805.964,1,1,right,805.966,806.497,1,1,right,0,806.497,806.497,806.499,807.996,0,38,38,38,1,0.8,0.2,0.2,0.8,,,,,,,,,,,,,,,0.069,,0.6,0.4,0.8,0.2,0.8,0.2,0.4,0.6,,,0,,0.6,0.4,0.8,0.2,0.4,0.6,0.4,0.6,1,0
,,6681e779f60d20a3b2b27bb3,66fc97fb6b85299257412df2,2024-10-01_21h47.32.747,mdp,2024.2.1,MacIntel,32.25806452,66fa4ebf79326e780c390304,,,,,,,,,,,,,,,,,,,,,807.997,807.997,807.999,808.648,1,1,right,0.133,,808.649,809.38,1,1,right,809.382,809.98,1,0,right,1,809.981,809.981,809.982,811.48,0,39,39,39,1,0.8,0.2,0.2,0.8,,,,,,,,,,,,,,,0.209,,0.6,0.4,0.8,0.2,0.8,0.2,0.4,0.6,,,0.088,,0.8,0.2,0.2,0.8,0.4,0.6,0.4,0.6,1,0
,,6681e779f60d20a3b2b27bb3,66fc97fb6b85299257412df2,2024-10-01_21h47.32.747,mdp,2024.2.1,MacIntel,32.25806452,66fa4ebf79326e780c390304,,,,,,,,,,,,,,,,,,,,,811.481,811.481,811.483,812.746,0,0,left,0.735,,812.748,813.264,1,1,right,813.266,813.847,0,1,left,0,813.847,813.847,813.849,815.347,0,40,40,40,1,0.8,0.2,0.2,0.8,,,,,,,,,,,,,,,0.001,,0.6,0.4,0.8,0.2,0.8,0.2,0.4,0.6,,,0.074,,0.8,0.2,0.2,0.8,0.4,0.6,0.4,0.6,1,0
,,6681e779f60d20a3b2b27bb3,66fc97fb6b85299257412df2,2024-10-01_21h47.32.747,mdp,2024.2.1,MacIntel,32.25806452,66fa4ebf79326e780c390304,,,,,,,,,,,,,,,,,,,,,815.348,815.349,815.35,816.081,0,1,left,0.201,,816.083,816.68,1,0,right,816.681,817.247,0,0,left,1,817.247,817.248,817.249,818.746,0,41,41,41,1,0.8,0.2,0.2,0.8,,,,,,,,,,,,,,,0.064,,0.6,0.4,0.8,0.2,0.8,0.2,0.4,0.6,,,0.029,,0.8,0.2,0.2,0.8,0.2,0.8,0.2,0.8,1,0
,,6681e779f60d20a3b2b27bb3,66fc97fb6b85299257412df2,2024-10-01_21h47.32.747,mdp,2024.2.1,MacIntel,32.25806452,66fa4ebf79326e780c390304,,,,,,,,,,,,,,,,,,,,,818.747,818.747,818.749,820.681,0,0,left,1.418,,820.682,821.264,0,1,left,821.265,821.831,0,1,left,0,821.831,821.831,821.832,823.331,0,42,42,42,1,0.8,0.2,0.2,0.8,,,,,,,,,,,,,,,0.068,,0.6,0.4,0.8,0.2,0.8,0.2,0.4,0.6,,,0.044,,0.8,0.2,0.2,0.8,0.2,0.8,0.2,0.8,1,0
,,6681e779f60d20a3b2b27bb3,66fc97fb6b85299257412df2,2024-10-01_21h47.32.747,mdp,2024.2.1,MacIntel,32.25806452,66fa4ebf79326e780c390304,,,,,,,,,,,,,,,,,,,,,823.332,823.332,823.333,823.948,0,0,left,0.091,,823.949,824.581,0,0,left,824.582,825.131,0,0,left,1,825.133,825.133,825.136,826.631,0,43,43,43,1,0.8,0.2,0.2,0.8,,,,,,,,,,,,,,,0.111,,0.6,0.4,0.8,0.2,0.8,0.2,0.4,0.6,,,0.032,,0.8,0.2,0.2,0.8,0.2,0.8,0.2,0.8,1,0
,,6681e779f60d20a3b2b27bb3,66fc97fb6b85299257412df2,2024-10-01_21h47.32.747,mdp,2024.2.1,MacIntel,32.25806452,66fa4ebf79326e780c390304,,,,,,,,,,,,,,,,,,,,,826.632,826.632,826.634,827.381,1,1,right,0.217,,827.383,827.997,0,1,left,827.999,828.697,1,0,right,1,828.697,828.697,828.699,830.197,0,44,44,44,1,0.8,0.2,0.2,0.8,,,,,,,,,,,,,,,0.096,,0.6,0.4,0.8,0.2,0.8,0.2,0.4,0.6,,,0.164,,0.8,0.2,0.2,0.8,0.2,0.8,0.2,0.8,1,0
,,6681e779f60d20a3b2b27bb3,66fc97fb6b85299257412df2,2024-10-01_21h47.32.747,mdp,2024.2.1,MacIntel,32.25806452,66fa4ebf79326e780c390304,,,,,,,,,,,,,,,,,,,,,830.198,830.198,830.199,830.814,0,0,left,0.084,,830.816,831.464,1,1,right,831.467,832.181,0,1,left,0,832.181,832.181,832.183,833.681,0,45,45,45,1,0.8,0.2,0.2,0.8,,,,,,,,,,,,,,,0.132,,0.6,0.4,0.8,0.2,0.4,0.6,0.8,0.2,,,0.185,,0.8,0.2,0.2,0.8,0.2,0.8,0.2,0.8,1,0
,,6681e779f60d20a3b2b27bb3,66fc97fb6b85299257412df2,2024-10-01_21h47.32.747,mdp,2024.2.1,MacIntel,32.25806452,66fa4ebf79326e780c390304,,,,,,,,,,,,,,,,,,,,,833.682,833.682,833.684,834.465,0,0,left,0.25,,834.466,835.281,1,0,right,835.283,835.865,1,1,right,0,835.865,835.865,835.866,837.365,0,46,46,46,1,0.8,0.2,0.2,0.8,,,,,,,,,,,,,,,0.288,,0.6,0.4,0.8,0.2,0.4,0.6,0.8,0.2,,,0.069,,0.8,0.2,0.2,0.8,0.2,0.8,0.2,0.8,1,0
,,6681e779f60d20a3b2b27bb3,66fc97fb6b85299257412df2,2024-10-01_21h47.32.747,mdp,2024.2.1,MacIntel,32.25806452,66fa4ebf79326e780c390304,,,,,,,,,,,,,,,,,,,,,837.366,837.366,837.367,837.981,1,1,right,0.092,,837.983,838.665,1,0,right,838.666,839.198,1,1,right,0,839.198,839.198,839.2,840.698,0,47,47,47,1,0.8,0.2,0.2,0.8,,,,,,,,,,,,,,,0.164,,0.6,0.4,0.8,0.2,0.4,0.6,0.8,0.2,,,0.006,,0.8,0.2,0.2,0.8,0.2,0.8,0.2,0.8,1,0
,,6681e779f60d20a3b2b27bb3,66fc97fb6b85299257412df2,2024-10-01_21h47.32.747,mdp,2024.2.1,MacIntel,32.25806452,66fa4ebf79326e780c390304,,,,,,,,,,,,,,,,,,,,,840.699,840.699,840.7,841.365,1,1,right,0.146,,841.366,841.915,1,0,right,841.916,842.631,1,1,right,0,842.631,842.631,842.633,844.132,0,48,48,48,1,0.8,0.2,0.2,0.8,,,,,,,,,,,,,,,0.034,,0.6,0.4,0.8,0.2,0.4,0.6,0.8,0.2,,,0.201,,0.8,0.2,0.2,0.8,0.2,0.8,0.2,0.8,1,0
,,6681e779f60d20a3b2b27bb3,66fc97fb6b85299257412df2,2024-10-01_21h47.32.747,mdp,2024.2.1,MacIntel,32.25806452,66fa4ebf79326e780c390304,,,,,,,,,,,,,,,,,,,,,844.133,844.133,844.134,844.765,1,1,right,0.101,,844.767,845.281,1,1,right,845.283,845.882,1,1,right,0,845.882,845.882,845.883,847.381,0,49,49,49,1,0.8,0.2,0.2,0.8,,,,,,,,,,,,,,,0.002,,0.6,0.4,0.8,0.2,0.4,0.6,0.8,0.2,,,0.081,,0.6,0.4,0.8,0.2,0.2,0.8,0.2,0.8,1,0
,,6681e779f60d20a3b2b27bb3,66fc97fb6b85299257412df2,2024-10-01_21h47.32.747,mdp,2024.2.1,MacIntel,32.25806452,66fa4ebf79326e780c390304,,,,,,,,,,,,,,,,,,,,,,,,,,,,,,,,,,,,,,,,,,,,,,,,,,,,,,,,847.384,891.367,0,2,2,8,1,imgs/cat.png,imgs/lion.png,imgs/goat.png,imgs/rabbit.png,imgs/horse.png,,,,,,,,,,,,,,,,,,,,,,,,
,,6681e779f60d20a3b2b27bb3,66fc97fb6b85299257412df2,2024-10-01_21h47.32.747,mdp,2024.2.1,MacIntel,32.25806452,66fa4ebf79326e780c390304,,,,,,,,,,,,,,3,seqs/st3seq7.csv,891.367,892.4,space,0.512,,892.404,892.404,892.405,893.533,0,1,left,0.607,,893.535,894.167,1,1,right,894.169,895.084,0,1,left,0,895.084,895.084,895.085,896.583,0,0,0,0,1,0.6,0.4,0.4,0.6,,,,,,,,,,,,,,,0.098,,0.2,0.8,0.2,0.8,0.8,0.2,0.4,0.6,,,0.382,,0.2,0.8,0.6,0.4,0.6,0.4,0.2,0.8,1,0
,,6681e779f60d20a3b2b27bb3,66fc97fb6b85299257412df2,2024-10-01_21h47.32.747,mdp,2024.2.1,MacIntel,32.25806452,66fa4ebf79326e780c390304,,,,,,,,,,,,,,,,,,,,,896.585,896.585,896.586,897.383,0,0,left,0.269,,897.385,898,1,1,right,898.003,898.583,0,0,left,1,898.583,898.583,898.585,900.084,0,1,1,1,1,0.6,0.4,0.4,0.6,,,,,,,,,,,,,,,0.103,,0.2,0.8,0.2,0.8,0.8,0.2,0.4,0.6,,,0.071,,0.2,0.8,0.6,0.4,0.6,0.4,0.2,0.8,1,0
,,6681e779f60d20a3b2b27bb3,66fc97fb6b85299257412df2,2024-10-01_21h47.32.747,mdp,2024.2.1,MacIntel,32.25806452,66fa4ebf79326e780c390304,,,,,,,,,,,,,,,,,,,,,900.084,900.084,900.086,901.867,1,0,right,1.257,,901.869,902.5,1,1,right,902.502,903.1,1,1,right,0,903.101,903.101,903.103,904.6,0,2,2,2,1,0.6,0.4,0.4,0.6,,,,,,,,,,,,,,,0.121,,0.2,0.8,0.2,0.8,0.8,0.2,0.4,0.6,,,0.067,,0.2,0.8,0.6,0.4,0.6,0.4,0.2,0.8,1,0
,,6681e779f60d20a3b2b27bb3,66fc97fb6b85299257412df2,2024-10-01_21h47.32.747,mdp,2024.2.1,MacIntel,32.25806452,66fa4ebf79326e780c390304,,,,,,,,,,,,,,,,,,,,,904.601,904.601,904.602,905.217,1,1,right,0.083,,905.219,905.95,1,1,right,905.952,906.634,1,1,right,0,906.634,906.634,906.635,908.134,0,3,3,3,1,0.6,0.4,0.4,0.6,,,,,,,,,,,,,,,0.217,,0.2,0.8,0.2,0.8,0.8,0.2,0.4,0.6,,,0.178,,0.2,0.8,0.6,0.4,0.6,0.4,0.2,0.8,1,0
,,6681e779f60d20a3b2b27bb3,66fc97fb6b85299257412df2,2024-10-01_21h47.32.747,mdp,2024.2.1,MacIntel,32.25806452,66fa4ebf79326e780c390304,,,,,,,,,,,,,,,,,,,,,908.135,908.135,908.136,908.85,1,1,right,0.194,,908.851,909.55,1,1,right,909.552,910.217,1,1,right,0,910.218,910.218,910.219,911.717,0,4,4,4,1,0.6,0.4,0.4,0.6,,,,,,,,,,,,,,,0.182,,0.2,0.8,0.2,0.8,0.8,0.2,0.4,0.6,,,0.137,,0.2,0.8,0.6,0.4,0.6,0.4,0.2,0.8,1,0
,,6681e779f60d20a3b2b27bb3,66fc97fb6b85299257412df2,2024-10-01_21h47.32.747,mdp,2024.2.1,MacIntel,32.25806452,66fa4ebf79326e780c390304,,,,,,,,,,,,,,,,,,,,,911.718,911.718,911.719,912.384,1,1,right,0.145,,912.385,913,1,1,right,913.002,913.717,1,1,right,0,913.718,913.718,913.719,915.217,0,5,5,5,1,0.6,0.4,0.4,0.6,,,,,,,,,,,,,,,0.086,,0.2,0.8,0.2,0.8,0.8,0.2,0.4,0.6,,,0.199,,0.2,0.8,0.6,0.4,0.6,0.4,0.2,0.8,1,0
,,6681e779f60d20a3b2b27bb3,66fc97fb6b85299257412df2,2024-10-01_21h47.32.747,mdp,2024.2.1,MacIntel,32.25806452,66fa4ebf79326e780c390304,,,,,,,,,,,,,,,,,,,,,915.219,915.219,915.221,915.767,1,1,right,0.027,,915.769,916.417,1,1,right,916.419,917.034,1,1,right,0,917.034,917.034,917.036,918.534,0,6,6,6,1,0.6,0.4,0.4,0.6,,,,,,,,,,,,,,,0.12,,0.2,0.8,0.2,0.8,0.8,0.2,0.4,0.6,,,0.101,,0.2,0.8,0.6,0.4,0.6,0.4,0.2,0.8,1,0
,,6681e779f60d20a3b2b27bb3,66fc97fb6b85299257412df2,2024-10-01_21h47.32.747,mdp,2024.2.1,MacIntel,32.25806452,66fa4ebf79326e780c390304,,,,,,,,,,,,,,,,,,,,,918.535,918.535,918.537,919.101,1,0,right,0.042,,919.103,919.617,1,1,right,919.619,920.268,1,1,right,0,920.268,920.268,920.269,921.768,0,7,7,7,1,0.6,0.4,0.4,0.6,,,,,,,,,,,,,,,0.005,,0.2,0.8,0.2,0.8,0.8,0.2,0.4,0.6,,,0.142,,0.8,0.2,0.4,0.6,0.6,0.4,0.2,0.8,1,0
,,6681e779f60d20a3b2b27bb3,66fc97fb6b85299257412df2,2024-10-01_21h47.32.747,mdp,2024.2.1,MacIntel,32.25806452,66fa4ebf79326e780c390304,,,,,,,,,,,,,,,,,,,,,921.769,921.769,921.77,922.317,1,0,right,0.024,,922.319,922.934,1,1,right,922.936,923.534,1,1,right,0,923.534,923.534,923.535,925.034,0,8,8,8,1,0.6,0.4,0.4,0.6,,,,,,,,,,,,,,,0.083,,0.2,0.8,0.2,0.8,0.8,0.2,0.4,0.6,,,0.068,,0.8,0.2,0.4,0.6,0.6,0.4,0.2,0.8,1,0
,,6681e779f60d20a3b2b27bb3,66fc97fb6b85299257412df2,2024-10-01_21h47.32.747,mdp,2024.2.1,MacIntel,32.25806452,66fa4ebf79326e780c390304,,,,,,,,,,,,,,,,,,,,,925.035,925.035,925.036,925.584,1,0,right,0.028,,925.586,926.201,1,1,right,926.203,926.767,1,1,right,0,926.767,926.767,926.769,928.267,0,9,9,9,1,0.6,0.4,0.4,0.6,,,,,,,,,,,,,,,0.101,,0.2,0.8,0.2,0.8,0.8,0.2,0.4,0.6,,,0.035,,0.8,0.2,0.4,0.6,0.6,0.4,0.2,0.8,1,0
,,6681e779f60d20a3b2b27bb3,66fc97fb6b85299257412df2,2024-10-01_21h47.32.747,mdp,2024.2.1,MacIntel,32.25806452,66fa4ebf79326e780c390304,,,,,,,,,,,,,,,,,,,,,928.268,928.268,928.27,929.084,1,1,right,0.303,,929.087,929.7,1,1,right,929.702,930.251,1,0,right,1,930.251,930.251,930.253,931.752,0,10,10,10,1,0.6,0.4,0.4,0.6,,,,,,,,,,,,,,,0.08,,0.2,0.8,0.2,0.8,0.8,0.2,0.4,0.6,,,0.033,,0.8,0.2,0.4,0.6,0.6,0.4,0.2,0.8,1,0
,,6681e779f60d20a3b2b27bb3,66fc97fb6b85299257412df2,2024-10-01_21h47.32.747,mdp,2024.2.1,MacIntel,32.25806452,66fa4ebf79326e780c390304,,,,,,,,,,,,,,,,,,,,,931.752,931.752,931.754,932.451,1,0,right,0.174,,932.453,933.018,1,1,right,933.02,933.735,1,0,right,1,933.735,933.735,933.736,935.235,0,11,11,11,1,0.6,0.4,0.4,0.6,,,,,,,,,,,,,,,0.029,,0.2,0.8,0.2,0.8,0.8,0.2,0.4,0.6,,,0.184,,0.8,0.2,0.4,0.6,0.8,0.2,0.8,0.2,1,0
,,6681e779f60d20a3b2b27bb3,66fc97fb6b85299257412df2,2024-10-01_21h47.32.747,mdp,2024.2.1,MacIntel,32.25806452,66fa4ebf79326e780c390304,,,,,,,,,,,,,,,,,,,,,935.236,935.236,935.237,935.834,1,0,right,0.072,,935.835,936.435,1,1,right,936.437,937.101,1,0,right,1,937.102,937.102,937.103,938.602,0,12,12,12,1,0.6,0.4,0.4,0.6,,,,,,,,,,,,,,,0.083,,0.2,0.8,0.2,0.8,0.8,0.2,0.4,0.6,,,0.135,,0.8,0.2,0.4,0.6,0.8,0.2,0.8,0.2,1,0
,,6681e779f60d20a3b2b27bb3,66fc97fb6b85299257412df2,2024-10-01_21h47.32.747,mdp,2024.2.1,MacIntel,32.25806452,66fa4ebf79326e780c390304,,,,,,,,,,,,,,,,,,,,,938.603,938.603,938.604,939.235,1,1,right,0.106,,939.237,939.818,1,1,right,939.819,940.368,1,0,right,1,940.368,940.368,940.37,941.868,0,13,13,13,1,0.6,0.4,0.4,0.6,,,,,,,,,,,,,,,0.063,,0.2,0.8,0.2,0.8,0.8,0.2,0.4,0.6,,,0.035,,0.8,0.2,0.4,0.6,0.8,0.2,0.8,0.2,1,0
,,6681e779f60d20a3b2b27bb3,66fc97fb6b85299257412df2,2024-10-01_21h47.32.747,mdp,2024.2.1,MacIntel,32.25806452,66fa4ebf79326e780c390304,,,,,,,,,,,,,,,,,,,,,941.869,941.869,941.871,942.535,1,0,right,0.134,,942.537,943.119,1,1,right,943.12,944.019,1,1,right,0,944.019,944.019,944.021,945.518,0,14,14,14,1,0.6,0.4,0.4,0.6,,,,,,,,,,,,,,,0.066,,0.2,0.8,0.2,0.8,0.8,0.2,0.4,0.6,,,0.367,,0.8,0.2,0.4,0.6,0.8,0.2,0.8,0.2,1,0
,,6681e779f60d20a3b2b27bb3,66fc97fb6b85299257412df2,2024-10-01_21h47.32.747,mdp,2024.2.1,MacIntel,32.25806452,66fa4ebf79326e780c390304,,,,,,,,,,,,,,,,,,,,,945.519,945.519,945.52,946.085,0,0,left,0.033,,946.087,946.602,0,0,left,946.604,947.235,0,0,left,1,947.235,947.235,947.237,948.735,0,15,15,15,1,0.6,0.4,0.4,0.6,,,,,,,,,,,,,,,0.001,,0.2,0.8,0.2,0.8,0.8,0.2,0.4,0.6,,,0.114,,0.8,0.2,0.4,0.6,0.8,0.2,0.8,0.2,1,0
,,6681e779f60d20a3b2b27bb3,66fc97fb6b85299257412df2,2024-10-01_21h47.32.747,mdp,2024.2.1,MacIntel,32.25806452,66fa4ebf79326e780c390304,,,,,,,,,,,,,,,,,,,,,948.736,948.736,948.737,949.352,0,1,left,0.086,,949.354,949.968,0,0,left,949.97,950.635,0,0,left,1,950.636,950.636,950.637,952.136,0,16,16,16,1,0.6,0.4,0.4,0.6,,,,,,,,,,,,,,,0.095,,0.2,0.8,0.2,0.8,0.8,0.2,0.4,0.6,,,0.161,,0.8,0.2,0.4,0.6,0.8,0.2,0.8,0.2,1,0
,,6681e779f60d20a3b2b27bb3,66fc97fb6b85299257412df2,2024-10-01_21h47.32.747,mdp,2024.2.1,MacIntel,32.25806452,66fa4ebf79326e780c390304,,,,,,,,,,,,,,,,,,,,,952.137,952.137,952.138,952.719,0,1,left,0.053,,952.721,953.435,0,0,left,953.437,953.968,0,1,left,0,953.968,953.968,953.969,955.469,0,17,17,17,1,0.6,0.4,0.4,0.6,,,,,,,,,,,,,,,0.183,,0.2,0.8,0.2,0.8,0.8,0.2,0.4,0.6,,,0.026,,0.8,0.2,0.4,0.6,0.8,0.2,0.8,0.2,1,0
,,6681e779f60d20a3b2b27bb3,66fc97fb6b85299257412df2,2024-10-01_21h47.32.747,mdp,2024.2.1,MacIntel,32.25806452,66fa4ebf79326e780c390304,,,,,,,,,,,,,,,,,,,,,955.47,955.47,955.471,956.203,1,1,right,0.21,,956.204,956.835,1,1,right,956.837,957.486,1,0,right,1,957.486,957.486,957.488,958.985,0,18,18,18,1,0.6,0.4,0.4,0.6,,,,,,,,,,,,,,,0.109,,0.2,0.8,0.2,0.8,0.8,0.2,0.4,0.6,,,0.138,,0.8,0.2,0.4,0.6,0.8,0.2,0.8,0.2,1,0
,,6681e779f60d20a3b2b27bb3,66fc97fb6b85299257412df2,2024-10-01_21h47.32.747,mdp,2024.2.1,MacIntel,32.25806452,66fa4ebf79326e780c390304,,,,,,,,,,,,,,,,,,,,,958.986,958.986,958.987,959.652,1,0,right,0.135,,959.653,960.269,1,1,right,960.271,960.969,1,0,right,1,960.969,960.969,960.971,962.469,0,19,19,19,1,0.6,0.4,0.4,0.6,,,,,,,,,,,,,,,0.101,,0.2,0.8,0.2,0.8,0.6,0.4,0.8,0.2,,,0.167,,0.8,0.2,0.4,0.6,0.8,0.2,0.8,0.2,1,0
,,6681e779f60d20a3b2b27bb3,66fc97fb6b85299257412df2,2024-10-01_21h47.32.747,mdp,2024.2.1,MacIntel,32.25806452,66fa4ebf79326e780c390304,,,,,,,,,,,,,,,,,,,,,962.47,962.47,962.472,963.086,1,1,right,0.084,,963.087,963.803,1,0,right,963.804,964.519,1,1,right,0,964.519,964.519,964.521,966.019,0,20,20,20,1,0.6,0.4,0.4,0.6,,,,,,,,,,,,,,,0.189,,0.2,0.8,0.2,0.8,0.6,0.4,0.8,0.2,,,0.189,,0.8,0.2,0.4,0.6,0.8,0.2,0.8,0.2,1,0
,,6681e779f60d20a3b2b27bb3,66fc97fb6b85299257412df2,2024-10-01_21h47.32.747,mdp,2024.2.1,MacIntel,32.25806452,66fa4ebf79326e780c390304,,,,,,,,,,,,,,,,,,,,,966.02,966.02,966.022,966.636,0,0,left,0.091,,966.638,967.286,0,1,left,967.286,967.986,0,0,left,1,967.986,967.986,967.988,969.486,0,21,21,21,1,0.6,0.4,0.4,0.6,,,,,,,,,,,,,,,0.134,,0.2,0.8,0.2,0.8,0.6,0.4,0.8,0.2,,,0.166,,0.8,0.2,0.4,0.6,0.8,0.2,0.8,0.2,1,0
,,6681e779f60d20a3b2b27bb3,66fc97fb6b85299257412df2,2024-10-01_21h47.32.747,mdp,2024.2.1,MacIntel,32.25806452,66fa4ebf79326e780c390304,,,,,,,,,,,,,,,,,,,,,969.487,969.487,969.488,970.169,0,1,left,0.151,,970.171,970.836,0,1,left,970.838,971.419,0,0,left,1,971.419,971.419,971.421,972.919,0,22,22,22,1,0.2,0.8,0.6,0.4,,,,,,,,,,,,,,,0.147,,0.2,0.8,0.2,0.8,0.6,0.4,0.8,0.2,,,0.072,,0.8,0.2,0.4,0.6,0.8,0.2,0.8,0.2,1,0
,,6681e779f60d20a3b2b27bb3,66fc97fb6b85299257412df2,2024-10-01_21h47.32.747,mdp,2024.2.1,MacIntel,32.25806452,66fa4ebf79326e780c390304,,,,,,,,,,,,,,,,,,,,,972.92,972.92,972.922,973.636,1,0,right,0.185,,973.638,974.353,1,1,right,974.355,974.919,1,0,right,1,974.92,974.92,974.921,976.42,0,23,23,23,1,0.2,0.8,0.6,0.4,,,,,,,,,,,,,,,0.196,,0.2,0.8,0.2,0.8,0.6,0.4,0.8,0.2,,,0.06,,0.8,0.2,0.4,0.6,0.8,0.2,0.8,0.2,1,0
,,6681e779f60d20a3b2b27bb3,66fc97fb6b85299257412df2,2024-10-01_21h47.32.747,mdp,2024.2.1,MacIntel,32.25806452,66fa4ebf79326e780c390304,,,,,,,,,,,,,,,,,,,,,976.42,976.42,976.421,977.053,1,0,right,0.11,,977.055,977.753,1,0,right,977.755,978.42,1,1,right,0,978.42,978.42,978.422,979.92,0,24,24,24,1,0.2,0.8,0.6,0.4,,,,,,,,,,,,,,,0.19,,0.2,0.8,0.2,0.8,0.6,0.4,0.8,0.2,,,0.148,,0.8,0.2,0.4,0.6,0.8,0.2,0.8,0.2,1,0
,,6681e779f60d20a3b2b27bb3,66fc97fb6b85299257412df2,2024-10-01_21h47.32.747,mdp,2024.2.1,MacIntel,32.25806452,66fa4ebf79326e780c390304,,,,,,,,,,,,,,,,,,,,,979.92,979.92,979.921,980.702,0,1,left,0.249,,980.703,981.436,0,0,left,981.437,981.969,0,1,left,0,981.97,981.97,981.971,983.47,0,25,25,25,1,0.2,0.8,0.6,0.4,,,,,,,,,,,,,,,0.224,,0.2,0.8,0.2,0.8,0.6,0.4,0.8,0.2,,,0.017,,0.8,0.2,0.4,0.6,0.8,0.2,0.8,0.2,1,0
,,6681e779f60d20a3b2b27bb3,66fc97fb6b85299257412df2,2024-10-01_21h47.32.747,mdp,2024.2.1,MacIntel,32.25806452,66fa4ebf79326e780c390304,,,,,,,,,,,,,,,,,,,,,983.471,983.471,983.472,984.136,0,1,left,0.136,,984.138,984.82,0,0,left,984.821,985.487,0,1,left,0,985.487,985.487,985.488,986.986,0,26,26,26,1,0.2,0.8,0.6,0.4,,,,,,,,,,,,,,,0.167,,0.2,0.8,0.2,0.8,0.6,0.4,0.8,0.2,,,0.133,,0.8,0.2,0.4,0.6,0.8,0.2,0.8,0.2,1,0
,,6681e779f60d20a3b2b27bb3,66fc97fb6b85299257412df2,2024-10-01_21h47.32.747,mdp,2024.2.1,MacIntel,32.25806452,66fa4ebf79326e780c390304,,,,,,,,,,,,,,,,,,,,,986.987,986.987,986.988,987.587,0,1,left,0.067,,987.588,988.204,0,1,left,988.205,988.82,0,0,left,1,988.82,988.82,988.822,990.319,0,27,27,27,1,0.2,0.8,0.6,0.4,,,,,,,,,,,,,,,0.084,,0.2,0.8,0.2,0.8,0.6,0.4,0.8,0.2,,,0.085,,0.8,0.2,0.4,0.6,0.8,0.2,0.8,0.2,1,0
,,6681e779f60d20a3b2b27bb3,66fc97fb6b85299257412df2,2024-10-01_21h47.32.747,mdp,2024.2.1,MacIntel,32.25806452,66fa4ebf79326e780c390304,,,,,,,,,,,,,,,,,,,,,990.32,990.32,990.322,990.953,0,1,left,0.1,,990.955,991.47,0,0,left,991.472,992.004,0,0,left,1,992.004,992.004,992.005,993.503,0,28,28,28,1,0.2,0.8,0.6,0.4,,,,,,,,,,,,,,,0.003,,0.2,0.8,0.2,0.8,0.6,0.4,0.8,0.2,,,0.016,,0.8,0.2,0.4,0.6,0.8,0.2,0.8,0.2,1,0
,,6681e779f60d20a3b2b27bb3,66fc97fb6b85299257412df2,2024-10-01_21h47.32.747,mdp,2024.2.1,MacIntel,32.25806452,66fa4ebf79326e780c390304,,,,,,,,,,,,,,,,,,,,,993.504,993.504,993.505,994.136,1,0,right,0.106,,994.138,994.737,1,1,right,994.738,995.354,1,0,right,1,995.354,995.354,995.356,996.853,0,29,29,29,1,0.2,0.8,0.6,0.4,,,,,,,,,,,,,,,0.08,,0.2,0.8,0.2,0.8,0.6,0.4,0.8,0.2,,,0.101,,0.8,0.2,0.4,0.6,0.8,0.2,0.8,0.2,1,0
,,6681e779f60d20a3b2b27bb3,66fc97fb6b85299257412df2,2024-10-01_21h47.32.747,mdp,2024.2.1,MacIntel,32.25806452,66fa4ebf79326e780c390304,,,,,,,,,,,,,,,,,,,,,996.853,996.853,996.855,997.47,1,0,right,0.084,,997.472,998.12,1,1,right,998.122,998.669,1,0,right,1,998.67,998.67,998.671,1000.17,0,30,30,30,1,0.2,0.8,0.6,0.4,,,,,,,,,,,,,,,0.118,,0.2,0.8,0.2,0.8,0.6,0.4,0.8,0.2,,,0.044,,0.8,0.2,0.4,0.6,0.8,0.2,0.8,0.2,1,0
,,6681e779f60d20a3b2b27bb3,66fc97fb6b85299257412df2,2024-10-01_21h47.32.747,mdp,2024.2.1,MacIntel,32.25806452,66fa4ebf79326e780c390304,,,,,,,,,,,,,,,,,,,,,1000.17,1000.17,1000.171,1000.82,0,0,left,0.135,,1000.822,1001.454,0,0,left,1001.456,1002.137,0,0,left,1,1002.137,1002.137,1002.138,1003.637,0,31,31,31,1,0.2,0.8,0.6,0.4,,,,,,,,,,,,,,,0.128,,0.2,0.8,0.2,0.8,0.6,0.4,0.8,0.2,,,0.176,,0.8,0.2,0.4,0.6,0.8,0.2,0.8,0.2,1,0
,,6681e779f60d20a3b2b27bb3,66fc97fb6b85299257412df2,2024-10-01_21h47.32.747,mdp,2024.2.1,MacIntel,32.25806452,66fa4ebf79326e780c390304,,,,,,,,,,,,,,,,,,,,,1003.638,1003.638,1003.639,1004.22,0,1,left,0.053,,1004.222,1004.737,0,1,left,1004.738,1005.27,0,0,left,1,1005.271,1005.271,1005.272,1006.77,0,32,32,32,1,0.2,0.8,0.6,0.4,,,,,,,,,,,,,,,0.001,,0.2,0.8,0.2,0.8,0.6,0.4,0.8,0.2,,,0.025,,0.8,0.2,0.4,0.6,0.8,0.2,0.8,0.2,1,0
,,6681e779f60d20a3b2b27bb3,66fc97fb6b85299257412df2,2024-10-01_21h47.32.747,mdp,2024.2.1,MacIntel,32.25806452,66fa4ebf79326e780c390304,,,,,,,,,,,,,,,,,,,,,1006.77,1006.77,1006.772,1007.421,1,1,right,0.133,,1007.423,1008.004,1,0,right,1008.005,1008.688,1,1,right,0,1008.688,1008.688,1008.69,1010.187,0,33,33,33,1,0.2,0.8,0.6,0.4,,,,,,,,,,,,,,,0.054,,0.2,0.8,0.2,0.8,0.6,0.4,0.8,0.2,,,0.164,,0.8,0.2,0.4,0.6,0.8,0.2,0.8,0.2,1,0
,,6681e779f60d20a3b2b27bb3,66fc97fb6b85299257412df2,2024-10-01_21h47.32.747,mdp,2024.2.1,MacIntel,32.25806452,66fa4ebf79326e780c390304,,,,,,,,,,,,,,,,,,,,,1010.189,1010.189,1010.19,1010.721,1,0,right,0.001,,1010.723,1011.271,1,0,right,1011.272,1011.97,1,0,right,1,1011.97,1011.971,1011.972,1013.471,0,34,34,34,1,0.2,0.8,0.6,0.4,,,,,,,,,,,,,,,0.015,,0.2,0.8,0.2,0.8,0.6,0.4,0.8,0.2,,,0.193,,0.8,0.2,0.4,0.6,0.8,0.2,0.8,0.2,1,0
,,6681e779f60d20a3b2b27bb3,66fc97fb6b85299257412df2,2024-10-01_21h47.32.747,mdp,2024.2.1,MacIntel,32.25806452,66fa4ebf79326e780c390304,,,,,,,,,,,,,,,,,,,,,1013.472,1013.472,1013.473,1014.004,1,0,right,0.001,,1014.006,1014.604,1,1,right,1014.606,1015.22,1,0,right,1,1015.22,1015.22,1015.221,1016.72,0,35,35,35,1,0.2,0.8,0.6,0.4,,,,,,,,,,,,,,,0.093,,0.2,0.8,0.2,0.8,0.6,0.4,0.8,0.2,,,0.094,,0.8,0.2,0.4,0.6,0.8,0.2,0.8,0.2,1,0
,,6681e779f60d20a3b2b27bb3,66fc97fb6b85299257412df2,2024-10-01_21h47.32.747,mdp,2024.2.1,MacIntel,32.25806452,66fa4ebf79326e780c390304,,,,,,,,,,,,,,,,,,,,,1016.721,1016.721,1016.721,1017.371,1,0,right,0.136,,1017.373,1017.988,1,1,right,1017.989,1018.538,1,0,right,1,1018.538,1018.538,1018.54,1020.037,0,36,36,36,1,0.2,0.8,0.6,0.4,,,,,,,,,,,,,,,0.103,,0.2,0.8,0.2,0.8,0.6,0.4,0.8,0.2,,,0.037,,0.8,0.2,0.4,0.6,0.8,0.2,0.8,0.2,1,0
,,6681e779f60d20a3b2b27bb3,66fc97fb6b85299257412df2,2024-10-01_21h47.32.747,mdp,2024.2.1,MacIntel,32.25806452,66fa4ebf79326e780c390304,,,,,,,,,,,,,,,,,,,,,1020.038,1020.038,1020.04,1020.571,0,1,left,0,,1020.573,1021.204,0,0,left,1021.206,1021.771,0,1,left,0,1021.771,1021.771,1021.774,1023.271,0,37,37,37,1,0.2,0.8,0.6,0.4,,,,,,,,,,,,,,,0.101,,0.8,0.2,0.4,0.6,0.6,0.4,0.8,0.2,,,0.047,,0.8,0.2,0.4,0.6,0.8,0.2,0.8,0.2,1,0
,,6681e779f60d20a3b2b27bb3,66fc97fb6b85299257412df2,2024-10-01_21h47.32.747,mdp,2024.2.1,MacIntel,32.25806452,66fa4ebf79326e780c390304,,,,,,,,,,,,,,,,,,,,,1023.272,1023.272,1023.273,1023.938,0,1,left,0.145,,1023.939,1024.505,0,0,left,1024.506,1025.055,0,0,left,1,1025.055,1025.055,1025.056,1026.555,0,38,38,38,1,0.2,0.8,0.6,0.4,,,,,,,,,,,,,,,0.051,,0.8,0.2,0.4,0.6,0.6,0.4,0.8,0.2,,,0.017,,0.8,0.2,0.4,0.6,0.8,0.2,0.8,0.2,1,0
,,6681e779f60d20a3b2b27bb3,66fc97fb6b85299257412df2,2024-10-01_21h47.32.747,mdp,2024.2.1,MacIntel,32.25806452,66fa4ebf79326e780c390304,,,,,,,,,,,,,,,,,,,,,1026.556,1026.556,1026.557,1027.238,0,0,left,0.154,,1027.24,1027.788,0,0,left,1027.789,1028.338,0,0,left,1,1028.338,1028.338,1028.34,1029.838,0,39,39,39,1,0.2,0.8,0.6,0.4,,,,,,,,,,,,,,,0.037,,0.8,0.2,0.4,0.6,0.6,0.4,0.8,0.2,,,0.034,,0.8,0.2,0.4,0.6,0.8,0.2,0.8,0.2,1,0
,,6681e779f60d20a3b2b27bb3,66fc97fb6b85299257412df2,2024-10-01_21h47.32.747,mdp,2024.2.1,MacIntel,32.25806452,66fa4ebf79326e780c390304,,,,,,,,,,,,,,,,,,,,,1029.839,1029.839,1029.84,1030.371,0,0,left,0.001,,1030.372,1031.071,0,0,left,1031.073,1031.738,0,0,left,1,1031.738,1031.738,1031.74,1033.238,0,40,40,40,1,0.2,0.8,0.6,0.4,,,,,,,,,,,,,,,0.183,,0.8,0.2,0.4,0.6,0.6,0.4,0.8,0.2,,,0.149,,0.8,0.2,0.4,0.6,0.8,0.2,0.8,0.2,1,0
,,6681e779f60d20a3b2b27bb3,66fc97fb6b85299257412df2,2024-10-01_21h47.32.747,mdp,2024.2.1,MacIntel,32.25806452,66fa4ebf79326e780c390304,,,,,,,,,,,,,,,,,,,,,1033.239,1033.239,1033.24,1034.038,0,1,left,0.267,,1034.04,1034.689,0,1,left,1034.69,1035.358,0,0,left,1,1035.359,1035.359,1035.36,1036.855,0,41,41,41,1,0.2,0.8,0.6,0.4,,,,,,,,,,,,,,,0.131,,0.8,0.2,0.4,0.6,0.6,0.4,0.8,0.2,,,0.133,,0.8,0.2,0.4,0.6,0.8,0.2,0.8,0.2,1,0
,,6681e779f60d20a3b2b27bb3,66fc97fb6b85299257412df2,2024-10-01_21h47.32.747,mdp,2024.2.1,MacIntel,32.25806452,66fa4ebf79326e780c390304,,,,,,,,,,,,,,,,,,,,,1036.857,1036.857,1036.858,1037.455,1,0,right,0.066,,1037.457,1037.988,1,1,right,1037.99,1038.672,1,0,right,1,1038.672,1038.672,1038.672,1040.172,0,42,42,42,1,0.2,0.8,0.6,0.4,,,,,,,,,,,,,,,0.011,,0.8,0.2,0.4,0.6,0.6,0.4,0.8,0.2,,,0.175,,0.8,0.2,0.4,0.6,0.8,0.2,0.8,0.2,1,0
,,6681e779f60d20a3b2b27bb3,66fc97fb6b85299257412df2,2024-10-01_21h47.32.747,mdp,2024.2.1,MacIntel,32.25806452,66fa4ebf79326e780c390304,,,,,,,,,,,,,,,,,,,,,1040.173,1040.173,1040.174,1040.822,1,0,right,0.129,,1040.824,1041.505,1,0,right,1041.507,1042.172,1,0,right,1,1042.172,1042.172,1042.174,1043.672,0,43,43,43,1,0.2,0.8,0.6,0.4,,,,,,,,,,,,,,,0.16,,0.8,0.2,0.4,0.6,0.6,0.4,0.8,0.2,,,0.139,,0.6,0.4,0.8,0.2,0.8,0.2,0.8,0.2,1,0
,,6681e779f60d20a3b2b27bb3,66fc97fb6b85299257412df2,2024-10-01_21h47.32.747,mdp,2024.2.1,MacIntel,32.25806452,66fa4ebf79326e780c390304,,,,,,,,,,,,,,,,,,,,,1043.673,1043.673,1043.674,1044.305,1,1,right,0.106,,1044.306,1044.872,1,1,right,1044.873,1045.489,1,1,right,0,1045.489,1045.489,1045.491,1046.989,0,44,44,44,1,0.2,0.8,0.6,0.4,,,,,,,,,,,,,,,0.032,,0.8,0.2,0.4,0.6,0.6,0.4,0.8,0.2,,,0.099,,0.6,0.4,0.8,0.2,0.8,0.2,0.8,0.2,1,0
,,6681e779f60d20a3b2b27bb3,66fc97fb6b85299257412df2,2024-10-01_21h47.32.747,mdp,2024.2.1,MacIntel,32.25806452,66fa4ebf79326e780c390304,,,,,,,,,,,,,,,,,,,,,1046.99,1046.99,1046.991,1047.705,0,1,left,0.184,,1047.707,1048.389,0,0,left,1048.391,1048.905,0,0,left,1,1048.905,1048.905,1048.906,1050.405,0,45,45,45,1,0.2,0.8,0.6,0.4,,,,,,,,,,,,,,,0.153,,0.8,0.2,0.4,0.6,0.6,0.4,0.8,0.2,,,0,,0.6,0.4,0.8,0.2,0.8,0.2,0.8,0.2,1,0
,,6681e779f60d20a3b2b27bb3,66fc97fb6b85299257412df2,2024-10-01_21h47.32.747,mdp,2024.2.1,MacIntel,32.25806452,66fa4ebf79326e780c390304,,,,,,,,,,,,,,,,,,,,,1050.406,1050.406,1050.407,1050.972,1,0,right,0.037,,1050.974,1051.655,1,0,right,1051.657,1052.172,1,1,right,0,1052.172,1052.172,1052.174,1053.672,0,46,46,46,1,0.2,0.8,0.6,0.4,,,,,,,,,,,,,,,0.164,,0.8,0.2,0.4,0.6,0.6,0.4,0.8,0.2,,,0.004,,0.6,0.4,0.8,0.2,0.8,0.2,0.8,0.2,1,0
,,6681e779f60d20a3b2b27bb3,66fc97fb6b85299257412df2,2024-10-01_21h47.32.747,mdp,2024.2.1,MacIntel,32.25806452,66fa4ebf79326e780c390304,,,,,,,,,,,,,,,,,,,,,1053.673,1053.673,1053.675,1054.255,1,0,right,0.05,,1054.257,1054.772,1,1,right,1054.774,1055.389,1,0,right,1,1055.389,1055.389,1055.39,1056.889,0,47,47,47,1,0.2,0.8,0.6,0.4,,,,,,,,,,,,,,,0,,0.8,0.2,0.4,0.6,0.6,0.4,0.8,0.2,,,0.095,,0.6,0.4,0.8,0.2,0.8,0.2,0.8,0.2,1,0
,,6681e779f60d20a3b2b27bb3,66fc97fb6b85299257412df2,2024-10-01_21h47.32.747,mdp,2024.2.1,MacIntel,32.25806452,66fa4ebf79326e780c390304,,,,,,,,,,,,,,,,,,,,,1056.89,1056.89,1056.891,1057.422,1,1,right,0.004,,1057.423,1058.056,1,0,right,1058.057,1058.605,1,0,right,1,1058.605,1058.605,1058.606,1060.106,0,48,48,48,1,0.2,0.8,0.6,0.4,,,,,,,,,,,,,,,0.115,,0.6,0.4,0.2,0.8,0.6,0.4,0.8,0.2,,,0.036,,0.6,0.4,0.8,0.2,0.8,0.2,0.8,0.2,1,0
,,6681e779f60d20a3b2b27bb3,66fc97fb6b85299257412df2,2024-10-01_21h47.32.747,mdp,2024.2.1,MacIntel,32.25806452,66fa4ebf79326e780c390304,,,,,,,,,,,,,,,,,,,,,1060.106,1060.106,1060.107,1060.772,1,0,right,0.148,,1060.774,1061.289,1,1,right,1061.29,1061.972,1,0,right,1,1061.973,1061.973,1061.974,1063.472,0,49,49,49,1,0.2,0.8,0.6,0.4,,,,,,,,,,,,,,,0,,0.6,0.4,0.2,0.8,0.6,0.4,0.8,0.2,,,0.169,,0.6,0.4,0.8,0.2,0.8,0.2,0.8,0.2,1,0
,,6681e779f60d20a3b2b27bb3,66fc97fb6b85299257412df2,2024-10-01_21h47.32.747,mdp,2024.2.1,MacIntel,32.25806452,66fa4ebf79326e780c390304,,,,,,,,,,,,,,,,,,,,,,,,,,,,,,,,,,,,,,,,,,,,,,,,,,,,,,,,1063.473,1144.668,0,3,3,4,1,imgs/lion.png,imgs/dog.png,imgs/elephant.png,imgs/giraffe.png,imgs/kangaroo.png,,,,,,,,,,,,,,,,,,,,,,,,
,,6681e779f60d20a3b2b27bb3,66fc97fb6b85299257412df2,2024-10-01_21h47.32.747,mdp,2024.2.1,MacIntel,32.25806452,66fa4ebf79326e780c390304,,,,,,,,,,,,,,1,seqs/st1seq47.csv,1144.67,1146.425,space,1.234,,1146.427,1146.427,1146.428,1147.643,0,1,left,0.68,,1147.644,1147.646,1,0,,1147.647,1147.647,1,0,,0,1147.648,1147.648,1147.648,1149.143,0,0,0,0,1,0.8,0.2,0.4,0.6,1,0,,,,,,,,,,,,,,,,,,,,,,,,,,,,,,,,,,,,
,,6681e779f60d20a3b2b27bb3,66fc97fb6b85299257412df2,2024-10-01_21h47.32.747,mdp,2024.2.1,MacIntel,32.25806452,66fa4ebf79326e780c390304,,,,,,,,,,,,,,,,,,,,,1149.144,1149.144,1149.146,1149.976,0,0,left,0.3,,1149.977,1149.978,1,0,,1149.979,1149.98,1,0,,1,1149.98,1149.98,1149.981,1151.475,0,1,1,1,1,0.8,0.2,0.4,0.6,1,0,,,,,,,,,,,,,,,,,,,,,,,,,,,,,,,,,,,,
,,6681e779f60d20a3b2b27bb3,66fc97fb6b85299257412df2,2024-10-01_21h47.32.747,mdp,2024.2.1,MacIntel,32.25806452,66fa4ebf79326e780c390304,,,,,,,,,,,,,,,,,,,,,1151.476,1151.476,1151.478,1152.325,1,1,right,0.323,,1152.327,1152.328,1,1,,1152.329,1152.33,1,1,,0,1152.33,1152.33,1152.33,1153.826,0,2,2,2,1,0.8,0.2,0.4,0.6,1,0,,,,,,,,,,,,,,,,,,,,,,,,,,,,,,,,,,,,
,,6681e779f60d20a3b2b27bb3,66fc97fb6b85299257412df2,2024-10-01_21h47.32.747,mdp,2024.2.1,MacIntel,32.25806452,66fa4ebf79326e780c390304,,,,,,,,,,,,,,,,,,,,,1153.827,1153.827,1153.827,1154.592,1,1,right,0.245,,1154.594,1154.596,1,0,,1154.597,1154.597,1,0,,0,1154.597,1154.597,1154.598,1156.093,0,3,3,3,1,0.8,0.2,0.4,0.6,1,0,,,,,,,,,,,,,,,,,,,,,,,,,,,,,,,,,,,,
,,6681e779f60d20a3b2b27bb3,66fc97fb6b85299257412df2,2024-10-01_21h47.32.747,mdp,2024.2.1,MacIntel,32.25806452,66fa4ebf79326e780c390304,,,,,,,,,,,,,,,,,,,,,1156.093,1156.093,1156.095,1157.076,1,1,right,0.451,,1157.078,1157.079,1,1,,1157.079,1157.08,1,1,,0,1157.08,1157.08,1157.08,1158.576,0,4,4,4,1,0.8,0.2,0.4,0.6,1,0,,,,,,,,,,,,,,,,,,,,,,,,,,,,,,,,,,,,
,,6681e779f60d20a3b2b27bb3,66fc97fb6b85299257412df2,2024-10-01_21h47.32.747,mdp,2024.2.1,MacIntel,32.25806452,66fa4ebf79326e780c390304,,,,,,,,,,,,,,,,,,,,,1158.577,1158.577,1158.578,1159.359,1,0,right,0.258,,1159.361,1159.363,1,1,,1159.364,1159.365,1,1,,1,1159.365,1159.365,1159.365,1160.859,0,5,5,5,1,0.8,0.2,0.4,0.6,1,0,,,,,,,,,,,,,,,,,,,,,,,,,,,,,,,,,,,,
,,6681e779f60d20a3b2b27bb3,66fc97fb6b85299257412df2,2024-10-01_21h47.32.747,mdp,2024.2.1,MacIntel,32.25806452,66fa4ebf79326e780c390304,,,,,,,,,,,,,,,,,,,,,1160.86,1160.86,1160.862,1161.643,1,1,right,0.256,,1161.645,1161.646,1,1,,1161.647,1161.647,1,0,,0,1161.647,1161.647,1161.648,1163.142,0,6,6,6,1,0.8,0.2,0.4,0.6,1,0,,,,,,,,,,,,,,,,,,,,,,,,,,,,,,,,,,,,
,,6681e779f60d20a3b2b27bb3,66fc97fb6b85299257412df2,2024-10-01_21h47.32.747,mdp,2024.2.1,MacIntel,32.25806452,66fa4ebf79326e780c390304,,,,,,,,,,,,,,,,,,,,,1163.142,1163.142,1163.143,1163.759,0,1,left,0.102,,1163.761,1163.763,1,1,,1163.764,1163.764,1,0,,0,1163.764,1163.764,1163.765,1165.26,0,7,7,7,1,0.8,0.2,0.4,0.6,1,0,,,,,,,,,,,,,,,,,,,,,,,,,,,,,,,,,,,,
,,6681e779f60d20a3b2b27bb3,66fc97fb6b85299257412df2,2024-10-01_21h47.32.747,mdp,2024.2.1,MacIntel,32.25806452,66fa4ebf79326e780c390304,,,,,,,,,,,,,,,,,,,,,1165.261,1165.261,1165.262,1165.942,0,0,left,0.161,,1165.944,1165.946,1,1,,1165.946,1165.947,1,0,,1,1165.947,1165.947,1165.947,1167.443,0,8,8,8,1,0.6,0.4,0.8,0.2,1,0,,,,,,,,,,,,,,,,,,,,,,,,,,,,,,,,,,,,
,,6681e779f60d20a3b2b27bb3,66fc97fb6b85299257412df2,2024-10-01_21h47.32.747,mdp,2024.2.1,MacIntel,32.25806452,66fa4ebf79326e780c390304,,,,,,,,,,,,,,,,,,,,,1167.444,1167.444,1167.446,1168.275,0,1,left,0.3,,1168.277,1168.278,1,0,,1168.28,1168.281,1,0,,0,1168.281,1168.281,1168.282,1169.777,0,9,9,9,1,0.6,0.4,0.8,0.2,1,0,,,,,,,,,,,,,,,,,,,,,,,,,,,,,,,,,,,,
,,6681e779f60d20a3b2b27bb3,66fc97fb6b85299257412df2,2024-10-01_21h47.32.747,mdp,2024.2.1,MacIntel,32.25806452,66fa4ebf79326e780c390304,,,,,,,,,,,,,,,,,,,,,1169.778,1169.778,1169.779,1170.959,0,0,left,0.649,,1170.961,1170.962,1,1,,1170.963,1170.964,1,0,,1,1170.964,1170.964,1170.965,1172.46,0,10,10,10,1,0.8,0.2,0.4,0.6,1,0,,,,,,,,,,,,,,,,,,,,,,,,,,,,,,,,,,,,
,,6681e779f60d20a3b2b27bb3,66fc97fb6b85299257412df2,2024-10-01_21h47.32.747,mdp,2024.2.1,MacIntel,32.25806452,66fa4ebf79326e780c390304,,,,,,,,,,,,,,,,,,,,,1172.461,1172.461,1172.462,1173.71,0,0,left,0.716,,1173.711,1173.713,1,0,,1173.713,1173.714,1,0,,1,1173.714,1173.714,1173.714,1175.209,0,11,11,11,1,0.8,0.2,0.4,0.6,1,0,,,,,,,,,,,,,,,,,,,,,,,,,,,,,,,,,,,,
,,6681e779f60d20a3b2b27bb3,66fc97fb6b85299257412df2,2024-10-01_21h47.32.747,mdp,2024.2.1,MacIntel,32.25806452,66fa4ebf79326e780c390304,,,,,,,,,,,,,,,,,,,,,1175.209,1175.209,1175.21,1175.977,1,0,right,0.254,,1175.978,1175.98,1,0,,1175.981,1175.981,1,1,,1,1175.981,1175.981,1175.982,1177.476,0,12,12,12,1,0.8,0.2,0.4,0.6,1,0,,,,,,,,,,,,,,,,,,,,,,,,,,,,,,,,,,,,
,,6681e779f60d20a3b2b27bb3,66fc97fb6b85299257412df2,2024-10-01_21h47.32.747,mdp,2024.2.1,MacIntel,32.25806452,66fa4ebf79326e780c390304,,,,,,,,,,,,,,,,,,,,,1177.477,1177.477,1177.48,1178.26,1,0,right,0.253,,1178.262,1178.264,1,0,,1178.265,1178.266,1,1,,1,1178.266,1178.266,1178.267,1179.76,0,13,13,13,1,0.8,0.2,0.4,0.6,1,0,,,,,,,,,,,,,,,,,,,,,,,,,,,,,,,,,,,,
,,6681e779f60d20a3b2b27bb3,66fc97fb6b85299257412df2,2024-10-01_21h47.32.747,mdp,2024.2.1,MacIntel,32.25806452,66fa4ebf79326e780c390304,,,,,,,,,,,,,,,,,,,,,1179.76,1179.76,1179.761,1180.543,0,0,left,0.268,,1180.544,1180.546,1,0,,1180.547,1180.549,1,1,,1,1180.549,1180.549,1180.549,1182.043,0,14,14,14,1,0.8,0.2,0.4,0.6,1,0,,,,,,,,,,,,,,,,,,,,,,,,,,,,,,,,,,,,
,,6681e779f60d20a3b2b27bb3,66fc97fb6b85299257412df2,2024-10-01_21h47.32.747,mdp,2024.2.1,MacIntel,32.25806452,66fa4ebf79326e780c390304,,,,,,,,,,,,,,,,,,,,,1182.044,1182.044,1182.045,1182.993,0,0,left,0.417,,1182.995,1182.997,1,0,,1182.998,1183,1,1,,1,1183,1183,1183.001,1184.493,0,15,15,15,1,0.8,0.2,0.4,0.6,1,0,,,,,,,,,,,,,,,,,,,,,,,,,,,,,,,,,,,,
,,6681e779f60d20a3b2b27bb3,66fc97fb6b85299257412df2,2024-10-01_21h47.32.747,mdp,2024.2.1,MacIntel,32.25806452,66fa4ebf79326e780c390304,,,,,,,,,,,,,,,,,,,,,1184.494,1184.494,1184.496,1185.26,1,1,right,0.243,,1185.263,1185.263,1,1,,1185.264,1185.264,1,1,,0,1185.264,1185.264,1185.264,1186.76,0,16,16,16,1,0.8,0.2,0.4,0.6,1,0,,,,,,,,,,,,,,,,,,,,,,,,,,,,,,,,,,,,
,,6681e779f60d20a3b2b27bb3,66fc97fb6b85299257412df2,2024-10-01_21h47.32.747,mdp,2024.2.1,MacIntel,32.25806452,66fa4ebf79326e780c390304,,,,,,,,,,,,,,,,,,,,,1186.76,1186.76,1186.761,1187.46,1,1,right,0.174,,1187.462,1187.464,1,1,,1187.464,1187.465,1,1,,0,1187.465,1187.465,1187.465,1188.959,0,17,17,17,1,0.8,0.2,0.4,0.6,1,0,,,,,,,,,,,,,,,,,,,,,,,,,,,,,,,,,,,,
,,6681e779f60d20a3b2b27bb3,66fc97fb6b85299257412df2,2024-10-01_21h47.32.747,mdp,2024.2.1,MacIntel,32.25806452,66fa4ebf79326e780c390304,,,,,,,,,,,,,,,,,,,,,1188.96,1188.96,1188.961,1189.744,1,1,right,0.271,,1189.745,1189.747,1,1,,1189.748,1189.751,1,1,,0,1189.751,1189.751,1189.751,1191.243,0,18,18,18,1,0.8,0.2,0.4,0.6,1,0,,,,,,,,,,,,,,,,,,,,,,,,,,,,,,,,,,,,
,,6681e779f60d20a3b2b27bb3,66fc97fb6b85299257412df2,2024-10-01_21h47.32.747,mdp,2024.2.1,MacIntel,32.25806452,66fa4ebf79326e780c390304,,,,,,,,,,,,,,,,,,,,,1191.244,1191.244,1191.244,1192.044,1,1,right,0.267,,1192.045,1192.046,1,1,,1192.047,1192.048,1,0,,0,1192.048,1192.048,1192.049,1193.544,0,19,19,19,1,0.6,0.4,0.6,0.4,1,0,,,,,,,,,,,,,,,,,,,,,,,,,,,,,,,,,,,,
,,6681e779f60d20a3b2b27bb3,66fc97fb6b85299257412df2,2024-10-01_21h47.32.747,mdp,2024.2.1,MacIntel,32.25806452,66fa4ebf79326e780c390304,,,,,,,,,,,,,,,,,,,,,1193.545,1193.545,1193.546,1194.41,1,0,right,0.334,,1194.412,1194.414,1,0,,1194.415,1194.418,1,0,,1,1194.418,1194.418,1194.419,1195.911,0,20,20,20,1,0.6,0.4,0.6,0.4,1,0,,,,,,,,,,,,,,,,,,,,,,,,,,,,,,,,,,,,
,,6681e779f60d20a3b2b27bb3,66fc97fb6b85299257412df2,2024-10-01_21h47.32.747,mdp,2024.2.1,MacIntel,32.25806452,66fa4ebf79326e780c390304,,,,,,,,,,,,,,,,,,,,,1195.911,1195.911,1195.913,1196.694,1,0,right,0.251,,1196.696,1196.698,1,1,,1196.699,1196.701,1,1,,1,1196.701,1196.701,1196.702,1198.193,0,21,21,21,1,0.6,0.4,0.6,0.4,1,0,,,,,,,,,,,,,,,,,,,,,,,,,,,,,,,,,,,,
,,6681e779f60d20a3b2b27bb3,66fc97fb6b85299257412df2,2024-10-01_21h47.32.747,mdp,2024.2.1,MacIntel,32.25806452,66fa4ebf79326e780c390304,,,,,,,,,,,,,,,,,,,,,1198.194,1198.194,1198.195,1198.927,1,0,right,0.217,,1198.929,1198.93,1,0,,1198.931,1198.931,1,0,,1,1198.931,1198.931,1198.931,1200.427,0,22,22,22,1,0.8,0.2,0.8,0.2,1,0,,,,,,,,,,,,,,,,,,,,,,,,,,,,,,,,,,,,
,,6681e779f60d20a3b2b27bb3,66fc97fb6b85299257412df2,2024-10-01_21h47.32.747,mdp,2024.2.1,MacIntel,32.25806452,66fa4ebf79326e780c390304,,,,,,,,,,,,,,,,,,,,,1200.428,1200.428,1200.428,1201.228,1,1,right,0.267,,1201.229,1201.231,1,0,,1201.232,1201.234,1,0,,0,1201.234,1201.234,1201.234,1202.727,0,23,23,23,1,0.8,0.2,0.8,0.2,1,0,,,,,,,,,,,,,,,,,,,,,,,,,,,,,,,,,,,,
,,6681e779f60d20a3b2b27bb3,66fc97fb6b85299257412df2,2024-10-01_21h47.32.747,mdp,2024.2.1,MacIntel,32.25806452,66fa4ebf79326e780c390304,,,,,,,,,,,,,,,,,,,,,1202.727,1202.727,1202.728,1203.31,0,0,left,0.067,,1203.312,1203.314,1,0,,1203.315,1203.316,1,1,,1,1203.316,1203.316,1203.317,1204.811,0,24,24,24,1,0.8,0.2,0.8,0.2,1,0,,,,,,,,,,,,,,,,,,,,,,,,,,,,,,,,,,,,
,,6681e779f60d20a3b2b27bb3,66fc97fb6b85299257412df2,2024-10-01_21h47.32.747,mdp,2024.2.1,MacIntel,32.25806452,66fa4ebf79326e780c390304,,,,,,,,,,,,,,,,,,,,,1204.811,1204.811,1204.812,1205.594,0,0,left,0.269,,1205.596,1205.598,1,0,,1205.598,1205.599,1,0,,1,1205.599,1205.599,1205.599,1207.094,0,25,25,25,1,0.8,0.2,0.8,0.2,1,0,,,,,,,,,,,,,,,,,,,,,,,,,,,,,,,,,,,,
,,6681e779f60d20a3b2b27bb3,66fc97fb6b85299257412df2,2024-10-01_21h47.32.747,mdp,2024.2.1,MacIntel,32.25806452,66fa4ebf79326e780c390304,,,,,,,,,,,,,,,,,,,,,1207.095,1207.095,1207.097,1207.778,0,1,left,0.15,,1207.779,1207.781,1,1,,1207.782,1207.783,1,0,,0,1207.783,1207.783,1207.784,1209.278,0,26,26,26,1,0.8,0.2,0.8,0.2,1,0,,,,,,,,,,,,,,,,,,,,,,,,,,,,,,,,,,,,
,,6681e779f60d20a3b2b27bb3,66fc97fb6b85299257412df2,2024-10-01_21h47.32.747,mdp,2024.2.1,MacIntel,32.25806452,66fa4ebf79326e780c390304,,,,,,,,,,,,,,,,,,,,,1209.279,1209.279,1209.28,1210.178,1,1,right,0.37,,1210.179,1210.18,1,1,,1210.181,1210.181,1,1,,0,1210.181,1210.181,1210.182,1211.678,0,27,27,27,1,0.6,0.4,0.2,0.8,1,0,,,,,,,,,,,,,,,,,,,,,,,,,,,,,,,,,,,,
,,6681e779f60d20a3b2b27bb3,66fc97fb6b85299257412df2,2024-10-01_21h47.32.747,mdp,2024.2.1,MacIntel,32.25806452,66fa4ebf79326e780c390304,,,,,,,,,,,,,,,,,,,,,1211.679,1211.679,1211.68,1212.461,1,1,right,0.255,,1212.463,1212.463,1,1,,1212.464,1212.465,1,1,,0,1212.465,1212.465,1212.465,1213.961,0,28,28,28,1,0.6,0.4,0.2,0.8,1,0,,,,,,,,,,,,,,,,,,,,,,,,,,,,,,,,,,,,
,,6681e779f60d20a3b2b27bb3,66fc97fb6b85299257412df2,2024-10-01_21h47.32.747,mdp,2024.2.1,MacIntel,32.25806452,66fa4ebf79326e780c390304,,,,,,,,,,,,,,,,,,,,,1213.962,1213.962,1213.963,1214.794,1,0,right,0.307,,1214.795,1214.795,1,1,,1214.796,1214.796,1,1,,1,1214.796,1214.796,1214.796,1216.295,0,29,29,29,1,0.6,0.4,0.2,0.8,1,0,,,,,,,,,,,,,,,,,,,,,,,,,,,,,,,,,,,,
,,6681e779f60d20a3b2b27bb3,66fc97fb6b85299257412df2,2024-10-01_21h47.32.747,mdp,2024.2.1,MacIntel,32.25806452,66fa4ebf79326e780c390304,,,,,,,,,,,,,,,,,,,,,1216.295,1216.295,1216.296,1217.095,1,0,right,0.267,,1217.096,1217.097,1,0,,1217.098,1217.1,1,0,,1,1217.101,1217.101,1217.101,1218.595,0,30,30,30,1,0.2,0.8,0.6,0.4,1,0,,,,,,,,,,,,,,,,,,,,,,,,,,,,,,,,,,,,
,,6681e779f60d20a3b2b27bb3,66fc97fb6b85299257412df2,2024-10-01_21h47.32.747,mdp,2024.2.1,MacIntel,32.25806452,66fa4ebf79326e780c390304,,,,,,,,,,,,,,,,,,,,,1218.595,1218.595,1218.597,1219.395,1,0,right,0.269,,1219.396,1219.398,1,0,,1219.399,1219.4,1,0,,1,1219.4,1219.4,1219.401,1220.895,0,31,31,31,1,0.4,0.6,0.8,0.2,1,0,,,,,,,,,,,,,,,,,,,,,,,,,,,,,,,,,,,,
,,6681e779f60d20a3b2b27bb3,66fc97fb6b85299257412df2,2024-10-01_21h47.32.747,mdp,2024.2.1,MacIntel,32.25806452,66fa4ebf79326e780c390304,,,,,,,,,,,,,,,,,,,,,1220.895,1220.895,1220.897,1221.695,1,1,right,0.283,,1221.696,1221.698,1,1,,1221.699,1221.701,1,0,,0,1221.701,1221.701,1221.701,1223.195,0,32,32,32,1,0.6,0.4,0.4,0.6,1,0,,,,,,,,,,,,,,,,,,,,,,,,,,,,,,,,,,,,
,,6681e779f60d20a3b2b27bb3,66fc97fb6b85299257412df2,2024-10-01_21h47.32.747,mdp,2024.2.1,MacIntel,32.25806452,66fa4ebf79326e780c390304,,,,,,,,,,,,,,,,,,,,,1223.196,1223.196,1223.197,1223.845,1,1,right,0.118,,1223.846,1223.848,1,0,,1223.849,1223.85,1,1,,0,1223.85,1223.85,1223.85,1225.345,0,33,33,33,1,0.6,0.4,0.4,0.6,1,0,,,,,,,,,,,,,,,,,,,,,,,,,,,,,,,,,,,,
,,6681e779f60d20a3b2b27bb3,66fc97fb6b85299257412df2,2024-10-01_21h47.32.747,mdp,2024.2.1,MacIntel,32.25806452,66fa4ebf79326e780c390304,,,,,,,,,,,,,,,,,,,,,1225.346,1225.346,1225.347,1226.012,1,0,right,0.138,,1226.013,1226.015,1,0,,1226.015,1226.016,1,1,,1,1226.017,1226.017,1226.017,1227.512,0,34,34,34,1,0.6,0.4,0.4,0.6,1,0,,,,,,,,,,,,,,,,,,,,,,,,,,,,,,,,,,,,
,,6681e779f60d20a3b2b27bb3,66fc97fb6b85299257412df2,2024-10-01_21h47.32.747,mdp,2024.2.1,MacIntel,32.25806452,66fa4ebf79326e780c390304,,,,,,,,,,,,,,,,,,,,,1227.512,1227.512,1227.514,1228.162,1,0,right,0.121,,1228.164,1228.165,1,0,,1228.166,1228.168,1,0,,1,1228.168,1228.168,1228.169,1229.662,0,35,35,35,1,0.6,0.4,0.4,0.6,1,0,,,,,,,,,,,,,,,,,,,,,,,,,,,,,,,,,,,,
,,6681e779f60d20a3b2b27bb3,66fc97fb6b85299257412df2,2024-10-01_21h47.32.747,mdp,2024.2.1,MacIntel,32.25806452,66fa4ebf79326e780c390304,,,,,,,,,,,,,,,,,,,,,1229.662,1229.662,1229.664,1230.278,1,0,right,0.103,,1230.28,1230.282,1,0,,1230.283,1230.283,1,1,,1,1230.284,1230.284,1230.284,1231.778,0,36,36,36,1,0.6,0.4,0.4,0.6,1,0,,,,,,,,,,,,,,,,,,,,,,,,,,,,,,,,,,,,
,,6681e779f60d20a3b2b27bb3,66fc97fb6b85299257412df2,2024-10-01_21h47.32.747,mdp,2024.2.1,MacIntel,32.25806452,66fa4ebf79326e780c390304,,,,,,,,,,,,,,,,,,,,,1231.779,1231.779,1231.779,1232.462,1,1,right,0.15,,1232.463,1232.465,1,1,,1232.467,1232.468,1,0,,0,1232.468,1232.468,1232.469,1233.961,0,37,37,37,1,0.6,0.4,0.4,0.6,1,0,,,,,,,,,,,,,,,,,,,,,,,,,,,,,,,,,,,,
,,6681e779f60d20a3b2b27bb3,66fc97fb6b85299257412df2,2024-10-01_21h47.32.747,mdp,2024.2.1,MacIntel,32.25806452,66fa4ebf79326e780c390304,,,,,,,,,,,,,,,,,,,,,1233.962,1233.962,1233.963,1234.561,0,1,left,0.095,,1234.562,1234.563,1,1,,1234.563,1234.564,1,0,,0,1234.564,1234.564,1234.564,1236.062,0,38,38,38,1,0.6,0.4,0.4,0.6,1,0,,,,,,,,,,,,,,,,,,,,,,,,,,,,,,,,,,,,
,,6681e779f60d20a3b2b27bb3,66fc97fb6b85299257412df2,2024-10-01_21h47.32.747,mdp,2024.2.1,MacIntel,32.25806452,66fa4ebf79326e780c390304,,,,,,,,,,,,,,,,,,,,,1236.063,1236.063,1236.064,1236.679,1,0,right,0.084,,1236.681,1236.683,1,0,,1236.684,1236.686,1,0,,1,1236.686,1236.686,1236.687,1238.178,0,39,39,39,1,0.6,0.4,0.4,0.6,1,0,,,,,,,,,,,,,,,,,,,,,,,,,,,,,,,,,,,,
,,6681e779f60d20a3b2b27bb3,66fc97fb6b85299257412df2,2024-10-01_21h47.32.747,mdp,2024.2.1,MacIntel,32.25806452,66fa4ebf79326e780c390304,,,,,,,,,,,,,,,,,,,,,1238.178,1238.178,1238.179,1238.745,1,0,right,0.06,,1238.746,1238.746,1,0,,1238.747,1238.747,1,0,,1,1238.747,1238.747,1238.747,1240.245,0,40,40,40,1,0.6,0.4,0.4,0.6,1,0,,,,,,,,,,,,,,,,,,,,,,,,,,,,,,,,,,,,
,,6681e779f60d20a3b2b27bb3,66fc97fb6b85299257412df2,2024-10-01_21h47.32.747,mdp,2024.2.1,MacIntel,32.25806452,66fa4ebf79326e780c390304,,,,,,,,,,,,,,,,,,,,,1240.246,1240.246,1240.247,1240.896,1,0,right,0.119,,1240.897,1240.899,1,0,,1240.9,1240.902,1,0,,1,1240.902,1240.902,1240.903,1242.395,0,41,41,41,1,0.2,0.8,0.8,0.2,1,0,,,,,,,,,,,,,,,,,,,,,,,,,,,,,,,,,,,,
,,6681e779f60d20a3b2b27bb3,66fc97fb6b85299257412df2,2024-10-01_21h47.32.747,mdp,2024.2.1,MacIntel,32.25806452,66fa4ebf79326e780c390304,,,,,,,,,,,,,,,,,,,,,1242.396,1242.396,1242.397,1242.962,0,0,left,0.033,,1242.964,1242.966,1,1,,1242.967,1242.967,1,1,,1,1242.967,1242.967,1242.967,1244.462,0,42,42,42,1,0.2,0.8,0.8,0.2,1,0,,,,,,,,,,,,,,,,,,,,,,,,,,,,,,,,,,,,
,,6681e779f60d20a3b2b27bb3,66fc97fb6b85299257412df2,2024-10-01_21h47.32.747,mdp,2024.2.1,MacIntel,32.25806452,66fa4ebf79326e780c390304,,,,,,,,,,,,,,,,,,,,,1244.463,1244.463,1244.464,1245.062,1,0,right,0.068,,1245.063,1245.065,1,0,,1245.066,1245.068,1,1,,1,1245.068,1245.068,1245.069,1246.562,0,43,43,43,1,0.2,0.8,0.8,0.2,1,0,,,,,,,,,,,,,,,,,,,,,,,,,,,,,,,,,,,,
,,6681e779f60d20a3b2b27bb3,66fc97fb6b85299257412df2,2024-10-01_21h47.32.747,mdp,2024.2.1,MacIntel,32.25806452,66fa4ebf79326e780c390304,,,,,,,,,,,,,,,,,,,,,1246.563,1246.563,1246.564,1247.245,1,0,right,0.16,,1247.247,1247.248,1,0,,1247.249,1247.251,1,0,,1,1247.251,1247.251,1247.252,1248.746,0,44,44,44,1,0.2,0.8,0.8,0.2,1,0,,,,,,,,,,,,,,,,,,,,,,,,,,,,,,,,,,,,
,,6681e779f60d20a3b2b27bb3,66fc97fb6b85299257412df2,2024-10-01_21h47.32.747,mdp,2024.2.1,MacIntel,32.25806452,66fa4ebf79326e780c390304,,,,,,,,,,,,,,,,,,,,,1248.746,1248.746,1248.748,1249.346,1,1,right,0.069,,1249.347,1249.348,1,0,,1249.349,1249.349,1,1,,0,1249.349,1249.349,1249.349,1250.846,0,45,45,45,1,0.2,0.8,0.8,0.2,1,0,,,,,,,,,,,,,,,,,,,,,,,,,,,,,,,,,,,,
,,6681e779f60d20a3b2b27bb3,66fc97fb6b85299257412df2,2024-10-01_21h47.32.747,mdp,2024.2.1,MacIntel,32.25806452,66fa4ebf79326e780c390304,,,,,,,,,,,,,,,,,,,,,1250.846,1250.846,1250.848,1251.396,1,0,right,0.017,,1251.398,1251.4,1,0,,1251.401,1251.403,1,0,,1,1251.403,1251.403,1251.404,1252.896,0,46,46,46,1,0.2,0.8,0.8,0.2,1,0,,,,,,,,,,,,,,,,,,,,,,,,,,,,,,,,,,,,
,,6681e779f60d20a3b2b27bb3,66fc97fb6b85299257412df2,2024-10-01_21h47.32.747,mdp,2024.2.1,MacIntel,32.25806452,66fa4ebf79326e780c390304,,,,,,,,,,,,,,,,,,,,,1252.897,1252.897,1252.898,1253.562,1,0,right,0.133,,1253.564,1253.566,1,0,,1253.567,1253.569,1,1,,1,1253.569,1253.569,1253.57,1255.062,0,47,47,47,1,0.2,0.8,0.8,0.2,1,0,,,,,,,,,,,,,,,,,,,,,,,,,,,,,,,,,,,,
,,6681e779f60d20a3b2b27bb3,66fc97fb6b85299257412df2,2024-10-01_21h47.32.747,mdp,2024.2.1,MacIntel,32.25806452,66fa4ebf79326e780c390304,,,,,,,,,,,,,,,,,,,,,1255.063,1255.063,1255.065,1255.879,1,1,right,0.284,,1255.881,1255.882,1,0,,1255.883,1255.884,1,0,,0,1255.884,1255.884,1255.885,1257.379,0,48,48,48,1,0.4,0.6,0.6,0.4,1,0,,,,,,,,,,,,,,,,,,,,,,,,,,,,,,,,,,,,
,,6681e779f60d20a3b2b27bb3,66fc97fb6b85299257412df2,2024-10-01_21h47.32.747,mdp,2024.2.1,MacIntel,32.25806452,66fa4ebf79326e780c390304,,,,,,,,,,,,,,,,,,,,,1257.38,1257.38,1257.381,1258.195,1,0,right,0.291,,1258.197,1258.199,1,0,,1258.2,1258.201,1,1,,1,1258.201,1258.201,1258.202,1259.696,0,49,49,49,1,0.2,0.8,0.8,0.2,1,0,,,,,,,,,,,,,,,,,,,,,,,,,,,,,,,,,,,,
