init_exp.started,init_exp.stopped,participant,session,date,expName,psychopyVersion,OS,frameRate,study_id,disp_instruction.started,disp_instruction.stopped,instruction.thisRepN,instruction.thisTrialN,instruction.thisN,instruction.thisIndex,instruction.ran,instimg_path,consent.started,consent.stopped,key_resp_3.keys,key_resp_3.rt,key_resp_3.duration,n_steps,sequence_path,init_block.started,init_block.stopped,key_resp.keys,key_resp.rt,key_resp.duration,init_trials.started,init_trials.stopped,step0.started,step0.stopped,act0,s1,res0.keys,res0.rt,res0.duration,step1.started,step1.stopped,act1,s2,res1.keys,step2.started,step2.stopped,act2,s3,res2.keys,rew,reward_comp.started,reward_comp.stopped,reward_disp.started,reward_disp.stopped,trials.thisRepN,trials.thisTrialN,trials.thisN,trials.thisIndex,trials.ran,s00a0s10,s00a0s11,s00a1s10,s00a1s11,rew10,rew11,break_block.started,break_block.stopped,block.thisRepN,block.thisTrialN,block.thisN,block.thisIndex,block.ran,s00path,s10path,s11path,s20path,s21path,res1.rt,res1.duration,s10a0s20,s10a0s21,s10a1s20,s10a1s21,s11a0s20,s11a0s21,s11a1s20,s11a1s21,rew20,rew21,res2.rt,res2.duration,s20a0s30,s20a0s31,s20a1s30,s20a1s31,s21a0s30,s21a0s31,s21a1s30,s21a1s31,rew30,rew31
0.0007,0.0037,6681419554e17e6ec71a3628,66fc98a76145664b605f195a,2024-10-02_02h53.10.353,mdp,2024.2.1,Win32,19.96007984,66fa4ebf79326e780c390304,,,,,,,,,,,,,,,,,,,,,,,,,,,,,,,,,,,,,,,,,,,,,,,,,,,,,,,,,,,,,,,,,,,,,,,,,,,,,,,,,,,,,,,,,,,
,,6681419554e17e6ec71a3628,66fc98a76145664b605f195a,2024-10-02_02h53.10.353,mdp,2024.2.1,Win32,19.96007984,66fa4ebf79326e780c390304,0.014,57.1937,0,0,0,0,1,rlnn_exp/rlnn_exp.001.png,,,,,,,,,,,,,,,,,,,,,,,,,,,,,,,,,,,,,,,,,,,,,,,,,,,,,,,,,,,,,,,,,,,,,,,,,,,,,,,,,,,
,,6681419554e17e6ec71a3628,66fc98a76145664b605f195a,2024-10-02_02h53.10.353,mdp,2024.2.1,Win32,19.96007984,66fa4ebf79326e780c390304,57.1949,84.4729,0,1,1,1,1,rlnn_exp/rlnn_exp.002.png,,,,,,,,,,,,,,,,,,,,,,,,,,,,,,,,,,,,,,,,,,,,,,,,,,,,,,,,,,,,,,,,,,,,,,,,,,,,,,,,,,,
,,6681419554e17e6ec71a3628,66fc98a76145664b605f195a,2024-10-02_02h53.10.353,mdp,2024.2.1,Win32,19.96007984,66fa4ebf79326e780c390304,84.4932,149.6179,0,2,2,2,1,rlnn_exp/rlnn_exp.003.png,,,,,,,,,,,,,,,,,,,,,,,,,,,,,,,,,,,,,,,,,,,,,,,,,,,,,,,,,,,,,,,,,,,,,,,,,,,,,,,,,,,
,,6681419554e17e6ec71a3628,66fc98a76145664b605f195a,2024-10-02_02h53.10.353,mdp,2024.2.1,Win32,19.96007984,66fa4ebf79326e780c390304,149.6377,240.1378,0,3,3,3,1,rlnn_exp/rlnn_exp.004.png,,,,,,,,,,,,,,,,,,,,,,,,,,,,,,,,,,,,,,,,,,,,,,,,,,,,,,,,,,,,,,,,,,,,,,,,,,,,,,,,,,,
,,6681419554e17e6ec71a3628,66fc98a76145664b605f195a,2024-10-02_02h53.10.353,mdp,2024.2.1,Win32,19.96007984,66fa4ebf79326e780c390304,,,,,,,,,240.155,289.6027,y,39.4144,,,,,,,,,,,,,,,,,,,,,,,,,,,,,,,,,,,,,,,,,,,,,,,,,,,,,,,,,,,,,,,,,,,,,,,,,,,,,,,
,,6681419554e17e6ec71a3628,66fc98a76145664b605f195a,2024-10-02_02h53.10.353,mdp,2024.2.1,Win32,19.96007984,66fa4ebf79326e780c390304,,,,,,,,,,,,,,1,seqs/st1seq40.csv,289.6298,292.9903,space,2.827,,292.9959,292.9962,292.9969,312.821,0,0,left,19.2833,,312.8219,312.8247,,1,,312.8255,312.8282,,0,,1,312.8284,312.8286,312.8293,314.3171,0,0,0,0,1,0.6,0.4,0.8,0.2,1,0,,,,,,,,,,,,,,,,,,,,,,,,,,,,,,,,,,,,
,,6681419554e17e6ec71a3628,66fc98a76145664b605f195a,2024-10-02_02h53.10.353,mdp,2024.2.1,Win32,19.96007984,66fa4ebf79326e780c390304,,,,,,,,,,,,,,,,,,,,,314.3178,314.3179,314.3198,316.7163,0,1,left,1.864,,316.7186,316.72,,1,,316.7217,316.7229,,1,,0,316.723,316.723,316.7242,318.2129,0,1,1,1,1,0.6,0.4,0.8,0.2,1,0,,,,,,,,,,,,,,,,,,,,,,,,,,,,,,,,,,,,
,,6681419554e17e6ec71a3628,66fc98a76145664b605f195a,2024-10-02_02h53.10.353,mdp,2024.2.1,Win32,19.96007984,66fa4ebf79326e780c390304,,,,,,,,,,,,,,,,,,,,,318.2139,318.2139,318.2173,319.4646,1,0,right,0.7222,,319.4666,319.4679,,0,,319.4697,319.4708,,1,,1,319.4709,319.4709,319.4721,320.9735,0,2,2,2,1,0.2,0.8,0.6,0.4,1,0,,,,,,,,,,,,,,,,,,,,,,,,,,,,,,,,,,,,
,,6681419554e17e6ec71a3628,66fc98a76145664b605f195a,2024-10-02_02h53.10.353,mdp,2024.2.1,Win32,19.96007984,66fa4ebf79326e780c390304,,,,,,,,,,,,,,,,,,,,,320.9741,320.9741,320.9765,324.36,0,1,left,2.8637,,324.3809,324.3822,,1,,324.3841,324.3854,,1,,0,324.3856,324.3856,324.3872,325.8895,0,3,3,3,1,0.2,0.8,0.6,0.4,1,0,,,,,,,,,,,,,,,,,,,,,,,,,,,,,,,,,,,,
,,6681419554e17e6ec71a3628,66fc98a76145664b605f195a,2024-10-02_02h53.10.353,mdp,2024.2.1,Win32,19.96007984,66fa4ebf79326e780c390304,,,,,,,,,,,,,,,,,,,,,325.89,325.89,325.8917,327.5668,0,1,left,1.1451,,327.5702,327.5716,,1,,327.5727,327.5738,,1,,0,327.5739,327.5739,327.5747,329.0639,0,4,4,4,1,0.2,0.8,0.6,0.4,1,0,,,,,,,,,,,,,,,,,,,,,,,,,,,,,,,,,,,,
,,6681419554e17e6ec71a3628,66fc98a76145664b605f195a,2024-10-02_02h53.10.353,mdp,2024.2.1,Win32,19.96007984,66fa4ebf79326e780c390304,,,,,,,,,,,,,,,,,,,,,329.0644,329.0644,329.0675,330.1591,0,1,left,0.5688,,330.1609,330.1621,,1,,330.1633,330.1643,,0,,0,330.1644,330.1644,330.1654,331.6645,0,5,5,5,1,0.6,0.4,0.8,0.2,1,0,,,,,,,,,,,,,,,,,,,,,,,,,,,,,,,,,,,,
,,6681419554e17e6ec71a3628,66fc98a76145664b605f195a,2024-10-02_02h53.10.353,mdp,2024.2.1,Win32,19.96007984,66fa4ebf79326e780c390304,,,,,,,,,,,,,,,,,,,,,331.6655,331.6655,331.6681,333.0678,1,0,right,0.8714,,333.0699,333.0711,,0,,333.0725,333.0737,,0,,1,333.0738,333.0738,333.0751,334.5614,0,6,6,6,1,0.6,0.4,0.8,0.2,1,0,,,,,,,,,,,,,,,,,,,,,,,,,,,,,,,,,,,,
,,6681419554e17e6ec71a3628,66fc98a76145664b605f195a,2024-10-02_02h53.10.353,mdp,2024.2.1,Win32,19.96007984,66fa4ebf79326e780c390304,,,,,,,,,,,,,,,,,,,,,334.5624,334.5624,334.5651,335.8348,1,0,right,0.7508,,335.8365,335.8377,,0,,335.8392,335.8404,,0,,1,335.8405,335.8405,335.8416,337.3397,0,7,7,7,1,0.2,0.8,0.6,0.4,1,0,,,,,,,,,,,,,,,,,,,,,,,,,,,,,,,,,,,,
,,6681419554e17e6ec71a3628,66fc98a76145664b605f195a,2024-10-02_02h53.10.353,mdp,2024.2.1,Win32,19.96007984,66fa4ebf79326e780c390304,,,,,,,,,,,,,,,,,,,,,337.3404,337.3405,337.3426,341.4967,1,0,right,3.6193,,341.5143,341.5157,,0,,341.5172,341.5183,,0,,1,341.5183,341.5184,341.5196,343.0174,0,8,8,8,1,0.2,0.8,0.6,0.4,1,0,,,,,,,,,,,,,,,,,,,,,,,,,,,,,,,,,,,,
,,6681419554e17e6ec71a3628,66fc98a76145664b605f195a,2024-10-02_02h53.10.353,mdp,2024.2.1,Win32,19.96007984,66fa4ebf79326e780c390304,,,,,,,,,,,,,,,,,,,,,343.0193,343.0194,343.022,345.0018,1,0,right,1.448,,345.004,345.0051,,0,,345.0065,345.0076,,1,,1,345.0077,345.0077,345.0089,346.4992,0,9,9,9,1,0.2,0.8,0.6,0.4,1,0,,,,,,,,,,,,,,,,,,,,,,,,,,,,,,,,,,,,
,,6681419554e17e6ec71a3628,66fc98a76145664b605f195a,2024-10-02_02h53.10.353,mdp,2024.2.1,Win32,19.96007984,66fa4ebf79326e780c390304,,,,,,,,,,,,,,,,,,,,,346.5007,346.5007,346.5024,348.9865,1,1,right,1.9681,,348.9882,348.9896,,0,,348.9909,348.992,,0,,0,348.9921,348.9921,348.9932,350.4817,0,10,10,10,1,0.2,0.8,0.6,0.4,1,0,,,,,,,,,,,,,,,,,,,,,,,,,,,,,,,,,,,,
,,6681419554e17e6ec71a3628,66fc98a76145664b605f195a,2024-10-02_02h53.10.353,mdp,2024.2.1,Win32,19.96007984,66fa4ebf79326e780c390304,,,,,,,,,,,,,,,,,,,,,350.4822,350.4822,350.4837,352.7469,1,0,right,1.7435,,352.7502,352.7523,,0,,352.7539,352.7551,,1,,1,352.7552,352.7552,352.7569,354.2512,0,11,11,11,1,0.2,0.8,0.6,0.4,1,0,,,,,,,,,,,,,,,,,,,,,,,,,,,,,,,,,,,,
,,6681419554e17e6ec71a3628,66fc98a76145664b605f195a,2024-10-02_02h53.10.353,mdp,2024.2.1,Win32,19.96007984,66fa4ebf79326e780c390304,,,,,,,,,,,,,,,,,,,,,354.2518,354.2518,354.2536,357.1076,1,0,right,2.3105,,357.1098,357.1109,,1,,357.1119,357.1127,,0,,1,357.1128,357.1128,357.1136,358.6035,0,12,12,12,1,0.2,0.8,0.6,0.4,1,0,,,,,,,,,,,,,,,,,,,,,,,,,,,,,,,,,,,,
,,6681419554e17e6ec71a3628,66fc98a76145664b605f195a,2024-10-02_02h53.10.353,mdp,2024.2.1,Win32,19.96007984,66fa4ebf79326e780c390304,,,,,,,,,,,,,,,,,,,,,358.604,358.604,358.6064,363.5058,1,0,right,4.3695,,363.5222,363.5233,,1,,363.5244,363.5254,,0,,1,363.5255,363.5255,363.5266,365.0255,0,13,13,13,1,0.2,0.8,0.6,0.4,1,0,,,,,,,,,,,,,,,,,,,,,,,,,,,,,,,,,,,,
,,6681419554e17e6ec71a3628,66fc98a76145664b605f195a,2024-10-02_02h53.10.353,mdp,2024.2.1,Win32,19.96007984,66fa4ebf79326e780c390304,,,,,,,,,,,,,,,,,,,,,365.0259,365.026,365.0279,376.0542,1,0,right,10.5016,,376.0743,376.0762,,1,,376.0779,376.0793,,0,,1,376.0794,376.0794,376.0808,377.5659,0,14,14,14,1,0.2,0.8,0.6,0.4,1,0,,,,,,,,,,,,,,,,,,,,,,,,,,,,,,,,,,,,
,,6681419554e17e6ec71a3628,66fc98a76145664b605f195a,2024-10-02_02h53.10.353,mdp,2024.2.1,Win32,19.96007984,66fa4ebf79326e780c390304,,,,,,,,,,,,,,,,,,,,,377.5663,377.5663,377.5682,378.8706,1,0,right,0.7826,,378.8722,378.8735,,0,,378.8748,378.876,,1,,1,378.8761,378.8761,378.8771,380.3702,0,15,15,15,1,0.6,0.4,0.4,0.6,1,0,,,,,,,,,,,,,,,,,,,,,,,,,,,,,,,,,,,,
,,6681419554e17e6ec71a3628,66fc98a76145664b605f195a,2024-10-02_02h53.10.353,mdp,2024.2.1,Win32,19.96007984,66fa4ebf79326e780c390304,,,,,,,,,,,,,,,,,,,,,380.3706,380.3706,380.3723,384.9002,1,0,right,4.0062,,384.919,384.9204,,0,,384.922,384.9234,,0,,1,384.9234,384.9235,384.925,386.4133,0,16,16,16,1,0.2,0.8,0.8,0.2,1,0,,,,,,,,,,,,,,,,,,,,,,,,,,,,,,,,,,,,
,,6681419554e17e6ec71a3628,66fc98a76145664b605f195a,2024-10-02_02h53.10.353,mdp,2024.2.1,Win32,19.96007984,66fa4ebf79326e780c390304,,,,,,,,,,,,,,,,,,,,,386.4138,386.4138,386.4154,389.1441,1,0,right,2.1978,,389.1457,389.1468,,0,,389.1489,389.1501,,0,,1,389.1502,389.1502,389.1515,390.6393,0,17,17,17,1,0.2,0.8,0.8,0.2,1,0,,,,,,,,,,,,,,,,,,,,,,,,,,,,,,,,,,,,
,,6681419554e17e6ec71a3628,66fc98a76145664b605f195a,2024-10-02_02h53.10.353,mdp,2024.2.1,Win32,19.96007984,66fa4ebf79326e780c390304,,,,,,,,,,,,,,,,,,,,,390.6403,390.6404,390.6422,393.1082,1,0,right,1.9368,,393.1098,393.1112,,1,,393.1125,393.1134,,1,,1,393.1135,393.1135,393.115,394.608,0,18,18,18,1,0.2,0.8,0.8,0.2,1,0,,,,,,,,,,,,,,,,,,,,,,,,,,,,,,,,,,,,
,,6681419554e17e6ec71a3628,66fc98a76145664b605f195a,2024-10-02_02h53.10.353,mdp,2024.2.1,Win32,19.96007984,66fa4ebf79326e780c390304,,,,,,,,,,,,,,,,,,,,,394.6088,394.6088,394.6106,399.186,1,0,right,4.0497,,399.2036,399.2048,,0,,399.206,399.2068,,0,,1,399.2069,399.2069,399.2077,400.6993,0,19,19,19,1,0.2,0.8,0.8,0.2,1,0,,,,,,,,,,,,,,,,,,,,,,,,,,,,,,,,,,,,
,,6681419554e17e6ec71a3628,66fc98a76145664b605f195a,2024-10-02_02h53.10.353,mdp,2024.2.1,Win32,19.96007984,66fa4ebf79326e780c390304,,,,,,,,,,,,,,,,,,,,,400.6999,400.6999,400.7013,404.5148,1,0,right,3.2825,,404.533,404.5343,,0,,404.5354,404.5365,,0,,1,404.5365,404.5365,404.5375,406.0281,0,20,20,20,1,0.2,0.8,0.8,0.2,1,0,,,,,,,,,,,,,,,,,,,,,,,,,,,,,,,,,,,,
,,6681419554e17e6ec71a3628,66fc98a76145664b605f195a,2024-10-02_02h53.10.353,mdp,2024.2.1,Win32,19.96007984,66fa4ebf79326e780c390304,,,,,,,,,,,,,,,,,,,,,406.0289,406.0289,406.0303,408.4568,1,0,right,1.9128,,408.4589,408.4601,,0,,408.4616,408.4627,,1,,1,408.4628,408.4628,408.4639,409.9577,0,21,21,21,1,0.2,0.8,0.8,0.2,1,0,,,,,,,,,,,,,,,,,,,,,,,,,,,,,,,,,,,,
,,6681419554e17e6ec71a3628,66fc98a76145664b605f195a,2024-10-02_02h53.10.353,mdp,2024.2.1,Win32,19.96007984,66fa4ebf79326e780c390304,,,,,,,,,,,,,,,,,,,,,409.959,409.9591,409.9606,412.1012,1,1,right,1.6139,,412.1209,412.1221,,1,,412.1234,412.1245,,0,,0,412.1246,412.1246,412.1256,413.6064,0,22,22,22,1,0.8,0.2,0.6,0.4,1,0,,,,,,,,,,,,,,,,,,,,,,,,,,,,,,,,,,,,
,,6681419554e17e6ec71a3628,66fc98a76145664b605f195a,2024-10-02_02h53.10.353,mdp,2024.2.1,Win32,19.96007984,66fa4ebf79326e780c390304,,,,,,,,,,,,,,,,,,,,,413.607,413.607,413.6088,415.403,1,1,right,1.2566,,415.4046,415.406,,0,,415.4073,415.4084,,0,,0,415.4084,415.4084,415.4096,416.9045,0,23,23,23,1,0.6,0.4,0.2,0.8,1,0,,,,,,,,,,,,,,,,,,,,,,,,,,,,,,,,,,,,
,,6681419554e17e6ec71a3628,66fc98a76145664b605f195a,2024-10-02_02h53.10.353,mdp,2024.2.1,Win32,19.96007984,66fa4ebf79326e780c390304,,,,,,,,,,,,,,,,,,,,,416.905,416.9051,416.9066,418.2289,1,0,right,0.8073,,418.2315,418.233,,0,,418.2343,418.2354,,1,,1,418.2354,418.2354,418.2367,419.7323,0,24,24,24,1,0.8,0.2,0.6,0.4,1,0,,,,,,,,,,,,,,,,,,,,,,,,,,,,,,,,,,,,
,,6681419554e17e6ec71a3628,66fc98a76145664b605f195a,2024-10-02_02h53.10.353,mdp,2024.2.1,Win32,19.96007984,66fa4ebf79326e780c390304,,,,,,,,,,,,,,,,,,,,,419.733,419.733,419.7351,421.7321,1,0,right,1.4689,,421.7338,421.7349,,1,,421.7362,421.7374,,1,,1,421.7374,421.7374,421.739,423.24,0,25,25,25,1,0.8,0.2,0.6,0.4,1,0,,,,,,,,,,,,,,,,,,,,,,,,,,,,,,,,,,,,
,,6681419554e17e6ec71a3628,66fc98a76145664b605f195a,2024-10-02_02h53.10.353,mdp,2024.2.1,Win32,19.96007984,66fa4ebf79326e780c390304,,,,,,,,,,,,,,,,,,,,,423.2405,423.2405,423.2428,429.0541,1,0,right,5.2744,,429.0736,429.0749,,0,,429.0769,429.0793,,0,,1,429.0794,429.0794,429.0812,430.5729,0,26,26,26,1,0.4,0.6,0.8,0.2,1,0,,,,,,,,,,,,,,,,,,,,,,,,,,,,,,,,,,,,
,,6681419554e17e6ec71a3628,66fc98a76145664b605f195a,2024-10-02_02h53.10.353,mdp,2024.2.1,Win32,19.96007984,66fa4ebf79326e780c390304,,,,,,,,,,,,,,,,,,,,,430.5734,430.5734,430.5748,437.0146,1,0,right,5.9128,,437.0329,437.034,,0,,437.0352,437.0363,,0,,1,437.0363,437.0363,437.0382,438.5257,0,27,27,27,1,0.4,0.6,0.8,0.2,1,0,,,,,,,,,,,,,,,,,,,,,,,,,,,,,,,,,,,,
,,6681419554e17e6ec71a3628,66fc98a76145664b605f195a,2024-10-02_02h53.10.353,mdp,2024.2.1,Win32,19.96007984,66fa4ebf79326e780c390304,,,,,,,,,,,,,,,,,,,,,438.5268,438.5268,438.5291,440.066,1,0,right,1.0166,,440.0679,440.0692,,1,,440.0706,440.0717,,0,,1,440.0718,440.0718,440.0728,441.5598,0,28,28,28,1,0.4,0.6,0.8,0.2,1,0,,,,,,,,,,,,,,,,,,,,,,,,,,,,,,,,,,,,
,,6681419554e17e6ec71a3628,66fc98a76145664b605f195a,2024-10-02_02h53.10.353,mdp,2024.2.1,Win32,19.96007984,66fa4ebf79326e780c390304,,,,,,,,,,,,,,,,,,,,,441.5602,441.5602,441.5616,443.3794,1,1,right,1.2907,,443.3811,443.3821,,0,,443.3837,443.3846,,1,,0,443.3847,443.3847,443.3857,444.8895,0,29,29,29,1,0.6,0.4,0.6,0.4,1,0,,,,,,,,,,,,,,,,,,,,,,,,,,,,,,,,,,,,
,,6681419554e17e6ec71a3628,66fc98a76145664b605f195a,2024-10-02_02h53.10.353,mdp,2024.2.1,Win32,19.96007984,66fa4ebf79326e780c390304,,,,,,,,,,,,,,,,,,,,,444.89,444.89,444.8916,445.5523,1,0,right,0.1302,,445.5547,445.5559,,1,,445.5575,445.5585,,1,,1,445.5586,445.5586,445.5598,447.055,0,30,30,30,1,0.6,0.4,0.6,0.4,1,0,,,,,,,,,,,,,,,,,,,,,,,,,,,,,,,,,,,,
,,6681419554e17e6ec71a3628,66fc98a76145664b605f195a,2024-10-02_02h53.10.353,mdp,2024.2.1,Win32,19.96007984,66fa4ebf79326e780c390304,,,,,,,,,,,,,,,,,,,,,447.0564,447.0565,447.0582,449.4488,1,1,right,1.8601,,449.4509,449.4521,,1,,449.4537,449.4547,,1,,0,449.4548,449.4548,449.4559,450.9489,0,31,31,31,1,0.6,0.4,0.6,0.4,1,0,,,,,,,,,,,,,,,,,,,,,,,,,,,,,,,,,,,,
,,6681419554e17e6ec71a3628,66fc98a76145664b605f195a,2024-10-02_02h53.10.353,mdp,2024.2.1,Win32,19.96007984,66fa4ebf79326e780c390304,,,,,,,,,,,,,,,,,,,,,450.9494,450.9495,450.951,456.4303,1,0,right,4.9478,,456.4481,456.4496,,1,,456.4507,456.4515,,1,,1,456.4515,456.4515,456.4524,457.9551,0,32,32,32,1,0.6,0.4,0.6,0.4,1,0,,,,,,,,,,,,,,,,,,,,,,,,,,,,,,,,,,,,
,,6681419554e17e6ec71a3628,66fc98a76145664b605f195a,2024-10-02_02h53.10.353,mdp,2024.2.1,Win32,19.96007984,66fa4ebf79326e780c390304,,,,,,,,,,,,,,,,,,,,,457.9561,457.9561,457.959,459.6221,1,0,right,1.1461,,459.6243,459.6255,,0,,459.6269,459.6279,,1,,1,459.628,459.628,459.6293,461.1231,0,33,33,33,1,0.8,0.2,0.4,0.6,1,0,,,,,,,,,,,,,,,,,,,,,,,,,,,,,,,,,,,,
,,6681419554e17e6ec71a3628,66fc98a76145664b605f195a,2024-10-02_02h53.10.353,mdp,2024.2.1,Win32,19.96007984,66fa4ebf79326e780c390304,,,,,,,,,,,,,,,,,,,,,461.1237,461.1237,461.1251,463.1582,1,0,right,1.5167,,463.1603,463.1613,,1,,463.1627,463.1637,,1,,1,463.1637,463.1638,463.1648,464.6533,0,34,34,34,1,0.8,0.2,0.4,0.6,1,0,,,,,,,,,,,,,,,,,,,,,,,,,,,,,,,,,,,,
,,6681419554e17e6ec71a3628,66fc98a76145664b605f195a,2024-10-02_02h53.10.353,mdp,2024.2.1,Win32,19.96007984,66fa4ebf79326e780c390304,,,,,,,,,,,,,,,,,,,,,464.6538,464.6538,464.6553,466.69,1,1,right,1.5037,,466.6916,466.6926,,1,,466.6938,466.6949,,0,,0,466.6949,466.6949,466.6961,468.1833,0,35,35,35,1,0.8,0.2,0.4,0.6,1,0,,,,,,,,,,,,,,,,,,,,,,,,,,,,,,,,,,,,
,,6681419554e17e6ec71a3628,66fc98a76145664b605f195a,2024-10-02_02h53.10.353,mdp,2024.2.1,Win32,19.96007984,66fa4ebf79326e780c390304,,,,,,,,,,,,,,,,,,,,,468.1838,468.1838,468.1852,470.4099,1,0,right,1.6915,,470.4116,470.4134,,1,,470.4147,470.416,,0,,1,470.4161,470.4161,470.4171,471.9099,0,36,36,36,1,0.8,0.2,0.4,0.6,1,0,,,,,,,,,,,,,,,,,,,,,,,,,,,,,,,,,,,,
,,6681419554e17e6ec71a3628,66fc98a76145664b605f195a,2024-10-02_02h53.10.353,mdp,2024.2.1,Win32,19.96007984,66fa4ebf79326e780c390304,,,,,,,,,,,,,,,,,,,,,471.9121,471.9121,471.9146,474.0158,1,0,right,1.5722,,474.0174,474.0189,,1,,474.0202,474.0211,,1,,1,474.0212,474.0212,474.0222,475.5126,0,37,37,37,1,0.8,0.2,0.4,0.6,1,0,,,,,,,,,,,,,,,,,,,,,,,,,,,,,,,,,,,,
,,6681419554e17e6ec71a3628,66fc98a76145664b605f195a,2024-10-02_02h53.10.353,mdp,2024.2.1,Win32,19.96007984,66fa4ebf79326e780c390304,,,,,,,,,,,,,,,,,,,,,475.5137,475.5137,475.5154,477.6759,1,0,right,1.6297,,477.6777,477.6791,,1,,477.6808,477.6822,,1,,1,477.6823,477.6823,477.6837,479.1883,0,38,38,38,1,0.8,0.2,0.4,0.6,1,0,,,,,,,,,,,,,,,,,,,,,,,,,,,,,,,,,,,,
,,6681419554e17e6ec71a3628,66fc98a76145664b605f195a,2024-10-02_02h53.10.353,mdp,2024.2.1,Win32,19.96007984,66fa4ebf79326e780c390304,,,,,,,,,,,,,,,,,,,,,479.1889,479.1889,479.1905,481.4218,0,0,left,1.7017,,481.4237,481.4248,,0,,481.4263,481.4273,,1,,1,481.4273,481.4274,481.4289,482.9314,0,39,39,39,1,0.2,0.8,0.8,0.2,1,0,,,,,,,,,,,,,,,,,,,,,,,,,,,,,,,,,,,,
,,6681419554e17e6ec71a3628,66fc98a76145664b605f195a,2024-10-02_02h53.10.353,mdp,2024.2.1,Win32,19.96007984,66fa4ebf79326e780c390304,,,,,,,,,,,,,,,,,,,,,482.932,482.932,482.9353,492.7802,1,1,right,9.3123,,492.8007,492.8019,,0,,492.8039,492.8051,,1,,0,492.8053,492.8053,492.8074,494.3035,0,40,40,40,1,0.2,0.8,0.8,0.2,1,0,,,,,,,,,,,,,,,,,,,,,,,,,,,,,,,,,,,,
,,6681419554e17e6ec71a3628,66fc98a76145664b605f195a,2024-10-02_02h53.10.353,mdp,2024.2.1,Win32,19.96007984,66fa4ebf79326e780c390304,,,,,,,,,,,,,,,,,,,,,494.304,494.304,494.306,498.3166,1,0,right,3.4937,,498.3343,498.3365,,0,,498.3378,498.3388,,0,,1,498.339,498.339,498.34,499.8359,0,41,41,41,1,0.2,0.8,0.8,0.2,1,0,,,,,,,,,,,,,,,,,,,,,,,,,,,,,,,,,,,,
,,6681419554e17e6ec71a3628,66fc98a76145664b605f195a,2024-10-02_02h53.10.353,mdp,2024.2.1,Win32,19.96007984,66fa4ebf79326e780c390304,,,,,,,,,,,,,,,,,,,,,499.8363,499.8363,499.8379,501.6009,1,0,right,1.247,,501.6027,501.6037,,0,,501.6049,501.606,,0,,1,501.606,501.606,501.6072,503.1115,0,42,42,42,1,0.2,0.8,0.8,0.2,1,0,,,,,,,,,,,,,,,,,,,,,,,,,,,,,,,,,,,,
,,6681419554e17e6ec71a3628,66fc98a76145664b605f195a,2024-10-02_02h53.10.353,mdp,2024.2.1,Win32,19.96007984,66fa4ebf79326e780c390304,,,,,,,,,,,,,,,,,,,,,503.1119,503.1119,503.1145,505.2039,1,0,right,1.5558,,505.2056,505.2067,,0,,505.208,505.2094,,0,,1,505.2094,505.2095,505.2105,506.7122,0,43,43,43,1,0.2,0.8,0.8,0.2,1,0,,,,,,,,,,,,,,,,,,,,,,,,,,,,,,,,,,,,
,,6681419554e17e6ec71a3628,66fc98a76145664b605f195a,2024-10-02_02h53.10.353,mdp,2024.2.1,Win32,19.96007984,66fa4ebf79326e780c390304,,,,,,,,,,,,,,,,,,,,,506.7127,506.7127,506.7141,508.0165,0,1,left,0.775,,508.0181,508.0195,,1,,508.021,508.022,,1,,0,508.0221,508.0221,508.0231,509.5263,0,44,44,44,1,0.2,0.8,0.8,0.2,1,0,,,,,,,,,,,,,,,,,,,,,,,,,,,,,,,,,,,,
,,6681419554e17e6ec71a3628,66fc98a76145664b605f195a,2024-10-02_02h53.10.353,mdp,2024.2.1,Win32,19.96007984,66fa4ebf79326e780c390304,,,,,,,,,,,,,,,,,,,,,509.5268,509.5269,509.5288,512.6585,1,0,right,2.6115,,512.6605,512.6615,,0,,512.6628,512.6639,,0,,1,512.664,512.6641,512.6652,514.1553,0,45,45,45,1,0.2,0.8,0.8,0.2,1,0,,,,,,,,,,,,,,,,,,,,,,,,,,,,,,,,,,,,
,,6681419554e17e6ec71a3628,66fc98a76145664b605f195a,2024-10-02_02h53.10.353,mdp,2024.2.1,Win32,19.96007984,66fa4ebf79326e780c390304,,,,,,,,,,,,,,,,,,,,,514.1559,514.156,514.1578,516.5955,1,1,right,1.9052,,516.5971,516.5984,,0,,516.6003,516.6019,,0,,0,516.6019,516.6019,516.6033,518.1174,0,46,46,46,1,0.2,0.8,0.8,0.2,1,0,,,,,,,,,,,,,,,,,,,,,,,,,,,,,,,,,,,,
,,6681419554e17e6ec71a3628,66fc98a76145664b605f195a,2024-10-02_02h53.10.353,mdp,2024.2.1,Win32,19.96007984,66fa4ebf79326e780c390304,,,,,,,,,,,,,,,,,,,,,518.1183,518.1183,518.1201,520.0453,1,0,right,1.3992,,520.0488,520.0503,,1,,520.0515,520.0524,,1,,1,520.0524,520.0524,520.0533,521.5427,0,47,47,47,1,0.6,0.4,0.6,0.4,1,0,,,,,,,,,,,,,,,,,,,,,,,,,,,,,,,,,,,,
,,6681419554e17e6ec71a3628,66fc98a76145664b605f195a,2024-10-02_02h53.10.353,mdp,2024.2.1,Win32,19.96007984,66fa4ebf79326e780c390304,,,,,,,,,,,,,,,,,,,,,521.5432,521.5432,521.545,523.4147,0,1,left,1.3385,,523.4175,523.4185,,1,,523.4199,523.4209,,1,,0,523.421,523.421,523.4222,524.9111,0,48,48,48,1,0.6,0.4,0.6,0.4,1,0,,,,,,,,,,,,,,,,,,,,,,,,,,,,,,,,,,,,
,,6681419554e17e6ec71a3628,66fc98a76145664b605f195a,2024-10-02_02h53.10.353,mdp,2024.2.1,Win32,19.96007984,66fa4ebf79326e780c390304,,,,,,,,,,,,,,,,,,,,,524.9117,524.9117,524.9131,526.3666,1,0,right,0.9219,,526.3688,526.3699,,0,,526.3711,526.3721,,0,,1,526.3722,526.3722,526.3731,527.8579,0,49,49,49,1,0.6,0.4,0.6,0.4,1,0,,,,,,,,,,,,,,,,,,,,,,,,,,,,,,,,,,,,
,,6681419554e17e6ec71a3628,66fc98a76145664b605f195a,2024-10-02_02h53.10.353,mdp,2024.2.1,Win32,19.96007984,66fa4ebf79326e780c390304,,,,,,,,,,,,,,,,,,,,,,,,,,,,,,,,,,,,,,,,,,,,,,,,,,,,,,,,527.8591,586.3742,0,0,0,0,1,imgs/rabbit.png,imgs/squirrel.png,imgs/dog.png,imgs/elephant.png,imgs/giraffe.png,,,,,,,,,,,,,,,,,,,,,,,,
,,6681419554e17e6ec71a3628,66fc98a76145664b605f195a,2024-10-02_02h53.10.353,mdp,2024.2.1,Win32,19.96007984,66fa4ebf79326e780c390304,,,,,,,,,,,,,,2,seqs/st2seq2.csv,586.3961,591.3644,space,4.4496,,591.3879,591.3879,591.3899,608.2021,1,0,right,16.2731,,608.2221,613.5597,0,1,left,613.579,613.5804,,1,,0,613.5804,613.5804,613.5821,615.0698,0,0,0,0,1,0.2,0.8,0.6,0.4,,,,,,,,,,,,,,,4.8123,,0.4,0.6,0.4,0.6,0.2,0.8,0.8,0.2,1,0,,,,,,,,,,,,
,,6681419554e17e6ec71a3628,66fc98a76145664b605f195a,2024-10-02_02h53.10.353,mdp,2024.2.1,Win32,19.96007984,66fa4ebf79326e780c390304,,,,,,,,,,,,,,,,,,,,,615.0725,615.0725,615.0742,617.1389,1,1,right,1.533,,617.1405,622.0687,1,0,right,622.0875,622.0894,,0,,1,622.0895,622.0895,622.0915,623.5907,0,1,1,1,1,0.2,0.8,0.6,0.4,,,,,,,,,,,,,,,4.3681,,0.4,0.6,0.4,0.6,0.2,0.8,0.8,0.2,1,0,,,,,,,,,,,,
,,6681419554e17e6ec71a3628,66fc98a76145664b605f195a,2024-10-02_02h53.10.353,mdp,2024.2.1,Win32,19.96007984,66fa4ebf79326e780c390304,,,,,,,,,,,,,,,,,,,,,623.5917,623.5918,623.5935,625.1128,1,0,right,1.0018,,625.1145,634.4566,0,1,left,634.4772,634.4789,,0,,0,634.479,634.4791,634.4815,635.9697,0,2,2,2,1,0.2,0.8,0.6,0.4,,,,,,,,,,,,,,,8.8111,,0.4,0.6,0.4,0.6,0.2,0.8,0.8,0.2,1,0,,,,,,,,,,,,
,,6681419554e17e6ec71a3628,66fc98a76145664b605f195a,2024-10-02_02h53.10.353,mdp,2024.2.1,Win32,19.96007984,66fa4ebf79326e780c390304,,,,,,,,,,,,,,,,,,,,,635.9702,635.9702,635.9717,636.702,1,1,right,0.1995,,636.7035,637.6562,1,0,right,637.6583,637.6599,,0,,1,637.66,637.66,637.6611,639.1632,0,3,3,3,1,0.2,0.8,0.6,0.4,,,,,,,,,,,,,,,0.4158,,0.4,0.6,0.4,0.6,0.2,0.8,0.8,0.2,1,0,,,,,,,,,,,,
,,6681419554e17e6ec71a3628,66fc98a76145664b605f195a,2024-10-02_02h53.10.353,mdp,2024.2.1,Win32,19.96007984,66fa4ebf79326e780c390304,,,,,,,,,,,,,,,,,,,,,639.1647,639.1647,639.1669,640.6608,1,1,right,0.9385,,640.6636,642.2149,1,0,right,642.2165,642.2175,,0,,1,642.2177,642.2177,642.219,643.7146,0,4,4,4,1,0.2,0.8,0.6,0.4,,,,,,,,,,,,,,,1.0324,,0.4,0.6,0.4,0.6,0.2,0.8,0.8,0.2,1,0,,,,,,,,,,,,
,,6681419554e17e6ec71a3628,66fc98a76145664b605f195a,2024-10-02_02h53.10.353,mdp,2024.2.1,Win32,19.96007984,66fa4ebf79326e780c390304,,,,,,,,,,,,,,,,,,,,,643.716,643.716,643.718,644.3172,1,1,right,0.0771,,644.3191,648.0276,0,1,left,648.0454,648.0465,,1,,0,648.0466,648.0466,648.0481,649.5459,0,5,5,5,1,0.2,0.8,0.6,0.4,,,,,,,,,,,,,,,3.1817,,0.4,0.6,0.4,0.6,0.2,0.8,0.8,0.2,1,0,,,,,,,,,,,,
,,6681419554e17e6ec71a3628,66fc98a76145664b605f195a,2024-10-02_02h53.10.353,mdp,2024.2.1,Win32,19.96007984,66fa4ebf79326e780c390304,,,,,,,,,,,,,,,,,,,,,649.5464,649.5465,649.5481,650.5838,1,1,right,0.4836,,650.5853,651.4799,1,0,right,651.4815,651.4826,,0,,1,651.4826,651.4827,651.4838,652.9717,0,6,6,6,1,0.6,0.4,0.4,0.6,,,,,,,,,,,,,,,0.362,,0.4,0.6,0.4,0.6,0.2,0.8,0.8,0.2,1,0,,,,,,,,,,,,
,,6681419554e17e6ec71a3628,66fc98a76145664b605f195a,2024-10-02_02h53.10.353,mdp,2024.2.1,Win32,19.96007984,66fa4ebf79326e780c390304,,,,,,,,,,,,,,,,,,,,,652.973,652.973,652.9751,653.8573,1,0,right,0.3603,,653.8591,654.8018,1,1,right,654.8034,654.8044,,1,,0,654.8045,654.8045,654.8058,656.3007,0,7,7,7,1,0.2,0.8,0.6,0.4,,,,,,,,,,,,,,,0.4039,,0.4,0.6,0.4,0.6,0.2,0.8,0.8,0.2,1,0,,,,,,,,,,,,
,,6681419554e17e6ec71a3628,66fc98a76145664b605f195a,2024-10-02_02h53.10.353,mdp,2024.2.1,Win32,19.96007984,66fa4ebf79326e780c390304,,,,,,,,,,,,,,,,,,,,,656.3019,656.3019,656.3039,657.4191,1,0,right,0.5742,,657.421,658.3476,1,1,right,658.3491,658.3502,,1,,0,658.3503,658.3503,658.3515,659.8465,0,8,8,8,1,0.2,0.8,0.6,0.4,,,,,,,,,,,,,,,0.3996,,0.4,0.6,0.4,0.6,0.2,0.8,0.8,0.2,1,0,,,,,,,,,,,,
,,6681419554e17e6ec71a3628,66fc98a76145664b605f195a,2024-10-02_02h53.10.353,mdp,2024.2.1,Win32,19.96007984,66fa4ebf79326e780c390304,,,,,,,,,,,,,,,,,,,,,659.8471,659.8471,659.8498,661.1298,1,0,right,0.7511,,661.1318,662.8783,0,0,left,662.8802,662.8813,,0,,1,662.8814,662.8815,662.8826,664.3716,0,9,9,9,1,0.2,0.8,0.6,0.4,,,,,,,,,,,,,,,1.2298,,0.4,0.6,0.4,0.6,0.2,0.8,0.8,0.2,1,0,,,,,,,,,,,,
,,6681419554e17e6ec71a3628,66fc98a76145664b605f195a,2024-10-02_02h53.10.353,mdp,2024.2.1,Win32,19.96007984,66fa4ebf79326e780c390304,,,,,,,,,,,,,,,,,,,,,664.3727,664.3728,664.3746,665.6262,1,0,right,0.7304,,665.6279,667.4387,0,0,left,667.4405,667.4414,,1,,1,667.4415,667.4415,667.4426,668.937,0,10,10,10,1,0.2,0.8,0.6,0.4,,,,,,,,,,,,,,,1.282,,0.4,0.6,0.4,0.6,0.2,0.8,0.8,0.2,1,0,,,,,,,,,,,,
,,6681419554e17e6ec71a3628,66fc98a76145664b605f195a,2024-10-02_02h53.10.353,mdp,2024.2.1,Win32,19.96007984,66fa4ebf79326e780c390304,,,,,,,,,,,,,,,,,,,,,668.9376,668.9377,668.9401,670.2701,1,1,right,0.799,,670.2717,672.3805,1,0,right,672.3843,672.3853,,0,,1,672.3853,672.3854,672.3863,673.865,0,11,11,11,1,0.2,0.8,0.6,0.4,,,,,,,,,,,,,,,1.5798,,0.4,0.6,0.4,0.6,0.2,0.8,0.8,0.2,1,0,,,,,,,,,,,,
,,6681419554e17e6ec71a3628,66fc98a76145664b605f195a,2024-10-02_02h53.10.353,mdp,2024.2.1,Win32,19.96007984,66fa4ebf79326e780c390304,,,,,,,,,,,,,,,,,,,,,673.8656,673.8656,673.867,675.2673,1,0,right,0.8701,,675.2689,676.4925,0,1,left,676.4947,676.4962,,0,,0,676.4962,676.4962,676.4976,677.9907,0,12,12,12,1,0.2,0.8,0.6,0.4,,,,,,,,,,,,,,,0.6825,,0.4,0.6,0.4,0.6,0.2,0.8,0.8,0.2,1,0,,,,,,,,,,,,
,,6681419554e17e6ec71a3628,66fc98a76145664b605f195a,2024-10-02_02h53.10.353,mdp,2024.2.1,Win32,19.96007984,66fa4ebf79326e780c390304,,,,,,,,,,,,,,,,,,,,,677.9911,677.9913,677.9931,679.7725,1,1,right,1.2599,,679.775,681.3418,1,0,right,681.3434,681.3448,,0,,1,681.3448,681.3449,681.3463,682.8429,0,13,13,13,1,0.2,0.8,0.6,0.4,,,,,,,,,,,,,,,1.0328,,0.4,0.6,0.4,0.6,0.2,0.8,0.8,0.2,1,0,,,,,,,,,,,,
,,6681419554e17e6ec71a3628,66fc98a76145664b605f195a,2024-10-02_02h53.10.353,mdp,2024.2.1,Win32,19.96007984,66fa4ebf79326e780c390304,,,,,,,,,,,,,,,,,,,,,682.8439,682.8439,682.8454,683.9417,1,0,right,0.5691,,683.9434,685.8369,1,1,right,685.8392,685.8404,,1,,0,685.8405,685.8405,685.8417,687.3364,0,14,14,14,1,0.2,0.8,0.6,0.4,,,,,,,,,,,,,,,1.3474,,0.4,0.6,0.4,0.6,0.2,0.8,0.8,0.2,1,0,,,,,,,,,,,,
,,6681419554e17e6ec71a3628,66fc98a76145664b605f195a,2024-10-02_02h53.10.353,mdp,2024.2.1,Win32,19.96007984,66fa4ebf79326e780c390304,,,,,,,,,,,,,,,,,,,,,687.3371,687.3371,687.3391,688.156,1,1,right,0.2978,,688.1578,689.2691,1,0,right,689.2709,689.2721,,0,,1,689.2724,689.2724,689.2739,690.7616,0,15,15,15,1,0.2,0.8,0.6,0.4,,,,,,,,,,,,,,,0.5713,,0.6,0.4,0.6,0.4,0.2,0.8,0.8,0.2,1,0,,,,,,,,,,,,
,,6681419554e17e6ec71a3628,66fc98a76145664b605f195a,2024-10-02_02h53.10.353,mdp,2024.2.1,Win32,19.96007984,66fa4ebf79326e780c390304,,,,,,,,,,,,,,,,,,,,,690.7622,690.7622,690.7642,692.1666,1,0,right,0.8724,,692.1683,693.4573,1,0,right,693.4591,693.4602,,0,,1,693.4602,693.4602,693.4629,694.9514,0,16,16,16,1,0.2,0.8,0.6,0.4,,,,,,,,,,,,,,,0.7564,,0.6,0.4,0.6,0.4,0.4,0.6,0.6,0.4,1,0,,,,,,,,,,,,
,,6681419554e17e6ec71a3628,66fc98a76145664b605f195a,2024-10-02_02h53.10.353,mdp,2024.2.1,Win32,19.96007984,66fa4ebf79326e780c390304,,,,,,,,,,,,,,,,,,,,,694.9522,694.9522,694.9539,695.5412,1,0,right,0.0467,,695.5452,697.4282,0,0,left,697.4298,697.4309,,0,,1,697.431,697.431,697.4321,698.9204,0,17,17,17,1,0.2,0.8,0.6,0.4,,,,,,,,,,,,,,,1.3666,,0.6,0.4,0.6,0.4,0.4,0.6,0.6,0.4,1,0,,,,,,,,,,,,
,,6681419554e17e6ec71a3628,66fc98a76145664b605f195a,2024-10-02_02h53.10.353,mdp,2024.2.1,Win32,19.96007984,66fa4ebf79326e780c390304,,,,,,,,,,,,,,,,,,,,,698.9209,698.9209,698.9229,699.7099,1,0,right,0.2723,,699.7114,701.3534,1,0,right,701.3554,701.3564,,1,,1,701.3565,701.3565,701.3579,702.8496,0,18,18,18,1,0.4,0.6,0.8,0.2,,,,,,,,,,,,,,,1.1236,,0.6,0.4,0.6,0.4,0.4,0.6,0.6,0.4,1,0,,,,,,,,,,,,
,,6681419554e17e6ec71a3628,66fc98a76145664b605f195a,2024-10-02_02h53.10.353,mdp,2024.2.1,Win32,19.96007984,66fa4ebf79326e780c390304,,,,,,,,,,,,,,,,,,,,,702.8501,702.8501,702.852,703.7366,1,0,right,0.3691,,703.7381,705.5997,0,0,left,705.6018,705.603,,0,,1,705.603,705.6031,705.6043,707.0997,0,19,19,19,1,0.4,0.6,0.8,0.2,,,,,,,,,,,,,,,1.3318,,0.6,0.4,0.6,0.4,0.4,0.6,0.6,0.4,1,0,,,,,,,,,,,,
,,6681419554e17e6ec71a3628,66fc98a76145664b605f195a,2024-10-02_02h53.10.353,mdp,2024.2.1,Win32,19.96007984,66fa4ebf79326e780c390304,,,,,,,,,,,,,,,,,,,,,707.1003,707.1003,707.1019,707.6953,1,0,right,0.0634,,707.6976,711.5913,1,1,right,711.609,711.6107,,1,,0,711.6108,711.6108,711.6122,713.1264,0,20,20,20,1,0.4,0.6,0.8,0.2,,,,,,,,,,,,,,,3.3754,,0.6,0.4,0.6,0.4,0.4,0.6,0.6,0.4,1,0,,,,,,,,,,,,
,,6681419554e17e6ec71a3628,66fc98a76145664b605f195a,2024-10-02_02h53.10.353,mdp,2024.2.1,Win32,19.96007984,66fa4ebf79326e780c390304,,,,,,,,,,,,,,,,,,,,,713.1269,713.1269,713.1283,713.6611,1,1,right,0.0007,,713.6631,715.5439,1,1,right,715.5456,715.5467,,0,,0,715.5468,715.5468,715.548,717.0401,0,21,21,21,1,0.4,0.6,0.8,0.2,,,,,,,,,,,,,,,1.3518,,0.6,0.4,0.6,0.4,0.4,0.6,0.6,0.4,1,0,,,,,,,,,,,,
,,6681419554e17e6ec71a3628,66fc98a76145664b605f195a,2024-10-02_02h53.10.353,mdp,2024.2.1,Win32,19.96007984,66fa4ebf79326e780c390304,,,,,,,,,,,,,,,,,,,,,717.0409,717.0409,717.0422,717.67,1,0,right,0.0992,,717.6722,719.3362,0,1,left,719.3381,719.3397,,1,,0,719.3398,719.3398,719.341,720.8365,0,22,22,22,1,0.4,0.6,0.8,0.2,,,,,,,,,,,,,,,1.1183,,0.2,0.8,0.2,0.8,0.4,0.6,0.6,0.4,1,0,,,,,,,,,,,,
,,6681419554e17e6ec71a3628,66fc98a76145664b605f195a,2024-10-02_02h53.10.353,mdp,2024.2.1,Win32,19.96007984,66fa4ebf79326e780c390304,,,,,,,,,,,,,,,,,,,,,720.8371,720.8371,720.8389,721.8156,1,1,right,0.4596,,721.8178,722.7391,1,0,right,722.7408,722.7418,,0,,1,722.7418,722.7419,722.7431,724.2398,0,23,23,23,1,0.4,0.6,0.8,0.2,,,,,,,,,,,,,,,0.3852,,0.2,0.8,0.2,0.8,0.4,0.6,0.6,0.4,1,0,,,,,,,,,,,,
,,6681419554e17e6ec71a3628,66fc98a76145664b605f195a,2024-10-02_02h53.10.353,mdp,2024.2.1,Win32,19.96007984,66fa4ebf79326e780c390304,,,,,,,,,,,,,,,,,,,,,724.2403,724.2403,724.2418,724.9861,1,0,right,0.224,,724.9881,727.9457,1,1,right,727.9651,727.9665,,1,,0,727.9665,727.9666,727.9682,729.4621,0,24,24,24,1,0.4,0.6,0.8,0.2,,,,,,,,,,,,,,,2.4164,,0.2,0.8,0.2,0.8,0.4,0.6,0.6,0.4,1,0,,,,,,,,,,,,
,,6681419554e17e6ec71a3628,66fc98a76145664b605f195a,2024-10-02_02h53.10.353,mdp,2024.2.1,Win32,19.96007984,66fa4ebf79326e780c390304,,,,,,,,,,,,,,,,,,,,,729.4628,729.4628,729.4646,730.4292,1,0,right,0.4361,,730.4309,731.6449,1,1,right,731.6467,731.648,,1,,0,731.6482,731.6482,731.6499,733.1409,0,25,25,25,1,0.4,0.6,0.8,0.2,,,,,,,,,,,,,,,0.6886,,0.2,0.8,0.2,0.8,0.4,0.6,0.6,0.4,1,0,,,,,,,,,,,,
,,6681419554e17e6ec71a3628,66fc98a76145664b605f195a,2024-10-02_02h53.10.353,mdp,2024.2.1,Win32,19.96007984,66fa4ebf79326e780c390304,,,,,,,,,,,,,,,,,,,,,733.1415,733.1415,733.1429,733.9909,1,0,right,0.3292,,733.9925,735.4734,1,1,right,735.4751,735.4761,,1,,0,735.4763,735.4763,735.4774,736.9534,0,26,26,26,1,0.4,0.6,0.8,0.2,,,,,,,,,,,,,,,0.9504,,0.2,0.8,0.2,0.8,0.4,0.6,0.6,0.4,1,0,,,,,,,,,,,,
,,6681419554e17e6ec71a3628,66fc98a76145664b605f195a,2024-10-02_02h53.10.353,mdp,2024.2.1,Win32,19.96007984,66fa4ebf79326e780c390304,,,,,,,,,,,,,,,,,,,,,736.9545,736.9546,736.956,737.8912,1,0,right,0.4085,,737.8934,739.3983,1,1,right,739.4009,739.4021,,1,,0,739.4022,739.4022,739.4039,740.8959,0,27,27,27,1,0.4,0.6,0.8,0.2,,,,,,,,,,,,,,,0.9791,,0.2,0.8,0.2,0.8,0.4,0.6,0.6,0.4,1,0,,,,,,,,,,,,
,,6681419554e17e6ec71a3628,66fc98a76145664b605f195a,2024-10-02_02h53.10.353,mdp,2024.2.1,Win32,19.96007984,66fa4ebf79326e780c390304,,,,,,,,,,,,,,,,,,,,,740.8963,740.8963,740.8991,742.709,1,0,right,1.2783,,742.7107,744.0435,1,1,right,744.0461,744.0472,,0,,0,744.0472,744.0472,744.0489,745.5402,0,28,28,28,1,0.4,0.6,0.8,0.2,,,,,,,,,,,,,,,0.8157,,0.2,0.8,0.2,0.8,0.4,0.6,0.6,0.4,1,0,,,,,,,,,,,,
,,6681419554e17e6ec71a3628,66fc98a76145664b605f195a,2024-10-02_02h53.10.353,mdp,2024.2.1,Win32,19.96007984,66fa4ebf79326e780c390304,,,,,,,,,,,,,,,,,,,,,745.5408,745.5408,745.5421,746.6346,1,0,right,0.5608,,746.6368,747.444,0,1,left,747.4458,747.447,,0,,0,747.447,747.447,747.4483,748.9286,0,29,29,29,1,0.4,0.6,0.8,0.2,,,,,,,,,,,,,,,0.2832,,0.2,0.8,0.2,0.8,0.4,0.6,0.6,0.4,1,0,,,,,,,,,,,,
,,6681419554e17e6ec71a3628,66fc98a76145664b605f195a,2024-10-02_02h53.10.353,mdp,2024.2.1,Win32,19.96007984,66fa4ebf79326e780c390304,,,,,,,,,,,,,,,,,,,,,748.9292,748.9292,748.9307,749.7709,1,0,right,0.3096,,749.7741,750.3042,1,0,right,750.3066,750.3081,,1,,1,750.3087,750.3087,750.3101,751.7922,0,30,30,30,1,0.4,0.6,0.8,0.2,,,,,,,,,,,,,,,0.0007,,0.2,0.8,0.2,0.8,0.4,0.6,0.6,0.4,1,0,,,,,,,,,,,,
,,6681419554e17e6ec71a3628,66fc98a76145664b605f195a,2024-10-02_02h53.10.353,mdp,2024.2.1,Win32,19.96007984,66fa4ebf79326e780c390304,,,,,,,,,,,,,,,,,,,,,751.7928,751.7928,751.7942,752.5049,1,0,right,0.176,,752.5092,753.9411,1,1,right,753.9427,753.9437,,1,,0,753.9437,753.9437,753.945,755.4369,0,31,31,31,1,0.4,0.6,0.8,0.2,,,,,,,,,,,,,,,0.9075,,0.2,0.8,0.2,0.8,0.4,0.6,0.6,0.4,1,0,,,,,,,,,,,,
,,6681419554e17e6ec71a3628,66fc98a76145664b605f195a,2024-10-02_02h53.10.353,mdp,2024.2.1,Win32,19.96007984,66fa4ebf79326e780c390304,,,,,,,,,,,,,,,,,,,,,755.4381,755.4381,755.4401,756.3306,1,0,right,0.3726,,756.3332,757.2369,1,0,right,757.2399,757.2417,,0,,1,757.2417,757.2417,757.243,758.7471,0,32,32,32,1,0.4,0.6,0.8,0.2,,,,,,,,,,,,,,,0.3579,,0.2,0.8,0.2,0.8,0.4,0.6,0.6,0.4,1,0,,,,,,,,,,,,
,,6681419554e17e6ec71a3628,66fc98a76145664b605f195a,2024-10-02_02h53.10.353,mdp,2024.2.1,Win32,19.96007984,66fa4ebf79326e780c390304,,,,,,,,,,,,,,,,,,,,,758.7483,758.7483,758.7514,759.2876,1,0,right,0.0191,,759.2895,760.4529,1,1,right,760.4545,760.4557,,1,,0,760.4558,760.4558,760.4569,761.9466,0,33,33,33,1,0.4,0.6,0.8,0.2,,,,,,,,,,,,,,,0.6384,,0.2,0.8,0.2,0.8,0.8,0.2,0.2,0.8,1,0,,,,,,,,,,,,
,,6681419554e17e6ec71a3628,66fc98a76145664b605f195a,2024-10-02_02h53.10.353,mdp,2024.2.1,Win32,19.96007984,66fa4ebf79326e780c390304,,,,,,,,,,,,,,,,,,,,,761.9478,761.9479,761.9497,762.9078,1,0,right,0.4326,,762.9106,763.7902,1,1,right,763.7925,763.7939,,0,,0,763.794,763.794,763.7952,765.2941,0,34,34,34,1,0.4,0.6,0.8,0.2,,,,,,,,,,,,,,,0.3568,,0.2,0.8,0.2,0.8,0.8,0.2,0.2,0.8,1,0,,,,,,,,,,,,
,,6681419554e17e6ec71a3628,66fc98a76145664b605f195a,2024-10-02_02h53.10.353,mdp,2024.2.1,Win32,19.96007984,66fa4ebf79326e780c390304,,,,,,,,,,,,,,,,,,,,,765.2946,765.2946,765.2961,765.8917,1,0,right,0.0614,,765.8932,766.8937,0,1,left,766.8955,766.8965,,1,,0,766.8966,766.8966,766.8977,768.3869,0,35,35,35,1,0.4,0.6,0.8,0.2,,,,,,,,,,,,,,,0.4556,,0.2,0.8,0.2,0.8,0.8,0.2,0.2,0.8,1,0,,,,,,,,,,,,
,,6681419554e17e6ec71a3628,66fc98a76145664b605f195a,2024-10-02_02h53.10.353,mdp,2024.2.1,Win32,19.96007984,66fa4ebf79326e780c390304,,,,,,,,,,,,,,,,,,,,,768.3892,768.3892,768.3907,769.5923,0,1,left,0.6808,,769.5941,771.0173,1,1,right,771.02,771.0211,,1,,0,771.0212,771.0212,771.0223,772.5142,0,36,36,36,1,0.4,0.6,0.8,0.2,,,,,,,,,,,,,,,0.8796,,0.2,0.8,0.2,0.8,0.8,0.2,0.2,0.8,1,0,,,,,,,,,,,,
,,6681419554e17e6ec71a3628,66fc98a76145664b605f195a,2024-10-02_02h53.10.353,mdp,2024.2.1,Win32,19.96007984,66fa4ebf79326e780c390304,,,,,,,,,,,,,,,,,,,,,772.5152,772.5153,772.5176,773.3547,1,0,right,0.305,,773.3563,774.2674,0,1,left,774.269,774.271,,1,,0,774.2711,774.2711,774.2724,775.7609,0,37,37,37,1,0.4,0.6,0.8,0.2,,,,,,,,,,,,,,,0.3532,,0.2,0.8,0.2,0.8,0.2,0.8,0.8,0.2,1,0,,,,,,,,,,,,
,,6681419554e17e6ec71a3628,66fc98a76145664b605f195a,2024-10-02_02h53.10.353,mdp,2024.2.1,Win32,19.96007984,66fa4ebf79326e780c390304,,,,,,,,,,,,,,,,,,,,,775.7614,775.7614,775.7639,776.6344,1,1,right,0.3534,,776.636,777.1978,1,0,right,777.1998,777.2009,,0,,1,777.201,777.201,777.2022,778.6944,0,38,38,38,1,0.4,0.6,0.8,0.2,,,,,,,,,,,,,,,0.0206,,0.2,0.8,0.2,0.8,0.2,0.8,0.8,0.2,1,0,,,,,,,,,,,,
,,6681419554e17e6ec71a3628,66fc98a76145664b605f195a,2024-10-02_02h53.10.353,mdp,2024.2.1,Win32,19.96007984,66fa4ebf79326e780c390304,,,,,,,,,,,,,,,,,,,,,778.6955,778.6955,778.6976,779.3683,1,0,right,0.156,,779.37,781.4281,1,1,right,781.4307,781.4318,,1,,0,781.4318,781.4319,781.4338,782.9249,0,39,39,39,1,0.4,0.6,0.8,0.2,,,,,,,,,,,,,,,1.4998,,0.2,0.8,0.2,0.8,0.2,0.8,0.8,0.2,1,0,,,,,,,,,,,,
,,6681419554e17e6ec71a3628,66fc98a76145664b605f195a,2024-10-02_02h53.10.353,mdp,2024.2.1,Win32,19.96007984,66fa4ebf79326e780c390304,,,,,,,,,,,,,,,,,,,,,782.9254,782.9255,782.9273,783.4779,1,1,right,0.0193,,783.4799,784.3188,1,0,right,784.3216,784.323,,0,,1,784.3232,784.3232,784.3249,785.8224,0,40,40,40,1,0.4,0.6,0.8,0.2,,,,,,,,,,,,,,,0.3123,,0.2,0.8,0.2,0.8,0.2,0.8,0.8,0.2,1,0,,,,,,,,,,,,
,,6681419554e17e6ec71a3628,66fc98a76145664b605f195a,2024-10-02_02h53.10.353,mdp,2024.2.1,Win32,19.96007984,66fa4ebf79326e780c390304,,,,,,,,,,,,,,,,,,,,,785.8228,785.8229,785.8243,788.0246,0,0,left,1.67,,788.0427,789.9144,0,1,left,789.9169,789.9188,,1,,0,789.9188,789.9188,789.9204,791.4125,0,41,41,41,1,0.4,0.6,0.8,0.2,,,,,,,,,,,,,,,1.347,,0.2,0.8,0.2,0.8,0.2,0.8,0.8,0.2,1,0,,,,,,,,,,,,
,,6681419554e17e6ec71a3628,66fc98a76145664b605f195a,2024-10-02_02h53.10.353,mdp,2024.2.1,Win32,19.96007984,66fa4ebf79326e780c390304,,,,,,,,,,,,,,,,,,,,,791.4136,791.4136,791.4159,792.2124,1,0,right,0.2789,,792.2148,793.1791,0,1,left,793.1814,793.1825,,1,,0,793.1825,793.1825,793.1839,794.6836,0,42,42,42,1,0.4,0.6,0.8,0.2,,,,,,,,,,,,,,,0.4328,,0.2,0.8,0.2,0.8,0.2,0.8,0.8,0.2,1,0,,,,,,,,,,,,
,,6681419554e17e6ec71a3628,66fc98a76145664b605f195a,2024-10-02_02h53.10.353,mdp,2024.2.1,Win32,19.96007984,66fa4ebf79326e780c390304,,,,,,,,,,,,,,,,,,,,,794.6841,794.6842,794.6857,795.4059,1,0,right,0.2005,,795.4118,796.3959,1,1,right,796.3976,796.3988,,1,,0,796.3988,796.3988,796.4004,797.8893,0,43,43,43,1,0.4,0.6,0.8,0.2,,,,,,,,,,,,,,,0.4539,,0.2,0.8,0.2,0.8,0.2,0.8,0.8,0.2,1,0,,,,,,,,,,,,
,,6681419554e17e6ec71a3628,66fc98a76145664b605f195a,2024-10-02_02h53.10.353,mdp,2024.2.1,Win32,19.96007984,66fa4ebf79326e780c390304,,,,,,,,,,,,,,,,,,,,,797.8898,797.8898,797.8912,798.6893,1,1,right,0.2665,,798.6907,799.415,1,1,right,799.417,799.4181,,0,,0,799.4182,799.4182,799.4199,800.9099,0,44,44,44,1,0.4,0.6,0.8,0.2,,,,,,,,,,,,,,,0.1763,,0.2,0.8,0.2,0.8,0.2,0.8,0.8,0.2,1,0,,,,,,,,,,,,
,,6681419554e17e6ec71a3628,66fc98a76145664b605f195a,2024-10-02_02h53.10.353,mdp,2024.2.1,Win32,19.96007984,66fa4ebf79326e780c390304,,,,,,,,,,,,,,,,,,,,,800.9105,800.9105,800.912,802.0079,1,0,right,0.567,,802.0098,803.0538,1,0,right,803.0563,803.0576,,1,,1,803.0577,803.0577,803.0592,804.5565,0,45,45,45,1,0.4,0.6,0.8,0.2,,,,,,,,,,,,,,,0.5013,,0.4,0.6,0.4,0.6,0.2,0.8,0.8,0.2,1,0,,,,,,,,,,,,
,,6681419554e17e6ec71a3628,66fc98a76145664b605f195a,2024-10-02_02h53.10.353,mdp,2024.2.1,Win32,19.96007984,66fa4ebf79326e780c390304,,,,,,,,,,,,,,,,,,,,,804.557,804.557,804.5594,805.6853,1,0,right,0.6013,,805.6874,807.1204,1,1,right,807.122,807.123,,1,,0,807.123,807.123,807.1243,808.6167,0,46,46,46,1,0.4,0.6,0.8,0.2,,,,,,,,,,,,,,,0.9128,,0.4,0.6,0.4,0.6,0.2,0.8,0.8,0.2,1,0,,,,,,,,,,,,
,,6681419554e17e6ec71a3628,66fc98a76145664b605f195a,2024-10-02_02h53.10.353,mdp,2024.2.1,Win32,19.96007984,66fa4ebf79326e780c390304,,,,,,,,,,,,,,,,,,,,,808.6177,808.6177,808.6198,809.6999,1,0,right,0.5636,,809.7015,810.4022,1,0,right,810.4038,810.4047,,0,,1,810.4048,810.4048,810.4058,811.8935,0,47,47,47,1,0.4,0.6,0.8,0.2,,,,,,,,,,,,,,,0.1726,,0.4,0.6,0.4,0.6,0.2,0.8,0.8,0.2,1,0,,,,,,,,,,,,
,,6681419554e17e6ec71a3628,66fc98a76145664b605f195a,2024-10-02_02h53.10.353,mdp,2024.2.1,Win32,19.96007984,66fa4ebf79326e780c390304,,,,,,,,,,,,,,,,,,,,,811.8943,811.8943,811.8969,812.844,1,0,right,0.4289,,812.8469,813.7409,0,1,left,813.7435,813.745,,1,,0,813.745,813.745,813.7463,815.2434,0,48,48,48,1,0.4,0.6,0.8,0.2,,,,,,,,,,,,,,,0.3628,,0.4,0.6,0.4,0.6,0.2,0.8,0.8,0.2,1,0,,,,,,,,,,,,
,,6681419554e17e6ec71a3628,66fc98a76145664b605f195a,2024-10-02_02h53.10.353,mdp,2024.2.1,Win32,19.96007984,66fa4ebf79326e780c390304,,,,,,,,,,,,,,,,,,,,,815.244,815.244,815.2455,819.4303,1,0,right,3.6713,,819.4503,820.697,1,0,right,820.6992,820.7002,,0,,1,820.7003,820.7003,820.7014,822.2037,0,49,49,49,1,0.4,0.6,0.8,0.2,,,,,,,,,,,,,,,0.729,,0.4,0.6,0.4,0.6,0.2,0.8,0.8,0.2,1,0,,,,,,,,,,,,
,,6681419554e17e6ec71a3628,66fc98a76145664b605f195a,2024-10-02_02h53.10.353,mdp,2024.2.1,Win32,19.96007984,66fa4ebf79326e780c390304,,,,,,,,,,,,,,,,,,,,,,,,,,,,,,,,,,,,,,,,,,,,,,,,,,,,,,,,822.2039,880.7557,0,1,1,7,1,imgs/dog.png,imgs/pig.png,imgs/cat.png,imgs/squirrel.png,imgs/goat.png,,,,,,,,,,,,,,,,,,,,,,,,
,,6681419554e17e6ec71a3628,66fc98a76145664b605f195a,2024-10-02_02h53.10.353,mdp,2024.2.1,Win32,19.96007984,66fa4ebf79326e780c390304,,,,,,,,,,,,,,3,seqs/st3seq20.csv,880.7753,952.3442,space,70.8581,,952.373,952.373,952.3781,960.1788,1,0,right,7.2427,,960.1953,965.1361,0,1,left,965.156,967.9391,0,0,left,1,967.9392,967.9392,967.9409,969.4448,0,0,0,0,1,0.2,0.8,0.4,0.6,,,,,,,,,,,,,,,4.405,,0.4,0.6,0.6,0.4,0.8,0.2,0.6,0.4,,,2.2479,,0.4,0.6,0.8,0.2,0.2,0.8,0.4,0.6,1,0
,,6681419554e17e6ec71a3628,66fc98a76145664b605f195a,2024-10-02_02h53.10.353,mdp,2024.2.1,Win32,19.96007984,66fa4ebf79326e780c390304,,,,,,,,,,,,,,,,,,,,,969.4457,969.4457,969.4471,971.4699,1,1,right,1.4971,,971.4726,974.3778,1,1,right,974.3804,976.5602,0,0,left,1,976.5603,976.5603,976.562,978.0566,0,1,1,1,1,0.2,0.8,0.4,0.6,,,,,,,,,,,,,,,2.3797,,0.4,0.6,0.6,0.4,0.8,0.2,0.6,0.4,,,1.6514,,0.4,0.6,0.8,0.2,0.2,0.8,0.4,0.6,1,0
,,6681419554e17e6ec71a3628,66fc98a76145664b605f195a,2024-10-02_02h53.10.353,mdp,2024.2.1,Win32,19.96007984,66fa4ebf79326e780c390304,,,,,,,,,,,,,,,,,,,,,978.0572,978.0572,978.0592,979.2048,1,1,right,0.6085,,979.2071,981.4583,1,0,right,981.4606,984.1808,0,1,left,0,984.1809,984.1809,984.1831,985.6949,0,2,2,2,1,0.2,0.8,0.4,0.6,,,,,,,,,,,,,,,1.7129,,0.4,0.6,0.6,0.4,0.8,0.2,0.6,0.4,,,2.1632,,0.4,0.6,0.8,0.2,0.2,0.8,0.4,0.6,1,0
,,6681419554e17e6ec71a3628,66fc98a76145664b605f195a,2024-10-02_02h53.10.353,mdp,2024.2.1,Win32,19.96007984,66fa4ebf79326e780c390304,,,,,,,,,,,,,,,,,,,,,985.6957,985.6957,985.6972,986.8552,1,1,right,0.6133,,986.861,988.2536,1,0,right,988.2564,990.3123,1,0,right,1,990.3124,990.3125,990.3145,991.8115,0,3,3,3,1,0.2,0.8,0.4,0.6,,,,,,,,,,,,,,,0.8557,,0.4,0.6,0.6,0.4,0.8,0.2,0.6,0.4,,,1.5021,,0.4,0.6,0.8,0.2,0.2,0.8,0.4,0.6,1,0
,,6681419554e17e6ec71a3628,66fc98a76145664b605f195a,2024-10-02_02h53.10.353,mdp,2024.2.1,Win32,19.96007984,66fa4ebf79326e780c390304,,,,,,,,,,,,,,,,,,,,,991.8128,991.8128,991.8145,993.3801,0,1,left,1.0241,,993.3821,997.0403,1,0,right,997.0569,1000.5091,0,1,left,0,1000.5096,1000.5096,1000.5133,1002.0141,0,4,4,4,1,0.2,0.8,0.4,0.6,,,,,,,,,,,,,,,3.1147,,0.4,0.6,0.6,0.4,0.8,0.2,0.6,0.4,,,2.9322,,0.4,0.6,0.8,0.2,0.2,0.8,0.4,0.6,1,0
,,6681419554e17e6ec71a3628,66fc98a76145664b605f195a,2024-10-02_02h53.10.353,mdp,2024.2.1,Win32,19.96007984,66fa4ebf79326e780c390304,,,,,,,,,,,,,,,,,,,,,1002.0148,1002.0149,1002.0165,1003.6118,1,1,right,1.0348,,1003.6133,1007.3417,1,1,right,1007.3579,1009.4991,1,1,right,0,1009.4991,1009.4991,1009.501,1010.9955,0,5,5,5,1,0.2,0.8,0.4,0.6,,,,,,,,,,,,,,,3.1983,,0.4,0.6,0.6,0.4,0.8,0.2,0.6,0.4,,,1.6273,,0.4,0.6,0.8,0.2,0.8,0.2,0.2,0.8,1,0
,,6681419554e17e6ec71a3628,66fc98a76145664b605f195a,2024-10-02_02h53.10.353,mdp,2024.2.1,Win32,19.96007984,66fa4ebf79326e780c390304,,,,,,,,,,,,,,,,,,,,,1010.9962,1010.9962,1010.9979,1012.0138,1,1,right,0.4665,,1012.016,1012.6366,0,0,left,1012.6384,1015.8566,1,0,right,1,1015.8567,1015.8567,1015.8755,1017.3479,0,6,6,6,1,0.2,0.8,0.4,0.6,,,,,,,,,,,,,,,0.0759,,0.4,0.6,0.6,0.4,0.8,0.2,0.6,0.4,,,2.6369,0.0003,0.4,0.6,0.8,0.2,0.8,0.2,0.2,0.8,1,0
,,6681419554e17e6ec71a3628,66fc98a76145664b605f195a,2024-10-02_02h53.10.353,mdp,2024.2.1,Win32,19.96007984,66fa4ebf79326e780c390304,,,,,,,,,,,,,,,,,,,,,1017.3488,1017.3488,1017.351,1018.2978,1,1,right,0.4127,,1018.3006,1019.5163,1,0,right,1019.5185,1025.6694,1,0,right,1,1025.6695,1025.6695,1025.6868,1027.1638,0,7,7,7,1,0.2,0.8,0.4,0.6,,,,,,,,,,,,,,,0.6697,,0.4,0.6,0.6,0.4,0.8,0.2,0.6,0.4,,,5.5946,,0.4,0.6,0.8,0.2,0.8,0.2,0.2,0.8,1,0
,,6681419554e17e6ec71a3628,66fc98a76145664b605f195a,2024-10-02_02h53.10.353,mdp,2024.2.1,Win32,19.96007984,66fa4ebf79326e780c390304,,,,,,,,,,,,,,,,,,,,,1027.1651,1027.1651,1027.1664,1028.1044,1,1,right,0.4066,,1028.1063,1121.0726,1,0,right,1121.098,1123.1538,1,0,right,1,1123.1539,1123.1539,1123.159,1124.6521,0,8,8,8,1,0.2,0.8,0.4,0.6,,,,,,,,,,,,,,,92.406,,0.4,0.6,0.6,0.4,0.8,0.2,0.6,0.4,,,1.5265,,0.4,0.6,0.8,0.2,0.8,0.2,0.2,0.8,1,0
,,6681419554e17e6ec71a3628,66fc98a76145664b605f195a,2024-10-02_02h53.10.353,mdp,2024.2.1,Win32,19.96007984,66fa4ebf79326e780c390304,,,,,,,,,,,,,,,,,,,,,1124.6532,1124.6532,1124.655,1129.8363,0,1,left,4.6475,,1129.8568,1132.8125,1,1,right,1132.8152,1139.9214,1,1,right,0,1139.9215,1139.9215,1139.9427,1141.4269,0,9,9,9,1,0.2,0.8,0.4,0.6,,,,,,,,,,,,,,,2.4489,,0.4,0.6,0.6,0.4,0.8,0.2,0.6,0.4,,,6.5471,,0.4,0.6,0.8,0.2,0.8,0.2,0.2,0.8,1,0
,,6681419554e17e6ec71a3628,66fc98a76145664b605f195a,2024-10-02_02h53.10.353,mdp,2024.2.1,Win32,19.96007984,66fa4ebf79326e780c390304,,,,,,,,,,,,,,,,,,,,,1141.4277,1141.4279,1141.4328,1142.4175,1,0,right,0.4487,,1142.4195,1146.4741,0,1,left,1146.4939,1148.2712,0,0,left,1,1148.2714,1148.2714,1148.2727,1149.7665,0,10,10,10,1,0.2,0.8,0.4,0.6,,,,,,,,,,,,,,,3.5237,,0.2,0.8,0.4,0.6,0.8,0.2,0.6,0.4,,,1.257,,0.4,0.6,0.8,0.2,0.8,0.2,0.2,0.8,1,0
,,6681419554e17e6ec71a3628,66fc98a76145664b605f195a,2024-10-02_02h53.10.353,mdp,2024.2.1,Win32,19.96007984,66fa4ebf79326e780c390304,,,,,,,,,,,,,,,,,,,,,1149.7671,1149.7672,1149.7685,1151.2581,1,1,right,0.9317,,1151.2605,1153.7478,1,0,right,1153.7681,1157.9723,1,0,right,1,1157.9724,1157.9724,1157.9933,1159.4705,0,11,11,11,1,0.4,0.6,0.2,0.8,,,,,,,,,,,,,,,1.9358,,0.2,0.8,0.4,0.6,0.8,0.2,0.6,0.4,,,3.6911,,0.4,0.6,0.8,0.2,0.8,0.2,0.2,0.8,1,0
,,6681419554e17e6ec71a3628,66fc98a76145664b605f195a,2024-10-02_02h53.10.353,mdp,2024.2.1,Win32,19.96007984,66fa4ebf79326e780c390304,,,,,,,,,,,,,,,,,,,,,1159.4712,1159.4712,1159.4737,1160.4827,1,1,right,0.4776,,1160.4844,1164.7525,1,0,right,1164.7708,1168.3558,1,1,right,0,1168.3559,1168.3559,1168.3748,1169.8598,0,12,12,12,1,0.4,0.6,0.2,0.8,,,,,,,,,,,,,,,3.7311,,0.4,0.6,0.6,0.4,0.8,0.2,0.6,0.4,,,3.0769,,0.4,0.6,0.8,0.2,0.8,0.2,0.2,0.8,1,0
,,6681419554e17e6ec71a3628,66fc98a76145664b605f195a,2024-10-02_02h53.10.353,mdp,2024.2.1,Win32,19.96007984,66fa4ebf79326e780c390304,,,,,,,,,,,,,,,,,,,,,1169.8606,1169.8606,1169.8631,1170.9316,1,1,right,0.5214,,1170.9333,1172.0912,1,0,right,1172.094,1173.7413,1,0,right,1,1173.7413,1173.7413,1173.7438,1175.2268,0,13,13,13,1,0.4,0.6,0.2,0.8,,,,,,,,,,,,,,,0.5952,,0.4,0.6,0.6,0.4,0.8,0.2,0.6,0.4,,,1.1168,,0.4,0.6,0.8,0.2,0.8,0.2,0.2,0.8,1,0
,,6681419554e17e6ec71a3628,66fc98a76145664b605f195a,2024-10-02_02h53.10.353,mdp,2024.2.1,Win32,19.96007984,66fa4ebf79326e780c390304,,,,,,,,,,,,,,,,,,,,,1175.2275,1175.2275,1175.2294,1176.0765,1,1,right,0.3044,,1176.078,1177.01,1,0,right,1177.0114,1178.9662,0,0,left,1,1178.9663,1178.9663,1178.968,1180.4734,0,14,14,14,1,0.4,0.6,0.2,0.8,,,,,,,,,,,,,,,0.3985,,0.4,0.6,0.6,0.4,0.8,0.2,0.6,0.4,,,1.4138,,0.4,0.6,0.8,0.2,0.8,0.2,0.2,0.8,1,0
,,6681419554e17e6ec71a3628,66fc98a76145664b605f195a,2024-10-02_02h53.10.353,mdp,2024.2.1,Win32,19.96007984,66fa4ebf79326e780c390304,,,,,,,,,,,,,,,,,,,,,1180.4741,1180.4741,1180.4756,1181.3636,1,1,right,0.3644,,1181.3656,1182.2371,1,1,right,1182.2394,1184.2372,0,0,left,1,1184.2374,1184.2375,1184.2397,1185.7401,0,15,15,15,1,0.4,0.6,0.2,0.8,,,,,,,,,,,,,,,0.3504,,0.4,0.6,0.6,0.4,0.8,0.2,0.6,0.4,,,1.4606,,0.4,0.6,0.8,0.2,0.8,0.2,0.2,0.8,1,0
,,6681419554e17e6ec71a3628,66fc98a76145664b605f195a,2024-10-02_02h53.10.353,mdp,2024.2.1,Win32,19.96007984,66fa4ebf79326e780c390304,,,,,,,,,,,,,,,,,,,,,1185.741,1185.741,1185.7426,1186.433,1,1,right,0.1661,,1186.4346,1187.5558,1,0,right,1187.5579,1189.2871,1,0,right,1,1189.2872,1189.2872,1189.2894,1190.7622,0,16,16,16,1,0.4,0.6,0.2,0.8,,,,,,,,,,,,,,,0.5946,,0.4,0.6,0.6,0.4,0.8,0.2,0.6,0.4,,,1.1778,,0.4,0.6,0.8,0.2,0.8,0.2,0.2,0.8,1,0
,,6681419554e17e6ec71a3628,66fc98a76145664b605f195a,2024-10-02_02h53.10.353,mdp,2024.2.1,Win32,19.96007984,66fa4ebf79326e780c390304,,,,,,,,,,,,,,,,,,,,,1190.763,1190.763,1190.7644,1191.6762,1,1,right,0.3824,,1191.6782,1192.7375,1,0,right,1192.7406,1194.4902,0,0,left,1,1194.4903,1194.4903,1194.4921,1195.9732,0,17,17,17,1,0.4,0.6,0.2,0.8,,,,,,,,,,,,,,,0.5315,,0.4,0.6,0.6,0.4,0.8,0.2,0.6,0.4,,,1.228,,0.4,0.6,0.8,0.2,0.8,0.2,0.2,0.8,1,0
,,6681419554e17e6ec71a3628,66fc98a76145664b605f195a,2024-10-02_02h53.10.353,mdp,2024.2.1,Win32,19.96007984,66fa4ebf79326e780c390304,,,,,,,,,,,,,,,,,,,,,1195.9739,1195.9739,1195.9758,1196.5846,1,1,right,0.0964,,1196.5893,1200.0378,1,1,right,1200.0574,1201.8198,0,0,left,1,1201.82,1201.82,1201.8217,1203.3021,0,18,18,18,1,0.4,0.6,0.2,0.8,,,,,,,,,,,,,,,2.9211,,0.4,0.6,0.6,0.4,0.8,0.2,0.6,0.4,,,1.2375,,0.4,0.6,0.8,0.2,0.8,0.2,0.2,0.8,1,0
,,6681419554e17e6ec71a3628,66fc98a76145664b605f195a,2024-10-02_02h53.10.353,mdp,2024.2.1,Win32,19.96007984,66fa4ebf79326e780c390304,,,,,,,,,,,,,,,,,,,,,1203.3027,1203.3027,1203.3043,1204.1157,1,1,right,0.2699,,1204.1173,1205.0363,1,1,right,1205.0378,1206.7883,1,0,right,1,1206.7883,1206.7883,1206.791,1208.2764,0,19,19,19,1,0.4,0.6,0.2,0.8,,,,,,,,,,,,,,,0.4041,,0.2,0.8,0.4,0.6,0.8,0.2,0.6,0.4,,,1.2247,,0.4,0.6,0.8,0.2,0.8,0.2,0.2,0.8,1,0
,,6681419554e17e6ec71a3628,66fc98a76145664b605f195a,2024-10-02_02h53.10.353,mdp,2024.2.1,Win32,19.96007984,66fa4ebf79326e780c390304,,,,,,,,,,,,,,,,,,,,,1208.277,1208.2771,1208.2792,1209.0992,1,1,right,0.2807,,1209.1012,1209.976,1,1,right,1209.9776,1217.4157,1,0,right,1,1217.4159,1217.4159,1217.4361,1218.9164,0,20,20,20,1,0.4,0.6,0.2,0.8,,,,,,,,,,,,,,,0.3336,,0.2,0.8,0.4,0.6,0.8,0.2,0.6,0.4,,,6.8774,,0.4,0.6,0.8,0.2,0.8,0.2,0.2,0.8,1,0
,,6681419554e17e6ec71a3628,66fc98a76145664b605f195a,2024-10-02_02h53.10.353,mdp,2024.2.1,Win32,19.96007984,66fa4ebf79326e780c390304,,,,,,,,,,,,,,,,,,,,,1218.9174,1218.9174,1218.9193,1219.7405,1,1,right,0.2747,,1219.7421,1220.7427,1,0,right,1220.7456,1222.4823,0,0,left,1,1222.4825,1222.4826,1222.4842,1223.9698,0,21,21,21,1,0.4,0.6,0.2,0.8,,,,,,,,,,,,,,,0.4718,,0.2,0.8,0.4,0.6,0.8,0.2,0.6,0.4,,,1.2115,,0.4,0.6,0.8,0.2,0.8,0.2,0.2,0.8,1,0
,,6681419554e17e6ec71a3628,66fc98a76145664b605f195a,2024-10-02_02h53.10.353,mdp,2024.2.1,Win32,19.96007984,66fa4ebf79326e780c390304,,,,,,,,,,,,,,,,,,,,,1223.9707,1223.9708,1223.9721,1224.647,1,1,right,0.1422,,1224.6487,1225.6727,1,0,right,1225.6769,1228.0753,1,0,right,1,1228.0755,1228.0755,1228.0769,1229.565,0,22,22,22,1,0.4,0.6,0.2,0.8,,,,,,,,,,,,,,,0.4861,,0.2,0.8,0.4,0.6,0.8,0.2,0.6,0.4,,,1.8519,,0.4,0.6,0.8,0.2,0.8,0.2,0.2,0.8,1,0
,,6681419554e17e6ec71a3628,66fc98a76145664b605f195a,2024-10-02_02h53.10.353,mdp,2024.2.1,Win32,19.96007984,66fa4ebf79326e780c390304,,,,,,,,,,,,,,,,,,,,,1229.5662,1229.5662,1229.5679,1230.4656,1,1,right,0.3647,,1230.4679,1231.7183,0,0,left,1231.7213,1234.9645,0,0,left,1,1234.9646,1234.9646,1234.9844,1236.457,0,23,23,23,1,0.4,0.6,0.2,0.8,,,,,,,,,,,,,,,0.7306,,0.2,0.8,0.4,0.6,0.8,0.2,0.6,0.4,,,2.7167,,0.4,0.6,0.8,0.2,0.8,0.2,0.2,0.8,1,0
,,6681419554e17e6ec71a3628,66fc98a76145664b605f195a,2024-10-02_02h53.10.353,mdp,2024.2.1,Win32,19.96007984,66fa4ebf79326e780c390304,,,,,,,,,,,,,,,,,,,,,1236.4578,1236.4578,1236.4593,1237.3471,1,1,right,0.3394,,1237.3511,1238.1679,1,0,right,1238.1703,1240.2,1,0,right,1,1240.2002,1240.2002,1240.2016,1241.6711,0,24,24,24,1,0.4,0.6,0.2,0.8,,,,,,,,,,,,,,,0.2946,,0.2,0.8,0.4,0.6,0.8,0.2,0.6,0.4,,,1.5133,,0.4,0.6,0.8,0.2,0.8,0.2,0.2,0.8,1,0
,,6681419554e17e6ec71a3628,66fc98a76145664b605f195a,2024-10-02_02h53.10.353,mdp,2024.2.1,Win32,19.96007984,66fa4ebf79326e780c390304,,,,,,,,,,,,,,,,,,,,,1241.6719,1241.6719,1241.6736,1242.6356,0,1,left,0.4353,,1242.6373,1243.7467,1,0,right,1243.7485,1245.3644,0,1,left,0,1245.3645,1245.3645,1245.3661,1246.867,0,25,25,25,1,0.4,0.6,0.2,0.8,,,,,,,,,,,,,,,0.5588,,0.2,0.8,0.4,0.6,0.8,0.2,0.6,0.4,,,1.0936,,0.4,0.6,0.8,0.2,0.8,0.2,0.2,0.8,1,0
,,6681419554e17e6ec71a3628,66fc98a76145664b605f195a,2024-10-02_02h53.10.353,mdp,2024.2.1,Win32,19.96007984,66fa4ebf79326e780c390304,,,,,,,,,,,,,,,,,,,,,1246.8676,1246.8676,1246.8701,1247.7132,1,1,right,0.3018,,1247.7156,1248.4162,1,0,right,1248.4194,1249.6971,0,0,left,1,1249.6972,1249.6972,1249.701,1251.1971,0,26,26,26,1,0.4,0.6,0.2,0.8,,,,,,,,,,,,,,,0.1704,,0.2,0.8,0.4,0.6,0.8,0.2,0.6,0.4,,,0.7518,,0.4,0.6,0.8,0.2,0.8,0.2,0.2,0.8,1,0
,,6681419554e17e6ec71a3628,66fc98a76145664b605f195a,2024-10-02_02h53.10.353,mdp,2024.2.1,Win32,19.96007984,66fa4ebf79326e780c390304,,,,,,,,,,,,,,,,,,,,,1251.2001,1251.2001,1251.2022,1252.1104,1,1,right,0.3601,,1252.1121,1252.9179,0,1,left,1252.9201,1255.8743,1,1,right,0,1255.8744,1255.8744,1255.8765,1257.3702,0,27,27,27,1,0.4,0.6,0.2,0.8,,,,,,,,,,,,,,,0.2806,,0.2,0.8,0.4,0.6,0.8,0.2,0.6,0.4,,,2.428,,0.4,0.6,0.8,0.2,0.8,0.2,0.2,0.8,1,0
,,6681419554e17e6ec71a3628,66fc98a76145664b605f195a,2024-10-02_02h53.10.353,mdp,2024.2.1,Win32,19.96007984,66fa4ebf79326e780c390304,,,,,,,,,,,,,,,,,,,,,1257.3707,1257.3707,1257.3722,1257.8981,1,1,right,0.0008,,1257.8999,1258.7371,1,0,right,1258.739,1260.635,1,1,right,0,1260.6352,1260.6352,1260.637,1262.116,0,28,28,28,1,0.4,0.6,0.2,0.8,,,,,,,,,,,,,,,0.3117,,0.2,0.8,0.4,0.6,0.8,0.2,0.6,0.4,,,1.3499,,0.4,0.6,0.8,0.2,0.8,0.2,0.2,0.8,1,0
,,6681419554e17e6ec71a3628,66fc98a76145664b605f195a,2024-10-02_02h53.10.353,mdp,2024.2.1,Win32,19.96007984,66fa4ebf79326e780c390304,,,,,,,,,,,,,,,,,,,,,1262.1168,1262.1168,1262.1183,1262.899,1,0,right,0.2437,,1262.9011,1263.7279,1,1,right,1263.7307,1265.1234,0,0,left,1,1265.1234,1265.1234,1265.1251,1266.6377,0,29,29,29,1,0.4,0.6,0.2,0.8,,,,,,,,,,,,,,,0.2922,,0.2,0.8,0.4,0.6,0.8,0.2,0.6,0.4,,,0.8511,,0.4,0.6,0.8,0.2,0.8,0.2,0.2,0.8,1,0
,,6681419554e17e6ec71a3628,66fc98a76145664b605f195a,2024-10-02_02h53.10.353,mdp,2024.2.1,Win32,19.96007984,66fa4ebf79326e780c390304,,,,,,,,,,,,,,,,,,,,,1266.6383,1266.6383,1266.6399,1267.6123,1,1,right,0.4443,,1267.6142,1268.6156,1,1,right,1268.6179,1271.1907,1,1,right,0,1271.1909,1271.1909,1271.2104,1272.6816,0,30,30,30,1,0.4,0.6,0.2,0.8,,,,,,,,,,,,,,,0.4644,,0.2,0.8,0.4,0.6,0.2,0.8,0.8,0.2,,,2.0316,,0.4,0.6,0.8,0.2,0.8,0.2,0.2,0.8,1,0
,,6681419554e17e6ec71a3628,66fc98a76145664b605f195a,2024-10-02_02h53.10.353,mdp,2024.2.1,Win32,19.96007984,66fa4ebf79326e780c390304,,,,,,,,,,,,,,,,,,,,,1272.6822,1272.6822,1272.684,1273.5385,1,1,right,0.3297,,1273.5402,1274.207,1,1,right,1274.2086,1275.6719,1,1,right,0,1275.672,1275.672,1275.6735,1277.1799,0,31,31,31,1,0.4,0.6,0.2,0.8,,,,,,,,,,,,,,,0.1369,,0.2,0.8,0.4,0.6,0.2,0.8,0.8,0.2,,,0.9361,,0.4,0.6,0.8,0.2,0.8,0.2,0.2,0.8,1,0
,,6681419554e17e6ec71a3628,66fc98a76145664b605f195a,2024-10-02_02h53.10.353,mdp,2024.2.1,Win32,19.96007984,66fa4ebf79326e780c390304,,,,,,,,,,,,,,,,,,,,,1277.1806,1277.1806,1277.1824,1278.0739,1,1,right,0.3576,,1278.0761,1278.8102,1,0,right,1278.8119,1280.1103,1,0,right,1,1280.1104,1280.1104,1280.1121,1281.5904,0,32,32,32,1,0.4,0.6,0.2,0.8,,,,,,,,,,,,,,,0.2091,,0.2,0.8,0.4,0.6,0.2,0.8,0.8,0.2,,,0.7574,,0.4,0.6,0.8,0.2,0.8,0.2,0.2,0.8,1,0
,,6681419554e17e6ec71a3628,66fc98a76145664b605f195a,2024-10-02_02h53.10.353,mdp,2024.2.1,Win32,19.96007984,66fa4ebf79326e780c390304,,,,,,,,,,,,,,,,,,,,,1281.5916,1281.5916,1281.5932,1282.2838,1,1,right,0.1548,,1282.2875,1283.0502,1,0,right,1283.0525,1284.5738,0,1,left,0,1284.5739,1284.5739,1284.5755,1286.0754,0,33,33,33,1,0.8,0.2,0.4,0.6,,,,,,,,,,,,,,,0.231,,0.2,0.8,0.4,0.6,0.2,0.8,0.8,0.2,,,0.9935,,0.4,0.6,0.8,0.2,0.8,0.2,0.2,0.8,1,0
,,6681419554e17e6ec71a3628,66fc98a76145664b605f195a,2024-10-02_02h53.10.353,mdp,2024.2.1,Win32,19.96007984,66fa4ebf79326e780c390304,,,,,,,,,,,,,,,,,,,,,1286.0759,1286.0759,1286.0775,1286.9085,1,1,right,0.3065,,1286.9103,1287.5953,1,0,right,1287.6022,1288.2751,1,0,right,1,1288.2752,1288.2752,1288.2767,1289.7709,0,34,34,34,1,0.8,0.2,0.4,0.6,,,,,,,,,,,,,,,0.1494,,0.2,0.8,0.4,0.6,0.2,0.8,0.8,0.2,,,0.1233,,0.4,0.6,0.8,0.2,0.8,0.2,0.2,0.8,1,0
,,6681419554e17e6ec71a3628,66fc98a76145664b605f195a,2024-10-02_02h53.10.353,mdp,2024.2.1,Win32,19.96007984,66fa4ebf79326e780c390304,,,,,,,,,,,,,,,,,,,,,1289.7714,1289.7714,1289.7734,1290.482,1,0,right,0.1748,,1290.4835,1291.2984,1,0,right,1291.3008,1292.6031,1,0,right,1,1292.6033,1292.6033,1292.6054,1294.1001,0,35,35,35,1,0.8,0.2,0.4,0.6,,,,,,,,,,,,,,,0.2677,,0.2,0.8,0.4,0.6,0.2,0.8,0.8,0.2,,,0.7666,,0.4,0.6,0.8,0.2,0.8,0.2,0.2,0.8,1,0
,,6681419554e17e6ec71a3628,66fc98a76145664b605f195a,2024-10-02_02h53.10.353,mdp,2024.2.1,Win32,19.96007984,66fa4ebf79326e780c390304,,,,,,,,,,,,,,,,,,,,,1294.1007,1294.1007,1294.1023,1295.1213,1,0,right,0.4881,,1295.1238,1295.887,1,1,right,1295.89,1297.8074,0,0,left,1,1297.8075,1297.8075,1297.8094,1299.2912,0,36,36,36,1,0.8,0.2,0.4,0.6,,,,,,,,,,,,,,,0.2333,,0.2,0.8,0.4,0.6,0.2,0.8,0.8,0.2,,,1.3911,,0.4,0.6,0.8,0.2,0.8,0.2,0.2,0.8,1,0
,,6681419554e17e6ec71a3628,66fc98a76145664b605f195a,2024-10-02_02h53.10.353,mdp,2024.2.1,Win32,19.96007984,66fa4ebf79326e780c390304,,,,,,,,,,,,,,,,,,,,,1299.2917,1299.2917,1299.2936,1300.1008,1,1,right,0.2712,,1300.103,1300.928,1,0,right,1300.9301,1301.8066,1,1,right,0,1301.8067,1301.8068,1301.8084,1303.312,0,37,37,37,1,0.8,0.2,0.4,0.6,,,,,,,,,,,,,,,0.2816,,0.2,0.8,0.4,0.6,0.2,0.8,0.8,0.2,,,0.3261,,0.4,0.6,0.8,0.2,0.8,0.2,0.2,0.8,1,0
,,6681419554e17e6ec71a3628,66fc98a76145664b605f195a,2024-10-02_02h53.10.353,mdp,2024.2.1,Win32,19.96007984,66fa4ebf79326e780c390304,,,,,,,,,,,,,,,,,,,,,1303.3126,1303.3126,1303.3147,1304.1209,1,0,right,0.2726,,1304.1228,1304.8684,0,1,left,1304.8704,1305.909,0,0,left,1,1305.9092,1305.9092,1305.911,1307.4154,0,38,38,38,1,0.8,0.2,0.4,0.6,,,,,,,,,,,,,,,0.1924,,0.2,0.8,0.4,0.6,0.2,0.8,0.8,0.2,,,0.495,,0.4,0.6,0.8,0.2,0.8,0.2,0.2,0.8,1,0
,,6681419554e17e6ec71a3628,66fc98a76145664b605f195a,2024-10-02_02h53.10.353,mdp,2024.2.1,Win32,19.96007984,66fa4ebf79326e780c390304,,,,,,,,,,,,,,,,,,,,,1307.416,1307.416,1307.4175,1307.9881,1,0,right,0.0268,,1307.9903,1309.4503,1,1,right,1309.4519,1310.6904,0,0,left,1,1310.6905,1310.6905,1310.693,1312.1827,0,39,39,39,1,0.8,0.2,0.4,0.6,,,,,,,,,,,,,,,0.9304,,0.2,0.8,0.4,0.6,0.2,0.8,0.8,0.2,,,0.7012,,0.4,0.6,0.8,0.2,0.8,0.2,0.2,0.8,1,0
,,6681419554e17e6ec71a3628,66fc98a76145664b605f195a,2024-10-02_02h53.10.353,mdp,2024.2.1,Win32,19.96007984,66fa4ebf79326e780c390304,,,,,,,,,,,,,,,,,,,,,1312.1834,1312.1834,1312.1852,1312.8864,1,1,right,0.162,,1312.8899,1313.7764,1,0,right,1313.778,1314.7719,1,0,right,1,1314.772,1314.7721,1314.7738,1316.2539,0,40,40,40,1,0.2,0.8,0.2,0.8,,,,,,,,,,,,,,,0.3048,,0.2,0.8,0.4,0.6,0.2,0.8,0.8,0.2,,,0.4572,,0.4,0.6,0.8,0.2,0.8,0.2,0.2,0.8,1,0
,,6681419554e17e6ec71a3628,66fc98a76145664b605f195a,2024-10-02_02h53.10.353,mdp,2024.2.1,Win32,19.96007984,66fa4ebf79326e780c390304,,,,,,,,,,,,,,,,,,,,,1316.2551,1316.2552,1316.2572,1316.889,1,1,right,0.0915,,1316.8912,1317.8377,1,1,right,1317.8395,1318.7295,1,1,right,0,1318.7295,1318.7295,1318.7311,1320.2178,0,41,41,41,1,0.4,0.6,0.4,0.6,,,,,,,,,,,,,,,0.3911,,0.2,0.8,0.4,0.6,0.2,0.8,0.8,0.2,,,0.3492,,0.4,0.6,0.8,0.2,0.8,0.2,0.2,0.8,1,0
,,6681419554e17e6ec71a3628,66fc98a76145664b605f195a,2024-10-02_02h53.10.353,mdp,2024.2.1,Win32,19.96007984,66fa4ebf79326e780c390304,,,,,,,,,,,,,,,,,,,,,1320.2185,1320.2185,1320.2203,1321.0755,1,0,right,0.312,,1321.0773,1321.7289,1,0,right,1321.7317,1322.9739,1,0,right,1,1322.9741,1322.9741,1322.9757,1324.4805,0,42,42,42,1,0.4,0.6,0.4,0.6,,,,,,,,,,,,,,,0.1024,,0.2,0.8,0.4,0.6,0.2,0.8,0.8,0.2,,,0.7188,,0.4,0.6,0.8,0.2,0.8,0.2,0.2,0.8,1,0
,,6681419554e17e6ec71a3628,66fc98a76145664b605f195a,2024-10-02_02h53.10.353,mdp,2024.2.1,Win32,19.96007984,66fa4ebf79326e780c390304,,,,,,,,,,,,,,,,,,,,,1324.4812,1324.4812,1324.4827,1325.5427,1,0,right,0.5312,,1325.5459,1326.3365,1,0,right,1326.3381,1327.3644,0,0,left,1,1327.3644,1327.3644,1327.3664,1328.8522,0,43,43,43,1,0.4,0.6,0.4,0.6,,,,,,,,,,,,,,,0.2607,,0.2,0.8,0.4,0.6,0.2,0.8,0.8,0.2,,,0.4854,,0.4,0.6,0.8,0.2,0.8,0.2,0.2,0.8,1,0
,,6681419554e17e6ec71a3628,66fc98a76145664b605f195a,2024-10-02_02h53.10.353,mdp,2024.2.1,Win32,19.96007984,66fa4ebf79326e780c390304,,,,,,,,,,,,,,,,,,,,,1328.8534,1328.8534,1328.8551,1329.5165,1,0,right,0.1164,,1329.5181,1330.2902,1,1,right,1330.2919,1331.5059,1,1,right,0,1331.506,1331.506,1331.5077,1332.9943,0,44,44,44,1,0.4,0.6,0.4,0.6,,,,,,,,,,,,,,,0.2506,,0.2,0.8,0.4,0.6,0.2,0.8,0.8,0.2,,,0.6906,,0.4,0.6,0.8,0.2,0.8,0.2,0.2,0.8,1,0
,,6681419554e17e6ec71a3628,66fc98a76145664b605f195a,2024-10-02_02h53.10.353,mdp,2024.2.1,Win32,19.96007984,66fa4ebf79326e780c390304,,,,,,,,,,,,,,,,,,,,,1332.9948,1332.9949,1332.9967,1333.9469,1,0,right,0.3975,,1333.9494,1334.6721,1,1,right,1334.674,1335.8527,1,1,right,0,1335.8528,1335.8528,1335.8545,1337.3303,0,45,45,45,1,0.4,0.6,0.4,0.6,,,,,,,,,,,,,,,0.1825,,0.2,0.8,0.4,0.6,0.2,0.8,0.8,0.2,,,0.6259,,0.4,0.6,0.8,0.2,0.8,0.2,0.2,0.8,1,0
,,6681419554e17e6ec71a3628,66fc98a76145664b605f195a,2024-10-02_02h53.10.353,mdp,2024.2.1,Win32,19.96007984,66fa4ebf79326e780c390304,,,,,,,,,,,,,,,,,,,,,1337.3315,1337.3315,1337.3341,1338.3115,1,1,right,0.4354,,1338.3137,1339.1126,1,1,right,1339.115,1339.8426,1,1,right,0,1339.8427,1339.8427,1339.8462,1341.3483,0,46,46,46,1,0.4,0.6,0.4,0.6,,,,,,,,,,,,,,,0.2306,,0.2,0.8,0.4,0.6,0.2,0.8,0.8,0.2,,,0.1816,,0.4,0.6,0.8,0.2,0.8,0.2,0.2,0.8,1,0
,,6681419554e17e6ec71a3628,66fc98a76145664b605f195a,2024-10-02_02h53.10.353,mdp,2024.2.1,Win32,19.96007984,66fa4ebf79326e780c390304,,,,,,,,,,,,,,,,,,,,,1341.3498,1341.3498,1341.3515,1342.1601,1,1,right,0.2748,,1342.1625,1342.842,1,0,right,1342.8443,1343.8345,1,0,right,1,1343.8345,1343.8345,1343.8369,1345.3185,0,47,47,47,1,0.4,0.6,0.4,0.6,,,,,,,,,,,,,,,0.1342,,0.2,0.8,0.4,0.6,0.2,0.8,0.8,0.2,,,0.444,,0.4,0.6,0.8,0.2,0.8,0.2,0.2,0.8,1,0
,,6681419554e17e6ec71a3628,66fc98a76145664b605f195a,2024-10-02_02h53.10.353,mdp,2024.2.1,Win32,19.96007984,66fa4ebf79326e780c390304,,,,,,,,,,,,,,,,,,,,,1345.3195,1345.3195,1345.3211,1346.0847,1,1,right,0.2357,,1346.0862,1346.9448,1,0,right,1346.9467,1348.2238,0,1,left,0,1348.2239,1348.2239,1348.2257,1349.7286,0,48,48,48,1,0.4,0.6,0.4,0.6,,,,,,,,,,,,,,,0.3073,,0.2,0.8,0.4,0.6,0.2,0.8,0.8,0.2,,,0.7408,,0.4,0.6,0.8,0.2,0.8,0.2,0.2,0.8,1,0
,,6681419554e17e6ec71a3628,66fc98a76145664b605f195a,2024-10-02_02h53.10.353,mdp,2024.2.1,Win32,19.96007984,66fa4ebf79326e780c390304,,,,,,,,,,,,,,,,,,,,,1349.7297,1349.7297,1349.7319,1350.6875,1,0,right,0.4311,,1350.6895,1351.3889,1,0,right,1351.3905,1352.3939,1,0,right,1,1352.394,1352.394,1352.3958,1353.8759,0,49,49,49,1,0.4,0.6,0.4,0.6,,,,,,,,,,,,,,,0.1665,,0.2,0.8,0.4,0.6,0.2,0.8,0.8,0.2,,,0.4754,,0.4,0.6,0.8,0.2,0.8,0.2,0.2,0.8,1,0
,,6681419554e17e6ec71a3628,66fc98a76145664b605f195a,2024-10-02_02h53.10.353,mdp,2024.2.1,Win32,19.96007984,66fa4ebf79326e780c390304,,,,,,,,,,,,,,,,,,,,,,,,,,,,,,,,,,,,,,,,,,,,,,,,,,,,,,,,1353.8762,1412.4067,0,2,2,8,1,imgs/elephant.png,imgs/giraffe.png,imgs/bear.png,imgs/kangaroo.png,imgs/goat.png,,,,,,,,,,,,,,,,,,,,,,,,
,,6681419554e17e6ec71a3628,66fc98a76145664b605f195a,2024-10-02_02h53.10.353,mdp,2024.2.1,Win32,19.96007984,66fa4ebf79326e780c390304,,,,,,,,,,,,,,3,seqs/st3seq11.csv,1412.4294,1414.7026,space,1.717,,1414.7142,1414.7143,1414.7164,1421.4312,1,0,right,6.1608,,1421.4518,1422.2611,1,1,right,1422.2628,1425.5407,0,1,left,0,1425.5408,1425.5408,1425.5627,1427.0425,0,0,0,0,1,0.8,0.2,0.2,0.8,,,,,,,,,,,,,,,0.2804,,0.8,0.2,0.2,0.8,0.2,0.8,0.2,0.8,,,2.7499,,0.6,0.4,0.2,0.8,0.2,0.8,0.4,0.6,1,0
,,6681419554e17e6ec71a3628,66fc98a76145664b605f195a,2024-10-02_02h53.10.353,mdp,2024.2.1,Win32,19.96007984,66fa4ebf79326e780c390304,,,,,,,,,,,,,,,,,,,,,1427.0438,1427.0438,1427.0466,1428.0154,1,1,right,0.4299,,1428.0176,1428.8893,1,1,right,1428.8908,1430.3184,0,0,left,1,1430.3184,1430.3184,1430.3203,1431.8087,0,1,1,1,1,0.8,0.2,0.2,0.8,,,,,,,,,,,,,,,0.3267,,0.8,0.2,0.2,0.8,0.2,0.8,0.2,0.8,,,0.895,,0.6,0.4,0.2,0.8,0.2,0.8,0.4,0.6,1,0
,,6681419554e17e6ec71a3628,66fc98a76145664b605f195a,2024-10-02_02h53.10.353,mdp,2024.2.1,Win32,19.96007984,66fa4ebf79326e780c390304,,,,,,,,,,,,,,,,,,,,,1431.8104,1431.8105,1431.812,1434.7146,1,1,right,2.3783,,1434.7335,1435.584,1,1,right,1435.588,1437.036,1,0,right,1,1437.0361,1437.0361,1437.0377,1438.5013,0,2,2,2,1,0.8,0.2,0.2,0.8,,,,,,,,,,,,,,,0.3472,,0.8,0.2,0.2,0.8,0.2,0.8,0.2,0.8,,,0.9335,,0.6,0.4,0.2,0.8,0.2,0.8,0.4,0.6,1,0
,,6681419554e17e6ec71a3628,66fc98a76145664b605f195a,2024-10-02_02h53.10.353,mdp,2024.2.1,Win32,19.96007984,66fa4ebf79326e780c390304,,,,,,,,,,,,,,,,,,,,,1438.5021,1438.5021,1438.5035,1439.4018,1,1,right,0.3723,,1439.4039,1440.318,1,0,right,1440.3203,1442.5407,1,0,right,1,1442.5408,1442.5408,1442.5426,1444.0371,0,3,3,3,1,0.8,0.2,0.2,0.8,,,,,,,,,,,,,,,0.3927,,0.8,0.2,0.2,0.8,0.2,0.8,0.2,0.8,,,1.6737,,0.6,0.4,0.2,0.8,0.2,0.8,0.4,0.6,1,0
,,6681419554e17e6ec71a3628,66fc98a76145664b605f195a,2024-10-02_02h53.10.353,mdp,2024.2.1,Win32,19.96007984,66fa4ebf79326e780c390304,,,,,,,,,,,,,,,,,,,,,1444.0377,1444.0377,1444.0405,1447.6635,0,0,left,3.0861,,1447.6835,1448.6335,0,0,left,1448.6353,1450.6018,0,1,left,0,1450.6018,1450.6018,1450.6041,1452.095,0,4,4,4,1,0.8,0.2,0.2,0.8,,,,,,,,,,,,,,,0.4286,,0.8,0.2,0.2,0.8,0.4,0.6,0.4,0.6,,,1.4382,,0.6,0.4,0.2,0.8,0.2,0.8,0.4,0.6,1,0
,,6681419554e17e6ec71a3628,66fc98a76145664b605f195a,2024-10-02_02h53.10.353,mdp,2024.2.1,Win32,19.96007984,66fa4ebf79326e780c390304,,,,,,,,,,,,,,,,,,,,,1452.0957,1452.0957,1452.0975,1452.8227,0,1,left,0.1735,,1452.8242,1453.5634,0,1,left,1453.5652,1454.6191,0,1,left,0,1454.6193,1454.6193,1454.621,1456.1108,0,5,5,5,1,0.8,0.2,0.2,0.8,,,,,,,,,,,,,,,0.1873,,0.8,0.2,0.2,0.8,0.4,0.6,0.4,0.6,,,0.5262,,0.6,0.4,0.2,0.8,0.2,0.8,0.4,0.6,1,0
,,6681419554e17e6ec71a3628,66fc98a76145664b605f195a,2024-10-02_02h53.10.353,mdp,2024.2.1,Win32,19.96007984,66fa4ebf79326e780c390304,,,,,,,,,,,,,,,,,,,,,1456.1121,1456.1121,1456.1137,1456.9348,0,0,left,0.3007,,1456.937,1457.8431,0,0,left,1457.8449,1458.6097,0,0,left,1,1458.6097,1458.6097,1458.6119,1460.1109,0,6,6,6,1,0.8,0.2,0.2,0.8,,,,,,,,,,,,,,,0.3523,,0.8,0.2,0.2,0.8,0.4,0.6,0.4,0.6,,,0.2292,,0.6,0.4,0.2,0.8,0.2,0.8,0.4,0.6,1,0
,,6681419554e17e6ec71a3628,66fc98a76145664b605f195a,2024-10-02_02h53.10.353,mdp,2024.2.1,Win32,19.96007984,66fa4ebf79326e780c390304,,,,,,,,,,,,,,,,,,,,,1460.112,1460.112,1460.1138,1460.9964,0,1,left,0.3433,,1460.9993,1461.7634,1,1,right,1461.7656,1463.0564,0,1,left,0,1463.0565,1463.0565,1463.0596,1464.54,0,7,7,7,1,0.8,0.2,0.2,0.8,,,,,,,,,,,,,,,0.2362,,0.8,0.2,0.2,0.8,0.4,0.6,0.4,0.6,,,0.7335,,0.6,0.4,0.2,0.8,0.2,0.8,0.4,0.6,1,0
,,6681419554e17e6ec71a3628,66fc98a76145664b605f195a,2024-10-02_02h53.10.353,mdp,2024.2.1,Win32,19.96007984,66fa4ebf79326e780c390304,,,,,,,,,,,,,,,,,,,,,1464.5411,1464.5412,1464.5446,1465.4533,0,1,left,0.3778,,1465.4559,1466.2509,1,1,right,1466.2528,1466.9009,1,0,right,1,1466.901,1466.901,1466.9026,1468.396,0,8,8,8,1,0.8,0.2,0.2,0.8,,,,,,,,,,,,,,,0.2705,,0.8,0.2,0.2,0.8,0.4,0.6,0.4,0.6,,,0.1195,,0.6,0.4,0.2,0.8,0.2,0.8,0.4,0.6,1,0
,,6681419554e17e6ec71a3628,66fc98a76145664b605f195a,2024-10-02_02h53.10.353,mdp,2024.2.1,Win32,19.96007984,66fa4ebf79326e780c390304,,,,,,,,,,,,,,,,,,,,,1468.3967,1468.3969,1468.3996,1469.8619,1,1,right,0.9482,,1469.8637,1470.73,1,1,right,1470.7321,1472.0553,1,1,right,0,1472.056,1472.056,1472.058,1473.5596,0,9,9,9,1,0.8,0.2,0.2,0.8,,,,,,,,,,,,,,,0.3359,,0.8,0.2,0.2,0.8,0.4,0.6,0.4,0.6,,,0.7746,,0.6,0.4,0.2,0.8,0.2,0.8,0.4,0.6,1,0
,,6681419554e17e6ec71a3628,66fc98a76145664b605f195a,2024-10-02_02h53.10.353,mdp,2024.2.1,Win32,19.96007984,66fa4ebf79326e780c390304,,,,,,,,,,,,,,,,,,,,,1473.5608,1473.5609,1473.5625,1474.2081,1,1,right,0.1183,,1474.2101,1475.0163,1,0,right,1475.0185,1475.866,1,1,right,0,1475.866,1475.866,1475.8677,1477.3435,0,10,10,10,1,0.8,0.2,0.2,0.8,,,,,,,,,,,,,,,0.2763,,0.8,0.2,0.2,0.8,0.4,0.6,0.4,0.6,,,0.3216,,0.6,0.4,0.2,0.8,0.2,0.8,0.4,0.6,1,0
,,6681419554e17e6ec71a3628,66fc98a76145664b605f195a,2024-10-02_02h53.10.353,mdp,2024.2.1,Win32,19.96007984,66fa4ebf79326e780c390304,,,,,,,,,,,,,,,,,,,,,1477.3451,1477.3451,1477.3471,1482.6468,1,1,right,4.7777,,1482.666,1483.4816,1,1,right,1483.4834,1484.6243,1,0,right,1,1484.6244,1484.6244,1484.6258,1486.1213,0,11,11,11,1,0.8,0.2,0.2,0.8,,,,,,,,,,,,,,,0.2995,,0.8,0.2,0.2,0.8,0.4,0.6,0.4,0.6,,,0.5919,,0.6,0.4,0.2,0.8,0.2,0.8,0.4,0.6,1,0
,,6681419554e17e6ec71a3628,66fc98a76145664b605f195a,2024-10-02_02h53.10.353,mdp,2024.2.1,Win32,19.96007984,66fa4ebf79326e780c390304,,,,,,,,,,,,,,,,,,,,,1486.1219,1486.1219,1486.1235,1486.7995,1,1,right,0.1379,,1486.8018,1488.8133,1,1,right,1488.8151,1489.7296,1,1,right,0,1489.7297,1489.7297,1489.7315,1491.2226,0,12,12,12,1,0.8,0.2,0.2,0.8,,,,,,,,,,,,,,,1.4809,,0.8,0.2,0.2,0.8,0.4,0.6,0.4,0.6,,,0.3876,,0.6,0.4,0.2,0.8,0.2,0.8,0.4,0.6,1,0
,,6681419554e17e6ec71a3628,66fc98a76145664b605f195a,2024-10-02_02h53.10.353,mdp,2024.2.1,Win32,19.96007984,66fa4ebf79326e780c390304,,,,,,,,,,,,,,,,,,,,,1491.2232,1491.2232,1491.225,1492.0771,1,1,right,0.3366,,1492.0806,1492.7784,1,0,right,1492.7819,1493.7318,1,0,right,1,1493.7319,1493.7319,1493.7336,1495.22,0,13,13,13,1,0.8,0.2,0.2,0.8,,,,,,,,,,,,,,,0.1724,,0.8,0.2,0.2,0.8,0.4,0.6,0.4,0.6,,,0.4091,,0.2,0.8,0.8,0.2,0.2,0.8,0.4,0.6,1,0
,,6681419554e17e6ec71a3628,66fc98a76145664b605f195a,2024-10-02_02h53.10.353,mdp,2024.2.1,Win32,19.96007984,66fa4ebf79326e780c390304,,,,,,,,,,,,,,,,,,,,,1495.2211,1495.2211,1495.2228,1495.8207,1,1,right,0.0762,,1495.8226,1496.7085,1,0,right,1496.7109,1498.0413,0,1,left,0,1498.0415,1498.0415,1498.0435,1499.5483,0,14,14,14,1,0.8,0.2,0.2,0.8,,,,,,,,,,,,,,,0.3466,,0.8,0.2,0.2,0.8,0.4,0.6,0.4,0.6,,,0.798,,0.2,0.8,0.8,0.2,0.2,0.8,0.4,0.6,1,0
,,6681419554e17e6ec71a3628,66fc98a76145664b605f195a,2024-10-02_02h53.10.353,mdp,2024.2.1,Win32,19.96007984,66fa4ebf79326e780c390304,,,,,,,,,,,,,,,,,,,,,1499.5497,1499.5498,1499.5512,1501.7481,1,0,right,1.6649,,1501.7502,1502.5034,1,0,right,1502.5056,1503.2475,1,0,right,1,1503.2476,1503.2476,1503.2493,1504.7258,0,15,15,15,1,0.8,0.2,0.2,0.8,,,,,,,,,,,,,,,0.207,,0.8,0.2,0.2,0.8,0.4,0.6,0.4,0.6,,,0.2098,,0.2,0.8,0.8,0.2,0.2,0.8,0.4,0.6,1,0
,,6681419554e17e6ec71a3628,66fc98a76145664b605f195a,2024-10-02_02h53.10.353,mdp,2024.2.1,Win32,19.96007984,66fa4ebf79326e780c390304,,,,,,,,,,,,,,,,,,,,,1504.7264,1504.7264,1504.7282,1506.2937,1,0,right,1.0447,,1506.2957,1507.1108,1,1,right,1507.1129,1509.1606,0,1,left,0,1509.1607,1509.1607,1509.1623,1510.642,0,16,16,16,1,0.8,0.2,0.2,0.8,,,,,,,,,,,,,,,0.269,,0.8,0.2,0.2,0.8,0.4,0.6,0.4,0.6,,,1.4925,,0.2,0.8,0.8,0.2,0.2,0.8,0.4,0.6,1,0
,,6681419554e17e6ec71a3628,66fc98a76145664b605f195a,2024-10-02_02h53.10.353,mdp,2024.2.1,Win32,19.96007984,66fa4ebf79326e780c390304,,,,,,,,,,,,,,,,,,,,,1510.6431,1510.6431,1510.6461,1511.6309,1,1,right,0.4642,,1511.6332,1512.3796,1,1,right,1512.3815,1513.1978,1,0,right,1,1513.1979,1513.198,1513.2003,1514.6839,0,17,17,17,1,0.6,0.4,0.6,0.4,,,,,,,,,,,,,,,0.2024,,0.8,0.2,0.2,0.8,0.4,0.6,0.4,0.6,,,0.2899,,0.2,0.8,0.8,0.2,0.2,0.8,0.4,0.6,1,0
,,6681419554e17e6ec71a3628,66fc98a76145664b605f195a,2024-10-02_02h53.10.353,mdp,2024.2.1,Win32,19.96007984,66fa4ebf79326e780c390304,,,,,,,,,,,,,,,,,,,,,1514.6852,1514.6852,1514.6869,1515.336,1,0,right,0.1177,,1515.3381,1516.2059,1,1,right,1516.2109,1516.9379,1,0,right,1,1516.938,1516.938,1516.9416,1518.4355,0,18,18,18,1,0.6,0.4,0.6,0.4,,,,,,,,,,,,,,,0.3227,,0.8,0.2,0.2,0.8,0.4,0.6,0.4,0.6,,,0.18,,0.2,0.8,0.8,0.2,0.2,0.8,0.4,0.6,1,0
,,6681419554e17e6ec71a3628,66fc98a76145664b605f195a,2024-10-02_02h53.10.353,mdp,2024.2.1,Win32,19.96007984,66fa4ebf79326e780c390304,,,,,,,,,,,,,,,,,,,,,1518.4361,1518.4361,1518.4384,1519.4032,1,0,right,0.4222,,1519.4055,1519.9832,1,1,right,1519.9852,1521.313,0,1,left,0,1521.313,1521.313,1521.3145,1522.8015,0,19,19,19,1,0.6,0.4,0.6,0.4,,,,,,,,,,,,,,,0.0354,,0.8,0.2,0.2,0.8,0.4,0.6,0.4,0.6,,,0.7971,,0.2,0.8,0.8,0.2,0.2,0.8,0.4,0.6,1,0
,,6681419554e17e6ec71a3628,66fc98a76145664b605f195a,2024-10-02_02h53.10.353,mdp,2024.2.1,Win32,19.96007984,66fa4ebf79326e780c390304,,,,,,,,,,,,,,,,,,,,,1522.8022,1522.8022,1522.8037,1523.6503,1,1,right,0.2891,,1523.653,1524.3975,1,0,right,1524.4017,1525.4437,1,0,right,1,1525.4439,1525.4439,1525.4461,1526.9493,0,20,20,20,1,0.6,0.4,0.6,0.4,,,,,,,,,,,,,,,0.2056,,0.8,0.2,0.2,0.8,0.4,0.6,0.4,0.6,,,0.4963,,0.2,0.8,0.8,0.2,0.2,0.8,0.4,0.6,1,0
,,6681419554e17e6ec71a3628,66fc98a76145664b605f195a,2024-10-02_02h53.10.353,mdp,2024.2.1,Win32,19.96007984,66fa4ebf79326e780c390304,,,,,,,,,,,,,,,,,,,,,1526.95,1526.95,1526.9516,1527.8334,1,1,right,0.3369,,1527.8353,1528.5231,1,1,right,1528.5247,1530.0901,1,1,right,0,1530.0902,1530.0902,1530.0928,1531.5701,0,21,21,21,1,0.6,0.4,0.6,0.4,,,,,,,,,,,,,,,0.1514,,0.8,0.2,0.2,0.8,0.6,0.4,0.2,0.8,,,1.0278,,0.2,0.8,0.8,0.2,0.2,0.8,0.4,0.6,1,0
,,6681419554e17e6ec71a3628,66fc98a76145664b605f195a,2024-10-02_02h53.10.353,mdp,2024.2.1,Win32,19.96007984,66fa4ebf79326e780c390304,,,,,,,,,,,,,,,,,,,,,1531.5711,1531.5712,1531.5726,1532.449,1,1,right,0.351,,1532.4511,1533.244,1,1,right,1533.2462,1533.935,1,1,right,0,1533.9352,1533.9352,1533.9367,1535.4288,0,22,22,22,1,0.6,0.4,0.6,0.4,,,,,,,,,,,,,,,0.2682,,0.8,0.2,0.2,0.8,0.6,0.4,0.2,0.8,,,0.1328,,0.2,0.8,0.8,0.2,0.8,0.2,0.2,0.8,1,0
,,6681419554e17e6ec71a3628,66fc98a76145664b605f195a,2024-10-02_02h53.10.353,mdp,2024.2.1,Win32,19.96007984,66fa4ebf79326e780c390304,,,,,,,,,,,,,,,,,,,,,1535.4296,1535.4297,1535.4311,1536.5017,1,1,right,0.5235,,1536.5041,1537.2685,1,0,right,1537.2718,1538.2716,1,0,right,1,1538.2717,1538.2717,1538.2735,1539.7473,0,23,23,23,1,0.6,0.4,0.6,0.4,,,,,,,,,,,,,,,0.2198,,0.6,0.4,0.6,0.4,0.6,0.4,0.2,0.8,,,0.4403,,0.2,0.8,0.8,0.2,0.8,0.2,0.2,0.8,1,0
,,6681419554e17e6ec71a3628,66fc98a76145664b605f195a,2024-10-02_02h53.10.353,mdp,2024.2.1,Win32,19.96007984,66fa4ebf79326e780c390304,,,,,,,,,,,,,,,,,,,,,1539.7486,1539.7486,1539.7509,1540.6959,1,0,right,0.4033,,1540.6975,1541.5681,1,0,right,1541.57,1542.6919,0,1,left,0,1542.6919,1542.6919,1542.6938,1544.1989,0,24,24,24,1,0.6,0.4,0.6,0.4,,,,,,,,,,,,,,,0.3237,,0.6,0.4,0.6,0.4,0.6,0.4,0.2,0.8,,,0.5951,,0.2,0.8,0.8,0.2,0.8,0.2,0.2,0.8,1,0
,,6681419554e17e6ec71a3628,66fc98a76145664b605f195a,2024-10-02_02h53.10.353,mdp,2024.2.1,Win32,19.96007984,66fa4ebf79326e780c390304,,,,,,,,,,,,,,,,,,,,,1544.1998,1544.1998,1544.202,1545.2242,1,1,right,0.5007,,1545.2261,1546.0722,1,1,right,1546.0738,1546.8045,1,1,right,0,1546.8046,1546.8046,1546.8063,1548.3105,0,25,25,25,1,0.6,0.4,0.6,0.4,,,,,,,,,,,,,,,0.2903,,0.6,0.4,0.6,0.4,0.6,0.4,0.2,0.8,,,0.1999,,0.2,0.8,0.8,0.2,0.8,0.2,0.2,0.8,1,0
,,6681419554e17e6ec71a3628,66fc98a76145664b605f195a,2024-10-02_02h53.10.353,mdp,2024.2.1,Win32,19.96007984,66fa4ebf79326e780c390304,,,,,,,,,,,,,,,,,,,,,1548.3113,1548.3113,1548.3128,1549.2109,1,1,right,0.3352,,1549.2128,1550.703,1,1,right,1550.7049,1551.866,0,1,left,0,1551.866,1551.866,1551.8678,1553.3451,0,26,26,26,1,0.6,0.4,0.6,0.4,,,,,,,,,,,,,,,0.9436,,0.6,0.4,0.6,0.4,0.6,0.4,0.2,0.8,,,0.6251,,0.2,0.8,0.8,0.2,0.8,0.2,0.2,0.8,1,0
,,6681419554e17e6ec71a3628,66fc98a76145664b605f195a,2024-10-02_02h53.10.353,mdp,2024.2.1,Win32,19.96007984,66fa4ebf79326e780c390304,,,,,,,,,,,,,,,,,,,,,1553.3458,1553.3458,1553.3477,1554.0697,1,0,right,0.1635,,1554.0722,1554.7722,1,0,right,1554.774,1555.417,1,0,right,1,1555.417,1555.4171,1555.42,1556.8912,0,27,27,27,1,0.6,0.4,0.6,0.4,,,,,,,,,,,,,,,0.1536,,0.6,0.4,0.6,0.4,0.6,0.4,0.2,0.8,,,0.0791,,0.2,0.8,0.8,0.2,0.8,0.2,0.2,0.8,1,0
,,6681419554e17e6ec71a3628,66fc98a76145664b605f195a,2024-10-02_02h53.10.353,mdp,2024.2.1,Win32,19.96007984,66fa4ebf79326e780c390304,,,,,,,,,,,,,,,,,,,,,1556.892,1556.892,1556.8939,1557.7329,1,1,right,0.2838,,1557.7348,1558.5255,1,1,right,1558.5276,1559.2311,1,1,right,0,1559.2311,1559.2312,1559.2336,1560.7069,0,28,28,28,1,0.6,0.4,0.6,0.4,,,,,,,,,,,,,,,0.2433,,0.6,0.4,0.6,0.4,0.6,0.4,0.2,0.8,,,0.1209,,0.2,0.8,0.8,0.2,0.8,0.2,0.2,0.8,1,0
,,6681419554e17e6ec71a3628,66fc98a76145664b605f195a,2024-10-02_02h53.10.353,mdp,2024.2.1,Win32,19.96007984,66fa4ebf79326e780c390304,,,,,,,,,,,,,,,,,,,,,1560.7074,1560.7075,1560.7094,1562.0316,1,1,right,0.7714,,1562.0332,1562.8969,1,1,right,1562.8987,1563.9129,0,0,left,1,1563.913,1563.9131,1563.9147,1565.4007,0,29,29,29,1,0.6,0.4,0.6,0.4,,,,,,,,,,,,,,,0.3178,,0.6,0.4,0.6,0.4,0.6,0.4,0.2,0.8,,,0.4691,,0.2,0.8,0.8,0.2,0.8,0.2,0.2,0.8,1,0
,,6681419554e17e6ec71a3628,66fc98a76145664b605f195a,2024-10-02_02h53.10.353,mdp,2024.2.1,Win32,19.96007984,66fa4ebf79326e780c390304,,,,,,,,,,,,,,,,,,,,,1565.4014,1565.4014,1565.4031,1566.401,1,1,right,0.4742,,1566.4031,1567.429,1,1,right,1567.4307,1568.4928,0,1,left,0,1568.4928,1568.4928,1568.4947,1569.9803,0,30,30,30,1,0.6,0.4,0.6,0.4,,,,,,,,,,,,,,,0.4947,,0.6,0.4,0.6,0.4,0.6,0.4,0.2,0.8,,,0.5423,,0.2,0.8,0.8,0.2,0.8,0.2,0.2,0.8,1,0
,,6681419554e17e6ec71a3628,66fc98a76145664b605f195a,2024-10-02_02h53.10.353,mdp,2024.2.1,Win32,19.96007984,66fa4ebf79326e780c390304,,,,,,,,,,,,,,,,,,,,,1569.9811,1569.9811,1569.9826,1570.6847,1,1,right,0.1697,,1570.6868,1571.5533,1,1,right,1571.5556,1572.4403,1,1,right,0,1572.4405,1572.4405,1572.4429,1573.931,0,31,31,31,1,0.6,0.4,0.6,0.4,,,,,,,,,,,,,,,0.3311,,0.6,0.4,0.6,0.4,0.6,0.4,0.2,0.8,,,0.3455,,0.2,0.8,0.8,0.2,0.8,0.2,0.2,0.8,1,0
,,6681419554e17e6ec71a3628,66fc98a76145664b605f195a,2024-10-02_02h53.10.353,mdp,2024.2.1,Win32,19.96007984,66fa4ebf79326e780c390304,,,,,,,,,,,,,,,,,,,,,1573.9321,1573.9321,1573.9351,1574.6857,1,0,right,0.2241,,1574.6873,1575.4962,1,0,right,1575.4987,1576.2775,1,0,right,1,1576.2775,1576.2775,1576.2795,1577.7778,0,32,32,32,1,0.6,0.4,0.6,0.4,,,,,,,,,,,,,,,0.2476,,0.6,0.4,0.6,0.4,0.6,0.4,0.2,0.8,,,0.2357,,0.2,0.8,0.8,0.2,0.8,0.2,0.2,0.8,1,0
,,6681419554e17e6ec71a3628,66fc98a76145664b605f195a,2024-10-02_02h53.10.353,mdp,2024.2.1,Win32,19.96007984,66fa4ebf79326e780c390304,,,,,,,,,,,,,,,,,,,,,1577.7802,1577.7802,1577.7822,1578.9209,1,0,right,0.5941,,1578.9225,1579.6864,1,1,right,1579.689,1580.3582,1,1,right,0,1580.3583,1580.3583,1580.3609,1581.8562,0,33,33,33,1,0.6,0.4,0.6,0.4,,,,,,,,,,,,,,,0.215,,0.6,0.4,0.6,0.4,0.6,0.4,0.2,0.8,,,0.1107,,0.2,0.8,0.8,0.2,0.8,0.2,0.2,0.8,1,0
,,6681419554e17e6ec71a3628,66fc98a76145664b605f195a,2024-10-02_02h53.10.353,mdp,2024.2.1,Win32,19.96007984,66fa4ebf79326e780c390304,,,,,,,,,,,,,,,,,,,,,1581.857,1581.857,1581.8598,1582.8779,1,0,right,0.4709,,1582.8798,1583.6191,1,0,right,1583.6212,1584.2625,0,1,left,0,1584.2626,1584.2627,1584.2644,1585.7629,0,34,34,34,1,0.6,0.4,0.6,0.4,,,,,,,,,,,,,,,0.2008,,0.6,0.4,0.6,0.4,0.6,0.4,0.2,0.8,,,0.0861,,0.2,0.8,0.8,0.2,0.8,0.2,0.2,0.8,1,0
,,6681419554e17e6ec71a3628,66fc98a76145664b605f195a,2024-10-02_02h53.10.353,mdp,2024.2.1,Win32,19.96007984,66fa4ebf79326e780c390304,,,,,,,,,,,,,,,,,,,,,1585.7634,1585.7635,1585.7653,1586.4805,1,1,right,0.1945,,1586.4831,1587.0822,1,1,right,1587.0842,1588.6835,1,1,right,0,1588.6837,1588.6837,1588.6858,1590.1898,0,35,35,35,1,0.6,0.4,0.6,0.4,,,,,,,,,,,,,,,0.0674,,0.6,0.4,0.6,0.4,0.6,0.4,0.2,0.8,,,1.0455,,0.2,0.8,0.8,0.2,0.8,0.2,0.2,0.8,1,0
,,6681419554e17e6ec71a3628,66fc98a76145664b605f195a,2024-10-02_02h53.10.353,mdp,2024.2.1,Win32,19.96007984,66fa4ebf79326e780c390304,,,,,,,,,,,,,,,,,,,,,1590.1905,1590.1905,1590.1923,1590.8331,1,1,right,0.103,,1590.8354,1591.829,1,1,right,1591.831,1592.594,1,0,right,1,1592.5941,1592.5941,1592.5959,1594.0958,0,36,36,36,1,0.6,0.4,0.6,0.4,,,,,,,,,,,,,,,0.4518,,0.6,0.4,0.6,0.4,0.6,0.4,0.2,0.8,,,0.2165,,0.2,0.8,0.8,0.2,0.8,0.2,0.2,0.8,1,0
,,6681419554e17e6ec71a3628,66fc98a76145664b605f195a,2024-10-02_02h53.10.353,mdp,2024.2.1,Win32,19.96007984,66fa4ebf79326e780c390304,,,,,,,,,,,,,,,,,,,,,1594.097,1594.097,1594.0999,1595.1409,1,0,right,0.5119,,1595.1432,1595.8727,1,1,right,1595.8748,1596.9028,0,1,left,0,1596.9031,1596.9031,1596.9048,1598.4046,0,37,37,37,1,0.6,0.4,0.6,0.4,,,,,,,,,,,,,,,0.1903,,0.6,0.4,0.6,0.4,0.6,0.4,0.2,0.8,,,0.4975,,0.2,0.8,0.8,0.2,0.8,0.2,0.2,0.8,1,0
,,6681419554e17e6ec71a3628,66fc98a76145664b605f195a,2024-10-02_02h53.10.353,mdp,2024.2.1,Win32,19.96007984,66fa4ebf79326e780c390304,,,,,,,,,,,,,,,,,,,,,1598.4053,1598.4053,1598.4074,1599.2306,1,0,right,0.2938,,1599.2323,1599.8075,1,1,right,1599.8098,1600.335,1,1,right,0,1600.3351,1600.3351,1600.3372,1601.8186,0,38,38,38,1,0.6,0.4,0.6,0.4,,,,,,,,,,,,,,,0.0389,,0.6,0.4,0.6,0.4,0.6,0.4,0.2,0.8,,,0.0009,,0.2,0.8,0.8,0.2,0.8,0.2,0.2,0.8,1,0
,,6681419554e17e6ec71a3628,66fc98a76145664b605f195a,2024-10-02_02h53.10.353,mdp,2024.2.1,Win32,19.96007984,66fa4ebf79326e780c390304,,,,,,,,,,,,,,,,,,,,,1601.82,1601.82,1601.8218,1602.6094,1,1,right,0.2586,,1602.6113,1603.5115,1,1,right,1603.5133,1604.3401,1,1,right,0,1604.3402,1604.3402,1604.3435,1605.8272,0,39,39,39,1,0.6,0.4,0.6,0.4,,,,,,,,,,,,,,,0.371,,0.6,0.4,0.6,0.4,0.6,0.4,0.2,0.8,,,0.2918,,0.2,0.8,0.8,0.2,0.8,0.2,0.2,0.8,1,0
,,6681419554e17e6ec71a3628,66fc98a76145664b605f195a,2024-10-02_02h53.10.353,mdp,2024.2.1,Win32,19.96007984,66fa4ebf79326e780c390304,,,,,,,,,,,,,,,,,,,,,1605.8284,1605.8284,1605.8306,1606.7664,1,1,right,0.399,,1606.7699,1607.6424,1,0,right,1607.6445,1608.6359,0,1,left,0,1608.636,1608.636,1608.6374,1610.0999,0,40,40,40,1,0.6,0.4,0.6,0.4,,,,,,,,,,,,,,,0.3307,,0.6,0.4,0.6,0.4,0.6,0.4,0.2,0.8,,,0.449,,0.2,0.8,0.8,0.2,0.8,0.2,0.2,0.8,1,0
,,6681419554e17e6ec71a3628,66fc98a76145664b605f195a,2024-10-02_02h53.10.353,mdp,2024.2.1,Win32,19.96007984,66fa4ebf79326e780c390304,,,,,,,,,,,,,,,,,,,,,1610.1011,1610.1011,1610.1027,1610.8753,0,0,left,0.2349,,1610.877,1611.51,1,0,right,1611.5117,1612.1652,1,0,right,1,1612.1653,1612.1653,1612.1671,1613.6601,0,41,41,41,1,0.6,0.4,0.6,0.4,,,,,,,,,,,,,,,0.081,,0.6,0.4,0.6,0.4,0.6,0.4,0.2,0.8,,,0.123,,0.2,0.8,0.8,0.2,0.8,0.2,0.2,0.8,1,0
,,6681419554e17e6ec71a3628,66fc98a76145664b605f195a,2024-10-02_02h53.10.353,mdp,2024.2.1,Win32,19.96007984,66fa4ebf79326e780c390304,,,,,,,,,,,,,,,,,,,,,1613.6613,1613.6613,1613.6635,1614.6877,1,0,right,0.5011,,1614.6914,1615.7003,1,0,right,1615.7019,1616.9682,0,1,left,0,1616.9683,1616.9683,1616.9704,1618.4659,0,42,42,42,1,0.6,0.4,0.6,0.4,,,,,,,,,,,,,,,0.4756,,0.6,0.4,0.6,0.4,0.6,0.4,0.2,0.8,,,0.7135,,0.2,0.8,0.8,0.2,0.8,0.2,0.2,0.8,1,0
,,6681419554e17e6ec71a3628,66fc98a76145664b605f195a,2024-10-02_02h53.10.353,mdp,2024.2.1,Win32,19.96007984,66fa4ebf79326e780c390304,,,,,,,,,,,,,,,,,,,,,1618.4667,1618.4667,1618.4693,1619.4017,1,1,right,0.3927,,1619.4036,1620.4265,1,1,right,1620.4286,1621.0139,1,1,right,0,1621.014,1621.014,1621.0154,1622.5156,0,43,43,43,1,0.6,0.4,0.6,0.4,,,,,,,,,,,,,,,0.4691,,0.6,0.4,0.6,0.4,0.6,0.4,0.2,0.8,,,0.0291,,0.2,0.8,0.8,0.2,0.8,0.2,0.2,0.8,1,0
,,6681419554e17e6ec71a3628,66fc98a76145664b605f195a,2024-10-02_02h53.10.353,mdp,2024.2.1,Win32,19.96007984,66fa4ebf79326e780c390304,,,,,,,,,,,,,,,,,,,,,1622.5168,1622.5168,1622.52,1624.0493,1,0,right,0.9941,,1624.0534,1624.6015,1,0,right,1624.6037,1625.8811,1,0,right,1,1625.8811,1625.8812,1625.8857,1627.3902,0,44,44,44,1,0.6,0.4,0.6,0.4,,,,,,,,,,,,,,,0.001,,0.6,0.4,0.6,0.4,0.6,0.4,0.2,0.8,,,0.7387,,0.2,0.8,0.8,0.2,0.8,0.2,0.2,0.8,1,0
,,6681419554e17e6ec71a3628,66fc98a76145664b605f195a,2024-10-02_02h53.10.353,mdp,2024.2.1,Win32,19.96007984,66fa4ebf79326e780c390304,,,,,,,,,,,,,,,,,,,,,1627.3915,1627.3915,1627.3931,1628.4572,1,1,right,0.5188,,1628.4595,1629.6483,0,0,left,1629.6505,1630.4309,1,0,right,1,1630.431,1630.431,1630.4324,1631.9066,0,45,45,45,1,0.6,0.4,0.6,0.4,,,,,,,,,,,,,,,0.6491,,0.6,0.4,0.6,0.4,0.6,0.4,0.2,0.8,,,0.2572,,0.2,0.8,0.8,0.2,0.8,0.2,0.2,0.8,1,0
,,6681419554e17e6ec71a3628,66fc98a76145664b605f195a,2024-10-02_02h53.10.353,mdp,2024.2.1,Win32,19.96007984,66fa4ebf79326e780c390304,,,,,,,,,,,,,,,,,,,,,1631.9073,1631.9073,1631.9094,1632.7849,1,1,right,0.3444,,1632.7866,1633.4621,0,0,left,1633.4639,1634.3,1,1,right,0,1634.3001,1634.3002,1634.3021,1635.8101,0,46,46,46,1,0.6,0.4,0.6,0.4,,,,,,,,,,,,,,,0.1544,,0.6,0.4,0.6,0.4,0.6,0.4,0.2,0.8,,,0.311,,0.2,0.8,0.8,0.2,0.8,0.2,0.2,0.8,1,0
,,6681419554e17e6ec71a3628,66fc98a76145664b605f195a,2024-10-02_02h53.10.353,mdp,2024.2.1,Win32,19.96007984,66fa4ebf79326e780c390304,,,,,,,,,,,,,,,,,,,,,1635.8106,1635.8106,1635.8136,1636.9355,0,0,left,0.5826,,1636.9373,1637.7744,0,1,left,1637.7767,1638.4332,1,1,right,0,1638.4333,1638.4333,1638.435,1639.9474,0,47,47,47,1,0.6,0.4,0.6,0.4,,,,,,,,,,,,,,,0.3094,,0.6,0.4,0.6,0.4,0.6,0.4,0.2,0.8,,,0.1167,,0.2,0.8,0.8,0.2,0.8,0.2,0.2,0.8,1,0
,,6681419554e17e6ec71a3628,66fc98a76145664b605f195a,2024-10-02_02h53.10.353,mdp,2024.2.1,Win32,19.96007984,66fa4ebf79326e780c390304,,,,,,,,,,,,,,,,,,,,,1639.9481,1639.9482,1639.9497,1640.8161,0,0,left,0.3388,,1640.8181,1641.5762,1,0,right,1641.578,1642.6213,0,1,left,0,1642.6214,1642.6214,1642.6229,1644.1227,0,48,48,48,1,0.6,0.4,0.6,0.4,,,,,,,,,,,,,,,0.2344,,0.6,0.4,0.6,0.4,0.6,0.4,0.2,0.8,,,0.4931,,0.2,0.8,0.8,0.2,0.8,0.2,0.2,0.8,1,0
,,6681419554e17e6ec71a3628,66fc98a76145664b605f195a,2024-10-02_02h53.10.353,mdp,2024.2.1,Win32,19.96007984,66fa4ebf79326e780c390304,,,,,,,,,,,,,,,,,,,,,1644.1241,1644.1242,1644.1259,1644.9224,1,1,right,0.2614,,1644.9245,1645.8067,1,1,right,1645.8085,1646.6422,1,0,right,1,1646.6423,1646.6424,1646.6439,1648.158,0,49,49,49,1,0.8,0.2,0.4,0.6,,,,,,,,,,,,,,,0.3305,,0.6,0.4,0.6,0.4,0.6,0.4,0.2,0.8,,,0.2826,,0.2,0.8,0.8,0.2,0.8,0.2,0.2,0.8,1,0
,,6681419554e17e6ec71a3628,66fc98a76145664b605f195a,2024-10-02_02h53.10.353,mdp,2024.2.1,Win32,19.96007984,66fa4ebf79326e780c390304,,,,,,,,,,,,,,,,,,,,,,,,,,,,,,,,,,,,,,,,,,,,,,,,,,,,,,,,1648.1583,1706.6565,0,3,3,2,1,imgs/giraffe.png,imgs/horse.png,imgs/squirrel.png,imgs/bear.png,imgs/rabbit.png,,,,,,,,,,,,,,,,,,,,,,,,
,,6681419554e17e6ec71a3628,66fc98a76145664b605f195a,2024-10-02_02h53.10.353,mdp,2024.2.1,Win32,19.96007984,66fa4ebf79326e780c390304,,,,,,,,,,,,,,1,seqs/st1seq33.csv,1706.676,1708.6465,space,1.4517,,1708.6528,1708.6528,1708.6547,1713.6952,1,0,right,4.4882,,1713.7155,1713.7167,1,0,,1713.7179,1713.719,1,0,,1,1713.7191,1713.7191,1713.7204,1715.2133,0,0,0,0,1,0.4,0.6,0.8,0.2,1,0,,,,,,,,,,,,,,,,,,,,,,,,,,,,,,,,,,,,
,,6681419554e17e6ec71a3628,66fc98a76145664b605f195a,2024-10-02_02h53.10.353,mdp,2024.2.1,Win32,19.96007984,66fa4ebf79326e780c390304,,,,,,,,,,,,,,,,,,,,,1715.2139,1715.2139,1715.2158,1715.9316,1,0,right,0.1984,,1715.9334,1715.9344,1,0,,1715.9355,1715.9364,1,0,,1,1715.9365,1715.9365,1715.9376,1717.4278,0,1,1,1,1,0.4,0.6,0.8,0.2,1,0,,,,,,,,,,,,,,,,,,,,,,,,,,,,,,,,,,,,
,,6681419554e17e6ec71a3628,66fc98a76145664b605f195a,2024-10-02_02h53.10.353,mdp,2024.2.1,Win32,19.96007984,66fa4ebf79326e780c390304,,,,,,,,,,,,,,,,,,,,,1717.4284,1717.4284,1717.4301,1718.2422,1,1,right,0.2858,,1718.2441,1718.2452,1,0,,1718.2464,1718.2474,1,1,,0,1718.2474,1718.2474,1718.2485,1719.7431,0,2,2,2,1,0.8,0.2,0.4,0.6,1,0,,,,,,,,,,,,,,,,,,,,,,,,,,,,,,,,,,,,
,,6681419554e17e6ec71a3628,66fc98a76145664b605f195a,2024-10-02_02h53.10.353,mdp,2024.2.1,Win32,19.96007984,66fa4ebf79326e780c390304,,,,,,,,,,,,,,,,,,,,,1719.7439,1719.7439,1719.7459,1720.53,1,1,right,0.2599,,1720.5315,1720.5325,1,0,,1720.5336,1720.5346,1,0,,0,1720.5346,1720.5346,1720.5356,1722.0246,0,3,3,3,1,0.8,0.2,0.4,0.6,1,0,,,,,,,,,,,,,,,,,,,,,,,,,,,,,,,,,,,,
,,6681419554e17e6ec71a3628,66fc98a76145664b605f195a,2024-10-02_02h53.10.353,mdp,2024.2.1,Win32,19.96007984,66fa4ebf79326e780c390304,,,,,,,,,,,,,,,,,,,,,1722.0252,1722.0252,1722.0269,1722.8955,1,1,right,0.339,,1722.8972,1722.8984,1,0,,1722.8999,1722.9009,1,1,,0,1722.901,1722.901,1722.9022,1724.3908,0,4,4,4,1,0.8,0.2,0.4,0.6,1,0,,,,,,,,,,,,,,,,,,,,,,,,,,,,,,,,,,,,
,,6681419554e17e6ec71a3628,66fc98a76145664b605f195a,2024-10-02_02h53.10.353,mdp,2024.2.1,Win32,19.96007984,66fa4ebf79326e780c390304,,,,,,,,,,,,,,,,,,,,,1724.3915,1724.3915,1724.3933,1725.3659,0,0,left,0.4339,,1725.3695,1725.371,1,0,,1725.3723,1725.3732,1,0,,1,1725.3732,1725.3732,1725.3741,1726.869,0,5,5,5,1,0.8,0.2,0.4,0.6,1,0,,,,,,,,,,,,,,,,,,,,,,,,,,,,,,,,,,,,
,,6681419554e17e6ec71a3628,66fc98a76145664b605f195a,2024-10-02_02h53.10.353,mdp,2024.2.1,Win32,19.96007984,66fa4ebf79326e780c390304,,,,,,,,,,,,,,,,,,,,,1726.8695,1726.8696,1726.8711,1727.7025,0,0,left,0.2975,,1727.7047,1727.7062,1,0,,1727.7079,1727.7089,1,0,,1,1727.709,1727.709,1727.7102,1729.1903,0,6,6,6,1,0.8,0.2,0.4,0.6,1,0,,,,,,,,,,,,,,,,,,,,,,,,,,,,,,,,,,,,
,,6681419554e17e6ec71a3628,66fc98a76145664b605f195a,2024-10-02_02h53.10.353,mdp,2024.2.1,Win32,19.96007984,66fa4ebf79326e780c390304,,,,,,,,,,,,,,,,,,,,,1729.1916,1729.1916,1729.1942,1730.2119,1,1,right,0.4918,,1730.2141,1730.2156,1,1,,1730.2168,1730.2177,1,1,,0,1730.2178,1730.2178,1730.2193,1731.7111,0,7,7,7,1,0.8,0.2,0.4,0.6,1,0,,,,,,,,,,,,,,,,,,,,,,,,,,,,,,,,,,,,
,,6681419554e17e6ec71a3628,66fc98a76145664b605f195a,2024-10-02_02h53.10.353,mdp,2024.2.1,Win32,19.96007984,66fa4ebf79326e780c390304,,,,,,,,,,,,,,,,,,,,,1731.7123,1731.7123,1731.7144,1732.5099,1,1,right,0.2667,,1732.5124,1732.5135,1,0,,1732.515,1732.5158,1,0,,0,1732.5159,1732.516,1732.5169,1734.018,0,8,8,8,1,0.8,0.2,0.4,0.6,1,0,,,,,,,,,,,,,,,,,,,,,,,,,,,,,,,,,,,,
,,6681419554e17e6ec71a3628,66fc98a76145664b605f195a,2024-10-02_02h53.10.353,mdp,2024.2.1,Win32,19.96007984,66fa4ebf79326e780c390304,,,,,,,,,,,,,,,,,,,,,1734.0186,1734.0186,1734.0209,1734.9973,1,1,right,0.441,,1734.9993,1735.0004,1,0,,1735.0017,1735.0026,1,1,,0,1735.0026,1735.0026,1735.0036,1736.5045,0,9,9,9,1,0.8,0.2,0.4,0.6,1,0,,,,,,,,,,,,,,,,,,,,,,,,,,,,,,,,,,,,
,,6681419554e17e6ec71a3628,66fc98a76145664b605f195a,2024-10-02_02h53.10.353,mdp,2024.2.1,Win32,19.96007984,66fa4ebf79326e780c390304,,,,,,,,,,,,,,,,,,,,,1736.5049,1736.505,1736.5067,1737.2591,1,0,right,0.2343,,1737.2607,1737.2617,1,0,,1737.2632,1737.2642,1,0,,1,1737.2642,1737.2642,1737.2654,1738.7522,0,10,10,10,1,0.4,0.6,0.8,0.2,1,0,,,,,,,,,,,,,,,,,,,,,,,,,,,,,,,,,,,,
,,6681419554e17e6ec71a3628,66fc98a76145664b605f195a,2024-10-02_02h53.10.353,mdp,2024.2.1,Win32,19.96007984,66fa4ebf79326e780c390304,,,,,,,,,,,,,,,,,,,,,1738.7528,1738.7528,1738.7548,1739.8687,1,0,right,0.5947,,1739.8707,1739.8737,1,0,,1739.8755,1739.8768,1,0,,1,1739.8769,1739.877,1739.8781,1741.3874,0,11,11,11,1,0.4,0.6,0.8,0.2,1,0,,,,,,,,,,,,,,,,,,,,,,,,,,,,,,,,,,,,
,,6681419554e17e6ec71a3628,66fc98a76145664b605f195a,2024-10-02_02h53.10.353,mdp,2024.2.1,Win32,19.96007984,66fa4ebf79326e780c390304,,,,,,,,,,,,,,,,,,,,,1741.3878,1741.3878,1741.3912,1742.1413,1,0,right,0.2208,,1742.1435,1742.1445,1,1,,1742.1455,1742.1463,1,0,,1,1742.1463,1742.1463,1742.1472,1743.6474,0,12,12,12,1,0.6,0.4,0.2,0.8,1,0,,,,,,,,,,,,,,,,,,,,,,,,,,,,,,,,,,,,
,,6681419554e17e6ec71a3628,66fc98a76145664b605f195a,2024-10-02_02h53.10.353,mdp,2024.2.1,Win32,19.96007984,66fa4ebf79326e780c390304,,,,,,,,,,,,,,,,,,,,,1743.648,1743.648,1743.6495,1744.4899,0,1,left,0.3098,,1744.4917,1744.493,1,0,,1744.4941,1744.495,1,0,,0,1744.4951,1744.4951,1744.4964,1745.9878,0,13,13,13,1,0.6,0.4,0.2,0.8,1,0,,,,,,,,,,,,,,,,,,,,,,,,,,,,,,,,,,,,
,,6681419554e17e6ec71a3628,66fc98a76145664b605f195a,2024-10-02_02h53.10.353,mdp,2024.2.1,Win32,19.96007984,66fa4ebf79326e780c390304,,,,,,,,,,,,,,,,,,,,,1745.9882,1745.9883,1745.9903,1746.9167,1,1,right,0.401,,1746.9181,1746.9198,1,1,,1746.9212,1746.9222,1,1,,0,1746.9222,1746.9222,1746.9232,1748.4013,0,14,14,14,1,0.6,0.4,0.2,0.8,1,0,,,,,,,,,,,,,,,,,,,,,,,,,,,,,,,,,,,,
,,6681419554e17e6ec71a3628,66fc98a76145664b605f195a,2024-10-02_02h53.10.353,mdp,2024.2.1,Win32,19.96007984,66fa4ebf79326e780c390304,,,,,,,,,,,,,,,,,,,,,1748.4019,1748.4019,1748.4034,1749.1979,1,1,right,0.2554,,1749.1994,1749.2008,1,1,,1749.2019,1749.2029,1,1,,0,1749.203,1749.203,1749.2042,1750.6956,0,15,15,15,1,0.6,0.4,0.2,0.8,1,0,,,,,,,,,,,,,,,,,,,,,,,,,,,,,,,,,,,,
,,6681419554e17e6ec71a3628,66fc98a76145664b605f195a,2024-10-02_02h53.10.353,mdp,2024.2.1,Win32,19.96007984,66fa4ebf79326e780c390304,,,,,,,,,,,,,,,,,,,,,1750.696,1750.696,1750.6979,1752.4409,0,0,left,1.2243,,1752.4435,1752.4452,1,1,,1752.4464,1752.4474,1,1,,1,1752.4474,1752.4474,1752.4485,1753.9375,0,16,16,16,1,0.6,0.4,0.2,0.8,1,0,,,,,,,,,,,,,,,,,,,,,,,,,,,,,,,,,,,,
,,6681419554e17e6ec71a3628,66fc98a76145664b605f195a,2024-10-02_02h53.10.353,mdp,2024.2.1,Win32,19.96007984,66fa4ebf79326e780c390304,,,,,,,,,,,,,,,,,,,,,1753.9381,1753.9381,1753.9407,1755.2343,0,0,left,0.7757,,1755.2361,1755.2372,1,1,,1755.2395,1755.2411,1,0,,1,1755.2412,1755.2412,1755.2425,1756.7398,0,17,17,17,1,0.6,0.4,0.2,0.8,1,0,,,,,,,,,,,,,,,,,,,,,,,,,,,,,,,,,,,,
,,6681419554e17e6ec71a3628,66fc98a76145664b605f195a,2024-10-02_02h53.10.353,mdp,2024.2.1,Win32,19.96007984,66fa4ebf79326e780c390304,,,,,,,,,,,,,,,,,,,,,1756.7404,1756.7405,1756.7426,1758.5464,0,0,left,1.2748,,1758.5479,1758.5489,1,0,,1758.5503,1758.5513,1,0,,1,1758.5513,1758.5513,1758.553,1760.0482,0,18,18,18,1,0.6,0.4,0.2,0.8,1,0,,,,,,,,,,,,,,,,,,,,,,,,,,,,,,,,,,,,
,,6681419554e17e6ec71a3628,66fc98a76145664b605f195a,2024-10-02_02h53.10.353,mdp,2024.2.1,Win32,19.96007984,66fa4ebf79326e780c390304,,,,,,,,,,,,,,,,,,,,,1760.0487,1760.0488,1760.0514,1763.128,0,1,left,2.5515,,1763.1315,1763.1334,1,0,,1763.1347,1763.1354,1,0,,0,1763.1355,1763.1355,1763.1363,1764.6315,0,19,19,19,1,0.6,0.4,0.2,0.8,1,0,,,,,,,,,,,,,,,,,,,,,,,,,,,,,,,,,,,,
,,6681419554e17e6ec71a3628,66fc98a76145664b605f195a,2024-10-02_02h53.10.353,mdp,2024.2.1,Win32,19.96007984,66fa4ebf79326e780c390304,,,,,,,,,,,,,,,,,,,,,1764.6321,1764.6322,1764.634,1765.3997,1,1,right,0.2503,,1765.4012,1765.4022,1,0,,1765.4035,1765.4044,1,0,,0,1765.4045,1765.4045,1765.4055,1766.9041,0,20,20,20,1,0.8,0.2,0.6,0.4,1,0,,,,,,,,,,,,,,,,,,,,,,,,,,,,,,,,,,,,
,,6681419554e17e6ec71a3628,66fc98a76145664b605f195a,2024-10-02_02h53.10.353,mdp,2024.2.1,Win32,19.96007984,66fa4ebf79326e780c390304,,,,,,,,,,,,,,,,,,,,,1766.9047,1766.9047,1766.906,1768.0406,1,1,right,0.6156,,1768.0422,1768.0434,1,0,,1768.0453,1768.0464,1,1,,0,1768.0464,1768.0464,1768.0474,1769.5425,0,21,21,21,1,0.8,0.2,0.6,0.4,1,0,,,,,,,,,,,,,,,,,,,,,,,,,,,,,,,,,,,,
,,6681419554e17e6ec71a3628,66fc98a76145664b605f195a,2024-10-02_02h53.10.353,mdp,2024.2.1,Win32,19.96007984,66fa4ebf79326e780c390304,,,,,,,,,,,,,,,,,,,,,1769.5434,1769.5434,1769.5456,1770.0733,0,1,left,0.0012,,1770.0754,1770.0765,1,1,,1770.0781,1770.0789,1,0,,0,1770.079,1770.079,1770.0802,1771.5777,0,22,22,22,1,0.8,0.2,0.6,0.4,1,0,,,,,,,,,,,,,,,,,,,,,,,,,,,,,,,,,,,,
,,6681419554e17e6ec71a3628,66fc98a76145664b605f195a,2024-10-02_02h53.10.353,mdp,2024.2.1,Win32,19.96007984,66fa4ebf79326e780c390304,,,,,,,,,,,,,,,,,,,,,1771.5782,1771.5782,1771.58,1772.9528,0,0,left,0.8497,,1772.9556,1772.9574,1,0,,1772.9588,1772.96,1,0,,1,1772.96,1772.96,1772.9609,1774.471,0,23,23,23,1,0.8,0.2,0.6,0.4,1,0,,,,,,,,,,,,,,,,,,,,,,,,,,,,,,,,,,,,
,,6681419554e17e6ec71a3628,66fc98a76145664b605f195a,2024-10-02_02h53.10.353,mdp,2024.2.1,Win32,19.96007984,66fa4ebf79326e780c390304,,,,,,,,,,,,,,,,,,,,,1774.4717,1774.4717,1774.4738,1775.3109,0,0,left,0.3109,,1775.3125,1775.3135,1,0,,1775.3147,1775.3156,1,0,,1,1775.3157,1775.3157,1775.3168,1776.8062,0,24,24,24,1,0.8,0.2,0.6,0.4,1,0,,,,,,,,,,,,,,,,,,,,,,,,,,,,,,,,,,,,
,,6681419554e17e6ec71a3628,66fc98a76145664b605f195a,2024-10-02_02h53.10.353,mdp,2024.2.1,Win32,19.96007984,66fa4ebf79326e780c390304,,,,,,,,,,,,,,,,,,,,,1776.8068,1776.8069,1776.8083,1778.6707,0,0,left,1.3463,,1778.6722,1778.6732,1,0,,1778.6745,1778.6755,1,0,,1,1778.6755,1778.6755,1778.6767,1780.1784,0,25,25,25,1,0.8,0.2,0.6,0.4,1,0,,,,,,,,,,,,,,,,,,,,,,,,,,,,,,,,,,,,
,,6681419554e17e6ec71a3628,66fc98a76145664b605f195a,2024-10-02_02h53.10.353,mdp,2024.2.1,Win32,19.96007984,66fa4ebf79326e780c390304,,,,,,,,,,,,,,,,,,,,,1780.1794,1780.1794,1780.1816,1782.9111,0,0,left,2.2003,,1782.9136,1782.9149,1,0,,1782.9162,1782.9171,1,0,,1,1782.9171,1782.9171,1782.9182,1784.4085,0,26,26,26,1,0.8,0.2,0.6,0.4,1,0,,,,,,,,,,,,,,,,,,,,,,,,,,,,,,,,,,,,
,,6681419554e17e6ec71a3628,66fc98a76145664b605f195a,2024-10-02_02h53.10.353,mdp,2024.2.1,Win32,19.96007984,66fa4ebf79326e780c390304,,,,,,,,,,,,,,,,,,,,,1784.4121,1784.4121,1784.4142,1787.383,0,1,left,2.442,,1787.3849,1787.3863,1,0,,1787.3877,1787.3886,1,0,,0,1787.3887,1787.3887,1787.3899,1788.8792,0,27,27,27,1,0.8,0.2,0.6,0.4,1,0,,,,,,,,,,,,,,,,,,,,,,,,,,,,,,,,,,,,
,,6681419554e17e6ec71a3628,66fc98a76145664b605f195a,2024-10-02_02h53.10.353,mdp,2024.2.1,Win32,19.96007984,66fa4ebf79326e780c390304,,,,,,,,,,,,,,,,,,,,,1788.8803,1788.8803,1788.8819,1790.3695,0,0,left,0.9496,,1790.3722,1790.3736,1,0,,1790.3748,1790.3758,1,0,,1,1790.3759,1790.3759,1790.3769,1791.8796,0,28,28,28,1,0.8,0.2,0.6,0.4,1,0,,,,,,,,,,,,,,,,,,,,,,,,,,,,,,,,,,,,
,,6681419554e17e6ec71a3628,66fc98a76145664b605f195a,2024-10-02_02h53.10.353,mdp,2024.2.1,Win32,19.96007984,66fa4ebf79326e780c390304,,,,,,,,,,,,,,,,,,,,,1791.8801,1791.8801,1791.8816,1794.7484,0,0,left,2.3355,,1794.7512,1794.7524,1,0,,1794.7539,1794.7548,1,1,,1,1794.7549,1794.7549,1794.7558,1796.2487,0,29,29,29,1,0.8,0.2,0.6,0.4,1,0,,,,,,,,,,,,,,,,,,,,,,,,,,,,,,,,,,,,
,,6681419554e17e6ec71a3628,66fc98a76145664b605f195a,2024-10-02_02h53.10.353,mdp,2024.2.1,Win32,19.96007984,66fa4ebf79326e780c390304,,,,,,,,,,,,,,,,,,,,,1796.2506,1796.2506,1796.252,1797.8335,0,0,left,1.0489,,1797.8349,1797.836,1,1,,1797.8373,1797.8384,1,0,,1,1797.8385,1797.8385,1797.8401,1799.3342,0,30,30,30,1,0.8,0.2,0.6,0.4,1,0,,,,,,,,,,,,,,,,,,,,,,,,,,,,,,,,,,,,
,,6681419554e17e6ec71a3628,66fc98a76145664b605f195a,2024-10-02_02h53.10.353,mdp,2024.2.1,Win32,19.96007984,66fa4ebf79326e780c390304,,,,,,,,,,,,,,,,,,,,,1799.3348,1799.3348,1799.3381,1803.3241,0,0,left,3.4652,,1803.3447,1803.3461,1,0,,1803.348,1803.35,1,0,,1,1803.3501,1803.3501,1803.3518,1804.8426,0,31,31,31,1,0.2,0.8,0.8,0.2,1,0,,,,,,,,,,,,,,,,,,,,,,,,,,,,,,,,,,,,
,,6681419554e17e6ec71a3628,66fc98a76145664b605f195a,2024-10-02_02h53.10.353,mdp,2024.2.1,Win32,19.96007984,66fa4ebf79326e780c390304,,,,,,,,,,,,,,,,,,,,,1804.8432,1804.8432,1804.8452,1806.6244,0,0,left,1.2536,,1806.6259,1806.6269,1,1,,1806.6284,1806.6296,1,1,,1,1806.6296,1806.6296,1806.6306,1808.1298,0,32,32,32,1,0.2,0.8,0.8,0.2,1,0,,,,,,,,,,,,,,,,,,,,,,,,,,,,,,,,,,,,
,,6681419554e17e6ec71a3628,66fc98a76145664b605f195a,2024-10-02_02h53.10.353,mdp,2024.2.1,Win32,19.96007984,66fa4ebf79326e780c390304,,,,,,,,,,,,,,,,,,,,,1808.1304,1808.1304,1808.132,1811.557,0,1,left,2.8522,,1811.5586,1811.5599,1,1,,1811.5612,1811.5623,1,1,,0,1811.5623,1811.5623,1811.5635,1813.0638,0,33,33,33,1,0.2,0.8,0.8,0.2,1,0,,,,,,,,,,,,,,,,,,,,,,,,,,,,,,,,,,,,
,,6681419554e17e6ec71a3628,66fc98a76145664b605f195a,2024-10-02_02h53.10.353,mdp,2024.2.1,Win32,19.96007984,66fa4ebf79326e780c390304,,,,,,,,,,,,,,,,,,,,,1813.0645,1813.0645,1813.0664,1814.2706,0,1,left,0.6735,,1814.2725,1814.2735,1,0,,1814.2747,1814.2757,1,0,,0,1814.2758,1814.2759,1814.2772,1815.7661,0,34,34,34,1,0.2,0.8,0.8,0.2,1,0,,,,,,,,,,,,,,,,,,,,,,,,,,,,,,,,,,,,
,,6681419554e17e6ec71a3628,66fc98a76145664b605f195a,2024-10-02_02h53.10.353,mdp,2024.2.1,Win32,19.96007984,66fa4ebf79326e780c390304,,,,,,,,,,,,,,,,,,,,,1815.7671,1815.7672,1815.7691,1816.6811,0,0,left,0.3923,,1816.6826,1816.6838,1,1,,1816.685,1816.686,1,0,,1,1816.6861,1816.6861,1816.6872,1818.1745,0,35,35,35,1,0.2,0.8,0.8,0.2,1,0,,,,,,,,,,,,,,,,,,,,,,,,,,,,,,,,,,,,
,,6681419554e17e6ec71a3628,66fc98a76145664b605f195a,2024-10-02_02h53.10.353,mdp,2024.2.1,Win32,19.96007984,66fa4ebf79326e780c390304,,,,,,,,,,,,,,,,,,,,,1818.1751,1818.1752,1818.1766,1818.8143,0,0,left,0.1184,,1818.816,1818.8174,1,0,,1818.8187,1818.8199,1,0,,1,1818.82,1818.82,1818.8212,1820.3107,0,36,36,36,1,0.8,0.2,0.6,0.4,1,0,,,,,,,,,,,,,,,,,,,,,,,,,,,,,,,,,,,,
,,6681419554e17e6ec71a3628,66fc98a76145664b605f195a,2024-10-02_02h53.10.353,mdp,2024.2.1,Win32,19.96007984,66fa4ebf79326e780c390304,,,,,,,,,,,,,,,,,,,,,1820.3113,1820.3113,1820.3127,1821.0158,0,0,left,0.177,,1821.0173,1821.0183,1,1,,1821.0198,1821.0206,1,0,,1,1821.0207,1821.0207,1821.0217,1822.5109,0,37,37,37,1,0.8,0.2,0.6,0.4,1,0,,,,,,,,,,,,,,,,,,,,,,,,,,,,,,,,,,,,
,,6681419554e17e6ec71a3628,66fc98a76145664b605f195a,2024-10-02_02h53.10.353,mdp,2024.2.1,Win32,19.96007984,66fa4ebf79326e780c390304,,,,,,,,,,,,,,,,,,,,,1822.5114,1822.5115,1822.5128,1824.3522,0,0,left,1.2992,,1824.3549,1824.3564,1,1,,1824.3577,1824.3586,1,1,,1,1824.3586,1824.3586,1824.3601,1825.8555,0,38,38,38,1,0.8,0.2,0.6,0.4,1,0,,,,,,,,,,,,,,,,,,,,,,,,,,,,,,,,,,,,
