init_exp.started,init_exp.stopped,participant,session,date,expName,psychopyVersion,OS,frameRate,study_id,disp_instruction.started,disp_instruction.stopped,instruction.thisRepN,instruction.thisTrialN,instruction.thisN,instruction.thisIndex,instruction.ran,instimg_path,consent.started,consent.stopped,key_resp_3.keys,key_resp_3.rt,key_resp_3.duration,n_steps,sequence_path,init_block.started,init_block.stopped,key_resp.keys,key_resp.rt,key_resp.duration,init_trials.started,init_trials.stopped,step0.started,step0.stopped,act0,s1,res0.keys,res0.rt,res0.duration,step1.started,step1.stopped,act1,s2,res1.keys,step2.started,step2.stopped,act2,s3,res2.keys,rew,reward_comp.started,reward_comp.stopped,reward_disp.started,reward_disp.stopped,trials.thisRepN,trials.thisTrialN,trials.thisN,trials.thisIndex,trials.ran,s00a0s10,s00a0s11,s00a1s10,s00a1s11,rew10,rew11,break_block.started,break_block.stopped,block.thisRepN,block.thisTrialN,block.thisN,block.thisIndex,block.ran,s00path,s10path,s11path,s20path,s21path,res1.rt,res1.duration,s10a0s20,s10a0s21,s10a1s20,s10a1s21,s11a0s20,s11a0s21,s11a1s20,s11a1s21,rew20,rew21,res2.rt,res2.duration,s20a0s30,s20a0s31,s20a1s30,s20a1s31,s21a0s30,s21a0s31,s21a1s30,s21a1s31,rew30,rew31
0.0005,0.0053,6686926932e11d5550389cb1,66daf5bc87ab4c7ab1be8217,2024-09-06_14h38.19.914,mdp,2024.2.1,Win32,20,66d7945b1baad48e845df3ce,,,,,,,,,,,,,,,,,,,,,,,,,,,,,,,,,,,,,,,,,,,,,,,,,,,,,,,,,,,,,,,,,,,,,,,,,,,,,,,,,,,,,,,,,,,
,,6686926932e11d5550389cb1,66daf5bc87ab4c7ab1be8217,2024-09-06_14h38.19.914,mdp,2024.2.1,Win32,20,66d7945b1baad48e845df3ce,0.0149,36.5594,0,0,0,0,1,rlnn_exp/rlnn_exp.001.png,,,,,,,,,,,,,,,,,,,,,,,,,,,,,,,,,,,,,,,,,,,,,,,,,,,,,,,,,,,,,,,,,,,,,,,,,,,,,,,,,,,
,,6686926932e11d5550389cb1,66daf5bc87ab4c7ab1be8217,2024-09-06_14h38.19.914,mdp,2024.2.1,Win32,20,66d7945b1baad48e845df3ce,36.5609,59.5522,0,1,1,1,1,rlnn_exp/rlnn_exp.002.png,,,,,,,,,,,,,,,,,,,,,,,,,,,,,,,,,,,,,,,,,,,,,,,,,,,,,,,,,,,,,,,,,,,,,,,,,,,,,,,,,,,
,,6686926932e11d5550389cb1,66daf5bc87ab4c7ab1be8217,2024-09-06_14h38.19.914,mdp,2024.2.1,Win32,20,66d7945b1baad48e845df3ce,59.5725,79.2303,0,2,2,2,1,rlnn_exp/rlnn_exp.003.png,,,,,,,,,,,,,,,,,,,,,,,,,,,,,,,,,,,,,,,,,,,,,,,,,,,,,,,,,,,,,,,,,,,,,,,,,,,,,,,,,,,
,,6686926932e11d5550389cb1,66daf5bc87ab4c7ab1be8217,2024-09-06_14h38.19.914,mdp,2024.2.1,Win32,20,66d7945b1baad48e845df3ce,79.248,94.9164,0,3,3,3,1,rlnn_exp/rlnn_exp.004.png,,,,,,,,,,,,,,,,,,,,,,,,,,,,,,,,,,,,,,,,,,,,,,,,,,,,,,,,,,,,,,,,,,,,,,,,,,,,,,,,,,,
,,6686926932e11d5550389cb1,66daf5bc87ab4c7ab1be8217,2024-09-06_14h38.19.914,mdp,2024.2.1,Win32,20,66d7945b1baad48e845df3ce,,,,,,,,,94.9541,182.9103,y,77.8963,,,,,,,,,,,,,,,,,,,,,,,,,,,,,,,,,,,,,,,,,,,,,,,,,,,,,,,,,,,,,,,,,,,,,,,,,,,,,,,
,,6686926932e11d5550389cb1,66daf5bc87ab4c7ab1be8217,2024-09-06_14h38.19.914,mdp,2024.2.1,Win32,20,66d7945b1baad48e845df3ce,,,,,,,,,,,,,,1,seqs/st1seq0.csv,182.9561,185.5066,space,2.0216,,185.5187,185.5192,185.5207,197.4173,1,0,right,11.3125,,197.4389,197.4438,,1,,197.4445,197.4468,,0,,1,197.4471,197.4473,197.4479,198.9224,0,0,0,0,1,0.8,0.2,0.8,0.2,1,0,,,,,,,,,,,,,,,,,,,,,,,,,,,,,,,,,,,,
,,6686926932e11d5550389cb1,66daf5bc87ab4c7ab1be8217,2024-09-06_14h38.19.914,mdp,2024.2.1,Win32,20,66d7945b1baad48e845df3ce,,,,,,,,,,,,,,,,,,,,,198.923,198.923,198.9249,203.1405,1,1,right,3.6808,,203.162,203.1635,,1,,203.1648,203.1658,,0,,0,203.1659,203.1659,203.1679,204.6581,0,1,1,1,1,0.8,0.2,0.8,0.2,1,0,,,,,,,,,,,,,,,,,,,,,,,,,,,,,,,,,,,,
,,6686926932e11d5550389cb1,66daf5bc87ab4c7ab1be8217,2024-09-06_14h38.19.914,mdp,2024.2.1,Win32,20,66d7945b1baad48e845df3ce,,,,,,,,,,,,,,,,,,,,,204.6588,204.6588,204.6638,211.066,1,0,right,5.8608,,211.0969,211.0982,,0,,211.1003,211.1014,,0,,1,211.1018,211.1018,211.1029,212.5998,0,2,2,2,1,0.8,0.2,0.8,0.2,1,0,,,,,,,,,,,,,,,,,,,,,,,,,,,,,,,,,,,,
,,6686926932e11d5550389cb1,66daf5bc87ab4c7ab1be8217,2024-09-06_14h38.19.914,mdp,2024.2.1,Win32,20,66d7945b1baad48e845df3ce,,,,,,,,,,,,,,,,,,,,,212.6003,212.6004,212.6029,216.8102,1,0,right,3.6665,,216.85,216.8527,,1,,216.8562,216.8584,,0,,1,216.8585,216.8586,216.8629,218.3591,0,3,3,3,1,0.8,0.2,0.8,0.2,1,0,,,,,,,,,,,,,,,,,,,,,,,,,,,,,,,,,,,,
,,6686926932e11d5550389cb1,66daf5bc87ab4c7ab1be8217,2024-09-06_14h38.19.914,mdp,2024.2.1,Win32,20,66d7945b1baad48e845df3ce,,,,,,,,,,,,,,,,,,,,,218.3601,218.3602,218.3642,222.2075,1,0,right,3.3069,,222.228,222.2293,,1,,222.2306,222.2319,,0,,1,222.2319,222.2319,222.2342,223.715,0,4,4,4,1,0.8,0.2,0.8,0.2,1,0,,,,,,,,,,,,,,,,,,,,,,,,,,,,,,,,,,,,
,,6686926932e11d5550389cb1,66daf5bc87ab4c7ab1be8217,2024-09-06_14h38.19.914,mdp,2024.2.1,Win32,20,66d7945b1baad48e845df3ce,,,,,,,,,,,,,,,,,,,,,223.7154,223.7154,223.7174,238.2896,1,0,right,14.0474,,238.3309,238.3338,,0,,238.3366,238.3384,,0,,1,238.3386,238.3386,238.3407,239.834,0,5,5,5,1,0.8,0.2,0.8,0.2,1,0,,,,,,,,,,,,,,,,,,,,,,,,,,,,,,,,,,,,
,,6686926932e11d5550389cb1,66daf5bc87ab4c7ab1be8217,2024-09-06_14h38.19.914,mdp,2024.2.1,Win32,20,66d7945b1baad48e845df3ce,,,,,,,,,,,,,,,,,,,,,239.8351,239.8351,239.8432,241.8406,1,0,right,1.4561,,241.8447,241.8475,,0,,241.8506,241.8532,,0,,1,241.8534,241.8534,241.8556,243.3446,0,6,6,6,1,0.8,0.2,0.8,0.2,1,0,,,,,,,,,,,,,,,,,,,,,,,,,,,,,,,,,,,,
,,6686926932e11d5550389cb1,66daf5bc87ab4c7ab1be8217,2024-09-06_14h38.19.914,mdp,2024.2.1,Win32,20,66d7945b1baad48e845df3ce,,,,,,,,,,,,,,,,,,,,,243.347,243.3471,243.3519,244.6684,1,0,right,0.7785,,244.6701,244.6721,,1,,244.6734,244.6743,,0,,1,244.6744,244.6745,244.6752,246.1655,0,7,7,7,1,0.8,0.2,0.8,0.2,1,0,,,,,,,,,,,,,,,,,,,,,,,,,,,,,,,,,,,,
,,6686926932e11d5550389cb1,66daf5bc87ab4c7ab1be8217,2024-09-06_14h38.19.914,mdp,2024.2.1,Win32,20,66d7945b1baad48e845df3ce,,,,,,,,,,,,,,,,,,,,,246.166,246.1661,246.1677,247.3958,1,0,right,0.6609,,247.3994,247.4023,,0,,247.4063,247.4083,,1,,1,247.4084,247.4085,247.4121,248.9101,0,8,8,8,1,0.8,0.2,0.8,0.2,1,0,,,,,,,,,,,,,,,,,,,,,,,,,,,,,,,,,,,,
,,6686926932e11d5550389cb1,66daf5bc87ab4c7ab1be8217,2024-09-06_14h38.19.914,mdp,2024.2.1,Win32,20,66d7945b1baad48e845df3ce,,,,,,,,,,,,,,,,,,,,,248.9105,248.9107,248.9122,273.7203,1,1,right,24.2805,,273.744,273.7451,,0,,273.7461,273.7467,,0,,0,273.7468,273.7468,273.7475,275.2401,0,9,9,9,1,0.8,0.2,0.8,0.2,1,0,,,,,,,,,,,,,,,,,,,,,,,,,,,,,,,,,,,,
,,6686926932e11d5550389cb1,66daf5bc87ab4c7ab1be8217,2024-09-06_14h38.19.914,mdp,2024.2.1,Win32,20,66d7945b1baad48e845df3ce,,,,,,,,,,,,,,,,,,,,,275.2407,275.2407,275.243,277.5038,1,0,right,1.7345,,277.5068,277.5091,,1,,277.5124,277.5159,,0,,1,277.516,277.5161,277.518,279.0152,0,10,10,10,1,0.8,0.2,0.8,0.2,1,0,,,,,,,,,,,,,,,,,,,,,,,,,,,,,,,,,,,,
,,6686926932e11d5550389cb1,66daf5bc87ab4c7ab1be8217,2024-09-06_14h38.19.914,mdp,2024.2.1,Win32,20,66d7945b1baad48e845df3ce,,,,,,,,,,,,,,,,,,,,,279.0159,279.0159,279.0186,280.181,1,1,right,0.6297,,280.1832,280.1843,,1,,280.1855,280.1865,,1,,0,280.1866,280.1866,280.1877,281.6746,0,11,11,11,1,0.6,0.4,0.4,0.6,1,0,,,,,,,,,,,,,,,,,,,,,,,,,,,,,,,,,,,,
,,6686926932e11d5550389cb1,66daf5bc87ab4c7ab1be8217,2024-09-06_14h38.19.914,mdp,2024.2.1,Win32,20,66d7945b1baad48e845df3ce,,,,,,,,,,,,,,,,,,,,,281.6751,281.6752,281.6767,282.7757,1,0,right,0.5668,,282.7808,282.7831,,1,,282.7859,282.7876,,1,,1,282.7876,282.7877,282.7894,284.2894,0,12,12,12,1,0.6,0.4,0.4,0.6,1,0,,,,,,,,,,,,,,,,,,,,,,,,,,,,,,,,,,,,
,,6686926932e11d5550389cb1,66daf5bc87ab4c7ab1be8217,2024-09-06_14h38.19.914,mdp,2024.2.1,Win32,20,66d7945b1baad48e845df3ce,,,,,,,,,,,,,,,,,,,,,284.2901,284.2902,284.2934,285.5266,1,1,right,0.7107,,285.5296,285.5315,,1,,285.5339,285.5355,,1,,0,285.5357,285.5357,285.5377,287.019,0,13,13,13,1,0.6,0.4,0.4,0.6,1,0,,,,,,,,,,,,,,,,,,,,,,,,,,,,,,,,,,,,
,,6686926932e11d5550389cb1,66daf5bc87ab4c7ab1be8217,2024-09-06_14h38.19.914,mdp,2024.2.1,Win32,20,66d7945b1baad48e845df3ce,,,,,,,,,,,,,,,,,,,,,287.0195,287.0195,287.0209,296.1309,1,1,right,8.5725,,296.1454,296.1464,,1,,296.1476,296.1484,,1,,0,296.1485,296.1485,296.1492,297.6333,0,14,14,14,1,0.8,0.2,0.2,0.8,1,0,,,,,,,,,,,,,,,,,,,,,,,,,,,,,,,,,,,,
,,6686926932e11d5550389cb1,66daf5bc87ab4c7ab1be8217,2024-09-06_14h38.19.914,mdp,2024.2.1,Win32,20,66d7945b1baad48e845df3ce,,,,,,,,,,,,,,,,,,,,,297.6341,297.6342,297.6368,298.7163,1,1,right,0.5497,,298.7222,298.7243,,1,,298.7276,298.7294,,0,,0,298.7295,298.7295,298.7334,300.2357,0,15,15,15,1,0.8,0.2,0.2,0.8,1,0,,,,,,,,,,,,,,,,,,,,,,,,,,,,,,,,,,,,
,,6686926932e11d5550389cb1,66daf5bc87ab4c7ab1be8217,2024-09-06_14h38.19.914,mdp,2024.2.1,Win32,20,66d7945b1baad48e845df3ce,,,,,,,,,,,,,,,,,,,,,300.2363,300.2363,300.2381,301.0114,1,1,right,0.2487,,301.016,301.0182,,1,,301.0203,301.023,,0,,0,301.0231,301.0231,301.0254,302.5259,0,16,16,16,1,0.8,0.2,0.2,0.8,1,0,,,,,,,,,,,,,,,,,,,,,,,,,,,,,,,,,,,,
,,6686926932e11d5550389cb1,66daf5bc87ab4c7ab1be8217,2024-09-06_14h38.19.914,mdp,2024.2.1,Win32,20,66d7945b1baad48e845df3ce,,,,,,,,,,,,,,,,,,,,,302.5268,302.5268,302.5304,303.3464,1,1,right,0.2914,,303.3479,303.3492,,1,,303.3509,303.3525,,1,,0,303.3525,303.3525,303.3538,304.8413,0,17,17,17,1,0.8,0.2,0.2,0.8,1,0,,,,,,,,,,,,,,,,,,,,,,,,,,,,,,,,,,,,
,,6686926932e11d5550389cb1,66daf5bc87ab4c7ab1be8217,2024-09-06_14h38.19.914,mdp,2024.2.1,Win32,20,66d7945b1baad48e845df3ce,,,,,,,,,,,,,,,,,,,,,304.8425,304.8426,304.8451,305.9786,1,1,right,0.6014,,305.9804,305.9818,,1,,305.9831,305.984,,1,,0,305.984,305.984,305.9854,307.4878,0,18,18,18,1,0.8,0.2,0.2,0.8,1,0,,,,,,,,,,,,,,,,,,,,,,,,,,,,,,,,,,,,
,,6686926932e11d5550389cb1,66daf5bc87ab4c7ab1be8217,2024-09-06_14h38.19.914,mdp,2024.2.1,Win32,20,66d7945b1baad48e845df3ce,,,,,,,,,,,,,,,,,,,,,307.4896,307.4897,307.4927,308.0232,1,0,right,0.0018,,308.0275,308.0299,,1,,308.0324,308.034,,1,,1,308.0341,308.0341,308.0361,309.5385,0,19,19,19,1,0.8,0.2,0.2,0.8,1,0,,,,,,,,,,,,,,,,,,,,,,,,,,,,,,,,,,,,
,,6686926932e11d5550389cb1,66daf5bc87ab4c7ab1be8217,2024-09-06_14h38.19.914,mdp,2024.2.1,Win32,20,66d7945b1baad48e845df3ce,,,,,,,,,,,,,,,,,,,,,309.5394,309.5394,309.5428,310.4095,1,1,right,0.34,,310.4113,310.4132,,1,,310.4144,310.4153,,1,,0,310.4154,310.4154,310.4162,311.9057,0,20,20,20,1,0.8,0.2,0.2,0.8,1,0,,,,,,,,,,,,,,,,,,,,,,,,,,,,,,,,,,,,
,,6686926932e11d5550389cb1,66daf5bc87ab4c7ab1be8217,2024-09-06_14h38.19.914,mdp,2024.2.1,Win32,20,66d7945b1baad48e845df3ce,,,,,,,,,,,,,,,,,,,,,311.9063,311.9063,311.9081,312.9393,1,1,right,0.499,,312.9437,312.9456,,1,,312.9498,312.9517,,0,,0,312.9519,312.9519,312.9542,314.4494,0,21,21,21,1,0.8,0.2,0.2,0.8,1,0,,,,,,,,,,,,,,,,,,,,,,,,,,,,,,,,,,,,
,,6686926932e11d5550389cb1,66daf5bc87ab4c7ab1be8217,2024-09-06_14h38.19.914,mdp,2024.2.1,Win32,20,66d7945b1baad48e845df3ce,,,,,,,,,,,,,,,,,,,,,314.4501,314.4502,314.4532,315.5029,1,0,right,0.5212,,315.5047,315.5063,,0,,315.5079,315.509,,0,,1,315.5091,315.5091,315.5102,317.0093,0,22,22,22,1,0.6,0.4,0.8,0.2,1,0,,,,,,,,,,,,,,,,,,,,,,,,,,,,,,,,,,,,
,,6686926932e11d5550389cb1,66daf5bc87ab4c7ab1be8217,2024-09-06_14h38.19.914,mdp,2024.2.1,Win32,20,66d7945b1baad48e845df3ce,,,,,,,,,,,,,,,,,,,,,317.01,317.01,317.0136,317.9826,1,0,right,0.4434,,317.9866,317.9883,,0,,317.9905,317.9929,,0,,1,317.9929,317.9929,317.9953,319.4779,0,23,23,23,1,0.6,0.4,0.8,0.2,1,0,,,,,,,,,,,,,,,,,,,,,,,,,,,,,,,,,,,,
,,6686926932e11d5550389cb1,66daf5bc87ab4c7ab1be8217,2024-09-06_14h38.19.914,mdp,2024.2.1,Win32,20,66d7945b1baad48e845df3ce,,,,,,,,,,,,,,,,,,,,,319.4788,319.4788,319.4821,320.3138,1,0,right,0.3069,,320.3167,320.3188,,0,,320.3221,320.3237,,0,,1,320.3238,320.3238,320.325,321.8035,0,24,24,24,1,0.6,0.4,0.8,0.2,1,0,,,,,,,,,,,,,,,,,,,,,,,,,,,,,,,,,,,,
,,6686926932e11d5550389cb1,66daf5bc87ab4c7ab1be8217,2024-09-06_14h38.19.914,mdp,2024.2.1,Win32,20,66d7945b1baad48e845df3ce,,,,,,,,,,,,,,,,,,,,,321.8047,321.8047,321.8067,323.7433,1,0,right,1.3934,,323.7462,323.7485,,1,,323.7508,323.7534,,0,,1,323.7535,323.7535,323.7556,325.2539,0,25,25,25,1,0.8,0.2,0.6,0.4,1,0,,,,,,,,,,,,,,,,,,,,,,,,,,,,,,,,,,,,
,,6686926932e11d5550389cb1,66daf5bc87ab4c7ab1be8217,2024-09-06_14h38.19.914,mdp,2024.2.1,Win32,20,66d7945b1baad48e845df3ce,,,,,,,,,,,,,,,,,,,,,325.2546,325.2547,325.257,371.2285,1,0,right,45.4576,,371.2477,371.2491,,1,,371.2502,371.2511,,1,,1,371.2512,371.2512,371.2525,372.7452,0,26,26,26,1,0.8,0.2,0.6,0.4,1,0,,,,,,,,,,,,,,,,,,,,,,,,,,,,,,,,,,,,
,,6686926932e11d5550389cb1,66daf5bc87ab4c7ab1be8217,2024-09-06_14h38.19.914,mdp,2024.2.1,Win32,20,66d7945b1baad48e845df3ce,,,,,,,,,,,,,,,,,,,,,372.7463,372.7463,372.7492,373.3786,1,1,right,0.1001,,373.381,373.3838,,0,,373.3858,373.3874,,0,,0,373.3875,373.3876,373.3893,374.8924,0,27,27,27,1,0.6,0.4,0.4,0.6,1,0,,,,,,,,,,,,,,,,,,,,,,,,,,,,,,,,,,,,
,,6686926932e11d5550389cb1,66daf5bc87ab4c7ab1be8217,2024-09-06_14h38.19.914,mdp,2024.2.1,Win32,20,66d7945b1baad48e845df3ce,,,,,,,,,,,,,,,,,,,,,374.8932,374.8933,374.896,376.0408,1,0,right,0.619,,376.0448,376.0469,,1,,376.0496,376.0522,,1,,1,376.0523,376.0523,376.0545,377.5409,0,28,28,28,1,0.6,0.4,0.4,0.6,1,0,,,,,,,,,,,,,,,,,,,,,,,,,,,,,,,,,,,,
,,6686926932e11d5550389cb1,66daf5bc87ab4c7ab1be8217,2024-09-06_14h38.19.914,mdp,2024.2.1,Win32,20,66d7945b1baad48e845df3ce,,,,,,,,,,,,,,,,,,,,,377.5425,377.5425,377.5461,378.7544,1,1,right,0.6855,,378.7567,378.7576,,0,,378.7588,378.7602,,1,,0,378.7603,378.7603,378.7614,380.2565,0,29,29,29,1,0.6,0.4,0.4,0.6,1,0,,,,,,,,,,,,,,,,,,,,,,,,,,,,,,,,,,,,
,,6686926932e11d5550389cb1,66daf5bc87ab4c7ab1be8217,2024-09-06_14h38.19.914,mdp,2024.2.1,Win32,20,66d7945b1baad48e845df3ce,,,,,,,,,,,,,,,,,,,,,380.257,380.257,380.2591,381.3046,1,0,right,0.5126,,381.3078,381.31,,0,,381.3129,381.3152,,1,,1,381.3153,381.3153,381.3177,382.82,0,30,30,30,1,0.6,0.4,0.4,0.6,1,0,,,,,,,,,,,,,,,,,,,,,,,,,,,,,,,,,,,,
,,6686926932e11d5550389cb1,66daf5bc87ab4c7ab1be8217,2024-09-06_14h38.19.914,mdp,2024.2.1,Win32,20,66d7945b1baad48e845df3ce,,,,,,,,,,,,,,,,,,,,,382.8211,382.8211,382.8256,385.3773,1,0,right,2.0257,,385.379,385.3803,,0,,385.3829,385.3846,,1,,1,385.3847,385.3847,385.386,386.8775,0,31,31,31,1,0.4,0.6,0.6,0.4,1,0,,,,,,,,,,,,,,,,,,,,,,,,,,,,,,,,,,,,
,,6686926932e11d5550389cb1,66daf5bc87ab4c7ab1be8217,2024-09-06_14h38.19.914,mdp,2024.2.1,Win32,20,66d7945b1baad48e845df3ce,,,,,,,,,,,,,,,,,,,,,386.8784,386.8784,386.8831,388.0846,1,0,right,0.641,,388.0874,388.0893,,0,,388.0923,388.0943,,1,,1,388.0944,388.0945,388.0981,389.5782,0,32,32,32,1,0.8,0.2,0.4,0.6,1,0,,,,,,,,,,,,,,,,,,,,,,,,,,,,,,,,,,,,
,,6686926932e11d5550389cb1,66daf5bc87ab4c7ab1be8217,2024-09-06_14h38.19.914,mdp,2024.2.1,Win32,20,66d7945b1baad48e845df3ce,,,,,,,,,,,,,,,,,,,,,389.579,389.579,389.5818,390.5328,1,0,right,0.4215,,390.5358,390.5383,,0,,390.541,390.5441,,0,,1,390.5442,390.5442,390.5466,392.0446,0,33,33,33,1,0.8,0.2,0.4,0.6,1,0,,,,,,,,,,,,,,,,,,,,,,,,,,,,,,,,,,,,
,,6686926932e11d5550389cb1,66daf5bc87ab4c7ab1be8217,2024-09-06_14h38.19.914,mdp,2024.2.1,Win32,20,66d7945b1baad48e845df3ce,,,,,,,,,,,,,,,,,,,,,392.0451,392.0452,392.0467,393.9034,1,1,right,1.3036,,393.905,393.9071,,1,,393.9084,393.9094,,1,,0,393.9094,393.9094,393.9105,395.4048,0,34,34,34,1,0.8,0.2,0.4,0.6,1,0,,,,,,,,,,,,,,,,,,,,,,,,,,,,,,,,,,,,
,,6686926932e11d5550389cb1,66daf5bc87ab4c7ab1be8217,2024-09-06_14h38.19.914,mdp,2024.2.1,Win32,20,66d7945b1baad48e845df3ce,,,,,,,,,,,,,,,,,,,,,395.4062,395.4062,395.4079,396.7499,1,0,right,0.8056,,396.7518,396.753,,1,,396.7542,396.7555,,1,,1,396.7557,396.7557,396.7568,398.2565,0,35,35,35,1,0.8,0.2,0.4,0.6,1,0,,,,,,,,,,,,,,,,,,,,,,,,,,,,,,,,,,,,
,,6686926932e11d5550389cb1,66daf5bc87ab4c7ab1be8217,2024-09-06_14h38.19.914,mdp,2024.2.1,Win32,20,66d7945b1baad48e845df3ce,,,,,,,,,,,,,,,,,,,,,398.2574,398.2574,398.2607,399.4389,1,0,right,0.6507,,399.4405,399.4423,,0,,399.4437,399.4455,,0,,1,399.4455,399.4455,399.4466,400.9227,0,36,36,36,1,0.4,0.6,0.6,0.4,1,0,,,,,,,,,,,,,,,,,,,,,,,,,,,,,,,,,,,,
,,6686926932e11d5550389cb1,66daf5bc87ab4c7ab1be8217,2024-09-06_14h38.19.914,mdp,2024.2.1,Win32,20,66d7945b1baad48e845df3ce,,,,,,,,,,,,,,,,,,,,,400.9232,400.9232,400.9249,402.0212,1,0,right,0.566,,402.0255,402.0279,,0,,402.0305,402.0339,,0,,1,402.0341,402.0341,402.0362,403.5448,0,37,37,37,1,0.4,0.6,0.6,0.4,1,0,,,,,,,,,,,,,,,,,,,,,,,,,,,,,,,,,,,,
,,6686926932e11d5550389cb1,66daf5bc87ab4c7ab1be8217,2024-09-06_14h38.19.914,mdp,2024.2.1,Win32,20,66d7945b1baad48e845df3ce,,,,,,,,,,,,,,,,,,,,,403.5456,403.5456,403.5494,405.0336,1,1,right,0.9687,,405.0365,405.0389,,1,,405.0426,405.0446,,0,,0,405.0447,405.0447,405.0476,406.5471,0,38,38,38,1,0.4,0.6,0.6,0.4,1,0,,,,,,,,,,,,,,,,,,,,,,,,,,,,,,,,,,,,
,,6686926932e11d5550389cb1,66daf5bc87ab4c7ab1be8217,2024-09-06_14h38.19.914,mdp,2024.2.1,Win32,20,66d7945b1baad48e845df3ce,,,,,,,,,,,,,,,,,,,,,406.5476,406.5476,406.5493,407.5906,1,0,right,0.5155,,407.5939,407.5952,,1,,407.5968,407.5978,,1,,1,407.5979,407.5979,407.5995,409.0896,0,39,39,39,1,0.6,0.4,0.4,0.6,1,0,,,,,,,,,,,,,,,,,,,,,,,,,,,,,,,,,,,,
,,6686926932e11d5550389cb1,66daf5bc87ab4c7ab1be8217,2024-09-06_14h38.19.914,mdp,2024.2.1,Win32,20,66d7945b1baad48e845df3ce,,,,,,,,,,,,,,,,,,,,,409.0904,409.0904,409.0964,410.5122,1,1,right,0.887,,410.5136,410.5146,,1,,410.5155,410.5164,,1,,0,410.5164,410.5164,410.5173,411.9936,0,40,40,40,1,0.6,0.4,0.4,0.6,1,0,,,,,,,,,,,,,,,,,,,,,,,,,,,,,,,,,,,,
,,6686926932e11d5550389cb1,66daf5bc87ab4c7ab1be8217,2024-09-06_14h38.19.914,mdp,2024.2.1,Win32,20,66d7945b1baad48e845df3ce,,,,,,,,,,,,,,,,,,,,,411.994,411.994,411.9955,413.0598,1,1,right,0.5512,,413.0643,413.0659,,1,,413.0683,413.0699,,1,,0,413.0701,413.0701,413.0725,414.5867,0,41,41,41,1,0.6,0.4,0.4,0.6,1,0,,,,,,,,,,,,,,,,,,,,,,,,,,,,,,,,,,,,
,,6686926932e11d5550389cb1,66daf5bc87ab4c7ab1be8217,2024-09-06_14h38.19.914,mdp,2024.2.1,Win32,20,66d7945b1baad48e845df3ce,,,,,,,,,,,,,,,,,,,,,414.5871,414.5871,414.5887,415.6068,1,0,right,0.4318,,415.6105,415.6146,,0,,415.618,415.6212,,1,,1,415.6215,415.6215,415.624,417.1326,0,42,42,42,1,0.2,0.8,0.6,0.4,1,0,,,,,,,,,,,,,,,,,,,,,,,,,,,,,,,,,,,,
,,6686926932e11d5550389cb1,66daf5bc87ab4c7ab1be8217,2024-09-06_14h38.19.914,mdp,2024.2.1,Win32,20,66d7945b1baad48e845df3ce,,,,,,,,,,,,,,,,,,,,,417.1335,417.1335,417.1351,418.679,1,0,right,1.0143,,418.6809,418.6834,,0,,418.6848,418.686,,1,,1,418.6861,418.6861,418.6872,420.1719,0,43,43,43,1,0.2,0.8,0.6,0.4,1,0,,,,,,,,,,,,,,,,,,,,,,,,,,,,,,,,,,,,
,,6686926932e11d5550389cb1,66daf5bc87ab4c7ab1be8217,2024-09-06_14h38.19.914,mdp,2024.2.1,Win32,20,66d7945b1baad48e845df3ce,,,,,,,,,,,,,,,,,,,,,420.173,420.173,420.1745,421.1675,1,0,right,0.4669,,421.1697,421.1707,,1,,421.1719,421.1731,,0,,1,421.1731,421.1731,421.1741,422.6656,0,44,44,44,1,0.2,0.8,0.6,0.4,1,0,,,,,,,,,,,,,,,,,,,,,,,,,,,,,,,,,,,,
,,6686926932e11d5550389cb1,66daf5bc87ab4c7ab1be8217,2024-09-06_14h38.19.914,mdp,2024.2.1,Win32,20,66d7945b1baad48e845df3ce,,,,,,,,,,,,,,,,,,,,,422.6664,422.6665,422.6693,424.7826,1,1,right,1.5808,,424.7853,424.7872,,1,,424.7896,424.7937,,1,,0,424.7938,424.7938,424.7956,426.2815,0,45,45,45,1,0.8,0.2,0.2,0.8,1,0,,,,,,,,,,,,,,,,,,,,,,,,,,,,,,,,,,,,
,,6686926932e11d5550389cb1,66daf5bc87ab4c7ab1be8217,2024-09-06_14h38.19.914,mdp,2024.2.1,Win32,20,66d7945b1baad48e845df3ce,,,,,,,,,,,,,,,,,,,,,426.2824,426.2824,426.2842,427.9091,1,1,right,1.0939,,427.914,427.9155,,1,,427.9172,427.9186,,1,,0,427.9188,427.9188,427.9206,429.4266,0,46,46,46,1,0.8,0.2,0.2,0.8,1,0,,,,,,,,,,,,,,,,,,,,,,,,,,,,,,,,,,,,
,,6686926932e11d5550389cb1,66daf5bc87ab4c7ab1be8217,2024-09-06_14h38.19.914,mdp,2024.2.1,Win32,20,66d7945b1baad48e845df3ce,,,,,,,,,,,,,,,,,,,,,429.427,429.427,429.4285,430.422,1,1,right,0.4742,,430.4243,430.4268,,1,,430.4303,430.4339,,1,,0,430.434,430.434,430.4358,431.9344,0,47,47,47,1,0.8,0.2,0.2,0.8,1,0,,,,,,,,,,,,,,,,,,,,,,,,,,,,,,,,,,,,
,,6686926932e11d5550389cb1,66daf5bc87ab4c7ab1be8217,2024-09-06_14h38.19.914,mdp,2024.2.1,Win32,20,66d7945b1baad48e845df3ce,,,,,,,,,,,,,,,,,,,,,431.9348,431.9348,431.9364,433.7681,1,1,right,1.3066,,433.7724,433.7755,,0,,433.7779,433.7806,,1,,0,433.7808,433.7809,433.7834,435.272,0,48,48,48,1,0.8,0.2,0.2,0.8,1,0,,,,,,,,,,,,,,,,,,,,,,,,,,,,,,,,,,,,
,,6686926932e11d5550389cb1,66daf5bc87ab4c7ab1be8217,2024-09-06_14h38.19.914,mdp,2024.2.1,Win32,20,66d7945b1baad48e845df3ce,,,,,,,,,,,,,,,,,,,,,435.2727,435.2727,435.2741,437.536,1,0,right,1.7207,,437.5397,437.544,,0,,437.5465,437.5499,,0,,1,437.5501,437.5501,437.5523,439.0461,0,49,49,49,1,0.4,0.6,0.8,0.2,1,0,,,,,,,,,,,,,,,,,,,,,,,,,,,,,,,,,,,,
,,6686926932e11d5550389cb1,66daf5bc87ab4c7ab1be8217,2024-09-06_14h38.19.914,mdp,2024.2.1,Win32,20,66d7945b1baad48e845df3ce,,,,,,,,,,,,,,,,,,,,,,,,,,,,,,,,,,,,,,,,,,,,,,,,,,,,,,,,439.048,499.6932,0,0,0,3,1,imgs/rabbit.png,imgs/squirrel.png,imgs/lion.png,imgs/goat.png,imgs/cat.png,,,,,,,,,,,,,,,,,,,,,,,,
,,6686926932e11d5550389cb1,66daf5bc87ab4c7ab1be8217,2024-09-06_14h38.19.914,mdp,2024.2.1,Win32,20,66d7945b1baad48e845df3ce,,,,,,,,,,,,,,2,seqs/st2seq29.csv,499.7455,504.5915,space,4.2717,,504.6167,504.6169,504.6186,507.3047,1,1,right,2.1237,,507.308,508.4,1,0,right,508.4042,508.4064,,0,,1,508.4065,508.4066,508.409,509.8991,0,0,0,0,1,0.6,0.4,0.4,0.6,,,,,,,,,,,,,,,0.551,,0.6,0.4,0.6,0.4,0.8,0.2,0.6,0.4,1,0,,,,,,,,,,,,
,,6686926932e11d5550389cb1,66daf5bc87ab4c7ab1be8217,2024-09-06_14h38.19.914,mdp,2024.2.1,Win32,20,66d7945b1baad48e845df3ce,,,,,,,,,,,,,,,,,,,,,509.9002,509.9002,509.9037,510.9514,1,1,right,0.5167,,510.9545,512.3948,1,1,right,512.3975,512.3997,,1,,0,512.3998,512.3998,512.4018,513.8945,0,1,1,1,1,0.6,0.4,0.4,0.6,,,,,,,,,,,,,,,0.913,,0.6,0.4,0.6,0.4,0.8,0.2,0.6,0.4,1,0,,,,,,,,,,,,
,,6686926932e11d5550389cb1,66daf5bc87ab4c7ab1be8217,2024-09-06_14h38.19.914,mdp,2024.2.1,Win32,20,66d7945b1baad48e845df3ce,,,,,,,,,,,,,,,,,,,,,513.8955,513.8955,513.898,514.7443,1,1,right,0.3301,,514.7454,517.2256,1,1,right,517.2285,517.2312,,1,,0,517.2314,517.2314,517.2351,518.725,0,2,2,2,1,0.6,0.4,0.4,0.6,,,,,,,,,,,,,,,1.9629,,0.4,0.6,0.8,0.2,0.8,0.2,0.6,0.4,1,0,,,,,,,,,,,,
,,6686926932e11d5550389cb1,66daf5bc87ab4c7ab1be8217,2024-09-06_14h38.19.914,mdp,2024.2.1,Win32,20,66d7945b1baad48e845df3ce,,,,,,,,,,,,,,,,,,,,,518.7262,518.7262,518.7287,520.1557,1,1,right,0.9137,,520.1575,521.8248,1,0,right,521.8276,521.8296,,0,,1,521.8297,521.8297,521.8317,523.3243,0,3,3,3,1,0.6,0.4,0.4,0.6,,,,,,,,,,,,,,,1.1388,,0.4,0.6,0.8,0.2,0.8,0.2,0.6,0.4,1,0,,,,,,,,,,,,
,,6686926932e11d5550389cb1,66daf5bc87ab4c7ab1be8217,2024-09-06_14h38.19.914,mdp,2024.2.1,Win32,20,66d7945b1baad48e845df3ce,,,,,,,,,,,,,,,,,,,,,523.3252,523.3252,523.328,524.1689,1,1,right,0.313,,524.1721,525.6863,1,0,right,525.6892,525.6915,,1,,1,525.6915,525.6916,525.6937,527.1947,0,4,4,4,1,0.6,0.4,0.4,0.6,,,,,,,,,,,,,,,0.9878,,0.4,0.6,0.8,0.2,0.6,0.4,0.2,0.8,1,0,,,,,,,,,,,,
,,6686926932e11d5550389cb1,66daf5bc87ab4c7ab1be8217,2024-09-06_14h38.19.914,mdp,2024.2.1,Win32,20,66d7945b1baad48e845df3ce,,,,,,,,,,,,,,,,,,,,,527.1951,527.1951,527.1963,528.015,1,0,right,0.2981,,528.0183,528.8817,1,0,right,528.8855,528.8875,,0,,1,528.8876,528.8876,528.8899,530.3765,0,5,5,5,1,0.6,0.4,0.4,0.6,,,,,,,,,,,,,,,0.3173,,0.4,0.6,0.8,0.2,0.4,0.6,0.6,0.4,1,0,,,,,,,,,,,,
,,6686926932e11d5550389cb1,66daf5bc87ab4c7ab1be8217,2024-09-06_14h38.19.914,mdp,2024.2.1,Win32,20,66d7945b1baad48e845df3ce,,,,,,,,,,,,,,,,,,,,,530.3776,530.3776,530.3815,531.3326,1,1,right,0.4399,,531.3352,532.845,1,1,right,532.8489,532.8506,,1,,0,532.8507,532.8508,532.8534,534.3458,0,6,6,6,1,0.8,0.2,0.2,0.8,,,,,,,,,,,,,,,0.9512,,0.4,0.6,0.8,0.2,0.4,0.6,0.6,0.4,1,0,,,,,,,,,,,,
,,6686926932e11d5550389cb1,66daf5bc87ab4c7ab1be8217,2024-09-06_14h38.19.914,mdp,2024.2.1,Win32,20,66d7945b1baad48e845df3ce,,,,,,,,,,,,,,,,,,,,,534.3467,534.3467,534.3497,535.3412,1,1,right,0.4641,,535.3449,538.3148,1,1,right,538.3306,538.3317,,1,,0,538.3317,538.3317,538.333,539.8202,0,7,7,7,1,0.8,0.2,0.2,0.8,,,,,,,,,,,,,,,2.4592,,0.4,0.6,0.8,0.2,0.2,0.8,0.4,0.6,1,0,,,,,,,,,,,,
,,6686926932e11d5550389cb1,66daf5bc87ab4c7ab1be8217,2024-09-06_14h38.19.914,mdp,2024.2.1,Win32,20,66d7945b1baad48e845df3ce,,,,,,,,,,,,,,,,,,,,,539.821,539.821,539.8239,540.8441,1,1,right,0.4934,,540.8478,545.6298,1,1,right,545.659,545.6606,,1,,0,545.6607,545.6607,545.663,547.1512,0,8,8,8,1,0.8,0.2,0.2,0.8,,,,,,,,,,,,,,,4.2597,,0.8,0.2,0.6,0.4,0.2,0.8,0.4,0.6,1,0,,,,,,,,,,,,
,,6686926932e11d5550389cb1,66daf5bc87ab4c7ab1be8217,2024-09-06_14h38.19.914,mdp,2024.2.1,Win32,20,66d7945b1baad48e845df3ce,,,,,,,,,,,,,,,,,,,,,547.1516,547.1516,547.1532,547.7001,1,1,right,0.0188,,547.7031,549.15,1,1,right,549.1512,549.1521,,1,,0,549.1522,549.1522,549.1531,550.6442,0,9,9,9,1,0.8,0.2,0.2,0.8,,,,,,,,,,,,,,,0.9237,,0.8,0.2,0.6,0.4,0.2,0.8,0.4,0.6,1,0,,,,,,,,,,,,
,,6686926932e11d5550389cb1,66daf5bc87ab4c7ab1be8217,2024-09-06_14h38.19.914,mdp,2024.2.1,Win32,20,66d7945b1baad48e845df3ce,,,,,,,,,,,,,,,,,,,,,550.6451,550.6452,550.6482,551.2597,1,1,right,0.0826,,551.2627,554.9399,1,1,right,554.9597,554.9606,,1,,0,554.9606,554.9607,554.9615,556.4561,0,10,10,10,1,0.8,0.2,0.2,0.8,,,,,,,,,,,,,,,3.1614,,0.8,0.2,0.6,0.4,0.2,0.8,0.4,0.6,1,0,,,,,,,,,,,,
,,6686926932e11d5550389cb1,66daf5bc87ab4c7ab1be8217,2024-09-06_14h38.19.914,mdp,2024.2.1,Win32,20,66d7945b1baad48e845df3ce,,,,,,,,,,,,,,,,,,,,,556.4571,556.4571,556.46,559.1286,1,1,right,2.1277,,559.1328,561.2321,1,1,right,561.2347,561.2367,,1,,0,561.2368,561.2368,561.2386,562.7131,0,11,11,11,1,0.8,0.2,0.2,0.8,,,,,,,,,,,,,,,1.5828,,0.8,0.2,0.6,0.4,0.2,0.8,0.4,0.6,1,0,,,,,,,,,,,,
,,6686926932e11d5550389cb1,66daf5bc87ab4c7ab1be8217,2024-09-06_14h38.19.914,mdp,2024.2.1,Win32,20,66d7945b1baad48e845df3ce,,,,,,,,,,,,,,,,,,,,,562.7145,562.7145,562.7159,564.0345,1,1,right,0.7885,,564.0374,581.277,1,0,right,581.2986,581.3001,,0,,1,581.3002,581.3002,581.3013,582.8004,0,12,12,12,1,0.8,0.2,0.2,0.8,,,,,,,,,,,,,,,16.7166,,0.6,0.4,0.8,0.2,0.2,0.8,0.4,0.6,1,0,,,,,,,,,,,,
,,6686926932e11d5550389cb1,66daf5bc87ab4c7ab1be8217,2024-09-06_14h38.19.914,mdp,2024.2.1,Win32,20,66d7945b1baad48e845df3ce,,,,,,,,,,,,,,,,,,,,,582.8008,582.8008,582.802,583.3351,1,0,right,0.0006,,583.3364,584.556,1,1,right,584.5576,584.5587,,0,,0,584.5588,584.5588,584.5599,586.1218,0,13,13,13,1,0.8,0.2,0.2,0.8,,,,,,,,,,,,,,,0.6541,,0.6,0.4,0.8,0.2,0.2,0.8,0.4,0.6,1,0,,,,,,,,,,,,
,,6686926932e11d5550389cb1,66daf5bc87ab4c7ab1be8217,2024-09-06_14h38.19.914,mdp,2024.2.1,Win32,20,66d7945b1baad48e845df3ce,,,,,,,,,,,,,,,,,,,,,586.1234,586.1234,586.1252,587.2147,1,1,right,0.5666,,587.2161,589.2328,1,1,right,589.2352,589.2365,,0,,0,589.2366,589.2366,589.2379,590.7595,0,14,14,14,1,0.8,0.2,0.2,0.8,,,,,,,,,,,,,,,1.4127,,0.6,0.4,0.8,0.2,0.2,0.8,0.4,0.6,1,0,,,,,,,,,,,,
,,6686926932e11d5550389cb1,66daf5bc87ab4c7ab1be8217,2024-09-06_14h38.19.914,mdp,2024.2.1,Win32,20,66d7945b1baad48e845df3ce,,,,,,,,,,,,,,,,,,,,,590.7604,590.7604,590.7644,591.5886,1,0,right,0.3071,,591.5905,593.1621,1,0,right,593.1647,593.1657,,0,,1,593.1657,593.1657,593.1669,594.6692,0,15,15,15,1,0.8,0.2,0.2,0.8,,,,,,,,,,,,,,,1.0201,,0.6,0.4,0.8,0.2,0.6,0.4,0.2,0.8,1,0,,,,,,,,,,,,
,,6686926932e11d5550389cb1,66daf5bc87ab4c7ab1be8217,2024-09-06_14h38.19.914,mdp,2024.2.1,Win32,20,66d7945b1baad48e845df3ce,,,,,,,,,,,,,,,,,,,,,594.6714,594.6715,594.675,595.487,1,1,right,0.2856,,595.492,596.992,1,0,right,596.9963,596.9982,,1,,1,596.9983,596.9984,597.001,598.5078,0,16,16,16,1,0.8,0.2,0.2,0.8,,,,,,,,,,,,,,,0.953,,0.2,0.8,0.6,0.4,0.6,0.4,0.2,0.8,1,0,,,,,,,,,,,,
,,6686926932e11d5550389cb1,66daf5bc87ab4c7ab1be8217,2024-09-06_14h38.19.914,mdp,2024.2.1,Win32,20,66d7945b1baad48e845df3ce,,,,,,,,,,,,,,,,,,,,,598.5083,598.5083,598.51,599.6424,1,1,right,0.5978,,599.6444,602.0501,1,1,right,602.0517,602.0529,,1,,0,602.0529,602.0529,602.0559,603.5509,0,17,17,17,1,0.8,0.2,0.2,0.8,,,,,,,,,,,,,,,1.8812,,0.2,0.8,0.6,0.4,0.6,0.4,0.2,0.8,1,0,,,,,,,,,,,,
,,6686926932e11d5550389cb1,66daf5bc87ab4c7ab1be8217,2024-09-06_14h38.19.914,mdp,2024.2.1,Win32,20,66d7945b1baad48e845df3ce,,,,,,,,,,,,,,,,,,,,,603.5515,603.5515,603.5535,604.9741,1,1,right,0.8656,,604.9767,626.3115,1,1,right,626.3357,626.3373,,1,,0,626.3375,626.3375,626.3391,627.8343,0,18,18,18,1,0.8,0.2,0.2,0.8,,,,,,,,,,,,,,,20.7836,,0.2,0.8,0.6,0.4,0.6,0.4,0.2,0.8,1,0,,,,,,,,,,,,
,,6686926932e11d5550389cb1,66daf5bc87ab4c7ab1be8217,2024-09-06_14h38.19.914,mdp,2024.2.1,Win32,20,66d7945b1baad48e845df3ce,,,,,,,,,,,,,,,,,,,,,627.8347,627.8347,627.836,628.7246,1,1,right,0.3451,,628.7276,629.4967,1,1,right,629.4984,629.4993,,0,,0,629.4994,629.4994,629.5004,630.9918,0,19,19,19,1,0.8,0.2,0.2,0.8,,,,,,,,,,,,,,,0.2236,,0.2,0.8,0.6,0.4,0.6,0.4,0.2,0.8,1,0,,,,,,,,,,,,
,,6686926932e11d5550389cb1,66daf5bc87ab4c7ab1be8217,2024-09-06_14h38.19.914,mdp,2024.2.1,Win32,20,66d7945b1baad48e845df3ce,,,,,,,,,,,,,,,,,,,,,630.9922,630.9922,630.9939,631.721,1,1,right,0.1932,,631.7247,632.5541,1,1,right,632.5576,632.5604,,0,,0,632.5605,632.5605,632.5632,634.0697,0,20,20,20,1,0.8,0.2,0.2,0.8,,,,,,,,,,,,,,,0.2995,,0.2,0.8,0.6,0.4,0.4,0.6,0.8,0.2,1,0,,,,,,,,,,,,
,,6686926932e11d5550389cb1,66daf5bc87ab4c7ab1be8217,2024-09-06_14h38.19.914,mdp,2024.2.1,Win32,20,66d7945b1baad48e845df3ce,,,,,,,,,,,,,,,,,,,,,634.0705,634.0706,634.074,634.8704,1,1,right,0.2629,,634.8742,636.0276,1,0,right,636.0289,636.0301,,0,,1,636.0302,636.0302,636.0313,637.5213,0,21,21,21,1,0.8,0.2,0.2,0.8,,,,,,,,,,,,,,,0.633,,0.2,0.8,0.6,0.4,0.4,0.6,0.8,0.2,1,0,,,,,,,,,,,,
,,6686926932e11d5550389cb1,66daf5bc87ab4c7ab1be8217,2024-09-06_14h38.19.914,mdp,2024.2.1,Win32,20,66d7945b1baad48e845df3ce,,,,,,,,,,,,,,,,,,,,,637.5219,637.5219,637.5237,638.3848,1,1,right,0.3414,,638.3865,639.462,1,0,right,639.4642,639.4653,,0,,1,639.4654,639.4654,639.4665,640.9624,0,22,22,22,1,0.8,0.2,0.2,0.8,,,,,,,,,,,,,,,0.5485,,0.2,0.8,0.6,0.4,0.4,0.6,0.8,0.2,1,0,,,,,,,,,,,,
,,6686926932e11d5550389cb1,66daf5bc87ab4c7ab1be8217,2024-09-06_14h38.19.914,mdp,2024.2.1,Win32,20,66d7945b1baad48e845df3ce,,,,,,,,,,,,,,,,,,,,,640.9641,640.9641,640.9675,641.8444,1,1,right,0.3426,,641.8468,643.9212,1,1,right,643.925,643.9269,,0,,0,643.9271,643.9271,643.9299,645.4235,0,23,23,23,1,0.8,0.2,0.2,0.8,,,,,,,,,,,,,,,1.5527,,0.2,0.8,0.6,0.4,0.4,0.6,0.8,0.2,1,0,,,,,,,,,,,,
,,6686926932e11d5550389cb1,66daf5bc87ab4c7ab1be8217,2024-09-06_14h38.19.914,mdp,2024.2.1,Win32,20,66d7945b1baad48e845df3ce,,,,,,,,,,,,,,,,,,,,,645.4244,645.4244,645.427,646.5187,1,0,right,0.5555,,646.5214,649.0413,1,0,right,649.0772,649.0789,,0,,1,649.079,649.079,649.0812,650.5703,0,24,24,24,1,0.4,0.6,0.4,0.6,,,,,,,,,,,,,,,1.9731,,0.2,0.8,0.6,0.4,0.4,0.6,0.8,0.2,1,0,,,,,,,,,,,,
,,6686926932e11d5550389cb1,66daf5bc87ab4c7ab1be8217,2024-09-06_14h38.19.914,mdp,2024.2.1,Win32,20,66d7945b1baad48e845df3ce,,,,,,,,,,,,,,,,,,,,,650.5714,650.5714,650.5744,651.4517,1,0,right,0.3549,,651.4544,653.0053,1,0,right,653.0085,653.01,,0,,1,653.0101,653.0101,653.012,654.4991,0,25,25,25,1,0.2,0.8,0.8,0.2,,,,,,,,,,,,,,,1.0223,,0.2,0.8,0.6,0.4,0.4,0.6,0.8,0.2,1,0,,,,,,,,,,,,
,,6686926932e11d5550389cb1,66daf5bc87ab4c7ab1be8217,2024-09-06_14h38.19.914,mdp,2024.2.1,Win32,20,66d7945b1baad48e845df3ce,,,,,,,,,,,,,,,,,,,,,654.4997,654.4997,654.5011,739.3309,1,1,right,84.2979,0.0003,739.3512,746.5618,1,1,right,746.5793,746.5805,,1,,0,746.5806,746.5806,746.5817,748.0789,0,26,26,26,1,0.4,0.6,0.4,0.6,,,,,,,,,,,,,,,6.6477,0.0004,0.2,0.8,0.6,0.4,0.4,0.6,0.8,0.2,1,0,,,,,,,,,,,,
,,6686926932e11d5550389cb1,66daf5bc87ab4c7ab1be8217,2024-09-06_14h38.19.914,mdp,2024.2.1,Win32,20,66d7945b1baad48e845df3ce,,,,,,,,,,,,,,,,,,,,,748.0794,748.0794,748.0808,764.92,1,1,right,16.2978,,764.9459,766.789,1,0,right,766.7904,766.7914,,0,,1,766.7914,766.7914,766.7927,768.2703,0,27,27,27,1,0.4,0.6,0.4,0.6,,,,,,,,,,,,,,,1.2379,,0.2,0.8,0.6,0.4,0.4,0.6,0.8,0.2,1,0,,,,,,,,,,,,
,,6686926932e11d5550389cb1,66daf5bc87ab4c7ab1be8217,2024-09-06_14h38.19.914,mdp,2024.2.1,Win32,20,66d7945b1baad48e845df3ce,,,,,,,,,,,,,,,,,,,,,768.2708,768.2708,768.2726,768.8211,1,1,right,0.0008,,768.8235,770.4291,1,0,right,770.4311,770.4322,,0,,1,770.4322,770.4322,770.4341,771.9291,0,28,28,28,1,0.4,0.6,0.4,0.6,,,,,,,,,,,,,,,1.0964,,0.2,0.8,0.6,0.4,0.4,0.6,0.8,0.2,1,0,,,,,,,,,,,,
,,6686926932e11d5550389cb1,66daf5bc87ab4c7ab1be8217,2024-09-06_14h38.19.914,mdp,2024.2.1,Win32,20,66d7945b1baad48e845df3ce,,,,,,,,,,,,,,,,,,,,,771.9297,771.9297,771.9311,772.5557,1,0,right,0.0975,,772.5577,773.4662,1,0,right,773.4706,773.4742,,1,,1,773.4744,773.4745,773.4776,774.9679,0,29,29,29,1,0.4,0.6,0.4,0.6,,,,,,,,,,,,,,,0.3298,,0.2,0.8,0.6,0.4,0.4,0.6,0.8,0.2,1,0,,,,,,,,,,,,
,,6686926932e11d5550389cb1,66daf5bc87ab4c7ab1be8217,2024-09-06_14h38.19.914,mdp,2024.2.1,Win32,20,66d7945b1baad48e845df3ce,,,,,,,,,,,,,,,,,,,,,774.9692,774.9692,774.9719,776.3816,1,1,right,0.8802,,776.3839,777.398,1,1,right,777.4009,777.4028,,0,,0,777.4029,777.4036,777.4059,778.8949,0,30,30,30,1,0.4,0.6,0.4,0.6,,,,,,,,,,,,,,,0.4677,,0.2,0.8,0.6,0.4,0.4,0.6,0.8,0.2,1,0,,,,,,,,,,,,
,,6686926932e11d5550389cb1,66daf5bc87ab4c7ab1be8217,2024-09-06_14h38.19.914,mdp,2024.2.1,Win32,20,66d7945b1baad48e845df3ce,,,,,,,,,,,,,,,,,,,,,778.8953,778.8953,778.8972,780.4315,1,0,right,1.0095,,780.4492,781.3723,1,0,right,781.3747,781.3755,,0,,1,781.3757,781.3757,781.377,782.8743,0,31,31,31,1,0.4,0.6,0.4,0.6,,,,,,,,,,,,,,,0.3964,,0.2,0.8,0.6,0.4,0.4,0.6,0.8,0.2,1,0,,,,,,,,,,,,
,,6686926932e11d5550389cb1,66daf5bc87ab4c7ab1be8217,2024-09-06_14h38.19.914,mdp,2024.2.1,Win32,20,66d7945b1baad48e845df3ce,,,,,,,,,,,,,,,,,,,,,782.875,782.875,782.8777,784.2594,1,1,right,0.8528,,784.2615,785.4401,1,0,right,785.4428,785.445,,1,,1,785.4451,785.4452,785.4478,786.9306,0,32,32,32,1,0.4,0.6,0.4,0.6,,,,,,,,,,,,,,,0.6339,,0.2,0.8,0.6,0.4,0.4,0.6,0.8,0.2,1,0,,,,,,,,,,,,
,,6686926932e11d5550389cb1,66daf5bc87ab4c7ab1be8217,2024-09-06_14h38.19.914,mdp,2024.2.1,Win32,20,66d7945b1baad48e845df3ce,,,,,,,,,,,,,,,,,,,,,786.9312,786.9312,786.9328,787.7755,1,1,right,0.2967,,787.779,788.4073,1,0,right,788.4088,788.4103,,0,,1,788.4103,788.4103,788.4118,789.9027,0,33,33,33,1,0.4,0.6,0.4,0.6,,,,,,,,,,,,,,,0.1007,,0.2,0.8,0.6,0.4,0.4,0.6,0.8,0.2,1,0,,,,,,,,,,,,
,,6686926932e11d5550389cb1,66daf5bc87ab4c7ab1be8217,2024-09-06_14h38.19.914,mdp,2024.2.1,Win32,20,66d7945b1baad48e845df3ce,,,,,,,,,,,,,,,,,,,,,789.9036,789.9036,789.9054,790.7357,1,0,right,0.2958,,790.7371,791.3862,1,0,right,791.3895,791.3922,,0,,1,791.3923,791.3923,791.3961,792.8847,0,34,34,34,1,0.4,0.6,0.4,0.6,,,,,,,,,,,,,,,0.1028,,0.2,0.8,0.6,0.4,0.4,0.6,0.8,0.2,1,0,,,,,,,,,,,,
,,6686926932e11d5550389cb1,66daf5bc87ab4c7ab1be8217,2024-09-06_14h38.19.914,mdp,2024.2.1,Win32,20,66d7945b1baad48e845df3ce,,,,,,,,,,,,,,,,,,,,,792.8853,792.8853,792.8867,793.7173,1,1,right,0.305,,793.7201,794.3704,1,0,right,794.3723,794.3735,,1,,1,794.3736,794.3736,794.3747,795.8653,0,35,35,35,1,0.4,0.6,0.4,0.6,,,,,,,,,,,,,,,0.1029,,0.2,0.8,0.6,0.4,0.4,0.6,0.8,0.2,1,0,,,,,,,,,,,,
,,6686926932e11d5550389cb1,66daf5bc87ab4c7ab1be8217,2024-09-06_14h38.19.914,mdp,2024.2.1,Win32,20,66d7945b1baad48e845df3ce,,,,,,,,,,,,,,,,,,,,,795.8658,795.8658,795.8673,796.733,1,1,right,0.3368,,796.7359,797.3614,1,1,right,797.3645,797.3666,,0,,0,797.3668,797.3668,797.369,798.8758,0,36,36,36,1,0.4,0.6,0.4,0.6,,,,,,,,,,,,,,,0.0924,,0.2,0.8,0.6,0.4,0.4,0.6,0.8,0.2,1,0,,,,,,,,,,,,
,,6686926932e11d5550389cb1,66daf5bc87ab4c7ab1be8217,2024-09-06_14h38.19.914,mdp,2024.2.1,Win32,20,66d7945b1baad48e845df3ce,,,,,,,,,,,,,,,,,,,,,798.8777,798.8778,798.8821,799.7,1,1,right,0.2867,,799.7028,800.3524,1,1,right,800.3542,800.3554,,1,,0,800.3554,800.3554,800.3565,801.8589,0,37,37,37,1,0.4,0.6,0.4,0.6,,,,,,,,,,,,,,,0.1072,,0.2,0.8,0.6,0.4,0.4,0.6,0.8,0.2,1,0,,,,,,,,,,,,
,,6686926932e11d5550389cb1,66daf5bc87ab4c7ab1be8217,2024-09-06_14h38.19.914,mdp,2024.2.1,Win32,20,66d7945b1baad48e845df3ce,,,,,,,,,,,,,,,,,,,,,801.8597,801.8597,801.8626,802.7139,1,1,right,0.3272,,802.7176,803.3431,1,1,right,803.3468,803.3486,,0,,0,803.3488,803.3488,803.3507,804.8369,0,38,38,38,1,0.4,0.6,0.4,0.6,,,,,,,,,,,,,,,0.0831,,0.4,0.6,0.4,0.6,0.4,0.6,0.8,0.2,1,0,,,,,,,,,,,,
,,6686926932e11d5550389cb1,66daf5bc87ab4c7ab1be8217,2024-09-06_14h38.19.914,mdp,2024.2.1,Win32,20,66d7945b1baad48e845df3ce,,,,,,,,,,,,,,,,,,,,,804.8377,804.8377,804.8403,805.7202,1,1,right,0.3451,,805.7229,806.3371,1,0,right,806.3398,806.3421,,0,,1,806.3423,806.3423,806.3453,807.8348,0,39,39,39,1,0.4,0.6,0.4,0.6,,,,,,,,,,,,,,,0.0912,,0.4,0.6,0.4,0.6,0.4,0.6,0.8,0.2,1,0,,,,,,,,,,,,
,,6686926932e11d5550389cb1,66daf5bc87ab4c7ab1be8217,2024-09-06_14h38.19.914,mdp,2024.2.1,Win32,20,66d7945b1baad48e845df3ce,,,,,,,,,,,,,,,,,,,,,807.8358,807.8358,807.8385,808.3547,1,1,right,0.0014,,808.3564,809.267,1,0,right,809.2702,809.2738,,0,,1,809.2739,809.2739,809.2763,810.7855,0,40,40,40,1,0.4,0.6,0.4,0.6,,,,,,,,,,,,,,,0.3804,,0.4,0.6,0.4,0.6,0.4,0.6,0.8,0.2,1,0,,,,,,,,,,,,
,,6686926932e11d5550389cb1,66daf5bc87ab4c7ab1be8217,2024-09-06_14h38.19.914,mdp,2024.2.1,Win32,20,66d7945b1baad48e845df3ce,,,,,,,,,,,,,,,,,,,,,810.786,810.786,810.7878,811.3696,1,0,right,0.0483,,811.3722,812.2683,1,0,right,812.271,812.2735,,1,,1,812.2737,812.2737,812.2758,813.7204,0,41,41,41,1,0.2,0.8,0.6,0.4,,,,,,,,,,,,,,,0.3503,,0.4,0.6,0.4,0.6,0.4,0.6,0.8,0.2,1,0,,,,,,,,,,,,
,,6686926932e11d5550389cb1,66daf5bc87ab4c7ab1be8217,2024-09-06_14h38.19.914,mdp,2024.2.1,Win32,20,66d7945b1baad48e845df3ce,,,,,,,,,,,,,,,,,,,,,813.7214,813.7214,813.7258,814.27,1,0,right,0.0009,,814.2716,815.2364,1,0,right,815.2378,815.2387,,1,,1,815.2388,815.2388,815.2397,816.7369,0,42,42,42,1,0.2,0.8,0.6,0.4,,,,,,,,,,,,,,,0.4142,,0.4,0.6,0.4,0.6,0.4,0.6,0.8,0.2,1,0,,,,,,,,,,,,
,,6686926932e11d5550389cb1,66daf5bc87ab4c7ab1be8217,2024-09-06_14h38.19.914,mdp,2024.2.1,Win32,20,66d7945b1baad48e845df3ce,,,,,,,,,,,,,,,,,,,,,816.7377,816.7377,816.7391,817.3596,1,0,right,0.0907,,817.3626,818.2443,1,1,right,818.2464,818.2474,,0,,0,818.2474,818.2475,818.2488,819.756,0,43,43,43,1,0.2,0.8,0.6,0.4,,,,,,,,,,,,,,,0.3628,,0.4,0.6,0.4,0.6,0.8,0.2,0.6,0.4,1,0,,,,,,,,,,,,
,,6686926932e11d5550389cb1,66daf5bc87ab4c7ab1be8217,2024-09-06_14h38.19.914,mdp,2024.2.1,Win32,20,66d7945b1baad48e845df3ce,,,,,,,,,,,,,,,,,,,,,819.7567,819.7568,819.7596,820.7165,1,1,right,0.4371,,820.7192,821.3496,1,0,right,821.3538,821.3563,,0,,1,821.3566,821.3566,821.3593,822.8406,0,44,44,44,1,0.2,0.8,0.6,0.4,,,,,,,,,,,,,,,0.0715,,0.2,0.8,0.6,0.4,0.8,0.2,0.6,0.4,1,0,,,,,,,,,,,,
,,6686926932e11d5550389cb1,66daf5bc87ab4c7ab1be8217,2024-09-06_14h38.19.914,mdp,2024.2.1,Win32,20,66d7945b1baad48e845df3ce,,,,,,,,,,,,,,,,,,,,,822.8414,822.8414,822.8445,823.7115,1,0,right,0.3252,,823.7148,824.7405,1,0,right,824.7422,824.7439,,0,,1,824.7439,824.7439,824.7451,826.2395,0,45,45,45,1,0.2,0.8,0.6,0.4,,,,,,,,,,,,,,,0.4693,,0.2,0.8,0.6,0.4,0.8,0.2,0.6,0.4,1,0,,,,,,,,,,,,
,,6686926932e11d5550389cb1,66daf5bc87ab4c7ab1be8217,2024-09-06_14h38.19.914,mdp,2024.2.1,Win32,20,66d7945b1baad48e845df3ce,,,,,,,,,,,,,,,,,,,,,826.2404,826.2404,826.2449,827.1868,1,0,right,0.4155,,827.1886,828.2395,1,1,right,828.2434,828.2451,,0,,0,828.2452,828.2452,828.2473,829.7407,0,46,46,46,1,0.2,0.8,0.6,0.4,,,,,,,,,,,,,,,0.4839,,0.2,0.8,0.6,0.4,0.8,0.2,0.6,0.4,1,0,,,,,,,,,,,,
,,6686926932e11d5550389cb1,66daf5bc87ab4c7ab1be8217,2024-09-06_14h38.19.914,mdp,2024.2.1,Win32,20,66d7945b1baad48e845df3ce,,,,,,,,,,,,,,,,,,,,,829.7412,829.7412,829.7441,830.351,1,0,right,0.0808,,830.3536,831.3229,1,1,right,831.3269,831.3291,,0,,0,831.3292,831.3292,831.3316,832.8312,0,47,47,47,1,0.2,0.8,0.6,0.4,,,,,,,,,,,,,,,0.4378,,0.2,0.8,0.6,0.4,0.8,0.2,0.6,0.4,1,0,,,,,,,,,,,,
,,6686926932e11d5550389cb1,66daf5bc87ab4c7ab1be8217,2024-09-06_14h38.19.914,mdp,2024.2.1,Win32,20,66d7945b1baad48e845df3ce,,,,,,,,,,,,,,,,,,,,,832.8325,832.8325,832.8347,836.1828,1,0,right,2.8108,,836.2035,838.0328,1,1,right,838.0348,838.0357,,0,,0,838.0358,838.0358,838.0371,839.5381,0,48,48,48,1,0.2,0.8,0.6,0.4,,,,,,,,,,,,,,,1.3202,,0.2,0.8,0.6,0.4,0.2,0.8,0.4,0.6,1,0,,,,,,,,,,,,
,,6686926932e11d5550389cb1,66daf5bc87ab4c7ab1be8217,2024-09-06_14h38.19.914,mdp,2024.2.1,Win32,20,66d7945b1baad48e845df3ce,,,,,,,,,,,,,,,,,,,,,839.5388,839.5389,839.5428,842.99,1,1,right,2.9274,,843.0286,844.8875,1,1,right,844.8901,844.8925,,1,,0,844.8926,844.8926,844.8948,846.3842,0,49,49,49,1,0.2,0.8,0.6,0.4,,,,,,,,,,,,,,,1.3531,,0.2,0.8,0.6,0.4,0.2,0.8,0.4,0.6,1,0,,,,,,,,,,,,
,,6686926932e11d5550389cb1,66daf5bc87ab4c7ab1be8217,2024-09-06_14h38.19.914,mdp,2024.2.1,Win32,20,66d7945b1baad48e845df3ce,,,,,,,,,,,,,,,,,,,,,,,,,,,,,,,,,,,,,,,,,,,,,,,,,,,,,,,,846.3844,904.8973,0,1,1,1,1,imgs/bear.png,imgs/pig.png,imgs/cat.png,imgs/elephant.png,imgs/goat.png,,,,,,,,,,,,,,,,,,,,,,,,
,,6686926932e11d5550389cb1,66daf5bc87ab4c7ab1be8217,2024-09-06_14h38.19.914,mdp,2024.2.1,Win32,20,66d7945b1baad48e845df3ce,,,,,,,,,,,,,,3,seqs/st3seq21.csv,904.9362,981.028,space,75.5676,,981.085,981.085,981.0886,983.9213,1,1,right,2.2598,,983.9255,984.6369,1,0,right,984.6398,985.2205,1,0,right,1,985.2206,985.2206,985.2219,986.7227,0,0,0,0,1,0.4,0.6,0.4,0.6,,,,,,,,,,,,,,,0.1711,,0.2,0.8,0.4,0.6,0.2,0.8,0.8,0.2,,,0.0467,,0.4,0.6,0.8,0.2,0.8,0.2,0.2,0.8,1,0
,,6686926932e11d5550389cb1,66daf5bc87ab4c7ab1be8217,2024-09-06_14h38.19.914,mdp,2024.2.1,Win32,20,66d7945b1baad48e845df3ce,,,,,,,,,,,,,,,,,,,,,986.7238,986.724,986.7267,987.4006,1,1,right,0.141,,987.4034,987.9848,1,0,right,987.988,988.5681,1,1,right,0,988.569,988.569,988.5723,990.0718,0,1,1,1,1,0.4,0.6,0.4,0.6,,,,,,,,,,,,,,,0.0617,,0.2,0.8,0.4,0.6,0.2,0.8,0.8,0.2,,,0.0355,,0.4,0.6,0.8,0.2,0.8,0.2,0.2,0.8,1,0
,,6686926932e11d5550389cb1,66daf5bc87ab4c7ab1be8217,2024-09-06_14h38.19.914,mdp,2024.2.1,Win32,20,66d7945b1baad48e845df3ce,,,,,,,,,,,,,,,,,,,,,990.0731,990.0731,990.0762,990.616,1,1,right,0.0174,,990.6193,991.1379,1,1,right,991.1419,991.7831,1,1,right,0,991.7833,991.7834,991.7869,993.2704,0,2,2,2,1,0.4,0.6,0.4,0.6,,,,,,,,,,,,,,,0.0016,,0.2,0.8,0.4,0.6,0.2,0.8,0.8,0.2,,,0.0788,,0.4,0.6,0.8,0.2,0.8,0.2,0.2,0.8,1,0
,,6686926932e11d5550389cb1,66daf5bc87ab4c7ab1be8217,2024-09-06_14h38.19.914,mdp,2024.2.1,Win32,20,66d7945b1baad48e845df3ce,,,,,,,,,,,,,,,,,,,,,993.2712,993.2712,993.2729,993.9278,1,1,right,0.1005,0.0002,993.9297,994.551,1,0,right,994.5539,995.2593,1,0,right,1,995.2594,995.2594,995.2609,996.7615,0,3,3,3,1,0.4,0.6,0.4,0.6,,,,,,,,,,,,,,,0.1016,,0.2,0.8,0.4,0.6,0.2,0.8,0.8,0.2,,,0.1501,,0.4,0.6,0.8,0.2,0.8,0.2,0.2,0.8,1,0
,,6686926932e11d5550389cb1,66daf5bc87ab4c7ab1be8217,2024-09-06_14h38.19.914,mdp,2024.2.1,Win32,20,66d7945b1baad48e845df3ce,,,,,,,,,,,,,,,,,,,,,996.7626,996.7626,996.7655,997.3092,1,1,right,0.0174,,997.3107,998.0302,1,0,right,998.0332,1001.6919,1,0,right,1,1001.692,1001.692,1001.6947,1003.1687,0,4,4,4,1,0.4,0.6,0.4,0.6,,,,,,,,,,,,,,,0.2011,,0.2,0.8,0.4,0.6,0.2,0.8,0.8,0.2,,,3.128,,0.4,0.6,0.8,0.2,0.8,0.2,0.2,0.8,1,0
,,6686926932e11d5550389cb1,66daf5bc87ab4c7ab1be8217,2024-09-06_14h38.19.914,mdp,2024.2.1,Win32,20,66d7945b1baad48e845df3ce,,,,,,,,,,,,,,,,,,,,,1003.1696,1003.1696,1003.1711,1004.1845,0,1,left,0.4792,,1004.1859,1005.3863,0,0,left,1005.3905,1006.2246,0,1,left,0,1006.2247,1006.2247,1006.2263,1007.7218,0,5,5,5,1,0.4,0.6,0.4,0.6,,,,,,,,,,,,,,,0.6829,,0.2,0.8,0.4,0.6,0.2,0.8,0.8,0.2,,,0.3053,,0.4,0.6,0.8,0.2,0.8,0.2,0.2,0.8,1,0
,,6686926932e11d5550389cb1,66daf5bc87ab4c7ab1be8217,2024-09-06_14h38.19.914,mdp,2024.2.1,Win32,20,66d7945b1baad48e845df3ce,,,,,,,,,,,,,,,,,,,,,1007.7235,1007.7235,1007.7277,1008.4709,0,0,left,0.2047,,1008.4737,1009.1966,0,1,left,1009.1985,1009.8971,0,0,left,1,1009.8978,1009.8978,1009.9009,1011.3937,0,6,6,6,1,0.4,0.6,0.4,0.6,,,,,,,,,,,,,,,0.1831,,0.2,0.8,0.4,0.6,0.2,0.8,0.8,0.2,,,0.1669,,0.4,0.6,0.8,0.2,0.8,0.2,0.2,0.8,1,0
,,6686926932e11d5550389cb1,66daf5bc87ab4c7ab1be8217,2024-09-06_14h38.19.914,mdp,2024.2.1,Win32,20,66d7945b1baad48e845df3ce,,,,,,,,,,,,,,,,,,,,,1011.3946,1011.3946,1011.3979,1012.0338,1,1,right,0.1211,,1012.0363,1012.6804,1,0,right,1012.6835,1013.2773,1,0,right,1,1013.2774,1013.2774,1013.2789,1014.7821,0,7,7,7,1,0.4,0.6,0.4,0.6,,,,,,,,,,,,,,,0.1013,,0.6,0.4,0.6,0.4,0.2,0.8,0.8,0.2,,,0.0522,,0.4,0.6,0.8,0.2,0.8,0.2,0.2,0.8,1,0
,,6686926932e11d5550389cb1,66daf5bc87ab4c7ab1be8217,2024-09-06_14h38.19.914,mdp,2024.2.1,Win32,20,66d7945b1baad48e845df3ce,,,,,,,,,,,,,,,,,,,,,1014.7831,1014.7831,1014.7856,1015.5169,1,1,right,0.1773,,1015.5191,1016.1645,1,0,right,1016.1696,1016.9917,1,0,right,1,1016.9921,1016.9921,1016.9956,1018.4827,0,8,8,8,1,0.4,0.6,0.4,0.6,,,,,,,,,,,,,,,0.1178,,0.6,0.4,0.6,0.4,0.2,0.8,0.8,0.2,,,0.3116,,0.4,0.6,0.8,0.2,0.8,0.2,0.2,0.8,1,0
,,6686926932e11d5550389cb1,66daf5bc87ab4c7ab1be8217,2024-09-06_14h38.19.914,mdp,2024.2.1,Win32,20,66d7945b1baad48e845df3ce,,,,,,,,,,,,,,,,,,,,,1018.4835,1018.4835,1018.4857,1023.3003,1,0,right,4.2799,,1023.3155,1025.0719,1,0,right,1025.0747,1025.7878,1,0,right,1,1025.7879,1025.7879,1025.7911,1027.2693,0,9,9,9,1,0.4,0.6,0.4,0.6,,,,,,,,,,,,,,,1.223,,0.6,0.4,0.6,0.4,0.2,0.8,0.8,0.2,,,0.1853,,0.4,0.6,0.8,0.2,0.8,0.2,0.2,0.8,1,0
,,6686926932e11d5550389cb1,66daf5bc87ab4c7ab1be8217,2024-09-06_14h38.19.914,mdp,2024.2.1,Win32,20,66d7945b1baad48e845df3ce,,,,,,,,,,,,,,,,,,,,,1027.2705,1027.2705,1027.2739,1028.6176,1,1,right,0.8056,,1028.6219,1029.2662,1,0,right,1029.2716,1030.0332,1,0,right,1,1030.0333,1030.0333,1030.0363,1031.526,0,10,10,10,1,0.4,0.6,0.4,0.6,,,,,,,,,,,,,,,0.1052,,0.6,0.4,0.6,0.4,0.2,0.8,0.8,0.2,,,0.2342,,0.4,0.6,0.8,0.2,0.8,0.2,0.2,0.8,1,0
,,6686926932e11d5550389cb1,66daf5bc87ab4c7ab1be8217,2024-09-06_14h38.19.914,mdp,2024.2.1,Win32,20,66d7945b1baad48e845df3ce,,,,,,,,,,,,,,,,,,,,,1031.5274,1031.5274,1031.5332,1032.2814,1,0,right,0.2341,,1032.2841,1033.0437,1,1,right,1033.0464,1033.7794,1,0,right,1,1033.7796,1033.7796,1033.7827,1035.2756,0,11,11,11,1,0.4,0.6,0.4,0.6,,,,,,,,,,,,,,,0.2174,,0.6,0.4,0.6,0.4,0.2,0.8,0.8,0.2,,,0.1877,,0.4,0.6,0.8,0.2,0.8,0.2,0.2,0.8,1,0
,,6686926932e11d5550389cb1,66daf5bc87ab4c7ab1be8217,2024-09-06_14h38.19.914,mdp,2024.2.1,Win32,20,66d7945b1baad48e845df3ce,,,,,,,,,,,,,,,,,,,,,1035.2762,1035.2762,1035.2775,1036.0608,1,0,right,0.2499,,1036.0639,1036.7928,1,0,right,1036.7958,1037.5582,1,0,right,1,1037.5583,1037.5583,1037.5614,1039.0564,0,12,12,12,1,0.4,0.6,0.4,0.6,,,,,,,,,,,,,,,0.1949,,0.6,0.4,0.6,0.4,0.2,0.8,0.8,0.2,,,0.221,,0.4,0.6,0.8,0.2,0.8,0.2,0.2,0.8,1,0
,,6686926932e11d5550389cb1,66daf5bc87ab4c7ab1be8217,2024-09-06_14h38.19.914,mdp,2024.2.1,Win32,20,66d7945b1baad48e845df3ce,,,,,,,,,,,,,,,,,,,,,1039.0573,1039.0574,1039.0601,1039.7605,1,1,right,0.1761,,1039.7631,1040.3237,1,0,right,1040.3264,1041.0438,1,0,right,1,1041.0439,1041.0439,1041.0471,1042.5428,0,13,13,13,1,0.2,0.8,0.2,0.8,,,,,,,,,,,,,,,0.03,,0.6,0.4,0.6,0.4,0.2,0.8,0.8,0.2,,,0.1853,,0.4,0.6,0.8,0.2,0.8,0.2,0.2,0.8,1,0
,,6686926932e11d5550389cb1,66daf5bc87ab4c7ab1be8217,2024-09-06_14h38.19.914,mdp,2024.2.1,Win32,20,66d7945b1baad48e845df3ce,,,,,,,,,,,,,,,,,,,,,1042.5435,1042.5435,1042.5452,1043.2136,1,1,right,0.1328,,1043.2147,1045.4665,1,1,right,1045.4681,1046.2448,1,1,right,0,1046.2449,1046.2449,1046.2464,1047.7338,0,14,14,14,1,0.2,0.8,0.2,0.8,,,,,,,,,,,,,,,1.7364,,0.6,0.4,0.6,0.4,0.2,0.8,0.8,0.2,,,0.2332,,0.4,0.6,0.8,0.2,0.8,0.2,0.2,0.8,1,0
,,6686926932e11d5550389cb1,66daf5bc87ab4c7ab1be8217,2024-09-06_14h38.19.914,mdp,2024.2.1,Win32,20,66d7945b1baad48e845df3ce,,,,,,,,,,,,,,,,,,,,,1047.7351,1047.7351,1047.7392,1049.7434,1,1,right,1.4835,,1049.7461,1050.4776,1,0,right,1050.4816,1051.4724,1,1,right,0,1051.4726,1051.4726,1051.4739,1052.9716,0,15,15,15,1,0.2,0.8,0.2,0.8,,,,,,,,,,,,,,,0.1947,,0.6,0.4,0.6,0.4,0.2,0.8,0.8,0.2,,,0.4658,,0.4,0.6,0.8,0.2,0.8,0.2,0.2,0.8,1,0
,,6686926932e11d5550389cb1,66daf5bc87ab4c7ab1be8217,2024-09-06_14h38.19.914,mdp,2024.2.1,Win32,20,66d7945b1baad48e845df3ce,,,,,,,,,,,,,,,,,,,,,1052.9727,1052.9729,1052.976,1054.1523,1,0,right,0.6469,,1054.1546,1055.1924,1,0,right,1055.194,1056.1423,1,0,right,1,1056.1424,1056.1425,1056.1458,1057.6403,0,16,16,16,1,0.2,0.8,0.2,0.8,,,,,,,,,,,,,,,0.4614,,0.6,0.4,0.6,0.4,0.2,0.8,0.8,0.2,,,0.4012,,0.4,0.6,0.8,0.2,0.8,0.2,0.2,0.8,1,0
,,6686926932e11d5550389cb1,66daf5bc87ab4c7ab1be8217,2024-09-06_14h38.19.914,mdp,2024.2.1,Win32,20,66d7945b1baad48e845df3ce,,,,,,,,,,,,,,,,,,,,,1057.6413,1057.6413,1057.6437,1058.3714,1,1,right,0.1995,,1058.3733,1059.1763,1,0,right,1059.1781,1059.8519,1,1,right,0,1059.8521,1059.8521,1059.8557,1061.3492,0,17,17,17,1,0.2,0.8,0.2,0.8,,,,,,,,,,,,,,,0.2594,,0.6,0.4,0.6,0.4,0.2,0.8,0.8,0.2,,,0.1347,,0.4,0.6,0.8,0.2,0.8,0.2,0.2,0.8,1,0
,,6686926932e11d5550389cb1,66daf5bc87ab4c7ab1be8217,2024-09-06_14h38.19.914,mdp,2024.2.1,Win32,20,66d7945b1baad48e845df3ce,,,,,,,,,,,,,,,,,,,,,1061.3504,1061.3506,1061.353,1062.0691,1,1,right,0.2023,,1062.0717,1062.6006,1,0,right,1062.6036,1063.3622,1,0,right,1,1063.3623,1063.3623,1063.3642,1064.8602,0,18,18,18,1,0.2,0.8,0.2,0.8,,,,,,,,,,,,,,,0.003,,0.6,0.4,0.6,0.4,0.2,0.8,0.8,0.2,,,0.2444,,0.6,0.4,0.6,0.4,0.8,0.2,0.2,0.8,1,0
,,6686926932e11d5550389cb1,66daf5bc87ab4c7ab1be8217,2024-09-06_14h38.19.914,mdp,2024.2.1,Win32,20,66d7945b1baad48e845df3ce,,,,,,,,,,,,,,,,,,,,,1064.8612,1064.8612,1064.8643,1065.5675,1,1,right,0.1681,,1065.5709,1066.3454,1,0,right,1066.347,1067.0503,1,0,right,1,1067.0504,1067.0504,1067.0537,1068.5478,0,19,19,19,1,0.2,0.8,0.2,0.8,,,,,,,,,,,,,,,0.2474,,0.6,0.4,0.6,0.4,0.2,0.8,0.8,0.2,,,0.1883,,0.6,0.4,0.6,0.4,0.8,0.2,0.2,0.8,1,0
,,6686926932e11d5550389cb1,66daf5bc87ab4c7ab1be8217,2024-09-06_14h38.19.914,mdp,2024.2.1,Win32,20,66d7945b1baad48e845df3ce,,,,,,,,,,,,,,,,,,,,,1068.5493,1068.5494,1068.552,1069.3092,1,0,right,0.2189,,1069.3108,1070.0438,1,0,right,1070.0464,1070.7774,1,0,right,1,1070.7775,1070.7775,1070.7808,1072.2738,0,20,20,20,1,0.2,0.8,0.2,0.8,,,,,,,,,,,,,,,0.2041,,0.6,0.4,0.6,0.4,0.2,0.8,0.8,0.2,,,0.2052,,0.6,0.4,0.6,0.4,0.8,0.2,0.2,0.8,1,0
,,6686926932e11d5550389cb1,66daf5bc87ab4c7ab1be8217,2024-09-06_14h38.19.914,mdp,2024.2.1,Win32,20,66d7945b1baad48e845df3ce,,,,,,,,,,,,,,,,,,,,,1072.2743,1072.2743,1072.2758,1072.8409,1,0,right,0.0374,,1072.844,1073.5539,1,0,right,1073.5563,1074.2695,1,1,right,0,1074.2696,1074.2696,1074.2712,1075.7713,0,21,21,21,1,0.2,0.8,0.2,0.8,,,,,,,,,,,,,,,0.1798,,0.6,0.4,0.6,0.4,0.2,0.8,0.8,0.2,,,0.1828,,0.2,0.8,0.8,0.2,0.8,0.2,0.2,0.8,1,0
,,6686926932e11d5550389cb1,66daf5bc87ab4c7ab1be8217,2024-09-06_14h38.19.914,mdp,2024.2.1,Win32,20,66d7945b1baad48e845df3ce,,,,,,,,,,,,,,,,,,,,,1075.7725,1075.7725,1075.7756,1076.5354,1,1,right,0.2353,,1076.54,1077.2682,1,0,right,1077.2697,1077.9708,1,1,right,0,1077.9711,1077.9711,1077.9746,1079.4705,0,22,22,22,1,0.2,0.8,0.2,0.8,,,,,,,,,,,,,,,0.1846,,0.6,0.4,0.6,0.4,0.2,0.8,0.8,0.2,,,0.1715,,0.2,0.8,0.8,0.2,0.8,0.2,0.2,0.8,1,0
,,6686926932e11d5550389cb1,66daf5bc87ab4c7ab1be8217,2024-09-06_14h38.19.914,mdp,2024.2.1,Win32,20,66d7945b1baad48e845df3ce,,,,,,,,,,,,,,,,,,,,,1079.4718,1079.4718,1079.4747,1080.0178,1,1,right,0.0021,,1080.0215,1080.7214,1,0,right,1080.7242,1081.2515,1,0,right,1,1081.2517,1081.2518,1081.2543,1082.7474,0,23,23,23,1,0.2,0.8,0.2,0.8,,,,,,,,,,,,,,,0.1754,,0.6,0.4,0.6,0.4,0.2,0.8,0.8,0.2,,,0.0024,,0.2,0.8,0.8,0.2,0.4,0.6,0.4,0.6,1,0
,,6686926932e11d5550389cb1,66daf5bc87ab4c7ab1be8217,2024-09-06_14h38.19.914,mdp,2024.2.1,Win32,20,66d7945b1baad48e845df3ce,,,,,,,,,,,,,,,,,,,,,1082.7483,1082.7483,1082.7514,1083.4016,1,1,right,0.124,,1083.4042,1083.9283,1,0,right,1083.9319,1084.7268,1,0,right,1,1084.7269,1084.7269,1084.7305,1086.2235,0,24,24,24,1,0.2,0.8,0.2,0.8,,,,,,,,,,,,,,,0.0015,,0.6,0.4,0.6,0.4,0.2,0.8,0.8,0.2,,,0.2613,,0.2,0.8,0.8,0.2,0.4,0.6,0.4,0.6,1,0
,,6686926932e11d5550389cb1,66daf5bc87ab4c7ab1be8217,2024-09-06_14h38.19.914,mdp,2024.2.1,Win32,20,66d7945b1baad48e845df3ce,,,,,,,,,,,,,,,,,,,,,1086.2239,1086.2239,1086.2254,1086.8941,1,1,right,0.1344,,1086.8979,1087.65,1,0,right,1087.6526,1088.189,1,0,right,1,1088.1891,1088.1891,1088.1904,1089.676,0,25,25,25,1,0.2,0.8,0.2,0.8,,,,,,,,,,,,,,,0.2388,,0.6,0.4,0.6,0.4,0.2,0.8,0.8,0.2,,,0.0009,,0.2,0.8,0.8,0.2,0.8,0.2,0.2,0.8,1,0
,,6686926932e11d5550389cb1,66daf5bc87ab4c7ab1be8217,2024-09-06_14h38.19.914,mdp,2024.2.1,Win32,20,66d7945b1baad48e845df3ce,,,,,,,,,,,,,,,,,,,,,1089.677,1089.677,1089.68,1090.3952,1,1,right,0.1912,,1090.3988,1091.0916,1,0,right,1091.0949,1091.8566,1,0,right,1,1091.8567,1091.8567,1091.859,1093.3528,0,26,26,26,1,0.2,0.8,0.2,0.8,,,,,,,,,,,,,,,0.1671,,0.6,0.4,0.6,0.4,0.2,0.8,0.8,0.2,,,0.2345,,0.2,0.8,0.8,0.2,0.8,0.2,0.2,0.8,1,0
,,6686926932e11d5550389cb1,66daf5bc87ab4c7ab1be8217,2024-09-06_14h38.19.914,mdp,2024.2.1,Win32,20,66d7945b1baad48e845df3ce,,,,,,,,,,,,,,,,,,,,,1093.3533,1093.3533,1093.355,1094.0848,1,1,right,0.1962,,1094.0876,1094.9717,1,0,right,1094.9742,1095.7071,1,0,right,1,1095.7072,1095.7072,1095.7098,1097.1992,0,27,27,27,1,0.2,0.8,0.2,0.8,,,,,,,,,,,,,,,0.3645,,0.6,0.4,0.6,0.4,0.2,0.8,0.8,0.2,,,0.1847,,0.2,0.8,0.8,0.2,0.8,0.2,0.2,0.8,1,0
,,6686926932e11d5550389cb1,66daf5bc87ab4c7ab1be8217,2024-09-06_14h38.19.914,mdp,2024.2.1,Win32,20,66d7945b1baad48e845df3ce,,,,,,,,,,,,,,,,,,,,,1097.1998,1097.1998,1097.2015,1097.8202,1,1,right,0.0876,,1097.8234,1098.5019,1,0,right,1098.5053,1099.1346,1,0,right,1,1099.1348,1099.1348,1099.1461,1100.6445,0,28,28,28,1,0.2,0.8,0.2,0.8,,,,,,,,,,,,,,,0.1563,,0.6,0.4,0.6,0.4,0.2,0.8,0.8,0.2,,,0.0945,,0.2,0.8,0.8,0.2,0.8,0.2,0.2,0.8,1,0
,,6686926932e11d5550389cb1,66daf5bc87ab4c7ab1be8217,2024-09-06_14h38.19.914,mdp,2024.2.1,Win32,20,66d7945b1baad48e845df3ce,,,,,,,,,,,,,,,,,,,,,1100.6456,1100.6456,1100.6494,1101.3688,1,1,right,0.1575,,1101.3707,1102.1601,1,0,right,1102.1618,1102.6977,1,0,right,1,1102.6978,1102.6978,1102.7004,1104.182,0,29,29,29,1,0.2,0.8,0.2,0.8,,,,,,,,,,,,,,,0.2487,,0.6,0.4,0.6,0.4,0.2,0.8,0.8,0.2,,,0.0191,,0.2,0.8,0.8,0.2,0.8,0.2,0.2,0.8,1,0
,,6686926932e11d5550389cb1,66daf5bc87ab4c7ab1be8217,2024-09-06_14h38.19.914,mdp,2024.2.1,Win32,20,66d7945b1baad48e845df3ce,,,,,,,,,,,,,,,,,,,,,1104.1824,1104.1825,1104.1839,1105.115,1,1,right,0.4033,,1105.1189,1105.8753,1,0,right,1105.8792,1106.4306,1,0,right,1,1106.4307,1106.4307,1106.4337,1107.9395,0,30,30,30,1,0.6,0.4,0.4,0.6,,,,,,,,,,,,,,,0.2294,,0.6,0.4,0.6,0.4,0.2,0.8,0.8,0.2,,,0.0374,,0.2,0.8,0.8,0.2,0.8,0.2,0.2,0.8,1,0
,,6686926932e11d5550389cb1,66daf5bc87ab4c7ab1be8217,2024-09-06_14h38.19.914,mdp,2024.2.1,Win32,20,66d7945b1baad48e845df3ce,,,,,,,,,,,,,,,,,,,,,1107.941,1107.941,1107.9434,1108.6732,1,0,right,0.202,,1108.6759,1109.4229,1,0,right,1109.4244,1110.1437,1,0,right,1,1110.1438,1110.1438,1110.147,1111.6358,0,31,31,31,1,0.6,0.4,0.4,0.6,,,,,,,,,,,,,,,0.2207,,0.6,0.4,0.6,0.4,0.2,0.8,0.8,0.2,,,0.1716,,0.2,0.8,0.8,0.2,0.8,0.2,0.2,0.8,1,0
,,6686926932e11d5550389cb1,66daf5bc87ab4c7ab1be8217,2024-09-06_14h38.19.914,mdp,2024.2.1,Win32,20,66d7945b1baad48e845df3ce,,,,,,,,,,,,,,,,,,,,,1111.637,1111.6371,1111.6401,1112.1995,1,1,right,0.0382,,1112.2008,1112.9193,1,0,right,1112.9222,1113.6675,1,0,right,1,1113.6677,1113.6677,1113.6713,1115.1575,0,32,32,32,1,0.6,0.4,0.4,0.6,,,,,,,,,,,,,,,0.184,,0.6,0.4,0.6,0.4,0.2,0.8,0.8,0.2,,,0.2188,,0.2,0.8,0.8,0.2,0.8,0.2,0.2,0.8,1,0
,,6686926932e11d5550389cb1,66daf5bc87ab4c7ab1be8217,2024-09-06_14h38.19.914,mdp,2024.2.1,Win32,20,66d7945b1baad48e845df3ce,,,,,,,,,,,,,,,,,,,,,1115.16,1115.16,1115.163,1115.7936,1,0,right,0.0995,,1115.7953,1116.5325,1,1,right,1116.536,1117.2826,1,1,right,0,1117.2827,1117.2828,1117.286,1118.7796,0,33,33,33,1,0.6,0.4,0.4,0.6,,,,,,,,,,,,,,,0.2012,,0.6,0.4,0.6,0.4,0.2,0.8,0.8,0.2,,,0.1811,,0.2,0.8,0.8,0.2,0.8,0.2,0.2,0.8,1,0
,,6686926932e11d5550389cb1,66daf5bc87ab4c7ab1be8217,2024-09-06_14h38.19.914,mdp,2024.2.1,Win32,20,66d7945b1baad48e845df3ce,,,,,,,,,,,,,,,,,,,,,1118.7805,1118.7805,1118.7834,1119.5198,1,1,right,0.2087,,1119.5217,1120.0817,1,0,right,1120.0839,1121.0305,1,1,right,0,1121.0306,1121.0306,1121.0337,1122.5303,0,34,34,34,1,0.6,0.4,0.4,0.6,,,,,,,,,,,,,,,0.0006,,0.6,0.4,0.6,0.4,0.2,0.8,0.8,0.2,,,0.4046,,0.2,0.8,0.8,0.2,0.8,0.2,0.2,0.8,1,0
,,6686926932e11d5550389cb1,66daf5bc87ab4c7ab1be8217,2024-09-06_14h38.19.914,mdp,2024.2.1,Win32,20,66d7945b1baad48e845df3ce,,,,,,,,,,,,,,,,,,,,,1122.5315,1122.5315,1122.5344,1123.4939,1,0,right,0.4361,,1123.4952,1124.2599,1,1,right,1124.2634,1125.057,1,1,right,0,1125.0573,1125.0573,1125.0606,1126.5603,0,35,35,35,1,0.6,0.4,0.4,0.6,,,,,,,,,,,,,,,0.2344,,0.6,0.4,0.6,0.4,0.2,0.8,0.8,0.2,,,0.2506,,0.2,0.8,0.8,0.2,0.8,0.2,0.2,0.8,1,0
,,6686926932e11d5550389cb1,66daf5bc87ab4c7ab1be8217,2024-09-06_14h38.19.914,mdp,2024.2.1,Win32,20,66d7945b1baad48e845df3ce,,,,,,,,,,,,,,,,,,,,,1126.5612,1126.5613,1126.5643,1127.4658,1,0,right,0.3756,,1127.4695,1128.2039,1,1,right,1128.2058,1128.9605,1,0,right,1,1128.9606,1128.9606,1128.963,1130.4521,0,36,36,36,1,0.6,0.4,0.4,0.6,,,,,,,,,,,,,,,0.1966,,0.6,0.4,0.6,0.4,0.2,0.8,0.8,0.2,,,0.2265,,0.2,0.8,0.8,0.2,0.8,0.2,0.2,0.8,1,0
,,6686926932e11d5550389cb1,66daf5bc87ab4c7ab1be8217,2024-09-06_14h38.19.914,mdp,2024.2.1,Win32,20,66d7945b1baad48e845df3ce,,,,,,,,,,,,,,,,,,,,,1130.4527,1130.4527,1130.454,1131.1815,1,1,right,0.2113,,1131.1828,1132.0867,1,0,right,1132.0926,1132.6508,1,0,right,1,1132.6509,1132.6509,1132.6545,1134.1553,0,37,37,37,1,0.6,0.4,0.4,0.6,,,,,,,,,,,,,,,0.3707,,0.6,0.4,0.6,0.4,0.2,0.8,0.8,0.2,,,0.0101,,0.2,0.8,0.8,0.2,0.8,0.2,0.2,0.8,1,0
,,6686926932e11d5550389cb1,66daf5bc87ab4c7ab1be8217,2024-09-06_14h38.19.914,mdp,2024.2.1,Win32,20,66d7945b1baad48e845df3ce,,,,,,,,,,,,,,,,,,,,,1134.1568,1134.1568,1134.1604,1134.6878,1,0,right,0.0013,,1134.6916,1135.3985,1,0,right,1135.3998,1136.1647,1,0,right,1,1136.1649,1136.1649,1136.1695,1137.643,0,38,38,38,1,0.6,0.4,0.4,0.6,,,,,,,,,,,,,,,0.1693,,0.6,0.4,0.6,0.4,0.2,0.8,0.8,0.2,,,0.2361,,0.2,0.8,0.8,0.2,0.8,0.2,0.2,0.8,1,0
,,6686926932e11d5550389cb1,66daf5bc87ab4c7ab1be8217,2024-09-06_14h38.19.914,mdp,2024.2.1,Win32,20,66d7945b1baad48e845df3ce,,,,,,,,,,,,,,,,,,,,,1137.6443,1137.6443,1137.6481,1138.4021,1,1,right,0.2326,,1138.4054,1139.1129,1,1,right,1139.116,1139.661,1,1,right,0,1139.6611,1139.6612,1139.664,1141.168,0,39,39,39,1,0.6,0.4,0.4,0.6,,,,,,,,,,,,,,,0.1735,,0.6,0.4,0.6,0.4,0.2,0.8,0.8,0.2,,,0.0024,,0.2,0.8,0.8,0.2,0.8,0.2,0.2,0.8,1,0
,,6686926932e11d5550389cb1,66daf5bc87ab4c7ab1be8217,2024-09-06_14h38.19.914,mdp,2024.2.1,Win32,20,66d7945b1baad48e845df3ce,,,,,,,,,,,,,,,,,,,,,1141.1705,1141.1705,1141.1734,1141.9115,1,1,right,0.2176,,1141.9177,1142.6617,1,0,right,1142.6648,1143.3961,1,0,right,1,1143.3962,1143.3962,1143.3977,1144.8901,0,40,40,40,1,0.6,0.4,0.4,0.6,,,,,,,,,,,,,,,0.2168,,0.6,0.4,0.6,0.4,0.2,0.8,0.8,0.2,,,0.2096,,0.2,0.8,0.8,0.2,0.8,0.2,0.2,0.8,1,0
,,6686926932e11d5550389cb1,66daf5bc87ab4c7ab1be8217,2024-09-06_14h38.19.914,mdp,2024.2.1,Win32,20,66d7945b1baad48e845df3ce,,,,,,,,,,,,,,,,,,,,,1144.8911,1144.8911,1144.8934,1145.5567,1,1,right,0.1385,,1145.5603,1146.0941,1,0,right,1146.0971,1146.8287,1,0,right,1,1146.8287,1146.8288,1146.8301,1148.3236,0,41,41,41,1,0.6,0.4,0.4,0.6,,,,,,,,,,,,,,,0.0011,,0.4,0.6,0.4,0.6,0.2,0.8,0.8,0.2,,,0.2081,,0.2,0.8,0.8,0.2,0.8,0.2,0.2,0.8,1,0
,,6686926932e11d5550389cb1,66daf5bc87ab4c7ab1be8217,2024-09-06_14h38.19.914,mdp,2024.2.1,Win32,20,66d7945b1baad48e845df3ce,,,,,,,,,,,,,,,,,,,,,1148.3242,1148.3242,1148.3259,1149.0674,1,1,right,0.214,,1149.0703,1149.8035,1,0,right,1149.8057,1150.5336,1,0,right,1,1150.5338,1150.5338,1150.5361,1152.0338,0,42,42,42,1,0.6,0.4,0.4,0.6,,,,,,,,,,,,,,,0.206,,0.4,0.6,0.4,0.6,0.2,0.8,0.8,0.2,,,0.2122,,0.2,0.8,0.8,0.2,0.8,0.2,0.2,0.8,1,0
,,6686926932e11d5550389cb1,66daf5bc87ab4c7ab1be8217,2024-09-06_14h38.19.914,mdp,2024.2.1,Win32,20,66d7945b1baad48e845df3ce,,,,,,,,,,,,,,,,,,,,,1152.035,1152.0351,1152.0395,1152.7186,1,1,right,0.1498,,1152.7214,1153.4638,1,0,right,1153.4656,1153.9955,1,0,right,1,1153.9957,1153.9957,1153.9995,1155.4985,0,43,43,43,1,0.6,0.4,0.4,0.6,,,,,,,,,,,,,,,0.2211,,0.4,0.6,0.4,0.6,0.2,0.8,0.8,0.2,,,0.0014,,0.2,0.8,0.8,0.2,0.8,0.2,0.2,0.8,1,0
,,6686926932e11d5550389cb1,66daf5bc87ab4c7ab1be8217,2024-09-06_14h38.19.914,mdp,2024.2.1,Win32,20,66d7945b1baad48e845df3ce,,,,,,,,,,,,,,,,,,,,,1155.4996,1155.4996,1155.5026,1156.2596,1,0,right,0.231,,1156.261,1156.9799,1,1,right,1156.9824,1157.6933,1,1,right,0,1157.6935,1157.6935,1157.6963,1159.1905,0,44,44,44,1,0.6,0.4,0.4,0.6,,,,,,,,,,,,,,,0.188,,0.4,0.6,0.4,0.6,0.2,0.8,0.8,0.2,,,0.168,,0.2,0.8,0.8,0.2,0.8,0.2,0.2,0.8,1,0
,,6686926932e11d5550389cb1,66daf5bc87ab4c7ab1be8217,2024-09-06_14h38.19.914,mdp,2024.2.1,Win32,20,66d7945b1baad48e845df3ce,,,,,,,,,,,,,,,,,,,,,1159.1914,1159.1915,1159.1942,1159.7114,1,1,right,0.0018,,1159.714,1160.4272,1,0,right,1160.4292,1161.1819,1,0,right,1,1161.182,1161.182,1161.1836,1162.6724,0,45,45,45,1,0.6,0.4,0.4,0.6,,,,,,,,,,,,,,,0.1715,,0.4,0.6,0.4,0.6,0.2,0.8,0.8,0.2,,,0.2104,,0.2,0.8,0.8,0.2,0.8,0.2,0.2,0.8,1,0
,,6686926932e11d5550389cb1,66daf5bc87ab4c7ab1be8217,2024-09-06_14h38.19.914,mdp,2024.2.1,Win32,20,66d7945b1baad48e845df3ce,,,,,,,,,,,,,,,,,,,,,1162.6736,1162.6736,1162.6771,1163.3878,1,0,right,0.186,,1163.3897,1163.9229,1,1,right,1163.9256,1164.6527,1,1,right,0,1164.6528,1164.6528,1164.6556,1166.1547,0,46,46,46,1,0.6,0.4,0.4,0.6,,,,,,,,,,,,,,,0.0035,,0.4,0.6,0.4,0.6,0.2,0.8,0.8,0.2,,,0.1844,,0.2,0.8,0.8,0.2,0.8,0.2,0.2,0.8,1,0
,,6686926932e11d5550389cb1,66daf5bc87ab4c7ab1be8217,2024-09-06_14h38.19.914,mdp,2024.2.1,Win32,20,66d7945b1baad48e845df3ce,,,,,,,,,,,,,,,,,,,,,1166.1561,1166.1561,1166.1595,1166.8374,1,0,right,0.1554,,1166.8429,1167.587,1,0,right,1167.5891,1168.5114,1,1,right,0,1168.5114,1168.5114,1168.5132,1170.0119,0,47,47,47,1,0.6,0.4,0.4,0.6,,,,,,,,,,,,,,,0.2132,,0.4,0.6,0.4,0.6,0.2,0.8,0.8,0.2,,,0.3807,0.0002,0.4,0.6,0.2,0.8,0.8,0.2,0.2,0.8,1,0
,,6686926932e11d5550389cb1,66daf5bc87ab4c7ab1be8217,2024-09-06_14h38.19.914,mdp,2024.2.1,Win32,20,66d7945b1baad48e845df3ce,,,,,,,,,,,,,,,,,,,,,1170.0128,1170.0128,1170.0151,1170.548,1,1,right,0.0015,,1170.5522,1171.3119,1,0,right,1171.3136,1172.0614,1,1,right,0,1172.0617,1172.0617,1172.065,1173.5516,0,48,48,48,1,0.6,0.4,0.4,0.6,,,,,,,,,,,,,,,0.2174,,0.8,0.2,0.6,0.4,0.2,0.8,0.8,0.2,,,0.2292,,0.4,0.6,0.2,0.8,0.8,0.2,0.2,0.8,1,0
,,6686926932e11d5550389cb1,66daf5bc87ab4c7ab1be8217,2024-09-06_14h38.19.914,mdp,2024.2.1,Win32,20,66d7945b1baad48e845df3ce,,,,,,,,,,,,,,,,,,,,,1173.5525,1173.5525,1173.555,1177.8879,1,0,right,3.7955,,1177.9054,1179.7055,1,0,right,1179.7091,1181.3615,1,1,right,0,1181.3616,1181.3617,1181.3646,1182.853,0,49,49,49,1,0.6,0.4,0.4,0.6,,,,,,,,,,,,,,,1.2655,,0.8,0.2,0.6,0.4,0.2,0.8,0.8,0.2,,,1.1187,,0.4,0.6,0.2,0.8,0.8,0.2,0.2,0.8,1,0
,,6686926932e11d5550389cb1,66daf5bc87ab4c7ab1be8217,2024-09-06_14h38.19.914,mdp,2024.2.1,Win32,20,66d7945b1baad48e845df3ce,,,,,,,,,,,,,,,,,,,,,,,,,,,,,,,,,,,,,,,,,,,,,,,,,,,,,,,,1182.8533,1294.6224,0,2,2,2,1,imgs/lion.png,imgs/bear.png,imgs/dog.png,imgs/cat.png,imgs/kangaroo.png,,,,,,,,,,,,,,,,,,,,,,,,
,,6686926932e11d5550389cb1,66daf5bc87ab4c7ab1be8217,2024-09-06_14h38.19.914,mdp,2024.2.1,Win32,20,66d7945b1baad48e845df3ce,,,,,,,,,,,,,,3,seqs/st3seq42.csv,1294.6452,1296.4491,space,1.267,,1296.4588,1296.4588,1296.4603,1301.6053,1,0,right,4.4322,0.0004,1301.6235,1302.2403,1,0,right,1302.2419,1302.9918,1,1,right,0,1302.9919,1302.9919,1302.9951,1304.4778,0,0,0,0,1,0.8,0.2,0.8,0.2,,,,,,,,,,,,,,,0.0739,,0.2,0.8,0.8,0.2,0.8,0.2,0.4,0.6,,,0.1831,,0.6,0.4,0.4,0.6,0.4,0.6,0.4,0.6,1,0
,,6686926932e11d5550389cb1,66daf5bc87ab4c7ab1be8217,2024-09-06_14h38.19.914,mdp,2024.2.1,Win32,20,66d7945b1baad48e845df3ce,,,,,,,,,,,,,,,,,,,,,1304.479,1304.479,1304.4816,1305.212,1,0,right,0.2068,,1305.2138,1305.7581,1,1,right,1305.7597,1306.4532,1,1,right,0,1306.4533,1306.4533,1306.4555,1307.9534,0,1,1,1,1,0.8,0.2,0.8,0.2,,,,,,,,,,,,,,,0.0243,,0.2,0.8,0.8,0.2,0.8,0.2,0.4,0.6,,,0.1121,,0.6,0.4,0.4,0.6,0.4,0.6,0.4,0.6,1,0
,,6686926932e11d5550389cb1,66daf5bc87ab4c7ab1be8217,2024-09-06_14h38.19.914,mdp,2024.2.1,Win32,20,66d7945b1baad48e845df3ce,,,,,,,,,,,,,,,,,,,,,1307.9545,1307.9545,1307.9581,1308.6724,1,0,right,0.2013,,1308.6756,1309.8701,0,1,left,1309.8731,1310.6346,0,1,left,0,1310.6347,1310.6347,1310.6362,1312.1314,0,2,2,2,1,0.8,0.2,0.8,0.2,,,,,,,,,,,,,,,0.6708,,0.2,0.8,0.8,0.2,0.8,0.2,0.4,0.6,,,0.2164,,0.6,0.4,0.4,0.6,0.4,0.6,0.4,0.6,1,0
,,6686926932e11d5550389cb1,66daf5bc87ab4c7ab1be8217,2024-09-06_14h38.19.914,mdp,2024.2.1,Win32,20,66d7945b1baad48e845df3ce,,,,,,,,,,,,,,,,,,,,,1312.1323,1312.1324,1312.1347,1312.8671,0,0,left,0.2151,,1312.8706,1313.5422,0,1,left,1313.5437,1314.0991,0,0,left,1,1314.0996,1314.0996,1314.1024,1315.5795,0,3,3,3,1,0.8,0.2,0.8,0.2,,,,,,,,,,,,,,,0.1392,,0.2,0.8,0.8,0.2,0.4,0.6,0.2,0.8,,,0.0195,,0.6,0.4,0.4,0.6,0.4,0.6,0.4,0.6,1,0
,,6686926932e11d5550389cb1,66daf5bc87ab4c7ab1be8217,2024-09-06_14h38.19.914,mdp,2024.2.1,Win32,20,66d7945b1baad48e845df3ce,,,,,,,,,,,,,,,,,,,,,1315.5804,1315.5806,1315.5834,1316.3449,0,0,left,0.2072,,1316.3464,1316.88,0,1,left,1316.8851,1317.6293,0,0,left,1,1317.6294,1317.6294,1317.631,1319.1231,0,4,4,4,1,0.8,0.2,0.8,0.2,,,,,,,,,,,,,,,0.0013,,0.2,0.8,0.8,0.2,0.4,0.6,0.2,0.8,,,0.1954,,0.6,0.4,0.4,0.6,0.4,0.6,0.4,0.6,1,0
,,6686926932e11d5550389cb1,66daf5bc87ab4c7ab1be8217,2024-09-06_14h38.19.914,mdp,2024.2.1,Win32,20,66d7945b1baad48e845df3ce,,,,,,,,,,,,,,,,,,,,,1319.124,1319.1241,1319.1276,1319.8272,0,0,left,0.1675,,1319.832,1320.6837,0,1,left,1320.6856,1321.3113,0,0,left,1,1321.3113,1321.3114,1321.3128,1322.7929,0,5,5,5,1,0.6,0.4,0.4,0.6,,,,,,,,,,,,,,,0.3266,0.0002,0.2,0.8,0.8,0.2,0.4,0.6,0.2,0.8,,,0.0977,,0.6,0.4,0.4,0.6,0.4,0.6,0.4,0.6,1,0
,,6686926932e11d5550389cb1,66daf5bc87ab4c7ab1be8217,2024-09-06_14h38.19.914,mdp,2024.2.1,Win32,20,66d7945b1baad48e845df3ce,,,,,,,,,,,,,,,,,,,,,1322.7938,1322.7939,1322.7966,1323.5241,0,1,left,0.2052,,1323.5258,1324.0574,0,1,left,1324.0611,1324.8015,1,0,right,1,1324.8016,1324.8017,1324.8058,1326.3052,0,6,6,6,1,0.6,0.4,0.4,0.6,,,,,,,,,,,,,,,0.0013,,0.2,0.8,0.8,0.2,0.4,0.6,0.2,0.8,,,0.2172,,0.6,0.4,0.4,0.6,0.4,0.6,0.4,0.6,1,0
,,6686926932e11d5550389cb1,66daf5bc87ab4c7ab1be8217,2024-09-06_14h38.19.914,mdp,2024.2.1,Win32,20,66d7945b1baad48e845df3ce,,,,,,,,,,,,,,,,,,,,,1326.3059,1326.306,1326.3075,1327.0034,0,0,left,0.1547,,1327.0062,1327.7724,0,1,left,1327.7755,1328.534,0,1,left,0,1328.5341,1328.5342,1328.5372,1330.0352,0,7,7,7,1,0.6,0.4,0.4,0.6,,,,,,,,,,,,,,,0.223,,0.2,0.8,0.8,0.2,0.4,0.6,0.2,0.8,,,0.224,,0.6,0.4,0.4,0.6,0.4,0.6,0.4,0.6,1,0
,,6686926932e11d5550389cb1,66daf5bc87ab4c7ab1be8217,2024-09-06_14h38.19.914,mdp,2024.2.1,Win32,20,66d7945b1baad48e845df3ce,,,,,,,,,,,,,,,,,,,,,1330.0357,1330.0358,1330.0376,1330.6321,0,0,left,0.0675,,1330.6351,1331.6035,0,0,left,1331.606,1332.282,1,0,right,1,1332.282,1332.282,1332.2835,1333.7926,0,8,8,8,1,0.6,0.4,0.4,0.6,,,,,,,,,,,,,,,0.4387,,0.2,0.8,0.8,0.2,0.4,0.6,0.2,0.8,,,0.1378,,0.4,0.6,0.6,0.4,0.4,0.6,0.4,0.6,1,0
,,6686926932e11d5550389cb1,66daf5bc87ab4c7ab1be8217,2024-09-06_14h38.19.914,mdp,2024.2.1,Win32,20,66d7945b1baad48e845df3ce,,,,,,,,,,,,,,,,,,,,,1333.7937,1333.7937,1333.7969,1334.3504,0,1,left,0.0203,,1334.3544,1335.0314,0,0,left,1335.0343,1335.9651,0,1,left,0,1335.9653,1335.9653,1335.968,1337.4621,0,9,9,9,1,0.6,0.4,0.4,0.6,,,,,,,,,,,,,,,0.1391,,0.2,0.8,0.8,0.2,0.4,0.6,0.2,0.8,,,0.4019,,0.4,0.6,0.6,0.4,0.4,0.6,0.4,0.6,1,0
,,6686926932e11d5550389cb1,66daf5bc87ab4c7ab1be8217,2024-09-06_14h38.19.914,mdp,2024.2.1,Win32,20,66d7945b1baad48e845df3ce,,,,,,,,,,,,,,,,,,,,,1337.4629,1337.4629,1337.4652,1337.9948,0,1,left,0.0023,,1337.9972,1338.6751,0,0,left,1338.6783,1339.5795,0,1,left,0,1339.5796,1339.5797,1339.5823,1341.0608,0,10,10,10,1,0.6,0.4,0.4,0.6,,,,,,,,,,,,,,,0.152,,0.2,0.8,0.8,0.2,0.4,0.6,0.2,0.8,,,0.3684,,0.4,0.6,0.6,0.4,0.4,0.6,0.4,0.6,1,0
,,6686926932e11d5550389cb1,66daf5bc87ab4c7ab1be8217,2024-09-06_14h38.19.914,mdp,2024.2.1,Win32,20,66d7945b1baad48e845df3ce,,,,,,,,,,,,,,,,,,,,,1341.0618,1341.0618,1341.0648,1341.7621,0,0,left,0.1848,,1341.7651,1342.4225,0,1,left,1342.4239,1343.1576,0,1,left,0,1343.1578,1343.1578,1343.1609,1344.6525,0,11,11,11,1,0.6,0.4,0.4,0.6,,,,,,,,,,,,,,,0.1201,,0.2,0.8,0.8,0.2,0.4,0.6,0.2,0.8,,,0.1893,,0.4,0.6,0.6,0.4,0.4,0.6,0.4,0.6,1,0
,,6686926932e11d5550389cb1,66daf5bc87ab4c7ab1be8217,2024-09-06_14h38.19.914,mdp,2024.2.1,Win32,20,66d7945b1baad48e845df3ce,,,,,,,,,,,,,,,,,,,,,1344.6535,1344.6535,1344.6565,1345.3032,0,1,left,0.1157,,1345.305,1345.9507,0,1,left,1345.9533,1346.549,0,1,left,0,1346.5491,1346.5491,1346.5518,1348.0592,0,12,12,12,1,0.6,0.4,0.4,0.6,,,,,,,,,,,,,,,0.1002,,0.2,0.8,0.8,0.2,0.4,0.6,0.2,0.8,,,0.077,,0.4,0.6,0.6,0.4,0.4,0.6,0.4,0.6,1,0
,,6686926932e11d5550389cb1,66daf5bc87ab4c7ab1be8217,2024-09-06_14h38.19.914,mdp,2024.2.1,Win32,20,66d7945b1baad48e845df3ce,,,,,,,,,,,,,,,,,,,,,1348.0636,1348.0636,1348.0667,1348.6695,0,1,left,0.0845,,1348.6721,1349.2776,0,1,left,1349.2803,1349.8659,0,0,left,1,1349.8661,1349.8661,1349.869,1351.3569,0,13,13,13,1,0.6,0.4,0.4,0.6,,,,,,,,,,,,,,,0.0671,,0.2,0.8,0.8,0.2,0.4,0.6,0.2,0.8,,,0.0548,,0.4,0.6,0.6,0.4,0.4,0.6,0.4,0.6,1,0
,,6686926932e11d5550389cb1,66daf5bc87ab4c7ab1be8217,2024-09-06_14h38.19.914,mdp,2024.2.1,Win32,20,66d7945b1baad48e845df3ce,,,,,,,,,,,,,,,,,,,,,1351.3575,1351.3575,1351.3592,1351.9277,0,0,left,0.0354,,1351.9301,1352.6647,0,1,left,1352.6668,1353.3296,0,1,left,0,1353.3297,1353.3298,1353.3329,1354.8291,0,14,14,14,1,0.6,0.4,0.4,0.6,,,,,,,,,,,,,,,0.2062,,0.2,0.8,0.8,0.2,0.4,0.6,0.2,0.8,,,0.1215,,0.4,0.6,0.6,0.4,0.4,0.6,0.4,0.6,1,0
,,6686926932e11d5550389cb1,66daf5bc87ab4c7ab1be8217,2024-09-06_14h38.19.914,mdp,2024.2.1,Win32,20,66d7945b1baad48e845df3ce,,,,,,,,,,,,,,,,,,,,,1354.8301,1354.8301,1354.8332,1355.4299,0,0,left,0.0686,,1355.4326,1356.1114,0,1,left,1356.1136,1356.8094,0,0,left,1,1356.8094,1356.8094,1356.811,1358.3066,0,15,15,15,1,0.6,0.4,0.4,0.6,,,,,,,,,,,,,,,0.1694,,0.2,0.8,0.8,0.2,0.4,0.6,0.2,0.8,,,0.1634,,0.4,0.6,0.6,0.4,0.4,0.6,0.4,0.6,1,0
,,6686926932e11d5550389cb1,66daf5bc87ab4c7ab1be8217,2024-09-06_14h38.19.914,mdp,2024.2.1,Win32,20,66d7945b1baad48e845df3ce,,,,,,,,,,,,,,,,,,,,,1358.3071,1358.3071,1358.3088,1359.0207,0,1,left,0.1961,,1359.0235,1359.7082,0,1,left,1359.7116,1360.3403,0,1,left,0,1360.3405,1360.3405,1360.343,1361.8335,0,16,16,16,1,0.6,0.4,0.4,0.6,,,,,,,,,,,,,,,0.1558,,0.2,0.8,0.8,0.2,0.4,0.6,0.2,0.8,,,0.1042,,0.4,0.6,0.6,0.4,0.4,0.6,0.4,0.6,1,0
,,6686926932e11d5550389cb1,66daf5bc87ab4c7ab1be8217,2024-09-06_14h38.19.914,mdp,2024.2.1,Win32,20,66d7945b1baad48e845df3ce,,,,,,,,,,,,,,,,,,,,,1361.8349,1361.835,1361.838,1362.3674,0,1,left,0.0012,,1362.3705,1363.1189,0,0,left,1363.1215,1363.6666,0,1,left,0,1363.6671,1363.6671,1363.6713,1365.1666,0,17,17,17,1,0.6,0.4,0.4,0.6,,,,,,,,,,,,,,,0.2285,,0.2,0.8,0.8,0.2,0.4,0.6,0.2,0.8,,,0.0013,,0.4,0.6,0.6,0.4,0.4,0.6,0.4,0.6,1,0
,,6686926932e11d5550389cb1,66daf5bc87ab4c7ab1be8217,2024-09-06_14h38.19.914,mdp,2024.2.1,Win32,20,66d7945b1baad48e845df3ce,,,,,,,,,,,,,,,,,,,,,1365.1676,1365.1676,1365.1718,1365.734,0,0,left,0.0348,,1365.739,1366.4246,0,1,left,1366.426,1367.1511,0,1,left,0,1367.1512,1367.1512,1367.1529,1368.6493,0,18,18,18,1,0.6,0.4,0.4,0.6,,,,,,,,,,,,,,,0.1602,,0.2,0.8,0.8,0.2,0.4,0.6,0.2,0.8,,,0.2002,,0.4,0.6,0.6,0.4,0.4,0.6,0.4,0.6,1,0
,,6686926932e11d5550389cb1,66daf5bc87ab4c7ab1be8217,2024-09-06_14h38.19.914,mdp,2024.2.1,Win32,20,66d7945b1baad48e845df3ce,,,,,,,,,,,,,,,,,,,,,1368.6502,1368.6502,1368.6527,1369.2792,0,0,left,0.0993,,1369.2808,1369.7974,0,1,left,1369.8005,1370.3462,0,0,left,1,1370.3463,1370.3463,1370.3478,1371.8451,0,19,19,19,1,0.6,0.4,0.4,0.6,,,,,,,,,,,,,,,0.0012,,0.2,0.8,0.8,0.2,0.4,0.6,0.2,0.8,,,0.0008,,0.4,0.6,0.6,0.4,0.4,0.6,0.4,0.6,1,0
,,6686926932e11d5550389cb1,66daf5bc87ab4c7ab1be8217,2024-09-06_14h38.19.914,mdp,2024.2.1,Win32,20,66d7945b1baad48e845df3ce,,,,,,,,,,,,,,,,,,,,,1371.8455,1371.8456,1371.847,1372.3798,0,0,left,0.0011,,1372.3826,1373.0826,0,1,left,1373.0849,1373.698,0,0,left,1,1373.6981,1373.6981,1373.7021,1375.1922,0,20,20,20,1,0.6,0.4,0.4,0.6,,,,,,,,,,,,,,,0.1725,,0.2,0.8,0.8,0.2,0.4,0.6,0.2,0.8,,,0.0885,,0.4,0.6,0.6,0.4,0.4,0.6,0.4,0.6,1,0
,,6686926932e11d5550389cb1,66daf5bc87ab4c7ab1be8217,2024-09-06_14h38.19.914,mdp,2024.2.1,Win32,20,66d7945b1baad48e845df3ce,,,,,,,,,,,,,,,,,,,,,1375.1936,1375.1936,1375.1963,1375.7749,0,0,left,0.0561,,1375.778,1376.4732,0,1,left,1376.4745,1377.1402,0,1,left,0,1377.1403,1377.1403,1377.1433,1378.6281,0,21,21,21,1,0.6,0.4,0.4,0.6,,,,,,,,,,,,,,,0.1703,,0.2,0.8,0.8,0.2,0.4,0.6,0.2,0.8,,,0.1339,,0.4,0.6,0.6,0.4,0.4,0.6,0.4,0.6,1,0
,,6686926932e11d5550389cb1,66daf5bc87ab4c7ab1be8217,2024-09-06_14h38.19.914,mdp,2024.2.1,Win32,20,66d7945b1baad48e845df3ce,,,,,,,,,,,,,,,,,,,,,1378.6301,1378.6302,1378.6332,1379.2836,0,1,left,0.1276,,1379.2856,1379.9586,0,1,left,1379.9611,1380.6402,0,0,left,1,1380.6403,1380.6403,1380.643,1382.1365,0,22,22,22,1,0.6,0.4,0.4,0.6,,,,,,,,,,,,,,,0.1247,,0.2,0.8,0.8,0.2,0.4,0.6,0.2,0.8,,,0.1523,,0.4,0.6,0.6,0.4,0.4,0.6,0.4,0.6,1,0
,,6686926932e11d5550389cb1,66daf5bc87ab4c7ab1be8217,2024-09-06_14h38.19.914,mdp,2024.2.1,Win32,20,66d7945b1baad48e845df3ce,,,,,,,,,,,,,,,,,,,,,1382.1374,1382.1375,1382.1401,1382.7897,0,1,left,0.1312,,1382.7937,1383.5198,0,1,left,1383.5223,1384.2894,0,1,left,0,1384.2895,1384.2895,1384.2912,1385.7829,0,23,23,23,1,0.6,0.4,0.4,0.6,,,,,,,,,,,,,,,0.2057,,0.2,0.8,0.8,0.2,0.4,0.6,0.2,0.8,,,0.242,,0.4,0.6,0.6,0.4,0.4,0.6,0.4,0.6,1,0
,,6686926932e11d5550389cb1,66daf5bc87ab4c7ab1be8217,2024-09-06_14h38.19.914,mdp,2024.2.1,Win32,20,66d7945b1baad48e845df3ce,,,,,,,,,,,,,,,,,,,,,1385.7846,1385.7846,1385.788,1386.5064,0,1,left,0.2064,,1386.5084,1387.2258,0,1,left,1387.2279,1387.9335,0,1,left,0,1387.9337,1387.9337,1387.9363,1389.4283,0,24,24,24,1,0.6,0.4,0.4,0.6,,,,,,,,,,,,,,,0.1953,,0.2,0.8,0.8,0.2,0.4,0.6,0.2,0.8,,,0.1736,,0.4,0.6,0.6,0.4,0.4,0.6,0.4,0.6,1,0
,,6686926932e11d5550389cb1,66daf5bc87ab4c7ab1be8217,2024-09-06_14h38.19.914,mdp,2024.2.1,Win32,20,66d7945b1baad48e845df3ce,,,,,,,,,,,,,,,,,,,,,1389.4291,1389.4291,1389.4308,1389.9815,0,0,left,0.0189,,1389.9846,1390.6934,0,0,left,1390.6962,1391.2193,0,1,left,0,1391.2194,1391.2194,1391.2215,1392.7112,0,25,25,25,1,0.6,0.4,0.4,0.6,,,,,,,,,,,,,,,0.1671,,0.2,0.8,0.8,0.2,0.4,0.6,0.2,0.8,,,0.001,,0.4,0.6,0.6,0.4,0.4,0.6,0.4,0.6,1,0
,,6686926932e11d5550389cb1,66daf5bc87ab4c7ab1be8217,2024-09-06_14h38.19.914,mdp,2024.2.1,Win32,20,66d7945b1baad48e845df3ce,,,,,,,,,,,,,,,,,,,,,1392.712,1392.7121,1392.7144,1393.408,0,0,left,0.1617,,1393.4112,1394.2067,0,1,left,1394.2094,1394.8746,0,0,left,1,1394.8748,1394.8748,1394.8791,1396.3669,0,26,26,26,1,0.6,0.4,0.4,0.6,,,,,,,,,,,,,,,0.2595,,0.2,0.8,0.8,0.2,0.4,0.6,0.2,0.8,,,0.116,,0.4,0.6,0.6,0.4,0.4,0.6,0.4,0.6,1,0
,,6686926932e11d5550389cb1,66daf5bc87ab4c7ab1be8217,2024-09-06_14h38.19.914,mdp,2024.2.1,Win32,20,66d7945b1baad48e845df3ce,,,,,,,,,,,,,,,,,,,,,1396.3674,1396.3675,1396.3693,1396.9699,0,1,left,0.0839,,1396.9734,1397.6843,0,0,left,1397.687,1398.467,0,1,left,0,1398.467,1398.467,1398.4692,1399.9701,0,27,27,27,1,0.6,0.4,0.4,0.6,,,,,,,,,,,,,,,0.1792,,0.2,0.8,0.8,0.2,0.4,0.6,0.2,0.8,,,0.2358,0.0001,0.4,0.6,0.6,0.4,0.4,0.6,0.4,0.6,1,0
,,6686926932e11d5550389cb1,66daf5bc87ab4c7ab1be8217,2024-09-06_14h38.19.914,mdp,2024.2.1,Win32,20,66d7945b1baad48e845df3ce,,,,,,,,,,,,,,,,,,,,,1399.9711,1399.9711,1399.9757,1400.6677,0,1,left,0.1705,,1400.6705,1401.3837,0,0,left,1401.3866,1402.1134,0,1,left,0,1402.1136,1402.1137,1402.116,1403.611,0,28,28,28,1,0.6,0.4,0.4,0.6,,,,,,,,,,,,,,,0.1768,,0.2,0.8,0.8,0.2,0.4,0.6,0.2,0.8,,,0.2122,,0.4,0.6,0.6,0.4,0.4,0.6,0.4,0.6,1,0
,,6686926932e11d5550389cb1,66daf5bc87ab4c7ab1be8217,2024-09-06_14h38.19.914,mdp,2024.2.1,Win32,20,66d7945b1baad48e845df3ce,,,,,,,,,,,,,,,,,,,,,1403.6119,1403.612,1403.6146,1404.1456,0,0,left,0.0013,,1404.1498,1404.8998,0,0,left,1404.9026,1405.6026,0,0,left,1,1405.6028,1405.6028,1405.6054,1407.1089,0,29,29,29,1,0.6,0.4,0.4,0.6,,,,,,,,,,,,,,,0.2094,,0.2,0.8,0.8,0.2,0.4,0.6,0.2,0.8,,,0.1726,,0.4,0.6,0.6,0.4,0.4,0.6,0.4,0.6,1,0
,,6686926932e11d5550389cb1,66daf5bc87ab4c7ab1be8217,2024-09-06_14h38.19.914,mdp,2024.2.1,Win32,20,66d7945b1baad48e845df3ce,,,,,,,,,,,,,,,,,,,,,1407.1113,1407.1113,1407.1159,1407.8289,0,1,left,0.1883,,1407.8313,1408.5639,0,1,left,1408.5672,1409.3228,0,1,left,0,1409.3229,1409.3229,1409.3251,1410.8249,0,30,30,30,1,0.6,0.4,0.4,0.6,,,,,,,,,,,,,,,0.1683,,0.2,0.8,0.8,0.2,0.4,0.6,0.2,0.8,,,0.2168,,0.4,0.6,0.6,0.4,0.4,0.6,0.4,0.6,1,0
,,6686926932e11d5550389cb1,66daf5bc87ab4c7ab1be8217,2024-09-06_14h38.19.914,mdp,2024.2.1,Win32,20,66d7945b1baad48e845df3ce,,,,,,,,,,,,,,,,,,,,,1410.8264,1410.8264,1410.8295,1411.5087,0,0,left,0.1507,,1411.5112,1412.2573,0,0,left,1412.2596,1412.991,0,0,left,1,1412.9912,1412.9913,1412.9938,1414.486,0,31,31,31,1,0.6,0.4,0.4,0.6,,,,,,,,,,,,,,,0.2044,,0.2,0.8,0.8,0.2,0.4,0.6,0.2,0.8,,,0.1884,,0.4,0.6,0.6,0.4,0.6,0.4,0.2,0.8,1,0
,,6686926932e11d5550389cb1,66daf5bc87ab4c7ab1be8217,2024-09-06_14h38.19.914,mdp,2024.2.1,Win32,20,66d7945b1baad48e845df3ce,,,,,,,,,,,,,,,,,,,,,1414.487,1414.487,1414.4914,1415.0722,0,0,left,0.0689,,1415.0745,1415.7718,0,0,left,1415.7752,1416.5024,0,1,left,0,1416.5026,1416.5026,1416.5055,1418.0063,0,32,32,32,1,0.6,0.4,0.4,0.6,,,,,,,,,,,,,,,0.1655,,0.2,0.8,0.8,0.2,0.4,0.6,0.2,0.8,,,0.2015,,0.4,0.6,0.6,0.4,0.6,0.4,0.2,0.8,1,0
,,6686926932e11d5550389cb1,66daf5bc87ab4c7ab1be8217,2024-09-06_14h38.19.914,mdp,2024.2.1,Win32,20,66d7945b1baad48e845df3ce,,,,,,,,,,,,,,,,,,,,,1418.0073,1418.0073,1418.0108,1418.7406,0,0,left,0.1945,,1418.7424,1419.5044,0,1,left,1419.5072,1420.1829,0,0,left,1,1420.183,1420.183,1420.1933,1421.6956,0,33,33,33,1,0.6,0.4,0.4,0.6,,,,,,,,,,,,,,,0.2284,,0.2,0.8,0.8,0.2,0.4,0.6,0.2,0.8,,,0.1292,,0.4,0.6,0.6,0.4,0.6,0.4,0.2,0.8,1,0
,,6686926932e11d5550389cb1,66daf5bc87ab4c7ab1be8217,2024-09-06_14h38.19.914,mdp,2024.2.1,Win32,20,66d7945b1baad48e845df3ce,,,,,,,,,,,,,,,,,,,,,1421.6967,1421.6968,1421.6999,1422.3195,0,0,left,0.0856,,1422.3222,1422.9508,0,1,left,1422.9534,1423.7307,0,1,left,0,1423.7308,1423.7308,1423.732,1425.2296,0,34,34,34,1,0.6,0.4,0.4,0.6,,,,,,,,,,,,,,,0.1079,,0.2,0.8,0.8,0.2,0.4,0.6,0.2,0.8,,,0.2519,,0.4,0.6,0.6,0.4,0.6,0.4,0.2,0.8,1,0
,,6686926932e11d5550389cb1,66daf5bc87ab4c7ab1be8217,2024-09-06_14h38.19.914,mdp,2024.2.1,Win32,20,66d7945b1baad48e845df3ce,,,,,,,,,,,,,,,,,,,,,1425.2302,1425.2303,1425.2315,1425.9121,0,0,left,0.1495,,1425.9147,1426.6588,0,1,left,1426.6615,1427.3656,0,1,left,0,1427.3657,1427.3657,1427.3671,1428.8591,0,35,35,35,1,0.8,0.2,0.8,0.2,,,,,,,,,,,,,,,0.2123,,0.2,0.8,0.8,0.2,0.4,0.6,0.2,0.8,,,0.1855,,0.4,0.6,0.6,0.4,0.6,0.4,0.2,0.8,1,0
,,6686926932e11d5550389cb1,66daf5bc87ab4c7ab1be8217,2024-09-06_14h38.19.914,mdp,2024.2.1,Win32,20,66d7945b1baad48e845df3ce,,,,,,,,,,,,,,,,,,,,,1428.86,1428.8602,1428.8626,1429.4116,0,0,left,0.0203,,1429.4131,1430.1278,0,1,left,1430.1309,1430.6704,0,1,left,0,1430.6705,1430.6705,1430.673,1432.1691,0,36,36,36,1,0.8,0.2,0.8,0.2,,,,,,,,,,,,,,,0.1895,,0.2,0.8,0.8,0.2,0.4,0.6,0.2,0.8,,,0.002,,0.4,0.6,0.6,0.4,0.6,0.4,0.2,0.8,1,0
,,6686926932e11d5550389cb1,66daf5bc87ab4c7ab1be8217,2024-09-06_14h38.19.914,mdp,2024.2.1,Win32,20,66d7945b1baad48e845df3ce,,,,,,,,,,,,,,,,,,,,,1432.1702,1432.1702,1432.1725,1432.8408,0,0,left,0.1371,,1432.8434,1433.423,0,1,left,1433.4249,1434.1514,0,1,left,0,1434.1516,1434.1516,1434.1546,1435.6643,0,37,37,37,1,0.4,0.6,0.6,0.4,,,,,,,,,,,,,,,0.0541,0.0002,0.2,0.8,0.8,0.2,0.4,0.6,0.2,0.8,,,0.1976,,0.4,0.6,0.6,0.4,0.6,0.4,0.2,0.8,1,0
,,6686926932e11d5550389cb1,66daf5bc87ab4c7ab1be8217,2024-09-06_14h38.19.914,mdp,2024.2.1,Win32,20,66d7945b1baad48e845df3ce,,,,,,,,,,,,,,,,,,,,,1435.6654,1435.6655,1435.6698,1436.1933,0,1,left,0.0012,,1436.197,1436.8698,0,1,left,1436.8752,1437.5639,0,0,left,1,1437.564,1437.5641,1437.5653,1439.0693,0,38,38,38,1,0.4,0.6,0.6,0.4,,,,,,,,,,,,,,,0.1379,,0.2,0.8,0.8,0.2,0.4,0.6,0.2,0.8,,,0.1685,,0.4,0.6,0.6,0.4,0.6,0.4,0.2,0.8,1,0
,,6686926932e11d5550389cb1,66daf5bc87ab4c7ab1be8217,2024-09-06_14h38.19.914,mdp,2024.2.1,Win32,20,66d7945b1baad48e845df3ce,,,,,,,,,,,,,,,,,,,,,1439.0707,1439.0708,1439.0737,1439.6458,0,0,left,0.0513,,1439.65,1440.28,0,1,left,1440.2817,1440.9945,0,0,left,1,1440.9946,1440.9946,1440.9976,1442.4964,0,39,39,39,1,0.4,0.6,0.6,0.4,,,,,,,,,,,,,,,0.0853,,0.2,0.8,0.8,0.2,0.4,0.6,0.2,0.8,,,0.1716,,0.4,0.6,0.6,0.4,0.6,0.4,0.2,0.8,1,0
,,6686926932e11d5550389cb1,66daf5bc87ab4c7ab1be8217,2024-09-06_14h38.19.914,mdp,2024.2.1,Win32,20,66d7945b1baad48e845df3ce,,,,,,,,,,,,,,,,,,,,,1442.4973,1442.4974,1442.5005,1443.1989,0,0,left,0.1695,,1443.2021,1443.848,0,1,left,1443.8516,1444.5384,0,1,left,0,1444.5385,1444.5385,1444.5405,1446.0424,0,40,40,40,1,0.4,0.6,0.6,0.4,,,,,,,,,,,,,,,0.1059,,0.2,0.8,0.8,0.2,0.4,0.6,0.2,0.8,,,0.1608,,0.4,0.6,0.6,0.4,0.6,0.4,0.2,0.8,1,0
,,6686926932e11d5550389cb1,66daf5bc87ab4c7ab1be8217,2024-09-06_14h38.19.914,mdp,2024.2.1,Win32,20,66d7945b1baad48e845df3ce,,,,,,,,,,,,,,,,,,,,,1446.0435,1446.0435,1446.0461,1446.8061,0,0,left,0.2318,,1446.8093,1447.5751,0,1,left,1447.5774,1448.2362,0,0,left,1,1448.2363,1448.2363,1448.2378,1449.7231,0,41,41,41,1,0.4,0.6,0.6,0.4,,,,,,,,,,,,,,,0.2374,,0.2,0.8,0.8,0.2,0.4,0.6,0.2,0.8,,,0.1342,,0.4,0.6,0.6,0.4,0.6,0.4,0.2,0.8,1,0
,,6686926932e11d5550389cb1,66daf5bc87ab4c7ab1be8217,2024-09-06_14h38.19.914,mdp,2024.2.1,Win32,20,66d7945b1baad48e845df3ce,,,,,,,,,,,,,,,,,,,,,1449.7245,1449.7247,1449.7278,1450.307,0,1,left,0.0574,,1450.3102,1450.9699,0,0,left,1450.9715,1451.6692,0,0,left,1,1451.6693,1451.6694,1451.672,1453.153,0,42,42,42,1,0.4,0.6,0.6,0.4,,,,,,,,,,,,,,,0.1191,,0.2,0.8,0.8,0.2,0.4,0.6,0.2,0.8,,,0.1514,,0.4,0.6,0.6,0.4,0.6,0.4,0.2,0.8,1,0
,,6686926932e11d5550389cb1,66daf5bc87ab4c7ab1be8217,2024-09-06_14h38.19.914,mdp,2024.2.1,Win32,20,66d7945b1baad48e845df3ce,,,,,,,,,,,,,,,,,,,,,1453.1543,1453.1543,1453.157,1453.8535,0,0,left,0.1726,,1453.8565,1454.5914,0,1,left,1454.5943,1455.3751,0,1,left,0,1455.3753,1455.3753,1455.3768,1456.8636,0,43,43,43,1,0.4,0.6,0.6,0.4,,,,,,,,,,,,,,,0.1944,,0.2,0.8,0.8,0.2,0.6,0.4,0.4,0.6,,,0.2294,,0.4,0.6,0.6,0.4,0.6,0.4,0.2,0.8,1,0
,,6686926932e11d5550389cb1,66daf5bc87ab4c7ab1be8217,2024-09-06_14h38.19.914,mdp,2024.2.1,Win32,20,66d7945b1baad48e845df3ce,,,,,,,,,,,,,,,,,,,,,1456.8646,1456.8646,1456.8686,1457.5672,0,1,left,0.1725,,1457.5709,1458.267,0,1,left,1458.2688,1458.9643,0,0,left,1,1458.9645,1458.9645,1458.9675,1460.4789,0,44,44,44,1,0.4,0.6,0.6,0.4,,,,,,,,,,,,,,,0.155,,0.2,0.8,0.8,0.2,0.6,0.4,0.4,0.6,,,0.167,,0.8,0.2,0.4,0.6,0.6,0.4,0.2,0.8,1,0
,,6686926932e11d5550389cb1,66daf5bc87ab4c7ab1be8217,2024-09-06_14h38.19.914,mdp,2024.2.1,Win32,20,66d7945b1baad48e845df3ce,,,,,,,,,,,,,,,,,,,,,1460.4795,1460.4795,1460.4816,1461.0432,0,1,left,0.045,,1461.046,1461.7311,0,1,left,1461.7344,1462.4611,0,0,left,1,1462.4612,1462.4612,1462.4636,1463.9601,0,45,45,45,1,0.4,0.6,0.6,0.4,,,,,,,,,,,,,,,0.1569,,0.2,0.8,0.8,0.2,0.6,0.4,0.4,0.6,,,0.2059,,0.8,0.2,0.4,0.6,0.6,0.4,0.2,0.8,1,0
,,6686926932e11d5550389cb1,66daf5bc87ab4c7ab1be8217,2024-09-06_14h38.19.914,mdp,2024.2.1,Win32,20,66d7945b1baad48e845df3ce,,,,,,,,,,,,,,,,,,,,,1463.9612,1463.9612,1463.9644,1464.6216,0,0,left,0.1296,,1464.6242,1465.3588,0,1,left,1465.3617,1466.0586,0,1,left,0,1466.0588,1466.0588,1466.0629,1467.5612,0,46,46,46,1,0.4,0.6,0.6,0.4,,,,,,,,,,,,,,,0.2043,,0.2,0.8,0.8,0.2,0.6,0.4,0.4,0.6,,,0.1667,,0.8,0.2,0.4,0.6,0.6,0.4,0.2,0.8,1,0
,,6686926932e11d5550389cb1,66daf5bc87ab4c7ab1be8217,2024-09-06_14h38.19.914,mdp,2024.2.1,Win32,20,66d7945b1baad48e845df3ce,,,,,,,,,,,,,,,,,,,,,1467.5619,1467.5619,1467.5632,1468.2957,0,1,left,0.201,,1468.2977,1468.9722,0,1,left,1468.9748,1469.5256,0,0,left,1,1469.5256,1469.5256,1469.5269,1471.0194,0,47,47,47,1,0.4,0.6,0.6,0.4,,,,,,,,,,,,,,,0.1553,,0.2,0.8,0.8,0.2,0.6,0.4,0.4,0.6,,,0.0203,,0.8,0.2,0.4,0.6,0.6,0.4,0.2,0.8,1,0
,,6686926932e11d5550389cb1,66daf5bc87ab4c7ab1be8217,2024-09-06_14h38.19.914,mdp,2024.2.1,Win32,20,66d7945b1baad48e845df3ce,,,,,,,,,,,,,,,,,,,,,1471.0204,1471.0204,1471.0232,1471.5389,0,0,left,0.0011,,1471.5412,1472.3979,0,1,left,1472.4004,1473.0178,0,1,left,0,1473.0179,1473.018,1473.0222,1474.5147,0,48,48,48,1,0.6,0.4,0.4,0.6,,,,,,,,,,,,,,,0.317,,0.2,0.8,0.8,0.2,0.6,0.4,0.4,0.6,,,0.0998,,0.8,0.2,0.4,0.6,0.6,0.4,0.2,0.8,1,0
,,6686926932e11d5550389cb1,66daf5bc87ab4c7ab1be8217,2024-09-06_14h38.19.914,mdp,2024.2.1,Win32,20,66d7945b1baad48e845df3ce,,,,,,,,,,,,,,,,,,,,,1474.5154,1474.5154,1474.5175,1476.3642,1,1,right,1.3192,,1476.367,1477.2582,1,0,right,1477.2596,1479.3109,1,1,right,0,1479.311,1479.3111,1479.3163,1480.8115,0,49,49,49,1,0.6,0.4,0.4,0.6,,,,,,,,,,,,,,,0.3577,,0.2,0.8,0.8,0.2,0.6,0.4,0.4,0.6,,,1.5186,,0.8,0.2,0.4,0.6,0.6,0.4,0.2,0.8,1,0
,,6686926932e11d5550389cb1,66daf5bc87ab4c7ab1be8217,2024-09-06_14h38.19.914,mdp,2024.2.1,Win32,20,66d7945b1baad48e845df3ce,,,,,,,,,,,,,,,,,,,,,,,,,,,,,,,,,,,,,,,,,,,,,,,,,,,,,,,,1480.8118,1542.6208,0,3,3,0,1,imgs/kangaroo.png,imgs/giraffe.png,imgs/cat.png,imgs/goat.png,imgs/pig.png,,,,,,,,,,,,,,,,,,,,,,,,
,,6686926932e11d5550389cb1,66daf5bc87ab4c7ab1be8217,2024-09-06_14h38.19.914,mdp,2024.2.1,Win32,20,66d7945b1baad48e845df3ce,,,,,,,,,,,,,,1,seqs/st1seq21.csv,1542.6449,1543.9283,space,0.7566,,1543.9329,1543.933,1543.9348,1546.8632,1,1,right,2.3943,,1546.8976,1546.9001,1,1,,1546.9021,1546.9036,1,0,,0,1546.9036,1546.9037,1546.9054,1548.3947,0,0,0,0,1,0.8,0.2,0.4,0.6,1,0,,,,,,,,,,,,,,,,,,,,,,,,,,,,,,,,,,,,
,,6686926932e11d5550389cb1,66daf5bc87ab4c7ab1be8217,2024-09-06_14h38.19.914,mdp,2024.2.1,Win32,20,66d7945b1baad48e845df3ce,,,,,,,,,,,,,,,,,,,,,1548.3955,1548.3955,1548.3996,1549.1105,1,1,right,0.1619,,1549.1146,1549.1154,1,1,,1549.1162,1549.1169,1,1,,0,1549.117,1549.117,1549.1177,1550.6147,0,1,1,1,1,0.8,0.2,0.4,0.6,1,0,,,,,,,,,,,,,,,,,,,,,,,,,,,,,,,,,,,,
,,6686926932e11d5550389cb1,66daf5bc87ab4c7ab1be8217,2024-09-06_14h38.19.914,mdp,2024.2.1,Win32,20,66d7945b1baad48e845df3ce,,,,,,,,,,,,,,,,,,,,,1550.6155,1550.6156,1550.6212,1551.3445,1,0,right,0.1728,,1551.3476,1551.3499,1,1,,1551.3533,1551.355,1,1,,1,1551.3551,1551.3551,1551.3568,1552.8426,0,2,2,2,1,0.8,0.2,0.4,0.6,1,0,,,,,,,,,,,,,,,,,,,,,,,,,,,,,,,,,,,,
,,6686926932e11d5550389cb1,66daf5bc87ab4c7ab1be8217,2024-09-06_14h38.19.914,mdp,2024.2.1,Win32,20,66d7945b1baad48e845df3ce,,,,,,,,,,,,,,,,,,,,,1552.8438,1552.8438,1552.8466,1553.6407,1,1,right,0.2602,,1553.6456,1553.6477,1,1,,1553.6498,1553.6515,1,1,,0,1553.6515,1553.6515,1553.6537,1555.1397,0,3,3,3,1,0.6,0.4,0.2,0.8,1,0,,,,,,,,,,,,,,,,,,,,,,,,,,,,,,,,,,,,
,,6686926932e11d5550389cb1,66daf5bc87ab4c7ab1be8217,2024-09-06_14h38.19.914,mdp,2024.2.1,Win32,20,66d7945b1baad48e845df3ce,,,,,,,,,,,,,,,,,,,,,1555.1406,1555.1406,1555.1439,1555.7244,1,1,right,0.0627,,1555.728,1555.7304,1,1,,1555.7337,1555.7355,1,1,,0,1555.7356,1555.7356,1555.7378,1557.2385,0,4,4,4,1,0.6,0.4,0.2,0.8,1,0,,,,,,,,,,,,,,,,,,,,,,,,,,,,,,,,,,,,
,,6686926932e11d5550389cb1,66daf5bc87ab4c7ab1be8217,2024-09-06_14h38.19.914,mdp,2024.2.1,Win32,20,66d7945b1baad48e845df3ce,,,,,,,,,,,,,,,,,,,,,1557.2389,1557.2389,1557.2401,1557.8592,1,1,right,0.0879,,1557.8607,1557.8616,1,1,,1557.8626,1557.8637,1,1,,0,1557.8637,1557.8638,1557.8645,1559.3682,0,5,5,5,1,0.6,0.4,0.2,0.8,1,0,,,,,,,,,,,,,,,,,,,,,,,,,,,,,,,,,,,,
,,6686926932e11d5550389cb1,66daf5bc87ab4c7ab1be8217,2024-09-06_14h38.19.914,mdp,2024.2.1,Win32,20,66d7945b1baad48e845df3ce,,,,,,,,,,,,,,,,,,,,,1559.3687,1559.3687,1559.3701,1559.9549,1,0,right,0.0693,,1559.9577,1559.9597,1,1,,1559.9618,1559.9645,1,1,,1,1559.9645,1559.9646,1559.9666,1561.4552,0,6,6,6,1,0.6,0.4,0.2,0.8,1,0,,,,,,,,,,,,,,,,,,,,,,,,,,,,,,,,,,,,
,,6686926932e11d5550389cb1,66daf5bc87ab4c7ab1be8217,2024-09-06_14h38.19.914,mdp,2024.2.1,Win32,20,66d7945b1baad48e845df3ce,,,,,,,,,,,,,,,,,,,,,1561.4559,1561.4559,1561.4589,1562.116,1,1,right,0.1352,,1562.1196,1562.1216,1,0,,1562.1243,1562.1258,1,1,,0,1562.1259,1562.1259,1562.1275,1563.6166,0,7,7,7,1,0.8,0.2,0.6,0.4,1,0,,,,,,,,,,,,,,,,,,,,,,,,,,,,,,,,,,,,
,,6686926932e11d5550389cb1,66daf5bc87ab4c7ab1be8217,2024-09-06_14h38.19.914,mdp,2024.2.1,Win32,20,66d7945b1baad48e845df3ce,,,,,,,,,,,,,,,,,,,,,1563.6173,1563.6173,1563.6203,1564.2633,1,0,right,0.1135,,1564.2648,1564.2657,1,0,,1564.2664,1564.2669,1,0,,1,1564.267,1564.267,1564.2675,1565.7609,0,8,8,8,1,0.4,0.6,0.8,0.2,1,0,,,,,,,,,,,,,,,,,,,,,,,,,,,,,,,,,,,,
,,6686926932e11d5550389cb1,66daf5bc87ab4c7ab1be8217,2024-09-06_14h38.19.914,mdp,2024.2.1,Win32,20,66d7945b1baad48e845df3ce,,,,,,,,,,,,,,,,,,,,,1565.7613,1565.7614,1565.7627,1566.3978,1,0,right,0.0983,,1566.4011,1566.403,1,0,,1566.4056,1566.4076,1,1,,1,1566.4078,1566.4078,1566.4096,1567.896,0,9,9,9,1,0.4,0.6,0.8,0.2,1,0,,,,,,,,,,,,,,,,,,,,,,,,,,,,,,,,,,,,
,,6686926932e11d5550389cb1,66daf5bc87ab4c7ab1be8217,2024-09-06_14h38.19.914,mdp,2024.2.1,Win32,20,66d7945b1baad48e845df3ce,,,,,,,,,,,,,,,,,,,,,1567.897,1567.897,1567.8987,1568.6729,1,0,right,0.234,,1568.6749,1568.676,1,1,,1568.6775,1568.6787,1,0,,1,1568.6788,1568.6788,1568.6798,1570.1771,0,10,10,10,1,0.4,0.6,0.8,0.2,1,0,,,,,,,,,,,,,,,,,,,,,,,,,,,,,,,,,,,,
,,6686926932e11d5550389cb1,66daf5bc87ab4c7ab1be8217,2024-09-06_14h38.19.914,mdp,2024.2.1,Win32,20,66d7945b1baad48e845df3ce,,,,,,,,,,,,,,,,,,,,,1570.1778,1570.1778,1570.1804,1570.8616,1,0,right,0.1475,,1570.8647,1570.8672,1,0,,1570.8705,1570.8742,1,0,,1,1570.8742,1570.8742,1570.8752,1572.3664,0,11,11,11,1,0.4,0.6,0.8,0.2,1,0,,,,,,,,,,,,,,,,,,,,,,,,,,,,,,,,,,,,
,,6686926932e11d5550389cb1,66daf5bc87ab4c7ab1be8217,2024-09-06_14h38.19.914,mdp,2024.2.1,Win32,20,66d7945b1baad48e845df3ce,,,,,,,,,,,,,,,,,,,,,1572.3676,1572.3677,1572.3704,1572.9091,1,0,right,0.0186,,1572.912,1572.9148,1,1,,1572.9171,1572.9192,1,0,,1,1572.9193,1572.9194,1572.9226,1574.4053,0,12,12,12,1,0.4,0.6,0.8,0.2,1,0,,,,,,,,,,,,,,,,,,,,,,,,,,,,,,,,,,,,
,,6686926932e11d5550389cb1,66daf5bc87ab4c7ab1be8217,2024-09-06_14h38.19.914,mdp,2024.2.1,Win32,20,66d7945b1baad48e845df3ce,,,,,,,,,,,,,,,,,,,,,1574.4062,1574.4063,1574.4088,1574.957,1,1,right,0.0176,,1574.9601,1574.9621,1,1,,1574.9642,1574.9656,1,0,,0,1574.9657,1574.9657,1574.9675,1576.4534,0,13,13,13,1,0.4,0.6,0.8,0.2,1,0,,,,,,,,,,,,,,,,,,,,,,,,,,,,,,,,,,,,
,,6686926932e11d5550389cb1,66daf5bc87ab4c7ab1be8217,2024-09-06_14h38.19.914,mdp,2024.2.1,Win32,20,66d7945b1baad48e845df3ce,,,,,,,,,,,,,,,,,,,,,1576.4541,1576.4541,1576.4564,1577.0212,1,0,right,0.0345,,1577.0237,1577.025,1,0,,1577.0267,1577.028,1,0,,1,1577.0281,1577.0281,1577.0296,1578.52,0,14,14,14,1,0.4,0.6,0.8,0.2,1,0,,,,,,,,,,,,,,,,,,,,,,,,,,,,,,,,,,,,
,,6686926932e11d5550389cb1,66daf5bc87ab4c7ab1be8217,2024-09-06_14h38.19.914,mdp,2024.2.1,Win32,20,66d7945b1baad48e845df3ce,,,,,,,,,,,,,,,,,,,,,1578.5208,1578.5209,1578.5238,1579.2005,1,0,right,0.1512,,1579.2055,1579.2073,1,0,,1579.2102,1579.2124,1,1,,1,1579.2125,1579.2125,1579.2163,1580.7152,0,15,15,15,1,0.8,0.2,0.6,0.4,1,0,,,,,,,,,,,,,,,,,,,,,,,,,,,,,,,,,,,,
,,6686926932e11d5550389cb1,66daf5bc87ab4c7ab1be8217,2024-09-06_14h38.19.914,mdp,2024.2.1,Win32,20,66d7945b1baad48e845df3ce,,,,,,,,,,,,,,,,,,,,,1580.7161,1580.7162,1580.7195,1581.3963,1,1,right,0.158,,1581.3988,1581.401,1,0,,1581.4029,1581.4043,1,0,,0,1581.4045,1581.4045,1581.4065,1582.8971,0,16,16,16,1,0.8,0.2,0.6,0.4,1,0,,,,,,,,,,,,,,,,,,,,,,,,,,,,,,,,,,,,
,,6686926932e11d5550389cb1,66daf5bc87ab4c7ab1be8217,2024-09-06_14h38.19.914,mdp,2024.2.1,Win32,20,66d7945b1baad48e845df3ce,,,,,,,,,,,,,,,,,,,,,1582.8977,1582.8977,1582.899,1583.4732,1,0,right,0.0417,,1583.4765,1583.4795,1,0,,1583.4817,1583.4833,1,0,,1,1583.4835,1583.4835,1583.4855,1584.9789,0,17,17,17,1,0.4,0.6,0.8,0.2,1,0,,,,,,,,,,,,,,,,,,,,,,,,,,,,,,,,,,,,
,,6686926932e11d5550389cb1,66daf5bc87ab4c7ab1be8217,2024-09-06_14h38.19.914,mdp,2024.2.1,Win32,20,66d7945b1baad48e845df3ce,,,,,,,,,,,,,,,,,,,,,1584.9797,1584.9798,1584.9829,1585.5967,1,0,right,0.0845,,1585.5996,1585.6014,1,0,,1585.6034,1585.6047,1,0,,1,1585.6048,1585.6048,1585.6061,1587.1135,0,18,18,18,1,0.4,0.6,0.8,0.2,1,0,,,,,,,,,,,,,,,,,,,,,,,,,,,,,,,,,,,,
,,6686926932e11d5550389cb1,66daf5bc87ab4c7ab1be8217,2024-09-06_14h38.19.914,mdp,2024.2.1,Win32,20,66d7945b1baad48e845df3ce,,,,,,,,,,,,,,,,,,,,,1587.1141,1587.1141,1587.1157,1587.8416,1,0,right,0.1399,,1587.8433,1587.8445,1,0,,1587.8459,1587.847,1,0,,1,1587.847,1587.8471,1587.8481,1589.3424,0,19,19,19,1,0.4,0.6,0.8,0.2,1,0,,,,,,,,,,,,,,,,,,,,,,,,,,,,,,,,,,,,
,,6686926932e11d5550389cb1,66daf5bc87ab4c7ab1be8217,2024-09-06_14h38.19.914,mdp,2024.2.1,Win32,20,66d7945b1baad48e845df3ce,,,,,,,,,,,,,,,,,,,,,1589.3433,1589.3433,1589.3466,1589.9393,1,0,right,0.0687,,1589.9434,1589.9449,1,0,,1589.9474,1589.9488,1,0,,1,1589.9489,1589.9489,1589.9505,1591.4317,0,20,20,20,1,0.4,0.6,0.8,0.2,1,0,,,,,,,,,,,,,,,,,,,,,,,,,,,,,,,,,,,,
,,6686926932e11d5550389cb1,66daf5bc87ab4c7ab1be8217,2024-09-06_14h38.19.914,mdp,2024.2.1,Win32,20,66d7945b1baad48e845df3ce,,,,,,,,,,,,,,,,,,,,,1591.4322,1591.4322,1591.4341,1592.0092,1,0,right,0.0313,,1592.0107,1592.0122,1,1,,1592.0136,1592.0145,1,0,,1,1592.0145,1592.0145,1592.0155,1593.5166,0,21,21,21,1,0.6,0.4,0.6,0.4,1,0,,,,,,,,,,,,,,,,,,,,,,,,,,,,,,,,,,,,
,,6686926932e11d5550389cb1,66daf5bc87ab4c7ab1be8217,2024-09-06_14h38.19.914,mdp,2024.2.1,Win32,20,66d7945b1baad48e845df3ce,,,,,,,,,,,,,,,,,,,,,1593.5177,1593.5177,1593.5194,1601.3997,1,0,right,7.2997,,1601.4411,1601.4433,1,0,,1601.4446,1601.4454,1,1,,1,1601.4455,1601.4455,1601.4463,1602.9424,0,22,22,22,1,0.6,0.4,0.6,0.4,1,0,,,,,,,,,,,,,,,,,,,,,,,,,,,,,,,,,,,,
,,6686926932e11d5550389cb1,66daf5bc87ab4c7ab1be8217,2024-09-06_14h38.19.914,mdp,2024.2.1,Win32,20,66d7945b1baad48e845df3ce,,,,,,,,,,,,,,,,,,,,,1602.9429,1602.9429,1602.9443,1603.5773,1,0,right,0.1172,,1603.5801,1603.5822,1,1,,1603.5846,1603.5859,1,0,,1,1603.5859,1603.586,1603.5872,1605.0598,0,23,23,23,1,0.6,0.4,0.6,0.4,1,0,,,,,,,,,,,,,,,,,,,,,,,,,,,,,,,,,,,,
,,6686926932e11d5550389cb1,66daf5bc87ab4c7ab1be8217,2024-09-06_14h38.19.914,mdp,2024.2.1,Win32,20,66d7945b1baad48e845df3ce,,,,,,,,,,,,,,,,,,,,,1605.0611,1605.0611,1605.0637,1605.7229,0,0,left,0.1374,,1605.7242,1605.7252,1,0,,1605.7271,1605.7282,1,0,,1,1605.7283,1605.7283,1605.7293,1607.233,0,24,24,24,1,0.6,0.4,0.6,0.4,1,0,,,,,,,,,,,,,,,,,,,,,,,,,,,,,,,,,,,,
,,6686926932e11d5550389cb1,66daf5bc87ab4c7ab1be8217,2024-09-06_14h38.19.914,mdp,2024.2.1,Win32,20,66d7945b1baad48e845df3ce,,,,,,,,,,,,,,,,,,,,,1607.2347,1607.2347,1607.2362,1607.8445,0,0,left,0.0894,,1607.8475,1607.8496,1,0,,1607.8523,1607.854,1,0,,1,1607.8542,1607.8542,1607.8565,1609.3503,0,25,25,25,1,0.6,0.4,0.6,0.4,1,0,,,,,,,,,,,,,,,,,,,,,,,,,,,,,,,,,,,,
,,6686926932e11d5550389cb1,66daf5bc87ab4c7ab1be8217,2024-09-06_14h38.19.914,mdp,2024.2.1,Win32,20,66d7945b1baad48e845df3ce,,,,,,,,,,,,,,,,,,,,,1609.3514,1609.3514,1609.3544,1609.9741,0,0,left,0.0865,,1609.9755,1609.9763,1,1,,1609.9782,1609.9795,1,0,,1,1609.9796,1609.9796,1609.9813,1611.469,0,26,26,26,1,0.6,0.4,0.6,0.4,1,0,,,,,,,,,,,,,,,,,,,,,,,,,,,,,,,,,,,,
,,6686926932e11d5550389cb1,66daf5bc87ab4c7ab1be8217,2024-09-06_14h38.19.914,mdp,2024.2.1,Win32,20,66d7945b1baad48e845df3ce,,,,,,,,,,,,,,,,,,,,,1611.4699,1611.4699,1611.4733,1612.1075,0,0,left,0.1078,,1612.1087,1612.1095,1,0,,1612.1108,1612.1116,1,0,,1,1612.1117,1612.1118,1612.1126,1613.6005,0,27,27,27,1,0.6,0.4,0.6,0.4,1,0,,,,,,,,,,,,,,,,,,,,,,,,,,,,,,,,,,,,
,,6686926932e11d5550389cb1,66daf5bc87ab4c7ab1be8217,2024-09-06_14h38.19.914,mdp,2024.2.1,Win32,20,66d7945b1baad48e845df3ce,,,,,,,,,,,,,,,,,,,,,1613.6028,1613.6028,1613.6054,1614.1881,0,0,left,0.0692,,1614.1895,1614.191,1,0,,1614.1922,1614.1931,1,0,,1,1614.1932,1614.1932,1614.1941,1615.6901,0,28,28,28,1,0.6,0.4,0.6,0.4,1,0,,,,,,,,,,,,,,,,,,,,,,,,,,,,,,,,,,,,
,,6686926932e11d5550389cb1,66daf5bc87ab4c7ab1be8217,2024-09-06_14h38.19.914,mdp,2024.2.1,Win32,20,66d7945b1baad48e845df3ce,,,,,,,,,,,,,,,,,,,,,1615.6915,1615.6915,1615.6943,1616.3514,0,1,left,0.1319,,1616.3527,1616.3538,1,0,,1616.3552,1616.3561,1,1,,0,1616.3562,1616.3562,1616.3572,1617.8473,0,29,29,29,1,0.6,0.4,0.6,0.4,1,0,,,,,,,,,,,,,,,,,,,,,,,,,,,,,,,,,,,,
,,6686926932e11d5550389cb1,66daf5bc87ab4c7ab1be8217,2024-09-06_14h38.19.914,mdp,2024.2.1,Win32,20,66d7945b1baad48e845df3ce,,,,,,,,,,,,,,,,,,,,,1617.8481,1617.8481,1617.8498,1618.3783,0,1,left,0.0015,,1618.3813,1618.3833,1,0,,1618.3863,1618.388,1,0,,0,1618.3882,1618.3882,1618.3915,1619.8824,0,30,30,30,1,0.6,0.4,0.6,0.4,1,0,,,,,,,,,,,,,,,,,,,,,,,,,,,,,,,,,,,,
,,6686926932e11d5550389cb1,66daf5bc87ab4c7ab1be8217,2024-09-06_14h38.19.914,mdp,2024.2.1,Win32,20,66d7945b1baad48e845df3ce,,,,,,,,,,,,,,,,,,,,,1619.8831,1619.8831,1619.8856,1620.5477,0,1,left,0.1344,,1620.5501,1620.5529,1,0,,1620.5566,1620.5585,1,0,,0,1620.5586,1620.5586,1620.561,1622.041,0,31,31,31,1,0.6,0.4,0.6,0.4,1,0,,,,,,,,,,,,,,,,,,,,,,,,,,,,,,,,,,,,
,,6686926932e11d5550389cb1,66daf5bc87ab4c7ab1be8217,2024-09-06_14h38.19.914,mdp,2024.2.1,Win32,20,66d7945b1baad48e845df3ce,,,,,,,,,,,,,,,,,,,,,1622.043,1622.043,1622.0462,1622.745,0,0,left,0.1825,,1622.7482,1622.7501,1,0,,1622.7531,1622.7547,1,0,,1,1622.7548,1622.7549,1622.757,1624.2592,0,32,32,32,1,0.6,0.4,0.6,0.4,1,0,,,,,,,,,,,,,,,,,,,,,,,,,,,,,,,,,,,,
,,6686926932e11d5550389cb1,66daf5bc87ab4c7ab1be8217,2024-09-06_14h38.19.914,mdp,2024.2.1,Win32,20,66d7945b1baad48e845df3ce,,,,,,,,,,,,,,,,,,,,,1624.2596,1624.2596,1624.2612,1625.0101,0,1,left,0.2278,,1625.0138,1625.0155,1,0,,1625.0179,1625.0193,1,1,,0,1625.0195,1625.0195,1625.0223,1626.5098,0,33,33,33,1,0.4,0.6,0.8,0.2,1,0,,,,,,,,,,,,,,,,,,,,,,,,,,,,,,,,,,,,
,,6686926932e11d5550389cb1,66daf5bc87ab4c7ab1be8217,2024-09-06_14h38.19.914,mdp,2024.2.1,Win32,20,66d7945b1baad48e845df3ce,,,,,,,,,,,,,,,,,,,,,1626.5103,1626.5103,1626.5121,1627.0629,0,1,left,0.0114,,1627.0657,1627.0674,1,1,,1627.0711,1627.073,1,1,,0,1627.0731,1627.0731,1627.0746,1628.5673,0,34,34,34,1,0.4,0.6,0.8,0.2,1,0,,,,,,,,,,,,,,,,,,,,,,,,,,,,,,,,,,,,
,,6686926932e11d5550389cb1,66daf5bc87ab4c7ab1be8217,2024-09-06_14h38.19.914,mdp,2024.2.1,Win32,20,66d7945b1baad48e845df3ce,,,,,,,,,,,,,,,,,,,,,1628.568,1628.5681,1628.5715,1629.2659,0,0,left,0.1728,,1629.2672,1629.2684,1,1,,1629.2694,1629.2702,1,1,,1,1629.2702,1629.2702,1629.2715,1630.7692,0,35,35,35,1,0.6,0.4,0.6,0.4,1,0,,,,,,,,,,,,,,,,,,,,,,,,,,,,,,,,,,,,
,,6686926932e11d5550389cb1,66daf5bc87ab4c7ab1be8217,2024-09-06_14h38.19.914,mdp,2024.2.1,Win32,20,66d7945b1baad48e845df3ce,,,,,,,,,,,,,,,,,,,,,1630.77,1630.77,1630.774,1631.2993,0,1,left,0.0007,,1631.3011,1631.3025,1,1,,1631.3039,1631.3049,1,1,,0,1631.3049,1631.3049,1631.3059,1632.8029,0,36,36,36,1,0.6,0.4,0.6,0.4,1,0,,,,,,,,,,,,,,,,,,,,,,,,,,,,,,,,,,,,
,,6686926932e11d5550389cb1,66daf5bc87ab4c7ab1be8217,2024-09-06_14h38.19.914,mdp,2024.2.1,Win32,20,66d7945b1baad48e845df3ce,,,,,,,,,,,,,,,,,,,,,1632.8037,1632.8037,1632.8062,1633.5816,0,1,left,0.2471,,1633.584,1633.5858,1,0,,1633.5877,1633.589,1,1,,0,1633.5892,1633.5892,1633.5912,1635.0862,0,37,37,37,1,0.4,0.6,0.8,0.2,1,0,,,,,,,,,,,,,,,,,,,,,,,,,,,,,,,,,,,,
,,6686926932e11d5550389cb1,66daf5bc87ab4c7ab1be8217,2024-09-06_14h38.19.914,mdp,2024.2.1,Win32,20,66d7945b1baad48e845df3ce,,,,,,,,,,,,,,,,,,,,,1635.087,1635.087,1635.0896,1635.7954,0,1,left,0.1783,,1635.7978,1635.8,1,1,,1635.8028,1635.8044,1,0,,0,1635.8045,1635.8045,1635.8067,1637.2838,0,38,38,38,1,0.4,0.6,0.8,0.2,1,0,,,,,,,,,,,,,,,,,,,,,,,,,,,,,,,,,,,,
,,6686926932e11d5550389cb1,66daf5bc87ab4c7ab1be8217,2024-09-06_14h38.19.914,mdp,2024.2.1,Win32,20,66d7945b1baad48e845df3ce,,,,,,,,,,,,,,,,,,,,,1637.2843,1637.2843,1637.2861,1637.8613,0,1,left,0.0503,,1637.8655,1637.8689,1,1,,1637.8714,1637.873,1,1,,0,1637.8731,1637.8731,1637.8748,1639.3734,0,39,39,39,1,0.4,0.6,0.8,0.2,1,0,,,,,,,,,,,,,,,,,,,,,,,,,,,,,,,,,,,,
,,6686926932e11d5550389cb1,66daf5bc87ab4c7ab1be8217,2024-09-06_14h38.19.914,mdp,2024.2.1,Win32,20,66d7945b1baad48e845df3ce,,,,,,,,,,,,,,,,,,,,,1639.3737,1639.3737,1639.3751,1640.1462,0,0,left,0.2525,,1640.149,1640.1511,1,0,,1640.1533,1640.1548,1,0,,1,1640.155,1640.155,1640.1572,1641.6591,0,40,40,40,1,0.6,0.4,0.2,0.8,1,0,,,,,,,,,,,,,,,,,,,,,,,,,,,,,,,,,,,,
,,6686926932e11d5550389cb1,66daf5bc87ab4c7ab1be8217,2024-09-06_14h38.19.914,mdp,2024.2.1,Win32,20,66d7945b1baad48e845df3ce,,,,,,,,,,,,,,,,,,,,,1641.66,1641.66,1641.6636,1642.198,0,1,left,0.002,,1642.203,1642.2049,1,0,,1642.2083,1642.2101,1,0,,0,1642.2101,1642.2101,1642.2137,1643.7074,0,41,41,41,1,0.6,0.4,0.2,0.8,1,0,,,,,,,,,,,,,,,,,,,,,,,,,,,,,,,,,,,,
,,6686926932e11d5550389cb1,66daf5bc87ab4c7ab1be8217,2024-09-06_14h38.19.914,mdp,2024.2.1,Win32,20,66d7945b1baad48e845df3ce,,,,,,,,,,,,,,,,,,,,,1643.7083,1643.7084,1643.7115,1644.3567,0,0,left,0.1013,,1644.3594,1644.3617,1,0,,1644.3637,1644.3651,1,1,,1,1644.3652,1644.3652,1644.3665,1645.8583,0,42,42,42,1,0.6,0.4,0.2,0.8,1,0,,,,,,,,,,,,,,,,,,,,,,,,,,,,,,,,,,,,
,,6686926932e11d5550389cb1,66daf5bc87ab4c7ab1be8217,2024-09-06_14h38.19.914,mdp,2024.2.1,Win32,20,66d7945b1baad48e845df3ce,,,,,,,,,,,,,,,,,,,,,1645.8588,1645.8588,1645.8599,1646.6758,0,0,left,0.2863,,1646.6786,1646.6803,1,0,,1646.6855,1646.6878,1,0,,1,1646.6879,1646.6879,1646.6899,1648.1886,0,43,43,43,1,0.6,0.4,0.2,0.8,1,0,,,,,,,,,,,,,,,,,,,,,,,,,,,,,,,,,,,,
,,6686926932e11d5550389cb1,66daf5bc87ab4c7ab1be8217,2024-09-06_14h38.19.914,mdp,2024.2.1,Win32,20,66d7945b1baad48e845df3ce,,,,,,,,,,,,,,,,,,,,,1648.1894,1648.1894,1648.1924,1648.932,0,1,left,0.202,,1648.9334,1648.9342,1,0,,1648.9353,1648.9366,1,0,,0,1648.9366,1648.9366,1648.9385,1650.4341,0,44,44,44,1,0.6,0.4,0.2,0.8,1,0,,,,,,,,,,,,,,,,,,,,,,,,,,,,,,,,,,,,
