init_exp.started,init_exp.stopped,participant,session,date,expName,psychopyVersion,OS,frameRate,study_id,disp_instruction.started,disp_instruction.stopped,instruction.thisRepN,instruction.thisTrialN,instruction.thisN,instruction.thisIndex,instruction.ran,instimg_path,consent.started,consent.stopped,key_resp_3.keys,key_resp_3.rt,key_resp_3.duration,n_steps,sequence_path,init_block.started,init_block.stopped,key_resp.keys,key_resp.rt,key_resp.duration,init_trials.started,init_trials.stopped,step0.started,step0.stopped,act0,s1,res0.keys,res0.rt,res0.duration,step1.started,step1.stopped,act1,s2,res1.keys,step2.started,step2.stopped,act2,s3,res2.keys,rew,reward_comp.started,reward_comp.stopped,reward_disp.started,reward_disp.stopped,trials.thisRepN,trials.thisTrialN,trials.thisN,trials.thisIndex,trials.ran,s00a0s10,s00a0s11,s00a1s10,s00a1s11,rew10,rew11,break_block.started,break_block.stopped,block.thisRepN,block.thisTrialN,block.thisN,block.thisIndex,block.ran,s00path,s10path,s11path,s20path,s21path,res1.rt,res1.duration,s10a0s20,s10a0s21,s10a1s20,s10a1s21,s11a0s20,s11a0s21,s11a1s20,s11a1s21,rew20,rew21,res2.rt,res2.duration,s20a0s30,s20a0s31,s20a1s30,s20a1s31,s21a0s30,s21a0s31,s21a1s30,s21a1s31,rew30,rew31
0.0002,0.0009,6689e94d0b49a04be9a2ac5c,66fc99088cfd00dc61387f45,2024-10-01_21h05.25.245,mdp,2024.2.1,Win32,13.08900524,66fa4ebf79326e780c390304,,,,,,,,,,,,,,,,,,,,,,,,,,,,,,,,,,,,,,,,,,,,,,,,,,,,,,,,,,,,,,,,,,,,,,,,,,,,,,,,,,,,,,,,,,,
,,6689e94d0b49a04be9a2ac5c,66fc99088cfd00dc61387f45,2024-10-01_21h05.25.245,mdp,2024.2.1,Win32,13.08900524,66fa4ebf79326e780c390304,0.0043,41.3013,0,0,0,0,1,rlnn_exp/rlnn_exp.001.png,,,,,,,,,,,,,,,,,,,,,,,,,,,,,,,,,,,,,,,,,,,,,,,,,,,,,,,,,,,,,,,,,,,,,,,,,,,,,,,,,,,
,,6689e94d0b49a04be9a2ac5c,66fc99088cfd00dc61387f45,2024-10-01_21h05.25.245,mdp,2024.2.1,Win32,13.08900524,66fa4ebf79326e780c390304,41.3018,63.9842,0,1,1,1,1,rlnn_exp/rlnn_exp.002.png,,,,,,,,,,,,,,,,,,,,,,,,,,,,,,,,,,,,,,,,,,,,,,,,,,,,,,,,,,,,,,,,,,,,,,,,,,,,,,,,,,,
,,6689e94d0b49a04be9a2ac5c,66fc99088cfd00dc61387f45,2024-10-01_21h05.25.245,mdp,2024.2.1,Win32,13.08900524,66fa4ebf79326e780c390304,63.993,77.3723,0,2,2,2,1,rlnn_exp/rlnn_exp.003.png,,,,,,,,,,,,,,,,,,,,,,,,,,,,,,,,,,,,,,,,,,,,,,,,,,,,,,,,,,,,,,,,,,,,,,,,,,,,,,,,,,,
,,6689e94d0b49a04be9a2ac5c,66fc99088cfd00dc61387f45,2024-10-01_21h05.25.245,mdp,2024.2.1,Win32,13.08900524,66fa4ebf79326e780c390304,77.3786,97.4452,0,3,3,3,1,rlnn_exp/rlnn_exp.004.png,,,,,,,,,,,,,,,,,,,,,,,,,,,,,,,,,,,,,,,,,,,,,,,,,,,,,,,,,,,,,,,,,,,,,,,,,,,,,,,,,,,
,,6689e94d0b49a04be9a2ac5c,66fc99088cfd00dc61387f45,2024-10-01_21h05.25.245,mdp,2024.2.1,Win32,13.08900524,66fa4ebf79326e780c390304,,,,,,,,,97.451,111.3891,y,3.8049,,,,,,,,,,,,,,,,,,,,,,,,,,,,,,,,,,,,,,,,,,,,,,,,,,,,,,,,,,,,,,,,,,,,,,,,,,,,,,,
,,6689e94d0b49a04be9a2ac5c,66fc99088cfd00dc61387f45,2024-10-01_21h05.25.245,mdp,2024.2.1,Win32,13.08900524,66fa4ebf79326e780c390304,,,,,,,,,,,,,,1,seqs/st1seq33.csv,111.3976,116.7538,space,4.727,,116.7609,116.761,116.7613,118.923,0,1,left,1.5177,,118.9233,118.9242,,0,,118.9244,118.9252,,1,,0,118.9254,118.9254,118.9256,120.4274,0,0,0,0,1,0.4,0.6,0.8,0.2,1,0,,,,,,,,,,,,,,,,,,,,,,,,,,,,,,,,,,,,
,,6689e94d0b49a04be9a2ac5c,66fc99088cfd00dc61387f45,2024-10-01_21h05.25.245,mdp,2024.2.1,Win32,13.08900524,66fa4ebf79326e780c390304,,,,,,,,,,,,,,,,,,,,,120.4278,120.4278,120.4287,121.6763,1,0,right,0.6284,,121.6771,121.6774,,1,,121.6777,121.678,,0,,1,121.6781,121.6781,121.6785,123.1795,0,1,1,1,1,0.4,0.6,0.8,0.2,1,0,,,,,,,,,,,,,,,,,,,,,,,,,,,,,,,,,,,,
,,6689e94d0b49a04be9a2ac5c,66fc99088cfd00dc61387f45,2024-10-01_21h05.25.245,mdp,2024.2.1,Win32,13.08900524,66fa4ebf79326e780c390304,,,,,,,,,,,,,,,,,,,,,123.1797,123.1797,123.1806,124.7538,1,0,right,0.9499,,124.7546,124.755,,0,,124.7556,124.756,,0,,1,124.7561,124.7561,124.7562,126.2223,0,2,2,2,1,0.8,0.2,0.4,0.6,1,0,,,,,,,,,,,,,,,,,,,,,,,,,,,,,,,,,,,,
,,6689e94d0b49a04be9a2ac5c,66fc99088cfd00dc61387f45,2024-10-01_21h05.25.245,mdp,2024.2.1,Win32,13.08900524,66fa4ebf79326e780c390304,,,,,,,,,,,,,,,,,,,,,126.2226,126.2226,126.2234,127.4738,1,0,right,0.6386,,127.4745,127.475,,1,,127.4753,127.4756,,1,,1,127.4756,127.4756,127.4757,128.9592,0,3,3,3,1,0.8,0.2,0.4,0.6,1,0,,,,,,,,,,,,,,,,,,,,,,,,,,,,,,,,,,,,
,,6689e94d0b49a04be9a2ac5c,66fc99088cfd00dc61387f45,2024-10-01_21h05.25.245,mdp,2024.2.1,Win32,13.08900524,66fa4ebf79326e780c390304,,,,,,,,,,,,,,,,,,,,,128.9595,128.9595,128.9601,130.1323,1,1,right,0.554,,130.1329,130.1333,,0,,130.1335,130.1341,,0,,0,130.1341,130.1341,130.1345,131.6385,0,4,4,4,1,0.8,0.2,0.4,0.6,1,0,,,,,,,,,,,,,,,,,,,,,,,,,,,,,,,,,,,,
,,6689e94d0b49a04be9a2ac5c,66fc99088cfd00dc61387f45,2024-10-01_21h05.25.245,mdp,2024.2.1,Win32,13.08900524,66fa4ebf79326e780c390304,,,,,,,,,,,,,,,,,,,,,131.6387,131.6387,131.6394,132.6467,0,0,left,0.392,,132.6473,132.6477,,0,,132.6481,132.6484,,0,,1,132.6484,132.6484,132.6486,134.1274,0,5,5,5,1,0.8,0.2,0.4,0.6,1,0,,,,,,,,,,,,,,,,,,,,,,,,,,,,,,,,,,,,
,,6689e94d0b49a04be9a2ac5c,66fc99088cfd00dc61387f45,2024-10-01_21h05.25.245,mdp,2024.2.1,Win32,13.08900524,66fa4ebf79326e780c390304,,,,,,,,,,,,,,,,,,,,,134.1276,134.1276,134.1283,135.3062,0,0,left,0.5667,,135.3074,135.3081,,0,,135.3086,135.3088,,0,,1,135.3088,135.3088,135.3091,136.8005,0,6,6,6,1,0.8,0.2,0.4,0.6,1,0,,,,,,,,,,,,,,,,,,,,,,,,,,,,,,,,,,,,
,,6689e94d0b49a04be9a2ac5c,66fc99088cfd00dc61387f45,2024-10-01_21h05.25.245,mdp,2024.2.1,Win32,13.08900524,66fa4ebf79326e780c390304,,,,,,,,,,,,,,,,,,,,,136.8008,136.8008,136.8021,137.9719,0,0,left,0.5642,,137.9726,137.9731,,0,,137.9734,137.9738,,0,,1,137.9738,137.9739,137.9741,139.462,0,7,7,7,1,0.8,0.2,0.4,0.6,1,0,,,,,,,,,,,,,,,,,,,,,,,,,,,,,,,,,,,,
,,6689e94d0b49a04be9a2ac5c,66fc99088cfd00dc61387f45,2024-10-01_21h05.25.245,mdp,2024.2.1,Win32,13.08900524,66fa4ebf79326e780c390304,,,,,,,,,,,,,,,,,,,,,139.4622,139.4622,139.4629,140.5413,0,0,left,0.4765,,140.5419,140.5422,,0,,140.5425,140.5427,,0,,1,140.5427,140.5427,140.5429,142.0185,0,8,8,8,1,0.8,0.2,0.4,0.6,1,0,,,,,,,,,,,,,,,,,,,,,,,,,,,,,,,,,,,,
,,6689e94d0b49a04be9a2ac5c,66fc99088cfd00dc61387f45,2024-10-01_21h05.25.245,mdp,2024.2.1,Win32,13.08900524,66fa4ebf79326e780c390304,,,,,,,,,,,,,,,,,,,,,142.0187,142.0187,142.0196,143.0295,0,0,left,0.3994,,143.03,143.0303,,0,,143.0306,143.0308,,0,,1,143.0308,143.0308,143.0309,144.5225,0,9,9,9,1,0.8,0.2,0.4,0.6,1,0,,,,,,,,,,,,,,,,,,,,,,,,,,,,,,,,,,,,
,,6689e94d0b49a04be9a2ac5c,66fc99088cfd00dc61387f45,2024-10-01_21h05.25.245,mdp,2024.2.1,Win32,13.08900524,66fa4ebf79326e780c390304,,,,,,,,,,,,,,,,,,,,,144.5229,144.5229,144.524,145.307,0,0,left,0.1582,,145.3083,145.309,,0,,145.3095,145.3099,,1,,1,145.3099,145.3099,145.3105,146.8098,0,10,10,10,1,0.4,0.6,0.8,0.2,1,0,,,,,,,,,,,,,,,,,,,,,,,,,,,,,,,,,,,,
,,6689e94d0b49a04be9a2ac5c,66fc99088cfd00dc61387f45,2024-10-01_21h05.25.245,mdp,2024.2.1,Win32,13.08900524,66fa4ebf79326e780c390304,,,,,,,,,,,,,,,,,,,,,146.8102,146.8102,146.8109,147.9743,0,1,left,0.5605,,147.9751,147.9754,,1,,147.9758,147.9762,,1,,0,147.9762,147.9762,147.9766,149.4885,0,11,11,11,1,0.4,0.6,0.8,0.2,1,0,,,,,,,,,,,,,,,,,,,,,,,,,,,,,,,,,,,,
,,6689e94d0b49a04be9a2ac5c,66fc99088cfd00dc61387f45,2024-10-01_21h05.25.245,mdp,2024.2.1,Win32,13.08900524,66fa4ebf79326e780c390304,,,,,,,,,,,,,,,,,,,,,149.4887,149.4887,149.4892,150.5968,1,1,right,0.4863,,150.5973,150.5977,,0,,150.5979,150.5981,,1,,0,150.5981,150.5982,150.5984,152.0545,0,12,12,12,1,0.6,0.4,0.2,0.8,1,0,,,,,,,,,,,,,,,,,,,,,,,,,,,,,,,,,,,,
,,6689e94d0b49a04be9a2ac5c,66fc99088cfd00dc61387f45,2024-10-01_21h05.25.245,mdp,2024.2.1,Win32,13.08900524,66fa4ebf79326e780c390304,,,,,,,,,,,,,,,,,,,,,152.0547,152.0547,152.0552,153.2426,0,1,left,0.5662,,153.2435,153.2444,,1,,153.2449,153.2452,,1,,0,153.2452,153.2452,153.2454,154.7436,0,13,13,13,1,0.6,0.4,0.2,0.8,1,0,,,,,,,,,,,,,,,,,,,,,,,,,,,,,,,,,,,,
,,6689e94d0b49a04be9a2ac5c,66fc99088cfd00dc61387f45,2024-10-01_21h05.25.245,mdp,2024.2.1,Win32,13.08900524,66fa4ebf79326e780c390304,,,,,,,,,,,,,,,,,,,,,154.744,154.744,154.7449,156.1661,0,0,left,0.8096,,156.167,156.1674,,0,,156.1677,156.168,,0,,1,156.168,156.168,156.1684,157.6622,0,14,14,14,1,0.6,0.4,0.2,0.8,1,0,,,,,,,,,,,,,,,,,,,,,,,,,,,,,,,,,,,,
,,6689e94d0b49a04be9a2ac5c,66fc99088cfd00dc61387f45,2024-10-01_21h05.25.245,mdp,2024.2.1,Win32,13.08900524,66fa4ebf79326e780c390304,,,,,,,,,,,,,,,,,,,,,157.6625,157.6625,157.663,158.8208,0,1,left,0.5575,,158.8216,158.8221,,0,,158.8227,158.8229,,0,,0,158.8229,158.823,158.8233,160.3217,0,15,15,15,1,0.6,0.4,0.2,0.8,1,0,,,,,,,,,,,,,,,,,,,,,,,,,,,,,,,,,,,,
,,6689e94d0b49a04be9a2ac5c,66fc99088cfd00dc61387f45,2024-10-01_21h05.25.245,mdp,2024.2.1,Win32,13.08900524,66fa4ebf79326e780c390304,,,,,,,,,,,,,,,,,,,,,160.3219,160.3219,160.3224,161.7335,0,0,left,0.7968,,161.7342,161.7346,,1,,161.7349,161.7351,,1,,1,161.7351,161.7351,161.7355,163.2273,0,16,16,16,1,0.6,0.4,0.2,0.8,1,0,,,,,,,,,,,,,,,,,,,,,,,,,,,,,,,,,,,,
,,6689e94d0b49a04be9a2ac5c,66fc99088cfd00dc61387f45,2024-10-01_21h05.25.245,mdp,2024.2.1,Win32,13.08900524,66fa4ebf79326e780c390304,,,,,,,,,,,,,,,,,,,,,163.2276,163.2276,163.2283,164.1667,1,1,right,0.327,,164.1678,164.1684,,1,,164.1688,164.1691,,1,,0,164.1691,164.1691,164.1694,165.6594,0,17,17,17,1,0.6,0.4,0.2,0.8,1,0,,,,,,,,,,,,,,,,,,,,,,,,,,,,,,,,,,,,
,,6689e94d0b49a04be9a2ac5c,66fc99088cfd00dc61387f45,2024-10-01_21h05.25.245,mdp,2024.2.1,Win32,13.08900524,66fa4ebf79326e780c390304,,,,,,,,,,,,,,,,,,,,,165.6596,165.6597,165.6603,166.8159,1,0,right,0.5445,,166.8166,166.817,,0,,166.8174,166.8177,,1,,1,166.8177,166.8177,166.8181,168.3115,0,18,18,18,1,0.6,0.4,0.2,0.8,1,0,,,,,,,,,,,,,,,,,,,,,,,,,,,,,,,,,,,,
,,6689e94d0b49a04be9a2ac5c,66fc99088cfd00dc61387f45,2024-10-01_21h05.25.245,mdp,2024.2.1,Win32,13.08900524,66fa4ebf79326e780c390304,,,,,,,,,,,,,,,,,,,,,168.3117,168.3117,168.3122,169.3182,0,1,left,0.397,,169.3191,169.3195,,0,,169.3197,169.3202,,0,,0,169.3202,169.3202,169.3206,170.8001,0,19,19,19,1,0.6,0.4,0.2,0.8,1,0,,,,,,,,,,,,,,,,,,,,,,,,,,,,,,,,,,,,
,,6689e94d0b49a04be9a2ac5c,66fc99088cfd00dc61387f45,2024-10-01_21h05.25.245,mdp,2024.2.1,Win32,13.08900524,66fa4ebf79326e780c390304,,,,,,,,,,,,,,,,,,,,,170.8004,170.8004,170.8011,171.7412,0,1,left,0.3257,,171.7422,171.7429,,0,,171.7432,171.7436,,0,,0,171.7437,171.7437,171.7439,173.2537,0,20,20,20,1,0.8,0.2,0.6,0.4,1,0,,,,,,,,,,,,,,,,,,,,,,,,,,,,,,,,,,,,
,,6689e94d0b49a04be9a2ac5c,66fc99088cfd00dc61387f45,2024-10-01_21h05.25.245,mdp,2024.2.1,Win32,13.08900524,66fa4ebf79326e780c390304,,,,,,,,,,,,,,,,,,,,,173.2539,173.2539,173.2545,174.9016,1,1,right,1.0205,,174.9022,174.9025,,0,,174.9028,174.9033,,1,,0,174.9033,174.9033,174.9036,176.3875,0,21,21,21,1,0.8,0.2,0.6,0.4,1,0,,,,,,,,,,,,,,,,,,,,,,,,,,,,,,,,,,,,
,,6689e94d0b49a04be9a2ac5c,66fc99088cfd00dc61387f45,2024-10-01_21h05.25.245,mdp,2024.2.1,Win32,13.08900524,66fa4ebf79326e780c390304,,,,,,,,,,,,,,,,,,,,,176.3877,176.3877,176.3882,177.5587,1,0,right,0.5538,,177.5593,177.5597,,0,,177.5598,177.5601,,0,,1,177.5601,177.5601,177.5603,179.0617,0,22,22,22,1,0.8,0.2,0.6,0.4,1,0,,,,,,,,,,,,,,,,,,,,,,,,,,,,,,,,,,,,
,,6689e94d0b49a04be9a2ac5c,66fc99088cfd00dc61387f45,2024-10-01_21h05.25.245,mdp,2024.2.1,Win32,13.08900524,66fa4ebf79326e780c390304,,,,,,,,,,,,,,,,,,,,,179.0619,179.0619,179.0625,180.0746,1,0,right,0.4012,,180.0753,180.0758,,0,,180.0762,180.0765,,0,,1,180.0765,180.0765,180.0767,181.568,0,23,23,23,1,0.8,0.2,0.6,0.4,1,0,,,,,,,,,,,,,,,,,,,,,,,,,,,,,,,,,,,,
,,6689e94d0b49a04be9a2ac5c,66fc99088cfd00dc61387f45,2024-10-01_21h05.25.245,mdp,2024.2.1,Win32,13.08900524,66fa4ebf79326e780c390304,,,,,,,,,,,,,,,,,,,,,181.5682,181.5682,181.5686,182.5746,1,0,right,0.3968,,182.5761,182.5767,,0,,182.577,182.5777,,0,,1,182.5777,182.5777,182.5787,184.0156,0,24,24,24,1,0.8,0.2,0.6,0.4,1,0,,,,,,,,,,,,,,,,,,,,,,,,,,,,,,,,,,,,
,,6689e94d0b49a04be9a2ac5c,66fc99088cfd00dc61387f45,2024-10-01_21h05.25.245,mdp,2024.2.1,Win32,13.08900524,66fa4ebf79326e780c390304,,,,,,,,,,,,,,,,,,,,,184.0159,184.0159,184.0164,186.6875,1,1,right,2.0357,,186.6932,186.6937,,0,,186.6941,186.6943,,1,,0,186.6943,186.6943,186.6945,188.189,0,25,25,25,1,0.8,0.2,0.6,0.4,1,0,,,,,,,,,,,,,,,,,,,,,,,,,,,,,,,,,,,,
,,6689e94d0b49a04be9a2ac5c,66fc99088cfd00dc61387f45,2024-10-01_21h05.25.245,mdp,2024.2.1,Win32,13.08900524,66fa4ebf79326e780c390304,,,,,,,,,,,,,,,,,,,,,188.1893,188.1893,188.1899,189.4493,0,0,left,0.6329,,189.4501,189.4507,,0,,189.4515,189.4525,,0,,1,189.4525,189.4525,189.4531,190.9019,0,26,26,26,1,0.8,0.2,0.6,0.4,1,0,,,,,,,,,,,,,,,,,,,,,,,,,,,,,,,,,,,,
,,6689e94d0b49a04be9a2ac5c,66fc99088cfd00dc61387f45,2024-10-01_21h05.25.245,mdp,2024.2.1,Win32,13.08900524,66fa4ebf79326e780c390304,,,,,,,,,,,,,,,,,,,,,190.9022,190.9022,190.9027,192.2388,0,0,left,0.7109,,192.24,192.2407,,0,,192.2412,192.2415,,0,,1,192.2415,192.2415,192.2417,193.7381,0,27,27,27,1,0.8,0.2,0.6,0.4,1,0,,,,,,,,,,,,,,,,,,,,,,,,,,,,,,,,,,,,
,,6689e94d0b49a04be9a2ac5c,66fc99088cfd00dc61387f45,2024-10-01_21h05.25.245,mdp,2024.2.1,Win32,13.08900524,66fa4ebf79326e780c390304,,,,,,,,,,,,,,,,,,,,,193.7384,193.7384,193.7391,194.8371,0,0,left,0.4822,,194.8377,194.8386,,1,,194.8392,194.8395,,0,,1,194.8395,194.8395,194.8397,196.3416,0,28,28,28,1,0.8,0.2,0.6,0.4,1,0,,,,,,,,,,,,,,,,,,,,,,,,,,,,,,,,,,,,
,,6689e94d0b49a04be9a2ac5c,66fc99088cfd00dc61387f45,2024-10-01_21h05.25.245,mdp,2024.2.1,Win32,13.08900524,66fa4ebf79326e780c390304,,,,,,,,,,,,,,,,,,,,,196.3418,196.3418,196.3424,197.2781,0,0,left,0.3168,,197.2788,197.2792,,0,,197.2796,197.2798,,1,,1,197.2799,197.2799,197.28,198.7652,0,29,29,29,1,0.8,0.2,0.6,0.4,1,0,,,,,,,,,,,,,,,,,,,,,,,,,,,,,,,,,,,,
,,6689e94d0b49a04be9a2ac5c,66fc99088cfd00dc61387f45,2024-10-01_21h05.25.245,mdp,2024.2.1,Win32,13.08900524,66fa4ebf79326e780c390304,,,,,,,,,,,,,,,,,,,,,198.7654,198.7654,198.7661,199.8897,0,1,left,0.4915,,199.8904,199.8907,,0,,199.8909,199.8911,,1,,0,199.8911,199.8911,199.8913,201.3763,0,30,30,30,1,0.8,0.2,0.6,0.4,1,0,,,,,,,,,,,,,,,,,,,,,,,,,,,,,,,,,,,,
,,6689e94d0b49a04be9a2ac5c,66fc99088cfd00dc61387f45,2024-10-01_21h05.25.245,mdp,2024.2.1,Win32,13.08900524,66fa4ebf79326e780c390304,,,,,,,,,,,,,,,,,,,,,201.3765,201.3765,201.3771,202.3821,0,0,left,0.4021,,202.3828,202.3832,,1,,202.3834,202.3836,,1,,1,202.3836,202.3836,202.3842,203.874,0,31,31,31,1,0.2,0.8,0.8,0.2,1,0,,,,,,,,,,,,,,,,,,,,,,,,,,,,,,,,,,,,
,,6689e94d0b49a04be9a2ac5c,66fc99088cfd00dc61387f45,2024-10-01_21h05.25.245,mdp,2024.2.1,Win32,13.08900524,66fa4ebf79326e780c390304,,,,,,,,,,,,,,,,,,,,,203.8743,203.8743,203.8749,205.0524,1,0,right,0.5636,,205.0532,205.0539,,0,,205.0544,205.0547,,1,,1,205.0547,205.0547,205.0549,206.5292,0,32,32,32,1,0.2,0.8,0.8,0.2,1,0,,,,,,,,,,,,,,,,,,,,,,,,,,,,,,,,,,,,
,,6689e94d0b49a04be9a2ac5c,66fc99088cfd00dc61387f45,2024-10-01_21h05.25.245,mdp,2024.2.1,Win32,13.08900524,66fa4ebf79326e780c390304,,,,,,,,,,,,,,,,,,,,,206.5295,206.5295,206.53,207.538,0,1,left,0.3916,,207.5385,207.5389,,0,,207.5391,207.5393,,0,,0,207.5393,207.5393,207.5394,209.0353,0,33,33,33,1,0.2,0.8,0.8,0.2,1,0,,,,,,,,,,,,,,,,,,,,,,,,,,,,,,,,,,,,
,,6689e94d0b49a04be9a2ac5c,66fc99088cfd00dc61387f45,2024-10-01_21h05.25.245,mdp,2024.2.1,Win32,13.08900524,66fa4ebf79326e780c390304,,,,,,,,,,,,,,,,,,,,,209.0356,209.0356,209.0362,210.0553,1,0,right,0.4041,,210.0558,210.0561,,0,,210.0563,210.0566,,1,,1,210.0566,210.0566,210.0571,211.5372,0,34,34,34,1,0.2,0.8,0.8,0.2,1,0,,,,,,,,,,,,,,,,,,,,,,,,,,,,,,,,,,,,
,,6689e94d0b49a04be9a2ac5c,66fc99088cfd00dc61387f45,2024-10-01_21h05.25.245,mdp,2024.2.1,Win32,13.08900524,66fa4ebf79326e780c390304,,,,,,,,,,,,,,,,,,,,,211.5376,211.5376,211.5382,212.4689,1,1,right,0.3202,,212.4695,212.4698,,0,,212.4703,212.4707,,0,,0,212.4707,212.4707,212.4708,213.9587,0,35,35,35,1,0.2,0.8,0.8,0.2,1,0,,,,,,,,,,,,,,,,,,,,,,,,,,,,,,,,,,,,
,,6689e94d0b49a04be9a2ac5c,66fc99088cfd00dc61387f45,2024-10-01_21h05.25.245,mdp,2024.2.1,Win32,13.08900524,66fa4ebf79326e780c390304,,,,,,,,,,,,,,,,,,,,,213.9589,213.9589,213.9594,215.5138,0,0,left,0.9503,,215.5145,215.5149,,0,,215.5152,215.5156,,0,,1,215.5156,215.5157,215.5159,217.0051,0,36,36,36,1,0.8,0.2,0.6,0.4,1,0,,,,,,,,,,,,,,,,,,,,,,,,,,,,,,,,,,,,
,,6689e94d0b49a04be9a2ac5c,66fc99088cfd00dc61387f45,2024-10-01_21h05.25.245,mdp,2024.2.1,Win32,13.08900524,66fa4ebf79326e780c390304,,,,,,,,,,,,,,,,,,,,,217.0054,217.0054,217.0059,218.1996,0,0,left,0.5681,,218.2004,218.2008,,0,,218.201,218.2012,,0,,1,218.2012,218.2012,218.2015,219.7136,0,37,37,37,1,0.8,0.2,0.6,0.4,1,0,,,,,,,,,,,,,,,,,,,,,,,,,,,,,,,,,,,,
,,6689e94d0b49a04be9a2ac5c,66fc99088cfd00dc61387f45,2024-10-01_21h05.25.245,mdp,2024.2.1,Win32,13.08900524,66fa4ebf79326e780c390304,,,,,,,,,,,,,,,,,,,,,219.7138,219.7139,219.7146,220.7582,0,0,left,0.4074,,220.7591,220.7595,,0,,220.7601,220.7604,,0,,1,220.7604,220.7604,220.7607,222.251,0,38,38,38,1,0.8,0.2,0.6,0.4,1,0,,,,,,,,,,,,,,,,,,,,,,,,,,,,,,,,,,,,
,,6689e94d0b49a04be9a2ac5c,66fc99088cfd00dc61387f45,2024-10-01_21h05.25.245,mdp,2024.2.1,Win32,13.08900524,66fa4ebf79326e780c390304,,,,,,,,,,,,,,,,,,,,,222.2512,222.2512,222.2517,223.4302,0,0,left,0.5658,,223.4308,223.4311,,0,,223.4314,223.4317,,0,,1,223.4317,223.4317,223.4318,224.9437,0,39,39,39,1,0.8,0.2,0.6,0.4,1,0,,,,,,,,,,,,,,,,,,,,,,,,,,,,,,,,,,,,
,,6689e94d0b49a04be9a2ac5c,66fc99088cfd00dc61387f45,2024-10-01_21h05.25.245,mdp,2024.2.1,Win32,13.08900524,66fa4ebf79326e780c390304,,,,,,,,,,,,,,,,,,,,,224.9442,224.9442,224.9462,226.0451,0,1,left,0.4812,,226.0458,226.0461,,0,,226.0464,226.0465,,0,,0,226.0465,226.0465,226.0468,227.5295,0,40,40,40,1,0.8,0.2,0.6,0.4,1,0,,,,,,,,,,,,,,,,,,,,,,,,,,,,,,,,,,,,
,,6689e94d0b49a04be9a2ac5c,66fc99088cfd00dc61387f45,2024-10-01_21h05.25.245,mdp,2024.2.1,Win32,13.08900524,66fa4ebf79326e780c390304,,,,,,,,,,,,,,,,,,,,,227.5296,227.5296,227.5302,228.4755,1,1,right,0.3204,,228.4761,228.4766,,1,,228.4769,228.4771,,0,,0,228.4771,228.4771,228.4773,229.9645,0,41,41,41,1,0.8,0.2,0.6,0.4,1,0,,,,,,,,,,,,,,,,,,,,,,,,,,,,,,,,,,,,
,,6689e94d0b49a04be9a2ac5c,66fc99088cfd00dc61387f45,2024-10-01_21h05.25.245,mdp,2024.2.1,Win32,13.08900524,66fa4ebf79326e780c390304,,,,,,,,,,,,,,,,,,,,,229.9648,229.9648,229.9654,231.5383,1,0,right,0.9463,,231.539,231.5395,,1,,231.54,231.5402,,0,,1,231.5402,231.5402,231.5404,233.0386,0,42,42,42,1,0.8,0.2,0.6,0.4,1,0,,,,,,,,,,,,,,,,,,,,,,,,,,,,,,,,,,,,
,,6689e94d0b49a04be9a2ac5c,66fc99088cfd00dc61387f45,2024-10-01_21h05.25.245,mdp,2024.2.1,Win32,13.08900524,66fa4ebf79326e780c390304,,,,,,,,,,,,,,,,,,,,,233.0389,233.0389,233.0394,234.8172,0,0,left,1.1722,,234.8178,234.8184,,0,,234.8188,234.819,,0,,1,234.8191,234.8191,234.8192,236.2993,0,43,43,43,1,0.8,0.2,0.6,0.4,1,0,,,,,,,,,,,,,,,,,,,,,,,,,,,,,,,,,,,,
,,6689e94d0b49a04be9a2ac5c,66fc99088cfd00dc61387f45,2024-10-01_21h05.25.245,mdp,2024.2.1,Win32,13.08900524,66fa4ebf79326e780c390304,,,,,,,,,,,,,,,,,,,,,236.2997,236.2997,236.3003,237.3031,1,1,right,0.3972,,237.3039,237.3042,,1,,237.3045,237.3047,,1,,0,237.3047,237.3047,237.3048,238.8125,0,44,44,44,1,0.8,0.2,0.6,0.4,1,0,,,,,,,,,,,,,,,,,,,,,,,,,,,,,,,,,,,,
,,6689e94d0b49a04be9a2ac5c,66fc99088cfd00dc61387f45,2024-10-01_21h05.25.245,mdp,2024.2.1,Win32,13.08900524,66fa4ebf79326e780c390304,,,,,,,,,,,,,,,,,,,,,238.8132,238.8132,238.8147,239.5088,0,0,left,0.0799,,239.5095,239.5099,,0,,239.5103,239.5105,,1,,1,239.5106,239.5106,239.5108,240.9531,0,45,45,45,1,0.8,0.2,0.6,0.4,1,0,,,,,,,,,,,,,,,,,,,,,,,,,,,,,,,,,,,,
,,6689e94d0b49a04be9a2ac5c,66fc99088cfd00dc61387f45,2024-10-01_21h05.25.245,mdp,2024.2.1,Win32,13.08900524,66fa4ebf79326e780c390304,,,,,,,,,,,,,,,,,,,,,240.9536,240.9536,240.9544,241.6868,0,1,left,0.0937,,241.6874,241.6877,,1,,241.688,241.6882,,0,,0,241.6882,241.6882,241.6884,243.1985,0,46,46,46,1,0.6,0.4,0.4,0.6,1,0,,,,,,,,,,,,,,,,,,,,,,,,,,,,,,,,,,,,
,,6689e94d0b49a04be9a2ac5c,66fc99088cfd00dc61387f45,2024-10-01_21h05.25.245,mdp,2024.2.1,Win32,13.08900524,66fa4ebf79326e780c390304,,,,,,,,,,,,,,,,,,,,,243.1987,243.1987,243.1993,244.2551,1,1,right,0.4174,,244.2556,244.2559,,1,,244.2561,244.2564,,1,,0,244.2564,244.2564,244.2565,245.7714,0,47,47,47,1,0.6,0.4,0.4,0.6,1,0,,,,,,,,,,,,,,,,,,,,,,,,,,,,,,,,,,,,
,,6689e94d0b49a04be9a2ac5c,66fc99088cfd00dc61387f45,2024-10-01_21h05.25.245,mdp,2024.2.1,Win32,13.08900524,66fa4ebf79326e780c390304,,,,,,,,,,,,,,,,,,,,,245.7718,245.7718,245.7723,246.7768,1,1,right,0.4305,,246.7775,246.778,,1,,246.779,246.7797,,0,,0,246.7798,246.7798,246.7804,248.2797,0,48,48,48,1,0.6,0.4,0.4,0.6,1,0,,,,,,,,,,,,,,,,,,,,,,,,,,,,,,,,,,,,
,,6689e94d0b49a04be9a2ac5c,66fc99088cfd00dc61387f45,2024-10-01_21h05.25.245,mdp,2024.2.1,Win32,13.08900524,66fa4ebf79326e780c390304,,,,,,,,,,,,,,,,,,,,,248.2799,248.2799,248.2805,249.456,0,1,left,0.566,,249.4565,249.4568,,0,,249.4571,249.4574,,0,,0,249.4574,249.4574,249.4578,250.9464,0,49,49,49,1,0.8,0.2,0.8,0.2,1,0,,,,,,,,,,,,,,,,,,,,,,,,,,,,,,,,,,,,
,,6689e94d0b49a04be9a2ac5c,66fc99088cfd00dc61387f45,2024-10-01_21h05.25.245,mdp,2024.2.1,Win32,13.08900524,66fa4ebf79326e780c390304,,,,,,,,,,,,,,,,,,,,,,,,,,,,,,,,,,,,,,,,,,,,,,,,,,,,,,,,250.9469,309.4788,0,0,0,8,1,imgs/goat.png,imgs/kangaroo.png,imgs/rabbit.png,imgs/lion.png,imgs/horse.png,,,,,,,,,,,,,,,,,,,,,,,,
,,6689e94d0b49a04be9a2ac5c,66fc99088cfd00dc61387f45,2024-10-01_21h05.25.245,mdp,2024.2.1,Win32,13.08900524,66fa4ebf79326e780c390304,,,,,,,,,,,,,,2,seqs/st2seq22.csv,309.4851,313.1392,space,3.0252,,313.1419,313.1419,313.1425,314.6599,1,1,right,0.8924,,314.6609,316.4867,1,0,right,316.4873,316.4877,,1,,1,316.4877,316.4877,316.4882,317.9336,0,0,0,0,1,0.2,0.8,0.6,0.4,,,,,,,,,,,,,,,1.205,,0.2,0.8,0.6,0.4,0.2,0.8,0.4,0.6,1,0,,,,,,,,,,,,
,,6689e94d0b49a04be9a2ac5c,66fc99088cfd00dc61387f45,2024-10-01_21h05.25.245,mdp,2024.2.1,Win32,13.08900524,66fa4ebf79326e780c390304,,,,,,,,,,,,,,,,,,,,,317.934,317.934,317.9348,321.1232,1,0,right,2.561,,321.1291,322.4149,1,0,right,322.4156,322.416,,0,,1,322.416,322.416,322.4164,323.8657,0,1,1,1,1,0.2,0.8,0.6,0.4,,,,,,,,,,,,,,,0.6544,,0.2,0.8,0.6,0.4,0.2,0.8,0.4,0.6,1,0,,,,,,,,,,,,
,,6689e94d0b49a04be9a2ac5c,66fc99088cfd00dc61387f45,2024-10-01_21h05.25.245,mdp,2024.2.1,Win32,13.08900524,66fa4ebf79326e780c390304,,,,,,,,,,,,,,,,,,,,,323.8659,323.8659,323.8665,324.8777,1,1,right,0.3982,,324.8794,326.3741,1,0,right,326.3747,326.3751,,1,,1,326.3751,326.3751,326.3754,327.8634,0,2,2,2,1,0.2,0.8,0.6,0.4,,,,,,,,,,,,,,,0.8681,,0.6,0.4,0.4,0.6,0.2,0.8,0.4,0.6,1,0,,,,,,,,,,,,
,,6689e94d0b49a04be9a2ac5c,66fc99088cfd00dc61387f45,2024-10-01_21h05.25.245,mdp,2024.2.1,Win32,13.08900524,66fa4ebf79326e780c390304,,,,,,,,,,,,,,,,,,,,,327.8637,327.8637,327.8642,328.804,1,0,right,0.3231,,328.8047,329.8334,1,0,right,329.8341,329.8344,,0,,1,329.8344,329.8344,329.8345,331.3188,0,3,3,3,1,0.2,0.8,0.6,0.4,,,,,,,,,,,,,,,0.409,,0.6,0.4,0.4,0.6,0.2,0.8,0.4,0.6,1,0,,,,,,,,,,,,
,,6689e94d0b49a04be9a2ac5c,66fc99088cfd00dc61387f45,2024-10-01_21h05.25.245,mdp,2024.2.1,Win32,13.08900524,66fa4ebf79326e780c390304,,,,,,,,,,,,,,,,,,,,,331.319,331.3191,331.3198,332.1072,1,1,right,0.1661,,332.1078,333.2054,1,0,right,333.2059,333.2064,,1,,1,333.2065,333.2065,333.2068,334.704,0,4,4,4,1,0.8,0.2,0.2,0.8,,,,,,,,,,,,,,,0.4896,,0.6,0.4,0.4,0.6,0.2,0.8,0.4,0.6,1,0,,,,,,,,,,,,
,,6689e94d0b49a04be9a2ac5c,66fc99088cfd00dc61387f45,2024-10-01_21h05.25.245,mdp,2024.2.1,Win32,13.08900524,66fa4ebf79326e780c390304,,,,,,,,,,,,,,,,,,,,,334.7042,334.7042,334.7049,335.7947,1,1,right,0.4767,,335.7953,336.81,1,1,right,336.8106,336.8109,,1,,0,336.8109,336.8109,336.8111,338.319,0,5,5,5,1,0.8,0.2,0.2,0.8,,,,,,,,,,,,,,,0.3984,,0.6,0.4,0.4,0.6,0.2,0.8,0.4,0.6,1,0,,,,,,,,,,,,
,,6689e94d0b49a04be9a2ac5c,66fc99088cfd00dc61387f45,2024-10-01_21h05.25.245,mdp,2024.2.1,Win32,13.08900524,66fa4ebf79326e780c390304,,,,,,,,,,,,,,,,,,,,,338.3193,338.3193,338.3199,340.1252,1,1,right,1.1877,,340.1261,341.3851,1,0,right,341.386,341.3865,,1,,1,341.3865,341.3865,341.3868,342.8833,0,6,6,6,1,0.8,0.2,0.2,0.8,,,,,,,,,,,,,,,0.6432,,0.6,0.4,0.4,0.6,0.2,0.8,0.4,0.6,1,0,,,,,,,,,,,,
,,6689e94d0b49a04be9a2ac5c,66fc99088cfd00dc61387f45,2024-10-01_21h05.25.245,mdp,2024.2.1,Win32,13.08900524,66fa4ebf79326e780c390304,,,,,,,,,,,,,,,,,,,,,342.8836,342.8836,342.8843,350.2976,1,1,right,6.8077,,350.3044,351.7839,1,0,right,351.7851,351.7856,,0,,1,351.7856,351.7856,351.7861,353.2872,0,7,7,7,1,0.8,0.2,0.2,0.8,,,,,,,,,,,,,,,0.8646,,0.6,0.4,0.4,0.6,0.6,0.4,0.6,0.4,1,0,,,,,,,,,,,,
,,6689e94d0b49a04be9a2ac5c,66fc99088cfd00dc61387f45,2024-10-01_21h05.25.245,mdp,2024.2.1,Win32,13.08900524,66fa4ebf79326e780c390304,,,,,,,,,,,,,,,,,,,,,353.2873,353.2873,353.2878,354.6298,1,1,right,0.7312,0.0001,354.6304,355.7612,1,1,right,355.7618,355.7621,,1,,0,355.7621,355.7621,355.7623,357.2262,0,8,8,8,1,0.8,0.2,0.2,0.8,,,,,,,,,,,,,,,0.4919,,0.6,0.4,0.4,0.6,0.8,0.2,0.4,0.6,1,0,,,,,,,,,,,,
,,6689e94d0b49a04be9a2ac5c,66fc99088cfd00dc61387f45,2024-10-01_21h05.25.245,mdp,2024.2.1,Win32,13.08900524,66fa4ebf79326e780c390304,,,,,,,,,,,,,,,,,,,,,357.2265,357.2265,357.227,358.9034,0,0,left,1.0498,,358.9043,360.0764,0,0,left,360.0771,360.0775,,0,,1,360.0775,360.0775,360.078,361.5906,0,9,9,9,1,0.8,0.2,0.2,0.8,,,,,,,,,,,,,,,0.5533,,0.6,0.4,0.4,0.6,0.8,0.2,0.4,0.6,1,0,,,,,,,,,,,,
,,6689e94d0b49a04be9a2ac5c,66fc99088cfd00dc61387f45,2024-10-01_21h05.25.245,mdp,2024.2.1,Win32,13.08900524,66fa4ebf79326e780c390304,,,,,,,,,,,,,,,,,,,,,361.5908,361.5908,361.5911,362.5443,0,0,left,0.3285,,362.5449,363.3236,0,1,left,363.3243,363.3247,,1,,0,363.3247,363.3247,363.3248,364.8276,0,10,10,10,1,0.8,0.2,0.2,0.8,,,,,,,,,,,,,,,0.1755,,0.6,0.4,0.4,0.6,0.8,0.2,0.4,0.6,1,0,,,,,,,,,,,,
,,6689e94d0b49a04be9a2ac5c,66fc99088cfd00dc61387f45,2024-10-01_21h05.25.245,mdp,2024.2.1,Win32,13.08900524,66fa4ebf79326e780c390304,,,,,,,,,,,,,,,,,,,,,364.8279,364.8279,364.8288,366.0896,1,1,right,0.639,,366.0905,367.5825,1,1,right,367.583,367.5834,,1,,0,367.5834,367.5834,367.5835,369.0784,0,11,11,11,1,0.8,0.2,0.2,0.8,,,,,,,,,,,,,,,0.8705,,0.6,0.4,0.4,0.6,0.8,0.2,0.4,0.6,1,0,,,,,,,,,,,,
,,6689e94d0b49a04be9a2ac5c,66fc99088cfd00dc61387f45,2024-10-01_21h05.25.245,mdp,2024.2.1,Win32,13.08900524,66fa4ebf79326e780c390304,,,,,,,,,,,,,,,,,,,,,369.0786,369.0786,369.0791,371.2908,1,1,right,1.5863,,371.2914,373.2648,1,1,right,373.2655,373.266,,0,,0,373.266,373.266,373.2664,374.7353,0,12,12,12,1,0.8,0.2,0.2,0.8,,,,,,,,,,,,,,,1.3491,,0.6,0.4,0.4,0.6,0.8,0.2,0.4,0.6,1,0,,,,,,,,,,,,
,,6689e94d0b49a04be9a2ac5c,66fc99088cfd00dc61387f45,2024-10-01_21h05.25.245,mdp,2024.2.1,Win32,13.08900524,66fa4ebf79326e780c390304,,,,,,,,,,,,,,,,,,,,,374.7354,374.7355,374.7361,376.0796,1,0,right,0.7273,,376.0807,377.3628,1,1,right,377.3637,377.3642,,1,,0,377.3643,377.3643,377.3646,378.869,0,13,13,13,1,0.8,0.2,0.2,0.8,,,,,,,,,,,,,,,0.6515,,0.6,0.4,0.4,0.6,0.8,0.2,0.4,0.6,1,0,,,,,,,,,,,,
,,6689e94d0b49a04be9a2ac5c,66fc99088cfd00dc61387f45,2024-10-01_21h05.25.245,mdp,2024.2.1,Win32,13.08900524,66fa4ebf79326e780c390304,,,,,,,,,,,,,,,,,,,,,378.8697,378.8697,378.8705,379.8157,0,0,left,0.3223,,379.8164,381.2303,0,0,left,381.231,381.2313,,1,,1,381.2313,381.2313,381.2317,382.721,0,14,14,14,1,0.8,0.2,0.2,0.8,,,,,,,,,,,,,,,0.7961,,0.6,0.4,0.4,0.6,0.8,0.2,0.4,0.6,1,0,,,,,,,,,,,,
,,6689e94d0b49a04be9a2ac5c,66fc99088cfd00dc61387f45,2024-10-01_21h05.25.245,mdp,2024.2.1,Win32,13.08900524,66fa4ebf79326e780c390304,,,,,,,,,,,,,,,,,,,,,382.7214,382.7214,382.7221,383.7635,0,0,left,0.4123,,383.7643,386.9798,0,0,left,386.9865,386.9869,,0,,1,386.987,386.987,386.9873,388.4677,0,15,15,15,1,0.8,0.2,0.2,0.8,,,,,,,,,,,,,,,2.5987,,0.4,0.6,0.2,0.8,0.8,0.2,0.4,0.6,1,0,,,,,,,,,,,,
,,6689e94d0b49a04be9a2ac5c,66fc99088cfd00dc61387f45,2024-10-01_21h05.25.245,mdp,2024.2.1,Win32,13.08900524,66fa4ebf79326e780c390304,,,,,,,,,,,,,,,,,,,,,388.468,388.468,388.4685,390.5696,0,1,left,1.4696,,390.5703,391.6914,1,1,right,391.6922,391.6927,,0,,0,391.6927,391.6927,391.6933,393.1987,0,16,16,16,1,0.8,0.2,0.2,0.8,,,,,,,,,,,,,,,0.4847,,0.4,0.6,0.2,0.8,0.8,0.2,0.4,0.6,1,0,,,,,,,,,,,,
,,6689e94d0b49a04be9a2ac5c,66fc99088cfd00dc61387f45,2024-10-01_21h05.25.245,mdp,2024.2.1,Win32,13.08900524,66fa4ebf79326e780c390304,,,,,,,,,,,,,,,,,,,,,393.199,393.199,393.1995,394.3772,1,1,right,0.5561,,394.3779,395.6804,1,1,right,395.6811,395.6814,,0,,0,395.6814,395.6814,395.6816,397.1208,0,17,17,17,1,0.8,0.2,0.2,0.8,,,,,,,,,,,,,,,0.7046,,0.4,0.6,0.2,0.8,0.4,0.6,0.6,0.4,1,0,,,,,,,,,,,,
,,6689e94d0b49a04be9a2ac5c,66fc99088cfd00dc61387f45,2024-10-01_21h05.25.245,mdp,2024.2.1,Win32,13.08900524,66fa4ebf79326e780c390304,,,,,,,,,,,,,,,,,,,,,397.1211,397.1211,397.1216,397.9172,1,1,right,0.1692,,397.9181,400.2202,1,0,right,400.2209,400.2212,,0,,1,400.2212,400.2212,400.2215,401.7297,0,18,18,18,1,0.8,0.2,0.2,0.8,,,,,,,,,,,,,,,1.6846,,0.4,0.6,0.2,0.8,0.6,0.4,0.8,0.2,1,0,,,,,,,,,,,,
,,6689e94d0b49a04be9a2ac5c,66fc99088cfd00dc61387f45,2024-10-01_21h05.25.245,mdp,2024.2.1,Win32,13.08900524,66fa4ebf79326e780c390304,,,,,,,,,,,,,,,,,,,,,401.73,401.73,401.7307,402.9826,0,0,left,0.6339,,402.9833,404.2236,0,1,left,404.2243,404.2246,,1,,0,404.2246,404.2246,404.2248,405.7276,0,19,19,19,1,0.8,0.2,0.2,0.8,,,,,,,,,,,,,,,0.6269,,0.2,0.8,0.6,0.4,0.6,0.4,0.8,0.2,1,0,,,,,,,,,,,,
,,6689e94d0b49a04be9a2ac5c,66fc99088cfd00dc61387f45,2024-10-01_21h05.25.245,mdp,2024.2.1,Win32,13.08900524,66fa4ebf79326e780c390304,,,,,,,,,,,,,,,,,,,,,405.7278,405.7278,405.7283,406.6048,1,1,right,0.261,,406.6054,408.0071,1,1,right,408.0077,408.0082,,0,,0,408.0082,408.0082,408.0086,409.5227,0,20,20,20,1,0.8,0.2,0.2,0.8,,,,,,,,,,,,,,,0.7892,,0.2,0.8,0.6,0.4,0.6,0.4,0.8,0.2,1,0,,,,,,,,,,,,
,,6689e94d0b49a04be9a2ac5c,66fc99088cfd00dc61387f45,2024-10-01_21h05.25.245,mdp,2024.2.1,Win32,13.08900524,66fa4ebf79326e780c390304,,,,,,,,,,,,,,,,,,,,,409.5229,409.5229,409.5238,410.5441,1,1,right,0.4061,,410.5447,412.5852,1,0,right,412.5861,412.5866,,0,,1,412.5866,412.5866,412.5868,414.0904,0,21,21,21,1,0.8,0.2,0.2,0.8,,,,,,,,,,,,,,,1.4365,,0.2,0.8,0.6,0.4,0.6,0.4,0.8,0.2,1,0,,,,,,,,,,,,
,,6689e94d0b49a04be9a2ac5c,66fc99088cfd00dc61387f45,2024-10-01_21h05.25.245,mdp,2024.2.1,Win32,13.08900524,66fa4ebf79326e780c390304,,,,,,,,,,,,,,,,,,,,,414.0907,414.0907,414.0912,415.6538,1,0,right,0.9531,,415.6545,416.6789,1,0,right,416.6796,416.6798,,0,,1,416.6798,416.6799,416.68,418.1586,0,22,22,22,1,0.2,0.8,0.8,0.2,,,,,,,,,,,,,,,0.4021,,0.2,0.8,0.6,0.4,0.6,0.4,0.8,0.2,1,0,,,,,,,,,,,,
,,6689e94d0b49a04be9a2ac5c,66fc99088cfd00dc61387f45,2024-10-01_21h05.25.245,mdp,2024.2.1,Win32,13.08900524,66fa4ebf79326e780c390304,,,,,,,,,,,,,,,,,,,,,418.1589,418.1589,418.1593,419.1812,1,0,right,0.4068,,419.182,420.2626,1,0,right,420.2632,420.2636,,0,,1,420.2636,420.2636,420.2638,421.7648,0,23,23,23,1,0.2,0.8,0.8,0.2,,,,,,,,,,,,,,,0.4792,,0.2,0.8,0.6,0.4,0.6,0.4,0.8,0.2,1,0,,,,,,,,,,,,
,,6689e94d0b49a04be9a2ac5c,66fc99088cfd00dc61387f45,2024-10-01_21h05.25.245,mdp,2024.2.1,Win32,13.08900524,66fa4ebf79326e780c390304,,,,,,,,,,,,,,,,,,,,,421.765,421.765,421.7657,422.7256,1,0,right,0.338,,422.7261,424.0171,1,1,right,424.0177,424.0181,,1,,0,424.0181,424.0181,424.0183,425.4669,0,24,24,24,1,0.2,0.8,0.8,0.2,,,,,,,,,,,,,,,0.6561,,0.2,0.8,0.6,0.4,0.6,0.4,0.8,0.2,1,0,,,,,,,,,,,,
,,6689e94d0b49a04be9a2ac5c,66fc99088cfd00dc61387f45,2024-10-01_21h05.25.245,mdp,2024.2.1,Win32,13.08900524,66fa4ebf79326e780c390304,,,,,,,,,,,,,,,,,,,,,425.4672,425.4672,425.4675,426.5819,0,0,left,0.4892,,426.5825,427.6805,0,1,left,427.6814,427.682,,1,,0,427.6821,427.6821,427.6824,429.1794,0,25,25,25,1,0.2,0.8,0.8,0.2,,,,,,,,,,,,,,,0.4799,,0.2,0.8,0.6,0.4,0.6,0.4,0.8,0.2,1,0,,,,,,,,,,,,
,,6689e94d0b49a04be9a2ac5c,66fc99088cfd00dc61387f45,2024-10-01_21h05.25.245,mdp,2024.2.1,Win32,13.08900524,66fa4ebf79326e780c390304,,,,,,,,,,,,,,,,,,,,,429.1797,429.1797,429.1804,430.3536,0,1,left,0.5517,,430.3543,431.3759,1,0,right,431.3766,431.377,,0,,1,431.377,431.377,431.3772,432.872,0,26,26,26,1,0.2,0.8,0.8,0.2,,,,,,,,,,,,,,,0.3954,0.0001,0.2,0.8,0.6,0.4,0.6,0.4,0.8,0.2,1,0,,,,,,,,,,,,
,,6689e94d0b49a04be9a2ac5c,66fc99088cfd00dc61387f45,2024-10-01_21h05.25.245,mdp,2024.2.1,Win32,13.08900524,66fa4ebf79326e780c390304,,,,,,,,,,,,,,,,,,,,,432.8723,432.8723,432.8728,433.9572,0,1,left,0.4751,,433.9581,434.9864,1,0,right,434.987,434.9873,,0,,1,434.9873,434.9873,434.9876,436.4941,0,27,27,27,1,0.2,0.8,0.8,0.2,,,,,,,,,,,,,,,0.404,,0.2,0.8,0.6,0.4,0.6,0.4,0.8,0.2,1,0,,,,,,,,,,,,
,,6689e94d0b49a04be9a2ac5c,66fc99088cfd00dc61387f45,2024-10-01_21h05.25.245,mdp,2024.2.1,Win32,13.08900524,66fa4ebf79326e780c390304,,,,,,,,,,,,,,,,,,,,,436.4944,436.4944,436.495,437.5286,0,1,left,0.4172,,437.5291,438.4675,1,1,right,438.4685,438.469,,0,,0,438.469,438.469,438.4694,439.95,0,28,28,28,1,0.2,0.8,0.8,0.2,,,,,,,,,,,,,,,0.3311,,0.2,0.8,0.6,0.4,0.6,0.4,0.8,0.2,1,0,,,,,,,,,,,,
,,6689e94d0b49a04be9a2ac5c,66fc99088cfd00dc61387f45,2024-10-01_21h05.25.245,mdp,2024.2.1,Win32,13.08900524,66fa4ebf79326e780c390304,,,,,,,,,,,,,,,,,,,,,439.9502,439.9502,439.9506,443.4719,1,0,right,2.9049,,443.4776,444.5711,0,1,left,444.5716,444.5721,,1,,0,444.5721,444.5721,444.5724,446.0133,0,29,29,29,1,0.2,0.8,0.8,0.2,,,,,,,,,,,,,,,0.4831,,0.2,0.8,0.6,0.4,0.6,0.4,0.8,0.2,1,0,,,,,,,,,,,,
,,6689e94d0b49a04be9a2ac5c,66fc99088cfd00dc61387f45,2024-10-01_21h05.25.245,mdp,2024.2.1,Win32,13.08900524,66fa4ebf79326e780c390304,,,,,,,,,,,,,,,,,,,,,446.0136,446.0136,446.0142,447.107,0,0,left,0.4791,,447.1076,448.1966,1,1,right,448.1976,448.1984,,1,,0,448.1984,448.1984,448.199,449.6986,0,30,30,30,1,0.8,0.2,0.2,0.8,,,,,,,,,,,,,,,0.4725,,0.2,0.8,0.6,0.4,0.6,0.4,0.8,0.2,1,0,,,,,,,,,,,,
,,6689e94d0b49a04be9a2ac5c,66fc99088cfd00dc61387f45,2024-10-01_21h05.25.245,mdp,2024.2.1,Win32,13.08900524,66fa4ebf79326e780c390304,,,,,,,,,,,,,,,,,,,,,449.6988,449.6988,449.6994,450.7191,0,0,left,0.4018,,450.72,451.8156,0,0,left,451.816,451.8164,,1,,1,451.8164,451.8164,451.8165,453.3098,0,31,31,31,1,0.8,0.2,0.2,0.8,,,,,,,,,,,,,,,0.4835,,0.2,0.8,0.6,0.4,0.6,0.4,0.8,0.2,1,0,,,,,,,,,,,,
,,6689e94d0b49a04be9a2ac5c,66fc99088cfd00dc61387f45,2024-10-01_21h05.25.245,mdp,2024.2.1,Win32,13.08900524,66fa4ebf79326e780c390304,,,,,,,,,,,,,,,,,,,,,453.3101,453.3101,453.3107,454.2504,0,0,left,0.3248,,454.251,455.3229,0,1,left,455.3237,455.324,,0,,0,455.324,455.324,455.3244,456.7957,0,32,32,32,1,0.8,0.2,0.2,0.8,,,,,,,,,,,,,,,0.4658,,0.2,0.8,0.6,0.4,0.6,0.4,0.8,0.2,1,0,,,,,,,,,,,,
,,6689e94d0b49a04be9a2ac5c,66fc99088cfd00dc61387f45,2024-10-01_21h05.25.245,mdp,2024.2.1,Win32,13.08900524,66fa4ebf79326e780c390304,,,,,,,,,,,,,,,,,,,,,456.796,456.796,456.7965,457.9951,1,1,right,0.5711,,457.9962,459.2959,1,0,right,459.2965,459.2969,,0,,1,459.2969,459.2969,459.2971,460.7403,0,33,33,33,1,0.8,0.2,0.2,0.8,,,,,,,,,,,,,,,0.6655,0,0.2,0.8,0.6,0.4,0.6,0.4,0.8,0.2,1,0,,,,,,,,,,,,
,,6689e94d0b49a04be9a2ac5c,66fc99088cfd00dc61387f45,2024-10-01_21h05.25.245,mdp,2024.2.1,Win32,13.08900524,66fa4ebf79326e780c390304,,,,,,,,,,,,,,,,,,,,,460.7405,460.7405,460.741,470.1662,1,1,right,8.8064,,470.1756,480.0358,1,0,right,480.042,480.0425,,1,,1,480.0426,480.0426,480.0429,481.5242,0,34,34,34,1,0.8,0.2,0.2,0.8,,,,,,,,,,,,,,,9.2475,,0.2,0.8,0.6,0.4,0.6,0.4,0.8,0.2,1,0,,,,,,,,,,,,
,,6689e94d0b49a04be9a2ac5c,66fc99088cfd00dc61387f45,2024-10-01_21h05.25.245,mdp,2024.2.1,Win32,13.08900524,66fa4ebf79326e780c390304,,,,,,,,,,,,,,,,,,,,,481.5244,481.5244,481.5249,482.7822,1,1,right,0.6429,,482.7828,484.5763,1,0,right,484.577,484.5776,,0,,1,484.5776,484.5776,484.5778,486.0737,0,35,35,35,1,0.8,0.2,0.2,0.8,,,,,,,,,,,,,,,1.1982,,0.2,0.8,0.6,0.4,0.6,0.4,0.8,0.2,1,0,,,,,,,,,,,,
,,6689e94d0b49a04be9a2ac5c,66fc99088cfd00dc61387f45,2024-10-01_21h05.25.245,mdp,2024.2.1,Win32,13.08900524,66fa4ebf79326e780c390304,,,,,,,,,,,,,,,,,,,,,486.074,486.074,486.0745,487.2399,1,0,right,0.5541,,487.2405,488.5744,1,0,right,488.5752,488.5758,,1,,1,488.5758,488.5758,488.5761,490.0739,0,36,36,36,1,0.8,0.2,0.2,0.8,,,,,,,,,,,,,,,0.6945,,0.2,0.8,0.6,0.4,0.6,0.4,0.8,0.2,1,0,,,,,,,,,,,,
,,6689e94d0b49a04be9a2ac5c,66fc99088cfd00dc61387f45,2024-10-01_21h05.25.245,mdp,2024.2.1,Win32,13.08900524,66fa4ebf79326e780c390304,,,,,,,,,,,,,,,,,,,,,490.0742,490.0742,490.0747,491.3486,1,1,right,0.6557,,491.3493,496.7379,1,0,right,496.7438,496.7442,,0,,1,496.7442,496.7443,496.7449,498.2521,0,37,37,37,1,0.8,0.2,0.2,0.8,,,,,,,,,,,,,,,4.7437,,0.2,0.8,0.6,0.4,0.6,0.4,0.8,0.2,1,0,,,,,,,,,,,,
,,6689e94d0b49a04be9a2ac5c,66fc99088cfd00dc61387f45,2024-10-01_21h05.25.245,mdp,2024.2.1,Win32,13.08900524,66fa4ebf79326e780c390304,,,,,,,,,,,,,,,,,,,,,498.2523,498.2523,498.2529,499.2727,1,1,right,0.4076,,499.2733,501.4863,1,1,right,501.4868,501.4872,,0,,0,501.4872,501.4872,501.4876,502.9913,0,38,38,38,1,0.8,0.2,0.2,0.8,,,,,,,,,,,,,,,1.6065,,0.2,0.8,0.6,0.4,0.6,0.4,0.8,0.2,1,0,,,,,,,,,,,,
,,6689e94d0b49a04be9a2ac5c,66fc99088cfd00dc61387f45,2024-10-01_21h05.25.245,mdp,2024.2.1,Win32,13.08900524,66fa4ebf79326e780c390304,,,,,,,,,,,,,,,,,,,,,502.9917,502.9917,502.9926,516.536,1,1,right,12.9299,,516.5452,517.7042,1,0,right,517.7048,517.7055,,0,,1,517.7055,517.7055,517.706,519.2024,0,39,39,39,1,0.8,0.2,0.2,0.8,,,,,,,,,,,,,,,0.5494,0,0.2,0.8,0.6,0.4,0.6,0.4,0.8,0.2,1,0,,,,,,,,,,,,
,,6689e94d0b49a04be9a2ac5c,66fc99088cfd00dc61387f45,2024-10-01_21h05.25.245,mdp,2024.2.1,Win32,13.08900524,66fa4ebf79326e780c390304,,,,,,,,,,,,,,,,,,,,,519.2027,519.2027,519.2034,527.9302,1,1,right,8.1376,,527.9364,529.0548,1,1,right,529.0554,529.0557,,0,,0,529.0557,529.0557,529.0559,530.5596,0,40,40,40,1,0.8,0.2,0.2,0.8,,,,,,,,,,,,,,,0.4978,,0.2,0.8,0.6,0.4,0.6,0.4,0.8,0.2,1,0,,,,,,,,,,,,
,,6689e94d0b49a04be9a2ac5c,66fc99088cfd00dc61387f45,2024-10-01_21h05.25.245,mdp,2024.2.1,Win32,13.08900524,66fa4ebf79326e780c390304,,,,,,,,,,,,,,,,,,,,,530.56,530.56,530.5606,532.2938,1,1,right,1.116,,532.2943,534.3117,1,0,right,534.3123,534.3126,,0,,1,534.3126,534.3126,534.3131,535.7945,0,41,41,41,1,0.6,0.4,0.4,0.6,,,,,,,,,,,,,,,1.4068,,0.2,0.8,0.6,0.4,0.6,0.4,0.8,0.2,1,0,,,,,,,,,,,,
,,6689e94d0b49a04be9a2ac5c,66fc99088cfd00dc61387f45,2024-10-01_21h05.25.245,mdp,2024.2.1,Win32,13.08900524,66fa4ebf79326e780c390304,,,,,,,,,,,,,,,,,,,,,535.7947,535.7947,535.7953,537.5301,1,0,right,1.1302,,537.5307,539.3407,1,0,right,539.3412,539.3415,,0,,1,539.3415,539.3415,539.342,540.8367,0,42,42,42,1,0.6,0.4,0.4,0.6,,,,,,,,,,,,,,,1.1974,,0.2,0.8,0.6,0.4,0.6,0.4,0.8,0.2,1,0,,,,,,,,,,,,
,,6689e94d0b49a04be9a2ac5c,66fc99088cfd00dc61387f45,2024-10-01_21h05.25.245,mdp,2024.2.1,Win32,13.08900524,66fa4ebf79326e780c390304,,,,,,,,,,,,,,,,,,,,,540.8371,540.8371,540.8379,551.2635,1,1,right,9.8168,,551.2696,552.43,1,0,right,552.4307,552.431,,1,,1,552.431,552.431,552.4311,553.9296,0,43,43,43,1,0.6,0.4,0.4,0.6,,,,,,,,,,,,,,,0.5509,,0.2,0.8,0.6,0.4,0.6,0.4,0.8,0.2,1,0,,,,,,,,,,,,
,,6689e94d0b49a04be9a2ac5c,66fc99088cfd00dc61387f45,2024-10-01_21h05.25.245,mdp,2024.2.1,Win32,13.08900524,66fa4ebf79326e780c390304,,,,,,,,,,,,,,,,,,,,,553.9298,553.9298,553.9303,554.9547,1,1,right,0.4035,,554.9556,556.0526,1,1,right,556.0534,556.0539,,1,,0,556.0539,556.0539,556.054,557.5433,0,44,44,44,1,0.6,0.4,0.4,0.6,,,,,,,,,,,,,,,0.4853,,0.2,0.8,0.6,0.4,0.6,0.4,0.8,0.2,1,0,,,,,,,,,,,,
,,6689e94d0b49a04be9a2ac5c,66fc99088cfd00dc61387f45,2024-10-01_21h05.25.245,mdp,2024.2.1,Win32,13.08900524,66fa4ebf79326e780c390304,,,,,,,,,,,,,,,,,,,,,557.5437,557.5437,557.5443,558.3986,0,0,left,0.2379,,558.3992,559.369,1,1,right,559.3697,559.37,,0,,0,559.37,559.37,559.3703,560.8171,0,45,45,45,1,0.6,0.4,0.4,0.6,,,,,,,,,,,,,,,0.3402,,0.2,0.8,0.6,0.4,0.6,0.4,0.8,0.2,1,0,,,,,,,,,,,,
,,6689e94d0b49a04be9a2ac5c,66fc99088cfd00dc61387f45,2024-10-01_21h05.25.245,mdp,2024.2.1,Win32,13.08900524,66fa4ebf79326e780c390304,,,,,,,,,,,,,,,,,,,,,560.8174,560.8174,560.818,563.1594,0,0,left,1.7126,,563.1609,564.1226,1,0,right,564.1232,564.1236,,1,,1,564.1236,564.1237,564.124,565.6318,0,46,46,46,1,0.6,0.4,0.4,0.6,,,,,,,,,,,,,,,0.3284,,0.2,0.8,0.6,0.4,0.6,0.4,0.8,0.2,1,0,,,,,,,,,,,,
,,6689e94d0b49a04be9a2ac5c,66fc99088cfd00dc61387f45,2024-10-01_21h05.25.245,mdp,2024.2.1,Win32,13.08900524,66fa4ebf79326e780c390304,,,,,,,,,,,,,,,,,,,,,565.632,565.632,565.6324,566.2541,0,0,left,0.0111,,566.2552,567.1873,0,0,left,567.1882,567.1886,,0,,1,567.1887,567.1887,567.1889,568.6855,0,47,47,47,1,0.6,0.4,0.4,0.6,,,,,,,,,,,,,,,0.3202,,0.2,0.8,0.6,0.4,0.6,0.4,0.8,0.2,1,0,,,,,,,,,,,,
,,6689e94d0b49a04be9a2ac5c,66fc99088cfd00dc61387f45,2024-10-01_21h05.25.245,mdp,2024.2.1,Win32,13.08900524,66fa4ebf79326e780c390304,,,,,,,,,,,,,,,,,,,,,568.6858,568.6858,568.6865,569.3227,1,0,right,0.0071,,569.3233,570.4231,1,0,right,570.4239,570.4243,,0,,1,570.4243,570.4243,570.4246,571.9316,0,48,48,48,1,0.6,0.4,0.4,0.6,,,,,,,,,,,,,,,0.4741,,0.2,0.8,0.6,0.4,0.6,0.4,0.8,0.2,1,0,,,,,,,,,,,,
,,6689e94d0b49a04be9a2ac5c,66fc99088cfd00dc61387f45,2024-10-01_21h05.25.245,mdp,2024.2.1,Win32,13.08900524,66fa4ebf79326e780c390304,,,,,,,,,,,,,,,,,,,,,571.9318,571.9318,571.9321,572.9498,0,1,left,0.4091,,572.9503,574.025,0,1,left,574.0258,574.0262,,1,,0,574.0262,574.0262,574.0264,575.519,0,49,49,49,1,0.6,0.4,0.4,0.6,,,,,,,,,,,,,,,0.4723,,0.2,0.8,0.6,0.4,0.6,0.4,0.8,0.2,1,0,,,,,,,,,,,,
,,6689e94d0b49a04be9a2ac5c,66fc99088cfd00dc61387f45,2024-10-01_21h05.25.245,mdp,2024.2.1,Win32,13.08900524,66fa4ebf79326e780c390304,,,,,,,,,,,,,,,,,,,,,,,,,,,,,,,,,,,,,,,,,,,,,,,,,,,,,,,,575.5191,634.0569,0,1,1,0,1,imgs/cat.png,imgs/lion.png,imgs/goat.png,imgs/rabbit.png,imgs/horse.png,,,,,,,,,,,,,,,,,,,,,,,,
,,6689e94d0b49a04be9a2ac5c,66fc99088cfd00dc61387f45,2024-10-01_21h05.25.245,mdp,2024.2.1,Win32,13.08900524,66fa4ebf79326e780c390304,,,,,,,,,,,,,,3,seqs/st3seq14.csv,634.0645,641.1115,space,6.4181,,641.1206,641.1206,641.121,642.2247,1,1,right,0.4811,0.0001,642.2253,643.1658,1,0,right,643.1666,644.0267,1,0,right,1,644.0268,644.0268,644.0277,645.5246,0,0,0,0,1,0.2,0.8,0.2,0.8,,,,,,,,,,,,,,,0.3254,,0.6,0.4,0.2,0.8,0.2,0.8,0.8,0.2,,,0.2371,,0.6,0.4,0.8,0.2,0.2,0.8,0.8,0.2,1,0
,,6689e94d0b49a04be9a2ac5c,66fc99088cfd00dc61387f45,2024-10-01_21h05.25.245,mdp,2024.2.1,Win32,13.08900524,66fa4ebf79326e780c390304,,,,,,,,,,,,,,,,,,,,,645.5252,645.5252,645.5258,646.1522,1,1,right,0.0065,,646.1529,646.7821,1,0,right,646.7828,647.4137,1,0,right,1,647.4138,647.4138,647.4145,648.8978,0,1,1,1,1,0.2,0.8,0.2,0.8,,,,,,,,,,,,,,,0.0064,,0.6,0.4,0.2,0.8,0.2,0.8,0.8,0.2,,,0.0077,,0.6,0.4,0.8,0.2,0.2,0.8,0.8,0.2,1,0
,,6689e94d0b49a04be9a2ac5c,66fc99088cfd00dc61387f45,2024-10-01_21h05.25.245,mdp,2024.2.1,Win32,13.08900524,66fa4ebf79326e780c390304,,,,,,,,,,,,,,,,,,,,,648.8981,648.8981,648.8986,651.3634,1,1,right,1.8622,,651.3642,654.914,1,0,right,654.9146,655.6429,1,0,right,1,655.6429,655.6429,655.6435,657.1167,0,2,2,2,1,0.2,0.8,0.2,0.8,,,,,,,,,,,,,,,2.902,,0.6,0.4,0.2,0.8,0.2,0.8,0.8,0.2,,,0.0897,,0.6,0.4,0.8,0.2,0.2,0.8,0.8,0.2,1,0
,,6689e94d0b49a04be9a2ac5c,66fc99088cfd00dc61387f45,2024-10-01_21h05.25.245,mdp,2024.2.1,Win32,13.08900524,66fa4ebf79326e780c390304,,,,,,,,,,,,,,,,,,,,,657.1173,657.1173,657.1183,657.7758,1,0,right,0.0094,,657.7767,658.5199,1,0,right,658.5207,659.3149,1,0,right,1,659.315,659.315,659.3157,660.8092,0,3,3,3,1,0.2,0.8,0.2,0.8,,,,,,,,,,,,,,,0.0892,,0.6,0.4,0.2,0.8,0.2,0.8,0.8,0.2,,,0.1618,0,0.6,0.4,0.8,0.2,0.2,0.8,0.8,0.2,1,0
,,6689e94d0b49a04be9a2ac5c,66fc99088cfd00dc61387f45,2024-10-01_21h05.25.245,mdp,2024.2.1,Win32,13.08900524,66fa4ebf79326e780c390304,,,,,,,,,,,,,,,,,,,,,660.8096,660.8096,660.81,662.1187,1,1,right,0.7049,,662.1193,665.0101,1,0,right,665.0106,667.6743,1,0,right,1,667.6745,667.6745,667.6835,669.1457,0,4,4,4,1,0.2,0.8,0.2,0.8,,,,,,,,,,,,,,,2.2659,,0.6,0.4,0.2,0.8,0.2,0.8,0.8,0.2,,,2.0183,,0.6,0.4,0.8,0.2,0.2,0.8,0.8,0.2,1,0
,,6689e94d0b49a04be9a2ac5c,66fc99088cfd00dc61387f45,2024-10-01_21h05.25.245,mdp,2024.2.1,Win32,13.08900524,66fa4ebf79326e780c390304,,,,,,,,,,,,,,,,,,,,,669.1459,669.1459,669.1464,669.8586,1,1,right,0.0827,,669.8592,670.5695,1,0,right,670.5702,671.2831,1,0,right,1,671.2832,671.2832,671.284,672.7822,0,5,5,5,1,0.2,0.8,0.2,0.8,,,,,,,,,,,,,,,0.091,,0.6,0.4,0.2,0.8,0.2,0.8,0.8,0.2,,,0.0843,,0.6,0.4,0.8,0.2,0.2,0.8,0.8,0.2,1,0
,,6689e94d0b49a04be9a2ac5c,66fc99088cfd00dc61387f45,2024-10-01_21h05.25.245,mdp,2024.2.1,Win32,13.08900524,66fa4ebf79326e780c390304,,,,,,,,,,,,,,,,,,,,,672.7825,672.7825,672.783,674.1359,1,1,right,0.7217,,674.1367,674.757,1,0,right,674.7576,675.5367,1,0,right,1,675.5368,675.5368,675.5374,676.9828,0,6,6,6,1,0.2,0.8,0.2,0.8,,,,,,,,,,,,,,,0.0072,,0.6,0.4,0.2,0.8,0.2,0.8,0.8,0.2,,,0.1648,0,0.6,0.4,0.8,0.2,0.4,0.6,0.6,0.4,1,0
,,6689e94d0b49a04be9a2ac5c,66fc99088cfd00dc61387f45,2024-10-01_21h05.25.245,mdp,2024.2.1,Win32,13.08900524,66fa4ebf79326e780c390304,,,,,,,,,,,,,,,,,,,,,676.9831,676.9831,676.9838,678.8121,1,0,right,1.2073,,678.8128,680.4656,1,1,right,680.4662,690.8185,1,1,right,0,690.8186,690.8186,690.8247,692.2659,0,7,7,7,1,0.2,0.8,0.2,0.8,,,,,,,,,,,,,,,1.0361,,0.6,0.4,0.2,0.8,0.2,0.8,0.8,0.2,,,9.7248,,0.6,0.4,0.8,0.2,0.4,0.6,0.6,0.4,1,0
,,6689e94d0b49a04be9a2ac5c,66fc99088cfd00dc61387f45,2024-10-01_21h05.25.245,mdp,2024.2.1,Win32,13.08900524,66fa4ebf79326e780c390304,,,,,,,,,,,,,,,,,,,,,692.2662,692.2662,692.2667,693.0526,1,1,right,0.1651,,693.0534,694.0047,0,0,left,694.0053,694.7223,0,0,left,1,694.7224,694.7224,694.7233,696.232,0,8,8,8,1,0.2,0.8,0.2,0.8,,,,,,,,,,,,,,,0.3284,,0.6,0.4,0.2,0.8,0.2,0.8,0.8,0.2,,,0.0879,,0.6,0.4,0.8,0.2,0.6,0.4,0.8,0.2,1,0
,,6689e94d0b49a04be9a2ac5c,66fc99088cfd00dc61387f45,2024-10-01_21h05.25.245,mdp,2024.2.1,Win32,13.08900524,66fa4ebf79326e780c390304,,,,,,,,,,,,,,,,,,,,,696.2325,696.2325,696.2332,696.8685,0,1,left,0.007,,696.8693,697.6624,1,0,right,697.663,698.3124,1,0,right,1,698.3125,698.3125,698.3134,699.7744,0,9,9,9,1,0.2,0.8,0.2,0.8,,,,,,,,,,,,,,,0.1667,1E-04,0.6,0.4,0.2,0.8,0.2,0.8,0.8,0.2,,,0.0111,,0.6,0.4,0.8,0.2,0.6,0.4,0.8,0.2,1,0
,,6689e94d0b49a04be9a2ac5c,66fc99088cfd00dc61387f45,2024-10-01_21h05.25.245,mdp,2024.2.1,Win32,13.08900524,66fa4ebf79326e780c390304,,,,,,,,,,,,,,,,,,,,,699.7746,699.7746,699.7751,700.4082,0,1,left,0.0105,,700.4091,701.2209,0,1,left,701.2218,701.9383,0,0,left,1,701.9384,701.9384,701.939,703.4404,0,10,10,10,1,0.2,0.8,0.2,0.8,,,,,,,,,,,,,,,0.1733,0.0001,0.6,0.4,0.2,0.8,0.2,0.8,0.8,0.2,,,0.0866,0.0001,0.6,0.4,0.8,0.2,0.6,0.4,0.8,0.2,1,0
,,6689e94d0b49a04be9a2ac5c,66fc99088cfd00dc61387f45,2024-10-01_21h05.25.245,mdp,2024.2.1,Win32,13.08900524,66fa4ebf79326e780c390304,,,,,,,,,,,,,,,,,,,,,703.4406,703.4406,703.4411,704.144,1,1,right,0.0859,,704.1447,704.9992,1,0,right,704.9998,706.1729,0,0,left,1,706.1729,706.1729,706.1735,707.6607,0,11,11,11,1,0.2,0.8,0.2,0.8,,,,,,,,,,,,,,,0.2407,,0.6,0.4,0.2,0.8,0.2,0.8,0.8,0.2,,,0.5528,,0.6,0.4,0.8,0.2,0.6,0.4,0.8,0.2,1,0
,,6689e94d0b49a04be9a2ac5c,66fc99088cfd00dc61387f45,2024-10-01_21h05.25.245,mdp,2024.2.1,Win32,13.08900524,66fa4ebf79326e780c390304,,,,,,,,,,,,,,,,,,,,,707.6612,707.6612,707.662,708.3708,1,1,right,0.0852,,708.3715,709.064,0,1,left,709.0646,709.9934,1,0,right,1,709.9934,709.9934,709.9942,711.4932,0,12,12,12,1,0.2,0.8,0.2,0.8,,,,,,,,,,,,,,,0.0842,,0.6,0.4,0.2,0.8,0.2,0.8,0.8,0.2,,,0.3145,,0.6,0.4,0.8,0.2,0.6,0.4,0.8,0.2,1,0
,,6689e94d0b49a04be9a2ac5c,66fc99088cfd00dc61387f45,2024-10-01_21h05.25.245,mdp,2024.2.1,Win32,13.08900524,66fa4ebf79326e780c390304,,,,,,,,,,,,,,,,,,,,,711.4938,711.4938,711.4945,714.6322,0,0,left,2.516,,714.6379,718.908,1,1,right,718.9138,719.5517,0,1,left,0,719.5518,719.5518,719.5528,721.0459,0,13,13,13,1,0.2,0.8,0.2,0.8,,,,,,,,,,,,,,,3.6469,,0.6,0.4,0.2,0.8,0.2,0.8,0.8,0.2,,,0.0088,,0.6,0.4,0.8,0.2,0.6,0.4,0.8,0.2,1,0
,,6689e94d0b49a04be9a2ac5c,66fc99088cfd00dc61387f45,2024-10-01_21h05.25.245,mdp,2024.2.1,Win32,13.08900524,66fa4ebf79326e780c390304,,,,,,,,,,,,,,,,,,,,,721.0461,721.0461,721.0466,721.6709,0,0,left,0.0074,,721.6716,722.3611,1,1,right,722.3621,723.0638,0,0,left,1,723.0638,723.0638,723.0644,724.5695,0,14,14,14,1,0.2,0.8,0.2,0.8,,,,,,,,,,,,,,,0.086,,0.6,0.4,0.2,0.8,0.2,0.8,0.8,0.2,,,0.0793,0.0002,0.6,0.4,0.8,0.2,0.6,0.4,0.8,0.2,1,0
,,6689e94d0b49a04be9a2ac5c,66fc99088cfd00dc61387f45,2024-10-01_21h05.25.245,mdp,2024.2.1,Win32,13.08900524,66fa4ebf79326e780c390304,,,,,,,,,,,,,,,,,,,,,724.5699,724.5699,724.5703,725.1946,0,1,left,0.0099,,725.1955,727.1675,0,1,left,727.1682,729.404,0,0,left,1,729.4041,729.4041,729.4046,730.8969,0,15,15,15,1,0.2,0.8,0.2,0.8,,,,,,,,,,,,,,,1.3538,,0.6,0.4,0.2,0.8,0.2,0.8,0.8,0.2,,,1.6089,,0.6,0.4,0.8,0.2,0.6,0.4,0.8,0.2,1,0
,,6689e94d0b49a04be9a2ac5c,66fc99088cfd00dc61387f45,2024-10-01_21h05.25.245,mdp,2024.2.1,Win32,13.08900524,66fa4ebf79326e780c390304,,,,,,,,,,,,,,,,,,,,,730.8972,730.8972,730.8978,731.6949,1,1,right,0.1733,,731.6956,733.8776,1,0,right,733.8788,734.8373,1,0,right,1,734.8374,734.8374,734.838,736.2844,0,16,16,16,1,0.2,0.8,0.2,0.8,,,,,,,,,,,,,,,1.5515,,0.6,0.4,0.2,0.8,0.2,0.8,0.8,0.2,,,0.3265,,0.6,0.4,0.8,0.2,0.8,0.2,0.2,0.8,1,0
,,6689e94d0b49a04be9a2ac5c,66fc99088cfd00dc61387f45,2024-10-01_21h05.25.245,mdp,2024.2.1,Win32,13.08900524,66fa4ebf79326e780c390304,,,,,,,,,,,,,,,,,,,,,736.2849,736.2849,736.2856,736.9005,0,1,left,0.0075,,736.901,737.5548,1,1,right,737.5554,738.1918,1,1,right,0,738.1919,738.192,738.1928,739.7025,0,17,17,17,1,0.2,0.8,0.2,0.8,,,,,,,,,,,,,,,0.0071,,0.6,0.4,0.2,0.8,0.2,0.8,0.8,0.2,,,0.0067,0,0.6,0.4,0.8,0.2,0.8,0.2,0.2,0.8,1,0
,,6689e94d0b49a04be9a2ac5c,66fc99088cfd00dc61387f45,2024-10-01_21h05.25.245,mdp,2024.2.1,Win32,13.08900524,66fa4ebf79326e780c390304,,,,,,,,,,,,,,,,,,,,,739.7027,739.7027,739.7032,740.5771,1,0,right,0.2488,,740.5777,741.2945,1,1,right,741.2954,741.9998,1,0,right,1,741.9998,741.9999,742.0009,743.5139,0,18,18,18,1,0.2,0.8,0.2,0.8,,,,,,,,,,,,,,,0.0921,,0.6,0.4,0.2,0.8,0.2,0.8,0.8,0.2,,,0.0834,,0.6,0.4,0.8,0.2,0.8,0.2,0.2,0.8,1,0
,,6689e94d0b49a04be9a2ac5c,66fc99088cfd00dc61387f45,2024-10-01_21h05.25.245,mdp,2024.2.1,Win32,13.08900524,66fa4ebf79326e780c390304,,,,,,,,,,,,,,,,,,,,,743.5144,743.5144,743.5149,744.1553,0,1,left,0.0068,,744.1559,744.9587,0,1,left,744.9594,745.5915,1,1,right,0,745.5915,745.5915,745.5924,747.0311,0,19,19,19,1,0.2,0.8,0.2,0.8,,,,,,,,,,,,,,,0.1745,,0.6,0.4,0.2,0.8,0.2,0.8,0.8,0.2,,,0.0089,,0.6,0.4,0.8,0.2,0.8,0.2,0.2,0.8,1,0
,,6689e94d0b49a04be9a2ac5c,66fc99088cfd00dc61387f45,2024-10-01_21h05.25.245,mdp,2024.2.1,Win32,13.08900524,66fa4ebf79326e780c390304,,,,,,,,,,,,,,,,,,,,,747.0316,747.0316,747.0321,747.6615,1,1,right,0.0123,,747.6627,748.4531,0,1,left,748.4542,750.6537,0,0,left,1,750.6538,750.6538,750.6544,752.1024,0,20,20,20,1,0.2,0.8,0.2,0.8,,,,,,,,,,,,,,,0.1677,,0.6,0.4,0.2,0.8,0.2,0.8,0.8,0.2,,,1.5808,,0.6,0.4,0.8,0.2,0.8,0.2,0.2,0.8,1,0
,,6689e94d0b49a04be9a2ac5c,66fc99088cfd00dc61387f45,2024-10-01_21h05.25.245,mdp,2024.2.1,Win32,13.08900524,66fa4ebf79326e780c390304,,,,,,,,,,,,,,,,,,,,,752.1026,752.1026,752.1031,752.8144,1,0,right,0.0904,,752.8151,754.0794,1,0,right,754.0802,758.233,0,0,left,1,758.233,758.233,758.2416,759.7348,0,21,21,21,1,0.6,0.4,0.4,0.6,,,,,,,,,,,,,,,0.6385,,0.6,0.4,0.2,0.8,0.2,0.8,0.8,0.2,,,3.5199,0,0.6,0.4,0.8,0.2,0.8,0.2,0.2,0.8,1,0
,,6689e94d0b49a04be9a2ac5c,66fc99088cfd00dc61387f45,2024-10-01_21h05.25.245,mdp,2024.2.1,Win32,13.08900524,66fa4ebf79326e780c390304,,,,,,,,,,,,,,,,,,,,,759.7351,759.7351,759.7356,760.363,1,0,right,0.0076,,760.3639,761.6978,1,1,right,761.6986,762.8003,1,1,right,0,762.8004,762.8004,762.8013,764.3176,0,22,22,22,1,0.6,0.4,0.4,0.6,,,,,,,,,,,,,,,0.7303,,0.6,0.4,0.2,0.8,0.2,0.8,0.8,0.2,,,0.4801,,0.6,0.4,0.8,0.2,0.8,0.2,0.2,0.8,1,0
,,6689e94d0b49a04be9a2ac5c,66fc99088cfd00dc61387f45,2024-10-01_21h05.25.245,mdp,2024.2.1,Win32,13.08900524,66fa4ebf79326e780c390304,,,,,,,,,,,,,,,,,,,,,764.3178,764.3178,764.3183,764.9504,1,1,right,0.0074,,764.9514,765.7393,1,0,right,765.7398,767.812,0,1,left,0,767.8121,767.8121,767.8128,769.2626,0,23,23,23,1,0.6,0.4,0.4,0.6,,,,,,,,,,,,,,,0.1649,,0.6,0.4,0.2,0.8,0.2,0.8,0.8,0.2,,,1.4553,,0.6,0.4,0.8,0.2,0.8,0.2,0.2,0.8,1,0
,,6689e94d0b49a04be9a2ac5c,66fc99088cfd00dc61387f45,2024-10-01_21h05.25.245,mdp,2024.2.1,Win32,13.08900524,66fa4ebf79326e780c390304,,,,,,,,,,,,,,,,,,,,,769.2629,769.2629,769.2637,769.9047,1,1,right,0.0067,,769.9056,772.7384,1,1,right,772.7446,773.4702,1,1,right,0,773.4702,773.4702,773.471,774.9619,0,24,24,24,1,0.6,0.4,0.4,0.6,,,,,,,,,,,,,,,2.1948,,0.6,0.4,0.2,0.8,0.2,0.8,0.8,0.2,,,0.0905,,0.6,0.4,0.8,0.2,0.8,0.2,0.2,0.8,1,0
,,6689e94d0b49a04be9a2ac5c,66fc99088cfd00dc61387f45,2024-10-01_21h05.25.245,mdp,2024.2.1,Win32,13.08900524,66fa4ebf79326e780c390304,,,,,,,,,,,,,,,,,,,,,774.9623,774.9623,774.9631,775.6673,0,1,left,0.0858,,775.6678,776.377,1,0,right,776.3776,777.0942,1,0,right,1,777.0942,777.0942,777.0949,778.5806,0,25,25,25,1,0.6,0.4,0.4,0.6,,,,,,,,,,,,,,,0.0863,,0.6,0.4,0.2,0.8,0.2,0.8,0.8,0.2,,,0.0889,,0.6,0.4,0.8,0.2,0.8,0.2,0.2,0.8,1,0
,,6689e94d0b49a04be9a2ac5c,66fc99088cfd00dc61387f45,2024-10-01_21h05.25.245,mdp,2024.2.1,Win32,13.08900524,66fa4ebf79326e780c390304,,,,,,,,,,,,,,,,,,,,,778.5811,778.5811,778.5818,779.2093,1,1,right,0.0061,,779.2099,780.075,1,0,right,780.0758,781.1022,0,0,left,1,781.1022,781.1022,781.1028,782.615,0,26,26,26,1,0.6,0.4,0.4,0.6,,,,,,,,,,,,,,,0.2444,,0.6,0.4,0.2,0.8,0.2,0.8,0.8,0.2,,,0.4032,,0.6,0.4,0.8,0.2,0.8,0.2,0.2,0.8,1,0
,,6689e94d0b49a04be9a2ac5c,66fc99088cfd00dc61387f45,2024-10-01_21h05.25.245,mdp,2024.2.1,Win32,13.08900524,66fa4ebf79326e780c390304,,,,,,,,,,,,,,,,,,,,,782.6152,782.6152,782.6157,783.246,1,0,right,0.011,,783.2471,784.0473,0,0,left,784.0484,784.7534,0,0,left,1,784.7534,784.7534,784.754,786.2586,0,27,27,27,1,0.6,0.4,0.4,0.6,,,,,,,,,,,,,,,0.1687,0,0.6,0.4,0.2,0.8,0.2,0.8,0.8,0.2,,,0.0824,,0.6,0.4,0.8,0.2,0.8,0.2,0.2,0.8,1,0
,,6689e94d0b49a04be9a2ac5c,66fc99088cfd00dc61387f45,2024-10-01_21h05.25.245,mdp,2024.2.1,Win32,13.08900524,66fa4ebf79326e780c390304,,,,,,,,,,,,,,,,,,,,,786.259,786.259,786.2597,786.9714,0,0,left,0.0875,,786.9719,787.5974,0,0,left,787.5983,788.2323,1,1,right,0,788.2323,788.2323,788.233,789.7482,0,28,28,28,1,0.6,0.4,0.4,0.6,,,,,,,,,,,,,,,0.0076,,0.6,0.4,0.2,0.8,0.2,0.8,0.8,0.2,,,0.0064,0,0.8,0.2,0.6,0.4,0.8,0.2,0.2,0.8,1,0
,,6689e94d0b49a04be9a2ac5c,66fc99088cfd00dc61387f45,2024-10-01_21h05.25.245,mdp,2024.2.1,Win32,13.08900524,66fa4ebf79326e780c390304,,,,,,,,,,,,,,,,,,,,,789.7484,789.7485,789.7488,790.3742,1,1,right,0.0063,,790.3749,792.5078,1,1,right,792.5088,793.1356,0,0,left,1,793.1356,793.1356,793.1363,794.6516,0,29,29,29,1,0.6,0.4,0.4,0.6,,,,,,,,,,,,,,,1.503,,0.6,0.4,0.2,0.8,0.2,0.8,0.8,0.2,,,0.0063,,0.8,0.2,0.6,0.4,0.8,0.2,0.2,0.8,1,0
,,6689e94d0b49a04be9a2ac5c,66fc99088cfd00dc61387f45,2024-10-01_21h05.25.245,mdp,2024.2.1,Win32,13.08900524,66fa4ebf79326e780c390304,,,,,,,,,,,,,,,,,,,,,794.652,794.652,794.6524,795.3623,1,0,right,0.0882,,795.363,796.4815,1,1,right,796.4822,797.1938,0,0,left,1,797.1939,797.1939,797.1944,798.7051,0,30,30,30,1,0.6,0.4,0.4,0.6,,,,,,,,,,,,,,,0.4884,,0.6,0.4,0.2,0.8,0.2,0.8,0.8,0.2,,,0.0926,,0.8,0.2,0.6,0.4,0.8,0.2,0.2,0.8,1,0
,,6689e94d0b49a04be9a2ac5c,66fc99088cfd00dc61387f45,2024-10-01_21h05.25.245,mdp,2024.2.1,Win32,13.08900524,66fa4ebf79326e780c390304,,,,,,,,,,,,,,,,,,,,,798.7057,798.7057,798.7065,803.0888,0,1,left,3.7457,,803.0895,804.2238,1,0,right,804.2244,805.113,0,0,left,1,805.113,805.113,805.1136,806.6086,0,31,31,31,1,0.6,0.4,0.4,0.6,,,,,,,,,,,,,,,0.5003,0.0001,0.6,0.4,0.2,0.8,0.2,0.8,0.8,0.2,,,0.2492,,0.8,0.2,0.6,0.4,0.8,0.2,0.2,0.8,1,0
,,6689e94d0b49a04be9a2ac5c,66fc99088cfd00dc61387f45,2024-10-01_21h05.25.245,mdp,2024.2.1,Win32,13.08900524,66fa4ebf79326e780c390304,,,,,,,,,,,,,,,,,,,,,806.609,806.609,806.6096,807.4844,1,1,right,0.2471,,807.4853,808.1845,1,0,right,808.1851,808.8191,1,0,right,1,808.8192,808.8192,808.8198,810.3315,0,32,32,32,1,0.6,0.4,0.4,0.6,,,,,,,,,,,,,,,0.0799,,0.6,0.4,0.2,0.8,0.2,0.8,0.8,0.2,,,0.0074,,0.8,0.2,0.6,0.4,0.8,0.2,0.2,0.8,1,0
,,6689e94d0b49a04be9a2ac5c,66fc99088cfd00dc61387f45,2024-10-01_21h05.25.245,mdp,2024.2.1,Win32,13.08900524,66fa4ebf79326e780c390304,,,,,,,,,,,,,,,,,,,,,810.3318,810.3318,810.3323,812.155,0,0,left,1.1997,,812.1558,815.0799,0,0,left,815.0804,815.784,1,0,right,1,815.784,815.784,815.7845,817.2889,0,33,33,33,1,0.6,0.4,0.4,0.6,,,,,,,,,,,,,,,2.3103,,0.6,0.4,0.2,0.8,0.2,0.8,0.8,0.2,,,0.0944,,0.8,0.2,0.6,0.4,0.8,0.2,0.2,0.8,1,0
,,6689e94d0b49a04be9a2ac5c,66fc99088cfd00dc61387f45,2024-10-01_21h05.25.245,mdp,2024.2.1,Win32,13.08900524,66fa4ebf79326e780c390304,,,,,,,,,,,,,,,,,,,,,817.2894,817.2894,817.2902,817.9921,1,1,right,0.084,,817.9927,818.6011,1,0,right,818.6019,819.2212,1,0,right,1,819.2212,819.2212,819.2218,820.7124,0,34,34,34,1,0.6,0.4,0.4,0.6,,,,,,,,,,,,,,,0.0072,0,0.6,0.4,0.2,0.8,0.2,0.8,0.8,0.2,,,0.0068,,0.8,0.2,0.6,0.4,0.8,0.2,0.2,0.8,1,0
,,6689e94d0b49a04be9a2ac5c,66fc99088cfd00dc61387f45,2024-10-01_21h05.25.245,mdp,2024.2.1,Win32,13.08900524,66fa4ebf79326e780c390304,,,,,,,,,,,,,,,,,,,,,820.7127,820.7127,820.7131,821.6398,1,1,right,0.3206,0.0001,821.6408,822.3315,1,0,right,822.3321,823.2642,1,0,right,1,823.2644,823.2644,823.265,824.7767,0,35,35,35,1,0.6,0.4,0.4,0.6,,,,,,,,,,,,,,,0.0823,,0.6,0.4,0.2,0.8,0.2,0.8,0.8,0.2,,,0.3294,,0.8,0.2,0.6,0.4,0.8,0.2,0.2,0.8,1,0
,,6689e94d0b49a04be9a2ac5c,66fc99088cfd00dc61387f45,2024-10-01_21h05.25.245,mdp,2024.2.1,Win32,13.08900524,66fa4ebf79326e780c390304,,,,,,,,,,,,,,,,,,,,,824.777,824.777,824.7775,825.4847,0,0,left,0.0843,,825.4855,826.129,1,1,right,826.1296,826.9011,0,1,left,0,826.9012,826.9012,826.9017,828.3796,0,36,36,36,1,0.6,0.4,0.4,0.6,,,,,,,,,,,,,,,0.0071,0.0001,0.6,0.4,0.2,0.8,0.2,0.8,0.8,0.2,,,0.1616,,0.8,0.2,0.6,0.4,0.8,0.2,0.2,0.8,1,0
,,6689e94d0b49a04be9a2ac5c,66fc99088cfd00dc61387f45,2024-10-01_21h05.25.245,mdp,2024.2.1,Win32,13.08900524,66fa4ebf79326e780c390304,,,,,,,,,,,,,,,,,,,,,828.38,828.38,828.3807,829.0877,1,1,right,0.0911,,829.0884,829.7986,0,1,left,829.7993,830.5917,0,1,left,0,830.5917,830.5917,830.5923,832.1035,0,37,37,37,1,0.6,0.4,0.4,0.6,,,,,,,,,,,,,,,0.084,,0.6,0.4,0.2,0.8,0.2,0.8,0.8,0.2,,,0.1713,,0.8,0.2,0.6,0.4,0.8,0.2,0.2,0.8,1,0
,,6689e94d0b49a04be9a2ac5c,66fc99088cfd00dc61387f45,2024-10-01_21h05.25.245,mdp,2024.2.1,Win32,13.08900524,66fa4ebf79326e780c390304,,,,,,,,,,,,,,,,,,,,,832.1039,832.1039,832.1043,832.8297,1,1,right,0.0919,,832.8305,833.4501,1,0,right,833.4507,834.1742,0,0,left,1,834.1742,834.1743,834.1747,835.6818,0,38,38,38,1,0.6,0.4,0.4,0.6,,,,,,,,,,,,,,,0.0072,,0.6,0.4,0.2,0.8,0.2,0.8,0.8,0.2,,,0.0927,,0.8,0.2,0.6,0.4,0.8,0.2,0.2,0.8,1,0
,,6689e94d0b49a04be9a2ac5c,66fc99088cfd00dc61387f45,2024-10-01_21h05.25.245,mdp,2024.2.1,Win32,13.08900524,66fa4ebf79326e780c390304,,,,,,,,,,,,,,,,,,,,,835.6821,835.6821,835.6827,836.8845,1,1,right,0.5796,,836.885,837.5319,1,0,right,837.5327,838.1595,1,0,right,1,838.1596,838.1596,838.1602,839.6773,0,39,39,39,1,0.6,0.4,0.4,0.6,,,,,,,,,,,,,,,0.007,,0.6,0.4,0.2,0.8,0.2,0.8,0.8,0.2,,,0.0076,,0.2,0.8,0.4,0.6,0.8,0.2,0.2,0.8,1,0
,,6689e94d0b49a04be9a2ac5c,66fc99088cfd00dc61387f45,2024-10-01_21h05.25.245,mdp,2024.2.1,Win32,13.08900524,66fa4ebf79326e780c390304,,,,,,,,,,,,,,,,,,,,,839.6776,839.6776,839.6781,842.5155,1,1,right,2.2159,0,842.5216,843.153,1,0,right,843.1541,843.7743,0,1,left,0,843.7743,843.7743,843.7749,845.2205,0,40,40,40,1,0.6,0.4,0.4,0.6,,,,,,,,,,,,,,,0.0068,,0.6,0.4,0.2,0.8,0.2,0.8,0.8,0.2,,,0.0071,,0.2,0.8,0.4,0.6,0.8,0.2,0.2,0.8,1,0
,,6689e94d0b49a04be9a2ac5c,66fc99088cfd00dc61387f45,2024-10-01_21h05.25.245,mdp,2024.2.1,Win32,13.08900524,66fa4ebf79326e780c390304,,,,,,,,,,,,,,,,,,,,,845.2208,845.2208,845.2212,846.0019,1,1,right,0.1632,,846.0025,846.7106,1,0,right,846.7113,847.518,0,1,left,0,847.5181,847.5181,847.5191,849.0296,0,41,41,41,1,0.6,0.4,0.4,0.6,,,,,,,,,,,,,,,0.082,,0.6,0.4,0.2,0.8,0.2,0.8,0.8,0.2,,,0.1719,,0.2,0.8,0.4,0.6,0.8,0.2,0.2,0.8,1,0
,,6689e94d0b49a04be9a2ac5c,66fc99088cfd00dc61387f45,2024-10-01_21h05.25.245,mdp,2024.2.1,Win32,13.08900524,66fa4ebf79326e780c390304,,,,,,,,,,,,,,,,,,,,,849.03,849.03,849.0308,849.6658,0,0,left,0.0071,0.0001,849.6664,850.2977,1,1,right,850.2985,850.9313,1,1,right,0,850.9313,850.9313,850.9319,852.4245,0,42,42,42,1,0.6,0.4,0.4,0.6,,,,,,,,,,,,,,,0.0075,,0.6,0.4,0.2,0.8,0.2,0.8,0.8,0.2,,,0.0068,,0.8,0.2,0.2,0.8,0.8,0.2,0.2,0.8,1,0
,,6689e94d0b49a04be9a2ac5c,66fc99088cfd00dc61387f45,2024-10-01_21h05.25.245,mdp,2024.2.1,Win32,13.08900524,66fa4ebf79326e780c390304,,,,,,,,,,,,,,,,,,,,,852.4248,852.4248,852.4254,853.1318,0,1,left,0.0901,0.0001,853.1324,853.7661,1,0,right,853.7668,854.4805,1,1,right,0,854.4805,854.4805,854.4811,855.926,0,43,43,43,1,0.2,0.8,0.6,0.4,,,,,,,,,,,,,,,0.0073,,0.6,0.4,0.2,0.8,0.2,0.8,0.8,0.2,,,0.0892,,0.8,0.2,0.2,0.8,0.8,0.2,0.2,0.8,1,0
,,6689e94d0b49a04be9a2ac5c,66fc99088cfd00dc61387f45,2024-10-01_21h05.25.245,mdp,2024.2.1,Win32,13.08900524,66fa4ebf79326e780c390304,,,,,,,,,,,,,,,,,,,,,855.9264,855.9264,855.9272,856.556,0,1,left,0.0076,,856.5565,857.2711,1,0,right,857.2717,857.9849,0,0,left,1,857.9849,857.9849,857.9857,859.4279,0,44,44,44,1,0.2,0.8,0.6,0.4,,,,,,,,,,,,,,,0.0906,,0.6,0.4,0.2,0.8,0.2,0.8,0.8,0.2,,,0.0912,,0.8,0.2,0.2,0.8,0.8,0.2,0.2,0.8,1,0
,,6689e94d0b49a04be9a2ac5c,66fc99088cfd00dc61387f45,2024-10-01_21h05.25.245,mdp,2024.2.1,Win32,13.08900524,66fa4ebf79326e780c390304,,,,,,,,,,,,,,,,,,,,,859.4281,859.4281,859.4286,860.1293,1,0,right,0.0943,,860.1299,860.8521,1,0,right,860.8529,862.9941,0,0,left,1,862.9941,862.9941,862.9947,864.509,0,45,45,45,1,0.2,0.8,0.6,0.4,,,,,,,,,,,,,,,0.0944,,0.2,0.8,0.8,0.2,0.2,0.8,0.8,0.2,,,1.5151,,0.8,0.2,0.2,0.8,0.8,0.2,0.2,0.8,1,0
,,6689e94d0b49a04be9a2ac5c,66fc99088cfd00dc61387f45,2024-10-01_21h05.25.245,mdp,2024.2.1,Win32,13.08900524,66fa4ebf79326e780c390304,,,,,,,,,,,,,,,,,,,,,864.5093,864.5093,864.5098,865.3058,1,0,right,0.1675,,865.3064,866.4092,0,1,left,866.41,867.2895,1,0,right,1,867.2896,867.2896,867.2905,868.8052,0,46,46,46,1,0.2,0.8,0.6,0.4,,,,,,,,,,,,,,,0.4855,,0.2,0.8,0.8,0.2,0.2,0.8,0.8,0.2,,,0.2464,,0.8,0.2,0.2,0.8,0.8,0.2,0.2,0.8,1,0
,,6689e94d0b49a04be9a2ac5c,66fc99088cfd00dc61387f45,2024-10-01_21h05.25.245,mdp,2024.2.1,Win32,13.08900524,66fa4ebf79326e780c390304,,,,,,,,,,,,,,,,,,,,,868.8057,868.8057,868.8063,870.3405,0,1,left,0.9039,,870.3414,871.2971,1,1,right,871.2977,872.114,0,1,left,0,872.114,872.1141,872.1148,873.5644,0,47,47,47,1,0.2,0.8,0.6,0.4,,,,,,,,,,,,,,,0.3259,,0.2,0.8,0.8,0.2,0.2,0.8,0.8,0.2,,,0.1709,,0.8,0.2,0.2,0.8,0.8,0.2,0.2,0.8,1,0
,,6689e94d0b49a04be9a2ac5c,66fc99088cfd00dc61387f45,2024-10-01_21h05.25.245,mdp,2024.2.1,Win32,13.08900524,66fa4ebf79326e780c390304,,,,,,,,,,,,,,,,,,,,,873.5647,873.5647,873.5652,874.8431,0,1,left,0.653,,874.844,875.4866,1,1,right,875.4875,876.1181,0,1,left,0,876.1182,876.1182,876.1188,877.6282,0,48,48,48,1,0.2,0.8,0.6,0.4,,,,,,,,,,,,,,,0.0108,,0.2,0.8,0.8,0.2,0.2,0.8,0.8,0.2,,,0.0073,,0.8,0.2,0.2,0.8,0.8,0.2,0.2,0.8,1,0
,,6689e94d0b49a04be9a2ac5c,66fc99088cfd00dc61387f45,2024-10-01_21h05.25.245,mdp,2024.2.1,Win32,13.08900524,66fa4ebf79326e780c390304,,,,,,,,,,,,,,,,,,,,,877.6284,877.6284,877.629,878.3452,1,0,right,0.0909,,878.3461,879.0543,1,0,right,879.0552,879.7657,1,1,right,0,879.7658,879.7658,879.7665,881.2736,0,49,49,49,1,0.2,0.8,0.6,0.4,,,,,,,,,,,,,,,0.0912,,0.2,0.8,0.8,0.2,0.2,0.8,0.8,0.2,,,0.089,0,0.8,0.2,0.2,0.8,0.8,0.2,0.2,0.8,1,0
,,6689e94d0b49a04be9a2ac5c,66fc99088cfd00dc61387f45,2024-10-01_21h05.25.245,mdp,2024.2.1,Win32,13.08900524,66fa4ebf79326e780c390304,,,,,,,,,,,,,,,,,,,,,,,,,,,,,,,,,,,,,,,,,,,,,,,,,,,,,,,,881.2737,939.8138,0,2,2,2,1,imgs/dog.png,imgs/goat.png,imgs/elephant.png,imgs/rabbit.png,imgs/kangaroo.png,,,,,,,,,,,,,,,,,,,,,,,,
,,6689e94d0b49a04be9a2ac5c,66fc99088cfd00dc61387f45,2024-10-01_21h05.25.245,mdp,2024.2.1,Win32,13.08900524,66fa4ebf79326e780c390304,,,,,,,,,,,,,,3,seqs/st3seq2.csv,939.8205,1159.7789,space,219.3099,,1159.7886,1159.7886,1159.7891,1160.4232,1,1,right,0.0068,,1160.4238,1161.0543,0,0,left,1161.0549,1161.684,0,1,left,0,1161.6841,1161.6841,1161.6847,1163.1972,0,0,0,0,1,0.6,0.4,0.4,0.6,,,,,,,,,,,,,,,0.0073,,0.4,0.6,0.4,0.6,0.4,0.6,0.6,0.4,,,0.0095,0.0001,0.4,0.6,0.2,0.8,0.2,0.8,0.8,0.2,1,0
,,6689e94d0b49a04be9a2ac5c,66fc99088cfd00dc61387f45,2024-10-01_21h05.25.245,mdp,2024.2.1,Win32,13.08900524,66fa4ebf79326e780c390304,,,,,,,,,,,,,,,,,,,,,1163.1986,1163.1987,1163.1995,1163.844,0,0,left,0.0083,,1163.8448,1165.0368,0,1,left,1165.0377,1168.4634,1,0,right,1,1168.4635,1168.4635,1168.4697,1169.9139,0,1,1,1,1,0.6,0.4,0.4,0.6,,,,,,,,,,,,,,,0.5758,,0.4,0.6,0.4,0.6,0.4,0.6,0.6,0.4,,,2.7848,,0.4,0.6,0.2,0.8,0.2,0.8,0.8,0.2,1,0
,,6689e94d0b49a04be9a2ac5c,66fc99088cfd00dc61387f45,2024-10-01_21h05.25.245,mdp,2024.2.1,Win32,13.08900524,66fa4ebf79326e780c390304,,,,,,,,,,,,,,,,,,,,,1169.9142,1169.9142,1169.9148,1170.6264,1,1,right,0.0896,,1170.6269,1171.2559,0,1,left,1171.2564,1172.0425,1,0,right,1,1172.0425,1172.0426,1172.0433,1173.5415,0,2,2,2,1,0.6,0.4,0.4,0.6,,,,,,,,,,,,,,,0.0065,,0.4,0.6,0.4,0.6,0.4,0.6,0.6,0.4,,,0.1739,,0.4,0.6,0.2,0.8,0.2,0.8,0.8,0.2,1,0
,,6689e94d0b49a04be9a2ac5c,66fc99088cfd00dc61387f45,2024-10-01_21h05.25.245,mdp,2024.2.1,Win32,13.08900524,66fa4ebf79326e780c390304,,,,,,,,,,,,,,,,,,,,,1173.5417,1173.5417,1173.5423,1174.3164,1,0,right,0.1721,,1174.3172,1175.0282,0,0,left,1175.0293,1175.6654,1,0,right,1,1175.6655,1175.6655,1175.6662,1177.1643,0,3,3,3,1,0.6,0.4,0.4,0.6,,,,,,,,,,,,,,,0.088,0.0001,0.4,0.6,0.4,0.6,0.6,0.4,0.2,0.8,,,0.0084,,0.4,0.6,0.2,0.8,0.2,0.8,0.8,0.2,1,0
,,6689e94d0b49a04be9a2ac5c,66fc99088cfd00dc61387f45,2024-10-01_21h05.25.245,mdp,2024.2.1,Win32,13.08900524,66fa4ebf79326e780c390304,,,,,,,,,,,,,,,,,,,,,1177.1647,1177.1647,1177.1652,1177.789,1,1,right,0.0071,,1177.7896,1178.4973,0,1,left,1178.4979,1179.1344,0,1,left,0,1179.1345,1179.1345,1179.1351,1180.5919,0,4,4,4,1,0.6,0.4,0.4,0.6,,,,,,,,,,,,,,,0.0835,,0.4,0.6,0.4,0.6,0.6,0.4,0.2,0.8,,,0.0084,,0.4,0.6,0.2,0.8,0.2,0.8,0.8,0.2,1,0
,,6689e94d0b49a04be9a2ac5c,66fc99088cfd00dc61387f45,2024-10-01_21h05.25.245,mdp,2024.2.1,Win32,13.08900524,66fa4ebf79326e780c390304,,,,,,,,,,,,,,,,,,,,,1180.5922,1180.5922,1180.5927,1181.2354,0,1,left,0.009,,1181.2362,1181.8805,1,1,right,1181.8811,1182.6026,0,1,left,0,1182.6027,1182.6027,1182.6032,1184.1149,0,5,5,5,1,0.6,0.4,0.4,0.6,,,,,,,,,,,,,,,0.0075,,0.4,0.6,0.4,0.6,0.6,0.4,0.2,0.8,,,0.0911,,0.4,0.6,0.2,0.8,0.2,0.8,0.8,0.2,1,0
,,6689e94d0b49a04be9a2ac5c,66fc99088cfd00dc61387f45,2024-10-01_21h05.25.245,mdp,2024.2.1,Win32,13.08900524,66fa4ebf79326e780c390304,,,,,,,,,,,,,,,,,,,,,1184.1151,1184.1151,1184.1156,1184.8185,1,0,right,0.0967,,1184.8192,1185.5741,1,1,right,1185.5748,1186.1931,1,0,right,1,1186.1932,1186.1932,1186.1938,1187.6922,0,6,6,6,1,0.6,0.4,0.4,0.6,,,,,,,,,,,,,,,0.1579,,0.4,0.6,0.4,0.6,0.6,0.4,0.2,0.8,,,0.0064,,0.4,0.6,0.2,0.8,0.2,0.8,0.8,0.2,1,0
,,6689e94d0b49a04be9a2ac5c,66fc99088cfd00dc61387f45,2024-10-01_21h05.25.245,mdp,2024.2.1,Win32,13.08900524,66fa4ebf79326e780c390304,,,,,,,,,,,,,,,,,,,,,1187.6924,1187.6924,1187.6929,1188.3148,1,0,right,0.0065,,1188.3154,1188.9437,1,1,right,1188.9442,1189.5702,0,1,left,0,1189.5702,1189.5702,1189.5712,1191.0692,0,7,7,7,1,0.6,0.4,0.4,0.6,,,,,,,,,,,,,,,0.0083,,0.4,0.6,0.4,0.6,0.6,0.4,0.2,0.8,,,0.0063,,0.4,0.6,0.2,0.8,0.2,0.8,0.8,0.2,1,0
,,6689e94d0b49a04be9a2ac5c,66fc99088cfd00dc61387f45,2024-10-01_21h05.25.245,mdp,2024.2.1,Win32,13.08900524,66fa4ebf79326e780c390304,,,,,,,,,,,,,,,,,,,,,1191.0695,1191.0696,1191.0701,1191.685,0,0,left,0.0065,,1191.6857,1192.471,1,1,right,1192.4717,1193.1009,1,1,right,0,1193.1009,1193.1009,1193.1014,1194.5704,0,8,8,8,1,0.6,0.4,0.4,0.6,,,,,,,,,,,,,,,0.1601,,0.4,0.6,0.4,0.6,0.6,0.4,0.2,0.8,,,0.0054,,0.4,0.6,0.2,0.8,0.2,0.8,0.8,0.2,1,0
,,6689e94d0b49a04be9a2ac5c,66fc99088cfd00dc61387f45,2024-10-01_21h05.25.245,mdp,2024.2.1,Win32,13.08900524,66fa4ebf79326e780c390304,,,,,,,,,,,,,,,,,,,,,1194.571,1194.571,1194.572,1195.439,1,1,right,0.2494,,1195.4399,1196.214,1,1,right,1196.2146,1196.9192,1,0,right,1,1196.9192,1196.9192,1196.92,1198.3683,0,9,9,9,1,0.6,0.4,0.4,0.6,,,,,,,,,,,,,,,0.1675,,0.4,0.6,0.4,0.6,0.6,0.4,0.2,0.8,,,0.0926,,0.4,0.6,0.2,0.8,0.2,0.8,0.8,0.2,1,0
,,6689e94d0b49a04be9a2ac5c,66fc99088cfd00dc61387f45,2024-10-01_21h05.25.245,mdp,2024.2.1,Win32,13.08900524,66fa4ebf79326e780c390304,,,,,,,,,,,,,,,,,,,,,1198.3686,1198.3686,1198.3691,1199.1491,1,1,right,0.1709,,1199.1498,1199.7755,1,0,right,1199.7762,1200.595,1,0,right,1,1200.5951,1200.5951,1200.5958,1202.1151,0,10,10,10,1,0.6,0.4,0.4,0.6,,,,,,,,,,,,,,,0.0058,,0.4,0.6,0.4,0.6,0.6,0.4,0.2,0.8,,,0.1742,1E-04,0.4,0.6,0.2,0.8,0.2,0.8,0.8,0.2,1,0
,,6689e94d0b49a04be9a2ac5c,66fc99088cfd00dc61387f45,2024-10-01_21h05.25.245,mdp,2024.2.1,Win32,13.08900524,66fa4ebf79326e780c390304,,,,,,,,,,,,,,,,,,,,,1202.1155,1202.1156,1202.1168,1202.8265,1,0,right,0.0815,,1202.8271,1203.6176,1,1,right,1203.6185,1204.3395,1,0,right,1,1204.3396,1204.3396,1204.3402,1205.8543,0,11,11,11,1,0.6,0.4,0.4,0.6,,,,,,,,,,,,,,,0.1716,0.0001,0.4,0.6,0.4,0.6,0.6,0.4,0.2,0.8,,,0.0857,,0.4,0.6,0.2,0.8,0.2,0.8,0.8,0.2,1,0
,,6689e94d0b49a04be9a2ac5c,66fc99088cfd00dc61387f45,2024-10-01_21h05.25.245,mdp,2024.2.1,Win32,13.08900524,66fa4ebf79326e780c390304,,,,,,,,,,,,,,,,,,,,,1205.8546,1205.8546,1205.855,1206.648,1,0,right,0.1696,,1206.6485,1207.3735,1,1,right,1207.3747,1208.1628,1,0,right,1,1208.1628,1208.1628,1208.1635,1209.6675,0,12,12,12,1,0.6,0.4,0.4,0.6,,,,,,,,,,,,,,,0.0929,,0.4,0.6,0.4,0.6,0.6,0.4,0.2,0.8,,,0.1704,0,0.4,0.6,0.2,0.8,0.2,0.8,0.8,0.2,1,0
,,6689e94d0b49a04be9a2ac5c,66fc99088cfd00dc61387f45,2024-10-01_21h05.25.245,mdp,2024.2.1,Win32,13.08900524,66fa4ebf79326e780c390304,,,,,,,,,,,,,,,,,,,,,1209.668,1209.668,1209.6686,1211.0805,1,1,right,0.7978,,1211.0811,1211.734,1,1,right,1211.7347,1212.5303,1,1,right,0,1212.5304,1212.5304,1212.5309,1214.0313,0,13,13,13,1,0.6,0.4,0.4,0.6,,,,,,,,,,,,,,,0.0102,,0.4,0.6,0.4,0.6,0.6,0.4,0.2,0.8,,,0.1691,,0.4,0.6,0.2,0.8,0.2,0.8,0.8,0.2,1,0
,,6689e94d0b49a04be9a2ac5c,66fc99088cfd00dc61387f45,2024-10-01_21h05.25.245,mdp,2024.2.1,Win32,13.08900524,66fa4ebf79326e780c390304,,,,,,,,,,,,,,,,,,,,,1214.0318,1214.0318,1214.0324,1214.848,1,1,right,0.1723,1E-04,1214.8486,1215.7369,1,1,right,1215.7376,1216.5461,1,1,right,0,1216.5462,1216.5462,1216.5468,1217.9943,0,14,14,14,1,0.6,0.4,0.4,0.6,,,,,,,,,,,,,,,0.2511,,0.2,0.8,0.2,0.8,0.6,0.4,0.2,0.8,,,0.1669,,0.4,0.6,0.2,0.8,0.2,0.8,0.8,0.2,1,0
,,6689e94d0b49a04be9a2ac5c,66fc99088cfd00dc61387f45,2024-10-01_21h05.25.245,mdp,2024.2.1,Win32,13.08900524,66fa4ebf79326e780c390304,,,,,,,,,,,,,,,,,,,,,1217.9946,1217.9946,1217.9951,1218.6261,1,1,right,0.007,,1218.6267,1219.2528,1,1,right,1219.2535,1219.8981,1,0,right,1,1219.8982,1219.8982,1219.8988,1221.4065,0,15,15,15,1,0.6,0.4,0.4,0.6,,,,,,,,,,,,,,,0.006,,0.2,0.8,0.2,0.8,0.6,0.4,0.2,0.8,,,0.0077,,0.4,0.6,0.2,0.8,0.2,0.8,0.8,0.2,1,0
,,6689e94d0b49a04be9a2ac5c,66fc99088cfd00dc61387f45,2024-10-01_21h05.25.245,mdp,2024.2.1,Win32,13.08900524,66fa4ebf79326e780c390304,,,,,,,,,,,,,,,,,,,,,1221.407,1221.407,1221.4076,1222.1962,1,1,right,0.1621,,1222.197,1222.9062,1,1,right,1222.9073,1223.543,1,0,right,1,1223.543,1223.543,1223.5436,1225.0534,0,16,16,16,1,0.6,0.4,0.4,0.6,,,,,,,,,,,,,,,0.0875,1E-04,0.2,0.8,0.2,0.8,0.6,0.4,0.2,0.8,,,0.0067,,0.4,0.6,0.2,0.8,0.2,0.8,0.8,0.2,1,0
,,6689e94d0b49a04be9a2ac5c,66fc99088cfd00dc61387f45,2024-10-01_21h05.25.245,mdp,2024.2.1,Win32,13.08900524,66fa4ebf79326e780c390304,,,,,,,,,,,,,,,,,,,,,1225.0536,1225.0536,1225.0542,1225.7553,0,0,left,0.0948,,1225.756,1226.3877,0,1,left,1226.3883,1227.1757,1,1,right,0,1227.1757,1227.1757,1227.1763,1228.6242,0,17,17,17,1,0.6,0.4,0.4,0.6,,,,,,,,,,,,,,,0.0059,0,0.2,0.8,0.2,0.8,0.6,0.4,0.2,0.8,,,0.1583,,0.4,0.6,0.2,0.8,0.8,0.2,0.6,0.4,1,0
,,6689e94d0b49a04be9a2ac5c,66fc99088cfd00dc61387f45,2024-10-01_21h05.25.245,mdp,2024.2.1,Win32,13.08900524,66fa4ebf79326e780c390304,,,,,,,,,,,,,,,,,,,,,1228.6245,1228.6245,1228.6249,1229.3365,1,0,right,0.0896,,1229.3375,1230.0469,1,1,right,1230.048,1230.8296,1,0,right,1,1230.8297,1230.8297,1230.8304,1232.33,0,18,18,18,1,0.6,0.4,0.4,0.6,,,,,,,,,,,,,,,0.091,,0.2,0.8,0.2,0.8,0.6,0.4,0.2,0.8,,,0.169,,0.4,0.6,0.2,0.8,0.8,0.2,0.6,0.4,1,0
,,6689e94d0b49a04be9a2ac5c,66fc99088cfd00dc61387f45,2024-10-01_21h05.25.245,mdp,2024.2.1,Win32,13.08900524,66fa4ebf79326e780c390304,,,,,,,,,,,,,,,,,,,,,1232.3305,1232.3305,1232.3311,1233.0442,1,1,right,0.0837,,1233.0449,1233.7727,1,1,right,1233.7734,1234.3986,1,0,right,1,1234.3987,1234.3987,1234.3993,1235.8335,0,19,19,19,1,0.8,0.2,0.2,0.8,,,,,,,,,,,,,,,0.0901,,0.2,0.8,0.2,0.8,0.6,0.4,0.2,0.8,,,0.0071,,0.4,0.6,0.2,0.8,0.8,0.2,0.6,0.4,1,0
,,6689e94d0b49a04be9a2ac5c,66fc99088cfd00dc61387f45,2024-10-01_21h05.25.245,mdp,2024.2.1,Win32,13.08900524,66fa4ebf79326e780c390304,,,,,,,,,,,,,,,,,,,,,1235.8338,1235.8338,1235.8343,1236.6245,1,0,right,0.1644,,1236.6251,1237.4148,1,1,right,1237.4154,1238.048,1,0,right,1,1238.0481,1238.0481,1238.0487,1239.534,0,20,20,20,1,0.8,0.2,0.2,0.8,,,,,,,,,,,,,,,0.1649,,0.2,0.8,0.2,0.8,0.6,0.4,0.2,0.8,,,0.0111,,0.4,0.6,0.2,0.8,0.8,0.2,0.6,0.4,1,0
,,6689e94d0b49a04be9a2ac5c,66fc99088cfd00dc61387f45,2024-10-01_21h05.25.245,mdp,2024.2.1,Win32,13.08900524,66fa4ebf79326e780c390304,,,,,,,,,,,,,,,,,,,,,1239.5343,1239.5343,1239.5348,1240.2411,0,1,left,0.0832,,1240.242,1240.9607,1,1,right,1240.9612,1241.671,1,0,right,1,1241.671,1241.671,1241.6716,1243.1699,0,21,21,21,1,0.8,0.2,0.2,0.8,,,,,,,,,,,,,,,0.0883,,0.2,0.8,0.2,0.8,0.6,0.4,0.2,0.8,,,0.0881,,0.4,0.6,0.2,0.8,0.8,0.2,0.6,0.4,1,0
,,6689e94d0b49a04be9a2ac5c,66fc99088cfd00dc61387f45,2024-10-01_21h05.25.245,mdp,2024.2.1,Win32,13.08900524,66fa4ebf79326e780c390304,,,,,,,,,,,,,,,,,,,,,1243.1701,1243.1701,1243.1707,1243.7955,1,1,right,0.0062,,1243.796,1244.4203,0,1,left,1244.421,1245.0398,1,0,right,1,1245.0398,1245.0398,1245.0406,1246.5492,0,22,22,22,1,0.8,0.2,0.2,0.8,,,,,,,,,,,,,,,0.0063,,0.2,0.8,0.2,0.8,0.6,0.4,0.2,0.8,,,0.0073,,0.4,0.6,0.2,0.8,0.8,0.2,0.6,0.4,1,0
,,6689e94d0b49a04be9a2ac5c,66fc99088cfd00dc61387f45,2024-10-01_21h05.25.245,mdp,2024.2.1,Win32,13.08900524,66fa4ebf79326e780c390304,,,,,,,,,,,,,,,,,,,,,1246.5495,1246.5495,1246.55,1247.2451,1,1,right,0.0834,,1247.2463,1247.9537,1,1,right,1247.9544,1248.673,1,1,right,0,1248.6731,1248.6731,1248.6736,1250.1213,0,23,23,23,1,0.8,0.2,0.2,0.8,,,,,,,,,,,,,,,0.0857,0,0.2,0.8,0.2,0.8,0.6,0.4,0.2,0.8,,,0.0848,,0.4,0.6,0.2,0.8,0.8,0.2,0.6,0.4,1,0
,,6689e94d0b49a04be9a2ac5c,66fc99088cfd00dc61387f45,2024-10-01_21h05.25.245,mdp,2024.2.1,Win32,13.08900524,66fa4ebf79326e780c390304,,,,,,,,,,,,,,,,,,,,,1250.1218,1250.1218,1250.1224,1251.0867,0,0,left,0.3264,,1251.0876,1251.7344,1,1,right,1251.7349,1252.3608,0,0,left,1,1252.3608,1252.3608,1252.3614,1253.8633,0,24,24,24,1,0.8,0.2,0.2,0.8,,,,,,,,,,,,,,,0.0072,,0.2,0.8,0.2,0.8,0.6,0.4,0.2,0.8,,,0.0063,,0.4,0.6,0.2,0.8,0.8,0.2,0.6,0.4,1,0
,,6689e94d0b49a04be9a2ac5c,66fc99088cfd00dc61387f45,2024-10-01_21h05.25.245,mdp,2024.2.1,Win32,13.08900524,66fa4ebf79326e780c390304,,,,,,,,,,,,,,,,,,,,,1253.8637,1253.8637,1253.8644,1254.5581,1,1,right,0.0784,,1254.5588,1255.3361,0,1,left,1255.3366,1256.04,0,0,left,1,1256.04,1256.04,1256.041,1257.5399,0,25,25,25,1,0.8,0.2,0.2,0.8,,,,,,,,,,,,,,,0.1691,,0.2,0.8,0.2,0.8,0.6,0.4,0.2,0.8,,,0.0859,,0.4,0.6,0.2,0.8,0.8,0.2,0.6,0.4,1,0
,,6689e94d0b49a04be9a2ac5c,66fc99088cfd00dc61387f45,2024-10-01_21h05.25.245,mdp,2024.2.1,Win32,13.08900524,66fa4ebf79326e780c390304,,,,,,,,,,,,,,,,,,,,,1257.5401,1257.5401,1257.5409,1258.1619,0,0,left,0.0064,,1258.1624,1258.8672,0,1,left,1258.8678,1259.5686,0,0,left,1,1259.5687,1259.5687,1259.5693,1261.0082,0,26,26,26,1,0.8,0.2,0.2,0.8,,,,,,,,,,,,,,,0.084,,0.2,0.8,0.2,0.8,0.4,0.6,0.6,0.4,,,0.0894,,0.4,0.6,0.2,0.8,0.8,0.2,0.6,0.4,1,0
,,6689e94d0b49a04be9a2ac5c,66fc99088cfd00dc61387f45,2024-10-01_21h05.25.245,mdp,2024.2.1,Win32,13.08900524,66fa4ebf79326e780c390304,,,,,,,,,,,,,,,,,,,,,1261.0084,1261.0084,1261.0089,1261.7189,1,1,right,0.0853,,1261.7196,1262.3318,0,0,left,1262.3325,1262.9613,1,1,right,0,1262.9613,1262.9613,1262.962,1264.4674,0,27,27,27,1,0.8,0.2,0.2,0.8,,,,,,,,,,,,,,,0.0063,,0.2,0.8,0.2,0.8,0.4,0.6,0.6,0.4,,,0.0065,,0.4,0.6,0.2,0.8,0.8,0.2,0.6,0.4,1,0
,,6689e94d0b49a04be9a2ac5c,66fc99088cfd00dc61387f45,2024-10-01_21h05.25.245,mdp,2024.2.1,Win32,13.08900524,66fa4ebf79326e780c390304,,,,,,,,,,,,,,,,,,,,,1264.4678,1264.4678,1264.4683,1265.0845,0,0,left,0.0063,,1265.0851,1265.7106,1,1,right,1265.7114,1266.4843,1,0,right,1,1266.4843,1266.4843,1266.4851,1267.9911,0,28,28,28,1,0.8,0.2,0.2,0.8,,,,,,,,,,,,,,,0.0078,,0.2,0.8,0.2,0.8,0.4,0.6,0.6,0.4,,,0.1612,,0.4,0.6,0.2,0.8,0.8,0.2,0.6,0.4,1,0
,,6689e94d0b49a04be9a2ac5c,66fc99088cfd00dc61387f45,2024-10-01_21h05.25.245,mdp,2024.2.1,Win32,13.08900524,66fa4ebf79326e780c390304,,,,,,,,,,,,,,,,,,,,,1267.9915,1267.9915,1267.9923,1268.6948,1,1,right,0.0832,,1268.6954,1269.4,1,1,right,1269.4006,1270.261,1,1,right,0,1270.2611,1270.2611,1270.2617,1271.7641,0,29,29,29,1,0.8,0.2,0.2,0.8,,,,,,,,,,,,,,,0.0892,,0.2,0.8,0.2,0.8,0.4,0.6,0.6,0.4,,,0.242,,0.4,0.6,0.2,0.8,0.8,0.2,0.6,0.4,1,0
,,6689e94d0b49a04be9a2ac5c,66fc99088cfd00dc61387f45,2024-10-01_21h05.25.245,mdp,2024.2.1,Win32,13.08900524,66fa4ebf79326e780c390304,,,,,,,,,,,,,,,,,,,,,1271.7644,1271.7644,1271.765,1272.4666,0,0,left,0.0858,,1272.4672,1273.1836,0,1,left,1273.1842,1273.971,0,0,left,1,1273.971,1273.971,1273.9716,1275.4798,0,30,30,30,1,0.8,0.2,0.2,0.8,,,,,,,,,,,,,,,0.0913,,0.2,0.8,0.2,0.8,0.4,0.6,0.6,0.4,,,0.169,,0.4,0.6,0.2,0.8,0.8,0.2,0.6,0.4,1,0
,,6689e94d0b49a04be9a2ac5c,66fc99088cfd00dc61387f45,2024-10-01_21h05.25.245,mdp,2024.2.1,Win32,13.08900524,66fa4ebf79326e780c390304,,,,,,,,,,,,,,,,,,,,,1275.4801,1275.4801,1275.4806,1276.102,1,1,right,0.0064,,1276.1026,1276.7327,0,1,left,1276.7339,1277.4394,1,0,right,1,1277.4394,1277.4394,1277.4402,1278.9449,0,31,31,31,1,0.8,0.2,0.2,0.8,,,,,,,,,,,,,,,0.0103,1E-04,0.2,0.8,0.2,0.8,0.4,0.6,0.6,0.4,,,0.0817,,0.4,0.6,0.2,0.8,0.8,0.2,0.6,0.4,1,0
,,6689e94d0b49a04be9a2ac5c,66fc99088cfd00dc61387f45,2024-10-01_21h05.25.245,mdp,2024.2.1,Win32,13.08900524,66fa4ebf79326e780c390304,,,,,,,,,,,,,,,,,,,,,1278.9453,1278.9453,1278.9458,1279.6555,0,0,left,0.0883,,1279.6562,1280.2797,0,1,left,1280.2802,1280.9943,1,1,right,0,1280.9943,1280.9943,1280.9949,1282.4926,0,32,32,32,1,0.8,0.2,0.2,0.8,,,,,,,,,,,,,,,0.0061,,0.2,0.8,0.2,0.8,0.4,0.6,0.6,0.4,,,0.0841,,0.4,0.6,0.2,0.8,0.8,0.2,0.6,0.4,1,0
,,6689e94d0b49a04be9a2ac5c,66fc99088cfd00dc61387f45,2024-10-01_21h05.25.245,mdp,2024.2.1,Win32,13.08900524,66fa4ebf79326e780c390304,,,,,,,,,,,,,,,,,,,,,1282.4929,1282.4929,1282.4935,1283.3073,0,0,left,0.1655,,1283.3079,1284.0298,1,1,right,1284.0304,1284.8325,1,0,right,1,1284.8327,1284.8327,1284.8332,1286.2881,0,33,33,33,1,0.8,0.2,0.2,0.8,,,,,,,,,,,,,,,0.088,,0.2,0.8,0.2,0.8,0.4,0.6,0.6,0.4,,,0.1738,,0.4,0.6,0.2,0.8,0.8,0.2,0.6,0.4,1,0
,,6689e94d0b49a04be9a2ac5c,66fc99088cfd00dc61387f45,2024-10-01_21h05.25.245,mdp,2024.2.1,Win32,13.08900524,66fa4ebf79326e780c390304,,,,,,,,,,,,,,,,,,,,,1286.2885,1286.2885,1286.2892,1286.9312,1,1,right,0.0072,,1286.9318,1287.5602,0,0,left,1287.5608,1288.2648,1,0,right,1,1288.2649,1288.2649,1288.2657,1289.7791,0,34,34,34,1,0.8,0.2,0.2,0.8,,,,,,,,,,,,,,,0.0064,,0.2,0.8,0.2,0.8,0.4,0.6,0.6,0.4,,,0.0865,,0.4,0.6,0.2,0.8,0.8,0.2,0.6,0.4,1,0
,,6689e94d0b49a04be9a2ac5c,66fc99088cfd00dc61387f45,2024-10-01_21h05.25.245,mdp,2024.2.1,Win32,13.08900524,66fa4ebf79326e780c390304,,,,,,,,,,,,,,,,,,,,,1289.7794,1289.7794,1289.7799,1290.4131,1,0,right,0.0066,,1290.414,1291.132,1,1,right,1291.1329,1291.9323,1,1,right,0,1291.9324,1291.9324,1291.9332,1293.376,0,35,35,35,1,0.8,0.2,0.2,0.8,,,,,,,,,,,,,,,0.0878,,0.2,0.8,0.2,0.8,0.4,0.6,0.6,0.4,,,0.1717,0.0001,0.4,0.6,0.2,0.8,0.8,0.2,0.6,0.4,1,0
,,6689e94d0b49a04be9a2ac5c,66fc99088cfd00dc61387f45,2024-10-01_21h05.25.245,mdp,2024.2.1,Win32,13.08900524,66fa4ebf79326e780c390304,,,,,,,,,,,,,,,,,,,,,1293.3763,1293.3763,1293.3768,1294.0083,1,1,right,0.0069,,1294.0089,1294.8037,1,1,right,1294.8044,1295.4342,1,1,right,0,1295.4344,1295.4344,1295.4349,1296.9491,0,36,36,36,1,0.8,0.2,0.2,0.8,,,,,,,,,,,,,,,0.1672,1E-04,0.2,0.8,0.2,0.8,0.4,0.6,0.6,0.4,,,0.0063,,0.4,0.6,0.2,0.8,0.8,0.2,0.6,0.4,1,0
,,6689e94d0b49a04be9a2ac5c,66fc99088cfd00dc61387f45,2024-10-01_21h05.25.245,mdp,2024.2.1,Win32,13.08900524,66fa4ebf79326e780c390304,,,,,,,,,,,,,,,,,,,,,1296.9494,1296.9494,1296.9498,1297.6595,1,1,right,0.0831,,1297.6601,1298.37,1,0,right,1298.3706,1298.9908,1,1,right,0,1298.9909,1298.9909,1298.9913,1300.4897,0,37,37,37,1,0.8,0.2,0.2,0.8,,,,,,,,,,,,,,,0.0903,,0.2,0.8,0.2,0.8,0.4,0.6,0.6,0.4,,,0.0058,,0.4,0.6,0.2,0.8,0.8,0.2,0.6,0.4,1,0
,,6689e94d0b49a04be9a2ac5c,66fc99088cfd00dc61387f45,2024-10-01_21h05.25.245,mdp,2024.2.1,Win32,13.08900524,66fa4ebf79326e780c390304,,,,,,,,,,,,,,,,,,,,,1300.49,1300.49,1300.4905,1301.1948,1,0,right,0.0913,0.0001,1301.1954,1301.8888,1,1,right,1301.8896,1302.5347,1,1,right,0,1302.5347,1302.5347,1302.5353,1304.0339,0,38,38,38,1,0.8,0.2,0.2,0.8,,,,,,,,,,,,,,,0.077,,0.2,0.8,0.2,0.8,0.4,0.6,0.6,0.4,,,0.0069,0.0001,0.4,0.6,0.2,0.8,0.8,0.2,0.6,0.4,1,0
,,6689e94d0b49a04be9a2ac5c,66fc99088cfd00dc61387f45,2024-10-01_21h05.25.245,mdp,2024.2.1,Win32,13.08900524,66fa4ebf79326e780c390304,,,,,,,,,,,,,,,,,,,,,1304.0342,1304.0342,1304.0346,1304.7428,1,1,right,0.0856,,1304.7438,1305.3722,1,1,right,1305.3734,1306.1541,1,1,right,0,1306.1541,1306.1542,1306.1548,1307.6609,0,39,39,39,1,0.8,0.2,0.2,0.8,,,,,,,,,,,,,,,0.0062,,0.2,0.8,0.2,0.8,0.4,0.6,0.6,0.4,,,0.1661,,0.4,0.6,0.2,0.8,0.8,0.2,0.6,0.4,1,0
,,6689e94d0b49a04be9a2ac5c,66fc99088cfd00dc61387f45,2024-10-01_21h05.25.245,mdp,2024.2.1,Win32,13.08900524,66fa4ebf79326e780c390304,,,,,,,,,,,,,,,,,,,,,1307.6612,1307.6612,1307.6616,1308.3522,1,1,right,0.0874,,1308.353,1308.9778,1,0,right,1308.9784,1309.7661,1,1,right,0,1309.7662,1309.7662,1309.7667,1311.2827,0,40,40,40,1,0.8,0.2,0.2,0.8,,,,,,,,,,,,,,,0.0069,,0.4,0.6,0.6,0.4,0.4,0.6,0.6,0.4,,,0.1685,,0.4,0.6,0.2,0.8,0.8,0.2,0.6,0.4,1,0
,,6689e94d0b49a04be9a2ac5c,66fc99088cfd00dc61387f45,2024-10-01_21h05.25.245,mdp,2024.2.1,Win32,13.08900524,66fa4ebf79326e780c390304,,,,,,,,,,,,,,,,,,,,,1311.2831,1311.2831,1311.2837,1311.9046,1,0,right,0.0057,,1311.9052,1312.6092,1,0,right,1312.6099,1313.2375,1,1,right,0,1313.2376,1313.2376,1313.2382,1314.7239,0,41,41,41,1,0.8,0.2,0.2,0.8,,,,,,,,,,,,,,,0.0866,,0.4,0.6,0.6,0.4,0.4,0.6,0.6,0.4,,,0.0062,,0.4,0.6,0.2,0.8,0.8,0.2,0.6,0.4,1,0
,,6689e94d0b49a04be9a2ac5c,66fc99088cfd00dc61387f45,2024-10-01_21h05.25.245,mdp,2024.2.1,Win32,13.08900524,66fa4ebf79326e780c390304,,,,,,,,,,,,,,,,,,,,,1314.7241,1314.7241,1314.7246,1315.3416,1,0,right,0.0063,,1315.3423,1316.0396,1,1,right,1316.0404,1316.8242,1,1,right,0,1316.8243,1316.8243,1316.8248,1318.2773,0,42,42,42,1,0.8,0.2,0.2,0.8,,,,,,,,,,,,,,,0.0821,,0.8,0.2,0.2,0.8,0.4,0.6,0.6,0.4,,,0.1717,,0.4,0.6,0.2,0.8,0.8,0.2,0.6,0.4,1,0
,,6689e94d0b49a04be9a2ac5c,66fc99088cfd00dc61387f45,2024-10-01_21h05.25.245,mdp,2024.2.1,Win32,13.08900524,66fa4ebf79326e780c390304,,,,,,,,,,,,,,,,,,,,,1318.2776,1318.2776,1318.2781,1319,1,1,right,0.0883,,1319.0008,1319.7259,1,1,right,1319.7267,1320.457,1,0,right,1,1320.4571,1320.4571,1320.458,1321.9224,0,43,43,43,1,0.8,0.2,0.2,0.8,,,,,,,,,,,,,,,0.089,,0.8,0.2,0.2,0.8,0.4,0.6,0.6,0.4,,,0.088,,0.4,0.6,0.2,0.8,0.8,0.2,0.6,0.4,1,0
,,6689e94d0b49a04be9a2ac5c,66fc99088cfd00dc61387f45,2024-10-01_21h05.25.245,mdp,2024.2.1,Win32,13.08900524,66fa4ebf79326e780c390304,,,,,,,,,,,,,,,,,,,,,1321.9227,1321.9227,1321.9233,1322.5559,1,1,right,0.0073,,1322.5565,1323.3404,1,1,right,1323.3416,1326.182,1,0,right,1,1326.182,1326.182,1326.183,1327.6653,0,44,44,44,1,0.8,0.2,0.2,0.8,,,,,,,,,,,,,,,0.1578,0.0001,0.8,0.2,0.2,0.8,0.4,0.6,0.6,0.4,,,2.2097,,0.4,0.6,0.2,0.8,0.6,0.4,0.4,0.6,1,0
,,6689e94d0b49a04be9a2ac5c,66fc99088cfd00dc61387f45,2024-10-01_21h05.25.245,mdp,2024.2.1,Win32,13.08900524,66fa4ebf79326e780c390304,,,,,,,,,,,,,,,,,,,,,1327.6657,1327.6657,1327.6663,1328.3121,1,1,right,0.0073,,1328.3127,1328.9284,1,0,right,1328.929,1329.6424,1,1,right,0,1329.6425,1329.6425,1329.6433,1331.1468,0,45,45,45,1,0.8,0.2,0.2,0.8,,,,,,,,,,,,,,,0.0063,,0.8,0.2,0.2,0.8,0.4,0.6,0.6,0.4,,,0.0802,,0.4,0.6,0.2,0.8,0.6,0.4,0.4,0.6,1,0
,,6689e94d0b49a04be9a2ac5c,66fc99088cfd00dc61387f45,2024-10-01_21h05.25.245,mdp,2024.2.1,Win32,13.08900524,66fa4ebf79326e780c390304,,,,,,,,,,,,,,,,,,,,,1331.147,1331.147,1331.1475,1331.8544,1,1,right,0.0904,,1331.855,1332.5524,1,1,right,1332.5529,1333.2666,1,1,right,0,1333.2666,1333.2666,1333.2671,1334.7599,0,46,46,46,1,0.8,0.2,0.2,0.8,,,,,,,,,,,,,,,0.086,,0.8,0.2,0.2,0.8,0.4,0.6,0.6,0.4,,,0.0806,,0.4,0.6,0.2,0.8,0.6,0.4,0.4,0.6,1,0
,,6689e94d0b49a04be9a2ac5c,66fc99088cfd00dc61387f45,2024-10-01_21h05.25.245,mdp,2024.2.1,Win32,13.08900524,66fa4ebf79326e780c390304,,,,,,,,,,,,,,,,,,,,,1334.7601,1334.7601,1334.7607,1335.3836,1,1,right,0.0072,,1335.3841,1336.1013,1,0,right,1336.1019,1337.0542,0,0,left,1,1337.0542,1337.0542,1337.0549,1338.5497,0,47,47,47,1,0.8,0.2,0.2,0.8,,,,,,,,,,,,,,,0.082,,0.8,0.2,0.2,0.8,0.4,0.6,0.6,0.4,,,0.3219,0.0001,0.4,0.6,0.2,0.8,0.6,0.4,0.4,0.6,1,0
,,6689e94d0b49a04be9a2ac5c,66fc99088cfd00dc61387f45,2024-10-01_21h05.25.245,mdp,2024.2.1,Win32,13.08900524,66fa4ebf79326e780c390304,,,,,,,,,,,,,,,,,,,,,1338.55,1338.55,1338.5505,1339.1861,0,0,left,0.007,,1339.1867,1339.8295,1,1,right,1339.8307,1340.4728,1,0,right,1,1340.4729,1340.4729,1340.4742,1341.9656,0,48,48,48,1,0.8,0.2,0.2,0.8,,,,,,,,,,,,,,,0.0093,,0.8,0.2,0.2,0.8,0.4,0.6,0.6,0.4,,,0.0062,,0.4,0.6,0.2,0.8,0.6,0.4,0.4,0.6,1,0
,,6689e94d0b49a04be9a2ac5c,66fc99088cfd00dc61387f45,2024-10-01_21h05.25.245,mdp,2024.2.1,Win32,13.08900524,66fa4ebf79326e780c390304,,,,,,,,,,,,,,,,,,,,,1341.9659,1341.9659,1341.9664,1342.5882,1,0,right,0.0062,,1342.5888,1343.2929,1,1,right,1343.2936,1343.9086,1,0,right,1,1343.9087,1343.9087,1343.9102,1345.3465,0,49,49,49,1,0.8,0.2,0.2,0.8,,,,,,,,,,,,,,,0.0847,,0.8,0.2,0.2,0.8,0.4,0.6,0.6,0.4,,,0.0069,,0.4,0.6,0.2,0.8,0.6,0.4,0.4,0.6,1,0
,,6689e94d0b49a04be9a2ac5c,66fc99088cfd00dc61387f45,2024-10-01_21h05.25.245,mdp,2024.2.1,Win32,13.08900524,66fa4ebf79326e780c390304,,,,,,,,,,,,,,,,,,,,,,,,,,,,,,,,,,,,,,,,,,,,,,,,,,,,,,,,1345.3466,1403.9686,0,3,3,1,1,imgs/elephant.png,imgs/dog.png,imgs/squirrel.png,imgs/goat.png,imgs/lion.png,,,,,,,,,,,,,,,,,,,,,,,,
,,6689e94d0b49a04be9a2ac5c,66fc99088cfd00dc61387f45,2024-10-01_21h05.25.245,mdp,2024.2.1,Win32,13.08900524,66fa4ebf79326e780c390304,,,,,,,,,,,,,,1,seqs/st1seq48.csv,1403.9753,1406.9757,space,2.376,,1406.978,1406.978,1406.979,1408.3215,0,1,left,0.7126,,1408.3221,1408.3224,1,0,,1408.3226,1408.3228,1,1,,0,1408.3228,1408.3228,1408.323,1409.8253,0,0,0,0,1,0.2,0.8,0.8,0.2,1,0,,,,,,,,,,,,,,,,,,,,,,,,,,,,,,,,,,,,
,,6689e94d0b49a04be9a2ac5c,66fc99088cfd00dc61387f45,2024-10-01_21h05.25.245,mdp,2024.2.1,Win32,13.08900524,66fa4ebf79326e780c390304,,,,,,,,,,,,,,,,,,,,,1409.8257,1409.8257,1409.8264,1410.4531,1,0,right,0.0075,,1410.4538,1410.4542,1,0,,1410.4544,1410.4546,1,0,,1,1410.4546,1410.4546,1410.4548,1411.9596,0,1,1,1,1,0.2,0.8,0.8,0.2,1,0,,,,,,,,,,,,,,,,,,,,,,,,,,,,,,,,,,,,
,,6689e94d0b49a04be9a2ac5c,66fc99088cfd00dc61387f45,2024-10-01_21h05.25.245,mdp,2024.2.1,Win32,13.08900524,66fa4ebf79326e780c390304,,,,,,,,,,,,,,,,,,,,,1411.9599,1411.9599,1411.9606,1412.6,1,1,right,0.0067,,1412.6005,1412.6009,1,0,,1412.601,1412.6012,1,0,,0,1412.6012,1412.6012,1412.6014,1414.1081,0,2,2,2,1,0.8,0.2,0.6,0.4,1,0,,,,,,,,,,,,,,,,,,,,,,,,,,,,,,,,,,,,
,,6689e94d0b49a04be9a2ac5c,66fc99088cfd00dc61387f45,2024-10-01_21h05.25.245,mdp,2024.2.1,Win32,13.08900524,66fa4ebf79326e780c390304,,,,,,,,,,,,,,,,,,,,,1414.1085,1414.1085,1414.1091,1414.7443,0,0,left,0.0118,,1414.7455,1414.7459,1,0,,1414.7462,1414.7464,1,0,,1,1414.7464,1414.7464,1414.7467,1416.2313,0,3,3,3,1,0.8,0.2,0.6,0.4,1,0,,,,,,,,,,,,,,,,,,,,,,,,,,,,,,,,,,,,
,,6689e94d0b49a04be9a2ac5c,66fc99088cfd00dc61387f45,2024-10-01_21h05.25.245,mdp,2024.2.1,Win32,13.08900524,66fa4ebf79326e780c390304,,,,,,,,,,,,,,,,,,,,,1416.2314,1416.2314,1416.232,1417.0376,1,0,right,0.1599,,1417.0385,1417.0391,1,0,,1417.0394,1417.0397,1,0,,1,1417.0398,1417.0398,1417.0399,1418.5472,0,4,4,4,1,0.8,0.2,0.6,0.4,1,0,,,,,,,,,,,,,,,,,,,,,,,,,,,,,,,,,,,,
,,6689e94d0b49a04be9a2ac5c,66fc99088cfd00dc61387f45,2024-10-01_21h05.25.245,mdp,2024.2.1,Win32,13.08900524,66fa4ebf79326e780c390304,,,,,,,,,,,,,,,,,,,,,1418.5474,1418.5474,1418.5478,1419.1727,0,0,left,0.0058,,1419.1733,1419.1737,1,0,,1419.1739,1419.174,1,1,,1,1419.174,1419.174,1419.1743,1420.6769,0,5,5,5,1,0.8,0.2,0.6,0.4,1,0,,,,,,,,,,,,,,,,,,,,,,,,,,,,,,,,,,,,
,,6689e94d0b49a04be9a2ac5c,66fc99088cfd00dc61387f45,2024-10-01_21h05.25.245,mdp,2024.2.1,Win32,13.08900524,66fa4ebf79326e780c390304,,,,,,,,,,,,,,,,,,,,,1420.6772,1420.6772,1420.6776,1421.3197,1,0,right,0.007,,1421.3202,1421.3205,1,0,,1421.3208,1421.3211,1,1,,1,1421.3211,1421.3211,1421.3215,1422.7717,0,6,6,6,1,0.8,0.2,0.6,0.4,1,0,,,,,,,,,,,,,,,,,,,,,,,,,,,,,,,,,,,,
,,6689e94d0b49a04be9a2ac5c,66fc99088cfd00dc61387f45,2024-10-01_21h05.25.245,mdp,2024.2.1,Win32,13.08900524,66fa4ebf79326e780c390304,,,,,,,,,,,,,,,,,,,,,1422.772,1422.772,1422.7724,1423.5105,1,0,right,0.094,,1423.5111,1423.5115,1,0,,1423.5117,1423.5119,1,1,,1,1423.5119,1423.5119,1423.512,1425.039,0,7,7,7,1,0.8,0.2,0.6,0.4,1,0,,,,,,,,,,,,,,,,,,,,,,,,,,,,,,,,,,,,
,,6689e94d0b49a04be9a2ac5c,66fc99088cfd00dc61387f45,2024-10-01_21h05.25.245,mdp,2024.2.1,Win32,13.08900524,66fa4ebf79326e780c390304,,,,,,,,,,,,,,,,,,,,,1425.0393,1425.0393,1425.0398,1426.3003,1,0,right,0.6423,,1426.3011,1426.3016,1,0,,1426.3019,1426.3022,1,0,,1,1426.3022,1426.3022,1426.3025,1427.7884,0,8,8,8,1,0.2,0.8,0.8,0.2,1,0,,,,,,,,,,,,,,,,,,,,,,,,,,,,,,,,,,,,
,,6689e94d0b49a04be9a2ac5c,66fc99088cfd00dc61387f45,2024-10-01_21h05.25.245,mdp,2024.2.1,Win32,13.08900524,66fa4ebf79326e780c390304,,,,,,,,,,,,,,,,,,,,,1427.7888,1427.7888,1427.7894,1428.4907,1,0,right,0.0828,,1428.4912,1428.4916,1,0,,1428.4918,1428.492,1,0,,1,1428.492,1428.492,1428.4921,1429.9705,0,9,9,9,1,0.2,0.8,0.8,0.2,1,0,,,,,,,,,,,,,,,,,,,,,,,,,,,,,,,,,,,,
,,6689e94d0b49a04be9a2ac5c,66fc99088cfd00dc61387f45,2024-10-01_21h05.25.245,mdp,2024.2.1,Win32,13.08900524,66fa4ebf79326e780c390304,,,,,,,,,,,,,,,,,,,,,1429.9708,1429.9708,1429.9713,1430.6829,1,0,right,0.0909,,1430.6836,1430.6839,1,0,,1430.6842,1430.6843,1,0,,1,1430.6843,1430.6843,1430.6846,1432.1528,0,10,10,10,1,0.2,0.8,0.8,0.2,1,0,,,,,,,,,,,,,,,,,,,,,,,,,,,,,,,,,,,,
,,6689e94d0b49a04be9a2ac5c,66fc99088cfd00dc61387f45,2024-10-01_21h05.25.245,mdp,2024.2.1,Win32,13.08900524,66fa4ebf79326e780c390304,,,,,,,,,,,,,,,,,,,,,1432.1532,1432.1532,1432.1541,1432.7759,1,0,right,0.0067,,1432.7764,1432.7767,1,0,,1432.7769,1432.777,1,1,,1,1432.7771,1432.7771,1432.7773,1434.2555,0,11,11,11,1,0.8,0.2,0.6,0.4,1,0,,,,,,,,,,,,,,,,,,,,,,,,,,,,,,,,,,,,
,,6689e94d0b49a04be9a2ac5c,66fc99088cfd00dc61387f45,2024-10-01_21h05.25.245,mdp,2024.2.1,Win32,13.08900524,66fa4ebf79326e780c390304,,,,,,,,,,,,,,,,,,,,,1434.2558,1434.2558,1434.2564,1438.0421,1,0,right,3.1758,,1438.043,1438.0434,1,0,,1438.0436,1438.0437,1,0,,1,1438.0437,1438.0437,1438.0439,1439.5257,0,12,12,12,1,0.8,0.2,0.6,0.4,1,0,,,,,,,,,,,,,,,,,,,,,,,,,,,,,,,,,,,,
,,6689e94d0b49a04be9a2ac5c,66fc99088cfd00dc61387f45,2024-10-01_21h05.25.245,mdp,2024.2.1,Win32,13.08900524,66fa4ebf79326e780c390304,,,,,,,,,,,,,,,,,,,,,1439.5259,1439.5259,1439.5264,1440.1434,1,1,right,0.0062,,1440.1441,1440.1444,1,0,,1440.1447,1440.1448,1,1,,0,1440.1449,1440.1449,1440.145,1441.6194,0,13,13,13,1,0.6,0.4,0.8,0.2,1,0,,,,,,,,,,,,,,,,,,,,,,,,,,,,,,,,,,,,
,,6689e94d0b49a04be9a2ac5c,66fc99088cfd00dc61387f45,2024-10-01_21h05.25.245,mdp,2024.2.1,Win32,13.08900524,66fa4ebf79326e780c390304,,,,,,,,,,,,,,,,,,,,,1441.6196,1441.6196,1441.6201,1452.5608,1,1,right,10.3352,,1452.5669,1452.5673,1,1,,1452.5677,1452.5678,1,0,,0,1452.5678,1452.5678,1452.568,1454.0597,0,14,14,14,1,0.6,0.4,0.8,0.2,1,0,,,,,,,,,,,,,,,,,,,,,,,,,,,,,,,,,,,,
,,6689e94d0b49a04be9a2ac5c,66fc99088cfd00dc61387f45,2024-10-01_21h05.25.245,mdp,2024.2.1,Win32,13.08900524,66fa4ebf79326e780c390304,,,,,,,,,,,,,,,,,,,,,1454.0599,1454.0599,1454.0603,1454.762,1,0,right,0.0843,,1454.7627,1454.763,1,0,,1454.7632,1454.7634,1,1,,1,1454.7634,1454.7634,1454.7636,1456.2088,0,15,15,15,1,0.8,0.2,0.4,0.6,1,0,,,,,,,,,,,,,,,,,,,,,,,,,,,,,,,,,,,,
,,6689e94d0b49a04be9a2ac5c,66fc99088cfd00dc61387f45,2024-10-01_21h05.25.245,mdp,2024.2.1,Win32,13.08900524,66fa4ebf79326e780c390304,,,,,,,,,,,,,,,,,,,,,1456.2091,1456.2091,1456.2097,1457.1014,1,0,right,0.2518,,1457.1023,1457.1028,1,0,,1457.1035,1457.104,1,0,,1,1457.104,1457.104,1457.1042,1458.5479,0,16,16,16,1,0.8,0.2,0.4,0.6,1,0,,,,,,,,,,,,,,,,,,,,,,,,,,,,,,,,,,,,
,,6689e94d0b49a04be9a2ac5c,66fc99088cfd00dc61387f45,2024-10-01_21h05.25.245,mdp,2024.2.1,Win32,13.08900524,66fa4ebf79326e780c390304,,,,,,,,,,,,,,,,,,,,,1458.548,1458.548,1458.5485,1463.4404,1,0,right,4.256,,1463.4464,1463.4467,1,0,,1463.4471,1463.4472,1,0,,1,1463.4472,1463.4472,1463.4474,1464.9577,0,17,17,17,1,0.4,0.6,0.8,0.2,1,0,,,,,,,,,,,,,,,,,,,,,,,,,,,,,,,,,,,,
,,6689e94d0b49a04be9a2ac5c,66fc99088cfd00dc61387f45,2024-10-01_21h05.25.245,mdp,2024.2.1,Win32,13.08900524,66fa4ebf79326e780c390304,,,,,,,,,,,,,,,,,,,,,1464.958,1464.958,1464.9585,1465.6713,1,1,right,0.0876,,1465.6719,1465.6722,1,1,,1465.6724,1465.6725,1,0,,0,1465.6726,1465.6726,1465.6726,1467.1524,0,18,18,18,1,0.6,0.4,0.4,0.6,1,0,,,,,,,,,,,,,,,,,,,,,,,,,,,,,,,,,,,,
,,6689e94d0b49a04be9a2ac5c,66fc99088cfd00dc61387f45,2024-10-01_21h05.25.245,mdp,2024.2.1,Win32,13.08900524,66fa4ebf79326e780c390304,,,,,,,,,,,,,,,,,,,,,1467.1527,1467.1528,1467.1533,1467.8566,0,0,left,0.0866,,1467.8572,1467.8574,1,1,,1467.8577,1467.8579,1,1,,1,1467.8579,1467.8579,1467.8583,1469.3649,0,19,19,19,1,0.6,0.4,0.4,0.6,1,0,,,,,,,,,,,,,,,,,,,,,,,,,,,,,,,,,,,,
,,6689e94d0b49a04be9a2ac5c,66fc99088cfd00dc61387f45,2024-10-01_21h05.25.245,mdp,2024.2.1,Win32,13.08900524,66fa4ebf79326e780c390304,,,,,,,,,,,,,,,,,,,,,1469.3652,1469.3653,1469.3659,1469.9969,1,1,right,0.0085,,1469.9976,1469.998,1,1,,1469.9983,1469.9987,1,1,,0,1469.9987,1469.9987,1469.9989,1471.506,0,20,20,20,1,0.6,0.4,0.4,0.6,1,0,,,,,,,,,,,,,,,,,,,,,,,,,,,,,,,,,,,,
,,6689e94d0b49a04be9a2ac5c,66fc99088cfd00dc61387f45,2024-10-01_21h05.25.245,mdp,2024.2.1,Win32,13.08900524,66fa4ebf79326e780c390304,,,,,,,,,,,,,,,,,,,,,1471.5064,1471.5064,1471.5071,1472.1297,1,0,right,0.0083,,1472.1303,1472.1307,1,1,,1472.1309,1472.1311,1,0,,1,1472.1311,1472.1311,1472.1313,1473.6184,0,21,21,21,1,0.6,0.4,0.4,0.6,1,0,,,,,,,,,,,,,,,,,,,,,,,,,,,,,,,,,,,,
,,6689e94d0b49a04be9a2ac5c,66fc99088cfd00dc61387f45,2024-10-01_21h05.25.245,mdp,2024.2.1,Win32,13.08900524,66fa4ebf79326e780c390304,,,,,,,,,,,,,,,,,,,,,1473.6189,1473.6189,1473.6196,1474.4031,0,1,left,0.1645,,1474.4038,1474.4041,1,1,,1474.4045,1474.4049,1,1,,0,1474.4049,1474.4049,1474.4052,1475.9141,0,22,22,22,1,0.6,0.4,0.4,0.6,1,0,,,,,,,,,,,,,,,,,,,,,,,,,,,,,,,,,,,,
,,6689e94d0b49a04be9a2ac5c,66fc99088cfd00dc61387f45,2024-10-01_21h05.25.245,mdp,2024.2.1,Win32,13.08900524,66fa4ebf79326e780c390304,,,,,,,,,,,,,,,,,,,,,1475.9144,1475.9144,1475.9149,1476.617,1,1,right,0.0847,,1476.6181,1476.6186,1,1,,1476.6191,1476.6194,1,0,,0,1476.6194,1476.6195,1476.6197,1478.1079,0,23,23,23,1,0.6,0.4,0.4,0.6,1,0,,,,,,,,,,,,,,,,,,,,,,,,,,,,,,,,,,,,
,,6689e94d0b49a04be9a2ac5c,66fc99088cfd00dc61387f45,2024-10-01_21h05.25.245,mdp,2024.2.1,Win32,13.08900524,66fa4ebf79326e780c390304,,,,,,,,,,,,,,,,,,,,,1478.1082,1478.1082,1478.1088,1478.7374,1,0,right,0.007,,1478.7381,1478.7383,1,0,,1478.7385,1478.7386,1,1,,1,1478.7387,1478.7387,1478.7389,1480.2248,0,24,24,24,1,0.6,0.4,0.4,0.6,1,0,,,,,,,,,,,,,,,,,,,,,,,,,,,,,,,,,,,,
,,6689e94d0b49a04be9a2ac5c,66fc99088cfd00dc61387f45,2024-10-01_21h05.25.245,mdp,2024.2.1,Win32,13.08900524,66fa4ebf79326e780c390304,,,,,,,,,,,,,,,,,,,,,1480.2251,1480.2251,1480.2258,1480.9248,1,0,right,0.0814,,1480.9255,1480.9258,1,0,,1480.9261,1480.9263,1,0,,1,1480.9263,1480.9263,1480.9264,1482.4175,0,25,25,25,1,0.6,0.4,0.4,0.6,1,0,,,,,,,,,,,,,,,,,,,,,,,,,,,,,,,,,,,,
,,6689e94d0b49a04be9a2ac5c,66fc99088cfd00dc61387f45,2024-10-01_21h05.25.245,mdp,2024.2.1,Win32,13.08900524,66fa4ebf79326e780c390304,,,,,,,,,,,,,,,,,,,,,1482.4178,1482.4178,1482.4183,1483.1051,0,1,left,0.0899,,1483.1059,1483.1064,1,1,,1483.1067,1483.107,1,0,,0,1483.107,1483.107,1483.1072,1484.6018,0,26,26,26,1,0.6,0.4,0.4,0.6,1,0,,,,,,,,,,,,,,,,,,,,,,,,,,,,,,,,,,,,
,,6689e94d0b49a04be9a2ac5c,66fc99088cfd00dc61387f45,2024-10-01_21h05.25.245,mdp,2024.2.1,Win32,13.08900524,66fa4ebf79326e780c390304,,,,,,,,,,,,,,,,,,,,,1484.6021,1484.6021,1484.6025,1486.0182,0,0,left,0.7924,,1486.0189,1486.0192,1,1,,1486.0193,1486.0196,1,0,,1,1486.0196,1486.0196,1486.02,1487.533,0,27,27,27,1,0.6,0.4,0.4,0.6,1,0,,,,,,,,,,,,,,,,,,,,,,,,,,,,,,,,,,,,
,,6689e94d0b49a04be9a2ac5c,66fc99088cfd00dc61387f45,2024-10-01_21h05.25.245,mdp,2024.2.1,Win32,13.08900524,66fa4ebf79326e780c390304,,,,,,,,,,,,,,,,,,,,,1487.5333,1487.5333,1487.5338,1491.9478,1,0,right,3.8095,,1491.9547,1491.9555,1,0,,1491.956,1491.9562,1,1,,1,1491.9562,1491.9562,1491.9565,1493.3998,0,28,28,28,1,0.6,0.4,0.4,0.6,1,0,,,,,,,,,,,,,,,,,,,,,,,,,,,,,,,,,,,,
,,6689e94d0b49a04be9a2ac5c,66fc99088cfd00dc61387f45,2024-10-01_21h05.25.245,mdp,2024.2.1,Win32,13.08900524,66fa4ebf79326e780c390304,,,,,,,,,,,,,,,,,,,,,1493.4001,1493.4001,1493.4006,1494.337,1,1,right,0.3238,,1494.3378,1494.3384,1,0,,1494.3392,1494.3397,1,0,,0,1494.3397,1494.3397,1494.3399,1495.8186,0,29,29,29,1,0.6,0.4,0.4,0.6,1,0,,,,,,,,,,,,,,,,,,,,,,,,,,,,,,,,,,,,
,,6689e94d0b49a04be9a2ac5c,66fc99088cfd00dc61387f45,2024-10-01_21h05.25.245,mdp,2024.2.1,Win32,13.08900524,66fa4ebf79326e780c390304,,,,,,,,,,,,,,,,,,,,,1495.8189,1495.8189,1495.8192,1498.8656,1,0,right,2.4334,,1498.8662,1498.8666,1,1,,1498.867,1498.8672,1,1,,1,1498.8672,1498.8672,1498.8673,1500.3547,0,30,30,30,1,0.6,0.4,0.4,0.6,1,0,,,,,,,,,,,,,,,,,,,,,,,,,,,,,,,,,,,,
,,6689e94d0b49a04be9a2ac5c,66fc99088cfd00dc61387f45,2024-10-01_21h05.25.245,mdp,2024.2.1,Win32,13.08900524,66fa4ebf79326e780c390304,,,,,,,,,,,,,,,,,,,,,1500.3549,1500.3549,1500.3557,1501.0583,0,0,left,0.0945,,1501.0588,1501.0591,1,1,,1501.0592,1501.0594,1,0,,1,1501.0595,1501.0595,1501.0595,1502.5279,0,31,31,31,1,0.6,0.4,0.4,0.6,1,0,,,,,,,,,,,,,,,,,,,,,,,,,,,,,,,,,,,,
,,6689e94d0b49a04be9a2ac5c,66fc99088cfd00dc61387f45,2024-10-01_21h05.25.245,mdp,2024.2.1,Win32,13.08900524,66fa4ebf79326e780c390304,,,,,,,,,,,,,,,,,,,,,1502.5281,1502.5281,1502.5285,1503.3727,1,0,right,0.2379,,1503.3732,1503.3736,1,0,,1503.3738,1503.374,1,0,,1,1503.374,1503.374,1503.3741,1504.885,0,32,32,32,1,0.6,0.4,0.4,0.6,1,0,,,,,,,,,,,,,,,,,,,,,,,,,,,,,,,,,,,,
,,6689e94d0b49a04be9a2ac5c,66fc99088cfd00dc61387f45,2024-10-01_21h05.25.245,mdp,2024.2.1,Win32,13.08900524,66fa4ebf79326e780c390304,,,,,,,,,,,,,,,,,,,,,1504.8853,1504.8853,1504.8859,1505.5216,1,0,right,0.0089,,1505.5225,1505.5229,1,1,,1505.5233,1505.5235,1,0,,1,1505.5235,1505.5235,1505.5236,1507.0267,0,33,33,33,1,0.6,0.4,0.4,0.6,1,0,,,,,,,,,,,,,,,,,,,,,,,,,,,,,,,,,,,,
,,6689e94d0b49a04be9a2ac5c,66fc99088cfd00dc61387f45,2024-10-01_21h05.25.245,mdp,2024.2.1,Win32,13.08900524,66fa4ebf79326e780c390304,,,,,,,,,,,,,,,,,,,,,1507.0271,1507.0271,1507.0279,1507.9558,1,1,right,0.3104,,1507.9565,1507.9568,1,1,,1507.9573,1507.9575,1,1,,0,1507.9575,1507.9575,1507.9577,1509.458,0,34,34,34,1,0.8,0.2,0.2,0.8,1,0,,,,,,,,,,,,,,,,,,,,,,,,,,,,,,,,,,,,
,,6689e94d0b49a04be9a2ac5c,66fc99088cfd00dc61387f45,2024-10-01_21h05.25.245,mdp,2024.2.1,Win32,13.08900524,66fa4ebf79326e780c390304,,,,,,,,,,,,,,,,,,,,,1509.4582,1509.4582,1509.4587,1510.085,1,1,right,0.0085,,1510.086,1510.0866,1,0,,1510.087,1510.0873,1,1,,0,1510.0873,1510.0873,1510.0875,1511.5801,0,35,35,35,1,0.4,0.6,0.6,0.4,1,0,,,,,,,,,,,,,,,,,,,,,,,,,,,,,,,,,,,,
,,6689e94d0b49a04be9a2ac5c,66fc99088cfd00dc61387f45,2024-10-01_21h05.25.245,mdp,2024.2.1,Win32,13.08900524,66fa4ebf79326e780c390304,,,,,,,,,,,,,,,,,,,,,1511.5802,1511.5802,1511.5808,1512.3719,1,1,right,0.1632,,1512.3727,1512.3732,1,0,,1512.3738,1512.3741,1,1,,0,1512.3742,1512.3742,1512.3745,1513.8571,0,36,36,36,1,0.4,0.6,0.6,0.4,1,0,,,,,,,,,,,,,,,,,,,,,,,,,,,,,,,,,,,,
,,6689e94d0b49a04be9a2ac5c,66fc99088cfd00dc61387f45,2024-10-01_21h05.25.245,mdp,2024.2.1,Win32,13.08900524,66fa4ebf79326e780c390304,,,,,,,,,,,,,,,,,,,,,1513.8574,1513.8574,1513.8583,1514.5582,0,0,left,0.0867,,1514.559,1514.5594,1,0,,1514.5597,1514.5599,1,1,,1,1514.5599,1514.5599,1514.5601,1516.0583,0,37,37,37,1,0.4,0.6,0.6,0.4,1,0,,,,,,,,,,,,,,,,,,,,,,,,,,,,,,,,,,,,
,,6689e94d0b49a04be9a2ac5c,66fc99088cfd00dc61387f45,2024-10-01_21h05.25.245,mdp,2024.2.1,Win32,13.08900524,66fa4ebf79326e780c390304,,,,,,,,,,,,,,,,,,,,,1516.0586,1516.0586,1516.0592,1517.9611,1,0,right,1.276,,1517.9616,1517.962,1,0,,1517.9624,1517.9626,1,0,,1,1517.9626,1517.9626,1517.9628,1519.4496,0,38,38,38,1,0.4,0.6,0.6,0.4,1,0,,,,,,,,,,,,,,,,,,,,,,,,,,,,,,,,,,,,
,,6689e94d0b49a04be9a2ac5c,66fc99088cfd00dc61387f45,2024-10-01_21h05.25.245,mdp,2024.2.1,Win32,13.08900524,66fa4ebf79326e780c390304,,,,,,,,,,,,,,,,,,,,,1519.4498,1519.4498,1519.4502,1520.2308,1,0,right,0.1678,,1520.2314,1520.2316,1,0,,1520.2317,1520.2319,1,0,,1,1520.2319,1520.2319,1520.2321,1521.7217,0,39,39,39,1,0.4,0.6,0.6,0.4,1,0,,,,,,,,,,,,,,,,,,,,,,,,,,,,,,,,,,,,
