init_exp.started,init_exp.stopped,participant,session,date,expName,psychopyVersion,OS,frameRate,study_id,disp_instruction.started,disp_instruction.stopped,instruction.thisRepN,instruction.thisTrialN,instruction.thisN,instruction.thisIndex,instruction.ran,instimg_path,consent.started,consent.stopped,key_resp_3.keys,key_resp_3.rt,key_resp_3.duration,n_steps,sequence_path,init_block.started,init_block.stopped,key_resp.keys,key_resp.rt,key_resp.duration,init_trials.started,init_trials.stopped,step0.started,step0.stopped,act0,s1,res0.keys,res0.rt,res0.duration,step1.started,step1.stopped,act1,s2,res1.keys,step2.started,step2.stopped,act2,s3,res2.keys,rew,reward_comp.started,reward_comp.stopped,reward_disp.started,reward_disp.stopped,trials.thisRepN,trials.thisTrialN,trials.thisN,trials.thisIndex,trials.ran,s00a0s10,s00a0s11,s00a1s10,s00a1s11,rew10,rew11,break_block.started,break_block.stopped,block.thisRepN,block.thisTrialN,block.thisN,block.thisIndex,block.ran,s00path,s10path,s11path,s20path,s21path,res1.rt,res1.duration,s10a0s20,s10a0s21,s10a1s20,s10a1s21,s11a0s20,s11a0s21,s11a1s20,s11a1s21,rew20,rew21,res2.rt,res2.duration,s20a0s30,s20a0s31,s20a1s30,s20a1s31,s21a0s30,s21a0s31,s21a1s30,s21a1s31,rew30,rew31
0.0002,0.0009,668946f774f64ae752e01a90,66daf5b985de1527582d9a60,2024-09-06_14h30.43.345,mdp,2024.2.1,Win32,142.8571429,66d7945b1baad48e845df3ce,,,,,,,,,,,,,,,,,,,,,,,,,,,,,,,,,,,,,,,,,,,,,,,,,,,,,,,,,,,,,,,,,,,,,,,,,,,,,,,,,,,,,,,,,,,
,,668946f774f64ae752e01a90,66daf5b985de1527582d9a60,2024-09-06_14h30.43.345,mdp,2024.2.1,Win32,142.8571429,66d7945b1baad48e845df3ce,0.0031,86.0124,0,0,0,0,1,rlnn_exp/rlnn_exp.001.png,,,,,,,,,,,,,,,,,,,,,,,,,,,,,,,,,,,,,,,,,,,,,,,,,,,,,,,,,,,,,,,,,,,,,,,,,,,,,,,,,,,
,,668946f774f64ae752e01a90,66daf5b985de1527582d9a60,2024-09-06_14h30.43.345,mdp,2024.2.1,Win32,142.8571429,66d7945b1baad48e845df3ce,86.0128,99.9909,0,1,1,1,1,rlnn_exp/rlnn_exp.002.png,,,,,,,,,,,,,,,,,,,,,,,,,,,,,,,,,,,,,,,,,,,,,,,,,,,,,,,,,,,,,,,,,,,,,,,,,,,,,,,,,,,
,,668946f774f64ae752e01a90,66daf5b985de1527582d9a60,2024-09-06_14h30.43.345,mdp,2024.2.1,Win32,142.8571429,66d7945b1baad48e845df3ce,99.996,140.3935,0,2,2,2,1,rlnn_exp/rlnn_exp.003.png,,,,,,,,,,,,,,,,,,,,,,,,,,,,,,,,,,,,,,,,,,,,,,,,,,,,,,,,,,,,,,,,,,,,,,,,,,,,,,,,,,,
,,668946f774f64ae752e01a90,66daf5b985de1527582d9a60,2024-09-06_14h30.43.345,mdp,2024.2.1,Win32,142.8571429,66d7945b1baad48e845df3ce,140.3986,153.9489,0,3,3,3,1,rlnn_exp/rlnn_exp.004.png,,,,,,,,,,,,,,,,,,,,,,,,,,,,,,,,,,,,,,,,,,,,,,,,,,,,,,,,,,,,,,,,,,,,,,,,,,,,,,,,,,,
,,668946f774f64ae752e01a90,66daf5b985de1527582d9a60,2024-09-06_14h30.43.345,mdp,2024.2.1,Win32,142.8571429,66d7945b1baad48e845df3ce,,,,,,,,,153.9538,164.5948,y,0.6314,,,,,,,,,,,,,,,,,,,,,,,,,,,,,,,,,,,,,,,,,,,,,,,,,,,,,,,,,,,,,,,,,,,,,,,,,,,,,,,
,,668946f774f64ae752e01a90,66daf5b985de1527582d9a60,2024-09-06_14h30.43.345,mdp,2024.2.1,Win32,142.8571429,66d7945b1baad48e845df3ce,,,,,,,,,,,,,,1,seqs/st1seq42.csv,164.6013,166.8239,space,1.7191,,166.8254,166.8255,166.8257,168.2683,1,1,right,0.9275,,168.2686,168.2695,,1,,168.2697,168.2702,,0,,0,168.2703,168.2703,168.2704,169.7685,0,0,0,0,1,0.2,0.8,0.6,0.4,1,0,,,,,,,,,,,,,,,,,,,,,,,,,,,,,,,,,,,,
,,668946f774f64ae752e01a90,66daf5b985de1527582d9a60,2024-09-06_14h30.43.345,mdp,2024.2.1,Win32,142.8571429,66d7945b1baad48e845df3ce,,,,,,,,,,,,,,,,,,,,,169.7687,169.7688,169.7693,171.0042,0,0,left,0.7221,,171.0049,171.0052,,0,,171.0055,171.0057,,0,,1,171.0058,171.0058,171.0059,172.5043,0,1,1,1,1,0.8,0.2,0.4,0.6,1,0,,,,,,,,,,,,,,,,,,,,,,,,,,,,,,,,,,,,
,,668946f774f64ae752e01a90,66daf5b985de1527582d9a60,2024-09-06_14h30.43.345,mdp,2024.2.1,Win32,142.8571429,66d7945b1baad48e845df3ce,,,,,,,,,,,,,,,,,,,,,172.5045,172.5045,172.5053,173.7126,0,1,left,0.6975,,173.7131,173.7135,,0,,173.7138,173.714,,1,,0,173.714,173.714,173.7142,175.2129,0,2,2,2,1,0.8,0.2,0.4,0.6,1,0,,,,,,,,,,,,,,,,,,,,,,,,,,,,,,,,,,,,
,,668946f774f64ae752e01a90,66daf5b985de1527582d9a60,2024-09-06_14h30.43.345,mdp,2024.2.1,Win32,142.8571429,66d7945b1baad48e845df3ce,,,,,,,,,,,,,,,,,,,,,175.2131,175.2131,175.214,177.5111,1,1,right,1.7895,,177.5119,177.5122,,1,,177.5126,177.5127,,0,,0,177.5127,177.5128,177.5129,179.0111,0,3,3,3,1,0.8,0.2,0.4,0.6,1,0,,,,,,,,,,,,,,,,,,,,,,,,,,,,,,,,,,,,
,,668946f774f64ae752e01a90,66daf5b985de1527582d9a60,2024-09-06_14h30.43.345,mdp,2024.2.1,Win32,142.8571429,66d7945b1baad48e845df3ce,,,,,,,,,,,,,,,,,,,,,179.0112,179.0112,179.0118,180.0111,0,0,left,0.4942,,180.0117,180.0121,,0,,180.0124,180.0126,,0,,1,180.0126,180.0126,180.0128,181.5111,0,4,4,4,1,0.8,0.2,0.4,0.6,1,0,,,,,,,,,,,,,,,,,,,,,,,,,,,,,,,,,,,,
,,668946f774f64ae752e01a90,66daf5b985de1527582d9a60,2024-09-06_14h30.43.345,mdp,2024.2.1,Win32,142.8571429,66d7945b1baad48e845df3ce,,,,,,,,,,,,,,,,,,,,,181.5112,181.5112,181.512,182.5041,0,1,left,0.4822,,182.5047,182.5051,,1,,182.5054,182.5055,,1,,0,182.5056,182.5056,182.5057,184.0041,0,5,5,5,1,0.2,0.8,0.6,0.4,1,0,,,,,,,,,,,,,,,,,,,,,,,,,,,,,,,,,,,,
,,668946f774f64ae752e01a90,66daf5b985de1527582d9a60,2024-09-06_14h30.43.345,mdp,2024.2.1,Win32,142.8571429,66d7945b1baad48e845df3ce,,,,,,,,,,,,,,,,,,,,,184.0043,184.0043,184.005,188.9347,0,1,left,4.4219,,188.9398,188.9403,,1,,188.9406,188.9407,,1,,0,188.9407,188.9408,188.941,190.4416,0,6,6,6,1,0.2,0.8,0.6,0.4,1,0,,,,,,,,,,,,,,,,,,,,,,,,,,,,,,,,,,,,
,,668946f774f64ae752e01a90,66daf5b985de1527582d9a60,2024-09-06_14h30.43.345,mdp,2024.2.1,Win32,142.8571429,66d7945b1baad48e845df3ce,,,,,,,,,,,,,,,,,,,,,190.4417,190.4417,190.4425,191.4764,0,1,left,0.5213,,191.4768,191.4773,,1,,191.4775,191.4777,,0,,0,191.4777,191.4777,191.4779,192.9763,0,7,7,7,1,0.2,0.8,0.6,0.4,1,0,,,,,,,,,,,,,,,,,,,,,,,,,,,,,,,,,,,,
,,668946f774f64ae752e01a90,66daf5b985de1527582d9a60,2024-09-06_14h30.43.345,mdp,2024.2.1,Win32,142.8571429,66d7945b1baad48e845df3ce,,,,,,,,,,,,,,,,,,,,,192.9765,192.9766,192.977,193.8792,1,1,right,0.3929,,193.8797,193.8801,,0,,193.8804,193.8807,,0,,0,193.8807,193.8807,193.8808,195.3791,0,8,8,8,1,0.2,0.8,0.6,0.4,1,0,,,,,,,,,,,,,,,,,,,,,,,,,,,,,,,,,,,,
,,668946f774f64ae752e01a90,66daf5b985de1527582d9a60,2024-09-06_14h30.43.345,mdp,2024.2.1,Win32,142.8571429,66d7945b1baad48e845df3ce,,,,,,,,,,,,,,,,,,,,,195.3793,195.3793,195.3798,197.1292,1,0,right,1.2386,,197.1298,197.1301,,1,,197.1304,197.1306,,0,,1,197.1307,197.1307,197.1309,198.6291,0,9,9,9,1,0.2,0.8,0.6,0.4,1,0,,,,,,,,,,,,,,,,,,,,,,,,,,,,,,,,,,,,
,,668946f774f64ae752e01a90,66daf5b985de1527582d9a60,2024-09-06_14h30.43.345,mdp,2024.2.1,Win32,142.8571429,66d7945b1baad48e845df3ce,,,,,,,,,,,,,,,,,,,,,198.6293,198.6293,198.6298,202.6359,1,1,right,3.4933,,202.6406,202.641,,1,,202.6412,202.6415,,0,,0,202.6415,202.6415,202.6417,204.143,0,10,10,10,1,0.2,0.8,0.6,0.4,1,0,,,,,,,,,,,,,,,,,,,,,,,,,,,,,,,,,,,,
,,668946f774f64ae752e01a90,66daf5b985de1527582d9a60,2024-09-06_14h30.43.345,mdp,2024.2.1,Win32,142.8571429,66d7945b1baad48e845df3ce,,,,,,,,,,,,,,,,,,,,,204.1432,204.1432,204.1438,204.9069,0,0,left,0.2509,,204.9075,204.9079,,0,,204.9083,204.9085,,0,,1,204.9085,204.9085,204.9088,206.4069,0,11,11,11,1,0.2,0.8,0.6,0.4,1,0,,,,,,,,,,,,,,,,,,,,,,,,,,,,,,,,,,,,
,,668946f774f64ae752e01a90,66daf5b985de1527582d9a60,2024-09-06_14h30.43.345,mdp,2024.2.1,Win32,142.8571429,66d7945b1baad48e845df3ce,,,,,,,,,,,,,,,,,,,,,206.4071,206.4071,206.4076,207.414,0,1,left,0.4991,,207.4146,207.415,,1,,207.4153,207.4155,,0,,0,207.4155,207.4155,207.4157,208.9138,0,12,12,12,1,0.6,0.4,0.8,0.2,1,0,,,,,,,,,,,,,,,,,,,,,,,,,,,,,,,,,,,,
,,668946f774f64ae752e01a90,66daf5b985de1527582d9a60,2024-09-06_14h30.43.345,mdp,2024.2.1,Win32,142.8571429,66d7945b1baad48e845df3ce,,,,,,,,,,,,,,,,,,,,,208.914,208.914,208.9145,210.6984,0,1,left,1.2724,,210.699,210.6993,,1,,210.6996,210.6999,,1,,0,210.6999,210.6999,210.7001,212.1987,0,13,13,13,1,0.6,0.4,0.8,0.2,1,0,,,,,,,,,,,,,,,,,,,,,,,,,,,,,,,,,,,,
,,668946f774f64ae752e01a90,66daf5b985de1527582d9a60,2024-09-06_14h30.43.345,mdp,2024.2.1,Win32,142.8571429,66d7945b1baad48e845df3ce,,,,,,,,,,,,,,,,,,,,,212.199,212.199,212.1998,213.3999,1,0,right,0.6914,,213.4005,213.4008,,0,,213.4012,213.4014,,0,,1,213.4015,213.4015,213.4016,214.8998,0,14,14,14,1,0.6,0.4,0.8,0.2,1,0,,,,,,,,,,,,,,,,,,,,,,,,,,,,,,,,,,,,
,,668946f774f64ae752e01a90,66daf5b985de1527582d9a60,2024-09-06_14h30.43.345,mdp,2024.2.1,Win32,142.8571429,66d7945b1baad48e845df3ce,,,,,,,,,,,,,,,,,,,,,214.9001,214.9001,214.9006,215.8512,1,0,right,0.4377,,215.8517,215.8522,,0,,215.8524,215.8526,,0,,1,215.8526,215.8526,215.8528,217.3512,0,15,15,15,1,0.8,0.2,0.6,0.4,1,0,,,,,,,,,,,,,,,,,,,,,,,,,,,,,,,,,,,,
,,668946f774f64ae752e01a90,66daf5b985de1527582d9a60,2024-09-06_14h30.43.345,mdp,2024.2.1,Win32,142.8571429,66d7945b1baad48e845df3ce,,,,,,,,,,,,,,,,,,,,,217.3514,217.3514,217.3519,218.3373,1,0,right,0.4746,,218.3379,218.3384,,0,,218.3386,218.3389,,0,,1,218.3389,218.3389,218.3391,219.8373,0,16,16,16,1,0.8,0.2,0.6,0.4,1,0,,,,,,,,,,,,,,,,,,,,,,,,,,,,,,,,,,,,
,,668946f774f64ae752e01a90,66daf5b985de1527582d9a60,2024-09-06_14h30.43.345,mdp,2024.2.1,Win32,142.8571429,66d7945b1baad48e845df3ce,,,,,,,,,,,,,,,,,,,,,219.8375,219.8376,219.838,220.6566,1,0,right,0.309,,220.6571,220.6575,,0,,220.6578,220.658,,0,,1,220.658,220.658,220.6582,222.1568,0,17,17,17,1,0.8,0.2,0.6,0.4,1,0,,,,,,,,,,,,,,,,,,,,,,,,,,,,,,,,,,,,
,,668946f774f64ae752e01a90,66daf5b985de1527582d9a60,2024-09-06_14h30.43.345,mdp,2024.2.1,Win32,142.8571429,66d7945b1baad48e845df3ce,,,,,,,,,,,,,,,,,,,,,222.157,222.157,222.1575,222.879,1,0,right,0.213,,222.8797,222.8801,,1,,222.8804,222.8806,,1,,1,222.8806,222.8806,222.881,224.3789,0,18,18,18,1,0.8,0.2,0.6,0.4,1,0,,,,,,,,,,,,,,,,,,,,,,,,,,,,,,,,,,,,
,,668946f774f64ae752e01a90,66daf5b985de1527582d9a60,2024-09-06_14h30.43.345,mdp,2024.2.1,Win32,142.8571429,66d7945b1baad48e845df3ce,,,,,,,,,,,,,,,,,,,,,224.3791,224.3791,224.3797,225.5594,1,1,right,0.6697,,225.56,225.5604,,0,,225.5607,225.5609,,1,,0,225.5609,225.5609,225.5611,227.0594,0,19,19,19,1,0.8,0.2,0.6,0.4,1,0,,,,,,,,,,,,,,,,,,,,,,,,,,,,,,,,,,,,
,,668946f774f64ae752e01a90,66daf5b985de1527582d9a60,2024-09-06_14h30.43.345,mdp,2024.2.1,Win32,142.8571429,66d7945b1baad48e845df3ce,,,,,,,,,,,,,,,,,,,,,227.0596,227.0596,227.0602,227.8929,0,0,left,0.32,,227.8934,227.8939,,0,,227.8942,227.8945,,0,,1,227.8946,227.8946,227.8947,229.3927,0,20,20,20,1,0.6,0.4,0.4,0.6,1,0,,,,,,,,,,,,,,,,,,,,,,,,,,,,,,,,,,,,
,,668946f774f64ae752e01a90,66daf5b985de1527582d9a60,2024-09-06_14h30.43.345,mdp,2024.2.1,Win32,142.8571429,66d7945b1baad48e845df3ce,,,,,,,,,,,,,,,,,,,,,229.393,229.393,229.3934,230.3582,0,1,left,0.4558,,230.3589,230.3592,,1,,230.3595,230.3598,,1,,0,230.3598,230.3598,230.36,231.8581,0,21,21,21,1,0.6,0.4,0.4,0.6,1,0,,,,,,,,,,,,,,,,,,,,,,,,,,,,,,,,,,,,
,,668946f774f64ae752e01a90,66daf5b985de1527582d9a60,2024-09-06_14h30.43.345,mdp,2024.2.1,Win32,142.8571429,66d7945b1baad48e845df3ce,,,,,,,,,,,,,,,,,,,,,231.8583,231.8583,231.8589,232.8302,0,0,left,0.4631,,232.8306,232.8311,,1,,232.8315,232.8317,,1,,1,232.8317,232.8317,232.8318,234.3302,0,22,22,22,1,0.6,0.4,0.4,0.6,1,0,,,,,,,,,,,,,,,,,,,,,,,,,,,,,,,,,,,,
,,668946f774f64ae752e01a90,66daf5b985de1527582d9a60,2024-09-06_14h30.43.345,mdp,2024.2.1,Win32,142.8571429,66d7945b1baad48e845df3ce,,,,,,,,,,,,,,,,,,,,,234.3305,234.3305,234.331,235.3719,0,0,left,0.5291,,235.3725,235.3729,,1,,235.3732,235.3734,,0,,1,235.3735,235.3735,235.3736,236.8718,0,23,23,23,1,0.6,0.4,0.4,0.6,1,0,,,,,,,,,,,,,,,,,,,,,,,,,,,,,,,,,,,,
,,668946f774f64ae752e01a90,66daf5b985de1527582d9a60,2024-09-06_14h30.43.345,mdp,2024.2.1,Win32,142.8571429,66d7945b1baad48e845df3ce,,,,,,,,,,,,,,,,,,,,,236.872,236.872,236.8725,237.9275,0,1,left,0.546,,237.9281,237.9284,,1,,237.9288,237.929,,1,,0,237.929,237.929,237.9292,239.4274,0,24,24,24,1,0.2,0.8,0.6,0.4,1,0,,,,,,,,,,,,,,,,,,,,,,,,,,,,,,,,,,,,
,,668946f774f64ae752e01a90,66daf5b985de1527582d9a60,2024-09-06_14h30.43.345,mdp,2024.2.1,Win32,142.8571429,66d7945b1baad48e845df3ce,,,,,,,,,,,,,,,,,,,,,239.4276,239.4276,239.4281,240.1704,1,0,right,0.2306,,240.1709,240.1712,,1,,240.1715,240.1716,,1,,1,240.1716,240.1716,240.1718,241.6704,0,25,25,25,1,0.2,0.8,0.6,0.4,1,0,,,,,,,,,,,,,,,,,,,,,,,,,,,,,,,,,,,,
,,668946f774f64ae752e01a90,66daf5b985de1527582d9a60,2024-09-06_14h30.43.345,mdp,2024.2.1,Win32,142.8571429,66d7945b1baad48e845df3ce,,,,,,,,,,,,,,,,,,,,,241.6706,241.6706,241.6711,242.7607,1,1,right,0.5792,,242.7613,242.7617,,1,,242.762,242.7623,,0,,0,242.7623,242.7623,242.7625,244.2607,0,26,26,26,1,0.2,0.8,0.6,0.4,1,0,,,,,,,,,,,,,,,,,,,,,,,,,,,,,,,,,,,,
,,668946f774f64ae752e01a90,66daf5b985de1527582d9a60,2024-09-06_14h30.43.345,mdp,2024.2.1,Win32,142.8571429,66d7945b1baad48e845df3ce,,,,,,,,,,,,,,,,,,,,,244.2608,244.2608,244.2614,245.0178,1,0,right,0.244,,245.0184,245.0188,,0,,245.0191,245.0194,,0,,1,245.0194,245.0194,245.0196,246.5177,0,27,27,27,1,0.2,0.8,0.6,0.4,1,0,,,,,,,,,,,,,,,,,,,,,,,,,,,,,,,,,,,,
,,668946f774f64ae752e01a90,66daf5b985de1527582d9a60,2024-09-06_14h30.43.345,mdp,2024.2.1,Win32,142.8571429,66d7945b1baad48e845df3ce,,,,,,,,,,,,,,,,,,,,,246.518,246.518,246.5186,247.719,1,1,right,0.6922,,247.7196,247.7199,,0,,247.7202,247.7205,,0,,0,247.7205,247.7205,247.7207,249.2192,0,28,28,28,1,0.2,0.8,0.6,0.4,1,0,,,,,,,,,,,,,,,,,,,,,,,,,,,,,,,,,,,,
,,668946f774f64ae752e01a90,66daf5b985de1527582d9a60,2024-09-06_14h30.43.345,mdp,2024.2.1,Win32,142.8571429,66d7945b1baad48e845df3ce,,,,,,,,,,,,,,,,,,,,,249.2195,249.2195,249.22,250.7469,1,1,right,1.0153,,250.7473,250.7477,,1,,250.7481,250.7483,,1,,0,250.7483,250.7483,250.7484,252.2469,0,29,29,29,1,0.2,0.8,0.6,0.4,1,0,,,,,,,,,,,,,,,,,,,,,,,,,,,,,,,,,,,,
,,668946f774f64ae752e01a90,66daf5b985de1527582d9a60,2024-09-06_14h30.43.345,mdp,2024.2.1,Win32,142.8571429,66d7945b1baad48e845df3ce,,,,,,,,,,,,,,,,,,,,,252.2471,252.2471,252.2477,253.0315,0,1,left,0.2752,,253.0321,253.0326,,1,,253.0328,253.033,,0,,0,253.033,253.033,253.0333,254.5316,0,30,30,30,1,0.6,0.4,0.4,0.6,1,0,,,,,,,,,,,,,,,,,,,,,,,,,,,,,,,,,,,,
,,668946f774f64ae752e01a90,66daf5b985de1527582d9a60,2024-09-06_14h30.43.345,mdp,2024.2.1,Win32,142.8571429,66d7945b1baad48e845df3ce,,,,,,,,,,,,,,,,,,,,,254.5317,254.5317,254.5322,255.0733,0,0,left,0.0305,,255.0738,255.0742,,1,,255.0744,255.0746,,0,,1,255.0747,255.0747,255.075,256.5732,0,31,31,31,1,0.6,0.4,0.4,0.6,1,0,,,,,,,,,,,,,,,,,,,,,,,,,,,,,,,,,,,,
,,668946f774f64ae752e01a90,66daf5b985de1527582d9a60,2024-09-06_14h30.43.345,mdp,2024.2.1,Win32,142.8571429,66d7945b1baad48e845df3ce,,,,,,,,,,,,,,,,,,,,,256.5734,256.5734,256.5738,257.3926,0,1,left,0.3088,,257.3932,257.3935,,0,,257.3939,257.3941,,0,,0,257.3941,257.3941,257.3943,258.8926,0,32,32,32,1,0.6,0.4,0.4,0.6,1,0,,,,,,,,,,,,,,,,,,,,,,,,,,,,,,,,,,,,
,,668946f774f64ae752e01a90,66daf5b985de1527582d9a60,2024-09-06_14h30.43.345,mdp,2024.2.1,Win32,142.8571429,66d7945b1baad48e845df3ce,,,,,,,,,,,,,,,,,,,,,258.8928,258.8928,258.8932,259.7745,0,0,left,0.3731,,259.7751,259.7755,,1,,259.7758,259.7759,,1,,1,259.776,259.776,259.7761,261.2745,0,33,33,33,1,0.6,0.4,0.4,0.6,1,0,,,,,,,,,,,,,,,,,,,,,,,,,,,,,,,,,,,,
,,668946f774f64ae752e01a90,66daf5b985de1527582d9a60,2024-09-06_14h30.43.345,mdp,2024.2.1,Win32,142.8571429,66d7945b1baad48e845df3ce,,,,,,,,,,,,,,,,,,,,,261.2746,261.2746,261.2752,261.9829,1,1,right,0.2064,,261.9834,261.9838,,0,,261.9841,261.9843,,1,,0,261.9843,261.9843,261.9845,263.4828,0,34,34,34,1,0.6,0.4,0.4,0.6,1,0,,,,,,,,,,,,,,,,,,,,,,,,,,,,,,,,,,,,
,,668946f774f64ae752e01a90,66daf5b985de1527582d9a60,2024-09-06_14h30.43.345,mdp,2024.2.1,Win32,142.8571429,66d7945b1baad48e845df3ce,,,,,,,,,,,,,,,,,,,,,263.483,263.483,263.4836,264.4134,1,1,right,0.417,,264.414,264.4144,,1,,264.4146,264.4147,,0,,0,264.4147,264.4147,264.4149,265.9135,0,35,35,35,1,0.6,0.4,0.4,0.6,1,0,,,,,,,,,,,,,,,,,,,,,,,,,,,,,,,,,,,,
,,668946f774f64ae752e01a90,66daf5b985de1527582d9a60,2024-09-06_14h30.43.345,mdp,2024.2.1,Win32,142.8571429,66d7945b1baad48e845df3ce,,,,,,,,,,,,,,,,,,,,,265.9137,265.9137,265.9142,266.6982,1,1,right,0.272,,266.6988,266.699,,1,,266.6992,266.6995,,1,,0,266.6995,266.6995,266.6996,268.1981,0,36,36,36,1,0.6,0.4,0.4,0.6,1,0,,,,,,,,,,,,,,,,,,,,,,,,,,,,,,,,,,,,
,,668946f774f64ae752e01a90,66daf5b985de1527582d9a60,2024-09-06_14h30.43.345,mdp,2024.2.1,Win32,142.8571429,66d7945b1baad48e845df3ce,,,,,,,,,,,,,,,,,,,,,268.1982,268.1982,268.1987,269.0592,1,0,right,0.3543,,269.0597,269.0601,,1,,269.0604,269.0606,,1,,1,269.0606,269.0606,269.0608,270.5592,0,37,37,37,1,0.6,0.4,0.4,0.6,1,0,,,,,,,,,,,,,,,,,,,,,,,,,,,,,,,,,,,,
,,668946f774f64ae752e01a90,66daf5b985de1527582d9a60,2024-09-06_14h30.43.345,mdp,2024.2.1,Win32,142.8571429,66d7945b1baad48e845df3ce,,,,,,,,,,,,,,,,,,,,,270.5593,270.5593,270.5598,271.344,1,0,right,0.2744,,271.3446,271.345,,1,,271.3452,271.3454,,1,,1,271.3454,271.3454,271.3456,272.8439,0,38,38,38,1,0.6,0.4,0.4,0.6,1,0,,,,,,,,,,,,,,,,,,,,,,,,,,,,,,,,,,,,
,,668946f774f64ae752e01a90,66daf5b985de1527582d9a60,2024-09-06_14h30.43.345,mdp,2024.2.1,Win32,142.8571429,66d7945b1baad48e845df3ce,,,,,,,,,,,,,,,,,,,,,272.8441,272.8441,272.8446,273.6842,1,1,right,0.3274,,273.6846,273.685,,0,,273.6853,273.6855,,1,,0,273.6855,273.6855,273.6857,275.1842,0,39,39,39,1,0.6,0.4,0.4,0.6,1,0,,,,,,,,,,,,,,,,,,,,,,,,,,,,,,,,,,,,
,,668946f774f64ae752e01a90,66daf5b985de1527582d9a60,2024-09-06_14h30.43.345,mdp,2024.2.1,Win32,142.8571429,66d7945b1baad48e845df3ce,,,,,,,,,,,,,,,,,,,,,275.1843,275.1843,275.1853,276.2953,0,1,left,0.6015,,276.2957,276.296,,1,,276.2963,276.2964,,0,,0,276.2964,276.2964,276.2966,277.7954,0,40,40,40,1,0.4,0.6,0.8,0.2,1,0,,,,,,,,,,,,,,,,,,,,,,,,,,,,,,,,,,,,
,,668946f774f64ae752e01a90,66daf5b985de1527582d9a60,2024-09-06_14h30.43.345,mdp,2024.2.1,Win32,142.8571429,66d7945b1baad48e845df3ce,,,,,,,,,,,,,,,,,,,,,277.7956,277.7956,277.7962,278.5107,0,0,left,0.2063,,278.5112,278.5116,,0,,278.512,278.5122,,0,,1,278.5122,278.5122,278.5124,280.0104,0,41,41,41,1,0.6,0.4,0.4,0.6,1,0,,,,,,,,,,,,,,,,,,,,,,,,,,,,,,,,,,,,
,,668946f774f64ae752e01a90,66daf5b985de1527582d9a60,2024-09-06_14h30.43.345,mdp,2024.2.1,Win32,142.8571429,66d7945b1baad48e845df3ce,,,,,,,,,,,,,,,,,,,,,280.0106,280.0106,280.0112,280.7537,0,0,left,0.231,,280.7543,280.7547,,1,,280.7549,280.7551,,0,,1,280.7552,280.7552,280.7553,282.2535,0,42,42,42,1,0.8,0.2,0.8,0.2,1,0,,,,,,,,,,,,,,,,,,,,,,,,,,,,,,,,,,,,
,,668946f774f64ae752e01a90,66daf5b985de1527582d9a60,2024-09-06_14h30.43.345,mdp,2024.2.1,Win32,142.8571429,66d7945b1baad48e845df3ce,,,,,,,,,,,,,,,,,,,,,282.2537,282.2537,282.2543,282.9758,0,0,left,0.2123,,282.9763,282.9766,,0,,282.9768,282.977,,0,,1,282.977,282.977,282.9772,284.4756,0,43,43,43,1,0.8,0.2,0.8,0.2,1,0,,,,,,,,,,,,,,,,,,,,,,,,,,,,,,,,,,,,
,,668946f774f64ae752e01a90,66daf5b985de1527582d9a60,2024-09-06_14h30.43.345,mdp,2024.2.1,Win32,142.8571429,66d7945b1baad48e845df3ce,,,,,,,,,,,,,,,,,,,,,284.4759,284.4759,284.4764,286.7675,1,0,right,1.782,,286.7679,286.7682,,0,,286.7685,286.7687,,0,,1,286.7687,286.7687,286.7689,288.2676,0,44,44,44,1,0.2,0.8,0.6,0.4,1,0,,,,,,,,,,,,,,,,,,,,,,,,,,,,,,,,,,,,
,,668946f774f64ae752e01a90,66daf5b985de1527582d9a60,2024-09-06_14h30.43.345,mdp,2024.2.1,Win32,142.8571429,66d7945b1baad48e845df3ce,,,,,,,,,,,,,,,,,,,,,288.2678,288.2678,288.2683,289.0104,0,1,left,0.23,,289.0109,289.0112,,1,,289.0115,289.0117,,1,,0,289.0117,289.0117,289.0118,290.5104,0,45,45,45,1,0.2,0.8,0.6,0.4,1,0,,,,,,,,,,,,,,,,,,,,,,,,,,,,,,,,,,,,
,,668946f774f64ae752e01a90,66daf5b985de1527582d9a60,2024-09-06_14h30.43.345,mdp,2024.2.1,Win32,142.8571429,66d7945b1baad48e845df3ce,,,,,,,,,,,,,,,,,,,,,290.5107,290.5107,290.5112,291.8022,0,1,left,0.7798,,291.8027,291.803,,1,,291.8032,291.8034,,1,,0,291.8034,291.8034,291.8037,293.3021,0,46,46,46,1,0.2,0.8,0.6,0.4,1,0,,,,,,,,,,,,,,,,,,,,,,,,,,,,,,,,,,,,
,,668946f774f64ae752e01a90,66daf5b985de1527582d9a60,2024-09-06_14h30.43.345,mdp,2024.2.1,Win32,142.8571429,66d7945b1baad48e845df3ce,,,,,,,,,,,,,,,,,,,,,293.3023,293.3023,293.3027,294.5242,1,0,right,0.7078,,294.5248,294.5251,,0,,294.5253,294.5255,,0,,1,294.5255,294.5255,294.5257,296.0243,0,47,47,47,1,0.2,0.8,0.6,0.4,1,0,,,,,,,,,,,,,,,,,,,,,,,,,,,,,,,,,,,,
,,668946f774f64ae752e01a90,66daf5b985de1527582d9a60,2024-09-06_14h30.43.345,mdp,2024.2.1,Win32,142.8571429,66d7945b1baad48e845df3ce,,,,,,,,,,,,,,,,,,,,,296.0245,296.0245,296.025,296.7882,1,0,right,0.2503,,296.7887,296.7891,,0,,296.7895,296.7896,,0,,1,296.7897,296.7897,296.7899,298.2881,0,48,48,48,1,0.2,0.8,0.6,0.4,1,0,,,,,,,,,,,,,,,,,,,,,,,,,,,,,,,,,,,,
,,668946f774f64ae752e01a90,66daf5b985de1527582d9a60,2024-09-06_14h30.43.345,mdp,2024.2.1,Win32,142.8571429,66d7945b1baad48e845df3ce,,,,,,,,,,,,,,,,,,,,,298.2883,298.2883,298.2889,301.0798,1,1,right,2.2812,,301.0803,301.0807,,1,,301.0809,301.0811,,1,,0,301.0811,301.0811,301.0814,302.5799,0,49,49,49,1,0.8,0.2,0.4,0.6,1,0,,,,,,,,,,,,,,,,,,,,,,,,,,,,,,,,,,,,
,,668946f774f64ae752e01a90,66daf5b985de1527582d9a60,2024-09-06_14h30.43.345,mdp,2024.2.1,Win32,142.8571429,66d7945b1baad48e845df3ce,,,,,,,,,,,,,,,,,,,,,,,,,,,,,,,,,,,,,,,,,,,,,,,,,,,,,,,,302.5803,361.0868,0,0,0,3,1,imgs/kangaroo.png,imgs/rabbit.png,imgs/pig.png,imgs/squirrel.png,imgs/bear.png,,,,,,,,,,,,,,,,,,,,,,,,
,,668946f774f64ae752e01a90,66daf5b985de1527582d9a60,2024-09-06_14h30.43.345,mdp,2024.2.1,Win32,142.8571429,66d7945b1baad48e845df3ce,,,,,,,,,,,,,,2,seqs/st2seq23.csv,361.0921,365.9405,space,4.3404,,365.9469,365.9469,365.9474,367.1143,0,1,left,0.6594,,367.1148,369.3155,1,0,right,369.316,369.3164,,0,,1,369.3164,369.3164,369.3166,370.8154,0,0,0,0,1,0.6,0.4,0.4,0.6,,,,,,,,,,,,,,,1.6837,,0.2,0.8,0.6,0.4,0.6,0.4,0.8,0.2,1,0,,,,,,,,,,,,
,,668946f774f64ae752e01a90,66daf5b985de1527582d9a60,2024-09-06_14h30.43.345,mdp,2024.2.1,Win32,142.8571429,66d7945b1baad48e845df3ce,,,,,,,,,,,,,,,,,,,,,370.8156,370.8156,370.8162,371.9892,0,0,left,0.6668,,371.9901,373.753,0,1,left,373.7534,373.7539,,1,,0,373.7539,373.7539,373.7541,375.2532,0,1,1,1,1,0.6,0.4,0.4,0.6,,,,,,,,,,,,,,,1.2563,,0.2,0.8,0.6,0.4,0.4,0.6,0.2,0.8,1,0,,,,,,,,,,,,
,,668946f774f64ae752e01a90,66daf5b985de1527582d9a60,2024-09-06_14h30.43.345,mdp,2024.2.1,Win32,142.8571429,66d7945b1baad48e845df3ce,,,,,,,,,,,,,,,,,,,,,375.2535,375.2535,375.2541,376.4128,0,1,left,0.6461,,376.4133,377.7252,1,1,right,377.7256,377.7261,,0,,0,377.7261,377.7261,377.7262,379.2251,0,2,2,2,1,0.6,0.4,0.4,0.6,,,,,,,,,,,,,,,0.7974,,0.2,0.8,0.6,0.4,0.4,0.6,0.2,0.8,1,0,,,,,,,,,,,,
,,668946f774f64ae752e01a90,66daf5b985de1527582d9a60,2024-09-06_14h30.43.345,mdp,2024.2.1,Win32,142.8571429,66d7945b1baad48e845df3ce,,,,,,,,,,,,,,,,,,,,,379.2252,379.2252,379.2257,381.0099,0,0,left,1.2794,,381.0104,382.8641,0,1,left,382.8645,382.8648,,1,,0,382.8649,382.8649,382.8651,384.364,0,3,3,3,1,0.6,0.4,0.4,0.6,,,,,,,,,,,,,,,1.3475,,0.2,0.8,0.6,0.4,0.2,0.8,0.6,0.4,1,0,,,,,,,,,,,,
,,668946f774f64ae752e01a90,66daf5b985de1527582d9a60,2024-09-06_14h30.43.345,mdp,2024.2.1,Win32,142.8571429,66d7945b1baad48e845df3ce,,,,,,,,,,,,,,,,,,,,,384.3642,384.3642,384.3647,385.3362,0,0,left,0.4614,,385.3367,386.4335,1,0,right,386.4339,386.4343,,0,,1,386.4344,386.4344,386.4346,387.9336,0,4,4,4,1,0.6,0.4,0.4,0.6,,,,,,,,,,,,,,,0.5931,,0.2,0.8,0.6,0.4,0.2,0.8,0.6,0.4,1,0,,,,,,,,,,,,
,,668946f774f64ae752e01a90,66daf5b985de1527582d9a60,2024-09-06_14h30.43.345,mdp,2024.2.1,Win32,142.8571429,66d7945b1baad48e845df3ce,,,,,,,,,,,,,,,,,,,,,387.9338,387.9338,387.9343,389.232,0,0,left,0.789,,389.2325,390.5724,1,0,right,390.5728,390.5732,,0,,1,390.5732,390.5732,390.5736,392.0724,0,5,5,5,1,0.6,0.4,0.4,0.6,,,,,,,,,,,,,,,0.8273,,0.2,0.8,0.6,0.4,0.2,0.8,0.6,0.4,1,0,,,,,,,,,,,,
,,668946f774f64ae752e01a90,66daf5b985de1527582d9a60,2024-09-06_14h30.43.345,mdp,2024.2.1,Win32,142.8571429,66d7945b1baad48e845df3ce,,,,,,,,,,,,,,,,,,,,,392.0726,392.0726,392.073,393.0167,0,1,left,0.4341,,393.0173,394.3709,1,0,right,394.3715,394.3718,,0,,1,394.3719,394.3719,394.3721,395.8708,0,6,6,6,1,0.6,0.4,0.4,0.6,,,,,,,,,,,,,,,0.8461,,0.2,0.8,0.6,0.4,0.2,0.8,0.6,0.4,1,0,,,,,,,,,,,,
,,668946f774f64ae752e01a90,66daf5b985de1527582d9a60,2024-09-06_14h30.43.345,mdp,2024.2.1,Win32,142.8571429,66d7945b1baad48e845df3ce,,,,,,,,,,,,,,,,,,,,,395.871,395.871,395.8714,396.8154,0,1,left,0.4351,,396.816,397.7044,1,0,right,397.7048,397.7052,,0,,1,397.7052,397.7052,397.7054,399.2042,0,7,7,7,1,0.6,0.4,0.4,0.6,,,,,,,,,,,,,,,0.3792,,0.2,0.8,0.6,0.4,0.2,0.8,0.6,0.4,1,0,,,,,,,,,,,,
,,668946f774f64ae752e01a90,66daf5b985de1527582d9a60,2024-09-06_14h30.43.345,mdp,2024.2.1,Win32,142.8571429,66d7945b1baad48e845df3ce,,,,,,,,,,,,,,,,,,,,,399.2044,399.2044,399.2048,400.0793,0,0,left,0.3663,,400.0798,400.8848,1,0,right,400.8854,400.8859,,0,,1,400.8859,400.8859,400.8861,402.3847,0,8,8,8,1,0.6,0.4,0.4,0.6,,,,,,,,,,,,,,,0.2904,,0.2,0.8,0.6,0.4,0.2,0.8,0.6,0.4,1,0,,,,,,,,,,,,
,,668946f774f64ae752e01a90,66daf5b985de1527582d9a60,2024-09-06_14h30.43.345,mdp,2024.2.1,Win32,142.8571429,66d7945b1baad48e845df3ce,,,,,,,,,,,,,,,,,,,,,402.3848,402.3848,402.3854,403.2319,0,0,left,0.3373,,403.2324,404.1278,1,0,right,404.1284,404.1287,,0,,1,404.1288,404.1288,404.1291,405.6278,0,9,9,9,1,0.6,0.4,0.4,0.6,,,,,,,,,,,,,,,0.3937,,0.2,0.8,0.6,0.4,0.2,0.8,0.6,0.4,1,0,,,,,,,,,,,,
,,668946f774f64ae752e01a90,66daf5b985de1527582d9a60,2024-09-06_14h30.43.345,mdp,2024.2.1,Win32,142.8571429,66d7945b1baad48e845df3ce,,,,,,,,,,,,,,,,,,,,,405.628,405.628,405.6284,406.4819,0,0,left,0.3428,,406.4824,407.7876,1,1,right,407.788,407.7885,,1,,0,407.7885,407.7885,407.7888,409.2875,0,10,10,10,1,0.6,0.4,0.4,0.6,,,,,,,,,,,,,,,0.7915,,0.2,0.8,0.6,0.4,0.2,0.8,0.6,0.4,1,0,,,,,,,,,,,,
,,668946f774f64ae752e01a90,66daf5b985de1527582d9a60,2024-09-06_14h30.43.345,mdp,2024.2.1,Win32,142.8571429,66d7945b1baad48e845df3ce,,,,,,,,,,,,,,,,,,,,,409.2877,409.2877,409.2882,410.4543,0,0,left,0.6584,,410.4549,411.364,1,1,right,411.3644,411.3648,,1,,0,411.3648,411.3648,411.3651,412.864,0,11,11,11,1,0.6,0.4,0.4,0.6,,,,,,,,,,,,,,,0.3963,,0.2,0.8,0.6,0.4,0.2,0.8,0.6,0.4,1,0,,,,,,,,,,,,
,,668946f774f64ae752e01a90,66daf5b985de1527582d9a60,2024-09-06_14h30.43.345,mdp,2024.2.1,Win32,142.8571429,66d7945b1baad48e845df3ce,,,,,,,,,,,,,,,,,,,,,412.8641,412.8641,412.8646,413.7458,0,0,left,0.3706,,413.7463,414.6625,0,1,left,414.663,414.6635,,1,,0,414.6635,414.6635,414.6639,416.1624,0,12,12,12,1,0.6,0.4,0.4,0.6,,,,,,,,,,,,,,,0.4143,,0.2,0.8,0.6,0.4,0.2,0.8,0.6,0.4,1,0,,,,,,,,,,,,
,,668946f774f64ae752e01a90,66daf5b985de1527582d9a60,2024-09-06_14h30.43.345,mdp,2024.2.1,Win32,142.8571429,66d7945b1baad48e845df3ce,,,,,,,,,,,,,,,,,,,,,416.1625,416.1625,416.163,417.0652,1,0,right,0.3914,,417.0658,418.5514,1,0,right,418.5519,418.5523,,0,,1,418.5523,418.5523,418.5526,420.0515,0,13,13,13,1,0.6,0.4,0.4,0.6,,,,,,,,,,,,,,,0.9772,,0.2,0.8,0.6,0.4,0.2,0.8,0.6,0.4,1,0,,,,,,,,,,,,
,,668946f774f64ae752e01a90,66daf5b985de1527582d9a60,2024-09-06_14h30.43.345,mdp,2024.2.1,Win32,142.8571429,66d7945b1baad48e845df3ce,,,,,,,,,,,,,,,,,,,,,420.0517,420.0517,420.0522,420.9609,1,1,right,0.3989,,420.9614,421.8082,1,0,right,421.8086,421.809,,1,,1,421.809,421.809,421.8093,423.3083,0,14,14,14,1,0.6,0.4,0.4,0.6,,,,,,,,,,,,,,,0.342,,0.2,0.8,0.6,0.4,0.2,0.8,0.6,0.4,1,0,,,,,,,,,,,,
,,668946f774f64ae752e01a90,66daf5b985de1527582d9a60,2024-09-06_14h30.43.345,mdp,2024.2.1,Win32,142.8571429,66d7945b1baad48e845df3ce,,,,,,,,,,,,,,,,,,,,,423.3084,423.3084,423.3089,424.1693,1,1,right,0.3488,,424.1699,425.1763,1,0,right,425.1767,425.177,,0,,1,425.177,425.177,425.1773,426.6765,0,15,15,15,1,0.6,0.4,0.4,0.6,,,,,,,,,,,,,,,0.4972,,0.2,0.8,0.6,0.4,0.2,0.8,0.6,0.4,1,0,,,,,,,,,,,,
,,668946f774f64ae752e01a90,66daf5b985de1527582d9a60,2024-09-06_14h30.43.345,mdp,2024.2.1,Win32,142.8571429,66d7945b1baad48e845df3ce,,,,,,,,,,,,,,,,,,,,,426.6767,426.6767,426.6773,427.6624,1,0,right,0.4776,,427.6629,428.9541,1,1,right,428.9546,428.9551,,0,,0,428.9551,428.9551,428.9553,430.4542,0,16,16,16,1,0.6,0.4,0.4,0.6,,,,,,,,,,,,,,,0.7779,,0.2,0.8,0.6,0.4,0.2,0.8,0.6,0.4,1,0,,,,,,,,,,,,
,,668946f774f64ae752e01a90,66daf5b985de1527582d9a60,2024-09-06_14h30.43.345,mdp,2024.2.1,Win32,142.8571429,66d7945b1baad48e845df3ce,,,,,,,,,,,,,,,,,,,,,430.4544,430.4544,430.4551,431.2596,0,1,left,0.2919,,431.2602,432.0513,1,0,right,432.0519,432.0522,,0,,1,432.0523,432.0523,432.0525,433.5512,0,17,17,17,1,0.6,0.4,0.4,0.6,,,,,,,,,,,,,,,0.2836,,0.2,0.8,0.6,0.4,0.2,0.8,0.6,0.4,1,0,,,,,,,,,,,,
,,668946f774f64ae752e01a90,66daf5b985de1527582d9a60,2024-09-06_14h30.43.345,mdp,2024.2.1,Win32,142.8571429,66d7945b1baad48e845df3ce,,,,,,,,,,,,,,,,,,,,,433.5514,433.5514,433.552,434.3568,0,0,left,0.2929,,434.3573,435.2527,1,0,right,435.2531,435.2534,,1,,1,435.2534,435.2534,435.2537,436.7526,0,18,18,18,1,0.6,0.4,0.4,0.6,,,,,,,,,,,,,,,0.3875,,0.2,0.8,0.6,0.4,0.2,0.8,0.6,0.4,1,0,,,,,,,,,,,,
,,668946f774f64ae752e01a90,66daf5b985de1527582d9a60,2024-09-06_14h30.43.345,mdp,2024.2.1,Win32,142.8571429,66d7945b1baad48e845df3ce,,,,,,,,,,,,,,,,,,,,,436.7527,436.7527,436.7532,437.5513,0,1,left,0.2885,,437.5518,438.8081,1,0,right,438.8087,438.809,,0,,1,438.8091,438.8091,438.8093,440.3081,0,19,19,19,1,0.6,0.4,0.4,0.6,,,,,,,,,,,,,,,0.7524,,0.2,0.8,0.6,0.4,0.2,0.8,0.6,0.4,1,0,,,,,,,,,,,,
,,668946f774f64ae752e01a90,66daf5b985de1527582d9a60,2024-09-06_14h30.43.345,mdp,2024.2.1,Win32,142.8571429,66d7945b1baad48e845df3ce,,,,,,,,,,,,,,,,,,,,,440.3083,440.3083,440.3087,441.2109,0,1,left,0.3901,,441.2114,441.9541,1,1,right,441.9546,441.9549,,0,,0,441.955,441.955,441.9553,443.4539,0,20,20,20,1,0.6,0.4,0.4,0.6,,,,,,,,,,,,,,,0.2379,,0.2,0.8,0.6,0.4,0.4,0.6,0.8,0.2,1,0,,,,,,,,,,,,
,,668946f774f64ae752e01a90,66daf5b985de1527582d9a60,2024-09-06_14h30.43.345,mdp,2024.2.1,Win32,142.8571429,66d7945b1baad48e845df3ce,,,,,,,,,,,,,,,,,,,,,443.4541,443.4541,443.4546,444.2595,0,1,left,0.2988,,444.26,445.0026,0,1,left,445.003,445.0034,,1,,0,445.0034,445.0034,445.0037,446.5026,0,21,21,21,1,0.6,0.4,0.4,0.6,,,,,,,,,,,,,,,0.2379,,0.2,0.8,0.6,0.4,0.4,0.6,0.8,0.2,1,0,,,,,,,,,,,,
,,668946f774f64ae752e01a90,66daf5b985de1527582d9a60,2024-09-06_14h30.43.345,mdp,2024.2.1,Win32,142.8571429,66d7945b1baad48e845df3ce,,,,,,,,,,,,,,,,,,,,,446.5028,446.5028,446.5031,447.2596,0,1,left,0.2434,,447.26,448.7802,1,0,right,448.781,448.7812,,0,,1,448.7813,448.7813,448.7815,450.2803,0,22,22,22,1,0.6,0.4,0.4,0.6,,,,,,,,,,,,,,,1.0078,,0.2,0.8,0.6,0.4,0.4,0.6,0.8,0.2,1,0,,,,,,,,,,,,
,,668946f774f64ae752e01a90,66daf5b985de1527582d9a60,2024-09-06_14h30.43.345,mdp,2024.2.1,Win32,142.8571429,66d7945b1baad48e845df3ce,,,,,,,,,,,,,,,,,,,,,450.2804,450.2804,450.281,451.0095,0,1,left,0.2183,,451.0099,451.9402,1,0,right,451.9407,451.941,,0,,1,451.941,451.941,451.9413,453.44,0,23,23,23,1,0.6,0.4,0.4,0.6,,,,,,,,,,,,,,,0.4175,,0.2,0.8,0.6,0.4,0.4,0.6,0.8,0.2,1,0,,,,,,,,,,,,
,,668946f774f64ae752e01a90,66daf5b985de1527582d9a60,2024-09-06_14h30.43.345,mdp,2024.2.1,Win32,142.8571429,66d7945b1baad48e845df3ce,,,,,,,,,,,,,,,,,,,,,453.4401,453.4401,453.4406,454.2664,0,0,left,0.3144,,454.2668,455.0511,1,1,right,455.0516,455.052,,0,,0,455.052,455.052,455.0523,456.551,0,24,24,24,1,0.6,0.4,0.4,0.6,,,,,,,,,,,,,,,0.2767,,0.2,0.8,0.6,0.4,0.4,0.6,0.8,0.2,1,0,,,,,,,,,,,,
,,668946f774f64ae752e01a90,66daf5b985de1527582d9a60,2024-09-06_14h30.43.345,mdp,2024.2.1,Win32,142.8571429,66d7945b1baad48e845df3ce,,,,,,,,,,,,,,,,,,,,,456.5512,456.5512,456.5517,457.2594,0,0,left,0.1942,,457.2601,458.0997,0,1,left,458.1003,458.1007,,1,,0,458.1007,458.1007,458.1011,459.5998,0,25,25,25,1,0.6,0.4,0.4,0.6,,,,,,,,,,,,,,,0.3345,,0.2,0.8,0.6,0.4,0.4,0.6,0.8,0.2,1,0,,,,,,,,,,,,
,,668946f774f64ae752e01a90,66daf5b985de1527582d9a60,2024-09-06_14h30.43.345,mdp,2024.2.1,Win32,142.8571429,66d7945b1baad48e845df3ce,,,,,,,,,,,,,,,,,,,,,459.5999,459.5999,459.6004,460.3914,0,1,left,0.2828,,460.3919,461.426,1,0,right,461.4265,461.4268,,0,,1,461.4269,461.4269,461.4272,462.9262,0,26,26,26,1,0.6,0.4,0.4,0.6,,,,,,,,,,,,,,,0.5259,,0.2,0.8,0.6,0.4,0.4,0.6,0.8,0.2,1,0,,,,,,,,,,,,
,,668946f774f64ae752e01a90,66daf5b985de1527582d9a60,2024-09-06_14h30.43.345,mdp,2024.2.1,Win32,142.8571429,66d7945b1baad48e845df3ce,,,,,,,,,,,,,,,,,,,,,462.9262,462.9262,462.9267,463.7525,0,0,left,0.3163,,463.753,464.5302,1,0,right,464.5306,464.531,,0,,1,464.531,464.531,464.5312,466.0301,0,27,27,27,1,0.6,0.4,0.4,0.6,,,,,,,,,,,,,,,0.2637,,0.2,0.8,0.6,0.4,0.4,0.6,0.8,0.2,1,0,,,,,,,,,,,,
,,668946f774f64ae752e01a90,66daf5b985de1527582d9a60,2024-09-06_14h30.43.345,mdp,2024.2.1,Win32,142.8571429,66d7945b1baad48e845df3ce,,,,,,,,,,,,,,,,,,,,,466.0303,466.0303,466.0308,466.8287,0,0,left,0.2855,,466.8292,467.676,1,0,right,467.6765,467.6768,,0,,1,467.6769,467.6769,467.6771,469.176,0,28,28,28,1,0.6,0.4,0.4,0.6,,,,,,,,,,,,,,,0.3415,,0.2,0.8,0.6,0.4,0.4,0.6,0.8,0.2,1,0,,,,,,,,,,,,
,,668946f774f64ae752e01a90,66daf5b985de1527582d9a60,2024-09-06_14h30.43.345,mdp,2024.2.1,Win32,142.8571429,66d7945b1baad48e845df3ce,,,,,,,,,,,,,,,,,,,,,469.1763,469.1763,469.1768,470.0648,0,0,left,0.3782,,470.0653,471.7666,1,1,right,471.7671,471.7673,,0,,0,471.7673,471.7673,471.7676,473.2664,0,29,29,29,1,0.6,0.4,0.4,0.6,,,,,,,,,,,,,,,1.2,,0.2,0.8,0.6,0.4,0.4,0.6,0.8,0.2,1,0,,,,,,,,,,,,
,,668946f774f64ae752e01a90,66daf5b985de1527582d9a60,2024-09-06_14h30.43.345,mdp,2024.2.1,Win32,142.8571429,66d7945b1baad48e845df3ce,,,,,,,,,,,,,,,,,,,,,473.2666,473.2666,473.2671,474.2178,1,0,right,0.4397,,474.2185,474.9677,0,1,left,474.9682,474.9686,,1,,0,474.9686,474.9686,474.9689,476.4676,0,30,30,30,1,0.6,0.4,0.4,0.6,,,,,,,,,,,,,,,0.2401,,0.2,0.8,0.6,0.4,0.4,0.6,0.8,0.2,1,0,,,,,,,,,,,,
,,668946f774f64ae752e01a90,66daf5b985de1527582d9a60,2024-09-06_14h30.43.345,mdp,2024.2.1,Win32,142.8571429,66d7945b1baad48e845df3ce,,,,,,,,,,,,,,,,,,,,,476.4678,476.4678,476.4682,477.2176,0,0,left,0.2382,,477.218,478.0788,1,1,right,478.0793,478.0798,,0,,0,478.0798,478.0798,478.0801,479.5787,0,31,31,31,1,0.6,0.4,0.4,0.6,,,,,,,,,,,,,,,0.3595,,0.2,0.8,0.6,0.4,0.4,0.6,0.8,0.2,1,0,,,,,,,,,,,,
,,668946f774f64ae752e01a90,66daf5b985de1527582d9a60,2024-09-06_14h30.43.345,mdp,2024.2.1,Win32,142.8571429,66d7945b1baad48e845df3ce,,,,,,,,,,,,,,,,,,,,,479.5788,479.5789,479.5793,480.5927,1,1,right,0.5033,,480.5932,481.6065,1,1,right,481.6071,481.6074,,1,,0,481.6075,481.6075,481.6076,483.1064,0,32,32,32,1,0.6,0.4,0.4,0.6,,,,,,,,,,,,,,,0.5035,,0.2,0.8,0.6,0.4,0.2,0.8,0.6,0.4,1,0,,,,,,,,,,,,
,,668946f774f64ae752e01a90,66daf5b985de1527582d9a60,2024-09-06_14h30.43.345,mdp,2024.2.1,Win32,142.8571429,66d7945b1baad48e845df3ce,,,,,,,,,,,,,,,,,,,,,483.1067,483.1067,483.1073,483.8564,0,0,left,0.2387,,483.8569,484.6065,1,0,right,484.6071,484.6075,,0,,1,484.6075,484.6075,484.6077,486.1067,0,33,33,33,1,0.4,0.6,0.6,0.4,,,,,,,,,,,,,,,0.247,,0.2,0.8,0.6,0.4,0.2,0.8,0.6,0.4,1,0,,,,,,,,,,,,
,,668946f774f64ae752e01a90,66daf5b985de1527582d9a60,2024-09-06_14h30.43.345,mdp,2024.2.1,Win32,142.8571429,66d7945b1baad48e845df3ce,,,,,,,,,,,,,,,,,,,,,486.1068,486.1068,486.1073,486.8912,0,0,left,0.2718,,486.8917,487.655,1,1,right,487.6556,487.6559,,0,,0,487.6559,487.6559,487.6562,489.155,0,34,34,34,1,0.6,0.4,0.4,0.6,,,,,,,,,,,,,,,0.2548,,0.2,0.8,0.6,0.4,0.2,0.8,0.6,0.4,1,0,,,,,,,,,,,,
,,668946f774f64ae752e01a90,66daf5b985de1527582d9a60,2024-09-06_14h30.43.345,mdp,2024.2.1,Win32,142.8571429,66d7945b1baad48e845df3ce,,,,,,,,,,,,,,,,,,,,,489.1552,489.1552,489.1557,492.0022,0,0,left,2.3352,,492.0027,492.7453,1,0,right,492.7459,492.7463,,0,,1,492.7463,492.7463,492.7466,494.2453,0,35,35,35,1,0.6,0.4,0.4,0.6,,,,,,,,,,,,,,,0.2385,,0.2,0.8,0.6,0.4,0.2,0.8,0.6,0.4,1,0,,,,,,,,,,,,
,,668946f774f64ae752e01a90,66daf5b985de1527582d9a60,2024-09-06_14h30.43.345,mdp,2024.2.1,Win32,142.8571429,66d7945b1baad48e845df3ce,,,,,,,,,,,,,,,,,,,,,494.2455,494.2455,494.2459,495.155,0,1,left,0.3969,,495.1555,495.9328,1,0,right,495.9333,495.9336,,0,,1,495.9336,495.9336,495.9339,497.4327,0,36,36,36,1,0.6,0.4,0.4,0.6,,,,,,,,,,,,,,,0.2689,,0.2,0.8,0.6,0.4,0.2,0.8,0.6,0.4,1,0,,,,,,,,,,,,
,,668946f774f64ae752e01a90,66daf5b985de1527582d9a60,2024-09-06_14h30.43.345,mdp,2024.2.1,Win32,142.8571429,66d7945b1baad48e845df3ce,,,,,,,,,,,,,,,,,,,,,497.433,497.433,497.4334,498.1619,0,0,left,0.2175,,498.1624,498.9119,1,0,right,498.9124,498.9127,,1,,1,498.9128,498.9128,498.913,500.412,0,37,37,37,1,0.6,0.4,0.4,0.6,,,,,,,,,,,,,,,0.2451,,0.2,0.8,0.6,0.4,0.2,0.8,0.6,0.4,1,0,,,,,,,,,,,,
,,668946f774f64ae752e01a90,66daf5b985de1527582d9a60,2024-09-06_14h30.43.345,mdp,2024.2.1,Win32,142.8571429,66d7945b1baad48e845df3ce,,,,,,,,,,,,,,,,,,,,,500.4122,500.4122,500.4126,501.1758,0,1,left,0.2536,,501.1764,502.1063,1,1,right,502.1068,502.1071,,1,,0,502.1071,502.1071,502.1074,503.6063,0,38,38,38,1,0.6,0.4,0.4,0.6,,,,,,,,,,,,,,,0.417,,0.2,0.8,0.6,0.4,0.2,0.8,0.6,0.4,1,0,,,,,,,,,,,,
,,668946f774f64ae752e01a90,66daf5b985de1527582d9a60,2024-09-06_14h30.43.345,mdp,2024.2.1,Win32,142.8571429,66d7945b1baad48e845df3ce,,,,,,,,,,,,,,,,,,,,,503.6064,503.6064,503.6069,504.3217,0,1,left,0.204,,504.3223,505.0855,1,0,right,505.086,505.0864,,0,,1,505.0864,505.0864,505.0866,506.5854,0,39,39,39,1,0.6,0.4,0.4,0.6,,,,,,,,,,,,,,,0.2501,,0.2,0.8,0.6,0.4,0.2,0.8,0.6,0.4,1,0,,,,,,,,,,,,
,,668946f774f64ae752e01a90,66daf5b985de1527582d9a60,2024-09-06_14h30.43.345,mdp,2024.2.1,Win32,142.8571429,66d7945b1baad48e845df3ce,,,,,,,,,,,,,,,,,,,,,506.5856,506.5856,506.5861,507.4953,0,0,left,0.4009,,507.4958,508.28,1,1,right,508.2805,508.2808,,1,,0,508.2808,508.2808,508.281,509.7799,0,40,40,40,1,0.6,0.4,0.4,0.6,,,,,,,,,,,,,,,0.2735,,0.2,0.8,0.6,0.4,0.2,0.8,0.6,0.4,1,0,,,,,,,,,,,,
,,668946f774f64ae752e01a90,66daf5b985de1527582d9a60,2024-09-06_14h30.43.345,mdp,2024.2.1,Win32,142.8571429,66d7945b1baad48e845df3ce,,,,,,,,,,,,,,,,,,,,,509.7801,509.7801,509.7806,510.9952,0,0,left,0.7025,,510.9958,511.6966,1,0,right,511.6971,511.6974,,0,,1,511.6974,511.6974,511.6977,513.1966,0,41,41,41,1,0.6,0.4,0.4,0.6,,,,,,,,,,,,,,,0.198,,0.2,0.8,0.6,0.4,0.2,0.8,0.6,0.4,1,0,,,,,,,,,,,,
,,668946f774f64ae752e01a90,66daf5b985de1527582d9a60,2024-09-06_14h30.43.345,mdp,2024.2.1,Win32,142.8571429,66d7945b1baad48e845df3ce,,,,,,,,,,,,,,,,,,,,,513.1968,513.1968,513.1972,520.2243,0,1,left,6.5181,,520.2292,521.023,1,0,right,521.0235,521.0239,,0,,1,521.0239,521.0239,521.0243,522.5228,0,42,42,42,1,0.6,0.4,0.4,0.6,,,,,,,,,,,,,,,0.2887,,0.2,0.8,0.6,0.4,0.2,0.8,0.6,0.4,1,0,,,,,,,,,,,,
,,668946f774f64ae752e01a90,66daf5b985de1527582d9a60,2024-09-06_14h30.43.345,mdp,2024.2.1,Win32,142.8571429,66d7945b1baad48e845df3ce,,,,,,,,,,,,,,,,,,,,,522.523,522.523,522.5236,523.4465,0,1,left,0.4148,,523.447,524.259,1,1,right,524.2595,524.2599,,1,,0,524.2599,524.2599,524.2602,525.759,0,43,43,43,1,0.6,0.4,0.4,0.6,,,,,,,,,,,,,,,0.2997,,0.2,0.8,0.6,0.4,0.2,0.8,0.6,0.4,1,0,,,,,,,,,,,,
,,668946f774f64ae752e01a90,66daf5b985de1527582d9a60,2024-09-06_14h30.43.345,mdp,2024.2.1,Win32,142.8571429,66d7945b1baad48e845df3ce,,,,,,,,,,,,,,,,,,,,,525.7592,525.7592,525.7595,528.7036,0,0,left,2.4352,,528.7042,529.4464,1,0,right,529.447,529.4473,,0,,1,529.4474,529.4474,529.4478,530.9466,0,44,44,44,1,0.6,0.4,0.4,0.6,,,,,,,,,,,,,,,0.2329,,0.2,0.8,0.6,0.4,0.2,0.8,0.6,0.4,1,0,,,,,,,,,,,,
,,668946f774f64ae752e01a90,66daf5b985de1527582d9a60,2024-09-06_14h30.43.345,mdp,2024.2.1,Win32,142.8571429,66d7945b1baad48e845df3ce,,,,,,,,,,,,,,,,,,,,,530.9467,530.9467,530.9472,532.0367,0,1,left,0.5761,,532.0371,532.7729,1,1,right,532.7733,532.7737,,0,,0,532.7737,532.7737,532.7739,534.2727,0,45,45,45,1,0.6,0.4,0.4,0.6,,,,,,,,,,,,,,,0.2272,,0.2,0.8,0.6,0.4,0.2,0.8,0.6,0.4,1,0,,,,,,,,,,,,
,,668946f774f64ae752e01a90,66daf5b985de1527582d9a60,2024-09-06_14h30.43.345,mdp,2024.2.1,Win32,142.8571429,66d7945b1baad48e845df3ce,,,,,,,,,,,,,,,,,,,,,534.2729,534.2729,534.2734,535.1548,0,0,left,0.376,,535.1554,536.3284,1,1,right,536.3289,536.3292,,0,,0,536.3292,536.3292,536.3295,537.8283,0,46,46,46,1,0.6,0.4,0.4,0.6,,,,,,,,,,,,,,,0.6619,,0.2,0.8,0.6,0.4,0.2,0.8,0.6,0.4,1,0,,,,,,,,,,,,
,,668946f774f64ae752e01a90,66daf5b985de1527582d9a60,2024-09-06_14h30.43.345,mdp,2024.2.1,Win32,142.8571429,66d7945b1baad48e845df3ce,,,,,,,,,,,,,,,,,,,,,537.8285,537.8285,537.829,540.7034,0,0,left,2.3658,,540.7039,541.5923,1,1,right,541.5929,541.5933,,0,,0,541.5933,541.5933,541.5937,543.0922,0,47,47,47,1,0.6,0.4,0.4,0.6,,,,,,,,,,,,,,,0.3786,,0.2,0.8,0.6,0.4,0.2,0.8,0.6,0.4,1,0,,,,,,,,,,,,
,,668946f774f64ae752e01a90,66daf5b985de1527582d9a60,2024-09-06_14h30.43.345,mdp,2024.2.1,Win32,142.8571429,66d7945b1baad48e845df3ce,,,,,,,,,,,,,,,,,,,,,543.0924,543.0924,543.0928,543.856,0,0,left,0.2539,,543.8566,544.6479,1,1,right,544.6485,544.6489,,1,,0,544.6489,544.6489,544.6493,546.1478,0,48,48,48,1,0.6,0.4,0.4,0.6,,,,,,,,,,,,,,,0.2887,,0.2,0.8,0.6,0.4,0.2,0.8,0.6,0.4,1,0,,,,,,,,,,,,
,,668946f774f64ae752e01a90,66daf5b985de1527582d9a60,2024-09-06_14h30.43.345,mdp,2024.2.1,Win32,142.8571429,66d7945b1baad48e845df3ce,,,,,,,,,,,,,,,,,,,,,546.1479,546.1479,546.1484,546.9116,0,0,left,0.2543,,546.9122,547.6963,1,0,right,547.6968,547.6971,,0,,1,547.6972,547.6972,547.6975,549.1963,0,49,49,49,1,0.6,0.4,0.4,0.6,,,,,,,,,,,,,,,0.2814,,0.2,0.8,0.6,0.4,0.2,0.8,0.6,0.4,1,0,,,,,,,,,,,,
,,668946f774f64ae752e01a90,66daf5b985de1527582d9a60,2024-09-06_14h30.43.345,mdp,2024.2.1,Win32,142.8571429,66d7945b1baad48e845df3ce,,,,,,,,,,,,,,,,,,,,,,,,,,,,,,,,,,,,,,,,,,,,,,,,,,,,,,,,549.1963,607.703,0,1,1,4,1,imgs/giraffe.png,imgs/horse.png,imgs/squirrel.png,imgs/bear.png,imgs/rabbit.png,,,,,,,,,,,,,,,,,,,,,,,,
,,668946f774f64ae752e01a90,66daf5b985de1527582d9a60,2024-09-06_14h30.43.345,mdp,2024.2.1,Win32,142.8571429,66d7945b1baad48e845df3ce,,,,,,,,,,,,,,3,seqs/st3seq1.csv,607.7104,609.4183,space,1.2028,,609.4218,609.4218,609.4222,611.1196,1,0,right,1.1885,,611.1202,612.2795,0,1,left,612.2802,613.2446,1,1,right,0,613.2447,613.2447,613.2451,614.7448,0,0,0,0,1,0.2,0.8,0.8,0.2,,,,,,,,,,,,,,,0.6474,,0.2,0.8,0.8,0.2,0.6,0.4,0.2,0.8,,,0.4485,,0.8,0.2,0.2,0.8,0.6,0.4,0.6,0.4,1,0
,,668946f774f64ae752e01a90,66daf5b985de1527582d9a60,2024-09-06_14h30.43.345,mdp,2024.2.1,Win32,142.8571429,66d7945b1baad48e845df3ce,,,,,,,,,,,,,,,,,,,,,614.7451,614.7452,614.7456,615.6473,0,1,left,0.3932,,615.6478,616.5292,0,0,left,616.5298,617.5848,0,0,left,1,617.5848,617.5848,617.5853,619.0849,0,1,1,1,1,0.2,0.8,0.8,0.2,,,,,,,,,,,,,,,0.374,,0.2,0.8,0.8,0.2,0.6,0.4,0.2,0.8,,,0.5475,,0.8,0.2,0.2,0.8,0.6,0.4,0.6,0.4,1,0
,,668946f774f64ae752e01a90,66daf5b985de1527582d9a60,2024-09-06_14h30.43.345,mdp,2024.2.1,Win32,142.8571429,66d7945b1baad48e845df3ce,,,,,,,,,,,,,,,,,,,,,619.0852,619.0852,619.0856,619.8972,0,1,left,0.302,,619.8977,620.7445,0,0,left,620.745,621.5641,0,0,left,1,621.5641,621.5641,621.5646,623.0639,0,2,2,2,1,0.2,0.8,0.8,0.2,,,,,,,,,,,,,,,0.3441,,0.2,0.8,0.8,0.2,0.6,0.4,0.2,0.8,,,0.3064,,0.8,0.2,0.2,0.8,0.6,0.4,0.6,0.4,1,0
,,668946f774f64ae752e01a90,66daf5b985de1527582d9a60,2024-09-06_14h30.43.345,mdp,2024.2.1,Win32,142.8571429,66d7945b1baad48e845df3ce,,,,,,,,,,,,,,,,,,,,,623.0642,623.0642,623.0647,623.8902,0,1,left,0.3142,,623.8907,624.8556,0,0,left,624.8561,625.682,0,0,left,1,625.6821,625.6821,625.6825,627.1819,0,3,3,3,1,0.2,0.8,0.8,0.2,,,,,,,,,,,,,,,0.4564,,0.2,0.8,0.8,0.2,0.4,0.6,0.8,0.2,,,0.3148,,0.8,0.2,0.2,0.8,0.6,0.4,0.6,0.4,1,0
,,668946f774f64ae752e01a90,66daf5b985de1527582d9a60,2024-09-06_14h30.43.345,mdp,2024.2.1,Win32,142.8571429,66d7945b1baad48e845df3ce,,,,,,,,,,,,,,,,,,,,,627.1821,627.1821,627.1826,627.9458,0,1,left,0.2516,,627.9463,628.6402,0,1,left,628.6408,629.5223,0,1,left,0,629.5223,629.5223,629.5228,631.0223,0,4,4,4,1,0.2,0.8,0.8,0.2,,,,,,,,,,,,,,,0.1911,,0.2,0.8,0.8,0.2,0.4,0.6,0.8,0.2,,,0.3749,,0.8,0.2,0.2,0.8,0.6,0.4,0.6,0.4,1,0
,,668946f774f64ae752e01a90,66daf5b985de1527582d9a60,2024-09-06_14h30.43.345,mdp,2024.2.1,Win32,142.8571429,66d7945b1baad48e845df3ce,,,,,,,,,,,,,,,,,,,,,631.0225,631.0225,631.023,631.8277,0,1,left,0.2926,,631.8282,632.7514,0,1,left,632.7521,633.5916,1,0,right,1,633.5917,633.5917,633.5922,635.0917,0,5,5,5,1,0.6,0.4,0.4,0.6,,,,,,,,,,,,,,,0.4213,,0.2,0.8,0.8,0.2,0.4,0.6,0.8,0.2,,,0.3376,,0.8,0.2,0.2,0.8,0.6,0.4,0.6,0.4,1,0
,,668946f774f64ae752e01a90,66daf5b985de1527582d9a60,2024-09-06_14h30.43.345,mdp,2024.2.1,Win32,142.8571429,66d7945b1baad48e845df3ce,,,,,,,,,,,,,,,,,,,,,635.0919,635.0919,635.0924,635.9457,0,0,left,0.3421,,635.9462,638.1679,0,1,left,638.1685,639.2235,1,0,right,1,639.2235,639.2235,639.224,640.7235,0,6,6,6,1,0.6,0.4,0.4,0.6,,,,,,,,,,,,,,,1.7106,,0.2,0.8,0.8,0.2,0.4,0.6,0.8,0.2,,,0.5466,,0.8,0.2,0.2,0.8,0.6,0.4,0.6,0.4,1,0
,,668946f774f64ae752e01a90,66daf5b985de1527582d9a60,2024-09-06_14h30.43.345,mdp,2024.2.1,Win32,142.8571429,66d7945b1baad48e845df3ce,,,,,,,,,,,,,,,,,,,,,640.7237,640.7237,640.7243,642.1333,0,0,left,0.8968,,642.1337,643.0915,0,1,left,643.0921,643.9804,1,0,right,1,643.9804,643.9804,643.9809,645.4804,0,7,7,7,1,0.6,0.4,0.4,0.6,,,,,,,,,,,,,,,0.4451,,0.2,0.8,0.8,0.2,0.6,0.4,0.4,0.6,,,0.3829,,0.8,0.2,0.2,0.8,0.6,0.4,0.6,0.4,1,0
,,668946f774f64ae752e01a90,66daf5b985de1527582d9a60,2024-09-06_14h30.43.345,mdp,2024.2.1,Win32,142.8571429,66d7945b1baad48e845df3ce,,,,,,,,,,,,,,,,,,,,,645.4806,645.4806,645.481,646.2721,0,0,left,0.2823,,646.2726,647.2652,0,1,left,647.2657,648.2027,1,1,right,0,648.2027,648.2027,648.2031,649.7026,0,8,8,8,1,0.6,0.4,0.4,0.6,,,,,,,,,,,,,,,0.4825,,0.2,0.8,0.8,0.2,0.6,0.4,0.4,0.6,,,0.4317,,0.8,0.2,0.2,0.8,0.6,0.4,0.6,0.4,1,0
,,668946f774f64ae752e01a90,66daf5b985de1527582d9a60,2024-09-06_14h30.43.345,mdp,2024.2.1,Win32,142.8571429,66d7945b1baad48e845df3ce,,,,,,,,,,,,,,,,,,,,,649.703,649.703,649.7035,650.5012,0,0,left,0.2851,,650.5017,651.5567,1,0,right,651.5572,652.2791,1,1,right,0,652.2792,652.2792,652.2797,653.779,0,9,9,9,1,0.6,0.4,0.4,0.6,,,,,,,,,,,,,,,0.5492,,0.2,0.8,0.8,0.2,0.6,0.4,0.4,0.6,,,0.2184,,0.8,0.2,0.2,0.8,0.6,0.4,0.6,0.4,1,0
,,668946f774f64ae752e01a90,66daf5b985de1527582d9a60,2024-09-06_14h30.43.345,mdp,2024.2.1,Win32,142.8571429,66d7945b1baad48e845df3ce,,,,,,,,,,,,,,,,,,,,,653.7792,653.7792,653.7797,654.5221,0,1,left,0.2309,,654.5226,655.1609,0,0,left,655.1613,655.8554,0,1,left,0,655.8554,655.8554,655.856,657.3554,0,10,10,10,1,0.6,0.4,0.4,0.6,,,,,,,,,,,,,,,0.1261,,0.2,0.8,0.8,0.2,0.6,0.4,0.4,0.6,,,0.1921,,0.8,0.2,0.2,0.8,0.6,0.4,0.6,0.4,1,0
,,668946f774f64ae752e01a90,66daf5b985de1527582d9a60,2024-09-06_14h30.43.345,mdp,2024.2.1,Win32,142.8571429,66d7945b1baad48e845df3ce,,,,,,,,,,,,,,,,,,,,,657.3556,657.3556,657.3561,658.0291,0,0,left,0.1603,,658.0297,658.6471,0,1,left,658.6477,659.1609,0,0,left,1,659.161,659.161,659.1614,660.6608,0,11,11,11,1,0.6,0.4,0.4,0.6,,,,,,,,,,,,,,,0.1071,,0.2,0.8,0.8,0.2,0.8,0.2,0.2,0.8,,,0.0073,,0.8,0.2,0.2,0.8,0.6,0.4,0.6,0.4,1,0
,,668946f774f64ae752e01a90,66daf5b985de1527582d9a60,2024-09-06_14h30.43.345,mdp,2024.2.1,Win32,142.8571429,66d7945b1baad48e845df3ce,,,,,,,,,,,,,,,,,,,,,660.6611,660.6611,660.6615,661.4179,0,0,left,0.2459,,661.4183,662.0984,0,0,left,662.0989,662.6886,0,1,left,0,662.6886,662.6886,662.6891,664.1885,0,12,12,12,1,0.4,0.6,0.6,0.4,,,,,,,,,,,,,,,0.1754,,0.2,0.8,0.8,0.2,0.8,0.2,0.2,0.8,,,0.079,,0.8,0.2,0.2,0.8,0.6,0.4,0.6,0.4,1,0
,,668946f774f64ae752e01a90,66daf5b985de1527582d9a60,2024-09-06_14h30.43.345,mdp,2024.2.1,Win32,142.8571429,66d7945b1baad48e845df3ce,,,,,,,,,,,,,,,,,,,,,664.1887,664.1887,664.1892,664.9526,0,0,left,0.2529,,664.9532,665.4664,0,1,left,665.4669,666.3622,0,0,left,1,666.3623,666.3623,666.3628,667.8621,0,13,13,13,1,0.4,0.6,0.6,0.4,,,,,,,,,,,,,,,0.0016,,0.2,0.8,0.8,0.2,0.8,0.2,0.2,0.8,,,0.3888,,0.2,0.8,0.4,0.6,0.6,0.4,0.6,0.4,1,0
,,668946f774f64ae752e01a90,66daf5b985de1527582d9a60,2024-09-06_14h30.43.345,mdp,2024.2.1,Win32,142.8571429,66d7945b1baad48e845df3ce,,,,,,,,,,,,,,,,,,,,,667.8623,667.8623,667.8628,668.6123,0,1,left,0.2365,,668.6129,669.1817,0,1,left,669.1823,669.7233,0,1,left,0,669.7233,669.7233,669.724,671.2234,0,14,14,14,1,0.4,0.6,0.6,0.4,,,,,,,,,,,,,,,0.061,,0.2,0.8,0.8,0.2,0.8,0.2,0.2,0.8,,,0.0287,,0.2,0.8,0.4,0.6,0.6,0.4,0.6,0.4,1,0
,,668946f774f64ae752e01a90,66daf5b985de1527582d9a60,2024-09-06_14h30.43.345,mdp,2024.2.1,Win32,142.8571429,66d7945b1baad48e845df3ce,,,,,,,,,,,,,,,,,,,,,671.2236,671.2236,671.2241,671.9594,0,0,left,0.2272,,671.96,672.89,0,1,left,672.8905,673.7858,1,0,right,1,673.7858,673.7858,673.7863,675.2857,0,15,15,15,1,0.4,0.6,0.6,0.4,,,,,,,,,,,,,,,0.4162,,0.2,0.8,0.8,0.2,0.8,0.2,0.2,0.8,,,0.3852,,0.2,0.8,0.4,0.6,0.6,0.4,0.6,0.4,1,0
,,668946f774f64ae752e01a90,66daf5b985de1527582d9a60,2024-09-06_14h30.43.345,mdp,2024.2.1,Win32,142.8571429,66d7945b1baad48e845df3ce,,,,,,,,,,,,,,,,,,,,,675.286,675.286,675.2864,676.015,0,0,left,0.2272,,676.0156,676.765,0,1,left,676.7655,677.6471,1,0,right,1,677.6472,677.6472,677.6477,679.1469,0,16,16,16,1,0.4,0.6,0.6,0.4,,,,,,,,,,,,,,,0.2369,,0.2,0.8,0.8,0.2,0.8,0.2,0.2,0.8,,,0.3739,,0.2,0.8,0.4,0.6,0.6,0.4,0.6,0.4,1,0
,,668946f774f64ae752e01a90,66daf5b985de1527582d9a60,2024-09-06_14h30.43.345,mdp,2024.2.1,Win32,142.8571429,66d7945b1baad48e845df3ce,,,,,,,,,,,,,,,,,,,,,679.1471,679.1471,679.1477,679.9176,0,1,left,0.2575,,679.9181,681.8066,0,0,left,681.8072,682.8275,0,0,left,1,682.8275,682.8275,682.828,684.3273,0,17,17,17,1,0.4,0.6,0.6,0.4,,,,,,,,,,,,,,,1.3842,,0.2,0.8,0.8,0.2,0.8,0.2,0.2,0.8,,,0.5125,,0.6,0.4,0.6,0.4,0.6,0.4,0.6,0.4,1,0
,,668946f774f64ae752e01a90,66daf5b985de1527582d9a60,2024-09-06_14h30.43.345,mdp,2024.2.1,Win32,142.8571429,66d7945b1baad48e845df3ce,,,,,,,,,,,,,,,,,,,,,684.3275,684.3275,684.328,685.5149,0,0,left,0.6756,,685.5155,687.3622,0,1,left,687.3626,688.2371,1,0,right,1,688.2371,688.2371,688.2376,689.737,0,18,18,18,1,0.4,0.6,0.6,0.4,,,,,,,,,,,,,,,1.3393,,0.2,0.8,0.8,0.2,0.8,0.2,0.2,0.8,,,0.3596,,0.6,0.4,0.6,0.4,0.6,0.4,0.6,0.4,1,0
,,668946f774f64ae752e01a90,66daf5b985de1527582d9a60,2024-09-06_14h30.43.345,mdp,2024.2.1,Win32,142.8571429,66d7945b1baad48e845df3ce,,,,,,,,,,,,,,,,,,,,,689.7371,689.7371,689.7377,690.6607,0,0,left,0.417,,690.6612,691.8342,0,1,left,691.8348,692.6955,1,0,right,1,692.6955,692.6955,692.6959,694.1953,0,19,19,19,1,0.4,0.6,0.6,0.4,,,,,,,,,,,,,,,0.6624,,0.2,0.8,0.8,0.2,0.8,0.2,0.2,0.8,,,0.359,,0.6,0.4,0.6,0.4,0.6,0.4,0.6,0.4,1,0
,,668946f774f64ae752e01a90,66daf5b985de1527582d9a60,2024-09-06_14h30.43.345,mdp,2024.2.1,Win32,142.8571429,66d7945b1baad48e845df3ce,,,,,,,,,,,,,,,,,,,,,694.1955,694.1955,694.196,695.3482,0,0,left,0.6463,,695.3487,696.4593,0,1,left,696.4597,697.3899,1,0,right,1,697.3899,697.3899,697.3904,698.8898,0,20,20,20,1,0.4,0.6,0.6,0.4,,,,,,,,,,,,,,,0.5973,,0.2,0.8,0.8,0.2,0.8,0.2,0.2,0.8,,,0.4171,,0.6,0.4,0.6,0.4,0.6,0.4,0.6,0.4,1,0
,,668946f774f64ae752e01a90,66daf5b985de1527582d9a60,2024-09-06_14h30.43.345,mdp,2024.2.1,Win32,142.8571429,66d7945b1baad48e845df3ce,,,,,,,,,,,,,,,,,,,,,698.8901,698.8901,698.8905,699.7232,0,1,left,0.3197,,699.7237,700.7092,0,0,left,700.7097,702.0564,0,0,left,1,702.0564,702.0565,702.057,703.5564,0,21,21,21,1,0.4,0.6,0.6,0.4,,,,,,,,,,,,,,,0.4698,,0.2,0.8,0.8,0.2,0.8,0.2,0.2,0.8,,,0.8421,,0.6,0.4,0.6,0.4,0.6,0.4,0.6,0.4,1,0
,,668946f774f64ae752e01a90,66daf5b985de1527582d9a60,2024-09-06_14h30.43.345,mdp,2024.2.1,Win32,142.8571429,66d7945b1baad48e845df3ce,,,,,,,,,,,,,,,,,,,,,703.5566,703.5567,703.5571,704.494,0,0,left,0.4239,,704.4945,705.2508,0,0,left,705.2513,706.5984,0,1,left,0,706.5985,706.5985,706.5991,708.0981,0,22,22,22,1,0.4,0.6,0.6,0.4,,,,,,,,,,,,,,,0.243,,0.2,0.8,0.8,0.2,0.8,0.2,0.2,0.8,,,0.8459,,0.2,0.8,0.2,0.8,0.6,0.4,0.6,0.4,1,0
,,668946f774f64ae752e01a90,66daf5b985de1527582d9a60,2024-09-06_14h30.43.345,mdp,2024.2.1,Win32,142.8571429,66d7945b1baad48e845df3ce,,,,,,,,,,,,,,,,,,,,,708.0982,708.0982,708.0987,708.8342,0,1,left,0.2303,,708.8348,709.7161,0,0,left,709.7166,710.7439,0,1,left,0,710.7439,710.7439,710.7445,712.2438,0,23,23,23,1,0.4,0.6,0.6,0.4,,,,,,,,,,,,,,,0.3675,,0.4,0.6,0.4,0.6,0.8,0.2,0.2,0.8,,,0.5179,,0.2,0.8,0.2,0.8,0.6,0.4,0.6,0.4,1,0
,,668946f774f64ae752e01a90,66daf5b985de1527582d9a60,2024-09-06_14h30.43.345,mdp,2024.2.1,Win32,142.8571429,66d7945b1baad48e845df3ce,,,,,,,,,,,,,,,,,,,,,712.244,712.244,712.2444,713.1675,0,1,left,0.4144,,713.168,714.5495,0,0,left,714.5501,715.4591,1,1,right,0,715.4592,715.4592,715.4597,716.9594,0,24,24,24,1,0.4,0.6,0.6,0.4,,,,,,,,,,,,,,,0.8755,,0.4,0.6,0.4,0.6,0.8,0.2,0.2,0.8,,,0.3966,,0.2,0.8,0.2,0.8,0.6,0.4,0.6,0.4,1,0
,,668946f774f64ae752e01a90,66daf5b985de1527582d9a60,2024-09-06_14h30.43.345,mdp,2024.2.1,Win32,142.8571429,66d7945b1baad48e845df3ce,,,,,,,,,,,,,,,,,,,,,716.9597,716.9597,716.9602,718.2786,0,0,left,0.8111,,718.2792,719.6258,1,0,right,719.6264,721.0424,1,1,right,0,721.0425,721.0425,721.043,722.5425,0,25,25,25,1,0.4,0.6,0.6,0.4,,,,,,,,,,,,,,,0.8342,,0.4,0.6,0.4,0.6,0.8,0.2,0.2,0.8,,,0.9041,,0.2,0.8,0.2,0.8,0.6,0.4,0.6,0.4,1,0
,,668946f774f64ae752e01a90,66daf5b985de1527582d9a60,2024-09-06_14h30.43.345,mdp,2024.2.1,Win32,142.8571429,66d7945b1baad48e845df3ce,,,,,,,,,,,,,,,,,,,,,722.5428,722.5428,722.5433,723.2716,0,0,left,0.22,,723.2722,724.1188,1,0,right,724.1194,724.8827,0,1,left,0,724.8827,724.8827,724.8833,726.3827,0,26,26,26,1,0.4,0.6,0.6,0.4,,,,,,,,,,,,,,,0.3388,,0.4,0.6,0.4,0.6,0.8,0.2,0.2,0.8,,,0.258,,0.2,0.8,0.2,0.8,0.6,0.4,0.6,0.4,1,0
,,668946f774f64ae752e01a90,66daf5b985de1527582d9a60,2024-09-06_14h30.43.345,mdp,2024.2.1,Win32,142.8571429,66d7945b1baad48e845df3ce,,,,,,,,,,,,,,,,,,,,,726.3829,726.3829,726.3833,727.2994,0,0,left,0.4031,,727.2999,727.9174,0,1,left,727.9179,728.4521,0,1,left,0,728.4521,728.4521,728.4525,729.952,0,27,27,27,1,0.4,0.6,0.6,0.4,,,,,,,,,,,,,,,0.105,,0.4,0.6,0.4,0.6,0.8,0.2,0.2,0.8,,,0.0201,,0.2,0.8,0.2,0.8,0.6,0.4,0.6,0.4,1,0
,,668946f774f64ae752e01a90,66daf5b985de1527582d9a60,2024-09-06_14h30.43.345,mdp,2024.2.1,Win32,142.8571429,66d7945b1baad48e845df3ce,,,,,,,,,,,,,,,,,,,,,729.9523,729.9523,729.9527,730.6257,0,1,left,0.1684,,730.6263,731.2507,0,0,left,731.2512,732.3687,0,1,left,0,732.3688,732.3688,732.3693,733.8687,0,28,28,28,1,0.4,0.6,0.6,0.4,,,,,,,,,,,,,,,0.1177,,0.4,0.6,0.4,0.6,0.8,0.2,0.2,0.8,,,0.6132,,0.2,0.8,0.2,0.8,0.6,0.4,0.6,0.4,1,0
,,668946f774f64ae752e01a90,66daf5b985de1527582d9a60,2024-09-06_14h30.43.345,mdp,2024.2.1,Win32,142.8571429,66d7945b1baad48e845df3ce,,,,,,,,,,,,,,,,,,,,,733.869,733.869,733.8695,735.2577,1,1,right,0.8777,,735.2581,735.834,1,1,right,735.8346,736.3548,1,1,right,0,736.355,736.355,736.3554,737.8549,0,29,29,29,1,0.4,0.6,0.6,0.4,,,,,,,,,,,,,,,0.0646,,0.4,0.6,0.4,0.6,0.8,0.2,0.2,0.8,,,0.0136,,0.8,0.2,0.6,0.4,0.6,0.4,0.6,0.4,1,0
,,668946f774f64ae752e01a90,66daf5b985de1527582d9a60,2024-09-06_14h30.43.345,mdp,2024.2.1,Win32,142.8571429,66d7945b1baad48e845df3ce,,,,,,,,,,,,,,,,,,,,,737.8551,737.8551,737.8556,738.6049,0,0,left,0.2367,,738.6054,739.6466,0,1,left,739.6471,740.6882,1,0,right,1,740.6883,740.6883,740.6887,742.1883,0,30,30,30,1,0.4,0.6,0.6,0.4,,,,,,,,,,,,,,,0.5371,,0.4,0.6,0.4,0.6,0.8,0.2,0.2,0.8,,,0.5382,,0.8,0.2,0.6,0.4,0.6,0.4,0.6,0.4,1,0
,,668946f774f64ae752e01a90,66daf5b985de1527582d9a60,2024-09-06_14h30.43.345,mdp,2024.2.1,Win32,142.8571429,66d7945b1baad48e845df3ce,,,,,,,,,,,,,,,,,,,,,742.1886,742.1886,742.1893,742.9937,0,0,left,0.2938,,742.9941,743.9034,0,1,left,743.904,744.7714,1,0,right,1,744.7715,744.7715,744.772,746.2716,0,31,31,31,1,0.4,0.6,0.6,0.4,,,,,,,,,,,,,,,0.4001,,0.4,0.6,0.4,0.6,0.8,0.2,0.2,0.8,,,0.3555,,0.8,0.2,0.6,0.4,0.2,0.8,0.8,0.2,1,0
,,668946f774f64ae752e01a90,66daf5b985de1527582d9a60,2024-09-06_14h30.43.345,mdp,2024.2.1,Win32,142.8571429,66d7945b1baad48e845df3ce,,,,,,,,,,,,,,,,,,,,,746.2718,746.2718,746.2722,747.0561,0,0,left,0.2746,,747.0565,747.9035,0,0,left,747.9041,749.7437,0,0,left,1,749.7438,749.7438,749.7443,751.2438,0,32,32,32,1,0.4,0.6,0.6,0.4,,,,,,,,,,,,,,,0.3453,,0.4,0.6,0.4,0.6,0.8,0.2,0.2,0.8,,,1.3289,,0.8,0.2,0.6,0.4,0.2,0.8,0.8,0.2,1,0
,,668946f774f64ae752e01a90,66daf5b985de1527582d9a60,2024-09-06_14h30.43.345,mdp,2024.2.1,Win32,142.8571429,66d7945b1baad48e845df3ce,,,,,,,,,,,,,,,,,,,,,751.2441,751.2441,751.2446,752.0492,0,0,left,0.2951,,752.0497,753.202,0,1,left,753.2026,754.3271,1,0,right,1,754.3271,754.3271,754.3276,755.8269,0,33,33,33,1,0.4,0.6,0.6,0.4,,,,,,,,,,,,,,,0.647,,0.4,0.6,0.4,0.6,0.8,0.2,0.2,0.8,,,0.6148,,0.8,0.2,0.6,0.4,0.2,0.8,0.8,0.2,1,0
,,668946f774f64ae752e01a90,66daf5b985de1527582d9a60,2024-09-06_14h30.43.345,mdp,2024.2.1,Win32,142.8571429,66d7945b1baad48e845df3ce,,,,,,,,,,,,,,,,,,,,,755.827,755.827,755.8275,756.6325,0,1,left,0.3022,,756.6329,757.3686,0,1,left,757.369,758.2367,1,0,right,1,758.2368,758.2368,758.2372,759.7366,0,34,34,34,1,0.4,0.6,0.6,0.4,,,,,,,,,,,,,,,0.2311,,0.4,0.6,0.4,0.6,0.8,0.2,0.2,0.8,,,0.3557,,0.8,0.2,0.6,0.4,0.2,0.8,0.8,0.2,1,0
,,668946f774f64ae752e01a90,66daf5b985de1527582d9a60,2024-09-06_14h30.43.345,mdp,2024.2.1,Win32,142.8571429,66d7945b1baad48e845df3ce,,,,,,,,,,,,,,,,,,,,,759.7368,759.7368,759.7373,760.6047,0,0,left,0.3613,,760.6052,761.5283,0,1,left,761.5288,762.2922,1,1,right,0,762.2923,762.2923,762.2928,763.7921,0,35,35,35,1,0.2,0.8,0.2,0.8,,,,,,,,,,,,,,,0.4173,,0.4,0.6,0.4,0.6,0.8,0.2,0.2,0.8,,,0.2561,,0.8,0.2,0.6,0.4,0.2,0.8,0.8,0.2,1,0
,,668946f774f64ae752e01a90,66daf5b985de1527582d9a60,2024-09-06_14h30.43.345,mdp,2024.2.1,Win32,142.8571429,66d7945b1baad48e845df3ce,,,,,,,,,,,,,,,,,,,,,763.7924,763.7924,763.7927,764.5491,0,1,left,0.2434,,764.5497,765.4519,0,0,left,765.4524,766.6395,0,1,left,0,766.6395,766.6395,766.6401,768.1393,0,36,36,36,1,0.2,0.8,0.2,0.8,,,,,,,,,,,,,,,0.3883,,0.4,0.6,0.4,0.6,0.8,0.2,0.2,0.8,,,0.6773,,0.4,0.6,0.2,0.8,0.2,0.8,0.8,0.2,1,0
,,668946f774f64ae752e01a90,66daf5b985de1527582d9a60,2024-09-06_14h30.43.345,mdp,2024.2.1,Win32,142.8571429,66d7945b1baad48e845df3ce,,,,,,,,,,,,,,,,,,,,,768.1395,768.1395,768.14,768.924,0,1,left,0.2719,,768.9246,769.9033,0,0,left,769.9038,771.1949,0,1,left,0,771.195,771.195,771.1954,772.6948,0,37,37,37,1,0.6,0.4,0.4,0.6,,,,,,,,,,,,,,,0.477,,0.4,0.6,0.4,0.6,0.8,0.2,0.2,0.8,,,0.7793,,0.4,0.6,0.2,0.8,0.2,0.8,0.8,0.2,1,0
,,668946f774f64ae752e01a90,66daf5b985de1527582d9a60,2024-09-06_14h30.43.345,mdp,2024.2.1,Win32,142.8571429,66d7945b1baad48e845df3ce,,,,,,,,,,,,,,,,,,,,,772.6951,772.6951,772.6956,773.5492,0,0,left,0.3404,,773.5495,775.2157,0,0,left,775.2163,776.1047,1,1,right,0,776.1047,776.1047,776.1053,777.6047,0,38,38,38,1,0.6,0.4,0.4,0.6,,,,,,,,,,,,,,,1.1552,,0.4,0.6,0.4,0.6,0.8,0.2,0.2,0.8,,,0.3788,,0.4,0.6,0.2,0.8,0.2,0.8,0.8,0.2,1,0
,,668946f774f64ae752e01a90,66daf5b985de1527582d9a60,2024-09-06_14h30.43.345,mdp,2024.2.1,Win32,142.8571429,66d7945b1baad48e845df3ce,,,,,,,,,,,,,,,,,,,,,777.605,777.605,777.6055,778.3963,0,1,left,0.2777,,778.397,779.306,0,0,left,779.3065,780.9727,0,0,left,1,780.9727,780.9727,780.9732,782.4727,0,39,39,39,1,0.6,0.4,0.4,0.6,,,,,,,,,,,,,,,0.396,,0.4,0.6,0.4,0.6,0.8,0.2,0.2,0.8,,,1.153,,0.4,0.6,0.2,0.8,0.2,0.8,0.8,0.2,1,0
,,668946f774f64ae752e01a90,66daf5b985de1527582d9a60,2024-09-06_14h30.43.345,mdp,2024.2.1,Win32,142.8571429,66d7945b1baad48e845df3ce,,,,,,,,,,,,,,,,,,,,,782.4729,782.4729,782.4734,783.4657,0,1,left,0.482,,783.4661,784.3754,0,1,left,784.3759,785.8755,1,0,right,1,785.8755,785.8755,785.876,787.3754,0,40,40,40,1,0.6,0.4,0.4,0.6,,,,,,,,,,,,,,,0.4002,,0.4,0.6,0.4,0.6,0.4,0.6,0.6,0.4,,,0.9909,,0.4,0.6,0.2,0.8,0.2,0.8,0.8,0.2,1,0
,,668946f774f64ae752e01a90,66daf5b985de1527582d9a60,2024-09-06_14h30.43.345,mdp,2024.2.1,Win32,142.8571429,66d7945b1baad48e845df3ce,,,,,,,,,,,,,,,,,,,,,787.3755,787.3755,787.3762,788.2434,0,0,left,0.3547,,788.244,789.1879,0,0,left,789.1885,790.9311,0,1,left,0,790.9311,790.9311,790.9317,792.431,0,41,41,41,1,0.6,0.4,0.4,0.6,,,,,,,,,,,,,,,0.4287,,0.4,0.6,0.4,0.6,0.4,0.6,0.6,0.4,,,1.2287,,0.4,0.6,0.2,0.8,0.6,0.4,0.6,0.4,1,0
,,668946f774f64ae752e01a90,66daf5b985de1527582d9a60,2024-09-06_14h30.43.345,mdp,2024.2.1,Win32,142.8571429,66d7945b1baad48e845df3ce,,,,,,,,,,,,,,,,,,,,,792.4312,792.4312,792.4316,793.2087,0,0,left,0.2671,,793.2091,794.292,0,0,left,794.2924,796.5838,1,0,right,1,796.5839,796.5839,796.5845,798.0836,0,42,42,42,1,0.6,0.4,0.4,0.6,,,,,,,,,,,,,,,0.5776,,0.4,0.6,0.4,0.6,0.4,0.6,0.6,0.4,,,1.7887,,0.4,0.6,0.2,0.8,0.6,0.4,0.6,0.4,1,0
,,668946f774f64ae752e01a90,66daf5b985de1527582d9a60,2024-09-06_14h30.43.345,mdp,2024.2.1,Win32,142.8571429,66d7945b1baad48e845df3ce,,,,,,,,,,,,,,,,,,,,,798.0839,798.084,798.0843,798.8823,0,0,left,0.2861,,798.8828,799.8962,0,0,left,799.8967,800.7434,1,1,right,0,800.7434,800.7434,800.744,802.2434,0,43,43,43,1,0.6,0.4,0.4,0.6,,,,,,,,,,,,,,,0.5118,,0.4,0.6,0.4,0.6,0.4,0.6,0.6,0.4,,,0.3383,,0.4,0.6,0.2,0.8,0.2,0.8,0.8,0.2,1,0
,,668946f774f64ae752e01a90,66daf5b985de1527582d9a60,2024-09-06_14h30.43.345,mdp,2024.2.1,Win32,142.8571429,66d7945b1baad48e845df3ce,,,,,,,,,,,,,,,,,,,,,802.2436,802.2436,802.2441,803.0488,0,0,left,0.2955,,803.0492,803.6393,0,0,left,803.6398,804.6879,1,1,right,0,804.6879,804.6879,804.6884,806.1878,0,44,44,44,1,0.6,0.4,0.4,0.6,,,,,,,,,,,,,,,0.0889,,0.4,0.6,0.4,0.6,0.4,0.6,0.6,0.4,,,0.5457,,0.4,0.6,0.2,0.8,0.2,0.8,0.8,0.2,1,0
,,668946f774f64ae752e01a90,66daf5b985de1527582d9a60,2024-09-06_14h30.43.345,mdp,2024.2.1,Win32,142.8571429,66d7945b1baad48e845df3ce,,,,,,,,,,,,,,,,,,,,,806.188,806.188,806.1884,806.917,0,0,left,0.2159,,806.9174,807.4725,0,0,left,807.4729,808.6669,0,1,left,0,808.667,808.667,808.6674,810.1669,0,45,45,45,1,0.6,0.4,0.4,0.6,,,,,,,,,,,,,,,0.0449,,0.4,0.6,0.4,0.6,0.4,0.6,0.6,0.4,,,0.6827,,0.4,0.6,0.2,0.8,0.2,0.8,0.8,0.2,1,0
,,668946f774f64ae752e01a90,66daf5b985de1527582d9a60,2024-09-06_14h30.43.345,mdp,2024.2.1,Win32,142.8571429,66d7945b1baad48e845df3ce,,,,,,,,,,,,,,,,,,,,,810.1671,810.1671,810.1677,810.9309,0,0,left,0.2517,,810.9314,811.7573,0,1,left,811.7577,812.7155,1,0,right,1,812.7156,812.7156,812.7161,814.2156,0,46,46,46,1,0.6,0.4,0.4,0.6,,,,,,,,,,,,,,,0.3129,,0.4,0.6,0.4,0.6,0.4,0.6,0.6,0.4,,,0.443,,0.4,0.6,0.2,0.8,0.2,0.8,0.8,0.2,1,0
,,668946f774f64ae752e01a90,66daf5b985de1527582d9a60,2024-09-06_14h30.43.345,mdp,2024.2.1,Win32,142.8571429,66d7945b1baad48e845df3ce,,,,,,,,,,,,,,,,,,,,,814.2158,814.2158,814.2163,814.9863,0,1,left,0.2587,,814.9869,815.7225,0,1,left,815.723,816.9932,1,0,right,1,816.9932,816.9932,816.9937,818.4932,0,47,47,47,1,0.6,0.4,0.4,0.6,,,,,,,,,,,,,,,0.2292,,0.4,0.6,0.4,0.6,0.4,0.6,0.6,0.4,,,0.7597,,0.4,0.6,0.2,0.8,0.2,0.8,0.8,0.2,1,0
,,668946f774f64ae752e01a90,66daf5b985de1527582d9a60,2024-09-06_14h30.43.345,mdp,2024.2.1,Win32,142.8571429,66d7945b1baad48e845df3ce,,,,,,,,,,,,,,,,,,,,,818.4936,818.4936,818.494,819.3196,0,0,left,0.3178,,819.3201,821.3752,0,1,left,821.3759,822.41,1,0,right,1,822.4101,822.4101,822.4106,823.91,0,48,48,48,1,0.6,0.4,0.4,0.6,,,,,,,,,,,,,,,1.5503,,0.4,0.6,0.4,0.6,0.4,0.6,0.6,0.4,,,0.5238,,0.4,0.6,0.2,0.8,0.2,0.8,0.8,0.2,1,0
,,668946f774f64ae752e01a90,66daf5b985de1527582d9a60,2024-09-06_14h30.43.345,mdp,2024.2.1,Win32,142.8571429,66d7945b1baad48e845df3ce,,,,,,,,,,,,,,,,,,,,,823.9102,823.9102,823.9107,824.8822,0,0,left,0.4604,,824.8828,825.6251,0,1,left,825.6255,826.5001,1,0,right,1,826.5001,826.5001,826.5006,828.0001,0,49,49,49,1,0.6,0.4,0.4,0.6,,,,,,,,,,,,,,,0.2331,,0.4,0.6,0.4,0.6,0.4,0.6,0.6,0.4,,,0.3689,,0.4,0.6,0.2,0.8,0.2,0.8,0.8,0.2,1,0
,,668946f774f64ae752e01a90,66daf5b985de1527582d9a60,2024-09-06_14h30.43.345,mdp,2024.2.1,Win32,142.8571429,66d7945b1baad48e845df3ce,,,,,,,,,,,,,,,,,,,,,,,,,,,,,,,,,,,,,,,,,,,,,,,,,,,,,,,,828.0003,886.5066,0,2,2,5,1,imgs/goat.png,imgs/elephant.png,imgs/kangaroo.png,imgs/bear.png,imgs/lion.png,,,,,,,,,,,,,,,,,,,,,,,,
,,668946f774f64ae752e01a90,66daf5b985de1527582d9a60,2024-09-06_14h30.43.345,mdp,2024.2.1,Win32,142.8571429,66d7945b1baad48e845df3ce,,,,,,,,,,,,,,3,seqs/st3seq41.csv,886.5115,890.0762,space,3.056,,890.0794,890.0794,890.0799,891.6247,0,1,left,1.0366,,891.6252,892.4721,1,1,right,892.4726,893.2914,0,1,left,0,893.2914,893.2914,893.2919,894.7915,0,0,0,0,1,0.2,0.8,0.6,0.4,,,,,,,,,,,,,,,0.3419,,0.6,0.4,0.2,0.8,0.8,0.2,0.4,0.6,,,0.3115,,0.4,0.6,0.8,0.2,0.4,0.6,0.8,0.2,1,0
,,668946f774f64ae752e01a90,66daf5b985de1527582d9a60,2024-09-06_14h30.43.345,mdp,2024.2.1,Win32,142.8571429,66d7945b1baad48e845df3ce,,,,,,,,,,,,,,,,,,,,,894.7917,894.7917,894.7921,896.2497,1,0,right,0.9471,,896.2501,897.9163,0,0,left,897.9168,898.9789,0,1,left,0,898.9789,898.9789,898.9794,900.4789,0,1,1,1,1,0.2,0.8,0.6,0.4,,,,,,,,,,,,,,,1.1569,,0.6,0.4,0.2,0.8,0.8,0.2,0.4,0.6,,,0.5549,,0.4,0.6,0.8,0.2,0.4,0.6,0.8,0.2,1,0
,,668946f774f64ae752e01a90,66daf5b985de1527582d9a60,2024-09-06_14h30.43.345,mdp,2024.2.1,Win32,142.8571429,66d7945b1baad48e845df3ce,,,,,,,,,,,,,,,,,,,,,900.479,900.479,900.4795,901.2427,0,1,left,0.2522,,901.2434,902.0484,0,1,left,902.0489,902.6663,1,1,right,0,902.6663,902.6663,902.6667,904.1663,0,2,2,2,1,0.2,0.8,0.6,0.4,,,,,,,,,,,,,,,0.2947,,0.6,0.4,0.2,0.8,0.8,0.2,0.4,0.6,,,0.1041,,0.4,0.6,0.8,0.2,0.4,0.6,0.8,0.2,1,0
,,668946f774f64ae752e01a90,66daf5b985de1527582d9a60,2024-09-06_14h30.43.345,mdp,2024.2.1,Win32,142.8571429,66d7945b1baad48e845df3ce,,,,,,,,,,,,,,,,,,,,,904.1666,904.1666,904.1671,904.9233,0,1,left,0.2445,,904.9238,905.7219,0,1,left,905.7224,906.5762,0,0,left,1,906.5762,906.5762,906.5767,908.0761,0,3,3,3,1,0.2,0.8,0.6,0.4,,,,,,,,,,,,,,,0.2872,,0.6,0.4,0.2,0.8,0.8,0.2,0.4,0.6,,,0.3517,,0.4,0.6,0.8,0.2,0.4,0.6,0.8,0.2,1,0
,,668946f774f64ae752e01a90,66daf5b985de1527582d9a60,2024-09-06_14h30.43.345,mdp,2024.2.1,Win32,142.8571429,66d7945b1baad48e845df3ce,,,,,,,,,,,,,,,,,,,,,908.0764,908.0764,908.077,908.9302,0,0,left,0.3425,,908.9307,911.1941,1,1,right,911.1945,912.076,0,1,left,0,912.076,912.076,912.0765,913.576,0,4,4,4,1,0.2,0.8,0.6,0.4,,,,,,,,,,,,,,,1.7508,,0.6,0.4,0.2,0.8,0.8,0.2,0.4,0.6,,,0.3761,,0.4,0.6,0.8,0.2,0.2,0.8,0.2,0.8,1,0
,,668946f774f64ae752e01a90,66daf5b985de1527582d9a60,2024-09-06_14h30.43.345,mdp,2024.2.1,Win32,142.8571429,66d7945b1baad48e845df3ce,,,,,,,,,,,,,,,,,,,,,913.5762,913.5763,913.5767,914.3884,0,1,left,0.2991,,914.389,915.3122,0,0,left,915.3128,916.8121,1,0,right,1,916.8121,916.8121,916.8127,918.3122,0,5,5,5,1,0.2,0.8,0.6,0.4,,,,,,,,,,,,,,,0.4182,,0.6,0.4,0.2,0.8,0.8,0.2,0.4,0.6,,,0.9846,,0.4,0.6,0.8,0.2,0.2,0.8,0.2,0.8,1,0
,,668946f774f64ae752e01a90,66daf5b985de1527582d9a60,2024-09-06_14h30.43.345,mdp,2024.2.1,Win32,142.8571429,66d7945b1baad48e845df3ce,,,,,,,,,,,,,,,,,,,,,918.3124,918.3124,918.313,919.305,0,0,left,0.4828,,919.3055,921.444,0,1,left,921.4445,922.5205,1,1,right,0,922.5205,922.5205,922.5212,924.0204,0,6,6,6,1,0.2,0.8,0.6,0.4,,,,,,,,,,,,,,,1.6306,,0.2,0.8,0.8,0.2,0.8,0.2,0.4,0.6,,,0.5718,,0.4,0.6,0.8,0.2,0.2,0.8,0.2,0.8,1,0
,,668946f774f64ae752e01a90,66daf5b985de1527582d9a60,2024-09-06_14h30.43.345,mdp,2024.2.1,Win32,142.8571429,66d7945b1baad48e845df3ce,,,,,,,,,,,,,,,,,,,,,924.0206,924.0206,924.021,925.0203,0,0,left,0.4867,,925.0208,927.1453,1,1,right,927.1458,927.9995,0,1,left,0,927.9995,927.9995,928.0001,929.4998,0,7,7,7,1,0.2,0.8,0.6,0.4,,,,,,,,,,,,,,,1.6136,,0.2,0.8,0.8,0.2,0.8,0.2,0.4,0.6,,,0.3523,,0.4,0.6,0.8,0.2,0.2,0.8,0.2,0.8,1,0
,,668946f774f64ae752e01a90,66daf5b985de1527582d9a60,2024-09-06_14h30.43.345,mdp,2024.2.1,Win32,142.8571429,66d7945b1baad48e845df3ce,,,,,,,,,,,,,,,,,,,,,929.5,929.5001,929.5006,930.6246,0,0,left,0.6143,,930.6251,934.6106,0,0,left,934.6153,935.9441,0,0,left,1,935.9441,935.9441,935.9446,937.4438,0,8,8,8,1,0.2,0.8,0.6,0.4,,,,,,,,,,,,,,,3.4746,,0.2,0.8,0.8,0.2,0.8,0.2,0.4,0.6,,,0.8229,,0.4,0.6,0.8,0.2,0.2,0.8,0.2,0.8,1,0
,,668946f774f64ae752e01a90,66daf5b985de1527582d9a60,2024-09-06_14h30.43.345,mdp,2024.2.1,Win32,142.8571429,66d7945b1baad48e845df3ce,,,,,,,,,,,,,,,,,,,,,937.444,937.444,937.4446,938.2078,0,1,left,0.2545,,938.2084,939.1869,0,0,left,939.1874,940.3327,0,0,left,1,940.3329,940.3329,940.3333,941.8328,0,9,9,9,1,0.2,0.8,0.6,0.4,,,,,,,,,,,,,,,0.4649,,0.2,0.8,0.8,0.2,0.8,0.2,0.4,0.6,,,0.6324,,0.4,0.6,0.8,0.2,0.2,0.8,0.2,0.8,1,0
,,668946f774f64ae752e01a90,66daf5b985de1527582d9a60,2024-09-06_14h30.43.345,mdp,2024.2.1,Win32,142.8571429,66d7945b1baad48e845df3ce,,,,,,,,,,,,,,,,,,,,,941.833,941.833,941.8334,944.6522,0,1,left,2.3058,,944.6569,945.6729,0,0,left,945.6734,946.6592,0,1,left,0,946.6592,946.6592,946.6597,948.1592,0,10,10,10,1,0.2,0.8,0.6,0.4,,,,,,,,,,,,,,,0.5108,,0.2,0.8,0.8,0.2,0.8,0.2,0.4,0.6,,,0.4809,,0.4,0.6,0.8,0.2,0.2,0.8,0.2,0.8,1,0
,,668946f774f64ae752e01a90,66daf5b985de1527582d9a60,2024-09-06_14h30.43.345,mdp,2024.2.1,Win32,142.8571429,66d7945b1baad48e845df3ce,,,,,,,,,,,,,,,,,,,,,948.1593,948.1593,948.1598,949.0271,0,1,left,0.3565,,949.0275,949.8744,0,0,left,949.8748,950.8883,0,1,left,0,950.8883,950.8883,950.8888,952.3881,0,11,11,11,1,0.2,0.8,0.6,0.4,,,,,,,,,,,,,,,0.3425,,0.2,0.8,0.8,0.2,0.8,0.2,0.4,0.6,,,0.5116,,0.4,0.6,0.8,0.2,0.2,0.8,0.2,0.8,1,0
,,668946f774f64ae752e01a90,66daf5b985de1527582d9a60,2024-09-06_14h30.43.345,mdp,2024.2.1,Win32,142.8571429,66d7945b1baad48e845df3ce,,,,,,,,,,,,,,,,,,,,,952.3883,952.3883,952.3888,953.1799,0,1,left,0.279,,953.1803,953.923,0,1,left,953.9235,955.1174,0,1,left,0,955.1174,955.1174,955.1179,956.6172,0,12,12,12,1,0.2,0.8,0.6,0.4,,,,,,,,,,,,,,,0.2377,,0.2,0.8,0.8,0.2,0.8,0.2,0.4,0.6,,,0.6855,,0.4,0.6,0.8,0.2,0.2,0.8,0.2,0.8,1,0
,,668946f774f64ae752e01a90,66daf5b985de1527582d9a60,2024-09-06_14h30.43.345,mdp,2024.2.1,Win32,142.8571429,66d7945b1baad48e845df3ce,,,,,,,,,,,,,,,,,,,,,956.6175,956.6175,956.6179,957.3952,0,0,left,0.2658,,957.3956,958.0479,0,0,left,958.0484,958.6799,0,1,left,0,958.6799,958.6799,958.6805,960.1801,0,13,13,13,1,0.8,0.2,0.8,0.2,,,,,,,,,,,,,,,0.1489,,0.2,0.8,0.8,0.2,0.8,0.2,0.4,0.6,,,0.1205,,0.4,0.6,0.8,0.2,0.2,0.8,0.2,0.8,1,0
,,668946f774f64ae752e01a90,66daf5b985de1527582d9a60,2024-09-06_14h30.43.345,mdp,2024.2.1,Win32,142.8571429,66d7945b1baad48e845df3ce,,,,,,,,,,,,,,,,,,,,,960.1805,960.1805,960.1814,960.8742,0,0,left,0.1829,,960.8747,961.4715,0,1,left,961.4721,963.18,0,1,left,0,963.1801,963.1801,963.1806,964.6798,0,14,14,14,1,0.8,0.2,0.8,0.2,,,,,,,,,,,,,,,0.0944,,0.2,0.8,0.8,0.2,0.8,0.2,0.4,0.6,,,1.1934,,0.4,0.6,0.8,0.2,0.2,0.8,0.2,0.8,1,0
,,668946f774f64ae752e01a90,66daf5b985de1527582d9a60,2024-09-06_14h30.43.345,mdp,2024.2.1,Win32,142.8571429,66d7945b1baad48e845df3ce,,,,,,,,,,,,,,,,,,,,,964.6801,964.6801,964.6807,965.3396,0,1,left,0.1469,,965.3403,966.3465,0,0,left,966.347,968.2007,1,0,right,1,968.2008,968.2008,968.2012,969.7008,0,15,15,15,1,0.8,0.2,0.8,0.2,,,,,,,,,,,,,,,0.4933,,0.2,0.8,0.8,0.2,0.8,0.2,0.4,0.6,,,1.3424,,0.4,0.6,0.8,0.2,0.2,0.8,0.2,0.8,1,0
,,668946f774f64ae752e01a90,66daf5b985de1527582d9a60,2024-09-06_14h30.43.345,mdp,2024.2.1,Win32,142.8571429,66d7945b1baad48e845df3ce,,,,,,,,,,,,,,,,,,,,,969.701,969.701,969.7015,970.4854,0,1,left,0.2712,,970.4859,971.3047,0,0,left,971.3052,972.1868,1,1,right,0,972.1868,972.1868,972.1873,973.687,0,16,16,16,1,0.8,0.2,0.8,0.2,,,,,,,,,,,,,,,0.3093,,0.2,0.8,0.8,0.2,0.8,0.2,0.4,0.6,,,0.3764,,0.4,0.6,0.8,0.2,0.2,0.8,0.2,0.8,1,0
,,668946f774f64ae752e01a90,66daf5b985de1527582d9a60,2024-09-06_14h30.43.345,mdp,2024.2.1,Win32,142.8571429,66d7945b1baad48e845df3ce,,,,,,,,,,,,,,,,,,,,,973.6872,973.6873,973.6877,974.5964,0,1,left,0.3967,,974.597,975.4575,0,0,left,975.458,976.3116,1,0,right,1,976.3116,976.3117,976.3122,977.8116,0,17,17,17,1,0.8,0.2,0.8,0.2,,,,,,,,,,,,,,,0.3508,,0.2,0.8,0.8,0.2,0.8,0.2,0.4,0.6,,,0.3524,,0.4,0.6,0.8,0.2,0.2,0.8,0.2,0.8,1,0
,,668946f774f64ae752e01a90,66daf5b985de1527582d9a60,2024-09-06_14h30.43.345,mdp,2024.2.1,Win32,142.8571429,66d7945b1baad48e845df3ce,,,,,,,,,,,,,,,,,,,,,977.8119,977.8119,977.8123,978.9998,0,0,left,0.6795,,979.0003,980.013,0,1,left,980.0135,981.5062,0,1,left,0,981.5062,981.5062,981.5068,983.0061,0,18,18,18,1,0.8,0.2,0.8,0.2,,,,,,,,,,,,,,,0.4972,,0.2,0.8,0.8,0.2,0.8,0.2,0.4,0.6,,,0.9805,,0.4,0.6,0.8,0.2,0.2,0.8,0.2,0.8,1,0
,,668946f774f64ae752e01a90,66daf5b985de1527582d9a60,2024-09-06_14h30.43.345,mdp,2024.2.1,Win32,142.8571429,66d7945b1baad48e845df3ce,,,,,,,,,,,,,,,,,,,,,983.0064,983.0064,983.0069,983.8602,0,0,left,0.3408,,983.8607,985.5963,1,0,right,985.5967,987.0201,0,0,left,1,987.0201,987.0201,987.0205,988.5198,0,19,19,19,1,0.8,0.2,0.8,0.2,,,,,,,,,,,,,,,1.2296,,0.2,0.8,0.8,0.2,0.8,0.2,0.4,0.6,,,0.9081,,0.4,0.6,0.8,0.2,0.2,0.8,0.2,0.8,1,0
,,668946f774f64ae752e01a90,66daf5b985de1527582d9a60,2024-09-06_14h30.43.345,mdp,2024.2.1,Win32,142.8571429,66d7945b1baad48e845df3ce,,,,,,,,,,,,,,,,,,,,,988.5201,988.5201,988.5205,989.7769,0,1,left,0.747,,989.7774,991.3324,0,0,left,991.3328,992.506,0,0,left,1,992.506,992.506,992.5065,994.0061,0,20,20,20,1,0.8,0.2,0.8,0.2,,,,,,,,,,,,,,,1.0404,,0.2,0.8,0.8,0.2,0.8,0.2,0.4,0.6,,,0.6693,,0.4,0.6,0.8,0.2,0.2,0.8,0.2,0.8,1,0
,,668946f774f64ae752e01a90,66daf5b985de1527582d9a60,2024-09-06_14h30.43.345,mdp,2024.2.1,Win32,142.8571429,66d7945b1baad48e845df3ce,,,,,,,,,,,,,,,,,,,,,994.0063,994.0063,994.0069,994.9643,0,0,left,0.4449,,994.9648,996.7769,1,0,right,996.7774,997.9991,0,1,left,0,997.9991,997.9991,997.9996,999.4991,0,21,21,21,1,0.8,0.2,0.8,0.2,,,,,,,,,,,,,,,1.3077,,0.2,0.8,0.8,0.2,0.8,0.2,0.4,0.6,,,0.7133,,0.4,0.6,0.8,0.2,0.2,0.8,0.2,0.8,1,0
,,668946f774f64ae752e01a90,66daf5b985de1527582d9a60,2024-09-06_14h30.43.345,mdp,2024.2.1,Win32,142.8571429,66d7945b1baad48e845df3ce,,,,,,,,,,,,,,,,,,,,,999.4992,999.4992,999.4999,1000.3809,0,0,left,0.3692,,1000.3815,1002.1935,1,0,right,1002.194,1003.124,0,1,left,0,1003.1241,1003.1241,1003.1246,1004.624,0,22,22,22,1,0.8,0.2,0.8,0.2,,,,,,,,,,,,,,,1.3088,,0.2,0.8,0.8,0.2,0.8,0.2,0.4,0.6,,,0.4243,,0.4,0.6,0.8,0.2,0.2,0.8,0.2,0.8,1,0
,,668946f774f64ae752e01a90,66daf5b985de1527582d9a60,2024-09-06_14h30.43.345,mdp,2024.2.1,Win32,142.8571429,66d7945b1baad48e845df3ce,,,,,,,,,,,,,,,,,,,,,1004.6242,1004.6242,1004.6246,1005.4296,0,0,left,0.2982,,1005.4301,1006.4713,1,0,right,1006.4719,1007.3809,1,1,right,0,1007.3809,1007.3809,1007.3814,1008.881,0,23,23,23,1,0.8,0.2,0.8,0.2,,,,,,,,,,,,,,,0.5402,,0.2,0.8,0.8,0.2,0.8,0.2,0.4,0.6,,,0.3962,,0.8,0.2,0.4,0.6,0.2,0.8,0.2,0.8,1,0
,,668946f774f64ae752e01a90,66daf5b985de1527582d9a60,2024-09-06_14h30.43.345,mdp,2024.2.1,Win32,142.8571429,66d7945b1baad48e845df3ce,,,,,,,,,,,,,,,,,,,,,1008.8811,1008.8811,1008.8816,1009.7839,0,0,left,0.3939,,1009.7845,1010.6797,0,1,left,1010.6802,1011.4644,0,0,left,1,1011.4644,1011.4644,1011.4649,1012.9641,0,24,24,24,1,0.8,0.2,0.8,0.2,,,,,,,,,,,,,,,0.3941,,0.2,0.8,0.8,0.2,0.8,0.2,0.4,0.6,,,0.2739,,0.8,0.2,0.4,0.6,0.2,0.8,0.2,0.8,1,0
,,668946f774f64ae752e01a90,66daf5b985de1527582d9a60,2024-09-06_14h30.43.345,mdp,2024.2.1,Win32,142.8571429,66d7945b1baad48e845df3ce,,,,,,,,,,,,,,,,,,,,,1012.9643,1012.9643,1012.9648,1013.881,0,1,left,0.4068,,1013.8815,1014.8323,0,0,left,1014.8328,1015.5198,1,1,right,0,1015.5199,1015.5199,1015.5204,1017.0196,0,25,25,25,1,0.8,0.2,0.8,0.2,,,,,,,,,,,,,,,0.4398,,0.2,0.8,0.8,0.2,0.8,0.2,0.4,0.6,,,0.1758,,0.8,0.2,0.4,0.6,0.2,0.8,0.2,0.8,1,0
,,668946f774f64ae752e01a90,66daf5b985de1527582d9a60,2024-09-06_14h30.43.345,mdp,2024.2.1,Win32,142.8571429,66d7945b1baad48e845df3ce,,,,,,,,,,,,,,,,,,,,,1017.0198,1017.0199,1017.0204,1017.7699,0,1,left,0.2399,,1017.7704,1018.3739,0,0,left,1018.3745,1019.2698,0,0,left,1,1019.2698,1019.2698,1019.2704,1020.7698,0,26,26,26,1,0.8,0.2,0.8,0.2,,,,,,,,,,,,,,,0.0975,,0.2,0.8,0.8,0.2,0.8,0.2,0.4,0.6,,,0.3892,,0.8,0.2,0.4,0.6,0.4,0.6,0.4,0.6,1,0
,,668946f774f64ae752e01a90,66daf5b985de1527582d9a60,2024-09-06_14h30.43.345,mdp,2024.2.1,Win32,142.8571429,66d7945b1baad48e845df3ce,,,,,,,,,,,,,,,,,,,,,1020.7701,1020.7701,1020.7706,1021.6031,0,1,left,0.3208,,1021.6037,1022.4156,0,0,left,1022.4162,1023.0406,0,0,left,1,1023.0406,1023.0406,1023.0411,1024.5407,0,27,27,27,1,0.8,0.2,0.8,0.2,,,,,,,,,,,,,,,0.304,,0.2,0.8,0.8,0.2,0.8,0.2,0.4,0.6,,,0.1155,,0.8,0.2,0.4,0.6,0.4,0.6,0.4,0.6,1,0
,,668946f774f64ae752e01a90,66daf5b985de1527582d9a60,2024-09-06_14h30.43.345,mdp,2024.2.1,Win32,142.8571429,66d7945b1baad48e845df3ce,,,,,,,,,,,,,,,,,,,,,1024.541,1024.541,1024.5416,1025.4088,0,1,left,0.3579,,1025.4093,1026.1655,0,0,left,1026.166,1026.8115,0,0,left,1,1026.8115,1026.8115,1026.8119,1028.3117,0,28,28,28,1,0.8,0.2,0.8,0.2,,,,,,,,,,,,,,,0.2436,,0.2,0.8,0.8,0.2,0.8,0.2,0.4,0.6,,,0.1327,,0.8,0.2,0.4,0.6,0.4,0.6,0.4,0.6,1,0
,,668946f774f64ae752e01a90,66daf5b985de1527582d9a60,2024-09-06_14h30.43.345,mdp,2024.2.1,Win32,142.8571429,66d7945b1baad48e845df3ce,,,,,,,,,,,,,,,,,,,,,1028.3119,1028.3119,1028.3126,1029.0474,0,1,left,0.2272,,1029.048,1029.8878,0,0,left,1029.8884,1030.6585,0,0,left,1,1030.6586,1030.6586,1030.659,1032.1586,0,29,29,29,1,0.8,0.2,0.8,0.2,,,,,,,,,,,,,,,0.3381,,0.2,0.8,0.8,0.2,0.8,0.2,0.4,0.6,,,0.2588,,0.8,0.2,0.4,0.6,0.4,0.6,0.4,0.6,1,0
,,668946f774f64ae752e01a90,66daf5b985de1527582d9a60,2024-09-06_14h30.43.345,mdp,2024.2.1,Win32,142.8571429,66d7945b1baad48e845df3ce,,,,,,,,,,,,,,,,,,,,,1032.1588,1032.1588,1032.1592,1036.8669,0,1,left,4.196,,1036.8719,1037.6238,0,0,left,1037.6244,1038.2488,0,1,left,0,1038.2489,1038.2489,1038.2494,1039.7488,0,30,30,30,1,0.8,0.2,0.8,0.2,,,,,,,,,,,,,,,0.2473,,0.2,0.8,0.8,0.2,0.8,0.2,0.4,0.6,,,0.122,,0.2,0.8,0.8,0.2,0.4,0.6,0.4,0.6,1,0
,,668946f774f64ae752e01a90,66daf5b985de1527582d9a60,2024-09-06_14h30.43.345,mdp,2024.2.1,Win32,142.8571429,66d7945b1baad48e845df3ce,,,,,,,,,,,,,,,,,,,,,1039.7491,1039.7491,1039.7495,1041.235,0,0,left,0.9744,,1041.2355,1042.0126,0,1,left,1042.0131,1042.7696,1,1,right,0,1042.7697,1042.7697,1042.7703,1044.2697,0,31,31,31,1,0.8,0.2,0.8,0.2,,,,,,,,,,,,,,,0.2629,,0.2,0.8,0.8,0.2,0.8,0.2,0.4,0.6,,,0.251,,0.2,0.8,0.8,0.2,0.4,0.6,0.4,0.6,1,0
,,668946f774f64ae752e01a90,66daf5b985de1527582d9a60,2024-09-06_14h30.43.345,mdp,2024.2.1,Win32,142.8571429,66d7945b1baad48e845df3ce,,,,,,,,,,,,,,,,,,,,,1044.2699,1044.2699,1044.2703,1044.978,0,0,left,0.1974,,1044.9784,1045.6725,0,1,left,1045.673,1046.4919,0,1,left,0,1046.492,1046.492,1046.4925,1047.992,0,32,32,32,1,0.8,0.2,0.8,0.2,,,,,,,,,,,,,,,0.185,,0.2,0.8,0.8,0.2,0.8,0.2,0.4,0.6,,,0.3071,,0.2,0.8,0.8,0.2,0.4,0.6,0.4,0.6,1,0
,,668946f774f64ae752e01a90,66daf5b985de1527582d9a60,2024-09-06_14h30.43.345,mdp,2024.2.1,Win32,142.8571429,66d7945b1baad48e845df3ce,,,,,,,,,,,,,,,,,,,,,1047.9922,1047.9922,1047.9927,1048.8113,0,0,left,0.3072,,1048.8118,1049.5058,1,0,right,1049.5062,1050.4986,1,0,right,1,1050.4987,1050.4987,1050.4992,1051.9989,0,33,33,33,1,0.8,0.2,0.8,0.2,,,,,,,,,,,,,,,0.1834,,0.2,0.8,0.8,0.2,0.8,0.2,0.4,0.6,,,0.4791,,0.2,0.8,0.8,0.2,0.4,0.6,0.4,0.6,1,0
,,668946f774f64ae752e01a90,66daf5b985de1527582d9a60,2024-09-06_14h30.43.345,mdp,2024.2.1,Win32,142.8571429,66d7945b1baad48e845df3ce,,,,,,,,,,,,,,,,,,,,,1051.9992,1051.9992,1051.9997,1052.7141,0,0,left,0.2039,,1052.7146,1053.5751,1,0,right,1053.5756,1054.3806,1,0,right,1,1054.3806,1054.3806,1054.3811,1055.8805,0,34,34,34,1,0.8,0.2,0.8,0.2,,,,,,,,,,,,,,,0.3523,,0.2,0.8,0.8,0.2,0.8,0.2,0.4,0.6,,,0.2922,,0.2,0.8,0.8,0.2,0.4,0.6,0.4,0.6,1,0
,,668946f774f64ae752e01a90,66daf5b985de1527582d9a60,2024-09-06_14h30.43.345,mdp,2024.2.1,Win32,142.8571429,66d7945b1baad48e845df3ce,,,,,,,,,,,,,,,,,,,,,1055.8806,1055.8806,1055.8813,1056.6515,0,0,left,0.2577,,1056.652,1057.4158,1,0,right,1057.4163,1058.3043,1,0,right,1,1058.3043,1058.3043,1058.3047,1059.8041,0,35,35,35,1,0.8,0.2,0.8,0.2,,,,,,,,,,,,,,,0.2628,,0.2,0.8,0.8,0.2,0.8,0.2,0.4,0.6,,,0.3791,,0.2,0.8,0.8,0.2,0.4,0.6,0.4,0.6,1,0
,,668946f774f64ae752e01a90,66daf5b985de1527582d9a60,2024-09-06_14h30.43.345,mdp,2024.2.1,Win32,142.8571429,66d7945b1baad48e845df3ce,,,,,,,,,,,,,,,,,,,,,1059.8044,1059.8044,1059.8048,1060.5542,0,0,left,0.2388,,1060.5547,1061.471,1,0,right,1061.4714,1062.4501,1,0,right,1,1062.4502,1062.4502,1062.4507,1063.9503,0,36,36,36,1,0.8,0.2,0.8,0.2,,,,,,,,,,,,,,,0.415,,0.2,0.8,0.8,0.2,0.8,0.2,0.4,0.6,,,0.4684,,0.2,0.8,0.8,0.2,0.4,0.6,0.4,0.6,1,0
,,668946f774f64ae752e01a90,66daf5b985de1527582d9a60,2024-09-06_14h30.43.345,mdp,2024.2.1,Win32,142.8571429,66d7945b1baad48e845df3ce,,,,,,,,,,,,,,,,,,,,,1063.9506,1063.9506,1063.9511,1064.7557,0,0,left,0.2927,,1064.7563,1065.8806,1,0,right,1065.8812,1067.6375,0,1,left,0,1067.6375,1067.6375,1067.638,1069.1376,0,37,37,37,1,0.8,0.2,0.8,0.2,,,,,,,,,,,,,,,0.6154,,0.2,0.8,0.8,0.2,0.8,0.2,0.4,0.6,,,1.2437,,0.2,0.8,0.8,0.2,0.4,0.6,0.4,0.6,1,0
,,668946f774f64ae752e01a90,66daf5b985de1527582d9a60,2024-09-06_14h30.43.345,mdp,2024.2.1,Win32,142.8571429,66d7945b1baad48e845df3ce,,,,,,,,,,,,,,,,,,,,,1069.1378,1069.1378,1069.1384,1069.9014,0,1,left,0.2507,,1069.902,1070.6584,1,1,right,1070.6588,1071.4918,0,0,left,1,1071.4918,1071.4918,1071.4922,1072.9917,0,38,38,38,1,0.8,0.2,0.8,0.2,,,,,,,,,,,,,,,0.2503,,0.2,0.8,0.8,0.2,0.8,0.2,0.4,0.6,,,0.3184,,0.2,0.8,0.8,0.2,0.4,0.6,0.4,0.6,1,0
,,668946f774f64ae752e01a90,66daf5b985de1527582d9a60,2024-09-06_14h30.43.345,mdp,2024.2.1,Win32,142.8571429,66d7945b1baad48e845df3ce,,,,,,,,,,,,,,,,,,,,,1072.9919,1072.9919,1072.9924,1073.8319,0,1,left,0.3319,,1073.8325,1075.1516,1,1,right,1075.1521,1075.936,0,1,left,0,1075.9361,1075.9361,1075.9366,1077.4361,0,39,39,39,1,0.8,0.2,0.8,0.2,,,,,,,,,,,,,,,0.8178,,0.2,0.8,0.8,0.2,0.8,0.2,0.4,0.6,,,0.2759,,0.2,0.8,0.8,0.2,0.4,0.6,0.4,0.6,1,0
,,668946f774f64ae752e01a90,66daf5b985de1527582d9a60,2024-09-06_14h30.43.345,mdp,2024.2.1,Win32,142.8571429,66d7945b1baad48e845df3ce,,,,,,,,,,,,,,,,,,,,,1077.4363,1077.4363,1077.4368,1078.1514,0,0,left,0.2066,,1078.1519,1078.8736,0,1,left,1078.8741,1079.6027,1,1,right,0,1079.6027,1079.6027,1079.6032,1081.1026,0,40,40,40,1,0.8,0.2,0.8,0.2,,,,,,,,,,,,,,,0.2093,,0.2,0.8,0.8,0.2,0.8,0.2,0.4,0.6,,,0.2184,,0.2,0.8,0.8,0.2,0.4,0.6,0.4,0.6,1,0
,,668946f774f64ae752e01a90,66daf5b985de1527582d9a60,2024-09-06_14h30.43.345,mdp,2024.2.1,Win32,142.8571429,66d7945b1baad48e845df3ce,,,,,,,,,,,,,,,,,,,,,1081.1028,1081.1028,1081.1033,1082.0889,0,0,left,0.4764,,1082.0893,1083.1722,1,0,right,1083.1728,1083.936,1,0,right,1,1083.936,1083.936,1083.9366,1085.436,0,41,41,41,1,0.8,0.2,0.8,0.2,,,,,,,,,,,,,,,0.5697,,0.2,0.8,0.8,0.2,0.8,0.2,0.4,0.6,,,0.2534,,0.2,0.8,0.8,0.2,0.4,0.6,0.4,0.6,1,0
,,668946f774f64ae752e01a90,66daf5b985de1527582d9a60,2024-09-06_14h30.43.345,mdp,2024.2.1,Win32,142.8571429,66d7945b1baad48e845df3ce,,,,,,,,,,,,,,,,,,,,,1085.4361,1085.4361,1085.4365,1086.2208,0,0,left,0.2715,,1086.2212,1087.0958,1,0,right,1087.0963,1087.8111,1,0,right,1,1087.8111,1087.8111,1087.8117,1089.3111,0,42,42,42,1,0.8,0.2,0.8,0.2,,,,,,,,,,,,,,,0.3661,,0.2,0.8,0.8,0.2,0.8,0.2,0.4,0.6,,,0.2026,,0.2,0.8,0.8,0.2,0.4,0.6,0.4,0.6,1,0
,,668946f774f64ae752e01a90,66daf5b985de1527582d9a60,2024-09-06_14h30.43.345,mdp,2024.2.1,Win32,142.8571429,66d7945b1baad48e845df3ce,,,,,,,,,,,,,,,,,,,,,1089.3113,1089.3113,1089.3117,1090.0611,0,0,left,0.2366,,1090.0615,1090.7277,1,0,right,1090.7282,1091.4568,1,0,right,1,1091.4568,1091.4568,1091.4572,1092.9567,0,43,43,43,1,0.8,0.2,0.8,0.2,,,,,,,,,,,,,,,0.1572,,0.2,0.8,0.8,0.2,0.8,0.2,0.4,0.6,,,0.2188,,0.2,0.8,0.8,0.2,0.4,0.6,0.4,0.6,1,0
,,668946f774f64ae752e01a90,66daf5b985de1527582d9a60,2024-09-06_14h30.43.345,mdp,2024.2.1,Win32,142.8571429,66d7945b1baad48e845df3ce,,,,,,,,,,,,,,,,,,,,,1092.9569,1092.9569,1092.9575,1093.7137,0,0,left,0.2458,,1093.7143,1094.4359,1,0,right,1094.4364,1095.1443,1,0,right,1,1095.1444,1095.1444,1095.1448,1096.6441,0,44,44,44,1,0.8,0.2,0.8,0.2,,,,,,,,,,,,,,,0.2164,,0.2,0.8,0.8,0.2,0.8,0.2,0.4,0.6,,,0.2058,,0.2,0.8,0.8,0.2,0.4,0.6,0.4,0.6,1,0
,,668946f774f64ae752e01a90,66daf5b985de1527582d9a60,2024-09-06_14h30.43.345,mdp,2024.2.1,Win32,142.8571429,66d7945b1baad48e845df3ce,,,,,,,,,,,,,,,,,,,,,1096.6444,1096.6444,1096.6449,1097.4153,0,1,left,0.2628,,1097.4159,1097.9289,1,1,right,1097.9295,1098.4916,1,0,right,1,1098.4916,1098.4916,1098.492,1099.9915,0,45,45,45,1,0.8,0.2,0.8,0.2,,,,,,,,,,,,,,,0.0013,,0.2,0.8,0.8,0.2,0.8,0.2,0.4,0.6,,,0.0484,,0.6,0.4,0.4,0.6,0.4,0.6,0.4,0.6,1,0
,,668946f774f64ae752e01a90,66daf5b985de1527582d9a60,2024-09-06_14h30.43.345,mdp,2024.2.1,Win32,142.8571429,66d7945b1baad48e845df3ce,,,,,,,,,,,,,,,,,,,,,1099.9918,1099.9918,1099.9924,1100.6928,0,0,left,0.1883,,1100.6934,1101.2557,1,0,right,1101.2562,1102.2831,1,1,right,0,1102.2832,1102.2832,1102.2836,1103.7831,0,46,46,46,1,0.8,0.2,0.8,0.2,,,,,,,,,,,,,,,0.0526,,0.2,0.8,0.8,0.2,0.8,0.2,0.4,0.6,,,0.514,,0.6,0.4,0.4,0.6,0.4,0.6,0.4,0.6,1,0
,,668946f774f64ae752e01a90,66daf5b985de1527582d9a60,2024-09-06_14h30.43.345,mdp,2024.2.1,Win32,142.8571429,66d7945b1baad48e845df3ce,,,,,,,,,,,,,,,,,,,,,1103.7833,1103.7833,1103.7837,1104.5194,0,0,left,0.2274,,1104.5199,1105.5472,1,0,right,1105.5477,1106.3804,0,1,left,0,1106.3804,1106.3804,1106.3809,1107.8803,0,47,47,47,1,0.8,0.2,0.8,0.2,,,,,,,,,,,,,,,0.5153,,0.2,0.8,0.8,0.2,0.8,0.2,0.4,0.6,,,0.3191,,0.6,0.4,0.4,0.6,0.4,0.6,0.4,0.6,1,0
,,668946f774f64ae752e01a90,66daf5b985de1527582d9a60,2024-09-06_14h30.43.345,mdp,2024.2.1,Win32,142.8571429,66d7945b1baad48e845df3ce,,,,,,,,,,,,,,,,,,,,,1107.8806,1107.8806,1107.881,1108.5469,0,0,left,0.161,,1108.5474,1109.1164,1,0,right,1109.1169,1109.658,1,1,right,0,1109.6581,1109.6581,1109.6585,1111.1582,0,48,48,48,1,0.8,0.2,0.8,0.2,,,,,,,,,,,,,,,0.0637,,0.2,0.8,0.8,0.2,0.8,0.2,0.4,0.6,,,0.0374,,0.6,0.4,0.4,0.6,0.4,0.6,0.4,0.6,1,0
,,668946f774f64ae752e01a90,66daf5b985de1527582d9a60,2024-09-06_14h30.43.345,mdp,2024.2.1,Win32,142.8571429,66d7945b1baad48e845df3ce,,,,,,,,,,,,,,,,,,,,,1111.1584,1111.1584,1111.1588,1111.8733,0,0,left,0.2046,,1111.8738,1112.6372,0,1,left,1112.6377,1113.1998,0,1,left,0,1113.1999,1113.1999,1113.2005,1114.6997,0,49,49,49,1,0.8,0.2,0.8,0.2,,,,,,,,,,,,,,,0.2576,,0.2,0.8,0.8,0.2,0.8,0.2,0.4,0.6,,,0.0584,,0.6,0.4,0.4,0.6,0.4,0.6,0.4,0.6,1,0
,,668946f774f64ae752e01a90,66daf5b985de1527582d9a60,2024-09-06_14h30.43.345,mdp,2024.2.1,Win32,142.8571429,66d7945b1baad48e845df3ce,,,,,,,,,,,,,,,,,,,,,,,,,,,,,,,,,,,,,,,,,,,,,,,,,,,,,,,,1114.7,1173.2064,0,3,3,6,1,imgs/elephant.png,imgs/dog.png,imgs/squirrel.png,imgs/goat.png,imgs/lion.png,,,,,,,,,,,,,,,,,,,,,,,,
,,668946f774f64ae752e01a90,66daf5b985de1527582d9a60,2024-09-06_14h30.43.345,mdp,2024.2.1,Win32,142.8571429,66d7945b1baad48e845df3ce,,,,,,,,,,,,,,1,seqs/st1seq17.csv,1173.2118,1178.1439,space,4.4282,,1178.1505,1178.1505,1178.1508,1179.5257,0,1,left,0.8658,,1179.5264,1179.5266,0,1,,1179.5269,1179.5271,0,1,,0,1179.5271,1179.5271,1179.5272,1181.0256,0,0,0,0,1,0.2,0.8,0.8,0.2,1,0,,,,,,,,,,,,,,,,,,,,,,,,,,,,,,,,,,,,
,,668946f774f64ae752e01a90,66daf5b985de1527582d9a60,2024-09-06_14h30.43.345,mdp,2024.2.1,Win32,142.8571429,66d7945b1baad48e845df3ce,,,,,,,,,,,,,,,,,,,,,1181.0258,1181.0258,1181.0262,1181.8729,1,0,right,0.337,,1181.8734,1181.8738,0,1,,1181.874,1181.8742,0,1,,1,1181.8742,1181.8742,1181.8744,1183.373,0,1,1,1,1,0.8,0.2,0.2,0.8,1,0,,,,,,,,,,,,,,,,,,,,,,,,,,,,,,,,,,,,
,,668946f774f64ae752e01a90,66daf5b985de1527582d9a60,2024-09-06_14h30.43.345,mdp,2024.2.1,Win32,142.8571429,66d7945b1baad48e845df3ce,,,,,,,,,,,,,,,,,,,,,1183.3731,1183.3731,1183.3736,1184.2271,1,1,right,0.3429,,1184.2275,1184.2279,0,0,,1184.2281,1184.2282,0,1,,0,1184.2282,1184.2283,1184.2285,1185.7271,0,2,2,2,1,0.8,0.2,0.2,0.8,1,0,,,,,,,,,,,,,,,,,,,,,,,,,,,,,,,,,,,,
,,668946f774f64ae752e01a90,66daf5b985de1527582d9a60,2024-09-06_14h30.43.345,mdp,2024.2.1,Win32,142.8571429,66d7945b1baad48e845df3ce,,,,,,,,,,,,,,,,,,,,,1185.7273,1185.7273,1185.7277,1186.4008,1,1,right,0.1632,,1186.4012,1186.4016,0,1,,1186.4019,1186.4021,0,1,,0,1186.4021,1186.4021,1186.4023,1187.9007,0,3,3,3,1,0.8,0.2,0.2,0.8,1,0,,,,,,,,,,,,,,,,,,,,,,,,,,,,,,,,,,,,
,,668946f774f64ae752e01a90,66daf5b985de1527582d9a60,2024-09-06_14h30.43.345,mdp,2024.2.1,Win32,142.8571429,66d7945b1baad48e845df3ce,,,,,,,,,,,,,,,,,,,,,1187.9009,1187.9009,1187.9013,1188.5465,0,0,left,0.1343,,1188.5471,1188.5474,0,0,,1188.5477,1188.5478,0,0,,1,1188.5478,1188.5478,1188.548,1190.0466,0,4,4,4,1,0.8,0.2,0.2,0.8,1,0,,,,,,,,,,,,,,,,,,,,,,,,,,,,,,,,,,,,
,,668946f774f64ae752e01a90,66daf5b985de1527582d9a60,2024-09-06_14h30.43.345,mdp,2024.2.1,Win32,142.8571429,66d7945b1baad48e845df3ce,,,,,,,,,,,,,,,,,,,,,1190.0468,1190.0469,1190.0475,1190.7618,0,0,left,0.2045,,1190.7623,1190.7626,0,1,,1190.7629,1190.7631,0,0,,1,1190.7631,1190.7631,1190.7632,1192.2617,0,5,5,5,1,0.8,0.2,0.2,0.8,1,0,,,,,,,,,,,,,,,,,,,,,,,,,,,,,,,,,,,,
,,668946f774f64ae752e01a90,66daf5b985de1527582d9a60,2024-09-06_14h30.43.345,mdp,2024.2.1,Win32,142.8571429,66d7945b1baad48e845df3ce,,,,,,,,,,,,,,,,,,,,,1192.2619,1192.2619,1192.2623,1192.9284,0,0,left,0.1574,,1192.929,1192.9293,0,0,,1192.9297,1192.9298,0,0,,1,1192.9298,1192.9298,1192.93,1194.4285,0,6,6,6,1,0.8,0.2,0.2,0.8,1,0,,,,,,,,,,,,,,,,,,,,,,,,,,,,,,,,,,,,
,,668946f774f64ae752e01a90,66daf5b985de1527582d9a60,2024-09-06_14h30.43.345,mdp,2024.2.1,Win32,142.8571429,66d7945b1baad48e845df3ce,,,,,,,,,,,,,,,,,,,,,1194.4287,1194.4287,1194.4293,1195.0326,0,0,left,0.0948,,1195.0331,1195.0334,0,0,,1195.0337,1195.0338,0,0,,1,1195.0339,1195.0339,1195.034,1196.5326,0,7,7,7,1,0.8,0.2,0.2,0.8,1,0,,,,,,,,,,,,,,,,,,,,,,,,,,,,,,,,,,,,
,,668946f774f64ae752e01a90,66daf5b985de1527582d9a60,2024-09-06_14h30.43.345,mdp,2024.2.1,Win32,142.8571429,66d7945b1baad48e845df3ce,,,,,,,,,,,,,,,,,,,,,1196.5327,1196.5328,1196.5333,1197.2132,0,0,left,0.1666,,1197.2137,1197.2141,0,0,,1197.2143,1197.2145,0,0,,1,1197.2145,1197.2145,1197.2146,1198.7133,0,8,8,8,1,0.4,0.6,0.6,0.4,1,0,,,,,,,,,,,,,,,,,,,,,,,,,,,,,,,,,,,,
,,668946f774f64ae752e01a90,66daf5b985de1527582d9a60,2024-09-06_14h30.43.345,mdp,2024.2.1,Win32,142.8571429,66d7945b1baad48e845df3ce,,,,,,,,,,,,,,,,,,,,,1198.7136,1198.7136,1198.714,1199.4492,0,0,left,0.2262,,1199.4497,1199.4501,0,1,,1199.4503,1199.4504,0,1,,1,1199.4504,1199.4505,1199.4506,1200.9492,0,9,9,9,1,0.4,0.6,0.6,0.4,1,0,,,,,,,,,,,,,,,,,,,,,,,,,,,,,,,,,,,,
,,668946f774f64ae752e01a90,66daf5b985de1527582d9a60,2024-09-06_14h30.43.345,mdp,2024.2.1,Win32,142.8571429,66d7945b1baad48e845df3ce,,,,,,,,,,,,,,,,,,,,,1200.9493,1200.9493,1200.9498,1201.6229,0,1,left,0.1723,,1201.6236,1201.6239,0,0,,1201.6242,1201.6244,0,1,,0,1201.6244,1201.6244,1201.6245,1203.1227,0,10,10,10,1,0.4,0.6,0.6,0.4,1,0,,,,,,,,,,,,,,,,,,,,,,,,,,,,,,,,,,,,
,,668946f774f64ae752e01a90,66daf5b985de1527582d9a60,2024-09-06_14h30.43.345,mdp,2024.2.1,Win32,142.8571429,66d7945b1baad48e845df3ce,,,,,,,,,,,,,,,,,,,,,1203.1229,1203.1229,1203.1234,1203.7408,1,0,right,0.1049,,1203.7413,1203.7416,0,1,,1203.7419,1203.7421,0,1,,1,1203.7421,1203.7421,1203.7422,1205.2408,0,11,11,11,1,0.6,0.4,0.4,0.6,1,0,,,,,,,,,,,,,,,,,,,,,,,,,,,,,,,,,,,,
,,668946f774f64ae752e01a90,66daf5b985de1527582d9a60,2024-09-06_14h30.43.345,mdp,2024.2.1,Win32,142.8571429,66d7945b1baad48e845df3ce,,,,,,,,,,,,,,,,,,,,,1205.2409,1205.2409,1205.2415,1206.1297,1,1,right,0.3782,,1206.1302,1206.1306,0,0,,1206.1308,1206.131,0,0,,0,1206.1311,1206.1311,1206.1313,1207.6296,0,12,12,12,1,0.6,0.4,0.4,0.6,1,0,,,,,,,,,,,,,,,,,,,,,,,,,,,,,,,,,,,,
,,668946f774f64ae752e01a90,66daf5b985de1527582d9a60,2024-09-06_14h30.43.345,mdp,2024.2.1,Win32,142.8571429,66d7945b1baad48e845df3ce,,,,,,,,,,,,,,,,,,,,,1207.6299,1207.6299,1207.6304,1208.2756,0,1,left,0.1333,,1208.2761,1208.2765,0,1,,1208.2768,1208.277,0,1,,0,1208.277,1208.277,1208.2772,1209.7755,0,13,13,13,1,0.6,0.4,0.4,0.6,1,0,,,,,,,,,,,,,,,,,,,,,,,,,,,,,,,,,,,,
,,668946f774f64ae752e01a90,66daf5b985de1527582d9a60,2024-09-06_14h30.43.345,mdp,2024.2.1,Win32,142.8571429,66d7945b1baad48e845df3ce,,,,,,,,,,,,,,,,,,,,,1209.7756,1209.7756,1209.7761,1210.2964,0,0,left,0.018,,1210.2969,1210.2972,0,1,,1210.2974,1210.2976,0,0,,1,1210.2976,1210.2976,1210.2977,1211.7964,0,14,14,14,1,0.6,0.4,0.4,0.6,1,0,,,,,,,,,,,,,,,,,,,,,,,,,,,,,,,,,,,,
,,668946f774f64ae752e01a90,66daf5b985de1527582d9a60,2024-09-06_14h30.43.345,mdp,2024.2.1,Win32,142.8571429,66d7945b1baad48e845df3ce,,,,,,,,,,,,,,,,,,,,,1211.7965,1211.7965,1211.797,1212.4213,0,1,left,0.1182,,1212.4218,1212.4221,0,0,,1212.4224,1212.4225,0,0,,0,1212.4225,1212.4225,1212.4228,1213.9213,0,15,15,15,1,0.6,0.4,0.4,0.6,1,0,,,,,,,,,,,,,,,,,,,,,,,,,,,,,,,,,,,,
,,668946f774f64ae752e01a90,66daf5b985de1527582d9a60,2024-09-06_14h30.43.345,mdp,2024.2.1,Win32,142.8571429,66d7945b1baad48e845df3ce,,,,,,,,,,,,,,,,,,,,,1213.9215,1213.9215,1213.922,1214.8657,0,1,left,0.4329,,1214.8662,1214.8665,0,1,,1214.8668,1214.8669,0,1,,0,1214.8669,1214.8669,1214.8671,1216.3657,0,16,16,16,1,0.6,0.4,0.4,0.6,1,0,,,,,,,,,,,,,,,,,,,,,,,,,,,,,,,,,,,,
,,668946f774f64ae752e01a90,66daf5b985de1527582d9a60,2024-09-06_14h30.43.345,mdp,2024.2.1,Win32,142.8571429,66d7945b1baad48e845df3ce,,,,,,,,,,,,,,,,,,,,,1216.3659,1216.3659,1216.3663,1216.9769,1,0,right,0.101,,1216.9774,1216.9777,0,0,,1216.9779,1216.9781,0,1,,1,1216.9781,1216.9781,1216.9782,1218.4767,0,17,17,17,1,0.2,0.8,0.6,0.4,1,0,,,,,,,,,,,,,,,,,,,,,,,,,,,,,,,,,,,,
,,668946f774f64ae752e01a90,66daf5b985de1527582d9a60,2024-09-06_14h30.43.345,mdp,2024.2.1,Win32,142.8571429,66d7945b1baad48e845df3ce,,,,,,,,,,,,,,,,,,,,,1218.4769,1218.4769,1218.4774,1219.0186,1,0,right,0.0305,,1219.0191,1219.0195,0,0,,1219.0198,1219.0199,0,0,,1,1219.0199,1219.0199,1219.0201,1220.5184,0,18,18,18,1,0.2,0.8,0.6,0.4,1,0,,,,,,,,,,,,,,,,,,,,,,,,,,,,,,,,,,,,
,,668946f774f64ae752e01a90,66daf5b985de1527582d9a60,2024-09-06_14h30.43.345,mdp,2024.2.1,Win32,142.8571429,66d7945b1baad48e845df3ce,,,,,,,,,,,,,,,,,,,,,1220.5186,1220.5186,1220.5191,1221.2337,1,1,right,0.2045,,1221.2342,1221.2346,0,1,,1221.2349,1221.2351,0,0,,0,1221.2351,1221.2351,1221.2353,1222.7338,0,19,19,19,1,0.2,0.8,0.6,0.4,1,0,,,,,,,,,,,,,,,,,,,,,,,,,,,,,,,,,,,,
,,668946f774f64ae752e01a90,66daf5b985de1527582d9a60,2024-09-06_14h30.43.345,mdp,2024.2.1,Win32,142.8571429,66d7945b1baad48e845df3ce,,,,,,,,,,,,,,,,,,,,,1222.734,1222.734,1222.7344,1223.2616,0,0,left,0.0145,,1223.2621,1223.2624,0,1,,1223.2626,1223.2627,0,0,,1,1223.2628,1223.2628,1223.263,1224.7616,0,20,20,20,1,0.2,0.8,0.6,0.4,1,0,,,,,,,,,,,,,,,,,,,,,,,,,,,,,,,,,,,,
,,668946f774f64ae752e01a90,66daf5b985de1527582d9a60,2024-09-06_14h30.43.345,mdp,2024.2.1,Win32,142.8571429,66d7945b1baad48e845df3ce,,,,,,,,,,,,,,,,,,,,,1224.7618,1224.7618,1224.7622,1225.3657,0,1,left,0.0912,,1225.3662,1225.3665,0,1,,1225.3667,1225.3669,0,1,,0,1225.3669,1225.3669,1225.3671,1226.8657,0,21,21,21,1,0.2,0.8,0.6,0.4,1,0,,,,,,,,,,,,,,,,,,,,,,,,,,,,,,,,,,,,
,,668946f774f64ae752e01a90,66daf5b985de1527582d9a60,2024-09-06_14h30.43.345,mdp,2024.2.1,Win32,142.8571429,66d7945b1baad48e845df3ce,,,,,,,,,,,,,,,,,,,,,1226.8658,1226.8658,1226.8663,1227.5045,0,1,left,0.13,,1227.5051,1227.5054,0,1,,1227.5057,1227.5059,0,1,,0,1227.5059,1227.5059,1227.5062,1229.0045,0,22,22,22,1,0.2,0.8,0.6,0.4,1,0,,,,,,,,,,,,,,,,,,,,,,,,,,,,,,,,,,,,
,,668946f774f64ae752e01a90,66daf5b985de1527582d9a60,2024-09-06_14h30.43.345,mdp,2024.2.1,Win32,142.8571429,66d7945b1baad48e845df3ce,,,,,,,,,,,,,,,,,,,,,1229.0047,1229.0047,1229.005,1229.5393,0,1,left,0.0227,,1229.5398,1229.5402,0,1,,1229.5405,1229.5407,0,0,,0,1229.5407,1229.5407,1229.5409,1231.0392,0,23,23,23,1,0.2,0.8,0.6,0.4,1,0,,,,,,,,,,,,,,,,,,,,,,,,,,,,,,,,,,,,
,,668946f774f64ae752e01a90,66daf5b985de1527582d9a60,2024-09-06_14h30.43.345,mdp,2024.2.1,Win32,142.8571429,66d7945b1baad48e845df3ce,,,,,,,,,,,,,,,,,,,,,1231.0395,1231.0395,1231.04,1231.6642,0,1,left,0.1159,,1231.6648,1231.6652,0,0,,1231.6655,1231.6657,0,1,,0,1231.6657,1231.6657,1231.6658,1233.1645,0,24,24,24,1,0.2,0.8,0.6,0.4,1,0,,,,,,,,,,,,,,,,,,,,,,,,,,,,,,,,,,,,
,,668946f774f64ae752e01a90,66daf5b985de1527582d9a60,2024-09-06_14h30.43.345,mdp,2024.2.1,Win32,142.8571429,66d7945b1baad48e845df3ce,,,,,,,,,,,,,,,,,,,,,1233.1648,1233.1648,1233.1657,1233.8101,1,0,right,0.1347,,1233.8107,1233.8111,0,0,,1233.8114,1233.8114,0,1,,1,1233.8114,1233.8114,1233.8116,1235.31,0,25,25,25,1,0.2,0.8,0.6,0.4,1,0,,,,,,,,,,,,,,,,,,,,,,,,,,,,,,,,,,,,
,,668946f774f64ae752e01a90,66daf5b985de1527582d9a60,2024-09-06_14h30.43.345,mdp,2024.2.1,Win32,142.8571429,66d7945b1baad48e845df3ce,,,,,,,,,,,,,,,,,,,,,1235.3102,1235.3102,1235.3107,1235.824,1,1,right,0.0056,,1235.8245,1235.8248,0,1,,1235.8251,1235.8254,0,0,,0,1235.8254,1235.8254,1235.8257,1237.3239,0,26,26,26,1,0.2,0.8,0.6,0.4,1,0,,,,,,,,,,,,,,,,,,,,,,,,,,,,,,,,,,,,
,,668946f774f64ae752e01a90,66daf5b985de1527582d9a60,2024-09-06_14h30.43.345,mdp,2024.2.1,Win32,142.8571429,66d7945b1baad48e845df3ce,,,,,,,,,,,,,,,,,,,,,1237.3241,1237.3241,1237.3245,1238.2891,1,0,right,0.4551,,1238.2896,1238.29,0,1,,1238.2903,1238.2904,0,0,,1,1238.2904,1238.2904,1238.2907,1239.7892,0,27,27,27,1,0.2,0.8,0.6,0.4,1,0,,,,,,,,,,,,,,,,,,,,,,,,,,,,,,,,,,,,
,,668946f774f64ae752e01a90,66daf5b985de1527582d9a60,2024-09-06_14h30.43.345,mdp,2024.2.1,Win32,142.8571429,66d7945b1baad48e845df3ce,,,,,,,,,,,,,,,,,,,,,1239.7894,1239.7894,1239.7898,1240.4489,1,0,right,0.1497,,1240.4495,1240.4499,0,0,,1240.4502,1240.4503,0,1,,1,1240.4503,1240.4503,1240.4504,1241.9489,0,28,28,28,1,0.2,0.8,0.6,0.4,1,0,,,,,,,,,,,,,,,,,,,,,,,,,,,,,,,,,,,,
,,668946f774f64ae752e01a90,66daf5b985de1527582d9a60,2024-09-06_14h30.43.345,mdp,2024.2.1,Win32,142.8571429,66d7945b1baad48e845df3ce,,,,,,,,,,,,,,,,,,,,,1241.9492,1241.9492,1241.9497,1242.7476,1,0,right,0.286,,1242.748,1242.7483,0,1,,1242.7486,1242.7487,0,1,,1,1242.7487,1242.7487,1242.7489,1244.2475,0,29,29,29,1,0.8,0.2,0.4,0.6,1,0,,,,,,,,,,,,,,,,,,,,,,,,,,,,,,,,,,,,
,,668946f774f64ae752e01a90,66daf5b985de1527582d9a60,2024-09-06_14h30.43.345,mdp,2024.2.1,Win32,142.8571429,66d7945b1baad48e845df3ce,,,,,,,,,,,,,,,,,,,,,1244.2476,1244.2476,1244.248,1244.9628,1,1,right,0.2094,,1244.9634,1244.9636,0,1,,1244.9638,1244.964,0,1,,0,1244.964,1244.964,1244.9641,1246.4627,0,30,30,30,1,0.8,0.2,0.4,0.6,1,0,,,,,,,,,,,,,,,,,,,,,,,,,,,,,,,,,,,,
,,668946f774f64ae752e01a90,66daf5b985de1527582d9a60,2024-09-06_14h30.43.345,mdp,2024.2.1,Win32,142.8571429,66d7945b1baad48e845df3ce,,,,,,,,,,,,,,,,,,,,,1246.4628,1246.4628,1246.4634,1247.2752,1,1,right,0.3,,1247.2756,1247.276,0,1,,1247.2763,1247.2765,0,1,,0,1247.2765,1247.2765,1247.2766,1248.7754,0,31,31,31,1,0.8,0.2,0.4,0.6,1,0,,,,,,,,,,,,,,,,,,,,,,,,,,,,,,,,,,,,
,,668946f774f64ae752e01a90,66daf5b985de1527582d9a60,2024-09-06_14h30.43.345,mdp,2024.2.1,Win32,142.8571429,66d7945b1baad48e845df3ce,,,,,,,,,,,,,,,,,,,,,1248.7756,1248.7756,1248.776,1250.06,1,1,right,0.7721,,1250.0605,1250.0609,0,0,,1250.0612,1250.0613,0,1,,0,1250.0613,1250.0613,1250.0615,1251.5605,0,32,32,32,1,0.8,0.2,0.4,0.6,1,0,,,,,,,,,,,,,,,,,,,,,,,,,,,,,,,,,,,,
,,668946f774f64ae752e01a90,66daf5b985de1527582d9a60,2024-09-06_14h30.43.345,mdp,2024.2.1,Win32,142.8571429,66d7945b1baad48e845df3ce,,,,,,,,,,,,,,,,,,,,,1251.5607,1251.5607,1251.5614,1252.2406,0,0,left,0.1712,,1252.2411,1252.2414,0,1,,1252.2417,1252.2418,0,0,,1,1252.2418,1252.2418,1252.242,1253.7405,0,33,33,33,1,0.8,0.2,0.4,0.6,1,0,,,,,,,,,,,,,,,,,,,,,,,,,,,,,,,,,,,,
,,668946f774f64ae752e01a90,66daf5b985de1527582d9a60,2024-09-06_14h30.43.345,mdp,2024.2.1,Win32,142.8571429,66d7945b1baad48e845df3ce,,,,,,,,,,,,,,,,,,,,,1253.7407,1253.7407,1253.7412,1254.3863,0,0,left,0.1347,,1254.3867,1254.3871,0,0,,1254.3875,1254.3876,0,0,,1,1254.3876,1254.3876,1254.3878,1255.8863,0,34,34,34,1,0.8,0.2,0.4,0.6,1,0,,,,,,,,,,,,,,,,,,,,,,,,,,,,,,,,,,,,
,,668946f774f64ae752e01a90,66daf5b985de1527582d9a60,2024-09-06_14h30.43.345,mdp,2024.2.1,Win32,142.8571429,66d7945b1baad48e845df3ce,,,,,,,,,,,,,,,,,,,,,1255.8864,1255.8864,1255.8869,1256.5391,0,0,left,0.1479,,1256.5396,1256.5398,0,0,,1256.5401,1256.5402,0,1,,1,1256.5403,1256.5403,1256.5404,1258.0394,0,35,35,35,1,0.8,0.2,0.4,0.6,1,0,,,,,,,,,,,,,,,,,,,,,,,,,,,,,,,,,,,,
,,668946f774f64ae752e01a90,66daf5b985de1527582d9a60,2024-09-06_14h30.43.345,mdp,2024.2.1,Win32,142.8571429,66d7945b1baad48e845df3ce,,,,,,,,,,,,,,,,,,,,,1258.0395,1258.0395,1258.0401,1258.7545,0,0,left,0.204,,1258.7549,1258.7551,0,1,,1258.7553,1258.7556,0,0,,1,1258.7556,1258.7556,1258.7557,1260.2544,0,36,36,36,1,0.8,0.2,0.4,0.6,1,0,,,,,,,,,,,,,,,,,,,,,,,,,,,,,,,,,,,,
,,668946f774f64ae752e01a90,66daf5b985de1527582d9a60,2024-09-06_14h30.43.345,mdp,2024.2.1,Win32,142.8571429,66d7945b1baad48e845df3ce,,,,,,,,,,,,,,,,,,,,,1260.2545,1260.2545,1260.2549,1260.8932,0,0,left,0.1257,,1260.8937,1260.894,0,0,,1260.8943,1260.8945,0,0,,1,1260.8945,1260.8945,1260.8946,1262.3934,0,37,37,37,1,0.8,0.2,0.4,0.6,1,0,,,,,,,,,,,,,,,,,,,,,,,,,,,,,,,,,,,,
,,668946f774f64ae752e01a90,66daf5b985de1527582d9a60,2024-09-06_14h30.43.345,mdp,2024.2.1,Win32,142.8571429,66d7945b1baad48e845df3ce,,,,,,,,,,,,,,,,,,,,,1262.3936,1262.3936,1262.3941,1263.1015,0,0,left,0.1951,,1263.1021,1263.1025,0,0,,1263.1027,1263.1029,0,0,,1,1263.1029,1263.1029,1263.103,1264.6015,0,38,38,38,1,0.4,0.6,0.8,0.2,1,0,,,,,,,,,,,,,,,,,,,,,,,,,,,,,,,,,,,,
,,668946f774f64ae752e01a90,66daf5b985de1527582d9a60,2024-09-06_14h30.43.345,mdp,2024.2.1,Win32,142.8571429,66d7945b1baad48e845df3ce,,,,,,,,,,,,,,,,,,,,,1264.6017,1264.6017,1264.6021,1265.3931,0,1,left,0.2814,,1265.3937,1265.3939,0,1,,1265.3942,1265.3943,0,0,,0,1265.3943,1265.3943,1265.3945,1266.8935,0,39,39,39,1,0.4,0.6,0.8,0.2,1,0,,,,,,,,,,,,,,,,,,,,,,,,,,,,,,,,,,,,
,,668946f774f64ae752e01a90,66daf5b985de1527582d9a60,2024-09-06_14h30.43.345,mdp,2024.2.1,Win32,142.8571429,66d7945b1baad48e845df3ce,,,,,,,,,,,,,,,,,,,,,1266.8937,1266.8937,1266.8942,1267.6015,1,0,right,0.1977,,1267.6019,1267.6024,0,0,,1267.6026,1267.6027,0,1,,1,1267.6027,1267.6027,1267.6028,1269.1016,0,40,40,40,1,0.4,0.6,0.8,0.2,1,0,,,,,,,,,,,,,,,,,,,,,,,,,,,,,,,,,,,,
