init_exp.started,init_exp.stopped,participant,session,date,expName,psychopyVersion,OS,frameRate,study_id,disp_instruction.started,disp_instruction.stopped,instruction.thisRepN,instruction.thisTrialN,instruction.thisN,instruction.thisIndex,instruction.ran,instimg_path,consent.started,consent.stopped,key_resp_3.keys,key_resp_3.rt,key_resp_3.duration,n_steps,sequence_path,init_block.started,init_block.stopped,key_resp.keys,key_resp.rt,key_resp.duration,init_trials.started,init_trials.stopped,step0.started,step0.stopped,act0,s1,res0.keys,res0.rt,res0.duration,step1.started,step1.stopped,act1,s2,res1.keys,step2.started,step2.stopped,act2,s3,res2.keys,rew,reward_comp.started,reward_comp.stopped,reward_disp.started,reward_disp.stopped,trials.thisRepN,trials.thisTrialN,trials.thisN,trials.thisIndex,trials.ran,s00a0s10,s00a0s11,s00a1s10,s00a1s11,rew10,rew11,break_block.started,break_block.stopped,block.thisRepN,block.thisTrialN,block.thisN,block.thisIndex,block.ran,s00path,s10path,s11path,s20path,s21path,res1.rt,res1.duration,s10a0s20,s10a0s21,s10a1s20,s10a1s21,s11a0s20,s11a0s21,s11a1s20,s11a1s21,rew20,rew21,res2.rt,res2.duration,s20a0s30,s20a0s31,s20a1s30,s20a1s31,s21a0s30,s21a0s31,s21a1s30,s21a1s31,rew30,rew31
0.0002,0.0014,668bf5474a2939ef58354d28,66daf5c8293a61708caf6c4b,2024-09-06_13h32.12.162,mdp,2024.2.1,Win32,60.60606061,66d7945b1baad48e845df3ce,,,,,,,,,,,,,,,,,,,,,,,,,,,,,,,,,,,,,,,,,,,,,,,,,,,,,,,,,,,,,,,,,,,,,,,,,,,,,,,,,,,,,,,,,,,
,,668bf5474a2939ef58354d28,66daf5c8293a61708caf6c4b,2024-09-06_13h32.12.162,mdp,2024.2.1,Win32,60.60606061,66d7945b1baad48e845df3ce,0.0068,24.5592,0,0,0,0,1,rlnn_exp/rlnn_exp.001.png,,,,,,,,,,,,,,,,,,,,,,,,,,,,,,,,,,,,,,,,,,,,,,,,,,,,,,,,,,,,,,,,,,,,,,,,,,,,,,,,,,,
,,668bf5474a2939ef58354d28,66daf5c8293a61708caf6c4b,2024-09-06_13h32.12.162,mdp,2024.2.1,Win32,60.60606061,66d7945b1baad48e845df3ce,24.5599,63.3032,0,1,1,1,1,rlnn_exp/rlnn_exp.002.png,,,,,,,,,,,,,,,,,,,,,,,,,,,,,,,,,,,,,,,,,,,,,,,,,,,,,,,,,,,,,,,,,,,,,,,,,,,,,,,,,,,
,,668bf5474a2939ef58354d28,66daf5c8293a61708caf6c4b,2024-09-06_13h32.12.162,mdp,2024.2.1,Win32,60.60606061,66d7945b1baad48e845df3ce,63.331,93.6218,0,2,2,2,1,rlnn_exp/rlnn_exp.003.png,,,,,,,,,,,,,,,,,,,,,,,,,,,,,,,,,,,,,,,,,,,,,,,,,,,,,,,,,,,,,,,,,,,,,,,,,,,,,,,,,,,
,,668bf5474a2939ef58354d28,66daf5c8293a61708caf6c4b,2024-09-06_13h32.12.162,mdp,2024.2.1,Win32,60.60606061,66d7945b1baad48e845df3ce,93.6377,134.8576,0,3,3,3,1,rlnn_exp/rlnn_exp.004.png,,,,,,,,,,,,,,,,,,,,,,,,,,,,,,,,,,,,,,,,,,,,,,,,,,,,,,,,,,,,,,,,,,,,,,,,,,,,,,,,,,,
,,668bf5474a2939ef58354d28,66daf5c8293a61708caf6c4b,2024-09-06_13h32.12.162,mdp,2024.2.1,Win32,60.60606061,66d7945b1baad48e845df3ce,,,,,,,,,134.8685,191.2468,y,46.3523,,,,,,,,,,,,,,,,,,,,,,,,,,,,,,,,,,,,,,,,,,,,,,,,,,,,,,,,,,,,,,,,,,,,,,,,,,,,,,,
,,668bf5474a2939ef58354d28,66daf5c8293a61708caf6c4b,2024-09-06_13h32.12.162,mdp,2024.2.1,Win32,60.60606061,66d7945b1baad48e845df3ce,,,,,,,,,,,,,,1,seqs/st1seq46.csv,191.2728,199.8649,space,8.0679,,199.8988,199.8992,199.9,233.0518,1,0,right,32.6066,,233.0815,233.0842,,1,,233.0848,233.0867,,0,,1,233.0869,233.0872,233.0877,234.583,0,0,0,0,1,0.4,0.6,0.6,0.4,1,0,,,,,,,,,,,,,,,,,,,,,,,,,,,,,,,,,,,,
,,668bf5474a2939ef58354d28,66daf5c8293a61708caf6c4b,2024-09-06_13h32.12.162,mdp,2024.2.1,Win32,60.60606061,66d7945b1baad48e845df3ce,,,,,,,,,,,,,,,,,,,,,234.5849,234.5851,234.5886,247.5832,1,0,right,12.4671,,247.6003,247.602,,0,,247.6031,247.6053,,0,,1,247.6054,247.6054,247.6065,249.0994,0,1,1,1,1,0.8,0.2,0.8,0.2,1,0,,,,,,,,,,,,,,,,,,,,,,,,,,,,,,,,,,,,
,,668bf5474a2939ef58354d28,66daf5c8293a61708caf6c4b,2024-09-06_13h32.12.162,mdp,2024.2.1,Win32,60.60606061,66d7945b1baad48e845df3ce,,,,,,,,,,,,,,,,,,,,,249.1,249.1001,249.1024,253.5009,1,0,right,3.8685,,253.5272,253.5287,,0,,253.5302,253.5314,,0,,1,253.5315,253.5315,253.533,255.0225,0,2,2,2,1,0.8,0.2,0.8,0.2,1,0,,,,,,,,,,,,,,,,,,,,,,,,,,,,,,,,,,,,
,,668bf5474a2939ef58354d28,66daf5c8293a61708caf6c4b,2024-09-06_13h32.12.162,mdp,2024.2.1,Win32,60.60606061,66d7945b1baad48e845df3ce,,,,,,,,,,,,,,,,,,,,,255.024,255.0241,255.0303,263.1509,1,0,right,7.598,,263.1714,263.1722,,0,,263.1732,263.174,,1,,1,263.174,263.174,263.1748,264.6679,0,3,3,3,1,0.8,0.2,0.8,0.2,1,0,,,,,,,,,,,,,,,,,,,,,,,,,,,,,,,,,,,,
,,668bf5474a2939ef58354d28,66daf5c8293a61708caf6c4b,2024-09-06_13h32.12.162,mdp,2024.2.1,Win32,60.60606061,66d7945b1baad48e845df3ce,,,,,,,,,,,,,,,,,,,,,264.6692,264.6693,264.6723,267.2683,1,0,right,2.0682,,267.2981,267.2996,,0,,267.3015,267.303,,0,,1,267.3032,267.3032,267.3045,268.8012,0,4,4,4,1,0.8,0.2,0.8,0.2,1,0,,,,,,,,,,,,,,,,,,,,,,,,,,,,,,,,,,,,
,,668bf5474a2939ef58354d28,66daf5c8293a61708caf6c4b,2024-09-06_13h32.12.162,mdp,2024.2.1,Win32,60.60606061,66d7945b1baad48e845df3ce,,,,,,,,,,,,,,,,,,,,,268.802,268.802,268.8052,270.1186,1,0,right,0.7827,,270.1218,270.1243,,0,,270.1264,270.1278,,0,,1,270.1279,270.1279,270.1291,271.6183,0,5,5,5,1,0.8,0.2,0.8,0.2,1,0,,,,,,,,,,,,,,,,,,,,,,,,,,,,,,,,,,,,
,,668bf5474a2939ef58354d28,66daf5c8293a61708caf6c4b,2024-09-06_13h32.12.162,mdp,2024.2.1,Win32,60.60606061,66d7945b1baad48e845df3ce,,,,,,,,,,,,,,,,,,,,,271.6199,271.62,271.6245,272.7185,1,1,right,0.5691,,272.7222,272.7252,,0,,272.7269,272.728,,0,,0,272.7281,272.7282,272.7294,274.2179,0,6,6,6,1,0.8,0.2,0.8,0.2,1,0,,,,,,,,,,,,,,,,,,,,,,,,,,,,,,,,,,,,
,,668bf5474a2939ef58354d28,66daf5c8293a61708caf6c4b,2024-09-06_13h32.12.162,mdp,2024.2.1,Win32,60.60606061,66d7945b1baad48e845df3ce,,,,,,,,,,,,,,,,,,,,,274.2184,274.2185,274.2209,275.9849,1,0,right,1.2386,,275.9861,275.9875,,0,,275.9883,275.9905,,0,,1,275.9907,275.9907,275.9918,277.4856,0,7,7,7,1,0.8,0.2,0.8,0.2,1,0,,,,,,,,,,,,,,,,,,,,,,,,,,,,,,,,,,,,
,,668bf5474a2939ef58354d28,66daf5c8293a61708caf6c4b,2024-09-06_13h32.12.162,mdp,2024.2.1,Win32,60.60606061,66d7945b1baad48e845df3ce,,,,,,,,,,,,,,,,,,,,,277.4868,277.487,277.4901,279.952,1,0,right,1.9312,,279.9546,279.9555,,0,,279.9586,279.9596,,0,,1,279.9596,279.9596,279.9604,281.4526,0,8,8,8,1,0.8,0.2,0.8,0.2,1,0,,,,,,,,,,,,,,,,,,,,,,,,,,,,,,,,,,,,
,,668bf5474a2939ef58354d28,66daf5c8293a61708caf6c4b,2024-09-06_13h32.12.162,mdp,2024.2.1,Win32,60.60606061,66d7945b1baad48e845df3ce,,,,,,,,,,,,,,,,,,,,,281.4538,281.4539,281.4575,282.8028,1,0,right,0.8218,,282.806,282.8085,,0,,282.8105,282.812,,0,,1,282.8121,282.8122,282.8137,284.3027,0,9,9,9,1,0.8,0.2,0.8,0.2,1,0,,,,,,,,,,,,,,,,,,,,,,,,,,,,,,,,,,,,
,,668bf5474a2939ef58354d28,66daf5c8293a61708caf6c4b,2024-09-06_13h32.12.162,mdp,2024.2.1,Win32,60.60606061,66d7945b1baad48e845df3ce,,,,,,,,,,,,,,,,,,,,,284.3041,284.3041,284.307,285.2359,1,1,right,0.401,,285.2388,285.2405,,1,,285.2427,285.2437,,0,,0,285.2437,285.2437,285.2447,286.7359,0,10,10,10,1,0.8,0.2,0.8,0.2,1,0,,,,,,,,,,,,,,,,,,,,,,,,,,,,,,,,,,,,
,,668bf5474a2939ef58354d28,66daf5c8293a61708caf6c4b,2024-09-06_13h32.12.162,mdp,2024.2.1,Win32,60.60606061,66d7945b1baad48e845df3ce,,,,,,,,,,,,,,,,,,,,,286.7367,286.7367,286.739,287.7859,1,0,right,0.5192,,287.7874,287.7885,,0,,287.7893,287.7917,,1,,1,287.7919,287.7919,287.7928,289.2865,0,11,11,11,1,0.8,0.2,0.8,0.2,1,0,,,,,,,,,,,,,,,,,,,,,,,,,,,,,,,,,,,,
,,668bf5474a2939ef58354d28,66daf5c8293a61708caf6c4b,2024-09-06_13h32.12.162,mdp,2024.2.1,Win32,60.60606061,66d7945b1baad48e845df3ce,,,,,,,,,,,,,,,,,,,,,289.2874,289.2875,289.2902,290.2362,1,0,right,0.4166,,290.2389,290.2402,,0,,290.2425,290.2434,,0,,1,290.2435,290.2435,290.2442,291.7362,0,12,12,12,1,0.8,0.2,0.8,0.2,1,0,,,,,,,,,,,,,,,,,,,,,,,,,,,,,,,,,,,,
,,668bf5474a2939ef58354d28,66daf5c8293a61708caf6c4b,2024-09-06_13h32.12.162,mdp,2024.2.1,Win32,60.60606061,66d7945b1baad48e845df3ce,,,,,,,,,,,,,,,,,,,,,291.737,291.737,291.7391,292.6198,1,0,right,0.348,,292.6225,292.6239,,1,,292.6264,292.6275,,0,,1,292.6276,292.6276,292.6284,294.1203,0,13,13,13,1,0.8,0.2,0.8,0.2,1,0,,,,,,,,,,,,,,,,,,,,,,,,,,,,,,,,,,,,
,,668bf5474a2939ef58354d28,66daf5c8293a61708caf6c4b,2024-09-06_13h32.12.162,mdp,2024.2.1,Win32,60.60606061,66d7945b1baad48e845df3ce,,,,,,,,,,,,,,,,,,,,,294.1221,294.1221,294.1259,296.2207,1,0,right,1.5648,,296.2237,296.2259,,1,,296.2278,296.2288,,0,,1,296.2289,296.2289,296.2301,297.7198,0,14,14,14,1,0.8,0.2,0.8,0.2,1,0,,,,,,,,,,,,,,,,,,,,,,,,,,,,,,,,,,,,
,,668bf5474a2939ef58354d28,66daf5c8293a61708caf6c4b,2024-09-06_13h32.12.162,mdp,2024.2.1,Win32,60.60606061,66d7945b1baad48e845df3ce,,,,,,,,,,,,,,,,,,,,,297.7203,297.7204,297.7225,301.0368,1,1,right,2.7879,,301.0391,301.0399,,1,,301.0422,301.0438,,0,,0,301.0439,301.0439,301.0447,302.5367,0,15,15,15,1,0.6,0.4,0.2,0.8,1,0,,,,,,,,,,,,,,,,,,,,,,,,,,,,,,,,,,,,
,,668bf5474a2939ef58354d28,66daf5c8293a61708caf6c4b,2024-09-06_13h32.12.162,mdp,2024.2.1,Win32,60.60606061,66d7945b1baad48e845df3ce,,,,,,,,,,,,,,,,,,,,,302.5373,302.5373,302.5392,304.8378,1,0,right,1.764,,304.8416,304.844,,0,,304.8456,304.8468,,1,,1,304.8469,304.8469,304.8481,306.3377,0,16,16,16,1,0.6,0.4,0.2,0.8,1,0,,,,,,,,,,,,,,,,,,,,,,,,,,,,,,,,,,,,
,,668bf5474a2939ef58354d28,66daf5c8293a61708caf6c4b,2024-09-06_13h32.12.162,mdp,2024.2.1,Win32,60.60606061,66d7945b1baad48e845df3ce,,,,,,,,,,,,,,,,,,,,,306.3389,306.339,306.3427,307.6547,1,1,right,0.7892,,307.6582,307.6606,,1,,307.6627,307.6638,,1,,0,307.6639,307.6639,307.6655,309.1547,0,17,17,17,1,0.6,0.4,0.2,0.8,1,0,,,,,,,,,,,,,,,,,,,,,,,,,,,,,,,,,,,,
,,668bf5474a2939ef58354d28,66daf5c8293a61708caf6c4b,2024-09-06_13h32.12.162,mdp,2024.2.1,Win32,60.60606061,66d7945b1baad48e845df3ce,,,,,,,,,,,,,,,,,,,,,309.1559,309.1559,309.1597,313.2389,1,0,right,3.5513,,313.2694,313.2711,,1,,313.2736,313.2752,,1,,1,313.2753,313.2753,313.278,314.7717,0,18,18,18,1,0.6,0.4,0.2,0.8,1,0,,,,,,,,,,,,,,,,,,,,,,,,,,,,,,,,,,,,
,,668bf5474a2939ef58354d28,66daf5c8293a61708caf6c4b,2024-09-06_13h32.12.162,mdp,2024.2.1,Win32,60.60606061,66d7945b1baad48e845df3ce,,,,,,,,,,,,,,,,,,,,,314.7729,314.7729,314.776,322.6892,1,1,right,7.3863,,322.7248,322.7256,,1,,322.7262,322.7267,,1,,0,322.7268,322.7268,322.7273,324.2231,0,19,19,19,1,0.6,0.4,0.2,0.8,1,0,,,,,,,,,,,,,,,,,,,,,,,,,,,,,,,,,,,,
,,668bf5474a2939ef58354d28,66daf5c8293a61708caf6c4b,2024-09-06_13h32.12.162,mdp,2024.2.1,Win32,60.60606061,66d7945b1baad48e845df3ce,,,,,,,,,,,,,,,,,,,,,324.2242,324.2242,324.2266,326.3574,1,1,right,1.6071,,326.3614,326.364,,1,,326.3654,326.3669,,1,,0,326.367,326.367,326.3683,327.8557,0,20,20,20,1,0.6,0.4,0.2,0.8,1,0,,,,,,,,,,,,,,,,,,,,,,,,,,,,,,,,,,,,
,,668bf5474a2939ef58354d28,66daf5c8293a61708caf6c4b,2024-09-06_13h32.12.162,mdp,2024.2.1,Win32,60.60606061,66d7945b1baad48e845df3ce,,,,,,,,,,,,,,,,,,,,,327.8563,327.8563,327.8582,329.6402,1,0,right,1.2511,,329.6432,329.6458,,0,,329.6475,329.6489,,0,,1,329.649,329.649,329.6508,331.1401,0,21,21,21,1,0.4,0.6,0.8,0.2,1,0,,,,,,,,,,,,,,,,,,,,,,,,,,,,,,,,,,,,
,,668bf5474a2939ef58354d28,66daf5c8293a61708caf6c4b,2024-09-06_13h32.12.162,mdp,2024.2.1,Win32,60.60606061,66d7945b1baad48e845df3ce,,,,,,,,,,,,,,,,,,,,,331.1413,331.1413,331.1439,332.0241,0,1,left,0.3511,,332.0271,332.0298,,0,,332.0314,332.0326,,1,,0,332.0326,332.0327,332.0339,333.5237,0,22,22,22,1,0.4,0.6,0.8,0.2,1,0,,,,,,,,,,,,,,,,,,,,,,,,,,,,,,,,,,,,
,,668bf5474a2939ef58354d28,66daf5c8293a61708caf6c4b,2024-09-06_13h32.12.162,mdp,2024.2.1,Win32,60.60606061,66d7945b1baad48e845df3ce,,,,,,,,,,,,,,,,,,,,,333.5247,333.5248,333.527,334.3899,1,0,right,0.3352,,334.3921,334.3931,,0,,334.3959,334.3971,,0,,1,334.3972,334.3972,334.3979,335.8904,0,23,23,23,1,0.4,0.6,0.8,0.2,1,0,,,,,,,,,,,,,,,,,,,,,,,,,,,,,,,,,,,,
,,668bf5474a2939ef58354d28,66daf5c8293a61708caf6c4b,2024-09-06_13h32.12.162,mdp,2024.2.1,Win32,60.60606061,66d7945b1baad48e845df3ce,,,,,,,,,,,,,,,,,,,,,335.8915,335.8915,335.8943,338.1409,1,1,right,1.7178,,338.1442,338.1473,,0,,338.1488,338.1498,,0,,0,338.15,338.15,338.1513,339.6408,0,24,24,24,1,0.4,0.6,0.8,0.2,1,0,,,,,,,,,,,,,,,,,,,,,,,,,,,,,,,,,,,,
,,668bf5474a2939ef58354d28,66daf5c8293a61708caf6c4b,2024-09-06_13h32.12.162,mdp,2024.2.1,Win32,60.60606061,66d7945b1baad48e845df3ce,,,,,,,,,,,,,,,,,,,,,339.6422,339.6422,339.6445,340.8069,1,0,right,0.6334,,340.8091,340.8105,,0,,340.813,340.8138,,0,,1,340.8138,340.8138,340.8146,342.307,0,25,25,25,1,0.4,0.6,0.8,0.2,1,0,,,,,,,,,,,,,,,,,,,,,,,,,,,,,,,,,,,,
,,668bf5474a2939ef58354d28,66daf5c8293a61708caf6c4b,2024-09-06_13h32.12.162,mdp,2024.2.1,Win32,60.60606061,66d7945b1baad48e845df3ce,,,,,,,,,,,,,,,,,,,,,342.3076,342.3076,342.31,343.8739,1,0,right,1.0345,,343.8764,343.8776,,0,,343.88,343.8813,,0,,1,343.8813,343.8813,343.8822,345.3744,0,26,26,26,1,0.4,0.6,0.8,0.2,1,0,,,,,,,,,,,,,,,,,,,,,,,,,,,,,,,,,,,,
,,668bf5474a2939ef58354d28,66daf5c8293a61708caf6c4b,2024-09-06_13h32.12.162,mdp,2024.2.1,Win32,60.60606061,66d7945b1baad48e845df3ce,,,,,,,,,,,,,,,,,,,,,345.3752,345.3752,345.3777,346.425,1,0,right,0.5192,,346.4278,346.4302,,0,,346.4323,346.4334,,1,,1,346.4335,346.4335,346.4347,347.9237,0,27,27,27,1,0.4,0.6,0.8,0.2,1,0,,,,,,,,,,,,,,,,,,,,,,,,,,,,,,,,,,,,
,,668bf5474a2939ef58354d28,66daf5c8293a61708caf6c4b,2024-09-06_13h32.12.162,mdp,2024.2.1,Win32,60.60606061,66d7945b1baad48e845df3ce,,,,,,,,,,,,,,,,,,,,,347.9241,347.9241,347.9257,348.8573,1,0,right,0.4205,,348.8593,348.8605,,0,,348.8631,348.8648,,1,,1,348.8649,348.865,348.8657,350.3571,0,28,28,28,1,0.4,0.6,0.8,0.2,1,0,,,,,,,,,,,,,,,,,,,,,,,,,,,,,,,,,,,,
,,668bf5474a2939ef58354d28,66daf5c8293a61708caf6c4b,2024-09-06_13h32.12.162,mdp,2024.2.1,Win32,60.60606061,66d7945b1baad48e845df3ce,,,,,,,,,,,,,,,,,,,,,350.3576,350.3576,350.3593,352.5074,1,0,right,1.6176,,352.5096,352.5103,,0,,352.5136,352.5144,,0,,1,352.5144,352.5144,352.5152,354.0074,0,29,29,29,1,0.4,0.6,0.8,0.2,1,0,,,,,,,,,,,,,,,,,,,,,,,,,,,,,,,,,,,,
,,668bf5474a2939ef58354d28,66daf5c8293a61708caf6c4b,2024-09-06_13h32.12.162,mdp,2024.2.1,Win32,60.60606061,66d7945b1baad48e845df3ce,,,,,,,,,,,,,,,,,,,,,354.0079,354.0079,354.0099,357.4428,1,0,right,2.918,,357.4687,357.4697,,0,,357.4707,357.4714,,0,,1,357.4715,357.4715,357.4723,358.9751,0,30,30,30,1,0.4,0.6,0.8,0.2,1,0,,,,,,,,,,,,,,,,,,,,,,,,,,,,,,,,,,,,
,,668bf5474a2939ef58354d28,66daf5c8293a61708caf6c4b,2024-09-06_13h32.12.162,mdp,2024.2.1,Win32,60.60606061,66d7945b1baad48e845df3ce,,,,,,,,,,,,,,,,,,,,,358.9762,358.9763,358.9794,360.5422,1,0,right,1.0347,,360.5453,360.5479,,0,,360.5496,360.551,,0,,1,360.5511,360.5511,360.5525,362.0417,0,31,31,31,1,0.4,0.6,0.8,0.2,1,0,,,,,,,,,,,,,,,,,,,,,,,,,,,,,,,,,,,,
,,668bf5474a2939ef58354d28,66daf5c8293a61708caf6c4b,2024-09-06_13h32.12.162,mdp,2024.2.1,Win32,60.60606061,66d7945b1baad48e845df3ce,,,,,,,,,,,,,,,,,,,,,362.0425,362.0425,362.0447,363.4422,1,0,right,0.8655,,363.4453,363.4473,,0,,363.4494,363.4507,,0,,1,363.4508,363.4508,363.452,364.9423,0,32,32,32,1,0.4,0.6,0.8,0.2,1,0,,,,,,,,,,,,,,,,,,,,,,,,,,,,,,,,,,,,
,,668bf5474a2939ef58354d28,66daf5c8293a61708caf6c4b,2024-09-06_13h32.12.162,mdp,2024.2.1,Win32,60.60606061,66d7945b1baad48e845df3ce,,,,,,,,,,,,,,,,,,,,,364.9435,364.9436,364.9466,365.6093,1,0,right,0.1385,,365.6113,365.6121,,1,,365.614,365.6153,,0,,1,365.6154,365.6154,365.616,367.1088,0,33,33,33,1,0.4,0.6,0.8,0.2,1,0,,,,,,,,,,,,,,,,,,,,,,,,,,,,,,,,,,,,
,,668bf5474a2939ef58354d28,66daf5c8293a61708caf6c4b,2024-09-06_13h32.12.162,mdp,2024.2.1,Win32,60.60606061,66d7945b1baad48e845df3ce,,,,,,,,,,,,,,,,,,,,,367.1093,367.1094,367.1112,367.7423,1,1,right,0.1,,367.7445,367.7456,,1,,367.7477,367.7493,,1,,0,367.7493,367.7494,367.7502,369.2426,0,34,34,34,1,0.8,0.2,0.2,0.8,1,0,,,,,,,,,,,,,,,,,,,,,,,,,,,,,,,,,,,,
,,668bf5474a2939ef58354d28,66daf5c8293a61708caf6c4b,2024-09-06_13h32.12.162,mdp,2024.2.1,Win32,60.60606061,66d7945b1baad48e845df3ce,,,,,,,,,,,,,,,,,,,,,369.2432,369.2432,369.2456,370.826,1,1,right,1.0544,,370.8282,370.8291,,0,,370.8312,370.8325,,0,,0,370.8325,370.8326,370.8332,372.326,0,35,35,35,1,0.2,0.8,0.8,0.2,1,0,,,,,,,,,,,,,,,,,,,,,,,,,,,,,,,,,,,,
,,668bf5474a2939ef58354d28,66daf5c8293a61708caf6c4b,2024-09-06_13h32.12.162,mdp,2024.2.1,Win32,60.60606061,66d7945b1baad48e845df3ce,,,,,,,,,,,,,,,,,,,,,372.3268,372.3268,372.3287,373.3258,1,0,right,0.4672,,373.3271,373.3283,,0,,373.3289,373.3303,,0,,1,373.3304,373.3304,373.3319,374.8266,0,36,36,36,1,0.2,0.8,0.8,0.2,1,0,,,,,,,,,,,,,,,,,,,,,,,,,,,,,,,,,,,,
,,668bf5474a2939ef58354d28,66daf5c8293a61708caf6c4b,2024-09-06_13h32.12.162,mdp,2024.2.1,Win32,60.60606061,66d7945b1baad48e845df3ce,,,,,,,,,,,,,,,,,,,,,374.8276,374.8276,374.8299,376.6425,1,1,right,1.2852,,376.6443,376.6451,,0,,376.6469,376.6477,,0,,0,376.6478,376.6478,376.6494,378.1426,0,37,37,37,1,0.2,0.8,0.8,0.2,1,0,,,,,,,,,,,,,,,,,,,,,,,,,,,,,,,,,,,,
,,668bf5474a2939ef58354d28,66daf5c8293a61708caf6c4b,2024-09-06_13h32.12.162,mdp,2024.2.1,Win32,60.60606061,66d7945b1baad48e845df3ce,,,,,,,,,,,,,,,,,,,,,378.1431,378.1431,378.1447,379.1934,1,1,right,0.5368,,379.1955,379.1963,,0,,379.1982,379.2,,0,,0,379.2,379.2,379.2008,380.6939,0,38,38,38,1,0.2,0.8,0.8,0.2,1,0,,,,,,,,,,,,,,,,,,,,,,,,,,,,,,,,,,,,
,,668bf5474a2939ef58354d28,66daf5c8293a61708caf6c4b,2024-09-06_13h32.12.162,mdp,2024.2.1,Win32,60.60606061,66d7945b1baad48e845df3ce,,,,,,,,,,,,,,,,,,,,,380.6951,380.6951,380.6976,381.7604,1,1,right,0.5338,,381.7625,381.7642,,0,,381.7666,381.7676,,0,,0,381.7677,381.7677,381.7686,383.2603,0,39,39,39,1,0.2,0.8,0.8,0.2,1,0,,,,,,,,,,,,,,,,,,,,,,,,,,,,,,,,,,,,
,,668bf5474a2939ef58354d28,66daf5c8293a61708caf6c4b,2024-09-06_13h32.12.162,mdp,2024.2.1,Win32,60.60606061,66d7945b1baad48e845df3ce,,,,,,,,,,,,,,,,,,,,,383.261,383.261,383.2672,384.2771,1,0,right,0.4869,,384.2796,384.281,,1,,384.2833,384.2842,,0,,1,384.2842,384.2842,384.285,385.7771,0,40,40,40,1,0.2,0.8,0.8,0.2,1,0,,,,,,,,,,,,,,,,,,,,,,,,,,,,,,,,,,,,
,,668bf5474a2939ef58354d28,66daf5c8293a61708caf6c4b,2024-09-06_13h32.12.162,mdp,2024.2.1,Win32,60.60606061,66d7945b1baad48e845df3ce,,,,,,,,,,,,,,,,,,,,,385.7778,385.7778,385.7798,386.9612,1,0,right,0.6511,,386.9646,386.967,,0,,386.9688,386.9699,,0,,1,386.97,386.97,386.9712,388.4611,0,41,41,41,1,0.2,0.8,0.8,0.2,1,0,,,,,,,,,,,,,,,,,,,,,,,,,,,,,,,,,,,,
,,668bf5474a2939ef58354d28,66daf5c8293a61708caf6c4b,2024-09-06_13h32.12.162,mdp,2024.2.1,Win32,60.60606061,66d7945b1baad48e845df3ce,,,,,,,,,,,,,,,,,,,,,388.4624,388.4625,388.4651,389.2114,1,1,right,0.2185,,389.2143,389.2166,,0,,389.2185,389.2196,,0,,0,389.2197,389.2197,389.2208,390.7115,0,42,42,42,1,0.2,0.8,0.8,0.2,1,0,,,,,,,,,,,,,,,,,,,,,,,,,,,,,,,,,,,,
,,668bf5474a2939ef58354d28,66daf5c8293a61708caf6c4b,2024-09-06_13h32.12.162,mdp,2024.2.1,Win32,60.60606061,66d7945b1baad48e845df3ce,,,,,,,,,,,,,,,,,,,,,390.7128,390.7129,390.716,391.9443,1,0,right,0.7033,,391.9467,391.9475,,1,,391.9497,391.9513,,0,,1,391.9513,391.9513,391.9523,393.4439,0,43,43,43,1,0.2,0.8,0.8,0.2,1,0,,,,,,,,,,,,,,,,,,,,,,,,,,,,,,,,,,,,
,,668bf5474a2939ef58354d28,66daf5c8293a61708caf6c4b,2024-09-06_13h32.12.162,mdp,2024.2.1,Win32,60.60606061,66d7945b1baad48e845df3ce,,,,,,,,,,,,,,,,,,,,,393.4443,393.4443,393.4458,394.528,1,0,right,0.5668,,394.5304,394.532,,0,,394.5346,394.5354,,0,,1,394.5355,394.5355,394.5363,396.0281,0,44,44,44,1,0.2,0.8,0.8,0.2,1,0,,,,,,,,,,,,,,,,,,,,,,,,,,,,,,,,,,,,
,,668bf5474a2939ef58354d28,66daf5c8293a61708caf6c4b,2024-09-06_13h32.12.162,mdp,2024.2.1,Win32,60.60606061,66d7945b1baad48e845df3ce,,,,,,,,,,,,,,,,,,,,,396.0293,396.0294,396.0323,397.3291,1,0,right,0.7687,,397.3317,397.334,,0,,397.3358,397.3368,,0,,1,397.337,397.337,397.3381,398.8275,0,45,45,45,1,0.2,0.8,0.8,0.2,1,0,,,,,,,,,,,,,,,,,,,,,,,,,,,,,,,,,,,,
,,668bf5474a2939ef58354d28,66daf5c8293a61708caf6c4b,2024-09-06_13h32.12.162,mdp,2024.2.1,Win32,60.60606061,66d7945b1baad48e845df3ce,,,,,,,,,,,,,,,,,,,,,398.8282,398.8282,398.8304,400.6621,1,0,right,1.3016,,400.6648,400.6663,,1,,400.6686,400.6698,,0,,1,400.6698,400.6698,400.6709,402.1615,0,46,46,46,1,0.2,0.8,0.8,0.2,1,0,,,,,,,,,,,,,,,,,,,,,,,,,,,,,,,,,,,,
,,668bf5474a2939ef58354d28,66daf5c8293a61708caf6c4b,2024-09-06_13h32.12.162,mdp,2024.2.1,Win32,60.60606061,66d7945b1baad48e845df3ce,,,,,,,,,,,,,,,,,,,,,402.162,402.162,402.1639,403.2958,1,1,right,0.6013,,403.2987,403.301,,1,,403.3029,403.304,,0,,0,403.3041,403.3041,403.3052,404.795,0,47,47,47,1,0.8,0.2,0.4,0.6,1,0,,,,,,,,,,,,,,,,,,,,,,,,,,,,,,,,,,,,
,,668bf5474a2939ef58354d28,66daf5c8293a61708caf6c4b,2024-09-06_13h32.12.162,mdp,2024.2.1,Win32,60.60606061,66d7945b1baad48e845df3ce,,,,,,,,,,,,,,,,,,,,,404.7956,404.7956,404.7976,406.9119,1,0,right,1.5849,,406.9143,406.9151,,0,,406.9176,406.919,,1,,1,406.919,406.919,406.9197,408.4127,0,48,48,48,1,0.8,0.2,0.4,0.6,1,0,,,,,,,,,,,,,,,,,,,,,,,,,,,,,,,,,,,,
,,668bf5474a2939ef58354d28,66daf5c8293a61708caf6c4b,2024-09-06_13h32.12.162,mdp,2024.2.1,Win32,60.60606061,66d7945b1baad48e845df3ce,,,,,,,,,,,,,,,,,,,,,408.4136,408.4136,408.4161,409.7789,1,1,right,0.8343,,409.7812,409.7819,,0,,409.7836,409.7853,,1,,0,409.7854,409.7854,409.7861,411.2797,0,49,49,49,1,0.8,0.2,0.4,0.6,1,0,,,,,,,,,,,,,,,,,,,,,,,,,,,,,,,,,,,,
,,668bf5474a2939ef58354d28,66daf5c8293a61708caf6c4b,2024-09-06_13h32.12.162,mdp,2024.2.1,Win32,60.60606061,66d7945b1baad48e845df3ce,,,,,,,,,,,,,,,,,,,,,,,,,,,,,,,,,,,,,,,,,,,,,,,,,,,,,,,,411.2821,469.8007,0,0,0,8,1,imgs/goat.png,imgs/cat.png,imgs/elephant.png,imgs/dog.png,imgs/kangaroo.png,,,,,,,,,,,,,,,,,,,,,,,,
,,668bf5474a2939ef58354d28,66daf5c8293a61708caf6c4b,2024-09-06_13h32.12.162,mdp,2024.2.1,Win32,60.60606061,66d7945b1baad48e845df3ce,,,,,,,,,,,,,,2,seqs/st2seq28.csv,469.8203,474.051,space,3.7045,,474.0837,474.0837,474.0848,478.4007,1,1,right,3.7792,,478.421,491.5017,1,0,right,491.5116,491.5122,,0,,1,491.5122,491.5122,491.5129,493.0014,0,0,0,0,1,0.8,0.2,0.4,0.6,,,,,,,,,,,,,,,12.5652,,0.4,0.6,0.4,0.6,0.4,0.6,0.8,0.2,1,0,,,,,,,,,,,,
,,668bf5474a2939ef58354d28,66daf5c8293a61708caf6c4b,2024-09-06_13h32.12.162,mdp,2024.2.1,Win32,60.60606061,66d7945b1baad48e845df3ce,,,,,,,,,,,,,,,,,,,,,493.0019,493.0019,493.0038,495.2694,1,1,right,1.7513,,495.2725,496.9365,1,0,right,496.9399,496.9432,,0,,1,496.9434,496.9434,496.9459,498.4358,0,1,1,1,1,0.8,0.2,0.4,0.6,,,,,,,,,,,,,,,1.1356,,0.4,0.6,0.4,0.6,0.4,0.6,0.8,0.2,1,0,,,,,,,,,,,,
,,668bf5474a2939ef58354d28,66daf5c8293a61708caf6c4b,2024-09-06_13h32.12.162,mdp,2024.2.1,Win32,60.60606061,66d7945b1baad48e845df3ce,,,,,,,,,,,,,,,,,,,,,498.4367,498.4367,498.4387,503.2036,1,1,right,4.2356,,503.2325,504.4532,1,1,right,504.4566,504.4589,,0,,0,504.459,504.459,504.4609,505.9526,0,2,2,2,1,0.8,0.2,0.4,0.6,,,,,,,,,,,,,,,0.7181,,0.4,0.6,0.4,0.6,0.4,0.6,0.8,0.2,1,0,,,,,,,,,,,,
,,668bf5474a2939ef58354d28,66daf5c8293a61708caf6c4b,2024-09-06_13h32.12.162,mdp,2024.2.1,Win32,60.60606061,66d7945b1baad48e845df3ce,,,,,,,,,,,,,,,,,,,,,505.9535,505.9535,505.9559,508.5367,1,0,right,2.0518,,508.5403,509.5535,1,1,right,509.557,509.5591,,1,,0,509.5594,509.5594,509.5614,511.0529,0,3,3,3,1,0.8,0.2,0.4,0.6,,,,,,,,,,,,,,,0.4789,,0.4,0.6,0.4,0.6,0.4,0.6,0.8,0.2,1,0,,,,,,,,,,,,
,,668bf5474a2939ef58354d28,66daf5c8293a61708caf6c4b,2024-09-06_13h32.12.162,mdp,2024.2.1,Win32,60.60606061,66d7945b1baad48e845df3ce,,,,,,,,,,,,,,,,,,,,,511.0536,511.0537,511.0558,513.0537,0,0,left,1.4648,,513.057,514.5699,1,0,right,514.5728,514.5741,,1,,1,514.5743,514.5743,514.5768,516.0698,0,4,4,4,1,0.8,0.2,0.4,0.6,,,,,,,,,,,,,,,0.9804,,0.6,0.4,0.6,0.4,0.4,0.6,0.8,0.2,1,0,,,,,,,,,,,,
,,668bf5474a2939ef58354d28,66daf5c8293a61708caf6c4b,2024-09-06_13h32.12.162,mdp,2024.2.1,Win32,60.60606061,66d7945b1baad48e845df3ce,,,,,,,,,,,,,,,,,,,,,516.0706,516.0706,516.0728,532.0053,0,1,left,15.4022,,532.0379,535.8714,1,1,right,535.8726,535.874,,0,,0,535.874,535.8741,535.8746,537.3716,0,5,5,5,1,0.8,0.2,0.4,0.6,,,,,,,,,,,,,,,3.3314,,0.6,0.4,0.6,0.4,0.4,0.6,0.8,0.2,1,0,,,,,,,,,,,,
,,668bf5474a2939ef58354d28,66daf5c8293a61708caf6c4b,2024-09-06_13h32.12.162,mdp,2024.2.1,Win32,60.60606061,66d7945b1baad48e845df3ce,,,,,,,,,,,,,,,,,,,,,537.372,537.372,537.3738,547.5896,0,0,left,9.6902,,547.6034,556.8237,0,0,left,556.8434,556.8449,,1,,1,556.845,556.845,556.8465,558.3402,0,6,6,6,1,0.8,0.2,0.4,0.6,,,,,,,,,,,,,,,8.71,,0.6,0.4,0.6,0.4,0.4,0.6,0.8,0.2,1,0,,,,,,,,,,,,
,,668bf5474a2939ef58354d28,66daf5c8293a61708caf6c4b,2024-09-06_13h32.12.162,mdp,2024.2.1,Win32,60.60606061,66d7945b1baad48e845df3ce,,,,,,,,,,,,,,,,,,,,,558.3408,558.3408,558.3428,562.7903,0,0,left,3.9177,,562.8005,564.8413,0,0,left,564.8443,564.8464,,1,,1,564.8465,564.8465,564.8484,566.3414,0,7,7,7,1,0.8,0.2,0.4,0.6,,,,,,,,,,,,,,,1.5345,,0.6,0.4,0.6,0.4,0.4,0.6,0.8,0.2,1,0,,,,,,,,,,,,
,,668bf5474a2939ef58354d28,66daf5c8293a61708caf6c4b,2024-09-06_13h32.12.162,mdp,2024.2.1,Win32,60.60606061,66d7945b1baad48e845df3ce,,,,,,,,,,,,,,,,,,,,,566.3425,566.3426,566.3452,568.2088,0,1,left,1.3344,,568.2116,573.6922,1,0,right,573.7227,573.724,,0,,1,573.7241,573.7241,573.7261,575.2245,0,8,8,8,1,0.8,0.2,0.4,0.6,,,,,,,,,,,,,,,4.9498,,0.6,0.4,0.6,0.4,0.4,0.6,0.8,0.2,1,0,,,,,,,,,,,,
,,668bf5474a2939ef58354d28,66daf5c8293a61708caf6c4b,2024-09-06_13h32.12.162,mdp,2024.2.1,Win32,60.60606061,66d7945b1baad48e845df3ce,,,,,,,,,,,,,,,,,,,,,575.2254,575.2255,575.2276,580.7087,0,0,left,4.9517,,580.7257,583.5591,0,0,left,583.5895,583.5908,,1,,1,583.5909,583.5909,583.5927,585.0917,0,9,9,9,1,0.8,0.2,0.4,0.6,,,,,,,,,,,,,,,2.3084,,0.6,0.4,0.6,0.4,0.4,0.6,0.8,0.2,1,0,,,,,,,,,,,,
,,668bf5474a2939ef58354d28,66daf5c8293a61708caf6c4b,2024-09-06_13h32.12.162,mdp,2024.2.1,Win32,60.60606061,66d7945b1baad48e845df3ce,,,,,,,,,,,,,,,,,,,,,585.0922,585.0923,585.0941,586.576,0,0,left,0.9518,,586.5794,588.526,0,0,left,588.5295,588.5319,,0,,1,588.532,588.532,588.5335,590.0261,0,10,10,10,1,0.8,0.2,0.4,0.6,,,,,,,,,,,,,,,1.4154,,0.6,0.4,0.6,0.4,0.4,0.6,0.8,0.2,1,0,,,,,,,,,,,,
,,668bf5474a2939ef58354d28,66daf5c8293a61708caf6c4b,2024-09-06_13h32.12.162,mdp,2024.2.1,Win32,60.60606061,66d7945b1baad48e845df3ce,,,,,,,,,,,,,,,,,,,,,590.0274,590.0274,590.031,591.1596,0,0,left,0.6054,,591.1634,592.5264,0,0,left,592.5303,592.5336,,1,,1,592.5337,592.5337,592.5353,594.0264,0,11,11,11,1,0.8,0.2,0.4,0.6,,,,,,,,,,,,,,,0.8352,,0.6,0.4,0.6,0.4,0.4,0.6,0.8,0.2,1,0,,,,,,,,,,,,
,,668bf5474a2939ef58354d28,66daf5c8293a61708caf6c4b,2024-09-06_13h32.12.162,mdp,2024.2.1,Win32,60.60606061,66d7945b1baad48e845df3ce,,,,,,,,,,,,,,,,,,,,,594.0277,594.0277,594.0308,595.2267,0,0,left,0.6708,,595.2302,596.4926,0,0,left,596.494,596.4952,,1,,1,596.4952,596.4952,596.4956,597.9933,0,12,12,12,1,0.8,0.2,0.4,0.6,,,,,,,,,,,,,,,0.7346,,0.6,0.4,0.6,0.4,0.4,0.6,0.8,0.2,1,0,,,,,,,,,,,,
,,668bf5474a2939ef58354d28,66daf5c8293a61708caf6c4b,2024-09-06_13h32.12.162,mdp,2024.2.1,Win32,60.60606061,66d7945b1baad48e845df3ce,,,,,,,,,,,,,,,,,,,,,597.9946,597.9946,597.9974,599.0929,0,0,left,0.5661,,599.0949,600.5609,0,1,left,600.5639,600.566,,0,,0,600.5661,600.5661,600.5681,602.0603,0,13,13,13,1,0.8,0.2,0.4,0.6,,,,,,,,,,,,,,,0.9521,,0.6,0.4,0.6,0.4,0.8,0.2,0.6,0.4,1,0,,,,,,,,,,,,
,,668bf5474a2939ef58354d28,66daf5c8293a61708caf6c4b,2024-09-06_13h32.12.162,mdp,2024.2.1,Win32,60.60606061,66d7945b1baad48e845df3ce,,,,,,,,,,,,,,,,,,,,,602.0617,602.0618,602.0647,603.3772,0,0,left,0.7864,,603.381,608.2437,0,0,left,608.2535,608.2539,,1,,1,608.254,608.254,608.2545,609.7435,0,14,14,14,1,0.8,0.2,0.4,0.6,,,,,,,,,,,,,,,4.3309,,0.6,0.4,0.6,0.4,0.8,0.2,0.6,0.4,1,0,,,,,,,,,,,,
,,668bf5474a2939ef58354d28,66daf5c8293a61708caf6c4b,2024-09-06_13h32.12.162,mdp,2024.2.1,Win32,60.60606061,66d7945b1baad48e845df3ce,,,,,,,,,,,,,,,,,,,,,609.7441,609.7442,609.7462,611.2613,0,1,left,0.9824,,611.2647,614.5446,1,0,right,614.5476,614.5494,,0,,1,614.5498,614.5498,614.5525,616.0445,0,15,15,15,1,0.2,0.8,0.2,0.8,,,,,,,,,,,,,,,2.7417,,0.6,0.4,0.6,0.4,0.8,0.2,0.6,0.4,1,0,,,,,,,,,,,,
,,668bf5474a2939ef58354d28,66daf5c8293a61708caf6c4b,2024-09-06_13h32.12.162,mdp,2024.2.1,Win32,60.60606061,66d7945b1baad48e845df3ce,,,,,,,,,,,,,,,,,,,,,616.0455,616.0455,616.0485,617.311,0,1,left,0.7305,,617.3131,618.5117,1,0,right,618.5155,618.5178,,0,,1,618.518,618.518,618.52,620.0117,0,16,16,16,1,0.2,0.8,0.2,0.8,,,,,,,,,,,,,,,0.6856,,0.6,0.4,0.6,0.4,0.8,0.2,0.6,0.4,1,0,,,,,,,,,,,,
,,668bf5474a2939ef58354d28,66daf5c8293a61708caf6c4b,2024-09-06_13h32.12.162,mdp,2024.2.1,Win32,60.60606061,66d7945b1baad48e845df3ce,,,,,,,,,,,,,,,,,,,,,620.0129,620.0129,620.0157,621.0956,0,1,left,0.5481,,621.0985,622.2454,1,0,right,622.2489,622.2513,,1,,1,622.2514,622.2514,622.2533,623.7453,0,17,17,17,1,0.2,0.8,0.2,0.8,,,,,,,,,,,,,,,0.6199,,0.6,0.4,0.6,0.4,0.8,0.2,0.6,0.4,1,0,,,,,,,,,,,,
,,668bf5474a2939ef58354d28,66daf5c8293a61708caf6c4b,2024-09-06_13h32.12.162,mdp,2024.2.1,Win32,60.60606061,66d7945b1baad48e845df3ce,,,,,,,,,,,,,,,,,,,,,623.7466,623.7466,623.7497,624.7783,0,0,left,0.497,,624.781,626.6124,0,1,left,626.6161,626.6185,,0,,0,626.6187,626.6187,626.6205,628.1124,0,18,18,18,1,0.2,0.8,0.2,0.8,,,,,,,,,,,,,,,1.3075,,0.6,0.4,0.6,0.4,0.8,0.2,0.6,0.4,1,0,,,,,,,,,,,,
,,668bf5474a2939ef58354d28,66daf5c8293a61708caf6c4b,2024-09-06_13h32.12.162,mdp,2024.2.1,Win32,60.60606061,66d7945b1baad48e845df3ce,,,,,,,,,,,,,,,,,,,,,628.1137,628.1137,628.1167,628.9798,0,0,left,0.3352,,628.9832,630.646,0,1,left,630.6494,630.6518,,0,,0,630.652,630.652,630.6538,632.1454,0,19,19,19,1,0.4,0.6,0.4,0.6,,,,,,,,,,,,,,,1.1344,,0.6,0.4,0.6,0.4,0.8,0.2,0.6,0.4,1,0,,,,,,,,,,,,
,,668bf5474a2939ef58354d28,66daf5c8293a61708caf6c4b,2024-09-06_13h32.12.162,mdp,2024.2.1,Win32,60.60606061,66d7945b1baad48e845df3ce,,,,,,,,,,,,,,,,,,,,,632.1459,632.1459,632.1478,632.7457,0,1,left,0.0646,,632.748,633.7288,1,0,right,633.7305,633.7316,,1,,1,633.7316,633.7316,633.7321,635.2293,0,20,20,20,1,0.4,0.6,0.4,0.6,,,,,,,,,,,,,,,0.4482,,0.6,0.4,0.6,0.4,0.8,0.2,0.6,0.4,1,0,,,,,,,,,,,,
,,668bf5474a2939ef58354d28,66daf5c8293a61708caf6c4b,2024-09-06_13h32.12.162,mdp,2024.2.1,Win32,60.60606061,66d7945b1baad48e845df3ce,,,,,,,,,,,,,,,,,,,,,635.2304,635.2305,635.2331,636.2798,0,0,left,0.5147,,636.2836,637.1965,1,1,right,637.2019,637.2043,,0,,0,637.2044,637.2044,637.2059,638.6964,0,21,21,21,1,0.4,0.6,0.4,0.6,,,,,,,,,,,,,,,0.3802,,0.6,0.4,0.6,0.4,0.8,0.2,0.6,0.4,1,0,,,,,,,,,,,,
,,668bf5474a2939ef58354d28,66daf5c8293a61708caf6c4b,2024-09-06_13h32.12.162,mdp,2024.2.1,Win32,60.60606061,66d7945b1baad48e845df3ce,,,,,,,,,,,,,,,,,,,,,638.6978,638.6978,638.7004,639.4967,0,0,left,0.2654,,639.5002,640.4963,0,0,left,640.4992,640.5002,,0,,1,640.5004,640.5004,640.5027,641.9967,0,22,22,22,1,0.4,0.6,0.4,0.6,,,,,,,,,,,,,,,0.4685,,0.6,0.4,0.6,0.4,0.8,0.2,0.6,0.4,1,0,,,,,,,,,,,,
,,668bf5474a2939ef58354d28,66daf5c8293a61708caf6c4b,2024-09-06_13h32.12.162,mdp,2024.2.1,Win32,60.60606061,66d7945b1baad48e845df3ce,,,,,,,,,,,,,,,,,,,,,641.998,641.9981,642.0012,643.014,0,0,left,0.5015,,643.0158,643.9469,0,0,left,643.9495,643.9521,,1,,1,643.9522,643.9522,643.9536,645.4466,0,23,23,23,1,0.4,0.6,0.4,0.6,,,,,,,,,,,,,,,0.4039,,0.6,0.4,0.6,0.4,0.8,0.2,0.6,0.4,1,0,,,,,,,,,,,,
,,668bf5474a2939ef58354d28,66daf5c8293a61708caf6c4b,2024-09-06_13h32.12.162,mdp,2024.2.1,Win32,60.60606061,66d7945b1baad48e845df3ce,,,,,,,,,,,,,,,,,,,,,645.4471,645.4471,645.4492,645.9982,0,0,left,0.0181,,646.0012,647.064,0,1,left,647.0666,647.0676,,1,,0,647.0678,647.0678,647.0701,648.5634,0,24,24,24,1,0.4,0.6,0.4,0.6,,,,,,,,,,,,,,,0.534,,0.6,0.4,0.6,0.4,0.8,0.2,0.6,0.4,1,0,,,,,,,,,,,,
,,668bf5474a2939ef58354d28,66daf5c8293a61708caf6c4b,2024-09-06_13h32.12.162,mdp,2024.2.1,Win32,60.60606061,66d7945b1baad48e845df3ce,,,,,,,,,,,,,,,,,,,,,648.5639,648.5639,648.566,652.2985,0,0,left,3.2025,,652.3283,656.7639,0,1,left,656.7747,656.7753,,0,,0,656.7754,656.7754,656.7758,658.2642,0,25,25,25,1,0.4,0.6,0.4,0.6,,,,,,,,,,,,,,,3.9354,,0.6,0.4,0.6,0.4,0.8,0.2,0.6,0.4,1,0,,,,,,,,,,,,
,,668bf5474a2939ef58354d28,66daf5c8293a61708caf6c4b,2024-09-06_13h32.12.162,mdp,2024.2.1,Win32,60.60606061,66d7945b1baad48e845df3ce,,,,,,,,,,,,,,,,,,,,,658.2651,658.2651,658.2678,662.7645,0,0,left,3.9679,,662.7818,666.8822,1,0,right,666.9119,666.9132,,0,,1,666.9133,666.9133,666.9149,668.4153,0,26,26,26,1,0.4,0.6,0.4,0.6,,,,,,,,,,,,,,,3.5986,,0.4,0.6,0.2,0.8,0.8,0.2,0.6,0.4,1,0,,,,,,,,,,,,
,,668bf5474a2939ef58354d28,66daf5c8293a61708caf6c4b,2024-09-06_13h32.12.162,mdp,2024.2.1,Win32,60.60606061,66d7945b1baad48e845df3ce,,,,,,,,,,,,,,,,,,,,,668.4167,668.4167,668.4196,669.0653,0,1,left,0.1165,,669.0682,669.8486,1,0,right,669.8514,669.8524,,0,,1,669.8525,669.8525,669.8548,671.3483,0,27,27,27,1,0.4,0.6,0.4,0.6,,,,,,,,,,,,,,,0.244,,0.4,0.6,0.2,0.8,0.8,0.2,0.6,0.4,1,0,,,,,,,,,,,,
,,668bf5474a2939ef58354d28,66daf5c8293a61708caf6c4b,2024-09-06_13h32.12.162,mdp,2024.2.1,Win32,60.60606061,66d7945b1baad48e845df3ce,,,,,,,,,,,,,,,,,,,,,671.3488,671.3488,671.3506,672.2993,0,1,left,0.4174,,672.3026,672.9321,1,1,right,672.9347,672.9355,,0,,0,672.9355,672.9355,672.9373,674.4325,0,28,28,28,1,0.4,0.6,0.4,0.6,,,,,,,,,,,,,,,0.0971,,0.4,0.6,0.2,0.8,0.8,0.2,0.6,0.4,1,0,,,,,,,,,,,,
,,668bf5474a2939ef58354d28,66daf5c8293a61708caf6c4b,2024-09-06_13h32.12.162,mdp,2024.2.1,Win32,60.60606061,66d7945b1baad48e845df3ce,,,,,,,,,,,,,,,,,,,,,674.4339,674.434,674.4368,675.2661,0,1,left,0.3005,,675.2694,676.0331,1,1,right,676.0362,676.0383,,0,,0,676.0385,676.0386,676.0404,677.5327,0,29,29,29,1,0.4,0.6,0.4,0.6,,,,,,,,,,,,,,,0.2323,,0.4,0.6,0.2,0.8,0.8,0.2,0.6,0.4,1,0,,,,,,,,,,,,
,,668bf5474a2939ef58354d28,66daf5c8293a61708caf6c4b,2024-09-06_13h32.12.162,mdp,2024.2.1,Win32,60.60606061,66d7945b1baad48e845df3ce,,,,,,,,,,,,,,,,,,,,,677.5341,677.5341,677.5367,678.5492,0,1,left,0.4815,,678.551,679.2833,0,0,left,679.2868,679.2891,,0,,1,679.2892,679.2892,679.2914,680.7827,0,30,30,30,1,0.4,0.6,0.4,0.6,,,,,,,,,,,,,,,0.1982,,0.4,0.6,0.2,0.8,0.8,0.2,0.6,0.4,1,0,,,,,,,,,,,,
,,668bf5474a2939ef58354d28,66daf5c8293a61708caf6c4b,2024-09-06_13h32.12.162,mdp,2024.2.1,Win32,60.60606061,66d7945b1baad48e845df3ce,,,,,,,,,,,,,,,,,,,,,680.7835,680.7835,680.7857,681.6331,0,0,left,0.3147,,681.6368,682.183,0,1,left,682.1856,682.1867,,0,,0,682.1868,682.1868,682.1891,683.6833,0,31,31,31,1,0.4,0.6,0.4,0.6,,,,,,,,,,,,,,,0.0104,,0.4,0.6,0.2,0.8,0.8,0.2,0.6,0.4,1,0,,,,,,,,,,,,
,,668bf5474a2939ef58354d28,66daf5c8293a61708caf6c4b,2024-09-06_13h32.12.162,mdp,2024.2.1,Win32,60.60606061,66d7945b1baad48e845df3ce,,,,,,,,,,,,,,,,,,,,,683.6845,683.6846,683.6871,684.5502,0,1,left,0.3342,,684.5536,685.8665,1,0,right,685.8691,685.8701,,0,,1,685.8702,685.8702,685.8719,687.3666,0,32,32,32,1,0.4,0.6,0.4,0.6,,,,,,,,,,,,,,,0.7791,,0.4,0.6,0.2,0.8,0.8,0.2,0.6,0.4,1,0,,,,,,,,,,,,
,,668bf5474a2939ef58354d28,66daf5c8293a61708caf6c4b,2024-09-06_13h32.12.162,mdp,2024.2.1,Win32,60.60606061,66d7945b1baad48e845df3ce,,,,,,,,,,,,,,,,,,,,,687.3678,687.3679,687.3708,688.3174,0,1,left,0.4225,,688.3209,689.8839,1,0,right,689.8872,689.8895,,0,,1,689.8898,689.8898,689.8917,691.3839,0,33,33,33,1,0.6,0.4,0.2,0.8,,,,,,,,,,,,,,,1.0328,,0.4,0.6,0.2,0.8,0.8,0.2,0.6,0.4,1,0,,,,,,,,,,,,
,,668bf5474a2939ef58354d28,66daf5c8293a61708caf6c4b,2024-09-06_13h32.12.162,mdp,2024.2.1,Win32,60.60606061,66d7945b1baad48e845df3ce,,,,,,,,,,,,,,,,,,,,,691.3853,691.3853,691.3884,693.0009,0,1,left,1.0848,,693.0043,694.7005,1,0,right,694.7022,694.7034,,0,,1,694.7034,694.7034,694.7056,696.2009,0,34,34,34,1,0.6,0.4,0.2,0.8,,,,,,,,,,,,,,,1.1667,,0.4,0.6,0.2,0.8,0.8,0.2,0.6,0.4,1,0,,,,,,,,,,,,
,,668bf5474a2939ef58354d28,66daf5c8293a61708caf6c4b,2024-09-06_13h32.12.162,mdp,2024.2.1,Win32,60.60606061,66d7945b1baad48e845df3ce,,,,,,,,,,,,,,,,,,,,,696.2022,696.2022,696.2053,697.1682,0,1,left,0.4425,,697.1718,698.1179,1,0,right,698.1215,698.124,,1,,1,698.1241,698.1241,698.1258,699.6178,0,35,35,35,1,0.6,0.4,0.2,0.8,,,,,,,,,,,,,,,0.4184,,0.4,0.6,0.2,0.8,0.8,0.2,0.6,0.4,1,0,,,,,,,,,,,,
,,668bf5474a2939ef58354d28,66daf5c8293a61708caf6c4b,2024-09-06_13h32.12.162,mdp,2024.2.1,Win32,60.60606061,66d7945b1baad48e845df3ce,,,,,,,,,,,,,,,,,,,,,699.6191,699.6191,699.6221,700.468,0,0,left,0.3195,,700.4713,701.3014,1,1,right,701.3047,701.3068,,1,,0,701.3069,701.3069,701.3087,702.8014,0,36,36,36,1,0.6,0.4,0.2,0.8,,,,,,,,,,,,,,,0.2914,,0.4,0.6,0.2,0.8,0.8,0.2,0.6,0.4,1,0,,,,,,,,,,,,
,,668bf5474a2939ef58354d28,66daf5c8293a61708caf6c4b,2024-09-06_13h32.12.162,mdp,2024.2.1,Win32,60.60606061,66d7945b1baad48e845df3ce,,,,,,,,,,,,,,,,,,,,,702.8027,702.8027,702.8059,703.7348,0,0,left,0.4007,,703.7374,704.5513,1,1,right,704.5541,704.5551,,1,,0,704.5551,704.5552,704.5576,706.0512,0,37,37,37,1,0.6,0.4,0.2,0.8,,,,,,,,,,,,,,,0.2844,,0.4,0.6,0.2,0.8,0.8,0.2,0.6,0.4,1,0,,,,,,,,,,,,
,,668bf5474a2939ef58354d28,66daf5c8293a61708caf6c4b,2024-09-06_13h32.12.162,mdp,2024.2.1,Win32,60.60606061,66d7945b1baad48e845df3ce,,,,,,,,,,,,,,,,,,,,,706.0519,706.0519,706.054,706.9848,0,0,left,0.3998,,706.9877,708.3687,1,1,right,708.3723,708.3749,,1,,0,708.375,708.375,708.3766,709.8678,0,38,38,38,1,0.6,0.4,0.2,0.8,,,,,,,,,,,,,,,0.8511,,0.4,0.6,0.2,0.8,0.8,0.2,0.6,0.4,1,0,,,,,,,,,,,,
,,668bf5474a2939ef58354d28,66daf5c8293a61708caf6c4b,2024-09-06_13h32.12.162,mdp,2024.2.1,Win32,60.60606061,66d7945b1baad48e845df3ce,,,,,,,,,,,,,,,,,,,,,709.8684,709.8684,709.8705,710.4182,0,1,left,0.02,,710.4205,711.1349,0,0,left,711.1367,711.1377,,0,,1,711.1377,711.1377,711.1383,712.6348,0,39,39,39,1,0.6,0.4,0.2,0.8,,,,,,,,,,,,,,,0.1782,,0.6,0.4,0.6,0.4,0.8,0.2,0.6,0.4,1,0,,,,,,,,,,,,
,,668bf5474a2939ef58354d28,66daf5c8293a61708caf6c4b,2024-09-06_13h32.12.162,mdp,2024.2.1,Win32,60.60606061,66d7945b1baad48e845df3ce,,,,,,,,,,,,,,,,,,,,,712.6355,712.6355,712.6374,713.5015,0,1,left,0.3343,,713.5027,714.2857,0,0,left,714.2889,714.291,,1,,1,714.2911,714.2912,714.293,715.785,0,40,40,40,1,0.2,0.8,0.8,0.2,,,,,,,,,,,,,,,0.2521,,0.6,0.4,0.6,0.4,0.8,0.2,0.6,0.4,1,0,,,,,,,,,,,,
,,668bf5474a2939ef58354d28,66daf5c8293a61708caf6c4b,2024-09-06_13h32.12.162,mdp,2024.2.1,Win32,60.60606061,66d7945b1baad48e845df3ce,,,,,,,,,,,,,,,,,,,,,715.7855,715.7855,715.7875,716.6693,0,1,left,0.3512,,716.6725,717.3526,0,1,left,717.3561,717.3582,,0,,0,717.3584,717.3584,717.3601,718.8525,0,41,41,41,1,0.2,0.8,0.8,0.2,,,,,,,,,,,,,,,0.1513,,0.6,0.4,0.6,0.4,0.8,0.2,0.6,0.4,1,0,,,,,,,,,,,,
,,668bf5474a2939ef58354d28,66daf5c8293a61708caf6c4b,2024-09-06_13h32.12.162,mdp,2024.2.1,Win32,60.60606061,66d7945b1baad48e845df3ce,,,,,,,,,,,,,,,,,,,,,718.8533,718.8535,718.8558,719.3862,0,1,left,0.0017,,719.3899,720.4362,1,1,right,720.4393,720.4411,,0,,0,720.4412,720.4412,720.4433,721.9363,0,42,42,42,1,0.2,0.8,0.8,0.2,,,,,,,,,,,,,,,0.5208,,0.6,0.4,0.6,0.4,0.8,0.2,0.6,0.4,1,0,,,,,,,,,,,,
,,668bf5474a2939ef58354d28,66daf5c8293a61708caf6c4b,2024-09-06_13h32.12.162,mdp,2024.2.1,Win32,60.60606061,66d7945b1baad48e845df3ce,,,,,,,,,,,,,,,,,,,,,721.9375,721.9377,721.94,722.7362,0,1,left,0.272,,722.7397,723.7695,0,0,left,723.7723,723.7733,,0,,1,723.7734,723.7734,723.7758,725.2697,0,43,43,43,1,0.2,0.8,0.8,0.2,,,,,,,,,,,,,,,0.5012,,0.6,0.4,0.6,0.4,0.8,0.2,0.6,0.4,1,0,,,,,,,,,,,,
,,668bf5474a2939ef58354d28,66daf5c8293a61708caf6c4b,2024-09-06_13h32.12.162,mdp,2024.2.1,Win32,60.60606061,66d7945b1baad48e845df3ce,,,,,,,,,,,,,,,,,,,,,725.2711,725.2711,725.2748,725.9036,0,1,left,0.1011,,725.9067,726.4543,0,0,left,726.4569,726.4591,,0,,1,726.4593,726.4593,726.4611,727.9528,0,44,44,44,1,0.2,0.8,0.8,0.2,,,,,,,,,,,,,,,0.0178,,0.6,0.4,0.6,0.4,0.8,0.2,0.6,0.4,1,0,,,,,,,,,,,,
,,668bf5474a2939ef58354d28,66daf5c8293a61708caf6c4b,2024-09-06_13h32.12.162,mdp,2024.2.1,Win32,60.60606061,66d7945b1baad48e845df3ce,,,,,,,,,,,,,,,,,,,,,727.9532,727.9532,727.9546,729.2707,0,1,left,0.788,,729.274,731.3378,0,0,left,731.3406,731.3426,,0,,1,731.3428,731.3428,731.3447,732.8367,0,45,45,45,1,0.2,0.8,0.8,0.2,,,,,,,,,,,,,,,1.5519,,0.6,0.4,0.6,0.4,0.8,0.2,0.6,0.4,1,0,,,,,,,,,,,,
,,668bf5474a2939ef58354d28,66daf5c8293a61708caf6c4b,2024-09-06_13h32.12.162,mdp,2024.2.1,Win32,60.60606061,66d7945b1baad48e845df3ce,,,,,,,,,,,,,,,,,,,,,732.8371,732.8371,732.8388,734.0705,0,0,left,0.6995,,734.0731,736.6877,0,1,left,736.6911,736.6932,,0,,0,736.6933,736.6933,736.695,738.1871,0,46,46,46,1,0.2,0.8,0.8,0.2,,,,,,,,,,,,,,,2.0807,,0.6,0.4,0.6,0.4,0.8,0.2,0.6,0.4,1,0,,,,,,,,,,,,
,,668bf5474a2939ef58354d28,66daf5c8293a61708caf6c4b,2024-09-06_13h32.12.162,mdp,2024.2.1,Win32,60.60606061,66d7945b1baad48e845df3ce,,,,,,,,,,,,,,,,,,,,,738.1878,738.1878,738.1897,738.9542,0,0,left,0.2355,,738.9567,739.5548,1,1,right,739.5579,739.5599,,1,,0,739.5602,739.5602,739.5622,741.0537,0,47,47,47,1,0.6,0.4,0.4,0.6,,,,,,,,,,,,,,,0.0844,,0.6,0.4,0.6,0.4,0.8,0.2,0.6,0.4,1,0,,,,,,,,,,,,
,,668bf5474a2939ef58354d28,66daf5c8293a61708caf6c4b,2024-09-06_13h32.12.162,mdp,2024.2.1,Win32,60.60606061,66d7945b1baad48e845df3ce,,,,,,,,,,,,,,,,,,,,,741.0542,741.0542,741.0558,741.6039,0,1,left,0.0172,,741.605,742.6717,0,1,left,742.6746,742.6763,,0,,0,742.6764,742.6764,742.6787,744.1709,0,48,48,48,1,0.6,0.4,0.4,0.6,,,,,,,,,,,,,,,0.534,,0.6,0.4,0.6,0.4,0.8,0.2,0.6,0.4,1,0,,,,,,,,,,,,
,,668bf5474a2939ef58354d28,66daf5c8293a61708caf6c4b,2024-09-06_13h32.12.162,mdp,2024.2.1,Win32,60.60606061,66d7945b1baad48e845df3ce,,,,,,,,,,,,,,,,,,,,,744.1715,744.1715,744.1733,745.0392,0,1,left,0.3342,,745.0418,745.955,0,0,left,745.9575,745.9585,,0,,1,745.9587,745.9587,745.961,747.4552,0,49,49,49,1,0.6,0.4,0.4,0.6,,,,,,,,,,,,,,,0.3845,,0.6,0.4,0.6,0.4,0.8,0.2,0.6,0.4,1,0,,,,,,,,,,,,
,,668bf5474a2939ef58354d28,66daf5c8293a61708caf6c4b,2024-09-06_13h32.12.162,mdp,2024.2.1,Win32,60.60606061,66d7945b1baad48e845df3ce,,,,,,,,,,,,,,,,,,,,,,,,,,,,,,,,,,,,,,,,,,,,,,,,,,,,,,,,747.4555,805.9754,0,1,1,7,1,imgs/giraffe.png,imgs/bear.png,imgs/pig.png,imgs/horse.png,imgs/kangaroo.png,,,,,,,,,,,,,,,,,,,,,,,,
,,668bf5474a2939ef58354d28,66daf5c8293a61708caf6c4b,2024-09-06_13h32.12.162,mdp,2024.2.1,Win32,60.60606061,66d7945b1baad48e845df3ce,,,,,,,,,,,,,,3,seqs/st3seq45.csv,805.986,811.2101,space,4.7018,,811.2476,811.2476,811.2513,814.5263,0,1,left,2.7413,,814.5433,815.4434,0,0,left,815.4466,817.7432,0,1,left,0,817.7434,817.7434,817.7457,819.2437,0,0,0,0,1,0.2,0.8,0.2,0.8,,,,,,,,,,,,,,,0.3735,,0.8,0.2,0.6,0.4,0.6,0.4,0.2,0.8,,,1.7632,,0.2,0.8,0.4,0.6,0.2,0.8,0.8,0.2,1,0
,,668bf5474a2939ef58354d28,66daf5c8293a61708caf6c4b,2024-09-06_13h32.12.162,mdp,2024.2.1,Win32,60.60606061,66d7945b1baad48e845df3ce,,,,,,,,,,,,,,,,,,,,,819.2455,819.2456,819.2482,821.06,1,1,right,1.2853,,821.0617,821.8439,0,0,left,821.8476,823.127,0,1,left,0,823.1272,823.1272,823.1296,824.6272,0,1,1,1,1,0.2,0.8,0.2,0.8,,,,,,,,,,,,,,,0.2693,,0.8,0.2,0.6,0.4,0.6,0.4,0.2,0.8,,,0.7511,,0.2,0.8,0.4,0.6,0.2,0.8,0.8,0.2,1,0
,,668bf5474a2939ef58354d28,66daf5c8293a61708caf6c4b,2024-09-06_13h32.12.162,mdp,2024.2.1,Win32,60.60606061,66d7945b1baad48e845df3ce,,,,,,,,,,,,,,,,,,,,,824.6285,824.6285,824.6312,826.6777,0,1,left,1.5166,,826.6812,833.545,0,0,left,833.5691,838.5286,0,0,left,1,838.5291,838.5291,838.5598,840.0284,0,2,2,2,1,0.2,0.8,0.2,0.8,,,,,,,,,,,,,,,6.3363,,0.8,0.2,0.6,0.4,0.4,0.6,0.4,0.6,,,4.4515,,0.2,0.8,0.4,0.6,0.2,0.8,0.8,0.2,1,0
,,668bf5474a2939ef58354d28,66daf5c8293a61708caf6c4b,2024-09-06_13h32.12.162,mdp,2024.2.1,Win32,60.60606061,66d7945b1baad48e845df3ce,,,,,,,,,,,,,,,,,,,,,840.0298,840.0298,840.0326,841.3458,0,1,left,0.7848,,841.3489,842.2119,0,1,left,842.2148,844.062,0,1,left,0,844.0623,844.0623,844.0647,845.5623,0,3,3,3,1,0.2,0.8,0.2,0.8,,,,,,,,,,,,,,,0.338,,0.8,0.2,0.6,0.4,0.6,0.4,0.2,0.8,,,1.303,,0.2,0.8,0.4,0.6,0.2,0.8,0.8,0.2,1,0
,,668bf5474a2939ef58354d28,66daf5c8293a61708caf6c4b,2024-09-06_13h32.12.162,mdp,2024.2.1,Win32,60.60606061,66d7945b1baad48e845df3ce,,,,,,,,,,,,,,,,,,,,,845.5639,845.564,845.5668,846.2452,0,1,left,0.1494,,846.2473,846.8625,0,0,left,846.8661,847.4959,0,0,left,1,847.4963,847.4963,847.4991,848.9958,0,4,4,4,1,0.2,0.8,0.2,0.8,,,,,,,,,,,,,,,0.1026,,0.8,0.2,0.6,0.4,0.6,0.4,0.2,0.8,,,0.0946,,0.2,0.8,0.4,0.6,0.2,0.8,0.8,0.2,1,0
,,668bf5474a2939ef58354d28,66daf5c8293a61708caf6c4b,2024-09-06_13h32.12.162,mdp,2024.2.1,Win32,60.60606061,66d7945b1baad48e845df3ce,,,,,,,,,,,,,,,,,,,,,848.9972,848.9973,848.9999,849.712,0,1,left,0.1845,,849.7135,850.4454,0,0,left,850.4469,851.3123,0,0,left,1,851.3124,851.3124,851.3141,852.8122,0,5,5,5,1,0.2,0.8,0.2,0.8,,,,,,,,,,,,,,,0.2037,,0.8,0.2,0.6,0.4,0.6,0.4,0.2,0.8,,,0.3338,,0.2,0.8,0.4,0.6,0.2,0.8,0.8,0.2,1,0
,,668bf5474a2939ef58354d28,66daf5c8293a61708caf6c4b,2024-09-06_13h32.12.162,mdp,2024.2.1,Win32,60.60606061,66d7945b1baad48e845df3ce,,,,,,,,,,,,,,,,,,,,,852.8128,852.8128,852.8149,853.5463,0,1,left,0.1992,,853.5495,854.4965,0,1,left,854.4996,861.8798,0,1,left,0,861.8799,861.8799,861.8918,863.3803,0,6,6,6,1,0.2,0.8,0.2,0.8,,,,,,,,,,,,,,,0.4185,,0.8,0.2,0.6,0.4,0.6,0.4,0.2,0.8,,,6.8492,,0.2,0.8,0.4,0.6,0.2,0.8,0.8,0.2,1,0
,,668bf5474a2939ef58354d28,66daf5c8293a61708caf6c4b,2024-09-06_13h32.12.162,mdp,2024.2.1,Win32,60.60606061,66d7945b1baad48e845df3ce,,,,,,,,,,,,,,,,,,,,,863.3815,863.3815,863.3843,868.0977,0,0,left,4.1823,,868.1255,868.9654,0,0,left,868.9683,870.3644,0,1,left,0,870.3646,870.3647,870.368,871.864,0,7,7,7,1,0.2,0.8,0.2,0.8,,,,,,,,,,,,,,,0.3204,,0.8,0.2,0.6,0.4,0.6,0.4,0.2,0.8,,,0.8583,,0.2,0.8,0.4,0.6,0.2,0.8,0.8,0.2,1,0
,,668bf5474a2939ef58354d28,66daf5c8293a61708caf6c4b,2024-09-06_13h32.12.162,mdp,2024.2.1,Win32,60.60606061,66d7945b1baad48e845df3ce,,,,,,,,,,,,,,,,,,,,,871.8649,871.865,871.8673,872.6974,0,1,left,0.2991,,872.6998,873.8646,1,1,right,873.868,875.2805,1,0,right,1,875.2807,875.2807,875.282,876.781,0,8,8,8,1,0.2,0.8,0.2,0.8,,,,,,,,,,,,,,,0.6282,,0.8,0.2,0.6,0.4,0.6,0.4,0.2,0.8,,,0.8822,,0.2,0.8,0.4,0.6,0.2,0.8,0.8,0.2,1,0
,,668bf5474a2939ef58354d28,66daf5c8293a61708caf6c4b,2024-09-06_13h32.12.162,mdp,2024.2.1,Win32,60.60606061,66d7945b1baad48e845df3ce,,,,,,,,,,,,,,,,,,,,,876.7819,876.7819,876.7842,878.1318,0,1,left,0.816,,878.1354,880.998,1,1,right,881.0006,881.9152,0,1,left,0,881.9154,881.9154,881.9178,883.4145,0,9,9,9,1,0.2,0.8,0.2,0.8,,,,,,,,,,,,,,,2.3354,,0.8,0.2,0.6,0.4,0.6,0.4,0.2,0.8,,,0.3999,,0.2,0.8,0.4,0.6,0.2,0.8,0.8,0.2,1,0
,,668bf5474a2939ef58354d28,66daf5c8293a61708caf6c4b,2024-09-06_13h32.12.162,mdp,2024.2.1,Win32,60.60606061,66d7945b1baad48e845df3ce,,,,,,,,,,,,,,,,,,,,,883.415,883.4151,883.417,890.566,0,0,left,6.6194,,890.5944,893.3328,1,0,right,893.3363,894.3329,0,1,left,0,894.3332,894.3332,894.3364,895.8321,0,10,10,10,1,0.2,0.8,0.2,0.8,,,,,,,,,,,,,,,2.2312,,0.8,0.2,0.6,0.4,0.6,0.4,0.2,0.8,,,0.464,,0.2,0.8,0.4,0.6,0.2,0.8,0.8,0.2,1,0
,,668bf5474a2939ef58354d28,66daf5c8293a61708caf6c4b,2024-09-06_13h32.12.162,mdp,2024.2.1,Win32,60.60606061,66d7945b1baad48e845df3ce,,,,,,,,,,,,,,,,,,,,,895.8327,895.8327,895.8344,896.734,1,1,right,0.3753,,896.737,912.6183,0,0,left,912.6216,913.1676,0,1,left,0,913.1682,913.1682,913.1715,914.667,0,11,11,11,1,0.2,0.8,0.2,0.8,,,,,,,,,,,,,,,15.3467,,0.8,0.2,0.6,0.4,0.6,0.4,0.2,0.8,,,0.0145,,0.2,0.8,0.4,0.6,0.2,0.8,0.8,0.2,1,0
,,668bf5474a2939ef58354d28,66daf5c8293a61708caf6c4b,2024-09-06_13h32.12.162,mdp,2024.2.1,Win32,60.60606061,66d7945b1baad48e845df3ce,,,,,,,,,,,,,,,,,,,,,914.6679,914.6679,914.6702,915.8507,0,1,left,0.6551,,915.8519,916.6505,0,0,left,916.6533,917.2346,0,1,left,0,917.2347,917.2347,917.2372,918.7342,0,12,12,12,1,0.2,0.8,0.2,0.8,,,,,,,,,,,,,,,0.2718,,0.8,0.2,0.6,0.4,0.6,0.4,0.2,0.8,,,0.0688,,0.2,0.8,0.4,0.6,0.2,0.8,0.8,0.2,1,0
,,668bf5474a2939ef58354d28,66daf5c8293a61708caf6c4b,2024-09-06_13h32.12.162,mdp,2024.2.1,Win32,60.60606061,66d7945b1baad48e845df3ce,,,,,,,,,,,,,,,,,,,,,918.7347,918.7347,918.7371,919.4677,0,0,left,0.2116,,919.4706,920.1845,0,0,left,920.1872,921.2344,0,1,left,0,921.2345,921.2345,921.2368,922.7343,0,13,13,13,1,0.2,0.8,0.2,0.8,,,,,,,,,,,,,,,0.1815,,0.8,0.2,0.6,0.4,0.6,0.4,0.2,0.8,,,0.5112,,0.2,0.8,0.4,0.6,0.2,0.8,0.8,0.2,1,0
,,668bf5474a2939ef58354d28,66daf5c8293a61708caf6c4b,2024-09-06_13h32.12.162,mdp,2024.2.1,Win32,60.60606061,66d7945b1baad48e845df3ce,,,,,,,,,,,,,,,,,,,,,922.7349,922.735,922.7376,923.5018,0,1,left,0.2382,,923.5043,924.6021,0,0,left,924.6045,925.6851,1,0,right,1,925.6853,925.6853,925.6883,927.1846,0,14,14,14,1,0.2,0.8,0.2,0.8,,,,,,,,,,,,,,,0.5557,,0.8,0.2,0.6,0.4,0.6,0.4,0.2,0.8,,,0.5542,,0.2,0.8,0.4,0.6,0.2,0.8,0.8,0.2,1,0
,,668bf5474a2939ef58354d28,66daf5c8293a61708caf6c4b,2024-09-06_13h32.12.162,mdp,2024.2.1,Win32,60.60606061,66d7945b1baad48e845df3ce,,,,,,,,,,,,,,,,,,,,,927.1853,927.1853,927.1875,928.735,0,1,left,1.0196,,928.7375,929.5853,1,1,right,929.5881,930.2849,0,1,left,0,930.285,930.2851,930.2868,931.7852,0,15,15,15,1,0.2,0.8,0.2,0.8,,,,,,,,,,,,,,,0.3134,,0.8,0.2,0.6,0.4,0.6,0.4,0.2,0.8,,,0.1625,,0.2,0.8,0.4,0.6,0.2,0.8,0.8,0.2,1,0
,,668bf5474a2939ef58354d28,66daf5c8293a61708caf6c4b,2024-09-06_13h32.12.162,mdp,2024.2.1,Win32,60.60606061,66d7945b1baad48e845df3ce,,,,,,,,,,,,,,,,,,,,,931.786,931.786,931.788,932.9185,1,1,right,0.6,,932.92,933.9354,1,1,right,933.9378,934.9523,0,1,left,0,934.9523,934.9523,934.9548,936.4527,0,16,16,16,1,0.2,0.8,0.2,0.8,,,,,,,,,,,,,,,0.4968,,0.8,0.2,0.6,0.4,0.6,0.4,0.2,0.8,,,0.483,,0.2,0.8,0.4,0.6,0.2,0.8,0.8,0.2,1,0
,,668bf5474a2939ef58354d28,66daf5c8293a61708caf6c4b,2024-09-06_13h32.12.162,mdp,2024.2.1,Win32,60.60606061,66d7945b1baad48e845df3ce,,,,,,,,,,,,,,,,,,,,,936.4542,936.4542,936.4575,937.4858,0,1,left,0.4966,,937.4876,938.2695,0,0,left,938.2726,939.2856,1,0,right,1,939.2858,939.2858,939.287,940.7859,0,17,17,17,1,0.2,0.8,0.2,0.8,,,,,,,,,,,,,,,0.2514,,0.8,0.2,0.6,0.4,0.6,0.4,0.2,0.8,,,0.4781,,0.2,0.8,0.4,0.6,0.2,0.8,0.8,0.2,1,0
,,668bf5474a2939ef58354d28,66daf5c8293a61708caf6c4b,2024-09-06_13h32.12.162,mdp,2024.2.1,Win32,60.60606061,66d7945b1baad48e845df3ce,,,,,,,,,,,,,,,,,,,,,940.7866,940.7867,940.7889,941.3698,0,1,left,0.0536,,941.3726,942.3531,1,1,right,942.3564,943.0362,0,1,left,0,943.0364,943.0364,943.0384,944.5367,0,18,18,18,1,0.2,0.8,0.2,0.8,,,,,,,,,,,,,,,0.4555,,0.8,0.2,0.6,0.4,0.6,0.4,0.2,0.8,,,0.145,,0.2,0.8,0.4,0.6,0.6,0.4,0.2,0.8,1,0
,,668bf5474a2939ef58354d28,66daf5c8293a61708caf6c4b,2024-09-06_13h32.12.162,mdp,2024.2.1,Win32,60.60606061,66d7945b1baad48e845df3ce,,,,,,,,,,,,,,,,,,,,,944.538,944.5381,944.5404,945.4037,0,1,left,0.3314,,945.4075,946.1703,0,0,left,946.1744,946.753,0,1,left,0,946.7532,946.7532,946.7549,948.2533,0,19,19,19,1,0.2,0.8,0.2,0.8,,,,,,,,,,,,,,,0.2365,,0.8,0.2,0.6,0.4,0.6,0.4,0.2,0.8,,,0.0392,,0.2,0.8,0.4,0.6,0.6,0.4,0.2,0.8,1,0
,,668bf5474a2939ef58354d28,66daf5c8293a61708caf6c4b,2024-09-06_13h32.12.162,mdp,2024.2.1,Win32,60.60606061,66d7945b1baad48e845df3ce,,,,,,,,,,,,,,,,,,,,,948.2543,948.2543,948.2566,949.253,1,0,right,0.4689,,949.2557,949.8531,0,0,left,949.855,950.9365,1,1,right,0,950.9365,950.9366,950.939,952.4368,0,20,20,20,1,0.2,0.8,0.2,0.8,,,,,,,,,,,,,,,0.0649,,0.8,0.2,0.6,0.4,0.6,0.4,0.2,0.8,,,0.5544,,0.2,0.8,0.4,0.6,0.6,0.4,0.2,0.8,1,0
,,668bf5474a2939ef58354d28,66daf5c8293a61708caf6c4b,2024-09-06_13h32.12.162,mdp,2024.2.1,Win32,60.60606061,66d7945b1baad48e845df3ce,,,,,,,,,,,,,,,,,,,,,952.4374,952.4374,952.4396,953.4869,1,0,right,0.5142,,953.4889,954.4869,1,0,right,954.4882,955.3379,1,1,right,0,955.3381,955.3383,955.3406,956.8371,0,21,21,21,1,0.2,0.8,0.2,0.8,,,,,,,,,,,,,,,0.4745,,0.8,0.2,0.6,0.4,0.6,0.4,0.2,0.8,,,0.3342,,0.2,0.8,0.4,0.6,0.6,0.4,0.2,0.8,1,0
,,668bf5474a2939ef58354d28,66daf5c8293a61708caf6c4b,2024-09-06_13h32.12.162,mdp,2024.2.1,Win32,60.60606061,66d7945b1baad48e845df3ce,,,,,,,,,,,,,,,,,,,,,956.8378,956.8378,956.8399,967.6388,0,1,left,10.2708,,967.6646,970.4215,0,0,left,970.4239,971.5054,1,1,right,0,971.5059,971.5059,971.509,973.005,0,22,22,22,1,0.2,0.8,0.2,0.8,,,,,,,,,,,,,,,2.2502,,0.8,0.2,0.6,0.4,0.6,0.4,0.2,0.8,,,0.5478,,0.2,0.8,0.4,0.6,0.6,0.4,0.2,0.8,1,0
,,668bf5474a2939ef58354d28,66daf5c8293a61708caf6c4b,2024-09-06_13h32.12.162,mdp,2024.2.1,Win32,60.60606061,66d7945b1baad48e845df3ce,,,,,,,,,,,,,,,,,,,,,973.0059,973.0059,973.0083,973.905,0,0,left,0.3701,,973.9078,975.0551,1,1,right,975.0576,975.9051,0,1,left,0,975.9051,975.9053,975.9077,977.4055,0,23,23,23,1,0.2,0.8,0.2,0.8,,,,,,,,,,,,,,,0.6119,,0.8,0.2,0.6,0.4,0.6,0.4,0.2,0.8,,,0.3137,,0.2,0.8,0.4,0.6,0.6,0.4,0.2,0.8,1,0
,,668bf5474a2939ef58354d28,66daf5c8293a61708caf6c4b,2024-09-06_13h32.12.162,mdp,2024.2.1,Win32,60.60606061,66d7945b1baad48e845df3ce,,,,,,,,,,,,,,,,,,,,,977.4067,977.4067,977.41,979.1225,0,1,left,1.1836,,979.1245,980.0911,0,0,left,980.0925,981.0905,0,1,left,0,981.0907,981.0908,981.0927,982.5908,0,24,24,24,1,0.2,0.8,0.2,0.8,,,,,,,,,,,,,,,0.451,,0.8,0.2,0.6,0.4,0.6,0.4,0.2,0.8,,,0.4778,,0.2,0.8,0.4,0.6,0.6,0.4,0.2,0.8,1,0
,,668bf5474a2939ef58354d28,66daf5c8293a61708caf6c4b,2024-09-06_13h32.12.162,mdp,2024.2.1,Win32,60.60606061,66d7945b1baad48e845df3ce,,,,,,,,,,,,,,,,,,,,,982.5924,982.5924,982.5955,983.458,0,1,left,0.3382,,983.4613,984.2424,0,1,left,984.2443,984.9757,0,0,left,1,984.9758,984.9758,984.9773,986.4768,0,25,25,25,1,0.2,0.8,0.2,0.8,,,,,,,,,,,,,,,0.2499,,0.8,0.2,0.6,0.4,0.2,0.8,0.4,0.6,,,0.2003,,0.2,0.8,0.4,0.6,0.6,0.4,0.2,0.8,1,0
,,668bf5474a2939ef58354d28,66daf5c8293a61708caf6c4b,2024-09-06_13h32.12.162,mdp,2024.2.1,Win32,60.60606061,66d7945b1baad48e845df3ce,,,,,,,,,,,,,,,,,,,,,986.4783,986.4783,986.4819,987.3094,0,1,left,0.3009,,987.3112,987.9752,0,1,left,987.9761,988.7599,0,0,left,1,988.7601,988.7601,988.7622,990.2587,0,26,26,26,1,0.2,0.8,0.2,0.8,,,,,,,,,,,,,,,0.134,,0.8,0.2,0.6,0.4,0.2,0.8,0.4,0.6,,,0.2716,,0.2,0.8,0.4,0.6,0.6,0.4,0.2,0.8,1,0
,,668bf5474a2939ef58354d28,66daf5c8293a61708caf6c4b,2024-09-06_13h32.12.162,mdp,2024.2.1,Win32,60.60606061,66d7945b1baad48e845df3ce,,,,,,,,,,,,,,,,,,,,,990.2593,990.2594,990.2605,1004.0074,0,1,left,13.2195,,1004.0173,1004.9914,0,1,left,1004.9944,1005.7407,0,1,left,0,1005.7409,1005.7409,1005.7492,1007.2408,0,27,27,27,1,0.2,0.8,0.2,0.8,,,,,,,,,,,,,,,0.4482,,0.8,0.2,0.6,0.4,0.2,0.8,0.4,0.6,,,0.2197,,0.2,0.8,0.4,0.6,0.8,0.2,0.6,0.4,1,0
,,668bf5474a2939ef58354d28,66daf5c8293a61708caf6c4b,2024-09-06_13h32.12.162,mdp,2024.2.1,Win32,60.60606061,66d7945b1baad48e845df3ce,,,,,,,,,,,,,,,,,,,,,1007.2416,1007.2416,1007.2439,1008.1415,0,1,left,0.3714,,1008.1441,1009.008,0,1,left,1009.0104,1009.6078,1,1,right,0,1009.608,1009.608,1009.6099,1011.1086,0,28,28,28,1,0.2,0.8,0.2,0.8,,,,,,,,,,,,,,,0.3334,,0.8,0.2,0.6,0.4,0.2,0.8,0.4,0.6,,,0.0749,,0.2,0.8,0.4,0.6,0.8,0.2,0.6,0.4,1,0
,,668bf5474a2939ef58354d28,66daf5c8293a61708caf6c4b,2024-09-06_13h32.12.162,mdp,2024.2.1,Win32,60.60606061,66d7945b1baad48e845df3ce,,,,,,,,,,,,,,,,,,,,,1011.1101,1011.1102,1011.1131,1011.6581,0,1,left,0.0213,,1011.6605,1012.6431,0,1,left,1012.6459,1013.3919,0,0,left,1,1013.392,1013.3921,1013.3949,1014.8914,0,29,29,29,1,0.2,0.8,0.2,0.8,,,,,,,,,,,,,,,0.4525,,0.8,0.2,0.6,0.4,0.2,0.8,0.4,0.6,,,0.2178,,0.2,0.8,0.4,0.6,0.8,0.2,0.6,0.4,1,0
,,668bf5474a2939ef58354d28,66daf5c8293a61708caf6c4b,2024-09-06_13h32.12.162,mdp,2024.2.1,Win32,60.60606061,66d7945b1baad48e845df3ce,,,,,,,,,,,,,,,,,,,,,1014.9158,1014.9158,1014.9164,1019.392,0,0,left,3.9512,,1019.4047,1022.7753,0,0,left,1022.7854,1024.659,0,0,left,1,1024.6591,1024.6591,1024.6605,1026.1589,0,30,30,30,1,0.2,0.8,0.2,0.8,,,,,,,,,,,,,,,2.8504,,0.8,0.2,0.6,0.4,0.2,0.8,0.4,0.6,,,1.361,,0.2,0.8,0.4,0.6,0.8,0.2,0.6,0.4,1,0
,,668bf5474a2939ef58354d28,66daf5c8293a61708caf6c4b,2024-09-06_13h32.12.162,mdp,2024.2.1,Win32,60.60606061,66d7945b1baad48e845df3ce,,,,,,,,,,,,,,,,,,,,,1026.16,1026.16,1026.1629,1027.16,0,1,left,0.4641,,1027.1624,1027.8093,0,0,left,1027.8111,1028.376,0,1,left,0,1028.3761,1028.3761,1028.3779,1029.8759,0,31,31,31,1,0.2,0.8,0.2,0.8,,,,,,,,,,,,,,,0.1026,,0.8,0.2,0.6,0.4,0.2,0.8,0.4,0.6,,,0.0497,,0.2,0.8,0.4,0.6,0.8,0.2,0.6,0.4,1,0
,,668bf5474a2939ef58354d28,66daf5c8293a61708caf6c4b,2024-09-06_13h32.12.162,mdp,2024.2.1,Win32,60.60606061,66d7945b1baad48e845df3ce,,,,,,,,,,,,,,,,,,,,,1029.8765,1029.8766,1029.8789,1030.9599,0,1,left,0.5547,,1030.9625,1049.2107,0,1,left,1049.2204,1050.0943,0,0,left,1,1050.0944,1050.0944,1050.0957,1051.5948,0,32,32,32,1,0.2,0.8,0.2,0.8,,,,,,,,,,,,,,,17.7182,,0.8,0.2,0.6,0.4,0.2,0.8,0.4,0.6,,,0.3586,,0.4,0.6,0.6,0.4,0.8,0.2,0.6,0.4,1,0
,,668bf5474a2939ef58354d28,66daf5c8293a61708caf6c4b,2024-09-06_13h32.12.162,mdp,2024.2.1,Win32,60.60606061,66d7945b1baad48e845df3ce,,,,,,,,,,,,,,,,,,,,,1051.5958,1051.5958,1051.5983,1052.3778,0,1,left,0.2501,,1052.3808,1053.0123,0,0,left,1053.016,1053.7611,0,0,left,1,1053.7612,1053.7612,1053.7627,1055.2616,0,33,33,33,1,0.8,0.2,0.4,0.6,,,,,,,,,,,,,,,0.1177,,0.8,0.2,0.6,0.4,0.2,0.8,0.4,0.6,,,0.2094,,0.4,0.6,0.6,0.4,0.8,0.2,0.6,0.4,1,0
,,668bf5474a2939ef58354d28,66daf5c8293a61708caf6c4b,2024-09-06_13h32.12.162,mdp,2024.2.1,Win32,60.60606061,66d7945b1baad48e845df3ce,,,,,,,,,,,,,,,,,,,,,1055.2635,1055.2635,1055.2668,1056.0785,0,0,left,0.2854,,1056.0819,1056.9113,0,0,left,1056.9125,1057.6447,0,1,left,0,1057.6448,1057.6448,1057.6469,1059.1448,0,34,34,34,1,0.8,0.2,0.4,0.6,,,,,,,,,,,,,,,0.2901,,0.8,0.2,0.6,0.4,0.2,0.8,0.4,0.6,,,0.2001,,0.4,0.6,0.6,0.4,0.8,0.2,0.6,0.4,1,0
,,668bf5474a2939ef58354d28,66daf5c8293a61708caf6c4b,2024-09-06_13h32.12.162,mdp,2024.2.1,Win32,60.60606061,66d7945b1baad48e845df3ce,,,,,,,,,,,,,,,,,,,,,1059.1454,1059.1454,1059.1474,1059.7283,0,0,left,0.0547,,1059.73,1060.529,0,0,left,1060.5325,1061.6956,0,1,left,0,1061.696,1061.6961,1061.699,1063.1956,0,35,35,35,1,0.8,0.2,0.4,0.6,,,,,,,,,,,,,,,0.2684,,0.8,0.2,0.6,0.4,0.2,0.8,0.4,0.6,,,0.6384,,0.4,0.6,0.6,0.4,0.8,0.2,0.6,0.4,1,0
,,668bf5474a2939ef58354d28,66daf5c8293a61708caf6c4b,2024-09-06_13h32.12.162,mdp,2024.2.1,Win32,60.60606061,66d7945b1baad48e845df3ce,,,,,,,,,,,,,,,,,,,,,1063.1972,1063.1972,1063.2,1064.0454,0,0,left,0.314,,1064.048,1064.8287,0,1,left,1064.8303,1065.5953,0,0,left,1,1065.5956,1065.5956,1065.5974,1067.0959,0,36,36,36,1,0.8,0.2,0.4,0.6,,,,,,,,,,,,,,,0.253,,0.8,0.2,0.6,0.4,0.2,0.8,0.4,0.6,,,0.2339,,0.4,0.6,0.6,0.4,0.8,0.2,0.6,0.4,1,0
,,668bf5474a2939ef58354d28,66daf5c8293a61708caf6c4b,2024-09-06_13h32.12.162,mdp,2024.2.1,Win32,60.60606061,66d7945b1baad48e845df3ce,,,,,,,,,,,,,,,,,,,,,1067.0974,1067.0974,1067.1004,1067.8953,0,0,left,0.2732,,1067.8967,1068.4956,0,0,left,1068.4979,1069.2627,0,1,left,0,1069.263,1069.2631,1069.2664,1070.7622,0,37,37,37,1,0.8,0.2,0.4,0.6,,,,,,,,,,,,,,,0.0641,,0.8,0.2,0.6,0.4,0.2,0.8,0.4,0.6,,,0.233,,0.4,0.6,0.6,0.4,0.8,0.2,0.6,0.4,1,0
,,668bf5474a2939ef58354d28,66daf5c8293a61708caf6c4b,2024-09-06_13h32.12.162,mdp,2024.2.1,Win32,60.60606061,66d7945b1baad48e845df3ce,,,,,,,,,,,,,,,,,,,,,1070.7628,1070.7628,1070.7644,1071.7628,1,0,right,0.4835,,1071.7653,1072.5627,0,0,left,1072.5652,1073.6301,0,0,left,1,1073.6305,1073.6307,1073.6335,1075.1299,0,38,38,38,1,0.8,0.2,0.4,0.6,,,,,,,,,,,,,,,0.2806,,0.8,0.2,0.6,0.4,0.2,0.8,0.4,0.6,,,0.5485,,0.4,0.6,0.6,0.4,0.8,0.2,0.6,0.4,1,0
,,668bf5474a2939ef58354d28,66daf5c8293a61708caf6c4b,2024-09-06_13h32.12.162,mdp,2024.2.1,Win32,60.60606061,66d7945b1baad48e845df3ce,,,,,,,,,,,,,,,,,,,,,1075.1313,1075.1313,1075.1341,1075.8295,0,1,left,0.1686,,1075.8316,1076.6136,1,0,right,1076.6169,1077.5307,0,1,left,0,1077.5309,1077.5309,1077.5341,1079.03,0,39,39,39,1,0.8,0.2,0.4,0.6,,,,,,,,,,,,,,,0.262,,0.8,0.2,0.6,0.4,0.2,0.8,0.4,0.6,,,0.3852,,0.4,0.6,0.6,0.4,0.8,0.2,0.6,0.4,1,0
,,668bf5474a2939ef58354d28,66daf5c8293a61708caf6c4b,2024-09-06_13h32.12.162,mdp,2024.2.1,Win32,60.60606061,66d7945b1baad48e845df3ce,,,,,,,,,,,,,,,,,,,,,1079.0314,1079.0314,1079.0336,1080.0472,1,0,right,0.4849,,1080.0508,1080.7799,0,0,left,1080.7821,1081.7968,0,0,left,1,1081.7971,1081.7971,1081.7995,1083.297,0,40,40,40,1,0.8,0.2,0.4,0.6,,,,,,,,,,,,,,,0.194,,0.8,0.2,0.6,0.4,0.2,0.8,0.4,0.6,,,0.4976,,0.4,0.6,0.6,0.4,0.8,0.2,0.6,0.4,1,0
,,668bf5474a2939ef58354d28,66daf5c8293a61708caf6c4b,2024-09-06_13h32.12.162,mdp,2024.2.1,Win32,60.60606061,66d7945b1baad48e845df3ce,,,,,,,,,,,,,,,,,,,,,1083.2994,1083.2994,1083.3039,1084.2306,0,0,left,0.4013,,1084.2344,1085.0309,0,0,left,1085.0342,1085.8805,0,0,left,1,1085.8807,1085.8807,1085.8831,1087.3804,0,41,41,41,1,0.8,0.2,0.4,0.6,,,,,,,,,,,,,,,0.2685,,0.8,0.2,0.6,0.4,0.2,0.8,0.4,0.6,,,0.3193,,0.6,0.4,0.4,0.6,0.8,0.2,0.6,0.4,1,0
,,668bf5474a2939ef58354d28,66daf5c8293a61708caf6c4b,2024-09-06_13h32.12.162,mdp,2024.2.1,Win32,60.60606061,66d7945b1baad48e845df3ce,,,,,,,,,,,,,,,,,,,,,1087.3812,1087.3812,1087.3832,1087.9139,0,0,left,0.0044,,1087.9165,1088.7146,0,1,left,1088.7192,1089.5971,0,1,left,0,1089.5973,1089.5973,1089.5986,1091.0971,0,42,42,42,1,0.8,0.2,0.4,0.6,,,,,,,,,,,,,,,0.2725,,0.8,0.2,0.6,0.4,0.2,0.8,0.4,0.6,,,0.3444,,0.6,0.4,0.4,0.6,0.8,0.2,0.6,0.4,1,0
,,668bf5474a2939ef58354d28,66daf5c8293a61708caf6c4b,2024-09-06_13h32.12.162,mdp,2024.2.1,Win32,60.60606061,66d7945b1baad48e845df3ce,,,,,,,,,,,,,,,,,,,,,1091.0977,1091.0977,1091.0995,1091.6639,0,1,left,0.0374,,1091.6657,1096.881,0,1,left,1096.8904,1099.5486,0,0,left,1,1099.5488,1099.5488,1099.5753,1101.0484,0,43,43,43,1,0.8,0.2,0.4,0.6,,,,,,,,,,,,,,,4.6818,,0.8,0.2,0.6,0.4,0.2,0.8,0.4,0.6,,,2.1492,,0.6,0.4,0.4,0.6,0.8,0.2,0.6,0.4,1,0
,,668bf5474a2939ef58354d28,66daf5c8293a61708caf6c4b,2024-09-06_13h32.12.162,mdp,2024.2.1,Win32,60.60606061,66d7945b1baad48e845df3ce,,,,,,,,,,,,,,,,,,,,,1101.0497,1101.0497,1101.0523,1107.5325,0,0,left,5.9544,,1107.5608,1108.0827,0,0,left,1108.0864,1108.6822,0,0,left,1,1108.6823,1108.6824,1108.685,1110.1826,0,44,44,44,1,0.8,0.2,0.4,0.6,,,,,,,,,,,,,,,0.0138,,0.8,0.2,0.6,0.4,0.2,0.8,0.4,0.6,,,0.0656,,0.6,0.4,0.4,0.6,0.8,0.2,0.6,0.4,1,0
,,668bf5474a2939ef58354d28,66daf5c8293a61708caf6c4b,2024-09-06_13h32.12.162,mdp,2024.2.1,Win32,60.60606061,66d7945b1baad48e845df3ce,,,,,,,,,,,,,,,,,,,,,1110.1844,1110.1844,1110.1871,1110.8489,0,0,left,0.1339,,1110.8514,1111.8492,0,0,left,1111.8517,1115.6492,0,0,left,1,1115.6494,1115.6494,1115.6613,1117.1498,0,45,45,45,1,0.8,0.2,0.4,0.6,,,,,,,,,,,,,,,0.4677,,0.8,0.2,0.6,0.4,0.2,0.8,0.4,0.6,,,3.2672,,0.6,0.4,0.4,0.6,0.8,0.2,0.6,0.4,1,0
,,668bf5474a2939ef58354d28,66daf5c8293a61708caf6c4b,2024-09-06_13h32.12.162,mdp,2024.2.1,Win32,60.60606061,66d7945b1baad48e845df3ce,,,,,,,,,,,,,,,,,,,,,1117.1514,1117.1514,1117.154,1117.6998,0,0,left,0.019,,1117.7032,1118.3167,0,0,left,1118.3204,1118.95,0,0,left,1,1118.9502,1118.9502,1118.9538,1120.4502,0,46,46,46,1,0.8,0.2,0.4,0.6,,,,,,,,,,,,,,,0.0875,,0.8,0.2,0.6,0.4,0.2,0.8,0.4,0.6,,,0.1034,,0.6,0.4,0.4,0.6,0.8,0.2,0.6,0.4,1,0
,,668bf5474a2939ef58354d28,66daf5c8293a61708caf6c4b,2024-09-06_13h32.12.162,mdp,2024.2.1,Win32,60.60606061,66d7945b1baad48e845df3ce,,,,,,,,,,,,,,,,,,,,,1120.452,1120.452,1120.455,1121.2169,0,1,left,0.2355,,1121.2205,1121.8663,0,0,left,1121.8683,1122.7175,0,0,left,1,1122.7177,1122.7177,1122.7214,1124.2168,0,47,47,47,1,0.8,0.2,0.4,0.6,,,,,,,,,,,,,,,0.1109,,0.8,0.2,0.6,0.4,0.2,0.8,0.4,0.6,,,0.3197,,0.6,0.4,0.4,0.6,0.8,0.2,0.6,0.4,1,0
,,668bf5474a2939ef58354d28,66daf5c8293a61708caf6c4b,2024-09-06_13h32.12.162,mdp,2024.2.1,Win32,60.60606061,66d7945b1baad48e845df3ce,,,,,,,,,,,,,,,,,,,,,1124.2183,1124.2184,1124.2216,1124.8839,0,0,left,0.1386,,1124.8878,1125.5169,0,1,left,1125.5197,1126.1512,0,0,left,1,1126.1513,1126.1513,1126.1544,1127.6507,0,48,48,48,1,0.8,0.2,0.4,0.6,,,,,,,,,,,,,,,0.094,,0.8,0.2,0.6,0.4,0.8,0.2,0.2,0.8,,,0.1091,,0.6,0.4,0.4,0.6,0.8,0.2,0.6,0.4,1,0
,,668bf5474a2939ef58354d28,66daf5c8293a61708caf6c4b,2024-09-06_13h32.12.162,mdp,2024.2.1,Win32,60.60606061,66d7945b1baad48e845df3ce,,,,,,,,,,,,,,,,,,,,,1127.6521,1127.6521,1127.6552,1129.6671,0,1,left,1.4819,,1129.6695,1130.2843,0,1,left,1130.2873,1131.3503,0,0,left,1,1131.3504,1131.3504,1131.3521,1132.8506,0,49,49,49,1,0.4,0.6,0.6,0.4,,,,,,,,,,,,,,,0.0805,,0.8,0.2,0.6,0.4,0.8,0.2,0.2,0.8,,,0.5358,,0.6,0.4,0.4,0.6,0.8,0.2,0.6,0.4,1,0
,,668bf5474a2939ef58354d28,66daf5c8293a61708caf6c4b,2024-09-06_13h32.12.162,mdp,2024.2.1,Win32,60.60606061,66d7945b1baad48e845df3ce,,,,,,,,,,,,,,,,,,,,,,,,,,,,,,,,,,,,,,,,,,,,,,,,,,,,,,,,1132.8508,1191.3548,0,2,2,4,1,imgs/cat.png,imgs/elephant.png,imgs/squirrel.png,imgs/pig.png,imgs/horse.png,,,,,,,,,,,,,,,,,,,,,,,,
,,668bf5474a2939ef58354d28,66daf5c8293a61708caf6c4b,2024-09-06_13h32.12.162,mdp,2024.2.1,Win32,60.60606061,66d7945b1baad48e845df3ce,,,,,,,,,,,,,,3,seqs/st3seq37.csv,1191.3663,1192.9717,space,1.088,,1192.9801,1192.9801,1192.9811,1195.1552,0,0,left,1.6432,,1195.1577,1196.0386,0,0,left,1196.0407,1196.9555,0,0,left,1,1196.9557,1196.9557,1196.9586,1198.456,0,0,0,0,1,0.8,0.2,0.2,0.8,,,,,,,,,,,,,,,0.3413,,0.6,0.4,0.8,0.2,0.4,0.6,0.8,0.2,,,0.3814,,0.6,0.4,0.8,0.2,0.2,0.8,0.2,0.8,1,0
,,668bf5474a2939ef58354d28,66daf5c8293a61708caf6c4b,2024-09-06_13h32.12.162,mdp,2024.2.1,Win32,60.60606061,66d7945b1baad48e845df3ce,,,,,,,,,,,,,,,,,,,,,1198.4576,1198.4578,1198.4602,1199.4561,0,0,left,0.4659,,1199.4596,1200.3395,0,0,left,1200.343,1201.1388,0,1,left,0,1201.139,1201.139,1201.1403,1202.6397,0,1,1,1,1,0.8,0.2,0.2,0.8,,,,,,,,,,,,,,,0.353,,0.6,0.4,0.8,0.2,0.4,0.6,0.8,0.2,,,0.2722,,0.6,0.4,0.8,0.2,0.2,0.8,0.2,0.8,1,0
,,668bf5474a2939ef58354d28,66daf5c8293a61708caf6c4b,2024-09-06_13h32.12.162,mdp,2024.2.1,Win32,60.60606061,66d7945b1baad48e845df3ce,,,,,,,,,,,,,,,,,,,,,1202.6413,1202.6413,1202.6444,1203.4397,0,0,left,0.2649,,1203.4431,1204.2898,0,0,left,1204.2933,1205.1399,0,1,left,0,1205.1401,1205.1401,1205.1436,1206.64,0,2,2,2,1,0.8,0.2,0.2,0.8,,,,,,,,,,,,,,,0.3181,,0.6,0.4,0.8,0.2,0.4,0.6,0.8,0.2,,,0.3186,,0.6,0.4,0.8,0.2,0.2,0.8,0.2,0.8,1,0
,,668bf5474a2939ef58354d28,66daf5c8293a61708caf6c4b,2024-09-06_13h32.12.162,mdp,2024.2.1,Win32,60.60606061,66d7945b1baad48e845df3ce,,,,,,,,,,,,,,,,,,,,,1206.6416,1206.6417,1206.6445,1207.2401,0,0,left,0.0705,,1207.2434,1207.9064,0,1,left,1207.9089,1208.8565,0,0,left,1,1208.8566,1208.8566,1208.8593,1210.3566,0,3,3,3,1,0.8,0.2,0.2,0.8,,,,,,,,,,,,,,,0.1316,,0.6,0.4,0.8,0.2,0.4,0.6,0.8,0.2,,,0.4199,,0.6,0.4,0.8,0.2,0.2,0.8,0.2,0.8,1,0
,,668bf5474a2939ef58354d28,66daf5c8293a61708caf6c4b,2024-09-06_13h32.12.162,mdp,2024.2.1,Win32,60.60606061,66d7945b1baad48e845df3ce,,,,,,,,,,,,,,,,,,,,,1210.3574,1210.3575,1210.3599,1211.3403,0,0,left,0.4693,,1211.3437,1212.3571,0,0,left,1212.3606,1213.2903,1,0,right,1,1213.2906,1213.2906,1213.2935,1214.7903,0,4,4,4,1,0.8,0.2,0.2,0.8,,,,,,,,,,,,,,,0.4848,,0.6,0.4,0.8,0.2,0.4,0.6,0.8,0.2,,,0.4012,,0.6,0.4,0.8,0.2,0.2,0.8,0.2,0.8,1,0
,,668bf5474a2939ef58354d28,66daf5c8293a61708caf6c4b,2024-09-06_13h32.12.162,mdp,2024.2.1,Win32,60.60606061,66d7945b1baad48e845df3ce,,,,,,,,,,,,,,,,,,,,,1214.7911,1214.7911,1214.7933,1215.54,0,1,left,0.2186,,1215.5411,1216.0734,0,0,left,1216.075,1217.3236,1,0,right,1,1217.3236,1217.3236,1217.3251,1218.8238,0,5,5,5,1,0.8,0.2,0.2,0.8,,,,,,,,,,,,,,,0.0004,,0.6,0.4,0.8,0.2,0.4,0.6,0.8,0.2,,,0.7148,,0.6,0.4,0.8,0.2,0.2,0.8,0.2,0.8,1,0
,,668bf5474a2939ef58354d28,66daf5c8293a61708caf6c4b,2024-09-06_13h32.12.162,mdp,2024.2.1,Win32,60.60606061,66d7945b1baad48e845df3ce,,,,,,,,,,,,,,,,,,,,,1218.8246,1218.8246,1218.8268,1219.4578,0,1,left,0.1018,,1219.4617,1220.2744,0,0,left,1220.2777,1221.1577,0,0,left,1,1221.1579,1221.1579,1221.1609,1222.6573,0,6,6,6,1,0.4,0.6,0.8,0.2,,,,,,,,,,,,,,,0.2847,,0.6,0.4,0.8,0.2,0.4,0.6,0.8,0.2,,,0.3524,,0.6,0.4,0.8,0.2,0.2,0.8,0.2,0.8,1,0
,,668bf5474a2939ef58354d28,66daf5c8293a61708caf6c4b,2024-09-06_13h32.12.162,mdp,2024.2.1,Win32,60.60606061,66d7945b1baad48e845df3ce,,,,,,,,,,,,,,,,,,,,,1222.6579,1222.6579,1222.6599,1223.1911,0,0,left,0.0056,,1223.1942,1223.9573,0,0,left,1223.9587,1224.6746,0,0,left,1,1224.6747,1224.6747,1224.6783,1226.1742,0,7,7,7,1,0.4,0.6,0.8,0.2,,,,,,,,,,,,,,,0.2223,,0.8,0.2,0.2,0.8,0.4,0.6,0.8,0.2,,,0.205,,0.6,0.4,0.8,0.2,0.2,0.8,0.2,0.8,1,0
,,668bf5474a2939ef58354d28,66daf5c8293a61708caf6c4b,2024-09-06_13h32.12.162,mdp,2024.2.1,Win32,60.60606061,66d7945b1baad48e845df3ce,,,,,,,,,,,,,,,,,,,,,1226.1749,1226.1749,1226.1767,1226.9248,0,1,left,0.2228,,1226.9285,1227.7412,0,0,left,1227.7434,1228.5912,0,0,left,1,1228.5913,1228.5913,1228.5937,1230.0918,0,8,8,8,1,0.4,0.6,0.8,0.2,,,,,,,,,,,,,,,0.2785,,0.8,0.2,0.2,0.8,0.4,0.6,0.8,0.2,,,0.3176,,0.6,0.4,0.8,0.2,0.2,0.8,0.2,0.8,1,0
,,668bf5474a2939ef58354d28,66daf5c8293a61708caf6c4b,2024-09-06_13h32.12.162,mdp,2024.2.1,Win32,60.60606061,66d7945b1baad48e845df3ce,,,,,,,,,,,,,,,,,,,,,1230.0933,1230.0933,1230.0962,1231.3251,0,1,left,0.7006,,1231.3285,1231.9246,0,1,left,1231.9259,1232.8917,0,1,left,0,1232.8919,1232.8919,1232.8945,1234.3921,0,9,9,9,1,0.4,0.6,0.8,0.2,,,,,,,,,,,,,,,0.0671,,0.8,0.2,0.2,0.8,0.4,0.6,0.8,0.2,,,0.4327,,0.6,0.4,0.8,0.2,0.2,0.8,0.2,0.8,1,0
,,668bf5474a2939ef58354d28,66daf5c8293a61708caf6c4b,2024-09-06_13h32.12.162,mdp,2024.2.1,Win32,60.60606061,66d7945b1baad48e845df3ce,,,,,,,,,,,,,,,,,,,,,1234.3939,1234.394,1234.3973,1235.0917,0,0,left,0.1725,,1235.0941,1235.6588,0,1,left,1235.6624,1236.359,0,1,left,0,1236.3592,1236.3592,1236.3625,1237.8591,0,10,10,10,1,0.4,0.6,0.8,0.2,,,,,,,,,,,,,,,0.0446,,0.2,0.8,0.4,0.6,0.4,0.6,0.8,0.2,,,0.1688,,0.6,0.4,0.8,0.2,0.2,0.8,0.2,0.8,1,0
,,668bf5474a2939ef58354d28,66daf5c8293a61708caf6c4b,2024-09-06_13h32.12.162,mdp,2024.2.1,Win32,60.60606061,66d7945b1baad48e845df3ce,,,,,,,,,,,,,,,,,,,,,1237.8606,1237.8607,1237.8635,1238.6759,0,1,left,0.2871,,1238.6792,1239.3584,1,1,right,1239.36,1240.0092,0,0,left,1,1240.0094,1240.0094,1240.0126,1241.5095,0,11,11,11,1,0.4,0.6,0.8,0.2,,,,,,,,,,,,,,,0.1502,,0.2,0.8,0.4,0.6,0.4,0.6,0.8,0.2,,,0.1177,,0.6,0.4,0.8,0.2,0.2,0.8,0.2,0.8,1,0
,,668bf5474a2939ef58354d28,66daf5c8293a61708caf6c4b,2024-09-06_13h32.12.162,mdp,2024.2.1,Win32,60.60606061,66d7945b1baad48e845df3ce,,,,,,,,,,,,,,,,,,,,,1241.5122,1241.5122,1241.5153,1242.4108,0,1,left,0.3728,,1242.414,1242.9923,1,0,right,1242.9948,1244.0928,0,0,left,1,1244.0931,1244.0931,1244.0964,1245.5931,0,12,12,12,1,0.4,0.6,0.8,0.2,,,,,,,,,,,,,,,0.0517,,0.2,0.8,0.4,0.6,0.4,0.6,0.8,0.2,,,0.5782,,0.6,0.4,0.8,0.2,0.2,0.8,0.2,0.8,1,0
,,668bf5474a2939ef58354d28,66daf5c8293a61708caf6c4b,2024-09-06_13h32.12.162,mdp,2024.2.1,Win32,60.60606061,66d7945b1baad48e845df3ce,,,,,,,,,,,,,,,,,,,,,1245.5946,1245.5946,1245.5973,1246.1263,0,1,left,0.0009,,1246.1298,1247.3265,1,0,right,1247.3304,1248.3098,0,1,left,0,1248.31,1248.3101,1248.3134,1249.8098,0,13,13,13,1,0.4,0.6,0.8,0.2,,,,,,,,,,,,,,,0.6697,,0.2,0.8,0.4,0.6,0.4,0.6,0.8,0.2,,,0.4514,,0.6,0.4,0.8,0.2,0.6,0.4,0.6,0.4,1,0
,,668bf5474a2939ef58354d28,66daf5c8293a61708caf6c4b,2024-09-06_13h32.12.162,mdp,2024.2.1,Win32,60.60606061,66d7945b1baad48e845df3ce,,,,,,,,,,,,,,,,,,,,,1249.8114,1249.8115,1249.8143,1250.46,0,0,left,0.1209,,1250.4635,1251.1434,0,1,left,1251.1469,1252.0781,0,0,left,1,1252.0782,1252.0782,1252.0809,1253.5765,0,14,14,14,1,0.4,0.6,0.8,0.2,,,,,,,,,,,,,,,0.1448,,0.2,0.8,0.4,0.6,0.4,0.6,0.8,0.2,,,0.3997,,0.6,0.4,0.8,0.2,0.6,0.4,0.6,0.4,1,0
,,668bf5474a2939ef58354d28,66daf5c8293a61708caf6c4b,2024-09-06_13h32.12.162,mdp,2024.2.1,Win32,60.60606061,66d7945b1baad48e845df3ce,,,,,,,,,,,,,,,,,,,,,1253.5776,1253.5776,1253.5799,1254.5933,0,1,left,0.4873,,1254.5951,1255.3936,0,1,left,1255.3968,1256.1437,0,1,left,0,1256.144,1256.144,1256.1473,1257.6439,0,15,15,15,1,0.4,0.6,0.8,0.2,,,,,,,,,,,,,,,0.2625,,0.2,0.8,0.4,0.6,0.4,0.6,0.8,0.2,,,0.2188,,0.6,0.4,0.8,0.2,0.6,0.4,0.6,0.4,1,0
,,668bf5474a2939ef58354d28,66daf5c8293a61708caf6c4b,2024-09-06_13h32.12.162,mdp,2024.2.1,Win32,60.60606061,66d7945b1baad48e845df3ce,,,,,,,,,,,,,,,,,,,,,1257.6458,1257.6459,1257.6488,1258.3773,0,0,left,0.201,,1258.3806,1259.0103,1,1,right,1259.013,1260.0108,0,1,left,0,1260.011,1260.011,1260.0142,1261.5104,0,16,16,16,1,0.4,0.6,0.8,0.2,,,,,,,,,,,,,,,0.0976,,0.2,0.8,0.4,0.6,0.4,0.6,0.8,0.2,,,0.4841,,0.6,0.4,0.8,0.2,0.6,0.4,0.6,0.4,1,0
,,668bf5474a2939ef58354d28,66daf5c8293a61708caf6c4b,2024-09-06_13h32.12.162,mdp,2024.2.1,Win32,60.60606061,66d7945b1baad48e845df3ce,,,,,,,,,,,,,,,,,,,,,1261.5109,1261.5109,1261.5132,1262.2602,0,1,left,0.2169,,1262.2616,1263.1436,0,1,left,1263.145,1263.6769,0,0,left,1,1263.677,1263.677,1263.6782,1265.1776,0,17,17,17,1,0.4,0.6,0.8,0.2,,,,,,,,,,,,,,,0.348,,0.2,0.8,0.4,0.6,0.4,0.6,0.8,0.2,,,0.0006,,0.6,0.4,0.8,0.2,0.6,0.4,0.6,0.4,1,0
,,668bf5474a2939ef58354d28,66daf5c8293a61708caf6c4b,2024-09-06_13h32.12.162,mdp,2024.2.1,Win32,60.60606061,66d7945b1baad48e845df3ce,,,,,,,,,,,,,,,,,,,,,1265.1791,1265.1791,1265.1817,1265.9439,0,1,left,0.231,,1265.9456,1266.7441,0,1,left,1266.7467,1267.2779,0,0,left,1,1267.2783,1267.2783,1267.2819,1268.7783,0,18,18,18,1,0.4,0.6,0.8,0.2,,,,,,,,,,,,,,,0.2877,,0.2,0.8,0.4,0.6,0.4,0.6,0.8,0.2,,,0.0179,,0.2,0.8,0.6,0.4,0.6,0.4,0.6,0.4,1,0
,,668bf5474a2939ef58354d28,66daf5c8293a61708caf6c4b,2024-09-06_13h32.12.162,mdp,2024.2.1,Win32,60.60606061,66d7945b1baad48e845df3ce,,,,,,,,,,,,,,,,,,,,,1268.7799,1268.7799,1268.7825,1269.6616,0,1,left,0.3493,,1269.6649,1270.5615,0,0,left,1270.5643,1271.1611,0,1,left,0,1271.1612,1271.1612,1271.1636,1272.6616,0,19,19,19,1,0.4,0.6,0.8,0.2,,,,,,,,,,,,,,,0.3693,,0.2,0.8,0.4,0.6,0.4,0.6,0.8,0.2,,,0.0632,,0.2,0.8,0.6,0.4,0.6,0.4,0.6,0.4,1,0
,,668bf5474a2939ef58354d28,66daf5c8293a61708caf6c4b,2024-09-06_13h32.12.162,mdp,2024.2.1,Win32,60.60606061,66d7945b1baad48e845df3ce,,,,,,,,,,,,,,,,,,,,,1272.6631,1272.6632,1272.6659,1273.1946,0,1,left,0.0006,,1273.1969,1274.2118,0,0,left,1274.2155,1274.9119,0,1,left,0,1274.912,1274.9121,1274.9156,1276.412,0,20,20,20,1,0.4,0.6,0.8,0.2,,,,,,,,,,,,,,,0.5049,,0.2,0.8,0.4,0.6,0.4,0.6,0.8,0.2,,,0.1803,,0.2,0.8,0.6,0.4,0.6,0.4,0.6,0.4,1,0
,,668bf5474a2939ef58354d28,66daf5c8293a61708caf6c4b,2024-09-06_13h32.12.162,mdp,2024.2.1,Win32,60.60606061,66d7945b1baad48e845df3ce,,,,,,,,,,,,,,,,,,,,,1276.4137,1276.4137,1276.4165,1277.3614,0,0,left,0.4139,,1277.3628,1278.1955,0,1,left,1278.1988,1279.0959,0,1,left,0,1279.096,1279.096,1279.0986,1280.5843,0,21,21,21,1,0.4,0.6,0.8,0.2,,,,,,,,,,,,,,,0.3096,,0.2,0.8,0.4,0.6,0.4,0.6,0.8,0.2,,,0.3519,,0.2,0.8,0.6,0.4,0.6,0.4,0.6,0.4,1,0
,,668bf5474a2939ef58354d28,66daf5c8293a61708caf6c4b,2024-09-06_13h32.12.162,mdp,2024.2.1,Win32,60.60606061,66d7945b1baad48e845df3ce,,,,,,,,,,,,,,,,,,,,,1280.5847,1280.5847,1280.5858,1285.3625,0,0,left,4.2543,,1285.3839,1285.9128,1,0,right,1285.9165,1286.4621,0,1,left,0,1286.4623,1286.4623,1286.464,1287.9624,0,22,22,22,1,0.4,0.6,0.8,0.2,,,,,,,,,,,,,,,0.0183,,0.2,0.8,0.4,0.6,0.4,0.6,0.8,0.2,,,0.0188,,0.2,0.8,0.6,0.4,0.6,0.4,0.6,0.4,1,0
,,668bf5474a2939ef58354d28,66daf5c8293a61708caf6c4b,2024-09-06_13h32.12.162,mdp,2024.2.1,Win32,60.60606061,66d7945b1baad48e845df3ce,,,,,,,,,,,,,,,,,,,,,1287.9632,1287.9632,1287.9653,1288.7965,0,1,left,0.3014,,1288.8,1289.4143,0,0,left,1289.4173,1290.0462,0,0,left,1,1290.0464,1290.0465,1290.0493,1291.546,0,23,23,23,1,0.4,0.6,0.8,0.2,,,,,,,,,,,,,,,0.0827,,0.2,0.8,0.4,0.6,0.4,0.6,0.8,0.2,,,0.1047,,0.2,0.8,0.6,0.4,0.2,0.8,0.4,0.6,1,0
,,668bf5474a2939ef58354d28,66daf5c8293a61708caf6c4b,2024-09-06_13h32.12.162,mdp,2024.2.1,Win32,60.60606061,66d7945b1baad48e845df3ce,,,,,,,,,,,,,,,,,,,,,1291.5466,1291.5466,1291.5486,1292.2633,0,1,left,0.1846,,1292.2671,1292.9294,0,1,left,1292.9314,1293.4635,0,1,left,0,1293.4637,1293.4641,1293.4675,1294.9634,0,24,24,24,1,0.4,0.6,0.8,0.2,,,,,,,,,,,,,,,0.1362,,0.2,0.8,0.4,0.6,0.4,0.6,0.8,0.2,,,0.0104,,0.2,0.8,0.6,0.4,0.2,0.8,0.4,0.6,1,0
,,668bf5474a2939ef58354d28,66daf5c8293a61708caf6c4b,2024-09-06_13h32.12.162,mdp,2024.2.1,Win32,60.60606061,66d7945b1baad48e845df3ce,,,,,,,,,,,,,,,,,,,,,1294.9647,1294.9647,1294.9676,1295.6136,0,1,left,0.1192,,1295.6171,1297.2637,0,0,left,1297.2669,1299.3972,0,1,left,0,1299.3974,1299.3974,1299.4009,1300.897,0,25,25,25,1,0.4,0.6,0.8,0.2,,,,,,,,,,,,,,,1.1156,,0.2,0.8,0.4,0.6,0.6,0.4,0.4,0.6,,,1.6009,,0.2,0.8,0.6,0.4,0.2,0.8,0.4,0.6,1,0
,,668bf5474a2939ef58354d28,66daf5c8293a61708caf6c4b,2024-09-06_13h32.12.162,mdp,2024.2.1,Win32,60.60606061,66d7945b1baad48e845df3ce,,,,,,,,,,,,,,,,,,,,,1300.8981,1300.8982,1300.9008,1302.9987,0,0,left,1.5729,,1303.0018,1305.3648,0,1,left,1305.368,1306.5146,0,1,left,0,1306.5149,1306.5151,1306.5181,1308.014,0,26,26,26,1,0.4,0.6,0.8,0.2,,,,,,,,,,,,,,,1.8289,,0.2,0.8,0.4,0.6,0.6,0.4,0.4,0.6,,,0.6125,,0.2,0.8,0.6,0.4,0.2,0.8,0.4,0.6,1,0
,,668bf5474a2939ef58354d28,66daf5c8293a61708caf6c4b,2024-09-06_13h32.12.162,mdp,2024.2.1,Win32,60.60606061,66d7945b1baad48e845df3ce,,,,,,,,,,,,,,,,,,,,,1308.0146,1308.0146,1308.0167,1308.5974,0,0,left,0.0487,,1308.5989,1309.5644,0,1,left,1309.5671,1311.6482,0,1,left,0,1311.6484,1311.6484,1311.6517,1313.1477,0,27,27,27,1,0.4,0.6,0.8,0.2,,,,,,,,,,,,,,,0.4338,,0.2,0.8,0.4,0.6,0.6,0.4,0.4,0.6,,,1.5545,,0.2,0.8,0.6,0.4,0.2,0.8,0.4,0.6,1,0
,,668bf5474a2939ef58354d28,66daf5c8293a61708caf6c4b,2024-09-06_13h32.12.162,mdp,2024.2.1,Win32,60.60606061,66d7945b1baad48e845df3ce,,,,,,,,,,,,,,,,,,,,,1313.1485,1313.1486,1313.1507,1313.9645,1,0,right,0.28,,1313.9669,1314.798,0,0,left,1314.8006,1315.8979,1,0,right,1,1315.898,1315.898,1315.8992,1317.3984,0,28,28,28,1,0.4,0.6,0.8,0.2,,,,,,,,,,,,,,,0.3164,,0.2,0.8,0.4,0.6,0.6,0.4,0.4,0.6,,,0.5606,,0.2,0.8,0.6,0.4,0.2,0.8,0.4,0.6,1,0
,,668bf5474a2939ef58354d28,66daf5c8293a61708caf6c4b,2024-09-06_13h32.12.162,mdp,2024.2.1,Win32,60.60606061,66d7945b1baad48e845df3ce,,,,,,,,,,,,,,,,,,,,,1317.4004,1317.4004,1317.4029,1318.0321,0,1,left,0.1027,,1318.0354,1318.5817,1,1,right,1318.5847,1319.6321,1,1,right,0,1319.6323,1319.6324,1319.6355,1321.1318,0,29,29,29,1,0.4,0.6,0.8,0.2,,,,,,,,,,,,,,,0.0101,,0.2,0.8,0.4,0.6,0.6,0.4,0.4,0.6,,,0.5133,,0.2,0.8,0.6,0.4,0.2,0.8,0.4,0.6,1,0
,,668bf5474a2939ef58354d28,66daf5c8293a61708caf6c4b,2024-09-06_13h32.12.162,mdp,2024.2.1,Win32,60.60606061,66d7945b1baad48e845df3ce,,,,,,,,,,,,,,,,,,,,,1321.1324,1321.1324,1321.1343,1321.9649,1,1,right,0.303,,1321.9679,1322.6317,0,0,left,1322.6344,1323.4818,0,1,left,0,1323.4819,1323.4819,1323.4847,1324.9821,0,30,30,30,1,0.2,0.8,0.6,0.4,,,,,,,,,,,,,,,0.1373,,0.2,0.8,0.4,0.6,0.6,0.4,0.4,0.6,,,0.3354,,0.2,0.8,0.6,0.4,0.2,0.8,0.4,0.6,1,0
,,668bf5474a2939ef58354d28,66daf5c8293a61708caf6c4b,2024-09-06_13h32.12.162,mdp,2024.2.1,Win32,60.60606061,66d7945b1baad48e845df3ce,,,,,,,,,,,,,,,,,,,,,1324.9843,1324.9843,1324.9872,1325.7321,0,1,left,0.2175,,1325.7351,1326.3485,0,1,left,1326.3497,1327.0324,0,1,left,0,1327.0326,1327.0326,1327.0357,1328.5325,0,31,31,31,1,0.2,0.8,0.6,0.4,,,,,,,,,,,,,,,0.0873,,0.2,0.8,0.4,0.6,0.6,0.4,0.4,0.6,,,0.1528,,0.2,0.8,0.6,0.4,0.2,0.8,0.4,0.6,1,0
,,668bf5474a2939ef58354d28,66daf5c8293a61708caf6c4b,2024-09-06_13h32.12.162,mdp,2024.2.1,Win32,60.60606061,66d7945b1baad48e845df3ce,,,,,,,,,,,,,,,,,,,,,1328.5339,1328.534,1328.5367,1329.3828,0,1,left,0.3187,,1329.3862,1330.5992,1,0,right,1330.6014,1331.549,0,1,left,0,1331.5492,1331.5492,1331.5513,1333.0491,0,32,32,32,1,0.2,0.8,0.6,0.4,,,,,,,,,,,,,,,0.6817,,0.2,0.8,0.4,0.6,0.6,0.4,0.4,0.6,,,0.4177,,0.2,0.8,0.6,0.4,0.2,0.8,0.4,0.6,1,0
,,668bf5474a2939ef58354d28,66daf5c8293a61708caf6c4b,2024-09-06_13h32.12.162,mdp,2024.2.1,Win32,60.60606061,66d7945b1baad48e845df3ce,,,,,,,,,,,,,,,,,,,,,1333.0498,1333.0498,1333.0519,1334.2826,0,1,left,0.7027,,1334.2841,1335.1493,0,1,left,1335.1511,1335.9995,0,0,left,1,1335.9996,1335.9996,1336.0017,1337.4994,0,33,33,33,1,0.2,0.8,0.6,0.4,,,,,,,,,,,,,,,0.3359,,0.2,0.8,0.4,0.6,0.6,0.4,0.4,0.6,,,0.328,,0.2,0.8,0.6,0.4,0.6,0.4,0.2,0.8,1,0
,,668bf5474a2939ef58354d28,66daf5c8293a61708caf6c4b,2024-09-06_13h32.12.162,mdp,2024.2.1,Win32,60.60606061,66d7945b1baad48e845df3ce,,,,,,,,,,,,,,,,,,,,,1337.5007,1337.5007,1337.5032,1338.7329,0,1,left,0.7023,,1338.7345,1339.7833,0,0,left,1339.7859,1340.7663,0,1,left,0,1340.7666,1340.7666,1340.7685,1342.267,0,34,34,34,1,0.2,0.8,0.6,0.4,,,,,,,,,,,,,,,0.5186,,0.2,0.8,0.4,0.6,0.6,0.4,0.4,0.6,,,0.4484,,0.2,0.8,0.6,0.4,0.6,0.4,0.2,0.8,1,0
,,668bf5474a2939ef58354d28,66daf5c8293a61708caf6c4b,2024-09-06_13h32.12.162,mdp,2024.2.1,Win32,60.60606061,66d7945b1baad48e845df3ce,,,,,,,,,,,,,,,,,,,,,1342.2685,1342.2685,1342.2715,1343.3172,0,1,left,0.5189,,1343.3207,1344.4009,0,0,left,1344.4042,1345.0507,0,1,left,0,1345.0511,1345.0511,1345.0538,1346.5501,0,35,35,35,1,0.2,0.8,0.6,0.4,,,,,,,,,,,,,,,0.5522,,0.2,0.8,0.4,0.6,0.6,0.4,0.4,0.6,,,0.1179,,0.2,0.8,0.6,0.4,0.6,0.4,0.2,0.8,1,0
,,668bf5474a2939ef58354d28,66daf5c8293a61708caf6c4b,2024-09-06_13h32.12.162,mdp,2024.2.1,Win32,60.60606061,66d7945b1baad48e845df3ce,,,,,,,,,,,,,,,,,,,,,1346.551,1346.5511,1346.5533,1347.4172,0,1,left,0.3375,,1347.42,1348.2003,0,0,left,1348.2015,1349.0843,0,1,left,0,1349.0846,1349.0847,1349.0877,1350.5839,0,36,36,36,1,0.2,0.8,0.6,0.4,,,,,,,,,,,,,,,0.2492,,0.2,0.8,0.4,0.6,0.6,0.4,0.4,0.6,,,0.3672,,0.2,0.8,0.6,0.4,0.6,0.4,0.2,0.8,1,0
,,668bf5474a2939ef58354d28,66daf5c8293a61708caf6c4b,2024-09-06_13h32.12.162,mdp,2024.2.1,Win32,60.60606061,66d7945b1baad48e845df3ce,,,,,,,,,,,,,,,,,,,,,1350.5847,1350.5847,1350.5869,1351.1679,0,1,left,0.0485,,1351.1716,1351.7177,0,0,left,1351.7216,1352.5847,0,1,left,0,1352.5849,1352.5849,1352.5884,1354.0841,0,37,37,37,1,0.2,0.8,0.6,0.4,,,,,,,,,,,,,,,0.0202,,0.2,0.8,0.4,0.6,0.6,0.4,0.4,0.6,,,0.334,,0.2,0.8,0.6,0.4,0.6,0.4,0.2,0.8,1,0
,,668bf5474a2939ef58354d28,66daf5c8293a61708caf6c4b,2024-09-06_13h32.12.162,mdp,2024.2.1,Win32,60.60606061,66d7945b1baad48e845df3ce,,,,,,,,,,,,,,,,,,,,,1354.0847,1354.0847,1354.0868,1355.2174,1,1,right,0.6049,,1355.2189,1355.9846,0,0,left,1355.9873,1356.6012,0,0,left,1,1356.6013,1356.6016,1356.604,1358.1009,0,38,38,38,1,0.2,0.8,0.6,0.4,,,,,,,,,,,,,,,0.2341,,0.2,0.8,0.4,0.6,0.6,0.4,0.4,0.6,,,0.087,,0.2,0.8,0.6,0.4,0.6,0.4,0.2,0.8,1,0
,,668bf5474a2939ef58354d28,66daf5c8293a61708caf6c4b,2024-09-06_13h32.12.162,mdp,2024.2.1,Win32,60.60606061,66d7945b1baad48e845df3ce,,,,,,,,,,,,,,,,,,,,,1358.1015,1358.1015,1358.1033,1362.2853,0,1,left,3.6521,,1362.3148,1362.9016,0,0,left,1362.9039,1363.6688,0,1,left,0,1363.669,1363.6692,1363.6724,1365.1685,0,39,39,39,1,0.2,0.8,0.6,0.4,,,,,,,,,,,,,,,0.081,,0.2,0.8,0.4,0.6,0.6,0.4,0.4,0.6,,,0.2516,,0.2,0.8,0.6,0.4,0.6,0.4,0.2,0.8,1,0
,,668bf5474a2939ef58354d28,66daf5c8293a61708caf6c4b,2024-09-06_13h32.12.162,mdp,2024.2.1,Win32,60.60606061,66d7945b1baad48e845df3ce,,,,,,,,,,,,,,,,,,,,,1365.1694,1365.1694,1365.1717,1370.7199,0,1,left,5.0205,,1370.7453,1371.5195,0,1,left,1371.5233,1372.3028,0,1,left,0,1372.3029,1372.303,1372.3063,1373.8023,0,40,40,40,1,0.2,0.8,0.6,0.4,,,,,,,,,,,,,,,0.2713,,0.2,0.8,0.4,0.6,0.6,0.4,0.4,0.6,,,0.2516,,0.2,0.8,0.6,0.4,0.6,0.4,0.2,0.8,1,0
,,668bf5474a2939ef58354d28,66daf5c8293a61708caf6c4b,2024-09-06_13h32.12.162,mdp,2024.2.1,Win32,60.60606061,66d7945b1baad48e845df3ce,,,,,,,,,,,,,,,,,,,,,1373.8033,1373.8034,1373.8056,1374.3531,0,1,left,0.0174,,1374.3568,1375.0197,0,0,left,1375.0234,1375.8691,0,1,left,0,1375.8692,1375.8692,1375.8708,1377.3691,0,41,41,41,1,0.2,0.8,0.6,0.4,,,,,,,,,,,,,,,0.141,,0.2,0.8,0.4,0.6,0.6,0.4,0.4,0.6,,,0.31,,0.2,0.8,0.6,0.4,0.6,0.4,0.2,0.8,1,0
,,668bf5474a2939ef58354d28,66daf5c8293a61708caf6c4b,2024-09-06_13h32.12.162,mdp,2024.2.1,Win32,60.60606061,66d7945b1baad48e845df3ce,,,,,,,,,,,,,,,,,,,,,1377.3696,1377.3697,1377.3718,1378.086,0,1,left,0.1815,,1378.0878,1378.6525,0,0,left,1378.6541,1379.3527,0,0,left,1,1379.3529,1379.3529,1379.3539,1380.8533,0,42,42,42,1,0.2,0.8,0.6,0.4,,,,,,,,,,,,,,,0.0397,,0.2,0.8,0.4,0.6,0.6,0.4,0.4,0.6,,,0.1645,,0.8,0.2,0.4,0.6,0.6,0.4,0.2,0.8,1,0
,,668bf5474a2939ef58354d28,66daf5c8293a61708caf6c4b,2024-09-06_13h32.12.162,mdp,2024.2.1,Win32,60.60606061,66d7945b1baad48e845df3ce,,,,,,,,,,,,,,,,,,,,,1380.8548,1380.8549,1380.8577,1381.7036,0,1,left,0.3212,,1381.7079,1382.5536,0,1,left,1382.5574,1385.8536,0,0,left,1,1385.8538,1385.8538,1385.8741,1387.3544,0,43,43,43,1,0.2,0.8,0.6,0.4,,,,,,,,,,,,,,,0.3178,,0.2,0.8,0.4,0.6,0.6,0.4,0.4,0.6,,,2.7596,,0.8,0.2,0.4,0.6,0.6,0.4,0.2,0.8,1,0
,,668bf5474a2939ef58354d28,66daf5c8293a61708caf6c4b,2024-09-06_13h32.12.162,mdp,2024.2.1,Win32,60.60606061,66d7945b1baad48e845df3ce,,,,,,,,,,,,,,,,,,,,,1387.356,1387.3561,1387.3586,1388.5045,0,1,left,0.6189,,1388.5076,1389.6211,0,1,left,1389.6242,1390.5548,0,1,left,0,1390.5554,1390.5556,1390.5579,1392.0547,0,44,44,44,1,0.2,0.8,0.6,0.4,,,,,,,,,,,,,,,0.5845,,0.2,0.8,0.4,0.6,0.6,0.4,0.4,0.6,,,0.4021,,0.8,0.2,0.4,0.6,0.6,0.4,0.2,0.8,1,0
,,668bf5474a2939ef58354d28,66daf5c8293a61708caf6c4b,2024-09-06_13h32.12.162,mdp,2024.2.1,Win32,60.60606061,66d7945b1baad48e845df3ce,,,,,,,,,,,,,,,,,,,,,1392.0557,1392.0558,1392.0573,1397.7227,0,0,left,5.1365,,1397.7472,1398.3713,0,1,left,1398.3744,1399.2547,0,0,left,1,1399.2549,1399.2549,1399.2574,1400.7543,0,45,45,45,1,0.2,0.8,0.6,0.4,,,,,,,,,,,,,,,0.116,,0.2,0.8,0.4,0.6,0.6,0.4,0.4,0.6,,,0.3509,,0.8,0.2,0.4,0.6,0.6,0.4,0.2,0.8,1,0
,,668bf5474a2939ef58354d28,66daf5c8293a61708caf6c4b,2024-09-06_13h32.12.162,mdp,2024.2.1,Win32,60.60606061,66d7945b1baad48e845df3ce,,,,,,,,,,,,,,,,,,,,,1400.7553,1400.7553,1400.7573,1401.4545,0,0,left,0.1661,,1401.4562,1402.021,0,0,left,1402.0222,1402.6212,0,0,left,1,1402.6214,1402.6214,1402.6227,1404.1217,0,46,46,46,1,0.2,0.8,0.6,0.4,,,,,,,,,,,,,,,0.0374,,0.2,0.8,0.4,0.6,0.6,0.4,0.4,0.6,,,0.0615,,0.8,0.2,0.4,0.6,0.6,0.4,0.2,0.8,1,0
,,668bf5474a2939ef58354d28,66daf5c8293a61708caf6c4b,2024-09-06_13h32.12.162,mdp,2024.2.1,Win32,60.60606061,66d7945b1baad48e845df3ce,,,,,,,,,,,,,,,,,,,,,1404.123,1404.1231,1404.1259,1405.0385,0,1,left,0.3828,,1405.0418,1405.9719,0,0,left,1405.9751,1406.9387,0,1,left,0,1406.9391,1406.9392,1406.9423,1408.4387,0,47,47,47,1,0.2,0.8,0.6,0.4,,,,,,,,,,,,,,,0.3957,,0.2,0.8,0.4,0.6,0.6,0.4,0.4,0.6,,,0.4344,,0.2,0.8,0.6,0.4,0.6,0.4,0.2,0.8,1,0
,,668bf5474a2939ef58354d28,66daf5c8293a61708caf6c4b,2024-09-06_13h32.12.162,mdp,2024.2.1,Win32,60.60606061,66d7945b1baad48e845df3ce,,,,,,,,,,,,,,,,,,,,,1408.4399,1408.44,1408.4426,1415.4391,0,0,left,6.4797,,1415.4592,1416.0555,0,0,left,1416.0568,1416.8058,0,1,left,0,1416.8059,1416.8059,1416.8082,1418.3059,0,48,48,48,1,0.2,0.8,0.6,0.4,,,,,,,,,,,,,,,0.0779,,0.2,0.8,0.4,0.6,0.6,0.4,0.4,0.6,,,0.2337,,0.2,0.8,0.6,0.4,0.6,0.4,0.2,0.8,1,0
,,668bf5474a2939ef58354d28,66daf5c8293a61708caf6c4b,2024-09-06_13h32.12.162,mdp,2024.2.1,Win32,60.60606061,66d7945b1baad48e845df3ce,,,,,,,,,,,,,,,,,,,,,1418.3069,1418.3069,1418.3092,1419.2899,0,1,left,0.454,,1419.2936,1420.0059,0,0,left,1420.0078,1420.9227,0,1,left,0,1420.9229,1420.9229,1420.9254,1422.4231,0,49,49,49,1,0.2,0.8,0.6,0.4,,,,,,,,,,,,,,,0.1804,,0.2,0.8,0.4,0.6,0.6,0.4,0.4,0.6,,,0.3998,,0.2,0.8,0.6,0.4,0.6,0.4,0.2,0.8,1,0
,,668bf5474a2939ef58354d28,66daf5c8293a61708caf6c4b,2024-09-06_13h32.12.162,mdp,2024.2.1,Win32,60.60606061,66d7945b1baad48e845df3ce,,,,,,,,,,,,,,,,,,,,,,,,,,,,,,,,,,,,,,,,,,,,,,,,,,,,,,,,1422.4235,1470.1268,0,3,3,0,1,imgs/goat.png,imgs/lion.png,imgs/giraffe.png,imgs/dog.png,imgs/bear.png,,,,,,,,,,,,,,,,,,,,,,,,
,,668bf5474a2939ef58354d28,66daf5c8293a61708caf6c4b,2024-09-06_13h32.12.162,mdp,2024.2.1,Win32,60.60606061,66d7945b1baad48e845df3ce,,,,,,,,,,,,,,1,seqs/st1seq40.csv,1470.1437,1471.493,space,0.8361,,1471.4987,1471.4988,1471.5008,1485.1773,0,0,left,13.1463,,1485.1905,1485.1911,0,0,,1485.1919,1485.1924,0,0,,1,1485.1924,1485.1925,1485.193,1486.6947,0,0,0,0,1,0.6,0.4,0.8,0.2,1,0,,,,,,,,,,,,,,,,,,,,,,,,,,,,,,,,,,,,
,,668bf5474a2939ef58354d28,66daf5c8293a61708caf6c4b,2024-09-06_13h32.12.162,mdp,2024.2.1,Win32,60.60606061,66d7945b1baad48e845df3ce,,,,,,,,,,,,,,,,,,,,,1486.696,1486.6961,1486.6985,1491.3948,0,0,left,4.1669,,1491.4155,1491.4163,0,0,,1491.4172,1491.4179,0,0,,1,1491.4179,1491.4179,1491.4186,1492.9116,0,1,1,1,1,0.6,0.4,0.8,0.2,1,0,,,,,,,,,,,,,,,,,,,,,,,,,,,,,,,,,,,,
,,668bf5474a2939ef58354d28,66daf5c8293a61708caf6c4b,2024-09-06_13h32.12.162,mdp,2024.2.1,Win32,60.60606061,66d7945b1baad48e845df3ce,,,,,,,,,,,,,,,,,,,,,1492.9126,1492.9126,1492.9152,1494.5279,0,1,left,1.085,,1494.5293,1494.5308,0,1,,1494.5317,1494.5336,0,1,,0,1494.5337,1494.5337,1494.5348,1496.0283,0,2,2,2,1,0.2,0.8,0.6,0.4,1,0,,,,,,,,,,,,,,,,,,,,,,,,,,,,,,,,,,,,
,,668bf5474a2939ef58354d28,66daf5c8293a61708caf6c4b,2024-09-06_13h32.12.162,mdp,2024.2.1,Win32,60.60606061,66d7945b1baad48e845df3ce,,,,,,,,,,,,,,,,,,,,,1496.0288,1496.0289,1496.0309,1497.0949,0,1,left,0.5366,,1497.0965,1497.0977,0,1,,1497.0984,1497.0999,0,0,,0,1497.1,1497.1001,1497.1015,1498.5956,0,3,3,3,1,0.2,0.8,0.6,0.4,1,0,,,,,,,,,,,,,,,,,,,,,,,,,,,,,,,,,,,,
,,668bf5474a2939ef58354d28,66daf5c8293a61708caf6c4b,2024-09-06_13h32.12.162,mdp,2024.2.1,Win32,60.60606061,66d7945b1baad48e845df3ce,,,,,,,,,,,,,,,,,,,,,1498.5969,1498.597,1498.5994,1499.8285,0,0,left,0.7038,,1499.83,1499.8312,0,1,,1499.8319,1499.8331,0,1,,1,1499.8332,1499.8332,1499.8348,1501.3292,0,4,4,4,1,0.2,0.8,0.6,0.4,1,0,,,,,,,,,,,,,,,,,,,,,,,,,,,,,,,,,,,,
,,668bf5474a2939ef58354d28,66daf5c8293a61708caf6c4b,2024-09-06_13h32.12.162,mdp,2024.2.1,Win32,60.60606061,66d7945b1baad48e845df3ce,,,,,,,,,,,,,,,,,,,,,1501.3304,1501.3304,1501.333,1502.4128,0,0,left,0.5563,,1502.4147,1502.4155,0,1,,1502.4174,1502.4188,0,1,,1,1502.4189,1502.4189,1502.4195,1503.9123,0,5,5,5,1,0.6,0.4,0.8,0.2,1,0,,,,,,,,,,,,,,,,,,,,,,,,,,,,,,,,,,,,
,,668bf5474a2939ef58354d28,66daf5c8293a61708caf6c4b,2024-09-06_13h32.12.162,mdp,2024.2.1,Win32,60.60606061,66d7945b1baad48e845df3ce,,,,,,,,,,,,,,,,,,,,,1503.913,1503.9131,1503.9156,1504.9288,0,1,left,0.4845,,1504.9299,1504.9314,0,0,,1504.9318,1504.9323,0,0,,0,1504.9323,1504.9323,1504.9336,1506.4295,0,6,6,6,1,0.6,0.4,0.8,0.2,1,0,,,,,,,,,,,,,,,,,,,,,,,,,,,,,,,,,,,,
,,668bf5474a2939ef58354d28,66daf5c8293a61708caf6c4b,2024-09-06_13h32.12.162,mdp,2024.2.1,Win32,60.60606061,66d7945b1baad48e845df3ce,,,,,,,,,,,,,,,,,,,,,1506.4304,1506.4304,1506.4329,1507.4128,0,1,left,0.4519,,1507.4155,1507.4164,0,0,,1507.4188,1507.4201,0,1,,0,1507.4202,1507.4202,1507.4211,1508.9124,0,7,7,7,1,0.2,0.8,0.6,0.4,1,0,,,,,,,,,,,,,,,,,,,,,,,,,,,,,,,,,,,,
,,668bf5474a2939ef58354d28,66daf5c8293a61708caf6c4b,2024-09-06_13h32.12.162,mdp,2024.2.1,Win32,60.60606061,66d7945b1baad48e845df3ce,,,,,,,,,,,,,,,,,,,,,1508.9128,1508.9129,1508.9149,1509.8127,0,1,left,0.3667,,1509.8142,1509.8154,0,1,,1509.8163,1509.8178,0,1,,0,1509.8179,1509.8179,1509.8193,1511.3127,0,8,8,8,1,0.2,0.8,0.6,0.4,1,0,,,,,,,,,,,,,,,,,,,,,,,,,,,,,,,,,,,,
,,668bf5474a2939ef58354d28,66daf5c8293a61708caf6c4b,2024-09-06_13h32.12.162,mdp,2024.2.1,Win32,60.60606061,66d7945b1baad48e845df3ce,,,,,,,,,,,,,,,,,,,,,1511.3135,1511.3135,1511.3154,1512.3634,1,0,right,0.5188,,1512.367,1512.3688,0,0,,1512.3711,1512.3721,0,1,,1,1512.3722,1512.3722,1512.3733,1513.8631,0,9,9,9,1,0.2,0.8,0.6,0.4,1,0,,,,,,,,,,,,,,,,,,,,,,,,,,,,,,,,,,,,
,,668bf5474a2939ef58354d28,66daf5c8293a61708caf6c4b,2024-09-06_13h32.12.162,mdp,2024.2.1,Win32,60.60606061,66d7945b1baad48e845df3ce,,,,,,,,,,,,,,,,,,,,,1513.8638,1513.8639,1513.866,1514.9636,1,1,right,0.5741,,1514.9668,1514.9682,0,0,,1514.9708,1514.972,0,1,,0,1514.972,1514.9721,1514.9733,1516.4636,0,10,10,10,1,0.2,0.8,0.6,0.4,1,0,,,,,,,,,,,,,,,,,,,,,,,,,,,,,,,,,,,,
,,668bf5474a2939ef58354d28,66daf5c8293a61708caf6c4b,2024-09-06_13h32.12.162,mdp,2024.2.1,Win32,60.60606061,66d7945b1baad48e845df3ce,,,,,,,,,,,,,,,,,,,,,1516.4649,1516.4649,1516.4679,1517.0138,0,0,left,0.0156,,1517.0172,1517.0188,0,1,,1517.0214,1517.0224,0,1,,1,1517.0225,1517.0225,1517.0236,1518.5134,0,11,11,11,1,0.2,0.8,0.6,0.4,1,0,,,,,,,,,,,,,,,,,,,,,,,,,,,,,,,,,,,,
,,668bf5474a2939ef58354d28,66daf5c8293a61708caf6c4b,2024-09-06_13h32.12.162,mdp,2024.2.1,Win32,60.60606061,66d7945b1baad48e845df3ce,,,,,,,,,,,,,,,,,,,,,1518.5141,1518.5142,1518.5165,1519.5313,0,0,left,0.4884,,1519.5344,1519.5363,0,1,,1519.5384,1519.5395,0,1,,1,1519.5395,1519.5395,1519.5408,1521.0306,0,12,12,12,1,0.2,0.8,0.6,0.4,1,0,,,,,,,,,,,,,,,,,,,,,,,,,,,,,,,,,,,,
,,668bf5474a2939ef58354d28,66daf5c8293a61708caf6c4b,2024-09-06_13h32.12.162,mdp,2024.2.1,Win32,60.60606061,66d7945b1baad48e845df3ce,,,,,,,,,,,,,,,,,,,,,1521.0319,1521.032,1521.0349,1522.514,0,1,left,0.9512,,1522.5175,1522.519,0,1,,1522.522,1522.5231,0,1,,0,1522.5232,1522.5232,1522.5242,1524.0144,0,13,13,13,1,0.2,0.8,0.6,0.4,1,0,,,,,,,,,,,,,,,,,,,,,,,,,,,,,,,,,,,,
,,668bf5474a2939ef58354d28,66daf5c8293a61708caf6c4b,2024-09-06_13h32.12.162,mdp,2024.2.1,Win32,60.60606061,66d7945b1baad48e845df3ce,,,,,,,,,,,,,,,,,,,,,1524.0157,1524.0157,1524.0184,1524.5976,1,1,right,0.0509,,1524.6006,1524.6021,0,0,,1524.6046,1524.6055,0,1,,0,1524.6056,1524.6056,1524.6065,1526.0977,0,14,14,14,1,0.2,0.8,0.6,0.4,1,0,,,,,,,,,,,,,,,,,,,,,,,,,,,,,,,,,,,,
,,668bf5474a2939ef58354d28,66daf5c8293a61708caf6c4b,2024-09-06_13h32.12.162,mdp,2024.2.1,Win32,60.60606061,66d7945b1baad48e845df3ce,,,,,,,,,,,,,,,,,,,,,1526.099,1526.0991,1526.1017,1526.7153,0,0,left,0.0874,,1526.7197,1526.7227,0,1,,1526.7247,1526.726,0,1,,1,1526.7261,1526.7261,1526.7277,1528.214,0,15,15,15,1,0.6,0.4,0.4,0.6,1,0,,,,,,,,,,,,,,,,,,,,,,,,,,,,,,,,,,,,
,,668bf5474a2939ef58354d28,66daf5c8293a61708caf6c4b,2024-09-06_13h32.12.162,mdp,2024.2.1,Win32,60.60606061,66d7945b1baad48e845df3ce,,,,,,,,,,,,,,,,,,,,,1528.2149,1528.2149,1528.2171,1528.9308,0,1,left,0.1843,,1528.9333,1528.9345,0,1,,1528.9368,1528.938,0,1,,0,1528.938,1528.938,1528.9388,1530.4312,0,16,16,16,1,0.2,0.8,0.8,0.2,1,0,,,,,,,,,,,,,,,,,,,,,,,,,,,,,,,,,,,,
,,668bf5474a2939ef58354d28,66daf5c8293a61708caf6c4b,2024-09-06_13h32.12.162,mdp,2024.2.1,Win32,60.60606061,66d7945b1baad48e845df3ce,,,,,,,,,,,,,,,,,,,,,1530.4325,1530.4325,1530.435,1532.5481,0,1,left,1.5817,,1532.5516,1532.5532,0,1,,1532.5557,1532.5569,0,0,,0,1532.5569,1532.5569,1532.5581,1534.0478,0,17,17,17,1,0.2,0.8,0.8,0.2,1,0,,,,,,,,,,,,,,,,,,,,,,,,,,,,,,,,,,,,
,,668bf5474a2939ef58354d28,66daf5c8293a61708caf6c4b,2024-09-06_13h32.12.162,mdp,2024.2.1,Win32,60.60606061,66d7945b1baad48e845df3ce,,,,,,,,,,,,,,,,,,,,,1534.0482,1534.0482,1534.0501,1535.4317,0,0,left,0.852,,1535.4349,1535.436,0,1,,1535.4387,1535.4397,0,0,,1,1535.4398,1535.4399,1535.4409,1536.9314,0,18,18,18,1,0.2,0.8,0.8,0.2,1,0,,,,,,,,,,,,,,,,,,,,,,,,,,,,,,,,,,,,
,,668bf5474a2939ef58354d28,66daf5c8293a61708caf6c4b,2024-09-06_13h32.12.162,mdp,2024.2.1,Win32,60.60606061,66d7945b1baad48e845df3ce,,,,,,,,,,,,,,,,,,,,,1536.9322,1536.9322,1536.9343,1538.7154,0,1,left,1.2568,,1538.72,1538.7232,0,1,,1538.7254,1538.7267,0,1,,0,1538.7268,1538.7268,1538.7284,1540.2151,0,19,19,19,1,0.2,0.8,0.8,0.2,1,0,,,,,,,,,,,,,,,,,,,,,,,,,,,,,,,,,,,,
,,668bf5474a2939ef58354d28,66daf5c8293a61708caf6c4b,2024-09-06_13h32.12.162,mdp,2024.2.1,Win32,60.60606061,66d7945b1baad48e845df3ce,,,,,,,,,,,,,,,,,,,,,1540.216,1540.2161,1540.2186,1542.0488,0,0,left,1.304,,1542.0522,1542.0537,0,1,,1542.0561,1542.0571,0,1,,1,1542.0572,1542.0572,1542.0582,1543.5492,0,20,20,20,1,0.2,0.8,0.8,0.2,1,0,,,,,,,,,,,,,,,,,,,,,,,,,,,,,,,,,,,,
,,668bf5474a2939ef58354d28,66daf5c8293a61708caf6c4b,2024-09-06_13h32.12.162,mdp,2024.2.1,Win32,60.60606061,66d7945b1baad48e845df3ce,,,,,,,,,,,,,,,,,,,,,1543.5506,1543.5506,1543.5535,1544.6658,1,0,right,0.5845,,1544.6692,1544.6706,0,0,,1544.6732,1544.6744,0,0,,1,1544.6745,1544.6745,1544.6756,1546.166,0,21,21,21,1,0.2,0.8,0.8,0.2,1,0,,,,,,,,,,,,,,,,,,,,,,,,,,,,,,,,,,,,
,,668bf5474a2939ef58354d28,66daf5c8293a61708caf6c4b,2024-09-06_13h32.12.162,mdp,2024.2.1,Win32,60.60606061,66d7945b1baad48e845df3ce,,,,,,,,,,,,,,,,,,,,,1546.1672,1546.1673,1546.1702,1546.949,0,1,left,0.251,,1546.9517,1546.9524,0,0,,1546.9544,1546.9559,0,0,,0,1546.9559,1546.9559,1546.9568,1548.4495,0,22,22,22,1,0.8,0.2,0.6,0.4,1,0,,,,,,,,,,,,,,,,,,,,,,,,,,,,,,,,,,,,
,,668bf5474a2939ef58354d28,66daf5c8293a61708caf6c4b,2024-09-06_13h32.12.162,mdp,2024.2.1,Win32,60.60606061,66d7945b1baad48e845df3ce,,,,,,,,,,,,,,,,,,,,,1548.4507,1548.4507,1548.4532,1549.3655,1,1,right,0.3873,,1549.3668,1549.3683,0,1,,1549.3687,1549.3696,0,1,,0,1549.3697,1549.3697,1549.3715,1550.8656,0,23,23,23,1,0.6,0.4,0.2,0.8,1,0,,,,,,,,,,,,,,,,,,,,,,,,,,,,,,,,,,,,
,,668bf5474a2939ef58354d28,66daf5c8293a61708caf6c4b,2024-09-06_13h32.12.162,mdp,2024.2.1,Win32,60.60606061,66d7945b1baad48e845df3ce,,,,,,,,,,,,,,,,,,,,,1550.8661,1550.8662,1550.8681,1551.4825,0,0,left,0.0841,,1551.4841,1551.4855,0,0,,1551.4862,1551.4879,0,0,,1,1551.4881,1551.4881,1551.4894,1552.9825,0,24,24,24,1,0.8,0.2,0.6,0.4,1,0,,,,,,,,,,,,,,,,,,,,,,,,,,,,,,,,,,,,
,,668bf5474a2939ef58354d28,66daf5c8293a61708caf6c4b,2024-09-06_13h32.12.162,mdp,2024.2.1,Win32,60.60606061,66d7945b1baad48e845df3ce,,,,,,,,,,,,,,,,,,,,,1552.9831,1552.9831,1552.985,1553.566,0,0,left,0.0508,,1553.5687,1553.5693,0,0,,1553.5704,1553.5725,0,0,,1,1553.5726,1553.5726,1553.5733,1555.0666,0,25,25,25,1,0.8,0.2,0.6,0.4,1,0,,,,,,,,,,,,,,,,,,,,,,,,,,,,,,,,,,,,
,,668bf5474a2939ef58354d28,66daf5c8293a61708caf6c4b,2024-09-06_13h32.12.162,mdp,2024.2.1,Win32,60.60606061,66d7945b1baad48e845df3ce,,,,,,,,,,,,,,,,,,,,,1555.0678,1555.0679,1555.0705,1555.8994,0,1,left,0.3008,,1555.9008,1555.9021,0,1,,1555.9028,1555.9047,0,0,,0,1555.9049,1555.9049,1555.9064,1557.4,0,26,26,26,1,0.4,0.6,0.8,0.2,1,0,,,,,,,,,,,,,,,,,,,,,,,,,,,,,,,,,,,,
,,668bf5474a2939ef58354d28,66daf5c8293a61708caf6c4b,2024-09-06_13h32.12.162,mdp,2024.2.1,Win32,60.60606061,66d7945b1baad48e845df3ce,,,,,,,,,,,,,,,,,,,,,1557.4012,1557.4013,1557.4041,1558.3003,1,0,right,0.3675,,1558.304,1558.3059,0,1,,1558.3081,1558.3091,0,0,,1,1558.3092,1558.3092,1558.3102,1559.8004,0,27,27,27,1,0.4,0.6,0.8,0.2,1,0,,,,,,,,,,,,,,,,,,,,,,,,,,,,,,,,,,,,
,,668bf5474a2939ef58354d28,66daf5c8293a61708caf6c4b,2024-09-06_13h32.12.162,mdp,2024.2.1,Win32,60.60606061,66d7945b1baad48e845df3ce,,,,,,,,,,,,,,,,,,,,,1559.8017,1559.8017,1559.8047,1560.6332,1,0,right,0.2999,,1560.6356,1560.6364,0,0,,1560.6379,1560.6397,0,0,,1,1560.6398,1560.6399,1560.6407,1562.1341,0,28,28,28,1,0.4,0.6,0.8,0.2,1,0,,,,,,,,,,,,,,,,,,,,,,,,,,,,,,,,,,,,
,,668bf5474a2939ef58354d28,66daf5c8293a61708caf6c4b,2024-09-06_13h32.12.162,mdp,2024.2.1,Win32,60.60606061,66d7945b1baad48e845df3ce,,,,,,,,,,,,,,,,,,,,,1562.1354,1562.1354,1562.1382,1562.9004,1,1,right,0.2343,,1562.9043,1562.9065,0,1,,1562.9086,1562.9098,0,0,,0,1562.9098,1562.9098,1562.9111,1564.4002,0,29,29,29,1,0.6,0.4,0.6,0.4,1,0,,,,,,,,,,,,,,,,,,,,,,,,,,,,,,,,,,,,
,,668bf5474a2939ef58354d28,66daf5c8293a61708caf6c4b,2024-09-06_13h32.12.162,mdp,2024.2.1,Win32,60.60606061,66d7945b1baad48e845df3ce,,,,,,,,,,,,,,,,,,,,,1564.4009,1564.4009,1564.4031,1565.4174,0,0,left,0.4886,,1565.4209,1565.4225,0,0,,1565.4252,1565.4268,0,0,,1,1565.4269,1565.4269,1565.4286,1566.9177,0,30,30,30,1,0.6,0.4,0.6,0.4,1,0,,,,,,,,,,,,,,,,,,,,,,,,,,,,,,,,,,,,
,,668bf5474a2939ef58354d28,66daf5c8293a61708caf6c4b,2024-09-06_13h32.12.162,mdp,2024.2.1,Win32,60.60606061,66d7945b1baad48e845df3ce,,,,,,,,,,,,,,,,,,,,,1566.919,1566.919,1566.922,1567.867,0,1,left,0.4172,,1567.8686,1567.8699,0,0,,1567.8704,1567.8718,0,1,,0,1567.8722,1567.8722,1567.8743,1569.3676,0,31,31,31,1,0.6,0.4,0.6,0.4,1,0,,,,,,,,,,,,,,,,,,,,,,,,,,,,,,,,,,,,
,,668bf5474a2939ef58354d28,66daf5c8293a61708caf6c4b,2024-09-06_13h32.12.162,mdp,2024.2.1,Win32,60.60606061,66d7945b1baad48e845df3ce,,,,,,,,,,,,,,,,,,,,,1569.3689,1569.369,1569.3719,1570.1677,1,1,right,0.266,,1570.1714,1570.173,0,0,,1570.1754,1570.1766,0,0,,0,1570.1767,1570.1767,1570.1777,1571.6678,0,32,32,32,1,0.6,0.4,0.6,0.4,1,0,,,,,,,,,,,,,,,,,,,,,,,,,,,,,,,,,,,,
,,668bf5474a2939ef58354d28,66daf5c8293a61708caf6c4b,2024-09-06_13h32.12.162,mdp,2024.2.1,Win32,60.60606061,66d7945b1baad48e845df3ce,,,,,,,,,,,,,,,,,,,,,1571.6692,1571.6693,1571.672,1572.4512,0,0,left,0.2552,,1572.4548,1572.4566,0,0,,1572.4588,1572.4598,0,0,,1,1572.4599,1572.4599,1572.4611,1573.951,0,33,33,33,1,0.8,0.2,0.4,0.6,1,0,,,,,,,,,,,,,,,,,,,,,,,,,,,,,,,,,,,,
,,668bf5474a2939ef58354d28,66daf5c8293a61708caf6c4b,2024-09-06_13h32.12.162,mdp,2024.2.1,Win32,60.60606061,66d7945b1baad48e845df3ce,,,,,,,,,,,,,,,,,,,,,1573.9518,1573.9518,1573.9538,1574.9176,1,1,right,0.4402,,1574.9191,1574.9203,0,0,,1574.921,1574.9221,0,0,,0,1574.9221,1574.9222,1574.9239,1576.4177,0,34,34,34,1,0.8,0.2,0.4,0.6,1,0,,,,,,,,,,,,,,,,,,,,,,,,,,,,,,,,,,,,
,,668bf5474a2939ef58354d28,66daf5c8293a61708caf6c4b,2024-09-06_13h32.12.162,mdp,2024.2.1,Win32,60.60606061,66d7945b1baad48e845df3ce,,,,,,,,,,,,,,,,,,,,,1576.4183,1576.4183,1576.4203,1577.0344,0,0,left,0.0873,,1577.0362,1577.0373,0,0,,1577.0385,1577.0409,0,0,,1,1577.0411,1577.0411,1577.0418,1578.5345,0,35,35,35,1,0.8,0.2,0.4,0.6,1,0,,,,,,,,,,,,,,,,,,,,,,,,,,,,,,,,,,,,
,,668bf5474a2939ef58354d28,66daf5c8293a61708caf6c4b,2024-09-06_13h32.12.162,mdp,2024.2.1,Win32,60.60606061,66d7945b1baad48e845df3ce,,,,,,,,,,,,,,,,,,,,,1578.535,1578.535,1578.5368,1579.3685,0,0,left,0.3051,,1579.3718,1579.3734,0,0,,1579.3758,1579.377,0,0,,1,1579.377,1579.377,1579.3783,1580.8683,0,36,36,36,1,0.8,0.2,0.4,0.6,1,0,,,,,,,,,,,,,,,,,,,,,,,,,,,,,,,,,,,,
,,668bf5474a2939ef58354d28,66daf5c8293a61708caf6c4b,2024-09-06_13h32.12.162,mdp,2024.2.1,Win32,60.60606061,66d7945b1baad48e845df3ce,,,,,,,,,,,,,,,,,,,,,1580.8693,1580.8693,1580.8716,1581.685,0,0,left,0.2842,,1581.6877,1581.6886,0,0,,1581.6909,1581.6922,0,0,,1,1581.6923,1581.6923,1581.693,1583.1853,0,37,37,37,1,0.8,0.2,0.4,0.6,1,0,,,,,,,,,,,,,,,,,,,,,,,,,,,,,,,,,,,,
,,668bf5474a2939ef58354d28,66daf5c8293a61708caf6c4b,2024-09-06_13h32.12.162,mdp,2024.2.1,Win32,60.60606061,66d7945b1baad48e845df3ce,,,,,,,,,,,,,,,,,,,,,1583.1868,1583.1869,1583.1899,1584.0016,0,0,left,0.2782,,1584.0036,1584.0044,0,0,,1584.0052,1584.0067,0,0,,1,1584.0068,1584.0068,1584.0082,1585.5022,0,38,38,38,1,0.8,0.2,0.4,0.6,1,0,,,,,,,,,,,,,,,,,,,,,,,,,,,,,,,,,,,,
,,668bf5474a2939ef58354d28,66daf5c8293a61708caf6c4b,2024-09-06_13h32.12.162,mdp,2024.2.1,Win32,60.60606061,66d7945b1baad48e845df3ce,,,,,,,,,,,,,,,,,,,,,1585.5033,1585.5033,1585.506,1587.1851,0,1,left,1.1566,,1587.1866,1587.1877,0,1,,1587.1882,1587.1889,0,1,,0,1587.1889,1587.1889,1587.1904,1588.6858,0,39,39,39,1,0.2,0.8,0.8,0.2,1,0,,,,,,,,,,,,,,,,,,,,,,,,,,,,,,,,,,,,
