init_exp.started,init_exp.stopped,participant,session,date,expName,psychopyVersion,OS,frameRate,study_id,disp_instruction.started,disp_instruction.stopped,instruction.thisRepN,instruction.thisTrialN,instruction.thisN,instruction.thisIndex,instruction.ran,instimg_path,consent.started,consent.stopped,key_resp_3.keys,key_resp_3.rt,key_resp_3.duration,n_steps,sequence_path,init_block.started,init_block.stopped,key_resp.keys,key_resp.rt,key_resp.duration,init_trials.started,init_trials.stopped,step0.started,step0.stopped,act0,s1,res0.keys,res0.rt,res0.duration,step1.started,step1.stopped,act1,s2,res1.keys,step2.started,step2.stopped,act2,s3,res2.keys,rew,reward_comp.started,reward_comp.stopped,reward_disp.started,reward_disp.stopped,trials.thisRepN,trials.thisTrialN,trials.thisN,trials.thisIndex,trials.ran,s00a0s10,s00a0s11,s00a1s10,s00a1s11,rew10,rew11,break_block.started,break_block.stopped,block.thisRepN,block.thisTrialN,block.thisN,block.thisIndex,block.ran,s00path,s10path,s11path,s20path,s21path,res1.rt,res1.duration,s10a0s20,s10a0s21,s10a1s20,s10a1s21,s11a0s20,s11a0s21,s11a1s20,s11a1s21,rew20,rew21,res2.rt,res2.duration,s20a0s30,s20a0s31,s20a1s30,s20a1s31,s21a0s30,s21a0s31,s21a1s30,s21a1s31,rew30,rew31
9.99999E-05,0.001,6692d088fc492a0498191caf,66daf5b2ad46a82650c384c6,2024-09-06_14h36.37.653,mdp,2024.2.1,Win32,13.33333333,66d7945b1baad48e845df3ce,,,,,,,,,,,,,,,,,,,,,,,,,,,,,,,,,,,,,,,,,,,,,,,,,,,,,,,,,,,,,,,,,,,,,,,,,,,,,,,,,,,,,,,,,,,
,,6692d088fc492a0498191caf,66daf5b2ad46a82650c384c6,2024-09-06_14h36.37.653,mdp,2024.2.1,Win32,13.33333333,66d7945b1baad48e845df3ce,0.0047,33.4514,0,0,0,0,1,rlnn_exp/rlnn_exp.001.png,,,,,,,,,,,,,,,,,,,,,,,,,,,,,,,,,,,,,,,,,,,,,,,,,,,,,,,,,,,,,,,,,,,,,,,,,,,,,,,,,,,
,,6692d088fc492a0498191caf,66daf5b2ad46a82650c384c6,2024-09-06_14h36.37.653,mdp,2024.2.1,Win32,13.33333333,66d7945b1baad48e845df3ce,33.452,57.3255,0,1,1,1,1,rlnn_exp/rlnn_exp.002.png,,,,,,,,,,,,,,,,,,,,,,,,,,,,,,,,,,,,,,,,,,,,,,,,,,,,,,,,,,,,,,,,,,,,,,,,,,,,,,,,,,,
,,6692d088fc492a0498191caf,66daf5b2ad46a82650c384c6,2024-09-06_14h36.37.653,mdp,2024.2.1,Win32,13.33333333,66d7945b1baad48e845df3ce,57.3337,79.5144,0,2,2,2,1,rlnn_exp/rlnn_exp.003.png,,,,,,,,,,,,,,,,,,,,,,,,,,,,,,,,,,,,,,,,,,,,,,,,,,,,,,,,,,,,,,,,,,,,,,,,,,,,,,,,,,,
,,6692d088fc492a0498191caf,66daf5b2ad46a82650c384c6,2024-09-06_14h36.37.653,mdp,2024.2.1,Win32,13.33333333,66d7945b1baad48e845df3ce,79.5225,107.898,0,3,3,3,1,rlnn_exp/rlnn_exp.004.png,,,,,,,,,,,,,,,,,,,,,,,,,,,,,,,,,,,,,,,,,,,,,,,,,,,,,,,,,,,,,,,,,,,,,,,,,,,,,,,,,,,
,,6692d088fc492a0498191caf,66daf5b2ad46a82650c384c6,2024-09-06_14h36.37.653,mdp,2024.2.1,Win32,13.33333333,66d7945b1baad48e845df3ce,,,,,,,,,107.9059,149.9074,y,31.896,,,,,,,,,,,,,,,,,,,,,,,,,,,,,,,,,,,,,,,,,,,,,,,,,,,,,,,,,,,,,,,,,,,,,,,,,,,,,,,
,,6692d088fc492a0498191caf,66daf5b2ad46a82650c384c6,2024-09-06_14h36.37.653,mdp,2024.2.1,Win32,13.33333333,66d7945b1baad48e845df3ce,,,,,,,,,,,,,,1,seqs/st1seq23.csv,149.9184,152.8857,space,2.3943,,152.8879,152.888,152.8882,156.4316,1,0,right,2.9577,,156.4401,156.4415,,0,,156.4417,156.4426,,0,,1,156.4427,156.4427,156.4431,157.9341,0,0,0,0,1,0.2,0.8,0.8,0.2,1,0,,,,,,,,,,,,,,,,,,,,,,,,,,,,,,,,,,,,
,,6692d088fc492a0498191caf,66daf5b2ad46a82650c384c6,2024-09-06_14h36.37.653,mdp,2024.2.1,Win32,13.33333333,66d7945b1baad48e845df3ce,,,,,,,,,,,,,,,,,,,,,157.9344,157.9344,157.9351,160.1686,1,0,right,1.5864,,160.1693,160.1698,,0,,160.1703,160.1707,,0,,1,160.1707,160.1707,160.1711,161.6891,0,1,1,1,1,0.2,0.8,0.8,0.2,1,0,,,,,,,,,,,,,,,,,,,,,,,,,,,,,,,,,,,,
,,6692d088fc492a0498191caf,66daf5b2ad46a82650c384c6,2024-09-06_14h36.37.653,mdp,2024.2.1,Win32,13.33333333,66d7945b1baad48e845df3ce,,,,,,,,,,,,,,,,,,,,,161.6894,161.6894,161.6904,163.2649,1,0,right,1.0039,,163.2656,163.2661,,1,,163.2665,163.2669,,0,,1,163.2669,163.2669,163.2672,164.7746,0,2,2,2,1,0.2,0.8,0.8,0.2,1,0,,,,,,,,,,,,,,,,,,,,,,,,,,,,,,,,,,,,
,,6692d088fc492a0498191caf,66daf5b2ad46a82650c384c6,2024-09-06_14h36.37.653,mdp,2024.2.1,Win32,13.33333333,66d7945b1baad48e845df3ce,,,,,,,,,,,,,,,,,,,,,164.7749,164.7749,164.7757,166.2766,1,0,right,0.8516,,166.2772,166.2777,,0,,166.2781,166.2785,,1,,1,166.2786,166.2786,166.2788,167.7781,0,3,3,3,1,0.2,0.8,0.8,0.2,1,0,,,,,,,,,,,,,,,,,,,,,,,,,,,,,,,,,,,,
,,6692d088fc492a0498191caf,66daf5b2ad46a82650c384c6,2024-09-06_14h36.37.653,mdp,2024.2.1,Win32,13.33333333,66d7945b1baad48e845df3ce,,,,,,,,,,,,,,,,,,,,,167.7784,167.7784,167.779,168.8632,1,0,right,0.4992,,168.864,168.8644,,0,,168.8649,168.8652,,1,,1,168.8652,168.8652,168.8655,170.359,0,4,4,4,1,0.2,0.8,0.8,0.2,1,0,,,,,,,,,,,,,,,,,,,,,,,,,,,,,,,,,,,,
,,6692d088fc492a0498191caf,66daf5b2ad46a82650c384c6,2024-09-06_14h36.37.653,mdp,2024.2.1,Win32,13.33333333,66d7945b1baad48e845df3ce,,,,,,,,,,,,,,,,,,,,,170.3592,170.3592,170.3601,171.7337,1,0,right,0.7837,,171.7343,171.7348,,0,,171.7351,171.7355,,0,,1,171.7355,171.7355,171.7357,173.2276,0,5,5,5,1,0.6,0.4,0.6,0.4,1,0,,,,,,,,,,,,,,,,,,,,,,,,,,,,,,,,,,,,
,,6692d088fc492a0498191caf,66daf5b2ad46a82650c384c6,2024-09-06_14h36.37.653,mdp,2024.2.1,Win32,13.33333333,66d7945b1baad48e845df3ce,,,,,,,,,,,,,,,,,,,,,173.2278,173.2278,173.2286,174.5636,1,0,right,0.7505,,174.5642,174.5646,,0,,174.5649,174.5652,,1,,1,174.5653,174.5653,174.5656,176.0748,0,6,6,6,1,0.8,0.2,0.8,0.2,1,0,,,,,,,,,,,,,,,,,,,,,,,,,,,,,,,,,,,,
,,6692d088fc492a0498191caf,66daf5b2ad46a82650c384c6,2024-09-06_14h36.37.653,mdp,2024.2.1,Win32,13.33333333,66d7945b1baad48e845df3ce,,,,,,,,,,,,,,,,,,,,,176.0751,176.0751,176.076,177.451,1,0,right,0.7899,,177.4515,177.4519,,1,,177.4523,177.4527,,0,,1,177.4527,177.4527,177.4529,178.9621,0,7,7,7,1,0.8,0.2,0.8,0.2,1,0,,,,,,,,,,,,,,,,,,,,,,,,,,,,,,,,,,,,
,,6692d088fc492a0498191caf,66daf5b2ad46a82650c384c6,2024-09-06_14h36.37.653,mdp,2024.2.1,Win32,13.33333333,66d7945b1baad48e845df3ce,,,,,,,,,,,,,,,,,,,,,178.9623,178.9623,178.9628,180.0985,1,0,right,0.5549,,180.0991,180.0995,,0,,180.0998,180.1001,,0,,1,180.1001,180.1001,180.1003,181.6046,0,8,8,8,1,0.8,0.2,0.8,0.2,1,0,,,,,,,,,,,,,,,,,,,,,,,,,,,,,,,,,,,,
,,6692d088fc492a0498191caf,66daf5b2ad46a82650c384c6,2024-09-06_14h36.37.653,mdp,2024.2.1,Win32,13.33333333,66d7945b1baad48e845df3ce,,,,,,,,,,,,,,,,,,,,,181.6049,181.6049,181.6055,183.9541,1,0,right,1.7422,,183.9547,183.9552,,0,,183.9555,183.9559,,0,,1,183.9559,183.9559,183.9561,185.4734,0,9,9,9,1,0.8,0.2,0.8,0.2,1,0,,,,,,,,,,,,,,,,,,,,,,,,,,,,,,,,,,,,
,,6692d088fc492a0498191caf,66daf5b2ad46a82650c384c6,2024-09-06_14h36.37.653,mdp,2024.2.1,Win32,13.33333333,66d7945b1baad48e845df3ce,,,,,,,,,,,,,,,,,,,,,185.4736,185.4736,185.4741,186.6962,1,0,right,0.6162,,186.6968,186.6973,,1,,186.6977,186.6979,,0,,1,186.6979,186.6979,186.6982,188.1939,0,10,10,10,1,0.8,0.2,0.8,0.2,1,0,,,,,,,,,,,,,,,,,,,,,,,,,,,,,,,,,,,,
,,6692d088fc492a0498191caf,66daf5b2ad46a82650c384c6,2024-09-06_14h36.37.653,mdp,2024.2.1,Win32,13.33333333,66d7945b1baad48e845df3ce,,,,,,,,,,,,,,,,,,,,,188.1941,188.1941,188.1946,189.105,1,0,right,0.3125,,189.1055,189.106,,1,,189.1064,189.1068,,1,,1,189.1068,189.1068,189.107,190.5777,0,11,11,11,1,0.6,0.4,0.4,0.6,1,0,,,,,,,,,,,,,,,,,,,,,,,,,,,,,,,,,,,,
,,6692d088fc492a0498191caf,66daf5b2ad46a82650c384c6,2024-09-06_14h36.37.653,mdp,2024.2.1,Win32,13.33333333,66d7945b1baad48e845df3ce,,,,,,,,,,,,,,,,,,,,,190.5779,190.5779,190.5784,191.6402,1,1,right,0.4218,,191.6408,191.6413,,1,,191.6417,191.6419,,0,,0,191.642,191.642,191.6422,193.0826,0,12,12,12,1,0.6,0.4,0.4,0.6,1,0,,,,,,,,,,,,,,,,,,,,,,,,,,,,,,,,,,,,
,,6692d088fc492a0498191caf,66daf5b2ad46a82650c384c6,2024-09-06_14h36.37.653,mdp,2024.2.1,Win32,13.33333333,66d7945b1baad48e845df3ce,,,,,,,,,,,,,,,,,,,,,193.0828,193.0828,193.0833,194.4328,0,0,left,0.7181,,194.4334,194.4338,,0,,194.4342,194.4344,,1,,1,194.4345,194.4345,194.4347,195.9241,0,13,13,13,1,0.8,0.2,0.6,0.4,1,0,,,,,,,,,,,,,,,,,,,,,,,,,,,,,,,,,,,,
,,6692d088fc492a0498191caf,66daf5b2ad46a82650c384c6,2024-09-06_14h36.37.653,mdp,2024.2.1,Win32,13.33333333,66d7945b1baad48e845df3ce,,,,,,,,,,,,,,,,,,,,,195.9242,195.9242,195.9247,197.2159,0,0,left,0.7059,,197.2165,197.217,,0,,197.2174,197.2177,,1,,1,197.2177,197.2177,197.218,198.6575,0,14,14,14,1,0.8,0.2,0.6,0.4,1,0,,,,,,,,,,,,,,,,,,,,,,,,,,,,,,,,,,,,
,,6692d088fc492a0498191caf,66daf5b2ad46a82650c384c6,2024-09-06_14h36.37.653,mdp,2024.2.1,Win32,13.33333333,66d7945b1baad48e845df3ce,,,,,,,,,,,,,,,,,,,,,198.6577,198.6577,198.6583,199.8748,0,0,left,0.6176,,199.8755,199.8759,,0,,199.8763,199.8766,,1,,1,199.8767,199.8767,199.877,201.392,0,15,15,15,1,0.8,0.2,0.6,0.4,1,0,,,,,,,,,,,,,,,,,,,,,,,,,,,,,,,,,,,,
,,6692d088fc492a0498191caf,66daf5b2ad46a82650c384c6,2024-09-06_14h36.37.653,mdp,2024.2.1,Win32,13.33333333,66d7945b1baad48e845df3ce,,,,,,,,,,,,,,,,,,,,,201.3922,201.3922,201.3927,202.3712,0,0,left,0.3931,,202.3718,202.3723,,0,,202.3728,202.3731,,0,,1,202.3732,202.3732,202.3735,203.8238,0,16,16,16,1,0.8,0.2,0.6,0.4,1,0,,,,,,,,,,,,,,,,,,,,,,,,,,,,,,,,,,,,
,,6692d088fc492a0498191caf,66daf5b2ad46a82650c384c6,2024-09-06_14h36.37.653,mdp,2024.2.1,Win32,13.33333333,66d7945b1baad48e845df3ce,,,,,,,,,,,,,,,,,,,,,203.824,203.824,203.8246,204.8972,0,1,left,0.4848,,204.8978,204.8983,,0,,204.8986,204.899,,0,,0,204.899,204.899,204.8994,206.3676,0,17,17,17,1,0.6,0.4,0.4,0.6,1,0,,,,,,,,,,,,,,,,,,,,,,,,,,,,,,,,,,,,
,,6692d088fc492a0498191caf,66daf5b2ad46a82650c384c6,2024-09-06_14h36.37.653,mdp,2024.2.1,Win32,13.33333333,66d7945b1baad48e845df3ce,,,,,,,,,,,,,,,,,,,,,206.3678,206.3678,206.3683,207.5165,1,1,right,0.5434,,207.5171,207.5176,,0,,207.5179,207.5182,,1,,0,207.5182,207.5183,207.5186,209.0199,0,18,18,18,1,0.6,0.4,0.4,0.6,1,0,,,,,,,,,,,,,,,,,,,,,,,,,,,,,,,,,,,,
,,6692d088fc492a0498191caf,66daf5b2ad46a82650c384c6,2024-09-06_14h36.37.653,mdp,2024.2.1,Win32,13.33333333,66d7945b1baad48e845df3ce,,,,,,,,,,,,,,,,,,,,,209.0201,209.0201,209.0206,210.0904,0,0,left,0.4728,,210.0909,210.0913,,0,,210.0918,210.0921,,0,,1,210.0921,210.0921,210.0924,211.5561,0,19,19,19,1,0.8,0.2,0.8,0.2,1,0,,,,,,,,,,,,,,,,,,,,,,,,,,,,,,,,,,,,
,,6692d088fc492a0498191caf,66daf5b2ad46a82650c384c6,2024-09-06_14h36.37.653,mdp,2024.2.1,Win32,13.33333333,66d7945b1baad48e845df3ce,,,,,,,,,,,,,,,,,,,,,211.5562,211.5563,211.5568,212.9161,0,0,left,0.7633,,212.9167,212.9171,,1,,212.9175,212.9178,,0,,1,212.9178,212.9179,212.9181,214.3741,0,20,20,20,1,0.8,0.2,0.8,0.2,1,0,,,,,,,,,,,,,,,,,,,,,,,,,,,,,,,,,,,,
,,6692d088fc492a0498191caf,66daf5b2ad46a82650c384c6,2024-09-06_14h36.37.653,mdp,2024.2.1,Win32,13.33333333,66d7945b1baad48e845df3ce,,,,,,,,,,,,,,,,,,,,,214.3742,214.3742,214.3747,215.5714,0,0,left,0.6236,,215.572,215.5724,,0,,215.5728,215.573,,0,,1,215.5731,215.5731,215.5733,217.0614,0,21,21,21,1,0.8,0.2,0.8,0.2,1,0,,,,,,,,,,,,,,,,,,,,,,,,,,,,,,,,,,,,
,,6692d088fc492a0498191caf,66daf5b2ad46a82650c384c6,2024-09-06_14h36.37.653,mdp,2024.2.1,Win32,13.33333333,66d7945b1baad48e845df3ce,,,,,,,,,,,,,,,,,,,,,217.0617,217.0617,217.0622,218.2123,0,0,left,0.55,,218.2129,218.2134,,1,,218.2137,218.2139,,1,,1,218.2139,218.2139,218.2142,219.6711,0,22,22,22,1,0.8,0.2,0.8,0.2,1,0,,,,,,,,,,,,,,,,,,,,,,,,,,,,,,,,,,,,
,,6692d088fc492a0498191caf,66daf5b2ad46a82650c384c6,2024-09-06_14h36.37.653,mdp,2024.2.1,Win32,13.33333333,66d7945b1baad48e845df3ce,,,,,,,,,,,,,,,,,,,,,219.6713,219.6713,219.6718,220.8917,0,0,left,0.6238,,220.8924,220.8928,,1,,220.8931,220.8934,,0,,1,220.8934,220.8934,220.8937,222.3524,0,23,23,23,1,0.8,0.2,0.8,0.2,1,0,,,,,,,,,,,,,,,,,,,,,,,,,,,,,,,,,,,,
,,6692d088fc492a0498191caf,66daf5b2ad46a82650c384c6,2024-09-06_14h36.37.653,mdp,2024.2.1,Win32,13.33333333,66d7945b1baad48e845df3ce,,,,,,,,,,,,,,,,,,,,,222.3526,222.3526,222.3531,223.405,0,0,left,0.4697,,223.4056,223.406,,1,,223.4063,223.4067,,0,,1,223.4067,223.4067,223.407,224.8694,0,24,24,24,1,0.8,0.2,0.8,0.2,1,0,,,,,,,,,,,,,,,,,,,,,,,,,,,,,,,,,,,,
,,6692d088fc492a0498191caf,66daf5b2ad46a82650c384c6,2024-09-06_14h36.37.653,mdp,2024.2.1,Win32,13.33333333,66d7945b1baad48e845df3ce,,,,,,,,,,,,,,,,,,,,,224.8697,224.8697,224.8702,225.8794,0,0,left,0.4098,,225.88,225.8804,,1,,225.8808,225.881,,0,,1,225.8811,225.8811,225.8813,227.358,0,25,25,25,1,0.8,0.2,0.8,0.2,1,0,,,,,,,,,,,,,,,,,,,,,,,,,,,,,,,,,,,,
,,6692d088fc492a0498191caf,66daf5b2ad46a82650c384c6,2024-09-06_14h36.37.653,mdp,2024.2.1,Win32,13.33333333,66d7945b1baad48e845df3ce,,,,,,,,,,,,,,,,,,,,,227.3583,227.3583,227.3588,228.3437,0,0,left,0.3977,,228.3443,228.3447,,0,,228.345,228.3452,,0,,1,228.3453,228.3453,228.3455,229.8532,0,26,26,26,1,0.8,0.2,0.8,0.2,1,0,,,,,,,,,,,,,,,,,,,,,,,,,,,,,,,,,,,,
,,6692d088fc492a0498191caf,66daf5b2ad46a82650c384c6,2024-09-06_14h36.37.653,mdp,2024.2.1,Win32,13.33333333,66d7945b1baad48e845df3ce,,,,,,,,,,,,,,,,,,,,,229.8534,229.8534,229.8539,230.9093,0,1,left,0.4644,,230.9099,230.9103,,1,,230.9107,230.911,,0,,0,230.9111,230.9111,230.9114,232.3775,0,27,27,27,1,0.8,0.2,0.8,0.2,1,0,,,,,,,,,,,,,,,,,,,,,,,,,,,,,,,,,,,,
,,6692d088fc492a0498191caf,66daf5b2ad46a82650c384c6,2024-09-06_14h36.37.653,mdp,2024.2.1,Win32,13.33333333,66d7945b1baad48e845df3ce,,,,,,,,,,,,,,,,,,,,,232.3777,232.3777,232.3782,233.3952,1,0,right,0.403,,233.3958,233.3963,,0,,233.3966,233.3969,,0,,1,233.397,233.397,233.3972,234.8886,0,28,28,28,1,0.8,0.2,0.8,0.2,1,0,,,,,,,,,,,,,,,,,,,,,,,,,,,,,,,,,,,,
,,6692d088fc492a0498191caf,66daf5b2ad46a82650c384c6,2024-09-06_14h36.37.653,mdp,2024.2.1,Win32,13.33333333,66d7945b1baad48e845df3ce,,,,,,,,,,,,,,,,,,,,,234.8888,234.8888,234.8894,236.2923,1,1,right,0.7751,,236.2929,236.2933,,0,,236.2936,236.2939,,0,,0,236.2939,236.2939,236.2941,237.7414,0,29,29,29,1,0.8,0.2,0.8,0.2,1,0,,,,,,,,,,,,,,,,,,,,,,,,,,,,,,,,,,,,
,,6692d088fc492a0498191caf,66daf5b2ad46a82650c384c6,2024-09-06_14h36.37.653,mdp,2024.2.1,Win32,13.33333333,66d7945b1baad48e845df3ce,,,,,,,,,,,,,,,,,,,,,237.7416,237.7416,237.7421,239.6411,0,0,left,1.3149,,239.6416,239.6421,,0,,239.6424,239.6427,,0,,1,239.6427,239.6427,239.6429,241.1096,0,30,30,30,1,0.8,0.2,0.8,0.2,1,0,,,,,,,,,,,,,,,,,,,,,,,,,,,,,,,,,,,,
,,6692d088fc492a0498191caf,66daf5b2ad46a82650c384c6,2024-09-06_14h36.37.653,mdp,2024.2.1,Win32,13.33333333,66d7945b1baad48e845df3ce,,,,,,,,,,,,,,,,,,,,,241.1099,241.1099,241.1104,242.4285,0,0,left,0.7204,,242.429,242.4295,,0,,242.4298,242.4301,,1,,1,242.4302,242.4302,242.4304,243.9366,0,31,31,31,1,0.6,0.4,0.6,0.4,1,0,,,,,,,,,,,,,,,,,,,,,,,,,,,,,,,,,,,,
,,6692d088fc492a0498191caf,66daf5b2ad46a82650c384c6,2024-09-06_14h36.37.653,mdp,2024.2.1,Win32,13.33333333,66d7945b1baad48e845df3ce,,,,,,,,,,,,,,,,,,,,,243.9368,243.9369,243.9374,245.0043,0,1,left,0.4769,,245.0049,245.0055,,0,,245.0058,245.0061,,0,,0,245.0061,245.0061,245.0063,246.4586,0,32,32,32,1,0.6,0.4,0.6,0.4,1,0,,,,,,,,,,,,,,,,,,,,,,,,,,,,,,,,,,,,
,,6692d088fc492a0498191caf,66daf5b2ad46a82650c384c6,2024-09-06_14h36.37.653,mdp,2024.2.1,Win32,13.33333333,66d7945b1baad48e845df3ce,,,,,,,,,,,,,,,,,,,,,246.4591,246.4591,246.4602,247.5183,0,0,left,0.4651,,247.519,247.5193,,1,,247.5197,247.52,,0,,1,247.52,247.52,247.5202,248.9731,0,33,33,33,1,0.6,0.4,0.6,0.4,1,0,,,,,,,,,,,,,,,,,,,,,,,,,,,,,,,,,,,,
,,6692d088fc492a0498191caf,66daf5b2ad46a82650c384c6,2024-09-06_14h36.37.653,mdp,2024.2.1,Win32,13.33333333,66d7945b1baad48e845df3ce,,,,,,,,,,,,,,,,,,,,,248.9733,248.9733,248.9739,249.9656,0,0,left,0.3897,,249.9661,249.9665,,0,,249.9668,249.9672,,1,,1,249.9672,249.9672,249.9675,251.4339,0,34,34,34,1,0.6,0.4,0.6,0.4,1,0,,,,,,,,,,,,,,,,,,,,,,,,,,,,,,,,,,,,
,,6692d088fc492a0498191caf,66daf5b2ad46a82650c384c6,2024-09-06_14h36.37.653,mdp,2024.2.1,Win32,13.33333333,66d7945b1baad48e845df3ce,,,,,,,,,,,,,,,,,,,,,251.4341,251.4341,251.4347,252.4249,0,0,left,0.4115,,252.4255,252.4258,,1,,252.4262,252.4265,,0,,1,252.4266,252.4266,252.4268,253.8738,0,35,35,35,1,0.6,0.4,0.6,0.4,1,0,,,,,,,,,,,,,,,,,,,,,,,,,,,,,,,,,,,,
,,6692d088fc492a0498191caf,66daf5b2ad46a82650c384c6,2024-09-06_14h36.37.653,mdp,2024.2.1,Win32,13.33333333,66d7945b1baad48e845df3ce,,,,,,,,,,,,,,,,,,,,,253.8741,253.8741,253.8747,254.7932,0,0,left,0.3175,,254.7938,254.7943,,0,,254.7946,254.7949,,1,,1,254.7949,254.7949,254.7951,256.2902,0,36,36,36,1,0.6,0.4,0.6,0.4,1,0,,,,,,,,,,,,,,,,,,,,,,,,,,,,,,,,,,,,
,,6692d088fc492a0498191caf,66daf5b2ad46a82650c384c6,2024-09-06_14h36.37.653,mdp,2024.2.1,Win32,13.33333333,66d7945b1baad48e845df3ce,,,,,,,,,,,,,,,,,,,,,256.2904,256.2904,256.2909,257.1621,0,0,left,0.2604,,257.1628,257.1631,,0,,257.1635,257.1638,,0,,1,257.1638,257.1638,257.164,258.6487,0,37,37,37,1,0.8,0.2,0.8,0.2,1,0,,,,,,,,,,,,,,,,,,,,,,,,,,,,,,,,,,,,
,,6692d088fc492a0498191caf,66daf5b2ad46a82650c384c6,2024-09-06_14h36.37.653,mdp,2024.2.1,Win32,13.33333333,66d7945b1baad48e845df3ce,,,,,,,,,,,,,,,,,,,,,258.6488,258.6488,258.6494,260.4451,1,0,right,1.1977,,260.4458,260.4462,,0,,260.4466,260.4469,,0,,1,260.4469,260.4469,260.4471,261.9288,0,38,38,38,1,0.8,0.2,0.8,0.2,1,0,,,,,,,,,,,,,,,,,,,,,,,,,,,,,,,,,,,,
,,6692d088fc492a0498191caf,66daf5b2ad46a82650c384c6,2024-09-06_14h36.37.653,mdp,2024.2.1,Win32,13.33333333,66d7945b1baad48e845df3ce,,,,,,,,,,,,,,,,,,,,,261.929,261.929,261.9296,262.9934,0,1,left,0.4446,,262.9939,262.9943,,1,,262.9949,262.9951,,0,,0,262.9951,262.9951,262.9954,264.5061,0,39,39,39,1,0.8,0.2,0.8,0.2,1,0,,,,,,,,,,,,,,,,,,,,,,,,,,,,,,,,,,,,
,,6692d088fc492a0498191caf,66daf5b2ad46a82650c384c6,2024-09-06_14h36.37.653,mdp,2024.2.1,Win32,13.33333333,66d7945b1baad48e845df3ce,,,,,,,,,,,,,,,,,,,,,264.5063,264.5063,264.5074,265.7209,0,0,left,0.6248,,265.7215,265.722,,0,,265.7223,265.7227,,0,,1,265.7227,265.7227,265.7229,267.2391,0,40,40,40,1,0.8,0.2,0.8,0.2,1,0,,,,,,,,,,,,,,,,,,,,,,,,,,,,,,,,,,,,
,,6692d088fc492a0498191caf,66daf5b2ad46a82650c384c6,2024-09-06_14h36.37.653,mdp,2024.2.1,Win32,13.33333333,66d7945b1baad48e845df3ce,,,,,,,,,,,,,,,,,,,,,267.2393,267.2393,267.24,268.3234,0,0,left,0.4963,,268.3239,268.3243,,0,,268.3247,268.325,,0,,1,268.325,268.325,268.3253,269.7704,0,41,41,41,1,0.8,0.2,0.8,0.2,1,0,,,,,,,,,,,,,,,,,,,,,,,,,,,,,,,,,,,,
,,6692d088fc492a0498191caf,66daf5b2ad46a82650c384c6,2024-09-06_14h36.37.653,mdp,2024.2.1,Win32,13.33333333,66d7945b1baad48e845df3ce,,,,,,,,,,,,,,,,,,,,,269.7706,269.7706,269.7711,270.6991,0,1,left,0.3199,,270.6998,270.7002,,0,,270.7005,270.7007,,0,,0,270.7008,270.7008,270.701,272.1744,0,42,42,42,1,0.8,0.2,0.8,0.2,1,0,,,,,,,,,,,,,,,,,,,,,,,,,,,,,,,,,,,,
,,6692d088fc492a0498191caf,66daf5b2ad46a82650c384c6,2024-09-06_14h36.37.653,mdp,2024.2.1,Win32,13.33333333,66d7945b1baad48e845df3ce,,,,,,,,,,,,,,,,,,,,,272.1745,272.1745,272.1751,273.6105,0,0,left,0.8512,,273.6111,273.6114,,0,,273.6117,273.6119,,0,,1,273.6119,273.6119,273.6122,275.0715,0,43,43,43,1,0.8,0.2,0.8,0.2,1,0,,,,,,,,,,,,,,,,,,,,,,,,,,,,,,,,,,,,
,,6692d088fc492a0498191caf,66daf5b2ad46a82650c384c6,2024-09-06_14h36.37.653,mdp,2024.2.1,Win32,13.33333333,66d7945b1baad48e845df3ce,,,,,,,,,,,,,,,,,,,,,275.0717,275.0717,275.0723,276.4815,1,0,right,0.8154,,276.4821,276.4825,,0,,276.4828,276.4832,,1,,1,276.4832,276.4832,276.4835,277.9288,0,44,44,44,1,0.6,0.4,0.2,0.8,1,0,,,,,,,,,,,,,,,,,,,,,,,,,,,,,,,,,,,,
,,6692d088fc492a0498191caf,66daf5b2ad46a82650c384c6,2024-09-06_14h36.37.653,mdp,2024.2.1,Win32,13.33333333,66d7945b1baad48e845df3ce,,,,,,,,,,,,,,,,,,,,,277.929,277.929,277.9295,279.0792,1,1,right,0.5399,,279.0798,279.0801,,1,,279.0805,279.0808,,1,,0,279.0808,279.0808,279.0811,280.5238,0,45,45,45,1,0.6,0.4,0.2,0.8,1,0,,,,,,,,,,,,,,,,,,,,,,,,,,,,,,,,,,,,
,,6692d088fc492a0498191caf,66daf5b2ad46a82650c384c6,2024-09-06_14h36.37.653,mdp,2024.2.1,Win32,13.33333333,66d7945b1baad48e845df3ce,,,,,,,,,,,,,,,,,,,,,280.5241,280.5241,280.5247,281.2877,0,1,left,0.1689,,281.2883,281.2887,,0,,281.2891,281.2893,,0,,0,281.2893,281.2893,281.2895,282.7639,0,46,46,46,1,0.6,0.4,0.2,0.8,1,0,,,,,,,,,,,,,,,,,,,,,,,,,,,,,,,,,,,,
,,6692d088fc492a0498191caf,66daf5b2ad46a82650c384c6,2024-09-06_14h36.37.653,mdp,2024.2.1,Win32,13.33333333,66d7945b1baad48e845df3ce,,,,,,,,,,,,,,,,,,,,,282.764,282.764,282.7646,283.5128,0,0,left,0.159,,283.5133,283.5137,,0,,283.514,283.5143,,1,,1,283.5143,283.5143,283.5145,284.98,0,47,47,47,1,0.6,0.4,0.2,0.8,1,0,,,,,,,,,,,,,,,,,,,,,,,,,,,,,,,,,,,,
,,6692d088fc492a0498191caf,66daf5b2ad46a82650c384c6,2024-09-06_14h36.37.653,mdp,2024.2.1,Win32,13.33333333,66d7945b1baad48e845df3ce,,,,,,,,,,,,,,,,,,,,,284.9803,284.9803,284.9808,286.3068,0,0,left,0.7201,,286.3074,286.308,,1,,286.3083,286.3085,,0,,1,286.3086,286.3086,286.3088,287.8229,0,48,48,48,1,0.6,0.4,0.2,0.8,1,0,,,,,,,,,,,,,,,,,,,,,,,,,,,,,,,,,,,,
,,6692d088fc492a0498191caf,66daf5b2ad46a82650c384c6,2024-09-06_14h36.37.653,mdp,2024.2.1,Win32,13.33333333,66d7945b1baad48e845df3ce,,,,,,,,,,,,,,,,,,,,,287.8231,287.8231,287.8236,289.0305,0,0,left,0.6163,,289.031,289.0314,,0,,289.0318,289.032,,0,,1,289.032,289.032,289.0324,290.479,0,49,49,49,1,0.6,0.4,0.2,0.8,1,0,,,,,,,,,,,,,,,,,,,,,,,,,,,,,,,,,,,,
,,6692d088fc492a0498191caf,66daf5b2ad46a82650c384c6,2024-09-06_14h36.37.653,mdp,2024.2.1,Win32,13.33333333,66d7945b1baad48e845df3ce,,,,,,,,,,,,,,,,,,,,,,,,,,,,,,,,,,,,,,,,,,,,,,,,,,,,,,,,290.4795,349.0881,0,0,0,7,1,imgs/bear.png,imgs/pig.png,imgs/cat.png,imgs/elephant.png,imgs/goat.png,,,,,,,,,,,,,,,,,,,,,,,,
,,6692d088fc492a0498191caf,66daf5b2ad46a82650c384c6,2024-09-06_14h36.37.653,mdp,2024.2.1,Win32,13.33333333,66d7945b1baad48e845df3ce,,,,,,,,,,,,,,2,seqs/st2seq5.csv,349.0965,354.7503,space,5.064,9.99999E-05,354.7605,354.7605,354.7609,356.5307,1,1,right,1.1675,,356.5312,357.9049,0,0,left,357.9054,357.9058,,0,,1,357.9058,357.9059,357.9062,359.3487,0,0,0,0,1,0.6,0.4,0.4,0.6,,,,,,,,,,,,,,,0.7633,,0.2,0.8,0.2,0.8,0.8,0.2,0.6,0.4,1,0,,,,,,,,,,,,
,,6692d088fc492a0498191caf,66daf5b2ad46a82650c384c6,2024-09-06_14h36.37.653,mdp,2024.2.1,Win32,13.33333333,66d7945b1baad48e845df3ce,,,,,,,,,,,,,,,,,,,,,359.349,359.349,359.3495,360.5002,1,0,right,0.5628,,360.5008,362.7225,1,1,right,362.7231,362.7234,,1,,0,362.7234,362.7234,362.7238,364.1784,0,1,1,1,1,0.4,0.6,0.6,0.4,,,,,,,,,,,,,,,1.6201,,0.2,0.8,0.2,0.8,0.8,0.2,0.6,0.4,1,0,,,,,,,,,,,,
,,6692d088fc492a0498191caf,66daf5b2ad46a82650c384c6,2024-09-06_14h36.37.653,mdp,2024.2.1,Win32,13.33333333,66d7945b1baad48e845df3ce,,,,,,,,,,,,,,,,,,,,,364.1785,364.1785,364.1791,365.1666,1,0,right,0.4005,,365.1671,367.703,0,1,left,367.7036,367.704,,0,,0,367.7041,367.7041,367.7044,369.2212,0,2,2,2,1,0.4,0.6,0.6,0.4,,,,,,,,,,,,,,,1.9249,,0.6,0.4,0.8,0.2,0.8,0.2,0.6,0.4,1,0,,,,,,,,,,,,
,,6692d088fc492a0498191caf,66daf5b2ad46a82650c384c6,2024-09-06_14h36.37.653,mdp,2024.2.1,Win32,13.33333333,66d7945b1baad48e845df3ce,,,,,,,,,,,,,,,,,,,,,369.2214,369.2214,369.2218,370.5376,1,0,right,0.7106,,370.5382,371.9315,1,1,right,371.932,371.9324,,1,,0,371.9324,371.9324,371.9327,373.3943,0,3,3,3,1,0.4,0.6,0.6,0.4,,,,,,,,,,,,,,,0.7945,,0.6,0.4,0.8,0.2,0.8,0.2,0.6,0.4,1,0,,,,,,,,,,,,
,,6692d088fc492a0498191caf,66daf5b2ad46a82650c384c6,2024-09-06_14h36.37.653,mdp,2024.2.1,Win32,13.33333333,66d7945b1baad48e845df3ce,,,,,,,,,,,,,,,,,,,,,373.3945,373.3945,373.3951,374.7119,1,0,right,0.7041,,374.7124,376.0901,1,1,right,376.0905,376.0909,,0,,0,376.0909,376.0909,376.0913,377.5436,0,4,4,4,1,0.4,0.6,0.6,0.4,,,,,,,,,,,,,,,0.7813,,0.6,0.4,0.8,0.2,0.8,0.2,0.6,0.4,1,0,,,,,,,,,,,,
,,6692d088fc492a0498191caf,66daf5b2ad46a82650c384c6,2024-09-06_14h36.37.653,mdp,2024.2.1,Win32,13.33333333,66d7945b1baad48e845df3ce,,,,,,,,,,,,,,,,,,,,,377.5439,377.5439,377.5444,381.0834,0,0,left,2.9422,,381.0911,382.9906,0,0,left,382.9912,382.9916,,0,,1,382.9916,382.9916,382.992,384.4509,0,5,5,5,1,0.4,0.6,0.6,0.4,,,,,,,,,,,,,,,1.3087,,0.6,0.4,0.8,0.2,0.8,0.2,0.6,0.4,1,0,,,,,,,,,,,,
,,6692d088fc492a0498191caf,66daf5b2ad46a82650c384c6,2024-09-06_14h36.37.653,mdp,2024.2.1,Win32,13.33333333,66d7945b1baad48e845df3ce,,,,,,,,,,,,,,,,,,,,,384.4511,384.4511,384.4516,385.5473,0,1,left,0.4885,,385.5479,387.7712,0,0,left,387.7717,387.7721,,0,,1,387.7722,387.7722,387.7725,389.2705,0,6,6,6,1,0.4,0.6,0.6,0.4,,,,,,,,,,,,,,,1.6294,,0.4,0.6,0.6,0.4,0.8,0.2,0.6,0.4,1,0,,,,,,,,,,,,
,,6692d088fc492a0498191caf,66daf5b2ad46a82650c384c6,2024-09-06_14h36.37.653,mdp,2024.2.1,Win32,13.33333333,66d7945b1baad48e845df3ce,,,,,,,,,,,,,,,,,,,,,389.2708,389.2708,389.2713,390.8892,0,0,left,0.9889,,390.8899,392.9015,0,0,left,392.902,392.9023,,0,,1,392.9023,392.9023,392.9026,394.3552,0,7,7,7,1,0.4,0.6,0.6,0.4,,,,,,,,,,,,,,,1.4196,0.0002,0.4,0.6,0.6,0.4,0.8,0.2,0.6,0.4,1,0,,,,,,,,,,,,
,,6692d088fc492a0498191caf,66daf5b2ad46a82650c384c6,2024-09-06_14h36.37.653,mdp,2024.2.1,Win32,13.33333333,66d7945b1baad48e845df3ce,,,,,,,,,,,,,,,,,,,,,394.3555,394.3555,394.356,395.2656,0,0,left,0.3101,,395.2662,396.8009,0,1,left,396.8016,396.8019,,1,,0,396.8019,396.8019,396.8023,398.3161,0,8,8,8,1,0.4,0.6,0.6,0.4,,,,,,,,,,,,,,,0.9552,,0.4,0.6,0.6,0.4,0.8,0.2,0.6,0.4,1,0,,,,,,,,,,,,
,,6692d088fc492a0498191caf,66daf5b2ad46a82650c384c6,2024-09-06_14h36.37.653,mdp,2024.2.1,Win32,13.33333333,66d7945b1baad48e845df3ce,,,,,,,,,,,,,,,,,,,,,398.3163,398.3163,398.3168,399.2408,0,0,left,0.3214,,399.2414,400.6262,0,1,left,400.6267,400.6271,,0,,0,400.6271,400.6271,400.6275,402.091,0,9,9,9,1,0.4,0.6,0.6,0.4,,,,,,,,,,,,,,,0.7728,,0.4,0.6,0.6,0.4,0.8,0.2,0.6,0.4,1,0,,,,,,,,,,,,
,,6692d088fc492a0498191caf,66daf5b2ad46a82650c384c6,2024-09-06_14h36.37.653,mdp,2024.2.1,Win32,13.33333333,66d7945b1baad48e845df3ce,,,,,,,,,,,,,,,,,,,,,402.0912,402.0912,402.0918,403.0325,0,1,left,0.3227,,403.033,404.8265,0,0,left,404.8271,404.8275,,0,,1,404.8275,404.8275,404.8279,406.2895,0,10,10,10,1,0.4,0.6,0.6,0.4,,,,,,,,,,,,,,,1.1746,,0.4,0.6,0.6,0.4,0.8,0.2,0.6,0.4,1,0,,,,,,,,,,,,
,,6692d088fc492a0498191caf,66daf5b2ad46a82650c384c6,2024-09-06_14h36.37.653,mdp,2024.2.1,Win32,13.33333333,66d7945b1baad48e845df3ce,,,,,,,,,,,,,,,,,,,,,406.2897,406.2897,406.2902,407.3059,0,0,left,0.3971,,407.3064,408.9842,1,0,right,408.9847,408.9851,,0,,1,408.9851,408.9851,408.9855,410.47,0,11,11,11,1,0.4,0.6,0.6,0.4,,,,,,,,,,,,,,,1.084,,0.4,0.6,0.6,0.4,0.8,0.2,0.6,0.4,1,0,,,,,,,,,,,,
,,6692d088fc492a0498191caf,66daf5b2ad46a82650c384c6,2024-09-06_14h36.37.653,mdp,2024.2.1,Win32,13.33333333,66d7945b1baad48e845df3ce,,,,,,,,,,,,,,,,,,,,,410.4701,410.4702,410.4707,411.4703,0,0,left,0.4188,,411.4709,412.9952,0,1,left,412.9958,412.9962,,1,,0,412.9962,412.9962,412.9966,414.459,0,12,12,12,1,0.4,0.6,0.6,0.4,,,,,,,,,,,,,,,0.9228,,0.4,0.6,0.6,0.4,0.8,0.2,0.6,0.4,1,0,,,,,,,,,,,,
,,6692d088fc492a0498191caf,66daf5b2ad46a82650c384c6,2024-09-06_14h36.37.653,mdp,2024.2.1,Win32,13.33333333,66d7945b1baad48e845df3ce,,,,,,,,,,,,,,,,,,,,,414.4591,414.4591,414.4597,415.5929,0,1,left,0.5435,,415.5935,416.6765,1,0,right,416.677,416.6774,,0,,1,416.6775,416.6775,416.6779,418.1901,0,13,13,13,1,0.4,0.6,0.6,0.4,,,,,,,,,,,,,,,0.4756,,0.4,0.6,0.6,0.4,0.8,0.2,0.6,0.4,1,0,,,,,,,,,,,,
,,6692d088fc492a0498191caf,66daf5b2ad46a82650c384c6,2024-09-06_14h36.37.653,mdp,2024.2.1,Win32,13.33333333,66d7945b1baad48e845df3ce,,,,,,,,,,,,,,,,,,,,,418.1904,418.1904,418.1908,419.8669,0,0,left,1.0866,,419.8674,421.0881,0,0,left,421.0887,421.0891,,1,,1,421.0891,421.0892,421.0895,422.5591,0,14,14,14,1,0.4,0.6,0.6,0.4,,,,,,,,,,,,,,,0.6227,,0.4,0.6,0.6,0.4,0.8,0.2,0.6,0.4,1,0,,,,,,,,,,,,
,,6692d088fc492a0498191caf,66daf5b2ad46a82650c384c6,2024-09-06_14h36.37.653,mdp,2024.2.1,Win32,13.33333333,66d7945b1baad48e845df3ce,,,,,,,,,,,,,,,,,,,,,422.5593,422.5593,422.5599,423.4767,0,1,left,0.324,,423.4773,424.994,1,1,right,424.9946,424.9951,,0,,0,424.9951,424.9951,424.9954,426.4538,0,15,15,15,1,0.4,0.6,0.6,0.4,,,,,,,,,,,,,,,0.9375,,0.4,0.6,0.6,0.4,0.8,0.2,0.6,0.4,1,0,,,,,,,,,,,,
,,6692d088fc492a0498191caf,66daf5b2ad46a82650c384c6,2024-09-06_14h36.37.653,mdp,2024.2.1,Win32,13.33333333,66d7945b1baad48e845df3ce,,,,,,,,,,,,,,,,,,,,,426.4542,426.4542,426.4547,427.4507,0,1,left,0.3979,,427.4513,428.5196,0,0,left,428.5202,428.5205,,0,,1,428.5205,428.5205,428.5209,429.9885,0,16,16,16,1,0.2,0.8,0.8,0.2,,,,,,,,,,,,,,,0.4757,,0.4,0.6,0.6,0.4,0.8,0.2,0.6,0.4,1,0,,,,,,,,,,,,
,,6692d088fc492a0498191caf,66daf5b2ad46a82650c384c6,2024-09-06_14h36.37.653,mdp,2024.2.1,Win32,13.33333333,66d7945b1baad48e845df3ce,,,,,,,,,,,,,,,,,,,,,429.9887,429.9887,429.9892,430.9126,0,1,left,0.308,,430.9132,431.9907,0,0,left,431.9912,431.9916,,0,,1,431.9916,431.9916,431.992,433.4487,0,17,17,17,1,0.2,0.8,0.8,0.2,,,,,,,,,,,,,,,0.4843,,0.2,0.8,0.2,0.8,0.8,0.2,0.6,0.4,1,0,,,,,,,,,,,,
,,6692d088fc492a0498191caf,66daf5b2ad46a82650c384c6,2024-09-06_14h36.37.653,mdp,2024.2.1,Win32,13.33333333,66d7945b1baad48e845df3ce,,,,,,,,,,,,,,,,,,,,,433.449,433.449,433.4494,434.2929,0,1,left,0.2484,,434.2935,435.7552,0,0,left,435.7558,435.7561,,0,,1,435.7562,435.7562,435.7565,437.2189,0,18,18,18,1,0.2,0.8,0.8,0.2,,,,,,,,,,,,,,,0.8481,,0.2,0.8,0.2,0.8,0.8,0.2,0.6,0.4,1,0,,,,,,,,,,,,
,,6692d088fc492a0498191caf,66daf5b2ad46a82650c384c6,2024-09-06_14h36.37.653,mdp,2024.2.1,Win32,13.33333333,66d7945b1baad48e845df3ce,,,,,,,,,,,,,,,,,,,,,437.219,437.219,437.2196,438.5792,0,0,left,0.7652,,438.5799,440.6907,0,0,left,440.6913,440.6917,,1,,1,440.6917,440.6917,440.692,442.1483,0,19,19,19,1,0.2,0.8,0.8,0.2,,,,,,,,,,,,,,,1.5089,,0.2,0.8,0.2,0.8,0.8,0.2,0.6,0.4,1,0,,,,,,,,,,,,
,,6692d088fc492a0498191caf,66daf5b2ad46a82650c384c6,2024-09-06_14h36.37.653,mdp,2024.2.1,Win32,13.33333333,66d7945b1baad48e845df3ce,,,,,,,,,,,,,,,,,,,,,442.1485,442.1485,442.1491,443.0979,0,1,left,0.3164,,443.0985,444.3853,1,0,right,444.3859,444.3862,,1,,1,444.3862,444.3862,444.3866,445.8625,0,20,20,20,1,0.2,0.8,0.8,0.2,,,,,,,,,,,,,,,0.7012,,0.2,0.8,0.2,0.8,0.8,0.2,0.6,0.4,1,0,,,,,,,,,,,,
,,6692d088fc492a0498191caf,66daf5b2ad46a82650c384c6,2024-09-06_14h36.37.653,mdp,2024.2.1,Win32,13.33333333,66d7945b1baad48e845df3ce,,,,,,,,,,,,,,,,,,,,,445.8628,445.8628,445.8633,446.7709,0,1,left,0.3153,,446.7715,448.246,1,1,right,448.2466,448.2468,,0,,0,448.2469,448.2469,448.2472,449.7712,0,21,21,21,1,0.2,0.8,0.8,0.2,,,,,,,,,,,,,,,0.8637,,0.2,0.8,0.2,0.8,0.8,0.2,0.6,0.4,1,0,,,,,,,,,,,,
,,6692d088fc492a0498191caf,66daf5b2ad46a82650c384c6,2024-09-06_14h36.37.653,mdp,2024.2.1,Win32,13.33333333,66d7945b1baad48e845df3ce,,,,,,,,,,,,,,,,,,,,,449.7714,449.7714,449.7719,450.3786,0,0,left,0.0117,,450.3792,451.2416,0,0,left,451.2423,451.2427,,0,,1,451.2427,451.2427,451.2431,452.7114,0,22,22,22,1,0.2,0.8,0.8,0.2,,,,,,,,,,,,,,,0.2516,,0.2,0.8,0.2,0.8,0.8,0.2,0.6,0.4,1,0,,,,,,,,,,,,
,,6692d088fc492a0498191caf,66daf5b2ad46a82650c384c6,2024-09-06_14h36.37.653,mdp,2024.2.1,Win32,13.33333333,66d7945b1baad48e845df3ce,,,,,,,,,,,,,,,,,,,,,452.7116,452.7116,452.7121,453.6248,0,1,left,0.3309,,453.6254,454.7465,0,0,left,454.7471,454.7475,,1,,1,454.7475,454.7475,454.7478,456.2254,0,23,23,23,1,0.2,0.8,0.8,0.2,,,,,,,,,,,,,,,0.5531,,0.2,0.8,0.2,0.8,0.8,0.2,0.6,0.4,1,0,,,,,,,,,,,,
,,6692d088fc492a0498191caf,66daf5b2ad46a82650c384c6,2024-09-06_14h36.37.653,mdp,2024.2.1,Win32,13.33333333,66d7945b1baad48e845df3ce,,,,,,,,,,,,,,,,,,,,,456.2258,456.2258,456.2262,457.3311,0,1,left,0.4953,,457.3317,458.8373,0,1,left,458.8378,458.8383,,0,,0,458.8383,458.8383,458.8386,460.3108,0,24,24,24,1,0.2,0.8,0.8,0.2,,,,,,,,,,,,,,,0.8858,,0.2,0.8,0.2,0.8,0.8,0.2,0.6,0.4,1,0,,,,,,,,,,,,
,,6692d088fc492a0498191caf,66daf5b2ad46a82650c384c6,2024-09-06_14h36.37.653,mdp,2024.2.1,Win32,13.33333333,66d7945b1baad48e845df3ce,,,,,,,,,,,,,,,,,,,,,460.311,460.311,460.3116,461.5299,0,1,left,0.6144,,461.5305,462.894,0,0,left,462.8946,462.8949,,0,,1,462.895,462.895,462.8954,464.4138,0,25,25,25,1,0.2,0.8,0.8,0.2,,,,,,,,,,,,,,,0.7832,,0.2,0.8,0.2,0.8,0.8,0.2,0.6,0.4,1,0,,,,,,,,,,,,
,,6692d088fc492a0498191caf,66daf5b2ad46a82650c384c6,2024-09-06_14h36.37.653,mdp,2024.2.1,Win32,13.33333333,66d7945b1baad48e845df3ce,,,,,,,,,,,,,,,,,,,,,464.414,464.414,464.4145,465.5493,0,1,left,0.551,,465.5499,466.7505,0,0,left,466.751,466.7514,,0,,1,466.7515,466.7515,466.7518,468.213,0,26,26,26,1,0.2,0.8,0.8,0.2,,,,,,,,,,,,,,,0.6109,,0.2,0.8,0.2,0.8,0.8,0.2,0.6,0.4,1,0,,,,,,,,,,,,
,,6692d088fc492a0498191caf,66daf5b2ad46a82650c384c6,2024-09-06_14h36.37.653,mdp,2024.2.1,Win32,13.33333333,66d7945b1baad48e845df3ce,,,,,,,,,,,,,,,,,,,,,468.2132,468.2132,468.2137,468.9,0,1,left,0.0857,,468.9006,469.9864,0,0,left,469.987,469.9874,,0,,1,469.9874,469.9875,469.9878,471.5093,0,27,27,27,1,0.2,0.8,0.8,0.2,,,,,,,,,,,,,,,0.484,,0.2,0.8,0.2,0.8,0.8,0.2,0.6,0.4,1,0,,,,,,,,,,,,
,,6692d088fc492a0498191caf,66daf5b2ad46a82650c384c6,2024-09-06_14h36.37.653,mdp,2024.2.1,Win32,13.33333333,66d7945b1baad48e845df3ce,,,,,,,,,,,,,,,,,,,,,471.5095,471.5095,471.51,473.3242,0,1,left,1.2188,,473.3248,474.4114,0,0,left,474.412,474.4125,,0,,1,474.4125,474.4125,474.4129,475.9378,0,28,28,28,1,0.2,0.8,0.8,0.2,,,,,,,,,,,,,,,0.4936,,0.2,0.8,0.2,0.8,0.8,0.2,0.6,0.4,1,0,,,,,,,,,,,,
,,6692d088fc492a0498191caf,66daf5b2ad46a82650c384c6,2024-09-06_14h36.37.653,mdp,2024.2.1,Win32,13.33333333,66d7945b1baad48e845df3ce,,,,,,,,,,,,,,,,,,,,,475.938,475.938,475.9385,477.0245,0,0,left,0.4877,,477.0251,478.1025,0,0,left,478.103,478.1034,,0,,1,478.1034,478.1034,478.1038,479.5621,0,29,29,29,1,0.2,0.8,0.8,0.2,,,,,,,,,,,,,,,0.4841,,0.8,0.2,0.8,0.2,0.8,0.2,0.6,0.4,1,0,,,,,,,,,,,,
,,6692d088fc492a0498191caf,66daf5b2ad46a82650c384c6,2024-09-06_14h36.37.653,mdp,2024.2.1,Win32,13.33333333,66d7945b1baad48e845df3ce,,,,,,,,,,,,,,,,,,,,,479.5623,479.5624,479.563,480.2391,0,0,left,0.0867,,480.2396,481.1771,1,0,right,481.1777,481.1781,,0,,1,481.1781,481.1781,481.1785,482.6493,0,30,30,30,1,0.2,0.8,0.8,0.2,,,,,,,,,,,,,,,0.3292,,0.8,0.2,0.8,0.2,0.8,0.2,0.6,0.4,1,0,,,,,,,,,,,,
,,6692d088fc492a0498191caf,66daf5b2ad46a82650c384c6,2024-09-06_14h36.37.653,mdp,2024.2.1,Win32,13.33333333,66d7945b1baad48e845df3ce,,,,,,,,,,,,,,,,,,,,,482.6495,482.6495,482.6501,483.3996,0,1,left,0.1608,,483.4002,484.399,0,0,left,484.3996,484.3999,,0,,1,484.3999,484.3999,484.4002,485.85,0,31,31,31,1,0.2,0.8,0.8,0.2,,,,,,,,,,,,,,,0.4034,,0.8,0.2,0.8,0.2,0.8,0.2,0.6,0.4,1,0,,,,,,,,,,,,
,,6692d088fc492a0498191caf,66daf5b2ad46a82650c384c6,2024-09-06_14h36.37.653,mdp,2024.2.1,Win32,13.33333333,66d7945b1baad48e845df3ce,,,,,,,,,,,,,,,,,,,,,485.8502,485.8502,485.8507,486.9156,1,0,right,0.465,,486.9162,488.1478,1,0,right,488.1484,488.1488,,0,,1,488.1488,488.1488,488.1491,489.663,0,32,32,32,1,0.2,0.8,0.8,0.2,,,,,,,,,,,,,,,0.6412,,0.8,0.2,0.8,0.2,0.8,0.2,0.6,0.4,1,0,,,,,,,,,,,,
,,6692d088fc492a0498191caf,66daf5b2ad46a82650c384c6,2024-09-06_14h36.37.653,mdp,2024.2.1,Win32,13.33333333,66d7945b1baad48e845df3ce,,,,,,,,,,,,,,,,,,,,,489.6632,489.6632,489.6639,490.596,0,1,left,0.3267,,490.5966,491.6035,0,0,left,491.6041,491.6044,,1,,1,491.6045,491.6045,491.6048,493.053,0,33,33,33,1,0.2,0.8,0.8,0.2,,,,,,,,,,,,,,,0.3961,,0.8,0.2,0.8,0.2,0.8,0.2,0.6,0.4,1,0,,,,,,,,,,,,
,,6692d088fc492a0498191caf,66daf5b2ad46a82650c384c6,2024-09-06_14h36.37.653,mdp,2024.2.1,Win32,13.33333333,66d7945b1baad48e845df3ce,,,,,,,,,,,,,,,,,,,,,493.0533,493.0533,493.0539,494.0749,0,1,left,0.3981,,494.0754,495.2335,0,0,left,495.234,495.2344,,1,,1,495.2344,495.2344,495.2347,496.6939,0,34,34,34,1,0.2,0.8,0.8,0.2,,,,,,,,,,,,,,,0.5564,,0.8,0.2,0.8,0.2,0.8,0.2,0.6,0.4,1,0,,,,,,,,,,,,
,,6692d088fc492a0498191caf,66daf5b2ad46a82650c384c6,2024-09-06_14h36.37.653,mdp,2024.2.1,Win32,13.33333333,66d7945b1baad48e845df3ce,,,,,,,,,,,,,,,,,,,,,496.694,496.694,496.6946,497.6225,0,1,left,0.3228,,497.6231,498.3122,0,1,left,498.3128,498.3131,,1,,0,498.3132,498.3132,498.3135,499.7805,0,35,35,35,1,0.2,0.8,0.8,0.2,,,,,,,,,,,,,,,0.0881,0.0002,0.8,0.2,0.8,0.2,0.8,0.2,0.6,0.4,1,0,,,,,,,,,,,,
,,6692d088fc492a0498191caf,66daf5b2ad46a82650c384c6,2024-09-06_14h36.37.653,mdp,2024.2.1,Win32,13.33333333,66d7945b1baad48e845df3ce,,,,,,,,,,,,,,,,,,,,,499.7807,499.7807,499.7812,500.7051,0,1,left,0.317,,500.7056,501.6914,0,1,left,501.6921,501.6925,,1,,0,501.6925,501.6925,501.6928,503.1532,0,36,36,36,1,0.2,0.8,0.8,0.2,,,,,,,,,,,,,,,0.4046,,0.8,0.2,0.8,0.2,0.4,0.6,0.4,0.6,1,0,,,,,,,,,,,,
,,6692d088fc492a0498191caf,66daf5b2ad46a82650c384c6,2024-09-06_14h36.37.653,mdp,2024.2.1,Win32,13.33333333,66d7945b1baad48e845df3ce,,,,,,,,,,,,,,,,,,,,,503.1535,503.1535,503.154,504.0882,0,1,left,0.3343,,504.0887,505.1508,1,0,right,505.1513,505.1517,,1,,1,505.1517,505.1517,505.152,506.6164,0,37,37,37,1,0.2,0.8,0.8,0.2,,,,,,,,,,,,,,,0.4719,,0.8,0.2,0.8,0.2,0.4,0.6,0.4,0.6,1,0,,,,,,,,,,,,
,,6692d088fc492a0498191caf,66daf5b2ad46a82650c384c6,2024-09-06_14h36.37.653,mdp,2024.2.1,Win32,13.33333333,66d7945b1baad48e845df3ce,,,,,,,,,,,,,,,,,,,,,506.6166,506.6166,506.6172,507.6024,0,0,left,0.3825,,507.603,508.7019,0,0,left,508.7024,508.7028,,0,,1,508.7028,508.7028,508.703,510.1525,0,38,38,38,1,0.6,0.4,0.2,0.8,,,,,,,,,,,,,,,0.4759,,0.8,0.2,0.8,0.2,0.4,0.6,0.4,0.6,1,0,,,,,,,,,,,,
,,6692d088fc492a0498191caf,66daf5b2ad46a82650c384c6,2024-09-06_14h36.37.653,mdp,2024.2.1,Win32,13.33333333,66d7945b1baad48e845df3ce,,,,,,,,,,,,,,,,,,,,,510.1526,510.1527,510.1533,511.1385,1,1,right,0.3956,,511.1392,512.3023,1,0,right,512.3029,512.3033,,0,,1,512.3034,512.3034,512.3037,513.7738,0,39,39,39,1,0.6,0.4,0.2,0.8,,,,,,,,,,,,,,,0.5513,,0.8,0.2,0.8,0.2,0.4,0.6,0.4,0.6,1,0,,,,,,,,,,,,
,,6692d088fc492a0498191caf,66daf5b2ad46a82650c384c6,2024-09-06_14h36.37.653,mdp,2024.2.1,Win32,13.33333333,66d7945b1baad48e845df3ce,,,,,,,,,,,,,,,,,,,,,513.7741,513.7741,513.7747,514.7832,0,1,left,0.4038,,514.7838,515.7686,0,1,left,515.7691,515.7695,,1,,0,515.7695,515.7695,515.7698,517.2588,0,40,40,40,1,0.6,0.4,0.2,0.8,,,,,,,,,,,,,,,0.3932,,0.8,0.2,0.8,0.2,0.2,0.8,0.8,0.2,1,0,,,,,,,,,,,,
,,6692d088fc492a0498191caf,66daf5b2ad46a82650c384c6,2024-09-06_14h36.37.653,mdp,2024.2.1,Win32,13.33333333,66d7945b1baad48e845df3ce,,,,,,,,,,,,,,,,,,,,,517.2589,517.2589,517.2595,517.9308,0,0,left,0.0975,,517.9314,518.8536,0,1,left,518.8541,518.8544,,1,,0,518.8544,518.8544,518.8548,520.348,0,41,41,41,1,0.6,0.4,0.2,0.8,,,,,,,,,,,,,,,0.3337,,0.8,0.2,0.8,0.2,0.2,0.8,0.8,0.2,1,0,,,,,,,,,,,,
,,6692d088fc492a0498191caf,66daf5b2ad46a82650c384c6,2024-09-06_14h36.37.653,mdp,2024.2.1,Win32,13.33333333,66d7945b1baad48e845df3ce,,,,,,,,,,,,,,,,,,,,,520.3482,520.3482,520.3488,521.1802,1,1,right,0.1876,,521.1807,522.1502,1,0,right,522.1507,522.1511,,0,,1,522.1511,522.1511,522.1514,523.6575,0,42,42,42,1,0.6,0.4,0.2,0.8,,,,,,,,,,,,,,,0.3319,,0.8,0.2,0.8,0.2,0.2,0.8,0.8,0.2,1,0,,,,,,,,,,,,
,,6692d088fc492a0498191caf,66daf5b2ad46a82650c384c6,2024-09-06_14h36.37.653,mdp,2024.2.1,Win32,13.33333333,66d7945b1baad48e845df3ce,,,,,,,,,,,,,,,,,,,,,523.6577,523.6577,523.6583,524.6285,1,1,right,0.3963,,524.629,525.7871,1,0,right,525.7876,525.788,,1,,1,525.7881,525.7881,525.7883,527.2446,0,43,43,43,1,0.6,0.4,0.2,0.8,,,,,,,,,,,,,,,0.5546,,0.8,0.2,0.8,0.2,0.2,0.8,0.8,0.2,1,0,,,,,,,,,,,,
,,6692d088fc492a0498191caf,66daf5b2ad46a82650c384c6,2024-09-06_14h36.37.653,mdp,2024.2.1,Win32,13.33333333,66d7945b1baad48e845df3ce,,,,,,,,,,,,,,,,,,,,,527.2449,527.2449,527.2454,528.196,0,1,left,0.323,,528.1966,529.3169,0,1,left,529.3175,529.3179,,1,,0,529.318,529.318,529.3182,530.7645,0,44,44,44,1,0.6,0.4,0.2,0.8,,,,,,,,,,,,,,,0.4849,,0.8,0.2,0.8,0.2,0.2,0.8,0.8,0.2,1,0,,,,,,,,,,,,
,,6692d088fc492a0498191caf,66daf5b2ad46a82650c384c6,2024-09-06_14h36.37.653,mdp,2024.2.1,Win32,13.33333333,66d7945b1baad48e845df3ce,,,,,,,,,,,,,,,,,,,,,530.7647,530.7647,530.7652,531.7551,0,0,left,0.3863,,531.7557,532.8491,1,0,right,532.8497,532.85,,0,,1,532.85,532.85,532.8503,534.3473,0,45,45,45,1,0.6,0.4,0.2,0.8,,,,,,,,,,,,,,,0.497,,0.8,0.2,0.8,0.2,0.4,0.6,0.4,0.6,1,0,,,,,,,,,,,,
,,6692d088fc492a0498191caf,66daf5b2ad46a82650c384c6,2024-09-06_14h36.37.653,mdp,2024.2.1,Win32,13.33333333,66d7945b1baad48e845df3ce,,,,,,,,,,,,,,,,,,,,,534.3476,534.3476,534.3483,535.7115,0,0,left,0.77,,535.712,538.8001,0,0,left,538.809,538.8095,,1,,1,538.8095,538.8095,538.81,540.2354,0,46,46,46,1,0.6,0.4,0.2,0.8,,,,,,,,,,,,,,,2.5124,,0.8,0.2,0.8,0.2,0.4,0.6,0.4,0.6,1,0,,,,,,,,,,,,
,,6692d088fc492a0498191caf,66daf5b2ad46a82650c384c6,2024-09-06_14h36.37.653,mdp,2024.2.1,Win32,13.33333333,66d7945b1baad48e845df3ce,,,,,,,,,,,,,,,,,,,,,540.2356,540.2356,540.2361,543.3017,0,1,left,2.4681,,543.3098,544.4561,0,0,left,544.4566,544.4569,,1,,1,544.4569,544.4569,544.4573,545.903,0,47,47,47,1,0.8,0.2,0.6,0.4,,,,,,,,,,,,,,,0.5418,,0.8,0.2,0.8,0.2,0.4,0.6,0.4,0.6,1,0,,,,,,,,,,,,
,,6692d088fc492a0498191caf,66daf5b2ad46a82650c384c6,2024-09-06_14h36.37.653,mdp,2024.2.1,Win32,13.33333333,66d7945b1baad48e845df3ce,,,,,,,,,,,,,,,,,,,,,545.9033,545.9033,545.9038,546.8614,0,0,left,0.3201,,546.8618,548.0741,0,0,left,548.0746,548.075,,1,,1,548.075,548.075,548.0753,549.5962,0,48,48,48,1,0.8,0.2,0.6,0.4,,,,,,,,,,,,,,,0.6303,,0.8,0.2,0.8,0.2,0.4,0.6,0.4,0.6,1,0,,,,,,,,,,,,
,,6692d088fc492a0498191caf,66daf5b2ad46a82650c384c6,2024-09-06_14h36.37.653,mdp,2024.2.1,Win32,13.33333333,66d7945b1baad48e845df3ce,,,,,,,,,,,,,,,,,,,,,549.5964,549.5964,549.5969,552.2568,0,0,left,2.0692,,552.2574,553.3452,1,0,right,553.3458,553.3461,,1,,1,553.3461,553.3462,553.3465,554.7999,0,49,49,49,1,0.8,0.2,0.6,0.4,,,,,,,,,,,,,,,0.4832,,0.8,0.2,0.8,0.2,0.4,0.6,0.4,0.6,1,0,,,,,,,,,,,,
,,6692d088fc492a0498191caf,66daf5b2ad46a82650c384c6,2024-09-06_14h36.37.653,mdp,2024.2.1,Win32,13.33333333,66d7945b1baad48e845df3ce,,,,,,,,,,,,,,,,,,,,,,,,,,,,,,,,,,,,,,,,,,,,,,,,,,,,,,,,554.8,613.395,0,1,1,3,1,imgs/giraffe.png,imgs/squirrel.png,imgs/rabbit.png,imgs/goat.png,imgs/lion.png,,,,,,,,,,,,,,,,,,,,,,,,
,,6692d088fc492a0498191caf,66daf5b2ad46a82650c384c6,2024-09-06_14h36.37.653,mdp,2024.2.1,Win32,13.33333333,66d7945b1baad48e845df3ce,,,,,,,,,,,,,,3,seqs/st3seq13.csv,613.4035,705.5084,space,91.4757,,705.5196,705.5197,705.5202,707.7247,1,1,right,1.6127,,707.7253,709.6519,1,0,right,709.6525,711.4298,1,0,right,1,711.4299,711.4299,711.4304,712.8914,0,0,0,0,1,0.2,0.8,0.2,0.8,,,,,,,,,,,,,,,1.324,,0.8,0.2,0.8,0.2,0.6,0.4,0.2,0.8,,,1.157,,0.2,0.8,0.2,0.8,0.8,0.2,0.6,0.4,1,0
,,6692d088fc492a0498191caf,66daf5b2ad46a82650c384c6,2024-09-06_14h36.37.653,mdp,2024.2.1,Win32,13.33333333,66d7945b1baad48e845df3ce,,,,,,,,,,,,,,,,,,,,,712.8918,712.8918,712.8923,714.3929,1,1,right,0.9076,,714.3934,716.1401,1,1,right,716.1407,717.9426,0,0,left,1,717.9426,717.9426,717.9431,719.3944,0,1,1,1,1,0.2,0.8,0.2,0.8,,,,,,,,,,,,,,,1.1596,,0.8,0.2,0.8,0.2,0.6,0.4,0.2,0.8,,,1.212,,0.2,0.8,0.2,0.8,0.8,0.2,0.6,0.4,1,0
,,6692d088fc492a0498191caf,66daf5b2ad46a82650c384c6,2024-09-06_14h36.37.653,mdp,2024.2.1,Win32,13.33333333,66d7945b1baad48e845df3ce,,,,,,,,,,,,,,,,,,,,,719.3947,719.3947,719.3952,720.4519,1,0,right,0.4302,,720.4525,721.8046,0,1,left,721.8052,724.4419,0,0,left,1,724.4419,724.442,724.4425,725.9102,0,2,2,2,1,0.2,0.8,0.2,0.8,,,,,,,,,,,,,,,0.7392,,0.8,0.2,0.8,0.2,0.6,0.4,0.2,0.8,,,2.0181,,0.2,0.8,0.2,0.8,0.8,0.2,0.6,0.4,1,0
,,6692d088fc492a0498191caf,66daf5b2ad46a82650c384c6,2024-09-06_14h36.37.653,mdp,2024.2.1,Win32,13.33333333,66d7945b1baad48e845df3ce,,,,,,,,,,,,,,,,,,,,,725.9105,725.9105,725.911,727.521,1,1,right,1.0125,,727.5216,728.6487,1,0,right,728.6494,729.6485,1,1,right,0,729.6485,729.6485,729.649,731.1048,0,3,3,3,1,0.2,0.8,0.2,0.8,,,,,,,,,,,,,,,0.5317,,0.8,0.2,0.8,0.2,0.6,0.4,0.2,0.8,,,0.389,,0.4,0.6,0.6,0.4,0.8,0.2,0.6,0.4,1,0
,,6692d088fc492a0498191caf,66daf5b2ad46a82650c384c6,2024-09-06_14h36.37.653,mdp,2024.2.1,Win32,13.33333333,66d7945b1baad48e845df3ce,,,,,,,,,,,,,,,,,,,,,731.105,731.1051,731.1055,732.0268,1,1,right,0.3213,,732.0274,733.0982,1,1,right,733.0987,734.5649,0,0,left,1,734.5649,734.5649,734.5659,736.0192,0,4,4,4,1,0.2,0.8,0.2,0.8,,,,,,,,,,,,,,,0.4687,,0.8,0.2,0.8,0.2,0.6,0.4,0.2,0.8,,,0.8693,,0.4,0.6,0.6,0.4,0.8,0.2,0.6,0.4,1,0
,,6692d088fc492a0498191caf,66daf5b2ad46a82650c384c6,2024-09-06_14h36.37.653,mdp,2024.2.1,Win32,13.33333333,66d7945b1baad48e845df3ce,,,,,,,,,,,,,,,,,,,,,736.0199,736.0199,736.0205,748.0525,1,1,right,11.4468,,748.0607,749.283,1,1,right,749.2835,750.5024,0,0,left,1,750.5025,750.5025,750.5031,751.9951,0,5,5,5,1,0.2,0.8,0.2,0.8,,,,,,,,,,,,,,,0.6226,,0.8,0.2,0.8,0.2,0.6,0.4,0.2,0.8,,,0.6296,,0.4,0.6,0.6,0.4,0.8,0.2,0.6,0.4,1,0
,,6692d088fc492a0498191caf,66daf5b2ad46a82650c384c6,2024-09-06_14h36.37.653,mdp,2024.2.1,Win32,13.33333333,66d7945b1baad48e845df3ce,,,,,,,,,,,,,,,,,,,,,751.9953,751.9953,751.9958,753.8928,1,1,right,1.3086,,753.8934,754.8031,1,0,right,754.8037,756.1144,0,0,left,1,756.1145,756.1145,756.115,757.6223,0,6,6,6,1,0.2,0.8,0.2,0.8,,,,,,,,,,,,,,,0.318,,0.8,0.2,0.8,0.2,0.6,0.4,0.2,0.8,,,0.7017,,0.6,0.4,0.2,0.8,0.8,0.2,0.6,0.4,1,0
,,6692d088fc492a0498191caf,66daf5b2ad46a82650c384c6,2024-09-06_14h36.37.653,mdp,2024.2.1,Win32,13.33333333,66d7945b1baad48e845df3ce,,,,,,,,,,,,,,,,,,,,,757.6226,757.6226,757.6231,761.6061,1,1,right,3.3976,,761.6142,762.5242,0,1,left,762.5247,763.5899,1,1,right,0,763.59,763.59,763.5905,765.0466,0,7,7,7,1,0.2,0.8,0.2,0.8,,,,,,,,,,,,,,,0.3224,,0.8,0.2,0.8,0.2,0.6,0.4,0.2,0.8,,,0.472,,0.6,0.4,0.2,0.8,0.8,0.2,0.6,0.4,1,0
,,6692d088fc492a0498191caf,66daf5b2ad46a82650c384c6,2024-09-06_14h36.37.653,mdp,2024.2.1,Win32,13.33333333,66d7945b1baad48e845df3ce,,,,,,,,,,,,,,,,,,,,,765.0468,765.0468,765.0474,766.0039,1,1,right,0.3213,,766.0044,767.0905,1,0,right,767.0911,768.5379,0,0,left,1,768.5379,768.5379,768.5386,770.0153,0,8,8,8,1,0.2,0.8,0.2,0.8,,,,,,,,,,,,,,,0.4713,,0.8,0.2,0.8,0.2,0.6,0.4,0.2,0.8,,,0.8447,,0.6,0.4,0.2,0.8,0.8,0.2,0.6,0.4,1,0
,,6692d088fc492a0498191caf,66daf5b2ad46a82650c384c6,2024-09-06_14h36.37.653,mdp,2024.2.1,Win32,13.33333333,66d7945b1baad48e845df3ce,,,,,,,,,,,,,,,,,,,,,770.0155,770.0155,770.016,770.9456,1,0,right,0.3356,,770.9461,772.2493,0,0,left,772.2499,773.9332,0,1,left,0,773.9332,773.9332,773.9338,775.4106,0,9,9,9,1,0.2,0.8,0.2,0.8,,,,,,,,,,,,,,,0.7056,,0.8,0.2,0.8,0.2,0.6,0.4,0.2,0.8,,,1.0884,,0.6,0.4,0.2,0.8,0.8,0.2,0.6,0.4,1,0
,,6692d088fc492a0498191caf,66daf5b2ad46a82650c384c6,2024-09-06_14h36.37.653,mdp,2024.2.1,Win32,13.33333333,66d7945b1baad48e845df3ce,,,,,,,,,,,,,,,,,,,,,775.4109,775.4109,775.4114,776.234,1,1,right,0.244,,776.2346,777.55,1,1,right,777.5505,778.5434,1,1,right,0,778.5434,778.5434,778.5439,779.9885,0,10,10,10,1,0.2,0.8,0.2,0.8,,,,,,,,,,,,,,,0.7061,,0.8,0.2,0.8,0.2,0.6,0.4,0.2,0.8,,,0.3987,,0.6,0.4,0.2,0.8,0.8,0.2,0.6,0.4,1,0
,,6692d088fc492a0498191caf,66daf5b2ad46a82650c384c6,2024-09-06_14h36.37.653,mdp,2024.2.1,Win32,13.33333333,66d7945b1baad48e845df3ce,,,,,,,,,,,,,,,,,,,,,779.9888,779.9888,779.9893,781.0039,0,1,left,0.4082,,781.0045,782.0643,1,1,right,782.0648,783.1716,0,0,left,1,783.1716,783.1716,783.1721,784.6203,0,11,11,11,1,0.2,0.8,0.2,0.8,,,,,,,,,,,,,,,0.4642,,0.8,0.2,0.8,0.2,0.6,0.4,0.2,0.8,,,0.5035,,0.6,0.4,0.2,0.8,0.8,0.2,0.6,0.4,1,0
,,6692d088fc492a0498191caf,66daf5b2ad46a82650c384c6,2024-09-06_14h36.37.653,mdp,2024.2.1,Win32,13.33333333,66d7945b1baad48e845df3ce,,,,,,,,,,,,,,,,,,,,,784.6206,784.6206,784.6211,785.6887,0,1,left,0.4347,,785.6893,786.8864,0,0,left,786.8871,787.9995,0,0,left,1,787.9995,787.9995,788.0001,789.4437,0,12,12,12,1,0.2,0.8,0.2,0.8,,,,,,,,,,,,,,,0.5743,,0.8,0.2,0.8,0.2,0.6,0.4,0.2,0.8,,,0.4822,,0.6,0.4,0.2,0.8,0.8,0.2,0.6,0.4,1,0
,,6692d088fc492a0498191caf,66daf5b2ad46a82650c384c6,2024-09-06_14h36.37.653,mdp,2024.2.1,Win32,13.33333333,66d7945b1baad48e845df3ce,,,,,,,,,,,,,,,,,,,,,789.444,789.444,789.4445,790.3616,0,1,left,0.3287,,790.362,791.4316,1,0,right,791.4322,792.4848,0,0,left,1,792.4848,792.4848,792.4855,793.9314,0,13,13,13,1,0.2,0.8,0.2,0.8,,,,,,,,,,,,,,,0.4714,,0.8,0.2,0.8,0.2,0.6,0.4,0.2,0.8,,,0.4714,,0.6,0.4,0.2,0.8,0.8,0.2,0.6,0.4,1,0
,,6692d088fc492a0498191caf,66daf5b2ad46a82650c384c6,2024-09-06_14h36.37.653,mdp,2024.2.1,Win32,13.33333333,66d7945b1baad48e845df3ce,,,,,,,,,,,,,,,,,,,,,793.9317,793.9317,793.9322,794.8631,0,1,left,0.3153,,794.8637,796.0103,1,1,right,796.0109,797.1679,1,0,right,1,797.168,797.168,797.1685,798.6195,0,14,14,14,1,0.2,0.8,0.2,0.8,,,,,,,,,,,,,,,0.543,,0.4,0.6,0.4,0.6,0.6,0.4,0.2,0.8,,,0.5702,,0.6,0.4,0.2,0.8,0.8,0.2,0.6,0.4,1,0
,,6692d088fc492a0498191caf,66daf5b2ad46a82650c384c6,2024-09-06_14h36.37.653,mdp,2024.2.1,Win32,13.33333333,66d7945b1baad48e845df3ce,,,,,,,,,,,,,,,,,,,,,798.6198,798.6198,798.6203,799.7599,1,1,right,0.5453,,799.7604,800.9041,1,1,right,800.9046,802.0006,1,1,right,0,802.0006,802.0006,802.0013,803.461,0,15,15,15,1,0.2,0.8,0.2,0.8,,,,,,,,,,,,,,,0.5345,,0.4,0.6,0.4,0.6,0.6,0.4,0.2,0.8,,,0.474,,0.6,0.4,0.2,0.8,0.8,0.2,0.6,0.4,1,0
,,6692d088fc492a0498191caf,66daf5b2ad46a82650c384c6,2024-09-06_14h36.37.653,mdp,2024.2.1,Win32,13.33333333,66d7945b1baad48e845df3ce,,,,,,,,,,,,,,,,,,,,,803.4613,803.4613,803.4619,804.0618,0,1,left,0.0115,,804.0624,804.9632,0,0,left,804.9638,806.0328,0,1,left,0,806.0328,806.0328,806.0334,807.5434,0,16,16,16,1,0.2,0.8,0.2,0.8,,,,,,,,,,,,,,,0.3145,,0.4,0.6,0.4,0.6,0.6,0.4,0.2,0.8,,,0.4628,,0.6,0.4,0.2,0.8,0.8,0.2,0.6,0.4,1,0
,,6692d088fc492a0498191caf,66daf5b2ad46a82650c384c6,2024-09-06_14h36.37.653,mdp,2024.2.1,Win32,13.33333333,66d7945b1baad48e845df3ce,,,,,,,,,,,,,,,,,,,,,807.5436,807.5437,807.5442,808.9096,1,1,right,0.76,,808.9101,809.7491,1,1,right,809.7497,813.5046,0,0,left,1,813.5047,813.5047,813.5053,814.9475,0,17,17,17,1,0.2,0.8,0.2,0.8,,,,,,,,,,,,,,,0.2383,,0.4,0.6,0.4,0.6,0.6,0.4,0.2,0.8,,,3.1587,,0.6,0.4,0.2,0.8,0.8,0.2,0.6,0.4,1,0
,,6692d088fc492a0498191caf,66daf5b2ad46a82650c384c6,2024-09-06_14h36.37.653,mdp,2024.2.1,Win32,13.33333333,66d7945b1baad48e845df3ce,,,,,,,,,,,,,,,,,,,,,814.9477,814.9477,814.9482,816.0134,1,1,right,0.4638,,816.014,817.0897,1,1,right,817.0904,818.5497,1,1,right,0,818.5498,818.5498,818.5503,820.0131,0,18,18,18,1,0.2,0.8,0.2,0.8,,,,,,,,,,,,,,,0.4629,,0.4,0.6,0.4,0.6,0.6,0.4,0.2,0.8,,,0.8635,,0.6,0.4,0.2,0.8,0.8,0.2,0.6,0.4,1,0
,,6692d088fc492a0498191caf,66daf5b2ad46a82650c384c6,2024-09-06_14h36.37.653,mdp,2024.2.1,Win32,13.33333333,66d7945b1baad48e845df3ce,,,,,,,,,,,,,,,,,,,,,820.0134,820.0134,820.0139,822.314,1,1,right,1.7014,,822.3145,823.5605,1,1,right,823.5611,827.6262,1,0,right,1,827.6263,827.6263,827.6344,829.0941,0,19,19,19,1,0.2,0.8,0.2,0.8,,,,,,,,,,,,,,,0.6365,,0.4,0.6,0.4,0.6,0.6,0.4,0.2,0.8,,,3.4409,,0.4,0.6,0.8,0.2,0.8,0.2,0.6,0.4,1,0
,,6692d088fc492a0498191caf,66daf5b2ad46a82650c384c6,2024-09-06_14h36.37.653,mdp,2024.2.1,Win32,13.33333333,66d7945b1baad48e845df3ce,,,,,,,,,,,,,,,,,,,,,829.0943,829.0943,829.0949,830.1728,1,1,right,0.4796,,830.1734,837.3847,1,1,right,837.3932,838.4687,0,0,left,1,838.4687,838.4687,838.4693,839.9138,0,20,20,20,1,0.2,0.8,0.2,0.8,,,,,,,,,,,,,,,6.6312,,0.4,0.6,0.4,0.6,0.6,0.4,0.2,0.8,,,0.4681,,0.4,0.6,0.8,0.2,0.8,0.2,0.6,0.4,1,0
,,6692d088fc492a0498191caf,66daf5b2ad46a82650c384c6,2024-09-06_14h36.37.653,mdp,2024.2.1,Win32,13.33333333,66d7945b1baad48e845df3ce,,,,,,,,,,,,,,,,,,,,,839.914,839.914,839.9145,840.833,1,0,right,0.3265,,840.8335,841.839,0,1,left,841.8396,842.5961,0,0,left,1,842.5962,842.5962,842.5968,844.1097,0,21,21,21,1,0.2,0.8,0.2,0.8,,,,,,,,,,,,,,,0.3955,,0.4,0.6,0.4,0.6,0.6,0.4,0.2,0.8,,,0.1664,,0.4,0.6,0.8,0.2,0.8,0.2,0.6,0.4,1,0
,,6692d088fc492a0498191caf,66daf5b2ad46a82650c384c6,2024-09-06_14h36.37.653,mdp,2024.2.1,Win32,13.33333333,66d7945b1baad48e845df3ce,,,,,,,,,,,,,,,,,,,,,844.11,844.11,844.1104,846.6153,1,1,right,1.9136,,846.6159,850.541,1,1,right,850.5487,851.5137,1,0,right,1,851.5137,851.5137,851.5143,853.0213,0,22,22,22,1,0.2,0.8,0.2,0.8,,,,,,,,,,,,,,,3.3251,,0.4,0.6,0.4,0.6,0.6,0.4,0.2,0.8,,,0.3585,,0.4,0.6,0.8,0.2,0.8,0.2,0.6,0.4,1,0
,,6692d088fc492a0498191caf,66daf5b2ad46a82650c384c6,2024-09-06_14h36.37.653,mdp,2024.2.1,Win32,13.33333333,66d7945b1baad48e845df3ce,,,,,,,,,,,,,,,,,,,,,853.0216,853.0216,853.0222,854.5791,0,1,left,0.9429,,854.5796,857.4678,1,1,right,857.4684,858.5306,1,1,right,0,858.5306,858.5306,858.5311,860.0011,0,23,23,23,1,0.2,0.8,0.2,0.8,,,,,,,,,,,,,,,2.2977,,0.4,0.6,0.4,0.6,0.6,0.4,0.2,0.8,,,0.4682,,0.2,0.8,0.4,0.6,0.8,0.2,0.6,0.4,1,0
,,6692d088fc492a0498191caf,66daf5b2ad46a82650c384c6,2024-09-06_14h36.37.653,mdp,2024.2.1,Win32,13.33333333,66d7945b1baad48e845df3ce,,,,,,,,,,,,,,,,,,,,,860.0014,860.0014,860.0019,861.076,0,1,left,0.473,,861.0766,861.9997,1,1,right,862.0004,862.8489,0,0,left,1,862.849,862.849,862.8495,864.3096,0,24,24,24,1,0.2,0.8,0.2,0.8,,,,,,,,,,,,,,,0.326,,0.4,0.6,0.4,0.6,0.6,0.4,0.2,0.8,,,0.2506,,0.4,0.6,0.6,0.4,0.8,0.2,0.6,0.4,1,0
,,6692d088fc492a0498191caf,66daf5b2ad46a82650c384c6,2024-09-06_14h36.37.653,mdp,2024.2.1,Win32,13.33333333,66d7945b1baad48e845df3ce,,,,,,,,,,,,,,,,,,,,,864.3099,864.3099,864.3104,865.6775,0,1,left,0.7658,,865.6781,866.5247,1,1,right,866.5253,867.9177,0,0,left,1,867.9179,867.9179,867.9184,869.3639,0,25,25,25,1,0.2,0.8,0.2,0.8,,,,,,,,,,,,,,,0.244,,0.4,0.6,0.4,0.6,0.6,0.4,0.2,0.8,,,0.7262,,0.4,0.6,0.6,0.4,0.8,0.2,0.6,0.4,1,0
,,6692d088fc492a0498191caf,66daf5b2ad46a82650c384c6,2024-09-06_14h36.37.653,mdp,2024.2.1,Win32,13.33333333,66d7945b1baad48e845df3ce,,,,,,,,,,,,,,,,,,,,,869.3641,869.3641,869.3647,870.2124,0,1,left,0.2464,,870.213,871.7223,1,1,right,871.723,875.1503,1,0,right,1,875.1504,875.1504,875.1582,876.6448,0,26,26,26,1,0.2,0.8,0.2,0.8,,,,,,,,,,,,,,,0.9129,,0.4,0.6,0.4,0.6,0.6,0.4,0.2,0.8,,,2.8134,,0.4,0.6,0.6,0.4,0.8,0.2,0.6,0.4,1,0
,,6692d088fc492a0498191caf,66daf5b2ad46a82650c384c6,2024-09-06_14h36.37.653,mdp,2024.2.1,Win32,13.33333333,66d7945b1baad48e845df3ce,,,,,,,,,,,,,,,,,,,,,876.6451,876.6451,876.6455,879.0362,1,1,right,1.78,,879.0441,882.3921,1,1,right,882.3926,883.3952,1,0,right,1,883.3953,883.3953,883.3959,884.8475,0,27,27,27,1,0.2,0.8,0.2,0.8,,,,,,,,,,,,,,,2.7468,,0.4,0.6,0.4,0.6,0.6,0.4,0.2,0.8,,,0.3913,,0.4,0.6,0.6,0.4,0.8,0.2,0.6,0.4,1,0
,,6692d088fc492a0498191caf,66daf5b2ad46a82650c384c6,2024-09-06_14h36.37.653,mdp,2024.2.1,Win32,13.33333333,66d7945b1baad48e845df3ce,,,,,,,,,,,,,,,,,,,,,884.8478,884.8478,884.8484,888.4013,1,1,right,2.9273,,888.4095,890.6268,1,1,right,890.6273,893.1875,1,1,right,0,893.1875,893.1875,893.1881,894.6742,0,28,28,28,1,0.2,0.8,0.2,0.8,,,,,,,,,,,,,,,1.6321,,0.4,0.6,0.4,0.6,0.6,0.4,0.2,0.8,,,1.969,,0.4,0.6,0.6,0.4,0.8,0.2,0.6,0.4,1,0
,,6692d088fc492a0498191caf,66daf5b2ad46a82650c384c6,2024-09-06_14h36.37.653,mdp,2024.2.1,Win32,13.33333333,66d7945b1baad48e845df3ce,,,,,,,,,,,,,,,,,,,,,894.6745,894.6745,894.675,895.513,0,0,left,0.2464,,895.5135,896.5097,1,0,right,896.5102,897.5121,1,0,right,1,897.5121,897.5122,897.5127,898.975,0,29,29,29,1,0.2,0.8,0.2,0.8,,,,,,,,,,,,,,,0.4065,,0.4,0.6,0.4,0.6,0.6,0.4,0.2,0.8,,,0.4059,,0.4,0.6,0.6,0.4,0.8,0.2,0.6,0.4,1,0
,,6692d088fc492a0498191caf,66daf5b2ad46a82650c384c6,2024-09-06_14h36.37.653,mdp,2024.2.1,Win32,13.33333333,66d7945b1baad48e845df3ce,,,,,,,,,,,,,,,,,,,,,898.9752,898.9752,898.9757,900.2831,0,1,left,0.7192,,900.2838,901.2647,0,0,left,901.2653,902.8145,0,0,left,1,902.8145,902.8145,902.815,904.2762,0,30,30,30,1,0.2,0.8,0.2,0.8,,,,,,,,,,,,,,,0.4024,,0.4,0.6,0.4,0.6,0.6,0.4,0.2,0.8,,,0.9529,,0.8,0.2,0.4,0.6,0.8,0.2,0.6,0.4,1,0
,,6692d088fc492a0498191caf,66daf5b2ad46a82650c384c6,2024-09-06_14h36.37.653,mdp,2024.2.1,Win32,13.33333333,66d7945b1baad48e845df3ce,,,,,,,,,,,,,,,,,,,,,904.2765,904.2765,904.277,905.2647,1,1,right,0.393,,905.2653,906.4685,0,0,left,906.469,909.5624,1,1,right,0,909.5624,909.5624,909.563,911.0169,0,31,31,31,1,0.2,0.8,0.2,0.8,,,,,,,,,,,,,,,0.6119,,0.4,0.6,0.4,0.6,0.6,0.4,0.2,0.8,,,2.4824,,0.8,0.2,0.4,0.6,0.8,0.2,0.6,0.4,1,0
,,6692d088fc492a0498191caf,66daf5b2ad46a82650c384c6,2024-09-06_14h36.37.653,mdp,2024.2.1,Win32,13.33333333,66d7945b1baad48e845df3ce,,,,,,,,,,,,,,,,,,,,,911.0171,911.0171,911.0176,912.9108,1,1,right,1.2636,,912.9114,913.8942,0,1,left,913.8948,914.9106,0,0,left,1,914.9107,914.9107,914.9112,916.3684,0,32,32,32,1,0.2,0.8,0.2,0.8,,,,,,,,,,,,,,,0.3981,,0.4,0.6,0.4,0.6,0.2,0.8,0.8,0.2,,,0.41,,0.8,0.2,0.4,0.6,0.8,0.2,0.6,0.4,1,0
,,6692d088fc492a0498191caf,66daf5b2ad46a82650c384c6,2024-09-06_14h36.37.653,mdp,2024.2.1,Win32,13.33333333,66d7945b1baad48e845df3ce,,,,,,,,,,,,,,,,,,,,,916.3686,916.3686,916.3692,920.2504,1,1,right,3.2548,,920.2581,921.255,1,0,right,921.2556,922.3494,1,1,right,0,922.3494,922.3494,922.35,923.8197,0,33,33,33,1,0.2,0.8,0.2,0.8,,,,,,,,,,,,,,,0.4025,,0.4,0.6,0.4,0.6,0.2,0.8,0.8,0.2,,,0.4861,,0.8,0.2,0.4,0.6,0.8,0.2,0.6,0.4,1,0
,,6692d088fc492a0498191caf,66daf5b2ad46a82650c384c6,2024-09-06_14h36.37.653,mdp,2024.2.1,Win32,13.33333333,66d7945b1baad48e845df3ce,,,,,,,,,,,,,,,,,,,,,923.82,923.82,923.8205,924.5033,0,0,left,0.0849,,924.5038,925.4142,1,1,right,925.4148,926.3491,1,1,right,0,926.3491,926.3491,926.3496,927.8619,0,34,34,34,1,0.2,0.8,0.2,0.8,,,,,,,,,,,,,,,0.3139,,0.4,0.6,0.4,0.6,0.2,0.8,0.8,0.2,,,0.3302,,0.6,0.4,0.8,0.2,0.8,0.2,0.6,0.4,1,0
,,6692d088fc492a0498191caf,66daf5b2ad46a82650c384c6,2024-09-06_14h36.37.653,mdp,2024.2.1,Win32,13.33333333,66d7945b1baad48e845df3ce,,,,,,,,,,,,,,,,,,,,,927.8622,927.8622,927.8628,928.9128,0,1,left,0.4512,,928.9134,930.3119,1,0,right,930.3125,931.832,1,0,right,1,931.8321,931.8321,931.8326,933.2994,0,35,35,35,1,0.2,0.8,0.2,0.8,,,,,,,,,,,,,,,0.7801,,0.4,0.6,0.4,0.6,0.2,0.8,0.8,0.2,,,0.9344,,0.6,0.4,0.8,0.2,0.8,0.2,0.6,0.4,1,0
,,6692d088fc492a0498191caf,66daf5b2ad46a82650c384c6,2024-09-06_14h36.37.653,mdp,2024.2.1,Win32,13.33333333,66d7945b1baad48e845df3ce,,,,,,,,,,,,,,,,,,,,,933.2996,933.2996,933.3001,936.6627,1,0,right,2.7583,,936.6707,937.729,0,0,left,937.7295,939.1105,1,0,right,1,939.1105,939.1105,939.1111,940.5867,0,36,36,36,1,0.2,0.8,0.2,0.8,,,,,,,,,,,,,,,0.4709,,0.4,0.6,0.4,0.6,0.2,0.8,0.8,0.2,,,0.7905,,0.6,0.4,0.8,0.2,0.8,0.2,0.6,0.4,1,0
,,6692d088fc492a0498191caf,66daf5b2ad46a82650c384c6,2024-09-06_14h36.37.653,mdp,2024.2.1,Win32,13.33333333,66d7945b1baad48e845df3ce,,,,,,,,,,,,,,,,,,,,,940.5869,940.5869,940.5875,941.9648,1,1,right,0.7723,,941.9654,943.042,1,1,right,943.0426,944.2576,0,1,left,0,944.2576,944.2576,944.2581,945.7684,0,37,37,37,1,0.2,0.8,0.2,0.8,,,,,,,,,,,,,,,0.4668,,0.4,0.6,0.4,0.6,0.2,0.8,0.8,0.2,,,0.6205,,0.6,0.4,0.8,0.2,0.8,0.2,0.6,0.4,1,0
,,6692d088fc492a0498191caf,66daf5b2ad46a82650c384c6,2024-09-06_14h36.37.653,mdp,2024.2.1,Win32,13.33333333,66d7945b1baad48e845df3ce,,,,,,,,,,,,,,,,,,,,,945.7686,945.7686,945.7691,949.5015,1,0,right,3.1584,,949.5094,950.7373,0,0,left,950.7379,952.0204,1,0,right,1,952.0204,952.0204,952.021,953.4918,0,38,38,38,1,0.2,0.8,0.2,0.8,,,,,,,,,,,,,,,0.6115,,0.4,0.6,0.4,0.6,0.2,0.8,0.8,0.2,,,0.6899,,0.6,0.4,0.8,0.2,0.8,0.2,0.6,0.4,1,0
,,6692d088fc492a0498191caf,66daf5b2ad46a82650c384c6,2024-09-06_14h36.37.653,mdp,2024.2.1,Win32,13.33333333,66d7945b1baad48e845df3ce,,,,,,,,,,,,,,,,,,,,,953.4921,953.4921,953.4927,963.406,1,1,right,9.3122,,963.4145,964.5742,1,0,right,964.5747,965.8592,1,0,right,1,965.8592,965.8592,965.8598,967.3511,0,39,39,39,1,0.2,0.8,0.2,0.8,,,,,,,,,,,,,,,0.5556,,0.6,0.4,0.2,0.8,0.2,0.8,0.8,0.2,,,0.6947,,0.6,0.4,0.8,0.2,0.8,0.2,0.6,0.4,1,0
,,6692d088fc492a0498191caf,66daf5b2ad46a82650c384c6,2024-09-06_14h36.37.653,mdp,2024.2.1,Win32,13.33333333,66d7945b1baad48e845df3ce,,,,,,,,,,,,,,,,,,,,,967.3513,967.3513,967.3519,968.8651,1,1,right,0.9278,,968.8657,970.0178,1,0,right,970.0184,971.5421,1,1,right,0,971.5421,971.5421,971.5427,973.0206,0,40,40,40,1,0.2,0.8,0.2,0.8,,,,,,,,,,,,,,,0.5499,,0.6,0.4,0.2,0.8,0.2,0.8,0.8,0.2,,,0.8735,,0.6,0.4,0.8,0.2,0.8,0.2,0.6,0.4,1,0
,,6692d088fc492a0498191caf,66daf5b2ad46a82650c384c6,2024-09-06_14h36.37.653,mdp,2024.2.1,Win32,13.33333333,66d7945b1baad48e845df3ce,,,,,,,,,,,,,,,,,,,,,973.0208,973.0208,973.0214,974.9061,1,1,right,1.285,,974.9067,978.017,1,0,right,978.0176,979.5619,1,0,right,1,979.5619,979.5619,979.5625,981.0646,0,41,41,41,1,0.2,0.8,0.2,0.8,,,,,,,,,,,,,,,2.5121,,0.6,0.4,0.2,0.8,0.2,0.8,0.8,0.2,,,0.9417,,0.6,0.4,0.8,0.2,0.8,0.2,0.6,0.4,1,0
,,6692d088fc492a0498191caf,66daf5b2ad46a82650c384c6,2024-09-06_14h36.37.653,mdp,2024.2.1,Win32,13.33333333,66d7945b1baad48e845df3ce,,,,,,,,,,,,,,,,,,,,,981.0648,981.0649,981.0654,982.3819,1,1,right,0.6815,,982.3825,983.6697,1,0,right,983.6702,1007.3348,1,0,right,1,1007.3349,1007.3349,1007.3433,1008.8008,0,42,42,42,1,0.2,0.8,0.2,0.8,,,,,,,,,,,,,,,0.6525,,0.6,0.4,0.2,0.8,0.2,0.8,0.8,0.2,,,23.0472,,0.6,0.4,0.8,0.2,0.8,0.2,0.6,0.4,1,0
,,6692d088fc492a0498191caf,66daf5b2ad46a82650c384c6,2024-09-06_14h36.37.653,mdp,2024.2.1,Win32,13.33333333,66d7945b1baad48e845df3ce,,,,,,,,,,,,,,,,,,,,,1008.801,1008.801,1008.8016,1010.0553,1,1,right,0.6307,,1010.0566,1011.3759,1,0,right,1011.3765,1012.5941,1,0,right,1,1012.5941,1012.5941,1012.5946,1014.066,0,43,43,43,1,0.2,0.8,0.2,0.8,,,,,,,,,,,,,,,0.6974,,0.6,0.4,0.2,0.8,0.2,0.8,0.8,0.2,,,0.6358,,0.6,0.4,0.8,0.2,0.8,0.2,0.6,0.4,1,0
,,6692d088fc492a0498191caf,66daf5b2ad46a82650c384c6,2024-09-06_14h36.37.653,mdp,2024.2.1,Win32,13.33333333,66d7945b1baad48e845df3ce,,,,,,,,,,,,,,,,,,,,,1014.0663,1014.0663,1014.0668,1014.9766,1,1,right,0.3268,,1014.9772,1016.1382,1,0,right,1016.1388,1017.1444,1,0,right,1,1017.1444,1017.1444,1017.145,1018.6182,0,44,44,44,1,0.2,0.8,0.2,0.8,,,,,,,,,,,,,,,0.5529,,0.6,0.4,0.2,0.8,0.2,0.8,0.8,0.2,,,0.4061,,0.6,0.4,0.8,0.2,0.8,0.2,0.6,0.4,1,0
,,6692d088fc492a0498191caf,66daf5b2ad46a82650c384c6,2024-09-06_14h36.37.653,mdp,2024.2.1,Win32,13.33333333,66d7945b1baad48e845df3ce,,,,,,,,,,,,,,,,,,,,,1018.6185,1018.6185,1018.6189,1019.5338,1,1,right,0.3201,,1019.5344,1020.6093,1,0,right,1020.6099,1021.7489,1,0,right,1,1021.749,1021.749,1021.7494,1023.2303,0,45,45,45,1,0.2,0.8,0.2,0.8,,,,,,,,,,,,,,,0.4708,,0.6,0.4,0.2,0.8,0.2,0.8,0.8,0.2,,,0.545,,0.6,0.4,0.8,0.2,0.8,0.2,0.6,0.4,1,0
,,6692d088fc492a0498191caf,66daf5b2ad46a82650c384c6,2024-09-06_14h36.37.653,mdp,2024.2.1,Win32,13.33333333,66d7945b1baad48e845df3ce,,,,,,,,,,,,,,,,,,,,,1023.2305,1023.2305,1023.2309,1024.5429,1,1,right,0.6994,,1024.5435,1025.6043,1,0,right,1025.6049,1026.7562,1,0,right,1,1026.7562,1026.7562,1026.757,1028.2202,0,46,46,46,1,0.2,0.8,0.2,0.8,,,,,,,,,,,,,,,0.4685,,0.6,0.4,0.2,0.8,0.2,0.8,0.8,0.2,,,0.5518,,0.6,0.4,0.8,0.2,0.8,0.2,0.6,0.4,1,0
,,6692d088fc492a0498191caf,66daf5b2ad46a82650c384c6,2024-09-06_14h36.37.653,mdp,2024.2.1,Win32,13.33333333,66d7945b1baad48e845df3ce,,,,,,,,,,,,,,,,,,,,,1028.2204,1028.2204,1028.2209,1029.1394,1,1,right,0.3233,,1029.14,1030.761,1,0,right,1030.7616,1031.992,1,0,right,1,1031.992,1031.992,1031.9925,1033.462,0,47,47,47,1,0.2,0.8,0.2,0.8,,,,,,,,,,,,,,,1.0157,,0.6,0.4,0.2,0.8,0.2,0.8,0.8,0.2,,,0.6187,,0.6,0.4,0.8,0.2,0.8,0.2,0.6,0.4,1,0
,,6692d088fc492a0498191caf,66daf5b2ad46a82650c384c6,2024-09-06_14h36.37.653,mdp,2024.2.1,Win32,13.33333333,66d7945b1baad48e845df3ce,,,,,,,,,,,,,,,,,,,,,1033.4623,1033.4623,1033.4628,1035.7265,1,1,right,1.6689,,1035.7271,1036.8137,1,0,right,1036.8142,1038.1219,1,0,right,1,1038.1219,1038.1219,1038.1225,1039.5809,0,48,48,48,1,0.2,0.8,0.2,0.8,,,,,,,,,,,,,,,0.4719,,0.6,0.4,0.2,0.8,0.2,0.8,0.8,0.2,,,0.6923,,0.6,0.4,0.8,0.2,0.2,0.8,0.8,0.2,1,0
,,6692d088fc492a0498191caf,66daf5b2ad46a82650c384c6,2024-09-06_14h36.37.653,mdp,2024.2.1,Win32,13.33333333,66d7945b1baad48e845df3ce,,,,,,,,,,,,,,,,,,,,,1039.5812,1039.5812,1039.5817,1043.4422,1,1,right,3.2625,,1043.4499,1044.5862,1,0,right,1044.5867,1045.6496,1,0,right,1,1045.6496,1045.6496,1045.6502,1047.088,0,49,49,49,1,0.2,0.8,0.2,0.8,,,,,,,,,,,,,,,0.5432,,0.6,0.4,0.2,0.8,0.2,0.8,0.8,0.2,,,0.4758,,0.6,0.4,0.8,0.2,0.2,0.8,0.8,0.2,1,0
,,6692d088fc492a0498191caf,66daf5b2ad46a82650c384c6,2024-09-06_14h36.37.653,mdp,2024.2.1,Win32,13.33333333,66d7945b1baad48e845df3ce,,,,,,,,,,,,,,,,,,,,,,,,,,,,,,,,,,,,,,,,,,,,,,,,,,,,,,,,1047.088,1105.7244,0,2,2,8,1,imgs/cat.png,imgs/giraffe.png,imgs/lion.png,imgs/rabbit.png,imgs/kangaroo.png,,,,,,,,,,,,,,,,,,,,,,,,
,,6692d088fc492a0498191caf,66daf5b2ad46a82650c384c6,2024-09-06_14h36.37.653,mdp,2024.2.1,Win32,13.33333333,66d7945b1baad48e845df3ce,,,,,,,,,,,,,,3,seqs/st3seq11.csv,1105.7323,1112.1113,space,5.7779,,1112.1217,1112.1217,1112.1222,1113.1711,1,1,right,0.4102,,1113.1716,1114.6869,1,1,right,1114.6874,1115.7989,1,0,right,1,1115.799,1115.799,1115.7996,1117.2637,0,0,0,0,1,0.8,0.2,0.2,0.8,,,,,,,,,,,,,,,0.8959,,0.8,0.2,0.2,0.8,0.2,0.8,0.2,0.8,,,0.4941,,0.6,0.4,0.2,0.8,0.2,0.8,0.4,0.6,1,0
,,6692d088fc492a0498191caf,66daf5b2ad46a82650c384c6,2024-09-06_14h36.37.653,mdp,2024.2.1,Win32,13.33333333,66d7945b1baad48e845df3ce,,,,,,,,,,,,,,,,,,,,,1117.264,1117.264,1117.2644,1118.1892,1,1,right,0.3157,,1118.1899,1119.1002,1,0,right,1119.1008,1120.1129,1,1,right,0,1120.1129,1120.1129,1120.1135,1121.5602,0,1,1,1,1,0.8,0.2,0.2,0.8,,,,,,,,,,,,,,,0.3128,,0.8,0.2,0.2,0.8,0.2,0.8,0.2,0.8,,,0.3984,,0.6,0.4,0.2,0.8,0.2,0.8,0.4,0.6,1,0
,,6692d088fc492a0498191caf,66daf5b2ad46a82650c384c6,2024-09-06_14h36.37.653,mdp,2024.2.1,Win32,13.33333333,66d7945b1baad48e845df3ce,,,,,,,,,,,,,,,,,,,,,1121.5605,1121.5605,1121.5609,1122.2306,1,1,right,0.0843,,1122.2312,1123.3106,1,1,right,1123.3112,1124.6202,1,0,right,1,1124.6203,1124.6203,1124.6208,1126.1343,0,2,2,2,1,0.8,0.2,0.2,0.8,,,,,,,,,,,,,,,0.4719,,0.8,0.2,0.2,0.8,0.2,0.8,0.2,0.8,,,0.7128,,0.6,0.4,0.2,0.8,0.2,0.8,0.4,0.6,1,0
,,6692d088fc492a0498191caf,66daf5b2ad46a82650c384c6,2024-09-06_14h36.37.653,mdp,2024.2.1,Win32,13.33333333,66d7945b1baad48e845df3ce,,,,,,,,,,,,,,,,,,,,,1126.1346,1126.1346,1126.1351,1133.2247,1,0,right,6.4951,,1133.2325,1134.3131,1,1,right,1134.3136,1135.5312,1,1,right,0,1135.5312,1135.5312,1135.5319,1136.9903,0,3,3,3,1,0.8,0.2,0.2,0.8,,,,,,,,,,,,,,,0.4857,,0.8,0.2,0.2,0.8,0.2,0.8,0.2,0.8,,,0.6277,,0.6,0.4,0.2,0.8,0.2,0.8,0.4,0.6,1,0
,,6692d088fc492a0498191caf,66daf5b2ad46a82650c384c6,2024-09-06_14h36.37.653,mdp,2024.2.1,Win32,13.33333333,66d7945b1baad48e845df3ce,,,,,,,,,,,,,,,,,,,,,1136.9906,1136.9906,1136.9911,1142.9166,1,1,right,5.337,,1142.9246,1144.3898,1,0,right,1144.3904,1145.3127,1,1,right,0,1145.3128,1145.3128,1145.3133,1146.7574,0,4,4,4,1,0.8,0.2,0.2,0.8,,,,,,,,,,,,,,,0.8618,,0.8,0.2,0.2,0.8,0.4,0.6,0.4,0.6,,,0.3228,,0.6,0.4,0.2,0.8,0.2,0.8,0.4,0.6,1,0
,,6692d088fc492a0498191caf,66daf5b2ad46a82650c384c6,2024-09-06_14h36.37.653,mdp,2024.2.1,Win32,13.33333333,66d7945b1baad48e845df3ce,,,,,,,,,,,,,,,,,,,,,1146.7577,1146.7577,1146.7582,1147.9035,1,1,right,0.5599,,1147.904,1148.904,1,0,right,1148.9045,1150.0501,1,1,right,0,1150.0501,1150.0501,1150.0507,1151.5332,0,5,5,5,1,0.8,0.2,0.2,0.8,,,,,,,,,,,,,,,0.3908,,0.8,0.2,0.2,0.8,0.4,0.6,0.4,0.6,,,0.5566,,0.6,0.4,0.2,0.8,0.2,0.8,0.4,0.6,1,0
,,6692d088fc492a0498191caf,66daf5b2ad46a82650c384c6,2024-09-06_14h36.37.653,mdp,2024.2.1,Win32,13.33333333,66d7945b1baad48e845df3ce,,,,,,,,,,,,,,,,,,,,,1151.5335,1151.5335,1151.534,1152.4676,1,1,right,0.3198,,1152.4682,1153.2981,1,1,right,1153.2986,1154.2922,1,0,right,1,1154.2923,1154.2923,1154.293,1155.7793,0,6,6,6,1,0.8,0.2,0.2,0.8,,,,,,,,,,,,,,,0.2351,,0.8,0.2,0.2,0.8,0.4,0.6,0.4,0.6,,,0.3985,,0.6,0.4,0.2,0.8,0.2,0.8,0.4,0.6,1,0
,,6692d088fc492a0498191caf,66daf5b2ad46a82650c384c6,2024-09-06_14h36.37.653,mdp,2024.2.1,Win32,13.33333333,66d7945b1baad48e845df3ce,,,,,,,,,,,,,,,,,,,,,1155.7796,1155.7796,1155.7801,1159.5279,1,1,right,3.1451,,1159.536,1160.4493,1,1,right,1160.4498,1161.8446,1,1,right,0,1161.8447,1161.8447,1161.8452,1163.3016,0,7,7,7,1,0.8,0.2,0.2,0.8,,,,,,,,,,,,,,,0.3153,,0.8,0.2,0.2,0.8,0.4,0.6,0.4,0.6,,,0.7895,,0.6,0.4,0.2,0.8,0.2,0.8,0.4,0.6,1,0
,,6692d088fc492a0498191caf,66daf5b2ad46a82650c384c6,2024-09-06_14h36.37.653,mdp,2024.2.1,Win32,13.33333333,66d7945b1baad48e845df3ce,,,,,,,,,,,,,,,,,,,,,1163.3018,1163.3018,1163.3024,1166.811,1,1,right,2.9206,,1166.8114,1167.7296,1,1,right,1167.7303,1168.7224,1,1,right,0,1168.7225,1168.7225,1168.7231,1170.1691,0,8,8,8,1,0.8,0.2,0.2,0.8,,,,,,,,,,,,,,,0.3109,,0.8,0.2,0.2,0.8,0.4,0.6,0.4,0.6,,,0.3883,,0.6,0.4,0.2,0.8,0.2,0.8,0.4,0.6,1,0
,,6692d088fc492a0498191caf,66daf5b2ad46a82650c384c6,2024-09-06_14h36.37.653,mdp,2024.2.1,Win32,13.33333333,66d7945b1baad48e845df3ce,,,,,,,,,,,,,,,,,,,,,1170.1693,1170.1693,1170.1697,1172.152,1,1,right,1.3792,,1172.1525,1173.0679,1,1,right,1173.0685,1174.0592,1,1,right,0,1174.0592,1174.0592,1174.0598,1175.526,0,9,9,9,1,0.8,0.2,0.2,0.8,,,,,,,,,,,,,,,0.322,,0.8,0.2,0.2,0.8,0.4,0.6,0.4,0.6,,,0.3973,,0.6,0.4,0.2,0.8,0.2,0.8,0.4,0.6,1,0
,,6692d088fc492a0498191caf,66daf5b2ad46a82650c384c6,2024-09-06_14h36.37.653,mdp,2024.2.1,Win32,13.33333333,66d7945b1baad48e845df3ce,,,,,,,,,,,,,,,,,,,,,1175.5262,1175.5262,1175.5267,1178.8474,1,1,right,2.7381,,1178.8553,1181.9885,1,1,right,1181.9891,1196.1633,1,1,right,0,1196.1633,1196.1633,1196.1715,1197.6499,0,10,10,10,1,0.8,0.2,0.2,0.8,,,,,,,,,,,,,,,2.523,,0.8,0.2,0.2,0.8,0.4,0.6,0.4,0.6,,,13.5433,,0.6,0.4,0.2,0.8,0.2,0.8,0.4,0.6,1,0
,,6692d088fc492a0498191caf,66daf5b2ad46a82650c384c6,2024-09-06_14h36.37.653,mdp,2024.2.1,Win32,13.33333333,66d7945b1baad48e845df3ce,,,,,,,,,,,,,,,,,,,,,1197.6501,1197.6501,1197.6507,1204.7869,1,1,right,6.4916,,1204.7953,1205.925,1,1,right,1205.9255,1206.9088,1,1,right,0,1206.9088,1206.9088,1206.9094,1208.3755,0,11,11,11,1,0.8,0.2,0.2,0.8,,,,,,,,,,,,,,,0.5302,,0.8,0.2,0.2,0.8,0.4,0.6,0.4,0.6,,,0.3854,,0.6,0.4,0.2,0.8,0.2,0.8,0.4,0.6,1,0
,,6692d088fc492a0498191caf,66daf5b2ad46a82650c384c6,2024-09-06_14h36.37.653,mdp,2024.2.1,Win32,13.33333333,66d7945b1baad48e845df3ce,,,,,,,,,,,,,,,,,,,,,1208.3758,1208.3758,1208.3763,1211.9096,1,1,right,2.9448,,1211.9172,1212.7442,1,0,right,1212.7448,1213.7488,1,1,right,0,1213.7488,1213.7489,1213.7494,1215.2066,0,12,12,12,1,0.8,0.2,0.2,0.8,,,,,,,,,,,,,,,0.2325,,0.8,0.2,0.2,0.8,0.4,0.6,0.4,0.6,,,0.3858,,0.6,0.4,0.2,0.8,0.2,0.8,0.4,0.6,1,0
,,6692d088fc492a0498191caf,66daf5b2ad46a82650c384c6,2024-09-06_14h36.37.653,mdp,2024.2.1,Win32,13.33333333,66d7945b1baad48e845df3ce,,,,,,,,,,,,,,,,,,,,,1215.2069,1215.2069,1215.2074,1216.2985,1,1,right,0.474,,1216.2992,1217.3353,0,0,left,1217.3358,1218.2579,1,0,right,1,1218.258,1218.258,1218.2584,1219.7338,0,13,13,13,1,0.8,0.2,0.2,0.8,,,,,,,,,,,,,,,0.4262,,0.8,0.2,0.2,0.8,0.4,0.6,0.4,0.6,,,0.3135,,0.2,0.8,0.8,0.2,0.2,0.8,0.4,0.6,1,0
,,6692d088fc492a0498191caf,66daf5b2ad46a82650c384c6,2024-09-06_14h36.37.653,mdp,2024.2.1,Win32,13.33333333,66d7945b1baad48e845df3ce,,,,,,,,,,,,,,,,,,,,,1219.7341,1219.7341,1219.7347,1221.1808,1,1,right,0.8588,,1221.1814,1222.3595,0,0,left,1222.36,1227.5473,1,1,right,0,1227.5473,1227.5473,1227.5556,1229.0119,0,14,14,14,1,0.8,0.2,0.2,0.8,,,,,,,,,,,,,,,0.57,,0.8,0.2,0.2,0.8,0.4,0.6,0.4,0.6,,,4.6022,,0.2,0.8,0.8,0.2,0.2,0.8,0.4,0.6,1,0
,,6692d088fc492a0498191caf,66daf5b2ad46a82650c384c6,2024-09-06_14h36.37.653,mdp,2024.2.1,Win32,13.33333333,66d7945b1baad48e845df3ce,,,,,,,,,,,,,,,,,,,,,1229.0121,1229.0121,1229.0126,1229.6137,1,1,right,0.0112,,1229.6143,1232.3618,1,1,right,1232.3694,1233.5229,1,1,right,0,1233.5229,1233.5229,1233.5234,1235.0541,0,15,15,15,1,0.8,0.2,0.2,0.8,,,,,,,,,,,,,,,2.1708,,0.8,0.2,0.2,0.8,0.4,0.6,0.4,0.6,,,0.558,,0.2,0.8,0.8,0.2,0.2,0.8,0.4,0.6,1,0
,,6692d088fc492a0498191caf,66daf5b2ad46a82650c384c6,2024-09-06_14h36.37.653,mdp,2024.2.1,Win32,13.33333333,66d7945b1baad48e845df3ce,,,,,,,,,,,,,,,,,,,,,1235.0544,1235.0544,1235.0549,1239.5589,1,1,right,3.9119,,1239.5668,1240.6904,1,1,right,1240.6909,1241.6373,1,0,right,1,1241.6373,1241.6373,1241.6379,1243.0992,0,16,16,16,1,0.8,0.2,0.2,0.8,,,,,,,,,,,,,,,0.5412,,0.8,0.2,0.2,0.8,0.4,0.6,0.4,0.6,,,0.3418,,0.2,0.8,0.8,0.2,0.2,0.8,0.4,0.6,1,0
,,6692d088fc492a0498191caf,66daf5b2ad46a82650c384c6,2024-09-06_14h36.37.653,mdp,2024.2.1,Win32,13.33333333,66d7945b1baad48e845df3ce,,,,,,,,,,,,,,,,,,,,,1243.0994,1243.0994,1243.0999,1244.1611,1,0,right,0.4229,,1244.1616,1245.2939,1,1,right,1245.2945,1246.4708,1,1,right,0,1246.4709,1246.4709,1246.4713,1247.9559,0,17,17,17,1,0.6,0.4,0.6,0.4,,,,,,,,,,,,,,,0.4961,,0.8,0.2,0.2,0.8,0.4,0.6,0.4,0.6,,,0.5545,,0.2,0.8,0.8,0.2,0.2,0.8,0.4,0.6,1,0
,,6692d088fc492a0498191caf,66daf5b2ad46a82650c384c6,2024-09-06_14h36.37.653,mdp,2024.2.1,Win32,13.33333333,66d7945b1baad48e845df3ce,,,,,,,,,,,,,,,,,,,,,1247.9563,1247.9563,1247.9568,1249.3548,0,1,left,0.7732,,1249.3553,1250.3053,1,1,right,1250.3059,1251.2192,0,1,left,0,1251.2193,1251.2193,1251.2198,1252.6887,0,18,18,18,1,0.6,0.4,0.6,0.4,,,,,,,,,,,,,,,0.3447,,0.8,0.2,0.2,0.8,0.4,0.6,0.4,0.6,,,0.3192,,0.2,0.8,0.8,0.2,0.2,0.8,0.4,0.6,1,0
,,6692d088fc492a0498191caf,66daf5b2ad46a82650c384c6,2024-09-06_14h36.37.653,mdp,2024.2.1,Win32,13.33333333,66d7945b1baad48e845df3ce,,,,,,,,,,,,,,,,,,,,,1252.689,1252.689,1252.6894,1258.6724,1,0,right,5.3823,,1258.6804,1264.7352,1,0,right,1264.7432,1266.1339,1,1,right,0,1266.1339,1266.1339,1266.1345,1267.5935,0,19,19,19,1,0.6,0.4,0.6,0.4,,,,,,,,,,,,,,,5.4473,,0.8,0.2,0.2,0.8,0.4,0.6,0.4,0.6,,,0.7755,,0.2,0.8,0.8,0.2,0.2,0.8,0.4,0.6,1,0
,,6692d088fc492a0498191caf,66daf5b2ad46a82650c384c6,2024-09-06_14h36.37.653,mdp,2024.2.1,Win32,13.33333333,66d7945b1baad48e845df3ce,,,,,,,,,,,,,,,,,,,,,1267.5938,1267.5938,1267.5943,1268.5057,1,0,right,0.3176,,1268.5063,1272.7631,1,1,right,1272.7706,1281.2736,1,0,right,1,1281.2737,1281.2737,1281.282,1282.7416,0,20,20,20,1,0.6,0.4,0.6,0.4,,,,,,,,,,,,,,,3.6631,,0.8,0.2,0.2,0.8,0.4,0.6,0.4,0.6,,,7.9088,,0.2,0.8,0.8,0.2,0.2,0.8,0.4,0.6,1,0
,,6692d088fc492a0498191caf,66daf5b2ad46a82650c384c6,2024-09-06_14h36.37.653,mdp,2024.2.1,Win32,13.33333333,66d7945b1baad48e845df3ce,,,,,,,,,,,,,,,,,,,,,1282.7419,1282.7419,1282.7424,1287.254,1,0,right,3.9102,,1287.2617,1291.5382,1,1,right,1291.5461,1292.2251,1,1,right,0,1292.2252,1292.2252,1292.2256,1293.6793,0,21,21,21,1,0.6,0.4,0.6,0.4,,,,,,,,,,,,,,,3.6965,,0.8,0.2,0.2,0.8,0.6,0.4,0.2,0.8,,,0.0907,,0.2,0.8,0.8,0.2,0.2,0.8,0.4,0.6,1,0
,,6692d088fc492a0498191caf,66daf5b2ad46a82650c384c6,2024-09-06_14h36.37.653,mdp,2024.2.1,Win32,13.33333333,66d7945b1baad48e845df3ce,,,,,,,,,,,,,,,,,,,,,1293.6795,1293.6795,1293.6801,1295.055,1,0,right,0.7819,,1295.0555,1295.8883,1,1,right,1295.8889,1297.211,1,1,right,0,1297.211,1297.211,1297.2116,1298.6677,0,22,22,22,1,0.6,0.4,0.6,0.4,,,,,,,,,,,,,,,0.2436,,0.8,0.2,0.2,0.8,0.6,0.4,0.2,0.8,,,0.7098,,0.2,0.8,0.8,0.2,0.8,0.2,0.2,0.8,1,0
,,6692d088fc492a0498191caf,66daf5b2ad46a82650c384c6,2024-09-06_14h36.37.653,mdp,2024.2.1,Win32,13.33333333,66d7945b1baad48e845df3ce,,,,,,,,,,,,,,,,,,,,,1298.668,1298.668,1298.6685,1301.136,1,0,right,1.8684,,1301.1366,1302.2818,1,0,right,1302.2823,1305.9657,1,0,right,1,1305.9657,1305.9657,1305.9663,1307.4114,0,23,23,23,1,0.6,0.4,0.6,0.4,,,,,,,,,,,,,,,0.5426,,0.6,0.4,0.6,0.4,0.6,0.4,0.2,0.8,,,3.0912,,0.2,0.8,0.8,0.2,0.8,0.2,0.2,0.8,1,0
,,6692d088fc492a0498191caf,66daf5b2ad46a82650c384c6,2024-09-06_14h36.37.653,mdp,2024.2.1,Win32,13.33333333,66d7945b1baad48e845df3ce,,,,,,,,,,,,,,,,,,,,,1307.4117,1307.4117,1307.4122,1309.0249,1,1,right,1.0116,,1309.0255,1309.7582,1,1,right,1309.7588,1310.4002,1,1,right,0,1310.4003,1310.4003,1310.4008,1311.9157,0,24,24,24,1,0.6,0.4,0.6,0.4,,,,,,,,,,,,,,,0.0828,,0.6,0.4,0.6,0.4,0.6,0.4,0.2,0.8,,,0.0117,,0.2,0.8,0.8,0.2,0.8,0.2,0.2,0.8,1,0
,,6692d088fc492a0498191caf,66daf5b2ad46a82650c384c6,2024-09-06_14h36.37.653,mdp,2024.2.1,Win32,13.33333333,66d7945b1baad48e845df3ce,,,,,,,,,,,,,,,,,,,,,1311.9159,1311.9159,1311.9165,1313.4221,1,1,right,0.8877,,1313.4226,1314.7365,1,0,right,1314.737,1315.5758,1,0,right,1,1315.5758,1315.5758,1315.5766,1317.0232,0,25,25,25,1,0.6,0.4,0.6,0.4,,,,,,,,,,,,,,,0.7002,,0.6,0.4,0.6,0.4,0.6,0.4,0.2,0.8,,,0.2383,,0.2,0.8,0.8,0.2,0.8,0.2,0.2,0.8,1,0
,,6692d088fc492a0498191caf,66daf5b2ad46a82650c384c6,2024-09-06_14h36.37.653,mdp,2024.2.1,Win32,13.33333333,66d7945b1baad48e845df3ce,,,,,,,,,,,,,,,,,,,,,1317.0234,1317.0235,1317.0239,1320.0257,1,0,right,2.3922,,1320.0263,1323.0712,1,1,right,1323.0718,1331.7512,1,0,right,1,1331.7513,1331.7513,1331.7597,1333.2298,0,26,26,26,1,0.6,0.4,0.6,0.4,,,,,,,,,,,,,,,2.4494,,0.6,0.4,0.6,0.4,0.6,0.4,0.2,0.8,,,8.0744,,0.2,0.8,0.8,0.2,0.8,0.2,0.2,0.8,1,0
,,6692d088fc492a0498191caf,66daf5b2ad46a82650c384c6,2024-09-06_14h36.37.653,mdp,2024.2.1,Win32,13.33333333,66d7945b1baad48e845df3ce,,,,,,,,,,,,,,,,,,,,,1333.2301,1333.2301,1333.2305,1336.2948,1,1,right,2.4702,,1336.3028,1337.2248,1,1,right,1337.2254,1338.156,1,1,right,0,1338.1561,1338.1561,1338.1566,1339.6158,0,27,27,27,1,0.6,0.4,0.6,0.4,,,,,,,,,,,,,,,0.313,,0.6,0.4,0.6,0.4,0.6,0.4,0.2,0.8,,,0.3205,,0.2,0.8,0.8,0.2,0.8,0.2,0.2,0.8,1,0
,,6692d088fc492a0498191caf,66daf5b2ad46a82650c384c6,2024-09-06_14h36.37.653,mdp,2024.2.1,Win32,13.33333333,66d7945b1baad48e845df3ce,,,,,,,,,,,,,,,,,,,,,1339.616,1339.616,1339.6165,1340.8392,0,1,left,0.6181,,1340.8398,1341.6804,1,1,right,1341.6808,1342.558,0,0,left,1,1342.558,1342.558,1342.5586,1344.0099,0,28,28,28,1,0.6,0.4,0.6,0.4,,,,,,,,,,,,,,,0.2402,,0.6,0.4,0.6,0.4,0.6,0.4,0.2,0.8,,,0.2703,,0.2,0.8,0.8,0.2,0.8,0.2,0.2,0.8,1,0
,,6692d088fc492a0498191caf,66daf5b2ad46a82650c384c6,2024-09-06_14h36.37.653,mdp,2024.2.1,Win32,13.33333333,66d7945b1baad48e845df3ce,,,,,,,,,,,,,,,,,,,,,1344.0102,1344.0102,1344.0108,1344.8328,0,1,left,0.2345,,1344.8333,1345.4325,1,1,right,1345.4331,1346.5813,1,1,right,0,1346.5813,1346.5813,1346.5819,1348.0541,0,29,29,29,1,0.6,0.4,0.6,0.4,,,,,,,,,,,,,,,0.0119,,0.6,0.4,0.6,0.4,0.6,0.4,0.2,0.8,,,0.5458,,0.2,0.8,0.8,0.2,0.8,0.2,0.2,0.8,1,0
,,6692d088fc492a0498191caf,66daf5b2ad46a82650c384c6,2024-09-06_14h36.37.653,mdp,2024.2.1,Win32,13.33333333,66d7945b1baad48e845df3ce,,,,,,,,,,,,,,,,,,,,,1348.0546,1348.0546,1348.0551,1348.8104,1,0,right,0.1668,,1348.8109,1349.4136,1,1,right,1349.4141,1357.4971,1,0,right,1,1357.4971,1357.4971,1357.5052,1358.9961,0,30,30,30,1,0.6,0.4,0.6,0.4,,,,,,,,,,,,,,,0.0117,,0.6,0.4,0.6,0.4,0.6,0.4,0.2,0.8,,,7.4695,,0.2,0.8,0.8,0.2,0.8,0.2,0.2,0.8,1,0
,,6692d088fc492a0498191caf,66daf5b2ad46a82650c384c6,2024-09-06_14h36.37.653,mdp,2024.2.1,Win32,13.33333333,66d7945b1baad48e845df3ce,,,,,,,,,,,,,,,,,,,,,1358.9964,1358.9964,1358.9969,1362.3689,1,1,right,2.7617,,1362.3768,1365.0756,1,0,right,1365.0762,1369.632,1,0,right,1,1369.632,1369.632,1369.64,1371.1065,0,31,31,31,1,0.6,0.4,0.6,0.4,,,,,,,,,,,,,,,2.0788,,0.6,0.4,0.6,0.4,0.6,0.4,0.2,0.8,,,3.9543,,0.2,0.8,0.8,0.2,0.8,0.2,0.2,0.8,1,0
,,6692d088fc492a0498191caf,66daf5b2ad46a82650c384c6,2024-09-06_14h36.37.653,mdp,2024.2.1,Win32,13.33333333,66d7945b1baad48e845df3ce,,,,,,,,,,,,,,,,,,,,,1371.1067,1371.1068,1371.1072,1374.4167,1,1,right,2.7173,,1374.4244,1376.1612,1,1,right,1376.1619,1377.5257,0,0,left,1,1377.5258,1377.5258,1377.5264,1379.0602,0,32,32,32,1,0.6,0.4,0.6,0.4,,,,,,,,,,,,,,,1.1385,,0.6,0.4,0.6,0.4,0.6,0.4,0.2,0.8,,,0.7243,,0.2,0.8,0.8,0.2,0.8,0.2,0.2,0.8,1,0
,,6692d088fc492a0498191caf,66daf5b2ad46a82650c384c6,2024-09-06_14h36.37.653,mdp,2024.2.1,Win32,13.33333333,66d7945b1baad48e845df3ce,,,,,,,,,,,,,,,,,,,,,1379.0604,1379.0604,1379.0609,1379.7721,1,1,right,0.0951,,1379.7727,1380.7948,0,1,left,1380.7954,1381.7716,0,1,left,0,1381.7717,1381.7717,1381.7722,1383.239,0,33,33,33,1,0.6,0.4,0.6,0.4,,,,,,,,,,,,,,,0.3971,,0.6,0.4,0.6,0.4,0.6,0.4,0.2,0.8,,,0.3882,,0.2,0.8,0.8,0.2,0.8,0.2,0.2,0.8,1,0
,,6692d088fc492a0498191caf,66daf5b2ad46a82650c384c6,2024-09-06_14h36.37.653,mdp,2024.2.1,Win32,13.33333333,66d7945b1baad48e845df3ce,,,,,,,,,,,,,,,,,,,,,1383.2393,1383.2393,1383.2398,1384.3869,1,0,right,0.5554,,1384.3875,1389.7643,1,0,right,1389.7722,1390.6963,0,1,left,0,1390.6964,1390.6964,1390.6969,1392.1695,0,34,34,34,1,0.6,0.4,0.6,0.4,,,,,,,,,,,,,,,4.786,,0.6,0.4,0.6,0.4,0.6,0.4,0.2,0.8,,,0.3269,,0.2,0.8,0.8,0.2,0.8,0.2,0.2,0.8,1,0
,,6692d088fc492a0498191caf,66daf5b2ad46a82650c384c6,2024-09-06_14h36.37.653,mdp,2024.2.1,Win32,13.33333333,66d7945b1baad48e845df3ce,,,,,,,,,,,,,,,,,,,,,1392.1697,1392.1697,1392.1709,1393.1723,1,1,right,0.3979,,1393.173,1394.0739,1,1,right,1394.0745,1395.0686,1,1,right,0,1395.0686,1395.0686,1395.0691,1396.5662,0,35,35,35,1,0.6,0.4,0.6,0.4,,,,,,,,,,,,,,,0.3176,,0.6,0.4,0.6,0.4,0.6,0.4,0.2,0.8,,,0.4079,,0.2,0.8,0.8,0.2,0.8,0.2,0.2,0.8,1,0
,,6692d088fc492a0498191caf,66daf5b2ad46a82650c384c6,2024-09-06_14h36.37.653,mdp,2024.2.1,Win32,13.33333333,66d7945b1baad48e845df3ce,,,,,,,,,,,,,,,,,,,,,1396.5667,1396.5667,1396.5672,1397.3645,1,0,right,0.1654,,1397.3652,1398.2192,1,1,right,1398.2197,1399.2913,1,1,right,0,1399.2913,1399.2913,1399.2918,1400.7384,0,36,36,36,1,0.6,0.4,0.6,0.4,,,,,,,,,,,,,,,0.2455,,0.6,0.4,0.6,0.4,0.6,0.4,0.2,0.8,,,0.4846,,0.2,0.8,0.8,0.2,0.8,0.2,0.2,0.8,1,0
,,6692d088fc492a0498191caf,66daf5b2ad46a82650c384c6,2024-09-06_14h36.37.653,mdp,2024.2.1,Win32,13.33333333,66d7945b1baad48e845df3ce,,,,,,,,,,,,,,,,,,,,,1400.7387,1400.7387,1400.7392,1401.7353,1,1,right,0.3932,,1401.7359,1402.8294,1,0,right,1402.8299,1403.5085,1,0,right,1,1403.5085,1403.5085,1403.5091,1404.9655,0,37,37,37,1,0.6,0.4,0.6,0.4,,,,,,,,,,,,,,,0.4817,,0.6,0.4,0.6,0.4,0.6,0.4,0.2,0.8,,,0.0853,,0.2,0.8,0.8,0.2,0.8,0.2,0.2,0.8,1,0
,,6692d088fc492a0498191caf,66daf5b2ad46a82650c384c6,2024-09-06_14h36.37.653,mdp,2024.2.1,Win32,13.33333333,66d7945b1baad48e845df3ce,,,,,,,,,,,,,,,,,,,,,1404.9657,1404.9657,1404.9662,1406.3271,1,0,right,0.7699,,1406.3277,1407.4069,1,1,right,1407.4074,1408.5037,1,1,right,0,1408.5038,1408.5038,1408.5043,1409.9696,0,38,38,38,1,0.6,0.4,0.6,0.4,,,,,,,,,,,,,,,0.4667,,0.6,0.4,0.6,0.4,0.6,0.4,0.2,0.8,,,0.4578,,0.2,0.8,0.8,0.2,0.8,0.2,0.2,0.8,1,0
,,6692d088fc492a0498191caf,66daf5b2ad46a82650c384c6,2024-09-06_14h36.37.653,mdp,2024.2.1,Win32,13.33333333,66d7945b1baad48e845df3ce,,,,,,,,,,,,,,,,,,,,,1409.9698,1409.9698,1409.9704,1411.6168,1,1,right,1.0459,,1411.6174,1413.173,1,1,right,1413.1735,1413.9322,1,0,right,1,1413.9323,1413.9323,1413.9327,1415.4439,0,39,39,39,1,0.6,0.4,0.6,0.4,,,,,,,,,,,,,,,0.9454,,0.6,0.4,0.6,0.4,0.6,0.4,0.2,0.8,,,0.1587,,0.2,0.8,0.8,0.2,0.8,0.2,0.2,0.8,1,0
,,6692d088fc492a0498191caf,66daf5b2ad46a82650c384c6,2024-09-06_14h36.37.653,mdp,2024.2.1,Win32,13.33333333,66d7945b1baad48e845df3ce,,,,,,,,,,,,,,,,,,,,,1415.4441,1415.4441,1415.4447,1416.208,1,0,right,0.1656,,1416.2085,1417.1324,1,1,right,1417.133,1418.221,1,0,right,1,1418.2211,1418.2211,1418.2216,1419.743,0,40,40,40,1,0.6,0.4,0.6,0.4,,,,,,,,,,,,,,,0.3284,,0.6,0.4,0.6,0.4,0.6,0.4,0.2,0.8,,,0.4785,,0.2,0.8,0.8,0.2,0.8,0.2,0.2,0.8,1,0
,,6692d088fc492a0498191caf,66daf5b2ad46a82650c384c6,2024-09-06_14h36.37.653,mdp,2024.2.1,Win32,13.33333333,66d7945b1baad48e845df3ce,,,,,,,,,,,,,,,,,,,,,1419.7432,1419.7432,1419.7437,1420.8187,1,1,right,0.4721,,1420.8194,1423.3382,1,1,right,1423.3387,1424.5519,0,0,left,1,1424.552,1424.552,1424.5525,1426.032,0,41,41,41,1,0.6,0.4,0.6,0.4,,,,,,,,,,,,,,,1.9293,,0.6,0.4,0.6,0.4,0.6,0.4,0.2,0.8,,,0.6163,,0.2,0.8,0.8,0.2,0.8,0.2,0.2,0.8,1,0
,,6692d088fc492a0498191caf,66daf5b2ad46a82650c384c6,2024-09-06_14h36.37.653,mdp,2024.2.1,Win32,13.33333333,66d7945b1baad48e845df3ce,,,,,,,,,,,,,,,,,,,,,1426.0323,1426.0323,1426.0328,1426.9227,1,0,right,0.2741,,1426.9232,1427.8974,1,0,right,1427.898,1428.7398,1,0,right,1,1428.7398,1428.7398,1428.7404,1430.1901,0,42,42,42,1,0.6,0.4,0.6,0.4,,,,,,,,,,,,,,,0.3988,,0.6,0.4,0.6,0.4,0.6,0.4,0.2,0.8,,,0.2481,,0.2,0.8,0.8,0.2,0.8,0.2,0.2,0.8,1,0
,,6692d088fc492a0498191caf,66daf5b2ad46a82650c384c6,2024-09-06_14h36.37.653,mdp,2024.2.1,Win32,13.33333333,66d7945b1baad48e845df3ce,,,,,,,,,,,,,,,,,,,,,1430.1904,1430.1904,1430.1909,1433.3036,1,0,right,2.5375,,1433.3041,1434.5681,1,0,right,1434.5687,1435.8537,1,0,right,1,1435.8537,1435.8537,1435.8543,1437.3249,0,43,43,43,1,0.6,0.4,0.6,0.4,,,,,,,,,,,,,,,0.6355,,0.6,0.4,0.6,0.4,0.6,0.4,0.2,0.8,,,0.6919,,0.2,0.8,0.8,0.2,0.8,0.2,0.2,0.8,1,0
,,6692d088fc492a0498191caf,66daf5b2ad46a82650c384c6,2024-09-06_14h36.37.653,mdp,2024.2.1,Win32,13.33333333,66d7945b1baad48e845df3ce,,,,,,,,,,,,,,,,,,,,,1437.3252,1437.3252,1437.3256,1441.8492,1,0,right,3.9218,,1441.8571,1444.2889,1,0,right,1444.2894,1447.0845,1,0,right,1,1447.0845,1447.0845,1447.0851,1448.6075,0,44,44,44,1,0.6,0.4,0.6,0.4,,,,,,,,,,,,,,,1.8765,,0.6,0.4,0.6,0.4,0.6,0.4,0.2,0.8,,,2.1881,,0.2,0.8,0.8,0.2,0.8,0.2,0.2,0.8,1,0
,,6692d088fc492a0498191caf,66daf5b2ad46a82650c384c6,2024-09-06_14h36.37.653,mdp,2024.2.1,Win32,13.33333333,66d7945b1baad48e845df3ce,,,,,,,,,,,,,,,,,,,,,1448.6077,1448.6077,1448.6082,1453.5331,1,1,right,4.3286,,1453.5411,1454.406,1,1,right,1454.4066,1455.3903,1,1,right,0,1455.3903,1455.3903,1455.3909,1456.8947,0,45,45,45,1,0.6,0.4,0.6,0.4,,,,,,,,,,,,,,,0.2466,,0.6,0.4,0.6,0.4,0.6,0.4,0.2,0.8,,,0.3822,,0.2,0.8,0.8,0.2,0.8,0.2,0.2,0.8,1,0
,,6692d088fc492a0498191caf,66daf5b2ad46a82650c384c6,2024-09-06_14h36.37.653,mdp,2024.2.1,Win32,13.33333333,66d7945b1baad48e845df3ce,,,,,,,,,,,,,,,,,,,,,1456.895,1456.895,1456.8955,1460.276,1,0,right,2.7779,,1460.2766,1464.5451,1,0,right,1464.5531,1467.6182,1,0,right,1,1467.6182,1467.6182,1467.6261,1469.0889,0,46,46,46,1,0.6,0.4,0.6,0.4,,,,,,,,,,,,,,,3.6674,,0.6,0.4,0.6,0.4,0.6,0.4,0.2,0.8,,,2.4632,,0.2,0.8,0.8,0.2,0.8,0.2,0.2,0.8,1,0
,,6692d088fc492a0498191caf,66daf5b2ad46a82650c384c6,2024-09-06_14h36.37.653,mdp,2024.2.1,Win32,13.33333333,66d7945b1baad48e845df3ce,,,,,,,,,,,,,,,,,,,,,1469.0891,1469.0891,1469.0897,1469.9356,1,0,right,0.2464,,1469.9361,1470.8372,1,0,right,1470.8378,1472.0749,0,0,left,1,1472.075,1472.075,1472.0755,1473.5373,0,47,47,47,1,0.6,0.4,0.6,0.4,,,,,,,,,,,,,,,0.3114,,0.6,0.4,0.6,0.4,0.6,0.4,0.2,0.8,,,0.6273,,0.2,0.8,0.8,0.2,0.8,0.2,0.2,0.8,1,0
,,6692d088fc492a0498191caf,66daf5b2ad46a82650c384c6,2024-09-06_14h36.37.653,mdp,2024.2.1,Win32,13.33333333,66d7945b1baad48e845df3ce,,,,,,,,,,,,,,,,,,,,,1473.5376,1473.5376,1473.5381,1475.5122,1,0,right,1.3823,,1475.5127,1477.8201,1,1,right,1477.828,1478.6724,1,0,right,1,1478.6725,1478.6725,1478.673,1480.1234,0,48,48,48,1,0.6,0.4,0.6,0.4,,,,,,,,,,,,,,,1.7112,,0.6,0.4,0.6,0.4,0.6,0.4,0.2,0.8,,,0.2416,,0.2,0.8,0.8,0.2,0.8,0.2,0.2,0.8,1,0
,,6692d088fc492a0498191caf,66daf5b2ad46a82650c384c6,2024-09-06_14h36.37.653,mdp,2024.2.1,Win32,13.33333333,66d7945b1baad48e845df3ce,,,,,,,,,,,,,,,,,,,,,1480.1236,1480.1236,1480.1241,1481.1947,1,1,right,0.477,,1481.1953,1482.0323,1,1,right,1482.0329,1483.1851,0,1,left,0,1483.1851,1483.1851,1483.1856,1484.704,0,49,49,49,1,0.8,0.2,0.4,0.6,,,,,,,,,,,,,,,0.2511,,0.6,0.4,0.6,0.4,0.6,0.4,0.2,0.8,,,0.5564,,0.2,0.8,0.8,0.2,0.8,0.2,0.2,0.8,1,0
,,6692d088fc492a0498191caf,66daf5b2ad46a82650c384c6,2024-09-06_14h36.37.653,mdp,2024.2.1,Win32,13.33333333,66d7945b1baad48e845df3ce,,,,,,,,,,,,,,,,,,,,,,,,,,,,,,,,,,,,,,,,,,,,,,,,,,,,,,,,1484.7041,1543.231,0,3,3,5,1,imgs/dog.png,imgs/lion.png,imgs/cat.png,imgs/giraffe.png,imgs/rabbit.png,,,,,,,,,,,,,,,,,,,,,,,,
,,6692d088fc492a0498191caf,66daf5b2ad46a82650c384c6,2024-09-06_14h36.37.653,mdp,2024.2.1,Win32,13.33333333,66d7945b1baad48e845df3ce,,,,,,,,,,,,,,1,seqs/st1seq21.csv,1543.2317,1550.8945,space,7.0659,,1550.9039,1550.9039,1550.9044,1551.9715,1,1,right,0.4674,,1551.9721,1551.9725,1,1,,1551.9729,1551.9732,0,1,,0,1551.9732,1551.9732,1551.9734,1553.4432,0,0,0,0,1,0.8,0.2,0.4,0.6,1,0,,,,,,,,,,,,,,,,,,,,,,,,,,,,,,,,,,,,
,,6692d088fc492a0498191caf,66daf5b2ad46a82650c384c6,2024-09-06_14h36.37.653,mdp,2024.2.1,Win32,13.33333333,66d7945b1baad48e845df3ce,,,,,,,,,,,,,,,,,,,,,1553.4434,1553.4434,1553.4439,1554.3391,0,0,left,0.3099,,1554.3397,1554.34,1,0,,1554.3404,1554.3406,0,0,,1,1554.3407,1554.3407,1554.3409,1555.8428,0,1,1,1,1,0.8,0.2,0.4,0.6,1,0,,,,,,,,,,,,,,,,,,,,,,,,,,,,,,,,,,,,
,,6692d088fc492a0498191caf,66daf5b2ad46a82650c384c6,2024-09-06_14h36.37.653,mdp,2024.2.1,Win32,13.33333333,66d7945b1baad48e845df3ce,,,,,,,,,,,,,,,,,,,,,1555.843,1555.843,1555.8435,1557.5322,0,0,left,1.0665,,1557.5328,1557.5332,1,0,,1557.5335,1557.5337,0,1,,1,1557.5337,1557.5337,1557.534,1559.0039,0,2,2,2,1,0.8,0.2,0.4,0.6,1,0,,,,,,,,,,,,,,,,,,,,,,,,,,,,,,,,,,,,
,,6692d088fc492a0498191caf,66daf5b2ad46a82650c384c6,2024-09-06_14h36.37.653,mdp,2024.2.1,Win32,13.33333333,66d7945b1baad48e845df3ce,,,,,,,,,,,,,,,,,,,,,1559.004,1559.0041,1559.0047,1559.9072,0,1,left,0.3179,,1559.9077,1559.9081,1,0,,1559.9085,1559.9086,0,1,,0,1559.9086,1559.9087,1559.9089,1561.37,0,3,3,3,1,0.6,0.4,0.2,0.8,1,0,,,,,,,,,,,,,,,,,,,,,,,,,,,,,,,,,,,,
,,6692d088fc492a0498191caf,66daf5b2ad46a82650c384c6,2024-09-06_14h36.37.653,mdp,2024.2.1,Win32,13.33333333,66d7945b1baad48e845df3ce,,,,,,,,,,,,,,,,,,,,,1561.3702,1561.3702,1561.3706,1562.5475,0,1,left,0.5598,,1562.5481,1562.5484,1,0,,1562.5487,1562.5489,0,1,,0,1562.5489,1562.5489,1562.5492,1563.9915,0,4,4,4,1,0.6,0.4,0.2,0.8,1,0,,,,,,,,,,,,,,,,,,,,,,,,,,,,,,,,,,,,
,,6692d088fc492a0498191caf,66daf5b2ad46a82650c384c6,2024-09-06_14h36.37.653,mdp,2024.2.1,Win32,13.33333333,66d7945b1baad48e845df3ce,,,,,,,,,,,,,,,,,,,,,1563.9916,1563.9916,1563.9921,1564.6019,0,1,left,0.0112,,1564.6026,1564.6028,1,1,,1564.6032,1564.6035,0,0,,0,1564.6035,1564.6035,1564.6037,1566.0527,0,5,5,5,1,0.6,0.4,0.2,0.8,1,0,,,,,,,,,,,,,,,,,,,,,,,,,,,,,,,,,,,,
,,6692d088fc492a0498191caf,66daf5b2ad46a82650c384c6,2024-09-06_14h36.37.653,mdp,2024.2.1,Win32,13.33333333,66d7945b1baad48e845df3ce,,,,,,,,,,,,,,,,,,,,,1566.053,1566.053,1566.0534,1567.3455,1,1,right,0.7111,,1567.346,1567.3464,1,1,,1567.3467,1567.3469,0,0,,0,1567.3469,1567.3469,1567.3471,1568.7953,0,6,6,6,1,0.6,0.4,0.2,0.8,1,0,,,,,,,,,,,,,,,,,,,,,,,,,,,,,,,,,,,,
,,6692d088fc492a0498191caf,66daf5b2ad46a82650c384c6,2024-09-06_14h36.37.653,mdp,2024.2.1,Win32,13.33333333,66d7945b1baad48e845df3ce,,,,,,,,,,,,,,,,,,,,,1568.7955,1568.7955,1568.7959,1569.7909,0,0,left,0.3827,,1569.7914,1569.7918,1,0,,1569.7922,1569.7924,0,0,,1,1569.7924,1569.7924,1569.7927,1571.2492,0,7,7,7,1,0.8,0.2,0.6,0.4,1,0,,,,,,,,,,,,,,,,,,,,,,,,,,,,,,,,,,,,
,,6692d088fc492a0498191caf,66daf5b2ad46a82650c384c6,2024-09-06_14h36.37.653,mdp,2024.2.1,Win32,13.33333333,66d7945b1baad48e845df3ce,,,,,,,,,,,,,,,,,,,,,1571.2495,1571.2495,1571.25,1572.5635,0,1,left,0.6922,,1572.5642,1572.5645,1,1,,1572.5648,1572.565,0,0,,0,1572.5651,1572.5651,1572.5652,1574.0326,0,8,8,8,1,0.4,0.6,0.8,0.2,1,0,,,,,,,,,,,,,,,,,,,,,,,,,,,,,,,,,,,,
,,6692d088fc492a0498191caf,66daf5b2ad46a82650c384c6,2024-09-06_14h36.37.653,mdp,2024.2.1,Win32,13.33333333,66d7945b1baad48e845df3ce,,,,,,,,,,,,,,,,,,,,,1574.0328,1574.0328,1574.0334,1576.5301,1,0,right,1.8666,,1576.5306,1576.5309,1,0,,1576.5313,1576.5315,0,0,,1,1576.5315,1576.5315,1576.5318,1577.9978,0,9,9,9,1,0.4,0.6,0.8,0.2,1,0,,,,,,,,,,,,,,,,,,,,,,,,,,,,,,,,,,,,
,,6692d088fc492a0498191caf,66daf5b2ad46a82650c384c6,2024-09-06_14h36.37.653,mdp,2024.2.1,Win32,13.33333333,66d7945b1baad48e845df3ce,,,,,,,,,,,,,,,,,,,,,1577.998,1577.998,1577.9985,1579.0627,0,1,left,0.4659,,1579.0632,1579.0636,1,0,,1579.0639,1579.0641,0,0,,0,1579.0641,1579.0641,1579.0643,1580.5262,0,10,10,10,1,0.4,0.6,0.8,0.2,1,0,,,,,,,,,,,,,,,,,,,,,,,,,,,,,,,,,,,,
,,6692d088fc492a0498191caf,66daf5b2ad46a82650c384c6,2024-09-06_14h36.37.653,mdp,2024.2.1,Win32,13.33333333,66d7945b1baad48e845df3ce,,,,,,,,,,,,,,,,,,,,,1580.5264,1580.5264,1580.5268,1582.7543,1,0,right,1.6384,,1582.7548,1582.7551,1,0,,1582.7554,1582.7557,0,0,,1,1582.7557,1582.7557,1582.7559,1584.2261,0,11,11,11,1,0.4,0.6,0.8,0.2,1,0,,,,,,,,,,,,,,,,,,,,,,,,,,,,,,,,,,,,
,,6692d088fc492a0498191caf,66daf5b2ad46a82650c384c6,2024-09-06_14h36.37.653,mdp,2024.2.1,Win32,13.33333333,66d7945b1baad48e845df3ce,,,,,,,,,,,,,,,,,,,,,1584.2263,1584.2263,1584.2269,1585.7422,0,0,left,0.9308,,1585.7428,1585.7431,1,0,,1585.7434,1585.7436,0,0,,1,1585.7436,1585.7436,1585.7439,1587.1948,0,12,12,12,1,0.4,0.6,0.8,0.2,1,0,,,,,,,,,,,,,,,,,,,,,,,,,,,,,,,,,,,,
,,6692d088fc492a0498191caf,66daf5b2ad46a82650c384c6,2024-09-06_14h36.37.653,mdp,2024.2.1,Win32,13.33333333,66d7945b1baad48e845df3ce,,,,,,,,,,,,,,,,,,,,,1587.195,1587.195,1587.1955,1588.4784,1,0,right,0.6895,,1588.479,1588.4793,1,0,,1588.4797,1588.4798,0,0,,1,1588.4799,1588.4799,1588.4801,1589.9489,0,13,13,13,1,0.4,0.6,0.8,0.2,1,0,,,,,,,,,,,,,,,,,,,,,,,,,,,,,,,,,,,,
,,6692d088fc492a0498191caf,66daf5b2ad46a82650c384c6,2024-09-06_14h36.37.653,mdp,2024.2.1,Win32,13.33333333,66d7945b1baad48e845df3ce,,,,,,,,,,,,,,,,,,,,,1589.9491,1589.9491,1589.9497,1594.0092,0,1,left,3.4676,,1594.0176,1594.018,1,0,,1594.0183,1594.0186,0,1,,0,1594.0186,1594.0186,1594.0189,1595.4819,0,14,14,14,1,0.4,0.6,0.8,0.2,1,0,,,,,,,,,,,,,,,,,,,,,,,,,,,,,,,,,,,,
,,6692d088fc492a0498191caf,66daf5b2ad46a82650c384c6,2024-09-06_14h36.37.653,mdp,2024.2.1,Win32,13.33333333,66d7945b1baad48e845df3ce,,,,,,,,,,,,,,,,,,,,,1595.4822,1595.4822,1595.4826,1598.7242,0,1,left,2.6408,,1598.7323,1598.7327,1,0,,1598.733,1598.7333,0,0,,0,1598.7333,1598.7333,1598.7335,1600.2026,0,15,15,15,1,0.8,0.2,0.6,0.4,1,0,,,,,,,,,,,,,,,,,,,,,,,,,,,,,,,,,,,,
,,6692d088fc492a0498191caf,66daf5b2ad46a82650c384c6,2024-09-06_14h36.37.653,mdp,2024.2.1,Win32,13.33333333,66d7945b1baad48e845df3ce,,,,,,,,,,,,,,,,,,,,,1600.2028,1600.2028,1600.2034,1603.0554,1,1,right,2.2581,,1603.0638,1603.0641,1,1,,1603.0645,1603.0648,0,1,,0,1603.0648,1603.0648,1603.065,1604.5426,0,16,16,16,1,0.8,0.2,0.6,0.4,1,0,,,,,,,,,,,,,,,,,,,,,,,,,,,,,,,,,,,,
,,6692d088fc492a0498191caf,66daf5b2ad46a82650c384c6,2024-09-06_14h36.37.653,mdp,2024.2.1,Win32,13.33333333,66d7945b1baad48e845df3ce,,,,,,,,,,,,,,,,,,,,,1604.5428,1604.5428,1604.5433,1606.1803,0,1,left,1.033,,1606.1808,1606.1811,1,0,,1606.1815,1606.1816,0,0,,0,1606.1817,1606.1817,1606.1819,1607.6436,0,17,17,17,1,0.4,0.6,0.8,0.2,1,0,,,,,,,,,,,,,,,,,,,,,,,,,,,,,,,,,,,,
,,6692d088fc492a0498191caf,66daf5b2ad46a82650c384c6,2024-09-06_14h36.37.653,mdp,2024.2.1,Win32,13.33333333,66d7945b1baad48e845df3ce,,,,,,,,,,,,,,,,,,,,,1607.6438,1607.6438,1607.6443,1609.1754,1,0,right,0.9325,,1609.1759,1609.1763,1,0,,1609.1767,1609.1769,0,0,,1,1609.1769,1609.1769,1609.1771,1610.6198,0,18,18,18,1,0.4,0.6,0.8,0.2,1,0,,,,,,,,,,,,,,,,,,,,,,,,,,,,,,,,,,,,
,,6692d088fc492a0498191caf,66daf5b2ad46a82650c384c6,2024-09-06_14h36.37.653,mdp,2024.2.1,Win32,13.33333333,66d7945b1baad48e845df3ce,,,,,,,,,,,,,,,,,,,,,1610.62,1610.62,1610.6205,1614.9831,1,0,right,3.7668,,1614.9912,1614.9917,1,0,,1614.992,1614.9922,0,1,,1,1614.9922,1614.9922,1614.9924,1616.4418,0,19,19,19,1,0.4,0.6,0.8,0.2,1,0,,,,,,,,,,,,,,,,,,,,,,,,,,,,,,,,,,,,
,,6692d088fc492a0498191caf,66daf5b2ad46a82650c384c6,2024-09-06_14h36.37.653,mdp,2024.2.1,Win32,13.33333333,66d7945b1baad48e845df3ce,,,,,,,,,,,,,,,,,,,,,1616.4421,1616.4421,1616.4425,1621.156,1,0,right,4.1194,,1621.1642,1621.1646,1,0,,1621.165,1621.1652,0,0,,1,1621.1652,1621.1652,1621.1654,1622.6209,0,20,20,20,1,0.4,0.6,0.8,0.2,1,0,,,,,,,,,,,,,,,,,,,,,,,,,,,,,,,,,,,,
,,6692d088fc492a0498191caf,66daf5b2ad46a82650c384c6,2024-09-06_14h36.37.653,mdp,2024.2.1,Win32,13.33333333,66d7945b1baad48e845df3ce,,,,,,,,,,,,,,,,,,,,,1622.6211,1622.6211,1622.6216,1624.7351,1,0,right,1.4735,,1624.7357,1624.7361,1,1,,1624.7365,1624.7367,0,0,,1,1624.7367,1624.7367,1624.737,1626.1986,0,21,21,21,1,0.6,0.4,0.6,0.4,1,0,,,,,,,,,,,,,,,,,,,,,,,,,,,,,,,,,,,,
,,6692d088fc492a0498191caf,66daf5b2ad46a82650c384c6,2024-09-06_14h36.37.653,mdp,2024.2.1,Win32,13.33333333,66d7945b1baad48e845df3ce,,,,,,,,,,,,,,,,,,,,,1626.1989,1626.1989,1626.1993,1627.0545,1,0,right,0.266,,1627.0551,1627.0555,1,1,,1627.0558,1627.056,0,0,,1,1627.056,1627.056,1627.0563,1628.5007,0,22,22,22,1,0.6,0.4,0.6,0.4,1,0,,,,,,,,,,,,,,,,,,,,,,,,,,,,,,,,,,,,
,,6692d088fc492a0498191caf,66daf5b2ad46a82650c384c6,2024-09-06_14h36.37.653,mdp,2024.2.1,Win32,13.33333333,66d7945b1baad48e845df3ce,,,,,,,,,,,,,,,,,,,,,1628.5009,1628.5009,1628.5014,1629.4302,0,1,left,0.3562,,1629.4308,1629.4311,1,1,,1629.4315,1629.4318,0,0,,0,1629.4318,1629.4318,1629.4319,1630.8873,0,23,23,23,1,0.6,0.4,0.6,0.4,1,0,,,,,,,,,,,,,,,,,,,,,,,,,,,,,,,,,,,,
,,6692d088fc492a0498191caf,66daf5b2ad46a82650c384c6,2024-09-06_14h36.37.653,mdp,2024.2.1,Win32,13.33333333,66d7945b1baad48e845df3ce,,,,,,,,,,,,,,,,,,,,,1630.8876,1630.8876,1630.888,1631.8779,1,0,right,0.3695,,1631.8785,1631.8787,1,0,,1631.879,1631.8792,0,1,,1,1631.8793,1631.8793,1631.8795,1633.3665,0,24,24,24,1,0.6,0.4,0.6,0.4,1,0,,,,,,,,,,,,,,,,,,,,,,,,,,,,,,,,,,,,
,,6692d088fc492a0498191caf,66daf5b2ad46a82650c384c6,2024-09-06_14h36.37.653,mdp,2024.2.1,Win32,13.33333333,66d7945b1baad48e845df3ce,,,,,,,,,,,,,,,,,,,,,1633.3666,1633.3666,1633.3672,1634.2351,1,1,right,0.2655,,1634.2356,1634.236,1,1,,1634.2364,1634.2366,0,1,,0,1634.2366,1634.2366,1634.2369,1635.729,0,25,25,25,1,0.6,0.4,0.6,0.4,1,0,,,,,,,,,,,,,,,,,,,,,,,,,,,,,,,,,,,,
,,6692d088fc492a0498191caf,66daf5b2ad46a82650c384c6,2024-09-06_14h36.37.653,mdp,2024.2.1,Win32,13.33333333,66d7945b1baad48e845df3ce,,,,,,,,,,,,,,,,,,,,,1635.7293,1635.7293,1635.7297,1636.4179,1,1,right,0.0885,,1636.4185,1636.4187,1,0,,1636.4191,1636.4193,0,1,,0,1636.4193,1636.4193,1636.4196,1637.9277,0,26,26,26,1,0.6,0.4,0.6,0.4,1,0,,,,,,,,,,,,,,,,,,,,,,,,,,,,,,,,,,,,
,,6692d088fc492a0498191caf,66daf5b2ad46a82650c384c6,2024-09-06_14h36.37.653,mdp,2024.2.1,Win32,13.33333333,66d7945b1baad48e845df3ce,,,,,,,,,,,,,,,,,,,,,1637.9279,1637.9279,1637.9283,1641.3616,1,0,right,2.8421,,1641.3697,1641.3701,1,0,,1641.3705,1641.3707,0,1,,1,1641.3707,1641.3707,1641.371,1642.815,0,27,27,27,1,0.6,0.4,0.6,0.4,1,0,,,,,,,,,,,,,,,,,,,,,,,,,,,,,,,,,,,,
,,6692d088fc492a0498191caf,66daf5b2ad46a82650c384c6,2024-09-06_14h36.37.653,mdp,2024.2.1,Win32,13.33333333,66d7945b1baad48e845df3ce,,,,,,,,,,,,,,,,,,,,,1642.8152,1642.8152,1642.8157,1644.9897,1,1,right,1.5664,,1644.9902,1644.9905,1,0,,1644.9908,1644.991,0,0,,0,1644.9911,1644.9911,1644.9913,1646.4831,0,28,28,28,1,0.6,0.4,0.6,0.4,1,0,,,,,,,,,,,,,,,,,,,,,,,,,,,,,,,,,,,,
,,6692d088fc492a0498191caf,66daf5b2ad46a82650c384c6,2024-09-06_14h36.37.653,mdp,2024.2.1,Win32,13.33333333,66d7945b1baad48e845df3ce,,,,,,,,,,,,,,,,,,,,,1646.4834,1646.4834,1646.4838,1647.496,1,0,right,0.4016,,1647.4966,1647.4969,1,0,,1647.4972,1647.4974,0,1,,1,1647.4974,1647.4974,1647.4976,1648.9493,0,29,29,29,1,0.6,0.4,0.6,0.4,1,0,,,,,,,,,,,,,,,,,,,,,,,,,,,,,,,,,,,,
,,6692d088fc492a0498191caf,66daf5b2ad46a82650c384c6,2024-09-06_14h36.37.653,mdp,2024.2.1,Win32,13.33333333,66d7945b1baad48e845df3ce,,,,,,,,,,,,,,,,,,,,,1648.9496,1648.9496,1648.9501,1649.6484,1,0,right,0.0889,,1649.6491,1649.6494,1,0,,1649.6498,1649.65,0,1,,1,1649.65,1649.65,1649.6502,1651.1092,0,30,30,30,1,0.6,0.4,0.6,0.4,1,0,,,,,,,,,,,,,,,,,,,,,,,,,,,,,,,,,,,,
,,6692d088fc492a0498191caf,66daf5b2ad46a82650c384c6,2024-09-06_14h36.37.653,mdp,2024.2.1,Win32,13.33333333,66d7945b1baad48e845df3ce,,,,,,,,,,,,,,,,,,,,,1651.1093,1651.1093,1651.1098,1652.1762,1,0,right,0.48,,1652.1769,1652.1772,1,0,,1652.1775,1652.1777,0,0,,1,1652.1777,1652.1777,1652.1779,1653.6303,0,31,31,31,1,0.6,0.4,0.6,0.4,1,0,,,,,,,,,,,,,,,,,,,,,,,,,,,,,,,,,,,,
,,6692d088fc492a0498191caf,66daf5b2ad46a82650c384c6,2024-09-06_14h36.37.653,mdp,2024.2.1,Win32,13.33333333,66d7945b1baad48e845df3ce,,,,,,,,,,,,,,,,,,,,,1653.6305,1653.6305,1653.631,1655.4099,1,0,right,1.1785,,1655.4105,1655.4108,1,0,,1655.4112,1655.4115,0,1,,1,1655.4115,1655.4115,1655.4117,1656.8672,0,32,32,32,1,0.6,0.4,0.6,0.4,1,0,,,,,,,,,,,,,,,,,,,,,,,,,,,,,,,,,,,,
,,6692d088fc492a0498191caf,66daf5b2ad46a82650c384c6,2024-09-06_14h36.37.653,mdp,2024.2.1,Win32,13.33333333,66d7945b1baad48e845df3ce,,,,,,,,,,,,,,,,,,,,,1656.8674,1656.8674,1656.8679,1661.1987,1,1,right,3.7315,,1661.2065,1661.2067,1,0,,1661.2071,1661.2073,0,0,,0,1661.2073,1661.2073,1661.2076,1662.672,0,33,33,33,1,0.4,0.6,0.8,0.2,1,0,,,,,,,,,,,,,,,,,,,,,,,,,,,,,,,,,,,,
,,6692d088fc492a0498191caf,66daf5b2ad46a82650c384c6,2024-09-06_14h36.37.653,mdp,2024.2.1,Win32,13.33333333,66d7945b1baad48e845df3ce,,,,,,,,,,,,,,,,,,,,,1662.6723,1662.6723,1662.6727,1663.6721,1,0,right,0.395,,1663.6727,1663.673,1,0,,1663.6734,1663.6735,0,0,,1,1663.6735,1663.6735,1663.6738,1665.1292,0,34,34,34,1,0.4,0.6,0.8,0.2,1,0,,,,,,,,,,,,,,,,,,,,,,,,,,,,,,,,,,,,
,,6692d088fc492a0498191caf,66daf5b2ad46a82650c384c6,2024-09-06_14h36.37.653,mdp,2024.2.1,Win32,13.33333333,66d7945b1baad48e845df3ce,,,,,,,,,,,,,,,,,,,,,1665.1294,1665.1294,1665.13,1668.9507,1,1,right,3.2372,,1668.9588,1668.9591,1,0,,1668.9595,1668.9597,0,1,,0,1668.9597,1668.9597,1668.9599,1670.4237,0,35,35,35,1,0.6,0.4,0.6,0.4,1,0,,,,,,,,,,,,,,,,,,,,,,,,,,,,,,,,,,,,
,,6692d088fc492a0498191caf,66daf5b2ad46a82650c384c6,2024-09-06_14h36.37.653,mdp,2024.2.1,Win32,13.33333333,66d7945b1baad48e845df3ce,,,,,,,,,,,,,,,,,,,,,1670.4239,1670.4239,1670.4244,1671.5636,1,1,right,0.5284,,1671.564,1671.5644,1,1,,1671.5648,1671.5649,0,0,,0,1671.5649,1671.5649,1671.5652,1673.012,0,36,36,36,1,0.6,0.4,0.6,0.4,1,0,,,,,,,,,,,,,,,,,,,,,,,,,,,,,,,,,,,,
,,6692d088fc492a0498191caf,66daf5b2ad46a82650c384c6,2024-09-06_14h36.37.653,mdp,2024.2.1,Win32,13.33333333,66d7945b1baad48e845df3ce,,,,,,,,,,,,,,,,,,,,,1673.0122,1673.0122,1673.0127,1677.0774,1,0,right,3.4782,,1677.0858,1677.0861,1,0,,1677.0864,1677.0867,0,0,,1,1677.0868,1677.0868,1677.087,1678.525,0,37,37,37,1,0.4,0.6,0.8,0.2,1,0,,,,,,,,,,,,,,,,,,,,,,,,,,,,,,,,,,,,
,,6692d088fc492a0498191caf,66daf5b2ad46a82650c384c6,2024-09-06_14h36.37.653,mdp,2024.2.1,Win32,13.33333333,66d7945b1baad48e845df3ce,,,,,,,,,,,,,,,,,,,,,1678.5253,1678.5253,1678.5257,1680.4465,1,0,right,1.3194,,1680.4471,1680.4474,1,0,,1680.4478,1680.448,0,0,,1,1680.448,1680.448,1680.4483,1681.9099,0,38,38,38,1,0.4,0.6,0.8,0.2,1,0,,,,,,,,,,,,,,,,,,,,,,,,,,,,,,,,,,,,
,,6692d088fc492a0498191caf,66daf5b2ad46a82650c384c6,2024-09-06_14h36.37.653,mdp,2024.2.1,Win32,13.33333333,66d7945b1baad48e845df3ce,,,,,,,,,,,,,,,,,,,,,1681.9101,1681.9101,1681.9106,1682.7608,1,0,right,0.2617,,1682.7614,1682.7618,1,0,,1682.7621,1682.7623,0,0,,1,1682.7623,1682.7623,1682.7626,1684.2116,0,39,39,39,1,0.4,0.6,0.8,0.2,1,0,,,,,,,,,,,,,,,,,,,,,,,,,,,,,,,,,,,,
