init_exp.started,init_exp.stopped,participant,session,date,expName,psychopyVersion,OS,frameRate,study_id,disp_instruction.started,disp_instruction.stopped,instruction.thisRepN,instruction.thisTrialN,instruction.thisN,instruction.thisIndex,instruction.ran,instimg_path,consent.started,consent.stopped,key_resp_3.keys,key_resp_3.rt,key_resp_3.duration,n_steps,sequence_path,init_block.started,init_block.stopped,key_resp.keys,key_resp.rt,key_resp.duration,init_trials.started,init_trials.stopped,step0.started,step0.stopped,act0,s1,res0.keys,res0.rt,res0.duration,step1.started,step1.stopped,act1,s2,res1.keys,step2.started,step2.stopped,act2,s3,res2.keys,rew,reward_comp.started,reward_comp.stopped,reward_disp.started,reward_disp.stopped,trials.thisRepN,trials.thisTrialN,trials.thisN,trials.thisIndex,trials.ran,s00a0s10,s00a0s11,s00a1s10,s00a1s11,rew10,rew11,break_block.started,break_block.stopped,block.thisRepN,block.thisTrialN,block.thisN,block.thisIndex,block.ran,s00path,s10path,s11path,s20path,s21path,res1.rt,res1.duration,s10a0s20,s10a0s21,s10a1s20,s10a1s21,s11a0s20,s11a0s21,s11a1s20,s11a1s21,rew20,rew21,res2.rt,res2.duration,s20a0s30,s20a0s31,s20a1s30,s20a1s31,s21a0s30,s21a0s31,s21a1s30,s21a1s31,rew30,rew31
0.0006,0.002,669a687aa4b63a61f8f5b07f,66fc98fbf6ba0ddc6b0f7656,2024-10-02_09h53.03.435,mdp,2024.2.1,Win32,12.01923077,66fa4ebf79326e780c390304,,,,,,,,,,,,,,,,,,,,,,,,,,,,,,,,,,,,,,,,,,,,,,,,,,,,,,,,,,,,,,,,,,,,,,,,,,,,,,,,,,,,,,,,,,,
,,669a687aa4b63a61f8f5b07f,66fc98fbf6ba0ddc6b0f7656,2024-10-02_09h53.03.435,mdp,2024.2.1,Win32,12.01923077,66fa4ebf79326e780c390304,0.0057,27.0349,0,0,0,0,1,rlnn_exp/rlnn_exp.001.png,,,,,,,,,,,,,,,,,,,,,,,,,,,,,,,,,,,,,,,,,,,,,,,,,,,,,,,,,,,,,,,,,,,,,,,,,,,,,,,,,,,
,,669a687aa4b63a61f8f5b07f,66fc98fbf6ba0ddc6b0f7656,2024-10-02_09h53.03.435,mdp,2024.2.1,Win32,12.01923077,66fa4ebf79326e780c390304,27.0354,49.9366,0,1,1,1,1,rlnn_exp/rlnn_exp.002.png,,,,,,,,,,,,,,,,,,,,,,,,,,,,,,,,,,,,,,,,,,,,,,,,,,,,,,,,,,,,,,,,,,,,,,,,,,,,,,,,,,,
,,669a687aa4b63a61f8f5b07f,66fc98fbf6ba0ddc6b0f7656,2024-10-02_09h53.03.435,mdp,2024.2.1,Win32,12.01923077,66fa4ebf79326e780c390304,49.9369,68.2311,0,2,2,2,1,rlnn_exp/rlnn_exp.003.png,,,,,,,,,,,,,,,,,,,,,,,,,,,,,,,,,,,,,,,,,,,,,,,,,,,,,,,,,,,,,,,,,,,,,,,,,,,,,,,,,,,
,,669a687aa4b63a61f8f5b07f,66fc98fbf6ba0ddc6b0f7656,2024-10-02_09h53.03.435,mdp,2024.2.1,Win32,12.01923077,66fa4ebf79326e780c390304,68.2314,95.2129,0,3,3,3,1,rlnn_exp/rlnn_exp.004.png,,,,,,,,,,,,,,,,,,,,,,,,,,,,,,,,,,,,,,,,,,,,,,,,,,,,,,,,,,,,,,,,,,,,,,,,,,,,,,,,,,,
,,669a687aa4b63a61f8f5b07f,66fc98fbf6ba0ddc6b0f7656,2024-10-02_09h53.03.435,mdp,2024.2.1,Win32,12.01923077,66fa4ebf79326e780c390304,,,,,,,,,95.2132,134.5797,y,29.2707,,,,,,,,,,,,,,,,,,,,,,,,,,,,,,,,,,,,,,,,,,,,,,,,,,,,,,,,,,,,,,,,,,,,,,,,,,,,,,,
,,669a687aa4b63a61f8f5b07f,66fc98fbf6ba0ddc6b0f7656,2024-10-02_09h53.03.435,mdp,2024.2.1,Win32,12.01923077,66fa4ebf79326e780c390304,,,,,,,,,,,,,,1,seqs/st1seq5.csv,134.5825,138.6054,space,3.43,,138.6078,138.6079,138.6082,140.0181,0,1,left,0.7823,,140.0184,140.0196,,1,,140.0198,140.0206,,1,,0,140.0207,140.0208,140.021,141.5086,0,0,0,0,1,0.2,0.8,0.8,0.2,1,0,,,,,,,,,,,,,,,,,,,,,,,,,,,,,,,,,,,,
,,669a687aa4b63a61f8f5b07f,66fc98fbf6ba0ddc6b0f7656,2024-10-02_09h53.03.435,mdp,2024.2.1,Win32,12.01923077,66fa4ebf79326e780c390304,,,,,,,,,,,,,,,,,,,,,141.5089,141.5089,141.5098,143.0666,1,1,right,0.9026,,143.0675,143.068,,1,,143.0684,143.0688,,1,,0,143.0689,143.0689,143.0692,144.5217,0,1,1,1,1,0.8,0.2,0.2,0.8,1,0,,,,,,,,,,,,,,,,,,,,,,,,,,,,,,,,,,,,
,,669a687aa4b63a61f8f5b07f,66fc98fbf6ba0ddc6b0f7656,2024-10-02_09h53.03.435,mdp,2024.2.1,Win32,12.01923077,66fa4ebf79326e780c390304,,,,,,,,,,,,,,,,,,,,,144.522,144.522,144.5232,145.7742,1,1,right,0.6309,,145.7748,145.7754,,0,,145.7759,145.7763,,0,,0,145.7763,145.7763,145.7767,147.2879,0,2,2,2,1,0.8,0.2,0.2,0.8,1,0,,,,,,,,,,,,,,,,,,,,,,,,,,,,,,,,,,,,
,,669a687aa4b63a61f8f5b07f,66fc98fbf6ba0ddc6b0f7656,2024-10-02_09h53.03.435,mdp,2024.2.1,Win32,12.01923077,66fa4ebf79326e780c390304,,,,,,,,,,,,,,,,,,,,,147.2881,147.2881,147.289,148.547,0,0,left,0.6073,,148.5478,148.5485,,0,,148.5489,148.5493,,0,,1,148.5494,148.5494,148.5498,150.0095,0,3,3,3,1,0.8,0.2,0.2,0.8,1,0,,,,,,,,,,,,,,,,,,,,,,,,,,,,,,,,,,,,
,,669a687aa4b63a61f8f5b07f,66fc98fbf6ba0ddc6b0f7656,2024-10-02_09h53.03.435,mdp,2024.2.1,Win32,12.01923077,66fa4ebf79326e780c390304,,,,,,,,,,,,,,,,,,,,,150.0098,150.0098,150.0104,151.2246,0,0,left,0.617,,151.2255,151.2263,,1,,151.2269,151.2275,,1,,1,151.2275,151.2275,151.2281,152.6699,0,4,4,4,1,0.8,0.2,0.2,0.8,1,0,,,,,,,,,,,,,,,,,,,,,,,,,,,,,,,,,,,,
,,669a687aa4b63a61f8f5b07f,66fc98fbf6ba0ddc6b0f7656,2024-10-02_09h53.03.435,mdp,2024.2.1,Win32,12.01923077,66fa4ebf79326e780c390304,,,,,,,,,,,,,,,,,,,,,152.6701,152.6701,152.6714,153.9309,0,1,left,0.6265,,153.9324,153.9332,,1,,153.934,153.9347,,1,,0,153.9347,153.9347,153.9354,155.4223,0,5,5,5,1,0.2,0.8,0.8,0.2,1,0,,,,,,,,,,,,,,,,,,,,,,,,,,,,,,,,,,,,
,,669a687aa4b63a61f8f5b07f,66fc98fbf6ba0ddc6b0f7656,2024-10-02_09h53.03.435,mdp,2024.2.1,Win32,12.01923077,66fa4ebf79326e780c390304,,,,,,,,,,,,,,,,,,,,,155.4226,155.4226,155.4237,156.598,0,0,left,0.568,,156.5989,156.5995,,0,,156.6001,156.6005,,0,,1,156.6006,156.6006,156.601,158.0636,0,6,6,6,1,0.8,0.2,0.4,0.6,1,0,,,,,,,,,,,,,,,,,,,,,,,,,,,,,,,,,,,,
,,669a687aa4b63a61f8f5b07f,66fc98fbf6ba0ddc6b0f7656,2024-10-02_09h53.03.435,mdp,2024.2.1,Win32,12.01923077,66fa4ebf79326e780c390304,,,,,,,,,,,,,,,,,,,,,158.0637,158.0637,158.065,159.2656,1,1,right,0.5656,,159.2664,159.2669,,0,,159.2674,159.2679,,0,,0,159.2679,159.2679,159.2682,160.7258,0,7,7,7,1,0.8,0.2,0.4,0.6,1,0,,,,,,,,,,,,,,,,,,,,,,,,,,,,,,,,,,,,
,,669a687aa4b63a61f8f5b07f,66fc98fbf6ba0ddc6b0f7656,2024-10-02_09h53.03.435,mdp,2024.2.1,Win32,12.01923077,66fa4ebf79326e780c390304,,,,,,,,,,,,,,,,,,,,,160.7261,160.7261,160.7269,162.1214,1,1,right,0.7629,,162.1222,162.1229,,1,,162.1235,162.124,,0,,0,162.124,162.1241,162.1245,163.5928,0,8,8,8,1,0.4,0.6,0.8,0.2,1,0,,,,,,,,,,,,,,,,,,,,,,,,,,,,,,,,,,,,
,,669a687aa4b63a61f8f5b07f,66fc98fbf6ba0ddc6b0f7656,2024-10-02_09h53.03.435,mdp,2024.2.1,Win32,12.01923077,66fa4ebf79326e780c390304,,,,,,,,,,,,,,,,,,,,,163.5931,163.5931,163.5939,165.1264,1,0,right,0.9553,,165.1272,165.1277,,0,,165.1281,165.1286,,0,,1,165.1286,165.1286,165.129,166.5785,0,9,9,9,1,0.4,0.6,0.8,0.2,1,0,,,,,,,,,,,,,,,,,,,,,,,,,,,,,,,,,,,,
,,669a687aa4b63a61f8f5b07f,66fc98fbf6ba0ddc6b0f7656,2024-10-02_09h53.03.435,mdp,2024.2.1,Win32,12.01923077,66fa4ebf79326e780c390304,,,,,,,,,,,,,,,,,,,,,166.5788,166.5788,166.5794,168.0621,1,0,right,0.8813,,168.0629,168.0636,,0,,168.0643,168.065,,0,,1,168.065,168.065,168.0655,169.5257,0,10,10,10,1,0.4,0.6,0.8,0.2,1,0,,,,,,,,,,,,,,,,,,,,,,,,,,,,,,,,,,,,
,,669a687aa4b63a61f8f5b07f,66fc98fbf6ba0ddc6b0f7656,2024-10-02_09h53.03.435,mdp,2024.2.1,Win32,12.01923077,66fa4ebf79326e780c390304,,,,,,,,,,,,,,,,,,,,,169.526,169.526,169.5268,170.9095,0,0,left,0.7646,,170.9102,170.9109,,0,,170.9115,170.912,,0,,1,170.912,170.912,170.9124,172.3918,0,11,11,11,1,0.8,0.2,0.4,0.6,1,0,,,,,,,,,,,,,,,,,,,,,,,,,,,,,,,,,,,,
,,669a687aa4b63a61f8f5b07f,66fc98fbf6ba0ddc6b0f7656,2024-10-02_09h53.03.435,mdp,2024.2.1,Win32,12.01923077,66fa4ebf79326e780c390304,,,,,,,,,,,,,,,,,,,,,172.3921,172.3921,172.3931,173.7093,1,1,right,0.6872,,173.7104,173.7111,,0,,173.7118,173.7123,,1,,0,173.7124,173.7124,173.713,175.1541,0,12,12,12,1,0.8,0.2,0.4,0.6,1,0,,,,,,,,,,,,,,,,,,,,,,,,,,,,,,,,,,,,
,,669a687aa4b63a61f8f5b07f,66fc98fbf6ba0ddc6b0f7656,2024-10-02_09h53.03.435,mdp,2024.2.1,Win32,12.01923077,66fa4ebf79326e780c390304,,,,,,,,,,,,,,,,,,,,,175.1544,175.1544,175.1555,176.3109,0,0,left,0.522,,176.3116,176.3121,,1,,176.3126,176.313,,0,,1,176.313,176.313,176.3134,177.7938,0,13,13,13,1,0.8,0.2,0.4,0.6,1,0,,,,,,,,,,,,,,,,,,,,,,,,,,,,,,,,,,,,
,,669a687aa4b63a61f8f5b07f,66fc98fbf6ba0ddc6b0f7656,2024-10-02_09h53.03.435,mdp,2024.2.1,Win32,12.01923077,66fa4ebf79326e780c390304,,,,,,,,,,,,,,,,,,,,,177.7941,177.7941,177.7951,178.9203,1,1,right,0.5243,,178.921,178.9214,,1,,178.9219,178.9224,,1,,0,178.9224,178.9224,178.9227,180.3961,0,14,14,14,1,0.8,0.2,0.4,0.6,1,0,,,,,,,,,,,,,,,,,,,,,,,,,,,,,,,,,,,,
,,669a687aa4b63a61f8f5b07f,66fc98fbf6ba0ddc6b0f7656,2024-10-02_09h53.03.435,mdp,2024.2.1,Win32,12.01923077,66fa4ebf79326e780c390304,,,,,,,,,,,,,,,,,,,,,180.3963,180.3963,180.397,181.6294,1,0,right,0.6332,,181.6301,181.6307,,1,,181.6312,181.6316,,0,,1,181.6316,181.6316,181.632,183.0858,0,15,15,15,1,0.8,0.2,0.4,0.6,1,0,,,,,,,,,,,,,,,,,,,,,,,,,,,,,,,,,,,,
,,669a687aa4b63a61f8f5b07f,66fc98fbf6ba0ddc6b0f7656,2024-10-02_09h53.03.435,mdp,2024.2.1,Win32,12.01923077,66fa4ebf79326e780c390304,,,,,,,,,,,,,,,,,,,,,183.086,183.086,183.0866,184.6666,1,1,right,0.9801,,184.6674,184.668,,1,,184.6685,184.669,,0,,0,184.669,184.669,184.6694,186.1534,0,16,16,16,1,0.8,0.2,0.4,0.6,1,0,,,,,,,,,,,,,,,,,,,,,,,,,,,,,,,,,,,,
,,669a687aa4b63a61f8f5b07f,66fc98fbf6ba0ddc6b0f7656,2024-10-02_09h53.03.435,mdp,2024.2.1,Win32,12.01923077,66fa4ebf79326e780c390304,,,,,,,,,,,,,,,,,,,,,186.1536,186.1536,186.1542,187.8809,0,0,left,1.148,,187.8818,187.8826,,1,,187.8832,187.8837,,1,,1,187.8837,187.8837,187.8842,189.3837,0,17,17,17,1,0.4,0.6,0.6,0.4,1,0,,,,,,,,,,,,,,,,,,,,,,,,,,,,,,,,,,,,
,,669a687aa4b63a61f8f5b07f,66fc98fbf6ba0ddc6b0f7656,2024-10-02_09h53.03.435,mdp,2024.2.1,Win32,12.01923077,66fa4ebf79326e780c390304,,,,,,,,,,,,,,,,,,,,,189.384,189.384,189.3847,190.8231,0,1,left,0.804,,190.8242,190.8248,,0,,190.8255,190.8261,,1,,0,190.8261,190.8261,190.8271,192.3143,0,18,18,18,1,0.2,0.8,0.8,0.2,1,0,,,,,,,,,,,,,,,,,,,,,,,,,,,,,,,,,,,,
,,669a687aa4b63a61f8f5b07f,66fc98fbf6ba0ddc6b0f7656,2024-10-02_09h53.03.435,mdp,2024.2.1,Win32,12.01923077,66fa4ebf79326e780c390304,,,,,,,,,,,,,,,,,,,,,192.3146,192.3146,192.3156,193.8631,0,1,left,0.9399,,193.8637,193.8644,,1,,193.865,193.8654,,1,,0,193.8654,193.8654,193.8657,195.3767,0,19,19,19,1,0.2,0.8,0.8,0.2,1,0,,,,,,,,,,,,,,,,,,,,,,,,,,,,,,,,,,,,
,,669a687aa4b63a61f8f5b07f,66fc98fbf6ba0ddc6b0f7656,2024-10-02_09h53.03.435,mdp,2024.2.1,Win32,12.01923077,66fa4ebf79326e780c390304,,,,,,,,,,,,,,,,,,,,,195.3771,195.3771,195.3783,196.815,0,0,left,0.8505,,196.8159,196.8164,,0,,196.8167,196.8171,,0,,1,196.8171,196.8171,196.8175,198.2685,0,20,20,20,1,0.8,0.2,0.6,0.4,1,0,,,,,,,,,,,,,,,,,,,,,,,,,,,,,,,,,,,,
,,669a687aa4b63a61f8f5b07f,66fc98fbf6ba0ddc6b0f7656,2024-10-02_09h53.03.435,mdp,2024.2.1,Win32,12.01923077,66fa4ebf79326e780c390304,,,,,,,,,,,,,,,,,,,,,198.2687,198.2687,198.2695,199.653,0,0,left,0.7518,,199.6538,199.6544,,0,,199.6548,199.6554,,0,,1,199.6554,199.6554,199.6559,201.12,0,21,21,21,1,0.8,0.2,0.6,0.4,1,0,,,,,,,,,,,,,,,,,,,,,,,,,,,,,,,,,,,,
,,669a687aa4b63a61f8f5b07f,66fc98fbf6ba0ddc6b0f7656,2024-10-02_09h53.03.435,mdp,2024.2.1,Win32,12.01923077,66fa4ebf79326e780c390304,,,,,,,,,,,,,,,,,,,,,201.1203,201.1203,201.121,202.5,0,0,left,0.7813,,202.5006,202.5011,,0,,202.5016,202.502,,1,,1,202.502,202.502,202.5024,203.9415,0,22,22,22,1,0.8,0.2,0.6,0.4,1,0,,,,,,,,,,,,,,,,,,,,,,,,,,,,,,,,,,,,
,,669a687aa4b63a61f8f5b07f,66fc98fbf6ba0ddc6b0f7656,2024-10-02_09h53.03.435,mdp,2024.2.1,Win32,12.01923077,66fa4ebf79326e780c390304,,,,,,,,,,,,,,,,,,,,,203.9418,203.9419,203.9427,205.4244,0,0,left,0.8778,,205.4257,205.4266,,0,,205.4273,205.4281,,0,,1,205.4281,205.4281,205.4286,206.9426,0,23,23,23,1,0.8,0.2,0.6,0.4,1,0,,,,,,,,,,,,,,,,,,,,,,,,,,,,,,,,,,,,
,,669a687aa4b63a61f8f5b07f,66fc98fbf6ba0ddc6b0f7656,2024-10-02_09h53.03.435,mdp,2024.2.1,Win32,12.01923077,66fa4ebf79326e780c390304,,,,,,,,,,,,,,,,,,,,,206.9428,206.9428,206.9436,208.16,1,1,right,0.6178,,208.1611,208.1617,,1,,208.1623,208.1628,,1,,0,208.1629,208.1629,208.1633,209.6407,0,24,24,24,1,0.6,0.4,0.4,0.6,1,0,,,,,,,,,,,,,,,,,,,,,,,,,,,,,,,,,,,,
,,669a687aa4b63a61f8f5b07f,66fc98fbf6ba0ddc6b0f7656,2024-10-02_09h53.03.435,mdp,2024.2.1,Win32,12.01923077,66fa4ebf79326e780c390304,,,,,,,,,,,,,,,,,,,,,209.6411,209.6411,209.6423,210.8332,0,0,left,0.5734,,210.8339,210.8345,,1,,210.835,210.8354,,1,,1,210.8354,210.8354,210.8358,212.3214,0,25,25,25,1,0.6,0.4,0.4,0.6,1,0,,,,,,,,,,,,,,,,,,,,,,,,,,,,,,,,,,,,
,,669a687aa4b63a61f8f5b07f,66fc98fbf6ba0ddc6b0f7656,2024-10-02_09h53.03.435,mdp,2024.2.1,Win32,12.01923077,66fa4ebf79326e780c390304,,,,,,,,,,,,,,,,,,,,,212.3216,212.3216,212.3224,213.461,1,0,right,0.5446,,213.4621,213.4628,,0,,213.4635,213.4641,,1,,1,213.4641,213.4641,213.4646,214.9259,0,26,26,26,1,0.2,0.8,0.6,0.4,1,0,,,,,,,,,,,,,,,,,,,,,,,,,,,,,,,,,,,,
,,669a687aa4b63a61f8f5b07f,66fc98fbf6ba0ddc6b0f7656,2024-10-02_09h53.03.435,mdp,2024.2.1,Win32,12.01923077,66fa4ebf79326e780c390304,,,,,,,,,,,,,,,,,,,,,214.9262,214.9262,214.9267,216.1902,1,0,right,0.6624,,216.1911,216.1917,,0,,216.1923,216.1927,,1,,1,216.1927,216.1927,216.1933,217.644,0,27,27,27,1,0.2,0.8,0.6,0.4,1,0,,,,,,,,,,,,,,,,,,,,,,,,,,,,,,,,,,,,
,,669a687aa4b63a61f8f5b07f,66fc98fbf6ba0ddc6b0f7656,2024-10-02_09h53.03.435,mdp,2024.2.1,Win32,12.01923077,66fa4ebf79326e780c390304,,,,,,,,,,,,,,,,,,,,,217.6443,217.6443,217.6449,219.0235,1,1,right,0.7552,,219.0242,219.0248,,0,,219.0252,219.0255,,0,,0,219.0255,219.0255,219.0258,220.4849,0,28,28,28,1,0.2,0.8,0.6,0.4,1,0,,,,,,,,,,,,,,,,,,,,,,,,,,,,,,,,,,,,
,,669a687aa4b63a61f8f5b07f,66fc98fbf6ba0ddc6b0f7656,2024-10-02_09h53.03.435,mdp,2024.2.1,Win32,12.01923077,66fa4ebf79326e780c390304,,,,,,,,,,,,,,,,,,,,,220.4852,220.4852,220.4859,221.6122,0,1,left,0.49,,221.613,221.6137,,1,,221.6142,221.6147,,1,,0,221.6147,221.6147,221.6152,223.1255,0,29,29,29,1,0.2,0.8,0.6,0.4,1,0,,,,,,,,,,,,,,,,,,,,,,,,,,,,,,,,,,,,
,,669a687aa4b63a61f8f5b07f,66fc98fbf6ba0ddc6b0f7656,2024-10-02_09h53.03.435,mdp,2024.2.1,Win32,12.01923077,66fa4ebf79326e780c390304,,,,,,,,,,,,,,,,,,,,,223.1258,223.1258,223.1265,224.2981,0,0,left,0.5745,,224.299,224.2996,,0,,224.3001,224.3005,,1,,1,224.3005,224.3005,224.301,225.7506,0,30,30,30,1,0.4,0.6,0.8,0.2,1,0,,,,,,,,,,,,,,,,,,,,,,,,,,,,,,,,,,,,
,,669a687aa4b63a61f8f5b07f,66fc98fbf6ba0ddc6b0f7656,2024-10-02_09h53.03.435,mdp,2024.2.1,Win32,12.01923077,66fa4ebf79326e780c390304,,,,,,,,,,,,,,,,,,,,,225.751,225.751,225.7517,227.0241,0,0,left,0.6541,,227.0249,227.0256,,1,,227.0262,227.0267,,1,,1,227.0267,227.0267,227.0272,228.5209,0,31,31,31,1,0.4,0.6,0.8,0.2,1,0,,,,,,,,,,,,,,,,,,,,,,,,,,,,,,,,,,,,
,,669a687aa4b63a61f8f5b07f,66fc98fbf6ba0ddc6b0f7656,2024-10-02_09h53.03.435,mdp,2024.2.1,Win32,12.01923077,66fa4ebf79326e780c390304,,,,,,,,,,,,,,,,,,,,,228.5211,228.5212,228.5218,229.7572,0,0,left,0.6262,,229.7577,229.7582,,1,,229.7586,229.759,,1,,1,229.759,229.759,229.7595,231.215,0,32,32,32,1,0.4,0.6,0.8,0.2,1,0,,,,,,,,,,,,,,,,,,,,,,,,,,,,,,,,,,,,
,,669a687aa4b63a61f8f5b07f,66fc98fbf6ba0ddc6b0f7656,2024-10-02_09h53.03.435,mdp,2024.2.1,Win32,12.01923077,66fa4ebf79326e780c390304,,,,,,,,,,,,,,,,,,,,,231.2152,231.2152,231.2158,232.4946,0,1,left,0.6434,,232.4952,232.4958,,1,,232.4962,232.4966,,1,,0,232.4966,232.4966,232.4969,233.9361,0,33,33,33,1,0.4,0.6,0.8,0.2,1,0,,,,,,,,,,,,,,,,,,,,,,,,,,,,,,,,,,,,
,,669a687aa4b63a61f8f5b07f,66fc98fbf6ba0ddc6b0f7656,2024-10-02_09h53.03.435,mdp,2024.2.1,Win32,12.01923077,66fa4ebf79326e780c390304,,,,,,,,,,,,,,,,,,,,,233.9364,233.9364,233.9373,235.2555,0,1,left,0.6739,,235.2564,235.2569,,1,,235.2574,235.2579,,1,,0,235.2579,235.2579,235.2583,236.7612,0,34,34,34,1,0.4,0.6,0.8,0.2,1,0,,,,,,,,,,,,,,,,,,,,,,,,,,,,,,,,,,,,
,,669a687aa4b63a61f8f5b07f,66fc98fbf6ba0ddc6b0f7656,2024-10-02_09h53.03.435,mdp,2024.2.1,Win32,12.01923077,66fa4ebf79326e780c390304,,,,,,,,,,,,,,,,,,,,,236.7615,236.7615,236.7632,237.7262,1,0,right,0.3599,,237.7279,237.7288,,0,,237.7301,237.7312,,0,,1,237.7312,237.7312,237.7321,239.2207,0,35,35,35,1,0.4,0.6,0.8,0.2,1,0,,,,,,,,,,,,,,,,,,,,,,,,,,,,,,,,,,,,
,,669a687aa4b63a61f8f5b07f,66fc98fbf6ba0ddc6b0f7656,2024-10-02_09h53.03.435,mdp,2024.2.1,Win32,12.01923077,66fa4ebf79326e780c390304,,,,,,,,,,,,,,,,,,,,,239.221,239.221,239.2217,240.1769,1,0,right,0.3156,,240.1779,240.1786,,0,,240.179,240.1795,,0,,1,240.1796,240.1796,240.18,241.6235,0,36,36,36,1,0.4,0.6,0.8,0.2,1,0,,,,,,,,,,,,,,,,,,,,,,,,,,,,,,,,,,,,
,,669a687aa4b63a61f8f5b07f,66fc98fbf6ba0ddc6b0f7656,2024-10-02_09h53.03.435,mdp,2024.2.1,Win32,12.01923077,66fa4ebf79326e780c390304,,,,,,,,,,,,,,,,,,,,,241.6237,241.6237,241.6243,242.7081,0,1,left,0.486,,242.709,242.7096,,1,,242.71,242.7107,,1,,0,242.7107,242.7107,242.7111,244.1674,0,37,37,37,1,0.2,0.8,0.6,0.4,1,0,,,,,,,,,,,,,,,,,,,,,,,,,,,,,,,,,,,,
,,669a687aa4b63a61f8f5b07f,66fc98fbf6ba0ddc6b0f7656,2024-10-02_09h53.03.435,mdp,2024.2.1,Win32,12.01923077,66fa4ebf79326e780c390304,,,,,,,,,,,,,,,,,,,,,244.1677,244.1677,244.1684,245.1625,0,1,left,0.3982,,245.1634,245.1641,,1,,245.1647,245.1652,,0,,0,245.1652,245.1652,245.1657,246.6241,0,38,38,38,1,0.2,0.8,0.6,0.4,1,0,,,,,,,,,,,,,,,,,,,,,,,,,,,,,,,,,,,,
,,669a687aa4b63a61f8f5b07f,66fc98fbf6ba0ddc6b0f7656,2024-10-02_09h53.03.435,mdp,2024.2.1,Win32,12.01923077,66fa4ebf79326e780c390304,,,,,,,,,,,,,,,,,,,,,246.6243,246.6243,246.6251,247.626,0,1,left,0.3968,,247.6271,247.628,,1,,247.6286,247.6291,,0,,0,247.6291,247.6291,247.6294,249.0872,0,39,39,39,1,0.2,0.8,0.6,0.4,1,0,,,,,,,,,,,,,,,,,,,,,,,,,,,,,,,,,,,,
,,669a687aa4b63a61f8f5b07f,66fc98fbf6ba0ddc6b0f7656,2024-10-02_09h53.03.435,mdp,2024.2.1,Win32,12.01923077,66fa4ebf79326e780c390304,,,,,,,,,,,,,,,,,,,,,249.0874,249.0874,249.0885,250.0295,1,0,right,0.3169,,250.0303,250.0308,,1,,250.0313,250.0317,,1,,1,250.0317,250.0317,250.0322,251.4833,0,40,40,40,1,0.2,0.8,0.6,0.4,1,0,,,,,,,,,,,,,,,,,,,,,,,,,,,,,,,,,,,,
,,669a687aa4b63a61f8f5b07f,66fc98fbf6ba0ddc6b0f7656,2024-10-02_09h53.03.435,mdp,2024.2.1,Win32,12.01923077,66fa4ebf79326e780c390304,,,,,,,,,,,,,,,,,,,,,251.4836,251.4836,251.4843,252.4744,1,0,right,0.3808,,252.4751,252.4757,,0,,252.4762,252.4767,,0,,1,252.4767,252.4767,252.4772,253.9233,0,41,41,41,1,0.4,0.6,0.8,0.2,1,0,,,,,,,,,,,,,,,,,,,,,,,,,,,,,,,,,,,,
,,669a687aa4b63a61f8f5b07f,66fc98fbf6ba0ddc6b0f7656,2024-10-02_09h53.03.435,mdp,2024.2.1,Win32,12.01923077,66fa4ebf79326e780c390304,,,,,,,,,,,,,,,,,,,,,253.9237,253.9237,253.9246,254.8762,1,1,right,0.3262,,254.8772,254.8777,,0,,254.8782,254.8787,,0,,0,254.8787,254.8787,254.8792,256.3705,0,42,42,42,1,0.4,0.6,0.8,0.2,1,0,,,,,,,,,,,,,,,,,,,,,,,,,,,,,,,,,,,,
,,669a687aa4b63a61f8f5b07f,66fc98fbf6ba0ddc6b0f7656,2024-10-02_09h53.03.435,mdp,2024.2.1,Win32,12.01923077,66fa4ebf79326e780c390304,,,,,,,,,,,,,,,,,,,,,256.3708,256.3708,256.3714,257.1983,0,1,left,0.2414,,257.1989,257.1995,,0,,257.1998,257.2002,,1,,0,257.2002,257.2002,257.2005,258.6674,0,43,43,43,1,0.4,0.6,0.8,0.2,1,0,,,,,,,,,,,,,,,,,,,,,,,,,,,,,,,,,,,,
,,669a687aa4b63a61f8f5b07f,66fc98fbf6ba0ddc6b0f7656,2024-10-02_09h53.03.435,mdp,2024.2.1,Win32,12.01923077,66fa4ebf79326e780c390304,,,,,,,,,,,,,,,,,,,,,258.6677,258.6677,258.6687,259.5686,1,0,right,0.2439,,259.5694,259.57,,0,,259.5705,259.571,,0,,1,259.571,259.571,259.5714,261.0863,0,44,44,44,1,0.4,0.6,0.8,0.2,1,0,,,,,,,,,,,,,,,,,,,,,,,,,,,,,,,,,,,,
,,669a687aa4b63a61f8f5b07f,66fc98fbf6ba0ddc6b0f7656,2024-10-02_09h53.03.435,mdp,2024.2.1,Win32,12.01923077,66fa4ebf79326e780c390304,,,,,,,,,,,,,,,,,,,,,261.0865,261.0865,261.0874,261.9946,1,0,right,0.309,,261.9954,261.9961,,1,,261.9966,261.997,,1,,1,261.997,261.997,261.9973,263.4459,0,45,45,45,1,0.4,0.6,0.8,0.2,1,0,,,,,,,,,,,,,,,,,,,,,,,,,,,,,,,,,,,,
,,669a687aa4b63a61f8f5b07f,66fc98fbf6ba0ddc6b0f7656,2024-10-02_09h53.03.435,mdp,2024.2.1,Win32,12.01923077,66fa4ebf79326e780c390304,,,,,,,,,,,,,,,,,,,,,263.4463,263.4463,263.4469,264.4232,1,0,right,0.3315,,264.4239,264.4244,,0,,264.4247,264.4251,,0,,1,264.4251,264.4251,264.4254,265.9021,0,46,46,46,1,0.4,0.6,0.8,0.2,1,0,,,,,,,,,,,,,,,,,,,,,,,,,,,,,,,,,,,,
,,669a687aa4b63a61f8f5b07f,66fc98fbf6ba0ddc6b0f7656,2024-10-02_09h53.03.435,mdp,2024.2.1,Win32,12.01923077,66fa4ebf79326e780c390304,,,,,,,,,,,,,,,,,,,,,265.9024,265.9024,265.9032,266.8071,1,0,right,0.2924,,266.8078,266.8084,,0,,266.8089,266.8094,,0,,1,266.8094,266.8094,266.8099,268.2776,0,47,47,47,1,0.4,0.6,0.8,0.2,1,0,,,,,,,,,,,,,,,,,,,,,,,,,,,,,,,,,,,,
,,669a687aa4b63a61f8f5b07f,66fc98fbf6ba0ddc6b0f7656,2024-10-02_09h53.03.435,mdp,2024.2.1,Win32,12.01923077,66fa4ebf79326e780c390304,,,,,,,,,,,,,,,,,,,,,268.2779,268.2779,268.2785,269.1153,1,0,right,0.1886,,269.1164,269.1173,,0,,269.1184,269.1192,,1,,1,269.1193,269.1193,269.1198,270.5742,0,48,48,48,1,0.4,0.6,0.8,0.2,1,0,,,,,,,,,,,,,,,,,,,,,,,,,,,,,,,,,,,,
,,669a687aa4b63a61f8f5b07f,66fc98fbf6ba0ddc6b0f7656,2024-10-02_09h53.03.435,mdp,2024.2.1,Win32,12.01923077,66fa4ebf79326e780c390304,,,,,,,,,,,,,,,,,,,,,270.5744,270.5744,270.5754,271.6441,1,1,right,0.4423,,271.645,271.6457,,0,,271.6463,271.6468,,0,,0,271.6469,271.6469,271.6476,273.1451,0,49,49,49,1,0.4,0.6,0.8,0.2,1,0,,,,,,,,,,,,,,,,,,,,,,,,,,,,,,,,,,,,
,,669a687aa4b63a61f8f5b07f,66fc98fbf6ba0ddc6b0f7656,2024-10-02_09h53.03.435,mdp,2024.2.1,Win32,12.01923077,66fa4ebf79326e780c390304,,,,,,,,,,,,,,,,,,,,,,,,,,,,,,,,,,,,,,,,,,,,,,,,,,,,,,,,273.1455,331.6778,0,0,0,1,1,imgs/dog.png,imgs/lion.png,imgs/cat.png,imgs/giraffe.png,imgs/rabbit.png,,,,,,,,,,,,,,,,,,,,,,,,
,,669a687aa4b63a61f8f5b07f,66fc98fbf6ba0ddc6b0f7656,2024-10-02_09h53.03.435,mdp,2024.2.1,Win32,12.01923077,66fa4ebf79326e780c390304,,,,,,,,,,,,,,2,seqs/st2seq21.csv,331.679,338.5043,space,6.2298,,338.508,338.508,338.5086,340.332,0,1,left,1.1963,,340.3327,342.8744,0,1,left,342.875,342.8755,,1,,0,342.8755,342.8755,342.876,344.3513,0,0,0,0,1,0.8,0.2,0.4,0.6,,,,,,,,,,,,,,,1.8992,,0.8,0.2,0.4,0.6,0.4,0.6,0.4,0.6,1,0,,,,,,,,,,,,
,,669a687aa4b63a61f8f5b07f,66fc98fbf6ba0ddc6b0f7656,2024-10-02_09h53.03.435,mdp,2024.2.1,Win32,12.01923077,66fa4ebf79326e780c390304,,,,,,,,,,,,,,,,,,,,,344.3517,344.3517,344.3522,345.7237,0,1,left,0.7479,,345.7246,346.5509,1,0,right,346.5519,346.5525,,0,,1,346.5525,346.5525,346.553,348.0628,0,1,1,1,1,0.2,0.8,0.8,0.2,,,,,,,,,,,,,,,0.2534,,0.8,0.2,0.4,0.6,0.4,0.6,0.4,0.6,1,0,,,,,,,,,,,,
,,669a687aa4b63a61f8f5b07f,66fc98fbf6ba0ddc6b0f7656,2024-10-02_09h53.03.435,mdp,2024.2.1,Win32,12.01923077,66fa4ebf79326e780c390304,,,,,,,,,,,,,,,,,,,,,348.0631,348.0631,348.0638,349.3768,0,0,left,0.6779,,349.3782,350.1601,1,1,right,350.1609,350.1613,,1,,0,350.1614,350.1614,350.1617,351.6067,0,2,2,2,1,0.2,0.8,0.8,0.2,,,,,,,,,,,,,,,0.161,,0.8,0.2,0.4,0.6,0.4,0.6,0.4,0.6,1,0,,,,,,,,,,,,
,,669a687aa4b63a61f8f5b07f,66fc98fbf6ba0ddc6b0f7656,2024-10-02_09h53.03.435,mdp,2024.2.1,Win32,12.01923077,66fa4ebf79326e780c390304,,,,,,,,,,,,,,,,,,,,,351.607,351.607,351.608,352.7293,1,0,right,0.4837,,352.7299,353.7284,1,1,right,353.7293,353.7302,,0,,0,353.7302,353.7302,353.7307,355.2132,0,3,3,3,1,0.2,0.8,0.8,0.2,,,,,,,,,,,,,,,0.3458,,0.2,0.8,0.6,0.4,0.4,0.6,0.4,0.6,1,0,,,,,,,,,,,,
,,669a687aa4b63a61f8f5b07f,66fc98fbf6ba0ddc6b0f7656,2024-10-02_09h53.03.435,mdp,2024.2.1,Win32,12.01923077,66fa4ebf79326e780c390304,,,,,,,,,,,,,,,,,,,,,355.2134,355.2134,355.2142,356.2094,1,0,right,0.3451,,356.2103,357.02,0,1,left,357.021,357.0218,,1,,0,357.0219,357.0219,357.0224,358.5083,0,4,4,4,1,0.8,0.2,0.4,0.6,,,,,,,,,,,,,,,0.2032,,0.2,0.8,0.6,0.4,0.4,0.6,0.4,0.6,1,0,,,,,,,,,,,,
,,669a687aa4b63a61f8f5b07f,66fc98fbf6ba0ddc6b0f7656,2024-10-02_09h53.03.435,mdp,2024.2.1,Win32,12.01923077,66fa4ebf79326e780c390304,,,,,,,,,,,,,,,,,,,,,358.5087,358.5087,358.5093,359.5006,0,0,left,0.4107,,359.5013,360.2758,0,0,left,360.2765,360.2772,,1,,1,360.2772,360.2772,360.2777,361.7383,0,5,5,5,1,0.8,0.2,0.4,0.6,,,,,,,,,,,,,,,0.1494,,0.2,0.8,0.6,0.4,0.4,0.6,0.4,0.6,1,0,,,,,,,,,,,,
,,669a687aa4b63a61f8f5b07f,66fc98fbf6ba0ddc6b0f7656,2024-10-02_09h53.03.435,mdp,2024.2.1,Win32,12.01923077,66fa4ebf79326e780c390304,,,,,,,,,,,,,,,,,,,,,361.7385,361.7385,361.7393,362.9708,0,0,left,0.6548,,362.9716,363.6692,1,1,right,363.6698,363.6705,,0,,0,363.6705,363.6705,363.671,365.1264,0,6,6,6,1,0.6,0.4,0.6,0.4,,,,,,,,,,,,,,,0.0858,,0.2,0.8,0.6,0.4,0.4,0.6,0.4,0.6,1,0,,,,,,,,,,,,
,,669a687aa4b63a61f8f5b07f,66fc98fbf6ba0ddc6b0f7656,2024-10-02_09h53.03.435,mdp,2024.2.1,Win32,12.01923077,66fa4ebf79326e780c390304,,,,,,,,,,,,,,,,,,,,,365.1268,365.1268,365.1275,366.1017,0,1,left,0.3944,,366.1023,366.8779,0,0,left,366.8787,366.8793,,1,,1,366.8794,366.8794,366.8799,368.3955,0,7,7,7,1,0.6,0.4,0.6,0.4,,,,,,,,,,,,,,,0.1709,,0.2,0.8,0.6,0.4,0.4,0.6,0.4,0.6,1,0,,,,,,,,,,,,
,,669a687aa4b63a61f8f5b07f,66fc98fbf6ba0ddc6b0f7656,2024-10-02_09h53.03.435,mdp,2024.2.1,Win32,12.01923077,66fa4ebf79326e780c390304,,,,,,,,,,,,,,,,,,,,,368.3957,368.3957,368.3967,369.3917,0,0,left,0.399,,369.3922,370.0116,0,1,left,370.0123,370.0129,,0,,0,370.013,370.013,370.0135,371.5103,0,8,8,8,1,0.6,0.4,0.6,0.4,,,,,,,,,,,,,,,0.0063,,0.2,0.8,0.6,0.4,0.4,0.6,0.4,0.6,1,0,,,,,,,,,,,,
,,669a687aa4b63a61f8f5b07f,66fc98fbf6ba0ddc6b0f7656,2024-10-02_09h53.03.435,mdp,2024.2.1,Win32,12.01923077,66fa4ebf79326e780c390304,,,,,,,,,,,,,,,,,,,,,371.5105,371.5105,371.5112,372.4749,1,0,right,0.3021,,372.4767,373.1093,0,1,left,373.1103,373.111,,0,,0,373.111,373.111,373.1119,374.648,0,9,9,9,1,0.6,0.4,0.6,0.4,,,,,,,,,,,,,,,0.0073,,0.2,0.8,0.6,0.4,0.4,0.6,0.4,0.6,1,0,,,,,,,,,,,,
,,669a687aa4b63a61f8f5b07f,66fc98fbf6ba0ddc6b0f7656,2024-10-02_09h53.03.435,mdp,2024.2.1,Win32,12.01923077,66fa4ebf79326e780c390304,,,,,,,,,,,,,,,,,,,,,374.6485,374.6485,374.6499,375.4088,1,1,right,0.1082,,375.4099,376.091,1,1,right,376.092,376.093,,1,,0,376.0931,376.0931,376.0938,377.5738,0,10,10,10,1,0.6,0.4,0.6,0.4,,,,,,,,,,,,,,,0.0078,,0.2,0.8,0.6,0.4,0.4,0.6,0.4,0.6,1,0,,,,,,,,,,,,
,,669a687aa4b63a61f8f5b07f,66fc98fbf6ba0ddc6b0f7656,2024-10-02_09h53.03.435,mdp,2024.2.1,Win32,12.01923077,66fa4ebf79326e780c390304,,,,,,,,,,,,,,,,,,,,,377.5741,377.5741,377.5755,378.502,0,0,left,0.3424,,378.5027,379.1674,0,1,left,379.1682,379.1687,,1,,0,379.1687,379.1687,379.1692,380.6148,0,11,11,11,1,0.6,0.4,0.6,0.4,,,,,,,,,,,,,,,0.007,,0.2,0.8,0.6,0.4,0.4,0.6,0.4,0.6,1,0,,,,,,,,,,,,
,,669a687aa4b63a61f8f5b07f,66fc98fbf6ba0ddc6b0f7656,2024-10-02_09h53.03.435,mdp,2024.2.1,Win32,12.01923077,66fa4ebf79326e780c390304,,,,,,,,,,,,,,,,,,,,,380.6152,380.6152,380.6164,381.5227,0,0,left,0.3297,,381.5234,382.2161,1,1,right,382.2169,382.2174,,1,,0,382.2175,382.2175,382.2179,383.6793,0,12,12,12,1,0.6,0.4,0.6,0.4,,,,,,,,,,,,,,,0.0842,,0.2,0.8,0.6,0.4,0.4,0.6,0.4,0.6,1,0,,,,,,,,,,,,
,,669a687aa4b63a61f8f5b07f,66fc98fbf6ba0ddc6b0f7656,2024-10-02_09h53.03.435,mdp,2024.2.1,Win32,12.01923077,66fa4ebf79326e780c390304,,,,,,,,,,,,,,,,,,,,,383.6795,383.6795,383.68,384.5539,0,1,left,0.2638,,384.5548,385.205,0,1,left,385.2057,385.2062,,1,,0,385.2062,385.2062,385.2067,386.6977,0,13,13,13,1,0.6,0.4,0.6,0.4,,,,,,,,,,,,,,,0.0067,,0.2,0.8,0.6,0.4,0.4,0.6,0.4,0.6,1,0,,,,,,,,,,,,
,,669a687aa4b63a61f8f5b07f,66fc98fbf6ba0ddc6b0f7656,2024-10-02_09h53.03.435,mdp,2024.2.1,Win32,12.01923077,66fa4ebf79326e780c390304,,,,,,,,,,,,,,,,,,,,,386.698,386.698,386.6989,387.6153,0,1,left,0.317,,387.6159,388.3169,1,0,right,388.3174,388.3179,,0,,1,388.3179,388.318,388.3184,389.7892,0,14,14,14,1,0.6,0.4,0.6,0.4,,,,,,,,,,,,,,,0.0797,,0.2,0.8,0.6,0.4,0.4,0.6,0.4,0.6,1,0,,,,,,,,,,,,
,,669a687aa4b63a61f8f5b07f,66fc98fbf6ba0ddc6b0f7656,2024-10-02_09h53.03.435,mdp,2024.2.1,Win32,12.01923077,66fa4ebf79326e780c390304,,,,,,,,,,,,,,,,,,,,,389.7895,389.7895,389.7903,390.7611,0,1,left,0.3402,,390.7619,391.3724,1,1,right,391.373,391.3735,,0,,0,391.3735,391.3735,391.374,392.8686,0,15,15,15,1,0.6,0.4,0.6,0.4,,,,,,,,,,,,,,,0.0063,,0.2,0.8,0.6,0.4,0.4,0.6,0.4,0.6,1,0,,,,,,,,,,,,
,,669a687aa4b63a61f8f5b07f,66fc98fbf6ba0ddc6b0f7656,2024-10-02_09h53.03.435,mdp,2024.2.1,Win32,12.01923077,66fa4ebf79326e780c390304,,,,,,,,,,,,,,,,,,,,,392.8688,392.8688,392.8696,393.7288,1,0,right,0.2463,,393.7296,394.4311,0,1,left,394.4318,394.4322,,1,,0,394.4323,394.4323,394.4326,395.9391,0,16,16,16,1,0.6,0.4,0.6,0.4,,,,,,,,,,,,,,,0.095,,0.2,0.8,0.6,0.4,0.6,0.4,0.6,0.4,1,0,,,,,,,,,,,,
,,669a687aa4b63a61f8f5b07f,66fc98fbf6ba0ddc6b0f7656,2024-10-02_09h53.03.435,mdp,2024.2.1,Win32,12.01923077,66fa4ebf79326e780c390304,,,,,,,,,,,,,,,,,,,,,395.9393,395.9394,395.9401,396.7442,0,1,left,0.1703,,396.7449,397.4804,0,1,left,397.4809,397.4816,,0,,0,397.4816,397.4816,397.4821,398.9445,0,17,17,17,1,0.6,0.4,0.6,0.4,,,,,,,,,,,,,,,0.0937,,0.2,0.8,0.6,0.4,0.6,0.4,0.6,0.4,1,0,,,,,,,,,,,,
,,669a687aa4b63a61f8f5b07f,66fc98fbf6ba0ddc6b0f7656,2024-10-02_09h53.03.435,mdp,2024.2.1,Win32,12.01923077,66fa4ebf79326e780c390304,,,,,,,,,,,,,,,,,,,,,398.9447,398.9447,398.9453,399.5578,1,1,right,0.0073,,399.5584,400.3259,1,1,right,400.3267,400.3273,,1,,0,400.3273,400.3273,400.3278,401.8034,0,18,18,18,1,0.6,0.4,0.6,0.4,,,,,,,,,,,,,,,0.1755,,0.2,0.8,0.6,0.4,0.6,0.4,0.6,0.4,1,0,,,,,,,,,,,,
,,669a687aa4b63a61f8f5b07f,66fc98fbf6ba0ddc6b0f7656,2024-10-02_09h53.03.435,mdp,2024.2.1,Win32,12.01923077,66fa4ebf79326e780c390304,,,,,,,,,,,,,,,,,,,,,401.8037,401.8037,401.8043,402.7489,1,0,right,0.3235,,402.7501,403.5298,0,1,left,403.5309,403.5316,,0,,0,403.5316,403.5316,403.5322,405.0202,0,19,19,19,1,0.6,0.4,0.6,0.4,,,,,,,,,,,,,,,0.1873,,0.2,0.8,0.6,0.4,0.6,0.4,0.6,0.4,1,0,,,,,,,,,,,,
,,669a687aa4b63a61f8f5b07f,66fc98fbf6ba0ddc6b0f7656,2024-10-02_09h53.03.435,mdp,2024.2.1,Win32,12.01923077,66fa4ebf79326e780c390304,,,,,,,,,,,,,,,,,,,,,405.0205,405.0205,405.0214,405.9353,0,0,left,0.2818,,405.9362,406.7551,1,0,right,406.7562,406.757,,0,,1,406.757,406.757,406.7576,408.2742,0,20,20,20,1,0.8,0.2,0.2,0.8,,,,,,,,,,,,,,,0.1836,,0.2,0.8,0.6,0.4,0.6,0.4,0.6,0.4,1,0,,,,,,,,,,,,
,,669a687aa4b63a61f8f5b07f,66fc98fbf6ba0ddc6b0f7656,2024-10-02_09h53.03.435,mdp,2024.2.1,Win32,12.01923077,66fa4ebf79326e780c390304,,,,,,,,,,,,,,,,,,,,,408.2746,408.2746,408.2751,409.153,0,0,left,0.2729,,409.1538,409.9526,0,1,left,409.9538,409.9546,,1,,0,409.9546,409.9546,409.9555,411.4602,0,21,21,21,1,0.8,0.2,0.2,0.8,,,,,,,,,,,,,,,0.2015,,0.2,0.8,0.6,0.4,0.6,0.4,0.6,0.4,1,0,,,,,,,,,,,,
,,669a687aa4b63a61f8f5b07f,66fc98fbf6ba0ddc6b0f7656,2024-10-02_09h53.03.435,mdp,2024.2.1,Win32,12.01923077,66fa4ebf79326e780c390304,,,,,,,,,,,,,,,,,,,,,411.4605,411.4605,411.4614,412.0872,0,0,left,0.0069,,412.088,412.7217,1,0,right,412.7229,412.7235,,1,,1,412.7235,412.7235,412.7241,414.1791,0,22,22,22,1,0.8,0.2,0.2,0.8,,,,,,,,,,,,,,,0.0072,,0.2,0.8,0.6,0.4,0.6,0.4,0.6,0.4,1,0,,,,,,,,,,,,
,,669a687aa4b63a61f8f5b07f,66fc98fbf6ba0ddc6b0f7656,2024-10-02_09h53.03.435,mdp,2024.2.1,Win32,12.01923077,66fa4ebf79326e780c390304,,,,,,,,,,,,,,,,,,,,,414.1795,414.1795,414.1804,414.8851,1,1,right,0.1025,,414.8857,415.575,0,1,left,415.5758,415.5764,,1,,0,415.5764,415.5764,415.5769,417.0833,0,23,23,23,1,0.8,0.2,0.2,0.8,,,,,,,,,,,,,,,0.0912,,0.2,0.8,0.6,0.4,0.4,0.6,0.8,0.2,1,0,,,,,,,,,,,,
,,669a687aa4b63a61f8f5b07f,66fc98fbf6ba0ddc6b0f7656,2024-10-02_09h53.03.435,mdp,2024.2.1,Win32,12.01923077,66fa4ebf79326e780c390304,,,,,,,,,,,,,,,,,,,,,417.0835,417.0835,417.0844,417.8944,0,0,left,0.1893,,417.8954,418.5291,1,0,right,418.5298,418.5304,,0,,1,418.5304,418.5304,418.531,420.0385,0,24,24,24,1,0.8,0.2,0.2,0.8,,,,,,,,,,,,,,,0.0068,,0.2,0.8,0.6,0.4,0.4,0.6,0.8,0.2,1,0,,,,,,,,,,,,
,,669a687aa4b63a61f8f5b07f,66fc98fbf6ba0ddc6b0f7656,2024-10-02_09h53.03.435,mdp,2024.2.1,Win32,12.01923077,66fa4ebf79326e780c390304,,,,,,,,,,,,,,,,,,,,,420.0388,420.0388,420.0395,420.9703,0,0,left,0.3058,,420.971,421.5869,1,0,right,421.5879,421.5885,,0,,1,421.5885,421.5885,421.5892,423.0317,0,25,25,25,1,0.8,0.2,0.2,0.8,,,,,,,,,,,,,,,0.0065,,0.2,0.8,0.6,0.4,0.4,0.6,0.8,0.2,1,0,,,,,,,,,,,,
,,669a687aa4b63a61f8f5b07f,66fc98fbf6ba0ddc6b0f7656,2024-10-02_09h53.03.435,mdp,2024.2.1,Win32,12.01923077,66fa4ebf79326e780c390304,,,,,,,,,,,,,,,,,,,,,423.032,423.032,423.0325,423.9864,0,0,left,0.3353,,423.9871,424.7202,1,1,right,424.7211,424.7217,,0,,0,424.7217,424.7217,424.7223,426.1837,0,26,26,26,1,0.8,0.2,0.2,0.8,,,,,,,,,,,,,,,0.0886,,0.2,0.8,0.6,0.4,0.4,0.6,0.8,0.2,1,0,,,,,,,,,,,,
,,669a687aa4b63a61f8f5b07f,66fc98fbf6ba0ddc6b0f7656,2024-10-02_09h53.03.435,mdp,2024.2.1,Win32,12.01923077,66fa4ebf79326e780c390304,,,,,,,,,,,,,,,,,,,,,426.184,426.184,426.1846,427.1857,0,0,left,0.3831,,427.1863,427.9044,1,1,right,427.9051,427.9058,,0,,0,427.9058,427.9058,427.9062,429.4187,0,27,27,27,1,0.8,0.2,0.2,0.8,,,,,,,,,,,,,,,0.0865,,0.2,0.8,0.6,0.4,0.4,0.6,0.8,0.2,1,0,,,,,,,,,,,,
,,669a687aa4b63a61f8f5b07f,66fc98fbf6ba0ddc6b0f7656,2024-10-02_09h53.03.435,mdp,2024.2.1,Win32,12.01923077,66fa4ebf79326e780c390304,,,,,,,,,,,,,,,,,,,,,429.419,429.419,429.4196,430.2765,0,0,left,0.2789,,430.2779,430.9541,0,1,left,430.9548,430.9553,,1,,0,430.9554,430.9554,430.9558,432.4747,0,28,28,28,1,0.8,0.2,0.2,0.8,,,,,,,,,,,,,,,0.0073,,0.2,0.8,0.6,0.4,0.4,0.6,0.8,0.2,1,0,,,,,,,,,,,,
,,669a687aa4b63a61f8f5b07f,66fc98fbf6ba0ddc6b0f7656,2024-10-02_09h53.03.435,mdp,2024.2.1,Win32,12.01923077,66fa4ebf79326e780c390304,,,,,,,,,,,,,,,,,,,,,432.475,432.475,432.476,433.0599,1,0,right,0.0067,,433.0608,433.7582,0,1,left,433.7592,433.7598,,1,,0,433.7598,433.7599,433.7605,435.2171,0,29,29,29,1,0.8,0.2,0.2,0.8,,,,,,,,,,,,,,,0.0894,,0.2,0.8,0.6,0.4,0.4,0.6,0.8,0.2,1,0,,,,,,,,,,,,
,,669a687aa4b63a61f8f5b07f,66fc98fbf6ba0ddc6b0f7656,2024-10-02_09h53.03.435,mdp,2024.2.1,Win32,12.01923077,66fa4ebf79326e780c390304,,,,,,,,,,,,,,,,,,,,,435.2173,435.2173,435.218,435.8298,1,0,right,0.0062,,435.8306,436.5984,1,0,right,436.5994,436.6,,0,,1,436.6,436.6,436.6004,438.0628,0,30,30,30,1,0.8,0.2,0.2,0.8,,,,,,,,,,,,,,,0.1652,,0.2,0.8,0.6,0.4,0.4,0.6,0.8,0.2,1,0,,,,,,,,,,,,
,,669a687aa4b63a61f8f5b07f,66fc98fbf6ba0ddc6b0f7656,2024-10-02_09h53.03.435,mdp,2024.2.1,Win32,12.01923077,66fa4ebf79326e780c390304,,,,,,,,,,,,,,,,,,,,,438.0629,438.0629,438.0637,438.9211,0,0,left,0.2475,,438.9219,439.5362,1,1,right,439.5372,439.5381,,0,,0,439.5382,439.5382,439.5388,440.983,0,31,31,31,1,0.8,0.2,0.2,0.8,,,,,,,,,,,,,,,0.0077,,0.2,0.8,0.6,0.4,0.4,0.6,0.8,0.2,1,0,,,,,,,,,,,,
,,669a687aa4b63a61f8f5b07f,66fc98fbf6ba0ddc6b0f7656,2024-10-02_09h53.03.435,mdp,2024.2.1,Win32,12.01923077,66fa4ebf79326e780c390304,,,,,,,,,,,,,,,,,,,,,440.9833,440.9833,440.9841,442.0416,0,1,left,0.4513,,442.0422,442.7495,0,1,left,442.7503,442.7507,,1,,0,442.7507,442.7507,442.7511,444.2105,0,32,32,32,1,0.8,0.2,0.2,0.8,,,,,,,,,,,,,,,0.086,,0.6,0.4,0.4,0.6,0.4,0.6,0.8,0.2,1,0,,,,,,,,,,,,
,,669a687aa4b63a61f8f5b07f,66fc98fbf6ba0ddc6b0f7656,2024-10-02_09h53.03.435,mdp,2024.2.1,Win32,12.01923077,66fa4ebf79326e780c390304,,,,,,,,,,,,,,,,,,,,,444.2107,444.2108,444.2114,445.1519,0,0,left,0.352,,445.1526,445.8741,1,1,right,445.8747,445.8752,,1,,0,445.8752,445.8752,445.8757,447.374,0,33,33,33,1,0.4,0.6,0.6,0.4,,,,,,,,,,,,,,,0.0857,,0.6,0.4,0.4,0.6,0.4,0.6,0.8,0.2,1,0,,,,,,,,,,,,
,,669a687aa4b63a61f8f5b07f,66fc98fbf6ba0ddc6b0f7656,2024-10-02_09h53.03.435,mdp,2024.2.1,Win32,12.01923077,66fa4ebf79326e780c390304,,,,,,,,,,,,,,,,,,,,,447.3742,447.3743,447.3749,448.3074,1,0,right,0.3217,,448.3083,449.1072,0,0,left,449.1079,449.1085,,0,,1,449.1086,449.1086,449.1091,450.5861,0,34,34,34,1,0.4,0.6,0.6,0.4,,,,,,,,,,,,,,,0.1589,,0.6,0.4,0.4,0.6,0.4,0.6,0.8,0.2,1,0,,,,,,,,,,,,
,,669a687aa4b63a61f8f5b07f,66fc98fbf6ba0ddc6b0f7656,2024-10-02_09h53.03.435,mdp,2024.2.1,Win32,12.01923077,66fa4ebf79326e780c390304,,,,,,,,,,,,,,,,,,,,,450.5863,450.5863,450.5869,451.2305,1,1,right,0.0067,,451.2313,451.8604,0,1,left,451.861,451.8615,,0,,0,451.8616,451.8616,451.862,453.3295,0,35,35,35,1,0.4,0.6,0.6,0.4,,,,,,,,,,,,,,,0.0067,,0.6,0.4,0.4,0.6,0.4,0.6,0.8,0.2,1,0,,,,,,,,,,,,
,,669a687aa4b63a61f8f5b07f,66fc98fbf6ba0ddc6b0f7656,2024-10-02_09h53.03.435,mdp,2024.2.1,Win32,12.01923077,66fa4ebf79326e780c390304,,,,,,,,,,,,,,,,,,,,,453.3298,453.3299,453.3307,453.9508,1,0,right,0.0072,,453.9515,454.557,1,1,right,454.5578,454.5584,,1,,0,454.5584,454.5584,454.5589,455.986,0,36,36,36,1,0.4,0.6,0.6,0.4,,,,,,,,,,,,,,,0.0071,,0.6,0.4,0.4,0.6,0.4,0.6,0.8,0.2,1,0,,,,,,,,,,,,
,,669a687aa4b63a61f8f5b07f,66fc98fbf6ba0ddc6b0f7656,2024-10-02_09h53.03.435,mdp,2024.2.1,Win32,12.01923077,66fa4ebf79326e780c390304,,,,,,,,,,,,,,,,,,,,,455.9862,455.9862,455.9871,457.0954,0,0,left,0.4893,,457.0964,457.7342,0,0,left,457.7353,457.7362,,1,,1,457.7363,457.7363,457.7369,459.193,0,37,37,37,1,0.4,0.6,0.6,0.4,,,,,,,,,,,,,,,0.0082,,0.6,0.4,0.4,0.6,0.4,0.6,0.8,0.2,1,0,,,,,,,,,,,,
,,669a687aa4b63a61f8f5b07f,66fc98fbf6ba0ddc6b0f7656,2024-10-02_09h53.03.435,mdp,2024.2.1,Win32,12.01923077,66fa4ebf79326e780c390304,,,,,,,,,,,,,,,,,,,,,459.1933,459.1933,459.1938,459.8903,0,1,left,0.0897,,459.8911,460.5482,1,0,right,460.5488,460.5494,,0,,1,460.5494,460.5494,460.5498,462.009,0,38,38,38,1,0.4,0.6,0.6,0.4,,,,,,,,,,,,,,,0.0795,,0.6,0.4,0.4,0.6,0.4,0.6,0.8,0.2,1,0,,,,,,,,,,,,
,,669a687aa4b63a61f8f5b07f,66fc98fbf6ba0ddc6b0f7656,2024-10-02_09h53.03.435,mdp,2024.2.1,Win32,12.01923077,66fa4ebf79326e780c390304,,,,,,,,,,,,,,,,,,,,,462.0092,462.0093,462.0101,462.6626,1,0,right,0.0067,,462.6633,463.3594,0,1,left,463.3604,463.361,,1,,0,463.361,463.361,463.3615,464.8463,0,39,39,39,1,0.4,0.6,0.6,0.4,,,,,,,,,,,,,,,0.0873,,0.6,0.4,0.4,0.6,0.4,0.6,0.8,0.2,1,0,,,,,,,,,,,,
,,669a687aa4b63a61f8f5b07f,66fc98fbf6ba0ddc6b0f7656,2024-10-02_09h53.03.435,mdp,2024.2.1,Win32,12.01923077,66fa4ebf79326e780c390304,,,,,,,,,,,,,,,,,,,,,464.8467,464.8467,464.8479,465.4423,1,0,right,0.0067,,465.443,466.072,1,0,right,466.0727,466.0735,,1,,1,466.0735,466.0735,466.0742,467.5704,0,40,40,40,1,0.4,0.6,0.6,0.4,,,,,,,,,,,,,,,0.0062,,0.6,0.4,0.4,0.6,0.4,0.6,0.8,0.2,1,0,,,,,,,,,,,,
,,669a687aa4b63a61f8f5b07f,66fc98fbf6ba0ddc6b0f7656,2024-10-02_09h53.03.435,mdp,2024.2.1,Win32,12.01923077,66fa4ebf79326e780c390304,,,,,,,,,,,,,,,,,,,,,467.5707,467.5707,467.5715,468.3091,0,1,left,0.0875,,468.31,468.9942,1,1,right,468.995,468.9956,,0,,0,468.9956,468.9956,468.9961,470.5159,0,41,41,41,1,0.4,0.6,0.6,0.4,,,,,,,,,,,,,,,0.0855,,0.6,0.4,0.4,0.6,0.4,0.6,0.8,0.2,1,0,,,,,,,,,,,,
,,669a687aa4b63a61f8f5b07f,66fc98fbf6ba0ddc6b0f7656,2024-10-02_09h53.03.435,mdp,2024.2.1,Win32,12.01923077,66fa4ebf79326e780c390304,,,,,,,,,,,,,,,,,,,,,470.5161,470.5161,470.5167,471.6681,0,1,left,0.526,,471.6688,472.3971,0,0,left,472.3978,472.3985,,0,,1,472.3985,472.3985,472.399,473.8997,0,42,42,42,1,0.4,0.6,0.6,0.4,,,,,,,,,,,,,,,0.0869,,0.6,0.4,0.4,0.6,0.4,0.6,0.8,0.2,1,0,,,,,,,,,,,,
,,669a687aa4b63a61f8f5b07f,66fc98fbf6ba0ddc6b0f7656,2024-10-02_09h53.03.435,mdp,2024.2.1,Win32,12.01923077,66fa4ebf79326e780c390304,,,,,,,,,,,,,,,,,,,,,473.9,473.9,473.9011,474.7158,1,1,right,0.1717,,474.7165,475.4812,0,1,left,475.4818,475.4822,,1,,0,475.4823,475.4823,475.4827,476.9345,0,43,43,43,1,0.4,0.6,0.6,0.4,,,,,,,,,,,,,,,0.1725,,0.6,0.4,0.4,0.6,0.2,0.8,0.4,0.6,1,0,,,,,,,,,,,,
,,669a687aa4b63a61f8f5b07f,66fc98fbf6ba0ddc6b0f7656,2024-10-02_09h53.03.435,mdp,2024.2.1,Win32,12.01923077,66fa4ebf79326e780c390304,,,,,,,,,,,,,,,,,,,,,476.935,476.935,476.937,477.8433,0,0,left,0.2668,,477.8442,478.6252,1,1,right,478.6259,478.6265,,0,,0,478.6265,478.6265,478.6269,480.0874,0,44,44,44,1,0.8,0.2,0.4,0.6,,,,,,,,,,,,,,,0.1761,,0.6,0.4,0.4,0.6,0.2,0.8,0.4,0.6,1,0,,,,,,,,,,,,
,,669a687aa4b63a61f8f5b07f,66fc98fbf6ba0ddc6b0f7656,2024-10-02_09h53.03.435,mdp,2024.2.1,Win32,12.01923077,66fa4ebf79326e780c390304,,,,,,,,,,,,,,,,,,,,,480.0876,480.0876,480.0882,481.0075,0,0,left,0.317,,481.0082,481.6686,0,0,left,481.6694,481.6699,,0,,1,481.6699,481.6699,481.6704,483.1751,0,45,45,45,1,0.8,0.2,0.4,0.6,,,,,,,,,,,,,,,0.0767,,0.6,0.4,0.4,0.6,0.2,0.8,0.4,0.6,1,0,,,,,,,,,,,,
,,669a687aa4b63a61f8f5b07f,66fc98fbf6ba0ddc6b0f7656,2024-10-02_09h53.03.435,mdp,2024.2.1,Win32,12.01923077,66fa4ebf79326e780c390304,,,,,,,,,,,,,,,,,,,,,483.1753,483.1753,483.1761,483.7941,1,0,right,0.0071,,483.7947,484.4331,1,1,right,484.434,484.4346,,1,,0,484.4346,484.4346,484.4352,485.903,0,46,46,46,1,0.8,0.2,0.4,0.6,,,,,,,,,,,,,,,0.0069,,0.8,0.2,0.2,0.8,0.2,0.8,0.4,0.6,1,0,,,,,,,,,,,,
,,669a687aa4b63a61f8f5b07f,66fc98fbf6ba0ddc6b0f7656,2024-10-02_09h53.03.435,mdp,2024.2.1,Win32,12.01923077,66fa4ebf79326e780c390304,,,,,,,,,,,,,,,,,,,,,485.9033,485.9033,485.904,486.6126,0,0,left,0.0883,,486.6134,487.3854,0,0,left,487.386,487.3867,,0,,1,487.3867,487.3867,487.3871,488.9025,0,47,47,47,1,0.8,0.2,0.4,0.6,,,,,,,,,,,,,,,0.1636,,0.8,0.2,0.2,0.8,0.2,0.8,0.4,0.6,1,0,,,,,,,,,,,,
,,669a687aa4b63a61f8f5b07f,66fc98fbf6ba0ddc6b0f7656,2024-10-02_09h53.03.435,mdp,2024.2.1,Win32,12.01923077,66fa4ebf79326e780c390304,,,,,,,,,,,,,,,,,,,,,488.9029,488.9029,488.9038,489.5661,0,1,left,0.0855,,489.5667,490.3475,0,0,left,490.3483,490.3488,,1,,1,490.3489,490.3489,490.3494,491.81,0,48,48,48,1,0.2,0.8,0.6,0.4,,,,,,,,,,,,,,,0.1585,,0.8,0.2,0.2,0.8,0.2,0.8,0.4,0.6,1,0,,,,,,,,,,,,
,,669a687aa4b63a61f8f5b07f,66fc98fbf6ba0ddc6b0f7656,2024-10-02_09h53.03.435,mdp,2024.2.1,Win32,12.01923077,66fa4ebf79326e780c390304,,,,,,,,,,,,,,,,,,,,,491.8102,491.8102,491.8109,492.8731,0,1,left,0.4617,,492.8741,493.6943,1,0,right,493.6948,493.6955,,1,,1,493.6956,493.6956,493.6961,495.1511,0,49,49,49,1,0.2,0.8,0.6,0.4,,,,,,,,,,,,,,,0.1772,,0.8,0.2,0.2,0.8,0.2,0.8,0.4,0.6,1,0,,,,,,,,,,,,
,,669a687aa4b63a61f8f5b07f,66fc98fbf6ba0ddc6b0f7656,2024-10-02_09h53.03.435,mdp,2024.2.1,Win32,12.01923077,66fa4ebf79326e780c390304,,,,,,,,,,,,,,,,,,,,,,,,,,,,,,,,,,,,,,,,,,,,,,,,,,,,,,,,495.1512,553.7457,0,1,1,0,1,imgs/goat.png,imgs/kangaroo.png,imgs/rabbit.png,imgs/lion.png,imgs/horse.png,,,,,,,,,,,,,,,,,,,,,,,,
,,669a687aa4b63a61f8f5b07f,66fc98fbf6ba0ddc6b0f7656,2024-10-02_09h53.03.435,mdp,2024.2.1,Win32,12.01923077,66fa4ebf79326e780c390304,,,,,,,,,,,,,,3,seqs/st3seq46.csv,553.7465,555.9599,space,1.5853,,555.9642,555.9642,555.9648,558.0768,0,0,left,1.5139,,558.0776,558.9054,1,0,right,558.9062,559.6992,0,1,left,0,559.6992,559.6992,559.6999,561.144,0,0,0,0,1,0.4,0.6,0.6,0.4,,,,,,,,,,,,,,,0.1738,,0.8,0.2,0.6,0.4,0.8,0.2,0.2,0.8,,,0.168,,0.6,0.4,0.4,0.6,0.8,0.2,0.6,0.4,1,0
,,669a687aa4b63a61f8f5b07f,66fc98fbf6ba0ddc6b0f7656,2024-10-02_09h53.03.435,mdp,2024.2.1,Win32,12.01923077,66fa4ebf79326e780c390304,,,,,,,,,,,,,,,,,,,,,561.1444,561.1444,561.145,561.8142,0,0,left,0.0815,,561.8148,562.5046,0,0,left,562.5052,563.2828,0,0,left,1,563.283,563.283,563.2837,564.7297,0,1,1,1,1,0.4,0.6,0.6,0.4,,,,,,,,,,,,,,,0.0812,,0.8,0.2,0.6,0.4,0.8,0.2,0.2,0.8,,,0.1693,,0.6,0.4,0.4,0.6,0.8,0.2,0.6,0.4,1,0
,,669a687aa4b63a61f8f5b07f,66fc98fbf6ba0ddc6b0f7656,2024-10-02_09h53.03.435,mdp,2024.2.1,Win32,12.01923077,66fa4ebf79326e780c390304,,,,,,,,,,,,,,,,,,,,,564.7301,564.7301,564.731,565.399,0,0,left,0.0798,,565.3996,566.3294,0,0,left,566.3301,567.0877,1,1,right,0,567.0877,567.0877,567.0885,568.546,0,2,2,2,1,0.4,0.6,0.6,0.4,,,,,,,,,,,,,,,0.3088,,0.8,0.2,0.6,0.4,0.8,0.2,0.2,0.8,,,0.1643,,0.6,0.4,0.4,0.6,0.6,0.4,0.2,0.8,1,0
,,669a687aa4b63a61f8f5b07f,66fc98fbf6ba0ddc6b0f7656,2024-10-02_09h53.03.435,mdp,2024.2.1,Win32,12.01923077,66fa4ebf79326e780c390304,,,,,,,,,,,,,,,,,,,,,568.5463,568.5463,568.5469,569.5267,0,1,left,0.3427,,569.5275,570.1529,0,1,left,570.1535,570.847,0,0,left,1,570.8471,570.8471,570.8477,572.3084,0,3,3,3,1,0.4,0.6,0.6,0.4,,,,,,,,,,,,,,,0.0075,,0.8,0.2,0.6,0.4,0.8,0.2,0.2,0.8,,,0.0794,,0.6,0.4,0.4,0.6,0.6,0.4,0.2,0.8,1,0
,,669a687aa4b63a61f8f5b07f,66fc98fbf6ba0ddc6b0f7656,2024-10-02_09h53.03.435,mdp,2024.2.1,Win32,12.01923077,66fa4ebf79326e780c390304,,,,,,,,,,,,,,,,,,,,,572.3087,572.3087,572.3092,573.2125,0,1,left,0.3094,,573.2135,573.9083,0,0,left,573.9092,574.5529,0,1,left,0,574.5531,574.5531,574.5536,576.0492,0,4,4,4,1,0.4,0.6,0.6,0.4,,,,,,,,,,,,,,,0.0868,,0.8,0.2,0.6,0.4,0.8,0.2,0.2,0.8,,,0.0063,,0.6,0.4,0.4,0.6,0.6,0.4,0.2,0.8,1,0
,,669a687aa4b63a61f8f5b07f,66fc98fbf6ba0ddc6b0f7656,2024-10-02_09h53.03.435,mdp,2024.2.1,Win32,12.01923077,66fa4ebf79326e780c390304,,,,,,,,,,,,,,,,,,,,,576.0495,576.0495,576.0502,576.9464,0,0,left,0.3256,,576.947,577.7097,1,1,right,577.7104,578.4875,0,0,left,1,578.4875,578.4875,578.4882,579.9966,0,5,5,5,1,0.4,0.6,0.6,0.4,,,,,,,,,,,,,,,0.1605,,0.8,0.2,0.6,0.4,0.8,0.2,0.2,0.8,,,0.1616,,0.6,0.4,0.4,0.6,0.6,0.4,0.2,0.8,1,0
,,669a687aa4b63a61f8f5b07f,66fc98fbf6ba0ddc6b0f7656,2024-10-02_09h53.03.435,mdp,2024.2.1,Win32,12.01923077,66fa4ebf79326e780c390304,,,,,,,,,,,,,,,,,,,,,579.9968,579.9968,579.9977,580.9345,1,1,right,0.3131,,580.9351,581.7021,0,0,left,581.7028,582.6135,0,0,left,1,582.6136,582.6136,582.6141,584.0724,0,6,6,6,1,0.4,0.6,0.6,0.4,,,,,,,,,,,,,,,0.1699,,0.8,0.2,0.6,0.4,0.8,0.2,0.2,0.8,,,0.3031,,0.6,0.4,0.4,0.6,0.6,0.4,0.2,0.8,1,0
,,669a687aa4b63a61f8f5b07f,66fc98fbf6ba0ddc6b0f7656,2024-10-02_09h53.03.435,mdp,2024.2.1,Win32,12.01923077,66fa4ebf79326e780c390304,,,,,,,,,,,,,,,,,,,,,584.0727,584.0727,584.0735,584.8741,0,0,left,0.175,,584.8753,585.6825,1,1,right,585.6835,586.4456,0,0,left,1,586.4456,586.4456,586.4464,587.9538,0,7,7,7,1,0.4,0.6,0.6,0.4,,,,,,,,,,,,,,,0.1665,,0.8,0.2,0.6,0.4,0.8,0.2,0.2,0.8,,,0.1503,,0.6,0.4,0.4,0.6,0.6,0.4,0.2,0.8,1,0
,,669a687aa4b63a61f8f5b07f,66fc98fbf6ba0ddc6b0f7656,2024-10-02_09h53.03.435,mdp,2024.2.1,Win32,12.01923077,66fa4ebf79326e780c390304,,,,,,,,,,,,,,,,,,,,,587.9543,587.9543,587.9557,588.6758,1,0,right,0.0872,,588.6766,589.5396,1,0,right,589.5403,590.3589,0,0,left,1,590.3589,590.3589,590.3598,591.8725,0,8,8,8,1,0.4,0.6,0.6,0.4,,,,,,,,,,,,,,,0.2336,,0.8,0.2,0.6,0.4,0.8,0.2,0.2,0.8,,,0.1837,,0.6,0.4,0.4,0.6,0.6,0.4,0.2,0.8,1,0
,,669a687aa4b63a61f8f5b07f,66fc98fbf6ba0ddc6b0f7656,2024-10-02_09h53.03.435,mdp,2024.2.1,Win32,12.01923077,66fa4ebf79326e780c390304,,,,,,,,,,,,,,,,,,,,,591.8728,591.8728,591.8734,592.7014,0,1,left,0.2352,,592.7021,593.5897,0,0,left,593.5905,594.4247,1,1,right,0,594.4248,594.4248,594.4254,595.8528,0,9,9,9,1,0.4,0.6,0.6,0.4,,,,,,,,,,,,,,,0.2407,,0.8,0.2,0.6,0.4,0.8,0.2,0.2,0.8,,,0.2454,,0.6,0.4,0.4,0.6,0.6,0.4,0.2,0.8,1,0
,,669a687aa4b63a61f8f5b07f,66fc98fbf6ba0ddc6b0f7656,2024-10-02_09h53.03.435,mdp,2024.2.1,Win32,12.01923077,66fa4ebf79326e780c390304,,,,,,,,,,,,,,,,,,,,,595.8532,595.8532,595.8539,596.6334,0,1,left,0.1906,,596.6346,597.4169,0,0,left,597.4179,598.1279,0,0,left,1,598.1279,598.1279,598.1288,599.5882,0,10,10,10,1,0.4,0.6,0.6,0.4,,,,,,,,,,,,,,,0.1777,,0.8,0.2,0.6,0.4,0.8,0.2,0.2,0.8,,,0.0947,,0.6,0.4,0.4,0.6,0.6,0.4,0.2,0.8,1,0
,,669a687aa4b63a61f8f5b07f,66fc98fbf6ba0ddc6b0f7656,2024-10-02_09h53.03.435,mdp,2024.2.1,Win32,12.01923077,66fa4ebf79326e780c390304,,,,,,,,,,,,,,,,,,,,,599.5886,599.5886,599.5894,600.4533,1,1,right,0.245,,600.454,601.2368,0,0,left,601.2374,601.9482,1,1,right,0,601.9483,601.9483,601.949,603.4573,0,11,11,11,1,0.4,0.6,0.6,0.4,,,,,,,,,,,,,,,0.1651,,0.6,0.4,0.8,0.2,0.8,0.2,0.2,0.8,,,0.0833,,0.6,0.4,0.4,0.6,0.6,0.4,0.2,0.8,1,0
,,669a687aa4b63a61f8f5b07f,66fc98fbf6ba0ddc6b0f7656,2024-10-02_09h53.03.435,mdp,2024.2.1,Win32,12.01923077,66fa4ebf79326e780c390304,,,,,,,,,,,,,,,,,,,,,603.4577,603.4577,603.4584,604.222,0,1,left,0.1572,,604.2225,605.0083,0,0,left,605.0092,605.7015,1,0,right,1,605.7015,605.7015,605.7021,607.2181,0,12,12,12,1,0.4,0.6,0.6,0.4,,,,,,,,,,,,,,,0.1705,,0.6,0.4,0.8,0.2,0.8,0.2,0.2,0.8,,,0.0797,,0.6,0.4,0.4,0.6,0.6,0.4,0.2,0.8,1,0
,,669a687aa4b63a61f8f5b07f,66fc98fbf6ba0ddc6b0f7656,2024-10-02_09h53.03.435,mdp,2024.2.1,Win32,12.01923077,66fa4ebf79326e780c390304,,,,,,,,,,,,,,,,,,,,,607.2184,607.2185,607.2193,608.09,1,1,right,0.243,,608.091,608.8581,1,1,right,608.859,609.6211,0,0,left,1,609.6211,609.6211,609.6217,611.1018,0,13,13,13,1,0.4,0.6,0.6,0.4,,,,,,,,,,,,,,,0.1674,,0.6,0.4,0.8,0.2,0.8,0.2,0.2,0.8,,,0.151,,0.6,0.4,0.4,0.6,0.8,0.2,0.6,0.4,1,0
,,669a687aa4b63a61f8f5b07f,66fc98fbf6ba0ddc6b0f7656,2024-10-02_09h53.03.435,mdp,2024.2.1,Win32,12.01923077,66fa4ebf79326e780c390304,,,,,,,,,,,,,,,,,,,,,611.1022,611.1022,611.1033,611.7453,1,1,right,0.0068,,611.7461,612.4573,1,1,right,612.458,613.1973,1,1,right,0,613.1974,613.1974,613.1979,614.6597,0,14,14,14,1,0.4,0.6,0.6,0.4,,,,,,,,,,,,,,,0.0908,,0.6,0.4,0.8,0.2,0.8,0.2,0.2,0.8,,,0.1658,,0.6,0.4,0.4,0.6,0.8,0.2,0.6,0.4,1,0
,,669a687aa4b63a61f8f5b07f,66fc98fbf6ba0ddc6b0f7656,2024-10-02_09h53.03.435,mdp,2024.2.1,Win32,12.01923077,66fa4ebf79326e780c390304,,,,,,,,,,,,,,,,,,,,,614.6601,614.6601,614.6606,615.5963,0,1,left,0.3111,,615.597,616.2692,1,1,right,616.2697,616.9566,0,0,left,1,616.9566,616.9566,616.9572,618.4064,0,15,15,15,1,0.4,0.6,0.6,0.4,,,,,,,,,,,,,,,0.0852,,0.6,0.4,0.8,0.2,0.8,0.2,0.2,0.8,,,0.0871,,0.6,0.4,0.4,0.6,0.8,0.2,0.6,0.4,1,0
,,669a687aa4b63a61f8f5b07f,66fc98fbf6ba0ddc6b0f7656,2024-10-02_09h53.03.435,mdp,2024.2.1,Win32,12.01923077,66fa4ebf79326e780c390304,,,,,,,,,,,,,,,,,,,,,618.4067,618.4067,618.4075,619.345,0,1,left,0.3097,,619.3457,620.1212,0,1,left,620.1219,620.8691,0,0,left,1,620.8691,620.8692,620.87,622.3551,0,16,16,16,1,0.4,0.6,0.6,0.4,,,,,,,,,,,,,,,0.1596,,0.6,0.4,0.8,0.2,0.8,0.2,0.2,0.8,,,0.1584,,0.6,0.4,0.4,0.6,0.8,0.2,0.6,0.4,1,0
,,669a687aa4b63a61f8f5b07f,66fc98fbf6ba0ddc6b0f7656,2024-10-02_09h53.03.435,mdp,2024.2.1,Win32,12.01923077,66fa4ebf79326e780c390304,,,,,,,,,,,,,,,,,,,,,622.3554,622.3554,622.3561,623.3356,1,0,right,0.3314,,623.3366,624.2014,1,1,right,624.202,624.9776,1,0,right,1,624.9776,624.9776,624.9783,626.4203,0,17,17,17,1,0.4,0.6,0.6,0.4,,,,,,,,,,,,,,,0.2278,,0.8,0.2,0.4,0.6,0.8,0.2,0.2,0.8,,,0.1685,,0.6,0.4,0.4,0.6,0.8,0.2,0.6,0.4,1,0
,,669a687aa4b63a61f8f5b07f,66fc98fbf6ba0ddc6b0f7656,2024-10-02_09h53.03.435,mdp,2024.2.1,Win32,12.01923077,66fa4ebf79326e780c390304,,,,,,,,,,,,,,,,,,,,,626.4206,626.4206,626.4214,627.485,0,0,left,0.4839,,627.4861,628.1668,1,1,right,628.1674,628.8946,0,0,left,1,628.8946,628.8946,628.8956,630.3605,0,18,18,18,1,0.4,0.6,0.6,0.4,,,,,,,,,,,,,,,0.0871,,0.8,0.2,0.4,0.6,0.8,0.2,0.2,0.8,,,0.0986,,0.6,0.4,0.4,0.6,0.8,0.2,0.6,0.4,1,0
,,669a687aa4b63a61f8f5b07f,66fc98fbf6ba0ddc6b0f7656,2024-10-02_09h53.03.435,mdp,2024.2.1,Win32,12.01923077,66fa4ebf79326e780c390304,,,,,,,,,,,,,,,,,,,,,630.3608,630.3608,630.3617,631.3641,0,0,left,0.3935,,631.3648,632.2649,0,1,left,632.2657,632.9625,1,0,right,1,632.9626,632.9626,632.9633,634.4172,0,19,19,19,1,0.4,0.6,0.6,0.4,,,,,,,,,,,,,,,0.3277,,0.8,0.2,0.4,0.6,0.8,0.2,0.2,0.8,,,0.0896,,0.6,0.4,0.4,0.6,0.8,0.2,0.6,0.4,1,0
,,669a687aa4b63a61f8f5b07f,66fc98fbf6ba0ddc6b0f7656,2024-10-02_09h53.03.435,mdp,2024.2.1,Win32,12.01923077,66fa4ebf79326e780c390304,,,,,,,,,,,,,,,,,,,,,634.4175,634.4175,634.4181,635.3468,1,0,right,0.3174,,635.3478,636.0572,1,1,right,636.0581,636.8793,0,0,left,1,636.8794,636.8794,636.8802,638.3613,0,20,20,20,1,0.4,0.6,0.6,0.4,,,,,,,,,,,,,,,0.0839,,0.8,0.2,0.4,0.6,0.8,0.2,0.2,0.8,,,0.2342,,0.6,0.4,0.4,0.6,0.8,0.2,0.6,0.4,1,0
,,669a687aa4b63a61f8f5b07f,66fc98fbf6ba0ddc6b0f7656,2024-10-02_09h53.03.435,mdp,2024.2.1,Win32,12.01923077,66fa4ebf79326e780c390304,,,,,,,,,,,,,,,,,,,,,638.3616,638.3616,638.3631,639.074,0,0,left,0.0854,,639.0747,639.9661,1,0,right,639.9671,640.7332,0,1,left,0,640.7333,640.7333,640.734,642.2198,0,21,21,21,1,0.6,0.4,0.4,0.6,,,,,,,,,,,,,,,0.2403,,0.8,0.2,0.4,0.6,0.8,0.2,0.2,0.8,,,0.165,,0.6,0.4,0.4,0.6,0.8,0.2,0.6,0.4,1,0
,,669a687aa4b63a61f8f5b07f,66fc98fbf6ba0ddc6b0f7656,2024-10-02_09h53.03.435,mdp,2024.2.1,Win32,12.01923077,66fa4ebf79326e780c390304,,,,,,,,,,,,,,,,,,,,,642.2201,642.2202,642.2209,642.8171,1,1,right,0.0064,,642.8177,643.6127,0,0,left,643.6135,644.4049,1,1,right,0,644.405,644.405,644.4059,645.9248,0,22,22,22,1,0.6,0.4,0.4,0.6,,,,,,,,,,,,,,,0.1805,,0.8,0.2,0.4,0.6,0.8,0.2,0.2,0.8,,,0.1623,,0.6,0.4,0.4,0.6,0.8,0.2,0.6,0.4,1,0
,,669a687aa4b63a61f8f5b07f,66fc98fbf6ba0ddc6b0f7656,2024-10-02_09h53.03.435,mdp,2024.2.1,Win32,12.01923077,66fa4ebf79326e780c390304,,,,,,,,,,,,,,,,,,,,,645.925,645.925,645.9259,646.5199,0,0,left,0.0061,,646.5207,647.3419,0,0,left,647.3425,648.1202,1,1,right,0,648.1203,648.1203,648.1208,649.6297,0,23,23,23,1,0.6,0.4,0.4,0.6,,,,,,,,,,,,,,,0.229,,0.8,0.2,0.4,0.6,0.8,0.2,0.2,0.8,,,0.1653,,0.6,0.4,0.4,0.6,0.8,0.2,0.6,0.4,1,0
,,669a687aa4b63a61f8f5b07f,66fc98fbf6ba0ddc6b0f7656,2024-10-02_09h53.03.435,mdp,2024.2.1,Win32,12.01923077,66fa4ebf79326e780c390304,,,,,,,,,,,,,,,,,,,,,649.63,649.6301,649.631,650.5907,0,0,left,0.3253,,650.5916,651.2751,0,1,left,651.2761,652.0477,0,1,left,0,652.0477,652.0477,652.0485,653.4864,0,24,24,24,1,0.6,0.4,0.4,0.6,,,,,,,,,,,,,,,0.0785,,0.2,0.8,0.2,0.8,0.8,0.2,0.2,0.8,,,0.1623,,0.6,0.4,0.4,0.6,0.8,0.2,0.6,0.4,1,0
,,669a687aa4b63a61f8f5b07f,66fc98fbf6ba0ddc6b0f7656,2024-10-02_09h53.03.435,mdp,2024.2.1,Win32,12.01923077,66fa4ebf79326e780c390304,,,,,,,,,,,,,,,,,,,,,653.4868,653.4868,653.4883,654.5845,1,1,right,0.4371,,654.5854,655.3451,1,1,right,655.3459,656.1195,1,0,right,1,656.1196,656.1196,656.1202,657.5966,0,25,25,25,1,0.6,0.4,0.4,0.6,,,,,,,,,,,,,,,0.1802,,0.2,0.8,0.2,0.8,0.8,0.2,0.2,0.8,,,0.1674,,0.6,0.4,0.4,0.6,0.6,0.4,0.8,0.2,1,0
,,669a687aa4b63a61f8f5b07f,66fc98fbf6ba0ddc6b0f7656,2024-10-02_09h53.03.435,mdp,2024.2.1,Win32,12.01923077,66fa4ebf79326e780c390304,,,,,,,,,,,,,,,,,,,,,657.597,657.597,657.5981,658.8748,0,0,left,0.6765,,658.8755,659.6206,1,1,right,659.6215,660.4269,0,0,left,1,660.427,660.427,660.4275,661.9342,0,26,26,26,1,0.6,0.4,0.4,0.6,,,,,,,,,,,,,,,0.094,,0.2,0.8,0.2,0.8,0.8,0.2,0.2,0.8,,,0.1605,,0.6,0.4,0.4,0.6,0.6,0.4,0.8,0.2,1,0
,,669a687aa4b63a61f8f5b07f,66fc98fbf6ba0ddc6b0f7656,2024-10-02_09h53.03.435,mdp,2024.2.1,Win32,12.01923077,66fa4ebf79326e780c390304,,,,,,,,,,,,,,,,,,,,,661.9344,661.9345,661.935,662.8391,1,0,right,0.3188,,662.8398,663.5261,0,1,left,663.5267,664.3663,1,0,right,1,664.3663,664.3663,664.367,665.8704,0,27,27,27,1,0.6,0.4,0.4,0.6,,,,,,,,,,,,,,,0.0827,,0.2,0.8,0.2,0.8,0.8,0.2,0.2,0.8,,,0.2453,,0.6,0.4,0.4,0.6,0.6,0.4,0.8,0.2,1,0
,,669a687aa4b63a61f8f5b07f,66fc98fbf6ba0ddc6b0f7656,2024-10-02_09h53.03.435,mdp,2024.2.1,Win32,12.01923077,66fa4ebf79326e780c390304,,,,,,,,,,,,,,,,,,,,,665.8706,665.8706,665.8713,666.7421,0,1,left,0.2517,,666.7429,667.6683,0,0,left,667.6691,668.4546,1,0,right,1,668.4547,668.4547,668.4555,669.9069,0,28,28,28,1,0.6,0.4,0.4,0.6,,,,,,,,,,,,,,,0.3137,,0.2,0.8,0.2,0.8,0.8,0.2,0.2,0.8,,,0.1638,,0.6,0.4,0.4,0.6,0.6,0.4,0.8,0.2,1,0
,,669a687aa4b63a61f8f5b07f,66fc98fbf6ba0ddc6b0f7656,2024-10-02_09h53.03.435,mdp,2024.2.1,Win32,12.01923077,66fa4ebf79326e780c390304,,,,,,,,,,,,,,,,,,,,,669.9071,669.9072,669.9081,670.6217,1,1,right,0.0901,,670.6223,671.2541,1,1,right,671.2549,672.1956,0,1,left,0,672.1956,672.1956,672.1963,673.6599,0,29,29,29,1,0.6,0.4,0.4,0.6,,,,,,,,,,,,,,,0.0068,,0.2,0.8,0.2,0.8,0.8,0.2,0.2,0.8,,,0.3015,,0.6,0.4,0.4,0.6,0.6,0.4,0.8,0.2,1,0
,,669a687aa4b63a61f8f5b07f,66fc98fbf6ba0ddc6b0f7656,2024-10-02_09h53.03.435,mdp,2024.2.1,Win32,12.01923077,66fa4ebf79326e780c390304,,,,,,,,,,,,,,,,,,,,,673.6602,673.6602,673.661,675.1247,0,0,left,0.8361,,675.1255,675.9944,0,1,left,675.995,676.9584,1,0,right,1,676.9585,676.9585,676.9592,678.4812,0,30,30,30,1,0.6,0.4,0.4,0.6,,,,,,,,,,,,,,,0.245,,0.2,0.8,0.2,0.8,0.8,0.2,0.2,0.8,,,0.3342,,0.6,0.4,0.4,0.6,0.6,0.4,0.8,0.2,1,0
,,669a687aa4b63a61f8f5b07f,66fc98fbf6ba0ddc6b0f7656,2024-10-02_09h53.03.435,mdp,2024.2.1,Win32,12.01923077,66fa4ebf79326e780c390304,,,,,,,,,,,,,,,,,,,,,678.4814,678.4814,678.4822,679.406,0,1,left,0.3186,,679.4066,680.2595,0,0,left,680.2601,681.1956,0,1,left,0,681.1956,681.1956,681.1963,682.7182,0,31,31,31,1,0.6,0.4,0.4,0.6,,,,,,,,,,,,,,,0.2561,,0.2,0.8,0.2,0.8,0.8,0.2,0.2,0.8,,,0.3213,,0.6,0.4,0.4,0.6,0.6,0.4,0.8,0.2,1,0
,,669a687aa4b63a61f8f5b07f,66fc98fbf6ba0ddc6b0f7656,2024-10-02_09h53.03.435,mdp,2024.2.1,Win32,12.01923077,66fa4ebf79326e780c390304,,,,,,,,,,,,,,,,,,,,,682.7185,682.7185,682.7195,684.1112,1,0,right,0.7843,,684.1121,685.0317,1,0,right,685.0323,685.9443,0,0,left,1,685.9444,685.9444,685.945,687.4003,0,32,32,32,1,0.6,0.4,0.4,0.6,,,,,,,,,,,,,,,0.3179,,0.2,0.8,0.2,0.8,0.8,0.2,0.2,0.8,,,0.3089,,0.6,0.4,0.4,0.6,0.6,0.4,0.8,0.2,1,0
,,669a687aa4b63a61f8f5b07f,66fc98fbf6ba0ddc6b0f7656,2024-10-02_09h53.03.435,mdp,2024.2.1,Win32,12.01923077,66fa4ebf79326e780c390304,,,,,,,,,,,,,,,,,,,,,687.4006,687.4006,687.4014,688.6827,0,0,left,0.6697,,688.6835,689.544,0,1,left,689.5449,690.4606,1,1,right,0,690.4607,690.4607,690.4612,691.9505,0,33,33,33,1,0.6,0.4,0.4,0.6,,,,,,,,,,,,,,,0.2321,,0.2,0.8,0.2,0.8,0.8,0.2,0.2,0.8,,,0.3192,,0.6,0.4,0.4,0.6,0.6,0.4,0.8,0.2,1,0
,,669a687aa4b63a61f8f5b07f,66fc98fbf6ba0ddc6b0f7656,2024-10-02_09h53.03.435,mdp,2024.2.1,Win32,12.01923077,66fa4ebf79326e780c390304,,,,,,,,,,,,,,,,,,,,,691.9508,691.9509,691.9515,692.7522,0,0,left,0.1718,,692.753,693.6076,1,1,right,693.6085,694.37,0,1,left,0,694.37,694.37,694.3708,695.8296,0,34,34,34,1,0.6,0.4,0.4,0.6,,,,,,,,,,,,,,,0.2458,,0.2,0.8,0.2,0.8,0.8,0.2,0.2,0.8,,,0.149,,0.6,0.4,0.4,0.6,0.6,0.4,0.8,0.2,1,0
,,669a687aa4b63a61f8f5b07f,66fc98fbf6ba0ddc6b0f7656,2024-10-02_09h53.03.435,mdp,2024.2.1,Win32,12.01923077,66fa4ebf79326e780c390304,,,,,,,,,,,,,,,,,,,,,695.8299,695.8299,695.8307,697.0132,0,1,left,0.5599,,697.0138,697.8919,0,0,left,697.8926,698.795,0,0,left,1,698.7951,698.7951,698.7958,700.2405,0,35,35,35,1,0.6,0.4,0.4,0.6,,,,,,,,,,,,,,,0.2478,,0.2,0.8,0.2,0.8,0.8,0.2,0.2,0.8,,,0.3211,,0.6,0.4,0.4,0.6,0.6,0.4,0.8,0.2,1,0
,,669a687aa4b63a61f8f5b07f,66fc98fbf6ba0ddc6b0f7656,2024-10-02_09h53.03.435,mdp,2024.2.1,Win32,12.01923077,66fa4ebf79326e780c390304,,,,,,,,,,,,,,,,,,,,,700.241,700.241,700.2421,700.9998,1,0,right,0.1671,,701.0011,701.9294,1,1,right,701.9302,702.9025,1,0,right,1,702.9026,702.9026,702.9033,704.3986,0,36,36,36,1,0.6,0.4,0.4,0.6,,,,,,,,,,,,,,,0.3161,,0.6,0.4,0.4,0.6,0.8,0.2,0.2,0.8,,,0.3292,,0.6,0.4,0.4,0.6,0.6,0.4,0.8,0.2,1,0
,,669a687aa4b63a61f8f5b07f,66fc98fbf6ba0ddc6b0f7656,2024-10-02_09h53.03.435,mdp,2024.2.1,Win32,12.01923077,66fa4ebf79326e780c390304,,,,,,,,,,,,,,,,,,,,,704.3989,704.3989,704.3995,705.6271,1,1,right,0.6207,,705.6279,706.4765,0,0,left,706.4773,707.3255,1,0,right,1,707.3255,707.3255,707.3265,708.8005,0,37,37,37,1,0.6,0.4,0.4,0.6,,,,,,,,,,,,,,,0.2316,,0.6,0.4,0.4,0.6,0.8,0.2,0.2,0.8,,,0.2524,,0.6,0.4,0.4,0.6,0.6,0.4,0.8,0.2,1,0
,,669a687aa4b63a61f8f5b07f,66fc98fbf6ba0ddc6b0f7656,2024-10-02_09h53.03.435,mdp,2024.2.1,Win32,12.01923077,66fa4ebf79326e780c390304,,,,,,,,,,,,,,,,,,,,,708.8008,708.8008,708.8015,709.7599,0,0,left,0.3184,,709.7607,710.7692,1,0,right,710.7697,711.7045,0,1,left,0,711.7045,711.7045,711.7051,713.2273,0,38,38,38,1,0.6,0.4,0.4,0.6,,,,,,,,,,,,,,,0.3859,,0.6,0.4,0.4,0.6,0.8,0.2,0.2,0.8,,,0.3153,,0.6,0.4,0.4,0.6,0.6,0.4,0.8,0.2,1,0
,,669a687aa4b63a61f8f5b07f,66fc98fbf6ba0ddc6b0f7656,2024-10-02_09h53.03.435,mdp,2024.2.1,Win32,12.01923077,66fa4ebf79326e780c390304,,,,,,,,,,,,,,,,,,,,,713.2276,713.2276,713.2285,714.2495,1,0,right,0.4397,,714.2502,715.0807,1,1,right,715.0818,716.0567,1,0,right,1,716.0567,716.0567,716.0575,717.5267,0,39,39,39,1,0.6,0.4,0.4,0.6,,,,,,,,,,,,,,,0.2518,,0.6,0.4,0.4,0.6,0.8,0.2,0.2,0.8,,,0.3321,,0.6,0.4,0.4,0.6,0.6,0.4,0.8,0.2,1,0
,,669a687aa4b63a61f8f5b07f,66fc98fbf6ba0ddc6b0f7656,2024-10-02_09h53.03.435,mdp,2024.2.1,Win32,12.01923077,66fa4ebf79326e780c390304,,,,,,,,,,,,,,,,,,,,,717.527,717.527,717.5278,719.1199,0,0,left,1.0005,,719.1208,719.969,0,1,left,719.9704,720.9342,0,0,left,1,720.9343,720.9343,720.9353,722.4501,0,40,40,40,1,0.6,0.4,0.4,0.6,,,,,,,,,,,,,,,0.194,,0.6,0.4,0.4,0.6,0.8,0.2,0.2,0.8,,,0.3632,,0.6,0.4,0.4,0.6,0.6,0.4,0.8,0.2,1,0
,,669a687aa4b63a61f8f5b07f,66fc98fbf6ba0ddc6b0f7656,2024-10-02_09h53.03.435,mdp,2024.2.1,Win32,12.01923077,66fa4ebf79326e780c390304,,,,,,,,,,,,,,,,,,,,,722.4504,722.4504,722.451,724.7601,0,0,left,1.7244,,724.7622,725.7177,1,1,right,725.7186,726.6897,0,0,left,1,726.6897,726.6897,726.6903,728.1529,0,41,41,41,1,0.6,0.4,0.4,0.6,,,,,,,,,,,,,,,0.3236,,0.6,0.4,0.4,0.6,0.8,0.2,0.2,0.8,,,0.3272,,0.6,0.4,0.4,0.6,0.6,0.4,0.8,0.2,1,0
,,669a687aa4b63a61f8f5b07f,66fc98fbf6ba0ddc6b0f7656,2024-10-02_09h53.03.435,mdp,2024.2.1,Win32,12.01923077,66fa4ebf79326e780c390304,,,,,,,,,,,,,,,,,,,,,728.1534,728.1534,728.1544,729.3919,1,0,right,0.6496,,729.3925,730.3758,0,0,left,730.3766,731.351,0,0,left,1,731.351,731.351,731.3516,732.8394,0,42,42,42,1,0.6,0.4,0.4,0.6,,,,,,,,,,,,,,,0.3491,,0.6,0.4,0.4,0.6,0.8,0.2,0.2,0.8,,,0.3313,,0.6,0.4,0.4,0.6,0.6,0.4,0.8,0.2,1,0
,,669a687aa4b63a61f8f5b07f,66fc98fbf6ba0ddc6b0f7656,2024-10-02_09h53.03.435,mdp,2024.2.1,Win32,12.01923077,66fa4ebf79326e780c390304,,,,,,,,,,,,,,,,,,,,,732.8397,732.8397,732.8402,733.9245,0,0,left,0.4579,,733.9254,734.8671,1,0,right,734.8679,735.8159,1,0,right,1,735.816,735.816,735.8169,737.3337,0,43,43,43,1,0.6,0.4,0.4,0.6,,,,,,,,,,,,,,,0.3237,,0.2,0.8,0.6,0.4,0.8,0.2,0.2,0.8,,,0.3298,,0.6,0.4,0.4,0.6,0.6,0.4,0.8,0.2,1,0
,,669a687aa4b63a61f8f5b07f,66fc98fbf6ba0ddc6b0f7656,2024-10-02_09h53.03.435,mdp,2024.2.1,Win32,12.01923077,66fa4ebf79326e780c390304,,,,,,,,,,,,,,,,,,,,,737.3342,737.3342,737.3351,738.3382,0,0,left,0.4057,,738.3394,739.182,0,1,left,739.1828,740.1018,0,0,left,1,740.1019,740.1019,740.1025,741.5539,0,44,44,44,1,0.6,0.4,0.4,0.6,,,,,,,,,,,,,,,0.2392,,0.2,0.8,0.6,0.4,0.8,0.2,0.2,0.8,,,0.3119,,0.6,0.4,0.4,0.6,0.6,0.4,0.8,0.2,1,0
,,669a687aa4b63a61f8f5b07f,66fc98fbf6ba0ddc6b0f7656,2024-10-02_09h53.03.435,mdp,2024.2.1,Win32,12.01923077,66fa4ebf79326e780c390304,,,,,,,,,,,,,,,,,,,,,741.5541,741.5541,741.5547,742.5225,1,1,right,0.3302,,742.5234,743.4576,1,1,right,743.4584,744.3468,1,0,right,1,744.3468,744.3468,744.3476,745.8305,0,45,45,45,1,0.6,0.4,0.4,0.6,,,,,,,,,,,,,,,0.3279,,0.2,0.8,0.6,0.4,0.8,0.2,0.2,0.8,,,0.3131,,0.6,0.4,0.4,0.6,0.6,0.4,0.8,0.2,1,0
,,669a687aa4b63a61f8f5b07f,66fc98fbf6ba0ddc6b0f7656,2024-10-02_09h53.03.435,mdp,2024.2.1,Win32,12.01923077,66fa4ebf79326e780c390304,,,,,,,,,,,,,,,,,,,,,745.8307,745.8307,745.8314,746.8607,0,0,left,0.4177,,746.8616,747.7523,1,1,right,747.7529,748.689,0,0,left,1,748.6891,748.6891,748.6898,750.1554,0,46,46,46,1,0.6,0.4,0.4,0.6,,,,,,,,,,,,,,,0.2572,,0.2,0.8,0.6,0.4,0.8,0.2,0.2,0.8,,,0.3157,,0.6,0.4,0.4,0.6,0.6,0.4,0.8,0.2,1,0
,,669a687aa4b63a61f8f5b07f,66fc98fbf6ba0ddc6b0f7656,2024-10-02_09h53.03.435,mdp,2024.2.1,Win32,12.01923077,66fa4ebf79326e780c390304,,,,,,,,,,,,,,,,,,,,,750.1557,750.1557,750.1564,751.317,1,1,right,0.5391,,751.3176,752.218,0,0,left,752.2186,753.0204,1,1,right,0,753.0205,753.0205,753.0216,754.491,0,47,47,47,1,0.6,0.4,0.4,0.6,,,,,,,,,,,,,,,0.2563,,0.2,0.8,0.6,0.4,0.8,0.2,0.2,0.8,,,0.1787,,0.6,0.4,0.4,0.6,0.6,0.4,0.8,0.2,1,0
,,669a687aa4b63a61f8f5b07f,66fc98fbf6ba0ddc6b0f7656,2024-10-02_09h53.03.435,mdp,2024.2.1,Win32,12.01923077,66fa4ebf79326e780c390304,,,,,,,,,,,,,,,,,,,,,754.4914,754.4914,754.4924,755.5623,0,0,left,0.4845,,755.5634,756.4683,0,1,left,756.469,757.441,1,0,right,1,757.4411,757.4411,757.4417,758.9383,0,48,48,48,1,0.6,0.4,0.4,0.6,,,,,,,,,,,,,,,0.3079,,0.2,0.8,0.6,0.4,0.8,0.2,0.2,0.8,,,0.3144,,0.6,0.4,0.4,0.6,0.6,0.4,0.8,0.2,1,0
,,669a687aa4b63a61f8f5b07f,66fc98fbf6ba0ddc6b0f7656,2024-10-02_09h53.03.435,mdp,2024.2.1,Win32,12.01923077,66fa4ebf79326e780c390304,,,,,,,,,,,,,,,,,,,,,758.9386,758.9386,758.9394,760.1702,0,0,left,0.5954,,760.1711,761.0949,0,1,left,761.0957,762.0138,0,0,left,1,762.0139,762.0139,762.0147,763.4989,0,49,49,49,1,0.6,0.4,0.4,0.6,,,,,,,,,,,,,,,0.3094,,0.2,0.8,0.6,0.4,0.8,0.2,0.2,0.8,,,0.3216,,0.6,0.4,0.4,0.6,0.6,0.4,0.8,0.2,1,0
,,669a687aa4b63a61f8f5b07f,66fc98fbf6ba0ddc6b0f7656,2024-10-02_09h53.03.435,mdp,2024.2.1,Win32,12.01923077,66fa4ebf79326e780c390304,,,,,,,,,,,,,,,,,,,,,,,,,,,,,,,,,,,,,,,,,,,,,,,,,,,,,,,,763.499,822.0925,0,2,2,4,1,imgs/cat.png,imgs/giraffe.png,imgs/lion.png,imgs/rabbit.png,imgs/kangaroo.png,,,,,,,,,,,,,,,,,,,,,,,,
,,669a687aa4b63a61f8f5b07f,66fc98fbf6ba0ddc6b0f7656,2024-10-02_09h53.03.435,mdp,2024.2.1,Win32,12.01923077,66fa4ebf79326e780c390304,,,,,,,,,,,,,,3,seqs/st3seq42.csv,822.0931,825.2427,space,2.5391,,825.247,825.247,825.2476,827.6752,0,0,left,1.8152,,827.6759,828.4756,1,0,right,828.4763,829.4465,0,0,left,1,829.4465,829.4465,829.4474,830.9313,0,0,0,0,1,0.8,0.2,0.8,0.2,,,,,,,,,,,,,,,0.1711,,0.2,0.8,0.8,0.2,0.8,0.2,0.4,0.6,,,0.3364,,0.6,0.4,0.4,0.6,0.4,0.6,0.4,0.6,1,0
,,669a687aa4b63a61f8f5b07f,66fc98fbf6ba0ddc6b0f7656,2024-10-02_09h53.03.435,mdp,2024.2.1,Win32,12.01923077,66fa4ebf79326e780c390304,,,,,,,,,,,,,,,,,,,,,830.9316,830.9316,830.9325,831.7725,0,0,left,0.2485,,831.7733,832.5416,1,0,right,832.5423,833.4377,0,0,left,1,833.4378,833.4378,833.4384,834.9363,0,1,1,1,1,0.8,0.2,0.8,0.2,,,,,,,,,,,,,,,0.1533,,0.2,0.8,0.8,0.2,0.8,0.2,0.4,0.6,,,0.2755,,0.6,0.4,0.4,0.6,0.4,0.6,0.4,0.6,1,0
,,669a687aa4b63a61f8f5b07f,66fc98fbf6ba0ddc6b0f7656,2024-10-02_09h53.03.435,mdp,2024.2.1,Win32,12.01923077,66fa4ebf79326e780c390304,,,,,,,,,,,,,,,,,,,,,834.9367,834.9367,834.9374,835.7071,0,0,left,0.1793,9.99999E-05,835.7082,836.619,0,1,left,836.6197,837.4211,1,1,right,0,837.4212,837.4212,837.4219,838.9224,0,2,2,2,1,0.8,0.2,0.8,0.2,,,,,,,,,,,,,,,0.2574,,0.2,0.8,0.8,0.2,0.8,0.2,0.4,0.6,,,0.188,,0.6,0.4,0.4,0.6,0.4,0.6,0.4,0.6,1,0
,,669a687aa4b63a61f8f5b07f,66fc98fbf6ba0ddc6b0f7656,2024-10-02_09h53.03.435,mdp,2024.2.1,Win32,12.01923077,66fa4ebf79326e780c390304,,,,,,,,,,,,,,,,,,,,,838.9227,838.9227,838.9235,839.9281,1,0,right,0.4191,,839.9287,840.8899,1,0,right,840.8904,841.7961,0,0,left,1,841.7961,841.7961,841.7969,843.2549,0,3,3,3,1,0.8,0.2,0.8,0.2,,,,,,,,,,,,,,,0.3264,,0.2,0.8,0.8,0.2,0.4,0.6,0.2,0.8,,,0.3064,,0.6,0.4,0.4,0.6,0.4,0.6,0.4,0.6,1,0
,,669a687aa4b63a61f8f5b07f,66fc98fbf6ba0ddc6b0f7656,2024-10-02_09h53.03.435,mdp,2024.2.1,Win32,12.01923077,66fa4ebf79326e780c390304,,,,,,,,,,,,,,,,,,,,,843.2553,843.2553,843.2557,844.5698,0,0,left,0.7255,,844.5705,845.4394,0,1,left,845.4402,846.2335,1,0,right,1,846.2336,846.2336,846.2342,847.6991,0,4,4,4,1,0.8,0.2,0.8,0.2,,,,,,,,,,,,,,,0.253,,0.2,0.8,0.8,0.2,0.4,0.6,0.2,0.8,,,0.1576,,0.6,0.4,0.4,0.6,0.4,0.6,0.4,0.6,1,0
,,669a687aa4b63a61f8f5b07f,66fc98fbf6ba0ddc6b0f7656,2024-10-02_09h53.03.435,mdp,2024.2.1,Win32,12.01923077,66fa4ebf79326e780c390304,,,,,,,,,,,,,,,,,,,,,847.6994,847.6994,847.7,848.6223,1,0,right,0.31,,848.623,849.535,1,0,right,849.5356,850.4025,0,0,left,1,850.4026,850.4026,850.4038,851.8534,0,5,5,5,1,0.6,0.4,0.4,0.6,,,,,,,,,,,,,,,0.3267,,0.2,0.8,0.8,0.2,0.4,0.6,0.2,0.8,,,0.2535,,0.6,0.4,0.4,0.6,0.4,0.6,0.4,0.6,1,0
,,669a687aa4b63a61f8f5b07f,66fc98fbf6ba0ddc6b0f7656,2024-10-02_09h53.03.435,mdp,2024.2.1,Win32,12.01923077,66fa4ebf79326e780c390304,,,,,,,,,,,,,,,,,,,,,851.8536,851.8537,851.8544,853.071,1,1,right,0.6322,,853.0719,853.8353,0,1,left,853.8359,854.749,1,1,right,0,854.749,854.749,854.7498,856.2274,0,6,6,6,1,0.6,0.4,0.4,0.6,,,,,,,,,,,,,,,0.1549,,0.2,0.8,0.8,0.2,0.4,0.6,0.2,0.8,,,0.3073,,0.6,0.4,0.4,0.6,0.4,0.6,0.4,0.6,1,0
,,669a687aa4b63a61f8f5b07f,66fc98fbf6ba0ddc6b0f7656,2024-10-02_09h53.03.435,mdp,2024.2.1,Win32,12.01923077,66fa4ebf79326e780c390304,,,,,,,,,,,,,,,,,,,,,856.2277,856.2277,856.2285,857.4969,0,1,left,0.6268,,857.498,858.3367,1,1,right,858.3372,859.2103,0,0,left,1,859.2104,859.2104,859.2111,860.6915,0,7,7,7,1,0.6,0.4,0.4,0.6,,,,,,,,,,,,,,,0.2241,,0.2,0.8,0.8,0.2,0.4,0.6,0.2,0.8,,,0.2613,,0.6,0.4,0.4,0.6,0.4,0.6,0.4,0.6,1,0
,,669a687aa4b63a61f8f5b07f,66fc98fbf6ba0ddc6b0f7656,2024-10-02_09h53.03.435,mdp,2024.2.1,Win32,12.01923077,66fa4ebf79326e780c390304,,,,,,,,,,,,,,,,,,,,,860.6918,860.6918,860.6923,862.2725,0,1,left,0.9637,,862.2731,863.0532,0,1,left,863.0538,863.9899,0,1,left,0,863.99,863.99,863.9907,865.4941,0,8,8,8,1,0.6,0.4,0.4,0.6,,,,,,,,,,,,,,,0.1655,,0.2,0.8,0.8,0.2,0.4,0.6,0.2,0.8,,,0.3277,,0.4,0.6,0.6,0.4,0.4,0.6,0.4,0.6,1,0
,,669a687aa4b63a61f8f5b07f,66fc98fbf6ba0ddc6b0f7656,2024-10-02_09h53.03.435,mdp,2024.2.1,Win32,12.01923077,66fa4ebf79326e780c390304,,,,,,,,,,,,,,,,,,,,,865.4945,865.4945,865.4951,867.0576,0,0,left,0.9223,,867.0582,867.9334,0,1,left,867.9341,868.8465,1,1,right,0,868.8465,868.8465,868.8473,870.2858,0,9,9,9,1,0.6,0.4,0.4,0.6,,,,,,,,,,,,,,,0.2462,,0.2,0.8,0.8,0.2,0.4,0.6,0.2,0.8,,,0.3308,,0.4,0.6,0.6,0.4,0.4,0.6,0.4,0.6,1,0
,,669a687aa4b63a61f8f5b07f,66fc98fbf6ba0ddc6b0f7656,2024-10-02_09h53.03.435,mdp,2024.2.1,Win32,12.01923077,66fa4ebf79326e780c390304,,,,,,,,,,,,,,,,,,,,,870.2864,870.2864,870.2872,871.5466,0,1,left,0.6666,,871.5475,872.502,1,1,right,872.5026,873.3752,0,1,left,0,873.3752,873.3752,873.3758,874.8281,0,10,10,10,1,0.6,0.4,0.4,0.6,,,,,,,,,,,,,,,0.3219,,0.2,0.8,0.8,0.2,0.4,0.6,0.2,0.8,,,0.3006,,0.4,0.6,0.6,0.4,0.4,0.6,0.4,0.6,1,0
,,669a687aa4b63a61f8f5b07f,66fc98fbf6ba0ddc6b0f7656,2024-10-02_09h53.03.435,mdp,2024.2.1,Win32,12.01923077,66fa4ebf79326e780c390304,,,,,,,,,,,,,,,,,,,,,874.8284,874.8284,874.8289,875.6859,1,1,right,0.2471,,875.6871,876.6453,0,1,left,876.6464,877.4505,1,0,right,1,877.4506,877.4506,877.4515,878.9514,0,11,11,11,1,0.6,0.4,0.4,0.6,,,,,,,,,,,,,,,0.3437,,0.2,0.8,0.8,0.2,0.4,0.6,0.2,0.8,,,0.163,,0.4,0.6,0.6,0.4,0.4,0.6,0.4,0.6,1,0
,,669a687aa4b63a61f8f5b07f,66fc98fbf6ba0ddc6b0f7656,2024-10-02_09h53.03.435,mdp,2024.2.1,Win32,12.01923077,66fa4ebf79326e780c390304,,,,,,,,,,,,,,,,,,,,,878.9518,878.9518,878.9525,880.3708,1,0,right,0.8247,,880.3716,881.3229,1,0,right,881.3239,882.2809,1,0,right,1,882.2809,882.2809,882.2816,883.7636,0,12,12,12,1,0.6,0.4,0.4,0.6,,,,,,,,,,,,,,,0.3171,,0.2,0.8,0.8,0.2,0.4,0.6,0.2,0.8,,,0.3211,,0.4,0.6,0.6,0.4,0.4,0.6,0.4,0.6,1,0
,,669a687aa4b63a61f8f5b07f,66fc98fbf6ba0ddc6b0f7656,2024-10-02_09h53.03.435,mdp,2024.2.1,Win32,12.01923077,66fa4ebf79326e780c390304,,,,,,,,,,,,,,,,,,,,,883.764,883.764,883.7649,884.9017,0,1,left,0.5579,,884.9025,885.9135,0,0,left,885.9141,886.8439,0,0,left,1,886.844,886.844,886.8446,888.2868,0,13,13,13,1,0.6,0.4,0.4,0.6,,,,,,,,,,,,,,,0.395,,0.2,0.8,0.8,0.2,0.4,0.6,0.2,0.8,,,0.3192,,0.4,0.6,0.6,0.4,0.4,0.6,0.4,0.6,1,0
,,669a687aa4b63a61f8f5b07f,66fc98fbf6ba0ddc6b0f7656,2024-10-02_09h53.03.435,mdp,2024.2.1,Win32,12.01923077,66fa4ebf79326e780c390304,,,,,,,,,,,,,,,,,,,,,888.2871,888.2871,888.2878,889.8508,0,0,left,0.9328,,889.8516,890.5704,1,1,right,890.5712,891.5675,0,1,left,0,891.5675,891.5675,891.5688,893.0394,0,14,14,14,1,0.6,0.4,0.4,0.6,,,,,,,,,,,,,,,0.0863,,0.2,0.8,0.8,0.2,0.4,0.6,0.2,0.8,,,0.3447,,0.4,0.6,0.6,0.4,0.4,0.6,0.4,0.6,1,0
,,669a687aa4b63a61f8f5b07f,66fc98fbf6ba0ddc6b0f7656,2024-10-02_09h53.03.435,mdp,2024.2.1,Win32,12.01923077,66fa4ebf79326e780c390304,,,,,,,,,,,,,,,,,,,,,893.0398,893.0398,893.0404,894.069,0,1,left,0.4397,,894.0697,895.0492,0,1,left,895.05,896.0427,1,0,right,1,896.0427,896.0427,896.0436,897.5222,0,15,15,15,1,0.6,0.4,0.4,0.6,,,,,,,,,,,,,,,0.3422,,0.2,0.8,0.8,0.2,0.4,0.6,0.2,0.8,,,0.3472,,0.4,0.6,0.6,0.4,0.4,0.6,0.4,0.6,1,0
,,669a687aa4b63a61f8f5b07f,66fc98fbf6ba0ddc6b0f7656,2024-10-02_09h53.03.435,mdp,2024.2.1,Win32,12.01923077,66fa4ebf79326e780c390304,,,,,,,,,,,,,,,,,,,,,897.5225,897.5225,897.5233,898.5811,1,1,right,0.441,,898.5819,899.4193,0,1,left,899.4201,900.219,1,0,right,1,900.219,900.219,900.2196,901.6616,0,16,16,16,1,0.6,0.4,0.4,0.6,,,,,,,,,,,,,,,0.1787,,0.2,0.8,0.8,0.2,0.4,0.6,0.2,0.8,,,0.2276,,0.4,0.6,0.6,0.4,0.4,0.6,0.4,0.6,1,0
,,669a687aa4b63a61f8f5b07f,66fc98fbf6ba0ddc6b0f7656,2024-10-02_09h53.03.435,mdp,2024.2.1,Win32,12.01923077,66fa4ebf79326e780c390304,,,,,,,,,,,,,,,,,,,,,901.6619,901.6619,901.6626,902.8128,1,0,right,0.5307,,902.8135,903.679,1,0,right,903.6798,904.5877,0,1,left,0,904.5877,904.5877,904.5886,906.047,0,17,17,17,1,0.6,0.4,0.4,0.6,,,,,,,,,,,,,,,0.2521,,0.2,0.8,0.8,0.2,0.4,0.6,0.2,0.8,,,0.2619,,0.4,0.6,0.6,0.4,0.4,0.6,0.4,0.6,1,0
,,669a687aa4b63a61f8f5b07f,66fc98fbf6ba0ddc6b0f7656,2024-10-02_09h53.03.435,mdp,2024.2.1,Win32,12.01923077,66fa4ebf79326e780c390304,,,,,,,,,,,,,,,,,,,,,906.0473,906.0474,906.0482,906.6476,1,1,right,0.0067,,906.6485,907.5875,0,1,left,907.5881,908.4502,1,1,right,0,908.4503,908.4503,908.4511,909.9629,0,18,18,18,1,0.6,0.4,0.4,0.6,,,,,,,,,,,,,,,0.3112,,0.2,0.8,0.8,0.2,0.4,0.6,0.2,0.8,,,0.2448,,0.4,0.6,0.6,0.4,0.4,0.6,0.4,0.6,1,0
,,669a687aa4b63a61f8f5b07f,66fc98fbf6ba0ddc6b0f7656,2024-10-02_09h53.03.435,mdp,2024.2.1,Win32,12.01923077,66fa4ebf79326e780c390304,,,,,,,,,,,,,,,,,,,,,909.9633,909.9633,909.9643,911.3013,0,0,left,0.7044,,911.302,912.1492,1,0,right,912.15,913.0796,0,1,left,0,913.0796,913.0796,913.0802,914.5743,0,19,19,19,1,0.6,0.4,0.4,0.6,,,,,,,,,,,,,,,0.2587,,0.2,0.8,0.8,0.2,0.4,0.6,0.2,0.8,,,0.3287,,0.4,0.6,0.6,0.4,0.4,0.6,0.4,0.6,1,0
,,669a687aa4b63a61f8f5b07f,66fc98fbf6ba0ddc6b0f7656,2024-10-02_09h53.03.435,mdp,2024.2.1,Win32,12.01923077,66fa4ebf79326e780c390304,,,,,,,,,,,,,,,,,,,,,914.5746,914.5746,914.5758,915.7745,0,0,left,0.567,,915.7755,916.7191,0,1,left,916.7199,917.6373,1,1,right,0,917.6373,917.6373,917.638,919.1127,0,20,20,20,1,0.6,0.4,0.4,0.6,,,,,,,,,,,,,,,0.3149,,0.2,0.8,0.8,0.2,0.4,0.6,0.2,0.8,,,0.3084,,0.4,0.6,0.6,0.4,0.4,0.6,0.4,0.6,1,0
,,669a687aa4b63a61f8f5b07f,66fc98fbf6ba0ddc6b0f7656,2024-10-02_09h53.03.435,mdp,2024.2.1,Win32,12.01923077,66fa4ebf79326e780c390304,,,,,,,,,,,,,,,,,,,,,919.113,919.113,919.1141,920.6014,0,0,left,0.8868,,920.6025,921.4098,0,1,left,921.4107,922.4043,0,1,left,0,922.4043,922.4043,922.4049,923.8845,0,21,21,21,1,0.6,0.4,0.4,0.6,,,,,,,,,,,,,,,0.1643,,0.2,0.8,0.8,0.2,0.4,0.6,0.2,0.8,,,0.3908,,0.4,0.6,0.6,0.4,0.4,0.6,0.4,0.6,1,0
,,669a687aa4b63a61f8f5b07f,66fc98fbf6ba0ddc6b0f7656,2024-10-02_09h53.03.435,mdp,2024.2.1,Win32,12.01923077,66fa4ebf79326e780c390304,,,,,,,,,,,,,,,,,,,,,923.8848,923.8848,923.8855,924.9609,0,0,left,0.4653,,924.9615,925.9283,1,0,right,925.9292,926.8922,0,0,left,1,926.8923,926.8923,926.8933,928.3589,0,22,22,22,1,0.6,0.4,0.4,0.6,,,,,,,,,,,,,,,0.3335,,0.2,0.8,0.8,0.2,0.4,0.6,0.2,0.8,,,0.3352,,0.4,0.6,0.6,0.4,0.4,0.6,0.4,0.6,1,0
,,669a687aa4b63a61f8f5b07f,66fc98fbf6ba0ddc6b0f7656,2024-10-02_09h53.03.435,mdp,2024.2.1,Win32,12.01923077,66fa4ebf79326e780c390304,,,,,,,,,,,,,,,,,,,,,928.3592,928.3592,928.3601,929.3572,1,1,right,0.4125,,929.3582,930.3703,0,1,left,930.3711,931.189,1,1,right,0,931.189,931.189,931.1896,932.6412,0,23,23,23,1,0.6,0.4,0.4,0.6,,,,,,,,,,,,,,,0.3932,,0.2,0.8,0.8,0.2,0.4,0.6,0.2,0.8,,,0.1689,,0.4,0.6,0.6,0.4,0.4,0.6,0.4,0.6,1,0
,,669a687aa4b63a61f8f5b07f,66fc98fbf6ba0ddc6b0f7656,2024-10-02_09h53.03.435,mdp,2024.2.1,Win32,12.01923077,66fa4ebf79326e780c390304,,,,,,,,,,,,,,,,,,,,,932.6415,932.6415,932.6423,933.7432,1,0,right,0.4602,,933.7439,934.6742,1,0,right,934.6749,935.5811,0,1,left,0,935.5811,935.5811,935.5822,937.0317,0,24,24,24,1,0.6,0.4,0.4,0.6,,,,,,,,,,,,,,,0.3163,,0.2,0.8,0.8,0.2,0.4,0.6,0.2,0.8,,,0.318,,0.4,0.6,0.6,0.4,0.4,0.6,0.4,0.6,1,0
,,669a687aa4b63a61f8f5b07f,66fc98fbf6ba0ddc6b0f7656,2024-10-02_09h53.03.435,mdp,2024.2.1,Win32,12.01923077,66fa4ebf79326e780c390304,,,,,,,,,,,,,,,,,,,,,937.0319,937.0319,937.0326,937.8864,0,1,left,0.2385,,937.8871,938.7631,1,1,right,938.7638,939.7151,0,1,left,0,939.7152,939.7152,939.716,941.2304,0,25,25,25,1,0.6,0.4,0.4,0.6,,,,,,,,,,,,,,,0.2373,,0.2,0.8,0.8,0.2,0.4,0.6,0.2,0.8,,,0.3024,,0.4,0.6,0.6,0.4,0.4,0.6,0.4,0.6,1,0
,,669a687aa4b63a61f8f5b07f,66fc98fbf6ba0ddc6b0f7656,2024-10-02_09h53.03.435,mdp,2024.2.1,Win32,12.01923077,66fa4ebf79326e780c390304,,,,,,,,,,,,,,,,,,,,,941.2309,941.2309,941.2318,942.292,0,1,left,0.4059,,942.2927,943.0827,0,1,left,943.0835,943.9467,1,1,right,0,943.9469,943.9469,943.9478,945.3793,0,26,26,26,1,0.6,0.4,0.4,0.6,,,,,,,,,,,,,,,0.1693,,0.2,0.8,0.8,0.2,0.4,0.6,0.2,0.8,,,0.2484,,0.4,0.6,0.6,0.4,0.4,0.6,0.4,0.6,1,0
,,669a687aa4b63a61f8f5b07f,66fc98fbf6ba0ddc6b0f7656,2024-10-02_09h53.03.435,mdp,2024.2.1,Win32,12.01923077,66fa4ebf79326e780c390304,,,,,,,,,,,,,,,,,,,,,945.3796,945.3796,945.3807,946.5297,1,0,right,0.5453,,946.5305,947.3368,1,1,right,947.3377,948.2465,0,1,left,0,948.2466,948.2466,948.2473,949.7241,0,27,27,27,1,0.6,0.4,0.4,0.6,,,,,,,,,,,,,,,0.1905,,0.2,0.8,0.8,0.2,0.4,0.6,0.2,0.8,,,0.3391,,0.4,0.6,0.6,0.4,0.4,0.6,0.4,0.6,1,0
,,669a687aa4b63a61f8f5b07f,66fc98fbf6ba0ddc6b0f7656,2024-10-02_09h53.03.435,mdp,2024.2.1,Win32,12.01923077,66fa4ebf79326e780c390304,,,,,,,,,,,,,,,,,,,,,949.7244,949.7244,949.7252,952.0309,0,0,left,1.707,,952.0315,952.9369,1,0,right,952.9379,953.805,0,1,left,0,953.8051,953.8051,953.8057,955.3107,0,28,28,28,1,0.6,0.4,0.4,0.6,,,,,,,,,,,,,,,0.2723,,0.2,0.8,0.8,0.2,0.4,0.6,0.2,0.8,,,0.2651,,0.4,0.6,0.6,0.4,0.4,0.6,0.4,0.6,1,0
,,669a687aa4b63a61f8f5b07f,66fc98fbf6ba0ddc6b0f7656,2024-10-02_09h53.03.435,mdp,2024.2.1,Win32,12.01923077,66fa4ebf79326e780c390304,,,,,,,,,,,,,,,,,,,,,955.311,955.311,955.3122,956.5482,0,0,left,0.5818,,956.5491,957.4371,0,1,left,957.4385,958.4425,0,0,left,1,958.4425,958.4425,958.4431,959.8806,0,29,29,29,1,0.6,0.4,0.4,0.6,,,,,,,,,,,,,,,0.287,,0.2,0.8,0.8,0.2,0.4,0.6,0.2,0.8,,,0.3534,,0.4,0.6,0.6,0.4,0.4,0.6,0.4,0.6,1,0
,,669a687aa4b63a61f8f5b07f,66fc98fbf6ba0ddc6b0f7656,2024-10-02_09h53.03.435,mdp,2024.2.1,Win32,12.01923077,66fa4ebf79326e780c390304,,,,,,,,,,,,,,,,,,,,,959.8808,959.8808,959.8816,962.6445,0,0,left,2.177,,962.6453,963.6102,1,0,right,963.611,964.5821,0,1,left,0,964.5822,964.5822,964.583,966.043,0,30,30,30,1,0.6,0.4,0.4,0.6,,,,,,,,,,,,,,,0.3359,,0.2,0.8,0.8,0.2,0.4,0.6,0.2,0.8,,,0.3255,,0.4,0.6,0.6,0.4,0.4,0.6,0.4,0.6,1,0
,,669a687aa4b63a61f8f5b07f,66fc98fbf6ba0ddc6b0f7656,2024-10-02_09h53.03.435,mdp,2024.2.1,Win32,12.01923077,66fa4ebf79326e780c390304,,,,,,,,,,,,,,,,,,,,,966.0434,966.0434,966.0441,967.6563,1,1,right,0.9922,,967.6572,968.5028,0,1,left,968.5035,969.4059,1,0,right,1,969.406,969.406,969.4069,970.898,0,31,31,31,1,0.6,0.4,0.4,0.6,,,,,,,,,,,,,,,0.2395,,0.2,0.8,0.8,0.2,0.4,0.6,0.2,0.8,,,0.2518,,0.4,0.6,0.6,0.4,0.6,0.4,0.2,0.8,1,0
,,669a687aa4b63a61f8f5b07f,66fc98fbf6ba0ddc6b0f7656,2024-10-02_09h53.03.435,mdp,2024.2.1,Win32,12.01923077,66fa4ebf79326e780c390304,,,,,,,,,,,,,,,,,,,,,970.8984,970.8984,970.8991,972.2863,1,1,right,0.7715,,972.287,973.1627,1,1,right,973.1635,974.1301,0,0,left,1,974.1302,974.1302,974.1311,975.6124,0,32,32,32,1,0.6,0.4,0.4,0.6,,,,,,,,,,,,,,,0.2393,,0.2,0.8,0.8,0.2,0.4,0.6,0.2,0.8,,,0.3433,,0.4,0.6,0.6,0.4,0.6,0.4,0.2,0.8,1,0
,,669a687aa4b63a61f8f5b07f,66fc98fbf6ba0ddc6b0f7656,2024-10-02_09h53.03.435,mdp,2024.2.1,Win32,12.01923077,66fa4ebf79326e780c390304,,,,,,,,,,,,,,,,,,,,,975.6128,975.6128,975.6134,976.5567,1,1,right,0.3296,,976.5575,977.482,1,1,right,977.4831,978.405,1,1,right,0,978.405,978.405,978.4058,979.9083,0,33,33,33,1,0.6,0.4,0.4,0.6,,,,,,,,,,,,,,,0.3245,,0.2,0.8,0.8,0.2,0.4,0.6,0.2,0.8,,,0.3177,,0.4,0.6,0.6,0.4,0.6,0.4,0.2,0.8,1,0
,,669a687aa4b63a61f8f5b07f,66fc98fbf6ba0ddc6b0f7656,2024-10-02_09h53.03.435,mdp,2024.2.1,Win32,12.01923077,66fa4ebf79326e780c390304,,,,,,,,,,,,,,,,,,,,,979.9085,979.9085,979.9094,981.1856,0,0,left,0.6242,,981.1863,982.0332,1,0,right,982.0338,982.9989,0,1,left,0,982.9989,982.9989,982.9995,984.4467,0,34,34,34,1,0.6,0.4,0.4,0.6,,,,,,,,,,,,,,,0.2296,,0.2,0.8,0.8,0.2,0.4,0.6,0.2,0.8,,,0.3113,,0.4,0.6,0.6,0.4,0.6,0.4,0.2,0.8,1,0
,,669a687aa4b63a61f8f5b07f,66fc98fbf6ba0ddc6b0f7656,2024-10-02_09h53.03.435,mdp,2024.2.1,Win32,12.01923077,66fa4ebf79326e780c390304,,,,,,,,,,,,,,,,,,,,,984.447,984.447,984.4477,985.9022,1,1,right,0.8092,,985.903,986.7765,0,1,left,986.7772,987.6812,1,1,right,0,987.6812,987.6812,987.6817,989.1389,0,35,35,35,1,0.8,0.2,0.8,0.2,,,,,,,,,,,,,,,0.236,,0.2,0.8,0.8,0.2,0.4,0.6,0.2,0.8,,,0.3164,,0.4,0.6,0.6,0.4,0.6,0.4,0.2,0.8,1,0
,,669a687aa4b63a61f8f5b07f,66fc98fbf6ba0ddc6b0f7656,2024-10-02_09h53.03.435,mdp,2024.2.1,Win32,12.01923077,66fa4ebf79326e780c390304,,,,,,,,,,,,,,,,,,,,,989.1392,989.1392,989.1398,990.6483,0,1,left,0.8984,,990.649,991.4384,0,1,left,991.4391,992.3521,0,0,left,1,992.3522,992.3522,992.3531,993.8237,0,36,36,36,1,0.8,0.2,0.8,0.2,,,,,,,,,,,,,,,0.1551,,0.2,0.8,0.8,0.2,0.4,0.6,0.2,0.8,,,0.3222,,0.4,0.6,0.6,0.4,0.6,0.4,0.2,0.8,1,0
,,669a687aa4b63a61f8f5b07f,66fc98fbf6ba0ddc6b0f7656,2024-10-02_09h53.03.435,mdp,2024.2.1,Win32,12.01923077,66fa4ebf79326e780c390304,,,,,,,,,,,,,,,,,,,,,993.824,993.824,993.8246,995.9494,0,1,left,1.533,,995.9502,996.818,1,1,right,996.8187,997.6816,0,0,left,1,997.6817,997.6817,997.6824,999.15,0,37,37,37,1,0.4,0.6,0.6,0.4,,,,,,,,,,,,,,,0.2482,,0.2,0.8,0.8,0.2,0.4,0.6,0.2,0.8,,,0.2399,,0.4,0.6,0.6,0.4,0.6,0.4,0.2,0.8,1,0
,,669a687aa4b63a61f8f5b07f,66fc98fbf6ba0ddc6b0f7656,2024-10-02_09h53.03.435,mdp,2024.2.1,Win32,12.01923077,66fa4ebf79326e780c390304,,,,,,,,,,,,,,,,,,,,,999.1503,999.1503,999.1513,1000.192,1,0,right,0.4192,,1000.1928,1000.9697,0,1,left,1000.9706,1001.9024,0,1,left,0,1001.9025,1001.9025,1001.9033,1003.4122,0,38,38,38,1,0.4,0.6,0.6,0.4,,,,,,,,,,,,,,,0.0989,,0.2,0.8,0.8,0.2,0.4,0.6,0.2,0.8,,,0.3526,,0.4,0.6,0.6,0.4,0.6,0.4,0.2,0.8,1,0
,,669a687aa4b63a61f8f5b07f,66fc98fbf6ba0ddc6b0f7656,2024-10-02_09h53.03.435,mdp,2024.2.1,Win32,12.01923077,66fa4ebf79326e780c390304,,,,,,,,,,,,,,,,,,,,,1003.4125,1003.4125,1003.4132,1004.8071,1,1,right,0.7457,,1004.8078,1005.715,0,1,left,1005.7164,1006.6372,1,0,right,1,1006.6373,1006.6373,1006.638,1008.0757,0,39,39,39,1,0.4,0.6,0.6,0.4,,,,,,,,,,,,,,,0.2604,,0.2,0.8,0.8,0.2,0.4,0.6,0.2,0.8,,,0.3355,,0.4,0.6,0.6,0.4,0.6,0.4,0.2,0.8,1,0
,,669a687aa4b63a61f8f5b07f,66fc98fbf6ba0ddc6b0f7656,2024-10-02_09h53.03.435,mdp,2024.2.1,Win32,12.01923077,66fa4ebf79326e780c390304,,,,,,,,,,,,,,,,,,,,,1008.0761,1008.0761,1008.0766,1009.4175,1,0,right,0.6926,,1009.4183,1010.1564,1,0,right,1010.1572,1011.0683,1,1,right,0,1011.0683,1011.0683,1011.0689,1012.5552,0,40,40,40,1,0.4,0.6,0.6,0.4,,,,,,,,,,,,,,,0.0894,,0.2,0.8,0.8,0.2,0.4,0.6,0.2,0.8,,,0.2448,,0.4,0.6,0.6,0.4,0.6,0.4,0.2,0.8,1,0
,,669a687aa4b63a61f8f5b07f,66fc98fbf6ba0ddc6b0f7656,2024-10-02_09h53.03.435,mdp,2024.2.1,Win32,12.01923077,66fa4ebf79326e780c390304,,,,,,,,,,,,,,,,,,,,,1012.5555,1012.5555,1012.5562,1013.6946,0,0,left,0.518,,1013.6954,1014.5646,0,1,left,1014.5657,1015.4106,0,1,left,0,1015.4107,1015.4107,1015.4113,1016.8448,0,41,41,41,1,0.4,0.6,0.6,0.4,,,,,,,,,,,,,,,0.2657,,0.2,0.8,0.8,0.2,0.4,0.6,0.2,0.8,,,0.2612,,0.4,0.6,0.6,0.4,0.6,0.4,0.2,0.8,1,0
,,669a687aa4b63a61f8f5b07f,66fc98fbf6ba0ddc6b0f7656,2024-10-02_09h53.03.435,mdp,2024.2.1,Win32,12.01923077,66fa4ebf79326e780c390304,,,,,,,,,,,,,,,,,,,,,1016.8453,1016.8453,1016.8473,1017.9335,0,1,left,0.4556,,1017.9345,1018.8803,1,1,right,1018.8813,1019.7742,0,1,left,0,1019.7742,1019.7742,1019.7751,1021.2506,0,42,42,42,1,0.4,0.6,0.6,0.4,,,,,,,,,,,,,,,0.3532,,0.2,0.8,0.8,0.2,0.4,0.6,0.2,0.8,,,0.2445,,0.4,0.6,0.6,0.4,0.6,0.4,0.2,0.8,1,0
,,669a687aa4b63a61f8f5b07f,66fc98fbf6ba0ddc6b0f7656,2024-10-02_09h53.03.435,mdp,2024.2.1,Win32,12.01923077,66fa4ebf79326e780c390304,,,,,,,,,,,,,,,,,,,,,1021.251,1021.251,1021.2519,1022.7875,0,0,left,0.931,,1022.7881,1023.6393,0,1,left,1023.6399,1024.5792,0,0,left,1,1024.5792,1024.5792,1024.5797,1026.0915,0,43,43,43,1,0.4,0.6,0.6,0.4,,,,,,,,,,,,,,,0.2675,,0.2,0.8,0.8,0.2,0.6,0.4,0.4,0.6,,,0.3369,,0.4,0.6,0.6,0.4,0.6,0.4,0.2,0.8,1,0
,,669a687aa4b63a61f8f5b07f,66fc98fbf6ba0ddc6b0f7656,2024-10-02_09h53.03.435,mdp,2024.2.1,Win32,12.01923077,66fa4ebf79326e780c390304,,,,,,,,,,,,,,,,,,,,,1026.0918,1026.0918,1026.0927,1027.3424,1,0,right,0.6329,,1027.3432,1028.2931,0,1,left,1028.2937,1029.173,1,0,right,1,1029.173,1029.173,1029.1739,1030.6585,0,44,44,44,1,0.4,0.6,0.6,0.4,,,,,,,,,,,,,,,0.3362,,0.2,0.8,0.8,0.2,0.6,0.4,0.4,0.6,,,0.2602,,0.8,0.2,0.4,0.6,0.6,0.4,0.2,0.8,1,0
,,669a687aa4b63a61f8f5b07f,66fc98fbf6ba0ddc6b0f7656,2024-10-02_09h53.03.435,mdp,2024.2.1,Win32,12.01923077,66fa4ebf79326e780c390304,,,,,,,,,,,,,,,,,,,,,1030.6587,1030.6587,1030.6593,1031.979,1,0,right,0.715,,1031.9802,1032.9041,1,0,right,1032.9052,1033.7973,0,0,left,1,1033.7974,1033.7974,1033.798,1035.3207,0,45,45,45,1,0.4,0.6,0.6,0.4,,,,,,,,,,,,,,,0.3145,,0.2,0.8,0.8,0.2,0.6,0.4,0.4,0.6,,,0.2444,,0.8,0.2,0.4,0.6,0.6,0.4,0.2,0.8,1,0
,,669a687aa4b63a61f8f5b07f,66fc98fbf6ba0ddc6b0f7656,2024-10-02_09h53.03.435,mdp,2024.2.1,Win32,12.01923077,66fa4ebf79326e780c390304,,,,,,,,,,,,,,,,,,,,,1035.3211,1035.3211,1035.3218,1036.6166,1,0,right,0.6625,,1036.6176,1037.3168,1,0,right,1037.3174,1038.1979,1,0,right,1,1038.198,1038.198,1038.1986,1039.6616,0,46,46,46,1,0.4,0.6,0.6,0.4,,,,,,,,,,,,,,,0.085,,0.2,0.8,0.8,0.2,0.6,0.4,0.4,0.6,,,0.2467,,0.8,0.2,0.4,0.6,0.6,0.4,0.2,0.8,1,0
,,669a687aa4b63a61f8f5b07f,66fc98fbf6ba0ddc6b0f7656,2024-10-02_09h53.03.435,mdp,2024.2.1,Win32,12.01923077,66fa4ebf79326e780c390304,,,,,,,,,,,,,,,,,,,,,1039.6619,1039.6619,1039.6625,1040.7744,0,1,left,0.5282,,1040.7751,1041.6611,0,1,left,1041.6619,1042.5841,0,0,left,1,1042.5842,1042.5842,1042.5848,1044.0594,0,47,47,47,1,0.4,0.6,0.6,0.4,,,,,,,,,,,,,,,0.2907,,0.2,0.8,0.8,0.2,0.6,0.4,0.4,0.6,,,0.3294,,0.8,0.2,0.4,0.6,0.6,0.4,0.2,0.8,1,0
,,669a687aa4b63a61f8f5b07f,66fc98fbf6ba0ddc6b0f7656,2024-10-02_09h53.03.435,mdp,2024.2.1,Win32,12.01923077,66fa4ebf79326e780c390304,,,,,,,,,,,,,,,,,,,,,1044.0598,1044.0598,1044.0607,1045.2064,0,0,left,0.5082,,1045.2074,1046.0159,1,0,right,1046.0176,1046.979,0,0,left,1,1046.9791,1046.9791,1046.9796,1048.4585,0,48,48,48,1,0.6,0.4,0.4,0.6,,,,,,,,,,,,,,,0.1644,,0.2,0.8,0.8,0.2,0.6,0.4,0.4,0.6,,,0.3128,,0.8,0.2,0.4,0.6,0.6,0.4,0.2,0.8,1,0
,,669a687aa4b63a61f8f5b07f,66fc98fbf6ba0ddc6b0f7656,2024-10-02_09h53.03.435,mdp,2024.2.1,Win32,12.01923077,66fa4ebf79326e780c390304,,,,,,,,,,,,,,,,,,,,,1048.4589,1048.4589,1048.4595,1049.5428,0,1,left,0.4768,,1049.5436,1050.3631,1,1,right,1050.3636,1051.2635,1,1,right,0,1051.2635,1051.2635,1051.2644,1052.7336,0,49,49,49,1,0.6,0.4,0.4,0.6,,,,,,,,,,,,,,,0.1685,,0.2,0.8,0.8,0.2,0.6,0.4,0.4,0.6,,,0.2562,,0.8,0.2,0.4,0.6,0.6,0.4,0.2,0.8,1,0
,,669a687aa4b63a61f8f5b07f,66fc98fbf6ba0ddc6b0f7656,2024-10-02_09h53.03.435,mdp,2024.2.1,Win32,12.01923077,66fa4ebf79326e780c390304,,,,,,,,,,,,,,,,,,,,,,,,,,,,,,,,,,,,,,,,,,,,,,,,,,,,,,,,1052.7336,1111.3345,0,3,3,5,1,imgs/goat.png,imgs/lion.png,imgs/giraffe.png,imgs/dog.png,imgs/bear.png,,,,,,,,,,,,,,,,,,,,,,,,
,,669a687aa4b63a61f8f5b07f,66fc98fbf6ba0ddc6b0f7656,2024-10-02_09h53.03.435,mdp,2024.2.1,Win32,12.01923077,66fa4ebf79326e780c390304,,,,,,,,,,,,,,1,seqs/st1seq17.csv,1111.3356,1115.7267,space,3.7833,,1115.7287,1115.7287,1115.7295,1118.1074,0,0,left,1.7437,,1118.1085,1118.1091,1,1,,1118.1097,1118.1104,1,1,,1,1118.1105,1118.1105,1118.111,1119.6268,0,0,0,0,1,0.2,0.8,0.8,0.2,1,0,,,,,,,,,,,,,,,,,,,,,,,,,,,,,,,,,,,,
,,669a687aa4b63a61f8f5b07f,66fc98fbf6ba0ddc6b0f7656,2024-10-02_09h53.03.435,mdp,2024.2.1,Win32,12.01923077,66fa4ebf79326e780c390304,,,,,,,,,,,,,,,,,,,,,1119.6273,1119.6273,1119.6283,1120.6015,1,1,right,0.3355,,1120.6023,1120.6029,1,1,,1120.6034,1120.6038,1,1,,0,1120.6038,1120.6038,1120.6042,1122.0474,0,1,1,1,1,0.8,0.2,0.2,0.8,1,0,,,,,,,,,,,,,,,,,,,,,,,,,,,,,,,,,,,,
,,669a687aa4b63a61f8f5b07f,66fc98fbf6ba0ddc6b0f7656,2024-10-02_09h53.03.435,mdp,2024.2.1,Win32,12.01923077,66fa4ebf79326e780c390304,,,,,,,,,,,,,,,,,,,,,1122.0477,1122.0477,1122.0485,1123.2354,0,0,left,0.58,,1123.2361,1123.2365,1,0,,1123.2368,1123.2371,1,1,,1,1123.2371,1123.2371,1123.2374,1124.7415,0,2,2,2,1,0.8,0.2,0.2,0.8,1,0,,,,,,,,,,,,,,,,,,,,,,,,,,,,,,,,,,,,
,,669a687aa4b63a61f8f5b07f,66fc98fbf6ba0ddc6b0f7656,2024-10-02_09h53.03.435,mdp,2024.2.1,Win32,12.01923077,66fa4ebf79326e780c390304,,,,,,,,,,,,,,,,,,,,,1124.7418,1124.7418,1124.7426,1126.3672,0,0,left,0.9804,,1126.3678,1126.3683,1,0,,1126.3687,1126.3692,1,0,,1,1126.3693,1126.3693,1126.3697,1127.8084,0,3,3,3,1,0.8,0.2,0.2,0.8,1,0,,,,,,,,,,,,,,,,,,,,,,,,,,,,,,,,,,,,
,,669a687aa4b63a61f8f5b07f,66fc98fbf6ba0ddc6b0f7656,2024-10-02_09h53.03.435,mdp,2024.2.1,Win32,12.01923077,66fa4ebf79326e780c390304,,,,,,,,,,,,,,,,,,,,,1127.8088,1127.8088,1127.8098,1129.0987,0,1,left,0.6638,,1129.0994,1129.0999,1,1,,1129.1004,1129.1008,1,0,,0,1129.1008,1129.1009,1129.1013,1130.5978,0,4,4,4,1,0.8,0.2,0.2,0.8,1,0,,,,,,,,,,,,,,,,,,,,,,,,,,,,,,,,,,,,
,,669a687aa4b63a61f8f5b07f,66fc98fbf6ba0ddc6b0f7656,2024-10-02_09h53.03.435,mdp,2024.2.1,Win32,12.01923077,66fa4ebf79326e780c390304,,,,,,,,,,,,,,,,,,,,,1130.5982,1130.5982,1130.599,1131.9486,1,1,right,0.6916,,1131.9493,1131.95,1,0,,1131.9505,1131.951,1,1,,0,1131.951,1131.951,1131.9514,1133.4692,0,5,5,5,1,0.8,0.2,0.2,0.8,1,0,,,,,,,,,,,,,,,,,,,,,,,,,,,,,,,,,,,,
,,669a687aa4b63a61f8f5b07f,66fc98fbf6ba0ddc6b0f7656,2024-10-02_09h53.03.435,mdp,2024.2.1,Win32,12.01923077,66fa4ebf79326e780c390304,,,,,,,,,,,,,,,,,,,,,1133.4696,1133.4696,1133.4703,1134.0662,1,0,right,0.0063,,1134.0672,1134.0677,1,1,,1134.0682,1134.0688,1,1,,1,1134.0688,1134.0688,1134.0692,1135.5814,0,6,6,6,1,0.8,0.2,0.2,0.8,1,0,,,,,,,,,,,,,,,,,,,,,,,,,,,,,,,,,,,,
,,669a687aa4b63a61f8f5b07f,66fc98fbf6ba0ddc6b0f7656,2024-10-02_09h53.03.435,mdp,2024.2.1,Win32,12.01923077,66fa4ebf79326e780c390304,,,,,,,,,,,,,,,,,,,,,1135.5817,1135.5817,1135.5824,1136.7026,0,0,left,0.5292,,1136.7037,1136.7043,1,0,,1136.7048,1136.7053,1,0,,1,1136.7054,1136.7054,1136.7058,1138.1536,0,7,7,7,1,0.8,0.2,0.2,0.8,1,0,,,,,,,,,,,,,,,,,,,,,,,,,,,,,,,,,,,,
,,669a687aa4b63a61f8f5b07f,66fc98fbf6ba0ddc6b0f7656,2024-10-02_09h53.03.435,mdp,2024.2.1,Win32,12.01923077,66fa4ebf79326e780c390304,,,,,,,,,,,,,,,,,,,,,1138.1538,1138.1538,1138.1547,1138.8777,1,1,right,0.0944,,1138.8791,1138.8799,1,0,,1138.8804,1138.8809,1,0,,0,1138.8811,1138.8811,1138.8817,1140.3486,0,8,8,8,1,0.4,0.6,0.6,0.4,1,0,,,,,,,,,,,,,,,,,,,,,,,,,,,,,,,,,,,,
,,669a687aa4b63a61f8f5b07f,66fc98fbf6ba0ddc6b0f7656,2024-10-02_09h53.03.435,mdp,2024.2.1,Win32,12.01923077,66fa4ebf79326e780c390304,,,,,,,,,,,,,,,,,,,,,1140.3489,1140.3489,1140.3496,1141.2671,1,1,right,0.3263,,1141.2677,1141.2684,1,1,,1141.2689,1141.2694,1,1,,0,1141.2694,1141.2694,1141.2699,1142.716,0,9,9,9,1,0.4,0.6,0.6,0.4,1,0,,,,,,,,,,,,,,,,,,,,,,,,,,,,,,,,,,,,
,,669a687aa4b63a61f8f5b07f,66fc98fbf6ba0ddc6b0f7656,2024-10-02_09h53.03.435,mdp,2024.2.1,Win32,12.01923077,66fa4ebf79326e780c390304,,,,,,,,,,,,,,,,,,,,,1142.7163,1142.7163,1142.7174,1143.5022,1,1,right,0.1537,,1143.503,1143.5037,1,0,,1143.5041,1143.5046,1,1,,0,1143.5047,1143.5047,1143.505,1145.0149,0,10,10,10,1,0.4,0.6,0.6,0.4,1,0,,,,,,,,,,,,,,,,,,,,,,,,,,,,,,,,,,,,
,,669a687aa4b63a61f8f5b07f,66fc98fbf6ba0ddc6b0f7656,2024-10-02_09h53.03.435,mdp,2024.2.1,Win32,12.01923077,66fa4ebf79326e780c390304,,,,,,,,,,,,,,,,,,,,,1145.0151,1145.0151,1145.0157,1146.2783,1,0,right,0.6403,,1146.2791,1146.2796,1,1,,1146.28,1146.2803,1,0,,1,1146.2803,1146.2803,1146.2807,1147.7892,0,11,11,11,1,0.6,0.4,0.4,0.6,1,0,,,,,,,,,,,,,,,,,,,,,,,,,,,,,,,,,,,,
,,669a687aa4b63a61f8f5b07f,66fc98fbf6ba0ddc6b0f7656,2024-10-02_09h53.03.435,mdp,2024.2.1,Win32,12.01923077,66fa4ebf79326e780c390304,,,,,,,,,,,,,,,,,,,,,1147.7895,1147.7895,1147.7904,1148.6068,1,0,right,0.1666,,1148.6074,1148.608,1,0,,1148.6085,1148.6089,1,1,,1,1148.6089,1148.6089,1148.6093,1150.1314,0,12,12,12,1,0.6,0.4,0.4,0.6,1,0,,,,,,,,,,,,,,,,,,,,,,,,,,,,,,,,,,,,
,,669a687aa4b63a61f8f5b07f,66fc98fbf6ba0ddc6b0f7656,2024-10-02_09h53.03.435,mdp,2024.2.1,Win32,12.01923077,66fa4ebf79326e780c390304,,,,,,,,,,,,,,,,,,,,,1150.1316,1150.1316,1150.1322,1151.2171,1,1,right,0.487,,1151.218,1151.2185,1,1,,1151.2191,1151.2195,1,1,,0,1151.2195,1151.2195,1151.22,1152.734,0,13,13,13,1,0.6,0.4,0.4,0.6,1,0,,,,,,,,,,,,,,,,,,,,,,,,,,,,,,,,,,,,
,,669a687aa4b63a61f8f5b07f,66fc98fbf6ba0ddc6b0f7656,2024-10-02_09h53.03.435,mdp,2024.2.1,Win32,12.01923077,66fa4ebf79326e780c390304,,,,,,,,,,,,,,,,,,,,,1152.7343,1152.7344,1152.735,1153.54,0,1,left,0.1636,,1153.5408,1153.5413,1,1,,1153.5419,1153.5422,1,1,,0,1153.5423,1153.5423,1153.5426,1154.9867,0,14,14,14,1,0.6,0.4,0.4,0.6,1,0,,,,,,,,,,,,,,,,,,,,,,,,,,,,,,,,,,,,
,,669a687aa4b63a61f8f5b07f,66fc98fbf6ba0ddc6b0f7656,2024-10-02_09h53.03.435,mdp,2024.2.1,Win32,12.01923077,66fa4ebf79326e780c390304,,,,,,,,,,,,,,,,,,,,,1154.9872,1154.9872,1154.9882,1155.9279,0,0,left,0.3211,,1155.9287,1155.9293,1,0,,1155.9297,1155.9301,1,0,,1,1155.9301,1155.9301,1155.9305,1157.4317,0,15,15,15,1,0.6,0.4,0.4,0.6,1,0,,,,,,,,,,,,,,,,,,,,,,,,,,,,,,,,,,,,
,,669a687aa4b63a61f8f5b07f,66fc98fbf6ba0ddc6b0f7656,2024-10-02_09h53.03.435,mdp,2024.2.1,Win32,12.01923077,66fa4ebf79326e780c390304,,,,,,,,,,,,,,,,,,,,,1157.432,1157.432,1157.4328,1158.3182,1,0,right,0.2477,,1158.319,1158.3195,1,0,,1158.32,1158.3203,1,1,,1,1158.3203,1158.3203,1158.3207,1159.772,0,16,16,16,1,0.6,0.4,0.4,0.6,1,0,,,,,,,,,,,,,,,,,,,,,,,,,,,,,,,,,,,,
,,669a687aa4b63a61f8f5b07f,66fc98fbf6ba0ddc6b0f7656,2024-10-02_09h53.03.435,mdp,2024.2.1,Win32,12.01923077,66fa4ebf79326e780c390304,,,,,,,,,,,,,,,,,,,,,1159.7723,1159.7723,1159.7728,1160.6792,0,1,left,0.2999,,1160.6799,1160.6806,1,1,,1160.681,1160.6814,1,1,,0,1160.6814,1160.6814,1160.6817,1162.1935,0,17,17,17,1,0.2,0.8,0.6,0.4,1,0,,,,,,,,,,,,,,,,,,,,,,,,,,,,,,,,,,,,
,,669a687aa4b63a61f8f5b07f,66fc98fbf6ba0ddc6b0f7656,2024-10-02_09h53.03.435,mdp,2024.2.1,Win32,12.01923077,66fa4ebf79326e780c390304,,,,,,,,,,,,,,,,,,,,,1162.1939,1162.1939,1162.1944,1163.4067,0,1,left,0.5637,,1163.408,1163.4085,1,1,,1163.4088,1163.4092,1,0,,0,1163.4092,1163.4093,1163.4095,1164.8886,0,18,18,18,1,0.2,0.8,0.6,0.4,1,0,,,,,,,,,,,,,,,,,,,,,,,,,,,,,,,,,,,,
,,669a687aa4b63a61f8f5b07f,66fc98fbf6ba0ddc6b0f7656,2024-10-02_09h53.03.435,mdp,2024.2.1,Win32,12.01923077,66fa4ebf79326e780c390304,,,,,,,,,,,,,,,,,,,,,1164.8889,1164.8889,1164.8895,1165.7481,1,0,right,0.2449,,1165.7488,1165.7494,1,0,,1165.7499,1165.7502,1,0,,1,1165.7502,1165.7502,1165.7506,1167.2494,0,19,19,19,1,0.2,0.8,0.6,0.4,1,0,,,,,,,,,,,,,,,,,,,,,,,,,,,,,,,,,,,,
,,669a687aa4b63a61f8f5b07f,66fc98fbf6ba0ddc6b0f7656,2024-10-02_09h53.03.435,mdp,2024.2.1,Win32,12.01923077,66fa4ebf79326e780c390304,,,,,,,,,,,,,,,,,,,,,1167.2496,1167.2496,1167.2502,1167.945,1,1,right,0.0794,,1167.9457,1167.9462,1,0,,1167.9467,1167.9471,1,1,,0,1167.9472,1167.9472,1167.9475,1169.3965,0,20,20,20,1,0.2,0.8,0.6,0.4,1,0,,,,,,,,,,,,,,,,,,,,,,,,,,,,,,,,,,,,
,,669a687aa4b63a61f8f5b07f,66fc98fbf6ba0ddc6b0f7656,2024-10-02_09h53.03.435,mdp,2024.2.1,Win32,12.01923077,66fa4ebf79326e780c390304,,,,,,,,,,,,,,,,,,,,,1169.3968,1169.3968,1169.3976,1170.5204,1,0,right,0.4944,,1170.5209,1170.5214,1,1,,1170.5218,1170.522,1,1,,1,1170.5221,1170.5221,1170.5223,1171.9759,0,21,21,21,1,0.2,0.8,0.6,0.4,1,0,,,,,,,,,,,,,,,,,,,,,,,,,,,,,,,,,,,,
,,669a687aa4b63a61f8f5b07f,66fc98fbf6ba0ddc6b0f7656,2024-10-02_09h53.03.435,mdp,2024.2.1,Win32,12.01923077,66fa4ebf79326e780c390304,,,,,,,,,,,,,,,,,,,,,1171.9761,1171.9761,1171.9768,1172.8404,0,1,left,0.2406,,1172.841,1172.8415,1,1,,1172.8421,1172.8426,1,1,,0,1172.8426,1172.8426,1172.8429,1174.3089,0,22,22,22,1,0.2,0.8,0.6,0.4,1,0,,,,,,,,,,,,,,,,,,,,,,,,,,,,,,,,,,,,
,,669a687aa4b63a61f8f5b07f,66fc98fbf6ba0ddc6b0f7656,2024-10-02_09h53.03.435,mdp,2024.2.1,Win32,12.01923077,66fa4ebf79326e780c390304,,,,,,,,,,,,,,,,,,,,,1174.3092,1174.3092,1174.3098,1175.6139,1,0,right,0.6604,,1175.6147,1175.6155,1,1,,1175.616,1175.6163,1,0,,1,1175.6164,1175.6164,1175.6168,1177.0877,0,23,23,23,1,0.2,0.8,0.6,0.4,1,0,,,,,,,,,,,,,,,,,,,,,,,,,,,,,,,,,,,,
,,669a687aa4b63a61f8f5b07f,66fc98fbf6ba0ddc6b0f7656,2024-10-02_09h53.03.435,mdp,2024.2.1,Win32,12.01923077,66fa4ebf79326e780c390304,,,,,,,,,,,,,,,,,,,,,1177.088,1177.088,1177.0888,1178.1572,0,1,left,0.4579,,1178.1578,1178.1583,1,1,,1178.1587,1178.159,1,1,,0,1178.1591,1178.1591,1178.1595,1179.6704,0,24,24,24,1,0.2,0.8,0.6,0.4,1,0,,,,,,,,,,,,,,,,,,,,,,,,,,,,,,,,,,,,
,,669a687aa4b63a61f8f5b07f,66fc98fbf6ba0ddc6b0f7656,2024-10-02_09h53.03.435,mdp,2024.2.1,Win32,12.01923077,66fa4ebf79326e780c390304,,,,,,,,,,,,,,,,,,,,,1179.6706,1179.6706,1179.6713,1181.3083,0,1,left,0.9994,,1181.3094,1181.31,1,1,,1181.3106,1181.3113,1,0,,0,1181.3113,1181.3113,1181.3119,1182.8225,0,25,25,25,1,0.2,0.8,0.6,0.4,1,0,,,,,,,,,,,,,,,,,,,,,,,,,,,,,,,,,,,,
,,669a687aa4b63a61f8f5b07f,66fc98fbf6ba0ddc6b0f7656,2024-10-02_09h53.03.435,mdp,2024.2.1,Win32,12.01923077,66fa4ebf79326e780c390304,,,,,,,,,,,,,,,,,,,,,1182.8227,1182.8227,1182.8236,1184.8198,1,1,right,1.3796,,1184.8206,1184.8211,1,0,,1184.8215,1184.822,1,0,,0,1184.822,1184.822,1184.8224,1186.3021,0,26,26,26,1,0.2,0.8,0.6,0.4,1,0,,,,,,,,,,,,,,,,,,,,,,,,,,,,,,,,,,,,
,,669a687aa4b63a61f8f5b07f,66fc98fbf6ba0ddc6b0f7656,2024-10-02_09h53.03.435,mdp,2024.2.1,Win32,12.01923077,66fa4ebf79326e780c390304,,,,,,,,,,,,,,,,,,,,,1186.3024,1186.3024,1186.3038,1188.7866,1,0,right,1.8405,,1188.7873,1188.7876,1,1,,1188.788,1188.7883,1,0,,1,1188.7883,1188.7883,1188.7887,1190.2929,0,27,27,27,1,0.2,0.8,0.6,0.4,1,0,,,,,,,,,,,,,,,,,,,,,,,,,,,,,,,,,,,,
,,669a687aa4b63a61f8f5b07f,66fc98fbf6ba0ddc6b0f7656,2024-10-02_09h53.03.435,mdp,2024.2.1,Win32,12.01923077,66fa4ebf79326e780c390304,,,,,,,,,,,,,,,,,,,,,1190.2933,1190.2933,1190.2943,1193.1298,0,1,left,2.1765,,1193.1306,1193.1311,1,0,,1193.1318,1193.1324,1,1,,0,1193.1324,1193.1324,1193.1329,1194.6256,0,28,28,28,1,0.2,0.8,0.6,0.4,1,0,,,,,,,,,,,,,,,,,,,,,,,,,,,,,,,,,,,,
,,669a687aa4b63a61f8f5b07f,66fc98fbf6ba0ddc6b0f7656,2024-10-02_09h53.03.435,mdp,2024.2.1,Win32,12.01923077,66fa4ebf79326e780c390304,,,,,,,,,,,,,,,,,,,,,1194.6257,1194.6258,1194.6263,1198.011,0,0,left,2.7409,,1198.0119,1198.0129,1,0,,1198.0135,1198.0141,1,1,,1,1198.0141,1198.0141,1198.0146,1199.4612,0,29,29,29,1,0.8,0.2,0.4,0.6,1,0,,,,,,,,,,,,,,,,,,,,,,,,,,,,,,,,,,,,
,,669a687aa4b63a61f8f5b07f,66fc98fbf6ba0ddc6b0f7656,2024-10-02_09h53.03.435,mdp,2024.2.1,Win32,12.01923077,66fa4ebf79326e780c390304,,,,,,,,,,,,,,,,,,,,,1199.4618,1199.4618,1199.463,1200.3992,0,0,left,0.3468,,1200.4001,1200.4012,1,0,,1200.4022,1200.4029,1,0,,1,1200.403,1200.403,1200.4035,1201.8447,0,30,30,30,1,0.8,0.2,0.4,0.6,1,0,,,,,,,,,,,,,,,,,,,,,,,,,,,,,,,,,,,,
,,669a687aa4b63a61f8f5b07f,66fc98fbf6ba0ddc6b0f7656,2024-10-02_09h53.03.435,mdp,2024.2.1,Win32,12.01923077,66fa4ebf79326e780c390304,,,,,,,,,,,,,,,,,,,,,1201.8451,1201.8451,1201.8459,1203.3815,0,0,left,0.8917,,1203.3822,1203.3828,1,0,,1203.3833,1203.3838,1,1,,1,1203.3838,1203.3838,1203.3841,1204.8533,0,31,31,31,1,0.8,0.2,0.4,0.6,1,0,,,,,,,,,,,,,,,,,,,,,,,,,,,,,,,,,,,,
,,669a687aa4b63a61f8f5b07f,66fc98fbf6ba0ddc6b0f7656,2024-10-02_09h53.03.435,mdp,2024.2.1,Win32,12.01923077,66fa4ebf79326e780c390304,,,,,,,,,,,,,,,,,,,,,1204.8536,1204.8536,1204.8543,1206.0996,1,0,right,0.636,,1206.1001,1206.1006,1,0,,1206.101,1206.1012,1,1,,1,1206.1012,1206.1012,1206.1015,1207.5529,0,32,32,32,1,0.8,0.2,0.4,0.6,1,0,,,,,,,,,,,,,,,,,,,,,,,,,,,,,,,,,,,,
,,669a687aa4b63a61f8f5b07f,66fc98fbf6ba0ddc6b0f7656,2024-10-02_09h53.03.435,mdp,2024.2.1,Win32,12.01923077,66fa4ebf79326e780c390304,,,,,,,,,,,,,,,,,,,,,1207.5533,1207.5533,1207.5542,1211.0477,0,0,left,2.8444,,1211.0483,1211.0489,1,1,,1211.0494,1211.0499,1,0,,1,1211.0499,1211.0499,1211.0504,1212.4914,0,33,33,33,1,0.8,0.2,0.4,0.6,1,0,,,,,,,,,,,,,,,,,,,,,,,,,,,,,,,,,,,,
,,669a687aa4b63a61f8f5b07f,66fc98fbf6ba0ddc6b0f7656,2024-10-02_09h53.03.435,mdp,2024.2.1,Win32,12.01923077,66fa4ebf79326e780c390304,,,,,,,,,,,,,,,,,,,,,1212.4917,1212.4917,1212.4925,1218.1729,0,0,left,5.0337,,1218.1737,1218.1743,1,0,,1218.1748,1218.1752,1,0,,1,1218.1753,1218.1753,1218.1756,1219.6264,0,34,34,34,1,0.8,0.2,0.4,0.6,1,0,,,,,,,,,,,,,,,,,,,,,,,,,,,,,,,,,,,,
,,669a687aa4b63a61f8f5b07f,66fc98fbf6ba0ddc6b0f7656,2024-10-02_09h53.03.435,mdp,2024.2.1,Win32,12.01923077,66fa4ebf79326e780c390304,,,,,,,,,,,,,,,,,,,,,1219.6268,1219.6268,1219.6279,1220.747,1,1,right,0.5054,,1220.748,1220.7486,1,0,,1220.749,1220.7493,1,0,,0,1220.7493,1220.7494,1220.7497,1222.2084,0,35,35,35,1,0.8,0.2,0.4,0.6,1,0,,,,,,,,,,,,,,,,,,,,,,,,,,,,,,,,,,,,
,,669a687aa4b63a61f8f5b07f,66fc98fbf6ba0ddc6b0f7656,2024-10-02_09h53.03.435,mdp,2024.2.1,Win32,12.01923077,66fa4ebf79326e780c390304,,,,,,,,,,,,,,,,,,,,,1222.2088,1222.2088,1222.2094,1225.447,0,0,left,2.5992,,1225.4479,1225.4483,1,0,,1225.4488,1225.4493,1,0,,1,1225.4493,1225.4493,1225.4496,1226.9446,0,36,36,36,1,0.8,0.2,0.4,0.6,1,0,,,,,,,,,,,,,,,,,,,,,,,,,,,,,,,,,,,,
,,669a687aa4b63a61f8f5b07f,66fc98fbf6ba0ddc6b0f7656,2024-10-02_09h53.03.435,mdp,2024.2.1,Win32,12.01923077,66fa4ebf79326e780c390304,,,,,,,,,,,,,,,,,,,,,1226.9449,1226.9449,1226.9454,1228.1187,0,0,left,0.5811,,1228.1193,1228.12,1,0,,1228.1206,1228.1211,1,1,,1,1228.1211,1228.1211,1228.1217,1229.5778,0,37,37,37,1,0.8,0.2,0.4,0.6,1,0,,,,,,,,,,,,,,,,,,,,,,,,,,,,,,,,,,,,
,,669a687aa4b63a61f8f5b07f,66fc98fbf6ba0ddc6b0f7656,2024-10-02_09h53.03.435,mdp,2024.2.1,Win32,12.01923077,66fa4ebf79326e780c390304,,,,,,,,,,,,,,,,,,,,,1229.578,1229.578,1229.5787,1230.7444,0,0,left,0.5209,,1230.7457,1230.7465,1,1,,1230.7473,1230.7483,1,0,,1,1230.7484,1230.7485,1230.7492,1232.2138,0,38,38,38,1,0.4,0.6,0.8,0.2,1,0,,,,,,,,,,,,,,,,,,,,,,,,,,,,,,,,,,,,
,,669a687aa4b63a61f8f5b07f,66fc98fbf6ba0ddc6b0f7656,2024-10-02_09h53.03.435,mdp,2024.2.1,Win32,12.01923077,66fa4ebf79326e780c390304,,,,,,,,,,,,,,,,,,,,,1232.214,1232.214,1232.2145,1235.2606,0,1,left,2.4554,,1235.2614,1235.262,1,0,,1235.2627,1235.2632,1,1,,0,1235.2632,1235.2633,1235.2638,1236.7541,0,39,39,39,1,0.4,0.6,0.8,0.2,1,0,,,,,,,,,,,,,,,,,,,,,,,,,,,,,,,,,,,,
,,669a687aa4b63a61f8f5b07f,66fc98fbf6ba0ddc6b0f7656,2024-10-02_09h53.03.435,mdp,2024.2.1,Win32,12.01923077,66fa4ebf79326e780c390304,,,,,,,,,,,,,,,,,,,,,1236.7544,1236.7544,1236.7553,1237.7708,1,1,right,0.3999,,1237.7722,1237.773,1,0,,1237.7737,1237.7742,1,0,,0,1237.7743,1237.7743,1237.775,1239.2361,0,40,40,40,1,0.4,0.6,0.8,0.2,1,0,,,,,,,,,,,,,,,,,,,,,,,,,,,,,,,,,,,,
,,669a687aa4b63a61f8f5b07f,66fc98fbf6ba0ddc6b0f7656,2024-10-02_09h53.03.435,mdp,2024.2.1,Win32,12.01923077,66fa4ebf79326e780c390304,,,,,,,,,,,,,,,,,,,,,1239.2364,1239.2364,1239.2372,1240.3745,1,1,right,0.496,,1240.3752,1240.3758,1,1,,1240.3762,1240.3766,1,0,,0,1240.3766,1240.3766,1240.377,1241.8531,0,41,41,41,1,0.4,0.6,0.8,0.2,1,0,,,,,,,,,,,,,,,,,,,,,,,,,,,,,,,,,,,,
