init_exp.started,init_exp.stopped,participant,session,date,expName,psychopyVersion,OS,frameRate,study_id,disp_instruction.started,disp_instruction.stopped,instruction.thisRepN,instruction.thisTrialN,instruction.thisN,instruction.thisIndex,instruction.ran,instimg_path,consent.started,consent.stopped,key_resp_3.keys,key_resp_3.rt,key_resp_3.duration,n_steps,sequence_path,init_block.started,init_block.stopped,key_resp.keys,key_resp.rt,key_resp.duration,init_trials.started,init_trials.stopped,step0.started,step0.stopped,act0,s1,res0.keys,res0.rt,res0.duration,step1.started,step1.stopped,act1,s2,res1.keys,step2.started,step2.stopped,act2,s3,res2.keys,rew,reward_comp.started,reward_comp.stopped,reward_disp.started,reward_disp.stopped,trials.thisRepN,trials.thisTrialN,trials.thisN,trials.thisIndex,trials.ran,s00a0s10,s00a0s11,s00a1s10,s00a1s11,rew10,rew11,break_block.started,break_block.stopped,block.thisRepN,block.thisTrialN,block.thisN,block.thisIndex,block.ran,s00path,s10path,s11path,s20path,s21path,res1.rt,res1.duration,s10a0s20,s10a0s21,s10a1s20,s10a1s21,s11a0s20,s11a0s21,s11a1s20,s11a1s21,rew20,rew21,res2.rt,res2.duration,s20a0s30,s20a0s31,s20a1s30,s20a1s31,s21a0s30,s21a0s31,s21a1s30,s21a1s31,rew30,rew31
0.0002,0.0014,669fd80763ececdab3e50eea,66daf7dafa100b3036805c57,2024-09-06_13h39.52.625,mdp,2024.2.1,Win32,59.88023952,66d7945b1baad48e845df3ce,,,,,,,,,,,,,,,,,,,,,,,,,,,,,,,,,,,,,,,,,,,,,,,,,,,,,,,,,,,,,,,,,,,,,,,,,,,,,,,,,,,,,,,,,,,
,,669fd80763ececdab3e50eea,66daf7dafa100b3036805c57,2024-09-06_13h39.52.625,mdp,2024.2.1,Win32,59.88023952,66d7945b1baad48e845df3ce,0.0062,40.0032,0,0,0,0,1,rlnn_exp/rlnn_exp.001.png,,,,,,,,,,,,,,,,,,,,,,,,,,,,,,,,,,,,,,,,,,,,,,,,,,,,,,,,,,,,,,,,,,,,,,,,,,,,,,,,,,,
,,669fd80763ececdab3e50eea,66daf7dafa100b3036805c57,2024-09-06_13h39.52.625,mdp,2024.2.1,Win32,59.88023952,66d7945b1baad48e845df3ce,40.004,121.8428,0,1,1,1,1,rlnn_exp/rlnn_exp.002.png,,,,,,,,,,,,,,,,,,,,,,,,,,,,,,,,,,,,,,,,,,,,,,,,,,,,,,,,,,,,,,,,,,,,,,,,,,,,,,,,,,,
,,669fd80763ececdab3e50eea,66daf7dafa100b3036805c57,2024-09-06_13h39.52.625,mdp,2024.2.1,Win32,59.88023952,66d7945b1baad48e845df3ce,121.8552,168.0876,0,2,2,2,1,rlnn_exp/rlnn_exp.003.png,,,,,,,,,,,,,,,,,,,,,,,,,,,,,,,,,,,,,,,,,,,,,,,,,,,,,,,,,,,,,,,,,,,,,,,,,,,,,,,,,,,
,,669fd80763ececdab3e50eea,66daf7dafa100b3036805c57,2024-09-06_13h39.52.625,mdp,2024.2.1,Win32,59.88023952,66d7945b1baad48e845df3ce,168.1148,203.3659,0,3,3,3,1,rlnn_exp/rlnn_exp.004.png,,,,,,,,,,,,,,,,,,,,,,,,,,,,,,,,,,,,,,,,,,,,,,,,,,,,,,,,,,,,,,,,,,,,,,,,,,,,,,,,,,,
,,669fd80763ececdab3e50eea,66daf7dafa100b3036805c57,2024-09-06_13h39.52.625,mdp,2024.2.1,Win32,59.88023952,66d7945b1baad48e845df3ce,,,,,,,,,203.3783,246.8279,y,33.4211,,,,,,,,,,,,,,,,,,,,,,,,,,,,,,,,,,,,,,,,,,,,,,,,,,,,,,,,,,,,,,,,,,,,,,,,,,,,,,,
,,669fd80763ececdab3e50eea,66daf7dafa100b3036805c57,2024-09-06_13h39.52.625,mdp,2024.2.1,Win32,59.88023952,66d7945b1baad48e845df3ce,,,,,,,,,,,,,,1,seqs/st1seq23.csv,246.8486,250.3784,space,3.0027,,250.388,250.3884,250.3894,253.1265,1,0,right,2.2099,,253.1377,253.1393,,0,,253.1396,253.1404,,0,,1,253.1405,253.1406,253.1409,254.6429,0,0,0,0,1,0.2,0.8,0.8,0.2,1,0,,,,,,,,,,,,,,,,,,,,,,,,,,,,,,,,,,,,
,,669fd80763ececdab3e50eea,66daf7dafa100b3036805c57,2024-09-06_13h39.52.625,mdp,2024.2.1,Win32,59.88023952,66d7945b1baad48e845df3ce,,,,,,,,,,,,,,,,,,,,,254.6433,254.6433,254.6441,256.6098,1,0,right,1.4352,,256.611,256.6121,,0,,256.6131,256.6141,,0,,1,256.6142,256.6142,256.6151,258.1092,0,1,1,1,1,0.2,0.8,0.8,0.2,1,0,,,,,,,,,,,,,,,,,,,,,,,,,,,,,,,,,,,,
,,669fd80763ececdab3e50eea,66daf7dafa100b3036805c57,2024-09-06_13h39.52.625,mdp,2024.2.1,Win32,59.88023952,66d7945b1baad48e845df3ce,,,,,,,,,,,,,,,,,,,,,258.1095,258.1095,258.1107,259.3925,0,1,left,0.7539,,259.3933,259.394,,0,,259.3945,259.395,,1,,0,259.395,259.395,259.3955,260.8922,0,2,2,2,1,0.2,0.8,0.8,0.2,1,0,,,,,,,,,,,,,,,,,,,,,,,,,,,,,,,,,,,,
,,669fd80763ececdab3e50eea,66daf7dafa100b3036805c57,2024-09-06_13h39.52.625,mdp,2024.2.1,Win32,59.88023952,66d7945b1baad48e845df3ce,,,,,,,,,,,,,,,,,,,,,260.8924,260.8924,260.8934,262.6253,0,1,left,1.2036,,262.6261,262.6268,,0,,262.6274,262.6278,,1,,0,262.6278,262.6278,262.6282,264.1251,0,3,3,3,1,0.2,0.8,0.8,0.2,1,0,,,,,,,,,,,,,,,,,,,,,,,,,,,,,,,,,,,,
,,669fd80763ececdab3e50eea,66daf7dafa100b3036805c57,2024-09-06_13h39.52.625,mdp,2024.2.1,Win32,59.88023952,66d7945b1baad48e845df3ce,,,,,,,,,,,,,,,,,,,,,264.1255,264.1255,264.1265,265.5083,1,0,right,0.8576,,265.5092,265.5099,,0,,265.5105,265.5109,,0,,1,265.5109,265.5109,265.5114,267.0083,0,4,4,4,1,0.2,0.8,0.8,0.2,1,0,,,,,,,,,,,,,,,,,,,,,,,,,,,,,,,,,,,,
,,669fd80763ececdab3e50eea,66daf7dafa100b3036805c57,2024-09-06_13h39.52.625,mdp,2024.2.1,Win32,59.88023952,66d7945b1baad48e845df3ce,,,,,,,,,,,,,,,,,,,,,267.0087,267.0088,267.0106,268.025,1,0,right,0.4911,,268.0265,268.0276,,0,,268.0286,268.0296,,0,,1,268.0297,268.0297,268.0306,269.5247,0,5,5,5,1,0.6,0.4,0.6,0.4,1,0,,,,,,,,,,,,,,,,,,,,,,,,,,,,,,,,,,,,
,,669fd80763ececdab3e50eea,66daf7dafa100b3036805c57,2024-09-06_13h39.52.625,mdp,2024.2.1,Win32,59.88023952,66d7945b1baad48e845df3ce,,,,,,,,,,,,,,,,,,,,,269.5252,269.5253,269.5273,270.7081,1,0,right,0.6563,,270.7098,270.7109,,0,,270.7119,270.7133,,1,,1,270.7134,270.7134,270.7144,272.2077,0,6,6,6,1,0.8,0.2,0.8,0.2,1,0,,,,,,,,,,,,,,,,,,,,,,,,,,,,,,,,,,,,
,,669fd80763ececdab3e50eea,66daf7dafa100b3036805c57,2024-09-06_13h39.52.625,mdp,2024.2.1,Win32,59.88023952,66d7945b1baad48e845df3ce,,,,,,,,,,,,,,,,,,,,,272.2081,272.2081,272.21,273.3076,1,0,right,0.5671,,273.3089,273.3099,,0,,273.3108,273.3118,,0,,1,273.3118,273.3118,273.3128,274.8074,0,7,7,7,1,0.8,0.2,0.8,0.2,1,0,,,,,,,,,,,,,,,,,,,,,,,,,,,,,,,,,,,,
,,669fd80763ececdab3e50eea,66daf7dafa100b3036805c57,2024-09-06_13h39.52.625,mdp,2024.2.1,Win32,59.88023952,66d7945b1baad48e845df3ce,,,,,,,,,,,,,,,,,,,,,274.8078,274.8081,274.8097,275.9573,1,0,right,0.6172,,275.9587,275.9596,,0,,275.9606,275.9615,,0,,1,275.9615,275.9617,275.9625,277.457,0,8,8,8,1,0.8,0.2,0.8,0.2,1,0,,,,,,,,,,,,,,,,,,,,,,,,,,,,,,,,,,,,
,,669fd80763ececdab3e50eea,66daf7dafa100b3036805c57,2024-09-06_13h39.52.625,mdp,2024.2.1,Win32,59.88023952,66d7945b1baad48e845df3ce,,,,,,,,,,,,,,,,,,,,,277.4575,277.4575,277.4589,278.5404,1,0,right,0.551,,278.5417,278.543,,1,,278.544,278.5451,,1,,1,278.5451,278.5452,278.5462,280.0401,0,9,9,9,1,0.8,0.2,0.8,0.2,1,0,,,,,,,,,,,,,,,,,,,,,,,,,,,,,,,,,,,,
,,669fd80763ececdab3e50eea,66daf7dafa100b3036805c57,2024-09-06_13h39.52.625,mdp,2024.2.1,Win32,59.88023952,66d7945b1baad48e845df3ce,,,,,,,,,,,,,,,,,,,,,280.0405,280.0405,280.0418,281.09,1,0,right,0.5217,,281.0913,281.0923,,0,,281.0933,281.0941,,0,,1,281.0942,281.0942,281.0951,282.5895,0,10,10,10,1,0.8,0.2,0.8,0.2,1,0,,,,,,,,,,,,,,,,,,,,,,,,,,,,,,,,,,,,
,,669fd80763ececdab3e50eea,66daf7dafa100b3036805c57,2024-09-06_13h39.52.625,mdp,2024.2.1,Win32,59.88023952,66d7945b1baad48e845df3ce,,,,,,,,,,,,,,,,,,,,,282.5898,282.5898,282.5906,283.6227,1,0,right,0.5003,,283.6237,283.6245,,0,,283.625,283.6254,,1,,1,283.6255,283.6255,283.626,285.1226,0,11,11,11,1,0.6,0.4,0.4,0.6,1,0,,,,,,,,,,,,,,,,,,,,,,,,,,,,,,,,,,,,
,,669fd80763ececdab3e50eea,66daf7dafa100b3036805c57,2024-09-06_13h39.52.625,mdp,2024.2.1,Win32,59.88023952,66d7945b1baad48e845df3ce,,,,,,,,,,,,,,,,,,,,,285.1229,285.1229,285.1237,286.0057,1,1,right,0.3563,,286.0067,286.0073,,0,,286.0079,286.0084,,1,,0,286.0084,286.0084,286.0089,287.5056,0,12,12,12,1,0.6,0.4,0.4,0.6,1,0,,,,,,,,,,,,,,,,,,,,,,,,,,,,,,,,,,,,
,,669fd80763ececdab3e50eea,66daf7dafa100b3036805c57,2024-09-06_13h39.52.625,mdp,2024.2.1,Win32,59.88023952,66d7945b1baad48e845df3ce,,,,,,,,,,,,,,,,,,,,,287.5059,287.5059,287.5068,288.5056,1,1,right,0.4728,,288.5066,288.5075,,1,,288.5079,288.5084,,1,,0,288.5084,288.5084,288.5088,290.0052,0,13,13,13,1,0.8,0.2,0.6,0.4,1,0,,,,,,,,,,,,,,,,,,,,,,,,,,,,,,,,,,,,
,,669fd80763ececdab3e50eea,66daf7dafa100b3036805c57,2024-09-06_13h39.52.625,mdp,2024.2.1,Win32,59.88023952,66d7945b1baad48e845df3ce,,,,,,,,,,,,,,,,,,,,,290.0055,290.0055,290.0065,291.1886,1,0,right,0.6518,,291.1894,291.1901,,0,,291.1906,291.191,,0,,1,291.1911,291.1911,291.1914,292.6882,0,14,14,14,1,0.8,0.2,0.6,0.4,1,0,,,,,,,,,,,,,,,,,,,,,,,,,,,,,,,,,,,,
,,669fd80763ececdab3e50eea,66daf7dafa100b3036805c57,2024-09-06_13h39.52.625,mdp,2024.2.1,Win32,59.88023952,66d7945b1baad48e845df3ce,,,,,,,,,,,,,,,,,,,,,292.6885,292.6885,292.6893,293.8048,1,0,right,0.5839,,293.8057,293.8066,,1,,293.8073,293.808,,0,,1,293.808,293.808,293.8088,295.3047,0,15,15,15,1,0.8,0.2,0.6,0.4,1,0,,,,,,,,,,,,,,,,,,,,,,,,,,,,,,,,,,,,
,,669fd80763ececdab3e50eea,66daf7dafa100b3036805c57,2024-09-06_13h39.52.625,mdp,2024.2.1,Win32,59.88023952,66d7945b1baad48e845df3ce,,,,,,,,,,,,,,,,,,,,,295.3049,295.305,295.3059,296.8043,1,0,right,0.9759,,296.8055,296.8065,,0,,296.8073,296.8081,,0,,1,296.8081,296.8082,296.8093,298.3041,0,16,16,16,1,0.8,0.2,0.6,0.4,1,0,,,,,,,,,,,,,,,,,,,,,,,,,,,,,,,,,,,,
,,669fd80763ececdab3e50eea,66daf7dafa100b3036805c57,2024-09-06_13h39.52.625,mdp,2024.2.1,Win32,59.88023952,66d7945b1baad48e845df3ce,,,,,,,,,,,,,,,,,,,,,298.3046,298.3046,298.3055,300.004,1,0,right,1.1668,,300.0051,300.0059,,1,,300.0065,300.0069,,0,,1,300.0069,300.0069,300.0075,301.5041,0,17,17,17,1,0.6,0.4,0.4,0.6,1,0,,,,,,,,,,,,,,,,,,,,,,,,,,,,,,,,,,,,
,,669fd80763ececdab3e50eea,66daf7dafa100b3036805c57,2024-09-06_13h39.52.625,mdp,2024.2.1,Win32,59.88023952,66d7945b1baad48e845df3ce,,,,,,,,,,,,,,,,,,,,,301.5045,301.5045,301.5058,303.0208,1,1,right,0.9843,,303.0231,303.0241,,0,,303.0253,303.0262,,0,,0,303.0263,303.0263,303.0283,304.5204,0,18,18,18,1,0.6,0.4,0.4,0.6,1,0,,,,,,,,,,,,,,,,,,,,,,,,,,,,,,,,,,,,
,,669fd80763ececdab3e50eea,66daf7dafa100b3036805c57,2024-09-06_13h39.52.625,mdp,2024.2.1,Win32,59.88023952,66d7945b1baad48e845df3ce,,,,,,,,,,,,,,,,,,,,,304.5208,304.5208,304.5221,305.6203,0,1,left,0.5735,,305.6214,305.6223,,1,,305.6234,305.6243,,1,,0,305.6243,305.6244,305.6252,307.12,0,19,19,19,1,0.8,0.2,0.8,0.2,1,0,,,,,,,,,,,,,,,,,,,,,,,,,,,,,,,,,,,,
,,669fd80763ececdab3e50eea,66daf7dafa100b3036805c57,2024-09-06_13h39.52.625,mdp,2024.2.1,Win32,59.88023952,66d7945b1baad48e845df3ce,,,,,,,,,,,,,,,,,,,,,307.1205,307.1205,307.1215,308.0701,1,0,right,0.4245,,308.0722,308.0742,,0,,308.0759,308.0781,,0,,1,308.0781,308.0781,308.0794,309.5702,0,20,20,20,1,0.8,0.2,0.8,0.2,1,0,,,,,,,,,,,,,,,,,,,,,,,,,,,,,,,,,,,,
,,669fd80763ececdab3e50eea,66daf7dafa100b3036805c57,2024-09-06_13h39.52.625,mdp,2024.2.1,Win32,59.88023952,66d7945b1baad48e845df3ce,,,,,,,,,,,,,,,,,,,,,309.5708,309.5709,309.5729,310.7369,1,0,right,0.6399,,310.7395,310.7412,,0,,310.7434,310.7445,,0,,1,310.7446,310.7446,310.746,312.2361,0,21,21,21,1,0.8,0.2,0.8,0.2,1,0,,,,,,,,,,,,,,,,,,,,,,,,,,,,,,,,,,,,
,,669fd80763ececdab3e50eea,66daf7dafa100b3036805c57,2024-09-06_13h39.52.625,mdp,2024.2.1,Win32,59.88023952,66d7945b1baad48e845df3ce,,,,,,,,,,,,,,,,,,,,,312.2366,312.2366,312.2382,313.3694,1,0,right,0.6023,,313.3708,313.3717,,1,,313.3728,313.3738,,0,,1,313.3738,313.3738,313.3747,314.869,0,22,22,22,1,0.8,0.2,0.8,0.2,1,0,,,,,,,,,,,,,,,,,,,,,,,,,,,,,,,,,,,,
,,669fd80763ececdab3e50eea,66daf7dafa100b3036805c57,2024-09-06_13h39.52.625,mdp,2024.2.1,Win32,59.88023952,66d7945b1baad48e845df3ce,,,,,,,,,,,,,,,,,,,,,314.8695,314.8695,314.8708,316.0524,1,0,right,0.6534,,316.054,316.0551,,0,,316.0562,316.0573,,0,,1,316.0574,316.0574,316.0582,317.5522,0,23,23,23,1,0.8,0.2,0.8,0.2,1,0,,,,,,,,,,,,,,,,,,,,,,,,,,,,,,,,,,,,
,,669fd80763ececdab3e50eea,66daf7dafa100b3036805c57,2024-09-06_13h39.52.625,mdp,2024.2.1,Win32,59.88023952,66d7945b1baad48e845df3ce,,,,,,,,,,,,,,,,,,,,,317.5526,317.5526,317.5542,318.6521,1,1,right,0.5744,,318.6535,318.6545,,0,,318.6555,318.6563,,0,,0,318.6565,318.6565,318.6574,320.1515,0,24,24,24,1,0.8,0.2,0.8,0.2,1,0,,,,,,,,,,,,,,,,,,,,,,,,,,,,,,,,,,,,
,,669fd80763ececdab3e50eea,66daf7dafa100b3036805c57,2024-09-06_13h39.52.625,mdp,2024.2.1,Win32,59.88023952,66d7945b1baad48e845df3ce,,,,,,,,,,,,,,,,,,,,,320.1518,320.1518,320.1525,320.9849,1,0,right,0.3004,,320.9857,320.9864,,0,,320.9869,320.9873,,0,,1,320.9873,320.9873,320.9876,322.4846,0,25,25,25,1,0.8,0.2,0.8,0.2,1,0,,,,,,,,,,,,,,,,,,,,,,,,,,,,,,,,,,,,
,,669fd80763ececdab3e50eea,66daf7dafa100b3036805c57,2024-09-06_13h39.52.625,mdp,2024.2.1,Win32,59.88023952,66d7945b1baad48e845df3ce,,,,,,,,,,,,,,,,,,,,,322.4849,322.4849,322.4857,323.3177,1,0,right,0.3096,,323.3185,323.3193,,1,,323.3199,323.3203,,1,,1,323.3203,323.3203,323.3206,324.8177,0,26,26,26,1,0.8,0.2,0.8,0.2,1,0,,,,,,,,,,,,,,,,,,,,,,,,,,,,,,,,,,,,
,,669fd80763ececdab3e50eea,66daf7dafa100b3036805c57,2024-09-06_13h39.52.625,mdp,2024.2.1,Win32,59.88023952,66d7945b1baad48e845df3ce,,,,,,,,,,,,,,,,,,,,,324.818,324.818,324.8189,326.0341,1,0,right,0.6871,,326.0351,326.0357,,0,,326.0362,326.0366,,1,,1,326.0368,326.0368,326.0372,327.5339,0,27,27,27,1,0.8,0.2,0.8,0.2,1,0,,,,,,,,,,,,,,,,,,,,,,,,,,,,,,,,,,,,
,,669fd80763ececdab3e50eea,66daf7dafa100b3036805c57,2024-09-06_13h39.52.625,mdp,2024.2.1,Win32,59.88023952,66d7945b1baad48e845df3ce,,,,,,,,,,,,,,,,,,,,,327.5341,327.5341,327.535,328.8673,1,1,right,0.8041,,328.8682,328.8689,,0,,328.8693,328.8696,,0,,0,328.8697,328.8697,328.87,330.3668,0,28,28,28,1,0.8,0.2,0.8,0.2,1,0,,,,,,,,,,,,,,,,,,,,,,,,,,,,,,,,,,,,
,,669fd80763ececdab3e50eea,66daf7dafa100b3036805c57,2024-09-06_13h39.52.625,mdp,2024.2.1,Win32,59.88023952,66d7945b1baad48e845df3ce,,,,,,,,,,,,,,,,,,,,,330.3671,330.3671,330.3681,331.3669,1,0,right,0.4687,,331.3677,331.3683,,1,,331.3689,331.3692,,0,,1,331.3692,331.3692,331.3697,332.8667,0,29,29,29,1,0.8,0.2,0.8,0.2,1,0,,,,,,,,,,,,,,,,,,,,,,,,,,,,,,,,,,,,
,,669fd80763ececdab3e50eea,66daf7dafa100b3036805c57,2024-09-06_13h39.52.625,mdp,2024.2.1,Win32,59.88023952,66d7945b1baad48e845df3ce,,,,,,,,,,,,,,,,,,,,,332.8669,332.8669,332.8678,333.9665,1,1,right,0.568,,333.9674,333.968,,0,,333.9685,333.9689,,0,,0,333.9689,333.9689,333.9693,335.4665,0,30,30,30,1,0.8,0.2,0.8,0.2,1,0,,,,,,,,,,,,,,,,,,,,,,,,,,,,,,,,,,,,
,,669fd80763ececdab3e50eea,66daf7dafa100b3036805c57,2024-09-06_13h39.52.625,mdp,2024.2.1,Win32,59.88023952,66d7945b1baad48e845df3ce,,,,,,,,,,,,,,,,,,,,,335.4668,335.4668,335.4679,336.8661,1,1,right,0.8669,,336.867,336.8677,,0,,336.8683,336.8686,,1,,0,336.8687,336.8687,336.8691,338.3659,0,31,31,31,1,0.6,0.4,0.6,0.4,1,0,,,,,,,,,,,,,,,,,,,,,,,,,,,,,,,,,,,,
,,669fd80763ececdab3e50eea,66daf7dafa100b3036805c57,2024-09-06_13h39.52.625,mdp,2024.2.1,Win32,59.88023952,66d7945b1baad48e845df3ce,,,,,,,,,,,,,,,,,,,,,338.3662,338.3662,338.3669,339.216,1,1,right,0.3272,,339.2171,339.2176,,1,,339.2181,339.2185,,0,,0,339.2185,339.2186,339.219,340.7159,0,32,32,32,1,0.6,0.4,0.6,0.4,1,0,,,,,,,,,,,,,,,,,,,,,,,,,,,,,,,,,,,,
,,669fd80763ececdab3e50eea,66daf7dafa100b3036805c57,2024-09-06_13h39.52.625,mdp,2024.2.1,Win32,59.88023952,66d7945b1baad48e845df3ce,,,,,,,,,,,,,,,,,,,,,340.7162,340.7163,340.717,341.6489,1,1,right,0.3999,,341.6499,341.651,,0,,341.6518,341.6524,,0,,0,341.6524,341.6524,341.6531,343.1486,0,33,33,33,1,0.6,0.4,0.6,0.4,1,0,,,,,,,,,,,,,,,,,,,,,,,,,,,,,,,,,,,,
,,669fd80763ececdab3e50eea,66daf7dafa100b3036805c57,2024-09-06_13h39.52.625,mdp,2024.2.1,Win32,59.88023952,66d7945b1baad48e845df3ce,,,,,,,,,,,,,,,,,,,,,343.1488,343.1488,343.1496,343.982,0,0,left,0.3045,,343.9828,343.9833,,0,,343.9839,343.9843,,0,,1,343.9843,343.9843,343.9846,345.4816,0,34,34,34,1,0.6,0.4,0.6,0.4,1,0,,,,,,,,,,,,,,,,,,,,,,,,,,,,,,,,,,,,
,,669fd80763ececdab3e50eea,66daf7dafa100b3036805c57,2024-09-06_13h39.52.625,mdp,2024.2.1,Win32,59.88023952,66d7945b1baad48e845df3ce,,,,,,,,,,,,,,,,,,,,,345.4818,345.4818,345.4828,346.8317,0,1,left,0.817,,346.8325,346.8331,,0,,346.8337,346.8341,,0,,0,346.8341,346.8341,346.8344,348.3314,0,35,35,35,1,0.6,0.4,0.6,0.4,1,0,,,,,,,,,,,,,,,,,,,,,,,,,,,,,,,,,,,,
,,669fd80763ececdab3e50eea,66daf7dafa100b3036805c57,2024-09-06_13h39.52.625,mdp,2024.2.1,Win32,59.88023952,66d7945b1baad48e845df3ce,,,,,,,,,,,,,,,,,,,,,348.3317,348.3317,348.3325,349.1979,1,0,right,0.3339,,349.1988,349.1993,,0,,349.2,349.2004,,0,,1,349.2004,349.2004,349.201,350.6978,0,36,36,36,1,0.6,0.4,0.6,0.4,1,0,,,,,,,,,,,,,,,,,,,,,,,,,,,,,,,,,,,,
,,669fd80763ececdab3e50eea,66daf7dafa100b3036805c57,2024-09-06_13h39.52.625,mdp,2024.2.1,Win32,59.88023952,66d7945b1baad48e845df3ce,,,,,,,,,,,,,,,,,,,,,350.6981,350.6982,350.6988,352.231,1,0,right,1.0091,,352.2318,352.2324,,0,,352.2329,352.2333,,0,,1,352.2333,352.2333,352.2337,353.7311,0,37,37,37,1,0.8,0.2,0.8,0.2,1,0,,,,,,,,,,,,,,,,,,,,,,,,,,,,,,,,,,,,
,,669fd80763ececdab3e50eea,66daf7dafa100b3036805c57,2024-09-06_13h39.52.625,mdp,2024.2.1,Win32,59.88023952,66d7945b1baad48e845df3ce,,,,,,,,,,,,,,,,,,,,,353.7316,353.7317,353.7332,354.9311,1,0,right,0.6745,,354.9325,354.9335,,0,,354.9346,354.9355,,1,,1,354.9355,354.9355,354.9366,356.4307,0,38,38,38,1,0.8,0.2,0.8,0.2,1,0,,,,,,,,,,,,,,,,,,,,,,,,,,,,,,,,,,,,
,,669fd80763ececdab3e50eea,66daf7dafa100b3036805c57,2024-09-06_13h39.52.625,mdp,2024.2.1,Win32,59.88023952,66d7945b1baad48e845df3ce,,,,,,,,,,,,,,,,,,,,,356.4312,356.4312,356.4329,357.3639,1,0,right,0.4091,,357.3653,357.3667,,0,,357.3683,357.3692,,0,,1,357.3693,357.3693,357.3703,358.8637,0,39,39,39,1,0.8,0.2,0.8,0.2,1,0,,,,,,,,,,,,,,,,,,,,,,,,,,,,,,,,,,,,
,,669fd80763ececdab3e50eea,66daf7dafa100b3036805c57,2024-09-06_13h39.52.625,mdp,2024.2.1,Win32,59.88023952,66d7945b1baad48e845df3ce,,,,,,,,,,,,,,,,,,,,,358.8645,358.8645,358.8713,359.8138,1,0,right,0.4193,,359.815,359.8158,,0,,359.8169,359.8178,,0,,1,359.8179,359.8179,359.8188,361.3135,0,40,40,40,1,0.8,0.2,0.8,0.2,1,0,,,,,,,,,,,,,,,,,,,,,,,,,,,,,,,,,,,,
,,669fd80763ececdab3e50eea,66daf7dafa100b3036805c57,2024-09-06_13h39.52.625,mdp,2024.2.1,Win32,59.88023952,66d7945b1baad48e845df3ce,,,,,,,,,,,,,,,,,,,,,361.3139,361.3139,361.3152,362.3301,1,1,right,0.4895,,362.3315,362.3325,,0,,362.3335,362.3345,,0,,0,362.3346,362.3346,362.3356,363.8298,0,41,41,41,1,0.8,0.2,0.8,0.2,1,0,,,,,,,,,,,,,,,,,,,,,,,,,,,,,,,,,,,,
,,669fd80763ececdab3e50eea,66daf7dafa100b3036805c57,2024-09-06_13h39.52.625,mdp,2024.2.1,Win32,59.88023952,66d7945b1baad48e845df3ce,,,,,,,,,,,,,,,,,,,,,363.8302,363.8302,363.8316,364.8131,0,0,left,0.451,,364.8144,364.8153,,1,,364.8164,364.8172,,1,,1,364.8173,364.8173,364.8182,366.3128,0,42,42,42,1,0.8,0.2,0.8,0.2,1,0,,,,,,,,,,,,,,,,,,,,,,,,,,,,,,,,,,,,
,,669fd80763ececdab3e50eea,66daf7dafa100b3036805c57,2024-09-06_13h39.52.625,mdp,2024.2.1,Win32,59.88023952,66d7945b1baad48e845df3ce,,,,,,,,,,,,,,,,,,,,,366.3133,366.3133,366.3147,367.4292,0,0,left,0.5832,,367.4302,367.4309,,0,,367.4316,367.432,,0,,1,367.4321,367.4321,367.4326,368.9293,0,43,43,43,1,0.8,0.2,0.8,0.2,1,0,,,,,,,,,,,,,,,,,,,,,,,,,,,,,,,,,,,,
,,669fd80763ececdab3e50eea,66daf7dafa100b3036805c57,2024-09-06_13h39.52.625,mdp,2024.2.1,Win32,59.88023952,66d7945b1baad48e845df3ce,,,,,,,,,,,,,,,,,,,,,368.9298,368.9298,368.9314,369.8958,0,1,left,0.434,,369.8971,369.898,,0,,369.8991,369.8999,,0,,0,369.9001,369.9001,369.9011,371.3953,0,44,44,44,1,0.6,0.4,0.2,0.8,1,0,,,,,,,,,,,,,,,,,,,,,,,,,,,,,,,,,,,,
,,669fd80763ececdab3e50eea,66daf7dafa100b3036805c57,2024-09-06_13h39.52.625,mdp,2024.2.1,Win32,59.88023952,66d7945b1baad48e845df3ce,,,,,,,,,,,,,,,,,,,,,371.3955,371.3955,371.3964,372.3116,1,1,right,0.3946,,372.3124,372.3129,,1,,372.3134,372.3138,,1,,0,372.3139,372.3139,372.3143,373.8115,0,45,45,45,1,0.6,0.4,0.2,0.8,1,0,,,,,,,,,,,,,,,,,,,,,,,,,,,,,,,,,,,,
,,669fd80763ececdab3e50eea,66daf7dafa100b3036805c57,2024-09-06_13h39.52.625,mdp,2024.2.1,Win32,59.88023952,66d7945b1baad48e845df3ce,,,,,,,,,,,,,,,,,,,,,373.812,373.812,373.8128,374.7117,1,1,right,0.3671,,374.7125,374.7129,,1,,374.7134,374.7138,,0,,0,374.7138,374.7138,374.7143,376.2113,0,46,46,46,1,0.6,0.4,0.2,0.8,1,0,,,,,,,,,,,,,,,,,,,,,,,,,,,,,,,,,,,,
,,669fd80763ececdab3e50eea,66daf7dafa100b3036805c57,2024-09-06_13h39.52.625,mdp,2024.2.1,Win32,59.88023952,66d7945b1baad48e845df3ce,,,,,,,,,,,,,,,,,,,,,376.2115,376.2115,376.2123,376.8945,0,1,left,0.1506,,376.8954,376.8958,,1,,376.8964,376.8968,,0,,0,376.8968,376.8968,376.8973,378.3944,0,47,47,47,1,0.6,0.4,0.2,0.8,1,0,,,,,,,,,,,,,,,,,,,,,,,,,,,,,,,,,,,,
,,669fd80763ececdab3e50eea,66daf7dafa100b3036805c57,2024-09-06_13h39.52.625,mdp,2024.2.1,Win32,59.88023952,66d7945b1baad48e845df3ce,,,,,,,,,,,,,,,,,,,,,378.3946,378.3947,378.3953,379.6776,1,0,right,0.7502,,379.6783,379.6792,,0,,379.6797,379.6801,,1,,1,379.6802,379.6802,379.6807,381.1774,0,48,48,48,1,0.6,0.4,0.2,0.8,1,0,,,,,,,,,,,,,,,,,,,,,,,,,,,,,,,,,,,,
,,669fd80763ececdab3e50eea,66daf7dafa100b3036805c57,2024-09-06_13h39.52.625,mdp,2024.2.1,Win32,59.88023952,66d7945b1baad48e845df3ce,,,,,,,,,,,,,,,,,,,,,381.1776,381.1776,381.1784,382.1273,1,1,right,0.4179,,382.1281,382.1286,,1,,382.1291,382.1295,,1,,0,382.1295,382.1295,382.13,383.6271,0,49,49,49,1,0.6,0.4,0.2,0.8,1,0,,,,,,,,,,,,,,,,,,,,,,,,,,,,,,,,,,,,
,,669fd80763ececdab3e50eea,66daf7dafa100b3036805c57,2024-09-06_13h39.52.625,mdp,2024.2.1,Win32,59.88023952,66d7945b1baad48e845df3ce,,,,,,,,,,,,,,,,,,,,,,,,,,,,,,,,,,,,,,,,,,,,,,,,,,,,,,,,383.6278,442.1377,0,0,0,4,1,imgs/cat.png,imgs/dog.png,imgs/kangaroo.png,imgs/goat.png,imgs/giraffe.png,,,,,,,,,,,,,,,,,,,,,,,,
,,669fd80763ececdab3e50eea,66daf7dafa100b3036805c57,2024-09-06_13h39.52.625,mdp,2024.2.1,Win32,59.88023952,66d7945b1baad48e845df3ce,,,,,,,,,,,,,,2,seqs/st2seq14.csv,442.1637,445.5536,space,2.8718,,445.5675,445.5675,445.5695,448.086,0,0,left,1.9909,,448.0877,451.7856,1,1,right,451.8128,451.8137,,1,,0,451.8137,451.8138,451.8147,453.3021,0,0,0,0,1,0.2,0.8,0.8,0.2,,,,,,,,,,,,,,,3.1495,,0.6,0.4,0.4,0.6,0.6,0.4,0.6,0.4,1,0,,,,,,,,,,,,
,,669fd80763ececdab3e50eea,66daf7dafa100b3036805c57,2024-09-06_13h39.52.625,mdp,2024.2.1,Win32,59.88023952,66d7945b1baad48e845df3ce,,,,,,,,,,,,,,,,,,,,,453.3026,453.3027,453.3039,454.5185,0,0,left,0.6876,,454.5198,455.7183,0,0,left,455.7196,455.7206,,1,,1,455.7206,455.7206,455.7216,457.2183,0,1,1,1,1,0.2,0.8,0.8,0.2,,,,,,,,,,,,,,,0.6727,,0.6,0.4,0.4,0.6,0.6,0.4,0.6,0.4,1,0,,,,,,,,,,,,
,,669fd80763ececdab3e50eea,66daf7dafa100b3036805c57,2024-09-06_13h39.52.625,mdp,2024.2.1,Win32,59.88023952,66d7945b1baad48e845df3ce,,,,,,,,,,,,,,,,,,,,,457.2188,457.2188,457.2201,458.9349,0,1,left,1.1844,,458.9365,460.6842,0,0,left,460.6852,460.6858,,1,,1,460.6859,460.6859,460.6864,462.184,0,2,2,2,1,0.2,0.8,0.8,0.2,,,,,,,,,,,,,,,1.199,,0.6,0.4,0.4,0.6,0.4,0.6,0.2,0.8,1,0,,,,,,,,,,,,
,,669fd80763ececdab3e50eea,66daf7dafa100b3036805c57,2024-09-06_13h39.52.625,mdp,2024.2.1,Win32,59.88023952,66d7945b1baad48e845df3ce,,,,,,,,,,,,,,,,,,,,,462.1844,462.1844,462.1851,463.7839,0,1,left,1.0668,,463.7848,465.2504,0,1,left,465.2513,465.2517,,0,,0,465.2519,465.2519,465.2523,466.7501,0,3,3,3,1,0.2,0.8,0.8,0.2,,,,,,,,,,,,,,,0.9381,,0.6,0.4,0.4,0.6,0.4,0.6,0.2,0.8,1,0,,,,,,,,,,,,
,,669fd80763ececdab3e50eea,66daf7dafa100b3036805c57,2024-09-06_13h39.52.625,mdp,2024.2.1,Win32,59.88023952,66d7945b1baad48e845df3ce,,,,,,,,,,,,,,,,,,,,,466.7504,466.7504,466.7513,468.2,0,0,left,0.924,,468.201,469.3498,0,0,left,469.3506,469.3514,,1,,1,469.3514,469.3514,469.3519,470.8496,0,4,4,4,1,0.2,0.8,0.8,0.2,,,,,,,,,,,,,,,0.6188,,0.6,0.4,0.4,0.6,0.4,0.6,0.2,0.8,1,0,,,,,,,,,,,,
,,669fd80763ececdab3e50eea,66daf7dafa100b3036805c57,2024-09-06_13h39.52.625,mdp,2024.2.1,Win32,59.88023952,66d7945b1baad48e845df3ce,,,,,,,,,,,,,,,,,,,,,470.8499,470.8499,470.8506,471.8663,0,1,left,0.4866,,471.8671,472.8162,1,1,right,472.817,472.8178,,1,,0,472.8178,472.8178,472.8184,474.3159,0,5,5,5,1,0.2,0.8,0.8,0.2,,,,,,,,,,,,,,,0.4175,,0.6,0.4,0.4,0.6,0.4,0.6,0.2,0.8,1,0,,,,,,,,,,,,
,,669fd80763ececdab3e50eea,66daf7dafa100b3036805c57,2024-09-06_13h39.52.625,mdp,2024.2.1,Win32,59.88023952,66d7945b1baad48e845df3ce,,,,,,,,,,,,,,,,,,,,,474.3161,474.3161,474.3169,475.4157,0,1,left,0.5669,,475.4166,477.0487,0,0,left,477.0497,477.0503,,1,,1,477.0503,477.0503,477.0508,478.5485,0,6,6,6,1,0.2,0.8,0.8,0.2,,,,,,,,,,,,,,,1.109,,0.6,0.4,0.4,0.6,0.4,0.6,0.2,0.8,1,0,,,,,,,,,,,,
,,669fd80763ececdab3e50eea,66daf7dafa100b3036805c57,2024-09-06_13h39.52.625,mdp,2024.2.1,Win32,59.88023952,66d7945b1baad48e845df3ce,,,,,,,,,,,,,,,,,,,,,478.5491,478.5491,478.5499,479.9484,0,1,left,0.874,,479.9492,481.1986,0,1,left,481.1998,481.2007,,0,,0,481.2007,481.2007,481.2016,482.6983,0,7,7,7,1,0.2,0.8,0.8,0.2,,,,,,,,,,,,,,,0.7177,,0.6,0.4,0.4,0.6,0.4,0.6,0.2,0.8,1,0,,,,,,,,,,,,
,,669fd80763ececdab3e50eea,66daf7dafa100b3036805c57,2024-09-06_13h39.52.625,mdp,2024.2.1,Win32,59.88023952,66d7945b1baad48e845df3ce,,,,,,,,,,,,,,,,,,,,,482.6988,482.6988,482.7001,483.865,0,1,left,0.634,,483.8664,485.1148,0,0,left,485.1162,485.117,,1,,1,485.1171,485.1171,485.118,486.6146,0,8,8,8,1,0.2,0.8,0.8,0.2,,,,,,,,,,,,,,,0.7221,,0.6,0.4,0.4,0.6,0.4,0.6,0.2,0.8,1,0,,,,,,,,,,,,
,,669fd80763ececdab3e50eea,66daf7dafa100b3036805c57,2024-09-06_13h39.52.625,mdp,2024.2.1,Win32,59.88023952,66d7945b1baad48e845df3ce,,,,,,,,,,,,,,,,,,,,,486.615,486.615,486.6163,487.5313,0,0,left,0.3935,,487.5325,488.9477,0,0,left,488.9491,488.9499,,1,,1,488.95,488.95,488.9509,490.4474,0,9,9,9,1,0.2,0.8,0.8,0.2,,,,,,,,,,,,,,,0.8766,,0.6,0.4,0.4,0.6,0.4,0.6,0.2,0.8,1,0,,,,,,,,,,,,
,,669fd80763ececdab3e50eea,66daf7dafa100b3036805c57,2024-09-06_13h39.52.625,mdp,2024.2.1,Win32,59.88023952,66d7945b1baad48e845df3ce,,,,,,,,,,,,,,,,,,,,,490.4478,490.4478,490.4494,491.6973,0,1,left,0.7182,,491.6986,492.897,1,1,right,492.8983,492.8996,,1,,0,492.8996,492.8996,492.9007,494.3969,0,10,10,10,1,0.2,0.8,0.8,0.2,,,,,,,,,,,,,,,0.669,,0.6,0.4,0.4,0.6,0.4,0.6,0.2,0.8,1,0,,,,,,,,,,,,
,,669fd80763ececdab3e50eea,66daf7dafa100b3036805c57,2024-09-06_13h39.52.625,mdp,2024.2.1,Win32,59.88023952,66d7945b1baad48e845df3ce,,,,,,,,,,,,,,,,,,,,,494.3976,494.3976,494.3992,495.3634,0,1,left,0.4435,,495.3646,496.4135,0,1,left,496.4148,496.4158,,1,,0,496.416,496.4161,496.417,497.9132,0,11,11,11,1,0.2,0.8,0.8,0.2,,,,,,,,,,,,,,,0.5339,,0.6,0.4,0.4,0.6,0.4,0.6,0.2,0.8,1,0,,,,,,,,,,,,
,,669fd80763ececdab3e50eea,66daf7dafa100b3036805c57,2024-09-06_13h39.52.625,mdp,2024.2.1,Win32,59.88023952,66d7945b1baad48e845df3ce,,,,,,,,,,,,,,,,,,,,,497.9136,497.9136,497.915,498.9631,0,1,left,0.5197,,498.9646,500.063,0,1,left,500.0644,500.0652,,1,,0,500.0654,500.0654,500.0663,501.5628,0,12,12,12,1,0.2,0.8,0.8,0.2,,,,,,,,,,,,,,,0.5708,,0.6,0.4,0.4,0.6,0.6,0.4,0.8,0.2,1,0,,,,,,,,,,,,
,,669fd80763ececdab3e50eea,66daf7dafa100b3036805c57,2024-09-06_13h39.52.625,mdp,2024.2.1,Win32,59.88023952,66d7945b1baad48e845df3ce,,,,,,,,,,,,,,,,,,,,,501.5632,501.5632,501.5646,502.496,0,1,left,0.4034,,502.4973,504.1292,1,0,right,504.1306,504.1315,,0,,1,504.1315,504.1315,504.1325,505.6288,0,13,13,13,1,0.2,0.8,0.8,0.2,,,,,,,,,,,,,,,1.1006,,0.4,0.6,0.8,0.2,0.6,0.4,0.8,0.2,1,0,,,,,,,,,,,,
,,669fd80763ececdab3e50eea,66daf7dafa100b3036805c57,2024-09-06_13h39.52.625,mdp,2024.2.1,Win32,59.88023952,66d7945b1baad48e845df3ce,,,,,,,,,,,,,,,,,,,,,505.6293,505.6293,505.6308,506.6619,0,1,left,0.51,,506.6627,507.6958,1,0,right,507.6978,507.6995,,1,,1,507.6996,507.6996,507.7011,509.1952,0,14,14,14,1,0.2,0.8,0.8,0.2,,,,,,,,,,,,,,,0.5238,,0.4,0.6,0.8,0.2,0.6,0.4,0.8,0.2,1,0,,,,,,,,,,,,
,,669fd80763ececdab3e50eea,66daf7dafa100b3036805c57,2024-09-06_13h39.52.625,mdp,2024.2.1,Win32,59.88023952,66d7945b1baad48e845df3ce,,,,,,,,,,,,,,,,,,,,,509.1958,509.1959,509.1975,510.3117,0,0,left,0.5864,,510.3133,511.9617,0,0,left,511.9636,511.9646,,0,,1,511.9646,511.9646,511.9657,513.4613,0,15,15,15,1,0.2,0.8,0.8,0.2,,,,,,,,,,,,,,,1.1116,,0.4,0.6,0.8,0.2,0.6,0.4,0.8,0.2,1,0,,,,,,,,,,,,
,,669fd80763ececdab3e50eea,66daf7dafa100b3036805c57,2024-09-06_13h39.52.625,mdp,2024.2.1,Win32,59.88023952,66d7945b1baad48e845df3ce,,,,,,,,,,,,,,,,,,,,,513.462,513.462,513.4636,514.4946,0,0,left,0.5039,,514.4965,515.9945,0,1,left,515.9959,515.9969,,0,,0,515.997,515.997,515.9978,517.4942,0,16,16,16,1,0.2,0.8,0.8,0.2,,,,,,,,,,,,,,,0.9748,,0.4,0.6,0.8,0.2,0.6,0.4,0.8,0.2,1,0,,,,,,,,,,,,
,,669fd80763ececdab3e50eea,66daf7dafa100b3036805c57,2024-09-06_13h39.52.625,mdp,2024.2.1,Win32,59.88023952,66d7945b1baad48e845df3ce,,,,,,,,,,,,,,,,,,,,,517.4946,517.4947,517.4964,518.6941,0,1,left,0.6674,,518.6958,520.2441,0,1,left,520.2456,520.2465,,0,,0,520.2466,520.2466,520.2478,521.7433,0,17,17,17,1,0.2,0.8,0.8,0.2,,,,,,,,,,,,,,,1.0168,,0.4,0.6,0.8,0.2,0.6,0.4,0.8,0.2,1,0,,,,,,,,,,,,
,,669fd80763ececdab3e50eea,66daf7dafa100b3036805c57,2024-09-06_13h39.52.625,mdp,2024.2.1,Win32,59.88023952,66d7945b1baad48e845df3ce,,,,,,,,,,,,,,,,,,,,,521.7436,521.7436,521.7447,522.7931,0,0,left,0.5164,,522.7939,523.9765,0,0,left,523.9773,523.9778,,1,,1,523.9778,523.9778,523.9784,525.4761,0,18,18,18,1,0.2,0.8,0.8,0.2,,,,,,,,,,,,,,,0.651,,0.4,0.6,0.8,0.2,0.6,0.4,0.8,0.2,1,0,,,,,,,,,,,,
,,669fd80763ececdab3e50eea,66daf7dafa100b3036805c57,2024-09-06_13h39.52.625,mdp,2024.2.1,Win32,59.88023952,66d7945b1baad48e845df3ce,,,,,,,,,,,,,,,,,,,,,525.4765,525.4765,525.4775,526.7264,0,1,left,0.7174,,526.7277,528.2595,1,0,right,528.261,528.2618,,0,,1,528.262,528.262,528.2629,529.7592,0,19,19,19,1,0.2,0.8,0.8,0.2,,,,,,,,,,,,,,,0.994,,0.4,0.6,0.8,0.2,0.6,0.4,0.8,0.2,1,0,,,,,,,,,,,,
,,669fd80763ececdab3e50eea,66daf7dafa100b3036805c57,2024-09-06_13h39.52.625,mdp,2024.2.1,Win32,59.88023952,66d7945b1baad48e845df3ce,,,,,,,,,,,,,,,,,,,,,529.7597,529.7597,529.761,530.7258,0,1,left,0.4413,,530.7274,532.509,0,1,left,532.5103,532.5112,,0,,0,532.5113,532.5113,532.5122,534.0087,0,20,20,20,1,0.2,0.8,0.8,0.2,,,,,,,,,,,,,,,1.2559,,0.4,0.6,0.8,0.2,0.6,0.4,0.8,0.2,1,0,,,,,,,,,,,,
,,669fd80763ececdab3e50eea,66daf7dafa100b3036805c57,2024-09-06_13h39.52.625,mdp,2024.2.1,Win32,59.88023952,66d7945b1baad48e845df3ce,,,,,,,,,,,,,,,,,,,,,534.0091,534.0092,534.0105,534.9253,0,0,left,0.3839,,534.9264,536.3085,0,0,left,536.3101,536.3111,,1,,1,536.3112,536.3112,536.312,537.8083,0,21,21,21,1,0.2,0.8,0.8,0.2,,,,,,,,,,,,,,,0.8436,,0.4,0.6,0.8,0.2,0.6,0.4,0.8,0.2,1,0,,,,,,,,,,,,
,,669fd80763ececdab3e50eea,66daf7dafa100b3036805c57,2024-09-06_13h39.52.625,mdp,2024.2.1,Win32,59.88023952,66d7945b1baad48e845df3ce,,,,,,,,,,,,,,,,,,,,,537.8086,537.8086,537.8099,538.6416,0,1,left,0.3078,,538.6428,540.008,1,0,right,540.0095,540.0104,,0,,1,540.0105,540.0105,540.0114,541.5078,0,22,22,22,1,0.2,0.8,0.8,0.2,,,,,,,,,,,,,,,0.8264,,0.4,0.6,0.8,0.2,0.6,0.4,0.8,0.2,1,0,,,,,,,,,,,,
,,669fd80763ececdab3e50eea,66daf7dafa100b3036805c57,2024-09-06_13h39.52.625,mdp,2024.2.1,Win32,59.88023952,66d7945b1baad48e845df3ce,,,,,,,,,,,,,,,,,,,,,541.5083,541.5083,541.51,542.6077,0,1,left,0.5668,,542.6089,545.8407,0,0,left,545.8423,545.8432,,1,,1,545.8432,545.8433,545.8441,547.3403,0,23,23,23,1,0.6,0.4,0.2,0.8,,,,,,,,,,,,,,,2.7027,,0.4,0.6,0.8,0.2,0.6,0.4,0.8,0.2,1,0,,,,,,,,,,,,
,,669fd80763ececdab3e50eea,66daf7dafa100b3036805c57,2024-09-06_13h39.52.625,mdp,2024.2.1,Win32,59.88023952,66d7945b1baad48e845df3ce,,,,,,,,,,,,,,,,,,,,,547.3407,547.3408,547.3423,548.9567,0,0,left,1.0924,,548.9575,551.3064,0,0,left,551.3077,551.3086,,1,,1,551.3086,551.3087,551.3092,552.8062,0,24,24,24,1,0.6,0.4,0.2,0.8,,,,,,,,,,,,,,,1.8158,,0.4,0.6,0.8,0.2,0.6,0.4,0.8,0.2,1,0,,,,,,,,,,,,
,,669fd80763ececdab3e50eea,66daf7dafa100b3036805c57,2024-09-06_13h39.52.625,mdp,2024.2.1,Win32,59.88023952,66d7945b1baad48e845df3ce,,,,,,,,,,,,,,,,,,,,,552.8064,552.8064,552.8072,554.1395,0,0,left,0.8001,,554.1403,556.5391,0,1,left,556.5509,556.5514,,1,,0,556.5514,556.5514,556.5518,558.0556,0,25,25,25,1,0.6,0.4,0.2,0.8,,,,,,,,,,,,,,,1.8743,,0.4,0.6,0.8,0.2,0.6,0.4,0.8,0.2,1,0,,,,,,,,,,,,
,,669fd80763ececdab3e50eea,66daf7dafa100b3036805c57,2024-09-06_13h39.52.625,mdp,2024.2.1,Win32,59.88023952,66d7945b1baad48e845df3ce,,,,,,,,,,,,,,,,,,,,,558.0559,558.0559,558.0567,558.9389,0,1,left,0.3504,,558.9398,560.7385,1,0,right,560.7394,560.7401,,0,,1,560.7401,560.7401,560.7407,562.2383,0,26,26,26,1,0.6,0.4,0.2,0.8,,,,,,,,,,,,,,,1.2626,,0.4,0.6,0.8,0.2,0.6,0.4,0.8,0.2,1,0,,,,,,,,,,,,
,,669fd80763ececdab3e50eea,66daf7dafa100b3036805c57,2024-09-06_13h39.52.625,mdp,2024.2.1,Win32,59.88023952,66d7945b1baad48e845df3ce,,,,,,,,,,,,,,,,,,,,,562.2386,562.2386,562.2395,563.1882,0,0,left,0.423,,563.1893,564.4882,0,1,left,564.4891,564.4898,,1,,0,564.4898,564.4898,564.4904,565.9878,0,27,27,27,1,0.6,0.4,0.2,0.8,,,,,,,,,,,,,,,0.7682,,0.4,0.6,0.8,0.2,0.6,0.4,0.8,0.2,1,0,,,,,,,,,,,,
,,669fd80763ececdab3e50eea,66daf7dafa100b3036805c57,2024-09-06_13h39.52.625,mdp,2024.2.1,Win32,59.88023952,66d7945b1baad48e845df3ce,,,,,,,,,,,,,,,,,,,,,565.988,565.988,565.9887,566.9211,0,1,left,0.4014,,566.9224,568.3543,1,0,right,568.3557,568.3567,,0,,1,568.3567,568.3567,568.3574,569.854,0,28,28,28,1,0.6,0.4,0.2,0.8,,,,,,,,,,,,,,,0.901,,0.4,0.6,0.8,0.2,0.6,0.4,0.8,0.2,1,0,,,,,,,,,,,,
,,669fd80763ececdab3e50eea,66daf7dafa100b3036805c57,2024-09-06_13h39.52.625,mdp,2024.2.1,Win32,59.88023952,66d7945b1baad48e845df3ce,,,,,,,,,,,,,,,,,,,,,569.8543,569.8543,569.8553,570.8372,0,1,left,0.4591,,570.8381,572.2537,1,0,right,572.2547,572.2554,,0,,1,572.2554,572.2554,572.2559,573.7536,0,29,29,29,1,0.6,0.4,0.2,0.8,,,,,,,,,,,,,,,0.8866,,0.4,0.6,0.8,0.2,0.6,0.4,0.8,0.2,1,0,,,,,,,,,,,,
,,669fd80763ececdab3e50eea,66daf7dafa100b3036805c57,2024-09-06_13h39.52.625,mdp,2024.2.1,Win32,59.88023952,66d7945b1baad48e845df3ce,,,,,,,,,,,,,,,,,,,,,573.7539,573.7539,573.7546,574.9201,0,0,left,0.6371,,574.9209,576.0533,0,1,left,576.0542,576.0548,,0,,0,576.0548,576.0548,576.0553,577.553,0,30,30,30,1,0.6,0.4,0.2,0.8,,,,,,,,,,,,,,,0.6027,,0.4,0.6,0.8,0.2,0.6,0.4,0.8,0.2,1,0,,,,,,,,,,,,
,,669fd80763ececdab3e50eea,66daf7dafa100b3036805c57,2024-09-06_13h39.52.625,mdp,2024.2.1,Win32,59.88023952,66d7945b1baad48e845df3ce,,,,,,,,,,,,,,,,,,,,,577.5534,577.5534,577.5542,578.4197,0,0,left,0.3348,,578.4207,580.2195,0,1,left,580.2205,580.221,,0,,0,580.221,580.221,580.2215,581.7192,0,31,31,31,1,0.6,0.4,0.2,0.8,,,,,,,,,,,,,,,1.2671,,0.4,0.6,0.8,0.2,0.6,0.4,0.8,0.2,1,0,,,,,,,,,,,,
,,669fd80763ececdab3e50eea,66daf7dafa100b3036805c57,2024-09-06_13h39.52.625,mdp,2024.2.1,Win32,59.88023952,66d7945b1baad48e845df3ce,,,,,,,,,,,,,,,,,,,,,581.7197,581.7197,581.7207,582.6026,0,0,left,0.3505,,582.6035,583.9357,0,1,left,583.9366,583.9372,,1,,0,583.9372,583.9372,583.9377,585.4356,0,32,32,32,1,0.6,0.4,0.2,0.8,,,,,,,,,,,,,,,0.8004,,0.4,0.6,0.8,0.2,0.6,0.4,0.8,0.2,1,0,,,,,,,,,,,,
,,669fd80763ececdab3e50eea,66daf7dafa100b3036805c57,2024-09-06_13h39.52.625,mdp,2024.2.1,Win32,59.88023952,66d7945b1baad48e845df3ce,,,,,,,,,,,,,,,,,,,,,585.4359,585.4359,585.4369,586.3854,0,0,left,0.4173,,586.3862,587.3685,1,1,right,587.3693,587.3698,,0,,0,587.3699,587.3699,587.3704,588.8683,0,33,33,33,1,0.8,0.2,0.6,0.4,,,,,,,,,,,,,,,0.4599,,0.4,0.6,0.8,0.2,0.6,0.4,0.8,0.2,1,0,,,,,,,,,,,,
,,669fd80763ececdab3e50eea,66daf7dafa100b3036805c57,2024-09-06_13h39.52.625,mdp,2024.2.1,Win32,59.88023952,66d7945b1baad48e845df3ce,,,,,,,,,,,,,,,,,,,,,588.8687,588.8687,588.87,589.7016,0,1,left,0.3016,,589.7025,590.9182,1,0,right,590.919,590.9197,,0,,1,590.9197,590.9197,590.9202,592.418,0,34,34,34,1,0.8,0.2,0.6,0.4,,,,,,,,,,,,,,,0.68,,0.4,0.6,0.8,0.2,0.6,0.4,0.8,0.2,1,0,,,,,,,,,,,,
,,669fd80763ececdab3e50eea,66daf7dafa100b3036805c57,2024-09-06_13h39.52.625,mdp,2024.2.1,Win32,59.88023952,66d7945b1baad48e845df3ce,,,,,,,,,,,,,,,,,,,,,592.4183,592.4183,592.4189,593.3846,0,0,left,0.4337,,593.3853,595.3177,0,1,left,595.3187,595.3193,,1,,0,595.3193,595.3193,595.3198,596.8175,0,35,35,35,1,0.4,0.6,0.8,0.2,,,,,,,,,,,,,,,1.3976,,0.4,0.6,0.8,0.2,0.6,0.4,0.8,0.2,1,0,,,,,,,,,,,,
,,669fd80763ececdab3e50eea,66daf7dafa100b3036805c57,2024-09-06_13h39.52.625,mdp,2024.2.1,Win32,59.88023952,66d7945b1baad48e845df3ce,,,,,,,,,,,,,,,,,,,,,596.8177,596.8177,596.8185,600.0337,0,0,left,2.6912,,600.0347,600.9668,1,1,right,600.9677,600.9682,,0,,0,600.9683,600.9683,600.9688,602.4667,0,36,36,36,1,0.8,0.2,0.2,0.8,,,,,,,,,,,,,,,0.4082,,0.4,0.6,0.8,0.2,0.6,0.4,0.8,0.2,1,0,,,,,,,,,,,,
,,669fd80763ececdab3e50eea,66daf7dafa100b3036805c57,2024-09-06_13h39.52.625,mdp,2024.2.1,Win32,59.88023952,66d7945b1baad48e845df3ce,,,,,,,,,,,,,,,,,,,,,602.467,602.467,602.4678,603.4166,0,1,left,0.417,,603.4174,604.8164,1,0,right,604.8174,604.8179,,1,,1,604.818,604.818,604.8186,606.3161,0,37,37,37,1,0.2,0.8,0.8,0.2,,,,,,,,,,,,,,,0.8635,,0.4,0.6,0.8,0.2,0.6,0.4,0.8,0.2,1,0,,,,,,,,,,,,
,,669fd80763ececdab3e50eea,66daf7dafa100b3036805c57,2024-09-06_13h39.52.625,mdp,2024.2.1,Win32,59.88023952,66d7945b1baad48e845df3ce,,,,,,,,,,,,,,,,,,,,,606.3164,606.3164,606.3173,607.2994,0,1,left,0.4572,,607.3003,609.0326,1,0,right,609.0336,609.0344,,0,,1,609.0344,609.0345,609.0349,610.5324,0,38,38,38,1,0.2,0.8,0.8,0.2,,,,,,,,,,,,,,,1.2012,,0.4,0.6,0.8,0.2,0.6,0.4,0.8,0.2,1,0,,,,,,,,,,,,
,,669fd80763ececdab3e50eea,66daf7dafa100b3036805c57,2024-09-06_13h39.52.625,mdp,2024.2.1,Win32,59.88023952,66d7945b1baad48e845df3ce,,,,,,,,,,,,,,,,,,,,,610.5327,610.5327,610.5336,611.4323,0,0,left,0.3672,,611.4332,612.7821,1,1,right,612.783,612.7835,,0,,0,612.7835,612.7835,612.784,614.2819,0,39,39,39,1,0.2,0.8,0.8,0.2,,,,,,,,,,,,,,,0.8162,,0.4,0.6,0.8,0.2,0.6,0.4,0.8,0.2,1,0,,,,,,,,,,,,
,,669fd80763ececdab3e50eea,66daf7dafa100b3036805c57,2024-09-06_13h39.52.625,mdp,2024.2.1,Win32,59.88023952,66d7945b1baad48e845df3ce,,,,,,,,,,,,,,,,,,,,,614.2821,614.2821,614.283,615.2318,0,0,left,0.4172,,615.2327,616.2484,0,1,left,616.2494,616.25,,1,,0,616.25,616.25,616.2505,617.7482,0,40,40,40,1,0.2,0.8,0.8,0.2,,,,,,,,,,,,,,,0.4923,,0.4,0.6,0.8,0.2,0.6,0.4,0.8,0.2,1,0,,,,,,,,,,,,
,,669fd80763ececdab3e50eea,66daf7dafa100b3036805c57,2024-09-06_13h39.52.625,mdp,2024.2.1,Win32,59.88023952,66d7945b1baad48e845df3ce,,,,,,,,,,,,,,,,,,,,,617.7485,617.7485,617.7492,618.6814,0,1,left,0.408,,618.6823,619.9313,1,1,right,619.9323,619.9329,,0,,0,619.9329,619.9329,619.9334,621.431,0,41,41,41,1,0.2,0.8,0.8,0.2,,,,,,,,,,,,,,,0.7135,,0.4,0.6,0.8,0.2,0.6,0.4,0.8,0.2,1,0,,,,,,,,,,,,
,,669fd80763ececdab3e50eea,66daf7dafa100b3036805c57,2024-09-06_13h39.52.625,mdp,2024.2.1,Win32,59.88023952,66d7945b1baad48e845df3ce,,,,,,,,,,,,,,,,,,,,,621.4313,621.4313,621.4321,622.4143,0,1,left,0.4506,,622.4151,623.7142,0,0,left,623.7151,623.7158,,1,,1,623.7158,623.7158,623.7162,625.2138,0,42,42,42,1,0.2,0.8,0.8,0.2,,,,,,,,,,,,,,,0.7752,,0.4,0.6,0.8,0.2,0.6,0.4,0.8,0.2,1,0,,,,,,,,,,,,
,,669fd80763ececdab3e50eea,66daf7dafa100b3036805c57,2024-09-06_13h39.52.625,mdp,2024.2.1,Win32,59.88023952,66d7945b1baad48e845df3ce,,,,,,,,,,,,,,,,,,,,,625.2142,625.2142,625.2149,627.1303,0,0,left,1.391,,627.1313,628.714,0,1,left,628.7155,628.7164,,0,,0,628.7165,628.7165,628.7174,630.2136,0,43,43,43,1,0.2,0.8,0.8,0.2,,,,,,,,,,,,,,,1.0587,,0.4,0.6,0.8,0.2,0.6,0.4,0.8,0.2,1,0,,,,,,,,,,,,
,,669fd80763ececdab3e50eea,66daf7dafa100b3036805c57,2024-09-06_13h39.52.625,mdp,2024.2.1,Win32,59.88023952,66d7945b1baad48e845df3ce,,,,,,,,,,,,,,,,,,,,,630.2141,630.2141,630.2156,631.3303,0,1,left,0.584,,631.3316,632.6967,1,0,right,632.6982,632.6991,,0,,1,632.6991,632.6991,632.7003,634.1966,0,44,44,44,1,0.2,0.8,0.8,0.2,,,,,,,,,,,,,,,0.8276,,0.4,0.6,0.8,0.2,0.6,0.4,0.8,0.2,1,0,,,,,,,,,,,,
,,669fd80763ececdab3e50eea,66daf7dafa100b3036805c57,2024-09-06_13h39.52.625,mdp,2024.2.1,Win32,59.88023952,66d7945b1baad48e845df3ce,,,,,,,,,,,,,,,,,,,,,634.1971,634.1971,634.1984,635.5793,0,1,left,0.8495,,635.5802,637.3124,1,0,right,637.3133,637.3138,,0,,1,637.3138,637.3138,637.3144,638.8123,0,45,45,45,1,0.2,0.8,0.8,0.2,,,,,,,,,,,,,,,1.2005,,0.4,0.6,0.8,0.2,0.6,0.4,0.8,0.2,1,0,,,,,,,,,,,,
,,669fd80763ececdab3e50eea,66daf7dafa100b3036805c57,2024-09-06_13h39.52.625,mdp,2024.2.1,Win32,59.88023952,66d7945b1baad48e845df3ce,,,,,,,,,,,,,,,,,,,,,638.8127,638.8127,638.8133,639.8287,0,1,left,0.4904,,639.8294,641.6454,0,1,left,641.6462,641.6466,,0,,0,641.6467,641.6467,641.6473,643.1451,0,46,46,46,1,0.2,0.8,0.8,0.2,,,,,,,,,,,,,,,1.3065,,0.4,0.6,0.8,0.2,0.6,0.4,0.8,0.2,1,0,,,,,,,,,,,,
,,669fd80763ececdab3e50eea,66daf7dafa100b3036805c57,2024-09-06_13h39.52.625,mdp,2024.2.1,Win32,59.88023952,66d7945b1baad48e845df3ce,,,,,,,,,,,,,,,,,,,,,643.1454,643.1454,643.1462,644.0951,0,1,left,0.4205,,644.0959,645.3949,1,0,right,645.3958,645.3962,,0,,1,645.3963,645.3963,645.3971,646.8946,0,47,47,47,1,0.2,0.8,0.8,0.2,,,,,,,,,,,,,,,0.7671,,0.4,0.6,0.8,0.2,0.6,0.4,0.8,0.2,1,0,,,,,,,,,,,,
,,669fd80763ececdab3e50eea,66daf7dafa100b3036805c57,2024-09-06_13h39.52.625,mdp,2024.2.1,Win32,59.88023952,66d7945b1baad48e845df3ce,,,,,,,,,,,,,,,,,,,,,646.8949,646.8949,646.8956,647.8445,0,1,left,0.4173,,647.8452,649.2776,1,0,right,649.2783,649.2788,,0,,1,649.2789,649.2789,649.2795,650.7775,0,48,48,48,1,0.2,0.8,0.8,0.2,,,,,,,,,,,,,,,0.8998,,0.4,0.6,0.8,0.2,0.6,0.4,0.8,0.2,1,0,,,,,,,,,,,,
,,669fd80763ececdab3e50eea,66daf7dafa100b3036805c57,2024-09-06_13h39.52.625,mdp,2024.2.1,Win32,59.88023952,66d7945b1baad48e845df3ce,,,,,,,,,,,,,,,,,,,,,650.7778,650.7778,650.7786,652.7116,0,1,left,1.4022,,652.7141,653.9449,1,0,right,653.9471,653.9488,,0,,1,653.9489,653.9489,653.9506,655.4446,0,49,49,49,1,0.2,0.8,0.8,0.2,,,,,,,,,,,,,,,0.7015,,0.6,0.4,0.2,0.8,0.6,0.4,0.8,0.2,1,0,,,,,,,,,,,,
,,669fd80763ececdab3e50eea,66daf7dafa100b3036805c57,2024-09-06_13h39.52.625,mdp,2024.2.1,Win32,59.88023952,66d7945b1baad48e845df3ce,,,,,,,,,,,,,,,,,,,,,,,,,,,,,,,,,,,,,,,,,,,,,,,,,,,,,,,,655.4447,713.9531,0,1,1,5,1,imgs/lion.png,imgs/dog.png,imgs/elephant.png,imgs/giraffe.png,imgs/kangaroo.png,,,,,,,,,,,,,,,,,,,,,,,,
,,669fd80763ececdab3e50eea,66daf7dafa100b3036805c57,2024-09-06_13h39.52.625,mdp,2024.2.1,Win32,59.88023952,66d7945b1baad48e845df3ce,,,,,,,,,,,,,,3,seqs/st3seq20.csv,713.9721,717.7025,space,3.2001,,717.7101,717.7101,717.7108,719.0023,0,1,left,0.7599,,719.0034,720.1357,0,0,left,720.1367,722.8854,0,0,left,1,722.8854,722.8854,722.8866,724.385,0,0,0,0,1,0.2,0.8,0.4,0.6,,,,,,,,,,,,,,,0.5986,,0.4,0.6,0.6,0.4,0.8,0.2,0.6,0.4,,,2.2094,,0.4,0.6,0.8,0.2,0.2,0.8,0.4,0.6,1,0
,,669fd80763ececdab3e50eea,66daf7dafa100b3036805c57,2024-09-06_13h39.52.625,mdp,2024.2.1,Win32,59.88023952,66d7945b1baad48e845df3ce,,,,,,,,,,,,,,,,,,,,,724.3856,724.3856,724.3864,726.0682,0,1,left,1.1536,,726.0693,727.2014,0,1,left,727.2024,728.4521,1,1,right,0,728.4522,728.4522,728.4543,729.9517,0,1,1,1,1,0.2,0.8,0.4,0.6,,,,,,,,,,,,,,,0.6004,,0.4,0.6,0.6,0.4,0.8,0.2,0.6,0.4,,,0.7286,,0.4,0.6,0.8,0.2,0.2,0.8,0.4,0.6,1,0
,,669fd80763ececdab3e50eea,66daf7dafa100b3036805c57,2024-09-06_13h39.52.625,mdp,2024.2.1,Win32,59.88023952,66d7945b1baad48e845df3ce,,,,,,,,,,,,,,,,,,,,,729.9527,729.9527,729.9548,730.9018,0,1,left,0.4179,,730.9041,731.8841,0,0,left,731.8851,733.1007,0,0,left,1,733.1007,733.1007,733.1017,734.6003,0,2,2,2,1,0.2,0.8,0.4,0.6,,,,,,,,,,,,,,,0.4505,,0.4,0.6,0.6,0.4,0.8,0.2,0.6,0.4,,,0.6802,,0.4,0.6,0.8,0.2,0.2,0.8,0.4,0.6,1,0
,,669fd80763ececdab3e50eea,66daf7dafa100b3036805c57,2024-09-06_13h39.52.625,mdp,2024.2.1,Win32,59.88023952,66d7945b1baad48e845df3ce,,,,,,,,,,,,,,,,,,,,,734.6007,734.6007,734.6014,735.6502,0,1,left,0.5182,,735.651,736.5168,0,1,left,736.5176,737.4667,0,0,left,1,737.4668,737.4668,737.4676,738.9664,0,3,3,3,1,0.2,0.8,0.4,0.6,,,,,,,,,,,,,,,0.3338,,0.4,0.6,0.6,0.4,0.8,0.2,0.6,0.4,,,0.4147,,0.4,0.6,0.8,0.2,0.2,0.8,0.4,0.6,1,0
,,669fd80763ececdab3e50eea,66daf7dafa100b3036805c57,2024-09-06_13h39.52.625,mdp,2024.2.1,Win32,59.88023952,66d7945b1baad48e845df3ce,,,,,,,,,,,,,,,,,,,,,738.9668,738.9668,738.9675,739.9332,0,1,left,0.4415,,739.9341,741.183,0,0,left,741.184,742.4996,0,1,left,0,742.4996,742.4996,742.5005,743.9992,0,4,4,4,1,0.2,0.8,0.4,0.6,,,,,,,,,,,,,,,0.717,,0.4,0.6,0.6,0.4,0.8,0.2,0.6,0.4,,,0.7799,,0.4,0.6,0.8,0.2,0.2,0.8,0.4,0.6,1,0
,,669fd80763ececdab3e50eea,66daf7dafa100b3036805c57,2024-09-06_13h39.52.625,mdp,2024.2.1,Win32,59.88023952,66d7945b1baad48e845df3ce,,,,,,,,,,,,,,,,,,,,,743.9997,743.9997,744.0005,744.9325,0,1,left,0.403,,744.9335,745.7992,0,0,left,745.8,748.782,0,1,left,0,748.7821,748.7821,748.7937,750.2819,0,5,5,5,1,0.2,0.8,0.4,0.6,,,,,,,,,,,,,,,0.3405,,0.4,0.6,0.6,0.4,0.8,0.2,0.6,0.4,,,2.4501,,0.4,0.6,0.8,0.2,0.8,0.2,0.2,0.8,1,0
,,669fd80763ececdab3e50eea,66daf7dafa100b3036805c57,2024-09-06_13h39.52.625,mdp,2024.2.1,Win32,59.88023952,66d7945b1baad48e845df3ce,,,,,,,,,,,,,,,,,,,,,750.2822,750.2822,750.2831,751.1152,0,1,left,0.3006,,751.1161,752.0817,0,0,left,752.0825,753.4147,1,0,right,1,753.4147,753.4147,753.4157,754.9146,0,6,6,6,1,0.2,0.8,0.4,0.6,,,,,,,,,,,,,,,0.4429,,0.4,0.6,0.6,0.4,0.8,0.2,0.6,0.4,,,0.8103,,0.4,0.6,0.8,0.2,0.8,0.2,0.2,0.8,1,0
,,669fd80763ececdab3e50eea,66daf7dafa100b3036805c57,2024-09-06_13h39.52.625,mdp,2024.2.1,Win32,59.88023952,66d7945b1baad48e845df3ce,,,,,,,,,,,,,,,,,,,,,754.9149,754.915,754.9159,755.8644,0,1,left,0.4172,,755.8653,757.5643,0,0,left,757.5652,759.6806,1,1,right,0,759.6807,759.6807,759.6815,761.1804,0,7,7,7,1,0.2,0.8,0.4,0.6,,,,,,,,,,,,,,,1.1867,,0.4,0.6,0.6,0.4,0.8,0.2,0.6,0.4,,,1.5872,,0.4,0.6,0.8,0.2,0.8,0.2,0.2,0.8,1,0
,,669fd80763ececdab3e50eea,66daf7dafa100b3036805c57,2024-09-06_13h39.52.625,mdp,2024.2.1,Win32,59.88023952,66d7945b1baad48e845df3ce,,,,,,,,,,,,,,,,,,,,,761.1808,761.1808,761.1817,762.0138,0,1,left,0.3053,,762.0147,762.8303,0,0,left,762.8312,764.2967,0,1,left,0,764.2968,764.2968,764.2977,765.7966,0,8,8,8,1,0.2,0.8,0.4,0.6,,,,,,,,,,,,,,,0.2925,,0.4,0.6,0.6,0.4,0.8,0.2,0.6,0.4,,,0.9335,,0.4,0.6,0.8,0.2,0.8,0.2,0.2,0.8,1,0
,,669fd80763ececdab3e50eea,66daf7dafa100b3036805c57,2024-09-06_13h39.52.625,mdp,2024.2.1,Win32,59.88023952,66d7945b1baad48e845df3ce,,,,,,,,,,,,,,,,,,,,,765.797,765.797,765.7977,766.6465,0,1,left,0.3171,,766.6474,767.5463,0,0,left,767.5472,768.58,1,0,right,1,768.5802,768.5802,768.582,770.0799,0,9,9,9,1,0.2,0.8,0.4,0.6,,,,,,,,,,,,,,,0.3765,,0.4,0.6,0.6,0.4,0.8,0.2,0.6,0.4,,,0.5241,,0.4,0.6,0.8,0.2,0.8,0.2,0.2,0.8,1,0
,,669fd80763ececdab3e50eea,66daf7dafa100b3036805c57,2024-09-06_13h39.52.625,mdp,2024.2.1,Win32,59.88023952,66d7945b1baad48e845df3ce,,,,,,,,,,,,,,,,,,,,,770.0806,770.0807,770.0823,770.8965,0,1,left,0.288,,770.8985,771.8132,0,0,left,771.8151,773.6462,1,0,right,1,773.6463,773.6463,773.648,775.146,0,10,10,10,1,0.2,0.8,0.4,0.6,,,,,,,,,,,,,,,0.3842,,0.2,0.8,0.4,0.6,0.8,0.2,0.6,0.4,,,1.3005,,0.4,0.6,0.8,0.2,0.8,0.2,0.2,0.8,1,0
,,669fd80763ececdab3e50eea,66daf7dafa100b3036805c57,2024-09-06_13h39.52.625,mdp,2024.2.1,Win32,59.88023952,66d7945b1baad48e845df3ce,,,,,,,,,,,,,,,,,,,,,775.1471,775.1472,775.1491,785.678,0,1,left,10.0035,,785.7084,786.6114,0,0,left,786.6131,787.5106,1,0,right,1,787.5106,787.5106,787.5113,789.0105,0,11,11,11,1,0.4,0.6,0.2,0.8,,,,,,,,,,,,,,,0.4026,,0.2,0.8,0.4,0.6,0.8,0.2,0.6,0.4,,,0.3741,,0.4,0.6,0.8,0.2,0.8,0.2,0.2,0.8,1,0
,,669fd80763ececdab3e50eea,66daf7dafa100b3036805c57,2024-09-06_13h39.52.625,mdp,2024.2.1,Win32,59.88023952,66d7945b1baad48e845df3ce,,,,,,,,,,,,,,,,,,,,,789.0108,789.0108,789.0117,790.2769,0,0,left,0.7371,,790.2778,792.0767,0,1,left,792.0775,793.2264,1,1,right,0,793.2264,793.2264,793.2272,794.7262,0,12,12,12,1,0.4,0.6,0.2,0.8,,,,,,,,,,,,,,,1.2703,,0.4,0.6,0.6,0.4,0.8,0.2,0.6,0.4,,,0.6131,,0.4,0.6,0.8,0.2,0.8,0.2,0.2,0.8,1,0
,,669fd80763ececdab3e50eea,66daf7dafa100b3036805c57,2024-09-06_13h39.52.625,mdp,2024.2.1,Win32,59.88023952,66d7945b1baad48e845df3ce,,,,,,,,,,,,,,,,,,,,,794.7266,794.7266,794.7274,795.5928,0,0,left,0.3415,,795.5936,796.5935,0,1,left,796.5952,797.8595,0,0,left,1,797.8595,797.8595,797.8609,799.3592,0,13,13,13,1,0.4,0.6,0.2,0.8,,,,,,,,,,,,,,,0.4838,,0.4,0.6,0.6,0.4,0.8,0.2,0.6,0.4,,,0.7401,,0.4,0.6,0.8,0.2,0.8,0.2,0.2,0.8,1,0
,,669fd80763ececdab3e50eea,66daf7dafa100b3036805c57,2024-09-06_13h39.52.625,mdp,2024.2.1,Win32,59.88023952,66d7945b1baad48e845df3ce,,,,,,,,,,,,,,,,,,,,,799.3597,799.3597,799.3608,800.2426,0,0,left,0.3577,,800.2439,801.209,0,0,left,801.21,802.592,1,0,right,1,802.5921,802.5921,802.5929,804.0918,0,14,14,14,1,0.4,0.6,0.2,0.8,,,,,,,,,,,,,,,0.4401,,0.4,0.6,0.6,0.4,0.8,0.2,0.6,0.4,,,0.8474,,0.4,0.6,0.8,0.2,0.8,0.2,0.2,0.8,1,0
,,669fd80763ececdab3e50eea,66daf7dafa100b3036805c57,2024-09-06_13h39.52.625,mdp,2024.2.1,Win32,59.88023952,66d7945b1baad48e845df3ce,,,,,,,,,,,,,,,,,,,,,804.0922,804.0922,804.0931,805.1584,0,0,left,0.5342,,805.1593,806.6416,0,1,left,806.6426,807.9415,0,0,left,1,807.9415,807.9415,807.9423,809.4412,0,15,15,15,1,0.4,0.6,0.2,0.8,,,,,,,,,,,,,,,0.9506,,0.4,0.6,0.6,0.4,0.8,0.2,0.6,0.4,,,0.7637,,0.4,0.6,0.8,0.2,0.8,0.2,0.2,0.8,1,0
,,669fd80763ececdab3e50eea,66daf7dafa100b3036805c57,2024-09-06_13h39.52.625,mdp,2024.2.1,Win32,59.88023952,66d7945b1baad48e845df3ce,,,,,,,,,,,,,,,,,,,,,809.4416,809.4416,809.4424,810.7411,0,0,left,0.7698,,810.7419,811.8743,0,1,left,811.8752,813.2575,0,0,left,1,813.2575,813.2575,813.2584,814.7572,0,16,16,16,1,0.4,0.6,0.2,0.8,,,,,,,,,,,,,,,0.6006,,0.4,0.6,0.6,0.4,0.8,0.2,0.6,0.4,,,0.8505,,0.4,0.6,0.8,0.2,0.8,0.2,0.2,0.8,1,0
,,669fd80763ececdab3e50eea,66daf7dafa100b3036805c57,2024-09-06_13h39.52.625,mdp,2024.2.1,Win32,59.88023952,66d7945b1baad48e845df3ce,,,,,,,,,,,,,,,,,,,,,814.7576,814.7576,814.7585,816.3904,0,0,left,1.1084,,816.3913,817.207,0,1,left,817.2078,819.2067,0,1,left,0,819.2067,819.2068,819.2077,820.7064,0,17,17,17,1,0.4,0.6,0.2,0.8,,,,,,,,,,,,,,,0.2896,,0.4,0.6,0.6,0.4,0.8,0.2,0.6,0.4,,,1.4694,,0.4,0.6,0.8,0.2,0.8,0.2,0.2,0.8,1,0
,,669fd80763ececdab3e50eea,66daf7dafa100b3036805c57,2024-09-06_13h39.52.625,mdp,2024.2.1,Win32,59.88023952,66d7945b1baad48e845df3ce,,,,,,,,,,,,,,,,,,,,,820.7068,820.7068,820.7077,821.8898,0,0,left,0.6531,,821.8913,822.7231,0,0,left,822.724,824.0562,1,1,right,0,824.0563,824.0563,824.0572,825.5558,0,18,18,18,1,0.4,0.6,0.2,0.8,,,,,,,,,,,,,,,0.3022,,0.4,0.6,0.6,0.4,0.8,0.2,0.6,0.4,,,0.8069,,0.4,0.6,0.8,0.2,0.8,0.2,0.2,0.8,1,0
,,669fd80763ececdab3e50eea,66daf7dafa100b3036805c57,2024-09-06_13h39.52.625,mdp,2024.2.1,Win32,59.88023952,66d7945b1baad48e845df3ce,,,,,,,,,,,,,,,,,,,,,825.5562,825.5562,825.557,826.1225,0,0,left,0.0338,,826.1234,826.6892,0,1,left,826.69,827.9557,0,0,left,1,827.9557,827.9557,827.9565,829.4554,0,19,19,19,1,0.4,0.6,0.2,0.8,,,,,,,,,,,,,,,0.0338,,0.2,0.8,0.4,0.6,0.8,0.2,0.6,0.4,,,0.7307,,0.4,0.6,0.8,0.2,0.8,0.2,0.2,0.8,1,0
,,669fd80763ececdab3e50eea,66daf7dafa100b3036805c57,2024-09-06_13h39.52.625,mdp,2024.2.1,Win32,59.88023952,66d7945b1baad48e845df3ce,,,,,,,,,,,,,,,,,,,,,829.4558,829.4558,829.4565,830.3554,0,1,left,0.3712,,830.3562,831.2219,0,0,left,831.2228,832.1386,0,0,left,1,832.1386,832.1386,832.1393,833.6382,0,20,20,20,1,0.4,0.6,0.2,0.8,,,,,,,,,,,,,,,0.3333,,0.2,0.8,0.4,0.6,0.8,0.2,0.6,0.4,,,0.3803,,0.4,0.6,0.8,0.2,0.8,0.2,0.2,0.8,1,0
,,669fd80763ececdab3e50eea,66daf7dafa100b3036805c57,2024-09-06_13h39.52.625,mdp,2024.2.1,Win32,59.88023952,66d7945b1baad48e845df3ce,,,,,,,,,,,,,,,,,,,,,833.6386,833.6386,833.6395,834.5715,0,1,left,0.4084,,834.5725,835.3381,0,1,left,835.339,836.2544,1,1,right,0,836.2544,836.2544,836.2553,837.7542,0,21,21,21,1,0.4,0.6,0.2,0.8,,,,,,,,,,,,,,,0.2335,,0.2,0.8,0.4,0.6,0.8,0.2,0.6,0.4,,,0.3802,,0.4,0.6,0.8,0.2,0.8,0.2,0.2,0.8,1,0
,,669fd80763ececdab3e50eea,66daf7dafa100b3036805c57,2024-09-06_13h39.52.625,mdp,2024.2.1,Win32,59.88023952,66d7945b1baad48e845df3ce,,,,,,,,,,,,,,,,,,,,,837.7546,837.7546,837.7555,838.7543,0,0,left,0.4668,,838.7551,839.4375,0,1,left,839.4385,840.3373,0,0,left,1,840.3375,840.3375,840.3385,841.8371,0,22,22,22,1,0.4,0.6,0.2,0.8,,,,,,,,,,,,,,,0.1464,,0.2,0.8,0.4,0.6,0.8,0.2,0.6,0.4,,,0.3684,,0.4,0.6,0.8,0.2,0.8,0.2,0.2,0.8,1,0
,,669fd80763ececdab3e50eea,66daf7dafa100b3036805c57,2024-09-06_13h39.52.625,mdp,2024.2.1,Win32,59.88023952,66d7945b1baad48e845df3ce,,,,,,,,,,,,,,,,,,,,,841.8376,841.8377,841.8385,842.7539,0,1,left,0.3868,,842.7549,843.5037,0,0,left,843.5046,844.2203,0,0,left,1,844.2203,844.2204,844.2212,845.72,0,23,23,23,1,0.4,0.6,0.2,0.8,,,,,,,,,,,,,,,0.2207,,0.2,0.8,0.4,0.6,0.8,0.2,0.6,0.4,,,0.1881,,0.4,0.6,0.8,0.2,0.8,0.2,0.2,0.8,1,0
,,669fd80763ececdab3e50eea,66daf7dafa100b3036805c57,2024-09-06_13h39.52.625,mdp,2024.2.1,Win32,59.88023952,66d7945b1baad48e845df3ce,,,,,,,,,,,,,,,,,,,,,845.7204,845.7204,845.7214,846.8033,0,1,left,0.5571,,846.8045,847.6198,0,0,left,847.6208,848.6036,0,1,left,0,848.6037,848.6038,848.6053,850.1033,0,24,24,24,1,0.4,0.6,0.2,0.8,,,,,,,,,,,,,,,0.29,,0.2,0.8,0.4,0.6,0.8,0.2,0.6,0.4,,,0.4584,,0.4,0.6,0.8,0.2,0.8,0.2,0.2,0.8,1,0
,,669fd80763ececdab3e50eea,66daf7dafa100b3036805c57,2024-09-06_13h39.52.625,mdp,2024.2.1,Win32,59.88023952,66d7945b1baad48e845df3ce,,,,,,,,,,,,,,,,,,,,,850.104,850.104,850.1063,850.9364,0,1,left,0.3009,,850.938,852.1031,0,0,left,852.1049,852.9367,1,0,right,1,852.9369,852.9369,852.9387,854.4361,0,25,25,25,1,0.4,0.6,0.2,0.8,,,,,,,,,,,,,,,0.6409,,0.2,0.8,0.4,0.6,0.8,0.2,0.6,0.4,,,0.3099,,0.4,0.6,0.8,0.2,0.8,0.2,0.2,0.8,1,0
,,669fd80763ececdab3e50eea,66daf7dafa100b3036805c57,2024-09-06_13h39.52.625,mdp,2024.2.1,Win32,59.88023952,66d7945b1baad48e845df3ce,,,,,,,,,,,,,,,,,,,,,854.437,854.4371,854.439,855.6025,0,0,left,0.6425,,855.6042,856.486,0,1,left,856.4876,857.3191,1,1,right,0,857.3192,857.3192,857.3213,858.8191,0,26,26,26,1,0.4,0.6,0.2,0.8,,,,,,,,,,,,,,,0.3579,,0.2,0.8,0.4,0.6,0.8,0.2,0.6,0.4,,,0.2965,,0.4,0.6,0.8,0.2,0.8,0.2,0.2,0.8,1,0
,,669fd80763ececdab3e50eea,66daf7dafa100b3036805c57,2024-09-06_13h39.52.625,mdp,2024.2.1,Win32,59.88023952,66d7945b1baad48e845df3ce,,,,,,,,,,,,,,,,,,,,,858.8197,858.8198,858.8216,860.9353,0,1,left,1.5899,,860.937,861.8349,0,0,left,861.8362,863.2014,1,0,right,1,863.2015,863.2015,863.2026,864.7012,0,27,27,27,1,0.4,0.6,0.2,0.8,,,,,,,,,,,,,,,0.3595,,0.2,0.8,0.4,0.6,0.8,0.2,0.6,0.4,,,0.8312,,0.4,0.6,0.8,0.2,0.8,0.2,0.2,0.8,1,0
,,669fd80763ececdab3e50eea,66daf7dafa100b3036805c57,2024-09-06_13h39.52.625,mdp,2024.2.1,Win32,59.88023952,66d7945b1baad48e845df3ce,,,,,,,,,,,,,,,,,,,,,864.7016,864.7016,864.7028,868.5841,1,1,right,3.3598,,868.5956,869.6171,1,0,right,869.6181,871.0502,0,0,left,1,871.0503,871.0503,871.0511,872.55,0,28,28,28,1,0.4,0.6,0.2,0.8,,,,,,,,,,,,,,,0.505,,0.2,0.8,0.4,0.6,0.8,0.2,0.6,0.4,,,0.9046,,0.4,0.6,0.8,0.2,0.8,0.2,0.2,0.8,1,0
,,669fd80763ececdab3e50eea,66daf7dafa100b3036805c57,2024-09-06_13h39.52.625,mdp,2024.2.1,Win32,59.88023952,66d7945b1baad48e845df3ce,,,,,,,,,,,,,,,,,,,,,872.5504,872.5504,872.5512,876.5495,0,0,left,3.4765,,876.561,877.4496,0,0,left,877.4506,878.9993,1,0,right,1,878.9993,878.9993,879.0001,880.4991,0,29,29,29,1,0.4,0.6,0.2,0.8,,,,,,,,,,,,,,,0.3635,,0.2,0.8,0.4,0.6,0.8,0.2,0.6,0.4,,,1.0167,,0.4,0.6,0.8,0.2,0.8,0.2,0.2,0.8,1,0
,,669fd80763ececdab3e50eea,66daf7dafa100b3036805c57,2024-09-06_13h39.52.625,mdp,2024.2.1,Win32,59.88023952,66d7945b1baad48e845df3ce,,,,,,,,,,,,,,,,,,,,,880.4995,880.4995,880.5004,883.2319,0,0,left,2.2085,,883.2329,884.1654,0,0,left,884.1664,885.8818,1,1,right,0,885.8819,885.8819,885.8827,887.3819,0,30,30,30,1,0.4,0.6,0.2,0.8,,,,,,,,,,,,,,,0.4224,,0.2,0.8,0.4,0.6,0.2,0.8,0.8,0.2,,,1.1839,,0.4,0.6,0.8,0.2,0.8,0.2,0.2,0.8,1,0
,,669fd80763ececdab3e50eea,66daf7dafa100b3036805c57,2024-09-06_13h39.52.625,mdp,2024.2.1,Win32,59.88023952,66d7945b1baad48e845df3ce,,,,,,,,,,,,,,,,,,,,,887.3824,887.3824,887.3838,888.5984,0,0,left,0.6858,,888.5999,889.4817,0,1,left,889.4831,890.4649,0,0,left,1,890.4649,890.4649,890.4661,891.9647,0,31,31,31,1,0.4,0.6,0.2,0.8,,,,,,,,,,,,,,,0.3508,,0.2,0.8,0.4,0.6,0.2,0.8,0.8,0.2,,,0.4425,,0.4,0.6,0.8,0.2,0.8,0.2,0.2,0.8,1,0
,,669fd80763ececdab3e50eea,66daf7dafa100b3036805c57,2024-09-06_13h39.52.625,mdp,2024.2.1,Win32,59.88023952,66d7945b1baad48e845df3ce,,,,,,,,,,,,,,,,,,,,,891.9652,891.9652,891.9667,893.2649,0,1,left,0.7768,,893.2667,894.2979,0,1,left,894.2992,895.3477,0,1,left,0,895.3477,895.3477,895.3491,896.8474,0,32,32,32,1,0.4,0.6,0.2,0.8,,,,,,,,,,,,,,,0.4927,,0.2,0.8,0.4,0.6,0.2,0.8,0.8,0.2,,,0.5173,,0.4,0.6,0.8,0.2,0.8,0.2,0.2,0.8,1,0
,,669fd80763ececdab3e50eea,66daf7dafa100b3036805c57,2024-09-06_13h39.52.625,mdp,2024.2.1,Win32,59.88023952,66d7945b1baad48e845df3ce,,,,,,,,,,,,,,,,,,,,,896.8479,896.8479,896.8493,898.1807,0,0,left,0.8005,,898.182,899.6473,0,1,left,899.6489,900.6135,1,0,right,1,900.6137,900.6137,900.6152,902.1135,0,33,33,33,1,0.8,0.2,0.4,0.6,,,,,,,,,,,,,,,0.9333,,0.2,0.8,0.4,0.6,0.2,0.8,0.8,0.2,,,0.4362,,0.4,0.6,0.8,0.2,0.8,0.2,0.2,0.8,1,0
,,669fd80763ececdab3e50eea,66daf7dafa100b3036805c57,2024-09-06_13h39.52.625,mdp,2024.2.1,Win32,59.88023952,66d7945b1baad48e845df3ce,,,,,,,,,,,,,,,,,,,,,902.1141,902.1141,902.1156,903.5466,0,0,left,0.9007,,903.5479,905.2796,0,1,left,905.2808,906.4128,1,1,right,0,906.4129,906.4129,906.4142,907.9126,0,34,34,34,1,0.8,0.2,0.4,0.6,,,,,,,,,,,,,,,1.2095,,0.2,0.8,0.4,0.6,0.2,0.8,0.8,0.2,,,0.602,,0.4,0.6,0.8,0.2,0.8,0.2,0.2,0.8,1,0
,,669fd80763ececdab3e50eea,66daf7dafa100b3036805c57,2024-09-06_13h39.52.625,mdp,2024.2.1,Win32,59.88023952,66d7945b1baad48e845df3ce,,,,,,,,,,,,,,,,,,,,,907.9133,907.9133,907.9146,909.1957,0,0,left,0.7505,,909.1972,911.3288,0,1,left,911.3297,912.5626,0,0,left,1,912.563,912.5631,912.565,914.0623,0,35,35,35,1,0.8,0.2,0.4,0.6,,,,,,,,,,,,,,,1.6165,,0.2,0.8,0.4,0.6,0.2,0.8,0.8,0.2,,,0.7092,,0.4,0.6,0.8,0.2,0.8,0.2,0.2,0.8,1,0
,,669fd80763ececdab3e50eea,66daf7dafa100b3036805c57,2024-09-06_13h39.52.625,mdp,2024.2.1,Win32,59.88023952,66d7945b1baad48e845df3ce,,,,,,,,,,,,,,,,,,,,,914.0633,914.0633,914.0652,916.1289,0,0,left,1.5342,,916.1309,917.9446,0,1,left,917.9456,919.1444,0,0,left,1,919.1445,919.1445,919.1454,920.6442,0,36,36,36,1,0.8,0.2,0.4,0.6,,,,,,,,,,,,,,,1.2832,,0.2,0.8,0.4,0.6,0.2,0.8,0.8,0.2,,,0.667,,0.4,0.6,0.8,0.2,0.8,0.2,0.2,0.8,1,0
,,669fd80763ececdab3e50eea,66daf7dafa100b3036805c57,2024-09-06_13h39.52.625,mdp,2024.2.1,Win32,59.88023952,66d7945b1baad48e845df3ce,,,,,,,,,,,,,,,,,,,,,920.6446,920.6446,920.6455,923.4772,0,0,left,2.3015,,923.478,924.5104,0,1,left,924.5114,925.6105,0,0,left,1,925.6106,925.6106,925.6115,927.11,0,37,37,37,1,0.8,0.2,0.4,0.6,,,,,,,,,,,,,,,0.504,,0.2,0.8,0.4,0.6,0.2,0.8,0.8,0.2,,,0.5774,,0.4,0.6,0.8,0.2,0.8,0.2,0.2,0.8,1,0
,,669fd80763ececdab3e50eea,66daf7dafa100b3036805c57,2024-09-06_13h39.52.625,mdp,2024.2.1,Win32,59.88023952,66d7945b1baad48e845df3ce,,,,,,,,,,,,,,,,,,,,,927.1104,927.1104,927.1114,928.3931,0,0,left,0.7579,,928.394,929.7096,0,1,left,929.7104,930.9263,0,0,left,1,930.9263,930.9263,930.9272,932.4262,0,38,38,38,1,0.8,0.2,0.4,0.6,,,,,,,,,,,,,,,0.7871,,0.2,0.8,0.4,0.6,0.2,0.8,0.8,0.2,,,0.684,,0.4,0.6,0.8,0.2,0.8,0.2,0.2,0.8,1,0
,,669fd80763ececdab3e50eea,66daf7dafa100b3036805c57,2024-09-06_13h39.52.625,mdp,2024.2.1,Win32,59.88023952,66d7945b1baad48e845df3ce,,,,,,,,,,,,,,,,,,,,,932.4268,932.4268,932.4281,933.8427,0,1,left,0.8932,,933.844,936.1426,0,1,left,936.1665,937.409,1,0,right,1,937.4091,937.4091,937.4102,938.9091,0,39,39,39,1,0.8,0.2,0.4,0.6,,,,,,,,,,,,,,,1.7777,,0.2,0.8,0.4,0.6,0.2,0.8,0.8,0.2,,,0.7337,,0.4,0.6,0.8,0.2,0.8,0.2,0.2,0.8,1,0
,,669fd80763ececdab3e50eea,66daf7dafa100b3036805c57,2024-09-06_13h39.52.625,mdp,2024.2.1,Win32,59.88023952,66d7945b1baad48e845df3ce,,,,,,,,,,,,,,,,,,,,,938.9095,938.9096,938.9108,940.8252,0,1,left,1.3838,,940.8265,942.3918,0,0,left,942.3931,944.5082,0,1,left,0,944.5082,944.5082,944.5094,946.0079,0,40,40,40,1,0.2,0.8,0.2,0.8,,,,,,,,,,,,,,,1.0338,,0.2,0.8,0.4,0.6,0.2,0.8,0.8,0.2,,,1.577,,0.4,0.6,0.8,0.2,0.8,0.2,0.2,0.8,1,0
,,669fd80763ececdab3e50eea,66daf7dafa100b3036805c57,2024-09-06_13h39.52.625,mdp,2024.2.1,Win32,59.88023952,66d7945b1baad48e845df3ce,,,,,,,,,,,,,,,,,,,,,946.0088,946.0088,946.0102,947.3578,0,0,left,0.8193,,947.3592,948.4744,0,1,left,948.4755,949.7076,0,0,left,1,949.7077,949.7077,949.7088,951.2071,0,41,41,41,1,0.4,0.6,0.4,0.6,,,,,,,,,,,,,,,0.5768,,0.2,0.8,0.4,0.6,0.2,0.8,0.8,0.2,,,0.6975,,0.4,0.6,0.8,0.2,0.8,0.2,0.2,0.8,1,0
,,669fd80763ececdab3e50eea,66daf7dafa100b3036805c57,2024-09-06_13h39.52.625,mdp,2024.2.1,Win32,59.88023952,66d7945b1baad48e845df3ce,,,,,,,,,,,,,,,,,,,,,951.2077,951.2077,951.209,952.407,0,1,left,0.6672,,952.4079,953.8235,0,1,left,953.8244,955.0066,0,0,left,1,955.0067,955.0067,955.0076,956.5063,0,42,42,42,1,0.4,0.6,0.4,0.6,,,,,,,,,,,,,,,0.8876,,0.2,0.8,0.4,0.6,0.2,0.8,0.8,0.2,,,0.6507,,0.4,0.6,0.8,0.2,0.8,0.2,0.2,0.8,1,0
,,669fd80763ececdab3e50eea,66daf7dafa100b3036805c57,2024-09-06_13h39.52.625,mdp,2024.2.1,Win32,59.88023952,66d7945b1baad48e845df3ce,,,,,,,,,,,,,,,,,,,,,956.5068,956.5068,956.5077,957.8897,0,1,left,0.8504,,957.8906,959.0061,0,1,left,959.007,960.156,0,0,left,1,960.1561,960.1561,960.1569,961.6558,0,43,43,43,1,0.4,0.6,0.4,0.6,,,,,,,,,,,,,,,0.5837,,0.2,0.8,0.4,0.6,0.2,0.8,0.8,0.2,,,0.6178,,0.4,0.6,0.8,0.2,0.8,0.2,0.2,0.8,1,0
,,669fd80763ececdab3e50eea,66daf7dafa100b3036805c57,2024-09-06_13h39.52.625,mdp,2024.2.1,Win32,59.88023952,66d7945b1baad48e845df3ce,,,,,,,,,,,,,,,,,,,,,961.6561,961.6561,961.657,963.4056,0,0,left,1.217,,963.4064,965.4221,0,1,left,965.423,966.6718,1,1,right,0,966.6718,966.6718,966.6727,968.1716,0,44,44,44,1,0.4,0.6,0.4,0.6,,,,,,,,,,,,,,,1.489,,0.2,0.8,0.4,0.6,0.2,0.8,0.8,0.2,,,0.717,,0.4,0.6,0.8,0.2,0.8,0.2,0.2,0.8,1,0
,,669fd80763ececdab3e50eea,66daf7dafa100b3036805c57,2024-09-06_13h39.52.625,mdp,2024.2.1,Win32,59.88023952,66d7945b1baad48e845df3ce,,,,,,,,,,,,,,,,,,,,,968.172,968.172,968.1729,969.4714,0,1,left,0.7701,,969.4723,970.8213,0,1,left,970.8223,971.8711,0,0,left,1,971.8711,971.8711,971.872,973.371,0,45,45,45,1,0.4,0.6,0.4,0.6,,,,,,,,,,,,,,,0.8206,,0.2,0.8,0.4,0.6,0.2,0.8,0.8,0.2,,,0.5251,,0.4,0.6,0.8,0.2,0.8,0.2,0.2,0.8,1,0
,,669fd80763ececdab3e50eea,66daf7dafa100b3036805c57,2024-09-06_13h39.52.625,mdp,2024.2.1,Win32,59.88023952,66d7945b1baad48e845df3ce,,,,,,,,,,,,,,,,,,,,,973.3714,973.3714,973.3722,974.3707,0,1,left,0.4694,,974.3716,975.3373,0,0,left,975.3382,977.2207,0,1,left,0,977.2207,977.2207,977.2216,978.7203,0,46,46,46,1,0.4,0.6,0.4,0.6,,,,,,,,,,,,,,,0.4354,,0.2,0.8,0.4,0.6,0.2,0.8,0.8,0.2,,,1.3684,,0.4,0.6,0.8,0.2,0.8,0.2,0.2,0.8,1,0
,,669fd80763ececdab3e50eea,66daf7dafa100b3036805c57,2024-09-06_13h39.52.625,mdp,2024.2.1,Win32,59.88023952,66d7945b1baad48e845df3ce,,,,,,,,,,,,,,,,,,,,,978.7207,978.7207,978.7216,979.6536,0,0,left,0.4004,,979.6544,980.6034,0,0,left,980.6042,981.7365,1,0,right,1,981.7366,981.7366,981.7374,983.2363,0,47,47,47,1,0.4,0.6,0.4,0.6,,,,,,,,,,,,,,,0.4235,,0.2,0.8,0.4,0.6,0.2,0.8,0.8,0.2,,,0.6085,,0.4,0.6,0.8,0.2,0.8,0.2,0.2,0.8,1,0
,,669fd80763ececdab3e50eea,66daf7dafa100b3036805c57,2024-09-06_13h39.52.625,mdp,2024.2.1,Win32,59.88023952,66d7945b1baad48e845df3ce,,,,,,,,,,,,,,,,,,,,,983.2368,983.2368,983.2375,984.2862,0,1,left,0.5173,,984.2873,985.3196,0,1,left,985.3205,986.8193,0,0,left,1,986.8194,986.8194,986.8202,988.3191,0,48,48,48,1,0.4,0.6,0.4,0.6,,,,,,,,,,,,,,,0.4966,,0.2,0.8,0.4,0.6,0.2,0.8,0.8,0.2,,,0.9632,,0.4,0.6,0.8,0.2,0.8,0.2,0.2,0.8,1,0
,,669fd80763ececdab3e50eea,66daf7dafa100b3036805c57,2024-09-06_13h39.52.625,mdp,2024.2.1,Win32,59.88023952,66d7945b1baad48e845df3ce,,,,,,,,,,,,,,,,,,,,,988.3195,988.3195,988.3202,989.2859,0,1,left,0.4341,,989.2869,990.1523,0,1,left,990.1533,991.2355,0,0,left,1,991.2356,991.2356,991.2364,992.7353,0,49,49,49,1,0.4,0.6,0.4,0.6,,,,,,,,,,,,,,,0.3336,,0.2,0.8,0.4,0.6,0.2,0.8,0.8,0.2,,,0.5508,,0.4,0.6,0.8,0.2,0.8,0.2,0.2,0.8,1,0
,,669fd80763ececdab3e50eea,66daf7dafa100b3036805c57,2024-09-06_13h39.52.625,mdp,2024.2.1,Win32,59.88023952,66d7945b1baad48e845df3ce,,,,,,,,,,,,,,,,,,,,,,,,,,,,,,,,,,,,,,,,,,,,,,,,,,,,,,,,992.7354,1051.2447,0,2,2,8,1,imgs/kangaroo.png,imgs/bear.png,imgs/giraffe.png,imgs/cat.png,imgs/elephant.png,,,,,,,,,,,,,,,,,,,,,,,,
,,669fd80763ececdab3e50eea,66daf7dafa100b3036805c57,2024-09-06_13h39.52.625,mdp,2024.2.1,Win32,59.88023952,66d7945b1baad48e845df3ce,,,,,,,,,,,,,,3,seqs/st3seq31.csv,1051.2573,1055.5941,space,3.8202,,1055.6098,1055.6098,1055.6105,1060.4608,0,1,left,4.3338,,1060.4932,1061.5768,0,0,left,1061.5777,1062.76,0,1,left,0,1062.7601,1062.7601,1062.761,1064.2598,0,0,0,0,1,0.6,0.4,0.8,0.2,,,,,,,,,,,,,,,0.5789,,0.8,0.2,0.2,0.8,0.8,0.2,0.8,0.2,,,0.6461,,0.8,0.2,0.6,0.4,0.6,0.4,0.4,0.6,1,0
,,669fd80763ececdab3e50eea,66daf7dafa100b3036805c57,2024-09-06_13h39.52.625,mdp,2024.2.1,Win32,59.88023952,66d7945b1baad48e845df3ce,,,,,,,,,,,,,,,,,,,,,1064.2601,1064.2602,1064.2609,1065.2097,0,0,left,0.4173,,1065.2105,1066.5096,0,0,left,1066.5105,1067.5928,0,0,left,1,1067.5928,1067.5928,1067.5938,1069.0925,0,1,1,1,1,0.6,0.4,0.8,0.2,,,,,,,,,,,,,,,0.7616,,0.8,0.2,0.2,0.8,0.8,0.2,0.8,0.2,,,0.555,,0.8,0.2,0.6,0.4,0.4,0.6,0.6,0.4,1,0
,,669fd80763ececdab3e50eea,66daf7dafa100b3036805c57,2024-09-06_13h39.52.625,mdp,2024.2.1,Win32,59.88023952,66d7945b1baad48e845df3ce,,,,,,,,,,,,,,,,,,,,,1069.0929,1069.0929,1069.0935,1070.2592,0,1,left,0.6393,,1070.26,1072.2922,1,0,right,1072.293,1074.5252,1,0,right,1,1074.5253,1074.5253,1074.5262,1076.025,0,2,2,2,1,0.6,0.4,0.8,0.2,,,,,,,,,,,,,,,1.4967,,0.8,0.2,0.2,0.8,0.8,0.2,0.8,0.2,,,1.7001,,0.8,0.2,0.6,0.4,0.4,0.6,0.6,0.4,1,0
,,669fd80763ececdab3e50eea,66daf7dafa100b3036805c57,2024-09-06_13h39.52.625,mdp,2024.2.1,Win32,59.88023952,66d7945b1baad48e845df3ce,,,,,,,,,,,,,,,,,,,,,1076.0254,1076.0254,1076.026,1077.4248,0,1,left,0.8723,,1077.4257,1079.008,0,0,left,1079.0089,1080.7411,1,0,right,1,1080.7411,1080.7411,1080.7419,1082.2408,0,3,3,3,1,0.6,0.4,0.8,0.2,,,,,,,,,,,,,,,1.0518,,0.8,0.2,0.2,0.8,0.8,0.2,0.8,0.2,,,1.2004,,0.8,0.2,0.6,0.4,0.4,0.6,0.6,0.4,1,0
,,669fd80763ececdab3e50eea,66daf7dafa100b3036805c57,2024-09-06_13h39.52.625,mdp,2024.2.1,Win32,59.88023952,66d7945b1baad48e845df3ce,,,,,,,,,,,,,,,,,,,,,1082.2412,1082.2413,1082.2421,1083.7241,0,0,left,0.9514,,1083.7249,1085.2406,0,0,left,1085.2416,1086.3738,0,0,left,1,1086.3738,1086.3738,1086.3747,1087.8736,0,4,4,4,1,0.6,0.4,0.8,0.2,,,,,,,,,,,,,,,0.9866,,0.8,0.2,0.2,0.8,0.8,0.2,0.8,0.2,,,0.6004,,0.8,0.2,0.6,0.4,0.4,0.6,0.6,0.4,1,0
,,669fd80763ececdab3e50eea,66daf7dafa100b3036805c57,2024-09-06_13h39.52.625,mdp,2024.2.1,Win32,59.88023952,66d7945b1baad48e845df3ce,,,,,,,,,,,,,,,,,,,,,1087.8739,1087.874,1087.8746,1089.2234,0,0,left,0.817,,1089.2243,1090.9732,0,0,left,1090.9741,1092.2397,0,0,left,1,1092.2398,1092.2398,1092.2407,1093.7394,0,5,5,5,1,0.6,0.4,0.8,0.2,,,,,,,,,,,,,,,1.2168,,0.8,0.2,0.2,0.8,0.8,0.2,0.8,0.2,,,0.7338,,0.8,0.2,0.6,0.4,0.4,0.6,0.6,0.4,1,0
,,669fd80763ececdab3e50eea,66daf7dafa100b3036805c57,2024-09-06_13h39.52.625,mdp,2024.2.1,Win32,59.88023952,66d7945b1baad48e845df3ce,,,,,,,,,,,,,,,,,,,,,1093.7398,1093.7398,1093.7407,1095.806,0,0,left,1.5423,,1095.8069,1097.0224,0,0,left,1097.0233,1098.0889,0,1,left,0,1098.089,1098.089,1098.0898,1099.5888,0,6,6,6,1,0.6,0.4,0.8,0.2,,,,,,,,,,,,,,,0.6924,,0.8,0.2,0.2,0.8,0.8,0.2,0.8,0.2,,,0.5344,,0.8,0.2,0.6,0.4,0.4,0.6,0.6,0.4,1,0
,,669fd80763ececdab3e50eea,66daf7dafa100b3036805c57,2024-09-06_13h39.52.625,mdp,2024.2.1,Win32,59.88023952,66d7945b1baad48e845df3ce,,,,,,,,,,,,,,,,,,,,,1099.5891,1099.5891,1099.59,1100.6887,0,1,left,0.5722,,1100.6897,1102.705,1,1,right,1102.706,1103.9216,1,1,right,0,1103.9217,1103.9217,1103.9226,1105.4213,0,7,7,7,1,0.6,0.4,0.8,0.2,,,,,,,,,,,,,,,1.4801,,0.8,0.2,0.2,0.8,0.8,0.2,0.8,0.2,,,0.6801,,0.8,0.2,0.6,0.4,0.4,0.6,0.6,0.4,1,0
,,669fd80763ececdab3e50eea,66daf7dafa100b3036805c57,2024-09-06_13h39.52.625,mdp,2024.2.1,Win32,59.88023952,66d7945b1baad48e845df3ce,,,,,,,,,,,,,,,,,,,,,1105.4217,1105.4217,1105.4224,1106.4211,0,0,left,0.4676,,1106.4221,1107.5546,0,1,left,1107.5563,1108.9709,1,1,right,0,1108.9709,1108.9709,1108.9717,1110.4707,0,8,8,8,1,0.6,0.4,0.8,0.2,,,,,,,,,,,,,,,0.6015,,0.8,0.2,0.2,0.8,0.8,0.2,0.8,0.2,,,0.884,,0.8,0.2,0.6,0.4,0.4,0.6,0.6,0.4,1,0
,,669fd80763ececdab3e50eea,66daf7dafa100b3036805c57,2024-09-06_13h39.52.625,mdp,2024.2.1,Win32,59.88023952,66d7945b1baad48e845df3ce,,,,,,,,,,,,,,,,,,,,,1110.4711,1110.4711,1110.4721,1111.4706,0,0,left,0.4666,,1111.4715,1112.504,0,0,left,1112.5048,1113.6702,0,0,left,1,1113.6703,1113.6703,1113.6711,1115.1702,0,9,9,9,1,0.6,0.4,0.8,0.2,,,,,,,,,,,,,,,0.5004,,0.8,0.2,0.2,0.8,0.8,0.2,0.8,0.2,,,0.6394,,0.8,0.2,0.6,0.4,0.4,0.6,0.6,0.4,1,0
,,669fd80763ececdab3e50eea,66daf7dafa100b3036805c57,2024-09-06_13h39.52.625,mdp,2024.2.1,Win32,59.88023952,66d7945b1baad48e845df3ce,,,,,,,,,,,,,,,,,,,,,1115.1705,1115.1706,1115.1714,1116.2034,0,1,left,0.5005,,1116.2043,1117.7365,1,0,right,1117.7374,1119.2697,1,1,right,0,1119.2697,1119.2697,1119.2706,1120.7694,0,10,10,10,1,0.6,0.4,0.8,0.2,,,,,,,,,,,,,,,0.999,,0.8,0.2,0.2,0.8,0.8,0.2,0.8,0.2,,,1.0009,,0.8,0.2,0.6,0.4,0.4,0.6,0.6,0.4,1,0
,,669fd80763ececdab3e50eea,66daf7dafa100b3036805c57,2024-09-06_13h39.52.625,mdp,2024.2.1,Win32,59.88023952,66d7945b1baad48e845df3ce,,,,,,,,,,,,,,,,,,,,,1120.7698,1120.7698,1120.7706,1121.7527,0,0,left,0.4537,,1121.7536,1122.8359,0,0,left,1122.8368,1123.8025,0,0,left,1,1123.8025,1123.8025,1123.8034,1125.3023,0,11,11,11,1,0.6,0.4,0.8,0.2,,,,,,,,,,,,,,,0.5479,,0.8,0.2,0.2,0.8,0.8,0.2,0.8,0.2,,,0.4318,,0.8,0.2,0.6,0.4,0.4,0.6,0.6,0.4,1,0
,,669fd80763ececdab3e50eea,66daf7dafa100b3036805c57,2024-09-06_13h39.52.625,mdp,2024.2.1,Win32,59.88023952,66d7945b1baad48e845df3ce,,,,,,,,,,,,,,,,,,,,,1125.3027,1125.3027,1125.3035,1127.352,0,1,left,1.5212,,1127.3638,1128.9518,0,1,left,1128.9527,1129.9851,1,0,right,1,1129.9851,1129.9851,1129.986,1131.4848,0,12,12,12,1,0.6,0.4,0.8,0.2,,,,,,,,,,,,,,,1.0637,,0.8,0.2,0.2,0.8,0.8,0.2,0.8,0.2,,,0.4971,,0.8,0.2,0.6,0.4,0.4,0.6,0.6,0.4,1,0
,,669fd80763ececdab3e50eea,66daf7dafa100b3036805c57,2024-09-06_13h39.52.625,mdp,2024.2.1,Win32,59.88023952,66d7945b1baad48e845df3ce,,,,,,,,,,,,,,,,,,,,,1131.4852,1131.4852,1131.4861,1132.9012,0,1,left,0.8836,,1132.9021,1133.9512,0,0,left,1133.9521,1135.5843,1,0,right,1,1135.5844,1135.5844,1135.5852,1137.0841,0,13,13,13,1,0.6,0.4,0.8,0.2,,,,,,,,,,,,,,,0.5259,,0.8,0.2,0.2,0.8,0.8,0.2,0.8,0.2,,,1.0969,,0.8,0.2,0.6,0.4,0.4,0.6,0.6,0.4,1,0
,,669fd80763ececdab3e50eea,66daf7dafa100b3036805c57,2024-09-06_13h39.52.625,mdp,2024.2.1,Win32,59.88023952,66d7945b1baad48e845df3ce,,,,,,,,,,,,,,,,,,,,,1137.0845,1137.0845,1137.0852,1138.2339,0,0,left,0.6214,,1138.2348,1139.6174,0,0,left,1139.6181,1140.7338,0,1,left,0,1140.7338,1140.7338,1140.7348,1142.2334,0,14,14,14,1,0.6,0.4,0.8,0.2,,,,,,,,,,,,,,,0.857,,0.8,0.2,0.2,0.8,0.8,0.2,0.8,0.2,,,0.5838,,0.8,0.2,0.6,0.4,0.4,0.6,0.6,0.4,1,0
,,669fd80763ececdab3e50eea,66daf7dafa100b3036805c57,2024-09-06_13h39.52.625,mdp,2024.2.1,Win32,59.88023952,66d7945b1baad48e845df3ce,,,,,,,,,,,,,,,,,,,,,1142.2337,1142.2338,1142.2346,1143.1835,0,0,left,0.417,,1143.1844,1144.0833,0,0,left,1144.0842,1145.4332,0,0,left,1,1145.4332,1145.4332,1145.434,1146.9329,0,15,15,15,1,0.6,0.4,0.8,0.2,,,,,,,,,,,,,,,0.3712,,0.8,0.2,0.2,0.8,0.8,0.2,0.8,0.2,,,0.8179,,0.8,0.2,0.6,0.4,0.4,0.6,0.6,0.4,1,0
,,669fd80763ececdab3e50eea,66daf7dafa100b3036805c57,2024-09-06_13h39.52.625,mdp,2024.2.1,Win32,59.88023952,66d7945b1baad48e845df3ce,,,,,,,,,,,,,,,,,,,,,1146.9332,1146.9332,1146.9341,1148.066,0,1,left,0.6096,,1148.067,1150.3326,0,1,left,1150.3333,1151.6654,1,1,right,0,1151.6655,1151.6655,1151.6663,1153.1654,0,16,16,16,1,0.6,0.4,0.8,0.2,,,,,,,,,,,,,,,1.7345,,0.8,0.2,0.2,0.8,0.2,0.8,0.2,0.8,,,0.8017,,0.8,0.2,0.6,0.4,0.4,0.6,0.6,0.4,1,0
,,669fd80763ececdab3e50eea,66daf7dafa100b3036805c57,2024-09-06_13h39.52.625,mdp,2024.2.1,Win32,59.88023952,66d7945b1baad48e845df3ce,,,,,,,,,,,,,,,,,,,,,1153.1659,1153.1659,1153.1673,1153.8487,0,0,left,0.1536,,1153.8498,1154.7984,0,0,left,1154.7991,1156.2491,0,1,left,0,1156.2492,1156.2492,1156.251,1157.7487,0,17,17,17,1,0.6,0.4,0.8,0.2,,,,,,,,,,,,,,,0.423,,0.8,0.2,0.2,0.8,0.2,0.8,0.2,0.8,,,0.9181,,0.6,0.4,0.2,0.8,0.4,0.6,0.6,0.4,1,0
,,669fd80763ececdab3e50eea,66daf7dafa100b3036805c57,2024-09-06_13h39.52.625,mdp,2024.2.1,Win32,59.88023952,66d7945b1baad48e845df3ce,,,,,,,,,,,,,,,,,,,,,1157.7497,1157.7497,1157.7514,1158.6986,0,0,left,0.4255,,1158.7004,1159.6987,0,0,left,1159.7005,1160.6318,0,0,left,1,1160.6322,1160.6322,1160.6342,1162.1316,0,18,18,18,1,0.6,0.4,0.8,0.2,,,,,,,,,,,,,,,0.4714,,0.8,0.2,0.2,0.8,0.2,0.8,0.2,0.8,,,0.4008,,0.6,0.4,0.2,0.8,0.4,0.6,0.6,0.4,1,0
,,669fd80763ececdab3e50eea,66daf7dafa100b3036805c57,2024-09-06_13h39.52.625,mdp,2024.2.1,Win32,59.88023952,66d7945b1baad48e845df3ce,,,,,,,,,,,,,,,,,,,,,1162.1324,1162.1325,1162.1343,1163.0149,0,1,left,0.3509,,1163.0167,1164.081,0,1,left,1164.0822,1165.5641,0,1,left,0,1165.5642,1165.5642,1165.5653,1167.0636,0,19,19,19,1,0.6,0.4,0.8,0.2,,,,,,,,,,,,,,,0.535,,0.8,0.2,0.2,0.8,0.2,0.8,0.2,0.8,,,0.9456,,0.6,0.4,0.2,0.8,0.4,0.6,0.6,0.4,1,0
,,669fd80763ececdab3e50eea,66daf7dafa100b3036805c57,2024-09-06_13h39.52.625,mdp,2024.2.1,Win32,59.88023952,66d7945b1baad48e845df3ce,,,,,,,,,,,,,,,,,,,,,1167.064,1167.0641,1167.0651,1168.7802,0,0,left,1.1851,,1168.7811,1170.2969,0,1,left,1170.298,1171.63,1,0,right,1,1171.63,1171.6301,1171.6313,1173.1298,0,20,20,20,1,0.6,0.4,0.8,0.2,,,,,,,,,,,,,,,0.9954,,0.8,0.2,0.2,0.8,0.2,0.8,0.2,0.8,,,0.8005,,0.6,0.4,0.2,0.8,0.4,0.6,0.6,0.4,1,0
,,669fd80763ececdab3e50eea,66daf7dafa100b3036805c57,2024-09-06_13h39.52.625,mdp,2024.2.1,Win32,59.88023952,66d7945b1baad48e845df3ce,,,,,,,,,,,,,,,,,,,,,1173.1303,1173.1303,1173.1316,1174.8129,0,0,left,1.1596,,1174.8139,1175.813,0,0,left,1175.8142,1177.1132,0,0,left,1,1177.1133,1177.1133,1177.1155,1178.6131,0,21,21,21,1,0.6,0.4,0.8,0.2,,,,,,,,,,,,,,,0.4725,,0.8,0.2,0.2,0.8,0.2,0.8,0.2,0.8,,,0.7611,,0.6,0.4,0.2,0.8,0.4,0.6,0.6,0.4,1,0
,,669fd80763ececdab3e50eea,66daf7dafa100b3036805c57,2024-09-06_13h39.52.625,mdp,2024.2.1,Win32,59.88023952,66d7945b1baad48e845df3ce,,,,,,,,,,,,,,,,,,,,,1178.614,1178.6142,1178.6161,1179.6628,0,1,left,0.5202,,1179.6646,1181.3453,0,1,left,1181.3463,1182.4119,1,0,right,1,1182.4119,1182.4119,1182.4127,1183.9117,0,22,22,22,1,0.6,0.4,0.8,0.2,,,,,,,,,,,,,,,1.139,,0.8,0.2,0.2,0.8,0.2,0.8,0.2,0.8,,,0.5309,,0.6,0.4,0.2,0.8,0.4,0.6,0.6,0.4,1,0
,,669fd80763ececdab3e50eea,66daf7dafa100b3036805c57,2024-09-06_13h39.52.625,mdp,2024.2.1,Win32,59.88023952,66d7945b1baad48e845df3ce,,,,,,,,,,,,,,,,,,,,,1183.912,1183.9121,1183.9128,1185.1281,0,0,left,0.6934,,1185.1288,1186.3614,0,0,left,1186.3624,1187.4946,0,0,left,1,1187.4948,1187.4948,1187.4956,1188.9942,0,23,23,23,1,0.6,0.4,0.8,0.2,,,,,,,,,,,,,,,0.7244,,0.8,0.2,0.2,0.8,0.2,0.8,0.2,0.8,,,0.6001,,0.6,0.4,0.2,0.8,0.4,0.6,0.6,0.4,1,0
,,669fd80763ececdab3e50eea,66daf7dafa100b3036805c57,2024-09-06_13h39.52.625,mdp,2024.2.1,Win32,59.88023952,66d7945b1baad48e845df3ce,,,,,,,,,,,,,,,,,,,,,1188.9946,1188.9946,1188.9955,1190.0777,0,1,left,0.5605,,1190.0786,1191.4441,0,1,left,1191.445,1192.6272,1,1,right,0,1192.6273,1192.6273,1192.6282,1194.1271,0,24,24,24,1,0.6,0.4,0.8,0.2,,,,,,,,,,,,,,,0.8371,,0.8,0.2,0.2,0.8,0.2,0.8,0.2,0.8,,,0.6467,,0.6,0.4,0.2,0.8,0.4,0.6,0.6,0.4,1,0
,,669fd80763ececdab3e50eea,66daf7dafa100b3036805c57,2024-09-06_13h39.52.625,mdp,2024.2.1,Win32,59.88023952,66d7945b1baad48e845df3ce,,,,,,,,,,,,,,,,,,,,,1194.1275,1194.1275,1194.1284,1195.2936,0,1,left,0.6337,,1195.2944,1196.2102,0,1,left,1196.2111,1197.8773,1,0,right,1,1197.8774,1197.8774,1197.8794,1199.3765,0,25,25,25,1,0.6,0.4,0.8,0.2,,,,,,,,,,,,,,,0.3867,,0.8,0.2,0.2,0.8,0.2,0.8,0.2,0.8,,,1.1392,,0.6,0.4,0.2,0.8,0.4,0.6,0.6,0.4,1,0
,,669fd80763ececdab3e50eea,66daf7dafa100b3036805c57,2024-09-06_13h39.52.625,mdp,2024.2.1,Win32,59.88023952,66d7945b1baad48e845df3ce,,,,,,,,,,,,,,,,,,,,,1199.3771,1199.3771,1199.378,1200.6764,0,1,left,0.7687,,1200.6774,1202.726,0,0,left,1202.7269,1204.1093,0,1,left,0,1204.1093,1204.1093,1204.1102,1205.6089,0,26,26,26,1,0.6,0.4,0.8,0.2,,,,,,,,,,,,,,,1.517,,0.8,0.2,0.2,0.8,0.2,0.8,0.2,0.8,,,0.849,,0.6,0.4,0.2,0.8,0.4,0.6,0.6,0.4,1,0
,,669fd80763ececdab3e50eea,66daf7dafa100b3036805c57,2024-09-06_13h39.52.625,mdp,2024.2.1,Win32,59.88023952,66d7945b1baad48e845df3ce,,,,,,,,,,,,,,,,,,,,,1205.6092,1205.6092,1205.6099,1206.5258,0,0,left,0.3853,,1206.5268,1207.6255,0,0,left,1207.6266,1209.043,0,0,left,1,1209.0432,1209.0432,1209.0454,1210.542,0,27,27,27,1,0.6,0.4,0.8,0.2,,,,,,,,,,,,,,,0.5639,,0.8,0.2,0.2,0.8,0.2,0.8,0.2,0.8,,,0.8861,,0.6,0.4,0.2,0.8,0.4,0.6,0.6,0.4,1,0
,,669fd80763ececdab3e50eea,66daf7dafa100b3036805c57,2024-09-06_13h39.52.625,mdp,2024.2.1,Win32,59.88023952,66d7945b1baad48e845df3ce,,,,,,,,,,,,,,,,,,,,,1210.5425,1210.5425,1210.5438,1212.2419,0,0,left,1.1671,,1212.2436,1213.2915,0,0,left,1213.2926,1214.5246,0,0,left,1,1214.5247,1214.5247,1214.5255,1216.0244,0,28,28,28,1,0.6,0.4,0.8,0.2,,,,,,,,,,,,,,,0.5167,,0.8,0.2,0.2,0.8,0.2,0.8,0.2,0.8,,,0.7002,,0.6,0.4,0.2,0.8,0.4,0.6,0.6,0.4,1,0
,,669fd80763ececdab3e50eea,66daf7dafa100b3036805c57,2024-09-06_13h39.52.625,mdp,2024.2.1,Win32,59.88023952,66d7945b1baad48e845df3ce,,,,,,,,,,,,,,,,,,,,,1216.0248,1216.0248,1216.0256,1217.0911,0,0,left,0.5406,,1217.0919,1218.0076,0,0,left,1218.0085,1219.4074,0,1,left,0,1219.4074,1219.4074,1219.4083,1220.9071,0,29,29,29,1,0.6,0.4,0.8,0.2,,,,,,,,,,,,,,,0.3854,,0.8,0.2,0.2,0.8,0.2,0.8,0.2,0.8,,,0.8671,,0.6,0.4,0.2,0.8,0.4,0.6,0.6,0.4,1,0
,,669fd80763ececdab3e50eea,66daf7dafa100b3036805c57,2024-09-06_13h39.52.625,mdp,2024.2.1,Win32,59.88023952,66d7945b1baad48e845df3ce,,,,,,,,,,,,,,,,,,,,,1220.9075,1220.9075,1220.9083,1221.9071,0,0,left,0.4723,,1221.908,1222.7736,0,0,left,1222.7745,1223.6404,0,1,left,0,1223.6405,1223.6405,1223.6419,1225.1404,0,30,30,30,1,0.6,0.4,0.8,0.2,,,,,,,,,,,,,,,0.3339,,0.8,0.2,0.2,0.8,0.2,0.8,0.2,0.8,,,0.3338,,0.6,0.4,0.2,0.8,0.4,0.6,0.6,0.4,1,0
,,669fd80763ececdab3e50eea,66daf7dafa100b3036805c57,2024-09-06_13h39.52.625,mdp,2024.2.1,Win32,59.88023952,66d7945b1baad48e845df3ce,,,,,,,,,,,,,,,,,,,,,1225.1411,1225.1411,1225.1426,1225.9736,0,0,left,0.3088,,1225.9753,1226.8071,0,1,left,1226.8088,1227.7569,0,1,left,0,1227.7569,1227.7569,1227.7586,1229.2565,0,31,31,31,1,0.8,0.2,0.4,0.6,,,,,,,,,,,,,,,0.3011,,0.8,0.2,0.2,0.8,0.2,0.8,0.2,0.8,,,0.4144,,0.6,0.4,0.2,0.8,0.4,0.6,0.6,0.4,1,0
,,669fd80763ececdab3e50eea,66daf7dafa100b3036805c57,2024-09-06_13h39.52.625,mdp,2024.2.1,Win32,59.88023952,66d7945b1baad48e845df3ce,,,,,,,,,,,,,,,,,,,,,1229.2572,1229.2572,1229.259,1229.8568,0,1,left,0.0673,,1229.8591,1230.5899,0,1,left,1230.5918,1231.8729,1,0,right,1,1231.873,1231.873,1231.8747,1233.3727,0,32,32,32,1,0.8,0.2,0.4,0.6,,,,,,,,,,,,,,,0.1912,,0.8,0.2,0.2,0.8,0.2,0.8,0.2,0.8,,,0.7506,,0.6,0.4,0.2,0.8,0.4,0.6,0.6,0.4,1,0
,,669fd80763ececdab3e50eea,66daf7dafa100b3036805c57,2024-09-06_13h39.52.625,mdp,2024.2.1,Win32,59.88023952,66d7945b1baad48e845df3ce,,,,,,,,,,,,,,,,,,,,,1233.3735,1233.3735,1233.3751,1234.5226,0,0,left,0.6169,,1234.5248,1235.5556,0,0,left,1235.5573,1236.7887,0,1,left,0,1236.7888,1236.7888,1236.7903,1238.2883,0,33,33,33,1,0.8,0.2,0.4,0.6,,,,,,,,,,,,,,,0.5,,0.8,0.2,0.2,0.8,0.2,0.8,0.2,0.8,,,0.7012,,0.6,0.4,0.2,0.8,0.4,0.6,0.6,0.4,1,0
,,669fd80763ececdab3e50eea,66daf7dafa100b3036805c57,2024-09-06_13h39.52.625,mdp,2024.2.1,Win32,59.88023952,66d7945b1baad48e845df3ce,,,,,,,,,,,,,,,,,,,,,1238.2887,1238.2887,1238.2897,1239.388,0,0,left,0.5721,,1239.3889,1240.3048,0,1,left,1240.3057,1242.6544,1,0,right,1,1242.6544,1242.6544,1242.6553,1244.1543,0,34,34,34,1,0.8,0.2,0.4,0.6,,,,,,,,,,,,,,,0.4006,,0.8,0.2,0.2,0.8,0.2,0.8,0.2,0.8,,,1.8185,,0.6,0.4,0.2,0.8,0.4,0.6,0.6,0.4,1,0
,,669fd80763ececdab3e50eea,66daf7dafa100b3036805c57,2024-09-06_13h39.52.625,mdp,2024.2.1,Win32,59.88023952,66d7945b1baad48e845df3ce,,,,,,,,,,,,,,,,,,,,,1244.1546,1244.1547,1244.1554,1245.1041,0,0,left,0.4176,,1245.1051,1246.0707,0,0,left,1246.0716,1247.3704,0,1,left,0,1247.3705,1247.3705,1247.3714,1248.8703,0,35,35,35,1,0.8,0.2,0.4,0.6,,,,,,,,,,,,,,,0.4339,,0.8,0.2,0.2,0.8,0.2,0.8,0.2,0.8,,,0.7732,,0.6,0.4,0.2,0.8,0.4,0.6,0.6,0.4,1,0
,,669fd80763ececdab3e50eea,66daf7dafa100b3036805c57,2024-09-06_13h39.52.625,mdp,2024.2.1,Win32,59.88023952,66d7945b1baad48e845df3ce,,,,,,,,,,,,,,,,,,,,,1248.871,1248.871,1248.8718,1249.6702,0,0,left,0.2669,,1249.6712,1250.6036,0,1,left,1250.6045,1251.9199,1,0,right,1,1251.9199,1251.9199,1251.9207,1253.4198,0,36,36,36,1,0.8,0.2,0.4,0.6,,,,,,,,,,,,,,,0.4047,,0.8,0.2,0.2,0.8,0.6,0.4,0.8,0.2,,,0.7834,,0.6,0.4,0.2,0.8,0.4,0.6,0.6,0.4,1,0
,,669fd80763ececdab3e50eea,66daf7dafa100b3036805c57,2024-09-06_13h39.52.625,mdp,2024.2.1,Win32,59.88023952,66d7945b1baad48e845df3ce,,,,,,,,,,,,,,,,,,,,,1253.4203,1253.4203,1253.4211,1254.353,0,0,left,0.4038,,1254.3538,1255.4197,0,1,left,1255.4205,1256.6694,1,1,right,0,1256.6694,1256.6694,1256.6703,1258.1692,0,37,37,37,1,0.8,0.2,0.4,0.6,,,,,,,,,,,,,,,0.5337,,0.8,0.2,0.2,0.8,0.6,0.4,0.8,0.2,,,0.7179,,0.6,0.4,0.2,0.8,0.4,0.6,0.6,0.4,1,0
,,669fd80763ececdab3e50eea,66daf7dafa100b3036805c57,2024-09-06_13h39.52.625,mdp,2024.2.1,Win32,59.88023952,66d7945b1baad48e845df3ce,,,,,,,,,,,,,,,,,,,,,1258.1695,1258.1695,1258.1703,1258.9858,0,0,left,0.2836,,1258.9866,1260.069,0,0,left,1260.0699,1261.2187,0,1,left,0,1261.2188,1261.2188,1261.2197,1262.7186,0,38,38,38,1,0.8,0.2,0.4,0.6,,,,,,,,,,,,,,,0.5535,,0.8,0.2,0.2,0.8,0.6,0.4,0.8,0.2,,,0.6227,,0.6,0.4,0.2,0.8,0.4,0.6,0.6,0.4,1,0
,,669fd80763ececdab3e50eea,66daf7dafa100b3036805c57,2024-09-06_13h39.52.625,mdp,2024.2.1,Win32,59.88023952,66d7945b1baad48e845df3ce,,,,,,,,,,,,,,,,,,,,,1262.719,1262.719,1262.7198,1263.4852,0,0,left,0.2432,,1263.486,1264.3351,0,0,left,1264.3359,1265.6849,0,1,left,0,1265.685,1265.685,1265.6859,1267.1847,0,39,39,39,1,0.8,0.2,0.4,0.6,,,,,,,,,,,,,,,0.3226,,0.8,0.2,0.2,0.8,0.6,0.4,0.8,0.2,,,0.8173,,0.6,0.4,0.2,0.8,0.4,0.6,0.6,0.4,1,0
,,669fd80763ececdab3e50eea,66daf7dafa100b3036805c57,2024-09-06_13h39.52.625,mdp,2024.2.1,Win32,59.88023952,66d7945b1baad48e845df3ce,,,,,,,,,,,,,,,,,,,,,1267.1851,1267.1851,1267.186,1268.0518,0,0,left,0.3513,,1268.0534,1268.935,0,0,left,1268.9371,1269.7683,1,1,right,0,1269.7684,1269.7684,1269.77,1271.268,0,40,40,40,1,0.8,0.2,0.4,0.6,,,,,,,,,,,,,,,0.3578,,0.8,0.2,0.2,0.8,0.6,0.4,0.8,0.2,,,0.3007,,0.6,0.4,0.2,0.8,0.4,0.6,0.6,0.4,1,0
,,669fd80763ececdab3e50eea,66daf7dafa100b3036805c57,2024-09-06_13h39.52.625,mdp,2024.2.1,Win32,59.88023952,66d7945b1baad48e845df3ce,,,,,,,,,,,,,,,,,,,,,1271.2689,1271.269,1271.2712,1272.2846,0,0,left,0.4858,,1272.2865,1273.3845,0,0,left,1273.3865,1274.4512,0,1,left,0,1274.4512,1274.4512,1274.453,1275.9509,0,41,41,41,1,0.8,0.2,0.4,0.6,,,,,,,,,,,,,,,0.5677,,0.8,0.2,0.2,0.8,0.6,0.4,0.8,0.2,,,0.5344,,0.6,0.4,0.2,0.8,0.4,0.6,0.6,0.4,1,0
,,669fd80763ececdab3e50eea,66daf7dafa100b3036805c57,2024-09-06_13h39.52.625,mdp,2024.2.1,Win32,59.88023952,66d7945b1baad48e845df3ce,,,,,,,,,,,,,,,,,,,,,1275.9515,1275.9515,1275.9534,1276.7174,0,0,left,0.2341,,1276.7192,1277.517,0,0,left,1277.518,1278.3834,1,0,right,1,1278.3834,1278.3834,1278.3842,1279.8832,0,42,42,42,1,0.8,0.2,0.4,0.6,,,,,,,,,,,,,,,0.277,,0.8,0.2,0.2,0.8,0.6,0.4,0.8,0.2,,,0.3427,,0.6,0.4,0.2,0.8,0.4,0.6,0.6,0.4,1,0
,,669fd80763ececdab3e50eea,66daf7dafa100b3036805c57,2024-09-06_13h39.52.625,mdp,2024.2.1,Win32,59.88023952,66d7945b1baad48e845df3ce,,,,,,,,,,,,,,,,,,,,,1279.8836,1279.8836,1279.8844,1280.8997,0,0,left,0.4838,,1280.9006,1282.5162,0,1,left,1282.5171,1283.3994,0,1,left,0,1283.3994,1283.3995,1283.4003,1284.8992,0,43,43,43,1,0.8,0.2,0.4,0.6,,,,,,,,,,,,,,,1.0934,,0.8,0.2,0.2,0.8,0.6,0.4,0.8,0.2,,,0.3489,,0.6,0.4,0.2,0.8,0.4,0.6,0.6,0.4,1,0
,,669fd80763ececdab3e50eea,66daf7dafa100b3036805c57,2024-09-06_13h39.52.625,mdp,2024.2.1,Win32,59.88023952,66d7945b1baad48e845df3ce,,,,,,,,,,,,,,,,,,,,,1284.8996,1284.8996,1284.9004,1285.7493,0,0,left,0.3168,,1285.7502,1287.049,0,0,left,1287.0499,1288.3654,1,1,right,0,1288.3655,1288.3655,1288.3663,1289.8653,0,44,44,44,1,0.8,0.2,0.4,0.6,,,,,,,,,,,,,,,0.7724,,0.8,0.2,0.2,0.8,0.6,0.4,0.8,0.2,,,0.7847,,0.6,0.4,0.2,0.8,0.4,0.6,0.6,0.4,1,0
,,669fd80763ececdab3e50eea,66daf7dafa100b3036805c57,2024-09-06_13h39.52.625,mdp,2024.2.1,Win32,59.88023952,66d7945b1baad48e845df3ce,,,,,,,,,,,,,,,,,,,,,1289.8657,1289.8657,1289.8665,1290.7985,0,0,left,0.4002,,1290.7992,1291.7485,0,1,left,1291.7494,1292.9151,0,0,left,1,1292.9151,1292.9151,1292.916,1294.4148,0,45,45,45,1,0.8,0.2,0.4,0.6,,,,,,,,,,,,,,,0.4173,,0.2,0.8,0.8,0.2,0.6,0.4,0.8,0.2,,,0.6305,,0.6,0.4,0.2,0.8,0.4,0.6,0.6,0.4,1,0
,,669fd80763ececdab3e50eea,66daf7dafa100b3036805c57,2024-09-06_13h39.52.625,mdp,2024.2.1,Win32,59.88023952,66d7945b1baad48e845df3ce,,,,,,,,,,,,,,,,,,,,,1294.4151,1294.4151,1294.416,1295.448,0,0,left,0.5029,,1295.4489,1296.6977,0,1,left,1296.6986,1297.8643,1,0,right,1,1297.8643,1297.8643,1297.8652,1299.3641,0,46,46,46,1,0.8,0.2,0.4,0.6,,,,,,,,,,,,,,,0.7172,,0.2,0.8,0.8,0.2,0.6,0.4,0.8,0.2,,,0.6426,,0.6,0.4,0.2,0.8,0.4,0.6,0.6,0.4,1,0
,,669fd80763ececdab3e50eea,66daf7dafa100b3036805c57,2024-09-06_13h39.52.625,mdp,2024.2.1,Win32,59.88023952,66d7945b1baad48e845df3ce,,,,,,,,,,,,,,,,,,,,,1299.3645,1299.3645,1299.3654,1300.214,0,0,left,0.3169,,1300.2149,1301.4973,0,1,left,1301.4981,1302.947,0,0,left,1,1302.9471,1302.9472,1302.9479,1304.4469,0,47,47,47,1,0.8,0.2,0.4,0.6,,,,,,,,,,,,,,,0.7501,,0.2,0.8,0.8,0.2,0.6,0.4,0.8,0.2,,,0.9172,,0.6,0.4,0.2,0.8,0.4,0.6,0.6,0.4,1,0
,,669fd80763ececdab3e50eea,66daf7dafa100b3036805c57,2024-09-06_13h39.52.625,mdp,2024.2.1,Win32,59.88023952,66d7945b1baad48e845df3ce,,,,,,,,,,,,,,,,,,,,,1304.4472,1304.4472,1304.448,1305.2967,0,0,left,0.3227,,1305.2976,1306.3132,0,1,left,1306.314,1307.2464,1,1,right,0,1307.2464,1307.2465,1307.2473,1308.7462,0,48,48,48,1,0.8,0.2,0.4,0.6,,,,,,,,,,,,,,,0.484,,0.2,0.8,0.8,0.2,0.6,0.4,0.8,0.2,,,0.4042,,0.6,0.4,0.2,0.8,0.4,0.6,0.6,0.4,1,0
,,669fd80763ececdab3e50eea,66daf7dafa100b3036805c57,2024-09-06_13h39.52.625,mdp,2024.2.1,Win32,59.88023952,66d7945b1baad48e845df3ce,,,,,,,,,,,,,,,,,,,,,1308.7465,1308.7466,1308.7474,1309.5796,0,0,left,0.3002,,1309.5804,1310.4462,0,1,left,1310.4471,1311.4127,0,1,left,0,1311.4127,1311.4127,1311.4136,1312.9124,0,49,49,49,1,0.8,0.2,0.4,0.6,,,,,,,,,,,,,,,0.3336,,0.2,0.8,0.8,0.2,0.6,0.4,0.8,0.2,,,0.4385,,0.6,0.4,0.2,0.8,0.4,0.6,0.6,0.4,1,0
,,669fd80763ececdab3e50eea,66daf7dafa100b3036805c57,2024-09-06_13h39.52.625,mdp,2024.2.1,Win32,59.88023952,66d7945b1baad48e845df3ce,,,,,,,,,,,,,,,,,,,,,,,,,,,,,,,,,,,,,,,,,,,,,,,,,,,,,,,,1312.9125,1371.422,0,3,3,1,1,imgs/goat.png,imgs/pig.png,imgs/squirrel.png,imgs/dog.png,imgs/cat.png,,,,,,,,,,,,,,,,,,,,,,,,
,,669fd80763ececdab3e50eea,66daf7dafa100b3036805c57,2024-09-06_13h39.52.625,mdp,2024.2.1,Win32,59.88023952,66d7945b1baad48e845df3ce,,,,,,,,,,,,,,1,seqs/st1seq36.csv,1371.4388,1373.2384,space,1.2902,,1373.241,1373.241,1373.2417,1377.7712,1,1,right,3.9964,,1377.7827,1377.7832,0,1,,1377.7837,1377.784,0,0,,0,1377.784,1377.784,1377.7843,1379.2876,0,0,0,0,1,0.6,0.4,0.4,0.6,1,0,,,,,,,,,,,,,,,,,,,,,,,,,,,,,,,,,,,,
,,669fd80763ececdab3e50eea,66daf7dafa100b3036805c57,2024-09-06_13h39.52.625,mdp,2024.2.1,Win32,59.88023952,66d7945b1baad48e845df3ce,,,,,,,,,,,,,,,,,,,,,1379.2879,1379.2879,1379.2887,1381.4539,0,1,left,1.6424,,1381.466,1381.4665,0,0,,1381.4669,1381.4673,0,0,,0,1381.4673,1381.4673,1381.4675,1382.9705,0,1,1,1,1,0.6,0.4,0.4,0.6,1,0,,,,,,,,,,,,,,,,,,,,,,,,,,,,,,,,,,,,
,,669fd80763ececdab3e50eea,66daf7dafa100b3036805c57,2024-09-06_13h39.52.625,mdp,2024.2.1,Win32,59.88023952,66d7945b1baad48e845df3ce,,,,,,,,,,,,,,,,,,,,,1382.9708,1382.9708,1382.9715,1383.8037,0,1,left,0.3004,,1383.8046,1383.8052,0,1,,1383.8056,1383.806,0,1,,0,1383.806,1383.806,1383.8064,1385.3035,0,2,2,2,1,0.4,0.6,0.8,0.2,1,0,,,,,,,,,,,,,,,,,,,,,,,,,,,,,,,,,,,,
,,669fd80763ececdab3e50eea,66daf7dafa100b3036805c57,2024-09-06_13h39.52.625,mdp,2024.2.1,Win32,59.88023952,66d7945b1baad48e845df3ce,,,,,,,,,,,,,,,,,,,,,1385.3038,1385.3038,1385.3045,1386.2368,0,0,left,0.4094,,1386.2379,1386.2383,0,1,,1386.2388,1386.2391,0,0,,1,1386.2391,1386.2391,1386.2394,1387.7365,0,3,3,3,1,0.4,0.6,0.8,0.2,1,0,,,,,,,,,,,,,,,,,,,,,,,,,,,,,,,,,,,,
,,669fd80763ececdab3e50eea,66daf7dafa100b3036805c57,2024-09-06_13h39.52.625,mdp,2024.2.1,Win32,59.88023952,66d7945b1baad48e845df3ce,,,,,,,,,,,,,,,,,,,,,1387.7367,1387.7367,1387.7376,1388.7864,0,1,left,0.5252,,1388.7873,1388.7878,0,0,,1388.7883,1388.7887,0,1,,0,1388.7887,1388.7887,1388.7891,1390.2862,0,4,4,4,1,0.4,0.6,0.8,0.2,1,0,,,,,,,,,,,,,,,,,,,,,,,,,,,,,,,,,,,,
,,669fd80763ececdab3e50eea,66daf7dafa100b3036805c57,2024-09-06_13h39.52.625,mdp,2024.2.1,Win32,59.88023952,66d7945b1baad48e845df3ce,,,,,,,,,,,,,,,,,,,,,1390.2864,1390.2864,1390.2873,1391.1195,1,0,right,0.3032,,1391.1204,1391.1208,0,0,,1391.1214,1391.1216,0,0,,1,1391.1216,1391.1216,1391.122,1392.6193,0,5,5,5,1,0.4,0.6,0.8,0.2,1,0,,,,,,,,,,,,,,,,,,,,,,,,,,,,,,,,,,,,
,,669fd80763ececdab3e50eea,66daf7dafa100b3036805c57,2024-09-06_13h39.52.625,mdp,2024.2.1,Win32,59.88023952,66d7945b1baad48e845df3ce,,,,,,,,,,,,,,,,,,,,,1392.6196,1392.6196,1392.6202,1393.5859,0,0,left,0.4365,,1393.5867,1393.5872,0,1,,1393.5877,1393.5881,0,0,,1,1393.5881,1393.5881,1393.5883,1395.0856,0,6,6,6,1,0.4,0.6,0.8,0.2,1,0,,,,,,,,,,,,,,,,,,,,,,,,,,,,,,,,,,,,
,,669fd80763ececdab3e50eea,66daf7dafa100b3036805c57,2024-09-06_13h39.52.625,mdp,2024.2.1,Win32,59.88023952,66d7945b1baad48e845df3ce,,,,,,,,,,,,,,,,,,,,,1395.0859,1395.0859,1395.0868,1396.0521,1,0,right,0.443,,1396.0528,1396.0533,0,0,,1396.0538,1396.0541,0,0,,1,1396.0541,1396.0541,1396.0545,1397.5521,0,7,7,7,1,0.4,0.6,0.8,0.2,1,0,,,,,,,,,,,,,,,,,,,,,,,,,,,,,,,,,,,,
,,669fd80763ececdab3e50eea,66daf7dafa100b3036805c57,2024-09-06_13h39.52.625,mdp,2024.2.1,Win32,59.88023952,66d7945b1baad48e845df3ce,,,,,,,,,,,,,,,,,,,,,1397.5524,1397.5524,1397.5531,1398.4353,0,0,left,0.3517,,1398.436,1398.4365,0,0,,1398.4371,1398.4373,0,0,,1,1398.4374,1398.4374,1398.4377,1399.935,0,8,8,8,1,0.4,0.6,0.8,0.2,1,0,,,,,,,,,,,,,,,,,,,,,,,,,,,,,,,,,,,,
,,669fd80763ececdab3e50eea,66daf7dafa100b3036805c57,2024-09-06_13h39.52.625,mdp,2024.2.1,Win32,59.88023952,66d7945b1baad48e845df3ce,,,,,,,,,,,,,,,,,,,,,1399.9353,1399.9353,1399.9361,1401.0015,1,1,right,0.5381,,1401.0023,1401.0028,0,0,,1401.0034,1401.0037,0,1,,0,1401.0037,1401.0037,1401.0041,1402.5014,0,9,9,9,1,0.4,0.6,0.8,0.2,1,0,,,,,,,,,,,,,,,,,,,,,,,,,,,,,,,,,,,,
,,669fd80763ececdab3e50eea,66daf7dafa100b3036805c57,2024-09-06_13h39.52.625,mdp,2024.2.1,Win32,59.88023952,66d7945b1baad48e845df3ce,,,,,,,,,,,,,,,,,,,,,1402.5017,1402.5017,1402.5024,1403.4512,0,1,left,0.4215,,1403.4521,1403.4527,0,1,,1403.4533,1403.4537,0,1,,0,1403.4537,1403.4537,1403.454,1404.9511,0,10,10,10,1,0.2,0.8,0.6,0.4,1,0,,,,,,,,,,,,,,,,,,,,,,,,,,,,,,,,,,,,
,,669fd80763ececdab3e50eea,66daf7dafa100b3036805c57,2024-09-06_13h39.52.625,mdp,2024.2.1,Win32,59.88023952,66d7945b1baad48e845df3ce,,,,,,,,,,,,,,,,,,,,,1404.9513,1404.9513,1404.9521,1405.4844,0,1,left,0.0005,,1405.4854,1405.4859,0,1,,1405.4865,1405.4867,0,1,,0,1405.4867,1405.4867,1405.4871,1406.9841,0,11,11,11,1,0.2,0.8,0.6,0.4,1,0,,,,,,,,,,,,,,,,,,,,,,,,,,,,,,,,,,,,
,,669fd80763ececdab3e50eea,66daf7dafa100b3036805c57,2024-09-06_13h39.52.625,mdp,2024.2.1,Win32,59.88023952,66d7945b1baad48e845df3ce,,,,,,,,,,,,,,,,,,,,,1406.9844,1406.9844,1406.9852,1408.0841,0,0,left,0.5696,,1408.0851,1408.0856,0,1,,1408.0861,1408.0864,0,0,,1,1408.0864,1408.0864,1408.0868,1409.5837,0,12,12,12,1,0.2,0.8,0.6,0.4,1,0,,,,,,,,,,,,,,,,,,,,,,,,,,,,,,,,,,,,
,,669fd80763ececdab3e50eea,66daf7dafa100b3036805c57,2024-09-06_13h39.52.625,mdp,2024.2.1,Win32,59.88023952,66d7945b1baad48e845df3ce,,,,,,,,,,,,,,,,,,,,,1409.584,1409.5841,1409.5849,1410.767,1,1,right,0.6514,,1410.7681,1410.7685,0,1,,1410.7691,1410.7694,0,0,,0,1410.7694,1410.7695,1410.7699,1412.2669,0,13,13,13,1,0.2,0.8,0.6,0.4,1,0,,,,,,,,,,,,,,,,,,,,,,,,,,,,,,,,,,,,
,,669fd80763ececdab3e50eea,66daf7dafa100b3036805c57,2024-09-06_13h39.52.625,mdp,2024.2.1,Win32,59.88023952,66d7945b1baad48e845df3ce,,,,,,,,,,,,,,,,,,,,,1412.2671,1412.2671,1412.2679,1412.95,1,0,right,0.1601,,1412.951,1412.9515,0,1,,1412.952,1412.9523,0,1,,1,1412.9523,1412.9523,1412.9527,1414.4499,0,14,14,14,1,0.2,0.8,0.6,0.4,1,0,,,,,,,,,,,,,,,,,,,,,,,,,,,,,,,,,,,,
,,669fd80763ececdab3e50eea,66daf7dafa100b3036805c57,2024-09-06_13h39.52.625,mdp,2024.2.1,Win32,59.88023952,66d7945b1baad48e845df3ce,,,,,,,,,,,,,,,,,,,,,1414.4502,1414.4502,1414.4508,1415.3164,0,1,left,0.3433,,1415.3172,1415.3177,0,1,,1415.3182,1415.3185,0,1,,0,1415.3186,1415.3186,1415.319,1416.8163,0,15,15,15,1,0.2,0.8,0.6,0.4,1,0,,,,,,,,,,,,,,,,,,,,,,,,,,,,,,,,,,,,
,,669fd80763ececdab3e50eea,66daf7dafa100b3036805c57,2024-09-06_13h39.52.625,mdp,2024.2.1,Win32,59.88023952,66d7945b1baad48e845df3ce,,,,,,,,,,,,,,,,,,,,,1416.8166,1416.8166,1416.8173,1417.5661,0,0,left,0.2265,,1417.567,1417.5675,0,0,,1417.5679,1417.5683,0,1,,1,1417.5683,1417.5683,1417.5688,1419.0659,0,16,16,16,1,0.8,0.2,0.2,0.8,1,0,,,,,,,,,,,,,,,,,,,,,,,,,,,,,,,,,,,,
,,669fd80763ececdab3e50eea,66daf7dafa100b3036805c57,2024-09-06_13h39.52.625,mdp,2024.2.1,Win32,59.88023952,66d7945b1baad48e845df3ce,,,,,,,,,,,,,,,,,,,,,1419.0662,1419.0662,1419.067,1419.9159,0,0,left,0.3173,,1419.9168,1419.9173,0,0,,1419.9178,1419.9182,0,0,,1,1419.9182,1419.9182,1419.9186,1421.4157,0,17,17,17,1,0.8,0.2,0.2,0.8,1,0,,,,,,,,,,,,,,,,,,,,,,,,,,,,,,,,,,,,
,,669fd80763ececdab3e50eea,66daf7dafa100b3036805c57,2024-09-06_13h39.52.625,mdp,2024.2.1,Win32,59.88023952,66d7945b1baad48e845df3ce,,,,,,,,,,,,,,,,,,,,,1421.4159,1421.4159,1421.4168,1422.5489,1,1,right,0.6003,,1422.5498,1422.5503,0,1,,1422.5509,1422.5512,0,0,,0,1422.5512,1422.5512,1422.5516,1424.0488,0,18,18,18,1,0.8,0.2,0.2,0.8,1,0,,,,,,,,,,,,,,,,,,,,,,,,,,,,,,,,,,,,
,,669fd80763ececdab3e50eea,66daf7dafa100b3036805c57,2024-09-06_13h39.52.625,mdp,2024.2.1,Win32,59.88023952,66d7945b1baad48e845df3ce,,,,,,,,,,,,,,,,,,,,,1424.0491,1424.0491,1424.0498,1425.0653,1,1,right,0.491,,1425.0662,1425.0666,0,1,,1425.0671,1425.0674,0,1,,0,1425.0675,1425.0675,1425.0678,1426.5651,0,19,19,19,1,0.8,0.2,0.2,0.8,1,0,,,,,,,,,,,,,,,,,,,,,,,,,,,,,,,,,,,,
,,669fd80763ececdab3e50eea,66daf7dafa100b3036805c57,2024-09-06_13h39.52.625,mdp,2024.2.1,Win32,59.88023952,66d7945b1baad48e845df3ce,,,,,,,,,,,,,,,,,,,,,1426.5654,1426.5654,1426.5662,1427.215,0,0,left,0.1259,,1427.2159,1427.2165,0,0,,1427.2169,1427.2172,0,0,,1,1427.2173,1427.2173,1427.2176,1428.7148,0,20,20,20,1,0.8,0.2,0.2,0.8,1,0,,,,,,,,,,,,,,,,,,,,,,,,,,,,,,,,,,,,
,,669fd80763ececdab3e50eea,66daf7dafa100b3036805c57,2024-09-06_13h39.52.625,mdp,2024.2.1,Win32,59.88023952,66d7945b1baad48e845df3ce,,,,,,,,,,,,,,,,,,,,,1428.7151,1428.7151,1428.7159,1430.4814,0,0,left,1.2338,,1430.4822,1430.4827,0,1,,1430.4833,1430.4836,0,0,,1,1430.4837,1430.4837,1430.4841,1431.9811,0,21,21,21,1,0.8,0.2,0.2,0.8,1,0,,,,,,,,,,,,,,,,,,,,,,,,,,,,,,,,,,,,
,,669fd80763ececdab3e50eea,66daf7dafa100b3036805c57,2024-09-06_13h39.52.625,mdp,2024.2.1,Win32,59.88023952,66d7945b1baad48e845df3ce,,,,,,,,,,,,,,,,,,,,,1431.9814,1431.9815,1431.9822,1432.9144,0,1,left,0.4005,,1432.9153,1432.9157,0,0,,1432.9163,1432.9166,0,0,,0,1432.9166,1432.9166,1432.917,1434.4141,0,22,22,22,1,0.8,0.2,0.2,0.8,1,0,,,,,,,,,,,,,,,,,,,,,,,,,,,,,,,,,,,,
,,669fd80763ececdab3e50eea,66daf7dafa100b3036805c57,2024-09-06_13h39.52.625,mdp,2024.2.1,Win32,59.88023952,66d7945b1baad48e845df3ce,,,,,,,,,,,,,,,,,,,,,1434.415,1434.415,1434.4163,1436.2638,1,1,right,1.3195,,1436.2647,1436.2652,0,1,,1436.2658,1436.2661,0,0,,0,1436.2662,1436.2662,1436.2665,1437.7636,0,23,23,23,1,0.8,0.2,0.2,0.8,1,0,,,,,,,,,,,,,,,,,,,,,,,,,,,,,,,,,,,,
,,669fd80763ececdab3e50eea,66daf7dafa100b3036805c57,2024-09-06_13h39.52.625,mdp,2024.2.1,Win32,59.88023952,66d7945b1baad48e845df3ce,,,,,,,,,,,,,,,,,,,,,1437.764,1437.764,1437.7648,1438.9976,0,1,left,0.7018,,1438.9993,1439.0003,0,0,,1439.0014,1439.0023,0,0,,0,1439.0023,1439.0024,1439.0034,1440.4971,0,24,24,24,1,0.8,0.2,0.2,0.8,1,0,,,,,,,,,,,,,,,,,,,,,,,,,,,,,,,,,,,,
,,669fd80763ececdab3e50eea,66daf7dafa100b3036805c57,2024-09-06_13h39.52.625,mdp,2024.2.1,Win32,59.88023952,66d7945b1baad48e845df3ce,,,,,,,,,,,,,,,,,,,,,1440.4977,1440.4977,1440.4996,1441.0638,0,0,left,0.0347,,1441.0658,1441.0672,0,0,,1441.0684,1441.0696,0,1,,1,1441.0696,1441.0697,1441.0706,1442.5632,0,25,25,25,1,0.8,0.2,0.2,0.8,1,0,,,,,,,,,,,,,,,,,,,,,,,,,,,,,,,,,,,,
,,669fd80763ececdab3e50eea,66daf7dafa100b3036805c57,2024-09-06_13h39.52.625,mdp,2024.2.1,Win32,59.88023952,66d7945b1baad48e845df3ce,,,,,,,,,,,,,,,,,,,,,1442.5636,1442.5636,1442.5645,1444.8463,1,1,right,1.7503,,1444.8472,1444.8479,0,1,,1444.8485,1444.8492,0,1,,0,1444.8492,1444.8493,1444.85,1446.3461,0,26,26,26,1,0.8,0.2,0.2,0.8,1,0,,,,,,,,,,,,,,,,,,,,,,,,,,,,,,,,,,,,
,,669fd80763ececdab3e50eea,66daf7dafa100b3036805c57,2024-09-06_13h39.52.625,mdp,2024.2.1,Win32,59.88023952,66d7945b1baad48e845df3ce,,,,,,,,,,,,,,,,,,,,,1446.3464,1446.3464,1446.3475,1447.1959,0,0,left,0.3167,,1447.197,1447.1975,0,0,,1447.1983,1447.1987,0,1,,1,1447.1987,1447.1987,1447.1994,1448.6957,0,27,27,27,1,0.8,0.2,0.2,0.8,1,0,,,,,,,,,,,,,,,,,,,,,,,,,,,,,,,,,,,,
,,669fd80763ececdab3e50eea,66daf7dafa100b3036805c57,2024-09-06_13h39.52.625,mdp,2024.2.1,Win32,59.88023952,66d7945b1baad48e845df3ce,,,,,,,,,,,,,,,,,,,,,1448.6961,1448.6961,1448.6972,1449.5458,0,1,left,0.3214,,1449.5468,1449.5474,0,1,,1449.5481,1449.5485,0,0,,0,1449.5486,1449.5486,1449.5492,1451.0457,0,28,28,28,1,0.8,0.2,0.2,0.8,1,0,,,,,,,,,,,,,,,,,,,,,,,,,,,,,,,,,,,,
,,669fd80763ececdab3e50eea,66daf7dafa100b3036805c57,2024-09-06_13h39.52.625,mdp,2024.2.1,Win32,59.88023952,66d7945b1baad48e845df3ce,,,,,,,,,,,,,,,,,,,,,1451.046,1451.046,1451.047,1452.0787,1,0,right,0.5043,,1452.0796,1452.0803,0,1,,1452.081,1452.0814,0,0,,1,1452.0814,1452.0814,1452.0821,1453.5785,0,29,29,29,1,0.4,0.6,0.8,0.2,1,0,,,,,,,,,,,,,,,,,,,,,,,,,,,,,,,,,,,,
,,669fd80763ececdab3e50eea,66daf7dafa100b3036805c57,2024-09-06_13h39.52.625,mdp,2024.2.1,Win32,59.88023952,66d7945b1baad48e845df3ce,,,,,,,,,,,,,,,,,,,,,1453.5789,1453.5789,1453.5799,1454.7285,1,0,right,0.6171,,1454.7295,1454.7301,0,1,,1454.731,1454.7315,0,0,,1,1454.7315,1454.7315,1454.7323,1456.2282,0,30,30,30,1,0.4,0.6,0.8,0.2,1,0,,,,,,,,,,,,,,,,,,,,,,,,,,,,,,,,,,,,
,,669fd80763ececdab3e50eea,66daf7dafa100b3036805c57,2024-09-06_13h39.52.625,mdp,2024.2.1,Win32,59.88023952,66d7945b1baad48e845df3ce,,,,,,,,,,,,,,,,,,,,,1456.2285,1456.2285,1456.2294,1457.2114,1,1,right,0.4592,,1457.2125,1457.2131,0,0,,1457.2138,1457.2142,0,0,,0,1457.2143,1457.2143,1457.215,1458.7112,0,31,31,31,1,0.4,0.6,0.8,0.2,1,0,,,,,,,,,,,,,,,,,,,,,,,,,,,,,,,,,,,,
,,669fd80763ececdab3e50eea,66daf7dafa100b3036805c57,2024-09-06_13h39.52.625,mdp,2024.2.1,Win32,59.88023952,66d7945b1baad48e845df3ce,,,,,,,,,,,,,,,,,,,,,1458.7114,1458.7114,1458.7125,1460.0943,1,0,right,0.8599,,1460.0954,1460.096,0,0,,1460.0967,1460.0972,0,0,,1,1460.0972,1460.0972,1460.0979,1461.5941,0,32,32,32,1,0.4,0.6,0.8,0.2,1,0,,,,,,,,,,,,,,,,,,,,,,,,,,,,,,,,,,,,
,,669fd80763ececdab3e50eea,66daf7dafa100b3036805c57,2024-09-06_13h39.52.625,mdp,2024.2.1,Win32,59.88023952,66d7945b1baad48e845df3ce,,,,,,,,,,,,,,,,,,,,,1461.5945,1461.5945,1461.5954,1462.6108,1,1,right,0.4837,,1462.6118,1462.6125,0,0,,1462.6131,1462.6137,0,0,,0,1462.6137,1462.6137,1462.6143,1464.1103,0,33,33,33,1,0.6,0.4,0.4,0.6,1,0,,,,,,,,,,,,,,,,,,,,,,,,,,,,,,,,,,,,
,,669fd80763ececdab3e50eea,66daf7dafa100b3036805c57,2024-09-06_13h39.52.625,mdp,2024.2.1,Win32,59.88023952,66d7945b1baad48e845df3ce,,,,,,,,,,,,,,,,,,,,,1464.1106,1464.1106,1464.1113,1464.8938,1,1,right,0.2735,,1464.8946,1464.8952,0,1,,1464.8957,1464.8961,0,0,,0,1464.8961,1464.8961,1464.8965,1466.3935,0,34,34,34,1,0.8,0.2,0.2,0.8,1,0,,,,,,,,,,,,,,,,,,,,,,,,,,,,,,,,,,,,
,,669fd80763ececdab3e50eea,66daf7dafa100b3036805c57,2024-09-06_13h39.52.625,mdp,2024.2.1,Win32,59.88023952,66d7945b1baad48e845df3ce,,,,,,,,,,,,,,,,,,,,,1466.3938,1466.3938,1466.3945,1467.2601,0,0,left,0.3337,,1467.2609,1467.2614,0,0,,1467.262,1467.2624,0,0,,1,1467.2624,1467.2624,1467.2628,1468.7599,0,35,35,35,1,0.8,0.2,0.2,0.8,1,0,,,,,,,,,,,,,,,,,,,,,,,,,,,,,,,,,,,,
,,669fd80763ececdab3e50eea,66daf7dafa100b3036805c57,2024-09-06_13h39.52.625,mdp,2024.2.1,Win32,59.88023952,66d7945b1baad48e845df3ce,,,,,,,,,,,,,,,,,,,,,1468.7602,1468.7602,1468.761,1469.7432,0,0,left,0.4576,,1469.7441,1469.7446,0,0,,1469.7451,1469.7454,0,0,,1,1469.7454,1469.7454,1469.7458,1471.2429,0,36,36,36,1,0.8,0.2,0.2,0.8,1,0,,,,,,,,,,,,,,,,,,,,,,,,,,,,,,,,,,,,
,,669fd80763ececdab3e50eea,66daf7dafa100b3036805c57,2024-09-06_13h39.52.625,mdp,2024.2.1,Win32,59.88023952,66d7945b1baad48e845df3ce,,,,,,,,,,,,,,,,,,,,,1471.2431,1471.2432,1471.2439,1472.3262,0,0,left,0.5513,,1472.3271,1472.3275,0,0,,1472.328,1472.3284,0,0,,1,1472.3284,1472.3284,1472.3287,1473.8259,0,37,37,37,1,0.8,0.2,0.2,0.8,1,0,,,,,,,,,,,,,,,,,,,,,,,,,,,,,,,,,,,,
,,669fd80763ececdab3e50eea,66daf7dafa100b3036805c57,2024-09-06_13h39.52.625,mdp,2024.2.1,Win32,59.88023952,66d7945b1baad48e845df3ce,,,,,,,,,,,,,,,,,,,,,1473.8262,1473.8262,1473.8271,1474.7593,0,0,left,0.4056,,1474.7601,1474.7606,0,0,,1474.7612,1474.7615,0,0,,1,1474.7615,1474.7615,1474.7618,1476.259,0,38,38,38,1,0.8,0.2,0.2,0.8,1,0,,,,,,,,,,,,,,,,,,,,,,,,,,,,,,,,,,,,
,,669fd80763ececdab3e50eea,66daf7dafa100b3036805c57,2024-09-06_13h39.52.625,mdp,2024.2.1,Win32,59.88023952,66d7945b1baad48e845df3ce,,,,,,,,,,,,,,,,,,,,,1476.2592,1476.2592,1476.26,1477.1922,0,0,left,0.4028,,1477.193,1477.1935,0,0,,1477.194,1477.1943,0,0,,1,1477.1944,1477.1944,1477.1947,1478.6919,0,39,39,39,1,0.8,0.2,0.2,0.8,1,0,,,,,,,,,,,,,,,,,,,,,,,,,,,,,,,,,,,,
,,669fd80763ececdab3e50eea,66daf7dafa100b3036805c57,2024-09-06_13h39.52.625,mdp,2024.2.1,Win32,59.88023952,66d7945b1baad48e845df3ce,,,,,,,,,,,,,,,,,,,,,1478.6921,1478.6921,1478.6929,1479.4751,0,0,left,0.2507,,1479.476,1479.4765,0,0,,1479.4771,1479.4774,0,0,,1,1479.4774,1479.4774,1479.4778,1480.975,0,40,40,40,1,0.8,0.2,0.2,0.8,1,0,,,,,,,,,,,,,,,,,,,,,,,,,,,,,,,,,,,,
