init_exp.started,init_exp.stopped,participant,session,date,expName,psychopyVersion,OS,frameRate,study_id,disp_instruction.started,disp_instruction.stopped,instruction.thisRepN,instruction.thisTrialN,instruction.thisN,instruction.thisIndex,instruction.ran,instimg_path,consent.started,consent.stopped,key_resp_3.keys,key_resp_3.rt,key_resp_3.duration,n_steps,sequence_path,init_block.started,init_block.stopped,key_resp.keys,key_resp.rt,key_resp.duration,init_trials.started,init_trials.stopped,step0.started,step0.stopped,act0,s1,res0.keys,res0.rt,res0.duration,step1.started,step1.stopped,act1,s2,res1.keys,step2.started,step2.stopped,act2,s3,res2.keys,rew,reward_comp.started,reward_comp.stopped,reward_disp.started,reward_disp.stopped,trials.thisRepN,trials.thisTrialN,trials.thisN,trials.thisIndex,trials.ran,s00a0s10,s00a0s11,s00a1s10,s00a1s11,rew10,rew11,break_block.started,break_block.stopped,block.thisRepN,block.thisTrialN,block.thisN,block.thisIndex,block.ran,s00path,s10path,s11path,s20path,s21path,res1.rt,res1.duration,s10a0s20,s10a0s21,s10a1s20,s10a1s21,s11a0s20,s11a0s21,s11a1s20,s11a1s21,rew20,rew21,res2.rt,res2.duration,s20a0s30,s20a0s31,s20a1s30,s20a1s31,s21a0s30,s21a0s31,s21a1s30,s21a1s31,rew30,rew31
0,0.002,669f5d4b56cd9e5a3615a8ed,66db1634c8e1dedad0e5f137,2024-09-06_16h52.07.325,mdp,2024.2.1,Win32,60.0240096,66d7945b1baad48e845df3ce,,,,,,,,,,,,,,,,,,,,,,,,,,,,,,,,,,,,,,,,,,,,,,,,,,,,,,,,,,,,,,,,,,,,,,,,,,,,,,,,,,,,,,,,,,,
,,669f5d4b56cd9e5a3615a8ed,66db1634c8e1dedad0e5f137,2024-09-06_16h52.07.325,mdp,2024.2.1,Win32,60.0240096,66d7945b1baad48e845df3ce,0.006,47.58,0,0,0,0,1,rlnn_exp/rlnn_exp.001.png,,,,,,,,,,,,,,,,,,,,,,,,,,,,,,,,,,,,,,,,,,,,,,,,,,,,,,,,,,,,,,,,,,,,,,,,,,,,,,,,,,,
,,669f5d4b56cd9e5a3615a8ed,66db1634c8e1dedad0e5f137,2024-09-06_16h52.07.325,mdp,2024.2.1,Win32,60.0240096,66d7945b1baad48e845df3ce,47.588,65.476,0,1,1,1,1,rlnn_exp/rlnn_exp.002.png,,,,,,,,,,,,,,,,,,,,,,,,,,,,,,,,,,,,,,,,,,,,,,,,,,,,,,,,,,,,,,,,,,,,,,,,,,,,,,,,,,,
,,669f5d4b56cd9e5a3615a8ed,66db1634c8e1dedad0e5f137,2024-09-06_16h52.07.325,mdp,2024.2.1,Win32,60.0240096,66d7945b1baad48e845df3ce,65.478,126.616,0,2,2,2,1,rlnn_exp/rlnn_exp.003.png,,,,,,,,,,,,,,,,,,,,,,,,,,,,,,,,,,,,,,,,,,,,,,,,,,,,,,,,,,,,,,,,,,,,,,,,,,,,,,,,,,,
,,669f5d4b56cd9e5a3615a8ed,66db1634c8e1dedad0e5f137,2024-09-06_16h52.07.325,mdp,2024.2.1,Win32,60.0240096,66d7945b1baad48e845df3ce,126.627,271.017,0,3,3,3,1,rlnn_exp/rlnn_exp.004.png,,,,,,,,,,,,,,,,,,,,,,,,,,,,,,,,,,,,,,,,,,,,,,,,,,,,,,,,,,,,,,,,,,,,,,,,,,,,,,,,,,,
,,669f5d4b56cd9e5a3615a8ed,66db1634c8e1dedad0e5f137,2024-09-06_16h52.07.325,mdp,2024.2.1,Win32,60.0240096,66d7945b1baad48e845df3ce,,,,,,,,,271.017,344.668,y,63.613,,,,,,,,,,,,,,,,,,,,,,,,,,,,,,,,,,,,,,,,,,,,,,,,,,,,,,,,,,,,,,,,,,,,,,,,,,,,,,,
,,669f5d4b56cd9e5a3615a8ed,66db1634c8e1dedad0e5f137,2024-09-06_16h52.07.325,mdp,2024.2.1,Win32,60.0240096,66d7945b1baad48e845df3ce,,,,,,,,,,,,,,1,seqs/st1seq20.csv,344.69,351.73,space,6.518,,351.737,351.738,351.738,364.996,1,0,right,12.714,,364.997,365.004,,1,,365.005,365.013,,0,,1,365.013,365.013,365.014,366.508,0,0,0,0,1,0.6,0.4,0.4,0.6,1,0,,,,,,,,,,,,,,,,,,,,,,,,,,,,,,,,,,,,
,,669f5d4b56cd9e5a3615a8ed,66db1634c8e1dedad0e5f137,2024-09-06_16h52.07.325,mdp,2024.2.1,Win32,60.0240096,66d7945b1baad48e845df3ce,,,,,,,,,,,,,,,,,,,,,366.511,366.511,366.513,371.628,1,1,right,4.587,,371.635,371.645,,0,,371.647,371.655,,1,,0,371.655,371.655,371.657,373.157,0,1,1,1,1,0.6,0.4,0.4,0.6,1,0,,,,,,,,,,,,,,,,,,,,,,,,,,,,,,,,,,,,
,,669f5d4b56cd9e5a3615a8ed,66db1634c8e1dedad0e5f137,2024-09-06_16h52.07.325,mdp,2024.2.1,Win32,60.0240096,66d7945b1baad48e845df3ce,,,,,,,,,,,,,,,,,,,,,373.16,373.16,373.168,375.244,1,0,right,1.552,,375.247,375.254,,1,,375.257,375.26,,0,,1,375.261,375.261,375.263,376.758,0,2,2,2,1,0.6,0.4,0.4,0.6,1,0,,,,,,,,,,,,,,,,,,,,,,,,,,,,,,,,,,,,
,,669f5d4b56cd9e5a3615a8ed,66db1634c8e1dedad0e5f137,2024-09-06_16h52.07.325,mdp,2024.2.1,Win32,60.0240096,66d7945b1baad48e845df3ce,,,,,,,,,,,,,,,,,,,,,376.76,376.76,376.761,379.225,0,0,left,1.943,,379.228,379.233,,1,,379.235,379.24,,0,,1,379.24,379.24,379.242,380.738,0,3,3,3,1,0.6,0.4,0.4,0.6,1,0,,,,,,,,,,,,,,,,,,,,,,,,,,,,,,,,,,,,
,,669f5d4b56cd9e5a3615a8ed,66db1634c8e1dedad0e5f137,2024-09-06_16h52.07.325,mdp,2024.2.1,Win32,60.0240096,66d7945b1baad48e845df3ce,,,,,,,,,,,,,,,,,,,,,380.74,380.741,380.744,382.459,0,0,left,1.159,,382.462,382.467,,0,,382.47,382.475,,1,,1,382.475,382.475,382.476,383.97,0,4,4,4,1,0.6,0.4,0.4,0.6,1,0,,,,,,,,,,,,,,,,,,,,,,,,,,,,,,,,,,,,
,,669f5d4b56cd9e5a3615a8ed,66db1634c8e1dedad0e5f137,2024-09-06_16h52.07.325,mdp,2024.2.1,Win32,60.0240096,66d7945b1baad48e845df3ce,,,,,,,,,,,,,,,,,,,,,383.975,383.975,383.977,385.71,1,0,right,1.211,,385.712,385.716,,1,,385.722,385.727,,1,,1,385.727,385.727,385.729,387.22,0,5,5,5,1,0.6,0.4,0.4,0.6,1,0,,,,,,,,,,,,,,,,,,,,,,,,,,,,,,,,,,,,
,,669f5d4b56cd9e5a3615a8ed,66db1634c8e1dedad0e5f137,2024-09-06_16h52.07.325,mdp,2024.2.1,Win32,60.0240096,66d7945b1baad48e845df3ce,,,,,,,,,,,,,,,,,,,,,387.224,387.224,387.226,389.357,1,0,right,1.607,,389.359,389.364,,0,,389.366,389.375,,1,,1,389.376,389.376,389.377,390.874,0,6,6,6,1,0.6,0.4,0.4,0.6,1,0,,,,,,,,,,,,,,,,,,,,,,,,,,,,,,,,,,,,
,,669f5d4b56cd9e5a3615a8ed,66db1634c8e1dedad0e5f137,2024-09-06_16h52.07.325,mdp,2024.2.1,Win32,60.0240096,66d7945b1baad48e845df3ce,,,,,,,,,,,,,,,,,,,,,390.875,390.875,390.877,392.5,1,1,right,1.108,,392.506,392.51,,1,,392.514,392.519,,0,,0,392.519,392.519,392.521,394.019,0,7,7,7,1,0.6,0.4,0.4,0.6,1,0,,,,,,,,,,,,,,,,,,,,,,,,,,,,,,,,,,,,
,,669f5d4b56cd9e5a3615a8ed,66db1634c8e1dedad0e5f137,2024-09-06_16h52.07.325,mdp,2024.2.1,Win32,60.0240096,66d7945b1baad48e845df3ce,,,,,,,,,,,,,,,,,,,,,394.022,394.022,394.024,395.941,1,0,right,1.394,,395.942,395.947,,1,,395.95,395.954,,1,,1,395.955,395.955,395.957,397.452,0,8,8,8,1,0.6,0.4,0.4,0.6,1,0,,,,,,,,,,,,,,,,,,,,,,,,,,,,,,,,,,,,
,,669f5d4b56cd9e5a3615a8ed,66db1634c8e1dedad0e5f137,2024-09-06_16h52.07.325,mdp,2024.2.1,Win32,60.0240096,66d7945b1baad48e845df3ce,,,,,,,,,,,,,,,,,,,,,397.453,397.453,397.454,398.653,1,0,right,0.682,,398.656,398.66,,0,,398.666,398.672,,1,,1,398.672,398.672,398.673,400.17,0,9,9,9,1,0.6,0.4,0.4,0.6,1,0,,,,,,,,,,,,,,,,,,,,,,,,,,,,,,,,,,,,
,,669f5d4b56cd9e5a3615a8ed,66db1634c8e1dedad0e5f137,2024-09-06_16h52.07.325,mdp,2024.2.1,Win32,60.0240096,66d7945b1baad48e845df3ce,,,,,,,,,,,,,,,,,,,,,400.171,400.171,400.173,401.651,0,1,left,0.953,,401.655,401.66,,0,,401.662,401.667,,1,,0,401.667,401.667,401.669,403.168,0,10,10,10,1,0.6,0.4,0.4,0.6,1,0,,,,,,,,,,,,,,,,,,,,,,,,,,,,,,,,,,,,
,,669f5d4b56cd9e5a3615a8ed,66db1634c8e1dedad0e5f137,2024-09-06_16h52.07.325,mdp,2024.2.1,Win32,60.0240096,66d7945b1baad48e845df3ce,,,,,,,,,,,,,,,,,,,,,403.171,403.171,403.173,404.138,0,0,left,0.43,,404.153,404.16,,1,,404.163,404.167,,1,,1,404.168,404.168,404.171,405.667,0,11,11,11,1,0.6,0.4,0.4,0.6,1,0,,,,,,,,,,,,,,,,,,,,,,,,,,,,,,,,,,,,
,,669f5d4b56cd9e5a3615a8ed,66db1634c8e1dedad0e5f137,2024-09-06_16h52.07.325,mdp,2024.2.1,Win32,60.0240096,66d7945b1baad48e845df3ce,,,,,,,,,,,,,,,,,,,,,405.672,405.672,405.675,407.188,1,0,right,0.986,,407.19,407.201,,0,,407.206,407.211,,1,,1,407.211,407.211,407.214,408.699,0,12,12,12,1,0.6,0.4,0.4,0.6,1,0,,,,,,,,,,,,,,,,,,,,,,,,,,,,,,,,,,,,
,,669f5d4b56cd9e5a3615a8ed,66db1634c8e1dedad0e5f137,2024-09-06_16h52.07.325,mdp,2024.2.1,Win32,60.0240096,66d7945b1baad48e845df3ce,,,,,,,,,,,,,,,,,,,,,408.703,408.703,408.705,409.97,1,0,right,0.737,,409.973,409.983,,1,,409.985,409.991,,0,,1,409.991,409.991,409.997,411.484,0,13,13,13,1,0.2,0.8,0.8,0.2,1,0,,,,,,,,,,,,,,,,,,,,,,,,,,,,,,,,,,,,
,,669f5d4b56cd9e5a3615a8ed,66db1634c8e1dedad0e5f137,2024-09-06_16h52.07.325,mdp,2024.2.1,Win32,60.0240096,66d7945b1baad48e845df3ce,,,,,,,,,,,,,,,,,,,,,411.487,411.487,411.488,413.335,1,0,right,1.32,,413.337,413.342,,0,,413.344,413.353,,0,,1,413.353,413.353,413.355,414.849,0,14,14,14,1,0.2,0.8,0.8,0.2,1,0,,,,,,,,,,,,,,,,,,,,,,,,,,,,,,,,,,,,
,,669f5d4b56cd9e5a3615a8ed,66db1634c8e1dedad0e5f137,2024-09-06_16h52.07.325,mdp,2024.2.1,Win32,60.0240096,66d7945b1baad48e845df3ce,,,,,,,,,,,,,,,,,,,,,414.851,414.851,414.853,416.215,1,0,right,0.838,,416.22,416.225,,0,,416.226,416.233,,0,,1,416.234,416.234,416.235,417.731,0,15,15,15,1,0.2,0.8,0.8,0.2,1,0,,,,,,,,,,,,,,,,,,,,,,,,,,,,,,,,,,,,
,,669f5d4b56cd9e5a3615a8ed,66db1634c8e1dedad0e5f137,2024-09-06_16h52.07.325,mdp,2024.2.1,Win32,60.0240096,66d7945b1baad48e845df3ce,,,,,,,,,,,,,,,,,,,,,417.735,417.735,417.736,419.07,1,0,right,0.815,,419.072,419.077,,0,,419.085,419.089,,0,,1,419.089,419.089,419.09,420.581,0,16,16,16,1,0.2,0.8,0.8,0.2,1,0,,,,,,,,,,,,,,,,,,,,,,,,,,,,,,,,,,,,
,,669f5d4b56cd9e5a3615a8ed,66db1634c8e1dedad0e5f137,2024-09-06_16h52.07.325,mdp,2024.2.1,Win32,60.0240096,66d7945b1baad48e845df3ce,,,,,,,,,,,,,,,,,,,,,420.584,420.584,420.586,422.065,1,0,right,0.955,,422.068,422.074,,0,,422.076,422.08,,1,,1,422.08,422.081,422.083,423.579,0,17,17,17,1,0.2,0.8,0.8,0.2,1,0,,,,,,,,,,,,,,,,,,,,,,,,,,,,,,,,,,,,
,,669f5d4b56cd9e5a3615a8ed,66db1634c8e1dedad0e5f137,2024-09-06_16h52.07.325,mdp,2024.2.1,Win32,60.0240096,66d7945b1baad48e845df3ce,,,,,,,,,,,,,,,,,,,,,423.58,423.58,423.585,425.133,1,0,right,1.024,,425.136,425.14,,1,,425.146,425.15,,0,,1,425.15,425.15,425.152,426.645,0,18,18,18,1,0.4,0.6,0.6,0.4,1,0,,,,,,,,,,,,,,,,,,,,,,,,,,,,,,,,,,,,
,,669f5d4b56cd9e5a3615a8ed,66db1634c8e1dedad0e5f137,2024-09-06_16h52.07.325,mdp,2024.2.1,Win32,60.0240096,66d7945b1baad48e845df3ce,,,,,,,,,,,,,,,,,,,,,426.646,426.646,426.647,428.079,1,0,right,0.904,,428.084,428.087,,0,,428.089,428.095,,0,,1,428.096,428.096,428.097,429.596,0,19,19,19,1,0.4,0.6,0.6,0.4,1,0,,,,,,,,,,,,,,,,,,,,,,,,,,,,,,,,,,,,
,,669f5d4b56cd9e5a3615a8ed,66db1634c8e1dedad0e5f137,2024-09-06_16h52.07.325,mdp,2024.2.1,Win32,60.0240096,66d7945b1baad48e845df3ce,,,,,,,,,,,,,,,,,,,,,429.598,429.599,429.601,431.146,1,0,right,1.019,,431.15,431.154,,0,,431.156,431.16,,0,,1,431.16,431.16,431.162,432.664,0,20,20,20,1,0.2,0.8,0.8,0.2,1,0,,,,,,,,,,,,,,,,,,,,,,,,,,,,,,,,,,,,
,,669f5d4b56cd9e5a3615a8ed,66db1634c8e1dedad0e5f137,2024-09-06_16h52.07.325,mdp,2024.2.1,Win32,60.0240096,66d7945b1baad48e845df3ce,,,,,,,,,,,,,,,,,,,,,432.665,432.666,432.667,434.197,1,0,right,1.009,,434.2,434.204,,0,,434.206,434.213,,0,,1,434.213,434.213,434.214,435.714,0,21,21,21,1,0.2,0.8,0.8,0.2,1,0,,,,,,,,,,,,,,,,,,,,,,,,,,,,,,,,,,,,
,,669f5d4b56cd9e5a3615a8ed,66db1634c8e1dedad0e5f137,2024-09-06_16h52.07.325,mdp,2024.2.1,Win32,60.0240096,66d7945b1baad48e845df3ce,,,,,,,,,,,,,,,,,,,,,435.715,435.715,435.717,437.165,1,0,right,0.926,,437.166,437.171,,1,,437.173,437.178,,1,,1,437.179,437.179,437.18,438.681,0,22,22,22,1,0.8,0.2,0.2,0.8,1,0,,,,,,,,,,,,,,,,,,,,,,,,,,,,,,,,,,,,
,,669f5d4b56cd9e5a3615a8ed,66db1634c8e1dedad0e5f137,2024-09-06_16h52.07.325,mdp,2024.2.1,Win32,60.0240096,66d7945b1baad48e845df3ce,,,,,,,,,,,,,,,,,,,,,438.685,438.685,438.691,439.529,1,0,right,0.321,,439.532,439.535,,1,,439.537,439.538,,0,,1,439.539,439.539,439.549,441.046,0,23,23,23,1,0.8,0.2,0.2,0.8,1,0,,,,,,,,,,,,,,,,,,,,,,,,,,,,,,,,,,,,
,,669f5d4b56cd9e5a3615a8ed,66db1634c8e1dedad0e5f137,2024-09-06_16h52.07.325,mdp,2024.2.1,Win32,60.0240096,66d7945b1baad48e845df3ce,,,,,,,,,,,,,,,,,,,,,441.048,441.048,441.051,442.261,1,1,right,0.686,,442.265,442.272,,0,,442.276,442.28,,1,,0,442.281,442.281,442.283,443.782,0,24,24,24,1,0.8,0.2,0.2,0.8,1,0,,,,,,,,,,,,,,,,,,,,,,,,,,,,,,,,,,,,
,,669f5d4b56cd9e5a3615a8ed,66db1634c8e1dedad0e5f137,2024-09-06_16h52.07.325,mdp,2024.2.1,Win32,60.0240096,66d7945b1baad48e845df3ce,,,,,,,,,,,,,,,,,,,,,443.783,443.783,443.785,446.415,0,1,left,2.107,,446.417,446.426,,0,,446.429,446.433,,0,,0,446.433,446.433,446.435,447.927,0,25,25,25,1,0.6,0.4,0.4,0.6,1,0,,,,,,,,,,,,,,,,,,,,,,,,,,,,,,,,,,,,
,,669f5d4b56cd9e5a3615a8ed,66db1634c8e1dedad0e5f137,2024-09-06_16h52.07.325,mdp,2024.2.1,Win32,60.0240096,66d7945b1baad48e845df3ce,,,,,,,,,,,,,,,,,,,,,447.93,447.933,447.934,448.964,1,1,right,0.497,,448.974,448.979,,1,,448.983,448.987,,0,,0,448.988,448.988,448.99,450.494,0,26,26,26,1,0.6,0.4,0.4,0.6,1,0,,,,,,,,,,,,,,,,,,,,,,,,,,,,,,,,,,,,
,,669f5d4b56cd9e5a3615a8ed,66db1634c8e1dedad0e5f137,2024-09-06_16h52.07.325,mdp,2024.2.1,Win32,60.0240096,66d7945b1baad48e845df3ce,,,,,,,,,,,,,,,,,,,,,450.495,450.495,450.497,451.528,1,0,right,0.508,,451.531,451.535,,1,,451.537,451.544,,0,,1,451.544,451.544,451.545,453.047,0,27,27,27,1,0.6,0.4,0.4,0.6,1,0,,,,,,,,,,,,,,,,,,,,,,,,,,,,,,,,,,,,
,,669f5d4b56cd9e5a3615a8ed,66db1634c8e1dedad0e5f137,2024-09-06_16h52.07.325,mdp,2024.2.1,Win32,60.0240096,66d7945b1baad48e845df3ce,,,,,,,,,,,,,,,,,,,,,453.048,453.048,453.049,454.161,1,1,right,0.591,,454.163,454.169,,1,,454.172,454.179,,1,,0,454.179,454.179,454.18,455.679,0,28,28,28,1,0.6,0.4,0.4,0.6,1,0,,,,,,,,,,,,,,,,,,,,,,,,,,,,,,,,,,,,
,,669f5d4b56cd9e5a3615a8ed,66db1634c8e1dedad0e5f137,2024-09-06_16h52.07.325,mdp,2024.2.1,Win32,60.0240096,66d7945b1baad48e845df3ce,,,,,,,,,,,,,,,,,,,,,455.68,455.68,455.682,457.11,0,0,left,0.903,,457.112,457.117,,1,,457.119,457.126,,1,,1,457.126,457.126,457.127,458.625,0,29,29,29,1,0.6,0.4,0.4,0.6,1,0,,,,,,,,,,,,,,,,,,,,,,,,,,,,,,,,,,,,
,,669f5d4b56cd9e5a3615a8ed,66db1634c8e1dedad0e5f137,2024-09-06_16h52.07.325,mdp,2024.2.1,Win32,60.0240096,66d7945b1baad48e845df3ce,,,,,,,,,,,,,,,,,,,,,458.627,458.627,458.628,459.927,0,0,left,0.771,,459.928,459.937,,0,,459.939,459.944,,0,,1,459.944,459.944,459.946,461.44,0,30,30,30,1,0.6,0.4,0.4,0.6,1,0,,,,,,,,,,,,,,,,,,,,,,,,,,,,,,,,,,,,
,,669f5d4b56cd9e5a3615a8ed,66db1634c8e1dedad0e5f137,2024-09-06_16h52.07.325,mdp,2024.2.1,Win32,60.0240096,66d7945b1baad48e845df3ce,,,,,,,,,,,,,,,,,,,,,461.443,461.443,461.444,462.458,0,0,left,0.488,,462.462,462.466,,0,,462.468,462.475,,0,,1,462.475,462.475,462.476,463.974,0,31,31,31,1,0.6,0.4,0.4,0.6,1,0,,,,,,,,,,,,,,,,,,,,,,,,,,,,,,,,,,,,
,,669f5d4b56cd9e5a3615a8ed,66db1634c8e1dedad0e5f137,2024-09-06_16h52.07.325,mdp,2024.2.1,Win32,60.0240096,66d7945b1baad48e845df3ce,,,,,,,,,,,,,,,,,,,,,463.976,463.976,463.978,464.961,0,0,left,0.464,,464.963,464.967,,1,,464.971,464.975,,1,,1,464.975,464.975,464.977,466.473,0,32,32,32,1,0.6,0.4,0.4,0.6,1,0,,,,,,,,,,,,,,,,,,,,,,,,,,,,,,,,,,,,
,,669f5d4b56cd9e5a3615a8ed,66db1634c8e1dedad0e5f137,2024-09-06_16h52.07.325,mdp,2024.2.1,Win32,60.0240096,66d7945b1baad48e845df3ce,,,,,,,,,,,,,,,,,,,,,466.475,466.475,466.477,467.494,0,0,left,0.498,,467.495,467.499,,1,,467.504,467.508,,1,,1,467.508,467.508,467.509,469.009,0,33,33,33,1,0.4,0.6,0.8,0.2,1,0,,,,,,,,,,,,,,,,,,,,,,,,,,,,,,,,,,,,
,,669f5d4b56cd9e5a3615a8ed,66db1634c8e1dedad0e5f137,2024-09-06_16h52.07.325,mdp,2024.2.1,Win32,60.0240096,66d7945b1baad48e845df3ce,,,,,,,,,,,,,,,,,,,,,469.01,469.01,469.014,470.305,0,0,left,0.771,,470.309,470.313,,0,,470.316,470.321,,0,,1,470.321,470.321,470.323,471.821,0,34,34,34,1,0.8,0.2,0.4,0.6,1,0,,,,,,,,,,,,,,,,,,,,,,,,,,,,,,,,,,,,
,,669f5d4b56cd9e5a3615a8ed,66db1634c8e1dedad0e5f137,2024-09-06_16h52.07.325,mdp,2024.2.1,Win32,60.0240096,66d7945b1baad48e845df3ce,,,,,,,,,,,,,,,,,,,,,471.824,471.824,471.825,472.875,0,1,left,0.539,,472.877,472.882,,1,,472.886,472.891,,0,,0,472.891,472.891,472.892,474.388,0,35,35,35,1,0.8,0.2,0.4,0.6,1,0,,,,,,,,,,,,,,,,,,,,,,,,,,,,,,,,,,,,
,,669f5d4b56cd9e5a3615a8ed,66db1634c8e1dedad0e5f137,2024-09-06_16h52.07.325,mdp,2024.2.1,Win32,60.0240096,66d7945b1baad48e845df3ce,,,,,,,,,,,,,,,,,,,,,474.389,474.389,474.392,475.243,1,1,right,0.32,,475.245,475.248,,1,,475.251,475.255,,0,,0,475.255,475.255,475.257,476.756,0,36,36,36,1,0.8,0.2,0.4,0.6,1,0,,,,,,,,,,,,,,,,,,,,,,,,,,,,,,,,,,,,
,,669f5d4b56cd9e5a3615a8ed,66db1634c8e1dedad0e5f137,2024-09-06_16h52.07.325,mdp,2024.2.1,Win32,60.0240096,66d7945b1baad48e845df3ce,,,,,,,,,,,,,,,,,,,,,476.76,476.76,476.767,477.708,1,0,right,0.425,,477.713,477.721,,1,,477.723,477.728,,1,,1,477.728,477.728,477.73,479.207,0,37,37,37,1,0.6,0.4,0.6,0.4,1,0,,,,,,,,,,,,,,,,,,,,,,,,,,,,,,,,,,,,
,,669f5d4b56cd9e5a3615a8ed,66db1634c8e1dedad0e5f137,2024-09-06_16h52.07.325,mdp,2024.2.1,Win32,60.0240096,66d7945b1baad48e845df3ce,,,,,,,,,,,,,,,,,,,,,479.208,479.208,479.209,480.78,1,0,right,1.05,,480.789,480.796,,1,,480.798,480.804,,1,,1,480.804,480.804,480.806,482.307,0,38,38,38,1,0.6,0.4,0.6,0.4,1,0,,,,,,,,,,,,,,,,,,,,,,,,,,,,,,,,,,,,
,,669f5d4b56cd9e5a3615a8ed,66db1634c8e1dedad0e5f137,2024-09-06_16h52.07.325,mdp,2024.2.1,Win32,60.0240096,66d7945b1baad48e845df3ce,,,,,,,,,,,,,,,,,,,,,482.308,482.308,482.311,483.942,1,0,right,1.094,,483.944,483.956,,1,,483.958,483.973,,0,,1,483.974,483.974,483.975,485.471,0,39,39,39,1,0.8,0.2,0.8,0.2,1,0,,,,,,,,,,,,,,,,,,,,,,,,,,,,,,,,,,,,
,,669f5d4b56cd9e5a3615a8ed,66db1634c8e1dedad0e5f137,2024-09-06_16h52.07.325,mdp,2024.2.1,Win32,60.0240096,66d7945b1baad48e845df3ce,,,,,,,,,,,,,,,,,,,,,485.472,485.472,485.474,486.323,1,0,right,0.324,,486.325,486.329,,0,,486.334,486.338,,0,,1,486.338,486.338,486.34,487.838,0,40,40,40,1,0.8,0.2,0.8,0.2,1,0,,,,,,,,,,,,,,,,,,,,,,,,,,,,,,,,,,,,
,,669f5d4b56cd9e5a3615a8ed,66db1634c8e1dedad0e5f137,2024-09-06_16h52.07.325,mdp,2024.2.1,Win32,60.0240096,66d7945b1baad48e845df3ce,,,,,,,,,,,,,,,,,,,,,487.839,487.839,487.84,488.886,1,1,right,0.525,,488.889,488.894,,0,,488.895,488.901,,0,,0,488.901,488.901,488.903,490.4,0,41,41,41,1,0.8,0.2,0.8,0.2,1,0,,,,,,,,,,,,,,,,,,,,,,,,,,,,,,,,,,,,
,,669f5d4b56cd9e5a3615a8ed,66db1634c8e1dedad0e5f137,2024-09-06_16h52.07.325,mdp,2024.2.1,Win32,60.0240096,66d7945b1baad48e845df3ce,,,,,,,,,,,,,,,,,,,,,490.405,490.405,490.406,491.658,1,1,right,0.732,,491.659,491.666,,1,,491.668,491.669,,0,,0,491.67,491.67,491.671,493.167,0,42,42,42,1,0.8,0.2,0.8,0.2,1,0,,,,,,,,,,,,,,,,,,,,,,,,,,,,,,,,,,,,
,,669f5d4b56cd9e5a3615a8ed,66db1634c8e1dedad0e5f137,2024-09-06_16h52.07.325,mdp,2024.2.1,Win32,60.0240096,66d7945b1baad48e845df3ce,,,,,,,,,,,,,,,,,,,,,493.169,493.169,493.172,494.554,0,0,left,0.863,,494.556,494.561,,0,,494.567,494.571,,0,,1,494.571,494.571,494.572,496.067,0,43,43,43,1,0.6,0.4,0.2,0.8,1,0,,,,,,,,,,,,,,,,,,,,,,,,,,,,,,,,,,,,
,,669f5d4b56cd9e5a3615a8ed,66db1634c8e1dedad0e5f137,2024-09-06_16h52.07.325,mdp,2024.2.1,Win32,60.0240096,66d7945b1baad48e845df3ce,,,,,,,,,,,,,,,,,,,,,496.07,496.07,496.071,497.006,0,1,left,0.409,,497.007,497.015,,1,,497.017,497.02,,0,,0,497.02,497.02,497.022,498.516,0,44,44,44,1,0.4,0.6,0.8,0.2,1,0,,,,,,,,,,,,,,,,,,,,,,,,,,,,,,,,,,,,
,,669f5d4b56cd9e5a3615a8ed,66db1634c8e1dedad0e5f137,2024-09-06_16h52.07.325,mdp,2024.2.1,Win32,60.0240096,66d7945b1baad48e845df3ce,,,,,,,,,,,,,,,,,,,,,498.518,498.518,498.52,499.552,1,0,right,0.507,,499.554,499.559,,0,,499.564,499.568,,1,,1,499.568,499.568,499.569,501.064,0,45,45,45,1,0.8,0.2,0.4,0.6,1,0,,,,,,,,,,,,,,,,,,,,,,,,,,,,,,,,,,,,
,,669f5d4b56cd9e5a3615a8ed,66db1634c8e1dedad0e5f137,2024-09-06_16h52.07.325,mdp,2024.2.1,Win32,60.0240096,66d7945b1baad48e845df3ce,,,,,,,,,,,,,,,,,,,,,501.066,501.067,501.069,501.885,0,0,left,0.289,,501.887,501.891,,0,,501.894,501.897,,0,,1,501.898,501.898,501.899,503.401,0,46,46,46,1,0.8,0.2,0.4,0.6,1,0,,,,,,,,,,,,,,,,,,,,,,,,,,,,,,,,,,,,
,,669f5d4b56cd9e5a3615a8ed,66db1634c8e1dedad0e5f137,2024-09-06_16h52.07.325,mdp,2024.2.1,Win32,60.0240096,66d7945b1baad48e845df3ce,,,,,,,,,,,,,,,,,,,,,503.402,503.402,503.404,504.573,0,1,left,0.647,,504.575,504.607,,0,,504.608,504.613,,0,,0,504.613,504.613,504.614,506.113,0,47,47,47,1,0.8,0.2,0.4,0.6,1,0,,,,,,,,,,,,,,,,,,,,,,,,,,,,,,,,,,,,
,,669f5d4b56cd9e5a3615a8ed,66db1634c8e1dedad0e5f137,2024-09-06_16h52.07.325,mdp,2024.2.1,Win32,60.0240096,66d7945b1baad48e845df3ce,,,,,,,,,,,,,,,,,,,,,506.116,506.116,506.119,507.017,0,0,left,0.393,,507.018,507.025,,1,,507.026,507.029,,0,,1,507.029,507.029,507.031,508.529,0,48,48,48,1,0.8,0.2,0.4,0.6,1,0,,,,,,,,,,,,,,,,,,,,,,,,,,,,,,,,,,,,
,,669f5d4b56cd9e5a3615a8ed,66db1634c8e1dedad0e5f137,2024-09-06_16h52.07.325,mdp,2024.2.1,Win32,60.0240096,66d7945b1baad48e845df3ce,,,,,,,,,,,,,,,,,,,,,508.534,508.534,508.535,510.269,0,1,left,1.164,,510.285,510.293,,0,,510.296,510.303,,0,,0,510.303,510.303,510.304,511.797,0,49,49,49,1,0.8,0.2,0.4,0.6,1,0,,,,,,,,,,,,,,,,,,,,,,,,,,,,,,,,,,,,
,,669f5d4b56cd9e5a3615a8ed,66db1634c8e1dedad0e5f137,2024-09-06_16h52.07.325,mdp,2024.2.1,Win32,60.0240096,66d7945b1baad48e845df3ce,,,,,,,,,,,,,,,,,,,,,,,,,,,,,,,,,,,,,,,,,,,,,,,,,,,,,,,,511.8,570.321,0,0,0,7,1,imgs/goat.png,imgs/elephant.png,imgs/kangaroo.png,imgs/bear.png,imgs/lion.png,,,,,,,,,,,,,,,,,,,,,,,,
,,669f5d4b56cd9e5a3615a8ed,66db1634c8e1dedad0e5f137,2024-09-06_16h52.07.325,mdp,2024.2.1,Win32,60.0240096,66d7945b1baad48e845df3ce,,,,,,,,,,,,,,2,seqs/st2seq18.csv,570.334,578.037,space,7.189,,578.055,578.055,578.062,582.583,1,0,right,3.985,,582.587,585.119,1,0,right,585.122,585.129,,0,,1,585.129,585.129,585.133,586.634,0,0,0,0,1,0.6,0.4,0.6,0.4,,,,,,,,,,,,,,,1.986,,0.4,0.6,0.8,0.2,0.4,0.6,0.4,0.6,1,0,,,,,,,,,,,,
,,669f5d4b56cd9e5a3615a8ed,66db1634c8e1dedad0e5f137,2024-09-06_16h52.07.325,mdp,2024.2.1,Win32,60.0240096,66d7945b1baad48e845df3ce,,,,,,,,,,,,,,,,,,,,,586.636,586.636,586.638,588.547,1,0,right,1.387,,588.553,590.2,1,0,right,590.202,590.206,,0,,1,590.207,590.207,590.208,591.697,0,1,1,1,1,0.6,0.4,0.6,0.4,,,,,,,,,,,,,,,1.122,,0.4,0.6,0.8,0.2,0.4,0.6,0.4,0.6,1,0,,,,,,,,,,,,
,,669f5d4b56cd9e5a3615a8ed,66db1634c8e1dedad0e5f137,2024-09-06_16h52.07.325,mdp,2024.2.1,Win32,60.0240096,66d7945b1baad48e845df3ce,,,,,,,,,,,,,,,,,,,,,591.699,591.699,591.702,594.267,1,0,right,2.045,,594.269,596.286,1,0,right,596.289,596.299,,0,,1,596.299,596.299,596.3,597.789,0,2,2,2,1,0.6,0.4,0.6,0.4,,,,,,,,,,,,,,,1.508,,0.4,0.6,0.8,0.2,0.4,0.6,0.4,0.6,1,0,,,,,,,,,,,,
,,669f5d4b56cd9e5a3615a8ed,66db1634c8e1dedad0e5f137,2024-09-06_16h52.07.325,mdp,2024.2.1,Win32,60.0240096,66d7945b1baad48e845df3ce,,,,,,,,,,,,,,,,,,,,,597.79,597.79,597.814,600.402,1,1,right,2.095,,600.404,602.549,1,0,right,602.551,602.557,,1,,1,602.558,602.558,602.56,604.061,0,3,3,3,1,0.6,0.4,0.6,0.4,,,,,,,,,,,,,,,1.605,,0.4,0.6,0.8,0.2,0.4,0.6,0.4,0.6,1,0,,,,,,,,,,,,
,,669f5d4b56cd9e5a3615a8ed,66db1634c8e1dedad0e5f137,2024-09-06_16h52.07.325,mdp,2024.2.1,Win32,60.0240096,66d7945b1baad48e845df3ce,,,,,,,,,,,,,,,,,,,,,604.065,604.065,604.067,605.744,1,0,right,1.154,,605.749,606.894,1,0,right,606.899,606.904,,1,,1,606.905,606.905,606.906,608.415,0,4,4,4,1,0.6,0.4,0.6,0.4,,,,,,,,,,,,,,,0.61,,0.4,0.6,0.8,0.2,0.4,0.6,0.4,0.6,1,0,,,,,,,,,,,,
,,669f5d4b56cd9e5a3615a8ed,66db1634c8e1dedad0e5f137,2024-09-06_16h52.07.325,mdp,2024.2.1,Win32,60.0240096,66d7945b1baad48e845df3ce,,,,,,,,,,,,,,,,,,,,,608.419,608.419,608.429,609.728,1,1,right,0.783,,609.734,611.298,1,1,right,611.299,611.309,,1,,0,611.31,611.31,611.313,612.813,0,5,5,5,1,0.6,0.4,0.6,0.4,,,,,,,,,,,,,,,1.023,,0.4,0.6,0.8,0.2,0.4,0.6,0.4,0.6,1,0,,,,,,,,,,,,
,,669f5d4b56cd9e5a3615a8ed,66db1634c8e1dedad0e5f137,2024-09-06_16h52.07.325,mdp,2024.2.1,Win32,60.0240096,66d7945b1baad48e845df3ce,,,,,,,,,,,,,,,,,,,,,612.815,612.815,612.817,614.18,0,0,left,0.843,,614.182,615.577,0,1,left,615.581,615.587,,1,,0,615.587,615.587,615.589,617.079,0,6,6,6,1,0.6,0.4,0.6,0.4,,,,,,,,,,,,,,,0.857,,0.4,0.6,0.8,0.2,0.8,0.2,0.8,0.2,1,0,,,,,,,,,,,,
,,669f5d4b56cd9e5a3615a8ed,66db1634c8e1dedad0e5f137,2024-09-06_16h52.07.325,mdp,2024.2.1,Win32,60.0240096,66d7945b1baad48e845df3ce,,,,,,,,,,,,,,,,,,,,,617.08,617.08,617.082,618.213,0,0,left,0.609,,618.215,619.646,0,1,left,619.647,619.656,,0,,0,619.657,619.657,619.659,621.158,0,7,7,7,1,0.6,0.4,0.6,0.4,,,,,,,,,,,,,,,0.904,,0.4,0.6,0.8,0.2,0.8,0.2,0.8,0.2,1,0,,,,,,,,,,,,
,,669f5d4b56cd9e5a3615a8ed,66db1634c8e1dedad0e5f137,2024-09-06_16h52.07.325,mdp,2024.2.1,Win32,60.0240096,66d7945b1baad48e845df3ce,,,,,,,,,,,,,,,,,,,,,621.161,621.161,621.163,622.46,1,0,right,0.771,,622.463,623.596,1,1,right,623.597,623.604,,0,,0,623.604,623.604,623.607,625.107,0,8,8,8,1,0.6,0.4,0.6,0.4,,,,,,,,,,,,,,,0.607,,0.4,0.6,0.8,0.2,0.8,0.2,0.8,0.2,1,0,,,,,,,,,,,,
,,669f5d4b56cd9e5a3615a8ed,66db1634c8e1dedad0e5f137,2024-09-06_16h52.07.325,mdp,2024.2.1,Win32,60.0240096,66d7945b1baad48e845df3ce,,,,,,,,,,,,,,,,,,,,,625.109,625.109,625.111,628.027,1,0,right,2.388,,628.028,629.193,1,0,right,629.196,629.2,,0,,1,629.2,629.2,629.204,630.689,0,9,9,9,1,0.6,0.4,0.6,0.4,,,,,,,,,,,,,,,0.64,,0.4,0.6,0.8,0.2,0.8,0.2,0.8,0.2,1,0,,,,,,,,,,,,
,,669f5d4b56cd9e5a3615a8ed,66db1634c8e1dedad0e5f137,2024-09-06_16h52.07.325,mdp,2024.2.1,Win32,60.0240096,66d7945b1baad48e845df3ce,,,,,,,,,,,,,,,,,,,,,630.691,630.691,630.695,631.958,1,0,right,0.735,,631.959,633.488,1,0,right,633.493,633.497,,0,,1,633.498,633.498,633.499,634.988,0,10,10,10,1,0.6,0.4,0.6,0.4,,,,,,,,,,,,,,,1.003,,0.4,0.6,0.8,0.2,0.8,0.2,0.8,0.2,1,0,,,,,,,,,,,,
,,669f5d4b56cd9e5a3615a8ed,66db1634c8e1dedad0e5f137,2024-09-06_16h52.07.325,mdp,2024.2.1,Win32,60.0240096,66d7945b1baad48e845df3ce,,,,,,,,,,,,,,,,,,,,,634.992,634.992,634.994,636.606,1,0,right,1.086,,636.609,638.159,1,0,right,638.161,638.166,,0,,1,638.167,638.167,638.169,639.674,0,11,11,11,1,0.4,0.6,0.8,0.2,,,,,,,,,,,,,,,1.026,,0.4,0.6,0.8,0.2,0.8,0.2,0.8,0.2,1,0,,,,,,,,,,,,
,,669f5d4b56cd9e5a3615a8ed,66db1634c8e1dedad0e5f137,2024-09-06_16h52.07.325,mdp,2024.2.1,Win32,60.0240096,66d7945b1baad48e845df3ce,,,,,,,,,,,,,,,,,,,,,639.675,639.675,639.677,640.774,1,0,right,0.573,,640.775,641.958,1,0,right,641.96,641.964,,0,,1,641.964,641.964,641.966,643.458,0,12,12,12,1,0.4,0.6,0.8,0.2,,,,,,,,,,,,,,,0.656,,0.4,0.6,0.8,0.2,0.8,0.2,0.8,0.2,1,0,,,,,,,,,,,,
,,669f5d4b56cd9e5a3615a8ed,66db1634c8e1dedad0e5f137,2024-09-06_16h52.07.325,mdp,2024.2.1,Win32,60.0240096,66d7945b1baad48e845df3ce,,,,,,,,,,,,,,,,,,,,,643.462,643.462,643.474,644.358,1,0,right,0.377,,644.36,645.458,1,0,right,645.46,645.465,,0,,1,645.465,645.465,645.469,646.956,0,13,13,13,1,0.4,0.6,0.8,0.2,,,,,,,,,,,,,,,0.577,,0.4,0.6,0.8,0.2,0.8,0.2,0.8,0.2,1,0,,,,,,,,,,,,
,,669f5d4b56cd9e5a3615a8ed,66db1634c8e1dedad0e5f137,2024-09-06_16h52.07.325,mdp,2024.2.1,Win32,60.0240096,66d7945b1baad48e845df3ce,,,,,,,,,,,,,,,,,,,,,646.958,646.958,646.959,648.023,1,1,right,0.542,,648.025,649.489,0,0,left,649.491,649.497,,0,,1,649.497,649.497,649.5,650.985,0,14,14,14,1,0.4,0.6,0.8,0.2,,,,,,,,,,,,,,,0.93,,0.4,0.6,0.8,0.2,0.8,0.2,0.8,0.2,1,0,,,,,,,,,,,,
,,669f5d4b56cd9e5a3615a8ed,66db1634c8e1dedad0e5f137,2024-09-06_16h52.07.325,mdp,2024.2.1,Win32,60.0240096,66d7945b1baad48e845df3ce,,,,,,,,,,,,,,,,,,,,,650.987,650.989,650.991,652.337,1,0,right,0.82,,652.339,653.684,1,0,right,653.69,653.696,,0,,1,653.696,653.696,653.698,655.186,0,15,15,15,1,0.4,0.6,0.8,0.2,,,,,,,,,,,,,,,0.807,,0.4,0.6,0.8,0.2,0.8,0.2,0.8,0.2,1,0,,,,,,,,,,,,
,,669f5d4b56cd9e5a3615a8ed,66db1634c8e1dedad0e5f137,2024-09-06_16h52.07.325,mdp,2024.2.1,Win32,60.0240096,66d7945b1baad48e845df3ce,,,,,,,,,,,,,,,,,,,,,655.188,655.188,655.19,656.505,1,1,right,0.791,,656.507,657.885,0,0,left,657.89,657.896,,1,,1,657.896,657.896,657.898,659.385,0,16,16,16,1,0.4,0.6,0.8,0.2,,,,,,,,,,,,,,,0.841,,0.4,0.6,0.8,0.2,0.8,0.2,0.8,0.2,1,0,,,,,,,,,,,,
,,669f5d4b56cd9e5a3615a8ed,66db1634c8e1dedad0e5f137,2024-09-06_16h52.07.325,mdp,2024.2.1,Win32,60.0240096,66d7945b1baad48e845df3ce,,,,,,,,,,,,,,,,,,,,,659.388,659.388,659.39,660.667,1,0,right,0.753,,660.669,661.987,1,1,right,661.99,661.994,,0,,0,661.995,661.995,661.997,663.491,0,17,17,17,1,0.4,0.6,0.8,0.2,,,,,,,,,,,,,,,0.783,,0.4,0.6,0.8,0.2,0.8,0.2,0.8,0.2,1,0,,,,,,,,,,,,
,,669f5d4b56cd9e5a3615a8ed,66db1634c8e1dedad0e5f137,2024-09-06_16h52.07.325,mdp,2024.2.1,Win32,60.0240096,66d7945b1baad48e845df3ce,,,,,,,,,,,,,,,,,,,,,663.492,663.492,663.493,665.454,1,0,right,1.442,,665.455,666.966,0,1,left,666.97,666.973,,0,,0,666.974,666.974,666.976,668.466,0,18,18,18,1,0.4,0.6,0.8,0.2,,,,,,,,,,,,,,,0.976,,0.6,0.4,0.6,0.4,0.8,0.2,0.8,0.2,1,0,,,,,,,,,,,,
,,669f5d4b56cd9e5a3615a8ed,66db1634c8e1dedad0e5f137,2024-09-06_16h52.07.325,mdp,2024.2.1,Win32,60.0240096,66d7945b1baad48e845df3ce,,,,,,,,,,,,,,,,,,,,,668.468,668.469,668.47,669.553,1,1,right,0.555,,669.555,670.535,1,0,right,670.536,670.54,,1,,1,670.54,670.54,670.543,672.033,0,19,19,19,1,0.6,0.4,0.4,0.6,,,,,,,,,,,,,,,0.441,,0.6,0.4,0.6,0.4,0.8,0.2,0.8,0.2,1,0,,,,,,,,,,,,
,,669f5d4b56cd9e5a3615a8ed,66db1634c8e1dedad0e5f137,2024-09-06_16h52.07.325,mdp,2024.2.1,Win32,60.0240096,66d7945b1baad48e845df3ce,,,,,,,,,,,,,,,,,,,,,672.035,672.035,672.037,672.937,1,1,right,0.381,,672.938,674.235,1,0,right,674.238,674.246,,1,,1,674.246,674.246,674.25,675.732,0,20,20,20,1,0.6,0.4,0.4,0.6,,,,,,,,,,,,,,,0.781,,0.6,0.4,0.6,0.4,0.8,0.2,0.8,0.2,1,0,,,,,,,,,,,,
,,669f5d4b56cd9e5a3615a8ed,66db1634c8e1dedad0e5f137,2024-09-06_16h52.07.325,mdp,2024.2.1,Win32,60.0240096,66d7945b1baad48e845df3ce,,,,,,,,,,,,,,,,,,,,,675.733,675.733,675.734,676.983,1,0,right,0.703,,676.985,678.259,0,1,left,678.276,678.292,,0,,0,678.292,678.292,678.295,679.796,0,21,21,21,1,0.6,0.4,0.4,0.6,,,,,,,,,,,,,,,0.75,,0.6,0.4,0.6,0.4,0.8,0.2,0.8,0.2,1,0,,,,,,,,,,,,
,,669f5d4b56cd9e5a3615a8ed,66db1634c8e1dedad0e5f137,2024-09-06_16h52.07.325,mdp,2024.2.1,Win32,60.0240096,66d7945b1baad48e845df3ce,,,,,,,,,,,,,,,,,,,,,679.801,679.801,679.805,680.365,1,0,right,0.035,,680.368,681.317,1,1,right,681.319,681.332,,0,,0,681.332,681.332,681.333,682.829,0,22,22,22,1,0.6,0.4,0.4,0.6,,,,,,,,,,,,,,,0.429,,0.6,0.4,0.6,0.4,0.8,0.2,0.8,0.2,1,0,,,,,,,,,,,,
,,669f5d4b56cd9e5a3615a8ed,66db1634c8e1dedad0e5f137,2024-09-06_16h52.07.325,mdp,2024.2.1,Win32,60.0240096,66d7945b1baad48e845df3ce,,,,,,,,,,,,,,,,,,,,,682.833,682.833,682.836,684.017,1,0,right,0.655,,684.019,685.198,1,0,right,685.203,685.21,,1,,1,685.21,685.21,685.213,686.699,0,23,23,23,1,0.6,0.4,0.4,0.6,,,,,,,,,,,,,,,0.657,,0.6,0.4,0.6,0.4,0.8,0.2,0.8,0.2,1,0,,,,,,,,,,,,
,,669f5d4b56cd9e5a3615a8ed,66db1634c8e1dedad0e5f137,2024-09-06_16h52.07.325,mdp,2024.2.1,Win32,60.0240096,66d7945b1baad48e845df3ce,,,,,,,,,,,,,,,,,,,,,686.7,686.7,686.705,687.559,1,0,right,0.328,,687.564,688.986,1,1,right,688.987,688.995,,0,,0,688.997,688.997,688.998,690.494,0,24,24,24,1,0.6,0.4,0.4,0.6,,,,,,,,,,,,,,,0.888,,0.6,0.4,0.6,0.4,0.8,0.2,0.8,0.2,1,0,,,,,,,,,,,,
,,669f5d4b56cd9e5a3615a8ed,66db1634c8e1dedad0e5f137,2024-09-06_16h52.07.325,mdp,2024.2.1,Win32,60.0240096,66d7945b1baad48e845df3ce,,,,,,,,,,,,,,,,,,,,,690.497,690.497,690.5,691.531,1,0,right,0.509,,691.533,692.448,1,0,right,692.45,692.454,,1,,1,692.456,692.456,692.459,693.945,0,25,25,25,1,0.6,0.4,0.4,0.6,,,,,,,,,,,,,,,0.393,,0.6,0.4,0.6,0.4,0.8,0.2,0.8,0.2,1,0,,,,,,,,,,,,
,,669f5d4b56cd9e5a3615a8ed,66db1634c8e1dedad0e5f137,2024-09-06_16h52.07.325,mdp,2024.2.1,Win32,60.0240096,66d7945b1baad48e845df3ce,,,,,,,,,,,,,,,,,,,,,693.947,693.947,693.948,695.545,1,0,right,1.069,,695.548,696.447,1,0,right,696.448,696.456,,0,,1,696.456,696.456,696.46,697.961,0,26,26,26,1,0.6,0.4,0.4,0.6,,,,,,,,,,,,,,,0.372,,0.8,0.2,0.4,0.6,0.8,0.2,0.8,0.2,1,0,,,,,,,,,,,,
,,669f5d4b56cd9e5a3615a8ed,66db1634c8e1dedad0e5f137,2024-09-06_16h52.07.325,mdp,2024.2.1,Win32,60.0240096,66d7945b1baad48e845df3ce,,,,,,,,,,,,,,,,,,,,,697.965,697.965,697.966,699.58,0,0,left,1.091,,699.581,701.113,0,0,left,701.114,701.12,,0,,1,701.12,701.12,701.126,702.608,0,27,27,27,1,0.6,0.4,0.4,0.6,,,,,,,,,,,,,,,1.004,,0.8,0.2,0.4,0.6,0.8,0.2,0.8,0.2,1,0,,,,,,,,,,,,
,,669f5d4b56cd9e5a3615a8ed,66db1634c8e1dedad0e5f137,2024-09-06_16h52.07.325,mdp,2024.2.1,Win32,60.0240096,66d7945b1baad48e845df3ce,,,,,,,,,,,,,,,,,,,,,702.611,702.611,702.613,703.575,0,0,left,0.437,,703.58,704.663,0,1,left,704.665,704.667,,0,,0,704.667,704.667,704.668,706.158,0,28,28,28,1,0.6,0.4,0.4,0.6,,,,,,,,,,,,,,,0.556,,0.8,0.2,0.4,0.6,0.8,0.2,0.8,0.2,1,0,,,,,,,,,,,,
,,669f5d4b56cd9e5a3615a8ed,66db1634c8e1dedad0e5f137,2024-09-06_16h52.07.325,mdp,2024.2.1,Win32,60.0240096,66d7945b1baad48e845df3ce,,,,,,,,,,,,,,,,,,,,,706.159,706.159,706.162,707.411,1,1,right,0.724,,707.413,708.475,0,1,left,708.478,708.483,,0,,0,708.484,708.484,708.485,709.975,0,29,29,29,1,0.6,0.4,0.4,0.6,,,,,,,,,,,,,,,0.522,,0.8,0.2,0.4,0.6,0.8,0.2,0.8,0.2,1,0,,,,,,,,,,,,
,,669f5d4b56cd9e5a3615a8ed,66db1634c8e1dedad0e5f137,2024-09-06_16h52.07.325,mdp,2024.2.1,Win32,60.0240096,66d7945b1baad48e845df3ce,,,,,,,,,,,,,,,,,,,,,709.978,709.978,709.979,710.959,1,1,right,0.451,,710.966,712.046,1,0,right,712.05,712.059,,0,,1,712.059,712.059,712.061,713.557,0,30,30,30,1,0.6,0.4,0.4,0.6,,,,,,,,,,,,,,,0.559,,0.8,0.2,0.4,0.6,0.8,0.2,0.8,0.2,1,0,,,,,,,,,,,,
,,669f5d4b56cd9e5a3615a8ed,66db1634c8e1dedad0e5f137,2024-09-06_16h52.07.325,mdp,2024.2.1,Win32,60.0240096,66d7945b1baad48e845df3ce,,,,,,,,,,,,,,,,,,,,,713.56,713.56,713.562,714.373,1,1,right,0.285,,714.378,715.24,1,0,right,715.245,715.25,,0,,1,715.25,715.25,715.254,716.74,0,31,31,31,1,0.6,0.4,0.4,0.6,,,,,,,,,,,,,,,0.336,,0.4,0.6,0.8,0.2,0.8,0.2,0.8,0.2,1,0,,,,,,,,,,,,
,,669f5d4b56cd9e5a3615a8ed,66db1634c8e1dedad0e5f137,2024-09-06_16h52.07.325,mdp,2024.2.1,Win32,60.0240096,66d7945b1baad48e845df3ce,,,,,,,,,,,,,,,,,,,,,716.743,716.743,716.745,717.71,1,0,right,0.442,,717.716,718.676,1,0,right,718.678,718.684,,1,,1,718.684,718.684,718.689,720.176,0,32,32,32,1,0.6,0.4,0.4,0.6,,,,,,,,,,,,,,,0.429,,0.4,0.6,0.8,0.2,0.8,0.2,0.8,0.2,1,0,,,,,,,,,,,,
,,669f5d4b56cd9e5a3615a8ed,66db1634c8e1dedad0e5f137,2024-09-06_16h52.07.325,mdp,2024.2.1,Win32,60.0240096,66d7945b1baad48e845df3ce,,,,,,,,,,,,,,,,,,,,,720.176,720.176,720.178,721.24,1,0,right,0.538,,721.244,722.193,0,0,left,722.196,722.201,,0,,1,722.204,722.204,722.206,723.704,0,33,33,33,1,0.6,0.4,0.4,0.6,,,,,,,,,,,,,,,0.425,,0.4,0.6,0.8,0.2,0.8,0.2,0.8,0.2,1,0,,,,,,,,,,,,
,,669f5d4b56cd9e5a3615a8ed,66db1634c8e1dedad0e5f137,2024-09-06_16h52.07.325,mdp,2024.2.1,Win32,60.0240096,66d7945b1baad48e845df3ce,,,,,,,,,,,,,,,,,,,,,723.706,723.706,723.709,724.521,1,1,right,0.286,,724.526,725.339,1,0,right,725.341,725.347,,0,,1,725.348,725.348,725.349,726.837,0,34,34,34,1,0.4,0.6,0.8,0.2,,,,,,,,,,,,,,,0.276,,0.4,0.6,0.8,0.2,0.8,0.2,0.8,0.2,1,0,,,,,,,,,,,,
,,669f5d4b56cd9e5a3615a8ed,66db1634c8e1dedad0e5f137,2024-09-06_16h52.07.325,mdp,2024.2.1,Win32,60.0240096,66d7945b1baad48e845df3ce,,,,,,,,,,,,,,,,,,,,,726.839,726.839,726.841,727.591,1,0,right,0.223,,727.594,728.674,1,0,right,728.676,728.68,,1,,1,728.681,728.681,728.682,730.186,0,35,35,35,1,0.4,0.6,0.8,0.2,,,,,,,,,,,,,,,0.545,,0.4,0.6,0.8,0.2,0.8,0.2,0.8,0.2,1,0,,,,,,,,,,,,
,,669f5d4b56cd9e5a3615a8ed,66db1634c8e1dedad0e5f137,2024-09-06_16h52.07.325,mdp,2024.2.1,Win32,60.0240096,66d7945b1baad48e845df3ce,,,,,,,,,,,,,,,,,,,,,730.19,730.19,730.191,730.869,0,1,left,0.155,,730.874,731.757,0,0,left,731.759,731.764,,0,,1,731.764,731.764,731.769,733.254,0,36,36,36,1,0.4,0.6,0.8,0.2,,,,,,,,,,,,,,,0.358,,0.4,0.6,0.8,0.2,0.8,0.2,0.8,0.2,1,0,,,,,,,,,,,,
,,669f5d4b56cd9e5a3615a8ed,66db1634c8e1dedad0e5f137,2024-09-06_16h52.07.325,mdp,2024.2.1,Win32,60.0240096,66d7945b1baad48e845df3ce,,,,,,,,,,,,,,,,,,,,,733.257,733.257,733.258,734.105,1,1,right,0.327,,734.107,734.989,1,1,right,734.99,734.994,,0,,0,734.995,734.995,734.996,736.487,0,37,37,37,1,0.8,0.2,0.2,0.8,,,,,,,,,,,,,,,0.352,,0.4,0.6,0.8,0.2,0.8,0.2,0.8,0.2,1,0,,,,,,,,,,,,
,,669f5d4b56cd9e5a3615a8ed,66db1634c8e1dedad0e5f137,2024-09-06_16h52.07.325,mdp,2024.2.1,Win32,60.0240096,66d7945b1baad48e845df3ce,,,,,,,,,,,,,,,,,,,,,736.489,736.49,736.491,737.173,1,1,right,0.158,,737.175,737.956,1,0,right,737.957,737.963,,0,,1,737.963,737.963,737.969,739.456,0,38,38,38,1,0.8,0.2,0.2,0.8,,,,,,,,,,,,,,,0.26,,0.4,0.6,0.8,0.2,0.8,0.2,0.8,0.2,1,0,,,,,,,,,,,,
,,669f5d4b56cd9e5a3615a8ed,66db1634c8e1dedad0e5f137,2024-09-06_16h52.07.325,mdp,2024.2.1,Win32,60.0240096,66d7945b1baad48e845df3ce,,,,,,,,,,,,,,,,,,,,,739.456,739.456,739.457,740.189,1,0,right,0.209,,740.19,740.726,1,0,right,740.727,740.736,,0,,1,740.736,740.736,740.739,742.235,0,39,39,39,1,0.8,0.2,0.2,0.8,,,,,,,,,,,,,,,0.002,,0.4,0.6,0.8,0.2,0.8,0.2,0.8,0.2,1,0,,,,,,,,,,,,
,,669f5d4b56cd9e5a3615a8ed,66db1634c8e1dedad0e5f137,2024-09-06_16h52.07.325,mdp,2024.2.1,Win32,60.0240096,66d7945b1baad48e845df3ce,,,,,,,,,,,,,,,,,,,,,742.236,742.236,742.239,743.085,1,1,right,0.334,,743.089,743.855,1,0,right,743.857,743.863,,0,,1,743.863,743.863,743.866,745.369,0,40,40,40,1,0.8,0.2,0.2,0.8,,,,,,,,,,,,,,,0.245,,0.4,0.6,0.8,0.2,0.8,0.2,0.8,0.2,1,0,,,,,,,,,,,,
,,669f5d4b56cd9e5a3615a8ed,66db1634c8e1dedad0e5f137,2024-09-06_16h52.07.325,mdp,2024.2.1,Win32,60.0240096,66d7945b1baad48e845df3ce,,,,,,,,,,,,,,,,,,,,,745.371,745.371,745.373,745.906,1,1,right,0.004,,745.918,746.504,0,1,left,746.507,746.514,,0,,0,746.515,746.515,746.52,748.018,0,41,41,41,1,0.8,0.2,0.2,0.8,,,,,,,,,,,,,,,0.076,,0.4,0.6,0.8,0.2,0.8,0.2,0.8,0.2,1,0,,,,,,,,,,,,
,,669f5d4b56cd9e5a3615a8ed,66db1634c8e1dedad0e5f137,2024-09-06_16h52.07.325,mdp,2024.2.1,Win32,60.0240096,66d7945b1baad48e845df3ce,,,,,,,,,,,,,,,,,,,,,748.023,748.023,748.027,748.903,1,1,right,0.353,,748.905,750.02,1,1,right,750.023,750.03,,0,,0,750.03,750.03,750.033,751.522,0,42,42,42,1,0.8,0.2,0.2,0.8,,,,,,,,,,,,,,,0.604,,0.4,0.6,0.8,0.2,0.8,0.2,0.8,0.2,1,0,,,,,,,,,,,,
,,669f5d4b56cd9e5a3615a8ed,66db1634c8e1dedad0e5f137,2024-09-06_16h52.07.325,mdp,2024.2.1,Win32,60.0240096,66d7945b1baad48e845df3ce,,,,,,,,,,,,,,,,,,,,,751.522,751.522,751.525,752.785,1,1,right,0.736,,752.788,754.054,1,1,right,754.056,754.061,,0,,0,754.061,754.061,754.074,755.567,0,43,43,43,1,0.8,0.2,0.2,0.8,,,,,,,,,,,,,,,0.742,,0.4,0.6,0.8,0.2,0.8,0.2,0.8,0.2,1,0,,,,,,,,,,,,
,,669f5d4b56cd9e5a3615a8ed,66db1634c8e1dedad0e5f137,2024-09-06_16h52.07.325,mdp,2024.2.1,Win32,60.0240096,66d7945b1baad48e845df3ce,,,,,,,,,,,,,,,,,,,,,755.569,755.569,755.571,756.334,1,0,right,0.237,,756.337,757.186,1,0,right,757.188,757.194,,0,,1,757.194,757.194,757.198,758.697,0,44,44,44,1,0.8,0.2,0.2,0.8,,,,,,,,,,,,,,,0.309,,0.4,0.6,0.8,0.2,0.4,0.6,0.6,0.4,1,0,,,,,,,,,,,,
,,669f5d4b56cd9e5a3615a8ed,66db1634c8e1dedad0e5f137,2024-09-06_16h52.07.325,mdp,2024.2.1,Win32,60.0240096,66d7945b1baad48e845df3ce,,,,,,,,,,,,,,,,,,,,,758.701,758.701,758.703,760.303,1,1,right,1.073,,760.304,761.219,1,1,right,761.221,761.227,,1,,0,761.228,761.228,761.23,762.717,0,45,45,45,1,0.8,0.2,0.2,0.8,,,,,,,,,,,,,,,0.381,,0.4,0.6,0.8,0.2,0.4,0.6,0.6,0.4,1,0,,,,,,,,,,,,
,,669f5d4b56cd9e5a3615a8ed,66db1634c8e1dedad0e5f137,2024-09-06_16h52.07.325,mdp,2024.2.1,Win32,60.0240096,66d7945b1baad48e845df3ce,,,,,,,,,,,,,,,,,,,,,762.718,762.718,762.719,763.565,1,1,right,0.321,,763.568,764.464,0,0,left,764.468,764.473,,0,,1,764.473,764.473,764.475,765.964,0,46,46,46,1,0.8,0.2,0.2,0.8,,,,,,,,,,,,,,,0.37,,0.4,0.6,0.8,0.2,0.4,0.6,0.6,0.4,1,0,,,,,,,,,,,,
,,669f5d4b56cd9e5a3615a8ed,66db1634c8e1dedad0e5f137,2024-09-06_16h52.07.325,mdp,2024.2.1,Win32,60.0240096,66d7945b1baad48e845df3ce,,,,,,,,,,,,,,,,,,,,,765.967,765.967,765.968,766.734,1,0,right,0.242,,766.735,767.55,0,1,left,767.551,767.555,,0,,0,767.557,767.557,767.558,769.046,0,47,47,47,1,0.8,0.2,0.2,0.8,,,,,,,,,,,,,,,0.281,,0.4,0.6,0.8,0.2,0.2,0.8,0.2,0.8,1,0,,,,,,,,,,,,
,,669f5d4b56cd9e5a3615a8ed,66db1634c8e1dedad0e5f137,2024-09-06_16h52.07.325,mdp,2024.2.1,Win32,60.0240096,66d7945b1baad48e845df3ce,,,,,,,,,,,,,,,,,,,,,769.049,769.049,769.051,770.132,0,0,left,0.558,,770.135,771.246,1,0,right,771.249,771.254,,0,,1,771.255,771.255,771.256,772.745,0,48,48,48,1,0.8,0.2,0.2,0.8,,,,,,,,,,,,,,,0.587,,0.4,0.6,0.8,0.2,0.4,0.6,0.8,0.2,1,0,,,,,,,,,,,,
,,669f5d4b56cd9e5a3615a8ed,66db1634c8e1dedad0e5f137,2024-09-06_16h52.07.325,mdp,2024.2.1,Win32,60.0240096,66d7945b1baad48e845df3ce,,,,,,,,,,,,,,,,,,,,,772.746,772.746,772.75,774.501,1,1,right,1.23,,774.503,775.631,1,0,right,775.633,775.637,,1,,1,775.637,775.637,775.639,777.127,0,49,49,49,1,0.8,0.2,0.2,0.8,,,,,,,,,,,,,,,0.596,,0.2,0.8,0.4,0.6,0.4,0.6,0.8,0.2,1,0,,,,,,,,,,,,
,,669f5d4b56cd9e5a3615a8ed,66db1634c8e1dedad0e5f137,2024-09-06_16h52.07.325,mdp,2024.2.1,Win32,60.0240096,66d7945b1baad48e845df3ce,,,,,,,,,,,,,,,,,,,,,,,,,,,,,,,,,,,,,,,,,,,,,,,,,,,,,,,,777.129,835.653,0,1,1,5,1,imgs/kangaroo.png,imgs/giraffe.png,imgs/pig.png,imgs/lion.png,imgs/cat.png,,,,,,,,,,,,,,,,,,,,,,,,
,,669f5d4b56cd9e5a3615a8ed,66db1634c8e1dedad0e5f137,2024-09-06_16h52.07.325,mdp,2024.2.1,Win32,60.0240096,66d7945b1baad48e845df3ce,,,,,,,,,,,,,,3,seqs/st3seq45.csv,835.666,843.338,space,7.162,,843.36,843.36,843.364,845.551,0,1,left,1.652,,845.553,846.504,0,0,left,846.505,847.784,0,0,left,1,847.784,847.784,847.786,849.301,0,0,0,0,1,0.2,0.8,0.2,0.8,,,,,,,,,,,,,,,0.412,,0.8,0.2,0.6,0.4,0.6,0.4,0.2,0.8,,,0.742,,0.2,0.8,0.4,0.6,0.2,0.8,0.8,0.2,1,0
,,669f5d4b56cd9e5a3615a8ed,66db1634c8e1dedad0e5f137,2024-09-06_16h52.07.325,mdp,2024.2.1,Win32,60.0240096,66d7945b1baad48e845df3ce,,,,,,,,,,,,,,,,,,,,,849.301,849.301,849.303,850.204,0,1,left,0.371,,850.204,851.029,0,0,left,851.033,852.233,0,1,left,0,852.233,852.234,852.255,853.733,0,1,1,1,1,0.2,0.8,0.2,0.8,,,,,,,,,,,,,,,0.302,,0.8,0.2,0.6,0.4,0.6,0.4,0.2,0.8,,,0.678,,0.2,0.8,0.4,0.6,0.2,0.8,0.8,0.2,1,0
,,669f5d4b56cd9e5a3615a8ed,66db1634c8e1dedad0e5f137,2024-09-06_16h52.07.325,mdp,2024.2.1,Win32,60.0240096,66d7945b1baad48e845df3ce,,,,,,,,,,,,,,,,,,,,,853.735,853.735,853.738,854.617,0,1,left,0.357,,854.619,855.417,0,0,left,855.419,856.233,0,1,left,0,856.234,856.234,856.235,857.73,0,2,2,2,1,0.2,0.8,0.2,0.8,,,,,,,,,,,,,,,0.273,,0.8,0.2,0.6,0.4,0.4,0.6,0.4,0.6,,,0.29,,0.2,0.8,0.4,0.6,0.2,0.8,0.8,0.2,1,0
,,669f5d4b56cd9e5a3615a8ed,66db1634c8e1dedad0e5f137,2024-09-06_16h52.07.325,mdp,2024.2.1,Win32,60.0240096,66d7945b1baad48e845df3ce,,,,,,,,,,,,,,,,,,,,,857.732,857.732,857.734,858.566,1,1,right,0.313,,858.568,859.333,1,1,right,859.335,860.028,1,0,right,1,860.028,860.028,860.032,861.527,0,3,3,3,1,0.2,0.8,0.2,0.8,,,,,,,,,,,,,,,0.243,,0.8,0.2,0.6,0.4,0.6,0.4,0.2,0.8,,,0.149,,0.2,0.8,0.4,0.6,0.2,0.8,0.8,0.2,1,0
,,669f5d4b56cd9e5a3615a8ed,66db1634c8e1dedad0e5f137,2024-09-06_16h52.07.325,mdp,2024.2.1,Win32,60.0240096,66d7945b1baad48e845df3ce,,,,,,,,,,,,,,,,,,,,,861.53,861.53,861.533,862.747,1,0,right,0.689,,862.75,863.495,1,0,right,863.499,864.283,1,1,right,0,864.284,864.284,864.285,865.777,0,4,4,4,1,0.2,0.8,0.2,0.8,,,,,,,,,,,,,,,0.209,,0.8,0.2,0.6,0.4,0.6,0.4,0.2,0.8,,,0.247,,0.2,0.8,0.4,0.6,0.2,0.8,0.8,0.2,1,0
,,669f5d4b56cd9e5a3615a8ed,66db1634c8e1dedad0e5f137,2024-09-06_16h52.07.325,mdp,2024.2.1,Win32,60.0240096,66d7945b1baad48e845df3ce,,,,,,,,,,,,,,,,,,,,,865.78,865.78,865.782,866.58,1,1,right,0.274,,866.582,867.295,1,0,right,867.298,867.994,1,0,right,1,867.994,867.994,867.999,869.494,0,5,5,5,1,0.2,0.8,0.2,0.8,,,,,,,,,,,,,,,0.179,,0.8,0.2,0.6,0.4,0.6,0.4,0.2,0.8,,,0.172,,0.2,0.8,0.4,0.6,0.2,0.8,0.8,0.2,1,0
,,669f5d4b56cd9e5a3615a8ed,66db1634c8e1dedad0e5f137,2024-09-06_16h52.07.325,mdp,2024.2.1,Win32,60.0240096,66d7945b1baad48e845df3ce,,,,,,,,,,,,,,,,,,,,,869.496,869.496,869.498,870.176,1,1,right,0.154,,870.179,870.863,1,1,right,870.867,871.543,1,0,right,1,871.543,871.543,871.546,873.044,0,6,6,6,1,0.2,0.8,0.2,0.8,,,,,,,,,,,,,,,0.176,,0.8,0.2,0.6,0.4,0.6,0.4,0.2,0.8,,,0.142,,0.2,0.8,0.4,0.6,0.2,0.8,0.8,0.2,1,0
,,669f5d4b56cd9e5a3615a8ed,66db1634c8e1dedad0e5f137,2024-09-06_16h52.07.325,mdp,2024.2.1,Win32,60.0240096,66d7945b1baad48e845df3ce,,,,,,,,,,,,,,,,,,,,,873.045,873.045,873.047,873.664,1,1,right,0.096,,873.665,874.396,1,1,right,874.397,875.024,1,0,right,1,875.024,875.024,875.029,876.529,0,7,7,7,1,0.2,0.8,0.2,0.8,,,,,,,,,,,,,,,0.211,,0.8,0.2,0.6,0.4,0.6,0.4,0.2,0.8,,,0.105,,0.2,0.8,0.4,0.6,0.2,0.8,0.8,0.2,1,0
,,669f5d4b56cd9e5a3615a8ed,66db1634c8e1dedad0e5f137,2024-09-06_16h52.07.325,mdp,2024.2.1,Win32,60.0240096,66d7945b1baad48e845df3ce,,,,,,,,,,,,,,,,,,,,,876.532,876.532,876.533,877.595,1,1,right,0.542,,877.597,878.274,1,1,right,878.279,879.111,0,0,left,1,879.111,879.111,879.113,880.607,0,8,8,8,1,0.2,0.8,0.2,0.8,,,,,,,,,,,,,,,0.154,,0.8,0.2,0.6,0.4,0.6,0.4,0.2,0.8,,,0.307,,0.2,0.8,0.4,0.6,0.2,0.8,0.8,0.2,1,0
,,669f5d4b56cd9e5a3615a8ed,66db1634c8e1dedad0e5f137,2024-09-06_16h52.07.325,mdp,2024.2.1,Win32,60.0240096,66d7945b1baad48e845df3ce,,,,,,,,,,,,,,,,,,,,,880.61,880.61,880.612,881.259,1,1,right,0.119,,881.261,882.358,1,1,right,882.361,883.106,0,1,left,0,883.107,883.107,883.108,884.606,0,9,9,9,1,0.2,0.8,0.2,0.8,,,,,,,,,,,,,,,0.574,,0.8,0.2,0.6,0.4,0.6,0.4,0.2,0.8,,,0.222,,0.2,0.8,0.4,0.6,0.2,0.8,0.8,0.2,1,0
,,669f5d4b56cd9e5a3615a8ed,66db1634c8e1dedad0e5f137,2024-09-06_16h52.07.325,mdp,2024.2.1,Win32,60.0240096,66d7945b1baad48e845df3ce,,,,,,,,,,,,,,,,,,,,,884.61,884.61,884.611,885.49,1,1,right,0.353,,885.495,886.194,1,1,right,886.196,886.727,0,1,left,0,886.727,886.727,886.728,888.227,0,10,10,10,1,0.2,0.8,0.2,0.8,,,,,,,,,,,,,,,0.174,,0.8,0.2,0.6,0.4,0.6,0.4,0.2,0.8,,,0.012,,0.2,0.8,0.4,0.6,0.2,0.8,0.8,0.2,1,0
,,669f5d4b56cd9e5a3615a8ed,66db1634c8e1dedad0e5f137,2024-09-06_16h52.07.325,mdp,2024.2.1,Win32,60.0240096,66d7945b1baad48e845df3ce,,,,,,,,,,,,,,,,,,,,,888.233,888.234,888.243,889.36,1,1,right,0.606,,889.363,890.354,1,1,right,890.36,891.406,1,0,right,1,891.406,891.406,891.41,892.873,0,11,11,11,1,0.2,0.8,0.2,0.8,,,,,,,,,,,,,,,0.46,,0.8,0.2,0.6,0.4,0.6,0.4,0.2,0.8,,,0.52,,0.2,0.8,0.4,0.6,0.2,0.8,0.8,0.2,1,0
,,669f5d4b56cd9e5a3615a8ed,66db1634c8e1dedad0e5f137,2024-09-06_16h52.07.325,mdp,2024.2.1,Win32,60.0240096,66d7945b1baad48e845df3ce,,,,,,,,,,,,,,,,,,,,,892.875,892.875,892.876,893.924,1,1,right,0.523,,893.926,894.59,1,1,right,894.593,895.174,1,1,right,0,895.174,895.174,895.176,896.676,0,12,12,12,1,0.2,0.8,0.2,0.8,,,,,,,,,,,,,,,0.138,,0.8,0.2,0.6,0.4,0.6,0.4,0.2,0.8,,,0.056,,0.2,0.8,0.4,0.6,0.2,0.8,0.8,0.2,1,0
,,669f5d4b56cd9e5a3615a8ed,66db1634c8e1dedad0e5f137,2024-09-06_16h52.07.325,mdp,2024.2.1,Win32,60.0240096,66d7945b1baad48e845df3ce,,,,,,,,,,,,,,,,,,,,,896.677,896.677,896.679,897.487,1,1,right,0.289,,897.491,898.074,1,1,right,898.077,898.97,1,0,right,1,898.973,898.973,898.974,900.469,0,13,13,13,1,0.2,0.8,0.2,0.8,,,,,,,,,,,,,,,0.057,,0.8,0.2,0.6,0.4,0.6,0.4,0.2,0.8,,,0.372,,0.2,0.8,0.4,0.6,0.2,0.8,0.8,0.2,1,0
,,669f5d4b56cd9e5a3615a8ed,66db1634c8e1dedad0e5f137,2024-09-06_16h52.07.325,mdp,2024.2.1,Win32,60.0240096,66d7945b1baad48e845df3ce,,,,,,,,,,,,,,,,,,,,,900.47,900.47,900.472,901.624,1,1,right,0.624,,901.625,902.423,1,1,right,902.426,903.523,1,0,right,1,903.523,903.523,903.526,905.016,0,14,14,14,1,0.2,0.8,0.2,0.8,,,,,,,,,,,,,,,0.275,,0.8,0.2,0.6,0.4,0.6,0.4,0.2,0.8,,,0.554,,0.2,0.8,0.4,0.6,0.2,0.8,0.8,0.2,1,0
,,669f5d4b56cd9e5a3615a8ed,66db1634c8e1dedad0e5f137,2024-09-06_16h52.07.325,mdp,2024.2.1,Win32,60.0240096,66d7945b1baad48e845df3ce,,,,,,,,,,,,,,,,,,,,,905.017,905.017,905.02,905.872,1,1,right,0.323,,905.873,906.707,1,1,right,906.709,907.321,1,0,right,1,907.321,907.321,907.324,908.818,0,15,15,15,1,0.2,0.8,0.2,0.8,,,,,,,,,,,,,,,0.31,,0.8,0.2,0.6,0.4,0.6,0.4,0.2,0.8,,,0.092,,0.2,0.8,0.4,0.6,0.2,0.8,0.8,0.2,1,0
,,669f5d4b56cd9e5a3615a8ed,66db1634c8e1dedad0e5f137,2024-09-06_16h52.07.325,mdp,2024.2.1,Win32,60.0240096,66d7945b1baad48e845df3ce,,,,,,,,,,,,,,,,,,,,,908.82,908.82,908.823,910.043,1,1,right,0.698,,910.045,910.923,1,1,right,910.924,912.192,1,0,right,1,912.192,912.192,912.193,913.684,0,16,16,16,1,0.2,0.8,0.2,0.8,,,,,,,,,,,,,,,0.357,,0.8,0.2,0.6,0.4,0.6,0.4,0.2,0.8,,,0.748,,0.2,0.8,0.4,0.6,0.2,0.8,0.8,0.2,1,0
,,669f5d4b56cd9e5a3615a8ed,66db1634c8e1dedad0e5f137,2024-09-06_16h52.07.325,mdp,2024.2.1,Win32,60.0240096,66d7945b1baad48e845df3ce,,,,,,,,,,,,,,,,,,,,,913.687,913.687,913.689,916.317,0,1,left,2.117,,916.32,917.1,0,1,left,917.104,917.868,0,1,left,0,917.869,917.869,917.871,919.366,0,17,17,17,1,0.2,0.8,0.2,0.8,,,,,,,,,,,,,,,0.27,,0.8,0.2,0.6,0.4,0.6,0.4,0.2,0.8,,,0.24,,0.2,0.8,0.4,0.6,0.2,0.8,0.8,0.2,1,0
,,669f5d4b56cd9e5a3615a8ed,66db1634c8e1dedad0e5f137,2024-09-06_16h52.07.325,mdp,2024.2.1,Win32,60.0240096,66d7945b1baad48e845df3ce,,,,,,,,,,,,,,,,,,,,,919.368,919.368,919.37,920.185,1,1,right,0.288,,920.187,920.919,1,1,right,920.92,921.616,1,1,right,0,921.616,921.616,921.619,923.119,0,18,18,18,1,0.2,0.8,0.2,0.8,,,,,,,,,,,,,,,0.21,,0.8,0.2,0.6,0.4,0.6,0.4,0.2,0.8,,,0.172,,0.2,0.8,0.4,0.6,0.6,0.4,0.2,0.8,1,0
,,669f5d4b56cd9e5a3615a8ed,66db1634c8e1dedad0e5f137,2024-09-06_16h52.07.325,mdp,2024.2.1,Win32,60.0240096,66d7945b1baad48e845df3ce,,,,,,,,,,,,,,,,,,,,,923.124,923.124,923.13,923.968,1,1,right,0.326,,923.971,924.636,1,1,right,924.641,925.267,1,1,right,0,925.268,925.269,925.271,926.764,0,19,19,19,1,0.2,0.8,0.2,0.8,,,,,,,,,,,,,,,0.143,,0.8,0.2,0.6,0.4,0.6,0.4,0.2,0.8,,,0.107,,0.2,0.8,0.4,0.6,0.6,0.4,0.2,0.8,1,0
,,669f5d4b56cd9e5a3615a8ed,66db1634c8e1dedad0e5f137,2024-09-06_16h52.07.325,mdp,2024.2.1,Win32,60.0240096,66d7945b1baad48e845df3ce,,,,,,,,,,,,,,,,,,,,,926.767,926.767,926.771,927.521,1,1,right,0.227,,927.523,928.135,1,1,right,928.137,928.926,1,1,right,0,928.926,928.926,928.928,930.43,0,20,20,20,1,0.2,0.8,0.2,0.8,,,,,,,,,,,,,,,0.098,,0.8,0.2,0.6,0.4,0.6,0.4,0.2,0.8,,,0.261,,0.2,0.8,0.4,0.6,0.6,0.4,0.2,0.8,1,0
,,669f5d4b56cd9e5a3615a8ed,66db1634c8e1dedad0e5f137,2024-09-06_16h52.07.325,mdp,2024.2.1,Win32,60.0240096,66d7945b1baad48e845df3ce,,,,,,,,,,,,,,,,,,,,,930.435,930.435,930.437,930.986,0,1,left,0.026,,930.987,931.697,0,0,left,931.703,932.435,0,0,left,1,932.435,932.435,932.436,933.935,0,21,21,21,1,0.2,0.8,0.2,0.8,,,,,,,,,,,,,,,0.184,,0.8,0.2,0.6,0.4,0.6,0.4,0.2,0.8,,,0.197,,0.2,0.8,0.4,0.6,0.6,0.4,0.2,0.8,1,0
,,669f5d4b56cd9e5a3615a8ed,66db1634c8e1dedad0e5f137,2024-09-06_16h52.07.325,mdp,2024.2.1,Win32,60.0240096,66d7945b1baad48e845df3ce,,,,,,,,,,,,,,,,,,,,,933.936,933.936,933.938,935.918,0,1,left,1.461,,935.919,936.534,0,1,left,936.535,937.146,0,0,left,1,937.147,937.147,937.15,938.646,0,22,22,22,1,0.2,0.8,0.2,0.8,,,,,,,,,,,,,,,0.087,,0.8,0.2,0.6,0.4,0.6,0.4,0.2,0.8,,,0.075,,0.2,0.8,0.4,0.6,0.6,0.4,0.2,0.8,1,0
,,669f5d4b56cd9e5a3615a8ed,66db1634c8e1dedad0e5f137,2024-09-06_16h52.07.325,mdp,2024.2.1,Win32,60.0240096,66d7945b1baad48e845df3ce,,,,,,,,,,,,,,,,,,,,,938.649,938.649,938.651,939.833,0,1,left,0.654,,939.835,940.848,0,1,left,940.851,941.916,0,0,left,1,941.916,941.916,941.918,943.416,0,23,23,23,1,0.2,0.8,0.2,0.8,,,,,,,,,,,,,,,0.487,,0.8,0.2,0.6,0.4,0.6,0.4,0.2,0.8,,,0.545,,0.2,0.8,0.4,0.6,0.6,0.4,0.2,0.8,1,0
,,669f5d4b56cd9e5a3615a8ed,66db1634c8e1dedad0e5f137,2024-09-06_16h52.07.325,mdp,2024.2.1,Win32,60.0240096,66d7945b1baad48e845df3ce,,,,,,,,,,,,,,,,,,,,,943.417,943.417,943.418,944.645,0,0,left,0.702,,944.649,946.732,0,1,left,946.734,947.527,0,1,left,0,947.528,947.528,947.531,949.027,0,24,24,24,1,0.2,0.8,0.2,0.8,,,,,,,,,,,,,,,1.538,,0.8,0.2,0.6,0.4,0.6,0.4,0.2,0.8,,,0.266,,0.2,0.8,0.4,0.6,0.6,0.4,0.2,0.8,1,0
,,669f5d4b56cd9e5a3615a8ed,66db1634c8e1dedad0e5f137,2024-09-06_16h52.07.325,mdp,2024.2.1,Win32,60.0240096,66d7945b1baad48e845df3ce,,,,,,,,,,,,,,,,,,,,,949.03,949.03,949.032,950.61,1,1,right,1.052,,950.614,951.515,1,1,right,951.516,952.346,1,1,right,0,952.346,952.346,952.348,953.844,0,25,25,25,1,0.2,0.8,0.2,0.8,,,,,,,,,,,,,,,0.356,,0.8,0.2,0.6,0.4,0.2,0.8,0.4,0.6,,,0.305,,0.2,0.8,0.4,0.6,0.6,0.4,0.2,0.8,1,0
,,669f5d4b56cd9e5a3615a8ed,66db1634c8e1dedad0e5f137,2024-09-06_16h52.07.325,mdp,2024.2.1,Win32,60.0240096,66d7945b1baad48e845df3ce,,,,,,,,,,,,,,,,,,,,,953.846,953.846,953.848,955.645,1,1,right,1.271,,955.648,956.359,1,1,right,956.363,957.495,1,0,right,1,957.496,957.496,957.497,958.99,0,26,26,26,1,0.2,0.8,0.2,0.8,,,,,,,,,,,,,,,0.189,,0.8,0.2,0.6,0.4,0.2,0.8,0.4,0.6,,,0.609,,0.2,0.8,0.4,0.6,0.6,0.4,0.2,0.8,1,0
,,669f5d4b56cd9e5a3615a8ed,66db1634c8e1dedad0e5f137,2024-09-06_16h52.07.325,mdp,2024.2.1,Win32,60.0240096,66d7945b1baad48e845df3ce,,,,,,,,,,,,,,,,,,,,,958.996,958.996,958.997,960.248,1,1,right,0.73,,960.258,960.812,1,0,right,960.815,961.612,1,0,right,1,961.613,961.613,961.616,963.107,0,27,27,27,1,0.2,0.8,0.2,0.8,,,,,,,,,,,,,,,0.04,,0.8,0.2,0.6,0.4,0.2,0.8,0.4,0.6,,,0.278,,0.2,0.8,0.4,0.6,0.8,0.2,0.6,0.4,1,0
,,669f5d4b56cd9e5a3615a8ed,66db1634c8e1dedad0e5f137,2024-09-06_16h52.07.325,mdp,2024.2.1,Win32,60.0240096,66d7945b1baad48e845df3ce,,,,,,,,,,,,,,,,,,,,,963.112,963.112,963.114,963.633,1,1,right,0.002,,963.634,964.675,1,1,right,964.678,965.491,1,0,right,1,965.493,965.493,965.495,966.995,0,28,28,28,1,0.2,0.8,0.2,0.8,,,,,,,,,,,,,,,0.521,,0.8,0.2,0.6,0.4,0.2,0.8,0.4,0.6,,,0.273,,0.2,0.8,0.4,0.6,0.8,0.2,0.6,0.4,1,0
,,669f5d4b56cd9e5a3615a8ed,66db1634c8e1dedad0e5f137,2024-09-06_16h52.07.325,mdp,2024.2.1,Win32,60.0240096,66d7945b1baad48e845df3ce,,,,,,,,,,,,,,,,,,,,,966.996,966.996,966.997,968.007,1,1,right,0.487,,968.011,968.843,1,0,right,968.845,969.393,1,1,right,0,969.393,969.393,969.395,970.893,0,29,29,29,1,0.2,0.8,0.2,0.8,,,,,,,,,,,,,,,0.306,,0.8,0.2,0.6,0.4,0.2,0.8,0.4,0.6,,,0.015,,0.2,0.8,0.4,0.6,0.8,0.2,0.6,0.4,1,0
,,669f5d4b56cd9e5a3615a8ed,66db1634c8e1dedad0e5f137,2024-09-06_16h52.07.325,mdp,2024.2.1,Win32,60.0240096,66d7945b1baad48e845df3ce,,,,,,,,,,,,,,,,,,,,,970.894,970.894,970.895,974.31,0,1,left,2.891,,974.313,974.843,0,1,left,974.845,975.658,0,0,left,1,975.659,975.659,975.661,977.16,0,30,30,30,1,0.2,0.8,0.2,0.8,,,,,,,,,,,,,,,0.006,,0.8,0.2,0.6,0.4,0.2,0.8,0.4,0.6,,,0.275,,0.2,0.8,0.4,0.6,0.8,0.2,0.6,0.4,1,0
,,669f5d4b56cd9e5a3615a8ed,66db1634c8e1dedad0e5f137,2024-09-06_16h52.07.325,mdp,2024.2.1,Win32,60.0240096,66d7945b1baad48e845df3ce,,,,,,,,,,,,,,,,,,,,,977.161,977.161,977.162,978.308,0,1,left,0.628,,978.311,978.957,0,1,left,978.96,979.54,0,0,left,1,979.541,979.541,979.544,981.038,0,31,31,31,1,0.2,0.8,0.2,0.8,,,,,,,,,,,,,,,0.124,,0.8,0.2,0.6,0.4,0.2,0.8,0.4,0.6,,,0.044,,0.2,0.8,0.4,0.6,0.8,0.2,0.6,0.4,1,0
,,669f5d4b56cd9e5a3615a8ed,66db1634c8e1dedad0e5f137,2024-09-06_16h52.07.325,mdp,2024.2.1,Win32,60.0240096,66d7945b1baad48e845df3ce,,,,,,,,,,,,,,,,,,,,,981.04,981.04,981.042,982.606,0,1,left,1.042,,982.607,983.655,0,1,left,983.658,984.537,0,1,left,0,984.537,984.538,984.541,986.036,0,32,32,32,1,0.2,0.8,0.2,0.8,,,,,,,,,,,,,,,0.522,,0.8,0.2,0.6,0.4,0.2,0.8,0.4,0.6,,,0.354,,0.4,0.6,0.6,0.4,0.8,0.2,0.6,0.4,1,0
,,669f5d4b56cd9e5a3615a8ed,66db1634c8e1dedad0e5f137,2024-09-06_16h52.07.325,mdp,2024.2.1,Win32,60.0240096,66d7945b1baad48e845df3ce,,,,,,,,,,,,,,,,,,,,,986.038,986.039,986.041,986.707,1,0,right,0.137,,986.709,987.244,1,0,right,987.245,988.007,1,0,right,1,988.007,988.007,988.009,989.474,0,33,33,33,1,0.8,0.2,0.4,0.6,,,,,,,,,,,,,,,0.003,,0.8,0.2,0.6,0.4,0.2,0.8,0.4,0.6,,,0.218,,0.4,0.6,0.6,0.4,0.8,0.2,0.6,0.4,1,0
,,669f5d4b56cd9e5a3615a8ed,66db1634c8e1dedad0e5f137,2024-09-06_16h52.07.325,mdp,2024.2.1,Win32,60.0240096,66d7945b1baad48e845df3ce,,,,,,,,,,,,,,,,,,,,,989.475,989.475,989.478,990.406,1,1,right,0.401,,990.407,991.236,1,0,right,991.241,991.806,1,0,right,1,991.806,991.806,991.807,993.303,0,34,34,34,1,0.8,0.2,0.4,0.6,,,,,,,,,,,,,,,0.291,,0.8,0.2,0.6,0.4,0.2,0.8,0.4,0.6,,,0.062,,0.4,0.6,0.6,0.4,0.8,0.2,0.6,0.4,1,0
,,669f5d4b56cd9e5a3615a8ed,66db1634c8e1dedad0e5f137,2024-09-06_16h52.07.325,mdp,2024.2.1,Win32,60.0240096,66d7945b1baad48e845df3ce,,,,,,,,,,,,,,,,,,,,,993.306,993.306,993.307,994.189,1,0,right,0.355,,994.197,995.039,1,1,right,995.041,995.723,1,0,right,1,995.723,995.723,995.727,997.218,0,35,35,35,1,0.8,0.2,0.4,0.6,,,,,,,,,,,,,,,0.311,,0.8,0.2,0.6,0.4,0.2,0.8,0.4,0.6,,,0.146,,0.4,0.6,0.6,0.4,0.8,0.2,0.6,0.4,1,0
,,669f5d4b56cd9e5a3615a8ed,66db1634c8e1dedad0e5f137,2024-09-06_16h52.07.325,mdp,2024.2.1,Win32,60.0240096,66d7945b1baad48e845df3ce,,,,,,,,,,,,,,,,,,,,,997.221,997.221,997.224,998.254,1,1,right,0.502,,998.262,999.37,1,1,right,999.374,999.966,1,1,right,0,999.968,999.969,999.973,1001.467,0,36,36,36,1,0.8,0.2,0.4,0.6,,,,,,,,,,,,,,,0.574,,0.8,0.2,0.6,0.4,0.2,0.8,0.4,0.6,,,0.069,,0.4,0.6,0.6,0.4,0.8,0.2,0.6,0.4,1,0
,,669f5d4b56cd9e5a3615a8ed,66db1634c8e1dedad0e5f137,2024-09-06_16h52.07.325,mdp,2024.2.1,Win32,60.0240096,66d7945b1baad48e845df3ce,,,,,,,,,,,,,,,,,,,,,1001.469,1001.47,1001.471,1002.537,0,1,left,0.538,,1002.539,1003.086,0,1,left,1003.089,1003.72,0,0,left,1,1003.72,1003.72,1003.722,1005.218,0,37,37,37,1,0.8,0.2,0.4,0.6,,,,,,,,,,,,,,,0.021,,0.8,0.2,0.6,0.4,0.2,0.8,0.4,0.6,,,0.108,,0.4,0.6,0.6,0.4,0.8,0.2,0.6,0.4,1,0
,,669f5d4b56cd9e5a3615a8ed,66db1634c8e1dedad0e5f137,2024-09-06_16h52.07.325,mdp,2024.2.1,Win32,60.0240096,66d7945b1baad48e845df3ce,,,,,,,,,,,,,,,,,,,,,1005.219,1005.219,1005.225,1006.25,0,0,left,0.506,,1006.254,1007.37,0,0,left,1007.371,1008.187,0,0,left,1,1008.187,1008.187,1008.189,1009.684,0,38,38,38,1,0.8,0.2,0.4,0.6,,,,,,,,,,,,,,,0.581,,0.8,0.2,0.6,0.4,0.2,0.8,0.4,0.6,,,0.279,,0.4,0.6,0.6,0.4,0.8,0.2,0.6,0.4,1,0
,,669f5d4b56cd9e5a3615a8ed,66db1634c8e1dedad0e5f137,2024-09-06_16h52.07.325,mdp,2024.2.1,Win32,60.0240096,66d7945b1baad48e845df3ce,,,,,,,,,,,,,,,,,,,,,1009.686,1009.686,1009.687,1010.569,0,0,left,0.358,,1010.571,1011.135,0,1,left,1011.137,1011.767,0,0,left,1,1011.767,1011.767,1011.769,1013.264,0,39,39,39,1,0.8,0.2,0.4,0.6,,,,,,,,,,,,,,,0.058,,0.8,0.2,0.6,0.4,0.2,0.8,0.4,0.6,,,0.093,,0.4,0.6,0.6,0.4,0.8,0.2,0.6,0.4,1,0
,,669f5d4b56cd9e5a3615a8ed,66db1634c8e1dedad0e5f137,2024-09-06_16h52.07.325,mdp,2024.2.1,Win32,60.0240096,66d7945b1baad48e845df3ce,,,,,,,,,,,,,,,,,,,,,1013.267,1013.267,1013.269,1014.086,0,0,left,0.292,,1014.087,1015.064,0,0,left,1015.069,1015.593,0,1,left,0,1015.593,1015.593,1015.596,1017.096,0,40,40,40,1,0.8,0.2,0.4,0.6,,,,,,,,,,,,,,,0.454,,0.8,0.2,0.6,0.4,0.2,0.8,0.4,0.6,,,0.003,,0.4,0.6,0.6,0.4,0.8,0.2,0.6,0.4,1,0
,,669f5d4b56cd9e5a3615a8ed,66db1634c8e1dedad0e5f137,2024-09-06_16h52.07.325,mdp,2024.2.1,Win32,60.0240096,66d7945b1baad48e845df3ce,,,,,,,,,,,,,,,,,,,,,1017.1,1017.1,1017.101,1020.165,1,1,right,2.536,,1020.168,1020.719,1,1,right,1020.72,1021.884,1,1,right,0,1021.884,1021.884,1021.885,1023.378,0,41,41,41,1,0.8,0.2,0.4,0.6,,,,,,,,,,,,,,,0.017,,0.8,0.2,0.6,0.4,0.2,0.8,0.4,0.6,,,0.627,,0.6,0.4,0.4,0.6,0.8,0.2,0.6,0.4,1,0
,,669f5d4b56cd9e5a3615a8ed,66db1634c8e1dedad0e5f137,2024-09-06_16h52.07.325,mdp,2024.2.1,Win32,60.0240096,66d7945b1baad48e845df3ce,,,,,,,,,,,,,,,,,,,,,1023.383,1023.383,1023.385,1026.245,1,0,right,2.337,,1026.25,1027.499,1,0,right,1027.501,1028.594,1,1,right,0,1028.595,1028.595,1028.599,1030.096,0,42,42,42,1,0.8,0.2,0.4,0.6,,,,,,,,,,,,,,,0.714,,0.8,0.2,0.6,0.4,0.2,0.8,0.4,0.6,,,0.556,,0.6,0.4,0.4,0.6,0.8,0.2,0.6,0.4,1,0
,,669f5d4b56cd9e5a3615a8ed,66db1634c8e1dedad0e5f137,2024-09-06_16h52.07.325,mdp,2024.2.1,Win32,60.0240096,66d7945b1baad48e845df3ce,,,,,,,,,,,,,,,,,,,,,1030.102,1030.102,1030.113,1031.699,1,1,right,1.074,,1031.703,1033.215,1,1,right,1033.216,1034.48,1,1,right,0,1034.48,1034.48,1034.483,1035.976,0,43,43,43,1,0.8,0.2,0.4,0.6,,,,,,,,,,,,,,,0.978,,0.8,0.2,0.6,0.4,0.2,0.8,0.4,0.6,,,0.73,,0.6,0.4,0.4,0.6,0.8,0.2,0.6,0.4,1,0
,,669f5d4b56cd9e5a3615a8ed,66db1634c8e1dedad0e5f137,2024-09-06_16h52.07.325,mdp,2024.2.1,Win32,60.0240096,66d7945b1baad48e845df3ce,,,,,,,,,,,,,,,,,,,,,1035.98,1035.98,1035.984,1036.849,0,0,left,0.341,,1036.851,1037.545,0,0,left,1037.548,1038.642,0,1,left,0,1038.643,1038.643,1038.647,1040.145,0,44,44,44,1,0.8,0.2,0.4,0.6,,,,,,,,,,,,,,,0.156,,0.8,0.2,0.6,0.4,0.2,0.8,0.4,0.6,,,0.554,,0.6,0.4,0.4,0.6,0.8,0.2,0.6,0.4,1,0
,,669f5d4b56cd9e5a3615a8ed,66db1634c8e1dedad0e5f137,2024-09-06_16h52.07.325,mdp,2024.2.1,Win32,60.0240096,66d7945b1baad48e845df3ce,,,,,,,,,,,,,,,,,,,,,1040.146,1040.146,1040.148,1042.195,0,1,left,1.535,,1042.198,1043.01,0,1,left,1043.014,1043.93,0,0,left,1,1043.931,1043.931,1043.934,1045.425,0,45,45,45,1,0.8,0.2,0.4,0.6,,,,,,,,,,,,,,,0.279,,0.8,0.2,0.6,0.4,0.2,0.8,0.4,0.6,,,0.382,,0.6,0.4,0.4,0.6,0.8,0.2,0.6,0.4,1,0
,,669f5d4b56cd9e5a3615a8ed,66db1634c8e1dedad0e5f137,2024-09-06_16h52.07.325,mdp,2024.2.1,Win32,60.0240096,66d7945b1baad48e845df3ce,,,,,,,,,,,,,,,,,,,,,1045.429,1045.429,1045.431,1046.466,0,1,left,0.515,,1046.467,1047.779,0,1,left,1047.781,1049.196,0,0,left,1,1049.197,1049.197,1049.198,1050.69,0,46,46,46,1,0.8,0.2,0.4,0.6,,,,,,,,,,,,,,,0.789,,0.8,0.2,0.6,0.4,0.2,0.8,0.4,0.6,,,0.895,,0.6,0.4,0.4,0.6,0.8,0.2,0.6,0.4,1,0
,,669f5d4b56cd9e5a3615a8ed,66db1634c8e1dedad0e5f137,2024-09-06_16h52.07.325,mdp,2024.2.1,Win32,60.0240096,66d7945b1baad48e845df3ce,,,,,,,,,,,,,,,,,,,,,1050.693,1050.693,1050.696,1051.31,0,0,left,0.093,,1051.312,1053.025,0,0,left,1053.028,1054.656,0,0,left,1,1054.658,1054.658,1054.66,1056.157,0,47,47,47,1,0.8,0.2,0.4,0.6,,,,,,,,,,,,,,,1.175,,0.8,0.2,0.6,0.4,0.2,0.8,0.4,0.6,,,1.09,,0.6,0.4,0.4,0.6,0.8,0.2,0.6,0.4,1,0
,,669f5d4b56cd9e5a3615a8ed,66db1634c8e1dedad0e5f137,2024-09-06_16h52.07.325,mdp,2024.2.1,Win32,60.0240096,66d7945b1baad48e845df3ce,,,,,,,,,,,,,,,,,,,,,1056.16,1056.161,1056.163,1056.708,0,1,left,0.025,,1056.71,1058.193,0,0,left,1058.194,1059.408,0,0,left,1,1059.408,1059.409,1059.41,1060.905,0,48,48,48,1,0.8,0.2,0.4,0.6,,,,,,,,,,,,,,,0.943,,0.8,0.2,0.6,0.4,0.8,0.2,0.2,0.8,,,0.7,,0.6,0.4,0.4,0.6,0.8,0.2,0.6,0.4,1,0
,,669f5d4b56cd9e5a3615a8ed,66db1634c8e1dedad0e5f137,2024-09-06_16h52.07.325,mdp,2024.2.1,Win32,60.0240096,66d7945b1baad48e845df3ce,,,,,,,,,,,,,,,,,,,,,1060.908,1060.908,1060.91,1062.504,0,0,left,1.07,,1062.509,1064.468,0,1,left,1064.476,1065.325,0,1,left,0,1065.325,1065.325,1065.332,1066.825,0,49,49,49,1,0.4,0.6,0.6,0.4,,,,,,,,,,,,,,,1.444,,0.8,0.2,0.6,0.4,0.8,0.2,0.2,0.8,,,0.325,,0.6,0.4,0.4,0.6,0.8,0.2,0.6,0.4,1,0
,,669f5d4b56cd9e5a3615a8ed,66db1634c8e1dedad0e5f137,2024-09-06_16h52.07.325,mdp,2024.2.1,Win32,60.0240096,66d7945b1baad48e845df3ce,,,,,,,,,,,,,,,,,,,,,,,,,,,,,,,,,,,,,,,,,,,,,,,,,,,,,,,,1066.827,1125.328,0,2,2,6,1,imgs/bear.png,imgs/pig.png,imgs/cat.png,imgs/elephant.png,imgs/goat.png,,,,,,,,,,,,,,,,,,,,,,,,
,,669f5d4b56cd9e5a3615a8ed,66db1634c8e1dedad0e5f137,2024-09-06_16h52.07.325,mdp,2024.2.1,Win32,60.0240096,66d7945b1baad48e845df3ce,,,,,,,,,,,,,,3,seqs/st3seq24.csv,1125.333,1129.631,space,3.777,,1129.657,1129.657,1129.665,1132.08,1,0,right,1.896,,1132.085,1132.88,1,0,right,1132.883,1133.629,1,1,right,0,1133.63,1133.63,1133.633,1135.125,0,0,0,0,1,0.8,0.2,0.4,0.6,,,,,,,,,,,,,,,0.276,,0.4,0.6,0.6,0.4,0.2,0.8,0.2,0.8,,,0.208,,0.6,0.4,0.2,0.8,0.6,0.4,0.2,0.8,1,0
,,669f5d4b56cd9e5a3615a8ed,66db1634c8e1dedad0e5f137,2024-09-06_16h52.07.325,mdp,2024.2.1,Win32,60.0240096,66d7945b1baad48e845df3ce,,,,,,,,,,,,,,,,,,,,,1135.128,1135.128,1135.13,1136.175,0,0,left,0.535,,1136.179,1136.994,0,1,left,1136.995,1137.794,0,0,left,1,1137.795,1137.795,1137.796,1139.294,0,1,1,1,1,0.8,0.2,0.4,0.6,,,,,,,,,,,,,,,0.289,,0.4,0.6,0.6,0.4,0.2,0.8,0.2,0.8,,,0.257,,0.6,0.4,0.2,0.8,0.6,0.4,0.2,0.8,1,0
,,669f5d4b56cd9e5a3615a8ed,66db1634c8e1dedad0e5f137,2024-09-06_16h52.07.325,mdp,2024.2.1,Win32,60.0240096,66d7945b1baad48e845df3ce,,,,,,,,,,,,,,,,,,,,,1139.296,1139.296,1139.298,1140.23,0,0,left,0.412,,1140.232,1141.577,0,0,left,1141.579,1142.744,0,1,left,0,1142.745,1142.745,1142.747,1144.238,0,2,2,2,1,0.8,0.2,0.4,0.6,,,,,,,,,,,,,,,0.824,,0.4,0.6,0.6,0.4,0.2,0.8,0.2,0.8,,,0.631,,0.6,0.4,0.2,0.8,0.6,0.4,0.2,0.8,1,0
,,669f5d4b56cd9e5a3615a8ed,66db1634c8e1dedad0e5f137,2024-09-06_16h52.07.325,mdp,2024.2.1,Win32,60.0240096,66d7945b1baad48e845df3ce,,,,,,,,,,,,,,,,,,,,,1144.242,1144.242,1144.244,1145.444,1,1,right,0.689,,1145.445,1146.242,1,1,right,1146.244,1147.057,1,1,right,0,1147.057,1147.057,1147.061,1148.558,0,3,3,3,1,0.8,0.2,0.4,0.6,,,,,,,,,,,,,,,0.247,,0.4,0.6,0.6,0.4,0.2,0.8,0.2,0.8,,,0.276,,0.6,0.4,0.2,0.8,0.6,0.4,0.2,0.8,1,0
,,669f5d4b56cd9e5a3615a8ed,66db1634c8e1dedad0e5f137,2024-09-06_16h52.07.325,mdp,2024.2.1,Win32,60.0240096,66d7945b1baad48e845df3ce,,,,,,,,,,,,,,,,,,,,,1148.559,1148.559,1148.561,1149.272,1,0,right,0.19,,1149.277,1149.877,1,1,right,1149.879,1150.474,1,1,right,0,1150.474,1150.475,1150.476,1151.973,0,4,4,4,1,0.8,0.2,0.4,0.6,,,,,,,,,,,,,,,0.064,,0.4,0.6,0.6,0.4,0.2,0.8,0.2,0.8,,,0.072,,0.6,0.4,0.2,0.8,0.6,0.4,0.2,0.8,1,0
,,669f5d4b56cd9e5a3615a8ed,66db1634c8e1dedad0e5f137,2024-09-06_16h52.07.325,mdp,2024.2.1,Win32,60.0240096,66d7945b1baad48e845df3ce,,,,,,,,,,,,,,,,,,,,,1151.975,1151.975,1151.977,1153.105,1,0,right,0.603,,1153.108,1153.925,1,1,right,1153.926,1154.64,1,0,right,1,1154.64,1154.64,1154.641,1156.136,0,5,5,5,1,0.8,0.2,0.4,0.6,,,,,,,,,,,,,,,0.289,,0.4,0.6,0.6,0.4,0.2,0.8,0.2,0.8,,,0.193,,0.6,0.4,0.2,0.8,0.6,0.4,0.2,0.8,1,0
,,669f5d4b56cd9e5a3615a8ed,66db1634c8e1dedad0e5f137,2024-09-06_16h52.07.325,mdp,2024.2.1,Win32,60.0240096,66d7945b1baad48e845df3ce,,,,,,,,,,,,,,,,,,,,,1156.138,1156.138,1156.14,1157.206,1,0,right,0.558,,1157.209,1158.124,1,0,right,1158.126,1158.873,1,1,right,0,1158.873,1158.873,1158.874,1160.369,0,6,6,6,1,0.8,0.2,0.4,0.6,,,,,,,,,,,,,,,0.39,,0.4,0.6,0.6,0.4,0.2,0.8,0.2,0.8,,,0.209,,0.6,0.4,0.2,0.8,0.6,0.4,0.2,0.8,1,0
,,669f5d4b56cd9e5a3615a8ed,66db1634c8e1dedad0e5f137,2024-09-06_16h52.07.325,mdp,2024.2.1,Win32,60.0240096,66d7945b1baad48e845df3ce,,,,,,,,,,,,,,,,,,,,,1160.373,1160.373,1160.374,1161.885,1,1,right,0.986,,1161.89,1162.457,1,1,right,1162.459,1163.223,1,1,right,0,1163.223,1163.223,1163.225,1164.718,0,7,7,7,1,0.8,0.2,0.4,0.6,,,,,,,,,,,,,,,0.049,,0.4,0.6,0.6,0.4,0.2,0.8,0.2,0.8,,,0.228,,0.6,0.4,0.2,0.8,0.6,0.4,0.2,0.8,1,0
,,669f5d4b56cd9e5a3615a8ed,66db1634c8e1dedad0e5f137,2024-09-06_16h52.07.325,mdp,2024.2.1,Win32,60.0240096,66d7945b1baad48e845df3ce,,,,,,,,,,,,,,,,,,,,,1164.72,1164.72,1164.722,1165.534,0,0,left,0.286,,1165.54,1166.157,0,1,left,1166.166,1166.971,0,0,left,1,1166.971,1166.971,1166.973,1168.474,0,8,8,8,1,0.8,0.2,0.4,0.6,,,,,,,,,,,,,,,0.096,,0.4,0.6,0.6,0.4,0.2,0.8,0.2,0.8,,,0.289,,0.6,0.4,0.2,0.8,0.6,0.4,0.2,0.8,1,0
,,669f5d4b56cd9e5a3615a8ed,66db1634c8e1dedad0e5f137,2024-09-06_16h52.07.325,mdp,2024.2.1,Win32,60.0240096,66d7945b1baad48e845df3ce,,,,,,,,,,,,,,,,,,,,,1168.477,1168.477,1168.479,1169.586,0,0,left,0.586,,1169.589,1170.5,0,1,left,1170.506,1171.755,0,1,left,0,1171.755,1171.755,1171.757,1173.25,0,9,9,9,1,0.8,0.2,0.4,0.6,,,,,,,,,,,,,,,0.387,,0.4,0.6,0.6,0.4,0.2,0.8,0.2,0.8,,,0.73,,0.6,0.4,0.2,0.8,0.6,0.4,0.2,0.8,1,0
,,669f5d4b56cd9e5a3615a8ed,66db1634c8e1dedad0e5f137,2024-09-06_16h52.07.325,mdp,2024.2.1,Win32,60.0240096,66d7945b1baad48e845df3ce,,,,,,,,,,,,,,,,,,,,,1173.254,1173.254,1173.256,1175.301,1,1,right,1.524,,1175.305,1176.022,1,1,right,1176.024,1176.636,1,0,right,1,1176.636,1176.636,1176.638,1178.135,0,10,10,10,1,0.8,0.2,0.4,0.6,,,,,,,,,,,,,,,0.185,,0.4,0.6,0.6,0.4,0.2,0.8,0.2,0.8,,,0.087,,0.6,0.4,0.2,0.8,0.6,0.4,0.2,0.8,1,0
,,669f5d4b56cd9e5a3615a8ed,66db1634c8e1dedad0e5f137,2024-09-06_16h52.07.325,mdp,2024.2.1,Win32,60.0240096,66d7945b1baad48e845df3ce,,,,,,,,,,,,,,,,,,,,,1178.136,1178.136,1178.138,1180.219,1,1,right,1.56,,1180.221,1180.885,1,0,right,1180.887,1181.436,1,0,right,1,1181.436,1181.436,1181.438,1182.936,0,11,11,11,1,0.8,0.2,0.4,0.6,,,,,,,,,,,,,,,0.137,,0.4,0.6,0.6,0.4,0.2,0.8,0.2,0.8,,,0.016,,0.6,0.4,0.2,0.8,0.6,0.4,0.2,0.8,1,0
,,669f5d4b56cd9e5a3615a8ed,66db1634c8e1dedad0e5f137,2024-09-06_16h52.07.325,mdp,2024.2.1,Win32,60.0240096,66d7945b1baad48e845df3ce,,,,,,,,,,,,,,,,,,,,,1182.937,1182.937,1182.938,1183.548,1,0,right,0.089,,1183.552,1184.333,1,0,right,1184.336,1184.885,1,1,right,0,1184.885,1184.885,1184.886,1186.38,0,12,12,12,1,0.8,0.2,0.4,0.6,,,,,,,,,,,,,,,0.245,,0.4,0.6,0.6,0.4,0.2,0.8,0.2,0.8,,,0.03,,0.6,0.4,0.2,0.8,0.6,0.4,0.2,0.8,1,0
,,669f5d4b56cd9e5a3615a8ed,66db1634c8e1dedad0e5f137,2024-09-06_16h52.07.325,mdp,2024.2.1,Win32,60.0240096,66d7945b1baad48e845df3ce,,,,,,,,,,,,,,,,,,,,,1186.383,1186.383,1186.385,1187.064,0,0,left,0.156,,1187.067,1187.699,0,1,left,1187.703,1188.584,0,1,left,0,1188.584,1188.584,1188.586,1190.08,0,13,13,13,1,0.8,0.2,0.4,0.6,,,,,,,,,,,,,,,0.12,,0.8,0.2,0.8,0.2,0.2,0.8,0.2,0.8,,,0.346,,0.6,0.4,0.2,0.8,0.6,0.4,0.2,0.8,1,0
,,669f5d4b56cd9e5a3615a8ed,66db1634c8e1dedad0e5f137,2024-09-06_16h52.07.325,mdp,2024.2.1,Win32,60.0240096,66d7945b1baad48e845df3ce,,,,,,,,,,,,,,,,,,,,,1190.085,1190.085,1190.086,1190.779,0,1,left,0.171,,1190.785,1191.783,0,1,left,1191.785,1193.032,0,1,left,0,1193.032,1193.032,1193.033,1194.529,0,14,14,14,1,0.8,0.2,0.4,0.6,,,,,,,,,,,,,,,0.48,,0.8,0.2,0.8,0.2,0.2,0.8,0.2,0.8,,,0.718,,0.6,0.4,0.2,0.8,0.6,0.4,0.2,0.8,1,0
,,669f5d4b56cd9e5a3615a8ed,66db1634c8e1dedad0e5f137,2024-09-06_16h52.07.325,mdp,2024.2.1,Win32,60.0240096,66d7945b1baad48e845df3ce,,,,,,,,,,,,,,,,,,,,,1194.533,1194.533,1194.534,1195.666,1,0,right,0.605,,1195.668,1196.464,1,1,right,1196.467,1197.33,1,1,right,0,1197.331,1197.331,1197.333,1198.828,0,15,15,15,1,0.8,0.2,0.4,0.6,,,,,,,,,,,,,,,0.256,,0.8,0.2,0.8,0.2,0.2,0.8,0.2,0.8,,,0.335,,0.6,0.4,0.2,0.8,0.6,0.4,0.2,0.8,1,0
,,669f5d4b56cd9e5a3615a8ed,66db1634c8e1dedad0e5f137,2024-09-06_16h52.07.325,mdp,2024.2.1,Win32,60.0240096,66d7945b1baad48e845df3ce,,,,,,,,,,,,,,,,,,,,,1198.829,1198.829,1198.832,1199.994,1,1,right,0.642,,1199.999,1200.848,1,1,right,1200.85,1201.533,1,1,right,0,1201.533,1201.533,1201.55,1203.037,0,16,16,16,1,0.8,0.2,0.4,0.6,,,,,,,,,,,,,,,0.303,,0.8,0.2,0.8,0.2,0.2,0.8,0.2,0.8,,,0.161,,0.6,0.4,0.2,0.8,0.6,0.4,0.2,0.8,1,0
,,669f5d4b56cd9e5a3615a8ed,66db1634c8e1dedad0e5f137,2024-09-06_16h52.07.325,mdp,2024.2.1,Win32,60.0240096,66d7945b1baad48e845df3ce,,,,,,,,,,,,,,,,,,,,,1203.04,1203.04,1203.049,1204.084,1,1,right,0.506,,1204.087,1204.647,1,1,right,1204.65,1205.347,1,1,right,0,1205.349,1205.349,1205.35,1206.848,0,17,17,17,1,0.8,0.2,0.4,0.6,,,,,,,,,,,,,,,0.041,,0.6,0.4,0.2,0.8,0.2,0.8,0.2,0.8,,,0.171,,0.6,0.4,0.2,0.8,0.6,0.4,0.2,0.8,1,0
,,669f5d4b56cd9e5a3615a8ed,66db1634c8e1dedad0e5f137,2024-09-06_16h52.07.325,mdp,2024.2.1,Win32,60.0240096,66d7945b1baad48e845df3ce,,,,,,,,,,,,,,,,,,,,,1206.849,1206.849,1206.853,1208.014,1,1,right,0.643,,1208.017,1208.759,1,1,right,1208.761,1209.63,1,1,right,0,1209.63,1209.63,1209.632,1211.126,0,18,18,18,1,0.8,0.2,0.4,0.6,,,,,,,,,,,,,,,0.221,,0.6,0.4,0.2,0.8,0.2,0.8,0.2,0.8,,,0.342,,0.6,0.4,0.2,0.8,0.6,0.4,0.2,0.8,1,0
,,669f5d4b56cd9e5a3615a8ed,66db1634c8e1dedad0e5f137,2024-09-06_16h52.07.325,mdp,2024.2.1,Win32,60.0240096,66d7945b1baad48e845df3ce,,,,,,,,,,,,,,,,,,,,,1211.129,1211.129,1211.131,1211.965,0,0,left,0.319,,1211.968,1212.696,0,0,left,1212.698,1213.459,0,1,left,0,1213.459,1213.459,1213.461,1214.958,0,19,19,19,1,0.8,0.2,0.4,0.6,,,,,,,,,,,,,,,0.193,,0.6,0.4,0.2,0.8,0.2,0.8,0.2,0.8,,,0.229,,0.6,0.4,0.2,0.8,0.6,0.4,0.2,0.8,1,0
,,669f5d4b56cd9e5a3615a8ed,66db1634c8e1dedad0e5f137,2024-09-06_16h52.07.325,mdp,2024.2.1,Win32,60.0240096,66d7945b1baad48e845df3ce,,,,,,,,,,,,,,,,,,,,,1214.962,1214.962,1214.964,1216.66,1,0,right,1.174,,1216.664,1217.708,1,0,right,1217.712,1218.78,1,1,right,0,1218.78,1218.78,1218.781,1220.275,0,20,20,20,1,0.8,0.2,0.4,0.6,,,,,,,,,,,,,,,0.52,,0.6,0.4,0.2,0.8,0.2,0.8,0.2,0.8,,,0.559,,0.6,0.4,0.2,0.8,0.6,0.4,0.2,0.8,1,0
,,669f5d4b56cd9e5a3615a8ed,66db1634c8e1dedad0e5f137,2024-09-06_16h52.07.325,mdp,2024.2.1,Win32,60.0240096,66d7945b1baad48e845df3ce,,,,,,,,,,,,,,,,,,,,,1220.278,1220.278,1220.279,1221.041,0,0,left,0.238,,1221.045,1221.643,0,1,left,1221.646,1222.53,0,0,left,1,1222.53,1222.53,1222.533,1224.026,0,21,21,21,1,0.8,0.2,0.4,0.6,,,,,,,,,,,,,,,0.089,,0.4,0.6,0.8,0.2,0.2,0.8,0.2,0.8,,,0.341,,0.6,0.4,0.2,0.8,0.6,0.4,0.2,0.8,1,0
,,669f5d4b56cd9e5a3615a8ed,66db1634c8e1dedad0e5f137,2024-09-06_16h52.07.325,mdp,2024.2.1,Win32,60.0240096,66d7945b1baad48e845df3ce,,,,,,,,,,,,,,,,,,,,,1224.027,1224.027,1224.029,1224.675,0,1,left,0.121,,1224.678,1225.293,0,1,left,1225.295,1226.006,0,0,left,1,1226.006,1226.006,1226.009,1227.508,0,22,22,22,1,0.8,0.2,0.4,0.6,,,,,,,,,,,,,,,0.076,,0.4,0.6,0.8,0.2,0.2,0.8,0.2,0.8,,,0.187,,0.6,0.4,0.2,0.8,0.6,0.4,0.2,0.8,1,0
,,669f5d4b56cd9e5a3615a8ed,66db1634c8e1dedad0e5f137,2024-09-06_16h52.07.325,mdp,2024.2.1,Win32,60.0240096,66d7945b1baad48e845df3ce,,,,,,,,,,,,,,,,,,,,,1227.509,1227.509,1227.511,1228.428,0,1,left,0.396,,1228.43,1229.045,0,1,left,1229.046,1229.796,0,0,left,1,1229.796,1229.796,1229.797,1231.288,0,23,23,23,1,0.8,0.2,0.4,0.6,,,,,,,,,,,,,,,0.083,,0.4,0.6,0.8,0.2,0.2,0.8,0.2,0.8,,,0.232,,0.6,0.4,0.2,0.8,0.6,0.4,0.2,0.8,1,0
,,669f5d4b56cd9e5a3615a8ed,66db1634c8e1dedad0e5f137,2024-09-06_16h52.07.325,mdp,2024.2.1,Win32,60.0240096,66d7945b1baad48e845df3ce,,,,,,,,,,,,,,,,,,,,,1231.291,1231.291,1231.293,1232.115,0,0,left,0.293,,1232.116,1233.093,0,1,left,1233.095,1234.104,0,1,left,0,1234.104,1234.104,1234.11,1235.604,0,24,24,24,1,0.8,0.2,0.4,0.6,,,,,,,,,,,,,,,0.442,,0.4,0.6,0.8,0.2,0.2,0.8,0.2,0.8,,,0.487,,0.6,0.4,0.2,0.8,0.6,0.4,0.2,0.8,1,0
,,669f5d4b56cd9e5a3615a8ed,66db1634c8e1dedad0e5f137,2024-09-06_16h52.07.325,mdp,2024.2.1,Win32,60.0240096,66d7945b1baad48e845df3ce,,,,,,,,,,,,,,,,,,,,,1235.607,1235.607,1235.609,1236.527,0,0,left,0.41,,1236.529,1237.208,0,1,left,1237.219,1237.891,0,0,left,1,1237.891,1237.891,1237.893,1239.387,0,25,25,25,1,0.8,0.2,0.4,0.6,,,,,,,,,,,,,,,0.15,,0.4,0.6,0.8,0.2,0.2,0.8,0.2,0.8,,,0.159,,0.6,0.4,0.2,0.8,0.6,0.4,0.2,0.8,1,0
,,669f5d4b56cd9e5a3615a8ed,66db1634c8e1dedad0e5f137,2024-09-06_16h52.07.325,mdp,2024.2.1,Win32,60.0240096,66d7945b1baad48e845df3ce,,,,,,,,,,,,,,,,,,,,,1239.391,1239.391,1239.394,1240.508,0,0,left,0.592,,1240.51,1241.356,0,0,left,1241.358,1242.071,1,1,right,0,1242.073,1242.073,1242.075,1243.57,0,26,26,26,1,0.8,0.2,0.4,0.6,,,,,,,,,,,,,,,0.32,,0.4,0.6,0.8,0.2,0.2,0.8,0.2,0.8,,,0.175,,0.6,0.4,0.2,0.8,0.6,0.4,0.2,0.8,1,0
,,669f5d4b56cd9e5a3615a8ed,66db1634c8e1dedad0e5f137,2024-09-06_16h52.07.325,mdp,2024.2.1,Win32,60.0240096,66d7945b1baad48e845df3ce,,,,,,,,,,,,,,,,,,,,,1243.574,1243.574,1243.575,1244.625,1,0,right,0.525,,1244.627,1245.474,1,0,right,1245.475,1246.34,1,1,right,0,1246.34,1246.34,1246.343,1247.839,0,27,27,27,1,0.4,0.6,0.8,0.2,,,,,,,,,,,,,,,0.321,,0.4,0.6,0.8,0.2,0.2,0.8,0.2,0.8,,,0.345,,0.6,0.4,0.2,0.8,0.6,0.4,0.2,0.8,1,0
,,669f5d4b56cd9e5a3615a8ed,66db1634c8e1dedad0e5f137,2024-09-06_16h52.07.325,mdp,2024.2.1,Win32,60.0240096,66d7945b1baad48e845df3ce,,,,,,,,,,,,,,,,,,,,,1247.839,1247.839,1247.841,1248.69,0,1,left,0.324,,1248.691,1249.757,0,1,left,1249.759,1250.623,0,0,left,1,1250.623,1250.623,1250.624,1252.117,0,28,28,28,1,0.4,0.6,0.8,0.2,,,,,,,,,,,,,,,0.528,,0.4,0.6,0.8,0.2,0.2,0.8,0.2,0.8,,,0.329,,0.6,0.4,0.2,0.8,0.6,0.4,0.2,0.8,1,0
,,669f5d4b56cd9e5a3615a8ed,66db1634c8e1dedad0e5f137,2024-09-06_16h52.07.325,mdp,2024.2.1,Win32,60.0240096,66d7945b1baad48e845df3ce,,,,,,,,,,,,,,,,,,,,,1252.12,1252.12,1252.122,1252.854,0,0,left,0.214,,1252.856,1253.534,0,1,left,1253.538,1254.367,0,1,left,0,1254.367,1254.367,1254.371,1255.868,0,29,29,29,1,0.4,0.6,0.8,0.2,,,,,,,,,,,,,,,0.143,,0.4,0.6,0.8,0.2,0.2,0.8,0.2,0.8,,,0.298,,0.6,0.4,0.2,0.8,0.6,0.4,0.2,0.8,1,0
,,669f5d4b56cd9e5a3615a8ed,66db1634c8e1dedad0e5f137,2024-09-06_16h52.07.325,mdp,2024.2.1,Win32,60.0240096,66d7945b1baad48e845df3ce,,,,,,,,,,,,,,,,,,,,,1255.87,1255.87,1255.871,1256.734,0,1,left,0.336,,1256.738,1257.554,0,1,left,1257.555,1258.237,0,0,left,1,1258.237,1258.237,1258.238,1259.735,0,30,30,30,1,0.4,0.6,0.8,0.2,,,,,,,,,,,,,,,0.296,,0.4,0.6,0.8,0.2,0.2,0.8,0.2,0.8,,,0.151,,0.6,0.4,0.2,0.8,0.6,0.4,0.2,0.8,1,0
,,669f5d4b56cd9e5a3615a8ed,66db1634c8e1dedad0e5f137,2024-09-06_16h52.07.325,mdp,2024.2.1,Win32,60.0240096,66d7945b1baad48e845df3ce,,,,,,,,,,,,,,,,,,,,,1259.736,1259.736,1259.737,1260.952,0,1,left,0.694,,1260.956,1261.867,0,1,left,1261.87,1262.866,0,1,left,0,1262.866,1262.866,1262.871,1264.365,0,31,31,31,1,0.4,0.6,0.8,0.2,,,,,,,,,,,,,,,0.386,,0.4,0.6,0.8,0.2,0.2,0.8,0.2,0.8,,,0.47,,0.6,0.4,0.2,0.8,0.6,0.4,0.2,0.8,1,0
,,669f5d4b56cd9e5a3615a8ed,66db1634c8e1dedad0e5f137,2024-09-06_16h52.07.325,mdp,2024.2.1,Win32,60.0240096,66d7945b1baad48e845df3ce,,,,,,,,,,,,,,,,,,,,,1264.367,1264.367,1264.37,1265.515,0,0,left,0.621,,1265.52,1266.353,0,0,left,1266.355,1267.185,0,1,left,0,1267.186,1267.186,1267.187,1268.683,0,32,32,32,1,0.4,0.6,0.8,0.2,,,,,,,,,,,,,,,0.311,,0.4,0.6,0.8,0.2,0.2,0.8,0.2,0.8,,,0.294,,0.6,0.4,0.2,0.8,0.6,0.4,0.2,0.8,1,0
,,669f5d4b56cd9e5a3615a8ed,66db1634c8e1dedad0e5f137,2024-09-06_16h52.07.325,mdp,2024.2.1,Win32,60.0240096,66d7945b1baad48e845df3ce,,,,,,,,,,,,,,,,,,,,,1268.685,1268.685,1268.687,1269.5,0,1,left,0.288,,1269.502,1270.102,0,0,left,1270.104,1270.968,0,0,left,1,1270.968,1270.968,1270.97,1272.465,0,33,33,33,1,0.4,0.6,0.8,0.2,,,,,,,,,,,,,,,0.062,,0.4,0.6,0.8,0.2,0.2,0.8,0.2,0.8,,,0.343,,0.6,0.4,0.2,0.8,0.6,0.4,0.2,0.8,1,0
,,669f5d4b56cd9e5a3615a8ed,66db1634c8e1dedad0e5f137,2024-09-06_16h52.07.325,mdp,2024.2.1,Win32,60.0240096,66d7945b1baad48e845df3ce,,,,,,,,,,,,,,,,,,,,,1272.467,1272.467,1272.469,1273.464,0,1,left,0.471,,1273.468,1274.353,0,1,left,1274.367,1274.968,0,0,left,1,1274.968,1274.968,1274.97,1276.466,0,34,34,34,1,0.4,0.6,0.8,0.2,,,,,,,,,,,,,,,0.362,,0.4,0.6,0.8,0.2,0.2,0.8,0.2,0.8,,,0.081,,0.6,0.4,0.2,0.8,0.6,0.4,0.2,0.8,1,0
,,669f5d4b56cd9e5a3615a8ed,66db1634c8e1dedad0e5f137,2024-09-06_16h52.07.325,mdp,2024.2.1,Win32,60.0240096,66d7945b1baad48e845df3ce,,,,,,,,,,,,,,,,,,,,,1276.468,1276.469,1276.473,1277.4,0,0,left,0.41,,1277.402,1278.299,0,1,left,1278.302,1279.233,0,0,left,1,1279.234,1279.234,1279.236,1280.729,0,35,35,35,1,0.4,0.6,0.8,0.2,,,,,,,,,,,,,,,0.36,,0.4,0.6,0.8,0.2,0.2,0.8,0.2,0.8,,,0.406,,0.6,0.4,0.2,0.8,0.6,0.4,0.2,0.8,1,0
,,669f5d4b56cd9e5a3615a8ed,66db1634c8e1dedad0e5f137,2024-09-06_16h52.07.325,mdp,2024.2.1,Win32,60.0240096,66d7945b1baad48e845df3ce,,,,,,,,,,,,,,,,,,,,,1280.732,1280.732,1280.734,1281.516,0,0,left,0.274,,1281.518,1282.379,0,0,left,1282.384,1283.295,0,1,left,0,1283.297,1283.297,1283.303,1284.794,0,36,36,36,1,0.4,0.6,0.8,0.2,,,,,,,,,,,,,,,0.339,,0.4,0.6,0.8,0.2,0.2,0.8,0.2,0.8,,,0.375,,0.6,0.4,0.2,0.8,0.6,0.4,0.2,0.8,1,0
,,669f5d4b56cd9e5a3615a8ed,66db1634c8e1dedad0e5f137,2024-09-06_16h52.07.325,mdp,2024.2.1,Win32,60.0240096,66d7945b1baad48e845df3ce,,,,,,,,,,,,,,,,,,,,,1284.798,1284.798,1284.801,1285.729,1,1,right,0.405,,1285.732,1286.594,1,1,right,1286.599,1287.663,1,1,right,0,1287.663,1287.663,1287.666,1289.16,0,37,37,37,1,0.4,0.6,0.8,0.2,,,,,,,,,,,,,,,0.324,,0.4,0.6,0.8,0.2,0.2,0.8,0.2,0.8,,,0.526,,0.8,0.2,0.8,0.2,0.6,0.4,0.2,0.8,1,0
,,669f5d4b56cd9e5a3615a8ed,66db1634c8e1dedad0e5f137,2024-09-06_16h52.07.325,mdp,2024.2.1,Win32,60.0240096,66d7945b1baad48e845df3ce,,,,,,,,,,,,,,,,,,,,,1289.164,1289.164,1289.166,1289.931,1,0,right,0.247,,1289.933,1290.862,1,0,right,1290.865,1291.612,1,0,right,1,1291.612,1291.612,1291.613,1293.093,0,38,38,38,1,0.4,0.6,0.8,0.2,,,,,,,,,,,,,,,0.393,,0.4,0.6,0.8,0.2,0.2,0.8,0.2,0.8,,,0.212,,0.8,0.2,0.8,0.2,0.6,0.4,0.2,0.8,1,0
,,669f5d4b56cd9e5a3615a8ed,66db1634c8e1dedad0e5f137,2024-09-06_16h52.07.325,mdp,2024.2.1,Win32,60.0240096,66d7945b1baad48e845df3ce,,,,,,,,,,,,,,,,,,,,,1293.095,1293.095,1293.098,1293.714,1,1,right,0.087,,1293.716,1294.797,1,1,right,1294.799,1295.749,1,1,right,0,1295.749,1295.749,1295.75,1297.243,0,39,39,39,1,0.4,0.6,0.8,0.2,,,,,,,,,,,,,,,0.542,,0.4,0.6,0.8,0.2,0.8,0.2,0.6,0.4,,,0.414,,0.8,0.2,0.8,0.2,0.6,0.4,0.2,0.8,1,0
,,669f5d4b56cd9e5a3615a8ed,66db1634c8e1dedad0e5f137,2024-09-06_16h52.07.325,mdp,2024.2.1,Win32,60.0240096,66d7945b1baad48e845df3ce,,,,,,,,,,,,,,,,,,,,,1297.246,1297.246,1297.247,1298.262,0,0,left,0.491,,1298.264,1299.196,0,0,left,1299.198,1299.977,0,0,left,1,1299.978,1299.978,1299.981,1301.475,0,40,40,40,1,0.4,0.6,0.8,0.2,,,,,,,,,,,,,,,0.397,,0.4,0.6,0.8,0.2,0.8,0.2,0.6,0.4,,,0.246,,0.8,0.2,0.8,0.2,0.6,0.4,0.2,0.8,1,0
,,669f5d4b56cd9e5a3615a8ed,66db1634c8e1dedad0e5f137,2024-09-06_16h52.07.325,mdp,2024.2.1,Win32,60.0240096,66d7945b1baad48e845df3ce,,,,,,,,,,,,,,,,,,,,,1301.477,1301.477,1301.48,1302.495,0,1,left,0.49,,1302.497,1303.444,0,0,left,1303.447,1304.293,0,0,left,1,1304.294,1304.294,1304.296,1305.79,0,41,41,41,1,0.4,0.6,0.8,0.2,,,,,,,,,,,,,,,0.414,,0.4,0.6,0.8,0.2,0.8,0.2,0.6,0.4,,,0.338,,0.8,0.2,0.8,0.2,0.6,0.4,0.2,0.8,1,0
,,669f5d4b56cd9e5a3615a8ed,66db1634c8e1dedad0e5f137,2024-09-06_16h52.07.325,mdp,2024.2.1,Win32,60.0240096,66d7945b1baad48e845df3ce,,,,,,,,,,,,,,,,,,,,,1305.793,1305.793,1305.796,1306.457,0,1,left,0.138,,1306.46,1307.493,0,0,left,1307.496,1308.093,0,0,left,1,1308.093,1308.093,1308.096,1309.59,0,42,42,42,1,0.4,0.6,0.8,0.2,,,,,,,,,,,,,,,0.507,,0.4,0.6,0.8,0.2,0.8,0.2,0.6,0.4,,,0.065,,0.8,0.2,0.8,0.2,0.6,0.4,0.2,0.8,1,0
,,669f5d4b56cd9e5a3615a8ed,66db1634c8e1dedad0e5f137,2024-09-06_16h52.07.325,mdp,2024.2.1,Win32,60.0240096,66d7945b1baad48e845df3ce,,,,,,,,,,,,,,,,,,,,,1309.593,1309.593,1309.595,1310.511,1,1,right,0.393,,1310.522,1311.427,1,0,right,1311.428,1312.527,1,0,right,1,1312.527,1312.527,1312.534,1314.023,0,43,43,43,1,0.4,0.6,0.8,0.2,,,,,,,,,,,,,,,0.393,,0.4,0.6,0.8,0.2,0.8,0.2,0.6,0.4,,,0.578,,0.8,0.2,0.8,0.2,0.6,0.4,0.2,0.8,1,0
,,669f5d4b56cd9e5a3615a8ed,66db1634c8e1dedad0e5f137,2024-09-06_16h52.07.325,mdp,2024.2.1,Win32,60.0240096,66d7945b1baad48e845df3ce,,,,,,,,,,,,,,,,,,,,,1314.026,1314.026,1314.028,1314.626,1,0,right,0.074,,1314.629,1315.694,1,0,right,1315.696,1316.294,1,0,right,1,1316.294,1316.294,1316.296,1317.788,0,44,44,44,1,0.4,0.6,0.8,0.2,,,,,,,,,,,,,,,0.534,,0.6,0.4,0.6,0.4,0.8,0.2,0.6,0.4,,,0.075,,0.8,0.2,0.8,0.2,0.6,0.4,0.2,0.8,1,0
,,669f5d4b56cd9e5a3615a8ed,66db1634c8e1dedad0e5f137,2024-09-06_16h52.07.325,mdp,2024.2.1,Win32,60.0240096,66d7945b1baad48e845df3ce,,,,,,,,,,,,,,,,,,,,,1317.791,1317.791,1317.793,1318.604,1,0,right,0.286,,1318.611,1319.508,1,0,right,1319.511,1320.341,1,0,right,1,1320.341,1320.341,1320.344,1321.84,0,45,45,45,1,0.4,0.6,0.8,0.2,,,,,,,,,,,,,,,0.372,,0.6,0.4,0.6,0.4,0.8,0.2,0.6,0.4,,,0.316,,0.8,0.2,0.8,0.2,0.6,0.4,0.2,0.8,1,0
,,669f5d4b56cd9e5a3615a8ed,66db1634c8e1dedad0e5f137,2024-09-06_16h52.07.325,mdp,2024.2.1,Win32,60.0240096,66d7945b1baad48e845df3ce,,,,,,,,,,,,,,,,,,,,,1321.841,1321.841,1321.843,1322.975,1,1,right,0.555,,1322.977,1323.887,1,1,right,1323.891,1324.774,1,1,right,0,1324.774,1324.774,1324.776,1326.27,0,46,46,46,1,0.4,0.6,0.8,0.2,,,,,,,,,,,,,,,0.373,,0.6,0.4,0.6,0.4,0.8,0.2,0.6,0.4,,,0.346,,0.8,0.2,0.8,0.2,0.6,0.4,0.2,0.8,1,0
,,669f5d4b56cd9e5a3615a8ed,66db1634c8e1dedad0e5f137,2024-09-06_16h52.07.325,mdp,2024.2.1,Win32,60.0240096,66d7945b1baad48e845df3ce,,,,,,,,,,,,,,,,,,,,,1326.274,1326.274,1326.276,1327.155,0,1,left,0.352,,1327.157,1328.086,0,0,left,1328.09,1328.971,0,1,left,0,1328.971,1328.971,1328.973,1330.469,0,47,47,47,1,0.4,0.6,0.8,0.2,,,,,,,,,,,,,,,0.404,,0.6,0.4,0.6,0.4,0.8,0.2,0.6,0.4,,,0.359,,0.8,0.2,0.8,0.2,0.6,0.4,0.2,0.8,1,0
,,669f5d4b56cd9e5a3615a8ed,66db1634c8e1dedad0e5f137,2024-09-06_16h52.07.325,mdp,2024.2.1,Win32,60.0240096,66d7945b1baad48e845df3ce,,,,,,,,,,,,,,,,,,,,,1330.47,1330.47,1330.474,1331.205,0,1,left,0.21,,1331.207,1332.119,0,1,left,1332.124,1332.97,0,1,left,0,1332.971,1332.972,1332.975,1334.468,0,48,48,48,1,0.4,0.6,0.8,0.2,,,,,,,,,,,,,,,0.386,,0.6,0.4,0.6,0.4,0.8,0.2,0.6,0.4,,,0.308,,0.8,0.2,0.8,0.2,0.6,0.4,0.2,0.8,1,0
,,669f5d4b56cd9e5a3615a8ed,66db1634c8e1dedad0e5f137,2024-09-06_16h52.07.325,mdp,2024.2.1,Win32,60.0240096,66d7945b1baad48e845df3ce,,,,,,,,,,,,,,,,,,,,,1334.471,1334.471,1334.472,1335.103,0,1,left,0.101,,1335.104,1335.955,0,0,left,1335.957,1336.788,0,0,left,1,1336.789,1336.789,1336.791,1338.283,0,49,49,49,1,0.4,0.6,0.8,0.2,,,,,,,,,,,,,,,0.344,,0.6,0.4,0.6,0.4,0.8,0.2,0.6,0.4,,,0.295,,0.8,0.2,0.8,0.2,0.6,0.4,0.2,0.8,1,0
,,669f5d4b56cd9e5a3615a8ed,66db1634c8e1dedad0e5f137,2024-09-06_16h52.07.325,mdp,2024.2.1,Win32,60.0240096,66d7945b1baad48e845df3ce,,,,,,,,,,,,,,,,,,,,,,,,,,,,,,,,,,,,,,,,,,,,,,,,,,,,,,,,1338.285,1396.796,0,3,3,4,1,imgs/goat.png,imgs/pig.png,imgs/squirrel.png,imgs/dog.png,imgs/cat.png,,,,,,,,,,,,,,,,,,,,,,,,
,,669f5d4b56cd9e5a3615a8ed,66db1634c8e1dedad0e5f137,2024-09-06_16h52.07.325,mdp,2024.2.1,Win32,60.0240096,66d7945b1baad48e845df3ce,,,,,,,,,,,,,,1,seqs/st1seq25.csv,1396.813,1413.458,space,16.141,,1413.473,1413.473,1413.475,1415.588,1,1,right,1.579,,1415.591,1415.597,0,1,,1415.599,1415.606,0,1,,0,1415.606,1415.606,1415.607,1417.107,0,0,0,0,1,0.6,0.4,0.4,0.6,1,0,,,,,,,,,,,,,,,,,,,,,,,,,,,,,,,,,,,,
,,669f5d4b56cd9e5a3615a8ed,66db1634c8e1dedad0e5f137,2024-09-06_16h52.07.325,mdp,2024.2.1,Win32,60.0240096,66d7945b1baad48e845df3ce,,,,,,,,,,,,,,,,,,,,,1417.11,1417.11,1417.118,1417.739,0,0,left,0.109,,1417.742,1417.747,0,0,,1417.749,1417.759,0,0,,1,1417.759,1417.759,1417.762,1419.255,0,1,1,1,1,0.4,0.6,0.8,0.2,1,0,,,,,,,,,,,,,,,,,,,,,,,,,,,,,,,,,,,,
,,669f5d4b56cd9e5a3615a8ed,66db1634c8e1dedad0e5f137,2024-09-06_16h52.07.325,mdp,2024.2.1,Win32,60.0240096,66d7945b1baad48e845df3ce,,,,,,,,,,,,,,,,,,,,,1419.257,1419.257,1419.26,1420.157,0,0,left,0.374,,1420.159,1420.166,0,0,,1420.169,1420.174,0,0,,1,1420.174,1420.174,1420.176,1421.667,0,2,2,2,1,0.4,0.6,0.8,0.2,1,0,,,,,,,,,,,,,,,,,,,,,,,,,,,,,,,,,,,,
,,669f5d4b56cd9e5a3615a8ed,66db1634c8e1dedad0e5f137,2024-09-06_16h52.07.325,mdp,2024.2.1,Win32,60.0240096,66d7945b1baad48e845df3ce,,,,,,,,,,,,,,,,,,,,,1421.671,1421.671,1421.673,1422.639,0,1,left,0.444,,1422.641,1422.646,0,1,,1422.648,1422.654,0,1,,0,1422.654,1422.654,1422.656,1424.151,0,3,3,3,1,0.4,0.6,0.8,0.2,1,0,,,,,,,,,,,,,,,,,,,,,,,,,,,,,,,,,,,,
,,669f5d4b56cd9e5a3615a8ed,66db1634c8e1dedad0e5f137,2024-09-06_16h52.07.325,mdp,2024.2.1,Win32,60.0240096,66d7945b1baad48e845df3ce,,,,,,,,,,,,,,,,,,,,,1424.154,1424.154,1424.156,1424.987,1,0,right,0.309,,1424.99,1425,0,0,,1425.002,1425.006,0,0,,1,1425.006,1425.006,1425.007,1426.5,0,4,4,4,1,0.4,0.6,0.8,0.2,1,0,,,,,,,,,,,,,,,,,,,,,,,,,,,,,,,,,,,,
,,669f5d4b56cd9e5a3615a8ed,66db1634c8e1dedad0e5f137,2024-09-06_16h52.07.325,mdp,2024.2.1,Win32,60.0240096,66d7945b1baad48e845df3ce,,,,,,,,,,,,,,,,,,,,,1426.504,1426.504,1426.506,1427.721,1,0,right,0.689,,1427.722,1427.727,0,0,,1427.73,1427.737,0,1,,1,1427.738,1427.738,1427.739,1429.234,0,5,5,5,1,0.4,0.6,0.8,0.2,1,0,,,,,,,,,,,,,,,,,,,,,,,,,,,,,,,,,,,,
,,669f5d4b56cd9e5a3615a8ed,66db1634c8e1dedad0e5f137,2024-09-06_16h52.07.325,mdp,2024.2.1,Win32,60.0240096,66d7945b1baad48e845df3ce,,,,,,,,,,,,,,,,,,,,,1429.236,1429.237,1429.238,1430.118,1,1,right,0.354,,1430.121,1430.125,0,0,,1430.127,1430.133,0,0,,0,1430.134,1430.134,1430.135,1431.635,0,6,6,6,1,0.4,0.6,0.8,0.2,1,0,,,,,,,,,,,,,,,,,,,,,,,,,,,,,,,,,,,,
,,669f5d4b56cd9e5a3615a8ed,66db1634c8e1dedad0e5f137,2024-09-06_16h52.07.325,mdp,2024.2.1,Win32,60.0240096,66d7945b1baad48e845df3ce,,,,,,,,,,,,,,,,,,,,,1431.637,1431.637,1431.639,1432.453,1,0,right,0.291,,1432.455,1432.46,0,0,,1432.462,1432.464,0,0,,1,1432.465,1432.465,1432.467,1433.954,0,7,7,7,1,0.4,0.6,0.8,0.2,1,0,,,,,,,,,,,,,,,,,,,,,,,,,,,,,,,,,,,,
,,669f5d4b56cd9e5a3615a8ed,66db1634c8e1dedad0e5f137,2024-09-06_16h52.07.325,mdp,2024.2.1,Win32,60.0240096,66d7945b1baad48e845df3ce,,,,,,,,,,,,,,,,,,,,,1433.954,1433.954,1433.955,1435.084,1,1,right,0.603,,1435.086,1435.098,0,0,,1435.1,1435.105,0,1,,0,1435.105,1435.106,1435.107,1436.601,0,8,8,8,1,0.8,0.2,0.6,0.4,1,0,,,,,,,,,,,,,,,,,,,,,,,,,,,,,,,,,,,,
,,669f5d4b56cd9e5a3615a8ed,66db1634c8e1dedad0e5f137,2024-09-06_16h52.07.325,mdp,2024.2.1,Win32,60.0240096,66d7945b1baad48e845df3ce,,,,,,,,,,,,,,,,,,,,,1436.601,1436.601,1436.603,1438.364,0,0,left,1.237,,1438.368,1438.374,0,0,,1438.376,1438.382,0,0,,1,1438.382,1438.382,1438.383,1439.879,0,9,9,9,1,0.8,0.2,0.6,0.4,1,0,,,,,,,,,,,,,,,,,,,,,,,,,,,,,,,,,,,,
,,669f5d4b56cd9e5a3615a8ed,66db1634c8e1dedad0e5f137,2024-09-06_16h52.07.325,mdp,2024.2.1,Win32,60.0240096,66d7945b1baad48e845df3ce,,,,,,,,,,,,,,,,,,,,,1439.884,1439.884,1439.886,1440.764,0,0,left,0.353,,1440.768,1440.774,0,0,,1440.775,1440.78,0,0,,1,1440.78,1440.78,1440.783,1442.279,0,10,10,10,1,0.8,0.2,0.6,0.4,1,0,,,,,,,,,,,,,,,,,,,,,,,,,,,,,,,,,,,,
,,669f5d4b56cd9e5a3615a8ed,66db1634c8e1dedad0e5f137,2024-09-06_16h52.07.325,mdp,2024.2.1,Win32,60.0240096,66d7945b1baad48e845df3ce,,,,,,,,,,,,,,,,,,,,,1442.283,1442.283,1442.286,1442.899,0,0,left,0.089,,1442.901,1442.906,0,0,,1442.907,1442.914,0,0,,1,1442.915,1442.915,1442.916,1444.405,0,11,11,11,1,0.8,0.2,0.6,0.4,1,0,,,,,,,,,,,,,,,,,,,,,,,,,,,,,,,,,,,,
,,669f5d4b56cd9e5a3615a8ed,66db1634c8e1dedad0e5f137,2024-09-06_16h52.07.325,mdp,2024.2.1,Win32,60.0240096,66d7945b1baad48e845df3ce,,,,,,,,,,,,,,,,,,,,,1444.405,1444.405,1444.407,1445.1,0,1,left,0.174,,1445.103,1445.106,0,0,,1445.108,1445.113,0,0,,0,1445.114,1445.114,1445.116,1446.614,0,12,12,12,1,0.8,0.2,0.6,0.4,1,0,,,,,,,,,,,,,,,,,,,,,,,,,,,,,,,,,,,,
,,669f5d4b56cd9e5a3615a8ed,66db1634c8e1dedad0e5f137,2024-09-06_16h52.07.325,mdp,2024.2.1,Win32,60.0240096,66d7945b1baad48e845df3ce,,,,,,,,,,,,,,,,,,,,,1446.615,1446.615,1446.618,1447.616,0,0,left,0.485,,1447.618,1447.621,0,0,,1447.624,1447.632,0,0,,1,1447.632,1447.632,1447.633,1449.129,0,13,13,13,1,0.8,0.2,0.6,0.4,1,0,,,,,,,,,,,,,,,,,,,,,,,,,,,,,,,,,,,,
,,669f5d4b56cd9e5a3615a8ed,66db1634c8e1dedad0e5f137,2024-09-06_16h52.07.325,mdp,2024.2.1,Win32,60.0240096,66d7945b1baad48e845df3ce,,,,,,,,,,,,,,,,,,,,,1449.132,1449.132,1449.134,1449.715,1,1,right,0.054,,1449.716,1449.72,0,0,,1449.722,1449.725,0,1,,0,1449.725,1449.725,1449.728,1451.218,0,14,14,14,1,0.8,0.2,0.6,0.4,1,0,,,,,,,,,,,,,,,,,,,,,,,,,,,,,,,,,,,,
,,669f5d4b56cd9e5a3615a8ed,66db1634c8e1dedad0e5f137,2024-09-06_16h52.07.325,mdp,2024.2.1,Win32,60.0240096,66d7945b1baad48e845df3ce,,,,,,,,,,,,,,,,,,,,,1451.223,1451.223,1451.237,1452.099,1,1,right,0.353,,1452.102,1452.11,0,0,,1452.115,1452.119,0,1,,0,1452.119,1452.119,1452.121,1453.615,0,15,15,15,1,0.8,0.2,0.6,0.4,1,0,,,,,,,,,,,,,,,,,,,,,,,,,,,,,,,,,,,,
,,669f5d4b56cd9e5a3615a8ed,66db1634c8e1dedad0e5f137,2024-09-06_16h52.07.325,mdp,2024.2.1,Win32,60.0240096,66d7945b1baad48e845df3ce,,,,,,,,,,,,,,,,,,,,,1453.617,1453.617,1453.62,1454.845,0,0,left,0.702,,1454.85,1454.86,0,0,,1454.864,1454.869,0,0,,1,1454.869,1454.869,1454.871,1456.363,0,16,16,16,1,0.8,0.2,0.6,0.4,1,0,,,,,,,,,,,,,,,,,,,,,,,,,,,,,,,,,,,,
,,669f5d4b56cd9e5a3615a8ed,66db1634c8e1dedad0e5f137,2024-09-06_16h52.07.325,mdp,2024.2.1,Win32,60.0240096,66d7945b1baad48e845df3ce,,,,,,,,,,,,,,,,,,,,,1456.365,1456.365,1456.367,1457.677,0,1,left,0.789,,1457.681,1457.687,0,0,,1457.689,1457.696,0,0,,0,1457.697,1457.697,1457.7,1459.198,0,17,17,17,1,0.8,0.2,0.6,0.4,1,0,,,,,,,,,,,,,,,,,,,,,,,,,,,,,,,,,,,,
,,669f5d4b56cd9e5a3615a8ed,66db1634c8e1dedad0e5f137,2024-09-06_16h52.07.325,mdp,2024.2.1,Win32,60.0240096,66d7945b1baad48e845df3ce,,,,,,,,,,,,,,,,,,,,,1459.2,1459.2,1459.202,1461.41,0,0,left,1.687,,1461.415,1461.424,0,0,,1461.426,1461.428,0,0,,1,1461.428,1461.428,1461.429,1462.926,0,18,18,18,1,0.8,0.2,0.6,0.4,1,0,,,,,,,,,,,,,,,,,,,,,,,,,,,,,,,,,,,,
,,669f5d4b56cd9e5a3615a8ed,66db1634c8e1dedad0e5f137,2024-09-06_16h52.07.325,mdp,2024.2.1,Win32,60.0240096,66d7945b1baad48e845df3ce,,,,,,,,,,,,,,,,,,,,,1462.929,1462.929,1462.933,1463.695,0,1,left,0.237,,1463.698,1463.704,0,0,,1463.705,1463.712,0,0,,0,1463.712,1463.712,1463.714,1465.209,0,19,19,19,1,0.2,0.8,0.8,0.2,1,0,,,,,,,,,,,,,,,,,,,,,,,,,,,,,,,,,,,,
,,669f5d4b56cd9e5a3615a8ed,66db1634c8e1dedad0e5f137,2024-09-06_16h52.07.325,mdp,2024.2.1,Win32,60.0240096,66d7945b1baad48e845df3ce,,,,,,,,,,,,,,,,,,,,,1465.214,1465.214,1465.215,1465.997,1,1,right,0.254,,1465.998,1466.003,0,1,,1466.005,1466.009,0,0,,0,1466.01,1466.01,1466.013,1467.508,0,20,20,20,1,0.2,0.8,0.8,0.2,1,0,,,,,,,,,,,,,,,,,,,,,,,,,,,,,,,,,,,,
,,669f5d4b56cd9e5a3615a8ed,66db1634c8e1dedad0e5f137,2024-09-06_16h52.07.325,mdp,2024.2.1,Win32,60.0240096,66d7945b1baad48e845df3ce,,,,,,,,,,,,,,,,,,,,,1467.511,1467.511,1467.514,1468.38,1,1,right,0.341,,1468.382,1468.387,0,1,,1468.392,1468.398,0,0,,0,1468.398,1468.398,1468.399,1469.893,0,21,21,21,1,0.8,0.2,0.4,0.6,1,0,,,,,,,,,,,,,,,,,,,,,,,,,,,,,,,,,,,,
,,669f5d4b56cd9e5a3615a8ed,66db1634c8e1dedad0e5f137,2024-09-06_16h52.07.325,mdp,2024.2.1,Win32,60.0240096,66d7945b1baad48e845df3ce,,,,,,,,,,,,,,,,,,,,,1469.895,1469.895,1469.896,1471.546,0,0,left,1.125,,1471.548,1471.555,0,0,,1471.558,1471.559,0,0,,1,1471.559,1471.559,1471.562,1473.057,0,22,22,22,1,0.8,0.2,0.4,0.6,1,0,,,,,,,,,,,,,,,,,,,,,,,,,,,,,,,,,,,,
,,669f5d4b56cd9e5a3615a8ed,66db1634c8e1dedad0e5f137,2024-09-06_16h52.07.325,mdp,2024.2.1,Win32,60.0240096,66d7945b1baad48e845df3ce,,,,,,,,,,,,,,,,,,,,,1473.058,1473.058,1473.06,1473.974,0,0,left,0.383,,1473.978,1473.983,0,0,,1473.984,1473.99,0,0,,1,1473.99,1473.99,1473.991,1475.49,0,23,23,23,1,0.8,0.2,0.4,0.6,1,0,,,,,,,,,,,,,,,,,,,,,,,,,,,,,,,,,,,,
,,669f5d4b56cd9e5a3615a8ed,66db1634c8e1dedad0e5f137,2024-09-06_16h52.07.325,mdp,2024.2.1,Win32,60.0240096,66d7945b1baad48e845df3ce,,,,,,,,,,,,,,,,,,,,,1475.494,1475.494,1475.496,1476.345,0,0,left,0.341,,1476.347,1476.354,0,0,,1476.356,1476.36,0,0,,1,1476.36,1476.36,1476.362,1477.857,0,24,24,24,1,0.8,0.2,0.4,0.6,1,0,,,,,,,,,,,,,,,,,,,,,,,,,,,,,,,,,,,,
,,669f5d4b56cd9e5a3615a8ed,66db1634c8e1dedad0e5f137,2024-09-06_16h52.07.325,mdp,2024.2.1,Win32,60.0240096,66d7945b1baad48e845df3ce,,,,,,,,,,,,,,,,,,,,,1477.859,1477.859,1477.861,1478.86,0,0,left,0.475,,1478.861,1478.865,0,1,,1478.867,1478.871,0,0,,1,1478.872,1478.872,1478.874,1480.377,0,25,25,25,1,0.8,0.2,0.4,0.6,1,0,,,,,,,,,,,,,,,,,,,,,,,,,,,,,,,,,,,,
,,669f5d4b56cd9e5a3615a8ed,66db1634c8e1dedad0e5f137,2024-09-06_16h52.07.325,mdp,2024.2.1,Win32,60.0240096,66d7945b1baad48e845df3ce,,,,,,,,,,,,,,,,,,,,,1480.377,1480.377,1480.378,1481.128,0,1,left,0.225,,1481.129,1481.133,0,0,,1481.136,1481.141,0,1,,0,1481.141,1481.142,1481.143,1482.64,0,26,26,26,1,0.6,0.4,0.6,0.4,1,0,,,,,,,,,,,,,,,,,,,,,,,,,,,,,,,,,,,,
,,669f5d4b56cd9e5a3615a8ed,66db1634c8e1dedad0e5f137,2024-09-06_16h52.07.325,mdp,2024.2.1,Win32,60.0240096,66d7945b1baad48e845df3ce,,,,,,,,,,,,,,,,,,,,,1482.643,1482.643,1482.644,1483.571,1,1,right,0.405,,1483.573,1483.577,0,0,,1483.579,1483.588,0,0,,0,1483.588,1483.588,1483.59,1485.088,0,27,27,27,1,0.6,0.4,0.6,0.4,1,0,,,,,,,,,,,,,,,,,,,,,,,,,,,,,,,,,,,,
,,669f5d4b56cd9e5a3615a8ed,66db1634c8e1dedad0e5f137,2024-09-06_16h52.07.325,mdp,2024.2.1,Win32,60.0240096,66d7945b1baad48e845df3ce,,,,,,,,,,,,,,,,,,,,,1485.09,1485.09,1485.093,1486.89,1,0,right,1.272,,1486.893,1486.897,0,0,,1486.9,1486.906,0,0,,1,1486.906,1486.906,1486.91,1488.409,0,28,28,28,1,0.6,0.4,0.6,0.4,1,0,,,,,,,,,,,,,,,,,,,,,,,,,,,,,,,,,,,,
,,669f5d4b56cd9e5a3615a8ed,66db1634c8e1dedad0e5f137,2024-09-06_16h52.07.325,mdp,2024.2.1,Win32,60.0240096,66d7945b1baad48e845df3ce,,,,,,,,,,,,,,,,,,,,,1488.414,1488.415,1488.424,1489.692,1,1,right,0.757,,1489.697,1489.708,0,1,,1489.711,1489.717,0,1,,0,1489.717,1489.717,1489.72,1491.223,0,29,29,29,1,0.8,0.2,0.4,0.6,1,0,,,,,,,,,,,,,,,,,,,,,,,,,,,,,,,,,,,,
,,669f5d4b56cd9e5a3615a8ed,66db1634c8e1dedad0e5f137,2024-09-06_16h52.07.325,mdp,2024.2.1,Win32,60.0240096,66d7945b1baad48e845df3ce,,,,,,,,,,,,,,,,,,,,,1491.225,1491.225,1491.227,1492.254,1,1,right,0.504,,1492.259,1492.266,0,1,,1492.273,1492.277,0,0,,0,1492.278,1492.278,1492.279,1493.773,0,30,30,30,1,0.6,0.4,0.2,0.8,1,0,,,,,,,,,,,,,,,,,,,,,,,,,,,,,,,,,,,,
,,669f5d4b56cd9e5a3615a8ed,66db1634c8e1dedad0e5f137,2024-09-06_16h52.07.325,mdp,2024.2.1,Win32,60.0240096,66d7945b1baad48e845df3ce,,,,,,,,,,,,,,,,,,,,,1493.775,1493.775,1493.777,1495.471,0,1,left,1.171,,1495.475,1495.481,0,0,,1495.485,1495.49,0,0,,0,1495.49,1495.49,1495.492,1496.993,0,31,31,31,1,0.6,0.4,0.2,0.8,1,0,,,,,,,,,,,,,,,,,,,,,,,,,,,,,,,,,,,,
,,669f5d4b56cd9e5a3615a8ed,66db1634c8e1dedad0e5f137,2024-09-06_16h52.07.325,mdp,2024.2.1,Win32,60.0240096,66d7945b1baad48e845df3ce,,,,,,,,,,,,,,,,,,,,,1496.993,1496.993,1496.995,1498.488,0,0,left,0.966,,1498.491,1498.495,0,0,,1498.497,1498.504,0,0,,1,1498.504,1498.504,1498.505,1500.004,0,32,32,32,1,0.6,0.4,0.2,0.8,1,0,,,,,,,,,,,,,,,,,,,,,,,,,,,,,,,,,,,,
,,669f5d4b56cd9e5a3615a8ed,66db1634c8e1dedad0e5f137,2024-09-06_16h52.07.325,mdp,2024.2.1,Win32,60.0240096,66d7945b1baad48e845df3ce,,,,,,,,,,,,,,,,,,,,,1500.007,1500.007,1500.008,1500.906,0,0,left,0.378,,1500.908,1500.914,0,0,,1500.914,1500.92,0,0,,1,1500.921,1500.921,1500.923,1502.418,0,33,33,33,1,0.6,0.4,0.2,0.8,1,0,,,,,,,,,,,,,,,,,,,,,,,,,,,,,,,,,,,,
,,669f5d4b56cd9e5a3615a8ed,66db1634c8e1dedad0e5f137,2024-09-06_16h52.07.325,mdp,2024.2.1,Win32,60.0240096,66d7945b1baad48e845df3ce,,,,,,,,,,,,,,,,,,,,,1502.421,1502.421,1502.423,1503.289,0,0,left,0.34,,1503.291,1503.296,0,1,,1503.298,1503.304,0,1,,1,1503.304,1503.304,1503.305,1504.804,0,34,34,34,1,0.6,0.4,0.2,0.8,1,0,,,,,,,,,,,,,,,,,,,,,,,,,,,,,,,,,,,,
,,669f5d4b56cd9e5a3615a8ed,66db1634c8e1dedad0e5f137,2024-09-06_16h52.07.325,mdp,2024.2.1,Win32,60.0240096,66d7945b1baad48e845df3ce,,,,,,,,,,,,,,,,,,,,,1504.805,1504.805,1504.807,1505.687,0,0,left,0.354,,1505.688,1505.694,0,1,,1505.696,1505.7,0,0,,1,1505.701,1505.701,1505.703,1507.203,0,35,35,35,1,0.6,0.4,0.2,0.8,1,0,,,,,,,,,,,,,,,,,,,,,,,,,,,,,,,,,,,,
,,669f5d4b56cd9e5a3615a8ed,66db1634c8e1dedad0e5f137,2024-09-06_16h52.07.325,mdp,2024.2.1,Win32,60.0240096,66d7945b1baad48e845df3ce,,,,,,,,,,,,,,,,,,,,,1507.205,1507.205,1507.206,1508.036,0,0,left,0.317,,1508.039,1508.044,0,1,,1508.046,1508.052,0,0,,1,1508.052,1508.052,1508.053,1509.55,0,36,36,36,1,0.6,0.4,0.2,0.8,1,0,,,,,,,,,,,,,,,,,,,,,,,,,,,,,,,,,,,,
,,669f5d4b56cd9e5a3615a8ed,66db1634c8e1dedad0e5f137,2024-09-06_16h52.07.325,mdp,2024.2.1,Win32,60.0240096,66d7945b1baad48e845df3ce,,,,,,,,,,,,,,,,,,,,,1509.554,1509.554,1509.555,1510.084,0,0,left,0.005,,1510.089,1510.094,0,0,,1510.096,1510.098,0,1,,1,1510.098,1510.098,1510.103,1511.6,0,37,37,37,1,0.6,0.4,0.2,0.8,1,0,,,,,,,,,,,,,,,,,,,,,,,,,,,,,,,,,,,,
,,669f5d4b56cd9e5a3615a8ed,66db1634c8e1dedad0e5f137,2024-09-06_16h52.07.325,mdp,2024.2.1,Win32,60.0240096,66d7945b1baad48e845df3ce,,,,,,,,,,,,,,,,,,,,,1511.603,1511.603,1511.605,1512.334,0,1,left,0.203,,1512.337,1512.343,0,1,,1512.344,1512.349,0,0,,0,1512.35,1512.35,1512.352,1513.85,0,38,38,38,1,0.2,0.8,0.6,0.4,1,0,,,,,,,,,,,,,,,,,,,,,,,,,,,,,,,,,,,,
,,669f5d4b56cd9e5a3615a8ed,66db1634c8e1dedad0e5f137,2024-09-06_16h52.07.325,mdp,2024.2.1,Win32,60.0240096,66d7945b1baad48e845df3ce,,,,,,,,,,,,,,,,,,,,,1513.853,1513.853,1513.854,1514.42,1,0,right,0.05,,1514.422,1514.426,0,1,,1514.428,1514.434,0,0,,1,1514.434,1514.434,1514.436,1515.929,0,39,39,39,1,0.2,0.8,0.6,0.4,1,0,,,,,,,,,,,,,,,,,,,,,,,,,,,,,,,,,,,,
,,669f5d4b56cd9e5a3615a8ed,66db1634c8e1dedad0e5f137,2024-09-06_16h52.07.325,mdp,2024.2.1,Win32,60.0240096,66d7945b1baad48e845df3ce,,,,,,,,,,,,,,,,,,,,,1515.933,1515.933,1515.934,1516.535,1,0,right,0.085,,1516.537,1516.543,0,0,,1516.544,1516.548,0,1,,1,1516.549,1516.549,1516.552,1518.05,0,40,40,40,1,0.2,0.8,0.6,0.4,1,0,,,,,,,,,,,,,,,,,,,,,,,,,,,,,,,,,,,,
,,669f5d4b56cd9e5a3615a8ed,66db1634c8e1dedad0e5f137,2024-09-06_16h52.07.325,mdp,2024.2.1,Win32,60.0240096,66d7945b1baad48e845df3ce,,,,,,,,,,,,,,,,,,,,,1518.053,1518.053,1518.054,1518.787,1,0,right,0.21,,1518.788,1518.793,0,0,,1518.795,1518.799,0,0,,1,1518.8,1518.8,1518.803,1520.298,0,41,41,41,1,0.2,0.8,0.6,0.4,1,0,,,,,,,,,,,,,,,,,,,,,,,,,,,,,,,,,,,,
,,669f5d4b56cd9e5a3615a8ed,66db1634c8e1dedad0e5f137,2024-09-06_16h52.07.325,mdp,2024.2.1,Win32,60.0240096,66d7945b1baad48e845df3ce,,,,,,,,,,,,,,,,,,,,,1520.299,1520.299,1520.302,1520.904,1,1,right,0.085,,1520.905,1520.909,0,0,,1520.914,1520.92,0,0,,0,1520.92,1520.92,1520.921,1522.414,0,42,42,42,1,0.2,0.8,0.6,0.4,1,0,,,,,,,,,,,,,,,,,,,,,,,,,,,,,,,,,,,,
,,669f5d4b56cd9e5a3615a8ed,66db1634c8e1dedad0e5f137,2024-09-06_16h52.07.325,mdp,2024.2.1,Win32,60.0240096,66d7945b1baad48e845df3ce,,,,,,,,,,,,,,,,,,,,,1522.417,1522.417,1522.42,1522.984,0,0,left,0.034,,1522.986,1522.99,0,0,,1522.991,1522.998,0,0,,1,1522.998,1522.998,1522.999,1524.484,0,43,43,43,1,0.2,0.8,0.6,0.4,1,0,,,,,,,,,,,,,,,,,,,,,,,,,,,,,,,,,,,,
,,669f5d4b56cd9e5a3615a8ed,66db1634c8e1dedad0e5f137,2024-09-06_16h52.07.325,mdp,2024.2.1,Win32,60.0240096,66d7945b1baad48e845df3ce,,,,,,,,,,,,,,,,,,,,,1524.485,1524.485,1524.486,1525.429,0,1,left,0.41,,1525.441,1525.455,0,1,,1525.458,1525.466,0,1,,0,1525.466,1525.466,1525.469,1526.969,0,44,44,44,1,0.2,0.8,0.6,0.4,1,0,,,,,,,,,,,,,,,,,,,,,,,,,,,,,,,,,,,,
,,669f5d4b56cd9e5a3615a8ed,66db1634c8e1dedad0e5f137,2024-09-06_16h52.07.325,mdp,2024.2.1,Win32,60.0240096,66d7945b1baad48e845df3ce,,,,,,,,,,,,,,,,,,,,,1526.971,1526.971,1526.975,1527.635,0,1,left,0.143,,1527.636,1527.641,0,0,,1527.644,1527.649,0,1,,0,1527.649,1527.65,1527.652,1529.151,0,45,45,45,1,0.2,0.8,0.6,0.4,1,0,,,,,,,,,,,,,,,,,,,,,,,,,,,,,,,,,,,,
,,669f5d4b56cd9e5a3615a8ed,66db1634c8e1dedad0e5f137,2024-09-06_16h52.07.325,mdp,2024.2.1,Win32,60.0240096,66d7945b1baad48e845df3ce,,,,,,,,,,,,,,,,,,,,,1529.152,1529.152,1529.154,1530.116,0,0,left,0.442,,1530.119,1530.125,0,0,,1530.128,1530.134,0,0,,1,1530.134,1530.136,1530.138,1531.63,0,46,46,46,1,0.8,0.2,0.4,0.6,1,0,,,,,,,,,,,,,,,,,,,,,,,,,,,,,,,,,,,,
,,669f5d4b56cd9e5a3615a8ed,66db1634c8e1dedad0e5f137,2024-09-06_16h52.07.325,mdp,2024.2.1,Win32,60.0240096,66d7945b1baad48e845df3ce,,,,,,,,,,,,,,,,,,,,,1531.633,1531.633,1531.635,1532.348,0,1,left,0.188,,1532.354,1532.359,0,0,,1532.363,1532.367,0,0,,0,1532.367,1532.367,1532.369,1533.865,0,47,47,47,1,0.8,0.2,0.4,0.6,1,0,,,,,,,,,,,,,,,,,,,,,,,,,,,,,,,,,,,,
,,669f5d4b56cd9e5a3615a8ed,66db1634c8e1dedad0e5f137,2024-09-06_16h52.07.325,mdp,2024.2.1,Win32,60.0240096,66d7945b1baad48e845df3ce,,,,,,,,,,,,,,,,,,,,,1533.865,1533.866,1533.867,1534.713,1,1,right,0.317,,1534.716,1534.723,0,0,,1534.724,1534.729,0,0,,0,1534.729,1534.729,1534.731,1536.229,0,48,48,48,1,0.4,0.6,0.6,0.4,1,0,,,,,,,,,,,,,,,,,,,,,,,,,,,,,,,,,,,,
,,669f5d4b56cd9e5a3615a8ed,66db1634c8e1dedad0e5f137,2024-09-06_16h52.07.325,mdp,2024.2.1,Win32,60.0240096,66d7945b1baad48e845df3ce,,,,,,,,,,,,,,,,,,,,,1536.232,1536.232,1536.233,1537.166,1,1,right,0.404,,1537.168,1537.173,0,0,,1537.174,1537.18,0,0,,0,1537.181,1537.181,1537.182,1538.678,0,49,49,49,1,0.6,0.4,0.8,0.2,1,0,,,,,,,,,,,,,,,,,,,,,,,,,,,,,,,,,,,,
,,669f5d4b56cd9e5a3615a8ed,66db1634c8e1dedad0e5f137,2024-09-06_16h52.07.325,mdp,2024.2.1,Win32,60.0240096,66d7945b1baad48e845df3ce,,,,,,,,,,,,,,,,,,,,,,,,,,,,,,,,,,,,,,,,,,,,,,,,,,,,,,,,1538.68,1597.188,0,4,4,2,1,imgs/dog.png,imgs/lion.png,imgs/cat.png,imgs/giraffe.png,imgs/rabbit.png,,,,,,,,,,,,,,,,,,,,,,,,
