init_exp.started,init_exp.stopped,participant,session,date,expName,psychopyVersion,OS,frameRate,study_id,disp_instruction.started,disp_instruction.stopped,instruction.thisRepN,instruction.thisTrialN,instruction.thisN,instruction.thisIndex,instruction.ran,instimg_path,consent.started,consent.stopped,key_resp_3.keys,key_resp_3.rt,key_resp_3.duration,n_steps,sequence_path,init_block.started,init_block.stopped,key_resp.keys,key_resp.rt,key_resp.duration,init_trials.started,init_trials.stopped,step0.started,step0.stopped,act0,s1,res0.keys,res0.rt,res0.duration,step1.started,step1.stopped,act1,s2,res1.keys,step2.started,step2.stopped,act2,s3,res2.keys,rew,reward_comp.started,reward_comp.stopped,reward_disp.started,reward_disp.stopped,trials.thisRepN,trials.thisTrialN,trials.thisN,trials.thisIndex,trials.ran,s00a0s10,s00a0s11,s00a1s10,s00a1s11,rew10,rew11,break_block.started,break_block.stopped,block.thisRepN,block.thisTrialN,block.thisN,block.thisIndex,block.ran,s00path,s10path,s11path,s20path,s21path,res1.rt,res1.duration,s10a0s20,s10a0s21,s10a1s20,s10a1s21,s11a0s20,s11a0s21,s11a1s20,s11a1s21,rew20,rew21,res2.rt,res2.duration,s20a0s30,s20a0s31,s20a1s30,s20a1s31,s21a0s30,s21a0s31,s21a1s30,s21a1s31,rew30,rew31
0.0004,0.0033,66a2d042a6eb6d2766577b3f,66fcbb6a30ac4abac8a66007,2024-10-02_04h23.56.463,mdp,2024.2.1,Win32,29.85074627,66fa4ebf79326e780c390304,,,,,,,,,,,,,,,,,,,,,,,,,,,,,,,,,,,,,,,,,,,,,,,,,,,,,,,,,,,,,,,,,,,,,,,,,,,,,,,,,,,,,,,,,,,
,,66a2d042a6eb6d2766577b3f,66fcbb6a30ac4abac8a66007,2024-10-02_04h23.56.463,mdp,2024.2.1,Win32,29.85074627,66fa4ebf79326e780c390304,0.012,83.5075,0,0,0,0,1,rlnn_exp/rlnn_exp.001.png,,,,,,,,,,,,,,,,,,,,,,,,,,,,,,,,,,,,,,,,,,,,,,,,,,,,,,,,,,,,,,,,,,,,,,,,,,,,,,,,,,,
,,66a2d042a6eb6d2766577b3f,66fcbb6a30ac4abac8a66007,2024-10-02_04h23.56.463,mdp,2024.2.1,Win32,29.85074627,66fa4ebf79326e780c390304,83.5091,136.3057,0,1,1,1,1,rlnn_exp/rlnn_exp.002.png,,,,,,,,,,,,,,,,,,,,,,,,,,,,,,,,,,,,,,,,,,,,,,,,,,,,,,,,,,,,,,,,,,,,,,,,,,,,,,,,,,,
,,66a2d042a6eb6d2766577b3f,66fcbb6a30ac4abac8a66007,2024-10-02_04h23.56.463,mdp,2024.2.1,Win32,29.85074627,66fa4ebf79326e780c390304,136.3077,182.8792,0,2,2,2,1,rlnn_exp/rlnn_exp.003.png,,,,,,,,,,,,,,,,,,,,,,,,,,,,,,,,,,,,,,,,,,,,,,,,,,,,,,,,,,,,,,,,,,,,,,,,,,,,,,,,,,,
,,66a2d042a6eb6d2766577b3f,66fcbb6a30ac4abac8a66007,2024-10-02_04h23.56.463,mdp,2024.2.1,Win32,29.85074627,66fa4ebf79326e780c390304,182.8822,236.7533,0,3,3,3,1,rlnn_exp/rlnn_exp.004.png,,,,,,,,,,,,,,,,,,,,,,,,,,,,,,,,,,,,,,,,,,,,,,,,,,,,,,,,,,,,,,,,,,,,,,,,,,,,,,,,,,,
,,66a2d042a6eb6d2766577b3f,66fcbb6a30ac4abac8a66007,2024-10-02_04h23.56.463,mdp,2024.2.1,Win32,29.85074627,66fa4ebf79326e780c390304,,,,,,,,,236.7547,277.3521,y,30.5556,,,,,,,,,,,,,,,,,,,,,,,,,,,,,,,,,,,,,,,,,,,,,,,,,,,,,,,,,,,,,,,,,,,,,,,,,,,,,,,
,,66a2d042a6eb6d2766577b3f,66fcbb6a30ac4abac8a66007,2024-10-02_04h23.56.463,mdp,2024.2.1,Win32,29.85074627,66fa4ebf79326e780c390304,,,,,,,,,,,,,,1,seqs/st1seq35.csv,277.3604,283.758,space,5.8787,,283.7636,283.7638,283.7645,288.2525,0,0,left,3.9409,,288.2533,288.2563,,1,,288.2572,288.2596,,1,,1,288.2598,288.2599,288.2606,289.7626,0,0,0,0,1,0.6,0.4,0.6,0.4,1,0,,,,,,,,,,,,,,,,,,,,,,,,,,,,,,,,,,,,
,,66a2d042a6eb6d2766577b3f,66fcbb6a30ac4abac8a66007,2024-10-02_04h23.56.463,mdp,2024.2.1,Win32,29.85074627,66fa4ebf79326e780c390304,,,,,,,,,,,,,,,,,,,,,289.7633,289.7634,289.7658,291.4136,0,0,left,1.1049,,291.4163,291.4174,,0,,291.4184,291.4192,,0,,1,291.4192,291.4192,291.42,292.9004,0,1,1,1,1,0.6,0.4,0.6,0.4,1,0,,,,,,,,,,,,,,,,,,,,,,,,,,,,,,,,,,,,
,,66a2d042a6eb6d2766577b3f,66fcbb6a30ac4abac8a66007,2024-10-02_04h23.56.463,mdp,2024.2.1,Win32,29.85074627,66fa4ebf79326e780c390304,,,,,,,,,,,,,,,,,,,,,292.9019,292.9019,292.9051,293.8017,0,0,left,0.3657,,293.8038,293.8049,,0,,293.806,293.8072,,0,,1,293.8072,293.8073,293.8083,295.3119,0,2,2,2,1,0.8,0.2,0.4,0.6,1,0,,,,,,,,,,,,,,,,,,,,,,,,,,,,,,,,,,,,
,,66a2d042a6eb6d2766577b3f,66fcbb6a30ac4abac8a66007,2024-10-02_04h23.56.463,mdp,2024.2.1,Win32,29.85074627,66fa4ebf79326e780c390304,,,,,,,,,,,,,,,,,,,,,295.3128,295.3128,295.3144,296.0418,0,1,left,0.2007,,296.0438,296.0446,,0,,296.0455,296.0463,,0,,0,296.0463,296.0464,296.0471,297.5467,0,3,3,3,1,0.8,0.2,0.4,0.6,1,0,,,,,,,,,,,,,,,,,,,,,,,,,,,,,,,,,,,,
,,66a2d042a6eb6d2766577b3f,66fcbb6a30ac4abac8a66007,2024-10-02_04h23.56.463,mdp,2024.2.1,Win32,29.85074627,66fa4ebf79326e780c390304,,,,,,,,,,,,,,,,,,,,,297.5475,297.5475,297.5499,298.8821,1,1,right,0.8164,,298.8841,298.8849,,1,,298.886,298.8879,,1,,0,298.888,298.888,298.889,300.3638,0,4,4,4,1,0.8,0.2,0.4,0.6,1,0,,,,,,,,,,,,,,,,,,,,,,,,,,,,,,,,,,,,
,,66a2d042a6eb6d2766577b3f,66fcbb6a30ac4abac8a66007,2024-10-02_04h23.56.463,mdp,2024.2.1,Win32,29.85074627,66fa4ebf79326e780c390304,,,,,,,,,,,,,,,,,,,,,300.3649,300.3649,300.3675,301.2555,0,0,left,0.3587,,301.2583,301.2593,,0,,301.2606,301.2615,,1,,1,301.2615,301.2615,301.2623,302.7511,0,5,5,5,1,0.8,0.2,0.4,0.6,1,0,,,,,,,,,,,,,,,,,,,,,,,,,,,,,,,,,,,,
,,66a2d042a6eb6d2766577b3f,66fcbb6a30ac4abac8a66007,2024-10-02_04h23.56.463,mdp,2024.2.1,Win32,29.85074627,66fa4ebf79326e780c390304,,,,,,,,,,,,,,,,,,,,,302.752,302.752,302.7536,303.5888,1,1,right,0.3168,,303.5908,303.5917,,0,,303.5926,303.5937,,1,,0,303.5937,303.5938,303.5953,305.0733,0,6,6,6,1,0.8,0.2,0.4,0.6,1,0,,,,,,,,,,,,,,,,,,,,,,,,,,,,,,,,,,,,
,,66a2d042a6eb6d2766577b3f,66fcbb6a30ac4abac8a66007,2024-10-02_04h23.56.463,mdp,2024.2.1,Win32,29.85074627,66fa4ebf79326e780c390304,,,,,,,,,,,,,,,,,,,,,305.0744,305.0744,305.0763,305.9017,0,0,left,0.294,,305.9029,305.9037,,1,,305.9045,305.9053,,0,,1,305.9053,305.9054,305.9062,307.4047,0,7,7,7,1,0.8,0.2,0.4,0.6,1,0,,,,,,,,,,,,,,,,,,,,,,,,,,,,,,,,,,,,
,,66a2d042a6eb6d2766577b3f,66fcbb6a30ac4abac8a66007,2024-10-02_04h23.56.463,mdp,2024.2.1,Win32,29.85074627,66fa4ebf79326e780c390304,,,,,,,,,,,,,,,,,,,,,307.4062,307.4063,307.4088,308.3246,0,0,left,0.3794,,308.3267,308.3275,,0,,308.3285,308.3293,,0,,1,308.3293,308.3293,308.33,309.8274,0,8,8,8,1,0.8,0.2,0.4,0.6,1,0,,,,,,,,,,,,,,,,,,,,,,,,,,,,,,,,,,,,
,,66a2d042a6eb6d2766577b3f,66fcbb6a30ac4abac8a66007,2024-10-02_04h23.56.463,mdp,2024.2.1,Win32,29.85074627,66fa4ebf79326e780c390304,,,,,,,,,,,,,,,,,,,,,309.8284,309.8285,309.8308,310.8085,0,0,left,0.4645,,310.811,310.8121,,0,,310.8129,310.8139,,0,,1,310.8139,310.814,310.8149,312.3153,0,9,9,9,1,0.8,0.2,0.4,0.6,1,0,,,,,,,,,,,,,,,,,,,,,,,,,,,,,,,,,,,,
,,66a2d042a6eb6d2766577b3f,66fcbb6a30ac4abac8a66007,2024-10-02_04h23.56.463,mdp,2024.2.1,Win32,29.85074627,66fa4ebf79326e780c390304,,,,,,,,,,,,,,,,,,,,,312.3168,312.3168,312.3194,312.856,0,0,left,0.0245,,312.8571,312.858,,0,,312.859,312.8607,,1,,1,312.8608,312.8608,312.8627,314.3563,0,10,10,10,1,0.8,0.2,0.4,0.6,1,0,,,,,,,,,,,,,,,,,,,,,,,,,,,,,,,,,,,,
,,66a2d042a6eb6d2766577b3f,66fcbb6a30ac4abac8a66007,2024-10-02_04h23.56.463,mdp,2024.2.1,Win32,29.85074627,66fa4ebf79326e780c390304,,,,,,,,,,,,,,,,,,,,,314.3575,314.3575,314.3596,315.2551,0,0,left,0.3696,,315.2582,315.2598,,0,,315.2616,315.2626,,1,,1,315.2626,315.2626,315.2635,316.7724,0,11,11,11,1,0.8,0.2,0.4,0.6,1,0,,,,,,,,,,,,,,,,,,,,,,,,,,,,,,,,,,,,
,,66a2d042a6eb6d2766577b3f,66fcbb6a30ac4abac8a66007,2024-10-02_04h23.56.463,mdp,2024.2.1,Win32,29.85074627,66fa4ebf79326e780c390304,,,,,,,,,,,,,,,,,,,,,316.7731,316.7731,316.7754,317.3411,0,1,left,0.0407,,317.3442,317.3451,,1,,317.3462,317.3473,,1,,0,317.3473,317.3473,317.3484,318.8494,0,12,12,12,1,0.4,0.6,0.8,0.2,1,0,,,,,,,,,,,,,,,,,,,,,,,,,,,,,,,,,,,,
,,66a2d042a6eb6d2766577b3f,66fcbb6a30ac4abac8a66007,2024-10-02_04h23.56.463,mdp,2024.2.1,Win32,29.85074627,66fa4ebf79326e780c390304,,,,,,,,,,,,,,,,,,,,,318.8509,318.851,318.8535,319.7621,0,1,left,0.3948,,319.7646,319.7656,,0,,319.7665,319.7672,,1,,0,319.7673,319.7673,319.7679,321.2612,0,13,13,13,1,0.4,0.6,0.8,0.2,1,0,,,,,,,,,,,,,,,,,,,,,,,,,,,,,,,,,,,,
,,66a2d042a6eb6d2766577b3f,66fcbb6a30ac4abac8a66007,2024-10-02_04h23.56.463,mdp,2024.2.1,Win32,29.85074627,66fa4ebf79326e780c390304,,,,,,,,,,,,,,,,,,,,,321.2623,321.2624,321.2638,321.8229,1,0,right,0.0358,,321.8251,321.8264,,0,,321.8272,321.828,,1,,1,321.828,321.828,321.8288,323.3399,0,14,14,14,1,0.6,0.4,0.4,0.6,1,0,,,,,,,,,,,,,,,,,,,,,,,,,,,,,,,,,,,,
,,66a2d042a6eb6d2766577b3f,66fcbb6a30ac4abac8a66007,2024-10-02_04h23.56.463,mdp,2024.2.1,Win32,29.85074627,66fa4ebf79326e780c390304,,,,,,,,,,,,,,,,,,,,,323.3416,323.3417,323.3443,324.1513,1,0,right,0.2942,,324.1537,324.1557,,1,,324.1576,324.1591,,1,,1,324.1592,324.1592,324.1602,325.6477,0,15,15,15,1,0.6,0.4,0.4,0.6,1,0,,,,,,,,,,,,,,,,,,,,,,,,,,,,,,,,,,,,
,,66a2d042a6eb6d2766577b3f,66fcbb6a30ac4abac8a66007,2024-10-02_04h23.56.463,mdp,2024.2.1,Win32,29.85074627,66fa4ebf79326e780c390304,,,,,,,,,,,,,,,,,,,,,325.6483,325.6484,325.6499,326.4313,1,1,right,0.2641,,326.4338,326.4345,,1,,326.4354,326.4362,,1,,0,326.4362,326.4362,326.4369,327.9275,0,16,16,16,1,0.6,0.4,0.4,0.6,1,0,,,,,,,,,,,,,,,,,,,,,,,,,,,,,,,,,,,,
,,66a2d042a6eb6d2766577b3f,66fcbb6a30ac4abac8a66007,2024-10-02_04h23.56.463,mdp,2024.2.1,Win32,29.85074627,66fa4ebf79326e780c390304,,,,,,,,,,,,,,,,,,,,,327.9289,327.929,327.9313,329.1044,1,1,right,0.6462,,329.1068,329.1077,,1,,329.1086,329.1094,,0,,0,329.1095,329.1095,329.1105,330.6096,0,17,17,17,1,0.6,0.4,0.4,0.6,1,0,,,,,,,,,,,,,,,,,,,,,,,,,,,,,,,,,,,,
,,66a2d042a6eb6d2766577b3f,66fcbb6a30ac4abac8a66007,2024-10-02_04h23.56.463,mdp,2024.2.1,Win32,29.85074627,66fa4ebf79326e780c390304,,,,,,,,,,,,,,,,,,,,,330.6111,330.6111,330.6137,331.5937,1,0,right,0.4327,,331.5964,331.5972,,0,,331.598,331.5987,,0,,1,331.5987,331.5988,331.6,333.0992,0,18,18,18,1,0.4,0.6,0.8,0.2,1,0,,,,,,,,,,,,,,,,,,,,,,,,,,,,,,,,,,,,
,,66a2d042a6eb6d2766577b3f,66fcbb6a30ac4abac8a66007,2024-10-02_04h23.56.463,mdp,2024.2.1,Win32,29.85074627,66fa4ebf79326e780c390304,,,,,,,,,,,,,,,,,,,,,333.1001,333.1001,333.1022,333.9177,1,0,right,0.3042,,333.9201,333.9214,,0,,333.9225,333.9232,,0,,1,333.9233,333.9233,333.924,335.4148,0,19,19,19,1,0.4,0.6,0.8,0.2,1,0,,,,,,,,,,,,,,,,,,,,,,,,,,,,,,,,,,,,
,,66a2d042a6eb6d2766577b3f,66fcbb6a30ac4abac8a66007,2024-10-02_04h23.56.463,mdp,2024.2.1,Win32,29.85074627,66fa4ebf79326e780c390304,,,,,,,,,,,,,,,,,,,,,335.4166,335.4167,335.4191,336.1188,1,0,right,0.1771,,336.1206,336.122,,0,,336.123,336.124,,0,,1,336.124,336.124,336.1253,337.6165,0,20,20,20,1,0.4,0.6,0.8,0.2,1,0,,,,,,,,,,,,,,,,,,,,,,,,,,,,,,,,,,,,
,,66a2d042a6eb6d2766577b3f,66fcbb6a30ac4abac8a66007,2024-10-02_04h23.56.463,mdp,2024.2.1,Win32,29.85074627,66fa4ebf79326e780c390304,,,,,,,,,,,,,,,,,,,,,337.617,337.617,337.6193,338.7618,1,0,right,0.6251,,338.7638,338.7656,,0,,338.7665,338.7674,,0,,1,338.7674,338.7674,338.7683,340.2702,0,21,21,21,1,0.4,0.6,0.8,0.2,1,0,,,,,,,,,,,,,,,,,,,,,,,,,,,,,,,,,,,,
,,66a2d042a6eb6d2766577b3f,66fcbb6a30ac4abac8a66007,2024-10-02_04h23.56.463,mdp,2024.2.1,Win32,29.85074627,66fa4ebf79326e780c390304,,,,,,,,,,,,,,,,,,,,,340.2711,340.2711,340.2732,340.8648,1,0,right,0.0637,,340.867,340.8679,,1,,340.8688,340.8697,,0,,1,340.8697,340.8697,340.8705,342.3481,0,22,22,22,1,0.4,0.6,0.8,0.2,1,0,,,,,,,,,,,,,,,,,,,,,,,,,,,,,,,,,,,,
,,66a2d042a6eb6d2766577b3f,66fcbb6a30ac4abac8a66007,2024-10-02_04h23.56.463,mdp,2024.2.1,Win32,29.85074627,66fa4ebf79326e780c390304,,,,,,,,,,,,,,,,,,,,,342.3489,342.3489,342.3515,343.0403,1,1,right,0.1548,,343.0429,343.0438,,1,,343.0447,343.0456,,1,,0,343.0456,343.0456,343.0464,344.5426,0,23,23,23,1,0.8,0.2,0.2,0.8,1,0,,,,,,,,,,,,,,,,,,,,,,,,,,,,,,,,,,,,
,,66a2d042a6eb6d2766577b3f,66fcbb6a30ac4abac8a66007,2024-10-02_04h23.56.463,mdp,2024.2.1,Win32,29.85074627,66fa4ebf79326e780c390304,,,,,,,,,,,,,,,,,,,,,344.5434,344.5434,344.5456,345.3296,0,0,left,0.2708,,345.3318,345.3329,,1,,345.3337,345.3345,,1,,1,345.3345,345.3345,345.3352,346.8275,0,24,24,24,1,0.8,0.2,0.2,0.8,1,0,,,,,,,,,,,,,,,,,,,,,,,,,,,,,,,,,,,,
,,66a2d042a6eb6d2766577b3f,66fcbb6a30ac4abac8a66007,2024-10-02_04h23.56.463,mdp,2024.2.1,Win32,29.85074627,66fa4ebf79326e780c390304,,,,,,,,,,,,,,,,,,,,,346.8284,346.8284,346.8301,347.8305,0,1,left,0.4648,,347.832,347.8332,,0,,347.8342,347.8349,,1,,0,347.835,347.835,347.8359,349.3222,0,25,25,25,1,0.8,0.2,0.2,0.8,1,0,,,,,,,,,,,,,,,,,,,,,,,,,,,,,,,,,,,,
,,66a2d042a6eb6d2766577b3f,66fcbb6a30ac4abac8a66007,2024-10-02_04h23.56.463,mdp,2024.2.1,Win32,29.85074627,66fa4ebf79326e780c390304,,,,,,,,,,,,,,,,,,,,,349.3229,349.323,349.3245,350.2085,1,1,right,0.3576,,350.2107,350.2116,,1,,350.2124,350.213,,0,,0,350.2132,350.2132,350.2138,351.7135,0,26,26,26,1,0.8,0.2,0.2,0.8,1,0,,,,,,,,,,,,,,,,,,,,,,,,,,,,,,,,,,,,
,,66a2d042a6eb6d2766577b3f,66fcbb6a30ac4abac8a66007,2024-10-02_04h23.56.463,mdp,2024.2.1,Win32,29.85074627,66fa4ebf79326e780c390304,,,,,,,,,,,,,,,,,,,,,351.7145,351.7145,351.7168,352.7873,1,0,right,0.5431,,352.7897,352.791,,0,,352.7921,352.7931,,1,,1,352.7932,352.7932,352.7939,354.2832,0,27,27,27,1,0.6,0.4,0.4,0.6,1,0,,,,,,,,,,,,,,,,,,,,,,,,,,,,,,,,,,,,
,,66a2d042a6eb6d2766577b3f,66fcbb6a30ac4abac8a66007,2024-10-02_04h23.56.463,mdp,2024.2.1,Win32,29.85074627,66fa4ebf79326e780c390304,,,,,,,,,,,,,,,,,,,,,354.2839,354.2839,354.2856,355.2563,1,0,right,0.4179,,355.2591,355.26,,0,,355.2609,355.2617,,0,,1,355.2618,355.2618,355.2626,356.7577,0,28,28,28,1,0.6,0.4,0.4,0.6,1,0,,,,,,,,,,,,,,,,,,,,,,,,,,,,,,,,,,,,
,,66a2d042a6eb6d2766577b3f,66fcbb6a30ac4abac8a66007,2024-10-02_04h23.56.463,mdp,2024.2.1,Win32,29.85074627,66fa4ebf79326e780c390304,,,,,,,,,,,,,,,,,,,,,356.7591,356.7592,356.7616,357.6102,1,0,right,0.3332,,357.6125,357.6139,,1,,357.6149,357.6158,,1,,1,357.6158,357.6158,357.6166,359.1064,0,29,29,29,1,0.6,0.4,0.4,0.6,1,0,,,,,,,,,,,,,,,,,,,,,,,,,,,,,,,,,,,,
,,66a2d042a6eb6d2766577b3f,66fcbb6a30ac4abac8a66007,2024-10-02_04h23.56.463,mdp,2024.2.1,Win32,29.85074627,66fa4ebf79326e780c390304,,,,,,,,,,,,,,,,,,,,,359.1073,359.1073,359.1089,359.9314,1,0,right,0.2888,,359.9335,359.9345,,0,,359.9357,359.9366,,0,,1,359.9367,359.9367,359.9375,361.4164,0,30,30,30,1,0.8,0.2,0.8,0.2,1,0,,,,,,,,,,,,,,,,,,,,,,,,,,,,,,,,,,,,
,,66a2d042a6eb6d2766577b3f,66fcbb6a30ac4abac8a66007,2024-10-02_04h23.56.463,mdp,2024.2.1,Win32,29.85074627,66fa4ebf79326e780c390304,,,,,,,,,,,,,,,,,,,,,361.4182,361.4183,361.4202,361.9968,1,1,right,0.0637,,361.9997,362.0014,,1,,362.0029,362.0039,,1,,0,362.004,362.004,362.0052,363.4919,0,31,31,31,1,0.6,0.4,0.2,0.8,1,0,,,,,,,,,,,,,,,,,,,,,,,,,,,,,,,,,,,,
,,66a2d042a6eb6d2766577b3f,66fcbb6a30ac4abac8a66007,2024-10-02_04h23.56.463,mdp,2024.2.1,Win32,29.85074627,66fa4ebf79326e780c390304,,,,,,,,,,,,,,,,,,,,,363.4926,363.4926,363.4947,364.5435,1,1,right,0.5281,,364.5447,364.5454,,1,,364.5464,364.5478,,1,,0,364.5479,364.548,364.5498,366.0465,0,32,32,32,1,0.6,0.4,0.2,0.8,1,0,,,,,,,,,,,,,,,,,,,,,,,,,,,,,,,,,,,,
,,66a2d042a6eb6d2766577b3f,66fcbb6a30ac4abac8a66007,2024-10-02_04h23.56.463,mdp,2024.2.1,Win32,29.85074627,66fa4ebf79326e780c390304,,,,,,,,,,,,,,,,,,,,,366.0481,366.0481,366.0511,366.9562,1,1,right,0.3722,,366.9573,366.9581,,1,,366.9591,366.9608,,1,,0,366.9608,366.9608,366.9628,368.4505,0,33,33,33,1,0.6,0.4,0.2,0.8,1,0,,,,,,,,,,,,,,,,,,,,,,,,,,,,,,,,,,,,
,,66a2d042a6eb6d2766577b3f,66fcbb6a30ac4abac8a66007,2024-10-02_04h23.56.463,mdp,2024.2.1,Win32,29.85074627,66fa4ebf79326e780c390304,,,,,,,,,,,,,,,,,,,,,368.4511,368.4511,368.4536,381.3374,0,1,left,12.3717,,381.34,381.3411,,1,,381.3419,381.3427,,1,,0,381.3427,381.3427,381.3433,382.8392,0,34,34,34,1,0.6,0.4,0.2,0.8,1,0,,,,,,,,,,,,,,,,,,,,,,,,,,,,,,,,,,,,
,,66a2d042a6eb6d2766577b3f,66fcbb6a30ac4abac8a66007,2024-10-02_04h23.56.463,mdp,2024.2.1,Win32,29.85074627,66fa4ebf79326e780c390304,,,,,,,,,,,,,,,,,,,,,382.8397,382.8397,382.8421,383.6661,0,0,left,0.2939,,383.6686,383.6696,,0,,383.6708,383.6717,,0,,1,383.6717,383.6717,383.6728,385.1652,0,35,35,35,1,0.6,0.4,0.2,0.8,1,0,,,,,,,,,,,,,,,,,,,,,,,,,,,,,,,,,,,,
,,66a2d042a6eb6d2766577b3f,66fcbb6a30ac4abac8a66007,2024-10-02_04h23.56.463,mdp,2024.2.1,Win32,29.85074627,66fa4ebf79326e780c390304,,,,,,,,,,,,,,,,,,,,,385.1662,385.1663,385.1675,386.8803,0,0,left,1.1904,,386.8825,386.8836,,0,,386.8845,386.8854,,0,,1,386.8854,386.8854,386.8861,388.389,0,36,36,36,1,0.8,0.2,0.6,0.4,1,0,,,,,,,,,,,,,,,,,,,,,,,,,,,,,,,,,,,,
,,66a2d042a6eb6d2766577b3f,66fcbb6a30ac4abac8a66007,2024-10-02_04h23.56.463,mdp,2024.2.1,Win32,29.85074627,66fa4ebf79326e780c390304,,,,,,,,,,,,,,,,,,,,,388.3901,388.3901,388.3918,389.6367,0,0,left,0.7096,,389.6394,389.6403,,0,,389.6413,389.6424,,0,,1,389.6425,389.6425,389.6434,391.1215,0,37,37,37,1,0.8,0.2,0.6,0.4,1,0,,,,,,,,,,,,,,,,,,,,,,,,,,,,,,,,,,,,
,,66a2d042a6eb6d2766577b3f,66fcbb6a30ac4abac8a66007,2024-10-02_04h23.56.463,mdp,2024.2.1,Win32,29.85074627,66fa4ebf79326e780c390304,,,,,,,,,,,,,,,,,,,,,391.1236,391.1237,391.1253,391.9011,0,1,left,0.2493,,391.9031,391.9038,,1,,391.9047,391.9055,,1,,0,391.9055,391.9055,391.9063,393.4011,0,38,38,38,1,0.2,0.8,0.8,0.2,1,0,,,,,,,,,,,,,,,,,,,,,,,,,,,,,,,,,,,,
,,66a2d042a6eb6d2766577b3f,66fcbb6a30ac4abac8a66007,2024-10-02_04h23.56.463,mdp,2024.2.1,Win32,29.85074627,66fa4ebf79326e780c390304,,,,,,,,,,,,,,,,,,,,,393.4025,393.4025,393.405,394.2772,1,1,right,0.3601,,394.2795,394.2802,,0,,394.2813,394.282,,1,,0,394.2821,394.2821,394.2827,395.7811,0,39,39,39,1,0.2,0.8,0.8,0.2,1,0,,,,,,,,,,,,,,,,,,,,,,,,,,,,,,,,,,,,
,,66a2d042a6eb6d2766577b3f,66fcbb6a30ac4abac8a66007,2024-10-02_04h23.56.463,mdp,2024.2.1,Win32,29.85074627,66fa4ebf79326e780c390304,,,,,,,,,,,,,,,,,,,,,395.7821,395.7821,395.785,396.8083,1,0,right,0.4921,,396.8106,396.8116,,0,,396.8129,396.8137,,0,,1,396.8138,396.8139,396.815,398.3073,0,40,40,40,1,0.2,0.8,0.8,0.2,1,0,,,,,,,,,,,,,,,,,,,,,,,,,,,,,,,,,,,,
,,66a2d042a6eb6d2766577b3f,66fcbb6a30ac4abac8a66007,2024-10-02_04h23.56.463,mdp,2024.2.1,Win32,29.85074627,66fa4ebf79326e780c390304,,,,,,,,,,,,,,,,,,,,,398.3078,398.3078,398.3097,399.0465,1,1,right,0.2207,,399.0489,399.0497,,1,,399.0505,399.0512,,0,,0,399.0512,399.0512,399.0521,400.547,0,41,41,41,1,0.2,0.8,0.8,0.2,1,0,,,,,,,,,,,,,,,,,,,,,,,,,,,,,,,,,,,,
,,66a2d042a6eb6d2766577b3f,66fcbb6a30ac4abac8a66007,2024-10-02_04h23.56.463,mdp,2024.2.1,Win32,29.85074627,66fa4ebf79326e780c390304,,,,,,,,,,,,,,,,,,,,,400.5479,400.548,400.5493,401.3205,0,1,left,0.2404,,401.3221,401.3234,,0,,401.326,401.327,,1,,0,401.327,401.327,401.3285,402.8271,0,42,42,42,1,0.2,0.8,0.8,0.2,1,0,,,,,,,,,,,,,,,,,,,,,,,,,,,,,,,,,,,,
,,66a2d042a6eb6d2766577b3f,66fcbb6a30ac4abac8a66007,2024-10-02_04h23.56.463,mdp,2024.2.1,Win32,29.85074627,66fa4ebf79326e780c390304,,,,,,,,,,,,,,,,,,,,,402.828,402.828,402.8292,403.5553,0,1,left,0.1878,,403.5566,403.5574,,0,,403.5584,403.5595,,1,,0,403.5595,403.5595,403.5605,405.0627,0,43,43,43,1,0.2,0.8,0.8,0.2,1,0,,,,,,,,,,,,,,,,,,,,,,,,,,,,,,,,,,,,
,,66a2d042a6eb6d2766577b3f,66fcbb6a30ac4abac8a66007,2024-10-02_04h23.56.463,mdp,2024.2.1,Win32,29.85074627,66fa4ebf79326e780c390304,,,,,,,,,,,,,,,,,,,,,405.0639,405.064,405.0664,407.9145,0,1,left,2.323,,407.917,407.9179,,1,,407.9188,407.9196,,0,,0,407.9197,407.9197,407.9208,409.4088,0,44,44,44,1,0.2,0.8,0.8,0.2,1,0,,,,,,,,,,,,,,,,,,,,,,,,,,,,,,,,,,,,
,,66a2d042a6eb6d2766577b3f,66fcbb6a30ac4abac8a66007,2024-10-02_04h23.56.463,mdp,2024.2.1,Win32,29.85074627,66fa4ebf79326e780c390304,,,,,,,,,,,,,,,,,,,,,409.4103,409.4104,409.4126,410.4077,1,0,right,0.4787,,410.41,410.4109,,1,,410.412,410.413,,0,,1,410.413,410.413,410.4139,411.9224,0,45,45,45,1,0.2,0.8,0.8,0.2,1,0,,,,,,,,,,,,,,,,,,,,,,,,,,,,,,,,,,,,
,,66a2d042a6eb6d2766577b3f,66fcbb6a30ac4abac8a66007,2024-10-02_04h23.56.463,mdp,2024.2.1,Win32,29.85074627,66fa4ebf79326e780c390304,,,,,,,,,,,,,,,,,,,,,411.923,411.923,411.9253,414.083,1,1,right,1.6403,,414.0858,414.0868,,0,,414.088,414.089,,0,,0,414.089,414.0891,414.0907,415.5674,0,46,46,46,1,0.6,0.4,0.4,0.6,1,0,,,,,,,,,,,,,,,,,,,,,,,,,,,,,,,,,,,,
,,66a2d042a6eb6d2766577b3f,66fcbb6a30ac4abac8a66007,2024-10-02_04h23.56.463,mdp,2024.2.1,Win32,29.85074627,66fa4ebf79326e780c390304,,,,,,,,,,,,,,,,,,,,,415.568,415.568,415.5695,416.3179,1,1,right,0.2204,,416.3204,416.3214,,1,,416.3226,416.3234,,1,,0,416.3235,416.3235,416.3244,417.8209,0,47,47,47,1,0.6,0.4,0.4,0.6,1,0,,,,,,,,,,,,,,,,,,,,,,,,,,,,,,,,,,,,
,,66a2d042a6eb6d2766577b3f,66fcbb6a30ac4abac8a66007,2024-10-02_04h23.56.463,mdp,2024.2.1,Win32,29.85074627,66fa4ebf79326e780c390304,,,,,,,,,,,,,,,,,,,,,417.8214,417.8214,417.8236,418.4627,1,0,right,0.109,,418.4655,418.4662,,1,,418.4671,418.4677,,1,,1,418.4677,418.4677,418.4686,419.9558,0,48,48,48,1,0.6,0.4,0.4,0.6,1,0,,,,,,,,,,,,,,,,,,,,,,,,,,,,,,,,,,,,
,,66a2d042a6eb6d2766577b3f,66fcbb6a30ac4abac8a66007,2024-10-02_04h23.56.463,mdp,2024.2.1,Win32,29.85074627,66fa4ebf79326e780c390304,,,,,,,,,,,,,,,,,,,,,419.9567,419.9568,419.9589,420.5031,1,1,right,0.0232,,420.5049,420.5058,,1,,420.5074,420.5092,,1,,0,420.5093,420.5093,420.511,421.9987,0,49,49,49,1,0.6,0.4,0.4,0.6,1,0,,,,,,,,,,,,,,,,,,,,,,,,,,,,,,,,,,,,
,,66a2d042a6eb6d2766577b3f,66fcbb6a30ac4abac8a66007,2024-10-02_04h23.56.463,mdp,2024.2.1,Win32,29.85074627,66fa4ebf79326e780c390304,,,,,,,,,,,,,,,,,,,,,,,,,,,,,,,,,,,,,,,,,,,,,,,,,,,,,,,,421.9994,480.5337,0,0,0,8,1,imgs/dog.png,imgs/goat.png,imgs/elephant.png,imgs/rabbit.png,imgs/kangaroo.png,,,,,,,,,,,,,,,,,,,,,,,,
,,66a2d042a6eb6d2766577b3f,66fcbb6a30ac4abac8a66007,2024-10-02_04h23.56.463,mdp,2024.2.1,Win32,29.85074627,66fa4ebf79326e780c390304,,,,,,,,,,,,,,2,seqs/st2seq17.csv,480.5352,482.715,space,1.6462,,482.7246,482.7246,482.7257,485.1388,1,0,right,1.8618,,485.1412,486.5978,1,0,right,486.6001,486.6009,,1,,1,486.601,486.601,486.6019,488.0934,0,0,0,0,1,0.8,0.2,0.4,0.6,,,,,,,,,,,,,,,0.9062,,0.8,0.2,0.4,0.6,0.4,0.6,0.2,0.8,1,0,,,,,,,,,,,,
,,66a2d042a6eb6d2766577b3f,66fcbb6a30ac4abac8a66007,2024-10-02_04h23.56.463,mdp,2024.2.1,Win32,29.85074627,66fa4ebf79326e780c390304,,,,,,,,,,,,,,,,,,,,,488.0943,488.0943,488.0968,489.3705,1,0,right,0.7519,,489.3728,490.4713,1,1,right,490.4737,490.4752,,0,,0,490.4752,490.4752,490.4761,491.9686,0,1,1,1,1,0.8,0.2,0.4,0.6,,,,,,,,,,,,,,,0.5628,,0.8,0.2,0.4,0.6,0.4,0.6,0.2,0.8,1,0,,,,,,,,,,,,
,,66a2d042a6eb6d2766577b3f,66fcbb6a30ac4abac8a66007,2024-10-02_04h23.56.463,mdp,2024.2.1,Win32,29.85074627,66fa4ebf79326e780c390304,,,,,,,,,,,,,,,,,,,,,491.9695,491.9695,491.9711,492.8641,1,1,right,0.3585,,492.8657,494.269,0,1,left,494.2713,494.2722,,1,,0,494.2722,494.2722,494.2731,495.7669,0,2,2,2,1,0.8,0.2,0.4,0.6,,,,,,,,,,,,,,,0.8616,,0.8,0.2,0.4,0.6,0.4,0.6,0.2,0.8,1,0,,,,,,,,,,,,
,,66a2d042a6eb6d2766577b3f,66fcbb6a30ac4abac8a66007,2024-10-02_04h23.56.463,mdp,2024.2.1,Win32,29.85074627,66fa4ebf79326e780c390304,,,,,,,,,,,,,,,,,,,,,495.7677,495.7678,495.7703,496.5112,1,1,right,0.2135,,496.5127,497.5397,0,1,left,497.5408,497.5414,,0,,0,497.5415,497.5415,497.5424,499.0427,0,3,3,3,1,0.8,0.2,0.4,0.6,,,,,,,,,,,,,,,0.4741,,0.8,0.2,0.4,0.6,0.4,0.6,0.2,0.8,1,0,,,,,,,,,,,,
,,66a2d042a6eb6d2766577b3f,66fcbb6a30ac4abac8a66007,2024-10-02_04h23.56.463,mdp,2024.2.1,Win32,29.85074627,66fa4ebf79326e780c390304,,,,,,,,,,,,,,,,,,,,,499.0443,499.0444,499.047,500.3947,0,0,left,0.8208,,500.397,501.9213,0,0,left,501.9237,501.9244,,1,,1,501.9245,501.9245,501.9253,503.4173,0,4,4,4,1,0.8,0.2,0.4,0.6,,,,,,,,,,,,,,,0.9768,,0.8,0.2,0.4,0.6,0.4,0.6,0.2,0.8,1,0,,,,,,,,,,,,
,,66a2d042a6eb6d2766577b3f,66fcbb6a30ac4abac8a66007,2024-10-02_04h23.56.463,mdp,2024.2.1,Win32,29.85074627,66fa4ebf79326e780c390304,,,,,,,,,,,,,,,,,,,,,503.4184,503.4185,503.4197,505.3786,0,0,left,1.4282,,505.3797,506.4242,0,0,left,506.4263,506.4273,,0,,1,506.4273,506.4273,506.4283,507.9305,0,5,5,5,1,0.8,0.2,0.4,0.6,,,,,,,,,,,,,,,0.5034,,0.8,0.2,0.4,0.6,0.4,0.6,0.2,0.8,1,0,,,,,,,,,,,,
,,66a2d042a6eb6d2766577b3f,66fcbb6a30ac4abac8a66007,2024-10-02_04h23.56.463,mdp,2024.2.1,Win32,29.85074627,66fa4ebf79326e780c390304,,,,,,,,,,,,,,,,,,,,,507.9313,507.9314,507.9338,508.8512,0,0,left,0.4061,,508.8532,510.1966,0,1,left,510.1995,510.2007,,1,,0,510.2007,510.2007,510.2022,511.6893,0,6,6,6,1,0.8,0.2,0.4,0.6,,,,,,,,,,,,,,,0.8097,,0.8,0.2,0.4,0.6,0.4,0.6,0.2,0.8,1,0,,,,,,,,,,,,
,,66a2d042a6eb6d2766577b3f,66fcbb6a30ac4abac8a66007,2024-10-02_04h23.56.463,mdp,2024.2.1,Win32,29.85074627,66fa4ebf79326e780c390304,,,,,,,,,,,,,,,,,,,,,511.6902,511.6902,511.6916,512.59,0,0,left,0.3635,,512.5921,514.0743,0,0,left,514.0763,514.0772,,1,,1,514.0772,514.0772,514.078,515.5816,0,7,7,7,1,0.8,0.2,0.4,0.6,,,,,,,,,,,,,,,0.9695,,0.8,0.2,0.4,0.6,0.4,0.6,0.2,0.8,1,0,,,,,,,,,,,,
,,66a2d042a6eb6d2766577b3f,66fcbb6a30ac4abac8a66007,2024-10-02_04h23.56.463,mdp,2024.2.1,Win32,29.85074627,66fa4ebf79326e780c390304,,,,,,,,,,,,,,,,,,,,,515.5825,515.5825,515.5838,516.3546,0,0,left,0.2352,,516.3556,517.8012,0,1,left,517.8037,517.8047,,0,,0,517.8048,517.8048,517.8056,519.3012,0,8,8,8,1,0.8,0.2,0.4,0.6,,,,,,,,,,,,,,,0.9005,,0.8,0.2,0.4,0.6,0.4,0.6,0.2,0.8,1,0,,,,,,,,,,,,
,,66a2d042a6eb6d2766577b3f,66fcbb6a30ac4abac8a66007,2024-10-02_04h23.56.463,mdp,2024.2.1,Win32,29.85074627,66fa4ebf79326e780c390304,,,,,,,,,,,,,,,,,,,,,519.3018,519.3018,519.3041,520.3632,0,0,left,0.5234,,520.3652,521.6786,1,0,right,521.681,521.6818,,0,,1,521.6818,521.6818,521.6828,523.185,0,9,9,9,1,0.8,0.2,0.4,0.6,,,,,,,,,,,,,,,0.7836,,0.8,0.2,0.4,0.6,0.2,0.8,0.6,0.4,1,0,,,,,,,,,,,,
,,66a2d042a6eb6d2766577b3f,66fcbb6a30ac4abac8a66007,2024-10-02_04h23.56.463,mdp,2024.2.1,Win32,29.85074627,66fa4ebf79326e780c390304,,,,,,,,,,,,,,,,,,,,,523.1866,523.1866,523.189,523.9359,0,0,left,0.2271,,523.9383,524.8365,1,1,right,524.8391,524.8401,,1,,0,524.8402,524.8402,524.8411,526.344,0,10,10,10,1,0.8,0.2,0.4,0.6,,,,,,,,,,,,,,,0.3534,,0.8,0.2,0.4,0.6,0.2,0.8,0.6,0.4,1,0,,,,,,,,,,,,
,,66a2d042a6eb6d2766577b3f,66fcbb6a30ac4abac8a66007,2024-10-02_04h23.56.463,mdp,2024.2.1,Win32,29.85074627,66fa4ebf79326e780c390304,,,,,,,,,,,,,,,,,,,,,526.3448,526.3448,526.3472,527.0777,0,0,left,0.1862,,527.0791,528.3794,0,0,left,528.3818,528.3827,,0,,1,528.3827,528.3827,528.3837,529.8788,0,11,11,11,1,0.8,0.2,0.4,0.6,,,,,,,,,,,,,,,0.7756,,0.8,0.2,0.4,0.6,0.2,0.8,0.6,0.4,1,0,,,,,,,,,,,,
,,66a2d042a6eb6d2766577b3f,66fcbb6a30ac4abac8a66007,2024-10-02_04h23.56.463,mdp,2024.2.1,Win32,29.85074627,66fa4ebf79326e780c390304,,,,,,,,,,,,,,,,,,,,,529.8803,529.8803,529.883,530.6997,0,0,left,0.3028,,530.7018,531.5545,0,0,left,531.5568,531.558,,0,,1,531.558,531.558,531.5588,533.0663,0,12,12,12,1,0.8,0.2,0.4,0.6,,,,,,,,,,,,,,,0.341,,0.8,0.2,0.4,0.6,0.2,0.8,0.6,0.4,1,0,,,,,,,,,,,,
,,66a2d042a6eb6d2766577b3f,66fcbb6a30ac4abac8a66007,2024-10-02_04h23.56.463,mdp,2024.2.1,Win32,29.85074627,66fa4ebf79326e780c390304,,,,,,,,,,,,,,,,,,,,,533.0671,533.0671,533.0695,534.1108,0,0,left,0.5084,,534.1136,534.9509,0,0,left,534.9532,534.9541,,0,,1,534.9542,534.9542,534.955,536.4514,0,13,13,13,1,0.8,0.2,0.4,0.6,,,,,,,,,,,,,,,0.302,,0.8,0.2,0.4,0.6,0.2,0.8,0.6,0.4,1,0,,,,,,,,,,,,
,,66a2d042a6eb6d2766577b3f,66fcbb6a30ac4abac8a66007,2024-10-02_04h23.56.463,mdp,2024.2.1,Win32,29.85074627,66fa4ebf79326e780c390304,,,,,,,,,,,,,,,,,,,,,536.4528,536.4529,536.4554,537.0145,0,0,left,0.0375,,537.0169,538.0836,0,0,left,538.0857,538.0864,,0,,1,538.0865,538.0865,538.0873,539.5656,0,14,14,14,1,0.8,0.2,0.4,0.6,,,,,,,,,,,,,,,0.5408,,0.8,0.2,0.4,0.6,0.4,0.6,0.4,0.6,1,0,,,,,,,,,,,,
,,66a2d042a6eb6d2766577b3f,66fcbb6a30ac4abac8a66007,2024-10-02_04h23.56.463,mdp,2024.2.1,Win32,29.85074627,66fa4ebf79326e780c390304,,,,,,,,,,,,,,,,,,,,,539.5671,539.5671,539.5696,540.4399,0,1,left,0.3386,,540.4415,541.3328,1,1,right,541.3356,541.3364,,0,,0,541.3365,541.3365,541.3374,542.8378,0,15,15,15,1,0.6,0.4,0.6,0.4,,,,,,,,,,,,,,,0.3313,,0.8,0.2,0.4,0.6,0.4,0.6,0.4,0.6,1,0,,,,,,,,,,,,
,,66a2d042a6eb6d2766577b3f,66fcbb6a30ac4abac8a66007,2024-10-02_04h23.56.463,mdp,2024.2.1,Win32,29.85074627,66fa4ebf79326e780c390304,,,,,,,,,,,,,,,,,,,,,542.8384,542.8384,542.8409,543.4005,0,1,left,0.0154,,543.4023,544.7368,1,0,right,544.7379,544.7387,,0,,1,544.7387,544.7387,544.7396,546.249,0,16,16,16,1,0.6,0.4,0.6,0.4,,,,,,,,,,,,,,,0.8124,,0.8,0.2,0.4,0.6,0.4,0.6,0.4,0.6,1,0,,,,,,,,,,,,
,,66a2d042a6eb6d2766577b3f,66fcbb6a30ac4abac8a66007,2024-10-02_04h23.56.463,mdp,2024.2.1,Win32,29.85074627,66fa4ebf79326e780c390304,,,,,,,,,,,,,,,,,,,,,546.2507,546.2508,546.2538,547.2437,0,1,left,0.4496,,547.2451,548.3514,1,1,right,548.3534,548.3541,,0,,0,548.3542,548.3542,548.355,549.8503,0,17,17,17,1,0.6,0.4,0.6,0.4,,,,,,,,,,,,,,,0.5851,,0.4,0.6,0.8,0.2,0.4,0.6,0.4,0.6,1,0,,,,,,,,,,,,
,,66a2d042a6eb6d2766577b3f,66fcbb6a30ac4abac8a66007,2024-10-02_04h23.56.463,mdp,2024.2.1,Win32,29.85074627,66fa4ebf79326e780c390304,,,,,,,,,,,,,,,,,,,,,549.8511,549.8511,549.8534,550.8004,0,0,left,0.4175,,550.8029,551.7158,0,1,left,551.7174,551.7183,,1,,0,551.7184,551.7184,551.7194,553.2147,0,18,18,18,1,0.6,0.4,0.6,0.4,,,,,,,,,,,,,,,0.3795,,0.4,0.6,0.8,0.2,0.4,0.6,0.4,0.6,1,0,,,,,,,,,,,,
,,66a2d042a6eb6d2766577b3f,66fcbb6a30ac4abac8a66007,2024-10-02_04h23.56.463,mdp,2024.2.1,Win32,29.85074627,66fa4ebf79326e780c390304,,,,,,,,,,,,,,,,,,,,,553.2158,553.2158,553.2171,553.9216,1,1,right,0.1718,,553.9238,554.7779,1,1,right,554.7807,554.7815,,1,,0,554.7815,554.7815,554.7823,556.2845,0,19,19,19,1,0.6,0.4,0.6,0.4,,,,,,,,,,,,,,,0.3114,,0.4,0.6,0.8,0.2,0.4,0.6,0.4,0.6,1,0,,,,,,,,,,,,
,,66a2d042a6eb6d2766577b3f,66fcbb6a30ac4abac8a66007,2024-10-02_04h23.56.463,mdp,2024.2.1,Win32,29.85074627,66fa4ebf79326e780c390304,,,,,,,,,,,,,,,,,,,,,556.2855,556.2856,556.2881,557.2124,1,0,right,0.3994,,557.2149,558.055,0,0,left,558.0562,558.0568,,1,,1,558.0569,558.0569,558.0578,559.5371,0,20,20,20,1,0.6,0.4,0.6,0.4,,,,,,,,,,,,,,,0.301,,0.4,0.6,0.8,0.2,0.4,0.6,0.4,0.6,1,0,,,,,,,,,,,,
,,66a2d042a6eb6d2766577b3f,66fcbb6a30ac4abac8a66007,2024-10-02_04h23.56.463,mdp,2024.2.1,Win32,29.85074627,66fa4ebf79326e780c390304,,,,,,,,,,,,,,,,,,,,,559.5389,559.5389,559.541,560.6071,1,1,right,0.5214,,560.6087,561.2965,0,1,left,561.2981,561.2989,,1,,0,561.299,561.299,561.2998,562.7804,0,21,21,21,1,0.6,0.4,0.6,0.4,,,,,,,,,,,,,,,0.1538,,0.6,0.4,0.4,0.6,0.4,0.6,0.4,0.6,1,0,,,,,,,,,,,,
,,66a2d042a6eb6d2766577b3f,66fcbb6a30ac4abac8a66007,2024-10-02_04h23.56.463,mdp,2024.2.1,Win32,29.85074627,66fa4ebf79326e780c390304,,,,,,,,,,,,,,,,,,,,,562.7814,562.7815,562.7827,563.5274,0,0,left,0.2128,,563.5299,564.2214,1,0,right,564.223,564.2238,,1,,1,564.2238,564.2238,564.2247,565.7175,0,22,22,22,1,0.6,0.4,0.6,0.4,,,,,,,,,,,,,,,0.1524,,0.6,0.4,0.4,0.6,0.6,0.4,0.2,0.8,1,0,,,,,,,,,,,,
,,66a2d042a6eb6d2766577b3f,66fcbb6a30ac4abac8a66007,2024-10-02_04h23.56.463,mdp,2024.2.1,Win32,29.85074627,66fa4ebf79326e780c390304,,,,,,,,,,,,,,,,,,,,,565.7182,565.7182,565.7207,566.6276,0,0,left,0.3958,,566.6297,567.5312,1,0,right,567.5337,567.5344,,0,,1,567.5345,567.5345,567.5353,569.0419,0,23,23,23,1,0.6,0.4,0.6,0.4,,,,,,,,,,,,,,,0.3777,,0.4,0.6,0.8,0.2,0.6,0.4,0.2,0.8,1,0,,,,,,,,,,,,
,,66a2d042a6eb6d2766577b3f,66fcbb6a30ac4abac8a66007,2024-10-02_04h23.56.463,mdp,2024.2.1,Win32,29.85074627,66fa4ebf79326e780c390304,,,,,,,,,,,,,,,,,,,,,569.0425,569.0425,569.0452,569.7141,0,0,left,0.1349,,569.7166,570.4309,1,1,right,570.4324,570.4332,,0,,0,570.4332,570.4332,570.4344,571.9329,0,24,24,24,1,0.6,0.4,0.6,0.4,,,,,,,,,,,,,,,0.182,,0.4,0.6,0.8,0.2,0.6,0.4,0.2,0.8,1,0,,,,,,,,,,,,
,,66a2d042a6eb6d2766577b3f,66fcbb6a30ac4abac8a66007,2024-10-02_04h23.56.463,mdp,2024.2.1,Win32,29.85074627,66fa4ebf79326e780c390304,,,,,,,,,,,,,,,,,,,,,571.9338,571.9338,571.9363,573.207,1,0,right,0.739,,573.2095,573.9431,1,1,right,573.9448,573.9463,,0,,0,573.9465,573.9465,573.9478,575.441,0,25,25,25,1,0.6,0.4,0.6,0.4,,,,,,,,,,,,,,,0.213,,0.2,0.8,0.6,0.4,0.6,0.4,0.2,0.8,1,0,,,,,,,,,,,,
,,66a2d042a6eb6d2766577b3f,66fcbb6a30ac4abac8a66007,2024-10-02_04h23.56.463,mdp,2024.2.1,Win32,29.85074627,66fa4ebf79326e780c390304,,,,,,,,,,,,,,,,,,,,,575.4428,575.4429,575.4452,576.4176,0,0,left,0.4611,,576.4188,577.3529,0,1,left,577.3554,577.3562,,1,,0,577.3564,577.3564,577.3572,578.8515,0,26,26,26,1,0.6,0.4,0.6,0.4,,,,,,,,,,,,,,,0.4028,,0.2,0.8,0.6,0.4,0.6,0.4,0.2,0.8,1,0,,,,,,,,,,,,
,,66a2d042a6eb6d2766577b3f,66fcbb6a30ac4abac8a66007,2024-10-02_04h23.56.463,mdp,2024.2.1,Win32,29.85074627,66fa4ebf79326e780c390304,,,,,,,,,,,,,,,,,,,,,578.8522,578.8523,578.8548,579.7068,0,0,left,0.3356,,579.7092,580.852,1,0,right,580.8539,580.855,,0,,1,580.8552,580.8552,580.8562,582.3457,0,27,27,27,1,0.6,0.4,0.6,0.4,,,,,,,,,,,,,,,0.6148,,0.2,0.8,0.6,0.4,0.6,0.4,0.2,0.8,1,0,,,,,,,,,,,,
,,66a2d042a6eb6d2766577b3f,66fcbb6a30ac4abac8a66007,2024-10-02_04h23.56.463,mdp,2024.2.1,Win32,29.85074627,66fa4ebf79326e780c390304,,,,,,,,,,,,,,,,,,,,,582.3475,582.3475,582.3498,583.1866,0,1,left,0.3246,,583.1891,584.5367,0,0,left,584.5383,584.539,,1,,1,584.539,584.539,584.5398,586.0299,0,28,28,28,1,0.6,0.4,0.6,0.4,,,,,,,,,,,,,,,0.809,,0.2,0.8,0.6,0.4,0.6,0.4,0.2,0.8,1,0,,,,,,,,,,,,
,,66a2d042a6eb6d2766577b3f,66fcbb6a30ac4abac8a66007,2024-10-02_04h23.56.463,mdp,2024.2.1,Win32,29.85074627,66fa4ebf79326e780c390304,,,,,,,,,,,,,,,,,,,,,586.0311,586.0312,586.033,586.9165,0,1,left,0.3492,,586.9181,587.6126,1,0,right,587.6139,587.615,,1,,1,587.615,587.615,587.6171,589.0935,0,29,29,29,1,0.6,0.4,0.6,0.4,,,,,,,,,,,,,,,0.1604,,0.2,0.8,0.6,0.4,0.6,0.4,0.2,0.8,1,0,,,,,,,,,,,,
,,66a2d042a6eb6d2766577b3f,66fcbb6a30ac4abac8a66007,2024-10-02_04h23.56.463,mdp,2024.2.1,Win32,29.85074627,66fa4ebf79326e780c390304,,,,,,,,,,,,,,,,,,,,,589.0943,589.0943,589.096,589.9939,0,1,left,0.3728,,589.9966,590.7811,1,0,right,590.7837,590.7848,,1,,1,590.7849,590.7849,590.7859,592.2748,0,30,30,30,1,0.2,0.8,0.8,0.2,,,,,,,,,,,,,,,0.2632,,0.2,0.8,0.6,0.4,0.6,0.4,0.2,0.8,1,0,,,,,,,,,,,,
,,66a2d042a6eb6d2766577b3f,66fcbb6a30ac4abac8a66007,2024-10-02_04h23.56.463,mdp,2024.2.1,Win32,29.85074627,66fa4ebf79326e780c390304,,,,,,,,,,,,,,,,,,,,,592.2761,592.2762,592.2781,593.1918,0,1,left,0.3747,,593.1932,593.9041,0,0,left,593.9056,593.9067,,0,,1,593.9068,593.9068,593.9083,595.4083,0,31,31,31,1,0.2,0.8,0.8,0.2,,,,,,,,,,,,,,,0.1787,,0.2,0.8,0.6,0.4,0.6,0.4,0.2,0.8,1,0,,,,,,,,,,,,
,,66a2d042a6eb6d2766577b3f,66fcbb6a30ac4abac8a66007,2024-10-02_04h23.56.463,mdp,2024.2.1,Win32,29.85074627,66fa4ebf79326e780c390304,,,,,,,,,,,,,,,,,,,,,595.4102,595.4103,595.4124,596.16,0,1,left,0.2035,,596.1616,597.1819,0,1,left,597.1849,597.1856,,1,,0,597.1856,597.1856,597.1864,598.6683,0,32,32,32,1,0.2,0.8,0.8,0.2,,,,,,,,,,,,,,,0.5024,,0.2,0.8,0.6,0.4,0.6,0.4,0.2,0.8,1,0,,,,,,,,,,,,
,,66a2d042a6eb6d2766577b3f,66fcbb6a30ac4abac8a66007,2024-10-02_04h23.56.463,mdp,2024.2.1,Win32,29.85074627,66fa4ebf79326e780c390304,,,,,,,,,,,,,,,,,,,,,598.669,598.669,598.671,599.6373,0,0,left,0.4073,,599.6406,600.5755,1,0,right,600.578,600.5789,,1,,1,600.5789,600.5789,600.5797,602.0737,0,33,33,33,1,0.2,0.8,0.8,0.2,,,,,,,,,,,,,,,0.3929,,0.2,0.8,0.6,0.4,0.6,0.4,0.2,0.8,1,0,,,,,,,,,,,,
,,66a2d042a6eb6d2766577b3f,66fcbb6a30ac4abac8a66007,2024-10-02_04h23.56.463,mdp,2024.2.1,Win32,29.85074627,66fa4ebf79326e780c390304,,,,,,,,,,,,,,,,,,,,,602.0748,602.0748,602.0772,603.1073,0,1,left,0.5181,,603.1096,603.8155,1,1,right,603.8176,603.8195,,1,,0,603.8196,603.8196,603.8205,605.3309,0,34,34,34,1,0.2,0.8,0.8,0.2,,,,,,,,,,,,,,,0.1839,,0.6,0.4,0.4,0.6,0.6,0.4,0.2,0.8,1,0,,,,,,,,,,,,
,,66a2d042a6eb6d2766577b3f,66fcbb6a30ac4abac8a66007,2024-10-02_04h23.56.463,mdp,2024.2.1,Win32,29.85074627,66fa4ebf79326e780c390304,,,,,,,,,,,,,,,,,,,,,605.3315,605.3316,605.3342,606.4508,0,1,left,0.5836,,606.4524,607.2604,0,1,left,607.263,607.2639,,0,,0,607.264,607.264,607.2649,608.7602,0,35,35,35,1,0.2,0.8,0.8,0.2,,,,,,,,,,,,,,,0.2874,,0.6,0.4,0.4,0.6,0.6,0.4,0.2,0.8,1,0,,,,,,,,,,,,
,,66a2d042a6eb6d2766577b3f,66fcbb6a30ac4abac8a66007,2024-10-02_04h23.56.463,mdp,2024.2.1,Win32,29.85074627,66fa4ebf79326e780c390304,,,,,,,,,,,,,,,,,,,,,608.7614,608.7615,608.7637,609.345,0,1,left,0.0617,,609.3465,609.9951,0,0,left,609.9976,609.9986,,0,,1,609.9988,609.9988,610.0003,611.5118,0,36,36,36,1,0.2,0.8,0.8,0.2,,,,,,,,,,,,,,,0.1155,,0.8,0.2,0.2,0.8,0.6,0.4,0.2,0.8,1,0,,,,,,,,,,,,
,,66a2d042a6eb6d2766577b3f,66fcbb6a30ac4abac8a66007,2024-10-02_04h23.56.463,mdp,2024.2.1,Win32,29.85074627,66fa4ebf79326e780c390304,,,,,,,,,,,,,,,,,,,,,611.5124,611.5124,611.5151,612.5236,0,1,left,0.4621,,612.5248,613.2242,0,0,left,613.2267,613.2276,,1,,1,613.2277,613.2277,613.2288,614.7235,0,37,37,37,1,0.2,0.8,0.8,0.2,,,,,,,,,,,,,,,0.1677,,0.8,0.2,0.2,0.8,0.6,0.4,0.2,0.8,1,0,,,,,,,,,,,,
,,66a2d042a6eb6d2766577b3f,66fcbb6a30ac4abac8a66007,2024-10-02_04h23.56.463,mdp,2024.2.1,Win32,29.85074627,66fa4ebf79326e780c390304,,,,,,,,,,,,,,,,,,,,,614.7244,614.7244,614.727,615.323,0,1,left,0.0857,,615.3252,616.0972,0,1,left,616.0986,616.0994,,1,,0,616.0994,616.0994,616.1004,617.576,0,38,38,38,1,0.2,0.8,0.8,0.2,,,,,,,,,,,,,,,0.2405,,0.8,0.2,0.2,0.8,0.6,0.4,0.2,0.8,1,0,,,,,,,,,,,,
,,66a2d042a6eb6d2766577b3f,66fcbb6a30ac4abac8a66007,2024-10-02_04h23.56.463,mdp,2024.2.1,Win32,29.85074627,66fa4ebf79326e780c390304,,,,,,,,,,,,,,,,,,,,,617.5768,617.5768,617.5784,618.2365,0,1,left,0.1265,,618.2388,618.939,1,1,right,618.9413,618.9424,,1,,0,618.9424,618.9424,618.9433,620.4361,0,39,39,39,1,0.2,0.8,0.8,0.2,,,,,,,,,,,,,,,0.1654,,0.8,0.2,0.2,0.8,0.6,0.4,0.2,0.8,1,0,,,,,,,,,,,,
,,66a2d042a6eb6d2766577b3f,66fcbb6a30ac4abac8a66007,2024-10-02_04h23.56.463,mdp,2024.2.1,Win32,29.85074627,66fa4ebf79326e780c390304,,,,,,,,,,,,,,,,,,,,,620.4369,620.4369,620.4395,621.3582,0,1,left,0.3938,,621.3602,623.1424,0,1,left,623.1449,623.1458,,0,,0,623.1459,623.1459,623.1471,624.644,0,40,40,40,1,0.2,0.8,0.8,0.2,,,,,,,,,,,,,,,1.2694,,0.8,0.2,0.2,0.8,0.6,0.4,0.2,0.8,1,0,,,,,,,,,,,,
,,66a2d042a6eb6d2766577b3f,66fcbb6a30ac4abac8a66007,2024-10-02_04h23.56.463,mdp,2024.2.1,Win32,29.85074627,66fa4ebf79326e780c390304,,,,,,,,,,,,,,,,,,,,,624.6456,624.6456,624.6478,625.5257,0,1,left,0.354,,625.5268,626.8545,0,0,left,626.8572,626.8582,,0,,1,626.8582,626.8582,626.8593,628.3621,0,41,41,41,1,0.2,0.8,0.8,0.2,,,,,,,,,,,,,,,0.808,,0.8,0.2,0.2,0.8,0.6,0.4,0.2,0.8,1,0,,,,,,,,,,,,
,,66a2d042a6eb6d2766577b3f,66fcbb6a30ac4abac8a66007,2024-10-02_04h23.56.463,mdp,2024.2.1,Win32,29.85074627,66fa4ebf79326e780c390304,,,,,,,,,,,,,,,,,,,,,628.3632,628.3632,628.3656,629.0404,0,1,left,0.1344,,629.0428,629.8108,0,0,left,629.8134,629.8144,,0,,1,629.8144,629.8144,629.8154,631.3161,0,42,42,42,1,0.2,0.8,0.8,0.2,,,,,,,,,,,,,,,0.2254,,0.8,0.2,0.2,0.8,0.6,0.4,0.2,0.8,1,0,,,,,,,,,,,,
,,66a2d042a6eb6d2766577b3f,66fcbb6a30ac4abac8a66007,2024-10-02_04h23.56.463,mdp,2024.2.1,Win32,29.85074627,66fa4ebf79326e780c390304,,,,,,,,,,,,,,,,,,,,,631.3167,631.3167,631.3193,632.0634,1,0,right,0.2151,,632.0652,632.7957,1,1,right,632.7977,632.7985,,0,,0,632.7985,632.7985,632.7993,634.2943,0,43,43,43,1,0.2,0.8,0.8,0.2,,,,,,,,,,,,,,,0.1917,,0.8,0.2,0.2,0.8,0.6,0.4,0.2,0.8,1,0,,,,,,,,,,,,
,,66a2d042a6eb6d2766577b3f,66fcbb6a30ac4abac8a66007,2024-10-02_04h23.56.463,mdp,2024.2.1,Win32,29.85074627,66fa4ebf79326e780c390304,,,,,,,,,,,,,,,,,,,,,634.2958,634.2959,634.2985,635.2276,0,1,left,0.376,,635.2287,635.9628,0,0,left,635.964,635.9646,,1,,1,635.9647,635.9647,635.9655,637.4661,0,44,44,44,1,0.2,0.8,0.8,0.2,,,,,,,,,,,,,,,0.2004,,0.8,0.2,0.2,0.8,0.6,0.4,0.2,0.8,1,0,,,,,,,,,,,,
,,66a2d042a6eb6d2766577b3f,66fcbb6a30ac4abac8a66007,2024-10-02_04h23.56.463,mdp,2024.2.1,Win32,29.85074627,66fa4ebf79326e780c390304,,,,,,,,,,,,,,,,,,,,,637.467,637.4671,637.4688,639.865,0,0,left,1.8732,,639.8671,640.5317,1,1,right,640.5341,640.535,,1,,0,640.535,640.535,640.5359,642.0374,0,45,45,45,1,0.2,0.8,0.8,0.2,,,,,,,,,,,,,,,0.1186,,0.8,0.2,0.2,0.8,0.6,0.4,0.2,0.8,1,0,,,,,,,,,,,,
,,66a2d042a6eb6d2766577b3f,66fcbb6a30ac4abac8a66007,2024-10-02_04h23.56.463,mdp,2024.2.1,Win32,29.85074627,66fa4ebf79326e780c390304,,,,,,,,,,,,,,,,,,,,,642.0383,642.0384,642.0407,642.5942,1,1,right,0.0308,,642.5969,643.3028,1,1,right,643.3052,643.306,,1,,0,643.306,643.306,643.3075,644.797,0,46,46,46,1,0.2,0.8,0.8,0.2,,,,,,,,,,,,,,,0.1727,,0.8,0.2,0.2,0.8,0.6,0.4,0.2,0.8,1,0,,,,,,,,,,,,
,,66a2d042a6eb6d2766577b3f,66fcbb6a30ac4abac8a66007,2024-10-02_04h23.56.463,mdp,2024.2.1,Win32,29.85074627,66fa4ebf79326e780c390304,,,,,,,,,,,,,,,,,,,,,644.7977,644.7977,644.8002,645.7025,1,1,right,0.3873,,645.7047,646.3387,1,1,right,646.3409,646.3419,,1,,0,646.342,646.342,646.3427,647.8429,0,47,47,47,1,0.6,0.4,0.6,0.4,,,,,,,,,,,,,,,0.1123,,0.8,0.2,0.2,0.8,0.6,0.4,0.2,0.8,1,0,,,,,,,,,,,,
,,66a2d042a6eb6d2766577b3f,66fcbb6a30ac4abac8a66007,2024-10-02_04h23.56.463,mdp,2024.2.1,Win32,29.85074627,66fa4ebf79326e780c390304,,,,,,,,,,,,,,,,,,,,,647.8439,647.844,647.8451,648.6133,1,1,right,0.2387,,648.6145,649.3816,0,0,left,649.3839,649.3849,,0,,1,649.385,649.385,649.3861,650.8793,0,48,48,48,1,0.6,0.4,0.6,0.4,,,,,,,,,,,,,,,0.2359,,0.4,0.6,0.8,0.2,0.6,0.4,0.2,0.8,1,0,,,,,,,,,,,,
,,66a2d042a6eb6d2766577b3f,66fcbb6a30ac4abac8a66007,2024-10-02_04h23.56.463,mdp,2024.2.1,Win32,29.85074627,66fa4ebf79326e780c390304,,,,,,,,,,,,,,,,,,,,,650.8805,650.8805,650.8832,651.4919,1,0,right,0.0985,,651.4933,652.2227,0,1,left,652.2253,652.2261,,1,,0,652.2261,652.2261,652.227,653.7347,0,49,49,49,1,0.6,0.4,0.6,0.4,,,,,,,,,,,,,,,0.183,,0.4,0.6,0.8,0.2,0.4,0.6,0.4,0.6,1,0,,,,,,,,,,,,
,,66a2d042a6eb6d2766577b3f,66fcbb6a30ac4abac8a66007,2024-10-02_04h23.56.463,mdp,2024.2.1,Win32,29.85074627,66fa4ebf79326e780c390304,,,,,,,,,,,,,,,,,,,,,,,,,,,,,,,,,,,,,,,,,,,,,,,,,,,,,,,,653.7351,712.2341,0,1,1,5,1,imgs/kangaroo.png,imgs/goat.png,imgs/rabbit.png,imgs/horse.png,imgs/pig.png,,,,,,,,,,,,,,,,,,,,,,,,
,,66a2d042a6eb6d2766577b3f,66fcbb6a30ac4abac8a66007,2024-10-02_04h23.56.463,mdp,2024.2.1,Win32,29.85074627,66fa4ebf79326e780c390304,,,,,,,,,,,,,,3,seqs/st3seq43.csv,712.2366,714.869,space,2.0911,,714.8794,714.8794,714.8821,716.2399,1,1,right,0.836,,716.2426,717.1932,1,1,right,717.1957,718.1991,1,1,right,0,718.1992,718.1992,718.2016,719.6919,0,0,0,0,1,0.6,0.4,0.4,0.6,,,,,,,,,,,,,,,0.4152,,0.2,0.8,0.8,0.2,0.6,0.4,0.4,0.6,,,0.4619,,0.8,0.2,0.4,0.6,0.6,0.4,0.2,0.8,1,0
,,66a2d042a6eb6d2766577b3f,66fcbb6a30ac4abac8a66007,2024-10-02_04h23.56.463,mdp,2024.2.1,Win32,29.85074627,66fa4ebf79326e780c390304,,,,,,,,,,,,,,,,,,,,,719.6934,719.6935,719.6953,721.6906,1,0,right,1.4586,,721.6931,722.5911,1,1,right,722.5932,723.3919,0,0,left,1,723.3921,723.3921,723.3946,724.8936,0,1,1,1,1,0.6,0.4,0.4,0.6,,,,,,,,,,,,,,,0.3694,,0.4,0.6,0.2,0.8,0.6,0.4,0.4,0.6,,,0.2668,,0.8,0.2,0.4,0.6,0.6,0.4,0.2,0.8,1,0
,,66a2d042a6eb6d2766577b3f,66fcbb6a30ac4abac8a66007,2024-10-02_04h23.56.463,mdp,2024.2.1,Win32,29.85074627,66fa4ebf79326e780c390304,,,,,,,,,,,,,,,,,,,,,724.8946,724.8946,724.8958,725.4403,0,0,left,0.0011,,725.4419,726.3295,0,0,left,726.3309,727.1732,1,1,right,0,727.1733,727.1733,727.1745,728.6702,0,2,2,2,1,0.6,0.4,0.4,0.6,,,,,,,,,,,,,,,0.3672,,0.4,0.6,0.2,0.8,0.6,0.4,0.4,0.6,,,0.2859,,0.8,0.2,0.4,0.6,0.6,0.4,0.2,0.8,1,0
,,66a2d042a6eb6d2766577b3f,66fcbb6a30ac4abac8a66007,2024-10-02_04h23.56.463,mdp,2024.2.1,Win32,29.85074627,66fa4ebf79326e780c390304,,,,,,,,,,,,,,,,,,,,,728.6709,728.671,728.6724,729.209,0,1,left,0.0223,,729.2111,729.9438,0,1,left,729.9452,730.6254,0,1,left,0,730.6256,730.6256,730.6281,732.1321,0,3,3,3,1,0.6,0.4,0.4,0.6,,,,,,,,,,,,,,,0.1849,,0.4,0.6,0.2,0.8,0.6,0.4,0.4,0.6,,,0.1434,,0.8,0.2,0.4,0.6,0.6,0.4,0.2,0.8,1,0
,,66a2d042a6eb6d2766577b3f,66fcbb6a30ac4abac8a66007,2024-10-02_04h23.56.463,mdp,2024.2.1,Win32,29.85074627,66fa4ebf79326e780c390304,,,,,,,,,,,,,,,,,,,,,732.1332,732.1333,732.1345,733.2891,0,0,left,0.6127,,733.2913,734.1768,0,0,left,734.1789,734.941,1,1,right,0,734.9411,734.9411,734.9432,736.4347,0,4,4,4,1,0.6,0.4,0.4,0.6,,,,,,,,,,,,,,,0.3442,,0.4,0.6,0.2,0.8,0.6,0.4,0.4,0.6,,,0.2225,,0.8,0.2,0.4,0.6,0.6,0.4,0.2,0.8,1,0
,,66a2d042a6eb6d2766577b3f,66fcbb6a30ac4abac8a66007,2024-10-02_04h23.56.463,mdp,2024.2.1,Win32,29.85074627,66fa4ebf79326e780c390304,,,,,,,,,,,,,,,,,,,,,736.4354,736.4354,736.437,737.5408,0,0,left,0.5692,,737.5435,738.4423,0,1,left,738.4447,739.3505,1,1,right,0,739.3508,739.3509,739.3532,740.8504,0,5,5,5,1,0.6,0.4,0.4,0.6,,,,,,,,,,,,,,,0.3858,,0.4,0.6,0.2,0.8,0.6,0.4,0.4,0.6,,,0.3653,,0.8,0.2,0.4,0.6,0.6,0.4,0.2,0.8,1,0
,,66a2d042a6eb6d2766577b3f,66fcbb6a30ac4abac8a66007,2024-10-02_04h23.56.463,mdp,2024.2.1,Win32,29.85074627,66fa4ebf79326e780c390304,,,,,,,,,,,,,,,,,,,,,740.8513,740.8513,740.8535,741.3697,0,0,left,0.0044,,741.3723,741.9397,0,1,left,741.9414,742.5038,0,1,left,0,742.504,742.504,742.5052,743.9882,0,6,6,6,1,0.6,0.4,0.4,0.6,,,,,,,,,,,,,,,0.0409,,0.4,0.6,0.2,0.8,0.6,0.4,0.4,0.6,,,0.0411,,0.8,0.2,0.4,0.6,0.6,0.4,0.2,0.8,1,0
,,66a2d042a6eb6d2766577b3f,66fcbb6a30ac4abac8a66007,2024-10-02_04h23.56.463,mdp,2024.2.1,Win32,29.85074627,66fa4ebf79326e780c390304,,,,,,,,,,,,,,,,,,,,,743.9895,743.9895,743.9913,745.3164,0,0,left,0.7712,,745.3191,746.0054,0,1,left,746.0075,746.6987,0,1,left,0,746.6988,746.6988,746.7013,748.1918,0,7,7,7,1,0.6,0.4,0.4,0.6,,,,,,,,,,,,,,,0.157,,0.4,0.6,0.2,0.8,0.6,0.4,0.4,0.6,,,0.1516,,0.8,0.2,0.4,0.6,0.6,0.4,0.2,0.8,1,0
,,66a2d042a6eb6d2766577b3f,66fcbb6a30ac4abac8a66007,2024-10-02_04h23.56.463,mdp,2024.2.1,Win32,29.85074627,66fa4ebf79326e780c390304,,,,,,,,,,,,,,,,,,,,,748.1933,748.1933,748.196,749.0075,0,0,left,0.2743,,749.0092,749.751,0,1,left,749.7528,750.4795,0,1,left,0,750.4797,750.4797,750.4817,751.9751,0,8,8,8,1,0.6,0.4,0.4,0.6,,,,,,,,,,,,,,,0.2115,,0.4,0.6,0.2,0.8,0.6,0.4,0.4,0.6,,,0.2018,,0.8,0.2,0.4,0.6,0.6,0.4,0.2,0.8,1,0
,,66a2d042a6eb6d2766577b3f,66fcbb6a30ac4abac8a66007,2024-10-02_04h23.56.463,mdp,2024.2.1,Win32,29.85074627,66fa4ebf79326e780c390304,,,,,,,,,,,,,,,,,,,,,751.9761,751.9761,751.9784,752.4985,0,1,left,0.0008,,752.501,753.182,0,0,left,753.1848,753.7973,1,1,right,0,753.7974,753.7974,753.7986,755.316,0,9,9,9,1,0.6,0.4,0.4,0.6,,,,,,,,,,,,,,,0.1454,,0.4,0.6,0.2,0.8,0.6,0.4,0.4,0.6,,,0.0799,,0.8,0.2,0.4,0.6,0.2,0.8,0.6,0.4,1,0
,,66a2d042a6eb6d2766577b3f,66fcbb6a30ac4abac8a66007,2024-10-02_04h23.56.463,mdp,2024.2.1,Win32,29.85074627,66fa4ebf79326e780c390304,,,,,,,,,,,,,,,,,,,,,755.3168,755.3168,755.3194,756.0357,1,1,right,0.1775,,756.037,756.6515,1,1,right,756.6543,757.2156,1,0,right,1,757.2156,757.2156,757.2181,758.7097,0,10,10,10,1,0.6,0.4,0.4,0.6,,,,,,,,,,,,,,,0.0794,,0.4,0.6,0.2,0.8,0.6,0.4,0.4,0.6,,,0.0007,,0.8,0.2,0.4,0.6,0.4,0.6,0.2,0.8,1,0
,,66a2d042a6eb6d2766577b3f,66fcbb6a30ac4abac8a66007,2024-10-02_04h23.56.463,mdp,2024.2.1,Win32,29.85074627,66fa4ebf79326e780c390304,,,,,,,,,,,,,,,,,,,,,758.7105,758.7105,758.7129,759.4137,1,0,right,0.1812,,759.4165,760.1211,1,0,right,760.1233,760.874,1,1,right,0,760.8743,760.8743,760.8771,762.3745,0,11,11,11,1,0.6,0.4,0.4,0.6,,,,,,,,,,,,,,,0.1653,,0.4,0.6,0.2,0.8,0.6,0.4,0.4,0.6,,,0.1913,,0.8,0.2,0.4,0.6,0.2,0.8,0.8,0.2,1,0
,,66a2d042a6eb6d2766577b3f,66fcbb6a30ac4abac8a66007,2024-10-02_04h23.56.463,mdp,2024.2.1,Win32,29.85074627,66fa4ebf79326e780c390304,,,,,,,,,,,,,,,,,,,,,762.3755,762.3755,762.3769,762.9094,1,0,right,0.0014,,762.912,763.787,1,0,right,763.7895,764.5572,1,1,right,0,764.5573,764.5573,764.5594,766.0495,0,12,12,12,1,0.6,0.4,0.4,0.6,,,,,,,,,,,,,,,0.3448,,0.8,0.2,0.8,0.2,0.6,0.4,0.4,0.6,,,0.2553,,0.8,0.2,0.4,0.6,0.2,0.8,0.8,0.2,1,0
,,66a2d042a6eb6d2766577b3f,66fcbb6a30ac4abac8a66007,2024-10-02_04h23.56.463,mdp,2024.2.1,Win32,29.85074627,66fa4ebf79326e780c390304,,,,,,,,,,,,,,,,,,,,,766.0506,766.0506,766.0537,768.2667,0,1,left,1.6864,,768.268,770.8991,0,0,left,770.9016,772.0798,0,0,left,1,772.0799,772.0799,772.0819,773.5787,0,13,13,13,1,0.6,0.4,0.4,0.6,,,,,,,,,,,,,,,2.075,,0.8,0.2,0.8,0.2,0.6,0.4,0.4,0.6,,,0.6515,,0.8,0.2,0.4,0.6,0.2,0.8,0.8,0.2,1,0
,,66a2d042a6eb6d2766577b3f,66fcbb6a30ac4abac8a66007,2024-10-02_04h23.56.463,mdp,2024.2.1,Win32,29.85074627,66fa4ebf79326e780c390304,,,,,,,,,,,,,,,,,,,,,773.5806,773.5806,773.5831,774.4621,0,0,left,0.3519,,774.4648,775.5102,0,0,left,775.5115,776.8557,0,0,left,1,776.8558,776.8558,776.8581,778.3462,0,14,14,14,1,0.6,0.4,0.4,0.6,,,,,,,,,,,,,,,0.5021,,0.8,0.2,0.8,0.2,0.6,0.4,0.4,0.6,,,0.8144,,0.8,0.2,0.4,0.6,0.2,0.8,0.8,0.2,1,0
,,66a2d042a6eb6d2766577b3f,66fcbb6a30ac4abac8a66007,2024-10-02_04h23.56.463,mdp,2024.2.1,Win32,29.85074627,66fa4ebf79326e780c390304,,,,,,,,,,,,,,,,,,,,,778.3472,778.3472,778.3495,778.8955,0,1,left,0.024,,778.8967,780.033,0,0,left,780.0354,781.3415,0,0,left,1,781.3416,781.3417,781.3428,782.8375,0,15,15,15,1,0.6,0.4,0.4,0.6,,,,,,,,,,,,,,,0.602,,0.8,0.2,0.8,0.2,0.6,0.4,0.4,0.6,,,0.7719,,0.8,0.2,0.4,0.6,0.2,0.8,0.8,0.2,1,0
,,66a2d042a6eb6d2766577b3f,66fcbb6a30ac4abac8a66007,2024-10-02_04h23.56.463,mdp,2024.2.1,Win32,29.85074627,66fa4ebf79326e780c390304,,,,,,,,,,,,,,,,,,,,,782.8382,782.8382,782.8397,783.7754,0,1,left,0.416,,783.7776,784.5043,0,0,left,784.5063,785.543,0,0,left,1,785.5433,785.5433,785.5459,787.0664,0,16,16,16,1,0.6,0.4,0.4,0.6,,,,,,,,,,,,,,,0.1892,,0.8,0.2,0.8,0.2,0.6,0.4,0.4,0.6,,,0.5044,,0.6,0.4,0.2,0.8,0.2,0.8,0.8,0.2,1,0
,,66a2d042a6eb6d2766577b3f,66fcbb6a30ac4abac8a66007,2024-10-02_04h23.56.463,mdp,2024.2.1,Win32,29.85074627,66fa4ebf79326e780c390304,,,,,,,,,,,,,,,,,,,,,787.0671,787.0671,787.0699,788.1474,0,1,left,0.5473,,788.1495,789.5035,0,0,left,789.5049,790.5518,0,0,left,1,790.5519,790.5519,790.5532,792.0426,0,17,17,17,1,0.6,0.4,0.4,0.6,,,,,,,,,,,,,,,0.8323,,0.8,0.2,0.8,0.2,0.6,0.4,0.4,0.6,,,0.5307,,0.6,0.4,0.2,0.8,0.2,0.8,0.8,0.2,1,0
,,66a2d042a6eb6d2766577b3f,66fcbb6a30ac4abac8a66007,2024-10-02_04h23.56.463,mdp,2024.2.1,Win32,29.85074627,66fa4ebf79326e780c390304,,,,,,,,,,,,,,,,,,,,,792.0445,792.0446,792.0472,792.9657,0,1,left,0.3748,,792.9683,793.9277,0,0,left,793.9298,794.9003,0,1,left,0,794.9004,794.9004,794.9029,796.3917,0,18,18,18,1,0.6,0.4,0.4,0.6,,,,,,,,,,,,,,,0.4244,,0.8,0.2,0.8,0.2,0.6,0.4,0.4,0.6,,,0.4466,,0.6,0.4,0.2,0.8,0.2,0.8,0.8,0.2,1,0
,,66a2d042a6eb6d2766577b3f,66fcbb6a30ac4abac8a66007,2024-10-02_04h23.56.463,mdp,2024.2.1,Win32,29.85074627,66fa4ebf79326e780c390304,,,,,,,,,,,,,,,,,,,,,796.3927,796.3927,796.3951,797.3431,0,1,left,0.409,,797.3442,798.6474,0,0,left,798.6486,799.5968,1,1,right,0,799.5969,799.5969,799.599,801.1004,0,19,19,19,1,0.6,0.4,0.4,0.6,,,,,,,,,,,,,,,0.7635,,0.8,0.2,0.8,0.2,0.6,0.4,0.4,0.6,,,0.4006,,0.6,0.4,0.2,0.8,0.2,0.8,0.8,0.2,1,0
,,66a2d042a6eb6d2766577b3f,66fcbb6a30ac4abac8a66007,2024-10-02_04h23.56.463,mdp,2024.2.1,Win32,29.85074627,66fa4ebf79326e780c390304,,,,,,,,,,,,,,,,,,,,,801.1016,801.1017,801.1041,801.8036,0,0,left,0.1776,,801.806,802.6953,0,0,left,802.697,803.4359,0,0,left,1,803.436,803.436,803.4387,804.9393,0,20,20,20,1,0.6,0.4,0.4,0.6,,,,,,,,,,,,,,,0.3569,,0.8,0.2,0.8,0.2,0.6,0.4,0.4,0.6,,,0.2177,,0.6,0.4,0.2,0.8,0.2,0.8,0.8,0.2,1,0
,,66a2d042a6eb6d2766577b3f,66fcbb6a30ac4abac8a66007,2024-10-02_04h23.56.463,mdp,2024.2.1,Win32,29.85074627,66fa4ebf79326e780c390304,,,,,,,,,,,,,,,,,,,,,804.9402,804.9403,804.9426,805.6677,0,0,left,0.1894,,805.6698,806.3713,0,0,left,806.3736,806.9976,0,0,left,1,806.9978,806.9978,807.0001,808.4872,0,21,21,21,1,0.6,0.4,0.4,0.6,,,,,,,,,,,,,,,0.1684,,0.8,0.2,0.8,0.2,0.6,0.4,0.4,0.6,,,0.0875,,0.6,0.4,0.2,0.8,0.2,0.8,0.8,0.2,1,0
,,66a2d042a6eb6d2766577b3f,66fcbb6a30ac4abac8a66007,2024-10-02_04h23.56.463,mdp,2024.2.1,Win32,29.85074627,66fa4ebf79326e780c390304,,,,,,,,,,,,,,,,,,,,,808.4887,808.4887,808.4906,809.0842,0,0,left,0.0536,,809.0865,809.7332,0,0,left,809.735,810.3865,0,1,left,0,810.3866,810.3866,810.3893,811.8882,0,22,22,22,1,0.6,0.4,0.4,0.6,,,,,,,,,,,,,,,0.1113,,0.8,0.2,0.8,0.2,0.6,0.4,0.4,0.6,,,0.1297,,0.6,0.4,0.2,0.8,0.4,0.6,0.2,0.8,1,0
,,66a2d042a6eb6d2766577b3f,66fcbb6a30ac4abac8a66007,2024-10-02_04h23.56.463,mdp,2024.2.1,Win32,29.85074627,66fa4ebf79326e780c390304,,,,,,,,,,,,,,,,,,,,,811.8889,811.8889,811.8916,812.8769,0,0,left,0.4614,,812.8794,813.7114,0,0,left,813.7131,814.7171,0,0,left,1,814.7171,814.7172,814.7192,816.2053,0,23,23,23,1,0.6,0.4,0.4,0.6,,,,,,,,,,,,,,,0.2967,,0.8,0.2,0.8,0.2,0.6,0.4,0.4,0.6,,,0.4829,,0.6,0.4,0.2,0.8,0.4,0.6,0.2,0.8,1,0
,,66a2d042a6eb6d2766577b3f,66fcbb6a30ac4abac8a66007,2024-10-02_04h23.56.463,mdp,2024.2.1,Win32,29.85074627,66fa4ebf79326e780c390304,,,,,,,,,,,,,,,,,,,,,816.2065,816.2065,816.2078,817.0433,0,0,left,0.3078,,817.0459,817.6642,0,0,left,817.6657,818.2891,0,0,left,1,818.2892,818.2892,818.2917,819.7855,0,24,24,24,1,0.6,0.4,0.4,0.6,,,,,,,,,,,,,,,0.0981,,0.8,0.2,0.8,0.2,0.4,0.6,0.8,0.2,,,0.104,,0.6,0.4,0.2,0.8,0.4,0.6,0.2,0.8,1,0
,,66a2d042a6eb6d2766577b3f,66fcbb6a30ac4abac8a66007,2024-10-02_04h23.56.463,mdp,2024.2.1,Win32,29.85074627,66fa4ebf79326e780c390304,,,,,,,,,,,,,,,,,,,,,819.7871,819.7872,819.7895,820.3767,0,0,left,0.0641,,820.3786,821.0603,0,0,left,821.0618,821.7173,0,0,left,1,821.7175,821.7175,821.7196,823.2223,0,25,25,25,1,0.6,0.4,0.4,0.6,,,,,,,,,,,,,,,0.1492,,0.8,0.2,0.8,0.2,0.4,0.6,0.8,0.2,,,0.1332,,0.6,0.4,0.2,0.8,0.4,0.6,0.2,0.8,1,0
,,66a2d042a6eb6d2766577b3f,66fcbb6a30ac4abac8a66007,2024-10-02_04h23.56.463,mdp,2024.2.1,Win32,29.85074627,66fa4ebf79326e780c390304,,,,,,,,,,,,,,,,,,,,,823.2232,823.2232,823.2256,824.0101,0,0,left,0.2669,,824.0131,824.7053,0,0,left,824.7068,825.4705,0,0,left,1,825.4707,825.4707,825.4728,826.9785,0,26,26,26,1,0.6,0.4,0.4,0.6,,,,,,,,,,,,,,,0.1643,,0.8,0.2,0.8,0.2,0.4,0.6,0.8,0.2,,,0.2247,,0.6,0.4,0.2,0.8,0.4,0.6,0.2,0.8,1,0
,,66a2d042a6eb6d2766577b3f,66fcbb6a30ac4abac8a66007,2024-10-02_04h23.56.463,mdp,2024.2.1,Win32,29.85074627,66fa4ebf79326e780c390304,,,,,,,,,,,,,,,,,,,,,826.9793,826.9793,826.9818,827.6156,0,1,left,0.098,,827.618,828.2624,0,1,left,828.2639,829.3677,0,0,left,1,829.3678,829.3678,829.3694,830.8831,0,27,27,27,1,0.6,0.4,0.4,0.6,,,,,,,,,,,,,,,0.1092,,0.8,0.2,0.8,0.2,0.4,0.6,0.8,0.2,,,0.5413,,0.6,0.4,0.2,0.8,0.4,0.6,0.2,0.8,1,0
,,66a2d042a6eb6d2766577b3f,66fcbb6a30ac4abac8a66007,2024-10-02_04h23.56.463,mdp,2024.2.1,Win32,29.85074627,66fa4ebf79326e780c390304,,,,,,,,,,,,,,,,,,,,,830.8838,830.8838,830.8861,831.6127,0,1,left,0.2086,,831.6149,832.3557,0,0,left,832.358,832.9873,0,1,left,0,832.9874,832.9875,832.9904,834.4771,0,28,28,28,1,0.6,0.4,0.4,0.6,,,,,,,,,,,,,,,0.2271,,0.8,0.2,0.8,0.2,0.4,0.6,0.8,0.2,,,0.0777,,0.6,0.4,0.2,0.8,0.6,0.4,0.8,0.2,1,0
,,66a2d042a6eb6d2766577b3f,66fcbb6a30ac4abac8a66007,2024-10-02_04h23.56.463,mdp,2024.2.1,Win32,29.85074627,66fa4ebf79326e780c390304,,,,,,,,,,,,,,,,,,,,,834.4785,834.4785,834.4799,835.3149,0,0,left,0.298,,835.3171,835.9517,0,0,left,835.9533,836.621,0,1,left,0,836.6211,836.6211,836.6227,838.1102,0,29,29,29,1,0.6,0.4,0.4,0.6,,,,,,,,,,,,,,,0.1007,,0.8,0.2,0.8,0.2,0.4,0.6,0.8,0.2,,,0.1375,,0.4,0.6,0.8,0.2,0.6,0.4,0.8,0.2,1,0
,,66a2d042a6eb6d2766577b3f,66fcbb6a30ac4abac8a66007,2024-10-02_04h23.56.463,mdp,2024.2.1,Win32,29.85074627,66fa4ebf79326e780c390304,,,,,,,,,,,,,,,,,,,,,838.1107,838.1107,838.1132,838.9219,0,1,left,0.2802,,838.9245,839.6074,0,1,left,839.61,840.7599,0,0,left,1,840.76,840.76,840.762,842.2651,0,30,30,30,1,0.6,0.4,0.4,0.6,,,,,,,,,,,,,,,0.1476,,0.8,0.2,0.8,0.2,0.4,0.6,0.8,0.2,,,0.6127,,0.4,0.6,0.8,0.2,0.6,0.4,0.8,0.2,1,0
,,66a2d042a6eb6d2766577b3f,66fcbb6a30ac4abac8a66007,2024-10-02_04h23.56.463,mdp,2024.2.1,Win32,29.85074627,66fa4ebf79326e780c390304,,,,,,,,,,,,,,,,,,,,,842.266,842.266,842.2681,843.1382,0,0,left,0.3547,,843.141,843.7972,0,1,left,843.7991,844.9914,1,0,right,1,844.9916,844.9917,844.9944,846.4945,0,31,31,31,1,0.6,0.4,0.4,0.6,,,,,,,,,,,,,,,0.115,,0.8,0.2,0.8,0.2,0.4,0.6,0.8,0.2,,,0.6639,,0.4,0.6,0.8,0.2,0.6,0.4,0.8,0.2,1,0
,,66a2d042a6eb6d2766577b3f,66fcbb6a30ac4abac8a66007,2024-10-02_04h23.56.463,mdp,2024.2.1,Win32,29.85074627,66fa4ebf79326e780c390304,,,,,,,,,,,,,,,,,,,,,846.4961,846.4961,846.4985,847.1696,1,1,right,0.1333,,847.1719,847.9957,1,0,right,847.9984,848.5319,1,0,right,1,848.532,848.532,848.5335,850.022,0,32,32,32,1,0.6,0.4,0.4,0.6,,,,,,,,,,,,,,,0.2755,,0.8,0.2,0.8,0.2,0.4,0.6,0.8,0.2,,,0.0009,,0.4,0.6,0.8,0.2,0.6,0.4,0.8,0.2,1,0
,,66a2d042a6eb6d2766577b3f,66fcbb6a30ac4abac8a66007,2024-10-02_04h23.56.463,mdp,2024.2.1,Win32,29.85074627,66fa4ebf79326e780c390304,,,,,,,,,,,,,,,,,,,,,850.0233,850.0234,850.0263,850.5809,1,0,right,0.0151,,850.5822,851.3694,1,0,right,851.372,852.3132,0,0,left,1,852.3134,852.3134,852.3144,853.8087,0,33,33,33,1,0.6,0.4,0.4,0.6,,,,,,,,,,,,,,,0.2299,,0.8,0.2,0.8,0.2,0.4,0.6,0.8,0.2,,,0.4258,,0.4,0.6,0.8,0.2,0.6,0.4,0.8,0.2,1,0
,,66a2d042a6eb6d2766577b3f,66fcbb6a30ac4abac8a66007,2024-10-02_04h23.56.463,mdp,2024.2.1,Win32,29.85074627,66fa4ebf79326e780c390304,,,,,,,,,,,,,,,,,,,,,853.8095,853.8096,853.8117,854.3391,0,0,left,0.0005,,854.3411,855.2109,0,0,left,855.2132,856.3567,0,0,left,1,856.3568,856.3568,856.36,857.8699,0,34,34,34,1,0.6,0.4,0.4,0.6,,,,,,,,,,,,,,,0.3485,,0.8,0.2,0.8,0.2,0.4,0.6,0.8,0.2,,,0.6308,,0.4,0.6,0.8,0.2,0.6,0.4,0.8,0.2,1,0
,,66a2d042a6eb6d2766577b3f,66fcbb6a30ac4abac8a66007,2024-10-02_04h23.56.463,mdp,2024.2.1,Win32,29.85074627,66fa4ebf79326e780c390304,,,,,,,,,,,,,,,,,,,,,857.8718,857.8718,857.8742,858.5033,0,1,left,0.1174,,858.5061,859.2491,0,1,left,859.2511,860.5463,0,0,left,1,860.5465,860.5465,860.5487,862.0431,0,35,35,35,1,0.6,0.4,0.4,0.6,,,,,,,,,,,,,,,0.2028,,0.8,0.2,0.8,0.2,0.4,0.6,0.8,0.2,,,0.7561,,0.4,0.6,0.8,0.2,0.6,0.4,0.8,0.2,1,0
,,66a2d042a6eb6d2766577b3f,66fcbb6a30ac4abac8a66007,2024-10-02_04h23.56.463,mdp,2024.2.1,Win32,29.85074627,66fa4ebf79326e780c390304,,,,,,,,,,,,,,,,,,,,,862.0444,862.0444,862.0467,862.9441,0,1,left,0.3765,,862.9466,863.6618,0,0,left,863.6645,865.13,0,1,left,0,865.1301,865.1301,865.132,866.6201,0,36,36,36,1,0.6,0.4,0.4,0.6,,,,,,,,,,,,,,,0.1994,,0.8,0.2,0.8,0.2,0.4,0.6,0.8,0.2,,,0.9129,,0.4,0.6,0.8,0.2,0.6,0.4,0.8,0.2,1,0
,,66a2d042a6eb6d2766577b3f,66fcbb6a30ac4abac8a66007,2024-10-02_04h23.56.463,mdp,2024.2.1,Win32,29.85074627,66fa4ebf79326e780c390304,,,,,,,,,,,,,,,,,,,,,866.6209,866.6209,866.6222,867.4785,0,0,left,0.3227,,867.4809,868.1014,0,0,left,868.1037,868.7913,0,0,left,1,868.7914,868.7914,868.7927,870.2892,0,37,37,37,1,0.6,0.4,0.4,0.6,,,,,,,,,,,,,,,0.0852,,0.8,0.2,0.8,0.2,0.4,0.6,0.8,0.2,,,0.1593,,0.4,0.6,0.8,0.2,0.6,0.4,0.8,0.2,1,0
,,66a2d042a6eb6d2766577b3f,66fcbb6a30ac4abac8a66007,2024-10-02_04h23.56.463,mdp,2024.2.1,Win32,29.85074627,66fa4ebf79326e780c390304,,,,,,,,,,,,,,,,,,,,,870.29,870.2901,870.2927,870.9284,0,1,left,0.1048,,870.9301,871.5897,0,1,left,871.5924,872.3751,0,1,left,0,872.3752,872.3753,872.3773,873.8637,0,38,38,38,1,0.6,0.4,0.4,0.6,,,,,,,,,,,,,,,0.0926,,0.8,0.2,0.8,0.2,0.4,0.6,0.8,0.2,,,0.2374,,0.4,0.6,0.8,0.2,0.6,0.4,0.8,0.2,1,0
,,66a2d042a6eb6d2766577b3f,66fcbb6a30ac4abac8a66007,2024-10-02_04h23.56.463,mdp,2024.2.1,Win32,29.85074627,66fa4ebf79326e780c390304,,,,,,,,,,,,,,,,,,,,,873.8651,873.8651,873.867,874.7108,0,0,left,0.3317,,874.7134,875.8172,0,1,left,875.8197,877.4564,1,0,right,1,877.4566,877.4566,877.4588,878.9569,0,39,39,39,1,0.6,0.4,0.4,0.6,,,,,,,,,,,,,,,0.5653,,0.8,0.2,0.8,0.2,0.4,0.6,0.8,0.2,,,1.1238,,0.4,0.6,0.8,0.2,0.6,0.4,0.8,0.2,1,0
,,66a2d042a6eb6d2766577b3f,66fcbb6a30ac4abac8a66007,2024-10-02_04h23.56.463,mdp,2024.2.1,Win32,29.85074627,66fa4ebf79326e780c390304,,,,,,,,,,,,,,,,,,,,,878.9579,878.9579,878.9604,879.5809,0,0,left,0.0946,,879.5833,880.3717,0,0,left,880.3738,881.3061,0,1,left,0,881.3061,881.3062,881.3078,882.8021,0,40,40,40,1,0.6,0.4,0.4,0.6,,,,,,,,,,,,,,,0.2626,,0.8,0.2,0.8,0.2,0.4,0.6,0.8,0.2,,,0.3763,,0.4,0.6,0.8,0.2,0.6,0.4,0.8,0.2,1,0
,,66a2d042a6eb6d2766577b3f,66fcbb6a30ac4abac8a66007,2024-10-02_04h23.56.463,mdp,2024.2.1,Win32,29.85074627,66fa4ebf79326e780c390304,,,,,,,,,,,,,,,,,,,,,882.8037,882.8037,882.8059,883.6586,0,1,left,0.3226,,883.6605,884.3342,0,1,left,884.3363,885.2653,0,1,left,0,885.2655,885.2655,885.2677,886.7558,0,41,41,41,1,0.4,0.6,0.8,0.2,,,,,,,,,,,,,,,0.1352,,0.8,0.2,0.8,0.2,0.4,0.6,0.8,0.2,,,0.3943,,0.4,0.6,0.8,0.2,0.6,0.4,0.8,0.2,1,0
,,66a2d042a6eb6d2766577b3f,66fcbb6a30ac4abac8a66007,2024-10-02_04h23.56.463,mdp,2024.2.1,Win32,29.85074627,66fa4ebf79326e780c390304,,,,,,,,,,,,,,,,,,,,,886.7576,886.7576,886.76,887.6972,0,1,left,0.3997,,887.6994,888.4324,0,1,left,888.435,889.4901,1,0,right,1,889.4902,889.4902,889.4912,890.9867,0,42,42,42,1,0.4,0.6,0.8,0.2,,,,,,,,,,,,,,,0.2042,,0.8,0.2,0.8,0.2,0.4,0.6,0.8,0.2,,,0.5227,,0.4,0.6,0.8,0.2,0.6,0.4,0.8,0.2,1,0
,,66a2d042a6eb6d2766577b3f,66fcbb6a30ac4abac8a66007,2024-10-02_04h23.56.463,mdp,2024.2.1,Win32,29.85074627,66fa4ebf79326e780c390304,,,,,,,,,,,,,,,,,,,,,890.988,890.9881,890.9903,891.7764,1,1,right,0.251,,891.7787,893.4579,1,0,right,893.4604,894.5009,0,0,left,1,894.5011,894.5011,894.5022,895.9961,0,43,43,43,1,0.4,0.6,0.8,0.2,,,,,,,,,,,,,,,1.1372,,0.8,0.2,0.8,0.2,0.4,0.6,0.8,0.2,,,0.5009,,0.4,0.6,0.8,0.2,0.6,0.4,0.8,0.2,1,0
,,66a2d042a6eb6d2766577b3f,66fcbb6a30ac4abac8a66007,2024-10-02_04h23.56.463,mdp,2024.2.1,Win32,29.85074627,66fa4ebf79326e780c390304,,,,,,,,,,,,,,,,,,,,,895.9969,895.9971,895.9996,896.6018,0,1,left,0.0896,,896.6046,897.2536,0,1,left,897.2561,898.3922,1,0,right,1,898.3924,898.3924,898.3945,899.9042,0,44,44,44,1,0.4,0.6,0.8,0.2,,,,,,,,,,,,,,,0.1291,,0.8,0.2,0.8,0.2,0.4,0.6,0.8,0.2,,,0.5986,,0.4,0.6,0.8,0.2,0.6,0.4,0.8,0.2,1,0
,,66a2d042a6eb6d2766577b3f,66fcbb6a30ac4abac8a66007,2024-10-02_04h23.56.463,mdp,2024.2.1,Win32,29.85074627,66fa4ebf79326e780c390304,,,,,,,,,,,,,,,,,,,,,899.9051,899.9052,899.9074,900.666,0,1,left,0.2362,,900.6672,901.5009,0,0,left,901.5033,902.7654,0,0,left,1,902.7655,902.7655,902.7678,904.2553,0,45,45,45,1,0.4,0.6,0.8,0.2,,,,,,,,,,,,,,,0.3001,,0.8,0.2,0.8,0.2,0.4,0.6,0.8,0.2,,,0.734,,0.4,0.6,0.8,0.2,0.6,0.4,0.8,0.2,1,0
,,66a2d042a6eb6d2766577b3f,66fcbb6a30ac4abac8a66007,2024-10-02_04h23.56.463,mdp,2024.2.1,Win32,29.85074627,66fa4ebf79326e780c390304,,,,,,,,,,,,,,,,,,,,,904.2562,904.2562,904.2589,905.1745,0,1,left,0.354,,905.1756,906.1768,0,0,left,906.1781,907.3628,0,1,left,0,907.3629,907.3629,907.3643,908.8629,0,46,46,46,1,0.4,0.6,0.8,0.2,,,,,,,,,,,,,,,0.467,,0.8,0.2,0.8,0.2,0.4,0.6,0.8,0.2,,,0.6508,,0.2,0.8,0.4,0.6,0.6,0.4,0.8,0.2,1,0
,,66a2d042a6eb6d2766577b3f,66fcbb6a30ac4abac8a66007,2024-10-02_04h23.56.463,mdp,2024.2.1,Win32,29.85074627,66fa4ebf79326e780c390304,,,,,,,,,,,,,,,,,,,,,908.8636,908.8637,908.8664,909.5634,0,0,left,0.1865,,909.565,910.205,0,0,left,910.207,911.187,0,0,left,1,911.1872,911.1872,911.1896,912.6722,0,47,47,47,1,0.4,0.6,0.8,0.2,,,,,,,,,,,,,,,0.0939,,0.8,0.2,0.8,0.2,0.4,0.6,0.8,0.2,,,0.4348,,0.2,0.8,0.4,0.6,0.6,0.4,0.8,0.2,1,0
,,66a2d042a6eb6d2766577b3f,66fcbb6a30ac4abac8a66007,2024-10-02_04h23.56.463,mdp,2024.2.1,Win32,29.85074627,66fa4ebf79326e780c390304,,,,,,,,,,,,,,,,,,,,,912.6728,912.6729,912.6757,913.2288,0,1,left,0.001,,913.231,914.0284,0,1,left,914.0309,914.8308,0,0,left,1,914.8309,914.8309,914.8331,916.3193,0,48,48,48,1,0.4,0.6,0.8,0.2,,,,,,,,,,,,,,,0.253,,0.8,0.2,0.8,0.2,0.4,0.6,0.8,0.2,,,0.2734,,0.2,0.8,0.4,0.6,0.6,0.4,0.8,0.2,1,0
,,66a2d042a6eb6d2766577b3f,66fcbb6a30ac4abac8a66007,2024-10-02_04h23.56.463,mdp,2024.2.1,Win32,29.85074627,66fa4ebf79326e780c390304,,,,,,,,,,,,,,,,,,,,,916.3205,916.3205,916.3228,917.035,0,0,left,0.1712,,917.0376,917.8031,0,0,left,917.8059,918.648,0,1,left,0,918.6481,918.6481,918.6503,920.1428,0,49,49,49,1,0.4,0.6,0.8,0.2,,,,,,,,,,,,,,,0.2251,,0.8,0.2,0.8,0.2,0.6,0.4,0.4,0.6,,,0.3011,,0.2,0.8,0.4,0.6,0.6,0.4,0.8,0.2,1,0
,,66a2d042a6eb6d2766577b3f,66fcbb6a30ac4abac8a66007,2024-10-02_04h23.56.463,mdp,2024.2.1,Win32,29.85074627,66fa4ebf79326e780c390304,,,,,,,,,,,,,,,,,,,,,,,,,,,,,,,,,,,,,,,,,,,,,,,,,,,,,,,,920.1431,977.0331,0,2,2,1,1,imgs/kangaroo.png,imgs/bear.png,imgs/giraffe.png,imgs/cat.png,imgs/elephant.png,,,,,,,,,,,,,,,,,,,,,,,,
,,66a2d042a6eb6d2766577b3f,66fcbb6a30ac4abac8a66007,2024-10-02_04h23.56.463,mdp,2024.2.1,Win32,29.85074627,66fa4ebf79326e780c390304,,,,,,,,,,,,,,3,seqs/st3seq37.csv,977.0343,979.8037,space,2.2389,,979.8141,979.8141,979.8157,983.5498,0,0,left,3.1943,,983.5522,984.5181,0,1,left,984.5204,986.2692,1,1,right,0,986.2694,986.2694,986.2719,987.7591,0,0,0,0,1,0.8,0.2,0.2,0.8,,,,,,,,,,,,,,,0.4263,,0.6,0.4,0.8,0.2,0.4,0.6,0.8,0.2,,,1.2078,,0.6,0.4,0.8,0.2,0.2,0.8,0.2,0.8,1,0
,,66a2d042a6eb6d2766577b3f,66fcbb6a30ac4abac8a66007,2024-10-02_04h23.56.463,mdp,2024.2.1,Win32,29.85074627,66fa4ebf79326e780c390304,,,,,,,,,,,,,,,,,,,,,987.7605,987.7605,987.7632,988.5059,0,0,left,0.2268,,988.508,989.2745,0,0,left,989.276,989.9953,0,1,left,0,989.9953,989.9953,989.9984,991.4867,0,1,1,1,1,0.8,0.2,0.2,0.8,,,,,,,,,,,,,,,0.2204,,0.6,0.4,0.8,0.2,0.4,0.6,0.8,0.2,,,0.1652,,0.6,0.4,0.8,0.2,0.2,0.8,0.2,0.8,1,0
,,66a2d042a6eb6d2766577b3f,66fcbb6a30ac4abac8a66007,2024-10-02_04h23.56.463,mdp,2024.2.1,Win32,29.85074627,66fa4ebf79326e780c390304,,,,,,,,,,,,,,,,,,,,,991.4885,991.4885,991.4908,992.2699,0,0,left,0.2436,,992.2724,993.4733,0,1,left,993.4757,994.5592,0,1,left,0,994.5593,994.5593,994.5604,996.0557,0,2,2,2,1,0.8,0.2,0.2,0.8,,,,,,,,,,,,,,,0.6707,,0.6,0.4,0.8,0.2,0.4,0.6,0.8,0.2,,,0.5476,,0.6,0.4,0.8,0.2,0.2,0.8,0.2,0.8,1,0
,,66a2d042a6eb6d2766577b3f,66fcbb6a30ac4abac8a66007,2024-10-02_04h23.56.463,mdp,2024.2.1,Win32,29.85074627,66fa4ebf79326e780c390304,,,,,,,,,,,,,,,,,,,,,996.057,996.057,996.0587,996.6271,0,0,left,0.0159,,996.63,997.43,0,0,left,997.4325,998.2366,0,0,left,1,998.2366,998.2366,998.2388,999.7271,0,3,3,3,1,0.8,0.2,0.2,0.8,,,,,,,,,,,,,,,0.268,,0.6,0.4,0.8,0.2,0.4,0.6,0.8,0.2,,,0.2664,,0.6,0.4,0.8,0.2,0.2,0.8,0.2,0.8,1,0
,,66a2d042a6eb6d2766577b3f,66fcbb6a30ac4abac8a66007,2024-10-02_04h23.56.463,mdp,2024.2.1,Win32,29.85074627,66fa4ebf79326e780c390304,,,,,,,,,,,,,,,,,,,,,999.7278,999.7278,999.729,1000.3921,0,1,left,0.1348,,1000.3946,1001.2571,0,0,left,1001.2596,1002.5004,0,1,left,0,1002.5005,1002.5005,1002.5017,1004.0004,0,4,4,4,1,0.8,0.2,0.2,0.8,,,,,,,,,,,,,,,0.3295,,0.6,0.4,0.8,0.2,0.4,0.6,0.8,0.2,,,0.7089,,0.6,0.4,0.8,0.2,0.2,0.8,0.2,0.8,1,0
,,66a2d042a6eb6d2766577b3f,66fcbb6a30ac4abac8a66007,2024-10-02_04h23.56.463,mdp,2024.2.1,Win32,29.85074627,66fa4ebf79326e780c390304,,,,,,,,,,,,,,,,,,,,,1004.0023,1004.0023,1004.0055,1004.6258,0,0,left,0.087,,1004.6281,1005.3025,0,0,left,1005.305,1006.5378,1,0,right,1,1006.5379,1006.5379,1006.5399,1008.0178,0,5,5,5,1,0.8,0.2,0.2,0.8,,,,,,,,,,,,,,,0.1497,,0.6,0.4,0.8,0.2,0.4,0.6,0.8,0.2,,,0.7158,,0.6,0.4,0.8,0.2,0.2,0.8,0.2,0.8,1,0
,,66a2d042a6eb6d2766577b3f,66fcbb6a30ac4abac8a66007,2024-10-02_04h23.56.463,mdp,2024.2.1,Win32,29.85074627,66fa4ebf79326e780c390304,,,,,,,,,,,,,,,,,,,,,1008.0199,1008.02,1008.0217,1008.6485,1,1,right,0.0917,,1008.6506,1009.3262,1,0,right,1009.3288,1010.2948,1,0,right,1,1010.295,1010.295,1010.2974,1011.7909,0,6,6,6,1,0.4,0.6,0.8,0.2,,,,,,,,,,,,,,,0.1421,,0.6,0.4,0.8,0.2,0.4,0.6,0.8,0.2,,,0.4306,,0.6,0.4,0.8,0.2,0.2,0.8,0.2,0.8,1,0
,,66a2d042a6eb6d2766577b3f,66fcbb6a30ac4abac8a66007,2024-10-02_04h23.56.463,mdp,2024.2.1,Win32,29.85074627,66fa4ebf79326e780c390304,,,,,,,,,,,,,,,,,,,,,1011.7922,1011.7922,1011.7945,1012.8321,1,0,right,0.5152,,1012.8348,1014.0387,1,1,right,1014.0409,1015.1145,0,1,left,0,1015.1145,1015.1146,1015.1166,1016.6111,0,7,7,7,1,0.4,0.6,0.8,0.2,,,,,,,,,,,,,,,0.6504,,0.8,0.2,0.2,0.8,0.4,0.6,0.8,0.2,,,0.5209,,0.6,0.4,0.8,0.2,0.2,0.8,0.2,0.8,1,0
,,66a2d042a6eb6d2766577b3f,66fcbb6a30ac4abac8a66007,2024-10-02_04h23.56.463,mdp,2024.2.1,Win32,29.85074627,66fa4ebf79326e780c390304,,,,,,,,,,,,,,,,,,,,,1016.612,1016.612,1016.614,1017.3312,1,0,right,0.2012,,1017.3336,1017.9718,1,0,right,1017.974,1019.3299,0,0,left,1,1019.33,1019.33,1019.3313,1020.8576,0,8,8,8,1,0.4,0.6,0.8,0.2,,,,,,,,,,,,,,,0.1104,,0.8,0.2,0.2,0.8,0.4,0.6,0.8,0.2,,,0.8198,,0.6,0.4,0.8,0.2,0.2,0.8,0.2,0.8,1,0
,,66a2d042a6eb6d2766577b3f,66fcbb6a30ac4abac8a66007,2024-10-02_04h23.56.463,mdp,2024.2.1,Win32,29.85074627,66fa4ebf79326e780c390304,,,,,,,,,,,,,,,,,,,,,1020.859,1020.8591,1020.861,1021.4896,1,0,right,0.1134,,1021.4922,1022.1397,1,1,right,1022.1413,1023.8652,1,1,right,0,1023.8653,1023.8653,1023.8674,1025.3631,0,9,9,9,1,0.4,0.6,0.8,0.2,,,,,,,,,,,,,,,0.119,,0.8,0.2,0.2,0.8,0.4,0.6,0.8,0.2,,,1.1881,,0.6,0.4,0.8,0.2,0.2,0.8,0.2,0.8,1,0
,,66a2d042a6eb6d2766577b3f,66fcbb6a30ac4abac8a66007,2024-10-02_04h23.56.463,mdp,2024.2.1,Win32,29.85074627,66fa4ebf79326e780c390304,,,,,,,,,,,,,,,,,,,,,1025.3639,1025.3639,1025.3658,1026.1523,1,1,right,0.2534,,1026.1546,1026.8917,1,0,right,1026.8941,1028.0741,1,0,right,1,1028.0741,1028.0742,1028.0764,1029.5679,0,10,10,10,1,0.4,0.6,0.8,0.2,,,,,,,,,,,,,,,0.2003,,0.2,0.8,0.4,0.6,0.4,0.6,0.8,0.2,,,0.6461,,0.6,0.4,0.8,0.2,0.2,0.8,0.2,0.8,1,0
,,66a2d042a6eb6d2766577b3f,66fcbb6a30ac4abac8a66007,2024-10-02_04h23.56.463,mdp,2024.2.1,Win32,29.85074627,66fa4ebf79326e780c390304,,,,,,,,,,,,,,,,,,,,,1029.5691,1029.5691,1029.5714,1030.2372,1,0,right,0.1437,,1030.2396,1031.1653,1,1,right,1031.1664,1032.284,0,0,left,1,1032.2841,1032.2841,1032.2854,1033.7832,0,11,11,11,1,0.4,0.6,0.8,0.2,,,,,,,,,,,,,,,0.3696,,0.2,0.8,0.4,0.6,0.4,0.6,0.8,0.2,,,0.5833,,0.6,0.4,0.8,0.2,0.2,0.8,0.2,0.8,1,0
,,66a2d042a6eb6d2766577b3f,66fcbb6a30ac4abac8a66007,2024-10-02_04h23.56.463,mdp,2024.2.1,Win32,29.85074627,66fa4ebf79326e780c390304,,,,,,,,,,,,,,,,,,,,,1033.7841,1033.7841,1033.7865,1034.6863,1,0,right,0.3879,,1034.6884,1035.4742,1,0,right,1035.4766,1036.709,1,0,right,1,1036.7092,1036.7093,1036.7117,1038.2112,0,12,12,12,1,0.4,0.6,0.8,0.2,,,,,,,,,,,,,,,0.2474,,0.2,0.8,0.4,0.6,0.4,0.6,0.8,0.2,,,0.6928,,0.6,0.4,0.8,0.2,0.2,0.8,0.2,0.8,1,0
,,66a2d042a6eb6d2766577b3f,66fcbb6a30ac4abac8a66007,2024-10-02_04h23.56.463,mdp,2024.2.1,Win32,29.85074627,66fa4ebf79326e780c390304,,,,,,,,,,,,,,,,,,,,,1038.212,1038.2121,1038.2144,1038.9484,0,0,left,0.1976,,1038.9504,1039.6488,0,1,left,1039.6511,1040.2816,0,0,left,1,1040.2817,1040.2817,1040.2839,1041.787,0,13,13,13,1,0.4,0.6,0.8,0.2,,,,,,,,,,,,,,,0.1726,,0.2,0.8,0.4,0.6,0.4,0.6,0.8,0.2,,,0.0979,,0.6,0.4,0.8,0.2,0.6,0.4,0.6,0.4,1,0
,,66a2d042a6eb6d2766577b3f,66fcbb6a30ac4abac8a66007,2024-10-02_04h23.56.463,mdp,2024.2.1,Win32,29.85074627,66fa4ebf79326e780c390304,,,,,,,,,,,,,,,,,,,,,1041.7877,1041.7877,1041.7898,1042.6387,1,0,right,0.3141,,1042.641,1043.2949,1,1,right,1043.296,1043.9617,1,0,right,1,1043.9619,1043.9619,1043.9643,1045.4738,0,14,14,14,1,0.4,0.6,0.8,0.2,,,,,,,,,,,,,,,0.1283,,0.2,0.8,0.4,0.6,0.4,0.6,0.8,0.2,,,0.131,,0.6,0.4,0.8,0.2,0.6,0.4,0.6,0.4,1,0
,,66a2d042a6eb6d2766577b3f,66fcbb6a30ac4abac8a66007,2024-10-02_04h23.56.463,mdp,2024.2.1,Win32,29.85074627,66fa4ebf79326e780c390304,,,,,,,,,,,,,,,,,,,,,1045.475,1045.475,1045.4768,1046.1146,0,1,left,0.1052,,1046.1167,1046.7858,0,0,left,1046.7885,1047.4244,0,1,left,0,1047.4246,1047.4246,1047.4272,1048.9128,0,15,15,15,1,0.4,0.6,0.8,0.2,,,,,,,,,,,,,,,0.1289,,0.2,0.8,0.4,0.6,0.4,0.6,0.8,0.2,,,0.1024,,0.6,0.4,0.8,0.2,0.6,0.4,0.6,0.4,1,0
,,66a2d042a6eb6d2766577b3f,66fcbb6a30ac4abac8a66007,2024-10-02_04h23.56.463,mdp,2024.2.1,Win32,29.85074627,66fa4ebf79326e780c390304,,,,,,,,,,,,,,,,,,,,,1048.914,1048.914,1048.9166,1049.6286,1,1,right,0.1893,,1049.6313,1050.5471,1,0,right,1050.5495,1051.304,0,1,left,0,1051.3042,1051.3043,1051.3053,1052.8004,0,16,16,16,1,0.4,0.6,0.8,0.2,,,,,,,,,,,,,,,0.3877,,0.2,0.8,0.4,0.6,0.4,0.6,0.8,0.2,,,0.2257,,0.6,0.4,0.8,0.2,0.6,0.4,0.6,0.4,1,0
,,66a2d042a6eb6d2766577b3f,66fcbb6a30ac4abac8a66007,2024-10-02_04h23.56.463,mdp,2024.2.1,Win32,29.85074627,66fa4ebf79326e780c390304,,,,,,,,,,,,,,,,,,,,,1052.8013,1052.8013,1052.8034,1053.4882,1,0,right,0.1683,,1053.4914,1054.0729,1,1,right,1054.075,1054.9797,1,0,right,1,1054.9798,1054.9799,1054.9822,1056.4916,0,17,17,17,1,0.4,0.6,0.8,0.2,,,,,,,,,,,,,,,0.045,,0.2,0.8,0.4,0.6,0.4,0.6,0.8,0.2,,,0.3398,,0.6,0.4,0.8,0.2,0.6,0.4,0.6,0.4,1,0
,,66a2d042a6eb6d2766577b3f,66fcbb6a30ac4abac8a66007,2024-10-02_04h23.56.463,mdp,2024.2.1,Win32,29.85074627,66fa4ebf79326e780c390304,,,,,,,,,,,,,,,,,,,,,1056.4924,1056.4924,1056.495,1057.1624,0,1,left,0.1526,,1057.165,1057.8132,0,0,left,1057.8154,1058.4311,0,1,left,0,1058.4317,1058.4317,1058.4345,1059.9255,0,18,18,18,1,0.4,0.6,0.8,0.2,,,,,,,,,,,,,,,0.1031,,0.2,0.8,0.4,0.6,0.4,0.6,0.8,0.2,,,0.0687,,0.2,0.8,0.6,0.4,0.6,0.4,0.6,0.4,1,0
,,66a2d042a6eb6d2766577b3f,66fcbb6a30ac4abac8a66007,2024-10-02_04h23.56.463,mdp,2024.2.1,Win32,29.85074627,66fa4ebf79326e780c390304,,,,,,,,,,,,,,,,,,,,,1059.9271,1059.9272,1059.9294,1060.6873,1,1,right,0.2445,,1060.6884,1061.3157,1,0,right,1061.3174,1062.0079,1,1,right,0,1062.0082,1062.0082,1062.0107,1063.4924,0,19,19,19,1,0.4,0.6,0.8,0.2,,,,,,,,,,,,,,,0.0984,,0.2,0.8,0.4,0.6,0.4,0.6,0.8,0.2,,,0.1678,,0.2,0.8,0.6,0.4,0.6,0.4,0.6,0.4,1,0
,,66a2d042a6eb6d2766577b3f,66fcbb6a30ac4abac8a66007,2024-10-02_04h23.56.463,mdp,2024.2.1,Win32,29.85074627,66fa4ebf79326e780c390304,,,,,,,,,,,,,,,,,,,,,1063.4939,1063.4939,1063.4958,1064.3465,1,0,right,0.3095,,1064.3491,1064.8924,1,1,right,1064.8938,1065.6172,1,0,right,1,1065.6175,1065.6175,1065.6191,1067.1128,0,20,20,20,1,0.4,0.6,0.8,0.2,,,,,,,,,,,,,,,0.0009,,0.2,0.8,0.4,0.6,0.4,0.6,0.8,0.2,,,0.1988,,0.2,0.8,0.6,0.4,0.6,0.4,0.6,0.4,1,0
,,66a2d042a6eb6d2766577b3f,66fcbb6a30ac4abac8a66007,2024-10-02_04h23.56.463,mdp,2024.2.1,Win32,29.85074627,66fa4ebf79326e780c390304,,,,,,,,,,,,,,,,,,,,,1067.114,1067.114,1067.1153,1067.8739,0,0,left,0.2064,,1067.8768,1068.4452,0,1,left,1068.4475,1069.0894,0,0,left,1,1069.0894,1069.0894,1069.0917,1070.5771,0,21,21,21,1,0.4,0.6,0.8,0.2,,,,,,,,,,,,,,,0.0283,,0.2,0.8,0.4,0.6,0.4,0.6,0.8,0.2,,,0.1285,,0.2,0.8,0.6,0.4,0.6,0.4,0.6,0.4,1,0
,,66a2d042a6eb6d2766577b3f,66fcbb6a30ac4abac8a66007,2024-10-02_04h23.56.463,mdp,2024.2.1,Win32,29.85074627,66fa4ebf79326e780c390304,,,,,,,,,,,,,,,,,,,,,1070.578,1070.5781,1070.5805,1071.3441,1,0,right,0.2462,,1071.3457,1071.9909,1,0,right,1071.994,1072.5789,1,0,right,1,1072.579,1072.579,1072.5807,1074.0703,0,22,22,22,1,0.4,0.6,0.8,0.2,,,,,,,,,,,,,,,0.1105,,0.2,0.8,0.4,0.6,0.4,0.6,0.8,0.2,,,0.0479,,0.2,0.8,0.6,0.4,0.6,0.4,0.6,0.4,1,0
,,66a2d042a6eb6d2766577b3f,66fcbb6a30ac4abac8a66007,2024-10-02_04h23.56.463,mdp,2024.2.1,Win32,29.85074627,66fa4ebf79326e780c390304,,,,,,,,,,,,,,,,,,,,,1074.0712,1074.0712,1074.0735,1074.7872,0,0,left,0.1816,,1074.7889,1075.5077,0,1,left,1075.5101,1076.5415,0,1,left,0,1076.5416,1076.5416,1076.5437,1078.0365,0,23,23,23,1,0.4,0.6,0.8,0.2,,,,,,,,,,,,,,,0.1921,,0.2,0.8,0.4,0.6,0.4,0.6,0.8,0.2,,,0.4809,,0.2,0.8,0.6,0.4,0.2,0.8,0.4,0.6,1,0
,,66a2d042a6eb6d2766577b3f,66fcbb6a30ac4abac8a66007,2024-10-02_04h23.56.463,mdp,2024.2.1,Win32,29.85074627,66fa4ebf79326e780c390304,,,,,,,,,,,,,,,,,,,,,1078.0376,1078.0377,1078.0393,1078.5556,0,1,left,0.0011,,1078.5572,1079.1446,0,0,left,1079.1473,1079.7984,0,1,left,0,1079.7984,1079.7984,1079.7997,1081.2927,0,24,24,24,1,0.4,0.6,0.8,0.2,,,,,,,,,,,,,,,0.028,,0.2,0.8,0.4,0.6,0.4,0.6,0.8,0.2,,,0.1066,,0.2,0.8,0.6,0.4,0.2,0.8,0.4,0.6,1,0
,,66a2d042a6eb6d2766577b3f,66fcbb6a30ac4abac8a66007,2024-10-02_04h23.56.463,mdp,2024.2.1,Win32,29.85074627,66fa4ebf79326e780c390304,,,,,,,,,,,,,,,,,,,,,1081.2943,1081.2943,1081.2966,1082.6405,0,0,left,0.8162,,1082.6425,1083.2181,0,1,left,1083.2195,1083.8351,0,1,left,0,1083.8353,1083.8353,1083.8366,1085.3249,0,25,25,25,1,0.4,0.6,0.8,0.2,,,,,,,,,,,,,,,0.0428,,0.2,0.8,0.4,0.6,0.6,0.4,0.4,0.6,,,0.0837,,0.2,0.8,0.6,0.4,0.2,0.8,0.4,0.6,1,0
,,66a2d042a6eb6d2766577b3f,66fcbb6a30ac4abac8a66007,2024-10-02_04h23.56.463,mdp,2024.2.1,Win32,29.85074627,66fa4ebf79326e780c390304,,,,,,,,,,,,,,,,,,,,,1085.3259,1085.326,1085.3275,1085.8816,1,0,right,0.0006,,1085.884,1086.5211,1,1,right,1086.5236,1087.2893,1,0,right,1,1087.2895,1087.2896,1087.2916,1088.7887,0,26,26,26,1,0.4,0.6,0.8,0.2,,,,,,,,,,,,,,,0.1023,,0.2,0.8,0.4,0.6,0.6,0.4,0.4,0.6,,,0.2525,,0.2,0.8,0.6,0.4,0.2,0.8,0.4,0.6,1,0
,,66a2d042a6eb6d2766577b3f,66fcbb6a30ac4abac8a66007,2024-10-02_04h23.56.463,mdp,2024.2.1,Win32,29.85074627,66fa4ebf79326e780c390304,,,,,,,,,,,,,,,,,,,,,1088.7896,1088.7896,1088.7918,1089.4593,0,1,left,0.151,,1089.461,1090.0507,0,0,left,1090.0529,1091.148,0,1,left,0,1091.1482,1091.1482,1091.1505,1092.6472,0,27,27,27,1,0.4,0.6,0.8,0.2,,,,,,,,,,,,,,,0.0527,,0.2,0.8,0.4,0.6,0.6,0.4,0.4,0.6,,,0.563,,0.2,0.8,0.6,0.4,0.2,0.8,0.4,0.6,1,0
,,66a2d042a6eb6d2766577b3f,66fcbb6a30ac4abac8a66007,2024-10-02_04h23.56.463,mdp,2024.2.1,Win32,29.85074627,66fa4ebf79326e780c390304,,,,,,,,,,,,,,,,,,,,,1092.6483,1092.6483,1092.6498,1093.3862,1,0,right,0.2215,,1093.389,1094.0261,1,1,right,1094.028,1095.2729,1,0,right,1,1095.2729,1095.2729,1095.2745,1096.7705,0,28,28,28,1,0.4,0.6,0.8,0.2,,,,,,,,,,,,,,,0.1109,,0.2,0.8,0.4,0.6,0.6,0.4,0.4,0.6,,,0.7039,,0.2,0.8,0.6,0.4,0.2,0.8,0.4,0.6,1,0
,,66a2d042a6eb6d2766577b3f,66fcbb6a30ac4abac8a66007,2024-10-02_04h23.56.463,mdp,2024.2.1,Win32,29.85074627,66fa4ebf79326e780c390304,,,,,,,,,,,,,,,,,,,,,1096.7715,1096.7716,1096.7738,1097.3395,1,0,right,0.0381,,1097.3419,1098.0129,1,0,right,1098.0156,1099.0619,1,0,right,1,1099.0621,1099.0621,1099.0644,1100.5677,0,29,29,29,1,0.4,0.6,0.8,0.2,,,,,,,,,,,,,,,0.1533,,0.2,0.8,0.4,0.6,0.6,0.4,0.4,0.6,,,0.4782,,0.2,0.8,0.6,0.4,0.2,0.8,0.4,0.6,1,0
,,66a2d042a6eb6d2766577b3f,66fcbb6a30ac4abac8a66007,2024-10-02_04h23.56.463,mdp,2024.2.1,Win32,29.85074627,66fa4ebf79326e780c390304,,,,,,,,,,,,,,,,,,,,,1100.5687,1100.5687,1100.5713,1101.4384,1,0,right,0.3539,,1101.4411,1102.3593,1,0,right,1102.3609,1103.201,1,0,right,1,1103.2011,1103.2011,1103.2035,1104.7074,0,30,30,30,1,0.2,0.8,0.6,0.4,,,,,,,,,,,,,,,0.4047,,0.2,0.8,0.4,0.6,0.6,0.4,0.4,0.6,,,0.3023,,0.2,0.8,0.6,0.4,0.2,0.8,0.4,0.6,1,0
,,66a2d042a6eb6d2766577b3f,66fcbb6a30ac4abac8a66007,2024-10-02_04h23.56.463,mdp,2024.2.1,Win32,29.85074627,66fa4ebf79326e780c390304,,,,,,,,,,,,,,,,,,,,,1104.7089,1104.709,1104.7117,1105.3027,1,1,right,0.0678,,1105.3038,1106.0115,1,1,right,1106.013,1106.7151,1,1,right,0,1106.7152,1106.7152,1106.7172,1108.2073,0,31,31,31,1,0.2,0.8,0.6,0.4,,,,,,,,,,,,,,,0.1667,,0.2,0.8,0.4,0.6,0.6,0.4,0.4,0.6,,,0.179,,0.2,0.8,0.6,0.4,0.2,0.8,0.4,0.6,1,0
,,66a2d042a6eb6d2766577b3f,66fcbb6a30ac4abac8a66007,2024-10-02_04h23.56.463,mdp,2024.2.1,Win32,29.85074627,66fa4ebf79326e780c390304,,,,,,,,,,,,,,,,,,,,,1108.208,1108.208,1108.2101,1109.088,1,0,right,0.3552,,1109.0903,1109.8951,1,0,right,1109.8964,1110.4349,0,0,left,1,1110.435,1110.435,1110.4374,1111.9263,0,32,32,32,1,0.2,0.8,0.6,0.4,,,,,,,,,,,,,,,0.2686,,0.2,0.8,0.4,0.6,0.6,0.4,0.4,0.6,,,0.0008,,0.2,0.8,0.6,0.4,0.2,0.8,0.4,0.6,1,0
,,66a2d042a6eb6d2766577b3f,66fcbb6a30ac4abac8a66007,2024-10-02_04h23.56.463,mdp,2024.2.1,Win32,29.85074627,66fa4ebf79326e780c390304,,,,,,,,,,,,,,,,,,,,,1111.9275,1111.9276,1111.9299,1112.6973,0,0,left,0.2366,,1112.6997,1113.3512,0,1,left,1113.3532,1113.9732,0,0,left,1,1113.9734,1113.9734,1113.9755,1115.4748,0,33,33,33,1,0.2,0.8,0.6,0.4,,,,,,,,,,,,,,,0.1213,,0.2,0.8,0.4,0.6,0.6,0.4,0.4,0.6,,,0.0863,,0.2,0.8,0.6,0.4,0.6,0.4,0.2,0.8,1,0
,,66a2d042a6eb6d2766577b3f,66fcbb6a30ac4abac8a66007,2024-10-02_04h23.56.463,mdp,2024.2.1,Win32,29.85074627,66fa4ebf79326e780c390304,,,,,,,,,,,,,,,,,,,,,1115.4755,1115.4755,1115.478,1116.2409,0,1,left,0.2317,,1116.2432,1116.8562,0,1,left,1116.8579,1117.4952,0,1,left,0,1117.4953,1117.4953,1117.498,1118.9975,0,34,34,34,1,0.2,0.8,0.6,0.4,,,,,,,,,,,,,,,0.0753,,0.2,0.8,0.4,0.6,0.6,0.4,0.4,0.6,,,0.1009,,0.2,0.8,0.6,0.4,0.6,0.4,0.2,0.8,1,0
,,66a2d042a6eb6d2766577b3f,66fcbb6a30ac4abac8a66007,2024-10-02_04h23.56.463,mdp,2024.2.1,Win32,29.85074627,66fa4ebf79326e780c390304,,,,,,,,,,,,,,,,,,,,,1118.9983,1118.9984,1119.0008,1119.5677,0,1,left,0.0563,,1119.5703,1120.2991,0,0,left,1120.3004,1120.9487,1,0,right,1,1120.9489,1120.9489,1120.9515,1122.437,0,35,35,35,1,0.2,0.8,0.6,0.4,,,,,,,,,,,,,,,0.219,,0.2,0.8,0.4,0.6,0.6,0.4,0.4,0.6,,,0.1142,,0.2,0.8,0.6,0.4,0.6,0.4,0.2,0.8,1,0
,,66a2d042a6eb6d2766577b3f,66fcbb6a30ac4abac8a66007,2024-10-02_04h23.56.463,mdp,2024.2.1,Win32,29.85074627,66fa4ebf79326e780c390304,,,,,,,,,,,,,,,,,,,,,1122.4377,1122.4377,1122.4403,1123.0371,1,1,right,0.0667,,1123.0396,1123.8048,1,1,right,1123.8068,1124.5087,1,0,right,1,1124.5089,1124.5089,1124.5112,1126.0007,0,36,36,36,1,0.2,0.8,0.6,0.4,,,,,,,,,,,,,,,0.2421,,0.2,0.8,0.4,0.6,0.6,0.4,0.4,0.6,,,0.1631,,0.2,0.8,0.6,0.4,0.6,0.4,0.2,0.8,1,0
,,66a2d042a6eb6d2766577b3f,66fcbb6a30ac4abac8a66007,2024-10-02_04h23.56.463,mdp,2024.2.1,Win32,29.85074627,66fa4ebf79326e780c390304,,,,,,,,,,,,,,,,,,,,,1126.0017,1126.0017,1126.0045,1126.9051,1,0,right,0.3563,,1126.9076,1127.6674,1,1,right,1127.6697,1128.8738,1,0,right,1,1128.8738,1128.8738,1128.8764,1130.3728,0,37,37,37,1,0.2,0.8,0.6,0.4,,,,,,,,,,,,,,,0.2229,,0.2,0.8,0.4,0.6,0.6,0.4,0.4,0.6,,,0.6755,,0.2,0.8,0.6,0.4,0.6,0.4,0.2,0.8,1,0
,,66a2d042a6eb6d2766577b3f,66fcbb6a30ac4abac8a66007,2024-10-02_04h23.56.463,mdp,2024.2.1,Win32,29.85074627,66fa4ebf79326e780c390304,,,,,,,,,,,,,,,,,,,,,1130.3737,1130.3738,1130.376,1131.1312,1,1,right,0.2425,,1131.1334,1131.8482,1,0,right,1131.8504,1132.613,1,0,right,1,1132.613,1132.6131,1132.6142,1134.114,0,38,38,38,1,0.2,0.8,0.6,0.4,,,,,,,,,,,,,,,0.1655,,0.2,0.8,0.4,0.6,0.6,0.4,0.4,0.6,,,0.2297,,0.2,0.8,0.6,0.4,0.6,0.4,0.2,0.8,1,0
,,66a2d042a6eb6d2766577b3f,66fcbb6a30ac4abac8a66007,2024-10-02_04h23.56.463,mdp,2024.2.1,Win32,29.85074627,66fa4ebf79326e780c390304,,,,,,,,,,,,,,,,,,,,,1134.1148,1134.1149,1134.1175,1134.7557,1,0,right,0.1205,,1134.7582,1135.4238,1,1,right,1135.425,1136.1372,1,0,right,1,1136.1373,1136.1373,1136.1395,1137.6325,0,39,39,39,1,0.2,0.8,0.6,0.4,,,,,,,,,,,,,,,0.1151,,0.2,0.8,0.4,0.6,0.6,0.4,0.4,0.6,,,0.1624,,0.2,0.8,0.6,0.4,0.6,0.4,0.2,0.8,1,0
,,66a2d042a6eb6d2766577b3f,66fcbb6a30ac4abac8a66007,2024-10-02_04h23.56.463,mdp,2024.2.1,Win32,29.85074627,66fa4ebf79326e780c390304,,,,,,,,,,,,,,,,,,,,,1137.6339,1137.6339,1137.6361,1138.3846,1,0,right,0.2106,,1138.3867,1139.148,1,0,right,1139.1503,1140.1444,1,0,right,1,1140.1445,1140.1445,1140.1468,1141.6341,0,40,40,40,1,0.2,0.8,0.6,0.4,,,,,,,,,,,,,,,0.2278,,0.2,0.8,0.4,0.6,0.6,0.4,0.4,0.6,,,0.4297,,0.2,0.8,0.6,0.4,0.6,0.4,0.2,0.8,1,0
,,66a2d042a6eb6d2766577b3f,66fcbb6a30ac4abac8a66007,2024-10-02_04h23.56.463,mdp,2024.2.1,Win32,29.85074627,66fa4ebf79326e780c390304,,,,,,,,,,,,,,,,,,,,,1141.6354,1141.6355,1141.6378,1142.4692,1,0,right,0.3023,,1142.4714,1143.2078,1,1,right,1143.2106,1144.2329,1,1,right,0,1144.233,1144.233,1144.2342,1145.7322,0,41,41,41,1,0.2,0.8,0.6,0.4,,,,,,,,,,,,,,,0.2187,,0.2,0.8,0.4,0.6,0.6,0.4,0.4,0.6,,,0.4902,,0.2,0.8,0.6,0.4,0.6,0.4,0.2,0.8,1,0
,,66a2d042a6eb6d2766577b3f,66fcbb6a30ac4abac8a66007,2024-10-02_04h23.56.463,mdp,2024.2.1,Win32,29.85074627,66fa4ebf79326e780c390304,,,,,,,,,,,,,,,,,,,,,1145.7335,1145.7335,1145.7347,1146.6505,1,0,right,0.3543,,1146.653,1147.4067,1,0,right,1147.4089,1148.2325,1,1,right,0,1148.2326,1148.2326,1148.2345,1149.7249,0,42,42,42,1,0.2,0.8,0.6,0.4,,,,,,,,,,,,,,,0.2068,,0.2,0.8,0.4,0.6,0.6,0.4,0.4,0.6,,,0.282,,0.8,0.2,0.4,0.6,0.6,0.4,0.2,0.8,1,0
,,66a2d042a6eb6d2766577b3f,66fcbb6a30ac4abac8a66007,2024-10-02_04h23.56.463,mdp,2024.2.1,Win32,29.85074627,66fa4ebf79326e780c390304,,,,,,,,,,,,,,,,,,,,,1149.7261,1149.7262,1149.7288,1150.478,1,1,right,0.2304,,1150.4801,1151.2423,1,1,right,1151.2447,1152.3847,0,1,left,0,1152.3848,1152.3848,1152.3858,1153.8792,0,43,43,43,1,0.2,0.8,0.6,0.4,,,,,,,,,,,,,,,0.197,,0.2,0.8,0.4,0.6,0.6,0.4,0.4,0.6,,,0.5985,,0.8,0.2,0.4,0.6,0.6,0.4,0.2,0.8,1,0
,,66a2d042a6eb6d2766577b3f,66fcbb6a30ac4abac8a66007,2024-10-02_04h23.56.463,mdp,2024.2.1,Win32,29.85074627,66fa4ebf79326e780c390304,,,,,,,,,,,,,,,,,,,,,1153.8802,1153.8802,1153.8826,1154.5496,0,1,left,0.1395,,1154.5515,1155.3101,0,0,left,1155.3121,1155.9915,0,0,left,1,1155.9916,1155.9916,1155.995,1157.5006,0,44,44,44,1,0.2,0.8,0.6,0.4,,,,,,,,,,,,,,,0.2297,,0.2,0.8,0.4,0.6,0.6,0.4,0.4,0.6,,,0.1333,,0.8,0.2,0.4,0.6,0.6,0.4,0.2,0.8,1,0
,,66a2d042a6eb6d2766577b3f,66fcbb6a30ac4abac8a66007,2024-10-02_04h23.56.463,mdp,2024.2.1,Win32,29.85074627,66fa4ebf79326e780c390304,,,,,,,,,,,,,,,,,,,,,1157.5026,1157.5027,1157.5045,1158.4071,0,0,left,0.3488,,1158.4093,1159.2523,0,0,left,1159.2552,1160.0122,0,1,left,0,1160.0123,1160.0123,1160.0147,1161.5031,0,45,45,45,1,0.2,0.8,0.6,0.4,,,,,,,,,,,,,,,0.2865,,0.2,0.8,0.4,0.6,0.6,0.4,0.4,0.6,,,0.234,,0.8,0.2,0.4,0.6,0.6,0.4,0.2,0.8,1,0
,,66a2d042a6eb6d2766577b3f,66fcbb6a30ac4abac8a66007,2024-10-02_04h23.56.463,mdp,2024.2.1,Win32,29.85074627,66fa4ebf79326e780c390304,,,,,,,,,,,,,,,,,,,,,1161.5049,1161.5049,1161.5074,1162.073,0,1,left,0.0463,,1162.075,1162.936,0,0,left,1162.9385,1163.771,0,0,left,1,1163.7712,1163.7712,1163.7736,1165.2819,0,46,46,46,1,0.2,0.8,0.6,0.4,,,,,,,,,,,,,,,0.3221,,0.2,0.8,0.4,0.6,0.6,0.4,0.4,0.6,,,0.3022,,0.8,0.2,0.4,0.6,0.6,0.4,0.2,0.8,1,0
,,66a2d042a6eb6d2766577b3f,66fcbb6a30ac4abac8a66007,2024-10-02_04h23.56.463,mdp,2024.2.1,Win32,29.85074627,66fa4ebf79326e780c390304,,,,,,,,,,,,,,,,,,,,,1165.2831,1165.2832,1165.2857,1165.887,0,1,left,0.0835,,1165.8892,1166.4963,0,0,left,1166.4988,1167.5348,0,1,left,0,1167.535,1167.535,1167.5374,1169.0348,0,47,47,47,1,0.2,0.8,0.6,0.4,,,,,,,,,,,,,,,0.0898,,0.2,0.8,0.4,0.6,0.6,0.4,0.4,0.6,,,0.5037,,0.2,0.8,0.6,0.4,0.6,0.4,0.2,0.8,1,0
,,66a2d042a6eb6d2766577b3f,66fcbb6a30ac4abac8a66007,2024-10-02_04h23.56.463,mdp,2024.2.1,Win32,29.85074627,66fa4ebf79326e780c390304,,,,,,,,,,,,,,,,,,,,,1169.0356,1169.0356,1169.0379,1169.7411,0,1,left,0.1683,,1169.7432,1170.3436,0,1,left,1170.3447,1171.3121,0,1,left,0,1171.3122,1171.3122,1171.3144,1172.8115,0,48,48,48,1,0.2,0.8,0.6,0.4,,,,,,,,,,,,,,,0.0622,,0.2,0.8,0.4,0.6,0.6,0.4,0.4,0.6,,,0.4249,,0.2,0.8,0.6,0.4,0.6,0.4,0.2,0.8,1,0
,,66a2d042a6eb6d2766577b3f,66fcbb6a30ac4abac8a66007,2024-10-02_04h23.56.463,mdp,2024.2.1,Win32,29.85074627,66fa4ebf79326e780c390304,,,,,,,,,,,,,,,,,,,,,1172.8123,1172.8123,1172.8145,1173.9345,1,0,right,0.5956,,1173.9366,1174.7343,1,1,right,1174.7365,1175.5394,1,1,right,0,1175.5396,1175.5396,1175.5407,1177.0254,0,49,49,49,1,0.2,0.8,0.6,0.4,,,,,,,,,,,,,,,0.2639,,0.2,0.8,0.4,0.6,0.6,0.4,0.4,0.6,,,0.2696,,0.2,0.8,0.6,0.4,0.6,0.4,0.2,0.8,1,0
,,66a2d042a6eb6d2766577b3f,66fcbb6a30ac4abac8a66007,2024-10-02_04h23.56.463,mdp,2024.2.1,Win32,29.85074627,66fa4ebf79326e780c390304,,,,,,,,,,,,,,,,,,,,,,,,,,,,,,,,,,,,,,,,,,,,,,,,,,,,,,,,1177.0255,1212.5486,0,3,3,6,1,imgs/elephant.png,imgs/giraffe.png,imgs/bear.png,imgs/kangaroo.png,imgs/goat.png,,,,,,,,,,,,,,,,,,,,,,,,
,,66a2d042a6eb6d2766577b3f,66fcbb6a30ac4abac8a66007,2024-10-02_04h23.56.463,mdp,2024.2.1,Win32,29.85074627,66fa4ebf79326e780c390304,,,,,,,,,,,,,,1,seqs/st1seq30.csv,1212.5512,1214.8102,space,1.724,,1214.8147,1214.8147,1214.8174,1217.0829,0,0,left,1.7228,,1217.0854,1217.0867,1,1,,1217.0884,1217.0894,1,0,,1,1217.0894,1217.0895,1217.0912,1218.6068,0,0,0,0,1,0.6,0.4,0.4,0.6,1,0,,,,,,,,,,,,,,,,,,,,,,,,,,,,,,,,,,,,
,,66a2d042a6eb6d2766577b3f,66fcbb6a30ac4abac8a66007,2024-10-02_04h23.56.463,mdp,2024.2.1,Win32,29.85074627,66fa4ebf79326e780c390304,,,,,,,,,,,,,,,,,,,,,1218.6074,1218.6074,1218.6101,1219.4679,0,0,left,0.3436,,1219.469,1219.4697,1,1,,1219.4705,1219.4711,1,1,,1,1219.4711,1219.4711,1219.4719,1220.9649,0,1,1,1,1,0.6,0.4,0.4,0.6,1,0,,,,,,,,,,,,,,,,,,,,,,,,,,,,,,,,,,,,
,,66a2d042a6eb6d2766577b3f,66fcbb6a30ac4abac8a66007,2024-10-02_04h23.56.463,mdp,2024.2.1,Win32,29.85074627,66fa4ebf79326e780c390304,,,,,,,,,,,,,,,,,,,,,1220.9664,1220.9664,1220.9687,1221.8527,0,0,left,0.3542,,1221.8552,1221.8565,1,0,,1221.8576,1221.8585,1,0,,1,1221.8585,1221.8585,1221.8595,1223.3534,0,2,2,2,1,0.8,0.2,0.6,0.4,1,0,,,,,,,,,,,,,,,,,,,,,,,,,,,,,,,,,,,,
,,66a2d042a6eb6d2766577b3f,66fcbb6a30ac4abac8a66007,2024-10-02_04h23.56.463,mdp,2024.2.1,Win32,29.85074627,66fa4ebf79326e780c390304,,,,,,,,,,,,,,,,,,,,,1223.3551,1223.3552,1223.3574,1224.7753,0,0,left,0.8713,,1224.7778,1224.7786,1,0,,1224.7795,1224.7802,1,0,,1,1224.7802,1224.7802,1224.781,1226.2789,0,3,3,3,1,0.8,0.2,0.6,0.4,1,0,,,,,,,,,,,,,,,,,,,,,,,,,,,,,,,,,,,,
,,66a2d042a6eb6d2766577b3f,66fcbb6a30ac4abac8a66007,2024-10-02_04h23.56.463,mdp,2024.2.1,Win32,29.85074627,66fa4ebf79326e780c390304,,,,,,,,,,,,,,,,,,,,,1226.2802,1226.2803,1226.2824,1227.0051,0,1,left,0.1954,,1227.0077,1227.0085,1,0,,1227.0095,1227.0104,1,0,,0,1227.0104,1227.0104,1227.0112,1228.5108,0,4,4,4,1,0.8,0.2,0.6,0.4,1,0,,,,,,,,,,,,,,,,,,,,,,,,,,,,,,,,,,,,
,,66a2d042a6eb6d2766577b3f,66fcbb6a30ac4abac8a66007,2024-10-02_04h23.56.463,mdp,2024.2.1,Win32,29.85074627,66fa4ebf79326e780c390304,,,,,,,,,,,,,,,,,,,,,1228.5117,1228.5117,1228.513,1229.6208,1,1,right,0.5534,,1229.6219,1229.6226,1,1,,1229.6234,1229.6241,1,1,,0,1229.6241,1229.6241,1229.6248,1231.1232,0,5,5,5,1,0.8,0.2,0.6,0.4,1,0,,,,,,,,,,,,,,,,,,,,,,,,,,,,,,,,,,,,
,,66a2d042a6eb6d2766577b3f,66fcbb6a30ac4abac8a66007,2024-10-02_04h23.56.463,mdp,2024.2.1,Win32,29.85074627,66fa4ebf79326e780c390304,,,,,,,,,,,,,,,,,,,,,1231.1248,1231.1249,1231.1274,1232.0609,0,1,left,0.418,,1232.0631,1232.0642,1,0,,1232.0654,1232.0667,1,0,,0,1232.0667,1232.0668,1232.0683,1233.5631,0,6,6,6,1,0.8,0.2,0.6,0.4,1,0,,,,,,,,,,,,,,,,,,,,,,,,,,,,,,,,,,,,
,,66a2d042a6eb6d2766577b3f,66fcbb6a30ac4abac8a66007,2024-10-02_04h23.56.463,mdp,2024.2.1,Win32,29.85074627,66fa4ebf79326e780c390304,,,,,,,,,,,,,,,,,,,,,1233.5639,1233.5639,1233.5662,1234.259,0,0,left,0.1593,,1234.2612,1234.2619,1,1,,1234.2628,1234.2633,1,0,,1,1234.2634,1234.2635,1234.264,1235.7691,0,7,7,7,1,0.8,0.2,0.6,0.4,1,0,,,,,,,,,,,,,,,,,,,,,,,,,,,,,,,,,,,,
,,66a2d042a6eb6d2766577b3f,66fcbb6a30ac4abac8a66007,2024-10-02_04h23.56.463,mdp,2024.2.1,Win32,29.85074627,66fa4ebf79326e780c390304,,,,,,,,,,,,,,,,,,,,,1235.77,1235.77,1235.7715,1236.5831,0,0,left,0.2821,,1236.5852,1236.5859,1,0,,1236.587,1236.5878,1,0,,1,1236.5878,1236.5878,1236.5887,1238.0877,0,8,8,8,1,0.8,0.2,0.6,0.4,1,0,,,,,,,,,,,,,,,,,,,,,,,,,,,,,,,,,,,,
,,66a2d042a6eb6d2766577b3f,66fcbb6a30ac4abac8a66007,2024-10-02_04h23.56.463,mdp,2024.2.1,Win32,29.85074627,66fa4ebf79326e780c390304,,,,,,,,,,,,,,,,,,,,,1238.0892,1238.0892,1238.0919,1238.8237,0,1,left,0.2199,,1238.8257,1238.8272,1,0,,1238.8279,1238.8286,1,0,,0,1238.8287,1238.8287,1238.8293,1240.3263,0,9,9,9,1,0.8,0.2,0.6,0.4,1,0,,,,,,,,,,,,,,,,,,,,,,,,,,,,,,,,,,,,
,,66a2d042a6eb6d2766577b3f,66fcbb6a30ac4abac8a66007,2024-10-02_04h23.56.463,mdp,2024.2.1,Win32,29.85074627,66fa4ebf79326e780c390304,,,,,,,,,,,,,,,,,,,,,1240.3269,1240.327,1240.3291,1241.1779,0,1,left,0.3027,,1241.1805,1241.1814,1,0,,1241.1825,1241.1834,1,0,,0,1241.1835,1241.1835,1241.1845,1242.6884,0,10,10,10,1,0.8,0.2,0.6,0.4,1,0,,,,,,,,,,,,,,,,,,,,,,,,,,,,,,,,,,,,
,,66a2d042a6eb6d2766577b3f,66fcbb6a30ac4abac8a66007,2024-10-02_04h23.56.463,mdp,2024.2.1,Win32,29.85074627,66fa4ebf79326e780c390304,,,,,,,,,,,,,,,,,,,,,1242.6893,1242.6893,1242.6906,1243.5194,1,0,right,0.3015,,1243.521,1243.5217,1,0,,1243.5226,1243.5235,1,1,,1,1243.5237,1243.5237,1243.5249,1245.027,0,11,11,11,1,0.8,0.2,0.6,0.4,1,0,,,,,,,,,,,,,,,,,,,,,,,,,,,,,,,,,,,,
,,66a2d042a6eb6d2766577b3f,66fcbb6a30ac4abac8a66007,2024-10-02_04h23.56.463,mdp,2024.2.1,Win32,29.85074627,66fa4ebf79326e780c390304,,,,,,,,,,,,,,,,,,,,,1245.0285,1245.0286,1245.0314,1245.7992,1,0,right,0.2447,,1245.802,1245.8028,1,0,,1245.8038,1245.8046,1,1,,1,1245.8046,1245.8046,1245.8053,1247.3142,0,12,12,12,1,0.8,0.2,0.6,0.4,1,0,,,,,,,,,,,,,,,,,,,,,,,,,,,,,,,,,,,,
,,66a2d042a6eb6d2766577b3f,66fcbb6a30ac4abac8a66007,2024-10-02_04h23.56.463,mdp,2024.2.1,Win32,29.85074627,66fa4ebf79326e780c390304,,,,,,,,,,,,,,,,,,,,,1247.3152,1247.3152,1247.3163,1247.9874,1,1,right,0.143,,1247.9904,1247.9915,1,1,,1247.9926,1247.9941,1,0,,0,1247.9942,1247.9942,1247.9957,1249.4895,0,13,13,13,1,0.8,0.2,0.6,0.4,1,0,,,,,,,,,,,,,,,,,,,,,,,,,,,,,,,,,,,,
,,66a2d042a6eb6d2766577b3f,66fcbb6a30ac4abac8a66007,2024-10-02_04h23.56.463,mdp,2024.2.1,Win32,29.85074627,66fa4ebf79326e780c390304,,,,,,,,,,,,,,,,,,,,,1249.4904,1249.4905,1249.4918,1250.0937,1,0,right,0.0807,,1250.0959,1250.0967,1,0,,1250.0975,1250.0982,1,0,,1,1250.0982,1250.0982,1250.099,1251.5911,0,14,14,14,1,0.8,0.2,0.6,0.4,1,0,,,,,,,,,,,,,,,,,,,,,,,,,,,,,,,,,,,,
,,66a2d042a6eb6d2766577b3f,66fcbb6a30ac4abac8a66007,2024-10-02_04h23.56.463,mdp,2024.2.1,Win32,29.85074627,66fa4ebf79326e780c390304,,,,,,,,,,,,,,,,,,,,,1251.5919,1251.5919,1251.5939,1252.2444,1,0,right,0.1387,,1252.2463,1252.248,1,1,,1252.2489,1252.2495,1,0,,1,1252.2495,1252.2495,1252.2502,1253.7422,0,15,15,15,1,0.8,0.2,0.6,0.4,1,0,,,,,,,,,,,,,,,,,,,,,,,,,,,,,,,,,,,,
,,66a2d042a6eb6d2766577b3f,66fcbb6a30ac4abac8a66007,2024-10-02_04h23.56.463,mdp,2024.2.1,Win32,29.85074627,66fa4ebf79326e780c390304,,,,,,,,,,,,,,,,,,,,,1253.7428,1253.7428,1253.7455,1254.594,1,0,right,0.3366,,1254.5957,1254.5964,1,1,,1254.5973,1254.598,1,0,,1,1254.598,1254.5981,1254.5992,1256.1007,0,16,16,16,1,0.4,0.6,0.8,0.2,1,0,,,,,,,,,,,,,,,,,,,,,,,,,,,,,,,,,,,,
,,66a2d042a6eb6d2766577b3f,66fcbb6a30ac4abac8a66007,2024-10-02_04h23.56.463,mdp,2024.2.1,Win32,29.85074627,66fa4ebf79326e780c390304,,,,,,,,,,,,,,,,,,,,,1256.1024,1256.1024,1256.1047,1256.7516,1,1,right,0.1171,,1256.7537,1256.7548,1,1,,1256.7556,1256.7561,1,0,,0,1256.7561,1256.7561,1256.7569,1258.2501,0,17,17,17,1,0.4,0.6,0.8,0.2,1,0,,,,,,,,,,,,,,,,,,,,,,,,,,,,,,,,,,,,
,,66a2d042a6eb6d2766577b3f,66fcbb6a30ac4abac8a66007,2024-10-02_04h23.56.463,mdp,2024.2.1,Win32,29.85074627,66fa4ebf79326e780c390304,,,,,,,,,,,,,,,,,,,,,1258.2512,1258.2512,1258.2533,1258.8401,0,0,left,0.0636,,1258.8415,1258.8421,1,1,,1258.8429,1258.8435,1,1,,1,1258.8435,1258.8435,1258.8442,1260.3262,0,18,18,18,1,0.4,0.6,0.8,0.2,1,0,,,,,,,,,,,,,,,,,,,,,,,,,,,,,,,,,,,,
,,66a2d042a6eb6d2766577b3f,66fcbb6a30ac4abac8a66007,2024-10-02_04h23.56.463,mdp,2024.2.1,Win32,29.85074627,66fa4ebf79326e780c390304,,,,,,,,,,,,,,,,,,,,,1260.3268,1260.3268,1260.3294,1261.2028,1,1,right,0.3404,,1261.2041,1261.2047,1,1,,1261.2055,1261.2061,1,0,,0,1261.2061,1261.2061,1261.2069,1262.6985,0,19,19,19,1,0.4,0.6,0.8,0.2,1,0,,,,,,,,,,,,,,,,,,,,,,,,,,,,,,,,,,,,
,,66a2d042a6eb6d2766577b3f,66fcbb6a30ac4abac8a66007,2024-10-02_04h23.56.463,mdp,2024.2.1,Win32,29.85074627,66fa4ebf79326e780c390304,,,,,,,,,,,,,,,,,,,,,1262.6991,1262.6991,1262.7012,1263.2891,1,0,right,0.0747,,1263.291,1263.2918,1,0,,1263.2927,1263.2932,1,0,,1,1263.2932,1263.2932,1263.294,1264.7806,0,20,20,20,1,0.4,0.6,0.8,0.2,1,0,,,,,,,,,,,,,,,,,,,,,,,,,,,,,,,,,,,,
,,66a2d042a6eb6d2766577b3f,66fcbb6a30ac4abac8a66007,2024-10-02_04h23.56.463,mdp,2024.2.1,Win32,29.85074627,66fa4ebf79326e780c390304,,,,,,,,,,,,,,,,,,,,,1264.7815,1264.7816,1264.7832,1265.5845,1,0,right,0.2823,,1265.5869,1265.5878,1,0,,1265.5889,1265.5897,1,1,,1,1265.5897,1265.5897,1265.5905,1267.0802,0,21,21,21,1,0.4,0.6,0.8,0.2,1,0,,,,,,,,,,,,,,,,,,,,,,,,,,,,,,,,,,,,
,,66a2d042a6eb6d2766577b3f,66fcbb6a30ac4abac8a66007,2024-10-02_04h23.56.463,mdp,2024.2.1,Win32,29.85074627,66fa4ebf79326e780c390304,,,,,,,,,,,,,,,,,,,,,1267.0816,1267.0816,1267.0841,1267.7583,1,0,right,0.1348,,1267.7607,1267.7616,1,0,,1267.7626,1267.7633,1,0,,1,1267.7633,1267.7633,1267.7642,1269.2671,0,22,22,22,1,0.4,0.6,0.8,0.2,1,0,,,,,,,,,,,,,,,,,,,,,,,,,,,,,,,,,,,,
,,66a2d042a6eb6d2766577b3f,66fcbb6a30ac4abac8a66007,2024-10-02_04h23.56.463,mdp,2024.2.1,Win32,29.85074627,66fa4ebf79326e780c390304,,,,,,,,,,,,,,,,,,,,,1269.2677,1269.2677,1269.2691,1270.0246,1,0,right,0.2426,,1270.0272,1270.0279,1,1,,1270.0288,1270.0295,1,0,,1,1270.0295,1270.0295,1270.0301,1271.5371,0,23,23,23,1,0.4,0.6,0.8,0.2,1,0,,,,,,,,,,,,,,,,,,,,,,,,,,,,,,,,,,,,
,,66a2d042a6eb6d2766577b3f,66fcbb6a30ac4abac8a66007,2024-10-02_04h23.56.463,mdp,2024.2.1,Win32,29.85074627,66fa4ebf79326e780c390304,,,,,,,,,,,,,,,,,,,,,1271.5386,1271.5386,1271.5412,1272.3754,1,1,right,0.3057,,1272.3778,1272.3786,1,1,,1272.3795,1272.3802,1,0,,0,1272.3803,1272.3803,1272.381,1273.874,0,24,24,24,1,0.8,0.2,0.4,0.6,1,0,,,,,,,,,,,,,,,,,,,,,,,,,,,,,,,,,,,,
,,66a2d042a6eb6d2766577b3f,66fcbb6a30ac4abac8a66007,2024-10-02_04h23.56.463,mdp,2024.2.1,Win32,29.85074627,66fa4ebf79326e780c390304,,,,,,,,,,,,,,,,,,,,,1273.8748,1273.8749,1273.8775,1274.514,0,0,left,0.1169,,1274.5165,1274.5174,1,1,,1274.5181,1274.5187,1,0,,1,1274.5187,1274.5187,1274.5194,1276.0187,0,25,25,25,1,0.8,0.2,0.4,0.6,1,0,,,,,,,,,,,,,,,,,,,,,,,,,,,,,,,,,,,,
,,66a2d042a6eb6d2766577b3f,66fcbb6a30ac4abac8a66007,2024-10-02_04h23.56.463,mdp,2024.2.1,Win32,29.85074627,66fa4ebf79326e780c390304,,,,,,,,,,,,,,,,,,,,,1276.0197,1276.0198,1276.0221,1276.8517,0,0,left,0.3007,,1276.8539,1276.8546,1,0,,1276.8553,1276.8562,1,0,,1,1276.8563,1276.8563,1276.8579,1278.3582,0,26,26,26,1,0.8,0.2,0.4,0.6,1,0,,,,,,,,,,,,,,,,,,,,,,,,,,,,,,,,,,,,
,,66a2d042a6eb6d2766577b3f,66fcbb6a30ac4abac8a66007,2024-10-02_04h23.56.463,mdp,2024.2.1,Win32,29.85074627,66fa4ebf79326e780c390304,,,,,,,,,,,,,,,,,,,,,1278.3597,1278.3598,1278.3622,1279.0966,0,0,left,0.2111,,1279.099,1279.0997,1,0,,1279.1005,1279.1013,1,0,,1,1279.1014,1279.1014,1279.1029,1280.5925,0,27,27,27,1,0.8,0.2,0.4,0.6,1,0,,,,,,,,,,,,,,,,,,,,,,,,,,,,,,,,,,,,
,,66a2d042a6eb6d2766577b3f,66fcbb6a30ac4abac8a66007,2024-10-02_04h23.56.463,mdp,2024.2.1,Win32,29.85074627,66fa4ebf79326e780c390304,,,,,,,,,,,,,,,,,,,,,1280.5932,1280.5933,1280.5956,1281.3637,0,1,left,0.2495,,1281.3656,1281.3672,1,0,,1281.3689,1281.3697,1,0,,0,1281.3698,1281.3698,1281.3706,1282.8588,0,28,28,28,1,0.8,0.2,0.4,0.6,1,0,,,,,,,,,,,,,,,,,,,,,,,,,,,,,,,,,,,,
,,66a2d042a6eb6d2766577b3f,66fcbb6a30ac4abac8a66007,2024-10-02_04h23.56.463,mdp,2024.2.1,Win32,29.85074627,66fa4ebf79326e780c390304,,,,,,,,,,,,,,,,,,,,,1282.8596,1282.8596,1282.8611,1283.4161,1,1,right,0.0008,,1283.4184,1283.4195,1,0,,1283.4205,1283.421,1,1,,0,1283.4211,1283.4211,1283.4217,1284.9218,0,29,29,29,1,0.8,0.2,0.4,0.6,1,0,,,,,,,,,,,,,,,,,,,,,,,,,,,,,,,,,,,,
,,66a2d042a6eb6d2766577b3f,66fcbb6a30ac4abac8a66007,2024-10-02_04h23.56.463,mdp,2024.2.1,Win32,29.85074627,66fa4ebf79326e780c390304,,,,,,,,,,,,,,,,,,,,,1284.9235,1284.9235,1284.9261,1285.753,1,1,right,0.2995,,1285.7546,1285.7554,1,0,,1285.7565,1285.7578,1,1,,0,1285.7579,1285.7579,1285.7589,1287.2623,0,30,30,30,1,0.8,0.2,0.4,0.6,1,0,,,,,,,,,,,,,,,,,,,,,,,,,,,,,,,,,,,,
,,66a2d042a6eb6d2766577b3f,66fcbb6a30ac4abac8a66007,2024-10-02_04h23.56.463,mdp,2024.2.1,Win32,29.85074627,66fa4ebf79326e780c390304,,,,,,,,,,,,,,,,,,,,,1287.2639,1287.2639,1287.2663,1287.8142,1,1,right,0.0149,,1287.8157,1287.8167,1,0,,1287.8184,1287.8193,1,0,,0,1287.8193,1287.8194,1287.82,1289.3168,0,31,31,31,1,0.8,0.2,0.4,0.6,1,0,,,,,,,,,,,,,,,,,,,,,,,,,,,,,,,,,,,,
,,66a2d042a6eb6d2766577b3f,66fcbb6a30ac4abac8a66007,2024-10-02_04h23.56.463,mdp,2024.2.1,Win32,29.85074627,66fa4ebf79326e780c390304,,,,,,,,,,,,,,,,,,,,,1289.3179,1289.3179,1289.3194,1289.8835,0,0,left,0.0313,,1289.8857,1289.8865,1,0,,1289.8873,1289.8881,1,0,,1,1289.8881,1289.8881,1289.889,1291.3688,0,32,32,32,1,0.8,0.2,0.4,0.6,1,0,,,,,,,,,,,,,,,,,,,,,,,,,,,,,,,,,,,,
,,66a2d042a6eb6d2766577b3f,66fcbb6a30ac4abac8a66007,2024-10-02_04h23.56.463,mdp,2024.2.1,Win32,29.85074627,66fa4ebf79326e780c390304,,,,,,,,,,,,,,,,,,,,,1291.3703,1291.3703,1291.3723,1291.9023,0,1,left,0.0006,,1291.905,1291.9058,1,0,,1291.9066,1291.9079,1,1,,0,1291.908,1291.9081,1291.9088,1293.3985,0,33,33,33,1,0.8,0.2,0.4,0.6,1,0,,,,,,,,,,,,,,,,,,,,,,,,,,,,,,,,,,,,
,,66a2d042a6eb6d2766577b3f,66fcbb6a30ac4abac8a66007,2024-10-02_04h23.56.463,mdp,2024.2.1,Win32,29.85074627,66fa4ebf79326e780c390304,,,,,,,,,,,,,,,,,,,,,1293.3998,1293.3998,1293.4021,1294.2695,1,1,right,0.3327,,1294.2721,1294.2728,1,1,,1294.2735,1294.2742,1,0,,0,1294.2742,1294.2742,1294.2749,1295.7578,0,34,34,34,1,0.8,0.2,0.4,0.6,1,0,,,,,,,,,,,,,,,,,,,,,,,,,,,,,,,,,,,,
,,66a2d042a6eb6d2766577b3f,66fcbb6a30ac4abac8a66007,2024-10-02_04h23.56.463,mdp,2024.2.1,Win32,29.85074627,66fa4ebf79326e780c390304,,,,,,,,,,,,,,,,,,,,,1295.7595,1295.7595,1295.7613,1296.6552,1,0,right,0.3612,,1296.6564,1296.6571,1,1,,1296.6578,1296.6585,1,1,,1,1296.6585,1296.6585,1296.6592,1298.151,0,35,35,35,1,0.8,0.2,0.4,0.6,1,0,,,,,,,,,,,,,,,,,,,,,,,,,,,,,,,,,,,,
,,66a2d042a6eb6d2766577b3f,66fcbb6a30ac4abac8a66007,2024-10-02_04h23.56.463,mdp,2024.2.1,Win32,29.85074627,66fa4ebf79326e780c390304,,,,,,,,,,,,,,,,,,,,,1298.1518,1298.1518,1298.1542,1298.9552,1,1,right,0.2799,,1298.9573,1298.9587,1,1,,1298.9595,1298.9601,1,0,,0,1298.9602,1298.9602,1298.9609,1300.4476,0,36,36,36,1,0.8,0.2,0.4,0.6,1,0,,,,,,,,,,,,,,,,,,,,,,,,,,,,,,,,,,,,
,,66a2d042a6eb6d2766577b3f,66fcbb6a30ac4abac8a66007,2024-10-02_04h23.56.463,mdp,2024.2.1,Win32,29.85074627,66fa4ebf79326e780c390304,,,,,,,,,,,,,,,,,,,,,1300.4481,1300.4481,1300.4505,1301.2467,0,0,left,0.2815,,1301.2479,1301.2487,1,0,,1301.2498,1301.2509,1,0,,1,1301.251,1301.251,1301.2522,1302.7273,0,37,37,37,1,0.8,0.2,0.4,0.6,1,0,,,,,,,,,,,,,,,,,,,,,,,,,,,,,,,,,,,,
,,66a2d042a6eb6d2766577b3f,66fcbb6a30ac4abac8a66007,2024-10-02_04h23.56.463,mdp,2024.2.1,Win32,29.85074627,66fa4ebf79326e780c390304,,,,,,,,,,,,,,,,,,,,,1302.729,1302.7292,1302.7312,1303.4743,0,0,left,0.2059,,1303.4764,1303.4771,1,0,,1303.4779,1303.4787,1,0,,1,1303.4788,1303.4788,1303.4803,1304.9704,0,38,38,38,1,0.8,0.2,0.4,0.6,1,0,,,,,,,,,,,,,,,,,,,,,,,,,,,,,,,,,,,,
,,66a2d042a6eb6d2766577b3f,66fcbb6a30ac4abac8a66007,2024-10-02_04h23.56.463,mdp,2024.2.1,Win32,29.85074627,66fa4ebf79326e780c390304,,,,,,,,,,,,,,,,,,,,,1304.9711,1304.9712,1304.9732,1305.7614,0,0,left,0.2598,,1305.7634,1305.7643,1,0,,1305.7651,1305.7657,1,0,,1,1305.7658,1305.7658,1305.7664,1307.2503,0,39,39,39,1,0.8,0.2,0.4,0.6,1,0,,,,,,,,,,,,,,,,,,,,,,,,,,,,,,,,,,,,
,,66a2d042a6eb6d2766577b3f,66fcbb6a30ac4abac8a66007,2024-10-02_04h23.56.463,mdp,2024.2.1,Win32,29.85074627,66fa4ebf79326e780c390304,,,,,,,,,,,,,,,,,,,,,1307.2514,1307.2514,1307.2542,1307.9611,0,0,left,0.167,,1307.9633,1307.9643,1,1,,1307.9654,1307.9661,1,0,,1,1307.9662,1307.9662,1307.967,1309.4673,0,40,40,40,1,0.8,0.2,0.4,0.6,1,0,,,,,,,,,,,,,,,,,,,,,,,,,,,,,,,,,,,,
