init_exp.started,init_exp.stopped,participant,session,date,expName,psychopyVersion,OS,frameRate,study_id,disp_instruction.started,disp_instruction.stopped,instruction.thisRepN,instruction.thisTrialN,instruction.thisN,instruction.thisIndex,instruction.ran,instimg_path,consent.started,consent.stopped,key_resp_3.keys,key_resp_3.rt,key_resp_3.duration,n_steps,sequence_path,init_block.started,init_block.stopped,key_resp.keys,key_resp.rt,key_resp.duration,init_trials.started,init_trials.stopped,step0.started,step0.stopped,act0,s1,res0.keys,res0.rt,res0.duration,step1.started,step1.stopped,act1,s2,res1.keys,step2.started,step2.stopped,act2,s3,res2.keys,rew,reward_comp.started,reward_comp.stopped,reward_disp.started,reward_disp.stopped,trials.thisRepN,trials.thisTrialN,trials.thisN,trials.thisIndex,trials.ran,s00a0s10,s00a0s11,s00a1s10,s00a1s11,rew10,rew11,break_block.started,break_block.stopped,block.thisRepN,block.thisTrialN,block.thisN,block.thisIndex,block.ran,s00path,s10path,s11path,s20path,s21path,res1.rt,res1.duration,s10a0s20,s10a0s21,s10a1s20,s10a1s21,s11a0s20,s11a0s21,s11a1s20,s11a1s21,rew20,rew21,res2.rt,res2.duration,s20a0s30,s20a0s31,s20a1s30,s20a1s31,s21a0s30,s21a0s31,s21a1s30,s21a1s31,rew30,rew31
0.0005,0.0038,66a4f41f0a2e0870ee52c6bf,66fce17372fc934423701e26,2024-10-02_08h02.45.818,mdp,2024.2.1,Win32,60.24096386,66fa4ebf79326e780c390304,,,,,,,,,,,,,,,,,,,,,,,,,,,,,,,,,,,,,,,,,,,,,,,,,,,,,,,,,,,,,,,,,,,,,,,,,,,,,,,,,,,,,,,,,,,
,,66a4f41f0a2e0870ee52c6bf,66fce17372fc934423701e26,2024-10-02_08h02.45.818,mdp,2024.2.1,Win32,60.24096386,66fa4ebf79326e780c390304,0.0118,40.4477,0,0,0,0,1,rlnn_exp/rlnn_exp.001.png,,,,,,,,,,,,,,,,,,,,,,,,,,,,,,,,,,,,,,,,,,,,,,,,,,,,,,,,,,,,,,,,,,,,,,,,,,,,,,,,,,,
,,66a4f41f0a2e0870ee52c6bf,66fce17372fc934423701e26,2024-10-02_08h02.45.818,mdp,2024.2.1,Win32,60.24096386,66fa4ebf79326e780c390304,40.4488,52.9522,0,1,1,1,1,rlnn_exp/rlnn_exp.002.png,,,,,,,,,,,,,,,,,,,,,,,,,,,,,,,,,,,,,,,,,,,,,,,,,,,,,,,,,,,,,,,,,,,,,,,,,,,,,,,,,,,
,,66a4f41f0a2e0870ee52c6bf,66fce17372fc934423701e26,2024-10-02_08h02.45.818,mdp,2024.2.1,Win32,60.24096386,66fa4ebf79326e780c390304,52.9532,71.7808,0,2,2,2,1,rlnn_exp/rlnn_exp.003.png,,,,,,,,,,,,,,,,,,,,,,,,,,,,,,,,,,,,,,,,,,,,,,,,,,,,,,,,,,,,,,,,,,,,,,,,,,,,,,,,,,,
,,66a4f41f0a2e0870ee52c6bf,66fce17372fc934423701e26,2024-10-02_08h02.45.818,mdp,2024.2.1,Win32,60.24096386,66fa4ebf79326e780c390304,71.7815,92.1818,0,3,3,3,1,rlnn_exp/rlnn_exp.004.png,,,,,,,,,,,,,,,,,,,,,,,,,,,,,,,,,,,,,,,,,,,,,,,,,,,,,,,,,,,,,,,,,,,,,,,,,,,,,,,,,,,
,,66a4f41f0a2e0870ee52c6bf,66fce17372fc934423701e26,2024-10-02_08h02.45.818,mdp,2024.2.1,Win32,60.24096386,66fa4ebf79326e780c390304,,,,,,,,,92.1822,134.6717,y,32.4647,,,,,,,,,,,,,,,,,,,,,,,,,,,,,,,,,,,,,,,,,,,,,,,,,,,,,,,,,,,,,,,,,,,,,,,,,,,,,,,
,,66a4f41f0a2e0870ee52c6bf,66fce17372fc934423701e26,2024-10-02_08h02.45.818,mdp,2024.2.1,Win32,60.24096386,66fa4ebf79326e780c390304,,,,,,,,,,,,,,1,seqs/st1seq36.csv,134.6794,145.3356,space,10.1234,,145.3409,145.3411,145.3416,223.2986,1,1,right,77.4193,,223.2995,223.3035,,1,,223.3041,223.3061,,1,,0,223.3064,223.3064,223.3074,224.8009,0,0,0,0,1,0.6,0.4,0.4,0.6,1,0,,,,,,,,,,,,,,,,,,,,,,,,,,,,,,,,,,,,
,,66a4f41f0a2e0870ee52c6bf,66fce17372fc934423701e26,2024-10-02_08h02.45.818,mdp,2024.2.1,Win32,60.24096386,66fa4ebf79326e780c390304,,,,,,,,,,,,,,,,,,,,,224.8015,224.8016,224.8034,227.8667,1,1,right,2.5393,,227.8684,227.8695,,0,,227.8709,227.8723,,1,,0,227.8724,227.8724,227.8736,229.3671,0,1,1,1,1,0.6,0.4,0.4,0.6,1,0,,,,,,,,,,,,,,,,,,,,,,,,,,,,,,,,,,,,
,,66a4f41f0a2e0870ee52c6bf,66fce17372fc934423701e26,2024-10-02_08h02.45.818,mdp,2024.2.1,Win32,60.24096386,66fa4ebf79326e780c390304,,,,,,,,,,,,,,,,,,,,,229.3676,229.3676,229.3701,231.7001,0,0,left,1.8033,,231.7018,231.7035,,1,,231.705,231.7061,,1,,1,231.7061,231.7062,231.7074,233.202,0,2,2,2,1,0.4,0.6,0.8,0.2,1,0,,,,,,,,,,,,,,,,,,,,,,,,,,,,,,,,,,,,
,,66a4f41f0a2e0870ee52c6bf,66fce17372fc934423701e26,2024-10-02_08h02.45.818,mdp,2024.2.1,Win32,60.24096386,66fa4ebf79326e780c390304,,,,,,,,,,,,,,,,,,,,,233.2024,233.2024,233.2048,234.5889,1,1,right,0.8612,,234.5903,234.5914,,1,,234.5924,234.5933,,1,,0,234.5933,234.5933,234.5942,236.0865,0,3,3,3,1,0.4,0.6,0.8,0.2,1,0,,,,,,,,,,,,,,,,,,,,,,,,,,,,,,,,,,,,
,,66a4f41f0a2e0870ee52c6bf,66fce17372fc934423701e26,2024-10-02_08h02.45.818,mdp,2024.2.1,Win32,60.24096386,66fa4ebf79326e780c390304,,,,,,,,,,,,,,,,,,,,,236.0868,236.0868,236.0884,236.7233,0,1,left,0.111,,236.725,236.7261,,1,,236.7272,236.7282,,1,,0,236.7283,236.7283,236.7292,238.2207,0,4,4,4,1,0.4,0.6,0.8,0.2,1,0,,,,,,,,,,,,,,,,,,,,,,,,,,,,,,,,,,,,
,,66a4f41f0a2e0870ee52c6bf,66fce17372fc934423701e26,2024-10-02_08h02.45.818,mdp,2024.2.1,Win32,60.24096386,66fa4ebf79326e780c390304,,,,,,,,,,,,,,,,,,,,,238.2214,238.2214,238.2236,239.4545,0,1,left,0.7024,,239.4561,239.4572,,1,,239.4585,239.4599,,0,,0,239.46,239.46,239.4609,240.9549,0,5,5,5,1,0.4,0.6,0.8,0.2,1,0,,,,,,,,,,,,,,,,,,,,,,,,,,,,,,,,,,,,
,,66a4f41f0a2e0870ee52c6bf,66fce17372fc934423701e26,2024-10-02_08h02.45.818,mdp,2024.2.1,Win32,60.24096386,66fa4ebf79326e780c390304,,,,,,,,,,,,,,,,,,,,,240.9555,240.9555,240.9576,241.9235,0,0,left,0.4428,,241.9251,241.9261,,0,,241.9275,241.9286,,1,,1,241.9287,241.9287,241.9297,243.4225,0,6,6,6,1,0.4,0.6,0.8,0.2,1,0,,,,,,,,,,,,,,,,,,,,,,,,,,,,,,,,,,,,
,,66a4f41f0a2e0870ee52c6bf,66fce17372fc934423701e26,2024-10-02_08h02.45.818,mdp,2024.2.1,Win32,60.24096386,66fa4ebf79326e780c390304,,,,,,,,,,,,,,,,,,,,,243.4232,243.4232,243.4257,244.162,0,1,left,0.2304,,244.1634,244.1643,,0,,244.1655,244.1664,,1,,0,244.1664,244.1665,244.1673,245.6566,0,7,7,7,1,0.4,0.6,0.8,0.2,1,0,,,,,,,,,,,,,,,,,,,,,,,,,,,,,,,,,,,,
,,66a4f41f0a2e0870ee52c6bf,66fce17372fc934423701e26,2024-10-02_08h02.45.818,mdp,2024.2.1,Win32,60.24096386,66fa4ebf79326e780c390304,,,,,,,,,,,,,,,,,,,,,245.6571,245.6572,245.6586,246.4424,0,1,left,0.2525,,246.4447,246.446,,0,,246.4474,246.4483,,0,,0,246.4484,246.4484,246.4494,247.9427,0,8,8,8,1,0.4,0.6,0.8,0.2,1,0,,,,,,,,,,,,,,,,,,,,,,,,,,,,,,,,,,,,
,,66a4f41f0a2e0870ee52c6bf,66fce17372fc934423701e26,2024-10-02_08h02.45.818,mdp,2024.2.1,Win32,60.24096386,66fa4ebf79326e780c390304,,,,,,,,,,,,,,,,,,,,,247.9433,247.9433,247.945,249.2249,1,0,right,0.7528,,249.2263,249.2275,,1,,249.2287,249.2314,,0,,1,249.2315,249.2315,249.2327,250.7253,0,9,9,9,1,0.4,0.6,0.8,0.2,1,0,,,,,,,,,,,,,,,,,,,,,,,,,,,,,,,,,,,,
,,66a4f41f0a2e0870ee52c6bf,66fce17372fc934423701e26,2024-10-02_08h02.45.818,mdp,2024.2.1,Win32,60.24096386,66fa4ebf79326e780c390304,,,,,,,,,,,,,,,,,,,,,250.7257,250.7257,250.7272,251.8279,1,1,right,0.5768,,251.8293,251.8305,,0,,251.8315,251.8325,,0,,0,251.8325,251.8325,251.8334,253.3263,0,10,10,10,1,0.2,0.8,0.6,0.4,1,0,,,,,,,,,,,,,,,,,,,,,,,,,,,,,,,,,,,,
,,66a4f41f0a2e0870ee52c6bf,66fce17372fc934423701e26,2024-10-02_08h02.45.818,mdp,2024.2.1,Win32,60.24096386,66fa4ebf79326e780c390304,,,,,,,,,,,,,,,,,,,,,253.3268,253.3268,253.3284,254.4272,1,1,right,0.5694,,254.4286,254.4297,,0,,254.4308,254.4319,,0,,0,254.432,254.432,254.4329,255.9272,0,11,11,11,1,0.2,0.8,0.6,0.4,1,0,,,,,,,,,,,,,,,,,,,,,,,,,,,,,,,,,,,,
,,66a4f41f0a2e0870ee52c6bf,66fce17372fc934423701e26,2024-10-02_08h02.45.818,mdp,2024.2.1,Win32,60.24096386,66fa4ebf79326e780c390304,,,,,,,,,,,,,,,,,,,,,255.9281,255.9281,255.9298,257.0282,1,0,right,0.5702,,257.0297,257.0307,,0,,257.0317,257.0329,,0,,1,257.033,257.033,257.0339,258.5283,0,12,12,12,1,0.2,0.8,0.6,0.4,1,0,,,,,,,,,,,,,,,,,,,,,,,,,,,,,,,,,,,,
,,66a4f41f0a2e0870ee52c6bf,66fce17372fc934423701e26,2024-10-02_08h02.45.818,mdp,2024.2.1,Win32,60.24096386,66fa4ebf79326e780c390304,,,,,,,,,,,,,,,,,,,,,258.5288,258.5288,258.5304,259.6824,0,1,left,0.6288,,259.6842,259.6852,,1,,259.6865,259.6874,,0,,0,259.6875,259.6875,259.6883,261.1794,0,13,13,13,1,0.2,0.8,0.6,0.4,1,0,,,,,,,,,,,,,,,,,,,,,,,,,,,,,,,,,,,,
,,66a4f41f0a2e0870ee52c6bf,66fce17372fc934423701e26,2024-10-02_08h02.45.818,mdp,2024.2.1,Win32,60.24096386,66fa4ebf79326e780c390304,,,,,,,,,,,,,,,,,,,,,261.1802,261.1802,261.1823,261.8967,0,1,left,0.186,,261.8983,261.901,,0,,261.9023,261.9034,,1,,0,261.9034,261.9034,261.9044,263.3968,0,14,14,14,1,0.2,0.8,0.6,0.4,1,0,,,,,,,,,,,,,,,,,,,,,,,,,,,,,,,,,,,,
,,66a4f41f0a2e0870ee52c6bf,66fce17372fc934423701e26,2024-10-02_08h02.45.818,mdp,2024.2.1,Win32,60.24096386,66fa4ebf79326e780c390304,,,,,,,,,,,,,,,,,,,,,263.3973,263.3973,263.399,264.3807,0,1,left,0.4521,,264.3826,264.3837,,0,,264.3847,264.3858,,1,,0,264.3858,264.3858,264.3867,265.881,0,15,15,15,1,0.2,0.8,0.6,0.4,1,0,,,,,,,,,,,,,,,,,,,,,,,,,,,,,,,,,,,,
,,66a4f41f0a2e0870ee52c6bf,66fce17372fc934423701e26,2024-10-02_08h02.45.818,mdp,2024.2.1,Win32,60.24096386,66fa4ebf79326e780c390304,,,,,,,,,,,,,,,,,,,,,265.8815,265.8815,265.8838,266.7149,0,0,left,0.3206,,266.7164,266.7175,,1,,266.7186,266.72,,1,,1,266.72,266.72,266.721,268.2172,0,16,16,16,1,0.8,0.2,0.2,0.8,1,0,,,,,,,,,,,,,,,,,,,,,,,,,,,,,,,,,,,,
,,66a4f41f0a2e0870ee52c6bf,66fce17372fc934423701e26,2024-10-02_08h02.45.818,mdp,2024.2.1,Win32,60.24096386,66fa4ebf79326e780c390304,,,,,,,,,,,,,,,,,,,,,268.2178,268.2178,268.2193,270.0551,0,0,left,1.3145,,270.0563,270.0572,,0,,270.0592,270.0603,,0,,1,270.0603,270.0603,270.0616,271.5519,0,17,17,17,1,0.8,0.2,0.2,0.8,1,0,,,,,,,,,,,,,,,,,,,,,,,,,,,,,,,,,,,,
,,66a4f41f0a2e0870ee52c6bf,66fce17372fc934423701e26,2024-10-02_08h02.45.818,mdp,2024.2.1,Win32,60.24096386,66fa4ebf79326e780c390304,,,,,,,,,,,,,,,,,,,,,271.5524,271.5524,271.5542,272.9841,1,1,right,0.904,,272.9862,272.9873,,1,,272.9884,272.9897,,1,,0,272.9897,272.9897,272.9912,274.4849,0,18,18,18,1,0.8,0.2,0.2,0.8,1,0,,,,,,,,,,,,,,,,,,,,,,,,,,,,,,,,,,,,
,,66a4f41f0a2e0870ee52c6bf,66fce17372fc934423701e26,2024-10-02_08h02.45.818,mdp,2024.2.1,Win32,60.24096386,66fa4ebf79326e780c390304,,,,,,,,,,,,,,,,,,,,,274.4853,274.4853,274.4869,275.455,0,0,left,0.4451,,275.4571,275.4583,,0,,275.4598,275.4608,,0,,1,275.4608,275.4609,275.4617,276.9539,0,19,19,19,1,0.8,0.2,0.2,0.8,1,0,,,,,,,,,,,,,,,,,,,,,,,,,,,,,,,,,,,,
,,66a4f41f0a2e0870ee52c6bf,66fce17372fc934423701e26,2024-10-02_08h02.45.818,mdp,2024.2.1,Win32,60.24096386,66fa4ebf79326e780c390304,,,,,,,,,,,,,,,,,,,,,276.9544,276.9545,276.9559,278.3915,0,0,left,0.9143,,278.3931,278.3943,,0,,278.3954,278.3963,,1,,1,278.3963,278.3963,278.3973,279.8863,0,20,20,20,1,0.8,0.2,0.2,0.8,1,0,,,,,,,,,,,,,,,,,,,,,,,,,,,,,,,,,,,,
,,66a4f41f0a2e0870ee52c6bf,66fce17372fc934423701e26,2024-10-02_08h02.45.818,mdp,2024.2.1,Win32,60.24096386,66fa4ebf79326e780c390304,,,,,,,,,,,,,,,,,,,,,279.8873,279.8873,279.889,281.1725,0,0,left,0.7771,,281.1739,281.1754,,0,,281.1764,281.1778,,0,,1,281.1778,281.1778,281.1787,282.6712,0,21,21,21,1,0.8,0.2,0.2,0.8,1,0,,,,,,,,,,,,,,,,,,,,,,,,,,,,,,,,,,,,
,,66a4f41f0a2e0870ee52c6bf,66fce17372fc934423701e26,2024-10-02_08h02.45.818,mdp,2024.2.1,Win32,60.24096386,66fa4ebf79326e780c390304,,,,,,,,,,,,,,,,,,,,,282.6727,282.6728,282.6746,283.7547,1,1,right,0.5523,,283.7569,283.7581,,1,,283.7601,283.7611,,0,,0,283.7612,283.7612,283.7623,285.2579,0,22,22,22,1,0.8,0.2,0.2,0.8,1,0,,,,,,,,,,,,,,,,,,,,,,,,,,,,,,,,,,,,
,,66a4f41f0a2e0870ee52c6bf,66fce17372fc934423701e26,2024-10-02_08h02.45.818,mdp,2024.2.1,Win32,60.24096386,66fa4ebf79326e780c390304,,,,,,,,,,,,,,,,,,,,,285.2584,285.2585,285.2602,286.2224,0,1,left,0.4372,,286.2242,286.2256,,0,,286.2267,286.228,,1,,0,286.228,286.228,286.2292,287.7229,0,23,23,23,1,0.8,0.2,0.2,0.8,1,0,,,,,,,,,,,,,,,,,,,,,,,,,,,,,,,,,,,,
,,66a4f41f0a2e0870ee52c6bf,66fce17372fc934423701e26,2024-10-02_08h02.45.818,mdp,2024.2.1,Win32,60.24096386,66fa4ebf79326e780c390304,,,,,,,,,,,,,,,,,,,,,287.7234,287.7234,287.725,288.5733,0,0,left,0.3166,,288.5747,288.5757,,0,,288.5768,288.5779,,1,,1,288.5779,288.5779,288.5788,290.0756,0,24,24,24,1,0.8,0.2,0.2,0.8,1,0,,,,,,,,,,,,,,,,,,,,,,,,,,,,,,,,,,,,
,,66a4f41f0a2e0870ee52c6bf,66fce17372fc934423701e26,2024-10-02_08h02.45.818,mdp,2024.2.1,Win32,60.24096386,66fa4ebf79326e780c390304,,,,,,,,,,,,,,,,,,,,,290.0761,290.0761,290.0775,291.0575,1,0,right,0.4549,,291.0589,291.0601,,1,,291.0611,291.0624,,1,,1,291.0624,291.0624,291.0634,292.5599,0,25,25,25,1,0.8,0.2,0.2,0.8,1,0,,,,,,,,,,,,,,,,,,,,,,,,,,,,,,,,,,,,
,,66a4f41f0a2e0870ee52c6bf,66fce17372fc934423701e26,2024-10-02_08h02.45.818,mdp,2024.2.1,Win32,60.24096386,66fa4ebf79326e780c390304,,,,,,,,,,,,,,,,,,,,,292.5604,292.5604,292.5616,293.6771,1,1,right,0.5857,,293.6788,293.6802,,1,,293.6815,293.6827,,1,,0,293.6828,293.6828,293.6838,295.1757,0,26,26,26,1,0.8,0.2,0.2,0.8,1,0,,,,,,,,,,,,,,,,,,,,,,,,,,,,,,,,,,,,
,,66a4f41f0a2e0870ee52c6bf,66fce17372fc934423701e26,2024-10-02_08h02.45.818,mdp,2024.2.1,Win32,60.24096386,66fa4ebf79326e780c390304,,,,,,,,,,,,,,,,,,,,,295.1761,295.1761,295.1777,296.076,0,0,left,0.3707,,296.0775,296.0786,,0,,296.0797,296.0807,,0,,1,296.0808,296.0808,296.0818,297.5765,0,27,27,27,1,0.8,0.2,0.2,0.8,1,0,,,,,,,,,,,,,,,,,,,,,,,,,,,,,,,,,,,,
,,66a4f41f0a2e0870ee52c6bf,66fce17372fc934423701e26,2024-10-02_08h02.45.818,mdp,2024.2.1,Win32,60.24096386,66fa4ebf79326e780c390304,,,,,,,,,,,,,,,,,,,,,297.577,297.577,297.5783,298.6103,0,0,left,0.5194,,298.6118,298.613,,0,,298.6139,298.6152,,0,,1,298.6152,298.6152,298.6161,300.1107,0,28,28,28,1,0.8,0.2,0.2,0.8,1,0,,,,,,,,,,,,,,,,,,,,,,,,,,,,,,,,,,,,
,,66a4f41f0a2e0870ee52c6bf,66fce17372fc934423701e26,2024-10-02_08h02.45.818,mdp,2024.2.1,Win32,60.24096386,66fa4ebf79326e780c390304,,,,,,,,,,,,,,,,,,,,,300.1112,300.1112,300.1126,301.2114,0,0,left,0.5697,,301.2127,301.2147,,1,,301.216,301.2172,,1,,1,301.2173,301.2173,301.2182,302.7117,0,29,29,29,1,0.4,0.6,0.8,0.2,1,0,,,,,,,,,,,,,,,,,,,,,,,,,,,,,,,,,,,,
,,66a4f41f0a2e0870ee52c6bf,66fce17372fc934423701e26,2024-10-02_08h02.45.818,mdp,2024.2.1,Win32,60.24096386,66fa4ebf79326e780c390304,,,,,,,,,,,,,,,,,,,,,302.7122,302.7122,302.7135,303.8144,1,0,right,0.5692,,303.8161,303.8174,,0,,303.8185,303.8193,,0,,1,303.8194,303.8194,303.8203,305.313,0,30,30,30,1,0.4,0.6,0.8,0.2,1,0,,,,,,,,,,,,,,,,,,,,,,,,,,,,,,,,,,,,
,,66a4f41f0a2e0870ee52c6bf,66fce17372fc934423701e26,2024-10-02_08h02.45.818,mdp,2024.2.1,Win32,60.24096386,66fa4ebf79326e780c390304,,,,,,,,,,,,,,,,,,,,,305.3137,305.3137,305.3155,306.5467,1,0,right,0.7199,,306.5482,306.5491,,0,,306.5502,306.5512,,0,,1,306.5512,306.5512,306.5524,308.0473,0,31,31,31,1,0.4,0.6,0.8,0.2,1,0,,,,,,,,,,,,,,,,,,,,,,,,,,,,,,,,,,,,
,,66a4f41f0a2e0870ee52c6bf,66fce17372fc934423701e26,2024-10-02_08h02.45.818,mdp,2024.2.1,Win32,60.24096386,66fa4ebf79326e780c390304,,,,,,,,,,,,,,,,,,,,,308.0477,308.0478,308.0497,309.131,0,0,left,0.5526,,309.1324,309.1339,,1,,309.135,309.1362,,0,,1,309.1362,309.1362,309.1371,310.6334,0,32,32,32,1,0.4,0.6,0.8,0.2,1,0,,,,,,,,,,,,,,,,,,,,,,,,,,,,,,,,,,,,
,,66a4f41f0a2e0870ee52c6bf,66fce17372fc934423701e26,2024-10-02_08h02.45.818,mdp,2024.2.1,Win32,60.24096386,66fa4ebf79326e780c390304,,,,,,,,,,,,,,,,,,,,,310.6339,310.634,310.6365,311.6698,1,0,right,0.513,,311.6713,311.6721,,1,,311.6731,311.6739,,1,,1,311.6739,311.6739,311.6749,313.1658,0,33,33,33,1,0.6,0.4,0.4,0.6,1,0,,,,,,,,,,,,,,,,,,,,,,,,,,,,,,,,,,,,
,,66a4f41f0a2e0870ee52c6bf,66fce17372fc934423701e26,2024-10-02_08h02.45.818,mdp,2024.2.1,Win32,60.24096386,66fa4ebf79326e780c390304,,,,,,,,,,,,,,,,,,,,,313.1662,313.1662,313.1677,314.133,0,1,left,0.4542,,314.1345,314.1356,,0,,314.1368,314.1378,,0,,0,314.1378,314.1378,314.139,315.6334,0,34,34,34,1,0.8,0.2,0.2,0.8,1,0,,,,,,,,,,,,,,,,,,,,,,,,,,,,,,,,,,,,
,,66a4f41f0a2e0870ee52c6bf,66fce17372fc934423701e26,2024-10-02_08h02.45.818,mdp,2024.2.1,Win32,60.24096386,66fa4ebf79326e780c390304,,,,,,,,,,,,,,,,,,,,,315.6338,315.6338,315.6357,316.7506,0,1,left,0.5866,,316.7521,316.7538,,0,,316.7554,316.7564,,0,,0,316.7565,316.7565,316.7574,318.253,0,35,35,35,1,0.8,0.2,0.2,0.8,1,0,,,,,,,,,,,,,,,,,,,,,,,,,,,,,,,,,,,,
,,66a4f41f0a2e0870ee52c6bf,66fce17372fc934423701e26,2024-10-02_08h02.45.818,mdp,2024.2.1,Win32,60.24096386,66fa4ebf79326e780c390304,,,,,,,,,,,,,,,,,,,,,318.2536,318.2536,318.2551,319.3851,0,0,left,0.6041,,319.3879,319.3889,,0,,319.3907,319.3919,,0,,1,319.392,319.392,319.3929,320.8853,0,36,36,36,1,0.8,0.2,0.2,0.8,1,0,,,,,,,,,,,,,,,,,,,,,,,,,,,,,,,,,,,,
,,66a4f41f0a2e0870ee52c6bf,66fce17372fc934423701e26,2024-10-02_08h02.45.818,mdp,2024.2.1,Win32,60.24096386,66fa4ebf79326e780c390304,,,,,,,,,,,,,,,,,,,,,320.8858,320.8858,320.8871,322.0693,0,0,left,0.6533,,322.0709,322.0719,,0,,322.0733,322.0746,,0,,1,322.0746,322.0746,322.0756,323.5699,0,37,37,37,1,0.8,0.2,0.2,0.8,1,0,,,,,,,,,,,,,,,,,,,,,,,,,,,,,,,,,,,,
,,66a4f41f0a2e0870ee52c6bf,66fce17372fc934423701e26,2024-10-02_08h02.45.818,mdp,2024.2.1,Win32,60.24096386,66fa4ebf79326e780c390304,,,,,,,,,,,,,,,,,,,,,323.5707,323.5707,323.5722,324.6035,0,0,left,0.5037,,324.6049,324.6065,,0,,324.6076,324.609,,1,,1,324.609,324.609,324.6099,326.104,0,38,38,38,1,0.8,0.2,0.2,0.8,1,0,,,,,,,,,,,,,,,,,,,,,,,,,,,,,,,,,,,,
,,66a4f41f0a2e0870ee52c6bf,66fce17372fc934423701e26,2024-10-02_08h02.45.818,mdp,2024.2.1,Win32,60.24096386,66fa4ebf79326e780c390304,,,,,,,,,,,,,,,,,,,,,326.1044,326.1044,326.1058,327.0045,0,1,left,0.3689,,327.0059,327.0071,,1,,327.0084,327.0098,,0,,0,327.0099,327.0099,327.0108,328.5048,0,39,39,39,1,0.8,0.2,0.2,0.8,1,0,,,,,,,,,,,,,,,,,,,,,,,,,,,,,,,,,,,,
,,66a4f41f0a2e0870ee52c6bf,66fce17372fc934423701e26,2024-10-02_08h02.45.818,mdp,2024.2.1,Win32,60.24096386,66fa4ebf79326e780c390304,,,,,,,,,,,,,,,,,,,,,328.5053,328.5053,328.5135,329.4281,1,0,right,0.3973,,329.4294,329.4304,,0,,329.4318,329.4326,,1,,1,329.4327,329.4327,329.4336,330.9249,0,40,40,40,1,0.8,0.2,0.2,0.8,1,0,,,,,,,,,,,,,,,,,,,,,,,,,,,,,,,,,,,,
,,66a4f41f0a2e0870ee52c6bf,66fce17372fc934423701e26,2024-10-02_08h02.45.818,mdp,2024.2.1,Win32,60.24096386,66fa4ebf79326e780c390304,,,,,,,,,,,,,,,,,,,,,330.9258,330.9259,330.9271,332.2571,1,1,right,0.8039,,332.259,332.2607,,1,,332.2621,332.2633,,1,,0,332.2633,332.2633,332.2642,333.759,0,41,41,41,1,0.8,0.2,0.2,0.8,1,0,,,,,,,,,,,,,,,,,,,,,,,,,,,,,,,,,,,,
,,66a4f41f0a2e0870ee52c6bf,66fce17372fc934423701e26,2024-10-02_08h02.45.818,mdp,2024.2.1,Win32,60.24096386,66fa4ebf79326e780c390304,,,,,,,,,,,,,,,,,,,,,333.7595,333.7595,333.7611,334.6772,1,1,right,0.3942,,334.6789,334.6801,,0,,334.6811,334.682,,0,,0,334.682,334.682,334.6829,336.1767,0,42,42,42,1,0.2,0.8,0.6,0.4,1,0,,,,,,,,,,,,,,,,,,,,,,,,,,,,,,,,,,,,
,,66a4f41f0a2e0870ee52c6bf,66fce17372fc934423701e26,2024-10-02_08h02.45.818,mdp,2024.2.1,Win32,60.24096386,66fa4ebf79326e780c390304,,,,,,,,,,,,,,,,,,,,,336.1771,336.1771,336.179,337.2419,1,0,right,0.5382,,337.2436,337.2461,,0,,337.2473,337.2483,,0,,1,337.2483,337.2483,337.2494,338.7422,0,43,43,43,1,0.8,0.2,0.8,0.2,1,0,,,,,,,,,,,,,,,,,,,,,,,,,,,,,,,,,,,,
,,66a4f41f0a2e0870ee52c6bf,66fce17372fc934423701e26,2024-10-02_08h02.45.818,mdp,2024.2.1,Win32,60.24096386,66fa4ebf79326e780c390304,,,,,,,,,,,,,,,,,,,,,338.7426,338.7426,338.744,339.7094,1,0,right,0.4374,,339.7118,339.7129,,0,,339.7139,339.715,,0,,1,339.7151,339.7151,339.7159,341.2117,0,44,44,44,1,0.8,0.2,0.8,0.2,1,0,,,,,,,,,,,,,,,,,,,,,,,,,,,,,,,,,,,,
,,66a4f41f0a2e0870ee52c6bf,66fce17372fc934423701e26,2024-10-02_08h02.45.818,mdp,2024.2.1,Win32,60.24096386,66fa4ebf79326e780c390304,,,,,,,,,,,,,,,,,,,,,341.2123,341.2123,341.2137,342.1269,0,1,left,0.3887,,342.1282,342.1292,,0,,342.1302,342.1311,,0,,0,342.1312,342.1312,342.1328,343.6275,0,45,45,45,1,0.8,0.2,0.8,0.2,1,0,,,,,,,,,,,,,,,,,,,,,,,,,,,,,,,,,,,,
,,66a4f41f0a2e0870ee52c6bf,66fce17372fc934423701e26,2024-10-02_08h02.45.818,mdp,2024.2.1,Win32,60.24096386,66fa4ebf79326e780c390304,,,,,,,,,,,,,,,,,,,,,343.6284,343.6284,343.6301,344.6665,1,1,right,0.5135,,344.6679,344.6687,,0,,344.6697,344.6704,,0,,0,344.6705,344.6705,344.6719,346.1616,0,46,46,46,1,0.2,0.8,0.6,0.4,1,0,,,,,,,,,,,,,,,,,,,,,,,,,,,,,,,,,,,,
,,66a4f41f0a2e0870ee52c6bf,66fce17372fc934423701e26,2024-10-02_08h02.45.818,mdp,2024.2.1,Win32,60.24096386,66fa4ebf79326e780c390304,,,,,,,,,,,,,,,,,,,,,346.162,346.1621,346.1637,347.0472,1,0,right,0.3596,,347.049,347.05,,0,,347.0513,347.0524,,0,,1,347.0524,347.0524,347.0534,348.5459,0,47,47,47,1,0.2,0.8,0.6,0.4,1,0,,,,,,,,,,,,,,,,,,,,,,,,,,,,,,,,,,,,
,,66a4f41f0a2e0870ee52c6bf,66fce17372fc934423701e26,2024-10-02_08h02.45.818,mdp,2024.2.1,Win32,60.24096386,66fa4ebf79326e780c390304,,,,,,,,,,,,,,,,,,,,,348.5464,348.5464,348.5479,349.4798,1,0,right,0.4046,,349.4812,349.4822,,1,,349.4834,349.4847,,1,,1,349.4847,349.4848,349.4857,350.9816,0,48,48,48,1,0.2,0.8,0.6,0.4,1,0,,,,,,,,,,,,,,,,,,,,,,,,,,,,,,,,,,,,
,,66a4f41f0a2e0870ee52c6bf,66fce17372fc934423701e26,2024-10-02_08h02.45.818,mdp,2024.2.1,Win32,60.24096386,66fa4ebf79326e780c390304,,,,,,,,,,,,,,,,,,,,,350.9826,350.9826,350.9839,352.8311,1,0,right,1.3196,,352.8325,352.8335,,1,,352.8345,352.8355,,0,,1,352.8356,352.8356,352.8365,354.3316,0,49,49,49,1,0.2,0.8,0.6,0.4,1,0,,,,,,,,,,,,,,,,,,,,,,,,,,,,,,,,,,,,
,,66a4f41f0a2e0870ee52c6bf,66fce17372fc934423701e26,2024-10-02_08h02.45.818,mdp,2024.2.1,Win32,60.24096386,66fa4ebf79326e780c390304,,,,,,,,,,,,,,,,,,,,,,,,,,,,,,,,,,,,,,,,,,,,,,,,,,,,,,,,354.3327,412.8376,0,0,0,3,1,imgs/kangaroo.png,imgs/lion.png,imgs/giraffe.png,imgs/rabbit.png,imgs/elephant.png,,,,,,,,,,,,,,,,,,,,,,,,
,,66a4f41f0a2e0870ee52c6bf,66fce17372fc934423701e26,2024-10-02_08h02.45.818,mdp,2024.2.1,Win32,60.24096386,66fa4ebf79326e780c390304,,,,,,,,,,,,,,2,seqs/st2seq41.csv,412.8396,414.9382,space,1.571,,414.9473,414.9474,414.9489,417.1444,1,1,right,1.6683,,417.1458,419.2752,1,1,right,419.2769,419.2779,,0,,0,419.278,419.278,419.2794,420.7735,0,0,0,0,1,0.8,0.2,0.2,0.8,,,,,,,,,,,,,,,1.5991,,0.6,0.4,0.2,0.8,0.8,0.2,0.4,0.6,1,0,,,,,,,,,,,,
,,66a4f41f0a2e0870ee52c6bf,66fce17372fc934423701e26,2024-10-02_08h02.45.818,mdp,2024.2.1,Win32,60.24096386,66fa4ebf79326e780c390304,,,,,,,,,,,,,,,,,,,,,420.7741,420.7741,420.7755,422.1909,1,1,right,0.9013,,422.1922,424.5462,1,1,right,424.5479,424.5488,,1,,0,424.549,424.549,424.55,426.0442,0,1,1,1,1,0.8,0.2,0.2,0.8,,,,,,,,,,,,,,,1.8463,,0.6,0.4,0.2,0.8,0.8,0.2,0.4,0.6,1,0,,,,,,,,,,,,
,,66a4f41f0a2e0870ee52c6bf,66fce17372fc934423701e26,2024-10-02_08h02.45.818,mdp,2024.2.1,Win32,60.24096386,66fa4ebf79326e780c390304,,,,,,,,,,,,,,,,,,,,,426.0446,426.0446,426.0464,427.4294,1,0,right,0.8611,,427.431,429.3122,0,0,left,429.3137,429.3146,,0,,1,429.3148,429.3148,429.3156,430.8127,0,2,2,2,1,0.8,0.2,0.2,0.8,,,,,,,,,,,,,,,1.3432,,0.6,0.4,0.2,0.8,0.8,0.2,0.4,0.6,1,0,,,,,,,,,,,,
,,66a4f41f0a2e0870ee52c6bf,66fce17372fc934423701e26,2024-10-02_08h02.45.818,mdp,2024.2.1,Win32,60.24096386,66fa4ebf79326e780c390304,,,,,,,,,,,,,,,,,,,,,430.8138,430.8138,430.8157,431.962,0,0,left,0.6248,,431.9636,433.8119,0,1,left,433.8133,433.8142,,0,,0,433.8143,433.8143,433.8154,435.3122,0,3,3,3,1,0.8,0.2,0.2,0.8,,,,,,,,,,,,,,,1.3206,,0.6,0.4,0.2,0.8,0.8,0.2,0.4,0.6,1,0,,,,,,,,,,,,
,,66a4f41f0a2e0870ee52c6bf,66fce17372fc934423701e26,2024-10-02_08h02.45.818,mdp,2024.2.1,Win32,60.24096386,66fa4ebf79326e780c390304,,,,,,,,,,,,,,,,,,,,,435.3128,435.3128,435.3141,436.8021,1,1,right,0.9644,,436.8034,437.9976,0,0,left,437.9994,438.0005,,0,,1,438.0005,438.0005,438.0015,439.4993,0,4,4,4,1,0.8,0.2,0.2,0.8,,,,,,,,,,,,,,,0.6708,,0.6,0.4,0.2,0.8,0.8,0.2,0.4,0.6,1,0,,,,,,,,,,,,
,,66a4f41f0a2e0870ee52c6bf,66fce17372fc934423701e26,2024-10-02_08h02.45.818,mdp,2024.2.1,Win32,60.24096386,66fa4ebf79326e780c390304,,,,,,,,,,,,,,,,,,,,,439.5003,439.5003,439.502,441.3345,0,1,left,1.3111,,441.3365,442.4849,1,1,right,442.4863,442.4875,,0,,0,442.4875,442.4876,442.4886,443.9824,0,5,5,5,1,0.8,0.2,0.2,0.8,,,,,,,,,,,,,,,0.6281,,0.6,0.4,0.2,0.8,0.8,0.2,0.4,0.6,1,0,,,,,,,,,,,,
,,66a4f41f0a2e0870ee52c6bf,66fce17372fc934423701e26,2024-10-02_08h02.45.818,mdp,2024.2.1,Win32,60.24096386,66fa4ebf79326e780c390304,,,,,,,,,,,,,,,,,,,,,443.983,443.983,443.9845,445.167,0,0,left,0.6752,,445.1684,446.4999,1,1,right,446.5018,446.5029,,0,,0,446.5029,446.5029,446.504,448.0024,0,6,6,6,1,0.8,0.2,0.2,0.8,,,,,,,,,,,,,,,0.8166,,0.6,0.4,0.2,0.8,0.8,0.2,0.4,0.6,1,0,,,,,,,,,,,,
,,66a4f41f0a2e0870ee52c6bf,66fce17372fc934423701e26,2024-10-02_08h02.45.818,mdp,2024.2.1,Win32,60.24096386,66fa4ebf79326e780c390304,,,,,,,,,,,,,,,,,,,,,448.0029,448.0029,448.0043,448.9177,0,1,left,0.3854,,448.919,450.8685,1,1,right,450.8699,450.8709,,1,,0,450.871,450.871,450.872,452.369,0,7,7,7,1,0.8,0.2,0.2,0.8,,,,,,,,,,,,,,,1.4146,,0.6,0.4,0.2,0.8,0.8,0.2,0.4,0.6,1,0,,,,,,,,,,,,
,,66a4f41f0a2e0870ee52c6bf,66fce17372fc934423701e26,2024-10-02_08h02.45.818,mdp,2024.2.1,Win32,60.24096386,66fa4ebf79326e780c390304,,,,,,,,,,,,,,,,,,,,,452.3694,452.3694,452.3707,453.703,0,0,left,0.8032,,453.7044,454.9184,1,1,right,454.9207,454.922,,1,,0,454.9221,454.9221,454.9232,456.4204,0,8,8,8,1,0.8,0.2,0.2,0.8,,,,,,,,,,,,,,,0.6826,,0.6,0.4,0.2,0.8,0.8,0.2,0.4,0.6,1,0,,,,,,,,,,,,
,,66a4f41f0a2e0870ee52c6bf,66fce17372fc934423701e26,2024-10-02_08h02.45.818,mdp,2024.2.1,Win32,60.24096386,66fa4ebf79326e780c390304,,,,,,,,,,,,,,,,,,,,,456.4208,456.4209,456.4221,457.3567,0,0,left,0.4105,,457.358,458.4405,0,1,left,458.4421,458.4434,,0,,0,458.4434,458.4434,458.4446,459.9384,0,9,9,9,1,0.8,0.2,0.2,0.8,,,,,,,,,,,,,,,0.56,,0.6,0.4,0.2,0.8,0.8,0.2,0.4,0.6,1,0,,,,,,,,,,,,
,,66a4f41f0a2e0870ee52c6bf,66fce17372fc934423701e26,2024-10-02_08h02.45.818,mdp,2024.2.1,Win32,60.24096386,66fa4ebf79326e780c390304,,,,,,,,,,,,,,,,,,,,,459.9388,459.9388,459.9401,460.9389,0,0,left,0.4708,,460.941,462.0894,1,0,right,462.0912,462.0924,,1,,1,462.0924,462.0924,462.0937,463.5918,0,10,10,10,1,0.8,0.2,0.2,0.8,,,,,,,,,,,,,,,0.6185,,0.6,0.4,0.2,0.8,0.8,0.2,0.4,0.6,1,0,,,,,,,,,,,,
,,66a4f41f0a2e0870ee52c6bf,66fce17372fc934423701e26,2024-10-02_08h02.45.818,mdp,2024.2.1,Win32,60.24096386,66fa4ebf79326e780c390304,,,,,,,,,,,,,,,,,,,,,463.5923,463.5923,463.5938,464.577,0,0,left,0.4617,,464.5783,465.6769,1,1,right,465.6783,465.6792,,0,,0,465.6793,465.6793,465.6803,467.1766,0,11,11,11,1,0.8,0.2,0.2,0.8,,,,,,,,,,,,,,,0.577,,0.6,0.4,0.2,0.8,0.8,0.2,0.4,0.6,1,0,,,,,,,,,,,,
,,66a4f41f0a2e0870ee52c6bf,66fce17372fc934423701e26,2024-10-02_08h02.45.818,mdp,2024.2.1,Win32,60.24096386,66fa4ebf79326e780c390304,,,,,,,,,,,,,,,,,,,,,467.1772,467.1772,467.1785,468.0256,1,1,right,0.3257,,468.0277,469.1088,0,0,left,469.1106,469.1137,,0,,1,469.1138,469.1138,469.1155,470.6092,0,12,12,12,1,0.8,0.2,0.2,0.8,,,,,,,,,,,,,,,0.5466,,0.6,0.4,0.2,0.8,0.8,0.2,0.4,0.6,1,0,,,,,,,,,,,,
,,66a4f41f0a2e0870ee52c6bf,66fce17372fc934423701e26,2024-10-02_08h02.45.818,mdp,2024.2.1,Win32,60.24096386,66fa4ebf79326e780c390304,,,,,,,,,,,,,,,,,,,,,470.6096,470.6096,470.6112,471.5658,0,0,left,0.4308,,471.5673,472.8602,1,1,right,472.862,472.8631,,1,,0,472.8632,472.8632,472.8642,474.3605,0,13,13,13,1,0.8,0.2,0.2,0.8,,,,,,,,,,,,,,,0.7662,,0.6,0.4,0.2,0.8,0.8,0.2,0.4,0.6,1,0,,,,,,,,,,,,
,,66a4f41f0a2e0870ee52c6bf,66fce17372fc934423701e26,2024-10-02_08h02.45.818,mdp,2024.2.1,Win32,60.24096386,66fa4ebf79326e780c390304,,,,,,,,,,,,,,,,,,,,,474.361,474.361,474.3624,475.0143,1,0,right,0.1275,,475.0157,476.13,0,0,left,476.1319,476.1329,,0,,1,476.1331,476.1331,476.1344,477.6285,0,14,14,14,1,0.8,0.2,0.2,0.8,,,,,,,,,,,,,,,0.5869,,0.6,0.4,0.2,0.8,0.8,0.2,0.4,0.6,1,0,,,,,,,,,,,,
,,66a4f41f0a2e0870ee52c6bf,66fce17372fc934423701e26,2024-10-02_08h02.45.818,mdp,2024.2.1,Win32,60.24096386,66fa4ebf79326e780c390304,,,,,,,,,,,,,,,,,,,,,477.6294,477.6294,477.6313,478.5458,1,1,right,0.3858,,478.5471,479.4302,0,1,left,479.4318,479.4346,,0,,0,479.4348,479.4348,479.4359,480.9297,0,15,15,15,1,0.8,0.2,0.2,0.8,,,,,,,,,,,,,,,0.3545,,0.6,0.4,0.2,0.8,0.8,0.2,0.4,0.6,1,0,,,,,,,,,,,,
,,66a4f41f0a2e0870ee52c6bf,66fce17372fc934423701e26,2024-10-02_08h02.45.818,mdp,2024.2.1,Win32,60.24096386,66fa4ebf79326e780c390304,,,,,,,,,,,,,,,,,,,,,480.9307,480.9307,480.9324,481.6322,1,1,right,0.1759,,481.6336,482.3969,0,0,left,482.3988,482.3998,,0,,1,482.3999,482.3999,482.4008,483.8995,0,16,16,16,1,0.8,0.2,0.2,0.8,,,,,,,,,,,,,,,0.2347,,0.6,0.4,0.2,0.8,0.8,0.2,0.4,0.6,1,0,,,,,,,,,,,,
,,66a4f41f0a2e0870ee52c6bf,66fce17372fc934423701e26,2024-10-02_08h02.45.818,mdp,2024.2.1,Win32,60.24096386,66fa4ebf79326e780c390304,,,,,,,,,,,,,,,,,,,,,483.9,483.9,483.9014,484.8821,1,1,right,0.4586,,484.8835,485.5817,0,0,left,485.5831,485.5846,,1,,1,485.5846,485.5847,485.5857,487.0822,0,17,17,17,1,0.8,0.2,0.2,0.8,,,,,,,,,,,,,,,0.1851,,0.6,0.4,0.2,0.8,0.8,0.2,0.4,0.6,1,0,,,,,,,,,,,,
,,66a4f41f0a2e0870ee52c6bf,66fce17372fc934423701e26,2024-10-02_08h02.45.818,mdp,2024.2.1,Win32,60.24096386,66fa4ebf79326e780c390304,,,,,,,,,,,,,,,,,,,,,487.083,487.0831,487.0852,488.3181,1,1,right,0.7192,,488.3199,489.1503,1,0,right,489.1517,489.1527,,0,,1,489.1528,489.1528,489.1539,490.6501,0,18,18,18,1,0.8,0.2,0.2,0.8,,,,,,,,,,,,,,,0.3083,,0.6,0.4,0.2,0.8,0.8,0.2,0.4,0.6,1,0,,,,,,,,,,,,
,,66a4f41f0a2e0870ee52c6bf,66fce17372fc934423701e26,2024-10-02_08h02.45.818,mdp,2024.2.1,Win32,60.24096386,66fa4ebf79326e780c390304,,,,,,,,,,,,,,,,,,,,,490.6505,490.6506,490.6519,491.7541,1,1,right,0.5779,,491.7556,492.5846,1,1,right,492.5871,492.5881,,0,,0,492.5882,492.5882,492.5892,494.0868,0,19,19,19,1,0.8,0.2,0.2,0.8,,,,,,,,,,,,,,,0.301,,0.6,0.4,0.2,0.8,0.8,0.2,0.4,0.6,1,0,,,,,,,,,,,,
,,66a4f41f0a2e0870ee52c6bf,66fce17372fc934423701e26,2024-10-02_08h02.45.818,mdp,2024.2.1,Win32,60.24096386,66fa4ebf79326e780c390304,,,,,,,,,,,,,,,,,,,,,494.0872,494.0872,494.0888,494.8019,1,1,right,0.1878,,494.8031,495.6356,0,0,left,495.637,495.6381,,0,,1,495.6381,495.6381,495.6392,497.1381,0,20,20,20,1,0.8,0.2,0.2,0.8,,,,,,,,,,,,,,,0.301,,0.6,0.4,0.2,0.8,0.8,0.2,0.4,0.6,1,0,,,,,,,,,,,,
,,66a4f41f0a2e0870ee52c6bf,66fce17372fc934423701e26,2024-10-02_08h02.45.818,mdp,2024.2.1,Win32,60.24096386,66fa4ebf79326e780c390304,,,,,,,,,,,,,,,,,,,,,497.1385,497.1385,497.1399,497.8365,1,1,right,0.1689,,497.8378,498.4533,0,0,left,498.4548,498.4558,,0,,1,498.4559,498.4559,498.4569,499.9537,0,21,21,21,1,0.8,0.2,0.2,0.8,,,,,,,,,,,,,,,0.0839,,0.6,0.4,0.2,0.8,0.8,0.2,0.4,0.6,1,0,,,,,,,,,,,,
,,66a4f41f0a2e0870ee52c6bf,66fce17372fc934423701e26,2024-10-02_08h02.45.818,mdp,2024.2.1,Win32,60.24096386,66fa4ebf79326e780c390304,,,,,,,,,,,,,,,,,,,,,499.9541,499.9541,499.9554,500.504,1,0,right,0.0202,,500.5054,501.5878,0,0,left,501.5893,501.5907,,1,,1,501.5908,501.5908,501.5918,503.0903,0,22,22,22,1,0.8,0.2,0.2,0.8,,,,,,,,,,,,,,,0.5647,,0.6,0.4,0.2,0.8,0.8,0.2,0.4,0.6,1,0,,,,,,,,,,,,
,,66a4f41f0a2e0870ee52c6bf,66fce17372fc934423701e26,2024-10-02_08h02.45.818,mdp,2024.2.1,Win32,60.24096386,66fa4ebf79326e780c390304,,,,,,,,,,,,,,,,,,,,,503.0907,503.0907,503.0922,503.672,1,1,right,0.0554,,503.6734,504.389,0,0,left,504.3905,504.3915,,0,,1,504.3916,504.3916,504.3927,505.8912,0,23,23,23,1,0.8,0.2,0.2,0.8,,,,,,,,,,,,,,,0.1881,,0.6,0.4,0.2,0.8,0.6,0.4,0.2,0.8,1,0,,,,,,,,,,,,
,,66a4f41f0a2e0870ee52c6bf,66fce17372fc934423701e26,2024-10-02_08h02.45.818,mdp,2024.2.1,Win32,60.24096386,66fa4ebf79326e780c390304,,,,,,,,,,,,,,,,,,,,,505.8917,505.8918,505.8933,506.7431,0,0,left,0.3273,,506.7445,507.3076,1,0,right,507.3091,507.3121,,0,,1,507.3123,507.3123,507.3133,508.8071,0,24,24,24,1,0.8,0.2,0.2,0.8,,,,,,,,,,,,,,,0.038,,0.6,0.4,0.2,0.8,0.6,0.4,0.2,0.8,1,0,,,,,,,,,,,,
,,66a4f41f0a2e0870ee52c6bf,66fce17372fc934423701e26,2024-10-02_08h02.45.818,mdp,2024.2.1,Win32,60.24096386,66fa4ebf79326e780c390304,,,,,,,,,,,,,,,,,,,,,508.8075,508.8075,508.8089,509.6909,0,0,left,0.3696,,509.6925,510.243,1,1,right,510.2453,510.2464,,1,,0,510.2464,510.2464,510.2474,511.7415,0,25,25,25,1,0.8,0.2,0.2,0.8,,,,,,,,,,,,,,,0.026,,0.6,0.4,0.2,0.8,0.8,0.2,0.4,0.6,1,0,,,,,,,,,,,,
,,66a4f41f0a2e0870ee52c6bf,66fce17372fc934423701e26,2024-10-02_08h02.45.818,mdp,2024.2.1,Win32,60.24096386,66fa4ebf79326e780c390304,,,,,,,,,,,,,,,,,,,,,511.7419,511.7419,511.7435,512.7106,0,1,left,0.4345,,512.7125,514.0093,0,0,left,514.011,514.0143,,0,,1,514.0143,514.0143,514.0157,515.5106,0,26,26,26,1,0.8,0.2,0.2,0.8,,,,,,,,,,,,,,,0.7674,,0.6,0.4,0.2,0.8,0.8,0.2,0.4,0.6,1,0,,,,,,,,,,,,
,,66a4f41f0a2e0870ee52c6bf,66fce17372fc934423701e26,2024-10-02_08h02.45.818,mdp,2024.2.1,Win32,60.24096386,66fa4ebf79326e780c390304,,,,,,,,,,,,,,,,,,,,,515.5114,515.5114,515.5129,516.1478,1,1,right,0.1121,,516.1494,516.7602,0,1,left,516.7617,516.7626,,0,,0,516.7628,516.7628,516.7638,518.2607,0,27,27,27,1,0.8,0.2,0.2,0.8,,,,,,,,,,,,,,,0.0848,,0.6,0.4,0.2,0.8,0.2,0.8,0.2,0.8,1,0,,,,,,,,,,,,
,,66a4f41f0a2e0870ee52c6bf,66fce17372fc934423701e26,2024-10-02_08h02.45.818,mdp,2024.2.1,Win32,60.24096386,66fa4ebf79326e780c390304,,,,,,,,,,,,,,,,,,,,,518.2612,518.2612,518.2626,519.1779,1,0,right,0.3839,,519.1793,520.3835,1,0,right,520.3853,520.3868,,0,,1,520.3868,520.3868,520.388,521.8788,0,28,28,28,1,0.2,0.8,0.6,0.4,,,,,,,,,,,,,,,0.6929,,0.6,0.4,0.2,0.8,0.2,0.8,0.2,0.8,1,0,,,,,,,,,,,,
,,66a4f41f0a2e0870ee52c6bf,66fce17372fc934423701e26,2024-10-02_08h02.45.818,mdp,2024.2.1,Win32,60.24096386,66fa4ebf79326e780c390304,,,,,,,,,,,,,,,,,,,,,521.8794,521.8794,521.8807,522.7152,0,1,left,0.3096,,522.7167,523.2803,1,1,right,523.2828,523.2839,,1,,0,523.2839,523.2839,523.2853,524.7818,0,29,29,29,1,0.2,0.8,0.6,0.4,,,,,,,,,,,,,,,0.0391,,0.6,0.4,0.2,0.8,0.2,0.8,0.2,0.8,1,0,,,,,,,,,,,,
,,66a4f41f0a2e0870ee52c6bf,66fce17372fc934423701e26,2024-10-02_08h02.45.818,mdp,2024.2.1,Win32,60.24096386,66fa4ebf79326e780c390304,,,,,,,,,,,,,,,,,,,,,524.7828,524.7828,524.7846,525.4637,1,0,right,0.1522,,525.465,526.0638,0,1,left,526.0653,526.0663,,0,,0,526.0663,526.0663,526.0675,527.564,0,30,30,30,1,0.2,0.8,0.6,0.4,,,,,,,,,,,,,,,0.0786,,0.6,0.4,0.2,0.8,0.2,0.8,0.2,0.8,1,0,,,,,,,,,,,,
,,66a4f41f0a2e0870ee52c6bf,66fce17372fc934423701e26,2024-10-02_08h02.45.818,mdp,2024.2.1,Win32,60.24096386,66fa4ebf79326e780c390304,,,,,,,,,,,,,,,,,,,,,527.5646,527.5647,527.566,528.3012,0,1,left,0.2104,,528.3025,529.2168,1,1,right,529.2182,529.2192,,1,,0,529.2193,529.2193,529.2205,530.7163,0,31,31,31,1,0.2,0.8,0.6,0.4,,,,,,,,,,,,,,,0.3797,,0.6,0.4,0.2,0.8,0.2,0.8,0.2,0.8,1,0,,,,,,,,,,,,
,,66a4f41f0a2e0870ee52c6bf,66fce17372fc934423701e26,2024-10-02_08h02.45.818,mdp,2024.2.1,Win32,60.24096386,66fa4ebf79326e780c390304,,,,,,,,,,,,,,,,,,,,,530.7171,530.7171,530.7189,531.3204,1,0,right,0.0934,,531.322,531.8826,0,0,left,531.8839,531.8852,,1,,1,531.8853,531.8853,531.8863,533.3834,0,32,32,32,1,0.2,0.8,0.6,0.4,,,,,,,,,,,,,,,0.0298,,0.6,0.4,0.2,0.8,0.2,0.8,0.2,0.8,1,0,,,,,,,,,,,,
,,66a4f41f0a2e0870ee52c6bf,66fce17372fc934423701e26,2024-10-02_08h02.45.818,mdp,2024.2.1,Win32,60.24096386,66fa4ebf79326e780c390304,,,,,,,,,,,,,,,,,,,,,533.3842,533.3842,533.3856,534.0334,1,0,right,0.1191,,534.0347,534.719,1,1,right,534.7207,534.7218,,1,,0,534.7218,534.7218,534.7231,536.2175,0,33,33,33,1,0.2,0.8,0.6,0.4,,,,,,,,,,,,,,,0.1675,,0.6,0.4,0.2,0.8,0.2,0.8,0.2,0.8,1,0,,,,,,,,,,,,
,,66a4f41f0a2e0870ee52c6bf,66fce17372fc934423701e26,2024-10-02_08h02.45.818,mdp,2024.2.1,Win32,60.24096386,66fa4ebf79326e780c390304,,,,,,,,,,,,,,,,,,,,,536.218,536.218,536.2195,537.3181,0,1,left,0.5677,,537.3202,538.2886,0,1,left,538.2899,538.2911,,1,,0,538.2911,538.2911,538.2921,539.7855,0,34,34,34,1,0.2,0.8,0.6,0.4,,,,,,,,,,,,,,,0.4401,,0.6,0.4,0.2,0.8,0.2,0.8,0.2,0.8,1,0,,,,,,,,,,,,
,,66a4f41f0a2e0870ee52c6bf,66fce17372fc934423701e26,2024-10-02_08h02.45.818,mdp,2024.2.1,Win32,60.24096386,66fa4ebf79326e780c390304,,,,,,,,,,,,,,,,,,,,,539.7861,539.7862,539.7878,540.7539,1,0,right,0.4422,,540.7559,542.7368,0,0,left,542.7382,542.7393,,0,,1,542.7394,542.7394,542.7404,544.2372,0,35,35,35,1,0.2,0.8,0.6,0.4,,,,,,,,,,,,,,,1.4491,,0.6,0.4,0.2,0.8,0.6,0.4,0.8,0.2,1,0,,,,,,,,,,,,
,,66a4f41f0a2e0870ee52c6bf,66fce17372fc934423701e26,2024-10-02_08h02.45.818,mdp,2024.2.1,Win32,60.24096386,66fa4ebf79326e780c390304,,,,,,,,,,,,,,,,,,,,,544.2376,544.2376,544.2389,545.0545,0,1,left,0.2871,,545.0558,545.7065,0,0,left,545.7083,545.7092,,0,,1,545.7092,545.7093,545.7106,547.2051,0,36,36,36,1,0.2,0.8,0.6,0.4,,,,,,,,,,,,,,,0.1146,,0.6,0.4,0.2,0.8,0.6,0.4,0.8,0.2,1,0,,,,,,,,,,,,
,,66a4f41f0a2e0870ee52c6bf,66fce17372fc934423701e26,2024-10-02_08h02.45.818,mdp,2024.2.1,Win32,60.24096386,66fa4ebf79326e780c390304,,,,,,,,,,,,,,,,,,,,,547.2055,547.2055,547.2071,548.1222,1,1,right,0.3908,,548.1235,548.6919,1,0,right,548.6935,548.6947,,0,,1,548.6947,548.6947,548.696,550.1895,0,37,37,37,1,0.2,0.8,0.6,0.4,,,,,,,,,,,,,,,0.0435,,0.6,0.4,0.2,0.8,0.6,0.4,0.8,0.2,1,0,,,,,,,,,,,,
,,66a4f41f0a2e0870ee52c6bf,66fce17372fc934423701e26,2024-10-02_08h02.45.818,mdp,2024.2.1,Win32,60.24096386,66fa4ebf79326e780c390304,,,,,,,,,,,,,,,,,,,,,550.19,550.19,550.1918,550.8067,1,0,right,0.0859,,550.8081,551.9131,1,1,right,551.9145,551.9154,,1,,0,551.9154,551.9154,551.9167,553.4076,0,38,38,38,1,0.2,0.8,0.6,0.4,,,,,,,,,,,,,,,0.5758,,0.6,0.4,0.2,0.8,0.4,0.6,0.6,0.4,1,0,,,,,,,,,,,,
,,66a4f41f0a2e0870ee52c6bf,66fce17372fc934423701e26,2024-10-02_08h02.45.818,mdp,2024.2.1,Win32,60.24096386,66fa4ebf79326e780c390304,,,,,,,,,,,,,,,,,,,,,553.4079,553.4079,553.4094,553.9411,1,1,right,0.0023,,553.9426,556.1421,1,0,right,556.1442,556.1452,,1,,1,556.1453,556.1453,556.1463,557.6423,0,39,39,39,1,0.2,0.8,0.6,0.4,,,,,,,,,,,,,,,1.6664,,0.6,0.4,0.2,0.8,0.4,0.6,0.6,0.4,1,0,,,,,,,,,,,,
,,66a4f41f0a2e0870ee52c6bf,66fce17372fc934423701e26,2024-10-02_08h02.45.818,mdp,2024.2.1,Win32,60.24096386,66fa4ebf79326e780c390304,,,,,,,,,,,,,,,,,,,,,557.6426,557.6426,557.6441,558.6263,0,1,left,0.4676,,558.6276,559.3117,0,0,left,559.3139,559.3153,,0,,1,559.3153,559.3154,559.3166,560.8104,0,40,40,40,1,0.2,0.8,0.6,0.4,,,,,,,,,,,,,,,0.1542,,0.6,0.4,0.2,0.8,0.4,0.6,0.6,0.4,1,0,,,,,,,,,,,,
,,66a4f41f0a2e0870ee52c6bf,66fce17372fc934423701e26,2024-10-02_08h02.45.818,mdp,2024.2.1,Win32,60.24096386,66fa4ebf79326e780c390304,,,,,,,,,,,,,,,,,,,,,560.8108,560.8108,560.8122,561.699,1,1,right,0.3565,,561.7008,562.6174,1,0,right,562.6198,562.6209,,1,,1,562.6209,562.621,562.6223,564.1121,0,41,41,41,1,0.2,0.8,0.6,0.4,,,,,,,,,,,,,,,0.3945,,0.6,0.4,0.2,0.8,0.4,0.6,0.6,0.4,1,0,,,,,,,,,,,,
,,66a4f41f0a2e0870ee52c6bf,66fce17372fc934423701e26,2024-10-02_08h02.45.818,mdp,2024.2.1,Win32,60.24096386,66fa4ebf79326e780c390304,,,,,,,,,,,,,,,,,,,,,564.1125,564.1126,564.1142,565.0804,1,1,right,0.4403,,565.0824,566.5501,1,0,right,566.5514,566.5524,,0,,1,566.5524,566.5524,566.5536,568.0469,0,42,42,42,1,0.2,0.8,0.6,0.4,,,,,,,,,,,,,,,0.9426,,0.6,0.4,0.2,0.8,0.4,0.6,0.6,0.4,1,0,,,,,,,,,,,,
,,66a4f41f0a2e0870ee52c6bf,66fce17372fc934423701e26,2024-10-02_08h02.45.818,mdp,2024.2.1,Win32,60.24096386,66fa4ebf79326e780c390304,,,,,,,,,,,,,,,,,,,,,568.0473,568.0473,568.0491,568.9802,0,0,left,0.401,,568.9817,570.2005,0,0,left,570.2019,570.2028,,0,,1,570.2028,570.2028,570.2041,571.6979,0,43,43,43,1,0.2,0.8,0.6,0.4,,,,,,,,,,,,,,,0.6895,,0.6,0.4,0.2,0.8,0.4,0.6,0.6,0.4,1,0,,,,,,,,,,,,
,,66a4f41f0a2e0870ee52c6bf,66fce17372fc934423701e26,2024-10-02_08h02.45.818,mdp,2024.2.1,Win32,60.24096386,66fa4ebf79326e780c390304,,,,,,,,,,,,,,,,,,,,,571.6987,571.6987,571.7005,572.6033,0,1,left,0.3769,,572.605,573.6156,0,1,left,573.617,573.6181,,1,,0,573.6181,573.6182,573.6193,575.1159,0,44,44,44,1,0.2,0.8,0.6,0.4,,,,,,,,,,,,,,,0.4727,,0.2,0.8,0.8,0.2,0.4,0.6,0.6,0.4,1,0,,,,,,,,,,,,
,,66a4f41f0a2e0870ee52c6bf,66fce17372fc934423701e26,2024-10-02_08h02.45.818,mdp,2024.2.1,Win32,60.24096386,66fa4ebf79326e780c390304,,,,,,,,,,,,,,,,,,,,,575.1167,575.1167,575.1181,576.0166,1,0,right,0.3719,,576.0181,576.5852,1,0,right,576.5867,576.5877,,0,,1,576.5878,576.5878,576.589,578.084,0,45,45,45,1,0.2,0.8,0.6,0.4,,,,,,,,,,,,,,,0.0352,,0.2,0.8,0.8,0.2,0.4,0.6,0.6,0.4,1,0,,,,,,,,,,,,
,,66a4f41f0a2e0870ee52c6bf,66fce17372fc934423701e26,2024-10-02_08h02.45.818,mdp,2024.2.1,Win32,60.24096386,66fa4ebf79326e780c390304,,,,,,,,,,,,,,,,,,,,,578.0845,578.0845,578.0857,579.0515,0,1,left,0.4415,,579.0527,579.6841,0,1,left,579.6855,579.6865,,1,,0,579.6866,579.6866,579.6876,581.1845,0,46,46,46,1,0.2,0.8,0.6,0.4,,,,,,,,,,,,,,,0.1005,,0.2,0.8,0.8,0.2,0.4,0.6,0.6,0.4,1,0,,,,,,,,,,,,
,,66a4f41f0a2e0870ee52c6bf,66fce17372fc934423701e26,2024-10-02_08h02.45.818,mdp,2024.2.1,Win32,60.24096386,66fa4ebf79326e780c390304,,,,,,,,,,,,,,,,,,,,,581.1851,581.1851,581.1863,581.8684,0,1,left,0.1524,,581.8698,583.9525,0,1,left,583.9542,583.9552,,0,,0,583.9553,583.9553,583.9563,585.4528,0,47,47,47,1,0.2,0.8,0.6,0.4,,,,,,,,,,,,,,,1.5746,,0.2,0.8,0.8,0.2,0.4,0.6,0.6,0.4,1,0,,,,,,,,,,,,
,,66a4f41f0a2e0870ee52c6bf,66fce17372fc934423701e26,2024-10-02_08h02.45.818,mdp,2024.2.1,Win32,60.24096386,66fa4ebf79326e780c390304,,,,,,,,,,,,,,,,,,,,,585.4535,585.4535,585.4552,586.4032,0,1,left,0.4177,,586.4046,587.3751,0,0,left,587.3768,587.3779,,1,,1,587.378,587.378,587.3791,588.8709,0,48,48,48,1,0.2,0.8,0.6,0.4,,,,,,,,,,,,,,,0.4623,,0.2,0.8,0.8,0.2,0.4,0.6,0.6,0.4,1,0,,,,,,,,,,,,
,,66a4f41f0a2e0870ee52c6bf,66fce17372fc934423701e26,2024-10-02_08h02.45.818,mdp,2024.2.1,Win32,60.24096386,66fa4ebf79326e780c390304,,,,,,,,,,,,,,,,,,,,,588.8714,588.8714,588.8728,590.1716,1,0,right,0.7882,,590.1733,591.4559,1,0,right,591.4575,591.4592,,0,,1,591.4592,591.4592,591.4604,592.9564,0,49,49,49,1,0.2,0.8,0.6,0.4,,,,,,,,,,,,,,,0.7506,,0.2,0.8,0.8,0.2,0.6,0.4,0.2,0.8,1,0,,,,,,,,,,,,
,,66a4f41f0a2e0870ee52c6bf,66fce17372fc934423701e26,2024-10-02_08h02.45.818,mdp,2024.2.1,Win32,60.24096386,66fa4ebf79326e780c390304,,,,,,,,,,,,,,,,,,,,,,,,,,,,,,,,,,,,,,,,,,,,,,,,,,,,,,,,592.9564,651.4616,0,1,1,5,1,imgs/goat.png,imgs/elephant.png,imgs/kangaroo.png,imgs/bear.png,imgs/lion.png,,,,,,,,,,,,,,,,,,,,,,,,
,,66a4f41f0a2e0870ee52c6bf,66fce17372fc934423701e26,2024-10-02_08h02.45.818,mdp,2024.2.1,Win32,60.24096386,66fa4ebf79326e780c390304,,,,,,,,,,,,,,3,seqs/st3seq47.csv,651.4636,652.9623,space,0.9676,,652.9722,652.9723,652.9736,654.9131,0,0,left,1.4118,,654.9148,655.5465,0,0,left,655.5484,656.13,0,0,left,1,656.13,656.13,656.1317,657.6324,0,0,0,0,1,0.6,0.4,0.4,0.6,,,,,,,,,,,,,,,0.0875,,0.8,0.2,0.4,0.6,0.8,0.2,0.2,0.8,,,0.0444,,0.6,0.4,0.4,0.6,0.6,0.4,0.8,0.2,1,0
,,66a4f41f0a2e0870ee52c6bf,66fce17372fc934423701e26,2024-10-02_08h02.45.818,mdp,2024.2.1,Win32,60.24096386,66fa4ebf79326e780c390304,,,,,,,,,,,,,,,,,,,,,657.6331,657.6331,657.6346,659.2146,0,1,left,1.0526,,659.216,660.4984,0,0,left,660.4998,661.4604,1,0,right,1,661.4605,661.4605,661.4646,662.955,0,1,1,1,1,0.6,0.4,0.4,0.6,,,,,,,,,,,,,,,0.7427,,0.8,0.2,0.4,0.6,0.8,0.2,0.2,0.8,,,0.4356,,0.6,0.4,0.4,0.6,0.6,0.4,0.8,0.2,1,0
,,66a4f41f0a2e0870ee52c6bf,66fce17372fc934423701e26,2024-10-02_08h02.45.818,mdp,2024.2.1,Win32,60.24096386,66fa4ebf79326e780c390304,,,,,,,,,,,,,,,,,,,,,662.9559,662.9559,662.9573,663.9006,0,0,left,0.4041,,663.9032,664.4835,1,1,right,664.4847,665.5516,1,0,right,1,665.5517,665.5518,665.5541,667.0493,0,2,2,2,1,0.6,0.4,0.4,0.6,,,,,,,,,,,,,,,0.0509,,0.8,0.2,0.4,0.6,0.8,0.2,0.2,0.8,,,0.5403,,0.6,0.4,0.4,0.6,0.6,0.4,0.8,0.2,1,0
,,66a4f41f0a2e0870ee52c6bf,66fce17372fc934423701e26,2024-10-02_08h02.45.818,mdp,2024.2.1,Win32,60.24096386,66fa4ebf79326e780c390304,,,,,,,,,,,,,,,,,,,,,667.0498,667.0498,667.0511,667.5665,0,1,left,0.0028,,667.5679,668.3666,0,0,left,668.3678,669.0083,0,0,left,1,669.0085,669.0085,669.0107,670.5023,0,3,3,3,1,0.6,0.4,0.4,0.6,,,,,,,,,,,,,,,0.2712,,0.8,0.2,0.4,0.6,0.8,0.2,0.2,0.8,,,0.1166,,0.6,0.4,0.4,0.6,0.6,0.4,0.8,0.2,1,0
,,66a4f41f0a2e0870ee52c6bf,66fce17372fc934423701e26,2024-10-02_08h02.45.818,mdp,2024.2.1,Win32,60.24096386,66fa4ebf79326e780c390304,,,,,,,,,,,,,,,,,,,,,670.5032,670.5032,670.5057,671.4345,1,1,right,0.4002,,671.4358,672.1255,0,0,left,672.1278,673.2534,0,1,left,0,673.2536,673.2537,673.2559,674.7538,0,4,4,4,1,0.6,0.4,0.4,0.6,,,,,,,,,,,,,,,0.1799,,0.8,0.2,0.4,0.6,0.8,0.2,0.2,0.8,,,0.6046,,0.4,0.6,0.6,0.4,0.6,0.4,0.8,0.2,1,0
,,66a4f41f0a2e0870ee52c6bf,66fce17372fc934423701e26,2024-10-02_08h02.45.818,mdp,2024.2.1,Win32,60.24096386,66fa4ebf79326e780c390304,,,,,,,,,,,,,,,,,,,,,674.7547,674.7547,674.7575,675.7727,1,0,right,0.4951,,675.7753,676.3754,0,0,left,676.3784,677.3933,0,1,left,0,677.3934,677.3934,677.3963,678.8889,0,5,5,5,1,0.6,0.4,0.4,0.6,,,,,,,,,,,,,,,0.0718,,0.8,0.2,0.4,0.6,0.8,0.2,0.2,0.8,,,0.4973,,0.4,0.6,0.6,0.4,0.6,0.4,0.8,0.2,1,0
,,66a4f41f0a2e0870ee52c6bf,66fce17372fc934423701e26,2024-10-02_08h02.45.818,mdp,2024.2.1,Win32,60.24096386,66fa4ebf79326e780c390304,,,,,,,,,,,,,,,,,,,,,678.8897,678.8897,678.8923,679.8397,1,1,right,0.4393,,679.8421,680.8545,1,1,right,680.8559,681.8402,1,0,right,1,681.8403,681.8403,681.8425,683.3404,0,6,6,6,1,0.6,0.4,0.4,0.6,,,,,,,,,,,,,,,0.4766,,0.8,0.2,0.4,0.6,0.8,0.2,0.2,0.8,,,0.4631,,0.4,0.6,0.6,0.4,0.6,0.4,0.8,0.2,1,0
,,66a4f41f0a2e0870ee52c6bf,66fce17372fc934423701e26,2024-10-02_08h02.45.818,mdp,2024.2.1,Win32,60.24096386,66fa4ebf79326e780c390304,,,,,,,,,,,,,,,,,,,,,683.3413,683.3414,683.3441,684.1761,1,1,right,0.3116,,684.1787,685.4601,0,0,left,685.4629,686.6099,0,1,left,0,686.6101,686.6101,686.613,688.1091,0,7,7,7,1,0.6,0.4,0.4,0.6,,,,,,,,,,,,,,,0.7545,,0.8,0.2,0.4,0.6,0.8,0.2,0.2,0.8,,,0.6161,,0.4,0.6,0.6,0.4,0.6,0.4,0.8,0.2,1,0
,,66a4f41f0a2e0870ee52c6bf,66fce17372fc934423701e26,2024-10-02_08h02.45.818,mdp,2024.2.1,Win32,60.24096386,66fa4ebf79326e780c390304,,,,,,,,,,,,,,,,,,,,,688.1103,688.1103,688.113,689.0412,1,1,right,0.4015,,689.0425,689.9771,1,1,right,689.9802,691.478,1,1,right,0,691.478,691.4781,691.4804,692.9774,0,8,8,8,1,0.6,0.4,0.4,0.6,,,,,,,,,,,,,,,0.4183,,0.8,0.2,0.4,0.6,0.8,0.2,0.2,0.8,,,0.9634,,0.4,0.6,0.6,0.4,0.6,0.4,0.8,0.2,1,0
,,66a4f41f0a2e0870ee52c6bf,66fce17372fc934423701e26,2024-10-02_08h02.45.818,mdp,2024.2.1,Win32,60.24096386,66fa4ebf79326e780c390304,,,,,,,,,,,,,,,,,,,,,692.9784,692.9784,692.9812,693.8604,0,0,left,0.3518,,693.8617,694.9615,0,1,left,694.9626,695.6943,0,0,left,1,695.6945,695.6945,695.6956,697.1945,0,9,9,9,1,0.6,0.4,0.4,0.6,,,,,,,,,,,,,,,0.5734,,0.8,0.2,0.4,0.6,0.8,0.2,0.2,0.8,,,0.2054,,0.4,0.6,0.6,0.4,0.6,0.4,0.8,0.2,1,0
,,66a4f41f0a2e0870ee52c6bf,66fce17372fc934423701e26,2024-10-02_08h02.45.818,mdp,2024.2.1,Win32,60.24096386,66fa4ebf79326e780c390304,,,,,,,,,,,,,,,,,,,,,697.1951,697.1951,697.1967,698.112,1,0,right,0.3842,,698.1133,698.7959,1,0,right,698.8004,699.392,0,0,left,1,699.3922,699.3922,699.3955,700.8952,0,10,10,10,1,0.6,0.4,0.4,0.6,,,,,,,,,,,,,,,0.0061,,0.8,0.2,0.4,0.6,0.2,0.8,0.8,0.2,,,0.0501,,0.4,0.6,0.6,0.4,0.6,0.4,0.8,0.2,1,0
,,66a4f41f0a2e0870ee52c6bf,66fce17372fc934423701e26,2024-10-02_08h02.45.818,mdp,2024.2.1,Win32,60.24096386,66fa4ebf79326e780c390304,,,,,,,,,,,,,,,,,,,,,700.8979,700.898,700.9003,701.6456,1,0,right,0.2217,,701.6491,702.6309,1,0,right,702.6345,703.7305,1,0,right,1,703.7307,703.7307,703.734,705.2302,0,11,11,11,1,0.6,0.4,0.4,0.6,,,,,,,,,,,,,,,0.4517,,0.8,0.2,0.4,0.6,0.2,0.8,0.8,0.2,,,0.5678,,0.4,0.6,0.6,0.4,0.6,0.4,0.8,0.2,1,0
,,66a4f41f0a2e0870ee52c6bf,66fce17372fc934423701e26,2024-10-02_08h02.45.818,mdp,2024.2.1,Win32,60.24096386,66fa4ebf79326e780c390304,,,,,,,,,,,,,,,,,,,,,705.2311,705.2311,705.2326,706.0837,1,0,right,0.326,,706.0867,706.9814,1,0,right,706.9858,708.8822,1,0,right,1,708.8824,708.8824,708.886,710.3825,0,12,12,12,1,0.6,0.4,0.4,0.6,,,,,,,,,,,,,,,0.3749,,0.8,0.2,0.4,0.6,0.2,0.8,0.8,0.2,,,1.3712,,0.4,0.6,0.6,0.4,0.6,0.4,0.8,0.2,1,0
,,66a4f41f0a2e0870ee52c6bf,66fce17372fc934423701e26,2024-10-02_08h02.45.818,mdp,2024.2.1,Win32,60.24096386,66fa4ebf79326e780c390304,,,,,,,,,,,,,,,,,,,,,710.384,710.3841,710.3865,711.4164,1,0,right,0.5044,,711.4197,711.9331,1,1,right,711.9366,712.6834,0,1,left,0,712.6834,712.6835,712.6854,714.1838,0,13,13,13,1,0.6,0.4,0.4,0.6,,,,,,,,,,,,,,,0.005,,0.8,0.2,0.4,0.6,0.2,0.8,0.8,0.2,,,0.2108,,0.4,0.6,0.6,0.4,0.2,0.8,0.6,0.4,1,0
,,66a4f41f0a2e0870ee52c6bf,66fce17372fc934423701e26,2024-10-02_08h02.45.818,mdp,2024.2.1,Win32,60.24096386,66fa4ebf79326e780c390304,,,,,,,,,,,,,,,,,,,,,714.1864,714.1865,714.1893,715.7014,0,0,left,0.9878,,715.7046,716.7428,0,1,left,716.7451,717.5851,1,0,right,1,717.5852,717.5852,717.5869,719.0857,0,14,14,14,1,0.6,0.4,0.4,0.6,,,,,,,,,,,,,,,0.515,,0.8,0.2,0.4,0.6,0.2,0.8,0.8,0.2,,,0.3177,,0.4,0.6,0.6,0.4,0.2,0.8,0.6,0.4,1,0
,,66a4f41f0a2e0870ee52c6bf,66fce17372fc934423701e26,2024-10-02_08h02.45.818,mdp,2024.2.1,Win32,60.24096386,66fa4ebf79326e780c390304,,,,,,,,,,,,,,,,,,,,,719.0874,719.0875,719.0907,719.8035,0,0,left,0.1887,,719.807,720.3368,1,1,right,720.3404,721.2609,0,0,left,1,721.2611,721.2611,721.2635,722.7536,0,15,15,15,1,0.6,0.4,0.4,0.6,,,,,,,,,,,,,,,0.0016,,0.8,0.2,0.4,0.6,0.2,0.8,0.8,0.2,,,0.3977,,0.4,0.6,0.6,0.4,0.2,0.8,0.6,0.4,1,0
,,66a4f41f0a2e0870ee52c6bf,66fce17372fc934423701e26,2024-10-02_08h02.45.818,mdp,2024.2.1,Win32,60.24096386,66fa4ebf79326e780c390304,,,,,,,,,,,,,,,,,,,,,722.7554,722.7554,722.7582,723.671,1,1,right,0.3895,,723.6744,724.5547,0,1,left,724.5586,725.539,0,1,left,0,725.5394,725.5395,725.5427,727.0383,0,16,16,16,1,0.6,0.4,0.4,0.6,,,,,,,,,,,,,,,0.3469,,0.8,0.2,0.4,0.6,0.6,0.4,0.4,0.6,,,0.4552,,0.4,0.6,0.6,0.4,0.2,0.8,0.6,0.4,1,0
,,66a4f41f0a2e0870ee52c6bf,66fce17372fc934423701e26,2024-10-02_08h02.45.818,mdp,2024.2.1,Win32,60.24096386,66fa4ebf79326e780c390304,,,,,,,,,,,,,,,,,,,,,727.0392,727.0392,727.0406,727.6553,1,1,right,0.0863,,727.6571,728.9233,1,1,right,728.9263,730.0899,0,1,left,0,730.0901,730.0902,730.0937,731.5905,0,17,17,17,1,0.6,0.4,0.4,0.6,,,,,,,,,,,,,,,0.7574,,0.8,0.2,0.4,0.6,0.6,0.4,0.4,0.6,,,0.6419,,0.4,0.6,0.6,0.4,0.2,0.8,0.6,0.4,1,0
,,66a4f41f0a2e0870ee52c6bf,66fce17372fc934423701e26,2024-10-02_08h02.45.818,mdp,2024.2.1,Win32,60.24096386,66fa4ebf79326e780c390304,,,,,,,,,,,,,,,,,,,,,731.5925,731.5927,731.5957,732.8906,0,0,left,0.7725,,732.8924,733.8749,0,0,left,733.8767,734.9752,0,1,left,0,734.9754,734.9754,734.9788,736.4764,0,18,18,18,1,0.6,0.4,0.4,0.6,,,,,,,,,,,,,,,0.464,,0.8,0.2,0.4,0.6,0.6,0.4,0.4,0.6,,,0.5691,,0.4,0.6,0.6,0.4,0.2,0.8,0.6,0.4,1,0
,,66a4f41f0a2e0870ee52c6bf,66fce17372fc934423701e26,2024-10-02_08h02.45.818,mdp,2024.2.1,Win32,60.24096386,66fa4ebf79326e780c390304,,,,,,,,,,,,,,,,,,,,,736.4783,736.4783,736.4805,737.4927,1,0,right,0.4889,,737.4964,738.518,1,1,right,738.5204,739.4105,0,1,left,0,739.4105,739.4106,739.4144,740.9104,0,19,19,19,1,0.6,0.4,0.4,0.6,,,,,,,,,,,,,,,0.4978,,0.8,0.2,0.4,0.6,0.6,0.4,0.4,0.6,,,0.3624,,0.4,0.6,0.6,0.4,0.2,0.8,0.6,0.4,1,0
,,66a4f41f0a2e0870ee52c6bf,66fce17372fc934423701e26,2024-10-02_08h02.45.818,mdp,2024.2.1,Win32,60.24096386,66fa4ebf79326e780c390304,,,,,,,,,,,,,,,,,,,,,740.9124,740.9124,740.9152,741.5615,1,0,right,0.1223,,741.5653,742.7012,0,0,left,742.7037,744.0624,0,0,left,1,744.0626,744.0628,744.0663,745.5627,0,20,20,20,1,0.6,0.4,0.4,0.6,,,,,,,,,,,,,,,0.613,,0.8,0.2,0.4,0.6,0.6,0.4,0.4,0.6,,,0.8319,,0.4,0.6,0.6,0.4,0.2,0.8,0.6,0.4,1,0
,,66a4f41f0a2e0870ee52c6bf,66fce17372fc934423701e26,2024-10-02_08h02.45.818,mdp,2024.2.1,Win32,60.24096386,66fa4ebf79326e780c390304,,,,,,,,,,,,,,,,,,,,,745.5647,745.5647,745.5677,747.0842,0,0,left,0.9949,,747.0875,748.4801,0,0,left,748.4828,750.2122,0,1,left,0,750.2122,750.2123,750.2153,751.7043,0,21,21,21,1,0.6,0.4,0.4,0.6,,,,,,,,,,,,,,,0.8733,,0.8,0.2,0.4,0.6,0.6,0.4,0.4,0.6,,,1.2082,,0.4,0.6,0.6,0.4,0.2,0.8,0.6,0.4,1,0
,,66a4f41f0a2e0870ee52c6bf,66fce17372fc934423701e26,2024-10-02_08h02.45.818,mdp,2024.2.1,Win32,60.24096386,66fa4ebf79326e780c390304,,,,,,,,,,,,,,,,,,,,,751.706,751.706,751.709,752.5956,0,0,left,0.3581,,752.5987,753.4242,1,1,right,753.4272,754.7121,1,1,right,0,754.7123,754.7124,754.7146,756.2029,0,22,22,22,1,0.6,0.4,0.4,0.6,,,,,,,,,,,,,,,0.3018,,0.8,0.2,0.4,0.6,0.6,0.4,0.4,0.6,,,0.7555,,0.4,0.6,0.6,0.4,0.2,0.8,0.6,0.4,1,0
,,66a4f41f0a2e0870ee52c6bf,66fce17372fc934423701e26,2024-10-02_08h02.45.818,mdp,2024.2.1,Win32,60.24096386,66fa4ebf79326e780c390304,,,,,,,,,,,,,,,,,,,,,756.2045,756.2045,756.2073,757.6801,0,1,left,0.9561,,757.6852,758.6341,1,1,right,758.6362,759.5677,0,1,left,0,759.5679,759.5679,759.5716,761.0682,0,23,23,23,1,0.6,0.4,0.4,0.6,,,,,,,,,,,,,,,0.4328,,0.8,0.2,0.4,0.6,0.6,0.4,0.4,0.6,,,0.4227,,0.4,0.6,0.6,0.4,0.2,0.8,0.6,0.4,1,0
,,66a4f41f0a2e0870ee52c6bf,66fce17372fc934423701e26,2024-10-02_08h02.45.818,mdp,2024.2.1,Win32,60.24096386,66fa4ebf79326e780c390304,,,,,,,,,,,,,,,,,,,,,761.0698,761.0699,761.0733,761.9673,0,0,left,0.3713,,761.9711,762.8368,1,1,right,762.8383,763.7037,0,0,left,1,763.7038,763.7038,763.7049,765.2036,0,24,24,24,1,0.8,0.2,0.8,0.2,,,,,,,,,,,,,,,0.3467,,0.8,0.2,0.4,0.6,0.6,0.4,0.4,0.6,,,0.3382,,0.4,0.6,0.6,0.4,0.2,0.8,0.6,0.4,1,0
,,66a4f41f0a2e0870ee52c6bf,66fce17372fc934423701e26,2024-10-02_08h02.45.818,mdp,2024.2.1,Win32,60.24096386,66fa4ebf79326e780c390304,,,,,,,,,,,,,,,,,,,,,765.2042,765.2042,765.2056,766.0942,0,0,left,0.3654,,766.0965,766.6899,1,1,right,766.6923,767.5554,0,0,left,1,767.5555,767.5555,767.5567,769.0568,0,25,25,25,1,0.8,0.2,0.8,0.2,,,,,,,,,,,,,,,0.068,,0.8,0.2,0.4,0.6,0.6,0.4,0.4,0.6,,,0.3425,,0.8,0.2,0.8,0.2,0.2,0.8,0.6,0.4,1,0
,,66a4f41f0a2e0870ee52c6bf,66fce17372fc934423701e26,2024-10-02_08h02.45.818,mdp,2024.2.1,Win32,60.24096386,66fa4ebf79326e780c390304,,,,,,,,,,,,,,,,,,,,,769.0578,769.0578,769.0606,770.025,1,0,right,0.4393,,770.0276,770.8559,0,1,left,770.8571,771.7571,1,1,right,0,771.7571,771.7571,771.7586,773.2566,0,26,26,26,1,0.8,0.2,0.8,0.2,,,,,,,,,,,,,,,0.2997,,0.8,0.2,0.4,0.6,0.6,0.4,0.4,0.6,,,0.3778,,0.8,0.2,0.8,0.2,0.2,0.8,0.6,0.4,1,0
,,66a4f41f0a2e0870ee52c6bf,66fce17372fc934423701e26,2024-10-02_08h02.45.818,mdp,2024.2.1,Win32,60.24096386,66fa4ebf79326e780c390304,,,,,,,,,,,,,,,,,,,,,773.2575,773.2575,773.2592,773.8072,0,0,left,0.0195,,773.8085,774.6924,0,0,left,774.6943,775.5582,0,0,left,1,775.5583,775.5583,775.5599,777.0582,0,27,27,27,1,0.8,0.2,0.8,0.2,,,,,,,,,,,,,,,0.3581,,0.8,0.2,0.4,0.6,0.6,0.4,0.4,0.6,,,0.3355,,0.8,0.2,0.8,0.2,0.2,0.8,0.6,0.4,1,0
,,66a4f41f0a2e0870ee52c6bf,66fce17372fc934423701e26,2024-10-02_08h02.45.818,mdp,2024.2.1,Win32,60.24096386,66fa4ebf79326e780c390304,,,,,,,,,,,,,,,,,,,,,777.0588,777.0588,777.06,778.0425,0,0,left,0.4669,,778.0439,778.5756,1,1,right,778.5769,779.4262,0,1,left,0,779.4262,779.4263,779.4279,780.9266,0,28,28,28,1,0.8,0.2,0.8,0.2,,,,,,,,,,,,,,,0.0006,,0.8,0.2,0.4,0.6,0.6,0.4,0.4,0.6,,,0.3159,,0.8,0.2,0.8,0.2,0.2,0.8,0.6,0.4,1,0
,,66a4f41f0a2e0870ee52c6bf,66fce17372fc934423701e26,2024-10-02_08h02.45.818,mdp,2024.2.1,Win32,60.24096386,66fa4ebf79326e780c390304,,,,,,,,,,,,,,,,,,,,,780.9271,780.9271,780.9283,781.8104,1,0,right,0.3563,,781.8118,782.4944,0,0,left,782.4955,783.3275,0,1,left,0,783.3276,783.3276,783.3288,784.8283,0,29,29,29,1,0.8,0.2,0.8,0.2,,,,,,,,,,,,,,,0.1592,,0.8,0.2,0.4,0.6,0.6,0.4,0.4,0.6,,,0.2996,,0.2,0.8,0.4,0.6,0.2,0.8,0.6,0.4,1,0
,,66a4f41f0a2e0870ee52c6bf,66fce17372fc934423701e26,2024-10-02_08h02.45.818,mdp,2024.2.1,Win32,60.24096386,66fa4ebf79326e780c390304,,,,,,,,,,,,,,,,,,,,,784.8292,784.8292,784.8302,785.7285,1,0,right,0.3701,,785.7302,786.4628,0,0,left,786.4639,787.2495,1,0,right,1,787.2496,787.2496,787.251,788.7478,0,30,30,30,1,0.8,0.2,0.8,0.2,,,,,,,,,,,,,,,0.2188,,0.8,0.2,0.4,0.6,0.6,0.4,0.4,0.6,,,0.2791,,0.2,0.8,0.4,0.6,0.2,0.8,0.6,0.4,1,0
,,66a4f41f0a2e0870ee52c6bf,66fce17372fc934423701e26,2024-10-02_08h02.45.818,mdp,2024.2.1,Win32,60.24096386,66fa4ebf79326e780c390304,,,,,,,,,,,,,,,,,,,,,788.7487,788.7487,788.751,789.6481,1,0,right,0.3747,,789.6508,790.1832,0,0,left,790.1862,791.1488,0,0,left,1,791.1489,791.149,791.1512,792.6476,0,31,31,31,1,0.8,0.2,0.8,0.2,,,,,,,,,,,,,,,0.0117,,0.8,0.2,0.4,0.6,0.6,0.4,0.4,0.6,,,0.4383,,0.2,0.8,0.4,0.6,0.2,0.8,0.6,0.4,1,0
,,66a4f41f0a2e0870ee52c6bf,66fce17372fc934423701e26,2024-10-02_08h02.45.818,mdp,2024.2.1,Win32,60.24096386,66fa4ebf79326e780c390304,,,,,,,,,,,,,,,,,,,,,792.6482,792.6482,792.6494,793.5316,1,0,right,0.3528,,793.5331,794.2992,1,0,right,794.3006,795.1738,1,1,right,0,795.174,795.174,795.1761,796.667,0,32,32,32,1,0.8,0.2,0.8,0.2,,,,,,,,,,,,,,,0.2391,,0.8,0.2,0.4,0.6,0.6,0.4,0.4,0.6,,,0.3508,,0.2,0.8,0.4,0.6,0.2,0.8,0.6,0.4,1,0
,,66a4f41f0a2e0870ee52c6bf,66fce17372fc934423701e26,2024-10-02_08h02.45.818,mdp,2024.2.1,Win32,60.24096386,66fa4ebf79326e780c390304,,,,,,,,,,,,,,,,,,,,,796.6678,796.6679,796.6705,797.6163,0,1,left,0.4238,,797.6175,798.4511,0,0,left,798.4541,799.3888,1,1,right,0,799.389,799.389,799.3912,800.8837,0,33,33,33,1,0.8,0.2,0.8,0.2,,,,,,,,,,,,,,,0.3183,,0.2,0.8,0.6,0.4,0.6,0.4,0.4,0.6,,,0.414,,0.2,0.8,0.4,0.6,0.2,0.8,0.6,0.4,1,0
,,66a4f41f0a2e0870ee52c6bf,66fce17372fc934423701e26,2024-10-02_08h02.45.818,mdp,2024.2.1,Win32,60.24096386,66fa4ebf79326e780c390304,,,,,,,,,,,,,,,,,,,,,800.8843,800.8843,800.8855,802.0698,0,0,left,0.6683,,802.0736,802.9686,0,1,left,802.9698,804.1859,0,0,left,1,804.186,804.186,804.1873,805.6872,0,34,34,34,1,0.8,0.2,0.8,0.2,,,,,,,,,,,,,,,0.3595,,0.2,0.8,0.6,0.4,0.6,0.4,0.4,0.6,,,0.683,,0.4,0.6,0.6,0.4,0.2,0.8,0.6,0.4,1,0
,,66a4f41f0a2e0870ee52c6bf,66fce17372fc934423701e26,2024-10-02_08h02.45.818,mdp,2024.2.1,Win32,60.24096386,66fa4ebf79326e780c390304,,,,,,,,,,,,,,,,,,,,,805.688,805.6881,805.6906,806.571,1,1,right,0.3603,,806.5721,807.2383,0,1,left,807.2407,808.1715,0,1,left,0,808.1718,808.1718,808.1746,809.6706,0,35,35,35,1,0.8,0.2,0.8,0.2,,,,,,,,,,,,,,,0.1323,,0.2,0.8,0.6,0.4,0.6,0.4,0.4,0.6,,,0.4052,,0.4,0.6,0.6,0.4,0.2,0.8,0.6,0.4,1,0
,,66a4f41f0a2e0870ee52c6bf,66fce17372fc934423701e26,2024-10-02_08h02.45.818,mdp,2024.2.1,Win32,60.24096386,66fa4ebf79326e780c390304,,,,,,,,,,,,,,,,,,,,,809.6714,809.6714,809.6726,811.0903,1,1,right,0.9061,,811.0928,811.8895,0,1,left,811.8928,812.8054,0,1,left,0,812.8055,812.8056,812.8068,814.3069,0,36,36,36,1,0.8,0.2,0.8,0.2,,,,,,,,,,,,,,,0.2711,,0.4,0.6,0.8,0.2,0.6,0.4,0.4,0.6,,,0.3857,,0.4,0.6,0.6,0.4,0.2,0.8,0.6,0.4,1,0
,,66a4f41f0a2e0870ee52c6bf,66fce17372fc934423701e26,2024-10-02_08h02.45.818,mdp,2024.2.1,Win32,60.24096386,66fa4ebf79326e780c390304,,,,,,,,,,,,,,,,,,,,,814.3078,814.3078,814.3102,815.1907,1,0,right,0.3705,,815.1938,815.9568,0,0,left,815.958,816.6406,1,0,right,1,816.6408,816.6408,816.6421,818.1419,0,37,37,37,1,0.8,0.2,0.8,0.2,,,,,,,,,,,,,,,0.2335,,0.4,0.6,0.8,0.2,0.6,0.4,0.4,0.6,,,0.1528,,0.4,0.6,0.6,0.4,0.2,0.8,0.6,0.4,1,0
,,66a4f41f0a2e0870ee52c6bf,66fce17372fc934423701e26,2024-10-02_08h02.45.818,mdp,2024.2.1,Win32,60.24096386,66fa4ebf79326e780c390304,,,,,,,,,,,,,,,,,,,,,818.1427,818.1428,818.1455,819.3916,0,1,left,0.7171,,819.3929,820.2601,1,1,right,820.2617,821.2753,1,1,right,0,821.2754,821.2754,821.2767,822.7757,0,38,38,38,1,0.8,0.2,0.8,0.2,,,,,,,,,,,,,,,0.3413,,0.4,0.6,0.8,0.2,0.6,0.4,0.4,0.6,,,0.4818,,0.4,0.6,0.6,0.4,0.2,0.8,0.6,0.4,1,0
,,66a4f41f0a2e0870ee52c6bf,66fce17372fc934423701e26,2024-10-02_08h02.45.818,mdp,2024.2.1,Win32,60.24096386,66fa4ebf79326e780c390304,,,,,,,,,,,,,,,,,,,,,822.7763,822.7763,822.7777,824.0931,0,0,left,0.79,,824.0943,824.7945,0,0,left,824.7957,825.9608,1,0,right,1,825.9608,825.9608,825.9621,827.461,0,39,39,39,1,0.8,0.2,0.8,0.2,,,,,,,,,,,,,,,0.1898,,0.8,0.2,0.2,0.8,0.6,0.4,0.4,0.6,,,0.6337,,0.4,0.6,0.6,0.4,0.2,0.8,0.6,0.4,1,0
,,66a4f41f0a2e0870ee52c6bf,66fce17372fc934423701e26,2024-10-02_08h02.45.818,mdp,2024.2.1,Win32,60.24096386,66fa4ebf79326e780c390304,,,,,,,,,,,,,,,,,,,,,827.4614,827.4614,827.463,828.3446,0,0,left,0.3528,,828.346,829.1969,1,1,right,829.1995,829.9467,0,1,left,0,829.9468,829.9468,829.9498,831.4473,0,40,40,40,1,0.8,0.2,0.8,0.2,,,,,,,,,,,,,,,0.3364,,0.8,0.2,0.2,0.8,0.6,0.4,0.4,0.6,,,0.2183,,0.4,0.6,0.6,0.4,0.2,0.8,0.6,0.4,1,0
,,66a4f41f0a2e0870ee52c6bf,66fce17372fc934423701e26,2024-10-02_08h02.45.818,mdp,2024.2.1,Win32,60.24096386,66fa4ebf79326e780c390304,,,,,,,,,,,,,,,,,,,,,831.4482,831.4482,831.4503,832.2805,1,1,right,0.3072,,832.2832,833.0311,0,0,left,833.0333,833.8985,1,0,right,1,833.8986,833.8986,833.9015,835.3987,0,41,41,41,1,0.8,0.2,0.8,0.2,,,,,,,,,,,,,,,0.2265,,0.8,0.2,0.2,0.8,0.6,0.4,0.4,0.6,,,0.3333,,0.4,0.6,0.6,0.4,0.6,0.4,0.2,0.8,1,0
,,66a4f41f0a2e0870ee52c6bf,66fce17372fc934423701e26,2024-10-02_08h02.45.818,mdp,2024.2.1,Win32,60.24096386,66fa4ebf79326e780c390304,,,,,,,,,,,,,,,,,,,,,835.4,835.4001,835.4024,836.3248,1,1,right,0.4024,,836.3269,837.116,0,0,left,837.119,837.8478,1,0,right,1,837.8479,837.8479,837.8499,839.3481,0,42,42,42,1,0.8,0.2,0.8,0.2,,,,,,,,,,,,,,,0.2692,,0.8,0.2,0.2,0.8,0.6,0.4,0.4,0.6,,,0.2025,,0.4,0.6,0.6,0.4,0.6,0.4,0.2,0.8,1,0
,,66a4f41f0a2e0870ee52c6bf,66fce17372fc934423701e26,2024-10-02_08h02.45.818,mdp,2024.2.1,Win32,60.24096386,66fa4ebf79326e780c390304,,,,,,,,,,,,,,,,,,,,,839.3491,839.3492,839.3506,840.2817,1,0,right,0.403,,840.2843,841.051,1,0,right,841.0538,841.9164,1,0,right,1,841.9167,841.9167,841.9199,843.4163,0,43,43,43,1,0.8,0.2,0.8,0.2,,,,,,,,,,,,,,,0.2435,,0.8,0.2,0.2,0.8,0.6,0.4,0.4,0.6,,,0.3394,,0.4,0.6,0.6,0.4,0.6,0.4,0.2,0.8,1,0
,,66a4f41f0a2e0870ee52c6bf,66fce17372fc934423701e26,2024-10-02_08h02.45.818,mdp,2024.2.1,Win32,60.24096386,66fa4ebf79326e780c390304,,,,,,,,,,,,,,,,,,,,,843.418,843.418,843.4209,844.2675,0,0,left,0.3215,,844.2708,845.0678,0,1,left,845.0716,845.8225,1,0,right,1,845.8226,845.8226,845.8252,847.3181,0,44,44,44,1,0.8,0.2,0.8,0.2,,,,,,,,,,,,,,,0.2686,,0.8,0.2,0.2,0.8,0.6,0.4,0.4,0.6,,,0.2212,,0.4,0.6,0.6,0.4,0.2,0.8,0.6,0.4,1,0
,,66a4f41f0a2e0870ee52c6bf,66fce17372fc934423701e26,2024-10-02_08h02.45.818,mdp,2024.2.1,Win32,60.24096386,66fa4ebf79326e780c390304,,,,,,,,,,,,,,,,,,,,,847.3185,847.3185,847.3203,848.1514,1,0,right,0.3033,,848.1532,848.7019,0,0,left,848.7037,849.4046,1,0,right,1,849.4047,849.4047,849.4058,850.9028,0,45,45,45,1,0.8,0.2,0.8,0.2,,,,,,,,,,,,,,,0.0174,,0.8,0.2,0.2,0.8,0.6,0.4,0.4,0.6,,,0.1736,,0.4,0.6,0.6,0.4,0.2,0.8,0.6,0.4,1,0
,,66a4f41f0a2e0870ee52c6bf,66fce17372fc934423701e26,2024-10-02_08h02.45.818,mdp,2024.2.1,Win32,60.24096386,66fa4ebf79326e780c390304,,,,,,,,,,,,,,,,,,,,,850.9053,850.9054,850.9086,851.803,1,0,right,0.3711,,851.8063,852.4198,0,0,left,852.4216,853.1703,1,1,right,0,853.1704,853.1704,853.1738,854.6713,0,46,46,46,1,0.8,0.2,0.8,0.2,,,,,,,,,,,,,,,0.1007,,0.8,0.2,0.2,0.8,0.6,0.4,0.4,0.6,,,0.2236,,0.4,0.6,0.6,0.4,0.2,0.8,0.6,0.4,1,0
,,66a4f41f0a2e0870ee52c6bf,66fce17372fc934423701e26,2024-10-02_08h02.45.818,mdp,2024.2.1,Win32,60.24096386,66fa4ebf79326e780c390304,,,,,,,,,,,,,,,,,,,,,854.6723,854.6723,854.6757,855.741,1,1,right,0.5452,,855.7423,856.5879,0,1,left,856.5898,857.455,1,0,right,1,857.4551,857.4551,857.4568,858.957,0,47,47,47,1,0.8,0.2,0.8,0.2,,,,,,,,,,,,,,,0.3203,,0.8,0.2,0.2,0.8,0.6,0.4,0.4,0.6,,,0.3273,,0.4,0.6,0.6,0.4,0.2,0.8,0.6,0.4,1,0
,,66a4f41f0a2e0870ee52c6bf,66fce17372fc934423701e26,2024-10-02_08h02.45.818,mdp,2024.2.1,Win32,60.24096386,66fa4ebf79326e780c390304,,,,,,,,,,,,,,,,,,,,,858.9584,858.9585,858.9607,859.7736,1,0,right,0.2893,,859.7764,860.4562,0,0,left,860.4583,861.2397,1,1,right,0,861.2398,861.2398,861.2419,862.7405,0,48,48,48,1,0.8,0.2,0.8,0.2,,,,,,,,,,,,,,,0.1476,,0.8,0.2,0.2,0.8,0.6,0.4,0.4,0.6,,,0.2502,,0.4,0.6,0.6,0.4,0.2,0.8,0.6,0.4,1,0
,,66a4f41f0a2e0870ee52c6bf,66fce17372fc934423701e26,2024-10-02_08h02.45.818,mdp,2024.2.1,Win32,60.24096386,66fa4ebf79326e780c390304,,,,,,,,,,,,,,,,,,,,,862.7422,862.7422,862.7456,863.6742,1,0,right,0.4045,,863.6763,864.525,1,1,right,864.5267,865.5169,1,0,right,1,865.5171,865.5171,865.5194,867.0088,0,49,49,49,1,0.8,0.2,0.8,0.2,,,,,,,,,,,,,,,0.3246,,0.8,0.2,0.2,0.8,0.6,0.4,0.4,0.6,,,0.4591,,0.4,0.6,0.6,0.4,0.2,0.8,0.6,0.4,1,0
,,66a4f41f0a2e0870ee52c6bf,66fce17372fc934423701e26,2024-10-02_08h02.45.818,mdp,2024.2.1,Win32,60.24096386,66fa4ebf79326e780c390304,,,,,,,,,,,,,,,,,,,,,,,,,,,,,,,,,,,,,,,,,,,,,,,,,,,,,,,,867.0091,925.5318,0,2,2,1,1,imgs/rabbit.png,imgs/elephant.png,imgs/kangaroo.png,imgs/horse.png,imgs/goat.png,,,,,,,,,,,,,,,,,,,,,,,,
,,66a4f41f0a2e0870ee52c6bf,66fce17372fc934423701e26,2024-10-02_08h02.45.818,mdp,2024.2.1,Win32,60.24096386,66fa4ebf79326e780c390304,,,,,,,,,,,,,,3,seqs/st3seq15.csv,925.5341,951.6718,space,25.6131,,951.6894,951.6895,951.6924,953.6259,0,1,left,1.4161,,953.6297,954.8737,0,1,left,954.8772,955.7352,0,0,left,1,955.7354,955.7354,955.7386,957.2342,0,0,0,0,1,0.2,0.8,0.6,0.4,,,,,,,,,,,,,,,0.7008,,0.2,0.8,0.8,0.2,0.2,0.8,0.8,0.2,,,0.3283,,0.8,0.2,0.2,0.8,0.8,0.2,0.2,0.8,1,0
,,66a4f41f0a2e0870ee52c6bf,66fce17372fc934423701e26,2024-10-02_08h02.45.818,mdp,2024.2.1,Win32,60.24096386,66fa4ebf79326e780c390304,,,,,,,,,,,,,,,,,,,,,957.2365,957.2365,957.2393,957.8914,0,1,left,0.1239,,957.8949,958.5031,0,1,left,958.5064,959.7837,0,0,left,1,959.7839,959.7839,959.7875,961.2855,0,1,1,1,1,0.2,0.8,0.6,0.4,,,,,,,,,,,,,,,0.0963,,0.2,0.8,0.8,0.2,0.2,0.8,0.8,0.2,,,0.7494,,0.8,0.2,0.2,0.8,0.8,0.2,0.2,0.8,1,0
,,66a4f41f0a2e0870ee52c6bf,66fce17372fc934423701e26,2024-10-02_08h02.45.818,mdp,2024.2.1,Win32,60.24096386,66fa4ebf79326e780c390304,,,,,,,,,,,,,,,,,,,,,961.2874,961.2875,961.2904,962.093,0,1,left,0.2757,,962.0963,962.7872,0,0,left,962.7908,963.8138,0,0,left,1,963.8139,963.814,963.8173,965.3036,0,2,2,2,1,0.2,0.8,0.6,0.4,,,,,,,,,,,,,,,0.1677,,0.2,0.8,0.8,0.2,0.2,0.8,0.8,0.2,,,0.4774,,0.8,0.2,0.2,0.8,0.8,0.2,0.2,0.8,1,0
,,66a4f41f0a2e0870ee52c6bf,66fce17372fc934423701e26,2024-10-02_08h02.45.818,mdp,2024.2.1,Win32,60.24096386,66fa4ebf79326e780c390304,,,,,,,,,,,,,,,,,,,,,965.3057,965.3057,965.3084,966.2975,0,0,left,0.4734,,966.3013,967.1713,1,0,right,967.1749,968.626,0,0,left,1,968.6262,968.6262,968.6286,970.1224,0,3,3,3,1,0.2,0.8,0.6,0.4,,,,,,,,,,,,,,,0.3277,,0.2,0.8,0.8,0.2,0.8,0.2,0.6,0.4,,,0.9213,,0.8,0.2,0.2,0.8,0.8,0.2,0.2,0.8,1,0
,,66a4f41f0a2e0870ee52c6bf,66fce17372fc934423701e26,2024-10-02_08h02.45.818,mdp,2024.2.1,Win32,60.24096386,66fa4ebf79326e780c390304,,,,,,,,,,,,,,,,,,,,,970.1243,970.1243,970.1268,971.6396,0,1,left,0.9843,,971.6433,972.8138,0,0,left,972.8166,974.1756,1,0,right,1,974.1756,974.1756,974.1767,975.6673,0,4,4,4,1,0.2,0.8,0.6,0.4,,,,,,,,,,,,,,,0.6383,,0.2,0.8,0.8,0.2,0.8,0.2,0.6,0.4,,,0.8361,,0.8,0.2,0.2,0.8,0.8,0.2,0.2,0.8,1,0
,,66a4f41f0a2e0870ee52c6bf,66fce17372fc934423701e26,2024-10-02_08h02.45.818,mdp,2024.2.1,Win32,60.24096386,66fa4ebf79326e780c390304,,,,,,,,,,,,,,,,,,,,,975.6695,975.6696,975.6734,976.2651,1,1,right,0.068,,976.2684,977.5607,0,0,left,977.5618,978.6154,0,1,left,0,978.6155,978.6155,978.6187,980.11,0,5,5,5,1,0.2,0.8,0.6,0.4,,,,,,,,,,,,,,,0.7705,,0.2,0.8,0.8,0.2,0.8,0.2,0.6,0.4,,,0.5237,,0.8,0.2,0.2,0.8,0.2,0.8,0.8,0.2,1,0
,,66a4f41f0a2e0870ee52c6bf,66fce17372fc934423701e26,2024-10-02_08h02.45.818,mdp,2024.2.1,Win32,60.24096386,66fa4ebf79326e780c390304,,,,,,,,,,,,,,,,,,,,,980.1105,980.1105,980.1115,981.1149,0,0,left,0.4767,,981.1161,982.2783,1,0,right,982.2793,983.4659,0,1,left,0,983.4661,983.4662,983.4673,984.9539,0,6,6,6,1,0.8,0.2,0.2,0.8,,,,,,,,,,,,,,,0.6357,,0.2,0.8,0.8,0.2,0.8,0.2,0.6,0.4,,,0.6592,,0.8,0.2,0.2,0.8,0.2,0.8,0.8,0.2,1,0
,,66a4f41f0a2e0870ee52c6bf,66fce17372fc934423701e26,2024-10-02_08h02.45.818,mdp,2024.2.1,Win32,60.24096386,66fa4ebf79326e780c390304,,,,,,,,,,,,,,,,,,,,,984.9562,984.9562,984.9585,986.1714,0,1,left,0.6866,,986.175,987.3544,1,0,right,987.3562,988.1728,0,1,left,0,988.1729,988.173,988.1763,989.6728,0,7,7,7,1,0.8,0.2,0.2,0.8,,,,,,,,,,,,,,,0.6433,,0.2,0.8,0.8,0.2,0.8,0.2,0.6,0.4,,,0.3003,,0.8,0.2,0.2,0.8,0.2,0.8,0.8,0.2,1,0
,,66a4f41f0a2e0870ee52c6bf,66fce17372fc934423701e26,2024-10-02_08h02.45.818,mdp,2024.2.1,Win32,60.24096386,66fa4ebf79326e780c390304,,,,,,,,,,,,,,,,,,,,,989.675,989.6751,989.6777,990.3394,1,0,right,0.1416,,990.3429,991.2102,0,1,left,991.2134,992.1242,1,0,right,1,992.1243,992.1243,992.1271,993.6239,0,8,8,8,1,0.4,0.6,0.6,0.4,,,,,,,,,,,,,,,0.3279,,0.2,0.8,0.8,0.2,0.8,0.2,0.6,0.4,,,0.3819,,0.8,0.2,0.2,0.8,0.2,0.8,0.8,0.2,1,0
,,66a4f41f0a2e0870ee52c6bf,66fce17372fc934423701e26,2024-10-02_08h02.45.818,mdp,2024.2.1,Win32,60.24096386,66fa4ebf79326e780c390304,,,,,,,,,,,,,,,,,,,,,993.6257,993.6257,993.6287,994.4916,0,1,left,0.3379,,994.4946,995.3747,1,0,right,995.3785,996.1924,0,1,left,0,996.1925,996.1926,996.1953,997.6923,0,9,9,9,1,0.4,0.6,0.6,0.4,,,,,,,,,,,,,,,0.3468,,0.2,0.8,0.8,0.2,0.8,0.2,0.6,0.4,,,0.2832,,0.8,0.2,0.2,0.8,0.2,0.8,0.8,0.2,1,0
,,66a4f41f0a2e0870ee52c6bf,66fce17372fc934423701e26,2024-10-02_08h02.45.818,mdp,2024.2.1,Win32,60.24096386,66fa4ebf79326e780c390304,,,,,,,,,,,,,,,,,,,,,997.6941,997.6941,997.6967,998.5586,0,1,left,0.3354,,998.5605,999.7438,0,0,left,999.747,1000.7495,0,0,left,1,1000.7496,1000.7496,1000.7522,1002.2437,0,10,10,10,1,0.4,0.6,0.6,0.4,,,,,,,,,,,,,,,0.6749,,0.2,0.8,0.8,0.2,0.8,0.2,0.6,0.4,,,0.4692,,0.8,0.2,0.2,0.8,0.2,0.8,0.8,0.2,1,0
,,66a4f41f0a2e0870ee52c6bf,66fce17372fc934423701e26,2024-10-02_08h02.45.818,mdp,2024.2.1,Win32,60.24096386,66fa4ebf79326e780c390304,,,,,,,,,,,,,,,,,,,,,1002.2454,1002.2454,1002.2482,1003.127,0,1,left,0.3563,,1003.1288,1004.1351,1,1,right,1004.1378,1005.0794,0,0,left,1,1005.0795,1005.0795,1005.0825,1006.5787,0,11,11,11,1,0.4,0.6,0.6,0.4,,,,,,,,,,,,,,,0.4847,,0.2,0.8,0.8,0.2,0.8,0.2,0.6,0.4,,,0.4199,,0.8,0.2,0.2,0.8,0.2,0.8,0.8,0.2,1,0
,,66a4f41f0a2e0870ee52c6bf,66fce17372fc934423701e26,2024-10-02_08h02.45.818,mdp,2024.2.1,Win32,60.24096386,66fa4ebf79326e780c390304,,,,,,,,,,,,,,,,,,,,,1006.5808,1006.5808,1006.5838,1007.4802,0,0,left,0.3716,,1007.4835,1008.5811,1,0,right,1008.5845,1009.5648,0,0,left,1,1009.5649,1009.5649,1009.5682,1011.0635,0,12,12,12,1,0.4,0.6,0.6,0.4,,,,,,,,,,,,,,,0.565,,0.2,0.8,0.8,0.2,0.8,0.2,0.6,0.4,,,0.4442,,0.8,0.2,0.2,0.8,0.2,0.8,0.8,0.2,1,0
,,66a4f41f0a2e0870ee52c6bf,66fce17372fc934423701e26,2024-10-02_08h02.45.818,mdp,2024.2.1,Win32,60.24096386,66fa4ebf79326e780c390304,,,,,,,,,,,,,,,,,,,,,1011.0652,1011.0652,1011.0679,1011.9312,0,0,left,0.3383,,1011.9349,1012.7979,1,0,right,1012.802,1013.6148,0,0,left,1,1013.615,1013.6151,1013.6187,1015.1153,0,13,13,13,1,0.4,0.6,0.6,0.4,,,,,,,,,,,,,,,0.3376,,0.2,0.8,0.8,0.2,0.8,0.2,0.6,0.4,,,0.2889,,0.8,0.2,0.2,0.8,0.2,0.8,0.8,0.2,1,0
,,66a4f41f0a2e0870ee52c6bf,66fce17372fc934423701e26,2024-10-02_08h02.45.818,mdp,2024.2.1,Win32,60.24096386,66fa4ebf79326e780c390304,,,,,,,,,,,,,,,,,,,,,1015.1173,1015.1174,1015.1196,1015.933,0,0,left,0.2907,,1015.9366,1016.8164,1,0,right,1016.8204,1017.6337,0,0,left,1,1017.634,1017.634,1017.6372,1019.134,0,14,14,14,1,0.4,0.6,0.6,0.4,,,,,,,,,,,,,,,0.3512,,0.2,0.8,0.8,0.2,0.8,0.2,0.6,0.4,,,0.2889,,0.8,0.2,0.2,0.8,0.2,0.8,0.8,0.2,1,0
,,66a4f41f0a2e0870ee52c6bf,66fce17372fc934423701e26,2024-10-02_08h02.45.818,mdp,2024.2.1,Win32,60.24096386,66fa4ebf79326e780c390304,,,,,,,,,,,,,,,,,,,,,1019.1359,1019.1359,1019.1391,1019.984,0,0,left,0.3211,,1019.9877,1020.8844,1,1,right,1020.8881,1021.7178,0,0,left,1,1021.718,1021.718,1021.7213,1023.2184,0,15,15,15,1,0.4,0.6,0.6,0.4,,,,,,,,,,,,,,,0.3668,,0.2,0.8,0.8,0.2,0.6,0.4,0.4,0.6,,,0.298,,0.8,0.2,0.2,0.8,0.2,0.8,0.8,0.2,1,0
,,66a4f41f0a2e0870ee52c6bf,66fce17372fc934423701e26,2024-10-02_08h02.45.818,mdp,2024.2.1,Win32,60.24096386,66fa4ebf79326e780c390304,,,,,,,,,,,,,,,,,,,,,1023.2202,1023.2203,1023.2232,1024.0688,0,0,left,0.3205,,1024.0725,1024.9204,1,0,right,1024.9239,1025.6904,0,1,left,0,1025.6906,1025.6906,1025.6933,1027.1869,0,16,16,16,1,0.4,0.6,0.6,0.4,,,,,,,,,,,,,,,0.3181,,0.2,0.8,0.8,0.2,0.6,0.4,0.4,0.6,,,0.2367,,0.8,0.2,0.2,0.8,0.2,0.8,0.8,0.2,1,0
,,66a4f41f0a2e0870ee52c6bf,66fce17372fc934423701e26,2024-10-02_08h02.45.818,mdp,2024.2.1,Win32,60.24096386,66fa4ebf79326e780c390304,,,,,,,,,,,,,,,,,,,,,1027.1886,1027.1886,1027.1917,1028.054,0,0,left,0.3399,,1028.0575,1029.0743,1,0,right,1029.0768,1029.8877,0,0,left,1,1029.888,1029.888,1029.8913,1031.3884,0,17,17,17,1,0.4,0.6,0.6,0.4,,,,,,,,,,,,,,,0.4938,,0.2,0.8,0.8,0.2,0.6,0.4,0.4,0.6,,,0.2889,,0.8,0.2,0.2,0.8,0.2,0.8,0.8,0.2,1,0
,,66a4f41f0a2e0870ee52c6bf,66fce17372fc934423701e26,2024-10-02_08h02.45.818,mdp,2024.2.1,Win32,60.24096386,66fa4ebf79326e780c390304,,,,,,,,,,,,,,,,,,,,,1031.3904,1031.3905,1031.3928,1032.2384,0,1,left,0.3233,,1032.2416,1033.0973,1,1,right,1033.1002,1033.92,0,1,left,0,1033.9202,1033.9203,1033.9236,1035.4139,0,18,18,18,1,0.4,0.6,0.6,0.4,,,,,,,,,,,,,,,0.3342,,0.2,0.8,0.8,0.2,0.6,0.4,0.4,0.6,,,0.2899,,0.8,0.2,0.2,0.8,0.2,0.8,0.8,0.2,1,0
,,66a4f41f0a2e0870ee52c6bf,66fce17372fc934423701e26,2024-10-02_08h02.45.818,mdp,2024.2.1,Win32,60.24096386,66fa4ebf79326e780c390304,,,,,,,,,,,,,,,,,,,,,1035.4159,1035.4159,1035.4184,1036.2648,0,1,left,0.3189,,1036.2674,1037.1829,1,1,right,1037.1862,1038.0386,0,1,left,0,1038.0388,1038.0388,1038.0421,1039.5294,0,19,19,19,1,0.4,0.6,0.6,0.4,,,,,,,,,,,,,,,0.3886,,0.2,0.8,0.8,0.2,0.6,0.4,0.4,0.6,,,0.3241,,0.8,0.2,0.2,0.8,0.2,0.8,0.8,0.2,1,0
,,66a4f41f0a2e0870ee52c6bf,66fce17372fc934423701e26,2024-10-02_08h02.45.818,mdp,2024.2.1,Win32,60.24096386,66fa4ebf79326e780c390304,,,,,,,,,,,,,,,,,,,,,1039.5313,1039.5313,1039.534,1040.4393,1,1,right,0.3908,,1040.4426,1041.2013,0,0,left,1041.2044,1042.0082,0,0,left,1,1042.0084,1042.0084,1042.011,1043.4995,0,20,20,20,1,0.4,0.6,0.6,0.4,,,,,,,,,,,,,,,0.2351,,0.8,0.2,0.2,0.8,0.6,0.4,0.4,0.6,,,0.2717,,0.8,0.2,0.2,0.8,0.2,0.8,0.8,0.2,1,0
,,66a4f41f0a2e0870ee52c6bf,66fce17372fc934423701e26,2024-10-02_08h02.45.818,mdp,2024.2.1,Win32,60.24096386,66fa4ebf79326e780c390304,,,,,,,,,,,,,,,,,,,,,1043.5012,1043.5012,1043.5037,1044.3578,0,1,left,0.3241,,1044.3611,1045.1023,1,1,right,1045.1061,1045.9349,0,1,left,0,1045.935,1045.9351,1045.9375,1047.4328,0,21,21,21,1,0.4,0.6,0.6,0.4,,,,,,,,,,,,,,,0.2184,,0.8,0.2,0.2,0.8,0.6,0.4,0.4,0.6,,,0.2987,,0.8,0.2,0.2,0.8,0.2,0.8,0.8,0.2,1,0
,,66a4f41f0a2e0870ee52c6bf,66fce17372fc934423701e26,2024-10-02_08h02.45.818,mdp,2024.2.1,Win32,60.24096386,66fa4ebf79326e780c390304,,,,,,,,,,,,,,,,,,,,,1047.4349,1047.435,1047.4379,1048.4929,1,1,right,0.5408,,1048.4962,1049.2845,0,1,left,1049.2881,1050.1003,1,0,right,1,1050.1004,1050.1004,1050.103,1051.6034,0,22,22,22,1,0.4,0.6,0.6,0.4,,,,,,,,,,,,,,,0.2656,,0.8,0.2,0.2,0.8,0.6,0.4,0.4,0.6,,,0.2807,,0.8,0.2,0.2,0.8,0.2,0.8,0.8,0.2,1,0
,,66a4f41f0a2e0870ee52c6bf,66fce17372fc934423701e26,2024-10-02_08h02.45.818,mdp,2024.2.1,Win32,60.24096386,66fa4ebf79326e780c390304,,,,,,,,,,,,,,,,,,,,,1051.6053,1051.6053,1051.6083,1052.4632,0,1,left,0.3285,,1052.4662,1053.1993,1,0,right,1053.2025,1054.0887,0,0,left,1,1054.0888,1054.0889,1054.0914,1055.5822,0,23,23,23,1,0.4,0.6,0.6,0.4,,,,,,,,,,,,,,,0.2257,,0.8,0.2,0.2,0.8,0.6,0.4,0.4,0.6,,,0.3549,,0.8,0.2,0.2,0.8,0.2,0.8,0.8,0.2,1,0
,,66a4f41f0a2e0870ee52c6bf,66fce17372fc934423701e26,2024-10-02_08h02.45.818,mdp,2024.2.1,Win32,60.24096386,66fa4ebf79326e780c390304,,,,,,,,,,,,,,,,,,,,,1055.583,1055.5831,1055.5853,1056.415,0,1,left,0.3055,,1056.4162,1057.1832,1,1,right,1057.186,1058.0557,0,0,left,1,1058.0558,1058.0558,1058.0579,1059.5506,0,24,24,24,1,0.4,0.6,0.6,0.4,,,,,,,,,,,,,,,0.2355,,0.8,0.2,0.2,0.8,0.6,0.4,0.4,0.6,,,0.3397,,0.8,0.2,0.2,0.8,0.2,0.8,0.8,0.2,1,0
,,66a4f41f0a2e0870ee52c6bf,66fce17372fc934423701e26,2024-10-02_08h02.45.818,mdp,2024.2.1,Win32,60.24096386,66fa4ebf79326e780c390304,,,,,,,,,,,,,,,,,,,,,1059.5517,1059.5517,1059.5543,1060.4851,0,1,left,0.4071,,1060.4874,1061.4691,0,1,left,1061.4713,1062.3521,0,1,left,0,1062.3523,1062.3523,1062.3549,1063.8522,0,25,25,25,1,0.4,0.6,0.6,0.4,,,,,,,,,,,,,,,0.4612,,0.8,0.2,0.2,0.8,0.6,0.4,0.4,0.6,,,0.3556,,0.4,0.6,0.8,0.2,0.2,0.8,0.8,0.2,1,0
,,66a4f41f0a2e0870ee52c6bf,66fce17372fc934423701e26,2024-10-02_08h02.45.818,mdp,2024.2.1,Win32,60.24096386,66fa4ebf79326e780c390304,,,,,,,,,,,,,,,,,,,,,1063.8531,1063.8531,1063.8559,1064.7359,0,0,left,0.3552,,1064.7385,1065.7421,0,1,left,1065.7442,1066.5058,1,0,right,1,1066.506,1066.506,1066.5088,1068.0038,0,26,26,26,1,0.4,0.6,0.6,0.4,,,,,,,,,,,,,,,0.4913,,0.8,0.2,0.2,0.8,0.6,0.4,0.4,0.6,,,0.2454,,0.4,0.6,0.8,0.2,0.2,0.8,0.8,0.2,1,0
,,66a4f41f0a2e0870ee52c6bf,66fce17372fc934423701e26,2024-10-02_08h02.45.818,mdp,2024.2.1,Win32,60.24096386,66fa4ebf79326e780c390304,,,,,,,,,,,,,,,,,,,,,1068.0048,1068.0049,1068.0075,1068.8591,0,1,left,0.3309,,1068.8615,1069.8072,0,0,left,1069.8102,1071.0725,0,0,left,1,1071.0726,1071.0727,1071.075,1072.5719,0,27,27,27,1,0.4,0.6,0.6,0.4,,,,,,,,,,,,,,,0.4185,,0.8,0.2,0.2,0.8,0.6,0.4,0.4,0.6,,,0.7298,,0.4,0.6,0.8,0.2,0.2,0.8,0.8,0.2,1,0
,,66a4f41f0a2e0870ee52c6bf,66fce17372fc934423701e26,2024-10-02_08h02.45.818,mdp,2024.2.1,Win32,60.24096386,66fa4ebf79326e780c390304,,,,,,,,,,,,,,,,,,,,,1072.5729,1072.5729,1072.5754,1073.6561,0,1,left,0.5564,,1073.6588,1074.6235,1,1,right,1074.6263,1075.461,1,0,right,1,1075.4611,1075.4611,1075.4632,1076.9572,0,28,28,28,1,0.4,0.6,0.6,0.4,,,,,,,,,,,,,,,0.4365,,0.8,0.2,0.2,0.8,0.6,0.4,0.4,0.6,,,0.3047,,0.4,0.6,0.8,0.2,0.2,0.8,0.8,0.2,1,0
,,66a4f41f0a2e0870ee52c6bf,66fce17372fc934423701e26,2024-10-02_08h02.45.818,mdp,2024.2.1,Win32,60.24096386,66fa4ebf79326e780c390304,,,,,,,,,,,,,,,,,,,,,1076.9583,1076.9583,1076.9616,1077.9412,0,0,left,0.4549,,1077.9433,1078.7918,1,1,right,1078.7949,1079.7253,1,0,right,1,1079.7254,1079.7254,1079.7281,1081.2256,0,29,29,29,1,0.4,0.6,0.6,0.4,,,,,,,,,,,,,,,0.3237,,0.8,0.2,0.2,0.8,0.6,0.4,0.4,0.6,,,0.406,,0.4,0.6,0.8,0.2,0.2,0.8,0.8,0.2,1,0
,,66a4f41f0a2e0870ee52c6bf,66fce17372fc934423701e26,2024-10-02_08h02.45.818,mdp,2024.2.1,Win32,60.24096386,66fa4ebf79326e780c390304,,,,,,,,,,,,,,,,,,,,,1081.2265,1081.2265,1081.2293,1082.1651,1,0,right,0.4148,,1082.1681,1083.1114,0,1,left,1083.1137,1083.9768,0,1,left,0,1083.9769,1083.977,1083.9796,1085.4771,0,30,30,30,1,0.4,0.6,0.6,0.4,,,,,,,,,,,,,,,0.4282,,0.8,0.2,0.2,0.8,0.6,0.4,0.4,0.6,,,0.3396,,0.4,0.6,0.8,0.2,0.2,0.8,0.8,0.2,1,0
,,66a4f41f0a2e0870ee52c6bf,66fce17372fc934423701e26,2024-10-02_08h02.45.818,mdp,2024.2.1,Win32,60.24096386,66fa4ebf79326e780c390304,,,,,,,,,,,,,,,,,,,,,1085.4782,1085.4783,1085.4816,1086.3125,1,1,right,0.3072,,1086.3163,1086.9953,0,1,left,1086.9983,1087.6281,1,0,right,1,1087.6283,1087.6283,1087.6309,1089.1288,0,31,31,31,1,0.4,0.6,0.6,0.4,,,,,,,,,,,,,,,0.1428,,0.8,0.2,0.2,0.8,0.2,0.8,0.8,0.2,,,0.1067,,0.4,0.6,0.8,0.2,0.2,0.8,0.8,0.2,1,0
,,66a4f41f0a2e0870ee52c6bf,66fce17372fc934423701e26,2024-10-02_08h02.45.818,mdp,2024.2.1,Win32,60.24096386,66fa4ebf79326e780c390304,,,,,,,,,,,,,,,,,,,,,1089.1298,1089.1299,1089.1327,1090.0183,1,0,right,0.3657,,1090.0206,1090.6296,0,0,left,1090.6325,1091.6284,0,1,left,0,1091.6285,1091.6285,1091.6298,1093.1306,0,32,32,32,1,0.4,0.6,0.6,0.4,,,,,,,,,,,,,,,0.0761,,0.8,0.2,0.2,0.8,0.2,0.8,0.8,0.2,,,0.4591,,0.4,0.6,0.8,0.2,0.2,0.8,0.8,0.2,1,0
,,66a4f41f0a2e0870ee52c6bf,66fce17372fc934423701e26,2024-10-02_08h02.45.818,mdp,2024.2.1,Win32,60.24096386,66fa4ebf79326e780c390304,,,,,,,,,,,,,,,,,,,,,1093.1317,1093.1318,1093.1346,1093.9186,1,0,right,0.2645,,1093.9209,1094.7806,1,1,right,1094.7829,1095.5975,0,1,left,0,1095.5976,1095.5976,1095.6007,1097.0969,0,33,33,33,1,0.4,0.6,0.6,0.4,,,,,,,,,,,,,,,0.3361,,0.8,0.2,0.2,0.8,0.2,0.8,0.8,0.2,,,0.2802,,0.4,0.6,0.8,0.2,0.2,0.8,0.8,0.2,1,0
,,66a4f41f0a2e0870ee52c6bf,66fce17372fc934423701e26,2024-10-02_08h02.45.818,mdp,2024.2.1,Win32,60.24096386,66fa4ebf79326e780c390304,,,,,,,,,,,,,,,,,,,,,1097.0974,1097.0974,1097.099,1097.8878,0,1,left,0.2675,,1097.8905,1098.7496,0,1,left,1098.7522,1099.5323,1,0,right,1,1099.5326,1099.5326,1099.5349,1101.0331,0,34,34,34,1,0.4,0.6,0.6,0.4,,,,,,,,,,,,,,,0.3267,,0.8,0.2,0.2,0.8,0.2,0.8,0.8,0.2,,,0.2558,,0.4,0.6,0.8,0.2,0.2,0.8,0.8,0.2,1,0
,,66a4f41f0a2e0870ee52c6bf,66fce17372fc934423701e26,2024-10-02_08h02.45.818,mdp,2024.2.1,Win32,60.24096386,66fa4ebf79326e780c390304,,,,,,,,,,,,,,,,,,,,,1101.0341,1101.0342,1101.037,1101.8669,0,1,left,0.3059,,1101.8696,1102.8366,1,0,right,1102.8397,1103.9178,1,0,right,1,1103.9179,1103.918,1103.9202,1105.418,0,35,35,35,1,0.4,0.6,0.6,0.4,,,,,,,,,,,,,,,0.446,,0.8,0.2,0.2,0.8,0.2,0.8,0.8,0.2,,,0.5468,,0.4,0.6,0.8,0.2,0.2,0.8,0.8,0.2,1,0
,,66a4f41f0a2e0870ee52c6bf,66fce17372fc934423701e26,2024-10-02_08h02.45.818,mdp,2024.2.1,Win32,60.24096386,66fa4ebf79326e780c390304,,,,,,,,,,,,,,,,,,,,,1105.419,1105.419,1105.4217,1106.2737,1,0,right,0.3317,,1106.2758,1107.0875,0,0,left,1107.0898,1107.9024,1,0,right,1,1107.9026,1107.9026,1107.9053,1109.4034,0,36,36,36,1,0.4,0.6,0.6,0.4,,,,,,,,,,,,,,,0.2886,,0.8,0.2,0.2,0.8,0.2,0.8,0.8,0.2,,,0.2891,,0.4,0.6,0.8,0.2,0.2,0.8,0.8,0.2,1,0
,,66a4f41f0a2e0870ee52c6bf,66fce17372fc934423701e26,2024-10-02_08h02.45.818,mdp,2024.2.1,Win32,60.24096386,66fa4ebf79326e780c390304,,,,,,,,,,,,,,,,,,,,,1109.4044,1109.4044,1109.407,1110.22,0,1,left,0.2883,,1110.2224,1111.0535,1,0,right,1111.056,1111.7873,0,0,left,1,1111.7875,1111.7875,1111.79,1113.2879,0,37,37,37,1,0.4,0.6,0.6,0.4,,,,,,,,,,,,,,,0.313,,0.8,0.2,0.2,0.8,0.2,0.8,0.8,0.2,,,0.2054,,0.4,0.6,0.8,0.2,0.2,0.8,0.8,0.2,1,0
,,66a4f41f0a2e0870ee52c6bf,66fce17372fc934423701e26,2024-10-02_08h02.45.818,mdp,2024.2.1,Win32,60.24096386,66fa4ebf79326e780c390304,,,,,,,,,,,,,,,,,,,,,1113.2888,1113.2888,1113.2916,1114.0887,1,0,right,0.2727,,1114.0911,1114.8726,0,0,left,1114.8748,1115.5242,1,0,right,1,1115.5246,1115.5246,1115.527,1117.023,0,38,38,38,1,0.4,0.6,0.6,0.4,,,,,,,,,,,,,,,0.2581,,0.8,0.2,0.2,0.8,0.2,0.8,0.8,0.2,,,0.1302,,0.4,0.6,0.8,0.2,0.2,0.8,0.8,0.2,1,0
,,66a4f41f0a2e0870ee52c6bf,66fce17372fc934423701e26,2024-10-02_08h02.45.818,mdp,2024.2.1,Win32,60.24096386,66fa4ebf79326e780c390304,,,,,,,,,,,,,,,,,,,,,1117.0239,1117.024,1117.0267,1117.9399,1,0,right,0.3885,,1117.9427,1118.7238,1,0,right,1118.7264,1119.4406,0,0,left,1,1119.4408,1119.4408,1119.4434,1120.9403,0,39,39,39,1,0.4,0.6,0.6,0.4,,,,,,,,,,,,,,,0.2519,,0.8,0.2,0.2,0.8,0.2,0.8,0.8,0.2,,,0.1884,,0.4,0.6,0.8,0.2,0.2,0.8,0.8,0.2,1,0
,,66a4f41f0a2e0870ee52c6bf,66fce17372fc934423701e26,2024-10-02_08h02.45.818,mdp,2024.2.1,Win32,60.24096386,66fa4ebf79326e780c390304,,,,,,,,,,,,,,,,,,,,,1120.9413,1120.9413,1120.9438,1121.764,0,1,left,0.2996,,1121.7663,1122.5899,0,1,left,1122.5912,1123.3902,0,1,left,0,1123.3902,1123.3902,1123.3914,1124.8924,0,40,40,40,1,0.4,0.6,0.6,0.4,,,,,,,,,,,,,,,0.2999,,0.8,0.2,0.2,0.8,0.2,0.8,0.8,0.2,,,0.2653,,0.4,0.6,0.8,0.2,0.2,0.8,0.8,0.2,1,0
,,66a4f41f0a2e0870ee52c6bf,66fce17372fc934423701e26,2024-10-02_08h02.45.818,mdp,2024.2.1,Win32,60.24096386,66fa4ebf79326e780c390304,,,,,,,,,,,,,,,,,,,,,1124.8933,1124.8934,1124.8961,1125.7146,0,0,left,0.2979,,1125.7168,1126.5095,1,1,right,1126.5122,1127.2766,1,1,right,0,1127.2768,1127.2768,1127.2797,1128.775,0,41,41,41,1,0.4,0.6,0.6,0.4,,,,,,,,,,,,,,,0.2636,,0.8,0.2,0.2,0.8,0.2,0.8,0.8,0.2,,,0.2565,,0.4,0.6,0.8,0.2,0.2,0.8,0.8,0.2,1,0
,,66a4f41f0a2e0870ee52c6bf,66fce17372fc934423701e26,2024-10-02_08h02.45.818,mdp,2024.2.1,Win32,60.24096386,66fa4ebf79326e780c390304,,,,,,,,,,,,,,,,,,,,,1128.7757,1128.7757,1128.7771,1129.5777,1,1,right,0.2882,,1129.5805,1130.3441,0,0,left,1130.3464,1131.078,1,0,right,1,1131.0781,1131.0782,1131.0806,1132.58,0,42,42,42,1,0.4,0.6,0.6,0.4,,,,,,,,,,,,,,,0.2249,,0.8,0.2,0.2,0.8,0.2,0.8,0.8,0.2,,,0.198,,0.4,0.6,0.8,0.2,0.4,0.6,0.2,0.8,1,0
,,66a4f41f0a2e0870ee52c6bf,66fce17372fc934423701e26,2024-10-02_08h02.45.818,mdp,2024.2.1,Win32,60.24096386,66fa4ebf79326e780c390304,,,,,,,,,,,,,,,,,,,,,1132.581,1132.581,1132.5838,1133.3998,0,1,left,0.297,,1133.4025,1134.213,1,0,right,1134.2159,1135.1637,1,0,right,1,1135.1638,1135.1638,1135.1667,1136.6633,0,43,43,43,1,0.4,0.6,0.6,0.4,,,,,,,,,,,,,,,0.2848,,0.8,0.2,0.2,0.8,0.2,0.8,0.8,0.2,,,0.4252,,0.4,0.6,0.8,0.2,0.4,0.6,0.2,0.8,1,0
,,66a4f41f0a2e0870ee52c6bf,66fce17372fc934423701e26,2024-10-02_08h02.45.818,mdp,2024.2.1,Win32,60.24096386,66fa4ebf79326e780c390304,,,,,,,,,,,,,,,,,,,,,1136.6642,1136.6642,1136.6669,1137.4475,0,1,left,0.2589,,1137.4502,1138.1978,1,1,right,1138.2002,1139.0147,0,1,left,0,1139.0149,1139.0149,1139.0175,1140.5146,0,44,44,44,1,0.4,0.6,0.6,0.4,,,,,,,,,,,,,,,0.2216,,0.8,0.2,0.2,0.8,0.2,0.8,0.8,0.2,,,0.2794,,0.4,0.6,0.8,0.2,0.4,0.6,0.2,0.8,1,0
,,66a4f41f0a2e0870ee52c6bf,66fce17372fc934423701e26,2024-10-02_08h02.45.818,mdp,2024.2.1,Win32,60.24096386,66fa4ebf79326e780c390304,,,,,,,,,,,,,,,,,,,,,1140.5157,1140.5158,1140.5188,1141.2652,1,0,right,0.2217,,1141.2677,1141.9991,0,1,left,1142.0013,1142.833,0,1,left,0,1142.8331,1142.8331,1142.8358,1144.3335,0,45,45,45,1,0.4,0.6,0.6,0.4,,,,,,,,,,,,,,,0.1974,,0.8,0.2,0.2,0.8,0.2,0.8,0.8,0.2,,,0.3057,,0.4,0.6,0.8,0.2,0.4,0.6,0.2,0.8,1,0
,,66a4f41f0a2e0870ee52c6bf,66fce17372fc934423701e26,2024-10-02_08h02.45.818,mdp,2024.2.1,Win32,60.24096386,66fa4ebf79326e780c390304,,,,,,,,,,,,,,,,,,,,,1144.3345,1144.3346,1144.3374,1145.2896,0,0,left,0.4318,,1145.292,1146.0674,1,0,right,1146.0704,1146.8079,0,1,left,0,1146.808,1146.808,1146.8105,1148.3017,0,46,46,46,1,0.4,0.6,0.6,0.4,,,,,,,,,,,,,,,0.2514,,0.8,0.2,0.2,0.8,0.2,0.8,0.8,0.2,,,0.2075,,0.4,0.6,0.8,0.2,0.4,0.6,0.2,0.8,1,0
,,66a4f41f0a2e0870ee52c6bf,66fce17372fc934423701e26,2024-10-02_08h02.45.818,mdp,2024.2.1,Win32,60.24096386,66fa4ebf79326e780c390304,,,,,,,,,,,,,,,,,,,,,1148.3049,1148.305,1148.3077,1149.0685,1,1,right,0.2384,,1149.0714,1149.7375,0,1,left,1149.7406,1150.7339,1,1,right,0,1150.734,1150.734,1150.7353,1152.2344,0,47,47,47,1,0.4,0.6,0.6,0.4,,,,,,,,,,,,,,,0.134,,0.8,0.2,0.2,0.8,0.2,0.8,0.8,0.2,,,0.457,,0.4,0.6,0.8,0.2,0.4,0.6,0.2,0.8,1,0
,,66a4f41f0a2e0870ee52c6bf,66fce17372fc934423701e26,2024-10-02_08h02.45.818,mdp,2024.2.1,Win32,60.24096386,66fa4ebf79326e780c390304,,,,,,,,,,,,,,,,,,,,,1152.2349,1152.2349,1152.2361,1153.7391,0,1,left,0.9804,,1153.7412,1154.7192,0,1,left,1154.7204,1156.0042,0,1,left,0,1156.0044,1156.0044,1156.0068,1157.503,0,48,48,48,1,0.4,0.6,0.6,0.4,,,,,,,,,,,,,,,0.4515,,0.8,0.2,0.2,0.8,0.2,0.8,0.8,0.2,,,0.7735,,0.4,0.6,0.8,0.2,0.8,0.2,0.6,0.4,1,0
,,66a4f41f0a2e0870ee52c6bf,66fce17372fc934423701e26,2024-10-02_08h02.45.818,mdp,2024.2.1,Win32,60.24096386,66fa4ebf79326e780c390304,,,,,,,,,,,,,,,,,,,,,1157.5034,1157.5035,1157.5048,1158.4374,1,0,right,0.4247,,1158.4385,1159.5765,0,0,left,1159.5788,1160.6567,1,0,right,1,1160.6568,1160.6569,1160.6596,1162.1564,0,49,49,49,1,0.4,0.6,0.6,0.4,,,,,,,,,,,,,,,0.6221,,0.8,0.2,0.2,0.8,0.2,0.8,0.8,0.2,,,0.5474,,0.4,0.6,0.8,0.2,0.8,0.2,0.6,0.4,1,0
,,66a4f41f0a2e0870ee52c6bf,66fce17372fc934423701e26,2024-10-02_08h02.45.818,mdp,2024.2.1,Win32,60.24096386,66fa4ebf79326e780c390304,,,,,,,,,,,,,,,,,,,,,,,,,,,,,,,,,,,,,,,,,,,,,,,,,,,,,,,,1162.1567,1220.6619,0,3,3,7,1,imgs/kangaroo.png,imgs/giraffe.png,imgs/pig.png,imgs/lion.png,imgs/cat.png,,,,,,,,,,,,,,,,,,,,,,,,
,,66a4f41f0a2e0870ee52c6bf,66fce17372fc934423701e26,2024-10-02_08h02.45.818,mdp,2024.2.1,Win32,60.24096386,66fa4ebf79326e780c390304,,,,,,,,,,,,,,1,seqs/st1seq46.csv,1220.6648,1227.1148,space,5.9237,,1227.1249,1227.1249,1227.1271,1228.5027,1,1,right,0.8557,,1228.5049,1228.5063,0,1,,1228.5079,1228.5092,1,1,,0,1228.5092,1228.5092,1228.5106,1229.9988,0,0,0,0,1,0.4,0.6,0.6,0.4,1,0,,,,,,,,,,,,,,,,,,,,,,,,,,,,,,,,,,,,
,,66a4f41f0a2e0870ee52c6bf,66fce17372fc934423701e26,2024-10-02_08h02.45.818,mdp,2024.2.1,Win32,60.24096386,66fa4ebf79326e780c390304,,,,,,,,,,,,,,,,,,,,,1229.9996,1229.9997,1230.0021,1230.9496,0,0,left,0.422,,1230.9524,1230.9539,0,0,,1230.9556,1230.957,1,1,,1,1230.9571,1230.9571,1230.9586,1232.4499,0,1,1,1,1,0.8,0.2,0.8,0.2,1,0,,,,,,,,,,,,,,,,,,,,,,,,,,,,,,,,,,,,
,,66a4f41f0a2e0870ee52c6bf,66fce17372fc934423701e26,2024-10-02_08h02.45.818,mdp,2024.2.1,Win32,60.24096386,66fa4ebf79326e780c390304,,,,,,,,,,,,,,,,,,,,,1232.4507,1232.4507,1232.4535,1233.4844,0,0,left,0.5061,,1233.4868,1233.4883,0,1,,1233.4902,1233.4915,1,0,,1,1233.4916,1233.4916,1233.4931,1234.9843,0,2,2,2,1,0.8,0.2,0.8,0.2,1,0,,,,,,,,,,,,,,,,,,,,,,,,,,,,,,,,,,,,
,,66a4f41f0a2e0870ee52c6bf,66fce17372fc934423701e26,2024-10-02_08h02.45.818,mdp,2024.2.1,Win32,60.24096386,66fa4ebf79326e780c390304,,,,,,,,,,,,,,,,,,,,,1234.9851,1234.9851,1234.9879,1236.1411,0,0,left,0.6333,,1236.1433,1236.1448,0,0,,1236.1465,1236.148,1,0,,1,1236.148,1236.1481,1236.1511,1237.6517,0,3,3,3,1,0.8,0.2,0.8,0.2,1,0,,,,,,,,,,,,,,,,,,,,,,,,,,,,,,,,,,,,
,,66a4f41f0a2e0870ee52c6bf,66fce17372fc934423701e26,2024-10-02_08h02.45.818,mdp,2024.2.1,Win32,60.24096386,66fa4ebf79326e780c390304,,,,,,,,,,,,,,,,,,,,,1237.6525,1237.6525,1237.6553,1238.5855,0,0,left,0.4225,,1238.5882,1238.5896,0,0,,1238.5912,1238.5926,1,1,,1,1238.5927,1238.5927,1238.5939,1240.086,0,4,4,4,1,0.8,0.2,0.8,0.2,1,0,,,,,,,,,,,,,,,,,,,,,,,,,,,,,,,,,,,,
,,66a4f41f0a2e0870ee52c6bf,66fce17372fc934423701e26,2024-10-02_08h02.45.818,mdp,2024.2.1,Win32,60.24096386,66fa4ebf79326e780c390304,,,,,,,,,,,,,,,,,,,,,1240.0867,1240.0868,1240.0895,1241.1698,0,0,left,0.5574,,1241.1725,1241.174,0,0,,1241.1759,1241.1772,1,0,,1,1241.1773,1241.1774,1241.1788,1242.6705,0,5,5,5,1,0.8,0.2,0.8,0.2,1,0,,,,,,,,,,,,,,,,,,,,,,,,,,,,,,,,,,,,
,,66a4f41f0a2e0870ee52c6bf,66fce17372fc934423701e26,2024-10-02_08h02.45.818,mdp,2024.2.1,Win32,60.24096386,66fa4ebf79326e780c390304,,,,,,,,,,,,,,,,,,,,,1242.6713,1242.6713,1242.674,1243.6547,0,0,left,0.4567,,1243.6571,1243.6588,0,0,,1243.6605,1243.662,1,0,,1,1243.662,1243.6621,1243.6636,1245.155,0,6,6,6,1,0.8,0.2,0.8,0.2,1,0,,,,,,,,,,,,,,,,,,,,,,,,,,,,,,,,,,,,
,,66a4f41f0a2e0870ee52c6bf,66fce17372fc934423701e26,2024-10-02_08h02.45.818,mdp,2024.2.1,Win32,60.24096386,66fa4ebf79326e780c390304,,,,,,,,,,,,,,,,,,,,,1245.1559,1245.1559,1245.1589,1246.1394,0,0,left,0.4619,,1246.1421,1246.1439,0,0,,1246.146,1246.1475,1,0,,1,1246.1476,1246.1476,1246.1493,1247.6374,0,7,7,7,1,0.8,0.2,0.8,0.2,1,0,,,,,,,,,,,,,,,,,,,,,,,,,,,,,,,,,,,,
,,66a4f41f0a2e0870ee52c6bf,66fce17372fc934423701e26,2024-10-02_08h02.45.818,mdp,2024.2.1,Win32,60.24096386,66fa4ebf79326e780c390304,,,,,,,,,,,,,,,,,,,,,1247.6379,1247.6379,1247.639,1248.5717,0,0,left,0.421,,1248.5731,1248.5739,0,0,,1248.5751,1248.5759,1,1,,1,1248.576,1248.576,1248.5767,1250.0735,0,8,8,8,1,0.8,0.2,0.8,0.2,1,0,,,,,,,,,,,,,,,,,,,,,,,,,,,,,,,,,,,,
,,66a4f41f0a2e0870ee52c6bf,66fce17372fc934423701e26,2024-10-02_08h02.45.818,mdp,2024.2.1,Win32,60.24096386,66fa4ebf79326e780c390304,,,,,,,,,,,,,,,,,,,,,1250.0744,1250.0744,1250.0768,1251.0571,0,0,left,0.4566,,1251.06,1251.0616,0,1,,1251.0637,1251.0653,1,1,,1,1251.0653,1251.0653,1251.067,1252.5581,0,9,9,9,1,0.8,0.2,0.8,0.2,1,0,,,,,,,,,,,,,,,,,,,,,,,,,,,,,,,,,,,,
,,66a4f41f0a2e0870ee52c6bf,66fce17372fc934423701e26,2024-10-02_08h02.45.818,mdp,2024.2.1,Win32,60.24096386,66fa4ebf79326e780c390304,,,,,,,,,,,,,,,,,,,,,1252.5589,1252.559,1252.5616,1253.4477,0,0,left,0.3657,,1253.4503,1253.452,0,0,,1253.4539,1253.4565,1,0,,1,1253.4567,1253.4567,1253.459,1254.957,0,10,10,10,1,0.8,0.2,0.8,0.2,1,0,,,,,,,,,,,,,,,,,,,,,,,,,,,,,,,,,,,,
,,66a4f41f0a2e0870ee52c6bf,66fce17372fc934423701e26,2024-10-02_08h02.45.818,mdp,2024.2.1,Win32,60.24096386,66fa4ebf79326e780c390304,,,,,,,,,,,,,,,,,,,,,1254.9591,1254.9591,1254.9622,1255.8693,0,0,left,0.3894,,1255.8716,1255.8739,0,0,,1255.8756,1255.8774,1,0,,1,1255.8774,1255.8775,1255.8789,1257.3751,0,11,11,11,1,0.8,0.2,0.8,0.2,1,0,,,,,,,,,,,,,,,,,,,,,,,,,,,,,,,,,,,,
,,66a4f41f0a2e0870ee52c6bf,66fce17372fc934423701e26,2024-10-02_08h02.45.818,mdp,2024.2.1,Win32,60.24096386,66fa4ebf79326e780c390304,,,,,,,,,,,,,,,,,,,,,1257.3772,1257.3773,1257.3804,1258.2478,0,1,left,0.3456,,1258.2504,1258.252,0,0,,1258.2538,1258.2554,1,1,,0,1258.2555,1258.2555,1258.2578,1259.7497,0,12,12,12,1,0.8,0.2,0.8,0.2,1,0,,,,,,,,,,,,,,,,,,,,,,,,,,,,,,,,,,,,
,,66a4f41f0a2e0870ee52c6bf,66fce17372fc934423701e26,2024-10-02_08h02.45.818,mdp,2024.2.1,Win32,60.24096386,66fa4ebf79326e780c390304,,,,,,,,,,,,,,,,,,,,,1259.7515,1259.7515,1259.7543,1260.757,0,0,left,0.4743,,1260.7603,1260.7623,0,0,,1260.7643,1260.7659,1,0,,1,1260.7659,1260.7659,1260.7677,1262.26,0,13,13,13,1,0.8,0.2,0.8,0.2,1,0,,,,,,,,,,,,,,,,,,,,,,,,,,,,,,,,,,,,
,,66a4f41f0a2e0870ee52c6bf,66fce17372fc934423701e26,2024-10-02_08h02.45.818,mdp,2024.2.1,Win32,60.24096386,66fa4ebf79326e780c390304,,,,,,,,,,,,,,,,,,,,,1262.2621,1262.2621,1262.2653,1263.0844,0,0,left,0.2976,,1263.0869,1263.0885,0,0,,1263.0904,1263.0919,1,1,,1,1263.0924,1263.0924,1263.0942,1264.5956,0,14,14,14,1,0.8,0.2,0.8,0.2,1,0,,,,,,,,,,,,,,,,,,,,,,,,,,,,,,,,,,,,
,,66a4f41f0a2e0870ee52c6bf,66fce17372fc934423701e26,2024-10-02_08h02.45.818,mdp,2024.2.1,Win32,60.24096386,66fa4ebf79326e780c390304,,,,,,,,,,,,,,,,,,,,,1264.5966,1264.5966,1264.5992,1265.4498,0,1,left,0.3313,,1265.452,1265.4535,0,0,,1265.4552,1265.4568,1,0,,0,1265.4569,1265.4569,1265.4592,1266.9468,0,15,15,15,1,0.6,0.4,0.2,0.8,1,0,,,,,,,,,,,,,,,,,,,,,,,,,,,,,,,,,,,,
,,66a4f41f0a2e0870ee52c6bf,66fce17372fc934423701e26,2024-10-02_08h02.45.818,mdp,2024.2.1,Win32,60.24096386,66fa4ebf79326e780c390304,,,,,,,,,,,,,,,,,,,,,1266.9476,1266.9477,1266.9506,1267.797,0,0,left,0.3237,,1267.7998,1267.8016,0,1,,1267.8038,1267.8057,1,1,,1,1267.8058,1267.8058,1267.8076,1269.2971,0,16,16,16,1,0.6,0.4,0.2,0.8,1,0,,,,,,,,,,,,,,,,,,,,,,,,,,,,,,,,,,,,
,,66a4f41f0a2e0870ee52c6bf,66fce17372fc934423701e26,2024-10-02_08h02.45.818,mdp,2024.2.1,Win32,60.24096386,66fa4ebf79326e780c390304,,,,,,,,,,,,,,,,,,,,,1269.298,1269.298,1269.301,1269.9975,0,0,left,0.1735,,1270.0005,1270.0022,0,1,,1270.0042,1270.0059,1,1,,1,1270.006,1270.006,1270.0079,1271.5012,0,17,17,17,1,0.6,0.4,0.2,0.8,1,0,,,,,,,,,,,,,,,,,,,,,,,,,,,,,,,,,,,,
,,66a4f41f0a2e0870ee52c6bf,66fce17372fc934423701e26,2024-10-02_08h02.45.818,mdp,2024.2.1,Win32,60.24096386,66fa4ebf79326e780c390304,,,,,,,,,,,,,,,,,,,,,1271.5029,1271.5029,1271.5056,1273.1489,1,1,right,1.1237,,1273.1517,1273.1534,0,1,,1273.1553,1273.1569,1,1,,0,1273.157,1273.157,1273.1587,1274.6497,0,18,18,18,1,0.6,0.4,0.2,0.8,1,0,,,,,,,,,,,,,,,,,,,,,,,,,,,,,,,,,,,,
,,66a4f41f0a2e0870ee52c6bf,66fce17372fc934423701e26,2024-10-02_08h02.45.818,mdp,2024.2.1,Win32,60.24096386,66fa4ebf79326e780c390304,,,,,,,,,,,,,,,,,,,,,1274.6505,1274.6505,1274.6535,1275.6843,0,1,left,0.5025,,1275.6869,1275.6886,0,0,,1275.6906,1275.6921,1,1,,0,1275.6923,1275.6923,1275.694,1277.1841,0,19,19,19,1,0.6,0.4,0.2,0.8,1,0,,,,,,,,,,,,,,,,,,,,,,,,,,,,,,,,,,,,
,,66a4f41f0a2e0870ee52c6bf,66fce17372fc934423701e26,2024-10-02_08h02.45.818,mdp,2024.2.1,Win32,60.24096386,66fa4ebf79326e780c390304,,,,,,,,,,,,,,,,,,,,,1277.185,1277.185,1277.1881,1279.4176,0,0,left,1.7064,,1279.4198,1279.4214,0,0,,1279.4233,1279.4247,1,0,,1,1279.4248,1279.4248,1279.4273,1280.9181,0,20,20,20,1,0.6,0.4,0.2,0.8,1,0,,,,,,,,,,,,,,,,,,,,,,,,,,,,,,,,,,,,
,,66a4f41f0a2e0870ee52c6bf,66fce17372fc934423701e26,2024-10-02_08h02.45.818,mdp,2024.2.1,Win32,60.24096386,66fa4ebf79326e780c390304,,,,,,,,,,,,,,,,,,,,,1280.9188,1280.9188,1280.9213,1281.5845,0,0,left,0.1383,,1281.5869,1281.5887,0,1,,1281.5905,1281.5917,1,1,,1,1281.5918,1281.5918,1281.5931,1283.086,0,21,21,21,1,0.4,0.6,0.8,0.2,1,0,,,,,,,,,,,,,,,,,,,,,,,,,,,,,,,,,,,,
,,66a4f41f0a2e0870ee52c6bf,66fce17372fc934423701e26,2024-10-02_08h02.45.818,mdp,2024.2.1,Win32,60.24096386,66fa4ebf79326e780c390304,,,,,,,,,,,,,,,,,,,,,1283.0866,1283.0866,1283.0891,1283.9539,0,0,left,0.346,,1283.9553,1283.9561,0,0,,1283.9569,1283.9576,1,0,,1,1283.9577,1283.9577,1283.9583,1285.4536,0,22,22,22,1,0.4,0.6,0.8,0.2,1,0,,,,,,,,,,,,,,,,,,,,,,,,,,,,,,,,,,,,
,,66a4f41f0a2e0870ee52c6bf,66fce17372fc934423701e26,2024-10-02_08h02.45.818,mdp,2024.2.1,Win32,60.24096386,66fa4ebf79326e780c390304,,,,,,,,,,,,,,,,,,,,,1285.4545,1285.4545,1285.4572,1286.3445,0,0,left,0.3642,,1286.3469,1286.3485,0,0,,1286.3505,1286.3538,1,0,,1,1286.3539,1286.354,1286.3561,1287.8528,0,23,23,23,1,0.4,0.6,0.8,0.2,1,0,,,,,,,,,,,,,,,,,,,,,,,,,,,,,,,,,,,,
,,66a4f41f0a2e0870ee52c6bf,66fce17372fc934423701e26,2024-10-02_08h02.45.818,mdp,2024.2.1,Win32,60.24096386,66fa4ebf79326e780c390304,,,,,,,,,,,,,,,,,,,,,1287.8545,1287.8546,1287.8577,1288.6708,0,1,left,0.2891,,1288.6744,1288.6767,0,1,,1288.6788,1288.6805,1,1,,0,1288.6806,1288.6806,1288.6831,1290.1782,0,24,24,24,1,0.4,0.6,0.8,0.2,1,0,,,,,,,,,,,,,,,,,,,,,,,,,,,,,,,,,,,,
,,66a4f41f0a2e0870ee52c6bf,66fce17372fc934423701e26,2024-10-02_08h02.45.818,mdp,2024.2.1,Win32,60.24096386,66fa4ebf79326e780c390304,,,,,,,,,,,,,,,,,,,,,1290.1799,1290.18,1290.1827,1291.0189,0,1,left,0.308,,1291.022,1291.0242,0,1,,1291.0262,1291.0278,1,1,,0,1291.0279,1291.0279,1291.0297,1292.5212,0,25,25,25,1,0.4,0.6,0.8,0.2,1,0,,,,,,,,,,,,,,,,,,,,,,,,,,,,,,,,,,,,
,,66a4f41f0a2e0870ee52c6bf,66fce17372fc934423701e26,2024-10-02_08h02.45.818,mdp,2024.2.1,Win32,60.24096386,66fa4ebf79326e780c390304,,,,,,,,,,,,,,,,,,,,,1292.5232,1292.5232,1292.5264,1293.8385,0,1,left,0.8008,,1293.8419,1293.8435,0,1,,1293.8455,1293.847,1,0,,0,1293.847,1293.847,1293.8486,1295.339,0,26,26,26,1,0.4,0.6,0.8,0.2,1,0,,,,,,,,,,,,,,,,,,,,,,,,,,,,,,,,,,,,
,,66a4f41f0a2e0870ee52c6bf,66fce17372fc934423701e26,2024-10-02_08h02.45.818,mdp,2024.2.1,Win32,60.24096386,66fa4ebf79326e780c390304,,,,,,,,,,,,,,,,,,,,,1295.3407,1295.3408,1295.344,1296.7281,0,1,left,0.8618,,1296.7313,1296.733,0,1,,1296.7349,1296.7366,1,1,,0,1296.7366,1296.7366,1296.7391,1298.24,0,27,27,27,1,0.4,0.6,0.8,0.2,1,0,,,,,,,,,,,,,,,,,,,,,,,,,,,,,,,,,,,,
,,66a4f41f0a2e0870ee52c6bf,66fce17372fc934423701e26,2024-10-02_08h02.45.818,mdp,2024.2.1,Win32,60.24096386,66fa4ebf79326e780c390304,,,,,,,,,,,,,,,,,,,,,1298.2416,1298.2416,1298.2446,1299.2749,1,1,right,0.501,,1299.2782,1299.2804,0,0,,1299.2823,1299.2838,1,0,,0,1299.2839,1299.2839,1299.2853,1300.7739,0,28,28,28,1,0.4,0.6,0.8,0.2,1,0,,,,,,,,,,,,,,,,,,,,,,,,,,,,,,,,,,,,
,,66a4f41f0a2e0870ee52c6bf,66fce17372fc934423701e26,2024-10-02_08h02.45.818,mdp,2024.2.1,Win32,60.24096386,66fa4ebf79326e780c390304,,,,,,,,,,,,,,,,,,,,,1300.7747,1300.7747,1300.7762,1301.3082,1,0,right,0.0054,,1301.3116,1301.3137,0,1,,1301.3156,1301.3171,1,0,,1,1301.3172,1301.3172,1301.3188,1302.808,0,29,29,29,1,0.4,0.6,0.8,0.2,1,0,,,,,,,,,,,,,,,,,,,,,,,,,,,,,,,,,,,,
,,66a4f41f0a2e0870ee52c6bf,66fce17372fc934423701e26,2024-10-02_08h02.45.818,mdp,2024.2.1,Win32,60.24096386,66fa4ebf79326e780c390304,,,,,,,,,,,,,,,,,,,,,1302.8088,1302.8089,1302.8103,1303.3589,1,0,right,0.0231,,1303.3629,1303.3651,0,0,,1303.3672,1303.3688,1,0,,1,1303.369,1303.369,1303.3707,1304.8664,0,30,30,30,1,0.4,0.6,0.8,0.2,1,0,,,,,,,,,,,,,,,,,,,,,,,,,,,,,,,,,,,,
,,66a4f41f0a2e0870ee52c6bf,66fce17372fc934423701e26,2024-10-02_08h02.45.818,mdp,2024.2.1,Win32,60.24096386,66fa4ebf79326e780c390304,,,,,,,,,,,,,,,,,,,,,1304.8686,1304.8686,1304.8714,1305.819,1,0,right,0.419,,1305.8214,1305.8233,0,0,,1305.8259,1305.8276,1,1,,1,1305.8277,1305.8277,1305.8296,1307.3266,0,31,31,31,1,0.4,0.6,0.8,0.2,1,0,,,,,,,,,,,,,,,,,,,,,,,,,,,,,,,,,,,,
,,66a4f41f0a2e0870ee52c6bf,66fce17372fc934423701e26,2024-10-02_08h02.45.818,mdp,2024.2.1,Win32,60.24096386,66fa4ebf79326e780c390304,,,,,,,,,,,,,,,,,,,,,1307.3281,1307.3281,1307.3312,1308.2507,1,0,right,0.397,,1308.253,1308.2543,0,0,,1308.2558,1308.257,1,0,,1,1308.2571,1308.2572,1308.2584,1309.748,0,32,32,32,1,0.4,0.6,0.8,0.2,1,0,,,,,,,,,,,,,,,,,,,,,,,,,,,,,,,,,,,,
,,66a4f41f0a2e0870ee52c6bf,66fce17372fc934423701e26,2024-10-02_08h02.45.818,mdp,2024.2.1,Win32,60.24096386,66fa4ebf79326e780c390304,,,,,,,,,,,,,,,,,,,,,1309.7489,1309.7489,1309.75,1310.4557,1,0,right,0.1883,,1310.458,1310.4597,0,0,,1310.4623,1310.4647,1,0,,1,1310.4649,1310.4649,1310.4666,1311.9618,0,33,33,33,1,0.4,0.6,0.8,0.2,1,0,,,,,,,,,,,,,,,,,,,,,,,,,,,,,,,,,,,,
,,66a4f41f0a2e0870ee52c6bf,66fce17372fc934423701e26,2024-10-02_08h02.45.818,mdp,2024.2.1,Win32,60.24096386,66fa4ebf79326e780c390304,,,,,,,,,,,,,,,,,,,,,1311.9635,1311.9635,1311.9664,1313.0829,1,1,right,0.5934,,1313.0857,1313.0874,0,1,,1313.0894,1313.091,1,0,,0,1313.0911,1313.0911,1313.0928,1314.587,0,34,34,34,1,0.8,0.2,0.2,0.8,1,0,,,,,,,,,,,,,,,,,,,,,,,,,,,,,,,,,,,,
,,66a4f41f0a2e0870ee52c6bf,66fce17372fc934423701e26,2024-10-02_08h02.45.818,mdp,2024.2.1,Win32,60.24096386,66fa4ebf79326e780c390304,,,,,,,,,,,,,,,,,,,,,1314.5887,1314.5887,1314.5912,1316.0938,0,1,left,0.9732,,1316.0968,1316.0986,0,1,,1316.101,1316.1026,1,0,,0,1316.1027,1316.1027,1316.1045,1317.5975,0,35,35,35,1,0.2,0.8,0.8,0.2,1,0,,,,,,,,,,,,,,,,,,,,,,,,,,,,,,,,,,,,
,,66a4f41f0a2e0870ee52c6bf,66fce17372fc934423701e26,2024-10-02_08h02.45.818,mdp,2024.2.1,Win32,60.24096386,66fa4ebf79326e780c390304,,,,,,,,,,,,,,,,,,,,,1317.5992,1317.5992,1317.6023,1319.0654,0,1,left,0.9403,,1319.0687,1319.0708,0,0,,1319.0727,1319.0742,1,0,,0,1319.0742,1319.0743,1319.0758,1320.5652,0,36,36,36,1,0.2,0.8,0.8,0.2,1,0,,,,,,,,,,,,,,,,,,,,,,,,,,,,,,,,,,,,
,,66a4f41f0a2e0870ee52c6bf,66fce17372fc934423701e26,2024-10-02_08h02.45.818,mdp,2024.2.1,Win32,60.24096386,66fa4ebf79326e780c390304,,,,,,,,,,,,,,,,,,,,,1320.5668,1320.5668,1320.5697,1321.2322,1,0,right,0.1396,,1321.2355,1321.2372,0,0,,1321.2391,1321.2405,1,0,,1,1321.2406,1321.2407,1321.2421,1322.7329,0,37,37,37,1,0.2,0.8,0.8,0.2,1,0,,,,,,,,,,,,,,,,,,,,,,,,,,,,,,,,,,,,
,,66a4f41f0a2e0870ee52c6bf,66fce17372fc934423701e26,2024-10-02_08h02.45.818,mdp,2024.2.1,Win32,60.24096386,66fa4ebf79326e780c390304,,,,,,,,,,,,,,,,,,,,,1322.7352,1322.7353,1322.7379,1323.5684,1,0,right,0.3078,,1323.572,1323.5742,0,1,,1323.5763,1323.5778,1,1,,1,1323.5779,1323.578,1323.5796,1325.0744,0,38,38,38,1,0.2,0.8,0.8,0.2,1,0,,,,,,,,,,,,,,,,,,,,,,,,,,,,,,,,,,,,
,,66a4f41f0a2e0870ee52c6bf,66fce17372fc934423701e26,2024-10-02_08h02.45.818,mdp,2024.2.1,Win32,60.24096386,66fa4ebf79326e780c390304,,,,,,,,,,,,,,,,,,,,,1325.0762,1325.0762,1325.0792,1326.6821,1,0,right,1.0742,,1326.6853,1326.6876,0,0,,1326.6897,1326.6912,1,1,,1,1326.6913,1326.6913,1326.693,1328.1847,0,39,39,39,1,0.2,0.8,0.8,0.2,1,0,,,,,,,,,,,,,,,,,,,,,,,,,,,,,,,,,,,,
,,66a4f41f0a2e0870ee52c6bf,66fce17372fc934423701e26,2024-10-02_08h02.45.818,mdp,2024.2.1,Win32,60.24096386,66fa4ebf79326e780c390304,,,,,,,,,,,,,,,,,,,,,1328.1869,1328.1869,1328.1901,1329.4021,1,0,right,0.6855,,1329.4065,1329.4087,0,1,,1329.4108,1329.4124,1,1,,1,1329.4125,1329.4126,1329.4142,1330.9101,0,40,40,40,1,0.2,0.8,0.8,0.2,1,0,,,,,,,,,,,,,,,,,,,,,,,,,,,,,,,,,,,,
